acc1_x,acc1_y,acc1_z,gyro_x,gyro_y,gyro_z,acc2_x,acc2_y,acc2_z
-9.0,-248.0,-37.0,44.0,18.0,-8.0,-39.0,-998.0,-133.0
-5.0,-251.0,-38.0,46.0,19.0,-8.0,-39.0,-999.0,-129.0
-5.0,-243.0,-36.0,46.0,18.0,-9.0,-40.0,-1005.0,-127.0
-8.0,-243.0,-36.0,46.0,19.0,-10.0,-37.0,-1000.0,-130.0
-6.0,-247.0,-38.0,46.0,20.0,-10.0,-39.0,-1000.0,-134.0
-7.0,-250.0,-35.0,43.0,19.0,-8.0,-38.0,-1000.0,-131.0
-7.0,-245.0,-36.0,40.0,18.0,-9.0,-37.0,-1002.0,-126.0
-6.0,-244.0,-35.0,37.0,19.0,-9.0,-37.0,-998.0,-127.0
-10.0,-244.0,-30.0,36.0,18.0,-10.0,-36.0,-1001.0,-133.0
-7.0,-246.0,-32.0,35.0,18.0,-10.0,-35.0,-999.0,-127.0
-7.0,-247.0,-31.0,36.0,17.0,-11.0,-40.0,-1008.0,-131.0
-8.0,-248.0,-35.0,36.0,16.0,-12.0,-39.0,-999.0,-134.0
-9.0,-246.0,-37.0,37.0,15.0,-11.0,-38.0,-1005.0,-128.0
-10.0,-247.0,-39.0,37.0,16.0,-10.0,-40.0,-1006.0,-133.0
-11.0,-243.0,-35.0,35.0,16.0,-8.0,-38.0,-1005.0,-121.0
-5.0,-253.0,-39.0,35.0,15.0,-8.0,-40.0,-1002.0,-119.0
-7.0,-248.0,-34.0,35.0,16.0,-9.0,-40.0,-999.0,-123.0
-8.0,-246.0,-34.0,36.0,15.0,-8.0,-38.0,-1000.0,-128.0
-8.0,-247.0,-32.0,38.0,14.0,-9.0,-37.0,-1009.0,-125.0
-5.0,-245.0,-35.0,42.0,14.0,-10.0,-40.0,-1008.0,-127.0
-7.0,-244.0,-35.0,46.0,14.0,-11.0,-30.0,-1006.0,-131.0
-9.0,-244.0,-34.0,47.0,14.0,-12.0,-36.0,-1000.0,-130.0
-11.0,-247.0,-34.0,47.0,13.0,-11.0,-31.0,-995.0,-130.0
-7.0,-243.0,-37.0,43.0,13.0,-11.0,-36.0,-995.0,-129.0
-7.0,-246.0,-36.0,38.0,15.0,-12.0,-32.0,-999.0,-129.0
-8.0,-243.0,-31.0,31.0,16.0,-12.0,-35.0,-1001.0,-119.0
-8.0,-244.0,-35.0,27.0,18.0,-12.0,-36.0,-1006.0,-124.0
-5.0,-251.0,-36.0,26.0,20.0,-12.0,-38.0,-1003.0,-128.0
-9.0,-252.0,-33.0,29.0,21.0,-10.0,-31.0,-1004.0,-118.0
-6.0,-247.0,-35.0,33.0,21.0,-12.0,-36.0,-1007.0,-122.0
-4.0,-247.0,-33.0,35.0,20.0,-13.0,-36.0,-1008.0,-130.0
-7.0,-249.0,-31.0,40.0,19.0,-13.0,-35.0,-1002.0,-122.0
-9.0,-247.0,-32.0,41.0,20.0,-12.0,-36.0,-1007.0,-125.0
-6.0,-249.0,-37.0,42.0,20.0,-12.0,-34.0,-1005.0,-135.0
-11.0,-243.0,-35.0,40.0,20.0,-11.0,-41.0,-1007.0,-132.0
-9.0,-245.0,-34.0,37.0,21.0,-11.0,-36.0,-1004.0,-129.0
-5.0,-248.0,-38.0,35.0,21.0,-13.0,-37.0,-1002.0,-129.0
-9.0,-251.0,-33.0,33.0,21.0,-11.0,-37.0,-1004.0,-128.0
-10.0,-246.0,-35.0,34.0,19.0,-11.0,-36.0,-1010.0,-132.0
-7.0,-247.0,-36.0,36.0,20.0,-10.0,-34.0,-1007.0,-126.0
-4.0,-249.0,-37.0,39.0,20.0,-10.0,-36.0,-1005.0,-130.0
-6.0,-249.0,-36.0,42.0,21.0,-11.0,-37.0,-1010.0,-137.0
-5.0,-248.0,-35.0,44.0,21.0,-9.0,-37.0,-1007.0,-132.0
-10.0,-248.0,-31.0,46.0,21.0,-10.0,-37.0,-1003.0,-129.0
-5.0,-249.0,-35.0,47.0,20.0,-11.0,-36.0,-1011.0,-131.0
-8.0,-245.0,-35.0,46.0,21.0,-8.0,-40.0,-1006.0,-139.0
-11.0,-243.0,-37.0,44.0,22.0,-9.0,-35.0,-1003.0,-135.0
-7.0,-250.0,-31.0,41.0,23.0,-9.0,-37.0,-997.0,-135.0
-8.0,-244.0,-40.0,41.0,23.0,-8.0,-39.0,-1007.0,-132.0
-7.0,-248.0,-34.0,40.0,23.0,-8.0,-37.0,-1006.0,-133.0
-4.0,-249.0,-34.0,41.0,23.0,-9.0,-35.0,-1007.0,-131.0
-8.0,-244.0,-34.0,43.0,24.0,-8.0,-34.0,-1004.0,-133.0
-7.0,-248.0,-34.0,44.0,22.0,-8.0,-40.0,-1004.0,-132.0
-6.0,-248.0,-29.0,47.0,20.0,-9.0,-40.0,-1006.0,-129.0
-7.0,-244.0,-37.0,47.0,20.0,-10.0,-35.0,-1001.0,-130.0
-4.0,-245.0,-36.0,50.0,20.0,-10.0,-35.0,-1008.0,-132.0
-7.0,-247.0,-35.0,50.0,18.0,-10.0,-37.0,-1007.0,-127.0
-4.0,-247.0,-34.0,47.0,19.0,-9.0,-32.0,-1007.0,-123.0
-11.0,-248.0,-28.0,46.0,18.0,-10.0,-33.0,-997.0,-124.0
-4.0,-246.0,-37.0,45.0,18.0,-11.0,-32.0,-1000.0,-136.0
-5.0,-249.0,-34.0,42.0,19.0,-10.0,-34.0,-1004.0,-136.0
-5.0,-245.0,-36.0,41.0,18.0,-8.0,-37.0,-1000.0,-131.0
-7.0,-248.0,-33.0,41.0,16.0,-9.0,-37.0,-1003.0,-133.0
-9.0,-246.0,-33.0,41.0,15.0,-8.0,-38.0,-1001.0,-130.0
-5.0,-247.0,-33.0,42.0,14.0,-7.0,-43.0,-1005.0,-128.0
-9.0,-248.0,-36.0,41.0,13.0,-8.0,-38.0,-1001.0,-133.0
-8.0,-243.0,-39.0,42.0,13.0,-7.0,-39.0,-1002.0,-130.0
-8.0,-247.0,-37.0,40.0,11.0,-7.0,-40.0,-996.0,-128.0
-7.0,-245.0,-35.0,38.0,10.0,-6.0,-38.0,-998.0,-140.0
-7.0,-235.0,-38.0,38.0,9.0,-9.0,-39.0,-999.0,-136.0
-8.0,-245.0,-37.0,37.0,10.0,-9.0,-35.0,-1000.0,-138.0
-7.0,-247.0,-36.0,36.0,10.0,-10.0,-38.0,-1002.0,-130.0
-5.0,-245.0,-37.0,35.0,11.0,-9.0,-35.0,-1003.0,-140.0
-6.0,-246.0,-39.0,33.0,10.0,-10.0,-39.0,-1000.0,-133.0
-7.0,-243.0,-38.0,32.0,11.0,-11.0,-40.0,-1007.0,-139.0
-11.0,-247.0,-38.0,32.0,10.0,-12.0,-40.0,-1004.0,-138.0
-9.0,-247.0,-33.0,33.0,10.0,-10.0,-44.0,-1003.0,-134.0
-12.0,-245.0,-39.0,35.0,9.0,-11.0,-39.0,-1001.0,-140.0
-10.0,-243.0,-36.0,34.0,8.0,-12.0,-46.0,-1002.0,-140.0
-11.0,-244.0,-38.0,34.0,6.0,-11.0,-40.0,-998.0,-138.0
-9.0,-242.0,-37.0,31.0,6.0,-11.0,-42.0,-993.0,-135.0
-9.0,-244.0,-39.0,29.0,4.0,-11.0,-38.0,-1002.0,-142.0
-11.0,-243.0,-34.0,27.0,3.0,-9.0,-42.0,-1003.0,-138.0
-7.0,-246.0,-39.0,27.0,3.0,-8.0,-33.0,-1001.0,-139.0
-8.0,-247.0,-34.0,26.0,3.0,-7.0,-42.0,-1003.0,-139.0
-8.0,-247.0,-40.0,26.0,2.0,-8.0,-36.0,-1002.0,-135.0
-8.0,-248.0,-38.0,26.0,2.0,-10.0,-43.0,-1005.0,-138.0
-6.0,-249.0,-36.0,25.0,2.0,-9.0,-38.0,-1002.0,-134.0
-8.0,-246.0,-39.0,26.0,2.0,-10.0,-37.0,-1002.0,-137.0
-5.0,-246.0,-35.0,26.0,1.0,-10.0,-36.0,-1000.0,-134.0
-14.0,-241.0,-45.0,25.0,1.0,-9.0,-38.0,-1005.0,-139.0
-7.0,-244.0,-37.0,25.0,0.0,-8.0,-37.0,-1000.0,-136.0
-8.0,-243.0,-36.0,25.0,0.0,-11.0,-41.0,-998.0,-137.0
-6.0,-243.0,-33.0,23.0,3.0,-11.0,-38.0,-1000.0,-140.0
-10.0,-247.0,-37.0,21.0,3.0,-11.0,-37.0,-1001.0,-137.0
-7.0,-244.0,-34.0,19.0,3.0,-11.0,-42.0,-999.0,-138.0
-5.0,-246.0,-37.0,18.0,4.0,-12.0,-36.0,-1004.0,-134.0
-6.0,-243.0,-37.0,17.0,5.0,-12.0,-32.0,-996.0,-134.0
-10.0,-246.0,-37.0,13.0,8.0,-11.0,-37.0,-996.0,-143.0
-14.0,-243.0,-37.0,12.0,8.0,-11.0,-37.0,-1000.0,-143.0
-7.0,-247.0,-38.0,9.0,7.0,-11.0,-36.0,-995.0,-133.0
-11.0,-245.0,-41.0,9.0,7.0,-12.0,-37.0,-1007.0,-132.0
-10.0,-245.0,-37.0,8.0,6.0,-13.0,-37.0,-1007.0,-138.0
-6.0,-246.0,-34.0,10.0,6.0,-13.0,-38.0,-1004.0,-134.0
-8.0,-247.0,-38.0,10.0,7.0,-12.0,-36.0,-1008.0,-139.0
-5.0,-247.0,-34.0,11.0,8.0,-12.0,-39.0,-1005.0,-132.0
-7.0,-251.0,-35.0,12.0,8.0,-13.0,-37.0,-1004.0,-134.0
-6.0,-248.0,-36.0,14.0,10.0,-11.0,-31.0,-1005.0,-132.0
-5.0,-250.0,-40.0,16.0,9.0,-10.0,-36.0,-1008.0,-138.0
-6.0,-247.0,-37.0,17.0,9.0,-12.0,-37.0,-1004.0,-134.0
-7.0,-245.0,-35.0,18.0,11.0,-13.0,-33.0,-1004.0,-132.0
-7.0,-243.0,-33.0,19.0,12.0,-11.0,-38.0,-1004.0,-136.0
-13.0,-247.0,-42.0,21.0,12.0,-10.0,-37.0,-1008.0,-135.0
-8.0,-248.0,-38.0,22.0,12.0,-10.0,-37.0,-1005.0,-133.0
-11.0,-246.0,-38.0,23.0,13.0,-11.0,-38.0,-1006.0,-139.0
-7.0,-248.0,-39.0,24.0,13.0,-10.0,-41.0,-1011.0,-146.0
-11.0,-246.0,-35.0,25.0,13.0,-10.0,-46.0,-1007.0,-139.0
-6.0,-246.0,-35.0,27.0,12.0,-11.0,-39.0,-1003.0,-140.0
-8.0,-248.0,-38.0,31.0,13.0,-11.0,-43.0,-1004.0,-133.0
-9.0,-246.0,-37.0,32.0,13.0,-12.0,-42.0,-1003.0,-140.0
-9.0,-245.0,-34.0,32.0,12.0,-12.0,-45.0,-1005.0,-137.0
-10.0,-244.0,-33.0,33.0,11.0,-10.0,-35.0,-1002.0,-132.0
-10.0,-250.0,-40.0,33.0,8.0,-10.0,-38.0,-998.0,-140.0
-10.0,-245.0,-35.0,32.0,8.0,-9.0,-42.0,-1000.0,-139.0
-7.0,-246.0,-37.0,33.0,9.0,-10.0,-37.0,-1002.0,-142.0
-8.0,-246.0,-36.0,34.0,7.0,-9.0,-44.0,-1000.0,-145.0
-8.0,-249.0,-38.0,37.0,7.0,-9.0,-43.0,-1002.0,-142.0
-6.0,-247.0,-41.0,38.0,8.0,-8.0,-38.0,-1002.0,-140.0
-8.0,-245.0,-37.0,42.0,8.0,-8.0,-41.0,-1003.0,-138.0
-7.0,-249.0,-40.0,42.0,9.0,-7.0,-40.0,-1004.0,-140.0
-6.0,-246.0,-38.0,41.0,6.0,-8.0,-39.0,-1002.0,-140.0
-4.0,-247.0,-41.0,40.0,5.0,-8.0,-35.0,-1005.0,-146.0
-5.0,-247.0,-39.0,39.0,4.0,-7.0,-35.0,-1002.0,-141.0
-11.0,-247.0,-36.0,39.0,5.0,-8.0,-35.0,-1007.0,-139.0
-6.0,-248.0,-38.0,41.0,4.0,-8.0,-38.0,-1006.0,-136.0
-10.0,-247.0,-37.0,43.0,5.0,-8.0,-36.0,-1006.0,-139.0
-5.0,-248.0,-40.0,46.0,5.0,-8.0,-34.0,-1008.0,-147.0
-8.0,-245.0,-35.0,47.0,5.0,-7.0,-41.0,-1007.0,-145.0
-10.0,-247.0,-38.0,49.0,3.0,-10.0,-39.0,-1001.0,-150.0
-7.0,-245.0,-39.0,49.0,2.0,-10.0,-40.0,-999.0,-143.0
-6.0,-244.0,-40.0,49.0,1.0,-9.0,-41.0,-998.0,-146.0
-11.0,-242.0,-41.0,50.0,1.0,-11.0,-41.0,-998.0,-146.0
-8.0,-244.0,-43.0,51.0,0.0,-9.0,-39.0,-1003.0,-146.0
-6.0,-244.0,-35.0,53.0,1.0,-9.0,-45.0,-998.0,-146.0
-8.0,-244.0,-39.0,54.0,1.0,-10.0,-38.0,-998.0,-151.0
-7.0,-243.0,-39.0,55.0,1.0,-9.0,-36.0,-997.0,-151.0
-7.0,-245.0,-45.0,55.0,1.0,-10.0,-38.0,-997.0,-152.0
-7.0,-246.0,-41.0,52.0,1.0,-9.0,-35.0,-1002.0,-154.0
-7.0,-246.0,-38.0,50.0,1.0,-9.0,-39.0,-1003.0,-146.0
-7.0,-246.0,-37.0,51.0,2.0,-10.0,-34.0,-1004.0,-145.0
-5.0,-249.0,-42.0,51.0,2.0,-8.0,-33.0,-1001.0,-138.0
-4.0,-247.0,-38.0,50.0,4.0,-6.0,-33.0,-1003.0,-140.0
-9.0,-244.0,-42.0,49.0,6.0,-9.0,-39.0,-1002.0,-143.0
-5.0,-244.0,-34.0,49.0,8.0,-7.0,-36.0,-1000.0,-143.0
-5.0,-246.0,-38.0,50.0,10.0,-9.0,-35.0,-995.0,-140.0
-7.0,-241.0,-39.0,53.0,10.0,-8.0,-39.0,-998.0,-134.0
-7.0,-244.0,-39.0,55.0,11.0,-8.0,-38.0,-995.0,-141.0
-6.0,-247.0,-38.0,53.0,11.0,-8.0,-42.0,-998.0,-147.0
-9.0,-245.0,-42.0,49.0,10.0,-8.0,-36.0,-993.0,-149.0
-5.0,-246.0,-41.0,44.0,11.0,-8.0,-32.0,-996.0,-146.0
-5.0,-247.0,-38.0,41.0,13.0,-9.0,-38.0,-997.0,-146.0
-8.0,-244.0,-40.0,35.0,14.0,-7.0,-37.0,-999.0,-146.0
-9.0,-248.0,-39.0,34.0,15.0,-7.0,-33.0,-1000.0,-148.0
-11.0,-248.0,-38.0,33.0,15.0,-10.0,-37.0,-998.0,-145.0
-6.0,-246.0,-41.0,33.0,14.0,-10.0,-38.0,-1000.0,-142.0
-7.0,-250.0,-38.0,36.0,13.0,-10.0,-43.0,-1001.0,-141.0
-10.0,-253.0,-33.0,38.0,13.0,-9.0,-36.0,-1003.0,-145.0
-7.0,-244.0,-39.0,38.0,14.0,-9.0,-36.0,-1002.0,-147.0
-6.0,-246.0,-39.0,38.0,15.0,-9.0,-40.0,-997.0,-145.0
-7.0,-243.0,-35.0,37.0,14.0,-9.0,-36.0,-998.0,-148.0
-8.0,-244.0,-38.0,36.0,15.0,-9.0,-37.0,-1000.0,-142.0
-8.0,-245.0,-34.0,33.0,15.0,-8.0,-40.0,-999.0,-142.0
-12.0,-243.0,-37.0,31.0,14.0,-9.0,-40.0,-998.0,-140.0
-13.0,-244.0,-38.0,27.0,14.0,-6.0,-45.0,-1001.0,-142.0
-11.0,-245.0,-37.0,26.0,14.0,-7.0,-41.0,-1005.0,-145.0
-9.0,-244.0,-40.0,23.0,12.0,-8.0,-44.0,-1002.0,-142.0
-6.0,-245.0,-40.0,24.0,10.0,-6.0,-44.0,-997.0,-144.0
-9.0,-248.0,-39.0,23.0,9.0,-8.0,-46.0,-1001.0,-145.0
-6.0,-244.0,-39.0,24.0,7.0,-8.0,-43.0,-1006.0,-142.0
-10.0,-245.0,-38.0,26.0,6.0,-8.0,-41.0,-1001.0,-150.0
-10.0,-246.0,-36.0,25.0,5.0,-7.0,-41.0,-1000.0,-145.0
-7.0,-247.0,-38.0,25.0,5.0,-8.0,-40.0,-997.0,-145.0
-4.0,-246.0,-41.0,24.0,4.0,-9.0,-43.0,-998.0,-141.0
-6.0,-249.0,-36.0,22.0,2.0,-10.0,-40.0,-994.0,-153.0
-8.0,-246.0,-39.0,22.0,1.0,-10.0,-42.0,-1002.0,-150.0
-8.0,-245.0,-38.0,23.0,2.0,-9.0,-42.0,-1001.0,-143.0
-12.0,-243.0,-39.0,24.0,3.0,-10.0,-41.0,-1002.0,-142.0
-7.0,-247.0,-43.0,23.0,2.0,-9.0,-46.0,-996.0,-143.0
-8.0,-247.0,-41.0,21.0,1.0,-10.0,-44.0,-998.0,-141.0
-8.0,-248.0,-41.0,20.0,1.0,-10.0,-42.0,-1005.0,-142.0
-7.0,-245.0,-37.0,19.0,3.0,-12.0,-43.0,-1001.0,-141.0
-6.0,-244.0,-42.0,17.0,4.0,-11.0,-44.0,-1000.0,-144.0
-10.0,-245.0,-39.0,16.0,5.0,-11.0,-38.0,-1004.0,-142.0
-9.0,-247.0,-36.0,17.0,3.0,-11.0,-44.0,-1006.0,-141.0
-4.0,-249.0,-41.0,20.0,1.0,-11.0,-42.0,-1000.0,-145.0
-10.0,-248.0,-39.0,19.0,1.0,-10.0,-44.0,-1005.0,-150.0
-10.0,-245.0,-37.0,19.0,1.0,-11.0,-36.0,-1003.0,-149.0
-9.0,-245.0,-38.0,18.0,-3.0,-9.0,-41.0,-1000.0,-139.0
-13.0,-244.0,-39.0,18.0,-6.0,-9.0,-41.0,-1008.0,-143.0
-7.0,-248.0,-40.0,18.0,-6.0,-8.0,-40.0,-998.0,-144.0
-9.0,-246.0,-37.0,18.0,-5.0,-7.0,-40.0,-1002.0,-145.0
-10.0,-247.0,-41.0,18.0,-5.0,-7.0,-45.0,-1010.0,-154.0
-12.0,-247.0,-44.0,18.0,-3.0,-8.0,-43.0,-1001.0,-149.0
-5.0,-245.0,-42.0,20.0,-1.0,-8.0,-41.0,-1003.0,-151.0
-9.0,-247.0,-40.0,21.0,2.0,-7.0,-35.0,-1005.0,-148.0
-8.0,-245.0,-40.0,21.0,3.0,-9.0,-39.0,-1000.0,-148.0
-9.0,-245.0,-41.0,23.0,5.0,-9.0,-42.0,-1004.0,-151.0
-5.0,-247.0,-38.0,24.0,4.0,-10.0,-39.0,-1000.0,-149.0
-9.0,-247.0,-39.0,23.0,4.0,-12.0,-34.0,-1003.0,-152.0
-4.0,-247.0,-39.0,21.0,3.0,-11.0,-33.0,-1005.0,-150.0
-8.0,-247.0,-40.0,20.0,4.0,-11.0,-32.0,-1003.0,-154.0
-10.0,-246.0,-39.0,19.0,5.0,-12.0,-39.0,-1002.0,-154.0
-8.0,-246.0,-40.0,22.0,5.0,-13.0,-42.0,-1006.0,-152.0
-7.0,-247.0,-42.0,22.0,7.0,-11.0,-39.0,-1003.0,-152.0
-9.0,-248.0,-44.0,22.0,5.0,-11.0,-35.0,-999.0,-149.0
-10.0,-246.0,-42.0,23.0,5.0,-12.0,-31.0,-1003.0,-154.0
-10.0,-246.0,-44.0,23.0,5.0,-11.0,-39.0,-999.0,-154.0
-8.0,-241.0,-42.0,24.0,5.0,-11.0,-39.0,-1007.0,-155.0
-5.0,-247.0,-43.0,24.0,3.0,-12.0,-36.0,-1000.0,-145.0
-8.0,-243.0,-41.0,25.0,3.0,-12.0,-40.0,-1001.0,-153.0
-9.0,-248.0,-39.0,26.0,3.0,-11.0,-41.0,-1008.0,-147.0
-8.0,-247.0,-38.0,28.0,1.0,-10.0,-40.0,-1004.0,-148.0
-9.0,-247.0,-38.0,30.0,1.0,-10.0,-36.0,-999.0,-144.0
-11.0,-245.0,-41.0,31.0,1.0,-10.0,-42.0,-1007.0,-159.0
-9.0,-244.0,-39.0,32.0,1.0,-8.0,-40.0,-1000.0,-153.0
-7.0,-246.0,-40.0,34.0,2.0,-9.0,-39.0,-996.0,-155.0
-9.0,-250.0,-40.0,34.0,4.0,-9.0,-41.0,-1006.0,-146.0
-4.0,-248.0,-43.0,34.0,6.0,-10.0,-38.0,-1000.0,-154.0
-7.0,-248.0,-38.0,35.0,8.0,-8.0,-30.0,-998.0,-154.0
-9.0,-241.0,-42.0,34.0,11.0,-9.0,-40.0,-996.0,-153.0
-7.0,-249.0,-49.0,35.0,11.0,-10.0,-39.0,-995.0,-151.0
-9.0,-246.0,-42.0,32.0,10.0,-10.0,-42.0,-999.0,-158.0
-11.0,-243.0,-41.0,31.0,11.0,-9.0,-40.0,-999.0,-158.0
-8.0,-245.0,-41.0,30.0,9.0,-7.0,-40.0,-999.0,-154.0
-8.0,-247.0,-40.0,28.0,8.0,-8.0,-41.0,-999.0,-161.0
-7.0,-247.0,-43.0,26.0,8.0,-7.0,-35.0,-1003.0,-156.0
-9.0,-247.0,-40.0,26.0,6.0,-8.0,-36.0,-998.0,-158.0
-6.0,-246.0,-42.0,28.0,6.0,-9.0,-35.0,-1003.0,-158.0
-5.0,-247.0,-44.0,29.0,8.0,-9.0,-35.0,-1006.0,-162.0
-7.0,-247.0,-45.0,32.0,10.0,-9.0,-38.0,-1005.0,-157.0
-4.0,-248.0,-40.0,36.0,9.0,-11.0,-33.0,-1004.0,-162.0
-7.0,-246.0,-49.0,38.0,10.0,-10.0,-33.0,-999.0,-157.0
-5.0,-243.0,-43.0,40.0,11.0,-9.0,-37.0,-1002.0,-160.0
-9.0,-244.0,-43.0,40.0,12.0,-10.0,-33.0,-998.0,-158.0
-5.0,-245.0,-38.0,38.0,15.0,-9.0,-36.0,-1002.0,-161.0
-5.0,-250.0,-43.0,38.0,17.0,-9.0,-34.0,-997.0,-157.0
-9.0,-244.0,-43.0,38.0,18.0,-11.0,-38.0,-1000.0,-157.0
-10.0,-247.0,-38.0,40.0,18.0,-8.0,-37.0,-997.0,-158.0
-10.0,-248.0,-43.0,42.0,20.0,-9.0,-35.0,-1002.0,-158.0
-6.0,-245.0,-44.0,46.0,19.0,-10.0,-36.0,-1005.0,-150.0
-8.0,-247.0,-44.0,47.0,18.0,-10.0,-37.0,-1002.0,-158.0
0.0,-246.0,-52.0,50.0,18.0,-8.0,-39.0,-1000.0,-155.0
-10.0,-245.0,-41.0,51.0,17.0,-9.0,-40.0,-1003.0,-158.0
-9.0,-248.0,-42.0,52.0,15.0,-8.0,-38.0,-1001.0,-158.0
-10.0,-245.0,-40.0,52.0,13.0,-7.0,-44.0,-998.0,-158.0
-9.0,-245.0,-42.0,51.0,14.0,-8.0,-38.0,-999.0,-162.0
-8.0,-247.0,-45.0,50.0,12.0,-7.0,-40.0,-1000.0,-161.0
-6.0,-244.0,-45.0,48.0,10.0,-8.0,-42.0,-996.0,-160.0
-7.0,-244.0,-46.0,47.0,11.0,-7.0,-37.0,-995.0,-158.0
-9.0,-244.0,-38.0,47.0,11.0,-7.0,-42.0,-997.0,-156.0
-4.0,-248.0,-44.0,47.0,13.0,-8.0,-42.0,-998.0,-163.0
-12.0,-244.0,-44.0,50.0,16.0,-10.0,-40.0,-1000.0,-166.0
-9.0,-255.0,-42.0,53.0,19.0,-9.0,-39.0,-1005.0,-163.0
-8.0,-247.0,-42.0,54.0,21.0,-11.0,-40.0,-1006.0,-158.0
-6.0,-248.0,-42.0,56.0,23.0,-10.0,-37.0,-1006.0,-160.0
-9.0,-244.0,-40.0,57.0,23.0,-11.0,-41.0,-1000.0,-155.0
-5.0,-249.0,-44.0,58.0,24.0,-10.0,-38.0,-998.0,-164.0
-7.0,-245.0,-41.0,59.0,24.0,-10.0,-39.0,-998.0,-163.0
-7.0,-246.0,-42.0,60.0,25.0,-8.0,-32.0,-1003.0,-164.0
-6.0,-250.0,-44.0,62.0,24.0,-11.0,-43.0,-1001.0,-168.0
-10.0,-243.0,-41.0,66.0,23.0,-11.0,-42.0,-1002.0,-166.0
-6.0,-248.0,-45.0,67.0,22.0,-13.0,-38.0,-998.0,-167.0
-9.0,-247.0,-46.0,69.0,21.0,-10.0,-40.0,-995.0,-163.0
-5.0,-246.0,-48.0,69.0,19.0,-9.0,-35.0,-995.0,-167.0
-8.0,-247.0,-43.0,67.0,19.0,-8.0,-37.0,-998.0,-164.0
-7.0,-243.0,-42.0,66.0,19.0,-6.0,-43.0,-1001.0,-161.0
-8.0,-248.0,-44.0,65.0,17.0,-6.0,-37.0,-1005.0,-158.0
-8.0,-245.0,-40.0,64.0,18.0,-6.0,-32.0,-1003.0,-153.0
-5.0,-247.0,-41.0,64.0,18.0,-5.0,-33.0,-1006.0,-154.0
-8.0,-243.0,-44.0,64.0,20.0,-5.0,-36.0,-1002.0,-155.0
-7.0,-248.0,-38.0,67.0,24.0,-7.0,-40.0,-1003.0,-154.0
-3.0,-248.0,-39.0,70.0,26.0,-6.0,-38.0,-1001.0,-152.0
-8.0,-246.0,-44.0,72.0,30.0,-8.0,-36.0,-1001.0,-148.0
-16.0,-249.0,-40.0,72.0,34.0,-8.0,-39.0,-999.0,-157.0
-6.0,-246.0,-42.0,71.0,34.0,-6.0,-39.0,-1000.0,-152.0
-8.0,-245.0,-40.0,69.0,38.0,-7.0,-44.0,-994.0,-157.0
-10.0,-242.0,-44.0,64.0,38.0,-7.0,-42.0,-998.0,-153.0
-8.0,-245.0,-41.0,59.0,37.0,-7.0,-42.0,-995.0,-159.0
-11.0,-248.0,-43.0,55.0,35.0,-7.0,-43.0,-993.0,-157.0
-10.0,-245.0,-44.0,52.0,34.0,-8.0,-47.0,-1001.0,-159.0
-9.0,-246.0,-43.0,50.0,32.0,-6.0,-46.0,-995.0,-154.0
-12.0,-246.0,-42.0,51.0,30.0,-3.0,-55.0,-997.0,-150.0
-10.0,-248.0,-42.0,53.0,26.0,-4.0,-43.0,-998.0,-154.0
-9.0,-244.0,-44.0,58.0,25.0,-4.0,-52.0,-1004.0,-157.0
-13.0,-250.0,-43.0,61.0,23.0,-4.0,-46.0,-1004.0,-155.0
-11.0,-245.0,-43.0,62.0,20.0,-4.0,-53.0,-999.0,-160.0
-12.0,-243.0,-45.0,63.0,19.0,-4.0,-46.0,-997.0,-158.0
-9.0,-245.0,-43.0,62.0,16.0,-6.0,-46.0,-997.0,-162.0
-10.0,-246.0,-48.0,58.0,16.0,-6.0,-47.0,-994.0,-161.0
-9.0,-246.0,-47.0,56.0,15.0,-7.0,-45.0,-996.0,-163.0
-8.0,-246.0,-42.0,53.0,14.0,-8.0,-45.0,-1000.0,-163.0
-9.0,-247.0,-41.0,52.0,12.0,-7.0,-50.0,-994.0,-150.0
-10.0,-245.0,-40.0,51.0,10.0,-10.0,-41.0,-997.0,-155.0
-9.0,-246.0,-41.0,52.0,9.0,-11.0,-40.0,-996.0,-148.0
-5.0,-240.0,-39.0,55.0,8.0,-12.0,-41.0,-997.0,-154.0
-12.0,-244.0,-39.0,54.0,5.0,-13.0,-39.0,-998.0,-148.0
-11.0,-246.0,-41.0,53.0,4.0,-12.0,-45.0,-994.0,-153.0
-10.0,-246.0,-37.0,51.0,2.0,-13.0,-43.0,-998.0,-152.0
-6.0,-246.0,-36.0,48.0,0.0,-12.0,-40.0,-992.0,-145.0
-9.0,-246.0,-36.0,47.0,-3.0,-12.0,-44.0,-995.0,-148.0
-5.0,-247.0,-39.0,49.0,-5.0,-12.0,-41.0,-997.0,-148.0
-11.0,-244.0,-43.0,49.0,-7.0,-13.0,-42.0,-1001.0,-151.0
-5.0,-249.0,-39.0,49.0,-9.0,-11.0,-40.0,-1007.0,-147.0
-9.0,-246.0,-36.0,49.0,-9.0,-11.0,-41.0,-1003.0,-152.0
-12.0,-245.0,-38.0,49.0,-10.0,-13.0,-41.0,-1002.0,-146.0
-10.0,-248.0,-40.0,48.0,-9.0,-10.0,-42.0,-1004.0,-147.0
-4.0,-246.0,-34.0,49.0,-11.0,-12.0,-47.0,-1001.0,-146.0
-11.0,-246.0,-37.0,47.0,-10.0,-12.0,-38.0,-996.0,-153.0
-6.0,-246.0,-39.0,46.0,-12.0,-10.0,-40.0,-998.0,-146.0
-5.0,-245.0,-41.0,46.0,-12.0,-11.0,-38.0,-999.0,-141.0
-10.0,-245.0,-40.0,46.0,-13.0,-11.0,-39.0,-1000.0,-147.0
-7.0,-246.0,-37.0,47.0,-12.0,-14.0,-34.0,-1003.0,-142.0
-10.0,-243.0,-38.0,46.0,-11.0,-14.0,-38.0,-995.0,-144.0
-12.0,-247.0,-36.0,46.0,-12.0,-12.0,-45.0,-1003.0,-144.0
-7.0,-245.0,-37.0,46.0,-12.0,-11.0,-35.0,-997.0,-149.0
-10.0,-243.0,-39.0,43.0,-10.0,-11.0,-39.0,-1002.0,-149.0
-6.0,-251.0,-41.0,43.0,-9.0,-10.0,-42.0,-1007.0,-144.0
-7.0,-252.0,-47.0,44.0,-7.0,-10.0,-39.0,-1003.0,-150.0
-6.0,-249.0,-40.0,44.0,-5.0,-11.0,-38.0,-1005.0,-147.0
-11.0,-242.0,-41.0,46.0,-4.0,-12.0,-40.0,-1007.0,-143.0
-9.0,-246.0,-36.0,48.0,-2.0,-11.0,-33.0,-1003.0,-140.0
-10.0,-248.0,-39.0,50.0,-4.0,-11.0,-32.0,-998.0,-146.0
-5.0,-245.0,-41.0,52.0,-3.0,-9.0,-40.0,-1000.0,-149.0
-9.0,-248.0,-40.0,52.0,-4.0,-9.0,-40.0,-1000.0,-151.0
-10.0,-249.0,-42.0,54.0,-5.0,-8.0,-38.0,-1001.0,-153.0
-8.0,-244.0,-41.0,54.0,-4.0,-9.0,-38.0,-1005.0,-150.0
-8.0,-247.0,-43.0,54.0,-5.0,-8.0,-39.0,-1003.0,-146.0
-8.0,-247.0,-41.0,53.0,-6.0,-7.0,-41.0,-1001.0,-152.0
-8.0,-246.0,-39.0,52.0,-5.0,-7.0,-40.0,-996.0,-151.0
-5.0,-248.0,-43.0,52.0,-4.0,-6.0,-40.0,-997.0,-151.0
-6.0,-245.0,-41.0,52.0,-4.0,-6.0,-38.0,-1001.0,-148.0
-9.0,-243.0,-37.0,51.0,-4.0,-5.0,-42.0,-997.0,-142.0
-9.0,-246.0,-41.0,51.0,-4.0,-4.0,-38.0,-995.0,-148.0
-9.0,-244.0,-39.0,51.0,-4.0,-3.0,-44.0,-999.0,-141.0
-7.0,-245.0,-44.0,49.0,-4.0,0.0,-39.0,-1000.0,-142.0
-11.0,-244.0,-37.0,45.0,-4.0,-1.0,-43.0,-999.0,-147.0
-10.0,-248.0,-40.0,42.0,-4.0,-1.0,-44.0,-993.0,-145.0
-12.0,-246.0,-43.0,39.0,-3.0,-1.0,-43.0,-995.0,-148.0
-6.0,-245.0,-37.0,35.0,-2.0,-1.0,-42.0,-996.0,-141.0
-8.0,-246.0,-45.0,33.0,-1.0,-1.0,-39.0,-996.0,-148.0
-10.0,-246.0,-39.0,30.0,-3.0,-1.0,-41.0,-996.0,-140.0
-9.0,-244.0,-40.0,27.0,-4.0,-1.0,-47.0,-994.0,-140.0
-8.0,-245.0,-38.0,24.0,-7.0,0.0,-47.0,-998.0,-143.0
-11.0,-244.0,-39.0,22.0,-10.0,0.0,-46.0,-992.0,-142.0
-8.0,-244.0,-42.0,19.0,-11.0,0.0,-46.0,-997.0,-144.0
-7.0,-245.0,-39.0,16.0,-12.0,2.0,-40.0,-996.0,-145.0
-9.0,-244.0,-38.0,12.0,-12.0,3.0,-43.0,-989.0,-149.0
-10.0,-249.0,-45.0,6.0,-13.0,4.0,-42.0,-989.0,-146.0
-15.0,-243.0,-44.0,0.0,-12.0,4.0,-47.0,-995.0,-153.0
-10.0,-242.0,-46.0,-6.0,-13.0,5.0,-46.0,-999.0,-152.0
-5.0,-245.0,-40.0,-14.0,-14.0,5.0,-48.0,-992.0,-148.0
-11.0,-245.0,-38.0,-20.0,-15.0,5.0,-45.0,-994.0,-146.0
-11.0,-246.0,-39.0,-23.0,-15.0,5.0,-46.0,-997.0,-142.0
-11.0,-246.0,-40.0,-24.0,-15.0,5.0,-45.0,-999.0,-147.0
-10.0,-248.0,-40.0,-24.0,-15.0,4.0,-48.0,-1003.0,-145.0
-11.0,-243.0,-40.0,-23.0,-16.0,2.0,-44.0,-1002.0,-142.0
-12.0,-246.0,-40.0,-17.0,-16.0,1.0,-44.0,-1004.0,-152.0
-8.0,-249.0,-39.0,-12.0,-15.0,-2.0,-46.0,-1004.0,-141.0
-7.0,-249.0,-40.0,-8.0,-15.0,-3.0,-41.0,-1004.0,-145.0
-11.0,-247.0,-42.0,-5.0,-16.0,-6.0,-39.0,-1003.0,-147.0
-13.0,-248.0,-41.0,-4.0,-16.0,-6.0,-39.0,-1007.0,-152.0
-4.0,-247.0,-44.0,-4.0,-16.0,-8.0,-43.0,-1006.0,-148.0
-6.0,-249.0,-38.0,-3.0,-18.0,-8.0,-39.0,-1002.0,-151.0
-5.0,-248.0,-43.0,-3.0,-18.0,-10.0,-39.0,-1009.0,-154.0
-7.0,-251.0,-42.0,-1.0,-17.0,-9.0,-34.0,-1008.0,-149.0
-7.0,-247.0,-40.0,2.0,-17.0,-11.0,-41.0,-1016.0,-151.0
-8.0,-247.0,-39.0,7.0,-16.0,-11.0,-36.0,-1012.0,-143.0
-5.0,-247.0,-40.0,11.0,-16.0,-10.0,-38.0,-1014.0,-146.0
-9.0,-250.0,-41.0,16.0,-15.0,-11.0,-30.0,-1014.0,-150.0
-10.0,-247.0,-39.0,22.0,-13.0,-10.0,-32.0,-1008.0,-149.0
-6.0,-248.0,-36.0,28.0,-9.0,-11.0,-34.0,-1007.0,-150.0
-7.0,-247.0,-38.0,31.0,-7.0,-12.0,-33.0,-1010.0,-149.0
-4.0,-248.0,-41.0,34.0,-4.0,-12.0,-34.0,-1002.0,-152.0
-5.0,-246.0,-42.0,35.0,-2.0,-12.0,-32.0,-1003.0,-151.0
-8.0,-247.0,-40.0,37.0,-1.0,-11.0,-31.0,-1005.0,-144.0
-6.0,-246.0,-41.0,38.0,0.0,-12.0,-33.0,-1006.0,-151.0
-6.0,-247.0,-41.0,43.0,2.0,-13.0,-33.0,-1007.0,-145.0
-6.0,-247.0,-43.0,48.0,4.0,-14.0,-35.0,-1012.0,-152.0
-9.0,-245.0,-37.0,54.0,6.0,-13.0,-29.0,-1004.0,-153.0
-4.0,-246.0,-40.0,60.0,7.0,-12.0,-38.0,-1008.0,-152.0
-7.0,-247.0,-43.0,63.0,9.0,-14.0,-38.0,-1006.0,-153.0
-3.0,-250.0,-42.0,65.0,10.0,-14.0,-36.0,-1006.0,-155.0
-7.0,-247.0,-45.0,62.0,12.0,-13.0,-33.0,-1000.0,-153.0
-9.0,-248.0,-41.0,60.0,15.0,-12.0,-33.0,-1001.0,-156.0
-7.0,-247.0,-42.0,58.0,17.0,-13.0,-39.0,-994.0,-156.0
-9.0,-246.0,-40.0,57.0,19.0,-12.0,-41.0,-1006.0,-155.0
-8.0,-246.0,-41.0,58.0,20.0,-12.0,-35.0,-996.0,-152.0
-7.0,-246.0,-42.0,59.0,22.0,-12.0,-42.0,-1003.0,-158.0
-8.0,-245.0,-40.0,62.0,22.0,-12.0,-39.0,-996.0,-155.0
-9.0,-247.0,-44.0,64.0,22.0,-10.0,-40.0,-1003.0,-158.0
-5.0,-246.0,-42.0,64.0,23.0,-11.0,-42.0,-994.0,-161.0
-8.0,-247.0,-42.0,61.0,24.0,-11.0,-30.0,-994.0,-160.0
-11.0,-241.0,-45.0,55.0,27.0,-10.0,-33.0,-993.0,-161.0
-6.0,-246.0,-41.0,52.0,27.0,-11.0,-32.0,-997.0,-156.0
-8.0,-247.0,-40.0,48.0,27.0,-10.0,-29.0,-999.0,-154.0
-8.0,-247.0,-44.0,51.0,28.0,-10.0,-39.0,-997.0,-154.0
-6.0,-246.0,-41.0,54.0,28.0,-11.0,-36.0,-1005.0,-151.0
-6.0,-247.0,-39.0,57.0,26.0,-8.0,-39.0,-999.0,-150.0
-10.0,-246.0,-39.0,60.0,22.0,-7.0,-40.0,-1007.0,-151.0
-9.0,-249.0,-42.0,61.0,20.0,-6.0,-39.0,-999.0,-150.0
-10.0,-244.0,-42.0,60.0,18.0,-4.0,-46.0,-1000.0,-155.0
-9.0,-243.0,-42.0,56.0,19.0,-3.0,-47.0,-1002.0,-157.0
-7.0,-245.0,-42.0,52.0,17.0,-2.0,-47.0,-993.0,-156.0
-8.0,-241.0,-44.0,47.0,16.0,0.0,-51.0,-995.0,-160.0
-9.0,-248.0,-38.0,44.0,16.0,0.0,-51.0,-998.0,-161.0
-12.0,-246.0,-42.0,43.0,15.0,2.0,-47.0,-998.0,-157.0
-13.0,-244.0,-42.0,43.0,14.0,2.0,-52.0,-998.0,-157.0
-14.0,-245.0,-44.0,42.0,12.0,0.0,-48.0,-999.0,-157.0
-11.0,-247.0,-43.0,41.0,11.0,-1.0,-50.0,-997.0,-159.0
-11.0,-246.0,-40.0,41.0,10.0,-2.0,-50.0,-999.0,-152.0
-13.0,-244.0,-39.0,43.0,9.0,-1.0,-47.0,-998.0,-158.0
-10.0,-247.0,-40.0,45.0,6.0,-2.0,-53.0,-1000.0,-157.0
-14.0,-244.0,-40.0,47.0,4.0,-2.0,-58.0,-996.0,-155.0
-15.0,-246.0,-44.0,48.0,0.0,-4.0,-53.0,-1002.0,-158.0
-9.0,-245.0,-43.0,46.0,-3.0,-5.0,-55.0,-995.0,-159.0
-13.0,-246.0,-42.0,43.0,-7.0,-4.0,-61.0,-994.0,-160.0
-12.0,-246.0,-42.0,42.0,-9.0,-4.0,-61.0,-995.0,-161.0
-12.0,-248.0,-39.0,40.0,-12.0,-2.0,-57.0,-999.0,-157.0
-13.0,-245.0,-45.0,42.0,-15.0,-3.0,-59.0,-998.0,-155.0
-13.0,-243.0,-45.0,41.0,-16.0,-4.0,-58.0,-1005.0,-155.0
-11.0,-244.0,-41.0,43.0,-21.0,-3.0,-60.0,-1000.0,-155.0
-14.0,-244.0,-41.0,42.0,-24.0,-6.0,-55.0,-1002.0,-153.0
-8.0,-247.0,-40.0,41.0,-27.0,-7.0,-57.0,-998.0,-154.0
-15.0,-247.0,-42.0,41.0,-31.0,-9.0,-55.0,-1000.0,-155.0
-9.0,-244.0,-48.0,40.0,-33.0,-8.0,-50.0,-1000.0,-158.0
-10.0,-242.0,-41.0,39.0,-37.0,-9.0,-47.0,-1004.0,-161.0
-12.0,-242.0,-44.0,37.0,-37.0,-9.0,-47.0,-1000.0,-160.0
-12.0,-246.0,-41.0,36.0,-40.0,-11.0,-43.0,-999.0,-161.0
-9.0,-248.0,-43.0,34.0,-41.0,-11.0,-48.0,-1000.0,-161.0
-8.0,-247.0,-42.0,32.0,-42.0,-11.0,-43.0,-999.0,-156.0
-11.0,-245.0,-41.0,32.0,-43.0,-10.0,-46.0,-998.0,-154.0
-10.0,-245.0,-40.0,32.0,-43.0,-12.0,-43.0,-999.0,-157.0
-10.0,-246.0,-42.0,34.0,-43.0,-12.0,-47.0,-998.0,-159.0
-8.0,-249.0,-35.0,34.0,-45.0,-12.0,-38.0,-1001.0,-157.0
-11.0,-245.0,-45.0,36.0,-44.0,-10.0,-41.0,-999.0,-160.0
-13.0,-246.0,-46.0,37.0,-45.0,-11.0,-40.0,-1000.0,-162.0
-9.0,-246.0,-43.0,37.0,-45.0,-11.0,-40.0,-996.0,-158.0
-10.0,-245.0,-41.0,38.0,-43.0,-11.0,-40.0,-996.0,-163.0
-7.0,-247.0,-44.0,37.0,-43.0,-10.0,-43.0,-1001.0,-159.0
-10.0,-247.0,-46.0,36.0,-43.0,-9.0,-39.0,-1001.0,-161.0
-9.0,-244.0,-43.0,37.0,-41.0,-8.0,-41.0,-1011.0,-158.0
-8.0,-246.0,-42.0,39.0,-41.0,-10.0,-41.0,-1009.0,-157.0
-7.0,-248.0,-40.0,43.0,-41.0,-12.0,-40.0,-1010.0,-158.0
-10.0,-247.0,-41.0,49.0,-39.0,-11.0,-44.0,-1008.0,-157.0
-12.0,-247.0,-44.0,55.0,-37.0,-9.0,-43.0,-1002.0,-160.0
-7.0,-247.0,-39.0,62.0,-36.0,-8.0,-41.0,-1007.0,-159.0
-5.0,-241.0,-48.0,67.0,-34.0,-10.0,-39.0,-997.0,-161.0
-5.0,-246.0,-40.0,69.0,-31.0,-11.0,-38.0,-999.0,-155.0
-8.0,-245.0,-41.0,71.0,-29.0,-10.0,-40.0,-1004.0,-154.0
-7.0,-242.0,-42.0,69.0,-26.0,-11.0,-42.0,-996.0,-159.0
-10.0,-243.0,-44.0,67.0,-24.0,-10.0,-39.0,-997.0,-155.0
-7.0,-244.0,-47.0,63.0,-22.0,-11.0,-42.0,-996.0,-157.0
-9.0,-243.0,-44.0,56.0,-21.0,-10.0,-42.0,-997.0,-166.0
-4.0,-246.0,-41.0,53.0,-20.0,-9.0,-45.0,-999.0,-161.0
-9.0,-246.0,-45.0,50.0,-18.0,-8.0,-41.0,-998.0,-157.0
-8.0,-245.0,-44.0,51.0,-16.0,-6.0,-44.0,-1002.0,-158.0
-7.0,-246.0,-41.0,55.0,-15.0,-5.0,-42.0,-1001.0,-150.0
-14.0,-246.0,-28.0,57.0,-15.0,-7.0,-41.0,-1000.0,-152.0
-10.0,-247.0,-41.0,58.0,-16.0,-5.0,-43.0,-996.0,-154.0
-12.0,-246.0,-42.0,58.0,-15.0,-5.0,-41.0,-998.0,-154.0
-9.0,-250.0,-42.0,58.0,-13.0,-6.0,-41.0,-999.0,-160.0
-10.0,-246.0,-40.0,59.0,-13.0,-6.0,-45.0,-999.0,-154.0
-10.0,-247.0,-40.0,58.0,-11.0,-7.0,-41.0,-1002.0,-155.0
-10.0,-246.0,-44.0,57.0,-10.0,-7.0,-48.0,-1003.0,-159.0
-10.0,-249.0,-44.0,56.0,-11.0,-9.0,-45.0,-995.0,-153.0
-11.0,-244.0,-41.0,55.0,-11.0,-9.0,-49.0,-996.0,-157.0
-8.0,-249.0,-40.0,54.0,-9.0,-8.0,-42.0,-1003.0,-153.0
-12.0,-248.0,-43.0,54.0,-9.0,-7.0,-46.0,-997.0,-156.0
-10.0,-233.0,-40.0,53.0,-7.0,-9.0,-47.0,-998.0,-156.0
-9.0,-245.0,-44.0,53.0,-8.0,-10.0,-41.0,-999.0,-158.0
-8.0,-247.0,-44.0,53.0,-7.0,-9.0,-43.0,-997.0,-159.0
-8.0,-245.0,-41.0,52.0,-6.0,-10.0,-43.0,-1000.0,-155.0
-9.0,-248.0,-42.0,54.0,-5.0,-12.0,-38.0,-997.0,-163.0
-9.0,-246.0,-44.0,54.0,-3.0,-13.0,-40.0,-996.0,-151.0
-12.0,-244.0,-41.0,52.0,-4.0,-12.0,-44.0,-995.0,-155.0
-13.0,-245.0,-40.0,49.0,-2.0,-12.0,-36.0,-1002.0,-157.0
-6.0,-242.0,-41.0,46.0,1.0,-11.0,-43.0,-997.0,-162.0
-11.0,-241.0,-46.0,42.0,2.0,-11.0,-40.0,-996.0,-165.0
-6.0,-244.0,-44.0,37.0,4.0,-12.0,-41.0,-1002.0,-159.0
-10.0,-246.0,-42.0,34.0,6.0,-12.0,-43.0,-998.0,-158.0
-11.0,-243.0,-40.0,32.0,8.0,-11.0,-43.0,-996.0,-162.0
-8.0,-244.0,-41.0,32.0,8.0,-10.0,-45.0,-997.0,-158.0
-10.0,-245.0,-45.0,33.0,9.0,-9.0,-45.0,-999.0,-160.0
-11.0,-246.0,-42.0,34.0,9.0,-9.0,-45.0,-999.0,-159.0
-11.0,-246.0,-41.0,35.0,10.0,-8.0,-43.0,-997.0,-156.0
-8.0,-247.0,-46.0,37.0,11.0,-8.0,-45.0,-999.0,-159.0
-9.0,-247.0,-39.0,38.0,11.0,-8.0,-42.0,-1001.0,-159.0
-8.0,-248.0,-41.0,37.0,10.0,-8.0,-38.0,-996.0,-162.0
-8.0,-243.0,-42.0,35.0,10.0,-6.0,-48.0,-998.0,-158.0
-15.0,-246.0,-48.0,35.0,10.0,-8.0,-45.0,-998.0,-160.0
-8.0,-245.0,-40.0,33.0,10.0,-7.0,-43.0,-996.0,-160.0
-10.0,-245.0,-41.0,34.0,9.0,-8.0,-45.0,-996.0,-159.0
-12.0,-247.0,-38.0,35.0,11.0,-8.0,-45.0,-1007.0,-162.0
-10.0,-243.0,-41.0,36.0,11.0,-8.0,-47.0,-996.0,-160.0
-13.0,-248.0,-42.0,38.0,12.0,-6.0,-48.0,-995.0,-157.0
-10.0,-246.0,-42.0,38.0,12.0,-8.0,-48.0,-997.0,-159.0
-6.0,-247.0,-38.0,39.0,11.0,-8.0,-52.0,-1003.0,-164.0
-14.0,-244.0,-46.0,39.0,12.0,-9.0,-55.0,-1000.0,-158.0
-12.0,-248.0,-40.0,40.0,12.0,-9.0,-53.0,-1003.0,-159.0
-8.0,-247.0,-44.0,39.0,12.0,-7.0,-54.0,-996.0,-160.0
-8.0,-246.0,-41.0,41.0,14.0,-7.0,-49.0,-997.0,-164.0
-8.0,-247.0,-44.0,40.0,16.0,-8.0,-46.0,-1000.0,-164.0
-11.0,-243.0,-43.0,40.0,16.0,-8.0,-57.0,-1000.0,-160.0
-12.0,-245.0,-39.0,42.0,18.0,-9.0,-48.0,-1003.0,-159.0
-11.0,-245.0,-42.0,42.0,17.0,-10.0,-50.0,-997.0,-162.0
-8.0,-245.0,-43.0,43.0,15.0,-8.0,-50.0,-999.0,-158.0
-11.0,-244.0,-47.0,41.0,13.0,-6.0,-54.0,-999.0,-159.0
-9.0,-249.0,-45.0,40.0,12.0,-7.0,-43.0,-1003.0,-165.0
-11.0,-245.0,-45.0,37.0,11.0,-8.0,-47.0,-1001.0,-157.0
-11.0,-246.0,-47.0,36.0,13.0,-8.0,-49.0,-1001.0,-159.0
-11.0,-249.0,-43.0,35.0,13.0,-9.0,-48.0,-999.0,-161.0
-7.0,-244.0,-41.0,36.0,14.0,-9.0,-47.0,-999.0,-158.0
-10.0,-247.0,-49.0,37.0,16.0,-9.0,-48.0,-1001.0,-161.0
-10.0,-245.0,-45.0,38.0,16.0,-7.0,-46.0,-1001.0,-162.0
-8.0,-248.0,-44.0,37.0,18.0,-7.0,-42.0,-1000.0,-163.0
-9.0,-248.0,-39.0,36.0,21.0,-7.0,-49.0,-1000.0,-164.0
-12.0,-246.0,-41.0,34.0,23.0,-10.0,-39.0,-998.0,-161.0
-13.0,-246.0,-41.0,33.0,23.0,-6.0,-48.0,-993.0,-165.0
-10.0,-248.0,-41.0,33.0,24.0,-8.0,-43.0,-996.0,-159.0
-7.0,-244.0,-46.0,35.0,25.0,-9.0,-44.0,-996.0,-164.0
-12.0,-243.0,-45.0,36.0,24.0,-10.0,-47.0,-994.0,-161.0
-13.0,-244.0,-46.0,40.0,24.0,-9.0,-45.0,-997.0,-166.0
-10.0,-244.0,-43.0,41.0,24.0,-8.0,-41.0,-993.0,-168.0
-10.0,-242.0,-46.0,41.0,22.0,-9.0,-43.0,-994.0,-168.0
-8.0,-245.0,-45.0,38.0,22.0,-9.0,-39.0,-997.0,-164.0
-10.0,-242.0,-43.0,32.0,23.0,-9.0,-41.0,-999.0,-165.0
-7.0,-246.0,-45.0,28.0,23.0,-11.0,-47.0,-987.0,-165.0
-7.0,-245.0,-44.0,25.0,24.0,-8.0,-44.0,-995.0,-160.0
-12.0,-241.0,-49.0,24.0,26.0,-9.0,-46.0,-994.0,-162.0
-9.0,-245.0,-42.0,23.0,28.0,-10.0,-46.0,-999.0,-159.0
-9.0,-252.0,-42.0,24.0,30.0,-8.0,-47.0,-1002.0,-157.0
-13.0,-243.0,-43.0,25.0,31.0,-7.0,-51.0,-999.0,-157.0
-14.0,-247.0,-46.0,24.0,32.0,-7.0,-53.0,-997.0,-158.0
-11.0,-247.0,-47.0,22.0,31.0,-8.0,-51.0,-997.0,-161.0
-14.0,-245.0,-45.0,19.0,32.0,-7.0,-50.0,-996.0,-163.0
-13.0,-246.0,-42.0,14.0,31.0,-7.0,-45.0,-1005.0,-164.0
-10.0,-245.0,-46.0,9.0,31.0,-7.0,-44.0,-997.0,-164.0
-8.0,-247.0,-43.0,6.0,30.0,-6.0,-44.0,-1001.0,-163.0
-12.0,-243.0,-43.0,6.0,30.0,-7.0,-48.0,-999.0,-160.0
-10.0,-246.0,-44.0,5.0,30.0,-5.0,-44.0,-997.0,-158.0
-9.0,-243.0,-41.0,2.0,27.0,-5.0,-47.0,-996.0,-168.0
-12.0,-246.0,-43.0,2.0,26.0,-7.0,-51.0,-997.0,-159.0
-9.0,-247.0,-37.0,2.0,26.0,-5.0,-46.0,-996.0,-164.0
-11.0,-243.0,-50.0,3.0,25.0,-4.0,-52.0,-995.0,-160.0
-8.0,-246.0,-45.0,3.0,26.0,-4.0,-47.0,-998.0,-160.0
-13.0,-242.0,-46.0,6.0,26.0,-4.0,-48.0,-996.0,-164.0
-10.0,-245.0,-43.0,8.0,27.0,-5.0,-47.0,-997.0,-166.0
-15.0,-243.0,-49.0,7.0,28.0,-4.0,-43.0,-993.0,-161.0
-10.0,-249.0,-48.0,4.0,28.0,-4.0,-50.0,-994.0,-165.0
-9.0,-246.0,-45.0,3.0,29.0,-6.0,-44.0,-1000.0,-176.0
-12.0,-244.0,-43.0,0.0,31.0,-6.0,-46.0,-1000.0,-171.0
-5.0,-247.0,-49.0,1.0,33.0,-7.0,-45.0,-996.0,-167.0
-9.0,-245.0,-44.0,0.0,35.0,-8.0,-44.0,-1002.0,-166.0
-11.0,-245.0,-44.0,3.0,34.0,-5.0,-42.0,-1004.0,-170.0
-10.0,-246.0,-44.0,5.0,36.0,-5.0,-41.0,-999.0,-166.0
-12.0,-246.0,-49.0,7.0,35.0,-4.0,-39.0,-1006.0,-165.0
-11.0,-245.0,-44.0,10.0,36.0,-3.0,-39.0,-996.0,-165.0
-12.0,-244.0,-45.0,12.0,39.0,-3.0,-43.0,-999.0,-166.0
-9.0,-242.0,-48.0,13.0,38.0,-2.0,-44.0,-1001.0,-164.0
-11.0,-246.0,-47.0,15.0,38.0,-3.0,-45.0,-994.0,-168.0
-12.0,-245.0,-46.0,13.0,37.0,-5.0,-42.0,-999.0,-164.0
-9.0,-243.0,-45.0,12.0,37.0,-4.0,-44.0,-998.0,-165.0
-11.0,-247.0,-40.0,10.0,36.0,-4.0,-39.0,-999.0,-163.0
-7.0,-245.0,-43.0,7.0,37.0,-2.0,-41.0,-1000.0,-160.0
-8.0,-248.0,-44.0,4.0,38.0,-2.0,-40.0,-999.0,-163.0
-8.0,-242.0,-46.0,0.0,39.0,-1.0,-44.0,-1002.0,-166.0
-12.0,-242.0,-41.0,-4.0,37.0,1.0,-48.0,-998.0,-166.0
-15.0,-245.0,-45.0,-8.0,35.0,2.0,-54.0,-994.0,-168.0
-11.0,-245.0,-44.0,-11.0,31.0,4.0,-55.0,-995.0,-173.0
-12.0,-243.0,-43.0,-16.0,28.0,4.0,-54.0,-990.0,-172.0
-7.0,-243.0,-43.0,-20.0,27.0,5.0,-45.0,-990.0,-170.0
-13.0,-245.0,-46.0,-23.0,30.0,6.0,-48.0,-985.0,-168.0
-10.0,-244.0,-49.0,-24.0,33.0,7.0,-42.0,-983.0,-176.0
-8.0,-242.0,-48.0,-24.0,39.0,5.0,-45.0,-987.0,-180.0
-7.0,-243.0,-52.0,-23.0,43.0,4.0,-45.0,-982.0,-172.0
-13.0,-244.0,-49.0,-21.0,46.0,3.0,-44.0,-986.0,-175.0
-16.0,-240.0,-48.0,-20.0,47.0,0.0,-41.0,-988.0,-170.0
-9.0,-243.0,-47.0,-21.0,49.0,-1.0,-42.0,-988.0,-167.0
-10.0,-242.0,-44.0,-21.0,49.0,-3.0,-40.0,-995.0,-169.0
-12.0,-245.0,-46.0,-22.0,51.0,-6.0,-40.0,-1001.0,-166.0
-9.0,-245.0,-45.0,-25.0,54.0,-7.0,-40.0,-993.0,-168.0
-10.0,-246.0,-45.0,-26.0,53.0,-9.0,-43.0,-995.0,-163.0
-7.0,-245.0,-43.0,-26.0,52.0,-11.0,-43.0,-996.0,-165.0
-9.0,-247.0,-44.0,-26.0,51.0,-12.0,-43.0,-994.0,-170.0
-12.0,-243.0,-42.0,-26.0,50.0,-12.0,-45.0,-995.0,-168.0
-11.0,-244.0,-45.0,-23.0,52.0,-12.0,-44.0,-996.0,-172.0
-10.0,-245.0,-52.0,-21.0,53.0,-13.0,-37.0,-1003.0,-181.0
-17.0,-241.0,-59.0,-21.0,59.0,-13.0,-36.0,-995.0,-183.0
-9.0,-244.0,-48.0,-18.0,63.0,-13.0,-39.0,-996.0,-185.0
-11.0,-245.0,-53.0,-17.0,68.0,-13.0,-36.0,-993.0,-178.0
-8.0,-247.0,-44.0,-15.0,72.0,-13.0,-35.0,-997.0,-179.0
-5.0,-246.0,-51.0,-16.0,74.0,-14.0,-39.0,-997.0,-176.0
-6.0,-246.0,-44.0,-15.0,75.0,-13.0,-35.0,-1000.0,-170.0
-8.0,-245.0,-45.0,-15.0,78.0,-12.0,-34.0,-1001.0,-165.0
-5.0,-245.0,-42.0,-14.0,81.0,-13.0,-31.0,-999.0,-165.0
-6.0,-245.0,-42.0,-11.0,83.0,-12.0,-34.0,-1008.0,-160.0
-9.0,-247.0,-48.0,-8.0,82.0,-13.0,-30.0,-1004.0,-162.0
-6.0,-249.0,-41.0,-6.0,83.0,-13.0,-34.0,-998.0,-161.0
-7.0,-250.0,-37.0,-5.0,82.0,-13.0,-35.0,-994.0,-161.0
-5.0,-243.0,-42.0,-5.0,81.0,-13.0,-38.0,-999.0,-163.0
-6.0,-245.0,-46.0,-8.0,84.0,-13.0,-39.0,-991.0,-164.0
-10.0,-242.0,-40.0,-11.0,85.0,-10.0,-40.0,-992.0,-167.0
-10.0,-244.0,-49.0,-15.0,89.0,-8.0,-51.0,-983.0,-167.0
-9.0,-245.0,-43.0,-18.0,93.0,-9.0,-49.0,-986.0,-172.0
-6.0,-243.0,-43.0,-20.0,95.0,-8.0,-58.0,-983.0,-168.0
-14.0,-242.0,-45.0,-25.0,95.0,-8.0,-56.0,-984.0,-174.0
-9.0,-243.0,-42.0,-30.0,97.0,-6.0,-47.0,-984.0,-173.0
-13.0,-241.0,-46.0,-36.0,97.0,-9.0,-51.0,-983.0,-175.0
-13.0,-247.0,-49.0,-42.0,100.0,-7.0,-47.0,-990.0,-172.0
-12.0,-240.0,-45.0,-46.0,101.0,-9.0,-46.0,-991.0,-169.0
-9.0,-243.0,-46.0,-48.0,104.0,-11.0,-42.0,-989.0,-164.0
-6.0,-247.0,-45.0,-48.0,104.0,-12.0,-43.0,-994.0,-160.0
-11.0,-243.0,-42.0,-47.0,104.0,-11.0,-47.0,-997.0,-168.0
-11.0,-243.0,-48.0,-47.0,102.0,-11.0,-42.0,-997.0,-163.0
-9.0,-247.0,-45.0,-44.0,99.0,-10.0,-42.0,-995.0,-170.0
-8.0,-245.0,-48.0,-42.0,96.0,-10.0,-45.0,-998.0,-167.0
-11.0,-245.0,-46.0,-39.0,93.0,-10.0,-44.0,-996.0,-171.0
-13.0,-247.0,-49.0,-37.0,89.0,-8.0,-54.0,-998.0,-172.0
-12.0,-246.0,-50.0,-35.0,88.0,-7.0,-53.0,-995.0,-180.0
-12.0,-247.0,-50.0,-35.0,86.0,-7.0,-48.0,-993.0,-180.0
-14.0,-243.0,-50.0,-37.0,86.0,-6.0,-53.0,-991.0,-182.0
-13.0,-243.0,-51.0,-41.0,87.0,-6.0,-57.0,-992.0,-183.0
-13.0,-243.0,-43.0,-45.0,85.0,-8.0,-59.0,-989.0,-175.0
-15.0,-244.0,-46.0,-47.0,83.0,-9.0,-55.0,-994.0,-173.0
-11.0,-245.0,-48.0,-46.0,81.0,-10.0,-60.0,-992.0,-168.0
-15.0,-246.0,-42.0,-43.0,80.0,-11.0,-55.0,-995.0,-167.0
-18.0,-243.0,-46.0,-38.0,78.0,-12.0,-59.0,-995.0,-164.0
-16.0,-243.0,-47.0,-33.0,75.0,-12.0,-59.0,-994.0,-166.0
-16.0,-241.0,-45.0,-29.0,73.0,-12.0,-57.0,-994.0,-158.0
-13.0,-249.0,-41.0,-26.0,70.0,-12.0,-59.0,-997.0,-164.0
-15.0,-246.0,-44.0,-23.0,68.0,-11.0,-56.0,-1002.0,-159.0
-12.0,-247.0,-41.0,-21.0,67.0,-7.0,-54.0,-1001.0,-156.0
-11.0,-247.0,-42.0,-19.0,66.0,-3.0,-55.0,-1006.0,-155.0
-13.0,-247.0,-36.0,-18.0,65.0,0.0,-56.0,-1003.0,-148.0
-10.0,-250.0,-38.0,-13.0,63.0,2.0,-54.0,-1002.0,-149.0
-10.0,-247.0,-41.0,-7.0,63.0,4.0,-46.0,-1001.0,-135.0
-11.0,-247.0,-36.0,0.0,64.0,3.0,-43.0,-1001.0,-139.0
-8.0,-247.0,-39.0,5.0,65.0,6.0,-37.0,-1004.0,-137.0
-10.0,-245.0,-40.0,3.0,68.0,6.0,-43.0,-1001.0,-145.0
-8.0,-245.0,-45.0,1.0,71.0,6.0,-34.0,-996.0,-154.0
-8.0,-241.0,-39.0,-3.0,75.0,7.0,-40.0,-991.0,-152.0
-5.0,-239.0,-37.0,-6.0,78.0,7.0,-40.0,-980.0,-153.0
-8.0,-240.0,-43.0,-9.0,80.0,10.0,-37.0,-982.0,-143.0
-8.0,-238.0,-42.0,-16.0,82.0,11.0,-37.0,-965.0,-155.0
-6.0,-236.0,-44.0,-27.0,84.0,11.0,-41.0,-969.0,-152.0
-10.0,-236.0,-40.0,-41.0,87.0,10.0,-40.0,-969.0,-149.0
-6.0,-237.0,-40.0,-58.0,91.0,11.0,-45.0,-959.0,-158.0
-10.0,-234.0,-42.0,-76.0,93.0,12.0,-46.0,-959.0,-152.0
-13.0,-235.0,-45.0,-92.0,96.0,11.0,-50.0,-966.0,-154.0
-11.0,-234.0,-42.0,-105.0,97.0,9.0,-46.0,-965.0,-151.0
-13.0,-234.0,-41.0,-115.0,97.0,8.0,-41.0,-963.0,-161.0
-12.0,-232.0,-42.0,-125.0,96.0,5.0,-45.0,-964.0,-169.0
-9.0,-235.0,-47.0,-136.0,96.0,2.0,-49.0,-957.0,-181.0
-15.0,-230.0,-47.0,-151.0,98.0,-1.0,-56.0,-955.0,-186.0
-17.0,-234.0,-50.0,-171.0,96.0,-2.0,-62.0,-954.0,-187.0
-18.0,-230.0,-52.0,-196.0,95.0,-5.0,-78.0,-947.0,-189.0
-20.0,-233.0,-54.0,-222.0,92.0,-8.0,-86.0,-950.0,-193.0
-23.0,-232.0,-50.0,-249.0,88.0,-12.0,-95.0,-950.0,-192.0
-23.0,-231.0,-51.0,-271.0,84.0,-14.0,-97.0,-949.0,-187.0
-23.0,-231.0,-53.0,-284.0,77.0,-18.0,-102.0,-945.0,-185.0
-27.0,-234.0,-49.0,-289.0,70.0,-25.0,-109.0,-947.0,-189.0
-30.0,-233.0,-53.0,-285.0,59.0,-30.0,-106.0,-945.0,-185.0
-35.0,-228.0,-47.0,-278.0,45.0,-35.0,-119.0,-942.0,-189.0
-33.0,-234.0,-51.0,-268.0,29.0,-43.0,-120.0,-944.0,-197.0
-28.0,-231.0,-52.0,-262.0,11.0,-51.0,-120.0,-940.0,-200.0
-30.0,-231.0,-57.0,-259.0,-7.0,-60.0,-118.0,-943.0,-201.0
-27.0,-231.0,-54.0,-258.0,-24.0,-71.0,-113.0,-946.0,-201.0
-25.0,-233.0,-53.0,-260.0,-40.0,-82.0,-111.0,-947.0,-197.0
-24.0,-231.0,-53.0,-260.0,-55.0,-93.0,-107.0,-943.0,-192.0
-25.0,-227.0,-51.0,-260.0,-67.0,-107.0,-98.0,-937.0,-194.0
-23.0,-230.0,-51.0,-255.0,-76.0,-125.0,-93.0,-928.0,-188.0
-20.0,-222.0,-52.0,-248.0,-79.0,-142.0,-79.0,-926.0,-184.0
-15.0,-225.0,-47.0,-243.0,-79.0,-162.0,-65.0,-923.0,-184.0
-14.0,-225.0,-48.0,-242.0,-75.0,-186.0,-53.0,-916.0,-180.0
-9.0,-227.0,-44.0,-244.0,-69.0,-210.0,-50.0,-914.0,-168.0
-9.0,-222.0,-43.0,-245.0,-63.0,-233.0,-47.0,-911.0,-152.0
-6.0,-226.0,-41.0,-241.0,-56.0,-255.0,-41.0,-922.0,-149.0
-10.0,-229.0,-37.0,-238.0,-48.0,-276.0,-37.0,-933.0,-154.0
-9.0,-232.0,-42.0,-238.0,-36.0,-298.0,-38.0,-939.0,-159.0
-8.0,-231.0,-43.0,-246.0,-22.0,-313.0,-40.0,-955.0,-163.0
-10.0,-239.0,-48.0,-260.0,-10.0,-328.0,-51.0,-968.0,-170.0
-8.0,-238.0,-42.0,-275.0,2.0,-338.0,-52.0,-975.0,-173.0
-8.0,-242.0,-46.0,-285.0,13.0,-344.0,-54.0,-988.0,-167.0
-15.0,-242.0,-42.0,-287.0,24.0,-349.0,-69.0,-995.0,-165.0
-14.0,-250.0,-53.0,-283.0,33.0,-350.0,-92.0,-1010.0,-167.0
-21.0,-252.0,-41.0,-268.0,41.0,-347.0,-94.0,-1018.0,-166.0
-20.0,-255.0,-46.0,-244.0,49.0,-341.0,-84.0,-1027.0,-169.0
-18.0,-255.0,-49.0,-216.0,59.0,-334.0,-75.0,-1036.0,-185.0
-15.0,-254.0,-51.0,-195.0,72.0,-322.0,-66.0,-1052.0,-192.0
-15.0,-252.0,-54.0,-183.0,84.0,-306.0,-54.0,-1025.0,-198.0
-5.0,-249.0,-57.0,-180.0,92.0,-285.0,-41.0,-1004.0,-205.0
-5.0,-240.0,-58.0,-177.0,96.0,-262.0,-28.0,-974.0,-204.0
-4.0,-229.0,-59.0,-168.0,96.0,-245.0,-16.0,-943.0,-211.0
-2.0,-217.0,-58.0,-152.0,97.0,-225.0,-9.0,-911.0,-213.0
4.0,-214.0,-58.0,-135.0,97.0,-204.0,3.0,-872.0,-214.0
0.0,-200.0,-56.0,-118.0,95.0,-185.0,6.0,-834.0,-210.0
3.0,-194.0,-53.0,-103.0,92.0,-167.0,4.0,-790.0,-200.0
2.0,-190.0,-53.0,-90.0,90.0,-147.0,7.0,-777.0,-187.0
3.0,-185.0,-49.0,-87.0,88.0,-125.0,8.0,-761.0,-181.0
3.0,-183.0,-44.0,-95.0,87.0,-99.0,18.0,-753.0,-169.0
5.0,-183.0,-47.0,-111.0,91.0,-73.0,21.0,-744.0,-169.0
7.0,-180.0,-42.0,-131.0,104.0,-46.0,21.0,-731.0,-167.0
9.0,-178.0,-41.0,-143.0,126.0,-19.0,27.0,-717.0,-158.0
9.0,-175.0,-42.0,-148.0,162.0,12.0,39.0,-711.0,-149.0
13.0,-172.0,-33.0,-140.0,205.0,43.0,36.0,-704.0,-125.0
13.0,-172.0,-24.0,-121.0,253.0,77.0,40.0,-699.0,-97.0
14.0,-171.0,-13.0,-95.0,298.0,110.0,36.0,-694.0,-70.0
10.0,-169.0,-15.0,-62.0,337.0,152.0,29.0,-684.0,-44.0
8.0,-169.0,-11.0,-27.0,373.0,201.0,21.0,-687.0,-32.0
7.0,-170.0,-5.0,5.0,409.0,255.0,11.0,-701.0,-14.0
4.0,-173.0,-1.0,32.0,444.0,307.0,9.0,-721.0,-2.0
3.0,-181.0,0.0,50.0,481.0,358.0,2.0,-742.0,8.0
5.0,-189.0,0.0,61.0,512.0,404.0,8.0,-769.0,1.0
4.0,-194.0,-3.0,68.0,534.0,446.0,14.0,-795.0,-7.0
7.0,-202.0,-14.0,73.0,540.0,483.0,13.0,-827.0,-39.0
6.0,-208.0,-32.0,69.0,530.0,511.0,35.0,-860.0,-98.0
10.0,-218.0,-49.0,52.0,512.0,527.0,42.0,-891.0,-193.0
12.0,-226.0,-77.0,16.0,498.0,527.0,46.0,-917.0,-292.0
14.0,-229.0,-97.0,-35.0,493.0,515.0,47.0,-947.0,-392.0
10.0,-237.0,-119.0,-98.0,494.0,495.0,36.0,-969.0,-474.0
3.0,-239.0,-124.0,-170.0,488.0,467.0,25.0,-982.0,-499.0
-2.0,-248.0,-117.0,-231.0,465.0,433.0,8.0,-1008.0,-470.0
-6.0,-255.0,-105.0,-258.0,427.0,394.0,-8.0,-1048.0,-415.0
-5.0,-267.0,-91.0,-246.0,380.0,350.0,-19.0,-1088.0,-348.0
-12.0,-280.0,-76.0,-208.0,324.0,304.0,-39.0,-1147.0,-297.0
-18.0,-296.0,-61.0,-167.0,258.0,256.0,-64.0,-1199.0,-247.0
-29.0,-309.0,-61.0,-143.0,182.0,213.0,-110.0,-1249.0,-240.0
-38.0,-319.0,-70.0,-147.0,102.0,178.0,-136.0,-1289.0,-241.0
-49.0,-315.0,-69.0,-176.0,22.0,145.0,-173.0,-1313.0,-263.0
-55.0,-327.0,-73.0,-224.0,-56.0,114.0,-205.0,-1340.0,-287.0
-64.0,-330.0,-74.0,-277.0,-139.0,87.0,-241.0,-1359.0,-286.0
-66.0,-339.0,-73.0,-316.0,-222.0,56.0,-257.0,-1385.0,-284.0
-69.0,-346.0,-72.0,-336.0,-299.0,16.0,-261.0,-1401.0,-281.0
-67.0,-355.0,-69.0,-333.0,-370.0,-35.0,-265.0,-1432.0,-274.0
-66.0,-361.0,-70.0,-316.0,-430.0,-93.0,-251.0,-1454.0,-272.0
-57.0,-361.0,-72.0,-292.0,-482.0,-154.0,-225.0,-1469.0,-279.0
-49.0,-365.0,-83.0,-276.0,-521.0,-225.0,-191.0,-1464.0,-320.0
-39.0,-358.0,-90.0,-273.0,-539.0,-297.0,-152.0,-1463.0,-373.0
-17.0,-354.0,-87.0,-288.0,-540.0,-369.0,-102.0,-1448.0,-412.0
-6.0,-354.0,-108.0,-327.0,-531.0,-440.0,-23.0,-1442.0,-416.0
14.0,-359.0,-103.0,-374.0,-518.0,-502.0,49.0,-1450.0,-397.0
40.0,-366.0,-83.0,-410.0,-507.0,-558.0,136.0,-1481.0,-340.0
55.0,-376.0,-76.0,-426.0,-502.0,-613.0,219.0,-1529.0,-280.0
68.0,-389.0,-64.0,-423.0,-492.0,-671.0,277.0,-1591.0,-241.0
87.0,-404.0,-61.0,-419.0,-476.0,-720.0,332.0,-1656.0,-217.0
99.0,-423.0,-63.0,-425.0,-456.0,-772.0,368.0,-1727.0,-232.0
102.0,-447.0,-74.0,-446.0,-426.0,-836.0,382.0,-1806.0,-263.0
98.0,-464.0,-80.0,-481.0,-387.0,-911.0,372.0,-1901.0,-300.0
88.0,-488.0,-88.0,-514.0,-344.0,-988.0,346.0,-1988.0,-315.0
81.0,-516.0,-78.0,-527.0,-292.0,-1064.0,309.0,-2074.0,-303.0
75.0,-538.0,-77.0,-511.0,-230.0,-1130.0,276.0,-2163.0,-296.0
64.0,-548.0,-72.0,-464.0,-154.0,-1181.0,246.0,-2213.0,-274.0
61.0,-554.0,-73.0,-392.0,-57.0,-1209.0,230.0,-2244.0,-267.0
54.0,-561.0,-73.0,-306.0,51.0,-1217.0,194.0,-2260.0,-273.0
45.0,-558.0,-73.0,-222.0,153.0,-1211.0,162.0,-2254.0,-267.0
39.0,-548.0,-69.0,-141.0,233.0,-1202.0,147.0,-2236.0,-254.0
39.0,-542.0,-52.0,-59.0,276.0,-1189.0,140.0,-2198.0,-200.0
36.0,-532.0,-46.0,19.0,280.0,-1179.0,135.0,-2158.0,-155.0
41.0,-515.0,-32.0,81.0,266.0,-1174.0,148.0,-2112.0,-103.0
48.0,-501.0,-25.0,123.0,251.0,-1173.0,180.0,-2025.0,-96.0
59.0,-476.0,-36.0,130.0,245.0,-1165.0,215.0,-1926.0,-110.0
69.0,-447.0,-43.0,121.0,255.0,-1155.0,254.0,-1824.0,-141.0
75.0,-422.0,-50.0,105.0,287.0,-1159.0,286.0,-1698.0,-182.0
88.0,-393.0,-60.0,95.0,343.0,-1193.0,336.0,-1592.0,-215.0
97.0,-363.0,-63.0,87.0,405.0,-1239.0,384.0,-1488.0,-235.0
107.0,-345.0,-62.0,80.0,460.0,-1277.0,414.0,-1408.0,-228.0
115.0,-329.0,-58.0,77.0,498.0,-1292.0,451.0,-1354.0,-213.0
119.0,-320.0,-54.0,73.0,501.0,-1288.0,483.0,-1284.0,-198.0
122.0,-305.0,-53.0,77.0,469.0,-1275.0,482.0,-1227.0,-184.0
123.0,-280.0,-49.0,76.0,427.0,-1225.0,473.0,-1161.0,-193.0
118.0,-255.0,-65.0,46.0,398.0,-1134.0,463.0,-1064.0,-231.0
105.0,-224.0,-76.0,-17.0,379.0,-998.0,411.0,-931.0,-308.0
89.0,-190.0,-98.0,-109.0,386.0,-838.0,337.0,-786.0,-385.0
62.0,-156.0,-113.0,-213.0,423.0,-653.0,249.0,-664.0,-444.0
48.0,-127.0,-118.0,-314.0,486.0,-448.0,182.0,-553.0,-487.0
24.0,-106.0,-110.0,-401.0,556.0,-236.0,98.0,-457.0,-458.0
3.0,-91.0,-98.0,-464.0,622.0,-37.0,13.0,-383.0,-393.0
-32.0,-81.0,-72.0,-489.0,649.0,147.0,-117.0,-323.0,-291.0
-71.0,-73.0,-52.0,-481.0,604.0,336.0,-243.0,-291.0,-215.0
-93.0,-62.0,-29.0,-450.0,485.0,514.0,-350.0,-255.0,-118.0
-116.0,-55.0,-4.0,-382.0,327.0,678.0,-453.0,-211.0,-67.0
-132.0,-55.0,-6.0,-268.0,170.0,825.0,-499.0,-203.0,-10.0
-131.0,-51.0,12.0,-119.0,32.0,942.0,-511.0,-197.0,40.0
-125.0,-49.0,19.0,50.0,-87.0,1011.0,-495.0,-186.0,86.0
-115.0,-39.0,29.0,202.0,-187.0,1038.0,-452.0,-157.0,123.0
-89.0,-24.0,50.0,324.0,-263.0,1031.0,-368.0,-100.0,177.0
-69.0,-10.0,63.0,409.0,-317.0,986.0,-275.0,-45.0,268.0
-36.0,3.0,92.0,461.0,-349.0,899.0,-155.0,21.0,360.0
-4.0,19.0,115.0,494.0,-363.0,768.0,-31.0,85.0,463.0
24.0,33.0,126.0,531.0,-354.0,597.0,56.0,119.0,514.0
26.0,38.0,131.0,568.0,-311.0,408.0,85.0,132.0,533.0
38.0,29.0,102.0,609.0,-222.0,224.0,107.0,126.0,426.0
54.0,39.0,42.0,650.0,-85.0,72.0,171.0,148.0,197.0
92.0,53.0,-58.0,682.0,114.0,-42.0,303.0,193.0,-160.0
133.0,69.0,-176.0,703.0,388.0,-137.0,470.0,247.0,-621.0
155.0,84.0,-277.0,684.0,711.0,-213.0,597.0,302.0,-1058.0
151.0,98.0,-326.0,599.0,966.0,-278.0,625.0,363.0,-1349.0
132.0,106.0,-356.0,444.0,1023.0,-325.0,584.0,391.0,-1472.0
122.0,100.0,-355.0,233.0,854.0,-351.0,547.0,364.0,-1480.0
123.0,66.0,-331.0,-1.0,592.0,-364.0,526.0,280.0,-1402.0
127.0,15.0,-279.0,-210.0,429.0,-358.0,507.0,109.0,-1159.0
140.0,-52.0,-215.0,-353.0,450.0,-353.0,555.0,-254.0,-830.0
155.0,-167.0,-115.0,-386.0,592.0,-376.0,585.0,-687.0,-431.0
139.0,-293.0,-9.0,-280.0,774.0,-453.0,546.0,-1159.0,-39.0
97.0,-408.0,61.0,-46.0,932.0,-568.0,359.0,-1600.0,261.0
47.0,-481.0,73.0,265.0,1063.0,-673.0,101.0,-1967.0,317.0
-15.0,-555.0,27.0,564.0,1215.0,-735.0,-138.0,-2241.0,108.0
-91.0,-582.0,-71.0,773.0,1414.0,-738.0,-403.0,-2366.0,-251.0
-173.0,-561.0,-168.0,850.0,1616.0,-658.0,-671.0,-2312.0,-653.0
-242.0,-493.0,-243.0,781.0,1710.0,-465.0,-927.0,-2047.0,-954.0
-273.0,-422.0,-266.0,613.0,1616.0,-122.0,-1035.0,-1719.0,-1100.0
-249.0,-344.0,-255.0,420.0,1344.0,322.0,-910.0,-1426.0,-1029.0
-169.0,-297.0,-200.0,290.0,962.0,723.0,-638.0,-1213.0,-839.0
-85.0,-273.0,-152.0,248.0,542.0,993.0,-343.0,-1103.0,-632.0
-19.0,-261.0,-103.0,253.0,168.0,1191.0,-97.0,-1069.0,-450.0
33.0,-272.0,-82.0,253.0,-83.0,1367.0,125.0,-1125.0,-321.0
76.0,-300.0,-73.0,187.0,-200.0,1492.0,284.0,-1231.0,-270.0
110.0,-335.0,-76.0,12.0,-216.0,1532.0,415.0,-1404.0,-303.0
138.0,-387.0,-97.0,-282.0,-188.0,1494.0,529.0,-1601.0,-354.0
171.0,-448.0,-103.0,-656.0,-154.0,1406.0,657.0,-1804.0,-401.0
178.0,-498.0,-106.0,-1039.0,-140.0,1264.0,697.0,-2031.0,-417.0
150.0,-558.0,-103.0,-1359.0,-149.0,1090.0,617.0,-2316.0,-377.0
93.0,-625.0,-89.0,-1571.0,-164.0,919.0,353.0,-2560.0,-329.0
25.0,-699.0,-74.0,-1652.0,-151.0,803.0,81.0,-2806.0,-275.0
-58.0,-764.0,-67.0,-1581.0,-108.0,801.0,-194.0,-3036.0,-225.0
-104.0,-790.0,-72.0,-1346.0,-58.0,899.0,-432.0,-3178.0,-268.0
-155.0,-803.0,-98.0,-990.0,-73.0,1070.0,-611.0,-3212.0,-377.0
-193.0,-773.0,-126.0,-576.0,-192.0,1240.0,-741.0,-3078.0,-490.0
-215.0,-704.0,-137.0,-159.0,-414.0,1383.0,-823.0,-2827.0,-533.0
-224.0,-617.0,-138.0,230.0,-707.0,1507.0,-848.0,-2516.0,-556.0
-224.0,-544.0,-147.0,538.0,-1041.0,1620.0,-842.0,-2180.0,-587.0
-213.0,-457.0,-145.0,709.0,-1380.0,1728.0,-820.0,-1863.0,-606.0
-187.0,-374.0,-156.0,717.0,-1674.0,1823.0,-726.0,-1565.0,-625.0
-149.0,-301.0,-154.0,577.0,-1892.0,1887.0,-602.0,-1297.0,-633.0
-124.0,-241.0,-142.0,334.0,-2030.0,1906.0,-480.0,-1063.0,-595.0
-99.0,-204.0,-144.0,38.0,-2120.0,1887.0,-387.0,-901.0,-581.0
-74.0,-179.0,-149.0,-299.0,-2177.0,1833.0,-302.0,-780.0,-603.0
-65.0,-151.0,-164.0,-661.0,-2224.0,1744.0,-238.0,-675.0,-665.0
-45.0,-128.0,-190.0,-1026.0,-2267.0,1622.0,-171.0,-589.0,-746.0
-25.0,-122.0,-213.0,-1374.0,-2266.0,1462.0,-86.0,-520.0,-856.0
20.0,-110.0,-230.0,-1688.0,-2159.0,1265.0,52.0,-469.0,-934.0
66.0,-106.0,-208.0,-1920.0,-1940.0,1038.0,215.0,-443.0,-892.0
126.0,-100.0,-171.0,-2051.0,-1695.0,778.0,444.0,-404.0,-679.0
188.0,-108.0,-129.0,-2053.0,-1471.0,485.0,723.0,-400.0,-508.0
224.0,-104.0,-96.0,-1930.0,-1244.0,168.0,903.0,-382.0,-338.0
267.0,-111.0,-54.0,-1704.0,-1003.0,-149.0,1033.0,-371.0,-213.0
284.0,-95.0,-26.0,-1419.0,-737.0,-449.0,1104.0,-338.0,-88.0
284.0,-82.0,1.0,-1110.0,-429.0,-708.0,1093.0,-304.0,10.0
269.0,-62.0,31.0,-796.0,-74.0,-908.0,1030.0,-226.0,112.0
249.0,-46.0,41.0,-476.0,297.0,-1046.0,914.0,-140.0,183.0
211.0,-26.0,58.0,-143.0,663.0,-1113.0,783.0,-76.0,247.0
167.0,-18.0,73.0,230.0,990.0,-1111.0,625.0,-32.0,316.0
109.0,-7.0,66.0,631.0,1214.0,-1062.0,438.0,2.0,286.0
47.0,13.0,37.0,994.0,1280.0,-980.0,223.0,59.0,163.0
-2.0,43.0,-5.0,1244.0,1168.0,-885.0,2.0,168.0,-27.0
-80.0,81.0,-77.0,1350.0,908.0,-787.0,-257.0,311.0,-307.0
-135.0,128.0,-157.0,1303.0,583.0,-700.0,-491.0,453.0,-622.0
-186.0,161.0,-215.0,1103.0,303.0,-616.0,-697.0,580.0,-870.0
-215.0,164.0,-249.0,796.0,158.0,-508.0,-842.0,617.0,-1004.0
-215.0,132.0,-244.0,459.0,166.0,-392.0,-870.0,494.0,-1012.0
-193.0,56.0,-198.0,166.0,244.0,-327.0,-769.0,224.0,-853.0
-166.0,-34.0,-116.0,-11.0,263.0,-353.0,-654.0,-94.0,-543.0
-141.0,-134.0,-25.0,-10.0,157.0,-438.0,-565.0,-447.0,-192.0
-110.0,-234.0,51.0,179.0,-56.0,-523.0,-457.0,-891.0,196.0
-85.0,-297.0,85.0,498.0,-320.0,-519.0,-315.0,-1219.0,365.0
-59.0,-368.0,84.0,835.0,-541.0,-463.0,-231.0,-1502.0,324.0
-57.0,-415.0,12.0,1051.0,-649.0,-383.0,-231.0,-1720.0,39.0
-80.0,-445.0,-92.0,1020.0,-653.0,-267.0,-330.0,-1862.0,-336.0
-101.0,-469.0,-172.0,715.0,-641.0,-107.0,-387.0,-1959.0,-656.0
-57.0,-504.0,-202.0,253.0,-698.0,56.0,-168.0,-2110.0,-834.0
58.0,-546.0,-212.0,-181.0,-826.0,95.0,256.0,-2233.0,-841.0
190.0,-559.0,-182.0,-426.0,-915.0,-60.0,747.0,-2247.0,-738.0
218.0,-522.0,-139.0,-406.0,-878.0,-342.0,871.0,-2097.0,-556.0
201.0,-485.0,-122.0,-144.0,-745.0,-615.0,781.0,-1886.0,-459.0
185.0,-430.0,-129.0,220.0,-593.0,-831.0,720.0,-1700.0,-505.0
179.0,-386.0,-159.0,532.0,-415.0,-1011.0,692.0,-1571.0,-610.0
178.0,-368.0,-188.0,704.0,-184.0,-1171.0,681.0,-1506.0,-729.0
145.0,-355.0,-209.0,692.0,96.0,-1311.0,603.0,-1485.0,-818.0
109.0,-358.0,-205.0,507.0,387.0,-1420.0,417.0,-1506.0,-823.0
40.0,-379.0,-191.0,221.0,636.0,-1480.0,160.0,-1582.0,-759.0
-11.0,-415.0,-158.0,-82.0,799.0,-1473.0,-12.0,-1706.0,-643.0
-34.0,-475.0,-125.0,-322.0,859.0,-1399.0,-114.0,-1899.0,-519.0
-31.0,-541.0,-111.0,-462.0,845.0,-1301.0,-118.0,-2139.0,-446.0
-29.0,-583.0,-110.0,-490.0,770.0,-1217.0,-94.0,-2336.0,-440.0
-5.0,-611.0,-128.0,-407.0,696.0,-1163.0,-27.0,-2471.0,-500.0
31.0,-603.0,-147.0,-221.0,642.0,-1137.0,142.0,-2420.0,-566.0
60.0,-561.0,-156.0,41.0,647.0,-1101.0,216.0,-2242.0,-618.0
54.0,-490.0,-167.0,326.0,696.0,-1029.0,226.0,-1988.0,-638.0
62.0,-428.0,-163.0,530.0,731.0,-955.0,247.0,-1687.0,-662.0
56.0,-331.0,-156.0,590.0,722.0,-915.0,214.0,-1337.0,-616.0
53.0,-246.0,-135.0,547.0,695.0,-876.0,202.0,-1012.0,-534.0
37.0,-167.0,-109.0,454.0,687.0,-831.0,153.0,-715.0,-445.0
12.0,-94.0,-86.0,345.0,690.0,-777.0,54.0,-430.0,-366.0
-16.0,-45.0,-73.0,239.0,669.0,-694.0,-73.0,-175.0,-290.0
-63.0,20.0,-59.0,121.0,603.0,-580.0,-221.0,48.0,-243.0
-99.0,67.0,-59.0,-27.0,465.0,-428.0,-367.0,225.0,-228.0
-125.0,104.0,-55.0,-220.0,242.0,-263.0,-465.0,363.0,-237.0
-140.0,125.0,-53.0,-445.0,-21.0,-75.0,-529.0,466.0,-230.0
-149.0,127.0,-40.0,-648.0,-269.0,133.0,-570.0,491.0,-182.0
-148.0,113.0,-25.0,-781.0,-464.0,342.0,-601.0,438.0,-123.0
-143.0,76.0,3.0,-823.0,-593.0,534.0,-586.0,327.0,-40.0
-134.0,33.0,30.0,-736.0,-666.0,675.0,-538.0,170.0,75.0
-111.0,-12.0,57.0,-566.0,-713.0,765.0,-482.0,19.0,200.0
-94.0,-34.0,82.0,-330.0,-743.0,819.0,-391.0,-110.0,323.0
-52.0,-64.0,111.0,-43.0,-762.0,829.0,-245.0,-208.0,455.0
-13.0,-70.0,126.0,279.0,-782.0,779.0,-94.0,-257.0,517.0
24.0,-66.0,126.0,615.0,-822.0,682.0,79.0,-247.0,536.0
58.0,-53.0,119.0,922.0,-880.0,561.0,195.0,-201.0,495.0
79.0,-40.0,101.0,1165.0,-927.0,437.0,293.0,-141.0,415.0
93.0,-12.0,75.0,1311.0,-924.0,319.0,341.0,-54.0,330.0
107.0,15.0,40.0,1362.0,-850.0,210.0,388.0,37.0,176.0
132.0,44.0,-27.0,1325.0,-695.0,126.0,484.0,141.0,-90.0
165.0,64.0,-100.0,1225.0,-440.0,78.0,627.0,246.0,-435.0
194.0,93.0,-194.0,1072.0,-71.0,43.0,739.0,341.0,-789.0
197.0,120.0,-256.0,860.0,337.0,2.0,772.0,430.0,-1044.0
186.0,132.0,-281.0,587.0,642.0,-42.0,763.0,482.0,-1162.0
173.0,120.0,-282.0,297.0,740.0,-65.0,738.0,450.0,-1192.0
163.0,86.0,-277.0,47.0,651.0,-53.0,680.0,310.0,-1138.0
156.0,25.0,-244.0,-96.0,505.0,-43.0,646.0,102.0,-1000.0
170.0,-62.0,-195.0,-113.0,435.0,-48.0,675.0,-214.0,-818.0
191.0,-170.0,-150.0,-21.0,505.0,-119.0,742.0,-613.0,-611.0
202.0,-288.0,-88.0,130.0,694.0,-296.0,781.0,-1059.0,-395.0
179.0,-365.0,-47.0,283.0,927.0,-532.0,680.0,-1472.0,-175.0
102.0,-451.0,-13.0,380.0,1129.0,-716.0,409.0,-1824.0,-46.0
5.0,-513.0,-27.0,356.0,1262.0,-794.0,66.0,-2090.0,-67.0
-94.0,-552.0,-73.0,173.0,1331.0,-762.0,-311.0,-2248.0,-280.0
-167.0,-571.0,-133.0,-136.0,1352.0,-629.0,-592.0,-2363.0,-510.0
-216.0,-579.0,-173.0,-477.0,1299.0,-415.0,-898.0,-2381.0,-735.0
-289.0,-573.0,-231.0,-716.0,1161.0,-117.0,-1132.0,-2329.0,-936.0
-320.0,-560.0,-265.0,-741.0,960.0,270.0,-1227.0,-2239.0,-1078.0
-296.0,-526.0,-277.0,-531.0,688.0,689.0,-1125.0,-2096.0,-1136.0
-221.0,-494.0,-267.0,-166.0,333.0,1019.0,-847.0,-1951.0,-1098.0
-162.0,-463.0,-244.0,212.0,-53.0,1212.0,-584.0,-1835.0,-989.0
-99.0,-428.0,-214.0,461.0,-379.0,1349.0,-354.0,-1743.0,-880.0
-38.0,-404.0,-194.0,489.0,-608.0,1496.0,-130.0,-1678.0,-773.0
7.0,-396.0,-173.0,285.0,-753.0,1630.0,44.0,-1675.0,-697.0
38.0,-420.0,-160.0,-88.0,-853.0,1715.0,147.0,-1747.0,-658.0
46.0,-446.0,-150.0,-535.0,-922.0,1730.0,167.0,-1854.0,-620.0
43.0,-480.0,-141.0,-936.0,-948.0,1663.0,161.0,-1968.0,-572.0
35.0,-525.0,-138.0,-1171.0,-931.0,1572.0,130.0,-2110.0,-542.0
21.0,-549.0,-142.0,-1187.0,-875.0,1463.0,85.0,-2184.0,-561.0
14.0,-563.0,-164.0,-1018.0,-806.0,1352.0,52.0,-2235.0,-628.0
-5.0,-561.0,-170.0,-745.0,-754.0,1253.0,-10.0,-2234.0,-668.0
-28.0,-545.0,-171.0,-447.0,-733.0,1194.0,-88.0,-2198.0,-670.0
-38.0,-517.0,-162.0,-191.0,-772.0,1156.0,-134.0,-2110.0,-657.0
-56.0,-471.0,-166.0,-42.0,-875.0,1105.0,-177.0,-1962.0,-660.0
-66.0,-437.0,-159.0,-8.0,-1003.0,1055.0,-236.0,-1781.0,-653.0
-71.0,-372.0,-155.0,-59.0,-1131.0,1029.0,-261.0,-1505.0,-626.0
-65.0,-311.0,-152.0,-168.0,-1243.0,1037.0,-249.0,-1249.0,-609.0
-52.0,-241.0,-144.0,-319.0,-1323.0,1051.0,-198.0,-999.0,-602.0
-22.0,-173.0,-149.0,-500.0,-1344.0,1044.0,-99.0,-750.0,-594.0
7.0,-136.0,-137.0,-674.0,-1290.0,986.0,35.0,-533.0,-544.0
47.0,-89.0,-107.0,-822.0,-1207.0,877.0,168.0,-362.0,-416.0
78.0,-56.0,-70.0,-941.0,-1145.0,713.0,295.0,-223.0,-282.0
109.0,-31.0,-47.0,-1036.0,-1092.0,507.0,400.0,-130.0,-185.0
125.0,-11.0,-27.0,-1094.0,-991.0,276.0,460.0,-57.0,-114.0
129.0,2.0,-24.0,-1095.0,-819.0,34.0,491.0,22.0,-93.0
132.0,21.0,-11.0,-1034.0,-605.0,-191.0,502.0,116.0,-52.0
134.0,47.0,0.0,-895.0,-384.0,-378.0,504.0,187.0,2.0
126.0,65.0,21.0,-697.0,-164.0,-522.0,462.0,261.0,72.0
121.0,72.0,48.0,-465.0,65.0,-608.0,434.0,298.0,172.0
113.0,69.0,74.0,-232.0,321.0,-646.0,393.0,292.0,299.0
94.0,64.0,104.0,-32.0,584.0,-642.0,337.0,251.0,429.0
71.0,41.0,130.0,140.0,807.0,-595.0,253.0,173.0,531.0
31.0,19.0,146.0,303.0,951.0,-523.0,132.0,103.0,601.0
-11.0,2.0,140.0,489.0,995.0,-444.0,-2.0,46.0,601.0
-47.0,2.0,106.0,702.0,906.0,-393.0,-160.0,14.0,443.0
-79.0,8.0,20.0,885.0,671.0,-382.0,-260.0,30.0,26.0
-99.0,35.0,-89.0,983.0,344.0,-403.0,-358.0,132.0,-369.0
-121.0,63.0,-194.0,968.0,58.0,-429.0,-471.0,219.0,-777.0
-132.0,76.0,-276.0,820.0,-66.0,-454.0,-522.0,254.0,-1119.0
-131.0,62.0,-311.0,527.0,-2.0,-504.0,-526.0,170.0,-1300.0
-119.0,6.0,-300.0,151.0,147.0,-611.0,-446.0,-26.0,-1214.0
-83.0,-77.0,-214.0,-168.0,249.0,-773.0,-303.0,-325.0,-894.0
-57.0,-174.0,-112.0,-329.0,229.0,-920.0,-206.0,-673.0,-490.0
-35.0,-276.0,-18.0,-302.0,104.0,-1004.0,-122.0,-1050.0,-120.0
-30.0,-356.0,17.0,-131.0,-109.0,-986.0,-92.0,-1445.0,75.0
-35.0,-447.0,12.0,69.0,-315.0,-861.0,-143.0,-1807.0,63.0
-63.0,-514.0,-34.0,186.0,-422.0,-637.0,-254.0,-2081.0,-107.0
-86.0,-552.0,-98.0,167.0,-419.0,-330.0,-339.0,-2262.0,-332.0
-68.0,-578.0,-127.0,31.0,-388.0,9.0,-247.0,-2379.0,-512.0
3.0,-608.0,-160.0,-141.0,-431.0,264.0,25.0,-2483.0,-618.0
90.0,-627.0,-170.0,-251.0,-538.0,339.0,355.0,-2529.0,-678.0
141.0,-615.0,-182.0,-224.0,-613.0,227.0,569.0,-2476.0,-694.0
132.0,-558.0,-187.0,-36.0,-601.0,17.0,554.0,-2281.0,-715.0
125.0,-509.0,-192.0,264.0,-501.0,-197.0,482.0,-2015.0,-756.0
124.0,-448.0,-214.0,572.0,-335.0,-379.0,462.0,-1802.0,-859.0
123.0,-401.0,-239.0,782.0,-105.0,-552.0,478.0,-1656.0,-946.0
120.0,-375.0,-241.0,828.0,153.0,-739.0,472.0,-1557.0,-964.0
103.0,-358.0,-229.0,712.0,400.0,-938.0,398.0,-1481.0,-919.0
81.0,-355.0,-213.0,477.0,600.0,-1135.0,296.0,-1465.0,-840.0
50.0,-359.0,-188.0,199.0,728.0,-1309.0,173.0,-1499.0,-749.0
24.0,-383.0,-161.0,-58.0,768.0,-1415.0,104.0,-1592.0,-656.0
29.0,-433.0,-147.0,-250.0,740.0,-1450.0,126.0,-1749.0,-591.0
40.0,-469.0,-147.0,-357.0,701.0,-1451.0,136.0,-1906.0,-575.0
45.0,-502.0,-156.0,-380.0,708.0,-1427.0,189.0,-2045.0,-635.0
63.0,-517.0,-179.0,-354.0,761.0,-1403.0,243.0,-2092.0,-696.0
72.0,-503.0,-189.0,-304.0,836.0,-1352.0,281.0,-2028.0,-750.0
72.0,-462.0,-181.0,-239.0,937.0,-1254.0,274.0,-1893.0,-733.0
65.0,-405.0,-170.0,-172.0,1048.0,-1141.0,264.0,-1685.0,-682.0
58.0,-351.0,-166.0,-139.0,1110.0,-1031.0,230.0,-1419.0,-656.0
39.0,-282.0,-153.0,-152.0,1093.0,-908.0,166.0,-1149.0,-619.0
15.0,-213.0,-135.0,-190.0,1002.0,-771.0,81.0,-915.0,-556.0
-15.0,-153.0,-113.0,-244.0,862.0,-621.0,-15.0,-671.0,-485.0
-49.0,-84.0,-91.0,-298.0,696.0,-472.0,-127.0,-430.0,-394.0
-67.0,-41.0,-69.0,-333.0,528.0,-314.0,-240.0,-169.0,-308.0
-88.0,22.0,-53.0,-337.0,381.0,-133.0,-328.0,58.0,-224.0
-113.0,73.0,-36.0,-322.0,241.0,77.0,-415.0,256.0,-161.0
-131.0,115.0,-20.0,-311.0,100.0,282.0,-497.0,414.0,-113.0
-146.0,138.0,-8.0,-308.0,-54.0,470.0,-568.0,527.0,-53.0
-153.0,139.0,5.0,-310.0,-218.0,651.0,-615.0,536.0,19.0
-151.0,119.0,32.0,-319.0,-381.0,831.0,-599.0,445.0,120.0
-142.0,77.0,65.0,-318.0,-529.0,980.0,-571.0,303.0,275.0
-126.0,37.0,110.0,-265.0,-661.0,1075.0,-502.0,164.0,439.0
-104.0,3.0,141.0,-118.0,-776.0,1114.0,-403.0,25.0,581.0
-67.0,-36.0,155.0,119.0,-880.0,1094.0,-271.0,-128.0,654.0
-16.0,-63.0,170.0,417.0,-953.0,1020.0,-94.0,-209.0,695.0
26.0,-64.0,163.0,755.0,-971.0,895.0,68.0,-231.0,664.0
67.0,-56.0,123.0,1064.0,-921.0,752.0,211.0,-205.0,539.0
100.0,-33.0,70.0,1293.0,-785.0,622.0,359.0,-122.0,270.0
155.0,1.0,-31.0,1413.0,-551.0,514.0,562.0,4.0,-104.0
202.0,44.0,-145.0,1413.0,-213.0,407.0,756.0,136.0,-553.0
233.0,91.0,-253.0,1267.0,188.0,280.0,888.0,302.0,-972.0
239.0,127.0,-307.0,965.0,543.0,164.0,959.0,421.0,-1236.0
232.0,136.0,-325.0,534.0,741.0,82.0,962.0,472.0,-1337.0
218.0,124.0,-314.0,55.0,717.0,56.0,937.0,432.0,-1307.0
205.0,70.0,-271.0,-369.0,539.0,93.0,866.0,273.0,-1171.0
208.0,-17.0,-219.0,-623.0,383.0,161.0,832.0,-9.0,-935.0
243.0,-140.0,-142.0,-645.0,377.0,180.0,921.0,-412.0,-641.0
262.0,-242.0,-88.0,-432.0,553.0,102.0,994.0,-908.0,-370.0
244.0,-374.0,-26.0,-68.0,858.0,-107.0,940.0,-1411.0,-64.0
160.0,-474.0,2.0,316.0,1189.0,-378.0,559.0,-1922.0,31.0
8.0,-536.0,-22.0,575.0,1459.0,-603.0,13.0,-2189.0,-51.0
-143.0,-564.0,-100.0,585.0,1617.0,-707.0,-551.0,-2319.0,-342.0
-222.0,-571.0,-172.0,356.0,1655.0,-672.0,-914.0,-2364.0,-713.0
-285.0,-570.0,-242.0,25.0,1575.0,-519.0,-1121.0,-2337.0,-985.0
-343.0,-550.0,-269.0,-268.0,1377.0,-274.0,-1333.0,-2247.0,-1111.0
-367.0,-523.0,-271.0,-427.0,1067.0,60.0,-1416.0,-2117.0,-1103.0
-304.0,-492.0,-242.0,-391.0,680.0,415.0,-1213.0,-1949.0,-1016.0
-243.0,-458.0,-230.0,-142.0,277.0,670.0,-909.0,-1802.0,-939.0
-166.0,-426.0,-228.0,240.0,-75.0,824.0,-625.0,-1692.0,-923.0
-93.0,-401.0,-232.0,578.0,-350.0,941.0,-352.0,-1621.0,-942.0
-27.0,-377.0,-230.0,741.0,-563.0,1046.0,-104.0,-1541.0,-935.0
21.0,-350.0,-219.0,680.0,-728.0,1129.0,85.0,-1481.0,-912.0
42.0,-339.0,-212.0,430.0,-848.0,1165.0,181.0,-1436.0,-854.0
52.0,-335.0,-198.0,59.0,-928.0,1175.0,209.0,-1414.0,-786.0
39.0,-341.0,-175.0,-340.0,-970.0,1174.0,164.0,-1420.0,-730.0
21.0,-363.0,-169.0,-679.0,-982.0,1159.0,85.0,-1475.0,-677.0
-12.0,-387.0,-161.0,-906.0,-973.0,1134.0,-3.0,-1548.0,-655.0
-29.0,-409.0,-160.0,-995.0,-953.0,1118.0,-103.0,-1641.0,-633.0
-54.0,-435.0,-151.0,-948.0,-943.0,1097.0,-198.0,-1739.0,-620.0
-75.0,-455.0,-155.0,-797.0,-969.0,1083.0,-274.0,-1821.0,-608.0
-90.0,-470.0,-148.0,-612.0,-1041.0,1097.0,-342.0,-1879.0,-592.0
-88.0,-471.0,-137.0,-437.0,-1151.0,1145.0,-315.0,-1878.0,-562.0
-70.0,-447.0,-138.0,-278.0,-1291.0,1179.0,-246.0,-1787.0,-552.0
-54.0,-410.0,-146.0,-150.0,-1451.0,1165.0,-190.0,-1644.0,-583.0
-37.0,-359.0,-150.0,-73.0,-1585.0,1129.0,-131.0,-1453.0,-614.0
-20.0,-304.0,-151.0,-52.0,-1656.0,1092.0,-76.0,-1251.0,-602.0
-1.0,-257.0,-137.0,-67.0,-1658.0,1051.0,5.0,-1035.0,-547.0
25.0,-209.0,-126.0,-93.0,-1608.0,999.0,95.0,-840.0,-486.0
55.0,-167.0,-108.0,-124.0,-1524.0,910.0,200.0,-681.0,-443.0
84.0,-132.0,-92.0,-162.0,-1414.0,785.0,297.0,-551.0,-367.0
109.0,-109.0,-70.0,-203.0,-1274.0,626.0,390.0,-461.0,-280.0
118.0,-88.0,-51.0,-239.0,-1111.0,430.0,451.0,-361.0,-185.0
128.0,-71.0,-27.0,-253.0,-927.0,215.0,481.0,-295.0,-102.0
131.0,-55.0,-7.0,-237.0,-719.0,3.0,489.0,-217.0,-35.0
129.0,-32.0,3.0,-188.0,-502.0,-191.0,490.0,-142.0,6.0
126.0,-8.0,10.0,-109.0,-300.0,-358.0,476.0,-42.0,27.0
120.0,9.0,12.0,-17.0,-123.0,-491.0,446.0,46.0,72.0
105.0,31.0,28.0,84.0,31.0,-574.0,408.0,127.0,123.0
103.0,46.0,55.0,192.0,176.0,-621.0,379.0,180.0,207.0
90.0,56.0,85.0,312.0,327.0,-632.0,332.0,219.0,316.0
80.0,52.0,108.0,441.0,500.0,-605.0,280.0,207.0,445.0
68.0,50.0,124.0,562.0,690.0,-561.0,208.0,190.0,533.0
49.0,48.0,123.0,655.0,880.0,-515.0,144.0,174.0,510.0
21.0,49.0,96.0,713.0,999.0,-478.0,66.0,177.0,376.0
-10.0,59.0,24.0,720.0,1000.0,-455.0,-33.0,202.0,112.0
-44.0,69.0,-62.0,667.0,864.0,-440.0,-130.0,256.0,-211.0
-64.0,87.0,-129.0,555.0,646.0,-421.0,-239.0,312.0,-550.0
-91.0,95.0,-207.0,406.0,422.0,-391.0,-340.0,340.0,-872.0
-95.0,79.0,-265.0,233.0,272.0,-362.0,-402.0,294.0,-1110.0
-101.0,46.0,-293.0,52.0,276.0,-377.0,-408.0,174.0,-1217.0
-88.0,-8.0,-275.0,-102.0,415.0,-459.0,-364.0,0.0,-1156.0
-77.0,-63.0,-228.0,-184.0,580.0,-572.0,-310.0,-259.0,-931.0
-65.0,-141.0,-145.0,-150.0,690.0,-674.0,-250.0,-535.0,-613.0
-54.0,-220.0,-69.0,9.0,707.0,-696.0,-209.0,-846.0,-294.0
-40.0,-315.0,-10.0,250.0,602.0,-623.0,-141.0,-1193.0,-67.0
-28.0,-379.0,14.0,479.0,395.0,-510.0,-88.0,-1550.0,51.0
-21.0,-451.0,5.0,634.0,172.0,-385.0,-72.0,-1827.0,56.0
-5.0,-509.0,-26.0,681.0,9.0,-212.0,-29.0,-2047.0,-74.0
22.0,-540.0,-77.0,608.0,-90.0,13.0,66.0,-2210.0,-260.0
48.0,-567.0,-127.0,427.0,-178.0,245.0,167.0,-2303.0,-453.0
79.0,-576.0,-160.0,217.0,-308.0,408.0,336.0,-2371.0,-636.0
133.0,-587.0,-194.0,67.0,-448.0,422.0,528.0,-2360.0,-776.0
131.0,-569.0,-211.0,70.0,-490.0,263.0,507.0,-2244.0,-824.0
92.0,-517.0,-219.0,254.0,-368.0,17.0,325.0,-2043.0,-860.0
74.0,-464.0,-246.0,545.0,-104.0,-235.0,263.0,-1854.0,-976.0
60.0,-425.0,-272.0,801.0,262.0,-470.0,202.0,-1707.0,-1116.0
45.0,-394.0,-293.0,902.0,668.0,-691.0,155.0,-1602.0,-1189.0
31.0,-375.0,-287.0,802.0,1012.0,-911.0,139.0,-1549.0,-1170.0
18.0,-371.0,-259.0,538.0,1220.0,-1139.0,92.0,-1537.0,-1063.0
0.0,-372.0,-217.0,198.0,1275.0,-1337.0,22.0,-1566.0,-907.0
-20.0,-388.0,-183.0,-137.0,1209.0,-1470.0,-43.0,-1625.0,-735.0
-20.0,-425.0,-150.0,-396.0,1079.0,-1523.0,-58.0,-1742.0,-605.0
-10.0,-467.0,-139.0,-543.0,959.0,-1521.0,-42.0,-1871.0,-548.0
16.0,-508.0,-140.0,-584.0,905.0,-1470.0,42.0,-2020.0,-550.0
59.0,-539.0,-151.0,-547.0,921.0,-1419.0,186.0,-2159.0,-600.0
87.0,-553.0,-161.0,-445.0,988.0,-1384.0,334.0,-2221.0,-624.0
115.0,-544.0,-167.0,-287.0,1087.0,-1350.0,441.0,-2189.0,-647.0
119.0,-501.0,-177.0,-116.0,1202.0,-1293.0,481.0,-2045.0,-681.0
106.0,-434.0,-181.0,10.0,1288.0,-1224.0,429.0,-1811.0,-721.0
80.0,-367.0,-177.0,64.0,1292.0,-1135.0,360.0,-1554.0,-728.0
57.0,-305.0,-179.0,53.0,1204.0,-1032.0,258.0,-1289.0,-692.0
19.0,-235.0,-162.0,-2.0,1065.0,-921.0,115.0,-1011.0,-658.0
-22.0,-155.0,-149.0,-84.0,916.0,-806.0,-38.0,-641.0,-601.0
-60.0,-85.0,-132.0,-162.0,795.0,-682.0,-227.0,-339.0,-552.0
-96.0,-13.0,-123.0,-220.0,714.0,-527.0,-360.0,-81.0,-502.0
-127.0,37.0,-111.0,-272.0,648.0,-346.0,-517.0,143.0,-452.0
-166.0,86.0,-88.0,-334.0,551.0,-121.0,-657.0,329.0,-378.0
-195.0,114.0,-63.0,-396.0,405.0,114.0,-775.0,443.0,-274.0
-218.0,125.0,-34.0,-444.0,207.0,363.0,-842.0,474.0,-153.0
-218.0,108.0,-6.0,-468.0,-27.0,620.0,-838.0,400.0,-6.0
-197.0,67.0,40.0,-452.0,-265.0,836.0,-776.0,256.0,155.0
-166.0,19.0,78.0,-384.0,-478.0,980.0,-681.0,106.0,301.0
-135.0,-11.0,112.0,-253.0,-654.0,1047.0,-564.0,-15.0,443.0
-92.0,-41.0,129.0,-53.0,-772.0,1035.0,-414.0,-125.0,523.0
-63.0,-57.0,138.0,204.0,-834.0,943.0,-248.0,-204.0,568.0
-18.0,-69.0,136.0,482.0,-834.0,794.0,-95.0,-254.0,559.0
30.0,-69.0,132.0,760.0,-787.0,630.0,56.0,-249.0,543.0
67.0,-61.0,115.0,1017.0,-701.0,480.0,200.0,-230.0,490.0
95.0,-42.0,94.0,1221.0,-586.0,335.0,317.0,-189.0,426.0
111.0,-24.0,58.0,1347.0,-448.0,187.0,401.0,-103.0,251.0
140.0,14.0,-21.0,1379.0,-270.0,64.0,510.0,29.0,-39.0
182.0,63.0,-119.0,1316.0,-11.0,-22.0,660.0,185.0,-407.0
222.0,107.0,-212.0,1152.0,334.0,-79.0,813.0,351.0,-905.0
240.0,138.0,-293.0,877.0,702.0,-110.0,936.0,505.0,-1204.0
237.0,150.0,-326.0,501.0,965.0,-110.0,964.0,536.0,-1352.0
207.0,136.0,-336.0,79.0,1017.0,-75.0,873.0,495.0,-1381.0
182.0,92.0,-317.0,-301.0,866.0,9.0,779.0,339.0,-1304.0
181.0,7.0,-256.0,-539.0,650.0,133.0,742.0,54.0,-1080.0
206.0,-111.0,-187.0,-564.0,545.0,211.0,791.0,-368.0,-781.0
222.0,-214.0,-126.0,-392.0,627.0,140.0,850.0,-872.0,-473.0
211.0,-345.0,-55.0,-108.0,856.0,-93.0,789.0,-1399.0,-184.0
141.0,-458.0,-2.0,141.0,1125.0,-392.0,550.0,-1844.0,5.0
15.0,-541.0,19.0,251.0,1326.0,-618.0,109.0,-2193.0,85.0
-117.0,-590.0,-21.0,160.0,1411.0,-719.0,-387.0,-2418.0,-29.0
-189.0,-619.0,-73.0,-111.0,1399.0,-686.0,-761.0,-2562.0,-285.0
-260.0,-644.0,-152.0,-460.0,1335.0,-552.0,-1023.0,-2660.0,-586.0
-332.0,-642.0,-215.0,-753.0,1246.0,-351.0,-1278.0,-2628.0,-836.0
-381.0,-616.0,-251.0,-850.0,1141.0,-67.0,-1481.0,-2487.0,-1002.0
-371.0,-574.0,-260.0,-667.0,1003.0,300.0,-1469.0,-2300.0,-1063.0
-322.0,-534.0,-257.0,-230.0,784.0,633.0,-1228.0,-2100.0,-1046.0
-239.0,-483.0,-247.0,335.0,451.0,846.0,-921.0,-1920.0,-995.0
-147.0,-442.0,-233.0,816.0,47.0,992.0,-586.0,-1806.0,-955.0
-66.0,-403.0,-206.0,1045.0,-369.0,1115.0,-265.0,-1691.0,-878.0
-11.0,-380.0,-198.0,974.0,-730.0,1223.0,-1.0,-1601.0,-748.0
40.0,-360.0,-166.0,666.0,-995.0,1287.0,164.0,-1522.0,-660.0
61.0,-361.0,-156.0,215.0,-1158.0,1310.0,246.0,-1522.0,-627.0
57.0,-374.0,-158.0,-274.0,-1224.0,1309.0,223.0,-1576.0,-627.0
44.0,-401.0,-158.0,-701.0,-1212.0,1297.0,153.0,-1654.0,-630.0
28.0,-418.0,-154.0,-975.0,-1140.0,1249.0,91.0,-1707.0,-611.0
4.0,-439.0,-147.0,-1044.0,-1049.0,1168.0,15.0,-1762.0,-583.0
-17.0,-449.0,-146.0,-917.0,-970.0,1084.0,-49.0,-1791.0,-568.0
-34.0,-451.0,-147.0,-682.0,-931.0,1023.0,-114.0,-1809.0,-584.0
-44.0,-448.0,-146.0,-451.0,-953.0,980.0,-144.0,-1797.0,-586.0
-54.0,-433.0,-146.0,-274.0,-1049.0,949.0,-177.0,-1741.0,-587.0
-53.0,-406.0,-143.0,-168.0,-1201.0,931.0,-172.0,-1644.0,-580.0
-41.0,-373.0,-135.0,-109.0,-1354.0,924.0,-156.0,-1511.0,-544.0
-34.0,-330.0,-123.0,-63.0,-1463.0,923.0,-133.0,-1351.0,-491.0
-30.0,-277.0,-110.0,-25.0,-1511.0,921.0,-112.0,-1158.0,-444.0
-27.0,-233.0,-111.0,2.0,-1507.0,928.0,-105.0,-937.0,-433.0
-20.0,-170.0,-110.0,0.0,-1460.0,929.0,-87.0,-718.0,-433.0
-1.0,-121.0,-112.0,-55.0,-1394.0,905.0,-20.0,-524.0,-442.0
17.0,-86.0,-117.0,-177.0,-1321.0,831.0,43.0,-393.0,-450.0
43.0,-68.0,-96.0,-358.0,-1235.0,704.0,122.0,-313.0,-420.0
61.0,-63.0,-75.0,-555.0,-1145.0,518.0,219.0,-278.0,-301.0
73.0,-65.0,-50.0,-710.0,-1064.0,290.0,290.0,-278.0,-176.0
90.0,-65.0,-33.0,-810.0,-978.0,54.0,336.0,-270.0,-124.0
102.0,-61.0,-17.0,-850.0,-845.0,-171.0,369.0,-232.0,-74.0
103.0,-44.0,-7.0,-824.0,-656.0,-366.0,380.0,-180.0,-39.0
106.0,-33.0,1.0,-736.0,-438.0,-526.0,391.0,-135.0,-2.0
112.0,-23.0,9.0,-602.0,-228.0,-655.0,403.0,-80.0,46.0
109.0,-18.0,32.0,-433.0,-52.0,-746.0,392.0,-59.0,125.0
105.0,-15.0,60.0,-246.0,94.0,-785.0,374.0,-37.0,237.0
98.0,-14.0,91.0,-41.0,224.0,-785.0,347.0,-31.0,375.0
90.0,-5.0,124.0,188.0,362.0,-746.0,302.0,-11.0,510.0
70.0,-1.0,146.0,434.0,510.0,-683.0,240.0,4.0,601.0
49.0,2.0,160.0,669.0,653.0,-604.0,154.0,15.0,650.0
14.0,2.0,149.0,859.0,764.0,-513.0,42.0,17.0,594.0
-13.0,9.0,133.0,976.0,807.0,-423.0,-72.0,24.0,536.0
-45.0,14.0,89.0,1000.0,753.0,-335.0,-177.0,33.0,362.0
-78.0,24.0,11.0,943.0,574.0,-262.0,-255.0,61.0,74.0
-104.0,46.0,-93.0,828.0,261.0,-214.0,-357.0,130.0,-311.0
-133.0,65.0,-201.0,683.0,-122.0,-188.0,-467.0,206.0,-749.0
-147.0,80.0,-277.0,521.0,-449.0,-186.0,-568.0,287.0,-1141.0
-150.0,86.0,-341.0,355.0,-583.0,-201.0,-623.0,319.0,-1402.0
-133.0,60.0,-355.0,192.0,-439.0,-233.0,-585.0,233.0,-1481.0
-92.0,2.0,-304.0,66.0,-100.0,-316.0,-431.0,55.0,-1244.0
-64.0,-64.0,-202.0,9.0,253.0,-470.0,-275.0,-245.0,-853.0
-47.0,-121.0,-118.0,52.0,471.0,-605.0,-167.0,-523.0,-412.0
-39.0,-199.0,-16.0,186.0,507.0,-644.0,-130.0,-826.0,-40.0
-29.0,-281.0,45.0,378.0,361.0,-590.0,-99.0,-1142.0,199.0
-16.0,-356.0,58.0,561.0,110.0,-496.0,-55.0,-1438.0,249.0
0.0,-418.0,15.0,675.0,-150.0,-393.0,5.0,-1695.0,118.0
26.0,-455.0,-37.0,664.0,-341.0,-249.0,120.0,-1900.0,-146.0
66.0,-492.0,-124.0,489.0,-445.0,-61.0,275.0,-2049.0,-479.0
102.0,-523.0,-184.0,188.0,-495.0,143.0,408.0,-2159.0,-722.0
154.0,-558.0,-216.0,-108.0,-553.0,308.0,618.0,-2249.0,-860.0
194.0,-571.0,-230.0,-260.0,-624.0,344.0,783.0,-2295.0,-906.0
184.0,-569.0,-221.0,-199.0,-613.0,221.0,712.0,-2253.0,-874.0
124.0,-530.0,-202.0,61.0,-464.0,-3.0,467.0,-2091.0,-814.0
85.0,-474.0,-212.0,434.0,-218.0,-253.0,317.0,-1902.0,-838.0
59.0,-425.0,-247.0,774.0,98.0,-484.0,209.0,-1743.0,-958.0
30.0,-392.0,-265.0,941.0,458.0,-678.0,112.0,-1629.0,-1060.0
10.0,-372.0,-267.0,880.0,798.0,-855.0,31.0,-1554.0,-1082.0
-13.0,-358.0,-246.0,642.0,1060.0,-1027.0,-53.0,-1505.0,-1005.0
-46.0,-361.0,-213.0,325.0,1219.0,-1157.0,-136.0,-1505.0,-880.0
-63.0,-381.0,-176.0,15.0,1259.0,-1221.0,-213.0,-1555.0,-746.0
-70.0,-398.0,-153.0,-243.0,1183.0,-1202.0,-242.0,-1639.0,-607.0
-57.0,-441.0,-140.0,-423.0,1038.0,-1099.0,-219.0,-1793.0,-534.0
-33.0,-477.0,-135.0,-507.0,898.0,-975.0,-106.0,-1937.0,-535.0
-9.0,-514.0,-141.0,-499.0,800.0,-902.0,-39.0,-2064.0,-554.0
9.0,-546.0,-141.0,-410.0,742.0,-881.0,42.0,-2190.0,-560.0
33.0,-562.0,-140.0,-262.0,705.0,-904.0,150.0,-2256.0,-562.0
63.0,-560.0,-142.0,-89.0,704.0,-957.0,247.0,-2243.0,-562.0
81.0,-535.0,-136.0,96.0,753.0,-1001.0,313.0,-2142.0,-538.0
96.0,-490.0,-136.0,278.0,822.0,-1036.0,372.0,-1978.0,-534.0
103.0,-439.0,-137.0,432.0,885.0,-1060.0,410.0,-1795.0,-538.0
106.0,-400.0,-135.0,538.0,921.0,-1071.0,430.0,-1604.0,-529.0
106.0,-342.0,-129.0,591.0,935.0,-1068.0,414.0,-1384.0,-502.0
100.0,-278.0,-125.0,600.0,937.0,-1052.0,376.0,-1149.0,-461.0
70.0,-212.0,-101.0,566.0,937.0,-1014.0,289.0,-908.0,-395.0
40.0,-147.0,-73.0,497.0,943.0,-947.0,178.0,-669.0,-318.0
13.0,-108.0,-68.0,405.0,957.0,-871.0,36.0,-445.0,-253.0
-26.0,-55.0,-54.0,292.0,982.0,-787.0,-108.0,-247.0,-208.0
-66.0,-4.0,-49.0,153.0,1002.0,-689.0,-236.0,-80.0,-197.0
-87.0,18.0,-53.0,-19.0,996.0,-557.0,-331.0,34.0,-198.0
-102.0,36.0,-48.0,-205.0,939.0,-393.0,-385.0,102.0,-192.0
-107.0,42.0,-38.0,-366.0,817.0,-194.0,-409.0,145.0,-173.0
-114.0,45.0,-37.0,-461.0,669.0,15.0,-439.0,160.0,-150.0
-114.0,37.0,-28.0,-490.0,535.0,205.0,-468.0,171.0,-129.0
-123.0,40.0,-20.0,-462.0,421.0,380.0,-475.0,151.0,-105.0
-119.0,28.0,-11.0,-402.0,297.0,547.0,-470.0,111.0,-66.0
-111.0,16.0,-2.0,-327.0,167.0,692.0,-440.0,43.0,-4.0
-103.0,-10.0,22.0,-244.0,43.0,798.0,-408.0,-45.0,74.0
-88.0,-38.0,44.0,-160.0,-62.0,869.0,-354.0,-140.0,174.0
-70.0,-58.0,75.0,-54.0,-146.0,908.0,-290.0,-220.0,297.0
-47.0,-70.0,116.0,98.0,-213.0,925.0,-216.0,-262.0,459.0
-29.0,-80.0,137.0,329.0,-275.0,917.0,-125.0,-295.0,571.0
-6.0,-77.0,156.0,617.0,-341.0,894.0,-54.0,-287.0,629.0
1.0,-68.0,151.0,913.0,-408.0,851.0,-6.0,-253.0,634.0
5.0,-46.0,134.0,1172.0,-480.0,795.0,26.0,-188.0,592.0
11.0,-24.0,115.0,1370.0,-542.0,730.0,19.0,-96.0,480.0
1.0,1.0,85.0,1485.0,-580.0,677.0,-7.0,2.0,350.0
16.0,30.0,13.0,1503.0,-577.0,644.0,28.0,82.0,93.0
59.0,53.0,-75.0,1448.0,-494.0,641.0,163.0,171.0,-244.0
118.0,75.0,-177.0,1345.0,-272.0,651.0,375.0,250.0,-639.0
156.0,87.0,-243.0,1207.0,101.0,633.0,568.0,319.0,-993.0
175.0,105.0,-296.0,1011.0,548.0,550.0,666.0,378.0,-1224.0
176.0,111.0,-324.0,738.0,901.0,421.0,709.0,398.0,-1320.0
174.0,98.0,-318.0,401.0,1023.0,276.0,749.0,354.0,-1329.0
176.0,54.0,-293.0,44.0,891.0,137.0,762.0,193.0,-1231.0
189.0,5.0,-259.0,-255.0,615.0,7.0,806.0,-37.0,-1055.0
221.0,-83.0,-206.0,-446.0,386.0,-167.0,907.0,-380.0,-820.0
260.0,-192.0,-137.0,-513.0,326.0,-414.0,1002.0,-780.0,-549.0
247.0,-304.0,-59.0,-449.0,453.0,-724.0,962.0,-1203.0,-236.0
181.0,-408.0,19.0,-267.0,697.0,-1023.0,712.0,-1592.0,67.0
109.0,-475.0,55.0,-2.0,966.0,-1210.0,347.0,-1928.0,252.0
5.0,-543.0,41.0,253.0,1199.0,-1256.0,-45.0,-2215.0,185.0
-97.0,-584.0,-50.0,386.0,1422.0,-1173.0,-417.0,-2401.0,-129.0
-187.0,-615.0,-157.0,354.0,1659.0,-1022.0,-742.0,-2500.0,-574.0
-286.0,-616.0,-241.0,247.0,1859.0,-790.0,-1074.0,-2512.0,-921.0
-350.0,-604.0,-277.0,182.0,1909.0,-441.0,-1370.0,-2434.0,-1130.0
-401.0,-561.0,-297.0,213.0,1749.0,19.0,-1542.0,-2260.0,-1195.0
-376.0,-503.0,-265.0,323.0,1410.0,517.0,-1456.0,-2037.0,-1111.0
-283.0,-443.0,-218.0,484.0,946.0,898.0,-1110.0,-1815.0,-925.0
-182.0,-389.0,-173.0,662.0,419.0,1092.0,-734.0,-1610.0,-740.0
-109.0,-357.0,-150.0,811.0,-90.0,1221.0,-388.0,-1456.0,-600.0
-17.0,-330.0,-123.0,878.0,-513.0,1362.0,-67.0,-1382.0,-508.0
54.0,-327.0,-128.0,817.0,-782.0,1477.0,169.0,-1375.0,-474.0
91.0,-342.0,-118.0,592.0,-861.0,1511.0,314.0,-1429.0,-478.0
107.0,-364.0,-118.0,218.0,-788.0,1449.0,389.0,-1502.0,-444.0
120.0,-385.0,-114.0,-214.0,-660.0,1343.0,454.0,-1619.0,-430.0
126.0,-412.0,-108.0,-594.0,-536.0,1205.0,503.0,-1738.0,-412.0
136.0,-455.0,-98.0,-841.0,-439.0,1059.0,533.0,-1862.0,-384.0
132.0,-497.0,-96.0,-924.0,-357.0,929.0,509.0,-1988.0,-361.0
115.0,-523.0,-89.0,-872.0,-291.0,806.0,432.0,-2125.0,-331.0
74.0,-549.0,-81.0,-741.0,-207.0,713.0,261.0,-2226.0,-310.0
13.0,-571.0,-81.0,-579.0,-112.0,681.0,44.0,-2300.0,-299.0
-54.0,-576.0,-85.0,-426.0,-23.0,712.0,-199.0,-2326.0,-310.0
-105.0,-573.0,-94.0,-297.0,39.0,788.0,-404.0,-2316.0,-340.0
-137.0,-558.0,-97.0,-176.0,58.0,886.0,-553.0,-2242.0,-377.0
-155.0,-533.0,-112.0,-44.0,34.0,1006.0,-625.0,-2137.0,-439.0
-149.0,-499.0,-129.0,96.0,-24.0,1137.0,-613.0,-2010.0,-493.0
-140.0,-464.0,-126.0,228.0,-103.0,1251.0,-568.0,-1865.0,-540.0
-132.0,-416.0,-132.0,343.0,-200.0,1340.0,-519.0,-1708.0,-531.0
-120.0,-383.0,-130.0,448.0,-312.0,1418.0,-449.0,-1542.0,-500.0
-89.0,-336.0,-109.0,506.0,-439.0,1469.0,-353.0,-1377.0,-446.0
-65.0,-295.0,-95.0,525.0,-589.0,1492.0,-242.0,-1206.0,-378.0
-33.0,-250.0,-72.0,513.0,-749.0,1493.0,-141.0,-1049.0,-295.0
-2.0,-213.0,-49.0,502.0,-882.0,1474.0,-30.0,-897.0,-196.0
18.0,-189.0,-31.0,518.0,-966.0,1415.0,68.0,-760.0,-104.0
39.0,-158.0,-8.0,568.0,-991.0,1313.0,129.0,-650.0,-4.0
46.0,-135.0,10.0,624.0,-971.0,1166.0,171.0,-550.0,38.0
52.0,-116.0,22.0,654.0,-919.0,980.0,188.0,-469.0,86.0
58.0,-93.0,29.0,659.0,-847.0,778.0,195.0,-401.0,113.0
53.0,-79.0,29.0,653.0,-772.0,582.0,172.0,-324.0,132.0
35.0,-58.0,32.0,647.0,-700.0,409.0,117.0,-226.0,123.0
28.0,-39.0,22.0,644.0,-617.0,280.0,86.0,-153.0,80.0
22.0,-14.0,12.0,630.0,-518.0,177.0,53.0,-66.0,54.0
15.0,18.0,17.0,625.0,-407.0,94.0,34.0,35.0,47.0
15.0,45.0,28.0,649.0,-308.0,34.0,42.0,168.0,114.0
13.0,69.0,36.0,702.0,-245.0,-31.0,44.0,269.0,142.0
17.0,91.0,32.0,750.0,-221.0,-103.0,52.0,336.0,130.0
19.0,101.0,40.0,738.0,-215.0,-182.0,61.0,377.0,149.0
30.0,98.0,46.0,669.0,-201.0,-262.0,78.0,372.0,163.0
30.0,77.0,41.0,550.0,-160.0,-336.0,94.0,282.0,159.0
24.0,51.0,33.0,380.0,-99.0,-401.0,76.0,167.0,146.0
13.0,24.0,34.0,202.0,-50.0,-443.0,37.0,89.0,149.0
0.0,8.0,26.0,83.0,-27.0,-453.0,10.0,33.0,111.0
-3.0,2.0,6.0,39.0,-40.0,-437.0,-26.0,1.0,31.0
-16.0,-7.0,-33.0,53.0,-82.0,-401.0,-56.0,-20.0,-105.0
-23.0,-6.0,-71.0,89.0,-125.0,-356.0,-87.0,-27.0,-264.0
-25.0,-16.0,-114.0,130.0,-135.0,-304.0,-119.0,-44.0,-465.0
-25.0,-22.0,-157.0,168.0,-86.0,-260.0,-121.0,-86.0,-644.0
-31.0,-33.0,-189.0,195.0,23.0,-227.0,-122.0,-146.0,-792.0
-30.0,-53.0,-203.0,223.0,156.0,-200.0,-122.0,-209.0,-850.0
-32.0,-77.0,-202.0,287.0,271.0,-164.0,-131.0,-305.0,-829.0
-45.0,-112.0,-184.0,401.0,334.0,-117.0,-163.0,-439.0,-762.0
-64.0,-158.0,-152.0,531.0,323.0,-40.0,-214.0,-618.0,-638.0
-67.0,-197.0,-122.0,631.0,218.0,80.0,-226.0,-829.0,-472.0
-56.0,-254.0,-74.0,686.0,47.0,219.0,-184.0,-1049.0,-287.0
-30.0,-301.0,-32.0,695.0,-141.0,353.0,-112.0,-1241.0,-124.0
3.0,-348.0,-5.0,677.0,-294.0,479.0,15.0,-1410.0,-7.0
49.0,-376.0,-4.0,652.0,-402.0,593.0,156.0,-1525.0,9.0
80.0,-390.0,-33.0,635.0,-481.0,689.0,320.0,-1599.0,-95.0
118.0,-394.0,-96.0,622.0,-562.0,748.0,475.0,-1610.0,-352.0
149.0,-377.0,-181.0,609.0,-652.0,759.0,606.0,-1541.0,-689.0
171.0,-347.0,-261.0,618.0,-734.0,722.0,689.0,-1428.0,-997.0
184.0,-306.0,-300.0,679.0,-751.0,628.0,738.0,-1270.0,-1195.0
190.0,-278.0,-300.0,801.0,-665.0,510.0,760.0,-1100.0,-1230.0
193.0,-239.0,-275.0,946.0,-479.0,380.0,752.0,-961.0,-1141.0
167.0,-202.0,-229.0,1056.0,-237.0,238.0,665.0,-842.0,-966.0
121.0,-178.0,-187.0,1081.0,16.0,101.0,492.0,-750.0,-778.0
68.0,-161.0,-154.0,986.0,253.0,-19.0,299.0,-691.0,-624.0
29.0,-150.0,-143.0,772.0,457.0,-111.0,65.0,-678.0,-594.0
-26.0,-163.0,-144.0,455.0,616.0,-177.0,-137.0,-712.0,-604.0
-70.0,-181.0,-156.0,79.0,719.0,-212.0,-279.0,-793.0,-627.0
-96.0,-218.0,-168.0,-299.0,766.0,-213.0,-371.0,-917.0,-660.0
-108.0,-255.0,-160.0,-624.0,756.0,-189.0,-407.0,-1057.0,-658.0
-104.0,-288.0,-159.0,-849.0,702.0,-162.0,-387.0,-1194.0,-644.0
-83.0,-326.0,-148.0,-952.0,631.0,-151.0,-323.0,-1330.0,-602.0
-62.0,-359.0,-139.0,-926.0,571.0,-158.0,-235.0,-1443.0,-563.0
-44.0,-384.0,-128.0,-800.0,544.0,-179.0,-170.0,-1524.0,-523.0
-26.0,-393.0,-126.0,-613.0,548.0,-204.0,-102.0,-1586.0,-490.0
-8.0,-399.0,-114.0,-417.0,569.0,-230.0,-35.0,-1614.0,-449.0
2.0,-403.0,-103.0,-239.0,607.0,-261.0,7.0,-1626.0,-399.0
14.0,-401.0,-89.0,-98.0,655.0,-288.0,41.0,-1625.0,-355.0
18.0,-392.0,-78.0,3.0,705.0,-312.0,67.0,-1607.0,-304.0
12.0,-381.0,-67.0,79.0,745.0,-332.0,77.0,-1545.0,-271.0
22.0,-368.0,-65.0,143.0,770.0,-337.0,80.0,-1489.0,-260.0
18.0,-345.0,-70.0,193.0,779.0,-325.0,70.0,-1421.0,-266.0
18.0,-328.0,-77.0,229.0,774.0,-312.0,64.0,-1354.0,-285.0
10.0,-311.0,-79.0,254.0,760.0,-301.0,41.0,-1287.0,-306.0
8.0,-301.0,-80.0,262.0,740.0,-287.0,26.0,-1223.0,-326.0
4.0,-287.0,-84.0,254.0,723.0,-273.0,21.0,-1173.0,-322.0
7.0,-276.0,-79.0,242.0,711.0,-271.0,19.0,-1125.0,-312.0
-1.0,-267.0,-73.0,237.0,705.0,-282.0,11.0,-1087.0,-273.0
1.0,-257.0,-56.0,247.0,704.0,-301.0,-19.0,-1051.0,-248.0
-14.0,-238.0,-53.0,269.0,689.0,-326.0,-52.0,-995.0,-202.0
-19.0,-233.0,-54.0,298.0,654.0,-357.0,-86.0,-936.0,-186.0
-28.0,-208.0,-49.0,323.0,598.0,-389.0,-107.0,-860.0,-189.0
-34.0,-188.0,-49.0,335.0,533.0,-412.0,-124.0,-778.0,-182.0
-39.0,-166.0,-47.0,331.0,470.0,-424.0,-149.0,-697.0,-185.0
-43.0,-147.0,-51.0,314.0,419.0,-421.0,-167.0,-613.0,-187.0
-51.0,-129.0,-45.0,286.0,382.0,-406.0,-187.0,-545.0,-183.0
-51.0,-116.0,-47.0,248.0,355.0,-382.0,-207.0,-478.0,-175.0
-53.0,-101.0,-44.0,206.0,334.0,-357.0,-201.0,-425.0,-163.0
-46.0,-91.0,-34.0,164.0,311.0,-328.0,-190.0,-385.0,-141.0
-45.0,-87.0,-31.0,125.0,284.0,-303.0,-176.0,-356.0,-124.0
-44.0,-76.0,-21.0,94.0,247.0,-278.0,-160.0,-351.0,-88.0
-32.0,-87.0,-17.0,65.0,203.0,-253.0,-139.0,-363.0,-68.0
-26.0,-95.0,-7.0,39.0,155.0,-225.0,-120.0,-396.0,-37.0
-22.0,-105.0,-5.0,25.0,107.0,-197.0,-92.0,-438.0,-12.0
-13.0,-116.0,3.0,18.0,67.0,-170.0,-61.0,-482.0,18.0
-6.0,-130.0,13.0,28.0,35.0,-149.0,-39.0,-538.0,53.0
-4.0,-146.0,22.0,56.0,9.0,-131.0,-23.0,-595.0,92.0
2.0,-157.0,25.0,101.0,-18.0,-113.0,-7.0,-646.0,108.0
4.0,-165.0,31.0,159.0,-50.0,-95.0,4.0,-661.0,115.0
9.0,-169.0,26.0,237.0,-73.0,-88.0,18.0,-680.0,106.0
10.0,-164.0,21.0,320.0,-80.0,-86.0,39.0,-681.0,74.0
20.0,-162.0,9.0,397.0,-62.0,-84.0,68.0,-658.0,29.0
36.0,-150.0,-9.0,461.0,-18.0,-80.0,110.0,-625.0,-18.0
44.0,-145.0,-20.0,510.0,49.0,-68.0,163.0,-589.0,-83.0
60.0,-136.0,-39.0,543.0,144.0,-65.0,221.0,-569.0,-149.0
71.0,-134.0,-60.0,554.0,260.0,-66.0,257.0,-554.0,-229.0
75.0,-129.0,-77.0,528.0,383.0,-63.0,278.0,-553.0,-306.0
75.0,-128.0,-102.0,445.0,479.0,-57.0,291.0,-556.0,-390.0
69.0,-132.0,-124.0,277.0,528.0,-43.0,271.0,-578.0,-488.0
56.0,-148.0,-136.0,40.0,532.0,-19.0,232.0,-642.0,-551.0
51.0,-183.0,-143.0,-235.0,510.0,9.0,192.0,-770.0,-578.0
43.0,-219.0,-139.0,-487.0,489.0,21.0,168.0,-901.0,-556.0
45.0,-262.0,-120.0,-663.0,478.0,21.0,167.0,-1035.0,-491.0
46.0,-293.0,-101.0,-730.0,471.0,13.0,173.0,-1167.0,-405.0
31.0,-328.0,-71.0,-675.0,460.0,-12.0,128.0,-1309.0,-294.0
7.0,-358.0,-55.0,-513.0,439.0,-42.0,47.0,-1413.0,-202.0
-17.0,-378.0,-49.0,-288.0,425.0,-71.0,-54.0,-1498.0,-175.0
-33.0,-385.0,-56.0,-50.0,438.0,-94.0,-132.0,-1530.0,-191.0
-39.0,-379.0,-63.0,162.0,488.0,-120.0,-164.0,-1514.0,-239.0
-42.0,-360.0,-73.0,338.0,557.0,-155.0,-175.0,-1437.0,-283.0
-50.0,-329.0,-77.0,475.0,603.0,-201.0,-182.0,-1339.0,-307.0
-57.0,-296.0,-81.0,569.0,595.0,-233.0,-220.0,-1216.0,-310.0
-69.0,-267.0,-81.0,610.0,532.0,-239.0,-267.0,-1117.0,-315.0
-79.0,-250.0,-80.0,588.0,433.0,-220.0,-308.0,-1018.0,-297.0
-86.0,-224.0,-79.0,510.0,329.0,-187.0,-334.0,-935.0,-282.0
-84.0,-204.0,-69.0,392.0,231.0,-145.0,-335.0,-859.0,-273.0
-77.0,-194.0,-68.0,261.0,150.0,-94.0,-299.0,-812.0,-264.0
-67.0,-195.0,-67.0,133.0,84.0,-50.0,-254.0,-808.0,-260.0
-58.0,-196.0,-70.0,13.0,26.0,-14.0,-230.0,-823.0,-273.0
-51.0,-205.0,-73.0,-103.0,-27.0,12.0,-207.0,-851.0,-281.0
-46.0,-219.0,-78.0,-216.0,-75.0,35.0,-195.0,-898.0,-304.0
-50.0,-232.0,-74.0,-327.0,-114.0,52.0,-182.0,-950.0,-315.0
-40.0,-248.0,-75.0,-424.0,-147.0,55.0,-164.0,-1019.0,-307.0
-43.0,-251.0,-69.0,-498.0,-177.0,45.0,-149.0,-1060.0,-290.0
-30.0,-265.0,-68.0,-531.0,-209.0,33.0,-116.0,-1088.0,-257.0
-12.0,-266.0,-58.0,-508.0,-246.0,23.0,-57.0,-1090.0,-234.0
1.0,-261.0,-58.0,-428.0,-283.0,15.0,3.0,-1067.0,-213.0
16.0,-254.0,-60.0,-316.0,-307.0,6.0,64.0,-1031.0,-220.0
34.0,-239.0,-63.0,-205.0,-317.0,0.0,123.0,-971.0,-246.0
47.0,-225.0,-71.0,-123.0,-311.0,-7.0,184.0,-935.0,-260.0
58.0,-222.0,-66.0,-82.0,-294.0,-13.0,202.0,-902.0,-272.0
58.0,-216.0,-72.0,-76.0,-266.0,-20.0,217.0,-880.0,-271.0
55.0,-210.0,-74.0,-88.0,-227.0,-26.0,206.0,-869.0,-272.0
50.0,-214.0,-74.0,-104.0,-182.0,-37.0,185.0,-881.0,-274.0
39.0,-218.0,-74.0,-114.0,-137.0,-44.0,139.0,-889.0,-280.0
27.0,-219.0,-73.0,-114.0,-102.0,-50.0,96.0,-897.0,-282.0
14.0,-218.0,-77.0,-102.0,-80.0,-54.0,68.0,-896.0,-298.0
7.0,-218.0,-78.0,-79.0,-73.0,-53.0,27.0,-889.0,-305.0
-2.0,-214.0,-79.0,-49.0,-74.0,-50.0,-4.0,-876.0,-319.0
-6.0,-212.0,-84.0,-18.0,-76.0,-45.0,-31.0,-867.0,-332.0
-14.0,-208.0,-87.0,9.0,-80.0,-36.0,-54.0,-840.0,-345.0
-17.0,-203.0,-78.0,25.0,-87.0,-22.0,-74.0,-821.0,-345.0
-21.0,-196.0,-82.0,27.0,-98.0,-8.0,-69.0,-810.0,-343.0
-16.0,-194.0,-87.0,14.0,-115.0,9.0,-57.0,-792.0,-342.0
-12.0,-193.0,-84.0,-10.0,-136.0,21.0,-50.0,-795.0,-335.0
-17.0,-196.0,-81.0,-51.0,-161.0,27.0,-37.0,-799.0,-325.0
-13.0,-199.0,-76.0,-101.0,-195.0,26.0,-41.0,-808.0,-319.0
-13.0,-202.0,-77.0,-148.0,-236.0,20.0,-43.0,-829.0,-313.0
-10.0,-209.0,-77.0,-187.0,-280.0,5.0,-44.0,-842.0,-306.0
-13.0,-213.0,-77.0,-211.0,-314.0,-18.0,-47.0,-882.0,-305.0
-14.0,-223.0,-75.0,-223.0,-333.0,-44.0,-48.0,-911.0,-297.0
-9.0,-231.0,-69.0,-224.0,-336.0,-79.0,-42.0,-945.0,-280.0
-5.0,-239.0,-72.0,-217.0,-324.0,-112.0,-27.0,-975.0,-270.0
-4.0,-245.0,-68.0,-216.0,-302.0,-143.0,-3.0,-997.0,-269.0
7.0,-252.0,-72.0,-219.0,-277.0,-172.0,11.0,-1018.0,-266.0
13.0,-256.0,-72.0,-224.0,-245.0,-196.0,33.0,-1034.0,-268.0
16.0,-251.0,-65.0,-225.0,-209.0,-212.0,53.0,-1039.0,-271.0
19.0,-253.0,-70.0,-220.0,-170.0,-217.0,75.0,-1034.0,-275.0
22.0,-251.0,-76.0,-209.0,-133.0,-216.0,86.0,-1018.0,-298.0
21.0,-245.0,-82.0,-201.0,-99.0,-212.0,88.0,-1009.0,-328.0
19.0,-244.0,-90.0,-202.0,-72.0,-204.0,78.0,-998.0,-362.0
20.0,-240.0,-96.0,-218.0,-53.0,-193.0,68.0,-981.0,-380.0
11.0,-236.0,-102.0,-246.0,-38.0,-182.0,50.0,-974.0,-398.0
10.0,-238.0,-105.0,-281.0,-24.0,-173.0,30.0,-967.0,-416.0
1.0,-238.0,-106.0,-317.0,-9.0,-168.0,17.0,-972.0,-427.0
1.0,-242.0,-105.0,-344.0,7.0,-167.0,5.0,-979.0,-419.0
-3.0,-244.0,-104.0,-356.0,26.0,-168.0,-4.0,-983.0,-406.0
-4.0,-242.0,-109.0,-348.0,52.0,-171.0,-15.0,-995.0,-395.0
-3.0,-247.0,-97.0,-318.0,85.0,-175.0,-18.0,-1001.0,-381.0
2.0,-249.0,-89.0,-269.0,123.0,-178.0,-9.0,-1007.0,-342.0
3.0,-251.0,-82.0,-210.0,165.0,-183.0,4.0,-1007.0,-318.0
8.0,-252.0,-79.0,-151.0,208.0,-185.0,22.0,-1011.0,-301.0
10.0,-249.0,-72.0,-101.0,249.0,-186.0,43.0,-1012.0,-271.0
16.0,-253.0,-68.0,-65.0,288.0,-183.0,48.0,-1018.0,-261.0
16.0,-251.0,-63.0,-51.0,324.0,-176.0,56.0,-1020.0,-247.0
19.0,-253.0,-62.0,-53.0,357.0,-167.0,61.0,-1018.0,-236.0
16.0,-254.0,-57.0,-64.0,387.0,-155.0,53.0,-1029.0,-224.0
17.0,-260.0,-55.0,-75.0,415.0,-139.0,60.0,-1045.0,-220.0
17.0,-259.0,-60.0,-82.0,443.0,-121.0,62.0,-1054.0,-228.0
17.0,-259.0,-64.0,-91.0,476.0,-103.0,50.0,-1061.0,-239.0
12.0,-260.0,-67.0,-96.0,515.0,-87.0,47.0,-1064.0,-242.0
11.0,-261.0,-66.0,-100.0,560.0,-70.0,33.0,-1068.0,-253.0
9.0,-258.0,-68.0,-99.0,605.0,-53.0,33.0,-1067.0,-267.0
9.0,-260.0,-73.0,-95.0,653.0,-34.0,32.0,-1062.0,-282.0
5.0,-257.0,-75.0,-85.0,698.0,-12.0,23.0,-1057.0,-291.0
5.0,-256.0,-76.0,-75.0,740.0,8.0,16.0,-1053.0,-296.0
5.0,-258.0,-78.0,-61.0,775.0,31.0,9.0,-1040.0,-297.0
3.0,-249.0,-70.0,-48.0,804.0,52.0,5.0,-1028.0,-286.0
5.0,-253.0,-71.0,-35.0,827.0,74.0,8.0,-1017.0,-281.0
0.0,-250.0,-72.0,-27.0,845.0,96.0,-3.0,-1023.0,-280.0
-3.0,-248.0,-76.0,-29.0,861.0,113.0,-6.0,-1008.0,-301.0
-4.0,-246.0,-77.0,-43.0,873.0,131.0,-17.0,-1001.0,-306.0
-4.0,-247.0,-78.0,-65.0,883.0,149.0,-30.0,-1004.0,-307.0
-10.0,-245.0,-77.0,-84.0,892.0,164.0,-41.0,-1002.0,-314.0
-14.0,-248.0,-77.0,-95.0,900.0,178.0,-58.0,-1012.0,-295.0
-14.0,-251.0,-74.0,-92.0,904.0,193.0,-74.0,-1016.0,-282.0
-19.0,-253.0,-71.0,-79.0,909.0,207.0,-84.0,-1026.0,-276.0
-21.0,-251.0,-74.0,-58.0,916.0,220.0,-82.0,-1022.0,-273.0
-17.0,-254.0,-73.0,-36.0,928.0,235.0,-80.0,-1021.0,-273.0
-18.0,-253.0,-69.0,-19.0,945.0,246.0,-75.0,-1016.0,-272.0
-17.0,-249.0,-67.0,-4.0,965.0,258.0,-63.0,-1020.0,-265.0
-15.0,-251.0,-68.0,12.0,983.0,268.0,-61.0,-1012.0,-267.0
-16.0,-247.0,-70.0,31.0,995.0,276.0,-56.0,-1017.0,-261.0
-13.0,-249.0,-70.0,51.0,1004.0,282.0,-47.0,-1005.0,-271.0
-7.0,-245.0,-72.0,72.0,1011.0,286.0,-43.0,-1001.0,-277.0
-7.0,-240.0,-76.0,87.0,1017.0,290.0,-35.0,-989.0,-277.0
-6.0,-245.0,-73.0,96.0,1025.0,294.0,-29.0,-986.0,-284.0
-4.0,-240.0,-74.0,95.0,1036.0,300.0,-18.0,-978.0,-288.0
-3.0,-237.0,-74.0,90.0,1047.0,302.0,-12.0,-967.0,-298.0
0.0,-240.0,-74.0,83.0,1057.0,305.0,-4.0,-958.0,-303.0
1.0,-234.0,-77.0,74.0,1066.0,307.0,4.0,-953.0,-299.0
3.0,-233.0,-76.0,67.0,1075.0,308.0,10.0,-947.0,-301.0
4.0,-229.0,-79.0,61.0,1088.0,309.0,19.0,-944.0,-298.0
7.0,-234.0,-77.0,57.0,1105.0,307.0,26.0,-937.0,-308.0
9.0,-230.0,-78.0,56.0,1126.0,307.0,37.0,-943.0,-302.0
10.0,-231.0,-78.0,57.0,1149.0,304.0,28.0,-941.0,-310.0
7.0,-229.0,-84.0,57.0,1172.0,303.0,32.0,-936.0,-315.0
8.0,-228.0,-84.0,54.0,1196.0,301.0,36.0,-936.0,-310.0
10.0,-231.0,-83.0,49.0,1220.0,297.0,32.0,-928.0,-323.0
8.0,-229.0,-81.0,38.0,1247.0,296.0,31.0,-936.0,-332.0
6.0,-231.0,-91.0,28.0,1275.0,295.0,15.0,-935.0,-321.0
3.0,-228.0,-78.0,20.0,1300.0,292.0,11.0,-928.0,-323.0
1.0,-227.0,-83.0,13.0,1323.0,288.0,1.0,-937.0,-326.0
-2.0,-228.0,-84.0,6.0,1341.0,285.0,0.0,-932.0,-329.0
-2.0,-228.0,-86.0,-5.0,1357.0,280.0,-10.0,-937.0,-329.0
-4.0,-231.0,-83.0,-19.0,1371.0,274.0,-18.0,-942.0,-321.0
-4.0,-232.0,-76.0,-31.0,1386.0,270.0,-25.0,-945.0,-321.0
-9.0,-233.0,-82.0,-39.0,1401.0,264.0,-33.0,-945.0,-325.0
-9.0,-232.0,-81.0,-42.0,1420.0,261.0,-35.0,-955.0,-317.0
-7.0,-237.0,-84.0,-47.0,1440.0,257.0,-35.0,-961.0,-317.0
-10.0,-234.0,-80.0,-55.0,1465.0,255.0,-35.0,-961.0,-320.0
-9.0,-238.0,-84.0,-65.0,1486.0,256.0,-42.0,-961.0,-333.0
-14.0,-240.0,-87.0,-75.0,1502.0,260.0,-54.0,-969.0,-343.0
-16.0,-237.0,-90.0,-82.0,1513.0,266.0,-63.0,-980.0,-348.0
-17.0,-240.0,-86.0,-84.0,1520.0,274.0,-63.0,-981.0,-356.0
-15.0,-243.0,-89.0,-80.0,1524.0,285.0,-58.0,-989.0,-358.0
-12.0,-245.0,-87.0,-67.0,1537.0,296.0,-45.0,-995.0,-354.0
-7.0,-244.0,-92.0,-49.0,1552.0,308.0,-38.0,-1005.0,-354.0
-4.0,-249.0,-90.0,-28.0,1570.0,318.0,-20.0,-1007.0,-357.0
-4.0,-246.0,-94.0,-11.0,1591.0,327.0,-12.0,-1010.0,-362.0
-1.0,-250.0,-94.0,-4.0,1611.0,337.0,-1.0,-1003.0,-366.0
-1.0,-248.0,-95.0,-4.0,1628.0,344.0,8.0,-1006.0,-369.0
-2.0,-249.0,-101.0,-5.0,1641.0,349.0,10.0,-997.0,-369.0
0.0,-243.0,-89.0,-5.0,1649.0,355.0,9.0,-989.0,-360.0
0.0,-241.0,-90.0,2.0,1656.0,357.0,5.0,-982.0,-358.0
-1.0,-238.0,-89.0,19.0,1666.0,360.0,-7.0,-967.0,-343.0
-4.0,-235.0,-87.0,43.0,1680.0,363.0,-10.0,-950.0,-334.0
-6.0,-233.0,-84.0,70.0,1701.0,369.0,-14.0,-950.0,-330.0
0.0,-232.0,-83.0,95.0,1725.0,371.0,-13.0,-947.0,-328.0
-4.0,-232.0,-86.0,115.0,1755.0,375.0,-22.0,-949.0,-337.0
-4.0,-231.0,-86.0,125.0,1785.0,379.0,-21.0,-944.0,-339.0
-9.0,-228.0,-87.0,122.0,1815.0,382.0,-33.0,-941.0,-346.0
-6.0,-231.0,-88.0,114.0,1847.0,385.0,-26.0,-939.0,-343.0
-8.0,-224.0,-87.0,106.0,1876.0,386.0,-35.0,-939.0,-343.0
-4.0,-229.0,-86.0,103.0,1901.0,387.0,-25.0,-936.0,-328.0
-7.0,-225.0,-84.0,108.0,1923.0,383.0,-28.0,-934.0,-325.0
-4.0,-228.0,-83.0,112.0,1946.0,380.0,-28.0,-936.0,-320.0
-4.0,-227.0,-85.0,114.0,1967.0,373.0,-30.0,-936.0,-322.0
-9.0,-224.0,-83.0,111.0,1988.0,366.0,-35.0,-932.0,-317.0
-11.0,-224.0,-79.0,105.0,2004.0,355.0,-45.0,-926.0,-313.0
-6.0,-223.0,-82.0,92.0,2021.0,342.0,-55.0,-923.0,-322.0
-16.0,-220.0,-86.0,74.0,2035.0,326.0,-66.0,-916.0,-320.0
-19.0,-219.0,-79.0,51.0,2051.0,309.0,-77.0,-907.0,-317.0
-21.0,-222.0,-80.0,29.0,2065.0,289.0,-91.0,-905.0,-315.0
-28.0,-218.0,-81.0,12.0,2075.0,272.0,-105.0,-905.0,-311.0
-24.0,-219.0,-78.0,2.0,2083.0,256.0,-111.0,-907.0,-310.0
-32.0,-218.0,-81.0,-3.0,2092.0,240.0,-115.0,-906.0,-318.0
-29.0,-224.0,-81.0,-7.0,2102.0,225.0,-120.0,-904.0,-322.0
-30.0,-222.0,-86.0,-14.0,2117.0,211.0,-123.0,-909.0,-330.0
-31.0,-223.0,-87.0,-25.0,2131.0,199.0,-124.0,-917.0,-334.0
-30.0,-225.0,-88.0,-40.0,2144.0,191.0,-125.0,-924.0,-345.0
-31.0,-229.0,-92.0,-60.0,2152.0,182.0,-114.0,-932.0,-347.0
-29.0,-231.0,-95.0,-82.0,2152.0,175.0,-114.0,-937.0,-353.0
-30.0,-232.0,-87.0,-109.0,2147.0,169.0,-115.0,-943.0,-361.0
-30.0,-233.0,-92.0,-139.0,2136.0,165.0,-115.0,-950.0,-367.0
-27.0,-239.0,-90.0,-172.0,2119.0,162.0,-114.0,-967.0,-374.0
-28.0,-237.0,-93.0,-207.0,2100.0,159.0,-112.0,-968.0,-375.0
-31.0,-238.0,-96.0,-240.0,2079.0,159.0,-107.0,-977.0,-378.0
-27.0,-238.0,-94.0,-272.0,2056.0,161.0,-112.0,-981.0,-384.0
-30.0,-241.0,-101.0,-299.0,2028.0,165.0,-110.0,-991.0,-392.0
-23.0,-247.0,-97.0,-318.0,1998.0,169.0,-98.0,-993.0,-380.0
-21.0,-248.0,-94.0,-322.0,1971.0,174.0,-82.0,-1004.0,-376.0
-20.0,-250.0,-94.0,-311.0,1952.0,181.0,-66.0,-1019.0,-376.0
-12.0,-252.0,-96.0,-291.0,1939.0,189.0,-42.0,-1029.0,-375.0
-6.0,-256.0,-94.0,-271.0,1922.0,200.0,-23.0,-1039.0,-373.0
-3.0,-257.0,-93.0,-252.0,1899.0,208.0,-3.0,-1050.0,-372.0
5.0,-257.0,-90.0,-237.0,1865.0,219.0,10.0,-1051.0,-375.0
0.0,-257.0,-96.0,-220.0,1817.0,234.0,18.0,-1053.0,-371.0
5.0,-254.0,-93.0,-207.0,1762.0,252.0,28.0,-1049.0,-365.0
7.0,-255.0,-92.0,-196.0,1701.0,281.0,32.0,-1034.0,-363.0
8.0,-252.0,-88.0,-184.0,1644.0,313.0,34.0,-1026.0,-339.0
8.0,-247.0,-86.0,-172.0,1592.0,346.0,42.0,-1011.0,-338.0
8.0,-246.0,-88.0,-164.0,1549.0,379.0,39.0,-1004.0,-333.0
4.0,-246.0,-86.0,-160.0,1512.0,407.0,33.0,-996.0,-341.0
2.0,-244.0,-87.0,-163.0,1477.0,434.0,25.0,-991.0,-346.0
0.0,-240.0,-87.0,-168.0,1441.0,454.0,8.0,-977.0,-358.0
0.0,-240.0,-93.0,-170.0,1406.0,469.0,7.0,-959.0,-361.0
-2.0,-234.0,-90.0,-172.0,1377.0,478.0,3.0,-957.0,-356.0
0.0,-232.0,-88.0,-168.0,1355.0,475.0,0.0,-942.0,-347.0
-1.0,-226.0,-78.0,-161.0,1339.0,461.0,-1.0,-923.0,-323.0
1.0,-222.0,-77.0,-149.0,1328.0,443.0,10.0,-910.0,-296.0
10.0,-221.0,-69.0,-135.0,1320.0,418.0,37.0,-895.0,-271.0
13.0,-219.0,-67.0,-118.0,1312.0,387.0,63.0,-895.0,-248.0
22.0,-216.0,-61.0,-102.0,1300.0,354.0,76.0,-886.0,-228.0
25.0,-216.0,-61.0,-90.0,1286.0,322.0,95.0,-892.0,-230.0
29.0,-217.0,-63.0,-85.0,1271.0,294.0,105.0,-886.0,-239.0
32.0,-216.0,-60.0,-90.0,1258.0,274.0,115.0,-903.0,-250.0
32.0,-219.0,-64.0,-101.0,1248.0,263.0,119.0,-906.0,-262.0
33.0,-224.0,-74.0,-113.0,1238.0,259.0,129.0,-913.0,-279.0
36.0,-225.0,-74.0,-123.0,1226.0,263.0,136.0,-924.0,-297.0
40.0,-231.0,-77.0,-128.0,1214.0,274.0,149.0,-940.0,-303.0
38.0,-229.0,-74.0,-129.0,1204.0,288.0,145.0,-936.0,-302.0
37.0,-229.0,-73.0,-124.0,1197.0,307.0,148.0,-938.0,-286.0
39.0,-228.0,-74.0,-116.0,1191.0,329.0,143.0,-931.0,-276.0
33.0,-225.0,-68.0,-108.0,1188.0,352.0,131.0,-928.0,-262.0
31.0,-224.0,-67.0,-108.0,1187.0,376.0,115.0,-924.0,-265.0
27.0,-224.0,-71.0,-117.0,1187.0,401.0,111.0,-927.0,-265.0
27.0,-226.0,-73.0,-139.0,1184.0,426.0,96.0,-933.0,-282.0
25.0,-230.0,-90.0,-171.0,1180.0,453.0,80.0,-932.0,-311.0
18.0,-227.0,-84.0,-208.0,1177.0,477.0,69.0,-928.0,-323.0
13.0,-229.0,-89.0,-244.0,1179.0,500.0,49.0,-930.0,-339.0
13.0,-230.0,-87.0,-264.0,1192.0,517.0,43.0,-937.0,-345.0
11.0,-234.0,-81.0,-265.0,1214.0,528.0,42.0,-953.0,-327.0
12.0,-238.0,-82.0,-241.0,1242.0,533.0,44.0,-968.0,-304.0
13.0,-242.0,-73.0,-196.0,1255.0,526.0,49.0,-983.0,-284.0
16.0,-250.0,-74.0,-138.0,1257.0,508.0,61.0,-999.0,-269.0
16.0,-250.0,-67.0,-72.0,1246.0,483.0,70.0,-1018.0,-256.0
16.0,-252.0,-65.0,-10.0,1229.0,454.0,71.0,-1032.0,-241.0
16.0,-254.0,-62.0,42.0,1211.0,423.0,69.0,-1034.0,-232.0
12.0,-254.0,-65.0,75.0,1194.0,395.0,59.0,-1043.0,-231.0
15.0,-256.0,-66.0,93.0,1179.0,369.0,51.0,-1047.0,-245.0
13.0,-255.0,-68.0,93.0,1173.0,355.0,48.0,-1048.0,-267.0
7.0,-256.0,-73.0,77.0,1183.0,343.0,31.0,-1044.0,-282.0
12.0,-255.0,-77.0,49.0,1201.0,341.0,32.0,-1040.0,-301.0
7.0,-252.0,-75.0,10.0,1223.0,338.0,25.0,-1042.0,-294.0
5.0,-252.0,-67.0,-14.0,1243.0,333.0,28.0,-1043.0,-272.0
6.0,-254.0,-64.0,-22.0,1254.0,330.0,25.0,-1042.0,-252.0
3.0,-256.0,-62.0,-15.0,1256.0,329.0,26.0,-1042.0,-231.0
11.0,-254.0,-53.0,5.0,1251.0,331.0,34.0,-1042.0,-215.0
12.0,-259.0,-61.0,30.0,1245.0,336.0,49.0,-1046.0,-223.0
14.0,-256.0,-65.0,53.0,1239.0,340.0,65.0,-1040.0,-235.0
21.0,-252.0,-65.0,69.0,1233.0,346.0,73.0,-1024.0,-245.0
22.0,-251.0,-66.0,76.0,1228.0,352.0,81.0,-1008.0,-254.0
24.0,-245.0,-67.0,79.0,1222.0,356.0,88.0,-999.0,-263.0
27.0,-243.0,-68.0,80.0,1215.0,360.0,90.0,-984.0,-251.0
26.0,-240.0,-64.0,77.0,1210.0,357.0,89.0,-980.0,-251.0
24.0,-233.0,-70.0,70.0,1206.0,349.0,84.0,-970.0,-253.0
19.0,-230.0,-67.0,58.0,1206.0,336.0,82.0,-959.0,-259.0
20.0,-232.0,-67.0,40.0,1211.0,318.0,69.0,-953.0,-259.0
17.0,-235.0,-71.0,20.0,1219.0,300.0,61.0,-953.0,-260.0
14.0,-241.0,-66.0,-3.0,1227.0,282.0,46.0,-954.0,-263.0
10.0,-237.0,-66.0,-20.0,1235.0,264.0,40.0,-955.0,-257.0
7.0,-236.0,-65.0,-29.0,1241.0,247.0,27.0,-968.0,-258.0
4.0,-239.0,-67.0,-29.0,1242.0,232.0,28.0,-975.0,-247.0
6.0,-241.0,-64.0,-22.0,1239.0,219.0,27.0,-976.0,-247.0
8.0,-242.0,-62.0,-10.0,1235.0,209.0,31.0,-989.0,-237.0
9.0,-245.0,-61.0,6.0,1230.0,204.0,35.0,-994.0,-235.0
7.0,-243.0,-61.0,17.0,1222.0,202.0,42.0,-996.0,-234.0
10.0,-248.0,-66.0,24.0,1215.0,203.0,41.0,-1012.0,-245.0
12.0,-246.0,-68.0,21.0,1208.0,210.0,46.0,-1013.0,-255.0
11.0,-249.0,-67.0,11.0,1202.0,220.0,39.0,-1006.0,-267.0
6.0,-245.0,-75.0,-1.0,1197.0,230.0,35.0,-1007.0,-277.0
6.0,-248.0,-74.0,-14.0,1197.0,245.0,25.0,-1003.0,-281.0
6.0,-246.0,-75.0,-18.0,1195.0,258.0,18.0,-1000.0,-281.0
4.0,-245.0,-72.0,-16.0,1190.0,272.0,7.0,-994.0,-278.0
-3.0,-243.0,-70.0,-7.0,1177.0,281.0,1.0,-988.0,-268.0
-2.0,-243.0,-71.0,1.0,1162.0,287.0,-2.0,-978.0,-269.0
-2.0,-239.0,-72.0,13.0,1144.0,294.0,-1.0,-976.0,-270.0
-1.0,-236.0,-71.0,24.0,1130.0,297.0,-2.0,-958.0,-272.0
0.0,-234.0,-71.0,32.0,1117.0,297.0,-2.0,-953.0,-272.0
1.0,-234.0,-71.0,37.0,1104.0,297.0,4.0,-948.0,-269.0
1.0,-231.0,-67.0,41.0,1090.0,294.0,13.0,-942.0,-264.0
1.0,-225.0,-71.0,42.0,1077.0,292.0,21.0,-937.0,-261.0
7.0,-229.0,-67.0,42.0,1065.0,289.0,27.0,-933.0,-249.0
9.0,-228.0,-64.0,46.0,1058.0,289.0,41.0,-936.0,-251.0
8.0,-230.0,-66.0,51.0,1056.0,289.0,47.0,-943.0,-243.0
16.0,-230.0,-63.0,62.0,1058.0,288.0,51.0,-944.0,-236.0
17.0,-232.0,-61.0,74.0,1060.0,291.0,68.0,-951.0,-233.0
18.0,-232.0,-61.0,84.0,1061.0,295.0,71.0,-961.0,-229.0
17.0,-235.0,-60.0,91.0,1055.0,301.0,76.0,-961.0,-219.0
17.0,-237.0,-63.0,95.0,1050.0,309.0,75.0,-958.0,-217.0
20.0,-234.0,-64.0,94.0,1045.0,319.0,78.0,-968.0,-232.0
19.0,-236.0,-62.0,87.0,1044.0,329.0,86.0,-968.0,-237.0
21.0,-241.0,-67.0,76.0,1047.0,341.0,88.0,-964.0,-245.0
23.0,-240.0,-66.0,64.0,1053.0,351.0,82.0,-971.0,-250.0
22.0,-238.0,-66.0,53.0,1058.0,364.0,81.0,-969.0,-255.0
23.0,-239.0,-67.0,41.0,1064.0,371.0,77.0,-976.0,-256.0
24.0,-239.0,-69.0,30.0,1068.0,378.0,84.0,-974.0,-265.0
20.0,-237.0,-73.0,20.0,1073.0,381.0,84.0,-978.0,-273.0
21.0,-241.0,-70.0,8.0,1077.0,384.0,82.0,-979.0,-276.0
25.0,-243.0,-70.0,-6.0,1081.0,385.0,87.0,-982.0,-277.0
20.0,-242.0,-72.0,-20.0,1082.0,383.0,87.0,-982.0,-275.0
23.0,-245.0,-72.0,-32.0,1079.0,379.0,83.0,-988.0,-278.0
22.0,-249.0,-70.0,-41.0,1072.0,375.0,90.0,-992.0,-277.0
16.0,-243.0,-71.0,-47.0,1065.0,370.0,83.0,-1006.0,-278.0
20.0,-250.0,-73.0,-50.0,1056.0,363.0,79.0,-1012.0,-284.0
16.0,-249.0,-74.0,-52.0,1049.0,359.0,69.0,-1023.0,-286.0
16.0,-253.0,-76.0,-52.0,1046.0,354.0,64.0,-1025.0,-287.0
14.0,-255.0,-75.0,-51.0,1046.0,349.0,47.0,-1034.0,-287.0
12.0,-254.0,-77.0,-47.0,1046.0,346.0,49.0,-1033.0,-291.0
18.0,-253.0,-74.0,-36.0,1048.0,341.0,51.0,-1034.0,-279.0
14.0,-254.0,-70.0,-21.0,1050.0,335.0,54.0,-1019.0,-292.0
17.0,-253.0,-76.0,-3.0,1049.0,330.0,62.0,-1019.0,-290.0
18.0,-249.0,-74.0,13.0,1049.0,325.0,64.0,-1010.0,-296.0
19.0,-249.0,-77.0,23.0,1047.0,319.0,66.0,-1001.0,-301.0
14.0,-243.0,-78.0,28.0,1046.0,315.0,66.0,-993.0,-303.0
17.0,-242.0,-81.0,29.0,1044.0,313.0,72.0,-985.0,-309.0
17.0,-241.0,-81.0,26.0,1045.0,311.0,70.0,-981.0,-303.0
16.0,-237.0,-79.0,21.0,1046.0,312.0,69.0,-974.0,-304.0
17.0,-237.0,-78.0,14.0,1044.0,314.0,67.0,-967.0,-300.0
17.0,-236.0,-75.0,9.0,1040.0,317.0,66.0,-971.0,-298.0
16.0,-237.0,-74.0,7.0,1032.0,322.0,64.0,-970.0,-284.0
16.0,-239.0,-74.0,11.0,1022.0,325.0,64.0,-973.0,-277.0
17.0,-239.0,-72.0,19.0,1009.0,329.0,61.0,-969.0,-272.0
15.0,-243.0,-70.0,33.0,998.0,333.0,56.0,-978.0,-264.0
12.0,-248.0,-73.0,49.0,986.0,335.0,48.0,-982.0,-263.0
10.0,-241.0,-68.0,66.0,974.0,336.0,42.0,-981.0,-267.0
9.0,-242.0,-68.0,82.0,958.0,336.0,39.0,-983.0,-260.0
9.0,-242.0,-72.0,92.0,942.0,335.0,35.0,-981.0,-265.0
4.0,-242.0,-70.0,93.0,920.0,334.0,25.0,-974.0,-268.0
2.0,-238.0,-68.0,86.0,894.0,333.0,10.0,-980.0,-271.0
-2.0,-238.0,-71.0,71.0,866.0,330.0,5.0,-968.0,-265.0
-3.0,-238.0,-68.0,60.0,841.0,331.0,-9.0,-966.0,-251.0
-3.0,-239.0,-68.0,53.0,819.0,329.0,-18.0,-972.0,-249.0
-7.0,-235.0,-63.0,55.0,802.0,327.0,-26.0,-965.0,-246.0
-7.0,-236.0,-63.0,60.0,783.0,322.0,-41.0,-957.0,-228.0
-15.0,-235.0,-59.0,64.0,758.0,316.0,-43.0,-959.0,-238.0
-18.0,-230.0,-62.0,61.0,728.0,312.0,-58.0,-947.0,-242.0
-14.0,-231.0,-63.0,49.0,692.0,302.0,-60.0,-948.0,-245.0
-21.0,-228.0,-63.0,37.0,656.0,299.0,-74.0,-942.0,-240.0
-18.0,-231.0,-63.0,25.0,621.0,297.0,-75.0,-948.0,-243.0
-19.0,-232.0,-61.0,18.0,588.0,292.0,-71.0,-950.0,-243.0
-16.0,-235.0,-66.0,13.0,560.0,286.0,-65.0,-962.0,-239.0
-16.0,-239.0,-67.0,4.0,534.0,279.0,-59.0,-977.0,-244.0
-12.0,-242.0,-60.0,-8.0,510.0,268.0,-56.0,-983.0,-251.0
-16.0,-242.0,-67.0,-25.0,486.0,257.0,-53.0,-990.0,-250.0
-9.0,-248.0,-64.0,-42.0,465.0,243.0,-46.0,-998.0,-246.0
-9.0,-252.0,-66.0,-55.0,443.0,230.0,-35.0,-1006.0,-247.0
-4.0,-252.0,-65.0,-59.0,426.0,218.0,-27.0,-1017.0,-248.0
-5.0,-251.0,-62.0,-56.0,413.0,205.0,-14.0,-1019.0,-246.0
-1.0,-251.0,-59.0,-46.0,404.0,194.0,-1.0,-1021.0,-248.0
5.0,-254.0,-69.0,-32.0,400.0,189.0,11.0,-1016.0,-258.0
11.0,-251.0,-70.0,-17.0,400.0,182.0,24.0,-1010.0,-266.0
11.0,-247.0,-70.0,-10.0,406.0,176.0,44.0,-1001.0,-264.0
19.0,-244.0,-74.0,-6.0,414.0,171.0,63.0,-992.0,-272.0
24.0,-244.0,-73.0,-4.0,424.0,166.0,83.0,-989.0,-274.0
26.0,-242.0,-73.0,-6.0,443.0,162.0,102.0,-980.0,-276.0
29.0,-240.0,-72.0,-9.0,466.0,159.0,111.0,-980.0,-278.0
34.0,-239.0,-74.0,-12.0,490.0,154.0,121.0,-980.0,-275.0
35.0,-241.0,-71.0,-18.0,508.0,153.0,118.0,-981.0,-269.0
32.0,-242.0,-72.0,-21.0,521.0,155.0,119.0,-985.0,-275.0
31.0,-243.0,-70.0,-22.0,526.0,160.0,123.0,-985.0,-264.0
30.0,-241.0,-70.0,-14.0,532.0,168.0,110.0,-985.0,-264.0
26.0,-243.0,-70.0,1.0,538.0,181.0,99.0,-987.0,-268.0
24.0,-242.0,-71.0,17.0,548.0,195.0,93.0,-991.0,-262.0
26.0,-248.0,-70.0,31.0,560.0,207.0,84.0,-990.0,-264.0
20.0,-245.0,-72.0,45.0,573.0,220.0,77.0,-990.0,-263.0
20.0,-240.0,-74.0,56.0,583.0,230.0,67.0,-991.0,-265.0
11.0,-244.0,-71.0,66.0,589.0,240.0,56.0,-984.0,-269.0
16.0,-244.0,-64.0,74.0,592.0,249.0,48.0,-984.0,-263.0
9.0,-242.0,-67.0,83.0,594.0,256.0,35.0,-989.0,-262.0
8.0,-244.0,-68.0,95.0,598.0,264.0,29.0,-987.0,-254.0
2.0,-244.0,-66.0,109.0,606.0,269.0,22.0,-988.0,-258.0
4.0,-243.0,-65.0,126.0,615.0,274.0,21.0,-989.0,-255.0
2.0,-242.0,-66.0,141.0,628.0,276.0,14.0,-990.0,-257.0
3.0,-241.0,-70.0,153.0,640.0,280.0,20.0,-982.0,-275.0
8.0,-240.0,-76.0,162.0,652.0,279.0,19.0,-975.0,-282.0
3.0,-235.0,-74.0,163.0,664.0,278.0,22.0,-966.0,-299.0
6.0,-235.0,-77.0,158.0,677.0,274.0,23.0,-966.0,-305.0
5.0,-235.0,-79.0,148.0,693.0,269.0,26.0,-953.0,-310.0
5.0,-234.0,-81.0,139.0,707.0,263.0,27.0,-961.0,-314.0
9.0,-236.0,-76.0,130.0,720.0,255.0,33.0,-960.0,-308.0
6.0,-235.0,-77.0,127.0,733.0,248.0,33.0,-956.0,-302.0
7.0,-237.0,-76.0,126.0,744.0,239.0,35.0,-964.0,-297.0
11.0,-239.0,-70.0,132.0,755.0,233.0,38.0,-968.0,-272.0
11.0,-241.0,-71.0,140.0,767.0,227.0,37.0,-971.0,-273.0
7.0,-237.0,-71.0,149.0,776.0,225.0,39.0,-978.0,-269.0
10.0,-238.0,-70.0,156.0,785.0,223.0,41.0,-977.0,-259.0
8.0,-239.0,-68.0,162.0,792.0,221.0,40.0,-973.0,-266.0
11.0,-242.0,-68.0,165.0,800.0,220.0,37.0,-973.0,-267.0
10.0,-237.0,-71.0,168.0,810.0,222.0,28.0,-976.0,-273.0
10.0,-235.0,-65.0,172.0,818.0,225.0,30.0,-968.0,-280.0
7.0,-236.0,-76.0,173.0,826.0,228.0,24.0,-962.0,-281.0
5.0,-236.0,-71.0,171.0,832.0,229.0,21.0,-954.0,-279.0
0.0,-234.0,-71.0,166.0,835.0,233.0,10.0,-959.0,-275.0
0.0,-235.0,-72.0,157.0,834.0,235.0,-1.0,-952.0,-261.0
-3.0,-233.0,-69.0,147.0,828.0,238.0,-5.0,-958.0,-262.0
-2.0,-234.0,-70.0,137.0,821.0,240.0,-8.0,-956.0,-261.0
-4.0,-237.0,-64.0,127.0,815.0,243.0,-13.0,-960.0,-262.0
-4.0,-233.0,-64.0,118.0,809.0,241.0,-5.0,-961.0,-266.0
-5.0,-233.0,-71.0,109.0,801.0,239.0,-20.0,-950.0,-275.0
-4.0,-233.0,-68.0,100.0,792.0,238.0,-21.0,-951.0,-277.0
-4.0,-231.0,-73.0,93.0,782.0,234.0,-22.0,-950.0,-277.0
-7.0,-232.0,-73.0,86.0,771.0,229.0,-25.0,-948.0,-277.0
-5.0,-233.0,-74.0,79.0,759.0,225.0,-32.0,-949.0,-278.0
-7.0,-232.0,-71.0,71.0,745.0,221.0,-38.0,-950.0,-278.0
-6.0,-234.0,-69.0,64.0,734.0,214.0,-33.0,-954.0,-281.0
-5.0,-236.0,-71.0,58.0,726.0,208.0,-30.0,-963.0,-273.0
-4.0,-239.0,-70.0,54.0,723.0,201.0,-37.0,-966.0,-274.0
-9.0,-241.0,-69.0,51.0,723.0,193.0,-28.0,-976.0,-277.0
-4.0,-243.0,-69.0,51.0,721.0,188.0,-18.0,-979.0,-266.0
-5.0,-239.0,-68.0,55.0,720.0,182.0,-19.0,-980.0,-268.0
-6.0,-243.0,-70.0,62.0,717.0,178.0,-16.0,-979.0,-267.0
-2.0,-240.0,-69.0,68.0,713.0,173.0,-12.0,-981.0,-264.0
-1.0,-241.0,-70.0,72.0,706.0,171.0,-12.0,-974.0,-267.0
-2.0,-238.0,-68.0,74.0,701.0,170.0,-3.0,-975.0,-255.0
0.0,-238.0,-70.0,77.0,696.0,168.0,5.0,-972.0,-258.0
-2.0,-237.0,-69.0,78.0,691.0,169.0,8.0,-971.0,-266.0
2.0,-237.0,-65.0,80.0,688.0,173.0,17.0,-976.0,-257.0
6.0,-239.0,-68.0,83.0,685.0,173.0,24.0,-973.0,-255.0
4.0,-241.0,-70.0,88.0,681.0,176.0,25.0,-971.0,-262.0
3.0,-236.0,-65.0,92.0,676.0,177.0,22.0,-976.0,-264.0
5.0,-239.0,-66.0,93.0,670.0,178.0,18.0,-974.0,-270.0
4.0,-243.0,-64.0,92.0,665.0,178.0,17.0,-973.0,-275.0
3.0,-236.0,-73.0,91.0,661.0,179.0,13.0,-975.0,-278.0
1.0,-237.0,-72.0,86.0,661.0,180.0,12.0,-975.0,-276.0
1.0,-241.0,-72.0,82.0,665.0,180.0,6.0,-970.0,-278.0
-3.0,-241.0,-72.0,79.0,671.0,179.0,-1.0,-975.0,-272.0
-1.0,-244.0,-71.0,77.0,679.0,180.0,-11.0,-986.0,-265.0
-3.0,-246.0,-69.0,81.0,682.0,181.0,-12.0,-991.0,-263.0
-7.0,-244.0,-69.0,87.0,685.0,185.0,-20.0,-1006.0,-258.0
-5.0,-248.0,-70.0,93.0,681.0,189.0,-27.0,-1001.0,-269.0
-7.0,-250.0,-71.0,98.0,671.0,193.0,-31.0,-1015.0,-277.0
-11.0,-251.0,-76.0,99.0,660.0,200.0,-36.0,-1004.0,-292.0
-15.0,-238.0,-76.0,100.0,647.0,207.0,-45.0,-992.0,-303.0
-15.0,-244.0,-80.0,99.0,634.0,213.0,-62.0,-985.0,-310.0
-19.0,-238.0,-80.0,98.0,624.0,219.0,-69.0,-979.0,-316.0
-18.0,-233.0,-80.0,97.0,612.0,222.0,-76.0,-953.0,-315.0
-15.0,-233.0,-79.0,93.0,601.0,222.0,-74.0,-945.0,-319.0
-17.0,-232.0,-78.0,87.0,591.0,219.0,-73.0,-944.0,-314.0
-19.0,-227.0,-77.0,78.0,585.0,213.0,-74.0,-933.0,-310.0
-16.0,-223.0,-78.0,69.0,580.0,205.0,-73.0,-932.0,-314.0
-17.0,-227.0,-77.0,58.0,575.0,197.0,-62.0,-923.0,-308.0
-15.0,-224.0,-78.0,49.0,568.0,187.0,-57.0,-925.0,-310.0
-11.0,-224.0,-80.0,42.0,558.0,180.0,-57.0,-922.0,-305.0
-8.0,-222.0,-84.0,35.0,547.0,172.0,-58.0,-923.0,-314.0
-15.0,-223.0,-76.0,26.0,535.0,166.0,-67.0,-927.0,-309.0
-20.0,-225.0,-77.0,20.0,522.0,160.0,-76.0,-927.0,-311.0
-22.0,-225.0,-78.0,14.0,510.0,156.0,-80.0,-930.0,-311.0
-21.0,-232.0,-75.0,7.0,501.0,153.0,-84.0,-940.0,-309.0
-23.0,-236.0,-77.0,1.0,496.0,150.0,-91.0,-952.0,-301.0
-23.0,-239.0,-78.0,-7.0,496.0,148.0,-97.0,-971.0,-306.0
-26.0,-243.0,-75.0,-14.0,499.0,146.0,-102.0,-985.0,-292.0
-24.0,-249.0,-77.0,-22.0,505.0,145.0,-104.0,-1009.0,-304.0
-27.0,-254.0,-76.0,-24.0,510.0,144.0,-108.0,-1039.0,-300.0
-23.0,-254.0,-75.0,-21.0,514.0,147.0,-107.0,-1048.0,-300.0
-28.0,-261.0,-79.0,-7.0,513.0,147.0,-110.0,-1052.0,-301.0
-27.0,-259.0,-75.0,11.0,511.0,152.0,-106.0,-1059.0,-304.0
-30.0,-257.0,-81.0,34.0,506.0,158.0,-117.0,-1057.0,-317.0
-31.0,-257.0,-80.0,59.0,499.0,166.0,-117.0,-1052.0,-314.0
-30.0,-256.0,-81.0,83.0,493.0,179.0,-120.0,-1042.0,-325.0
-30.0,-250.0,-81.0,104.0,487.0,189.0,-119.0,-1034.0,-317.0
-31.0,-252.0,-78.0,118.0,482.0,200.0,-128.0,-1023.0,-309.0
-34.0,-249.0,-81.0,126.0,474.0,207.0,-124.0,-1023.0,-308.0
-33.0,-257.0,-79.0,127.0,468.0,216.0,-124.0,-1021.0,-305.0
-34.0,-252.0,-76.0,124.0,459.0,223.0,-121.0,-1018.0,-302.0
-31.0,-251.0,-80.0,118.0,451.0,226.0,-124.0,-1024.0,-303.0
-34.0,-251.0,-80.0,115.0,444.0,229.0,-125.0,-1026.0,-307.0
-28.0,-251.0,-79.0,116.0,438.0,230.0,-123.0,-1018.0,-309.0
-30.0,-251.0,-77.0,124.0,432.0,232.0,-118.0,-1020.0,-303.0
-31.0,-248.0,-76.0,137.0,425.0,231.0,-113.0,-1006.0,-299.0
-28.0,-245.0,-73.0,154.0,417.0,229.0,-114.0,-999.0,-298.0
-29.0,-242.0,-74.0,170.0,407.0,226.0,-112.0,-988.0,-293.0
-30.0,-240.0,-74.0,185.0,396.0,223.0,-111.0,-973.0,-282.0
-29.0,-234.0,-75.0,192.0,386.0,220.0,-116.0,-968.0,-288.0
-30.0,-235.0,-68.0,193.0,379.0,217.0,-115.0,-953.0,-291.0
-30.0,-233.0,-72.0,187.0,373.0,213.0,-120.0,-950.0,-284.0
-33.0,-233.0,-70.0,175.0,372.0,209.0,-117.0,-945.0,-290.0
-27.0,-231.0,-73.0,159.0,376.0,205.0,-118.0,-942.0,-286.0
-26.0,-232.0,-73.0,144.0,384.0,198.0,-109.0,-942.0,-282.0
-24.0,-230.0,-72.0,130.0,394.0,194.0,-95.0,-942.0,-278.0
-25.0,-228.0,-69.0,117.0,406.0,187.0,-93.0,-940.0,-273.0
-19.0,-232.0,-66.0,105.0,418.0,183.0,-79.0,-947.0,-264.0
-15.0,-234.0,-69.0,96.0,431.0,177.0,-58.0,-943.0,-265.0
-12.0,-232.0,-61.0,88.0,442.0,171.0,-51.0,-947.0,-253.0
-9.0,-235.0,-67.0,83.0,453.0,166.0,-39.0,-958.0,-249.0
-7.0,-233.0,-65.0,80.0,465.0,159.0,-37.0,-957.0,-248.0
-7.0,-238.0,-59.0,82.0,478.0,153.0,-28.0,-963.0,-244.0
-6.0,-237.0,-65.0,84.0,490.0,147.0,-25.0,-968.0,-240.0
-4.0,-240.0,-66.0,87.0,502.0,141.0,-24.0,-969.0,-242.0
-5.0,-240.0,-65.0,88.0,511.0,133.0,-19.0,-974.0,-238.0
-6.0,-237.0,-60.0,87.0,521.0,129.0,-22.0,-972.0,-240.0
-4.0,-238.0,-62.0,84.0,532.0,128.0,-26.0,-976.0,-240.0
-5.0,-239.0,-66.0,81.0,542.0,123.0,-32.0,-968.0,-245.0
-11.0,-238.0,-63.0,79.0,551.0,121.0,-39.0,-973.0,-247.0
-10.0,-241.0,-64.0,75.0,554.0,122.0,-47.0,-973.0,-247.0
-13.0,-240.0,-70.0,67.0,554.0,123.0,-62.0,-975.0,-259.0
-16.0,-243.0,-70.0,60.0,549.0,128.0,-63.0,-980.0,-261.0
-19.0,-241.0,-69.0,47.0,543.0,133.0,-76.0,-983.0,-266.0
-22.0,-244.0,-61.0,35.0,535.0,139.0,-80.0,-990.0,-265.0
-23.0,-248.0,-67.0,25.0,528.0,145.0,-95.0,-1000.0,-258.0
-26.0,-249.0,-64.0,20.0,520.0,154.0,-94.0,-1006.0,-249.0
-22.0,-251.0,-64.0,21.0,514.0,160.0,-103.0,-1021.0,-242.0
-27.0,-255.0,-60.0,28.0,507.0,164.0,-104.0,-1031.0,-237.0
-30.0,-255.0,-57.0,42.0,497.0,169.0,-120.0,-1046.0,-218.0
-30.0,-257.0,-61.0,60.0,484.0,174.0,-114.0,-1055.0,-222.0
-29.0,-258.0,-61.0,80.0,464.0,178.0,-119.0,-1055.0,-238.0
-33.0,-254.0,-67.0,94.0,444.0,182.0,-126.0,-1053.0,-253.0
-33.0,-256.0,-71.0,96.0,427.0,190.0,-137.0,-1034.0,-270.0
-32.0,-253.0,-71.0,92.0,414.0,198.0,-128.0,-1022.0,-278.0
-28.0,-251.0,-63.0,86.0,409.0,204.0,-119.0,-1008.0,-280.0
-24.0,-249.0,-69.0,86.0,408.0,204.0,-108.0,-1002.0,-261.0
-23.0,-247.0,-61.0,97.0,414.0,203.0,-96.0,-999.0,-240.0
-17.0,-248.0,-54.0,117.0,420.0,197.0,-75.0,-996.0,-203.0
-13.0,-245.0,-45.0,149.0,431.0,188.0,-62.0,-999.0,-177.0
-8.0,-248.0,-45.0,186.0,441.0,174.0,-42.0,-992.0,-152.0
-4.0,-241.0,-40.0,219.0,453.0,160.0,-27.0,-986.0,-160.0
-6.0,-237.0,-43.0,244.0,463.0,146.0,-22.0,-978.0,-163.0
-3.0,-238.0,-47.0,257.0,471.0,134.0,-23.0,-977.0,-166.0
-6.0,-236.0,-49.0,260.0,474.0,124.0,-20.0,-962.0,-175.0
-6.0,-233.0,-50.0,255.0,474.0,114.0,-21.0,-965.0,-182.0
-9.0,-240.0,-47.0,248.0,471.0,104.0,-26.0,-956.0,-182.0
-5.0,-235.0,-51.0,240.0,468.0,93.0,-33.0,-958.0,-186.0
-8.0,-234.0,-47.0,235.0,465.0,81.0,-37.0,-954.0,-177.0
-12.0,-234.0,-49.0,232.0,462.0,67.0,-47.0,-951.0,-181.0
-15.0,-232.0,-50.0,227.0,459.0,55.0,-63.0,-951.0,-184.0
-18.0,-228.0,-53.0,219.0,459.0,44.0,-82.0,-942.0,-194.0
-22.0,-228.0,-51.0,204.0,463.0,32.0,-94.0,-941.0,-202.0
-25.0,-229.0,-58.0,182.0,469.0,24.0,-110.0,-940.0,-216.0
-29.0,-233.0,-59.0,153.0,475.0,15.0,-124.0,-940.0,-224.0
-34.0,-232.0,-63.0,120.0,475.0,11.0,-141.0,-945.0,-236.0
-42.0,-236.0,-67.0,86.0,467.0,7.0,-157.0,-943.0,-244.0
-47.0,-232.0,-67.0,54.0,451.0,6.0,-174.0,-953.0,-252.0
-52.0,-238.0,-65.0,25.0,428.0,8.0,-193.0,-965.0,-255.0
-48.0,-237.0,-70.0,2.0,405.0,11.0,-204.0,-978.0,-264.0
-51.0,-245.0,-71.0,-14.0,384.0,16.0,-199.0,-984.0,-257.0
-52.0,-246.0,-70.0,-24.0,366.0,20.0,-204.0,-991.0,-265.0
-50.0,-249.0,-67.0,-33.0,352.0,24.0,-200.0,-1007.0,-262.0
-49.0,-250.0,-65.0,-39.0,335.0,29.0,-191.0,-1014.0,-264.0
-45.0,-254.0,-68.0,-41.0,313.0,31.0,-177.0,-1030.0,-258.0
-41.0,-250.0,-70.0,-39.0,288.0,32.0,-160.0,-1041.0,-264.0
-36.0,-256.0,-67.0,-27.0,259.0,33.0,-142.0,-1043.0,-249.0
-27.0,-255.0,-65.0,-6.0,224.0,35.0,-121.0,-1041.0,-250.0
-27.0,-256.0,-66.0,27.0,187.0,34.0,-109.0,-1045.0,-251.0
-24.0,-253.0,-66.0,64.0,152.0,33.0,-95.0,-1030.0,-254.0
-19.0,-252.0,-65.0,97.0,118.0,35.0,-74.0,-1011.0,-257.0
-15.0,-250.0,-67.0,121.0,86.0,37.0,-57.0,-999.0,-261.0
-12.0,-245.0,-70.0,140.0,62.0,37.0,-43.0,-988.0,-257.0
-5.0,-239.0,-73.0,149.0,43.0,33.0,-30.0,-974.0,-267.0
-9.0,-232.0,-68.0,153.0,31.0,29.0,-23.0,-949.0,-278.0
-5.0,-228.0,-74.0,152.0,29.0,26.0,-28.0,-939.0,-280.0
-10.0,-225.0,-75.0,143.0,31.0,20.0,-30.0,-922.0,-290.0
-6.0,-225.0,-72.0,132.0,37.0,14.0,-22.0,-912.0,-282.0
-5.0,-216.0,-69.0,115.0,49.0,8.0,-21.0,-907.0,-280.0
-4.0,-220.0,-72.0,91.0,64.0,0.0,-22.0,-910.0,-276.0
-4.0,-223.0,-71.0,65.0,81.0,-7.0,-20.0,-920.0,-269.0
-4.0,-224.0,-70.0,43.0,100.0,-12.0,-18.0,-925.0,-261.0
-3.0,-233.0,-67.0,27.0,119.0,-19.0,-20.0,-955.0,-249.0
-3.0,-240.0,-64.0,21.0,137.0,-26.0,-17.0,-977.0,-234.0
-1.0,-245.0,-59.0,27.0,157.0,-33.0,-14.0,-989.0,-222.0
1.0,-250.0,-57.0,43.0,178.0,-38.0,-6.0,-1007.0,-222.0
-3.0,-253.0,-58.0,64.0,201.0,-42.0,-11.0,-1018.0,-214.0
0.0,-254.0,-57.0,88.0,220.0,-48.0,2.0,-1027.0,-216.0
1.0,-249.0,-65.0,113.0,236.0,-48.0,8.0,-1023.0,-226.0
-2.0,-250.0,-59.0,133.0,248.0,-50.0,7.0,-1020.0,-232.0
3.0,-249.0,-64.0,146.0,255.0,-47.0,8.0,-1008.0,-240.0
2.0,-245.0,-63.0,152.0,256.0,-44.0,2.0,-1002.0,-243.0
-3.0,-241.0,-66.0,148.0,251.0,-38.0,4.0,-990.0,-248.0
-1.0,-240.0,-68.0,136.0,240.0,-29.0,-1.0,-983.0,-250.0
-2.0,-237.0,-70.0,119.0,226.0,-21.0,0.0,-975.0,-264.0
-3.0,-234.0,-68.0,98.0,214.0,-11.0,0.0,-967.0,-268.0
-1.0,-236.0,-71.0,78.0,204.0,-1.0,-3.0,-957.0,-277.0
-2.0,-235.0,-74.0,58.0,199.0,7.0,-8.0,-953.0,-279.0
-3.0,-233.0,-75.0,37.0,200.0,14.0,-3.0,-949.0,-281.0
-3.0,-233.0,-75.0,17.0,207.0,18.0,-14.0,-953.0,-285.0
-6.0,-235.0,-74.0,0.0,216.0,21.0,-13.0,-961.0,-279.0
-3.0,-240.0,-68.0,-11.0,226.0,22.0,-23.0,-965.0,-274.0
-4.0,-241.0,-71.0,-16.0,236.0,23.0,-22.0,-977.0,-269.0
-6.0,-244.0,-70.0,-11.0,242.0,21.0,-29.0,-986.0,-260.0
-7.0,-243.0,-67.0,0.0,246.0,18.0,-30.0,-989.0,-252.0
-7.0,-248.0,-67.0,14.0,247.0,17.0,-42.0,-1005.0,-247.0
-8.0,-249.0,-66.0,32.0,244.0,12.0,-37.0,-1004.0,-245.0
-9.0,-248.0,-64.0,50.0,241.0,9.0,-40.0,-1004.0,-250.0
-12.0,-247.0,-61.0,66.0,237.0,6.0,-56.0,-997.0,-244.0
-12.0,-247.0,-59.0,80.0,233.0,3.0,-45.0,-994.0,-243.0
-10.0,-244.0,-66.0,95.0,229.0,-1.0,-51.0,-998.0,-241.0
-14.0,-240.0,-64.0,108.0,223.0,-5.0,-53.0,-989.0,-242.0
-14.0,-242.0,-63.0,120.0,215.0,-10.0,-55.0,-988.0,-236.0
-15.0,-241.0,-61.0,131.0,205.0,-14.0,-58.0,-983.0,-243.0
-16.0,-241.0,-61.0,139.0,192.0,-17.0,-69.0,-979.0,-238.0
-19.0,-239.0,-63.0,143.0,179.0,-16.0,-71.0,-981.0,-244.0
-18.0,-239.0,-58.0,143.0,161.0,-15.0,-69.0,-973.0,-242.0
-18.0,-239.0,-62.0,137.0,144.0,-14.0,-67.0,-972.0,-232.0
-19.0,-240.0,-56.0,129.0,127.0,-12.0,-68.0,-970.0,-232.0
-17.0,-240.0,-61.0,118.0,110.0,-8.0,-65.0,-980.0,-229.0
-18.0,-239.0,-60.0,107.0,93.0,-5.0,-59.0,-983.0,-230.0
-13.0,-237.0,-64.0,97.0,79.0,-1.0,-58.0,-979.0,-222.0
-13.0,-241.0,-59.0,87.0,67.0,0.0,-53.0,-978.0,-223.0
-13.0,-239.0,-55.0,81.0,56.0,0.0,-51.0,-981.0,-231.0
-6.0,-242.0,-59.0,74.0,46.0,-1.0,-38.0,-987.0,-238.0
-7.0,-238.0,-61.0,68.0,38.0,-4.0,-32.0,-988.0,-237.0
-4.0,-241.0,-66.0,63.0,33.0,-6.0,-31.0,-989.0,-250.0
-9.0,-243.0,-68.0,55.0,29.0,-7.0,-27.0,-989.0,-241.0
-8.0,-242.0,-65.0,48.0,24.0,-9.0,-31.0,-985.0,-244.0
-4.0,-245.0,-65.0,41.0,18.0,-12.0,-23.0,-986.0,-251.0
-5.0,-241.0,-64.0,34.0,10.0,-14.0,-28.0,-986.0,-255.0
-4.0,-242.0,-66.0,30.0,-1.0,-15.0,-21.0,-981.0,-256.0
-6.0,-249.0,-57.0,27.0,-9.0,-17.0,-16.0,-982.0,-244.0
-4.0,-244.0,-65.0,28.0,-15.0,-18.0,-19.0,-985.0,-244.0
-4.0,-243.0,-69.0,31.0,-20.0,-19.0,-13.0,-986.0,-239.0
-4.0,-244.0,-62.0,35.0,-18.0,-21.0,-9.0,-989.0,-237.0
0.0,-243.0,-64.0,40.0,-11.0,-23.0,-5.0,-987.0,-231.0
0.0,-241.0,-60.0,47.0,0.0,-25.0,5.0,-989.0,-239.0
0.0,-243.0,-61.0,56.0,11.0,-26.0,2.0,-988.0,-229.0
-2.0,-241.0,-63.0,64.0,22.0,-26.0,0.0,-982.0,-223.0
-2.0,-241.0,-61.0,72.0,29.0,-29.0,-2.0,-984.0,-224.0
-1.0,-243.0,-57.0,79.0,31.0,-25.0,0.0,-984.0,-222.0
-2.0,-242.0,-55.0,84.0,30.0,-23.0,-9.0,-988.0,-212.0
-6.0,-240.0,-57.0,86.0,28.0,-20.0,-17.0,-982.0,-214.0
-2.0,-244.0,-56.0,84.0,22.0,-16.0,-15.0,-981.0,-217.0
-6.0,-234.0,-55.0,75.0,16.0,-14.0,-27.0,-983.0,-204.0
-5.0,-241.0,-53.0,62.0,8.0,-10.0,-31.0,-981.0,-210.0
-6.0,-240.0,-56.0,48.0,1.0,-7.0,-29.0,-983.0,-210.0
-9.0,-243.0,-55.0,38.0,-3.0,-4.0,-35.0,-983.0,-210.0
-8.0,-239.0,-58.0,33.0,-8.0,-3.0,-36.0,-981.0,-209.0
-7.0,-241.0,-57.0,32.0,-12.0,-3.0,-31.0,-987.0,-219.0
-4.0,-245.0,-62.0,34.0,-15.0,-2.0,-27.0,-988.0,-224.0
-4.0,-244.0,-61.0,37.0,-19.0,-2.0,-29.0,-990.0,-221.0
-4.0,-241.0,-58.0,39.0,-19.0,-4.0,-25.0,-994.0,-240.0
-10.0,-243.0,-58.0,42.0,-17.0,-5.0,-31.0,-991.0,-241.0
-4.0,-244.0,-63.0,44.0,-13.0,-6.0,-33.0,-998.0,-241.0
-6.0,-242.0,-62.0,47.0,-11.0,-5.0,-33.0,-989.0,-240.0
-7.0,-242.0,-58.0,50.0,-9.0,-6.0,-32.0,-990.0,-233.0
-4.0,-241.0,-59.0,52.0,-9.0,-6.0,-28.0,-981.0,-225.0
-5.0,-242.0,-61.0,52.0,-9.0,-4.0,-24.0,-987.0,-231.0
-4.0,-241.0,-61.0,54.0,-8.0,-6.0,-21.0,-985.0,-223.0
-5.0,-242.0,-56.0,53.0,-6.0,-7.0,-20.0,-987.0,-220.0
-3.0,-243.0,-64.0,54.0,-5.0,-6.0,-11.0,-984.0,-219.0
-1.0,-240.0,-58.0,56.0,-3.0,-8.0,-11.0,-980.0,-224.0
0.0,-240.0,-62.0,59.0,-2.0,-8.0,-6.0,-980.0,-228.0
-1.0,-230.0,-64.0,60.0,-3.0,-7.0,-6.0,-975.0,-226.0
-2.0,-238.0,-62.0,57.0,-6.0,-5.0,-9.0,-977.0,-230.0
-2.0,-239.0,-61.0,52.0,-12.0,-3.0,-15.0,-974.0,-228.0
-4.0,-237.0,-61.0,47.0,-18.0,0.0,-15.0,-973.0,-222.0
-4.0,-235.0,-58.0,41.0,-22.0,5.0,-16.0,-972.0,-219.0
-4.0,-241.0,-59.0,37.0,-24.0,8.0,-23.0,-979.0,-216.0
-8.0,-238.0,-58.0,36.0,-26.0,7.0,-28.0,-983.0,-215.0
-9.0,-237.0,-52.0,35.0,-29.0,7.0,-37.0,-990.0,-212.0
-11.0,-238.0,-56.0,33.0,-35.0,5.0,-39.0,-985.0,-209.0
-6.0,-242.0,-54.0,30.0,-45.0,4.0,-41.0,-986.0,-209.0
-11.0,-243.0,-56.0,26.0,-58.0,0.0,-43.0,-995.0,-202.0
-15.0,-238.0,-56.0,22.0,-72.0,-3.0,-46.0,-985.0,-204.0
-14.0,-241.0,-53.0,17.0,-86.0,-4.0,-59.0,-986.0,-201.0
-17.0,-243.0,-56.0,13.0,-99.0,-3.0,-61.0,-986.0,-196.0
-17.0,-243.0,-52.0,13.0,-111.0,-4.0,-70.0,-986.0,-197.0
-18.0,-245.0,-51.0,10.0,-124.0,-6.0,-78.0,-992.0,-197.0
-20.0,-243.0,-54.0,7.0,-139.0,-7.0,-91.0,-988.0,-199.0
-22.0,-242.0,-53.0,1.0,-158.0,-7.0,-87.0,-989.0,-206.0
-22.0,-242.0,-55.0,-8.0,-176.0,-10.0,-92.0,-993.0,-204.0
-21.0,-242.0,-54.0,-18.0,-196.0,-11.0,-92.0,-985.0,-207.0
-23.0,-240.0,-56.0,-28.0,-211.0,-12.0,-93.0,-983.0,-207.0
-23.0,-240.0,-54.0,-36.0,-223.0,-13.0,-104.0,-981.0,-208.0
-24.0,-240.0,-59.0,-40.0,-231.0,-14.0,-100.0,-978.0,-210.0
-24.0,-239.0,-53.0,-44.0,-237.0,-16.0,-103.0,-979.0,-206.0
-22.0,-237.0,-53.0,-47.0,-240.0,-17.0,-99.0,-976.0,-207.0
-22.0,-239.0,-52.0,-48.0,-244.0,-22.0,-95.0,-971.0,-210.0
-22.0,-241.0,-55.0,-51.0,-248.0,-30.0,-91.0,-980.0,-210.0
-23.0,-242.0,-57.0,-57.0,-250.0,-33.0,-88.0,-979.0,-218.0
-24.0,-237.0,-57.0,-63.0,-251.0,-38.0,-89.0,-981.0,-215.0
-21.0,-241.0,-55.0,-71.0,-249.0,-41.0,-83.0,-979.0,-217.0
-19.0,-241.0,-61.0,-78.0,-245.0,-46.0,-77.0,-980.0,-224.0
-20.0,-240.0,-59.0,-81.0,-238.0,-47.0,-73.0,-981.0,-229.0
-16.0,-245.0,-61.0,-83.0,-234.0,-51.0,-65.0,-984.0,-231.0
-15.0,-247.0,-63.0,-82.0,-230.0,-52.0,-61.0,-987.0,-229.0
-9.0,-244.0,-61.0,-79.0,-225.0,-53.0,-53.0,-997.0,-225.0
-9.0,-246.0,-65.0,-72.0,-218.0,-54.0,-50.0,-998.0,-232.0
-7.0,-244.0,-60.0,-65.0,-212.0,-58.0,-42.0,-999.0,-241.0
-9.0,-246.0,-61.0,-58.0,-207.0,-56.0,-34.0,-1000.0,-239.0
-7.0,-246.0,-64.0,-49.0,-199.0,-52.0,-34.0,-1004.0,-247.0
-4.0,-246.0,-64.0,-39.0,-196.0,-50.0,-25.0,-1005.0,-251.0
-8.0,-247.0,-66.0,-29.0,-190.0,-47.0,-20.0,-999.0,-249.0
-5.0,-247.0,-70.0,-23.0,-189.0,-43.0,-13.0,-995.0,-257.0
-3.0,-249.0,-69.0,-21.0,-186.0,-41.0,-9.0,-1005.0,-254.0
-4.0,-237.0,-71.0,-20.0,-183.0,-36.0,-7.0,-996.0,-259.0
-2.0,-244.0,-70.0,-19.0,-178.0,-32.0,-3.0,-994.0,-262.0
0.0,-245.0,-66.0,-17.0,-173.0,-29.0,1.0,-996.0,-262.0
2.0,-243.0,-68.0,-16.0,-168.0,-29.0,4.0,-995.0,-269.0
1.0,-246.0,-70.0,-15.0,-163.0,-22.0,10.0,-989.0,-275.0
6.0,-244.0,-70.0,-15.0,-157.0,-20.0,11.0,-986.0,-274.0
3.0,-244.0,-71.0,-14.0,-149.0,-15.0,11.0,-988.0,-278.0
7.0,-242.0,-68.0,-10.0,-138.0,-10.0,11.0,-990.0,-278.0
-2.0,-244.0,-73.0,-5.0,-126.0,-7.0,9.0,-987.0,-277.0
3.0,-245.0,-71.0,0.0,-114.0,-3.0,6.0,-994.0,-273.0
1.0,-244.0,-73.0,7.0,-99.0,2.0,0.0,-991.0,-276.0
0.0,-244.0,-68.0,14.0,-84.0,4.0,0.0,-986.0,-270.0
-1.0,-242.0,-73.0,18.0,-69.0,5.0,-2.0,-988.0,-275.0
-1.0,-242.0,-72.0,21.0,-53.0,8.0,0.0,-982.0,-275.0
2.0,-241.0,-72.0,20.0,-40.0,9.0,0.0,-979.0,-283.0
3.0,-239.0,-72.0,20.0,-26.0,11.0,7.0,-981.0,-278.0
1.0,-241.0,-75.0,16.0,-14.0,10.0,9.0,-979.0,-279.0
3.0,-240.0,-72.0,13.0,-1.0,12.0,5.0,-977.0,-280.0
1.0,-238.0,-72.0,11.0,8.0,12.0,2.0,-973.0,-277.0
-1.0,-238.0,-73.0,9.0,17.0,13.0,-3.0,-978.0,-271.0
-1.0,-240.0,-70.0,8.0,25.0,14.0,-2.0,-982.0,-267.0
-2.0,-241.0,-72.0,3.0,34.0,15.0,-3.0,-981.0,-268.0
-3.0,-240.0,-70.0,-1.0,41.0,14.0,-3.0,-984.0,-271.0
-3.0,-242.0,-73.0,-7.0,47.0,13.0,-7.0,-988.0,-272.0
-4.0,-242.0,-74.0,-15.0,53.0,15.0,-4.0,-983.0,-280.0
-3.0,-240.0,-77.0,-25.0,56.0,15.0,-17.0,-984.0,-286.0
-4.0,-236.0,-76.0,-36.0,58.0,14.0,-11.0,-978.0,-299.0
-4.0,-240.0,-76.0,-48.0,58.0,16.0,-14.0,-979.0,-311.0
-4.0,-236.0,-80.0,-64.0,57.0,18.0,-16.0,-970.0,-314.0
-3.0,-237.0,-77.0,-81.0,56.0,19.0,-15.0,-963.0,-313.0
-4.0,-239.0,-78.0,-95.0,58.0,19.0,-22.0,-965.0,-305.0
-5.0,-236.0,-73.0,-106.0,59.0,21.0,-23.0,-971.0,-290.0
-8.0,-235.0,-72.0,-110.0,62.0,23.0,-26.0,-974.0,-283.0
-15.0,-237.0,-72.0,-107.0,65.0,22.0,-35.0,-975.0,-271.0
-7.0,-240.0,-69.0,-100.0,69.0,22.0,-26.0,-978.0,-271.0
-6.0,-242.0,-71.0,-88.0,73.0,21.0,-35.0,-981.0,-265.0
-5.0,-242.0,-68.0,-76.0,77.0,21.0,-34.0,-984.0,-259.0
-8.0,-241.0,-65.0,-63.0,84.0,20.0,-36.0,-982.0,-256.0
-8.0,-242.0,-69.0,-55.0,93.0,20.0,-37.0,-985.0,-267.0
-8.0,-242.0,-68.0,-48.0,102.0,19.0,-36.0,-981.0,-268.0
-11.0,-244.0,-69.0,-41.0,108.0,20.0,-36.0,-983.0,-265.0
-10.0,-243.0,-68.0,-32.0,115.0,18.0,-38.0,-985.0,-262.0
-13.0,-242.0,-67.0,-22.0,119.0,18.0,-43.0,-982.0,-271.0
-15.0,-239.0,-68.0,-13.0,123.0,15.0,-44.0,-985.0,-267.0
-13.0,-242.0,-69.0,-5.0,127.0,14.0,-52.0,-979.0,-262.0
-10.0,-245.0,-69.0,-2.0,131.0,11.0,-54.0,-980.0,-264.0
-13.0,-240.0,-67.0,-4.0,136.0,10.0,-58.0,-982.0,-266.0
-12.0,-239.0,-69.0,-11.0,145.0,11.0,-59.0,-983.0,-269.0
-13.0,-240.0,-71.0,-20.0,152.0,10.0,-58.0,-988.0,-270.0
-16.0,-242.0,-71.0,-27.0,157.0,9.0,-65.0,-982.0,-274.0
-17.0,-242.0,-70.0,-30.0,161.0,11.0,-71.0,-987.0,-279.0
-15.0,-244.0,-70.0,-29.0,162.0,10.0,-74.0,-988.0,-274.0
