acc1_x,acc1_y,acc1_z,gyro_x,gyro_y,gyro_z,acc2_x,acc2_y,acc2_z
23.0,-67.0,226.0,29.0,21.0,-11.0,54.0,-288.0,943.0
21.0,-66.0,230.0,30.0,19.0,-13.0,57.0,-289.0,944.0
26.0,-69.0,234.0,31.0,20.0,-13.0,57.0,-286.0,951.0
22.0,-66.0,227.0,32.0,20.0,-13.0,61.0,-286.0,949.0
23.0,-69.0,230.0,32.0,21.0,-13.0,53.0,-291.0,946.0
24.0,-66.0,228.0,32.0,21.0,-13.0,57.0,-290.0,943.0
25.0,-71.0,228.0,32.0,21.0,-13.0,60.0,-285.0,941.0
26.0,-68.0,233.0,32.0,21.0,-11.0,60.0,-296.0,946.0
21.0,-71.0,230.0,31.0,20.0,-13.0,61.0,-290.0,947.0
20.0,-66.0,227.0,31.0,20.0,-12.0,60.0,-303.0,942.0
23.0,-68.0,228.0,32.0,20.0,-11.0,61.0,-299.0,948.0
28.0,-71.0,230.0,34.0,19.0,-9.0,56.0,-300.0,946.0
22.0,-68.0,232.0,34.0,19.0,-10.0,52.0,-296.0,944.0
22.0,-72.0,229.0,35.0,20.0,-10.0,60.0,-294.0,943.0
24.0,-76.0,231.0,36.0,20.0,-10.0,63.0,-301.0,944.0
21.0,-66.0,231.0,36.0,20.0,-9.0,59.0,-293.0,946.0
26.0,-69.0,229.0,37.0,20.0,-8.0,59.0,-294.0,946.0
25.0,-72.0,229.0,36.0,21.0,-9.0,63.0,-299.0,942.0
23.0,-67.0,228.0,37.0,22.0,-8.0,65.0,-290.0,939.0
23.0,-68.0,228.0,35.0,23.0,-8.0,58.0,-295.0,941.0
22.0,-70.0,231.0,34.0,24.0,-7.0,57.0,-300.0,954.0
22.0,-70.0,230.0,32.0,23.0,-6.0,59.0,-301.0,948.0
24.0,-73.0,232.0,30.0,21.0,-7.0,58.0,-302.0,948.0
22.0,-71.0,232.0,30.0,22.0,-7.0,61.0,-291.0,943.0
21.0,-67.0,232.0,29.0,20.0,-6.0,55.0,-296.0,946.0
24.0,-69.0,228.0,29.0,20.0,-6.0,61.0,-300.0,947.0
17.0,-65.0,222.0,30.0,19.0,-8.0,63.0,-296.0,949.0
23.0,-68.0,229.0,31.0,17.0,-8.0,57.0,-294.0,947.0
25.0,-71.0,232.0,33.0,17.0,-7.0,59.0,-289.0,944.0
23.0,-67.0,226.0,36.0,18.0,-6.0,52.0,-292.0,941.0
23.0,-71.0,228.0,38.0,17.0,-7.0,53.0,-294.0,945.0
21.0,-66.0,233.0,39.0,17.0,-7.0,54.0,-292.0,941.0
22.0,-67.0,228.0,41.0,16.0,-9.0,51.0,-295.0,947.0
22.0,-69.0,229.0,42.0,15.0,-7.0,47.0,-295.0,942.0
21.0,-72.0,227.0,43.0,14.0,-8.0,53.0,-292.0,941.0
21.0,-74.0,227.0,42.0,13.0,-7.0,55.0,-295.0,941.0
18.0,-68.0,230.0,36.0,13.0,-8.0,48.0,-298.0,942.0
24.0,-75.0,235.0,31.0,13.0,-8.0,50.0,-295.0,942.0
18.0,-69.0,229.0,28.0,14.0,-9.0,49.0,-307.0,945.0
21.0,-69.0,233.0,24.0,17.0,-9.0,54.0,-307.0,944.0
20.0,-73.0,231.0,21.0,19.0,-9.0,52.0,-310.0,950.0
21.0,-71.0,230.0,21.0,21.0,-10.0,51.0,-311.0,944.0
22.0,-71.0,231.0,24.0,23.0,-13.0,56.0,-311.0,951.0
23.0,-73.0,230.0,30.0,24.0,-13.0,53.0,-310.0,943.0
20.0,-76.0,228.0,39.0,23.0,-13.0,54.0,-308.0,941.0
25.0,-74.0,229.0,50.0,24.0,-14.0,48.0,-305.0,943.0
20.0,-73.0,230.0,63.0,23.0,-15.0,55.0,-307.0,943.0
23.0,-68.0,228.0,73.0,21.0,-17.0,53.0,-306.0,939.0
24.0,-71.0,233.0,82.0,21.0,-18.0,57.0,-305.0,939.0
23.0,-68.0,226.0,87.0,21.0,-16.0,58.0,-292.0,942.0
23.0,-68.0,231.0,89.0,20.0,-15.0,57.0,-292.0,943.0
22.0,-65.0,229.0,89.0,22.0,-14.0,61.0,-291.0,939.0
25.0,-67.0,225.0,86.0,22.0,-13.0,65.0,-288.0,939.0
25.0,-68.0,228.0,83.0,23.0,-14.0,59.0,-283.0,940.0
23.0,-67.0,227.0,78.0,24.0,-14.0,55.0,-285.0,944.0
22.0,-65.0,229.0,72.0,26.0,-13.0,54.0,-286.0,943.0
23.0,-65.0,231.0,66.0,25.0,-13.0,56.0,-289.0,948.0
22.0,-66.0,227.0,60.0,25.0,-12.0,47.0,-290.0,943.0
21.0,-65.0,227.0,56.0,24.0,-11.0,62.0,-284.0,946.0
21.0,-66.0,236.0,56.0,22.0,-10.0,60.0,-285.0,945.0
23.0,-67.0,232.0,54.0,20.0,-9.0,58.0,-283.0,944.0
22.0,-67.0,225.0,55.0,19.0,-10.0,57.0,-287.0,945.0
21.0,-66.0,226.0,57.0,16.0,-8.0,53.0,-288.0,942.0
24.0,-68.0,228.0,58.0,15.0,-10.0,59.0,-287.0,944.0
21.0,-65.0,230.0,61.0,14.0,-11.0,61.0,-299.0,942.0
25.0,-68.0,226.0,62.0,13.0,-10.0,62.0,-295.0,939.0
21.0,-67.0,228.0,63.0,13.0,-10.0,52.0,-297.0,947.0
22.0,-69.0,228.0,65.0,13.0,-11.0,64.0,-289.0,939.0
28.0,-70.0,228.0,65.0,15.0,-11.0,54.0,-292.0,942.0
20.0,-67.0,230.0,64.0,13.0,-11.0,55.0,-292.0,947.0
20.0,-69.0,221.0,62.0,13.0,-10.0,61.0,-284.0,942.0
21.0,-67.0,228.0,62.0,13.0,-10.0,52.0,-288.0,945.0
20.0,-67.0,226.0,60.0,13.0,-9.0,52.0,-288.0,945.0
22.0,-68.0,228.0,57.0,10.0,-10.0,60.0,-290.0,946.0
21.0,-66.0,229.0,54.0,11.0,-10.0,48.0,-295.0,938.0
26.0,-70.0,232.0,52.0,9.0,-10.0,51.0,-289.0,942.0
19.0,-68.0,230.0,51.0,10.0,-9.0,55.0,-295.0,946.0
21.0,-68.0,226.0,49.0,10.0,-10.0,49.0,-300.0,943.0
21.0,-68.0,230.0,51.0,10.0,-9.0,49.0,-301.0,946.0
22.0,-69.0,229.0,51.0,11.0,-10.0,51.0,-302.0,941.0
21.0,-70.0,226.0,55.0,11.0,-10.0,52.0,-301.0,943.0
20.0,-67.0,226.0,59.0,9.0,-10.0,49.0,-305.0,940.0
22.0,-71.0,228.0,64.0,6.0,-13.0,50.0,-298.0,941.0
19.0,-67.0,231.0,68.0,6.0,-12.0,48.0,-301.0,952.0
23.0,-72.0,230.0,73.0,5.0,-14.0,53.0,-287.0,940.0
20.0,-70.0,229.0,76.0,5.0,-13.0,53.0,-296.0,944.0
21.0,-69.0,231.0,79.0,4.0,-13.0,49.0,-291.0,943.0
22.0,-69.0,229.0,79.0,3.0,-13.0,53.0,-295.0,940.0
24.0,-68.0,228.0,78.0,4.0,-15.0,59.0,-292.0,946.0
22.0,-69.0,229.0,73.0,5.0,-15.0,52.0,-288.0,942.0
23.0,-70.0,232.0,70.0,7.0,-14.0,56.0,-292.0,945.0
23.0,-68.0,233.0,65.0,9.0,-12.0,55.0,-293.0,948.0
17.0,-65.0,231.0,61.0,11.0,-12.0,59.0,-296.0,944.0
22.0,-66.0,231.0,57.0,11.0,-11.0,60.0,-298.0,950.0
21.0,-70.0,226.0,54.0,14.0,-10.0,58.0,-295.0,947.0
20.0,-72.0,226.0,53.0,14.0,-11.0,54.0,-295.0,942.0
21.0,-70.0,229.0,52.0,13.0,-10.0,51.0,-291.0,946.0
21.0,-71.0,229.0,52.0,12.0,-11.0,57.0,-291.0,948.0
20.0,-67.0,228.0,53.0,12.0,-9.0,49.0,-295.0,943.0
21.0,-72.0,230.0,55.0,9.0,-10.0,51.0,-298.0,948.0
23.0,-70.0,228.0,56.0,8.0,-12.0,50.0,-299.0,948.0
20.0,-70.0,229.0,58.0,6.0,-11.0,50.0,-297.0,942.0
20.0,-71.0,231.0,62.0,6.0,-11.0,50.0,-291.0,945.0
17.0,-68.0,228.0,66.0,6.0,-13.0,49.0,-299.0,946.0
22.0,-69.0,229.0,70.0,5.0,-13.0,51.0,-295.0,939.0
20.0,-67.0,229.0,74.0,4.0,-13.0,57.0,-291.0,939.0
20.0,-67.0,226.0,76.0,3.0,-14.0,55.0,-291.0,945.0
22.0,-65.0,226.0,78.0,3.0,-14.0,57.0,-285.0,946.0
26.0,-68.0,230.0,79.0,4.0,-15.0,53.0,-286.0,945.0
19.0,-66.0,225.0,76.0,3.0,-19.0,52.0,-286.0,948.0
24.0,-67.0,228.0,76.0,2.0,-18.0,55.0,-280.0,943.0
23.0,-70.0,228.0,72.0,5.0,-15.0,56.0,-283.0,945.0
21.0,-67.0,228.0,68.0,4.0,-14.0,57.0,-279.0,949.0
20.0,-70.0,238.0,64.0,6.0,-14.0,59.0,-282.0,942.0
22.0,-66.0,231.0,60.0,6.0,-14.0,62.0,-282.0,951.0
23.0,-67.0,229.0,55.0,7.0,-11.0,57.0,-281.0,947.0
21.0,-65.0,229.0,53.0,8.0,-9.0,54.0,-289.0,950.0
24.0,-69.0,228.0,52.0,9.0,-10.0,60.0,-292.0,945.0
21.0,-67.0,235.0,54.0,10.0,-9.0,63.0,-284.0,950.0
21.0,-68.0,234.0,55.0,10.0,-10.0,62.0,-283.0,950.0
25.0,-68.0,232.0,56.0,9.0,-10.0,60.0,-285.0,944.0
22.0,-69.0,233.0,58.0,8.0,-11.0,58.0,-289.0,948.0
21.0,-71.0,231.0,62.0,7.0,-11.0,58.0,-283.0,942.0
21.0,-68.0,230.0,64.0,5.0,-11.0,59.0,-287.0,949.0
19.0,-70.0,227.0,66.0,4.0,-13.0,56.0,-282.0,945.0
21.0,-68.0,229.0,66.0,5.0,-11.0,61.0,-289.0,946.0
23.0,-68.0,231.0,67.0,5.0,-11.0,58.0,-281.0,947.0
22.0,-69.0,229.0,68.0,5.0,-13.0,58.0,-284.0,946.0
24.0,-66.0,231.0,67.0,6.0,-13.0,58.0,-283.0,945.0
22.0,-69.0,229.0,65.0,5.0,-14.0,53.0,-287.0,946.0
27.0,-66.0,226.0,65.0,7.0,-13.0,61.0,-287.0,946.0
23.0,-69.0,225.0,62.0,7.0,-12.0,62.0,-285.0,955.0
26.0,-67.0,230.0,62.0,7.0,-11.0,59.0,-290.0,946.0
25.0,-72.0,231.0,61.0,7.0,-11.0,60.0,-291.0,946.0
20.0,-66.0,229.0,60.0,7.0,-11.0,62.0,-296.0,946.0
20.0,-67.0,227.0,61.0,8.0,-11.0,58.0,-290.0,945.0
25.0,-69.0,227.0,62.0,7.0,-9.0,61.0,-288.0,950.0
25.0,-69.0,229.0,63.0,8.0,-9.0,64.0,-289.0,947.0
29.0,-69.0,233.0,64.0,9.0,-11.0,63.0,-283.0,942.0
24.0,-72.0,234.0,64.0,10.0,-11.0,60.0,-292.0,945.0
26.0,-67.0,232.0,64.0,11.0,-10.0,57.0,-290.0,946.0
25.0,-69.0,227.0,62.0,10.0,-10.0,58.0,-292.0,949.0
26.0,-67.0,230.0,61.0,10.0,-11.0,60.0,-291.0,950.0
24.0,-68.0,228.0,60.0,8.0,-12.0,65.0,-288.0,954.0
20.0,-66.0,233.0,57.0,7.0,-10.0,57.0,-287.0,948.0
19.0,-65.0,228.0,58.0,7.0,-10.0,56.0,-287.0,946.0
25.0,-71.0,236.0,57.0,7.0,-9.0,56.0,-290.0,951.0
23.0,-68.0,230.0,58.0,6.0,-9.0,52.0,-291.0,952.0
21.0,-66.0,232.0,58.0,5.0,-8.0,61.0,-286.0,953.0
20.0,-67.0,230.0,58.0,3.0,-6.0,58.0,-282.0,945.0
21.0,-69.0,227.0,59.0,6.0,-7.0,55.0,-283.0,941.0
22.0,-64.0,227.0,60.0,6.0,-7.0,56.0,-284.0,944.0
21.0,-65.0,232.0,59.0,9.0,-7.0,55.0,-278.0,944.0
22.0,-65.0,227.0,60.0,11.0,-7.0,50.0,-283.0,945.0
24.0,-68.0,229.0,58.0,12.0,-8.0,56.0,-278.0,944.0
23.0,-66.0,233.0,57.0,14.0,-9.0,51.0,-279.0,948.0
22.0,-66.0,233.0,59.0,16.0,-9.0,57.0,-281.0,947.0
23.0,-70.0,227.0,56.0,17.0,-10.0,53.0,-287.0,943.0
19.0,-66.0,229.0,56.0,17.0,-10.0,60.0,-292.0,942.0
23.0,-66.0,230.0,55.0,17.0,-10.0,60.0,-286.0,941.0
22.0,-67.0,229.0,54.0,16.0,-10.0,50.0,-290.0,941.0
23.0,-64.0,232.0,52.0,15.0,-11.0,57.0,-294.0,948.0
22.0,-67.0,231.0,50.0,16.0,-12.0,52.0,-295.0,951.0
19.0,-68.0,234.0,48.0,16.0,-12.0,53.0,-298.0,950.0
20.0,-70.0,231.0,47.0,15.0,-12.0,53.0,-299.0,952.0
20.0,-71.0,228.0,48.0,13.0,-14.0,45.0,-304.0,954.0
21.0,-68.0,227.0,52.0,11.0,-15.0,51.0,-294.0,949.0
20.0,-69.0,229.0,57.0,9.0,-13.0,53.0,-299.0,952.0
15.0,-68.0,231.0,63.0,7.0,-15.0,51.0,-295.0,943.0
19.0,-70.0,227.0,72.0,6.0,-15.0,53.0,-295.0,941.0
21.0,-67.0,229.0,79.0,6.0,-15.0,54.0,-288.0,947.0
22.0,-68.0,228.0,87.0,5.0,-17.0,58.0,-289.0,945.0
20.0,-64.0,225.0,94.0,6.0,-19.0,55.0,-290.0,945.0
21.0,-65.0,227.0,98.0,8.0,-18.0,59.0,-281.0,942.0
24.0,-65.0,228.0,100.0,10.0,-16.0,59.0,-282.0,937.0
19.0,-65.0,222.0,100.0,11.0,-16.0,62.0,-276.0,943.0
22.0,-65.0,231.0,96.0,11.0,-17.0,61.0,-281.0,949.0
26.0,-66.0,230.0,90.0,13.0,-16.0,59.0,-279.0,943.0
24.0,-63.0,233.0,81.0,15.0,-16.0,60.0,-279.0,952.0
20.0,-63.0,225.0,73.0,15.0,-16.0,63.0,-273.0,952.0
23.0,-65.0,232.0,65.0,16.0,-13.0,63.0,-275.0,951.0
23.0,-63.0,232.0,58.0,17.0,-12.0,67.0,-281.0,949.0
24.0,-65.0,232.0,52.0,18.0,-11.0,65.0,-279.0,953.0
24.0,-65.0,231.0,50.0,16.0,-9.0,64.0,-279.0,949.0
22.0,-67.0,231.0,49.0,13.0,-9.0,66.0,-280.0,952.0
27.0,-66.0,229.0,49.0,13.0,-7.0,56.0,-282.0,945.0
25.0,-68.0,231.0,51.0,12.0,-8.0,61.0,-284.0,950.0
23.0,-67.0,232.0,55.0,10.0,-6.0,62.0,-284.0,944.0
20.0,-69.0,229.0,57.0,10.0,-7.0,62.0,-284.0,946.0
24.0,-66.0,232.0,59.0,8.0,-6.0,56.0,-280.0,950.0
19.0,-65.0,234.0,61.0,8.0,-9.0,52.0,-280.0,947.0
24.0,-65.0,231.0,63.0,9.0,-9.0,61.0,-288.0,945.0
21.0,-66.0,231.0,63.0,8.0,-7.0,57.0,-282.0,947.0
23.0,-67.0,233.0,63.0,7.0,-8.0,60.0,-283.0,950.0
23.0,-68.0,233.0,61.0,7.0,-9.0,55.0,-278.0,948.0
22.0,-65.0,230.0,60.0,7.0,-9.0,57.0,-280.0,950.0
23.0,-65.0,229.0,58.0,5.0,-9.0,55.0,-276.0,948.0
24.0,-67.0,229.0,57.0,6.0,-8.0,55.0,-279.0,945.0
22.0,-68.0,231.0,55.0,4.0,-9.0,53.0,-280.0,944.0
25.0,-68.0,231.0,54.0,3.0,-10.0,55.0,-282.0,950.0
20.0,-68.0,229.0,51.0,3.0,-10.0,55.0,-282.0,950.0
20.0,-68.0,232.0,49.0,2.0,-10.0,55.0,-277.0,952.0
21.0,-66.0,229.0,47.0,3.0,-8.0,48.0,-283.0,951.0
21.0,-66.0,227.0,46.0,3.0,-9.0,55.0,-279.0,943.0
20.0,-64.0,233.0,45.0,2.0,-9.0,49.0,-289.0,951.0
23.0,-68.0,228.0,45.0,2.0,-9.0,49.0,-287.0,949.0
19.0,-67.0,231.0,46.0,3.0,-10.0,54.0,-286.0,945.0
22.0,-66.0,229.0,48.0,4.0,-11.0,52.0,-289.0,948.0
20.0,-67.0,226.0,50.0,5.0,-10.0,53.0,-290.0,945.0
25.0,-65.0,228.0,53.0,6.0,-10.0,56.0,-289.0,946.0
24.0,-68.0,232.0,55.0,7.0,-9.0,59.0,-285.0,947.0
23.0,-72.0,230.0,58.0,6.0,-10.0,57.0,-289.0,947.0
22.0,-66.0,229.0,58.0,7.0,-12.0,60.0,-281.0,948.0
23.0,-67.0,234.0,60.0,9.0,-12.0,60.0,-286.0,947.0
23.0,-65.0,233.0,57.0,9.0,-10.0,66.0,-279.0,944.0
25.0,-66.0,231.0,56.0,12.0,-10.0,62.0,-282.0,946.0
23.0,-68.0,229.0,53.0,13.0,-10.0,64.0,-281.0,946.0
24.0,-66.0,229.0,52.0,13.0,-11.0,62.0,-280.0,945.0
24.0,-68.0,227.0,49.0,12.0,-10.0,57.0,-287.0,946.0
24.0,-68.0,227.0,49.0,11.0,-9.0,62.0,-281.0,953.0
23.0,-66.0,229.0,50.0,11.0,-10.0,60.0,-280.0,948.0
24.0,-64.0,230.0,49.0,8.0,-10.0,59.0,-286.0,946.0
21.0,-69.0,231.0,50.0,6.0,-10.0,56.0,-283.0,945.0
24.0,-66.0,229.0,52.0,7.0,-10.0,64.0,-282.0,946.0
24.0,-66.0,228.0,52.0,6.0,-10.0,64.0,-281.0,942.0
24.0,-67.0,226.0,53.0,6.0,-10.0,60.0,-286.0,942.0
26.0,-68.0,228.0,54.0,6.0,-12.0,63.0,-285.0,945.0
21.0,-66.0,230.0,56.0,8.0,-14.0,58.0,-289.0,945.0
23.0,-68.0,230.0,59.0,8.0,-13.0,61.0,-281.0,943.0
21.0,-66.0,231.0,60.0,8.0,-14.0,65.0,-287.0,944.0
21.0,-66.0,225.0,64.0,8.0,-14.0,56.0,-282.0,945.0
25.0,-66.0,231.0,65.0,8.0,-12.0,54.0,-282.0,941.0
19.0,-67.0,232.0,67.0,8.0,-11.0,56.0,-279.0,951.0
25.0,-66.0,229.0,68.0,9.0,-12.0,57.0,-280.0,948.0
24.0,-66.0,229.0,68.0,9.0,-12.0,56.0,-279.0,954.0
25.0,-65.0,228.0,66.0,8.0,-11.0,62.0,-277.0,955.0
23.0,-66.0,233.0,64.0,10.0,-10.0,53.0,-276.0,952.0
22.0,-64.0,227.0,61.0,10.0,-10.0,61.0,-276.0,952.0
22.0,-65.0,230.0,59.0,9.0,-10.0,58.0,-275.0,949.0
23.0,-64.0,229.0,56.0,11.0,-9.0,60.0,-274.0,946.0
23.0,-66.0,230.0,52.0,12.0,-9.0,60.0,-275.0,955.0
25.0,-66.0,230.0,48.0,13.0,-8.0,55.0,-274.0,950.0
27.0,-64.0,233.0,46.0,15.0,-9.0,58.0,-277.0,952.0
22.0,-66.0,231.0,44.0,16.0,-9.0,64.0,-279.0,947.0
19.0,-65.0,238.0,44.0,15.0,-11.0,62.0,-276.0,950.0
25.0,-69.0,230.0,43.0,16.0,-11.0,56.0,-279.0,953.0
24.0,-66.0,235.0,43.0,16.0,-11.0,55.0,-281.0,953.0
22.0,-66.0,231.0,44.0,16.0,-11.0,59.0,-279.0,954.0
22.0,-66.0,235.0,46.0,14.0,-11.0,60.0,-283.0,947.0
21.0,-63.0,233.0,47.0,14.0,-11.0,60.0,-282.0,953.0
25.0,-69.0,234.0,48.0,14.0,-10.0,62.0,-278.0,955.0
24.0,-66.0,231.0,47.0,11.0,-12.0,55.0,-278.0,949.0
22.0,-64.0,227.0,48.0,10.0,-12.0,58.0,-284.0,950.0
21.0,-65.0,226.0,51.0,11.0,-13.0,67.0,-283.0,949.0
24.0,-64.0,233.0,52.0,10.0,-15.0,55.0,-281.0,952.0
18.0,-63.0,226.0,51.0,11.0,-13.0,59.0,-284.0,948.0
23.0,-65.0,227.0,54.0,10.0,-13.0,64.0,-276.0,944.0
25.0,-69.0,231.0,54.0,12.0,-11.0,57.0,-279.0,947.0
25.0,-66.0,231.0,55.0,12.0,-12.0,64.0,-281.0,949.0
23.0,-67.0,230.0,57.0,13.0,-12.0,63.0,-279.0,949.0
23.0,-69.0,232.0,57.0,13.0,-10.0,67.0,-283.0,957.0
24.0,-66.0,228.0,56.0,13.0,-10.0,64.0,-282.0,945.0
21.0,-64.0,227.0,57.0,14.0,-8.0,60.0,-282.0,954.0
23.0,-65.0,233.0,57.0,16.0,-8.0,58.0,-283.0,940.0
23.0,-66.0,228.0,57.0,16.0,-7.0,61.0,-283.0,943.0
22.0,-69.0,228.0,56.0,17.0,-8.0,63.0,-284.0,945.0
15.0,-64.0,230.0,54.0,16.0,-8.0,57.0,-282.0,950.0
21.0,-66.0,229.0,53.0,17.0,-9.0,60.0,-282.0,949.0
22.0,-67.0,230.0,51.0,17.0,-10.0,61.0,-286.0,948.0
23.0,-68.0,231.0,50.0,17.0,-11.0,62.0,-282.0,952.0
25.0,-68.0,234.0,50.0,16.0,-10.0,56.0,-287.0,953.0
24.0,-68.0,229.0,51.0,17.0,-11.0,64.0,-283.0,944.0
21.0,-64.0,228.0,53.0,17.0,-10.0,54.0,-279.0,950.0
24.0,-70.0,230.0,54.0,14.0,-11.0,58.0,-282.0,950.0
25.0,-66.0,232.0,57.0,14.0,-11.0,62.0,-283.0,946.0
26.0,-65.0,230.0,59.0,15.0,-9.0,65.0,-282.0,951.0
22.0,-66.0,233.0,61.0,15.0,-10.0,65.0,-276.0,951.0
23.0,-67.0,228.0,63.0,15.0,-8.0,58.0,-280.0,951.0
21.0,-65.0,233.0,62.0,16.0,-11.0,64.0,-275.0,949.0
25.0,-65.0,231.0,64.0,17.0,-10.0,58.0,-278.0,946.0
25.0,-66.0,226.0,61.0,17.0,-9.0,59.0,-274.0,945.0
22.0,-65.0,228.0,59.0,17.0,-8.0,64.0,-277.0,951.0
21.0,-64.0,230.0,55.0,17.0,-8.0,65.0,-279.0,948.0
22.0,-64.0,229.0,54.0,17.0,-9.0,59.0,-276.0,951.0
22.0,-71.0,232.0,51.0,16.0,-8.0,54.0,-274.0,948.0
20.0,-66.0,231.0,50.0,16.0,-9.0,51.0,-280.0,951.0
19.0,-66.0,232.0,49.0,15.0,-10.0,56.0,-278.0,942.0
23.0,-66.0,226.0,48.0,15.0,-9.0,54.0,-280.0,948.0
25.0,-65.0,227.0,45.0,15.0,-11.0,53.0,-284.0,948.0
22.0,-65.0,233.0,45.0,16.0,-10.0,52.0,-284.0,953.0
22.0,-64.0,229.0,43.0,16.0,-11.0,54.0,-283.0,952.0
19.0,-67.0,235.0,41.0,17.0,-10.0,55.0,-282.0,952.0
20.0,-67.0,229.0,39.0,16.0,-12.0,51.0,-281.0,950.0
18.0,-66.0,229.0,39.0,15.0,-11.0,47.0,-287.0,951.0
21.0,-68.0,231.0,43.0,13.0,-12.0,51.0,-285.0,955.0
23.0,-70.0,226.0,47.0,13.0,-12.0,55.0,-290.0,946.0
21.0,-70.0,231.0,53.0,12.0,-13.0,55.0,-288.0,943.0
20.0,-65.0,227.0,61.0,12.0,-15.0,57.0,-287.0,944.0
21.0,-65.0,225.0,71.0,13.0,-15.0,55.0,-286.0,940.0
24.0,-66.0,231.0,77.0,12.0,-13.0,57.0,-288.0,941.0
20.0,-64.0,227.0,84.0,13.0,-15.0,57.0,-278.0,946.0
21.0,-67.0,229.0,89.0,14.0,-15.0,51.0,-283.0,947.0
22.0,-65.0,228.0,91.0,15.0,-16.0,58.0,-276.0,949.0
22.0,-66.0,230.0,91.0,16.0,-13.0,51.0,-278.0,940.0
22.0,-66.0,227.0,90.0,18.0,-14.0,54.0,-276.0,951.0
22.0,-64.0,229.0,86.0,18.0,-15.0,51.0,-276.0,947.0
21.0,-64.0,231.0,79.0,17.0,-15.0,55.0,-275.0,952.0
21.0,-68.0,232.0,72.0,16.0,-13.0,60.0,-274.0,955.0
20.0,-62.0,228.0,67.0,15.0,-12.0,64.0,-277.0,951.0
25.0,-62.0,231.0,62.0,14.0,-12.0,65.0,-273.0,958.0
22.0,-63.0,228.0,59.0,14.0,-10.0,60.0,-276.0,952.0
24.0,-65.0,229.0,57.0,14.0,-9.0,63.0,-277.0,952.0
26.0,-64.0,229.0,54.0,13.0,-9.0,61.0,-276.0,949.0
24.0,-66.0,232.0,53.0,14.0,-9.0,61.0,-277.0,946.0
25.0,-65.0,229.0,52.0,13.0,-8.0,62.0,-272.0,947.0
21.0,-65.0,229.0,51.0,15.0,-9.0,61.0,-279.0,947.0
24.0,-67.0,233.0,50.0,15.0,-8.0,65.0,-277.0,949.0
24.0,-67.0,236.0,51.0,16.0,-7.0,61.0,-275.0,952.0
22.0,-64.0,230.0,52.0,16.0,-6.0,63.0,-276.0,951.0
26.0,-68.0,234.0,53.0,14.0,-7.0,67.0,-276.0,955.0
25.0,-76.0,240.0,54.0,13.0,-7.0,56.0,-275.0,944.0
22.0,-67.0,233.0,56.0,11.0,-9.0,63.0,-277.0,951.0
19.0,-64.0,230.0,58.0,12.0,-9.0,55.0,-274.0,957.0
22.0,-64.0,233.0,58.0,12.0,-9.0,58.0,-275.0,950.0
21.0,-65.0,231.0,58.0,11.0,-9.0,51.0,-277.0,953.0
22.0,-65.0,232.0,57.0,11.0,-10.0,53.0,-277.0,949.0
22.0,-64.0,232.0,54.0,11.0,-10.0,57.0,-282.0,945.0
22.0,-67.0,232.0,51.0,10.0,-10.0,57.0,-274.0,949.0
22.0,-64.0,229.0,46.0,9.0,-11.0,60.0,-275.0,949.0
20.0,-64.0,230.0,43.0,8.0,-11.0,58.0,-278.0,953.0
21.0,-68.0,232.0,40.0,8.0,-8.0,50.0,-276.0,949.0
22.0,-72.0,222.0,38.0,8.0,-9.0,50.0,-282.0,948.0
19.0,-66.0,229.0,37.0,8.0,-9.0,52.0,-285.0,950.0
23.0,-67.0,234.0,39.0,7.0,-8.0,55.0,-287.0,950.0
25.0,-65.0,232.0,41.0,6.0,-8.0,53.0,-284.0,942.0
21.0,-65.0,232.0,44.0,6.0,-8.0,52.0,-285.0,949.0
23.0,-64.0,227.0,48.0,6.0,-8.0,53.0,-280.0,942.0
22.0,-66.0,232.0,52.0,7.0,-9.0,59.0,-280.0,950.0
21.0,-65.0,230.0,56.0,9.0,-10.0,56.0,-280.0,951.0
21.0,-65.0,228.0,58.0,11.0,-10.0,60.0,-282.0,953.0
25.0,-65.0,232.0,60.0,11.0,-10.0,55.0,-284.0,947.0
22.0,-67.0,232.0,60.0,10.0,-10.0,59.0,-281.0,951.0
26.0,-60.0,232.0,58.0,10.0,-10.0,60.0,-277.0,942.0
25.0,-65.0,227.0,55.0,12.0,-8.0,65.0,-276.0,949.0
23.0,-65.0,231.0,51.0,13.0,-9.0,59.0,-275.0,952.0
22.0,-65.0,229.0,47.0,13.0,-10.0,60.0,-274.0,947.0
20.0,-65.0,231.0,45.0,11.0,-9.0,56.0,-275.0,946.0
21.0,-67.0,230.0,42.0,10.0,-8.0,59.0,-279.0,948.0
22.0,-64.0,229.0,41.0,8.0,-8.0,56.0,-280.0,947.0
23.0,-68.0,230.0,41.0,9.0,-9.0,55.0,-284.0,949.0
22.0,-63.0,231.0,44.0,9.0,-8.0,61.0,-284.0,950.0
23.0,-67.0,235.0,47.0,10.0,-9.0,62.0,-285.0,948.0
23.0,-67.0,235.0,50.0,9.0,-10.0,59.0,-280.0,951.0
24.0,-68.0,235.0,52.0,9.0,-10.0,54.0,-279.0,953.0
21.0,-66.0,233.0,57.0,11.0,-8.0,61.0,-280.0,947.0
22.0,-65.0,233.0,61.0,11.0,-10.0,52.0,-282.0,948.0
21.0,-66.0,231.0,62.0,12.0,-9.0,57.0,-281.0,947.0
21.0,-65.0,228.0,62.0,11.0,-10.0,58.0,-278.0,951.0
24.0,-66.0,228.0,62.0,13.0,-11.0,60.0,-281.0,953.0
22.0,-67.0,232.0,60.0,12.0,-13.0,59.0,-278.0,949.0
28.0,-63.0,232.0,60.0,12.0,-10.0,60.0,-276.0,956.0
24.0,-69.0,231.0,56.0,11.0,-9.0,53.0,-276.0,948.0
19.0,-65.0,232.0,54.0,11.0,-11.0,58.0,-276.0,948.0
24.0,-67.0,232.0,51.0,10.0,-10.0,53.0,-274.0,953.0
18.0,-60.0,228.0,49.0,9.0,-9.0,60.0,-276.0,949.0
21.0,-65.0,229.0,47.0,10.0,-9.0,65.0,-276.0,952.0
22.0,-66.0,229.0,47.0,11.0,-8.0,65.0,-276.0,953.0
25.0,-64.0,230.0,48.0,9.0,-9.0,69.0,-277.0,950.0
23.0,-66.0,228.0,50.0,8.0,-12.0,61.0,-275.0,955.0
24.0,-66.0,227.0,53.0,8.0,-14.0,61.0,-278.0,944.0
26.0,-66.0,231.0,52.0,7.0,-18.0,59.0,-280.0,946.0
23.0,-65.0,230.0,52.0,6.0,-22.0,55.0,-279.0,944.0
23.0,-67.0,227.0,50.0,2.0,-27.0,66.0,-277.0,942.0
20.0,-66.0,228.0,50.0,-1.0,-33.0,68.0,-284.0,945.0
24.0,-67.0,229.0,50.0,-3.0,-40.0,63.0,-278.0,948.0
25.0,-67.0,231.0,52.0,-6.0,-48.0,62.0,-281.0,940.0
23.0,-66.0,231.0,53.0,-9.0,-56.0,67.0,-281.0,944.0
21.0,-64.0,227.0,56.0,-11.0,-66.0,62.0,-282.0,944.0
22.0,-65.0,228.0,58.0,-12.0,-75.0,60.0,-280.0,948.0
23.0,-64.0,231.0,61.0,-13.0,-85.0,63.0,-280.0,946.0
22.0,-66.0,231.0,62.0,-14.0,-92.0,54.0,-282.0,951.0
23.0,-67.0,231.0,61.0,-15.0,-100.0,53.0,-283.0,954.0
22.0,-67.0,234.0,63.0,-15.0,-104.0,56.0,-287.0,950.0
23.0,-64.0,229.0,63.0,-18.0,-108.0,51.0,-284.0,949.0
21.0,-66.0,229.0,61.0,-17.0,-111.0,57.0,-278.0,944.0
21.0,-65.0,231.0,59.0,-15.0,-115.0,63.0,-286.0,948.0
27.0,-72.0,224.0,57.0,-15.0,-116.0,63.0,-280.0,944.0
25.0,-69.0,230.0,55.0,-13.0,-116.0,63.0,-285.0,944.0
24.0,-65.0,232.0,54.0,-9.0,-117.0,66.0,-290.0,944.0
27.0,-70.0,228.0,54.0,-5.0,-119.0,68.0,-284.0,944.0
25.0,-69.0,229.0,55.0,-1.0,-119.0,73.0,-290.0,945.0
24.0,-68.0,233.0,56.0,0.0,-118.0,72.0,-287.0,945.0
29.0,-67.0,230.0,59.0,1.0,-118.0,69.0,-287.0,942.0
26.0,-66.0,228.0,61.0,2.0,-118.0,75.0,-287.0,940.0
26.0,-66.0,230.0,61.0,2.0,-118.0,71.0,-289.0,942.0
26.0,-69.0,228.0,65.0,0.0,-116.0,68.0,-284.0,936.0
26.0,-70.0,231.0,69.0,1.0,-116.0,71.0,-290.0,939.0
25.0,-69.0,225.0,74.0,1.0,-112.0,67.0,-289.0,947.0
24.0,-67.0,228.0,78.0,1.0,-106.0,66.0,-287.0,940.0
23.0,-64.0,229.0,80.0,3.0,-103.0,68.0,-289.0,936.0
23.0,-70.0,228.0,82.0,8.0,-96.0,62.0,-289.0,945.0
24.0,-70.0,231.0,83.0,12.0,-90.0,58.0,-287.0,943.0
26.0,-69.0,229.0,82.0,15.0,-83.0,63.0,-294.0,951.0
24.0,-69.0,234.0,84.0,21.0,-73.0,63.0,-290.0,956.0
26.0,-71.0,231.0,88.0,26.0,-63.0,62.0,-287.0,961.0
26.0,-71.0,232.0,95.0,32.0,-55.0,65.0,-295.0,959.0
22.0,-67.0,232.0,102.0,36.0,-49.0,67.0,-288.0,973.0
21.0,-66.0,237.0,113.0,40.0,-41.0,71.0,-290.0,972.0
29.0,-70.0,244.0,124.0,43.0,-36.0,75.0,-279.0,973.0
29.0,-63.0,239.0,133.0,44.0,-30.0,83.0,-276.0,969.0
29.0,-61.0,236.0,141.0,45.0,-27.0,83.0,-264.0,973.0
31.0,-63.0,238.0,144.0,44.0,-24.0,80.0,-255.0,964.0
29.0,-60.0,233.0,142.0,42.0,-20.0,81.0,-248.0,966.0
29.0,-55.0,233.0,135.0,37.0,-18.0,75.0,-235.0,956.0
28.0,-57.0,233.0,124.0,31.0,-16.0,76.0,-229.0,956.0
27.0,-53.0,226.0,110.0,25.0,-16.0,71.0,-231.0,954.0
27.0,-56.0,229.0,92.0,20.0,-13.0,67.0,-232.0,943.0
24.0,-54.0,230.0,70.0,15.0,-12.0,66.0,-231.0,937.0
26.0,-57.0,230.0,46.0,10.0,-11.0,55.0,-234.0,940.0
21.0,-57.0,229.0,23.0,6.0,-10.0,48.0,-242.0,938.0
22.0,-59.0,231.0,0.0,7.0,-7.0,51.0,-255.0,939.0
22.0,-64.0,228.0,-20.0,5.0,-4.0,46.0,-267.0,935.0
19.0,-63.0,232.0,-36.0,4.0,-1.0,44.0,-269.0,943.0
21.0,-67.0,230.0,-46.0,3.0,1.0,45.0,-278.0,952.0
20.0,-66.0,232.0,-47.0,2.0,2.0,48.0,-287.0,953.0
19.0,-67.0,231.0,-40.0,1.0,1.0,47.0,-293.0,961.0
18.0,-71.0,236.0,-27.0,-2.0,-2.0,55.0,-299.0,954.0
23.0,-72.0,235.0,-5.0,-1.0,-3.0,59.0,-301.0,962.0
21.0,-70.0,234.0,22.0,-1.0,-9.0,60.0,-302.0,962.0
21.0,-73.0,235.0,51.0,1.0,-14.0,67.0,-296.0,962.0
27.0,-71.0,234.0,80.0,4.0,-17.0,67.0,-288.0,962.0
26.0,-65.0,233.0,106.0,8.0,-22.0,67.0,-282.0,964.0
26.0,-64.0,234.0,126.0,14.0,-24.0,72.0,-273.0,961.0
27.0,-64.0,232.0,139.0,21.0,-27.0,71.0,-270.0,957.0
28.0,-59.0,229.0,144.0,27.0,-28.0,77.0,-263.0,947.0
27.0,-62.0,230.0,137.0,33.0,-29.0,81.0,-253.0,950.0
27.0,-58.0,228.0,124.0,40.0,-29.0,83.0,-251.0,947.0
30.0,-59.0,235.0,105.0,47.0,-27.0,79.0,-247.0,943.0
26.0,-59.0,232.0,82.0,54.0,-24.0,82.0,-250.0,947.0
30.0,-58.0,227.0,58.0,61.0,-21.0,83.0,-256.0,953.0
27.0,-56.0,229.0,33.0,68.0,-21.0,85.0,-260.0,945.0
31.0,-62.0,230.0,10.0,78.0,-19.0,89.0,-267.0,941.0
32.0,-64.0,231.0,-9.0,85.0,-17.0,89.0,-275.0,949.0
34.0,-68.0,230.0,-23.0,86.0,-16.0,89.0,-284.0,952.0
32.0,-67.0,230.0,-37.0,89.0,-16.0,91.0,-292.0,952.0
33.0,-68.0,232.0,-42.0,89.0,-17.0,91.0,-300.0,949.0
31.0,-70.0,230.0,-41.0,88.0,-18.0,87.0,-310.0,957.0
32.0,-73.0,232.0,-38.0,87.0,-21.0,96.0,-313.0,959.0
36.0,-76.0,238.0,-29.0,88.0,-25.0,94.0,-316.0,956.0
33.0,-75.0,234.0,-15.0,89.0,-29.0,101.0,-318.0,965.0
40.0,-72.0,233.0,1.0,88.0,-38.0,102.0,-319.0,962.0
37.0,-77.0,234.0,18.0,88.0,-46.0,112.0,-316.0,968.0
40.0,-75.0,237.0,36.0,91.0,-57.0,122.0,-319.0,971.0
40.0,-74.0,240.0,50.0,96.0,-68.0,119.0,-321.0,976.0
41.0,-73.0,236.0,60.0,105.0,-76.0,130.0,-316.0,980.0
46.0,-76.0,235.0,67.0,115.0,-86.0,135.0,-314.0,985.0
45.0,-74.0,242.0,71.0,127.0,-93.0,131.0,-315.0,977.0
43.0,-74.0,236.0,71.0,136.0,-98.0,140.0,-317.0,984.0
40.0,-70.0,242.0,68.0,146.0,-100.0,133.0,-314.0,995.0
42.0,-75.0,241.0,60.0,152.0,-98.0,132.0,-318.0,989.0
44.0,-75.0,247.0,55.0,158.0,-91.0,134.0,-321.0,1006.0
42.0,-77.0,248.0,53.0,164.0,-80.0,129.0,-330.0,1008.0
40.0,-78.0,248.0,58.0,172.0,-69.0,142.0,-335.0,1015.0
44.0,-80.0,248.0,68.0,179.0,-59.0,144.0,-337.0,1016.0
50.0,-82.0,249.0,86.0,190.0,-50.0,154.0,-343.0,1019.0
53.0,-83.0,250.0,111.0,203.0,-46.0,155.0,-351.0,1019.0
51.0,-86.0,250.0,140.0,216.0,-45.0,159.0,-351.0,1028.0
56.0,-87.0,253.0,172.0,232.0,-48.0,167.0,-363.0,1029.0
54.0,-91.0,252.0,207.0,253.0,-55.0,158.0,-374.0,1038.0
54.0,-93.0,256.0,242.0,273.0,-64.0,158.0,-376.0,1040.0
53.0,-97.0,257.0,281.0,290.0,-78.0,154.0,-381.0,1052.0
45.0,-89.0,261.0,322.0,301.0,-92.0,147.0,-382.0,1066.0
41.0,-94.0,261.0,370.0,305.0,-104.0,132.0,-381.0,1080.0
39.0,-95.0,266.0,419.0,300.0,-119.0,115.0,-385.0,1089.0
38.0,-98.0,265.0,472.0,288.0,-132.0,108.0,-388.0,1094.0
32.0,-95.0,269.0,529.0,267.0,-144.0,95.0,-387.0,1100.0
30.0,-96.0,267.0,587.0,237.0,-155.0,80.0,-387.0,1098.0
22.0,-90.0,270.0,649.0,202.0,-167.0,57.0,-378.0,1111.0
14.0,-89.0,270.0,710.0,160.0,-177.0,40.0,-358.0,1113.0
14.0,-85.0,270.0,766.0,113.0,-186.0,20.0,-347.0,1120.0
10.0,-80.0,275.0,815.0,56.0,-190.0,13.0,-325.0,1119.0
8.0,-73.0,273.0,856.0,-4.0,-194.0,7.0,-312.0,1110.0
9.0,-67.0,265.0,885.0,-61.0,-201.0,9.0,-290.0,1107.0
10.0,-66.0,269.0,905.0,-119.0,-212.0,-1.0,-272.0,1100.0
12.0,-57.0,261.0,911.0,-175.0,-228.0,-2.0,-251.0,1091.0
4.0,-54.0,263.0,904.0,-233.0,-248.0,2.0,-235.0,1075.0
9.0,-53.0,263.0,887.0,-290.0,-269.0,21.0,-225.0,1073.0
16.0,-51.0,257.0,864.0,-343.0,-295.0,32.0,-217.0,1060.0
21.0,-48.0,258.0,834.0,-392.0,-320.0,48.0,-212.0,1058.0
27.0,-44.0,252.0,802.0,-436.0,-352.0,78.0,-210.0,1045.0
38.0,-48.0,255.0,769.0,-477.0,-382.0,106.0,-202.0,1044.0
41.0,-49.0,255.0,733.0,-515.0,-415.0,138.0,-202.0,1036.0
51.0,-47.0,251.0,704.0,-552.0,-448.0,159.0,-207.0,1032.0
54.0,-49.0,250.0,674.0,-590.0,-480.0,174.0,-210.0,1038.0
59.0,-49.0,251.0,652.0,-634.0,-512.0,197.0,-202.0,1036.0
63.0,-52.0,251.0,637.0,-684.0,-543.0,211.0,-202.0,1025.0
61.0,-44.0,248.0,629.0,-739.0,-573.0,210.0,-190.0,1021.0
58.0,-40.0,245.0,624.0,-798.0,-595.0,205.0,-183.0,1008.0
57.0,-37.0,241.0,618.0,-859.0,-610.0,197.0,-165.0,1002.0
58.0,-33.0,242.0,612.0,-924.0,-612.0,196.0,-146.0,993.0
53.0,-24.0,239.0,604.0,-987.0,-610.0,186.0,-113.0,971.0
57.0,-21.0,233.0,590.0,-1051.0,-598.0,185.0,-100.0,957.0
52.0,-14.0,224.0,568.0,-1114.0,-585.0,184.0,-82.0,937.0
53.0,-14.0,219.0,532.0,-1174.0,-570.0,183.0,-71.0,903.0
53.0,-7.0,217.0,483.0,-1231.0,-552.0,189.0,-50.0,898.0
59.0,-8.0,216.0,425.0,-1282.0,-536.0,192.0,-46.0,884.0
59.0,-8.0,213.0,359.0,-1328.0,-522.0,207.0,-44.0,865.0
61.0,-4.0,200.0,290.0,-1364.0,-514.0,205.0,-40.0,842.0
60.0,-2.0,205.0,215.0,-1392.0,-509.0,210.0,-39.0,829.0
57.0,0.0,203.0,141.0,-1415.0,-506.0,203.0,-32.0,817.0
56.0,-4.0,202.0,71.0,-1441.0,-507.0,192.0,-37.0,822.0
51.0,-4.0,199.0,5.0,-1476.0,-516.0,172.0,-32.0,816.0
44.0,-6.0,204.0,-57.0,-1519.0,-528.0,144.0,-42.0,834.0
35.0,-7.0,203.0,-116.0,-1568.0,-541.0,122.0,-41.0,836.0
28.0,-7.0,207.0,-169.0,-1623.0,-553.0,86.0,-49.0,840.0
18.0,-5.0,206.0,-215.0,-1684.0,-562.0,65.0,-44.0,845.0
19.0,-10.0,210.0,-252.0,-1752.0,-569.0,48.0,-40.0,840.0
11.0,-9.0,205.0,-285.0,-1824.0,-584.0,36.0,-51.0,837.0
6.0,-11.0,202.0,-317.0,-1905.0,-601.0,20.0,-61.0,825.0
3.0,-10.0,201.0,-347.0,-1992.0,-623.0,6.0,-64.0,823.0
3.0,-10.0,199.0,-372.0,-2100.0,-643.0,-4.0,-56.0,818.0
5.0,-13.0,196.0,-395.0,-2190.0,-658.0,2.0,-72.0,804.0
6.0,-17.0,195.0,-423.0,-2273.0,-672.0,5.0,-85.0,806.0
5.0,-20.0,192.0,-450.0,-2345.0,-690.0,24.0,-91.0,799.0
12.0,-24.0,195.0,-480.0,-2404.0,-714.0,25.0,-102.0,797.0
13.0,-25.0,189.0,-508.0,-2451.0,-726.0,37.0,-106.0,779.0
21.0,-24.0,185.0,-533.0,-2481.0,-730.0,64.0,-114.0,766.0
28.0,-29.0,188.0,-552.0,-2501.0,-728.0,76.0,-115.0,751.0
36.0,-29.0,181.0,-562.0,-2509.0,-721.0,112.0,-128.0,737.0
42.0,-31.0,171.0,-562.0,-2506.0,-711.0,142.0,-138.0,716.0
56.0,-33.0,165.0,-554.0,-2490.0,-701.0,175.0,-145.0,697.0
70.0,-35.0,168.0,-535.0,-2455.0,-689.0,232.0,-141.0,690.0
88.0,-34.0,166.0,-497.0,-2398.0,-676.0,297.0,-150.0,684.0
100.0,-43.0,167.0,-447.0,-2317.0,-662.0,359.0,-159.0,681.0
118.0,-45.0,167.0,-389.0,-2214.0,-649.0,406.0,-169.0,693.0
125.0,-43.0,172.0,-325.0,-2102.0,-637.0,449.0,-174.0,693.0
128.0,-46.0,171.0,-257.0,-1995.0,-625.0,475.0,-186.0,707.0
130.0,-48.0,176.0,-191.0,-1907.0,-611.0,486.0,-187.0,707.0
129.0,-45.0,176.0,-123.0,-1844.0,-599.0,484.0,-185.0,713.0
125.0,-43.0,177.0,-58.0,-1805.0,-587.0,473.0,-190.0,730.0
121.0,-43.0,180.0,2.0,-1779.0,-579.0,441.0,-176.0,735.0
108.0,-39.0,182.0,56.0,-1758.0,-560.0,391.0,-160.0,744.0
105.0,-36.0,182.0,108.0,-1736.0,-528.0,383.0,-163.0,752.0
105.0,-41.0,185.0,151.0,-1709.0,-502.0,366.0,-154.0,766.0
95.0,-33.0,184.0,196.0,-1678.0,-485.0,333.0,-142.0,770.0
93.0,-29.0,185.0,247.0,-1640.0,-468.0,325.0,-125.0,783.0
88.0,-19.0,192.0,298.0,-1598.0,-454.0,307.0,-100.0,778.0
81.0,-20.0,188.0,344.0,-1549.0,-438.0,294.0,-84.0,776.0
80.0,-6.0,188.0,379.0,-1496.0,-423.0,294.0,-60.0,778.0
83.0,-9.0,195.0,399.0,-1446.0,-412.0,287.0,-36.0,790.0
82.0,-1.0,191.0,400.0,-1405.0,-407.0,300.0,-20.0,788.0
88.0,5.0,191.0,383.0,-1375.0,-402.0,296.0,7.0,799.0
87.0,8.0,194.0,353.0,-1357.0,-397.0,308.0,12.0,799.0
87.0,8.0,197.0,307.0,-1345.0,-387.0,315.0,27.0,799.0
92.0,13.0,195.0,254.0,-1331.0,-371.0,337.0,31.0,800.0
106.0,13.0,198.0,199.0,-1308.0,-354.0,368.0,37.0,808.0
111.0,14.0,194.0,150.0,-1273.0,-336.0,400.0,41.0,810.0
119.0,14.0,196.0,108.0,-1225.0,-318.0,422.0,39.0,801.0
136.0,8.0,190.0,67.0,-1168.0,-303.0,483.0,34.0,804.0
142.0,11.0,193.0,33.0,-1112.0,-294.0,533.0,33.0,810.0
153.0,13.0,194.0,4.0,-1054.0,-283.0,566.0,35.0,798.0
157.0,11.0,195.0,-29.0,-994.0,-263.0,603.0,29.0,810.0
164.0,13.0,193.0,-61.0,-940.0,-247.0,617.0,28.0,805.0
168.0,7.0,192.0,-101.0,-901.0,-219.0,626.0,23.0,800.0
164.0,8.0,194.0,-138.0,-873.0,-185.0,624.0,19.0,795.0
162.0,5.0,188.0,-168.0,-854.0,-155.0,615.0,14.0,779.0
158.0,3.0,187.0,-196.0,-842.0,-123.0,606.0,6.0,764.0
150.0,3.0,183.0,-216.0,-839.0,-90.0,589.0,-4.0,747.0
149.0,0.0,181.0,-226.0,-843.0,-57.0,576.0,-14.0,736.0
150.0,-2.0,177.0,-231.0,-851.0,-28.0,575.0,-23.0,710.0
153.0,-7.0,168.0,-228.0,-864.0,-3.0,580.0,-29.0,698.0
155.0,-10.0,168.0,-220.0,-883.0,15.0,596.0,-40.0,686.0
159.0,-8.0,164.0,-207.0,-907.0,29.0,625.0,-42.0,671.0
168.0,-7.0,164.0,-193.0,-928.0,33.0,645.0,-49.0,657.0
177.0,-9.0,158.0,-180.0,-948.0,28.0,673.0,-55.0,653.0
180.0,-10.0,158.0,-171.0,-968.0,18.0,689.0,-49.0,650.0
183.0,-11.0,155.0,-162.0,-982.0,9.0,709.0,-59.0,646.0
189.0,-11.0,159.0,-159.0,-992.0,6.0,730.0,-66.0,649.0
194.0,-13.0,165.0,-161.0,-993.0,11.0,751.0,-67.0,659.0
202.0,-17.0,162.0,-166.0,-989.0,26.0,784.0,-75.0,666.0
211.0,-21.0,165.0,-182.0,-982.0,54.0,814.0,-90.0,688.0
213.0,-16.0,169.0,-204.0,-977.0,85.0,870.0,-101.0,682.0
230.0,-24.0,171.0,-229.0,-975.0,115.0,899.0,-112.0,692.0
242.0,-27.0,171.0,-245.0,-974.0,137.0,937.0,-114.0,704.0
256.0,-28.0,170.0,-244.0,-970.0,155.0,989.0,-125.0,700.0
271.0,-29.0,172.0,-231.0,-957.0,164.0,1063.0,-118.0,704.0
295.0,-29.0,173.0,-209.0,-935.0,168.0,1150.0,-120.0,687.0
315.0,-30.0,163.0,-191.0,-894.0,165.0,1242.0,-115.0,675.0
336.0,-30.0,160.0,-189.0,-835.0,143.0,1312.0,-127.0,667.0
347.0,-30.0,159.0,-206.0,-769.0,99.0,1361.0,-139.0,651.0
348.0,-31.0,155.0,-242.0,-709.0,32.0,1370.0,-142.0,635.0
333.0,-33.0,151.0,-296.0,-674.0,-39.0,1336.0,-143.0,612.0
315.0,-31.0,138.0,-355.0,-683.0,-97.0,1269.0,-155.0,588.0
291.0,-37.0,137.0,-415.0,-743.0,-137.0,1175.0,-162.0,559.0
268.0,-40.0,129.0,-469.0,-841.0,-168.0,1066.0,-169.0,526.0
234.0,-42.0,124.0,-519.0,-962.0,-179.0,943.0,-192.0,510.0
206.0,-45.0,119.0,-561.0,-1084.0,-182.0,828.0,-190.0,495.0
183.0,-46.0,114.0,-591.0,-1212.0,-178.0,729.0,-193.0,476.0
168.0,-47.0,116.0,-609.0,-1294.0,-172.0,652.0,-195.0,473.0
158.0,-45.0,107.0,-612.0,-1356.0,-163.0,614.0,-191.0,447.0
158.0,-48.0,103.0,-601.0,-1392.0,-156.0,610.0,-194.0,417.0
161.0,-45.0,93.0,-585.0,-1404.0,-151.0,630.0,-186.0,386.0
175.0,-47.0,79.0,-567.0,-1391.0,-145.0,667.0,-187.0,352.0
187.0,-43.0,78.0,-553.0,-1358.0,-139.0,720.0,-185.0,327.0
199.0,-43.0,71.0,-542.0,-1305.0,-136.0,775.0,-189.0,297.0
215.0,-46.0,67.0,-532.0,-1246.0,-135.0,842.0,-192.0,280.0
231.0,-48.0,64.0,-526.0,-1189.0,-135.0,917.0,-196.0,268.0
252.0,-50.0,64.0,-510.0,-1141.0,-137.0,976.0,-201.0,267.0
262.0,-50.0,65.0,-485.0,-1103.0,-142.0,1027.0,-201.0,274.0
273.0,-54.0,66.0,-449.0,-1078.0,-151.0,1073.0,-205.0,284.0
283.0,-57.0,70.0,-401.0,-1061.0,-159.0,1108.0,-214.0,285.0
284.0,-57.0,66.0,-346.0,-1051.0,-167.0,1121.0,-213.0,290.0
282.0,-59.0,65.0,-289.0,-1045.0,-174.0,1126.0,-221.0,287.0
275.0,-56.0,73.0,-237.0,-1043.0,-179.0,1114.0,-221.0,286.0
274.0,-55.0,65.0,-194.0,-1040.0,-180.0,1092.0,-227.0,279.0
268.0,-58.0,69.0,-162.0,-1040.0,-182.0,1060.0,-231.0,282.0
257.0,-60.0,70.0,-136.0,-1043.0,-183.0,1018.0,-232.0,279.0
246.0,-60.0,65.0,-115.0,-1051.0,-184.0,976.0,-235.0,275.0
241.0,-59.0,65.0,-95.0,-1069.0,-178.0,933.0,-233.0,269.0
228.0,-56.0,61.0,-82.0,-1094.0,-175.0,902.0,-227.0,262.0
224.0,-52.0,63.0,-76.0,-1128.0,-174.0,872.0,-217.0,251.0
218.0,-53.0,57.0,-80.0,-1167.0,-177.0,855.0,-202.0,249.0
215.0,-49.0,57.0,-93.0,-1202.0,-182.0,848.0,-195.0,235.0
219.0,-46.0,56.0,-110.0,-1230.0,-189.0,848.0,-184.0,228.0
214.0,-33.0,50.0,-129.0,-1251.0,-194.0,851.0,-164.0,215.0
222.0,-38.0,49.0,-148.0,-1265.0,-201.0,878.0,-155.0,201.0
230.0,-35.0,48.0,-164.0,-1271.0,-207.0,901.0,-154.0,204.0
236.0,-33.0,45.0,-181.0,-1275.0,-223.0,925.0,-134.0,190.0
240.0,-31.0,44.0,-196.0,-1279.0,-241.0,949.0,-131.0,178.0
245.0,-29.0,41.0,-211.0,-1286.0,-263.0,959.0,-132.0,174.0
243.0,-33.0,41.0,-226.0,-1295.0,-287.0,962.0,-135.0,176.0
244.0,-32.0,43.0,-235.0,-1304.0,-311.0,960.0,-133.0,181.0
242.0,-31.0,43.0,-241.0,-1312.0,-329.0,954.0,-134.0,173.0
242.0,-33.0,46.0,-243.0,-1318.0,-340.0,956.0,-138.0,185.0
246.0,-38.0,42.0,-240.0,-1319.0,-350.0,960.0,-146.0,187.0
243.0,-37.0,50.0,-236.0,-1317.0,-358.0,952.0,-156.0,198.0
242.0,-41.0,50.0,-226.0,-1311.0,-365.0,952.0,-155.0,201.0
238.0,-38.0,52.0,-217.0,-1308.0,-375.0,933.0,-160.0,204.0
234.0,-38.0,52.0,-202.0,-1307.0,-385.0,923.0,-159.0,211.0
233.0,-40.0,52.0,-184.0,-1315.0,-391.0,919.0,-157.0,215.0
228.0,-37.0,54.0,-166.0,-1325.0,-400.0,904.0,-154.0,212.0
230.0,-37.0,49.0,-146.0,-1339.0,-404.0,904.0,-147.0,211.0
227.0,-33.0,46.0,-125.0,-1350.0,-407.0,904.0,-144.0,199.0
232.0,-34.0,47.0,-105.0,-1359.0,-409.0,905.0,-132.0,195.0
236.0,-28.0,42.0,-89.0,-1363.0,-411.0,919.0,-124.0,185.0
235.0,-24.0,47.0,-77.0,-1365.0,-410.0,925.0,-110.0,180.0
235.0,-23.0,43.0,-68.0,-1363.0,-407.0,927.0,-98.0,173.0
237.0,-17.0,40.0,-63.0,-1360.0,-401.0,939.0,-85.0,163.0
242.0,-14.0,38.0,-62.0,-1356.0,-398.0,945.0,-71.0,155.0
244.0,-11.0,36.0,-68.0,-1349.0,-395.0,956.0,-55.0,140.0
245.0,-8.0,32.0,-76.0,-1345.0,-387.0,961.0,-46.0,126.0
249.0,-6.0,26.0,-87.0,-1339.0,-381.0,974.0,-40.0,124.0
251.0,-3.0,27.0,-100.0,-1336.0,-375.0,982.0,-35.0,112.0
249.0,-7.0,23.0,-113.0,-1330.0,-374.0,978.0,-31.0,99.0
252.0,-2.0,19.0,-123.0,-1324.0,-373.0,991.0,-27.0,88.0
253.0,-1.0,17.0,-130.0,-1314.0,-372.0,990.0,-21.0,68.0
251.0,-6.0,15.0,-137.0,-1296.0,-375.0,1000.0,-14.0,52.0
256.0,-2.0,4.0,-142.0,-1269.0,-379.0,1005.0,-20.0,36.0
261.0,-5.0,3.0,-152.0,-1229.0,-384.0,1020.0,-18.0,25.0
261.0,1.0,4.0,-166.0,-1178.0,-391.0,1027.0,-16.0,9.0
266.0,-1.0,3.0,-182.0,-1119.0,-396.0,1045.0,-20.0,-1.0
265.0,0.0,-1.0,-200.0,-1060.0,-401.0,1053.0,-23.0,1.0
263.0,-3.0,-3.0,-216.0,-1009.0,-409.0,1056.0,-23.0,-10.0
268.0,0.0,-4.0,-231.0,-968.0,-413.0,1060.0,-28.0,-14.0
267.0,-9.0,-6.0,-240.0,-939.0,-415.0,1058.0,-35.0,-20.0
268.0,-9.0,-9.0,-243.0,-918.0,-415.0,1060.0,-34.0,-25.0
264.0,-8.0,-11.0,-236.0,-906.0,-407.0,1057.0,-35.0,-35.0
268.0,-8.0,-11.0,-219.0,-903.0,-396.0,1061.0,-44.0,-50.0
266.0,-9.0,-13.0,-194.0,-903.0,-387.0,1063.0,-36.0,-65.0
267.0,-5.0,-15.0,-163.0,-909.0,-375.0,1060.0,-32.0,-70.0
266.0,-3.0,-19.0,-125.0,-929.0,-362.0,1054.0,-24.0,-75.0
263.0,-4.0,-23.0,-88.0,-954.0,-353.0,1045.0,-18.0,-90.0
257.0,0.0,-27.0,-55.0,-988.0,-342.0,1033.0,-5.0,-107.0
252.0,1.0,-33.0,-28.0,-1031.0,-332.0,1010.0,0.0,-125.0
250.0,5.0,-34.0,-19.0,-1075.0,-323.0,995.0,11.0,-140.0
245.0,5.0,-40.0,-24.0,-1117.0,-314.0,979.0,14.0,-165.0
243.0,7.0,-46.0,-40.0,-1151.0,-303.0,964.0,23.0,-180.0
239.0,4.0,-56.0,-66.0,-1175.0,-289.0,959.0,23.0,-198.0
242.0,10.0,-57.0,-96.0,-1186.0,-275.0,965.0,26.0,-220.0
241.0,8.0,-60.0,-126.0,-1184.0,-265.0,965.0,24.0,-231.0
244.0,7.0,-65.0,-149.0,-1177.0,-259.0,976.0,27.0,-237.0
244.0,6.0,-66.0,-165.0,-1172.0,-259.0,976.0,23.0,-245.0
246.0,8.0,-63.0,-170.0,-1173.0,-260.0,976.0,29.0,-249.0
249.0,6.0,-67.0,-163.0,-1184.0,-258.0,982.0,21.0,-259.0
251.0,6.0,-68.0,-146.0,-1198.0,-257.0,987.0,26.0,-264.0
250.0,5.0,-72.0,-118.0,-1214.0,-251.0,988.0,26.0,-281.0
251.0,5.0,-72.0,-83.0,-1229.0,-247.0,997.0,22.0,-292.0
257.0,3.0,-77.0,-47.0,-1237.0,-244.0,1011.0,23.0,-309.0
253.0,0.0,-79.0,-10.0,-1235.0,-241.0,1023.0,21.0,-327.0
260.0,4.0,-82.0,25.0,-1223.0,-243.0,1038.0,15.0,-335.0
265.0,3.0,-85.0,60.0,-1200.0,-251.0,1057.0,6.0,-344.0
266.0,0.0,-88.0,90.0,-1168.0,-268.0,1064.0,-3.0,-353.0
268.0,0.0,-88.0,111.0,-1133.0,-286.0,1064.0,-8.0,-352.0
265.0,0.0,-88.0,125.0,-1099.0,-301.0,1063.0,-12.0,-345.0
264.0,-6.0,-83.0,130.0,-1075.0,-312.0,1061.0,-14.0,-333.0
265.0,-4.0,-83.0,129.0,-1056.0,-319.0,1053.0,-20.0,-333.0
259.0,-1.0,-80.0,130.0,-1042.0,-324.0,1047.0,-27.0,-324.0
258.0,-2.0,-82.0,131.0,-1033.0,-328.0,1036.0,-28.0,-320.0
258.0,-7.0,-76.0,133.0,-1031.0,-332.0,1017.0,-27.0,-312.0
250.0,-1.0,-84.0,142.0,-1032.0,-331.0,996.0,-15.0,-301.0
246.0,0.0,-75.0,155.0,-1034.0,-324.0,987.0,-10.0,-305.0
246.0,-1.0,-75.0,172.0,-1039.0,-314.0,976.0,-4.0,-307.0
242.0,1.0,-79.0,193.0,-1040.0,-303.0,966.0,-1.0,-309.0
243.0,1.0,-78.0,215.0,-1038.0,-293.0,966.0,9.0,-322.0
238.0,6.0,-79.0,232.0,-1035.0,-286.0,960.0,10.0,-322.0
243.0,2.0,-83.0,245.0,-1028.0,-281.0,963.0,22.0,-333.0
245.0,6.0,-84.0,249.0,-1022.0,-274.0,970.0,27.0,-343.0
246.0,6.0,-85.0,245.0,-1015.0,-268.0,970.0,31.0,-356.0
243.0,10.0,-85.0,231.0,-1013.0,-267.0,971.0,36.0,-366.0
239.0,17.0,-96.0,211.0,-1017.0,-264.0,971.0,41.0,-369.0
245.0,14.0,-94.0,182.0,-1023.0,-265.0,975.0,45.0,-374.0
246.0,16.0,-96.0,148.0,-1031.0,-268.0,975.0,54.0,-374.0
244.0,16.0,-96.0,111.0,-1035.0,-271.0,984.0,54.0,-380.0
243.0,15.0,-94.0,70.0,-1041.0,-278.0,977.0,51.0,-383.0
246.0,14.0,-94.0,27.0,-1042.0,-286.0,981.0,46.0,-372.0
244.0,13.0,-92.0,-9.0,-1039.0,-292.0,979.0,49.0,-369.0
245.0,11.0,-88.0,-35.0,-1031.0,-297.0,974.0,48.0,-362.0
243.0,8.0,-90.0,-47.0,-1019.0,-298.0,974.0,38.0,-353.0
245.0,7.0,-87.0,-44.0,-1004.0,-301.0,966.0,23.0,-344.0
242.0,6.0,-91.0,-30.0,-987.0,-303.0,964.0,22.0,-340.0
234.0,1.0,-85.0,-5.0,-971.0,-308.0,957.0,14.0,-352.0
238.0,3.0,-86.0,27.0,-961.0,-311.0,950.0,20.0,-359.0
237.0,4.0,-92.0,60.0,-952.0,-312.0,944.0,24.0,-367.0
236.0,6.0,-96.0,96.0,-945.0,-316.0,939.0,29.0,-395.0
233.0,10.0,-97.0,129.0,-940.0,-316.0,930.0,32.0,-405.0
237.0,11.0,-104.0,153.0,-932.0,-311.0,939.0,45.0,-418.0
238.0,16.0,-107.0,171.0,-920.0,-310.0,941.0,54.0,-440.0
236.0,19.0,-110.0,182.0,-909.0,-309.0,948.0,70.0,-455.0
239.0,22.0,-119.0,188.0,-893.0,-311.0,947.0,82.0,-468.0
239.0,29.0,-121.0,185.0,-872.0,-307.0,961.0,94.0,-485.0
236.0,31.0,-128.0,174.0,-846.0,-304.0,963.0,109.0,-493.0
238.0,28.0,-122.0,160.0,-818.0,-301.0,961.0,119.0,-512.0
248.0,36.0,-130.0,143.0,-788.0,-295.0,984.0,126.0,-517.0
252.0,36.0,-127.0,118.0,-759.0,-291.0,1000.0,133.0,-520.0
255.0,39.0,-131.0,86.0,-726.0,-285.0,1005.0,134.0,-525.0
257.0,36.0,-131.0,51.0,-684.0,-277.0,1024.0,134.0,-528.0
256.0,37.0,-130.0,22.0,-640.0,-270.0,1026.0,136.0,-526.0
257.0,37.0,-131.0,0.0,-599.0,-263.0,1035.0,143.0,-522.0
259.0,36.0,-129.0,-18.0,-561.0,-256.0,1032.0,147.0,-521.0
259.0,38.0,-134.0,-32.0,-524.0,-247.0,1030.0,145.0,-524.0
258.0,39.0,-137.0,-46.0,-485.0,-237.0,1027.0,144.0,-537.0
255.0,38.0,-130.0,-59.0,-441.0,-228.0,1023.0,147.0,-538.0
256.0,41.0,-137.0,-72.0,-387.0,-219.0,1012.0,144.0,-545.0
252.0,36.0,-132.0,-84.0,-341.0,-211.0,1000.0,139.0,-550.0
248.0,38.0,-133.0,-94.0,-303.0,-202.0,992.0,141.0,-556.0
243.0,38.0,-133.0,-100.0,-265.0,-193.0,976.0,132.0,-560.0
243.0,32.0,-135.0,-99.0,-229.0,-184.0,961.0,127.0,-564.0
235.0,31.0,-140.0,-97.0,-194.0,-170.0,944.0,118.0,-558.0
230.0,28.0,-136.0,-87.0,-165.0,-157.0,923.0,113.0,-558.0
226.0,30.0,-138.0,-73.0,-141.0,-147.0,909.0,105.0,-546.0
222.0,23.0,-135.0,-54.0,-122.0,-136.0,900.0,100.0,-546.0
220.0,21.0,-134.0,-31.0,-108.0,-127.0,882.0,99.0,-538.0
214.0,30.0,-135.0,-1.0,-101.0,-121.0,879.0,91.0,-539.0
218.0,24.0,-131.0,23.0,-96.0,-110.0,874.0,91.0,-540.0
217.0,26.0,-132.0,38.0,-89.0,-101.0,879.0,90.0,-544.0
221.0,25.0,-135.0,48.0,-87.0,-93.0,883.0,92.0,-546.0
220.0,26.0,-136.0,54.0,-88.0,-92.0,886.0,99.0,-552.0
218.0,27.0,-136.0,57.0,-91.0,-90.0,888.0,99.0,-559.0
219.0,26.0,-138.0,58.0,-94.0,-86.0,885.0,95.0,-559.0
218.0,29.0,-140.0,53.0,-100.0,-86.0,888.0,100.0,-564.0
222.0,25.0,-140.0,47.0,-103.0,-86.0,891.0,97.0,-564.0
228.0,25.0,-140.0,39.0,-104.0,-86.0,896.0,92.0,-569.0
225.0,21.0,-137.0,30.0,-102.0,-85.0,901.0,90.0,-564.0
230.0,24.0,-136.0,23.0,-97.0,-87.0,907.0,87.0,-548.0
226.0,21.0,-136.0,18.0,-93.0,-88.0,904.0,86.0,-541.0
227.0,21.0,-132.0,18.0,-89.0,-90.0,912.0,83.0,-526.0
228.0,22.0,-129.0,22.0,-87.0,-93.0,916.0,81.0,-521.0
229.0,21.0,-123.0,27.0,-88.0,-93.0,920.0,78.0,-510.0
225.0,20.0,-125.0,34.0,-89.0,-95.0,920.0,81.0,-509.0
229.0,22.0,-128.0,42.0,-90.0,-94.0,921.0,84.0,-505.0
230.0,21.0,-121.0,51.0,-92.0,-96.0,922.0,77.0,-497.0
231.0,23.0,-121.0,60.0,-91.0,-97.0,927.0,80.0,-499.0
234.0,22.0,-126.0,68.0,-91.0,-99.0,937.0,83.0,-506.0
232.0,18.0,-118.0,74.0,-88.0,-100.0,933.0,76.0,-506.0
241.0,23.0,-128.0,78.0,-83.0,-98.0,937.0,79.0,-513.0
232.0,22.0,-129.0,79.0,-76.0,-97.0,940.0,76.0,-515.0
238.0,20.0,-127.0,76.0,-68.0,-93.0,944.0,79.0,-517.0
235.0,22.0,-127.0,72.0,-60.0,-90.0,940.0,85.0,-515.0
236.0,23.0,-127.0,63.0,-51.0,-85.0,951.0,82.0,-514.0
237.0,23.0,-126.0,57.0,-42.0,-80.0,952.0,84.0,-513.0
237.0,21.0,-130.0,51.0,-36.0,-73.0,950.0,85.0,-508.0
235.0,26.0,-127.0,45.0,-33.0,-67.0,943.0,85.0,-506.0
234.0,25.0,-125.0,38.0,-32.0,-61.0,949.0,91.0,-502.0
235.0,25.0,-123.0,35.0,-37.0,-55.0,945.0,95.0,-493.0
233.0,25.0,-122.0,31.0,-39.0,-47.0,943.0,97.0,-495.0
244.0,26.0,-119.0,29.0,-40.0,-40.0,937.0,96.0,-490.0
235.0,26.0,-118.0,26.0,-41.0,-37.0,936.0,99.0,-494.0
232.0,25.0,-125.0,23.0,-39.0,-33.0,929.0,95.0,-496.0
232.0,28.0,-122.0,21.0,-38.0,-30.0,924.0,95.0,-489.0
230.0,24.0,-121.0,19.0,-32.0,-30.0,921.0,95.0,-494.0
229.0,23.0,-120.0,20.0,-24.0,-28.0,913.0,93.0,-495.0
225.0,27.0,-121.0,20.0,-15.0,-28.0,910.0,93.0,-487.0
227.0,23.0,-121.0,22.0,-5.0,-30.0,911.0,98.0,-495.0
225.0,30.0,-119.0,24.0,4.0,-30.0,905.0,99.0,-494.0
224.0,28.0,-122.0,30.0,10.0,-28.0,905.0,99.0,-492.0
224.0,31.0,-117.0,31.0,12.0,-29.0,906.0,106.0,-487.0
223.0,29.0,-117.0,32.0,12.0,-28.0,912.0,109.0,-489.0
225.0,31.0,-121.0,29.0,11.0,-26.0,904.0,115.0,-486.0
228.0,32.0,-123.0,26.0,6.0,-25.0,908.0,119.0,-494.0
226.0,31.0,-120.0,20.0,2.0,-23.0,912.0,118.0,-491.0
229.0,30.0,-119.0,14.0,-5.0,-22.0,907.0,118.0,-491.0
230.0,27.0,-118.0,10.0,-8.0,-22.0,916.0,110.0,-490.0
226.0,34.0,-121.0,5.0,-10.0,-19.0,920.0,114.0,-493.0
224.0,31.0,-120.0,4.0,-11.0,-18.0,921.0,105.0,-487.0
229.0,30.0,-120.0,4.0,-11.0,-18.0,913.0,102.0,-496.0
226.0,27.0,-117.0,6.0,-10.0,-17.0,912.0,109.0,-492.0
227.0,29.0,-120.0,11.0,-10.0,-18.0,919.0,106.0,-488.0
223.0,42.0,-122.0,17.0,-12.0,-17.0,908.0,104.0,-493.0
228.0,26.0,-121.0,26.0,-15.0,-16.0,906.0,103.0,-489.0
225.0,28.0,-119.0,33.0,-21.0,-17.0,902.0,107.0,-488.0
224.0,31.0,-121.0,39.0,-28.0,-17.0,902.0,104.0,-488.0
224.0,29.0,-121.0,44.0,-34.0,-17.0,899.0,109.0,-492.0
223.0,28.0,-121.0,51.0,-40.0,-17.0,895.0,109.0,-492.0
222.0,32.0,-121.0,56.0,-46.0,-18.0,898.0,111.0,-494.0
225.0,29.0,-124.0,58.0,-51.0,-18.0,894.0,113.0,-500.0
225.0,28.0,-125.0,62.0,-55.0,-17.0,894.0,112.0,-506.0
226.0,32.0,-123.0,63.0,-58.0,-17.0,890.0,115.0,-505.0
225.0,29.0,-128.0,65.0,-64.0,-17.0,901.0,116.0,-507.0
219.0,31.0,-125.0,66.0,-70.0,-17.0,898.0,114.0,-511.0
221.0,32.0,-126.0,68.0,-76.0,-17.0,901.0,119.0,-514.0
221.0,34.0,-129.0,68.0,-81.0,-16.0,899.0,117.0,-517.0
226.0,33.0,-128.0,66.0,-85.0,-16.0,894.0,118.0,-515.0
225.0,35.0,-128.0,64.0,-89.0,-17.0,900.0,122.0,-525.0
222.0,34.0,-130.0,58.0,-90.0,-16.0,896.0,124.0,-528.0
225.0,34.0,-131.0,51.0,-89.0,-14.0,895.0,125.0,-532.0
223.0,31.0,-132.0,41.0,-86.0,-11.0,897.0,120.0,-540.0
223.0,34.0,-133.0,29.0,-84.0,-9.0,901.0,123.0,-531.0
222.0,31.0,-132.0,19.0,-82.0,-6.0,899.0,117.0,-530.0
226.0,30.0,-131.0,10.0,-82.0,-1.0,902.0,119.0,-534.0
231.0,31.0,-120.0,2.0,-80.0,0.0,899.0,115.0,-534.0
226.0,33.0,-132.0,-6.0,-79.0,4.0,902.0,115.0,-529.0
222.0,29.0,-134.0,-12.0,-79.0,7.0,902.0,113.0,-529.0
224.0,27.0,-131.0,-16.0,-78.0,10.0,899.0,112.0,-534.0
223.0,30.0,-132.0,-19.0,-77.0,13.0,903.0,111.0,-529.0
226.0,29.0,-129.0,-21.0,-73.0,17.0,899.0,105.0,-524.0
224.0,26.0,-131.0,-22.0,-69.0,22.0,901.0,105.0,-526.0
225.0,28.0,-133.0,-21.0,-64.0,25.0,899.0,108.0,-533.0
224.0,31.0,-134.0,-20.0,-60.0,30.0,901.0,111.0,-527.0
223.0,27.0,-131.0,-18.0,-58.0,31.0,900.0,110.0,-534.0
225.0,25.0,-135.0,-14.0,-56.0,33.0,895.0,110.0,-537.0
223.0,33.0,-131.0,-13.0,-53.0,34.0,896.0,110.0,-534.0
221.0,29.0,-134.0,-15.0,-52.0,34.0,900.0,104.0,-542.0
222.0,32.0,-132.0,-18.0,-51.0,36.0,892.0,112.0,-537.0
221.0,33.0,-135.0,-23.0,-52.0,36.0,894.0,113.0,-542.0
222.0,29.0,-133.0,-29.0,-49.0,35.0,894.0,109.0,-534.0
220.0,30.0,-133.0,-36.0,-46.0,37.0,895.0,109.0,-525.0
223.0,29.0,-128.0,-41.0,-41.0,34.0,889.0,110.0,-530.0
219.0,33.0,-133.0,-44.0,-36.0,33.0,891.0,105.0,-524.0
223.0,31.0,-133.0,-44.0,-31.0,31.0,891.0,102.0,-524.0
226.0,32.0,-127.0,-45.0,-24.0,28.0,887.0,106.0,-524.0
222.0,26.0,-123.0,-42.0,-19.0,25.0,894.0,100.0,-522.0
218.0,31.0,-130.0,-40.0,-17.0,21.0,899.0,102.0,-525.0
223.0,25.0,-129.0,-38.0,-16.0,19.0,897.0,103.0,-522.0
224.0,27.0,-130.0,-35.0,-16.0,18.0,897.0,100.0,-517.0
223.0,26.0,-129.0,-30.0,-19.0,17.0,893.0,100.0,-523.0
223.0,28.0,-133.0,-26.0,-22.0,15.0,894.0,99.0,-532.0
227.0,25.0,-131.0,-21.0,-25.0,15.0,895.0,101.0,-525.0
220.0,28.0,-133.0,-16.0,-26.0,15.0,893.0,96.0,-528.0
219.0,29.0,-136.0,-11.0,-26.0,14.0,890.0,98.0,-532.0
220.0,29.0,-129.0,-7.0,-26.0,13.0,894.0,97.0,-532.0
219.0,28.0,-132.0,-2.0,-25.0,12.0,891.0,102.0,-535.0
225.0,29.0,-134.0,2.0,-23.0,9.0,889.0,96.0,-532.0
221.0,29.0,-127.0,5.0,-21.0,8.0,888.0,99.0,-538.0
224.0,28.0,-130.0,8.0,-20.0,7.0,891.0,100.0,-534.0
223.0,27.0,-132.0,9.0,-19.0,6.0,891.0,105.0,-533.0
223.0,27.0,-128.0,12.0,-17.0,6.0,895.0,109.0,-532.0
223.0,29.0,-130.0,12.0,-18.0,7.0,897.0,109.0,-541.0
223.0,30.0,-133.0,9.0,-20.0,7.0,893.0,108.0,-537.0
219.0,29.0,-135.0,3.0,-19.0,8.0,899.0,106.0,-540.0
222.0,28.0,-136.0,-2.0,-21.0,8.0,895.0,112.0,-545.0
221.0,29.0,-131.0,-8.0,-23.0,9.0,897.0,107.0,-548.0
224.0,28.0,-139.0,-14.0,-24.0,11.0,900.0,107.0,-548.0
219.0,34.0,-134.0,-16.0,-24.0,13.0,897.0,108.0,-544.0
224.0,31.0,-135.0,-15.0,-26.0,14.0,899.0,106.0,-541.0
224.0,28.0,-132.0,-11.0,-25.0,14.0,899.0,105.0,-541.0
225.0,28.0,-132.0,-4.0,-22.0,14.0,897.0,101.0,-549.0
222.0,31.0,-133.0,3.0,-22.0,14.0,896.0,106.0,-540.0
224.0,29.0,-133.0,9.0,-20.0,16.0,900.0,103.0,-548.0
229.0,29.0,-135.0,13.0,-18.0,16.0,897.0,115.0,-546.0
225.0,27.0,-136.0,15.0,-15.0,17.0,898.0,111.0,-559.0
222.0,32.0,-138.0,12.0,-13.0,20.0,901.0,111.0,-555.0
223.0,27.0,-137.0,4.0,-12.0,18.0,900.0,109.0,-553.0
221.0,31.0,-136.0,-3.0,-8.0,19.0,897.0,108.0,-555.0
217.0,23.0,-133.0,-10.0,-7.0,21.0,894.0,101.0,-553.0
226.0,27.0,-135.0,-15.0,-7.0,19.0,894.0,109.0,-548.0
222.0,28.0,-135.0,-18.0,-5.0,19.0,897.0,103.0,-553.0
225.0,30.0,-134.0,-18.0,-5.0,17.0,891.0,99.0,-549.0
220.0,27.0,-136.0,-15.0,-6.0,15.0,890.0,103.0,-547.0
221.0,24.0,-135.0,-11.0,-4.0,11.0,884.0,99.0,-540.0
220.0,29.0,-136.0,-4.0,-3.0,10.0,882.0,97.0,-555.0
220.0,29.0,-134.0,4.0,-1.0,7.0,891.0,102.0,-546.0
217.0,26.0,-137.0,11.0,1.0,6.0,885.0,99.0,-547.0
223.0,28.0,-136.0,17.0,1.0,5.0,888.0,95.0,-547.0
219.0,28.0,-136.0,23.0,5.0,5.0,888.0,101.0,-549.0
218.0,20.0,-134.0,27.0,5.0,3.0,890.0,101.0,-547.0
220.0,26.0,-134.0,31.0,6.0,2.0,881.0,101.0,-545.0
223.0,28.0,-135.0,35.0,6.0,1.0,889.0,109.0,-531.0
224.0,28.0,-134.0,39.0,3.0,-1.0,890.0,102.0,-538.0
220.0,31.0,-132.0,41.0,2.0,-3.0,891.0,105.0,-537.0
221.0,27.0,-135.0,42.0,-1.0,-5.0,885.0,108.0,-536.0
224.0,28.0,-131.0,42.0,-1.0,-7.0,890.0,107.0,-544.0
221.0,27.0,-133.0,38.0,-4.0,-8.0,889.0,109.0,-549.0
225.0,26.0,-135.0,34.0,-4.0,-10.0,893.0,109.0,-551.0
221.0,29.0,-132.0,30.0,-2.0,-10.0,894.0,106.0,-550.0
223.0,28.0,-134.0,28.0,-1.0,-11.0,888.0,106.0,-546.0
216.0,31.0,-131.0,29.0,3.0,-13.0,897.0,108.0,-547.0
224.0,28.0,-134.0,30.0,7.0,-14.0,888.0,104.0,-546.0
221.0,30.0,-129.0,34.0,12.0,-14.0,891.0,102.0,-533.0
223.0,30.0,-130.0,40.0,15.0,-16.0,886.0,109.0,-540.0
220.0,28.0,-132.0,45.0,18.0,-16.0,888.0,104.0,-534.0
222.0,27.0,-130.0,52.0,19.0,-17.0,888.0,111.0,-529.0
221.0,28.0,-135.0,57.0,20.0,-15.0,890.0,109.0,-528.0
218.0,31.0,-131.0,61.0,18.0,-13.0,895.0,108.0,-529.0
222.0,28.0,-135.0,63.0,19.0,-13.0,889.0,110.0,-536.0
223.0,27.0,-128.0,64.0,15.0,-12.0,896.0,107.0,-540.0
223.0,32.0,-132.0,67.0,11.0,-11.0,893.0,110.0,-532.0
218.0,29.0,-138.0,66.0,8.0,-12.0,891.0,113.0,-530.0
223.0,29.0,-132.0,68.0,3.0,-12.0,897.0,110.0,-531.0
221.0,30.0,-137.0,69.0,-1.0,-12.0,896.0,114.0,-533.0
224.0,30.0,-133.0,70.0,-2.0,-10.0,898.0,113.0,-538.0
223.0,31.0,-130.0,69.0,-4.0,-11.0,900.0,111.0,-537.0
221.0,30.0,-133.0,68.0,-1.0,-10.0,898.0,112.0,-540.0
222.0,31.0,-133.0,63.0,-1.0,-9.0,898.0,106.0,-543.0
225.0,25.0,-136.0,60.0,-1.0,-11.0,894.0,107.0,-534.0
224.0,32.0,-134.0,55.0,-1.0,-10.0,892.0,117.0,-540.0
219.0,32.0,-127.0,50.0,0.0,-10.0,895.0,108.0,-538.0
226.0,28.0,-134.0,44.0,-1.0,-9.0,893.0,107.0,-532.0
219.0,29.0,-135.0,41.0,-1.0,-6.0,889.0,109.0,-535.0
222.0,30.0,-131.0,38.0,-2.0,-7.0,891.0,110.0,-538.0
221.0,29.0,-130.0,37.0,-1.0,-5.0,892.0,103.0,-540.0
222.0,30.0,-134.0,35.0,-2.0,-4.0,894.0,106.0,-538.0
224.0,27.0,-132.0,37.0,-2.0,-6.0,896.0,104.0,-526.0
225.0,25.0,-133.0,41.0,-1.0,-6.0,892.0,105.0,-531.0
222.0,26.0,-134.0,44.0,-2.0,-6.0,897.0,102.0,-543.0
222.0,25.0,-131.0,45.0,0.0,-7.0,899.0,98.0,-538.0
220.0,25.0,-127.0,47.0,-1.0,-8.0,895.0,100.0,-546.0
224.0,22.0,-129.0,46.0,2.0,-9.0,893.0,100.0,-538.0
223.0,29.0,-129.0,44.0,4.0,-10.0,892.0,101.0,-530.0
223.0,28.0,-129.0,43.0,5.0,-10.0,889.0,99.0,-522.0
220.0,25.0,-132.0,43.0,5.0,-12.0,896.0,100.0,-530.0
222.0,29.0,-133.0,42.0,7.0,-13.0,883.0,98.0,-530.0
223.0,24.0,-133.0,42.0,6.0,-11.0,888.0,98.0,-537.0
219.0,30.0,-132.0,41.0,6.0,-14.0,888.0,103.0,-530.0
221.0,28.0,-136.0,39.0,3.0,-16.0,890.0,100.0,-534.0
221.0,28.0,-135.0,40.0,1.0,-15.0,884.0,106.0,-541.0
219.0,28.0,-128.0,42.0,-2.0,-17.0,892.0,101.0,-548.0
220.0,27.0,-132.0,42.0,-6.0,-18.0,887.0,103.0,-547.0
222.0,29.0,-132.0,44.0,-9.0,-19.0,885.0,102.0,-540.0
220.0,27.0,-134.0,45.0,-12.0,-20.0,885.0,105.0,-540.0
216.0,24.0,-137.0,45.0,-13.0,-21.0,882.0,104.0,-549.0
220.0,25.0,-134.0,46.0,-15.0,-21.0,886.0,102.0,-552.0
217.0,27.0,-134.0,45.0,-16.0,-22.0,883.0,100.0,-547.0
221.0,28.0,-134.0,45.0,-14.0,-23.0,880.0,105.0,-547.0
222.0,26.0,-136.0,45.0,-10.0,-23.0,880.0,104.0,-548.0
224.0,29.0,-135.0,45.0,-6.0,-23.0,884.0,104.0,-535.0
218.0,27.0,-140.0,46.0,-3.0,-20.0,890.0,105.0,-551.0
222.0,29.0,-134.0,46.0,1.0,-20.0,895.0,106.0,-547.0
225.0,27.0,-132.0,46.0,6.0,-19.0,896.0,103.0,-549.0
224.0,30.0,-133.0,46.0,9.0,-21.0,897.0,111.0,-548.0
226.0,31.0,-135.0,48.0,11.0,-22.0,901.0,111.0,-551.0
222.0,31.0,-136.0,50.0,12.0,-21.0,900.0,110.0,-548.0
224.0,27.0,-136.0,53.0,16.0,-21.0,897.0,116.0,-547.0
224.0,29.0,-129.0,53.0,18.0,-20.0,899.0,113.0,-549.0
225.0,30.0,-134.0,52.0,21.0,-20.0,898.0,117.0,-550.0
223.0,31.0,-136.0,50.0,25.0,-20.0,896.0,111.0,-553.0
223.0,29.0,-134.0,47.0,29.0,-18.0,894.0,112.0,-550.0
222.0,31.0,-137.0,45.0,35.0,-17.0,893.0,111.0,-552.0
225.0,30.0,-134.0,41.0,38.0,-17.0,897.0,112.0,-552.0
221.0,31.0,-140.0,39.0,41.0,-14.0,892.0,112.0,-555.0
222.0,30.0,-133.0,37.0,44.0,-11.0,896.0,107.0,-551.0
223.0,23.0,-137.0,35.0,46.0,-9.0,896.0,107.0,-552.0
222.0,30.0,-133.0,35.0,46.0,-8.0,898.0,104.0,-552.0
222.0,27.0,-132.0,34.0,47.0,-8.0,891.0,102.0,-552.0
219.0,29.0,-133.0,36.0,47.0,-7.0,894.0,100.0,-540.0
222.0,25.0,-133.0,38.0,45.0,-6.0,894.0,105.0,-547.0
221.0,25.0,-133.0,42.0,42.0,-6.0,883.0,96.0,-534.0
220.0,23.0,-133.0,47.0,38.0,-5.0,883.0,101.0,-539.0
218.0,24.0,-132.0,53.0,35.0,-5.0,893.0,100.0,-539.0
219.0,29.0,-130.0,60.0,35.0,-7.0,887.0,104.0,-533.0
220.0,25.0,-136.0,65.0,34.0,-8.0,889.0,101.0,-536.0
223.0,28.0,-130.0,68.0,33.0,-10.0,886.0,107.0,-534.0
214.0,33.0,-130.0,70.0,31.0,-10.0,881.0,111.0,-533.0
223.0,30.0,-134.0,65.0,28.0,-11.0,881.0,119.0,-537.0
221.0,31.0,-134.0,56.0,25.0,-11.0,884.0,112.0,-535.0
224.0,30.0,-134.0,42.0,21.0,-11.0,887.0,115.0,-538.0
221.0,33.0,-132.0,28.0,18.0,-10.0,889.0,117.0,-533.0
222.0,30.0,-135.0,16.0,16.0,-10.0,894.0,112.0,-534.0
222.0,30.0,-129.0,9.0,15.0,-9.0,893.0,115.0,-525.0
224.0,28.0,-129.0,5.0,15.0,-8.0,895.0,111.0,-524.0
222.0,27.0,-128.0,8.0,16.0,-7.0,899.0,105.0,-524.0
224.0,26.0,-127.0,13.0,17.0,-8.0,900.0,109.0,-517.0
226.0,29.0,-132.0,21.0,19.0,-6.0,902.0,101.0,-522.0
224.0,30.0,-130.0,31.0,23.0,-8.0,895.0,106.0,-524.0
224.0,26.0,-127.0,38.0,25.0,-8.0,900.0,108.0,-524.0
219.0,30.0,-131.0,47.0,28.0,-8.0,893.0,104.0,-525.0
222.0,31.0,-132.0,54.0,29.0,-7.0,896.0,112.0,-535.0
225.0,29.0,-131.0,59.0,32.0,-6.0,897.0,109.0,-529.0
224.0,28.0,-133.0,63.0,34.0,-6.0,894.0,113.0,-535.0
224.0,30.0,-132.0,65.0,35.0,-6.0,896.0,114.0,-531.0
224.0,30.0,-135.0,69.0,36.0,-6.0,897.0,119.0,-540.0
222.0,36.0,-131.0,67.0,38.0,-4.0,893.0,114.0,-535.0
224.0,30.0,-130.0,67.0,41.0,-4.0,897.0,122.0,-534.0
227.0,31.0,-134.0,65.0,42.0,-3.0,893.0,117.0,-540.0
223.0,33.0,-133.0,62.0,43.0,-2.0,897.0,123.0,-535.0
225.0,29.0,-121.0,61.0,45.0,-1.0,899.0,117.0,-531.0
226.0,31.0,-129.0,61.0,44.0,0.0,895.0,112.0,-531.0
225.0,32.0,-131.0,60.0,41.0,1.0,894.0,113.0,-535.0
223.0,31.0,-134.0,60.0,37.0,1.0,892.0,120.0,-535.0
223.0,30.0,-134.0,57.0,36.0,3.0,889.0,112.0,-543.0
222.0,31.0,-131.0,56.0,36.0,4.0,891.0,112.0,-534.0
224.0,33.0,-129.0,55.0,36.0,3.0,890.0,113.0,-547.0
222.0,29.0,-134.0,53.0,36.0,4.0,888.0,101.0,-533.0
222.0,26.0,-131.0,52.0,36.0,3.0,889.0,112.0,-529.0
223.0,28.0,-130.0,52.0,37.0,2.0,891.0,106.0,-533.0
220.0,25.0,-131.0,53.0,39.0,1.0,894.0,108.0,-537.0
221.0,28.0,-128.0,54.0,41.0,-2.0,889.0,107.0,-537.0
223.0,26.0,-134.0,56.0,43.0,-2.0,893.0,103.0,-540.0
222.0,26.0,-133.0,57.0,41.0,-1.0,889.0,102.0,-529.0
222.0,27.0,-132.0,58.0,39.0,-2.0,892.0,102.0,-542.0
222.0,27.0,-130.0,61.0,38.0,0.0,896.0,101.0,-539.0
222.0,28.0,-130.0,62.0,35.0,0.0,893.0,99.0,-531.0
222.0,26.0,-132.0,65.0,32.0,0.0,898.0,100.0,-536.0
220.0,28.0,-131.0,68.0,31.0,0.0,895.0,99.0,-527.0
225.0,27.0,-135.0,72.0,29.0,1.0,897.0,104.0,-535.0
223.0,29.0,-138.0,74.0,28.0,1.0,896.0,97.0,-529.0
230.0,30.0,-134.0,77.0,25.0,4.0,897.0,104.0,-527.0
224.0,27.0,-134.0,78.0,23.0,3.0,899.0,101.0,-528.0
224.0,28.0,-131.0,77.0,23.0,2.0,901.0,103.0,-538.0
226.0,28.0,-131.0,77.0,22.0,4.0,897.0,106.0,-541.0
223.0,27.0,-134.0,75.0,21.0,4.0,896.0,106.0,-540.0
224.0,26.0,-130.0,75.0,23.0,4.0,895.0,100.0,-537.0
223.0,27.0,-132.0,73.0,24.0,6.0,893.0,106.0,-528.0
222.0,31.0,-133.0,71.0,26.0,5.0,892.0,102.0,-532.0
225.0,28.0,-134.0,68.0,28.0,6.0,891.0,103.0,-530.0
221.0,31.0,-136.0,65.0,30.0,6.0,889.0,106.0,-530.0
222.0,29.0,-131.0,62.0,31.0,2.0,893.0,104.0,-529.0
225.0,26.0,-129.0,58.0,32.0,4.0,892.0,105.0,-527.0
221.0,25.0,-132.0,54.0,32.0,4.0,892.0,101.0,-534.0
221.0,31.0,-132.0,47.0,31.0,3.0,890.0,100.0,-529.0
223.0,29.0,-130.0,43.0,31.0,2.0,892.0,100.0,-528.0
221.0,29.0,-130.0,37.0,30.0,2.0,889.0,101.0,-524.0
225.0,28.0,-130.0,34.0,28.0,2.0,888.0,98.0,-528.0
222.0,28.0,-128.0,31.0,26.0,3.0,891.0,104.0,-521.0
220.0,30.0,-133.0,28.0,25.0,-2.0,892.0,101.0,-531.0
223.0,27.0,-130.0,25.0,23.0,-3.0,895.0,104.0,-535.0
219.0,32.0,-131.0,25.0,26.0,-4.0,894.0,106.0,-525.0
220.0,28.0,-133.0,23.0,27.0,-5.0,894.0,105.0,-520.0
217.0,23.0,-131.0,21.0,27.0,-5.0,894.0,107.0,-526.0
224.0,31.0,-127.0,17.0,30.0,-6.0,895.0,110.0,-530.0
223.0,29.0,-130.0,12.0,33.0,-4.0,895.0,105.0,-528.0
226.0,29.0,-134.0,6.0,35.0,-5.0,896.0,110.0,-531.0
222.0,31.0,-130.0,-1.0,40.0,-5.0,889.0,107.0,-523.0
222.0,29.0,-134.0,-8.0,45.0,-5.0,893.0,106.0,-531.0
225.0,28.0,-132.0,-17.0,53.0,-6.0,895.0,111.0,-526.0
225.0,26.0,-136.0,-21.0,58.0,-11.0,892.0,108.0,-529.0
221.0,30.0,-130.0,-28.0,67.0,-8.0,900.0,109.0,-528.0
225.0,31.0,-129.0,-35.0,72.0,-9.0,893.0,110.0,-528.0
223.0,28.0,-132.0,-40.0,75.0,-11.0,898.0,111.0,-530.0
220.0,31.0,-123.0,-44.0,77.0,-12.0,894.0,108.0,-533.0
220.0,30.0,-129.0,-50.0,81.0,-12.0,893.0,103.0,-529.0
224.0,25.0,-129.0,-52.0,80.0,-11.0,889.0,102.0,-532.0
220.0,28.0,-133.0,-53.0,77.0,-10.0,884.0,100.0,-524.0
222.0,24.0,-127.0,-51.0,73.0,-12.0,888.0,97.0,-525.0
219.0,26.0,-132.0,-48.0,70.0,-12.0,887.0,97.0,-524.0
222.0,23.0,-127.0,-42.0,64.0,-12.0,887.0,95.0,-517.0
221.0,24.0,-124.0,-35.0,57.0,-12.0,884.0,93.0,-515.0
222.0,24.0,-130.0,-27.0,50.0,-13.0,889.0,97.0,-516.0
222.0,24.0,-125.0,-17.0,42.0,-14.0,894.0,95.0,-509.0
220.0,29.0,-128.0,-10.0,37.0,-17.0,897.0,102.0,-512.0
224.0,28.0,-124.0,0.0,33.0,-18.0,897.0,105.0,-509.0
224.0,29.0,-128.0,9.0,31.0,-21.0,902.0,103.0,-511.0
229.0,27.0,-128.0,17.0,28.0,-23.0,900.0,113.0,-516.0
227.0,30.0,-128.0,24.0,27.0,-23.0,910.0,112.0,-516.0
226.0,30.0,-129.0,29.0,28.0,-24.0,904.0,107.0,-524.0
228.0,27.0,-130.0,32.0,26.0,-23.0,910.0,111.0,-527.0
228.0,30.0,-134.0,32.0,24.0,-25.0,906.0,113.0,-528.0
227.0,31.0,-129.0,33.0,24.0,-24.0,906.0,122.0,-534.0
226.0,28.0,-129.0,35.0,25.0,-23.0,904.0,113.0,-537.0
225.0,33.0,-123.0,35.0,29.0,-20.0,905.0,115.0,-531.0
228.0,28.0,-126.0,34.0,33.0,-20.0,900.0,113.0,-525.0
225.0,32.0,-128.0,35.0,38.0,-19.0,899.0,113.0,-530.0
224.0,30.0,-127.0,33.0,44.0,-17.0,900.0,115.0,-525.0
224.0,34.0,-129.0,28.0,50.0,-14.0,899.0,115.0,-519.0
226.0,31.0,-130.0,25.0,55.0,-12.0,903.0,118.0,-522.0
223.0,32.0,-126.0,20.0,57.0,-8.0,898.0,115.0,-518.0
228.0,29.0,-128.0,19.0,56.0,-6.0,901.0,114.0,-520.0
227.0,29.0,-130.0,20.0,55.0,-6.0,902.0,111.0,-518.0
224.0,30.0,-124.0,25.0,53.0,-6.0,901.0,107.0,-513.0
225.0,30.0,-128.0,30.0,49.0,-5.0,902.0,113.0,-518.0
223.0,27.0,-128.0,35.0,46.0,-6.0,904.0,113.0,-514.0
223.0,27.0,-130.0,41.0,43.0,-8.0,902.0,111.0,-512.0
226.0,29.0,-128.0,44.0,40.0,-7.0,895.0,113.0,-514.0
224.0,30.0,-129.0,46.0,40.0,-9.0,898.0,116.0,-515.0
224.0,31.0,-125.0,45.0,39.0,-9.0,899.0,113.0,-517.0
225.0,30.0,-128.0,42.0,40.0,-9.0,901.0,120.0,-519.0
223.0,30.0,-128.0,37.0,42.0,-7.0,899.0,123.0,-513.0
226.0,33.0,-126.0,30.0,44.0,-8.0,900.0,122.0,-510.0
223.0,36.0,-121.0,24.0,45.0,-6.0,901.0,124.0,-510.0
224.0,36.0,-127.0,18.0,45.0,-8.0,900.0,115.0,-516.0
227.0,31.0,-126.0,14.0,44.0,-7.0,901.0,117.0,-513.0
224.0,30.0,-127.0,13.0,44.0,-7.0,901.0,116.0,-512.0
229.0,30.0,-128.0,17.0,43.0,-8.0,904.0,111.0,-516.0
226.0,30.0,-127.0,22.0,41.0,-12.0,903.0,112.0,-515.0
222.0,29.0,-126.0,29.0,40.0,-13.0,900.0,111.0,-515.0
224.0,29.0,-126.0,39.0,41.0,-15.0,900.0,109.0,-526.0
225.0,28.0,-130.0,49.0,43.0,-17.0,894.0,110.0,-519.0
221.0,28.0,-127.0,63.0,46.0,-20.0,894.0,110.0,-521.0
221.0,30.0,-127.0,72.0,51.0,-20.0,892.0,110.0,-519.0
222.0,28.0,-125.0,80.0,56.0,-20.0,893.0,104.0,-521.0
227.0,28.0,-129.0,84.0,59.0,-21.0,897.0,105.0,-519.0
222.0,31.0,-127.0,89.0,64.0,-22.0,896.0,102.0,-519.0
222.0,30.0,-125.0,88.0,68.0,-21.0,902.0,107.0,-515.0
223.0,29.0,-130.0,87.0,69.0,-22.0,899.0,109.0,-515.0
223.0,27.0,-127.0,85.0,69.0,-22.0,902.0,103.0,-508.0
224.0,28.0,-126.0,82.0,69.0,-23.0,901.0,102.0,-509.0
226.0,27.0,-129.0,81.0,65.0,-23.0,900.0,100.0,-514.0
224.0,24.0,-126.0,79.0,59.0,-22.0,902.0,96.0,-508.0
222.0,28.0,-128.0,81.0,50.0,-23.0,899.0,96.0,-510.0
223.0,27.0,-127.0,87.0,39.0,-21.0,898.0,100.0,-510.0
224.0,29.0,-126.0,90.0,30.0,-22.0,898.0,97.0,-514.0
226.0,27.0,-129.0,95.0,23.0,-24.0,900.0,98.0,-517.0
224.0,26.0,-128.0,100.0,16.0,-24.0,897.0,103.0,-519.0
221.0,28.0,-130.0,101.0,13.0,-25.0,902.0,106.0,-523.0
223.0,29.0,-116.0,101.0,11.0,-27.0,901.0,106.0,-521.0
224.0,33.0,-125.0,97.0,7.0,-30.0,908.0,113.0,-518.0
225.0,30.0,-132.0,90.0,5.0,-29.0,903.0,116.0,-526.0
225.0,34.0,-128.0,84.0,1.0,-31.0,906.0,118.0,-528.0
229.0,35.0,-132.0,78.0,-2.0,-33.0,907.0,123.0,-521.0
229.0,33.0,-132.0,74.0,-4.0,-34.0,906.0,117.0,-522.0
229.0,28.0,-131.0,72.0,-6.0,-33.0,902.0,122.0,-525.0
226.0,33.0,-128.0,72.0,-7.0,-31.0,904.0,118.0,-530.0
228.0,35.0,-128.0,72.0,-8.0,-32.0,912.0,115.0,-524.0
227.0,30.0,-129.0,74.0,-7.0,-31.0,916.0,114.0,-527.0
223.0,31.0,-130.0,76.0,-6.0,-29.0,904.0,124.0,-524.0
224.0,31.0,-125.0,78.0,-5.0,-29.0,905.0,114.0,-527.0
229.0,30.0,-131.0,81.0,-2.0,-28.0,904.0,119.0,-518.0
227.0,29.0,-131.0,84.0,0.0,-27.0,901.0,111.0,-524.0
226.0,32.0,-125.0,86.0,2.0,-26.0,904.0,118.0,-523.0
223.0,29.0,-127.0,85.0,5.0,-24.0,903.0,115.0,-522.0
225.0,30.0,-126.0,81.0,8.0,-26.0,905.0,113.0,-520.0
227.0,30.0,-131.0,79.0,10.0,-26.0,904.0,119.0,-521.0
223.0,32.0,-132.0,74.0,10.0,-25.0,901.0,112.0,-520.0
225.0,34.0,-126.0,69.0,9.0,-25.0,902.0,118.0,-520.0
226.0,32.0,-131.0,61.0,6.0,-24.0,902.0,116.0,-518.0
224.0,33.0,-130.0,55.0,1.0,-24.0,903.0,118.0,-522.0
222.0,42.0,-131.0,49.0,-4.0,-22.0,902.0,120.0,-524.0
227.0,26.0,-127.0,45.0,-8.0,-20.0,898.0,120.0,-517.0
224.0,33.0,-127.0,40.0,-9.0,-19.0,899.0,113.0,-517.0
225.0,33.0,-125.0,38.0,-11.0,-21.0,900.0,119.0,-522.0
223.0,32.0,-131.0,36.0,-12.0,-22.0,902.0,115.0,-519.0
226.0,29.0,-129.0,37.0,-12.0,-20.0,904.0,107.0,-512.0
222.0,34.0,-125.0,36.0,-11.0,-21.0,901.0,109.0,-522.0
224.0,33.0,-126.0,35.0,-12.0,-22.0,898.0,114.0,-523.0
224.0,33.0,-132.0,35.0,-11.0,-21.0,899.0,114.0,-514.0
224.0,29.0,-128.0,35.0,-11.0,-21.0,901.0,114.0,-521.0
224.0,29.0,-130.0,35.0,-10.0,-21.0,900.0,114.0,-516.0
230.0,31.0,-131.0,36.0,-9.0,-21.0,897.0,111.0,-521.0
224.0,28.0,-126.0,37.0,-8.0,-19.0,897.0,111.0,-527.0
224.0,30.0,-125.0,37.0,-7.0,-20.0,900.0,112.0,-517.0
224.0,32.0,-127.0,37.0,-5.0,-20.0,899.0,115.0,-513.0
226.0,30.0,-128.0,36.0,-6.0,-20.0,900.0,114.0,-510.0
225.0,28.0,-130.0,35.0,-5.0,-19.0,900.0,115.0,-520.0
225.0,31.0,-129.0,32.0,-4.0,-18.0,900.0,119.0,-518.0
225.0,32.0,-128.0,29.0,-3.0,-18.0,900.0,119.0,-519.0
225.0,30.0,-126.0,26.0,-2.0,-17.0,898.0,116.0,-518.0
222.0,34.0,-128.0,25.0,2.0,-18.0,898.0,115.0,-519.0
221.0,32.0,-130.0,23.0,3.0,-16.0,902.0,117.0,-521.0
226.0,32.0,-129.0,23.0,4.0,-17.0,904.0,112.0,-525.0
224.0,29.0,-131.0,24.0,5.0,-15.0,902.0,118.0,-521.0
222.0,30.0,-130.0,27.0,4.0,-16.0,903.0,111.0,-522.0
226.0,29.0,-131.0,30.0,3.0,-15.0,901.0,112.0,-528.0
225.0,28.0,-131.0,32.0,2.0,-14.0,900.0,111.0,-525.0
223.0,32.0,-129.0,37.0,2.0,-15.0,895.0,111.0,-531.0
224.0,33.0,-133.0,39.0,1.0,-15.0,900.0,117.0,-525.0
222.0,32.0,-132.0,44.0,1.0,-14.0,899.0,115.0,-522.0
224.0,26.0,-132.0,47.0,2.0,-16.0,894.0,120.0,-527.0
222.0,32.0,-127.0,50.0,5.0,-14.0,900.0,115.0,-526.0
224.0,32.0,-126.0,53.0,6.0,-12.0,901.0,114.0,-524.0
225.0,32.0,-130.0,54.0,10.0,-14.0,900.0,120.0,-524.0
223.0,33.0,-127.0,54.0,12.0,-14.0,898.0,121.0,-516.0
225.0,34.0,-132.0,53.0,10.0,-13.0,899.0,125.0,-523.0
224.0,31.0,-131.0,51.0,11.0,-13.0,900.0,120.0,-532.0
226.0,29.0,-129.0,50.0,11.0,-14.0,903.0,114.0,-523.0
225.0,33.0,-128.0,49.0,11.0,-15.0,902.0,111.0,-523.0
225.0,28.0,-129.0,47.0,10.0,-14.0,900.0,111.0,-519.0
226.0,30.0,-127.0,45.0,11.0,-13.0,899.0,113.0,-528.0
223.0,31.0,-131.0,43.0,11.0,-13.0,901.0,113.0,-524.0
220.0,33.0,-127.0,43.0,11.0,-16.0,895.0,112.0,-522.0
226.0,26.0,-132.0,42.0,11.0,-15.0,901.0,116.0,-520.0
225.0,30.0,-131.0,40.0,10.0,-14.0,900.0,118.0,-518.0
223.0,31.0,-128.0,39.0,10.0,-15.0,896.0,114.0,-520.0
226.0,32.0,-128.0,38.0,9.0,-14.0,899.0,114.0,-516.0
224.0,29.0,-130.0,38.0,8.0,-14.0,892.0,116.0,-520.0
221.0,32.0,-129.0,39.0,7.0,-14.0,900.0,115.0,-514.0
224.0,33.0,-125.0,40.0,5.0,-15.0,900.0,118.0,-514.0
224.0,30.0,-128.0,41.0,5.0,-14.0,902.0,113.0,-516.0
225.0,31.0,-130.0,46.0,7.0,-16.0,901.0,112.0,-516.0
224.0,33.0,-132.0,50.0,7.0,-17.0,900.0,123.0,-517.0
227.0,31.0,-130.0,54.0,9.0,-15.0,898.0,114.0,-513.0
222.0,32.0,-134.0,57.0,10.0,-16.0,901.0,113.0,-518.0
223.0,32.0,-127.0,58.0,10.0,-16.0,900.0,114.0,-519.0
226.0,28.0,-129.0,59.0,9.0,-15.0,898.0,120.0,-518.0
226.0,30.0,-128.0,58.0,8.0,-15.0,902.0,119.0,-524.0
224.0,33.0,-131.0,55.0,9.0,-14.0,898.0,113.0,-522.0
224.0,31.0,-128.0,52.0,10.0,-14.0,899.0,114.0,-521.0
224.0,32.0,-128.0,49.0,11.0,-15.0,896.0,122.0,-520.0
223.0,33.0,-131.0,47.0,11.0,-15.0,900.0,118.0,-516.0
226.0,30.0,-129.0,45.0,11.0,-13.0,901.0,115.0,-512.0
224.0,30.0,-128.0,44.0,11.0,-14.0,899.0,115.0,-516.0
226.0,29.0,-129.0,43.0,13.0,-15.0,897.0,115.0,-519.0
223.0,31.0,-131.0,43.0,14.0,-16.0,900.0,115.0,-515.0
226.0,30.0,-127.0,45.0,15.0,-17.0,903.0,115.0,-524.0
225.0,32.0,-129.0,44.0,16.0,-17.0,897.0,113.0,-521.0
224.0,31.0,-129.0,45.0,18.0,-16.0,899.0,117.0,-524.0
223.0,32.0,-129.0,45.0,16.0,-17.0,899.0,117.0,-520.0
224.0,32.0,-133.0,45.0,15.0,-14.0,903.0,115.0,-519.0
224.0,30.0,-129.0,43.0,12.0,-15.0,898.0,111.0,-520.0
223.0,33.0,-131.0,40.0,10.0,-13.0,901.0,114.0,-525.0
223.0,33.0,-127.0,38.0,10.0,-13.0,900.0,110.0,-523.0
221.0,33.0,-127.0,34.0,8.0,-14.0,897.0,110.0,-519.0
226.0,31.0,-129.0,29.0,7.0,-14.0,902.0,113.0,-516.0
227.0,31.0,-133.0,26.0,8.0,-12.0,897.0,109.0,-521.0
225.0,31.0,-129.0,22.0,7.0,-11.0,898.0,111.0,-521.0
226.0,30.0,-130.0,21.0,4.0,-9.0,902.0,118.0,-523.0
225.0,32.0,-130.0,23.0,2.0,-9.0,900.0,111.0,-516.0
224.0,29.0,-128.0,27.0,-1.0,-12.0,901.0,114.0,-518.0
227.0,32.0,-127.0,31.0,-5.0,-12.0,904.0,116.0,-516.0
226.0,28.0,-129.0,35.0,-8.0,-14.0,901.0,113.0,-518.0
225.0,33.0,-129.0,40.0,-10.0,-15.0,900.0,112.0,-518.0
224.0,28.0,-129.0,42.0,-13.0,-15.0,901.0,110.0,-522.0
223.0,30.0,-128.0,43.0,-15.0,-14.0,899.0,118.0,-525.0
222.0,30.0,-130.0,41.0,-17.0,-14.0,897.0,115.0,-523.0
224.0,31.0,-133.0,40.0,-17.0,-15.0,890.0,115.0,-520.0
226.0,33.0,-127.0,38.0,-16.0,-14.0,900.0,116.0,-514.0
224.0,31.0,-130.0,38.0,-14.0,-12.0,898.0,115.0,-522.0
224.0,32.0,-131.0,38.0,-12.0,-13.0,898.0,123.0,-516.0
225.0,33.0,-130.0,37.0,-9.0,-11.0,901.0,120.0,-520.0
223.0,28.0,-129.0,35.0,-7.0,-12.0,899.0,125.0,-518.0
225.0,32.0,-128.0,33.0,-7.0,-11.0,904.0,123.0,-521.0
224.0,31.0,-130.0,34.0,-5.0,-12.0,902.0,122.0,-523.0
225.0,32.0,-129.0,36.0,-5.0,-10.0,903.0,122.0,-525.0
219.0,34.0,-133.0,37.0,-2.0,-11.0,902.0,127.0,-526.0
221.0,37.0,-127.0,40.0,0.0,-11.0,900.0,120.0,-527.0
220.0,30.0,-120.0,43.0,2.0,-11.0,898.0,118.0,-525.0
225.0,30.0,-132.0,44.0,4.0,-10.0,900.0,124.0,-524.0
225.0,31.0,-132.0,46.0,5.0,-9.0,899.0,125.0,-527.0
224.0,33.0,-130.0,45.0,7.0,-8.0,904.0,124.0,-528.0
225.0,30.0,-132.0,46.0,7.0,-7.0,903.0,122.0,-530.0
224.0,31.0,-132.0,45.0,7.0,-7.0,898.0,119.0,-524.0
222.0,32.0,-133.0,44.0,5.0,-6.0,900.0,122.0,-525.0
228.0,32.0,-130.0,41.0,5.0,-5.0,899.0,115.0,-519.0
227.0,29.0,-132.0,39.0,4.0,-5.0,894.0,114.0,-526.0
224.0,27.0,-128.0,37.0,3.0,-4.0,900.0,110.0,-527.0
228.0,28.0,-128.0,40.0,4.0,-2.0,902.0,106.0,-529.0
230.0,23.0,-132.0,46.0,5.0,-2.0,909.0,106.0,-525.0
229.0,28.0,-131.0,53.0,8.0,0.0,911.0,103.0,-527.0
233.0,28.0,-135.0,65.0,15.0,2.0,925.0,110.0,-534.0
232.0,32.0,-132.0,74.0,25.0,3.0,932.0,115.0,-542.0
238.0,32.0,-134.0,83.0,33.0,3.0,940.0,117.0,-551.0
235.0,31.0,-136.0,90.0,42.0,6.0,946.0,128.0,-558.0
235.0,32.0,-137.0,92.0,50.0,9.0,944.0,130.0,-557.0
241.0,34.0,-141.0,89.0,59.0,13.0,955.0,135.0,-575.0
239.0,36.0,-138.0,82.0,67.0,18.0,957.0,139.0,-580.0
241.0,37.0,-142.0,68.0,76.0,24.0,966.0,138.0,-581.0
238.0,35.0,-145.0,51.0,87.0,29.0,962.0,140.0,-589.0
241.0,36.0,-139.0,35.0,100.0,34.0,965.0,136.0,-580.0
241.0,35.0,-140.0,21.0,115.0,40.0,954.0,137.0,-570.0
236.0,36.0,-135.0,11.0,129.0,44.0,957.0,130.0,-562.0
237.0,31.0,-135.0,5.0,144.0,47.0,946.0,126.0,-546.0
230.0,31.0,-130.0,4.0,156.0,50.0,934.0,124.0,-530.0
228.0,31.0,-131.0,6.0,169.0,50.0,917.0,120.0,-523.0
226.0,26.0,-124.0,10.0,181.0,48.0,899.0,111.0,-519.0
221.0,28.0,-127.0,17.0,198.0,46.0,893.0,100.0,-504.0
224.0,23.0,-123.0,25.0,218.0,45.0,885.0,99.0,-508.0
220.0,26.0,-125.0,33.0,240.0,41.0,878.0,96.0,-499.0
216.0,26.0,-127.0,41.0,264.0,36.0,876.0,91.0,-503.0
219.0,26.0,-124.0,47.0,285.0,33.0,875.0,93.0,-502.0
217.0,25.0,-123.0,55.0,305.0,27.0,863.0,95.0,-503.0
217.0,23.0,-124.0,64.0,323.0,24.0,873.0,97.0,-511.0
218.0,24.0,-130.0,72.0,335.0,22.0,870.0,104.0,-514.0
215.0,27.0,-129.0,81.0,342.0,22.0,879.0,105.0,-518.0
214.0,31.0,-127.0,89.0,346.0,24.0,879.0,111.0,-517.0
222.0,31.0,-130.0,97.0,346.0,27.0,876.0,114.0,-527.0
225.0,27.0,-129.0,105.0,344.0,31.0,887.0,119.0,-525.0
228.0,31.0,-132.0,112.0,341.0,36.0,903.0,122.0,-537.0
231.0,34.0,-132.0,120.0,340.0,39.0,921.0,130.0,-549.0
232.0,33.0,-137.0,125.0,341.0,41.0,932.0,133.0,-545.0
237.0,36.0,-133.0,128.0,344.0,43.0,942.0,129.0,-549.0
238.0,34.0,-132.0,133.0,348.0,41.0,953.0,135.0,-540.0
240.0,36.0,-129.0,137.0,354.0,42.0,954.0,139.0,-541.0
238.0,36.0,-132.0,137.0,356.0,43.0,958.0,136.0,-530.0
240.0,38.0,-130.0,136.0,360.0,46.0,960.0,142.0,-527.0
241.0,38.0,-130.0,134.0,363.0,50.0,962.0,135.0,-524.0
242.0,33.0,-128.0,130.0,369.0,54.0,967.0,131.0,-523.0
243.0,37.0,-125.0,125.0,380.0,60.0,972.0,129.0,-514.0
242.0,36.0,-122.0,122.0,395.0,64.0,972.0,129.0,-506.0
246.0,33.0,-122.0,119.0,413.0,67.0,979.0,129.0,-502.0
237.0,33.0,-121.0,118.0,431.0,69.0,976.0,127.0,-501.0
243.0,34.0,-121.0,114.0,453.0,73.0,976.0,120.0,-492.0
242.0,31.0,-119.0,112.0,472.0,72.0,968.0,113.0,-493.0
241.0,32.0,-119.0,108.0,493.0,75.0,962.0,114.0,-489.0
238.0,29.0,-122.0,105.0,512.0,78.0,950.0,107.0,-485.0
237.0,29.0,-119.0,101.0,531.0,84.0,942.0,101.0,-482.0
237.0,23.0,-116.0,99.0,547.0,89.0,933.0,97.0,-469.0
232.0,26.0,-118.0,102.0,562.0,94.0,937.0,95.0,-465.0
233.0,25.0,-112.0,106.0,575.0,102.0,931.0,88.0,-462.0
231.0,22.0,-118.0,111.0,585.0,108.0,930.0,90.0,-460.0
232.0,24.0,-110.0,119.0,595.0,116.0,922.0,91.0,-461.0
235.0,21.0,-116.0,127.0,604.0,124.0,927.0,90.0,-457.0
231.0,27.0,-112.0,133.0,611.0,131.0,925.0,92.0,-447.0
233.0,27.0,-109.0,141.0,618.0,137.0,931.0,95.0,-454.0
234.0,27.0,-111.0,150.0,623.0,147.0,938.0,98.0,-451.0
234.0,28.0,-113.0,158.0,630.0,154.0,943.0,98.0,-445.0
237.0,27.0,-109.0,162.0,633.0,163.0,956.0,99.0,-444.0
240.0,27.0,-111.0,165.0,636.0,168.0,959.0,99.0,-443.0
245.0,26.0,-107.0,168.0,639.0,176.0,973.0,103.0,-445.0
245.0,31.0,-108.0,165.0,643.0,182.0,982.0,102.0,-446.0
249.0,30.0,-107.0,159.0,649.0,186.0,988.0,106.0,-444.0
252.0,27.0,-108.0,150.0,657.0,188.0,994.0,105.0,-426.0
249.0,29.0,-107.0,140.0,665.0,189.0,994.0,104.0,-421.0
250.0,30.0,-107.0,127.0,670.0,190.0,991.0,104.0,-418.0
248.0,28.0,-101.0,111.0,675.0,189.0,989.0,104.0,-405.0
245.0,25.0,-99.0,98.0,680.0,189.0,988.0,95.0,-405.0
248.0,25.0,-102.0,83.0,685.0,188.0,988.0,93.0,-400.0
250.0,24.0,-94.0,71.0,695.0,190.0,981.0,89.0,-396.0
245.0,25.0,-96.0,62.0,705.0,191.0,981.0,88.0,-390.0
248.0,23.0,-95.0,56.0,720.0,191.0,987.0,87.0,-381.0
247.0,22.0,-90.0,56.0,739.0,193.0,988.0,86.0,-373.0
247.0,23.0,-91.0,60.0,759.0,192.0,978.0,82.0,-362.0
243.0,23.0,-86.0,67.0,780.0,192.0,976.0,81.0,-357.0
244.0,17.0,-86.0,74.0,799.0,192.0,976.0,79.0,-350.0
248.0,18.0,-85.0,82.0,815.0,198.0,976.0,71.0,-352.0
246.0,19.0,-84.0,86.0,830.0,202.0,976.0,68.0,-348.0
243.0,20.0,-88.0,91.0,845.0,208.0,975.0,71.0,-340.0
250.0,20.0,-85.0,95.0,863.0,218.0,981.0,72.0,-337.0
250.0,23.0,-81.0,100.0,885.0,226.0,990.0,75.0,-338.0
251.0,22.0,-83.0,101.0,911.0,235.0,995.0,80.0,-329.0
250.0,19.0,-84.0,98.0,937.0,245.0,995.0,83.0,-333.0
253.0,23.0,-82.0,93.0,963.0,250.0,996.0,87.0,-327.0
250.0,26.0,-81.0,82.0,989.0,261.0,1003.0,85.0,-325.0
253.0,26.0,-74.0,70.0,1013.0,269.0,1007.0,91.0,-321.0
256.0,26.0,-79.0,56.0,1037.0,280.0,1020.0,90.0,-314.0
260.0,25.0,-76.0,42.0,1063.0,290.0,1033.0,92.0,-303.0
262.0,25.0,-74.0,29.0,1091.0,296.0,1051.0,90.0,-290.0
265.0,27.0,-68.0,11.0,1114.0,299.0,1059.0,92.0,-281.0
272.0,25.0,-68.0,-6.0,1135.0,298.0,1065.0,91.0,-263.0
269.0,26.0,-66.0,-22.0,1148.0,298.0,1076.0,95.0,-247.0
267.0,28.0,-60.0,-34.0,1158.0,301.0,1088.0,91.0,-234.0
273.0,27.0,-54.0,-47.0,1164.0,307.0,1092.0,100.0,-220.0
276.0,26.0,-54.0,-54.0,1169.0,314.0,1092.0,105.0,-206.0
274.0,32.0,-50.0,-56.0,1176.0,321.0,1089.0,105.0,-193.0
272.0,28.0,-47.0,-58.0,1186.0,334.0,1093.0,115.0,-180.0
278.0,33.0,-43.0,-70.0,1196.0,344.0,1092.0,115.0,-181.0
276.0,33.0,-40.0,-91.0,1209.0,353.0,1102.0,113.0,-169.0
273.0,31.0,-46.0,-116.0,1219.0,359.0,1089.0,114.0,-164.0
270.0,30.0,-41.0,-146.0,1233.0,364.0,1080.0,104.0,-160.0
267.0,24.0,-42.0,-178.0,1246.0,376.0,1065.0,97.0,-163.0
262.0,24.0,-39.0,-211.0,1255.0,391.0,1045.0,80.0,-154.0
259.0,19.0,-34.0,-242.0,1263.0,408.0,1032.0,72.0,-149.0
255.0,20.0,-34.0,-271.0,1270.0,417.0,1021.0,65.0,-136.0
255.0,14.0,-35.0,-296.0,1274.0,428.0,1015.0,52.0,-130.0
251.0,9.0,-35.0,-317.0,1275.0,436.0,1003.0,37.0,-130.0
254.0,4.0,-31.0,-339.0,1276.0,440.0,998.0,24.0,-131.0
256.0,4.0,-33.0,-371.0,1273.0,444.0,1000.0,8.0,-136.0
251.0,0.0,-36.0,-408.0,1273.0,448.0,998.0,-10.0,-139.0
249.0,-2.0,-35.0,-450.0,1270.0,456.0,995.0,-30.0,-131.0
250.0,-7.0,-28.0,-492.0,1264.0,463.0,1000.0,-38.0,-120.0
252.0,-9.0,-28.0,-519.0,1248.0,468.0,999.0,-37.0,-106.0
251.0,-9.0,-29.0,-525.0,1220.0,468.0,992.0,-43.0,-95.0
244.0,-8.0,-25.0,-508.0,1180.0,470.0,977.0,-29.0,-97.0
249.0,-9.0,-26.0,-476.0,1134.0,467.0,981.0,-27.0,-102.0
249.0,-5.0,-26.0,-430.0,1095.0,465.0,994.0,-23.0,-100.0
257.0,-8.0,-18.0,-382.0,1077.0,459.0,1005.0,-22.0,-82.0
254.0,-2.0,-18.0,-335.0,1082.0,445.0,1013.0,-20.0,-70.0
259.0,-1.0,-9.0,-290.0,1113.0,429.0,1016.0,-10.0,-53.0
259.0,0.0,-9.0,-255.0,1152.0,417.0,1024.0,-8.0,-43.0
261.0,0.0,-9.0,-235.0,1195.0,404.0,1034.0,-10.0,-26.0
266.0,2.0,0.0,-232.0,1238.0,393.0,1046.0,-4.0,-19.0
271.0,-2.0,-4.0,-239.0,1279.0,382.0,1054.0,-15.0,-6.0
269.0,-3.0,-4.0,-255.0,1312.0,372.0,1076.0,-27.0,-4.0
272.0,-4.0,1.0,-268.0,1326.0,364.0,1086.0,-48.0,-2.0
273.0,-17.0,-1.0,-273.0,1327.0,354.0,1089.0,-66.0,4.0
268.0,-20.0,-1.0,-262.0,1313.0,342.0,1082.0,-87.0,2.0
266.0,-22.0,-6.0,-234.0,1287.0,328.0,1077.0,-99.0,-3.0
267.0,-29.0,-1.0,-191.0,1251.0,312.0,1062.0,-113.0,-9.0
266.0,-32.0,-6.0,-135.0,1214.0,300.0,1053.0,-129.0,-11.0
265.0,-34.0,-2.0,-75.0,1186.0,291.0,1046.0,-134.0,-11.0
261.0,-35.0,-2.0,-17.0,1183.0,298.0,1045.0,-146.0,-7.0
267.0,-36.0,5.0,37.0,1210.0,312.0,1053.0,-156.0,8.0
270.0,-38.0,5.0,86.0,1248.0,322.0,1061.0,-151.0,21.0
275.0,-39.0,4.0,133.0,1284.0,330.0,1089.0,-160.0,26.0
276.0,-43.0,5.0,184.0,1318.0,335.0,1105.0,-164.0,29.0
279.0,-45.0,13.0,230.0,1347.0,335.0,1112.0,-181.0,37.0
283.0,-47.0,13.0,286.0,1370.0,330.0,1113.0,-188.0,46.0
282.0,-47.0,11.0,355.0,1389.0,317.0,1105.0,-194.0,52.0
270.0,-49.0,23.0,436.0,1405.0,302.0,1083.0,-192.0,55.0
264.0,-49.0,14.0,520.0,1413.0,286.0,1057.0,-187.0,53.0
260.0,-46.0,14.0,603.0,1409.0,274.0,1024.0,-184.0,61.0
253.0,-44.0,14.0,679.0,1398.0,262.0,992.0,-168.0,64.0
245.0,-39.0,13.0,735.0,1379.0,250.0,964.0,-160.0,73.0
238.0,-28.0,19.0,763.0,1359.0,239.0,938.0,-132.0,79.0
234.0,-24.0,22.0,767.0,1345.0,231.0,919.0,-107.0,94.0
232.0,-19.0,27.0,746.0,1339.0,231.0,898.0,-96.0,103.0
225.0,-15.0,31.0,705.0,1337.0,233.0,891.0,-77.0,122.0
229.0,-13.0,40.0,650.0,1335.0,236.0,890.0,-54.0,127.0
225.0,-7.0,39.0,590.0,1329.0,238.0,884.0,-54.0,136.0
225.0,-7.0,34.0,529.0,1326.0,241.0,883.0,-36.0,145.0
224.0,-1.0,34.0,470.0,1324.0,241.0,885.0,-23.0,143.0
222.0,-1.0,38.0,407.0,1321.0,243.0,880.0,-18.0,139.0
219.0,0.0,32.0,346.0,1319.0,246.0,856.0,-17.0,142.0
216.0,0.0,36.0,278.0,1319.0,254.0,859.0,-15.0,146.0
214.0,1.0,43.0,214.0,1326.0,266.0,856.0,-20.0,166.0
220.0,-2.0,42.0,156.0,1340.0,280.0,860.0,-27.0,176.0
219.0,-5.0,42.0,105.0,1359.0,293.0,865.0,-38.0,197.0
223.0,-12.0,49.0,60.0,1381.0,305.0,880.0,-53.0,203.0
226.0,-14.0,52.0,25.0,1412.0,322.0,886.0,-71.0,218.0
232.0,-20.0,63.0,3.0,1449.0,339.0,899.0,-96.0,243.0
235.0,-20.0,59.0,-6.0,1496.0,357.0,928.0,-114.0,258.0
241.0,-28.0,66.0,-3.0,1548.0,374.0,946.0,-124.0,287.0
246.0,-34.0,71.0,13.0,1602.0,388.0,958.0,-141.0,301.0
248.0,-39.0,76.0,41.0,1649.0,400.0,959.0,-148.0,313.0
243.0,-37.0,79.0,80.0,1689.0,407.0,957.0,-154.0,334.0
240.0,-40.0,83.0,126.0,1724.0,420.0,944.0,-156.0,343.0
239.0,-41.0,86.0,170.0,1759.0,437.0,938.0,-155.0,355.0
238.0,-34.0,89.0,202.0,1794.0,459.0,930.0,-159.0,372.0
230.0,-33.0,94.0,219.0,1827.0,484.0,913.0,-153.0,380.0
233.0,-35.0,93.0,221.0,1852.0,513.0,899.0,-148.0,404.0
230.0,-36.0,104.0,212.0,1870.0,540.0,894.0,-144.0,415.0
229.0,-32.0,102.0,196.0,1879.0,565.0,889.0,-134.0,445.0
224.0,-31.0,111.0,179.0,1886.0,585.0,877.0,-128.0,465.0
222.0,-30.0,116.0,163.0,1893.0,600.0,872.0,-121.0,477.0
222.0,-28.0,120.0,155.0,1901.0,611.0,860.0,-110.0,492.0
221.0,-23.0,120.0,162.0,1910.0,615.0,856.0,-109.0,495.0
223.0,-22.0,119.0,187.0,1925.0,618.0,862.0,-86.0,498.0
227.0,-19.0,117.0,226.0,1946.0,614.0,877.0,-81.0,491.0
228.0,-14.0,117.0,271.0,1973.0,605.0,884.0,-72.0,475.0
231.0,-17.0,108.0,312.0,2000.0,593.0,902.0,-71.0,462.0
237.0,-16.0,111.0,333.0,2022.0,577.0,905.0,-76.0,454.0
237.0,-15.0,108.0,335.0,2034.0,565.0,906.0,-74.0,451.0
231.0,-19.0,107.0,320.0,2035.0,556.0,918.0,-76.0,447.0
235.0,-17.0,109.0,299.0,2022.0,552.0,910.0,-83.0,450.0
232.0,-22.0,113.0,274.0,2000.0,550.0,906.0,-90.0,455.0
231.0,-26.0,115.0,256.0,1978.0,552.0,901.0,-108.0,466.0
229.0,-31.0,119.0,241.0,1962.0,555.0,890.0,-132.0,481.0
223.0,-39.0,122.0,231.0,1952.0,556.0,870.0,-154.0,502.0
218.0,-39.0,125.0,229.0,1947.0,552.0,854.0,-178.0,528.0
221.0,-45.0,135.0,237.0,1940.0,551.0,843.0,-184.0,552.0
213.0,-49.0,142.0,260.0,1924.0,546.0,834.0,-195.0,586.0
209.0,-47.0,144.0,297.0,1901.0,538.0,818.0,-196.0,611.0
206.0,-43.0,150.0,346.0,1875.0,525.0,798.0,-194.0,625.0
198.0,-55.0,150.0,403.0,1847.0,508.0,778.0,-185.0,637.0
196.0,-42.0,155.0,461.0,1818.0,493.0,760.0,-172.0,648.0
191.0,-33.0,154.0,516.0,1790.0,475.0,744.0,-147.0,645.0
184.0,-28.0,158.0,561.0,1758.0,456.0,731.0,-126.0,643.0
183.0,-28.0,157.0,591.0,1726.0,441.0,700.0,-114.0,638.0
177.0,-24.0,155.0,608.0,1693.0,426.0,677.0,-104.0,646.0
171.0,-21.0,157.0,608.0,1649.0,417.0,658.0,-101.0,642.0
165.0,-18.0,155.0,595.0,1610.0,410.0,645.0,-96.0,641.0
166.0,-17.0,156.0,565.0,1568.0,405.0,638.0,-93.0,636.0
162.0,-18.0,156.0,524.0,1524.0,400.0,635.0,-92.0,640.0
162.0,-23.0,160.0,488.0,1479.0,394.0,628.0,-91.0,641.0
161.0,-19.0,162.0,453.0,1434.0,388.0,614.0,-92.0,649.0
158.0,-19.0,157.0,420.0,1395.0,382.0,605.0,-101.0,651.0
156.0,-22.0,162.0,387.0,1361.0,376.0,600.0,-103.0,661.0
157.0,-25.0,165.0,352.0,1334.0,374.0,601.0,-110.0,674.0
155.0,-23.0,170.0,317.0,1309.0,372.0,599.0,-110.0,686.0
155.0,-25.0,169.0,285.0,1288.0,374.0,594.0,-122.0,688.0
157.0,-26.0,175.0,261.0,1272.0,372.0,593.0,-122.0,694.0
159.0,-32.0,175.0,244.0,1258.0,374.0,600.0,-131.0,703.0
161.0,-31.0,175.0,240.0,1250.0,374.0,607.0,-149.0,702.0
159.0,-38.0,171.0,243.0,1248.0,374.0,612.0,-158.0,699.0
162.0,-37.0,176.0,254.0,1250.0,374.0,606.0,-173.0,697.0
159.0,-44.0,174.0,268.0,1251.0,374.0,613.0,-181.0,697.0
158.0,-48.0,169.0,289.0,1252.0,377.0,597.0,-188.0,706.0
154.0,-45.0,168.0,315.0,1256.0,379.0,588.0,-189.0,711.0
147.0,-43.0,172.0,348.0,1260.0,383.0,573.0,-186.0,704.0
144.0,-43.0,173.0,382.0,1258.0,387.0,548.0,-186.0,695.0
136.0,-46.0,167.0,412.0,1254.0,386.0,526.0,-186.0,698.0
133.0,-38.0,173.0,435.0,1250.0,387.0,504.0,-178.0,703.0
127.0,-43.0,168.0,448.0,1247.0,388.0,487.0,-171.0,700.0
127.0,-40.0,170.0,450.0,1247.0,389.0,474.0,-174.0,714.0
120.0,-36.0,177.0,448.0,1247.0,388.0,453.0,-164.0,723.0
119.0,-37.0,176.0,441.0,1251.0,386.0,452.0,-157.0,730.0
124.0,-35.0,182.0,432.0,1256.0,385.0,452.0,-151.0,740.0
123.0,-32.0,183.0,420.0,1264.0,381.0,455.0,-149.0,744.0
123.0,-36.0,183.0,403.0,1275.0,378.0,460.0,-145.0,746.0
126.0,-33.0,181.0,383.0,1286.0,375.0,464.0,-136.0,759.0
125.0,-26.0,185.0,361.0,1298.0,371.0,467.0,-127.0,758.0
125.0,-25.0,187.0,334.0,1313.0,368.0,467.0,-117.0,761.0
127.0,-23.0,187.0,301.0,1327.0,364.0,474.0,-117.0,779.0
122.0,-27.0,190.0,259.0,1341.0,361.0,469.0,-114.0,793.0
120.0,-25.0,190.0,218.0,1348.0,357.0,458.0,-118.0,794.0
122.0,-27.0,197.0,179.0,1343.0,357.0,446.0,-120.0,800.0
118.0,-18.0,196.0,140.0,1336.0,358.0,423.0,-133.0,809.0
116.0,-33.0,198.0,105.0,1325.0,359.0,414.0,-148.0,816.0
111.0,-37.0,203.0,77.0,1315.0,358.0,402.0,-163.0,831.0
109.0,-43.0,206.0,62.0,1305.0,358.0,391.0,-184.0,839.0
105.0,-46.0,209.0,64.0,1295.0,358.0,384.0,-195.0,857.0
98.0,-49.0,210.0,84.0,1284.0,356.0,365.0,-205.0,861.0
93.0,-50.0,213.0,115.0,1266.0,353.0,345.0,-213.0,881.0
89.0,-50.0,210.0,154.0,1242.0,349.0,328.0,-216.0,874.0
84.0,-53.0,214.0,194.0,1215.0,343.0,312.0,-219.0,877.0
84.0,-51.0,210.0,231.0,1187.0,337.0,291.0,-205.0,875.0
77.0,-47.0,212.0,261.0,1161.0,325.0,287.0,-197.0,868.0
79.0,-48.0,213.0,282.0,1140.0,315.0,280.0,-186.0,866.0
82.0,-37.0,212.0,287.0,1126.0,305.0,285.0,-173.0,873.0
84.0,-39.0,217.0,279.0,1115.0,293.0,300.0,-161.0,886.0
89.0,-36.0,219.0,260.0,1102.0,275.0,313.0,-152.0,915.0
90.0,-34.0,221.0,236.0,1082.0,254.0,331.0,-148.0,922.0
93.0,-33.0,227.0,211.0,1057.0,231.0,340.0,-142.0,931.0
96.0,-29.0,224.0,188.0,1026.0,206.0,355.0,-133.0,931.0
101.0,-30.0,226.0,163.0,996.0,186.0,367.0,-127.0,921.0
102.0,-25.0,219.0,135.0,965.0,168.0,367.0,-115.0,913.0
102.0,-25.0,220.0,107.0,942.0,153.0,368.0,-113.0,905.0
98.0,-22.0,219.0,75.0,919.0,144.0,368.0,-106.0,897.0
93.0,-18.0,223.0,45.0,896.0,135.0,357.0,-102.0,889.0
94.0,-21.0,211.0,13.0,867.0,132.0,337.0,-103.0,873.0
88.0,-25.0,207.0,-17.0,837.0,128.0,322.0,-105.0,861.0
82.0,-27.0,207.0,-46.0,803.0,129.0,303.0,-112.0,842.0
78.0,-30.0,202.0,-70.0,771.0,130.0,289.0,-127.0,837.0
80.0,-32.0,203.0,-90.0,742.0,129.0,271.0,-139.0,837.0
75.0,-35.0,204.0,-107.0,719.0,133.0,272.0,-149.0,837.0
76.0,-38.0,205.0,-122.0,703.0,134.0,271.0,-167.0,840.0
79.0,-41.0,212.0,-134.0,689.0,133.0,270.0,-185.0,861.0
75.0,-46.0,210.0,-142.0,679.0,128.0,266.0,-187.0,875.0
75.0,-49.0,214.0,-145.0,664.0,126.0,261.0,-198.0,885.0
68.0,-44.0,216.0,-146.0,649.0,120.0,258.0,-205.0,896.0
70.0,-51.0,220.0,-142.0,638.0,114.0,256.0,-202.0,905.0
68.0,-47.0,218.0,-135.0,635.0,109.0,242.0,-204.0,905.0
67.0,-46.0,218.0,-125.0,642.0,107.0,239.0,-197.0,896.0
66.0,-45.0,215.0,-114.0,658.0,103.0,230.0,-193.0,894.0
61.0,-41.0,213.0,-104.0,680.0,104.0,215.0,-186.0,878.0
60.0,-37.0,217.0,-96.0,708.0,106.0,205.0,-163.0,874.0
58.0,-38.0,215.0,-94.0,737.0,115.0,186.0,-149.0,873.0
54.0,-35.0,208.0,-99.0,765.0,125.0,179.0,-147.0,876.0
51.0,-26.0,208.0,-106.0,791.0,140.0,170.0,-127.0,873.0
53.0,-28.0,215.0,-114.0,818.0,156.0,168.0,-115.0,878.0
53.0,-29.0,219.0,-125.0,841.0,174.0,166.0,-115.0,887.0
53.0,-27.0,222.0,-143.0,865.0,192.0,169.0,-123.0,896.0
53.0,-28.0,223.0,-167.0,888.0,208.0,170.0,-133.0,901.0
51.0,-29.0,227.0,-196.0,910.0,221.0,169.0,-138.0,929.0
51.0,-32.0,232.0,-225.0,929.0,232.0,164.0,-148.0,939.0
49.0,-35.0,229.0,-252.0,945.0,244.0,160.0,-155.0,952.0
48.0,-39.0,236.0,-273.0,959.0,254.0,145.0,-169.0,964.0
43.0,-41.0,237.0,-286.0,968.0,266.0,135.0,-178.0,984.0
38.0,-44.0,245.0,-292.0,975.0,275.0,119.0,-190.0,1001.0
31.0,-45.0,246.0,-292.0,976.0,288.0,93.0,-197.0,1014.0
28.0,-49.0,250.0,-284.0,970.0,302.0,75.0,-208.0,1026.0
23.0,-56.0,251.0,-273.0,961.0,316.0,47.0,-214.0,1027.0
15.0,-50.0,252.0,-262.0,946.0,329.0,28.0,-216.0,1040.0
12.0,-53.0,257.0,-252.0,929.0,338.0,17.0,-223.0,1043.0
7.0,-55.0,261.0,-246.0,909.0,346.0,8.0,-232.0,1068.0
8.0,-59.0,266.0,-240.0,889.0,349.0,-1.0,-240.0,1087.0
5.0,-59.0,265.0,-230.0,871.0,350.0,-13.0,-246.0,1100.0
4.0,-61.0,270.0,-221.0,856.0,348.0,-17.0,-263.0,1118.0
2.0,-67.0,275.0,-214.0,842.0,343.0,-23.0,-274.0,1127.0
-1.0,-67.0,272.0,-210.0,830.0,335.0,-30.0,-285.0,1142.0
-4.0,-69.0,281.0,-208.0,816.0,324.0,-37.0,-302.0,1145.0
-7.0,-70.0,280.0,-210.0,800.0,312.0,-46.0,-307.0,1154.0
-7.0,-77.0,282.0,-210.0,781.0,298.0,-51.0,-312.0,1147.0
-7.0,-74.0,279.0,-204.0,758.0,280.0,-58.0,-306.0,1135.0
-10.0,-71.0,272.0,-198.0,736.0,261.0,-68.0,-304.0,1116.0
-7.0,-68.0,268.0,-190.0,713.0,242.0,-81.0,-287.0,1100.0
-15.0,-65.0,265.0,-184.0,692.0,221.0,-89.0,-272.0,1071.0
-18.0,-63.0,254.0,-178.0,673.0,202.0,-101.0,-263.0,1038.0
-19.0,-58.0,246.0,-177.0,654.0,186.0,-106.0,-247.0,1016.0
-19.0,-55.0,242.0,-176.0,636.0,174.0,-114.0,-235.0,980.0
-20.0,-52.0,232.0,-179.0,623.0,164.0,-110.0,-229.0,955.0
-19.0,-52.0,229.0,-180.0,617.0,154.0,-107.0,-218.0,942.0
-16.0,-55.0,229.0,-184.0,616.0,143.0,-105.0,-216.0,928.0
-17.0,-52.0,223.0,-184.0,621.0,133.0,-99.0,-215.0,904.0
-17.0,-51.0,220.0,-178.0,631.0,121.0,-97.0,-212.0,901.0
-13.0,-51.0,219.0,-164.0,645.0,110.0,-95.0,-205.0,892.0
-13.0,-51.0,220.0,-141.0,660.0,103.0,-93.0,-206.0,891.0
-16.0,-47.0,217.0,-111.0,674.0,99.0,-96.0,-201.0,897.0
-14.0,-49.0,220.0,-75.0,687.0,96.0,-101.0,-210.0,899.0
-21.0,-53.0,218.0,-39.0,696.0,98.0,-108.0,-216.0,910.0
-20.0,-55.0,225.0,1.0,700.0,98.0,-113.0,-223.0,926.0
-23.0,-58.0,229.0,35.0,701.0,96.0,-117.0,-231.0,945.0
-27.0,-56.0,234.0,64.0,702.0,98.0,-134.0,-235.0,964.0
-32.0,-60.0,239.0,89.0,700.0,100.0,-143.0,-245.0,981.0
-30.0,-58.0,247.0,107.0,692.0,104.0,-156.0,-249.0,1007.0
-39.0,-59.0,253.0,120.0,680.0,108.0,-180.0,-255.0,1020.0
-44.0,-59.0,250.0,129.0,662.0,113.0,-199.0,-249.0,1029.0
-49.0,-58.0,255.0,134.0,640.0,118.0,-225.0,-249.0,1039.0
-53.0,-58.0,255.0,131.0,616.0,124.0,-239.0,-244.0,1038.0
-56.0,-56.0,255.0,120.0,593.0,134.0,-250.0,-237.0,1034.0
-62.0,-52.0,248.0,103.0,570.0,140.0,-259.0,-233.0,1025.0
-61.0,-51.0,249.0,81.0,549.0,146.0,-266.0,-219.0,1013.0
-59.0,-52.0,246.0,56.0,529.0,151.0,-259.0,-218.0,1007.0
-60.0,-46.0,243.0,28.0,511.0,153.0,-258.0,-213.0,987.0
-59.0,-40.0,238.0,-6.0,496.0,151.0,-248.0,-200.0,970.0
-58.0,-44.0,235.0,-43.0,482.0,146.0,-249.0,-198.0,955.0
-53.0,-44.0,231.0,-86.0,470.0,143.0,-243.0,-194.0,944.0
-48.0,-44.0,225.0,-133.0,456.0,137.0,-237.0,-193.0,928.0
-50.0,-45.0,224.0,-180.0,437.0,126.0,-223.0,-192.0,929.0
-48.0,-45.0,221.0,-226.0,421.0,112.0,-214.0,-198.0,906.0
-41.0,-45.0,225.0,-264.0,404.0,98.0,-192.0,-205.0,910.0
-38.0,-50.0,228.0,-295.0,389.0,80.0,-177.0,-213.0,927.0
-32.0,-53.0,226.0,-305.0,375.0,60.0,-159.0,-225.0,930.0
-27.0,-56.0,230.0,-302.0,364.0,40.0,-139.0,-229.0,940.0
-22.0,-58.0,232.0,-285.0,353.0,20.0,-131.0,-234.0,950.0
-25.0,-61.0,230.0,-261.0,340.0,1.0,-132.0,-240.0,959.0
-26.0,-58.0,236.0,-232.0,323.0,-19.0,-137.0,-245.0,963.0
-31.0,-59.0,234.0,-202.0,302.0,-36.0,-142.0,-243.0,967.0
-32.0,-59.0,235.0,-175.0,280.0,-48.0,-159.0,-240.0,970.0
-38.0,-55.0,241.0,-154.0,257.0,-61.0,-176.0,-228.0,965.0
-41.0,-52.0,241.0,-141.0,238.0,-71.0,-201.0,-230.0,973.0
-51.0,-52.0,240.0,-138.0,219.0,-79.0,-221.0,-227.0,975.0
-55.0,-51.0,242.0,-146.0,199.0,-88.0,-240.0,-222.0,980.0
-56.0,-52.0,239.0,-163.0,177.0,-98.0,-262.0,-226.0,983.0
-65.0,-54.0,247.0,-185.0,155.0,-108.0,-277.0,-223.0,990.0
-67.0,-54.0,240.0,-214.0,134.0,-121.0,-297.0,-225.0,991.0
-70.0,-55.0,247.0,-241.0,115.0,-134.0,-303.0,-231.0,1005.0
-71.0,-57.0,243.0,-265.0,99.0,-147.0,-319.0,-236.0,1007.0
-74.0,-57.0,250.0,-285.0,82.0,-162.0,-326.0,-245.0,1008.0
-73.0,-60.0,248.0,-302.0,62.0,-175.0,-331.0,-257.0,1012.0
-78.0,-62.0,246.0,-309.0,40.0,-188.0,-338.0,-266.0,1004.0
-76.0,-64.0,245.0,-310.0,18.0,-199.0,-343.0,-264.0,1000.0
-76.0,-64.0,239.0,-304.0,2.0,-207.0,-347.0,-264.0,988.0
-78.0,-62.0,239.0,-298.0,-5.0,-216.0,-344.0,-270.0,976.0
-78.0,-61.0,229.0,-291.0,-1.0,-220.0,-346.0,-258.0,966.0
-76.0,-59.0,231.0,-285.0,15.0,-223.0,-338.0,-250.0,951.0
-72.0,-56.0,230.0,-282.0,43.0,-225.0,-326.0,-238.0,940.0
-68.0,-51.0,225.0,-285.0,78.0,-230.0,-310.0,-228.0,940.0
-65.0,-51.0,226.0,-290.0,110.0,-239.0,-282.0,-223.0,939.0
-59.0,-51.0,228.0,-295.0,129.0,-252.0,-266.0,-217.0,938.0
-55.0,-51.0,233.0,-302.0,134.0,-265.0,-235.0,-217.0,940.0
-48.0,-54.0,232.0,-309.0,125.0,-278.0,-216.0,-220.0,941.0
-44.0,-58.0,232.0,-315.0,106.0,-292.0,-200.0,-235.0,943.0
-39.0,-59.0,232.0,-316.0,75.0,-308.0,-186.0,-247.0,947.0
-39.0,-63.0,233.0,-307.0,35.0,-322.0,-173.0,-264.0,949.0
-39.0,-64.0,226.0,-291.0,-13.0,-334.0,-165.0,-278.0,937.0
-39.0,-70.0,232.0,-268.0,-67.0,-344.0,-168.0,-287.0,938.0
-34.0,-73.0,223.0,-242.0,-119.0,-347.0,-158.0,-298.0,927.0
-32.0,-75.0,221.0,-221.0,-165.0,-349.0,-157.0,-305.0,908.0
-30.0,-74.0,220.0,-204.0,-201.0,-351.0,-153.0,-304.0,914.0
-31.0,-72.0,219.0,-195.0,-223.0,-349.0,-144.0,-304.0,899.0
-28.0,-72.0,221.0,-193.0,-235.0,-348.0,-145.0,-305.0,899.0
-25.0,-72.0,223.0,-199.0,-239.0,-347.0,-134.0,-302.0,909.0
-25.0,-70.0,219.0,-210.0,-238.0,-348.0,-131.0,-311.0,897.0
-23.0,-74.0,218.0,-225.0,-234.0,-347.0,-123.0,-314.0,894.0
-23.0,-77.0,216.0,-244.0,-228.0,-350.0,-118.0,-323.0,891.0
-20.0,-80.0,220.0,-264.0,-225.0,-350.0,-117.0,-331.0,894.0
-17.0,-85.0,219.0,-279.0,-222.0,-352.0,-111.0,-349.0,894.0
-18.0,-88.0,222.0,-288.0,-219.0,-353.0,-106.0,-360.0,905.0
-15.0,-88.0,219.0,-288.0,-220.0,-356.0,-103.0,-380.0,912.0
-18.0,-92.0,220.0,-276.0,-224.0,-358.0,-98.0,-382.0,922.0
-16.0,-95.0,228.0,-259.0,-230.0,-362.0,-100.0,-386.0,926.0
-16.0,-89.0,224.0,-234.0,-242.0,-361.0,-87.0,-384.0,909.0
-9.0,-88.0,220.0,-212.0,-253.0,-368.0,-71.0,-383.0,900.0
-7.0,-85.0,217.0,-198.0,-265.0,-374.0,-58.0,-374.0,897.0
-4.0,-89.0,217.0,-194.0,-275.0,-382.0,-51.0,-380.0,885.0
-6.0,-89.0,213.0,-200.0,-285.0,-392.0,-54.0,-380.0,884.0
-7.0,-94.0,219.0,-219.0,-294.0,-400.0,-60.0,-395.0,886.0
-10.0,-99.0,217.0,-243.0,-304.0,-401.0,-78.0,-415.0,884.0
-13.0,-102.0,216.0,-272.0,-315.0,-401.0,-87.0,-427.0,890.0
-20.0,-107.0,214.0,-298.0,-325.0,-393.0,-88.0,-442.0,886.0
-14.0,-108.0,220.0,-314.0,-331.0,-385.0,-85.0,-448.0,897.0
-9.0,-109.0,217.0,-318.0,-334.0,-374.0,-69.0,-450.0,896.0
-3.0,-110.0,215.0,-303.0,-331.0,-369.0,-55.0,-451.0,892.0
-4.0,-110.0,214.0,-269.0,-325.0,-367.0,-44.0,-445.0,884.0
-4.0,-106.0,213.0,-218.0,-320.0,-367.0,-38.0,-443.0,879.0
0.0,-104.0,213.0,-159.0,-317.0,-368.0,-34.0,-427.0,869.0
-3.0,-97.0,208.0,-98.0,-323.0,-374.0,-37.0,-420.0,859.0
-2.0,-96.0,201.0,-45.0,-331.0,-378.0,-35.0,-407.0,839.0
-4.0,-96.0,199.0,-8.0,-344.0,-380.0,-40.0,-391.0,829.0
-4.0,-93.0,199.0,8.0,-364.0,-380.0,-54.0,-388.0,826.0
-6.0,-89.0,198.0,10.0,-381.0,-377.0,-49.0,-389.0,819.0
-7.0,-94.0,199.0,-4.0,-390.0,-373.0,-53.0,-394.0,821.0
-4.0,-98.0,202.0,-28.0,-392.0,-365.0,-47.0,-410.0,829.0
-4.0,-100.0,200.0,-52.0,-386.0,-355.0,-38.0,-425.0,844.0
0.0,-108.0,211.0,-66.0,-375.0,-344.0,-31.0,-444.0,859.0
2.0,-114.0,209.0,-69.0,-360.0,-331.0,-21.0,-461.0,861.0
4.0,-117.0,212.0,-60.0,-343.0,-316.0,-12.0,-483.0,879.0
4.0,-119.0,210.0,-43.0,-329.0,-300.0,-6.0,-498.0,882.0
7.0,-125.0,212.0,-21.0,-320.0,-283.0,5.0,-514.0,888.0
10.0,-128.0,223.0,3.0,-316.0,-265.0,11.0,-517.0,895.0
12.0,-135.0,213.0,29.0,-315.0,-247.0,27.0,-541.0,898.0
16.0,-127.0,216.0,57.0,-321.0,-229.0,39.0,-520.0,901.0
19.0,-127.0,221.0,84.0,-329.0,-211.0,44.0,-521.0,897.0
22.0,-123.0,222.0,111.0,-340.0,-194.0,53.0,-510.0,897.0
24.0,-122.0,217.0,137.0,-354.0,-179.0,62.0,-496.0,889.0
30.0,-119.0,213.0,159.0,-367.0,-166.0,74.0,-489.0,885.0
30.0,-115.0,210.0,176.0,-376.0,-158.0,86.0,-470.0,862.0
31.0,-111.0,210.0,188.0,-381.0,-154.0,92.0,-461.0,855.0
30.0,-109.0,208.0,195.0,-382.0,-151.0,97.0,-453.0,853.0
28.0,-105.0,207.0,199.0,-385.0,-147.0,88.0,-439.0,855.0
26.0,-104.0,205.0,202.0,-386.0,-145.0,84.0,-434.0,849.0
27.0,-100.0,206.0,202.0,-390.0,-140.0,73.0,-422.0,857.0
24.0,-99.0,208.0,202.0,-394.0,-133.0,72.0,-425.0,857.0
27.0,-100.0,212.0,201.0,-399.0,-125.0,67.0,-420.0,856.0
25.0,-98.0,211.0,198.0,-406.0,-114.0,70.0,-415.0,866.0
27.0,-97.0,214.0,187.0,-411.0,-102.0,75.0,-415.0,867.0
28.0,-100.0,216.0,169.0,-415.0,-93.0,83.0,-421.0,870.0
31.0,-100.0,214.0,143.0,-417.0,-85.0,86.0,-425.0,879.0
33.0,-98.0,213.0,112.0,-417.0,-73.0,87.0,-428.0,878.0
34.0,-104.0,215.0,87.0,-418.0,-63.0,99.0,-437.0,882.0
33.0,-109.0,216.0,71.0,-417.0,-55.0,99.0,-443.0,877.0
38.0,-110.0,213.0,69.0,-412.0,-44.0,106.0,-451.0,880.0
39.0,-111.0,207.0,80.0,-405.0,-36.0,112.0,-460.0,874.0
38.0,-113.0,212.0,106.0,-398.0,-31.0,117.0,-460.0,864.0
38.0,-112.0,216.0,145.0,-389.0,-20.0,119.0,-463.0,866.0
37.0,-113.0,211.0,192.0,-380.0,-12.0,125.0,-459.0,867.0
38.0,-108.0,209.0,244.0,-372.0,-3.0,121.0,-450.0,867.0
43.0,-106.0,213.0,296.0,-363.0,9.0,124.0,-435.0,871.0
45.0,-102.0,213.0,341.0,-355.0,22.0,132.0,-413.0,874.0
46.0,-95.0,210.0,379.0,-346.0,37.0,134.0,-398.0,881.0
44.0,-93.0,212.0,408.0,-340.0,49.0,142.0,-381.0,879.0
48.0,-85.0,210.0,420.0,-331.0,65.0,150.0,-356.0,878.0
54.0,-82.0,215.0,415.0,-311.0,80.0,166.0,-338.0,877.0
52.0,-74.0,211.0,390.0,-283.0,97.0,169.0,-323.0,883.0
56.0,-70.0,213.0,345.0,-248.0,116.0,175.0,-318.0,878.0
53.0,-66.0,216.0,293.0,-213.0,135.0,175.0,-309.0,879.0
55.0,-70.0,217.0,237.0,-186.0,154.0,166.0,-308.0,893.0
48.0,-68.0,216.0,186.0,-166.0,177.0,155.0,-303.0,893.0
49.0,-70.0,220.0,139.0,-150.0,205.0,149.0,-305.0,894.0
46.0,-73.0,218.0,99.0,-136.0,233.0,150.0,-308.0,900.0
42.0,-74.0,219.0,66.0,-119.0,262.0,135.0,-312.0,903.0
41.0,-73.0,223.0,40.0,-101.0,288.0,126.0,-311.0,918.0
35.0,-71.0,227.0,21.0,-84.0,314.0,110.0,-315.0,926.0
37.0,-70.0,232.0,12.0,-75.0,335.0,93.0,-317.0,933.0
25.0,-73.0,227.0,8.0,-71.0,352.0,75.0,-309.0,936.0
22.0,-75.0,229.0,14.0,-75.0,366.0,62.0,-315.0,941.0
18.0,-74.0,229.0,23.0,-84.0,371.0,42.0,-315.0,946.0
17.0,-78.0,229.0,32.0,-94.0,370.0,25.0,-321.0,947.0
10.0,-75.0,231.0,40.0,-105.0,363.0,17.0,-320.0,947.0
9.0,-76.0,233.0,46.0,-116.0,357.0,6.0,-320.0,955.0
9.0,-76.0,237.0,52.0,-126.0,344.0,2.0,-327.0,959.0
4.0,-78.0,233.0,60.0,-133.0,330.0,0.0,-318.0,963.0
8.0,-78.0,237.0,73.0,-139.0,314.0,5.0,-323.0,961.0
11.0,-79.0,235.0,94.0,-144.0,292.0,7.0,-327.0,966.0
12.0,-80.0,236.0,119.0,-148.0,266.0,17.0,-328.0,966.0
15.0,-83.0,233.0,147.0,-151.0,244.0,24.0,-331.0,963.0
17.0,-81.0,235.0,176.0,-152.0,219.0,31.0,-343.0,958.0
19.0,-84.0,234.0,203.0,-151.0,198.0,36.0,-340.0,956.0
14.0,-82.0,232.0,231.0,-153.0,177.0,42.0,-351.0,947.0
18.0,-87.0,224.0,257.0,-157.0,160.0,44.0,-356.0,943.0
21.0,-88.0,224.0,289.0,-166.0,148.0,51.0,-366.0,930.0
19.0,-87.0,224.0,309.0,-173.0,138.0,52.0,-356.0,928.0
21.0,-89.0,224.0,332.0,-179.0,134.0,51.0,-366.0,919.0
23.0,-90.0,222.0,352.0,-184.0,133.0,56.0,-365.0,923.0
26.0,-87.0,218.0,371.0,-185.0,134.0,57.0,-361.0,922.0
23.0,-86.0,222.0,389.0,-185.0,136.0,58.0,-353.0,917.0
20.0,-80.0,227.0,403.0,-185.0,141.0,56.0,-348.0,921.0
20.0,-81.0,226.0,412.0,-186.0,149.0,56.0,-343.0,931.0
23.0,-76.0,223.0,416.0,-190.0,158.0,58.0,-331.0,928.0
19.0,-73.0,229.0,413.0,-196.0,163.0,50.0,-321.0,925.0
19.0,-75.0,222.0,406.0,-203.0,168.0,46.0,-318.0,932.0
20.0,-71.0,221.0,395.0,-211.0,173.0,43.0,-311.0,924.0
22.0,-72.0,222.0,382.0,-216.0,175.0,46.0,-310.0,924.0
21.0,-76.0,221.0,369.0,-218.0,176.0,53.0,-310.0,916.0
24.0,-73.0,221.0,353.0,-216.0,173.0,62.0,-309.0,901.0
24.0,-74.0,226.0,340.0,-213.0,169.0,63.0,-311.0,910.0
25.0,-74.0,226.0,331.0,-213.0,162.0,69.0,-323.0,900.0
24.0,-75.0,223.0,324.0,-212.0,156.0,64.0,-334.0,905.0
23.0,-79.0,215.0,321.0,-218.0,144.0,64.0,-338.0,900.0
19.0,-82.0,219.0,317.0,-224.0,131.0,65.0,-353.0,901.0
24.0,-89.0,222.0,314.0,-232.0,118.0,67.0,-373.0,912.0
21.0,-91.0,222.0,318.0,-245.0,102.0,61.0,-378.0,907.0
21.0,-94.0,225.0,326.0,-257.0,85.0,51.0,-390.0,925.0
19.0,-93.0,231.0,342.0,-274.0,68.0,42.0,-393.0,934.0
16.0,-95.0,230.0,363.0,-293.0,49.0,40.0,-395.0,944.0
15.0,-93.0,233.0,395.0,-315.0,30.0,33.0,-385.0,945.0
15.0,-94.0,229.0,432.0,-335.0,14.0,36.0,-383.0,952.0
15.0,-88.0,230.0,471.0,-351.0,-4.0,42.0,-374.0,956.0
23.0,-89.0,236.0,510.0,-359.0,-20.0,44.0,-363.0,959.0
26.0,-82.0,233.0,544.0,-360.0,-41.0,62.0,-353.0,972.0
27.0,-79.0,234.0,569.0,-353.0,-61.0,73.0,-327.0,976.0
30.0,-74.0,238.0,585.0,-340.0,-81.0,86.0,-317.0,981.0
36.0,-68.0,243.0,594.0,-322.0,-102.0,95.0,-291.0,986.0
35.0,-62.0,241.0,596.0,-307.0,-123.0,104.0,-274.0,986.0
36.0,-62.0,244.0,588.0,-292.0,-142.0,105.0,-249.0,985.0
37.0,-50.0,244.0,571.0,-281.0,-162.0,107.0,-233.0,988.0
40.0,-49.0,243.0,543.0,-268.0,-177.0,114.0,-205.0,989.0
36.0,-43.0,244.0,507.0,-254.0,-191.0,115.0,-195.0,992.0
33.0,-42.0,246.0,469.0,-237.0,-204.0,107.0,-187.0,993.0
36.0,-39.0,243.0,424.0,-223.0,-212.0,103.0,-174.0,990.0
38.0,-41.0,242.0,380.0,-212.0,-214.0,109.0,-175.0,989.0
33.0,-39.0,241.0,332.0,-208.0,-214.0,104.0,-184.0,980.0
34.0,-42.0,240.0,281.0,-207.0,-214.0,110.0,-197.0,981.0
37.0,-47.0,241.0,232.0,-208.0,-211.0,119.0,-216.0,983.0
45.0,-59.0,236.0,184.0,-206.0,-211.0,123.0,-229.0,983.0
44.0,-59.0,237.0,139.0,-199.0,-210.0,134.0,-254.0,987.0
46.0,-66.0,246.0,105.0,-187.0,-206.0,148.0,-282.0,981.0
51.0,-68.0,242.0,80.0,-172.0,-204.0,159.0,-295.0,988.0
57.0,-73.0,238.0,69.0,-154.0,-203.0,168.0,-314.0,995.0
55.0,-82.0,244.0,73.0,-140.0,-204.0,168.0,-320.0,1002.0
54.0,-74.0,245.0,92.0,-129.0,-203.0,169.0,-321.0,1005.0
53.0,-75.0,246.0,121.0,-121.0,-200.0,173.0,-318.0,1015.0
51.0,-75.0,247.0,162.0,-119.0,-194.0,165.0,-314.0,1005.0
49.0,-70.0,245.0,211.0,-118.0,-184.0,161.0,-295.0,1001.0
50.0,-69.0,244.0,268.0,-119.0,-170.0,157.0,-280.0,989.0
54.0,-65.0,239.0,327.0,-116.0,-154.0,163.0,-263.0,982.0
53.0,-57.0,237.0,387.0,-104.0,-137.0,172.0,-243.0,977.0
56.0,-54.0,232.0,441.0,-90.0,-121.0,173.0,-219.0,969.0
57.0,-44.0,235.0,487.0,-71.0,-106.0,182.0,-209.0,965.0
58.0,-44.0,233.0,521.0,-49.0,-91.0,186.0,-188.0,958.0
60.0,-41.0,233.0,542.0,-23.0,-73.0,192.0,-168.0,953.0
61.0,-38.0,233.0,546.0,8.0,-64.0,190.0,-154.0,946.0
57.0,-33.0,235.0,535.0,40.0,-54.0,191.0,-153.0,949.0
61.0,-39.0,234.0,513.0,76.0,-45.0,192.0,-156.0,956.0
60.0,-35.0,230.0,486.0,103.0,-39.0,190.0,-165.0,953.0
58.0,-40.0,233.0,459.0,125.0,-34.0,184.0,-173.0,960.0
57.0,-40.0,234.0,432.0,138.0,-30.0,179.0,-179.0,961.0
51.0,-44.0,237.0,414.0,147.0,-27.0,176.0,-189.0,974.0
53.0,-50.0,237.0,403.0,149.0,-26.0,175.0,-201.0,972.0
54.0,-51.0,239.0,396.0,148.0,-25.0,171.0,-204.0,975.0
52.0,-51.0,237.0,391.0,147.0,-28.0,163.0,-220.0,983.0
54.0,-58.0,247.0,395.0,146.0,-29.0,162.0,-219.0,980.0
52.0,-58.0,242.0,399.0,149.0,-31.0,159.0,-230.0,984.0
51.0,-56.0,240.0,404.0,156.0,-31.0,161.0,-229.0,982.0
49.0,-57.0,239.0,409.0,167.0,-30.0,157.0,-238.0,975.0
49.0,-55.0,238.0,417.0,181.0,-28.0,164.0,-227.0,980.0
52.0,-56.0,240.0,429.0,196.0,-22.0,163.0,-224.0,972.0
55.0,-54.0,236.0,442.0,213.0,-19.0,160.0,-218.0,971.0
50.0,-51.0,237.0,459.0,229.0,-13.0,162.0,-214.0,972.0
53.0,-48.0,239.0,475.0,239.0,-5.0,165.0,-202.0,972.0
54.0,-46.0,235.0,492.0,250.0,4.0,166.0,-195.0,970.0
50.0,-40.0,234.0,508.0,257.0,12.0,168.0,-176.0,964.0
46.0,-38.0,230.0,524.0,261.0,21.0,172.0,-162.0,966.0
56.0,-34.0,230.0,533.0,264.0,31.0,172.0,-156.0,954.0
53.0,-31.0,232.0,534.0,267.0,39.0,177.0,-146.0,946.0
57.0,-27.0,230.0,527.0,272.0,47.0,182.0,-130.0,944.0
56.0,-27.0,230.0,510.0,279.0,54.0,181.0,-112.0,939.0
59.0,-24.0,228.0,489.0,289.0,66.0,188.0,-106.0,940.0
59.0,-24.0,225.0,463.0,303.0,76.0,188.0,-99.0,934.0
60.0,-21.0,221.0,428.0,320.0,89.0,192.0,-102.0,924.0
58.0,-22.0,223.0,387.0,338.0,100.0,190.0,-101.0,909.0
60.0,-22.0,222.0,343.0,354.0,113.0,188.0,-100.0,901.0
59.0,-19.0,222.0,301.0,365.0,126.0,186.0,-96.0,897.0
50.0,-24.0,214.0,260.0,372.0,135.0,185.0,-101.0,892.0
57.0,-21.0,217.0,223.0,375.0,144.0,173.0,-102.0,886.0
52.0,-25.0,213.0,188.0,373.0,155.0,167.0,-109.0,874.0
51.0,-24.0,213.0,158.0,370.0,166.0,158.0,-111.0,871.0
48.0,-24.0,214.0,133.0,365.0,180.0,152.0,-115.0,867.0
46.0,-30.0,212.0,111.0,362.0,196.0,147.0,-121.0,866.0
42.0,-25.0,208.0,92.0,357.0,203.0,141.0,-122.0,859.0
43.0,-31.0,207.0,77.0,353.0,211.0,130.0,-123.0,857.0
41.0,-30.0,207.0,66.0,351.0,221.0,128.0,-128.0,846.0
40.0,-24.0,205.0,61.0,353.0,228.0,126.0,-125.0,848.0
34.0,-25.0,206.0,56.0,356.0,234.0,108.0,-121.0,856.0
32.0,-31.0,202.0,56.0,360.0,242.0,99.0,-122.0,839.0
33.0,-26.0,205.0,54.0,361.0,245.0,97.0,-117.0,843.0
32.0,-24.0,209.0,51.0,356.0,246.0,92.0,-114.0,843.0
31.0,-24.0,205.0,47.0,345.0,247.0,85.0,-107.0,839.0
26.0,-23.0,205.0,39.0,332.0,241.0,83.0,-100.0,836.0
23.0,-21.0,204.0,30.0,317.0,235.0,72.0,-98.0,832.0
22.0,-19.0,203.0,14.0,298.0,227.0,66.0,-93.0,832.0
24.0,-20.0,203.0,-7.0,274.0,217.0,61.0,-93.0,832.0
17.0,-19.0,206.0,-32.0,246.0,205.0,51.0,-91.0,831.0
17.0,-19.0,208.0,-61.0,216.0,190.0,41.0,-99.0,838.0
10.0,-21.0,206.0,-94.0,188.0,175.0,30.0,-102.0,848.0
18.0,-24.0,202.0,-127.0,157.0,163.0,26.0,-111.0,848.0
12.0,-28.0,212.0,-161.0,126.0,149.0,25.0,-125.0,863.0
8.0,-29.0,213.0,-191.0,96.0,132.0,21.0,-132.0,868.0
14.0,-32.0,214.0,-219.0,65.0,118.0,25.0,-144.0,891.0
14.0,-36.0,220.0,-244.0,36.0,104.0,35.0,-157.0,900.0
20.0,-39.0,224.0,-265.0,9.0,89.0,43.0,-177.0,911.0
24.0,-42.0,227.0,-283.0,-19.0,77.0,52.0,-198.0,934.0
24.0,-50.0,231.0,-300.0,-43.0,60.0,72.0,-206.0,951.0
27.0,-54.0,233.0,-314.0,-65.0,44.0,83.0,-224.0,958.0
34.0,-55.0,235.0,-324.0,-85.0,32.0,91.0,-233.0,973.0
36.0,-61.0,241.0,-329.0,-103.0,19.0,107.0,-250.0,985.0
39.0,-58.0,247.0,-329.0,-125.0,4.0,109.0,-257.0,997.0
37.0,-64.0,247.0,-324.0,-148.0,-5.0,115.0,-261.0,1005.0
40.0,-64.0,246.0,-312.0,-169.0,-12.0,116.0,-258.0,1007.0
40.0,-63.0,249.0,-296.0,-192.0,-18.0,129.0,-269.0,1020.0
40.0,-64.0,247.0,-278.0,-205.0,-21.0,128.0,-273.0,1022.0
42.0,-65.0,251.0,-257.0,-213.0,-22.0,129.0,-277.0,1030.0
42.0,-65.0,253.0,-231.0,-214.0,-20.0,130.0,-276.0,1039.0
44.0,-66.0,251.0,-210.0,-213.0,-17.0,140.0,-279.0,1040.0
45.0,-68.0,253.0,-190.0,-204.0,-14.0,136.0,-289.0,1052.0
45.0,-66.0,259.0,-169.0,-192.0,-11.0,133.0,-289.0,1053.0
44.0,-71.0,257.0,-149.0,-175.0,-4.0,133.0,-296.0,1053.0
45.0,-70.0,256.0,-129.0,-155.0,3.0,128.0,-299.0,1058.0
41.0,-67.0,256.0,-109.0,-133.0,11.0,131.0,-296.0,1060.0
41.0,-67.0,258.0,-90.0,-111.0,20.0,126.0,-292.0,1061.0
42.0,-69.0,262.0,-72.0,-88.0,30.0,116.0,-281.0,1059.0
37.0,-65.0,257.0,-53.0,-65.0,40.0,117.0,-284.0,1061.0
36.0,-63.0,256.0,-34.0,-43.0,48.0,106.0,-273.0,1041.0
33.0,-61.0,246.0,-15.0,-22.0,56.0,103.0,-267.0,1036.0
32.0,-57.0,249.0,1.0,-1.0,61.0,88.0,-250.0,1024.0
30.0,-59.0,245.0,13.0,20.0,68.0,76.0,-246.0,1007.0
21.0,-57.0,247.0,17.0,40.0,74.0,67.0,-230.0,1003.0
23.0,-55.0,237.0,20.0,57.0,81.0,51.0,-220.0,995.0
15.0,-48.0,241.0,15.0,70.0,85.0,42.0,-208.0,979.0
12.0,-43.0,234.0,7.0,77.0,87.0,31.0,-199.0,968.0
15.0,-45.0,236.0,-3.0,81.0,91.0,18.0,-194.0,960.0
11.0,-43.0,231.0,-15.0,83.0,94.0,11.0,-185.0,946.0
11.0,-41.0,233.0,-28.0,81.0,93.0,11.0,-184.0,944.0
13.0,-41.0,228.0,-42.0,81.0,91.0,11.0,-178.0,942.0
12.0,-39.0,232.0,-56.0,82.0,87.0,19.0,-180.0,940.0
12.0,-41.0,228.0,-69.0,80.0,81.0,18.0,-173.0,944.0
14.0,-39.0,233.0,-79.0,77.0,75.0,23.0,-176.0,946.0
16.0,-42.0,232.0,-83.0,73.0,70.0,26.0,-182.0,946.0
15.0,-45.0,231.0,-86.0,67.0,62.0,40.0,-188.0,958.0
17.0,-46.0,234.0,-82.0,62.0,55.0,44.0,-197.0,963.0
23.0,-50.0,234.0,-73.0,58.0,46.0,54.0,-202.0,971.0
22.0,-50.0,239.0,-62.0,52.0,38.0,65.0,-211.0,981.0
29.0,-57.0,244.0,-47.0,48.0,31.0,75.0,-220.0,980.0
27.0,-55.0,241.0,-30.0,43.0,23.0,84.0,-227.0,984.0
31.0,-56.0,241.0,-11.0,40.0,14.0,87.0,-231.0,999.0
30.0,-56.0,247.0,8.0,37.0,9.0,93.0,-234.0,996.0
33.0,-57.0,248.0,26.0,38.0,2.0,104.0,-239.0,997.0
40.0,-58.0,244.0,43.0,38.0,-6.0,114.0,-238.0,998.0
34.0,-56.0,241.0,58.0,39.0,-11.0,111.0,-234.0,1006.0
50.0,-58.0,247.0,70.0,39.0,-18.0,112.0,-239.0,1004.0
36.0,-58.0,248.0,78.0,37.0,-23.0,105.0,-226.0,1004.0
36.0,-53.0,243.0,84.0,35.0,-27.0,104.0,-229.0,1006.0
32.0,-55.0,244.0,86.0,33.0,-28.0,96.0,-220.0,995.0
34.0,-51.0,246.0,83.0,32.0,-30.0,93.0,-216.0,994.0
29.0,-50.0,241.0,76.0,30.0,-30.0,90.0,-210.0,988.0
29.0,-47.0,241.0,65.0,26.0,-30.0,84.0,-201.0,988.0
26.0,-47.0,241.0,52.0,22.0,-30.0,77.0,-201.0,977.0
27.0,-44.0,238.0,35.0,16.0,-28.0,66.0,-193.0,978.0
26.0,-45.0,234.0,18.0,9.0,-26.0,63.0,-189.0,969.0
24.0,-45.0,237.0,-2.0,6.0,-25.0,63.0,-194.0,971.0
19.0,-46.0,229.0,-21.0,4.0,-23.0,60.0,-188.0,965.0
24.0,-43.0,234.0,-41.0,4.0,-21.0,55.0,-193.0,972.0
21.0,-46.0,236.0,-59.0,7.0,-18.0,58.0,-197.0,965.0
23.0,-47.0,237.0,-73.0,10.0,-18.0,59.0,-201.0,968.0
23.0,-47.0,234.0,-79.0,12.0,-14.0,63.0,-214.0,964.0
23.0,-51.0,233.0,-81.0,12.0,-9.0,65.0,-215.0,962.0
23.0,-56.0,236.0,-77.0,12.0,-5.0,64.0,-218.0,958.0
26.0,-56.0,234.0,-68.0,12.0,-1.0,66.0,-226.0,961.0
26.0,-58.0,237.0,-53.0,11.0,1.0,72.0,-232.0,959.0
25.0,-57.0,235.0,-35.0,9.0,4.0,69.0,-240.0,965.0
31.0,-55.0,230.0,-17.0,8.0,6.0,74.0,-248.0,958.0
28.0,-58.0,228.0,2.0,5.0,8.0,79.0,-245.0,959.0
25.0,-61.0,231.0,21.0,5.0,10.0,77.0,-249.0,960.0
30.0,-59.0,230.0,35.0,7.0,12.0,86.0,-251.0,958.0
30.0,-61.0,232.0,50.0,10.0,14.0,86.0,-248.0,952.0
31.0,-61.0,235.0,58.0,17.0,17.0,84.0,-248.0,957.0
31.0,-58.0,233.0,65.0,24.0,18.0,89.0,-240.0,956.0
32.0,-58.0,235.0,66.0,30.0,22.0,90.0,-235.0,957.0
35.0,-55.0,233.0,66.0,36.0,23.0,89.0,-236.0,952.0
32.0,-56.0,233.0,62.0,42.0,25.0,93.0,-237.0,957.0
31.0,-53.0,232.0,57.0,45.0,25.0,91.0,-235.0,954.0
33.0,-54.0,236.0,51.0,46.0,26.0,85.0,-230.0,953.0
30.0,-60.0,232.0,43.0,46.0,27.0,89.0,-230.0,954.0
30.0,-57.0,230.0,36.0,46.0,29.0,81.0,-231.0,947.0
28.0,-54.0,230.0,29.0,44.0,29.0,84.0,-233.0,949.0
29.0,-56.0,233.0,25.0,41.0,29.0,78.0,-234.0,956.0
26.0,-56.0,227.0,20.0,39.0,27.0,74.0,-233.0,947.0
29.0,-57.0,231.0,20.0,35.0,25.0,75.0,-241.0,952.0
25.0,-57.0,234.0,20.0,32.0,24.0,73.0,-243.0,953.0
27.0,-56.0,231.0,25.0,29.0,22.0,70.0,-246.0,953.0
27.0,-58.0,233.0,29.0,26.0,21.0,71.0,-242.0,958.0
21.0,-57.0,231.0,36.0,24.0,19.0,59.0,-245.0,951.0
26.0,-59.0,234.0,41.0,21.0,15.0,64.0,-237.0,959.0
24.0,-58.0,233.0,47.0,19.0,15.0,68.0,-238.0,956.0
28.0,-59.0,233.0,51.0,17.0,12.0,64.0,-238.0,958.0
24.0,-58.0,234.0,53.0,16.0,13.0,65.0,-237.0,957.0
25.0,-55.0,235.0,53.0,15.0,12.0,63.0,-236.0,960.0
26.0,-53.0,233.0,51.0,13.0,11.0,74.0,-232.0,959.0
25.0,-53.0,238.0,50.0,13.0,12.0,68.0,-231.0,959.0
28.0,-56.0,234.0,50.0,13.0,11.0,75.0,-237.0,957.0
29.0,-56.0,237.0,49.0,12.0,11.0,78.0,-233.0,958.0
27.0,-57.0,230.0,50.0,13.0,11.0,78.0,-225.0,957.0
27.0,-58.0,232.0,52.0,14.0,10.0,79.0,-227.0,955.0
24.0,-56.0,234.0,53.0,16.0,11.0,79.0,-232.0,962.0
28.0,-59.0,235.0,49.0,17.0,12.0,80.0,-231.0,955.0
27.0,-54.0,231.0,49.0,18.0,13.0,83.0,-232.0,959.0
27.0,-54.0,233.0,45.0,21.0,13.0,80.0,-228.0,963.0
28.0,-55.0,237.0,42.0,24.0,13.0,79.0,-233.0,957.0
28.0,-54.0,230.0,41.0,26.0,16.0,75.0,-232.0,955.0
27.0,-55.0,232.0,41.0,29.0,16.0,76.0,-230.0,958.0
31.0,-57.0,231.0,42.0,30.0,15.0,77.0,-232.0,960.0
28.0,-56.0,233.0,41.0,32.0,16.0,78.0,-232.0,960.0
27.0,-53.0,233.0,43.0,34.0,15.0,78.0,-231.0,956.0
32.0,-56.0,232.0,43.0,38.0,13.0,77.0,-232.0,963.0
26.0,-53.0,234.0,42.0,40.0,14.0,75.0,-227.0,957.0
29.0,-59.0,234.0,38.0,43.0,13.0,82.0,-226.0,960.0
27.0,-54.0,233.0,34.0,44.0,14.0,75.0,-228.0,957.0
29.0,-57.0,234.0,30.0,47.0,14.0,80.0,-231.0,960.0
26.0,-54.0,232.0,26.0,48.0,15.0,80.0,-227.0,961.0
28.0,-55.0,235.0,25.0,48.0,16.0,73.0,-224.0,961.0
27.0,-52.0,237.0,24.0,48.0,16.0,69.0,-231.0,961.0
23.0,-55.0,233.0,24.0,49.0,14.0,70.0,-225.0,963.0
25.0,-55.0,233.0,26.0,46.0,14.0,66.0,-224.0,966.0
24.0,-54.0,232.0,30.0,44.0,13.0,65.0,-225.0,958.0
22.0,-57.0,233.0,32.0,42.0,15.0,62.0,-227.0,962.0
21.0,-55.0,223.0,34.0,39.0,14.0,65.0,-228.0,957.0
23.0,-53.0,232.0,38.0,40.0,12.0,65.0,-231.0,961.0
25.0,-54.0,235.0,42.0,39.0,13.0,57.0,-226.0,958.0
23.0,-52.0,236.0,46.0,39.0,11.0,62.0,-228.0,958.0
25.0,-54.0,231.0,50.0,38.0,11.0,62.0,-228.0,956.0
25.0,-56.0,233.0,54.0,36.0,9.0,61.0,-233.0,955.0
21.0,-52.0,233.0,56.0,35.0,8.0,59.0,-224.0,957.0
25.0,-52.0,234.0,58.0,34.0,8.0,56.0,-228.0,957.0
25.0,-53.0,233.0,60.0,33.0,6.0,57.0,-225.0,955.0
21.0,-51.0,230.0,61.0,31.0,5.0,60.0,-227.0,957.0
25.0,-55.0,234.0,61.0,31.0,4.0,57.0,-224.0,957.0
24.0,-56.0,239.0,60.0,31.0,3.0,61.0,-221.0,957.0
22.0,-52.0,230.0,59.0,30.0,5.0,62.0,-225.0,961.0
24.0,-53.0,236.0,58.0,31.0,3.0,56.0,-224.0,960.0
28.0,-54.0,230.0,55.0,31.0,3.0,61.0,-226.0,962.0
23.0,-51.0,234.0,53.0,33.0,1.0,62.0,-226.0,960.0
22.0,-55.0,230.0,50.0,34.0,-1.0,65.0,-230.0,960.0
22.0,-54.0,235.0,49.0,34.0,-2.0,58.0,-233.0,961.0
27.0,-57.0,236.0,48.0,36.0,-3.0,61.0,-232.0,961.0
22.0,-55.0,228.0,47.0,36.0,-4.0,66.0,-233.0,963.0
26.0,-57.0,235.0,49.0,36.0,-7.0,56.0,-230.0,960.0
23.0,-57.0,237.0,49.0,36.0,-8.0,68.0,-232.0,958.0
29.0,-60.0,232.0,53.0,34.0,-10.0,65.0,-233.0,963.0
23.0,-52.0,234.0,56.0,33.0,-8.0,60.0,-230.0,959.0
25.0,-54.0,235.0,58.0,32.0,-8.0,63.0,-232.0,963.0
25.0,-56.0,234.0,58.0,30.0,-9.0,62.0,-225.0,957.0
23.0,-54.0,235.0,58.0,28.0,-8.0,60.0,-228.0,955.0
25.0,-53.0,233.0,57.0,27.0,-7.0,64.0,-225.0,955.0
25.0,-55.0,234.0,57.0,26.0,-8.0,64.0,-227.0,960.0
23.0,-54.0,236.0,57.0,25.0,-6.0,64.0,-225.0,959.0
23.0,-52.0,236.0,57.0,24.0,-6.0,62.0,-231.0,958.0
22.0,-54.0,233.0,55.0,23.0,-6.0,68.0,-224.0,959.0
24.0,-57.0,232.0,54.0,20.0,-5.0,66.0,-223.0,953.0
19.0,-54.0,223.0,54.0,21.0,-4.0,69.0,-225.0,956.0
26.0,-57.0,232.0,52.0,19.0,-5.0,63.0,-224.0,951.0
25.0,-56.0,234.0,49.0,18.0,-6.0,68.0,-223.0,953.0
24.0,-51.0,232.0,47.0,16.0,-6.0,70.0,-230.0,951.0
22.0,-53.0,234.0,44.0,14.0,-9.0,65.0,-229.0,951.0
25.0,-58.0,231.0,41.0,14.0,-9.0,64.0,-230.0,960.0
23.0,-54.0,235.0,38.0,14.0,-10.0,63.0,-229.0,960.0
28.0,-56.0,235.0,36.0,13.0,-10.0,61.0,-238.0,959.0
23.0,-56.0,238.0,37.0,12.0,-11.0,59.0,-245.0,960.0
26.0,-58.0,235.0,35.0,11.0,-12.0,64.0,-236.0,957.0
20.0,-57.0,237.0,38.0,10.0,-13.0,58.0,-239.0,961.0
26.0,-59.0,246.0,41.0,8.0,-14.0,55.0,-238.0,970.0
24.0,-60.0,238.0,44.0,7.0,-15.0,55.0,-231.0,965.0
21.0,-53.0,233.0,50.0,3.0,-15.0,49.0,-232.0,962.0
24.0,-59.0,238.0,53.0,2.0,-14.0,52.0,-232.0,962.0
20.0,-55.0,233.0,58.0,1.0,-14.0,54.0,-232.0,963.0
22.0,-57.0,236.0,60.0,-1.0,-13.0,63.0,-230.0,958.0
25.0,-53.0,235.0,60.0,-1.0,-11.0,53.0,-230.0,961.0
25.0,-54.0,237.0,59.0,1.0,-10.0,59.0,-226.0,956.0
22.0,-53.0,233.0,58.0,2.0,-10.0,60.0,-227.0,958.0
24.0,-55.0,230.0,58.0,2.0,-9.0,59.0,-225.0,960.0
25.0,-51.0,234.0,55.0,4.0,-9.0,58.0,-230.0,956.0
26.0,-54.0,234.0,55.0,6.0,-8.0,65.0,-218.0,958.0
23.0,-51.0,234.0,54.0,10.0,-9.0,68.0,-220.0,957.0
27.0,-54.0,232.0,53.0,13.0,-10.0,64.0,-222.0,957.0
24.0,-52.0,230.0,53.0,15.0,-11.0,64.0,-225.0,955.0
23.0,-55.0,233.0,53.0,16.0,-11.0,65.0,-220.0,957.0
25.0,-54.0,234.0,53.0,17.0,-12.0,61.0,-227.0,962.0
23.0,-55.0,237.0,53.0,17.0,-12.0,64.0,-226.0,960.0
25.0,-55.0,233.0,53.0,15.0,-11.0,64.0,-229.0,964.0
20.0,-53.0,231.0,51.0,14.0,-10.0,53.0,-227.0,969.0
26.0,-52.0,234.0,50.0,11.0,-9.0,66.0,-234.0,965.0
23.0,-56.0,236.0,46.0,9.0,-10.0,60.0,-226.0,973.0
25.0,-48.0,235.0,42.0,7.0,-10.0,51.0,-233.0,967.0
20.0,-59.0,236.0,39.0,2.0,-10.0,55.0,-234.0,968.0
22.0,-57.0,234.0,41.0,-1.0,-8.0,53.0,-232.0,964.0
23.0,-59.0,234.0,41.0,-2.0,-9.0,59.0,-234.0,962.0
22.0,-55.0,233.0,43.0,-4.0,-9.0,59.0,-238.0,958.0
22.0,-54.0,231.0,49.0,-5.0,-9.0,64.0,-234.0,958.0
24.0,-56.0,236.0,55.0,-5.0,-11.0,62.0,-237.0,956.0
24.0,-58.0,238.0,64.0,-5.0,-12.0,63.0,-227.0,955.0
24.0,-54.0,231.0,72.0,-5.0,-13.0,62.0,-236.0,956.0
26.0,-54.0,233.0,79.0,-4.0,-13.0,60.0,-234.0,956.0
26.0,-56.0,236.0,85.0,-3.0,-12.0,67.0,-228.0,957.0
23.0,-55.0,231.0,91.0,-2.0,-11.0,68.0,-224.0,954.0
24.0,-54.0,232.0,94.0,-1.0,-8.0,68.0,-232.0,959.0
24.0,-54.0,232.0,96.0,0.0,-9.0,69.0,-224.0,951.0
25.0,-52.0,232.0,96.0,2.0,-8.0,67.0,-228.0,959.0
27.0,-52.0,235.0,93.0,4.0,-7.0,66.0,-217.0,961.0
24.0,-53.0,236.0,88.0,4.0,-4.0,66.0,-219.0,962.0
26.0,-54.0,235.0,82.0,5.0,-3.0,69.0,-221.0,966.0
24.0,-52.0,235.0,76.0,5.0,-1.0,69.0,-219.0,967.0
28.0,-53.0,237.0,69.0,4.0,1.0,70.0,-223.0,964.0
23.0,-53.0,234.0,63.0,3.0,4.0,72.0,-220.0,962.0
29.0,-54.0,230.0,58.0,1.0,3.0,70.0,-222.0,968.0
26.0,-57.0,235.0,54.0,-2.0,3.0,70.0,-224.0,968.0
28.0,-53.0,232.0,52.0,-3.0,5.0,74.0,-224.0,964.0
25.0,-52.0,238.0,52.0,-3.0,5.0,68.0,-227.0,962.0
25.0,-53.0,231.0,54.0,-6.0,3.0,67.0,-229.0,961.0
25.0,-55.0,234.0,55.0,-8.0,5.0,69.0,-224.0,960.0
25.0,-54.0,231.0,57.0,-9.0,7.0,71.0,-226.0,960.0
26.0,-53.0,233.0,57.0,-8.0,6.0,68.0,-227.0,963.0
23.0,-50.0,233.0,57.0,-7.0,6.0,71.0,-227.0,958.0
22.0,-54.0,235.0,58.0,-6.0,6.0,70.0,-229.0,955.0
27.0,-53.0,235.0,56.0,-3.0,4.0,71.0,-221.0,960.0
26.0,-50.0,231.0,54.0,-2.0,3.0,75.0,-227.0,959.0
26.0,-54.0,230.0,54.0,2.0,3.0,73.0,-223.0,957.0
25.0,-50.0,232.0,51.0,2.0,3.0,73.0,-224.0,966.0
25.0,-54.0,236.0,49.0,5.0,2.0,70.0,-222.0,961.0
26.0,-51.0,233.0,46.0,5.0,2.0,71.0,-223.0,963.0
27.0,-52.0,237.0,44.0,6.0,1.0,72.0,-222.0,959.0
27.0,-51.0,236.0,41.0,7.0,0.0,69.0,-228.0,960.0
24.0,-53.0,231.0,40.0,8.0,2.0,71.0,-224.0,960.0
28.0,-55.0,240.0,38.0,8.0,-1.0,67.0,-221.0,957.0
25.0,-55.0,234.0,39.0,9.0,1.0,69.0,-226.0,960.0
26.0,-53.0,231.0,38.0,9.0,-1.0,68.0,-225.0,962.0
26.0,-57.0,237.0,40.0,8.0,-2.0,69.0,-227.0,965.0
23.0,-51.0,235.0,41.0,8.0,-3.0,66.0,-233.0,964.0
22.0,-51.0,233.0,43.0,9.0,-4.0,54.0,-221.0,961.0
27.0,-54.0,235.0,46.0,9.0,-4.0,61.0,-230.0,964.0
23.0,-55.0,234.0,50.0,7.0,-5.0,65.0,-229.0,961.0
21.0,-51.0,233.0,52.0,5.0,-5.0,59.0,-224.0,960.0
24.0,-52.0,233.0,52.0,6.0,-6.0,59.0,-227.0,963.0
23.0,-53.0,234.0,51.0,5.0,-6.0,56.0,-225.0,957.0
23.0,-53.0,235.0,48.0,5.0,-7.0,59.0,-223.0,959.0
24.0,-52.0,230.0,48.0,4.0,-7.0,58.0,-226.0,964.0
23.0,-55.0,235.0,44.0,5.0,-7.0,61.0,-223.0,960.0
24.0,-53.0,236.0,39.0,5.0,-7.0,69.0,-225.0,957.0
24.0,-55.0,241.0,36.0,6.0,-6.0,62.0,-224.0,962.0
26.0,-53.0,232.0,34.0,8.0,-6.0,69.0,-229.0,962.0
28.0,-55.0,234.0,32.0,9.0,-6.0,67.0,-229.0,959.0
25.0,-57.0,234.0,31.0,10.0,-6.0,69.0,-231.0,959.0
25.0,-55.0,235.0,31.0,11.0,-7.0,69.0,-229.0,963.0
27.0,-55.0,236.0,32.0,11.0,-7.0,69.0,-230.0,957.0
27.0,-55.0,235.0,34.0,10.0,-8.0,74.0,-229.0,961.0
28.0,-56.0,236.0,37.0,10.0,-9.0,71.0,-227.0,964.0
26.0,-55.0,232.0,42.0,10.0,-8.0,67.0,-235.0,958.0
27.0,-55.0,238.0,46.0,11.0,-7.0,69.0,-229.0,966.0
21.0,-53.0,234.0,50.0,11.0,-8.0,69.0,-233.0,962.0
27.0,-56.0,235.0,55.0,13.0,-7.0,69.0,-229.0,958.0
25.0,-55.0,232.0,58.0,14.0,-9.0,68.0,-228.0,958.0
24.0,-58.0,233.0,60.0,13.0,-8.0,68.0,-229.0,956.0
25.0,-54.0,235.0,59.0,15.0,-8.0,70.0,-224.0,960.0
25.0,-51.0,233.0,56.0,16.0,-9.0,71.0,-224.0,963.0
25.0,-52.0,231.0,53.0,15.0,-10.0,69.0,-222.0,963.0
26.0,-54.0,234.0,48.0,15.0,-9.0,67.0,-221.0,961.0
28.0,-55.0,234.0,41.0,15.0,-8.0,70.0,-228.0,963.0
27.0,-55.0,238.0,36.0,14.0,-8.0,64.0,-228.0,958.0
23.0,-52.0,231.0,30.0,13.0,-9.0,65.0,-228.0,962.0
22.0,-56.0,227.0,26.0,12.0,-7.0,61.0,-231.0,962.0
25.0,-55.0,233.0,24.0,11.0,-6.0,69.0,-226.0,960.0
25.0,-55.0,235.0,22.0,9.0,-6.0,64.0,-232.0,959.0
25.0,-57.0,238.0,24.0,8.0,-8.0,63.0,-231.0,961.0
26.0,-57.0,236.0,27.0,8.0,-8.0,64.0,-230.0,966.0
23.0,-58.0,233.0,30.0,8.0,-10.0,67.0,-230.0,957.0
24.0,-54.0,232.0,36.0,7.0,-10.0,64.0,-234.0,963.0
25.0,-58.0,235.0,41.0,10.0,-12.0,65.0,-235.0,961.0
26.0,-59.0,236.0,45.0,10.0,-11.0,66.0,-231.0,961.0
26.0,-54.0,239.0,50.0,11.0,-12.0,68.0,-230.0,959.0
26.0,-55.0,231.0,53.0,11.0,-13.0,67.0,-232.0,961.0
23.0,-54.0,235.0,54.0,12.0,-12.0,67.0,-237.0,959.0
24.0,-55.0,232.0,56.0,13.0,-12.0,70.0,-230.0,955.0
26.0,-54.0,234.0,57.0,12.0,-10.0,73.0,-232.0,958.0
26.0,-55.0,233.0,56.0,14.0,-9.0,68.0,-224.0,959.0
26.0,-53.0,232.0,56.0,16.0,-8.0,71.0,-223.0,961.0
27.0,-55.0,233.0,54.0,17.0,-9.0,70.0,-228.0,958.0
27.0,-57.0,229.0,53.0,18.0,-9.0,72.0,-226.0,961.0
28.0,-56.0,234.0,52.0,20.0,-9.0,69.0,-229.0,958.0
28.0,-54.0,237.0,51.0,21.0,-9.0,69.0,-227.0,956.0
27.0,-54.0,234.0,50.0,21.0,-8.0,74.0,-224.0,960.0
28.0,-54.0,233.0,47.0,21.0,-7.0,67.0,-227.0,957.0
26.0,-52.0,240.0,45.0,20.0,-6.0,69.0,-230.0,959.0
24.0,-52.0,237.0,45.0,19.0,-7.0,73.0,-221.0,960.0
25.0,-52.0,231.0,46.0,19.0,-5.0,68.0,-223.0,960.0
26.0,-57.0,230.0,46.0,18.0,-4.0,67.0,-226.0,958.0
25.0,-56.0,232.0,45.0,17.0,-5.0,61.0,-226.0,960.0
26.0,-57.0,232.0,46.0,15.0,-2.0,61.0,-229.0,969.0
22.0,-56.0,231.0,47.0,14.0,-3.0,67.0,-232.0,956.0
25.0,-56.0,234.0,46.0,13.0,-2.0,62.0,-231.0,962.0
25.0,-56.0,235.0,47.0,13.0,-2.0,63.0,-233.0,962.0
21.0,-58.0,238.0,47.0,13.0,-2.0,65.0,-230.0,960.0
19.0,-54.0,232.0,48.0,15.0,-3.0,63.0,-232.0,959.0
23.0,-56.0,235.0,48.0,14.0,-4.0,66.0,-228.0,963.0
28.0,-57.0,236.0,49.0,13.0,-5.0,66.0,-229.0,960.0
25.0,-56.0,232.0,49.0,12.0,-5.0,67.0,-230.0,967.0
27.0,-54.0,229.0,51.0,12.0,-6.0,64.0,-232.0,961.0
25.0,-55.0,231.0,51.0,11.0,-7.0,71.0,-225.0,960.0
27.0,-54.0,235.0,55.0,10.0,-7.0,70.0,-234.0,960.0
26.0,-54.0,233.0,56.0,9.0,-7.0,62.0,-226.0,968.0
24.0,-56.0,232.0,57.0,7.0,-7.0,68.0,-228.0,960.0
28.0,-57.0,232.0,59.0,7.0,-7.0,69.0,-224.0,963.0
24.0,-53.0,235.0,60.0,7.0,-6.0,68.0,-220.0,965.0
23.0,-53.0,235.0,60.0,7.0,-4.0,65.0,-222.0,960.0
26.0,-52.0,238.0,60.0,6.0,-3.0,63.0,-220.0,957.0
25.0,-51.0,235.0,59.0,5.0,-3.0,68.0,-222.0,956.0
26.0,-52.0,234.0,57.0,6.0,-2.0,65.0,-219.0,961.0
26.0,-51.0,238.0,57.0,9.0,-2.0,68.0,-223.0,959.0
26.0,-53.0,234.0,55.0,12.0,-1.0,66.0,-221.0,962.0
23.0,-50.0,236.0,54.0,14.0,-2.0,70.0,-224.0,959.0
24.0,-50.0,236.0,50.0,17.0,-1.0,71.0,-225.0,958.0
27.0,-54.0,235.0,47.0,19.0,-4.0,70.0,-223.0,957.0
27.0,-55.0,237.0,43.0,21.0,-5.0,70.0,-228.0,966.0
28.0,-54.0,231.0,39.0,23.0,-4.0,68.0,-229.0,965.0
24.0,-55.0,233.0,32.0,24.0,-5.0,69.0,-237.0,966.0
21.0,-60.0,230.0,26.0,21.0,-5.0,67.0,-232.0,967.0
24.0,-57.0,236.0,23.0,19.0,-6.0,67.0,-231.0,963.0
24.0,-57.0,232.0,23.0,16.0,-7.0,60.0,-231.0,963.0
27.0,-58.0,233.0,24.0,13.0,-6.0,58.0,-232.0,959.0
27.0,-58.0,233.0,27.0,10.0,-7.0,61.0,-234.0,958.0
22.0,-58.0,227.0,34.0,9.0,-11.0,62.0,-233.0,954.0
23.0,-58.0,233.0,42.0,9.0,-10.0,60.0,-233.0,959.0
27.0,-60.0,234.0,52.0,10.0,-12.0,56.0,-233.0,960.0
21.0,-57.0,233.0,61.0,12.0,-12.0,62.0,-234.0,957.0
25.0,-56.0,231.0,71.0,15.0,-12.0,65.0,-236.0,952.0
22.0,-55.0,232.0,80.0,17.0,-13.0,67.0,-231.0,956.0
23.0,-56.0,231.0,88.0,21.0,-12.0,66.0,-227.0,955.0
24.0,-55.0,231.0,95.0,23.0,-13.0,68.0,-230.0,956.0
25.0,-55.0,233.0,98.0,27.0,-12.0,69.0,-224.0,959.0
27.0,-54.0,234.0,96.0,27.0,-14.0,65.0,-227.0,958.0
26.0,-51.0,235.0,92.0,28.0,-13.0,69.0,-229.0,962.0
24.0,-55.0,234.0,86.0,26.0,-12.0,68.0,-226.0,961.0
28.0,-53.0,236.0,78.0,22.0,-12.0,72.0,-219.0,964.0
25.0,-51.0,237.0,68.0,18.0,-11.0,74.0,-220.0,975.0
29.0,-53.0,238.0,60.0,16.0,-11.0,71.0,-220.0,958.0
25.0,-55.0,234.0,54.0,15.0,-11.0,72.0,-221.0,960.0
21.0,-52.0,231.0,49.0,13.0,-11.0,72.0,-223.0,961.0
27.0,-51.0,233.0,45.0,14.0,-10.0,73.0,-224.0,964.0
27.0,-54.0,232.0,41.0,16.0,-8.0,74.0,-222.0,964.0
24.0,-54.0,234.0,41.0,18.0,-9.0,75.0,-224.0,960.0
27.0,-51.0,234.0,41.0,20.0,-8.0,78.0,-228.0,954.0
23.0,-53.0,232.0,40.0,24.0,-8.0,72.0,-229.0,960.0
26.0,-53.0,233.0,43.0,23.0,-10.0,74.0,-227.0,960.0
22.0,-57.0,232.0,43.0,24.0,-10.0,68.0,-227.0,965.0
23.0,-51.0,237.0,44.0,24.0,-10.0,69.0,-227.0,964.0
28.0,-56.0,238.0,45.0,22.0,-9.0,71.0,-227.0,952.0
22.0,-56.0,235.0,44.0,21.0,-8.0,68.0,-227.0,967.0
27.0,-48.0,236.0,43.0,20.0,-9.0,68.0,-226.0,959.0
26.0,-53.0,232.0,42.0,20.0,-8.0,69.0,-222.0,960.0
25.0,-56.0,235.0,40.0,19.0,-7.0,66.0,-223.0,961.0
26.0,-56.0,237.0,37.0,20.0,-7.0,63.0,-230.0,964.0
30.0,-54.0,235.0,35.0,20.0,-8.0,69.0,-225.0,973.0
24.0,-54.0,236.0,34.0,18.0,-8.0,66.0,-224.0,960.0
25.0,-51.0,234.0,32.0,18.0,-7.0,67.0,-227.0,970.0
22.0,-53.0,235.0,31.0,19.0,-6.0,65.0,-227.0,965.0
23.0,-52.0,234.0,30.0,20.0,-7.0,65.0,-227.0,966.0
26.0,-52.0,236.0,30.0,19.0,-8.0,66.0,-223.0,966.0
25.0,-54.0,236.0,30.0,20.0,-7.0,68.0,-225.0,968.0
25.0,-56.0,231.0,28.0,20.0,-8.0,66.0,-223.0,963.0
25.0,-51.0,236.0,27.0,21.0,-9.0,67.0,-223.0,965.0
23.0,-52.0,232.0,25.0,22.0,-9.0,62.0,-218.0,962.0
26.0,-53.0,232.0,21.0,21.0,-9.0,65.0,-218.0,964.0
25.0,-54.0,236.0,17.0,21.0,-10.0,69.0,-223.0,961.0
25.0,-53.0,231.0,8.0,23.0,-7.0,66.0,-220.0,962.0
24.0,-54.0,237.0,2.0,25.0,-5.0,66.0,-222.0,958.0
25.0,-52.0,237.0,-5.0,25.0,-6.0,63.0,-227.0,958.0
23.0,-55.0,236.0,-12.0,25.0,-6.0,67.0,-228.0,962.0
23.0,-51.0,233.0,-17.0,26.0,-5.0,66.0,-229.0,960.0
25.0,-58.0,236.0,-21.0,25.0,-5.0,65.0,-227.0,961.0
20.0,-55.0,243.0,-21.0,27.0,-5.0,66.0,-233.0,960.0
21.0,-59.0,233.0,-18.0,25.0,-4.0,69.0,-235.0,961.0
22.0,-57.0,233.0,-11.0,25.0,-4.0,69.0,-235.0,958.0
25.0,-58.0,233.0,-4.0,24.0,-5.0,64.0,-241.0,966.0
25.0,-58.0,231.0,4.0,22.0,-5.0,67.0,-233.0,961.0
25.0,-56.0,236.0,12.0,21.0,-5.0,59.0,-241.0,963.0
23.0,-55.0,234.0,21.0,20.0,-7.0,67.0,-238.0,957.0
25.0,-57.0,230.0,27.0,21.0,-8.0,66.0,-235.0,959.0
22.0,-55.0,233.0,31.0,22.0,-10.0,62.0,-236.0,960.0
24.0,-60.0,235.0,34.0,22.0,-10.0,64.0,-233.0,955.0
25.0,-55.0,232.0,34.0,23.0,-9.0,61.0,-236.0,955.0
26.0,-55.0,234.0,33.0,25.0,-9.0,61.0,-234.0,957.0
25.0,-56.0,232.0,29.0,26.0,-11.0,60.0,-233.0,955.0
26.0,-55.0,230.0,24.0,26.0,-10.0,64.0,-231.0,959.0
25.0,-56.0,233.0,16.0,28.0,-12.0,64.0,-230.0,958.0
23.0,-57.0,237.0,10.0,28.0,-12.0,61.0,-231.0,958.0
20.0,-53.0,232.0,4.0,27.0,-12.0,60.0,-233.0,959.0
25.0,-56.0,234.0,0.0,27.0,-11.0,55.0,-233.0,961.0
23.0,-58.0,232.0,-4.0,29.0,-11.0,61.0,-239.0,961.0
21.0,-56.0,232.0,-5.0,29.0,-11.0,63.0,-232.0,960.0
20.0,-57.0,234.0,-4.0,29.0,-11.0,64.0,-235.0,959.0
22.0,-59.0,234.0,-6.0,31.0,-11.0,65.0,-238.0,957.0
24.0,-59.0,230.0,-3.0,30.0,-11.0,65.0,-244.0,959.0
26.0,-56.0,235.0,-1.0,32.0,-11.0,66.0,-236.0,959.0
28.0,-60.0,233.0,1.0,32.0,-12.0,63.0,-241.0,962.0
21.0,-58.0,232.0,3.0,33.0,-12.0,64.0,-237.0,960.0
24.0,-56.0,236.0,4.0,32.0,-13.0,66.0,-233.0,955.0
23.0,-56.0,231.0,6.0,31.0,-13.0,60.0,-239.0,964.0
24.0,-58.0,233.0,7.0,31.0,-12.0,64.0,-242.0,959.0
25.0,-54.0,234.0,9.0,30.0,-12.0,59.0,-238.0,959.0
21.0,-58.0,229.0,9.0,30.0,-12.0,64.0,-242.0,960.0
23.0,-62.0,232.0,11.0,29.0,-13.0,58.0,-241.0,956.0
23.0,-56.0,234.0,12.0,28.0,-14.0,56.0,-245.0,955.0
21.0,-55.0,228.0,15.0,27.0,-14.0,58.0,-239.0,957.0
20.0,-59.0,236.0,16.0,26.0,-13.0,57.0,-241.0,956.0
24.0,-58.0,234.0,18.0,27.0,-13.0,60.0,-246.0,957.0
