acc1_x,acc1_y,acc1_z,gyro_x,gyro_y,gyro_z,acc2_x,acc2_y,acc2_z
-8.0,-242.0,-58.0,43.0,25.0,-16.0,-39.0,-987.0,-202.0
-9.0,-243.0,-55.0,43.0,24.0,-15.0,-38.0,-988.0,-205.0
-8.0,-244.0,-52.0,43.0,24.0,-14.0,-39.0,-996.0,-202.0
-8.0,-248.0,-54.0,45.0,24.0,-13.0,-39.0,-987.0,-202.0
-9.0,-243.0,-55.0,44.0,23.0,-12.0,-42.0,-994.0,-210.0
-12.0,-247.0,-51.0,43.0,23.0,-13.0,-39.0,-992.0,-213.0
-7.0,-242.0,-49.0,42.0,22.0,-12.0,-36.0,-996.0,-209.0
-6.0,-243.0,-53.0,42.0,23.0,-12.0,-39.0,-995.0,-205.0
-10.0,-242.0,-53.0,41.0,24.0,-11.0,-39.0,-998.0,-211.0
-8.0,-247.0,-59.0,43.0,22.0,-12.0,-35.0,-995.0,-205.0
-7.0,-247.0,-51.0,46.0,22.0,-12.0,-36.0,-998.0,-207.0
-10.0,-243.0,-56.0,49.0,21.0,-13.0,-35.0,-995.0,-214.0
-7.0,-243.0,-51.0,53.0,20.0,-12.0,-36.0,-994.0,-214.0
-5.0,-244.0,-51.0,54.0,19.0,-12.0,-37.0,-993.0,-215.0
-7.0,-247.0,-55.0,56.0,18.0,-14.0,-38.0,-991.0,-207.0
-9.0,-240.0,-58.0,57.0,19.0,-12.0,-35.0,-986.0,-211.0
-9.0,-241.0,-54.0,56.0,19.0,-13.0,-38.0,-990.0,-216.0
-6.0,-243.0,-54.0,53.0,21.0,-13.0,-34.0,-988.0,-214.0
-7.0,-244.0,-55.0,52.0,23.0,-12.0,-35.0,-989.0,-212.0
-9.0,-245.0,-57.0,50.0,23.0,-11.0,-40.0,-989.0,-209.0
-9.0,-244.0,-59.0,49.0,23.0,-11.0,-38.0,-993.0,-212.0
-10.0,-242.0,-55.0,50.0,23.0,-11.0,-32.0,-992.0,-209.0
-11.0,-240.0,-60.0,51.0,23.0,-13.0,-38.0,-993.0,-207.0
-6.0,-242.0,-61.0,52.0,22.0,-13.0,-39.0,-993.0,-213.0
-8.0,-245.0,-58.0,51.0,23.0,-15.0,-33.0,-993.0,-215.0
-5.0,-242.0,-53.0,53.0,24.0,-16.0,-33.0,-994.0,-217.0
-6.0,-247.0,-59.0,52.0,23.0,-15.0,-30.0,-991.0,-214.0
-5.0,-241.0,-56.0,51.0,24.0,-16.0,-34.0,-993.0,-215.0
-5.0,-247.0,-57.0,51.0,25.0,-15.0,-36.0,-993.0,-210.0
-9.0,-244.0,-57.0,52.0,27.0,-16.0,-31.0,-993.0,-210.0
-5.0,-247.0,-59.0,54.0,26.0,-13.0,-35.0,-990.0,-209.0
-7.0,-242.0,-54.0,55.0,25.0,-12.0,-33.0,-993.0,-211.0
-7.0,-243.0,-53.0,58.0,24.0,-10.0,-35.0,-996.0,-203.0
-5.0,-242.0,-52.0,59.0,23.0,-10.0,-41.0,-995.0,-206.0
-14.0,-242.0,-52.0,62.0,20.0,-9.0,-37.0,-987.0,-206.0
-8.0,-246.0,-51.0,64.0,19.0,-7.0,-38.0,-992.0,-213.0
-4.0,-244.0,-53.0,64.0,18.0,-5.0,-44.0,-988.0,-210.0
-6.0,-244.0,-55.0,64.0,17.0,-7.0,-36.0,-993.0,-215.0
-8.0,-242.0,-53.0,64.0,16.0,-5.0,-38.0,-993.0,-214.0
-5.0,-244.0,-56.0,63.0,13.0,-4.0,-37.0,-987.0,-214.0
-5.0,-244.0,-56.0,63.0,14.0,-4.0,-37.0,-993.0,-219.0
-5.0,-242.0,-57.0,60.0,14.0,-5.0,-32.0,-982.0,-223.0
-6.0,-245.0,-54.0,60.0,16.0,-5.0,-37.0,-986.0,-215.0
-4.0,-244.0,-57.0,58.0,19.0,-6.0,-31.0,-984.0,-213.0
-7.0,-239.0,-52.0,54.0,21.0,-6.0,-33.0,-989.0,-214.0
-7.0,-242.0,-56.0,54.0,21.0,-6.0,-35.0,-988.0,-211.0
-11.0,-240.0,-52.0,52.0,22.0,-7.0,-27.0,-986.0,-215.0
-9.0,-240.0,-58.0,49.0,23.0,-6.0,-29.0,-990.0,-214.0
-11.0,-242.0,-63.0,50.0,25.0,-6.0,-33.0,-991.0,-213.0
-5.0,-244.0,-56.0,48.0,25.0,-9.0,-37.0,-989.0,-210.0
-10.0,-241.0,-54.0,49.0,24.0,-8.0,-35.0,-990.0,-210.0
-6.0,-244.0,-55.0,50.0,24.0,-9.0,-32.0,-995.0,-206.0
-5.0,-244.0,-57.0,51.0,26.0,-9.0,-40.0,-991.0,-210.0
-10.0,-243.0,-55.0,52.0,26.0,-7.0,-31.0,-994.0,-219.0
-6.0,-246.0,-56.0,54.0,25.0,-9.0,-35.0,-989.0,-217.0
-5.0,-246.0,-58.0,53.0,25.0,-7.0,-38.0,-991.0,-213.0
-5.0,-244.0,-55.0,53.0,23.0,-4.0,-40.0,-992.0,-219.0
-12.0,-241.0,-56.0,53.0,22.0,-6.0,-39.0,-988.0,-216.0
-8.0,-243.0,-55.0,53.0,19.0,-8.0,-38.0,-986.0,-213.0
-13.0,-242.0,-56.0,53.0,18.0,-7.0,-43.0,-988.0,-213.0
-11.0,-240.0,-57.0,54.0,18.0,-5.0,-37.0,-996.0,-215.0
-10.0,-244.0,-55.0,52.0,17.0,-4.0,-40.0,-986.0,-218.0
-9.0,-242.0,-54.0,51.0,15.0,-4.0,-38.0,-990.0,-209.0
-11.0,-243.0,-58.0,49.0,14.0,-5.0,-43.0,-985.0,-216.0
-10.0,-241.0,-55.0,46.0,12.0,-5.0,-41.0,-990.0,-221.0
-7.0,-241.0,-55.0,44.0,12.0,-6.0,-40.0,-988.0,-209.0
-7.0,-246.0,-59.0,42.0,12.0,-7.0,-39.0,-992.0,-210.0
-9.0,-245.0,-54.0,42.0,11.0,-7.0,-45.0,-985.0,-206.0
-9.0,-248.0,-58.0,43.0,11.0,-7.0,-37.0,-996.0,-212.0
-6.0,-244.0,-51.0,44.0,11.0,-7.0,-35.0,-995.0,-210.0
-8.0,-242.0,-56.0,45.0,11.0,-7.0,-35.0,-990.0,-207.0
-9.0,-244.0,-59.0,48.0,12.0,-9.0,-39.0,-989.0,-212.0
-5.0,-244.0,-57.0,50.0,13.0,-8.0,-35.0,-993.0,-207.0
-10.0,-240.0,-55.0,49.0,12.0,-7.0,-36.0,-988.0,-209.0
-8.0,-243.0,-58.0,49.0,14.0,-7.0,-36.0,-992.0,-212.0
-10.0,-245.0,-54.0,47.0,13.0,-7.0,-36.0,-988.0,-206.0
-8.0,-245.0,-54.0,48.0,11.0,-5.0,-40.0,-987.0,-213.0
-10.0,-243.0,-49.0,48.0,11.0,-5.0,-38.0,-989.0,-208.0
-6.0,-244.0,-54.0,48.0,10.0,-5.0,-32.0,-994.0,-212.0
-11.0,-245.0,-57.0,48.0,9.0,-5.0,-40.0,-995.0,-208.0
-8.0,-245.0,-52.0,49.0,10.0,-5.0,-30.0,-989.0,-210.0
-6.0,-245.0,-63.0,50.0,10.0,-8.0,-38.0,-990.0,-205.0
-7.0,-244.0,-56.0,51.0,12.0,-7.0,-41.0,-987.0,-204.0
-11.0,-244.0,-57.0,51.0,13.0,-9.0,-37.0,-990.0,-213.0
-9.0,-242.0,-51.0,52.0,12.0,-8.0,-40.0,-990.0,-211.0
-6.0,-244.0,-54.0,52.0,11.0,-7.0,-44.0,-991.0,-209.0
-9.0,-246.0,-54.0,53.0,11.0,-7.0,-38.0,-992.0,-208.0
-9.0,-243.0,-56.0,54.0,10.0,-7.0,-37.0,-995.0,-213.0
-7.0,-246.0,-58.0,55.0,8.0,-5.0,-37.0,-993.0,-211.0
-8.0,-243.0,-51.0,54.0,8.0,-5.0,-40.0,-991.0,-213.0
-9.0,-240.0,-56.0,53.0,7.0,-3.0,-37.0,-988.0,-214.0
-8.0,-241.0,-53.0,50.0,7.0,-1.0,-35.0,-983.0,-208.0
-15.0,-241.0,-52.0,50.0,6.0,-3.0,-38.0,-991.0,-211.0
-13.0,-244.0,-49.0,48.0,4.0,-4.0,-36.0,-993.0,-201.0
-12.0,-244.0,-52.0,48.0,6.0,-4.0,-41.0,-994.0,-208.0
-7.0,-244.0,-57.0,49.0,7.0,-3.0,-37.0,-989.0,-212.0
-6.0,-247.0,-54.0,50.0,6.0,-4.0,-38.0,-993.0,-214.0
-6.0,-247.0,-54.0,53.0,10.0,-6.0,-43.0,-992.0,-206.0
-8.0,-242.0,-55.0,57.0,9.0,-6.0,-39.0,-992.0,-207.0
-3.0,-243.0,-52.0,60.0,11.0,-7.0,-41.0,-983.0,-208.0
-9.0,-242.0,-51.0,59.0,10.0,-6.0,-39.0,-992.0,-202.0
-7.0,-240.0,-56.0,58.0,9.0,-5.0,-35.0,-992.0,-202.0
-5.0,-243.0,-50.0,54.0,9.0,-6.0,-41.0,-992.0,-207.0
-11.0,-241.0,-57.0,52.0,8.0,-6.0,-43.0,-986.0,-212.0
-13.0,-241.0,-54.0,51.0,7.0,-5.0,-42.0,-989.0,-203.0
-9.0,-245.0,-58.0,53.0,7.0,-6.0,-44.0,-992.0,-203.0
-8.0,-248.0,-53.0,53.0,4.0,-7.0,-39.0,-988.0,-209.0
-9.0,-248.0,-55.0,56.0,4.0,-7.0,-46.0,-995.0,-213.0
-7.0,-246.0,-60.0,55.0,5.0,-7.0,-40.0,-991.0,-210.0
-6.0,-249.0,-50.0,56.0,7.0,-6.0,-39.0,-990.0,-211.0
-11.0,-243.0,-54.0,56.0,8.0,-7.0,-42.0,-987.0,-209.0
-8.0,-241.0,-52.0,57.0,7.0,-6.0,-44.0,-987.0,-210.0
-9.0,-240.0,-49.0,58.0,6.0,-4.0,-46.0,-989.0,-205.0
-11.0,-245.0,-54.0,59.0,5.0,-3.0,-48.0,-987.0,-209.0
-5.0,-242.0,-53.0,62.0,4.0,-4.0,-42.0,-986.0,-214.0
-8.0,-248.0,-62.0,63.0,2.0,-4.0,-42.0,-985.0,-216.0
-20.0,-240.0,-61.0,64.0,2.0,-4.0,-40.0,-985.0,-215.0
-4.0,-245.0,-55.0,65.0,5.0,-5.0,-38.0,-988.0,-214.0
-11.0,-244.0,-61.0,61.0,5.0,-6.0,-39.0,-986.0,-207.0
-12.0,-241.0,-54.0,57.0,6.0,-5.0,-42.0,-987.0,-212.0
-11.0,-243.0,-56.0,52.0,7.0,-5.0,-38.0,-991.0,-211.0
-7.0,-243.0,-50.0,48.0,8.0,-7.0,-38.0,-987.0,-209.0
-6.0,-243.0,-54.0,47.0,8.0,-6.0,-38.0,-991.0,-202.0
-11.0,-249.0,-52.0,49.0,9.0,-5.0,-43.0,-995.0,-203.0
-13.0,-244.0,-54.0,52.0,8.0,-5.0,-45.0,-992.0,-202.0
-8.0,-243.0,-56.0,55.0,7.0,-4.0,-40.0,-991.0,-202.0
-7.0,-247.0,-49.0,57.0,7.0,-5.0,-47.0,-990.0,-204.0
-7.0,-244.0,-50.0,56.0,6.0,-4.0,-44.0,-988.0,-212.0
-11.0,-241.0,-56.0,55.0,7.0,-3.0,-44.0,-991.0,-208.0
-8.0,-241.0,-53.0,52.0,8.0,-4.0,-42.0,-991.0,-208.0
-8.0,-244.0,-56.0,47.0,8.0,-4.0,-41.0,-990.0,-206.0
-9.0,-243.0,-56.0,43.0,7.0,-3.0,-39.0,-989.0,-211.0
-5.0,-246.0,-53.0,40.0,7.0,-3.0,-43.0,-992.0,-212.0
-9.0,-248.0,-50.0,41.0,5.0,-2.0,-38.0,-993.0,-203.0
-14.0,-243.0,-52.0,41.0,6.0,-1.0,-38.0,-985.0,-205.0
-13.0,-242.0,-55.0,41.0,4.0,-4.0,-46.0,-992.0,-201.0
-11.0,-242.0,-59.0,43.0,4.0,-5.0,-46.0,-992.0,-204.0
-7.0,-249.0,-53.0,45.0,3.0,-5.0,-42.0,-998.0,-207.0
-12.0,-241.0,-55.0,47.0,3.0,-7.0,-49.0,-994.0,-200.0
-7.0,-245.0,-61.0,50.0,2.0,-6.0,-45.0,-993.0,-216.0
-9.0,-245.0,-58.0,50.0,0.0,-8.0,-52.0,-996.0,-216.0
-11.0,-245.0,-61.0,51.0,-1.0,-7.0,-48.0,-993.0,-212.0
-8.0,-243.0,-55.0,50.0,-1.0,-8.0,-48.0,-995.0,-216.0
-11.0,-245.0,-55.0,50.0,0.0,-6.0,-45.0,-995.0,-212.0
-11.0,-245.0,-56.0,50.0,-1.0,-9.0,-45.0,-988.0,-208.0
-9.0,-244.0,-56.0,50.0,-3.0,-8.0,-50.0,-988.0,-210.0
-6.0,-242.0,-53.0,50.0,-3.0,-8.0,-45.0,-987.0,-209.0
-5.0,-243.0,-56.0,49.0,-3.0,-6.0,-44.0,-986.0,-207.0
-16.0,-247.0,-61.0,49.0,-5.0,-8.0,-41.0,-993.0,-215.0
-17.0,-243.0,-54.0,48.0,-4.0,-8.0,-42.0,-984.0,-204.0
-7.0,-243.0,-52.0,47.0,-3.0,-7.0,-43.0,-986.0,-204.0
-9.0,-244.0,-56.0,47.0,-2.0,-8.0,-42.0,-991.0,-210.0
-7.0,-242.0,-55.0,46.0,-3.0,-8.0,-40.0,-992.0,-205.0
-8.0,-244.0,-51.0,44.0,-2.0,-8.0,-38.0,-988.0,-205.0
-11.0,-242.0,-55.0,42.0,-3.0,-8.0,-43.0,-995.0,-200.0
-9.0,-249.0,-52.0,40.0,-3.0,-9.0,-39.0,-990.0,-198.0
-5.0,-244.0,-51.0,40.0,-3.0,-8.0,-44.0,-993.0,-203.0
-11.0,-246.0,-54.0,40.0,-4.0,-8.0,-38.0,-993.0,-214.0
-8.0,-247.0,-60.0,42.0,-4.0,-7.0,-40.0,-993.0,-205.0
-10.0,-243.0,-51.0,43.0,-2.0,-9.0,-42.0,-996.0,-208.0
-9.0,-243.0,-55.0,48.0,-2.0,-9.0,-37.0,-990.0,-212.0
-5.0,-243.0,-56.0,50.0,-1.0,-8.0,-37.0,-991.0,-214.0
-5.0,-244.0,-57.0,53.0,-1.0,-7.0,-38.0,-991.0,-207.0
-10.0,-242.0,-59.0,54.0,-1.0,-6.0,-35.0,-989.0,-213.0
-9.0,-241.0,-59.0,54.0,-1.0,-7.0,-42.0,-993.0,-209.0
-6.0,-240.0,-53.0,53.0,-2.0,-8.0,-43.0,-989.0,-212.0
-10.0,-245.0,-56.0,52.0,-4.0,-6.0,-41.0,-987.0,-210.0
-8.0,-241.0,-54.0,51.0,-3.0,-6.0,-41.0,-990.0,-215.0
-13.0,-241.0,-49.0,48.0,-3.0,-6.0,-41.0,-993.0,-212.0
-7.0,-245.0,-54.0,48.0,-2.0,-4.0,-46.0,-995.0,-204.0
-9.0,-244.0,-55.0,48.0,0.0,-6.0,-44.0,-992.0,-209.0
-10.0,-247.0,-55.0,49.0,3.0,-8.0,-46.0,-993.0,-209.0
-12.0,-245.0,-56.0,50.0,5.0,-8.0,-41.0,-994.0,-210.0
-9.0,-246.0,-57.0,51.0,6.0,-9.0,-46.0,-993.0,-208.0
-9.0,-244.0,-57.0,51.0,5.0,-8.0,-41.0,-992.0,-203.0
-12.0,-241.0,-50.0,53.0,6.0,-8.0,-43.0,-992.0,-214.0
-6.0,-242.0,-55.0,52.0,5.0,-8.0,-42.0,-992.0,-210.0
-7.0,-240.0,-54.0,52.0,6.0,-6.0,-42.0,-990.0,-214.0
-9.0,-241.0,-58.0,53.0,6.0,-8.0,-38.0,-992.0,-208.0
-16.0,-241.0,-52.0,51.0,6.0,-5.0,-38.0,-986.0,-213.0
-14.0,-245.0,-56.0,51.0,6.0,-5.0,-37.0,-986.0,-212.0
-9.0,-244.0,-59.0,49.0,7.0,-4.0,-37.0,-986.0,-212.0
-8.0,-243.0,-55.0,48.0,5.0,-4.0,-39.0,-988.0,-213.0
-12.0,-243.0,-57.0,47.0,7.0,-4.0,-44.0,-985.0,-216.0
-8.0,-245.0,-55.0,44.0,8.0,-3.0,-39.0,-988.0,-213.0
-11.0,-243.0,-60.0,43.0,8.0,-6.0,-42.0,-989.0,-210.0
-11.0,-243.0,-56.0,42.0,9.0,-6.0,-40.0,-990.0,-208.0
-5.0,-243.0,-54.0,41.0,10.0,-5.0,-46.0,-985.0,-211.0
-14.0,-238.0,-58.0,41.0,9.0,-6.0,-45.0,-992.0,-211.0
-5.0,-241.0,-54.0,40.0,10.0,-6.0,-44.0,-992.0,-206.0
-12.0,-242.0,-56.0,40.0,11.0,-6.0,-39.0,-992.0,-213.0
-11.0,-245.0,-54.0,40.0,12.0,-5.0,-45.0,-989.0,-206.0
-8.0,-248.0,-53.0,40.0,12.0,-5.0,-40.0,-993.0,-208.0
-7.0,-241.0,-53.0,42.0,12.0,-6.0,-40.0,-991.0,-204.0
-5.0,-242.0,-51.0,42.0,11.0,-5.0,-41.0,-990.0,-208.0
-8.0,-245.0,-53.0,42.0,11.0,-5.0,-48.0,-983.0,-213.0
-12.0,-239.0,-58.0,42.0,12.0,-5.0,-45.0,-987.0,-213.0
-9.0,-241.0,-55.0,43.0,10.0,-6.0,-49.0,-988.0,-211.0
-10.0,-242.0,-53.0,42.0,9.0,-4.0,-44.0,-994.0,-212.0
-3.0,-242.0,-62.0,42.0,8.0,-7.0,-44.0,-983.0,-215.0
-10.0,-242.0,-59.0,43.0,9.0,-5.0,-44.0,-992.0,-215.0
-14.0,-243.0,-56.0,43.0,8.0,-5.0,-45.0,-988.0,-210.0
-14.0,-241.0,-51.0,43.0,8.0,-4.0,-45.0,-984.0,-204.0
-9.0,-241.0,-57.0,42.0,10.0,-5.0,-44.0,-992.0,-211.0
-9.0,-244.0,-58.0,41.0,9.0,-5.0,-43.0,-990.0,-210.0
-13.0,-240.0,-56.0,42.0,10.0,-6.0,-47.0,-991.0,-213.0
-13.0,-243.0,-55.0,41.0,9.0,-5.0,-48.0,-991.0,-210.0
-10.0,-241.0,-58.0,41.0,8.0,-6.0,-39.0,-994.0,-214.0
-12.0,-237.0,-55.0,42.0,9.0,-6.0,-47.0,-990.0,-206.0
-10.0,-242.0,-58.0,42.0,9.0,-5.0,-45.0,-998.0,-201.0
-14.0,-240.0,-56.0,42.0,8.0,-6.0,-46.0,-992.0,-202.0
-17.0,-242.0,-50.0,43.0,8.0,-6.0,-52.0,-991.0,-205.0
-12.0,-242.0,-54.0,43.0,7.0,-7.0,-45.0,-990.0,-206.0
-11.0,-249.0,-47.0,45.0,6.0,-5.0,-47.0,-994.0,-204.0
-10.0,-244.0,-54.0,45.0,5.0,-6.0,-42.0,-986.0,-206.0
-9.0,-244.0,-57.0,47.0,8.0,-7.0,-42.0,-996.0,-204.0
-7.0,-243.0,-54.0,48.0,6.0,-7.0,-43.0,-992.0,-204.0
-8.0,-245.0,-55.0,48.0,6.0,-6.0,-39.0,-995.0,-209.0
-8.0,-244.0,-54.0,49.0,5.0,-7.0,-42.0,-995.0,-205.0
-12.0,-242.0,-58.0,50.0,5.0,-8.0,-36.0,-990.0,-206.0
-4.0,-246.0,-55.0,50.0,5.0,-9.0,-46.0,-992.0,-204.0
-13.0,-242.0,-52.0,51.0,7.0,-8.0,-38.0,-989.0,-212.0
-11.0,-239.0,-55.0,52.0,7.0,-8.0,-43.0,-990.0,-210.0
-13.0,-241.0,-57.0,54.0,8.0,-7.0,-40.0,-991.0,-203.0
-10.0,-242.0,-56.0,55.0,9.0,-7.0,-37.0,-988.0,-209.0
-6.0,-244.0,-55.0,55.0,8.0,-9.0,-45.0,-987.0,-207.0
-7.0,-242.0,-53.0,54.0,8.0,-8.0,-43.0,-984.0,-205.0
-10.0,-241.0,-54.0,50.0,7.0,-7.0,-39.0,-988.0,-204.0
-13.0,-242.0,-57.0,48.0,7.0,-9.0,-41.0,-988.0,-210.0
-10.0,-243.0,-49.0,44.0,6.0,-10.0,-48.0,-989.0,-203.0
-7.0,-242.0,-57.0,42.0,4.0,-9.0,-45.0,-991.0,-208.0
-9.0,-244.0,-56.0,41.0,3.0,-6.0,-44.0,-995.0,-213.0
-9.0,-244.0,-53.0,40.0,2.0,-6.0,-43.0,-996.0,-211.0
-14.0,-245.0,-60.0,41.0,4.0,-6.0,-43.0,-995.0,-207.0
-8.0,-245.0,-55.0,39.0,5.0,-6.0,-48.0,-993.0,-201.0
-11.0,-246.0,-52.0,40.0,5.0,-7.0,-40.0,-991.0,-213.0
-10.0,-240.0,-52.0,42.0,6.0,-7.0,-46.0,-991.0,-202.0
-11.0,-244.0,-54.0,44.0,5.0,-6.0,-45.0,-989.0,-204.0
-11.0,-244.0,-55.0,48.0,6.0,-7.0,-50.0,-994.0,-204.0
-13.0,-242.0,-54.0,52.0,6.0,-8.0,-51.0,-994.0,-208.0
-7.0,-242.0,-55.0,55.0,7.0,-7.0,-45.0,-989.0,-215.0
-11.0,-242.0,-51.0,57.0,8.0,-8.0,-46.0,-993.0,-214.0
-11.0,-243.0,-58.0,57.0,8.0,-8.0,-47.0,-989.0,-211.0
-11.0,-239.0,-57.0,55.0,9.0,-10.0,-41.0,-984.0,-206.0
-8.0,-241.0,-55.0,52.0,9.0,-8.0,-44.0,-988.0,-210.0
-10.0,-243.0,-56.0,50.0,10.0,-7.0,-38.0,-986.0,-212.0
-9.0,-245.0,-57.0,47.0,11.0,-6.0,-43.0,-991.0,-204.0
-8.0,-244.0,-56.0,45.0,12.0,-5.0,-39.0,-991.0,-204.0
-5.0,-246.0,-55.0,44.0,13.0,-7.0,-45.0,-990.0,-204.0
-11.0,-242.0,-54.0,46.0,15.0,-8.0,-46.0,-994.0,-203.0
-7.0,-243.0,-53.0,48.0,16.0,-7.0,-47.0,-990.0,-202.0
-10.0,-245.0,-52.0,47.0,14.0,-7.0,-41.0,-993.0,-210.0
-16.0,-240.0,-53.0,47.0,15.0,-7.0,-51.0,-991.0,-203.0
-12.0,-243.0,-51.0,46.0,16.0,-6.0,-46.0,-989.0,-207.0
-11.0,-241.0,-53.0,43.0,15.0,-3.0,-51.0,-991.0,-208.0
-14.0,-244.0,-53.0,40.0,13.0,-4.0,-48.0,-993.0,-208.0
-10.0,-243.0,-57.0,39.0,12.0,-6.0,-44.0,-994.0,-205.0
-8.0,-243.0,-54.0,38.0,12.0,-5.0,-44.0,-994.0,-206.0
-11.0,-243.0,-53.0,39.0,10.0,-5.0,-45.0,-994.0,-203.0
-11.0,-246.0,-54.0,43.0,10.0,-6.0,-45.0,-994.0,-208.0
-13.0,-245.0,-52.0,46.0,9.0,-6.0,-42.0,-990.0,-204.0
-10.0,-244.0,-53.0,49.0,8.0,-6.0,-49.0,-992.0,-213.0
-9.0,-245.0,-55.0,51.0,8.0,-6.0,-47.0,-992.0,-204.0
-12.0,-245.0,-59.0,54.0,8.0,-7.0,-42.0,-991.0,-209.0
-10.0,-237.0,-53.0,54.0,8.0,-7.0,-44.0,-995.0,-211.0
-11.0,-243.0,-59.0,54.0,7.0,-6.0,-44.0,-989.0,-211.0
-13.0,-243.0,-61.0,53.0,7.0,-8.0,-44.0,-991.0,-210.0
-10.0,-245.0,-57.0,51.0,7.0,-8.0,-46.0,-985.0,-216.0
-9.0,-245.0,-54.0,51.0,6.0,-7.0,-45.0,-985.0,-216.0
-9.0,-244.0,-54.0,47.0,5.0,-7.0,-41.0,-991.0,-216.0
-8.0,-247.0,-56.0,46.0,6.0,-5.0,-44.0,-989.0,-214.0
-7.0,-243.0,-54.0,45.0,6.0,-6.0,-45.0,-988.0,-206.0
-10.0,-243.0,-51.0,45.0,7.0,-6.0,-45.0,-990.0,-206.0
-9.0,-248.0,-52.0,48.0,5.0,-6.0,-47.0,-990.0,-207.0
-13.0,-240.0,-58.0,50.0,7.0,-6.0,-45.0,-989.0,-204.0
-12.0,-242.0,-54.0,52.0,8.0,-7.0,-48.0,-994.0,-206.0
-13.0,-242.0,-52.0,53.0,10.0,-9.0,-47.0,-993.0,-209.0
-13.0,-248.0,-53.0,54.0,7.0,-9.0,-50.0,-991.0,-206.0
-13.0,-242.0,-55.0,53.0,7.0,-8.0,-52.0,-992.0,-203.0
-13.0,-243.0,-55.0,52.0,7.0,-8.0,-48.0,-990.0,-201.0
-11.0,-242.0,-54.0,50.0,5.0,-8.0,-50.0,-990.0,-207.0
-11.0,-244.0,-53.0,50.0,4.0,-8.0,-46.0,-985.0,-206.0
-11.0,-245.0,-55.0,50.0,4.0,-9.0,-46.0,-990.0,-204.0
-11.0,-241.0,-55.0,49.0,1.0,-8.0,-46.0,-990.0,-203.0
-14.0,-241.0,-55.0,49.0,0.0,-8.0,-45.0,-988.0,-208.0
-12.0,-241.0,-55.0,49.0,0.0,-9.0,-55.0,-988.0,-212.0
-12.0,-240.0,-56.0,50.0,-1.0,-8.0,-47.0,-984.0,-209.0
-7.0,-245.0,-56.0,49.0,-1.0,-7.0,-49.0,-982.0,-210.0
-11.0,-242.0,-52.0,46.0,-2.0,-8.0,-47.0,-984.0,-213.0
-10.0,-242.0,-56.0,43.0,-2.0,-6.0,-44.0,-984.0,-213.0
-8.0,-242.0,-59.0,40.0,-3.0,-4.0,-44.0,-986.0,-215.0
-10.0,-244.0,-56.0,36.0,-3.0,-4.0,-43.0,-985.0,-212.0
-10.0,-246.0,-58.0,33.0,-3.0,-4.0,-42.0,-984.0,-212.0
-9.0,-245.0,-59.0,33.0,-4.0,-6.0,-45.0,-988.0,-214.0
-10.0,-244.0,-56.0,34.0,-4.0,-4.0,-48.0,-989.0,-209.0
-8.0,-245.0,-56.0,35.0,-4.0,-4.0,-50.0,-993.0,-207.0
-13.0,-245.0,-50.0,36.0,-5.0,-5.0,-53.0,-994.0,-213.0
-14.0,-244.0,-54.0,36.0,-5.0,-6.0,-51.0,-989.0,-204.0
-14.0,-243.0,-57.0,38.0,-5.0,-6.0,-54.0,-996.0,-212.0
-9.0,-234.0,-54.0,36.0,-6.0,-6.0,-49.0,-993.0,-209.0
-10.0,-245.0,-58.0,37.0,-7.0,-6.0,-53.0,-990.0,-218.0
-13.0,-242.0,-59.0,38.0,-8.0,-6.0,-53.0,-988.0,-215.0
-10.0,-246.0,-56.0,38.0,-10.0,-8.0,-52.0,-990.0,-211.0
-13.0,-246.0,-57.0,41.0,-11.0,-7.0,-46.0,-993.0,-218.0
-6.0,-247.0,-55.0,43.0,-9.0,-7.0,-49.0,-987.0,-207.0
-9.0,-245.0,-55.0,46.0,-10.0,-7.0,-53.0,-986.0,-209.0
-12.0,-240.0,-56.0,46.0,-10.0,-6.0,-46.0,-985.0,-217.0
-8.0,-247.0,-55.0,47.0,-10.0,-8.0,-46.0,-992.0,-217.0
-11.0,-245.0,-54.0,48.0,-10.0,-6.0,-49.0,-992.0,-217.0
-8.0,-242.0,-57.0,49.0,-10.0,-6.0,-45.0,-990.0,-214.0
-19.0,-241.0,-59.0,50.0,-11.0,-9.0,-45.0,-983.0,-210.0
-13.0,-239.0,-59.0,49.0,-10.0,-9.0,-45.0,-988.0,-214.0
-11.0,-243.0,-50.0,51.0,-11.0,-9.0,-46.0,-990.0,-216.0
-10.0,-243.0,-52.0,49.0,-11.0,-6.0,-49.0,-987.0,-211.0
-8.0,-242.0,-59.0,46.0,-11.0,-8.0,-54.0,-988.0,-214.0
-9.0,-244.0,-55.0,45.0,-11.0,-10.0,-49.0,-985.0,-213.0
-12.0,-246.0,-58.0,47.0,-11.0,-10.0,-55.0,-988.0,-211.0
-10.0,-244.0,-53.0,49.0,-12.0,-9.0,-51.0,-986.0,-213.0
-13.0,-246.0,-59.0,48.0,-14.0,-8.0,-57.0,-987.0,-209.0
-10.0,-242.0,-51.0,48.0,-14.0,-9.0,-48.0,-989.0,-211.0
-10.0,-244.0,-55.0,48.0,-17.0,-8.0,-58.0,-991.0,-211.0
-10.0,-243.0,-57.0,46.0,-18.0,-7.0,-52.0,-991.0,-217.0
-12.0,-244.0,-56.0,47.0,-21.0,-7.0,-50.0,-989.0,-216.0
-13.0,-243.0,-54.0,45.0,-21.0,-7.0,-48.0,-992.0,-209.0
-14.0,-243.0,-54.0,43.0,-22.0,-9.0,-52.0,-990.0,-212.0
-11.0,-242.0,-53.0,43.0,-21.0,-7.0,-49.0,-989.0,-209.0
-10.0,-244.0,-57.0,41.0,-23.0,-8.0,-47.0,-993.0,-211.0
-11.0,-243.0,-55.0,42.0,-22.0,-10.0,-44.0,-990.0,-213.0
-9.0,-246.0,-56.0,43.0,-21.0,-11.0,-49.0,-989.0,-208.0
-13.0,-241.0,-52.0,43.0,-21.0,-10.0,-46.0,-992.0,-209.0
-12.0,-240.0,-55.0,43.0,-21.0,-10.0,-47.0,-986.0,-210.0
-17.0,-239.0,-60.0,42.0,-22.0,-9.0,-49.0,-992.0,-207.0
-14.0,-240.0,-56.0,41.0,-23.0,-9.0,-44.0,-989.0,-217.0
-8.0,-243.0,-58.0,41.0,-24.0,-8.0,-46.0,-985.0,-214.0
-13.0,-246.0,-54.0,40.0,-23.0,-7.0,-46.0,-987.0,-212.0
-12.0,-243.0,-57.0,39.0,-23.0,-9.0,-46.0,-988.0,-213.0
-12.0,-243.0,-54.0,40.0,-24.0,-8.0,-42.0,-990.0,-215.0
-14.0,-242.0,-57.0,38.0,-23.0,-7.0,-50.0,-988.0,-223.0
-11.0,-244.0,-55.0,36.0,-22.0,-6.0,-43.0,-988.0,-210.0
-9.0,-240.0,-57.0,35.0,-20.0,-6.0,-46.0,-989.0,-211.0
-13.0,-241.0,-58.0,34.0,-16.0,-5.0,-53.0,-993.0,-210.0
-11.0,-244.0,-56.0,35.0,-15.0,-6.0,-45.0,-988.0,-214.0
-6.0,-238.0,-55.0,35.0,-13.0,-6.0,-47.0,-989.0,-212.0
-11.0,-242.0,-55.0,37.0,-10.0,-7.0,-44.0,-993.0,-204.0
-11.0,-242.0,-57.0,38.0,-8.0,-6.0,-43.0,-992.0,-214.0
-11.0,-242.0,-53.0,37.0,-7.0,-7.0,-47.0,-994.0,-209.0
-10.0,-245.0,-57.0,38.0,-7.0,-9.0,-46.0,-990.0,-215.0
-13.0,-244.0,-57.0,40.0,-7.0,-10.0,-46.0,-990.0,-215.0
-13.0,-243.0,-55.0,39.0,-7.0,-10.0,-44.0,-994.0,-214.0
-6.0,-244.0,-56.0,38.0,-6.0,-11.0,-49.0,-989.0,-216.0
-13.0,-242.0,-57.0,40.0,-5.0,-10.0,-46.0,-992.0,-220.0
-10.0,-244.0,-59.0,40.0,-6.0,-9.0,-47.0,-990.0,-211.0
-9.0,-245.0,-57.0,41.0,-4.0,-9.0,-42.0,-991.0,-207.0
-9.0,-248.0,-59.0,43.0,-4.0,-8.0,-49.0,-992.0,-208.0
-11.0,-244.0,-57.0,44.0,-5.0,-9.0,-41.0,-986.0,-212.0
-11.0,-241.0,-54.0,45.0,-6.0,-8.0,-45.0,-989.0,-214.0
-12.0,-240.0,-56.0,45.0,-6.0,-9.0,-50.0,-988.0,-214.0
-11.0,-243.0,-57.0,44.0,-6.0,-8.0,-45.0,-986.0,-215.0
-6.0,-245.0,-56.0,43.0,-5.0,-10.0,-46.0,-985.0,-209.0
-8.0,-245.0,-60.0,43.0,-5.0,-9.0,-42.0,-991.0,-213.0
-8.0,-243.0,-52.0,44.0,-5.0,-10.0,-43.0,-989.0,-210.0
-10.0,-248.0,-58.0,44.0,-5.0,-10.0,-41.0,-993.0,-215.0
-9.0,-245.0,-58.0,44.0,-3.0,-8.0,-46.0,-992.0,-213.0
-6.0,-244.0,-57.0,47.0,-2.0,-9.0,-44.0,-991.0,-218.0
-9.0,-241.0,-52.0,47.0,1.0,-9.0,-48.0,-989.0,-216.0
-11.0,-244.0,-60.0,47.0,3.0,-10.0,-48.0,-991.0,-214.0
-7.0,-243.0,-56.0,46.0,5.0,-10.0,-47.0,-993.0,-216.0
-8.0,-247.0,-56.0,49.0,6.0,-8.0,-47.0,-990.0,-220.0
-12.0,-245.0,-52.0,50.0,7.0,-8.0,-51.0,-988.0,-213.0
-11.0,-244.0,-58.0,54.0,8.0,-9.0,-51.0,-985.0,-215.0
-10.0,-244.0,-55.0,58.0,9.0,-9.0,-49.0,-990.0,-209.0
-9.0,-242.0,-57.0,58.0,10.0,-10.0,-49.0,-987.0,-218.0
-10.0,-244.0,-57.0,59.0,11.0,-10.0,-43.0,-987.0,-214.0
-10.0,-243.0,-61.0,57.0,13.0,-10.0,-40.0,-987.0,-216.0
-7.0,-241.0,-56.0,52.0,15.0,-11.0,-44.0,-982.0,-208.0
-14.0,-241.0,-57.0,49.0,17.0,-10.0,-46.0,-991.0,-213.0
-9.0,-243.0,-58.0,46.0,17.0,-10.0,-47.0,-991.0,-207.0
-10.0,-243.0,-53.0,46.0,18.0,-8.0,-45.0,-987.0,-204.0
-10.0,-241.0,-57.0,48.0,18.0,-8.0,-48.0,-989.0,-208.0
-14.0,-243.0,-55.0,49.0,19.0,-9.0,-47.0,-987.0,-208.0
-12.0,-242.0,-53.0,50.0,20.0,-9.0,-48.0,-989.0,-210.0
-12.0,-246.0,-54.0,50.0,21.0,-8.0,-51.0,-991.0,-207.0
-14.0,-243.0,-55.0,49.0,22.0,-6.0,-51.0,-988.0,-207.0
-8.0,-246.0,-54.0,45.0,22.0,-6.0,-47.0,-989.0,-205.0
-11.0,-241.0,-54.0,43.0,21.0,-7.0,-46.0,-994.0,-216.0
-14.0,-241.0,-54.0,41.0,20.0,-8.0,-49.0,-987.0,-210.0
-15.0,-244.0,-59.0,42.0,20.0,-7.0,-49.0,-993.0,-208.0
-12.0,-244.0,-58.0,41.0,18.0,-9.0,-47.0,-992.0,-211.0
-11.0,-244.0,-53.0,43.0,19.0,-8.0,-52.0,-994.0,-211.0
-13.0,-244.0,-57.0,44.0,19.0,-9.0,-48.0,-994.0,-213.0
-12.0,-244.0,-59.0,45.0,19.0,-8.0,-50.0,-995.0,-207.0
-14.0,-243.0,-59.0,46.0,18.0,-9.0,-48.0,-990.0,-215.0
-12.0,-245.0,-57.0,47.0,18.0,-9.0,-50.0,-984.0,-212.0
-10.0,-245.0,-55.0,46.0,19.0,-10.0,-53.0,-989.0,-218.0
-9.0,-245.0,-53.0,48.0,18.0,-10.0,-50.0,-991.0,-218.0
-13.0,-244.0,-57.0,47.0,18.0,-9.0,-52.0,-990.0,-215.0
-10.0,-248.0,-57.0,48.0,18.0,-10.0,-53.0,-989.0,-214.0
-8.0,-248.0,-63.0,48.0,19.0,-11.0,-48.0,-991.0,-216.0
-11.0,-243.0,-56.0,49.0,18.0,-10.0,-49.0,-992.0,-214.0
-11.0,-245.0,-54.0,49.0,19.0,-11.0,-47.0,-991.0,-211.0
-13.0,-242.0,-59.0,49.0,19.0,-11.0,-49.0,-986.0,-210.0
-12.0,-245.0,-56.0,49.0,17.0,-10.0,-48.0,-990.0,-207.0
-13.0,-245.0,-59.0,50.0,16.0,-10.0,-52.0,-990.0,-209.0
-12.0,-242.0,-57.0,50.0,16.0,-13.0,-49.0,-985.0,-210.0
-11.0,-244.0,-54.0,50.0,16.0,-13.0,-43.0,-990.0,-216.0
-11.0,-245.0,-56.0,51.0,18.0,-12.0,-46.0,-989.0,-211.0
-8.0,-246.0,-52.0,49.0,17.0,-13.0,-47.0,-992.0,-213.0
-13.0,-243.0,-56.0,49.0,16.0,-13.0,-52.0,-985.0,-208.0
-8.0,-245.0,-62.0,49.0,16.0,-12.0,-55.0,-993.0,-205.0
-10.0,-245.0,-54.0,48.0,15.0,-11.0,-48.0,-993.0,-209.0
-11.0,-246.0,-56.0,50.0,14.0,-11.0,-52.0,-989.0,-206.0
-10.0,-242.0,-56.0,51.0,13.0,-11.0,-50.0,-990.0,-218.0
-12.0,-243.0,-56.0,51.0,13.0,-9.0,-51.0,-997.0,-210.0
-12.0,-242.0,-54.0,52.0,11.0,-11.0,-48.0,-989.0,-218.0
-12.0,-246.0,-55.0,51.0,11.0,-10.0,-47.0,-987.0,-213.0
-17.0,-241.0,-56.0,51.0,12.0,-11.0,-49.0,-985.0,-211.0
-12.0,-239.0,-59.0,48.0,10.0,-9.0,-42.0,-989.0,-214.0
-12.0,-242.0,-59.0,46.0,13.0,-10.0,-47.0,-989.0,-212.0
-11.0,-245.0,-56.0,44.0,14.0,-10.0,-47.0,-984.0,-216.0
-8.0,-246.0,-61.0,41.0,15.0,-11.0,-45.0,-990.0,-217.0
-11.0,-245.0,-55.0,40.0,15.0,-10.0,-43.0,-992.0,-215.0
-7.0,-242.0,-57.0,41.0,17.0,-9.0,-49.0,-985.0,-214.0
-11.0,-238.0,-55.0,42.0,17.0,-10.0,-44.0,-988.0,-214.0
-10.0,-245.0,-57.0,43.0,17.0,-10.0,-50.0,-992.0,-215.0
-14.0,-243.0,-56.0,44.0,18.0,-10.0,-49.0,-990.0,-215.0
-8.0,-242.0,-55.0,47.0,18.0,-12.0,-45.0,-987.0,-213.0
-8.0,-242.0,-56.0,46.0,19.0,-12.0,-51.0,-989.0,-219.0
-11.0,-245.0,-60.0,47.0,17.0,-11.0,-48.0,-992.0,-219.0
-12.0,-241.0,-51.0,45.0,17.0,-11.0,-48.0,-984.0,-214.0
-10.0,-243.0,-55.0,44.0,16.0,-11.0,-54.0,-988.0,-215.0
-11.0,-245.0,-60.0,42.0,15.0,-11.0,-51.0,-994.0,-217.0
-14.0,-244.0,-58.0,44.0,15.0,-9.0,-52.0,-991.0,-213.0
-14.0,-245.0,-54.0,44.0,14.0,-10.0,-47.0,-991.0,-217.0
-8.0,-245.0,-58.0,45.0,14.0,-9.0,-54.0,-989.0,-211.0
-11.0,-242.0,-55.0,44.0,14.0,-9.0,-50.0,-991.0,-212.0
-10.0,-243.0,-59.0,46.0,14.0,-8.0,-50.0,-990.0,-216.0
-12.0,-241.0,-53.0,47.0,13.0,-9.0,-47.0,-987.0,-218.0
-13.0,-243.0,-57.0,46.0,13.0,-8.0,-51.0,-990.0,-215.0
-7.0,-241.0,-59.0,45.0,13.0,-8.0,-54.0,-990.0,-216.0
-13.0,-241.0,-57.0,45.0,15.0,-8.0,-53.0,-985.0,-211.0
-18.0,-240.0,-58.0,46.0,15.0,-8.0,-51.0,-987.0,-215.0
-13.0,-245.0,-54.0,46.0,15.0,-6.0,-50.0,-985.0,-219.0
-10.0,-243.0,-56.0,46.0,14.0,-8.0,-52.0,-991.0,-221.0
-15.0,-243.0,-56.0,46.0,15.0,-8.0,-49.0,-992.0,-217.0
-9.0,-246.0,-55.0,47.0,14.0,-8.0,-54.0,-991.0,-215.0
-10.0,-245.0,-57.0,48.0,13.0,-10.0,-51.0,-989.0,-215.0
-12.0,-240.0,-61.0,51.0,13.0,-10.0,-51.0,-988.0,-209.0
-13.0,-243.0,-57.0,50.0,10.0,-11.0,-55.0,-986.0,-212.0
-12.0,-243.0,-55.0,50.0,10.0,-10.0,-47.0,-988.0,-218.0
-12.0,-244.0,-54.0,51.0,10.0,-10.0,-48.0,-995.0,-218.0
-14.0,-238.0,-60.0,50.0,9.0,-11.0,-47.0,-988.0,-219.0
-15.0,-242.0,-56.0,50.0,11.0,-11.0,-53.0,-991.0,-215.0
-10.0,-242.0,-55.0,50.0,8.0,-12.0,-47.0,-983.0,-213.0
-11.0,-241.0,-53.0,49.0,7.0,-11.0,-54.0,-990.0,-216.0
-11.0,-241.0,-53.0,50.0,6.0,-11.0,-45.0,-989.0,-218.0
-12.0,-243.0,-60.0,49.0,6.0,-11.0,-50.0,-984.0,-212.0
-10.0,-244.0,-60.0,48.0,4.0,-10.0,-53.0,-991.0,-211.0
-14.0,-241.0,-53.0,48.0,5.0,-11.0,-46.0,-992.0,-219.0
-12.0,-242.0,-52.0,47.0,5.0,-10.0,-44.0,-989.0,-214.0
-11.0,-246.0,-55.0,48.0,7.0,-11.0,-47.0,-986.0,-213.0
-10.0,-244.0,-56.0,49.0,7.0,-9.0,-52.0,-991.0,-211.0
-9.0,-241.0,-51.0,49.0,6.0,-8.0,-48.0,-994.0,-213.0
-9.0,-239.0,-61.0,51.0,5.0,-9.0,-49.0,-991.0,-217.0
-11.0,-248.0,-60.0,51.0,7.0,-10.0,-53.0,-992.0,-214.0
-10.0,-241.0,-56.0,50.0,4.0,-11.0,-50.0,-984.0,-219.0
-14.0,-241.0,-59.0,49.0,3.0,-10.0,-52.0,-987.0,-217.0
-12.0,-244.0,-52.0,47.0,2.0,-11.0,-54.0,-990.0,-217.0
-11.0,-246.0,-56.0,47.0,2.0,-10.0,-52.0,-988.0,-218.0
-12.0,-246.0,-55.0,48.0,1.0,-10.0,-53.0,-984.0,-220.0
-13.0,-240.0,-60.0,49.0,1.0,-11.0,-54.0,-990.0,-206.0
-12.0,-242.0,-56.0,49.0,1.0,-10.0,-48.0,-984.0,-216.0
-14.0,-238.0,-57.0,49.0,2.0,-10.0,-48.0,-990.0,-215.0
-10.0,-243.0,-54.0,49.0,4.0,-11.0,-52.0,-983.0,-219.0
-17.0,-242.0,-54.0,49.0,4.0,-10.0,-50.0,-992.0,-216.0
-6.0,-243.0,-56.0,47.0,3.0,-11.0,-51.0,-989.0,-211.0
-12.0,-244.0,-58.0,47.0,3.0,-10.0,-46.0,-989.0,-209.0
-10.0,-244.0,-55.0,46.0,4.0,-11.0,-47.0,-994.0,-213.0
-10.0,-242.0,-58.0,45.0,4.0,-11.0,-46.0,-990.0,-215.0
-14.0,-242.0,-59.0,44.0,6.0,-10.0,-46.0,-988.0,-217.0
-11.0,-242.0,-50.0,42.0,6.0,-10.0,-50.0,-990.0,-209.0
-13.0,-244.0,-57.0,41.0,6.0,-11.0,-47.0,-991.0,-214.0
-12.0,-247.0,-60.0,41.0,6.0,-12.0,-49.0,-992.0,-208.0
-14.0,-240.0,-58.0,43.0,7.0,-12.0,-49.0,-990.0,-213.0
-13.0,-243.0,-52.0,44.0,6.0,-11.0,-53.0,-994.0,-214.0
-14.0,-245.0,-51.0,44.0,7.0,-12.0,-52.0,-990.0,-214.0
-12.0,-241.0,-55.0,43.0,7.0,-12.0,-53.0,-989.0,-210.0
-11.0,-243.0,-54.0,43.0,7.0,-13.0,-51.0,-994.0,-213.0
-9.0,-243.0,-58.0,44.0,7.0,-12.0,-47.0,-992.0,-219.0
-14.0,-241.0,-58.0,45.0,7.0,-14.0,-52.0,-990.0,-215.0
-10.0,-245.0,-55.0,48.0,6.0,-12.0,-53.0,-992.0,-219.0
-12.0,-243.0,-57.0,51.0,7.0,-12.0,-47.0,-986.0,-207.0
-11.0,-241.0,-55.0,52.0,7.0,-12.0,-49.0,-992.0,-211.0
-10.0,-244.0,-60.0,52.0,7.0,-12.0,-49.0,-989.0,-217.0
-11.0,-241.0,-54.0,50.0,7.0,-12.0,-45.0,-989.0,-221.0
-10.0,-241.0,-58.0,47.0,7.0,-12.0,-49.0,-984.0,-219.0
-8.0,-249.0,-64.0,45.0,7.0,-13.0,-43.0,-988.0,-209.0
-10.0,-243.0,-50.0,43.0,8.0,-12.0,-47.0,-991.0,-217.0
-8.0,-245.0,-60.0,42.0,7.0,-12.0,-46.0,-988.0,-216.0
-10.0,-244.0,-56.0,43.0,9.0,-10.0,-45.0,-990.0,-217.0
-11.0,-243.0,-60.0,44.0,10.0,-10.0,-46.0,-992.0,-220.0
-12.0,-244.0,-62.0,46.0,10.0,-10.0,-44.0,-991.0,-219.0
-12.0,-241.0,-61.0,46.0,12.0,-10.0,-48.0,-996.0,-220.0
-10.0,-242.0,-57.0,45.0,12.0,-10.0,-45.0,-991.0,-215.0
-12.0,-243.0,-53.0,45.0,12.0,-10.0,-48.0,-991.0,-217.0
-11.0,-248.0,-57.0,45.0,13.0,-11.0,-51.0,-993.0,-217.0
-13.0,-243.0,-58.0,47.0,14.0,-12.0,-47.0,-987.0,-214.0
-10.0,-243.0,-56.0,52.0,14.0,-12.0,-47.0,-993.0,-211.0
-12.0,-244.0,-51.0,57.0,15.0,-14.0,-54.0,-988.0,-213.0
-14.0,-245.0,-58.0,62.0,16.0,-13.0,-51.0,-984.0,-216.0
-13.0,-242.0,-59.0,65.0,16.0,-13.0,-52.0,-987.0,-217.0
-11.0,-242.0,-55.0,63.0,18.0,-14.0,-46.0,-988.0,-213.0
-9.0,-243.0,-59.0,61.0,19.0,-14.0,-48.0,-990.0,-222.0
-11.0,-241.0,-54.0,57.0,20.0,-12.0,-49.0,-987.0,-211.0
-12.0,-239.0,-55.0,53.0,21.0,-13.0,-49.0,-985.0,-219.0
-13.0,-241.0,-58.0,50.0,21.0,-14.0,-50.0,-986.0,-219.0
-8.0,-245.0,-56.0,50.0,21.0,-12.0,-57.0,-991.0,-215.0
-9.0,-241.0,-53.0,50.0,20.0,-9.0,-57.0,-991.0,-213.0
-11.0,-246.0,-65.0,51.0,20.0,-11.0,-54.0,-982.0,-214.0
-13.0,-242.0,-59.0,51.0,20.0,-9.0,-48.0,-987.0,-212.0
-10.0,-244.0,-56.0,51.0,20.0,-11.0,-46.0,-988.0,-212.0
-11.0,-244.0,-55.0,51.0,20.0,-11.0,-51.0,-988.0,-212.0
-13.0,-242.0,-55.0,49.0,19.0,-10.0,-54.0,-985.0,-217.0
-13.0,-245.0,-56.0,46.0,19.0,-10.0,-48.0,-991.0,-212.0
-11.0,-245.0,-52.0,45.0,18.0,-10.0,-51.0,-989.0,-221.0
-9.0,-242.0,-58.0,42.0,19.0,-11.0,-53.0,-990.0,-214.0
-13.0,-242.0,-63.0,40.0,20.0,-11.0,-53.0,-988.0,-215.0
-13.0,-243.0,-57.0,41.0,19.0,-11.0,-52.0,-992.0,-213.0
-10.0,-246.0,-56.0,42.0,21.0,-11.0,-52.0,-988.0,-209.0
-9.0,-246.0,-56.0,43.0,21.0,-11.0,-53.0,-991.0,-214.0
-15.0,-243.0,-58.0,44.0,21.0,-12.0,-55.0,-987.0,-219.0
-12.0,-245.0,-58.0,46.0,21.0,-12.0,-51.0,-990.0,-214.0
-13.0,-241.0,-60.0,46.0,22.0,-12.0,-48.0,-988.0,-211.0
-12.0,-246.0,-59.0,48.0,23.0,-13.0,-50.0,-997.0,-220.0
-11.0,-242.0,-59.0,48.0,23.0,-12.0,-51.0,-991.0,-217.0
-9.0,-244.0,-53.0,47.0,23.0,-13.0,-50.0,-995.0,-214.0
-11.0,-247.0,-54.0,46.0,22.0,-13.0,-47.0,-993.0,-215.0
-9.0,-244.0,-54.0,48.0,21.0,-13.0,-48.0,-993.0,-217.0
-10.0,-247.0,-59.0,48.0,21.0,-13.0,-50.0,-994.0,-218.0
-11.0,-245.0,-57.0,51.0,20.0,-11.0,-54.0,-994.0,-219.0
-13.0,-242.0,-61.0,53.0,20.0,-10.0,-45.0,-991.0,-215.0
-8.0,-245.0,-54.0,54.0,18.0,-12.0,-44.0,-988.0,-215.0
-10.0,-246.0,-58.0,53.0,18.0,-14.0,-47.0,-996.0,-218.0
-8.0,-244.0,-57.0,55.0,18.0,-15.0,-44.0,-989.0,-221.0
-13.0,-243.0,-55.0,57.0,19.0,-16.0,-45.0,-994.0,-211.0
-10.0,-243.0,-58.0,58.0,19.0,-15.0,-48.0,-988.0,-210.0
-14.0,-242.0,-58.0,58.0,19.0,-16.0,-52.0,-992.0,-214.0
-8.0,-248.0,-58.0,56.0,19.0,-16.0,-42.0,-988.0,-218.0
-6.0,-246.0,-53.0,56.0,20.0,-15.0,-51.0,-989.0,-214.0
-12.0,-242.0,-57.0,55.0,21.0,-16.0,-47.0,-989.0,-214.0
-7.0,-245.0,-54.0,54.0,21.0,-14.0,-52.0,-991.0,-218.0
-8.0,-246.0,-55.0,53.0,20.0,-12.0,-53.0,-994.0,-216.0
-11.0,-243.0,-55.0,53.0,19.0,-14.0,-51.0,-986.0,-213.0
-11.0,-241.0,-52.0,56.0,19.0,-14.0,-55.0,-994.0,-216.0
-11.0,-243.0,-56.0,57.0,20.0,-13.0,-50.0,-987.0,-211.0
-12.0,-242.0,-56.0,58.0,19.0,-14.0,-50.0,-992.0,-214.0
-10.0,-245.0,-56.0,56.0,17.0,-15.0,-50.0,-990.0,-216.0
-10.0,-240.0,-58.0,56.0,15.0,-15.0,-44.0,-985.0,-216.0
-15.0,-245.0,-60.0,54.0,14.0,-14.0,-46.0,-988.0,-217.0
-7.0,-245.0,-53.0,53.0,15.0,-15.0,-53.0,-992.0,-221.0
-10.0,-245.0,-59.0,53.0,13.0,-15.0,-45.0,-989.0,-213.0
-9.0,-245.0,-56.0,53.0,12.0,-17.0,-47.0,-988.0,-217.0
-9.0,-243.0,-58.0,55.0,14.0,-18.0,-51.0,-990.0,-216.0
-11.0,-242.0,-57.0,55.0,14.0,-18.0,-44.0,-989.0,-213.0
-10.0,-242.0,-57.0,55.0,15.0,-18.0,-48.0,-984.0,-217.0
-11.0,-241.0,-56.0,54.0,14.0,-17.0,-46.0,-990.0,-220.0
-10.0,-243.0,-59.0,53.0,14.0,-17.0,-48.0,-989.0,-220.0
-11.0,-246.0,-56.0,49.0,15.0,-18.0,-47.0,-991.0,-218.0
-10.0,-241.0,-53.0,48.0,14.0,-18.0,-47.0,-987.0,-212.0
-12.0,-244.0,-57.0,45.0,13.0,-19.0,-54.0,-985.0,-213.0
-11.0,-245.0,-58.0,44.0,11.0,-18.0,-52.0,-987.0,-214.0
-15.0,-241.0,-58.0,45.0,10.0,-18.0,-48.0,-993.0,-216.0
-12.0,-246.0,-59.0,45.0,8.0,-17.0,-48.0,-991.0,-219.0
-7.0,-236.0,-58.0,48.0,7.0,-18.0,-48.0,-986.0,-217.0
-10.0,-243.0,-54.0,49.0,3.0,-17.0,-41.0,-994.0,-216.0
-12.0,-240.0,-60.0,51.0,3.0,-16.0,-47.0,-992.0,-216.0
-6.0,-243.0,-58.0,52.0,2.0,-17.0,-44.0,-992.0,-214.0
-12.0,-241.0,-59.0,54.0,2.0,-17.0,-42.0,-989.0,-225.0
-9.0,-243.0,-57.0,55.0,3.0,-17.0,-45.0,-993.0,-219.0
-13.0,-244.0,-59.0,53.0,4.0,-19.0,-44.0,-988.0,-219.0
-13.0,-243.0,-57.0,52.0,6.0,-18.0,-44.0,-990.0,-226.0
-12.0,-241.0,-52.0,51.0,9.0,-19.0,-46.0,-989.0,-216.0
-11.0,-244.0,-52.0,50.0,8.0,-20.0,-48.0,-989.0,-223.0
-7.0,-247.0,-65.0,50.0,7.0,-19.0,-47.0,-990.0,-216.0
-10.0,-244.0,-56.0,48.0,7.0,-19.0,-47.0,-987.0,-218.0
-9.0,-242.0,-58.0,47.0,7.0,-17.0,-43.0,-988.0,-216.0
-8.0,-243.0,-55.0,47.0,7.0,-17.0,-44.0,-986.0,-214.0
-13.0,-243.0,-57.0,47.0,6.0,-18.0,-46.0,-986.0,-217.0
-11.0,-242.0,-56.0,48.0,4.0,-18.0,-47.0,-988.0,-213.0
-7.0,-241.0,-57.0,48.0,4.0,-19.0,-46.0,-993.0,-221.0
-10.0,-239.0,-60.0,47.0,3.0,-17.0,-45.0,-987.0,-220.0
-12.0,-243.0,-54.0,47.0,4.0,-16.0,-52.0,-984.0,-219.0
-9.0,-244.0,-54.0,44.0,3.0,-15.0,-47.0,-989.0,-216.0
-14.0,-244.0,-58.0,41.0,4.0,-15.0,-39.0,-984.0,-214.0
-11.0,-245.0,-54.0,39.0,4.0,-14.0,-52.0,-986.0,-216.0
-6.0,-243.0,-54.0,37.0,6.0,-13.0,-44.0,-987.0,-211.0
-11.0,-243.0,-56.0,36.0,6.0,-14.0,-44.0,-990.0,-212.0
-10.0,-243.0,-54.0,38.0,7.0,-14.0,-44.0,-984.0,-209.0
-12.0,-241.0,-54.0,39.0,6.0,-15.0,-44.0,-991.0,-218.0
-11.0,-243.0,-60.0,38.0,6.0,-13.0,-39.0,-988.0,-212.0
-10.0,-241.0,-54.0,39.0,6.0,-14.0,-47.0,-989.0,-215.0
-9.0,-246.0,-53.0,38.0,9.0,-13.0,-45.0,-990.0,-214.0
-6.0,-248.0,-59.0,36.0,9.0,-13.0,-45.0,-991.0,-209.0
-6.0,-242.0,-57.0,34.0,10.0,-14.0,-41.0,-985.0,-215.0
-13.0,-242.0,-53.0,33.0,10.0,-16.0,-47.0,-989.0,-218.0
-7.0,-244.0,-55.0,34.0,11.0,-15.0,-44.0,-990.0,-214.0
-10.0,-243.0,-57.0,32.0,12.0,-15.0,-41.0,-990.0,-207.0
-9.0,-242.0,-57.0,32.0,12.0,-16.0,-42.0,-989.0,-214.0
-9.0,-241.0,-51.0,32.0,14.0,-14.0,-45.0,-996.0,-210.0
-12.0,-245.0,-57.0,32.0,13.0,-17.0,-42.0,-992.0,-206.0
-8.0,-242.0,-61.0,31.0,14.0,-16.0,-47.0,-985.0,-210.0
-13.0,-244.0,-57.0,29.0,14.0,-14.0,-46.0,-986.0,-214.0
-8.0,-242.0,-60.0,29.0,13.0,-15.0,-47.0,-993.0,-214.0
-11.0,-244.0,-51.0,29.0,13.0,-15.0,-45.0,-990.0,-209.0
-14.0,-241.0,-60.0,29.0,14.0,-16.0,-45.0,-992.0,-216.0
-9.0,-245.0,-54.0,30.0,14.0,-16.0,-53.0,-991.0,-215.0
-10.0,-244.0,-55.0,30.0,14.0,-15.0,-44.0,-987.0,-215.0
-10.0,-245.0,-57.0,29.0,17.0,-16.0,-46.0,-989.0,-202.0
-12.0,-239.0,-53.0,30.0,16.0,-17.0,-43.0,-994.0,-216.0
-13.0,-243.0,-53.0,35.0,17.0,-15.0,-49.0,-992.0,-210.0
-14.0,-242.0,-58.0,37.0,19.0,-14.0,-48.0,-990.0,-207.0
-13.0,-240.0,-57.0,40.0,17.0,-15.0,-47.0,-985.0,-219.0
-14.0,-242.0,-55.0,43.0,17.0,-13.0,-46.0,-991.0,-220.0
-13.0,-240.0,-53.0,43.0,17.0,-14.0,-48.0,-987.0,-214.0
-9.0,-244.0,-56.0,42.0,16.0,-15.0,-46.0,-992.0,-225.0
-10.0,-245.0,-59.0,40.0,15.0,-15.0,-46.0,-991.0,-213.0
-9.0,-251.0,-54.0,39.0,17.0,-14.0,-44.0,-994.0,-217.0
-11.0,-243.0,-57.0,39.0,19.0,-14.0,-44.0,-992.0,-211.0
-9.0,-242.0,-58.0,41.0,20.0,-13.0,-46.0,-991.0,-211.0
-12.0,-244.0,-55.0,42.0,22.0,-14.0,-47.0,-995.0,-213.0
-11.0,-245.0,-54.0,44.0,24.0,-15.0,-47.0,-994.0,-216.0
-8.0,-246.0,-55.0,45.0,25.0,-14.0,-46.0,-990.0,-208.0
-10.0,-244.0,-54.0,46.0,26.0,-14.0,-44.0,-993.0,-208.0
-7.0,-242.0,-57.0,48.0,27.0,-15.0,-44.0,-991.0,-220.0
-9.0,-243.0,-61.0,49.0,26.0,-15.0,-38.0,-987.0,-206.0
-13.0,-238.0,-61.0,50.0,25.0,-16.0,-43.0,-988.0,-216.0
-8.0,-242.0,-53.0,50.0,24.0,-16.0,-42.0,-980.0,-207.0
-9.0,-243.0,-59.0,49.0,24.0,-16.0,-41.0,-986.0,-220.0
-8.0,-242.0,-57.0,46.0,24.0,-14.0,-43.0,-986.0,-217.0
-9.0,-243.0,-54.0,41.0,24.0,-15.0,-42.0,-987.0,-210.0
-8.0,-244.0,-56.0,38.0,24.0,-17.0,-39.0,-992.0,-218.0
-9.0,-243.0,-57.0,35.0,26.0,-16.0,-41.0,-986.0,-214.0
-6.0,-244.0,-57.0,35.0,27.0,-17.0,-41.0,-989.0,-215.0
-9.0,-242.0,-56.0,36.0,28.0,-16.0,-48.0,-987.0,-218.0
-13.0,-244.0,-61.0,40.0,30.0,-17.0,-44.0,-990.0,-219.0
-12.0,-243.0,-53.0,41.0,30.0,-17.0,-43.0,-987.0,-222.0
-9.0,-243.0,-57.0,39.0,30.0,-17.0,-39.0,-988.0,-213.0
-9.0,-244.0,-57.0,35.0,29.0,-17.0,-43.0,-985.0,-220.0
-6.0,-246.0,-60.0,33.0,29.0,-16.0,-43.0,-988.0,-220.0
-8.0,-244.0,-58.0,30.0,30.0,-16.0,-41.0,-990.0,-210.0
-11.0,-245.0,-60.0,32.0,30.0,-17.0,-40.0,-994.0,-208.0
-12.0,-245.0,-56.0,34.0,31.0,-18.0,-40.0,-993.0,-211.0
-9.0,-244.0,-54.0,39.0,32.0,-18.0,-46.0,-990.0,-214.0
-8.0,-245.0,-58.0,45.0,34.0,-20.0,-44.0,-989.0,-219.0
-9.0,-245.0,-57.0,49.0,35.0,-20.0,-46.0,-987.0,-220.0
-13.0,-240.0,-54.0,50.0,35.0,-18.0,-44.0,-985.0,-215.0
-10.0,-243.0,-54.0,49.0,37.0,-19.0,-43.0,-991.0,-214.0
-8.0,-243.0,-56.0,45.0,39.0,-17.0,-45.0,-981.0,-213.0
-11.0,-245.0,-56.0,41.0,40.0,-16.0,-49.0,-989.0,-210.0
-11.0,-244.0,-53.0,39.0,42.0,-16.0,-44.0,-989.0,-211.0
-13.0,-244.0,-58.0,38.0,42.0,-18.0,-45.0,-990.0,-211.0
-11.0,-244.0,-57.0,39.0,41.0,-18.0,-43.0,-988.0,-211.0
-9.0,-246.0,-55.0,39.0,40.0,-19.0,-39.0,-997.0,-210.0
-8.0,-245.0,-54.0,41.0,38.0,-19.0,-38.0,-995.0,-201.0
-9.0,-244.0,-55.0,42.0,38.0,-18.0,-45.0,-995.0,-212.0
-9.0,-243.0,-55.0,42.0,38.0,-17.0,-44.0,-990.0,-208.0
-9.0,-243.0,-57.0,42.0,38.0,-16.0,-39.0,-989.0,-214.0
-9.0,-245.0,-57.0,39.0,38.0,-15.0,-40.0,-982.0,-220.0
-7.0,-243.0,-58.0,36.0,37.0,-16.0,-44.0,-989.0,-218.0
-13.0,-245.0,-59.0,35.0,40.0,-16.0,-42.0,-990.0,-218.0
-12.0,-245.0,-58.0,35.0,39.0,-15.0,-41.0,-989.0,-215.0
-9.0,-242.0,-55.0,35.0,39.0,-13.0,-41.0,-987.0,-219.0
-10.0,-241.0,-56.0,35.0,40.0,-12.0,-45.0,-994.0,-219.0
-9.0,-242.0,-56.0,39.0,43.0,-13.0,-44.0,-992.0,-212.0
-11.0,-245.0,-51.0,40.0,45.0,-14.0,-41.0,-995.0,-212.0
-10.0,-242.0,-56.0,43.0,48.0,-16.0,-40.0,-994.0,-215.0
-7.0,-246.0,-57.0,45.0,50.0,-18.0,-41.0,-994.0,-219.0
-7.0,-245.0,-56.0,46.0,52.0,-17.0,-41.0,-987.0,-214.0
-4.0,-244.0,-56.0,47.0,52.0,-17.0,-37.0,-998.0,-214.0
-8.0,-244.0,-58.0,49.0,53.0,-18.0,-40.0,-991.0,-217.0
-6.0,-247.0,-56.0,50.0,54.0,-19.0,-36.0,-995.0,-221.0
-11.0,-248.0,-59.0,52.0,54.0,-17.0,-35.0,-996.0,-217.0
-7.0,-244.0,-58.0,56.0,55.0,-17.0,-37.0,-994.0,-219.0
-6.0,-242.0,-56.0,57.0,56.0,-17.0,-28.0,-991.0,-223.0
-8.0,-241.0,-59.0,60.0,56.0,-16.0,-36.0,-980.0,-221.0
-6.0,-244.0,-59.0,61.0,57.0,-18.0,-33.0,-982.0,-217.0
-6.0,-242.0,-57.0,59.0,57.0,-18.0,-32.0,-985.0,-220.0
-7.0,-243.0,-59.0,58.0,56.0,-20.0,-31.0,-984.0,-223.0
-5.0,-243.0,-61.0,55.0,56.0,-18.0,-32.0,-980.0,-219.0
-7.0,-242.0,-57.0,49.0,57.0,-18.0,-36.0,-980.0,-219.0
-7.0,-240.0,-55.0,47.0,57.0,-15.0,-37.0,-984.0,-219.0
-10.0,-240.0,-55.0,45.0,59.0,-15.0,-39.0,-984.0,-223.0
-9.0,-245.0,-47.0,46.0,61.0,-13.0,-38.0,-986.0,-217.0
-10.0,-241.0,-55.0,44.0,63.0,-14.0,-41.0,-988.0,-209.0
-10.0,-242.0,-57.0,44.0,64.0,-14.0,-38.0,-992.0,-214.0
-11.0,-243.0,-57.0,45.0,63.0,-14.0,-45.0,-990.0,-215.0
-8.0,-243.0,-57.0,45.0,63.0,-13.0,-40.0,-986.0,-217.0
-7.0,-245.0,-57.0,44.0,64.0,-15.0,-41.0,-989.0,-220.0
-8.0,-243.0,-57.0,45.0,62.0,-15.0,-40.0,-987.0,-223.0
-8.0,-244.0,-56.0,44.0,62.0,-15.0,-38.0,-987.0,-220.0
-11.0,-243.0,-59.0,44.0,60.0,-15.0,-39.0,-990.0,-220.0
-5.0,-244.0,-59.0,43.0,58.0,-13.0,-36.0,-991.0,-221.0
-9.0,-243.0,-56.0,43.0,57.0,-14.0,-35.0,-985.0,-227.0
-9.0,-244.0,-61.0,42.0,55.0,-14.0,-38.0,-991.0,-214.0
-6.0,-244.0,-52.0,41.0,55.0,-14.0,-38.0,-991.0,-214.0
-9.0,-245.0,-54.0,39.0,56.0,-13.0,-35.0,-992.0,-216.0
-7.0,-242.0,-55.0,39.0,56.0,-12.0,-37.0,-990.0,-214.0
-7.0,-242.0,-55.0,40.0,58.0,-12.0,-39.0,-991.0,-211.0
-8.0,-243.0,-57.0,42.0,57.0,-11.0,-41.0,-989.0,-219.0
-11.0,-242.0,-58.0,45.0,58.0,-10.0,-44.0,-991.0,-216.0
-9.0,-243.0,-58.0,46.0,58.0,-9.0,-41.0,-988.0,-220.0
-7.0,-242.0,-58.0,45.0,57.0,-8.0,-37.0,-985.0,-219.0
-10.0,-240.0,-58.0,42.0,58.0,-8.0,-41.0,-987.0,-219.0
-5.0,-245.0,-59.0,38.0,57.0,-9.0,-36.0,-983.0,-220.0
-7.0,-243.0,-49.0,36.0,59.0,-8.0,-40.0,-988.0,-218.0
-10.0,-242.0,-56.0,34.0,59.0,-8.0,-37.0,-985.0,-221.0
-10.0,-241.0,-58.0,34.0,58.0,-10.0,-36.0,-987.0,-217.0
-9.0,-244.0,-57.0,33.0,57.0,-11.0,-40.0,-990.0,-212.0
-8.0,-244.0,-53.0,33.0,55.0,-12.0,-36.0,-988.0,-212.0
-7.0,-240.0,-59.0,33.0,53.0,-11.0,-32.0,-988.0,-219.0
-4.0,-243.0,-52.0,33.0,53.0,-11.0,-32.0,-994.0,-217.0
-5.0,-246.0,-54.0,35.0,52.0,-11.0,-31.0,-991.0,-218.0
-11.0,-244.0,-52.0,38.0,51.0,-13.0,-36.0,-993.0,-221.0
-9.0,-242.0,-58.0,42.0,51.0,-11.0,-38.0,-995.0,-219.0
-8.0,-239.0,-57.0,44.0,51.0,-12.0,-39.0,-991.0,-220.0
-10.0,-244.0,-57.0,46.0,51.0,-11.0,-41.0,-989.0,-229.0
-6.0,-245.0,-58.0,47.0,51.0,-10.0,-41.0,-992.0,-224.0
-8.0,-244.0,-61.0,45.0,49.0,-9.0,-32.0,-992.0,-223.0
-9.0,-245.0,-55.0,44.0,50.0,-7.0,-38.0,-987.0,-224.0
-9.0,-242.0,-59.0,43.0,51.0,-8.0,-35.0,-989.0,-223.0
-10.0,-243.0,-60.0,41.0,52.0,-7.0,-41.0,-987.0,-217.0
-9.0,-241.0,-62.0,40.0,54.0,-6.0,-36.0,-990.0,-223.0
-7.0,-242.0,-59.0,40.0,54.0,-8.0,-38.0,-989.0,-217.0
-11.0,-242.0,-56.0,40.0,54.0,-9.0,-37.0,-987.0,-216.0
-8.0,-242.0,-57.0,41.0,54.0,-10.0,-36.0,-989.0,-217.0
-9.0,-242.0,-55.0,43.0,56.0,-11.0,-36.0,-984.0,-219.0
-9.0,-247.0,-54.0,43.0,57.0,-11.0,-38.0,-989.0,-216.0
-7.0,-242.0,-58.0,44.0,56.0,-13.0,-41.0,-997.0,-217.0
-7.0,-243.0,-57.0,45.0,56.0,-14.0,-41.0,-993.0,-220.0
-7.0,-243.0,-55.0,47.0,56.0,-15.0,-40.0,-988.0,-228.0
-8.0,-243.0,-59.0,48.0,56.0,-16.0,-42.0,-993.0,-217.0
-7.0,-245.0,-56.0,50.0,57.0,-17.0,-43.0,-988.0,-213.0
-8.0,-247.0,-57.0,51.0,58.0,-17.0,-43.0,-996.0,-218.0
-7.0,-249.0,-54.0,49.0,61.0,-17.0,-42.0,-993.0,-218.0
-12.0,-241.0,-53.0,49.0,61.0,-17.0,-42.0,-994.0,-218.0
-8.0,-244.0,-56.0,50.0,61.0,-19.0,-38.0,-991.0,-216.0
-5.0,-251.0,-61.0,50.0,61.0,-18.0,-39.0,-992.0,-218.0
-9.0,-242.0,-57.0,51.0,61.0,-18.0,-43.0,-987.0,-213.0
-11.0,-242.0,-59.0,52.0,60.0,-18.0,-40.0,-988.0,-217.0
-10.0,-244.0,-54.0,53.0,58.0,-17.0,-42.0,-987.0,-213.0
-7.0,-243.0,-55.0,53.0,57.0,-18.0,-41.0,-988.0,-223.0
-8.0,-244.0,-59.0,53.0,58.0,-17.0,-42.0,-984.0,-218.0
-11.0,-242.0,-58.0,52.0,57.0,-16.0,-39.0,-988.0,-221.0
-10.0,-243.0,-54.0,51.0,58.0,-16.0,-42.0,-988.0,-214.0
-9.0,-243.0,-59.0,52.0,56.0,-16.0,-42.0,-990.0,-222.0
-8.0,-246.0,-61.0,52.0,56.0,-15.0,-49.0,-989.0,-220.0
-11.0,-246.0,-62.0,55.0,56.0,-17.0,-37.0,-989.0,-218.0
-6.0,-248.0,-56.0,54.0,55.0,-19.0,-49.0,-992.0,-214.0
-11.0,-243.0,-55.0,57.0,54.0,-20.0,-43.0,-988.0,-214.0
-14.0,-242.0,-59.0,57.0,54.0,-22.0,-42.0,-990.0,-220.0
-11.0,-242.0,-59.0,56.0,55.0,-22.0,-40.0,-990.0,-219.0
-11.0,-243.0,-58.0,56.0,54.0,-24.0,-46.0,-990.0,-217.0
-8.0,-247.0,-57.0,56.0,55.0,-25.0,-41.0,-993.0,-215.0
-10.0,-244.0,-56.0,56.0,54.0,-25.0,-41.0,-991.0,-220.0
-12.0,-238.0,-59.0,56.0,55.0,-27.0,-39.0,-994.0,-217.0
-10.0,-245.0,-59.0,56.0,56.0,-26.0,-43.0,-988.0,-218.0
-9.0,-243.0,-60.0,58.0,57.0,-25.0,-43.0,-992.0,-220.0
-12.0,-242.0,-60.0,57.0,56.0,-27.0,-39.0,-991.0,-219.0
-13.0,-244.0,-58.0,56.0,53.0,-25.0,-40.0,-992.0,-220.0
-11.0,-245.0,-57.0,58.0,53.0,-26.0,-49.0,-992.0,-221.0
-11.0,-243.0,-57.0,59.0,51.0,-26.0,-48.0,-986.0,-214.0
-12.0,-244.0,-57.0,60.0,49.0,-25.0,-48.0,-987.0,-217.0
-7.0,-246.0,-60.0,62.0,48.0,-24.0,-44.0,-990.0,-215.0
-11.0,-242.0,-55.0,65.0,49.0,-25.0,-43.0,-988.0,-213.0
-11.0,-243.0,-55.0,69.0,48.0,-26.0,-46.0,-988.0,-220.0
-13.0,-241.0,-57.0,72.0,47.0,-26.0,-46.0,-986.0,-211.0
-7.0,-240.0,-55.0,74.0,46.0,-27.0,-41.0,-985.0,-216.0
-10.0,-246.0,-62.0,72.0,43.0,-28.0,-47.0,-986.0,-213.0
-10.0,-240.0,-55.0,69.0,42.0,-28.0,-39.0,-986.0,-215.0
-5.0,-241.0,-56.0,67.0,42.0,-29.0,-43.0,-991.0,-218.0
-9.0,-241.0,-56.0,67.0,39.0,-30.0,-37.0,-988.0,-220.0
-8.0,-243.0,-58.0,67.0,39.0,-32.0,-36.0,-993.0,-219.0
-8.0,-244.0,-59.0,69.0,40.0,-32.0,-41.0,-990.0,-219.0
-9.0,-245.0,-54.0,70.0,41.0,-33.0,-44.0,-991.0,-218.0
-7.0,-246.0,-55.0,71.0,42.0,-36.0,-40.0,-992.0,-224.0
-8.0,-242.0,-57.0,71.0,42.0,-36.0,-45.0,-992.0,-212.0
-10.0,-242.0,-55.0,71.0,41.0,-35.0,-42.0,-992.0,-216.0
-6.0,-242.0,-52.0,71.0,40.0,-36.0,-44.0,-991.0,-211.0
-9.0,-243.0,-56.0,73.0,37.0,-34.0,-45.0,-994.0,-215.0
-11.0,-244.0,-56.0,76.0,36.0,-36.0,-44.0,-992.0,-216.0
-9.0,-247.0,-61.0,80.0,32.0,-36.0,-41.0,-988.0,-216.0
-7.0,-246.0,-57.0,83.0,30.0,-36.0,-42.0,-976.0,-224.0
-8.0,-242.0,-57.0,83.0,31.0,-35.0,-46.0,-981.0,-218.0
-11.0,-242.0,-57.0,82.0,32.0,-36.0,-35.0,-982.0,-223.0
-9.0,-239.0,-59.0,78.0,34.0,-37.0,-42.0,-984.0,-222.0
-10.0,-241.0,-58.0,73.0,38.0,-37.0,-39.0,-981.0,-227.0
-8.0,-244.0,-59.0,69.0,44.0,-38.0,-42.0,-982.0,-218.0
-12.0,-239.0,-61.0,67.0,48.0,-39.0,-45.0,-985.0,-224.0
-11.0,-239.0,-57.0,68.0,49.0,-38.0,-45.0,-987.0,-216.0
-17.0,-241.0,-65.0,70.0,51.0,-39.0,-41.0,-985.0,-219.0
-12.0,-240.0,-53.0,75.0,53.0,-38.0,-45.0,-982.0,-221.0
-8.0,-241.0,-61.0,79.0,56.0,-36.0,-40.0,-987.0,-223.0
-9.0,-241.0,-54.0,79.0,58.0,-35.0,-33.0,-984.0,-218.0
-4.0,-239.0,-58.0,80.0,58.0,-35.0,-27.0,-984.0,-214.0
-7.0,-244.0,-56.0,79.0,59.0,-34.0,-30.0,-988.0,-216.0
-4.0,-244.0,-56.0,77.0,60.0,-33.0,-25.0,-991.0,-212.0
-4.0,-245.0,-56.0,76.0,62.0,-36.0,-28.0,-1001.0,-214.0
-6.0,-248.0,-57.0,75.0,65.0,-38.0,-32.0,-992.0,-218.0
-7.0,-247.0,-58.0,74.0,69.0,-40.0,-33.0,-1004.0,-218.0
-7.0,-246.0,-55.0,77.0,76.0,-41.0,-33.0,-1002.0,-214.0
-8.0,-248.0,-61.0,83.0,78.0,-43.0,-32.0,-1005.0,-218.0
-4.0,-244.0,-56.0,89.0,77.0,-44.0,-28.0,-1002.0,-220.0
-7.0,-243.0,-52.0,94.0,77.0,-44.0,-34.0,-990.0,-217.0
-5.0,-245.0,-55.0,100.0,79.0,-43.0,-37.0,-990.0,-220.0
-7.0,-243.0,-56.0,106.0,82.0,-46.0,-34.0,-983.0,-219.0
-8.0,-239.0,-54.0,106.0,84.0,-46.0,-29.0,-973.0,-215.0
-6.0,-241.0,-53.0,105.0,86.0,-46.0,-33.0,-975.0,-216.0
-4.0,-238.0,-58.0,102.0,87.0,-46.0,-37.0,-972.0,-215.0
-7.0,-235.0,-60.0,98.0,85.0,-46.0,-41.0,-971.0,-215.0
-12.0,-239.0,-56.0,96.0,87.0,-44.0,-39.0,-974.0,-214.0
-9.0,-239.0,-57.0,93.0,90.0,-40.0,-36.0,-970.0,-218.0
-10.0,-241.0,-58.0,94.0,92.0,-37.0,-40.0,-970.0,-217.0
-6.0,-242.0,-59.0,98.0,96.0,-31.0,-41.0,-973.0,-224.0
-9.0,-239.0,-66.0,105.0,102.0,-23.0,-37.0,-969.0,-228.0
-8.0,-241.0,-60.0,114.0,107.0,-18.0,-38.0,-977.0,-225.0
-7.0,-239.0,-60.0,122.0,113.0,-9.0,-27.0,-970.0,-227.0
-4.0,-240.0,-58.0,130.0,120.0,1.0,-22.0,-972.0,-217.0
-4.0,-239.0,-57.0,137.0,127.0,8.0,-16.0,-965.0,-217.0
-3.0,-240.0,-55.0,142.0,132.0,15.0,-12.0,-975.0,-211.0
-3.0,-240.0,-57.0,140.0,137.0,21.0,-10.0,-981.0,-204.0
-1.0,-244.0,-53.0,134.0,141.0,24.0,-7.0,-990.0,-205.0
0.0,-246.0,-54.0,123.0,143.0,30.0,-8.0,-1011.0,-198.0
-4.0,-249.0,-50.0,111.0,144.0,32.0,-8.0,-1011.0,-193.0
-4.0,-253.0,-51.0,102.0,146.0,31.0,-7.0,-1026.0,-189.0
-2.0,-253.0,-50.0,98.0,148.0,27.0,-5.0,-1039.0,-199.0
0.0,-258.0,-51.0,96.0,154.0,22.0,-14.0,-1050.0,-199.0
-4.0,-257.0,-55.0,101.0,163.0,14.0,-5.0,-1056.0,-202.0
-1.0,-260.0,-56.0,107.0,170.0,4.0,-7.0,-1056.0,-195.0
-3.0,-257.0,-55.0,117.0,179.0,-7.0,-10.0,-1059.0,-207.0
-2.0,-255.0,-55.0,126.0,187.0,-22.0,-11.0,-1057.0,-211.0
-2.0,-255.0,-56.0,132.0,192.0,-39.0,-13.0,-1051.0,-218.0
-3.0,-255.0,-60.0,136.0,198.0,-56.0,-14.0,-1043.0,-218.0
-4.0,-254.0,-61.0,135.0,203.0,-70.0,-16.0,-1029.0,-215.0
-5.0,-246.0,-56.0,135.0,205.0,-81.0,-21.0,-1016.0,-216.0
-1.0,-250.0,-53.0,132.0,204.0,-91.0,-24.0,-1009.0,-218.0
-10.0,-243.0,-52.0,127.0,202.0,-93.0,-36.0,-995.0,-215.0
-8.0,-241.0,-54.0,123.0,200.0,-96.0,-37.0,-994.0,-202.0
-10.0,-242.0,-50.0,118.0,196.0,-97.0,-39.0,-984.0,-207.0
-10.0,-239.0,-52.0,115.0,195.0,-97.0,-43.0,-982.0,-200.0
-10.0,-237.0,-49.0,112.0,190.0,-94.0,-42.0,-982.0,-194.0
-6.0,-237.0,-47.0,111.0,184.0,-92.0,-43.0,-973.0,-184.0
-7.0,-238.0,-49.0,108.0,177.0,-88.0,-30.0,-968.0,-184.0
-6.0,-233.0,-54.0,101.0,170.0,-86.0,-27.0,-957.0,-181.0
-4.0,-230.0,-49.0,88.0,167.0,-86.0,-10.0,-951.0,-179.0
0.0,-227.0,-48.0,68.0,165.0,-81.0,2.0,-940.0,-169.0
3.0,-229.0,-45.0,43.0,165.0,-78.0,8.0,-937.0,-171.0
3.0,-230.0,-45.0,16.0,166.0,-76.0,16.0,-941.0,-168.0
4.0,-230.0,-48.0,-7.0,165.0,-73.0,21.0,-943.0,-164.0
4.0,-231.0,-44.0,-26.0,160.0,-67.0,16.0,-949.0,-159.0
4.0,-235.0,-39.0,-41.0,149.0,-60.0,24.0,-961.0,-161.0
7.0,-242.0,-45.0,-50.0,134.0,-52.0,19.0,-975.0,-154.0
5.0,-243.0,-40.0,-55.0,115.0,-43.0,23.0,-990.0,-144.0
6.0,-250.0,-39.0,-55.0,96.0,-36.0,24.0,-996.0,-142.0
5.0,-248.0,-35.0,-50.0,77.0,-27.0,26.0,-1014.0,-141.0
7.0,-250.0,-39.0,-43.0,64.0,-25.0,30.0,-1027.0,-138.0
6.0,-253.0,-36.0,-33.0,55.0,-25.0,26.0,-1033.0,-129.0
8.0,-256.0,-30.0,-20.0,52.0,-29.0,27.0,-1041.0,-121.0
9.0,-257.0,-33.0,-8.0,53.0,-34.0,27.0,-1045.0,-126.0
8.0,-256.0,-36.0,0.0,55.0,-39.0,21.0,-1046.0,-127.0
5.0,-256.0,-36.0,5.0,57.0,-46.0,23.0,-1040.0,-126.0
6.0,-255.0,-37.0,8.0,58.0,-51.0,17.0,-1043.0,-135.0
5.0,-254.0,-33.0,10.0,55.0,-53.0,15.0,-1032.0,-136.0
3.0,-255.0,-36.0,7.0,50.0,-59.0,12.0,-1039.0,-144.0
8.0,-255.0,-40.0,4.0,47.0,-63.0,20.0,-1037.0,-152.0
8.0,-252.0,-37.0,1.0,50.0,-67.0,19.0,-1035.0,-160.0
5.0,-252.0,-48.0,-4.0,56.0,-76.0,23.0,-1026.0,-169.0
11.0,-254.0,-44.0,-11.0,64.0,-83.0,22.0,-1024.0,-185.0
7.0,-248.0,-48.0,-21.0,72.0,-90.0,27.0,-1014.0,-189.0
6.0,-246.0,-52.0,-29.0,74.0,-98.0,25.0,-1002.0,-190.0
9.0,-245.0,-50.0,-37.0,72.0,-106.0,30.0,-994.0,-190.0
15.0,-244.0,-48.0,-43.0,69.0,-115.0,39.0,-990.0,-184.0
14.0,-248.0,-49.0,-47.0,63.0,-119.0,40.0,-985.0,-187.0
11.0,-243.0,-49.0,-50.0,59.0,-124.0,44.0,-988.0,-186.0
13.0,-240.0,-51.0,-50.0,58.0,-126.0,44.0,-993.0,-186.0
13.0,-244.0,-47.0,-48.0,60.0,-127.0,46.0,-994.0,-185.0
15.0,-248.0,-51.0,-46.0,63.0,-130.0,44.0,-992.0,-187.0
13.0,-244.0,-49.0,-45.0,69.0,-129.0,45.0,-995.0,-183.0
14.0,-246.0,-50.0,-42.0,76.0,-130.0,40.0,-992.0,-194.0
11.0,-245.0,-53.0,-38.0,84.0,-130.0,36.0,-993.0,-188.0
9.0,-243.0,-48.0,-31.0,92.0,-130.0,31.0,-991.0,-192.0
8.0,-241.0,-55.0,-23.0,101.0,-128.0,28.0,-987.0,-193.0
8.0,-241.0,-49.0,-17.0,110.0,-125.0,22.0,-982.0,-199.0
8.0,-238.0,-52.0,-8.0,119.0,-121.0,24.0,-980.0,-194.0
7.0,-239.0,-51.0,-3.0,124.0,-117.0,25.0,-970.0,-189.0
10.0,-236.0,-46.0,0.0,128.0,-113.0,20.0,-962.0,-190.0
4.0,-234.0,-49.0,0.0,130.0,-107.0,23.0,-957.0,-185.0
5.0,-232.0,-52.0,-4.0,129.0,-99.0,21.0,-956.0,-183.0
4.0,-232.0,-49.0,-7.0,126.0,-94.0,23.0,-954.0,-179.0
1.0,-234.0,-43.0,-10.0,123.0,-85.0,19.0,-954.0,-168.0
4.0,-238.0,-43.0,-12.0,118.0,-79.0,16.0,-959.0,-168.0
2.0,-235.0,-46.0,-12.0,114.0,-70.0,21.0,-960.0,-157.0
5.0,-235.0,-42.0,-11.0,108.0,-61.0,11.0,-967.0,-160.0
8.0,-239.0,-37.0,-12.0,107.0,-54.0,19.0,-975.0,-155.0
3.0,-241.0,-40.0,-12.0,107.0,-46.0,17.0,-978.0,-158.0
10.0,-240.0,-44.0,-12.0,110.0,-39.0,24.0,-980.0,-158.0
9.0,-242.0,-38.0,-12.0,113.0,-34.0,27.0,-981.0,-149.0
6.0,-241.0,-38.0,-9.0,115.0,-27.0,31.0,-982.0,-147.0
9.0,-240.0,-44.0,-7.0,117.0,-21.0,32.0,-972.0,-160.0
12.0,-241.0,-39.0,-6.0,117.0,-17.0,33.0,-976.0,-145.0
8.0,-237.0,-41.0,-6.0,118.0,-10.0,34.0,-967.0,-152.0
13.0,-235.0,-38.0,-9.0,121.0,-2.0,36.0,-962.0,-159.0
11.0,-235.0,-43.0,-13.0,126.0,5.0,37.0,-957.0,-164.0
9.0,-236.0,-44.0,-21.0,131.0,12.0,28.0,-956.0,-163.0
6.0,-234.0,-41.0,-28.0,130.0,20.0,34.0,-958.0,-160.0
7.0,-234.0,-47.0,-35.0,126.0,29.0,34.0,-966.0,-169.0
10.0,-238.0,-44.0,-41.0,121.0,32.0,31.0,-967.0,-167.0
10.0,-240.0,-48.0,-46.0,116.0,37.0,35.0,-978.0,-166.0
8.0,-238.0,-48.0,-49.0,114.0,42.0,32.0,-982.0,-167.0
12.0,-242.0,-40.0,-50.0,116.0,47.0,36.0,-986.0,-172.0
10.0,-241.0,-48.0,-48.0,120.0,51.0,36.0,-992.0,-167.0
13.0,-250.0,-55.0,-43.0,126.0,52.0,37.0,-993.0,-170.0
9.0,-249.0,-49.0,-38.0,132.0,52.0,41.0,-1000.0,-169.0
12.0,-247.0,-48.0,-35.0,136.0,53.0,39.0,-1006.0,-168.0
11.0,-249.0,-46.0,-31.0,138.0,54.0,42.0,-996.0,-171.0
11.0,-244.0,-44.0,-28.0,139.0,58.0,44.0,-999.0,-170.0
10.0,-242.0,-45.0,-29.0,139.0,62.0,37.0,-992.0,-171.0
11.0,-241.0,-44.0,-33.0,136.0,65.0,43.0,-992.0,-165.0
13.0,-243.0,-46.0,-34.0,134.0,72.0,43.0,-994.0,-164.0
10.0,-241.0,-44.0,-32.0,134.0,76.0,45.0,-988.0,-166.0
14.0,-246.0,-41.0,-25.0,135.0,81.0,47.0,-988.0,-166.0
13.0,-242.0,-45.0,-16.0,136.0,85.0,46.0,-989.0,-164.0
15.0,-234.0,-44.0,-8.0,138.0,89.0,50.0,-986.0,-164.0
13.0,-240.0,-44.0,-3.0,137.0,92.0,47.0,-982.0,-159.0
15.0,-238.0,-43.0,-1.0,139.0,94.0,48.0,-981.0,-161.0
15.0,-239.0,-44.0,-3.0,138.0,97.0,55.0,-979.0,-163.0
12.0,-239.0,-42.0,-6.0,138.0,100.0,49.0,-978.0,-165.0
18.0,-239.0,-43.0,-8.0,136.0,105.0,48.0,-982.0,-163.0
11.0,-239.0,-45.0,-6.0,134.0,110.0,44.0,-983.0,-161.0
10.0,-245.0,-43.0,-3.0,129.0,110.0,34.0,-989.0,-160.0
7.0,-239.0,-39.0,2.0,122.0,112.0,36.0,-984.0,-158.0
6.0,-246.0,-41.0,7.0,116.0,114.0,24.0,-992.0,-152.0
7.0,-246.0,-42.0,12.0,110.0,116.0,15.0,-990.0,-141.0
-3.0,-241.0,-39.0,17.0,103.0,116.0,8.0,-993.0,-138.0
1.0,-244.0,-36.0,16.0,95.0,117.0,-2.0,-993.0,-138.0
-3.0,-238.0,-35.0,11.0,86.0,120.0,-4.0,-984.0,-141.0
-1.0,-238.0,-37.0,1.0,79.0,120.0,-8.0,-982.0,-136.0
-1.0,-238.0,-38.0,-12.0,72.0,121.0,-9.0,-973.0,-137.0
-5.0,-237.0,-35.0,-26.0,69.0,121.0,-15.0,-971.0,-136.0
-3.0,-237.0,-38.0,-40.0,64.0,122.0,-12.0,-967.0,-143.0
-3.0,-235.0,-36.0,-55.0,60.0,120.0,-6.0,-968.0,-147.0
-1.0,-235.0,-36.0,-73.0,55.0,119.0,-5.0,-965.0,-152.0
3.0,-239.0,-42.0,-91.0,50.0,118.0,2.0,-965.0,-158.0
0.0,-233.0,-48.0,-107.0,46.0,118.0,10.0,-967.0,-160.0
4.0,-236.0,-43.0,-122.0,42.0,113.0,17.0,-967.0,-158.0
7.0,-237.0,-44.0,-136.0,40.0,113.0,27.0,-973.0,-159.0
9.0,-241.0,-44.0,-149.0,38.0,109.0,29.0,-979.0,-155.0
9.0,-239.0,-41.0,-161.0,37.0,106.0,32.0,-981.0,-161.0
14.0,-245.0,-41.0,-174.0,37.0,105.0,37.0,-985.0,-153.0
11.0,-245.0,-43.0,-184.0,39.0,101.0,36.0,-992.0,-149.0
10.0,-243.0,-45.0,-190.0,41.0,98.0,43.0,-999.0,-156.0
11.0,-249.0,-47.0,-194.0,48.0,94.0,47.0,-1008.0,-162.0
15.0,-248.0,-47.0,-197.0,59.0,89.0,53.0,-1011.0,-171.0
20.0,-249.0,-45.0,-202.0,72.0,84.0,56.0,-1023.0,-184.0
22.0,-253.0,-50.0,-204.0,84.0,79.0,71.0,-1023.0,-176.0
20.0,-251.0,-44.0,-199.0,97.0,72.0,90.0,-1035.0,-184.0
26.0,-255.0,-48.0,-187.0,109.0,65.0,98.0,-1046.0,-177.0
31.0,-256.0,-49.0,-173.0,123.0,58.0,111.0,-1048.0,-189.0
30.0,-256.0,-51.0,-162.0,139.0,50.0,123.0,-1052.0,-194.0
34.0,-259.0,-58.0,-156.0,160.0,41.0,130.0,-1051.0,-215.0
35.0,-257.0,-64.0,-158.0,183.0,29.0,137.0,-1058.0,-239.0
34.0,-257.0,-65.0,-168.0,205.0,18.0,137.0,-1058.0,-252.0
37.0,-257.0,-69.0,-179.0,227.0,11.0,143.0,-1052.0,-266.0
38.0,-261.0,-71.0,-186.0,251.0,2.0,136.0,-1064.0,-263.0
33.0,-259.0,-71.0,-186.0,274.0,-5.0,136.0,-1061.0,-264.0
33.0,-258.0,-72.0,-176.0,300.0,-12.0,129.0,-1068.0,-266.0
37.0,-262.0,-69.0,-159.0,329.0,-18.0,131.0,-1070.0,-259.0
33.0,-262.0,-65.0,-139.0,356.0,-23.0,124.0,-1065.0,-250.0
27.0,-258.0,-62.0,-115.0,384.0,-24.0,106.0,-1063.0,-241.0
25.0,-261.0,-64.0,-90.0,409.0,-24.0,99.0,-1059.0,-234.0
23.0,-257.0,-62.0,-61.0,432.0,-20.0,82.0,-1052.0,-225.0
20.0,-258.0,-58.0,-32.0,454.0,-17.0,64.0,-1045.0,-225.0
12.0,-255.0,-58.0,-5.0,474.0,-8.0,45.0,-1033.0,-218.0
8.0,-253.0,-56.0,19.0,492.0,7.0,31.0,-1018.0,-238.0
5.0,-247.0,-62.0,40.0,506.0,26.0,27.0,-1008.0,-245.0
12.0,-247.0,-68.0,59.0,519.0,48.0,21.0,-994.0,-265.0
5.0,-238.0,-72.0,72.0,531.0,70.0,19.0,-984.0,-274.0
6.0,-238.0,-75.0,84.0,539.0,96.0,23.0,-971.0,-294.0
4.0,-239.0,-77.0,87.0,540.0,122.0,20.0,-955.0,-307.0
1.0,-232.0,-79.0,86.0,536.0,143.0,19.0,-953.0,-307.0
3.0,-230.0,-79.0,78.0,525.0,164.0,18.0,-947.0,-328.0
1.0,-233.0,-82.0,64.0,514.0,186.0,11.0,-948.0,-329.0
2.0,-233.0,-86.0,51.0,506.0,208.0,14.0,-957.0,-332.0
1.0,-235.0,-79.0,42.0,505.0,229.0,15.0,-970.0,-335.0
4.0,-241.0,-87.0,30.0,505.0,243.0,15.0,-990.0,-346.0
7.0,-248.0,-92.0,13.0,504.0,259.0,21.0,-1004.0,-363.0
7.0,-248.0,-93.0,-9.0,501.0,271.0,27.0,-1009.0,-361.0
11.0,-254.0,-95.0,-27.0,493.0,282.0,36.0,-1015.0,-363.0
12.0,-251.0,-91.0,-35.0,490.0,289.0,45.0,-1029.0,-358.0
17.0,-253.0,-89.0,-36.0,496.0,291.0,60.0,-1027.0,-350.0
14.0,-251.0,-86.0,-31.0,502.0,291.0,72.0,-1023.0,-340.0
15.0,-246.0,-89.0,-32.0,504.0,289.0,69.0,-1023.0,-347.0
14.0,-247.0,-82.0,-38.0,501.0,287.0,61.0,-1005.0,-342.0
10.0,-243.0,-91.0,-49.0,492.0,287.0,47.0,-987.0,-351.0
6.0,-236.0,-91.0,-63.0,484.0,288.0,34.0,-972.0,-361.0
3.0,-230.0,-90.0,-78.0,481.0,288.0,13.0,-950.0,-359.0
-3.0,-230.0,-92.0,-95.0,480.0,287.0,-3.0,-948.0,-369.0
-11.0,-222.0,-90.0,-117.0,476.0,288.0,-27.0,-933.0,-374.0
-13.0,-221.0,-96.0,-145.0,472.0,289.0,-40.0,-926.0,-382.0
-12.0,-220.0,-97.0,-180.0,466.0,296.0,-56.0,-908.0,-387.0
-16.0,-216.0,-99.0,-222.0,466.0,298.0,-59.0,-898.0,-402.0
-15.0,-215.0,-106.0,-263.0,474.0,301.0,-54.0,-880.0,-417.0
-15.0,-215.0,-107.0,-301.0,487.0,299.0,-51.0,-875.0,-432.0
-14.0,-214.0,-113.0,-333.0,501.0,298.0,-46.0,-881.0,-439.0
-13.0,-215.0,-108.0,-357.0,510.0,292.0,-43.0,-893.0,-445.0
-14.0,-221.0,-114.0,-371.0,510.0,286.0,-40.0,-900.0,-439.0
-12.0,-221.0,-114.0,-378.0,504.0,281.0,-48.0,-908.0,-430.0
-5.0,-225.0,-110.0,-384.0,494.0,287.0,-29.0,-908.0,-427.0
-6.0,-220.0,-113.0,-391.0,494.0,280.0,-28.0,-910.0,-423.0
-13.0,-222.0,-107.0,-403.0,504.0,272.0,-42.0,-911.0,-413.0
-12.0,-225.0,-98.0,-415.0,527.0,272.0,-46.0,-926.0,-401.0
-15.0,-231.0,-97.0,-420.0,551.0,277.0,-46.0,-942.0,-388.0
-12.0,-240.0,-94.0,-415.0,576.0,288.0,-43.0,-973.0,-376.0
-15.0,-248.0,-92.0,-399.0,594.0,300.0,-55.0,-999.0,-379.0
-16.0,-254.0,-99.0,-375.0,602.0,313.0,-54.0,-1026.0,-387.0
-17.0,-256.0,-101.0,-344.0,599.0,325.0,-63.0,-1048.0,-401.0
-12.0,-259.0,-102.0,-309.0,588.0,340.0,-67.0,-1059.0,-407.0
-17.0,-262.0,-107.0,-273.0,570.0,359.0,-77.0,-1056.0,-430.0
-22.0,-257.0,-107.0,-240.0,557.0,377.0,-81.0,-1054.0,-437.0
-15.0,-255.0,-113.0,-210.0,546.0,394.0,-80.0,-1049.0,-451.0
-22.0,-254.0,-110.0,-183.0,536.0,413.0,-81.0,-1028.0,-447.0
-22.0,-250.0,-116.0,-160.0,525.0,428.0,-87.0,-1013.0,-451.0
-24.0,-247.0,-113.0,-141.0,517.0,445.0,-93.0,-1006.0,-449.0
-25.0,-240.0,-109.0,-130.0,512.0,456.0,-95.0,-987.0,-447.0
-25.0,-239.0,-115.0,-122.0,511.0,469.0,-99.0,-968.0,-446.0
-28.0,-236.0,-113.0,-118.0,514.0,475.0,-102.0,-962.0,-449.0
-30.0,-230.0,-109.0,-120.0,526.0,481.0,-106.0,-952.0,-444.0
-29.0,-229.0,-109.0,-126.0,546.0,491.0,-107.0,-944.0,-444.0
-27.0,-231.0,-113.0,-137.0,570.0,497.0,-110.0,-937.0,-439.0
-30.0,-228.0,-106.0,-151.0,594.0,502.0,-114.0,-935.0,-429.0
-32.0,-232.0,-106.0,-168.0,609.0,508.0,-112.0,-949.0,-429.0
-29.0,-232.0,-105.0,-181.0,622.0,515.0,-109.0,-953.0,-419.0
-26.0,-235.0,-102.0,-184.0,633.0,521.0,-113.0,-959.0,-404.0
-28.0,-238.0,-100.0,-175.0,637.0,529.0,-112.0,-970.0,-392.0
-29.0,-241.0,-98.0,-156.0,639.0,538.0,-109.0,-976.0,-399.0
-30.0,-239.0,-103.0,-135.0,638.0,546.0,-117.0,-980.0,-399.0
-30.0,-240.0,-104.0,-116.0,639.0,561.0,-110.0,-982.0,-408.0
-28.0,-240.0,-106.0,-103.0,637.0,577.0,-111.0,-982.0,-407.0
-27.0,-245.0,-102.0,-97.0,635.0,594.0,-116.0,-976.0,-408.0
-32.0,-240.0,-104.0,-95.0,626.0,611.0,-114.0,-986.0,-402.0
-28.0,-240.0,-97.0,-87.0,613.0,623.0,-114.0,-985.0,-385.0
-28.0,-244.0,-93.0,-74.0,594.0,635.0,-115.0,-982.0,-363.0
-30.0,-243.0,-89.0,-50.0,575.0,646.0,-120.0,-982.0,-357.0
-29.0,-247.0,-86.0,-20.0,561.0,656.0,-122.0,-982.0,-355.0
-34.0,-243.0,-90.0,12.0,552.0,661.0,-128.0,-978.0,-354.0
-34.0,-237.0,-89.0,44.0,548.0,667.0,-149.0,-966.0,-356.0
-40.0,-236.0,-90.0,69.0,551.0,676.0,-161.0,-964.0,-365.0
-43.0,-235.0,-88.0,84.0,554.0,690.0,-177.0,-958.0,-364.0
-46.0,-235.0,-87.0,91.0,555.0,703.0,-185.0,-951.0,-360.0
-48.0,-235.0,-85.0,93.0,551.0,717.0,-200.0,-953.0,-362.0
-53.0,-236.0,-94.0,93.0,543.0,726.0,-202.0,-966.0,-353.0
-52.0,-241.0,-88.0,94.0,531.0,730.0,-209.0,-972.0,-356.0
-57.0,-235.0,-81.0,100.0,520.0,733.0,-204.0,-981.0,-345.0
-53.0,-245.0,-87.0,116.0,505.0,731.0,-198.0,-998.0,-348.0
-47.0,-250.0,-83.0,139.0,494.0,728.0,-188.0,-1011.0,-339.0
-46.0,-255.0,-81.0,174.0,489.0,724.0,-178.0,-1026.0,-321.0
-39.0,-257.0,-79.0,220.0,491.0,723.0,-163.0,-1048.0,-317.0
-39.0,-260.0,-80.0,271.0,499.0,720.0,-157.0,-1049.0,-309.0
-41.0,-258.0,-83.0,322.0,509.0,724.0,-156.0,-1063.0,-317.0
-39.0,-259.0,-76.0,367.0,522.0,728.0,-158.0,-1065.0,-306.0
-41.0,-260.0,-78.0,408.0,539.0,736.0,-157.0,-1068.0,-299.0
-34.0,-262.0,-76.0,451.0,558.0,748.0,-159.0,-1066.0,-298.0
-38.0,-265.0,-78.0,500.0,573.0,764.0,-143.0,-1075.0,-303.0
-37.0,-263.0,-84.0,544.0,581.0,779.0,-142.0,-1078.0,-323.0
-40.0,-258.0,-83.0,578.0,583.0,800.0,-152.0,-1067.0,-322.0
-40.0,-260.0,-79.0,601.0,578.0,822.0,-155.0,-1057.0,-321.0
-44.0,-256.0,-76.0,623.0,567.0,848.0,-161.0,-1051.0,-306.0
-44.0,-258.0,-74.0,649.0,556.0,869.0,-173.0,-1050.0,-287.0
-46.0,-258.0,-66.0,678.0,545.0,892.0,-181.0,-1051.0,-275.0
-48.0,-256.0,-72.0,711.0,540.0,912.0,-185.0,-1047.0,-258.0
-48.0,-258.0,-65.0,751.0,547.0,925.0,-192.0,-1041.0,-250.0
-48.0,-254.0,-63.0,790.0,564.0,936.0,-199.0,-1040.0,-247.0
-53.0,-255.0,-59.0,822.0,577.0,948.0,-204.0,-1040.0,-243.0
-51.0,-249.0,-59.0,858.0,583.0,958.0,-214.0,-1040.0,-239.0
-57.0,-255.0,-66.0,889.0,584.0,966.0,-219.0,-1044.0,-242.0
-58.0,-255.0,-62.0,913.0,582.0,974.0,-229.0,-1044.0,-246.0
-57.0,-257.0,-62.0,932.0,584.0,980.0,-226.0,-1047.0,-245.0
-55.0,-254.0,-63.0,950.0,588.0,985.0,-231.0,-1040.0,-241.0
-57.0,-255.0,-63.0,967.0,592.0,990.0,-225.0,-1041.0,-244.0
-57.0,-248.0,-67.0,984.0,592.0,987.0,-234.0,-1013.0,-244.0
-57.0,-245.0,-64.0,1002.0,591.0,987.0,-232.0,-991.0,-244.0
-58.0,-237.0,-66.0,1018.0,588.0,987.0,-222.0,-980.0,-244.0
-57.0,-231.0,-64.0,1031.0,587.0,978.0,-214.0,-961.0,-247.0
-52.0,-231.0,-66.0,1039.0,588.0,962.0,-208.0,-946.0,-249.0
-53.0,-231.0,-71.0,1036.0,586.0,936.0,-197.0,-936.0,-250.0
-55.0,-226.0,-63.0,1025.0,579.0,912.0,-214.0,-924.0,-244.0
-61.0,-223.0,-62.0,1014.0,566.0,890.0,-234.0,-909.0,-249.0
-68.0,-216.0,-62.0,1008.0,544.0,871.0,-264.0,-892.0,-249.0
-72.0,-214.0,-61.0,1011.0,512.0,857.0,-278.0,-876.0,-243.0
-72.0,-211.0,-63.0,1027.0,480.0,840.0,-301.0,-868.0,-252.0
-80.0,-208.0,-64.0,1046.0,453.0,814.0,-321.0,-852.0,-240.0
-87.0,-205.0,-67.0,1061.0,441.0,792.0,-355.0,-852.0,-240.0
-96.0,-205.0,-54.0,1062.0,435.0,775.0,-366.0,-840.0,-240.0
-94.0,-201.0,-62.0,1053.0,421.0,762.0,-384.0,-829.0,-224.0
-96.0,-198.0,-56.0,1040.0,399.0,741.0,-382.0,-808.0,-213.0
-83.0,-195.0,-57.0,1026.0,369.0,714.0,-383.0,-791.0,-222.0
-92.0,-191.0,-56.0,1007.0,340.0,684.0,-375.0,-775.0,-221.0
-98.0,-186.0,-53.0,977.0,316.0,649.0,-383.0,-775.0,-221.0
-93.0,-186.0,-53.0,942.0,303.0,622.0,-376.0,-768.0,-218.0
-89.0,-186.0,-51.0,905.0,299.0,596.0,-360.0,-765.0,-200.0
-88.0,-185.0,-48.0,872.0,289.0,566.0,-340.0,-771.0,-183.0
-80.0,-193.0,-44.0,851.0,274.0,532.0,-332.0,-779.0,-167.0
-84.0,-195.0,-41.0,836.0,260.0,504.0,-332.0,-799.0,-155.0
-79.0,-198.0,-35.0,819.0,252.0,483.0,-323.0,-817.0,-144.0
-73.0,-200.0,-32.0,798.0,245.0,466.0,-301.0,-821.0,-133.0
-70.0,-203.0,-32.0,774.0,238.0,444.0,-286.0,-817.0,-115.0
-67.0,-202.0,-25.0,758.0,231.0,416.0,-273.0,-814.0,-97.0
-68.0,-198.0,-26.0,753.0,222.0,384.0,-266.0,-811.0,-94.0
-69.0,-200.0,-26.0,750.0,206.0,348.0,-266.0,-813.0,-105.0
-67.0,-200.0,-30.0,743.0,181.0,312.0,-280.0,-821.0,-121.0
-71.0,-202.0,-37.0,729.0,153.0,275.0,-301.0,-829.0,-147.0
-79.0,-207.0,-41.0,707.0,130.0,247.0,-315.0,-846.0,-161.0
-81.0,-209.0,-39.0,684.0,122.0,221.0,-332.0,-865.0,-167.0
-83.0,-217.0,-48.0,662.0,129.0,196.0,-346.0,-882.0,-161.0
-79.0,-217.0,-39.0,642.0,151.0,167.0,-337.0,-892.0,-149.0
-79.0,-211.0,-34.0,622.0,177.0,141.0,-325.0,-882.0,-147.0
-79.0,-208.0,-35.0,601.0,209.0,114.0,-332.0,-872.0,-136.0
-77.0,-210.0,-26.0,574.0,239.0,91.0,-321.0,-867.0,-116.0
-83.0,-207.0,-25.0,545.0,262.0,73.0,-334.0,-851.0,-97.0
-82.0,-204.0,-23.0,510.0,274.0,56.0,-332.0,-846.0,-83.0
-79.0,-201.0,-19.0,480.0,274.0,42.0,-329.0,-833.0,-82.0
-77.0,-199.0,-22.0,440.0,266.0,32.0,-321.0,-824.0,-92.0
-79.0,-195.0,-24.0,387.0,252.0,23.0,-318.0,-807.0,-106.0
-77.0,-191.0,-31.0,321.0,234.0,20.0,-318.0,-798.0,-119.0
-73.0,-193.0,-33.0,248.0,216.0,20.0,-314.0,-796.0,-129.0
-75.0,-195.0,-33.0,173.0,197.0,18.0,-305.0,-803.0,-141.0
-72.0,-203.0,-37.0,104.0,186.0,16.0,-315.0,-820.0,-148.0
-80.0,-202.0,-39.0,38.0,185.0,15.0,-316.0,-840.0,-159.0
-74.0,-209.0,-43.0,-29.0,205.0,16.0,-310.0,-866.0,-161.0
-70.0,-216.0,-38.0,-98.0,239.0,16.0,-297.0,-897.0,-161.0
-68.0,-221.0,-39.0,-167.0,285.0,17.0,-286.0,-915.0,-153.0
-67.0,-221.0,-36.0,-230.0,331.0,11.0,-281.0,-913.0,-143.0
-66.0,-224.0,-36.0,-282.0,367.0,2.0,-271.0,-918.0,-140.0
-69.0,-226.0,-35.0,-321.0,388.0,-7.0,-288.0,-922.0,-133.0
-74.0,-224.0,-34.0,-348.0,397.0,-8.0,-302.0,-923.0,-124.0
-84.0,-221.0,-32.0,-367.0,391.0,-2.0,-320.0,-924.0,-125.0
-84.0,-224.0,-26.0,-375.0,382.0,7.0,-338.0,-925.0,-111.0
-91.0,-227.0,-23.0,-367.0,378.0,15.0,-362.0,-924.0,-105.0
-99.0,-226.0,-23.0,-345.0,375.0,20.0,-385.0,-933.0,-94.0
-99.0,-234.0,-22.0,-308.0,372.0,23.0,-401.0,-938.0,-85.0
-102.0,-233.0,-15.0,-259.0,373.0,19.0,-413.0,-933.0,-66.0
-106.0,-232.0,-18.0,-197.0,391.0,11.0,-430.0,-945.0,-68.0
-108.0,-234.0,-16.0,-148.0,419.0,14.0,-443.0,-952.0,-68.0
-109.0,-234.0,-16.0,-117.0,442.0,19.0,-443.0,-955.0,-72.0
-108.0,-235.0,-24.0,-93.0,459.0,27.0,-442.0,-945.0,-79.0
-107.0,-231.0,-22.0,-65.0,464.0,30.0,-444.0,-942.0,-97.0
-111.0,-228.0,-27.0,-32.0,461.0,32.0,-453.0,-943.0,-120.0
-108.0,-231.0,-32.0,6.0,457.0,44.0,-450.0,-932.0,-140.0
-111.0,-230.0,-43.0,48.0,452.0,50.0,-454.0,-922.0,-162.0
-115.0,-223.0,-52.0,77.0,453.0,56.0,-454.0,-904.0,-178.0
-112.0,-214.0,-54.0,87.0,470.0,63.0,-459.0,-884.0,-205.0
-111.0,-207.0,-57.0,79.0,498.0,65.0,-458.0,-861.0,-222.0
-114.0,-207.0,-62.0,56.0,529.0,68.0,-453.0,-842.0,-234.0
-111.0,-209.0,-58.0,29.0,557.0,73.0,-449.0,-848.0,-228.0
-104.0,-213.0,-60.0,8.0,591.0,80.0,-437.0,-867.0,-215.0
-103.0,-218.0,-54.0,-7.0,636.0,89.0,-410.0,-899.0,-207.0
-93.0,-224.0,-46.0,-11.0,696.0,95.0,-395.0,-922.0,-194.0
-93.0,-232.0,-49.0,-4.0,763.0,94.0,-387.0,-940.0,-182.0
-94.0,-234.0,-47.0,12.0,827.0,98.0,-387.0,-959.0,-186.0
-97.0,-237.0,-50.0,29.0,881.0,104.0,-387.0,-961.0,-192.0
-95.0,-239.0,-50.0,39.0,936.0,114.0,-401.0,-970.0,-209.0
-100.0,-234.0,-55.0,35.0,994.0,129.0,-409.0,-960.0,-217.0
-104.0,-234.0,-57.0,25.0,1052.0,154.0,-415.0,-952.0,-234.0
-108.0,-226.0,-62.0,11.0,1101.0,181.0,-441.0,-937.0,-239.0
-113.0,-223.0,-65.0,2.0,1130.0,207.0,-446.0,-924.0,-251.0
-111.0,-219.0,-70.0,3.0,1147.0,243.0,-455.0,-895.0,-264.0
-116.0,-210.0,-68.0,7.0,1157.0,278.0,-462.0,-869.0,-282.0
-119.0,-205.0,-76.0,16.0,1167.0,312.0,-477.0,-833.0,-293.0
-122.0,-199.0,-74.0,28.0,1177.0,348.0,-486.0,-807.0,-313.0
-124.0,-190.0,-82.0,33.0,1189.0,392.0,-494.0,-795.0,-327.0
-119.0,-190.0,-78.0,28.0,1209.0,429.0,-485.0,-773.0,-322.0
-121.0,-184.0,-76.0,14.0,1239.0,464.0,-477.0,-763.0,-324.0
-116.0,-187.0,-80.0,-13.0,1277.0,498.0,-473.0,-769.0,-326.0
-118.0,-187.0,-83.0,-49.0,1298.0,529.0,-477.0,-773.0,-335.0
-121.0,-191.0,-89.0,-97.0,1299.0,556.0,-480.0,-785.0,-358.0
-126.0,-196.0,-93.0,-134.0,1281.0,579.0,-494.0,-806.0,-378.0
-130.0,-204.0,-96.0,-163.0,1252.0,602.0,-517.0,-813.0,-390.0
-139.0,-203.0,-100.0,-186.0,1217.0,629.0,-537.0,-830.0,-383.0
-142.0,-211.0,-90.0,-202.0,1186.0,664.0,-576.0,-848.0,-369.0
-148.0,-211.0,-86.0,-209.0,1154.0,707.0,-601.0,-858.0,-340.0
-157.0,-208.0,-75.0,-205.0,1118.0,761.0,-633.0,-860.0,-320.0
-160.0,-209.0,-80.0,-194.0,1077.0,822.0,-649.0,-845.0,-320.0
-164.0,-204.0,-86.0,-185.0,1030.0,893.0,-648.0,-830.0,-336.0
-160.0,-194.0,-88.0,-185.0,980.0,972.0,-634.0,-803.0,-360.0
-147.0,-191.0,-95.0,-201.0,929.0,1052.0,-594.0,-781.0,-383.0
-133.0,-186.0,-100.0,-232.0,881.0,1128.0,-534.0,-747.0,-408.0
-117.0,-176.0,-93.0,-271.0,843.0,1198.0,-471.0,-729.0,-406.0
-108.0,-177.0,-98.0,-300.0,814.0,1259.0,-427.0,-715.0,-398.0
-93.0,-181.0,-91.0,-313.0,799.0,1309.0,-377.0,-721.0,-379.0
-89.0,-178.0,-85.0,-306.0,804.0,1344.0,-352.0,-740.0,-348.0
-75.0,-190.0,-75.0,-285.0,834.0,1366.0,-312.0,-753.0,-312.0
-66.0,-192.0,-70.0,-253.0,886.0,1370.0,-280.0,-780.0,-271.0
-59.0,-197.0,-64.0,-219.0,947.0,1361.0,-247.0,-798.0,-256.0
-53.0,-202.0,-52.0,-190.0,1003.0,1335.0,-225.0,-816.0,-233.0
-51.0,-205.0,-55.0,-170.0,1041.0,1294.0,-215.0,-823.0,-226.0
-55.0,-204.0,-60.0,-162.0,1064.0,1246.0,-220.0,-841.0,-222.0
-53.0,-208.0,-59.0,-165.0,1075.0,1200.0,-221.0,-848.0,-238.0
-60.0,-209.0,-59.0,-175.0,1082.0,1156.0,-237.0,-853.0,-238.0
-65.0,-210.0,-60.0,-181.0,1091.0,1114.0,-255.0,-862.0,-231.0
-75.0,-213.0,-59.0,-176.0,1102.0,1075.0,-291.0,-865.0,-238.0
-86.0,-209.0,-59.0,-157.0,1115.0,1034.0,-342.0,-853.0,-242.0
-90.0,-207.0,-65.0,-136.0,1128.0,989.0,-366.0,-844.0,-267.0
-99.0,-204.0,-75.0,-123.0,1144.0,942.0,-404.0,-828.0,-290.0
-102.0,-200.0,-79.0,-128.0,1160.0,894.0,-416.0,-806.0,-324.0
-107.0,-190.0,-90.0,-151.0,1173.0,851.0,-433.0,-792.0,-362.0
-110.0,-186.0,-101.0,-186.0,1179.0,816.0,-434.0,-771.0,-393.0
-110.0,-182.0,-109.0,-221.0,1177.0,791.0,-426.0,-745.0,-432.0
-109.0,-177.0,-115.0,-247.0,1169.0,776.0,-421.0,-730.0,-477.0
-106.0,-171.0,-130.0,-267.0,1156.0,768.0,-414.0,-710.0,-516.0
-102.0,-170.0,-142.0,-279.0,1135.0,768.0,-406.0,-684.0,-566.0
-105.0,-163.0,-143.0,-290.0,1104.0,768.0,-400.0,-660.0,-596.0
-109.0,-158.0,-142.0,-301.0,1073.0,774.0,-407.0,-653.0,-605.0
-110.0,-160.0,-140.0,-300.0,1051.0,785.0,-445.0,-656.0,-575.0
-120.0,-170.0,-120.0,-275.0,1042.0,811.0,-478.0,-683.0,-509.0
-129.0,-184.0,-100.0,-224.0,1039.0,854.0,-511.0,-727.0,-445.0
-132.0,-195.0,-91.0,-148.0,1029.0,902.0,-534.0,-783.0,-367.0
-139.0,-212.0,-73.0,-48.0,1010.0,943.0,-549.0,-835.0,-301.0
-142.0,-223.0,-65.0,73.0,992.0,973.0,-575.0,-889.0,-266.0
-147.0,-231.0,-68.0,194.0,996.0,1001.0,-598.0,-936.0,-275.0
-148.0,-235.0,-74.0,293.0,1019.0,1023.0,-598.0,-951.0,-281.0
-148.0,-234.0,-79.0,367.0,1056.0,1032.0,-599.0,-954.0,-309.0
-146.0,-229.0,-79.0,411.0,1098.0,1026.0,-589.0,-937.0,-324.0
-140.0,-220.0,-85.0,432.0,1130.0,1002.0,-574.0,-911.0,-355.0
-138.0,-206.0,-96.0,433.0,1140.0,964.0,-539.0,-854.0,-382.0
-129.0,-196.0,-101.0,406.0,1121.0,915.0,-506.0,-793.0,-403.0
-126.0,-177.0,-112.0,360.0,1074.0,862.0,-480.0,-725.0,-428.0
-115.0,-159.0,-108.0,302.0,1022.0,795.0,-453.0,-672.0,-441.0
-112.0,-154.0,-109.0,242.0,976.0,741.0,-441.0,-638.0,-456.0
-111.0,-147.0,-116.0,183.0,943.0,692.0,-427.0,-614.0,-467.0
-108.0,-153.0,-121.0,122.0,920.0,650.0,-441.0,-628.0,-476.0
-114.0,-151.0,-116.0,65.0,908.0,606.0,-454.0,-632.0,-458.0
-122.0,-164.0,-108.0,33.0,904.0,567.0,-475.0,-666.0,-444.0
-125.0,-176.0,-110.0,16.0,900.0,539.0,-499.0,-706.0,-430.0
-129.0,-181.0,-103.0,10.0,888.0,512.0,-508.0,-738.0,-417.0
-132.0,-192.0,-102.0,18.0,864.0,482.0,-518.0,-775.0,-404.0
-132.0,-200.0,-100.0,39.0,829.0,445.0,-523.0,-799.0,-393.0
-139.0,-204.0,-102.0,72.0,796.0,408.0,-540.0,-830.0,-396.0
-140.0,-204.0,-103.0,109.0,768.0,368.0,-554.0,-834.0,-396.0
-141.0,-206.0,-104.0,144.0,750.0,335.0,-573.0,-837.0,-412.0
-146.0,-201.0,-107.0,171.0,738.0,311.0,-585.0,-818.0,-425.0
-152.0,-191.0,-111.0,188.0,728.0,291.0,-604.0,-784.0,-449.0
-155.0,-190.0,-116.0,196.0,707.0,285.0,-625.0,-761.0,-476.0
-159.0,-178.0,-119.0,198.0,677.0,290.0,-632.0,-735.0,-481.0
-156.0,-177.0,-120.0,198.0,636.0,306.0,-624.0,-711.0,-490.0
-157.0,-168.0,-123.0,198.0,587.0,330.0,-609.0,-691.0,-491.0
-152.0,-169.0,-121.0,199.0,533.0,357.0,-601.0,-681.0,-489.0
-150.0,-165.0,-117.0,206.0,481.0,379.0,-586.0,-683.0,-479.0
-144.0,-169.0,-115.0,220.0,430.0,394.0,-579.0,-680.0,-468.0
-144.0,-168.0,-115.0,238.0,386.0,402.0,-568.0,-684.0,-464.0
-140.0,-173.0,-113.0,259.0,353.0,405.0,-573.0,-695.0,-456.0
-134.0,-174.0,-113.0,282.0,335.0,400.0,-556.0,-708.0,-454.0
-136.0,-177.0,-112.0,302.0,330.0,378.0,-560.0,-720.0,-448.0
-133.0,-181.0,-115.0,311.0,333.0,350.0,-538.0,-728.0,-453.0
-133.0,-180.0,-114.0,313.0,340.0,321.0,-528.0,-734.0,-458.0
-127.0,-180.0,-114.0,312.0,349.0,283.0,-502.0,-738.0,-456.0
-120.0,-183.0,-114.0,308.0,358.0,234.0,-484.0,-752.0,-464.0
-118.0,-184.0,-116.0,295.0,365.0,178.0,-466.0,-754.0,-467.0
-110.0,-183.0,-117.0,276.0,371.0,118.0,-444.0,-744.0,-467.0
-117.0,-181.0,-118.0,262.0,377.0,47.0,-440.0,-737.0,-489.0
-119.0,-184.0,-125.0,244.0,383.0,-4.0,-467.0,-741.0,-493.0
-123.0,-180.0,-124.0,234.0,388.0,-31.0,-474.0,-745.0,-509.0
-121.0,-179.0,-122.0,226.0,385.0,-50.0,-485.0,-736.0,-504.0
-122.0,-181.0,-121.0,239.0,378.0,-60.0,-487.0,-726.0,-489.0
-127.0,-181.0,-119.0,276.0,370.0,-65.0,-492.0,-732.0,-474.0
-130.0,-180.0,-112.0,323.0,361.0,-62.0,-510.0,-723.0,-455.0
-132.0,-180.0,-107.0,372.0,344.0,-53.0,-524.0,-723.0,-438.0
-135.0,-177.0,-109.0,415.0,324.0,-40.0,-544.0,-722.0,-432.0
-140.0,-175.0,-103.0,450.0,298.0,-21.0,-548.0,-721.0,-408.0
-140.0,-179.0,-99.0,473.0,268.0,-3.0,-569.0,-727.0,-402.0
-138.0,-180.0,-88.0,484.0,235.0,13.0,-564.0,-729.0,-381.0
-140.0,-181.0,-91.0,483.0,206.0,26.0,-562.0,-743.0,-368.0
-133.0,-187.0,-84.0,475.0,179.0,29.0,-546.0,-753.0,-349.0
-137.0,-184.0,-87.0,464.0,156.0,30.0,-547.0,-758.0,-336.0
-135.0,-186.0,-93.0,453.0,128.0,27.0,-541.0,-760.0,-360.0
-136.0,-182.0,-102.0,442.0,88.0,21.0,-535.0,-741.0,-388.0
-138.0,-179.0,-112.0,427.0,41.0,12.0,-539.0,-727.0,-446.0
-137.0,-177.0,-126.0,409.0,-6.0,5.0,-543.0,-718.0,-499.0
-141.0,-176.0,-129.0,392.0,-45.0,-4.0,-557.0,-715.0,-530.0
-143.0,-185.0,-127.0,385.0,-62.0,-17.0,-575.0,-741.0,-525.0
-148.0,-189.0,-126.0,401.0,-51.0,-36.0,-587.0,-786.0,-504.0
-145.0,-200.0,-109.0,448.0,-12.0,-63.0,-596.0,-825.0,-444.0
-146.0,-216.0,-96.0,527.0,51.0,-98.0,-601.0,-878.0,-382.0
-146.0,-228.0,-76.0,631.0,128.0,-160.0,-595.0,-927.0,-310.0
-135.0,-240.0,-63.0,747.0,198.0,-211.0,-566.0,-961.0,-250.0
-129.0,-241.0,-59.0,861.0,237.0,-269.0,-519.0,-981.0,-235.0
-129.0,-241.0,-62.0,963.0,226.0,-333.0,-487.0,-982.0,-236.0
-117.0,-236.0,-73.0,1030.0,175.0,-390.0,-445.0,-975.0,-299.0
-111.0,-233.0,-95.0,1053.0,107.0,-443.0,-437.0,-956.0,-370.0
-108.0,-228.0,-118.0,1021.0,50.0,-487.0,-426.0,-951.0,-448.0
-109.0,-229.0,-127.0,961.0,17.0,-518.0,-430.0,-928.0,-491.0
-113.0,-220.0,-132.0,902.0,12.0,-541.0,-451.0,-909.0,-515.0
-122.0,-213.0,-127.0,862.0,28.0,-558.0,-477.0,-873.0,-524.0
-127.0,-208.0,-124.0,849.0,47.0,-567.0,-505.0,-850.0,-506.0
-130.0,-202.0,-120.0,859.0,65.0,-565.0,-522.0,-830.0,-484.0
-130.0,-205.0,-114.0,881.0,80.0,-556.0,-520.0,-825.0,-448.0
-131.0,-208.0,-101.0,909.0,102.0,-553.0,-520.0,-844.0,-419.0
-127.0,-217.0,-94.0,936.0,133.0,-546.0,-519.0,-866.0,-387.0
-125.0,-225.0,-87.0,963.0,170.0,-540.0,-505.0,-903.0,-345.0
-124.0,-226.0,-86.0,989.0,206.0,-540.0,-493.0,-939.0,-342.0
-119.0,-238.0,-88.0,1008.0,240.0,-546.0,-472.0,-968.0,-338.0
-117.0,-243.0,-84.0,1020.0,270.0,-558.0,-471.0,-990.0,-341.0
-121.0,-249.0,-86.0,1022.0,293.0,-584.0,-478.0,-1006.0,-343.0
-118.0,-249.0,-91.0,1021.0,295.0,-609.0,-488.0,-1005.0,-348.0
-126.0,-247.0,-85.0,1021.0,269.0,-628.0,-501.0,-995.0,-343.0
-130.0,-240.0,-87.0,1032.0,218.0,-656.0,-509.0,-981.0,-350.0
-130.0,-236.0,-90.0,1043.0,155.0,-677.0,-513.0,-969.0,-357.0
-123.0,-234.0,-91.0,1040.0,90.0,-688.0,-483.0,-959.0,-366.0
-113.0,-232.0,-92.0,1023.0,36.0,-701.0,-456.0,-951.0,-363.0
-109.0,-234.0,-90.0,1004.0,-2.0,-721.0,-442.0,-941.0,-367.0
-102.0,-231.0,-87.0,991.0,-37.0,-735.0,-402.0,-938.0,-373.0
-91.0,-229.0,-92.0,993.0,-74.0,-751.0,-365.0,-944.0,-371.0
-88.0,-230.0,-94.0,1005.0,-106.0,-763.0,-338.0,-956.0,-369.0
-68.0,-245.0,-89.0,1019.0,-129.0,-777.0,-302.0,-973.0,-357.0
-66.0,-245.0,-83.0,1029.0,-138.0,-792.0,-270.0,-989.0,-338.0
-63.0,-247.0,-80.0,1037.0,-131.0,-810.0,-255.0,-1004.0,-320.0
-62.0,-248.0,-74.0,1040.0,-120.0,-830.0,-237.0,-1010.0,-311.0
-62.0,-248.0,-76.0,1035.0,-114.0,-848.0,-254.0,-1007.0,-298.0
-62.0,-249.0,-76.0,1025.0,-115.0,-862.0,-247.0,-998.0,-296.0
-65.0,-244.0,-73.0,1011.0,-111.0,-874.0,-261.0,-999.0,-297.0
-66.0,-245.0,-72.0,997.0,-102.0,-885.0,-256.0,-983.0,-294.0
-74.0,-232.0,-77.0,991.0,-90.0,-896.0,-295.0,-965.0,-299.0
-78.0,-234.0,-76.0,995.0,-97.0,-887.0,-308.0,-939.0,-293.0
-81.0,-227.0,-70.0,1010.0,-127.0,-865.0,-306.0,-926.0,-265.0
-72.0,-230.0,-59.0,1044.0,-164.0,-843.0,-298.0,-926.0,-229.0
-78.0,-229.0,-52.0,1089.0,-202.0,-819.0,-309.0,-934.0,-205.0
-76.0,-229.0,-47.0,1136.0,-234.0,-801.0,-314.0,-932.0,-187.0
-74.0,-231.0,-47.0,1175.0,-258.0,-792.0,-293.0,-937.0,-177.0
-72.0,-229.0,-42.0,1199.0,-270.0,-794.0,-294.0,-936.0,-164.0
-66.0,-230.0,-42.0,1204.0,-265.0,-798.0,-273.0,-948.0,-167.0
-61.0,-232.0,-44.0,1188.0,-244.0,-807.0,-275.0,-943.0,-167.0
-66.0,-231.0,-45.0,1153.0,-224.0,-810.0,-259.0,-948.0,-169.0
-66.0,-231.0,-43.0,1105.0,-215.0,-809.0,-261.0,-949.0,-170.0
-73.0,-232.0,-46.0,1051.0,-216.0,-796.0,-284.0,-956.0,-170.0
-79.0,-236.0,-45.0,993.0,-227.0,-781.0,-298.0,-970.0,-165.0
-81.0,-245.0,-39.0,944.0,-245.0,-758.0,-316.0,-998.0,-161.0
-83.0,-248.0,-43.0,908.0,-268.0,-744.0,-322.0,-1021.0,-163.0
-82.0,-255.0,-41.0,895.0,-289.0,-737.0,-336.0,-1049.0,-160.0
-84.0,-261.0,-42.0,907.0,-301.0,-742.0,-336.0,-1057.0,-161.0
-90.0,-264.0,-40.0,938.0,-311.0,-749.0,-367.0,-1085.0,-149.0
-86.0,-268.0,-37.0,974.0,-319.0,-750.0,-360.0,-1101.0,-140.0
-86.0,-268.0,-34.0,1011.0,-319.0,-751.0,-352.0,-1103.0,-135.0
-81.0,-270.0,-33.0,1052.0,-312.0,-756.0,-349.0,-1101.0,-123.0
-84.0,-271.0,-28.0,1079.0,-304.0,-757.0,-340.0,-1098.0,-105.0
-86.0,-264.0,-28.0,1094.0,-305.0,-753.0,-349.0,-1082.0,-102.0
-77.0,-264.0,-18.0,1100.0,-308.0,-745.0,-325.0,-1072.0,-74.0
-82.0,-268.0,-22.0,1111.0,-304.0,-738.0,-324.0,-1070.0,-67.0
-78.0,-259.0,-16.0,1119.0,-297.0,-731.0,-331.0,-1067.0,-60.0
-77.0,-261.0,-14.0,1128.0,-289.0,-724.0,-320.0,-1071.0,-40.0
-82.0,-264.0,-11.0,1147.0,-280.0,-728.0,-335.0,-1072.0,-37.0
-78.0,-264.0,-5.0,1173.0,-276.0,-738.0,-329.0,-1080.0,-24.0
-87.0,-257.0,-7.0,1202.0,-277.0,-754.0,-345.0,-1065.0,-18.0
-85.0,-257.0,-1.0,1224.0,-284.0,-765.0,-341.0,-1057.0,4.0
-85.0,-252.0,2.0,1242.0,-298.0,-777.0,-333.0,-1040.0,11.0
-77.0,-249.0,4.0,1244.0,-320.0,-784.0,-325.0,-1011.0,12.0
-75.0,-245.0,4.0,1231.0,-348.0,-786.0,-319.0,-988.0,20.0
-70.0,-233.0,2.0,1203.0,-376.0,-782.0,-297.0,-967.0,20.0
-66.0,-233.0,2.0,1160.0,-402.0,-779.0,-286.0,-954.0,20.0
-62.0,-235.0,2.0,1105.0,-421.0,-770.0,-257.0,-958.0,22.0
-57.0,-231.0,7.0,1040.0,-431.0,-765.0,-223.0,-954.0,29.0
-52.0,-233.0,10.0,978.0,-434.0,-759.0,-202.0,-963.0,42.0
-50.0,-235.0,13.0,930.0,-437.0,-759.0,-199.0,-978.0,62.0
-51.0,-243.0,19.0,896.0,-445.0,-759.0,-192.0,-989.0,82.0
-52.0,-248.0,28.0,880.0,-461.0,-761.0,-205.0,-1005.0,99.0
-58.0,-250.0,31.0,878.0,-483.0,-757.0,-225.0,-1011.0,122.0
-60.0,-251.0,34.0,882.0,-507.0,-745.0,-243.0,-1027.0,142.0
-59.0,-251.0,32.0,879.0,-535.0,-728.0,-247.0,-1022.0,145.0
-60.0,-246.0,36.0,868.0,-567.0,-707.0,-253.0,-1025.0,150.0
-60.0,-249.0,41.0,848.0,-599.0,-684.0,-247.0,-1014.0,150.0
-57.0,-248.0,40.0,826.0,-627.0,-664.0,-239.0,-1007.0,166.0
-50.0,-247.0,44.0,814.0,-648.0,-648.0,-205.0,-1010.0,169.0
-45.0,-248.0,47.0,814.0,-661.0,-645.0,-182.0,-1017.0,184.0
-38.0,-250.0,47.0,823.0,-663.0,-647.0,-166.0,-1021.0,199.0
-35.0,-249.0,49.0,841.0,-659.0,-655.0,-150.0,-1011.0,207.0
-29.0,-251.0,48.0,859.0,-657.0,-661.0,-123.0,-1016.0,212.0
-28.0,-244.0,57.0,874.0,-659.0,-673.0,-117.0,-998.0,222.0
-23.0,-241.0,56.0,887.0,-671.0,-682.0,-105.0,-990.0,230.0
-26.0,-239.0,56.0,897.0,-691.0,-691.0,-110.0,-982.0,240.0
-34.0,-235.0,63.0,906.0,-712.0,-688.0,-123.0,-963.0,251.0
-37.0,-234.0,62.0,904.0,-732.0,-683.0,-151.0,-965.0,250.0
-40.0,-234.0,59.0,892.0,-745.0,-674.0,-160.0,-966.0,249.0
-34.0,-238.0,61.0,865.0,-752.0,-665.0,-163.0,-969.0,242.0
-37.0,-234.0,60.0,831.0,-752.0,-661.0,-168.0,-964.0,246.0
-35.0,-236.0,59.0,794.0,-750.0,-660.0,-160.0,-969.0,248.0
-32.0,-239.0,62.0,767.0,-749.0,-664.0,-139.0,-975.0,256.0
-36.0,-240.0,66.0,753.0,-755.0,-672.0,-141.0,-984.0,268.0
-32.0,-246.0,64.0,752.0,-764.0,-676.0,-139.0,-991.0,277.0
-31.0,-241.0,65.0,760.0,-775.0,-676.0,-132.0,-995.0,273.0
-32.0,-240.0,65.0,768.0,-786.0,-678.0,-134.0,-991.0,269.0
-29.0,-241.0,61.0,777.0,-797.0,-681.0,-121.0,-979.0,256.0
-25.0,-234.0,59.0,782.0,-806.0,-681.0,-105.0,-965.0,242.0
-20.0,-231.0,56.0,783.0,-815.0,-685.0,-94.0,-954.0,236.0
-14.0,-227.0,55.0,775.0,-820.0,-698.0,-79.0,-943.0,226.0
-17.0,-229.0,55.0,763.0,-821.0,-711.0,-83.0,-937.0,215.0
-7.0,-231.0,51.0,743.0,-819.0,-720.0,-64.0,-935.0,212.0
-1.0,-226.0,44.0,718.0,-812.0,-733.0,-20.0,-933.0,206.0
2.0,-225.0,48.0,695.0,-806.0,-756.0,-13.0,-925.0,219.0
6.0,-227.0,54.0,682.0,-794.0,-778.0,1.0,-932.0,212.0
7.0,-229.0,54.0,682.0,-774.0,-801.0,6.0,-937.0,238.0
5.0,-230.0,54.0,693.0,-755.0,-809.0,23.0,-950.0,240.0
7.0,-230.0,57.0,707.0,-735.0,-808.0,11.0,-950.0,240.0
7.0,-237.0,58.0,722.0,-710.0,-797.0,16.0,-962.0,242.0
9.0,-235.0,56.0,732.0,-677.0,-787.0,26.0,-971.0,232.0
10.0,-236.0,56.0,742.0,-637.0,-789.0,21.0,-965.0,232.0
11.0,-237.0,56.0,747.0,-580.0,-789.0,20.0,-976.0,233.0
12.0,-238.0,55.0,747.0,-516.0,-787.0,31.0,-976.0,243.0
15.0,-236.0,55.0,739.0,-452.0,-786.0,26.0,-967.0,242.0
17.0,-235.0,64.0,736.0,-392.0,-779.0,36.0,-957.0,254.0
18.0,-237.0,64.0,741.0,-344.0,-771.0,36.0,-955.0,264.0
14.0,-235.0,66.0,750.0,-311.0,-762.0,29.0,-950.0,275.0
8.0,-229.0,71.0,753.0,-286.0,-756.0,14.0,-949.0,283.0
1.0,-226.0,62.0,754.0,-269.0,-743.0,18.0,-950.0,274.0
4.0,-230.0,70.0,743.0,-253.0,-730.0,8.0,-939.0,281.0
0.0,-227.0,67.0,727.0,-239.0,-723.0,-3.0,-935.0,285.0
2.0,-228.0,62.0,711.0,-222.0,-717.0,-7.0,-934.0,274.0
1.0,-225.0,69.0,696.0,-207.0,-710.0,-26.0,-927.0,278.0
4.0,-227.0,61.0,682.0,-191.0,-701.0,-2.0,-925.0,268.0
3.0,-223.0,60.0,665.0,-174.0,-705.0,-4.0,-922.0,268.0
5.0,-223.0,57.0,651.0,-158.0,-704.0,6.0,-920.0,267.0
11.0,-223.0,61.0,642.0,-149.0,-704.0,22.0,-917.0,264.0
15.0,-220.0,61.0,639.0,-147.0,-707.0,44.0,-920.0,267.0
18.0,-223.0,64.0,640.0,-151.0,-712.0,64.0,-932.0,267.0
22.0,-228.0,71.0,644.0,-156.0,-717.0,79.0,-925.0,283.0
26.0,-228.0,71.0,655.0,-162.0,-721.0,84.0,-937.0,289.0
29.0,-231.0,69.0,670.0,-167.0,-725.0,95.0,-945.0,295.0
31.0,-233.0,71.0,686.0,-172.0,-724.0,115.0,-958.0,290.0
32.0,-237.0,73.0,701.0,-175.0,-730.0,112.0,-962.0,287.0
38.0,-241.0,66.0,714.0,-176.0,-732.0,128.0,-978.0,279.0
44.0,-240.0,69.0,721.0,-174.0,-728.0,149.0,-976.0,278.0
42.0,-235.0,69.0,726.0,-171.0,-729.0,155.0,-980.0,285.0
49.0,-235.0,64.0,729.0,-166.0,-731.0,168.0,-975.0,286.0
48.0,-236.0,68.0,734.0,-158.0,-731.0,168.0,-964.0,294.0
50.0,-237.0,72.0,746.0,-146.0,-727.0,175.0,-954.0,294.0
52.0,-233.0,71.0,750.0,-133.0,-722.0,179.0,-951.0,299.0
53.0,-226.0,73.0,747.0,-119.0,-717.0,179.0,-944.0,306.0
57.0,-227.0,72.0,740.0,-103.0,-706.0,187.0,-935.0,300.0
57.0,-221.0,75.0,724.0,-91.0,-691.0,205.0,-928.0,314.0
52.0,-222.0,78.0,701.0,-85.0,-676.0,180.0,-907.0,331.0
54.0,-215.0,77.0,684.0,-81.0,-654.0,190.0,-894.0,327.0
53.0,-211.0,73.0,662.0,-77.0,-633.0,196.0,-891.0,323.0
52.0,-209.0,76.0,629.0,-74.0,-616.0,183.0,-871.0,323.0
55.0,-206.0,78.0,582.0,-66.0,-592.0,188.0,-863.0,328.0
56.0,-208.0,85.0,530.0,-57.0,-579.0,197.0,-859.0,339.0
56.0,-212.0,83.0,478.0,-54.0,-570.0,201.0,-862.0,349.0
58.0,-208.0,92.0,424.0,-52.0,-566.0,205.0,-870.0,363.0
59.0,-207.0,88.0,364.0,-49.0,-556.0,204.0,-867.0,372.0
62.0,-208.0,90.0,300.0,-40.0,-555.0,209.0,-868.0,371.0
62.0,-207.0,85.0,232.0,-19.0,-555.0,218.0,-863.0,361.0
72.0,-208.0,84.0,147.0,11.0,-553.0,261.0,-865.0,347.0
69.0,-208.0,80.0,65.0,49.0,-559.0,252.0,-853.0,349.0
69.0,-208.0,91.0,-7.0,86.0,-563.0,263.0,-865.0,369.0
70.0,-217.0,102.0,-53.0,98.0,-571.0,250.0,-873.0,407.0
71.0,-215.0,106.0,-68.0,81.0,-573.0,261.0,-894.0,428.0
75.0,-226.0,114.0,-40.0,41.0,-570.0,267.0,-904.0,467.0
72.0,-227.0,118.0,30.0,-15.0,-567.0,266.0,-922.0,501.0
76.0,-231.0,123.0,133.0,-77.0,-557.0,282.0,-939.0,512.0
77.0,-233.0,128.0,246.0,-129.0,-549.0,295.0,-938.0,522.0
77.0,-234.0,123.0,353.0,-170.0,-542.0,279.0,-939.0,518.0
72.0,-226.0,124.0,434.0,-198.0,-530.0,270.0,-931.0,511.0
68.0,-223.0,119.0,477.0,-215.0,-521.0,254.0,-925.0,492.0
64.0,-221.0,117.0,486.0,-218.0,-516.0,239.0,-911.0,479.0
66.0,-217.0,108.0,473.0,-207.0,-506.0,215.0,-908.0,463.0
56.0,-214.0,106.0,449.0,-190.0,-500.0,182.0,-896.0,431.0
52.0,-213.0,98.0,415.0,-167.0,-491.0,179.0,-890.0,419.0
51.0,-214.0,98.0,379.0,-144.0,-485.0,157.0,-867.0,400.0
44.0,-203.0,98.0,344.0,-116.0,-472.0,139.0,-860.0,396.0
37.0,-206.0,101.0,306.0,-82.0,-448.0,126.0,-849.0,414.0
50.0,-206.0,93.0,279.0,-47.0,-424.0,153.0,-847.0,386.0
53.0,-209.0,88.0,256.0,-14.0,-415.0,177.0,-854.0,364.0
56.0,-206.0,90.0,242.0,11.0,-406.0,207.0,-848.0,368.0
60.0,-209.0,94.0,232.0,13.0,-392.0,204.0,-851.0,384.0
63.0,-214.0,97.0,234.0,-3.0,-379.0,228.0,-871.0,407.0
60.0,-218.0,106.0,254.0,-23.0,-372.0,223.0,-884.0,434.0
64.0,-215.0,107.0,291.0,-41.0,-347.0,238.0,-892.0,449.0
66.0,-214.0,110.0,327.0,-60.0,-327.0,258.0,-889.0,446.0
70.0,-215.0,107.0,359.0,-79.0,-314.0,254.0,-887.0,438.0
71.0,-208.0,99.0,379.0,-93.0,-297.0,260.0,-873.0,431.0
71.0,-211.0,97.0,388.0,-97.0,-287.0,254.0,-865.0,408.0
66.0,-209.0,91.0,382.0,-86.0,-278.0,257.0,-858.0,385.0
67.0,-207.0,86.0,359.0,-67.0,-283.0,252.0,-853.0,360.0
66.0,-206.0,83.0,316.0,-37.0,-280.0,237.0,-855.0,350.0
59.0,-206.0,86.0,262.0,-7.0,-269.0,202.0,-853.0,354.0
56.0,-209.0,90.0,208.0,17.0,-244.0,197.0,-866.0,371.0
48.0,-212.0,100.0,167.0,32.0,-222.0,166.0,-870.0,390.0
37.0,-216.0,98.0,139.0,39.0,-198.0,148.0,-896.0,407.0
47.0,-219.0,99.0,120.0,34.0,-173.0,166.0,-909.0,412.0
45.0,-224.0,98.0,114.0,20.0,-158.0,150.0,-919.0,424.0
50.0,-228.0,93.0,119.0,4.0,-147.0,182.0,-932.0,422.0
54.0,-232.0,99.0,128.0,-19.0,-148.0,178.0,-939.0,417.0
56.0,-234.0,99.0,141.0,-43.0,-152.0,184.0,-953.0,409.0
56.0,-233.0,100.0,160.0,-74.0,-156.0,194.0,-958.0,411.0
57.0,-236.0,102.0,182.0,-104.0,-151.0,205.0,-960.0,416.0
59.0,-233.0,102.0,202.0,-134.0,-143.0,207.0,-961.0,412.0
68.0,-231.0,99.0,211.0,-158.0,-134.0,239.0,-955.0,410.0
69.0,-233.0,103.0,206.0,-174.0,-129.0,248.0,-947.0,408.0
66.0,-227.0,92.0,199.0,-181.0,-123.0,257.0,-940.0,388.0
72.0,-226.0,92.0,186.0,-184.0,-114.0,261.0,-928.0,393.0
72.0,-222.0,91.0,179.0,-186.0,-102.0,270.0,-923.0,386.0
76.0,-224.0,92.0,189.0,-179.0,-84.0,271.0,-918.0,386.0
74.0,-220.0,88.0,208.0,-170.0,-68.0,270.0,-902.0,385.0
76.0,-216.0,104.0,230.0,-165.0,-52.0,266.0,-895.0,405.0
71.0,-211.0,103.0,258.0,-160.0,-38.0,252.0,-861.0,419.0
69.0,-206.0,107.0,284.0,-162.0,-22.0,261.0,-841.0,425.0
71.0,-204.0,102.0,300.0,-167.0,-3.0,260.0,-830.0,426.0
72.0,-199.0,103.0,310.0,-177.0,6.0,268.0,-824.0,435.0
72.0,-203.0,104.0,314.0,-192.0,12.0,264.0,-829.0,438.0
71.0,-205.0,102.0,320.0,-207.0,12.0,258.0,-837.0,427.0
69.0,-209.0,104.0,326.0,-221.0,14.0,252.0,-849.0,434.0
65.0,-210.0,110.0,343.0,-234.0,7.0,248.0,-863.0,441.0
67.0,-214.0,106.0,367.0,-237.0,1.0,245.0,-887.0,454.0
67.0,-215.0,116.0,401.0,-228.0,-5.0,238.0,-885.0,457.0
69.0,-219.0,112.0,438.0,-213.0,-13.0,246.0,-891.0,459.0
66.0,-216.0,113.0,474.0,-195.0,-23.0,239.0,-887.0,459.0
64.0,-211.0,110.0,509.0,-174.0,-27.0,230.0,-861.0,453.0
69.0,-210.0,109.0,538.0,-161.0,-21.0,257.0,-858.0,451.0
71.0,-203.0,105.0,559.0,-154.0,-23.0,258.0,-833.0,447.0
80.0,-201.0,102.0,567.0,-153.0,-23.0,282.0,-821.0,434.0
83.0,-195.0,107.0,568.0,-153.0,-24.0,303.0,-806.0,430.0
83.0,-191.0,108.0,565.0,-155.0,-29.0,302.0,-791.0,449.0
84.0,-186.0,105.0,557.0,-164.0,-31.0,310.0,-778.0,451.0
90.0,-190.0,106.0,545.0,-178.0,-30.0,330.0,-773.0,454.0
88.0,-186.0,109.0,529.0,-191.0,-31.0,319.0,-767.0,462.0
86.0,-187.0,114.0,511.0,-199.0,-35.0,312.0,-768.0,476.0
88.0,-188.0,116.0,498.0,-198.0,-36.0,312.0,-775.0,470.0
81.0,-187.0,117.0,490.0,-187.0,-39.0,300.0,-778.0,483.0
82.0,-187.0,114.0,492.0,-172.0,-44.0,309.0,-781.0,494.0
87.0,-190.0,117.0,498.0,-154.0,-52.0,316.0,-774.0,485.0
83.0,-188.0,118.0,495.0,-136.0,-56.0,317.0,-771.0,488.0
84.0,-187.0,122.0,483.0,-121.0,-53.0,302.0,-771.0,494.0
81.0,-185.0,121.0,461.0,-115.0,-43.0,297.0,-762.0,499.0
81.0,-186.0,124.0,439.0,-109.0,-29.0,288.0,-763.0,508.0
72.0,-185.0,128.0,420.0,-109.0,-10.0,287.0,-758.0,525.0
78.0,-185.0,130.0,404.0,-121.0,6.0,279.0,-760.0,528.0
73.0,-183.0,130.0,389.0,-135.0,20.0,267.0,-755.0,537.0
71.0,-182.0,128.0,367.0,-150.0,37.0,260.0,-752.0,543.0
69.0,-181.0,127.0,341.0,-160.0,49.0,260.0,-754.0,537.0
71.0,-187.0,130.0,312.0,-164.0,52.0,258.0,-755.0,537.0
76.0,-187.0,132.0,283.0,-164.0,48.0,273.0,-777.0,548.0
75.0,-193.0,131.0,267.0,-160.0,39.0,278.0,-790.0,563.0
78.0,-195.0,140.0,261.0,-156.0,29.0,291.0,-808.0,570.0
83.0,-205.0,140.0,270.0,-149.0,19.0,305.0,-833.0,580.0
89.0,-208.0,140.0,291.0,-138.0,9.0,339.0,-854.0,589.0
96.0,-213.0,139.0,317.0,-123.0,-3.0,348.0,-869.0,580.0
102.0,-210.0,139.0,336.0,-105.0,-20.0,362.0,-860.0,564.0
105.0,-207.0,132.0,344.0,-79.0,-32.0,383.0,-853.0,563.0
110.0,-207.0,133.0,342.0,-44.0,-45.0,403.0,-848.0,551.0
111.0,-204.0,134.0,340.0,-8.0,-56.0,412.0,-844.0,571.0
113.0,-201.0,141.0,337.0,21.0,-61.0,413.0,-827.0,581.0
115.0,-198.0,138.0,341.0,44.0,-56.0,420.0,-824.0,587.0
101.0,-193.0,138.0,349.0,64.0,-51.0,387.0,-800.0,596.0
111.0,-193.0,146.0,356.0,84.0,-36.0,407.0,-791.0,591.0
106.0,-187.0,142.0,356.0,103.0,-29.0,394.0,-771.0,588.0
96.0,-187.0,145.0,349.0,124.0,-16.0,372.0,-766.0,589.0
96.0,-188.0,144.0,339.0,143.0,-7.0,352.0,-764.0,592.0
84.0,-186.0,143.0,327.0,159.0,1.0,305.0,-768.0,590.0
75.0,-192.0,141.0,313.0,174.0,18.0,271.0,-784.0,597.0
82.0,-192.0,144.0,298.0,186.0,34.0,285.0,-790.0,591.0
79.0,-196.0,143.0,292.0,192.0,30.0,283.0,-802.0,604.0
76.0,-194.0,141.0,299.0,198.0,21.0,283.0,-809.0,601.0
79.0,-194.0,146.0,307.0,205.0,12.0,293.0,-816.0,594.0
82.0,-193.0,143.0,316.0,213.0,1.0,308.0,-805.0,583.0
91.0,-196.0,132.0,320.0,223.0,-13.0,322.0,-796.0,576.0
93.0,-191.0,133.0,317.0,232.0,-23.0,331.0,-778.0,541.0
88.0,-186.0,121.0,310.0,242.0,-31.0,335.0,-768.0,515.0
96.0,-185.0,121.0,303.0,249.0,-29.0,347.0,-755.0,508.0
93.0,-187.0,124.0,309.0,260.0,-26.0,343.0,-762.0,518.0
85.0,-187.0,124.0,329.0,269.0,-21.0,312.0,-770.0,520.0
80.0,-192.0,129.0,360.0,270.0,-18.0,296.0,-782.0,536.0
70.0,-192.0,129.0,392.0,258.0,-15.0,254.0,-788.0,544.0
61.0,-193.0,135.0,420.0,240.0,-6.0,237.0,-796.0,553.0
59.0,-197.0,135.0,445.0,222.0,-2.0,215.0,-802.0,562.0
60.0,-195.0,141.0,468.0,203.0,2.0,199.0,-808.0,575.0
55.0,-199.0,134.0,483.0,184.0,5.0,204.0,-815.0,567.0
55.0,-201.0,132.0,491.0,159.0,8.0,194.0,-812.0,555.0
62.0,-193.0,136.0,493.0,130.0,15.0,204.0,-805.0,549.0
59.0,-190.0,126.0,487.0,103.0,28.0,215.0,-797.0,533.0
60.0,-187.0,123.0,475.0,79.0,42.0,219.0,-785.0,521.0
61.0,-187.0,123.0,466.0,56.0,63.0,226.0,-761.0,520.0
60.0,-186.0,127.0,461.0,34.0,87.0,220.0,-769.0,516.0
60.0,-187.0,129.0,463.0,7.0,105.0,214.0,-760.0,520.0
58.0,-185.0,122.0,467.0,-22.0,125.0,201.0,-759.0,530.0
53.0,-186.0,128.0,474.0,-50.0,141.0,182.0,-760.0,522.0
49.0,-186.0,124.0,478.0,-70.0,155.0,171.0,-763.0,530.0
51.0,-187.0,131.0,487.0,-89.0,167.0,176.0,-764.0,531.0
54.0,-189.0,126.0,499.0,-104.0,173.0,179.0,-773.0,544.0
51.0,-190.0,131.0,508.0,-122.0,170.0,176.0,-774.0,539.0
56.0,-189.0,135.0,516.0,-141.0,169.0,189.0,-776.0,546.0
56.0,-189.0,135.0,526.0,-158.0,165.0,192.0,-769.0,565.0
57.0,-184.0,134.0,534.0,-172.0,160.0,201.0,-773.0,572.0
65.0,-185.0,136.0,542.0,-180.0,157.0,217.0,-760.0,576.0
60.0,-181.0,141.0,549.0,-186.0,154.0,225.0,-755.0,580.0
62.0,-182.0,144.0,559.0,-184.0,154.0,227.0,-751.0,589.0
66.0,-181.0,143.0,570.0,-180.0,156.0,238.0,-749.0,593.0
70.0,-183.0,143.0,583.0,-172.0,157.0,247.0,-741.0,598.0
67.0,-179.0,141.0,601.0,-168.0,162.0,248.0,-742.0,595.0
67.0,-183.0,137.0,621.0,-166.0,172.0,253.0,-740.0,597.0
69.0,-185.0,143.0,641.0,-165.0,185.0,269.0,-744.0,595.0
73.0,-181.0,144.0,659.0,-159.0,193.0,260.0,-761.0,600.0
72.0,-186.0,146.0,680.0,-153.0,203.0,265.0,-761.0,618.0
73.0,-186.0,153.0,707.0,-145.0,215.0,258.0,-769.0,630.0
75.0,-183.0,154.0,729.0,-144.0,225.0,268.0,-766.0,639.0
72.0,-184.0,155.0,744.0,-143.0,228.0,271.0,-756.0,646.0
73.0,-179.0,158.0,749.0,-135.0,230.0,269.0,-741.0,658.0
75.0,-176.0,158.0,746.0,-122.0,234.0,275.0,-729.0,659.0
73.0,-172.0,162.0,739.0,-106.0,240.0,272.0,-714.0,665.0
76.0,-172.0,159.0,731.0,-87.0,249.0,272.0,-697.0,666.0
82.0,-168.0,160.0,718.0,-69.0,255.0,282.0,-689.0,654.0
83.0,-168.0,162.0,698.0,-56.0,260.0,295.0,-683.0,658.0
83.0,-161.0,160.0,673.0,-49.0,264.0,291.0,-663.0,657.0
87.0,-160.0,164.0,651.0,-39.0,269.0,308.0,-661.0,667.0
87.0,-161.0,167.0,631.0,-24.0,273.0,328.0,-670.0,689.0
90.0,-161.0,168.0,620.0,-6.0,275.0,341.0,-665.0,693.0
96.0,-164.0,170.0,619.0,14.0,270.0,343.0,-675.0,710.0
99.0,-163.0,173.0,625.0,31.0,266.0,356.0,-680.0,711.0
99.0,-166.0,178.0,639.0,39.0,262.0,351.0,-675.0,718.0
96.0,-162.0,173.0,654.0,38.0,261.0,356.0,-671.0,724.0
98.0,-167.0,177.0,667.0,31.0,260.0,359.0,-665.0,725.0
96.0,-158.0,179.0,676.0,26.0,260.0,354.0,-665.0,721.0
98.0,-165.0,166.0,681.0,18.0,261.0,348.0,-655.0,711.0
96.0,-157.0,171.0,674.0,15.0,260.0,353.0,-658.0,711.0
95.0,-158.0,170.0,651.0,14.0,260.0,340.0,-647.0,701.0
89.0,-152.0,168.0,617.0,17.0,258.0,332.0,-644.0,691.0
90.0,-153.0,164.0,575.0,18.0,255.0,327.0,-640.0,690.0
89.0,-149.0,162.0,528.0,17.0,253.0,315.0,-625.0,675.0
84.0,-149.0,159.0,480.0,17.0,250.0,307.0,-613.0,658.0
83.0,-147.0,160.0,433.0,23.0,249.0,295.0,-610.0,662.0
86.0,-146.0,163.0,390.0,38.0,249.0,309.0,-606.0,671.0
86.0,-145.0,167.0,359.0,62.0,252.0,308.0,-610.0,686.0
85.0,-149.0,173.0,340.0,89.0,251.0,311.0,-614.0,706.0
88.0,-154.0,179.0,334.0,110.0,257.0,314.0,-626.0,719.0
89.0,-156.0,175.0,338.0,121.0,261.0,321.0,-637.0,724.0
89.0,-161.0,175.0,351.0,121.0,268.0,317.0,-661.0,727.0
88.0,-166.0,180.0,366.0,111.0,275.0,316.0,-679.0,734.0
83.0,-167.0,178.0,376.0,96.0,282.0,299.0,-697.0,729.0
77.0,-171.0,176.0,376.0,73.0,285.0,289.0,-707.0,722.0
77.0,-174.0,170.0,362.0,50.0,285.0,273.0,-705.0,700.0
66.0,-168.0,166.0,335.0,31.0,283.0,253.0,-695.0,683.0
63.0,-162.0,165.0,300.0,16.0,282.0,240.0,-673.0,663.0
63.0,-161.0,162.0,261.0,8.0,284.0,226.0,-658.0,656.0
62.0,-154.0,156.0,221.0,9.0,285.0,223.0,-637.0,652.0
63.0,-146.0,163.0,190.0,13.0,285.0,223.0,-624.0,663.0
66.0,-147.0,167.0,165.0,16.0,284.0,221.0,-606.0,672.0
63.0,-142.0,167.0,148.0,20.0,283.0,208.0,-598.0,677.0
60.0,-145.0,168.0,138.0,26.0,286.0,197.0,-590.0,682.0
61.0,-146.0,166.0,132.0,34.0,288.0,204.0,-602.0,677.0
59.0,-150.0,165.0,130.0,52.0,287.0,193.0,-623.0,695.0
56.0,-151.0,173.0,133.0,75.0,288.0,192.0,-640.0,718.0
58.0,-164.0,177.0,143.0,101.0,290.0,190.0,-664.0,735.0
53.0,-163.0,180.0,156.0,121.0,292.0,191.0,-684.0,741.0
53.0,-173.0,183.0,169.0,130.0,294.0,184.0,-709.0,746.0
54.0,-178.0,179.0,177.0,133.0,294.0,184.0,-725.0,756.0
59.0,-176.0,184.0,186.0,135.0,294.0,199.0,-733.0,756.0
59.0,-181.0,183.0,196.0,142.0,290.0,191.0,-738.0,755.0
57.0,-179.0,182.0,204.0,145.0,285.0,196.0,-737.0,743.0
60.0,-177.0,178.0,203.0,140.0,276.0,185.0,-728.0,739.0
51.0,-172.0,171.0,194.0,126.0,269.0,172.0,-716.0,716.0
50.0,-172.0,170.0,174.0,113.0,259.0,170.0,-708.0,700.0
49.0,-174.0,164.0,150.0,105.0,250.0,158.0,-708.0,692.0
46.0,-173.0,166.0,123.0,108.0,238.0,147.0,-708.0,688.0
38.0,-173.0,173.0,104.0,114.0,224.0,142.0,-708.0,695.0
46.0,-177.0,172.0,99.0,120.0,215.0,140.0,-713.0,712.0
48.0,-172.0,173.0,113.0,121.0,201.0,130.0,-712.0,714.0
38.0,-174.0,177.0,140.0,119.0,188.0,122.0,-712.0,715.0
37.0,-171.0,176.0,175.0,114.0,177.0,119.0,-702.0,716.0
41.0,-170.0,173.0,208.0,105.0,167.0,121.0,-695.0,718.0
39.0,-164.0,171.0,232.0,96.0,158.0,132.0,-685.0,708.0
43.0,-162.0,173.0,246.0,91.0,150.0,140.0,-670.0,703.0
46.0,-162.0,169.0,245.0,92.0,139.0,149.0,-659.0,693.0
50.0,-157.0,170.0,234.0,96.0,130.0,149.0,-642.0,689.0
49.0,-153.0,169.0,217.0,103.0,121.0,159.0,-637.0,683.0
47.0,-149.0,163.0,193.0,107.0,116.0,161.0,-627.0,677.0
50.0,-153.0,167.0,167.0,105.0,112.0,164.0,-624.0,684.0
56.0,-159.0,169.0,144.0,103.0,116.0,160.0,-633.0,701.0
50.0,-161.0,178.0,130.0,99.0,116.0,164.0,-648.0,712.0
49.0,-160.0,180.0,126.0,91.0,113.0,161.0,-664.0,723.0
50.0,-168.0,176.0,132.0,79.0,111.0,158.0,-681.0,723.0
46.0,-173.0,177.0,145.0,66.0,105.0,153.0,-698.0,722.0
43.0,-173.0,170.0,160.0,53.0,97.0,138.0,-704.0,720.0
38.0,-171.0,170.0,171.0,39.0,89.0,128.0,-705.0,707.0
35.0,-168.0,169.0,179.0,29.0,81.0,115.0,-695.0,697.0
32.0,-168.0,163.0,185.0,22.0,74.0,106.0,-694.0,685.0
33.0,-163.0,168.0,186.0,12.0,69.0,116.0,-680.0,678.0
38.0,-161.0,164.0,184.0,3.0,66.0,127.0,-676.0,678.0
41.0,-164.0,167.0,180.0,4.0,60.0,141.0,-668.0,694.0
47.0,-163.0,165.0,173.0,9.0,51.0,161.0,-675.0,693.0
49.0,-161.0,167.0,166.0,17.0,44.0,161.0,-661.0,708.0
50.0,-158.0,171.0,161.0,30.0,37.0,165.0,-657.0,703.0
49.0,-158.0,173.0,160.0,43.0,36.0,165.0,-648.0,715.0
48.0,-153.0,176.0,161.0,59.0,43.0,165.0,-636.0,716.0
51.0,-153.0,180.0,165.0,79.0,51.0,157.0,-636.0,731.0
49.0,-158.0,181.0,169.0,102.0,63.0,147.0,-634.0,741.0
42.0,-154.0,187.0,172.0,127.0,77.0,145.0,-641.0,759.0
46.0,-156.0,189.0,181.0,148.0,96.0,134.0,-642.0,776.0
40.0,-157.0,195.0,199.0,161.0,114.0,120.0,-643.0,793.0
38.0,-152.0,196.0,222.0,165.0,130.0,115.0,-647.0,803.0
33.0,-158.0,192.0,243.0,164.0,146.0,111.0,-659.0,798.0
37.0,-157.0,190.0,259.0,165.0,155.0,114.0,-652.0,793.0
37.0,-157.0,189.0,265.0,169.0,160.0,112.0,-650.0,775.0
40.0,-154.0,183.0,257.0,181.0,158.0,117.0,-637.0,753.0
41.0,-152.0,179.0,238.0,200.0,154.0,120.0,-627.0,735.0
41.0,-148.0,178.0,209.0,224.0,146.0,122.0,-614.0,732.0
36.0,-148.0,174.0,178.0,251.0,143.0,122.0,-606.0,730.0
38.0,-146.0,179.0,145.0,271.0,141.0,126.0,-604.0,730.0
42.0,-144.0,182.0,112.0,288.0,141.0,130.0,-604.0,728.0
40.0,-143.0,182.0,82.0,299.0,144.0,133.0,-603.0,730.0
35.0,-141.0,174.0,60.0,307.0,151.0,124.0,-598.0,733.0
39.0,-150.0,179.0,48.0,316.0,162.0,112.0,-596.0,733.0
33.0,-146.0,179.0,43.0,328.0,178.0,107.0,-604.0,731.0
35.0,-145.0,178.0,42.0,342.0,187.0,105.0,-604.0,731.0
29.0,-144.0,179.0,44.0,361.0,193.0,91.0,-594.0,735.0
29.0,-144.0,179.0,50.0,376.0,200.0,91.0,-599.0,731.0
30.0,-144.0,178.0,58.0,386.0,208.0,81.0,-600.0,731.0
22.0,-145.0,176.0,61.0,394.0,216.0,86.0,-607.0,727.0
27.0,-144.0,173.0,58.0,400.0,219.0,84.0,-615.0,722.0
31.0,-151.0,173.0,48.0,408.0,223.0,83.0,-613.0,715.0
30.0,-145.0,170.0,38.0,416.0,225.0,92.0,-618.0,706.0
32.0,-156.0,177.0,25.0,425.0,224.0,98.0,-622.0,690.0
36.0,-152.0,166.0,15.0,436.0,222.0,108.0,-632.0,690.0
39.0,-155.0,168.0,5.0,447.0,219.0,115.0,-637.0,691.0
39.0,-162.0,166.0,-1.0,457.0,216.0,115.0,-652.0,693.0
38.0,-159.0,166.0,-4.0,464.0,212.0,115.0,-667.0,690.0
36.0,-162.0,172.0,-3.0,467.0,207.0,119.0,-670.0,694.0
38.0,-162.0,167.0,5.0,467.0,201.0,116.0,-671.0,698.0
41.0,-165.0,168.0,19.0,465.0,191.0,116.0,-673.0,696.0
35.0,-165.0,168.0,34.0,463.0,183.0,116.0,-673.0,689.0
38.0,-165.0,167.0,46.0,458.0,174.0,112.0,-676.0,680.0
33.0,-164.0,165.0,56.0,453.0,163.0,96.0,-666.0,678.0
33.0,-165.0,170.0,65.0,454.0,158.0,97.0,-676.0,683.0
28.0,-164.0,165.0,70.0,450.0,150.0,98.0,-673.0,690.0
29.0,-163.0,167.0,72.0,443.0,139.0,90.0,-671.0,677.0
26.0,-161.0,164.0,73.0,428.0,137.0,90.0,-663.0,684.0
30.0,-161.0,159.0,72.0,402.0,139.0,90.0,-669.0,675.0
31.0,-163.0,166.0,73.0,378.0,139.0,98.0,-662.0,669.0
34.0,-159.0,160.0,75.0,358.0,140.0,106.0,-659.0,678.0
35.0,-157.0,161.0,76.0,338.0,140.0,109.0,-651.0,671.0
38.0,-154.0,163.0,75.0,319.0,142.0,119.0,-646.0,682.0
37.0,-156.0,164.0,75.0,298.0,140.0,121.0,-646.0,676.0
34.0,-157.0,170.0,75.0,275.0,136.0,125.0,-649.0,687.0
38.0,-158.0,163.0,76.0,251.0,132.0,119.0,-647.0,687.0
36.0,-158.0,166.0,77.0,226.0,128.0,116.0,-651.0,678.0
35.0,-156.0,167.0,79.0,199.0,122.0,108.0,-647.0,679.0
35.0,-157.0,165.0,83.0,174.0,115.0,112.0,-651.0,679.0
36.0,-158.0,164.0,85.0,147.0,105.0,108.0,-646.0,672.0
37.0,-156.0,161.0,84.0,120.0,95.0,121.0,-648.0,667.0
38.0,-154.0,161.0,78.0,92.0,81.0,116.0,-645.0,666.0
37.0,-149.0,158.0,72.0,65.0,64.0,125.0,-634.0,658.0
38.0,-151.0,156.0,64.0,37.0,47.0,126.0,-632.0,653.0
39.0,-153.0,160.0,49.0,8.0,28.0,129.0,-637.0,651.0
36.0,-154.0,159.0,27.0,-23.0,5.0,131.0,-635.0,643.0
37.0,-156.0,159.0,4.0,-56.0,-19.0,134.0,-644.0,655.0
42.0,-164.0,161.0,-11.0,-93.0,-41.0,132.0,-669.0,665.0
35.0,-168.0,169.0,-10.0,-134.0,-55.0,124.0,-679.0,692.0
29.0,-170.0,174.0,10.0,-185.0,-59.0,99.0,-686.0,714.0
28.0,-174.0,177.0,50.0,-238.0,-52.0,90.0,-698.0,730.0
21.0,-172.0,183.0,102.0,-293.0,-33.0,70.0,-701.0,742.0
18.0,-170.0,187.0,157.0,-345.0,-10.0,50.0,-698.0,752.0
18.0,-166.0,182.0,209.0,-390.0,18.0,48.0,-686.0,751.0
16.0,-163.0,180.0,246.0,-425.0,45.0,49.0,-674.0,747.0
23.0,-158.0,180.0,262.0,-447.0,70.0,49.0,-649.0,736.0
18.0,-151.0,179.0,253.0,-457.0,92.0,47.0,-632.0,728.0
19.0,-151.0,182.0,226.0,-453.0,104.0,46.0,-621.0,735.0
20.0,-147.0,180.0,189.0,-438.0,110.0,45.0,-616.0,735.0
18.0,-149.0,184.0,149.0,-412.0,110.0,41.0,-627.0,751.0
18.0,-150.0,186.0,117.0,-382.0,104.0,41.0,-633.0,760.0
21.0,-158.0,189.0,88.0,-348.0,92.0,50.0,-642.0,767.0
18.0,-152.0,186.0,69.0,-314.0,76.0,43.0,-648.0,774.0
22.0,-157.0,185.0,54.0,-282.0,59.0,46.0,-649.0,771.0
15.0,-152.0,189.0,42.0,-257.0,39.0,43.0,-639.0,770.0
22.0,-158.0,190.0,32.0,-237.0,18.0,45.0,-637.0,772.0
19.0,-154.0,185.0,23.0,-219.0,-2.0,54.0,-637.0,774.0
20.0,-154.0,187.0,16.0,-203.0,-24.0,49.0,-633.0,773.0
19.0,-153.0,188.0,12.0,-188.0,-44.0,53.0,-635.0,785.0
20.0,-159.0,192.0,11.0,-174.0,-61.0,52.0,-635.0,784.0
16.0,-155.0,188.0,11.0,-164.0,-78.0,44.0,-636.0,797.0
17.0,-159.0,189.0,10.0,-156.0,-89.0,40.0,-655.0,787.0
15.0,-160.0,185.0,9.0,-152.0,-100.0,32.0,-661.0,785.0
16.0,-160.0,191.0,7.0,-144.0,-110.0,41.0,-678.0,783.0
19.0,-166.0,195.0,7.0,-136.0,-115.0,36.0,-672.0,790.0
17.0,-165.0,187.0,9.0,-127.0,-120.0,45.0,-681.0,788.0
21.0,-164.0,187.0,14.0,-117.0,-123.0,53.0,-683.0,789.0
24.0,-163.0,188.0,20.0,-106.0,-123.0,56.0,-668.0,795.0
22.0,-159.0,190.0,30.0,-95.0,-127.0,68.0,-661.0,795.0
22.0,-160.0,186.0,39.0,-84.0,-130.0,71.0,-657.0,783.0
25.0,-157.0,189.0,48.0,-74.0,-133.0,78.0,-644.0,775.0
27.0,-155.0,185.0,52.0,-64.0,-136.0,76.0,-644.0,770.0
30.0,-156.0,182.0,54.0,-54.0,-140.0,83.0,-635.0,768.0
30.0,-154.0,185.0,55.0,-41.0,-142.0,90.0,-632.0,766.0
31.0,-151.0,184.0,52.0,-32.0,-147.0,95.0,-627.0,759.0
31.0,-148.0,185.0,48.0,-26.0,-150.0,96.0,-624.0,757.0
35.0,-148.0,185.0,42.0,-22.0,-153.0,97.0,-612.0,748.0
34.0,-147.0,183.0,36.0,-20.0,-156.0,105.0,-605.0,752.0
37.0,-147.0,186.0,29.0,-16.0,-160.0,107.0,-605.0,746.0
37.0,-146.0,184.0,22.0,-11.0,-162.0,121.0,-608.0,742.0
41.0,-145.0,182.0,15.0,-4.0,-164.0,127.0,-616.0,739.0
44.0,-149.0,180.0,11.0,2.0,-166.0,140.0,-614.0,738.0
41.0,-147.0,179.0,8.0,8.0,-170.0,137.0,-619.0,733.0
43.0,-148.0,174.0,3.0,15.0,-171.0,142.0,-628.0,720.0
43.0,-152.0,174.0,0.0,22.0,-171.0,145.0,-628.0,724.0
47.0,-154.0,174.0,-4.0,26.0,-164.0,148.0,-637.0,724.0
46.0,-154.0,180.0,-3.0,33.0,-159.0,151.0,-636.0,716.0
49.0,-159.0,177.0,-4.0,39.0,-154.0,147.0,-636.0,722.0
45.0,-154.0,173.0,-4.0,48.0,-144.0,151.0,-640.0,722.0
44.0,-153.0,176.0,-5.0,55.0,-136.0,148.0,-641.0,721.0
47.0,-159.0,174.0,-6.0,57.0,-127.0,156.0,-651.0,725.0
51.0,-158.0,179.0,-9.0,55.0,-117.0,154.0,-653.0,738.0
46.0,-158.0,183.0,-9.0,49.0,-110.0,153.0,-651.0,741.0
50.0,-159.0,184.0,-4.0,40.0,-104.0,152.0,-655.0,750.0
46.0,-161.0,183.0,4.0,31.0,-100.0,150.0,-660.0,765.0
45.0,-165.0,185.0,13.0,23.0,-99.0,148.0,-663.0,764.0
44.0,-164.0,187.0,26.0,16.0,-98.0,146.0,-677.0,761.0
46.0,-169.0,183.0,37.0,11.0,-103.0,145.0,-678.0,759.0
45.0,-166.0,179.0,40.0,7.0,-107.0,140.0,-679.0,752.0
47.0,-162.0,182.0,41.0,5.0,-109.0,140.0,-672.0,742.0
41.0,-160.0,182.0,36.0,5.0,-113.0,141.0,-671.0,737.0
44.0,-159.0,176.0,26.0,5.0,-115.0,131.0,-661.0,730.0
40.0,-161.0,177.0,16.0,4.0,-119.0,133.0,-662.0,736.0
42.0,-161.0,179.0,6.0,4.0,-121.0,129.0,-661.0,733.0
39.0,-161.0,173.0,-1.0,4.0,-119.0,129.0,-657.0,731.0
42.0,-162.0,179.0,-8.0,6.0,-119.0,123.0,-660.0,734.0
39.0,-163.0,178.0,-11.0,4.0,-120.0,119.0,-665.0,730.0
36.0,-162.0,182.0,-12.0,2.0,-118.0,115.0,-666.0,730.0
39.0,-163.0,179.0,-9.0,-2.0,-115.0,111.0,-667.0,736.0
34.0,-160.0,180.0,-4.0,-7.0,-113.0,105.0,-665.0,736.0
34.0,-159.0,178.0,1.0,-15.0,-109.0,103.0,-670.0,736.0
31.0,-161.0,176.0,3.0,-20.0,-107.0,95.0,-662.0,734.0
28.0,-163.0,176.0,5.0,-26.0,-102.0,92.0,-662.0,732.0
31.0,-160.0,181.0,4.0,-31.0,-95.0,94.0,-663.0,730.0
32.0,-160.0,176.0,6.0,-31.0,-92.0,88.0,-661.0,728.0
30.0,-159.0,176.0,7.0,-33.0,-91.0,93.0,-651.0,725.0
30.0,-159.0,177.0,9.0,-35.0,-88.0,96.0,-652.0,723.0
35.0,-159.0,174.0,9.0,-35.0,-87.0,95.0,-650.0,725.0
37.0,-160.0,174.0,12.0,-34.0,-87.0,99.0,-651.0,727.0
33.0,-160.0,179.0,14.0,-29.0,-86.0,107.0,-645.0,731.0
34.0,-162.0,179.0,17.0,-25.0,-86.0,108.0,-652.0,732.0
32.0,-156.0,173.0,21.0,-17.0,-86.0,105.0,-646.0,724.0
33.0,-149.0,177.0,25.0,-11.0,-87.0,113.0,-640.0,728.0
35.0,-151.0,177.0,27.0,-2.0,-87.0,115.0,-632.0,722.0
38.0,-153.0,176.0,26.0,6.0,-90.0,117.0,-636.0,734.0
39.0,-157.0,182.0,25.0,15.0,-92.0,120.0,-648.0,740.0
39.0,-158.0,182.0,29.0,20.0,-93.0,128.0,-653.0,747.0
39.0,-164.0,181.0,34.0,24.0,-95.0,122.0,-662.0,753.0
42.0,-163.0,184.0,42.0,27.0,-96.0,122.0,-671.0,762.0
35.0,-162.0,181.0,52.0,30.0,-95.0,124.0,-673.0,757.0
39.0,-166.0,184.0,61.0,31.0,-94.0,117.0,-681.0,755.0
39.0,-167.0,178.0,69.0,33.0,-94.0,124.0,-681.0,749.0
32.0,-161.0,179.0,69.0,32.0,-94.0,118.0,-679.0,740.0
35.0,-160.0,174.0,65.0,30.0,-89.0,110.0,-676.0,743.0
35.0,-164.0,182.0,59.0,28.0,-83.0,108.0,-667.0,738.0
32.0,-158.0,182.0,52.0,25.0,-79.0,98.0,-666.0,749.0
30.0,-161.0,181.0,49.0,21.0,-75.0,92.0,-661.0,754.0
30.0,-161.0,180.0,51.0,20.0,-71.0,89.0,-657.0,751.0
30.0,-158.0,184.0,54.0,18.0,-67.0,85.0,-663.0,754.0
30.0,-159.0,183.0,58.0,17.0,-63.0,84.0,-660.0,756.0
29.0,-161.0,182.0,63.0,14.0,-58.0,93.0,-661.0,746.0
31.0,-159.0,178.0,68.0,11.0,-55.0,90.0,-660.0,749.0
30.0,-158.0,178.0,71.0,10.0,-52.0,95.0,-660.0,745.0
30.0,-158.0,182.0,73.0,10.0,-50.0,97.0,-667.0,746.0
38.0,-161.0,180.0,77.0,12.0,-47.0,106.0,-651.0,746.0
37.0,-155.0,183.0,81.0,17.0,-49.0,109.0,-655.0,748.0
38.0,-159.0,185.0,81.0,21.0,-48.0,112.0,-649.0,746.0
36.0,-155.0,183.0,82.0,25.0,-48.0,125.0,-642.0,754.0
40.0,-159.0,181.0,84.0,28.0,-47.0,125.0,-644.0,757.0
38.0,-153.0,182.0,86.0,29.0,-46.0,127.0,-645.0,749.0
39.0,-155.0,184.0,87.0,30.0,-42.0,129.0,-642.0,746.0
38.0,-157.0,178.0,86.0,29.0,-38.0,126.0,-641.0,748.0
36.0,-156.0,180.0,84.0,26.0,-35.0,127.0,-642.0,743.0
44.0,-155.0,182.0,81.0,22.0,-30.0,122.0,-649.0,742.0
37.0,-159.0,183.0,77.0,18.0,-25.0,121.0,-646.0,737.0
36.0,-154.0,182.0,72.0,15.0,-23.0,121.0,-649.0,745.0
38.0,-157.0,182.0,71.0,12.0,-20.0,119.0,-647.0,744.0
38.0,-158.0,180.0,69.0,8.0,-18.0,110.0,-645.0,737.0
34.0,-159.0,184.0,68.0,6.0,-17.0,116.0,-654.0,746.0
37.0,-160.0,180.0,71.0,4.0,-17.0,113.0,-651.0,750.0
37.0,-157.0,181.0,76.0,3.0,-15.0,107.0,-648.0,745.0
35.0,-155.0,182.0,81.0,1.0,-15.0,112.0,-648.0,745.0
36.0,-158.0,178.0,84.0,0.0,-16.0,108.0,-645.0,738.0
35.0,-154.0,177.0,85.0,-1.0,-15.0,108.0,-642.0,737.0
33.0,-156.0,184.0,86.0,-2.0,-15.0,113.0,-640.0,734.0
40.0,-157.0,181.0,87.0,-3.0,-15.0,119.0,-639.0,739.0
38.0,-153.0,179.0,88.0,-3.0,-15.0,117.0,-639.0,737.0
37.0,-158.0,178.0,86.0,-2.0,-15.0,118.0,-638.0,738.0
39.0,-157.0,178.0,86.0,-1.0,-14.0,124.0,-641.0,738.0
39.0,-152.0,183.0,85.0,0.0,-15.0,127.0,-638.0,737.0
40.0,-156.0,181.0,82.0,0.0,-16.0,129.0,-649.0,733.0
40.0,-157.0,181.0,79.0,2.0,-15.0,134.0,-649.0,734.0
42.0,-159.0,181.0,77.0,2.0,-17.0,134.0,-654.0,735.0
39.0,-157.0,176.0,75.0,2.0,-17.0,130.0,-646.0,740.0
41.0,-156.0,178.0,74.0,3.0,-19.0,139.0,-654.0,734.0
40.0,-159.0,184.0,73.0,4.0,-21.0,138.0,-651.0,739.0
47.0,-163.0,179.0,77.0,4.0,-20.0,140.0,-651.0,735.0
43.0,-161.0,180.0,79.0,4.0,-20.0,137.0,-651.0,735.0
44.0,-156.0,179.0,81.0,4.0,-22.0,131.0,-651.0,738.0
41.0,-155.0,181.0,85.0,7.0,-21.0,132.0,-646.0,739.0
42.0,-158.0,177.0,88.0,9.0,-20.0,132.0,-648.0,739.0
42.0,-158.0,182.0,88.0,10.0,-19.0,131.0,-638.0,733.0
40.0,-154.0,176.0,87.0,11.0,-23.0,132.0,-638.0,733.0
43.0,-157.0,175.0,85.0,12.0,-23.0,128.0,-637.0,735.0
38.0,-154.0,180.0,83.0,13.0,-25.0,127.0,-637.0,738.0
38.0,-156.0,182.0,81.0,13.0,-25.0,127.0,-638.0,739.0
42.0,-158.0,182.0,77.0,11.0,-27.0,126.0,-637.0,737.0
39.0,-153.0,180.0,71.0,10.0,-27.0,126.0,-640.0,736.0
40.0,-156.0,173.0,66.0,9.0,-27.0,122.0,-648.0,741.0
42.0,-157.0,181.0,62.0,8.0,-24.0,124.0,-643.0,740.0
40.0,-159.0,180.0,57.0,5.0,-23.0,129.0,-653.0,736.0
39.0,-158.0,181.0,55.0,4.0,-21.0,126.0,-650.0,738.0
39.0,-157.0,183.0,53.0,2.0,-18.0,125.0,-648.0,739.0
41.0,-158.0,179.0,52.0,0.0,-15.0,130.0,-651.0,744.0
40.0,-158.0,181.0,53.0,-1.0,-13.0,133.0,-648.0,742.0
38.0,-155.0,179.0,54.0,-4.0,-10.0,134.0,-648.0,740.0
39.0,-154.0,177.0,56.0,-4.0,-9.0,137.0,-649.0,739.0
42.0,-154.0,176.0,57.0,-4.0,-9.0,134.0,-640.0,743.0
43.0,-156.0,178.0,59.0,-3.0,-9.0,138.0,-643.0,738.0
41.0,-157.0,178.0,60.0,1.0,-11.0,142.0,-638.0,738.0
43.0,-154.0,182.0,60.0,3.0,-13.0,139.0,-638.0,737.0
44.0,-157.0,181.0,60.0,8.0,-14.0,137.0,-639.0,741.0
42.0,-151.0,181.0,57.0,13.0,-15.0,139.0,-638.0,737.0
43.0,-154.0,180.0,52.0,16.0,-17.0,132.0,-635.0,740.0
44.0,-155.0,181.0,49.0,21.0,-18.0,135.0,-636.0,742.0
45.0,-153.0,181.0,45.0,24.0,-17.0,138.0,-638.0,743.0
44.0,-156.0,181.0,40.0,27.0,-19.0,136.0,-636.0,749.0
39.0,-152.0,183.0,37.0,27.0,-19.0,130.0,-638.0,748.0
42.0,-154.0,184.0,35.0,28.0,-18.0,129.0,-641.0,741.0
38.0,-155.0,178.0,33.0,29.0,-15.0,130.0,-639.0,746.0
39.0,-156.0,183.0,32.0,30.0,-13.0,122.0,-644.0,745.0
39.0,-157.0,179.0,32.0,31.0,-13.0,121.0,-637.0,752.0
39.0,-154.0,182.0,30.0,28.0,-10.0,124.0,-639.0,745.0
40.0,-159.0,184.0,28.0,25.0,-9.0,120.0,-644.0,748.0
37.0,-155.0,181.0,23.0,23.0,-6.0,123.0,-640.0,750.0
37.0,-156.0,180.0,19.0,22.0,-5.0,122.0,-640.0,741.0
37.0,-155.0,182.0,14.0,20.0,-6.0,119.0,-643.0,743.0
37.0,-156.0,182.0,8.0,18.0,-6.0,113.0,-639.0,736.0
37.0,-156.0,181.0,4.0,18.0,-5.0,120.0,-639.0,741.0
38.0,-155.0,183.0,-1.0,18.0,-6.0,117.0,-635.0,738.0
39.0,-156.0,178.0,-5.0,20.0,-9.0,124.0,-643.0,736.0
32.0,-154.0,176.0,-10.0,21.0,-11.0,123.0,-635.0,733.0
39.0,-158.0,179.0,-12.0,23.0,-13.0,118.0,-640.0,740.0
39.0,-160.0,180.0,-14.0,24.0,-14.0,122.0,-639.0,736.0
41.0,-157.0,178.0,-16.0,25.0,-16.0,122.0,-645.0,733.0
38.0,-155.0,179.0,-16.0,27.0,-18.0,124.0,-648.0,738.0
38.0,-157.0,179.0,-17.0,24.0,-21.0,119.0,-643.0,734.0
39.0,-157.0,179.0,-19.0,23.0,-23.0,124.0,-642.0,736.0
36.0,-157.0,178.0,-19.0,21.0,-24.0,120.0,-642.0,744.0
37.0,-159.0,180.0,-19.0,21.0,-26.0,121.0,-648.0,738.0
37.0,-158.0,179.0,-19.0,20.0,-26.0,119.0,-648.0,732.0
37.0,-157.0,174.0,-20.0,19.0,-25.0,123.0,-650.0,730.0
37.0,-155.0,179.0,-18.0,17.0,-29.0,114.0,-650.0,740.0
37.0,-156.0,177.0,-18.0,15.0,-26.0,127.0,-648.0,737.0
38.0,-159.0,178.0,-16.0,12.0,-26.0,120.0,-651.0,734.0
39.0,-158.0,175.0,-14.0,8.0,-25.0,115.0,-648.0,733.0
39.0,-159.0,176.0,-11.0,6.0,-23.0,118.0,-654.0,735.0
39.0,-158.0,179.0,-7.0,4.0,-20.0,120.0,-646.0,732.0
39.0,-159.0,180.0,-3.0,3.0,-20.0,119.0,-654.0,734.0
37.0,-159.0,176.0,-1.0,4.0,-20.0,119.0,-653.0,735.0
40.0,-158.0,180.0,1.0,6.0,-18.0,120.0,-652.0,726.0
35.0,-159.0,180.0,3.0,7.0,-18.0,119.0,-653.0,737.0
38.0,-159.0,183.0,5.0,9.0,-19.0,121.0,-651.0,733.0
35.0,-159.0,183.0,7.0,9.0,-22.0,117.0,-655.0,736.0
39.0,-158.0,180.0,10.0,8.0,-21.0,120.0,-655.0,739.0
37.0,-158.0,180.0,12.0,8.0,-21.0,124.0,-647.0,738.0
37.0,-159.0,179.0,14.0,8.0,-24.0,126.0,-655.0,733.0
42.0,-157.0,177.0,15.0,8.0,-25.0,122.0,-652.0,733.0
40.0,-161.0,176.0,13.0,8.0,-26.0,126.0,-653.0,724.0
41.0,-159.0,178.0,10.0,8.0,-27.0,125.0,-650.0,734.0
42.0,-156.0,177.0,4.0,7.0,-25.0,132.0,-649.0,730.0
41.0,-157.0,182.0,-1.0,6.0,-25.0,127.0,-647.0,736.0
43.0,-156.0,180.0,-3.0,4.0,-25.0,133.0,-646.0,736.0
40.0,-155.0,180.0,-5.0,2.0,-25.0,128.0,-649.0,735.0
41.0,-159.0,178.0,-5.0,0.0,-25.0,128.0,-644.0,734.0
40.0,-159.0,178.0,-4.0,-1.0,-24.0,134.0,-652.0,737.0
41.0,-157.0,181.0,-2.0,-2.0,-24.0,134.0,-650.0,731.0
40.0,-156.0,177.0,1.0,-4.0,-24.0,129.0,-650.0,733.0
43.0,-157.0,179.0,5.0,-3.0,-23.0,134.0,-659.0,732.0
41.0,-159.0,177.0,7.0,-3.0,-23.0,138.0,-661.0,731.0
40.0,-160.0,177.0,8.0,-4.0,-22.0,128.0,-660.0,730.0
44.0,-165.0,180.0,8.0,-4.0,-22.0,133.0,-663.0,735.0
41.0,-164.0,181.0,6.0,-3.0,-22.0,132.0,-662.0,736.0
41.0,-157.0,173.0,5.0,-2.0,-22.0,131.0,-662.0,735.0
45.0,-167.0,180.0,5.0,1.0,-21.0,132.0,-663.0,728.0
38.0,-161.0,180.0,6.0,5.0,-22.0,128.0,-665.0,727.0
40.0,-161.0,175.0,9.0,5.0,-23.0,127.0,-661.0,730.0
43.0,-161.0,177.0,12.0,3.0,-21.0,128.0,-661.0,729.0
40.0,-159.0,178.0,17.0,4.0,-20.0,131.0,-662.0,729.0
39.0,-157.0,180.0,22.0,3.0,-21.0,130.0,-659.0,724.0
41.0,-162.0,178.0,26.0,2.0,-22.0,129.0,-660.0,726.0
38.0,-159.0,177.0,30.0,3.0,-20.0,130.0,-654.0,731.0
43.0,-162.0,179.0,33.0,5.0,-20.0,129.0,-653.0,728.0
38.0,-157.0,176.0,36.0,9.0,-19.0,127.0,-650.0,732.0
39.0,-159.0,185.0,38.0,12.0,-19.0,125.0,-655.0,726.0
31.0,-157.0,172.0,39.0,15.0,-19.0,128.0,-654.0,733.0
40.0,-161.0,177.0,38.0,17.0,-16.0,126.0,-649.0,728.0
41.0,-159.0,176.0,38.0,19.0,-18.0,125.0,-654.0,727.0
39.0,-159.0,176.0,39.0,21.0,-17.0,130.0,-654.0,731.0
41.0,-158.0,178.0,39.0,24.0,-15.0,125.0,-653.0,725.0
43.0,-163.0,177.0,40.0,26.0,-14.0,132.0,-650.0,730.0
42.0,-159.0,178.0,39.0,28.0,-15.0,131.0,-652.0,720.0
46.0,-162.0,178.0,40.0,26.0,-18.0,138.0,-659.0,721.0
43.0,-160.0,180.0,38.0,25.0,-19.0,136.0,-650.0,720.0
40.0,-156.0,174.0,37.0,24.0,-19.0,136.0,-651.0,731.0
45.0,-160.0,177.0,36.0,23.0,-19.0,132.0,-650.0,734.0
41.0,-160.0,174.0,35.0,22.0,-18.0,139.0,-655.0,723.0
45.0,-159.0,176.0,36.0,22.0,-18.0,137.0,-651.0,733.0
42.0,-160.0,179.0,36.0,22.0,-19.0,136.0,-656.0,728.0
41.0,-159.0,180.0,37.0,23.0,-19.0,135.0,-651.0,732.0
41.0,-159.0,178.0,38.0,23.0,-19.0,133.0,-658.0,723.0
41.0,-160.0,177.0,37.0,23.0,-19.0,136.0,-650.0,727.0
41.0,-161.0,177.0,38.0,21.0,-18.0,133.0,-652.0,729.0
40.0,-160.0,175.0,39.0,18.0,-20.0,129.0,-655.0,735.0
40.0,-158.0,177.0,38.0,16.0,-19.0,129.0,-648.0,731.0
37.0,-159.0,179.0,38.0,13.0,-18.0,128.0,-650.0,728.0
39.0,-156.0,177.0,35.0,13.0,-19.0,129.0,-662.0,729.0
38.0,-154.0,176.0,32.0,10.0,-19.0,128.0,-652.0,731.0
43.0,-160.0,179.0,28.0,12.0,-17.0,128.0,-657.0,725.0
40.0,-162.0,175.0,23.0,14.0,-18.0,128.0,-663.0,723.0
43.0,-163.0,177.0,20.0,16.0,-18.0,131.0,-660.0,732.0
42.0,-161.0,176.0,17.0,16.0,-16.0,133.0,-660.0,731.0
41.0,-162.0,180.0,18.0,13.0,-17.0,135.0,-663.0,732.0
42.0,-162.0,179.0,21.0,14.0,-17.0,139.0,-663.0,731.0
42.0,-162.0,176.0,26.0,13.0,-17.0,139.0,-658.0,733.0
44.0,-159.0,178.0,29.0,14.0,-16.0,137.0,-655.0,726.0
43.0,-157.0,177.0,30.0,14.0,-16.0,138.0,-655.0,724.0
43.0,-161.0,179.0,31.0,16.0,-15.0,137.0,-653.0,718.0
54.0,-162.0,169.0,28.0,17.0,-16.0,134.0,-656.0,717.0
41.0,-160.0,177.0,26.0,20.0,-16.0,141.0,-654.0,712.0
41.0,-157.0,174.0,25.0,20.0,-17.0,134.0,-659.0,722.0
44.0,-163.0,176.0,26.0,21.0,-17.0,132.0,-654.0,729.0
40.0,-159.0,178.0,27.0,20.0,-17.0,129.0,-652.0,730.0
39.0,-157.0,180.0,32.0,21.0,-17.0,130.0,-660.0,739.0
41.0,-158.0,178.0,36.0,22.0,-17.0,130.0,-656.0,731.0
39.0,-160.0,179.0,40.0,23.0,-18.0,122.0,-657.0,731.0
40.0,-158.0,178.0,46.0,22.0,-15.0,125.0,-660.0,729.0
43.0,-163.0,179.0,48.0,21.0,-16.0,122.0,-661.0,726.0
36.0,-157.0,179.0,48.0,19.0,-18.0,124.0,-663.0,731.0
43.0,-165.0,177.0,46.0,18.0,-18.0,126.0,-664.0,727.0
39.0,-160.0,174.0,43.0,18.0,-18.0,126.0,-659.0,726.0
40.0,-161.0,172.0,41.0,16.0,-17.0,127.0,-660.0,722.0
41.0,-161.0,177.0,38.0,15.0,-16.0,126.0,-663.0,726.0
39.0,-160.0,181.0,38.0,13.0,-15.0,127.0,-662.0,731.0
40.0,-163.0,179.0,41.0,12.0,-16.0,125.0,-667.0,736.0
42.0,-160.0,175.0,43.0,13.0,-15.0,126.0,-662.0,730.0
39.0,-160.0,180.0,44.0,11.0,-15.0,128.0,-656.0,726.0
34.0,-161.0,175.0,45.0,11.0,-17.0,127.0,-662.0,727.0
39.0,-162.0,179.0,45.0,11.0,-19.0,131.0,-663.0,729.0
37.0,-160.0,178.0,45.0,10.0,-18.0,128.0,-660.0,731.0
39.0,-160.0,175.0,45.0,10.0,-16.0,124.0,-661.0,726.0
40.0,-162.0,181.0,48.0,10.0,-17.0,127.0,-667.0,730.0
41.0,-161.0,177.0,50.0,12.0,-20.0,132.0,-661.0,727.0
40.0,-162.0,178.0,55.0,13.0,-19.0,133.0,-668.0,732.0
42.0,-162.0,176.0,59.0,14.0,-20.0,133.0,-661.0,725.0
40.0,-157.0,173.0,60.0,16.0,-20.0,133.0,-656.0,720.0
40.0,-161.0,175.0,58.0,16.0,-20.0,132.0,-656.0,721.0
41.0,-159.0,177.0,55.0,18.0,-19.0,133.0,-655.0,718.0
38.0,-157.0,175.0,53.0,19.0,-19.0,128.0,-655.0,726.0
38.0,-151.0,177.0,52.0,23.0,-22.0,128.0,-654.0,722.0
48.0,-160.0,175.0,53.0,23.0,-20.0,128.0,-661.0,727.0
40.0,-159.0,179.0,53.0,24.0,-19.0,128.0,-655.0,727.0
38.0,-161.0,178.0,55.0,22.0,-20.0,126.0,-661.0,733.0
40.0,-163.0,177.0,60.0,22.0,-20.0,126.0,-660.0,728.0
41.0,-160.0,179.0,65.0,19.0,-22.0,129.0,-665.0,734.0
42.0,-158.0,182.0,70.0,19.0,-21.0,127.0,-663.0,731.0
40.0,-162.0,175.0,72.0,18.0,-24.0,124.0,-658.0,728.0
38.0,-161.0,175.0,73.0,18.0,-24.0,130.0,-660.0,724.0
41.0,-160.0,178.0,75.0,19.0,-24.0,129.0,-660.0,724.0
42.0,-157.0,174.0,74.0,15.0,-24.0,129.0,-653.0,727.0
42.0,-160.0,175.0,72.0,15.0,-23.0,132.0,-650.0,727.0
37.0,-160.0,173.0,69.0,13.0,-23.0,126.0,-651.0,724.0
39.0,-160.0,174.0,66.0,15.0,-23.0,132.0,-652.0,730.0
41.0,-158.0,177.0,63.0,17.0,-22.0,130.0,-654.0,729.0
40.0,-159.0,178.0,61.0,15.0,-21.0,128.0,-661.0,723.0
42.0,-162.0,174.0,60.0,14.0,-17.0,127.0,-664.0,725.0
40.0,-160.0,179.0,62.0,12.0,-16.0,130.0,-663.0,729.0
41.0,-161.0,178.0,65.0,8.0,-15.0,130.0,-666.0,728.0
43.0,-161.0,180.0,68.0,7.0,-13.0,133.0,-663.0,732.0
42.0,-157.0,178.0,73.0,4.0,-14.0,129.0,-663.0,732.0
42.0,-159.0,173.0,76.0,5.0,-14.0,135.0,-663.0,732.0
41.0,-159.0,176.0,78.0,6.0,-14.0,134.0,-660.0,726.0
42.0,-162.0,175.0,79.0,7.0,-15.0,135.0,-661.0,723.0
43.0,-159.0,179.0,80.0,8.0,-14.0,138.0,-656.0,729.0
45.0,-159.0,179.0,81.0,9.0,-16.0,134.0,-651.0,730.0
44.0,-161.0,180.0,80.0,9.0,-17.0,139.0,-655.0,731.0
44.0,-158.0,180.0,80.0,12.0,-16.0,142.0,-659.0,725.0
42.0,-158.0,178.0,80.0,15.0,-16.0,133.0,-658.0,726.0
44.0,-160.0,180.0,80.0,17.0,-13.0,135.0,-655.0,726.0
42.0,-157.0,176.0,78.0,17.0,-14.0,134.0,-654.0,734.0
46.0,-162.0,176.0,76.0,17.0,-14.0,131.0,-660.0,732.0
42.0,-160.0,179.0,74.0,17.0,-14.0,129.0,-654.0,733.0
41.0,-160.0,183.0,72.0,17.0,-14.0,128.0,-650.0,727.0
40.0,-157.0,180.0,69.0,19.0,-15.0,131.0,-646.0,727.0
42.0,-159.0,177.0,66.0,18.0,-14.0,130.0,-653.0,728.0
43.0,-161.0,176.0,63.0,18.0,-13.0,135.0,-650.0,732.0
40.0,-156.0,175.0,62.0,15.0,-15.0,132.0,-650.0,729.0
43.0,-159.0,179.0,64.0,12.0,-14.0,133.0,-651.0,728.0
42.0,-159.0,180.0,67.0,10.0,-15.0,131.0,-650.0,735.0
44.0,-159.0,181.0,71.0,9.0,-14.0,134.0,-650.0,735.0
42.0,-157.0,173.0,76.0,7.0,-13.0,134.0,-651.0,736.0
41.0,-155.0,176.0,80.0,9.0,-13.0,133.0,-653.0,729.0
41.0,-161.0,177.0,83.0,9.0,-14.0,129.0,-652.0,742.0
40.0,-158.0,183.0,87.0,7.0,-13.0,137.0,-656.0,732.0
42.0,-162.0,182.0,91.0,7.0,-12.0,135.0,-652.0,735.0
42.0,-160.0,180.0,91.0,8.0,-13.0,132.0,-652.0,735.0
42.0,-161.0,179.0,91.0,10.0,-13.0,133.0,-654.0,736.0
42.0,-157.0,181.0,86.0,12.0,-14.0,133.0,-650.0,736.0
39.0,-158.0,175.0,79.0,13.0,-15.0,128.0,-653.0,735.0
39.0,-155.0,177.0,73.0,16.0,-11.0,129.0,-656.0,735.0
39.0,-161.0,177.0,65.0,15.0,-11.0,122.0,-651.0,726.0
39.0,-155.0,178.0,60.0,13.0,-10.0,124.0,-656.0,728.0
38.0,-160.0,179.0,57.0,12.0,-11.0,122.0,-655.0,724.0
37.0,-159.0,177.0,56.0,12.0,-11.0,127.0,-655.0,728.0
42.0,-158.0,179.0,56.0,12.0,-13.0,126.0,-652.0,727.0
47.0,-158.0,173.0,60.0,14.0,-13.0,130.0,-652.0,725.0
39.0,-157.0,177.0,62.0,15.0,-14.0,129.0,-657.0,728.0
39.0,-157.0,180.0,67.0,16.0,-16.0,127.0,-650.0,733.0
40.0,-159.0,179.0,72.0,17.0,-17.0,127.0,-653.0,732.0
40.0,-157.0,177.0,77.0,16.0,-17.0,130.0,-654.0,729.0
39.0,-158.0,174.0,82.0,18.0,-19.0,131.0,-651.0,729.0
40.0,-156.0,177.0,85.0,22.0,-20.0,127.0,-649.0,728.0
38.0,-157.0,178.0,89.0,26.0,-21.0,121.0,-649.0,731.0
39.0,-156.0,178.0,90.0,27.0,-19.0,130.0,-642.0,736.0
36.0,-158.0,180.0,90.0,25.0,-18.0,131.0,-647.0,736.0
39.0,-156.0,180.0,91.0,26.0,-18.0,131.0,-650.0,732.0
42.0,-159.0,181.0,89.0,25.0,-16.0,132.0,-644.0,730.0
43.0,-155.0,178.0,85.0,24.0,-16.0,136.0,-648.0,732.0
40.0,-154.0,178.0,78.0,23.0,-15.0,130.0,-654.0,736.0
41.0,-158.0,179.0,75.0,23.0,-16.0,135.0,-648.0,736.0
42.0,-158.0,180.0,70.0,21.0,-15.0,133.0,-651.0,742.0
43.0,-158.0,180.0,69.0,20.0,-15.0,137.0,-649.0,741.0
43.0,-158.0,180.0,68.0,19.0,-15.0,133.0,-645.0,737.0
42.0,-158.0,182.0,67.0,19.0,-14.0,136.0,-650.0,734.0
45.0,-157.0,177.0,68.0,18.0,-15.0,134.0,-649.0,735.0
43.0,-158.0,184.0,68.0,18.0,-14.0,137.0,-652.0,732.0
43.0,-157.0,178.0,67.0,17.0,-14.0,132.0,-650.0,734.0
43.0,-159.0,178.0,69.0,16.0,-14.0,131.0,-654.0,734.0
43.0,-159.0,175.0,71.0,15.0,-14.0,130.0,-652.0,735.0
45.0,-159.0,180.0,73.0,13.0,-14.0,131.0,-650.0,738.0
42.0,-157.0,177.0,75.0,14.0,-16.0,134.0,-652.0,735.0
39.0,-155.0,177.0,75.0,12.0,-16.0,130.0,-641.0,731.0
42.0,-155.0,176.0,76.0,12.0,-15.0,131.0,-643.0,728.0
41.0,-159.0,178.0,73.0,11.0,-16.0,131.0,-640.0,724.0
39.0,-154.0,177.0,69.0,10.0,-17.0,130.0,-638.0,730.0
42.0,-160.0,180.0,65.0,10.0,-13.0,127.0,-646.0,734.0
40.0,-156.0,177.0,62.0,9.0,-12.0,130.0,-647.0,736.0
38.0,-157.0,180.0,63.0,10.0,-12.0,127.0,-647.0,736.0
34.0,-159.0,178.0,65.0,9.0,-10.0,128.0,-652.0,736.0
40.0,-158.0,182.0,67.0,7.0,-12.0,132.0,-651.0,739.0
41.0,-157.0,178.0,68.0,7.0,-12.0,127.0,-651.0,736.0
41.0,-157.0,175.0,71.0,5.0,-10.0,125.0,-645.0,738.0
41.0,-159.0,180.0,72.0,3.0,-10.0,125.0,-653.0,736.0
41.0,-159.0,182.0,72.0,1.0,-10.0,129.0,-654.0,739.0
39.0,-160.0,178.0,73.0,1.0,-10.0,126.0,-649.0,733.0
44.0,-158.0,179.0,73.0,4.0,-10.0,127.0,-649.0,736.0
41.0,-155.0,179.0,75.0,4.0,-9.0,137.0,-641.0,736.0
42.0,-157.0,180.0,75.0,5.0,-11.0,133.0,-648.0,738.0
45.0,-160.0,179.0,76.0,7.0,-12.0,131.0,-643.0,741.0
44.0,-154.0,181.0,76.0,10.0,-11.0,137.0,-643.0,736.0
43.0,-155.0,180.0,78.0,13.0,-13.0,132.0,-649.0,737.0
41.0,-156.0,178.0,74.0,14.0,-13.0,131.0,-649.0,738.0
43.0,-156.0,179.0,71.0,15.0,-14.0,134.0,-649.0,739.0
41.0,-159.0,179.0,71.0,16.0,-16.0,135.0,-652.0,738.0
42.0,-158.0,177.0,69.0,16.0,-14.0,132.0,-648.0,737.0
41.0,-155.0,182.0,68.0,15.0,-15.0,135.0,-647.0,735.0
39.0,-154.0,177.0,66.0,15.0,-12.0,134.0,-648.0,735.0
42.0,-157.0,179.0,65.0,14.0,-12.0,132.0,-647.0,735.0
38.0,-154.0,183.0,62.0,12.0,-13.0,135.0,-643.0,738.0
48.0,-153.0,178.0,60.0,12.0,-14.0,134.0,-646.0,739.0
44.0,-154.0,181.0,60.0,11.0,-14.0,133.0,-644.0,737.0
42.0,-159.0,180.0,61.0,12.0,-14.0,135.0,-644.0,736.0
39.0,-157.0,180.0,61.0,12.0,-14.0,127.0,-643.0,734.0
43.0,-159.0,173.0,63.0,13.0,-13.0,135.0,-641.0,735.0
40.0,-156.0,179.0,65.0,15.0,-14.0,132.0,-638.0,735.0
46.0,-159.0,179.0,65.0,16.0,-13.0,137.0,-645.0,734.0
40.0,-153.0,181.0,66.0,15.0,-13.0,129.0,-649.0,737.0
42.0,-158.0,178.0,65.0,14.0,-14.0,133.0,-641.0,734.0
43.0,-158.0,181.0,66.0,16.0,-13.0,130.0,-645.0,735.0
43.0,-158.0,179.0,67.0,17.0,-13.0,135.0,-649.0,735.0
42.0,-157.0,179.0,67.0,16.0,-15.0,135.0,-642.0,738.0
40.0,-157.0,178.0,68.0,15.0,-13.0,137.0,-643.0,736.0
44.0,-155.0,180.0,67.0,16.0,-15.0,137.0,-639.0,737.0
39.0,-154.0,180.0,68.0,18.0,-14.0,134.0,-641.0,737.0
40.0,-157.0,179.0,67.0,18.0,-13.0,129.0,-641.0,736.0
41.0,-155.0,180.0,67.0,20.0,-14.0,131.0,-648.0,741.0
43.0,-157.0,181.0,69.0,21.0,-14.0,133.0,-638.0,740.0
