acc1_x,acc1_y,acc1_z,gyro_x,gyro_y,gyro_z,acc2_x,acc2_y,acc2_z
5.0,-220.0,107.0,41.0,11.0,-13.0,6.0,-896.0,445.0
6.0,-217.0,107.0,40.0,13.0,-13.0,8.0,-900.0,445.0
6.0,-220.0,108.0,40.0,12.0,-12.0,10.0,-902.0,442.0
6.0,-220.0,104.0,40.0,11.0,-12.0,6.0,-901.0,442.0
4.0,-218.0,106.0,39.0,11.0,-11.0,7.0,-904.0,448.0
1.0,-214.0,102.0,38.0,9.0,-9.0,7.0,-897.0,437.0
5.0,-217.0,112.0,38.0,8.0,-9.0,5.0,-903.0,437.0
6.0,-218.0,110.0,39.0,7.0,-6.0,6.0,-901.0,439.0
2.0,-214.0,110.0,40.0,6.0,-8.0,5.0,-898.0,441.0
6.0,-220.0,102.0,40.0,6.0,-7.0,5.0,-904.0,445.0
5.0,-218.0,102.0,41.0,6.0,-7.0,6.0,-907.0,441.0
6.0,-218.0,108.0,42.0,6.0,-9.0,11.0,-911.0,443.0
5.0,-218.0,101.0,46.0,7.0,-9.0,17.0,-907.0,443.0
8.0,-220.0,106.0,49.0,9.0,-11.0,13.0,-907.0,452.0
9.0,-217.0,108.0,51.0,11.0,-11.0,16.0,-907.0,449.0
12.0,-222.0,105.0,50.0,13.0,-13.0,12.0,-905.0,450.0
8.0,-215.0,103.0,50.0,13.0,-13.0,16.0,-902.0,448.0
10.0,-220.0,109.0,46.0,14.0,-13.0,14.0,-900.0,451.0
7.0,-218.0,107.0,39.0,14.0,-11.0,14.0,-903.0,451.0
8.0,-218.0,109.0,30.0,12.0,-11.0,11.0,-900.0,450.0
8.0,-218.0,105.0,17.0,11.0,-10.0,14.0,-903.0,443.0
7.0,-218.0,104.0,9.0,10.0,-7.0,13.0,-900.0,446.0
7.0,-221.0,107.0,2.0,10.0,-6.0,13.0,-905.0,438.0
5.0,-221.0,105.0,-1.0,10.0,-7.0,6.0,-904.0,442.0
7.0,-220.0,112.0,-1.0,13.0,-8.0,6.0,-906.0,441.0
10.0,-224.0,105.0,-3.0,14.0,-7.0,12.0,-908.0,446.0
10.0,-217.0,109.0,-3.0,15.0,-6.0,10.0,-907.0,443.0
4.0,-222.0,106.0,-1.0,15.0,-6.0,8.0,-907.0,447.0
6.0,-218.0,107.0,1.0,18.0,-6.0,12.0,-910.0,448.0
8.0,-219.0,106.0,1.0,19.0,-8.0,11.0,-906.0,440.0
5.0,-217.0,105.0,4.0,20.0,-9.0,9.0,-909.0,449.0
8.0,-217.0,108.0,4.0,21.0,-9.0,8.0,-896.0,442.0
8.0,-218.0,107.0,0.0,20.0,-10.0,13.0,-904.0,441.0
5.0,-219.0,105.0,-8.0,19.0,-11.0,13.0,-900.0,445.0
2.0,-217.0,109.0,-14.0,19.0,-10.0,8.0,-901.0,434.0
7.0,-218.0,102.0,-18.0,17.0,-8.0,9.0,-903.0,440.0
5.0,-221.0,105.0,-17.0,16.0,-5.0,6.0,-907.0,442.0
4.0,-220.0,105.0,-11.0,15.0,-4.0,4.0,-908.0,433.0
2.0,-221.0,102.0,-8.0,13.0,-3.0,1.0,-910.0,433.0
4.0,-220.0,103.0,-4.0,9.0,-2.0,6.0,-911.0,431.0
6.0,-219.0,107.0,1.0,6.0,-3.0,7.0,-903.0,431.0
8.0,-222.0,105.0,6.0,4.0,-5.0,1.0,-900.0,433.0
4.0,-217.0,107.0,9.0,5.0,-8.0,4.0,-895.0,443.0
2.0,-216.0,108.0,10.0,6.0,-12.0,5.0,-892.0,435.0
5.0,-216.0,107.0,10.0,13.0,-16.0,6.0,-894.0,450.0
6.0,-217.0,110.0,10.0,21.0,-18.0,6.0,-894.0,446.0
10.0,-218.0,104.0,8.0,29.0,-18.0,12.0,-895.0,449.0
6.0,-218.0,108.0,5.0,33.0,-18.0,16.0,-898.0,447.0
4.0,-219.0,102.0,3.0,34.0,-12.0,18.0,-906.0,446.0
8.0,-220.0,103.0,-1.0,31.0,-6.0,15.0,-909.0,448.0
9.0,-221.0,103.0,-2.0,22.0,-1.0,21.0,-913.0,447.0
9.0,-224.0,106.0,-4.0,11.0,1.0,27.0,-913.0,447.0
8.0,-222.0,104.0,-4.0,1.0,3.0,13.0,-912.0,440.0
9.0,-221.0,105.0,-6.0,-4.0,4.0,16.0,-918.0,438.0
7.0,-218.0,104.0,-9.0,-9.0,3.0,13.0,-907.0,433.0
6.0,-215.0,99.0,-12.0,-9.0,2.0,13.0,-904.0,434.0
5.0,-223.0,105.0,-20.0,-3.0,-1.0,8.0,-907.0,436.0
7.0,-219.0,103.0,-26.0,3.0,-3.0,4.0,-898.0,441.0
8.0,-219.0,107.0,-32.0,8.0,-5.0,3.0,-902.0,433.0
0.0,-220.0,106.0,-36.0,13.0,-9.0,5.0,-903.0,442.0
5.0,-218.0,109.0,-38.0,17.0,-11.0,4.0,-900.0,443.0
6.0,-220.0,106.0,-40.0,20.0,-10.0,4.0,-900.0,439.0
3.0,-219.0,105.0,-39.0,20.0,-9.0,8.0,-904.0,441.0
5.0,-219.0,103.0,-39.0,18.0,-8.0,6.0,-908.0,431.0
9.0,-217.0,101.0,-40.0,16.0,-6.0,7.0,-901.0,430.0
4.0,-221.0,103.0,-41.0,12.0,-5.0,8.0,-902.0,426.0
7.0,-220.0,104.0,-43.0,9.0,-4.0,9.0,-910.0,429.0
7.0,-220.0,100.0,-44.0,6.0,-1.0,12.0,-910.0,429.0
7.0,-223.0,104.0,-44.0,6.0,-1.0,14.0,-910.0,425.0
7.0,-224.0,103.0,-40.0,6.0,0.0,14.0,-913.0,429.0
12.0,-219.0,108.0,-34.0,6.0,1.0,18.0,-911.0,432.0
11.0,-220.0,101.0,-28.0,9.0,1.0,21.0,-911.0,422.0
8.0,-220.0,106.0,-23.0,12.0,0.0,19.0,-908.0,430.0
8.0,-220.0,104.0,-21.0,13.0,0.0,17.0,-908.0,419.0
8.0,-217.0,99.0,-18.0,15.0,0.0,16.0,-904.0,422.0
8.0,-220.0,100.0,-20.0,14.0,2.0,15.0,-908.0,422.0
6.0,-221.0,101.0,-24.0,13.0,1.0,19.0,-900.0,420.0
9.0,-219.0,99.0,-28.0,11.0,1.0,19.0,-904.0,420.0
11.0,-219.0,102.0,-31.0,11.0,2.0,12.0,-905.0,421.0
9.0,-220.0,97.0,-32.0,12.0,1.0,12.0,-904.0,418.0
6.0,-222.0,99.0,-30.0,14.0,0.0,12.0,-908.0,423.0
2.0,-220.0,99.0,-28.0,14.0,-2.0,18.0,-911.0,426.0
7.0,-219.0,99.0,-26.0,18.0,-3.0,11.0,-909.0,417.0
8.0,-223.0,104.0,-20.0,21.0,-5.0,15.0,-918.0,422.0
6.0,-224.0,99.0,-15.0,21.0,-5.0,13.0,-913.0,419.0
6.0,-225.0,100.0,-10.0,22.0,-3.0,9.0,-918.0,419.0
4.0,-221.0,105.0,-3.0,21.0,-3.0,11.0,-921.0,417.0
6.0,-221.0,99.0,5.0,20.0,-2.0,10.0,-921.0,420.0
8.0,-230.0,102.0,10.0,16.0,1.0,10.0,-922.0,413.0
5.0,-223.0,95.0,16.0,15.0,-1.0,3.0,-919.0,414.0
1.0,-223.0,98.0,21.0,13.0,-2.0,10.0,-920.0,414.0
8.0,-222.0,94.0,24.0,13.0,-3.0,2.0,-913.0,410.0
9.0,-219.0,103.0,23.0,13.0,-4.0,8.0,-911.0,414.0
4.0,-218.0,100.0,22.0,14.0,-4.0,5.0,-908.0,418.0
4.0,-220.0,105.0,18.0,18.0,-7.0,7.0,-908.0,427.0
6.0,-219.0,100.0,14.0,19.0,-4.0,6.0,-906.0,422.0
6.0,-222.0,100.0,7.0,19.0,-4.0,7.0,-906.0,426.0
6.0,-219.0,101.0,3.0,15.0,-1.0,7.0,-914.0,426.0
9.0,-223.0,102.0,0.0,12.0,1.0,12.0,-909.0,426.0
9.0,-219.0,104.0,-3.0,9.0,3.0,8.0,-907.0,421.0
9.0,-220.0,103.0,-3.0,6.0,2.0,11.0,-910.0,424.0
8.0,-222.0,101.0,-5.0,4.0,1.0,16.0,-911.0,413.0
6.0,-222.0,96.0,-6.0,4.0,1.0,11.0,-910.0,418.0
6.0,-224.0,102.0,-8.0,8.0,-2.0,14.0,-913.0,414.0
8.0,-222.0,99.0,-10.0,12.0,-5.0,13.0,-914.0,419.0
6.0,-222.0,99.0,-12.0,17.0,-6.0,13.0,-915.0,415.0
8.0,-223.0,102.0,-16.0,20.0,-9.0,9.0,-917.0,420.0
7.0,-222.0,99.0,-22.0,20.0,-10.0,12.0,-917.0,415.0
5.0,-222.0,99.0,-29.0,19.0,-13.0,5.0,-915.0,412.0
3.0,-221.0,98.0,-36.0,17.0,-12.0,7.0,-913.0,408.0
5.0,-224.0,96.0,-42.0,13.0,-12.0,5.0,-915.0,419.0
2.0,-221.0,101.0,-45.0,10.0,-11.0,6.0,-914.0,411.0
6.0,-224.0,98.0,-45.0,8.0,-10.0,10.0,-913.0,413.0
6.0,-223.0,95.0,-42.0,8.0,-11.0,6.0,-913.0,415.0
4.0,-222.0,99.0,-34.0,11.0,-9.0,9.0,-914.0,410.0
7.0,-223.0,97.0,-24.0,12.0,-7.0,3.0,-919.0,410.0
2.0,-224.0,98.0,-15.0,13.0,-8.0,8.0,-917.0,410.0
6.0,-224.0,95.0,-7.0,13.0,-6.0,5.0,-916.0,415.0
3.0,-224.0,97.0,-1.0,13.0,-3.0,8.0,-922.0,409.0
5.0,-223.0,99.0,3.0,12.0,-3.0,10.0,-922.0,412.0
7.0,-224.0,91.0,7.0,11.0,-3.0,9.0,-922.0,409.0
7.0,-224.0,100.0,7.0,11.0,-5.0,5.0,-921.0,408.0
5.0,-224.0,95.0,6.0,11.0,-7.0,10.0,-920.0,407.0
10.0,-226.0,104.0,5.0,13.0,-7.0,11.0,-922.0,412.0
7.0,-229.0,94.0,2.0,17.0,-9.0,9.0,-920.0,412.0
6.0,-223.0,99.0,0.0,21.0,-12.0,11.0,-919.0,408.0
6.0,-219.0,100.0,-3.0,23.0,-13.0,14.0,-920.0,414.0
7.0,-225.0,98.0,-4.0,27.0,-14.0,12.0,-920.0,409.0
3.0,-221.0,99.0,-6.0,29.0,-15.0,11.0,-910.0,402.0
7.0,-222.0,97.0,-8.0,31.0,-16.0,12.0,-910.0,412.0
2.0,-222.0,101.0,-8.0,30.0,-14.0,8.0,-913.0,405.0
3.0,-223.0,96.0,-10.0,28.0,-13.0,7.0,-910.0,404.0
4.0,-225.0,96.0,-10.0,27.0,-13.0,6.0,-918.0,403.0
4.0,-223.0,98.0,-9.0,25.0,-13.0,3.0,-913.0,402.0
3.0,-222.0,96.0,-9.0,20.0,-11.0,2.0,-915.0,401.0
3.0,-219.0,92.0,-6.0,16.0,-10.0,9.0,-917.0,397.0
3.0,-223.0,96.0,-2.0,15.0,-9.0,3.0,-918.0,397.0
5.0,-219.0,92.0,3.0,13.0,-9.0,6.0,-921.0,400.0
3.0,-222.0,97.0,10.0,13.0,-10.0,6.0,-923.0,402.0
5.0,-225.0,96.0,17.0,14.0,-12.0,10.0,-916.0,408.0
4.0,-222.0,98.0,24.0,17.0,-15.0,10.0,-921.0,406.0
7.0,-224.0,99.0,27.0,21.0,-16.0,11.0,-917.0,405.0
6.0,-224.0,93.0,29.0,25.0,-17.0,13.0,-914.0,404.0
2.0,-221.0,90.0,26.0,28.0,-17.0,9.0,-920.0,389.0
3.0,-222.0,93.0,22.0,30.0,-20.0,3.0,-919.0,395.0
5.0,-223.0,91.0,13.0,31.0,-19.0,2.0,-913.0,383.0
3.0,-222.0,93.0,7.0,30.0,-18.0,6.0,-913.0,392.0
6.0,-223.0,97.0,5.0,30.0,-17.0,6.0,-918.0,404.0
5.0,-223.0,96.0,4.0,30.0,-15.0,8.0,-915.0,409.0
6.0,-222.0,94.0,8.0,28.0,-16.0,0.0,-923.0,416.0
5.0,-223.0,102.0,13.0,27.0,-16.0,0.0,-916.0,418.0
5.0,-225.0,100.0,19.0,27.0,-15.0,9.0,-917.0,417.0
8.0,-225.0,100.0,26.0,26.0,-16.0,10.0,-914.0,408.0
8.0,-220.0,97.0,29.0,23.0,-17.0,8.0,-918.0,414.0
5.0,-222.0,97.0,32.0,22.0,-17.0,15.0,-913.0,408.0
7.0,-222.0,99.0,30.0,20.0,-17.0,19.0,-919.0,408.0
5.0,-224.0,97.0,26.0,21.0,-16.0,15.0,-923.0,413.0
3.0,-223.0,95.0,19.0,20.0,-15.0,15.0,-923.0,408.0
7.0,-224.0,98.0,12.0,23.0,-16.0,13.0,-923.0,407.0
6.0,-225.0,96.0,5.0,26.0,-14.0,15.0,-923.0,400.0
3.0,-223.0,94.0,-1.0,28.0,-13.0,14.0,-920.0,400.0
8.0,-225.0,94.0,-6.0,31.0,-14.0,21.0,-922.0,398.0
9.0,-223.0,97.0,-10.0,30.0,-14.0,15.0,-915.0,396.0
6.0,-223.0,95.0,-12.0,28.0,-11.0,13.0,-922.0,401.0
2.0,-223.0,95.0,-14.0,25.0,-15.0,13.0,-915.0,401.0
5.0,-225.0,97.0,-13.0,23.0,-18.0,13.0,-916.0,402.0
7.0,-222.0,97.0,-11.0,24.0,-21.0,9.0,-920.0,402.0
4.0,-226.0,94.0,-3.0,28.0,-23.0,9.0,-925.0,395.0
0.0,-223.0,94.0,6.0,33.0,-24.0,9.0,-927.0,403.0
7.0,-224.0,97.0,12.0,36.0,-26.0,8.0,-929.0,388.0
1.0,-227.0,91.0,17.0,36.0,-24.0,10.0,-937.0,393.0
6.0,-231.0,98.0,21.0,34.0,-22.0,7.0,-942.0,389.0
5.0,-225.0,98.0,24.0,30.0,-19.0,9.0,-935.0,399.0
6.0,-228.0,97.0,29.0,23.0,-19.0,6.0,-933.0,390.0
6.0,-228.0,95.0,33.0,18.0,-17.0,15.0,-927.0,397.0
8.0,-225.0,95.0,38.0,14.0,-17.0,8.0,-923.0,393.0
5.0,-223.0,96.0,40.0,12.0,-14.0,3.0,-917.0,391.0
4.0,-220.0,96.0,36.0,13.0,-11.0,9.0,-917.0,398.0
4.0,-224.0,93.0,28.0,13.0,-10.0,5.0,-919.0,392.0
12.0,-214.0,91.0,17.0,12.0,-16.0,4.0,-908.0,403.0
8.0,-220.0,96.0,9.0,13.0,-15.0,8.0,-907.0,406.0
8.0,-221.0,98.0,5.0,13.0,-11.0,7.0,-909.0,409.0
8.0,-223.0,101.0,5.0,16.0,-10.0,13.0,-910.0,409.0
9.0,-223.0,96.0,7.0,19.0,-11.0,10.0,-916.0,409.0
6.0,-221.0,95.0,9.0,20.0,-12.0,12.0,-923.0,406.0
3.0,-221.0,94.0,7.0,22.0,-13.0,12.0,-920.0,399.0
8.0,-222.0,96.0,3.0,24.0,-11.0,7.0,-925.0,399.0
5.0,-226.0,95.0,-2.0,24.0,-12.0,15.0,-932.0,388.0
7.0,-228.0,97.0,-7.0,24.0,-11.0,9.0,-924.0,391.0
6.0,-222.0,96.0,-10.0,23.0,-8.0,14.0,-924.0,393.0
5.0,-230.0,101.0,-9.0,22.0,-10.0,12.0,-923.0,394.0
7.0,-224.0,94.0,-5.0,20.0,-9.0,14.0,-926.0,396.0
4.0,-225.0,95.0,1.0,20.0,-8.0,17.0,-927.0,401.0
8.0,-224.0,95.0,8.0,19.0,-9.0,9.0,-924.0,402.0
7.0,-226.0,98.0,15.0,19.0,-6.0,17.0,-919.0,400.0
8.0,-225.0,92.0,21.0,19.0,-7.0,11.0,-917.0,396.0
5.0,-222.0,97.0,27.0,17.0,-6.0,13.0,-919.0,395.0
4.0,-223.0,94.0,29.0,17.0,-7.0,13.0,-917.0,396.0
5.0,-221.0,95.0,30.0,18.0,-6.0,8.0,-919.0,398.0
5.0,-224.0,93.0,30.0,17.0,-7.0,6.0,-916.0,393.0
5.0,-225.0,97.0,29.0,18.0,-7.0,6.0,-919.0,404.0
1.0,-225.0,91.0,27.0,17.0,-6.0,9.0,-914.0,397.0
5.0,-222.0,93.0,27.0,15.0,-5.0,6.0,-923.0,395.0
7.0,-224.0,97.0,27.0,13.0,-5.0,6.0,-919.0,390.0
8.0,-226.0,94.0,26.0,13.0,-5.0,4.0,-915.0,395.0
3.0,-224.0,96.0,29.0,12.0,-4.0,6.0,-927.0,393.0
8.0,-227.0,91.0,31.0,12.0,-5.0,8.0,-923.0,386.0
7.0,-227.0,93.0,33.0,12.0,-6.0,11.0,-924.0,395.0
3.0,-224.0,94.0,35.0,12.0,-5.0,13.0,-922.0,397.0
10.0,-225.0,91.0,36.0,13.0,-4.0,11.0,-927.0,392.0
6.0,-223.0,96.0,37.0,15.0,-2.0,13.0,-928.0,393.0
6.0,-227.0,91.0,39.0,17.0,-4.0,18.0,-924.0,384.0
8.0,-224.0,90.0,41.0,19.0,-3.0,18.0,-926.0,383.0
6.0,-227.0,91.0,44.0,21.0,-3.0,15.0,-928.0,379.0
9.0,-227.0,89.0,47.0,24.0,-3.0,8.0,-924.0,382.0
9.0,-223.0,93.0,50.0,27.0,-5.0,11.0,-923.0,382.0
6.0,-224.0,92.0,52.0,30.0,-5.0,15.0,-919.0,387.0
6.0,-220.0,91.0,49.0,34.0,-6.0,10.0,-913.0,383.0
8.0,-224.0,97.0,46.0,34.0,-6.0,7.0,-918.0,386.0
3.0,-221.0,94.0,41.0,34.0,-7.0,8.0,-913.0,392.0
4.0,-224.0,94.0,37.0,34.0,-5.0,9.0,-920.0,405.0
7.0,-224.0,96.0,30.0,32.0,-4.0,8.0,-924.0,393.0
8.0,-228.0,92.0,28.0,29.0,-1.0,10.0,-930.0,389.0
7.0,-228.0,93.0,26.0,28.0,1.0,9.0,-931.0,386.0
3.0,-229.0,95.0,29.0,26.0,0.0,10.0,-934.0,397.0
5.0,-227.0,92.0,33.0,25.0,0.0,12.0,-937.0,392.0
5.0,-228.0,91.0,37.0,23.0,0.0,8.0,-938.0,387.0
7.0,-227.0,91.0,42.0,24.0,1.0,10.0,-930.0,388.0
4.0,-224.0,89.0,45.0,24.0,1.0,14.0,-926.0,383.0
4.0,-225.0,89.0,43.0,26.0,0.0,8.0,-926.0,379.0
3.0,-223.0,91.0,40.0,27.0,-1.0,8.0,-922.0,377.0
9.0,-227.0,93.0,37.0,28.0,-2.0,8.0,-921.0,375.0
0.0,-220.0,88.0,31.0,27.0,-2.0,6.0,-917.0,382.0
1.0,-215.0,95.0,27.0,28.0,-4.0,7.0,-918.0,378.0
7.0,-225.0,89.0,22.0,28.0,-1.0,5.0,-913.0,382.0
4.0,-223.0,92.0,16.0,29.0,-1.0,6.0,-915.0,388.0
3.0,-222.0,90.0,12.0,29.0,-2.0,-3.0,-914.0,389.0
4.0,-222.0,93.0,11.0,27.0,-3.0,2.0,-921.0,390.0
5.0,-228.0,95.0,9.0,26.0,-4.0,2.0,-930.0,384.0
5.0,-226.0,94.0,9.0,24.0,-4.0,6.0,-924.0,394.0
2.0,-226.0,89.0,9.0,23.0,-5.0,1.0,-934.0,395.0
3.0,-226.0,93.0,11.0,23.0,-5.0,7.0,-935.0,390.0
2.0,-226.0,91.0,14.0,24.0,-5.0,4.0,-932.0,396.0
5.0,-226.0,93.0,16.0,23.0,-4.0,3.0,-929.0,388.0
4.0,-225.0,92.0,18.0,24.0,-3.0,5.0,-927.0,387.0
7.0,-226.0,91.0,18.0,24.0,-1.0,9.0,-928.0,381.0
3.0,-226.0,94.0,18.0,25.0,-1.0,2.0,-915.0,393.0
4.0,-224.0,94.0,16.0,24.0,-1.0,-2.0,-924.0,398.0
6.0,-225.0,95.0,16.0,23.0,0.0,1.0,-924.0,388.0
4.0,-226.0,94.0,16.0,20.0,-2.0,5.0,-922.0,390.0
6.0,-224.0,93.0,15.0,18.0,0.0,0.0,-921.0,397.0
2.0,-224.0,94.0,17.0,18.0,-2.0,3.0,-925.0,399.0
6.0,-223.0,98.0,19.0,18.0,-1.0,4.0,-928.0,397.0
3.0,-224.0,90.0,22.0,17.0,-1.0,1.0,-928.0,393.0
4.0,-227.0,90.0,23.0,16.0,-1.0,4.0,-931.0,386.0
7.0,-228.0,96.0,24.0,14.0,0.0,1.0,-932.0,388.0
3.0,-225.0,95.0,26.0,15.0,-2.0,5.0,-929.0,384.0
3.0,-225.0,92.0,27.0,16.0,-4.0,4.0,-929.0,384.0
4.0,-226.0,90.0,28.0,16.0,-5.0,5.0,-929.0,381.0
3.0,-227.0,90.0,29.0,16.0,-7.0,6.0,-934.0,383.0
5.0,-227.0,92.0,32.0,18.0,-8.0,8.0,-930.0,390.0
1.0,-226.0,90.0,34.0,18.0,-9.0,3.0,-926.0,389.0
6.0,-224.0,94.0,37.0,19.0,-10.0,3.0,-928.0,391.0
4.0,-224.0,92.0,40.0,19.0,-11.0,7.0,-926.0,386.0
2.0,-226.0,88.0,43.0,22.0,-10.0,5.0,-925.0,387.0
5.0,-224.0,93.0,44.0,21.0,-12.0,4.0,-916.0,387.0
-1.0,-225.0,93.0,45.0,21.0,-12.0,2.0,-925.0,385.0
2.0,-222.0,95.0,43.0,19.0,-12.0,5.0,-925.0,390.0
4.0,-226.0,90.0,42.0,15.0,-11.0,1.0,-924.0,383.0
3.0,-224.0,93.0,41.0,15.0,-10.0,0.0,-926.0,388.0
3.0,-229.0,93.0,38.0,13.0,-8.0,1.0,-928.0,384.0
4.0,-226.0,94.0,38.0,12.0,-9.0,-2.0,-923.0,389.0
2.0,-224.0,91.0,38.0,12.0,-6.0,1.0,-928.0,388.0
4.0,-225.0,89.0,39.0,11.0,-7.0,1.0,-926.0,386.0
4.0,-225.0,93.0,38.0,11.0,-4.0,2.0,-925.0,386.0
7.0,-225.0,94.0,35.0,10.0,-5.0,4.0,-931.0,389.0
9.0,-227.0,95.0,32.0,7.0,-4.0,8.0,-927.0,384.0
2.0,-223.0,92.0,29.0,6.0,-4.0,8.0,-931.0,389.0
7.0,-226.0,94.0,27.0,6.0,-4.0,13.0,-929.0,392.0
5.0,-226.0,93.0,27.0,5.0,-2.0,5.0,-935.0,390.0
5.0,-227.0,90.0,30.0,3.0,-2.0,7.0,-932.0,381.0
5.0,-224.0,93.0,31.0,2.0,-3.0,7.0,-925.0,380.0
6.0,-225.0,91.0,32.0,1.0,-6.0,6.0,-922.0,382.0
5.0,-224.0,94.0,32.0,2.0,-10.0,0.0,-922.0,380.0
7.0,-226.0,94.0,32.0,4.0,-14.0,2.0,-927.0,380.0
4.0,-225.0,88.0,34.0,8.0,-17.0,0.0,-927.0,379.0
4.0,-227.0,91.0,38.0,13.0,-18.0,4.0,-931.0,377.0
4.0,-228.0,87.0,41.0,17.0,-20.0,4.0,-932.0,377.0
1.0,-225.0,78.0,40.0,19.0,-20.0,4.0,-931.0,380.0
3.0,-227.0,90.0,39.0,20.0,-18.0,8.0,-933.0,377.0
3.0,-227.0,94.0,36.0,18.0,-16.0,6.0,-929.0,380.0
7.0,-229.0,89.0,35.0,13.0,-14.0,4.0,-935.0,376.0
1.0,-226.0,92.0,36.0,7.0,-12.0,6.0,-937.0,376.0
7.0,-228.0,92.0,39.0,2.0,-10.0,3.0,-933.0,374.0
2.0,-226.0,92.0,42.0,-3.0,-12.0,7.0,-930.0,380.0
5.0,-226.0,92.0,46.0,-6.0,-11.0,1.0,-928.0,383.0
4.0,-225.0,92.0,48.0,-7.0,-11.0,5.0,-922.0,377.0
3.0,-225.0,92.0,50.0,-6.0,-12.0,-2.0,-922.0,378.0
6.0,-223.0,88.0,50.0,-3.0,-11.0,2.0,-921.0,380.0
4.0,-226.0,92.0,49.0,0.0,-15.0,6.0,-922.0,382.0
3.0,-224.0,94.0,47.0,4.0,-13.0,7.0,-924.0,381.0
5.0,-227.0,91.0,45.0,5.0,-15.0,3.0,-921.0,387.0
5.0,-224.0,90.0,43.0,7.0,-18.0,8.0,-927.0,379.0
5.0,-225.0,92.0,42.0,8.0,-18.0,8.0,-923.0,383.0
5.0,-225.0,91.0,39.0,9.0,-18.0,10.0,-931.0,379.0
7.0,-227.0,89.0,36.0,10.0,-20.0,6.0,-927.0,380.0
6.0,-226.0,88.0,32.0,12.0,-17.0,7.0,-925.0,380.0
4.0,-224.0,91.0,28.0,14.0,-16.0,10.0,-932.0,383.0
5.0,-227.0,87.0,26.0,16.0,-15.0,6.0,-935.0,385.0
5.0,-225.0,90.0,24.0,16.0,-14.0,6.0,-929.0,382.0
6.0,-227.0,87.0,25.0,14.0,-13.0,8.0,-931.0,379.0
5.0,-227.0,89.0,28.0,14.0,-11.0,7.0,-940.0,386.0
4.0,-229.0,95.0,34.0,12.0,-11.0,10.0,-934.0,381.0
4.0,-229.0,93.0,42.0,9.0,-10.0,12.0,-927.0,374.0
5.0,-227.0,91.0,49.0,7.0,-10.0,13.0,-931.0,378.0
5.0,-225.0,95.0,56.0,5.0,-9.0,7.0,-929.0,375.0
8.0,-225.0,93.0,63.0,4.0,-10.0,11.0,-929.0,381.0
6.0,-225.0,87.0,67.0,5.0,-11.0,11.0,-926.0,379.0
4.0,-224.0,92.0,70.0,6.0,-12.0,12.0,-926.0,374.0
8.0,-224.0,87.0,69.0,6.0,-14.0,12.0,-921.0,376.0
6.0,-223.0,91.0,64.0,5.0,-16.0,11.0,-930.0,378.0
7.0,-225.0,88.0,59.0,6.0,-17.0,8.0,-929.0,373.0
5.0,-227.0,87.0,53.0,7.0,-17.0,10.0,-924.0,371.0
5.0,-228.0,93.0,48.0,8.0,-16.0,9.0,-931.0,373.0
7.0,-227.0,90.0,46.0,8.0,-16.0,11.0,-926.0,378.0
9.0,-227.0,89.0,45.0,10.0,-16.0,11.0,-926.0,374.0
7.0,-226.0,90.0,46.0,12.0,-16.0,9.0,-933.0,371.0
4.0,-226.0,91.0,48.0,12.0,-14.0,8.0,-926.0,375.0
9.0,-226.0,89.0,51.0,12.0,-13.0,5.0,-930.0,374.0
6.0,-225.0,88.0,53.0,11.0,-12.0,7.0,-926.0,385.0
8.0,-226.0,91.0,56.0,11.0,-12.0,11.0,-936.0,383.0
7.0,-226.0,87.0,58.0,10.0,-10.0,13.0,-933.0,385.0
5.0,-228.0,94.0,57.0,8.0,-11.0,8.0,-936.0,382.0
7.0,-227.0,92.0,58.0,7.0,-12.0,11.0,-932.0,395.0
3.0,-226.0,89.0,58.0,7.0,-11.0,10.0,-931.0,385.0
5.0,-227.0,93.0,58.0,7.0,-11.0,5.0,-924.0,383.0
4.0,-227.0,88.0,59.0,8.0,-12.0,10.0,-922.0,377.0
4.0,-222.0,94.0,58.0,9.0,-14.0,4.0,-920.0,379.0
5.0,-226.0,89.0,57.0,12.0,-14.0,7.0,-919.0,378.0
8.0,-224.0,93.0,52.0,13.0,-14.0,8.0,-920.0,387.0
7.0,-225.0,95.0,49.0,14.0,-13.0,11.0,-924.0,385.0
8.0,-228.0,88.0,44.0,13.0,-12.0,9.0,-929.0,388.0
8.0,-228.0,90.0,42.0,11.0,-11.0,8.0,-930.0,388.0
6.0,-228.0,90.0,39.0,8.0,-6.0,12.0,-934.0,384.0
4.0,-226.0,90.0,41.0,7.0,-4.0,6.0,-929.0,377.0
4.0,-229.0,91.0,45.0,2.0,-5.0,4.0,-932.0,375.0
3.0,-228.0,91.0,49.0,2.0,-4.0,6.0,-935.0,378.0
3.0,-224.0,89.0,51.0,3.0,-5.0,8.0,-932.0,376.0
1.0,-225.0,91.0,51.0,5.0,-5.0,3.0,-932.0,379.0
4.0,-227.0,91.0,48.0,8.0,-4.0,3.0,-930.0,377.0
5.0,-223.0,95.0,46.0,8.0,-4.0,4.0,-921.0,385.0
1.0,-226.0,90.0,42.0,9.0,-4.0,8.0,-921.0,376.0
5.0,-223.0,90.0,40.0,10.0,-6.0,7.0,-921.0,374.0
1.0,-227.0,95.0,38.0,9.0,-8.0,6.0,-923.0,382.0
5.0,-225.0,92.0,38.0,9.0,-8.0,3.0,-925.0,371.0
4.0,-226.0,90.0,37.0,11.0,-11.0,11.0,-926.0,376.0
3.0,-224.0,90.0,38.0,10.0,-10.0,13.0,-928.0,382.0
8.0,-228.0,91.0,39.0,11.0,-10.0,11.0,-926.0,379.0
5.0,-226.0,91.0,44.0,13.0,-9.0,13.0,-925.0,383.0
6.0,-228.0,91.0,46.0,13.0,-9.0,5.0,-932.0,376.0
7.0,-227.0,92.0,46.0,13.0,-8.0,7.0,-930.0,381.0
3.0,-225.0,90.0,48.0,13.0,-8.0,7.0,-936.0,377.0
4.0,-227.0,88.0,47.0,14.0,-8.0,8.0,-935.0,380.0
5.0,-226.0,90.0,45.0,13.0,-6.0,2.0,-932.0,378.0
3.0,-223.0,85.0,45.0,12.0,-5.0,4.0,-924.0,379.0
2.0,-222.0,90.0,45.0,12.0,-6.0,3.0,-928.0,383.0
6.0,-224.0,93.0,43.0,11.0,-4.0,-1.0,-922.0,380.0
4.0,-223.0,93.0,43.0,10.0,-4.0,2.0,-923.0,386.0
6.0,-225.0,94.0,42.0,11.0,-2.0,8.0,-926.0,380.0
6.0,-227.0,90.0,40.0,10.0,-3.0,7.0,-920.0,386.0
6.0,-224.0,91.0,38.0,9.0,-1.0,1.0,-922.0,390.0
8.0,-222.0,94.0,34.0,8.0,-2.0,6.0,-923.0,382.0
5.0,-224.0,93.0,29.0,6.0,-2.0,2.0,-920.0,391.0
0.0,-225.0,87.0,27.0,5.0,-2.0,1.0,-927.0,386.0
0.0,-223.0,89.0,23.0,4.0,-1.0,5.0,-927.0,378.0
8.0,-227.0,89.0,22.0,4.0,-1.0,7.0,-929.0,383.0
1.0,-224.0,96.0,22.0,7.0,-4.0,7.0,-933.0,380.0
4.0,-225.0,93.0,24.0,9.0,-5.0,5.0,-933.0,380.0
4.0,-228.0,91.0,24.0,11.0,-7.0,8.0,-934.0,375.0
3.0,-228.0,91.0,25.0,14.0,-7.0,8.0,-933.0,379.0
7.0,-231.0,87.0,28.0,15.0,-8.0,8.0,-932.0,381.0
4.0,-226.0,91.0,31.0,16.0,-9.0,6.0,-931.0,375.0
2.0,-226.0,96.0,33.0,18.0,-9.0,11.0,-931.0,380.0
8.0,-227.0,90.0,37.0,20.0,-9.0,10.0,-935.0,384.0
6.0,-226.0,91.0,41.0,20.0,-8.0,8.0,-931.0,378.0
6.0,-228.0,90.0,46.0,21.0,-8.0,8.0,-929.0,377.0
4.0,-231.0,86.0,49.0,23.0,-11.0,9.0,-933.0,370.0
6.0,-227.0,90.0,52.0,24.0,-11.0,6.0,-931.0,377.0
5.0,-228.0,88.0,55.0,25.0,-10.0,9.0,-932.0,374.0
3.0,-224.0,91.0,56.0,26.0,-10.0,9.0,-931.0,378.0
6.0,-225.0,93.0,55.0,27.0,-12.0,4.0,-932.0,381.0
5.0,-230.0,92.0,54.0,26.0,-10.0,6.0,-928.0,379.0
3.0,-222.0,93.0,50.0,26.0,-9.0,8.0,-926.0,381.0
8.0,-225.0,89.0,46.0,27.0,-8.0,12.0,-931.0,374.0
3.0,-223.0,91.0,40.0,27.0,-8.0,10.0,-933.0,381.0
6.0,-228.0,90.0,37.0,25.0,-7.0,9.0,-933.0,370.0
8.0,-227.0,92.0,35.0,25.0,-5.0,9.0,-937.0,378.0
6.0,-227.0,87.0,36.0,24.0,-4.0,15.0,-932.0,375.0
5.0,-227.0,88.0,38.0,22.0,-3.0,5.0,-931.0,375.0
6.0,-226.0,94.0,41.0,17.0,-3.0,8.0,-926.0,370.0
6.0,-224.0,93.0,43.0,15.0,-6.0,7.0,-929.0,376.0
3.0,-222.0,91.0,44.0,15.0,-8.0,5.0,-928.0,374.0
4.0,-225.0,88.0,45.0,17.0,-11.0,2.0,-923.0,377.0
4.0,-226.0,89.0,44.0,20.0,-14.0,4.0,-924.0,376.0
3.0,-225.0,89.0,45.0,25.0,-16.0,0.0,-931.0,377.0
4.0,-223.0,92.0,46.0,29.0,-20.0,1.0,-929.0,374.0
5.0,-226.0,88.0,46.0,33.0,-19.0,4.0,-934.0,376.0
4.0,-228.0,89.0,47.0,35.0,-20.0,7.0,-935.0,376.0
7.0,-232.0,93.0,49.0,33.0,-17.0,10.0,-938.0,377.0
3.0,-230.0,89.0,53.0,30.0,-15.0,9.0,-937.0,372.0
4.0,-232.0,92.0,59.0,23.0,-13.0,5.0,-935.0,374.0
6.0,-230.0,84.0,64.0,17.0,-13.0,7.0,-942.0,373.0
4.0,-229.0,90.0,71.0,11.0,-12.0,8.0,-932.0,374.0
2.0,-223.0,88.0,72.0,8.0,-11.0,7.0,-931.0,369.0
2.0,-224.0,92.0,72.0,6.0,-15.0,-2.0,-928.0,377.0
3.0,-227.0,94.0,69.0,7.0,-14.0,2.0,-930.0,376.0
4.0,-228.0,92.0,66.0,10.0,-16.0,-1.0,-926.0,385.0
4.0,-227.0,92.0,63.0,12.0,-18.0,4.0,-923.0,383.0
4.0,-221.0,91.0,60.0,15.0,-19.0,-2.0,-921.0,391.0
3.0,-227.0,94.0,60.0,17.0,-18.0,1.0,-921.0,387.0
5.0,-224.0,93.0,60.0,18.0,-17.0,6.0,-925.0,387.0
6.0,-221.0,90.0,60.0,17.0,-17.0,-1.0,-927.0,378.0
4.0,-225.0,88.0,58.0,15.0,-18.0,7.0,-923.0,376.0
5.0,-225.0,93.0,53.0,14.0,-17.0,3.0,-928.0,385.0
2.0,-223.0,87.0,49.0,12.0,-16.0,5.0,-927.0,376.0
1.0,-225.0,92.0,45.0,11.0,-15.0,2.0,-927.0,377.0
5.0,-225.0,90.0,41.0,10.0,-14.0,9.0,-928.0,376.0
3.0,-223.0,94.0,39.0,12.0,-12.0,9.0,-931.0,379.0
3.0,-226.0,92.0,37.0,14.0,-11.0,6.0,-932.0,379.0
6.0,-233.0,98.0,38.0,15.0,-9.0,7.0,-936.0,379.0
5.0,-226.0,92.0,36.0,14.0,-9.0,7.0,-936.0,383.0
5.0,-228.0,91.0,35.0,17.0,-7.0,7.0,-932.0,375.0
6.0,-228.0,93.0,35.0,17.0,-9.0,9.0,-932.0,377.0
4.0,-227.0,94.0,35.0,18.0,-10.0,9.0,-935.0,382.0
5.0,-225.0,91.0,35.0,20.0,-11.0,14.0,-929.0,374.0
4.0,-227.0,91.0,37.0,20.0,-12.0,9.0,-928.0,376.0
8.0,-228.0,94.0,37.0,21.0,-15.0,9.0,-924.0,376.0
6.0,-226.0,92.0,36.0,20.0,-15.0,7.0,-929.0,373.0
6.0,-227.0,90.0,38.0,22.0,-15.0,10.0,-931.0,379.0
9.0,-225.0,90.0,38.0,20.0,-18.0,5.0,-933.0,381.0
9.0,-228.0,89.0,39.0,21.0,-17.0,6.0,-932.0,374.0
7.0,-230.0,93.0,42.0,19.0,-17.0,8.0,-929.0,377.0
3.0,-226.0,92.0,44.0,18.0,-17.0,6.0,-929.0,376.0
3.0,-224.0,93.0,47.0,17.0,-15.0,2.0,-929.0,374.0
5.0,-226.0,87.0,48.0,16.0,-15.0,3.0,-931.0,367.0
2.0,-226.0,90.0,47.0,16.0,-16.0,5.0,-925.0,378.0
6.0,-225.0,90.0,52.0,16.0,-14.0,5.0,-923.0,372.0
4.0,-228.0,89.0,53.0,16.0,-14.0,-1.0,-931.0,373.0
-1.0,-225.0,92.0,53.0,15.0,-15.0,1.0,-927.0,375.0
4.0,-226.0,86.0,56.0,14.0,-15.0,3.0,-924.0,381.0
5.0,-226.0,92.0,58.0,13.0,-15.0,12.0,-927.0,374.0
4.0,-228.0,92.0,60.0,13.0,-15.0,3.0,-929.0,372.0
6.0,-226.0,91.0,63.0,12.0,-16.0,14.0,-922.0,376.0
7.0,-225.0,91.0,64.0,11.0,-17.0,10.0,-922.0,386.0
4.0,-222.0,90.0,64.0,9.0,-17.0,12.0,-920.0,378.0
5.0,-222.0,97.0,60.0,8.0,-18.0,12.0,-916.0,378.0
6.0,-222.0,91.0,54.0,6.0,-16.0,9.0,-923.0,380.0
7.0,-225.0,92.0,45.0,4.0,-13.0,7.0,-927.0,380.0
4.0,-226.0,94.0,37.0,3.0,-12.0,11.0,-927.0,389.0
5.0,-226.0,89.0,31.0,2.0,-9.0,8.0,-925.0,383.0
4.0,-224.0,92.0,28.0,0.0,-8.0,6.0,-932.0,382.0
6.0,-229.0,88.0,30.0,-1.0,-6.0,3.0,-932.0,381.0
3.0,-228.0,92.0,33.0,0.0,-5.0,2.0,-933.0,378.0
4.0,-228.0,92.0,38.0,2.0,-7.0,8.0,-930.0,376.0
6.0,-228.0,93.0,44.0,6.0,-8.0,2.0,-929.0,383.0
3.0,-225.0,91.0,47.0,10.0,-8.0,10.0,-933.0,380.0
4.0,-226.0,90.0,51.0,12.0,-10.0,2.0,-930.0,381.0
6.0,-224.0,91.0,51.0,15.0,-11.0,4.0,-924.0,377.0
7.0,-228.0,91.0,49.0,17.0,-14.0,3.0,-934.0,375.0
8.0,-227.0,93.0,48.0,18.0,-13.0,7.0,-927.0,377.0
4.0,-227.0,87.0,48.0,18.0,-13.0,6.0,-927.0,374.0
6.0,-226.0,94.0,47.0,17.0,-14.0,7.0,-935.0,371.0
8.0,-228.0,92.0,46.0,14.0,-13.0,7.0,-934.0,376.0
-2.0,-225.0,86.0,45.0,12.0,-14.0,7.0,-933.0,380.0
6.0,-227.0,90.0,44.0,12.0,-14.0,12.0,-930.0,383.0
6.0,-226.0,92.0,46.0,9.0,-15.0,7.0,-933.0,373.0
4.0,-227.0,91.0,46.0,8.0,-16.0,9.0,-933.0,373.0
6.0,-226.0,88.0,48.0,8.0,-15.0,13.0,-930.0,374.0
6.0,-227.0,91.0,48.0,7.0,-14.0,9.0,-926.0,379.0
5.0,-225.0,88.0,50.0,7.0,-13.0,11.0,-931.0,377.0
3.0,-223.0,92.0,51.0,7.0,-12.0,9.0,-927.0,369.0
2.0,-225.0,87.0,52.0,8.0,-11.0,11.0,-924.0,375.0
6.0,-227.0,92.0,52.0,7.0,-10.0,10.0,-926.0,372.0
7.0,-226.0,93.0,53.0,6.0,-13.0,12.0,-926.0,377.0
-1.0,-224.0,85.0,55.0,6.0,-14.0,4.0,-929.0,379.0
6.0,-223.0,90.0,57.0,3.0,-14.0,6.0,-926.0,379.0
6.0,-227.0,94.0,60.0,3.0,-15.0,6.0,-930.0,382.0
9.0,-227.0,94.0,60.0,3.0,-14.0,4.0,-926.0,384.0
3.0,-226.0,91.0,62.0,2.0,-14.0,3.0,-926.0,390.0
5.0,-227.0,89.0,63.0,2.0,-13.0,5.0,-927.0,390.0
4.0,-226.0,91.0,62.0,1.0,-13.0,7.0,-925.0,381.0
11.0,-228.0,93.0,60.0,1.0,-15.0,14.0,-927.0,376.0
4.0,-223.0,94.0,57.0,0.0,-15.0,7.0,-926.0,383.0
5.0,-224.0,92.0,55.0,0.0,-14.0,14.0,-933.0,381.0
6.0,-225.0,91.0,55.0,2.0,-13.0,13.0,-933.0,381.0
8.0,-224.0,91.0,53.0,2.0,-12.0,15.0,-929.0,377.0
12.0,-226.0,90.0,53.0,2.0,-13.0,18.0,-928.0,380.0
7.0,-226.0,91.0,53.0,4.0,-12.0,14.0,-928.0,374.0
6.0,-224.0,92.0,51.0,6.0,-12.0,14.0,-926.0,382.0
8.0,-226.0,90.0,47.0,8.0,-11.0,14.0,-925.0,380.0
8.0,-225.0,93.0,44.0,10.0,-10.0,17.0,-925.0,387.0
8.0,-224.0,94.0,41.0,13.0,-8.0,14.0,-928.0,389.0
5.0,-225.0,94.0,37.0,12.0,-9.0,11.0,-926.0,384.0
3.0,-223.0,98.0,34.0,13.0,-9.0,6.0,-929.0,393.0
3.0,-228.0,92.0,30.0,16.0,-9.0,8.0,-931.0,389.0
4.0,-226.0,90.0,27.0,19.0,-8.0,5.0,-926.0,386.0
-2.0,-225.0,90.0,23.0,22.0,-8.0,2.0,-928.0,385.0
1.0,-225.0,92.0,22.0,24.0,-9.0,6.0,-928.0,377.0
3.0,-226.0,89.0,19.0,26.0,-10.0,5.0,-933.0,380.0
6.0,-231.0,88.0,20.0,28.0,-13.0,6.0,-930.0,374.0
6.0,-229.0,90.0,25.0,30.0,-11.0,5.0,-934.0,374.0
4.0,-230.0,90.0,28.0,27.0,-10.0,9.0,-933.0,364.0
4.0,-228.0,88.0,32.0,23.0,-11.0,9.0,-936.0,365.0
7.0,-232.0,90.0,38.0,20.0,-9.0,8.0,-940.0,362.0
0.0,-226.0,87.0,44.0,13.0,-10.0,8.0,-935.0,364.0
7.0,-231.0,85.0,51.0,9.0,-7.0,6.0,-934.0,364.0
8.0,-226.0,86.0,56.0,5.0,-6.0,11.0,-930.0,370.0
5.0,-226.0,92.0,57.0,-2.0,-6.0,7.0,-930.0,370.0
7.0,-226.0,88.0,58.0,-2.0,-7.0,9.0,-923.0,375.0
6.0,-224.0,92.0,56.0,-2.0,-9.0,7.0,-921.0,378.0
5.0,-223.0,90.0,54.0,1.0,-12.0,7.0,-920.0,386.0
5.0,-224.0,90.0,51.0,5.0,-13.0,5.0,-918.0,382.0
2.0,-227.0,92.0,50.0,11.0,-14.0,6.0,-924.0,374.0
6.0,-226.0,84.0,48.0,16.0,-16.0,5.0,-927.0,382.0
2.0,-226.0,85.0,45.0,20.0,-16.0,6.0,-927.0,375.0
5.0,-228.0,96.0,44.0,21.0,-17.0,8.0,-933.0,379.0
5.0,-225.0,95.0,44.0,22.0,-17.0,13.0,-939.0,371.0
10.0,-229.0,88.0,47.0,20.0,-16.0,17.0,-940.0,374.0
7.0,-228.0,86.0,51.0,16.0,-16.0,9.0,-939.0,370.0
9.0,-227.0,91.0,55.0,12.0,-15.0,10.0,-936.0,371.0
6.0,-229.0,87.0,59.0,7.0,-15.0,10.0,-933.0,372.0
5.0,-226.0,87.0,62.0,5.0,-15.0,7.0,-933.0,368.0
8.0,-228.0,89.0,63.0,5.0,-17.0,8.0,-930.0,368.0
3.0,-226.0,89.0,65.0,6.0,-19.0,2.0,-929.0,371.0
3.0,-226.0,93.0,65.0,8.0,-21.0,4.0,-927.0,374.0
6.0,-229.0,89.0,66.0,11.0,-21.0,8.0,-922.0,382.0
3.0,-225.0,93.0,68.0,12.0,-20.0,6.0,-928.0,386.0
6.0,-225.0,87.0,69.0,13.0,-20.0,5.0,-927.0,386.0
6.0,-229.0,85.0,70.0,13.0,-19.0,6.0,-927.0,382.0
4.0,-226.0,93.0,70.0,13.0,-18.0,5.0,-926.0,379.0
3.0,-225.0,88.0,68.0,12.0,-16.0,6.0,-927.0,380.0
5.0,-224.0,91.0,63.0,13.0,-15.0,8.0,-928.0,378.0
6.0,-226.0,89.0,58.0,13.0,-15.0,5.0,-929.0,375.0
7.0,-227.0,93.0,54.0,15.0,-15.0,12.0,-928.0,381.0
6.0,-225.0,90.0,53.0,19.0,-16.0,6.0,-929.0,381.0
6.0,-223.0,87.0,54.0,21.0,-15.0,6.0,-929.0,378.0
5.0,-225.0,91.0,58.0,22.0,-17.0,10.0,-926.0,382.0
3.0,-224.0,87.0,60.0,23.0,-16.0,9.0,-932.0,374.0
5.0,-225.0,89.0,66.0,22.0,-16.0,13.0,-920.0,379.0
7.0,-229.0,90.0,72.0,20.0,-14.0,9.0,-925.0,383.0
4.0,-225.0,91.0,78.0,18.0,-13.0,7.0,-926.0,381.0
6.0,-224.0,93.0,81.0,15.0,-13.0,13.0,-920.0,377.0
4.0,-224.0,92.0,82.0,10.0,-11.0,8.0,-926.0,375.0
6.0,-228.0,90.0,81.0,7.0,-8.0,7.0,-924.0,378.0
7.0,-226.0,90.0,80.0,6.0,-7.0,8.0,-923.0,378.0
5.0,-225.0,87.0,75.0,3.0,-8.0,6.0,-926.0,372.0
6.0,-227.0,88.0,69.0,2.0,-9.0,11.0,-923.0,381.0
4.0,-224.0,89.0,63.0,2.0,-9.0,8.0,-923.0,383.0
6.0,-227.0,88.0,59.0,3.0,-8.0,12.0,-927.0,378.0
4.0,-223.0,91.0,56.0,3.0,-11.0,8.0,-927.0,380.0
6.0,-225.0,92.0,53.0,5.0,-10.0,9.0,-921.0,380.0
7.0,-224.0,97.0,55.0,8.0,-10.0,12.0,-925.0,382.0
4.0,-225.0,94.0,56.0,10.0,-10.0,12.0,-923.0,381.0
7.0,-223.0,91.0,59.0,11.0,-11.0,11.0,-928.0,382.0
7.0,-226.0,91.0,61.0,12.0,-10.0,13.0,-922.0,381.0
6.0,-222.0,95.0,64.0,13.0,-14.0,11.0,-925.0,378.0
11.0,-227.0,92.0,66.0,14.0,-15.0,13.0,-923.0,384.0
11.0,-225.0,94.0,66.0,15.0,-14.0,15.0,-926.0,379.0
6.0,-227.0,94.0,66.0,15.0,-13.0,11.0,-924.0,385.0
7.0,-226.0,92.0,64.0,15.0,-15.0,12.0,-928.0,385.0
6.0,-225.0,91.0,61.0,13.0,-14.0,9.0,-918.0,381.0
4.0,-225.0,94.0,58.0,12.0,-13.0,7.0,-922.0,386.0
5.0,-222.0,91.0,52.0,12.0,-12.0,10.0,-922.0,383.0
5.0,-222.0,91.0,47.0,13.0,-11.0,12.0,-918.0,389.0
7.0,-225.0,98.0,40.0,13.0,-9.0,10.0,-921.0,394.0
7.0,-224.0,90.0,33.0,10.0,-6.0,10.0,-926.0,390.0
8.0,-224.0,91.0,28.0,7.0,-3.0,8.0,-927.0,384.0
1.0,-227.0,92.0,27.0,4.0,-2.0,9.0,-927.0,389.0
11.0,-229.0,92.0,29.0,1.0,-1.0,11.0,-925.0,389.0
7.0,-226.0,93.0,30.0,-2.0,-1.0,17.0,-928.0,392.0
11.0,-227.0,91.0,34.0,-3.0,-1.0,8.0,-928.0,387.0
10.0,-230.0,93.0,39.0,-2.0,-4.0,13.0,-929.0,382.0
7.0,-227.0,88.0,42.0,1.0,-6.0,15.0,-927.0,377.0
7.0,-224.0,95.0,44.0,2.0,-9.0,10.0,-924.0,384.0
6.0,-226.0,97.0,43.0,6.0,-8.0,12.0,-923.0,393.0
8.0,-223.0,96.0,40.0,8.0,-10.0,15.0,-923.0,384.0
9.0,-223.0,97.0,36.0,9.0,-10.0,13.0,-925.0,381.0
4.0,-225.0,92.0,34.0,12.0,-12.0,6.0,-922.0,388.0
7.0,-222.0,93.0,28.0,13.0,-12.0,2.0,-927.0,383.0
3.0,-222.0,88.0,24.0,14.0,-13.0,4.0,-925.0,380.0
1.0,-221.0,87.0,20.0,17.0,-13.0,1.0,-922.0,379.0
2.0,-226.0,96.0,16.0,18.0,-14.0,6.0,-925.0,377.0
10.0,-228.0,92.0,12.0,20.0,-14.0,5.0,-929.0,387.0
9.0,-224.0,89.0,13.0,20.0,-14.0,9.0,-929.0,381.0
7.0,-227.0,94.0,15.0,23.0,-13.0,7.0,-930.0,376.0
6.0,-226.0,93.0,18.0,23.0,-14.0,6.0,-931.0,385.0
6.0,-226.0,87.0,23.0,22.0,-12.0,9.0,-935.0,375.0
7.0,-230.0,89.0,27.0,23.0,-12.0,7.0,-929.0,376.0
7.0,-229.0,89.0,30.0,22.0,-11.0,13.0,-930.0,377.0
5.0,-226.0,90.0,35.0,20.0,-12.0,13.0,-929.0,374.0
4.0,-226.0,93.0,38.0,19.0,-12.0,15.0,-929.0,371.0
9.0,-228.0,92.0,41.0,19.0,-7.0,17.0,-929.0,376.0
10.0,-227.0,89.0,44.0,18.0,-8.0,10.0,-927.0,375.0
4.0,-224.0,92.0,45.0,20.0,-9.0,6.0,-928.0,373.0
4.0,-221.0,86.0,45.0,24.0,-10.0,8.0,-923.0,375.0
4.0,-225.0,88.0,45.0,24.0,-11.0,11.0,-930.0,371.0
7.0,-228.0,94.0,44.0,27.0,-12.0,15.0,-929.0,378.0
5.0,-230.0,91.0,44.0,27.0,-12.0,10.0,-928.0,384.0
7.0,-229.0,89.0,42.0,28.0,-10.0,5.0,-932.0,381.0
8.0,-228.0,95.0,44.0,29.0,-9.0,12.0,-931.0,377.0
6.0,-227.0,94.0,45.0,30.0,-11.0,9.0,-929.0,370.0
5.0,-225.0,90.0,47.0,32.0,-10.0,9.0,-932.0,383.0
4.0,-225.0,87.0,49.0,34.0,-10.0,13.0,-931.0,378.0
6.0,-225.0,87.0,52.0,37.0,-11.0,7.0,-930.0,376.0
4.0,-225.0,88.0,55.0,39.0,-12.0,8.0,-929.0,377.0
3.0,-230.0,88.0,58.0,39.0,-12.0,11.0,-929.0,376.0
5.0,-225.0,89.0,59.0,41.0,-11.0,9.0,-925.0,374.0
5.0,-227.0,88.0,61.0,39.0,-12.0,11.0,-922.0,372.0
5.0,-227.0,93.0,62.0,38.0,-12.0,13.0,-929.0,377.0
6.0,-227.0,91.0,62.0,38.0,-11.0,7.0,-932.0,378.0
5.0,-227.0,92.0,63.0,37.0,-9.0,15.0,-927.0,382.0
4.0,-223.0,95.0,64.0,36.0,-8.0,12.0,-928.0,380.0
5.0,-225.0,92.0,66.0,36.0,-8.0,11.0,-926.0,378.0
7.0,-227.0,95.0,67.0,37.0,-8.0,12.0,-929.0,381.0
6.0,-224.0,93.0,66.0,37.0,-8.0,13.0,-924.0,379.0
7.0,-219.0,93.0,62.0,36.0,-8.0,12.0,-925.0,379.0
7.0,-224.0,89.0,58.0,35.0,-7.0,13.0,-923.0,378.0
6.0,-225.0,93.0,53.0,35.0,-6.0,10.0,-919.0,382.0
9.0,-224.0,89.0,48.0,35.0,-5.0,11.0,-918.0,379.0
4.0,-225.0,91.0,45.0,33.0,-7.0,10.0,-921.0,386.0
8.0,-226.0,96.0,39.0,33.0,-7.0,11.0,-927.0,389.0
8.0,-225.0,93.0,34.0,34.0,-8.0,7.0,-922.0,386.0
7.0,-225.0,95.0,30.0,35.0,-6.0,11.0,-923.0,388.0
5.0,-225.0,97.0,27.0,35.0,-6.0,8.0,-921.0,386.0
7.0,-225.0,89.0,24.0,34.0,-4.0,13.0,-924.0,392.0
8.0,-223.0,94.0,24.0,32.0,-3.0,8.0,-926.0,383.0
5.0,-225.0,92.0,25.0,29.0,1.0,11.0,-929.0,385.0
6.0,-227.0,93.0,25.0,25.0,1.0,12.0,-930.0,401.0
4.0,-225.0,91.0,28.0,22.0,2.0,12.0,-927.0,376.0
4.0,-225.0,94.0,32.0,19.0,2.0,8.0,-929.0,388.0
4.0,-225.0,92.0,37.0,19.0,1.0,6.0,-924.0,391.0
9.0,-228.0,97.0,40.0,20.0,1.0,8.0,-926.0,387.0
7.0,-226.0,94.0,43.0,22.0,-2.0,13.0,-929.0,395.0
5.0,-223.0,99.0,45.0,27.0,-3.0,7.0,-925.0,396.0
9.0,-227.0,96.0,46.0,30.0,-5.0,15.0,-929.0,399.0
10.0,-226.0,93.0,43.0,30.0,-4.0,11.0,-927.0,393.0
8.0,-229.0,93.0,40.0,28.0,-1.0,14.0,-934.0,395.0
3.0,-227.0,95.0,38.0,25.0,0.0,13.0,-935.0,397.0
5.0,-224.0,95.0,39.0,20.0,5.0,10.0,-932.0,388.0
1.0,-227.0,94.0,42.0,16.0,5.0,11.0,-929.0,387.0
3.0,-224.0,94.0,47.0,12.0,6.0,5.0,-930.0,394.0
2.0,-225.0,92.0,52.0,10.0,5.0,3.0,-922.0,391.0
5.0,-225.0,92.0,55.0,12.0,5.0,8.0,-922.0,391.0
8.0,-227.0,94.0,58.0,14.0,4.0,3.0,-920.0,387.0
2.0,-222.0,93.0,57.0,17.0,2.0,5.0,-918.0,379.0
4.0,-222.0,91.0,53.0,21.0,2.0,9.0,-917.0,384.0
4.0,-221.0,92.0,47.0,24.0,1.0,8.0,-909.0,387.0
4.0,-216.0,93.0,42.0,25.0,0.0,6.0,-912.0,379.0
3.0,-221.0,98.0,38.0,27.0,-1.0,12.0,-917.0,379.0
-3.0,-220.0,93.0,35.0,29.0,-1.0,13.0,-919.0,384.0
8.0,-226.0,93.0,34.0,29.0,-3.0,12.0,-925.0,386.0
8.0,-222.0,89.0,30.0,31.0,-3.0,13.0,-926.0,379.0
5.0,-225.0,91.0,26.0,32.0,-7.0,11.0,-932.0,379.0
4.0,-226.0,90.0,23.0,35.0,-7.0,9.0,-932.0,382.0
3.0,-232.0,89.0,19.0,37.0,-7.0,4.0,-928.0,393.0
6.0,-230.0,93.0,16.0,37.0,-6.0,6.0,-928.0,386.0
2.0,-225.0,92.0,15.0,37.0,-5.0,1.0,-932.0,382.0
3.0,-225.0,90.0,15.0,37.0,-4.0,-7.0,-932.0,383.0
-1.0,-224.0,93.0,17.0,36.0,-1.0,-11.0,-934.0,381.0
0.0,-228.0,89.0,21.0,33.0,-1.0,-9.0,-930.0,377.0
1.0,-225.0,87.0,27.0,31.0,-1.0,-7.0,-933.0,376.0
4.0,-230.0,89.0,32.0,28.0,-1.0,-8.0,-934.0,377.0
1.0,-226.0,89.0,33.0,25.0,2.0,-3.0,-930.0,372.0
3.0,-227.0,90.0,34.0,22.0,3.0,-8.0,-933.0,373.0
2.0,-228.0,91.0,33.0,19.0,2.0,-5.0,-927.0,371.0
0.0,-223.0,87.0,29.0,19.0,3.0,-2.0,-929.0,371.0
4.0,-225.0,90.0,25.0,18.0,2.0,-4.0,-925.0,374.0
4.0,-220.0,90.0,20.0,16.0,3.0,7.0,-923.0,378.0
4.0,-221.0,89.0,17.0,15.0,-1.0,8.0,-924.0,372.0
5.0,-225.0,91.0,15.0,14.0,-3.0,10.0,-923.0,371.0
4.0,-223.0,88.0,14.0,12.0,-4.0,11.0,-924.0,368.0
7.0,-224.0,90.0,11.0,12.0,-2.0,8.0,-925.0,368.0
5.0,-223.0,82.0,9.0,12.0,-2.0,9.0,-922.0,365.0
9.0,-228.0,91.0,6.0,14.0,-4.0,11.0,-927.0,363.0
3.0,-226.0,87.0,2.0,15.0,-4.0,7.0,-931.0,365.0
9.0,-226.0,84.0,-2.0,15.0,-3.0,7.0,-933.0,361.0
4.0,-228.0,88.0,-6.0,17.0,-4.0,3.0,-927.0,364.0
8.0,-230.0,89.0,-11.0,17.0,-4.0,2.0,-932.0,365.0
9.0,-226.0,89.0,-12.0,18.0,-6.0,7.0,-932.0,367.0
4.0,-227.0,81.0,-13.0,16.0,-6.0,7.0,-931.0,362.0
5.0,-228.0,92.0,-14.0,16.0,-4.0,4.0,-931.0,366.0
7.0,-223.0,84.0,-18.0,13.0,-6.0,2.0,-931.0,371.0
1.0,-226.0,89.0,-24.0,9.0,-4.0,-2.0,-935.0,369.0
5.0,-232.0,90.0,-30.0,5.0,-1.0,3.0,-927.0,370.0
3.0,-230.0,86.0,-36.0,1.0,-2.0,-1.0,-937.0,371.0
5.0,-227.0,90.0,-42.0,-4.0,0.0,-4.0,-934.0,374.0
4.0,-229.0,89.0,-47.0,-8.0,2.0,0.0,-945.0,372.0
1.0,-227.0,87.0,-49.0,-13.0,4.0,-2.0,-934.0,364.0
7.0,-228.0,89.0,-54.0,-17.0,5.0,-2.0,-936.0,365.0
6.0,-231.0,84.0,-58.0,-20.0,5.0,2.0,-935.0,366.0
3.0,-231.0,88.0,-61.0,-21.0,6.0,3.0,-937.0,366.0
2.0,-227.0,86.0,-67.0,-22.0,9.0,0.0,-933.0,366.0
1.0,-219.0,89.0,-72.0,-23.0,7.0,3.0,-934.0,363.0
3.0,-227.0,88.0,-80.0,-23.0,9.0,3.0,-930.0,363.0
3.0,-228.0,88.0,-86.0,-24.0,8.0,0.0,-931.0,359.0
4.0,-224.0,83.0,-92.0,-23.0,7.0,-5.0,-931.0,363.0
5.0,-229.0,86.0,-96.0,-22.0,8.0,2.0,-933.0,361.0
5.0,-231.0,88.0,-100.0,-20.0,8.0,0.0,-930.0,361.0
5.0,-229.0,86.0,-104.0,-17.0,7.0,1.0,-932.0,360.0
0.0,-229.0,87.0,-108.0,-15.0,7.0,2.0,-928.0,359.0
1.0,-226.0,86.0,-115.0,-13.0,6.0,1.0,-930.0,363.0
3.0,-224.0,88.0,-120.0,-10.0,5.0,5.0,-928.0,360.0
4.0,-227.0,83.0,-124.0,-8.0,6.0,-1.0,-936.0,362.0
2.0,-228.0,84.0,-131.0,-8.0,5.0,5.0,-934.0,355.0
1.0,-226.0,85.0,-136.0,-9.0,6.0,-4.0,-934.0,358.0
1.0,-226.0,85.0,-141.0,-9.0,6.0,-1.0,-937.0,362.0
1.0,-229.0,82.0,-145.0,-10.0,7.0,-5.0,-937.0,355.0
1.0,-225.0,86.0,-148.0,-14.0,9.0,-6.0,-936.0,352.0
0.0,-229.0,86.0,-151.0,-17.0,10.0,-6.0,-939.0,354.0
5.0,-228.0,86.0,-154.0,-19.0,11.0,-7.0,-931.0,355.0
3.0,-230.0,86.0,-159.0,-23.0,13.0,-7.0,-940.0,354.0
0.0,-229.0,85.0,-164.0,-25.0,16.0,-8.0,-940.0,353.0
-2.0,-228.0,85.0,-169.0,-28.0,15.0,-8.0,-950.0,351.0
2.0,-227.0,82.0,-176.0,-30.0,16.0,-7.0,-943.0,346.0
0.0,-230.0,84.0,-183.0,-32.0,16.0,-5.0,-945.0,346.0
0.0,-228.0,86.0,-186.0,-32.0,16.0,-7.0,-945.0,348.0
4.0,-232.0,79.0,-188.0,-32.0,18.0,1.0,-948.0,347.0
3.0,-233.0,82.0,-189.0,-32.0,19.0,-5.0,-947.0,341.0
3.0,-229.0,86.0,-188.0,-30.0,23.0,-2.0,-946.0,345.0
2.0,-234.0,82.0,-185.0,-27.0,25.0,-5.0,-948.0,339.0
9.0,-229.0,84.0,-183.0,-26.0,26.0,6.0,-952.0,338.0
3.0,-227.0,79.0,-181.0,-23.0,27.0,6.0,-951.0,332.0
1.0,-230.0,80.0,-181.0,-23.0,28.0,1.0,-951.0,331.0
4.0,-227.0,80.0,-180.0,-23.0,32.0,7.0,-950.0,327.0
6.0,-234.0,75.0,-179.0,-26.0,32.0,8.0,-948.0,329.0
5.0,-229.0,79.0,-178.0,-28.0,34.0,9.0,-946.0,333.0
8.0,-231.0,76.0,-175.0,-28.0,37.0,14.0,-940.0,330.0
6.0,-229.0,80.0,-173.0,-31.0,35.0,14.0,-945.0,329.0
6.0,-231.0,77.0,-172.0,-32.0,36.0,15.0,-942.0,329.0
6.0,-231.0,77.0,-172.0,-32.0,34.0,9.0,-942.0,326.0
4.0,-226.0,79.0,-176.0,-33.0,34.0,7.0,-936.0,329.0
7.0,-233.0,78.0,-179.0,-33.0,32.0,8.0,-941.0,332.0
7.0,-230.0,77.0,-183.0,-30.0,31.0,11.0,-938.0,324.0
4.0,-230.0,77.0,-189.0,-28.0,30.0,3.0,-940.0,327.0
4.0,-228.0,79.0,-195.0,-26.0,29.0,8.0,-946.0,319.0
8.0,-230.0,73.0,-204.0,-23.0,27.0,4.0,-940.0,320.0
3.0,-233.0,74.0,-211.0,-22.0,27.0,3.0,-941.0,312.0
5.0,-232.0,69.0,-217.0,-19.0,26.0,3.0,-946.0,307.0
2.0,-228.0,73.0,-221.0,-19.0,25.0,5.0,-951.0,302.0
4.0,-230.0,68.0,-222.0,-20.0,28.0,6.0,-948.0,309.0
4.0,-235.0,71.0,-222.0,-24.0,30.0,5.0,-949.0,301.0
3.0,-230.0,71.0,-217.0,-27.0,32.0,5.0,-953.0,307.0
5.0,-233.0,72.0,-212.0,-28.0,33.0,3.0,-950.0,303.0
2.0,-234.0,74.0,-206.0,-30.0,36.0,3.0,-955.0,301.0
7.0,-232.0,73.0,-201.0,-31.0,35.0,6.0,-958.0,301.0
7.0,-232.0,65.0,-199.0,-32.0,38.0,0.0,-964.0,309.0
1.0,-229.0,70.0,-200.0,-32.0,39.0,0.0,-956.0,301.0
2.0,-234.0,75.0,-202.0,-33.0,40.0,5.0,-965.0,299.0
3.0,-236.0,70.0,-205.0,-35.0,43.0,3.0,-966.0,300.0
3.0,-233.0,71.0,-208.0,-36.0,45.0,2.0,-965.0,297.0
3.0,-236.0,69.0,-210.0,-38.0,48.0,6.0,-967.0,297.0
5.0,-236.0,72.0,-213.0,-38.0,49.0,6.0,-964.0,298.0
4.0,-236.0,68.0,-214.0,-38.0,48.0,4.0,-969.0,300.0
8.0,-234.0,71.0,-214.0,-37.0,47.0,7.0,-957.0,292.0
3.0,-235.0,68.0,-211.0,-34.0,45.0,7.0,-953.0,300.0
4.0,-235.0,71.0,-210.0,-31.0,40.0,6.0,-954.0,297.0
3.0,-231.0,67.0,-207.0,-26.0,38.0,7.0,-954.0,293.0
5.0,-235.0,72.0,-204.0,-19.0,34.0,3.0,-952.0,289.0
3.0,-233.0,64.0,-200.0,-12.0,30.0,5.0,-958.0,291.0
2.0,-234.0,66.0,-197.0,-8.0,29.0,5.0,-956.0,287.0
0.0,-235.0,68.0,-197.0,-3.0,27.0,-2.0,-954.0,282.0
3.0,-234.0,65.0,-196.0,-2.0,28.0,-4.0,-957.0,278.0
2.0,-234.0,67.0,-195.0,-1.0,29.0,-4.0,-961.0,280.0
2.0,-237.0,66.0,-195.0,-3.0,33.0,-8.0,-960.0,276.0
0.0,-237.0,66.0,-196.0,-7.0,35.0,-8.0,-966.0,276.0
4.0,-235.0,65.0,-197.0,-11.0,35.0,-6.0,-965.0,276.0
1.0,-235.0,63.0,-201.0,-14.0,37.0,-6.0,-965.0,272.0
-1.0,-236.0,64.0,-206.0,-18.0,34.0,-10.0,-964.0,270.0
4.0,-239.0,67.0,-207.0,-19.0,33.0,-10.0,-964.0,270.0
2.0,-238.0,63.0,-209.0,-19.0,33.0,-13.0,-963.0,268.0
-2.0,-233.0,60.0,-209.0,-18.0,31.0,-8.0,-966.0,271.0
0.0,-238.0,59.0,-209.0,-17.0,30.0,-7.0,-962.0,271.0
0.0,-233.0,60.0,-210.0,-18.0,28.0,-7.0,-961.0,263.0
2.0,-235.0,63.0,-212.0,-19.0,28.0,-7.0,-957.0,260.0
-1.0,-235.0,67.0,-213.0,-19.0,27.0,-9.0,-956.0,261.0
0.0,-236.0,63.0,-213.0,-20.0,29.0,-3.0,-954.0,267.0
-1.0,-232.0,62.0,-211.0,-22.0,25.0,-7.0,-961.0,266.0
3.0,-235.0,59.0,-211.0,-23.0,26.0,-10.0,-959.0,255.0
-1.0,-237.0,65.0,-212.0,-23.0,26.0,-3.0,-960.0,248.0
0.0,-234.0,65.0,-214.0,-22.0,27.0,-2.0,-965.0,254.0
4.0,-236.0,59.0,-216.0,-21.0,28.0,-2.0,-964.0,250.0
0.0,-234.0,59.0,-218.0,-20.0,27.0,0.0,-966.0,253.0
2.0,-237.0,59.0,-219.0,-19.0,27.0,-2.0,-969.0,248.0
3.0,-236.0,58.0,-219.0,-19.0,28.0,1.0,-970.0,251.0
2.0,-238.0,57.0,-220.0,-19.0,28.0,3.0,-972.0,242.0
2.0,-238.0,57.0,-223.0,-18.0,31.0,-3.0,-969.0,242.0
3.0,-236.0,56.0,-224.0,-15.0,31.0,0.0,-970.0,240.0
3.0,-237.0,56.0,-225.0,-15.0,32.0,4.0,-973.0,248.0
3.0,-240.0,55.0,-227.0,-13.0,31.0,-3.0,-969.0,234.0
2.0,-238.0,50.0,-228.0,-14.0,34.0,-4.0,-971.0,235.0
2.0,-238.0,61.0,-229.0,-13.0,34.0,-2.0,-970.0,240.0
3.0,-239.0,57.0,-230.0,-14.0,34.0,-8.0,-971.0,227.0
0.0,-238.0,59.0,-229.0,-15.0,36.0,-1.0,-975.0,228.0
2.0,-237.0,57.0,-229.0,-18.0,35.0,-2.0,-971.0,238.0
1.0,-238.0,52.0,-230.0,-20.0,36.0,1.0,-974.0,228.0
3.0,-234.0,55.0,-231.0,-21.0,34.0,7.0,-967.0,237.0
5.0,-236.0,55.0,-232.0,-23.0,30.0,5.0,-967.0,228.0
3.0,-239.0,54.0,-232.0,-23.0,29.0,4.0,-966.0,224.0
2.0,-238.0,54.0,-233.0,-22.0,27.0,2.0,-967.0,221.0
1.0,-237.0,56.0,-234.0,-21.0,24.0,4.0,-972.0,223.0
3.0,-239.0,55.0,-234.0,-22.0,25.0,1.0,-977.0,225.0
1.0,-239.0,49.0,-236.0,-25.0,21.0,3.0,-974.0,218.0
4.0,-239.0,54.0,-237.0,-27.0,20.0,0.0,-975.0,217.0
2.0,-239.0,54.0,-239.0,-28.0,20.0,0.0,-977.0,221.0
3.0,-240.0,52.0,-240.0,-27.0,23.0,1.0,-971.0,225.0
3.0,-237.0,49.0,-241.0,-26.0,23.0,2.0,-971.0,215.0
2.0,-235.0,51.0,-242.0,-25.0,24.0,-5.0,-967.0,211.0
3.0,-236.0,49.0,-246.0,-25.0,26.0,-5.0,-967.0,213.0
3.0,-240.0,52.0,-250.0,-24.0,31.0,1.0,-971.0,205.0
2.0,-236.0,50.0,-254.0,-25.0,32.0,-4.0,-973.0,207.0
4.0,-239.0,48.0,-259.0,-26.0,32.0,0.0,-973.0,193.0
4.0,-237.0,47.0,-263.0,-29.0,32.0,-8.0,-978.0,191.0
5.0,-243.0,46.0,-265.0,-31.0,34.0,-2.0,-979.0,190.0
0.0,-240.0,44.0,-267.0,-34.0,33.0,-2.0,-982.0,199.0
-3.0,-240.0,45.0,-267.0,-37.0,29.0,-4.0,-983.0,192.0
2.0,-239.0,44.0,-269.0,-39.0,28.0,-5.0,-981.0,186.0
3.0,-239.0,42.0,-269.0,-39.0,26.0,-4.0,-982.0,187.0
3.0,-238.0,45.0,-269.0,-38.0,23.0,-2.0,-983.0,182.0
5.0,-239.0,47.0,-269.0,-36.0,20.0,3.0,-976.0,191.0
3.0,-240.0,47.0,-270.0,-34.0,16.0,9.0,-975.0,190.0
3.0,-239.0,42.0,-271.0,-29.0,9.0,9.0,-976.0,188.0
9.0,-244.0,45.0,-269.0,-25.0,5.0,9.0,-974.0,188.0
7.0,-240.0,43.0,-270.0,-19.0,1.0,7.0,-967.0,187.0
4.0,-239.0,45.0,-271.0,-16.0,-2.0,10.0,-973.0,180.0
3.0,-239.0,45.0,-273.0,-12.0,-4.0,4.0,-977.0,181.0
3.0,-240.0,48.0,-274.0,-11.0,-6.0,7.0,-981.0,182.0
1.0,-241.0,44.0,-275.0,-8.0,-7.0,7.0,-983.0,181.0
5.0,-241.0,43.0,-278.0,-6.0,-7.0,4.0,-988.0,177.0
4.0,-241.0,39.0,-280.0,-6.0,-5.0,8.0,-988.0,178.0
3.0,-244.0,39.0,-281.0,-4.0,-4.0,12.0,-990.0,178.0
3.0,-248.0,39.0,-283.0,-2.0,-3.0,10.0,-990.0,178.0
-1.0,-240.0,41.0,-281.0,1.0,-1.0,0.0,-994.0,174.0
5.0,-242.0,42.0,-277.0,7.0,-3.0,6.0,-989.0,168.0
3.0,-239.0,41.0,-274.0,12.0,-2.0,3.0,-985.0,165.0
1.0,-240.0,40.0,-271.0,18.0,-1.0,-2.0,-981.0,162.0
-3.0,-240.0,37.0,-268.0,25.0,-3.0,-5.0,-977.0,162.0
-4.0,-236.0,40.0,-266.0,31.0,-3.0,-10.0,-975.0,161.0
-4.0,-234.0,38.0,-267.0,36.0,-1.0,-15.0,-971.0,166.0
-1.0,-237.0,39.0,-268.0,42.0,1.0,-14.0,-968.0,164.0
-4.0,-233.0,35.0,-270.0,47.0,5.0,-24.0,-964.0,152.0
-4.0,-234.0,37.0,-272.0,51.0,9.0,-30.0,-967.0,165.0
-6.0,-234.0,33.0,-278.0,57.0,10.0,-27.0,-965.0,153.0
-8.0,-236.0,37.0,-282.0,60.0,12.0,-31.0,-968.0,154.0
-5.0,-232.0,35.0,-286.0,63.0,14.0,-34.0,-966.0,148.0
-7.0,-243.0,37.0,-292.0,66.0,15.0,-37.0,-972.0,149.0
-4.0,-240.0,36.0,-300.0,70.0,16.0,-38.0,-972.0,145.0
-4.0,-237.0,35.0,-310.0,72.0,17.0,-37.0,-971.0,134.0
-5.0,-239.0,34.0,-319.0,76.0,13.0,-35.0,-971.0,133.0
-6.0,-239.0,32.0,-327.0,79.0,11.0,-38.0,-978.0,137.0
-8.0,-241.0,31.0,-333.0,81.0,9.0,-35.0,-978.0,132.0
-7.0,-239.0,34.0,-338.0,83.0,7.0,-35.0,-978.0,131.0
-6.0,-241.0,26.0,-343.0,86.0,2.0,-31.0,-982.0,129.0
-4.0,-242.0,31.0,-347.0,89.0,0.0,-31.0,-976.0,125.0
-6.0,-240.0,29.0,-353.0,93.0,-4.0,-32.0,-984.0,124.0
-5.0,-241.0,25.0,-361.0,95.0,-6.0,-30.0,-982.0,118.0
5.0,-239.0,23.0,-365.0,98.0,-7.0,-32.0,-983.0,120.0
-5.0,-241.0,27.0,-370.0,101.0,-10.0,-31.0,-986.0,116.0
-4.0,-241.0,27.0,-376.0,103.0,-12.0,-36.0,-980.0,116.0
-4.0,-243.0,28.0,-379.0,104.0,-12.0,-26.0,-980.0,118.0
-4.0,-242.0,26.0,-387.0,105.0,-11.0,-26.0,-982.0,108.0
-3.0,-238.0,25.0,-393.0,107.0,-13.0,-26.0,-977.0,108.0
-5.0,-237.0,24.0,-403.0,109.0,-10.0,-13.0,-974.0,109.0
-5.0,-237.0,26.0,-411.0,111.0,-10.0,-21.0,-970.0,104.0
-2.0,-239.0,22.0,-419.0,113.0,-11.0,-16.0,-971.0,104.0
-1.0,-242.0,19.0,-428.0,116.0,-12.0,-13.0,-972.0,111.0
-2.0,-234.0,22.0,-437.0,116.0,-10.0,-7.0,-970.0,101.0
1.0,-237.0,15.0,-446.0,118.0,-10.0,-4.0,-964.0,97.0
1.0,-236.0,22.0,-453.0,119.0,-9.0,-2.0,-966.0,96.0
3.0,-236.0,21.0,-459.0,121.0,-9.0,1.0,-968.0,97.0
3.0,-238.0,23.0,-462.0,123.0,-9.0,4.0,-969.0,91.0
2.0,-236.0,20.0,-469.0,124.0,-7.0,4.0,-965.0,90.0
1.0,-233.0,18.0,-478.0,125.0,-6.0,9.0,-962.0,83.0
2.0,-235.0,18.0,-491.0,126.0,-7.0,9.0,-964.0,82.0
3.0,-234.0,16.0,-505.0,124.0,-8.0,2.0,-968.0,83.0
1.0,-233.0,14.0,-519.0,123.0,-6.0,4.0,-961.0,76.0
2.0,-236.0,17.0,-532.0,121.0,-6.0,7.0,-958.0,65.0
4.0,-238.0,14.0,-543.0,117.0,-5.0,5.0,-963.0,58.0
10.0,-234.0,16.0,-554.0,115.0,-2.0,0.0,-962.0,63.0
4.0,-235.0,14.0,-563.0,113.0,-3.0,2.0,-954.0,54.0
-1.0,-233.0,14.0,-574.0,112.0,-4.0,1.0,-953.0,59.0
1.0,-231.0,12.0,-585.0,111.0,-3.0,-2.0,-951.0,49.0
1.0,-232.0,8.0,-592.0,111.0,-5.0,-3.0,-952.0,51.0
-2.0,-231.0,11.0,-600.0,112.0,-5.0,-5.0,-951.0,46.0
-1.0,-229.0,8.0,-609.0,113.0,-6.0,-8.0,-948.0,39.0
-2.0,-232.0,5.0,-617.0,114.0,-9.0,-10.0,-952.0,35.0
0.0,-237.0,7.0,-626.0,115.0,-12.0,-9.0,-950.0,37.0
-2.0,-235.0,7.0,-636.0,114.0,-12.0,-9.0,-947.0,29.0
-2.0,-234.0,6.0,-648.0,113.0,-16.0,-13.0,-949.0,24.0
-3.0,-231.0,2.0,-663.0,111.0,-15.0,-12.0,-951.0,21.0
-1.0,-235.0,1.0,-678.0,108.0,-17.0,-12.0,-952.0,20.0
-3.0,-234.0,2.0,-695.0,106.0,-16.0,-13.0,-952.0,16.0
-2.0,-234.0,3.0,-712.0,103.0,-17.0,-11.0,-951.0,14.0
-2.0,-233.0,3.0,-730.0,99.0,-14.0,-7.0,-959.0,15.0
-3.0,-237.0,-1.0,-749.0,95.0,-10.0,-10.0,-957.0,16.0
-4.0,-234.0,2.0,-766.0,93.0,-7.0,-11.0,-954.0,10.0
-3.0,-237.0,1.0,-784.0,91.0,-2.0,-15.0,-960.0,7.0
-3.0,-236.0,1.0,-799.0,87.0,1.0,-15.0,-952.0,5.0
-3.0,-233.0,-3.0,-814.0,85.0,4.0,-14.0,-958.0,5.0
-3.0,-231.0,7.0,-827.0,82.0,7.0,-22.0,-947.0,4.0
-5.0,-229.0,-1.0,-841.0,80.0,9.0,-17.0,-940.0,4.0
-4.0,-226.0,-3.0,-854.0,78.0,11.0,-20.0,-935.0,3.0
-3.0,-225.0,-5.0,-868.0,76.0,11.0,-23.0,-928.0,2.0
-3.0,-223.0,-2.0,-882.0,78.0,12.0,-15.0,-917.0,0.0
-4.0,-220.0,-6.0,-899.0,78.0,10.0,-24.0,-914.0,-4.0
-3.0,-220.0,-3.0,-918.0,80.0,9.0,-15.0,-913.0,-12.0
0.0,-222.0,-6.0,-939.0,79.0,10.0,-15.0,-910.0,-13.0
-3.0,-220.0,-5.0,-965.0,78.0,11.0,-12.0,-911.0,-22.0
1.0,-224.0,-10.0,-990.0,77.0,12.0,-10.0,-910.0,-27.0
-1.0,-221.0,-9.0,-1016.0,74.0,13.0,-6.0,-909.0,-27.0
0.0,-224.0,-6.0,-1038.0,71.0,15.0,-4.0,-907.0,-34.0
1.0,-227.0,-11.0,-1057.0,67.0,20.0,-3.0,-906.0,-35.0
2.0,-219.0,-12.0,-1075.0,63.0,24.0,6.0,-906.0,-50.0
0.0,-218.0,-15.0,-1093.0,58.0,27.0,1.0,-904.0,-50.0
1.0,-219.0,-17.0,-1112.0,52.0,28.0,0.0,-901.0,-55.0
-1.0,-217.0,-18.0,-1129.0,48.0,33.0,5.0,-897.0,-62.0
1.0,-217.0,-19.0,-1145.0,42.0,39.0,-1.0,-896.0,-68.0
1.0,-219.0,-17.0,-1158.0,36.0,43.0,6.0,-892.0,-61.0
2.0,-212.0,-18.0,-1170.0,28.0,45.0,-1.0,-884.0,-62.0
-2.0,-213.0,-21.0,-1181.0,20.0,47.0,-1.0,-874.0,-63.0
1.0,-212.0,-15.0,-1191.0,14.0,49.0,-5.0,-863.0,-68.0
1.0,-208.0,-15.0,-1196.0,7.0,51.0,-2.0,-853.0,-63.0
-1.0,-205.0,-21.0,-1201.0,0.0,51.0,-4.0,-841.0,-63.0
1.0,-205.0,-18.0,-1205.0,-9.0,50.0,-2.0,-834.0,-66.0
-2.0,-202.0,-14.0,-1211.0,-17.0,50.0,-5.0,-830.0,-64.0
0.0,-198.0,-19.0,-1218.0,-23.0,51.0,-5.0,-820.0,-65.0
0.0,-200.0,-19.0,-1224.0,-29.0,54.0,-1.0,-818.0,-61.0
-1.0,-197.0,-19.0,-1234.0,-33.0,55.0,-7.0,-807.0,-62.0
-1.0,-195.0,-17.0,-1242.0,-40.0,59.0,2.0,-804.0,-63.0
1.0,-197.0,-12.0,-1248.0,-44.0,61.0,-6.0,-799.0,-66.0
0.0,-194.0,-14.0,-1253.0,-49.0,64.0,-5.0,-789.0,-52.0
2.0,-194.0,-13.0,-1256.0,-53.0,69.0,-4.0,-780.0,-60.0
0.0,-192.0,-15.0,-1261.0,-55.0,74.0,0.0,-779.0,-59.0
-1.0,-192.0,-19.0,-1267.0,-55.0,79.0,2.0,-772.0,-61.0
3.0,-188.0,-22.0,-1273.0,-53.0,83.0,7.0,-760.0,-69.0
4.0,-188.0,-22.0,-1280.0,-49.0,88.0,19.0,-763.0,-73.0
10.0,-188.0,-23.0,-1285.0,-45.0,92.0,29.0,-763.0,-81.0
14.0,-190.0,-24.0,-1292.0,-43.0,97.0,35.0,-767.0,-87.0
12.0,-190.0,-28.0,-1300.0,-42.0,100.0,45.0,-781.0,-88.0
13.0,-192.0,-36.0,-1308.0,-42.0,103.0,61.0,-794.0,-102.0
14.0,-197.0,-32.0,-1318.0,-39.0,106.0,67.0,-806.0,-116.0
15.0,-202.0,-39.0,-1327.0,-37.0,104.0,65.0,-824.0,-141.0
12.0,-208.0,-37.0,-1337.0,-40.0,97.0,48.0,-846.0,-159.0
6.0,-209.0,-48.0,-1348.0,-47.0,92.0,33.0,-878.0,-167.0
7.0,-216.0,-49.0,-1357.0,-57.0,86.0,20.0,-897.0,-195.0
-2.0,-223.0,-54.0,-1360.0,-66.0,81.0,-1.0,-914.0,-208.0
-4.0,-229.0,-62.0,-1356.0,-70.0,81.0,-27.0,-934.0,-228.0
-6.0,-230.0,-65.0,-1352.0,-69.0,77.0,-42.0,-942.0,-245.0
-16.0,-233.0,-69.0,-1347.0,-66.0,76.0,-64.0,-949.0,-261.0
-17.0,-235.0,-69.0,-1341.0,-62.0,78.0,-82.0,-953.0,-265.0
-25.0,-238.0,-75.0,-1336.0,-55.0,84.0,-92.0,-960.0,-272.0
-28.0,-232.0,-70.0,-1324.0,-50.0,88.0,-101.0,-954.0,-271.0
-24.0,-232.0,-72.0,-1310.0,-45.0,89.0,-110.0,-940.0,-272.0
-27.0,-235.0,-70.0,-1287.0,-42.0,86.0,-114.0,-933.0,-273.0
-29.0,-225.0,-72.0,-1258.0,-38.0,86.0,-121.0,-926.0,-281.0
-32.0,-221.0,-72.0,-1225.0,-38.0,83.0,-113.0,-919.0,-271.0
-31.0,-222.0,-68.0,-1189.0,-44.0,79.0,-108.0,-910.0,-265.0
-24.0,-223.0,-68.0,-1148.0,-51.0,78.0,-96.0,-920.0,-251.0
-20.0,-228.0,-56.0,-1105.0,-58.0,75.0,-87.0,-931.0,-221.0
-20.0,-233.0,-51.0,-1057.0,-64.0,68.0,-75.0,-951.0,-192.0
-12.0,-247.0,-42.0,-1006.0,-70.0,58.0,-60.0,-988.0,-159.0
-11.0,-252.0,-35.0,-947.0,-73.0,51.0,-46.0,-1016.0,-123.0
-5.0,-260.0,-28.0,-878.0,-74.0,38.0,-36.0,-1061.0,-114.0
-5.0,-267.0,-27.0,-806.0,-71.0,23.0,-36.0,-1082.0,-104.0
-7.0,-269.0,-28.0,-730.0,-68.0,10.0,-38.0,-1087.0,-95.0
-12.0,-268.0,-32.0,-651.0,-63.0,-1.0,-47.0,-1088.0,-115.0
-12.0,-259.0,-32.0,-575.0,-62.0,-11.0,-52.0,-1061.0,-125.0
-15.0,-255.0,-42.0,-504.0,-71.0,-25.0,-57.0,-1031.0,-143.0
-11.0,-247.0,-44.0,-443.0,-86.0,-39.0,-43.0,-994.0,-157.0
-3.0,-239.0,-47.0,-401.0,-106.0,-49.0,-24.0,-984.0,-174.0
-3.0,-243.0,-48.0,-401.0,-119.0,-52.0,-5.0,-992.0,-189.0
-3.0,-239.0,-46.0,-430.0,-129.0,-43.0,-2.0,-987.0,-178.0
2.0,-243.0,-52.0,-477.0,-133.0,-27.0,6.0,-997.0,-180.0
6.0,-247.0,-50.0,-533.0,-132.0,-4.0,16.0,-1005.0,-190.0
10.0,-242.0,-55.0,-589.0,-127.0,16.0,24.0,-1005.0,-197.0
10.0,-232.0,-56.0,-639.0,-120.0,31.0,39.0,-1004.0,-201.0
12.0,-242.0,-60.0,-681.0,-111.0,46.0,41.0,-999.0,-222.0
11.0,-240.0,-64.0,-714.0,-102.0,56.0,52.0,-983.0,-233.0
13.0,-240.0,-66.0,-737.0,-88.0,66.0,49.0,-982.0,-250.0
10.0,-234.0,-70.0,-747.0,-64.0,71.0,42.0,-968.0,-272.0
6.0,-234.0,-71.0,-753.0,-38.0,74.0,29.0,-952.0,-282.0
3.0,-228.0,-75.0,-753.0,-11.0,71.0,16.0,-932.0,-300.0
2.0,-222.0,-79.0,-752.0,12.0,64.0,-4.0,-920.0,-307.0
-5.0,-224.0,-84.0,-757.0,27.0,54.0,-30.0,-908.0,-316.0
-11.0,-223.0,-80.0,-767.0,35.0,46.0,-44.0,-902.0,-332.0
-18.0,-220.0,-87.0,-783.0,36.0,40.0,-74.0,-897.0,-342.0
-19.0,-214.0,-84.0,-805.0,36.0,37.0,-85.0,-875.0,-344.0
-26.0,-214.0,-91.0,-831.0,35.0,36.0,-105.0,-873.0,-366.0
-31.0,-211.0,-97.0,-865.0,38.0,40.0,-115.0,-868.0,-375.0
-32.0,-212.0,-93.0,-908.0,41.0,47.0,-121.0,-867.0,-387.0
-30.0,-209.0,-107.0,-963.0,45.0,59.0,-118.0,-864.0,-418.0
-27.0,-212.0,-113.0,-1030.0,48.0,73.0,-107.0,-878.0,-442.0
-25.0,-217.0,-122.0,-1106.0,49.0,89.0,-111.0,-894.0,-464.0
-28.0,-220.0,-124.0,-1187.0,47.0,100.0,-99.0,-917.0,-496.0
-19.0,-228.0,-135.0,-1270.0,42.0,119.0,-91.0,-938.0,-532.0
-19.0,-232.0,-139.0,-1355.0,31.0,128.0,-85.0,-959.0,-566.0
-18.0,-236.0,-154.0,-1436.0,15.0,135.0,-82.0,-979.0,-608.0
-29.0,-243.0,-173.0,-1507.0,-6.0,144.0,-90.0,-991.0,-655.0
-28.0,-246.0,-178.0,-1579.0,-30.0,155.0,-96.0,-1005.0,-707.0
-29.0,-248.0,-198.0,-1635.0,-56.0,161.0,-113.0,-1008.0,-778.0
-38.0,-242.0,-211.0,-1693.0,-83.0,170.0,-123.0,-999.0,-874.0
-39.0,-235.0,-237.0,-1766.0,-111.0,182.0,-140.0,-963.0,-967.0
-46.0,-222.0,-258.0,-1860.0,-136.0,198.0,-152.0,-925.0,-1051.0
-46.0,-215.0,-280.0,-1974.0,-153.0,222.0,-161.0,-881.0,-1153.0
-52.0,-198.0,-307.0,-2111.0,-163.0,246.0,-170.0,-820.0,-1258.0
-53.0,-184.0,-339.0,-2269.0,-173.0,275.0,-165.0,-773.0,-1380.0
-49.0,-170.0,-373.0,-2457.0,-177.0,307.0,-157.0,-723.0,-1525.0
-39.0,-158.0,-408.0,-2682.0,-175.0,342.0,-126.0,-686.0,-1656.0
-39.0,-151.0,-435.0,-2943.0,-170.0,368.0,-123.0,-640.0,-1786.0
-41.0,-148.0,-460.0,-3229.0,-171.0,397.0,-107.0,-630.0,-1889.0
-25.0,-146.0,-489.0,-3530.0,-180.0,429.0,-62.0,-621.0,-2001.0
-14.0,-154.0,-507.0,-3827.0,-167.0,453.0,-10.0,-650.0,-2084.0
-14.0,-169.0,-516.0,-4120.0,-150.0,455.0,3.0,-704.0,-2106.0
-5.0,-193.0,-501.0,-4365.0,-162.0,445.0,20.0,-803.0,-2069.0
-12.0,-238.0,-483.0,-4504.0,-192.0,421.0,12.0,-947.0,-1999.0
-14.0,-281.0,-456.0,-4502.0,-220.0,390.0,-32.0,-1096.0,-1905.0
-28.0,-321.0,-419.0,-4381.0,-233.0,373.0,-63.0,-1248.0,-1738.0
-32.0,-359.0,-382.0,-4154.0,-221.0,357.0,-78.0,-1428.0,-1549.0
-29.0,-404.0,-322.0,-3859.0,-193.0,341.0,-95.0,-1588.0,-1328.0
-27.0,-441.0,-258.0,-3505.0,-157.0,314.0,-92.0,-1717.0,-1079.0
-23.0,-451.0,-195.0,-3097.0,-116.0,281.0,-87.0,-1773.0,-784.0
-18.0,-444.0,-144.0,-2671.0,-58.0,260.0,-78.0,-1757.0,-593.0
-18.0,-422.0,-120.0,-2254.0,17.0,254.0,-82.0,-1659.0,-440.0
-16.0,-383.0,-86.0,-1885.0,90.0,256.0,-72.0,-1511.0,-335.0
-11.0,-339.0,-64.0,-1595.0,146.0,257.0,-51.0,-1359.0,-241.0
-8.0,-292.0,-42.0,-1389.0,184.0,241.0,-44.0,-1186.0,-156.0
-5.0,-255.0,-19.0,-1255.0,202.0,213.0,-38.0,-1005.0,-66.0
-4.0,-204.0,3.0,-1189.0,202.0,189.0,-23.0,-817.0,36.0
-4.0,-151.0,27.0,-1184.0,189.0,174.0,-29.0,-637.0,128.0
-6.0,-102.0,52.0,-1233.0,152.0,177.0,-38.0,-444.0,201.0
-3.0,-53.0,68.0,-1328.0,94.0,192.0,-27.0,-269.0,270.0
-1.0,-16.0,80.0,-1466.0,22.0,215.0,-9.0,-89.0,332.0
7.0,29.0,88.0,-1641.0,-49.0,238.0,20.0,70.0,366.0
11.0,64.0,90.0,-1840.0,-116.0,258.0,28.0,200.0,381.0
13.0,83.0,90.0,-2044.0,-183.0,276.0,41.0,295.0,368.0
10.0,96.0,78.0,-2239.0,-245.0,290.0,32.0,339.0,315.0
11.0,95.0,60.0,-2418.0,-301.0,297.0,36.0,339.0,240.0
14.0,76.0,36.0,-2569.0,-341.0,298.0,32.0,302.0,169.0
6.0,63.0,25.0,-2693.0,-370.0,296.0,19.0,245.0,80.0
1.0,37.0,-2.0,-2790.0,-396.0,296.0,15.0,156.0,-14.0
4.0,13.0,-17.0,-2852.0,-421.0,291.0,10.0,35.0,-61.0
-1.0,-12.0,-30.0,-2874.0,-443.0,285.0,4.0,-69.0,-118.0
2.0,-47.0,-45.0,-2850.0,-442.0,272.0,0.0,-190.0,-158.0
3.0,-79.0,-44.0,-2790.0,-404.0,251.0,9.0,-306.0,-165.0
-1.0,-109.0,-47.0,-2695.0,-342.0,221.0,5.0,-423.0,-165.0
-1.0,-131.0,-33.0,-2543.0,-263.0,185.0,-7.0,-537.0,-134.0
-3.0,-161.0,-20.0,-2385.0,-181.0,147.0,-21.0,-634.0,-79.0
-10.0,-184.0,-3.0,-2192.0,-110.0,111.0,-42.0,-713.0,-4.0
-8.0,-195.0,22.0,-1965.0,-63.0,78.0,-45.0,-775.0,89.0
-5.0,-204.0,33.0,-1704.0,-37.0,52.0,-35.0,-799.0,180.0
-3.0,-203.0,62.0,-1420.0,-28.0,32.0,-18.0,-801.0,278.0
1.0,-199.0,87.0,-1135.0,-36.0,22.0,-10.0,-780.0,361.0
8.0,-185.0,112.0,-867.0,-54.0,23.0,10.0,-737.0,442.0
14.0,-172.0,124.0,-623.0,-71.0,28.0,32.0,-686.0,501.0
21.0,-156.0,132.0,-423.0,-77.0,36.0,57.0,-626.0,552.0
31.0,-132.0,146.0,-280.0,-60.0,48.0,86.0,-552.0,592.0
48.0,-108.0,150.0,-196.0,-16.0,58.0,133.0,-463.0,613.0
52.0,-76.0,151.0,-176.0,63.0,55.0,172.0,-357.0,612.0
72.0,-48.0,151.0,-206.0,177.0,50.0,207.0,-237.0,630.0
79.0,-26.0,139.0,-259.0,318.0,47.0,268.0,-97.0,573.0
82.0,4.0,114.0,-335.0,437.0,41.0,304.0,14.0,465.0
91.0,37.0,73.0,-446.0,486.0,41.0,331.0,118.0,303.0
83.0,65.0,36.0,-603.0,468.0,45.0,322.0,226.0,159.0
80.0,84.0,5.0,-746.0,411.0,42.0,310.0,338.0,4.0
73.0,104.0,-29.0,-808.0,346.0,34.0,281.0,409.0,-151.0
41.0,124.0,-128.0,-786.0,281.0,31.0,170.0,492.0,-507.0
-275.0,806.0,-1658.0,-657.0,655.0,100.0,-1811.0,2388.0,-7710.0
-204.0,996.0,-990.0,-3102.0,1999.0,976.0,-1121.0,4340.0,-4078.0
80.0,236.0,212.0,-2622.0,1594.0,767.0,623.0,1407.0,1259.0
-24.0,-207.0,50.0,528.0,-1149.0,4.0,-265.0,-916.0,463.0
11.0,153.0,-390.0,1149.0,-1012.0,183.0,-222.0,304.0,-1713.0
-307.0,689.0,-937.0,18.0,310.0,383.0,-1098.0,2245.0,-4735.0
-301.0,1204.0,-620.0,-1159.0,1260.0,585.0,-767.0,5237.0,-3531.0
122.0,1299.0,-395.0,-1341.0,476.0,52.0,774.0,5500.0,-2139.0
-191.0,1096.0,-757.0,-575.0,315.0,-443.0,-422.0,4178.0,-2890.0
142.0,-67.0,-563.0,-1332.0,119.0,-343.0,159.0,738.0,-2708.0
130.0,33.0,-704.0,-1433.0,576.0,-334.0,853.0,-405.0,-2360.0
-64.0,91.0,-872.0,-1592.0,422.0,-391.0,-146.0,157.0,-3553.0
-19.0,282.0,-1186.0,-1585.0,499.0,-355.0,44.0,679.0,-5098.0
-156.0,666.0,-1573.0,-1328.0,515.0,-301.0,-330.0,2879.0,-6770.0
-117.0,783.0,-1601.0,-1318.0,506.0,-225.0,-250.0,3133.0,-6783.0
-25.0,567.0,-1301.0,-1374.0,392.0,-205.0,151.0,2477.0,-5542.0
-58.0,326.0,-1080.0,-974.0,227.0,-260.0,-255.0,1325.0,-4554.0
-131.0,457.0,-1064.0,-473.0,126.0,-285.0,-492.0,1858.0,-4494.0
-75.0,325.0,-920.0,-494.0,121.0,-259.0,-263.0,1468.0,-3937.0
-54.0,-17.0,-719.0,-512.0,176.0,-374.0,-141.0,171.0,-3064.0
-25.0,0.0,-535.0,-282.0,150.0,-381.0,75.0,-68.0,-2439.0
-70.0,77.0,-376.0,-197.0,91.0,-429.0,-272.0,343.0,-1541.0
-22.0,-62.0,-221.0,-171.0,47.0,-437.0,-84.0,-194.0,-907.0
-18.0,1.0,-209.0,181.0,89.0,-459.0,-92.0,59.0,-881.0
-100.0,23.0,-209.0,480.0,91.0,-471.0,-213.0,-145.0,-805.0
13.0,-210.0,-109.0,693.0,30.0,-405.0,35.0,-753.0,-413.0
-102.0,1.0,-238.0,1152.0,78.0,-413.0,-353.0,36.0,-1026.0
-61.0,-146.0,-225.0,1334.0,202.0,-320.0,-104.0,-655.0,-897.0
-44.0,-206.0,-208.0,1417.0,273.0,-295.0,-188.0,-572.0,-952.0
-23.0,-92.0,-288.0,1499.0,264.0,-241.0,-81.0,-640.0,-1061.0
14.0,-151.0,-263.0,1516.0,210.0,-241.0,70.0,-578.0,-1098.0
-3.0,-113.0,-255.0,1574.0,199.0,-237.0,-36.0,-418.0,-1115.0
3.0,-4.0,-273.0,1605.0,225.0,-214.0,63.0,-52.0,-1103.0
-12.0,74.0,-275.0,1604.0,228.0,-266.0,20.0,276.0,-1112.0
-37.0,162.0,-270.0,1614.0,163.0,-329.0,-84.0,552.0,-1099.0
-43.0,205.0,-240.0,1462.0,94.0,-341.0,-163.0,837.0,-996.0
-69.0,293.0,-209.0,1221.0,49.0,-236.0,-247.0,1146.0,-874.0
-58.0,348.0,-167.0,999.0,0.0,-37.0,-215.0,1377.0,-701.0
-43.0,402.0,-191.0,844.0,-65.0,124.0,-161.0,1567.0,-794.0
-33.0,402.0,-179.0,672.0,-99.0,208.0,-145.0,1588.0,-737.0
0.0,370.0,-140.0,489.0,-89.0,254.0,-28.0,1470.0,-600.0
1.0,297.0,-106.0,367.0,-66.0,256.0,38.0,1212.0,-458.0
-23.0,282.0,-208.0,258.0,-141.0,230.0,-52.0,1088.0,-834.0
0.0,169.0,-157.0,-66.0,-121.0,285.0,2.0,766.0,-688.0
-16.0,134.0,-149.0,-131.0,-47.0,311.0,-27.0,534.0,-611.0
-72.0,84.0,-75.0,-128.0,-74.0,225.0,-221.0,320.0,-338.0
-40.0,70.0,-62.0,-172.0,-279.0,114.0,-167.0,232.0,-173.0
4.0,105.0,-174.0,-282.0,-430.0,50.0,-4.0,371.0,-634.0
65.0,78.0,-144.0,-468.0,-408.0,40.0,218.0,404.0,-675.0
48.0,-6.0,-58.0,-457.0,-240.0,41.0,131.0,2.0,-264.0
49.0,-26.0,-59.0,-347.0,-57.0,11.0,139.0,-111.0,-219.0
71.0,-30.0,-90.0,-337.0,136.0,-4.0,274.0,-82.0,-371.0
66.0,-31.0,-139.0,-312.0,240.0,-12.0,245.0,-126.0,-562.0
45.0,-16.0,-143.0,-276.0,285.0,5.0,164.0,-54.0,-588.0
12.0,11.0,-155.0,-294.0,310.0,20.0,78.0,65.0,-660.0
5.0,40.0,-198.0,-283.0,261.0,28.0,29.0,157.0,-814.0
-28.0,52.0,-207.0,-251.0,184.0,35.0,-71.0,195.0,-863.0
-20.0,62.0,-215.0,-231.0,108.0,46.0,-85.0,242.0,-884.0
-14.0,64.0,-215.0,-214.0,47.0,59.0,-43.0,282.0,-866.0
-14.0,65.0,-230.0,-157.0,-3.0,74.0,-41.0,259.0,-954.0
-25.0,49.0,-237.0,-78.0,-35.0,75.0,-95.0,202.0,-967.0
-17.0,56.0,-259.0,5.0,-72.0,67.0,-62.0,206.0,-1038.0
-15.0,55.0,-282.0,54.0,-79.0,56.0,-41.0,218.0,-1152.0
-19.0,49.0,-279.0,66.0,-42.0,45.0,-56.0,175.0,-1157.0
-26.0,37.0,-299.0,58.0,2.0,34.0,-79.0,141.0,-1235.0
-20.0,24.0,-331.0,60.0,27.0,22.0,-66.0,96.0,-1367.0
-19.0,33.0,-329.0,25.0,45.0,10.0,-27.0,108.0,-1365.0
-17.0,22.0,-338.0,-13.0,48.0,-4.0,-54.0,117.0,-1397.0
-21.0,20.0,-340.0,4.0,46.0,-25.0,-76.0,95.0,-1432.0
-20.0,20.0,-346.0,1.0,38.0,-32.0,-85.0,103.0,-1390.0
-40.0,12.0,-338.0,26.0,-9.0,-34.0,-125.0,67.0,-1399.0
-46.0,22.0,-345.0,66.0,-67.0,-29.0,-137.0,79.0,-1449.0
-38.0,2.0,-344.0,87.0,-119.0,-22.0,-124.0,19.0,-1414.0
-38.0,10.0,-360.0,108.0,-151.0,-22.0,-117.0,51.0,-1504.0
-21.0,24.0,-355.0,95.0,-147.0,-19.0,-65.0,99.0,-1470.0
-22.0,10.0,-344.0,92.0,-146.0,-17.0,-57.0,52.0,-1418.0
-22.0,17.0,-349.0,97.0,-133.0,-22.0,-67.0,59.0,-1432.0
-21.0,15.0,-319.0,87.0,-116.0,-22.0,-42.0,68.0,-1339.0
-11.0,9.0,-314.0,64.0,-115.0,-19.0,-33.0,34.0,-1294.0
-31.0,26.0,-307.0,54.0,-109.0,-19.0,-99.0,92.0,-1270.0
-15.0,18.0,-280.0,72.0,-81.0,-13.0,-54.0,83.0,-1184.0
-11.0,13.0,-277.0,77.0,-71.0,-9.0,-26.0,58.0,-1145.0
-25.0,25.0,-273.0,92.0,-68.0,-13.0,-84.0,112.0,-1135.0
-9.0,25.0,-259.0,146.0,-50.0,-6.0,-20.0,95.0,-1080.0
-10.0,18.0,-252.0,150.0,-38.0,-8.0,-14.0,57.0,-1034.0
-17.0,13.0,-250.0,172.0,-17.0,-11.0,-54.0,43.0,-1018.0
-15.0,16.0,-253.0,194.0,-6.0,-12.0,-50.0,65.0,-1028.0
-17.0,13.0,-254.0,205.0,1.0,-12.0,-51.0,49.0,-1019.0
-7.0,9.0,-243.0,203.0,13.0,-11.0,-18.0,46.0,-1022.0
-7.0,2.0,-237.0,205.0,15.0,-10.0,-28.0,13.0,-972.0
-11.0,14.0,-240.0,197.0,16.0,-7.0,-13.0,39.0,-996.0
-14.0,9.0,-232.0,158.0,22.0,-6.0,-25.0,18.0,-962.0
-16.0,-5.0,-224.0,141.0,17.0,-5.0,-44.0,-26.0,-933.0
-12.0,-1.0,-230.0,146.0,2.0,-4.0,-27.0,-17.0,-944.0
-17.0,21.0,-244.0,132.0,-2.0,-8.0,-40.0,82.0,-1007.0
-15.0,8.0,-231.0,94.0,1.0,-6.0,-50.0,28.0,-939.0
-16.0,-1.0,-223.0,95.0,-4.0,-9.0,-41.0,-12.0,-911.0
-12.0,1.0,-217.0,102.0,-9.0,-11.0,-42.0,2.0,-917.0
-14.0,3.0,-224.0,107.0,-13.0,-13.0,-40.0,12.0,-917.0
-16.0,2.0,-224.0,111.0,-18.0,-16.0,-45.0,10.0,-916.0
-14.0,-2.0,-223.0,111.0,-22.0,-20.0,-51.0,5.0,-932.0
-20.0,10.0,-230.0,108.0,-27.0,-21.0,-45.0,22.0,-936.0
-15.0,4.0,-234.0,109.0,-32.0,-22.0,-51.0,31.0,-959.0
-18.0,6.0,-235.0,112.0,-38.0,-25.0,-56.0,31.0,-970.0
-16.0,5.0,-243.0,117.0,-43.0,-26.0,-49.0,26.0,-986.0
-15.0,5.0,-242.0,119.0,-47.0,-26.0,-47.0,29.0,-1000.0
-13.0,7.0,-245.0,120.0,-50.0,-25.0,-45.0,30.0,-1011.0
-14.0,6.0,-253.0,121.0,-51.0,-23.0,-49.0,33.0,-1035.0
-16.0,10.0,-257.0,119.0,-48.0,-24.0,-48.0,30.0,-1053.0
-17.0,7.0,-260.0,113.0,-45.0,-24.0,-54.0,32.0,-1065.0
-21.0,11.0,-262.0,104.0,-40.0,-23.0,-56.0,37.0,-1085.0
-23.0,15.0,-268.0,95.0,-38.0,-21.0,-62.0,37.0,-1095.0
-22.0,11.0,-268.0,85.0,-34.0,-19.0,-63.0,36.0,-1107.0
-22.0,12.0,-272.0,73.0,-29.0,-17.0,-60.0,40.0,-1113.0
-20.0,9.0,-269.0,64.0,-24.0,-13.0,-63.0,36.0,-1122.0
-21.0,11.0,-273.0,57.0,-15.0,-12.0,-59.0,44.0,-1129.0
-20.0,12.0,-274.0,51.0,-9.0,-11.0,-63.0,46.0,-1131.0
-22.0,8.0,-275.0,45.0,0.0,-9.0,-65.0,43.0,-1138.0
-19.0,10.0,-274.0,38.0,7.0,-7.0,-66.0,42.0,-1135.0
-21.0,11.0,-274.0,31.0,13.0,-7.0,-61.0,39.0,-1135.0
-23.0,14.0,-275.0,22.0,19.0,-5.0,-61.0,41.0,-1135.0
-21.0,11.0,-271.0,11.0,21.0,-5.0,-61.0,43.0,-1133.0
-22.0,15.0,-271.0,4.0,22.0,-5.0,-57.0,51.0,-1119.0
-22.0,17.0,-267.0,1.0,21.0,-5.0,-59.0,48.0,-1113.0
-17.0,12.0,-267.0,-3.0,21.0,-4.0,-56.0,50.0,-1098.0
-19.0,16.0,-260.0,-5.0,18.0,-2.0,-57.0,57.0,-1087.0
-19.0,13.0,-258.0,-5.0,13.0,-2.0,-57.0,55.0,-1083.0
-15.0,13.0,-256.0,-3.0,9.0,-3.0,-54.0,56.0,-1061.0
-16.0,14.0,-257.0,0.0,3.0,-4.0,-52.0,57.0,-1050.0
-21.0,10.0,-252.0,2.0,-1.0,-4.0,-53.0,51.0,-1053.0
-20.0,14.0,-252.0,7.0,-3.0,-4.0,-50.0,52.0,-1043.0
-17.0,16.0,-249.0,13.0,-4.0,-5.0,-53.0,53.0,-1035.0
-17.0,13.0,-251.0,19.0,-3.0,-4.0,-50.0,55.0,-1038.0
-17.0,9.0,-251.0,25.0,-3.0,-6.0,-54.0,52.0,-1029.0
-19.0,16.0,-251.0,30.0,-2.0,-5.0,-54.0,54.0,-1028.0
-18.0,12.0,-250.0,36.0,-2.0,-7.0,-53.0,53.0,-1021.0
-19.0,14.0,-249.0,41.0,1.0,-7.0,-53.0,55.0,-1024.0
-18.0,15.0,-247.0,45.0,2.0,-8.0,-53.0,54.0,-1030.0
-17.0,13.0,-249.0,49.0,4.0,-9.0,-52.0,53.0,-1018.0
-17.0,11.0,-248.0,52.0,3.0,-11.0,-46.0,52.0,-1026.0
-14.0,10.0,-251.0,55.0,2.0,-10.0,-54.0,48.0,-1031.0
-16.0,12.0,-251.0,56.0,1.0,-11.0,-48.0,53.0,-1032.0
-18.0,14.0,-251.0,58.0,0.0,-11.0,-49.0,54.0,-1035.0
-20.0,14.0,-250.0,58.0,-1.0,-11.0,-55.0,50.0,-1036.0
-22.0,14.0,-259.0,61.0,-2.0,-9.0,-46.0,52.0,-1037.0
-21.0,15.0,-257.0,63.0,-2.0,-11.0,-51.0,50.0,-1051.0
-20.0,13.0,-257.0,65.0,-3.0,-13.0,-50.0,50.0,-1052.0
-20.0,12.0,-258.0,65.0,-4.0,-13.0,-56.0,52.0,-1054.0
-19.0,15.0,-254.0,66.0,-2.0,-15.0,-53.0,51.0,-1053.0
-18.0,13.0,-257.0,68.0,-2.0,-14.0,-51.0,50.0,-1061.0
-17.0,15.0,-261.0,69.0,-2.0,-13.0,-54.0,49.0,-1057.0
-19.0,9.0,-261.0,68.0,-1.0,-13.0,-54.0,49.0,-1062.0
-20.0,8.0,-260.0,66.0,-2.0,-14.0,-55.0,44.0,-1068.0
-18.0,14.0,-260.0,66.0,-2.0,-14.0,-58.0,51.0,-1070.0
-18.0,10.0,-256.0,66.0,-3.0,-14.0,-55.0,43.0,-1072.0
-20.0,16.0,-263.0,67.0,-4.0,-13.0,-56.0,47.0,-1079.0
-18.0,10.0,-261.0,64.0,-5.0,-14.0,-56.0,48.0,-1073.0
-19.0,10.0,-260.0,63.0,-5.0,-14.0,-60.0,46.0,-1076.0
-19.0,10.0,-261.0,61.0,-5.0,-13.0,-60.0,46.0,-1079.0
-19.0,13.0,-263.0,60.0,-6.0,-13.0,-57.0,37.0,-1073.0
-20.0,13.0,-259.0,59.0,-6.0,-11.0,-56.0,43.0,-1076.0
-19.0,10.0,-261.0,59.0,-7.0,-13.0,-58.0,39.0,-1071.0
-19.0,13.0,-258.0,57.0,-7.0,-12.0,-57.0,37.0,-1074.0
-18.0,10.0,-258.0,57.0,-7.0,-13.0,-60.0,40.0,-1077.0
-17.0,12.0,-258.0,57.0,-8.0,-12.0,-56.0,37.0,-1075.0
-18.0,8.0,-260.0,56.0,-9.0,-12.0,-57.0,37.0,-1073.0
-20.0,8.0,-258.0,55.0,-10.0,-11.0,-60.0,39.0,-1067.0
-20.0,7.0,-254.0,54.0,-9.0,-11.0,-56.0,35.0,-1063.0
-20.0,10.0,-254.0,52.0,-7.0,-12.0,-56.0,38.0,-1060.0
-19.0,8.0,-259.0,49.0,-7.0,-11.0,-58.0,38.0,-1060.0
-17.0,7.0,-252.0,48.0,-7.0,-10.0,-57.0,35.0,-1050.0
-20.0,8.0,-254.0,48.0,-5.0,-10.0,-57.0,35.0,-1053.0
-21.0,7.0,-254.0,47.0,-5.0,-9.0,-53.0,38.0,-1046.0
-19.0,10.0,-256.0,45.0,-5.0,-10.0,-58.0,35.0,-1050.0
-21.0,9.0,-256.0,46.0,-4.0,-9.0,-61.0,40.0,-1049.0
-22.0,13.0,-254.0,44.0,-5.0,-8.0,-56.0,40.0,-1050.0
-17.0,12.0,-258.0,45.0,-5.0,-10.0,-56.0,43.0,-1053.0
-20.0,11.0,-254.0,46.0,-4.0,-8.0,-56.0,44.0,-1048.0
-19.0,13.0,-255.0,46.0,-2.0,-8.0,-54.0,44.0,-1054.0
-20.0,10.0,-253.0,47.0,-2.0,-9.0,-59.0,44.0,-1048.0
-19.0,8.0,-253.0,46.0,-2.0,-9.0,-52.0,39.0,-1050.0
-21.0,9.0,-256.0,47.0,-1.0,-9.0,-60.0,42.0,-1050.0
-21.0,11.0,-258.0,48.0,-1.0,-9.0,-55.0,45.0,-1055.0
-21.0,11.0,-252.0,47.0,0.0,-8.0,-59.0,48.0,-1048.0
-20.0,11.0,-255.0,47.0,0.0,-10.0,-60.0,47.0,-1057.0
-19.0,11.0,-255.0,49.0,1.0,-9.0,-56.0,45.0,-1054.0
-18.0,9.0,-258.0,48.0,1.0,-9.0,-56.0,40.0,-1056.0
-21.0,8.0,-256.0,49.0,2.0,-9.0,-62.0,47.0,-1069.0
-18.0,12.0,-258.0,49.0,4.0,-9.0,-59.0,48.0,-1055.0
-21.0,10.0,-254.0,49.0,5.0,-9.0,-58.0,46.0,-1056.0
-18.0,13.0,-255.0,48.0,6.0,-9.0,-69.0,42.0,-1060.0
-19.0,12.0,-254.0,48.0,8.0,-10.0,-60.0,48.0,-1059.0
-22.0,12.0,-255.0,48.0,9.0,-8.0,-64.0,48.0,-1057.0
-20.0,15.0,-256.0,47.0,8.0,-8.0,-61.0,46.0,-1061.0
-18.0,10.0,-257.0,47.0,9.0,-7.0,-63.0,47.0,-1058.0
-18.0,10.0,-263.0,46.0,9.0,-8.0,-63.0,46.0,-1056.0
-22.0,14.0,-259.0,44.0,10.0,-9.0,-60.0,47.0,-1063.0
-21.0,11.0,-258.0,41.0,10.0,-9.0,-57.0,45.0,-1074.0
-21.0,15.0,-257.0,37.0,11.0,-9.0,-62.0,50.0,-1071.0
-20.0,13.0,-260.0,35.0,13.0,-8.0,-61.0,50.0,-1064.0
-17.0,9.0,-257.0,33.0,15.0,-9.0,-63.0,47.0,-1073.0
-19.0,13.0,-259.0,33.0,15.0,-8.0,-59.0,50.0,-1063.0
-19.0,11.0,-259.0,32.0,15.0,-8.0,-65.0,52.0,-1069.0
-21.0,12.0,-256.0,32.0,16.0,-7.0,-55.0,54.0,-1058.0
-23.0,17.0,-256.0,33.0,15.0,-7.0,-61.0,50.0,-1063.0
-17.0,12.0,-258.0,33.0,13.0,-9.0,-63.0,49.0,-1056.0
-20.0,13.0,-259.0,33.0,14.0,-9.0,-62.0,51.0,-1058.0
-21.0,11.0,-254.0,32.0,13.0,-9.0,-59.0,52.0,-1057.0
-10.0,18.0,-260.0,33.0,14.0,-9.0,-59.0,48.0,-1056.0
-17.0,12.0,-256.0,35.0,15.0,-8.0,-59.0,45.0,-1051.0
-20.0,12.0,-259.0,36.0,16.0,-8.0,-55.0,47.0,-1049.0
-19.0,13.0,-257.0,37.0,15.0,-8.0,-62.0,44.0,-1057.0
-20.0,13.0,-255.0,38.0,15.0,-8.0,-65.0,44.0,-1055.0
-21.0,13.0,-260.0,40.0,16.0,-8.0,-58.0,50.0,-1055.0
-17.0,10.0,-255.0,40.0,16.0,-8.0,-61.0,44.0,-1049.0
-16.0,13.0,-252.0,43.0,17.0,-9.0,-58.0,47.0,-1049.0
-20.0,17.0,-257.0,45.0,18.0,-9.0,-52.0,44.0,-1049.0
-18.0,12.0,-256.0,46.0,16.0,-9.0,-57.0,52.0,-1048.0
-18.0,9.0,-253.0,46.0,15.0,-9.0,-62.0,47.0,-1052.0
-18.0,9.0,-258.0,47.0,14.0,-10.0,-55.0,47.0,-1053.0
-17.0,5.0,-255.0,46.0,16.0,-10.0,-60.0,46.0,-1050.0
-17.0,9.0,-257.0,46.0,16.0,-12.0,-62.0,48.0,-1047.0
-18.0,12.0,-255.0,46.0,16.0,-10.0,-56.0,45.0,-1053.0
-18.0,10.0,-254.0,48.0,18.0,-11.0,-60.0,45.0,-1051.0
-20.0,12.0,-257.0,49.0,19.0,-10.0,-60.0,49.0,-1053.0
-20.0,13.0,-258.0,49.0,19.0,-11.0,-50.0,40.0,-1057.0
-17.0,11.0,-258.0,49.0,17.0,-11.0,-57.0,41.0,-1060.0
-19.0,14.0,-255.0,48.0,17.0,-10.0,-56.0,48.0,-1069.0
-19.0,16.0,-255.0,48.0,15.0,-9.0,-59.0,43.0,-1056.0
-20.0,14.0,-255.0,48.0,15.0,-9.0,-59.0,46.0,-1059.0
-18.0,12.0,-254.0,47.0,14.0,-9.0,-60.0,44.0,-1053.0
-21.0,12.0,-258.0,47.0,15.0,-9.0,-58.0,48.0,-1063.0
-21.0,11.0,-259.0,46.0,14.0,-10.0,-61.0,40.0,-1059.0
-19.0,9.0,-255.0,46.0,14.0,-10.0,-57.0,48.0,-1058.0
-19.0,9.0,-254.0,47.0,13.0,-11.0,-58.0,47.0,-1054.0
-16.0,8.0,-255.0,46.0,12.0,-10.0,-60.0,41.0,-1056.0
-21.0,9.0,-258.0,47.0,12.0,-9.0,-58.0,40.0,-1060.0
-19.0,15.0,-256.0,49.0,12.0,-10.0,-64.0,43.0,-1054.0
-21.0,14.0,-257.0,50.0,12.0,-9.0,-62.0,45.0,-1054.0
-17.0,11.0,-255.0,51.0,12.0,-8.0,-64.0,49.0,-1054.0
-15.0,9.0,-256.0,51.0,12.0,-10.0,-58.0,42.0,-1050.0
-19.0,9.0,-255.0,51.0,11.0,-10.0,-56.0,49.0,-1059.0
-20.0,12.0,-255.0,49.0,10.0,-9.0,-56.0,43.0,-1055.0
-21.0,11.0,-256.0,49.0,9.0,-10.0,-58.0,45.0,-1054.0
-20.0,14.0,-255.0,49.0,8.0,-9.0,-64.0,46.0,-1051.0
-19.0,9.0,-256.0,49.0,8.0,-9.0,-62.0,49.0,-1047.0
-17.0,12.0,-253.0,49.0,7.0,-10.0,-60.0,51.0,-1057.0
-20.0,10.0,-254.0,49.0,6.0,-11.0,-58.0,46.0,-1050.0
-18.0,11.0,-256.0,49.0,6.0,-10.0,-61.0,48.0,-1055.0
-22.0,10.0,-262.0,49.0,4.0,-9.0,-58.0,47.0,-1056.0
-21.0,10.0,-259.0,50.0,4.0,-11.0,-66.0,48.0,-1058.0
-21.0,8.0,-257.0,50.0,3.0,-10.0,-61.0,50.0,-1062.0
-22.0,12.0,-257.0,51.0,2.0,-9.0,-57.0,45.0,-1051.0
-18.0,10.0,-257.0,51.0,1.0,-9.0,-61.0,48.0,-1054.0
-20.0,10.0,-254.0,51.0,1.0,-12.0,-61.0,52.0,-1055.0
-17.0,10.0,-256.0,52.0,1.0,-10.0,-66.0,49.0,-1059.0
-21.0,12.0,-254.0,52.0,2.0,-8.0,-59.0,46.0,-1061.0
-20.0,14.0,-257.0,53.0,2.0,-10.0,-60.0,48.0,-1054.0
-22.0,14.0,-257.0,54.0,2.0,-9.0,-62.0,50.0,-1057.0
-21.0,14.0,-258.0,54.0,1.0,-10.0,-59.0,46.0,-1055.0
-19.0,11.0,-254.0,55.0,3.0,-12.0,-59.0,45.0,-1053.0
-20.0,13.0,-253.0,54.0,2.0,-11.0,-60.0,46.0,-1051.0
-21.0,11.0,-256.0,54.0,1.0,-11.0,-58.0,49.0,-1050.0
-20.0,13.0,-251.0,53.0,0.0,-9.0,-57.0,47.0,-1052.0
-19.0,11.0,-255.0,55.0,0.0,-9.0,-59.0,51.0,-1058.0
-19.0,12.0,-255.0,56.0,-1.0,-10.0,-59.0,45.0,-1052.0
-18.0,13.0,-254.0,57.0,-1.0,-11.0,-58.0,43.0,-1054.0
-21.0,12.0,-257.0,57.0,-4.0,-11.0,-60.0,47.0,-1068.0
-21.0,10.0,-255.0,62.0,-12.0,-11.0,-77.0,48.0,-1047.0
-19.0,11.0,-254.0,64.0,-6.0,-11.0,-70.0,47.0,-1060.0
-19.0,10.0,-253.0,63.0,-2.0,-11.0,-57.0,43.0,-1056.0
-28.0,10.0,-256.0,61.0,-1.0,-11.0,-67.0,44.0,-1052.0
-23.0,15.0,-263.0,61.0,-1.0,-9.0,-64.0,47.0,-1067.0
-18.0,9.0,-259.0,60.0,-1.0,-11.0,-62.0,46.0,-1060.0
-21.0,12.0,-259.0,60.0,0.0,-11.0,-66.0,46.0,-1052.0
-18.0,9.0,-257.0,62.0,-1.0,-11.0,-64.0,44.0,-1056.0
-19.0,8.0,-257.0,62.0,0.0,-9.0,-63.0,43.0,-1055.0
-22.0,13.0,-259.0,61.0,0.0,-11.0,-59.0,40.0,-1060.0
-18.0,10.0,-257.0,59.0,0.0,-13.0,-61.0,45.0,-1054.0
-19.0,8.0,-252.0,57.0,1.0,-13.0,-60.0,45.0,-1060.0
-19.0,15.0,-252.0,57.0,-2.0,-11.0,-61.0,41.0,-1056.0
-23.0,9.0,-255.0,55.0,-2.0,-10.0,-68.0,41.0,-1050.0
-17.0,12.0,-257.0,52.0,1.0,-12.0,-63.0,44.0,-1053.0
-15.0,14.0,-256.0,51.0,1.0,-10.0,-60.0,46.0,-1062.0
-19.0,10.0,-257.0,52.0,3.0,-11.0,-62.0,45.0,-1057.0
-23.0,12.0,-256.0,54.0,3.0,-10.0,-64.0,45.0,-1057.0
-21.0,12.0,-255.0,54.0,3.0,-9.0,-65.0,40.0,-1066.0
-19.0,9.0,-258.0,54.0,2.0,-9.0,-62.0,38.0,-1053.0
-22.0,14.0,-258.0,56.0,2.0,-10.0,-64.0,42.0,-1054.0
-19.0,9.0,-256.0,55.0,0.0,-9.0,-62.0,45.0,-1055.0
-19.0,11.0,-255.0,55.0,1.0,-10.0,-63.0,44.0,-1059.0
-21.0,10.0,-260.0,55.0,3.0,-11.0,-61.0,47.0,-1054.0
-21.0,12.0,-252.0,55.0,3.0,-11.0,-69.0,45.0,-1061.0
-24.0,16.0,-261.0,56.0,4.0,-10.0,-63.0,41.0,-1067.0
-23.0,11.0,-256.0,55.0,5.0,-10.0,-66.0,42.0,-1051.0
-21.0,11.0,-255.0,56.0,6.0,-11.0,-67.0,46.0,-1061.0
-20.0,12.0,-257.0,58.0,5.0,-11.0,-58.0,46.0,-1052.0
-16.0,9.0,-256.0,57.0,6.0,-11.0,-61.0,37.0,-1055.0
-21.0,12.0,-261.0,57.0,5.0,-10.0,-66.0,43.0,-1060.0
-19.0,11.0,-258.0,56.0,5.0,-12.0,-66.0,46.0,-1056.0
-18.0,12.0,-256.0,57.0,4.0,-9.0,-61.0,49.0,-1056.0
-20.0,13.0,-256.0,56.0,4.0,-10.0,-64.0,45.0,-1062.0
-21.0,14.0,-259.0,57.0,4.0,-10.0,-63.0,40.0,-1053.0
-21.0,9.0,-255.0,57.0,1.0,-11.0,-64.0,44.0,-1055.0
-26.0,5.0,-270.0,57.0,3.0,-11.0,-68.0,46.0,-1054.0
-22.0,13.0,-255.0,55.0,5.0,-10.0,-61.0,49.0,-1060.0
-21.0,11.0,-256.0,55.0,7.0,-10.0,-60.0,44.0,-1059.0
-19.0,9.0,-258.0,55.0,8.0,-8.0,-62.0,46.0,-1061.0
-20.0,6.0,-261.0,54.0,10.0,-10.0,-67.0,42.0,-1053.0
-20.0,12.0,-255.0,54.0,9.0,-10.0,-72.0,46.0,-1053.0
-18.0,11.0,-258.0,53.0,10.0,-9.0,-58.0,42.0,-1053.0
-22.0,14.0,-259.0,52.0,10.0,-11.0,-62.0,49.0,-1053.0
-21.0,10.0,-255.0,52.0,10.0,-10.0,-65.0,48.0,-1053.0
-19.0,12.0,-257.0,51.0,12.0,-11.0,-66.0,49.0,-1054.0
-21.0,12.0,-253.0,52.0,12.0,-11.0,-67.0,49.0,-1056.0
-21.0,11.0,-260.0,52.0,12.0,-10.0,-67.0,45.0,-1049.0
-20.0,11.0,-255.0,54.0,12.0,-9.0,-70.0,41.0,-1071.0
-20.0,10.0,-256.0,54.0,13.0,-9.0,-62.0,40.0,-1057.0
-19.0,10.0,-259.0,54.0,13.0,-9.0,-61.0,40.0,-1063.0
-20.0,13.0,-257.0,53.0,11.0,-10.0,-63.0,40.0,-1055.0
-20.0,11.0,-256.0,52.0,11.0,-10.0,-63.0,44.0,-1053.0
-20.0,7.0,-258.0,54.0,10.0,-9.0,-64.0,41.0,-1053.0
-22.0,11.0,-256.0,52.0,10.0,-11.0,-64.0,41.0,-1056.0
-20.0,6.0,-256.0,51.0,10.0,-10.0,-64.0,40.0,-1055.0
-19.0,8.0,-255.0,51.0,9.0,-8.0,-61.0,39.0,-1053.0
-22.0,10.0,-256.0,52.0,10.0,-11.0,-61.0,43.0,-1058.0
-21.0,11.0,-259.0,53.0,9.0,-11.0,-67.0,44.0,-1055.0
-20.0,8.0,-254.0,51.0,9.0,-11.0,-66.0,46.0,-1053.0
-20.0,12.0,-257.0,51.0,10.0,-10.0,-67.0,41.0,-1050.0
-20.0,9.0,-257.0,52.0,10.0,-12.0,-69.0,42.0,-1054.0
-23.0,11.0,-256.0,52.0,10.0,-10.0,-66.0,45.0,-1055.0
-22.0,12.0,-255.0,52.0,10.0,-11.0,-61.0,43.0,-1057.0
-20.0,9.0,-252.0,53.0,11.0,-10.0,-60.0,43.0,-1051.0
-23.0,9.0,-250.0,55.0,12.0,-11.0,-61.0,42.0,-1059.0
-20.0,9.0,-254.0,55.0,12.0,-11.0,-58.0,48.0,-1058.0
-20.0,13.0,-254.0,55.0,12.0,-10.0,-65.0,44.0,-1050.0
-28.0,13.0,-260.0,55.0,13.0,-9.0,-63.0,50.0,-1060.0
-21.0,13.0,-258.0,56.0,13.0,-12.0,-64.0,40.0,-1058.0
-20.0,8.0,-256.0,57.0,12.0,-12.0,-63.0,44.0,-1049.0
-21.0,12.0,-255.0,56.0,12.0,-12.0,-72.0,43.0,-1055.0
-20.0,12.0,-258.0,56.0,9.0,-12.0,-57.0,48.0,-1057.0
-18.0,10.0,-253.0,56.0,3.0,-11.0,-61.0,41.0,-1062.0
-22.0,9.0,-256.0,57.0,3.0,-11.0,-71.0,40.0,-1053.0
-22.0,11.0,-256.0,56.0,10.0,-11.0,-66.0,42.0,-1055.0
-23.0,15.0,-258.0,56.0,12.0,-10.0,-67.0,43.0,-1054.0
-23.0,14.0,-258.0,55.0,12.0,-12.0,-66.0,41.0,-1057.0
-18.0,10.0,-254.0,55.0,12.0,-9.0,-66.0,39.0,-1060.0
-21.0,11.0,-256.0,55.0,13.0,-10.0,-64.0,45.0,-1051.0
-23.0,11.0,-256.0,54.0,11.0,-11.0,-66.0,43.0,-1055.0
-17.0,10.0,-254.0,55.0,10.0,-12.0,-59.0,46.0,-1058.0
-21.0,10.0,-260.0,56.0,11.0,-12.0,-63.0,44.0,-1056.0
-23.0,9.0,-256.0,55.0,11.0,-12.0,-65.0,41.0,-1059.0
-19.0,9.0,-258.0,55.0,10.0,-11.0,-62.0,41.0,-1057.0
-21.0,10.0,-260.0,55.0,11.0,-11.0,-67.0,38.0,-1064.0
-19.0,11.0,-258.0,54.0,11.0,-11.0,-56.0,43.0,-1068.0
-20.0,6.0,-254.0,55.0,11.0,-10.0,-66.0,46.0,-1060.0
-20.0,9.0,-249.0,56.0,11.0,-10.0,-64.0,41.0,-1057.0
-23.0,19.0,-262.0,57.0,13.0,-10.0,-65.0,40.0,-1062.0
-20.0,9.0,-255.0,56.0,14.0,-11.0,-70.0,43.0,-1055.0
-21.0,9.0,-253.0,57.0,12.0,-12.0,-62.0,41.0,-1066.0
-20.0,10.0,-254.0,56.0,11.0,-12.0,-68.0,40.0,-1057.0
-20.0,10.0,-254.0,56.0,11.0,-10.0,-72.0,40.0,-1051.0
-20.0,10.0,-259.0,54.0,12.0,-11.0,-66.0,43.0,-1051.0
-18.0,10.0,-260.0,54.0,11.0,-10.0,-62.0,42.0,-1050.0
-21.0,11.0,-256.0,53.0,10.0,-11.0,-63.0,47.0,-1064.0
-20.0,8.0,-256.0,55.0,9.0,-8.0,-61.0,45.0,-1061.0
-24.0,13.0,-251.0,55.0,7.0,-10.0,-69.0,40.0,-1062.0
-24.0,10.0,-258.0,56.0,9.0,-10.0,-74.0,40.0,-1052.0
-23.0,13.0,-252.0,57.0,12.0,-8.0,-69.0,41.0,-1056.0
-19.0,10.0,-256.0,56.0,13.0,-10.0,-60.0,43.0,-1061.0
-21.0,10.0,-258.0,55.0,14.0,-8.0,-71.0,43.0,-1054.0
-19.0,8.0,-257.0,54.0,15.0,-8.0,-65.0,43.0,-1052.0
-23.0,8.0,-257.0,55.0,15.0,-10.0,-70.0,42.0,-1053.0
-20.0,10.0,-255.0,55.0,16.0,-11.0,-67.0,44.0,-1061.0
-20.0,12.0,-257.0,56.0,15.0,-12.0,-67.0,41.0,-1055.0
-22.0,11.0,-255.0,56.0,15.0,-10.0,-62.0,42.0,-1059.0
-18.0,12.0,-255.0,57.0,18.0,-9.0,-62.0,40.0,-1067.0
-21.0,13.0,-254.0,58.0,22.0,-9.0,-74.0,40.0,-1060.0
-22.0,11.0,-257.0,59.0,22.0,-10.0,-57.0,39.0,-1056.0
-17.0,3.0,-258.0,62.0,22.0,-10.0,-54.0,40.0,-1067.0
-19.0,11.0,-254.0,60.0,20.0,-11.0,-56.0,41.0,-1050.0
-21.0,11.0,-256.0,58.0,17.0,-10.0,-62.0,36.0,-1056.0
-19.0,11.0,-254.0,58.0,14.0,-10.0,-58.0,42.0,-1056.0
-22.0,11.0,-258.0,58.0,10.0,-11.0,-64.0,37.0,-1053.0
-22.0,10.0,-256.0,57.0,11.0,-11.0,-66.0,44.0,-1048.0
-21.0,15.0,-254.0,56.0,16.0,-10.0,-63.0,40.0,-1050.0
-20.0,9.0,-255.0,56.0,17.0,-11.0,-61.0,37.0,-1045.0
-19.0,13.0,-255.0,56.0,20.0,-10.0,-64.0,43.0,-1053.0
-23.0,9.0,-258.0,58.0,21.0,-9.0,-64.0,37.0,-1053.0
-17.0,11.0,-259.0,57.0,21.0,-10.0,-63.0,42.0,-1055.0
-20.0,10.0,-256.0,57.0,19.0,-11.0,-59.0,41.0,-1054.0
-20.0,10.0,-260.0,56.0,18.0,-11.0,-66.0,45.0,-1068.0
-20.0,9.0,-259.0,55.0,16.0,-10.0,-64.0,41.0,-1056.0
-23.0,12.0,-257.0,56.0,15.0,-10.0,-62.0,40.0,-1063.0
-20.0,12.0,-257.0,57.0,14.0,-10.0,-66.0,37.0,-1058.0
-19.0,9.0,-256.0,58.0,12.0,-10.0,-70.0,44.0,-1060.0
-22.0,12.0,-258.0,58.0,10.0,-9.0,-57.0,46.0,-1055.0
-21.0,10.0,-260.0,58.0,11.0,-10.0,-74.0,41.0,-1060.0
-22.0,7.0,-257.0,59.0,13.0,-9.0,-65.0,41.0,-1055.0
-19.0,10.0,-256.0,58.0,14.0,-11.0,-67.0,38.0,-1060.0
-19.0,14.0,-261.0,57.0,14.0,-11.0,-64.0,43.0,-1055.0
-19.0,8.0,-258.0,56.0,13.0,-10.0,-68.0,38.0,-1054.0
-21.0,12.0,-253.0,57.0,12.0,-11.0,-65.0,40.0,-1057.0
-18.0,8.0,-257.0,55.0,12.0,-9.0,-64.0,45.0,-1062.0
-22.0,11.0,-260.0,53.0,13.0,-8.0,-71.0,44.0,-1056.0
-20.0,9.0,-257.0,52.0,13.0,-11.0,-63.0,39.0,-1046.0
-20.0,7.0,-256.0,52.0,13.0,-10.0,-65.0,39.0,-1049.0
-20.0,8.0,-254.0,53.0,13.0,-10.0,-69.0,42.0,-1057.0
-21.0,11.0,-257.0,52.0,12.0,-9.0,-61.0,42.0,-1052.0
-22.0,10.0,-258.0,53.0,14.0,-11.0,-66.0,40.0,-1055.0
-21.0,13.0,-260.0,53.0,14.0,-10.0,-65.0,39.0,-1052.0
-23.0,7.0,-250.0,52.0,14.0,-10.0,-62.0,37.0,-1055.0
-19.0,9.0,-255.0,53.0,14.0,-10.0,-66.0,36.0,-1053.0
-21.0,8.0,-257.0,52.0,13.0,-9.0,-63.0,37.0,-1049.0
-21.0,11.0,-257.0,51.0,15.0,-9.0,-63.0,39.0,-1056.0
-26.0,11.0,-261.0,53.0,18.0,-10.0,-68.0,39.0,-1074.0
-16.0,9.0,-254.0,57.0,24.0,-10.0,-52.0,39.0,-1039.0
-20.0,11.0,-257.0,58.0,18.0,-11.0,-60.0,45.0,-1057.0
-21.0,11.0,-254.0,58.0,14.0,-10.0,-59.0,35.0,-1055.0
-24.0,12.0,-256.0,56.0,12.0,-9.0,-65.0,42.0,-1063.0
-20.0,7.0,-251.0,56.0,11.0,-9.0,-67.0,43.0,-1058.0
-18.0,9.0,-259.0,56.0,8.0,-9.0,-69.0,39.0,-1060.0
-17.0,7.0,-260.0,60.0,-6.0,-9.0,-42.0,46.0,-1060.0
-25.0,8.0,-255.0,58.0,-1.0,-10.0,-79.0,37.0,-1044.0
-20.0,10.0,-258.0,56.0,8.0,-9.0,-72.0,38.0,-1054.0
-19.0,7.0,-256.0,56.0,14.0,-9.0,-66.0,38.0,-1061.0
-24.0,10.0,-255.0,53.0,13.0,-10.0,-69.0,34.0,-1052.0
-22.0,10.0,-259.0,50.0,12.0,-10.0,-71.0,42.0,-1051.0
-21.0,9.0,-253.0,49.0,12.0,-11.0,-62.0,41.0,-1052.0
-21.0,8.0,-252.0,51.0,11.0,-12.0,-67.0,36.0,-1053.0
-24.0,14.0,-256.0,51.0,12.0,-10.0,-60.0,41.0,-1053.0
-21.0,7.0,-256.0,51.0,12.0,-10.0,-67.0,39.0,-1062.0
-22.0,6.0,-249.0,50.0,13.0,-9.0,-62.0,37.0,-1055.0
-24.0,11.0,-256.0,51.0,12.0,-9.0,-68.0,39.0,-1069.0
-22.0,12.0,-256.0,51.0,11.0,-10.0,-67.0,38.0,-1052.0
-21.0,9.0,-257.0,51.0,12.0,-9.0,-69.0,44.0,-1057.0
-23.0,10.0,-257.0,51.0,11.0,-9.0,-61.0,38.0,-1054.0
-20.0,11.0,-255.0,52.0,12.0,-8.0,-69.0,37.0,-1063.0
-18.0,8.0,-259.0,52.0,11.0,-7.0,-64.0,42.0,-1052.0
-21.0,10.0,-256.0,52.0,11.0,-10.0,-63.0,43.0,-1055.0
-23.0,8.0,-258.0,51.0,12.0,-10.0,-64.0,39.0,-1053.0
-22.0,9.0,-252.0,50.0,11.0,-9.0,-61.0,40.0,-1060.0
-21.0,6.0,-257.0,51.0,12.0,-8.0,-66.0,39.0,-1052.0
-20.0,8.0,-255.0,49.0,11.0,-9.0,-71.0,38.0,-1063.0
-19.0,11.0,-256.0,49.0,11.0,-9.0,-68.0,40.0,-1068.0
-20.0,5.0,-255.0,49.0,10.0,-9.0,-61.0,40.0,-1051.0
-21.0,10.0,-254.0,50.0,11.0,-9.0,-61.0,42.0,-1062.0
-18.0,10.0,-258.0,49.0,11.0,-10.0,-62.0,38.0,-1054.0
-20.0,11.0,-255.0,50.0,11.0,-9.0,-67.0,42.0,-1051.0
-21.0,9.0,-256.0,50.0,10.0,-9.0,-65.0,39.0,-1048.0
-19.0,9.0,-255.0,50.0,10.0,-10.0,-62.0,37.0,-1051.0
-23.0,12.0,-252.0,51.0,9.0,-11.0,-64.0,40.0,-1053.0
-22.0,10.0,-258.0,51.0,11.0,-10.0,-62.0,40.0,-1056.0
-24.0,11.0,-258.0,50.0,9.0,-9.0,-65.0,36.0,-1048.0
-21.0,8.0,-256.0,51.0,9.0,-9.0,-63.0,38.0,-1048.0
-21.0,9.0,-257.0,53.0,8.0,-9.0,-61.0,39.0,-1053.0
-18.0,7.0,-256.0,55.0,6.0,-9.0,-72.0,39.0,-1050.0
-22.0,8.0,-252.0,55.0,3.0,-8.0,-67.0,40.0,-1049.0
-22.0,6.0,-255.0,52.0,8.0,-8.0,-73.0,39.0,-1052.0
-19.0,10.0,-259.0,53.0,12.0,-9.0,-63.0,40.0,-1053.0
-21.0,10.0,-258.0,52.0,15.0,-9.0,-65.0,40.0,-1052.0
-22.0,9.0,-257.0,53.0,14.0,-9.0,-69.0,39.0,-1051.0
-24.0,8.0,-257.0,54.0,15.0,-10.0,-62.0,41.0,-1062.0
-19.0,12.0,-257.0,53.0,14.0,-9.0,-64.0,38.0,-1056.0
-23.0,5.0,-262.0,54.0,14.0,-8.0,-62.0,41.0,-1060.0
-20.0,10.0,-260.0,54.0,15.0,-10.0,-68.0,39.0,-1057.0
-21.0,11.0,-256.0,55.0,14.0,-9.0,-60.0,38.0,-1060.0
-21.0,11.0,-259.0,54.0,13.0,-10.0,-64.0,41.0,-1057.0
-22.0,9.0,-258.0,55.0,13.0,-8.0,-63.0,39.0,-1055.0
-21.0,9.0,-258.0,55.0,12.0,-9.0,-63.0,41.0,-1060.0
-24.0,9.0,-258.0,55.0,10.0,-8.0,-66.0,46.0,-1049.0
-21.0,11.0,-256.0,57.0,11.0,-10.0,-69.0,39.0,-1054.0
-20.0,7.0,-255.0,58.0,11.0,-9.0,-60.0,39.0,-1051.0
-20.0,8.0,-253.0,57.0,8.0,-9.0,-59.0,39.0,-1053.0
-21.0,9.0,-253.0,57.0,9.0,-9.0,-66.0,40.0,-1054.0
-21.0,9.0,-255.0,58.0,10.0,-9.0,-65.0,43.0,-1055.0
-19.0,8.0,-257.0,57.0,14.0,-9.0,-58.0,38.0,-1063.0
-20.0,9.0,-258.0,57.0,14.0,-9.0,-67.0,43.0,-1061.0
-19.0,8.0,-257.0,58.0,13.0,-8.0,-58.0,40.0,-1064.0
-22.0,9.0,-255.0,57.0,13.0,-8.0,-61.0,39.0,-1060.0
-23.0,11.0,-255.0,56.0,14.0,-9.0,-71.0,41.0,-1055.0
-21.0,10.0,-253.0,58.0,13.0,-8.0,-62.0,33.0,-1062.0
-22.0,9.0,-256.0,56.0,13.0,-7.0,-66.0,34.0,-1056.0
-19.0,6.0,-256.0,57.0,13.0,-8.0,-61.0,45.0,-1060.0
-18.0,7.0,-254.0,55.0,13.0,-9.0,-63.0,40.0,-1053.0
-22.0,13.0,-258.0,55.0,11.0,-9.0,-63.0,39.0,-1057.0
-21.0,11.0,-259.0,55.0,11.0,-7.0,-63.0,38.0,-1054.0
-22.0,7.0,-256.0,55.0,11.0,-9.0,-64.0,37.0,-1053.0
-23.0,9.0,-258.0,56.0,9.0,-10.0,-65.0,36.0,-1060.0
-22.0,10.0,-254.0,56.0,10.0,-9.0,-70.0,37.0,-1055.0
-23.0,11.0,-257.0,56.0,12.0,-9.0,-66.0,37.0,-1057.0
-21.0,8.0,-256.0,56.0,12.0,-8.0,-70.0,39.0,-1056.0
-19.0,7.0,-255.0,56.0,12.0,-9.0,-60.0,42.0,-1054.0
-21.0,11.0,-253.0,55.0,13.0,-9.0,-67.0,35.0,-1062.0
-20.0,4.0,-257.0,55.0,13.0,-7.0,-67.0,38.0,-1056.0
-21.0,7.0,-256.0,55.0,14.0,-8.0,-67.0,34.0,-1056.0
-10.0,8.0,-251.0,54.0,14.0,-9.0,-64.0,35.0,-1056.0
-22.0,13.0,-257.0,54.0,13.0,-8.0,-66.0,38.0,-1061.0
-22.0,8.0,-256.0,54.0,13.0,-9.0,-66.0,36.0,-1056.0
-20.0,7.0,-257.0,53.0,12.0,-9.0,-63.0,34.0,-1062.0
-23.0,9.0,-255.0,52.0,12.0,-9.0,-68.0,41.0,-1055.0
-19.0,10.0,-257.0,52.0,13.0,-10.0,-59.0,40.0,-1053.0
-22.0,11.0,-255.0,51.0,13.0,-10.0,-60.0,40.0,-1057.0
-20.0,7.0,-256.0,50.0,13.0,-10.0,-63.0,38.0,-1055.0
-22.0,11.0,-259.0,52.0,14.0,-8.0,-62.0,38.0,-1056.0
-20.0,9.0,-258.0,52.0,14.0,-9.0,-67.0,40.0,-1054.0
-21.0,12.0,-254.0,53.0,13.0,-9.0,-66.0,36.0,-1058.0
-27.0,9.0,-259.0,54.0,13.0,-10.0,-65.0,32.0,-1054.0
-21.0,9.0,-256.0,54.0,13.0,-11.0,-63.0,38.0,-1060.0
-21.0,12.0,-258.0,55.0,12.0,-9.0,-67.0,41.0,-1059.0
-21.0,7.0,-257.0,55.0,13.0,-9.0,-62.0,44.0,-1061.0
-19.0,12.0,-259.0,55.0,11.0,-8.0,-63.0,39.0,-1053.0
-21.0,6.0,-257.0,53.0,9.0,-8.0,-60.0,37.0,-1052.0
-21.0,12.0,-256.0,54.0,7.0,-11.0,-65.0,32.0,-1061.0
-21.0,8.0,-259.0,55.0,6.0,-9.0,-64.0,36.0,-1054.0
-20.0,8.0,-254.0,55.0,10.0,-9.0,-60.0,35.0,-1060.0
-23.0,6.0,-258.0,54.0,12.0,-11.0,-60.0,40.0,-1054.0
-24.0,8.0,-260.0,53.0,10.0,-10.0,-63.0,35.0,-1051.0
-22.0,6.0,-258.0,53.0,11.0,-10.0,-67.0,39.0,-1054.0
-19.0,8.0,-257.0,52.0,10.0,-9.0,-69.0,40.0,-1057.0
-21.0,8.0,-254.0,51.0,11.0,-10.0,-63.0,42.0,-1050.0
-21.0,10.0,-259.0,52.0,11.0,-11.0,-62.0,38.0,-1051.0
-21.0,7.0,-257.0,53.0,12.0,-10.0,-65.0,38.0,-1051.0
-23.0,10.0,-259.0,51.0,10.0,-10.0,-64.0,36.0,-1053.0
-22.0,6.0,-255.0,51.0,10.0,-10.0,-66.0,35.0,-1061.0
-18.0,9.0,-253.0,51.0,10.0,-10.0,-67.0,37.0,-1052.0
-19.0,6.0,-257.0,50.0,10.0,-10.0,-66.0,42.0,-1052.0
-18.0,11.0,-252.0,49.0,12.0,-11.0,-69.0,38.0,-1049.0
-20.0,7.0,-258.0,51.0,12.0,-11.0,-70.0,38.0,-1057.0
-20.0,10.0,-253.0,53.0,13.0,-10.0,-64.0,37.0,-1057.0
-22.0,11.0,-258.0,53.0,13.0,-10.0,-62.0,39.0,-1056.0
-20.0,11.0,-255.0,54.0,13.0,-10.0,-68.0,35.0,-1059.0
-19.0,7.0,-258.0,53.0,15.0,-10.0,-65.0,34.0,-1071.0
-21.0,10.0,-258.0,52.0,16.0,-11.0,-65.0,38.0,-1060.0
-22.0,8.0,-256.0,53.0,16.0,-11.0,-61.0,38.0,-1060.0
-19.0,10.0,-258.0,53.0,15.0,-11.0,-66.0,36.0,-1057.0
-19.0,9.0,-253.0,54.0,15.0,-10.0,-72.0,41.0,-1054.0
-19.0,9.0,-257.0,54.0,16.0,-10.0,-61.0,35.0,-1055.0
-21.0,11.0,-260.0,52.0,14.0,-10.0,-65.0,38.0,-1053.0
-16.0,13.0,-259.0,52.0,14.0,-10.0,-64.0,36.0,-1062.0
-20.0,11.0,-256.0,51.0,15.0,-11.0,-71.0,36.0,-1050.0
-21.0,10.0,-255.0,51.0,16.0,-10.0,-60.0,38.0,-1055.0
-23.0,9.0,-260.0,52.0,14.0,-9.0,-73.0,37.0,-1056.0
-19.0,8.0,-259.0,53.0,9.0,-11.0,-56.0,38.0,-1078.0
-20.0,9.0,-254.0,59.0,-5.0,-10.0,-78.0,34.0,-1036.0
-26.0,9.0,-256.0,59.0,3.0,-10.0,-78.0,34.0,-1058.0
-22.0,8.0,-255.0,53.0,12.0,-8.0,-71.0,37.0,-1056.0
-23.0,7.0,-262.0,54.0,15.0,-9.0,-61.0,36.0,-1062.0
-20.0,7.0,-253.0,50.0,17.0,-10.0,-72.0,37.0,-1055.0
-24.0,13.0,-252.0,49.0,15.0,-10.0,-72.0,40.0,-1056.0
-23.0,6.0,-256.0,49.0,16.0,-9.0,-61.0,37.0,-1054.0
-23.0,9.0,-259.0,50.0,15.0,-10.0,-70.0,36.0,-1055.0
-22.0,6.0,-259.0,50.0,16.0,-10.0,-69.0,33.0,-1057.0
-21.0,7.0,-255.0,50.0,16.0,-9.0,-65.0,31.0,-1054.0
-21.0,8.0,-256.0,51.0,14.0,-7.0,-66.0,40.0,-1058.0
-19.0,7.0,-259.0,52.0,14.0,-8.0,-72.0,33.0,-1053.0
-19.0,9.0,-256.0,52.0,14.0,-9.0,-63.0,37.0,-1052.0
-20.0,8.0,-255.0,51.0,15.0,-8.0,-65.0,34.0,-1053.0
-23.0,9.0,-254.0,51.0,15.0,-9.0,-64.0,36.0,-1058.0
-21.0,11.0,-259.0,51.0,16.0,-9.0,-63.0,33.0,-1060.0
-22.0,5.0,-259.0,50.0,15.0,-9.0,-61.0,38.0,-1055.0
-19.0,8.0,-253.0,50.0,16.0,-7.0,-63.0,33.0,-1054.0
-16.0,6.0,-255.0,50.0,16.0,-7.0,-62.0,39.0,-1055.0
-19.0,7.0,-257.0,50.0,16.0,-9.0,-60.0,37.0,-1057.0
-22.0,7.0,-261.0,49.0,14.0,-10.0,-64.0,36.0,-1057.0
-18.0,6.0,-255.0,50.0,14.0,-9.0,-66.0,37.0,-1063.0
-17.0,7.0,-259.0,49.0,14.0,-9.0,-72.0,34.0,-1056.0
-22.0,10.0,-254.0,50.0,15.0,-9.0,-68.0,36.0,-1054.0
-23.0,12.0,-258.0,48.0,12.0,-8.0,-62.0,36.0,-1053.0
-19.0,9.0,-255.0,48.0,14.0,-10.0,-67.0,33.0,-1055.0
-20.0,8.0,-258.0,47.0,16.0,-11.0,-63.0,33.0,-1055.0
-24.0,10.0,-263.0,47.0,14.0,-11.0,-62.0,35.0,-1054.0
-19.0,9.0,-258.0,47.0,13.0,-10.0,-71.0,37.0,-1057.0
-22.0,9.0,-257.0,48.0,12.0,-10.0,-59.0,39.0,-1062.0
-22.0,8.0,-258.0,48.0,12.0,-9.0,-63.0,37.0,-1058.0
-19.0,9.0,-256.0,48.0,12.0,-9.0,-61.0,36.0,-1054.0
-20.0,10.0,-258.0,49.0,12.0,-8.0,-66.0,44.0,-1059.0
-16.0,7.0,-253.0,49.0,11.0,-8.0,-66.0,37.0,-1054.0
-22.0,8.0,-261.0,48.0,12.0,-8.0,-68.0,36.0,-1061.0
-20.0,9.0,-255.0,49.0,12.0,-9.0,-60.0,36.0,-1064.0
-20.0,10.0,-254.0,48.0,13.0,-10.0,-65.0,34.0,-1058.0
-26.0,5.0,-258.0,49.0,13.0,-9.0,-60.0,40.0,-1050.0
-23.0,8.0,-254.0,49.0,12.0,-9.0,-63.0,40.0,-1056.0
-24.0,10.0,-255.0,47.0,12.0,-10.0,-60.0,37.0,-1066.0
-23.0,4.0,-255.0,48.0,11.0,-11.0,-66.0,35.0,-1050.0
-21.0,9.0,-258.0,48.0,10.0,-9.0,-65.0,36.0,-1057.0
-19.0,8.0,-254.0,46.0,10.0,-11.0,-68.0,34.0,-1058.0
-21.0,9.0,-256.0,46.0,9.0,-10.0,-62.0,39.0,-1053.0
-22.0,10.0,-256.0,46.0,9.0,-10.0,-64.0,33.0,-1052.0
-21.0,9.0,-255.0,46.0,7.0,-11.0,-64.0,37.0,-1053.0
-19.0,10.0,-254.0,45.0,7.0,-9.0,-64.0,39.0,-1057.0
-20.0,9.0,-256.0,46.0,5.0,-8.0,-65.0,33.0,-1054.0
-21.0,9.0,-255.0,45.0,5.0,-10.0,-62.0,37.0,-1053.0
-19.0,7.0,-254.0,46.0,5.0,-9.0,-65.0,38.0,-1055.0
-20.0,6.0,-256.0,45.0,3.0,-8.0,-67.0,38.0,-1063.0
-22.0,9.0,-257.0,45.0,4.0,-9.0,-66.0,38.0,-1059.0
-25.0,8.0,-256.0,44.0,5.0,-10.0,-70.0,32.0,-1060.0
-21.0,7.0,-256.0,44.0,4.0,-11.0,-67.0,35.0,-1054.0
-20.0,7.0,-257.0,43.0,5.0,-12.0,-64.0,39.0,-1054.0
-22.0,8.0,-259.0,45.0,5.0,-9.0,-70.0,39.0,-1055.0
-25.0,9.0,-257.0,46.0,7.0,-9.0,-62.0,40.0,-1063.0
-20.0,7.0,-253.0,46.0,8.0,-9.0,-66.0,34.0,-1055.0
-21.0,9.0,-255.0,44.0,8.0,-9.0,-71.0,36.0,-1054.0
-21.0,9.0,-254.0,43.0,8.0,-10.0,-60.0,38.0,-1050.0
-20.0,9.0,-260.0,42.0,6.0,-9.0,-70.0,38.0,-1058.0
-22.0,6.0,-256.0,43.0,5.0,-10.0,-67.0,37.0,-1055.0
-24.0,12.0,-256.0,42.0,6.0,-11.0,-70.0,41.0,-1057.0
-23.0,11.0,-258.0,42.0,5.0,-9.0,-72.0,38.0,-1058.0
-21.0,10.0,-257.0,43.0,6.0,-9.0,-67.0,40.0,-1056.0
-20.0,8.0,-252.0,43.0,6.0,-10.0,-71.0,39.0,-1053.0
-22.0,10.0,-261.0,44.0,7.0,-9.0,-70.0,41.0,-1054.0
-22.0,12.0,-255.0,44.0,9.0,-8.0,-65.0,40.0,-1057.0
-21.0,6.0,-258.0,44.0,9.0,-9.0,-61.0,38.0,-1064.0
-24.0,12.0,-257.0,45.0,10.0,-10.0,-67.0,37.0,-1059.0
-22.0,7.0,-257.0,46.0,10.0,-11.0,-72.0,38.0,-1060.0
-17.0,9.0,-259.0,46.0,11.0,-9.0,-63.0,38.0,-1054.0
-21.0,10.0,-260.0,45.0,11.0,-9.0,-70.0,39.0,-1053.0
-19.0,10.0,-257.0,45.0,11.0,-9.0,-74.0,39.0,-1051.0
-21.0,9.0,-257.0,46.0,10.0,-10.0,-74.0,37.0,-1057.0
-24.0,9.0,-257.0,45.0,10.0,-9.0,-72.0,35.0,-1052.0
-21.0,11.0,-253.0,44.0,9.0,-10.0,-71.0,34.0,-1049.0
-22.0,9.0,-257.0,43.0,9.0,-10.0,-67.0,43.0,-1050.0
-21.0,10.0,-255.0,43.0,10.0,-10.0,-69.0,34.0,-1054.0
-23.0,9.0,-257.0,44.0,11.0,-10.0,-72.0,39.0,-1055.0
-23.0,5.0,-253.0,44.0,11.0,-9.0,-66.0,40.0,-1052.0
-22.0,8.0,-253.0,45.0,10.0,-10.0,-70.0,39.0,-1055.0
-18.0,8.0,-257.0,44.0,11.0,-12.0,-73.0,37.0,-1051.0
-22.0,7.0,-255.0,44.0,11.0,-10.0,-69.0,38.0,-1055.0
-21.0,8.0,-257.0,43.0,10.0,-9.0,-71.0,36.0,-1054.0
-23.0,9.0,-254.0,42.0,11.0,-8.0,-68.0,36.0,-1051.0
-23.0,12.0,-258.0,43.0,11.0,-8.0,-62.0,38.0,-1054.0
-20.0,9.0,-257.0,43.0,12.0,-8.0,-65.0,38.0,-1054.0
-23.0,8.0,-256.0,42.0,11.0,-8.0,-74.0,39.0,-1049.0
-21.0,8.0,-259.0,41.0,12.0,-9.0,-65.0,37.0,-1055.0
-21.0,7.0,-255.0,42.0,14.0,-10.0,-67.0,40.0,-1055.0
-25.0,7.0,-253.0,41.0,14.0,-10.0,-72.0,40.0,-1055.0
-19.0,6.0,-254.0,41.0,14.0,-8.0,-67.0,40.0,-1057.0
-20.0,10.0,-257.0,43.0,13.0,-10.0,-64.0,36.0,-1052.0
-23.0,10.0,-255.0,43.0,14.0,-10.0,-73.0,39.0,-1061.0
-21.0,10.0,-256.0,44.0,13.0,-8.0,-65.0,39.0,-1054.0
-23.0,10.0,-256.0,44.0,13.0,-8.0,-69.0,42.0,-1053.0
-23.0,10.0,-253.0,44.0,12.0,-9.0,-64.0,36.0,-1054.0
-19.0,8.0,-253.0,44.0,13.0,-7.0,-69.0,41.0,-1055.0
-21.0,11.0,-258.0,44.0,13.0,-8.0,-68.0,38.0,-1063.0
-20.0,9.0,-256.0,44.0,13.0,-7.0,-66.0,42.0,-1055.0
-22.0,12.0,-259.0,45.0,13.0,-9.0,-69.0,42.0,-1054.0
-23.0,9.0,-256.0,44.0,13.0,-9.0,-67.0,38.0,-1053.0
-23.0,9.0,-255.0,43.0,14.0,-9.0,-60.0,36.0,-1054.0
-20.0,7.0,-255.0,44.0,13.0,-8.0,-62.0,38.0,-1057.0
-21.0,11.0,-257.0,43.0,12.0,-10.0,-69.0,40.0,-1057.0
-21.0,10.0,-257.0,44.0,11.0,-7.0,-65.0,39.0,-1059.0
-21.0,12.0,-258.0,45.0,11.0,-7.0,-65.0,39.0,-1054.0
-18.0,6.0,-256.0,46.0,11.0,-9.0,-67.0,42.0,-1051.0
-23.0,9.0,-256.0,47.0,11.0,-8.0,-64.0,39.0,-1060.0
-21.0,9.0,-257.0,48.0,10.0,-9.0,-65.0,43.0,-1054.0
-23.0,9.0,-254.0,46.0,9.0,-9.0,-70.0,37.0,-1057.0
-26.0,9.0,-257.0,46.0,9.0,-9.0,-67.0,39.0,-1057.0
-24.0,8.0,-257.0,48.0,10.0,-7.0,-70.0,37.0,-1059.0
-19.0,7.0,-259.0,48.0,10.0,-8.0,-71.0,39.0,-1059.0
-21.0,8.0,-253.0,49.0,10.0,-9.0,-66.0,41.0,-1060.0
-22.0,8.0,-256.0,49.0,12.0,-9.0,-65.0,40.0,-1051.0
-22.0,10.0,-256.0,49.0,12.0,-10.0,-69.0,39.0,-1061.0
-21.0,10.0,-257.0,47.0,11.0,-10.0,-65.0,39.0,-1045.0
-20.0,7.0,-256.0,48.0,13.0,-9.0,-67.0,38.0,-1055.0
-22.0,11.0,-253.0,48.0,13.0,-10.0,-67.0,37.0,-1053.0
-21.0,6.0,-254.0,48.0,13.0,-10.0,-68.0,40.0,-1059.0
-22.0,10.0,-256.0,48.0,13.0,-10.0,-64.0,44.0,-1055.0
-20.0,6.0,-252.0,48.0,15.0,-10.0,-70.0,40.0,-1051.0
-22.0,8.0,-251.0,49.0,13.0,-10.0,-69.0,34.0,-1053.0
-24.0,12.0,-256.0,47.0,12.0,-10.0,-66.0,38.0,-1056.0
-23.0,11.0,-254.0,45.0,12.0,-10.0,-66.0,37.0,-1055.0
-22.0,8.0,-254.0,44.0,12.0,-8.0,-65.0,39.0,-1052.0
-19.0,9.0,-255.0,46.0,13.0,-10.0,-75.0,38.0,-1060.0
-20.0,7.0,-255.0,46.0,15.0,-10.0,-70.0,38.0,-1061.0
-19.0,9.0,-257.0,48.0,15.0,-9.0,-69.0,36.0,-1058.0
-22.0,5.0,-257.0,48.0,14.0,-11.0,-70.0,39.0,-1059.0
-21.0,9.0,-251.0,47.0,14.0,-10.0,-66.0,40.0,-1056.0
-14.0,11.0,-259.0,46.0,14.0,-11.0,-72.0,37.0,-1067.0
-21.0,9.0,-255.0,46.0,13.0,-10.0,-67.0,35.0,-1052.0
-22.0,11.0,-253.0,47.0,12.0,-10.0,-72.0,42.0,-1054.0
-19.0,8.0,-256.0,48.0,12.0,-10.0,-73.0,40.0,-1055.0
-20.0,7.0,-258.0,48.0,12.0,-10.0,-66.0,41.0,-1062.0
-23.0,11.0,-256.0,48.0,11.0,-10.0,-63.0,38.0,-1056.0
-19.0,9.0,-258.0,47.0,10.0,-10.0,-68.0,39.0,-1055.0
-22.0,6.0,-255.0,47.0,11.0,-10.0,-69.0,35.0,-1050.0
-24.0,10.0,-261.0,47.0,10.0,-10.0,-62.0,39.0,-1066.0
-20.0,9.0,-256.0,47.0,11.0,-9.0,-73.0,38.0,-1060.0
-22.0,11.0,-253.0,47.0,11.0,-10.0,-72.0,39.0,-1063.0
-20.0,7.0,-255.0,45.0,10.0,-10.0,-66.0,40.0,-1066.0
-24.0,12.0,-258.0,45.0,10.0,-11.0,-72.0,40.0,-1055.0
-21.0,10.0,-254.0,45.0,10.0,-11.0,-70.0,41.0,-1054.0
-20.0,9.0,-258.0,45.0,11.0,-10.0,-65.0,35.0,-1055.0
-21.0,10.0,-257.0,45.0,11.0,-8.0,-67.0,38.0,-1055.0
-21.0,9.0,-254.0,47.0,11.0,-10.0,-69.0,40.0,-1061.0
-19.0,7.0,-260.0,47.0,9.0,-10.0,-67.0,42.0,-1055.0
-18.0,11.0,-253.0,49.0,9.0,-10.0,-68.0,39.0,-1060.0
-19.0,10.0,-257.0,47.0,7.0,-10.0,-67.0,42.0,-1049.0
-21.0,6.0,-257.0,47.0,8.0,-10.0,-72.0,40.0,-1054.0
-21.0,8.0,-255.0,46.0,9.0,-8.0,-67.0,46.0,-1056.0
-25.0,13.0,-263.0,47.0,8.0,-11.0,-68.0,43.0,-1055.0
-20.0,9.0,-255.0,48.0,8.0,-10.0,-65.0,40.0,-1053.0
-21.0,11.0,-255.0,48.0,8.0,-10.0,-71.0,39.0,-1052.0
-20.0,10.0,-254.0,48.0,8.0,-10.0,-61.0,40.0,-1057.0
-21.0,8.0,-257.0,48.0,8.0,-10.0,-71.0,39.0,-1057.0
-26.0,11.0,-254.0,49.0,9.0,-10.0,-63.0,38.0,-1057.0
-21.0,7.0,-261.0,48.0,8.0,-11.0,-70.0,37.0,-1057.0
-20.0,8.0,-260.0,48.0,8.0,-10.0,-65.0,40.0,-1059.0
-22.0,10.0,-255.0,48.0,8.0,-9.0,-66.0,42.0,-1054.0
-24.0,10.0,-253.0,49.0,7.0,-10.0,-75.0,39.0,-1054.0
-26.0,8.0,-262.0,48.0,9.0,-9.0,-69.0,37.0,-1055.0
-22.0,12.0,-253.0,48.0,9.0,-10.0,-69.0,40.0,-1067.0
-21.0,6.0,-256.0,48.0,8.0,-9.0,-69.0,37.0,-1054.0
-21.0,7.0,-255.0,46.0,9.0,-10.0,-72.0,40.0,-1051.0
-21.0,8.0,-257.0,46.0,9.0,-10.0,-70.0,40.0,-1061.0
-23.0,10.0,-258.0,47.0,7.0,-9.0,-65.0,40.0,-1059.0
-21.0,8.0,-254.0,47.0,7.0,-10.0,-70.0,39.0,-1054.0
-20.0,7.0,-257.0,48.0,7.0,-8.0,-73.0,37.0,-1059.0
-17.0,8.0,-257.0,49.0,6.0,-10.0,-67.0,39.0,-1061.0
-20.0,9.0,-255.0,47.0,6.0,-11.0,-64.0,40.0,-1049.0
-20.0,7.0,-256.0,48.0,6.0,-11.0,-75.0,37.0,-1062.0
-28.0,11.0,-261.0,48.0,7.0,-10.0,-70.0,38.0,-1050.0
-23.0,9.0,-255.0,48.0,7.0,-10.0,-67.0,37.0,-1056.0
-21.0,9.0,-255.0,48.0,8.0,-9.0,-68.0,37.0,-1053.0
-21.0,9.0,-258.0,47.0,8.0,-9.0,-66.0,38.0,-1064.0
-23.0,10.0,-256.0,49.0,9.0,-10.0,-67.0,40.0,-1060.0
-22.0,9.0,-254.0,48.0,8.0,-10.0,-71.0,41.0,-1055.0
-21.0,9.0,-259.0,47.0,10.0,-8.0,-73.0,36.0,-1059.0
-21.0,8.0,-258.0,47.0,10.0,-8.0,-74.0,36.0,-1053.0
-21.0,7.0,-259.0,47.0,10.0,-8.0,-66.0,38.0,-1054.0
-22.0,7.0,-255.0,47.0,10.0,-9.0,-72.0,43.0,-1055.0
-20.0,6.0,-254.0,48.0,9.0,-8.0,-70.0,37.0,-1054.0
-27.0,10.0,-255.0,47.0,8.0,-10.0,-73.0,42.0,-1058.0
-21.0,8.0,-257.0,48.0,8.0,-8.0,-70.0,38.0,-1055.0
-21.0,8.0,-257.0,48.0,8.0,-9.0,-70.0,37.0,-1055.0
-21.0,11.0,-257.0,49.0,9.0,-9.0,-68.0,47.0,-1052.0
-24.0,12.0,-259.0,49.0,8.0,-10.0,-71.0,39.0,-1056.0
-20.0,8.0,-256.0,49.0,8.0,-11.0,-71.0,39.0,-1055.0
-26.0,8.0,-258.0,49.0,8.0,-10.0,-70.0,38.0,-1051.0
-20.0,9.0,-259.0,48.0,9.0,-10.0,-70.0,39.0,-1054.0
-23.0,10.0,-256.0,48.0,10.0,-10.0,-72.0,37.0,-1054.0
-24.0,10.0,-255.0,47.0,8.0,-8.0,-71.0,40.0,-1054.0
-23.0,8.0,-255.0,48.0,10.0,-8.0,-71.0,39.0,-1063.0
-22.0,7.0,-260.0,47.0,10.0,-9.0,-72.0,39.0,-1056.0
-23.0,10.0,-254.0,49.0,10.0,-10.0,-69.0,37.0,-1054.0
-22.0,10.0,-254.0,47.0,10.0,-10.0,-70.0,42.0,-1060.0
-25.0,12.0,-257.0,47.0,11.0,-10.0,-72.0,38.0,-1060.0
-21.0,10.0,-256.0,47.0,10.0,-9.0,-67.0,43.0,-1060.0
-21.0,9.0,-256.0,47.0,11.0,-9.0,-65.0,39.0,-1051.0
-20.0,6.0,-256.0,48.0,10.0,-9.0,-72.0,39.0,-1064.0
-24.0,13.0,-254.0,50.0,10.0,-10.0,-65.0,40.0,-1052.0
-25.0,9.0,-255.0,50.0,10.0,-10.0,-71.0,40.0,-1059.0
-23.0,8.0,-255.0,50.0,10.0,-9.0,-66.0,38.0,-1054.0
-22.0,7.0,-257.0,49.0,10.0,-8.0,-73.0,40.0,-1055.0
-22.0,11.0,-258.0,49.0,12.0,-9.0,-66.0,41.0,-1053.0
-23.0,10.0,-257.0,49.0,10.0,-10.0,-65.0,39.0,-1052.0
-22.0,11.0,-256.0,49.0,12.0,-9.0,-76.0,44.0,-1052.0
-23.0,12.0,-257.0,48.0,11.0,-9.0,-68.0,40.0,-1061.0
-23.0,12.0,-255.0,49.0,10.0,-9.0,-67.0,39.0,-1056.0
-24.0,10.0,-257.0,48.0,9.0,-9.0,-65.0,41.0,-1051.0
-19.0,11.0,-257.0,47.0,10.0,-8.0,-67.0,36.0,-1051.0
-21.0,8.0,-258.0,48.0,10.0,-8.0,-66.0,42.0,-1049.0
-20.0,11.0,-257.0,48.0,9.0,-10.0,-71.0,44.0,-1056.0
-22.0,8.0,-257.0,48.0,9.0,-10.0,-74.0,41.0,-1054.0
-29.0,6.0,-250.0,49.0,10.0,-10.0,-73.0,40.0,-1054.0
-21.0,12.0,-256.0,49.0,10.0,-9.0,-73.0,41.0,-1056.0
-18.0,9.0,-256.0,48.0,10.0,-10.0,-70.0,41.0,-1058.0
-21.0,9.0,-257.0,48.0,11.0,-9.0,-72.0,40.0,-1053.0
-22.0,11.0,-258.0,48.0,11.0,-9.0,-65.0,38.0,-1059.0
-23.0,9.0,-257.0,49.0,12.0,-11.0,-73.0,40.0,-1056.0
-21.0,10.0,-256.0,49.0,13.0,-10.0,-71.0,39.0,-1054.0
-20.0,9.0,-258.0,48.0,11.0,-7.0,-68.0,40.0,-1052.0
-20.0,11.0,-254.0,47.0,12.0,-9.0,-77.0,43.0,-1050.0
-22.0,6.0,-256.0,48.0,11.0,-9.0,-69.0,37.0,-1055.0
-22.0,6.0,-249.0,48.0,12.0,-10.0,-66.0,38.0,-1057.0
-19.0,8.0,-254.0,49.0,14.0,-10.0,-71.0,38.0,-1059.0
-20.0,9.0,-254.0,48.0,13.0,-12.0,-72.0,39.0,-1057.0
-23.0,10.0,-256.0,49.0,14.0,-10.0,-71.0,38.0,-1065.0
-22.0,9.0,-257.0,51.0,12.0,-8.0,-71.0,37.0,-1060.0
-23.0,13.0,-254.0,52.0,11.0,-9.0,-71.0,37.0,-1053.0
-22.0,11.0,-257.0,52.0,11.0,-9.0,-71.0,38.0,-1052.0
-25.0,14.0,-259.0,53.0,11.0,-10.0,-68.0,38.0,-1070.0
-25.0,11.0,-259.0,51.0,11.0,-9.0,-70.0,35.0,-1060.0
-22.0,8.0,-256.0,51.0,13.0,-9.0,-69.0,43.0,-1057.0
-24.0,10.0,-259.0,52.0,13.0,-9.0,-74.0,42.0,-1060.0
-19.0,6.0,-258.0,52.0,12.0,-10.0,-73.0,37.0,-1053.0
-24.0,9.0,-260.0,52.0,12.0,-10.0,-67.0,39.0,-1054.0
-23.0,8.0,-259.0,53.0,12.0,-8.0,-71.0,38.0,-1054.0
-20.0,6.0,-255.0,51.0,13.0,-8.0,-75.0,40.0,-1054.0
-22.0,9.0,-259.0,51.0,14.0,-10.0,-67.0,41.0,-1055.0
-22.0,10.0,-259.0,51.0,13.0,-10.0,-75.0,39.0,-1055.0
-23.0,8.0,-258.0,52.0,12.0,-10.0,-68.0,38.0,-1051.0
-21.0,12.0,-258.0,51.0,11.0,-10.0,-70.0,42.0,-1061.0
-23.0,10.0,-259.0,53.0,11.0,-11.0,-68.0,39.0,-1059.0
-22.0,11.0,-257.0,54.0,10.0,-11.0,-74.0,39.0,-1054.0
-21.0,8.0,-254.0,54.0,10.0,-10.0,-68.0,40.0,-1054.0
-25.0,10.0,-258.0,54.0,11.0,-11.0,-69.0,38.0,-1054.0
-24.0,11.0,-257.0,53.0,10.0,-12.0,-73.0,41.0,-1053.0
-23.0,6.0,-256.0,50.0,11.0,-12.0,-76.0,38.0,-1061.0
-24.0,10.0,-259.0,50.0,12.0,-12.0,-74.0,39.0,-1053.0
-20.0,10.0,-261.0,52.0,11.0,-9.0,-71.0,39.0,-1055.0
-24.0,10.0,-254.0,52.0,12.0,-11.0,-70.0,41.0,-1059.0
-20.0,10.0,-255.0,51.0,14.0,-9.0,-70.0,40.0,-1051.0
-23.0,9.0,-258.0,50.0,13.0,-11.0,-70.0,36.0,-1061.0
-19.0,10.0,-253.0,50.0,14.0,-11.0,-65.0,43.0,-1056.0
-22.0,11.0,-253.0,50.0,13.0,-9.0,-67.0,37.0,-1065.0
-25.0,10.0,-259.0,51.0,14.0,-10.0,-66.0,38.0,-1051.0
-22.0,10.0,-253.0,51.0,14.0,-11.0,-67.0,38.0,-1054.0
-23.0,8.0,-257.0,51.0,14.0,-12.0,-67.0,39.0,-1055.0
-23.0,9.0,-255.0,51.0,14.0,-10.0,-72.0,35.0,-1051.0
-22.0,7.0,-256.0,51.0,13.0,-10.0,-75.0,38.0,-1056.0
-24.0,11.0,-257.0,49.0,12.0,-10.0,-76.0,35.0,-1056.0
-22.0,11.0,-255.0,49.0,13.0,-10.0,-74.0,38.0,-1054.0
-19.0,7.0,-256.0,51.0,14.0,-10.0,-65.0,39.0,-1054.0
-23.0,8.0,-252.0,54.0,16.0,-10.0,-72.0,45.0,-1056.0
-21.0,9.0,-257.0,55.0,17.0,-10.0,-70.0,39.0,-1066.0
-25.0,8.0,-261.0,56.0,16.0,-10.0,-71.0,36.0,-1054.0
-25.0,7.0,-256.0,55.0,16.0,-9.0,-70.0,35.0,-1070.0
-23.0,13.0,-260.0,54.0,15.0,-9.0,-66.0,43.0,-1060.0
-23.0,9.0,-259.0,52.0,15.0,-9.0,-71.0,37.0,-1052.0
-22.0,8.0,-255.0,53.0,14.0,-11.0,-69.0,37.0,-1054.0
-22.0,10.0,-256.0,52.0,13.0,-8.0,-73.0,40.0,-1057.0
-20.0,12.0,-256.0,53.0,13.0,-11.0,-70.0,37.0,-1050.0
-22.0,8.0,-260.0,53.0,12.0,-10.0,-66.0,35.0,-1054.0
-18.0,7.0,-254.0,53.0,12.0,-10.0,-71.0,39.0,-1051.0
-24.0,11.0,-257.0,52.0,11.0,-9.0,-67.0,40.0,-1054.0
-23.0,11.0,-257.0,51.0,12.0,-9.0,-68.0,38.0,-1060.0
-23.0,9.0,-256.0,52.0,13.0,-10.0,-70.0,39.0,-1055.0
-25.0,16.0,-259.0,53.0,13.0,-10.0,-69.0,35.0,-1049.0
-21.0,7.0,-255.0,52.0,15.0,-10.0,-67.0,38.0,-1060.0
-25.0,9.0,-256.0,53.0,16.0,-11.0,-66.0,41.0,-1054.0
-24.0,10.0,-259.0,53.0,15.0,-10.0,-69.0,37.0,-1051.0
-21.0,11.0,-256.0,53.0,15.0,-10.0,-60.0,36.0,-1056.0
-24.0,9.0,-257.0,53.0,14.0,-10.0,-67.0,39.0,-1060.0
-22.0,12.0,-258.0,54.0,14.0,-11.0,-73.0,41.0,-1048.0
-22.0,10.0,-251.0,55.0,15.0,-11.0,-77.0,38.0,-1054.0
-21.0,6.0,-254.0,55.0,14.0,-10.0,-71.0,42.0,-1045.0
-23.0,8.0,-254.0,54.0,15.0,-10.0,-73.0,42.0,-1051.0
-19.0,8.0,-255.0,54.0,16.0,-10.0,-70.0,36.0,-1049.0
-21.0,7.0,-257.0,54.0,15.0,-10.0,-66.0,38.0,-1050.0
-21.0,10.0,-258.0,53.0,15.0,-9.0,-70.0,39.0,-1065.0
-22.0,11.0,-258.0,54.0,15.0,-9.0,-69.0,39.0,-1054.0
-23.0,11.0,-254.0,56.0,16.0,-10.0,-76.0,35.0,-1058.0
-20.0,10.0,-256.0,55.0,16.0,-11.0,-66.0,37.0,-1060.0
-22.0,9.0,-255.0,55.0,15.0,-10.0,-70.0,35.0,-1050.0
-24.0,8.0,-257.0,53.0,15.0,-11.0,-70.0,35.0,-1055.0
-26.0,13.0,-257.0,53.0,14.0,-11.0,-68.0,38.0,-1048.0
-20.0,4.0,-258.0,50.0,15.0,-11.0,-68.0,34.0,-1051.0
-21.0,7.0,-258.0,50.0,14.0,-11.0,-66.0,38.0,-1060.0
-21.0,8.0,-255.0,51.0,14.0,-11.0,-73.0,38.0,-1054.0
-20.0,9.0,-257.0,51.0,14.0,-10.0,-70.0,37.0,-1054.0
-22.0,9.0,-256.0,50.0,15.0,-10.0,-66.0,39.0,-1060.0
-24.0,11.0,-255.0,50.0,14.0,-12.0,-63.0,38.0,-1056.0
-20.0,7.0,-256.0,49.0,14.0,-9.0,-78.0,38.0,-1054.0
-24.0,9.0,-257.0,49.0,13.0,-12.0,-72.0,38.0,-1052.0
-21.0,11.0,-256.0,49.0,13.0,-12.0,-66.0,41.0,-1047.0
-21.0,9.0,-255.0,48.0,13.0,-10.0,-70.0,37.0,-1056.0
-19.0,7.0,-258.0,48.0,13.0,-10.0,-71.0,38.0,-1062.0
-23.0,10.0,-257.0,48.0,11.0,-10.0,-67.0,39.0,-1061.0
-25.0,13.0,-257.0,49.0,11.0,-9.0,-65.0,37.0,-1052.0
-19.0,10.0,-259.0,49.0,10.0,-11.0,-70.0,37.0,-1061.0
-20.0,6.0,-256.0,49.0,10.0,-11.0,-67.0,40.0,-1061.0
-22.0,8.0,-258.0,49.0,9.0,-10.0,-72.0,38.0,-1058.0
-22.0,8.0,-253.0,49.0,10.0,-9.0,-67.0,38.0,-1051.0
-21.0,7.0,-256.0,51.0,10.0,-10.0,-67.0,35.0,-1056.0
-23.0,12.0,-257.0,51.0,10.0,-9.0,-65.0,37.0,-1054.0
-20.0,9.0,-255.0,50.0,10.0,-9.0,-70.0,35.0,-1053.0
-22.0,7.0,-259.0,50.0,11.0,-10.0,-71.0,40.0,-1050.0
-21.0,9.0,-255.0,49.0,10.0,-9.0,-66.0,38.0,-1057.0
-27.0,7.0,-252.0,49.0,11.0,-10.0,-68.0,39.0,-1054.0
-26.0,11.0,-257.0,48.0,10.0,-10.0,-74.0,37.0,-1054.0
-19.0,11.0,-254.0,49.0,12.0,-11.0,-71.0,39.0,-1055.0
-21.0,9.0,-257.0,49.0,11.0,-11.0,-70.0,36.0,-1052.0
-24.0,10.0,-254.0,50.0,12.0,-10.0,-70.0,37.0,-1063.0
-23.0,7.0,-253.0,50.0,12.0,-9.0,-70.0,39.0,-1051.0
-21.0,13.0,-256.0,49.0,12.0,-9.0,-75.0,36.0,-1056.0
-21.0,9.0,-256.0,51.0,11.0,-10.0,-74.0,41.0,-1055.0
-22.0,8.0,-257.0,50.0,11.0,-8.0,-72.0,33.0,-1053.0
-22.0,9.0,-257.0,50.0,12.0,-10.0,-75.0,36.0,-1050.0
-24.0,9.0,-256.0,49.0,11.0,-11.0,-70.0,38.0,-1055.0
-22.0,5.0,-262.0,48.0,12.0,-10.0,-67.0,38.0,-1053.0
-23.0,11.0,-259.0,49.0,12.0,-9.0,-69.0,35.0,-1054.0
-24.0,11.0,-256.0,48.0,11.0,-10.0,-69.0,39.0,-1054.0
-24.0,10.0,-256.0,48.0,14.0,-9.0,-74.0,37.0,-1057.0
-23.0,9.0,-260.0,48.0,13.0,-9.0,-72.0,38.0,-1052.0
-22.0,7.0,-255.0,49.0,13.0,-10.0,-72.0,36.0,-1056.0
-20.0,11.0,-254.0,49.0,13.0,-9.0,-68.0,38.0,-1061.0
-24.0,14.0,-257.0,48.0,13.0,-11.0,-65.0,39.0,-1048.0
-20.0,9.0,-256.0,49.0,13.0,-10.0,-73.0,36.0,-1055.0
-26.0,9.0,-261.0,49.0,14.0,-10.0,-74.0,33.0,-1054.0
-21.0,11.0,-257.0,50.0,14.0,-10.0,-63.0,38.0,-1058.0
-24.0,14.0,-256.0,49.0,13.0,-11.0,-70.0,39.0,-1058.0
-22.0,11.0,-257.0,48.0,14.0,-10.0,-70.0,35.0,-1058.0
-24.0,11.0,-255.0,48.0,12.0,-10.0,-63.0,41.0,-1054.0
-21.0,4.0,-257.0,50.0,12.0,-10.0,-68.0,37.0,-1054.0
-21.0,9.0,-253.0,50.0,14.0,-10.0,-67.0,38.0,-1061.0
-23.0,6.0,-255.0,50.0,14.0,-9.0,-70.0,36.0,-1054.0
-23.0,9.0,-257.0,50.0,14.0,-10.0,-75.0,40.0,-1054.0
-24.0,12.0,-258.0,50.0,14.0,-9.0,-71.0,36.0,-1057.0
-21.0,8.0,-253.0,50.0,15.0,-10.0,-70.0,39.0,-1054.0
-24.0,8.0,-256.0,49.0,13.0,-9.0,-70.0,38.0,-1054.0
-22.0,9.0,-255.0,48.0,13.0,-11.0,-70.0,41.0,-1061.0
-25.0,9.0,-262.0,48.0,14.0,-9.0,-72.0,40.0,-1055.0
-21.0,9.0,-255.0,49.0,15.0,-9.0,-71.0,36.0,-1049.0
-20.0,9.0,-254.0,50.0,14.0,-8.0,-68.0,35.0,-1067.0
-20.0,7.0,-257.0,50.0,14.0,-7.0,-67.0,40.0,-1060.0
-25.0,10.0,-254.0,49.0,14.0,-9.0,-71.0,39.0,-1056.0
-21.0,11.0,-255.0,50.0,14.0,-10.0,-68.0,39.0,-1051.0
-20.0,11.0,-257.0,49.0,14.0,-9.0,-72.0,36.0,-1057.0
-19.0,11.0,-257.0,49.0,14.0,-10.0,-70.0,42.0,-1056.0
-19.0,7.0,-257.0,48.0,13.0,-8.0,-72.0,37.0,-1051.0
-18.0,8.0,-256.0,48.0,14.0,-6.0,-71.0,38.0,-1050.0
-25.0,7.0,-255.0,48.0,14.0,-9.0,-71.0,37.0,-1051.0
-23.0,8.0,-256.0,48.0,14.0,-10.0,-69.0,38.0,-1056.0
-19.0,10.0,-255.0,48.0,14.0,-9.0,-69.0,36.0,-1063.0
-19.0,6.0,-253.0,47.0,14.0,-9.0,-71.0,34.0,-1051.0
-22.0,8.0,-256.0,48.0,14.0,-9.0,-68.0,41.0,-1052.0
-21.0,9.0,-259.0,48.0,15.0,-10.0,-70.0,36.0,-1049.0
-20.0,7.0,-257.0,47.0,13.0,-10.0,-71.0,38.0,-1062.0
-26.0,11.0,-258.0,48.0,14.0,-9.0,-66.0,40.0,-1057.0
-24.0,11.0,-257.0,48.0,14.0,-8.0,-69.0,39.0,-1054.0
-23.0,9.0,-253.0,48.0,13.0,-8.0,-73.0,38.0,-1053.0
-20.0,10.0,-252.0,47.0,13.0,-9.0,-69.0,37.0,-1056.0
-25.0,12.0,-253.0,46.0,13.0,-10.0,-66.0,37.0,-1051.0
-22.0,18.0,-254.0,48.0,12.0,-10.0,-73.0,38.0,-1055.0
-23.0,10.0,-256.0,46.0,11.0,-10.0,-72.0,35.0,-1058.0
-23.0,9.0,-257.0,47.0,13.0,-9.0,-72.0,38.0,-1053.0
-22.0,10.0,-254.0,47.0,12.0,-9.0,-68.0,38.0,-1059.0
-23.0,7.0,-256.0,46.0,12.0,-8.0,-65.0,37.0,-1057.0
-20.0,10.0,-259.0,47.0,12.0,-9.0,-72.0,38.0,-1063.0
-26.0,13.0,-255.0,50.0,11.0,-11.0,-70.0,37.0,-1054.0
-21.0,9.0,-258.0,51.0,13.0,-10.0,-72.0,37.0,-1055.0
-22.0,9.0,-255.0,52.0,13.0,-10.0,-70.0,38.0,-1062.0
-23.0,6.0,-253.0,50.0,12.0,-9.0,-68.0,39.0,-1056.0
-19.0,6.0,-255.0,49.0,12.0,-9.0,-73.0,40.0,-1053.0
-23.0,9.0,-254.0,48.0,12.0,-10.0,-70.0,37.0,-1057.0
-19.0,9.0,-258.0,49.0,11.0,-10.0,-72.0,41.0,-1049.0
-21.0,8.0,-255.0,49.0,13.0,-10.0,-72.0,37.0,-1056.0
-23.0,10.0,-257.0,49.0,13.0,-11.0,-76.0,34.0,-1072.0
-26.0,14.0,-256.0,49.0,13.0,-11.0,-71.0,33.0,-1052.0
-19.0,8.0,-253.0,49.0,13.0,-10.0,-72.0,38.0,-1055.0
-18.0,5.0,-249.0,50.0,13.0,-11.0,-70.0,35.0,-1054.0
-20.0,6.0,-258.0,50.0,13.0,-9.0,-72.0,42.0,-1048.0
-23.0,11.0,-256.0,50.0,13.0,-9.0,-73.0,39.0,-1048.0
-23.0,12.0,-253.0,49.0,13.0,-10.0,-74.0,37.0,-1051.0
-21.0,6.0,-255.0,49.0,13.0,-12.0,-69.0,38.0,-1055.0
-19.0,8.0,-254.0,48.0,14.0,-12.0,-77.0,42.0,-1053.0
-22.0,12.0,-253.0,49.0,13.0,-11.0,-75.0,39.0,-1051.0
-22.0,9.0,-254.0,48.0,13.0,-11.0,-75.0,42.0,-1052.0
-21.0,8.0,-255.0,49.0,15.0,-11.0,-70.0,34.0,-1052.0
-24.0,9.0,-256.0,51.0,16.0,-10.0,-66.0,36.0,-1052.0
-20.0,8.0,-257.0,51.0,15.0,-11.0,-71.0,35.0,-1053.0
-22.0,7.0,-260.0,52.0,16.0,-10.0,-71.0,40.0,-1055.0
-27.0,7.0,-255.0,51.0,16.0,-10.0,-70.0,39.0,-1056.0
-22.0,9.0,-256.0,52.0,15.0,-10.0,-67.0,37.0,-1056.0
-20.0,10.0,-252.0,51.0,15.0,-9.0,-69.0,39.0,-1054.0
-23.0,11.0,-254.0,50.0,15.0,-10.0,-67.0,39.0,-1060.0
-20.0,8.0,-252.0,52.0,15.0,-10.0,-75.0,33.0,-1055.0
-23.0,8.0,-256.0,52.0,15.0,-10.0,-72.0,38.0,-1056.0
-21.0,8.0,-257.0,51.0,13.0,-9.0,-73.0,37.0,-1050.0
-21.0,10.0,-254.0,52.0,14.0,-10.0,-72.0,38.0,-1056.0
-22.0,11.0,-256.0,50.0,13.0,-10.0,-74.0,37.0,-1048.0
-24.0,8.0,-253.0,51.0,13.0,-10.0,-74.0,36.0,-1053.0
-20.0,8.0,-257.0,50.0,13.0,-10.0,-67.0,44.0,-1054.0
-21.0,10.0,-259.0,51.0,12.0,-9.0,-67.0,39.0,-1055.0
-23.0,9.0,-255.0,51.0,13.0,-10.0,-73.0,38.0,-1056.0
-23.0,17.0,-252.0,50.0,13.0,-10.0,-75.0,35.0,-1065.0
-19.0,9.0,-254.0,48.0,15.0,-10.0,-76.0,40.0,-1055.0
-23.0,11.0,-255.0,48.0,13.0,-10.0,-68.0,39.0,-1056.0
-24.0,10.0,-256.0,50.0,14.0,-10.0,-66.0,39.0,-1059.0
-22.0,8.0,-253.0,48.0,14.0,-10.0,-63.0,35.0,-1056.0
-22.0,6.0,-257.0,49.0,14.0,-10.0,-67.0,39.0,-1050.0
-21.0,11.0,-254.0,50.0,14.0,-11.0,-71.0,37.0,-1063.0
-23.0,11.0,-254.0,49.0,14.0,-9.0,-73.0,39.0,-1057.0
-21.0,7.0,-255.0,48.0,13.0,-10.0,-71.0,39.0,-1055.0
-23.0,10.0,-253.0,49.0,14.0,-8.0,-68.0,36.0,-1051.0
-21.0,7.0,-248.0,49.0,14.0,-9.0,-71.0,37.0,-1052.0
-23.0,10.0,-261.0,50.0,15.0,-8.0,-73.0,35.0,-1052.0
-21.0,10.0,-259.0,48.0,14.0,-10.0,-68.0,39.0,-1057.0
-23.0,12.0,-258.0,50.0,14.0,-10.0,-62.0,41.0,-1061.0
-23.0,10.0,-259.0,49.0,13.0,-12.0,-74.0,39.0,-1053.0
-20.0,8.0,-256.0,48.0,15.0,-8.0,-69.0,37.0,-1068.0
-21.0,8.0,-257.0,50.0,13.0,-10.0,-68.0,34.0,-1054.0
-21.0,9.0,-255.0,50.0,14.0,-10.0,-66.0,37.0,-1052.0
-19.0,8.0,-254.0,50.0,14.0,-9.0,-73.0,40.0,-1054.0
-27.0,13.0,-260.0,48.0,15.0,-7.0,-69.0,42.0,-1054.0
-23.0,12.0,-258.0,50.0,14.0,-9.0,-72.0,37.0,-1059.0
-22.0,10.0,-258.0,50.0,13.0,-9.0,-68.0,38.0,-1054.0
-22.0,4.0,-249.0,49.0,15.0,-9.0,-72.0,32.0,-1050.0
-20.0,10.0,-258.0,50.0,15.0,-10.0,-63.0,38.0,-1060.0
-20.0,10.0,-256.0,48.0,14.0,-9.0,-70.0,39.0,-1054.0
-22.0,11.0,-252.0,47.0,15.0,-8.0,-72.0,40.0,-1054.0
-20.0,9.0,-254.0,48.0,14.0,-10.0,-67.0,41.0,-1058.0
-22.0,10.0,-257.0,48.0,13.0,-8.0,-68.0,40.0,-1063.0
-21.0,11.0,-254.0,48.0,14.0,-9.0,-69.0,37.0,-1063.0
-22.0,7.0,-256.0,47.0,13.0,-9.0,-70.0,36.0,-1064.0
-19.0,8.0,-256.0,48.0,13.0,-9.0,-67.0,38.0,-1050.0
-20.0,8.0,-261.0,48.0,13.0,-8.0,-70.0,43.0,-1055.0
-22.0,5.0,-254.0,49.0,12.0,-9.0,-72.0,40.0,-1051.0
-21.0,7.0,-255.0,49.0,13.0,-9.0,-70.0,33.0,-1054.0
-25.0,9.0,-258.0,48.0,11.0,-9.0,-66.0,38.0,-1054.0
-20.0,8.0,-257.0,48.0,12.0,-8.0,-68.0,35.0,-1060.0
-23.0,9.0,-258.0,49.0,12.0,-9.0,-69.0,40.0,-1057.0
-22.0,9.0,-257.0,48.0,12.0,-10.0,-61.0,32.0,-1063.0
-20.0,12.0,-256.0,50.0,12.0,-11.0,-70.0,39.0,-1054.0
-24.0,8.0,-255.0,49.0,11.0,-8.0,-69.0,36.0,-1054.0
-25.0,10.0,-261.0,50.0,14.0,-10.0,-74.0,34.0,-1051.0
-21.0,12.0,-254.0,50.0,13.0,-8.0,-71.0,38.0,-1052.0
-20.0,6.0,-255.0,50.0,13.0,-9.0,-69.0,35.0,-1052.0
-28.0,15.0,-258.0,49.0,12.0,-10.0,-67.0,38.0,-1054.0
-21.0,7.0,-256.0,47.0,13.0,-10.0,-67.0,36.0,-1059.0
-22.0,7.0,-257.0,48.0,12.0,-11.0,-63.0,40.0,-1055.0
-22.0,8.0,-254.0,49.0,12.0,-10.0,-68.0,33.0,-1059.0
-21.0,7.0,-256.0,50.0,12.0,-9.0,-71.0,41.0,-1068.0
-23.0,8.0,-259.0,48.0,13.0,-11.0,-66.0,41.0,-1054.0
-21.0,10.0,-256.0,50.0,11.0,-11.0,-73.0,37.0,-1065.0
-22.0,12.0,-258.0,50.0,12.0,-10.0,-75.0,42.0,-1055.0
-22.0,6.0,-257.0,51.0,12.0,-10.0,-63.0,35.0,-1061.0
-22.0,12.0,-253.0,51.0,13.0,-9.0,-67.0,36.0,-1062.0
-22.0,7.0,-255.0,51.0,12.0,-9.0,-65.0,39.0,-1060.0
-20.0,19.0,-259.0,50.0,12.0,-10.0,-65.0,38.0,-1055.0
-23.0,10.0,-253.0,50.0,13.0,-9.0,-75.0,36.0,-1062.0
-20.0,9.0,-257.0,49.0,14.0,-8.0,-65.0,40.0,-1054.0
-22.0,7.0,-257.0,49.0,13.0,-11.0,-74.0,38.0,-1056.0
-23.0,8.0,-258.0,50.0,13.0,-11.0,-74.0,36.0,-1050.0
-21.0,9.0,-256.0,50.0,13.0,-12.0,-65.0,39.0,-1054.0
-20.0,13.0,-254.0,49.0,13.0,-9.0,-75.0,37.0,-1052.0
-18.0,8.0,-258.0,49.0,13.0,-9.0,-67.0,36.0,-1061.0
-22.0,12.0,-260.0,50.0,13.0,-10.0,-73.0,40.0,-1054.0
-21.0,9.0,-257.0,49.0,12.0,-9.0,-71.0,40.0,-1055.0
-21.0,3.0,-253.0,50.0,12.0,-10.0,-67.0,36.0,-1050.0
-21.0,12.0,-253.0,50.0,12.0,-11.0,-64.0,39.0,-1050.0
-20.0,8.0,-257.0,50.0,14.0,-10.0,-68.0,40.0,-1058.0
-26.0,13.0,-251.0,51.0,14.0,-9.0,-76.0,37.0,-1053.0
-22.0,10.0,-255.0,52.0,13.0,-9.0,-71.0,45.0,-1059.0
-20.0,6.0,-256.0,51.0,12.0,-8.0,-70.0,35.0,-1057.0
-22.0,7.0,-259.0,52.0,11.0,-9.0,-77.0,39.0,-1049.0
-21.0,10.0,-256.0,52.0,11.0,-10.0,-73.0,37.0,-1051.0
-22.0,10.0,-255.0,51.0,12.0,-10.0,-70.0,39.0,-1061.0
-20.0,9.0,-257.0,51.0,13.0,-10.0,-71.0,38.0,-1055.0
-22.0,8.0,-254.0,52.0,12.0,-9.0,-71.0,34.0,-1056.0
-21.0,10.0,-258.0,52.0,11.0,-10.0,-71.0,32.0,-1057.0
-21.0,9.0,-256.0,51.0,12.0,-10.0,-71.0,37.0,-1054.0
-23.0,8.0,-256.0,50.0,12.0,-8.0,-67.0,39.0,-1055.0
-22.0,4.0,-258.0,50.0,11.0,-10.0,-71.0,41.0,-1056.0
-21.0,7.0,-256.0,49.0,10.0,-8.0,-66.0,35.0,-1056.0
-25.0,10.0,-256.0,50.0,11.0,-9.0,-69.0,38.0,-1051.0
-20.0,7.0,-258.0,50.0,10.0,-8.0,-70.0,40.0,-1062.0
-22.0,10.0,-257.0,50.0,10.0,-9.0,-69.0,36.0,-1055.0
-22.0,8.0,-257.0,50.0,11.0,-8.0,-71.0,39.0,-1054.0
-26.0,9.0,-252.0,49.0,11.0,-9.0,-70.0,40.0,-1056.0
-19.0,8.0,-252.0,51.0,13.0,-9.0,-75.0,38.0,-1052.0
-26.0,9.0,-256.0,50.0,13.0,-11.0,-73.0,38.0,-1055.0
-21.0,10.0,-255.0,50.0,13.0,-9.0,-69.0,41.0,-1054.0
-22.0,8.0,-256.0,50.0,14.0,-11.0,-65.0,35.0,-1055.0
-21.0,9.0,-255.0,50.0,13.0,-9.0,-69.0,38.0,-1053.0
-23.0,10.0,-254.0,51.0,14.0,-9.0,-69.0,34.0,-1060.0
-23.0,9.0,-258.0,50.0,13.0,-10.0,-70.0,37.0,-1056.0
-23.0,10.0,-255.0,50.0,13.0,-10.0,-72.0,37.0,-1057.0
-20.0,8.0,-254.0,50.0,13.0,-10.0,-76.0,34.0,-1056.0
-20.0,9.0,-257.0,51.0,12.0,-10.0,-73.0,38.0,-1052.0
-22.0,7.0,-252.0,51.0,12.0,-10.0,-68.0,40.0,-1064.0
-20.0,6.0,-264.0,50.0,12.0,-10.0,-64.0,35.0,-1051.0
-21.0,6.0,-257.0,50.0,13.0,-9.0,-74.0,39.0,-1055.0
-19.0,7.0,-258.0,49.0,14.0,-9.0,-68.0,37.0,-1058.0
-21.0,7.0,-256.0,50.0,14.0,-9.0,-72.0,37.0,-1049.0
-21.0,8.0,-252.0,49.0,15.0,-9.0,-71.0,37.0,-1052.0
-23.0,12.0,-256.0,49.0,14.0,-9.0,-61.0,40.0,-1060.0
-21.0,8.0,-257.0,50.0,14.0,-8.0,-70.0,39.0,-1052.0
-20.0,5.0,-259.0,50.0,13.0,-9.0,-72.0,39.0,-1054.0
-21.0,10.0,-252.0,51.0,13.0,-9.0,-70.0,39.0,-1058.0
-21.0,8.0,-256.0,51.0,13.0,-9.0,-71.0,39.0,-1053.0
-23.0,11.0,-252.0,51.0,14.0,-8.0,-70.0,39.0,-1055.0
-20.0,10.0,-252.0,52.0,13.0,-9.0,-68.0,39.0,-1057.0
-24.0,9.0,-254.0,51.0,12.0,-9.0,-74.0,34.0,-1058.0
-20.0,10.0,-258.0,49.0,13.0,-9.0,-70.0,38.0,-1054.0
-21.0,8.0,-254.0,50.0,13.0,-8.0,-69.0,38.0,-1056.0
-23.0,10.0,-256.0,51.0,16.0,-8.0,-68.0,40.0,-1052.0
-22.0,8.0,-258.0,50.0,16.0,-10.0,-66.0,37.0,-1051.0
-23.0,11.0,-258.0,49.0,15.0,-9.0,-69.0,39.0,-1053.0
-26.0,10.0,-255.0,50.0,15.0,-9.0,-62.0,40.0,-1056.0
-23.0,10.0,-256.0,50.0,15.0,-8.0,-67.0,40.0,-1056.0
-19.0,10.0,-255.0,51.0,14.0,-10.0,-66.0,36.0,-1057.0
-22.0,10.0,-255.0,52.0,14.0,-9.0,-66.0,41.0,-1064.0
-23.0,8.0,-254.0,51.0,15.0,-9.0,-68.0,39.0,-1064.0
-20.0,7.0,-252.0,50.0,15.0,-11.0,-62.0,34.0,-1054.0
-20.0,7.0,-254.0,50.0,16.0,-10.0,-66.0,39.0,-1052.0
-22.0,8.0,-255.0,49.0,15.0,-9.0,-66.0,38.0,-1048.0
-22.0,7.0,-258.0,49.0,15.0,-9.0,-74.0,32.0,-1055.0
-22.0,8.0,-256.0,49.0,18.0,-12.0,-71.0,40.0,-1060.0
-23.0,9.0,-255.0,51.0,18.0,-11.0,-70.0,39.0,-1056.0
-24.0,10.0,-261.0,53.0,19.0,-10.0,-69.0,36.0,-1055.0
-25.0,11.0,-259.0,53.0,21.0,-8.0,-62.0,38.0,-1054.0
-19.0,11.0,-252.0,52.0,20.0,-9.0,-63.0,36.0,-1062.0
-21.0,13.0,-257.0,50.0,19.0,-10.0,-70.0,34.0,-1061.0
-23.0,7.0,-259.0,49.0,18.0,-8.0,-70.0,44.0,-1056.0
-22.0,10.0,-258.0,49.0,18.0,-10.0,-67.0,37.0,-1058.0
-20.0,7.0,-254.0,50.0,17.0,-11.0,-70.0,36.0,-1049.0
-22.0,10.0,-258.0,49.0,16.0,-11.0,-65.0,42.0,-1052.0
-21.0,9.0,-257.0,49.0,17.0,-10.0,-62.0,38.0,-1057.0
-22.0,7.0,-257.0,48.0,17.0,-10.0,-67.0,34.0,-1054.0
-20.0,7.0,-252.0,48.0,17.0,-10.0,-60.0,39.0,-1069.0
-22.0,11.0,-255.0,48.0,16.0,-8.0,-74.0,35.0,-1062.0
-23.0,9.0,-256.0,50.0,15.0,-10.0,-69.0,37.0,-1061.0
-21.0,10.0,-255.0,49.0,15.0,-10.0,-73.0,36.0,-1055.0
-21.0,8.0,-258.0,48.0,15.0,-11.0,-73.0,37.0,-1062.0
-20.0,11.0,-256.0,48.0,17.0,-10.0,-68.0,36.0,-1058.0
-21.0,11.0,-253.0,49.0,17.0,-8.0,-71.0,39.0,-1052.0
-23.0,7.0,-258.0,49.0,16.0,-9.0,-67.0,36.0,-1054.0
-23.0,12.0,-255.0,49.0,17.0,-8.0,-66.0,40.0,-1063.0
-19.0,8.0,-258.0,48.0,16.0,-9.0,-69.0,38.0,-1056.0
-20.0,7.0,-257.0,50.0,15.0,-10.0,-63.0,38.0,-1053.0
-24.0,9.0,-257.0,49.0,15.0,-9.0,-65.0,38.0,-1054.0
-25.0,9.0,-256.0,48.0,13.0,-9.0,-70.0,40.0,-1053.0
-21.0,6.0,-255.0,48.0,13.0,-10.0,-67.0,38.0,-1055.0
-21.0,9.0,-259.0,48.0,15.0,-11.0,-72.0,39.0,-1062.0
-23.0,11.0,-261.0,48.0,15.0,-11.0,-71.0,36.0,-1051.0
-19.0,6.0,-256.0,48.0,14.0,-11.0,-72.0,39.0,-1053.0
-22.0,10.0,-258.0,50.0,13.0,-12.0,-62.0,37.0,-1055.0
-19.0,8.0,-256.0,49.0,13.0,-12.0,-69.0,40.0,-1052.0
-21.0,8.0,-260.0,50.0,12.0,-10.0,-71.0,39.0,-1054.0
-22.0,11.0,-257.0,50.0,12.0,-9.0,-63.0,41.0,-1056.0
-26.0,9.0,-260.0,50.0,13.0,-9.0,-68.0,39.0,-1058.0
-21.0,8.0,-259.0,49.0,13.0,-9.0,-68.0,35.0,-1051.0
-18.0,6.0,-259.0,50.0,13.0,-9.0,-69.0,34.0,-1059.0
-20.0,8.0,-255.0,50.0,13.0,-10.0,-67.0,39.0,-1055.0
-27.0,9.0,-263.0,50.0,15.0,-10.0,-66.0,35.0,-1061.0
-20.0,8.0,-256.0,49.0,13.0,-10.0,-66.0,39.0,-1054.0
-21.0,7.0,-257.0,49.0,14.0,-9.0,-70.0,40.0,-1055.0
-22.0,9.0,-258.0,49.0,14.0,-10.0,-71.0,36.0,-1052.0
-21.0,9.0,-256.0,47.0,15.0,-9.0,-64.0,35.0,-1049.0
-19.0,11.0,-254.0,47.0,15.0,-11.0,-69.0,37.0,-1054.0
-20.0,8.0,-258.0,46.0,13.0,-9.0,-71.0,33.0,-1057.0
-23.0,8.0,-258.0,47.0,12.0,-9.0,-65.0,40.0,-1063.0
-16.0,7.0,-255.0,48.0,12.0,-9.0,-66.0,42.0,-1057.0
-22.0,7.0,-257.0,47.0,12.0,-8.0,-70.0,36.0,-1047.0
-22.0,7.0,-256.0,48.0,10.0,-8.0,-72.0,35.0,-1060.0
-21.0,7.0,-259.0,49.0,11.0,-8.0,-77.0,37.0,-1058.0
-22.0,8.0,-256.0,49.0,10.0,-9.0,-70.0,39.0,-1052.0
-23.0,9.0,-257.0,49.0,12.0,-9.0,-71.0,35.0,-1049.0
-22.0,9.0,-255.0,48.0,10.0,-9.0,-72.0,38.0,-1057.0
-21.0,12.0,-258.0,48.0,11.0,-9.0,-71.0,37.0,-1052.0
-22.0,9.0,-254.0,49.0,10.0,-10.0,-67.0,36.0,-1055.0
-21.0,12.0,-256.0,48.0,11.0,-9.0,-73.0,40.0,-1053.0
-18.0,9.0,-259.0,48.0,12.0,-8.0,-69.0,37.0,-1057.0
-22.0,8.0,-255.0,49.0,13.0,-10.0,-76.0,34.0,-1049.0
-22.0,10.0,-255.0,48.0,12.0,-9.0,-72.0,37.0,-1054.0
-21.0,7.0,-259.0,48.0,12.0,-9.0,-63.0,39.0,-1052.0
-19.0,5.0,-256.0,47.0,12.0,-9.0,-73.0,37.0,-1049.0
-22.0,10.0,-257.0,49.0,12.0,-9.0,-69.0,36.0,-1058.0
-24.0,7.0,-256.0,49.0,11.0,-10.0,-70.0,38.0,-1056.0
-20.0,6.0,-256.0,49.0,11.0,-10.0,-69.0,36.0,-1055.0
-24.0,8.0,-258.0,49.0,11.0,-10.0,-65.0,37.0,-1058.0
-21.0,9.0,-256.0,48.0,11.0,-11.0,-65.0,42.0,-1050.0
-23.0,11.0,-256.0,50.0,11.0,-10.0,-65.0,36.0,-1056.0
-21.0,9.0,-259.0,48.0,12.0,-9.0,-67.0,39.0,-1056.0
-20.0,6.0,-255.0,49.0,11.0,-9.0,-69.0,39.0,-1053.0
-22.0,7.0,-257.0,49.0,11.0,-8.0,-61.0,38.0,-1055.0
-19.0,8.0,-246.0,49.0,11.0,-9.0,-67.0,41.0,-1056.0
-20.0,8.0,-255.0,50.0,10.0,-10.0,-70.0,39.0,-1061.0
-20.0,11.0,-258.0,49.0,11.0,-11.0,-70.0,42.0,-1051.0
-22.0,8.0,-254.0,48.0,11.0,-10.0,-65.0,40.0,-1059.0
-21.0,11.0,-256.0,49.0,10.0,-9.0,-70.0,37.0,-1054.0
-20.0,9.0,-255.0,48.0,10.0,-9.0,-61.0,40.0,-1046.0
-21.0,8.0,-257.0,48.0,11.0,-10.0,-63.0,38.0,-1059.0
-25.0,6.0,-259.0,48.0,11.0,-9.0,-66.0,39.0,-1052.0
-21.0,10.0,-258.0,48.0,11.0,-8.0,-67.0,35.0,-1049.0
-22.0,11.0,-257.0,48.0,11.0,-9.0,-64.0,39.0,-1045.0
-20.0,4.0,-257.0,47.0,11.0,-10.0,-66.0,39.0,-1056.0
-21.0,12.0,-257.0,48.0,11.0,-11.0,-61.0,35.0,-1055.0
-22.0,10.0,-256.0,47.0,11.0,-9.0,-66.0,41.0,-1055.0
-21.0,9.0,-255.0,46.0,11.0,-9.0,-72.0,41.0,-1051.0
-21.0,12.0,-256.0,46.0,10.0,-9.0,-71.0,39.0,-1054.0
-23.0,13.0,-255.0,46.0,11.0,-10.0,-69.0,41.0,-1051.0
-23.0,9.0,-257.0,47.0,10.0,-9.0,-70.0,34.0,-1055.0
-20.0,8.0,-256.0,46.0,11.0,-8.0,-73.0,35.0,-1055.0
-25.0,11.0,-255.0,46.0,10.0,-10.0,-70.0,39.0,-1058.0
-22.0,7.0,-256.0,46.0,11.0,-8.0,-70.0,38.0,-1052.0
-22.0,9.0,-254.0,45.0,9.0,-8.0,-67.0,40.0,-1059.0
-23.0,11.0,-251.0,45.0,9.0,-9.0,-64.0,36.0,-1055.0
-25.0,16.0,-251.0,46.0,9.0,-8.0,-74.0,39.0,-1055.0
-22.0,11.0,-255.0,46.0,10.0,-8.0,-71.0,35.0,-1056.0
-23.0,5.0,-255.0,45.0,10.0,-11.0,-71.0,37.0,-1057.0
-20.0,7.0,-258.0,44.0,11.0,-8.0,-70.0,36.0,-1055.0
-21.0,9.0,-259.0,44.0,11.0,-9.0,-68.0,34.0,-1055.0
-22.0,10.0,-255.0,44.0,10.0,-9.0,-68.0,35.0,-1054.0
-22.0,10.0,-259.0,44.0,10.0,-9.0,-66.0,41.0,-1059.0
-22.0,7.0,-256.0,44.0,11.0,-9.0,-72.0,42.0,-1063.0
-21.0,10.0,-254.0,45.0,10.0,-8.0,-70.0,38.0,-1055.0
-20.0,11.0,-254.0,43.0,11.0,-9.0,-74.0,37.0,-1055.0
-23.0,14.0,-255.0,44.0,9.0,-10.0,-71.0,39.0,-1060.0
-21.0,10.0,-256.0,45.0,9.0,-9.0,-71.0,39.0,-1050.0
-20.0,10.0,-254.0,44.0,11.0,-8.0,-74.0,37.0,-1052.0
-24.0,10.0,-257.0,43.0,11.0,-8.0,-74.0,33.0,-1052.0
-20.0,8.0,-256.0,43.0,12.0,-9.0,-71.0,38.0,-1056.0
-20.0,9.0,-259.0,44.0,11.0,-9.0,-73.0,34.0,-1052.0
-19.0,9.0,-255.0,45.0,11.0,-8.0,-70.0,43.0,-1049.0
-21.0,6.0,-255.0,44.0,11.0,-9.0,-66.0,40.0,-1055.0
-22.0,11.0,-251.0,43.0,12.0,-9.0,-65.0,39.0,-1062.0
-22.0,9.0,-259.0,42.0,11.0,-8.0,-72.0,40.0,-1054.0
-24.0,13.0,-258.0,42.0,10.0,-8.0,-69.0,37.0,-1057.0
-21.0,6.0,-258.0,43.0,8.0,-10.0,-70.0,35.0,-1056.0
-23.0,10.0,-256.0,43.0,7.0,-9.0,-72.0,37.0,-1054.0
-21.0,8.0,-251.0,43.0,7.0,-9.0,-67.0,33.0,-1052.0
-23.0,10.0,-254.0,41.0,8.0,-9.0,-76.0,42.0,-1059.0
-21.0,9.0,-256.0,40.0,8.0,-9.0,-69.0,39.0,-1055.0
-25.0,11.0,-257.0,41.0,8.0,-8.0,-72.0,40.0,-1066.0
-23.0,10.0,-254.0,41.0,7.0,-9.0,-73.0,36.0,-1056.0
-17.0,5.0,-257.0,42.0,7.0,-9.0,-74.0,38.0,-1063.0
-23.0,6.0,-259.0,44.0,7.0,-9.0,-67.0,39.0,-1062.0
-25.0,9.0,-260.0,44.0,7.0,-9.0,-71.0,38.0,-1055.0
-23.0,8.0,-259.0,45.0,6.0,-9.0,-73.0,40.0,-1054.0
-22.0,4.0,-257.0,45.0,8.0,-8.0,-69.0,39.0,-1056.0
-23.0,11.0,-255.0,45.0,7.0,-7.0,-72.0,40.0,-1053.0
-23.0,10.0,-256.0,46.0,7.0,-7.0,-74.0,37.0,-1060.0
-22.0,6.0,-259.0,46.0,7.0,-8.0,-68.0,43.0,-1050.0
-20.0,7.0,-253.0,45.0,7.0,-10.0,-70.0,32.0,-1054.0
-23.0,8.0,-258.0,44.0,8.0,-10.0,-70.0,44.0,-1049.0
-20.0,9.0,-251.0,44.0,9.0,-8.0,-67.0,36.0,-1053.0
-25.0,14.0,-260.0,45.0,10.0,-9.0,-69.0,37.0,-1050.0
-23.0,9.0,-256.0,46.0,9.0,-10.0,-73.0,39.0,-1055.0
-26.0,11.0,-259.0,46.0,9.0,-9.0,-68.0,39.0,-1050.0
-13.0,10.0,-256.0,46.0,10.0,-10.0,-75.0,39.0,-1059.0
-24.0,7.0,-256.0,47.0,8.0,-10.0,-67.0,39.0,-1055.0
-22.0,12.0,-254.0,47.0,10.0,-11.0,-72.0,40.0,-1052.0
-21.0,8.0,-251.0,46.0,9.0,-11.0,-71.0,35.0,-1050.0
-21.0,7.0,-254.0,46.0,10.0,-9.0,-72.0,38.0,-1052.0
-22.0,9.0,-253.0,45.0,11.0,-8.0,-74.0,41.0,-1053.0
-19.0,8.0,-256.0,46.0,11.0,-8.0,-75.0,37.0,-1051.0
-22.0,6.0,-252.0,45.0,12.0,-8.0,-66.0,38.0,-1062.0
-23.0,9.0,-257.0,46.0,13.0,-9.0,-70.0,41.0,-1055.0
-23.0,8.0,-257.0,47.0,13.0,-9.0,-70.0,38.0,-1059.0
-21.0,11.0,-256.0,48.0,13.0,-9.0,-70.0,35.0,-1060.0
-20.0,9.0,-256.0,48.0,13.0,-9.0,-75.0,40.0,-1064.0
-22.0,12.0,-256.0,48.0,12.0,-10.0,-67.0,38.0,-1063.0
-23.0,10.0,-254.0,48.0,12.0,-9.0,-72.0,37.0,-1066.0
-20.0,9.0,-256.0,48.0,11.0,-11.0,-70.0,43.0,-1050.0
-25.0,11.0,-257.0,49.0,10.0,-10.0,-67.0,34.0,-1060.0
-23.0,11.0,-255.0,49.0,11.0,-9.0,-71.0,34.0,-1061.0
-22.0,12.0,-253.0,49.0,11.0,-9.0,-74.0,37.0,-1060.0
-21.0,8.0,-257.0,48.0,12.0,-10.0,-72.0,38.0,-1048.0
-23.0,11.0,-259.0,47.0,13.0,-9.0,-62.0,41.0,-1062.0
-21.0,10.0,-259.0,47.0,11.0,-7.0,-72.0,38.0,-1055.0
-20.0,6.0,-254.0,48.0,11.0,-9.0,-75.0,41.0,-1056.0
-24.0,14.0,-254.0,49.0,12.0,-10.0,-67.0,37.0,-1063.0
-19.0,7.0,-258.0,49.0,12.0,-9.0,-70.0,39.0,-1061.0
-24.0,9.0,-256.0,50.0,13.0,-9.0,-69.0,40.0,-1052.0
-23.0,11.0,-256.0,50.0,12.0,-10.0,-70.0,41.0,-1060.0
-21.0,9.0,-257.0,49.0,13.0,-9.0,-69.0,39.0,-1056.0
-23.0,10.0,-257.0,48.0,13.0,-10.0,-77.0,42.0,-1055.0
-24.0,13.0,-254.0,48.0,12.0,-9.0,-73.0,41.0,-1048.0
-23.0,10.0,-254.0,49.0,12.0,-9.0,-70.0,41.0,-1057.0
-21.0,12.0,-255.0,49.0,14.0,-8.0,-63.0,38.0,-1051.0
-21.0,7.0,-252.0,50.0,14.0,-9.0,-72.0,36.0,-1064.0
-26.0,3.0,-249.0,49.0,14.0,-10.0,-69.0,41.0,-1053.0
-21.0,10.0,-255.0,49.0,15.0,-10.0,-70.0,36.0,-1060.0
-21.0,11.0,-256.0,49.0,14.0,-10.0,-64.0,40.0,-1057.0
-22.0,8.0,-255.0,50.0,14.0,-10.0,-74.0,40.0,-1056.0
-22.0,6.0,-258.0,50.0,13.0,-10.0,-76.0,35.0,-1052.0
