acc1_x,acc1_y,acc1_z,gyro_x,gyro_y,gyro_z,acc2_x,acc2_y,acc2_z
-14.0,-248.0,3.0,83.0,-3.0,-25.0,-63.0,-1008.0,11.0
-15.0,-246.0,2.0,83.0,-2.0,-21.0,-65.0,-1008.0,15.0
-13.0,-249.0,-2.0,85.0,0.0,-19.0,-76.0,-1012.0,13.0
-13.0,-248.0,-1.0,85.0,3.0,-17.0,-61.0,-1011.0,14.0
-19.0,-247.0,1.0,85.0,4.0,-16.0,-63.0,-1010.0,7.0
-19.0,-252.0,5.0,84.0,6.0,-17.0,-76.0,-1010.0,16.0
-13.0,-245.0,6.0,83.0,7.0,-16.0,-63.0,-1004.0,15.0
-13.0,-247.0,0.0,81.0,10.0,-17.0,-61.0,-1007.0,16.0
-16.0,-247.0,3.0,80.0,14.0,-18.0,-59.0,-1008.0,19.0
-17.0,-246.0,2.0,78.0,20.0,-20.0,-61.0,-1007.0,16.0
-9.0,-250.0,3.0,78.0,26.0,-20.0,-57.0,-1000.0,16.0
-12.0,-244.0,1.0,75.0,31.0,-22.0,-62.0,-1004.0,16.0
-12.0,-247.0,6.0,72.0,35.0,-21.0,-60.0,-1005.0,25.0
-13.0,-250.0,7.0,69.0,38.0,-22.0,-62.0,-1010.0,23.0
-11.0,-248.0,4.0,65.0,40.0,-22.0,-67.0,-1007.0,23.0
-20.0,-248.0,3.0,58.0,43.0,-20.0,-67.0,-1008.0,28.0
-17.0,-249.0,8.0,53.0,43.0,-19.0,-76.0,-1007.0,29.0
-17.0,-246.0,8.0,47.0,41.0,-18.0,-76.0,-1006.0,31.0
-16.0,-246.0,8.0,39.0,41.0,-17.0,-81.0,-1007.0,27.0
-18.0,-247.0,4.0,31.0,38.0,-15.0,-79.0,-1006.0,30.0
-19.0,-250.0,6.0,25.0,37.0,-15.0,-81.0,-1010.0,36.0
-20.0,-249.0,6.0,19.0,33.0,-15.0,-89.0,-1006.0,35.0
-19.0,-250.0,8.0,12.0,32.0,-14.0,-87.0,-1011.0,36.0
-20.0,-248.0,7.0,9.0,29.0,-15.0,-88.0,-1007.0,33.0
-21.0,-247.0,4.0,5.0,27.0,-18.0,-89.0,-1007.0,25.0
-22.0,-250.0,3.0,2.0,24.0,-17.0,-91.0,-1007.0,24.0
-19.0,-244.0,5.0,1.0,22.0,-19.0,-88.0,-1005.0,27.0
-23.0,-244.0,4.0,1.0,20.0,-20.0,-88.0,-998.0,21.0
-20.0,-245.0,4.0,1.0,20.0,-20.0,-85.0,-1001.0,19.0
-21.0,-245.0,5.0,2.0,22.0,-18.0,-89.0,-1001.0,23.0
-21.0,-246.0,0.0,1.0,21.0,-18.0,-87.0,-1005.0,26.0
-16.0,-247.0,2.0,-1.0,21.0,-16.0,-90.0,-1000.0,21.0
-18.0,-246.0,7.0,-4.0,18.0,-18.0,-77.0,-1006.0,18.0
-18.0,-244.0,1.0,-6.0,17.0,-15.0,-77.0,-1002.0,21.0
-20.0,-248.0,10.0,-12.0,15.0,-11.0,-77.0,-1008.0,19.0
-15.0,-248.0,7.0,-15.0,13.0,-10.0,-74.0,-1009.0,28.0
-18.0,-240.0,3.0,-19.0,10.0,-9.0,-77.0,-1007.0,23.0
-18.0,-243.0,5.0,-23.0,11.0,-9.0,-83.0,-1000.0,16.0
-21.0,-242.0,3.0,-29.0,12.0,-9.0,-74.0,-999.0,22.0
-17.0,-248.0,2.0,-36.0,16.0,-10.0,-80.0,-1001.0,21.0
-14.0,-246.0,7.0,-45.0,18.0,-9.0,-78.0,-1004.0,22.0
-20.0,-246.0,5.0,-54.0,20.0,-8.0,-80.0,-998.0,19.0
-17.0,-246.0,8.0,-60.0,23.0,-6.0,-79.0,-1005.0,21.0
-16.0,-249.0,5.0,-68.0,23.0,-3.0,-76.0,-1000.0,21.0
-16.0,-247.0,5.0,-74.0,20.0,1.0,-81.0,-1007.0,17.0
-20.0,-246.0,-3.0,-78.0,18.0,0.0,-80.0,-1004.0,12.0
-21.0,-246.0,-10.0,-78.0,12.0,2.0,-82.0,-1011.0,2.0
-16.0,-253.0,-1.0,-77.0,5.0,3.0,-83.0,-1010.0,0.0
-20.0,-252.0,-1.0,-73.0,-2.0,6.0,-85.0,-1021.0,9.0
-21.0,-250.0,-6.0,-63.0,-7.0,6.0,-84.0,-1004.0,-3.0
-19.0,-249.0,-4.0,-53.0,-10.0,6.0,-85.0,-1018.0,-4.0
-19.0,-249.0,-7.0,-44.0,-13.0,6.0,-84.0,-1018.0,-4.0
-21.0,-250.0,-2.0,-36.0,-11.0,6.0,-89.0,-1026.0,-2.0
-19.0,-250.0,-5.0,-31.0,-9.0,3.0,-82.0,-1031.0,-1.0
-20.0,-251.0,-3.0,-29.0,-8.0,1.0,-88.0,-1018.0,-10.0
-18.0,-248.0,-5.0,-29.0,-7.0,-1.0,-83.0,-1016.0,-1.0
-20.0,-243.0,-4.0,-28.0,-6.0,-4.0,-83.0,-1007.0,-3.0
-18.0,-245.0,-3.0,-32.0,-2.0,-4.0,-79.0,-1010.0,8.0
-20.0,-244.0,-7.0,-33.0,2.0,-3.0,-80.0,-1010.0,2.0
-17.0,-247.0,-5.0,-33.0,4.0,-3.0,-78.0,-1012.0,2.0
-13.0,-250.0,1.0,-36.0,9.0,-3.0,-76.0,-1008.0,-2.0
-17.0,-246.0,-3.0,-38.0,17.0,-3.0,-73.0,-1006.0,-2.0
-16.0,-246.0,-5.0,-38.0,20.0,-1.0,-67.0,-1017.0,-2.0
-16.0,-248.0,-5.0,-38.0,24.0,1.0,-75.0,-1010.0,-2.0
-13.0,-250.0,-4.0,-41.0,26.0,1.0,-68.0,-1011.0,-2.0
-16.0,-247.0,-6.0,-39.0,27.0,3.0,-62.0,-1020.0,-6.0
-14.0,-249.0,-4.0,-34.0,23.0,4.0,-64.0,-1011.0,-7.0
-13.0,-249.0,-2.0,-33.0,22.0,5.0,-60.0,-1011.0,-11.0
-14.0,-248.0,-1.0,-31.0,19.0,2.0,-61.0,-1015.0,-12.0
-19.0,-240.0,-4.0,-27.0,16.0,1.0,-62.0,-1011.0,-13.0
-14.0,-245.0,-6.0,-18.0,13.0,-1.0,-61.0,-1008.0,-16.0
-14.0,-251.0,-8.0,-14.0,9.0,-1.0,-62.0,-1005.0,-8.0
-11.0,-248.0,-8.0,-7.0,7.0,-1.0,-58.0,-1002.0,-11.0
-18.0,-246.0,-5.0,-4.0,8.0,-3.0,-58.0,-1005.0,-11.0
-13.0,-244.0,-3.0,-4.0,8.0,-6.0,-59.0,-1007.0,-12.0
-13.0,-242.0,-7.0,-5.0,9.0,-8.0,-58.0,-1000.0,-8.0
-11.0,-247.0,-5.0,-7.0,12.0,-9.0,-58.0,-996.0,-14.0
-14.0,-242.0,-6.0,-12.0,15.0,-9.0,-56.0,-1001.0,-12.0
-10.0,-246.0,1.0,-21.0,17.0,-9.0,-61.0,-998.0,-10.0
-14.0,-244.0,0.0,-27.0,19.0,-8.0,-58.0,-1000.0,-7.0
-15.0,-245.0,-4.0,-29.0,20.0,-8.0,-67.0,-1005.0,-8.0
-12.0,-248.0,-3.0,-28.0,21.0,-5.0,-63.0,-1008.0,-6.0
-17.0,-247.0,-7.0,-25.0,23.0,-5.0,-71.0,-1006.0,-11.0
-15.0,-247.0,-4.0,-22.0,23.0,-6.0,-74.0,-1007.0,-11.0
-14.0,-248.0,-5.0,-22.0,27.0,-6.0,-76.0,-1004.0,-14.0
-16.0,-246.0,-7.0,-24.0,30.0,-5.0,-76.0,-1007.0,-13.0
-21.0,-250.0,-7.0,-25.0,33.0,-5.0,-79.0,-1007.0,-10.0
-21.0,-248.0,-4.0,-26.0,35.0,-3.0,-86.0,-1009.0,-16.0
-18.0,-249.0,-6.0,-27.0,36.0,-3.0,-81.0,-1015.0,-14.0
-18.0,-246.0,-4.0,-29.0,37.0,0.0,-83.0,-1003.0,-18.0
-18.0,-249.0,-8.0,-33.0,42.0,0.0,-87.0,-1007.0,-16.0
-19.0,-246.0,-8.0,-37.0,43.0,2.0,-86.0,-1006.0,-22.0
-22.0,-248.0,-7.0,-43.0,41.0,2.0,-91.0,-1014.0,-17.0
-21.0,-250.0,-7.0,-43.0,38.0,0.0,-94.0,-1011.0,-21.0
-21.0,-248.0,-8.0,-37.0,33.0,1.0,-90.0,-1016.0,-24.0
-21.0,-250.0,-8.0,-26.0,32.0,-1.0,-88.0,-1016.0,-26.0
-19.0,-251.0,-7.0,-16.0,29.0,-2.0,-90.0,-1017.0,-22.0
-21.0,-251.0,-4.0,-6.0,28.0,-5.0,-88.0,-1020.0,-21.0
-21.0,-248.0,-9.0,3.0,26.0,-5.0,-84.0,-1012.0,-23.0
-20.0,-248.0,-5.0,9.0,29.0,-6.0,-88.0,-1009.0,-21.0
-21.0,-247.0,-7.0,10.0,32.0,-8.0,-81.0,-1009.0,-20.0
-22.0,-245.0,-3.0,12.0,34.0,-7.0,-82.0,-1015.0,-16.0
-19.0,-249.0,-5.0,12.0,36.0,-8.0,-86.0,-1015.0,-18.0
-19.0,-249.0,-4.0,10.0,38.0,-5.0,-87.0,-1010.0,-19.0
-20.0,-248.0,-6.0,9.0,39.0,-3.0,-89.0,-1010.0,-20.0
-18.0,-250.0,-7.0,8.0,39.0,-3.0,-84.0,-1006.0,-16.0
-23.0,-249.0,-8.0,12.0,39.0,-4.0,-95.0,-1007.0,-21.0
-21.0,-248.0,-7.0,12.0,33.0,-3.0,-93.0,-1001.0,-20.0
-17.0,-250.0,-6.0,8.0,31.0,2.0,-96.0,-1008.0,-12.0
-20.0,-247.0,-4.0,7.0,27.0,5.0,-94.0,-1000.0,-27.0
-20.0,-245.0,-4.0,2.0,25.0,11.0,-95.0,-1010.0,-14.0
-26.0,-249.0,-8.0,2.0,22.0,9.0,-96.0,-1009.0,-14.0
-21.0,-248.0,-3.0,8.0,16.0,6.0,-99.0,-1008.0,-12.0
-24.0,-244.0,-5.0,11.0,14.0,4.0,-96.0,-1004.0,-19.0
-21.0,-247.0,-5.0,12.0,11.0,5.0,-90.0,-1007.0,-14.0
-19.0,-248.0,-7.0,14.0,11.0,3.0,-88.0,-1008.0,-17.0
-20.0,-247.0,-5.0,14.0,9.0,4.0,-89.0,-1000.0,-15.0
-19.0,-246.0,-5.0,14.0,7.0,3.0,-83.0,-1005.0,-16.0
-17.0,-246.0,-7.0,11.0,6.0,0.0,-87.0,-999.0,-15.0
-21.0,-247.0,-7.0,4.0,6.0,0.0,-84.0,-1003.0,-12.0
-17.0,-243.0,-2.0,1.0,5.0,-2.0,-88.0,-1007.0,-16.0
-21.0,-244.0,-7.0,1.0,3.0,-2.0,-84.0,-1009.0,-20.0
-21.0,-252.0,-7.0,-2.0,1.0,-5.0,-82.0,-1011.0,-19.0
-20.0,-245.0,-8.0,-4.0,-1.0,-6.0,-78.0,-1005.0,-23.0
-19.0,-247.0,-8.0,-4.0,-1.0,-8.0,-81.0,-1005.0,-21.0
-17.0,-247.0,-5.0,0.0,-2.0,-9.0,-80.0,-1001.0,-20.0
-18.0,-248.0,-7.0,2.0,-2.0,-11.0,-85.0,-1012.0,-19.0
-19.0,-247.0,-6.0,4.0,2.0,-13.0,-80.0,-1002.0,-18.0
-17.0,-248.0,-8.0,5.0,4.0,-15.0,-83.0,-1004.0,-19.0
-21.0,-248.0,-6.0,2.0,8.0,-13.0,-78.0,-1009.0,-16.0
-21.0,-251.0,-4.0,2.0,11.0,-12.0,-83.0,-1010.0,-16.0
-17.0,-247.0,-7.0,4.0,11.0,-11.0,-79.0,-1017.0,-18.0
-19.0,-252.0,-7.0,5.0,12.0,-12.0,-76.0,-1012.0,-16.0
-17.0,-250.0,-1.0,2.0,16.0,-13.0,-76.0,-1012.0,-17.0
-17.0,-253.0,-7.0,2.0,18.0,-12.0,-74.0,-1016.0,-16.0
-17.0,-247.0,-6.0,3.0,20.0,-15.0,-72.0,-1015.0,-18.0
-17.0,-246.0,-8.0,2.0,19.0,-15.0,-73.0,-1012.0,-24.0
-15.0,-248.0,-6.0,0.0,17.0,-16.0,-76.0,-1011.0,-25.0
-19.0,-248.0,-5.0,2.0,18.0,-16.0,-75.0,-1007.0,-26.0
-19.0,-246.0,-11.0,3.0,24.0,-9.0,-70.0,-1007.0,-23.0
-15.0,-248.0,-6.0,6.0,27.0,-9.0,-72.0,-1010.0,-23.0
-14.0,-247.0,-9.0,8.0,30.0,-6.0,-72.0,-1000.0,-22.0
-19.0,-244.0,-7.0,7.0,36.0,-8.0,-82.0,-1007.0,-21.0
-19.0,-245.0,-8.0,7.0,38.0,-8.0,-77.0,-1001.0,-33.0
-18.0,-249.0,-10.0,7.0,40.0,-6.0,-82.0,-1006.0,-22.0
-18.0,-246.0,-14.0,12.0,34.0,-7.0,-86.0,-1007.0,-36.0
-20.0,-246.0,-8.0,11.0,23.0,-9.0,-79.0,-1010.0,-32.0
-18.0,-248.0,-9.0,12.0,18.0,-10.0,-85.0,-999.0,-33.0
-18.0,-249.0,-9.0,14.0,19.0,-9.0,-81.0,-1005.0,-34.0
-18.0,-247.0,-8.0,18.0,21.0,-11.0,-88.0,-1003.0,-34.0
-19.0,-245.0,-9.0,18.0,23.0,-12.0,-83.0,-1006.0,-34.0
-20.0,-247.0,-9.0,15.0,25.0,-14.0,-81.0,-1008.0,-36.0
-15.0,-249.0,-8.0,16.0,25.0,-16.0,-81.0,-1014.0,-36.0
-15.0,-246.0,-7.0,19.0,27.0,-14.0,-75.0,-1012.0,-35.0
-16.0,-251.0,-10.0,22.0,30.0,-10.0,-76.0,-1010.0,-35.0
-16.0,-249.0,-7.0,25.0,31.0,-13.0,-76.0,-1012.0,-35.0
-17.0,-249.0,-12.0,24.0,35.0,-13.0,-72.0,-1013.0,-42.0
-14.0,-249.0,-14.0,24.0,35.0,-13.0,-72.0,-1015.0,-38.0
-13.0,-249.0,-11.0,25.0,34.0,-14.0,-73.0,-1010.0,-33.0
-18.0,-247.0,-8.0,23.0,36.0,-16.0,-71.0,-1005.0,-33.0
-14.0,-249.0,-10.0,21.0,36.0,-17.0,-73.0,-1006.0,-38.0
-17.0,-245.0,-8.0,23.0,37.0,-18.0,-69.0,-1001.0,-32.0
-20.0,-242.0,-15.0,25.0,39.0,-21.0,-74.0,-1007.0,-31.0
-16.0,-249.0,-14.0,30.0,39.0,-23.0,-73.0,-999.0,-30.0
-15.0,-250.0,-9.0,31.0,39.0,-26.0,-78.0,-1005.0,-35.0
-19.0,-249.0,-11.0,34.0,40.0,-24.0,-75.0,-1005.0,-27.0
-17.0,-248.0,-8.0,40.0,43.0,-25.0,-77.0,-1006.0,-36.0
-17.0,-249.0,-10.0,45.0,45.0,-25.0,-78.0,-1009.0,-33.0
-19.0,-246.0,-8.0,48.0,45.0,-21.0,-78.0,-1008.0,-31.0
-20.0,-247.0,-13.0,52.0,43.0,-22.0,-81.0,-1010.0,-37.0
-18.0,-249.0,-10.0,53.0,42.0,-19.0,-81.0,-1014.0,-34.0
-18.0,-246.0,-15.0,54.0,40.0,-18.0,-83.0,-1007.0,-37.0
-18.0,-247.0,-12.0,52.0,38.0,-18.0,-78.0,-1012.0,-34.0
-18.0,-249.0,-6.0,52.0,36.0,-19.0,-88.0,-1015.0,-34.0
-17.0,-248.0,-8.0,55.0,35.0,-23.0,-76.0,-1009.0,-38.0
-20.0,-247.0,-8.0,54.0,35.0,-23.0,-74.0,-1006.0,-32.0
-16.0,-249.0,-7.0,48.0,32.0,-22.0,-84.0,-1005.0,-44.0
-18.0,-249.0,-9.0,39.0,31.0,-18.0,-84.0,-1012.0,-37.0
-18.0,-250.0,-7.0,35.0,29.0,-19.0,-81.0,-1005.0,-34.0
-20.0,-246.0,-11.0,34.0,30.0,-21.0,-84.0,-1006.0,-31.0
-18.0,-245.0,-10.0,34.0,33.0,-22.0,-86.0,-1002.0,-31.0
-16.0,-249.0,-8.0,34.0,31.0,-21.0,-88.0,-1002.0,-33.0
-19.0,-247.0,-6.0,36.0,28.0,-21.0,-88.0,-1001.0,-36.0
-20.0,-249.0,-10.0,41.0,28.0,-21.0,-87.0,-1004.0,-33.0
-18.0,-246.0,-8.0,50.0,28.0,-23.0,-83.0,-999.0,-37.0
-21.0,-247.0,-9.0,57.0,27.0,-24.0,-83.0,-996.0,-39.0
-22.0,-247.0,-11.0,59.0,27.0,-23.0,-82.0,-997.0,-36.0
-19.0,-246.0,-13.0,60.0,28.0,-23.0,-79.0,-997.0,-41.0
-19.0,-246.0,-14.0,61.0,29.0,-21.0,-82.0,-1008.0,-43.0
-16.0,-246.0,-10.0,60.0,27.0,-20.0,-83.0,-1007.0,-47.0
-21.0,-246.0,-12.0,61.0,23.0,-19.0,-81.0,-996.0,-54.0
-18.0,-245.0,-14.0,61.0,21.0,-19.0,-80.0,-997.0,-46.0
-15.0,-248.0,-11.0,65.0,14.0,-20.0,-85.0,-1004.0,-39.0
-18.0,-250.0,-13.0,68.0,9.0,-19.0,-85.0,-1002.0,-39.0
-20.0,-246.0,-10.0,70.0,5.0,-18.0,-84.0,-1002.0,-43.0
-19.0,-250.0,-13.0,71.0,1.0,-19.0,-90.0,-1004.0,-35.0
-17.0,-250.0,-8.0,72.0,-1.0,-19.0,-91.0,-1007.0,-32.0
-20.0,-249.0,-7.0,72.0,-2.0,-19.0,-88.0,-1011.0,-35.0
-17.0,-250.0,-7.0,72.0,-1.0,-20.0,-87.0,-1012.0,-28.0
-22.0,-247.0,-8.0,69.0,-1.0,-22.0,-87.0,-1014.0,-22.0
-20.0,-244.0,-6.0,68.0,-2.0,-22.0,-88.0,-1012.0,-26.0
-18.0,-250.0,-8.0,67.0,-3.0,-23.0,-84.0,-1010.0,-25.0
-20.0,-247.0,-8.0,68.0,-3.0,-23.0,-82.0,-1012.0,-24.0
-22.0,-247.0,-7.0,68.0,-3.0,-21.0,-87.0,-1009.0,-30.0
-18.0,-248.0,-12.0,69.0,-4.0,-22.0,-80.0,-1011.0,-29.0
-19.0,-250.0,-10.0,69.0,-4.0,-23.0,-81.0,-1010.0,-35.0
-14.0,-249.0,-13.0,72.0,-5.0,-21.0,-80.0,-1014.0,-36.0
-15.0,-245.0,-9.0,75.0,-4.0,-22.0,-77.0,-1009.0,-30.0
-17.0,-249.0,-12.0,76.0,-5.0,-23.0,-77.0,-1005.0,-35.0
-16.0,-248.0,-10.0,75.0,-3.0,-22.0,-77.0,-1005.0,-34.0
-16.0,-248.0,-7.0,73.0,-2.0,-22.0,-77.0,-1010.0,-36.0
-17.0,-246.0,-7.0,73.0,0.0,-21.0,-76.0,-1010.0,-27.0
-17.0,-249.0,-9.0,72.0,2.0,-20.0,-76.0,-1011.0,-31.0
-17.0,-248.0,-7.0,71.0,5.0,-20.0,-75.0,-1004.0,-32.0
-14.0,-250.0,-9.0,69.0,8.0,-20.0,-77.0,-1009.0,-30.0
-16.0,-244.0,-8.0,68.0,11.0,-18.0,-76.0,-1006.0,-28.0
-18.0,-245.0,-9.0,66.0,14.0,-16.0,-70.0,-1003.0,-27.0
-14.0,-246.0,-6.0,65.0,16.0,-14.0,-71.0,-1004.0,-27.0
-18.0,-250.0,-8.0,63.0,16.0,-13.0,-62.0,-1000.0,-28.0
-14.0,-247.0,-9.0,62.0,16.0,-12.0,-69.0,-1001.0,-30.0
-15.0,-246.0,-10.0,63.0,15.0,-11.0,-66.0,-1008.0,-27.0
-8.0,-249.0,-7.0,65.0,16.0,-13.0,-60.0,-1004.0,-31.0
-13.0,-248.0,-11.0,66.0,17.0,-12.0,-65.0,-1008.0,-35.0
-15.0,-247.0,-9.0,66.0,17.0,-13.0,-70.0,-1006.0,-32.0
-15.0,-249.0,-14.0,64.0,17.0,-13.0,-67.0,-1004.0,-33.0
-14.0,-247.0,-10.0,60.0,19.0,-13.0,-65.0,-1004.0,-32.0
-14.0,-248.0,-6.0,55.0,20.0,-14.0,-68.0,-1007.0,-34.0
-19.0,-246.0,-7.0,53.0,21.0,-13.0,-66.0,-1005.0,-35.0
-17.0,-248.0,-10.0,51.0,24.0,-14.0,-70.0,-1011.0,-34.0
-21.0,-244.0,-11.0,51.0,24.0,-14.0,-66.0,-1009.0,-30.0
-15.0,-248.0,-7.0,51.0,23.0,-13.0,-66.0,-1007.0,-34.0
-15.0,-248.0,-10.0,52.0,23.0,-15.0,-68.0,-1011.0,-24.0
-16.0,-246.0,-8.0,53.0,23.0,-15.0,-72.0,-1008.0,-29.0
-15.0,-247.0,-7.0,54.0,23.0,-13.0,-76.0,-1008.0,-26.0
-17.0,-247.0,-9.0,56.0,24.0,-14.0,-71.0,-1007.0,-24.0
-20.0,-246.0,-12.0,57.0,24.0,-14.0,-77.0,-1007.0,-26.0
-19.0,-248.0,-8.0,58.0,24.0,-12.0,-81.0,-1007.0,-30.0
-15.0,-247.0,-7.0,58.0,24.0,-12.0,-79.0,-1011.0,-29.0
-17.0,-247.0,-6.0,59.0,22.0,-11.0,-74.0,-1011.0,-27.0
-20.0,-250.0,-7.0,58.0,21.0,-12.0,-78.0,-1004.0,-28.0
-19.0,-249.0,-6.0,59.0,21.0,-12.0,-80.0,-1012.0,-27.0
-18.0,-249.0,-6.0,59.0,20.0,-13.0,-79.0,-1009.0,-24.0
-18.0,-249.0,-8.0,60.0,20.0,-11.0,-78.0,-1012.0,-25.0
-18.0,-245.0,-5.0,61.0,19.0,-11.0,-81.0,-1016.0,-24.0
-19.0,-247.0,-8.0,61.0,20.0,-11.0,-77.0,-1012.0,-22.0
-17.0,-251.0,-9.0,62.0,19.0,-13.0,-76.0,-1011.0,-25.0
-21.0,-246.0,-9.0,62.0,19.0,-11.0,-75.0,-1009.0,-24.0
-20.0,-248.0,-8.0,62.0,16.0,-10.0,-77.0,-1008.0,-20.0
-18.0,-246.0,-8.0,61.0,16.0,-10.0,-78.0,-1002.0,-25.0
-13.0,-247.0,-6.0,62.0,16.0,-11.0,-79.0,-1007.0,-27.0
-17.0,-252.0,-5.0,62.0,15.0,-11.0,-80.0,-1007.0,-25.0
-17.0,-246.0,-7.0,62.0,13.0,-10.0,-79.0,-1005.0,-26.0
-17.0,-247.0,-6.0,64.0,11.0,-11.0,-79.0,-1004.0,-20.0
-18.0,-247.0,-7.0,65.0,12.0,-9.0,-78.0,-1007.0,-20.0
-15.0,-248.0,-6.0,68.0,11.0,-11.0,-78.0,-1009.0,-25.0
-18.0,-246.0,-6.0,69.0,10.0,-11.0,-82.0,-1007.0,-25.0
-17.0,-248.0,-10.0,71.0,9.0,-10.0,-77.0,-1006.0,-27.0
-17.0,-247.0,-8.0,72.0,8.0,-12.0,-80.0,-1009.0,-28.0
-11.0,-249.0,-7.0,72.0,6.0,-11.0,-79.0,-1007.0,-23.0
-19.0,-249.0,-11.0,73.0,6.0,-10.0,-82.0,-1012.0,-24.0
-16.0,-250.0,-8.0,73.0,5.0,-10.0,-85.0,-1012.0,-29.0
-15.0,-246.0,-3.0,73.0,4.0,-11.0,-83.0,-1011.0,-34.0
-17.0,-246.0,-11.0,70.0,5.0,-12.0,-82.0,-1010.0,-28.0
-18.0,-247.0,-8.0,68.0,5.0,-11.0,-79.0,-1009.0,-23.0
-18.0,-247.0,-7.0,66.0,5.0,-14.0,-81.0,-1010.0,-27.0
-20.0,-249.0,-7.0,63.0,4.0,-16.0,-80.0,-1012.0,-25.0
-19.0,-248.0,-9.0,63.0,3.0,-15.0,-79.0,-1007.0,-23.0
-17.0,-250.0,-7.0,60.0,5.0,-15.0,-76.0,-1009.0,-22.0
-18.0,-247.0,-7.0,60.0,6.0,-18.0,-80.0,-1004.0,-23.0
-16.0,-247.0,-7.0,61.0,6.0,-19.0,-79.0,-1006.0,-25.0
-17.0,-245.0,-8.0,61.0,6.0,-19.0,-75.0,-1001.0,-23.0
-17.0,-244.0,-9.0,63.0,5.0,-21.0,-77.0,-1004.0,-20.0
-18.0,-246.0,-7.0,63.0,6.0,-20.0,-75.0,-1008.0,-26.0
-20.0,-245.0,-6.0,63.0,6.0,-20.0,-77.0,-1001.0,-24.0
-17.0,-245.0,-6.0,65.0,6.0,-20.0,-77.0,-1008.0,-26.0
-17.0,-247.0,-8.0,66.0,5.0,-16.0,-80.0,-1006.0,-19.0
-18.0,-245.0,-9.0,68.0,4.0,-14.0,-71.0,-1006.0,-30.0
-18.0,-244.0,-7.0,68.0,4.0,-15.0,-73.0,-1004.0,-37.0
-19.0,-247.0,-9.0,65.0,3.0,-14.0,-82.0,-1008.0,-27.0
-22.0,-247.0,-8.0,63.0,3.0,-12.0,-78.0,-1001.0,-22.0
-17.0,-247.0,-10.0,59.0,3.0,-12.0,-76.0,-1006.0,-26.0
-14.0,-249.0,-5.0,58.0,5.0,-14.0,-75.0,-1002.0,-21.0
-14.0,-247.0,-10.0,54.0,4.0,-18.0,-76.0,-996.0,-21.0
-18.0,-244.0,-8.0,50.0,4.0,-18.0,-78.0,-1001.0,-22.0
-16.0,-247.0,-5.0,45.0,6.0,-19.0,-76.0,-997.0,-23.0
-18.0,-246.0,-8.0,39.0,9.0,-18.0,-74.0,-999.0,-23.0
-17.0,-243.0,-9.0,39.0,13.0,-18.0,-71.0,-997.0,-23.0
-17.0,-249.0,-9.0,41.0,17.0,-17.0,-68.0,-1005.0,-18.0
-13.0,-247.0,-6.0,47.0,18.0,-14.0,-78.0,-1008.0,-22.0
-15.0,-248.0,-6.0,52.0,23.0,-15.0,-69.0,-1008.0,-18.0
-16.0,-250.0,-8.0,53.0,24.0,-15.0,-66.0,-1008.0,-31.0
-14.0,-247.0,-10.0,55.0,24.0,-15.0,-75.0,-1016.0,-24.0
-16.0,-250.0,-9.0,56.0,21.0,-16.0,-72.0,-1011.0,-33.0
-13.0,-250.0,-11.0,58.0,19.0,-16.0,-69.0,-1011.0,-26.0
-15.0,-247.0,-11.0,60.0,15.0,-17.0,-66.0,-1009.0,-30.0
-15.0,-252.0,-7.0,62.0,11.0,-16.0,-71.0,-1012.0,-34.0
-18.0,-249.0,-10.0,63.0,9.0,-16.0,-73.0,-1020.0,-24.0
-16.0,-250.0,-8.0,63.0,8.0,-14.0,-75.0,-1018.0,-29.0
-15.0,-249.0,-8.0,65.0,5.0,-14.0,-81.0,-1016.0,-26.0
-16.0,-249.0,-10.0,63.0,6.0,-17.0,-78.0,-1015.0,-23.0
-17.0,-251.0,-12.0,61.0,7.0,-17.0,-81.0,-1010.0,-22.0
-14.0,-251.0,-6.0,58.0,6.0,-21.0,-81.0,-1010.0,-19.0
-20.0,-248.0,-5.0,55.0,8.0,-24.0,-80.0,-1003.0,-14.0
-20.0,-245.0,-6.0,52.0,6.0,-24.0,-79.0,-1003.0,-18.0
-19.0,-247.0,-4.0,50.0,6.0,-25.0,-80.0,-1000.0,-12.0
-18.0,-246.0,-6.0,51.0,4.0,-27.0,-74.0,-1009.0,-13.0
-19.0,-248.0,-2.0,54.0,5.0,-28.0,-72.0,-1006.0,-8.0
-20.0,-246.0,-7.0,56.0,5.0,-28.0,-78.0,-1007.0,-10.0
-15.0,-248.0,-7.0,55.0,5.0,-27.0,-77.0,-1011.0,-16.0
-16.0,-249.0,-8.0,56.0,7.0,-26.0,-68.0,-1009.0,-19.0
-15.0,-250.0,-7.0,52.0,8.0,-26.0,-68.0,-1012.0,-19.0
-18.0,-251.0,-5.0,50.0,8.0,-27.0,-74.0,-1011.0,-18.0
-15.0,-250.0,-8.0,47.0,8.0,-26.0,-72.0,-1010.0,-17.0
-18.0,-243.0,-4.0,46.0,9.0,-22.0,-70.0,-1011.0,-16.0
-19.0,-250.0,-3.0,44.0,8.0,-21.0,-71.0,-1012.0,-21.0
-19.0,-248.0,-6.0,46.0,7.0,-21.0,-71.0,-1011.0,-14.0
-14.0,-248.0,-6.0,44.0,5.0,-21.0,-64.0,-1005.0,-19.0
-13.0,-247.0,-7.0,41.0,4.0,-19.0,-70.0,-1007.0,-17.0
-14.0,-248.0,-7.0,42.0,2.0,-19.0,-66.0,-1001.0,-17.0
-18.0,-245.0,-7.0,44.0,0.0,-19.0,-70.0,-1005.0,-15.0
-16.0,-244.0,-6.0,44.0,-1.0,-21.0,-73.0,-1006.0,-17.0
-16.0,-247.0,-7.0,46.0,-2.0,-21.0,-68.0,-1009.0,-15.0
-15.0,-245.0,-7.0,48.0,-2.0,-19.0,-78.0,-1009.0,-17.0
-20.0,-248.0,-4.0,48.0,-3.0,-19.0,-74.0,-1011.0,-23.0
-16.0,-247.0,-8.0,50.0,-4.0,-19.0,-76.0,-1004.0,-22.0
-15.0,-249.0,-9.0,51.0,0.0,-19.0,-73.0,-1001.0,-20.0
-12.0,-256.0,-10.0,52.0,3.0,-19.0,-79.0,-1010.0,-19.0
-15.0,-246.0,-7.0,53.0,5.0,-20.0,-72.0,-1008.0,-23.0
-17.0,-251.0,-7.0,53.0,5.0,-18.0,-76.0,-1012.0,-23.0
-13.0,-248.0,-6.0,54.0,5.0,-19.0,-76.0,-1013.0,-26.0
-23.0,-243.0,-10.0,52.0,4.0,-21.0,-73.0,-1010.0,-33.0
-14.0,-248.0,-1.0,50.0,3.0,-20.0,-77.0,-1006.0,-32.0
-21.0,-253.0,-14.0,46.0,2.0,-19.0,-75.0,-1008.0,-33.0
-20.0,-247.0,-8.0,42.0,-1.0,-21.0,-78.0,-1009.0,-32.0
-16.0,-251.0,-4.0,43.0,0.0,-22.0,-76.0,-1010.0,-26.0
-15.0,-254.0,-10.0,45.0,4.0,-21.0,-68.0,-1012.0,-17.0
-13.0,-248.0,-8.0,48.0,6.0,-22.0,-75.0,-1011.0,-28.0
-19.0,-250.0,-12.0,50.0,9.0,-19.0,-71.0,-1012.0,-31.0
-15.0,-249.0,0.0,47.0,9.0,-18.0,-66.0,-1011.0,-23.0
-15.0,-252.0,-2.0,43.0,9.0,-16.0,-67.0,-1009.0,-26.0
-19.0,-242.0,-11.0,40.0,7.0,-15.0,-63.0,-1013.0,-20.0
-15.0,-253.0,-9.0,38.0,5.0,-14.0,-66.0,-1010.0,-25.0
-14.0,-249.0,-11.0,40.0,2.0,-14.0,-66.0,-1010.0,-28.0
-10.0,-254.0,-9.0,43.0,-2.0,-14.0,-63.0,-1008.0,-31.0
-14.0,-248.0,-7.0,47.0,-2.0,-13.0,-66.0,-1011.0,-28.0
-20.0,-245.0,-7.0,48.0,-3.0,-12.0,-60.0,-1007.0,-26.0
-11.0,-249.0,-12.0,49.0,-4.0,-14.0,-74.0,-1010.0,-32.0
-18.0,-251.0,-7.0,50.0,-5.0,-16.0,-74.0,-1008.0,-30.0
-10.0,-250.0,1.0,51.0,-6.0,-17.0,-67.0,-1007.0,-30.0
-18.0,-243.0,-12.0,52.0,-4.0,-18.0,-73.0,-1003.0,-33.0
-21.0,-246.0,-5.0,53.0,-1.0,-21.0,-67.0,-1008.0,-29.0
-12.0,-253.0,-6.0,52.0,1.0,-21.0,-71.0,-1014.0,-28.0
-18.0,-254.0,-4.0,52.0,1.0,-23.0,-62.0,-1003.0,-32.0
-14.0,-247.0,-13.0,50.0,0.0,-25.0,-72.0,-1011.0,-29.0
-17.0,-247.0,-6.0,50.0,3.0,-24.0,-69.0,-1010.0,-27.0
-14.0,-248.0,-7.0,51.0,4.0,-24.0,-67.0,-1013.0,-25.0
-12.0,-247.0,-7.0,53.0,5.0,-24.0,-69.0,-1010.0,-30.0
-14.0,-247.0,-8.0,55.0,5.0,-24.0,-70.0,-1013.0,-25.0
-17.0,-249.0,-16.0,57.0,5.0,-24.0,-70.0,-1010.0,-32.0
-15.0,-252.0,-7.0,58.0,6.0,-24.0,-71.0,-1005.0,-32.0
-18.0,-248.0,-7.0,61.0,5.0,-24.0,-68.0,-1022.0,-31.0
-12.0,-249.0,-8.0,62.0,5.0,-21.0,-76.0,-1008.0,-33.0
-13.0,-251.0,-3.0,62.0,4.0,-17.0,-70.0,-1009.0,-26.0
-15.0,-247.0,-8.0,65.0,4.0,-17.0,-68.0,-1007.0,-30.0
-16.0,-244.0,-7.0,66.0,2.0,-15.0,-69.0,-1012.0,-28.0
-17.0,-248.0,-5.0,67.0,4.0,-12.0,-70.0,-1010.0,-25.0
-16.0,-247.0,-11.0,69.0,3.0,-15.0,-73.0,-1006.0,-20.0
-21.0,-247.0,-12.0,72.0,1.0,-15.0,-66.0,-1008.0,-25.0
-18.0,-244.0,-6.0,74.0,1.0,-18.0,-73.0,-1009.0,-22.0
-14.0,-248.0,-13.0,75.0,1.0,-18.0,-69.0,-1007.0,-21.0
-12.0,-248.0,-8.0,76.0,3.0,-19.0,-67.0,-1009.0,-22.0
-15.0,-244.0,-9.0,76.0,5.0,-19.0,-69.0,-1010.0,-18.0
-13.0,-249.0,-6.0,73.0,5.0,-21.0,-76.0,-1012.0,-21.0
-17.0,-246.0,-7.0,71.0,6.0,-21.0,-72.0,-1015.0,-19.0
-14.0,-249.0,-7.0,71.0,7.0,-22.0,-64.0,-1013.0,-21.0
-17.0,-246.0,-7.0,71.0,7.0,-24.0,-76.0,-1009.0,-15.0
-16.0,-248.0,-8.0,71.0,8.0,-22.0,-75.0,-1009.0,-23.0
-13.0,-250.0,-8.0,69.0,9.0,-21.0,-72.0,-1010.0,-23.0
-18.0,-247.0,-8.0,71.0,9.0,-21.0,-72.0,-1012.0,-20.0
-15.0,-250.0,-8.0,71.0,13.0,-21.0,-71.0,-1009.0,-20.0
-14.0,-250.0,-7.0,72.0,13.0,-21.0,-74.0,-1005.0,-19.0
-14.0,-247.0,-8.0,74.0,15.0,-20.0,-66.0,-1011.0,-23.0
-14.0,-247.0,-8.0,74.0,15.0,-21.0,-63.0,-1003.0,-21.0
-15.0,-249.0,-7.0,76.0,15.0,-19.0,-68.0,-1007.0,-18.0
-16.0,-246.0,-8.0,76.0,14.0,-19.0,-66.0,-1003.0,-22.0
-14.0,-248.0,-5.0,75.0,14.0,-20.0,-70.0,-1003.0,-17.0
-17.0,-246.0,-7.0,74.0,13.0,-17.0,-74.0,-1008.0,-17.0
-17.0,-253.0,-7.0,75.0,11.0,-17.0,-73.0,-1010.0,-17.0
-14.0,-248.0,-5.0,75.0,10.0,-16.0,-71.0,-1010.0,-20.0
-14.0,-246.0,-11.0,75.0,9.0,-15.0,-63.0,-1009.0,-18.0
-14.0,-251.0,-10.0,76.0,8.0,-14.0,-76.0,-1011.0,-18.0
-15.0,-247.0,-4.0,76.0,8.0,-14.0,-75.0,-1012.0,-15.0
-16.0,-249.0,-3.0,77.0,7.0,-12.0,-77.0,-1011.0,-11.0
-16.0,-248.0,-5.0,77.0,6.0,-15.0,-75.0,-1006.0,-13.0
-16.0,-249.0,-4.0,78.0,6.0,-15.0,-66.0,-1010.0,-11.0
-13.0,-250.0,-7.0,78.0,5.0,-16.0,-72.0,-1012.0,-14.0
-13.0,-251.0,-3.0,79.0,7.0,-17.0,-70.0,-1010.0,-16.0
-18.0,-248.0,-2.0,80.0,7.0,-18.0,-69.0,-1009.0,-11.0
-16.0,-249.0,-4.0,84.0,9.0,-19.0,-67.0,-1010.0,-19.0
-20.0,-246.0,-6.0,84.0,9.0,-19.0,-64.0,-1005.0,-14.0
-16.0,-249.0,4.0,86.0,9.0,-18.0,-64.0,-1010.0,-17.0
-14.0,-252.0,-2.0,85.0,9.0,-19.0,-68.0,-1010.0,-10.0
-13.0,-249.0,-4.0,85.0,9.0,-18.0,-70.0,-1012.0,-15.0
-13.0,-248.0,-7.0,85.0,7.0,-19.0,-60.0,-1006.0,-13.0
-15.0,-249.0,-6.0,87.0,5.0,-19.0,-63.0,-1006.0,-13.0
-12.0,-246.0,-6.0,87.0,3.0,-19.0,-65.0,-1004.0,-12.0
-14.0,-241.0,-5.0,85.0,3.0,-20.0,-66.0,-1004.0,-12.0
-14.0,-245.0,-6.0,82.0,4.0,-17.0,-58.0,-1003.0,-14.0
-14.0,-247.0,-7.0,79.0,5.0,-19.0,-63.0,-1006.0,-13.0
-15.0,-243.0,-7.0,79.0,8.0,-19.0,-61.0,-1007.0,-12.0
-13.0,-245.0,-11.0,79.0,10.0,-20.0,-56.0,-1011.0,-8.0
-15.0,-249.0,-5.0,80.0,12.0,-20.0,-62.0,-1011.0,-17.0
-11.0,-249.0,-7.0,82.0,13.0,-21.0,-61.0,-1007.0,-14.0
-14.0,-247.0,-7.0,79.0,10.0,-20.0,-64.0,-1010.0,-18.0
-14.0,-249.0,-7.0,78.0,8.0,-20.0,-67.0,-1010.0,-16.0
-16.0,-249.0,-5.0,82.0,6.0,-20.0,-62.0,-1015.0,-16.0
-12.0,-247.0,-6.0,83.0,3.0,-19.0,-63.0,-1011.0,-17.0
-12.0,-251.0,-4.0,88.0,0.0,-18.0,-62.0,-1010.0,-19.0
-15.0,-249.0,-7.0,94.0,0.0,-16.0,-65.0,-1010.0,-21.0
-14.0,-249.0,-5.0,99.0,-2.0,-17.0,-71.0,-1012.0,-16.0
-15.0,-251.0,-7.0,102.0,-2.0,-18.0,-67.0,-1021.0,-22.0
-16.0,-249.0,-6.0,105.0,-4.0,-17.0,-63.0,-1012.0,-19.0
-15.0,-250.0,-7.0,105.0,-4.0,-18.0,-70.0,-1012.0,-20.0
-15.0,-249.0,-7.0,101.0,-2.0,-20.0,-70.0,-1008.0,-22.0
-15.0,-248.0,-6.0,99.0,3.0,-25.0,-73.0,-1009.0,-12.0
-13.0,-247.0,-6.0,97.0,6.0,-25.0,-64.0,-998.0,-15.0
-17.0,-244.0,-7.0,92.0,8.0,-27.0,-74.0,-1006.0,-12.0
-15.0,-243.0,-3.0,91.0,9.0,-25.0,-64.0,-1005.0,-15.0
-15.0,-248.0,-4.0,90.0,10.0,-27.0,-70.0,-1006.0,-12.0
-11.0,-250.0,-6.0,89.0,13.0,-27.0,-69.0,-1005.0,-12.0
-14.0,-248.0,-2.0,90.0,16.0,-27.0,-66.0,-1001.0,-13.0
-13.0,-249.0,-5.0,90.0,19.0,-27.0,-69.0,-1005.0,-14.0
-14.0,-247.0,-8.0,90.0,22.0,-25.0,-65.0,-1009.0,-10.0
-15.0,-246.0,0.0,93.0,22.0,-24.0,-69.0,-1011.0,-14.0
-14.0,-249.0,-3.0,94.0,20.0,-22.0,-65.0,-1014.0,-7.0
-17.0,-249.0,-4.0,95.0,17.0,-21.0,-57.0,-1007.0,-12.0
-13.0,-248.0,-3.0,96.0,14.0,-21.0,-63.0,-1013.0,-8.0
-16.0,-248.0,-3.0,96.0,10.0,-20.0,-58.0,-1011.0,-12.0
-15.0,-250.0,-6.0,100.0,7.0,-18.0,-60.0,-1009.0,-13.0
-14.0,-247.0,-7.0,102.0,4.0,-19.0,-58.0,-1002.0,-10.0
-12.0,-247.0,-6.0,101.0,3.0,-16.0,-56.0,-1011.0,-16.0
-13.0,-247.0,-4.0,103.0,2.0,-18.0,-59.0,-1006.0,-13.0
-10.0,-249.0,-7.0,102.0,3.0,-19.0,-60.0,-1006.0,-11.0
-14.0,-246.0,-7.0,101.0,4.0,-21.0,-61.0,-1004.0,-10.0
-15.0,-247.0,-5.0,102.0,6.0,-24.0,-60.0,-1005.0,-10.0
-13.0,-247.0,-4.0,104.0,9.0,-23.0,-62.0,-1005.0,-6.0
-14.0,-248.0,-3.0,103.0,11.0,-23.0,-63.0,-1005.0,-3.0
-15.0,-246.0,-3.0,103.0,14.0,-22.0,-61.0,-1009.0,-11.0
-14.0,-248.0,-2.0,104.0,15.0,-20.0,-67.0,-1005.0,-6.0
-17.0,-244.0,-4.0,103.0,16.0,-17.0,-60.0,-1009.0,-4.0
-15.0,-248.0,-4.0,102.0,19.0,-17.0,-62.0,-1009.0,-8.0
-14.0,-249.0,-2.0,102.0,17.0,-16.0,-65.0,-1010.0,5.0
-11.0,-248.0,-3.0,105.0,16.0,-15.0,-61.0,-1010.0,-4.0
-21.0,-250.0,1.0,107.0,16.0,-15.0,-63.0,-1009.0,-7.0
-14.0,-250.0,0.0,111.0,16.0,-15.0,-62.0,-1007.0,-7.0
-13.0,-249.0,-2.0,112.0,18.0,-16.0,-58.0,-1004.0,-7.0
-13.0,-248.0,-5.0,109.0,18.0,-12.0,-58.0,-1008.0,0.0
-13.0,-249.0,-3.0,105.0,17.0,-12.0,-60.0,-1007.0,-5.0
-14.0,-246.0,-5.0,98.0,18.0,-10.0,-59.0,-1009.0,7.0
-13.0,-246.0,-4.0,92.0,17.0,-7.0,-68.0,-1007.0,1.0
-12.0,-246.0,-2.0,87.0,16.0,-5.0,-65.0,-1008.0,-4.0
-15.0,-249.0,-3.0,84.0,15.0,-5.0,-61.0,-1010.0,0.0
-15.0,-249.0,-3.0,84.0,14.0,-5.0,-61.0,-1010.0,1.0
-12.0,-250.0,-3.0,87.0,13.0,-5.0,-60.0,-1008.0,0.0
-7.0,-252.0,6.0,91.0,13.0,-3.0,-63.0,-1011.0,-8.0
-11.0,-248.0,0.0,95.0,12.0,-3.0,-61.0,-1010.0,-4.0
-14.0,-248.0,-2.0,102.0,11.0,-5.0,-66.0,-1012.0,0.0
-13.0,-249.0,-4.0,107.0,11.0,-6.0,-63.0,-1014.0,1.0
-11.0,-248.0,-3.0,112.0,13.0,-7.0,-58.0,-1010.0,2.0
-12.0,-250.0,-2.0,114.0,14.0,-10.0,-56.0,-1009.0,0.0
-15.0,-248.0,-2.0,117.0,16.0,-13.0,-57.0,-1009.0,1.0
-15.0,-246.0,-3.0,120.0,17.0,-15.0,-64.0,-1011.0,-2.0
-13.0,-248.0,-5.0,120.0,18.0,-18.0,-65.0,-1008.0,-3.0
-11.0,-251.0,-2.0,116.0,18.0,-19.0,-65.0,-1009.0,5.0
-14.0,-245.0,-2.0,116.0,18.0,-21.0,-59.0,-1008.0,7.0
-14.0,-246.0,0.0,116.0,19.0,-20.0,-64.0,-1006.0,6.0
-14.0,-246.0,1.0,114.0,18.0,-21.0,-69.0,-1003.0,3.0
-13.0,-248.0,-1.0,112.0,16.0,-20.0,-66.0,-1001.0,8.0
-12.0,-246.0,1.0,109.0,14.0,-19.0,-62.0,-1010.0,7.0
-13.0,-246.0,1.0,108.0,12.0,-20.0,-62.0,-1005.0,10.0
-12.0,-250.0,1.0,106.0,9.0,-20.0,-58.0,-1009.0,7.0
-14.0,-245.0,0.0,105.0,5.0,-18.0,-60.0,-1002.0,6.0
-15.0,-250.0,0.0,102.0,2.0,-18.0,-60.0,-1001.0,4.0
-15.0,-244.0,-1.0,101.0,2.0,-18.0,-60.0,-1003.0,5.0
-12.0,-245.0,-2.0,99.0,-2.0,-19.0,-57.0,-1006.0,8.0
-15.0,-244.0,3.0,97.0,-5.0,-19.0,-60.0,-1010.0,6.0
-15.0,-248.0,2.0,95.0,-5.0,-22.0,-65.0,-1010.0,9.0
-15.0,-247.0,-2.0,92.0,-6.0,-23.0,-60.0,-1011.0,4.0
-14.0,-245.0,-1.0,91.0,-6.0,-22.0,-65.0,-1010.0,5.0
-11.0,-250.0,4.0,89.0,-5.0,-23.0,-59.0,-1011.0,5.0
-16.0,-248.0,-1.0,90.0,-6.0,-24.0,-61.0,-1021.0,5.0
-10.0,-247.0,2.0,91.0,-6.0,-23.0,-65.0,-1014.0,9.0
-11.0,-248.0,-1.0,91.0,-6.0,-23.0,-64.0,-1021.0,10.0
-12.0,-249.0,2.0,91.0,-5.0,-23.0,-66.0,-1010.0,12.0
-14.0,-248.0,2.0,91.0,-4.0,-21.0,-67.0,-1010.0,13.0
-15.0,-249.0,-2.0,90.0,-3.0,-21.0,-68.0,-1007.0,14.0
-20.0,-248.0,0.0,91.0,-5.0,-21.0,-60.0,-1006.0,12.0
-15.0,-248.0,2.0,91.0,-7.0,-22.0,-65.0,-1012.0,7.0
-18.0,-244.0,-1.0,90.0,-6.0,-22.0,-67.0,-1007.0,13.0
-17.0,-249.0,-3.0,91.0,-7.0,-21.0,-70.0,-1006.0,13.0
-15.0,-246.0,1.0,91.0,-8.0,-22.0,-71.0,-1003.0,8.0
-14.0,-244.0,1.0,92.0,-7.0,-22.0,-73.0,-1007.0,17.0
-15.0,-242.0,4.0,94.0,-6.0,-21.0,-73.0,-1003.0,13.0
-14.0,-248.0,5.0,93.0,-4.0,-23.0,-70.0,-1008.0,14.0
-11.0,-246.0,-1.0,97.0,-2.0,-24.0,-61.0,-1007.0,14.0
-11.0,-248.0,1.0,100.0,0.0,-25.0,-60.0,-1007.0,9.0
-11.0,-251.0,14.0,102.0,2.0,-26.0,-62.0,-1009.0,15.0
-15.0,-245.0,3.0,105.0,3.0,-26.0,-61.0,-1008.0,17.0
-11.0,-248.0,1.0,108.0,7.0,-28.0,-56.0,-1008.0,15.0
-15.0,-250.0,2.0,110.0,10.0,-27.0,-62.0,-1010.0,18.0
-16.0,-246.0,1.0,111.0,10.0,-27.0,-58.0,-1010.0,10.0
-12.0,-248.0,-2.0,111.0,11.0,-28.0,-55.0,-1013.0,19.0
-11.0,-248.0,5.0,109.0,11.0,-26.0,-54.0,-1006.0,19.0
-13.0,-251.0,2.0,105.0,10.0,-25.0,-64.0,-1012.0,12.0
-12.0,-248.0,7.0,104.0,8.0,-23.0,-58.0,-1008.0,14.0
-15.0,-249.0,-1.0,101.0,8.0,-23.0,-61.0,-1011.0,11.0
-10.0,-248.0,3.0,97.0,8.0,-19.0,-59.0,-1004.0,19.0
-14.0,-251.0,2.0,96.0,9.0,-19.0,-58.0,-1011.0,20.0
-14.0,-246.0,4.0,95.0,8.0,-19.0,-60.0,-1006.0,21.0
-13.0,-249.0,1.0,96.0,11.0,-19.0,-63.0,-1008.0,25.0
-15.0,-249.0,-1.0,97.0,10.0,-18.0,-62.0,-1009.0,24.0
-12.0,-249.0,-1.0,98.0,12.0,-18.0,-61.0,-1007.0,17.0
-13.0,-245.0,2.0,100.0,16.0,-21.0,-65.0,-1003.0,20.0
-10.0,-249.0,4.0,102.0,17.0,-23.0,-62.0,-1006.0,17.0
-12.0,-246.0,3.0,103.0,18.0,-24.0,-54.0,-1011.0,15.0
-12.0,-251.0,5.0,102.0,20.0,-24.0,-69.0,-1010.0,19.0
-12.0,-246.0,4.0,103.0,21.0,-26.0,-57.0,-1009.0,17.0
-18.0,-245.0,6.0,104.0,21.0,-23.0,-58.0,-1006.0,22.0
-16.0,-243.0,2.0,104.0,21.0,-24.0,-59.0,-1008.0,13.0
-12.0,-246.0,3.0,103.0,22.0,-25.0,-58.0,-1009.0,16.0
-12.0,-250.0,2.0,103.0,21.0,-24.0,-63.0,-1004.0,15.0
-14.0,-244.0,3.0,102.0,19.0,-23.0,-58.0,-1007.0,18.0
-10.0,-248.0,3.0,101.0,17.0,-25.0,-60.0,-1001.0,20.0
-13.0,-249.0,2.0,101.0,17.0,-25.0,-51.0,-1006.0,25.0
-15.0,-246.0,3.0,102.0,17.0,-26.0,-58.0,-1000.0,25.0
-13.0,-249.0,8.0,101.0,20.0,-27.0,-57.0,-996.0,24.0
-11.0,-250.0,6.0,99.0,22.0,-30.0,-56.0,-1003.0,23.0
-10.0,-247.0,4.0,96.0,27.0,-30.0,-58.0,-1004.0,27.0
-20.0,-248.0,9.0,91.0,30.0,-29.0,-59.0,-1003.0,23.0
-12.0,-246.0,0.0,86.0,31.0,-32.0,-61.0,-1006.0,25.0
-14.0,-245.0,4.0,82.0,32.0,-32.0,-65.0,-1003.0,21.0
-12.0,-247.0,6.0,77.0,29.0,-31.0,-59.0,-1006.0,22.0
-12.0,-248.0,6.0,76.0,26.0,-31.0,-61.0,-1011.0,27.0
-12.0,-248.0,7.0,76.0,22.0,-28.0,-64.0,-1009.0,20.0
-13.0,-248.0,3.0,80.0,18.0,-28.0,-58.0,-1013.0,24.0
-14.0,-248.0,4.0,83.0,15.0,-25.0,-56.0,-1010.0,25.0
-17.0,-248.0,6.0,85.0,12.0,-22.0,-58.0,-1017.0,23.0
-18.0,-249.0,3.0,91.0,13.0,-21.0,-58.0,-1021.0,22.0
-14.0,-250.0,4.0,93.0,12.0,-22.0,-62.0,-1015.0,18.0
-9.0,-255.0,1.0,93.0,13.0,-22.0,-58.0,-1011.0,24.0
-12.0,-250.0,3.0,90.0,14.0,-21.0,-59.0,-1014.0,20.0
-15.0,-249.0,5.0,87.0,15.0,-26.0,-60.0,-1009.0,29.0
-10.0,-249.0,2.0,86.0,14.0,-27.0,-60.0,-1007.0,26.0
-12.0,-246.0,4.0,84.0,15.0,-28.0,-61.0,-1010.0,24.0
-13.0,-248.0,6.0,84.0,15.0,-28.0,-58.0,-1005.0,23.0
-14.0,-248.0,5.0,84.0,15.0,-29.0,-64.0,-1005.0,27.0
-10.0,-247.0,8.0,85.0,16.0,-29.0,-59.0,-1009.0,28.0
-13.0,-243.0,6.0,88.0,17.0,-30.0,-60.0,-1011.0,27.0
-11.0,-252.0,4.0,91.0,19.0,-28.0,-59.0,-1009.0,28.0
-9.0,-247.0,6.0,95.0,22.0,-27.0,-54.0,-1015.0,28.0
-16.0,-251.0,4.0,99.0,22.0,-27.0,-62.0,-1012.0,25.0
-12.0,-248.0,5.0,102.0,21.0,-25.0,-58.0,-1008.0,26.0
-12.0,-249.0,7.0,104.0,17.0,-25.0,-55.0,-1010.0,25.0
-13.0,-246.0,6.0,105.0,13.0,-23.0,-54.0,-1012.0,23.0
-10.0,-251.0,3.0,107.0,7.0,-21.0,-53.0,-1012.0,24.0
-12.0,-249.0,5.0,107.0,2.0,-21.0,-56.0,-1004.0,21.0
-9.0,-251.0,3.0,109.0,-1.0,-23.0,-55.0,-1009.0,34.0
-9.0,-245.0,6.0,110.0,-4.0,-22.0,-55.0,-1005.0,27.0
-12.0,-247.0,6.0,110.0,-3.0,-24.0,-56.0,-1007.0,29.0
-9.0,-250.0,3.0,110.0,-3.0,-27.0,-54.0,-998.0,29.0
-11.0,-246.0,4.0,109.0,-1.0,-27.0,-52.0,-1001.0,31.0
-13.0,-245.0,8.0,106.0,2.0,-28.0,-55.0,-1001.0,33.0
-7.0,-245.0,4.0,101.0,4.0,-28.0,-54.0,-1001.0,32.0
-10.0,-245.0,3.0,96.0,5.0,-27.0,-49.0,-1004.0,26.0
-9.0,-245.0,8.0,91.0,6.0,-26.0,-48.0,-999.0,33.0
-12.0,-245.0,6.0,87.0,6.0,-25.0,-47.0,-998.0,33.0
-7.0,-246.0,7.0,83.0,7.0,-24.0,-53.0,-1004.0,31.0
-13.0,-245.0,2.0,81.0,5.0,-25.0,-49.0,-1005.0,35.0
-13.0,-248.0,9.0,80.0,4.0,-22.0,-48.0,-1002.0,35.0
-10.0,-250.0,6.0,81.0,6.0,-22.0,-48.0,-1012.0,33.0
-15.0,-248.0,6.0,82.0,5.0,-21.0,-51.0,-1005.0,32.0
-12.0,-248.0,9.0,84.0,6.0,-20.0,-46.0,-1011.0,35.0
-8.0,-248.0,5.0,82.0,7.0,-20.0,-48.0,-1008.0,24.0
-12.0,-249.0,5.0,79.0,7.0,-18.0,-52.0,-1009.0,33.0
-11.0,-248.0,2.0,76.0,8.0,-20.0,-54.0,-1012.0,26.0
-6.0,-247.0,4.0,70.0,9.0,-20.0,-44.0,-1012.0,28.0
-11.0,-248.0,9.0,68.0,8.0,-20.0,-57.0,-1009.0,22.0
-10.0,-247.0,3.0,65.0,8.0,-19.0,-49.0,-1013.0,24.0
-7.0,-251.0,7.0,65.0,8.0,-20.0,-51.0,-1010.0,28.0
-11.0,-247.0,5.0,67.0,7.0,-20.0,-49.0,-1013.0,37.0
-10.0,-246.0,5.0,71.0,8.0,-20.0,-54.0,-1010.0,30.0
-7.0,-249.0,2.0,75.0,9.0,-20.0,-48.0,-1006.0,28.0
-6.0,-249.0,7.0,81.0,10.0,-18.0,-48.0,-1011.0,32.0
-10.0,-249.0,9.0,85.0,10.0,-21.0,-56.0,-1010.0,38.0
-10.0,-248.0,8.0,85.0,11.0,-21.0,-51.0,-1001.0,29.0
-11.0,-246.0,9.0,86.0,12.0,-21.0,-53.0,-1010.0,35.0
-11.0,-248.0,9.0,85.0,11.0,-21.0,-56.0,-1003.0,35.0
-11.0,-246.0,7.0,83.0,11.0,-21.0,-54.0,-1008.0,30.0
-14.0,-247.0,5.0,81.0,11.0,-21.0,-46.0,-1008.0,31.0
-12.0,-248.0,5.0,80.0,12.0,-20.0,-57.0,-1010.0,40.0
-13.0,-248.0,11.0,81.0,15.0,-22.0,-52.0,-1010.0,37.0
-11.0,-247.0,8.0,81.0,15.0,-23.0,-50.0,-1007.0,35.0
-10.0,-252.0,9.0,82.0,17.0,-24.0,-53.0,-1009.0,41.0
-11.0,-246.0,7.0,83.0,19.0,-25.0,-52.0,-1010.0,36.0
-12.0,-249.0,10.0,84.0,22.0,-27.0,-57.0,-1014.0,39.0
-12.0,-249.0,7.0,86.0,22.0,-27.0,-52.0,-1010.0,38.0
-9.0,-249.0,7.0,88.0,22.0,-29.0,-54.0,-1010.0,37.0
-15.0,-248.0,8.0,89.0,22.0,-30.0,-50.0,-1005.0,35.0
-9.0,-248.0,7.0,90.0,20.0,-29.0,-53.0,-1002.0,33.0
-17.0,-245.0,8.0,90.0,20.0,-30.0,-56.0,-1007.0,40.0
-10.0,-244.0,9.0,89.0,18.0,-29.0,-53.0,-1007.0,41.0
-8.0,-248.0,11.0,89.0,17.0,-28.0,-50.0,-1006.0,42.0
-10.0,-247.0,10.0,88.0,13.0,-27.0,-54.0,-1003.0,41.0
-13.0,-250.0,6.0,86.0,11.0,-29.0,-58.0,-1006.0,46.0
-11.0,-250.0,14.0,83.0,9.0,-30.0,-53.0,-1006.0,44.0
-9.0,-251.0,9.0,82.0,8.0,-30.0,-54.0,-996.0,44.0
-12.0,-248.0,6.0,81.0,7.0,-29.0,-56.0,-1011.0,43.0
-9.0,-247.0,10.0,81.0,8.0,-29.0,-60.0,-1015.0,46.0
-16.0,-246.0,9.0,81.0,8.0,-26.0,-58.0,-1010.0,43.0
-13.0,-246.0,9.0,83.0,9.0,-27.0,-55.0,-1010.0,45.0
-8.0,-250.0,9.0,86.0,10.0,-27.0,-61.0,-1005.0,47.0
-11.0,-246.0,8.0,85.0,11.0,-26.0,-57.0,-1004.0,43.0
-14.0,-243.0,9.0,87.0,12.0,-27.0,-57.0,-1008.0,42.0
-6.0,-242.0,7.0,87.0,14.0,-29.0,-57.0,-1006.0,48.0
-6.0,-248.0,8.0,83.0,16.0,-28.0,-56.0,-1006.0,47.0
-13.0,-246.0,12.0,81.0,15.0,-28.0,-54.0,-1001.0,41.0
-9.0,-248.0,7.0,79.0,15.0,-30.0,-54.0,-1000.0,48.0
-9.0,-245.0,7.0,76.0,13.0,-32.0,-54.0,-1005.0,44.0
-13.0,-248.0,8.0,70.0,13.0,-31.0,-53.0,-1008.0,43.0
-8.0,-250.0,9.0,69.0,10.0,-31.0,-54.0,-1005.0,45.0
-10.0,-246.0,7.0,66.0,9.0,-29.0,-57.0,-1000.0,42.0
-10.0,-244.0,13.0,65.0,7.0,-28.0,-54.0,-1004.0,47.0
-8.0,-248.0,6.0,63.0,5.0,-29.0,-48.0,-1006.0,51.0
-12.0,-246.0,12.0,63.0,5.0,-32.0,-53.0,-1013.0,46.0
-8.0,-248.0,5.0,62.0,4.0,-31.0,-57.0,-1009.0,49.0
-12.0,-248.0,8.0,60.0,6.0,-31.0,-48.0,-1008.0,42.0
-6.0,-252.0,6.0,59.0,5.0,-30.0,-51.0,-1005.0,40.0
-8.0,-247.0,9.0,58.0,5.0,-32.0,-55.0,-1006.0,45.0
-9.0,-248.0,7.0,56.0,4.0,-32.0,-50.0,-1006.0,42.0
-11.0,-247.0,9.0,57.0,2.0,-33.0,-55.0,-1009.0,44.0
-12.0,-248.0,13.0,55.0,1.0,-34.0,-53.0,-1011.0,44.0
-6.0,-248.0,10.0,56.0,0.0,-34.0,-51.0,-1012.0,43.0
-11.0,-250.0,8.0,55.0,0.0,-36.0,-52.0,-1010.0,44.0
-8.0,-250.0,10.0,54.0,-1.0,-37.0,-52.0,-1009.0,43.0
-7.0,-249.0,11.0,51.0,-1.0,-37.0,-49.0,-1007.0,45.0
-12.0,-240.0,9.0,49.0,-2.0,-36.0,-54.0,-1003.0,43.0
-12.0,-249.0,14.0,45.0,-1.0,-38.0,-44.0,-1009.0,47.0
-10.0,-249.0,13.0,40.0,-1.0,-35.0,-42.0,-1004.0,53.0
-7.0,-249.0,10.0,35.0,2.0,-38.0,-47.0,-1004.0,48.0
-7.0,-246.0,9.0,31.0,2.0,-38.0,-45.0,-1001.0,52.0
-8.0,-246.0,8.0,27.0,2.0,-38.0,-40.0,-1004.0,43.0
-11.0,-245.0,6.0,22.0,3.0,-35.0,-37.0,-1002.0,46.0
-6.0,-247.0,7.0,20.0,4.0,-36.0,-43.0,-1003.0,40.0
-6.0,-250.0,7.0,15.0,5.0,-36.0,-36.0,-1004.0,44.0
-7.0,-249.0,9.0,11.0,5.0,-34.0,-39.0,-1008.0,40.0
-4.0,-247.0,7.0,8.0,7.0,-33.0,-37.0,-1012.0,38.0
-7.0,-245.0,12.0,7.0,9.0,-32.0,-40.0,-1014.0,48.0
-7.0,-243.0,8.0,6.0,9.0,-31.0,-39.0,-1005.0,42.0
-4.0,-248.0,7.0,5.0,12.0,-29.0,-35.0,-1006.0,42.0
-6.0,-247.0,6.0,4.0,14.0,-29.0,-35.0,-1006.0,46.0
-10.0,-244.0,8.0,0.0,14.0,-29.0,-39.0,-1001.0,43.0
-4.0,-247.0,6.0,-4.0,14.0,-26.0,-36.0,-1001.0,46.0
-7.0,-249.0,8.0,-10.0,14.0,-25.0,-40.0,-1001.0,45.0
-10.0,-245.0,10.0,-17.0,15.0,-27.0,-39.0,-1005.0,40.0
-9.0,-247.0,9.0,-25.0,14.0,-26.0,-37.0,-1002.0,48.0
-10.0,-245.0,8.0,-35.0,13.0,-27.0,-38.0,-1009.0,47.0
-6.0,-252.0,7.0,-44.0,11.0,-31.0,-40.0,-996.0,50.0
-8.0,-245.0,10.0,-52.0,11.0,-32.0,-45.0,-1006.0,36.0
-7.0,-246.0,9.0,-57.0,11.0,-35.0,-38.0,-1004.0,42.0
-7.0,-245.0,7.0,-61.0,14.0,-37.0,-43.0,-1006.0,38.0
-9.0,-244.0,9.0,-66.0,18.0,-39.0,-44.0,-1000.0,41.0
-5.0,-249.0,7.0,-69.0,22.0,-43.0,-38.0,-1004.0,42.0
-11.0,-243.0,10.0,-67.0,25.0,-44.0,-41.0,-1003.0,39.0
-11.0,-250.0,1.0,-68.0,26.0,-45.0,-41.0,-1003.0,37.0
-8.0,-246.0,6.0,-69.0,27.0,-47.0,-39.0,-1008.0,39.0
-11.0,-248.0,8.0,-69.0,28.0,-47.0,-36.0,-1009.0,29.0
-4.0,-252.0,4.0,-68.0,26.0,-46.0,-37.0,-1017.0,33.0
-5.0,-251.0,5.0,-66.0,21.0,-46.0,-35.0,-1020.0,28.0
-4.0,-252.0,8.0,-62.0,19.0,-45.0,-38.0,-1014.0,28.0
-6.0,-250.0,8.0,-57.0,19.0,-44.0,-35.0,-1025.0,30.0
-6.0,-252.0,5.0,-50.0,20.0,-43.0,-38.0,-1030.0,28.0
-9.0,-253.0,2.0,-42.0,21.0,-45.0,-50.0,-1038.0,34.0
-8.0,-249.0,7.0,-39.0,20.0,-48.0,-51.0,-1030.0,32.0
-12.0,-251.0,8.0,-35.0,22.0,-50.0,-54.0,-1021.0,30.0
-10.0,-248.0,8.0,-35.0,24.0,-48.0,-57.0,-1012.0,25.0
-13.0,-247.0,8.0,-38.0,24.0,-51.0,-58.0,-1010.0,30.0
-9.0,-247.0,6.0,-44.0,26.0,-53.0,-53.0,-1006.0,31.0
-6.0,-244.0,7.0,-48.0,30.0,-55.0,-54.0,-998.0,28.0
-15.0,-244.0,6.0,-53.0,32.0,-55.0,-56.0,-997.0,36.0
-9.0,-243.0,3.0,-58.0,33.0,-55.0,-44.0,-992.0,31.0
-11.0,-242.0,5.0,-61.0,38.0,-55.0,-53.0,-997.0,35.0
-11.0,-242.0,6.0,-63.0,42.0,-53.0,-43.0,-998.0,29.0
-4.0,-245.0,5.0,-64.0,46.0,-50.0,-43.0,-996.0,30.0
-7.0,-245.0,4.0,-63.0,48.0,-50.0,-36.0,-998.0,26.0
-5.0,-246.0,3.0,-65.0,49.0,-48.0,-40.0,-1000.0,24.0
-8.0,-245.0,3.0,-66.0,47.0,-43.0,-39.0,-1003.0,25.0
-9.0,-245.0,4.0,-67.0,40.0,-41.0,-39.0,-1010.0,20.0
-6.0,-249.0,5.0,-72.0,30.0,-37.0,-34.0,-1007.0,15.0
-5.0,-245.0,3.0,-78.0,18.0,-35.0,-39.0,-1004.0,10.0
-8.0,-240.0,-3.0,-80.0,12.0,-34.0,-34.0,-1005.0,13.0
-4.0,-249.0,-1.0,-79.0,9.0,-32.0,-35.0,-1006.0,10.0
-6.0,-248.0,1.0,-74.0,9.0,-30.0,-38.0,-1008.0,6.0
-5.0,-249.0,0.0,-69.0,12.0,-33.0,-37.0,-1008.0,9.0
-7.0,-245.0,-1.0,-63.0,17.0,-33.0,-42.0,-1007.0,6.0
-6.0,-246.0,-3.0,-58.0,20.0,-33.0,-42.0,-1005.0,6.0
-5.0,-247.0,-2.0,-54.0,21.0,-35.0,-41.0,-1009.0,8.0
-8.0,-251.0,-1.0,-52.0,23.0,-37.0,-40.0,-1007.0,3.0
-9.0,-249.0,0.0,-49.0,23.0,-39.0,-37.0,-1004.0,6.0
-8.0,-248.0,4.0,-45.0,27.0,-39.0,-41.0,-1009.0,11.0
-5.0,-250.0,4.0,-39.0,30.0,-39.0,-42.0,-1001.0,12.0
-5.0,-251.0,4.0,-35.0,33.0,-40.0,-38.0,-1010.0,10.0
-7.0,-248.0,1.0,-29.0,32.0,-39.0,-41.0,-1010.0,9.0
-6.0,-249.0,0.0,-26.0,30.0,-39.0,-39.0,-1010.0,8.0
-5.0,-248.0,2.0,-25.0,27.0,-38.0,-41.0,-1015.0,4.0
-6.0,-247.0,1.0,-27.0,27.0,-39.0,-38.0,-1011.0,16.0
-7.0,-249.0,0.0,-32.0,27.0,-39.0,-36.0,-1011.0,13.0
-5.0,-248.0,1.0,-37.0,27.0,-39.0,-35.0,-1010.0,13.0
-7.0,-246.0,0.0,-42.0,31.0,-40.0,-36.0,-1012.0,13.0
-5.0,-251.0,1.0,-44.0,33.0,-40.0,-32.0,-1014.0,5.0
-3.0,-252.0,3.0,-48.0,34.0,-39.0,-34.0,-1012.0,-1.0
0.0,-246.0,-5.0,-54.0,33.0,-38.0,-29.0,-1015.0,4.0
-8.0,-250.0,-5.0,-57.0,31.0,-38.0,-37.0,-1016.0,-1.0
-5.0,-249.0,-4.0,-57.0,25.0,-36.0,-30.0,-1018.0,0.0
-3.0,-252.0,0.0,-55.0,19.0,-35.0,-20.0,-1016.0,-9.0
-5.0,-252.0,-5.0,-49.0,20.0,-37.0,-22.0,-1025.0,-9.0
-5.0,-250.0,-5.0,-42.0,23.0,-40.0,-29.0,-1020.0,-5.0
-6.0,-248.0,-6.0,-34.0,21.0,-42.0,-26.0,-1021.0,-4.0
-4.0,-249.0,-4.0,-27.0,18.0,-43.0,-26.0,-1013.0,-6.0
-7.0,-253.0,0.0,-23.0,19.0,-44.0,-27.0,-1015.0,-5.0
-7.0,-252.0,-5.0,-21.0,21.0,-47.0,-33.0,-1010.0,-5.0
-4.0,-251.0,-8.0,-21.0,20.0,-50.0,-35.0,-1008.0,-5.0
-6.0,-245.0,-8.0,-22.0,17.0,-53.0,-36.0,-1009.0,-5.0
-1.0,-250.0,-2.0,-24.0,14.0,-55.0,-38.0,-1008.0,-10.0
-5.0,-247.0,-4.0,-25.0,16.0,-59.0,-33.0,-1004.0,-6.0
-5.0,-247.0,-5.0,-29.0,14.0,-58.0,-34.0,-1006.0,-6.0
-9.0,-249.0,-3.0,-31.0,12.0,-58.0,-30.0,-1008.0,-3.0
-8.0,-248.0,-4.0,-28.0,11.0,-61.0,-37.0,-1005.0,-4.0
-5.0,-245.0,-4.0,-27.0,11.0,-61.0,-33.0,-1012.0,-1.0
-7.0,-248.0,-4.0,-23.0,11.0,-62.0,-35.0,-1005.0,-6.0
-5.0,-247.0,-3.0,-20.0,13.0,-62.0,-29.0,-1012.0,-3.0
-3.0,-249.0,-2.0,-17.0,13.0,-62.0,-33.0,-1009.0,0.0
-5.0,-246.0,1.0,-15.0,10.0,-60.0,-31.0,-1010.0,-2.0
-6.0,-246.0,-7.0,-11.0,10.0,-62.0,-30.0,-1009.0,-1.0
-5.0,-248.0,-2.0,-9.0,12.0,-61.0,-27.0,-1011.0,0.0
-3.0,-248.0,-6.0,-9.0,13.0,-60.0,-28.0,-1005.0,-6.0
-4.0,-248.0,-5.0,-9.0,14.0,-61.0,-27.0,-1004.0,0.0
-4.0,-248.0,-6.0,-8.0,14.0,-61.0,-25.0,-1008.0,-5.0
-1.0,-247.0,-6.0,-7.0,13.0,-61.0,-25.0,-1008.0,-1.0
-4.0,-248.0,-6.0,-11.0,17.0,-61.0,-20.0,-1005.0,-4.0
-2.0,-249.0,-2.0,-13.0,20.0,-59.0,-17.0,-1005.0,-3.0
-7.0,-242.0,-4.0,-13.0,24.0,-59.0,-21.0,-1004.0,-9.0
-4.0,-246.0,-7.0,-12.0,25.0,-59.0,-23.0,-1006.0,-10.0
-5.0,-251.0,-3.0,-13.0,22.0,-58.0,-25.0,-1004.0,-11.0
-5.0,-245.0,-4.0,-14.0,21.0,-57.0,-23.0,-1005.0,-4.0
-3.0,-250.0,-5.0,-12.0,23.0,-55.0,-27.0,-1010.0,-2.0
-6.0,-247.0,-3.0,-9.0,25.0,-55.0,-24.0,-1013.0,-11.0
-8.0,-246.0,-5.0,-8.0,26.0,-53.0,-26.0,-1009.0,-7.0
-4.0,-249.0,-5.0,-6.0,28.0,-54.0,-28.0,-1008.0,-12.0
-5.0,-246.0,-6.0,-5.0,30.0,-52.0,-25.0,-1009.0,-10.0
-4.0,-248.0,-4.0,-5.0,31.0,-50.0,-28.0,-1010.0,-8.0
-3.0,-248.0,-5.0,-6.0,32.0,-51.0,-19.0,-1017.0,-2.0
-4.0,-248.0,-7.0,-6.0,33.0,-49.0,-27.0,-1010.0,-14.0
-1.0,-248.0,-4.0,-7.0,37.0,-49.0,-23.0,-1008.0,-12.0
0.0,-245.0,-7.0,-9.0,33.0,-47.0,-23.0,-1012.0,-11.0
-2.0,-252.0,-4.0,-7.0,34.0,-44.0,-17.0,-1008.0,-13.0
-3.0,-248.0,-7.0,-8.0,32.0,-45.0,-19.0,-1013.0,-12.0
-4.0,-247.0,-4.0,-6.0,31.0,-47.0,-13.0,-1010.0,-12.0
-4.0,-251.0,-6.0,-7.0,32.0,-46.0,-16.0,-1008.0,-16.0
-2.0,-247.0,-8.0,-6.0,32.0,-48.0,-15.0,-1010.0,-11.0
-2.0,-247.0,-4.0,-6.0,30.0,-48.0,-14.0,-1012.0,-8.0
-2.0,-248.0,0.0,-7.0,28.0,-49.0,-16.0,-1012.0,-10.0
-3.0,-250.0,-1.0,-7.0,27.0,-49.0,-16.0,-1012.0,-12.0
-1.0,-250.0,-6.0,-7.0,31.0,-52.0,-16.0,-1009.0,-7.0
-2.0,-254.0,-3.0,-5.0,32.0,-52.0,-16.0,-1015.0,-10.0
-2.0,-249.0,-7.0,-3.0,34.0,-54.0,-16.0,-1009.0,-12.0
-2.0,-250.0,-7.0,-2.0,38.0,-54.0,-17.0,-1011.0,-12.0
-3.0,-249.0,-5.0,-4.0,33.0,-55.0,-14.0,-1011.0,-15.0
-4.0,-251.0,-6.0,-5.0,26.0,-55.0,-20.0,-1008.0,-17.0
-4.0,-250.0,-8.0,-6.0,21.0,-56.0,-19.0,-1008.0,-23.0
-4.0,-251.0,-8.0,-5.0,21.0,-57.0,-13.0,-1005.0,-22.0
-2.0,-252.0,-8.0,-2.0,20.0,-57.0,-14.0,-1009.0,-19.0
-1.0,-248.0,-11.0,0.0,20.0,-57.0,-12.0,-1014.0,-27.0
-1.0,-251.0,-6.0,2.0,19.0,-57.0,-14.0,-1019.0,-17.0
-1.0,-248.0,-7.0,3.0,19.0,-61.0,-12.0,-1009.0,-22.0
0.0,-254.0,-11.0,5.0,19.0,-61.0,-9.0,-1011.0,-17.0
-2.0,-247.0,-5.0,5.0,20.0,-62.0,-11.0,-1007.0,-22.0
-1.0,-250.0,-9.0,7.0,21.0,-65.0,-6.0,-1015.0,-20.0
-2.0,-250.0,-8.0,8.0,21.0,-66.0,-11.0,-1006.0,-24.0
-1.0,-249.0,-6.0,7.0,21.0,-67.0,-13.0,-1014.0,-15.0
-2.0,-246.0,-7.0,10.0,20.0,-68.0,-10.0,-1010.0,-16.0
-2.0,-248.0,-8.0,10.0,21.0,-66.0,-15.0,-1010.0,-18.0
0.0,-248.0,-7.0,9.0,20.0,-66.0,-12.0,-1010.0,-23.0
-3.0,-245.0,-7.0,10.0,20.0,-68.0,-7.0,-1006.0,-20.0
-2.0,-249.0,-7.0,11.0,21.0,-66.0,-7.0,-1005.0,-15.0
-3.0,-248.0,-8.0,11.0,20.0,-65.0,-6.0,-1006.0,-23.0
-1.0,-247.0,-11.0,10.0,20.0,-63.0,-13.0,-1007.0,-18.0
-4.0,-247.0,-5.0,6.0,18.0,-62.0,-10.0,-1009.0,-15.0
-2.0,-246.0,-7.0,5.0,18.0,-63.0,-8.0,-1012.0,-23.0
-1.0,-248.0,-7.0,2.0,15.0,-62.0,-14.0,-1012.0,-17.0
-4.0,-248.0,-7.0,0.0,13.0,-62.0,-13.0,-1006.0,-21.0
-4.0,-244.0,-7.0,-3.0,12.0,-66.0,-11.0,-1007.0,-18.0
-1.0,-249.0,-6.0,-6.0,12.0,-66.0,-12.0,-1008.0,-21.0
-3.0,-248.0,-7.0,-6.0,13.0,-66.0,-16.0,-1008.0,-18.0
-1.0,-246.0,-6.0,-3.0,15.0,-65.0,-13.0,-1008.0,-28.0
-3.0,-247.0,-9.0,0.0,13.0,-67.0,-15.0,-1006.0,-21.0
-2.0,-244.0,-10.0,4.0,15.0,-69.0,-13.0,-1006.0,-23.0
-5.0,-246.0,-9.0,12.0,20.0,-71.0,-13.0,-1004.0,-31.0
-2.0,-248.0,-8.0,21.0,23.0,-72.0,-16.0,-1009.0,-30.0
-2.0,-248.0,-8.0,29.0,21.0,-74.0,-10.0,-1011.0,-27.0
0.0,-249.0,-11.0,36.0,21.0,-75.0,-13.0,-1014.0,-29.0
-3.0,-249.0,-7.0,41.0,19.0,-76.0,-7.0,-1012.0,-28.0
1.0,-246.0,-11.0,46.0,18.0,-75.0,-6.0,-1016.0,-26.0
-4.0,-251.0,-11.0,51.0,19.0,-76.0,-5.0,-1016.0,-31.0
0.0,-252.0,-8.0,55.0,14.0,-75.0,-5.0,-1017.0,-28.0
1.0,-253.0,-10.0,56.0,12.0,-76.0,-1.0,-1018.0,-25.0
-2.0,-251.0,-8.0,56.0,11.0,-76.0,-4.0,-1016.0,-26.0
0.0,-254.0,-8.0,55.0,10.0,-77.0,-4.0,-1016.0,-27.0
-1.0,-249.0,-9.0,51.0,9.0,-77.0,-4.0,-1013.0,-28.0
-2.0,-248.0,-7.0,47.0,10.0,-79.0,-2.0,-1015.0,-33.0
-2.0,-248.0,-8.0,43.0,12.0,-80.0,-2.0,-1014.0,-24.0
-2.0,-247.0,-8.0,42.0,11.0,-82.0,-4.0,-1004.0,-19.0
-1.0,-248.0,-9.0,41.0,11.0,-83.0,-7.0,-1000.0,-24.0
-1.0,-248.0,-8.0,43.0,11.0,-81.0,-10.0,-1008.0,-22.0
1.0,-245.0,-10.0,48.0,12.0,-81.0,-8.0,-1000.0,-26.0
-1.0,-246.0,-7.0,53.0,13.0,-82.0,-6.0,-1003.0,-27.0
-1.0,-247.0,-10.0,59.0,16.0,-83.0,-2.0,-1011.0,-23.0
-1.0,-245.0,-10.0,62.0,18.0,-82.0,-3.0,-1008.0,-26.0
0.0,-253.0,-7.0,65.0,19.0,-83.0,-2.0,-1006.0,-31.0
1.0,-250.0,-8.0,69.0,22.0,-82.0,0.0,-1011.0,-34.0
0.0,-248.0,-8.0,71.0,23.0,-80.0,3.0,-1012.0,-31.0
-1.0,-246.0,-10.0,75.0,21.0,-79.0,3.0,-1008.0,-32.0
0.0,-249.0,-9.0,78.0,20.0,-78.0,5.0,-1011.0,-32.0
2.0,-249.0,-10.0,79.0,19.0,-79.0,2.0,-1011.0,-29.0
3.0,-247.0,-8.0,81.0,18.0,-79.0,3.0,-1011.0,-30.0
-2.0,-245.0,-10.0,81.0,16.0,-79.0,6.0,-1007.0,-30.0
3.0,-246.0,-10.0,81.0,16.0,-79.0,1.0,-1010.0,-29.0
4.0,-250.0,-7.0,78.0,15.0,-81.0,3.0,-1009.0,-28.0
0.0,-248.0,-9.0,77.0,12.0,-83.0,2.0,-1007.0,-23.0
1.0,-249.0,-7.0,73.0,11.0,-85.0,6.0,-1010.0,-22.0
1.0,-249.0,-9.0,72.0,9.0,-86.0,1.0,-1011.0,-20.0
-1.0,-246.0,-8.0,72.0,8.0,-88.0,0.0,-1005.0,-20.0
3.0,-249.0,-6.0,71.0,7.0,-87.0,4.0,-1012.0,-22.0
4.0,-250.0,-7.0,72.0,5.0,-87.0,2.0,-1010.0,-23.0
5.0,-249.0,-8.0,73.0,3.0,-88.0,1.0,-1006.0,-23.0
3.0,-249.0,-8.0,73.0,0.0,-87.0,1.0,-1008.0,-20.0
1.0,-249.0,-7.0,74.0,-1.0,-85.0,6.0,-1009.0,-25.0
3.0,-247.0,-6.0,75.0,-1.0,-84.0,11.0,-1013.0,-21.0
0.0,-248.0,-8.0,78.0,-1.0,-84.0,6.0,-1015.0,-19.0
3.0,-250.0,-13.0,81.0,0.0,-84.0,7.0,-1011.0,-22.0
6.0,-248.0,-8.0,82.0,1.0,-84.0,7.0,-1014.0,-28.0
4.0,-248.0,-7.0,83.0,4.0,-87.0,8.0,-1014.0,-28.0
6.0,-247.0,-8.0,82.0,5.0,-87.0,9.0,-1011.0,-25.0
1.0,-247.0,-9.0,81.0,10.0,-86.0,8.0,-1007.0,-17.0
1.0,-246.0,-5.0,79.0,13.0,-87.0,14.0,-1011.0,-18.0
4.0,-250.0,-6.0,77.0,16.0,-87.0,15.0,-1011.0,-18.0
6.0,-248.0,-10.0,74.0,18.0,-85.0,14.0,-1012.0,-25.0
6.0,-250.0,-7.0,71.0,19.0,-85.0,16.0,-1011.0,-17.0
5.0,-249.0,-8.0,68.0,19.0,-83.0,25.0,-1014.0,-20.0
7.0,-250.0,-12.0,65.0,18.0,-83.0,20.0,-1009.0,-22.0
9.0,-251.0,-3.0,65.0,14.0,-81.0,25.0,-1017.0,-21.0
6.0,-252.0,-8.0,66.0,12.0,-83.0,24.0,-1010.0,-28.0
10.0,-251.0,-7.0,71.0,10.0,-80.0,15.0,-1011.0,-22.0
11.0,-250.0,-9.0,77.0,9.0,-79.0,18.0,-1010.0,-22.0
6.0,-246.0,-10.0,81.0,6.0,-81.0,19.0,-1011.0,-28.0
7.0,-248.0,-9.0,85.0,5.0,-84.0,24.0,-1006.0,-23.0
2.0,-248.0,-10.0,87.0,5.0,-84.0,14.0,-1010.0,-23.0
6.0,-248.0,-7.0,88.0,4.0,-85.0,16.0,-1011.0,-20.0
7.0,-249.0,-7.0,88.0,6.0,-88.0,12.0,-1012.0,-23.0
5.0,-247.0,-7.0,86.0,5.0,-89.0,16.0,-1008.0,-19.0
3.0,-250.0,-4.0,85.0,6.0,-91.0,14.0,-1005.0,-17.0
3.0,-250.0,-9.0,84.0,7.0,-91.0,17.0,-1008.0,-17.0
10.0,-248.0,-8.0,82.0,7.0,-92.0,15.0,-1008.0,-17.0
2.0,-244.0,-9.0,82.0,7.0,-93.0,20.0,-1006.0,-12.0
3.0,-245.0,-8.0,82.0,6.0,-94.0,16.0,-1008.0,-17.0
5.0,-250.0,-6.0,84.0,6.0,-92.0,19.0,-1009.0,-15.0
10.0,-251.0,-6.0,86.0,5.0,-94.0,24.0,-1011.0,-13.0
6.0,-250.0,-5.0,88.0,6.0,-93.0,22.0,-1011.0,-18.0
11.0,-253.0,-9.0,89.0,4.0,-94.0,25.0,-1013.0,-20.0
11.0,-250.0,-8.0,90.0,6.0,-93.0,23.0,-1008.0,-13.0
10.0,-249.0,-7.0,92.0,7.0,-94.0,24.0,-1015.0,-16.0
4.0,-254.0,-10.0,92.0,5.0,-93.0,26.0,-1010.0,-18.0
8.0,-250.0,-7.0,93.0,5.0,-94.0,25.0,-1011.0,-18.0
8.0,-247.0,-8.0,93.0,5.0,-94.0,24.0,-1012.0,-18.0
7.0,-251.0,-5.0,93.0,5.0,-95.0,29.0,-1010.0,-18.0
13.0,-249.0,-7.0,93.0,4.0,-97.0,28.0,-1008.0,-16.0
6.0,-246.0,-9.0,93.0,3.0,-99.0,31.0,-1013.0,-15.0
7.0,-248.0,-4.0,95.0,4.0,-100.0,28.0,-1016.0,-15.0
9.0,-249.0,-3.0,95.0,4.0,-100.0,27.0,-1007.0,-17.0
8.0,-250.0,-5.0,94.0,5.0,-100.0,27.0,-1015.0,-20.0
9.0,-250.0,-9.0,94.0,6.0,-101.0,31.0,-1015.0,-14.0
11.0,-248.0,-1.0,95.0,7.0,-102.0,30.0,-1012.0,-10.0
10.0,-251.0,-8.0,96.0,7.0,-105.0,32.0,-1010.0,-9.0
9.0,-249.0,-8.0,97.0,6.0,-105.0,26.0,-1009.0,-15.0
9.0,-249.0,-8.0,97.0,7.0,-105.0,29.0,-1010.0,-14.0
10.0,-250.0,-3.0,98.0,7.0,-105.0,29.0,-1012.0,-8.0
8.0,-249.0,-5.0,95.0,7.0,-104.0,34.0,-1014.0,-7.0
10.0,-250.0,-6.0,93.0,8.0,-103.0,28.0,-1013.0,-6.0
8.0,-247.0,-8.0,93.0,9.0,-103.0,27.0,-1012.0,-7.0
8.0,-246.0,-6.0,92.0,11.0,-103.0,28.0,-1013.0,-12.0
10.0,-249.0,-8.0,92.0,15.0,-105.0,30.0,-1013.0,-8.0
12.0,-250.0,-5.0,92.0,16.0,-104.0,35.0,-1012.0,-5.0
10.0,-247.0,-5.0,93.0,18.0,-104.0,35.0,-1010.0,-10.0
9.0,-248.0,-5.0,96.0,18.0,-106.0,31.0,-1019.0,-8.0
10.0,-246.0,-6.0,98.0,19.0,-106.0,37.0,-1011.0,-10.0
10.0,-247.0,-4.0,101.0,18.0,-107.0,33.0,-1011.0,-10.0
11.0,-248.0,-3.0,104.0,17.0,-107.0,34.0,-1006.0,-11.0
11.0,-248.0,-6.0,106.0,16.0,-109.0,37.0,-1009.0,-10.0
10.0,-250.0,-3.0,108.0,16.0,-107.0,40.0,-1007.0,-3.0
10.0,-249.0,-3.0,110.0,14.0,-109.0,34.0,-1005.0,-7.0
13.0,-251.0,-5.0,112.0,12.0,-108.0,31.0,-1005.0,-12.0
12.0,-247.0,-5.0,112.0,12.0,-107.0,32.0,-1008.0,-12.0
12.0,-251.0,-8.0,110.0,10.0,-104.0,33.0,-1009.0,-7.0
12.0,-249.0,-4.0,109.0,9.0,-104.0,32.0,-1008.0,-5.0
13.0,-250.0,-2.0,105.0,10.0,-104.0,38.0,-1010.0,-2.0
12.0,-246.0,-5.0,105.0,12.0,-104.0,34.0,-1007.0,-6.0
11.0,-249.0,-4.0,105.0,12.0,-103.0,39.0,-1010.0,0.0
12.0,-246.0,-5.0,103.0,13.0,-104.0,38.0,-1009.0,-6.0
12.0,-249.0,-6.0,104.0,13.0,-103.0,42.0,-1009.0,-3.0
13.0,-249.0,-5.0,108.0,14.0,-104.0,41.0,-1011.0,-3.0
12.0,-248.0,-6.0,108.0,13.0,-104.0,42.0,-1010.0,-3.0
11.0,-248.0,-4.0,111.0,14.0,-103.0,44.0,-1006.0,-7.0
15.0,-247.0,-3.0,113.0,14.0,-106.0,47.0,-1013.0,-6.0
13.0,-244.0,-6.0,113.0,14.0,-105.0,47.0,-1010.0,-13.0
19.0,-251.0,-4.0,113.0,15.0,-106.0,46.0,-1004.0,-8.0
14.0,-249.0,-3.0,114.0,14.0,-107.0,46.0,-1011.0,-12.0
15.0,-249.0,-2.0,115.0,15.0,-105.0,48.0,-1010.0,-5.0
14.0,-248.0,-5.0,116.0,16.0,-105.0,49.0,-1012.0,-7.0
18.0,-247.0,-7.0,116.0,16.0,-103.0,50.0,-1005.0,-10.0
15.0,-248.0,-2.0,116.0,18.0,-105.0,55.0,-1010.0,-1.0
14.0,-245.0,-4.0,115.0,16.0,-104.0,50.0,-1009.0,-10.0
17.0,-249.0,-3.0,114.0,16.0,-105.0,54.0,-1001.0,-5.0
11.0,-246.0,-5.0,113.0,14.0,-109.0,55.0,-1002.0,-2.0
15.0,-247.0,-4.0,110.0,13.0,-108.0,50.0,-1001.0,1.0
18.0,-242.0,-7.0,109.0,10.0,-110.0,48.0,-1001.0,-1.0
15.0,-245.0,-2.0,109.0,8.0,-112.0,45.0,-1002.0,3.0
15.0,-244.0,-4.0,107.0,8.0,-113.0,51.0,-996.0,1.0
16.0,-243.0,-5.0,106.0,9.0,-112.0,47.0,-995.0,-5.0
11.0,-247.0,-4.0,105.0,10.0,-112.0,49.0,-999.0,3.0
13.0,-245.0,-2.0,104.0,12.0,-113.0,51.0,-1001.0,0.0
16.0,-246.0,-2.0,104.0,14.0,-112.0,48.0,-1007.0,4.0
16.0,-246.0,-2.0,103.0,13.0,-115.0,49.0,-1008.0,2.0
17.0,-250.0,0.0,104.0,13.0,-115.0,53.0,-1006.0,0.0
19.0,-247.0,-4.0,106.0,11.0,-115.0,62.0,-1007.0,0.0
18.0,-247.0,-1.0,108.0,9.0,-114.0,56.0,-1008.0,1.0
14.0,-246.0,-3.0,115.0,4.0,-115.0,66.0,-1011.0,2.0
18.0,-245.0,-1.0,122.0,0.0,-117.0,66.0,-1019.0,-1.0
16.0,-248.0,-5.0,127.0,-5.0,-119.0,66.0,-1015.0,5.0
21.0,-254.0,0.0,129.0,-8.0,-118.0,64.0,-1012.0,4.0
19.0,-249.0,0.0,129.0,-9.0,-122.0,63.0,-1014.0,7.0
17.0,-251.0,-2.0,131.0,-10.0,-125.0,59.0,-1015.0,2.0
17.0,-249.0,0.0,127.0,-11.0,-129.0,55.0,-1012.0,3.0
12.0,-249.0,0.0,124.0,-11.0,-135.0,58.0,-1008.0,8.0
20.0,-247.0,3.0,123.0,-12.0,-138.0,55.0,-1010.0,11.0
18.0,-245.0,-3.0,123.0,-12.0,-141.0,56.0,-1003.0,8.0
15.0,-250.0,0.0,124.0,-10.0,-143.0,59.0,-1010.0,14.0
22.0,-248.0,0.0,122.0,-11.0,-142.0,57.0,-1004.0,12.0
18.0,-247.0,1.0,122.0,-11.0,-142.0,56.0,-1005.0,17.0
13.0,-246.0,-2.0,121.0,-8.0,-141.0,57.0,-1001.0,5.0
16.0,-248.0,2.0,120.0,-5.0,-140.0,61.0,-1008.0,13.0
16.0,-248.0,1.0,119.0,-5.0,-139.0,57.0,-1006.0,18.0
16.0,-248.0,4.0,122.0,-5.0,-138.0,55.0,-1007.0,17.0
17.0,-249.0,7.0,124.0,-8.0,-137.0,53.0,-1011.0,13.0
20.0,-247.0,0.0,126.0,-8.0,-136.0,57.0,-1007.0,13.0
18.0,-248.0,2.0,125.0,-13.0,-136.0,60.0,-1014.0,17.0
15.0,-245.0,1.0,124.0,-16.0,-136.0,62.0,-1013.0,13.0
16.0,-248.0,8.0,124.0,-20.0,-136.0,65.0,-1010.0,18.0
18.0,-250.0,3.0,127.0,-27.0,-136.0,63.0,-1015.0,26.0
19.0,-250.0,2.0,134.0,-33.0,-134.0,66.0,-1011.0,20.0
20.0,-249.0,4.0,137.0,-38.0,-137.0,73.0,-1002.0,17.0
24.0,-250.0,0.0,134.0,-41.0,-141.0,75.0,-1007.0,17.0
22.0,-248.0,2.0,133.0,-44.0,-145.0,70.0,-1002.0,13.0
19.0,-245.0,-2.0,130.0,-48.0,-149.0,79.0,-1002.0,18.0
23.0,-248.0,3.0,126.0,-47.0,-153.0,74.0,-997.0,22.0
23.0,-243.0,0.0,123.0,-46.0,-156.0,75.0,-996.0,17.0
20.0,-244.0,5.0,123.0,-40.0,-156.0,81.0,-1006.0,16.0
23.0,-248.0,3.0,122.0,-39.0,-156.0,78.0,-998.0,21.0
20.0,-248.0,0.0,123.0,-35.0,-159.0,80.0,-1000.0,20.0
21.0,-246.0,5.0,125.0,-31.0,-159.0,79.0,-999.0,25.0
23.0,-248.0,6.0,126.0,-31.0,-159.0,81.0,-1007.0,25.0
24.0,-251.0,4.0,130.0,-30.0,-156.0,84.0,-1007.0,29.0
24.0,-246.0,0.0,136.0,-30.0,-154.0,84.0,-1011.0,28.0
23.0,-246.0,2.0,140.0,-31.0,-154.0,78.0,-1010.0,24.0
23.0,-244.0,2.0,142.0,-32.0,-154.0,85.0,-1010.0,24.0
26.0,-250.0,5.0,142.0,-33.0,-156.0,79.0,-1009.0,30.0
24.0,-249.0,4.0,139.0,-34.0,-156.0,81.0,-1010.0,27.0
22.0,-248.0,1.0,134.0,-36.0,-157.0,80.0,-1008.0,19.0
19.0,-246.0,0.0,129.0,-38.0,-156.0,79.0,-999.0,24.0
21.0,-247.0,2.0,121.0,-38.0,-158.0,81.0,-1004.0,23.0
25.0,-246.0,4.0,112.0,-38.0,-156.0,83.0,-1000.0,23.0
23.0,-246.0,3.0,105.0,-38.0,-157.0,83.0,-997.0,23.0
23.0,-247.0,4.0,100.0,-39.0,-159.0,85.0,-1004.0,25.0
25.0,-247.0,7.0,97.0,-41.0,-160.0,89.0,-1003.0,20.0
28.0,-245.0,1.0,99.0,-44.0,-161.0,87.0,-1005.0,28.0
24.0,-247.0,7.0,104.0,-45.0,-162.0,92.0,-1004.0,21.0
26.0,-249.0,6.0,109.0,-49.0,-164.0,89.0,-997.0,21.0
27.0,-245.0,3.0,117.0,-50.0,-168.0,96.0,-999.0,22.0
30.0,-249.0,4.0,121.0,-48.0,-170.0,93.0,-1005.0,29.0
27.0,-248.0,7.0,123.0,-47.0,-174.0,96.0,-998.0,23.0
27.0,-245.0,1.0,126.0,-47.0,-177.0,90.0,-1006.0,24.0
27.0,-246.0,1.0,125.0,-46.0,-177.0,94.0,-1002.0,21.0
25.0,-247.0,3.0,123.0,-44.0,-177.0,93.0,-1001.0,25.0
26.0,-244.0,0.0,119.0,-43.0,-181.0,90.0,-1003.0,27.0
26.0,-249.0,3.0,116.0,-41.0,-179.0,98.0,-1004.0,31.0
28.0,-245.0,4.0,112.0,-40.0,-181.0,94.0,-1003.0,28.0
27.0,-242.0,6.0,109.0,-39.0,-182.0,100.0,-1007.0,31.0
29.0,-246.0,6.0,107.0,-37.0,-183.0,101.0,-1007.0,23.0
31.0,-246.0,7.0,104.0,-37.0,-183.0,95.0,-1011.0,30.0
30.0,-247.0,5.0,104.0,-35.0,-183.0,98.0,-1002.0,29.0
23.0,-251.0,5.0,104.0,-31.0,-185.0,103.0,-1011.0,31.0
27.0,-249.0,2.0,106.0,-27.0,-186.0,103.0,-1009.0,36.0
28.0,-244.0,5.0,110.0,-25.0,-189.0,101.0,-1007.0,24.0
29.0,-250.0,8.0,109.0,-20.0,-190.0,103.0,-1011.0,25.0
29.0,-249.0,9.0,113.0,-19.0,-192.0,103.0,-1006.0,28.0
29.0,-247.0,8.0,116.0,-20.0,-195.0,103.0,-1001.0,34.0
28.0,-246.0,8.0,119.0,-23.0,-197.0,101.0,-1002.0,29.0
27.0,-244.0,3.0,117.0,-26.0,-199.0,102.0,-1000.0,33.0
29.0,-247.0,2.0,113.0,-32.0,-202.0,99.0,-998.0,30.0
30.0,-245.0,7.0,113.0,-37.0,-205.0,97.0,-998.0,31.0
26.0,-244.0,10.0,112.0,-43.0,-209.0,101.0,-1002.0,31.0
32.0,-245.0,5.0,112.0,-47.0,-211.0,102.0,-996.0,34.0
26.0,-244.0,15.0,112.0,-48.0,-211.0,108.0,-992.0,36.0
30.0,-246.0,8.0,112.0,-47.0,-213.0,113.0,-995.0,35.0
28.0,-244.0,8.0,111.0,-45.0,-215.0,117.0,-995.0,35.0
33.0,-246.0,7.0,113.0,-41.0,-217.0,113.0,-994.0,37.0
32.0,-243.0,10.0,112.0,-36.0,-218.0,111.0,-993.0,39.0
34.0,-242.0,6.0,110.0,-32.0,-220.0,115.0,-993.0,38.0
34.0,-244.0,8.0,108.0,-29.0,-220.0,110.0,-994.0,42.0
32.0,-245.0,9.0,108.0,-26.0,-220.0,114.0,-997.0,43.0
32.0,-244.0,8.0,108.0,-26.0,-220.0,123.0,-994.0,37.0
33.0,-247.0,5.0,108.0,-27.0,-220.0,120.0,-995.0,30.0
30.0,-242.0,5.0,111.0,-28.0,-220.0,121.0,-997.0,39.0
33.0,-245.0,6.0,113.0,-28.0,-220.0,126.0,-996.0,37.0
34.0,-248.0,7.0,113.0,-28.0,-221.0,127.0,-1001.0,43.0
36.0,-244.0,6.0,111.0,-28.0,-221.0,128.0,-998.0,37.0
35.0,-244.0,5.0,107.0,-29.0,-223.0,127.0,-999.0,46.0
35.0,-248.0,9.0,104.0,-29.0,-226.0,125.0,-998.0,40.0
35.0,-247.0,5.0,102.0,-30.0,-228.0,124.0,-1002.0,42.0
36.0,-246.0,5.0,103.0,-32.0,-232.0,123.0,-997.0,38.0
37.0,-242.0,7.0,102.0,-31.0,-236.0,117.0,-992.0,44.0
31.0,-242.0,6.0,103.0,-34.0,-238.0,124.0,-997.0,47.0
27.0,-237.0,11.0,103.0,-39.0,-240.0,121.0,-993.0,49.0
35.0,-246.0,6.0,106.0,-45.0,-244.0,124.0,-988.0,45.0
34.0,-243.0,11.0,107.0,-53.0,-248.0,129.0,-987.0,44.0
34.0,-243.0,11.0,106.0,-58.0,-252.0,131.0,-988.0,41.0
37.0,-241.0,8.0,102.0,-65.0,-255.0,133.0,-986.0,41.0
39.0,-240.0,9.0,97.0,-71.0,-261.0,143.0,-988.0,49.0
40.0,-241.0,8.0,94.0,-74.0,-267.0,141.0,-986.0,48.0
44.0,-243.0,9.0,93.0,-73.0,-273.0,143.0,-990.0,49.0
42.0,-240.0,7.0,93.0,-77.0,-277.0,149.0,-988.0,48.0
43.0,-243.0,7.0,91.0,-75.0,-280.0,154.0,-988.0,42.0
46.0,-242.0,8.0,90.0,-73.0,-285.0,157.0,-990.0,44.0
46.0,-242.0,10.0,89.0,-66.0,-287.0,158.0,-991.0,39.0
45.0,-240.0,9.0,85.0,-63.0,-289.0,160.0,-989.0,40.0
47.0,-242.0,8.0,79.0,-59.0,-291.0,163.0,-995.0,44.0
42.0,-242.0,7.0,76.0,-56.0,-294.0,159.0,-995.0,39.0
42.0,-243.0,6.0,72.0,-55.0,-296.0,160.0,-993.0,47.0
44.0,-245.0,14.0,70.0,-54.0,-298.0,155.0,-997.0,40.0
44.0,-246.0,8.0,66.0,-52.0,-301.0,159.0,-992.0,46.0
45.0,-246.0,9.0,65.0,-52.0,-304.0,159.0,-993.0,37.0
42.0,-241.0,7.0,62.0,-51.0,-310.0,162.0,-995.0,39.0
46.0,-242.0,7.0,60.0,-53.0,-319.0,157.0,-990.0,38.0
45.0,-239.0,9.0,57.0,-54.0,-326.0,166.0,-989.0,39.0
45.0,-243.0,5.0,55.0,-56.0,-334.0,158.0,-980.0,38.0
44.0,-241.0,6.0,52.0,-57.0,-341.0,164.0,-978.0,38.0
48.0,-239.0,8.0,49.0,-59.0,-346.0,167.0,-977.0,49.0
46.0,-238.0,9.0,46.0,-60.0,-356.0,173.0,-972.0,43.0
48.0,-235.0,9.0,43.0,-61.0,-361.0,171.0,-965.0,48.0
49.0,-236.0,8.0,37.0,-62.0,-368.0,177.0,-958.0,48.0
47.0,-234.0,12.0,31.0,-64.0,-375.0,183.0,-963.0,44.0
52.0,-232.0,10.0,21.0,-62.0,-385.0,180.0,-956.0,41.0
51.0,-232.0,6.0,10.0,-61.0,-391.0,184.0,-958.0,38.0
52.0,-231.0,9.0,-3.0,-55.0,-402.0,186.0,-961.0,33.0
51.0,-233.0,6.0,-15.0,-50.0,-412.0,189.0,-962.0,34.0
47.0,-234.0,1.0,-24.0,-46.0,-419.0,183.0,-965.0,34.0
52.0,-239.0,10.0,-34.0,-40.0,-430.0,182.0,-976.0,34.0
52.0,-239.0,6.0,-43.0,-38.0,-445.0,187.0,-985.0,32.0
51.0,-246.0,4.0,-49.0,-39.0,-459.0,184.0,-995.0,25.0
51.0,-249.0,7.0,-50.0,-41.0,-477.0,175.0,-1006.0,35.0
50.0,-250.0,7.0,-44.0,-44.0,-494.0,179.0,-1014.0,36.0
50.0,-252.0,3.0,-34.0,-46.0,-511.0,175.0,-1020.0,30.0
47.0,-253.0,7.0,-19.0,-49.0,-526.0,168.0,-1025.0,34.0
46.0,-255.0,8.0,0.0,-51.0,-543.0,169.0,-1031.0,31.0
47.0,-254.0,6.0,17.0,-52.0,-558.0,164.0,-1027.0,28.0
45.0,-254.0,8.0,33.0,-51.0,-572.0,164.0,-1019.0,36.0
48.0,-251.0,13.0,45.0,-51.0,-584.0,166.0,-1011.0,28.0
46.0,-246.0,6.0,55.0,-50.0,-596.0,170.0,-1005.0,33.0
51.0,-241.0,7.0,56.0,-51.0,-607.0,176.0,-991.0,35.0
49.0,-239.0,7.0,57.0,-49.0,-616.0,179.0,-980.0,37.0
54.0,-236.0,6.0,53.0,-49.0,-619.0,186.0,-970.0,38.0
55.0,-231.0,6.0,45.0,-47.0,-625.0,202.0,-954.0,42.0
56.0,-231.0,8.0,34.0,-46.0,-628.0,198.0,-939.0,43.0
59.0,-226.0,9.0,20.0,-45.0,-629.0,216.0,-944.0,40.0
61.0,-229.0,9.0,7.0,-47.0,-630.0,227.0,-931.0,51.0
63.0,-224.0,7.0,-5.0,-47.0,-634.0,241.0,-931.0,51.0
62.0,-230.0,9.0,-18.0,-49.0,-642.0,247.0,-935.0,48.0
63.0,-227.0,9.0,-35.0,-50.0,-648.0,254.0,-931.0,41.0
66.0,-226.0,9.0,-53.0,-44.0,-659.0,253.0,-932.0,49.0
62.0,-224.0,9.0,-74.0,-41.0,-671.0,250.0,-928.0,48.0
66.0,-229.0,7.0,-93.0,-36.0,-683.0,249.0,-933.0,45.0
66.0,-225.0,10.0,-107.0,-31.0,-693.0,243.0,-928.0,42.0
63.0,-227.0,5.0,-117.0,-26.0,-704.0,241.0,-932.0,32.0
62.0,-225.0,8.0,-125.0,-21.0,-717.0,236.0,-923.0,29.0
62.0,-225.0,8.0,-128.0,-15.0,-727.0,237.0,-924.0,33.0
62.0,-226.0,5.0,-128.0,-5.0,-734.0,234.0,-923.0,27.0
66.0,-225.0,8.0,-129.0,6.0,-746.0,237.0,-924.0,25.0
63.0,-226.0,6.0,-129.0,24.0,-756.0,237.0,-927.0,32.0
68.0,-229.0,6.0,-126.0,41.0,-768.0,245.0,-926.0,36.0
65.0,-224.0,8.0,-127.0,54.0,-781.0,246.0,-922.0,39.0
63.0,-228.0,4.0,-128.0,64.0,-796.0,249.0,-923.0,38.0
65.0,-222.0,8.0,-134.0,71.0,-811.0,251.0,-925.0,32.0
66.0,-227.0,5.0,-138.0,76.0,-827.0,252.0,-928.0,30.0
68.0,-226.0,2.0,-146.0,80.0,-843.0,259.0,-928.0,30.0
67.0,-229.0,3.0,-152.0,81.0,-857.0,257.0,-935.0,29.0
66.0,-229.0,1.0,-148.0,88.0,-869.0,257.0,-936.0,33.0
63.0,-232.0,4.0,-141.0,94.0,-886.0,251.0,-934.0,26.0
65.0,-234.0,2.0,-133.0,96.0,-906.0,244.0,-932.0,17.0
60.0,-229.0,4.0,-127.0,98.0,-927.0,226.0,-929.0,19.0
66.0,-224.0,17.0,-117.0,101.0,-948.0,217.0,-923.0,4.0
56.0,-227.0,-3.0,-108.0,105.0,-971.0,204.0,-916.0,10.0
55.0,-219.0,0.0,-97.0,107.0,-989.0,194.0,-906.0,2.0
55.0,-217.0,-1.0,-93.0,102.0,-1010.0,193.0,-901.0,-1.0
52.0,-212.0,-2.0,-95.0,97.0,-1029.0,189.0,-880.0,5.0
50.0,-212.0,0.0,-100.0,95.0,-1044.0,177.0,-863.0,3.0
48.0,-210.0,1.0,-109.0,93.0,-1055.0,173.0,-848.0,1.0
49.0,-202.0,-1.0,-122.0,92.0,-1061.0,181.0,-831.0,14.0
51.0,-194.0,2.0,-133.0,93.0,-1069.0,186.0,-808.0,20.0
50.0,-190.0,5.0,-142.0,92.0,-1077.0,175.0,-786.0,20.0
54.0,-184.0,1.0,-147.0,92.0,-1077.0,185.0,-760.0,27.0
56.0,-181.0,11.0,-147.0,101.0,-1077.0,197.0,-742.0,29.0
59.0,-173.0,5.0,-149.0,113.0,-1074.0,211.0,-719.0,29.0
63.0,-170.0,6.0,-156.0,118.0,-1071.0,225.0,-701.0,25.0
65.0,-166.0,2.0,-172.0,126.0,-1072.0,247.0,-682.0,25.0
67.0,-164.0,4.0,-197.0,133.0,-1080.0,248.0,-670.0,22.0
66.0,-162.0,6.0,-231.0,139.0,-1087.0,239.0,-663.0,21.0
62.0,-155.0,0.0,-269.0,147.0,-1097.0,231.0,-647.0,13.0
63.0,-156.0,-1.0,-311.0,152.0,-1105.0,224.0,-637.0,6.0
58.0,-148.0,-2.0,-349.0,161.0,-1111.0,207.0,-617.0,-6.0
52.0,-143.0,-9.0,-378.0,171.0,-1114.0,199.0,-596.0,-15.0
53.0,-141.0,-9.0,-398.0,186.0,-1112.0,179.0,-575.0,-25.0
47.0,-133.0,-10.0,-412.0,204.0,-1110.0,170.0,-560.0,-38.0
44.0,-129.0,-10.0,-416.0,227.0,-1104.0,161.0,-542.0,-49.0
46.0,-129.0,-16.0,-412.0,256.0,-1100.0,158.0,-516.0,-58.0
51.0,-127.0,-15.0,-401.0,290.0,-1096.0,155.0,-501.0,-59.0
47.0,-120.0,-19.0,-383.0,325.0,-1097.0,156.0,-484.0,-69.0
45.0,-112.0,-19.0,-363.0,360.0,-1101.0,162.0,-463.0,-77.0
48.0,-110.0,-22.0,-344.0,393.0,-1107.0,167.0,-449.0,-78.0
59.0,-107.0,-18.0,-327.0,428.0,-1120.0,177.0,-431.0,-78.0
57.0,-102.0,-20.0,-308.0,467.0,-1132.0,203.0,-424.0,-78.0
66.0,-96.0,-27.0,-285.0,512.0,-1148.0,224.0,-420.0,-81.0
69.0,-107.0,-24.0,-250.0,564.0,-1169.0,260.0,-418.0,-81.0
77.0,-105.0,-22.0,-207.0,616.0,-1198.0,292.0,-428.0,-86.0
83.0,-109.0,-27.0,-164.0,666.0,-1238.0,325.0,-440.0,-92.0
89.0,-112.0,-28.0,-125.0,707.0,-1291.0,346.0,-455.0,-104.0
94.0,-119.0,-32.0,-96.0,736.0,-1351.0,362.0,-472.0,-122.0
99.0,-122.0,-36.0,-83.0,747.0,-1420.0,377.0,-498.0,-136.0
102.0,-132.0,-35.0,-80.0,748.0,-1490.0,386.0,-530.0,-136.0
109.0,-141.0,-40.0,-72.0,741.0,-1563.0,407.0,-571.0,-144.0
113.0,-152.0,-41.0,-57.0,728.0,-1638.0,436.0,-609.0,-151.0
121.0,-161.0,-36.0,-38.0,711.0,-1723.0,470.0,-654.0,-154.0
130.0,-176.0,-35.0,-10.0,698.0,-1817.0,502.0,-708.0,-136.0
137.0,-195.0,-33.0,37.0,698.0,-1913.0,534.0,-777.0,-122.0
152.0,-213.0,-29.0,107.0,715.0,-2012.0,598.0,-842.0,-98.0
171.0,-231.0,-24.0,214.0,752.0,-2130.0,641.0,-906.0,-84.0
177.0,-242.0,-22.0,359.0,802.0,-2262.0,684.0,-952.0,-71.0
186.0,-246.0,-15.0,534.0,850.0,-2430.0,733.0,-970.0,-50.0
193.0,-245.0,-7.0,729.0,892.0,-2568.0,764.0,-977.0,-19.0
197.0,-241.0,6.0,934.0,898.0,-2693.0,787.0,-951.0,16.0
194.0,-226.0,15.0,1131.0,850.0,-2795.0,794.0,-911.0,67.0
193.0,-203.0,31.0,1297.0,754.0,-2869.0,776.0,-802.0,129.0
192.0,-183.0,43.0,1431.0,623.0,-2904.0,773.0,-731.0,191.0
181.0,-152.0,55.0,1469.0,459.0,-2906.0,745.0,-639.0,230.0
178.0,-136.0,49.0,1431.0,271.0,-2887.0,725.0,-587.0,218.0
180.0,-126.0,44.0,1315.0,80.0,-2849.0,726.0,-527.0,181.0
172.0,-118.0,35.0,1138.0,-105.0,-2813.0,692.0,-512.0,126.0
173.0,-120.0,13.0,942.0,-287.0,-2771.0,696.0,-520.0,53.0
176.0,-133.0,-6.0,771.0,-452.0,-2740.0,701.0,-553.0,-12.0
174.0,-143.0,-22.0,660.0,-581.0,-2716.0,695.0,-582.0,-80.0
171.0,-154.0,-34.0,629.0,-666.0,-2685.0,675.0,-624.0,-120.0
163.0,-162.0,-42.0,662.0,-719.0,-2638.0,654.0,-649.0,-160.0
167.0,-163.0,-51.0,727.0,-750.0,-2582.0,643.0,-654.0,-185.0
150.0,-152.0,-58.0,796.0,-759.0,-2528.0,612.0,-630.0,-211.0
150.0,-147.0,-53.0,842.0,-768.0,-2484.0,588.0,-583.0,-212.0
139.0,-126.0,-51.0,866.0,-758.0,-2449.0,558.0,-510.0,-187.0
127.0,-99.0,-44.0,867.0,-747.0,-2414.0,510.0,-435.0,-168.0
122.0,-83.0,-25.0,833.0,-778.0,-2371.0,475.0,-365.0,-100.0
109.0,-65.0,-5.0,779.0,-809.0,-2321.0,440.0,-295.0,-29.0
109.0,-51.0,7.0,702.0,-818.0,-2258.0,408.0,-229.0,43.0
94.0,-36.0,16.0,610.0,-817.0,-2189.0,373.0,-160.0,92.0
90.0,-26.0,29.0,518.0,-837.0,-2115.0,339.0,-123.0,107.0
87.0,-24.0,23.0,447.0,-877.0,-2046.0,323.0,-97.0,103.0
77.0,-14.0,15.0,412.0,-928.0,-1994.0,287.0,-62.0,60.0
70.0,-12.0,2.0,401.0,-948.0,-1950.0,248.0,-41.0,13.0
58.0,-4.0,2.0,393.0,-921.0,-1924.0,199.0,-27.0,5.0
44.0,-1.0,-2.0,401.0,-842.0,-1912.0,147.0,-2.0,9.0
33.0,4.0,-5.0,415.0,-705.0,-1894.0,86.0,13.0,-5.0
30.0,0.0,3.0,440.0,-522.0,-1866.0,95.0,6.0,-5.0
27.0,6.0,-1.0,490.0,-334.0,-1851.0,93.0,19.0,-6.0
31.0,3.0,-7.0,561.0,-182.0,-1834.0,89.0,16.0,-9.0
27.0,6.0,8.0,622.0,-78.0,-1806.0,93.0,22.0,27.0
28.0,9.0,22.0,655.0,-13.0,-1774.0,81.0,30.0,86.0
36.0,15.0,39.0,639.0,53.0,-1728.0,114.0,35.0,154.0
47.0,24.0,66.0,563.0,153.0,-1704.0,126.0,71.0,259.0
41.0,36.0,86.0,437.0,320.0,-1680.0,92.0,110.0,333.0
19.0,57.0,88.0,289.0,516.0,-1625.0,64.0,177.0,366.0
9.0,58.0,72.0,188.0,719.0,-1547.0,-10.0,218.0,305.0
-20.0,64.0,45.0,171.0,904.0,-1456.0,-71.0,242.0,168.0
-58.0,61.0,19.0,262.0,1051.0,-1359.0,-231.0,230.0,53.0
-41.0,55.0,-17.0,422.0,1078.0,-1273.0,-143.0,220.0,-62.0
-23.0,56.0,-34.0,561.0,1012.0,-1292.0,-86.0,204.0,-127.0
-8.0,57.0,-52.0,582.0,908.0,-1362.0,30.0,178.0,-209.0
66.0,41.0,-67.0,466.0,760.0,-1456.0,274.0,125.0,-266.0
156.0,8.0,-52.0,309.0,686.0,-1591.0,601.0,29.0,-199.0
216.0,-19.0,-31.0,236.0,765.0,-1768.0,818.0,-59.0,-114.0
248.0,-42.0,-10.0,256.0,942.0,-1925.0,1003.0,-199.0,-14.0
308.0,-90.0,19.0,353.0,1169.0,-2032.0,1188.0,-359.0,87.0
337.0,-124.0,39.0,506.0,1430.0,-2089.0,1309.0,-485.0,179.0
359.0,-172.0,27.0,677.0,1720.0,-1999.0,1362.0,-679.0,130.0
458.0,-222.0,33.0,721.0,1965.0,-1835.0,1704.0,-878.0,133.0
526.0,-273.0,52.0,668.0,2386.0,-1763.0,2047.0,-1130.0,226.0
518.0,-323.0,52.0,601.0,2746.0,-1659.0,2030.0,-1320.0,233.0
614.0,-366.0,88.0,533.0,2956.0,-1414.0,2334.0,-1433.0,365.0
599.0,-404.0,38.0,772.0,3316.0,-1296.0,2384.0,-1583.0,285.0
531.0,-412.0,-57.0,1083.0,3483.0,-1095.0,2200.0,-1650.0,-127.0
452.0,-349.0,-102.0,1178.0,3289.0,-771.0,1957.0,-1467.0,-376.0
427.0,-214.0,-129.0,1070.0,2987.0,-576.0,1836.0,-1019.0,-515.0
419.0,-63.0,-124.0,751.0,2646.0,-650.0,1613.0,-252.0,-500.0
507.0,138.0,-50.0,269.0,2353.0,-900.0,2072.0,510.0,-232.0
593.0,255.0,31.0,-143.0,2090.0,-1448.0,2458.0,1114.0,237.0
775.0,374.0,131.0,-287.0,2109.0,-2225.0,3107.0,1583.0,596.0
1104.0,488.0,250.0,-237.0,2536.0,-3028.0,4392.0,2020.0,1036.0
1529.0,535.0,347.0,24.0,3071.0,-3764.0,6021.0,2244.0,1416.0
1869.0,561.0,385.0,555.0,3575.0,-4414.0,7375.0,2354.0,1588.0
1993.0,558.0,373.0,1279.0,3835.0,-4934.0,8052.0,2322.0,1539.0
1878.0,546.0,340.0,1828.0,3742.0,-5237.0,7624.0,2202.0,1412.0
1782.0,392.0,227.0,2035.0,3506.0,-4976.0,7287.0,1559.0,970.0
1568.0,159.0,109.0,1862.0,3312.0,-4535.0,6557.0,702.0,509.0
1089.0,-24.0,96.0,1540.0,2885.0,-4230.0,4884.0,48.0,412.0
740.0,-136.0,118.0,1577.0,1916.0,-3758.0,3059.0,-449.0,475.0
354.0,-208.0,219.0,2213.0,774.0,-2779.0,1617.0,-711.0,884.0
173.0,-181.0,336.0,3136.0,-208.0,-1452.0,805.0,-696.0,1338.0
146.0,-116.0,446.0,3896.0,-785.0,-95.0,554.0,-495.0,1693.0
77.0,60.0,456.0,4372.0,-978.0,880.0,244.0,144.0,1903.0
-83.0,251.0,518.0,4171.0,-1035.0,1452.0,-283.0,789.0,2072.0
-312.0,378.0,503.0,3345.0,-1222.0,1857.0,-1172.0,1330.0,2013.0
-438.0,403.0,448.0,2382.0,-1375.0,2199.0,-1706.0,1512.0,1802.0
-511.0,346.0,352.0,1492.0,-1441.0,2285.0,-2110.0,1327.0,1456.0
-508.0,264.0,272.0,704.0,-1382.0,2108.0,-2066.0,903.0,1024.0
-450.0,106.0,165.0,28.0,-1361.0,1705.0,-1770.0,332.0,642.0
-319.0,-49.0,92.0,-453.0,-1452.0,1199.0,-1261.0,-213.0,374.0
-191.0,-129.0,22.0,-710.0,-1704.0,747.0,-763.0,-506.0,117.0
-93.0,-149.0,-11.0,-785.0,-2017.0,470.0,-308.0,-601.0,-36.0
14.0,-154.0,-1.0,-675.0,-2273.0,369.0,99.0,-599.0,-15.0
124.0,-129.0,12.0,-392.0,-2512.0,378.0,498.0,-488.0,55.0
235.0,-81.0,32.0,-3.0,-2705.0,423.0,911.0,-300.0,138.0
312.0,-2.0,78.0,375.0,-2824.0,448.0,1207.0,-11.0,281.0
365.0,56.0,93.0,695.0,-2885.0,521.0,1472.0,234.0,422.0
395.0,117.0,115.0,947.0,-2879.0,663.0,1597.0,442.0,491.0
456.0,147.0,93.0,1077.0,-2785.0,844.0,1785.0,557.0,407.0
456.0,160.0,52.0,1019.0,-2538.0,927.0,1904.0,598.0,241.0
483.0,130.0,6.0,797.0,-2152.0,918.0,1818.0,507.0,85.0
440.0,102.0,-26.0,493.0,-1608.0,845.0,1658.0,368.0,-78.0
358.0,66.0,-36.0,169.0,-905.0,654.0,1391.0,226.0,-118.0
234.0,58.0,-15.0,-110.0,-167.0,425.0,933.0,184.0,-78.0
149.0,36.0,39.0,-326.0,485.0,265.0,590.0,138.0,146.0
99.0,29.0,60.0,-394.0,1065.0,197.0,301.0,141.0,239.0
40.0,37.0,93.0,-344.0,1526.0,148.0,127.0,159.0,395.0
2.0,50.0,107.0,-236.0,1777.0,93.0,26.0,215.0,466.0
-5.0,82.0,100.0,-113.0,1789.0,34.0,-2.0,314.0,404.0
-21.0,110.0,95.0,-27.0,1645.0,-5.0,-59.0,419.0,381.0
-47.0,134.0,82.0,30.0,1337.0,-33.0,-161.0,545.0,306.0
-50.0,156.0,54.0,35.0,1013.0,-24.0,-182.0,621.0,210.0
-37.0,173.0,34.0,10.0,699.0,1.0,-132.0,682.0,126.0
-16.0,188.0,17.0,-11.0,468.0,21.0,-67.0,736.0,51.0
-4.0,191.0,10.0,-21.0,320.0,54.0,-13.0,759.0,35.0
17.0,190.0,2.0,-30.0,223.0,88.0,63.0,749.0,-1.0
24.0,181.0,5.0,-51.0,169.0,109.0,97.0,723.0,1.0
27.0,171.0,6.0,-58.0,157.0,162.0,99.0,664.0,16.0
32.0,155.0,15.0,-53.0,158.0,273.0,105.0,609.0,58.0
84.0,147.0,21.0,-42.0,163.0,416.0,300.0,588.0,72.0
83.0,131.0,52.0,-42.0,192.0,484.0,293.0,521.0,176.0
127.0,129.0,63.0,-20.0,202.0,579.0,466.0,515.0,228.0
155.0,127.0,80.0,26.0,203.0,677.0,569.0,502.0,298.0
209.0,136.0,82.0,87.0,205.0,812.0,748.0,535.0,345.0
240.0,140.0,93.0,120.0,223.0,906.0,955.0,572.0,366.0
279.0,159.0,88.0,111.0,254.0,975.0,1098.0,615.0,339.0
314.0,171.0,76.0,40.0,307.0,1014.0,1254.0,651.0,308.0
353.0,163.0,61.0,-90.0,379.0,976.0,1381.0,644.0,241.0
354.0,168.0,54.0,-254.0,449.0,869.0,1395.0,651.0,201.0
357.0,154.0,41.0,-373.0,509.0,802.0,1435.0,617.0,138.0
368.0,144.0,25.0,-447.0,602.0,756.0,1424.0,574.0,90.0
346.0,140.0,14.0,-486.0,698.0,701.0,1373.0,565.0,52.0
337.0,145.0,11.0,-497.0,761.0,626.0,1353.0,565.0,48.0
334.0,148.0,20.0,-509.0,808.0,517.0,1343.0,571.0,69.0
334.0,143.0,20.0,-538.0,849.0,403.0,1335.0,565.0,87.0
332.0,134.0,21.0,-573.0,867.0,326.0,1317.0,527.0,93.0
333.0,127.0,30.0,-625.0,877.0,284.0,1322.0,488.0,106.0
313.0,127.0,44.0,-689.0,894.0,241.0,1257.0,487.0,169.0
304.0,127.0,57.0,-742.0,885.0,215.0,1206.0,489.0,234.0
308.0,124.0,71.0,-757.0,831.0,207.0,1202.0,493.0,276.0
309.0,127.0,80.0,-723.0,754.0,192.0,1235.0,507.0,311.0
315.0,128.0,83.0,-630.0,676.0,168.0,1259.0,520.0,340.0
329.0,128.0,92.0,-502.0,607.0,141.0,1302.0,519.0,367.0
337.0,123.0,100.0,-369.0,554.0,110.0,1334.0,486.0,394.0
328.0,110.0,99.0,-270.0,510.0,84.0,1307.0,423.0,402.0
312.0,98.0,102.0,-218.0,469.0,65.0,1240.0,378.0,419.0
291.0,86.0,109.0,-199.0,441.0,51.0,1155.0,339.0,451.0
274.0,81.0,117.0,-186.0,424.0,40.0,1073.0,310.0,488.0
258.0,71.0,124.0,-159.0,406.0,33.0,1013.0,277.0,515.0
248.0,60.0,124.0,-111.0,380.0,23.0,974.0,243.0,520.0
233.0,50.0,129.0,-50.0,345.0,1.0,921.0,210.0,528.0
229.0,44.0,125.0,21.0,293.0,-22.0,895.0,173.0,519.0
220.0,38.0,124.0,97.0,238.0,-49.0,875.0,141.0,510.0
217.0,31.0,117.0,167.0,181.0,-80.0,853.0,113.0,492.0
217.0,21.0,112.0,220.0,117.0,-106.0,848.0,90.0,461.0
215.0,20.0,97.0,256.0,60.0,-127.0,839.0,68.0,422.0
212.0,17.0,93.0,267.0,10.0,-150.0,825.0,56.0,382.0
202.0,18.0,88.0,255.0,-27.0,-168.0,800.0,61.0,370.0
203.0,18.0,89.0,250.0,-44.0,-161.0,795.0,68.0,350.0
205.0,23.0,82.0,244.0,-65.0,-149.0,802.0,80.0,337.0
211.0,26.0,74.0,231.0,-78.0,-137.0,817.0,95.0,297.0
217.0,29.0,67.0,186.0,-84.0,-134.0,845.0,110.0,300.0
227.0,35.0,77.0,124.0,-60.0,-115.0,875.0,125.0,325.0
227.0,36.0,82.0,78.0,-28.0,-94.0,889.0,129.0,340.0
231.0,34.0,87.0,24.0,3.0,-79.0,906.0,115.0,364.0
236.0,34.0,95.0,-23.0,37.0,-63.0,899.0,115.0,373.0
233.0,27.0,99.0,-82.0,69.0,-42.0,899.0,104.0,409.0
231.0,24.0,110.0,-123.0,104.0,-13.0,896.0,79.0,441.0
232.0,11.0,118.0,-145.0,143.0,28.0,888.0,45.0,469.0
220.0,6.0,120.0,-144.0,188.0,62.0,850.0,23.0,481.0
218.0,0.0,123.0,-131.0,228.0,95.0,833.0,1.0,493.0
202.0,0.0,121.0,-114.0,259.0,136.0,784.0,-21.0,500.0
199.0,-9.0,111.0,-89.0,274.0,188.0,775.0,-33.0,490.0
191.0,-11.0,121.0,-65.0,285.0,240.0,745.0,-40.0,490.0
184.0,-8.0,120.0,-37.0,293.0,287.0,733.0,-44.0,489.0
175.0,-8.0,122.0,-8.0,297.0,324.0,688.0,-49.0,514.0
182.0,-11.0,128.0,22.0,298.0,359.0,708.0,-50.0,508.0
185.0,-15.0,127.0,42.0,310.0,368.0,723.0,-69.0,533.0
187.0,-12.0,133.0,68.0,313.0,348.0,724.0,-59.0,532.0
189.0,-11.0,131.0,94.0,296.0,330.0,737.0,-59.0,548.0
195.0,-11.0,133.0,128.0,273.0,314.0,750.0,-50.0,552.0
199.0,-9.0,138.0,163.0,253.0,307.0,790.0,-31.0,558.0
209.0,0.0,129.0,191.0,235.0,295.0,819.0,-23.0,548.0
218.0,0.0,129.0,209.0,213.0,284.0,848.0,-14.0,539.0
223.0,4.0,127.0,210.0,191.0,270.0,881.0,3.0,538.0
232.0,4.0,128.0,204.0,166.0,260.0,912.0,-1.0,516.0
236.0,0.0,122.0,189.0,135.0,251.0,933.0,-5.0,504.0
239.0,0.0,118.0,172.0,97.0,238.0,944.0,-5.0,489.0
244.0,-2.0,117.0,154.0,55.0,227.0,959.0,-9.0,470.0
247.0,0.0,118.0,138.0,9.0,209.0,965.0,-8.0,457.0
250.0,2.0,107.0,132.0,-31.0,187.0,985.0,-12.0,448.0
254.0,0.0,102.0,123.0,-63.0,165.0,988.0,-12.0,442.0
252.0,0.0,102.0,112.0,-90.0,143.0,999.0,-21.0,422.0
256.0,-2.0,99.0,104.0,-111.0,121.0,1010.0,-28.0,408.0
253.0,-5.0,102.0,95.0,-131.0,98.0,1000.0,-20.0,394.0
255.0,-2.0,93.0,88.0,-146.0,83.0,999.0,-18.0,373.0
252.0,0.0,88.0,80.0,-159.0,69.0,990.0,-8.0,366.0
251.0,0.0,87.0,70.0,-168.0,55.0,978.0,-9.0,362.0
250.0,-3.0,89.0,58.0,-171.0,39.0,985.0,-9.0,366.0
248.0,-4.0,92.0,53.0,-173.0,23.0,974.0,-19.0,360.0
247.0,-5.0,82.0,60.0,-178.0,15.0,974.0,-31.0,363.0
246.0,-9.0,86.0,77.0,-186.0,11.0,966.0,-36.0,362.0
243.0,-8.0,92.0,99.0,-200.0,9.0,962.0,-37.0,359.0
245.0,-10.0,89.0,119.0,-214.0,6.0,955.0,-36.0,363.0
238.0,-8.0,91.0,138.0,-225.0,4.0,947.0,-32.0,362.0
236.0,-4.0,88.0,153.0,-236.0,2.0,932.0,-30.0,353.0
234.0,-3.0,88.0,164.0,-241.0,2.0,919.0,-20.0,362.0
234.0,0.0,90.0,174.0,-243.0,1.0,907.0,-10.0,368.0
227.0,4.0,88.0,178.0,-241.0,-1.0,899.0,-3.0,369.0
229.0,7.0,90.0,173.0,-242.0,-1.0,896.0,12.0,369.0
230.0,10.0,89.0,168.0,-241.0,-6.0,896.0,27.0,365.0
230.0,14.0,87.0,160.0,-238.0,-11.0,893.0,38.0,357.0
228.0,15.0,86.0,148.0,-237.0,-19.0,893.0,55.0,352.0
227.0,16.0,85.0,132.0,-234.0,-25.0,895.0,64.0,341.0
230.0,19.0,85.0,110.0,-230.0,-34.0,890.0,69.0,334.0
231.0,18.0,77.0,82.0,-220.0,-41.0,899.0,77.0,329.0
230.0,26.0,83.0,59.0,-207.0,-49.0,902.0,82.0,331.0
229.0,24.0,81.0,35.0,-196.0,-57.0,896.0,82.0,333.0
228.0,26.0,85.0,8.0,-187.0,-63.0,895.0,84.0,341.0
233.0,24.0,84.0,-15.0,-171.0,-67.0,906.0,82.0,348.0
234.0,26.0,89.0,-36.0,-150.0,-77.0,905.0,79.0,352.0
234.0,24.0,90.0,-53.0,-129.0,-85.0,920.0,77.0,362.0
235.0,25.0,86.0,-67.0,-107.0,-89.0,924.0,76.0,359.0
234.0,19.0,87.0,-77.0,-87.0,-95.0,921.0,68.0,353.0
237.0,18.0,84.0,-86.0,-70.0,-98.0,923.0,69.0,346.0
240.0,14.0,88.0,-91.0,-60.0,-102.0,920.0,69.0,340.0
237.0,17.0,77.0,-90.0,-49.0,-104.0,929.0,59.0,324.0
239.0,18.0,79.0,-90.0,-40.0,-103.0,938.0,63.0,314.0
238.0,20.0,75.0,-87.0,-34.0,-103.0,942.0,72.0,307.0
240.0,21.0,75.0,-88.0,-28.0,-104.0,949.0,75.0,296.0
243.0,24.0,70.0,-91.0,-18.0,-104.0,961.0,84.0,297.0
248.0,26.0,68.0,-95.0,-9.0,-105.0,969.0,86.0,295.0
248.0,25.0,74.0,-101.0,2.0,-110.0,974.0,98.0,300.0
252.0,29.0,74.0,-105.0,11.0,-120.0,983.0,110.0,301.0
254.0,30.0,74.0,-107.0,16.0,-130.0,997.0,117.0,319.0
256.0,30.0,76.0,-101.0,15.0,-141.0,998.0,113.0,317.0
252.0,33.0,79.0,-85.0,8.0,-153.0,999.0,127.0,320.0
252.0,36.0,83.0,-62.0,1.0,-157.0,997.0,127.0,329.0
247.0,32.0,81.0,-31.0,-3.0,-155.0,985.0,131.0,327.0
247.0,35.0,81.0,5.0,-7.0,-149.0,976.0,134.0,326.0
247.0,35.0,83.0,37.0,-7.0,-143.0,967.0,129.0,342.0
242.0,38.0,86.0,60.0,-5.0,-135.0,957.0,137.0,356.0
243.0,36.0,87.0,74.0,0.0,-125.0,945.0,130.0,354.0
242.0,37.0,91.0,82.0,5.0,-113.0,946.0,137.0,364.0
242.0,38.0,93.0,86.0,7.0,-101.0,947.0,132.0,367.0
241.0,36.0,93.0,91.0,9.0,-92.0,952.0,134.0,378.0
243.0,33.0,95.0,95.0,6.0,-79.0,953.0,132.0,377.0
241.0,42.0,92.0,100.0,-2.0,-63.0,953.0,134.0,376.0
242.0,39.0,92.0,102.0,-17.0,-48.0,959.0,135.0,377.0
244.0,40.0,91.0,107.0,-38.0,-34.0,954.0,140.0,371.0
243.0,40.0,92.0,119.0,-54.0,-24.0,961.0,143.0,367.0
243.0,40.0,90.0,133.0,-62.0,-24.0,951.0,147.0,370.0
240.0,40.0,89.0,150.0,-61.0,-28.0,949.0,152.0,364.0
245.0,42.0,91.0,167.0,-63.0,-30.0,940.0,158.0,359.0
239.0,41.0,89.0,182.0,-65.0,-28.0,941.0,150.0,363.0
239.0,44.0,85.0,196.0,-65.0,-25.0,942.0,156.0,353.0
238.0,42.0,89.0,205.0,-63.0,-17.0,928.0,155.0,367.0
237.0,44.0,87.0,211.0,-64.0,-10.0,933.0,157.0,365.0
235.0,43.0,95.0,213.0,-56.0,-8.0,920.0,154.0,371.0
232.0,39.0,93.0,210.0,-49.0,-6.0,924.0,152.0,372.0
232.0,44.0,93.0,201.0,-45.0,-4.0,918.0,147.0,374.0
231.0,44.0,90.0,187.0,-42.0,-1.0,917.0,138.0,376.0
231.0,41.0,89.0,174.0,-42.0,4.0,904.0,142.0,374.0
230.0,36.0,94.0,162.0,-43.0,12.0,902.0,128.0,383.0
230.0,36.0,90.0,155.0,-47.0,21.0,903.0,124.0,372.0
229.0,33.0,91.0,155.0,-49.0,28.0,901.0,116.0,369.0
232.0,30.0,92.0,157.0,-49.0,36.0,904.0,119.0,363.0
232.0,36.0,91.0,162.0,-49.0,39.0,911.0,117.0,368.0
233.0,37.0,88.0,163.0,-51.0,43.0,905.0,122.0,353.0
235.0,31.0,86.0,167.0,-55.0,48.0,917.0,114.0,361.0
230.0,32.0,89.0,168.0,-56.0,53.0,903.0,116.0,349.0
232.0,30.0,85.0,168.0,-61.0,56.0,913.0,109.0,348.0
235.0,29.0,84.0,163.0,-66.0,59.0,925.0,105.0,347.0
236.0,29.0,83.0,164.0,-72.0,60.0,936.0,103.0,341.0
239.0,31.0,80.0,169.0,-77.0,60.0,947.0,98.0,339.0
241.0,25.0,82.0,172.0,-83.0,58.0,948.0,97.0,328.0
243.0,25.0,80.0,178.0,-86.0,57.0,944.0,94.0,343.0
243.0,25.0,83.0,186.0,-86.0,56.0,942.0,95.0,336.0
240.0,25.0,83.0,197.0,-81.0,51.0,943.0,93.0,340.0
245.0,25.0,83.0,205.0,-75.0,46.0,946.0,92.0,341.0
243.0,22.0,85.0,209.0,-69.0,40.0,954.0,86.0,342.0
235.0,26.0,81.0,214.0,-64.0,38.0,947.0,85.0,347.0
242.0,20.0,87.0,216.0,-63.0,38.0,938.0,80.0,340.0
244.0,21.0,83.0,215.0,-67.0,41.0,950.0,75.0,343.0
245.0,21.0,86.0,211.0,-72.0,42.0,948.0,77.0,350.0
243.0,23.0,83.0,211.0,-79.0,45.0,958.0,74.0,342.0
246.0,21.0,83.0,207.0,-86.0,44.0,960.0,78.0,340.0
245.0,20.0,81.0,200.0,-91.0,46.0,970.0,72.0,341.0
249.0,21.0,77.0,199.0,-94.0,43.0,971.0,72.0,336.0
247.0,18.0,84.0,198.0,-94.0,40.0,969.0,76.0,338.0
247.0,21.0,82.0,194.0,-95.0,37.0,972.0,81.0,329.0
247.0,24.0,81.0,190.0,-93.0,31.0,963.0,79.0,333.0
253.0,24.0,84.0,182.0,-92.0,28.0,963.0,83.0,330.0
243.0,23.0,81.0,172.0,-92.0,19.0,959.0,83.0,329.0
242.0,24.0,78.0,163.0,-89.0,17.0,953.0,80.0,329.0
243.0,19.0,77.0,151.0,-82.0,16.0,958.0,79.0,323.0
243.0,21.0,79.0,141.0,-77.0,16.0,953.0,73.0,328.0
243.0,21.0,81.0,131.0,-75.0,13.0,950.0,72.0,320.0
240.0,23.0,79.0,124.0,-77.0,15.0,948.0,74.0,317.0
242.0,25.0,77.0,118.0,-76.0,19.0,959.0,69.0,320.0
244.0,23.0,76.0,116.0,-74.0,23.0,961.0,78.0,311.0
244.0,23.0,77.0,113.0,-72.0,23.0,962.0,84.0,309.0
247.0,20.0,78.0,110.0,-69.0,25.0,963.0,82.0,308.0
240.0,18.0,79.0,106.0,-69.0,25.0,959.0,84.0,316.0
245.0,27.0,77.0,98.0,-67.0,25.0,958.0,90.0,316.0
243.0,26.0,76.0,88.0,-67.0,24.0,952.0,85.0,317.0
241.0,28.0,76.0,76.0,-68.0,22.0,949.0,91.0,322.0
242.0,29.0,78.0,61.0,-70.0,20.0,943.0,98.0,323.0
239.0,28.0,78.0,47.0,-70.0,15.0,949.0,93.0,323.0
238.0,27.0,77.0,31.0,-71.0,8.0,934.0,94.0,326.0
240.0,25.0,80.0,16.0,-73.0,5.0,941.0,87.0,326.0
243.0,24.0,83.0,-3.0,-77.0,0.0,945.0,84.0,331.0
241.0,21.0,79.0,-22.0,-76.0,-9.0,956.0,80.0,328.0
240.0,21.0,78.0,-45.0,-73.0,-20.0,939.0,83.0,338.0
234.0,22.0,88.0,-67.0,-80.0,-25.0,944.0,82.0,337.0
234.0,21.0,82.0,-97.0,-89.0,-26.0,914.0,82.0,341.0
237.0,20.0,80.0,-112.0,-105.0,-3.0,932.0,79.0,325.0
247.0,18.0,76.0,-115.0,-112.0,10.0,966.0,75.0,324.0
248.0,18.0,76.0,-107.0,-112.0,7.0,976.0,75.0,309.0
250.0,18.0,71.0,-92.0,-105.0,0.0,978.0,76.0,301.0
252.0,20.0,69.0,-71.0,-98.0,-2.0,980.0,75.0,305.0
252.0,19.0,72.0,-42.0,-86.0,-1.0,983.0,77.0,297.0
250.0,19.0,72.0,-13.0,-72.0,3.0,983.0,85.0,292.0
250.0,22.0,73.0,14.0,-60.0,7.0,978.0,85.0,288.0
247.0,28.0,68.0,37.0,-43.0,12.0,976.0,90.0,292.0
244.0,24.0,78.0,56.0,-24.0,14.0,978.0,100.0,289.0
249.0,29.0,72.0,72.0,-2.0,11.0,969.0,102.0,287.0
246.0,30.0,65.0,83.0,18.0,8.0,967.0,104.0,281.0
245.0,29.0,70.0,91.0,36.0,3.0,962.0,100.0,290.0
243.0,30.0,68.0,94.0,49.0,-3.0,960.0,98.0,292.0
247.0,29.0,72.0,96.0,60.0,-10.0,959.0,103.0,284.0
244.0,28.0,70.0,98.0,68.0,-15.0,966.0,101.0,294.0
244.0,30.0,70.0,100.0,75.0,-16.0,963.0,100.0,287.0
245.0,29.0,70.0,99.0,80.0,-16.0,970.0,109.0,290.0
247.0,26.0,77.0,97.0,84.0,-12.0,969.0,101.0,299.0
245.0,29.0,73.0,93.0,84.0,-9.0,965.0,103.0,298.0
248.0,27.0,75.0,86.0,85.0,-4.0,964.0,106.0,300.0
245.0,31.0,73.0,80.0,83.0,0.0,969.0,106.0,302.0
245.0,29.0,73.0,78.0,77.0,5.0,969.0,103.0,309.0
248.0,29.0,77.0,80.0,73.0,12.0,962.0,102.0,302.0
244.0,25.0,72.0,80.0,71.0,13.0,963.0,100.0,296.0
242.0,28.0,75.0,82.0,67.0,10.0,956.0,100.0,305.0
244.0,29.0,71.0,80.0,69.0,10.0,956.0,96.0,301.0
244.0,30.0,77.0,76.0,72.0,6.0,955.0,103.0,306.0
244.0,31.0,75.0,72.0,79.0,1.0,951.0,104.0,306.0
245.0,28.0,78.0,66.0,89.0,-5.0,954.0,107.0,307.0
243.0,30.0,78.0,64.0,99.0,-7.0,946.0,106.0,306.0
242.0,26.0,73.0,60.0,106.0,-4.0,944.0,104.0,310.0
243.0,28.0,79.0,57.0,116.0,-2.0,948.0,97.0,314.0
243.0,26.0,78.0,54.0,122.0,-1.0,946.0,94.0,318.0
241.0,24.0,74.0,53.0,124.0,0.0,949.0,96.0,319.0
244.0,22.0,78.0,52.0,123.0,1.0,955.0,93.0,323.0
244.0,26.0,77.0,52.0,122.0,-1.0,953.0,87.0,327.0
244.0,22.0,81.0,51.0,122.0,-2.0,958.0,85.0,331.0
238.0,24.0,80.0,50.0,119.0,-5.0,944.0,87.0,340.0
242.0,24.0,82.0,49.0,115.0,-8.0,948.0,91.0,335.0
240.0,25.0,83.0,46.0,110.0,-9.0,950.0,86.0,340.0
242.0,25.0,85.0,45.0,106.0,-7.0,945.0,81.0,337.0
241.0,22.0,78.0,43.0,103.0,-11.0,948.0,79.0,330.0
243.0,26.0,81.0,41.0,101.0,-15.0,946.0,87.0,335.0
241.0,25.0,85.0,40.0,98.0,-16.0,945.0,85.0,327.0
241.0,25.0,81.0,41.0,98.0,-18.0,942.0,83.0,331.0
242.0,24.0,83.0,44.0,98.0,-18.0,946.0,88.0,337.0
239.0,23.0,81.0,49.0,97.0,-16.0,931.0,84.0,331.0
238.0,27.0,75.0,55.0,101.0,-10.0,954.0,85.0,331.0
239.0,26.0,82.0,56.0,98.0,-11.0,947.0,88.0,333.0
240.0,23.0,76.0,55.0,97.0,-11.0,940.0,91.0,336.0
241.0,28.0,79.0,55.0,96.0,-13.0,942.0,88.0,343.0
242.0,21.0,80.0,55.0,100.0,-10.0,942.0,82.0,340.0
241.0,23.0,84.0,57.0,103.0,-7.0,938.0,84.0,342.0
240.0,21.0,84.0,62.0,106.0,-1.0,948.0,84.0,343.0
241.0,25.0,86.0,66.0,102.0,2.0,953.0,84.0,354.0
243.0,21.0,84.0,65.0,97.0,2.0,942.0,83.0,349.0
239.0,27.0,83.0,65.0,92.0,2.0,941.0,82.0,355.0
242.0,23.0,87.0,65.0,88.0,6.0,944.0,83.0,350.0
245.0,25.0,84.0,62.0,84.0,7.0,942.0,88.0,352.0
239.0,27.0,85.0,52.0,77.0,5.0,940.0,94.0,346.0
241.0,24.0,87.0,46.0,74.0,3.0,941.0,99.0,352.0
239.0,30.0,83.0,40.0,69.0,5.0,947.0,93.0,347.0
241.0,27.0,86.0,33.0,63.0,4.0,941.0,98.0,347.0
241.0,24.0,85.0,29.0,58.0,8.0,941.0,93.0,345.0
235.0,27.0,85.0,31.0,52.0,9.0,941.0,91.0,347.0
239.0,25.0,84.0,29.0,46.0,10.0,942.0,90.0,347.0
238.0,24.0,86.0,29.0,39.0,10.0,936.0,89.0,350.0
239.0,25.0,85.0,29.0,36.0,13.0,936.0,88.0,350.0
236.0,25.0,85.0,29.0,30.0,17.0,945.0,82.0,350.0
240.0,21.0,84.0,32.0,27.0,22.0,937.0,81.0,348.0
239.0,19.0,87.0,35.0,24.0,26.0,942.0,76.0,346.0
239.0,20.0,86.0,39.0,22.0,27.0,942.0,72.0,346.0
237.0,20.0,80.0,44.0,24.0,27.0,940.0,74.0,346.0
239.0,22.0,86.0,51.0,27.0,25.0,933.0,78.0,342.0
243.0,26.0,81.0,56.0,31.0,22.0,940.0,82.0,335.0
237.0,26.0,82.0,58.0,37.0,19.0,937.0,91.0,342.0
239.0,28.0,83.0,57.0,41.0,14.0,930.0,99.0,340.0
236.0,28.0,84.0,54.0,44.0,11.0,931.0,107.0,345.0
238.0,28.0,90.0,49.0,45.0,7.0,925.0,103.0,342.0
237.0,30.0,82.0,44.0,44.0,4.0,930.0,105.0,343.0
237.0,30.0,84.0,42.0,44.0,5.0,935.0,106.0,345.0
234.0,30.0,82.0,38.0,43.0,6.0,931.0,108.0,346.0
240.0,27.0,85.0,40.0,43.0,7.0,934.0,101.0,351.0
236.0,29.0,84.0,43.0,42.0,8.0,940.0,97.0,339.0
238.0,23.0,85.0,49.0,44.0,6.0,933.0,89.0,343.0
238.0,24.0,84.0,60.0,44.0,8.0,948.0,88.0,345.0
242.0,22.0,90.0,69.0,46.0,10.0,942.0,90.0,348.0
240.0,26.0,84.0,78.0,47.0,13.0,939.0,95.0,341.0
242.0,29.0,81.0,86.0,49.0,14.0,939.0,98.0,342.0
240.0,30.0,83.0,90.0,49.0,19.0,941.0,97.0,340.0
239.0,28.0,89.0,93.0,51.0,26.0,943.0,107.0,344.0
241.0,28.0,88.0,94.0,51.0,34.0,947.0,107.0,349.0
240.0,28.0,85.0,92.0,52.0,40.0,942.0,107.0,345.0
241.0,31.0,85.0,90.0,53.0,46.0,946.0,107.0,355.0
238.0,29.0,87.0,87.0,54.0,51.0,936.0,106.0,345.0
243.0,22.0,82.0,86.0,52.0,56.0,937.0,96.0,355.0
240.0,25.0,85.0,90.0,50.0,61.0,932.0,94.0,349.0
239.0,27.0,87.0,92.0,48.0,66.0,931.0,86.0,354.0
236.0,25.0,84.0,95.0,46.0,69.0,932.0,86.0,352.0
240.0,25.0,91.0,94.0,40.0,66.0,937.0,82.0,346.0
239.0,24.0,85.0,92.0,36.0,64.0,934.0,84.0,349.0
238.0,22.0,83.0,92.0,32.0,61.0,939.0,72.0,345.0
243.0,19.0,81.0,93.0,26.0,54.0,942.0,74.0,345.0
239.0,20.0,82.0,90.0,22.0,48.0,942.0,78.0,345.0
241.0,22.0,83.0,85.0,19.0,37.0,938.0,77.0,347.0
239.0,24.0,85.0,81.0,19.0,29.0,939.0,86.0,341.0
241.0,24.0,81.0,76.0,18.0,28.0,945.0,87.0,349.0
241.0,26.0,84.0,72.0,21.0,24.0,942.0,89.0,344.0
241.0,25.0,84.0,72.0,25.0,18.0,932.0,91.0,347.0
239.0,26.0,83.0,76.0,31.0,18.0,936.0,92.0,346.0
239.0,26.0,83.0,85.0,35.0,20.0,930.0,82.0,348.0
237.0,24.0,86.0,92.0,37.0,18.0,932.0,86.0,350.0
238.0,22.0,81.0,97.0,40.0,18.0,925.0,89.0,347.0
236.0,25.0,85.0,103.0,42.0,19.0,924.0,87.0,344.0
236.0,23.0,83.0,109.0,43.0,18.0,929.0,83.0,342.0
240.0,23.0,86.0,116.0,46.0,17.0,923.0,84.0,349.0
233.0,30.0,84.0,120.0,49.0,15.0,929.0,90.0,350.0
241.0,30.0,83.0,125.0,53.0,14.0,928.0,87.0,348.0
239.0,20.0,84.0,126.0,55.0,15.0,932.0,89.0,351.0
237.0,25.0,88.0,124.0,56.0,14.0,941.0,84.0,356.0
241.0,21.0,87.0,122.0,56.0,15.0,936.0,85.0,355.0
239.0,21.0,89.0,118.0,55.0,15.0,938.0,86.0,357.0
241.0,22.0,87.0,114.0,52.0,17.0,939.0,79.0,360.0
243.0,24.0,92.0,111.0,46.0,19.0,942.0,85.0,355.0
243.0,24.0,85.0,111.0,41.0,18.0,945.0,86.0,350.0
236.0,27.0,89.0,105.0,33.0,20.0,945.0,91.0,357.0
241.0,25.0,90.0,102.0,25.0,20.0,942.0,86.0,359.0
238.0,22.0,87.0,98.0,17.0,20.0,940.0,86.0,355.0
237.0,16.0,88.0,96.0,10.0,22.0,937.0,85.0,347.0
238.0,21.0,87.0,98.0,2.0,24.0,940.0,78.0,348.0
242.0,21.0,84.0,103.0,-3.0,23.0,942.0,84.0,346.0
238.0,21.0,82.0,109.0,-5.0,23.0,936.0,75.0,346.0
240.0,23.0,80.0,115.0,-5.0,23.0,942.0,81.0,338.0
237.0,23.0,82.0,123.0,-2.0,23.0,941.0,79.0,343.0
238.0,22.0,90.0,128.0,-1.0,23.0,938.0,78.0,340.0
240.0,26.0,86.0,125.0,2.0,22.0,939.0,84.0,343.0
235.0,27.0,86.0,121.0,5.0,18.0,938.0,86.0,344.0
237.0,24.0,84.0,118.0,7.0,17.0,942.0,86.0,348.0
243.0,25.0,78.0,113.0,8.0,16.0,943.0,87.0,350.0
241.0,24.0,86.0,105.0,9.0,13.0,941.0,88.0,348.0
240.0,24.0,84.0,94.0,7.0,11.0,944.0,87.0,352.0
241.0,25.0,85.0,85.0,4.0,11.0,948.0,90.0,354.0
242.0,19.0,89.0,80.0,2.0,12.0,944.0,89.0,358.0
236.0,23.0,92.0,79.0,-2.0,13.0,941.0,88.0,356.0
238.0,22.0,92.0,82.0,-6.0,14.0,941.0,78.0,359.0
239.0,22.0,85.0,87.0,-13.0,16.0,935.0,76.0,355.0
240.0,18.0,86.0,95.0,-17.0,19.0,943.0,80.0,349.0
239.0,23.0,84.0,102.0,-21.0,21.0,940.0,80.0,351.0
242.0,27.0,84.0,108.0,-24.0,21.0,939.0,85.0,348.0
237.0,19.0,80.0,113.0,-24.0,18.0,940.0,85.0,348.0
239.0,24.0,83.0,115.0,-22.0,17.0,941.0,85.0,347.0
239.0,25.0,86.0,114.0,-20.0,11.0,932.0,92.0,345.0
237.0,25.0,79.0,108.0,-15.0,6.0,936.0,91.0,343.0
236.0,23.0,82.0,103.0,-10.0,-2.0,925.0,91.0,344.0
237.0,27.0,78.0,101.0,-6.0,-10.0,927.0,87.0,342.0
236.0,26.0,84.0,99.0,-2.0,-16.0,922.0,92.0,340.0
235.0,26.0,83.0,98.0,2.0,-18.0,928.0,84.0,332.0
241.0,21.0,83.0,99.0,7.0,-24.0,934.0,89.0,341.0
238.0,23.0,84.0,99.0,12.0,-25.0,937.0,83.0,344.0
241.0,23.0,80.0,96.0,20.0,-27.0,944.0,81.0,333.0
239.0,20.0,81.0,93.0,26.0,-26.0,942.0,74.0,347.0
242.0,22.0,83.0,90.0,32.0,-22.0,953.0,74.0,344.0
243.0,20.0,82.0,91.0,36.0,-15.0,952.0,71.0,346.0
242.0,17.0,80.0,91.0,39.0,-14.0,956.0,69.0,343.0
248.0,17.0,81.0,91.0,41.0,-9.0,960.0,70.0,343.0
244.0,19.0,82.0,89.0,41.0,-3.0,963.0,64.0,336.0
243.0,21.0,84.0,90.0,41.0,-2.0,958.0,71.0,343.0
245.0,20.0,81.0,90.0,40.0,-3.0,960.0,73.0,334.0
244.0,20.0,81.0,90.0,37.0,-2.0,962.0,74.0,338.0
240.0,21.0,80.0,93.0,36.0,-4.0,953.0,82.0,336.0
244.0,24.0,76.0,97.0,37.0,-7.0,956.0,91.0,334.0
245.0,24.0,78.0,98.0,36.0,-10.0,963.0,98.0,333.0
243.0,27.0,78.0,99.0,36.0,-12.0,951.0,98.0,339.0
246.0,26.0,83.0,103.0,38.0,-11.0,955.0,90.0,337.0
244.0,29.0,83.0,104.0,41.0,-10.0,948.0,103.0,337.0
244.0,32.0,82.0,100.0,42.0,-8.0,955.0,101.0,336.0
242.0,28.0,84.0,93.0,41.0,-10.0,954.0,103.0,332.0
241.0,29.0,82.0,90.0,39.0,-13.0,951.0,99.0,337.0
239.0,29.0,76.0,91.0,41.0,-14.0,940.0,99.0,338.0
244.0,24.0,84.0,91.0,42.0,-13.0,944.0,104.0,329.0
239.0,28.0,82.0,87.0,40.0,-9.0,943.0,98.0,343.0
239.0,32.0,80.0,84.0,40.0,-9.0,938.0,104.0,342.0
238.0,29.0,81.0,79.0,38.0,-10.0,934.0,101.0,345.0
240.0,25.0,85.0,79.0,35.0,-9.0,934.0,94.0,348.0
241.0,25.0,85.0,82.0,34.0,-8.0,941.0,101.0,347.0
240.0,30.0,84.0,80.0,36.0,-6.0,941.0,104.0,347.0
236.0,29.0,87.0,72.0,35.0,-4.0,940.0,102.0,344.0
238.0,28.0,82.0,68.0,37.0,-2.0,935.0,101.0,347.0
240.0,27.0,85.0,61.0,39.0,2.0,934.0,99.0,352.0
241.0,25.0,85.0,57.0,40.0,3.0,939.0,100.0,350.0
237.0,26.0,88.0,55.0,39.0,5.0,942.0,97.0,355.0
237.0,28.0,86.0,56.0,38.0,6.0,933.0,95.0,351.0
240.0,30.0,87.0,49.0,36.0,6.0,928.0,95.0,349.0
239.0,23.0,90.0,45.0,34.0,8.0,937.0,91.0,359.0
238.0,27.0,90.0,41.0,31.0,7.0,930.0,92.0,356.0
236.0,27.0,84.0,38.0,30.0,8.0,924.0,94.0,354.0
239.0,28.0,87.0,35.0,27.0,6.0,927.0,98.0,354.0
237.0,25.0,88.0,33.0,23.0,7.0,935.0,93.0,360.0
236.0,26.0,87.0,30.0,22.0,4.0,937.0,93.0,352.0
234.0,27.0,89.0,28.0,19.0,5.0,931.0,89.0,356.0
235.0,24.0,89.0,26.0,17.0,4.0,934.0,88.0,356.0
235.0,25.0,89.0,21.0,17.0,1.0,930.0,89.0,360.0
235.0,25.0,86.0,17.0,16.0,-1.0,932.0,90.0,354.0
233.0,25.0,89.0,12.0,15.0,-2.0,929.0,89.0,356.0
234.0,25.0,85.0,7.0,14.0,-1.0,928.0,82.0,359.0
239.0,22.0,87.0,2.0,14.0,-3.0,932.0,83.0,361.0
238.0,22.0,89.0,-2.0,15.0,-6.0,935.0,80.0,359.0
238.0,23.0,89.0,-2.0,15.0,-4.0,932.0,77.0,360.0
239.0,21.0,87.0,-2.0,15.0,-4.0,943.0,80.0,362.0
239.0,20.0,89.0,-2.0,12.0,-2.0,942.0,80.0,357.0
241.0,19.0,84.0,3.0,10.0,-2.0,943.0,74.0,357.0
243.0,17.0,87.0,8.0,9.0,-3.0,942.0,67.0,353.0
240.0,20.0,86.0,16.0,6.0,-4.0,946.0,70.0,357.0
243.0,19.0,85.0,23.0,5.0,-5.0,942.0,73.0,352.0
240.0,22.0,86.0,26.0,6.0,-5.0,947.0,76.0,348.0
248.0,22.0,85.0,31.0,6.0,-7.0,950.0,79.0,347.0
242.0,25.0,84.0,32.0,7.0,-7.0,942.0,73.0,344.0
241.0,23.0,82.0,33.0,6.0,-6.0,942.0,80.0,349.0
238.0,22.0,83.0,34.0,5.0,-9.0,938.0,73.0,343.0
240.0,21.0,83.0,35.0,4.0,-8.0,935.0,74.0,349.0
239.0,19.0,82.0,40.0,3.0,-7.0,932.0,73.0,345.0
236.0,21.0,84.0,43.0,4.0,-4.0,934.0,78.0,343.0
241.0,19.0,84.0,47.0,3.0,-5.0,932.0,82.0,344.0
237.0,21.0,82.0,51.0,6.0,-1.0,932.0,78.0,351.0
236.0,25.0,85.0,54.0,5.0,0.0,939.0,80.0,341.0
241.0,23.0,90.0,54.0,6.0,1.0,931.0,84.0,349.0
237.0,18.0,84.0,54.0,6.0,3.0,932.0,80.0,346.0
240.0,24.0,87.0,57.0,7.0,4.0,930.0,77.0,344.0
236.0,23.0,86.0,60.0,7.0,6.0,931.0,78.0,351.0
238.0,24.0,84.0,66.0,9.0,7.0,928.0,84.0,347.0
238.0,23.0,82.0,71.0,11.0,5.0,927.0,87.0,341.0
241.0,21.0,87.0,70.0,14.0,6.0,924.0,86.0,345.0
237.0,27.0,82.0,71.0,17.0,5.0,925.0,86.0,344.0
236.0,23.0,84.0,73.0,20.0,2.0,928.0,86.0,346.0
240.0,23.0,85.0,78.0,24.0,3.0,931.0,89.0,346.0
236.0,23.0,82.0,79.0,29.0,-1.0,932.0,86.0,339.0
234.0,23.0,82.0,79.0,34.0,-1.0,928.0,89.0,343.0
239.0,21.0,83.0,78.0,37.0,-3.0,934.0,82.0,342.0
238.0,21.0,82.0,78.0,39.0,-4.0,936.0,90.0,339.0
242.0,25.0,84.0,79.0,42.0,-6.0,937.0,84.0,342.0
238.0,24.0,84.0,80.0,44.0,-6.0,937.0,80.0,346.0
239.0,25.0,85.0,80.0,46.0,-6.0,935.0,83.0,348.0
241.0,24.0,88.0,78.0,48.0,-5.0,939.0,86.0,351.0
238.0,24.0,87.0,77.0,48.0,-5.0,947.0,83.0,346.0
241.0,23.0,86.0,76.0,47.0,-1.0,940.0,75.0,353.0
244.0,23.0,89.0,75.0,47.0,2.0,952.0,80.0,349.0
242.0,26.0,82.0,72.0,43.0,0.0,941.0,86.0,354.0
232.0,26.0,91.0,71.0,39.0,0.0,941.0,83.0,362.0
238.0,25.0,89.0,73.0,37.0,1.0,937.0,84.0,363.0
242.0,24.0,89.0,75.0,34.0,3.0,936.0,83.0,364.0
238.0,26.0,88.0,76.0,28.0,4.0,936.0,80.0,364.0
241.0,18.0,90.0,75.0,23.0,9.0,933.0,78.0,365.0
238.0,22.0,90.0,72.0,17.0,9.0,934.0,82.0,367.0
237.0,26.0,90.0,70.0,11.0,9.0,934.0,79.0,368.0
239.0,23.0,89.0,68.0,5.0,8.0,931.0,82.0,367.0
239.0,23.0,91.0,67.0,1.0,8.0,934.0,72.0,363.0
238.0,22.0,87.0,68.0,-2.0,7.0,931.0,78.0,364.0
235.0,26.0,89.0,72.0,-7.0,4.0,927.0,80.0,361.0
235.0,21.0,84.0,74.0,-9.0,5.0,926.0,84.0,349.0
235.0,24.0,85.0,78.0,-11.0,4.0,932.0,88.0,349.0
240.0,23.0,84.0,82.0,-9.0,3.0,932.0,87.0,347.0
237.0,25.0,84.0,86.0,-8.0,3.0,932.0,95.0,344.0
239.0,25.0,84.0,87.0,-7.0,-2.0,931.0,90.0,343.0
239.0,26.0,81.0,90.0,-4.0,-3.0,931.0,92.0,342.0
240.0,24.0,82.0,92.0,3.0,-4.0,937.0,92.0,341.0
239.0,23.0,82.0,90.0,8.0,-3.0,932.0,91.0,341.0
237.0,24.0,83.0,87.0,16.0,-3.0,938.0,90.0,342.0
239.0,25.0,84.0,81.0,21.0,-5.0,939.0,89.0,342.0
242.0,21.0,86.0,76.0,25.0,-5.0,939.0,84.0,341.0
234.0,25.0,83.0,74.0,30.0,-5.0,937.0,78.0,340.0
239.0,20.0,86.0,77.0,35.0,-5.0,948.0,73.0,344.0
241.0,23.0,86.0,80.0,40.0,-2.0,949.0,77.0,344.0
242.0,22.0,84.0,83.0,42.0,0.0,944.0,75.0,343.0
243.0,22.0,80.0,86.0,46.0,0.0,951.0,80.0,341.0
241.0,25.0,84.0,88.0,47.0,1.0,947.0,77.0,344.0
242.0,22.0,84.0,86.0,47.0,3.0,954.0,80.0,342.0
241.0,22.0,85.0,84.0,46.0,4.0,952.0,84.0,346.0
244.0,26.0,86.0,81.0,47.0,1.0,954.0,90.0,347.0
243.0,25.0,87.0,80.0,47.0,-2.0,956.0,94.0,344.0
244.0,23.0,83.0,78.0,45.0,-6.0,953.0,92.0,341.0
239.0,25.0,88.0,75.0,42.0,-5.0,943.0,97.0,347.0
238.0,27.0,86.0,73.0,38.0,-6.0,940.0,89.0,352.0
239.0,26.0,85.0,74.0,37.0,-9.0,942.0,86.0,348.0
239.0,27.0,87.0,75.0,35.0,-7.0,938.0,91.0,352.0
238.0,22.0,91.0,80.0,30.0,-7.0,939.0,83.0,354.0
238.0,26.0,85.0,85.0,27.0,-4.0,938.0,83.0,348.0
242.0,22.0,88.0,88.0,25.0,-3.0,935.0,84.0,350.0
239.0,25.0,82.0,87.0,25.0,-3.0,941.0,89.0,359.0
240.0,27.0,87.0,86.0,24.0,-3.0,939.0,99.0,356.0
241.0,28.0,86.0,83.0,27.0,-4.0,932.0,92.0,347.0
236.0,27.0,86.0,77.0,29.0,-7.0,932.0,91.0,349.0
230.0,30.0,81.0,72.0,33.0,-12.0,926.0,94.0,358.0
238.0,22.0,87.0,64.0,37.0,-16.0,925.0,91.0,356.0
236.0,26.0,86.0,59.0,42.0,-19.0,929.0,93.0,356.0
239.0,28.0,87.0,53.0,47.0,-21.0,935.0,92.0,352.0
238.0,25.0,83.0,50.0,49.0,-25.0,935.0,94.0,350.0
238.0,25.0,84.0,48.0,52.0,-26.0,928.0,88.0,347.0
240.0,23.0,86.0,47.0,55.0,-29.0,936.0,94.0,356.0
236.0,27.0,85.0,44.0,58.0,-29.0,940.0,87.0,346.0
237.0,25.0,87.0,42.0,58.0,-28.0,937.0,87.0,349.0
241.0,27.0,90.0,37.0,58.0,-27.0,940.0,84.0,356.0
238.0,26.0,82.0,30.0,57.0,-28.0,941.0,84.0,363.0
241.0,24.0,85.0,29.0,55.0,-28.0,938.0,83.0,355.0
241.0,23.0,84.0,25.0,51.0,-31.0,942.0,86.0,366.0
241.0,19.0,89.0,22.0,45.0,-31.0,941.0,77.0,359.0
243.0,22.0,90.0,20.0,40.0,-31.0,942.0,77.0,361.0
241.0,22.0,88.0,18.0,35.0,-32.0,935.0,80.0,359.0
240.0,21.0,83.0,17.0,29.0,-32.0,943.0,79.0,354.0
241.0,23.0,90.0,13.0,25.0,-33.0,943.0,83.0,351.0
238.0,23.0,87.0,10.0,24.0,-31.0,945.0,79.0,354.0
237.0,23.0,86.0,10.0,24.0,-32.0,942.0,84.0,353.0
240.0,25.0,88.0,13.0,25.0,-32.0,938.0,78.0,358.0
243.0,22.0,87.0,19.0,25.0,-31.0,942.0,77.0,353.0
237.0,16.0,85.0,24.0,27.0,-28.0,935.0,83.0,345.0
239.0,21.0,86.0,29.0,26.0,-26.0,939.0,82.0,352.0
237.0,24.0,86.0,36.0,27.0,-28.0,928.0,84.0,349.0
239.0,23.0,87.0,37.0,29.0,-19.0,935.0,84.0,354.0
239.0,24.0,85.0,40.0,35.0,-20.0,934.0,85.0,351.0
240.0,29.0,90.0,38.0,33.0,-21.0,936.0,89.0,359.0
239.0,24.0,89.0,43.0,34.0,-21.0,940.0,89.0,356.0
237.0,28.0,86.0,47.0,37.0,-19.0,937.0,92.0,361.0
239.0,23.0,86.0,47.0,38.0,-18.0,935.0,86.0,364.0
238.0,24.0,86.0,46.0,37.0,-20.0,940.0,89.0,365.0
239.0,25.0,90.0,48.0,36.0,-18.0,939.0,89.0,359.0
234.0,35.0,85.0,50.0,36.0,-15.0,938.0,86.0,362.0
240.0,25.0,90.0,52.0,34.0,-13.0,934.0,92.0,362.0
235.0,27.0,89.0,55.0,34.0,-14.0,939.0,88.0,364.0
238.0,25.0,92.0,56.0,32.0,-13.0,929.0,94.0,361.0
238.0,25.0,87.0,57.0,30.0,-11.0,931.0,93.0,365.0
238.0,27.0,88.0,58.0,29.0,-12.0,933.0,93.0,364.0
238.0,25.0,88.0,57.0,26.0,-10.0,934.0,96.0,360.0
236.0,23.0,87.0,56.0,24.0,-9.0,923.0,91.0,367.0
236.0,29.0,91.0,58.0,19.0,-5.0,925.0,96.0,355.0
235.0,26.0,90.0,55.0,19.0,-3.0,929.0,94.0,357.0
234.0,31.0,92.0,50.0,16.0,-2.0,929.0,93.0,370.0
232.0,26.0,87.0,50.0,14.0,-2.0,924.0,96.0,366.0
235.0,27.0,89.0,52.0,12.0,-2.0,922.0,94.0,363.0
236.0,24.0,89.0,56.0,13.0,-3.0,927.0,92.0,363.0
236.0,24.0,87.0,59.0,15.0,-2.0,931.0,87.0,352.0
238.0,24.0,88.0,62.0,18.0,-3.0,923.0,94.0,356.0
236.0,24.0,90.0,62.0,18.0,-1.0,927.0,90.0,359.0
236.0,23.0,88.0,62.0,20.0,-3.0,925.0,91.0,357.0
237.0,27.0,86.0,60.0,23.0,-4.0,929.0,95.0,356.0
234.0,23.0,85.0,59.0,26.0,-3.0,926.0,91.0,359.0
235.0,24.0,91.0,55.0,27.0,-2.0,927.0,90.0,357.0
234.0,30.0,84.0,53.0,29.0,-2.0,932.0,90.0,359.0
237.0,25.0,91.0,51.0,31.0,-4.0,930.0,87.0,366.0
237.0,27.0,86.0,50.0,29.0,-2.0,932.0,88.0,363.0
238.0,28.0,90.0,52.0,28.0,-1.0,939.0,85.0,360.0
237.0,23.0,88.0,53.0,23.0,-2.0,938.0,88.0,361.0
240.0,25.0,88.0,56.0,22.0,-1.0,939.0,89.0,358.0
238.0,26.0,86.0,58.0,19.0,0.0,941.0,85.0,360.0
243.0,22.0,89.0,61.0,14.0,0.0,939.0,82.0,358.0
242.0,23.0,89.0,66.0,9.0,-1.0,942.0,83.0,356.0
237.0,20.0,87.0,67.0,6.0,-4.0,938.0,84.0,361.0
241.0,27.0,89.0,66.0,4.0,-5.0,941.0,94.0,359.0
237.0,26.0,87.0,62.0,2.0,-6.0,936.0,99.0,360.0
237.0,28.0,87.0,55.0,1.0,-7.0,930.0,96.0,355.0
238.0,25.0,89.0,48.0,-1.0,-11.0,934.0,97.0,355.0
234.0,29.0,91.0,39.0,-3.0,-8.0,928.0,94.0,366.0
237.0,24.0,89.0,33.0,-4.0,-8.0,930.0,90.0,363.0
236.0,23.0,88.0,30.0,-4.0,-10.0,926.0,86.0,360.0
238.0,23.0,90.0,29.0,-5.0,-9.0,929.0,81.0,361.0
237.0,18.0,86.0,29.0,-6.0,-10.0,924.0,83.0,364.0
236.0,21.0,86.0,32.0,-5.0,-11.0,931.0,84.0,359.0
238.0,23.0,85.0,34.0,-5.0,-9.0,927.0,83.0,356.0
235.0,24.0,87.0,36.0,-4.0,-9.0,926.0,83.0,359.0
238.0,22.0,83.0,38.0,-4.0,-9.0,936.0,79.0,359.0
241.0,23.0,86.0,43.0,-3.0,-9.0,925.0,85.0,356.0
235.0,24.0,87.0,45.0,-4.0,-9.0,927.0,84.0,360.0
240.0,20.0,88.0,48.0,-3.0,-8.0,929.0,79.0,361.0
238.0,24.0,87.0,53.0,-2.0,-9.0,932.0,82.0,359.0
237.0,25.0,86.0,59.0,-1.0,-9.0,934.0,85.0,354.0
239.0,22.0,87.0,63.0,4.0,-11.0,934.0,88.0,356.0
237.0,22.0,88.0,66.0,6.0,-11.0,933.0,90.0,350.0
240.0,25.0,85.0,70.0,11.0,-11.0,931.0,86.0,356.0
237.0,27.0,85.0,72.0,15.0,-13.0,937.0,90.0,355.0
241.0,25.0,84.0,74.0,17.0,-12.0,936.0,88.0,362.0
238.0,27.0,85.0,76.0,19.0,-13.0,936.0,84.0,361.0
239.0,23.0,88.0,78.0,20.0,-12.0,937.0,84.0,364.0
238.0,25.0,90.0,79.0,20.0,-13.0,939.0,86.0,363.0
237.0,22.0,88.0,80.0,20.0,-14.0,939.0,84.0,363.0
239.0,23.0,90.0,80.0,19.0,-10.0,944.0,85.0,362.0
241.0,24.0,86.0,81.0,17.0,-10.0,936.0,80.0,360.0
240.0,21.0,88.0,84.0,14.0,-8.0,944.0,86.0,365.0
237.0,20.0,92.0,84.0,11.0,-7.0,939.0,84.0,356.0
238.0,24.0,87.0,89.0,8.0,-7.0,941.0,82.0,357.0
235.0,24.0,91.0,90.0,5.0,-6.0,930.0,85.0,362.0
239.0,26.0,90.0,91.0,3.0,-7.0,940.0,82.0,359.0
233.0,29.0,92.0,90.0,1.0,-7.0,930.0,85.0,353.0
238.0,24.0,88.0,91.0,-3.0,-5.0,930.0,85.0,356.0
238.0,25.0,87.0,89.0,-4.0,-5.0,936.0,85.0,356.0
239.0,21.0,88.0,90.0,-4.0,-4.0,931.0,85.0,361.0
236.0,23.0,86.0,94.0,-3.0,-7.0,933.0,88.0,354.0
236.0,23.0,86.0,99.0,-4.0,-7.0,932.0,88.0,353.0
238.0,22.0,86.0,104.0,-2.0,-8.0,928.0,82.0,356.0
237.0,22.0,84.0,107.0,1.0,-8.0,931.0,89.0,360.0
235.0,23.0,86.0,112.0,3.0,-7.0,924.0,84.0,357.0
234.0,22.0,82.0,114.0,5.0,-8.0,923.0,82.0,357.0
242.0,19.0,86.0,113.0,9.0,-8.0,933.0,81.0,356.0
237.0,21.0,82.0,114.0,11.0,-8.0,930.0,83.0,350.0
237.0,26.0,88.0,116.0,12.0,-9.0,932.0,90.0,350.0
237.0,26.0,86.0,119.0,13.0,-10.0,932.0,94.0,351.0
239.0,25.0,84.0,120.0,15.0,-12.0,929.0,98.0,359.0
236.0,26.0,87.0,121.0,16.0,-13.0,927.0,96.0,350.0
240.0,25.0,86.0,119.0,15.0,-9.0,932.0,99.0,357.0
237.0,28.0,87.0,116.0,16.0,-12.0,932.0,99.0,357.0
241.0,28.0,89.0,110.0,18.0,-13.0,938.0,102.0,354.0
239.0,29.0,89.0,105.0,18.0,-14.0,939.0,98.0,352.0
236.0,30.0,85.0,101.0,16.0,-14.0,938.0,91.0,353.0
242.0,22.0,87.0,100.0,14.0,-14.0,934.0,90.0,352.0
243.0,20.0,87.0,103.0,9.0,-15.0,935.0,86.0,351.0
237.0,25.0,85.0,108.0,5.0,-14.0,937.0,84.0,356.0
237.0,24.0,86.0,111.0,1.0,-17.0,941.0,88.0,347.0
238.0,27.0,85.0,114.0,-2.0,-16.0,937.0,91.0,355.0
239.0,23.0,86.0,116.0,-5.0,-17.0,941.0,87.0,350.0
239.0,25.0,87.0,118.0,-4.0,-16.0,941.0,86.0,356.0
241.0,28.0,85.0,120.0,-5.0,-15.0,939.0,83.0,351.0
238.0,25.0,84.0,120.0,-4.0,-11.0,939.0,92.0,352.0
241.0,26.0,88.0,119.0,-3.0,-13.0,940.0,90.0,349.0
239.0,24.0,86.0,117.0,-1.0,-14.0,938.0,88.0,356.0
237.0,25.0,85.0,115.0,-2.0,-14.0,937.0,88.0,352.0
234.0,30.0,86.0,116.0,-2.0,-13.0,936.0,88.0,350.0
240.0,24.0,83.0,116.0,-1.0,-12.0,937.0,92.0,341.0
240.0,24.0,82.0,116.0,-2.0,-12.0,938.0,92.0,350.0
241.0,23.0,88.0,117.0,-1.0,-12.0,941.0,90.0,343.0
235.0,26.0,84.0,116.0,0.0,-13.0,935.0,98.0,349.0
242.0,25.0,88.0,118.0,2.0,-14.0,937.0,96.0,349.0
239.0,30.0,82.0,120.0,6.0,-14.0,937.0,100.0,350.0
237.0,27.0,84.0,124.0,10.0,-16.0,937.0,97.0,355.0
240.0,30.0,84.0,126.0,13.0,-18.0,926.0,97.0,352.0
241.0,30.0,82.0,127.0,17.0,-22.0,935.0,96.0,350.0
240.0,28.0,84.0,125.0,22.0,-23.0,934.0,100.0,348.0
231.0,23.0,89.0,129.0,26.0,-27.0,934.0,100.0,345.0
238.0,28.0,84.0,133.0,27.0,-29.0,936.0,95.0,353.0
235.0,30.0,86.0,133.0,30.0,-28.0,940.0,86.0,352.0
239.0,28.0,92.0,135.0,33.0,-29.0,937.0,97.0,358.0
238.0,26.0,86.0,138.0,32.0,-29.0,940.0,95.0,362.0
241.0,26.0,89.0,140.0,29.0,-30.0,936.0,96.0,366.0
239.0,27.0,97.0,145.0,27.0,-28.0,935.0,90.0,375.0
240.0,30.0,96.0,150.0,21.0,-27.0,942.0,96.0,377.0
242.0,22.0,92.0,156.0,14.0,-27.0,941.0,97.0,370.0
243.0,21.0,92.0,161.0,4.0,-28.0,941.0,93.0,374.0
238.0,25.0,95.0,163.0,-9.0,-25.0,942.0,92.0,375.0
241.0,25.0,90.0,162.0,-23.0,-24.0,949.0,91.0,370.0
239.0,27.0,89.0,157.0,-36.0,-25.0,945.0,84.0,370.0
238.0,28.0,92.0,146.0,-52.0,-21.0,949.0,92.0,360.0
240.0,24.0,88.0,134.0,-63.0,-19.0,945.0,91.0,360.0
237.0,26.0,91.0,124.0,-74.0,-19.0,940.0,95.0,348.0
237.0,28.0,84.0,115.0,-86.0,-13.0,934.0,98.0,344.0
242.0,24.0,83.0,112.0,-95.0,-7.0,938.0,95.0,338.0
240.0,30.0,82.0,109.0,-93.0,-10.0,934.0,98.0,329.0
236.0,27.0,81.0,111.0,-89.0,-10.0,933.0,101.0,335.0
237.0,27.0,83.0,118.0,-80.0,-11.0,928.0,109.0,327.0
235.0,29.0,81.0,124.0,-66.0,-16.0,930.0,103.0,335.0
234.0,30.0,83.0,130.0,-53.0,-21.0,926.0,106.0,332.0
238.0,33.0,83.0,135.0,-35.0,-28.0,921.0,110.0,340.0
238.0,34.0,82.0,139.0,-18.0,-32.0,918.0,111.0,332.0
238.0,30.0,82.0,141.0,-4.0,-35.0,923.0,113.0,334.0
237.0,31.0,82.0,142.0,7.0,-36.0,929.0,112.0,340.0
239.0,32.0,84.0,141.0,14.0,-37.0,931.0,111.0,334.0
238.0,34.0,83.0,137.0,22.0,-35.0,934.0,115.0,340.0
242.0,31.0,84.0,131.0,27.0,-33.0,935.0,117.0,345.0
241.0,31.0,80.0,123.0,28.0,-35.0,936.0,114.0,344.0
240.0,32.0,85.0,114.0,28.0,-33.0,941.0,113.0,347.0
244.0,25.0,97.0,106.0,27.0,-32.0,939.0,109.0,358.0
240.0,32.0,85.0,98.0,23.0,-31.0,939.0,112.0,353.0
241.0,28.0,86.0,90.0,20.0,-30.0,937.0,109.0,359.0
239.0,31.0,88.0,85.0,18.0,-29.0,941.0,104.0,359.0
238.0,30.0,83.0,80.0,15.0,-28.0,942.0,104.0,358.0
239.0,31.0,87.0,74.0,13.0,-27.0,940.0,101.0,361.0
238.0,29.0,86.0,71.0,9.0,-26.0,936.0,100.0,355.0
239.0,28.0,84.0,70.0,9.0,-25.0,934.0,105.0,353.0
240.0,27.0,87.0,73.0,8.0,-25.0,932.0,100.0,355.0
235.0,30.0,86.0,72.0,6.0,-26.0,935.0,103.0,343.0
239.0,27.0,87.0,71.0,6.0,-24.0,930.0,102.0,345.0
235.0,26.0,84.0,70.0,7.0,-24.0,938.0,105.0,350.0
235.0,32.0,86.0,72.0,9.0,-24.0,938.0,105.0,343.0
237.0,29.0,85.0,70.0,11.0,-23.0,936.0,100.0,346.0
240.0,33.0,84.0,70.0,14.0,-22.0,937.0,103.0,346.0
237.0,28.0,85.0,70.0,15.0,-23.0,933.0,109.0,342.0
239.0,32.0,85.0,69.0,18.0,-22.0,934.0,110.0,344.0
239.0,31.0,85.0,66.0,21.0,-21.0,942.0,110.0,344.0
241.0,33.0,86.0,63.0,22.0,-22.0,937.0,111.0,353.0
238.0,33.0,83.0,63.0,24.0,-20.0,941.0,110.0,349.0
242.0,32.0,85.0,60.0,23.0,-19.0,938.0,113.0,347.0
239.0,32.0,84.0,58.0,21.0,-17.0,938.0,107.0,353.0
239.0,29.0,81.0,58.0,19.0,-16.0,938.0,110.0,349.0
241.0,28.0,82.0,60.0,17.0,-14.0,940.0,109.0,349.0
239.0,32.0,87.0,62.0,17.0,-12.0,941.0,102.0,350.0
240.0,27.0,88.0,66.0,13.0,-11.0,932.0,97.0,353.0
240.0,28.0,86.0,70.0,11.0,-11.0,938.0,99.0,351.0
240.0,26.0,81.0,76.0,9.0,-11.0,938.0,97.0,360.0
242.0,27.0,85.0,82.0,7.0,-9.0,942.0,102.0,347.0
243.0,27.0,85.0,86.0,5.0,-11.0,942.0,103.0,352.0
239.0,30.0,88.0,87.0,6.0,-11.0,938.0,106.0,349.0
240.0,30.0,85.0,85.0,5.0,-12.0,941.0,105.0,352.0
238.0,30.0,87.0,81.0,6.0,-14.0,932.0,114.0,348.0
237.0,31.0,83.0,74.0,6.0,-17.0,941.0,107.0,348.0
238.0,30.0,85.0,68.0,10.0,-16.0,931.0,111.0,354.0
235.0,31.0,88.0,63.0,11.0,-17.0,937.0,111.0,349.0
238.0,31.0,86.0,58.0,10.0,-15.0,927.0,105.0,350.0
237.0,29.0,85.0,54.0,10.0,-13.0,933.0,103.0,355.0
235.0,30.0,83.0,51.0,9.0,-14.0,932.0,109.0,347.0
237.0,30.0,88.0,48.0,8.0,-11.0,933.0,102.0,346.0
238.0,30.0,82.0,48.0,6.0,-9.0,932.0,108.0,353.0
236.0,32.0,88.0,45.0,2.0,-7.0,935.0,101.0,350.0
237.0,29.0,88.0,40.0,-3.0,-3.0,935.0,104.0,354.0
241.0,33.0,88.0,39.0,-7.0,-1.0,936.0,101.0,343.0
237.0,27.0,91.0,38.0,-9.0,-1.0,941.0,104.0,350.0
239.0,30.0,81.0,40.0,-9.0,-1.0,931.0,99.0,348.0
239.0,30.0,87.0,41.0,-9.0,-1.0,942.0,107.0,344.0
239.0,28.0,86.0,40.0,-7.0,-2.0,941.0,103.0,343.0
241.0,27.0,84.0,40.0,-5.0,-4.0,938.0,106.0,341.0
241.0,27.0,83.0,40.0,0.0,-6.0,938.0,104.0,341.0
236.0,30.0,81.0,43.0,4.0,-10.0,941.0,107.0,344.0
243.0,27.0,85.0,45.0,8.0,-7.0,939.0,107.0,338.0
237.0,32.0,86.0,47.0,11.0,-8.0,939.0,100.0,340.0
240.0,29.0,87.0,45.0,12.0,-9.0,943.0,106.0,350.0
240.0,30.0,86.0,48.0,16.0,-10.0,942.0,103.0,346.0
240.0,24.0,90.0,47.0,16.0,-11.0,936.0,100.0,346.0
241.0,31.0,86.0,47.0,16.0,-8.0,942.0,99.0,345.0
240.0,29.0,82.0,45.0,15.0,-8.0,940.0,99.0,351.0
241.0,27.0,84.0,46.0,14.0,-11.0,939.0,99.0,344.0
242.0,26.0,84.0,49.0,13.0,-10.0,938.0,98.0,350.0
239.0,26.0,81.0,49.0,11.0,-13.0,943.0,105.0,345.0
237.0,29.0,85.0,50.0,12.0,-12.0,938.0,101.0,344.0
242.0,30.0,81.0,53.0,9.0,-13.0,941.0,99.0,341.0
242.0,26.0,82.0,55.0,10.0,-15.0,932.0,105.0,344.0
241.0,27.0,85.0,55.0,9.0,-12.0,942.0,107.0,344.0
239.0,30.0,87.0,55.0,7.0,-14.0,939.0,106.0,342.0
237.0,28.0,83.0,56.0,9.0,-16.0,937.0,111.0,344.0
238.0,31.0,84.0,57.0,8.0,-16.0,941.0,112.0,346.0
241.0,31.0,79.0,56.0,9.0,-16.0,937.0,109.0,343.0
242.0,31.0,88.0,55.0,8.0,-15.0,939.0,108.0,347.0
239.0,31.0,84.0,55.0,7.0,-15.0,942.0,113.0,345.0
238.0,31.0,85.0,53.0,6.0,-15.0,941.0,108.0,346.0
240.0,31.0,82.0,54.0,6.0,-13.0,934.0,106.0,345.0
243.0,29.0,88.0,55.0,5.0,-14.0,938.0,116.0,353.0
239.0,33.0,81.0,56.0,3.0,-12.0,930.0,109.0,344.0
242.0,31.0,91.0,54.0,2.0,-11.0,938.0,114.0,349.0
237.0,31.0,88.0,55.0,0.0,-10.0,940.0,108.0,357.0
237.0,30.0,84.0,54.0,-6.0,-8.0,937.0,117.0,346.0
239.0,33.0,85.0,53.0,-8.0,-8.0,939.0,116.0,347.0
238.0,34.0,84.0,54.0,-9.0,-10.0,935.0,111.0,346.0
241.0,32.0,83.0,52.0,-11.0,-12.0,938.0,111.0,350.0
241.0,33.0,84.0,51.0,-12.0,-11.0,940.0,122.0,349.0
237.0,33.0,82.0,47.0,-14.0,-9.0,939.0,114.0,346.0
238.0,33.0,86.0,44.0,-14.0,-8.0,940.0,113.0,352.0
239.0,25.0,82.0,43.0,-17.0,-7.0,941.0,108.0,349.0
237.0,31.0,83.0,42.0,-20.0,-4.0,941.0,108.0,351.0
239.0,29.0,86.0,38.0,-24.0,-1.0,941.0,105.0,343.0
236.0,26.0,91.0,38.0,-27.0,3.0,938.0,104.0,354.0
242.0,28.0,83.0,41.0,-31.0,1.0,939.0,105.0,345.0
238.0,31.0,86.0,42.0,-34.0,3.0,934.0,106.0,350.0
238.0,34.0,82.0,40.0,-37.0,5.0,934.0,115.0,347.0
237.0,30.0,83.0,37.0,-39.0,4.0,932.0,114.0,354.0
237.0,34.0,85.0,33.0,-42.0,2.0,929.0,116.0,342.0
238.0,32.0,84.0,29.0,-46.0,2.0,930.0,114.0,342.0
236.0,32.0,85.0,28.0,-44.0,2.0,933.0,110.0,345.0
238.0,29.0,83.0,31.0,-41.0,-1.0,937.0,108.0,341.0
236.0,32.0,84.0,35.0,-34.0,-2.0,928.0,108.0,336.0
235.0,30.0,85.0,35.0,-32.0,0.0,941.0,106.0,338.0
240.0,26.0,77.0,35.0,-30.0,1.0,942.0,108.0,340.0
241.0,32.0,82.0,34.0,-23.0,0.0,940.0,106.0,343.0
240.0,28.0,83.0,34.0,-20.0,0.0,939.0,102.0,335.0
242.0,28.0,84.0,32.0,-15.0,-3.0,944.0,102.0,337.0
243.0,27.0,84.0,27.0,-11.0,-6.0,942.0,105.0,339.0
241.0,30.0,83.0,22.0,-7.0,-7.0,941.0,103.0,340.0
241.0,30.0,82.0,15.0,-7.0,-7.0,938.0,101.0,343.0
241.0,26.0,86.0,11.0,-5.0,-8.0,940.0,104.0,341.0
238.0,25.0,82.0,7.0,-6.0,-7.0,944.0,95.0,343.0
240.0,26.0,84.0,8.0,-7.0,-5.0,942.0,97.0,349.0
240.0,30.0,85.0,8.0,-8.0,-4.0,945.0,99.0,345.0
239.0,26.0,86.0,8.0,-10.0,-2.0,943.0,100.0,343.0
240.0,30.0,82.0,6.0,-10.0,-1.0,946.0,99.0,350.0
240.0,29.0,83.0,3.0,-10.0,1.0,937.0,105.0,348.0
242.0,28.0,83.0,1.0,-10.0,4.0,941.0,101.0,341.0
239.0,29.0,86.0,-2.0,-10.0,4.0,935.0,98.0,342.0
238.0,27.0,84.0,1.0,-9.0,3.0,937.0,97.0,344.0
240.0,23.0,81.0,4.0,-7.0,-2.0,937.0,94.0,342.0
241.0,25.0,86.0,10.0,-6.0,-3.0,940.0,92.0,337.0
237.0,25.0,86.0,15.0,-4.0,-5.0,937.0,89.0,340.0
238.0,26.0,85.0,24.0,-3.0,-4.0,943.0,91.0,331.0
243.0,29.0,82.0,29.0,-2.0,-5.0,944.0,103.0,334.0
243.0,28.0,76.0,32.0,-2.0,-5.0,937.0,102.0,332.0
242.0,32.0,80.0,28.0,3.0,-4.0,943.0,105.0,333.0
242.0,28.0,83.0,24.0,6.0,-6.0,943.0,100.0,338.0
242.0,29.0,81.0,17.0,10.0,-6.0,942.0,103.0,336.0
240.0,26.0,84.0,9.0,12.0,-3.0,941.0,99.0,344.0
240.0,25.0,81.0,1.0,13.0,-2.0,937.0,97.0,338.0
240.0,25.0,88.0,-6.0,14.0,1.0,939.0,92.0,342.0
242.0,25.0,84.0,-10.0,13.0,4.0,943.0,91.0,347.0
240.0,25.0,85.0,-11.0,10.0,10.0,936.0,90.0,351.0
238.0,25.0,84.0,-11.0,9.0,12.0,941.0,94.0,343.0
242.0,25.0,83.0,-11.0,7.0,18.0,941.0,92.0,343.0
239.0,21.0,83.0,-8.0,4.0,20.0,948.0,89.0,343.0
243.0,26.0,79.0,-4.0,4.0,23.0,948.0,88.0,339.0
242.0,24.0,82.0,-1.0,5.0,22.0,946.0,100.0,335.0
241.0,28.0,81.0,2.0,5.0,20.0,952.0,98.0,331.0
243.0,30.0,84.0,4.0,7.0,21.0,951.0,104.0,339.0
240.0,28.0,83.0,8.0,8.0,20.0,956.0,106.0,336.0
240.0,29.0,81.0,12.0,9.0,19.0,946.0,102.0,337.0
236.0,25.0,82.0,15.0,12.0,18.0,950.0,99.0,334.0
243.0,26.0,80.0,16.0,13.0,18.0,951.0,97.0,338.0
244.0,27.0,81.0,18.0,15.0,20.0,950.0,100.0,337.0
242.0,22.0,80.0,22.0,13.0,25.0,948.0,93.0,337.0
249.0,28.0,82.0,27.0,12.0,27.0,944.0,93.0,341.0
242.0,30.0,82.0,32.0,11.0,28.0,940.0,97.0,343.0
240.0,27.0,82.0,39.0,9.0,27.0,938.0,95.0,344.0
239.0,29.0,83.0,45.0,8.0,27.0,937.0,98.0,339.0
238.0,27.0,82.0,49.0,7.0,26.0,941.0,98.0,335.0
238.0,28.0,81.0,51.0,8.0,24.0,938.0,102.0,346.0
242.0,26.0,82.0,54.0,6.0,23.0,936.0,99.0,343.0
239.0,30.0,84.0,54.0,7.0,21.0,932.0,106.0,340.0
238.0,28.0,83.0,55.0,6.0,19.0,941.0,107.0,345.0
236.0,29.0,85.0,53.0,10.0,17.0,935.0,110.0,337.0
237.0,30.0,83.0,49.0,10.0,16.0,937.0,106.0,338.0
237.0,27.0,79.0,44.0,13.0,18.0,932.0,108.0,341.0
239.0,31.0,83.0,40.0,13.0,17.0,940.0,109.0,334.0
241.0,27.0,82.0,37.0,14.0,18.0,938.0,105.0,339.0
238.0,28.0,80.0,31.0,14.0,18.0,939.0,105.0,340.0
240.0,29.0,87.0,27.0,14.0,19.0,944.0,101.0,336.0
239.0,25.0,86.0,23.0,14.0,20.0,945.0,99.0,346.0
243.0,26.0,83.0,18.0,12.0,21.0,939.0,100.0,343.0
240.0,25.0,87.0,15.0,7.0,20.0,942.0,101.0,337.0
240.0,25.0,83.0,15.0,7.0,18.0,948.0,96.0,347.0
240.0,27.0,79.0,14.0,6.0,15.0,944.0,96.0,334.0
238.0,33.0,83.0,14.0,5.0,13.0,950.0,93.0,339.0
244.0,25.0,84.0,13.0,3.0,8.0,950.0,99.0,334.0
240.0,29.0,84.0,13.0,4.0,6.0,944.0,94.0,339.0
240.0,28.0,81.0,12.0,5.0,5.0,948.0,101.0,331.0
244.0,26.0,78.0,9.0,7.0,3.0,950.0,98.0,332.0
241.0,27.0,80.0,8.0,9.0,1.0,955.0,103.0,329.0
240.0,29.0,78.0,5.0,9.0,1.0,940.0,95.0,330.0
239.0,25.0,79.0,5.0,12.0,2.0,945.0,94.0,337.0
240.0,21.0,80.0,7.0,13.0,3.0,944.0,91.0,326.0
241.0,23.0,80.0,10.0,12.0,5.0,947.0,83.0,330.0
242.0,26.0,85.0,20.0,13.0,5.0,949.0,81.0,328.0
243.0,23.0,82.0,28.0,14.0,4.0,943.0,81.0,331.0
235.0,22.0,77.0,36.0,14.0,4.0,944.0,86.0,329.0
242.0,32.0,81.0,41.0,15.0,2.0,945.0,88.0,331.0
240.0,24.0,84.0,44.0,18.0,1.0,946.0,86.0,342.0
238.0,24.0,80.0,44.0,21.0,-2.0,941.0,89.0,337.0
240.0,26.0,84.0,42.0,20.0,-3.0,941.0,86.0,340.0
241.0,27.0,84.0,39.0,22.0,-8.0,941.0,93.0,339.0
239.0,29.0,84.0,35.0,24.0,-11.0,941.0,87.0,336.0
241.0,24.0,86.0,31.0,28.0,-14.0,943.0,89.0,341.0
241.0,24.0,80.0,28.0,29.0,-15.0,936.0,94.0,346.0
242.0,26.0,80.0,25.0,29.0,-12.0,941.0,87.0,348.0
244.0,24.0,82.0,25.0,30.0,-13.0,939.0,94.0,341.0
241.0,22.0,85.0,26.0,28.0,-11.0,936.0,93.0,341.0
242.0,24.0,84.0,27.0,25.0,-9.0,942.0,85.0,337.0
242.0,26.0,80.0,27.0,23.0,-6.0,952.0,88.0,334.0
242.0,26.0,85.0,29.0,21.0,-5.0,944.0,91.0,343.0
241.0,27.0,84.0,28.0,19.0,-1.0,951.0,90.0,338.0
245.0,26.0,80.0,26.0,17.0,-1.0,946.0,96.0,341.0
240.0,26.0,84.0,25.0,13.0,0.0,945.0,90.0,340.0
243.0,28.0,87.0,21.0,11.0,1.0,945.0,94.0,339.0
242.0,26.0,83.0,20.0,11.0,2.0,942.0,90.0,344.0
242.0,31.0,84.0,19.0,13.0,2.0,947.0,93.0,342.0
233.0,19.0,75.0,17.0,12.0,0.0,956.0,90.0,345.0
243.0,27.0,79.0,16.0,11.0,-1.0,942.0,86.0,342.0
241.0,26.0,86.0,15.0,9.0,-1.0,945.0,88.0,341.0
241.0,24.0,82.0,15.0,10.0,-3.0,940.0,93.0,343.0
240.0,24.0,85.0,16.0,10.0,-1.0,939.0,93.0,337.0
238.0,25.0,84.0,19.0,11.0,-1.0,941.0,87.0,344.0
238.0,24.0,82.0,19.0,12.0,0.0,941.0,93.0,339.0
239.0,26.0,83.0,20.0,11.0,-2.0,942.0,93.0,341.0
241.0,23.0,82.0,23.0,9.0,0.0,934.0,93.0,339.0
240.0,23.0,86.0,27.0,8.0,3.0,938.0,94.0,339.0
236.0,24.0,83.0,30.0,10.0,4.0,933.0,93.0,337.0
235.0,22.0,92.0,35.0,9.0,5.0,934.0,95.0,341.0
238.0,26.0,80.0,40.0,10.0,7.0,933.0,94.0,341.0
240.0,29.0,82.0,43.0,11.0,5.0,938.0,99.0,340.0
237.0,27.0,84.0,46.0,12.0,5.0,933.0,97.0,342.0
240.0,27.0,86.0,47.0,14.0,6.0,934.0,92.0,340.0
241.0,27.0,82.0,47.0,16.0,3.0,938.0,101.0,339.0
236.0,28.0,84.0,43.0,17.0,2.0,934.0,98.0,342.0
235.0,27.0,79.0,42.0,17.0,3.0,939.0,96.0,344.0
233.0,28.0,83.0,41.0,15.0,1.0,936.0,93.0,342.0
237.0,25.0,91.0,39.0,14.0,2.0,942.0,94.0,345.0
242.0,22.0,82.0,38.0,12.0,3.0,939.0,94.0,346.0
236.0,24.0,82.0,35.0,9.0,3.0,940.0,93.0,347.0
242.0,27.0,84.0,31.0,10.0,2.0,943.0,93.0,349.0
240.0,28.0,86.0,31.0,9.0,1.0,942.0,92.0,345.0
241.0,25.0,82.0,32.0,7.0,1.0,945.0,94.0,346.0
239.0,26.0,82.0,35.0,3.0,-2.0,946.0,90.0,347.0
242.0,22.0,84.0,37.0,1.0,-2.0,944.0,88.0,341.0
240.0,25.0,81.0,39.0,0.0,-1.0,951.0,86.0,338.0
239.0,26.0,84.0,42.0,-3.0,-2.0,945.0,90.0,340.0
237.0,26.0,85.0,45.0,-5.0,-5.0,948.0,86.0,342.0
240.0,20.0,83.0,48.0,-6.0,-2.0,947.0,91.0,336.0
240.0,22.0,80.0,50.0,-9.0,-4.0,944.0,87.0,342.0
244.0,31.0,85.0,48.0,-9.0,-4.0,938.0,96.0,337.0
240.0,27.0,79.0,48.0,-8.0,-5.0,940.0,95.0,339.0
238.0,25.0,83.0,44.0,-6.0,-5.0,941.0,93.0,341.0
243.0,26.0,82.0,40.0,-1.0,-4.0,939.0,89.0,344.0
239.0,25.0,85.0,36.0,-2.0,-4.0,941.0,85.0,338.0
240.0,22.0,82.0,33.0,-4.0,-6.0,941.0,85.0,338.0
242.0,22.0,81.0,33.0,-7.0,-4.0,941.0,80.0,336.0
239.0,24.0,87.0,35.0,-8.0,-4.0,943.0,83.0,340.0
238.0,25.0,86.0,35.0,-9.0,-1.0,941.0,84.0,341.0
243.0,26.0,83.0,36.0,-9.0,-2.0,935.0,85.0,345.0
239.0,24.0,81.0,35.0,-9.0,-3.0,944.0,86.0,339.0
243.0,21.0,79.0,35.0,-10.0,0.0,941.0,82.0,339.0
241.0,23.0,84.0,35.0,-10.0,-1.0,942.0,87.0,337.0
240.0,24.0,83.0,38.0,-11.0,-2.0,939.0,85.0,325.0
240.0,24.0,82.0,38.0,-11.0,-3.0,952.0,85.0,338.0
239.0,24.0,85.0,38.0,-11.0,-6.0,942.0,87.0,334.0
240.0,24.0,84.0,38.0,-11.0,-6.0,944.0,87.0,339.0
239.0,24.0,85.0,37.0,-10.0,-7.0,944.0,82.0,335.0
245.0,19.0,81.0,37.0,-10.0,-6.0,947.0,88.0,337.0
244.0,22.0,81.0,37.0,-8.0,-5.0,946.0,80.0,335.0
240.0,24.0,81.0,39.0,-10.0,-6.0,948.0,77.0,333.0
240.0,19.0,83.0,41.0,-10.0,-5.0,943.0,82.0,336.0
238.0,22.0,81.0,45.0,-12.0,-4.0,953.0,78.0,338.0
244.0,20.0,79.0,51.0,-12.0,-2.0,950.0,80.0,338.0
243.0,24.0,78.0,56.0,-15.0,-4.0,956.0,84.0,335.0
242.0,25.0,81.0,61.0,-18.0,-3.0,950.0,89.0,338.0
239.0,26.0,84.0,65.0,-14.0,-3.0,943.0,94.0,324.0
237.0,28.0,78.0,66.0,-11.0,-6.0,941.0,96.0,332.0
239.0,28.0,82.0,63.0,-7.0,-10.0,942.0,99.0,330.0
239.0,27.0,83.0,60.0,-4.0,-14.0,933.0,94.0,340.0
235.0,27.0,80.0,59.0,-3.0,-15.0,932.0,95.0,333.0
239.0,24.0,84.0,59.0,-2.0,-14.0,938.0,90.0,337.0
238.0,28.0,77.0,60.0,0.0,-14.0,934.0,89.0,336.0
240.0,27.0,90.0,60.0,0.0,-12.0,937.0,90.0,337.0
242.0,26.0,78.0,60.0,-1.0,-11.0,945.0,88.0,339.0
240.0,25.0,82.0,59.0,1.0,-9.0,946.0,90.0,335.0
242.0,26.0,78.0,58.0,3.0,-8.0,943.0,85.0,336.0
240.0,25.0,81.0,57.0,2.0,-7.0,940.0,95.0,336.0
241.0,26.0,83.0,56.0,0.0,-3.0,940.0,89.0,340.0
240.0,24.0,84.0,58.0,-1.0,-3.0,950.0,78.0,335.0
240.0,22.0,81.0,60.0,-2.0,-1.0,942.0,85.0,338.0
239.0,26.0,77.0,64.0,-2.0,-3.0,941.0,84.0,335.0
240.0,26.0,79.0,66.0,-3.0,-4.0,942.0,85.0,320.0
242.0,24.0,82.0,69.0,0.0,-6.0,946.0,82.0,332.0
237.0,27.0,71.0,71.0,4.0,-8.0,946.0,89.0,320.0
241.0,26.0,74.0,71.0,11.0,-12.0,948.0,89.0,317.0
243.0,25.0,77.0,71.0,18.0,-11.0,952.0,89.0,316.0
242.0,26.0,78.0,70.0,23.0,-14.0,956.0,94.0,315.0
242.0,26.0,80.0,70.0,27.0,-16.0,948.0,94.0,316.0
242.0,28.0,82.0,71.0,31.0,-15.0,948.0,93.0,328.0
243.0,26.0,76.0,69.0,35.0,-16.0,944.0,89.0,320.0
243.0,30.0,73.0,71.0,37.0,-17.0,951.0,91.0,323.0
244.0,24.0,76.0,71.0,39.0,-15.0,956.0,94.0,323.0
242.0,23.0,83.0,72.0,41.0,-14.0,951.0,92.0,327.0
244.0,25.0,81.0,74.0,41.0,-14.0,949.0,89.0,327.0
245.0,22.0,86.0,75.0,40.0,-13.0,949.0,93.0,333.0
241.0,26.0,82.0,75.0,40.0,-13.0,951.0,85.0,325.0
242.0,25.0,84.0,76.0,41.0,-13.0,948.0,92.0,336.0
243.0,22.0,83.0,75.0,39.0,-13.0,942.0,90.0,333.0
241.0,24.0,81.0,75.0,38.0,-12.0,946.0,87.0,341.0
241.0,24.0,81.0,75.0,38.0,-11.0,945.0,86.0,333.0
239.0,24.0,80.0,73.0,38.0,-12.0,942.0,93.0,341.0
237.0,26.0,85.0,74.0,37.0,-12.0,942.0,94.0,339.0
240.0,23.0,82.0,74.0,37.0,-12.0,933.0,90.0,338.0
237.0,27.0,84.0,71.0,39.0,-11.0,936.0,95.0,335.0
235.0,26.0,85.0,67.0,41.0,-12.0,939.0,97.0,330.0
242.0,25.0,82.0,63.0,44.0,-13.0,940.0,94.0,331.0
241.0,25.0,83.0,61.0,47.0,-15.0,939.0,93.0,336.0
239.0,26.0,76.0,58.0,49.0,-15.0,939.0,93.0,336.0
240.0,27.0,80.0,55.0,51.0,-14.0,942.0,91.0,331.0
240.0,25.0,83.0,54.0,52.0,-13.0,943.0,89.0,341.0
243.0,24.0,81.0,54.0,53.0,-14.0,941.0,89.0,332.0
241.0,23.0,85.0,57.0,52.0,-12.0,943.0,84.0,339.0
239.0,26.0,84.0,60.0,53.0,-13.0,943.0,89.0,338.0
238.0,29.0,79.0,65.0,51.0,-12.0,945.0,87.0,342.0
245.0,23.0,86.0,67.0,47.0,-13.0,942.0,88.0,341.0
240.0,25.0,77.0,69.0,45.0,-14.0,941.0,91.0,339.0
241.0,26.0,82.0,73.0,44.0,-16.0,944.0,96.0,338.0
239.0,28.0,85.0,74.0,42.0,-15.0,943.0,99.0,343.0
238.0,28.0,82.0,73.0,41.0,-15.0,942.0,98.0,341.0
240.0,27.0,84.0,69.0,41.0,-15.0,944.0,99.0,337.0
240.0,27.0,85.0,65.0,41.0,-14.0,942.0,98.0,347.0
241.0,27.0,85.0,60.0,40.0,-13.0,942.0,94.0,344.0
240.0,27.0,86.0,56.0,39.0,-12.0,939.0,89.0,346.0
239.0,27.0,86.0,52.0,38.0,-11.0,943.0,92.0,345.0
242.0,25.0,83.0,52.0,34.0,-11.0,944.0,93.0,344.0
244.0,23.0,91.0,52.0,32.0,-7.0,945.0,86.0,349.0
244.0,25.0,83.0,54.0,29.0,-5.0,947.0,85.0,349.0
240.0,23.0,84.0,59.0,26.0,-4.0,949.0,82.0,343.0
243.0,22.0,88.0,65.0,23.0,-5.0,942.0,80.0,342.0
241.0,28.0,80.0,71.0,20.0,-7.0,949.0,85.0,334.0
241.0,27.0,81.0,73.0,18.0,-9.0,943.0,88.0,339.0
240.0,25.0,84.0,71.0,16.0,-12.0,943.0,90.0,338.0
239.0,27.0,80.0,67.0,16.0,-13.0,946.0,91.0,340.0
237.0,27.0,81.0,62.0,18.0,-15.0,941.0,92.0,337.0
239.0,25.0,85.0,57.0,20.0,-18.0,935.0,96.0,332.0
238.0,28.0,78.0,53.0,22.0,-19.0,936.0,91.0,343.0
239.0,24.0,83.0,51.0,23.0,-19.0,938.0,89.0,338.0
239.0,20.0,89.0,50.0,25.0,-22.0,935.0,89.0,341.0
238.0,25.0,82.0,50.0,25.0,-21.0,933.0,90.0,334.0
238.0,25.0,83.0,52.0,25.0,-19.0,939.0,90.0,342.0
238.0,24.0,83.0,53.0,28.0,-20.0,940.0,88.0,341.0
242.0,24.0,83.0,55.0,28.0,-19.0,940.0,87.0,341.0
241.0,20.0,81.0,57.0,29.0,-18.0,936.0,89.0,341.0
241.0,24.0,84.0,60.0,30.0,-15.0,936.0,88.0,344.0
240.0,24.0,87.0,60.0,32.0,-15.0,942.0,84.0,340.0
244.0,20.0,82.0,62.0,32.0,-14.0,943.0,83.0,336.0
240.0,27.0,85.0,65.0,33.0,-15.0,944.0,81.0,339.0
242.0,21.0,85.0,66.0,33.0,-16.0,944.0,84.0,341.0
240.0,20.0,82.0,66.0,34.0,-17.0,942.0,88.0,336.0
241.0,26.0,84.0,67.0,35.0,-17.0,943.0,87.0,345.0
239.0,23.0,84.0,66.0,37.0,-16.0,939.0,89.0,341.0
241.0,27.0,81.0,65.0,37.0,-18.0,946.0,91.0,341.0
241.0,25.0,85.0,65.0,39.0,-18.0,940.0,95.0,338.0
242.0,26.0,82.0,63.0,38.0,-18.0,947.0,89.0,338.0
239.0,25.0,80.0,66.0,38.0,-17.0,941.0,92.0,339.0
242.0,25.0,77.0,67.0,38.0,-16.0,942.0,86.0,341.0
240.0,24.0,84.0,68.0,36.0,-14.0,945.0,87.0,345.0
239.0,24.0,83.0,70.0,34.0,-12.0,942.0,90.0,346.0
235.0,27.0,83.0,71.0,33.0,-14.0,944.0,83.0,339.0
239.0,25.0,83.0,71.0,30.0,-16.0,942.0,90.0,338.0
242.0,24.0,84.0,74.0,31.0,-12.0,939.0,91.0,336.0
240.0,23.0,88.0,72.0,33.0,-14.0,944.0,94.0,340.0
242.0,29.0,85.0,70.0,34.0,-15.0,944.0,94.0,345.0
240.0,26.0,82.0,71.0,34.0,-15.0,946.0,92.0,340.0
240.0,24.0,82.0,71.0,35.0,-15.0,940.0,94.0,340.0
238.0,27.0,84.0,71.0,38.0,-16.0,939.0,90.0,345.0
240.0,28.0,86.0,72.0,39.0,-16.0,942.0,92.0,342.0
239.0,23.0,82.0,73.0,38.0,-16.0,941.0,95.0,348.0
239.0,25.0,88.0,73.0,38.0,-14.0,936.0,87.0,344.0
238.0,30.0,82.0,76.0,38.0,-12.0,941.0,94.0,346.0
235.0,30.0,79.0,79.0,38.0,-13.0,937.0,96.0,346.0
235.0,26.0,84.0,81.0,38.0,-12.0,932.0,97.0,346.0
239.0,26.0,83.0,89.0,37.0,-11.0,938.0,98.0,339.0
238.0,27.0,84.0,86.0,36.0,-13.0,939.0,95.0,342.0
241.0,26.0,86.0,84.0,36.0,-9.0,941.0,96.0,343.0
240.0,26.0,81.0,84.0,38.0,-9.0,941.0,99.0,337.0
239.0,25.0,85.0,80.0,37.0,-9.0,935.0,100.0,351.0
239.0,27.0,83.0,77.0,39.0,-11.0,942.0,100.0,345.0
238.0,27.0,82.0,74.0,38.0,-12.0,940.0,100.0,349.0
242.0,30.0,86.0,70.0,40.0,-15.0,940.0,103.0,345.0
239.0,31.0,89.0,67.0,44.0,-14.0,937.0,101.0,354.0
236.0,32.0,84.0,60.0,45.0,-15.0,938.0,103.0,345.0
244.0,26.0,88.0,53.0,45.0,-14.0,941.0,104.0,344.0
240.0,28.0,89.0,47.0,44.0,-15.0,942.0,100.0,353.0
242.0,25.0,84.0,43.0,40.0,-13.0,942.0,99.0,350.0
239.0,24.0,86.0,39.0,38.0,-13.0,939.0,93.0,353.0
241.0,25.0,86.0,40.0,33.0,-13.0,938.0,98.0,348.0
240.0,25.0,90.0,42.0,28.0,-13.0,940.0,90.0,344.0
238.0,27.0,85.0,47.0,23.0,-11.0,942.0,92.0,349.0
240.0,24.0,86.0,52.0,19.0,-12.0,941.0,91.0,353.0
239.0,23.0,88.0,55.0,14.0,-13.0,938.0,92.0,352.0
241.0,29.0,87.0,58.0,8.0,-13.0,943.0,91.0,351.0
236.0,22.0,95.0,59.0,4.0,-14.0,939.0,97.0,357.0
241.0,24.0,87.0,58.0,3.0,-15.0,936.0,93.0,356.0
238.0,30.0,85.0,58.0,2.0,-15.0,937.0,92.0,356.0
241.0,24.0,83.0,57.0,1.0,-14.0,935.0,88.0,349.0
241.0,25.0,85.0,55.0,1.0,-14.0,943.0,91.0,349.0
239.0,28.0,83.0,58.0,-1.0,-14.0,935.0,88.0,347.0
239.0,21.0,89.0,59.0,-2.0,-13.0,940.0,92.0,342.0
241.0,26.0,85.0,61.0,-1.0,-13.0,939.0,94.0,347.0
241.0,28.0,88.0,63.0,1.0,-13.0,942.0,98.0,342.0
241.0,28.0,87.0,63.0,2.0,-11.0,942.0,100.0,342.0
240.0,27.0,88.0,62.0,4.0,-7.0,937.0,104.0,342.0
240.0,28.0,84.0,62.0,3.0,-7.0,939.0,98.0,344.0
237.0,29.0,84.0,61.0,6.0,-10.0,935.0,95.0,344.0
239.0,27.0,84.0,60.0,9.0,-9.0,930.0,101.0,344.0
238.0,28.0,84.0,60.0,10.0,-10.0,930.0,97.0,344.0
238.0,26.0,84.0,64.0,12.0,-10.0,937.0,92.0,339.0
241.0,26.0,82.0,69.0,12.0,-13.0,937.0,95.0,343.0
