acc1_x,acc1_y,acc1_z,gyro_x,gyro_y,gyro_z,acc2_x,acc2_y,acc2_z
-4.0,-264.0,1.0,-8.0,45.0,-6.0,-39.0,-1017.0,89.0
-6.0,-263.0,0.0,-7.0,45.0,-7.0,-42.0,-1017.0,87.0
-6.0,-263.0,2.0,-7.0,45.0,-6.0,-40.0,-1025.0,89.0
-3.0,-262.0,0.0,-7.0,46.0,-7.0,-38.0,-1015.0,88.0
-8.0,-263.0,-1.0,-7.0,45.0,-7.0,-44.0,-1014.0,89.0
-5.0,-265.0,1.0,-6.0,44.0,-5.0,-41.0,-1013.0,89.0
-6.0,-264.0,0.0,-5.0,44.0,-4.0,-49.0,-1012.0,86.0
-6.0,-264.0,2.0,-7.0,46.0,-4.0,-46.0,-1018.0,86.0
-9.0,-263.0,-3.0,-7.0,47.0,-3.0,-46.0,-1020.0,87.0
-6.0,-265.0,3.0,-6.0,49.0,-4.0,-42.0,-1015.0,85.0
-6.0,-263.0,-1.0,-8.0,50.0,-2.0,-40.0,-1015.0,87.0
-7.0,-262.0,5.0,-7.0,52.0,-4.0,-40.0,-1022.0,89.0
-5.0,-262.0,1.0,-6.0,52.0,-4.0,-46.0,-1016.0,88.0
-5.0,-263.0,-1.0,-8.0,51.0,-7.0,-37.0,-1014.0,89.0
-5.0,-262.0,1.0,-12.0,51.0,-6.0,-38.0,-1013.0,93.0
-7.0,-273.0,11.0,-12.0,51.0,-8.0,-42.0,-1014.0,94.0
-8.0,-261.0,-1.0,-13.0,50.0,-6.0,-41.0,-1011.0,96.0
-7.0,-259.0,11.0,-15.0,50.0,-8.0,-40.0,-1008.0,95.0
-2.0,-265.0,6.0,-16.0,52.0,-5.0,-42.0,-1010.0,89.0
-3.0,-259.0,5.0,-18.0,51.0,-8.0,-46.0,-1010.0,91.0
-10.0,-266.0,3.0,-20.0,51.0,-5.0,-47.0,-1005.0,90.0
-8.0,-260.0,8.0,-22.0,49.0,-7.0,-44.0,-1006.0,91.0
-4.0,-254.0,-5.0,-24.0,51.0,-4.0,-50.0,-1007.0,87.0
-7.0,-263.0,2.0,-25.0,48.0,-5.0,-45.0,-1006.0,85.0
-7.0,-262.0,-10.0,-27.0,50.0,-1.0,-49.0,-1008.0,84.0
-6.0,-254.0,-11.0,-29.0,50.0,-4.0,-48.0,-1007.0,88.0
-15.0,-271.0,2.0,-30.0,51.0,-3.0,-47.0,-1012.0,88.0
-4.0,-264.0,-2.0,-30.0,51.0,-5.0,-42.0,-1010.0,87.0
-5.0,-275.0,9.0,-29.0,51.0,-2.0,-45.0,-1012.0,85.0
2.0,-267.0,0.0,-30.0,51.0,-4.0,-44.0,-1024.0,83.0
0.0,-249.0,-10.0,-30.0,53.0,-3.0,-39.0,-1024.0,84.0
-7.0,-257.0,-5.0,-30.0,52.0,-5.0,-38.0,-1017.0,88.0
-6.0,-265.0,0.0,-33.0,51.0,-3.0,-40.0,-1018.0,90.0
-6.0,-273.0,9.0,-33.0,53.0,-6.0,-32.0,-1031.0,86.0
-1.0,-260.0,1.0,-33.0,52.0,-6.0,-40.0,-1013.0,89.0
-5.0,-263.0,2.0,-33.0,53.0,-7.0,-40.0,-1024.0,86.0
-5.0,-265.0,-3.0,-33.0,54.0,-5.0,-43.0,-1026.0,89.0
-6.0,-265.0,4.0,-34.0,54.0,-6.0,-41.0,-1019.0,87.0
-3.0,-256.0,2.0,-35.0,56.0,-4.0,-42.0,-1016.0,85.0
-6.0,-265.0,1.0,-34.0,56.0,-6.0,-49.0,-1016.0,86.0
-7.0,-262.0,-2.0,-34.0,56.0,-6.0,-42.0,-1014.0,81.0
-6.0,-264.0,-1.0,-32.0,56.0,-7.0,-42.0,-1012.0,78.0
-4.0,-265.0,-1.0,-31.0,57.0,-6.0,-40.0,-1014.0,81.0
-3.0,-262.0,-1.0,-30.0,58.0,-6.0,-43.0,-1023.0,79.0
-4.0,-264.0,-5.0,-27.0,59.0,-6.0,-45.0,-1015.0,78.0
-7.0,-261.0,-4.0,-25.0,58.0,-6.0,-51.0,-1017.0,79.0
-7.0,-263.0,-1.0,-24.0,59.0,-4.0,-44.0,-1019.0,81.0
-3.0,-261.0,-5.0,-24.0,58.0,-5.0,-42.0,-1013.0,75.0
-5.0,-266.0,-1.0,-22.0,56.0,-3.0,-46.0,-1028.0,82.0
-4.0,-266.0,-3.0,-22.0,57.0,-4.0,-44.0,-1035.0,84.0
-6.0,-263.0,-1.0,-19.0,57.0,-5.0,-42.0,-1024.0,77.0
-7.0,-262.0,1.0,-19.0,57.0,-4.0,-41.0,-1017.0,81.0
-8.0,-263.0,0.0,-19.0,58.0,-6.0,-40.0,-1024.0,82.0
-6.0,-265.0,-1.0,-19.0,60.0,-6.0,-41.0,-1016.0,80.0
-6.0,-266.0,-1.0,-19.0,61.0,-5.0,-44.0,-1025.0,76.0
-7.0,-262.0,-2.0,-20.0,65.0,-5.0,-44.0,-1021.0,82.0
-8.0,-260.0,-7.0,-21.0,67.0,-5.0,-40.0,-1016.0,79.0
-4.0,-264.0,-6.0,-22.0,68.0,-5.0,-42.0,-1013.0,79.0
-4.0,-264.0,-1.0,-22.0,69.0,-6.0,-33.0,-1014.0,79.0
-5.0,-263.0,-1.0,-23.0,71.0,-6.0,-35.0,-1017.0,77.0
0.0,-265.0,0.0,-26.0,73.0,-8.0,-37.0,-1020.0,81.0
-1.0,-263.0,-1.0,-27.0,74.0,-9.0,-35.0,-1015.0,84.0
-8.0,-262.0,0.0,-29.0,76.0,-11.0,-34.0,-1034.0,86.0
-5.0,-261.0,-5.0,-29.0,75.0,-12.0,-35.0,-1015.0,75.0
-6.0,-264.0,0.0,-30.0,75.0,-14.0,-37.0,-1012.0,77.0
-7.0,-262.0,0.0,-31.0,74.0,-12.0,-35.0,-1012.0,79.0
-3.0,-262.0,3.0,-32.0,74.0,-13.0,-41.0,-1012.0,81.0
-7.0,-263.0,-1.0,-32.0,74.0,-10.0,-42.0,-1013.0,79.0
-7.0,-263.0,-2.0,-29.0,75.0,-10.0,-44.0,-1012.0,78.0
-6.0,-261.0,-2.0,-27.0,75.0,-7.0,-41.0,-1011.0,75.0
-3.0,-262.0,-1.0,-25.0,76.0,-9.0,-41.0,-1011.0,80.0
-6.0,-260.0,0.0,-25.0,76.0,-7.0,-50.0,-1007.0,80.0
-7.0,-262.0,0.0,-26.0,76.0,-8.0,-43.0,-1010.0,80.0
-7.0,-264.0,-2.0,-28.0,76.0,-5.0,-38.0,-1013.0,81.0
-4.0,-261.0,-7.0,-29.0,75.0,-8.0,-41.0,-1013.0,74.0
-8.0,-261.0,-5.0,-31.0,77.0,-5.0,-39.0,-1024.0,77.0
-7.0,-263.0,-2.0,-33.0,78.0,-7.0,-44.0,-1027.0,75.0
-6.0,-265.0,0.0,-35.0,78.0,-6.0,-44.0,-1029.0,77.0
-7.0,-267.0,-2.0,-35.0,78.0,-9.0,-42.0,-1019.0,80.0
-4.0,-267.0,0.0,-34.0,77.0,-8.0,-45.0,-1028.0,79.0
-6.0,-266.0,-1.0,-35.0,77.0,-10.0,-40.0,-1022.0,87.0
-7.0,-264.0,0.0,-31.0,76.0,-8.0,-42.0,-1015.0,81.0
-6.0,-262.0,-3.0,-27.0,76.0,-9.0,-41.0,-1018.0,77.0
-6.0,-262.0,-3.0,-22.0,75.0,-8.0,-41.0,-1016.0,82.0
-4.0,-263.0,-1.0,-17.0,73.0,-11.0,-40.0,-1014.0,80.0
-4.0,-260.0,-3.0,-15.0,74.0,-10.0,-40.0,-1011.0,81.0
-4.0,-264.0,1.0,-13.0,73.0,-12.0,-38.0,-1015.0,77.0
-6.0,-263.0,3.0,-10.0,75.0,-10.0,-39.0,-1013.0,80.0
-6.0,-264.0,0.0,-10.0,75.0,-12.0,-38.0,-1013.0,83.0
-5.0,-262.0,-2.0,-7.0,76.0,-9.0,-41.0,-1025.0,81.0
-7.0,-263.0,-1.0,-4.0,74.0,-11.0,-41.0,-1025.0,80.0
-6.0,-262.0,0.0,-3.0,75.0,-10.0,-41.0,-1021.0,80.0
-5.0,-264.0,1.0,-2.0,75.0,-12.0,-39.0,-1016.0,88.0
-5.0,-262.0,-3.0,-1.0,75.0,-9.0,-40.0,-1018.0,85.0
-7.0,-261.0,2.0,-2.0,75.0,-9.0,-43.0,-1015.0,85.0
-5.0,-262.0,0.0,-3.0,74.0,-7.0,-43.0,-1020.0,86.0
-5.0,-263.0,-2.0,-2.0,73.0,-8.0,-39.0,-1012.0,87.0
-7.0,-263.0,-1.0,-4.0,72.0,-6.0,-44.0,-1016.0,83.0
-6.0,-264.0,0.0,-7.0,72.0,-6.0,-43.0,-1019.0,83.0
-6.0,-263.0,0.0,-6.0,71.0,-7.0,-39.0,-1024.0,83.0
-3.0,-266.0,1.0,-6.0,68.0,-4.0,-41.0,-1024.0,81.0
-6.0,-265.0,-1.0,-3.0,67.0,-6.0,-41.0,-1018.0,87.0
-5.0,-266.0,-2.0,-1.0,67.0,-4.0,-41.0,-1025.0,82.0
-6.0,-264.0,-2.0,0.0,67.0,-6.0,-37.0,-1025.0,83.0
-6.0,-262.0,2.0,1.0,65.0,-5.0,-41.0,-1013.0,86.0
-4.0,-263.0,2.0,1.0,64.0,-7.0,-41.0,-1014.0,86.0
-5.0,-264.0,-2.0,2.0,65.0,-7.0,-40.0,-1016.0,83.0
-4.0,-261.0,-2.0,2.0,65.0,-7.0,-36.0,-1015.0,82.0
-5.0,-265.0,-5.0,2.0,65.0,-6.0,-41.0,-1017.0,82.0
-6.0,-264.0,-1.0,2.0,67.0,-8.0,-39.0,-1011.0,81.0
-6.0,-265.0,2.0,1.0,67.0,-6.0,-40.0,-1016.0,78.0
-5.0,-262.0,-1.0,3.0,68.0,-8.0,-38.0,-1013.0,85.0
-7.0,-262.0,2.0,2.0,68.0,-6.0,-39.0,-1011.0,84.0
-6.0,-264.0,-2.0,2.0,67.0,-7.0,-38.0,-1013.0,80.0
-4.0,-264.0,-3.0,3.0,67.0,-6.0,-42.0,-1014.0,80.0
-4.0,-261.0,-2.0,3.0,68.0,-8.0,-44.0,-1012.0,79.0
-7.0,-264.0,-1.0,4.0,67.0,-5.0,-38.0,-1025.0,80.0
-5.0,-266.0,1.0,3.0,67.0,-8.0,-43.0,-1026.0,81.0
-6.0,-263.0,-5.0,4.0,66.0,-6.0,-34.0,-1018.0,81.0
-6.0,-267.0,1.0,6.0,65.0,-10.0,-46.0,-1019.0,83.0
-7.0,-263.0,3.0,4.0,64.0,-7.0,-49.0,-1022.0,84.0
-6.0,-263.0,2.0,1.0,64.0,-8.0,-45.0,-1023.0,89.0
-6.0,-262.0,1.0,0.0,64.0,-5.0,-45.0,-1020.0,85.0
-6.0,-261.0,-2.0,-3.0,63.0,-7.0,-42.0,-1017.0,85.0
-6.0,-264.0,-1.0,-5.0,64.0,-4.0,-39.0,-1015.0,87.0
-6.0,-262.0,5.0,-6.0,63.0,-6.0,-41.0,-1012.0,82.0
-7.0,-261.0,6.0,-6.0,62.0,-4.0,-40.0,-1022.0,79.0
-5.0,-263.0,-1.0,-6.0,61.0,-6.0,-40.0,-1020.0,83.0
-5.0,-262.0,0.0,-5.0,61.0,-4.0,-42.0,-1017.0,79.0
-5.0,-259.0,1.0,-3.0,61.0,-6.0,-40.0,-1014.0,80.0
-6.0,-262.0,-1.0,-4.0,60.0,-5.0,-44.0,-1016.0,80.0
-3.0,-263.0,4.0,-3.0,61.0,-7.0,-41.0,-1024.0,78.0
-6.0,-263.0,2.0,-4.0,60.0,-5.0,-38.0,-1015.0,83.0
-5.0,-264.0,2.0,-3.0,60.0,-6.0,-39.0,-1020.0,83.0
-5.0,-264.0,1.0,-6.0,60.0,-4.0,-38.0,-1011.0,82.0
-8.0,-261.0,-1.0,-8.0,58.0,-5.0,-41.0,-1018.0,87.0
-6.0,-265.0,3.0,-9.0,58.0,-5.0,-38.0,-1026.0,87.0
-4.0,-265.0,1.0,-10.0,57.0,-8.0,-37.0,-1026.0,84.0
-3.0,-266.0,0.0,-8.0,55.0,-6.0,-38.0,-1034.0,89.0
-5.0,-261.0,-3.0,-8.0,55.0,-7.0,-38.0,-1032.0,85.0
-8.0,-261.0,-3.0,-8.0,55.0,-8.0,-41.0,-1025.0,82.0
-6.0,-262.0,-1.0,-8.0,55.0,-7.0,-43.0,-1012.0,82.0
-5.0,-264.0,-1.0,-7.0,56.0,-5.0,-38.0,-1013.0,79.0
-5.0,-263.0,0.0,-7.0,56.0,-6.0,-44.0,-1017.0,80.0
-7.0,-262.0,2.0,-6.0,56.0,-5.0,-43.0,-1013.0,80.0
-4.0,-262.0,-2.0,-6.0,57.0,-5.0,-44.0,-1013.0,80.0
-5.0,-264.0,-2.0,-4.0,55.0,-6.0,-44.0,-1015.0,84.0
-7.0,-262.0,2.0,-5.0,55.0,-5.0,-48.0,-1015.0,81.0
-8.0,-262.0,2.0,-4.0,56.0,-4.0,-42.0,-1022.0,83.0
-5.0,-261.0,-1.0,-5.0,56.0,-4.0,-43.0,-1014.0,81.0
-6.0,-263.0,-1.0,-5.0,55.0,-4.0,-44.0,-1012.0,82.0
-6.0,-266.0,-2.0,-4.0,56.0,-5.0,-39.0,-1023.0,80.0
-3.0,-264.0,1.0,-4.0,54.0,-7.0,-41.0,-1020.0,85.0
-6.0,-264.0,-2.0,-3.0,53.0,-4.0,-39.0,-1016.0,77.0
-5.0,-262.0,-2.0,-3.0,53.0,-6.0,-43.0,-1017.0,81.0
-4.0,-264.0,-2.0,-3.0,52.0,-5.0,-38.0,-1025.0,81.0
-3.0,-266.0,3.0,-2.0,53.0,-5.0,-41.0,-1023.0,82.0
-6.0,-264.0,-1.0,-2.0,52.0,-4.0,-41.0,-1019.0,84.0
-6.0,-262.0,-2.0,-1.0,52.0,-6.0,-37.0,-1024.0,83.0
-6.0,-263.0,0.0,-1.0,52.0,-4.0,-39.0,-1015.0,81.0
-7.0,-263.0,-1.0,0.0,54.0,-7.0,-38.0,-1015.0,82.0
-6.0,-263.0,-1.0,-1.0,53.0,-6.0,-42.0,-1019.0,83.0
-3.0,-264.0,-2.0,1.0,52.0,-9.0,-37.0,-1017.0,84.0
-5.0,-265.0,3.0,1.0,51.0,-5.0,-37.0,-1012.0,82.0
-7.0,-263.0,1.0,2.0,53.0,-8.0,-39.0,-1014.0,82.0
-5.0,-264.0,3.0,1.0,50.0,-5.0,-37.0,-1017.0,84.0
-6.0,-263.0,2.0,2.0,51.0,-8.0,-40.0,-1021.0,86.0
-6.0,-266.0,3.0,2.0,50.0,-6.0,-41.0,-1012.0,89.0
-7.0,-262.0,0.0,4.0,49.0,-7.0,-40.0,-1011.0,94.0
-8.0,-262.0,1.0,2.0,48.0,-5.0,-43.0,-1012.0,86.0
-7.0,-262.0,4.0,0.0,47.0,-6.0,-46.0,-1011.0,87.0
-6.0,-260.0,3.0,-2.0,48.0,-3.0,-49.0,-1011.0,86.0
-6.0,-260.0,1.0,-5.0,48.0,-6.0,-47.0,-1010.0,85.0
-7.0,-260.0,-2.0,-7.0,50.0,-3.0,-47.0,-1010.0,88.0
-5.0,-264.0,-2.0,-9.0,50.0,-3.0,-48.0,-1014.0,85.0
-7.0,-261.0,0.0,-11.0,50.0,0.0,-41.0,-1013.0,87.0
-8.0,-264.0,1.0,-13.0,51.0,-2.0,-35.0,-1013.0,85.0
-4.0,-263.0,0.0,-12.0,51.0,-1.0,-42.0,-1016.0,86.0
-3.0,-264.0,3.0,-9.0,51.0,-1.0,-34.0,-1014.0,81.0
-5.0,-264.0,-1.0,-9.0,49.0,-1.0,-34.0,-1008.0,84.0
-6.0,-263.0,-2.0,-11.0,48.0,-4.0,-30.0,-1011.0,83.0
-4.0,-263.0,-1.0,-12.0,46.0,-4.0,-30.0,-1014.0,84.0
-5.0,-263.0,-3.0,-13.0,45.0,-7.0,-32.0,-1013.0,80.0
-2.0,-264.0,-1.0,-14.0,47.0,-5.0,-36.0,-1012.0,82.0
-4.0,-264.0,-3.0,-15.0,46.0,-8.0,-35.0,-1017.0,82.0
-4.0,-265.0,0.0,-16.0,49.0,-5.0,-41.0,-1023.0,79.0
-5.0,-266.0,-2.0,-17.0,51.0,-6.0,-38.0,-1025.0,83.0
-5.0,-263.0,0.0,-14.0,51.0,-4.0,-38.0,-1014.0,88.0
-6.0,-267.0,2.0,-14.0,52.0,-6.0,-38.0,-1024.0,86.0
-6.0,-262.0,-2.0,-13.0,52.0,-4.0,-42.0,-1018.0,88.0
-5.0,-261.0,2.0,-10.0,54.0,-3.0,-41.0,-1019.0,89.0
-5.0,-264.0,2.0,-8.0,53.0,-2.0,-43.0,-1024.0,83.0
-6.0,-265.0,-1.0,-7.0,56.0,-2.0,-40.0,-1020.0,86.0
-6.0,-263.0,2.0,-7.0,55.0,-1.0,-40.0,-1018.0,89.0
-7.0,-261.0,2.0,-8.0,53.0,-2.0,-40.0,-1025.0,84.0
-6.0,-264.0,-2.0,-9.0,51.0,-1.0,-42.0,-1027.0,85.0
-5.0,-265.0,0.0,-9.0,52.0,0.0,-39.0,-1022.0,85.0
-6.0,-266.0,2.0,-8.0,51.0,-1.0,-42.0,-1021.0,84.0
-7.0,-263.0,2.0,-11.0,51.0,-1.0,-44.0,-1024.0,84.0
-7.0,-262.0,0.0,-13.0,49.0,-3.0,-41.0,-1019.0,88.0
-7.0,-261.0,1.0,-15.0,46.0,-3.0,-45.0,-1014.0,88.0
-6.0,-263.0,4.0,-18.0,45.0,-5.0,-44.0,-1015.0,96.0
-6.0,-265.0,5.0,-19.0,43.0,-6.0,-43.0,-1018.0,93.0
-5.0,-263.0,7.0,-20.0,42.0,-8.0,-39.0,-1015.0,90.0
-7.0,-261.0,1.0,-18.0,44.0,-6.0,-40.0,-1018.0,90.0
-5.0,-262.0,2.0,-18.0,42.0,-7.0,-45.0,-1015.0,89.0
-6.0,-263.0,0.0,-16.0,45.0,-4.0,-34.0,-1014.0,90.0
-6.0,-263.0,4.0,-14.0,46.0,-5.0,-33.0,-1016.0,90.0
-6.0,-263.0,2.0,-14.0,47.0,-3.0,-38.0,-1017.0,94.0
-3.0,-262.0,2.0,-11.0,47.0,-2.0,-33.0,-1015.0,89.0
-6.0,-262.0,1.0,-8.0,45.0,1.0,-38.0,-1024.0,90.0
-5.0,-267.0,-2.0,-4.0,44.0,-2.0,-38.0,-1017.0,91.0
-6.0,-264.0,3.0,1.0,45.0,-1.0,-31.0,-1021.0,86.0
-4.0,-262.0,-1.0,6.0,45.0,-5.0,-38.0,-1014.0,89.0
-7.0,-262.0,1.0,9.0,44.0,-3.0,-37.0,-1015.0,91.0
-4.0,-262.0,-1.0,8.0,44.0,-5.0,-39.0,-1011.0,90.0
-5.0,-261.0,2.0,6.0,45.0,-3.0,-40.0,-1009.0,90.0
-8.0,-259.0,4.0,5.0,46.0,-6.0,-43.0,-1009.0,92.0
-5.0,-262.0,3.0,2.0,48.0,-4.0,-41.0,-1012.0,88.0
-7.0,-260.0,0.0,-3.0,48.0,-5.0,-39.0,-1012.0,93.0
-3.0,-260.0,3.0,-6.0,48.0,-2.0,-40.0,-1012.0,91.0
-4.0,-263.0,0.0,-9.0,48.0,-3.0,-40.0,-1016.0,87.0
-7.0,-263.0,-1.0,-10.0,47.0,-1.0,-41.0,-1011.0,90.0
-4.0,-262.0,0.0,-12.0,50.0,-2.0,-40.0,-1013.0,90.0
-7.0,-264.0,4.0,-13.0,51.0,0.0,-32.0,-1013.0,94.0
-5.0,-263.0,2.0,-16.0,51.0,-3.0,-37.0,-1012.0,89.0
-2.0,-265.0,-1.0,-19.0,52.0,1.0,-35.0,-1016.0,93.0
-4.0,-263.0,2.0,-22.0,54.0,-1.0,-32.0,-1017.0,89.0
-5.0,-265.0,7.0,-23.0,55.0,1.0,-39.0,-1022.0,90.0
-2.0,-265.0,2.0,-21.0,55.0,-2.0,-34.0,-1017.0,83.0
-5.0,-262.0,0.0,-19.0,56.0,-2.0,-37.0,-1012.0,80.0
-2.0,-264.0,-2.0,-17.0,56.0,-5.0,-32.0,-1009.0,85.0
-5.0,-261.0,-1.0,-16.0,54.0,-4.0,-36.0,-1030.0,87.0
-5.0,-262.0,1.0,-15.0,55.0,-6.0,-39.0,-1014.0,81.0
-6.0,-262.0,1.0,-16.0,57.0,-7.0,-36.0,-1017.0,89.0
-4.0,-265.0,2.0,-16.0,59.0,-8.0,-36.0,-1013.0,90.0
-4.0,-266.0,3.0,-17.0,61.0,-6.0,-34.0,-1020.0,87.0
-4.0,-266.0,2.0,-18.0,63.0,-7.0,-32.0,-1019.0,90.0
-5.0,-263.0,2.0,-17.0,64.0,-6.0,-40.0,-1023.0,90.0
-5.0,-263.0,2.0,-15.0,65.0,-7.0,-38.0,-1022.0,87.0
-6.0,-265.0,0.0,-16.0,66.0,-7.0,-41.0,-1013.0,86.0
-6.0,-261.0,0.0,-15.0,64.0,-7.0,-41.0,-1022.0,90.0
-7.0,-264.0,1.0,-17.0,64.0,-8.0,-38.0,-1016.0,84.0
-6.0,-263.0,2.0,-18.0,65.0,-9.0,-39.0,-1016.0,91.0
-4.0,-263.0,5.0,-18.0,65.0,-10.0,-34.0,-1023.0,89.0
-4.0,-263.0,1.0,-22.0,67.0,-9.0,-34.0,-1014.0,92.0
-5.0,-263.0,1.0,-22.0,69.0,-9.0,-40.0,-1024.0,87.0
-6.0,-264.0,5.0,-23.0,69.0,-8.0,-38.0,-1022.0,88.0
-7.0,-265.0,-2.0,-22.0,69.0,-6.0,-39.0,-1017.0,87.0
-4.0,-265.0,1.0,-22.0,68.0,-6.0,-42.0,-1017.0,87.0
-7.0,-261.0,-2.0,-18.0,68.0,-6.0,-42.0,-1015.0,89.0
-6.0,-258.0,-12.0,-18.0,66.0,-3.0,-41.0,-1012.0,84.0
-7.0,-265.0,0.0,-16.0,66.0,-5.0,-43.0,-1015.0,86.0
-7.0,-262.0,0.0,-14.0,65.0,-3.0,-43.0,-1018.0,87.0
-6.0,-261.0,0.0,-14.0,64.0,-6.0,-46.0,-1016.0,82.0
-5.0,-264.0,-1.0,-13.0,63.0,-3.0,-41.0,-1012.0,86.0
-7.0,-264.0,1.0,-14.0,62.0,-5.0,-43.0,-1015.0,89.0
-5.0,-265.0,3.0,-14.0,63.0,-3.0,-37.0,-1015.0,85.0
-7.0,-263.0,1.0,-14.0,62.0,-5.0,-36.0,-1013.0,94.0
-4.0,-264.0,1.0,-14.0,61.0,-4.0,-39.0,-1014.0,91.0
-7.0,-261.0,-1.0,-14.0,61.0,-6.0,-46.0,-1013.0,84.0
-6.0,-263.0,-3.0,-15.0,60.0,-4.0,-39.0,-1016.0,89.0
-6.0,-262.0,-3.0,-15.0,58.0,-6.0,-46.0,-1013.0,90.0
-4.0,-264.0,-1.0,-15.0,58.0,-4.0,-39.0,-1015.0,84.0
-6.0,-263.0,1.0,-15.0,58.0,-7.0,-42.0,-1015.0,90.0
-8.0,-263.0,3.0,-16.0,56.0,-4.0,-44.0,-1015.0,85.0
-6.0,-262.0,-1.0,-17.0,57.0,-7.0,-46.0,-1012.0,85.0
-6.0,-261.0,0.0,-18.0,58.0,-4.0,-48.0,-1011.0,87.0
-7.0,-262.0,1.0,-20.0,58.0,-6.0,-42.0,-1015.0,87.0
-8.0,-262.0,0.0,-23.0,59.0,-2.0,-45.0,-1019.0,88.0
-7.0,-261.0,1.0,-25.0,58.0,-2.0,-41.0,-1021.0,89.0
-6.0,-265.0,4.0,-26.0,60.0,0.0,-44.0,-1019.0,88.0
-6.0,-266.0,-1.0,-25.0,59.0,-2.0,-44.0,-1033.0,87.0
-6.0,-265.0,4.0,-23.0,58.0,0.0,-42.0,-1022.0,89.0
-5.0,-266.0,0.0,-20.0,56.0,-5.0,-44.0,-1017.0,86.0
-7.0,-264.0,-2.0,-20.0,56.0,-4.0,-40.0,-1021.0,86.0
-5.0,-262.0,0.0,-19.0,55.0,-7.0,-41.0,-1014.0,84.0
-6.0,-264.0,3.0,-19.0,56.0,-6.0,-41.0,-1017.0,83.0
-3.0,-263.0,0.0,-22.0,56.0,-8.0,-38.0,-1011.0,83.0
-7.0,-262.0,-1.0,-22.0,55.0,-7.0,-37.0,-1014.0,83.0
-5.0,-263.0,1.0,-23.0,55.0,-9.0,-45.0,-1013.0,85.0
-4.0,-264.0,1.0,-23.0,55.0,-7.0,-48.0,-1018.0,85.0
-6.0,-264.0,1.0,-23.0,54.0,-7.0,-46.0,-1015.0,87.0
-7.0,-264.0,0.0,-21.0,56.0,-6.0,-49.0,-1015.0,87.0
-5.0,-264.0,3.0,-19.0,56.0,-7.0,-44.0,-1017.0,83.0
-8.0,-265.0,0.0,-17.0,55.0,-6.0,-52.0,-1021.0,86.0
-6.0,-265.0,2.0,-14.0,55.0,-7.0,-50.0,-1017.0,86.0
-6.0,-264.0,2.0,-11.0,54.0,-6.0,-49.0,-1027.0,91.0
-7.0,-262.0,2.0,-10.0,55.0,-7.0,-48.0,-1028.0,89.0
-4.0,-264.0,-1.0,-7.0,54.0,-8.0,-46.0,-1018.0,89.0
-8.0,-262.0,4.0,-5.0,53.0,-9.0,-50.0,-1016.0,90.0
-6.0,-263.0,0.0,-5.0,50.0,-10.0,-39.0,-1012.0,85.0
-6.0,-260.0,4.0,-7.0,47.0,-11.0,-44.0,-1014.0,89.0
-4.0,-263.0,0.0,-14.0,48.0,-11.0,-43.0,-1009.0,87.0
-6.0,-264.0,-1.0,-19.0,48.0,-9.0,-40.0,-1014.0,86.0
-4.0,-266.0,2.0,-24.0,50.0,-8.0,-33.0,-1020.0,86.0
-4.0,-264.0,0.0,-27.0,54.0,-5.0,-38.0,-1037.0,87.0
-6.0,-266.0,-1.0,-27.0,54.0,-3.0,-47.0,-1037.0,85.0
-5.0,-264.0,-1.0,-23.0,54.0,0.0,-41.0,-1026.0,88.0
-7.0,-266.0,2.0,-16.0,54.0,-1.0,-49.0,-1030.0,89.0
-7.0,-263.0,0.0,-10.0,54.0,1.0,-42.0,-1014.0,84.0
-6.0,-262.0,2.0,-7.0,53.0,-3.0,-45.0,-1011.0,83.0
-7.0,-261.0,3.0,-7.0,55.0,-1.0,-41.0,-1012.0,84.0
-5.0,-262.0,-2.0,-9.0,55.0,-3.0,-41.0,-1008.0,84.0
-6.0,-262.0,1.0,-11.0,57.0,-3.0,-46.0,-1015.0,77.0
-6.0,-261.0,0.0,-13.0,56.0,-6.0,-44.0,-1007.0,83.0
-8.0,-259.0,-3.0,-16.0,57.0,-5.0,-43.0,-1011.0,79.0
-3.0,-264.0,1.0,-18.0,59.0,-7.0,-43.0,-1012.0,78.0
-7.0,-264.0,-2.0,-19.0,59.0,-5.0,-39.0,-1030.0,88.0
-7.0,-264.0,-1.0,-19.0,59.0,-7.0,-42.0,-1023.0,83.0
-4.0,-265.0,2.0,-16.0,59.0,-5.0,-49.0,-1018.0,84.0
-8.0,-263.0,2.0,-12.0,58.0,-6.0,-40.0,-1019.0,88.0
-7.0,-261.0,-5.0,-8.0,59.0,-4.0,-41.0,-1012.0,89.0
-7.0,-261.0,4.0,-7.0,58.0,-7.0,-40.0,-1018.0,89.0
-5.0,-264.0,1.0,-7.0,59.0,-4.0,-41.0,-1014.0,85.0
-8.0,-263.0,-2.0,-9.0,60.0,-7.0,-41.0,-1012.0,89.0
-6.0,-264.0,-1.0,-14.0,60.0,-6.0,-43.0,-1015.0,86.0
-6.0,-262.0,0.0,-16.0,60.0,-8.0,-45.0,-1020.0,87.0
-3.0,-265.0,-3.0,-22.0,61.0,-5.0,-46.0,-1014.0,86.0
-5.0,-262.0,3.0,-28.0,63.0,-6.0,-45.0,-1019.0,87.0
-6.0,-261.0,1.0,-32.0,63.0,-5.0,-42.0,-1016.0,85.0
-6.0,-262.0,1.0,-35.0,64.0,-6.0,-40.0,-1030.0,87.0
-6.0,-263.0,-2.0,-37.0,64.0,-4.0,-35.0,-1026.0,89.0
-4.0,-264.0,-4.0,-35.0,63.0,-6.0,-36.0,-1022.0,89.0
-5.0,-265.0,3.0,-33.0,62.0,-4.0,-38.0,-1012.0,84.0
-4.0,-262.0,-1.0,-31.0,64.0,-5.0,-32.0,-1019.0,83.0
-5.0,-261.0,1.0,-26.0,64.0,-4.0,-35.0,-1013.0,84.0
-4.0,-264.0,-1.0,-23.0,65.0,-7.0,-33.0,-1013.0,79.0
-7.0,-263.0,-4.0,-20.0,64.0,-7.0,-35.0,-1015.0,85.0
-5.0,-264.0,0.0,-18.0,64.0,-7.0,-41.0,-1019.0,83.0
-5.0,-265.0,-1.0,-14.0,63.0,-7.0,-37.0,-1017.0,85.0
-6.0,-265.0,1.0,-11.0,62.0,-7.0,-40.0,-1023.0,83.0
-5.0,-265.0,3.0,-11.0,62.0,-6.0,-41.0,-1025.0,84.0
-8.0,-267.0,0.0,-11.0,62.0,-9.0,-45.0,-1019.0,86.0
-6.0,-262.0,-3.0,-10.0,61.0,-7.0,-44.0,-1015.0,85.0
-5.0,-264.0,3.0,-9.0,60.0,-7.0,-44.0,-1032.0,88.0
-7.0,-263.0,1.0,-7.0,60.0,-5.0,-43.0,-1021.0,92.0
-5.0,-265.0,2.0,-10.0,59.0,-4.0,-43.0,-1016.0,86.0
-6.0,-267.0,1.0,-9.0,59.0,-4.0,-43.0,-1018.0,90.0
-1.0,-265.0,-1.0,-12.0,59.0,-4.0,-39.0,-1014.0,85.0
-6.0,-263.0,4.0,-11.0,59.0,-4.0,-40.0,-1013.0,90.0
-8.0,-263.0,-1.0,-11.0,60.0,-1.0,-41.0,-1018.0,85.0
-4.0,-262.0,0.0,-12.0,58.0,-4.0,-34.0,-1012.0,86.0
-7.0,-263.0,0.0,-11.0,58.0,-2.0,-41.0,-1017.0,86.0
-5.0,-264.0,1.0,-11.0,58.0,-4.0,-42.0,-1012.0,82.0
-5.0,-266.0,0.0,-10.0,57.0,-2.0,-40.0,-1011.0,80.0
-6.0,-263.0,-1.0,-9.0,55.0,-3.0,-45.0,-1014.0,83.0
-6.0,-262.0,1.0,-9.0,54.0,-1.0,-43.0,-1017.0,89.0
-7.0,-262.0,2.0,-10.0,53.0,-4.0,-46.0,-1030.0,85.0
-5.0,-265.0,4.0,-9.0,51.0,-1.0,-42.0,-1026.0,92.0
-6.0,-262.0,0.0,-10.0,49.0,-4.0,-43.0,-1032.0,90.0
-5.0,-265.0,1.0,-10.0,47.0,-1.0,-44.0,-1030.0,90.0
-7.0,-262.0,3.0,-8.0,46.0,-3.0,-36.0,-1024.0,90.0
-4.0,-267.0,1.0,-6.0,45.0,-1.0,-45.0,-1024.0,92.0
-6.0,-262.0,-1.0,-6.0,45.0,-3.0,-37.0,-1019.0,87.0
-5.0,-262.0,1.0,-5.0,45.0,-2.0,-43.0,-1020.0,87.0
-4.0,-263.0,3.0,-4.0,45.0,-4.0,-38.0,-1012.0,85.0
-6.0,-264.0,0.0,-3.0,44.0,-1.0,-42.0,-1013.0,82.0
-6.0,-261.0,-1.0,-3.0,43.0,-4.0,-39.0,-1011.0,81.0
-7.0,-258.0,-4.0,-3.0,43.0,-1.0,-38.0,-1006.0,80.0
-3.0,-261.0,-1.0,-6.0,42.0,-4.0,-40.0,-1011.0,84.0
-5.0,-263.0,1.0,-7.0,44.0,-2.0,-37.0,-1012.0,83.0
-6.0,-262.0,0.0,-6.0,43.0,-4.0,-38.0,-1015.0,86.0
-3.0,-264.0,-2.0,-8.0,43.0,-2.0,-42.0,-1015.0,86.0
-5.0,-264.0,5.0,-10.0,42.0,-5.0,-39.0,-1020.0,90.0
-8.0,-266.0,0.0,-9.0,42.0,-2.0,-33.0,-1016.0,89.0
-6.0,-262.0,5.0,-10.0,42.0,-5.0,-37.0,-1022.0,90.0
-7.0,-264.0,2.0,-10.0,41.0,-4.0,-37.0,-1028.0,88.0
-4.0,-265.0,1.0,-11.0,41.0,-5.0,-39.0,-1020.0,88.0
-6.0,-263.0,2.0,-12.0,41.0,-4.0,-37.0,-1025.0,89.0
-6.0,-262.0,3.0,-11.0,42.0,-6.0,-40.0,-1023.0,87.0
-6.0,-262.0,1.0,-10.0,43.0,-3.0,-39.0,-1016.0,90.0
-4.0,-265.0,1.0,-9.0,43.0,-5.0,-37.0,-1026.0,89.0
-7.0,-263.0,1.0,-8.0,44.0,-2.0,-37.0,-1022.0,83.0
-4.0,-263.0,0.0,-7.0,43.0,-4.0,-41.0,-1011.0,83.0
-7.0,-261.0,-2.0,-6.0,44.0,-3.0,-36.0,-1014.0,85.0
-3.0,-263.0,1.0,-5.0,42.0,-5.0,-37.0,-1009.0,88.0
-4.0,-262.0,2.0,-6.0,43.0,-5.0,-43.0,-1013.0,87.0
-5.0,-262.0,1.0,-8.0,44.0,-4.0,-33.0,-1012.0,87.0
-4.0,-262.0,0.0,-10.0,44.0,-4.0,-41.0,-1017.0,89.0
-3.0,-264.0,2.0,-10.0,43.0,-4.0,-35.0,-1013.0,91.0
-5.0,-264.0,2.0,-12.0,42.0,-4.0,-35.0,-1012.0,92.0
-4.0,-263.0,0.0,-13.0,44.0,-4.0,-37.0,-1015.0,89.0
-6.0,-263.0,4.0,-15.0,44.0,-4.0,-37.0,-1016.0,92.0
-3.0,-264.0,-2.0,-15.0,44.0,-3.0,-34.0,-1019.0,91.0
-7.0,-263.0,3.0,-14.0,44.0,-3.0,-39.0,-1018.0,86.0
-4.0,-266.0,1.0,-14.0,44.0,-2.0,-33.0,-1017.0,86.0
-5.0,-261.0,0.0,-12.0,44.0,-4.0,-41.0,-1014.0,90.0
-4.0,-263.0,1.0,-11.0,43.0,-2.0,-41.0,-1027.0,85.0
-3.0,-263.0,2.0,-10.0,45.0,-4.0,-41.0,-1016.0,88.0
-7.0,-263.0,1.0,-10.0,44.0,-2.0,-42.0,-1025.0,87.0
-7.0,-261.0,1.0,-12.0,45.0,-4.0,-42.0,-1010.0,89.0
-5.0,-263.0,2.0,-11.0,45.0,-2.0,-41.0,-1015.0,85.0
-6.0,-263.0,0.0,-12.0,46.0,-4.0,-45.0,-1010.0,89.0
-6.0,-263.0,0.0,-13.0,46.0,-3.0,-39.0,-1014.0,88.0
-4.0,-264.0,3.0,-13.0,47.0,-5.0,-39.0,-1010.0,83.0
-5.0,-263.0,0.0,-13.0,45.0,-2.0,-43.0,-1014.0,86.0
-7.0,-261.0,0.0,-13.0,46.0,-3.0,-39.0,-1014.0,86.0
-5.0,-264.0,1.0,-14.0,47.0,-2.0,-44.0,-1012.0,90.0
-7.0,-263.0,1.0,-13.0,47.0,-4.0,-46.0,-1014.0,88.0
-7.0,-263.0,2.0,-12.0,47.0,-3.0,-44.0,-1021.0,86.0
-5.0,-265.0,3.0,-12.0,47.0,-4.0,-39.0,-1018.0,89.0
-8.0,-263.0,-2.0,-12.0,46.0,-3.0,-42.0,-1028.0,90.0
-6.0,-265.0,3.0,-10.0,45.0,-6.0,-42.0,-1015.0,89.0
-6.0,-267.0,-1.0,-10.0,45.0,-4.0,-40.0,-1026.0,91.0
-7.0,-264.0,2.0,-11.0,46.0,-5.0,-39.0,-1016.0,92.0
-7.0,-264.0,1.0,-11.0,45.0,-2.0,-43.0,-1024.0,91.0
-7.0,-264.0,3.0,-10.0,43.0,-3.0,-47.0,-1018.0,88.0
-6.0,-261.0,3.0,-8.0,43.0,-1.0,-44.0,-1023.0,89.0
-7.0,-259.0,0.0,-7.0,42.0,-2.0,-41.0,-1017.0,88.0
-5.0,-262.0,1.0,-5.0,44.0,0.0,-39.0,-1014.0,86.0
-8.0,-265.0,0.0,-6.0,46.0,-3.0,-38.0,-1022.0,83.0
-6.0,-261.0,1.0,-4.0,45.0,0.0,-45.0,-1012.0,84.0
-6.0,-261.0,1.0,-5.0,44.0,-3.0,-42.0,-1014.0,84.0
-7.0,-261.0,-3.0,-4.0,44.0,-1.0,-41.0,-1014.0,88.0
-4.0,-262.0,0.0,-6.0,44.0,-3.0,-43.0,-1015.0,85.0
-6.0,-263.0,3.0,-6.0,44.0,-1.0,-42.0,-1021.0,87.0
-4.0,-264.0,-2.0,-6.0,44.0,-3.0,-37.0,-1017.0,89.0
-5.0,-263.0,2.0,-8.0,43.0,-3.0,-41.0,-1024.0,88.0
-4.0,-267.0,1.0,-7.0,42.0,-3.0,-40.0,-1013.0,90.0
-7.0,-263.0,-1.0,-7.0,42.0,-4.0,-38.0,-1018.0,90.0
-6.0,-264.0,2.0,-7.0,42.0,-4.0,-41.0,-1017.0,87.0
-2.0,-266.0,-2.0,-6.0,41.0,-4.0,-43.0,-1030.0,87.0
-4.0,-263.0,4.0,-5.0,42.0,-2.0,-39.0,-1025.0,89.0
-5.0,-265.0,0.0,-7.0,43.0,-1.0,-45.0,-1008.0,88.0
-5.0,-263.0,1.0,-9.0,44.0,0.0,-41.0,-1015.0,88.0
-5.0,-265.0,0.0,-11.0,44.0,0.0,-43.0,-1021.0,87.0
-7.0,-262.0,3.0,-11.0,45.0,-1.0,-40.0,-1016.0,89.0
-6.0,-261.0,-3.0,-12.0,44.0,-2.0,-44.0,-1013.0,89.0
-6.0,-264.0,1.0,-10.0,47.0,-1.0,-42.0,-1018.0,85.0
-5.0,-263.0,3.0,-10.0,46.0,-2.0,-46.0,-1016.0,86.0
-4.0,-262.0,-2.0,-10.0,47.0,-2.0,-43.0,-1012.0,87.0
-7.0,-258.0,-1.0,-10.0,46.0,-4.0,-38.0,-1014.0,82.0
-7.0,-262.0,0.0,-10.0,48.0,-4.0,-38.0,-1012.0,85.0
-5.0,-264.0,-2.0,-7.0,47.0,-4.0,-33.0,-1015.0,85.0
-7.0,-263.0,1.0,-6.0,48.0,-4.0,-36.0,-1016.0,86.0
-6.0,-262.0,-1.0,-6.0,47.0,-4.0,-37.0,-1015.0,86.0
-5.0,-263.0,-3.0,-8.0,47.0,-3.0,-41.0,-1016.0,88.0
-7.0,-262.0,4.0,-8.0,47.0,-5.0,-36.0,-1017.0,89.0
-5.0,-264.0,0.0,-11.0,46.0,-4.0,-40.0,-1016.0,89.0
-8.0,-264.0,0.0,-11.0,44.0,-6.0,-46.0,-1016.0,86.0
-5.0,-264.0,5.0,-14.0,45.0,-3.0,-44.0,-1021.0,88.0
-5.0,-264.0,3.0,-17.0,47.0,-5.0,-43.0,-1026.0,92.0
-4.0,-267.0,-1.0,-18.0,49.0,-4.0,-45.0,-1029.0,89.0
-7.0,-264.0,2.0,-22.0,49.0,-3.0,-42.0,-1019.0,89.0
-5.0,-265.0,4.0,-23.0,50.0,-2.0,-42.0,-1022.0,95.0
-6.0,-264.0,1.0,-25.0,50.0,-4.0,-40.0,-1019.0,96.0
-5.0,-261.0,3.0,-25.0,52.0,-2.0,-44.0,-1014.0,90.0
-5.0,-264.0,1.0,-22.0,51.0,-4.0,-38.0,-1013.0,89.0
-6.0,-263.0,-2.0,-19.0,52.0,-2.0,-32.0,-1012.0,84.0
-5.0,-261.0,-2.0,-17.0,54.0,-5.0,-38.0,-1011.0,86.0
-3.0,-262.0,4.0,-14.0,55.0,-3.0,-32.0,-1012.0,87.0
-6.0,-261.0,-2.0,-12.0,56.0,-5.0,-38.0,-1016.0,85.0
-5.0,-263.0,1.0,-10.0,56.0,-2.0,-36.0,-1018.0,90.0
-6.0,-264.0,3.0,-9.0,55.0,-6.0,-35.0,-1019.0,89.0
-6.0,-266.0,0.0,-8.0,55.0,-3.0,-43.0,-1018.0,90.0
-7.0,-263.0,2.0,-6.0,55.0,-5.0,-39.0,-1021.0,92.0
-4.0,-263.0,1.0,-4.0,56.0,-5.0,-40.0,-1017.0,97.0
-6.0,-263.0,4.0,-3.0,57.0,-7.0,-46.0,-1025.0,98.0
-4.0,-265.0,6.0,-3.0,57.0,-5.0,-44.0,-1018.0,97.0
-6.0,-264.0,3.0,-4.0,59.0,-6.0,-46.0,-1017.0,99.0
-7.0,-262.0,2.0,-5.0,59.0,-5.0,-43.0,-1017.0,91.0
-8.0,-260.0,6.0,-5.0,61.0,-5.0,-41.0,-1008.0,94.0
-7.0,-262.0,2.0,-7.0,62.0,-3.0,-44.0,-1011.0,93.0
-7.0,-261.0,3.0,-10.0,62.0,-3.0,-49.0,-1009.0,91.0
-5.0,-262.0,4.0,-13.0,63.0,-3.0,-40.0,-1009.0,91.0
-4.0,-261.0,1.0,-17.0,62.0,-3.0,-43.0,-1010.0,92.0
-7.0,-262.0,0.0,-19.0,64.0,-2.0,-36.0,-1007.0,88.0
-5.0,-260.0,2.0,-21.0,62.0,-3.0,-47.0,-1008.0,91.0
-6.0,-261.0,3.0,-21.0,62.0,-3.0,-40.0,-1010.0,90.0
-4.0,-265.0,4.0,-23.0,63.0,-4.0,-39.0,-1011.0,92.0
-8.0,-262.0,0.0,-24.0,62.0,-4.0,-40.0,-1024.0,90.0
-6.0,-266.0,2.0,-24.0,61.0,-4.0,-40.0,-1017.0,92.0
-6.0,-262.0,0.0,-25.0,61.0,-4.0,-40.0,-1016.0,95.0
-7.0,-263.0,5.0,-27.0,62.0,-5.0,-42.0,-1018.0,92.0
-5.0,-266.0,0.0,-26.0,62.0,-6.0,-42.0,-1017.0,97.0
-6.0,-264.0,6.0,-26.0,59.0,-6.0,-42.0,-1018.0,98.0
-8.0,-264.0,2.0,-28.0,61.0,-8.0,-40.0,-1014.0,93.0
-6.0,-263.0,4.0,-27.0,61.0,-6.0,-46.0,-1016.0,92.0
-7.0,-260.0,-3.0,-28.0,62.0,-7.0,-42.0,-1013.0,89.0
-6.0,-260.0,-1.0,-28.0,62.0,-6.0,-44.0,-1016.0,87.0
-8.0,-262.0,0.0,-28.0,62.0,-7.0,-39.0,-1017.0,84.0
-5.0,-264.0,0.0,-27.0,63.0,-6.0,-41.0,-1015.0,86.0
-7.0,-263.0,1.0,-27.0,63.0,-6.0,-45.0,-1020.0,81.0
-7.0,-261.0,-2.0,-27.0,64.0,-4.0,-42.0,-1018.0,84.0
-7.0,-262.0,1.0,-27.0,66.0,-6.0,-47.0,-1013.0,92.0
-6.0,-262.0,2.0,-27.0,65.0,-4.0,-47.0,-1009.0,93.0
-6.0,-266.0,1.0,-27.0,64.0,-7.0,-44.0,-1015.0,91.0
-5.0,-265.0,5.0,-30.0,63.0,-4.0,-49.0,-1025.0,91.0
-4.0,-267.0,2.0,-31.0,62.0,-8.0,-44.0,-1016.0,92.0
-7.0,-264.0,6.0,-33.0,63.0,-6.0,-39.0,-1017.0,96.0
-5.0,-264.0,6.0,-34.0,61.0,-7.0,-38.0,-1015.0,94.0
-7.0,-261.0,5.0,-35.0,63.0,-5.0,-37.0,-1020.0,93.0
-6.0,-264.0,-1.0,-34.0,63.0,-6.0,-41.0,-1016.0,93.0
-6.0,-262.0,5.0,-35.0,62.0,-5.0,-43.0,-1020.0,92.0
-5.0,-265.0,7.0,-35.0,61.0,-6.0,-45.0,-1016.0,91.0
-6.0,-263.0,2.0,-35.0,62.0,-3.0,-40.0,-1017.0,86.0
-6.0,-262.0,2.0,-34.0,62.0,-5.0,-44.0,-1015.0,84.0
-7.0,-262.0,0.0,-34.0,63.0,-3.0,-40.0,-1011.0,82.0
-7.0,-261.0,-3.0,-34.0,63.0,-5.0,-40.0,-1010.0,83.0
-5.0,-265.0,-3.0,-35.0,63.0,-2.0,-42.0,-1013.0,83.0
-6.0,-260.0,1.0,-34.0,63.0,-4.0,-39.0,-1015.0,88.0
-6.0,-264.0,-1.0,-35.0,64.0,-2.0,-42.0,-1013.0,91.0
-6.0,-263.0,1.0,-36.0,64.0,-5.0,-41.0,-1014.0,90.0
-8.0,-262.0,5.0,-36.0,64.0,-3.0,-40.0,-1014.0,89.0
-7.0,-263.0,3.0,-36.0,64.0,-5.0,-38.0,-1016.0,89.0
-6.0,-265.0,2.0,-38.0,64.0,-3.0,-36.0,-1016.0,87.0
-4.0,-264.0,2.0,-35.0,65.0,-4.0,-39.0,-1017.0,91.0
-7.0,-262.0,2.0,-36.0,64.0,-3.0,-42.0,-1014.0,91.0
-6.0,-263.0,2.0,-36.0,65.0,-3.0,-42.0,-1014.0,90.0
-6.0,-263.0,4.0,-35.0,67.0,-3.0,-37.0,-1016.0,91.0
-7.0,-261.0,2.0,-34.0,67.0,-4.0,-42.0,-1026.0,89.0
-5.0,-263.0,0.0,-36.0,66.0,-2.0,-38.0,-1013.0,89.0
-6.0,-262.0,-1.0,-37.0,66.0,-4.0,-46.0,-1024.0,83.0
-6.0,-264.0,-1.0,-37.0,67.0,-3.0,-42.0,-1019.0,84.0
-5.0,-262.0,0.0,-35.0,68.0,-5.0,-41.0,-1013.0,83.0
-4.0,-263.0,-1.0,-36.0,68.0,-5.0,-44.0,-1012.0,83.0
-7.0,-262.0,-1.0,-36.0,67.0,-5.0,-44.0,-1012.0,84.0
-5.0,-263.0,-2.0,-36.0,67.0,-7.0,-39.0,-1010.0,81.0
-4.0,-263.0,2.0,-36.0,68.0,-6.0,-39.0,-1018.0,83.0
-6.0,-266.0,-2.0,-36.0,70.0,-7.0,-38.0,-1019.0,80.0
-6.0,-264.0,0.0,-32.0,70.0,-7.0,-33.0,-1016.0,81.0
-6.0,-267.0,1.0,-30.0,70.0,-6.0,-36.0,-1024.0,80.0
-5.0,-263.0,0.0,-29.0,69.0,-7.0,-36.0,-1025.0,82.0
-3.0,-265.0,0.0,-27.0,71.0,-8.0,-39.0,-1032.0,85.0
-5.0,-265.0,-1.0,-25.0,69.0,-7.0,-40.0,-1027.0,82.0
-7.0,-262.0,-2.0,-24.0,70.0,-9.0,-42.0,-1030.0,88.0
-7.0,-265.0,1.0,-22.0,69.0,-7.0,-42.0,-1026.0,84.0
-5.0,-265.0,0.0,-21.0,70.0,-8.0,-42.0,-1026.0,82.0
-7.0,-265.0,-3.0,-19.0,69.0,-6.0,-44.0,-1031.0,83.0
-8.0,-263.0,0.0,-18.0,70.0,-8.0,-49.0,-1018.0,85.0
-5.0,-265.0,-6.0,-15.0,70.0,-6.0,-42.0,-1016.0,81.0
-6.0,-262.0,-1.0,-14.0,69.0,-8.0,-43.0,-1015.0,82.0
-7.0,-262.0,-1.0,-15.0,69.0,-5.0,-49.0,-1016.0,82.0
-6.0,-263.0,0.0,-12.0,68.0,-7.0,-47.0,-1010.0,81.0
-6.0,-266.0,-1.0,-14.0,69.0,-6.0,-40.0,-1012.0,77.0
-8.0,-260.0,0.0,-15.0,69.0,-9.0,-46.0,-1018.0,80.0
-8.0,-264.0,-7.0,-14.0,69.0,-7.0,-48.0,-1014.0,84.0
-6.0,-263.0,0.0,-14.0,66.0,-9.0,-43.0,-1015.0,79.0
-5.0,-263.0,-2.0,-13.0,67.0,-6.0,-45.0,-1031.0,79.0
-7.0,-262.0,-5.0,-11.0,67.0,-9.0,-42.0,-1019.0,78.0
-7.0,-266.0,-2.0,-12.0,65.0,-6.0,-43.0,-1017.0,81.0
-4.0,-265.0,-1.0,-8.0,64.0,-8.0,-42.0,-1018.0,80.0
-6.0,-263.0,-2.0,-8.0,62.0,-6.0,-41.0,-1023.0,82.0
-6.0,-265.0,0.0,-6.0,62.0,-9.0,-45.0,-1028.0,79.0
-7.0,-261.0,-1.0,-6.0,62.0,-7.0,-42.0,-1026.0,86.0
-7.0,-264.0,1.0,-6.0,62.0,-8.0,-46.0,-1023.0,87.0
-6.0,-263.0,-5.0,-6.0,64.0,-6.0,-39.0,-1023.0,82.0
-6.0,-264.0,-3.0,-8.0,62.0,-8.0,-41.0,-1017.0,81.0
-2.0,-265.0,0.0,-6.0,62.0,-8.0,-42.0,-1030.0,77.0
-6.0,-263.0,-2.0,-5.0,63.0,-10.0,-40.0,-1023.0,77.0
-6.0,-263.0,-3.0,-5.0,62.0,-10.0,-44.0,-1032.0,79.0
-7.0,-265.0,-1.0,-7.0,63.0,-10.0,-41.0,-1027.0,73.0
-4.0,-265.0,-1.0,-5.0,65.0,-9.0,-36.0,-1035.0,78.0
-3.0,-266.0,-4.0,-1.0,65.0,-11.0,-41.0,-1030.0,76.0
-5.0,-265.0,-1.0,4.0,67.0,-12.0,-40.0,-1034.0,77.0
-8.0,-263.0,-1.0,5.0,65.0,-12.0,-44.0,-1030.0,76.0
-6.0,-264.0,-4.0,7.0,66.0,-15.0,-45.0,-1034.0,80.0
-7.0,-268.0,-4.0,6.0,67.0,-16.0,-48.0,-1039.0,75.0
-5.0,-268.0,-2.0,4.0,65.0,-17.0,-41.0,-1040.0,80.0
-7.0,-267.0,-1.0,5.0,66.0,-18.0,-42.0,-1042.0,74.0
-5.0,-268.0,-2.0,9.0,64.0,-21.0,-45.0,-1040.0,77.0
-6.0,-267.0,-4.0,12.0,65.0,-21.0,-41.0,-1041.0,78.0
-4.0,-267.0,-3.0,17.0,64.0,-21.0,-44.0,-1041.0,72.0
-7.0,-266.0,-5.0,20.0,62.0,-23.0,-44.0,-1042.0,71.0
-5.0,-267.0,0.0,21.0,58.0,-24.0,-42.0,-1054.0,65.0
-7.0,-266.0,-9.0,23.0,57.0,-22.0,-39.0,-1049.0,66.0
-4.0,-268.0,-2.0,24.0,57.0,-24.0,-38.0,-1049.0,66.0
-4.0,-269.0,-3.0,24.0,58.0,-23.0,-40.0,-1052.0,71.0
-6.0,-270.0,-4.0,27.0,58.0,-23.0,-42.0,-1054.0,69.0
-4.0,-269.0,-5.0,27.0,57.0,-20.0,-47.0,-1050.0,73.0
-5.0,-269.0,-2.0,28.0,56.0,-21.0,-40.0,-1052.0,72.0
-5.0,-271.0,-3.0,27.0,54.0,-20.0,-40.0,-1053.0,76.0
-2.0,-270.0,-5.0,31.0,54.0,-20.0,-40.0,-1059.0,72.0
-6.0,-271.0,-6.0,39.0,53.0,-18.0,-32.0,-1058.0,68.0
-4.0,-273.0,-5.0,49.0,51.0,-21.0,-30.0,-1060.0,65.0
-2.0,-269.0,-7.0,64.0,50.0,-20.0,-30.0,-1051.0,62.0
-1.0,-271.0,-7.0,74.0,49.0,-26.0,-25.0,-1048.0,55.0
-1.0,-268.0,-11.0,83.0,43.0,-29.0,-24.0,-1046.0,54.0
-3.0,-268.0,-10.0,92.0,39.0,-36.0,-25.0,-1047.0,57.0
-2.0,-267.0,-5.0,100.0,33.0,-38.0,-14.0,-1045.0,56.0
2.0,-268.0,-7.0,105.0,32.0,-44.0,-14.0,-1046.0,58.0
1.0,-268.0,-3.0,108.0,30.0,-45.0,-13.0,-1047.0,60.0
1.0,-267.0,-9.0,110.0,30.0,-52.0,-13.0,-1043.0,65.0
3.0,-267.0,-3.0,109.0,29.0,-54.0,-6.0,-1040.0,64.0
2.0,-267.0,-5.0,109.0,30.0,-60.0,-11.0,-1046.0,71.0
0.0,-267.0,-5.0,109.0,32.0,-61.0,-14.0,-1041.0,68.0
1.0,-267.0,-3.0,110.0,36.0,-66.0,-24.0,-1039.0,73.0
-1.0,-266.0,-4.0,112.0,40.0,-66.0,-26.0,-1039.0,69.0
-1.0,-266.0,-5.0,110.0,41.0,-69.0,-28.0,-1030.0,72.0
-1.0,-264.0,-5.0,112.0,45.0,-68.0,-26.0,-1038.0,72.0
-1.0,-266.0,-3.0,114.0,48.0,-70.0,-26.0,-1027.0,73.0
-3.0,-268.0,-7.0,121.0,52.0,-68.0,-22.0,-1027.0,71.0
0.0,-265.0,-4.0,127.0,53.0,-70.0,-21.0,-1027.0,72.0
-1.0,-263.0,-4.0,136.0,55.0,-68.0,-20.0,-1015.0,66.0
0.0,-259.0,-4.0,141.0,55.0,-70.0,-16.0,-1003.0,61.0
-1.0,-260.0,-1.0,148.0,54.0,-70.0,-16.0,-1008.0,61.0
-1.0,-259.0,-2.0,151.0,55.0,-72.0,-15.0,-999.0,57.0
-3.0,-256.0,-6.0,149.0,55.0,-73.0,-21.0,-998.0,56.0
1.0,-259.0,-6.0,148.0,51.0,-77.0,-21.0,-1003.0,59.0
0.0,-261.0,-5.0,140.0,49.0,-76.0,-26.0,-1008.0,57.0
1.0,-257.0,-6.0,133.0,48.0,-78.0,-20.0,-1007.0,61.0
0.0,-262.0,-5.0,128.0,50.0,-76.0,-19.0,-1004.0,61.0
-4.0,-263.0,-7.0,125.0,53.0,-76.0,-27.0,-1010.0,67.0
-3.0,-264.0,-7.0,124.0,55.0,-74.0,-29.0,-1016.0,65.0
-4.0,-262.0,-4.0,121.0,57.0,-73.0,-29.0,-1025.0,66.0
-4.0,-263.0,-5.0,122.0,60.0,-72.0,-30.0,-1022.0,61.0
-4.0,-264.0,-6.0,124.0,63.0,-69.0,-32.0,-1025.0,57.0
-4.0,-265.0,-6.0,129.0,63.0,-66.0,-32.0,-1024.0,56.0
0.0,-267.0,-7.0,136.0,61.0,-63.0,-38.0,-1024.0,54.0
-5.0,-266.0,-8.0,143.0,59.0,-61.0,-30.0,-1024.0,52.0
-4.0,-265.0,-7.0,151.0,57.0,-57.0,-32.0,-1031.0,51.0
-1.0,-266.0,-11.0,158.0,57.0,-55.0,-25.0,-1030.0,52.0
-1.0,-262.0,-8.0,165.0,58.0,-54.0,-17.0,-1017.0,45.0
0.0,-262.0,-7.0,170.0,58.0,-53.0,-22.0,-1013.0,56.0
2.0,-260.0,-8.0,177.0,56.0,-50.0,-15.0,-1009.0,50.0
3.0,-258.0,-5.0,183.0,56.0,-50.0,-9.0,-1006.0,51.0
1.0,-261.0,-10.0,187.0,57.0,-47.0,-13.0,-1000.0,49.0
2.0,-257.0,-7.0,185.0,59.0,-48.0,-8.0,-997.0,49.0
2.0,-257.0,-8.0,184.0,59.0,-43.0,-16.0,-989.0,47.0
-2.0,-252.0,-10.0,183.0,58.0,-44.0,-17.0,-985.0,47.0
-1.0,-252.0,-8.0,184.0,59.0,-38.0,-22.0,-984.0,49.0
-1.0,-255.0,-11.0,184.0,58.0,-36.0,-23.0,-976.0,50.0
-2.0,-250.0,-7.0,183.0,56.0,-29.0,-29.0,-976.0,46.0
-1.0,-253.0,-8.0,181.0,55.0,-25.0,-18.0,-968.0,46.0
-4.0,-248.0,-4.0,179.0,54.0,-18.0,-26.0,-962.0,49.0
-4.0,-249.0,-9.0,177.0,55.0,-17.0,-31.0,-962.0,44.0
-3.0,-248.0,-11.0,175.0,56.0,-10.0,-33.0,-955.0,39.0
-4.0,-246.0,-6.0,174.0,58.0,-7.0,-29.0,-958.0,43.0
-2.0,-251.0,-7.0,176.0,60.0,-4.0,-29.0,-955.0,46.0
-3.0,-246.0,-9.0,177.0,61.0,-6.0,-32.0,-945.0,48.0
-2.0,-243.0,-11.0,177.0,62.0,-2.0,-27.0,-946.0,44.0
-2.0,-241.0,-12.0,174.0,65.0,-4.0,-25.0,-937.0,42.0
-2.0,-237.0,-8.0,164.0,65.0,0.0,-18.0,-933.0,43.0
-2.0,-234.0,-10.0,154.0,66.0,-2.0,-16.0,-920.0,45.0
3.0,-233.0,-8.0,142.0,69.0,2.0,-15.0,-914.0,40.0
2.0,-232.0,-11.0,133.0,73.0,3.0,-12.0,-904.0,43.0
5.0,-231.0,-8.0,123.0,77.0,7.0,-3.0,-902.0,48.0
4.0,-228.0,-7.0,115.0,83.0,7.0,-6.0,-893.0,49.0
2.0,-228.0,-5.0,109.0,89.0,11.0,-7.0,-893.0,57.0
6.0,-229.0,-7.0,105.0,94.0,12.0,-3.0,-889.0,62.0
3.0,-227.0,-2.0,106.0,98.0,16.0,0.0,-886.0,75.0
4.0,-226.0,-1.0,114.0,106.0,20.0,2.0,-879.0,89.0
5.0,-226.0,4.0,122.0,115.0,29.0,8.0,-877.0,96.0
4.0,-225.0,5.0,133.0,125.0,35.0,-2.0,-879.0,111.0
2.0,-226.0,9.0,146.0,132.0,41.0,-6.0,-877.0,121.0
4.0,-228.0,13.0,154.0,133.0,45.0,-9.0,-883.0,130.0
-1.0,-229.0,15.0,159.0,123.0,48.0,-12.0,-891.0,137.0
-3.0,-230.0,14.0,162.0,109.0,50.0,-13.0,-894.0,138.0
0.0,-232.0,12.0,164.0,97.0,52.0,-19.0,-909.0,132.0
0.0,-236.0,12.0,161.0,86.0,54.0,-11.0,-915.0,128.0
-1.0,-237.0,10.0,156.0,84.0,57.0,-20.0,-921.0,121.0
-2.0,-240.0,8.0,149.0,90.0,57.0,-21.0,-924.0,109.0
-5.0,-243.0,9.0,136.0,96.0,59.0,-33.0,-931.0,106.0
-4.0,-241.0,6.0,120.0,105.0,61.0,-29.0,-933.0,99.0
-5.0,-239.0,5.0,104.0,106.0,65.0,-28.0,-931.0,96.0
2.0,-240.0,-3.0,91.0,105.0,77.0,-3.0,-930.0,82.0
1.0,-237.0,-1.0,67.0,98.0,79.0,-6.0,-925.0,75.0
1.0,-233.0,-6.0,38.0,88.0,79.0,-5.0,-913.0,71.0
7.0,-231.0,-2.0,10.0,92.0,76.0,-1.0,-902.0,60.0
9.0,-228.0,-8.0,-22.0,99.0,74.0,8.0,-895.0,50.0
4.0,-224.0,-11.0,-60.0,108.0,63.0,7.0,-884.0,45.0
5.0,-221.0,-10.0,-100.0,113.0,50.0,8.0,-878.0,54.0
7.0,-221.0,-8.0,-136.0,111.0,38.0,6.0,-875.0,61.0
8.0,-222.0,0.0,-169.0,109.0,22.0,0.0,-869.0,68.0
6.0,-219.0,0.0,-204.0,111.0,10.0,-6.0,-859.0,78.0
0.0,-218.0,0.0,-228.0,115.0,4.0,-13.0,-856.0,85.0
0.0,-217.0,1.0,-244.0,118.0,-6.0,-26.0,-855.0,86.0
-2.0,-218.0,5.0,-252.0,118.0,-11.0,-24.0,-851.0,96.0
-5.0,-218.0,-1.0,-250.0,114.0,-16.0,-28.0,-851.0,87.0
-2.0,-219.0,-7.0,-244.0,109.0,-16.0,-34.0,-857.0,73.0
-7.0,-214.0,-7.0,-241.0,99.0,-16.0,-37.0,-850.0,59.0
-6.0,-219.0,-12.0,-239.0,88.0,-14.0,-47.0,-848.0,55.0
-6.0,-214.0,-10.0,-241.0,81.0,-13.0,-46.0,-847.0,47.0
-8.0,-216.0,-10.0,-248.0,75.0,-5.0,-43.0,-850.0,42.0
2.0,-220.0,-14.0,-267.0,71.0,-3.0,-47.0,-817.0,33.0
-4.0,-218.0,-9.0,-294.0,65.0,9.0,-30.0,-860.0,35.0
-7.0,-216.0,-11.0,-331.0,65.0,5.0,-31.0,-855.0,47.0
-2.0,-216.0,-9.0,-363.0,62.0,11.0,-29.0,-848.0,61.0
-6.0,-219.0,-4.0,-395.0,59.0,18.0,-38.0,-855.0,70.0
-8.0,-216.0,-1.0,-432.0,53.0,25.0,-53.0,-855.0,79.0
-17.0,-221.0,2.0,-466.0,47.0,27.0,-70.0,-863.0,93.0
-19.0,-219.0,10.0,-490.0,33.0,31.0,-89.0,-869.0,104.0
-17.0,-222.0,7.0,-511.0,13.0,30.0,-93.0,-867.0,108.0
-17.0,-227.0,2.0,-525.0,-16.0,38.0,-84.0,-885.0,104.0
-17.0,-224.0,5.0,-536.0,-38.0,32.0,-89.0,-885.0,96.0
-18.0,-226.0,4.0,-541.0,-57.0,33.0,-86.0,-885.0,91.0
-13.0,-229.0,3.0,-541.0,-77.0,34.0,-83.0,-896.0,92.0
-13.0,-236.0,0.0,-541.0,-88.0,45.0,-80.0,-905.0,89.0
-20.0,-236.0,3.0,-544.0,-92.0,52.0,-84.0,-917.0,90.0
-12.0,-240.0,6.0,-547.0,-96.0,60.0,-76.0,-939.0,102.0
-14.0,-241.0,6.0,-553.0,-104.0,61.0,-68.0,-951.0,103.0
-15.0,-250.0,12.0,-564.0,-106.0,65.0,-69.0,-950.0,120.0
-9.0,-261.0,12.0,-572.0,-110.0,80.0,-73.0,-992.0,130.0
-10.0,-262.0,13.0,-566.0,-114.0,86.0,-58.0,-1010.0,139.0
-3.0,-266.0,13.0,-539.0,-121.0,92.0,-27.0,-1024.0,137.0
2.0,-268.0,12.0,-506.0,-128.0,97.0,-17.0,-1038.0,125.0
4.0,-269.0,10.0,-473.0,-130.0,118.0,-4.0,-1048.0,124.0
5.0,-269.0,7.0,-439.0,-135.0,136.0,7.0,-1051.0,118.0
6.0,-269.0,13.0,-401.0,-141.0,147.0,10.0,-1043.0,126.0
3.0,-264.0,12.0,-358.0,-148.0,154.0,-2.0,-1012.0,131.0
-3.0,-255.0,14.0,-310.0,-159.0,165.0,-20.0,-1000.0,139.0
-3.0,-254.0,11.0,-280.0,-181.0,173.0,-22.0,-981.0,127.0
-6.0,-250.0,12.0,-272.0,-201.0,174.0,-40.0,-964.0,135.0
-8.0,-247.0,11.0,-253.0,-206.0,177.0,-59.0,-962.0,136.0
-10.0,-252.0,13.0,-237.0,-209.0,186.0,-68.0,-971.0,130.0
-13.0,-253.0,15.0,-232.0,-219.0,184.0,-83.0,-973.0,135.0
-18.0,-258.0,11.0,-232.0,-228.0,181.0,-93.0,-991.0,133.0
-28.0,-242.0,20.0,-236.0,-236.0,171.0,-111.0,-991.0,147.0
-19.0,-264.0,11.0,-227.0,-245.0,175.0,-97.0,-1025.0,137.0
-17.0,-269.0,12.0,-216.0,-252.0,155.0,-101.0,-1044.0,130.0
-15.0,-273.0,13.0,-196.0,-250.0,145.0,-94.0,-1047.0,133.0
-16.0,-269.0,12.0,-166.0,-244.0,136.0,-89.0,-1051.0,133.0
-15.0,-270.0,12.0,-131.0,-234.0,133.0,-82.0,-1054.0,133.0
-9.0,-272.0,17.0,-84.0,-223.0,128.0,-63.0,-1049.0,142.0
-8.0,-269.0,14.0,-39.0,-211.0,132.0,-53.0,-1040.0,148.0
-4.0,-265.0,16.0,8.0,-204.0,138.0,-37.0,-1017.0,149.0
-1.0,-259.0,12.0,50.0,-205.0,151.0,-15.0,-1001.0,137.0
6.0,-250.0,13.0,81.0,-209.0,157.0,5.0,-969.0,136.0
4.0,-243.0,14.0,106.0,-213.0,160.0,7.0,-952.0,141.0
6.0,-239.0,11.0,131.0,-214.0,159.0,12.0,-928.0,110.0
3.0,-233.0,3.0,121.0,-223.0,160.0,-6.0,-903.0,100.0
2.0,-228.0,8.0,95.0,-238.0,150.0,-11.0,-877.0,115.0
0.0,-222.0,9.0,64.0,-261.0,141.0,-18.0,-874.0,108.0
-1.0,-223.0,9.0,24.0,-276.0,126.0,-24.0,-875.0,110.0
-1.0,-223.0,6.0,-12.0,-278.0,114.0,-26.0,-876.0,115.0
-8.0,-226.0,12.0,-41.0,-274.0,99.0,-45.0,-887.0,118.0
-17.0,-245.0,8.0,-57.0,-273.0,90.0,-79.0,-941.0,112.0
-12.0,-248.0,14.0,-32.0,-291.0,89.0,-79.0,-947.0,151.0
-16.0,-249.0,15.0,21.0,-295.0,89.0,-91.0,-953.0,142.0
-21.0,-254.0,16.0,70.0,-284.0,84.0,-99.0,-969.0,160.0
-24.0,-260.0,29.0,116.0,-287.0,98.0,-115.0,-991.0,192.0
-32.0,-256.0,30.0,185.0,-296.0,113.0,-123.0,-993.0,213.0
-24.0,-262.0,26.0,253.0,-301.0,140.0,-112.0,-996.0,196.0
-12.0,-259.0,29.0,306.0,-284.0,150.0,-80.0,-1003.0,180.0
-10.0,-259.0,28.0,326.0,-262.0,159.0,-62.0,-995.0,199.0
-6.0,-258.0,25.0,350.0,-240.0,165.0,-33.0,-991.0,191.0
-4.0,-256.0,26.0,370.0,-215.0,171.0,-30.0,-981.0,181.0
3.0,-252.0,21.0,382.0,-199.0,179.0,-6.0,-975.0,172.0
1.0,-246.0,19.0,378.0,-178.0,186.0,-8.0,-960.0,160.0
2.0,-243.0,23.0,364.0,-163.0,198.0,-11.0,-952.0,168.0
2.0,-243.0,18.0,349.0,-156.0,210.0,-5.0,-946.0,157.0
-3.0,-240.0,15.0,329.0,-158.0,217.0,-19.0,-937.0,154.0
-5.0,-240.0,19.0,299.0,-180.0,219.0,-35.0,-932.0,163.0
-9.0,-241.0,20.0,280.0,-194.0,220.0,-54.0,-934.0,168.0
-8.0,-246.0,25.0,271.0,-197.0,218.0,-48.0,-937.0,184.0
-10.0,-247.0,31.0,276.0,-189.0,213.0,-68.0,-943.0,199.0
-12.0,-249.0,33.0,300.0,-185.0,209.0,-68.0,-948.0,225.0
-13.0,-253.0,38.0,343.0,-178.0,201.0,-65.0,-961.0,226.0
-16.0,-255.0,39.0,394.0,-168.0,185.0,-79.0,-965.0,244.0
-19.0,-255.0,47.0,453.0,-160.0,175.0,-93.0,-959.0,264.0
-32.0,-248.0,47.0,515.0,-166.0,168.0,-130.0,-947.0,264.0
-30.0,-245.0,47.0,570.0,-178.0,158.0,-131.0,-943.0,247.0
-37.0,-240.0,47.0,617.0,-192.0,151.0,-157.0,-929.0,250.0
-39.0,-236.0,38.0,639.0,-210.0,159.0,-165.0,-915.0,240.0
-32.0,-232.0,32.0,645.0,-230.0,165.0,-146.0,-916.0,214.0
-32.0,-226.0,30.0,633.0,-232.0,173.0,-137.0,-893.0,223.0
-19.0,-231.0,31.0,613.0,-226.0,173.0,-108.0,-895.0,203.0
-21.0,-223.0,36.0,588.0,-210.0,167.0,-106.0,-886.0,211.0
-21.0,-222.0,38.0,568.0,-188.0,156.0,-97.0,-876.0,231.0
-17.0,-227.0,42.0,563.0,-178.0,159.0,-84.0,-878.0,232.0
-12.0,-230.0,40.0,563.0,-171.0,154.0,-68.0,-895.0,231.0
-15.0,-230.0,41.0,561.0,-164.0,148.0,-78.0,-897.0,241.0
-11.0,-239.0,42.0,568.0,-159.0,149.0,-60.0,-918.0,246.0
-8.0,-241.0,34.0,572.0,-164.0,152.0,-48.0,-932.0,222.0
-10.0,-244.0,41.0,570.0,-153.0,137.0,-62.0,-946.0,228.0
-8.0,-247.0,40.0,574.0,-146.0,134.0,-50.0,-951.0,235.0
-16.0,-250.0,40.0,579.0,-145.0,126.0,-75.0,-963.0,239.0
-21.0,-250.0,41.0,594.0,-159.0,135.0,-93.0,-970.0,244.0
-23.0,-252.0,37.0,618.0,-174.0,139.0,-107.0,-962.0,231.0
-25.0,-248.0,37.0,638.0,-186.0,141.0,-122.0,-951.0,228.0
-25.0,-244.0,34.0,650.0,-195.0,138.0,-109.0,-954.0,223.0
-28.0,-242.0,40.0,652.0,-186.0,133.0,-123.0,-938.0,230.0
-29.0,-245.0,44.0,647.0,-179.0,130.0,-131.0,-939.0,245.0
-34.0,-242.0,43.0,645.0,-186.0,131.0,-150.0,-930.0,253.0
-36.0,-240.0,43.0,644.0,-200.0,137.0,-152.0,-933.0,246.0
-31.0,-243.0,47.0,643.0,-198.0,144.0,-147.0,-942.0,253.0
-29.0,-246.0,45.0,642.0,-195.0,143.0,-133.0,-942.0,259.0
-23.0,-246.0,46.0,638.0,-189.0,145.0,-123.0,-947.0,265.0
-19.0,-249.0,48.0,641.0,-179.0,138.0,-99.0,-955.0,269.0
-23.0,-247.0,47.0,650.0,-170.0,130.0,-97.0,-950.0,270.0
-16.0,-247.0,53.0,658.0,-166.0,124.0,-75.0,-942.0,279.0
-14.0,-245.0,51.0,670.0,-166.0,115.0,-82.0,-955.0,284.0
-18.0,-245.0,60.0,672.0,-159.0,109.0,-80.0,-947.0,300.0
-13.0,-241.0,50.0,673.0,-157.0,110.0,-82.0,-934.0,296.0
-17.0,-243.0,58.0,667.0,-155.0,103.0,-67.0,-930.0,301.0
-11.0,-237.0,57.0,658.0,-146.0,98.0,-71.0,-924.0,295.0
-15.0,-235.0,54.0,650.0,-135.0,93.0,-79.0,-924.0,300.0
-16.0,-238.0,60.0,643.0,-130.0,99.0,-63.0,-936.0,312.0
-14.0,-236.0,60.0,631.0,-127.0,101.0,-86.0,-928.0,311.0
-13.0,-244.0,69.0,617.0,-119.0,108.0,-82.0,-937.0,343.0
-15.0,-241.0,62.0,617.0,-114.0,113.0,-57.0,-943.0,339.0
-17.0,-249.0,65.0,619.0,-107.0,108.0,-82.0,-956.0,336.0
-22.0,-254.0,63.0,620.0,-94.0,102.0,-76.0,-988.0,331.0
-17.0,-264.0,70.0,624.0,-91.0,98.0,-91.0,-996.0,331.0
-18.0,-263.0,68.0,627.0,-92.0,108.0,-105.0,-988.0,327.0
-16.0,-265.0,66.0,632.0,-86.0,106.0,-87.0,-1004.0,329.0
-17.0,-264.0,64.0,642.0,-80.0,98.0,-86.0,-1020.0,335.0
-24.0,-259.0,68.0,652.0,-75.0,83.0,-104.0,-1009.0,342.0
-24.0,-268.0,70.0,664.0,-72.0,69.0,-110.0,-1040.0,348.0
-34.0,-263.0,70.0,679.0,-69.0,52.0,-137.0,-1012.0,350.0
-23.0,-271.0,71.0,688.0,-71.0,57.0,-110.0,-1048.0,352.0
-33.0,-270.0,77.0,695.0,-76.0,46.0,-131.0,-1045.0,376.0
-25.0,-273.0,70.0,697.0,-73.0,46.0,-105.0,-1051.0,356.0
-21.0,-271.0,66.0,686.0,-72.0,32.0,-103.0,-1061.0,351.0
-22.0,-270.0,72.0,666.0,-65.0,27.0,-120.0,-1064.0,362.0
-24.0,-275.0,72.0,652.0,-63.0,27.0,-109.0,-1068.0,348.0
-19.0,-270.0,69.0,650.0,-58.0,24.0,-97.0,-1084.0,351.0
-23.0,-271.0,69.0,652.0,-54.0,18.0,-94.0,-1060.0,346.0
-22.0,-273.0,69.0,651.0,-54.0,18.0,-102.0,-1057.0,337.0
-21.0,-270.0,63.0,659.0,-52.0,11.0,-98.0,-1054.0,329.0
-24.0,-266.0,63.0,669.0,-52.0,1.0,-105.0,-1038.0,340.0
-25.0,-260.0,62.0,682.0,-56.0,-8.0,-115.0,-1002.0,330.0
-25.0,-261.0,69.0,685.0,-58.0,-7.0,-110.0,-999.0,329.0
-22.0,-257.0,71.0,698.0,-53.0,-15.0,-111.0,-992.0,347.0
-22.0,-256.0,74.0,712.0,-43.0,-17.0,-107.0,-989.0,369.0
-22.0,-258.0,78.0,734.0,-32.0,-19.0,-99.0,-984.0,386.0
-18.0,-259.0,83.0,754.0,-20.0,-20.0,-91.0,-991.0,405.0
-22.0,-259.0,87.0,774.0,-7.0,-27.0,-93.0,-989.0,427.0
-21.0,-257.0,93.0,798.0,2.0,-27.0,-110.0,-974.0,445.0
-22.0,-259.0,95.0,817.0,9.0,-25.0,-94.0,-988.0,454.0
-22.0,-257.0,101.0,828.0,15.0,-22.0,-96.0,-984.0,459.0
-18.0,-259.0,100.0,825.0,24.0,-19.0,-98.0,-992.0,475.0
-23.0,-259.0,102.0,828.0,35.0,-21.0,-94.0,-989.0,480.0
-29.0,-255.0,100.0,827.0,42.0,-28.0,-120.0,-983.0,490.0
-33.0,-254.0,101.0,825.0,47.0,-30.0,-138.0,-970.0,486.0
-34.0,-254.0,103.0,820.0,50.0,-28.0,-147.0,-981.0,487.0
-40.0,-255.0,101.0,812.0,55.0,-25.0,-162.0,-977.0,485.0
-37.0,-262.0,102.0,803.0,60.0,-21.0,-161.0,-991.0,488.0
-38.0,-258.0,104.0,792.0,60.0,-19.0,-139.0,-991.0,494.0
-37.0,-261.0,105.0,777.0,59.0,-23.0,-148.0,-997.0,504.0
-28.0,-263.0,106.0,766.0,57.0,-14.0,-121.0,-1013.0,512.0
-27.0,-259.0,110.0,756.0,55.0,-18.0,-129.0,-1000.0,512.0
-27.0,-259.0,106.0,751.0,49.0,-24.0,-113.0,-1003.0,516.0
-27.0,-263.0,107.0,741.0,41.0,-30.0,-114.0,-999.0,500.0
-24.0,-260.0,106.0,731.0,34.0,-36.0,-113.0,-999.0,497.0
-23.0,-260.0,102.0,722.0,27.0,-40.0,-100.0,-991.0,497.0
-25.0,-257.0,102.0,710.0,22.0,-48.0,-102.0,-990.0,496.0
-21.0,-259.0,108.0,701.0,20.0,-53.0,-101.0,-986.0,508.0
-24.0,-255.0,108.0,694.0,17.0,-56.0,-97.0,-983.0,506.0
-23.0,-255.0,111.0,693.0,15.0,-58.0,-101.0,-984.0,512.0
-26.0,-254.0,112.0,691.0,15.0,-64.0,-115.0,-984.0,522.0
-28.0,-251.0,113.0,685.0,19.0,-62.0,-115.0,-970.0,534.0
-27.0,-258.0,114.0,680.0,27.0,-64.0,-119.0,-975.0,531.0
-31.0,-254.0,120.0,670.0,35.0,-61.0,-124.0,-971.0,541.0
-31.0,-255.0,113.0,657.0,41.0,-61.0,-123.0,-984.0,545.0
-29.0,-259.0,118.0,636.0,46.0,-61.0,-122.0,-988.0,545.0
-30.0,-256.0,119.0,614.0,51.0,-66.0,-122.0,-992.0,556.0
-29.0,-260.0,121.0,592.0,57.0,-68.0,-122.0,-983.0,558.0
-31.0,-259.0,122.0,569.0,65.0,-73.0,-121.0,-992.0,572.0
-32.0,-257.0,124.0,549.0,68.0,-74.0,-126.0,-991.0,572.0
-33.0,-259.0,124.0,531.0,72.0,-82.0,-129.0,-988.0,572.0
-35.0,-256.0,123.0,510.0,72.0,-82.0,-141.0,-987.0,576.0
-35.0,-257.0,121.0,495.0,71.0,-85.0,-144.0,-987.0,576.0
-33.0,-256.0,127.0,482.0,66.0,-84.0,-135.0,-987.0,577.0
-33.0,-255.0,124.0,470.0,63.0,-92.0,-130.0,-970.0,584.0
-29.0,-255.0,129.0,460.0,58.0,-96.0,-121.0,-971.0,583.0
-26.0,-256.0,126.0,452.0,55.0,-102.0,-115.0,-980.0,583.0
-24.0,-251.0,125.0,441.0,55.0,-102.0,-112.0,-969.0,588.0
-20.0,-254.0,127.0,433.0,62.0,-106.0,-98.0,-967.0,587.0
-21.0,-253.0,128.0,425.0,67.0,-104.0,-94.0,-968.0,592.0
-20.0,-253.0,129.0,417.0,75.0,-106.0,-81.0,-972.0,588.0
-19.0,-255.0,125.0,409.0,76.0,-106.0,-82.0,-974.0,582.0
-19.0,-255.0,126.0,393.0,76.0,-107.0,-88.0,-983.0,587.0
-21.0,-253.0,129.0,374.0,73.0,-108.0,-92.0,-976.0,592.0
-23.0,-253.0,130.0,355.0,71.0,-111.0,-97.0,-978.0,602.0
-23.0,-255.0,129.0,337.0,69.0,-110.0,-101.0,-973.0,600.0
-24.0,-253.0,126.0,319.0,67.0,-112.0,-100.0,-974.0,601.0
-24.0,-256.0,127.0,303.0,65.0,-112.0,-100.0,-977.0,592.0
-27.0,-252.0,127.0,291.0,60.0,-116.0,-110.0,-973.0,590.0
-26.0,-252.0,127.0,278.0,58.0,-119.0,-102.0,-973.0,586.0
-26.0,-254.0,128.0,267.0,56.0,-123.0,-108.0,-971.0,586.0
-24.0,-253.0,126.0,263.0,53.0,-124.0,-105.0,-967.0,589.0
-26.0,-252.0,131.0,260.0,51.0,-125.0,-105.0,-967.0,585.0
-26.0,-252.0,128.0,259.0,49.0,-124.0,-104.0,-958.0,591.0
-27.0,-253.0,131.0,259.0,49.0,-121.0,-103.0,-960.0,592.0
-25.0,-250.0,131.0,260.0,48.0,-118.0,-104.0,-962.0,596.0
-25.0,-249.0,134.0,258.0,49.0,-113.0,-100.0,-948.0,600.0
-23.0,-247.0,131.0,258.0,47.0,-110.0,-98.0,-949.0,604.0
-21.0,-248.0,133.0,258.0,47.0,-109.0,-96.0,-945.0,605.0
-19.0,-246.0,132.0,253.0,51.0,-114.0,-87.0,-949.0,602.0
-20.0,-248.0,129.0,248.0,56.0,-122.0,-120.0,-936.0,598.0
-19.0,-250.0,133.0,241.0,64.0,-120.0,-79.0,-964.0,592.0
-22.0,-247.0,133.0,230.0,64.0,-117.0,-84.0,-951.0,604.0
-17.0,-253.0,137.0,221.0,65.0,-118.0,-90.0,-950.0,606.0
-24.0,-250.0,136.0,213.0,65.0,-111.0,-93.0,-957.0,611.0
-19.0,-245.0,135.0,209.0,67.0,-110.0,-97.0,-959.0,608.0
-23.0,-250.0,134.0,206.0,70.0,-107.0,-99.0,-952.0,609.0
-24.0,-246.0,136.0,204.0,74.0,-106.0,-100.0,-948.0,617.0
-22.0,-246.0,131.0,203.0,80.0,-101.0,-97.0,-943.0,609.0
-20.0,-245.0,135.0,200.0,86.0,-101.0,-95.0,-938.0,608.0
-23.0,-244.0,134.0,197.0,90.0,-95.0,-86.0,-936.0,609.0
-23.0,-241.0,131.0,197.0,91.0,-97.0,-86.0,-933.0,608.0
-20.0,-243.0,134.0,198.0,90.0,-92.0,-86.0,-934.0,607.0
-19.0,-239.0,133.0,198.0,90.0,-90.0,-85.0,-928.0,598.0
-17.0,-239.0,134.0,195.0,89.0,-85.0,-83.0,-917.0,599.0
-19.0,-238.0,130.0,186.0,87.0,-85.0,-83.0,-913.0,602.0
-19.0,-235.0,131.0,177.0,84.0,-80.0,-81.0,-914.0,593.0
-18.0,-235.0,132.0,167.0,85.0,-78.0,-82.0,-914.0,590.0
-17.0,-236.0,126.0,159.0,86.0,-69.0,-72.0,-914.0,588.0
-15.0,-239.0,127.0,151.0,89.0,-67.0,-75.0,-911.0,586.0
-12.0,-236.0,124.0,145.0,89.0,-60.0,-64.0,-911.0,586.0
-16.0,-235.0,128.0,141.0,88.0,-57.0,-76.0,-910.0,589.0
-16.0,-234.0,133.0,138.0,86.0,-49.0,-65.0,-907.0,592.0
-16.0,-234.0,125.0,139.0,87.0,-49.0,-69.0,-904.0,601.0
-13.0,-238.0,134.0,146.0,86.0,-46.0,-65.0,-902.0,607.0
-14.0,-233.0,137.0,156.0,84.0,-50.0,-61.0,-900.0,607.0
-16.0,-232.0,136.0,171.0,86.0,-50.0,-60.0,-896.0,616.0
-10.0,-233.0,138.0,187.0,88.0,-54.0,-57.0,-890.0,627.0
-13.0,-231.0,140.0,199.0,91.0,-53.0,-58.0,-892.0,624.0
-15.0,-229.0,142.0,204.0,94.0,-55.0,-58.0,-883.0,627.0
-12.0,-227.0,140.0,197.0,95.0,-54.0,-59.0,-881.0,635.0
-10.0,-227.0,143.0,187.0,96.0,-55.0,-58.0,-889.0,646.0
-16.0,-232.0,143.0,174.0,94.0,-56.0,-54.0,-892.0,658.0
-10.0,-232.0,148.0,161.0,93.0,-57.0,-53.0,-896.0,668.0
-8.0,-235.0,148.0,153.0,91.0,-61.0,-50.0,-900.0,678.0
-14.0,-232.0,150.0,151.0,89.0,-65.0,-53.0,-895.0,676.0
-7.0,-234.0,146.0,152.0,87.0,-69.0,-47.0,-899.0,670.0
-8.0,-235.0,147.0,155.0,84.0,-71.0,-40.0,-899.0,662.0
-8.0,-232.0,147.0,154.0,83.0,-74.0,-29.0,-895.0,660.0
-6.0,-231.0,145.0,149.0,84.0,-75.0,-28.0,-890.0,659.0
-7.0,-232.0,144.0,145.0,83.0,-74.0,-28.0,-894.0,655.0
-8.0,-231.0,144.0,138.0,81.0,-73.0,-30.0,-892.0,657.0
-9.0,-232.0,147.0,134.0,80.0,-73.0,-35.0,-894.0,659.0
-8.0,-231.0,141.0,128.0,78.0,-71.0,-45.0,-889.0,655.0
-10.0,-230.0,142.0,124.0,76.0,-70.0,-50.0,-891.0,651.0
-10.0,-231.0,140.0,118.0,73.0,-67.0,-45.0,-892.0,647.0
-10.0,-230.0,140.0,112.0,72.0,-67.0,-46.0,-884.0,649.0
-11.0,-229.0,141.0,104.0,72.0,-63.0,-50.0,-888.0,646.0
-10.0,-229.0,140.0,95.0,74.0,-61.0,-47.0,-885.0,642.0
-9.0,-229.0,140.0,89.0,74.0,-56.0,-49.0,-885.0,647.0
-11.0,-227.0,141.0,85.0,71.0,-56.0,-53.0,-885.0,635.0
-13.0,-228.0,141.0,82.0,72.0,-52.0,-52.0,-881.0,633.0
-9.0,-225.0,139.0,77.0,72.0,-50.0,-54.0,-873.0,634.0
-10.0,-227.0,138.0,73.0,74.0,-44.0,-56.0,-871.0,626.0
-8.0,-224.0,139.0,69.0,76.0,-41.0,-49.0,-869.0,623.0
-11.0,-223.0,134.0,64.0,80.0,-35.0,-45.0,-864.0,621.0
-8.0,-221.0,135.0,57.0,83.0,-33.0,-46.0,-861.0,616.0
-11.0,-221.0,134.0,52.0,86.0,-26.0,-43.0,-857.0,615.0
-8.0,-221.0,135.0,46.0,87.0,-24.0,-47.0,-859.0,613.0
-12.0,-220.0,135.0,38.0,87.0,-18.0,-49.0,-854.0,613.0
-13.0,-222.0,135.0,37.0,88.0,-15.0,-50.0,-859.0,612.0
-10.0,-219.0,136.0,39.0,87.0,-9.0,-53.0,-858.0,623.0
-15.0,-220.0,139.0,46.0,83.0,-8.0,-59.0,-848.0,624.0
-13.0,-221.0,138.0,54.0,79.0,-1.0,-65.0,-843.0,625.0
-11.0,-217.0,141.0,63.0,76.0,1.0,-66.0,-845.0,628.0
-14.0,-216.0,140.0,69.0,72.0,6.0,-58.0,-833.0,627.0
-10.0,-216.0,136.0,73.0,69.0,6.0,-57.0,-835.0,622.0
-9.0,-214.0,136.0,76.0,68.0,9.0,-53.0,-827.0,622.0
-10.0,-213.0,137.0,80.0,68.0,7.0,-48.0,-826.0,622.0
-7.0,-216.0,136.0,82.0,68.0,7.0,-35.0,-823.0,622.0
-8.0,-208.0,138.0,85.0,70.0,7.0,-33.0,-810.0,616.0
-8.0,-206.0,137.0,84.0,70.0,8.0,-31.0,-811.0,625.0
-8.0,-208.0,139.0,84.0,71.0,7.0,-32.0,-795.0,624.0
-8.0,-207.0,138.0,82.0,71.0,9.0,-38.0,-797.0,627.0
-8.0,-205.0,136.0,77.0,68.0,9.0,-38.0,-798.0,635.0
-8.0,-204.0,138.0,71.0,67.0,12.0,-45.0,-791.0,629.0
-8.0,-204.0,139.0,65.0,67.0,11.0,-40.0,-794.0,641.0
-9.0,-207.0,141.0,57.0,68.0,11.0,-37.0,-794.0,645.0
-8.0,-206.0,141.0,52.0,68.0,10.0,-37.0,-792.0,647.0
-10.0,-206.0,141.0,52.0,68.0,10.0,-44.0,-795.0,650.0
-13.0,-205.0,139.0,51.0,67.0,10.0,-51.0,-794.0,643.0
-9.0,-206.0,139.0,51.0,65.0,6.0,-48.0,-800.0,644.0
-11.0,-208.0,141.0,53.0,64.0,5.0,-49.0,-810.0,648.0
-12.0,-207.0,140.0,59.0,62.0,3.0,-46.0,-805.0,644.0
-11.0,-209.0,141.0,67.0,61.0,2.0,-40.0,-806.0,641.0
-9.0,-210.0,142.0,74.0,60.0,1.0,-40.0,-807.0,643.0
-7.0,-208.0,139.0,81.0,62.0,1.0,-37.0,-812.0,637.0
-8.0,-206.0,140.0,84.0,65.0,-2.0,-31.0,-806.0,627.0
-7.0,-209.0,138.0,87.0,64.0,-2.0,-31.0,-814.0,626.0
-7.0,-210.0,140.0,91.0,63.0,-7.0,-35.0,-815.0,633.0
-10.0,-207.0,140.0,95.0,65.0,-9.0,-37.0,-807.0,635.0
-8.0,-210.0,141.0,99.0,64.0,-16.0,-43.0,-812.0,641.0
-10.0,-207.0,144.0,105.0,58.0,-18.0,-51.0,-810.0,644.0
-12.0,-209.0,140.0,109.0,56.0,-21.0,-56.0,-802.0,649.0
-12.0,-208.0,141.0,111.0,52.0,-21.0,-62.0,-801.0,641.0
-12.0,-206.0,141.0,109.0,51.0,-22.0,-59.0,-806.0,646.0
-15.0,-207.0,142.0,104.0,50.0,-20.0,-60.0,-800.0,652.0
-14.0,-206.0,144.0,99.0,49.0,-23.0,-60.0,-796.0,649.0
-14.0,-207.0,145.0,92.0,50.0,-22.0,-56.0,-798.0,642.0
-10.0,-206.0,141.0,89.0,51.0,-25.0,-55.0,-802.0,643.0
-15.0,-206.0,139.0,85.0,50.0,-22.0,-63.0,-800.0,639.0
-12.0,-207.0,141.0,83.0,48.0,-25.0,-61.0,-800.0,643.0
-19.0,-205.0,140.0,88.0,47.0,-28.0,-89.0,-801.0,638.0
-15.0,-207.0,141.0,92.0,42.0,-29.0,-68.0,-804.0,647.0
-16.0,-205.0,143.0,96.0,42.0,-23.0,-70.0,-797.0,649.0
-16.0,-206.0,141.0,99.0,42.0,-22.0,-65.0,-800.0,647.0
-12.0,-206.0,141.0,100.0,45.0,-20.0,-59.0,-803.0,648.0
-14.0,-207.0,145.0,99.0,49.0,-18.0,-49.0,-800.0,646.0
-8.0,-207.0,140.0,96.0,53.0,-17.0,-50.0,-805.0,648.0
-11.0,-209.0,140.0,92.0,56.0,-19.0,-49.0,-816.0,647.0
-10.0,-210.0,141.0,90.0,59.0,-18.0,-49.0,-817.0,644.0
-11.0,-208.0,143.0,87.0,63.0,-19.0,-48.0,-812.0,651.0
-9.0,-212.0,142.0,84.0,66.0,-18.0,-53.0,-822.0,648.0
-12.0,-209.0,143.0,82.0,66.0,-22.0,-58.0,-824.0,654.0
-17.0,-211.0,142.0,80.0,64.0,-22.0,-63.0,-824.0,648.0
-15.0,-212.0,143.0,78.0,63.0,-24.0,-62.0,-826.0,644.0
-13.0,-209.0,143.0,73.0,62.0,-25.0,-54.0,-824.0,649.0
-13.0,-214.0,143.0,70.0,63.0,-32.0,-56.0,-821.0,652.0
-11.0,-211.0,142.0,70.0,64.0,-36.0,-51.0,-821.0,644.0
-11.0,-211.0,142.0,72.0,64.0,-40.0,-52.0,-825.0,646.0
-12.0,-211.0,140.0,77.0,63.0,-45.0,-53.0,-819.0,647.0
-10.0,-212.0,140.0,80.0,62.0,-47.0,-46.0,-818.0,649.0
-14.0,-209.0,143.0,84.0,66.0,-48.0,-54.0,-817.0,656.0
-13.0,-205.0,146.0,86.0,66.0,-50.0,-56.0,-812.0,657.0
-11.0,-207.0,145.0,89.0,69.0,-48.0,-57.0,-808.0,659.0
-12.0,-206.0,145.0,90.0,70.0,-47.0,-52.0,-798.0,665.0
-14.0,-206.0,148.0,90.0,72.0,-48.0,-49.0,-793.0,668.0
-8.0,-205.0,144.0,89.0,77.0,-45.0,-45.0,-791.0,666.0
-9.0,-205.0,145.0,88.0,80.0,-45.0,-48.0,-788.0,668.0
-9.0,-205.0,147.0,87.0,82.0,-43.0,-43.0,-791.0,673.0
-11.0,-204.0,150.0,85.0,84.0,-43.0,-46.0,-790.0,672.0
-13.0,-204.0,146.0,85.0,85.0,-42.0,-49.0,-791.0,672.0
-15.0,-205.0,149.0,84.0,89.0,-43.0,-52.0,-791.0,675.0
-11.0,-206.0,151.0,82.0,91.0,-39.0,-54.0,-791.0,678.0
-14.0,-209.0,146.0,83.0,92.0,-38.0,-62.0,-801.0,678.0
-16.0,-206.0,149.0,85.0,93.0,-35.0,-68.0,-794.0,680.0
-14.0,-207.0,151.0,92.0,92.0,-35.0,-65.0,-784.0,682.0
-16.0,-204.0,149.0,102.0,88.0,-30.0,-54.0,-785.0,678.0
-16.0,-202.0,147.0,110.0,88.0,-30.0,-57.0,-780.0,659.0
-12.0,-203.0,146.0,122.0,87.0,-28.0,-46.0,-778.0,660.0
-7.0,-203.0,143.0,132.0,88.0,-29.0,-37.0,-780.0,654.0
-10.0,-204.0,145.0,137.0,90.0,-28.0,-41.0,-785.0,659.0
-8.0,-204.0,147.0,140.0,88.0,-29.0,-36.0,-783.0,667.0
-9.0,-205.0,149.0,142.0,87.0,-29.0,-41.0,-785.0,674.0
-7.0,-204.0,155.0,142.0,86.0,-32.0,-42.0,-783.0,688.0
-8.0,-204.0,152.0,136.0,84.0,-31.0,-45.0,-786.0,692.0
-11.0,-203.0,155.0,127.0,85.0,-32.0,-45.0,-784.0,702.0
-15.0,-205.0,155.0,116.0,83.0,-28.0,-50.0,-787.0,694.0
-12.0,-205.0,157.0,106.0,82.0,-29.0,-59.0,-790.0,698.0
-13.0,-206.0,156.0,98.0,80.0,-25.0,-62.0,-800.0,696.0
-16.0,-206.0,152.0,92.0,78.0,-28.0,-54.0,-797.0,690.0
-14.0,-207.0,153.0,86.0,76.0,-28.0,-52.0,-793.0,687.0
-10.0,-204.0,150.0,79.0,74.0,-33.0,-48.0,-793.0,679.0
-8.0,-206.0,147.0,70.0,73.0,-33.0,-50.0,-792.0,674.0
-11.0,-205.0,153.0,62.0,74.0,-37.0,-50.0,-788.0,679.0
-14.0,-206.0,154.0,57.0,71.0,-35.0,-52.0,-791.0,683.0
-13.0,-204.0,150.0,54.0,70.0,-38.0,-59.0,-786.0,690.0
-11.0,-204.0,155.0,51.0,68.0,-37.0,-57.0,-781.0,693.0
-12.0,-204.0,153.0,49.0,66.0,-39.0,-51.0,-782.0,697.0
-15.0,-204.0,150.0,52.0,66.0,-39.0,-64.0,-783.0,700.0
-15.0,-201.0,156.0,55.0,65.0,-40.0,-58.0,-781.0,703.0
-14.0,-200.0,156.0,58.0,63.0,-36.0,-61.0,-780.0,695.0
-10.0,-203.0,154.0,59.0,64.0,-34.0,-49.0,-780.0,697.0
-9.0,-203.0,153.0,58.0,68.0,-27.0,-45.0,-778.0,698.0
-9.0,-203.0,152.0,55.0,73.0,-24.0,-47.0,-778.0,696.0
-10.0,-201.0,155.0,51.0,76.0,-19.0,-51.0,-776.0,698.0
-8.0,-202.0,155.0,45.0,77.0,-14.0,-48.0,-774.0,694.0
-13.0,-201.0,155.0,40.0,77.0,-10.0,-53.0,-781.0,687.0
-11.0,-203.0,153.0,33.0,76.0,-8.0,-56.0,-772.0,689.0
-10.0,-203.0,153.0,28.0,77.0,-8.0,-50.0,-774.0,687.0
-11.0,-203.0,148.0,21.0,78.0,-6.0,-52.0,-779.0,681.0
-13.0,-201.0,148.0,14.0,79.0,-7.0,-50.0,-778.0,684.0
-11.0,-203.0,149.0,10.0,80.0,-6.0,-54.0,-775.0,678.0
-8.0,-202.0,147.0,8.0,82.0,-9.0,-56.0,-768.0,681.0
-11.0,-203.0,151.0,9.0,82.0,-10.0,-54.0,-773.0,678.0
-9.0,-203.0,150.0,11.0,81.0,-13.0,-52.0,-773.0,678.0
-11.0,-202.0,148.0,16.0,82.0,-13.0,-53.0,-774.0,677.0
-10.0,-200.0,151.0,18.0,83.0,-16.0,-50.0,-772.0,676.0
-10.0,-200.0,149.0,23.0,86.0,-16.0,-45.0,-767.0,683.0
-11.0,-198.0,150.0,25.0,87.0,-19.0,-45.0,-764.0,679.0
-15.0,-198.0,148.0,24.0,87.0,-18.0,-54.0,-766.0,681.0
-11.0,-202.0,147.0,20.0,87.0,-21.0,-54.0,-766.0,681.0
-11.0,-199.0,146.0,16.0,86.0,-22.0,-53.0,-763.0,679.0
-9.0,-201.0,147.0,10.0,85.0,-25.0,-53.0,-769.0,678.0
-13.0,-203.0,150.0,5.0,86.0,-23.0,-56.0,-771.0,677.0
-15.0,-201.0,147.0,2.0,85.0,-25.0,-59.0,-770.0,689.0
-12.0,-200.0,150.0,0.0,84.0,-23.0,-58.0,-771.0,682.0
-10.0,-200.0,152.0,1.0,88.0,-26.0,-55.0,-768.0,680.0
-10.0,-200.0,151.0,3.0,88.0,-25.0,-53.0,-770.0,682.0
-9.0,-202.0,150.0,4.0,89.0,-26.0,-50.0,-770.0,675.0
-9.0,-200.0,149.0,4.0,92.0,-24.0,-48.0,-766.0,685.0
-11.0,-202.0,149.0,8.0,94.0,-29.0,-48.0,-767.0,682.0
-11.0,-201.0,152.0,13.0,94.0,-28.0,-47.0,-766.0,674.0
-9.0,-202.0,151.0,16.0,94.0,-33.0,-48.0,-766.0,682.0
-11.0,-200.0,149.0,19.0,95.0,-32.0,-44.0,-765.0,680.0
-11.0,-200.0,150.0,19.0,92.0,-36.0,-48.0,-774.0,674.0
-10.0,-202.0,149.0,18.0,89.0,-36.0,-52.0,-768.0,678.0
-9.0,-202.0,147.0,16.0,88.0,-40.0,-54.0,-775.0,679.0
-14.0,-201.0,152.0,14.0,85.0,-40.0,-50.0,-778.0,671.0
-13.0,-203.0,149.0,9.0,85.0,-43.0,-54.0,-773.0,678.0
-13.0,-200.0,146.0,8.0,82.0,-43.0,-54.0,-774.0,676.0
-11.0,-202.0,149.0,10.0,80.0,-45.0,-59.0,-774.0,678.0
-15.0,-204.0,146.0,12.0,77.0,-44.0,-57.0,-779.0,675.0
-15.0,-202.0,154.0,12.0,75.0,-45.0,-55.0,-777.0,674.0
-13.0,-202.0,146.0,11.0,73.0,-42.0,-54.0,-777.0,678.0
-9.0,-203.0,151.0,12.0,72.0,-44.0,-53.0,-771.0,678.0
-10.0,-201.0,151.0,12.0,71.0,-41.0,-49.0,-770.0,677.0
-14.0,-201.0,148.0,14.0,69.0,-42.0,-47.0,-773.0,679.0
-11.0,-204.0,147.0,14.0,68.0,-40.0,-47.0,-775.0,668.0
-10.0,-202.0,147.0,17.0,71.0,-38.0,-38.0,-770.0,674.0
-7.0,-202.0,146.0,20.0,72.0,-38.0,-37.0,-773.0,676.0
-8.0,-213.0,151.0,23.0,73.0,-37.0,-36.0,-780.0,676.0
-12.0,-202.0,150.0,20.0,72.0,-38.0,-45.0,-782.0,676.0
-8.0,-201.0,150.0,17.0,74.0,-38.0,-47.0,-783.0,681.0
-13.0,-203.0,146.0,18.0,74.0,-39.0,-49.0,-777.0,683.0
-11.0,-204.0,148.0,20.0,72.0,-39.0,-49.0,-781.0,680.0
-8.0,-203.0,152.0,23.0,71.0,-42.0,-47.0,-779.0,685.0
-12.0,-203.0,151.0,25.0,71.0,-42.0,-50.0,-772.0,685.0
-11.0,-204.0,150.0,25.0,69.0,-45.0,-49.0,-773.0,678.0
-13.0,-199.0,148.0,28.0,65.0,-46.0,-53.0,-766.0,675.0
-12.0,-199.0,149.0,28.0,65.0,-49.0,-53.0,-764.0,673.0
-14.0,-197.0,150.0,25.0,63.0,-51.0,-55.0,-756.0,670.0
-13.0,-200.0,145.0,25.0,62.0,-55.0,-54.0,-757.0,671.0
-14.0,-199.0,145.0,24.0,60.0,-54.0,-53.0,-760.0,666.0
-13.0,-201.0,147.0,20.0,60.0,-60.0,-55.0,-770.0,662.0
-12.0,-198.0,148.0,12.0,55.0,-60.0,-56.0,-760.0,670.0
-13.0,-198.0,148.0,12.0,52.0,-63.0,-53.0,-763.0,678.0
-10.0,-201.0,148.0,13.0,52.0,-60.0,-47.0,-767.0,682.0
-11.0,-200.0,152.0,19.0,53.0,-61.0,-43.0,-765.0,682.0
-8.0,-200.0,155.0,25.0,55.0,-57.0,-45.0,-761.0,695.0
-8.0,-199.0,151.0,31.0,57.0,-58.0,-42.0,-761.0,694.0
-8.0,-199.0,151.0,34.0,58.0,-55.0,-37.0,-767.0,690.0
-9.0,-197.0,152.0,34.0,61.0,-58.0,-39.0,-763.0,691.0
-7.0,-198.0,153.0,32.0,63.0,-56.0,-31.0,-765.0,694.0
-8.0,-200.0,152.0,32.0,68.0,-59.0,-31.0,-761.0,693.0
-8.0,-202.0,151.0,33.0,72.0,-56.0,-39.0,-765.0,689.0
-9.0,-202.0,149.0,29.0,76.0,-56.0,-42.0,-765.0,689.0
-8.0,-198.0,151.0,29.0,81.0,-53.0,-35.0,-757.0,688.0
-9.0,-198.0,154.0,29.0,85.0,-53.0,-39.0,-763.0,693.0
-9.0,-198.0,156.0,28.0,89.0,-51.0,-38.0,-765.0,698.0
-13.0,-200.0,155.0,28.0,93.0,-52.0,-46.0,-768.0,696.0
-12.0,-201.0,157.0,26.0,94.0,-52.0,-50.0,-767.0,696.0
-12.0,-202.0,156.0,26.0,91.0,-54.0,-56.0,-769.0,699.0
-14.0,-199.0,154.0,26.0,89.0,-55.0,-56.0,-767.0,693.0
-16.0,-200.0,152.0,23.0,87.0,-58.0,-57.0,-764.0,700.0
-14.0,-197.0,155.0,18.0,86.0,-57.0,-56.0,-765.0,707.0
-16.0,-196.0,156.0,13.0,86.0,-56.0,-57.0,-765.0,702.0
-16.0,-199.0,154.0,6.0,86.0,-55.0,-58.0,-764.0,700.0
-14.0,-201.0,156.0,1.0,84.0,-55.0,-58.0,-765.0,696.0
-13.0,-199.0,153.0,-4.0,81.0,-53.0,-57.0,-768.0,695.0
-11.0,-199.0,153.0,-7.0,82.0,-50.0,-49.0,-762.0,696.0
-12.0,-197.0,153.0,-9.0,82.0,-47.0,-48.0,-765.0,695.0
-10.0,-200.0,155.0,-9.0,82.0,-47.0,-40.0,-766.0,695.0
-7.0,-201.0,156.0,-8.0,84.0,-46.0,-39.0,-763.0,699.0
-10.0,-201.0,154.0,-7.0,84.0,-45.0,-40.0,-771.0,697.0
-8.0,-201.0,153.0,-7.0,84.0,-47.0,-43.0,-770.0,691.0
-8.0,-200.0,157.0,-8.0,83.0,-46.0,-41.0,-769.0,700.0
-6.0,-201.0,152.0,-7.0,82.0,-50.0,-39.0,-773.0,696.0
-12.0,-199.0,153.0,-5.0,83.0,-49.0,-41.0,-767.0,691.0
-10.0,-202.0,151.0,-6.0,83.0,-52.0,-48.0,-767.0,693.0
-11.0,-202.0,154.0,-4.0,82.0,-50.0,-46.0,-766.0,690.0
-11.0,-199.0,149.0,-2.0,81.0,-50.0,-48.0,-769.0,687.0
-10.0,-198.0,156.0,1.0,80.0,-47.0,-49.0,-767.0,681.0
-8.0,-199.0,149.0,3.0,79.0,-49.0,-40.0,-764.0,687.0
-8.0,-200.0,147.0,5.0,79.0,-47.0,-45.0,-766.0,686.0
-10.0,-198.0,151.0,3.0,80.0,-50.0,-50.0,-767.0,686.0
-13.0,-197.0,152.0,4.0,78.0,-48.0,-41.0,-766.0,693.0
-13.0,-199.0,153.0,2.0,76.0,-48.0,-54.0,-762.0,689.0
-9.0,-199.0,152.0,2.0,76.0,-45.0,-56.0,-761.0,692.0
-14.0,-199.0,153.0,1.0,75.0,-45.0,-53.0,-762.0,690.0
-14.0,-198.0,154.0,2.0,74.0,-44.0,-56.0,-758.0,684.0
-12.0,-199.0,150.0,2.0,72.0,-45.0,-57.0,-750.0,688.0
-16.0,-196.0,153.0,2.0,70.0,-42.0,-58.0,-754.0,688.0
-13.0,-196.0,150.0,1.0,67.0,-44.0,-56.0,-754.0,683.0
-16.0,-194.0,151.0,-1.0,67.0,-41.0,-55.0,-754.0,680.0
-8.0,-198.0,147.0,-1.0,67.0,-44.0,-44.0,-757.0,688.0
-13.0,-194.0,153.0,0.0,68.0,-44.0,-49.0,-760.0,682.0
-8.0,-197.0,152.0,1.0,68.0,-48.0,-46.0,-758.0,687.0
-8.0,-198.0,150.0,4.0,68.0,-46.0,-42.0,-756.0,685.0
-9.0,-195.0,153.0,5.0,69.0,-47.0,-46.0,-753.0,689.0
-11.0,-197.0,151.0,5.0,70.0,-47.0,-45.0,-754.0,695.0
-11.0,-194.0,152.0,5.0,72.0,-48.0,-47.0,-755.0,685.0
-10.0,-197.0,153.0,5.0,70.0,-46.0,-47.0,-758.0,684.0
-12.0,-196.0,150.0,-1.0,72.0,-47.0,-52.0,-757.0,679.0
-12.0,-199.0,149.0,-3.0,73.0,-44.0,-53.0,-757.0,681.0
-9.0,-202.0,153.0,-5.0,73.0,-44.0,-48.0,-763.0,687.0
-17.0,-201.0,152.0,0.0,73.0,-40.0,-54.0,-761.0,686.0
-11.0,-201.0,150.0,4.0,73.0,-40.0,-55.0,-762.0,685.0
-13.0,-197.0,153.0,7.0,71.0,-36.0,-46.0,-762.0,682.0
-8.0,-201.0,150.0,8.0,72.0,-36.0,-39.0,-763.0,689.0
-12.0,-198.0,153.0,10.0,71.0,-34.0,-46.0,-765.0,691.0
-10.0,-198.0,151.0,9.0,71.0,-35.0,-42.0,-766.0,692.0
-9.0,-197.0,154.0,9.0,70.0,-33.0,-38.0,-763.0,693.0
-8.0,-200.0,152.0,7.0,72.0,-34.0,-33.0,-764.0,696.0
-7.0,-200.0,154.0,5.0,73.0,-35.0,-39.0,-765.0,695.0
-8.0,-202.0,155.0,3.0,74.0,-34.0,-34.0,-771.0,693.0
-8.0,-202.0,153.0,1.0,76.0,-32.0,-37.0,-770.0,689.0
-9.0,-201.0,152.0,0.0,76.0,-32.0,-37.0,-771.0,691.0
-8.0,-202.0,151.0,3.0,77.0,-32.0,-37.0,-771.0,684.0
-10.0,-201.0,147.0,6.0,77.0,-30.0,-38.0,-772.0,683.0
-8.0,-204.0,151.0,11.0,78.0,-29.0,-39.0,-771.0,680.0
-10.0,-198.0,151.0,18.0,77.0,-28.0,-40.0,-775.0,676.0
-13.0,-201.0,151.0,22.0,74.0,-26.0,-51.0,-778.0,685.0
-8.0,-202.0,148.0,23.0,74.0,-23.0,-39.0,-781.0,689.0
-10.0,-202.0,152.0,17.0,72.0,-24.0,-45.0,-778.0,696.0
-8.0,-202.0,153.0,12.0,75.0,-21.0,-33.0,-772.0,698.0
-8.0,-201.0,155.0,5.0,74.0,-22.0,-40.0,-771.0,702.0
-8.0,-200.0,159.0,-1.0,74.0,-21.0,-40.0,-780.0,696.0
-10.0,-203.0,151.0,-5.0,71.0,-23.0,-33.0,-783.0,695.0
-9.0,-203.0,153.0,-4.0,70.0,-25.0,-38.0,-783.0,690.0
-9.0,-203.0,148.0,0.0,68.0,-28.0,-39.0,-781.0,685.0
-10.0,-201.0,145.0,6.0,67.0,-28.0,-38.0,-773.0,685.0
-8.0,-202.0,150.0,10.0,65.0,-32.0,-37.0,-773.0,681.0
-9.0,-204.0,154.0,12.0,64.0,-29.0,-39.0,-776.0,678.0
-11.0,-201.0,152.0,15.0,61.0,-32.0,-41.0,-781.0,682.0
-9.0,-201.0,149.0,15.0,59.0,-29.0,-42.0,-771.0,692.0
-10.0,-200.0,152.0,17.0,57.0,-31.0,-41.0,-769.0,697.0
-8.0,-201.0,151.0,20.0,56.0,-28.0,-37.0,-768.0,695.0
-7.0,-200.0,151.0,25.0,55.0,-31.0,-30.0,-768.0,694.0
-6.0,-199.0,152.0,27.0,56.0,-26.0,-29.0,-763.0,694.0
-6.0,-199.0,150.0,25.0,57.0,-26.0,-29.0,-764.0,697.0
-7.0,-200.0,155.0,23.0,58.0,-21.0,-25.0,-764.0,696.0
-8.0,-199.0,150.0,20.0,58.0,-22.0,-28.0,-765.0,693.0
-8.0,-198.0,153.0,16.0,59.0,-18.0,-31.0,-761.0,695.0
-9.0,-197.0,150.0,14.0,58.0,-19.0,-36.0,-760.0,695.0
-8.0,-199.0,154.0,10.0,58.0,-14.0,-33.0,-763.0,696.0
-8.0,-198.0,150.0,9.0,58.0,-15.0,-40.0,-763.0,695.0
-11.0,-197.0,153.0,8.0,59.0,-12.0,-43.0,-757.0,697.0
-10.0,-200.0,150.0,9.0,57.0,-16.0,-43.0,-764.0,697.0
-8.0,-200.0,152.0,11.0,56.0,-14.0,-40.0,-762.0,694.0
-8.0,-198.0,154.0,15.0,59.0,-15.0,-35.0,-762.0,697.0
-9.0,-198.0,152.0,21.0,60.0,-17.0,-32.0,-762.0,685.0
-7.0,-196.0,150.0,27.0,63.0,-16.0,-26.0,-754.0,691.0
-8.0,-198.0,154.0,31.0,65.0,-17.0,-33.0,-753.0,680.0
-7.0,-195.0,149.0,33.0,67.0,-18.0,-31.0,-754.0,682.0
-8.0,-196.0,149.0,34.0,66.0,-19.0,-33.0,-752.0,684.0
-8.0,-194.0,148.0,33.0,67.0,-23.0,-33.0,-756.0,678.0
-8.0,-195.0,151.0,30.0,67.0,-24.0,-33.0,-750.0,679.0
-8.0,-196.0,153.0,29.0,67.0,-27.0,-35.0,-755.0,685.0
-8.0,-196.0,149.0,28.0,69.0,-28.0,-37.0,-756.0,685.0
-7.0,-197.0,152.0,26.0,69.0,-31.0,-35.0,-760.0,690.0
-9.0,-199.0,150.0,27.0,73.0,-32.0,-32.0,-753.0,692.0
-8.0,-197.0,151.0,29.0,73.0,-31.0,-37.0,-756.0,693.0
-9.0,-197.0,154.0,32.0,74.0,-30.0,-39.0,-751.0,693.0
-11.0,-196.0,150.0,35.0,74.0,-28.0,-44.0,-757.0,693.0
-9.0,-198.0,155.0,41.0,72.0,-28.0,-42.0,-755.0,693.0
-8.0,-198.0,157.0,48.0,73.0,-26.0,-42.0,-760.0,694.0
-8.0,-199.0,155.0,54.0,74.0,-24.0,-34.0,-761.0,700.0
-10.0,-199.0,156.0,61.0,75.0,-24.0,-36.0,-762.0,702.0
-8.0,-198.0,160.0,66.0,73.0,-25.0,-29.0,-762.0,702.0
-8.0,-199.0,158.0,69.0,74.0,-24.0,-30.0,-761.0,706.0
-8.0,-197.0,156.0,71.0,75.0,-28.0,-30.0,-756.0,710.0
-8.0,-201.0,157.0,72.0,75.0,-26.0,-30.0,-765.0,713.0
-8.0,-201.0,158.0,74.0,75.0,-30.0,-27.0,-764.0,712.0
-8.0,-196.0,158.0,78.0,75.0,-28.0,-34.0,-763.0,714.0
-8.0,-197.0,157.0,80.0,74.0,-30.0,-36.0,-765.0,711.0
-8.0,-203.0,159.0,78.0,72.0,-28.0,-35.0,-768.0,712.0
-10.0,-200.0,154.0,76.0,72.0,-28.0,-32.0,-770.0,714.0
-8.0,-201.0,160.0,73.0,71.0,-27.0,-40.0,-765.0,713.0
-10.0,-202.0,156.0,68.0,71.0,-27.0,-39.0,-770.0,723.0
-10.0,-202.0,161.0,64.0,70.0,-22.0,-43.0,-776.0,723.0
-6.0,-202.0,162.0,58.0,70.0,-24.0,-37.0,-773.0,727.0
-8.0,-204.0,163.0,60.0,69.0,-23.0,-31.0,-778.0,727.0
-8.0,-202.0,161.0,60.0,68.0,-24.0,-27.0,-778.0,726.0
-6.0,-203.0,160.0,60.0,68.0,-23.0,-23.0,-784.0,720.0
-8.0,-203.0,161.0,58.0,69.0,-27.0,-18.0,-781.0,724.0
-6.0,-205.0,163.0,50.0,71.0,-28.0,-21.0,-784.0,722.0
-8.0,-206.0,160.0,43.0,69.0,-33.0,-24.0,-784.0,723.0
-8.0,-205.0,163.0,36.0,67.0,-32.0,-33.0,-794.0,725.0
-10.0,-206.0,160.0,32.0,66.0,-36.0,-35.0,-799.0,729.0
-12.0,-205.0,162.0,28.0,63.0,-35.0,-38.0,-800.0,732.0
-13.0,-205.0,162.0,26.0,64.0,-37.0,-42.0,-813.0,731.0
-14.0,-208.0,164.0,24.0,63.0,-36.0,-42.0,-815.0,731.0
-8.0,-211.0,160.0,22.0,60.0,-36.0,-39.0,-822.0,737.0
-8.0,-211.0,166.0,21.0,60.0,-32.0,-33.0,-829.0,741.0
-8.0,-213.0,166.0,22.0,59.0,-33.0,-28.0,-829.0,749.0
-8.0,-213.0,167.0,22.0,62.0,-31.0,-29.0,-840.0,748.0
-7.0,-217.0,167.0,19.0,61.0,-32.0,-30.0,-843.0,750.0
-11.0,-220.0,167.0,12.0,61.0,-28.0,-32.0,-845.0,751.0
-8.0,-221.0,169.0,6.0,64.0,-24.0,-31.0,-866.0,750.0
-8.0,-228.0,171.0,0.0,67.0,-21.0,-31.0,-875.0,758.0
-9.0,-230.0,171.0,-5.0,67.0,-23.0,-32.0,-888.0,763.0
-7.0,-234.0,173.0,-13.0,67.0,-23.0,-37.0,-898.0,766.0
-7.0,-232.0,175.0,-24.0,66.0,-25.0,-31.0,-903.0,773.0
-7.0,-235.0,178.0,-36.0,66.0,-27.0,-28.0,-912.0,786.0
-8.0,-239.0,181.0,-45.0,70.0,-29.0,-33.0,-919.0,791.0
-9.0,-243.0,179.0,-54.0,70.0,-34.0,-38.0,-931.0,809.0
-8.0,-245.0,180.0,-66.0,66.0,-37.0,-41.0,-936.0,808.0
-10.0,-246.0,181.0,-80.0,63.0,-39.0,-46.0,-943.0,804.0
-12.0,-246.0,182.0,-98.0,63.0,-42.0,-56.0,-949.0,813.0
-13.0,-248.0,188.0,-123.0,63.0,-45.0,-53.0,-954.0,819.0
-14.0,-250.0,185.0,-145.0,63.0,-41.0,-59.0,-960.0,819.0
-20.0,-253.0,183.0,-171.0,62.0,-39.0,-66.0,-972.0,827.0
-18.0,-255.0,188.0,-200.0,61.0,-31.0,-72.0,-983.0,830.0
-15.0,-257.0,190.0,-229.0,62.0,-26.0,-64.0,-991.0,832.0
-14.0,-259.0,187.0,-260.0,61.0,-17.0,-60.0,-998.0,833.0
-12.0,-261.0,188.0,-289.0,63.0,-11.0,-57.0,-1003.0,832.0
-14.0,-260.0,188.0,-316.0,64.0,2.0,-61.0,-1004.0,834.0
-13.0,-264.0,189.0,-339.0,66.0,13.0,-56.0,-1005.0,830.0
-19.0,-258.0,183.0,-361.0,71.0,28.0,-60.0,-993.0,828.0
-15.0,-257.0,186.0,-382.0,74.0,37.0,-63.0,-990.0,817.0
-14.0,-256.0,185.0,-400.0,82.0,50.0,-57.0,-978.0,814.0
-10.0,-262.0,183.0,-415.0,90.0,58.0,-49.0,-985.0,812.0
-10.0,-254.0,181.0,-435.0,101.0,64.0,-42.0,-977.0,807.0
-9.0,-255.0,182.0,-455.0,111.0,66.0,-42.0,-968.0,816.0
-8.0,-253.0,179.0,-475.0,114.0,71.0,-49.0,-975.0,822.0
-13.0,-254.0,187.0,-498.0,116.0,75.0,-44.0,-960.0,830.0
-9.0,-251.0,190.0,-521.0,120.0,84.0,-42.0,-954.0,844.0
-9.0,-246.0,191.0,-543.0,119.0,88.0,-47.0,-945.0,845.0
-9.0,-245.0,193.0,-560.0,116.0,99.0,-45.0,-940.0,844.0
-10.0,-242.0,190.0,-581.0,111.0,104.0,-48.0,-939.0,847.0
-10.0,-243.0,190.0,-602.0,106.0,112.0,-47.0,-932.0,836.0
-9.0,-241.0,186.0,-624.0,102.0,115.0,-42.0,-926.0,833.0
-10.0,-238.0,191.0,-645.0,98.0,120.0,-41.0,-922.0,820.0
-8.0,-237.0,183.0,-666.0,96.0,117.0,-36.0,-927.0,816.0
-7.0,-238.0,182.0,-688.0,93.0,117.0,-27.0,-919.0,816.0
-8.0,-236.0,183.0,-706.0,92.0,112.0,-27.0,-921.0,819.0
-7.0,-239.0,184.0,-722.0,88.0,114.0,-21.0,-913.0,814.0
-6.0,-240.0,180.0,-736.0,88.0,117.0,-23.0,-921.0,805.0
-5.0,-236.0,178.0,-748.0,86.0,120.0,-24.0,-924.0,795.0
-8.0,-236.0,173.0,-757.0,84.0,123.0,-17.0,-922.0,783.0
-7.0,-238.0,175.0,-766.0,80.0,128.0,-15.0,-920.0,776.0
-7.0,-239.0,171.0,-772.0,75.0,133.0,-28.0,-916.0,767.0
-8.0,-236.0,169.0,-774.0,70.0,140.0,-33.0,-918.0,760.0
-10.0,-237.0,166.0,-772.0,68.0,147.0,-40.0,-916.0,751.0
-9.0,-238.0,167.0,-777.0,69.0,152.0,-43.0,-915.0,743.0
-12.0,-236.0,160.0,-785.0,69.0,155.0,-55.0,-911.0,733.0
-15.0,-233.0,167.0,-794.0,71.0,156.0,-60.0,-909.0,726.0
-17.0,-234.0,159.0,-804.0,71.0,157.0,-64.0,-911.0,728.0
-18.0,-236.0,159.0,-818.0,70.0,155.0,-64.0,-909.0,709.0
-16.0,-239.0,157.0,-828.0,64.0,156.0,-64.0,-909.0,703.0
-14.0,-234.0,154.0,-838.0,58.0,155.0,-62.0,-911.0,698.0
-17.0,-236.0,156.0,-849.0,54.0,155.0,-62.0,-912.0,698.0
-16.0,-235.0,158.0,-860.0,52.0,152.0,-66.0,-911.0,698.0
-16.0,-236.0,147.0,-867.0,48.0,149.0,-65.0,-924.0,696.0
-18.0,-235.0,148.0,-874.0,44.0,147.0,-68.0,-925.0,686.0
-13.0,-238.0,151.0,-880.0,37.0,144.0,-70.0,-924.0,679.0
-20.0,-240.0,148.0,-885.0,34.0,139.0,-86.0,-925.0,668.0
-15.0,-237.0,149.0,-887.0,28.0,137.0,-60.0,-923.0,676.0
-14.0,-240.0,144.0,-886.0,27.0,129.0,-64.0,-919.0,659.0
-10.0,-241.0,143.0,-882.0,27.0,128.0,-54.0,-922.0,653.0
-8.0,-242.0,141.0,-875.0,29.0,120.0,-51.0,-930.0,648.0
-9.0,-241.0,140.0,-869.0,32.0,115.0,-52.0,-928.0,639.0
-9.0,-244.0,136.0,-860.0,34.0,104.0,-53.0,-939.0,634.0
-8.0,-244.0,140.0,-848.0,34.0,104.0,-54.0,-936.0,621.0
-11.0,-247.0,137.0,-835.0,34.0,96.0,-53.0,-936.0,618.0
-11.0,-246.0,136.0,-823.0,34.0,90.0,-58.0,-941.0,615.0
-14.0,-246.0,129.0,-812.0,37.0,82.0,-66.0,-937.0,601.0
-15.0,-247.0,130.0,-803.0,38.0,79.0,-71.0,-945.0,593.0
-12.0,-245.0,126.0,-804.0,41.0,77.0,-74.0,-941.0,578.0
-12.0,-244.0,123.0,-806.0,43.0,76.0,-67.0,-940.0,568.0
-12.0,-244.0,123.0,-811.0,44.0,68.0,-65.0,-940.0,557.0
-18.0,-242.0,117.0,-816.0,48.0,64.0,-73.0,-945.0,554.0
-17.0,-243.0,119.0,-822.0,46.0,54.0,-70.0,-948.0,547.0
-17.0,-247.0,115.0,-827.0,47.0,47.0,-70.0,-944.0,548.0
-21.0,-249.0,115.0,-834.0,47.0,34.0,-80.0,-946.0,540.0
-18.0,-249.0,114.0,-838.0,48.0,26.0,-77.0,-951.0,539.0
-17.0,-248.0,113.0,-843.0,51.0,11.0,-68.0,-945.0,539.0
-17.0,-253.0,116.0,-848.0,58.0,0.0,-84.0,-957.0,533.0
-21.0,-254.0,115.0,-853.0,63.0,-6.0,-94.0,-961.0,531.0
-16.0,-252.0,111.0,-859.0,67.0,-11.0,-69.0,-964.0,521.0
-19.0,-252.0,109.0,-863.0,76.0,-20.0,-70.0,-965.0,526.0
-13.0,-249.0,112.0,-863.0,80.0,-26.0,-62.0,-965.0,521.0
-12.0,-249.0,112.0,-861.0,91.0,-34.0,-57.0,-965.0,522.0
-11.0,-253.0,110.0,-859.0,103.0,-35.0,-50.0,-965.0,519.0
-9.0,-253.0,111.0,-855.0,112.0,-42.0,-52.0,-975.0,519.0
-8.0,-258.0,113.0,-849.0,117.0,-52.0,-49.0,-978.0,518.0
-11.0,-253.0,103.0,-838.0,121.0,-63.0,-56.0,-984.0,501.0
-13.0,-255.0,104.0,-834.0,138.0,-67.0,-55.0,-976.0,497.0
-12.0,-257.0,101.0,-827.0,156.0,-67.0,-65.0,-980.0,484.0
-18.0,-260.0,103.0,-822.0,177.0,-68.0,-77.0,-989.0,487.0
-14.0,-262.0,100.0,-815.0,197.0,-69.0,-81.0,-1002.0,480.0
-18.0,-263.0,101.0,-812.0,214.0,-71.0,-73.0,-1007.0,485.0
-19.0,-264.0,101.0,-806.0,226.0,-72.0,-72.0,-1009.0,479.0
-15.0,-268.0,102.0,-798.0,229.0,-69.0,-76.0,-1040.0,483.0
-17.0,-268.0,96.0,-789.0,232.0,-70.0,-89.0,-1031.0,466.0
-15.0,-269.0,90.0,-784.0,240.0,-73.0,-87.0,-1045.0,451.0
-18.0,-266.0,87.0,-778.0,255.0,-80.0,-90.0,-1039.0,436.0
-20.0,-268.0,86.0,-776.0,260.0,-83.0,-88.0,-1034.0,424.0
-18.0,-266.0,86.0,-772.0,259.0,-84.0,-87.0,-1037.0,412.0
-22.0,-267.0,86.0,-771.0,257.0,-88.0,-96.0,-1030.0,413.0
-54.0,-282.0,102.0,-756.0,254.0,-79.0,-130.0,-1075.0,548.0
-8.0,-263.0,67.0,-681.0,223.0,-29.0,-53.0,-1007.0,351.0
-13.0,-264.0,74.0,-691.0,226.0,-54.0,-76.0,-1012.0,381.0
-15.0,-264.0,78.0,-708.0,259.0,-81.0,-80.0,-1003.0,391.0
-21.0,-261.0,80.0,-708.0,267.0,-94.0,-87.0,-1009.0,402.0
-18.0,-261.0,75.0,-696.0,261.0,-105.0,-89.0,-1001.0,393.0
-16.0,-261.0,79.0,-677.0,258.0,-108.0,-82.0,-1000.0,397.0
-19.0,-259.0,79.0,-654.0,260.0,-119.0,-81.0,-994.0,397.0
-15.0,-256.0,77.0,-635.0,258.0,-120.0,-78.0,-988.0,385.0
-12.0,-253.0,78.0,-614.0,253.0,-124.0,-59.0,-982.0,376.0
-20.0,-258.0,82.0,-604.0,252.0,-123.0,-60.0,-974.0,378.0
-9.0,-251.0,70.0,-565.0,249.0,-95.0,-33.0,-988.0,371.0
-7.0,-254.0,75.0,-555.0,233.0,-94.0,-47.0,-975.0,371.0
-7.0,-251.0,72.0,-546.0,239.0,-103.0,-51.0,-977.0,364.0
-6.0,-247.0,69.0,-543.0,241.0,-106.0,-53.0,-953.0,341.0
-11.0,-243.0,59.0,-560.0,241.0,-117.0,-59.0,-939.0,317.0
-12.0,-243.0,67.0,-595.0,233.0,-116.0,-65.0,-944.0,351.0
-15.0,-242.0,65.0,-604.0,229.0,-120.0,-68.0,-946.0,338.0
-15.0,-241.0,69.0,-609.0,218.0,-120.0,-70.0,-943.0,335.0
-15.0,-241.0,63.0,-623.0,209.0,-129.0,-72.0,-935.0,333.0
-17.0,-241.0,68.0,-645.0,205.0,-131.0,-73.0,-931.0,337.0
-13.0,-244.0,74.0,-660.0,203.0,-139.0,-68.0,-945.0,362.0
-15.0,-247.0,74.0,-652.0,196.0,-138.0,-68.0,-946.0,357.0
-12.0,-248.0,73.0,-630.0,181.0,-138.0,-66.0,-953.0,366.0
-14.0,-241.0,67.0,-607.0,168.0,-138.0,-69.0,-933.0,333.0
-16.0,-254.0,77.0,-591.0,160.0,-140.0,-67.0,-953.0,365.0
-12.0,-241.0,61.0,-556.0,154.0,-137.0,-63.0,-930.0,315.0
-13.0,-239.0,59.0,-553.0,140.0,-142.0,-67.0,-927.0,312.0
-16.0,-242.0,64.0,-548.0,132.0,-142.0,-81.0,-934.0,316.0
-15.0,-240.0,58.0,-525.0,124.0,-139.0,-68.0,-932.0,290.0
-15.0,-240.0,64.0,-522.0,121.0,-140.0,-71.0,-923.0,316.0
-15.0,-235.0,43.0,-508.0,128.0,-141.0,-57.0,-926.0,261.0
-34.0,-238.0,9.0,-520.0,122.0,-142.0,-114.0,-945.0,194.0
-8.0,-233.0,47.0,-580.0,74.0,-110.0,-66.0,-900.0,275.0
-8.0,-230.0,31.0,-585.0,54.0,-122.0,-59.0,-900.0,222.0
-11.0,-228.0,35.0,-612.0,85.0,-148.0,-66.0,-890.0,217.0
-9.0,-229.0,41.0,-633.0,106.0,-162.0,-75.0,-891.0,232.0
-16.0,-231.0,44.0,-632.0,112.0,-161.0,-73.0,-896.0,244.0
-16.0,-232.0,46.0,-615.0,107.0,-155.0,-78.0,-897.0,245.0
-15.0,-232.0,43.0,-593.0,101.0,-146.0,-68.0,-898.0,243.0
-13.0,-232.0,44.0,-573.0,101.0,-144.0,-70.0,-908.0,243.0
-10.0,-235.0,38.0,-557.0,107.0,-139.0,-75.0,-903.0,234.0
-10.0,-233.0,40.0,-541.0,117.0,-135.0,-65.0,-907.0,240.0
-15.0,-233.0,44.0,-519.0,121.0,-128.0,-66.0,-906.0,241.0
-12.0,-232.0,40.0,-494.0,118.0,-123.0,-66.0,-902.0,238.0
-11.0,-233.0,37.0,-462.0,109.0,-113.0,-63.0,-900.0,241.0
-8.0,-231.0,36.0,-431.0,100.0,-107.0,-55.0,-897.0,231.0
-8.0,-231.0,33.0,-403.0,95.0,-97.0,-54.0,-890.0,223.0
-8.0,-227.0,33.0,-373.0,95.0,-92.0,-50.0,-886.0,218.0
-7.0,-221.0,35.0,-356.0,100.0,-83.0,-49.0,-872.0,221.0
-8.0,-223.0,36.0,-340.0,107.0,-79.0,-39.0,-866.0,217.0
-7.0,-224.0,35.0,-321.0,113.0,-73.0,-45.0,-864.0,211.0
-8.0,-219.0,36.0,-301.0,117.0,-71.0,-48.0,-854.0,221.0
-5.0,-219.0,35.0,-284.0,122.0,-65.0,-49.0,-844.0,220.0
-6.0,-219.0,39.0,-267.0,130.0,-62.0,-33.0,-856.0,230.0
-3.0,-216.0,38.0,-245.0,131.0,-62.0,-27.0,-843.0,235.0
-3.0,-217.0,35.0,-229.0,133.0,-74.0,-26.0,-841.0,226.0
-6.0,-212.0,36.0,-225.0,140.0,-83.0,-29.0,-835.0,223.0
-7.0,-210.0,36.0,-230.0,146.0,-94.0,-35.0,-834.0,227.0
-7.0,-214.0,37.0,-234.0,145.0,-99.0,-39.0,-836.0,227.0
-8.0,-214.0,36.0,-232.0,140.0,-105.0,-46.0,-839.0,226.0
-10.0,-214.0,32.0,-225.0,133.0,-106.0,-56.0,-846.0,223.0
-11.0,-220.0,36.0,-214.0,121.0,-109.0,-64.0,-847.0,215.0
-16.0,-219.0,32.0,-199.0,109.0,-108.0,-68.0,-855.0,215.0
-14.0,-221.0,33.0,-169.0,97.0,-108.0,-77.0,-859.0,211.0
-14.0,-222.0,37.0,-140.0,90.0,-109.0,-72.0,-866.0,217.0
-9.0,-225.0,30.0,-106.0,90.0,-112.0,-68.0,-869.0,213.0
-9.0,-226.0,32.0,-72.0,90.0,-114.0,-59.0,-872.0,223.0
-8.0,-226.0,36.0,-34.0,91.0,-120.0,-51.0,-868.0,223.0
-8.0,-227.0,33.0,-1.0,91.0,-122.0,-48.0,-881.0,213.0
-12.0,-225.0,32.0,18.0,93.0,-132.0,-66.0,-872.0,211.0
-11.0,-222.0,32.0,23.0,98.0,-134.0,-63.0,-867.0,210.0
-10.0,-223.0,31.0,22.0,100.0,-138.0,-65.0,-863.0,207.0
-9.0,-222.0,28.0,23.0,97.0,-138.0,-56.0,-863.0,200.0
-8.0,-218.0,27.0,35.0,94.0,-136.0,-49.0,-847.0,202.0
-7.0,-216.0,28.0,56.0,95.0,-133.0,-41.0,-840.0,193.0
-3.0,-214.0,27.0,82.0,96.0,-127.0,-31.0,-833.0,192.0
-4.0,-210.0,31.0,107.0,97.0,-120.0,-27.0,-819.0,192.0
-3.0,-205.0,29.0,130.0,95.0,-113.0,-25.0,-798.0,194.0
-3.0,-203.0,30.0,146.0,92.0,-104.0,-31.0,-791.0,196.0
-2.0,-203.0,32.0,149.0,89.0,-97.0,-26.0,-779.0,194.0
-4.0,-201.0,34.0,140.0,85.0,-96.0,-33.0,-778.0,197.0
-7.0,-199.0,26.0,127.0,80.0,-94.0,-37.0,-778.0,196.0
-10.0,-197.0,32.0,114.0,78.0,-96.0,-40.0,-771.0,201.0
-8.0,-199.0,26.0,100.0,74.0,-95.0,-41.0,-774.0,195.0
-4.0,-201.0,29.0,92.0,69.0,-97.0,-32.0,-785.0,198.0
-3.0,-204.0,30.0,85.0,67.0,-95.0,-27.0,-791.0,203.0
-3.0,-206.0,32.0,83.0,68.0,-97.0,-27.0,-810.0,204.0
-4.0,-208.0,27.0,85.0,73.0,-93.0,-23.0,-817.0,197.0
0.0,-210.0,29.0,84.0,80.0,-94.0,-26.0,-821.0,194.0
-4.0,-214.0,26.0,79.0,88.0,-93.0,-27.0,-831.0,188.0
-6.0,-212.0,22.0,67.0,93.0,-100.0,-30.0,-847.0,178.0
-5.0,-219.0,23.0,51.0,94.0,-105.0,-37.0,-859.0,168.0
-3.0,-224.0,16.0,27.0,97.0,-105.0,-28.0,-873.0,157.0
-4.0,-227.0,15.0,13.0,97.0,-99.0,-27.0,-886.0,155.0
-2.0,-233.0,16.0,9.0,95.0,-100.0,-26.0,-904.0,148.0
-3.0,-236.0,15.0,16.0,94.0,-95.0,-23.0,-918.0,146.0
-1.0,-239.0,15.0,30.0,96.0,-97.0,-20.0,-922.0,150.0
-4.0,-236.0,14.0,49.0,103.0,-94.0,-26.0,-924.0,150.0
-4.0,-237.0,17.0,66.0,113.0,-95.0,-33.0,-922.0,155.0
-7.0,-236.0,22.0,80.0,122.0,-91.0,-45.0,-916.0,168.0
-5.0,-234.0,25.0,96.0,124.0,-93.0,-40.0,-915.0,174.0
-8.0,-232.0,25.0,109.0,125.0,-94.0,-43.0,-906.0,179.0
-8.0,-230.0,24.0,123.0,122.0,-96.0,-39.0,-892.0,189.0
-6.0,-226.0,28.0,129.0,120.0,-100.0,-39.0,-883.0,193.0
-7.0,-221.0,31.0,129.0,119.0,-104.0,-38.0,-864.0,193.0
-8.0,-218.0,31.0,119.0,122.0,-103.0,-37.0,-846.0,192.0
-7.0,-211.0,24.0,104.0,124.0,-103.0,-30.0,-834.0,188.0
-6.0,-209.0,18.0,91.0,121.0,-99.0,-33.0,-820.0,171.0
-4.0,-206.0,17.0,71.0,113.0,-96.0,-33.0,-810.0,154.0
-6.0,-203.0,10.0,43.0,110.0,-89.0,-35.0,-794.0,132.0
-6.0,-201.0,11.0,9.0,120.0,-86.0,-40.0,-798.0,109.0
-6.0,-204.0,8.0,-26.0,136.0,-78.0,-39.0,-799.0,105.0
-3.0,-208.0,4.0,-62.0,146.0,-74.0,-28.0,-816.0,93.0
1.0,-213.0,-1.0,-86.0,153.0,-74.0,-19.0,-829.0,90.0
2.0,-216.0,0.0,-104.0,157.0,-76.0,-9.0,-852.0,86.0
3.0,-224.0,-1.0,-118.0,157.0,-81.0,-8.0,-872.0,88.0
0.0,-226.0,3.0,-118.0,152.0,-84.0,-12.0,-883.0,94.0
1.0,-231.0,0.0,-107.0,145.0,-89.0,-18.0,-897.0,94.0
-5.0,-233.0,6.0,-91.0,138.0,-94.0,-26.0,-904.0,103.0
-6.0,-232.0,9.0,-75.0,135.0,-100.0,-33.0,-902.0,113.0
-8.0,-229.0,11.0,-64.0,137.0,-99.0,-51.0,-890.0,125.0
-9.0,-227.0,15.0,-58.0,143.0,-96.0,-59.0,-881.0,142.0
-10.0,-222.0,22.0,-59.0,144.0,-93.0,-69.0,-871.0,156.0
-14.0,-221.0,21.0,-69.0,139.0,-94.0,-69.0,-862.0,162.0
-15.0,-216.0,24.0,-90.0,128.0,-91.0,-64.0,-862.0,165.0
-12.0,-223.0,21.0,-117.0,117.0,-92.0,-65.0,-861.0,167.0
-13.0,-219.0,24.0,-144.0,108.0,-89.0,-67.0,-866.0,162.0
-11.0,-224.0,22.0,-166.0,103.0,-87.0,-55.0,-869.0,171.0
-8.0,-221.0,20.0,-180.0,98.0,-81.0,-58.0,-878.0,171.0
-6.0,-223.0,22.0,-189.0,89.0,-82.0,-48.0,-885.0,164.0
-5.0,-228.0,22.0,-197.0,79.0,-81.0,-44.0,-889.0,162.0
-8.0,-228.0,21.0,-214.0,74.0,-79.0,-41.0,-895.0,163.0
-7.0,-234.0,19.0,-229.0,69.0,-74.0,-31.0,-913.0,163.0
-3.0,-238.0,16.0,-236.0,64.0,-68.0,-31.0,-930.0,154.0
-2.0,-244.0,16.0,-243.0,58.0,-58.0,-28.0,-949.0,147.0
-3.0,-250.0,13.0,-245.0,53.0,-51.0,-22.0,-963.0,140.0
-1.0,-255.0,12.0,-240.0,52.0,-39.0,-21.0,-983.0,138.0
-2.0,-260.0,12.0,-223.0,45.0,-31.0,-19.0,-1001.0,127.0
-3.0,-266.0,10.0,-197.0,34.0,-22.0,-20.0,-1029.0,123.0
-4.0,-268.0,9.0,-166.0,20.0,-20.0,-30.0,-1036.0,115.0
-5.0,-269.0,3.0,-121.0,2.0,-13.0,-40.0,-1041.0,109.0
-8.0,-267.0,6.0,-65.0,-8.0,-15.0,-50.0,-1039.0,108.0
-7.0,-265.0,12.0,-25.0,-15.0,-16.0,-55.0,-1020.0,110.0
-11.0,-260.0,7.0,7.0,-23.0,-25.0,-64.0,-1007.0,119.0
-13.0,-257.0,13.0,29.0,-32.0,-31.0,-64.0,-991.0,123.0
-10.0,-254.0,10.0,41.0,-48.0,-34.0,-63.0,-979.0,118.0
-8.0,-247.0,11.0,38.0,-64.0,-34.0,-59.0,-958.0,112.0
-5.0,-245.0,7.0,27.0,-80.0,-30.0,-44.0,-942.0,107.0
-4.0,-236.0,6.0,11.0,-90.0,-24.0,-38.0,-932.0,98.0
-4.0,-237.0,1.0,-7.0,-91.0,-22.0,-28.0,-925.0,91.0
0.0,-234.0,-1.0,-28.0,-79.0,-16.0,-24.0,-920.0,84.0
0.0,-234.0,3.0,-41.0,-68.0,-12.0,-16.0,-916.0,78.0
1.0,-234.0,-3.0,-54.0,-61.0,-5.0,-16.0,-916.0,75.0
2.0,-235.0,-1.0,-67.0,-55.0,0.0,-9.0,-905.0,76.0
3.0,-235.0,1.0,-80.0,-53.0,9.0,-8.0,-922.0,87.0
3.0,-237.0,1.0,-91.0,-51.0,12.0,-1.0,-929.0,89.0
5.0,-241.0,8.0,-99.0,-47.0,19.0,3.0,-942.0,101.0
8.0,-246.0,9.0,-102.0,-38.0,27.0,7.0,-951.0,113.0
6.0,-249.0,11.0,-107.0,-26.0,36.0,2.0,-959.0,119.0
3.0,-251.0,11.0,-119.0,-15.0,48.0,-4.0,-966.0,129.0
3.0,-254.0,14.0,-136.0,-10.0,55.0,1.0,-982.0,139.0
4.0,-257.0,18.0,-148.0,-9.0,65.0,2.0,-991.0,145.0
7.0,-258.0,19.0,-153.0,-9.0,69.0,10.0,-1004.0,150.0
7.0,-261.0,15.0,-155.0,-5.0,69.0,12.0,-1008.0,149.0
11.0,-261.0,13.0,-145.0,3.0,70.0,22.0,-1011.0,143.0
10.0,-261.0,15.0,-128.0,14.0,71.0,25.0,-1014.0,141.0
13.0,-267.0,14.0,-105.0,28.0,69.0,21.0,-1026.0,131.0
10.0,-264.0,15.0,-79.0,45.0,71.0,27.0,-1012.0,132.0
11.0,-262.0,16.0,-53.0,58.0,70.0,28.0,-1014.0,133.0
11.0,-263.0,14.0,-31.0,66.0,72.0,22.0,-1013.0,137.0
6.0,-259.0,15.0,-11.0,75.0,71.0,17.0,-1015.0,148.0
4.0,-261.0,15.0,-8.0,86.0,73.0,6.0,-1008.0,145.0
1.0,-262.0,17.0,-10.0,92.0,71.0,-4.0,-1015.0,144.0
0.0,-262.0,16.0,-15.0,98.0,70.0,-10.0,-1015.0,152.0
-1.0,-265.0,21.0,-14.0,103.0,63.0,-14.0,-1024.0,154.0
0.0,-267.0,16.0,-8.0,104.0,60.0,-21.0,-1024.0,150.0
-2.0,-267.0,14.0,1.0,105.0,51.0,-25.0,-1030.0,145.0
-1.0,-267.0,14.0,14.0,111.0,47.0,-29.0,-1029.0,139.0
-3.0,-264.0,13.0,25.0,117.0,39.0,-23.0,-1031.0,132.0
-2.0,-263.0,11.0,34.0,126.0,30.0,-24.0,-1025.0,132.0
-1.0,-263.0,12.0,37.0,130.0,18.0,-29.0,-1010.0,135.0
-6.0,-260.0,11.0,34.0,133.0,13.0,-26.0,-1010.0,136.0
-4.0,-264.0,16.0,32.0,135.0,1.0,-32.0,-1011.0,134.0
-3.0,-263.0,13.0,36.0,137.0,-1.0,-29.0,-1014.0,133.0
-5.0,-261.0,13.0,45.0,139.0,-6.0,-31.0,-1009.0,135.0
-4.0,-261.0,9.0,58.0,138.0,-1.0,-28.0,-1009.0,126.0
-4.0,-260.0,10.0,67.0,139.0,1.0,-27.0,-1002.0,121.0
-3.0,-259.0,12.0,65.0,139.0,7.0,-33.0,-1000.0,124.0
-6.0,-256.0,12.0,55.0,137.0,8.0,-29.0,-993.0,124.0
-5.0,-256.0,12.0,34.0,130.0,10.0,-30.0,-988.0,127.0
-6.0,-254.0,12.0,11.0,118.0,11.0,-28.0,-990.0,124.0
-7.0,-252.0,10.0,-20.0,106.0,12.0,-42.0,-989.0,119.0
-7.0,-254.0,11.0,-48.0,92.0,6.0,-49.0,-999.0,124.0
-7.0,-258.0,11.0,-74.0,77.0,4.0,-51.0,-994.0,119.0
-7.0,-261.0,12.0,-90.0,63.0,3.0,-56.0,-995.0,115.0
-9.0,-259.0,8.0,-97.0,51.0,6.0,-63.0,-1003.0,115.0
-12.0,-258.0,2.0,-103.0,36.0,8.0,-66.0,-1002.0,104.0
-11.0,-256.0,5.0,-111.0,22.0,10.0,-64.0,-991.0,100.0
-8.0,-257.0,-2.0,-122.0,7.0,16.0,-66.0,-1004.0,91.0
-10.0,-263.0,0.0,-147.0,2.0,18.0,-65.0,-1017.0,92.0
-12.0,-267.0,2.0,-170.0,2.0,21.0,-74.0,-1039.0,93.0
-17.0,-272.0,6.0,-187.0,-4.0,20.0,-81.0,-1056.0,105.0
-16.0,-273.0,10.0,-199.0,-16.0,21.0,-80.0,-1066.0,111.0
-14.0,-281.0,13.0,-201.0,-29.0,24.0,-73.0,-1084.0,118.0
-8.0,-282.0,10.0,-192.0,-40.0,29.0,-59.0,-1094.0,124.0
-6.0,-281.0,10.0,-178.0,-44.0,35.0,-46.0,-1092.0,129.0
-5.0,-282.0,13.0,-158.0,-43.0,43.0,-38.0,-1097.0,140.0
-3.0,-281.0,15.0,-133.0,-42.0,46.0,-33.0,-1096.0,152.0
-3.0,-281.0,16.0,-108.0,-41.0,56.0,-27.0,-1090.0,154.0
-7.0,-279.0,22.0,-76.0,-40.0,61.0,-38.0,-1084.0,158.0
-6.0,-274.0,22.0,-54.0,-42.0,69.0,-36.0,-1071.0,164.0
-7.0,-269.0,16.0,-36.0,-47.0,71.0,-36.0,-1067.0,162.0
-3.0,-268.0,19.0,-24.0,-52.0,75.0,-29.0,-1050.0,160.0
-2.0,-266.0,16.0,-20.0,-55.0,74.0,-23.0,-1033.0,153.0
0.0,-263.0,17.0,-21.0,-51.0,74.0,-23.0,-1017.0,150.0
-3.0,-260.0,15.0,-25.0,-44.0,70.0,-17.0,-1012.0,149.0
-2.0,-260.0,14.0,-27.0,-36.0,67.0,-16.0,-1009.0,141.0
1.0,-255.0,19.0,-29.0,-31.0,59.0,-16.0,-991.0,153.0
0.0,-251.0,12.0,-11.0,-28.0,56.0,-8.0,-980.0,131.0
2.0,-251.0,9.0,-10.0,-23.0,50.0,-5.0,-975.0,127.0
3.0,-254.0,14.0,-20.0,-15.0,49.0,-9.0,-971.0,122.0
1.0,-254.0,10.0,-31.0,-8.0,43.0,-8.0,-984.0,120.0
4.0,-255.0,12.0,-49.0,-5.0,42.0,-12.0,-985.0,127.0
5.0,-259.0,12.0,-60.0,-7.0,33.0,-12.0,-992.0,130.0
0.0,-262.0,16.0,-71.0,-8.0,29.0,-14.0,-1001.0,130.0
-1.0,-263.0,13.0,-78.0,-10.0,19.0,-22.0,-1018.0,130.0
-3.0,-264.0,17.0,-81.0,-13.0,15.0,-26.0,-1030.0,137.0
-2.0,-267.0,16.0,-76.0,-16.0,9.0,-32.0,-1039.0,136.0
-6.0,-267.0,15.0,-63.0,-18.0,10.0,-31.0,-1040.0,143.0
-4.0,-267.0,17.0,-46.0,-18.0,8.0,-28.0,-1033.0,147.0
-4.0,-264.0,15.0,-32.0,-17.0,12.0,-27.0,-1031.0,153.0
-5.0,-261.0,12.0,-21.0,-14.0,13.0,-31.0,-1009.0,152.0
-5.0,-257.0,16.0,-20.0,-12.0,16.0,-43.0,-996.0,148.0
-7.0,-258.0,14.0,-27.0,-11.0,15.0,-48.0,-996.0,145.0
-7.0,-259.0,16.0,-37.0,-12.0,20.0,-50.0,-993.0,142.0
-7.0,-259.0,16.0,-49.0,-14.0,20.0,-44.0,-994.0,142.0
-7.0,-260.0,13.0,-62.0,-12.0,26.0,-46.0,-1002.0,136.0
-8.0,-262.0,18.0,-72.0,-12.0,31.0,-50.0,-1008.0,141.0
-8.0,-264.0,16.0,-75.0,-13.0,34.0,-54.0,-1006.0,150.0
-8.0,-259.0,15.0,-76.0,-13.0,38.0,-59.0,-1010.0,150.0
-9.0,-262.0,16.0,-77.0,-16.0,43.0,-63.0,-1008.0,150.0
-8.0,-261.0,15.0,-78.0,-18.0,45.0,-67.0,-1010.0,149.0
-10.0,-263.0,16.0,-81.0,-23.0,49.0,-65.0,-1011.0,144.0
-9.0,-261.0,12.0,-85.0,-26.0,50.0,-64.0,-1014.0,149.0
-8.0,-264.0,18.0,-87.0,-30.0,51.0,-63.0,-1016.0,147.0
-8.0,-263.0,14.0,-89.0,-33.0,49.0,-52.0,-1021.0,147.0
-6.0,-262.0,16.0,-87.0,-37.0,47.0,-46.0,-1026.0,152.0
-6.0,-268.0,17.0,-83.0,-40.0,45.0,-39.0,-1035.0,157.0
-4.0,-267.0,19.0,-78.0,-41.0,38.0,-33.0,-1038.0,160.0
-3.0,-267.0,18.0,-76.0,-40.0,33.0,-28.0,-1039.0,164.0
-1.0,-267.0,19.0,-68.0,-42.0,27.0,-21.0,-1038.0,164.0
-3.0,-268.0,19.0,-61.0,-40.0,24.0,-28.0,-1037.0,160.0
-3.0,-265.0,18.0,-52.0,-35.0,21.0,-29.0,-1034.0,163.0
-4.0,-265.0,16.0,-42.0,-31.0,20.0,-32.0,-1016.0,160.0
-5.0,-263.0,17.0,-35.0,-27.0,18.0,-35.0,-1021.0,155.0
-5.0,-262.0,16.0,-31.0,-23.0,20.0,-32.0,-1017.0,152.0
-5.0,-263.0,19.0,-33.0,-21.0,19.0,-39.0,-1010.0,148.0
-4.0,-261.0,18.0,-37.0,-17.0,23.0,-30.0,-1010.0,145.0
-7.0,-261.0,18.0,-36.0,-12.0,22.0,-31.0,-1012.0,145.0
-3.0,-260.0,15.0,-34.0,-8.0,23.0,-31.0,-1011.0,151.0
-3.0,-264.0,17.0,-31.0,-3.0,21.0,-34.0,-1007.0,149.0
-1.0,-262.0,15.0,-30.0,-2.0,22.0,-28.0,-1009.0,147.0
-1.0,-262.0,13.0,-29.0,0.0,18.0,-27.0,-1006.0,146.0
-1.0,-262.0,14.0,-31.0,2.0,18.0,-19.0,-1003.0,145.0
3.0,-262.0,20.0,-32.0,4.0,14.0,-13.0,-1007.0,150.0
0.0,-263.0,17.0,-32.0,10.0,14.0,-11.0,-1015.0,141.0
1.0,-265.0,14.0,-32.0,13.0,9.0,-12.0,-1017.0,144.0
4.0,-264.0,14.0,-32.0,20.0,9.0,-13.0,-1029.0,143.0
0.0,-264.0,14.0,-28.0,25.0,4.0,-11.0,-1038.0,147.0
5.0,-268.0,14.0,-23.0,29.0,4.0,-6.0,-1028.0,141.0
2.0,-266.0,14.0,-16.0,36.0,0.0,-4.0,-1032.0,147.0
3.0,-265.0,17.0,-8.0,44.0,0.0,-6.0,-1019.0,150.0
2.0,-261.0,17.0,-4.0,50.0,-5.0,-11.0,-1009.0,152.0
-2.0,-260.0,13.0,-2.0,53.0,-5.0,-13.0,-1011.0,151.0
-1.0,-260.0,14.0,-3.0,58.0,-12.0,-17.0,-999.0,145.0
-2.0,-259.0,13.0,-5.0,63.0,-13.0,-21.0,-1002.0,151.0
-2.0,-256.0,13.0,-10.0,66.0,-18.0,-25.0,-999.0,150.0
-5.0,-257.0,16.0,-14.0,71.0,-19.0,-31.0,-998.0,145.0
-6.0,-257.0,16.0,-17.0,76.0,-21.0,-38.0,-1001.0,149.0
-5.0,-260.0,16.0,-19.0,80.0,-22.0,-41.0,-997.0,150.0
-6.0,-261.0,17.0,-22.0,82.0,-24.0,-45.0,-1005.0,145.0
-6.0,-261.0,13.0,-22.0,83.0,-21.0,-43.0,-1004.0,152.0
-8.0,-263.0,18.0,-21.0,84.0,-21.0,-42.0,-1010.0,152.0
-4.0,-264.0,18.0,-23.0,85.0,-19.0,-46.0,-1010.0,152.0
-6.0,-261.0,13.0,-22.0,85.0,-19.0,-45.0,-1012.0,153.0
-6.0,-260.0,16.0,-25.0,85.0,-19.0,-33.0,-1014.0,149.0
-4.0,-262.0,15.0,-27.0,87.0,-17.0,-37.0,-1012.0,153.0
-6.0,-262.0,16.0,-26.0,90.0,-16.0,-41.0,-1016.0,145.0
-7.0,-263.0,15.0,-27.0,91.0,-15.0,-40.0,-1025.0,151.0
-6.0,-265.0,17.0,-26.0,93.0,-14.0,-42.0,-1022.0,153.0
-6.0,-265.0,19.0,-21.0,92.0,-14.0,-45.0,-1028.0,149.0
-7.0,-262.0,14.0,-16.0,91.0,-14.0,-48.0,-1016.0,150.0
-5.0,-263.0,19.0,-11.0,89.0,-15.0,-46.0,-1012.0,143.0
-7.0,-264.0,14.0,-7.0,87.0,-17.0,-47.0,-1009.0,149.0
-6.0,-263.0,16.0,-6.0,86.0,-17.0,-40.0,-1009.0,149.0
-7.0,-260.0,16.0,-6.0,85.0,-20.0,-39.0,-1006.0,149.0
-4.0,-261.0,16.0,-11.0,87.0,-19.0,-38.0,-1016.0,150.0
-3.0,-260.0,15.0,-14.0,87.0,-21.0,-30.0,-1014.0,149.0
-5.0,-260.0,14.0,-19.0,86.0,-17.0,-29.0,-1010.0,153.0
-4.0,-263.0,17.0,-25.0,90.0,-18.0,-24.0,-1013.0,153.0
-3.0,-264.0,19.0,-29.0,91.0,-14.0,-29.0,-1017.0,157.0
-3.0,-264.0,19.0,-27.0,92.0,-15.0,-31.0,-1015.0,156.0
-4.0,-263.0,16.0,-24.0,90.0,-13.0,-33.0,-1018.0,158.0
-3.0,-264.0,16.0,-19.0,89.0,-15.0,-33.0,-1011.0,155.0
-1.0,-263.0,15.0,-15.0,88.0,-14.0,-29.0,-1012.0,141.0
-4.0,-259.0,18.0,-9.0,90.0,-18.0,-29.0,-1009.0,153.0
-5.0,-259.0,12.0,-5.0,89.0,-18.0,-32.0,-1000.0,148.0
-5.0,-257.0,17.0,-4.0,91.0,-22.0,-34.0,-998.0,150.0
-4.0,-259.0,16.0,-8.0,93.0,-19.0,-28.0,-987.0,158.0
-5.0,-260.0,17.0,-14.0,95.0,-21.0,-34.0,-989.0,157.0
-4.0,-257.0,15.0,-24.0,96.0,-18.0,-37.0,-994.0,151.0
-7.0,-254.0,20.0,-32.0,95.0,-21.0,-37.0,-994.0,151.0
-6.0,-259.0,13.0,-39.0,95.0,-19.0,-40.0,-999.0,155.0
-6.0,-260.0,17.0,-44.0,93.0,-22.0,-46.0,-1000.0,150.0
-5.0,-262.0,16.0,-45.0,95.0,-19.0,-46.0,-1003.0,148.0
-3.0,-259.0,19.0,-46.0,97.0,-22.0,-40.0,-1000.0,150.0
-8.0,-261.0,13.0,-44.0,98.0,-20.0,-43.0,-1011.0,149.0
-7.0,-262.0,19.0,-41.0,98.0,-23.0,-42.0,-1013.0,153.0
-5.0,-260.0,15.0,-38.0,97.0,-20.0,-40.0,-1011.0,148.0
-6.0,-260.0,16.0,-38.0,97.0,-22.0,-38.0,-1010.0,148.0
-4.0,-262.0,16.0,-41.0,96.0,-20.0,-35.0,-1013.0,152.0
-7.0,-262.0,14.0,-45.0,96.0,-21.0,-37.0,-1018.0,149.0
-5.0,-265.0,17.0,-50.0,98.0,-17.0,-37.0,-1019.0,151.0
-6.0,-262.0,13.0,-53.0,96.0,-17.0,-34.0,-1027.0,146.0
-6.0,-265.0,15.0,-52.0,94.0,-15.0,-27.0,-1024.0,144.0
-7.0,-265.0,15.0,-50.0,93.0,-15.0,-33.0,-1031.0,140.0
-3.0,-267.0,12.0,-43.0,93.0,-17.0,-33.0,-1024.0,135.0
-5.0,-263.0,12.0,-36.0,91.0,-19.0,-28.0,-1024.0,132.0
-2.0,-263.0,13.0,-31.0,90.0,-20.0,-32.0,-1015.0,129.0
-4.0,-261.0,14.0,-30.0,88.0,-24.0,-28.0,-1016.0,134.0
-3.0,-261.0,13.0,-31.0,85.0,-25.0,-33.0,-1009.0,137.0
-4.0,-262.0,12.0,-35.0,84.0,-27.0,-37.0,-1007.0,130.0
-5.0,-261.0,13.0,-38.0,81.0,-27.0,-34.0,-1007.0,139.0
-6.0,-261.0,12.0,-41.0,80.0,-29.0,-34.0,-1004.0,129.0
-6.0,-260.0,13.0,-42.0,80.0,-28.0,-34.0,-1010.0,134.0
-6.0,-261.0,13.0,-40.0,79.0,-26.0,-39.0,-1014.0,135.0
-7.0,-265.0,13.0,-35.0,79.0,-27.0,-37.0,-1014.0,131.0
-8.0,-264.0,14.0,-29.0,79.0,-23.0,-41.0,-1017.0,136.0
-6.0,-265.0,12.0,-23.0,76.0,-24.0,-50.0,-1015.0,136.0
-7.0,-263.0,12.0,-20.0,69.0,-21.0,-41.0,-1013.0,135.0
-6.0,-265.0,12.0,-18.0,66.0,-20.0,-45.0,-1013.0,134.0
-7.0,-264.0,12.0,-19.0,67.0,-18.0,-41.0,-1020.0,131.0
-5.0,-263.0,12.0,-17.0,70.0,-16.0,-38.0,-1022.0,131.0
-5.0,-264.0,12.0,-14.0,73.0,-12.0,-39.0,-1016.0,132.0
-6.0,-264.0,12.0,-12.0,73.0,-13.0,-42.0,-1024.0,126.0
-5.0,-262.0,13.0,-12.0,74.0,-10.0,-35.0,-1016.0,131.0
-5.0,-261.0,12.0,-12.0,73.0,-12.0,-31.0,-1015.0,133.0
-6.0,-260.0,13.0,-9.0,70.0,-10.0,-32.0,-1011.0,131.0
-4.0,-260.0,13.0,-11.0,69.0,-10.0,-25.0,-1006.0,133.0
-3.0,-261.0,13.0,-13.0,70.0,-8.0,-25.0,-1006.0,131.0
-1.0,-263.0,14.0,-17.0,69.0,-10.0,-25.0,-1012.0,135.0
-2.0,-259.0,13.0,-21.0,69.0,-7.0,-22.0,-1015.0,135.0
-2.0,-261.0,12.0,-23.0,69.0,-11.0,-17.0,-1008.0,137.0
0.0,-260.0,13.0,-29.0,67.0,-9.0,-16.0,-1016.0,135.0
-1.0,-261.0,14.0,-33.0,69.0,-11.0,-22.0,-1007.0,132.0
0.0,-262.0,12.0,-37.0,70.0,-10.0,-16.0,-1015.0,135.0
-3.0,-264.0,13.0,-39.0,71.0,-14.0,-22.0,-1017.0,137.0
-2.0,-264.0,15.0,-39.0,71.0,-11.0,-25.0,-1018.0,135.0
-1.0,-266.0,14.0,-35.0,72.0,-12.0,-30.0,-1025.0,135.0
-2.0,-266.0,13.0,-27.0,73.0,-10.0,-31.0,-1021.0,129.0
-1.0,-264.0,13.0,-20.0,75.0,-12.0,-29.0,-1025.0,124.0
-2.0,-266.0,14.0,-16.0,78.0,-10.0,-29.0,-1015.0,127.0
-5.0,-262.0,13.0,-11.0,81.0,-11.0,-31.0,-1017.0,129.0
-3.0,-262.0,11.0,-9.0,83.0,-12.0,-31.0,-1023.0,132.0
-4.0,-266.0,7.0,-6.0,86.0,-13.0,-32.0,-1023.0,129.0
-7.0,-262.0,13.0,-5.0,88.0,-14.0,-30.0,-1021.0,134.0
-7.0,-267.0,0.0,-6.0,90.0,-15.0,-31.0,-1015.0,136.0
-1.0,-261.0,20.0,-5.0,92.0,-14.0,-29.0,-1018.0,129.0
-5.0,-263.0,16.0,-2.0,93.0,-15.0,-33.0,-1018.0,133.0
-2.0,-264.0,13.0,1.0,91.0,-13.0,-34.0,-1025.0,136.0
-3.0,-265.0,12.0,1.0,89.0,-13.0,-31.0,-1020.0,130.0
-4.0,-265.0,12.0,3.0,87.0,-13.0,-36.0,-1013.0,132.0
-4.0,-265.0,13.0,6.0,86.0,-13.0,-33.0,-1028.0,140.0
-5.0,-268.0,13.0,8.0,86.0,-13.0,-38.0,-1036.0,134.0
-4.0,-265.0,14.0,12.0,86.0,-13.0,-32.0,-1026.0,137.0
-5.0,-264.0,13.0,16.0,86.0,-13.0,-32.0,-1017.0,137.0
-5.0,-264.0,13.0,21.0,85.0,-13.0,-37.0,-1019.0,134.0
-5.0,-263.0,11.0,24.0,84.0,-14.0,-34.0,-1016.0,132.0
-7.0,-266.0,13.0,25.0,85.0,-15.0,-33.0,-1017.0,136.0
-5.0,-262.0,14.0,25.0,86.0,-16.0,-35.0,-1005.0,133.0
-6.0,-260.0,16.0,24.0,86.0,-15.0,-38.0,-1010.0,134.0
-4.0,-259.0,13.0,21.0,87.0,-16.0,-37.0,-1009.0,135.0
-3.0,-262.0,18.0,17.0,86.0,-14.0,-35.0,-1008.0,139.0
-7.0,-259.0,11.0,12.0,84.0,-15.0,-33.0,-1010.0,136.0
-3.0,-264.0,12.0,8.0,84.0,-12.0,-31.0,-1008.0,132.0
-5.0,-260.0,16.0,7.0,83.0,-14.0,-33.0,-1020.0,136.0
-3.0,-263.0,13.0,5.0,80.0,-11.0,-33.0,-1009.0,137.0
-7.0,-261.0,13.0,6.0,79.0,-13.0,-35.0,-1012.0,136.0
-6.0,-264.0,18.0,4.0,80.0,-11.0,-31.0,-1009.0,138.0
-3.0,-264.0,12.0,1.0,78.0,-13.0,-36.0,-1013.0,140.0
-3.0,-263.0,16.0,1.0,78.0,-10.0,-38.0,-1009.0,142.0
-2.0,-264.0,13.0,2.0,76.0,-14.0,-31.0,-1015.0,144.0
-5.0,-261.0,13.0,1.0,75.0,-11.0,-33.0,-1009.0,145.0
-5.0,-260.0,14.0,2.0,74.0,-13.0,-33.0,-1013.0,149.0
-3.0,-262.0,15.0,0.0,73.0,-10.0,-32.0,-1008.0,151.0
-3.0,-260.0,19.0,-1.0,75.0,-13.0,-35.0,-1008.0,149.0
-8.0,-264.0,15.0,-2.0,76.0,-10.0,-34.0,-1008.0,149.0
-7.0,-260.0,16.0,-2.0,75.0,-12.0,-48.0,-1011.0,148.0
-6.0,-261.0,16.0,-3.0,76.0,-9.0,-39.0,-1015.0,142.0
-6.0,-263.0,15.0,-4.0,75.0,-11.0,-42.0,-1006.0,141.0
-6.0,-260.0,17.0,-3.0,76.0,-8.0,-44.0,-1007.0,139.0
-6.0,-260.0,13.0,-3.0,75.0,-8.0,-38.0,-1011.0,145.0
-6.0,-262.0,15.0,-3.0,76.0,-6.0,-42.0,-1009.0,143.0
-4.0,-261.0,14.0,-3.0,76.0,-8.0,-39.0,-1008.0,145.0
-7.0,-264.0,14.0,0.0,76.0,-6.0,-35.0,-1009.0,148.0
-4.0,-261.0,13.0,3.0,76.0,-8.0,-30.0,-1005.0,144.0
-3.0,-263.0,13.0,5.0,74.0,-7.0,-31.0,-1009.0,142.0
-3.0,-262.0,16.0,6.0,74.0,-9.0,-31.0,-1012.0,146.0
-1.0,-264.0,19.0,6.0,75.0,-8.0,-28.0,-1008.0,148.0
-3.0,-261.0,15.0,4.0,76.0,-10.0,-31.0,-1008.0,150.0
-1.0,-263.0,17.0,5.0,79.0,-9.0,-31.0,-1012.0,148.0
-2.0,-264.0,17.0,3.0,80.0,-9.0,-34.0,-1005.0,147.0
-3.0,-263.0,16.0,2.0,81.0,-9.0,-35.0,-1009.0,145.0
-5.0,-261.0,18.0,1.0,84.0,-9.0,-33.0,-1015.0,150.0
-4.0,-263.0,15.0,-2.0,86.0,-9.0,-38.0,-1012.0,149.0
-7.0,-261.0,14.0,-2.0,86.0,-9.0,-35.0,-1014.0,149.0
-7.0,-263.0,15.0,-2.0,85.0,-9.0,-40.0,-1013.0,147.0
-6.0,-263.0,16.0,0.0,84.0,-9.0,-41.0,-1020.0,147.0
-3.0,-262.0,19.0,0.0,83.0,-7.0,-40.0,-1015.0,149.0
-4.0,-263.0,15.0,3.0,83.0,-6.0,-39.0,-1011.0,155.0
-5.0,-265.0,14.0,4.0,81.0,-7.0,-37.0,-1012.0,148.0
-8.0,-263.0,16.0,6.0,81.0,-5.0,-43.0,-1012.0,158.0
-6.0,-263.0,20.0,7.0,78.0,-7.0,-41.0,-1017.0,156.0
-5.0,-262.0,15.0,8.0,77.0,-6.0,-40.0,-1011.0,154.0
-6.0,-260.0,14.0,6.0,74.0,-6.0,-39.0,-1023.0,157.0
-5.0,-264.0,20.0,8.0,74.0,-5.0,-42.0,-1011.0,160.0
-5.0,-264.0,16.0,9.0,73.0,-6.0,-34.0,-1012.0,155.0
-5.0,-262.0,23.0,11.0,71.0,-5.0,-39.0,-1010.0,157.0
-8.0,-263.0,14.0,10.0,69.0,-6.0,-39.0,-1005.0,156.0
-6.0,-260.0,20.0,10.0,69.0,-4.0,-31.0,-1004.0,155.0
-6.0,-261.0,15.0,11.0,69.0,-6.0,-36.0,-1007.0,154.0
-5.0,-260.0,17.0,12.0,70.0,-5.0,-33.0,-1000.0,155.0
-4.0,-259.0,19.0,12.0,71.0,-8.0,-33.0,-1002.0,152.0
-3.0,-261.0,18.0,10.0,70.0,-5.0,-27.0,-1005.0,156.0
-3.0,-262.0,17.0,9.0,71.0,-9.0,-24.0,-1007.0,155.0
-3.0,-259.0,18.0,7.0,71.0,-7.0,-28.0,-1001.0,154.0
-2.0,-260.0,17.0,5.0,69.0,-11.0,-26.0,-1004.0,153.0
-2.0,-260.0,16.0,1.0,70.0,-8.0,-22.0,-1003.0,152.0
-4.0,-261.0,17.0,0.0,71.0,-13.0,-28.0,-1008.0,153.0
-3.0,-261.0,19.0,-3.0,71.0,-11.0,-28.0,-1010.0,148.0
-1.0,-261.0,18.0,-4.0,72.0,-13.0,-22.0,-1006.0,154.0
-3.0,-264.0,18.0,-5.0,75.0,-9.0,-29.0,-1009.0,150.0
-5.0,-259.0,16.0,-6.0,76.0,-13.0,-30.0,-1008.0,152.0
-3.0,-262.0,16.0,-7.0,78.0,-11.0,-28.0,-1008.0,157.0
-5.0,-262.0,17.0,-7.0,79.0,-12.0,-28.0,-1009.0,150.0
-3.0,-261.0,16.0,-5.0,77.0,-11.0,-29.0,-1015.0,154.0
-3.0,-261.0,15.0,-4.0,75.0,-13.0,-28.0,-1010.0,152.0
-5.0,-263.0,16.0,-3.0,74.0,-10.0,-28.0,-1010.0,151.0
-5.0,-260.0,15.0,-4.0,74.0,-11.0,-31.0,-1012.0,148.0
-4.0,-259.0,12.0,-5.0,73.0,-10.0,-31.0,-1008.0,149.0
-4.0,-261.0,13.0,-6.0,73.0,-11.0,-32.0,-1012.0,151.0
-4.0,-263.0,12.0,-4.0,72.0,-9.0,-30.0,-1012.0,145.0
-5.0,-263.0,15.0,-4.0,73.0,-9.0,-33.0,-1010.0,141.0
-5.0,-261.0,14.0,-4.0,73.0,-8.0,-33.0,-1015.0,147.0
-7.0,-264.0,17.0,-2.0,73.0,-9.0,-33.0,-1011.0,144.0
-5.0,-261.0,14.0,-2.0,73.0,-7.0,-33.0,-1015.0,140.0
-5.0,-264.0,15.0,-2.0,70.0,-8.0,-30.0,-1011.0,145.0
-4.0,-264.0,17.0,0.0,69.0,-8.0,-28.0,-1009.0,143.0
-4.0,-261.0,15.0,2.0,70.0,-7.0,-34.0,-1015.0,152.0
-3.0,-260.0,16.0,2.0,69.0,-8.0,-29.0,-1014.0,153.0
-4.0,-265.0,15.0,4.0,70.0,-8.0,-30.0,-1012.0,149.0
-4.0,-265.0,18.0,5.0,69.0,-8.0,-30.0,-1013.0,151.0
-2.0,-265.0,15.0,7.0,68.0,-7.0,-31.0,-1019.0,150.0
-4.0,-263.0,19.0,8.0,68.0,-8.0,-31.0,-1009.0,149.0
-4.0,-264.0,13.0,8.0,66.0,-7.0,-33.0,-1011.0,147.0
-4.0,-264.0,14.0,9.0,66.0,-8.0,-32.0,-1007.0,147.0
-7.0,-261.0,16.0,10.0,66.0,-6.0,-30.0,-1011.0,154.0
-7.0,-261.0,20.0,8.0,65.0,-6.0,-30.0,-1013.0,157.0
-3.0,-258.0,13.0,6.0,63.0,-5.0,-32.0,-1008.0,153.0
-6.0,-260.0,17.0,4.0,63.0,-5.0,-36.0,-1002.0,148.0
-3.0,-258.0,20.0,1.0,63.0,-2.0,-36.0,-1010.0,156.0
-4.0,-261.0,18.0,-3.0,63.0,-5.0,-33.0,-1000.0,156.0
-2.0,-261.0,17.0,-6.0,61.0,-2.0,-29.0,-1004.0,153.0
-6.0,-258.0,15.0,-8.0,60.0,-4.0,-32.0,-1003.0,153.0
-4.0,-260.0,18.0,-11.0,62.0,-1.0,-32.0,-1006.0,154.0
-6.0,-262.0,17.0,-14.0,62.0,-4.0,-35.0,-1002.0,155.0
-3.0,-263.0,16.0,-16.0,60.0,-1.0,-34.0,-1008.0,155.0
-3.0,-264.0,16.0,-17.0,58.0,-4.0,-37.0,-1006.0,147.0
-5.0,-263.0,14.0,-18.0,55.0,-1.0,-35.0,-1005.0,151.0
-6.0,-262.0,17.0,-16.0,55.0,-3.0,-35.0,-1006.0,152.0
-3.0,-263.0,17.0,-15.0,53.0,-1.0,-39.0,-1010.0,151.0
-4.0,-260.0,14.0,-13.0,51.0,-4.0,-42.0,-1008.0,151.0
-6.0,-260.0,17.0,-12.0,52.0,0.0,-37.0,-1005.0,150.0
-2.0,-260.0,16.0,-10.0,49.0,-3.0,-41.0,-1003.0,150.0
-6.0,-259.0,14.0,-10.0,49.0,2.0,-36.0,-1003.0,151.0
-5.0,-258.0,20.0,-11.0,49.0,1.0,-35.0,-1008.0,152.0
-6.0,-258.0,16.0,-15.0,48.0,3.0,-36.0,-1009.0,156.0
-2.0,-260.0,19.0,-17.0,47.0,1.0,-35.0,-1008.0,154.0
-3.0,-263.0,16.0,-17.0,47.0,3.0,-35.0,-1014.0,159.0
-4.0,-263.0,24.0,-19.0,46.0,1.0,-36.0,-1013.0,160.0
-6.0,-266.0,15.0,-22.0,45.0,3.0,-38.0,-1023.0,155.0
-3.0,-265.0,20.0,-23.0,45.0,1.0,-37.0,-1012.0,152.0
-6.0,-260.0,18.0,-25.0,44.0,2.0,-36.0,-1015.0,158.0
-3.0,-262.0,21.0,-27.0,43.0,-1.0,-30.0,-1008.0,158.0
-5.0,-261.0,15.0,-29.0,42.0,0.0,-31.0,-1007.0,160.0
-5.0,-259.0,18.0,-30.0,40.0,0.0,-29.0,-1007.0,157.0
-5.0,-260.0,19.0,-30.0,40.0,-1.0,-32.0,-1003.0,154.0
-5.0,-263.0,17.0,-29.0,41.0,-3.0,-25.0,-1012.0,155.0
-5.0,-259.0,16.0,-25.0,42.0,-2.0,-38.0,-1007.0,152.0
-3.0,-259.0,15.0,-23.0,44.0,-2.0,-35.0,-1009.0,150.0
-3.0,-262.0,19.0,-20.0,44.0,-1.0,-32.0,-1005.0,159.0
-4.0,-262.0,19.0,-16.0,46.0,-1.0,-40.0,-1014.0,154.0
-4.0,-262.0,14.0,-13.0,44.0,-1.0,-33.0,-1011.0,153.0
-8.0,-261.0,18.0,-12.0,44.0,-2.0,-37.0,-1010.0,158.0
-2.0,-262.0,20.0,-10.0,43.0,-1.0,-37.0,-1012.0,152.0
-7.0,-263.0,19.0,-9.0,47.0,0.0,-34.0,-1006.0,159.0
-6.0,-261.0,18.0,-9.0,47.0,-3.0,-31.0,-1009.0,162.0
-5.0,-260.0,16.0,-8.0,48.0,-1.0,-28.0,-1010.0,159.0
-3.0,-262.0,16.0,-9.0,49.0,-3.0,-34.0,-1012.0,152.0
-6.0,-262.0,17.0,-8.0,50.0,-2.0,-31.0,-1019.0,159.0
-3.0,-262.0,18.0,-9.0,50.0,-4.0,-30.0,-1008.0,158.0
-2.0,-264.0,18.0,-8.0,51.0,-5.0,-28.0,-1010.0,158.0
-2.0,-261.0,16.0,-8.0,51.0,-5.0,-27.0,-1012.0,158.0
-2.0,-261.0,19.0,-7.0,51.0,-4.0,-28.0,-1013.0,159.0
-4.0,-262.0,16.0,-4.0,51.0,-5.0,-26.0,-1021.0,159.0
-1.0,-264.0,18.0,-3.0,53.0,-5.0,-27.0,-1015.0,162.0
-3.0,-260.0,17.0,-1.0,54.0,-8.0,-27.0,-1015.0,160.0
0.0,-261.0,21.0,1.0,56.0,-7.0,-26.0,-1013.0,159.0
-2.0,-261.0,17.0,-2.0,57.0,-9.0,-22.0,-1012.0,159.0
-2.0,-260.0,19.0,0.0,59.0,-7.0,-27.0,-1007.0,156.0
-4.0,-263.0,16.0,1.0,59.0,-10.0,-31.0,-1011.0,159.0
-3.0,-263.0,18.0,4.0,61.0,-8.0,-29.0,-1010.0,160.0
-3.0,-263.0,16.0,4.0,63.0,-11.0,-31.0,-1013.0,157.0
-5.0,-263.0,19.0,5.0,60.0,-8.0,-28.0,-1007.0,157.0
-7.0,-259.0,21.0,6.0,64.0,-11.0,-29.0,-1009.0,155.0
-6.0,-264.0,19.0,5.0,65.0,-9.0,-31.0,-1008.0,159.0
-6.0,-263.0,21.0,3.0,66.0,-9.0,-28.0,-1009.0,163.0
-3.0,-262.0,15.0,3.0,66.0,-7.0,-30.0,-1015.0,159.0
-4.0,-262.0,19.0,3.0,65.0,-8.0,-31.0,-1012.0,159.0
-5.0,-266.0,21.0,4.0,67.0,-5.0,-34.0,-1008.0,163.0
-7.0,-260.0,19.0,4.0,67.0,-9.0,-35.0,-1011.0,161.0
-3.0,-261.0,20.0,5.0,66.0,-5.0,-35.0,-1004.0,161.0
-4.0,-263.0,18.0,3.0,66.0,-8.0,-30.0,-1005.0,160.0
-4.0,-262.0,17.0,3.0,67.0,-6.0,-30.0,-1004.0,163.0
-2.0,-263.0,17.0,1.0,67.0,-7.0,-29.0,-1010.0,160.0
-2.0,-261.0,15.0,-2.0,66.0,-7.0,-28.0,-1009.0,157.0
-6.0,-260.0,19.0,-2.0,67.0,-8.0,-29.0,-1010.0,162.0
-2.0,-261.0,18.0,-2.0,67.0,-7.0,-28.0,-1012.0,161.0
-5.0,-264.0,20.0,0.0,66.0,-7.0,-20.0,-1012.0,159.0
-4.0,-261.0,21.0,1.0,67.0,-7.0,-26.0,-1013.0,159.0
-5.0,-262.0,17.0,1.0,66.0,-8.0,-24.0,-1013.0,157.0
-2.0,-261.0,17.0,1.0,67.0,-9.0,-28.0,-1010.0,156.0
-1.0,-262.0,18.0,2.0,66.0,-10.0,-26.0,-1011.0,159.0
-5.0,-258.0,21.0,2.0,68.0,-9.0,-29.0,-1005.0,156.0
-6.0,-261.0,21.0,3.0,68.0,-11.0,-32.0,-1008.0,156.0
-4.0,-262.0,18.0,3.0,70.0,-11.0,-28.0,-1007.0,158.0
-1.0,-263.0,21.0,3.0,68.0,-10.0,-34.0,-1004.0,163.0
-2.0,-261.0,16.0,1.0,69.0,-11.0,-30.0,-1010.0,161.0
-2.0,-261.0,20.0,-2.0,70.0,-10.0,-31.0,-1005.0,158.0
-5.0,-262.0,22.0,-3.0,70.0,-10.0,-28.0,-1003.0,162.0
-3.0,-262.0,18.0,-5.0,69.0,-9.0,-37.0,-1011.0,160.0
-2.0,-263.0,18.0,-6.0,69.0,-10.0,-30.0,-1009.0,163.0
-3.0,-262.0,19.0,-7.0,68.0,-9.0,-32.0,-1009.0,159.0
-3.0,-263.0,17.0,-7.0,66.0,-10.0,-35.0,-1009.0,166.0
-3.0,-261.0,22.0,-4.0,65.0,-8.0,-32.0,-1008.0,160.0
-4.0,-264.0,18.0,-3.0,65.0,-11.0,-30.0,-1011.0,167.0
-5.0,-264.0,19.0,-2.0,65.0,-7.0,-33.0,-1011.0,163.0
-6.0,-261.0,22.0,1.0,63.0,-9.0,-34.0,-1012.0,159.0
-5.0,-263.0,18.0,2.0,63.0,-7.0,-31.0,-1007.0,165.0
-5.0,-260.0,19.0,2.0,63.0,-8.0,-31.0,-1008.0,160.0
-3.0,-263.0,18.0,2.0,63.0,-5.0,-30.0,-1009.0,158.0
-6.0,-261.0,19.0,4.0,64.0,-7.0,-33.0,-1002.0,158.0
-5.0,-259.0,18.0,1.0,64.0,-6.0,-36.0,-1004.0,162.0
-6.0,-260.0,18.0,0.0,63.0,-7.0,-36.0,-1003.0,164.0
-7.0,-260.0,21.0,-1.0,64.0,-5.0,-31.0,-1007.0,165.0
-4.0,-258.0,20.0,-3.0,63.0,-7.0,-33.0,-1006.0,172.0
-3.0,-262.0,19.0,-4.0,64.0,-5.0,-37.0,-1004.0,167.0
-4.0,-261.0,20.0,-4.0,62.0,-8.0,-30.0,-1009.0,161.0
-4.0,-261.0,19.0,-4.0,61.0,-6.0,-31.0,-1006.0,165.0
-5.0,-261.0,19.0,-5.0,62.0,-10.0,-29.0,-1006.0,166.0
-8.0,-257.0,18.0,-3.0,62.0,-7.0,-29.0,-1000.0,160.0
-4.0,-263.0,20.0,-3.0,63.0,-9.0,-26.0,-1010.0,156.0
-7.0,-258.0,18.0,-2.0,64.0,-8.0,-28.0,-1003.0,159.0
-3.0,-259.0,21.0,-2.0,65.0,-8.0,-28.0,-1004.0,160.0
-3.0,-259.0,17.0,-4.0,65.0,-6.0,-27.0,-1001.0,160.0
-3.0,-259.0,17.0,-7.0,65.0,-7.0,-32.0,-1001.0,157.0
-5.0,-259.0,17.0,-9.0,65.0,-6.0,-30.0,-1008.0,161.0
-3.0,-260.0,16.0,-11.0,65.0,-10.0,-30.0,-1007.0,159.0
-4.0,-262.0,18.0,-12.0,66.0,-7.0,-31.0,-1010.0,160.0
-6.0,-263.0,20.0,-14.0,65.0,-9.0,-28.0,-1011.0,158.0
-1.0,-262.0,17.0,-15.0,66.0,-8.0,-28.0,-1010.0,162.0
-3.0,-261.0,21.0,-17.0,66.0,-10.0,-30.0,-1007.0,157.0
-6.0,-264.0,18.0,-20.0,65.0,-10.0,-27.0,-1006.0,159.0
-4.0,-260.0,19.0,-20.0,65.0,-10.0,-30.0,-1008.0,161.0
-5.0,-260.0,18.0,-19.0,67.0,-9.0,-30.0,-1010.0,156.0
-5.0,-262.0,18.0,-20.0,67.0,-9.0,-30.0,-1010.0,158.0
-5.0,-260.0,18.0,-20.0,67.0,-9.0,-29.0,-1013.0,159.0
-6.0,-261.0,13.0,-21.0,67.0,-9.0,-32.0,-1012.0,159.0
-3.0,-260.0,16.0,-20.0,67.0,-9.0,-30.0,-1008.0,157.0
-3.0,-260.0,19.0,-20.0,68.0,-8.0,-30.0,-1008.0,156.0
-5.0,-262.0,13.0,-20.0,69.0,-7.0,-27.0,-1008.0,158.0
-5.0,-261.0,15.0,-21.0,70.0,-7.0,-28.0,-1006.0,160.0
-4.0,-261.0,14.0,-22.0,69.0,-6.0,-35.0,-1010.0,159.0
-6.0,-261.0,19.0,-21.0,70.0,-6.0,-30.0,-1008.0,159.0
-3.0,-261.0,18.0,-23.0,69.0,-9.0,-36.0,-1007.0,155.0
-3.0,-262.0,15.0,-23.0,68.0,-6.0,-30.0,-1003.0,156.0
-3.0,-260.0,18.0,-25.0,69.0,-8.0,-30.0,-1009.0,156.0
-6.0,-260.0,16.0,-26.0,69.0,-6.0,-32.0,-1007.0,157.0
-4.0,-261.0,19.0,-25.0,69.0,-8.0,-29.0,-1005.0,157.0
-3.0,-262.0,21.0,-25.0,71.0,-7.0,-27.0,-1011.0,161.0
-5.0,-259.0,16.0,-26.0,70.0,-7.0,-30.0,-1007.0,160.0
-5.0,-262.0,19.0,-24.0,70.0,-5.0,-32.0,-1009.0,159.0
-3.0,-261.0,17.0,-22.0,69.0,-7.0,-30.0,-1012.0,157.0
-2.0,-263.0,20.0,-22.0,70.0,-4.0,-32.0,-1010.0,159.0
-5.0,-260.0,20.0,-24.0,69.0,-6.0,-28.0,-1003.0,157.0
-2.0,-263.0,17.0,-25.0,71.0,-5.0,-31.0,-1008.0,157.0
-5.0,-262.0,17.0,-26.0,69.0,-7.0,-31.0,-1005.0,163.0
-6.0,-261.0,18.0,-29.0,67.0,-5.0,-29.0,-1005.0,160.0
-3.0,-261.0,14.0,-30.0,68.0,-7.0,-28.0,-1009.0,157.0
-2.0,-264.0,18.0,-31.0,69.0,-7.0,-27.0,-1008.0,157.0
-5.0,-259.0,16.0,-34.0,68.0,-9.0,-27.0,-1008.0,160.0
-4.0,-261.0,18.0,-34.0,68.0,-6.0,-29.0,-1005.0,158.0
-3.0,-261.0,15.0,-36.0,67.0,-8.0,-29.0,-1007.0,159.0
0.0,-262.0,15.0,-38.0,67.0,-5.0,-22.0,-1008.0,155.0
-1.0,-263.0,17.0,-39.0,68.0,-8.0,-24.0,-1009.0,163.0
-4.0,-260.0,21.0,-38.0,68.0,-6.0,-31.0,-1012.0,157.0
0.0,-262.0,16.0,-38.0,69.0,-8.0,-29.0,-1011.0,154.0
-3.0,-261.0,19.0,-35.0,70.0,-6.0,-35.0,-1000.0,157.0
-7.0,-261.0,17.0,-34.0,69.0,-9.0,-30.0,-1010.0,152.0
-3.0,-259.0,17.0,-34.0,68.0,-6.0,-31.0,-1009.0,153.0
-5.0,-263.0,18.0,-33.0,69.0,-8.0,-31.0,-1010.0,159.0
-5.0,-261.0,14.0,-34.0,69.0,-7.0,-29.0,-1011.0,159.0
-3.0,-260.0,16.0,-33.0,69.0,-9.0,-31.0,-1010.0,157.0
-2.0,-265.0,17.0,-33.0,69.0,-8.0,-32.0,-1013.0,156.0
-3.0,-264.0,14.0,-35.0,70.0,-8.0,-30.0,-1007.0,158.0
-6.0,-260.0,15.0,-38.0,72.0,-9.0,-24.0,-1010.0,157.0
-6.0,-263.0,19.0,-40.0,70.0,-10.0,-27.0,-1012.0,161.0
-4.0,-260.0,19.0,-43.0,71.0,-9.0,-26.0,-1012.0,155.0
-2.0,-264.0,16.0,-43.0,71.0,-10.0,-27.0,-1009.0,157.0
-1.0,-262.0,17.0,-44.0,71.0,-9.0,-23.0,-1008.0,156.0
0.0,-258.0,19.0,-44.0,74.0,-7.0,-25.0,-1004.0,156.0
-2.0,-260.0,18.0,-46.0,74.0,-9.0,-25.0,-1012.0,162.0
-4.0,-261.0,17.0,-48.0,73.0,-9.0,-34.0,-1008.0,160.0
-4.0,-261.0,22.0,-48.0,74.0,-11.0,-29.0,-1009.0,158.0
-2.0,-263.0,14.0,-49.0,74.0,-10.0,-31.0,-1009.0,153.0
-2.0,-261.0,18.0,-48.0,76.0,-10.0,-30.0,-1012.0,155.0
-1.0,-262.0,15.0,-50.0,76.0,-10.0,-32.0,-1008.0,152.0
-4.0,-261.0,17.0,-52.0,77.0,-10.0,-27.0,-1008.0,150.0
-1.0,-262.0,16.0,-50.0,78.0,-9.0,-30.0,-1012.0,158.0
-3.0,-264.0,17.0,-48.0,78.0,-11.0,-27.0,-1008.0,152.0
0.0,-263.0,17.0,-49.0,80.0,-8.0,-29.0,-1008.0,150.0
-5.0,-264.0,19.0,-48.0,80.0,-9.0,-31.0,-1017.0,151.0
-2.0,-263.0,17.0,-45.0,79.0,-8.0,-27.0,-1015.0,147.0
-4.0,-263.0,13.0,-44.0,78.0,-11.0,-28.0,-1015.0,150.0
-3.0,-264.0,15.0,-42.0,78.0,-8.0,-28.0,-1019.0,144.0
-5.0,-264.0,15.0,-40.0,78.0,-10.0,-29.0,-1022.0,145.0
-6.0,-261.0,15.0,-34.0,80.0,-8.0,-30.0,-1015.0,149.0
-6.0,-262.0,14.0,-31.0,79.0,-8.0,-30.0,-1011.0,149.0
-5.0,-260.0,15.0,-30.0,79.0,-6.0,-38.0,-1012.0,153.0
-3.0,-262.0,18.0,-29.0,77.0,-7.0,-28.0,-1011.0,149.0
-4.0,-264.0,19.0,-26.0,74.0,-5.0,-35.0,-1010.0,145.0
-7.0,-261.0,15.0,-26.0,73.0,-8.0,-31.0,-1014.0,143.0
-6.0,-261.0,19.0,-27.0,72.0,-5.0,-37.0,-1015.0,145.0
-2.0,-262.0,20.0,-28.0,70.0,-7.0,-29.0,-1016.0,150.0
-4.0,-264.0,13.0,-28.0,70.0,-5.0,-28.0,-1014.0,147.0
-5.0,-264.0,14.0,-29.0,72.0,-9.0,-34.0,-1017.0,148.0
-2.0,-265.0,14.0,-30.0,72.0,-7.0,-31.0,-1016.0,147.0
-4.0,-263.0,17.0,-32.0,71.0,-9.0,-31.0,-1011.0,153.0
-4.0,-260.0,18.0,-34.0,69.0,-7.0,-29.0,-1012.0,157.0
-3.0,-260.0,17.0,-36.0,67.0,-10.0,-28.0,-1012.0,157.0
-6.0,-263.0,15.0,-38.0,67.0,-9.0,-29.0,-1009.0,155.0
-4.0,-262.0,16.0,-36.0,65.0,-11.0,-29.0,-1010.0,142.0
-3.0,-261.0,13.0,-33.0,65.0,-10.0,-29.0,-1005.0,149.0
-4.0,-263.0,13.0,-30.0,64.0,-11.0,-31.0,-1008.0,138.0
-3.0,-262.0,17.0,-26.0,65.0,-9.0,-29.0,-1008.0,139.0
-5.0,-262.0,13.0,-23.0,64.0,-10.0,-30.0,-1010.0,145.0
-3.0,-260.0,14.0,-17.0,64.0,-9.0,-32.0,-1011.0,137.0
-3.0,-263.0,16.0,-15.0,63.0,-10.0,-28.0,-1015.0,137.0
-6.0,-260.0,15.0,-10.0,64.0,-9.0,-32.0,-1013.0,141.0
-5.0,-259.0,15.0,-7.0,66.0,-10.0,-30.0,-1006.0,141.0
-5.0,-263.0,13.0,-8.0,65.0,-9.0,-35.0,-1007.0,152.0
-3.0,-262.0,15.0,-11.0,64.0,-9.0,-31.0,-1012.0,142.0
-4.0,-263.0,20.0,-12.0,64.0,-9.0,-31.0,-1006.0,153.0
-3.0,-263.0,15.0,-16.0,64.0,-9.0,-27.0,-1006.0,150.0
-6.0,-262.0,13.0,-19.0,63.0,-8.0,-29.0,-1007.0,149.0
-4.0,-258.0,20.0,-21.0,63.0,-9.0,-26.0,-1006.0,150.0
0.0,-263.0,16.0,-25.0,63.0,-11.0,-31.0,-1007.0,147.0
-4.0,-261.0,17.0,-27.0,64.0,-10.0,-29.0,-1006.0,142.0
-3.0,-260.0,14.0,-29.0,67.0,-10.0,-25.0,-1008.0,144.0
-4.0,-262.0,14.0,-29.0,67.0,-9.0,-26.0,-1010.0,147.0
-3.0,-261.0,16.0,-31.0,66.0,-8.0,-28.0,-1007.0,149.0
-4.0,-258.0,13.0,-32.0,66.0,-7.0,-31.0,-999.0,151.0
-3.0,-260.0,15.0,-34.0,66.0,-9.0,-27.0,-1006.0,148.0
-1.0,-258.0,15.0,-36.0,67.0,-6.0,-32.0,-1006.0,147.0
-5.0,-259.0,16.0,-41.0,68.0,-7.0,-32.0,-1003.0,149.0
-5.0,-259.0,17.0,-45.0,67.0,-4.0,-34.0,-1006.0,145.0
-3.0,-259.0,15.0,-51.0,66.0,-6.0,-39.0,-1006.0,151.0
-6.0,-259.0,14.0,-56.0,67.0,-4.0,-39.0,-1003.0,149.0
-3.0,-259.0,17.0,-61.0,65.0,-6.0,-30.0,-1003.0,152.0
-3.0,-259.0,17.0,-66.0,67.0,-4.0,-40.0,-1006.0,152.0
-3.0,-262.0,12.0,-69.0,68.0,-7.0,-37.0,-1007.0,151.0
-4.0,-261.0,17.0,-71.0,68.0,-7.0,-36.0,-1005.0,151.0
-6.0,-259.0,15.0,-71.0,68.0,-10.0,-34.0,-1005.0,145.0
-5.0,-260.0,14.0,-67.0,69.0,-7.0,-36.0,-1009.0,144.0
-5.0,-260.0,17.0,-66.0,70.0,-11.0,-34.0,-1007.0,145.0
-1.0,-265.0,14.0,-64.0,71.0,-9.0,-30.0,-1010.0,143.0
-4.0,-262.0,15.0,-62.0,71.0,-10.0,-29.0,-1014.0,141.0
-4.0,-261.0,15.0,-62.0,72.0,-8.0,-33.0,-1013.0,144.0
-1.0,-259.0,13.0,-58.0,72.0,-12.0,-28.0,-1014.0,147.0
-5.0,-262.0,13.0,-58.0,74.0,-10.0,-29.0,-1015.0,145.0
-1.0,-263.0,15.0,-59.0,73.0,-12.0,-23.0,-1012.0,146.0
-3.0,-263.0,16.0,-58.0,75.0,-9.0,-33.0,-1013.0,147.0
-4.0,-263.0,15.0,-61.0,73.0,-12.0,-30.0,-1010.0,147.0
-3.0,-265.0,13.0,-61.0,71.0,-8.0,-34.0,-1017.0,153.0
-2.0,-265.0,14.0,-60.0,71.0,-9.0,-28.0,-1024.0,139.0
-5.0,-261.0,17.0,-58.0,70.0,-6.0,-34.0,-1022.0,145.0
-6.0,-263.0,13.0,-56.0,70.0,-9.0,-31.0,-1023.0,136.0
-4.0,-267.0,14.0,-53.0,71.0,-6.0,-37.0,-1038.0,139.0
-7.0,-264.0,13.0,-52.0,69.0,-6.0,-37.0,-1031.0,144.0
-3.0,-266.0,13.0,-49.0,69.0,-4.0,-32.0,-1031.0,143.0
-3.0,-265.0,14.0,-46.0,69.0,-4.0,-34.0,-1025.0,147.0
-3.0,-261.0,13.0,-43.0,70.0,-3.0,-30.0,-1029.0,148.0
-7.0,-264.0,15.0,-40.0,70.0,-3.0,-29.0,-1015.0,145.0
-6.0,-260.0,13.0,-38.0,69.0,-2.0,-28.0,-1014.0,144.0
-5.0,-264.0,16.0,-34.0,68.0,-3.0,-30.0,-1017.0,138.0
-5.0,-262.0,12.0,-31.0,68.0,-4.0,-27.0,-1015.0,142.0
-5.0,-262.0,13.0,-31.0,67.0,-5.0,-26.0,-1013.0,140.0
-5.0,-262.0,12.0,-31.0,66.0,-6.0,-32.0,-1015.0,140.0
-1.0,-262.0,13.0,-34.0,66.0,-5.0,-30.0,-1010.0,142.0
-3.0,-263.0,15.0,-35.0,67.0,-5.0,-28.0,-1015.0,138.0
-1.0,-264.0,15.0,-36.0,65.0,-3.0,-33.0,-1014.0,140.0
-5.0,-263.0,17.0,-34.0,65.0,-3.0,-29.0,-1015.0,136.0
-3.0,-264.0,17.0,-32.0,67.0,-3.0,-39.0,-1015.0,137.0
-3.0,-262.0,14.0,-31.0,67.0,-5.0,-36.0,-1021.0,137.0
-3.0,-264.0,13.0,-30.0,68.0,-5.0,-37.0,-1015.0,138.0
-7.0,-259.0,15.0,-28.0,65.0,-5.0,-34.0,-1015.0,142.0
-4.0,-260.0,14.0,-26.0,64.0,-3.0,-32.0,-1009.0,138.0
-4.0,-263.0,15.0,-25.0,62.0,-5.0,-34.0,-1014.0,134.0
-3.0,-261.0,14.0,-24.0,61.0,-4.0,-33.0,-1011.0,130.0
-2.0,-262.0,13.0,-22.0,61.0,-5.0,-31.0,-1008.0,136.0
-5.0,-260.0,13.0,-22.0,62.0,-3.0,-27.0,-1010.0,132.0
-2.0,-260.0,13.0,-24.0,62.0,-6.0,-28.0,-1003.0,131.0
-2.0,-259.0,13.0,-26.0,59.0,-3.0,-27.0,-1007.0,135.0
-5.0,-264.0,12.0,-27.0,60.0,-4.0,-29.0,-1013.0,132.0
-3.0,-262.0,14.0,-29.0,60.0,-2.0,-25.0,-1012.0,133.0
-4.0,-263.0,9.0,-31.0,60.0,-6.0,-29.0,-1012.0,135.0
-4.0,-262.0,15.0,-33.0,61.0,-4.0,-28.0,-1010.0,137.0
-2.0,-264.0,12.0,-36.0,58.0,-6.0,-27.0,-1010.0,138.0
-6.0,-261.0,12.0,-37.0,57.0,-4.0,-28.0,-1011.0,140.0
-5.0,-260.0,17.0,-40.0,56.0,-4.0,-32.0,-1009.0,144.0
-5.0,-262.0,13.0,-43.0,57.0,-1.0,-30.0,-1014.0,137.0
-3.0,-262.0,16.0,-45.0,56.0,-5.0,-30.0,-1012.0,142.0
-7.0,-260.0,13.0,-45.0,54.0,-3.0,-32.0,-1010.0,141.0
-5.0,-263.0,14.0,-47.0,55.0,-4.0,-31.0,-1014.0,136.0
-6.0,-261.0,12.0,-46.0,53.0,-1.0,-33.0,-1009.0,132.0
-3.0,-261.0,14.0,-46.0,53.0,-1.0,-32.0,-1014.0,134.0
-4.0,-262.0,12.0,-44.0,53.0,-1.0,-30.0,-1010.0,130.0
-7.0,-261.0,12.0,-44.0,53.0,-2.0,-36.0,-1012.0,130.0
-3.0,-261.0,12.0,-42.0,53.0,0.0,-28.0,-1012.0,133.0
-2.0,-261.0,10.0,-42.0,53.0,-2.0,-28.0,-1009.0,137.0
-4.0,-263.0,12.0,-40.0,53.0,-1.0,-28.0,-1010.0,133.0
-5.0,-263.0,12.0,-38.0,53.0,-2.0,-28.0,-1015.0,130.0
-1.0,-266.0,12.0,-36.0,53.0,-2.0,-28.0,-1018.0,131.0
-4.0,-264.0,12.0,-33.0,52.0,-3.0,-24.0,-1016.0,129.0
-3.0,-262.0,17.0,-32.0,54.0,-4.0,-30.0,-1017.0,128.0
-1.0,-263.0,13.0,-27.0,54.0,-5.0,-25.0,-1016.0,130.0
-4.0,-267.0,11.0,-26.0,56.0,-4.0,-27.0,-1024.0,131.0
-2.0,-265.0,14.0,-25.0,57.0,-4.0,-27.0,-1030.0,129.0
-3.0,-266.0,13.0,-24.0,55.0,-6.0,-28.0,-1024.0,136.0
-2.0,-266.0,13.0,-20.0,56.0,-6.0,-27.0,-1029.0,137.0
-2.0,-264.0,13.0,-14.0,56.0,-7.0,-29.0,-1018.0,131.0
-1.0,-265.0,17.0,-14.0,59.0,-8.0,-28.0,-1017.0,135.0
-2.0,-260.0,13.0,-11.0,59.0,-7.0,-28.0,-1018.0,134.0
-4.0,-264.0,15.0,-9.0,59.0,-8.0,-29.0,-1017.0,136.0
-2.0,-263.0,12.0,-9.0,59.0,-9.0,-28.0,-1009.0,134.0
-5.0,-262.0,12.0,-7.0,60.0,-7.0,-31.0,-1017.0,132.0
-4.0,-264.0,13.0,-6.0,60.0,-8.0,-31.0,-1016.0,135.0
-2.0,-264.0,15.0,-7.0,60.0,-7.0,-32.0,-1012.0,131.0
-3.0,-261.0,13.0,-3.0,60.0,-7.0,-30.0,-1010.0,128.0
-2.0,-264.0,13.0,-1.0,59.0,-6.0,-30.0,-1014.0,129.0
-3.0,-263.0,11.0,-1.0,59.0,-7.0,-34.0,-1014.0,129.0
-6.0,-265.0,8.0,1.0,59.0,-6.0,-28.0,-1018.0,129.0
-3.0,-261.0,12.0,4.0,60.0,-7.0,-30.0,-1013.0,131.0
-3.0,-264.0,12.0,5.0,60.0,-4.0,-28.0,-1012.0,129.0
-2.0,-267.0,14.0,7.0,60.0,-6.0,-27.0,-1020.0,125.0
-3.0,-261.0,13.0,8.0,61.0,-3.0,-35.0,-1012.0,128.0
-5.0,-261.0,12.0,10.0,60.0,-7.0,-29.0,-1013.0,131.0
-4.0,-265.0,12.0,10.0,60.0,-5.0,-26.0,-1013.0,130.0
-3.0,-259.0,13.0,9.0,59.0,-8.0,-30.0,-1013.0,134.0
-3.0,-261.0,14.0,10.0,59.0,-6.0,-25.0,-1015.0,131.0
-1.0,-264.0,10.0,9.0,63.0,-9.0,-31.0,-1013.0,133.0
-3.0,-263.0,10.0,7.0,63.0,-6.0,-30.0,-1010.0,131.0
-4.0,-261.0,11.0,7.0,62.0,-8.0,-29.0,-1012.0,130.0
-4.0,-261.0,13.0,5.0,62.0,-7.0,-31.0,-1014.0,130.0
-1.0,-263.0,11.0,6.0,62.0,-8.0,-29.0,-1021.0,133.0
-2.0,-266.0,12.0,6.0,62.0,-7.0,-31.0,-1013.0,128.0
-5.0,-262.0,13.0,7.0,63.0,-8.0,-32.0,-1015.0,131.0
-4.0,-261.0,16.0,5.0,62.0,-6.0,-30.0,-1016.0,132.0
-3.0,-260.0,12.0,4.0,61.0,-8.0,-33.0,-1019.0,131.0
-3.0,-264.0,13.0,5.0,61.0,-5.0,-31.0,-1009.0,129.0
-4.0,-264.0,12.0,4.0,61.0,-7.0,-30.0,-1012.0,131.0
-4.0,-263.0,12.0,3.0,60.0,-6.0,-29.0,-1010.0,132.0
-3.0,-263.0,19.0,3.0,60.0,-8.0,-26.0,-1010.0,133.0
-2.0,-262.0,14.0,2.0,59.0,-7.0,-29.0,-1009.0,131.0
-3.0,-262.0,11.0,0.0,59.0,-7.0,-27.0,-1007.0,134.0
-4.0,-261.0,13.0,-4.0,58.0,-6.0,-29.0,-1012.0,130.0
-1.0,-261.0,13.0,-6.0,57.0,-6.0,-33.0,-1012.0,131.0
-2.0,-264.0,13.0,-7.0,57.0,-5.0,-32.0,-1024.0,132.0
-3.0,-263.0,13.0,-8.0,55.0,-7.0,-30.0,-1015.0,135.0
-6.0,-264.0,15.0,-7.0,55.0,-6.0,-33.0,-1030.0,132.0
-2.0,-263.0,14.0,-6.0,55.0,-7.0,-35.0,-1013.0,131.0
-6.0,-264.0,12.0,-3.0,54.0,-6.0,-32.0,-1018.0,133.0
-7.0,-262.0,12.0,-1.0,53.0,-5.0,-31.0,-1011.0,133.0
-5.0,-260.0,13.0,3.0,53.0,-5.0,-29.0,-1011.0,135.0
-4.0,-262.0,14.0,4.0,52.0,-6.0,-30.0,-1009.0,137.0
-4.0,-266.0,13.0,4.0,50.0,-5.0,-32.0,-1008.0,137.0
-4.0,-264.0,15.0,2.0,50.0,-3.0,-28.0,-1008.0,134.0
-3.0,-263.0,12.0,2.0,50.0,-4.0,-26.0,-1015.0,134.0
-1.0,-263.0,15.0,3.0,48.0,-3.0,-27.0,-1012.0,136.0
-3.0,-262.0,13.0,1.0,48.0,-4.0,-27.0,-1010.0,138.0
-1.0,-261.0,12.0,0.0,48.0,-3.0,-27.0,-1011.0,135.0
-4.0,-263.0,12.0,1.0,47.0,-4.0,-30.0,-1013.0,137.0
-4.0,-261.0,14.0,2.0,47.0,-2.0,-30.0,-1011.0,141.0
-4.0,-263.0,15.0,-2.0,46.0,-5.0,-29.0,-1006.0,139.0
-5.0,-263.0,16.0,-6.0,45.0,-3.0,-31.0,-1007.0,141.0
-3.0,-261.0,17.0,-9.0,44.0,-7.0,-31.0,-1006.0,142.0
-4.0,-260.0,13.0,-12.0,45.0,-5.0,-31.0,-1007.0,142.0
-1.0,-262.0,12.0,-13.0,45.0,-6.0,-20.0,-1010.0,143.0
-1.0,-262.0,13.0,-14.0,46.0,-5.0,-28.0,-1009.0,141.0
-2.0,-260.0,13.0,-15.0,46.0,-5.0,-24.0,-1007.0,135.0
-2.0,-260.0,14.0,-13.0,47.0,-5.0,-28.0,-1006.0,138.0
-3.0,-261.0,12.0,-11.0,48.0,-8.0,-30.0,-1014.0,136.0
-4.0,-262.0,15.0,-8.0,48.0,-6.0,-30.0,-1015.0,135.0
-3.0,-264.0,12.0,-4.0,49.0,-9.0,-29.0,-1012.0,134.0
-5.0,-263.0,11.0,0.0,51.0,-6.0,-28.0,-1016.0,135.0
-2.0,-263.0,16.0,1.0,49.0,-8.0,-29.0,-1017.0,132.0
-3.0,-262.0,13.0,5.0,53.0,-6.0,-28.0,-1023.0,137.0
-3.0,-263.0,13.0,6.0,52.0,-8.0,-31.0,-1017.0,138.0
-2.0,-262.0,13.0,6.0,53.0,-5.0,-24.0,-1024.0,140.0
-4.0,-265.0,16.0,6.0,55.0,-7.0,-30.0,-1014.0,141.0
-6.0,-261.0,14.0,6.0,55.0,-5.0,-30.0,-1012.0,134.0
-4.0,-263.0,14.0,5.0,56.0,-6.0,-36.0,-1011.0,140.0
-4.0,-264.0,16.0,5.0,58.0,-4.0,-29.0,-1011.0,137.0
-4.0,-260.0,12.0,6.0,55.0,-6.0,-27.0,-1010.0,138.0
-1.0,-265.0,12.0,7.0,56.0,-5.0,-30.0,-1012.0,137.0
-2.0,-262.0,14.0,7.0,56.0,-7.0,-29.0,-1011.0,139.0
-2.0,-264.0,13.0,6.0,56.0,-5.0,-32.0,-1010.0,141.0
-7.0,-261.0,13.0,6.0,57.0,-4.0,-35.0,-1013.0,143.0
-4.0,-261.0,13.0,5.0,58.0,-4.0,-28.0,-1012.0,141.0
-4.0,-263.0,13.0,6.0,56.0,-5.0,-29.0,-1013.0,146.0
-2.0,-263.0,16.0,6.0,57.0,-4.0,-24.0,-1014.0,143.0
-2.0,-261.0,14.0,4.0,55.0,-5.0,-22.0,-1014.0,144.0
-4.0,-263.0,16.0,3.0,56.0,-4.0,-26.0,-1014.0,141.0
-1.0,-264.0,15.0,3.0,57.0,-5.0,-28.0,-1015.0,148.0
-3.0,-265.0,13.0,4.0,58.0,-6.0,-33.0,-1012.0,142.0
-3.0,-263.0,12.0,5.0,58.0,-7.0,-34.0,-1010.0,142.0
-5.0,-264.0,13.0,6.0,59.0,-7.0,-30.0,-1011.0,142.0
-4.0,-263.0,17.0,8.0,57.0,-6.0,-32.0,-1014.0,137.0
-6.0,-262.0,14.0,8.0,58.0,-6.0,-31.0,-1004.0,142.0
-5.0,-263.0,13.0,10.0,58.0,-6.0,-31.0,-1012.0,140.0
-4.0,-265.0,14.0,10.0,55.0,-7.0,-30.0,-1012.0,142.0
-7.0,-261.0,14.0,11.0,55.0,-6.0,-32.0,-1011.0,143.0
-4.0,-262.0,14.0,13.0,53.0,-7.0,-38.0,-1012.0,150.0
-3.0,-261.0,17.0,14.0,52.0,-5.0,-35.0,-1014.0,144.0
-6.0,-262.0,15.0,15.0,51.0,-7.0,-29.0,-1011.0,142.0
-2.0,-263.0,16.0,16.0,50.0,-4.0,-33.0,-1012.0,151.0
-5.0,-261.0,14.0,15.0,50.0,-7.0,-32.0,-1007.0,150.0
-5.0,-259.0,18.0,15.0,48.0,-4.0,-29.0,-1004.0,155.0
-5.0,-261.0,17.0,13.0,47.0,-7.0,-37.0,-1007.0,149.0
-7.0,-260.0,21.0,10.0,45.0,-4.0,-33.0,-1007.0,150.0
-5.0,-262.0,14.0,7.0,45.0,-6.0,-37.0,-1007.0,149.0
-5.0,-261.0,15.0,6.0,43.0,-3.0,-35.0,-1008.0,150.0
-3.0,-262.0,16.0,6.0,43.0,-5.0,-37.0,-1012.0,147.0
-5.0,-260.0,15.0,6.0,40.0,-1.0,-39.0,-1009.0,145.0
-5.0,-262.0,19.0,6.0,39.0,-2.0,-34.0,-1008.0,151.0
-7.0,-262.0,18.0,4.0,40.0,-1.0,-29.0,-1011.0,155.0
-4.0,-263.0,15.0,2.0,38.0,-2.0,-35.0,-1007.0,151.0
3.0,-262.0,17.0,-1.0,39.0,1.0,-35.0,-1014.0,151.0
-3.0,-263.0,18.0,-1.0,39.0,0.0,-24.0,-1005.0,156.0
-5.0,-263.0,16.0,-2.0,36.0,2.0,-25.0,-1009.0,154.0
-4.0,-260.0,17.0,-4.0,35.0,-1.0,-19.0,-1006.0,152.0
-3.0,-261.0,13.0,-6.0,36.0,2.0,-28.0,-1005.0,150.0
-2.0,-262.0,14.0,-7.0,36.0,-1.0,-20.0,-1004.0,147.0
-2.0,-258.0,14.0,-5.0,37.0,2.0,-23.0,-1006.0,151.0
-3.0,-261.0,17.0,-6.0,38.0,0.0,-24.0,-1007.0,146.0
-4.0,-263.0,15.0,-5.0,39.0,1.0,-26.0,-1012.0,145.0
0.0,-262.0,15.0,-3.0,41.0,-1.0,-26.0,-1008.0,150.0
1.0,-262.0,13.0,-3.0,43.0,0.0,-27.0,-1012.0,148.0
-5.0,-262.0,16.0,-1.0,42.0,-1.0,-24.0,-1008.0,157.0
0.0,-263.0,16.0,-1.0,42.0,-2.0,-27.0,-1009.0,154.0
-4.0,-257.0,17.0,-1.0,42.0,-2.0,-25.0,-1004.0,154.0
-4.0,-262.0,14.0,0.0,41.0,-2.0,-29.0,-1010.0,157.0
-2.0,-260.0,16.0,0.0,43.0,-4.0,-27.0,-1006.0,153.0
-3.0,-261.0,17.0,1.0,44.0,-3.0,-24.0,-1008.0,153.0
-5.0,-263.0,15.0,1.0,44.0,-2.0,-27.0,-1008.0,151.0
-3.0,-263.0,18.0,2.0,45.0,-1.0,-30.0,-1008.0,154.0
-4.0,-263.0,18.0,2.0,46.0,-2.0,-31.0,-1006.0,154.0
-6.0,-263.0,17.0,1.0,47.0,-1.0,-32.0,-1002.0,148.0
-4.0,-261.0,20.0,0.0,47.0,-2.0,-31.0,-1000.0,154.0
-3.0,-262.0,18.0,0.0,48.0,-2.0,-30.0,-1003.0,147.0
-4.0,-259.0,14.0,0.0,47.0,-2.0,-30.0,-1002.0,150.0
-3.0,-259.0,19.0,-2.0,48.0,-2.0,-31.0,-1002.0,150.0
-3.0,-260.0,18.0,-4.0,48.0,-2.0,-28.0,-1006.0,150.0
-4.0,-261.0,19.0,-7.0,48.0,-4.0,-32.0,-1007.0,150.0
-4.0,-261.0,15.0,-10.0,48.0,-2.0,-23.0,-1010.0,151.0
-4.0,-261.0,17.0,-12.0,46.0,-5.0,-31.0,-1011.0,155.0
-4.0,-261.0,17.0,-15.0,47.0,-4.0,-32.0,-1010.0,156.0
-2.0,-263.0,21.0,-15.0,46.0,-4.0,-32.0,-1011.0,151.0
-2.0,-262.0,20.0,-16.0,47.0,-3.0,-28.0,-1012.0,154.0
-1.0,-264.0,14.0,-18.0,48.0,-4.0,-32.0,-1013.0,149.0
-2.0,-262.0,19.0,-18.0,46.0,-3.0,-31.0,-1013.0,152.0
-3.0,-265.0,14.0,-17.0,47.0,-4.0,-34.0,-1014.0,148.0
-6.0,-262.0,17.0,-15.0,48.0,-1.0,-30.0,-1013.0,145.0
-5.0,-261.0,17.0,-15.0,47.0,-2.0,-31.0,-1012.0,156.0
-4.0,-261.0,16.0,-14.0,47.0,0.0,-33.0,-1012.0,153.0
-5.0,-264.0,17.0,-14.0,47.0,-1.0,-31.0,-1017.0,148.0
-5.0,-262.0,19.0,-10.0,48.0,1.0,-30.0,-1013.0,152.0
-1.0,-261.0,16.0,-8.0,45.0,-2.0,-28.0,-1014.0,154.0
