acc1_x,acc1_y,acc1_z,gyro_x,gyro_y,gyro_z,acc2_x,acc2_y,acc2_z
0.0,-246.0,-34.0,-74.0,-7.0,50.0,-27.0,-1012.0,-122.0
-1.0,-248.0,-35.0,-79.0,-11.0,44.0,-22.0,-1021.0,-123.0
0.0,-254.0,-37.0,-75.0,-12.0,39.0,-19.0,-1032.0,-129.0
2.0,-253.0,-34.0,-66.0,-9.0,38.0,-7.0,-1042.0,-132.0
4.0,-254.0,-38.0,-51.0,-3.0,38.0,-4.0,-1048.0,-137.0
2.0,-251.0,-35.0,-33.0,7.0,39.0,-5.0,-1037.0,-136.0
1.0,-254.0,-34.0,-14.0,15.0,37.0,-5.0,-1032.0,-131.0
2.0,-249.0,-36.0,5.0,20.0,35.0,-2.0,-1020.0,-138.0
3.0,-250.0,-39.0,21.0,22.0,34.0,-2.0,-1018.0,-137.0
7.0,-249.0,-38.0,31.0,23.0,32.0,8.0,-1015.0,-131.0
10.0,-248.0,-32.0,34.0,24.0,29.0,22.0,-1012.0,-128.0
5.0,-252.0,-41.0,32.0,22.0,26.0,39.0,-1021.0,-134.0
16.0,-251.0,-43.0,27.0,23.0,18.0,44.0,-1032.0,-151.0
11.0,-250.0,-46.0,23.0,38.0,10.0,34.0,-1036.0,-170.0
8.0,-255.0,-48.0,38.0,74.0,14.0,8.0,-1029.0,-175.0
0.0,-253.0,-49.0,77.0,113.0,28.0,-14.0,-1020.0,-179.0
-4.0,-249.0,-44.0,121.0,135.0,47.0,-41.0,-1016.0,-166.0
-12.0,-241.0,-37.0,151.0,129.0,62.0,-62.0,-989.0,-138.0
-12.0,-239.0,-31.0,160.0,113.0,75.0,-63.0,-978.0,-122.0
-7.0,-234.0,-29.0,154.0,100.0,82.0,-42.0,-963.0,-108.0
1.0,-234.0,-31.0,138.0,93.0,75.0,-23.0,-957.0,-111.0
0.0,-231.0,-33.0,105.0,89.0,56.0,-8.0,-964.0,-113.0
4.0,-237.0,-38.0,63.0,81.0,26.0,-2.0,-979.0,-124.0
5.0,-242.0,-39.0,30.0,70.0,-3.0,12.0,-1000.0,-146.0
10.0,-246.0,-44.0,7.0,65.0,-24.0,20.0,-1008.0,-167.0
15.0,-252.0,-49.0,-6.0,68.0,-38.0,32.0,-1026.0,-177.0
13.0,-255.0,-51.0,-7.0,81.0,-42.0,39.0,-1050.0,-190.0
16.0,-254.0,-49.0,4.0,101.0,-41.0,40.0,-1048.0,-173.0
13.0,-255.0,-47.0,28.0,125.0,-37.0,40.0,-1044.0,-165.0
12.0,-251.0,-40.0,56.0,147.0,-28.0,25.0,-1032.0,-145.0
10.0,-252.0,-42.0,84.0,163.0,-21.0,19.0,-1014.0,-135.0
7.0,-244.0,-36.0,108.0,173.0,-14.0,7.0,-1002.0,-135.0
6.0,-240.0,-40.0,123.0,182.0,-8.0,5.0,-988.0,-140.0
7.0,-236.0,-37.0,133.0,188.0,-4.0,-4.0,-971.0,-139.0
3.0,-236.0,-38.0,136.0,196.0,-3.0,-5.0,-974.0,-149.0
1.0,-233.0,-43.0,129.0,206.0,-3.0,-13.0,-969.0,-156.0
2.0,-241.0,-44.0,115.0,213.0,-5.0,-22.0,-981.0,-158.0
0.0,-240.0,-45.0,99.0,216.0,-4.0,-29.0,-985.0,-149.0
-4.0,-244.0,-42.0,87.0,218.0,-2.0,-30.0,-996.0,-146.0
-6.0,-242.0,-37.0,77.0,222.0,3.0,-31.0,-1000.0,-141.0
-3.0,-246.0,-42.0,75.0,224.0,10.0,-31.0,-1010.0,-140.0
0.0,-248.0,-39.0,77.0,224.0,15.0,-21.0,-1020.0,-138.0
1.0,-248.0,-40.0,80.0,226.0,18.0,-15.0,-1020.0,-144.0
4.0,-249.0,-40.0,82.0,230.0,17.0,-10.0,-1021.0,-145.0
5.0,-250.0,-43.0,80.0,231.0,12.0,-2.0,-1016.0,-151.0
4.0,-250.0,-42.0,77.0,232.0,4.0,2.0,-1011.0,-159.0
1.0,-245.0,-44.0,72.0,234.0,-1.0,2.0,-1013.0,-161.0
6.0,-249.0,-41.0,66.0,238.0,-9.0,4.0,-1010.0,-159.0
4.0,-248.0,-45.0,62.0,242.0,-15.0,2.0,-1005.0,-157.0
4.0,-247.0,-43.0,59.0,246.0,-20.0,0.0,-1006.0,-157.0
1.0,-247.0,-43.0,58.0,250.0,-21.0,-8.0,-1011.0,-157.0
0.0,-245.0,-39.0,60.0,254.0,-19.0,-19.0,-1009.0,-166.0
-2.0,-246.0,-42.0,65.0,258.0,-13.0,-29.0,-1006.0,-157.0
-8.0,-242.0,-45.0,71.0,261.0,-4.0,-43.0,-1003.0,-150.0
-8.0,-247.0,-42.0,76.0,260.0,7.0,-42.0,-999.0,-154.0
-10.0,-241.0,-38.0,79.0,258.0,17.0,-48.0,-998.0,-166.0
-9.0,-244.0,-44.0,79.0,255.0,28.0,-50.0,-996.0,-165.0
-12.0,-242.0,-46.0,79.0,251.0,39.0,-59.0,-994.0,-163.0
-11.0,-236.0,-44.0,78.0,244.0,45.0,-57.0,-990.0,-165.0
-11.0,-240.0,-45.0,76.0,234.0,49.0,-62.0,-988.0,-165.0
-14.0,-237.0,-45.0,71.0,226.0,54.0,-57.0,-991.0,-162.0
-10.0,-240.0,-42.0,67.0,216.0,54.0,-55.0,-991.0,-164.0
-6.0,-245.0,-44.0,61.0,210.0,53.0,-50.0,-999.0,-160.0
-10.0,-248.0,-42.0,54.0,203.0,48.0,-48.0,-1006.0,-161.0
-9.0,-246.0,-44.0,45.0,199.0,42.0,-51.0,-1010.0,-152.0
-8.0,-248.0,-39.0,35.0,192.0,35.0,-52.0,-1011.0,-157.0
-8.0,-247.0,-39.0,27.0,184.0,28.0,-51.0,-1022.0,-152.0
-6.0,-250.0,-37.0,22.0,177.0,22.0,-47.0,-1021.0,-147.0
-6.0,-242.0,-40.0,21.0,171.0,19.0,-44.0,-1024.0,-155.0
-3.0,-251.0,-40.0,22.0,169.0,18.0,-44.0,-1022.0,-147.0
-6.0,-251.0,-42.0,25.0,169.0,17.0,-44.0,-1016.0,-153.0
-5.0,-249.0,-42.0,32.0,167.0,19.0,-38.0,-1015.0,-152.0
-3.0,-248.0,-43.0,40.0,165.0,23.0,-41.0,-1006.0,-160.0
-1.0,-243.0,-42.0,48.0,162.0,27.0,-42.0,-1003.0,-169.0
-4.0,-244.0,-45.0,54.0,157.0,31.0,-40.0,-994.0,-168.0
-2.0,-244.0,-45.0,60.0,152.0,35.0,-47.0,-994.0,-169.0
-4.0,-240.0,-47.0,64.0,148.0,38.0,-46.0,-989.0,-164.0
-3.0,-242.0,-46.0,62.0,143.0,40.0,-44.0,-989.0,-168.0
-8.0,-241.0,-45.0,58.0,136.0,40.0,-46.0,-985.0,-167.0
-8.0,-242.0,-44.0,52.0,129.0,38.0,-48.0,-989.0,-167.0
-9.0,-243.0,-46.0,42.0,123.0,35.0,-47.0,-991.0,-171.0
-8.0,-242.0,-47.0,32.0,116.0,32.0,-57.0,-995.0,-166.0
-10.0,-246.0,-45.0,23.0,110.0,30.0,-56.0,-1002.0,-162.0
-9.0,-242.0,-48.0,15.0,101.0,28.0,-58.0,-1004.0,-154.0
-10.0,-246.0,-40.0,9.0,94.0,25.0,-65.0,-1002.0,-160.0
-14.0,-245.0,-43.0,6.0,85.0,19.0,-64.0,-1008.0,-152.0
-13.0,-247.0,-45.0,5.0,77.0,18.0,-64.0,-1006.0,-159.0
-10.0,-246.0,-41.0,5.0,70.0,16.0,-62.0,-1003.0,-162.0
-8.0,-249.0,-45.0,6.0,67.0,13.0,-60.0,-1003.0,-164.0
-11.0,-243.0,-44.0,10.0,64.0,14.0,-62.0,-1003.0,-152.0
-11.0,-242.0,-37.0,11.0,61.0,12.0,-61.0,-998.0,-155.0
-12.0,-246.0,-41.0,13.0,58.0,11.0,-59.0,-997.0,-162.0
-8.0,-248.0,-45.0,8.0,53.0,8.0,-56.0,-1001.0,-151.0
-12.0,-242.0,-41.0,3.0,48.0,7.0,-53.0,-1004.0,-158.0
-8.0,-242.0,-43.0,-3.0,42.0,4.0,-50.0,-1001.0,-159.0
-5.0,-247.0,-42.0,-6.0,38.0,3.0,-55.0,-1008.0,-155.0
-6.0,-246.0,-43.0,-8.0,37.0,5.0,-46.0,-1013.0,-165.0
-5.0,-251.0,-45.0,-4.0,35.0,9.0,-43.0,-1019.0,-163.0
-5.0,-249.0,-48.0,2.0,36.0,14.0,-40.0,-1024.0,-167.0
-6.0,-250.0,-42.0,10.0,37.0,16.0,-35.0,-1020.0,-160.0
-6.0,-250.0,-43.0,18.0,36.0,17.0,-43.0,-1021.0,-152.0
-5.0,-248.0,-44.0,26.0,33.0,17.0,-38.0,-1017.0,-152.0
-7.0,-246.0,-43.0,34.0,30.0,17.0,-31.0,-1020.0,-150.0
-4.0,-249.0,-44.0,40.0,26.0,15.0,-35.0,-1019.0,-153.0
-4.0,-248.0,-38.0,48.0,25.0,13.0,-39.0,-1012.0,-156.0
-6.0,-245.0,-41.0,54.0,24.0,9.0,-38.0,-1010.0,-159.0
-4.0,-247.0,-42.0,59.0,23.0,7.0,-44.0,-1002.0,-153.0
-5.0,-245.0,-40.0,65.0,20.0,6.0,-50.0,-1004.0,-152.0
-9.0,-246.0,-38.0,71.0,18.0,5.0,-59.0,-1000.0,-144.0
-7.0,-243.0,-40.0,75.0,17.0,7.0,-59.0,-996.0,-149.0
-10.0,-245.0,-39.0,76.0,12.0,6.0,-59.0,-1001.0,-152.0
-1.0,-243.0,-38.0,74.0,7.0,4.0,-62.0,-1000.0,-145.0
-9.0,-245.0,-38.0,74.0,2.0,3.0,-63.0,-1003.0,-147.0
-12.0,-246.0,-37.0,74.0,-2.0,3.0,-61.0,-999.0,-143.0
-12.0,-244.0,-37.0,76.0,-5.0,5.0,-61.0,-1005.0,-136.0
-10.0,-247.0,-36.0,78.0,-11.0,3.0,-67.0,-1006.0,-137.0
-15.0,-245.0,-39.0,81.0,-16.0,3.0,-64.0,-1009.0,-136.0
-14.0,-245.0,-40.0,85.0,-21.0,0.0,-70.0,-1011.0,-139.0
-11.0,-246.0,-40.0,90.0,-25.0,1.0,-66.0,-1014.0,-135.0
-12.0,-248.0,-39.0,94.0,-33.0,0.0,-67.0,-1014.0,-144.0
-15.0,-248.0,-37.0,96.0,-40.0,1.0,-65.0,-1017.0,-142.0
-11.0,-251.0,-34.0,95.0,-44.0,1.0,-66.0,-1023.0,-142.0
-14.0,-248.0,-35.0,97.0,-49.0,1.0,-64.0,-1022.0,-143.0
-8.0,-253.0,-40.0,97.0,-55.0,1.0,-70.0,-1022.0,-138.0
-11.0,-250.0,-36.0,99.0,-62.0,-1.0,-62.0,-1026.0,-134.0
-13.0,-248.0,-39.0,101.0,-69.0,-2.0,-72.0,-1021.0,-135.0
-10.0,-248.0,-32.0,105.0,-77.0,-1.0,-62.0,-1021.0,-129.0
-9.0,-248.0,-36.0,109.0,-83.0,-3.0,-54.0,-1012.0,-129.0
-10.0,-246.0,-35.0,114.0,-88.0,-2.0,-58.0,-1009.0,-124.0
-7.0,-245.0,-35.0,117.0,-94.0,-4.0,-50.0,-1010.0,-127.0
-7.0,-245.0,-39.0,120.0,-99.0,-7.0,-46.0,-1001.0,-129.0
-6.0,-243.0,-38.0,118.0,-102.0,-9.0,-47.0,-997.0,-129.0
-6.0,-242.0,-34.0,113.0,-105.0,-9.0,-44.0,-998.0,-132.0
-5.0,-242.0,-33.0,106.0,-109.0,-9.0,-40.0,-995.0,-128.0
-5.0,-241.0,-32.0,98.0,-110.0,-11.0,-40.0,-996.0,-134.0
-6.0,-242.0,-36.0,92.0,-112.0,-11.0,-50.0,-1000.0,-136.0
-7.0,-245.0,-37.0,89.0,-112.0,-12.0,-45.0,-1002.0,-130.0
-7.0,-245.0,-37.0,84.0,-113.0,-12.0,-50.0,-1001.0,-129.0
-10.0,-244.0,-38.0,78.0,-112.0,-11.0,-51.0,-1005.0,-126.0
-9.0,-247.0,-33.0,74.0,-114.0,-11.0,-53.0,-1010.0,-134.0
-7.0,-246.0,-36.0,73.0,-117.0,-9.0,-48.0,-1012.0,-130.0
-7.0,-249.0,-38.0,79.0,-119.0,-9.0,-42.0,-1013.0,-138.0
-7.0,-244.0,-37.0,85.0,-116.0,-7.0,-43.0,-1011.0,-135.0
-5.0,-246.0,-36.0,89.0,-114.0,-6.0,-38.0,-1012.0,-134.0
-2.0,-245.0,-34.0,93.0,-111.0,-6.0,-37.0,-1012.0,-128.0
-5.0,-247.0,-33.0,95.0,-110.0,-5.0,-32.0,-1014.0,-131.0
-1.0,-249.0,-37.0,95.0,-109.0,-6.0,-32.0,-1016.0,-125.0
-3.0,-245.0,-38.0,94.0,-108.0,-8.0,-34.0,-1012.0,-128.0
2.0,-248.0,-33.0,95.0,-105.0,-8.0,-31.0,-1012.0,-126.0
-3.0,-248.0,-34.0,97.0,-101.0,-10.0,-28.0,-1013.0,-129.0
0.0,-245.0,-36.0,100.0,-97.0,-13.0,-28.0,-1009.0,-122.0
0.0,-244.0,-31.0,99.0,-96.0,-13.0,-27.0,-1006.0,-123.0
1.0,-246.0,-35.0,100.0,-93.0,-13.0,-21.0,-1005.0,-127.0
0.0,-244.0,-34.0,98.0,-87.0,-12.0,-20.0,-1006.0,-127.0
-1.0,-246.0,-37.0,97.0,-83.0,-12.0,-20.0,-1005.0,-132.0
0.0,-245.0,-37.0,94.0,-80.0,-13.0,-17.0,-1003.0,-127.0
0.0,-243.0,-37.0,94.0,-75.0,-13.0,-18.0,-1007.0,-134.0
0.0,-247.0,-36.0,95.0,-68.0,-14.0,-14.0,-1005.0,-133.0
1.0,-245.0,-38.0,95.0,-60.0,-11.0,-16.0,-1002.0,-132.0
0.0,-247.0,-40.0,96.0,-51.0,-11.0,-15.0,-1004.0,-138.0
1.0,-246.0,-34.0,97.0,-46.0,-12.0,-15.0,-1011.0,-131.0
0.0,-246.0,-33.0,97.0,-41.0,-12.0,-14.0,-1008.0,-138.0
1.0,-249.0,-39.0,98.0,-35.0,-13.0,-20.0,-1016.0,-129.0
2.0,-246.0,-37.0,99.0,-27.0,-13.0,-14.0,-1006.0,-137.0
6.0,-235.0,-37.0,100.0,-21.0,-14.0,-13.0,-1003.0,-135.0
1.0,-248.0,-38.0,101.0,-16.0,-16.0,-18.0,-1005.0,-133.0
0.0,-244.0,-38.0,101.0,-12.0,-17.0,-7.0,-1012.0,-132.0
1.0,-243.0,-40.0,102.0,-8.0,-16.0,-13.0,-1008.0,-137.0
1.0,-243.0,-37.0,104.0,-4.0,-18.0,-7.0,-1005.0,-144.0
1.0,-245.0,-40.0,105.0,-1.0,-18.0,-12.0,-1003.0,-137.0
2.0,-244.0,-39.0,108.0,4.0,-18.0,-10.0,-1007.0,-145.0
1.0,-248.0,-42.0,109.0,10.0,-15.0,-16.0,-1003.0,-145.0
0.0,-248.0,-41.0,111.0,14.0,-15.0,-10.0,-1006.0,-143.0
1.0,-246.0,-41.0,116.0,17.0,-14.0,-11.0,-1011.0,-139.0
1.0,-247.0,-36.0,120.0,20.0,-13.0,-11.0,-1007.0,-142.0
1.0,-244.0,-41.0,125.0,21.0,-9.0,-9.0,-1001.0,-142.0
3.0,-246.0,-38.0,128.0,26.0,-9.0,-7.0,-1004.0,-141.0
1.0,-246.0,-37.0,134.0,27.0,-8.0,-4.0,-999.0,-136.0
2.0,-244.0,-39.0,138.0,27.0,-6.0,-4.0,-998.0,-138.0
5.0,-241.0,-41.0,141.0,26.0,-2.0,-13.0,-994.0,-137.0
3.0,-238.0,-38.0,145.0,25.0,-2.0,-6.0,-992.0,-140.0
0.0,-241.0,-38.0,149.0,23.0,-4.0,-9.0,-990.0,-136.0
2.0,-241.0,-38.0,152.0,24.0,-5.0,-18.0,-984.0,-142.0
0.0,-244.0,-37.0,158.0,24.0,-6.0,-23.0,-982.0,-138.0
-1.0,-240.0,-39.0,165.0,24.0,-6.0,-35.0,-990.0,-141.0
-1.0,-243.0,-41.0,169.0,25.0,-6.0,-33.0,-982.0,-144.0
-3.0,-240.0,-38.0,171.0,28.0,-4.0,-40.0,-994.0,-140.0
-4.0,-240.0,-33.0,171.0,32.0,-1.0,-41.0,-994.0,-141.0
-6.0,-243.0,-38.0,167.0,35.0,2.0,-40.0,-1002.0,-135.0
-6.0,-245.0,-37.0,162.0,35.0,4.0,-45.0,-1006.0,-131.0
-5.0,-248.0,-36.0,157.0,34.0,6.0,-38.0,-1013.0,-134.0
-5.0,-250.0,-35.0,154.0,32.0,6.0,-43.0,-1029.0,-135.0
-6.0,-255.0,-34.0,155.0,29.0,4.0,-43.0,-1031.0,-125.0
-6.0,-254.0,-37.0,159.0,25.0,0.0,-35.0,-1034.0,-129.0
-6.0,-251.0,-35.0,165.0,22.0,-2.0,-35.0,-1033.0,-116.0
-5.0,-253.0,-32.0,173.0,23.0,-3.0,-36.0,-1039.0,-118.0
-3.0,-251.0,-33.0,183.0,26.0,-3.0,-36.0,-1032.0,-115.0
-6.0,-248.0,-31.0,190.0,28.0,-4.0,-38.0,-1027.0,-115.0
-3.0,-251.0,-32.0,196.0,31.0,-2.0,-43.0,-1023.0,-116.0
-4.0,-249.0,-32.0,200.0,29.0,0.0,-44.0,-1024.0,-119.0
-10.0,-247.0,-31.0,204.0,28.0,1.0,-52.0,-1024.0,-113.0
-14.0,-248.0,-34.0,209.0,22.0,0.0,-63.0,-1015.0,-117.0
-11.0,-247.0,-33.0,211.0,16.0,1.0,-63.0,-1010.0,-120.0
-10.0,-247.0,-32.0,209.0,12.0,4.0,-66.0,-1010.0,-124.0
-7.0,-245.0,-35.0,201.0,8.0,5.0,-61.0,-1009.0,-123.0
-12.0,-248.0,-34.0,193.0,10.0,5.0,-61.0,-1018.0,-122.0
-11.0,-247.0,-30.0,189.0,12.0,5.0,-63.0,-1021.0,-114.0
-15.0,-251.0,-30.0,188.0,13.0,3.0,-63.0,-1025.0,-104.0
-11.0,-249.0,-26.0,188.0,8.0,-2.0,-66.0,-1033.0,-98.0
-10.0,-251.0,-28.0,193.0,5.0,-6.0,-67.0,-1022.0,-92.0
-12.0,-249.0,-24.0,197.0,5.0,-10.0,-69.0,-1031.0,-87.0
-11.0,-247.0,-24.0,198.0,8.0,-11.0,-74.0,-1022.0,-90.0
-12.0,-249.0,-23.0,197.0,8.0,-12.0,-77.0,-1020.0,-85.0
-13.0,-245.0,-27.0,190.0,9.0,-10.0,-72.0,-1017.0,-85.0
-14.0,-248.0,-28.0,183.0,6.0,-7.0,-68.0,-1016.0,-89.0
-11.0,-248.0,-25.0,174.0,5.0,-3.0,-63.0,-1015.0,-94.0
-12.0,-248.0,-24.0,164.0,6.0,3.0,-57.0,-1022.0,-94.0
-8.0,-250.0,-29.0,156.0,12.0,9.0,-54.0,-1018.0,-96.0
-6.0,-248.0,-24.0,151.0,20.0,14.0,-49.0,-1029.0,-99.0
-5.0,-252.0,-27.0,146.0,28.0,16.0,-46.0,-1022.0,-103.0
-1.0,-251.0,-25.0,140.0,39.0,16.0,-41.0,-1027.0,-93.0
-4.0,-247.0,-26.0,138.0,49.0,15.0,-35.0,-1020.0,-91.0
-1.0,-250.0,-25.0,136.0,59.0,17.0,-30.0,-1027.0,-86.0
0.0,-248.0,-21.0,134.0,70.0,18.0,-27.0,-1019.0,-84.0
-1.0,-245.0,-18.0,132.0,81.0,19.0,-28.0,-1008.0,-75.0
0.0,-246.0,-23.0,130.0,92.0,18.0,-28.0,-1007.0,-74.0
-1.0,-246.0,-23.0,127.0,103.0,18.0,-26.0,-1004.0,-79.0
-3.0,-243.0,-25.0,120.0,114.0,18.0,-31.0,-1005.0,-78.0
0.0,-244.0,-24.0,113.0,122.0,16.0,-26.0,-996.0,-82.0
0.0,-243.0,-22.0,103.0,130.0,15.0,-25.0,-997.0,-88.0
-3.0,-242.0,-21.0,92.0,140.0,18.0,-30.0,-994.0,-92.0
-4.0,-241.0,-23.0,79.0,152.0,17.0,-31.0,-995.0,-95.0
-1.0,-244.0,-26.0,61.0,160.0,20.0,-34.0,-996.0,-91.0
-7.0,-240.0,-27.0,42.0,171.0,24.0,-32.0,-997.0,-94.0
-5.0,-242.0,-26.0,28.0,182.0,26.0,-37.0,-1001.0,-90.0
-3.0,-244.0,-23.0,17.0,193.0,30.0,-40.0,-1004.0,-90.0
-3.0,-247.0,-23.0,7.0,204.0,33.0,-39.0,-1001.0,-84.0
-5.0,-243.0,-22.0,1.0,215.0,31.0,-49.0,-1011.0,-85.0
-5.0,-251.0,-24.0,-2.0,226.0,29.0,-47.0,-1008.0,-79.0
-8.0,-246.0,-20.0,-2.0,236.0,27.0,-55.0,-1008.0,-80.0
-10.0,-244.0,-22.0,-1.0,247.0,24.0,-56.0,-1004.0,-84.0
-8.0,-241.0,-23.0,1.0,255.0,16.0,-55.0,-998.0,-87.0
-9.0,-244.0,-19.0,1.0,263.0,13.0,-52.0,-998.0,-80.0
-9.0,-240.0,-16.0,0.0,270.0,9.0,-61.0,-999.0,-76.0
-14.0,-245.0,-24.0,-1.0,281.0,4.0,-68.0,-994.0,-76.0
-11.0,-243.0,-23.0,-5.0,293.0,-4.0,-69.0,-991.0,-80.0
-12.0,-238.0,-20.0,-11.0,304.0,-9.0,-71.0,-993.0,-80.0
-12.0,-243.0,-19.0,-21.0,312.0,-15.0,-69.0,-992.0,-75.0
-13.0,-241.0,-22.0,-31.0,321.0,-20.0,-78.0,-990.0,-76.0
-18.0,-242.0,-24.0,-42.0,332.0,-25.0,-85.0,-992.0,-84.0
-18.0,-242.0,-25.0,-49.0,345.0,-29.0,-92.0,-993.0,-93.0
-17.0,-240.0,-23.0,-53.0,353.0,-32.0,-87.0,-994.0,-96.0
-15.0,-244.0,-28.0,-58.0,360.0,-35.0,-88.0,-1000.0,-100.0
-15.0,-242.0,-28.0,-59.0,367.0,-35.0,-86.0,-1003.0,-107.0
-15.0,-244.0,-25.0,-64.0,374.0,-36.0,-81.0,-1002.0,-106.0
-15.0,-245.0,-31.0,-68.0,379.0,-36.0,-74.0,-1009.0,-103.0
-14.0,-248.0,-26.0,-72.0,384.0,-37.0,-71.0,-1017.0,-106.0
-10.0,-251.0,-29.0,-73.0,391.0,-37.0,-70.0,-1015.0,-101.0
-13.0,-250.0,-27.0,-74.0,397.0,-39.0,-66.0,-1019.0,-102.0
-15.0,-250.0,-29.0,-72.0,403.0,-41.0,-65.0,-1024.0,-104.0
-12.0,-252.0,-30.0,-66.0,411.0,-43.0,-80.0,-1022.0,-105.0
-15.0,-253.0,-29.0,-58.0,418.0,-42.0,-82.0,-1022.0,-106.0
-13.0,-251.0,-30.0,-45.0,421.0,-40.0,-82.0,-1023.0,-110.0
-17.0,-247.0,-33.0,-34.0,423.0,-40.0,-91.0,-1020.0,-118.0
-20.0,-246.0,-33.0,-23.0,427.0,-40.0,-97.0,-1016.0,-117.0
-18.0,-246.0,-32.0,-16.0,430.0,-40.0,-91.0,-1006.0,-120.0
-22.0,-241.0,-36.0,-11.0,432.0,-42.0,-103.0,-998.0,-124.0
-22.0,-242.0,-32.0,-10.0,433.0,-43.0,-100.0,-995.0,-124.0
-22.0,-240.0,-31.0,-16.0,434.0,-42.0,-101.0,-992.0,-124.0
-18.0,-242.0,-33.0,-25.0,432.0,-42.0,-99.0,-990.0,-121.0
-16.0,-245.0,-34.0,-35.0,436.0,-46.0,-89.0,-997.0,-126.0
-14.0,-245.0,-32.0,-40.0,441.0,-49.0,-89.0,-1001.0,-122.0
-20.0,-243.0,-31.0,-44.0,445.0,-55.0,-92.0,-1005.0,-121.0
-20.0,-245.0,-33.0,-42.0,451.0,-63.0,-97.0,-1004.0,-115.0
-16.0,-243.0,-32.0,-40.0,454.0,-69.0,-87.0,-998.0,-121.0
-14.0,-244.0,-32.0,-40.0,455.0,-77.0,-90.0,-998.0,-116.0
-18.0,-241.0,-29.0,-40.0,460.0,-85.0,-96.0,-991.0,-115.0
-21.0,-239.0,-32.0,-40.0,466.0,-95.0,-102.0,-995.0,-115.0
-23.0,-241.0,-33.0,-42.0,469.0,-104.0,-111.0,-992.0,-122.0
-21.0,-244.0,-31.0,-43.0,470.0,-110.0,-113.0,-994.0,-123.0
-21.0,-239.0,-35.0,-43.0,467.0,-115.0,-107.0,-992.0,-125.0
-19.0,-242.0,-37.0,-44.0,467.0,-118.0,-100.0,-994.0,-133.0
-20.0,-241.0,-36.0,-46.0,469.0,-120.0,-93.0,-998.0,-136.0
-19.0,-243.0,-40.0,-48.0,470.0,-119.0,-90.0,-1003.0,-135.0
-20.0,-246.0,-38.0,-48.0,469.0,-121.0,-91.0,-1019.0,-138.0
-16.0,-250.0,-37.0,-43.0,466.0,-121.0,-86.0,-1023.0,-139.0
-17.0,-248.0,-40.0,-35.0,461.0,-125.0,-86.0,-1020.0,-138.0
-17.0,-250.0,-37.0,-22.0,459.0,-127.0,-89.0,-1022.0,-137.0
-19.0,-250.0,-40.0,-11.0,458.0,-128.0,-94.0,-1020.0,-142.0
-19.0,-248.0,-41.0,-3.0,454.0,-134.0,-93.0,-1011.0,-147.0
-21.0,-247.0,-40.0,2.0,450.0,-137.0,-99.0,-1005.0,-150.0
-23.0,-245.0,-37.0,1.0,445.0,-141.0,-98.0,-1013.0,-154.0
-21.0,-244.0,-42.0,-4.0,438.0,-142.0,-109.0,-1009.0,-152.0
-21.0,-244.0,-40.0,-13.0,432.0,-141.0,-93.0,-1013.0,-157.0
-19.0,-250.0,-37.0,-21.0,427.0,-139.0,-93.0,-1020.0,-150.0
-21.0,-246.0,-42.0,-26.0,421.0,-133.0,-92.0,-1021.0,-150.0
-16.0,-254.0,-42.0,-22.0,420.0,-129.0,-94.0,-1022.0,-154.0
-21.0,-247.0,-46.0,-18.0,421.0,-124.0,-92.0,-1029.0,-167.0
-16.0,-253.0,-46.0,-12.0,418.0,-120.0,-97.0,-1027.0,-170.0
-20.0,-249.0,-46.0,-9.0,415.0,-117.0,-98.0,-1023.0,-176.0
-21.0,-247.0,-46.0,-3.0,409.0,-111.0,-96.0,-1020.0,-177.0
-17.0,-246.0,-49.0,3.0,408.0,-106.0,-94.0,-1013.0,-184.0
-18.0,-247.0,-50.0,9.0,403.0,-101.0,-90.0,-1021.0,-188.0
-21.0,-246.0,-54.0,13.0,402.0,-91.0,-95.0,-1019.0,-210.0
-19.0,-242.0,-60.0,6.0,400.0,-83.0,-93.0,-1008.0,-202.0
-17.0,-248.0,-50.0,-2.0,402.0,-57.0,-84.0,-1018.0,-200.0
-12.0,-251.0,-53.0,-12.0,405.0,-31.0,-70.0,-1023.0,-199.0
-9.0,-250.0,-52.0,-26.0,408.0,-3.0,-60.0,-1039.0,-201.0
-4.0,-256.0,-55.0,-41.0,410.0,25.0,-42.0,-1053.0,-198.0
-4.0,-258.0,-48.0,-55.0,413.0,58.0,-32.0,-1070.0,-183.0
2.0,-266.0,-42.0,-58.0,420.0,85.0,-18.0,-1084.0,-171.0
3.0,-266.0,-46.0,-43.0,431.0,113.0,-2.0,-1094.0,-161.0
11.0,-266.0,-38.0,-14.0,442.0,133.0,15.0,-1094.0,-142.0
15.0,-264.0,-33.0,24.0,457.0,150.0,31.0,-1074.0,-141.0
18.0,-259.0,-36.0,65.0,470.0,164.0,48.0,-1060.0,-131.0
22.0,-253.0,-35.0,99.0,487.0,172.0,58.0,-1038.0,-131.0
24.0,-245.0,-37.0,126.0,504.0,175.0,73.0,-1007.0,-130.0
26.0,-241.0,-36.0,141.0,522.0,171.0,78.0,-988.0,-134.0
25.0,-235.0,-39.0,142.0,541.0,164.0,75.0,-961.0,-136.0
24.0,-230.0,-36.0,135.0,554.0,152.0,73.0,-947.0,-138.0
23.0,-226.0,-39.0,121.0,561.0,140.0,72.0,-932.0,-141.0
23.0,-223.0,-39.0,106.0,563.0,124.0,60.0,-927.0,-151.0
22.0,-224.0,-43.0,88.0,561.0,112.0,63.0,-921.0,-160.0
22.0,-223.0,-43.0,70.0,561.0,104.0,65.0,-928.0,-168.0
19.0,-222.0,-43.0,48.0,567.0,101.0,59.0,-934.0,-161.0
19.0,-227.0,-40.0,23.0,579.0,99.0,58.0,-940.0,-158.0
17.0,-231.0,-41.0,-4.0,594.0,101.0,48.0,-951.0,-146.0
12.0,-233.0,-40.0,-30.0,604.0,98.0,30.0,-959.0,-143.0
7.0,-239.0,-37.0,-53.0,606.0,99.0,12.0,-977.0,-146.0
3.0,-241.0,-39.0,-74.0,602.0,97.0,-2.0,-992.0,-149.0
0.0,-245.0,-38.0,-88.0,597.0,99.0,-12.0,-1012.0,-145.0
-1.0,-251.0,-36.0,-95.0,594.0,100.0,-23.0,-1014.0,-140.0
0.0,-255.0,-37.0,-94.0,594.0,103.0,-23.0,-1043.0,-128.0
-7.0,-254.0,-35.0,-89.0,591.0,105.0,-39.0,-1054.0,-119.0
-6.0,-259.0,-29.0,-82.0,581.0,108.0,-47.0,-1058.0,-116.0
-5.0,-257.0,-34.0,-72.0,565.0,109.0,-45.0,-1063.0,-108.0
-5.0,-260.0,-30.0,-59.0,548.0,108.0,-38.0,-1059.0,-104.0
0.0,-258.0,-30.0,-41.0,529.0,109.0,-36.0,-1061.0,-108.0
-6.0,-253.0,-32.0,-21.0,511.0,106.0,-21.0,-1056.0,-109.0
0.0,-255.0,-32.0,-1.0,494.0,103.0,-17.0,-1038.0,-115.0
2.0,-253.0,-31.0,19.0,476.0,100.0,-1.0,-1030.0,-114.0
9.0,-251.0,-32.0,38.0,457.0,94.0,11.0,-1024.0,-114.0
11.0,-248.0,-31.0,55.0,438.0,86.0,31.0,-1012.0,-122.0
15.0,-245.0,-32.0,66.0,426.0,77.0,41.0,-1009.0,-126.0
19.0,-244.0,-33.0,73.0,419.0,71.0,52.0,-1004.0,-122.0
22.0,-245.0,-34.0,77.0,415.0,64.0,64.0,-997.0,-125.0
22.0,-244.0,-37.0,82.0,411.0,54.0,66.0,-998.0,-125.0
27.0,-239.0,-32.0,81.0,404.0,41.0,73.0,-1000.0,-123.0
26.0,-244.0,-33.0,78.0,394.0,32.0,83.0,-1002.0,-123.0
31.0,-248.0,-33.0,71.0,382.0,20.0,93.0,-1008.0,-121.0
32.0,-250.0,-33.0,64.0,372.0,7.0,98.0,-1013.0,-119.0
33.0,-251.0,-27.0,61.0,369.0,-2.0,99.0,-1026.0,-111.0
31.0,-253.0,-31.0,59.0,369.0,-12.0,97.0,-1030.0,-102.0
27.0,-254.0,-30.0,62.0,368.0,-18.0,99.0,-1042.0,-99.0
30.0,-255.0,-28.0,66.0,362.0,-24.0,97.0,-1047.0,-96.0
29.0,-257.0,-24.0,75.0,359.0,-31.0,91.0,-1053.0,-95.0
28.0,-256.0,-30.0,92.0,361.0,-36.0,93.0,-1052.0,-91.0
35.0,-249.0,-22.0,109.0,363.0,-43.0,88.0,-1045.0,-94.0
28.0,-251.0,-28.0,121.0,359.0,-47.0,90.0,-1036.0,-88.0
29.0,-254.0,-26.0,128.0,350.0,-49.0,92.0,-1036.0,-89.0
32.0,-252.0,-24.0,133.0,346.0,-52.0,90.0,-1033.0,-95.0
33.0,-252.0,-25.0,142.0,346.0,-57.0,88.0,-1021.0,-91.0
27.0,-247.0,-26.0,149.0,348.0,-62.0,84.0,-1017.0,-88.0
27.0,-249.0,-23.0,155.0,346.0,-62.0,81.0,-1018.0,-95.0
26.0,-248.0,-22.0,158.0,342.0,-65.0,89.0,-1014.0,-92.0
27.0,-249.0,-23.0,156.0,345.0,-65.0,93.0,-1017.0,-89.0
29.0,-246.0,-22.0,154.0,351.0,-66.0,89.0,-1014.0,-81.0
29.0,-247.0,-23.0,152.0,354.0,-69.0,87.0,-1018.0,-80.0
28.0,-249.0,-22.0,147.0,353.0,-76.0,89.0,-1012.0,-73.0
28.0,-247.0,-22.0,144.0,348.0,-78.0,91.0,-1012.0,-79.0
29.0,-247.0,-24.0,140.0,347.0,-81.0,83.0,-1012.0,-73.0
31.0,-249.0,-20.0,140.0,348.0,-84.0,89.0,-1015.0,-79.0
27.0,-244.0,-23.0,143.0,349.0,-82.0,86.0,-1019.0,-80.0
28.0,-247.0,-22.0,146.0,352.0,-79.0,85.0,-1013.0,-91.0
26.0,-244.0,-24.0,150.0,353.0,-76.0,77.0,-1010.0,-86.0
25.0,-246.0,-22.0,145.0,353.0,-69.0,82.0,-1015.0,-90.0
25.0,-250.0,-20.0,135.0,348.0,-67.0,76.0,-1016.0,-82.0
23.0,-249.0,-21.0,123.0,338.0,-69.0,74.0,-1017.0,-81.0
24.0,-249.0,-19.0,115.0,332.0,-65.0,69.0,-1020.0,-72.0
21.0,-248.0,-19.0,113.0,326.0,-61.0,75.0,-1020.0,-74.0
24.0,-251.0,-18.0,115.0,322.0,-57.0,72.0,-1018.0,-75.0
24.0,-248.0,-24.0,122.0,320.0,-55.0,74.0,-1017.0,-81.0
26.0,-248.0,-22.0,126.0,318.0,-52.0,71.0,-1013.0,-79.0
24.0,-247.0,-20.0,130.0,319.0,-51.0,72.0,-1008.0,-78.0
20.0,-246.0,-23.0,130.0,318.0,-53.0,63.0,-1006.0,-85.0
17.0,-247.0,-23.0,128.0,310.0,-58.0,59.0,-1006.0,-87.0
18.0,-246.0,-22.0,122.0,302.0,-60.0,55.0,-1001.0,-93.0
18.0,-241.0,-22.0,118.0,294.0,-61.0,50.0,-1001.0,-85.0
15.0,-245.0,-26.0,113.0,288.0,-62.0,52.0,-1000.0,-76.0
18.0,-244.0,-19.0,109.0,282.0,-61.0,45.0,-1002.0,-76.0
18.0,-243.0,-22.0,106.0,275.0,-57.0,43.0,-999.0,-79.0
19.0,-242.0,-21.0,107.0,271.0,-53.0,53.0,-996.0,-80.0
19.0,-244.0,-23.0,109.0,269.0,-48.0,53.0,-995.0,-82.0
17.0,-242.0,-21.0,109.0,266.0,-44.0,60.0,-996.0,-77.0
20.0,-241.0,-21.0,107.0,266.0,-42.0,54.0,-993.0,-83.0
19.0,-238.0,-18.0,101.0,263.0,-39.0,52.0,-994.0,-75.0
17.0,-240.0,-20.0,96.0,258.0,-38.0,55.0,-990.0,-76.0
17.0,-240.0,-24.0,87.0,251.0,-37.0,52.0,-989.0,-82.0
16.0,-244.0,-22.0,80.0,244.0,-33.0,47.0,-996.0,-83.0
11.0,-243.0,-23.0,76.0,238.0,-30.0,40.0,-998.0,-80.0
19.0,-243.0,-26.0,73.0,233.0,-27.0,44.0,-1001.0,-85.0
17.0,-249.0,-23.0,76.0,227.0,-24.0,37.0,-998.0,-80.0
12.0,-247.0,-21.0,79.0,221.0,-18.0,38.0,-1002.0,-79.0
16.0,-246.0,-26.0,82.0,216.0,-11.0,39.0,-1007.0,-82.0
15.0,-246.0,-22.0,85.0,212.0,-6.0,39.0,-1005.0,-79.0
17.0,-247.0,-17.0,87.0,207.0,-3.0,43.0,-1008.0,-73.0
16.0,-249.0,-21.0,88.0,199.0,1.0,42.0,-1008.0,-79.0
16.0,-244.0,-22.0,90.0,190.0,6.0,45.0,-1005.0,-77.0
19.0,-250.0,-25.0,92.0,183.0,9.0,55.0,-1006.0,-77.0
15.0,-244.0,-23.0,95.0,177.0,10.0,49.0,-1004.0,-81.0
19.0,-243.0,-22.0,98.0,176.0,12.0,52.0,-1002.0,-81.0
18.0,-247.0,-22.0,99.0,174.0,16.0,55.0,-1002.0,-84.0
18.0,-246.0,-23.0,97.0,174.0,20.0,57.0,-1005.0,-80.0
18.0,-244.0,-23.0,93.0,173.0,20.0,53.0,-1005.0,-82.0
20.0,-243.0,-23.0,86.0,173.0,22.0,49.0,-1005.0,-76.0
18.0,-245.0,-20.0,77.0,172.0,23.0,54.0,-1009.0,-72.0
19.0,-248.0,-20.0,70.0,169.0,23.0,57.0,-1005.0,-76.0
19.0,-245.0,-24.0,65.0,163.0,26.0,55.0,-1012.0,-81.0
21.0,-249.0,-25.0,65.0,157.0,27.0,62.0,-1015.0,-81.0
22.0,-250.0,-24.0,70.0,155.0,27.0,64.0,-1011.0,-92.0
22.0,-248.0,-25.0,76.0,156.0,29.0,66.0,-1021.0,-95.0
21.0,-247.0,-28.0,81.0,159.0,30.0,70.0,-1020.0,-94.0
21.0,-249.0,-25.0,87.0,161.0,30.0,72.0,-1012.0,-98.0
20.0,-248.0,-27.0,91.0,161.0,30.0,70.0,-1020.0,-96.0
21.0,-249.0,-26.0,92.0,159.0,28.0,67.0,-1018.0,-86.0
22.0,-247.0,-24.0,95.0,157.0,26.0,70.0,-1013.0,-86.0
25.0,-246.0,-22.0,97.0,155.0,26.0,70.0,-1006.0,-86.0
20.0,-245.0,-24.0,98.0,153.0,24.0,74.0,-1007.0,-81.0
22.0,-247.0,-20.0,94.0,153.0,22.0,71.0,-1009.0,-75.0
20.0,-245.0,-22.0,90.0,151.0,19.0,70.0,-1010.0,-67.0
22.0,-246.0,-20.0,87.0,150.0,19.0,58.0,-1002.0,-77.0
19.0,-244.0,-23.0,82.0,147.0,18.0,54.0,-1006.0,-73.0
15.0,-244.0,-24.0,77.0,140.0,18.0,49.0,-1005.0,-81.0
17.0,-246.0,-24.0,71.0,131.0,18.0,52.0,-1007.0,-82.0
21.0,-246.0,-26.0,65.0,125.0,19.0,51.0,-1012.0,-86.0
20.0,-246.0,-28.0,65.0,122.0,22.0,52.0,-1012.0,-95.0
18.0,-249.0,-30.0,67.0,118.0,26.0,48.0,-1002.0,-90.0
19.0,-244.0,-24.0,72.0,116.0,31.0,59.0,-1002.0,-95.0
21.0,-246.0,-28.0,75.0,111.0,37.0,62.0,-999.0,-100.0
23.0,-243.0,-28.0,79.0,109.0,43.0,73.0,-998.0,-98.0
22.0,-240.0,-30.0,80.0,104.0,47.0,70.0,-995.0,-100.0
26.0,-241.0,-27.0,80.0,105.0,52.0,76.0,-990.0,-105.0
24.0,-240.0,-28.0,77.0,106.0,58.0,73.0,-988.0,-99.0
33.0,-238.0,-21.0,72.0,105.0,61.0,72.0,-986.0,-101.0
21.0,-243.0,-26.0,62.0,104.0,64.0,70.0,-991.0,-102.0
22.0,-241.0,-25.0,51.0,102.0,64.0,63.0,-996.0,-102.0
22.0,-242.0,-30.0,40.0,100.0,66.0,62.0,-998.0,-98.0
20.0,-243.0,-22.0,32.0,100.0,67.0,59.0,-999.0,-104.0
23.0,-245.0,-29.0,28.0,100.0,66.0,60.0,-1001.0,-96.0
21.0,-245.0,-31.0,25.0,99.0,67.0,58.0,-1006.0,-96.0
22.0,-244.0,-28.0,24.0,98.0,69.0,62.0,-1006.0,-103.0
23.0,-246.0,-27.0,25.0,98.0,69.0,67.0,-1006.0,-99.0
22.0,-245.0,-22.0,27.0,99.0,68.0,70.0,-1010.0,-100.0
25.0,-249.0,-26.0,29.0,98.0,70.0,72.0,-1012.0,-97.0
26.0,-248.0,-29.0,32.0,99.0,70.0,76.0,-1007.0,-92.0
31.0,-246.0,-26.0,34.0,101.0,72.0,75.0,-1006.0,-94.0
24.0,-245.0,-25.0,36.0,103.0,72.0,76.0,-1006.0,-96.0
26.0,-245.0,-29.0,34.0,105.0,74.0,79.0,-1003.0,-95.0
25.0,-247.0,-26.0,31.0,106.0,74.0,83.0,-1000.0,-90.0
25.0,-247.0,-29.0,23.0,107.0,77.0,77.0,-1004.0,-89.0
23.0,-241.0,-26.0,16.0,112.0,76.0,78.0,-1005.0,-85.0
25.0,-244.0,-21.0,7.0,112.0,74.0,73.0,-1003.0,-83.0
25.0,-246.0,-25.0,-5.0,110.0,72.0,76.0,-1012.0,-83.0
25.0,-250.0,-23.0,-14.0,104.0,70.0,76.0,-1015.0,-78.0
24.0,-249.0,-25.0,-23.0,100.0,68.0,72.0,-1019.0,-80.0
22.0,-251.0,-21.0,-26.0,97.0,66.0,68.0,-1033.0,-81.0
24.0,-253.0,-24.0,-26.0,93.0,64.0,67.0,-1037.0,-86.0
21.0,-252.0,-23.0,-22.0,89.0,62.0,67.0,-1049.0,-87.0
21.0,-253.0,-24.0,-17.0,85.0,58.0,60.0,-1037.0,-84.0
19.0,-255.0,-22.0,-7.0,79.0,58.0,58.0,-1039.0,-79.0
18.0,-252.0,-21.0,5.0,76.0,56.0,52.0,-1028.0,-78.0
21.0,-250.0,-22.0,17.0,71.0,58.0,44.0,-1022.0,-75.0
12.0,-245.0,-20.0,26.0,66.0,62.0,32.0,-1018.0,-80.0
9.0,-242.0,-17.0,32.0,59.0,64.0,31.0,-1005.0,-72.0
10.0,-242.0,-19.0,35.0,49.0,65.0,20.0,-998.0,-67.0
11.0,-240.0,-16.0,34.0,38.0,67.0,22.0,-988.0,-65.0
9.0,-239.0,-19.0,27.0,25.0,70.0,19.0,-982.0,-66.0
11.0,-239.0,-20.0,19.0,16.0,74.0,18.0,-981.0,-65.0
10.0,-238.0,-18.0,9.0,6.0,78.0,15.0,-983.0,-67.0
10.0,-239.0,-20.0,-2.0,-3.0,81.0,11.0,-987.0,-68.0
7.0,-241.0,-17.0,-10.0,-10.0,86.0,18.0,-992.0,-61.0
7.0,-242.0,-14.0,-17.0,-16.0,88.0,21.0,-999.0,-61.0
8.0,-247.0,-15.0,-21.0,-23.0,89.0,8.0,-1008.0,-63.0
9.0,-249.0,-17.0,-19.0,-31.0,90.0,12.0,-1014.0,-62.0
7.0,-245.0,-12.0,-16.0,-38.0,91.0,14.0,-1019.0,-59.0
10.0,-252.0,-16.0,-9.0,-43.0,94.0,24.0,-1021.0,-49.0
15.0,-250.0,-13.0,-2.0,-44.0,94.0,28.0,-1022.0,-49.0
14.0,-251.0,-15.0,1.0,-48.0,96.0,37.0,-1027.0,-45.0
17.0,-253.0,-17.0,0.0,-52.0,96.0,38.0,-1032.0,-47.0
15.0,-249.0,-13.0,-1.0,-55.0,97.0,45.0,-1034.0,-54.0
16.0,-251.0,-17.0,0.0,-58.0,95.0,49.0,-1037.0,-60.0
17.0,-255.0,-22.0,3.0,-59.0,90.0,51.0,-1038.0,-61.0
19.0,-253.0,-22.0,5.0,-60.0,89.0,53.0,-1033.0,-76.0
18.0,-252.0,-21.0,6.0,-58.0,86.0,57.0,-1040.0,-84.0
19.0,-252.0,-23.0,9.0,-55.0,82.0,56.0,-1036.0,-85.0
19.0,-252.0,-22.0,11.0,-53.0,79.0,61.0,-1035.0,-96.0
21.0,-254.0,-29.0,13.0,-48.0,76.0,59.0,-1034.0,-105.0
22.0,-249.0,-30.0,15.0,-44.0,71.0,58.0,-1017.0,-108.0
22.0,-251.0,-31.0,15.0,-38.0,66.0,59.0,-1022.0,-109.0
22.0,-250.0,-33.0,14.0,-34.0,61.0,60.0,-1022.0,-116.0
21.0,-250.0,-33.0,14.0,-30.0,55.0,55.0,-1018.0,-120.0
19.0,-249.0,-29.0,12.0,-25.0,48.0,56.0,-1015.0,-117.0
19.0,-251.0,-30.0,11.0,-22.0,42.0,55.0,-1018.0,-126.0
16.0,-250.0,-36.0,9.0,-15.0,34.0,46.0,-1019.0,-117.0
17.0,-247.0,-36.0,6.0,-13.0,25.0,38.0,-1023.0,-123.0
11.0,-251.0,-37.0,5.0,-11.0,16.0,35.0,-1019.0,-118.0
13.0,-250.0,-32.0,1.0,-12.0,8.0,30.0,-1021.0,-120.0
11.0,-249.0,-32.0,-1.0,-12.0,-2.0,25.0,-1029.0,-127.0
11.0,-248.0,-34.0,0.0,-15.0,-9.0,23.0,-1027.0,-118.0
6.0,-250.0,-35.0,3.0,-16.0,-17.0,12.0,-1028.0,-121.0
3.0,-249.0,-33.0,9.0,-18.0,-23.0,8.0,-1027.0,-115.0
5.0,-251.0,-33.0,15.0,-20.0,-27.0,6.0,-1024.0,-112.0
1.0,-250.0,-34.0,22.0,-22.0,-31.0,-2.0,-1013.0,-106.0
1.0,-249.0,-30.0,28.0,-26.0,-32.0,-10.0,-1014.0,-106.0
1.0,-243.0,-29.0,30.0,-33.0,-30.0,-14.0,-1010.0,-102.0
2.0,-245.0,-29.0,33.0,-42.0,-30.0,-14.0,-1014.0,-108.0
0.0,-246.0,-30.0,36.0,-53.0,-29.0,-12.0,-1012.0,-108.0
0.0,-247.0,-32.0,41.0,-62.0,-27.0,-19.0,-1007.0,-109.0
1.0,-247.0,-29.0,45.0,-70.0,-25.0,-17.0,-1007.0,-104.0
1.0,-248.0,-26.0,48.0,-78.0,-22.0,-22.0,-1003.0,-101.0
-2.0,-245.0,-25.0,48.0,-88.0,-19.0,-23.0,-1004.0,-97.0
-2.0,-243.0,-27.0,47.0,-98.0,-17.0,-29.0,-1004.0,-102.0
-3.0,-245.0,-27.0,44.0,-109.0,-12.0,-34.0,-999.0,-101.0
-1.0,-244.0,-29.0,41.0,-121.0,-8.0,-24.0,-999.0,-101.0
0.0,-242.0,-30.0,38.0,-132.0,-1.0,-28.0,-1001.0,-101.0
1.0,-242.0,-30.0,37.0,-144.0,4.0,-21.0,-1000.0,-101.0
-2.0,-242.0,-26.0,33.0,-155.0,12.0,-22.0,-1000.0,-105.0
0.0,-245.0,-31.0,33.0,-165.0,16.0,-22.0,-998.0,-113.0
0.0,-245.0,-33.0,29.0,-175.0,20.0,-19.0,-1006.0,-112.0
0.0,-244.0,-35.0,26.0,-181.0,23.0,-14.0,-1007.0,-122.0
0.0,-248.0,-29.0,26.0,-184.0,23.0,-15.0,-1015.0,-115.0
1.0,-249.0,-36.0,28.0,-186.0,26.0,-15.0,-1019.0,-122.0
2.0,-250.0,-32.0,29.0,-188.0,26.0,-13.0,-1023.0,-119.0
1.0,-252.0,-34.0,30.0,-192.0,25.0,-19.0,-1026.0,-125.0
3.0,-253.0,-33.0,28.0,-196.0,21.0,-12.0,-1025.0,-119.0
1.0,-252.0,-32.0,31.0,-200.0,18.0,-11.0,-1026.0,-124.0
1.0,-249.0,-32.0,35.0,-201.0,14.0,-16.0,-1018.0,-122.0
-1.0,-249.0,-34.0,41.0,-203.0,14.0,-14.0,-1019.0,-123.0
1.0,-244.0,-34.0,45.0,-204.0,12.0,-19.0,-1006.0,-126.0
-1.0,-246.0,-39.0,48.0,-204.0,14.0,-21.0,-1003.0,-131.0
1.0,-246.0,-36.0,48.0,-205.0,11.0,-22.0,-994.0,-129.0
1.0,-242.0,-40.0,43.0,-206.0,11.0,-23.0,-993.0,-137.0
-2.0,-239.0,-41.0,40.0,-203.0,10.0,-22.0,-993.0,-139.0
-3.0,-242.0,-37.0,35.0,-201.0,8.0,-24.0,-990.0,-135.0
-2.0,-239.0,-38.0,26.0,-201.0,6.0,-28.0,-993.0,-140.0
-2.0,-242.0,-38.0,16.0,-203.0,0.0,-35.0,-995.0,-138.0
-2.0,-241.0,-38.0,8.0,-204.0,-2.0,-30.0,-997.0,-145.0
-4.0,-244.0,-41.0,-2.0,-205.0,-7.0,-33.0,-997.0,-145.0
-3.0,-243.0,-42.0,-6.0,-203.0,-9.0,-32.0,-1002.0,-152.0
-2.0,-247.0,-39.0,-10.0,-200.0,-10.0,-26.0,-1003.0,-148.0
0.0,-248.0,-42.0,-13.0,-196.0,-13.0,-24.0,-1001.0,-151.0
0.0,-247.0,-35.0,-15.0,-192.0,-11.0,-20.0,-1006.0,-154.0
1.0,-244.0,-45.0,-15.0,-191.0,-8.0,-18.0,-1000.0,-148.0
1.0,-241.0,-39.0,-16.0,-186.0,-6.0,-21.0,-994.0,-154.0
3.0,-245.0,-44.0,-13.0,-183.0,-5.0,-14.0,-991.0,-159.0
1.0,-240.0,-41.0,-12.0,-179.0,-5.0,-5.0,-992.0,-158.0
6.0,-241.0,-39.0,-11.0,-173.0,-5.0,4.0,-993.0,-154.0
4.0,-241.0,-44.0,-11.0,-164.0,-3.0,3.0,-988.0,-159.0
2.0,-237.0,-43.0,-13.0,-157.0,-5.0,2.0,-988.0,-152.0
4.0,-242.0,-41.0,-20.0,-149.0,-7.0,7.0,-985.0,-149.0
3.0,-241.0,-40.0,-26.0,-143.0,-11.0,0.0,-986.0,-146.0
4.0,-237.0,-40.0,-31.0,-138.0,-13.0,-5.0,-990.0,-139.0
2.0,-241.0,-39.0,-37.0,-133.0,-14.0,-2.0,-989.0,-145.0
3.0,-242.0,-38.0,-40.0,-128.0,-14.0,-6.0,-999.0,-135.0
3.0,-242.0,-36.0,-41.0,-123.0,-14.0,-5.0,-997.0,-142.0
2.0,-242.0,-41.0,-39.0,-115.0,-13.0,-6.0,-998.0,-143.0
1.0,-244.0,-36.0,-36.0,-108.0,-10.0,-6.0,-1001.0,-139.0
2.0,-246.0,-31.0,-32.0,-98.0,-10.0,-15.0,-999.0,-139.0
-1.0,-246.0,-40.0,-28.0,-95.0,-9.0,-14.0,-1007.0,-131.0
0.0,-246.0,-36.0,-22.0,-92.0,-10.0,-18.0,-1002.0,-139.0
1.0,-244.0,-38.0,-16.0,-87.0,-12.0,-26.0,-1009.0,-131.0
-2.0,-248.0,-35.0,-8.0,-81.0,-12.0,-27.0,-1013.0,-128.0
-3.0,-247.0,-33.0,-1.0,-78.0,-13.0,-28.0,-1012.0,-124.0
-1.0,-249.0,-33.0,6.0,-76.0,-15.0,-32.0,-1015.0,-121.0
0.0,-251.0,-34.0,9.0,-74.0,-15.0,-40.0,-1018.0,-123.0
-3.0,-251.0,-38.0,14.0,-71.0,-15.0,-34.0,-1023.0,-118.0
0.0,-253.0,-37.0,18.0,-70.0,-13.0,-31.0,-1023.0,-123.0
-3.0,-252.0,-35.0,23.0,-69.0,-12.0,-23.0,-1036.0,-127.0
0.0,-254.0,-40.0,31.0,-69.0,-11.0,-27.0,-1037.0,-123.0
0.0,-253.0,-37.0,40.0,-67.0,-11.0,-21.0,-1031.0,-130.0
0.0,-250.0,-35.0,48.0,-64.0,-11.0,-22.0,-1034.0,-129.0
-1.0,-251.0,-37.0,59.0,-60.0,-10.0,-20.0,-1031.0,-129.0
0.0,-252.0,-38.0,70.0,-58.0,-13.0,-22.0,-1033.0,-128.0
-1.0,-266.0,-36.0,80.0,-57.0,-14.0,-21.0,-1033.0,-126.0
-1.0,-253.0,-31.0,90.0,-54.0,-14.0,-27.0,-1031.0,-128.0
-4.0,-251.0,-30.0,102.0,-52.0,-16.0,-36.0,-1030.0,-123.0
-4.0,-250.0,-35.0,111.0,-50.0,-16.0,-35.0,-1020.0,-121.0
0.0,-249.0,-34.0,119.0,-48.0,-14.0,-37.0,-1017.0,-124.0
-7.0,-248.0,-34.0,125.0,-47.0,-14.0,-45.0,-1013.0,-122.0
-5.0,-249.0,-35.0,125.0,-49.0,-17.0,-51.0,-1012.0,-123.0
-9.0,-246.0,-36.0,123.0,-52.0,-15.0,-60.0,-1006.0,-127.0
-12.0,-242.0,-35.0,118.0,-57.0,-16.0,-57.0,-1003.0,-132.0
-11.0,-241.0,-38.0,109.0,-65.0,-18.0,-69.0,-1002.0,-132.0
-11.0,-243.0,-40.0,100.0,-72.0,-18.0,-68.0,-1001.0,-135.0
-11.0,-243.0,-38.0,91.0,-76.0,-18.0,-68.0,-997.0,-134.0
-10.0,-243.0,-39.0,82.0,-80.0,-17.0,-70.0,-999.0,-142.0
-11.0,-242.0,-40.0,76.0,-86.0,-18.0,-67.0,-992.0,-140.0
-10.0,-242.0,-37.0,71.0,-92.0,-17.0,-62.0,-997.0,-139.0
-10.0,-240.0,-36.0,65.0,-94.0,-18.0,-60.0,-994.0,-138.0
-11.0,-243.0,-37.0,62.0,-96.0,-21.0,-53.0,-995.0,-141.0
-9.0,-241.0,-38.0,62.0,-98.0,-22.0,-49.0,-994.0,-135.0
-12.0,-246.0,-40.0,62.0,-99.0,-25.0,-53.0,-1000.0,-140.0
-11.0,-242.0,-37.0,58.0,-102.0,-26.0,-51.0,-999.0,-138.0
-8.0,-240.0,-38.0,55.0,-105.0,-25.0,-55.0,-998.0,-138.0
-8.0,-244.0,-39.0,51.0,-107.0,-24.0,-48.0,-999.0,-142.0
-10.0,-243.0,-41.0,49.0,-108.0,-22.0,-46.0,-997.0,-142.0
-7.0,-242.0,-39.0,47.0,-112.0,-24.0,-49.0,-998.0,-143.0
-7.0,-243.0,-37.0,48.0,-114.0,-23.0,-46.0,-1007.0,-140.0
-7.0,-244.0,-40.0,48.0,-115.0,-22.0,-44.0,-998.0,-141.0
-5.0,-244.0,-39.0,50.0,-112.0,-24.0,-42.0,-999.0,-145.0
-5.0,-244.0,-38.0,53.0,-109.0,-21.0,-35.0,-1004.0,-149.0
-5.0,-246.0,-41.0,58.0,-107.0,-19.0,-39.0,-1005.0,-148.0
-2.0,-245.0,-42.0,61.0,-106.0,-18.0,-46.0,-998.0,-146.0
-9.0,-245.0,-41.0,64.0,-106.0,-13.0,-41.0,-999.0,-146.0
-3.0,-245.0,-39.0,67.0,-106.0,-7.0,-39.0,-997.0,-147.0
-2.0,-248.0,-42.0,69.0,-106.0,-3.0,-43.0,-1006.0,-148.0
-7.0,-251.0,-40.0,68.0,-108.0,1.0,-45.0,-1011.0,-155.0
-6.0,-245.0,-40.0,69.0,-109.0,2.0,-47.0,-1015.0,-150.0
-5.0,-250.0,-39.0,72.0,-110.0,-1.0,-55.0,-1022.0,-148.0
-10.0,-248.0,-37.0,76.0,-112.0,1.0,-57.0,-1022.0,-147.0
-8.0,-251.0,-40.0,82.0,-111.0,1.0,-65.0,-1023.0,-153.0
-10.0,-248.0,-41.0,89.0,-110.0,2.0,-59.0,-1021.0,-154.0
-8.0,-247.0,-43.0,96.0,-110.0,3.0,-54.0,-1018.0,-154.0
-7.0,-249.0,-42.0,104.0,-107.0,6.0,-60.0,-1015.0,-159.0
-11.0,-245.0,-45.0,110.0,-104.0,9.0,-52.0,-1007.0,-151.0
-5.0,-247.0,-43.0,116.0,-102.0,10.0,-55.0,-1009.0,-149.0
-4.0,-247.0,-33.0,119.0,-102.0,11.0,-48.0,-1010.0,-144.0
-4.0,-246.0,-40.0,120.0,-101.0,13.0,-49.0,-1007.0,-140.0
-6.0,-245.0,-37.0,119.0,-99.0,11.0,-50.0,-1001.0,-143.0
-8.0,-247.0,-39.0,117.0,-95.0,14.0,-49.0,-1006.0,-140.0
-9.0,-245.0,-42.0,119.0,-94.0,14.0,-50.0,-1010.0,-144.0
-10.0,-244.0,-36.0,125.0,-88.0,19.0,-57.0,-1008.0,-150.0
-11.0,-243.0,-40.0,131.0,-79.0,25.0,-66.0,-1005.0,-147.0
-13.0,-246.0,-41.0,135.0,-72.0,31.0,-68.0,-1012.0,-149.0
-13.0,-246.0,-42.0,135.0,-71.0,38.0,-67.0,-1013.0,-156.0
-13.0,-245.0,-41.0,133.0,-72.0,46.0,-73.0,-1010.0,-157.0
-13.0,-247.0,-43.0,130.0,-69.0,50.0,-79.0,-1016.0,-167.0
-13.0,-250.0,-42.0,128.0,-66.0,53.0,-82.0,-1021.0,-163.0
-14.0,-248.0,-39.0,129.0,-66.0,57.0,-79.0,-1022.0,-162.0
-12.0,-249.0,-45.0,133.0,-66.0,61.0,-75.0,-1020.0,-161.0
-12.0,-249.0,-45.0,136.0,-64.0,61.0,-68.0,-1021.0,-163.0
-12.0,-245.0,-44.0,140.0,-63.0,63.0,-67.0,-1015.0,-158.0
-8.0,-247.0,-44.0,142.0,-60.0,66.0,-55.0,-1016.0,-161.0
-12.0,-246.0,-46.0,140.0,-58.0,69.0,-57.0,-1005.0,-167.0
-17.0,-247.0,-46.0,138.0,-59.0,70.0,-86.0,-1014.0,-168.0
-20.0,-247.0,-47.0,138.0,-62.0,71.0,-96.0,-1011.0,-175.0
-21.0,-252.0,-48.0,143.0,-70.0,72.0,-100.0,-1016.0,-174.0
-22.0,-249.0,-41.0,155.0,-80.0,73.0,-106.0,-1011.0,-170.0
-23.0,-242.0,-45.0,170.0,-90.0,70.0,-102.0,-999.0,-166.0
-19.0,-241.0,-37.0,174.0,-96.0,70.0,-102.0,-995.0,-149.0
-17.0,-237.0,-34.0,165.0,-99.0,71.0,-96.0,-980.0,-139.0
-21.0,-238.0,-35.0,139.0,-104.0,71.0,-98.0,-975.0,-128.0
-17.0,-235.0,-34.0,102.0,-109.0,69.0,-98.0,-981.0,-112.0
-19.0,-235.0,-29.0,65.0,-117.0,64.0,-98.0,-988.0,-105.0
-19.0,-242.0,-25.0,31.0,-126.0,53.0,-96.0,-988.0,-96.0
-17.0,-240.0,-25.0,6.0,-133.0,42.0,-94.0,-998.0,-96.0
-16.0,-243.0,-25.0,-7.0,-136.0,32.0,-87.0,-1002.0,-96.0
-18.0,-247.0,-22.0,-13.0,-136.0,23.0,-93.0,-1001.0,-92.0
-20.0,-242.0,-23.0,-13.0,-138.0,17.0,-96.0,-1007.0,-96.0
-16.0,-247.0,-25.0,-9.0,-143.0,15.0,-81.0,-1010.0,-95.0
-11.0,-246.0,-21.0,-4.0,-145.0,11.0,-76.0,-1011.0,-95.0
-7.0,-249.0,-24.0,-3.0,-134.0,16.0,-59.0,-1013.0,-87.0
-6.0,-250.0,-14.0,-8.0,-115.0,18.0,-58.0,-1020.0,-66.0
-7.0,-251.0,-14.0,-15.0,-97.0,21.0,-45.0,-1028.0,-52.0
-8.0,-251.0,-14.0,-23.0,-87.0,21.0,-47.0,-1042.0,-39.0
-1.0,-253.0,-10.0,-29.0,-81.0,19.0,-44.0,-1048.0,-39.0
-2.0,-256.0,-12.0,-35.0,-76.0,15.0,-37.0,-1050.0,-37.0
-1.0,-256.0,-8.0,-38.0,-68.0,10.0,-35.0,-1052.0,-37.0
-4.0,-254.0,-10.0,-37.0,-59.0,4.0,-37.0,-1050.0,-40.0
-1.0,-255.0,-8.0,-33.0,-50.0,0.0,-38.0,-1050.0,-42.0
-5.0,-252.0,-13.0,-26.0,-39.0,-4.0,-37.0,-1050.0,-45.0
-3.0,-256.0,-13.0,-14.0,-29.0,-6.0,-41.0,-1049.0,-41.0
-6.0,-251.0,-13.0,0.0,-18.0,-11.0,-47.0,-1031.0,-46.0
-7.0,-249.0,-14.0,15.0,-7.0,-15.0,-47.0,-1023.0,-48.0
-7.0,-245.0,-12.0,28.0,4.0,-17.0,-53.0,-1012.0,-40.0
-9.0,-245.0,-10.0,37.0,14.0,-24.0,-59.0,-1006.0,-42.0
-10.0,-242.0,-8.0,44.0,24.0,-28.0,-61.0,-995.0,-41.0
-11.0,-241.0,-11.0,48.0,32.0,-34.0,-62.0,-993.0,-38.0
-14.0,-238.0,-12.0,47.0,40.0,-35.0,-68.0,-986.0,-43.0
-27.0,-240.0,-10.0,42.0,45.0,-40.0,-72.0,-977.0,-41.0
-17.0,-235.0,-14.0,33.0,50.0,-45.0,-83.0,-973.0,-49.0
-16.0,-235.0,-14.0,18.0,54.0,-47.0,-83.0,-971.0,-54.0
-18.0,-235.0,-17.0,1.0,58.0,-54.0,-80.0,-978.0,-56.0
-12.0,-236.0,-14.0,-18.0,62.0,-59.0,-77.0,-972.0,-57.0
-12.0,-239.0,-17.0,-35.0,66.0,-64.0,-69.0,-974.0,-55.0
-11.0,-238.0,-16.0,-48.0,72.0,-72.0,-68.0,-972.0,-59.0
-11.0,-232.0,-14.0,-59.0,77.0,-80.0,-69.0,-970.0,-53.0
-13.0,-236.0,-17.0,-63.0,83.0,-92.0,-70.0,-970.0,-56.0
-15.0,-237.0,-14.0,-66.0,92.0,-105.0,-86.0,-970.0,-55.0
-19.0,-237.0,-19.0,-66.0,99.0,-119.0,-93.0,-971.0,-61.0
-19.0,-237.0,-23.0,-69.0,102.0,-132.0,-103.0,-972.0,-73.0
-23.0,-234.0,-19.0,-71.0,105.0,-146.0,-117.0,-965.0,-69.0
-23.0,-234.0,-24.0,-78.0,104.0,-157.0,-119.0,-967.0,-74.0
-26.0,-232.0,-24.0,-90.0,102.0,-166.0,-121.0,-967.0,-86.0
-24.0,-237.0,-22.0,-106.0,96.0,-172.0,-122.0,-977.0,-90.0
-22.0,-240.0,-28.0,-125.0,88.0,-179.0,-120.0,-979.0,-103.0
-28.0,-242.0,-25.0,-140.0,81.0,-183.0,-120.0,-988.0,-104.0
-28.0,-243.0,-29.0,-152.0,72.0,-189.0,-124.0,-994.0,-107.0
-29.0,-246.0,-30.0,-159.0,60.0,-192.0,-130.0,-1011.0,-119.0
-31.0,-246.0,-35.0,-161.0,52.0,-196.0,-144.0,-1012.0,-122.0
-32.0,-250.0,-37.0,-161.0,42.0,-201.0,-157.0,-1020.0,-136.0
-38.0,-250.0,-39.0,-158.0,31.0,-204.0,-167.0,-1023.0,-138.0
-41.0,-250.0,-37.0,-154.0,18.0,-203.0,-178.0,-1030.0,-149.0
-44.0,-250.0,-39.0,-152.0,4.0,-203.0,-195.0,-1034.0,-157.0
-46.0,-251.0,-48.0,-153.0,-14.0,-196.0,-197.0,-1041.0,-172.0
-47.0,-254.0,-49.0,-161.0,-36.0,-186.0,-201.0,-1057.0,-187.0
-43.0,-258.0,-52.0,-172.0,-56.0,-167.0,-193.0,-1076.0,-206.0
-39.0,-267.0,-55.0,-187.0,-79.0,-146.0,-179.0,-1095.0,-217.0
-40.0,-270.0,-59.0,-196.0,-102.0,-121.0,-158.0,-1119.0,-227.0
-33.0,-279.0,-62.0,-196.0,-130.0,-95.0,-149.0,-1147.0,-243.0
-29.0,-282.0,-65.0,-184.0,-155.0,-65.0,-132.0,-1155.0,-246.0
-17.0,-286.0,-64.0,-151.0,-167.0,-22.0,-104.0,-1170.0,-246.0
-5.0,-283.0,-61.0,-98.0,-170.0,13.0,-74.0,-1165.0,-245.0
-7.0,-277.0,-60.0,-36.0,-166.0,44.0,-51.0,-1145.0,-244.0
-2.0,-272.0,-58.0,24.0,-162.0,69.0,-26.0,-1111.0,-225.0
0.0,-261.0,-57.0,75.0,-162.0,85.0,-15.0,-1074.0,-211.0
5.0,-250.0,-56.0,118.0,-163.0,94.0,1.0,-1028.0,-199.0
9.0,-239.0,-51.0,143.0,-163.0,94.0,17.0,-990.0,-187.0
11.0,-232.0,-48.0,155.0,-161.0,90.0,28.0,-958.0,-184.0
14.0,-222.0,-46.0,153.0,-157.0,79.0,36.0,-928.0,-179.0
18.0,-217.0,-47.0,138.0,-151.0,67.0,53.0,-909.0,-185.0
19.0,-215.0,-49.0,110.0,-140.0,51.0,60.0,-893.0,-189.0
17.0,-209.0,-50.0,76.0,-128.0,32.0,63.0,-877.0,-182.0
22.0,-210.0,-47.0,40.0,-114.0,15.0,61.0,-886.0,-182.0
20.0,-213.0,-49.0,5.0,-99.0,0.0,64.0,-889.0,-182.0
21.0,-219.0,-48.0,-25.0,-83.0,-15.0,62.0,-911.0,-182.0
21.0,-227.0,-49.0,-50.0,-65.0,-20.0,56.0,-926.0,-181.0
21.0,-229.0,-48.0,-64.0,-45.0,-25.0,56.0,-947.0,-175.0
18.0,-237.0,-46.0,-73.0,-22.0,-27.0,50.0,-967.0,-177.0
14.0,-238.0,-49.0,-77.0,-6.0,-26.0,49.0,-990.0,-181.0
17.0,-241.0,-46.0,-79.0,9.0,-24.0,49.0,-1006.0,-183.0
14.0,-251.0,-46.0,-79.0,27.0,-21.0,36.0,-1024.0,-178.0
15.0,-251.0,-48.0,-72.0,43.0,-19.0,38.0,-1030.0,-180.0
13.0,-253.0,-47.0,-60.0,57.0,-18.0,37.0,-1050.0,-180.0
12.0,-255.0,-48.0,-43.0,69.0,-14.0,32.0,-1054.0,-171.0
13.0,-255.0,-42.0,-27.0,81.0,-12.0,38.0,-1054.0,-186.0
15.0,-254.0,-51.0,-7.0,92.0,-9.0,38.0,-1056.0,-181.0
13.0,-256.0,-52.0,15.0,102.0,-6.0,37.0,-1058.0,-190.0
14.0,-254.0,-49.0,35.0,112.0,-3.0,34.0,-1044.0,-187.0
14.0,-252.0,-50.0,55.0,119.0,-1.0,38.0,-1026.0,-200.0
16.0,-245.0,-52.0,71.0,124.0,2.0,43.0,-1017.0,-203.0
17.0,-242.0,-51.0,83.0,132.0,5.0,42.0,-1001.0,-205.0
17.0,-243.0,-51.0,84.0,140.0,8.0,53.0,-990.0,-201.0
19.0,-238.0,-55.0,78.0,147.0,11.0,51.0,-972.0,-195.0
12.0,-234.0,-52.0,64.0,152.0,16.0,47.0,-967.0,-201.0
19.0,-234.0,-53.0,45.0,156.0,18.0,43.0,-964.0,-186.0
14.0,-236.0,-51.0,26.0,160.0,20.0,51.0,-974.0,-182.0
14.0,-235.0,-45.0,10.0,165.0,21.0,42.0,-970.0,-176.0
14.0,-238.0,-48.0,0.0,170.0,24.0,44.0,-978.0,-171.0
15.0,-240.0,-47.0,-5.0,174.0,22.0,38.0,-986.0,-167.0
12.0,-243.0,-49.0,-8.0,179.0,20.0,32.0,-992.0,-168.0
12.0,-244.0,-44.0,-6.0,184.0,18.0,24.0,-999.0,-167.0
6.0,-244.0,-41.0,-1.0,186.0,17.0,11.0,-1008.0,-165.0
4.0,-247.0,-48.0,7.0,185.0,18.0,5.0,-1012.0,-167.0
4.0,-248.0,-44.0,17.0,184.0,16.0,-1.0,-1017.0,-166.0
0.0,-249.0,-33.0,28.0,183.0,15.0,-6.0,-1021.0,-165.0
1.0,-249.0,-45.0,38.0,182.0,17.0,-11.0,-1015.0,-160.0
0.0,-250.0,-41.0,46.0,182.0,19.0,-13.0,-1014.0,-155.0
-1.0,-246.0,-41.0,53.0,180.0,21.0,-19.0,-1008.0,-157.0
0.0,-244.0,-39.0,53.0,174.0,23.0,-25.0,-1003.0,-150.0
-1.0,-239.0,-43.0,50.0,167.0,23.0,-27.0,-997.0,-140.0
0.0,-243.0,-44.0,42.0,162.0,23.0,-27.0,-991.0,-139.0
-3.0,-242.0,-37.0,31.0,154.0,23.0,-24.0,-995.0,-139.0
0.0,-241.0,-40.0,19.0,145.0,23.0,-22.0,-987.0,-144.0
1.0,-244.0,-36.0,7.0,134.0,22.0,-22.0,-991.0,-138.0
0.0,-233.0,-38.0,-6.0,125.0,18.0,-27.0,-994.0,-141.0
-1.0,-239.0,-38.0,-16.0,117.0,17.0,-22.0,-994.0,-138.0
0.0,-245.0,-34.0,-26.0,109.0,17.0,-21.0,-999.0,-140.0
1.0,-246.0,-42.0,-34.0,100.0,14.0,-16.0,-1003.0,-141.0
0.0,-246.0,-40.0,-40.0,91.0,13.0,-19.0,-1006.0,-150.0
2.0,-247.0,-38.0,-44.0,84.0,12.0,-15.0,-1005.0,-145.0
0.0,-245.0,-44.0,-47.0,75.0,11.0,-17.0,-1019.0,-147.0
2.0,-247.0,-34.0,-49.0,66.0,6.0,-9.0,-1010.0,-139.0
3.0,-245.0,-38.0,-50.0,56.0,4.0,-5.0,-1016.0,-140.0
5.0,-248.0,-38.0,-47.0,48.0,3.0,0.0,-1010.0,-139.0
6.0,-248.0,-40.0,-45.0,42.0,0.0,5.0,-1003.0,-139.0
4.0,-243.0,-38.0,-42.0,39.0,-2.0,1.0,-1005.0,-139.0
4.0,-240.0,-40.0,-41.0,35.0,-2.0,3.0,-1001.0,-141.0
6.0,-243.0,-37.0,-43.0,29.0,-5.0,4.0,-997.0,-145.0
3.0,-243.0,-44.0,-47.0,24.0,-8.0,-1.0,-996.0,-146.0
4.0,-239.0,-40.0,-51.0,22.0,-8.0,3.0,-992.0,-147.0
0.0,-240.0,-42.0,-59.0,21.0,-10.0,-8.0,-989.0,-149.0
0.0,-244.0,-39.0,-70.0,18.0,-10.0,-15.0,-995.0,-146.0
0.0,-241.0,-43.0,-79.0,15.0,-9.0,-20.0,-993.0,-150.0
-1.0,-242.0,-44.0,-85.0,9.0,-10.0,-18.0,-994.0,-156.0
0.0,-241.0,-40.0,-90.0,7.0,-9.0,-16.0,-1001.0,-153.0
2.0,-245.0,-41.0,-92.0,7.0,-8.0,-13.0,-999.0,-147.0
1.0,-246.0,-39.0,-90.0,7.0,-6.0,-7.0,-999.0,-150.0
1.0,-245.0,-43.0,-90.0,7.0,-6.0,-8.0,-1003.0,-150.0
2.0,-247.0,-39.0,-90.0,8.0,-8.0,-4.0,-1003.0,-151.0
2.0,-245.0,-41.0,-89.0,7.0,-7.0,-2.0,-1005.0,-151.0
5.0,-248.0,-45.0,-87.0,6.0,-7.0,7.0,-1001.0,-153.0
6.0,-247.0,-41.0,-83.0,7.0,-8.0,8.0,-1005.0,-159.0
7.0,-248.0,-46.0,-79.0,7.0,-9.0,7.0,-1005.0,-166.0
4.0,-243.0,-45.0,-75.0,8.0,-9.0,8.0,-1005.0,-165.0
7.0,-246.0,-44.0,-71.0,10.0,-9.0,7.0,-1006.0,-175.0
5.0,-250.0,-45.0,-67.0,10.0,-9.0,9.0,-1006.0,-183.0
8.0,-246.0,-49.0,-62.0,11.0,-10.0,8.0,-1011.0,-180.0
6.0,-245.0,-35.0,-55.0,14.0,-8.0,9.0,-1008.0,-186.0
3.0,-242.0,-49.0,-49.0,15.0,-7.0,8.0,-1009.0,-188.0
5.0,-246.0,-55.0,-44.0,16.0,-4.0,3.0,-1010.0,-188.0
5.0,-247.0,-49.0,-36.0,19.0,-4.0,5.0,-1014.0,-185.0
5.0,-244.0,-51.0,-30.0,21.0,-2.0,5.0,-1012.0,-186.0
5.0,-245.0,-49.0,-25.0,22.0,-2.0,8.0,-1007.0,-179.0
7.0,-247.0,-48.0,-20.0,26.0,-1.0,2.0,-1012.0,-179.0
6.0,-242.0,-45.0,-17.0,28.0,-2.0,6.0,-1001.0,-182.0
5.0,-245.0,-51.0,-15.0,30.0,-3.0,6.0,-999.0,-179.0
6.0,-245.0,-44.0,-12.0,30.0,-4.0,1.0,-994.0,-185.0
6.0,-239.0,-47.0,-13.0,30.0,-6.0,5.0,-991.0,-182.0
5.0,-242.0,-51.0,-11.0,30.0,-7.0,3.0,-994.0,-189.0
3.0,-242.0,-51.0,-12.0,31.0,-8.0,-4.0,-986.0,-191.0
3.0,-240.0,-56.0,-13.0,34.0,-7.0,3.0,-982.0,-189.0
3.0,-242.0,-52.0,-16.0,36.0,-4.0,-3.0,-987.0,-194.0
4.0,-241.0,-52.0,-19.0,37.0,-2.0,-5.0,-989.0,-196.0
3.0,-243.0,-50.0,-20.0,37.0,-2.0,-3.0,-989.0,-197.0
4.0,-243.0,-49.0,-15.0,38.0,1.0,-4.0,-995.0,-206.0
6.0,-248.0,-52.0,-12.0,40.0,4.0,1.0,-992.0,-201.0
4.0,-245.0,-53.0,-9.0,43.0,6.0,8.0,-1002.0,-193.0
7.0,-244.0,-52.0,-6.0,46.0,7.0,7.0,-1002.0,-190.0
5.0,-245.0,-51.0,-4.0,48.0,8.0,10.0,-1010.0,-195.0
3.0,-250.0,-53.0,-1.0,51.0,6.0,4.0,-1010.0,-189.0
6.0,-249.0,-49.0,4.0,52.0,5.0,1.0,-1009.0,-199.0
2.0,-248.0,-50.0,11.0,51.0,5.0,-2.0,-1018.0,-199.0
5.0,-250.0,-51.0,19.0,51.0,4.0,-5.0,-1021.0,-203.0
3.0,-246.0,-51.0,30.0,52.0,5.0,-1.0,-1015.0,-207.0
2.0,-248.0,-55.0,42.0,53.0,5.0,-7.0,-1014.0,-206.0
2.0,-245.0,-55.0,53.0,55.0,5.0,-8.0,-1006.0,-208.0
2.0,-245.0,-57.0,63.0,57.0,5.0,-7.0,-999.0,-207.0
2.0,-241.0,-60.0,68.0,59.0,5.0,-9.0,-998.0,-214.0
4.0,-242.0,-50.0,69.0,60.0,6.0,-1.0,-992.0,-205.0
3.0,-244.0,-54.0,69.0,62.0,8.0,-3.0,-995.0,-203.0
5.0,-242.0,-55.0,70.0,62.0,8.0,0.0,-992.0,-202.0
3.0,-242.0,-54.0,70.0,64.0,4.0,5.0,-995.0,-204.0
2.0,-241.0,-51.0,71.0,66.0,1.0,3.0,-991.0,-199.0
4.0,-240.0,-55.0,68.0,68.0,0.0,2.0,-993.0,-199.0
6.0,-245.0,-53.0,69.0,68.0,-4.0,2.0,-998.0,-196.0
5.0,-243.0,-52.0,71.0,69.0,-4.0,0.0,-1002.0,-208.0
5.0,-246.0,-57.0,76.0,70.0,-6.0,-1.0,-1006.0,-201.0
4.0,-248.0,-54.0,80.0,70.0,-5.0,-2.0,-1006.0,-197.0
3.0,-247.0,-55.0,90.0,71.0,-3.0,0.0,-1007.0,-191.0
2.0,-246.0,-56.0,98.0,73.0,-1.0,-3.0,-1008.0,-193.0
3.0,-247.0,-42.0,107.0,76.0,0.0,-2.0,-1006.0,-188.0
4.0,-246.0,-52.0,115.0,78.0,0.0,-6.0,-1005.0,-188.0
1.0,-243.0,-50.0,118.0,79.0,3.0,-1.0,-1001.0,-179.0
3.0,-246.0,-48.0,120.0,81.0,3.0,-1.0,-998.0,-188.0
2.0,-243.0,-49.0,122.0,81.0,1.0,-2.0,-997.0,-185.0
2.0,-241.0,-47.0,122.0,79.0,1.0,-3.0,-996.0,-199.0
5.0,-239.0,-52.0,122.0,76.0,1.0,3.0,-992.0,-193.0
5.0,-242.0,-55.0,119.0,77.0,-2.0,5.0,-992.0,-204.0
0.0,-240.0,-59.0,118.0,77.0,-3.0,-2.0,-990.0,-198.0
3.0,-249.0,-53.0,112.0,77.0,-4.0,4.0,-990.0,-196.0
5.0,-243.0,-51.0,109.0,77.0,-3.0,1.0,-993.0,-196.0
1.0,-240.0,-53.0,103.0,75.0,-5.0,-4.0,-992.0,-200.0
4.0,-245.0,-53.0,97.0,73.0,-6.0,-5.0,-995.0,-188.0
3.0,-244.0,-51.0,93.0,71.0,-6.0,-5.0,-991.0,-189.0
2.0,-242.0,-48.0,93.0,70.0,-6.0,-3.0,-990.0,-192.0
0.0,-242.0,-51.0,92.0,71.0,-8.0,-2.0,-990.0,-185.0
2.0,-240.0,-51.0,92.0,70.0,-7.0,-5.0,-998.0,-185.0
2.0,-240.0,-51.0,90.0,69.0,-7.0,-7.0,-986.0,-184.0
2.0,-238.0,-51.0,88.0,63.0,-5.0,-4.0,-991.0,-188.0
1.0,-243.0,-53.0,87.0,59.0,-5.0,-4.0,-990.0,-197.0
2.0,-240.0,-51.0,85.0,59.0,-2.0,-9.0,-989.0,-204.0
0.0,-238.0,-52.0,80.0,57.0,-2.0,-11.0,-991.0,-203.0
1.0,-238.0,-52.0,74.0,55.0,-1.0,-12.0,-991.0,-202.0
3.0,-241.0,-55.0,67.0,50.0,-4.0,-11.0,-991.0,-206.0
-1.0,-243.0,-54.0,61.0,48.0,-4.0,-14.0,-990.0,-205.0
-1.0,-240.0,-53.0,59.0,48.0,-5.0,-21.0,-992.0,-202.0
-2.0,-241.0,-53.0,57.0,47.0,-5.0,-24.0,-999.0,-200.0
0.0,-243.0,-54.0,55.0,41.0,-3.0,-26.0,-998.0,-202.0
1.0,-245.0,-54.0,54.0,39.0,-2.0,-21.0,-996.0,-196.0
-1.0,-244.0,-49.0,56.0,37.0,-1.0,-26.0,-993.0,-191.0
0.0,-243.0,-54.0,58.0,37.0,-1.0,-22.0,-992.0,-202.0
0.0,-243.0,-55.0,58.0,32.0,1.0,-17.0,-994.0,-197.0
0.0,-243.0,-48.0,60.0,31.0,1.0,-21.0,-998.0,-199.0
-2.0,-242.0,-56.0,60.0,29.0,0.0,-19.0,-996.0,-199.0
0.0,-243.0,-54.0,58.0,27.0,-2.0,-24.0,-991.0,-205.0
0.0,-237.0,-55.0,56.0,23.0,-3.0,-20.0,-992.0,-204.0
2.0,-243.0,-54.0,52.0,20.0,-4.0,-17.0,-991.0,-206.0
0.0,-245.0,-53.0,49.0,17.0,-4.0,-20.0,-996.0,-209.0
0.0,-243.0,-52.0,49.0,14.0,-6.0,-21.0,-994.0,-209.0
-3.0,-242.0,-57.0,51.0,10.0,-7.0,-22.0,-998.0,-209.0
-2.0,-243.0,-55.0,53.0,9.0,-8.0,-22.0,-996.0,-208.0
0.0,-248.0,-56.0,56.0,6.0,-7.0,-21.0,-1003.0,-209.0
-1.0,-243.0,-56.0,59.0,5.0,-7.0,-20.0,-1002.0,-205.0
0.0,-247.0,-56.0,60.0,1.0,-6.0,-23.0,-998.0,-201.0
0.0,-247.0,-53.0,63.0,-1.0,-5.0,-18.0,-1003.0,-201.0
0.0,-242.0,-50.0,66.0,-2.0,-6.0,-19.0,-1003.0,-203.0
0.0,-246.0,-52.0,68.0,-1.0,-6.0,-19.0,-1001.0,-189.0
1.0,-242.0,-54.0,70.0,-4.0,-8.0,-22.0,-998.0,-198.0
0.0,-242.0,-52.0,71.0,-6.0,-11.0,-24.0,-999.0,-184.0
0.0,-243.0,-53.0,70.0,-9.0,-11.0,-24.0,-997.0,-201.0
-1.0,-243.0,-50.0,71.0,-12.0,-10.0,-24.0,-992.0,-191.0
0.0,-241.0,-49.0,70.0,-16.0,-12.0,-22.0,-994.0,-201.0
0.0,-243.0,-48.0,70.0,-18.0,-12.0,-25.0,-994.0,-193.0
-1.0,-239.0,-53.0,70.0,-20.0,-13.0,-22.0,-994.0,-198.0
0.0,-245.0,-52.0,69.0,-22.0,-15.0,-24.0,-991.0,-193.0
0.0,-241.0,-52.0,69.0,-23.0,-15.0,-27.0,-994.0,-197.0
0.0,-245.0,-50.0,67.0,-25.0,-12.0,-25.0,-996.0,-197.0
0.0,-244.0,-48.0,64.0,-26.0,-12.0,-26.0,-1002.0,-193.0
0.0,-244.0,-49.0,63.0,-25.0,-12.0,-26.0,-995.0,-192.0
0.0,-245.0,-53.0,62.0,-27.0,-10.0,-18.0,-1001.0,-195.0
-2.0,-241.0,-49.0,62.0,-28.0,-12.0,-22.0,-994.0,-194.0
0.0,-244.0,-53.0,62.0,-27.0,-13.0,-19.0,-1002.0,-194.0
0.0,-243.0,-52.0,62.0,-27.0,-13.0,-15.0,-998.0,-195.0
0.0,-245.0,-52.0,61.0,-28.0,-14.0,-12.0,-995.0,-202.0
-1.0,-242.0,-54.0,60.0,-29.0,-14.0,-12.0,-1002.0,-202.0
0.0,-245.0,-50.0,59.0,-28.0,-15.0,-14.0,-994.0,-200.0
0.0,-242.0,-52.0,59.0,-27.0,-17.0,-17.0,-996.0,-197.0
0.0,-243.0,-53.0,60.0,-28.0,-17.0,-14.0,-996.0,-200.0
1.0,-243.0,-52.0,60.0,-28.0,-16.0,-19.0,-999.0,-200.0
0.0,-245.0,-53.0,61.0,-26.0,-15.0,-22.0,-994.0,-193.0
1.0,-243.0,-53.0,61.0,-25.0,-15.0,-13.0,-1004.0,-202.0
1.0,-244.0,-53.0,62.0,-24.0,-13.0,-14.0,-1000.0,-199.0
-2.0,-246.0,-51.0,63.0,-24.0,-12.0,-15.0,-1002.0,-202.0
0.0,-247.0,-53.0,65.0,-22.0,-12.0,-11.0,-1006.0,-201.0
1.0,-245.0,-55.0,70.0,-21.0,-14.0,-12.0,-1005.0,-194.0
0.0,-244.0,-48.0,72.0,-20.0,-15.0,-14.0,-1002.0,-198.0
1.0,-246.0,-52.0,76.0,-20.0,-18.0,-13.0,-1001.0,-203.0
3.0,-245.0,-53.0,80.0,-18.0,-19.0,-9.0,-997.0,-203.0
2.0,-243.0,-52.0,85.0,-14.0,-20.0,-8.0,-996.0,-203.0
1.0,-242.0,-55.0,89.0,-13.0,-20.0,-12.0,-993.0,-199.0
1.0,-242.0,-55.0,90.0,-11.0,-20.0,-9.0,-992.0,-196.0
0.0,-241.0,-53.0,90.0,-10.0,-19.0,-12.0,-992.0,-198.0
1.0,-239.0,-52.0,90.0,-10.0,-20.0,-8.0,-984.0,-194.0
1.0,-240.0,-52.0,87.0,-7.0,-20.0,-17.0,-987.0,-185.0
0.0,-240.0,-49.0,86.0,-5.0,-19.0,-16.0,-992.0,-192.0
0.0,-242.0,-51.0,83.0,-4.0,-19.0,-20.0,-986.0,-191.0
1.0,-241.0,-49.0,78.0,-5.0,-19.0,-17.0,-999.0,-188.0
0.0,-240.0,-47.0,71.0,-7.0,-20.0,-18.0,-997.0,-178.0
0.0,-242.0,-48.0,63.0,-9.0,-20.0,-21.0,-994.0,-177.0
1.0,-244.0,-48.0,57.0,-10.0,-20.0,-21.0,-998.0,-170.0
-1.0,-242.0,-50.0,52.0,-12.0,-19.0,-20.0,-1000.0,-173.0
-1.0,-242.0,-47.0,49.0,-13.0,-21.0,-21.0,-1004.0,-184.0
-5.0,-242.0,-45.0,49.0,-14.0,-21.0,-23.0,-1005.0,-180.0
0.0,-246.0,-52.0,51.0,-13.0,-20.0,-26.0,-999.0,-183.0
-3.0,-245.0,-48.0,53.0,-14.0,-18.0,-24.0,-1000.0,-180.0
0.0,-245.0,-52.0,53.0,-18.0,-18.0,-21.0,-996.0,-185.0
0.0,-246.0,-51.0,54.0,-20.0,-18.0,-30.0,-995.0,-184.0
0.0,-244.0,-49.0,54.0,-18.0,-17.0,-21.0,-999.0,-183.0
1.0,-244.0,-49.0,54.0,-15.0,-16.0,-19.0,-997.0,-191.0
0.0,-244.0,-53.0,52.0,-15.0,-18.0,-7.0,-995.0,-192.0
2.0,-242.0,-46.0,49.0,-16.0,-17.0,-10.0,-994.0,-195.0
1.0,-241.0,-50.0,46.0,-12.0,-16.0,-9.0,-991.0,-189.0
3.0,-241.0,-51.0,40.0,-12.0,-18.0,-10.0,-994.0,-190.0
1.0,-242.0,-49.0,35.0,-13.0,-18.0,-13.0,-988.0,-189.0
1.0,-242.0,-51.0,30.0,-14.0,-18.0,-11.0,-997.0,-190.0
0.0,-240.0,-54.0,24.0,-14.0,-18.0,-13.0,-994.0,-193.0
1.0,-245.0,-57.0,24.0,-14.0,-18.0,-15.0,-996.0,-200.0
0.0,-243.0,-55.0,26.0,-13.0,-15.0,-17.0,-1003.0,-194.0
0.0,-245.0,-53.0,28.0,-13.0,-17.0,-18.0,-994.0,-193.0
-1.0,-247.0,-53.0,28.0,-13.0,-17.0,-16.0,-1000.0,-199.0
-1.0,-244.0,-52.0,29.0,-11.0,-17.0,-19.0,-997.0,-189.0
0.0,-241.0,-53.0,29.0,-11.0,-17.0,-22.0,-1001.0,-202.0
0.0,-242.0,-50.0,28.0,-11.0,-18.0,-22.0,-997.0,-192.0
0.0,-242.0,-51.0,26.0,-14.0,-18.0,-21.0,-997.0,-187.0
0.0,-243.0,-51.0,26.0,-16.0,-18.0,-25.0,-992.0,-201.0
0.0,-240.0,-53.0,24.0,-18.0,-19.0,-23.0,-991.0,-199.0
-2.0,-243.0,-56.0,21.0,-19.0,-18.0,-22.0,-993.0,-200.0
-2.0,-241.0,-56.0,20.0,-20.0,-18.0,-21.0,-993.0,-201.0
0.0,-242.0,-53.0,19.0,-23.0,-17.0,-22.0,-992.0,-200.0
0.0,-244.0,-55.0,18.0,-22.0,-16.0,-21.0,-992.0,-206.0
0.0,-239.0,-50.0,18.0,-21.0,-16.0,-22.0,-992.0,-204.0
2.0,-243.0,-55.0,17.0,-22.0,-15.0,-18.0,-993.0,-207.0
1.0,-244.0,-59.0,19.0,-23.0,-15.0,-18.0,-994.0,-210.0
1.0,-243.0,-55.0,21.0,-23.0,-16.0,-16.0,-994.0,-212.0
-2.0,-243.0,-55.0,24.0,-23.0,-15.0,-16.0,-996.0,-213.0
0.0,-244.0,-57.0,24.0,-23.0,-14.0,-16.0,-994.0,-210.0
2.0,-242.0,-56.0,27.0,-25.0,-12.0,-11.0,-996.0,-217.0
0.0,-242.0,-55.0,29.0,-28.0,-11.0,-14.0,-989.0,-219.0
0.0,-243.0,-60.0,26.0,-27.0,-12.0,-6.0,-996.0,-209.0
1.0,-245.0,-57.0,26.0,-25.0,-12.0,-10.0,-996.0,-213.0
0.0,-238.0,-64.0,27.0,-23.0,-11.0,-11.0,-997.0,-209.0
1.0,-245.0,-57.0,30.0,-23.0,-12.0,-14.0,-1000.0,-206.0
2.0,-246.0,-56.0,33.0,-23.0,-13.0,-16.0,-994.0,-206.0
0.0,-240.0,-52.0,33.0,-23.0,-13.0,-4.0,-997.0,-205.0
0.0,-244.0,-55.0,33.0,-24.0,-12.0,-11.0,-996.0,-206.0
1.0,-244.0,-58.0,35.0,-22.0,-12.0,-13.0,-999.0,-204.0
2.0,-245.0,-56.0,39.0,-19.0,-11.0,-12.0,-1000.0,-204.0
1.0,-242.0,-52.0,42.0,-18.0,-13.0,-13.0,-994.0,-197.0
1.0,-240.0,-51.0,44.0,-18.0,-14.0,-10.0,-997.0,-206.0
1.0,-243.0,-51.0,42.0,-19.0,-14.0,-16.0,-991.0,-202.0
1.0,-238.0,-55.0,41.0,-18.0,-13.0,-12.0,-989.0,-206.0
0.0,-241.0,-57.0,37.0,-16.0,-15.0,-16.0,-985.0,-209.0
1.0,-237.0,-54.0,33.0,-14.0,-14.0,-10.0,-982.0,-209.0
2.0,-238.0,-57.0,28.0,-16.0,-13.0,-9.0,-978.0,-211.0
0.0,-237.0,-53.0,19.0,-17.0,-12.0,-9.0,-979.0,-217.0
4.0,-240.0,-56.0,11.0,-16.0,-13.0,-7.0,-983.0,-223.0
2.0,-239.0,-56.0,5.0,-13.0,-12.0,-8.0,-989.0,-220.0
3.0,-240.0,-60.0,3.0,-10.0,-10.0,-5.0,-984.0,-218.0
2.0,-239.0,-54.0,2.0,-8.0,-8.0,-6.0,-993.0,-221.0
3.0,-242.0,-54.0,2.0,-6.0,-6.0,-10.0,-995.0,-223.0
2.0,-240.0,-56.0,2.0,-4.0,-10.0,0.0,-989.0,-210.0
1.0,-241.0,-56.0,4.0,-1.0,-7.0,-8.0,-992.0,-221.0
0.0,-240.0,-57.0,7.0,2.0,-8.0,-11.0,-990.0,-214.0
2.0,-241.0,-57.0,10.0,4.0,-8.0,-6.0,-992.0,-213.0
1.0,-241.0,-59.0,14.0,5.0,-9.0,-9.0,-990.0,-205.0
6.0,-242.0,-56.0,16.0,5.0,-9.0,-6.0,-984.0,-209.0
3.0,-238.0,-58.0,13.0,8.0,-10.0,-8.0,-979.0,-209.0
1.0,-238.0,-53.0,8.0,9.0,-9.0,-6.0,-976.0,-207.0
2.0,-237.0,-55.0,-1.0,11.0,-12.0,-7.0,-972.0,-206.0
1.0,-234.0,-55.0,-9.0,13.0,-12.0,-2.0,-968.0,-207.0
3.0,-236.0,-56.0,-17.0,16.0,-12.0,-7.0,-966.0,-207.0
2.0,-237.0,-57.0,-26.0,16.0,-14.0,-7.0,-972.0,-204.0
0.0,-240.0,-56.0,-33.0,18.0,-12.0,-16.0,-976.0,-208.0
0.0,-226.0,-54.0,-40.0,21.0,-12.0,-18.0,-981.0,-205.0
0.0,-238.0,-59.0,-46.0,22.0,-13.0,-15.0,-984.0,-204.0
1.0,-242.0,-52.0,-51.0,23.0,-15.0,-15.0,-992.0,-201.0
0.0,-241.0,-54.0,-56.0,21.0,-13.0,-17.0,-988.0,-212.0
0.0,-244.0,-56.0,-60.0,19.0,-11.0,-19.0,-988.0,-208.0
1.0,-246.0,-52.0,-61.0,19.0,-12.0,-13.0,-997.0,-206.0
1.0,-245.0,-55.0,-61.0,21.0,-11.0,-9.0,-1007.0,-212.0
2.0,-246.0,-56.0,-61.0,21.0,-10.0,-8.0,-1003.0,-216.0
2.0,-246.0,-56.0,-55.0,23.0,-9.0,-8.0,-1014.0,-213.0
3.0,-245.0,-53.0,-50.0,26.0,-4.0,-5.0,-1004.0,-212.0
9.0,-243.0,-54.0,-44.0,30.0,-5.0,-2.0,-1011.0,-211.0
2.0,-245.0,-58.0,-38.0,32.0,-3.0,-9.0,-1005.0,-210.0
4.0,-245.0,-55.0,-32.0,35.0,-3.0,-5.0,-1004.0,-209.0
3.0,-245.0,-54.0,-28.0,35.0,-2.0,-5.0,-997.0,-211.0
2.0,-244.0,-57.0,-22.0,35.0,-1.0,-7.0,-1000.0,-205.0
2.0,-241.0,-55.0,-18.0,34.0,-2.0,-6.0,-994.0,-208.0
1.0,-241.0,-55.0,-14.0,33.0,-5.0,-13.0,-993.0,-211.0
1.0,-243.0,-56.0,-12.0,33.0,-4.0,-9.0,-991.0,-218.0
3.0,-241.0,-57.0,-10.0,33.0,-3.0,-14.0,-985.0,-218.0
1.0,-241.0,-56.0,-10.0,36.0,-2.0,-12.0,-982.0,-214.0
3.0,-240.0,-54.0,-12.0,37.0,-1.0,-15.0,-985.0,-218.0
2.0,-239.0,-55.0,-17.0,39.0,2.0,-15.0,-990.0,-214.0
1.0,-240.0,-59.0,-21.0,41.0,4.0,-14.0,-984.0,-213.0
-1.0,-241.0,-55.0,-26.0,42.0,4.0,-15.0,-991.0,-217.0
0.0,-240.0,-54.0,-31.0,42.0,6.0,-12.0,-990.0,-220.0
2.0,-242.0,-60.0,-35.0,41.0,5.0,-8.0,-987.0,-224.0
3.0,-241.0,-56.0,-35.0,41.0,7.0,-8.0,-994.0,-220.0
1.0,-245.0,-59.0,-32.0,42.0,10.0,-8.0,-997.0,-217.0
1.0,-242.0,-60.0,-27.0,44.0,12.0,-5.0,-990.0,-221.0
4.0,-245.0,-60.0,-21.0,45.0,14.0,-6.0,-999.0,-220.0
2.0,-242.0,-55.0,-16.0,47.0,17.0,-5.0,-988.0,-224.0
1.0,-244.0,-56.0,-11.0,46.0,20.0,-11.0,-992.0,-215.0
1.0,-240.0,-57.0,-9.0,47.0,22.0,-8.0,-987.0,-217.0
1.0,-243.0,-58.0,-8.0,50.0,23.0,-13.0,-989.0,-227.0
2.0,-240.0,-56.0,-7.0,51.0,25.0,-11.0,-987.0,-226.0
2.0,-243.0,-60.0,-8.0,48.0,25.0,-10.0,-986.0,-234.0
3.0,-239.0,-61.0,-9.0,44.0,26.0,-1.0,-986.0,-224.0
3.0,-242.0,-61.0,-6.0,43.0,24.0,-2.0,-987.0,-227.0
4.0,-241.0,-55.0,-2.0,45.0,24.0,-2.0,-988.0,-234.0
4.0,-241.0,-62.0,2.0,47.0,23.0,-1.0,-988.0,-228.0
3.0,-240.0,-56.0,3.0,52.0,23.0,-4.0,-981.0,-234.0
1.0,-239.0,-59.0,4.0,54.0,20.0,-6.0,-975.0,-222.0
3.0,-240.0,-58.0,3.0,55.0,22.0,0.0,-976.0,-226.0
4.0,-233.0,-54.0,-2.0,55.0,21.0,2.0,-975.0,-222.0
6.0,-236.0,-55.0,-7.0,57.0,22.0,2.0,-974.0,-221.0
5.0,-232.0,-57.0,-13.0,58.0,22.0,2.0,-979.0,-213.0
5.0,-237.0,-58.0,-21.0,59.0,27.0,8.0,-973.0,-227.0
6.0,-240.0,-59.0,-32.0,62.0,32.0,6.0,-978.0,-212.0
7.0,-239.0,-57.0,-40.0,62.0,35.0,4.0,-981.0,-219.0
4.0,-238.0,-56.0,-48.0,62.0,36.0,7.0,-983.0,-215.0
6.0,-241.0,-59.0,-53.0,63.0,38.0,7.0,-980.0,-213.0
5.0,-241.0,-58.0,-56.0,63.0,39.0,8.0,-989.0,-219.0
4.0,-239.0,-56.0,-54.0,63.0,39.0,1.0,-989.0,-223.0
6.0,-239.0,-56.0,-52.0,62.0,38.0,9.0,-992.0,-227.0
4.0,-239.0,-63.0,-46.0,64.0,37.0,1.0,-988.0,-229.0
6.0,-244.0,-60.0,-38.0,64.0,38.0,9.0,-993.0,-233.0
3.0,-242.0,-62.0,-29.0,66.0,39.0,8.0,-992.0,-234.0
5.0,-244.0,-63.0,-20.0,67.0,37.0,8.0,-991.0,-236.0
7.0,-239.0,-62.0,-9.0,68.0,37.0,0.0,-993.0,-241.0
2.0,-242.0,-61.0,1.0,70.0,37.0,7.0,-991.0,-238.0
4.0,-239.0,-64.0,9.0,71.0,36.0,7.0,-993.0,-239.0
4.0,-242.0,-63.0,12.0,72.0,34.0,8.0,-993.0,-237.0
5.0,-242.0,-62.0,15.0,73.0,31.0,10.0,-991.0,-232.0
4.0,-242.0,-61.0,16.0,73.0,26.0,6.0,-985.0,-228.0
3.0,-242.0,-60.0,20.0,71.0,22.0,2.0,-989.0,-220.0
4.0,-241.0,-55.0,24.0,69.0,15.0,-6.0,-985.0,-220.0
0.0,-241.0,-56.0,31.0,71.0,10.0,-13.0,-983.0,-206.0
0.0,-235.0,-58.0,35.0,71.0,4.0,-23.0,-975.0,-216.0
-1.0,-236.0,-56.0,37.0,68.0,2.0,-25.0,-975.0,-217.0
0.0,-236.0,-56.0,33.0,60.0,-2.0,-30.0,-974.0,-220.0
-3.0,-241.0,-61.0,27.0,49.0,-10.0,-27.0,-972.0,-219.0
-3.0,-239.0,-60.0,18.0,41.0,-16.0,-37.0,-974.0,-228.0
-1.0,-238.0,-60.0,10.0,39.0,-20.0,-36.0,-980.0,-233.0
-5.0,-234.0,-60.0,5.0,37.0,-25.0,-35.0,-978.0,-235.0
-3.0,-241.0,-63.0,-1.0,33.0,-29.0,-42.0,-990.0,-233.0
-2.0,-241.0,-63.0,-4.0,29.0,-33.0,-39.0,-997.0,-230.0
-6.0,-242.0,-61.0,-5.0,21.0,-37.0,-40.0,-996.0,-238.0
-2.0,-244.0,-63.0,-4.0,17.0,-37.0,-42.0,-1002.0,-240.0
-2.0,-245.0,-61.0,0.0,15.0,-35.0,-34.0,-1002.0,-236.0
0.0,-246.0,-62.0,9.0,11.0,-37.0,-33.0,-1003.0,-231.0
-4.0,-243.0,-61.0,19.0,8.0,-39.0,-27.0,-1002.0,-235.0
0.0,-247.0,-58.0,30.0,4.0,-40.0,-22.0,-996.0,-226.0
-2.0,-242.0,-57.0,41.0,0.0,-43.0,-23.0,-993.0,-226.0
1.0,-241.0,-58.0,52.0,-3.0,-43.0,-23.0,-991.0,-216.0
1.0,-239.0,-56.0,61.0,-7.0,-45.0,-13.0,-988.0,-222.0
1.0,-238.0,-56.0,69.0,-8.0,-45.0,-12.0,-983.0,-209.0
1.0,-235.0,-41.0,71.0,-7.0,-45.0,-9.0,-979.0,-212.0
2.0,-238.0,-54.0,71.0,-5.0,-45.0,-9.0,-974.0,-206.0
2.0,-237.0,-56.0,67.0,-1.0,-41.0,-15.0,-978.0,-204.0
0.0,-239.0,-57.0,61.0,-1.0,-39.0,-23.0,-979.0,-203.0
-1.0,-238.0,-55.0,50.0,-4.0,-41.0,-26.0,-979.0,-205.0
-2.0,-240.0,-54.0,42.0,-8.0,-41.0,-23.0,-992.0,-204.0
-4.0,-241.0,-58.0,34.0,-16.0,-43.0,-29.0,-996.0,-215.0
-3.0,-241.0,-57.0,32.0,-21.0,-42.0,-24.0,-992.0,-220.0
-2.0,-247.0,-60.0,34.0,-25.0,-42.0,-30.0,-1000.0,-219.0
-1.0,-246.0,-59.0,40.0,-28.0,-43.0,-27.0,-1005.0,-223.0
-5.0,-247.0,-60.0,49.0,-33.0,-44.0,-35.0,-1008.0,-225.0
-7.0,-250.0,-63.0,62.0,-40.0,-45.0,-31.0,-1017.0,-235.0
-2.0,-245.0,-63.0,78.0,-45.0,-47.0,-38.0,-1020.0,-241.0
-7.0,-247.0,-61.0,95.0,-48.0,-52.0,-46.0,-1013.0,-244.0
-9.0,-250.0,-64.0,111.0,-48.0,-52.0,-56.0,-1013.0,-238.0
-13.0,-246.0,-56.0,127.0,-49.0,-54.0,-61.0,-1005.0,-232.0
-12.0,-247.0,-57.0,137.0,-51.0,-52.0,-62.0,-1005.0,-225.0
-11.0,-242.0,-59.0,145.0,-53.0,-52.0,-67.0,-996.0,-219.0
-11.0,-240.0,-57.0,150.0,-57.0,-53.0,-64.0,-988.0,-212.0
-15.0,-239.0,-56.0,151.0,-61.0,-54.0,-66.0,-974.0,-210.0
-10.0,-235.0,-57.0,148.0,-64.0,-50.0,-59.0,-972.0,-216.0
-5.0,-237.0,-59.0,144.0,-63.0,-45.0,-45.0,-960.0,-224.0
-6.0,-234.0,-62.0,142.0,-62.0,-41.0,-35.0,-954.0,-226.0
-2.0,-231.0,-62.0,141.0,-60.0,-32.0,-21.0,-959.0,-230.0
1.0,-229.0,-60.0,135.0,-58.0,-24.0,-19.0,-960.0,-220.0
0.0,-231.0,-60.0,127.0,-56.0,-18.0,-18.0,-958.0,-222.0
0.0,-233.0,-58.0,119.0,-54.0,-14.0,-13.0,-952.0,-226.0
1.0,-231.0,-62.0,108.0,-52.0,-14.0,-14.0,-957.0,-229.0
0.0,-228.0,-61.0,93.0,-53.0,-13.0,-14.0,-955.0,-240.0
0.0,-230.0,-61.0,77.0,-54.0,-17.0,-12.0,-954.0,-241.0
0.0,-232.0,-60.0,63.0,-55.0,-15.0,-12.0,-956.0,-240.0
0.0,-233.0,-63.0,53.0,-55.0,-11.0,-19.0,-962.0,-238.0
-1.0,-231.0,-60.0,49.0,-56.0,-8.0,-17.0,-960.0,-240.0
-2.0,-235.0,-62.0,48.0,-58.0,-5.0,-18.0,-960.0,-238.0
0.0,-232.0,-61.0,47.0,-58.0,0.0,-22.0,-959.0,-235.0
-1.0,-231.0,-62.0,43.0,-59.0,4.0,-22.0,-956.0,-233.0
0.0,-232.0,-56.0,34.0,-58.0,7.0,-26.0,-958.0,-222.0
0.0,-227.0,-56.0,22.0,-58.0,10.0,-23.0,-949.0,-214.0
0.0,-229.0,-53.0,12.0,-55.0,18.0,-19.0,-955.0,-207.0
1.0,-231.0,-51.0,4.0,-48.0,22.0,-20.0,-949.0,-199.0
1.0,-231.0,-51.0,-4.0,-36.0,24.0,-21.0,-953.0,-199.0
2.0,-232.0,-53.0,-16.0,-28.0,28.0,-15.0,-955.0,-195.0
3.0,-233.0,-51.0,-34.0,-22.0,33.0,-9.0,-963.0,-204.0
3.0,-234.0,-57.0,-61.0,-19.0,37.0,-1.0,-972.0,-206.0
6.0,-236.0,-55.0,-84.0,-10.0,37.0,3.0,-979.0,-207.0
7.0,-235.0,-57.0,-100.0,-1.0,41.0,13.0,-988.0,-216.0
1.0,-242.0,-62.0,-116.0,8.0,42.0,-3.0,-995.0,-227.0
0.0,-249.0,-61.0,-133.0,13.0,49.0,-3.0,-1015.0,-237.0
1.0,-251.0,-62.0,-142.0,17.0,56.0,0.0,-1037.0,-233.0
4.0,-255.0,-59.0,-138.0,18.0,59.0,2.0,-1056.0,-229.0
1.0,-259.0,-62.0,-117.0,30.0,61.0,2.0,-1071.0,-237.0
2.0,-261.0,-63.0,-85.0,49.0,66.0,-7.0,-1080.0,-224.0
2.0,-263.0,-57.0,-46.0,67.0,74.0,-8.0,-1082.0,-225.0
5.0,-263.0,-59.0,-8.0,77.0,81.0,-7.0,-1084.0,-222.0
0.0,-259.0,-61.0,22.0,81.0,81.0,-5.0,-1073.0,-222.0
3.0,-258.0,-60.0,45.0,79.0,84.0,-10.0,-1070.0,-225.0
0.0,-257.0,-59.0,63.0,79.0,87.0,-10.0,-1059.0,-228.0
0.0,-255.0,-57.0,75.0,78.0,83.0,-7.0,-1051.0,-223.0
0.0,-254.0,-55.0,84.0,74.0,79.0,-18.0,-1038.0,-212.0
0.0,-250.0,-54.0,91.0,70.0,76.0,-21.0,-1029.0,-203.0
-5.0,-245.0,-52.0,100.0,68.0,70.0,-32.0,-1013.0,-203.0
-4.0,-242.0,-52.0,107.0,68.0,66.0,-42.0,-1002.0,-205.0
-7.0,-239.0,-59.0,111.0,65.0,58.0,-47.0,-987.0,-213.0
-12.0,-237.0,-56.0,108.0,59.0,52.0,-54.0,-984.0,-221.0
-10.0,-235.0,-62.0,99.0,48.0,46.0,-57.0,-971.0,-226.0
-9.0,-234.0,-59.0,89.0,41.0,42.0,-60.0,-971.0,-230.0
-11.0,-233.0,-61.0,78.0,43.0,38.0,-71.0,-977.0,-236.0
-21.0,-235.0,-62.0,67.0,40.0,30.0,-90.0,-967.0,-244.0
-24.0,-234.0,-65.0,60.0,22.0,20.0,-103.0,-975.0,-249.0
-29.0,-237.0,-65.0,53.0,-12.0,5.0,-123.0,-978.0,-259.0
-32.0,-236.0,-66.0,43.0,-53.0,-7.0,-134.0,-977.0,-272.0
-36.0,-234.0,-69.0,32.0,-94.0,-14.0,-144.0,-982.0,-278.0
-34.0,-238.0,-71.0,19.0,-133.0,-18.0,-150.0,-981.0,-284.0
-35.0,-238.0,-72.0,6.0,-166.0,-13.0,-145.0,-991.0,-279.0
-31.0,-244.0,-71.0,-3.0,-188.0,-5.0,-140.0,-995.0,-273.0
-39.0,-242.0,-66.0,-1.0,-196.0,2.0,-145.0,-998.0,-265.0
-34.0,-242.0,-65.0,5.0,-198.0,6.0,-148.0,-995.0,-247.0
-38.0,-240.0,-59.0,12.0,-205.0,6.0,-154.0,-993.0,-238.0
-36.0,-242.0,-61.0,18.0,-223.0,6.0,-162.0,-989.0,-235.0
-36.0,-239.0,-62.0,20.0,-249.0,12.0,-152.0,-966.0,-234.0
-31.0,-234.0,-61.0,18.0,-272.0,19.0,-135.0,-964.0,-241.0
-25.0,-236.0,-63.0,13.0,-287.0,28.0,-120.0,-965.0,-241.0
-21.0,-232.0,-62.0,8.0,-292.0,33.0,-105.0,-957.0,-233.0
-18.0,-231.0,-61.0,7.0,-294.0,32.0,-102.0,-951.0,-236.0
-21.0,-230.0,-63.0,6.0,-296.0,29.0,-91.0,-947.0,-239.0
-19.0,-232.0,-62.0,5.0,-305.0,25.0,-86.0,-948.0,-242.0
-19.0,-228.0,-65.0,2.0,-317.0,20.0,-84.0,-950.0,-249.0
-14.0,-232.0,-65.0,1.0,-324.0,17.0,-74.0,-951.0,-253.0
-15.0,-234.0,-68.0,0.0,-325.0,13.0,-63.0,-963.0,-248.0
-12.0,-234.0,-65.0,1.0,-318.0,6.0,-68.0,-965.0,-247.0
-11.0,-236.0,-64.0,2.0,-308.0,0.0,-71.0,-968.0,-244.0
-10.0,-235.0,-61.0,4.0,-301.0,-6.0,-68.0,-974.0,-233.0
-16.0,-237.0,-61.0,1.0,-296.0,-14.0,-76.0,-979.0,-244.0
-17.0,-237.0,-60.0,-5.0,-292.0,-20.0,-83.0,-974.0,-244.0
-16.0,-235.0,-63.0,-13.0,-290.0,-25.0,-87.0,-970.0,-246.0
-20.0,-234.0,-62.0,-18.0,-288.0,-26.0,-91.0,-969.0,-251.0
-15.0,-235.0,-66.0,-22.0,-286.0,-25.0,-86.0,-962.0,-261.0
-17.0,-233.0,-67.0,-27.0,-278.0,-20.0,-84.0,-960.0,-261.0
-16.0,-232.0,-68.0,-28.0,-265.0,-12.0,-77.0,-959.0,-263.0
-13.0,-234.0,-67.0,-31.0,-250.0,-4.0,-73.0,-953.0,-263.0
-17.0,-232.0,-64.0,-34.0,-235.0,7.0,-81.0,-952.0,-255.0
-13.0,-230.0,-65.0,-35.0,-222.0,16.0,-77.0,-952.0,-262.0
-13.0,-229.0,-64.0,-40.0,-212.0,19.0,-67.0,-952.0,-262.0
-16.0,-231.0,-66.0,-51.0,-202.0,15.0,-82.0,-947.0,-252.0
-13.0,-230.0,-65.0,-68.0,-193.0,19.0,-76.0,-955.0,-255.0
-14.0,-233.0,-64.0,-83.0,-180.0,24.0,-79.0,-954.0,-244.0
-11.0,-238.0,-60.0,-98.0,-166.0,24.0,-70.0,-973.0,-244.0
-13.0,-239.0,-64.0,-110.0,-152.0,22.0,-74.0,-978.0,-235.0
-13.0,-238.0,-61.0,-121.0,-142.0,20.0,-75.0,-986.0,-242.0
-15.0,-241.0,-61.0,-132.0,-133.0,19.0,-82.0,-997.0,-241.0
-13.0,-247.0,-63.0,-137.0,-122.0,18.0,-77.0,-1004.0,-242.0
-14.0,-247.0,-64.0,-140.0,-110.0,14.0,-71.0,-1012.0,-247.0
-13.0,-250.0,-64.0,-138.0,-94.0,7.0,-83.0,-1018.0,-248.0
-14.0,-249.0,-65.0,-134.0,-80.0,-1.0,-82.0,-1022.0,-248.0
-19.0,-247.0,-63.0,-129.0,-65.0,-9.0,-92.0,-1029.0,-244.0
-14.0,-250.0,-67.0,-121.0,-48.0,-16.0,-95.0,-1018.0,-246.0
-19.0,-250.0,-64.0,-109.0,-32.0,-16.0,-92.0,-1016.0,-258.0
-16.0,-251.0,-66.0,-97.0,-13.0,-14.0,-86.0,-1021.0,-261.0
-15.0,-248.0,-67.0,-83.0,4.0,-13.0,-88.0,-1016.0,-257.0
-14.0,-246.0,-67.0,-67.0,23.0,-11.0,-75.0,-1006.0,-262.0
-8.0,-252.0,-58.0,-48.0,39.0,-7.0,-79.0,-1005.0,-258.0
-11.0,-245.0,-64.0,-30.0,56.0,-5.0,-74.0,-996.0,-246.0
-15.0,-242.0,-63.0,-12.0,68.0,-5.0,-71.0,-991.0,-244.0
-12.0,-241.0,-64.0,3.0,79.0,-6.0,-76.0,-977.0,-252.0
-17.0,-237.0,-65.0,11.0,91.0,-7.0,-87.0,-976.0,-254.0
-19.0,-234.0,-65.0,15.0,97.0,-10.0,-84.0,-967.0,-259.0
-20.0,-233.0,-63.0,17.0,101.0,-13.0,-89.0,-960.0,-252.0
-16.0,-232.0,-62.0,22.0,103.0,-17.0,-88.0,-953.0,-245.0
-15.0,-230.0,-62.0,30.0,109.0,-22.0,-88.0,-946.0,-242.0
-19.0,-229.0,-61.0,37.0,115.0,-31.0,-95.0,-940.0,-229.0
-20.0,-222.0,-51.0,45.0,124.0,-42.0,-113.0,-931.0,-232.0
-25.0,-221.0,-55.0,51.0,131.0,-40.0,-115.0,-921.0,-220.0
-22.0,-218.0,-58.0,54.0,138.0,-38.0,-111.0,-916.0,-218.0
-21.0,-215.0,-58.0,54.0,147.0,-43.0,-112.0,-906.0,-214.0
-23.0,-218.0,-52.0,50.0,155.0,-49.0,-112.0,-902.0,-203.0
-24.0,-218.0,-50.0,44.0,163.0,-61.0,-117.0,-895.0,-200.0
-28.0,-213.0,-48.0,35.0,170.0,-74.0,-121.0,-901.0,-187.0
-26.0,-217.0,-47.0,24.0,177.0,-80.0,-121.0,-905.0,-180.0
-24.0,-220.0,-47.0,12.0,185.0,-87.0,-118.0,-909.0,-179.0
-21.0,-222.0,-51.0,0.0,197.0,-94.0,-114.0,-920.0,-186.0
-24.0,-225.0,-52.0,-10.0,210.0,-106.0,-116.0,-928.0,-196.0
-25.0,-227.0,-52.0,-16.0,222.0,-116.0,-105.0,-937.0,-199.0
-22.0,-228.0,-56.0,-14.0,228.0,-117.0,-102.0,-944.0,-222.0
-18.0,-228.0,-60.0,-6.0,234.0,-118.0,-90.0,-947.0,-233.0
-15.0,-232.0,-69.0,8.0,240.0,-117.0,-81.0,-957.0,-264.0
-15.0,-233.0,-72.0,24.0,241.0,-112.0,-69.0,-964.0,-287.0
-9.0,-236.0,-77.0,39.0,232.0,-101.0,-67.0,-966.0,-325.0
-12.0,-237.0,-88.0,52.0,219.0,-86.0,-52.0,-974.0,-350.0
-10.0,-238.0,-88.0,54.0,211.0,-70.0,-45.0,-978.0,-353.0
-7.0,-236.0,-92.0,54.0,208.0,-45.0,-38.0,-985.0,-364.0
-4.0,-242.0,-85.0,37.0,209.0,-18.0,-32.0,-1010.0,-336.0
-3.0,-250.0,-77.0,16.0,204.0,-3.0,-34.0,-1031.0,-294.0
-5.0,-256.0,-62.0,9.0,192.0,3.0,-45.0,-1050.0,-254.0
-5.0,-257.0,-57.0,27.0,178.0,5.0,-50.0,-1060.0,-212.0
-12.0,-256.0,-49.0,61.0,173.0,4.0,-63.0,-1052.0,-183.0
-12.0,-253.0,-43.0,103.0,174.0,6.0,-68.0,-1027.0,-168.0
-12.0,-247.0,-38.0,143.0,177.0,10.0,-63.0,-1010.0,-154.0
-11.0,-242.0,-43.0,174.0,177.0,8.0,-64.0,-989.0,-161.0
-8.0,-233.0,-49.0,189.0,175.0,9.0,-59.0,-972.0,-173.0
-9.0,-232.0,-53.0,184.0,175.0,12.0,-38.0,-964.0,-202.0
0.0,-234.0,-61.0,170.0,181.0,17.0,-24.0,-960.0,-229.0
1.0,-235.0,-62.0,154.0,201.0,22.0,-14.0,-962.0,-243.0
2.0,-235.0,-65.0,141.0,221.0,26.0,-5.0,-965.0,-245.0
9.0,-228.0,-69.0,141.0,240.0,29.0,5.0,-949.0,-247.0
9.0,-232.0,-66.0,151.0,255.0,38.0,21.0,-945.0,-257.0
12.0,-224.0,-69.0,157.0,273.0,53.0,34.0,-935.0,-284.0
15.0,-224.0,-74.0,152.0,293.0,60.0,38.0,-936.0,-294.0
13.0,-224.0,-70.0,133.0,310.0,59.0,35.0,-934.0,-283.0
10.0,-228.0,-72.0,115.0,320.0,56.0,34.0,-931.0,-273.0
8.0,-223.0,-70.0,106.0,322.0,44.0,20.0,-921.0,-278.0
3.0,-223.0,-69.0,102.0,323.0,26.0,8.0,-917.0,-275.0
5.0,-220.0,-73.0,100.0,324.0,7.0,-1.0,-912.0,-283.0
3.0,-219.0,-76.0,96.0,324.0,-11.0,4.0,-911.0,-298.0
1.0,-221.0,-82.0,84.0,325.0,-32.0,-4.0,-913.0,-318.0
0.0,-221.0,-85.0,56.0,326.0,-52.0,-16.0,-907.0,-343.0
-2.0,-217.0,-89.0,18.0,329.0,-64.0,-23.0,-915.0,-355.0
0.0,-221.0,-86.0,-29.0,331.0,-68.0,-12.0,-919.0,-350.0
2.0,-225.0,-87.0,-74.0,326.0,-67.0,-10.0,-929.0,-340.0
0.0,-227.0,-83.0,-109.0,323.0,-56.0,-17.0,-943.0,-340.0
-8.0,-236.0,-79.0,-145.0,323.0,-44.0,-39.0,-975.0,-326.0
-11.0,-241.0,-75.0,-176.0,318.0,-38.0,-44.0,-992.0,-303.0
-10.0,-241.0,-74.0,-190.0,302.0,-28.0,-50.0,-993.0,-299.0
-9.0,-245.0,-72.0,-191.0,293.0,-7.0,-43.0,-990.0,-291.0
-6.0,-240.0,-71.0,-184.0,294.0,11.0,-40.0,-991.0,-281.0
-7.0,-241.0,-66.0,-170.0,290.0,26.0,-44.0,-991.0,-267.0
-8.0,-244.0,-64.0,-151.0,277.0,35.0,-26.0,-990.0,-248.0
1.0,-243.0,-62.0,-115.0,258.0,37.0,-24.0,-989.0,-245.0
0.0,-236.0,-67.0,-76.0,245.0,42.0,-14.0,-965.0,-272.0
0.0,-234.0,-72.0,-40.0,242.0,48.0,-6.0,-949.0,-282.0
1.0,-226.0,-75.0,-14.0,244.0,51.0,-2.0,-928.0,-298.0
1.0,-215.0,-81.0,0.0,240.0,52.0,-3.0,-907.0,-308.0
1.0,-213.0,-85.0,1.0,229.0,52.0,0.0,-889.0,-328.0
1.0,-210.0,-86.0,-10.0,211.0,53.0,1.0,-872.0,-339.0
1.0,-208.0,-88.0,-28.0,193.0,56.0,7.0,-865.0,-348.0
8.0,-210.0,-90.0,-45.0,177.0,55.0,19.0,-869.0,-350.0
2.0,-209.0,-85.0,-67.0,166.0,52.0,24.0,-871.0,-339.0
8.0,-210.0,-80.0,-86.0,160.0,55.0,26.0,-883.0,-324.0
15.0,-217.0,-80.0,-99.0,158.0,55.0,34.0,-901.0,-317.0
11.0,-220.0,-76.0,-109.0,151.0,48.0,39.0,-913.0,-289.0
14.0,-226.0,-71.0,-109.0,140.0,34.0,46.0,-924.0,-286.0
19.0,-229.0,-68.0,-105.0,125.0,17.0,58.0,-941.0,-281.0
20.0,-232.0,-71.0,-91.0,111.0,-9.0,61.0,-953.0,-279.0
22.0,-231.0,-72.0,-73.0,98.0,-37.0,68.0,-951.0,-273.0
24.0,-234.0,-75.0,-50.0,89.0,-57.0,75.0,-965.0,-288.0
22.0,-238.0,-72.0,-31.0,87.0,-80.0,70.0,-975.0,-288.0
22.0,-238.0,-72.0,-12.0,86.0,-100.0,61.0,-974.0,-289.0
18.0,-237.0,-72.0,6.0,85.0,-113.0,59.0,-975.0,-291.0
13.0,-235.0,-75.0,23.0,82.0,-122.0,42.0,-968.0,-287.0
10.0,-234.0,-72.0,38.0,79.0,-132.0,22.0,-960.0,-286.0
11.0,-228.0,-70.0,50.0,73.0,-134.0,23.0,-946.0,-283.0
9.0,-225.0,-67.0,62.0,62.0,-128.0,23.0,-936.0,-273.0
7.0,-222.0,-66.0,77.0,52.0,-121.0,16.0,-923.0,-261.0
4.0,-218.0,-67.0,94.0,48.0,-119.0,7.0,-903.0,-257.0
1.0,-214.0,-67.0,103.0,43.0,-115.0,-6.0,-894.0,-266.0
2.0,-212.0,-66.0,97.0,36.0,-105.0,-9.0,-875.0,-272.0
1.0,-209.0,-68.0,75.0,23.0,-98.0,-6.0,-870.0,-271.0
2.0,-209.0,-67.0,46.0,6.0,-91.0,-2.0,-862.0,-269.0
1.0,-209.0,-65.0,19.0,-14.0,-84.0,-2.0,-854.0,-271.0
3.0,-207.0,-74.0,0.0,-32.0,-79.0,11.0,-860.0,-281.0
6.0,-208.0,-71.0,-13.0,-48.0,-75.0,15.0,-863.0,-285.0
10.0,-212.0,-67.0,-20.0,-64.0,-77.0,27.0,-872.0,-280.0
10.0,-216.0,-68.0,-14.0,-76.0,-79.0,26.0,-879.0,-282.0
13.0,-215.0,-70.0,0.0,-83.0,-78.0,26.0,-884.0,-281.0
12.0,-216.0,-69.0,21.0,-86.0,-79.0,39.0,-893.0,-278.0
15.0,-217.0,-71.0,43.0,-86.0,-79.0,48.0,-897.0,-282.0
21.0,-218.0,-72.0,61.0,-86.0,-81.0,59.0,-902.0,-277.0
23.0,-221.0,-72.0,80.0,-83.0,-77.0,73.0,-909.0,-271.0
26.0,-222.0,-73.0,98.0,-75.0,-71.0,87.0,-921.0,-286.0
26.0,-223.0,-72.0,119.0,-61.0,-70.0,91.0,-930.0,-283.0
30.0,-224.0,-72.0,142.0,-47.0,-69.0,94.0,-922.0,-285.0
26.0,-227.0,-72.0,169.0,-33.0,-67.0,90.0,-933.0,-285.0
26.0,-224.0,-74.0,198.0,-25.0,-69.0,90.0,-926.0,-291.0
28.0,-226.0,-72.0,226.0,-17.0,-70.0,85.0,-932.0,-290.0
24.0,-226.0,-69.0,252.0,-9.0,-70.0,72.0,-925.0,-290.0
19.0,-223.0,-75.0,272.0,-2.0,-69.0,59.0,-916.0,-292.0
17.0,-221.0,-75.0,283.0,5.0,-64.0,60.0,-922.0,-291.0
12.0,-219.0,-72.0,279.0,0.0,-64.0,42.0,-914.0,-284.0
8.0,-221.0,-66.0,262.0,-8.0,-67.0,31.0,-916.0,-265.0
7.0,-220.0,-63.0,246.0,-18.0,-69.0,22.0,-915.0,-246.0
7.0,-224.0,-61.0,232.0,-31.0,-78.0,18.0,-923.0,-234.0
10.0,-224.0,-62.0,226.0,-45.0,-91.0,15.0,-925.0,-231.0
9.0,-225.0,-62.0,226.0,-61.0,-93.0,23.0,-928.0,-234.0
12.0,-226.0,-63.0,231.0,-71.0,-96.0,37.0,-933.0,-221.0
19.0,-226.0,-60.0,248.0,-66.0,-101.0,54.0,-932.0,-230.0
21.0,-227.0,-61.0,267.0,-54.0,-103.0,58.0,-933.0,-233.0
20.0,-227.0,-58.0,284.0,-38.0,-106.0,64.0,-939.0,-232.0
21.0,-227.0,-61.0,297.0,-21.0,-107.0,65.0,-939.0,-228.0
21.0,-230.0,-59.0,303.0,-5.0,-101.0,67.0,-946.0,-228.0
18.0,-232.0,-58.0,305.0,2.0,-101.0,69.0,-954.0,-224.0
22.0,-236.0,-58.0,304.0,-1.0,-111.0,59.0,-962.0,-227.0
12.0,-236.0,-56.0,302.0,-10.0,-123.0,32.0,-961.0,-229.0
6.0,-235.0,-58.0,302.0,-15.0,-131.0,8.0,-970.0,-215.0
2.0,-235.0,-58.0,312.0,-19.0,-123.0,-3.0,-963.0,-215.0
-1.0,-238.0,-58.0,326.0,-27.0,-106.0,-12.0,-968.0,-214.0
0.0,-239.0,-55.0,347.0,-38.0,-89.0,-13.0,-972.0,-214.0
0.0,-236.0,-59.0,372.0,-52.0,-69.0,-19.0,-970.0,-220.0
1.0,-236.0,-63.0,400.0,-65.0,-53.0,-16.0,-968.0,-227.0
0.0,-235.0,-65.0,423.0,-68.0,-41.0,-27.0,-960.0,-248.0
-3.0,-233.0,-66.0,434.0,-71.0,-26.0,-30.0,-956.0,-255.0
-11.0,-230.0,-63.0,433.0,-81.0,-10.0,-47.0,-951.0,-253.0
-9.0,-228.0,-67.0,426.0,-102.0,4.0,-42.0,-950.0,-262.0
-3.0,-228.0,-68.0,407.0,-129.0,13.0,-31.0,-954.0,-277.0
1.0,-231.0,-68.0,373.0,-158.0,18.0,-16.0,-956.0,-276.0
4.0,-234.0,-67.0,330.0,-178.0,16.0,-4.0,-963.0,-283.0
9.0,-234.0,-73.0,293.0,-187.0,20.0,22.0,-978.0,-268.0
15.0,-240.0,-68.0,268.0,-186.0,25.0,35.0,-983.0,-257.0
15.0,-241.0,-66.0,252.0,-178.0,25.0,38.0,-987.0,-261.0
12.0,-241.0,-70.0,243.0,-171.0,21.0,32.0,-988.0,-254.0
16.0,-245.0,-67.0,238.0,-163.0,22.0,39.0,-1000.0,-267.0
13.0,-250.0,-66.0,229.0,-154.0,17.0,38.0,-1006.0,-264.0
13.0,-249.0,-64.0,223.0,-147.0,12.0,31.0,-1006.0,-258.0
9.0,-246.0,-64.0,230.0,-133.0,11.0,24.0,-1014.0,-258.0
9.0,-248.0,-62.0,246.0,-117.0,22.0,27.0,-1022.0,-243.0
15.0,-255.0,-61.0,262.0,-104.0,28.0,39.0,-1037.0,-233.0
12.0,-254.0,-62.0,274.0,-96.0,16.0,33.0,-1050.0,-227.0
9.0,-254.0,-58.0,285.0,-86.0,-4.0,24.0,-1051.0,-231.0
7.0,-254.0,-56.0,293.0,-74.0,-22.0,21.0,-1051.0,-225.0
8.0,-257.0,-56.0,294.0,-69.0,-38.0,16.0,-1053.0,-213.0
5.0,-255.0,-61.0,294.0,-66.0,-44.0,6.0,-1048.0,-215.0
6.0,-256.0,-54.0,291.0,-66.0,-46.0,15.0,-1053.0,-205.0
5.0,-256.0,-57.0,293.0,-66.0,-53.0,7.0,-1066.0,-210.0
1.0,-256.0,-58.0,294.0,-63.0,-63.0,9.0,-1063.0,-214.0
1.0,-257.0,-53.0,296.0,-57.0,-70.0,-5.0,-1063.0,-219.0
5.0,-256.0,-75.0,304.0,-53.0,-69.0,4.0,-1066.0,-221.0
1.0,-257.0,-60.0,312.0,-53.0,-73.0,-2.0,-1071.0,-236.0
2.0,-257.0,-64.0,323.0,-52.0,-77.0,-8.0,-1061.0,-241.0
1.0,-258.0,-62.0,341.0,-47.0,-79.0,-4.0,-1060.0,-243.0
1.0,-256.0,-67.0,363.0,-42.0,-74.0,-1.0,-1059.0,-247.0
2.0,-255.0,-64.0,388.0,-43.0,-66.0,-9.0,-1044.0,-246.0
1.0,-253.0,-65.0,416.0,-39.0,-52.0,-11.0,-1048.0,-256.0
2.0,-251.0,-63.0,440.0,-32.0,-36.0,-8.0,-1035.0,-242.0
1.0,-249.0,-63.0,462.0,-27.0,-21.0,-10.0,-1016.0,-247.0
1.0,-249.0,-63.0,476.0,-24.0,-14.0,-7.0,-1008.0,-242.0
0.0,-240.0,-66.0,485.0,-21.0,-11.0,-16.0,-990.0,-240.0
0.0,-234.0,-63.0,489.0,-16.0,-3.0,-25.0,-976.0,-244.0
-1.0,-231.0,-61.0,486.0,-11.0,10.0,-24.0,-954.0,-241.0
-2.0,-227.0,-57.0,478.0,-4.0,22.0,-36.0,-943.0,-222.0
-8.0,-222.0,-52.0,467.0,3.0,35.0,-44.0,-932.0,-212.0
-7.0,-220.0,-52.0,456.0,6.0,51.0,-45.0,-914.0,-201.0
-9.0,-218.0,-51.0,443.0,0.0,65.0,-56.0,-903.0,-194.0
-9.0,-218.0,-51.0,429.0,-13.0,78.0,-55.0,-889.0,-198.0
0.0,-219.0,-52.0,422.0,-29.0,95.0,-22.0,-897.0,-205.0
0.0,-220.0,-55.0,417.0,-44.0,105.0,-7.0,-914.0,-202.0
6.0,-224.0,-50.0,418.0,-58.0,105.0,3.0,-921.0,-210.0
22.0,-270.0,-24.0,357.0,-73.0,131.0,7.0,-1007.0,-105.0
43.0,-167.0,-5.0,398.0,-88.0,105.0,116.0,-704.0,-25.0
-1.0,-211.0,-44.0,514.0,-51.0,37.0,-24.0,-872.0,-170.0
11.0,-217.0,-42.0,508.0,-15.0,90.0,28.0,-922.0,-152.0
6.0,-228.0,-39.0,464.0,12.0,92.0,16.0,-941.0,-135.0
2.0,-230.0,-44.0,429.0,15.0,73.0,-4.0,-947.0,-172.0
1.0,-231.0,-54.0,406.0,5.0,61.0,-14.0,-958.0,-198.0
0.0,-233.0,-59.0,401.0,-4.0,61.0,-14.0,-956.0,-212.0
1.0,-233.0,-60.0,407.0,-4.0,64.0,-15.0,-955.0,-226.0
-3.0,-231.0,-61.0,421.0,7.0,68.0,-23.0,-953.0,-225.0
-5.0,-227.0,-59.0,432.0,20.0,67.0,-33.0,-945.0,-219.0
-5.0,-222.0,-55.0,438.0,19.0,74.0,-29.0,-930.0,-207.0
-2.0,-222.0,-53.0,433.0,11.0,81.0,-23.0,-914.0,-206.0
-4.0,-293.0,-62.0,352.0,-7.0,119.0,2.0,-1123.0,-226.0
19.0,-183.0,-6.0,312.0,-56.0,142.0,39.0,-733.0,-24.0
-20.0,-183.0,-54.0,489.0,-47.0,31.0,-112.0,-799.0,-247.0
-6.0,-192.0,-53.0,490.0,-13.0,66.0,-46.0,-802.0,-211.0
0.0,-200.0,-41.0,415.0,20.0,116.0,-14.0,-834.0,-156.0
-2.0,-200.0,-38.0,337.0,15.0,122.0,-28.0,-841.0,-134.0
-2.0,-198.0,-31.0,285.0,-11.0,121.0,-29.0,-836.0,-126.0
0.0,-202.0,-31.0,259.0,-37.0,117.0,-17.0,-822.0,-118.0
-4.0,-200.0,-24.0,257.0,-53.0,118.0,-38.0,-822.0,-100.0
-11.0,-198.0,-28.0,276.0,-63.0,126.0,-51.0,-817.0,-84.0
-2.0,-205.0,-18.0,310.0,-81.0,143.0,-23.0,-852.0,-79.0
8.0,-262.0,-27.0,286.0,-126.0,198.0,47.0,-975.0,-80.0
12.0,-173.0,-3.0,290.0,-156.0,178.0,17.0,-681.0,2.0
-12.0,-172.0,-45.0,515.0,-125.0,107.0,-83.0,-738.0,-199.0
4.0,-189.0,-36.0,540.0,-85.0,133.0,-4.0,-779.0,-142.0
1.0,-192.0,-29.0,474.0,-76.0,122.0,-8.0,-793.0,-111.0
5.0,-192.0,-29.0,434.0,-93.0,101.0,-6.0,-795.0,-113.0
9.0,-197.0,-27.0,416.0,-101.0,91.0,8.0,-809.0,-110.0
7.0,-200.0,-21.0,419.0,-94.0,82.0,12.0,-813.0,-91.0
-1.0,-291.0,-49.0,379.0,-91.0,115.0,2.0,-1184.0,-173.0
5.0,-187.0,10.0,435.0,-130.0,166.0,10.0,-728.0,62.0
2.0,-140.0,-8.0,682.0,-116.0,101.0,-38.0,-591.0,-38.0
-5.0,-174.0,-17.0,771.0,-71.0,93.0,-45.0,-718.0,-82.0
-11.0,-181.0,-20.0,764.0,-60.0,103.0,-40.0,-740.0,-79.0
-8.0,-179.0,-22.0,753.0,-78.0,104.0,-48.0,-737.0,-86.0
-13.0,-183.0,-27.0,758.0,-98.0,108.0,-71.0,-740.0,-101.0
5.0,-204.0,5.0,644.0,-151.0,210.0,-7.0,-862.0,-28.0
-13.0,-144.0,-28.0,772.0,-198.0,207.0,-59.0,-592.0,-87.0
-28.0,-133.0,-25.0,888.0,-212.0,166.0,-134.0,-567.0,-104.0
1.0,-172.0,-55.0,879.0,-245.0,193.0,-17.0,-716.0,-207.0
-5.0,-173.0,-49.0,831.0,-230.0,178.0,-49.0,-717.0,-189.0
-9.0,-181.0,-37.0,836.0,-202.0,183.0,-43.0,-740.0,-135.0
-4.0,-183.0,-32.0,871.0,-204.0,200.0,-41.0,-759.0,-126.0
-4.0,-182.0,-22.0,914.0,-215.0,210.0,-34.0,-728.0,-109.0
-6.0,-182.0,-34.0,968.0,-228.0,214.0,-42.0,-734.0,-106.0
-2.0,-161.0,-16.0,1012.0,-246.0,221.0,-25.0,-657.0,-53.0
-2.0,-168.0,-36.0,1097.0,-263.0,215.0,-29.0,-707.0,-121.0
0.0,-184.0,-32.0,1122.0,-266.0,216.0,-24.0,-760.0,-113.0
-4.0,-194.0,-47.0,1133.0,-291.0,233.0,-41.0,-797.0,-175.0
17.0,-158.0,-12.0,1116.0,-309.0,253.0,36.0,-618.0,-88.0
-2.0,-155.0,-47.0,1147.0,-312.0,226.0,-31.0,-659.0,-188.0
3.0,-178.0,-52.0,1100.0,-304.0,248.0,-12.0,-736.0,-180.0
1.0,-172.0,-42.0,1044.0,-297.0,273.0,-11.0,-733.0,-143.0
10.0,-141.0,-14.0,1001.0,-308.0,266.0,15.0,-586.0,-49.0
7.0,-131.0,-25.0,1047.0,-304.0,217.0,-10.0,-531.0,-102.0
12.0,-164.0,-44.0,1104.0,-261.0,217.0,32.0,-684.0,-159.0
7.0,-174.0,-42.0,1113.0,-207.0,223.0,-14.0,-742.0,-188.0
-3.0,-167.0,-37.0,1103.0,-177.0,240.0,-48.0,-709.0,-147.0
-7.0,-156.0,-27.0,1088.0,-168.0,246.0,-29.0,-636.0,-108.0
-21.0,-158.0,-34.0,1099.0,-157.0,245.0,-98.0,-656.0,-125.0
-21.0,-172.0,-31.0,1099.0,-149.0,283.0,-114.0,-713.0,-116.0
-27.0,-182.0,-28.0,1092.0,-134.0,307.0,-119.0,-764.0,-110.0
-33.0,-172.0,-30.0,1091.0,-140.0,341.0,-147.0,-722.0,-105.0
-32.0,-179.0,-34.0,1097.0,-156.0,360.0,-132.0,-734.0,-104.0
-43.0,-173.0,-25.0,1095.0,-163.0,373.0,-176.0,-726.0,-91.0
-24.0,-186.0,-30.0,1110.0,-176.0,395.0,-111.0,-767.0,-101.0
-34.0,-186.0,-22.0,1119.0,-196.0,391.0,-147.0,-777.0,-98.0
-23.0,-183.0,-20.0,1146.0,-220.0,412.0,-142.0,-750.0,-73.0
-14.0,-193.0,-16.0,1179.0,-247.0,417.0,-81.0,-792.0,-56.0
-21.0,-179.0,-4.0,1196.0,-253.0,406.0,-98.0,-744.0,-12.0
-10.0,-200.0,5.0,1213.0,-261.0,419.0,-55.0,-816.0,8.0
1.0,-212.0,9.0,1239.0,-258.0,418.0,-43.0,-856.0,31.0
-13.0,-213.0,26.0,1285.0,-240.0,409.0,-66.0,-865.0,94.0
-9.0,-214.0,25.0,1346.0,-224.0,416.0,-73.0,-892.0,118.0
-10.0,-223.0,45.0,1419.0,-199.0,416.0,-71.0,-893.0,190.0
-22.0,-213.0,50.0,1520.0,-188.0,420.0,-63.0,-868.0,206.0
-21.0,-217.0,50.0,1627.0,-181.0,423.0,-118.0,-903.0,220.0
-24.0,-216.0,60.0,1714.0,-188.0,420.0,-117.0,-875.0,237.0
-20.0,-214.0,67.0,1791.0,-197.0,424.0,-121.0,-878.0,270.0
-22.0,-203.0,66.0,1862.0,-205.0,425.0,-107.0,-855.0,276.0
-18.0,-220.0,69.0,1919.0,-189.0,420.0,-103.0,-901.0,275.0
-23.0,-215.0,69.0,1938.0,-186.0,376.0,-103.0,-915.0,260.0
-26.0,-218.0,75.0,1930.0,-179.0,323.0,-158.0,-912.0,335.0
-26.0,-228.0,78.0,1935.0,-178.0,300.0,-135.0,-944.0,338.0
-36.0,-233.0,81.0,1956.0,-186.0,264.0,-177.0,-960.0,334.0
-31.0,-233.0,69.0,2012.0,-184.0,254.0,-171.0,-942.0,308.0
-20.0,-232.0,77.0,2059.0,-187.0,248.0,-146.0,-941.0,315.0
-17.0,-224.0,83.0,2082.0,-180.0,232.0,-111.0,-935.0,339.0
-13.0,-226.0,94.0,2093.0,-164.0,214.0,-93.0,-946.0,391.0
-16.0,-226.0,98.0,2107.0,-162.0,195.0,-101.0,-931.0,427.0
-20.0,-217.0,110.0,2113.0,-170.0,171.0,-115.0,-911.0,452.0
-24.0,-213.0,110.0,2101.0,-176.0,140.0,-126.0,-877.0,465.0
-29.0,-204.0,112.0,2078.0,-174.0,104.0,-145.0,-850.0,456.0
-28.0,-199.0,115.0,2024.0,-170.0,68.0,-155.0,-826.0,461.0
-27.0,-192.0,116.0,1947.0,-162.0,43.0,-152.0,-813.0,482.0
-20.0,-190.0,119.0,1865.0,-148.0,29.0,-119.0,-809.0,495.0
-14.0,-191.0,120.0,1788.0,-128.0,24.0,-107.0,-805.0,509.0
-13.0,-190.0,133.0,1707.0,-107.0,30.0,-87.0,-798.0,557.0
-4.0,-194.0,142.0,1635.0,-82.0,40.0,-64.0,-811.0,598.0
-3.0,-187.0,152.0,1560.0,-56.0,53.0,-48.0,-789.0,619.0
-8.0,-183.0,162.0,1469.0,-26.0,69.0,-65.0,-771.0,660.0
-47.0,-207.0,145.0,1336.0,21.0,83.0,-225.0,-907.0,620.0
0.0,-145.0,176.0,1132.0,70.0,79.0,-82.0,-639.0,739.0
-17.0,-155.0,199.0,865.0,124.0,112.0,-124.0,-682.0,826.0
-30.0,-176.0,204.0,505.0,175.0,141.0,-191.0,-816.0,799.0
-56.0,-167.0,225.0,43.0,211.0,155.0,-251.0,-765.0,882.0
-48.0,-190.0,252.0,-386.0,223.0,156.0,-217.0,-837.0,999.0
-68.0,-216.0,259.0,-737.0,205.0,159.0,-325.0,-939.0,1098.0
-43.0,-257.0,263.0,-1061.0,132.0,184.0,-195.0,-1075.0,1063.0
-34.0,-229.0,320.0,-1384.0,46.0,147.0,-203.0,-942.0,1290.0
-29.0,-335.0,319.0,-1524.0,-35.0,112.0,-152.0,-1293.0,1319.0
-56.0,-429.0,221.0,-1527.0,-124.0,69.0,-270.0,-1779.0,920.0
-59.0,-397.0,286.0,-1381.0,-207.0,38.0,-236.0,-1553.0,1143.0
-66.0,-449.0,207.0,-806.0,-316.0,-50.0,-319.0,-1685.0,911.0
-60.0,-476.0,144.0,-101.0,-373.0,-103.0,-287.0,-1895.0,602.0
-59.0,-493.0,101.0,496.0,-403.0,-126.0,-253.0,-1942.0,442.0
-52.0,-492.0,21.0,989.0,-410.0,-127.0,-225.0,-1960.0,137.0
-52.0,-478.0,-14.0,1369.0,-371.0,-122.0,-227.0,-1934.0,-22.0
-96.0,-477.0,-15.0,1630.0,-303.0,-113.0,-380.0,-1947.0,-50.0
-94.0,-507.0,11.0,1779.0,-229.0,-105.0,-393.0,-2048.0,55.0
-99.0,-533.0,27.0,1915.0,-190.0,-123.0,-393.0,-2177.0,143.0
-51.0,-556.0,73.0,2078.0,-147.0,-142.0,-256.0,-2233.0,343.0
-78.0,-573.0,134.0,2293.0,-110.0,-192.0,-363.0,-2282.0,563.0
-131.0,-599.0,167.0,2580.0,-32.0,-256.0,-559.0,-2429.0,712.0
-134.0,-647.0,224.0,2802.0,47.0,-307.0,-582.0,-2624.0,914.0
-134.0,-674.0,246.0,2924.0,112.0,-313.0,-572.0,-2763.0,1032.0
-124.0,-720.0,265.0,2986.0,145.0,-321.0,-531.0,-2934.0,1107.0
-107.0,-758.0,307.0,3055.0,138.0,-330.0,-493.0,-3085.0,1252.0
-82.0,-757.0,356.0,3144.0,133.0,-291.0,-394.0,-3099.0,1452.0
-30.0,-721.0,378.0,3236.0,108.0,-221.0,-237.0,-3105.0,1462.0
1.0,-645.0,391.0,3355.0,59.0,-175.0,-33.0,-2577.0,1621.0
14.0,-544.0,368.0,3654.0,27.0,-240.0,-2.0,-2223.0,1567.0
31.0,-428.0,307.0,3939.0,-31.0,-330.0,96.0,-1799.0,1301.0
60.0,-322.0,245.0,4089.0,-117.0,-464.0,163.0,-1399.0,1063.0
75.0,-253.0,203.0,4109.0,-173.0,-621.0,239.0,-1055.0,874.0
84.0,-163.0,162.0,4020.0,-127.0,-785.0,258.0,-726.0,694.0
77.0,-90.0,145.0,3813.0,39.0,-902.0,224.0,-457.0,622.0
43.0,-39.0,123.0,3516.0,284.0,-938.0,129.0,-234.0,505.0
-6.0,-19.0,102.0,3157.0,483.0,-850.0,-18.0,-134.0,422.0
-50.0,-22.0,101.0,2790.0,577.0,-705.0,-251.0,-157.0,403.0
-90.0,-54.0,96.0,2505.0,567.0,-535.0,-413.0,-270.0,375.0
-97.0,-92.0,77.0,2344.0,466.0,-362.0,-405.0,-410.0,320.0
-91.0,-148.0,56.0,2265.0,278.0,-170.0,-385.0,-610.0,208.0
-40.0,-196.0,49.0,2228.0,96.0,5.0,-209.0,-791.0,206.0
10.0,-221.0,68.0,2213.0,-16.0,97.0,24.0,-928.0,294.0
51.0,-260.0,87.0,2240.0,-58.0,107.0,161.0,-1044.0,367.0
71.0,-277.0,96.0,2343.0,-44.0,67.0,239.0,-1119.0,404.0
77.0,-288.0,91.0,2526.0,1.0,32.0,270.0,-1157.0,397.0
77.0,-289.0,77.0,2764.0,67.0,9.0,256.0,-1148.0,348.0
78.0,-278.0,74.0,3009.0,145.0,-15.0,280.0,-1130.0,324.0
73.0,-263.0,71.0,3225.0,192.0,-54.0,255.0,-1057.0,309.0
48.0,-219.0,73.0,3411.0,232.0,-124.0,163.0,-921.0,308.0
19.0,-169.0,67.0,3564.0,277.0,-214.0,57.0,-720.0,300.0
0.0,-111.0,70.0,3692.0,305.0,-277.0,-44.0,-518.0,286.0
-32.0,-63.0,65.0,3780.0,313.0,-341.0,-144.0,-279.0,283.0
-61.0,-3.0,61.0,3810.0,314.0,-387.0,-262.0,-80.0,252.0
-92.0,37.0,49.0,3772.0,313.0,-407.0,-386.0,80.0,224.0
-112.0,67.0,66.0,3673.0,294.0,-358.0,-465.0,200.0,266.0
-103.0,72.0,75.0,3510.0,244.0,-234.0,-432.0,228.0,312.0
-75.0,64.0,108.0,3257.0,193.0,-113.0,-364.0,170.0,442.0
-81.0,27.0,155.0,2964.0,180.0,-45.0,-350.0,47.0,634.0
-63.0,-38.0,223.0,2730.0,202.0,-20.0,-296.0,-159.0,909.0
-81.0,-113.0,286.0,2655.0,190.0,-31.0,-361.0,-447.0,1139.0
-107.0,-144.0,305.0,2744.0,112.0,-75.0,-469.0,-578.0,1212.0
-86.0,-124.0,277.0,2906.0,21.0,-51.0,-383.0,-516.0,1141.0
-101.0,-117.0,311.0,2998.0,-33.0,-49.0,-472.0,-465.0,1272.0
-88.0,-84.0,345.0,3158.0,-3.0,-41.0,-463.0,-371.0,1380.0
-105.0,-30.0,336.0,3399.0,4.0,-50.0,-487.0,-153.0,1392.0
-129.0,-1.0,349.0,3563.0,-59.0,-19.0,-548.0,-7.0,1433.0
-132.0,35.0,378.0,3740.0,-283.0,32.0,-583.0,128.0,1544.0
-119.0,84.0,344.0,3874.0,-498.0,-21.0,-561.0,285.0,1416.0
-104.0,135.0,315.0,3876.0,-477.0,-172.0,-524.0,468.0,1288.0
-98.0,144.0,289.0,3805.0,-286.0,-216.0,-510.0,542.0,1206.0
-89.0,128.0,282.0,3739.0,-41.0,-78.0,-452.0,490.0,1146.0
-69.0,133.0,298.0,3692.0,114.0,75.0,-352.0,495.0,1226.0
-58.0,165.0,314.0,3655.0,147.0,189.0,-276.0,589.0,1257.0
-51.0,196.0,311.0,3556.0,78.0,206.0,-206.0,730.0,1277.0
-70.0,222.0,294.0,3364.0,-49.0,136.0,-323.0,832.0,1200.0
-96.0,254.0,272.0,3113.0,-161.0,86.0,-437.0,945.0,1082.0
-94.0,243.0,260.0,2809.0,-202.0,88.0,-460.0,902.0,1045.0
-94.0,237.0,264.0,2510.0,-205.0,76.0,-422.0,892.0,1085.0
-72.0,218.0,293.0,2292.0,-245.0,90.0,-338.0,835.0,1105.0
-68.0,209.0,277.0,2106.0,-321.0,86.0,-298.0,791.0,1115.0
-36.0,196.0,278.0,1913.0,-377.0,34.0,-217.0,743.0,1137.0
-16.0,174.0,276.0,1729.0,-426.0,-32.0,-118.0,668.0,1118.0
-11.0,148.0,246.0,1606.0,-485.0,-73.0,-108.0,564.0,1003.0
-2.0,113.0,211.0,1527.0,-516.0,-92.0,-78.0,447.0,878.0
4.0,92.0,207.0,1482.0,-475.0,-111.0,-46.0,343.0,839.0
4.0,81.0,212.0,1481.0,-386.0,-128.0,-51.0,315.0,862.0
0.0,90.0,234.0,1512.0,-277.0,-144.0,-71.0,334.0,951.0
-16.0,106.0,253.0,1532.0,-169.0,-176.0,-123.0,391.0,1037.0
-34.0,98.0,252.0,1494.0,-119.0,-203.0,-169.0,368.0,1032.0
-38.0,81.0,239.0,1442.0,-192.0,-226.0,-168.0,286.0,965.0
-30.0,78.0,223.0,1400.0,-324.0,-281.0,-167.0,274.0,909.0
-26.0,101.0,252.0,1325.0,-351.0,-342.0,-186.0,336.0,995.0
-41.0,105.0,285.0,1169.0,-229.0,-374.0,-224.0,382.0,1132.0
-46.0,73.0,283.0,994.0,-157.0,-343.0,-214.0,257.0,1160.0
-26.0,26.0,238.0,913.0,-296.0,-289.0,-122.0,86.0,995.0
-1.0,-6.0,180.0,921.0,-523.0,-266.0,-63.0,-38.0,722.0
28.0,-22.0,148.0,984.0,-603.0,-234.0,47.0,-91.0,624.0
46.0,-34.0,142.0,1102.0,-513.0,-193.0,103.0,-120.0,586.0
40.0,-21.0,154.0,1282.0,-352.0,-157.0,102.0,-67.0,628.0
36.0,-2.0,156.0,1494.0,-260.0,-127.0,95.0,14.0,652.0
37.0,31.0,153.0,1689.0,-257.0,-112.0,98.0,134.0,628.0
40.0,67.0,147.0,1841.0,-265.0,-114.0,111.0,263.0,602.0
38.0,115.0,154.0,1946.0,-249.0,-113.0,112.0,417.0,626.0
44.0,146.0,186.0,1998.0,-200.0,-109.0,88.0,584.0,760.0
36.0,225.0,284.0,1956.0,-88.0,-116.0,53.0,845.0,1136.0
9.0,289.0,376.0,1738.0,87.0,-133.0,-20.0,1073.0,1502.0
-8.0,261.0,370.0,1361.0,122.0,-126.0,-62.0,1010.0,1534.0
5.0,185.0,301.0,978.0,-157.0,-94.0,-10.0,743.0,1260.0
21.0,142.0,232.0,697.0,-521.0,-130.0,22.0,529.0,959.0
32.0,102.0,196.0,491.0,-628.0,-174.0,43.0,378.0,809.0
34.0,57.0,199.0,381.0,-489.0,-158.0,61.0,236.0,823.0
21.0,26.0,196.0,398.0,-325.0,-130.0,34.0,115.0,810.0
16.0,13.0,180.0,486.0,-245.0,-115.0,16.0,47.0,756.0
7.0,10.0,173.0,591.0,-226.0,-116.0,-1.0,36.0,699.0
10.0,25.0,163.0,717.0,-220.0,-109.0,5.0,90.0,663.0
11.0,54.0,159.0,859.0,-205.0,-101.0,-5.0,183.0,659.0
9.0,98.0,176.0,988.0,-173.0,-96.0,-19.0,378.0,707.0
3.0,141.0,199.0,1069.0,-119.0,-94.0,-51.0,564.0,823.0
-3.0,192.0,224.0,1058.0,-42.0,-102.0,-93.0,753.0,912.0
-15.0,225.0,250.0,935.0,16.0,-112.0,-137.0,866.0,1002.0
-26.0,227.0,250.0,735.0,0.0,-105.0,-147.0,871.0,1004.0
-10.0,198.0,219.0,536.0,-116.0,-74.0,-96.0,776.0,890.0
0.0,177.0,191.0,383.0,-224.0,-60.0,-54.0,659.0,766.0
12.0,142.0,172.0,292.0,-251.0,-45.0,-11.0,549.0,705.0
17.0,123.0,179.0,261.0,-208.0,-36.0,7.0,473.0,715.0
17.0,106.0,189.0,262.0,-153.0,-27.0,17.0,408.0,759.0
18.0,87.0,190.0,285.0,-145.0,-24.0,23.0,351.0,789.0
22.0,79.0,190.0,340.0,-173.0,-22.0,40.0,293.0,772.0
24.0,69.0,180.0,423.0,-199.0,-30.0,40.0,262.0,739.0
21.0,65.0,175.0,532.0,-201.0,-42.0,32.0,257.0,720.0
18.0,75.0,181.0,659.0,-176.0,-48.0,27.0,281.0,723.0
15.0,95.0,189.0,785.0,-148.0,-45.0,16.0,350.0,753.0
12.0,113.0,195.0,883.0,-120.0,-43.0,-6.0,430.0,791.0
7.0,138.0,212.0,935.0,-84.0,-35.0,-21.0,523.0,850.0
3.0,163.0,212.0,942.0,-71.0,-32.0,-25.0,608.0,854.0
7.0,179.0,219.0,903.0,-68.0,-29.0,-22.0,671.0,876.0
6.0,190.0,219.0,809.0,-68.0,-26.0,-21.0,724.0,885.0
13.0,191.0,217.0,719.0,-82.0,-12.0,-5.0,740.0,866.0
17.0,194.0,206.0,638.0,-95.0,2.0,21.0,742.0,838.0
20.0,192.0,210.0,571.0,-81.0,15.0,25.0,747.0,849.0
19.0,196.0,219.0,514.0,-50.0,31.0,26.0,746.0,864.0
25.0,193.0,220.0,464.0,-18.0,45.0,38.0,757.0,884.0
28.0,194.0,216.0,421.0,-4.0,52.0,40.0,762.0,870.0
20.0,195.0,206.0,386.0,-8.0,51.0,33.0,758.0,843.0
23.0,193.0,202.0,357.0,-5.0,57.0,32.0,757.0,838.0
23.0,194.0,207.0,323.0,8.0,53.0,26.0,757.0,838.0
13.0,197.0,203.0,288.0,31.0,45.0,2.0,764.0,834.0
9.0,187.0,201.0,250.0,47.0,41.0,-11.0,725.0,828.0
5.0,183.0,201.0,212.0,65.0,19.0,-33.0,692.0,835.0
0.0,172.0,213.0,187.0,95.0,-1.0,-64.0,667.0,853.0
0.0,159.0,211.0,174.0,121.0,-13.0,-62.0,629.0,866.0
-4.0,152.0,215.0,159.0,126.0,-40.0,-66.0,603.0,870.0
-2.0,148.0,217.0,151.0,123.0,-71.0,-73.0,575.0,870.0
-7.0,144.0,219.0,148.0,127.0,-90.0,-85.0,558.0,881.0
-4.0,141.0,218.0,142.0,122.0,-106.0,-79.0,551.0,881.0
-4.0,139.0,211.0,131.0,119.0,-122.0,-65.0,528.0,859.0
-3.0,136.0,208.0,112.0,125.0,-142.0,-82.0,509.0,842.0
-3.0,130.0,205.0,86.0,138.0,-151.0,-101.0,493.0,835.0
-9.0,123.0,211.0,67.0,152.0,-146.0,-99.0,479.0,841.0
-17.0,125.0,213.0,53.0,172.0,-146.0,-115.0,480.0,852.0
-22.0,129.0,217.0,41.0,188.0,-147.0,-132.0,486.0,867.0
-25.0,130.0,214.0,26.0,186.0,-138.0,-147.0,496.0,865.0
-26.0,133.0,208.0,-1.0,164.0,-131.0,-154.0,499.0,843.0
-25.0,135.0,205.0,-36.0,140.0,-128.0,-150.0,512.0,839.0
-24.0,136.0,208.0,-76.0,120.0,-120.0,-135.0,517.0,835.0
-18.0,134.0,211.0,-121.0,110.0,-103.0,-125.0,514.0,844.0
-15.0,132.0,213.0,-166.0,104.0,-88.0,-118.0,512.0,857.0
-13.0,136.0,217.0,-209.0,102.0,-70.0,-107.0,510.0,870.0
-5.0,128.0,218.0,-250.0,101.0,-52.0,-93.0,504.0,869.0
-8.0,128.0,211.0,-284.0,102.0,-34.0,-85.0,489.0,863.0
-4.0,128.0,213.0,-309.0,106.0,-18.0,-83.0,480.0,864.0
-1.0,123.0,214.0,-326.0,116.0,-3.0,-81.0,470.0,869.0
-5.0,127.0,216.0,-334.0,130.0,9.0,-85.0,471.0,880.0
-6.0,125.0,221.0,-341.0,146.0,18.0,-85.0,473.0,886.0
-15.0,125.0,228.0,-352.0,162.0,23.0,-104.0,468.0,909.0
-17.0,118.0,234.0,-360.0,172.0,32.0,-118.0,448.0,943.0
-18.0,115.0,235.0,-357.0,171.0,39.0,-120.0,428.0,973.0
-14.0,113.0,236.0,-340.0,167.0,40.0,-114.0,429.0,957.0
-18.0,117.0,234.0,-321.0,165.0,40.0,-122.0,433.0,960.0
-16.0,118.0,234.0,-308.0,163.0,39.0,-126.0,445.0,932.0
-19.0,116.0,226.0,-304.0,156.0,40.0,-124.0,450.0,918.0
-15.0,120.0,225.0,-303.0,143.0,52.0,-114.0,451.0,913.0
-11.0,124.0,225.0,-307.0,135.0,58.0,-104.0,464.0,919.0
-6.0,125.0,228.0,-319.0,136.0,58.0,-87.0,469.0,916.0
-5.0,123.0,226.0,-335.0,135.0,52.0,-75.0,458.0,915.0
0.0,118.0,228.0,-344.0,123.0,48.0,-57.0,447.0,909.0
5.0,119.0,222.0,-341.0,119.0,47.0,-36.0,448.0,907.0
8.0,118.0,230.0,-336.0,128.0,44.0,-25.0,447.0,920.0
9.0,118.0,231.0,-338.0,142.0,38.0,-22.0,452.0,942.0
6.0,124.0,240.0,-346.0,161.0,35.0,-21.0,453.0,979.0
9.0,120.0,246.0,-363.0,178.0,31.0,-20.0,444.0,996.0
5.0,113.0,242.0,-375.0,187.0,26.0,-22.0,422.0,991.0
7.0,104.0,242.0,-379.0,188.0,20.0,-19.0,409.0,991.0
2.0,110.0,245.0,-373.0,193.0,12.0,-42.0,397.0,987.0
3.0,102.0,245.0,-364.0,198.0,2.0,-46.0,409.0,1003.0
-2.0,106.0,246.0,-364.0,199.0,-6.0,-69.0,403.0,1009.0
-4.0,110.0,251.0,-376.0,193.0,-16.0,-81.0,405.0,1022.0
-13.0,104.0,251.0,-392.0,182.0,-29.0,-98.0,394.0,1018.0
-13.0,104.0,254.0,-403.0,170.0,-41.0,-111.0,382.0,1022.0
-14.0,100.0,252.0,-401.0,149.0,-44.0,-109.0,374.0,1010.0
-16.0,96.0,247.0,-394.0,128.0,-48.0,-120.0,363.0,999.0
-17.0,99.0,244.0,-385.0,104.0,-52.0,-121.0,360.0,993.0
-17.0,95.0,247.0,-378.0,82.0,-54.0,-117.0,358.0,992.0
-14.0,93.0,245.0,-370.0,66.0,-54.0,-112.0,345.0,999.0
-14.0,91.0,248.0,-362.0,54.0,-56.0,-103.0,331.0,1000.0
-8.0,85.0,249.0,-355.0,38.0,-60.0,-92.0,319.0,1005.0
-12.0,85.0,244.0,-346.0,20.0,-58.0,-103.0,314.0,998.0
-7.0,79.0,245.0,-327.0,10.0,-54.0,-89.0,310.0,985.0
-12.0,83.0,241.0,-305.0,-3.0,-51.0,-106.0,306.0,984.0
-11.0,83.0,251.0,-291.0,-8.0,-48.0,-109.0,314.0,1009.0
-15.0,86.0,251.0,-285.0,-15.0,-49.0,-104.0,318.0,1031.0
-13.0,87.0,249.0,-293.0,-26.0,-50.0,-112.0,313.0,1012.0
-11.0,83.0,252.0,-305.0,-35.0,-48.0,-103.0,306.0,1002.0
-11.0,84.0,251.0,-313.0,-44.0,-43.0,-95.0,297.0,1003.0
-6.0,78.0,245.0,-318.0,-47.0,-38.0,-95.0,295.0,1003.0
-8.0,77.0,249.0,-324.0,-51.0,-32.0,-93.0,291.0,1006.0
-9.0,78.0,247.0,-327.0,-51.0,-25.0,-91.0,291.0,1003.0
-4.0,80.0,241.0,-327.0,-53.0,-17.0,-85.0,286.0,990.0
-5.0,75.0,243.0,-324.0,-53.0,-7.0,-82.0,279.0,984.0
-1.0,72.0,238.0,-316.0,-53.0,3.0,-64.0,271.0,974.0
-1.0,70.0,231.0,-301.0,-57.0,11.0,-61.0,254.0,942.0
0.0,67.0,233.0,-278.0,-58.0,18.0,-59.0,254.0,945.0
4.0,66.0,231.0,-256.0,-52.0,25.0,-50.0,248.0,970.0
0.0,67.0,240.0,-237.0,-46.0,27.0,-55.0,247.0,981.0
1.0,65.0,238.0,-224.0,-46.0,28.0,-40.0,243.0,995.0
2.0,65.0,239.0,-211.0,-48.0,26.0,-46.0,232.0,977.0
2.0,63.0,241.0,-191.0,-43.0,26.0,-45.0,232.0,992.0
1.0,66.0,244.0,-170.0,-39.0,24.0,-49.0,244.0,1014.0
-3.0,71.0,255.0,-164.0,-33.0,20.0,-61.0,255.0,1028.0
-4.0,75.0,256.0,-168.0,-30.0,13.0,-73.0,262.0,1027.0
-5.0,75.0,248.0,-178.0,-37.0,6.0,-72.0,271.0,1015.0
-7.0,73.0,241.0,-187.0,-40.0,-3.0,-98.0,264.0,1000.0
-12.0,71.0,249.0,-189.0,-33.0,-8.0,-96.0,265.0,1002.0
-16.0,75.0,250.0,-188.0,-32.0,-15.0,-115.0,261.0,1015.0
-13.0,68.0,250.0,-193.0,-38.0,-19.0,-116.0,258.0,1013.0
-15.0,69.0,248.0,-195.0,-47.0,-21.0,-114.0,254.0,990.0
-14.0,67.0,242.0,-193.0,-53.0,-17.0,-121.0,254.0,985.0
-11.0,73.0,246.0,-188.0,-55.0,-12.0,-105.0,276.0,998.0
-14.0,80.0,248.0,-195.0,-57.0,-4.0,-111.0,274.0,1002.0
-12.0,78.0,244.0,-207.0,-60.0,1.0,-108.0,292.0,1009.0
-16.0,79.0,250.0,-221.0,-67.0,3.0,-110.0,282.0,994.0
-12.0,74.0,243.0,-229.0,-75.0,5.0,-100.0,270.0,985.0
-10.0,69.0,238.0,-228.0,-83.0,5.0,-96.0,259.0,966.0
-7.0,72.0,236.0,-216.0,-82.0,5.0,-87.0,258.0,947.0
-8.0,74.0,231.0,-199.0,-76.0,4.0,-89.0,278.0,955.0
-5.0,81.0,241.0,-193.0,-60.0,1.0,-81.0,287.0,965.0
-8.0,82.0,235.0,-205.0,-48.0,-1.0,-84.0,290.0,968.0
-3.0,72.0,238.0,-225.0,-48.0,3.0,-82.0,273.0,950.0
-3.0,69.0,232.0,-237.0,-55.0,8.0,-71.0,248.0,937.0
-5.0,64.0,233.0,-230.0,-53.0,17.0,-71.0,234.0,943.0
-5.0,64.0,237.0,-203.0,-45.0,22.0,-82.0,244.0,966.0
-1.0,68.0,244.0,-168.0,-33.0,27.0,-59.0,262.0,996.0
-9.0,74.0,244.0,-147.0,-23.0,26.0,-99.0,268.0,995.0
-18.0,74.0,247.0,-145.0,-5.0,19.0,-122.0,272.0,1013.0
-16.0,68.0,247.0,-157.0,-20.0,14.0,-118.0,254.0,1006.0
-17.0,66.0,246.0,-160.0,-38.0,3.0,-115.0,243.0,988.0
-11.0,66.0,251.0,-145.0,-39.0,-7.0,-91.0,250.0,1015.0
-6.0,68.0,251.0,-130.0,-40.0,-14.0,-91.0,264.0,1026.0
-7.0,73.0,250.0,-120.0,-44.0,-24.0,-91.0,278.0,1011.0
-7.0,73.0,242.0,-118.0,-54.0,-30.0,-85.0,266.0,987.0
-6.0,69.0,238.0,-115.0,-58.0,-31.0,-91.0,256.0,977.0
-10.0,67.0,239.0,-102.0,-55.0,-28.0,-94.0,242.0,972.0
-9.0,64.0,236.0,-84.0,-58.0,-22.0,-83.0,237.0,962.0
-2.0,62.0,238.0,-59.0,-65.0,-14.0,-66.0,225.0,967.0
-3.0,80.0,251.0,-31.0,-66.0,-6.0,-64.0,233.0,970.0
0.0,64.0,240.0,-4.0,-63.0,0.0,-64.0,230.0,975.0
-1.0,67.0,244.0,15.0,-50.0,-2.0,-67.0,253.0,993.0
0.0,71.0,239.0,25.0,-46.0,1.0,-54.0,245.0,1000.0
-2.0,71.0,243.0,24.0,-55.0,5.0,-71.0,255.0,993.0
3.0,68.0,244.0,19.0,-66.0,10.0,-60.0,255.0,991.0
2.0,69.0,241.0,11.0,-71.0,13.0,-53.0,259.0,995.0
3.0,72.0,253.0,2.0,-58.0,16.0,-43.0,267.0,1029.0
1.0,73.0,257.0,-19.0,-39.0,11.0,-44.0,268.0,1044.0
1.0,73.0,256.0,-65.0,-33.0,10.0,-52.0,264.0,1050.0
7.0,63.0,253.0,-106.0,-41.0,10.0,-49.0,245.0,1028.0
9.0,63.0,250.0,-128.0,-46.0,10.0,-23.0,221.0,1023.0
3.0,58.0,251.0,-137.0,-39.0,11.0,-44.0,213.0,1019.0
2.0,59.0,252.0,-136.0,-25.0,7.0,-43.0,203.0,1023.0
0.0,60.0,247.0,-129.0,-22.0,2.0,-49.0,197.0,1011.0
0.0,59.0,246.0,-118.0,-24.0,-5.0,-45.0,197.0,1000.0
1.0,59.0,247.0,-107.0,-27.0,-9.0,-45.0,204.0,987.0
5.0,59.0,242.0,-97.0,-28.0,-14.0,-45.0,203.0,995.0
0.0,59.0,241.0,-79.0,-29.0,-15.0,-53.0,206.0,996.0
1.0,60.0,238.0,-57.0,-30.0,-14.0,-53.0,213.0,984.0
2.0,59.0,237.0,-33.0,-34.0,-15.0,-56.0,213.0,974.0
2.0,63.0,240.0,-8.0,-36.0,-16.0,-27.0,210.0,969.0
0.0,65.0,235.0,15.0,-28.0,-25.0,-55.0,233.0,972.0
1.0,64.0,240.0,33.0,-24.0,-15.0,-48.0,244.0,987.0
1.0,66.0,241.0,43.0,-28.0,-6.0,-47.0,241.0,986.0
2.0,69.0,240.0,49.0,-29.0,-7.0,-42.0,251.0,977.0
2.0,72.0,234.0,50.0,-22.0,-11.0,-45.0,254.0,976.0
0.0,72.0,242.0,47.0,-19.0,-5.0,-56.0,267.0,975.0
-9.0,66.0,235.0,39.0,-25.0,2.0,-69.0,260.0,968.0
4.0,73.0,246.0,31.0,-24.0,3.0,-37.0,265.0,1000.0
5.0,73.0,253.0,17.0,-27.0,6.0,-28.0,261.0,1011.0
5.0,69.0,251.0,-5.0,-16.0,-1.0,-36.0,255.0,1025.0
0.0,71.0,251.0,-27.0,0.0,-9.0,-50.0,250.0,1029.0
1.0,64.0,251.0,-47.0,3.0,-13.0,-59.0,225.0,1022.0
1.0,61.0,251.0,-61.0,-4.0,-13.0,-54.0,215.0,1017.0
3.0,58.0,245.0,-61.0,-9.0,-15.0,-44.0,205.0,1001.0
2.0,58.0,244.0,-46.0,2.0,-18.0,-35.0,199.0,994.0
-1.0,61.0,243.0,-30.0,18.0,-23.0,-50.0,210.0,1000.0
6.0,63.0,248.0,-11.0,27.0,-20.0,-36.0,222.0,1016.0
5.0,61.0,246.0,2.0,21.0,-16.0,-26.0,224.0,1005.0
8.0,61.0,246.0,12.0,10.0,-17.0,-30.0,216.0,991.0
7.0,62.0,246.0,20.0,17.0,-19.0,-32.0,213.0,994.0
2.0,63.0,240.0,28.0,31.0,-24.0,-34.0,219.0,1002.0
9.0,68.0,247.0,34.0,44.0,-31.0,-51.0,230.0,1001.0
-4.0,67.0,248.0,35.0,49.0,-26.0,-76.0,244.0,1015.0
-4.0,69.0,258.0,33.0,43.0,-19.0,-74.0,251.0,1025.0
0.0,70.0,255.0,21.0,38.0,-22.0,-59.0,252.0,1038.0
-13.0,70.0,252.0,-2.0,43.0,-33.0,-108.0,255.0,1027.0
-1.0,74.0,258.0,-31.0,55.0,-37.0,-48.0,263.0,1036.0
0.0,69.0,254.0,-65.0,33.0,-38.0,-61.0,257.0,1019.0
0.0,67.0,248.0,-95.0,4.0,-32.0,-54.0,239.0,1001.0
2.0,65.0,241.0,-111.0,-9.0,-28.0,-51.0,234.0,980.0
4.0,63.0,242.0,-116.0,-4.0,-29.0,-41.0,223.0,980.0
4.0,65.0,244.0,-116.0,14.0,-35.0,-41.0,229.0,983.0
2.0,65.0,244.0,-115.0,33.0,-37.0,-44.0,233.0,990.0
-2.0,66.0,247.0,-117.0,44.0,-37.0,-90.0,229.0,990.0
3.0,67.0,251.0,-116.0,44.0,-39.0,-37.0,240.0,1018.0
3.0,63.0,245.0,-117.0,18.0,-36.0,-39.0,231.0,1002.0
3.0,64.0,240.0,-115.0,12.0,-37.0,-47.0,234.0,987.0
0.0,67.0,243.0,-105.0,25.0,-38.0,-50.0,229.0,987.0
1.0,63.0,238.0,-90.0,38.0,-42.0,-47.0,222.0,972.0
-3.0,66.0,241.0,-77.0,56.0,-51.0,-76.0,229.0,986.0
-10.0,61.0,245.0,-67.0,55.0,-43.0,-83.0,211.0,991.0
-3.0,61.0,248.0,-55.0,40.0,-44.0,-60.0,213.0,1007.0
2.0,59.0,246.0,-44.0,21.0,-48.0,-55.0,212.0,1000.0
-3.0,62.0,251.0,-42.0,15.0,-53.0,-58.0,214.0,1011.0
-9.0,59.0,256.0,-40.0,25.0,-59.0,-92.0,210.0,1017.0
-11.0,58.0,250.0,-38.0,36.0,-60.0,-97.0,206.0,1028.0
-11.0,60.0,253.0,-37.0,35.0,-58.0,-94.0,202.0,1028.0
-9.0,57.0,252.0,-38.0,25.0,-57.0,-95.0,206.0,1027.0
-33.0,54.0,241.0,-40.0,18.0,-59.0,-123.0,198.0,1023.0
-2.0,59.0,252.0,-38.0,18.0,-64.0,-60.0,207.0,1043.0
-5.0,61.0,252.0,-39.0,4.0,-72.0,-82.0,215.0,1020.0
-9.0,60.0,252.0,-43.0,0.0,-74.0,-97.0,221.0,1008.0
-12.0,62.0,249.0,-44.0,-5.0,-75.0,-99.0,222.0,999.0
-11.0,65.0,244.0,-42.0,-11.0,-76.0,-100.0,223.0,990.0
-4.0,64.0,244.0,-46.0,-14.0,-71.0,-90.0,226.0,989.0
-7.0,64.0,239.0,-49.0,-10.0,-69.0,-84.0,235.0,990.0
-4.0,64.0,241.0,-55.0,-2.0,-65.0,-84.0,227.0,985.0
-8.0,65.0,244.0,-59.0,4.0,-62.0,-89.0,229.0,982.0
-8.0,63.0,241.0,-67.0,6.0,-54.0,-92.0,230.0,990.0
-3.0,65.0,242.0,-73.0,4.0,-45.0,-94.0,228.0,989.0
-9.0,63.0,239.0,-77.0,6.0,-35.0,-93.0,223.0,981.0
-3.0,65.0,244.0,-77.0,15.0,-28.0,-51.0,228.0,1002.0
0.0,62.0,240.0,-75.0,6.0,-17.0,-51.0,219.0,987.0
1.0,61.0,242.0,-75.0,11.0,-10.0,-44.0,218.0,992.0
2.0,63.0,242.0,-75.0,22.0,-4.0,-54.0,211.0,994.0
0.0,64.0,245.0,-75.0,26.0,0.0,-53.0,217.0,994.0
-2.0,63.0,244.0,-78.0,30.0,3.0,-59.0,220.0,991.0
0.0,63.0,248.0,-83.0,38.0,6.0,-62.0,214.0,997.0
-2.0,63.0,246.0,-88.0,40.0,6.0,-61.0,212.0,1008.0
-1.0,60.0,248.0,-94.0,41.0,8.0,-56.0,203.0,1016.0
0.0,57.0,249.0,-99.0,39.0,10.0,-60.0,202.0,1011.0
0.0,52.0,250.0,-99.0,39.0,9.0,-63.0,180.0,1016.0
1.0,47.0,250.0,-93.0,38.0,10.0,-52.0,170.0,1012.0
1.0,47.0,246.0,-82.0,34.0,9.0,-51.0,161.0,1002.0
0.0,45.0,248.0,-72.0,35.0,4.0,-62.0,153.0,1012.0
0.0,46.0,250.0,-64.0,34.0,-4.0,-59.0,151.0,1015.0
-1.0,45.0,250.0,-55.0,35.0,-9.0,-66.0,158.0,1026.0
0.0,48.0,254.0,-45.0,35.0,-14.0,-61.0,162.0,1026.0
2.0,50.0,252.0,-39.0,35.0,-18.0,-59.0,162.0,1037.0
0.0,49.0,256.0,-42.0,33.0,-21.0,-64.0,162.0,1037.0
0.0,45.0,251.0,-44.0,29.0,-24.0,-62.0,156.0,1022.0
-1.0,40.0,247.0,-38.0,24.0,-27.0,-61.0,150.0,1005.0
0.0,43.0,243.0,-23.0,24.0,-25.0,-57.0,148.0,1001.0
-1.0,50.0,250.0,-13.0,27.0,-24.0,-60.0,161.0,1003.0
-1.0,51.0,253.0,-10.0,29.0,-24.0,-63.0,173.0,1018.0
0.0,54.0,251.0,-16.0,28.0,-27.0,-61.0,180.0,1017.0
-3.0,55.0,249.0,-29.0,25.0,-28.0,-59.0,182.0,1010.0
1.0,57.0,247.0,-43.0,27.0,-26.0,-59.0,190.0,1010.0
-1.0,57.0,246.0,-56.0,31.0,-23.0,-63.0,195.0,1008.0
-1.0,59.0,250.0,-65.0,34.0,-19.0,-55.0,199.0,1006.0
1.0,56.0,244.0,-73.0,34.0,-19.0,-60.0,196.0,993.0
-5.0,56.0,241.0,-83.0,38.0,-16.0,-64.0,190.0,981.0
3.0,56.0,249.0,-85.0,48.0,-17.0,-26.0,189.0,1022.0
1.0,52.0,242.0,-85.0,34.0,-14.0,-44.0,175.0,992.0
0.0,48.0,240.0,-81.0,41.0,-13.0,-56.0,166.0,995.0
0.0,49.0,242.0,-65.0,49.0,-12.0,-62.0,154.0,997.0
0.0,49.0,243.0,-45.0,46.0,-13.0,-57.0,156.0,1001.0
0.0,42.0,245.0,-31.0,44.0,-12.0,-52.0,156.0,1001.0
0.0,46.0,245.0,-21.0,45.0,-14.0,-62.0,160.0,1002.0
-2.0,49.0,247.0,-12.0,46.0,-17.0,-65.0,161.0,1015.0
0.0,46.0,250.0,-5.0,45.0,-18.0,-62.0,162.0,1014.0
-6.0,51.0,251.0,-3.0,43.0,-22.0,-67.0,171.0,1017.0
0.0,50.0,250.0,-5.0,41.0,-24.0,-68.0,168.0,1019.0
-5.0,50.0,250.0,-6.0,40.0,-27.0,-74.0,164.0,1017.0
-2.0,46.0,249.0,-7.0,39.0,-29.0,-65.0,162.0,1013.0
0.0,48.0,250.0,-5.0,38.0,-29.0,-69.0,159.0,1017.0
-3.0,51.0,251.0,-1.0,39.0,-28.0,-67.0,156.0,1015.0
0.0,46.0,250.0,5.0,39.0,-26.0,-71.0,156.0,1020.0
-1.0,46.0,249.0,11.0,40.0,-26.0,-67.0,152.0,1008.0
-6.0,47.0,249.0,18.0,41.0,-26.0,-84.0,149.0,1011.0
-9.0,46.0,251.0,24.0,42.0,-25.0,-93.0,149.0,1007.0
-8.0,43.0,251.0,30.0,43.0,-23.0,-86.0,150.0,1014.0
-10.0,47.0,255.0,33.0,43.0,-21.0,-90.0,147.0,1026.0
-10.0,43.0,250.0,38.0,42.0,-21.0,-88.0,150.0,1016.0
-5.0,45.0,255.0,43.0,42.0,-20.0,-81.0,153.0,1021.0
-7.0,50.0,254.0,43.0,43.0,-20.0,-87.0,160.0,1019.0
-3.0,49.0,251.0,41.0,43.0,-17.0,-75.0,160.0,1019.0
-5.0,52.0,247.0,39.0,42.0,-18.0,-78.0,159.0,1013.0
-3.0,44.0,251.0,37.0,42.0,-19.0,-74.0,161.0,1011.0
-3.0,46.0,248.0,35.0,43.0,-21.0,-81.0,164.0,1016.0
-7.0,50.0,249.0,34.0,43.0,-18.0,-87.0,165.0,1018.0
-7.0,49.0,248.0,32.0,43.0,-16.0,-78.0,170.0,1018.0
-4.0,48.0,254.0,29.0,43.0,-16.0,-84.0,167.0,1012.0
-7.0,52.0,246.0,26.0,44.0,-14.0,-83.0,175.0,1005.0
-4.0,52.0,245.0,19.0,42.0,-14.0,-83.0,176.0,1004.0
-3.0,51.0,251.0,12.0,41.0,-15.0,-87.0,173.0,1007.0
-8.0,51.0,249.0,8.0,40.0,-15.0,-87.0,174.0,1009.0
-8.0,52.0,247.0,7.0,40.0,-13.0,-94.0,167.0,1007.0
-6.0,47.0,250.0,14.0,40.0,-11.0,-86.0,166.0,1013.0
-9.0,48.0,252.0,26.0,40.0,-8.0,-85.0,162.0,1006.0
-5.0,48.0,244.0,40.0,37.0,-7.0,-83.0,156.0,1005.0
-8.0,46.0,247.0,55.0,36.0,-6.0,-87.0,159.0,1003.0
-7.0,45.0,246.0,69.0,34.0,-5.0,-88.0,161.0,1004.0
-3.0,48.0,248.0,80.0,31.0,-4.0,-77.0,159.0,1007.0
-2.0,46.0,247.0,88.0,26.0,-2.0,-74.0,160.0,1012.0
-3.0,48.0,249.0,93.0,25.0,-3.0,-77.0,159.0,1010.0
-2.0,46.0,253.0,99.0,23.0,-4.0,-72.0,161.0,1016.0
-4.0,47.0,248.0,104.0,20.0,-5.0,-80.0,161.0,1013.0
-5.0,48.0,248.0,107.0,16.0,-8.0,-82.0,162.0,1015.0
-8.0,46.0,250.0,110.0,14.0,-8.0,-87.0,158.0,1009.0
-7.0,49.0,249.0,116.0,13.0,-8.0,-89.0,163.0,1004.0
-4.0,48.0,244.0,122.0,11.0,-7.0,-85.0,165.0,996.0
-6.0,53.0,250.0,128.0,7.0,-5.0,-88.0,175.0,1000.0
-8.0,53.0,241.0,134.0,2.0,-4.0,-93.0,180.0,997.0
-9.0,57.0,245.0,137.0,2.0,-4.0,-87.0,182.0,994.0
-9.0,58.0,247.0,135.0,6.0,0.0,-95.0,191.0,1006.0
-6.0,57.0,244.0,126.0,14.0,-4.0,-89.0,189.0,994.0
-11.0,62.0,249.0,112.0,23.0,-8.0,-104.0,195.0,1012.0
-8.0,54.0,248.0,102.0,19.0,2.0,-99.0,185.0,1012.0
-6.0,52.0,245.0,95.0,7.0,-1.0,-90.0,187.0,1009.0
-9.0,52.0,246.0,93.0,0.0,1.0,-87.0,179.0,999.0
-10.0,53.0,247.0,97.0,0.0,0.0,-84.0,180.0,1008.0
-4.0,51.0,249.0,102.0,4.0,2.0,-90.0,177.0,996.0
-10.0,56.0,248.0,106.0,6.0,1.0,-92.0,182.0,1009.0
-7.0,53.0,251.0,110.0,6.0,2.0,-90.0,187.0,1008.0
-6.0,54.0,249.0,113.0,4.0,-1.0,-90.0,184.0,1010.0
-7.0,56.0,250.0,114.0,5.0,1.0,-88.0,190.0,1020.0
-7.0,60.0,254.0,111.0,10.0,1.0,-83.0,195.0,1032.0
-6.0,61.0,257.0,100.0,18.0,4.0,-87.0,201.0,1037.0
-5.0,57.0,256.0,83.0,24.0,3.0,-88.0,203.0,1043.0
-7.0,60.0,256.0,64.0,22.0,4.0,-90.0,195.0,1036.0
-7.0,57.0,251.0,48.0,14.0,3.0,-85.0,194.0,1019.0
-7.0,60.0,253.0,39.0,10.0,4.0,-84.0,198.0,1009.0
-1.0,52.0,244.0,31.0,12.0,1.0,-82.0,198.0,1000.0
-2.0,58.0,248.0,26.0,13.0,4.0,-79.0,197.0,1001.0
-5.0,62.0,245.0,23.0,10.0,6.0,-81.0,207.0,1002.0
-4.0,59.0,247.0,21.0,7.0,7.0,-78.0,201.0,994.0
-5.0,58.0,243.0,20.0,3.0,6.0,-74.0,200.0,995.0
0.0,56.0,244.0,22.0,-1.0,5.0,-61.0,192.0,993.0
-2.0,56.0,242.0,26.0,-4.0,3.0,-59.0,193.0,987.0
0.0,55.0,241.0,31.0,-7.0,1.0,-59.0,190.0,995.0
-2.0,56.0,243.0,33.0,-11.0,0.0,-60.0,187.0,999.0
-1.0,55.0,246.0,34.0,-15.0,1.0,-56.0,184.0,997.0
1.0,56.0,246.0,35.0,-18.0,-1.0,-63.0,191.0,1008.0
1.0,61.0,238.0,38.0,-16.0,2.0,-63.0,193.0,1007.0
0.0,56.0,252.0,39.0,-14.0,-2.0,-63.0,193.0,1005.0
-2.0,57.0,244.0,39.0,-14.0,-2.0,-55.0,188.0,999.0
0.0,56.0,242.0,37.0,-14.0,-8.0,-59.0,187.0,995.0
-6.0,59.0,247.0,36.0,-9.0,-10.0,-63.0,191.0,1000.0
-1.0,58.0,245.0,34.0,0.0,-9.0,-67.0,195.0,1006.0
-3.0,58.0,248.0,28.0,7.0,-10.0,-74.0,194.0,1015.0
-4.0,55.0,251.0,18.0,13.0,-13.0,-90.0,195.0,1025.0
-9.0,54.0,255.0,9.0,14.0,-13.0,-100.0,194.0,1037.0
-11.0,54.0,256.0,1.0,4.0,-12.0,-89.0,185.0,1037.0
-6.0,55.0,253.0,-8.0,-9.0,-13.0,-88.0,185.0,1022.0
-7.0,52.0,253.0,-16.0,-14.0,-16.0,-87.0,178.0,1029.0
-7.0,54.0,255.0,-26.0,-10.0,-14.0,-91.0,181.0,1037.0
-5.0,51.0,252.0,-35.0,-7.0,-12.0,-89.0,181.0,1040.0
-2.0,52.0,252.0,-41.0,-9.0,-12.0,-90.0,180.0,1032.0
-8.0,52.0,251.0,-46.0,-12.0,-10.0,-84.0,178.0,1023.0
-5.0,53.0,247.0,-44.0,-14.0,-7.0,-83.0,185.0,1012.0
-7.0,54.0,249.0,-40.0,-13.0,-2.0,-88.0,184.0,1002.0
-7.0,57.0,245.0,-36.0,-10.0,3.0,-89.0,188.0,997.0
-10.0,58.0,248.0,-35.0,-8.0,9.0,-91.0,196.0,999.0
-5.0,60.0,250.0,-35.0,-9.0,6.0,-86.0,198.0,1003.0
-2.0,54.0,244.0,-39.0,-12.0,6.0,-74.0,192.0,997.0
-2.0,58.0,247.0,-41.0,-14.0,1.0,-69.0,194.0,994.0
-5.0,57.0,246.0,-47.0,-13.0,-1.0,-66.0,191.0,994.0
-2.0,52.0,244.0,-47.0,-11.0,-2.0,-64.0,180.0,995.0
0.0,53.0,246.0,-45.0,-10.0,-1.0,-56.0,176.0,1005.0
0.0,50.0,246.0,-42.0,-11.0,0.0,-55.0,166.0,1003.0
-2.0,50.0,244.0,-39.0,-8.0,-4.0,-64.0,165.0,1007.0
0.0,50.0,246.0,-35.0,-6.0,-4.0,-61.0,172.0,1007.0
-1.0,47.0,249.0,-30.0,-4.0,-5.0,-67.0,168.0,1003.0
1.0,52.0,246.0,-27.0,-2.0,-8.0,-63.0,168.0,1005.0
0.0,52.0,248.0,-24.0,4.0,-10.0,-62.0,175.0,1003.0
-1.0,54.0,246.0,-25.0,8.0,-11.0,-61.0,177.0,1004.0
-2.0,49.0,249.0,-27.0,11.0,-12.0,-79.0,174.0,1013.0
-5.0,53.0,251.0,-28.0,5.0,-7.0,-74.0,177.0,1006.0
0.0,51.0,245.0,-31.0,-1.0,-10.0,-67.0,169.0,1007.0
-1.0,49.0,245.0,-35.0,-5.0,-7.0,-65.0,159.0,1006.0
-2.0,45.0,244.0,-33.0,-5.0,-7.0,-68.0,154.0,1009.0
-6.0,43.0,249.0,-30.0,-6.0,-7.0,-74.0,139.0,1012.0
-5.0,44.0,250.0,-24.0,-5.0,-9.0,-79.0,140.0,1024.0
-5.0,39.0,255.0,-13.0,-8.0,-9.0,-81.0,141.0,1031.0
-4.0,43.0,256.0,-2.0,-11.0,-10.0,-80.0,138.0,1036.0
-8.0,46.0,253.0,2.0,-14.0,-11.0,-86.0,144.0,1025.0
-10.0,41.0,254.0,7.0,-15.0,-13.0,-84.0,142.0,1031.0
0.0,43.0,253.0,19.0,-21.0,-13.0,-47.0,138.0,1016.0
3.0,44.0,240.0,36.0,-41.0,-12.0,-43.0,145.0,997.0
2.0,42.0,238.0,51.0,-45.0,-14.0,-52.0,147.0,982.0
1.0,48.0,238.0,61.0,-32.0,-9.0,-58.0,161.0,977.0
3.0,47.0,244.0,60.0,-14.0,-6.0,-60.0,168.0,994.0
0.0,52.0,247.0,51.0,-4.0,-2.0,-63.0,173.0,1004.0
0.0,53.0,249.0,38.0,-1.0,-1.0,-54.0,172.0,1010.0
-1.0,52.0,251.0,24.0,1.0,-1.0,-63.0,179.0,1007.0
-3.0,52.0,245.0,11.0,11.0,2.0,-70.0,179.0,1009.0
-4.0,53.0,249.0,1.0,17.0,6.0,-79.0,177.0,1016.0
-5.0,50.0,250.0,-7.0,21.0,8.0,-81.0,171.0,1013.0
-6.0,53.0,251.0,-9.0,21.0,10.0,-74.0,170.0,1017.0
-4.0,50.0,250.0,-11.0,20.0,14.0,-75.0,177.0,1010.0
-5.0,53.0,245.0,-11.0,20.0,14.0,-73.0,176.0,1011.0
-5.0,48.0,247.0,-10.0,20.0,15.0,-80.0,174.0,1014.0
-6.0,53.0,246.0,-8.0,23.0,16.0,-75.0,180.0,1003.0
0.0,52.0,249.0,-8.0,22.0,16.0,-72.0,177.0,1007.0
-1.0,53.0,251.0,-13.0,16.0,17.0,-65.0,185.0,1008.0
-2.0,53.0,250.0,-18.0,14.0,16.0,-65.0,181.0,1011.0
0.0,53.0,251.0,-21.0,14.0,14.0,-66.0,177.0,1017.0
-4.0,52.0,251.0,-21.0,11.0,15.0,-77.0,177.0,1020.0
-5.0,52.0,251.0,-18.0,11.0,13.0,-74.0,170.0,1014.0
-4.0,50.0,249.0,-17.0,6.0,11.0,-65.0,162.0,1014.0
0.0,47.0,248.0,-17.0,-2.0,9.0,-59.0,161.0,1012.0
2.0,49.0,246.0,-19.0,-8.0,6.0,-51.0,166.0,1010.0
0.0,47.0,250.0,-28.0,-8.0,6.0,-59.0,165.0,1017.0
0.0,48.0,251.0,-36.0,-3.0,5.0,-55.0,149.0,1019.0
0.0,43.0,255.0,-39.0,-1.0,6.0,-62.0,153.0,1025.0
-4.0,44.0,250.0,-34.0,-1.0,7.0,-69.0,150.0,1018.0
-18.0,40.0,243.0,-28.0,2.0,5.0,-157.0,133.0,981.0
5.0,48.0,257.0,-20.0,10.0,3.0,-26.0,154.0,1038.0
3.0,44.0,250.0,-15.0,-11.0,4.0,-40.0,154.0,1015.0
-1.0,49.0,258.0,-19.0,-16.0,-3.0,-56.0,156.0,1000.0
-1.0,45.0,246.0,-23.0,-6.0,-7.0,-65.0,157.0,998.0
-1.0,46.0,247.0,-27.0,4.0,-6.0,-61.0,147.0,1013.0
-2.0,43.0,246.0,-30.0,7.0,-2.0,-58.0,145.0,1010.0
0.0,44.0,248.0,-31.0,7.0,-2.0,-56.0,144.0,1007.0
-1.0,45.0,252.0,-32.0,9.0,-3.0,-60.0,148.0,1021.0
-1.0,43.0,253.0,-34.0,12.0,-3.0,-65.0,147.0,1021.0
-1.0,43.0,254.0,-38.0,17.0,-3.0,-73.0,150.0,1030.0
-4.0,45.0,253.0,-39.0,19.0,-3.0,-80.0,153.0,1033.0
-6.0,46.0,256.0,-40.0,19.0,-5.0,-80.0,149.0,1037.0
-7.0,45.0,255.0,-44.0,13.0,-11.0,-82.0,150.0,1036.0
-4.0,46.0,251.0,-49.0,8.0,-14.0,-80.0,146.0,1023.0
-8.0,47.0,252.0,-61.0,5.0,-16.0,-83.0,148.0,1021.0
-7.0,46.0,250.0,-69.0,5.0,-19.0,-83.0,155.0,1022.0
-7.0,43.0,251.0,-78.0,9.0,-20.0,-89.0,142.0,1020.0
-6.0,45.0,252.0,-87.0,10.0,-20.0,-85.0,150.0,1018.0
-7.0,43.0,253.0,-93.0,7.0,-16.0,-89.0,141.0,1021.0
-7.0,44.0,251.0,-97.0,6.0,-16.0,-82.0,147.0,1031.0
-5.0,43.0,252.0,-102.0,1.0,-15.0,-80.0,141.0,1016.0
-4.0,41.0,249.0,-99.0,-1.0,-13.0,-83.0,142.0,1017.0
-3.0,42.0,252.0,-94.0,3.0,-9.0,-82.0,148.0,1018.0
-4.0,42.0,249.0,-85.0,3.0,-7.0,-84.0,149.0,1018.0
-6.0,47.0,246.0,-80.0,3.0,-6.0,-80.0,151.0,1008.0
-8.0,47.0,249.0,-81.0,3.0,-3.0,-87.0,155.0,1004.0
-6.0,41.0,251.0,-87.0,1.0,-3.0,-84.0,151.0,1006.0
-6.0,45.0,252.0,-94.0,-5.0,-6.0,-79.0,144.0,1009.0
-3.0,42.0,250.0,-98.0,-10.0,-12.0,-74.0,140.0,1013.0
-26.0,41.0,241.0,-97.0,-11.0,-10.0,-171.0,130.0,989.0
3.0,43.0,256.0,-97.0,-1.0,-16.0,-32.0,142.0,1047.0
0.0,40.0,250.0,-93.0,-18.0,-13.0,-65.0,139.0,1028.0
-2.0,42.0,250.0,-96.0,-23.0,-14.0,-69.0,133.0,1018.0
-7.0,43.0,254.0,-101.0,-21.0,-16.0,-71.0,135.0,1015.0
-4.0,39.0,249.0,-102.0,-20.0,-10.0,-71.0,125.0,1015.0
-4.0,36.0,246.0,-101.0,-22.0,-10.0,-72.0,119.0,1022.0
-1.0,35.0,249.0,-100.0,-25.0,-12.0,-74.0,103.0,1015.0
-3.0,32.0,252.0,-91.0,-30.0,-14.0,-75.0,107.0,1027.0
2.0,32.0,252.0,-81.0,-35.0,-16.0,-61.0,107.0,1024.0
1.0,31.0,249.0,-68.0,-40.0,-17.0,-61.0,109.0,1015.0
3.0,33.0,250.0,-57.0,-42.0,-14.0,-43.0,111.0,1017.0
0.0,39.0,254.0,-45.0,-42.0,-9.0,-54.0,121.0,1009.0
1.0,35.0,244.0,-32.0,-34.0,-2.0,-54.0,118.0,1003.0
2.0,37.0,248.0,-26.0,-24.0,1.0,-48.0,124.0,1006.0
2.0,39.0,247.0,-22.0,-25.0,0.0,-49.0,118.0,1009.0
2.0,35.0,247.0,-23.0,-32.0,-2.0,-43.0,111.0,1013.0
2.0,38.0,250.0,-25.0,-36.0,-3.0,-42.0,116.0,1008.0
3.0,34.0,247.0,-22.0,-39.0,-4.0,-39.0,107.0,1013.0
1.0,29.0,249.0,-16.0,-36.0,-3.0,-44.0,101.0,1021.0
3.0,31.0,248.0,-10.0,-32.0,-3.0,-45.0,97.0,1017.0
-1.0,29.0,253.0,-4.0,-29.0,-7.0,-62.0,92.0,1021.0
0.0,30.0,253.0,0.0,-25.0,-10.0,-58.0,89.0,1027.0
1.0,32.0,252.0,2.0,-31.0,-14.0,-54.0,91.0,1026.0
-1.0,29.0,251.0,5.0,-38.0,-18.0,-55.0,92.0,1023.0
0.0,27.0,249.0,8.0,-40.0,-20.0,-58.0,87.0,1017.0
0.0,27.0,251.0,11.0,-37.0,-22.0,-58.0,89.0,1016.0
-1.0,29.0,253.0,16.0,-32.0,-23.0,-65.0,90.0,1013.0
0.0,29.0,251.0,21.0,-27.0,-24.0,-61.0,89.0,1014.0
0.0,27.0,251.0,26.0,-26.0,-25.0,-63.0,95.0,1020.0
0.0,29.0,248.0,31.0,-26.0,-25.0,-58.0,90.0,1017.0
1.0,27.0,254.0,36.0,-27.0,-25.0,-66.0,92.0,1025.0
-3.0,28.0,249.0,40.0,-25.0,-22.0,-62.0,89.0,1019.0
-1.0,23.0,253.0,45.0,-25.0,-21.0,-69.0,87.0,1021.0
-6.0,27.0,252.0,48.0,-24.0,-16.0,-68.0,81.0,1012.0
-4.0,23.0,248.0,56.0,-25.0,-15.0,-74.0,80.0,1018.0
-2.0,25.0,247.0,60.0,-26.0,-11.0,-60.0,74.0,1018.0
-2.0,21.0,249.0,68.0,-28.0,-9.0,-61.0,71.0,1019.0
1.0,25.0,247.0,80.0,-31.0,-8.0,-62.0,72.0,1022.0
-4.0,24.0,253.0,94.0,-31.0,-8.0,-58.0,69.0,1015.0
0.0,23.0,250.0,107.0,-29.0,-7.0,-60.0,67.0,1013.0
0.0,22.0,246.0,119.0,-28.0,-7.0,-61.0,75.0,1013.0
-4.0,26.0,249.0,129.0,-26.0,-6.0,-60.0,73.0,1014.0
-1.0,25.0,251.0,141.0,-23.0,-6.0,-64.0,74.0,1019.0
0.0,28.0,249.0,151.0,-19.0,-4.0,-58.0,84.0,1015.0
0.0,26.0,249.0,164.0,-16.0,-4.0,-63.0,90.0,1014.0
0.0,31.0,248.0,172.0,-14.0,-5.0,-65.0,101.0,1013.0
0.0,33.0,248.0,177.0,-12.0,-2.0,-62.0,114.0,1012.0
-3.0,34.0,245.0,180.0,-13.0,-1.0,-66.0,120.0,1013.0
0.0,36.0,247.0,180.0,-16.0,0.0,-59.0,120.0,1004.0
-1.0,38.0,248.0,182.0,-15.0,-5.0,-65.0,135.0,1004.0
0.0,40.0,243.0,184.0,-17.0,-2.0,-55.0,131.0,1004.0
1.0,39.0,248.0,188.0,-23.0,1.0,-51.0,136.0,1003.0
0.0,43.0,246.0,189.0,-29.0,-1.0,-46.0,141.0,1003.0
2.0,40.0,246.0,191.0,-36.0,-2.0,-42.0,144.0,1005.0
4.0,40.0,243.0,191.0,-37.0,-3.0,-41.0,139.0,1004.0
5.0,38.0,244.0,191.0,-39.0,-4.0,-39.0,136.0,1000.0
7.0,37.0,243.0,192.0,-39.0,-2.0,-33.0,131.0,1005.0
3.0,38.0,249.0,197.0,-39.0,-4.0,-33.0,127.0,1008.0
2.0,35.0,250.0,206.0,-37.0,-5.0,-37.0,121.0,1012.0
1.0,35.0,250.0,216.0,-37.0,-10.0,-49.0,120.0,1012.0
0.0,36.0,244.0,226.0,-37.0,-13.0,-64.0,119.0,1015.0
0.0,37.0,252.0,232.0,-38.0,-15.0,-45.0,119.0,1021.0
0.0,40.0,250.0,235.0,-42.0,-17.0,-49.0,123.0,1022.0
1.0,37.0,249.0,238.0,-46.0,-20.0,-49.0,122.0,1022.0
1.0,40.0,249.0,237.0,-52.0,-22.0,-48.0,138.0,1014.0
5.0,41.0,251.0,234.0,-56.0,-24.0,-35.0,137.0,1011.0
2.0,44.0,244.0,229.0,-58.0,-25.0,-40.0,151.0,1009.0
6.0,47.0,246.0,226.0,-57.0,-23.0,-33.0,158.0,1000.0
5.0,52.0,247.0,219.0,-48.0,-17.0,-38.0,171.0,1002.0
2.0,54.0,249.0,208.0,-34.0,-15.0,-41.0,179.0,1009.0
3.0,52.0,250.0,191.0,-14.0,-11.0,-53.0,182.0,1021.0
0.0,57.0,252.0,172.0,3.0,-7.0,-48.0,181.0,1024.0
-2.0,54.0,259.0,153.0,7.0,-8.0,-50.0,175.0,1033.0
0.0,53.0,255.0,137.0,2.0,-10.0,-58.0,176.0,1039.0
-1.0,52.0,253.0,123.0,-10.0,-12.0,-60.0,178.0,1036.0
0.0,52.0,253.0,113.0,-21.0,-12.0,-57.0,174.0,1022.0
0.0,52.0,249.0,109.0,-28.0,-13.0,-47.0,174.0,1023.0
1.0,54.0,254.0,108.0,-25.0,-12.0,-40.0,181.0,1023.0
4.0,54.0,248.0,108.0,-17.0,-10.0,-39.0,178.0,1020.0
5.0,55.0,252.0,103.0,-11.0,-7.0,-35.0,182.0,1016.0
4.0,54.0,252.0,97.0,-6.0,-3.0,-33.0,185.0,1023.0
4.0,53.0,254.0,86.0,-5.0,1.0,-31.0,182.0,1019.0
6.0,53.0,253.0,75.0,-4.0,5.0,-35.0,180.0,1019.0
4.0,53.0,250.0,62.0,-1.0,8.0,-26.0,177.0,1020.0
4.0,50.0,254.0,51.0,0.0,12.0,-37.0,179.0,1021.0
2.0,51.0,248.0,42.0,2.0,14.0,-32.0,166.0,1020.0
4.0,48.0,253.0,35.0,3.0,18.0,-37.0,161.0,1015.0
5.0,44.0,250.0,29.0,2.0,19.0,-40.0,152.0,1012.0
0.0,44.0,250.0,24.0,1.0,15.0,-48.0,144.0,1016.0
0.0,43.0,253.0,24.0,1.0,8.0,-48.0,140.0,1020.0
1.0,40.0,253.0,24.0,0.0,3.0,-51.0,142.0,1031.0
1.0,41.0,255.0,26.0,-1.0,0.0,-56.0,144.0,1039.0
0.0,42.0,257.0,27.0,-3.0,-4.0,-51.0,139.0,1039.0
0.0,41.0,254.0,31.0,-10.0,-5.0,-58.0,135.0,1029.0
0.0,40.0,250.0,36.0,-19.0,-6.0,-52.0,138.0,1016.0
2.0,41.0,243.0,43.0,-26.0,-5.0,-44.0,135.0,1003.0
4.0,40.0,245.0,48.0,-27.0,-5.0,-45.0,138.0,994.0
3.0,39.0,242.0,54.0,-20.0,-2.0,-41.0,144.0,992.0
3.0,43.0,242.0,60.0,-10.0,-2.0,-44.0,142.0,988.0
0.0,43.0,244.0,64.0,-2.0,-2.0,-44.0,146.0,993.0
3.0,43.0,247.0,66.0,2.0,0.0,-38.0,153.0,998.0
2.0,42.0,247.0,68.0,1.0,3.0,-39.0,145.0,1001.0
3.0,45.0,248.0,68.0,-2.0,5.0,-43.0,143.0,1000.0
4.0,44.0,247.0,71.0,-5.0,8.0,-40.0,137.0,1000.0
1.0,43.0,244.0,71.0,-6.0,11.0,-44.0,141.0,1003.0
0.0,42.0,249.0,76.0,-6.0,15.0,-44.0,134.0,1004.0
2.0,41.0,247.0,81.0,-7.0,15.0,-43.0,128.0,1002.0
5.0,36.0,246.0,87.0,-5.0,12.0,-25.0,110.0,998.0
-4.0,39.0,251.0,93.0,-5.0,-2.0,-55.0,125.0,1011.0
0.0,37.0,252.0,103.0,-14.0,3.0,-47.0,119.0,1009.0
2.0,36.0,251.0,115.0,-30.0,2.0,-45.0,115.0,1017.0
1.0,37.0,254.0,125.0,-48.0,-3.0,-52.0,117.0,1015.0
1.0,37.0,247.0,135.0,-58.0,-6.0,-54.0,115.0,1015.0
2.0,41.0,246.0,144.0,-64.0,-3.0,-39.0,125.0,1014.0
3.0,35.0,246.0,156.0,-69.0,2.0,-46.0,122.0,999.0
0.0,38.0,246.0,164.0,-67.0,-1.0,-47.0,123.0,995.0
2.0,35.0,247.0,173.0,-58.0,-2.0,-38.0,119.0,1007.0
2.0,35.0,248.0,186.0,-48.0,1.0,-44.0,120.0,1005.0
3.0,36.0,249.0,197.0,-42.0,1.0,-50.0,122.0,1006.0
2.0,36.0,246.0,207.0,-39.0,3.0,-48.0,129.0,1012.0
2.0,41.0,247.0,214.0,-39.0,4.0,-52.0,134.0,1007.0
1.0,42.0,251.0,216.0,-41.0,8.0,-46.0,138.0,1014.0
1.0,43.0,253.0,217.0,-48.0,8.0,-40.0,138.0,1019.0
1.0,44.0,251.0,215.0,-56.0,9.0,-44.0,147.0,1016.0
2.0,43.0,246.0,210.0,-62.0,7.0,-45.0,148.0,1013.0
1.0,43.0,247.0,204.0,-69.0,9.0,-40.0,152.0,1006.0
4.0,47.0,247.0,196.0,-73.0,6.0,-34.0,155.0,1010.0
6.0,49.0,247.0,184.0,-73.0,2.0,-35.0,164.0,1013.0
6.0,50.0,247.0,173.0,-73.0,-3.0,-26.0,169.0,1010.0
13.0,50.0,247.0,157.0,-65.0,-10.0,-17.0,170.0,1015.0
11.0,56.0,253.0,133.0,-50.0,-29.0,-21.0,187.0,1011.0
5.0,57.0,255.0,105.0,-25.0,-32.0,-31.0,201.0,1031.0
4.0,57.0,255.0,91.0,-23.0,-21.0,-32.0,191.0,1036.0
3.0,58.0,256.0,86.0,-33.0,-14.0,-37.0,195.0,1043.0
6.0,61.0,251.0,83.0,-47.0,-5.0,-25.0,201.0,1042.0
7.0,59.0,253.0,76.0,-52.0,-4.0,-22.0,201.0,1028.0
9.0,56.0,252.0,68.0,-49.0,-3.0,-20.0,199.0,1023.0
13.0,57.0,249.0,62.0,-38.0,-3.0,-13.0,196.0,1021.0
10.0,55.0,247.0,58.0,-28.0,-3.0,-14.0,191.0,1022.0
10.0,54.0,249.0,55.0,-17.0,-4.0,-13.0,187.0,1015.0
10.0,55.0,250.0,55.0,-10.0,-4.0,-13.0,185.0,1018.0
9.0,53.0,245.0,55.0,-5.0,-1.0,-12.0,178.0,1014.0
12.0,51.0,247.0,56.0,-1.0,1.0,-16.0,174.0,1021.0
7.0,54.0,249.0,55.0,3.0,1.0,-16.0,176.0,1017.0
6.0,53.0,248.0,52.0,5.0,1.0,-16.0,172.0,1017.0
7.0,53.0,249.0,48.0,7.0,1.0,-22.0,173.0,1010.0
6.0,50.0,250.0,42.0,10.0,-1.0,-15.0,167.0,1019.0
3.0,47.0,248.0,34.0,11.0,-6.0,-20.0,166.0,1012.0
5.0,51.0,245.0,24.0,11.0,-12.0,-26.0,166.0,1012.0
4.0,48.0,252.0,18.0,12.0,-18.0,-25.0,163.0,1010.0
5.0,50.0,251.0,13.0,14.0,-21.0,-27.0,166.0,1016.0
8.0,47.0,247.0,10.0,13.0,-21.0,-25.0,161.0,1011.0
8.0,47.0,249.0,11.0,17.0,-19.0,-22.0,151.0,1012.0
8.0,45.0,250.0,14.0,23.0,-18.0,-23.0,161.0,1011.0
9.0,47.0,247.0,22.0,28.0,-16.0,-24.0,158.0,1008.0
8.0,44.0,247.0,34.0,34.0,-15.0,-25.0,154.0,1010.0
9.0,48.0,252.0,47.0,38.0,-14.0,-25.0,151.0,1006.0
4.0,43.0,249.0,59.0,38.0,-12.0,-28.0,156.0,1006.0
6.0,42.0,245.0,70.0,37.0,-12.0,-33.0,151.0,1008.0
4.0,42.0,245.0,78.0,33.0,-11.0,-31.0,150.0,1009.0
2.0,46.0,247.0,82.0,32.0,-7.0,-31.0,155.0,1007.0
2.0,43.0,248.0,86.0,28.0,-8.0,-33.0,150.0,1005.0
6.0,44.0,247.0,87.0,24.0,-9.0,-34.0,152.0,1004.0
4.0,45.0,246.0,87.0,18.0,-9.0,-36.0,157.0,1002.0
5.0,43.0,252.0,86.0,13.0,-10.0,-29.0,151.0,1005.0
3.0,46.0,246.0,85.0,7.0,-9.0,-27.0,154.0,1002.0
7.0,46.0,248.0,83.0,1.0,-10.0,-24.0,156.0,1005.0
5.0,50.0,248.0,79.0,-2.0,-14.0,-25.0,160.0,1001.0
6.0,46.0,247.0,74.0,1.0,-14.0,-23.0,159.0,1011.0
6.0,47.0,247.0,70.0,4.0,-9.0,-26.0,155.0,1013.0
9.0,47.0,248.0,69.0,5.0,-4.0,-25.0,160.0,1012.0
6.0,43.0,248.0,68.0,7.0,-3.0,-23.0,158.0,1009.0
7.0,45.0,248.0,68.0,5.0,-3.0,-21.0,154.0,1004.0
