acc1_x,acc1_y,acc1_z,gyro_x,gyro_y,gyro_z,acc2_x,acc2_y,acc2_z
1.0,-248.0,-26.0,9.0,-58.0,36.0,-15.0,-1013.0,-94.0
0.0,-248.0,-26.0,9.0,-62.0,37.0,-17.0,-1016.0,-89.0
0.0,-250.0,-29.0,10.0,-66.0,40.0,-5.0,-1014.0,-96.0
2.0,-245.0,-27.0,11.0,-69.0,41.0,-5.0,-1015.0,-98.0
6.0,-248.0,-23.0,14.0,-69.0,38.0,6.0,-1017.0,-99.0
6.0,-249.0,-25.0,17.0,-69.0,35.0,8.0,-1009.0,-90.0
4.0,-245.0,-28.0,19.0,-67.0,33.0,12.0,-1014.0,-99.0
7.0,-246.0,-29.0,21.0,-64.0,31.0,14.0,-1015.0,-104.0
14.0,-247.0,-31.0,20.0,-64.0,25.0,19.0,-1008.0,-100.0
8.0,-244.0,-29.0,22.0,-61.0,24.0,19.0,-1008.0,-96.0
9.0,-246.0,-28.0,23.0,-59.0,23.0,17.0,-1009.0,-101.0
10.0,-245.0,-29.0,24.0,-57.0,19.0,20.0,-1007.0,-89.0
7.0,-244.0,-29.0,23.0,-53.0,17.0,15.0,-1008.0,-92.0
8.0,-245.0,-24.0,22.0,-52.0,11.0,8.0,-1003.0,-83.0
3.0,-244.0,-25.0,18.0,-54.0,8.0,6.0,-1001.0,-88.0
5.0,-242.0,-24.0,15.0,-55.0,2.0,6.0,-999.0,-86.0
6.0,-243.0,-24.0,15.0,-57.0,-1.0,3.0,-998.0,-94.0
3.0,-244.0,-26.0,17.0,-57.0,-3.0,-1.0,-998.0,-89.0
4.0,-242.0,-23.0,17.0,-56.0,-4.0,-7.0,-998.0,-92.0
4.0,-244.0,-27.0,19.0,-54.0,-4.0,-13.0,-995.0,-96.0
2.0,-240.0,-24.0,18.0,-54.0,-4.0,-7.0,-992.0,-97.0
5.0,-241.0,-30.0,16.0,-55.0,-4.0,-2.0,-994.0,-98.0
4.0,-241.0,-28.0,10.0,-59.0,3.0,-2.0,-992.0,-102.0
4.0,-242.0,-28.0,1.0,-59.0,8.0,-1.0,-994.0,-103.0
3.0,-243.0,-26.0,-6.0,-60.0,11.0,5.0,-998.0,-100.0
2.0,-244.0,-28.0,-11.0,-60.0,12.0,6.0,-1000.0,-102.0
8.0,-245.0,-29.0,-17.0,-61.0,10.0,1.0,-999.0,-95.0
10.0,-244.0,-26.0,-26.0,-65.0,8.0,7.0,-1002.0,-103.0
7.0,-244.0,-31.0,-35.0,-66.0,7.0,2.0,-1005.0,-108.0
8.0,-247.0,-35.0,-46.0,-67.0,4.0,5.0,-1009.0,-106.0
6.0,-247.0,-32.0,-55.0,-66.0,4.0,7.0,-1007.0,-115.0
4.0,-245.0,-33.0,-63.0,-66.0,2.0,4.0,-1007.0,-117.0
4.0,-246.0,-35.0,-71.0,-66.0,-2.0,0.0,-1015.0,-125.0
4.0,-246.0,-34.0,-78.0,-63.0,-4.0,9.0,-1013.0,-125.0
6.0,-246.0,-35.0,-81.0,-59.0,-10.0,5.0,-1012.0,-124.0
3.0,-245.0,-35.0,-84.0,-56.0,-14.0,6.0,-1010.0,-124.0
7.0,-247.0,-35.0,-87.0,-52.0,-19.0,7.0,-1009.0,-121.0
8.0,-246.0,-37.0,-91.0,-48.0,-26.0,12.0,-1006.0,-122.0
7.0,-251.0,-35.0,-97.0,-44.0,-32.0,11.0,-1015.0,-121.0
4.0,-245.0,-30.0,-103.0,-43.0,-36.0,5.0,-1011.0,-117.0
5.0,-248.0,-30.0,-110.0,-41.0,-37.0,10.0,-1016.0,-115.0
6.0,-250.0,-34.0,-113.0,-39.0,-40.0,11.0,-1013.0,-117.0
8.0,-249.0,-31.0,-111.0,-39.0,-45.0,13.0,-1016.0,-116.0
8.0,-249.0,-30.0,-109.0,-38.0,-47.0,16.0,-1016.0,-115.0
7.0,-249.0,-33.0,-106.0,-35.0,-49.0,8.0,-1018.0,-116.0
5.0,-249.0,-32.0,-104.0,-31.0,-51.0,6.0,-1016.0,-122.0
4.0,-247.0,-32.0,-102.0,-30.0,-55.0,7.0,-1016.0,-123.0
6.0,-251.0,-34.0,-99.0,-27.0,-55.0,9.0,-1023.0,-126.0
2.0,-247.0,-32.0,-95.0,-24.0,-57.0,8.0,-1023.0,-122.0
8.0,-250.0,-36.0,-89.0,-21.0,-60.0,1.0,-1022.0,-118.0
5.0,-246.0,-32.0,-79.0,-19.0,-65.0,1.0,-1016.0,-119.0
1.0,-245.0,-34.0,-71.0,-19.0,-69.0,2.0,-1014.0,-118.0
3.0,-247.0,-35.0,-63.0,-19.0,-75.0,-7.0,-1006.0,-121.0
4.0,-245.0,-32.0,-57.0,-22.0,-81.0,-11.0,-1003.0,-122.0
1.0,-244.0,-35.0,-57.0,-23.0,-84.0,-7.0,-1002.0,-124.0
1.0,-244.0,-34.0,-60.0,-24.0,-91.0,-11.0,-1001.0,-127.0
1.0,-242.0,-34.0,-66.0,-24.0,-94.0,-15.0,-1008.0,-131.0
-1.0,-246.0,-44.0,-73.0,-26.0,-99.0,-12.0,-1013.0,-129.0
1.0,-246.0,-35.0,-79.0,-28.0,-102.0,-22.0,-1013.0,-135.0
1.0,-251.0,-34.0,-82.0,-31.0,-102.0,-20.0,-1020.0,-140.0
0.0,-249.0,-35.0,-85.0,-31.0,-100.0,-14.0,-1026.0,-136.0
0.0,-253.0,-41.0,-86.0,-32.0,-100.0,-12.0,-1038.0,-136.0
1.0,-255.0,-39.0,-81.0,-35.0,-97.0,-12.0,-1037.0,-137.0
1.0,-255.0,-39.0,-73.0,-35.0,-94.0,-8.0,-1048.0,-140.0
2.0,-255.0,-35.0,-64.0,-34.0,-89.0,-13.0,-1047.0,-140.0
3.0,-257.0,-42.0,-51.0,-36.0,-83.0,-15.0,-1054.0,-136.0
1.0,-255.0,-40.0,-35.0,-37.0,-78.0,-8.0,-1051.0,-141.0
1.0,-256.0,-37.0,-18.0,-38.0,-71.0,-5.0,-1050.0,-145.0
2.0,-252.0,-42.0,-4.0,-37.0,-63.0,-9.0,-1040.0,-143.0
2.0,-250.0,-38.0,8.0,-36.0,-57.0,-7.0,-1046.0,-144.0
1.0,-254.0,-38.0,19.0,-35.0,-51.0,-4.0,-1040.0,-139.0
2.0,-255.0,-39.0,28.0,-33.0,-46.0,-6.0,-1031.0,-143.0
3.0,-251.0,-41.0,37.0,-30.0,-43.0,-8.0,-1028.0,-134.0
2.0,-250.0,-39.0,42.0,-30.0,-37.0,-5.0,-1027.0,-137.0
2.0,-251.0,-40.0,48.0,-29.0,-32.0,-8.0,-1027.0,-135.0
5.0,-253.0,-40.0,51.0,-27.0,-29.0,-10.0,-1020.0,-133.0
0.0,-246.0,-36.0,56.0,-24.0,-24.0,-7.0,-1026.0,-129.0
4.0,-248.0,-33.0,59.0,-20.0,-19.0,-6.0,-1026.0,-124.0
1.0,-251.0,-37.0,63.0,-17.0,-17.0,-12.0,-1020.0,-128.0
0.0,-249.0,-39.0,70.0,-14.0,-13.0,-10.0,-1031.0,-128.0
2.0,-253.0,-37.0,79.0,-12.0,-10.0,-8.0,-1026.0,-129.0
5.0,-251.0,-36.0,90.0,-8.0,-9.0,-10.0,-1023.0,-125.0
3.0,-250.0,-32.0,100.0,-3.0,-7.0,-10.0,-1024.0,-124.0
1.0,-247.0,-30.0,108.0,1.0,-7.0,-9.0,-1021.0,-127.0
2.0,-249.0,-31.0,112.0,6.0,-6.0,-6.0,-1015.0,-121.0
2.0,-246.0,-33.0,112.0,9.0,-6.0,-9.0,-1016.0,-123.0
1.0,-246.0,-30.0,109.0,13.0,-7.0,-5.0,-1014.0,-125.0
1.0,-249.0,-34.0,104.0,17.0,-8.0,-6.0,-1016.0,-122.0
2.0,-248.0,-32.0,101.0,22.0,-8.0,-11.0,-1020.0,-114.0
-1.0,-252.0,-32.0,102.0,28.0,-10.0,-11.0,-1032.0,-121.0
0.0,-255.0,-27.0,107.0,32.0,-10.0,-17.0,-1032.0,-120.0
1.0,-254.0,-34.0,118.0,34.0,-13.0,-22.0,-1025.0,-124.0
0.0,-250.0,-37.0,129.0,36.0,-15.0,-19.0,-1023.0,-125.0
4.0,-249.0,-33.0,137.0,40.0,-16.0,-25.0,-1018.0,-122.0
-2.0,-247.0,-33.0,143.0,40.0,-18.0,-30.0,-1014.0,-119.0
-4.0,-244.0,-35.0,145.0,39.0,-19.0,-27.0,-1008.0,-117.0
-1.0,-243.0,-28.0,142.0,38.0,-19.0,-28.0,-1000.0,-115.0
-2.0,-241.0,-34.0,136.0,38.0,-20.0,-24.0,-1000.0,-122.0
0.0,-240.0,-31.0,131.0,35.0,-18.0,-24.0,-997.0,-125.0
1.0,-242.0,-35.0,127.0,36.0,-21.0,-18.0,-997.0,-126.0
0.0,-235.0,-31.0,121.0,40.0,-22.0,-12.0,-992.0,-123.0
1.0,-241.0,-30.0,115.0,42.0,-20.0,-19.0,-993.0,-123.0
0.0,-242.0,-32.0,105.0,40.0,-21.0,-14.0,-990.0,-112.0
3.0,-244.0,-34.0,96.0,36.0,-21.0,-15.0,-992.0,-115.0
1.0,-244.0,-34.0,90.0,36.0,-24.0,-11.0,-992.0,-118.0
-1.0,-242.0,-31.0,87.0,37.0,-22.0,-14.0,-999.0,-123.0
1.0,-245.0,-34.0,87.0,36.0,-21.0,-11.0,-1005.0,-115.0
4.0,-246.0,-28.0,87.0,37.0,-20.0,-7.0,-1008.0,-118.0
1.0,-245.0,-31.0,86.0,39.0,-17.0,-10.0,-1012.0,-105.0
1.0,-246.0,-22.0,86.0,38.0,-14.0,-10.0,-1010.0,-102.0
1.0,-245.0,-26.0,85.0,36.0,-13.0,-7.0,-1014.0,-98.0
2.0,-248.0,-26.0,85.0,34.0,-11.0,-9.0,-1011.0,-96.0
2.0,-246.0,-27.0,86.0,30.0,-8.0,-3.0,-1010.0,-95.0
4.0,-247.0,-28.0,87.0,27.0,-9.0,-4.0,-1009.0,-101.0
2.0,-244.0,-28.0,91.0,22.0,-7.0,-8.0,-1008.0,-108.0
3.0,-244.0,-30.0,93.0,22.0,-6.0,-7.0,-998.0,-113.0
4.0,-244.0,-30.0,90.0,21.0,-4.0,-15.0,-1001.0,-104.0
1.0,-243.0,-30.0,87.0,18.0,-2.0,-12.0,-1006.0,-110.0
2.0,-247.0,-31.0,82.0,14.0,-1.0,-15.0,-1005.0,-105.0
1.0,-246.0,-33.0,76.0,10.0,-2.0,-10.0,-1006.0,-106.0
1.0,-243.0,-25.0,72.0,7.0,0.0,-8.0,-1006.0,-100.0
1.0,-246.0,-31.0,69.0,7.0,-2.0,-8.0,-1006.0,-102.0
0.0,-247.0,-23.0,70.0,7.0,-1.0,-11.0,-1010.0,-104.0
3.0,-248.0,-30.0,73.0,5.0,2.0,-13.0,-1009.0,-100.0
4.0,-247.0,-30.0,75.0,3.0,4.0,-7.0,-1004.0,-109.0
2.0,-245.0,-30.0,76.0,-1.0,8.0,-12.0,-1007.0,-104.0
0.0,-248.0,-34.0,77.0,-3.0,11.0,-19.0,-1015.0,-114.0
1.0,-248.0,-36.0,77.0,-5.0,14.0,-11.0,-1014.0,-121.0
0.0,-246.0,-31.0,80.0,-7.0,18.0,-17.0,-1015.0,-120.0
-1.0,-247.0,-33.0,88.0,-7.0,20.0,-20.0,-1005.0,-113.0
0.0,-246.0,-30.0,94.0,-7.0,21.0,-17.0,-1014.0,-122.0
0.0,-247.0,-34.0,101.0,-7.0,21.0,-18.0,-1005.0,-111.0
0.0,-243.0,-30.0,104.0,-8.0,20.0,-15.0,-1002.0,-110.0
0.0,-240.0,-29.0,103.0,-7.0,20.0,-14.0,-997.0,-113.0
0.0,-242.0,-31.0,97.0,-9.0,17.0,-6.0,-997.0,-109.0
1.0,-240.0,-35.0,92.0,-9.0,14.0,-7.0,-993.0,-114.0
1.0,-244.0,-35.0,86.0,-9.0,9.0,-1.0,-995.0,-110.0
4.0,-244.0,-31.0,79.0,-10.0,9.0,-7.0,-995.0,-113.0
4.0,-246.0,-29.0,74.0,-10.0,6.0,1.0,-1004.0,-109.0
4.0,-247.0,-35.0,72.0,-10.0,3.0,-4.0,-1007.0,-112.0
3.0,-241.0,-31.0,69.0,-9.0,1.0,-1.0,-1012.0,-119.0
3.0,-249.0,-30.0,66.0,-8.0,0.0,-7.0,-1017.0,-110.0
4.0,-248.0,-33.0,60.0,-9.0,-1.0,-5.0,-1020.0,-116.0
1.0,-242.0,-33.0,55.0,-8.0,-4.0,-5.0,-1023.0,-107.0
1.0,-249.0,-29.0,55.0,-8.0,-5.0,-3.0,-1026.0,-113.0
1.0,-249.0,-26.0,59.0,-7.0,-8.0,0.0,-1033.0,-110.0
4.0,-249.0,-28.0,66.0,-9.0,-11.0,-2.0,-1019.0,-105.0
6.0,-246.0,-33.0,73.0,-8.0,-12.0,5.0,-1022.0,-110.0
6.0,-247.0,-32.0,77.0,-9.0,-13.0,4.0,-1014.0,-117.0
4.0,-247.0,-34.0,80.0,-9.0,-13.0,4.0,-1013.0,-119.0
8.0,-245.0,-33.0,80.0,-9.0,-12.0,0.0,-1005.0,-121.0
9.0,-245.0,-37.0,79.0,-10.0,-12.0,1.0,-1006.0,-127.0
4.0,-247.0,-36.0,77.0,-10.0,-13.0,5.0,-1001.0,-125.0
8.0,-255.0,-34.0,74.0,-11.0,-14.0,-1.0,-1001.0,-121.0
2.0,-244.0,-33.0,72.0,-9.0,-13.0,0.0,-998.0,-119.0
2.0,-242.0,-36.0,69.0,-8.0,-13.0,-7.0,-996.0,-127.0
4.0,-240.0,-33.0,63.0,-8.0,-13.0,-13.0,-993.0,-123.0
0.0,-243.0,-33.0,58.0,-9.0,-13.0,-16.0,-1006.0,-120.0
2.0,-245.0,-32.0,49.0,-11.0,-11.0,-12.0,-1008.0,-115.0
1.0,-246.0,-32.0,47.0,-13.0,-11.0,-19.0,-1000.0,-113.0
1.0,-249.0,-30.0,53.0,-17.0,-12.0,-12.0,-1005.0,-115.0
4.0,-247.0,-35.0,50.0,-22.0,-11.0,-9.0,-1006.0,-116.0
4.0,-247.0,-32.0,45.0,-23.0,-8.0,-4.0,-1009.0,-111.0
1.0,-249.0,-33.0,45.0,-24.0,-7.0,0.0,-1013.0,-112.0
4.0,-250.0,-31.0,51.0,-27.0,-8.0,0.0,-1019.0,-110.0
6.0,-250.0,-31.0,58.0,-26.0,-10.0,-2.0,-1014.0,-114.0
6.0,-250.0,-30.0,66.0,-25.0,-9.0,6.0,-1012.0,-116.0
3.0,-243.0,-36.0,71.0,-25.0,-11.0,0.0,-1011.0,-120.0
6.0,-247.0,-33.0,73.0,-27.0,-10.0,1.0,-1011.0,-123.0
4.0,-243.0,-31.0,71.0,-25.0,-9.0,2.0,-1003.0,-119.0
4.0,-244.0,-33.0,68.0,-23.0,-6.0,-2.0,-1003.0,-116.0
3.0,-245.0,-32.0,65.0,-23.0,-4.0,-2.0,-1006.0,-118.0
0.0,-245.0,-33.0,61.0,-23.0,-1.0,-5.0,-1003.0,-116.0
1.0,-246.0,-31.0,55.0,-23.0,2.0,-8.0,-1005.0,-123.0
4.0,-246.0,-32.0,50.0,-24.0,5.0,-9.0,-1005.0,-122.0
3.0,-246.0,-37.0,49.0,-24.0,7.0,-13.0,-1013.0,-117.0
3.0,-248.0,-33.0,50.0,-22.0,10.0,-1.0,-1014.0,-123.0
2.0,-249.0,-33.0,52.0,-20.0,12.0,-11.0,-1015.0,-117.0
2.0,-250.0,-35.0,54.0,-16.0,15.0,-13.0,-1027.0,-121.0
2.0,-255.0,-32.0,47.0,-15.0,9.0,0.0,-1052.0,-137.0
6.0,-261.0,-38.0,29.0,-20.0,-5.0,2.0,-1072.0,-136.0
1.0,-261.0,-35.0,13.0,-19.0,-8.0,-21.0,-1081.0,-119.0
2.0,-261.0,-24.0,31.0,-16.0,6.0,-1.0,-1053.0,-82.0
10.0,-251.0,-28.0,109.0,-18.0,29.0,12.0,-1018.0,-91.0
5.0,-242.0,-38.0,198.0,-7.0,42.0,17.0,-1007.0,-143.0
0.0,-229.0,-37.0,209.0,2.0,42.0,-9.0,-958.0,-142.0
4.0,-226.0,-37.0,183.0,2.0,56.0,-10.0,-939.0,-137.0
5.0,-227.0,-33.0,166.0,6.0,69.0,-1.0,-933.0,-137.0
1.0,-227.0,-43.0,141.0,10.0,46.0,-7.0,-945.0,-159.0
3.0,-233.0,-44.0,82.0,3.0,24.0,1.0,-967.0,-170.0
2.0,-243.0,-44.0,-2.0,-1.0,5.0,-5.0,-1001.0,-159.0
6.0,-254.0,-36.0,-54.0,1.0,-6.0,6.0,-1030.0,-142.0
7.0,-257.0,-33.0,-57.0,10.0,-15.0,6.0,-1058.0,-124.0
6.0,-258.0,-36.0,-17.0,19.0,-23.0,9.0,-1056.0,-120.0
8.0,-254.0,-36.0,40.0,25.0,-30.0,12.0,-1052.0,-136.0
6.0,-250.0,-44.0,80.0,34.0,-32.0,7.0,-1029.0,-158.0
5.0,-248.0,-40.0,90.0,40.0,-28.0,0.0,-1011.0,-166.0
3.0,-245.0,-44.0,71.0,45.0,-16.0,-4.0,-1007.0,-164.0
2.0,-247.0,-38.0,36.0,49.0,-5.0,-6.0,-1016.0,-139.0
0.0,-249.0,-31.0,18.0,52.0,-8.0,-15.0,-1020.0,-116.0
1.0,-248.0,-25.0,24.0,51.0,-15.0,-21.0,-1024.0,-99.0
-2.0,-248.0,-25.0,37.0,45.0,-20.0,-26.0,-1016.0,-84.0
-1.0,-250.0,-22.0,43.0,38.0,-17.0,-27.0,-1010.0,-81.0
-3.0,-245.0,-21.0,45.0,31.0,-10.0,-25.0,-1007.0,-75.0
0.0,-247.0,-18.0,50.0,24.0,-2.0,-25.0,-1008.0,-81.0
1.0,-244.0,-24.0,65.0,17.0,4.0,-20.0,-1005.0,-87.0
0.0,-246.0,-25.0,79.0,13.0,9.0,-26.0,-1005.0,-97.0
-2.0,-242.0,-33.0,88.0,11.0,13.0,-27.0,-1002.0,-106.0
0.0,-244.0,-31.0,91.0,8.0,17.0,-21.0,-1004.0,-114.0
0.0,-243.0,-33.0,89.0,7.0,22.0,-21.0,-998.0,-121.0
-1.0,-245.0,-35.0,82.0,9.0,24.0,-18.0,-1008.0,-126.0
1.0,-248.0,-34.0,72.0,10.0,26.0,-18.0,-1009.0,-121.0
0.0,-248.0,-31.0,61.0,9.0,27.0,-14.0,-1018.0,-122.0
0.0,-250.0,-31.0,50.0,8.0,27.0,-13.0,-1021.0,-117.0
1.0,-251.0,-29.0,45.0,11.0,22.0,-8.0,-1028.0,-113.0
2.0,-251.0,-29.0,48.0,13.0,18.0,-7.0,-1036.0,-107.0
3.0,-253.0,-32.0,57.0,14.0,11.0,-2.0,-1036.0,-101.0
5.0,-253.0,-35.0,69.0,15.0,6.0,0.0,-1042.0,-110.0
7.0,-252.0,-33.0,82.0,17.0,2.0,1.0,-1034.0,-119.0
5.0,-248.0,-36.0,93.0,19.0,-2.0,0.0,-1018.0,-125.0
4.0,-245.0,-36.0,102.0,22.0,-8.0,6.0,-1013.0,-127.0
4.0,-244.0,-36.0,104.0,24.0,-14.0,8.0,-1001.0,-128.0
8.0,-244.0,-32.0,97.0,28.0,-20.0,5.0,-999.0,-132.0
5.0,-242.0,-36.0,83.0,31.0,-24.0,7.0,-993.0,-120.0
3.0,-242.0,-36.0,71.0,38.0,-26.0,0.0,-995.0,-119.0
3.0,-244.0,-29.0,59.0,43.0,-32.0,-2.0,-992.0,-123.0
1.0,-242.0,-35.0,49.0,45.0,-38.0,-3.0,-992.0,-122.0
6.0,-243.0,-31.0,41.0,48.0,-40.0,-3.0,-989.0,-117.0
3.0,-242.0,-30.0,31.0,56.0,-42.0,-12.0,-992.0,-109.0
0.0,-239.0,-26.0,23.0,59.0,-44.0,-11.0,-992.0,-101.0
-2.0,-241.0,-30.0,15.0,61.0,-44.0,-18.0,-995.0,-106.0
2.0,-240.0,-27.0,6.0,61.0,-43.0,-16.0,-992.0,-99.0
0.0,-241.0,-29.0,-3.0,60.0,-43.0,-19.0,-989.0,-103.0
1.0,-241.0,-30.0,-11.0,59.0,-42.0,-24.0,-988.0,-105.0
0.0,-238.0,-29.0,-20.0,60.0,-38.0,-18.0,-985.0,-106.0
1.0,-240.0,-32.0,-30.0,59.0,-36.0,-19.0,-971.0,-106.0
1.0,-238.0,-28.0,-41.0,60.0,-31.0,-19.0,-983.0,-110.0
-1.0,-241.0,-30.0,-54.0,60.0,-30.0,-22.0,-981.0,-106.0
2.0,-241.0,-30.0,-65.0,60.0,-25.0,-17.0,-987.0,-106.0
9.0,-242.0,-21.0,-74.0,61.0,-21.0,-13.0,-993.0,-89.0
3.0,-241.0,-22.0,-80.0,59.0,-20.0,-7.0,-992.0,-91.0
2.0,-245.0,-29.0,-84.0,59.0,-18.0,-7.0,-1003.0,-97.0
4.0,-242.0,-23.0,-87.0,57.0,-18.0,-6.0,-1007.0,-94.0
1.0,-246.0,-25.0,-92.0,54.0,-17.0,-1.0,-1015.0,-92.0
2.0,-247.0,-27.0,-91.0,54.0,-18.0,-3.0,-1017.0,-92.0
4.0,-251.0,-27.0,-86.0,52.0,-19.0,0.0,-1016.0,-87.0
3.0,-250.0,-30.0,-80.0,51.0,-16.0,1.0,-1020.0,-91.0
3.0,-249.0,-24.0,-74.0,52.0,-18.0,5.0,-1022.0,-94.0
7.0,-250.0,-24.0,-67.0,51.0,-20.0,6.0,-1020.0,-89.0
5.0,-251.0,-23.0,-58.0,50.0,-19.0,4.0,-1026.0,-86.0
4.0,-250.0,-26.0,-50.0,50.0,-18.0,3.0,-1018.0,-91.0
4.0,-251.0,-27.0,-40.0,47.0,-14.0,-5.0,-1013.0,-95.0
2.0,-249.0,-27.0,-31.0,47.0,-11.0,-10.0,-1017.0,-99.0
1.0,-247.0,-28.0,-23.0,44.0,-8.0,-9.0,-1006.0,-103.0
0.0,-245.0,-25.0,-16.0,39.0,-5.0,-16.0,-1003.0,-103.0
1.0,-243.0,-31.0,-12.0,35.0,-1.0,-20.0,-1005.0,-106.0
-1.0,-245.0,-30.0,-8.0,32.0,3.0,-24.0,-1001.0,-112.0
-2.0,-243.0,-31.0,-6.0,27.0,8.0,-23.0,-998.0,-113.0
0.0,-243.0,-32.0,-8.0,24.0,10.0,-27.0,-993.0,-120.0
-3.0,-247.0,-31.0,-13.0,19.0,11.0,-26.0,-997.0,-127.0
-2.0,-243.0,-33.0,-17.0,13.0,13.0,-29.0,-1000.0,-122.0
-1.0,-243.0,-35.0,-25.0,11.0,16.0,-31.0,-1002.0,-125.0
0.0,-245.0,-34.0,-29.0,8.0,18.0,-32.0,-1001.0,-126.0
-2.0,-246.0,-33.0,-33.0,6.0,18.0,-30.0,-1009.0,-124.0
1.0,-246.0,-36.0,-33.0,3.0,19.0,-27.0,-1010.0,-125.0
0.0,-246.0,-32.0,-33.0,1.0,21.0,-26.0,-1010.0,-121.0
0.0,-248.0,-33.0,-31.0,0.0,23.0,-21.0,-1020.0,-118.0
1.0,-247.0,-34.0,-30.0,-1.0,22.0,-20.0,-1020.0,-117.0
2.0,-249.0,-34.0,-27.0,-2.0,20.0,-16.0,-1021.0,-120.0
1.0,-248.0,-30.0,-24.0,-2.0,19.0,-11.0,-1017.0,-119.0
0.0,-249.0,-34.0,-21.0,-3.0,18.0,-12.0,-1024.0,-120.0
1.0,-251.0,-33.0,-16.0,-4.0,15.0,-5.0,-1025.0,-120.0
2.0,-250.0,-31.0,-11.0,-4.0,14.0,-3.0,-1020.0,-120.0
2.0,-248.0,-35.0,-5.0,-3.0,11.0,-4.0,-1023.0,-120.0
5.0,-247.0,-33.0,-2.0,-2.0,8.0,0.0,-1016.0,-122.0
3.0,-246.0,-38.0,1.0,0.0,4.0,-2.0,-1016.0,-122.0
8.0,-245.0,-35.0,3.0,-1.0,2.0,1.0,-1010.0,-129.0
5.0,-247.0,-34.0,3.0,4.0,0.0,1.0,-1012.0,-129.0
8.0,-250.0,-36.0,2.0,7.0,0.0,6.0,-1013.0,-125.0
6.0,-248.0,-34.0,2.0,10.0,-2.0,3.0,-1008.0,-126.0
4.0,-247.0,-37.0,1.0,13.0,-4.0,-1.0,-1007.0,-128.0
6.0,-248.0,-34.0,-1.0,15.0,-5.0,-2.0,-1014.0,-126.0
1.0,-242.0,-41.0,-4.0,18.0,-6.0,-3.0,-1014.0,-126.0
6.0,-246.0,-36.0,-5.0,21.0,-8.0,1.0,-1009.0,-123.0
2.0,-247.0,-35.0,-7.0,23.0,-9.0,-4.0,-1016.0,-124.0
2.0,-247.0,-33.0,-8.0,24.0,-10.0,-5.0,-1019.0,-121.0
1.0,-248.0,-31.0,-5.0,24.0,-13.0,-8.0,-1018.0,-116.0
1.0,-249.0,-34.0,-2.0,23.0,-13.0,-10.0,-1016.0,-125.0
3.0,-249.0,-36.0,0.0,25.0,-14.0,-14.0,-1016.0,-124.0
1.0,-248.0,-35.0,6.0,25.0,-12.0,-15.0,-1016.0,-128.0
0.0,-249.0,-36.0,11.0,25.0,-14.0,-13.0,-1015.0,-128.0
1.0,-248.0,-36.0,17.0,25.0,-12.0,-15.0,-1004.0,-125.0
1.0,-243.0,-39.0,22.0,27.0,-11.0,-14.0,-1005.0,-136.0
0.0,-243.0,-37.0,26.0,27.0,-10.0,-15.0,-1001.0,-138.0
1.0,-244.0,-33.0,28.0,27.0,-9.0,-16.0,-1001.0,-136.0
0.0,-244.0,-39.0,25.0,26.0,-7.0,-22.0,-998.0,-139.0
0.0,-241.0,-35.0,20.0,24.0,-5.0,-20.0,-993.0,-134.0
-1.0,-240.0,-36.0,16.0,22.0,-5.0,-23.0,-993.0,-138.0
1.0,-242.0,-37.0,11.0,21.0,-5.0,-21.0,-994.0,-140.0
0.0,-242.0,-37.0,6.0,19.0,-6.0,-20.0,-997.0,-144.0
0.0,-244.0,-40.0,2.0,15.0,-7.0,-18.0,-995.0,-145.0
0.0,-244.0,-39.0,-4.0,14.0,-7.0,-19.0,-995.0,-145.0
0.0,-243.0,-40.0,-10.0,13.0,-7.0,-15.0,-1004.0,-146.0
2.0,-247.0,-40.0,-15.0,13.0,-7.0,-20.0,-1008.0,-139.0
-1.0,-242.0,-39.0,-19.0,14.0,-7.0,-18.0,-1004.0,-141.0
0.0,-242.0,-39.0,-20.0,11.0,-8.0,-11.0,-1005.0,-142.0
1.0,-246.0,-40.0,-19.0,7.0,-6.0,-15.0,-1008.0,-140.0
1.0,-246.0,-40.0,-20.0,8.0,-4.0,-15.0,-1011.0,-145.0
2.0,-242.0,-40.0,-19.0,8.0,-5.0,-8.0,-1004.0,-143.0
1.0,-244.0,-40.0,-18.0,7.0,-5.0,-7.0,-1004.0,-150.0
2.0,-244.0,-38.0,-15.0,7.0,-4.0,-13.0,-1000.0,-158.0
1.0,-245.0,-41.0,-14.0,6.0,-4.0,-5.0,-1000.0,-154.0
1.0,-245.0,-43.0,-13.0,4.0,-4.0,-10.0,-998.0,-156.0
0.0,-244.0,-43.0,-13.0,1.0,-3.0,-5.0,-994.0,-152.0
-1.0,-243.0,-44.0,-18.0,1.0,-2.0,-11.0,-995.0,-157.0
2.0,-240.0,-43.0,-23.0,1.0,-1.0,-3.0,-998.0,-150.0
3.0,-241.0,-44.0,-28.0,1.0,-1.0,-4.0,-1001.0,-153.0
4.0,-243.0,-40.0,-35.0,0.0,0.0,-3.0,-1003.0,-152.0
3.0,-242.0,-43.0,-38.0,3.0,-3.0,-5.0,-1003.0,-153.0
3.0,-248.0,-43.0,-39.0,3.0,-4.0,-5.0,-999.0,-149.0
1.0,-241.0,-44.0,-39.0,4.0,-4.0,-4.0,-1002.0,-154.0
7.0,-244.0,-43.0,-39.0,4.0,-3.0,0.0,-1015.0,-149.0
1.0,-244.0,-45.0,-38.0,5.0,-7.0,-2.0,-1006.0,-161.0
2.0,-244.0,-44.0,-38.0,6.0,-4.0,2.0,-1008.0,-160.0
4.0,-247.0,-47.0,-35.0,7.0,-3.0,4.0,-1010.0,-160.0
4.0,-238.0,-49.0,-33.0,6.0,-3.0,3.0,-1010.0,-161.0
3.0,-249.0,-42.0,-29.0,5.0,-3.0,4.0,-1011.0,-165.0
2.0,-243.0,-45.0,-25.0,7.0,-4.0,0.0,-1009.0,-163.0
3.0,-243.0,-44.0,-19.0,9.0,-4.0,-1.0,-1012.0,-171.0
4.0,-248.0,-41.0,-15.0,12.0,-6.0,1.0,-1013.0,-154.0
5.0,-245.0,-41.0,-12.0,14.0,-6.0,5.0,-1015.0,-159.0
5.0,-249.0,-42.0,-9.0,18.0,-8.0,1.0,-1013.0,-160.0
1.0,-246.0,-43.0,-9.0,19.0,-9.0,3.0,-1011.0,-163.0
5.0,-247.0,-45.0,-10.0,22.0,-11.0,0.0,-1012.0,-163.0
4.0,-248.0,-44.0,-8.0,20.0,-13.0,1.0,-1006.0,-165.0
5.0,-248.0,-47.0,-6.0,21.0,-15.0,2.0,-1014.0,-167.0
3.0,-246.0,-43.0,-3.0,20.0,-18.0,7.0,-1006.0,-171.0
2.0,-247.0,-44.0,1.0,22.0,-21.0,5.0,-1007.0,-164.0
5.0,-244.0,-47.0,7.0,24.0,-21.0,5.0,-1005.0,-174.0
7.0,-245.0,-46.0,11.0,26.0,-23.0,2.0,-1006.0,-169.0
5.0,-243.0,-43.0,15.0,28.0,-26.0,4.0,-999.0,-171.0
6.0,-244.0,-47.0,16.0,28.0,-28.0,5.0,-999.0,-166.0
3.0,-241.0,-46.0,14.0,29.0,-29.0,1.0,-999.0,-167.0
6.0,-243.0,-46.0,11.0,29.0,-30.0,11.0,-997.0,-164.0
3.0,-244.0,-42.0,6.0,29.0,-30.0,4.0,-1002.0,-160.0
5.0,-247.0,-43.0,3.0,30.0,-32.0,6.0,-1007.0,-165.0
5.0,-245.0,-40.0,1.0,32.0,-33.0,4.0,-1005.0,-160.0
2.0,-244.0,-42.0,2.0,33.0,-34.0,3.0,-1003.0,-161.0
3.0,-245.0,-47.0,5.0,33.0,-37.0,-1.0,-1005.0,-153.0
2.0,-242.0,-43.0,7.0,34.0,-39.0,-3.0,-1003.0,-165.0
3.0,-241.0,-40.0,6.0,34.0,-41.0,-1.0,-1002.0,-160.0
4.0,-242.0,-39.0,1.0,36.0,-43.0,1.0,-993.0,-157.0
4.0,-240.0,-41.0,-5.0,35.0,-43.0,-2.0,-999.0,-150.0
6.0,-242.0,-43.0,-9.0,34.0,-43.0,4.0,-995.0,-160.0
6.0,-241.0,-44.0,-9.0,32.0,-42.0,0.0,-994.0,-166.0
2.0,-245.0,-49.0,-5.0,30.0,-44.0,1.0,-997.0,-174.0
3.0,-242.0,-50.0,0.0,31.0,-45.0,-3.0,-998.0,-178.0
2.0,-244.0,-50.0,6.0,35.0,-46.0,1.0,-994.0,-178.0
3.0,-241.0,-44.0,7.0,40.0,-46.0,-6.0,-993.0,-178.0
2.0,-242.0,-48.0,4.0,41.0,-49.0,-3.0,-994.0,-171.0
2.0,-242.0,-47.0,2.0,40.0,-50.0,-5.0,-994.0,-167.0
3.0,-244.0,-45.0,0.0,40.0,-50.0,-6.0,-996.0,-167.0
3.0,-241.0,-49.0,0.0,38.0,-52.0,-7.0,-1000.0,-167.0
0.0,-243.0,-49.0,0.0,37.0,-52.0,-3.0,-1000.0,-166.0
4.0,-246.0,-49.0,1.0,38.0,-52.0,-6.0,-1001.0,-176.0
0.0,-247.0,-48.0,4.0,38.0,-50.0,-2.0,-1009.0,-176.0
2.0,-248.0,-51.0,7.0,37.0,-47.0,1.0,-1013.0,-184.0
5.0,-249.0,-47.0,12.0,36.0,-48.0,-2.0,-1011.0,-177.0
7.0,-237.0,-54.0,16.0,37.0,-43.0,0.0,-1013.0,-179.0
3.0,-249.0,-44.0,21.0,36.0,-42.0,0.0,-1006.0,-180.0
4.0,-245.0,-54.0,24.0,36.0,-40.0,0.0,-1012.0,-183.0
1.0,-246.0,-51.0,24.0,34.0,-37.0,-2.0,-1008.0,-183.0
3.0,-243.0,-49.0,24.0,30.0,-36.0,1.0,-1008.0,-184.0
4.0,-247.0,-52.0,22.0,29.0,-32.0,-2.0,-1009.0,-187.0
4.0,-249.0,-48.0,22.0,26.0,-29.0,-1.0,-1007.0,-184.0
4.0,-245.0,-51.0,23.0,25.0,-27.0,-6.0,-1004.0,-183.0
2.0,-246.0,-51.0,22.0,25.0,-27.0,-5.0,-1006.0,-187.0
2.0,-243.0,-47.0,22.0,25.0,-23.0,-8.0,-1001.0,-193.0
1.0,-242.0,-53.0,23.0,24.0,-23.0,-8.0,-1003.0,-181.0
2.0,-243.0,-50.0,21.0,25.0,-22.0,-5.0,-1005.0,-192.0
1.0,-243.0,-52.0,18.0,23.0,-21.0,-10.0,-1001.0,-193.0
1.0,-246.0,-50.0,17.0,23.0,-16.0,-3.0,-999.0,-185.0
1.0,-247.0,-53.0,17.0,22.0,-14.0,-8.0,-1005.0,-183.0
0.0,-243.0,-49.0,16.0,23.0,-10.0,-6.0,-1010.0,-187.0
1.0,-243.0,-49.0,15.0,24.0,-7.0,-10.0,-1008.0,-187.0
0.0,-246.0,-49.0,16.0,24.0,-4.0,-14.0,-1011.0,-181.0
1.0,-247.0,-48.0,21.0,22.0,-4.0,-8.0,-1009.0,-180.0
1.0,-248.0,-49.0,25.0,22.0,-4.0,-8.0,-1012.0,-168.0
2.0,-247.0,-48.0,28.0,23.0,-2.0,-9.0,-1010.0,-174.0
1.0,-247.0,-44.0,32.0,23.0,-2.0,-9.0,-1004.0,-171.0
1.0,-245.0,-45.0,35.0,24.0,-2.0,-7.0,-1007.0,-161.0
4.0,-245.0,-45.0,39.0,24.0,-4.0,-5.0,-1001.0,-172.0
1.0,-244.0,-45.0,41.0,23.0,-4.0,-6.0,-997.0,-162.0
4.0,-245.0,-46.0,42.0,22.0,-6.0,-9.0,-996.0,-170.0
1.0,-240.0,-45.0,43.0,24.0,-8.0,3.0,-992.0,-164.0
1.0,-242.0,-44.0,41.0,22.0,-9.0,0.0,-991.0,-163.0
4.0,-244.0,-45.0,39.0,22.0,-10.0,-3.0,-991.0,-168.0
5.0,-243.0,-43.0,36.0,21.0,-11.0,-4.0,-997.0,-169.0
2.0,-242.0,-47.0,35.0,22.0,-10.0,-3.0,-995.0,-169.0
5.0,-241.0,-44.0,34.0,22.0,-8.0,0.0,-1001.0,-169.0
4.0,-243.0,-45.0,33.0,24.0,-9.0,0.0,-996.0,-162.0
6.0,-244.0,-47.0,33.0,25.0,-9.0,1.0,-995.0,-165.0
3.0,-244.0,-44.0,31.0,25.0,-9.0,5.0,-997.0,-168.0
5.0,-244.0,-46.0,31.0,23.0,-9.0,-1.0,-996.0,-162.0
2.0,-244.0,-44.0,27.0,22.0,-9.0,1.0,-993.0,-170.0
6.0,-246.0,-44.0,24.0,21.0,-10.0,-2.0,-998.0,-167.0
2.0,-244.0,-47.0,23.0,23.0,-10.0,0.0,-1000.0,-169.0
5.0,-244.0,-46.0,25.0,23.0,-10.0,-1.0,-1002.0,-169.0
3.0,-243.0,-45.0,25.0,24.0,-12.0,-3.0,-1002.0,-169.0
2.0,-243.0,-51.0,26.0,22.0,-12.0,-3.0,-1006.0,-175.0
3.0,-246.0,-45.0,25.0,22.0,-13.0,-6.0,-1002.0,-180.0
2.0,-242.0,-44.0,25.0,22.0,-12.0,-7.0,-997.0,-180.0
2.0,-245.0,-49.0,25.0,21.0,-16.0,-6.0,-1000.0,-174.0
2.0,-244.0,-47.0,24.0,20.0,-15.0,-11.0,-1002.0,-174.0
1.0,-244.0,-43.0,21.0,18.0,-16.0,-11.0,-999.0,-174.0
0.0,-246.0,-45.0,19.0,15.0,-16.0,-8.0,-1003.0,-174.0
2.0,-245.0,-46.0,18.0,12.0,-17.0,-11.0,-998.0,-176.0
0.0,-243.0,-50.0,19.0,9.0,-18.0,-12.0,-1003.0,-181.0
0.0,-246.0,-47.0,19.0,5.0,-20.0,-14.0,-1000.0,-177.0
1.0,-247.0,-46.0,18.0,2.0,-19.0,-11.0,-1002.0,-178.0
1.0,-247.0,-49.0,21.0,2.0,-18.0,-9.0,-1002.0,-172.0
3.0,-246.0,-48.0,23.0,0.0,-16.0,-6.0,-1002.0,-175.0
3.0,-246.0,-46.0,27.0,0.0,-17.0,-5.0,-1008.0,-172.0
3.0,-248.0,-46.0,31.0,-1.0,-17.0,-3.0,-1009.0,-170.0
0.0,-243.0,-48.0,36.0,-2.0,-17.0,-10.0,-1006.0,-171.0
1.0,-246.0,-47.0,39.0,-5.0,-16.0,-8.0,-1002.0,-171.0
6.0,-249.0,-46.0,39.0,-6.0,-16.0,-3.0,-1008.0,-174.0
2.0,-241.0,-43.0,36.0,-7.0,-14.0,-4.0,-998.0,-174.0
5.0,-243.0,-50.0,34.0,-8.0,-13.0,-3.0,-1005.0,-175.0
3.0,-246.0,-47.0,34.0,-8.0,-12.0,-3.0,-1006.0,-168.0
2.0,-243.0,-43.0,34.0,-8.0,-12.0,-3.0,-1004.0,-169.0
5.0,-245.0,-46.0,36.0,-8.0,-13.0,-1.0,-1007.0,-162.0
3.0,-244.0,-44.0,36.0,-9.0,-13.0,4.0,-1000.0,-171.0
3.0,-245.0,-45.0,36.0,-10.0,-14.0,3.0,-1002.0,-168.0
7.0,-246.0,-45.0,38.0,-12.0,-13.0,2.0,-999.0,-168.0
4.0,-246.0,-47.0,41.0,-12.0,-14.0,-1.0,-1001.0,-168.0
7.0,-241.0,-48.0,43.0,-12.0,-12.0,1.0,-999.0,-173.0
6.0,-244.0,-47.0,47.0,-10.0,-12.0,1.0,-1000.0,-176.0
2.0,-242.0,-47.0,48.0,-9.0,-15.0,-1.0,-997.0,-177.0
2.0,-244.0,-47.0,48.0,-9.0,-13.0,-2.0,-999.0,-176.0
3.0,-241.0,-45.0,48.0,-7.0,-13.0,-4.0,-1001.0,-175.0
4.0,-246.0,-45.0,47.0,-7.0,-11.0,1.0,-997.0,-177.0
2.0,-245.0,-46.0,46.0,-5.0,-10.0,-8.0,-1002.0,-169.0
0.0,-242.0,-45.0,44.0,-6.0,-9.0,-5.0,-995.0,-174.0
2.0,-244.0,-48.0,44.0,-4.0,-9.0,-6.0,-998.0,-171.0
2.0,-242.0,-45.0,45.0,-1.0,-10.0,-11.0,-998.0,-172.0
3.0,-244.0,-48.0,46.0,0.0,-7.0,-6.0,-994.0,-174.0
1.0,-244.0,-46.0,46.0,-1.0,-3.0,-18.0,-999.0,-173.0
1.0,-245.0,-47.0,45.0,-2.0,-4.0,-8.0,-996.0,-170.0
2.0,-245.0,-39.0,43.0,-4.0,-3.0,-10.0,-1000.0,-174.0
4.0,-246.0,-48.0,42.0,-4.0,-3.0,-10.0,-1002.0,-166.0
1.0,-243.0,-46.0,42.0,-5.0,-3.0,-9.0,-1002.0,-166.0
2.0,-246.0,-44.0,43.0,-4.0,-4.0,-7.0,-1000.0,-166.0
4.0,-245.0,-44.0,44.0,-6.0,-2.0,-8.0,-997.0,-164.0
1.0,-247.0,-45.0,43.0,-7.0,-3.0,-12.0,-1000.0,-172.0
1.0,-244.0,-48.0,42.0,-8.0,-6.0,-10.0,-997.0,-167.0
1.0,-241.0,-45.0,41.0,-10.0,-6.0,-9.0,-1002.0,-170.0
3.0,-244.0,-49.0,39.0,-12.0,-5.0,-8.0,-995.0,-172.0
4.0,-244.0,-46.0,39.0,-12.0,-6.0,-9.0,-998.0,-172.0
2.0,-243.0,-47.0,40.0,-13.0,-7.0,-10.0,-991.0,-172.0
3.0,-239.0,-47.0,41.0,-13.0,-6.0,-7.0,-994.0,-170.0
0.0,-240.0,-50.0,41.0,-13.0,-8.0,-8.0,-992.0,-182.0
2.0,-244.0,-46.0,41.0,-14.0,-8.0,-8.0,-992.0,-170.0
1.0,-242.0,-52.0,40.0,-13.0,-8.0,-7.0,-991.0,-174.0
0.0,-239.0,-46.0,37.0,-13.0,-6.0,-8.0,-991.0,-175.0
0.0,-243.0,-44.0,31.0,-13.0,-3.0,-3.0,-1001.0,-173.0
2.0,-244.0,-46.0,28.0,-14.0,-4.0,-7.0,-1001.0,-171.0
4.0,-244.0,-49.0,24.0,-14.0,-2.0,-1.0,-1003.0,-172.0
3.0,-243.0,-48.0,26.0,-15.0,-4.0,-7.0,-1004.0,-177.0
1.0,-248.0,-47.0,29.0,-15.0,-4.0,-5.0,-1014.0,-166.0
2.0,-247.0,-47.0,30.0,-18.0,-3.0,-2.0,-1008.0,-175.0
3.0,-249.0,-47.0,36.0,-18.0,-3.0,-1.0,-1014.0,-181.0
3.0,-248.0,-49.0,42.0,-19.0,-6.0,-6.0,-1008.0,-184.0
5.0,-245.0,-48.0,44.0,-20.0,-7.0,1.0,-1010.0,-181.0
4.0,-248.0,-48.0,49.0,-20.0,-7.0,-2.0,-1007.0,-182.0
3.0,-246.0,-48.0,52.0,-20.0,-9.0,-3.0,-1010.0,-181.0
3.0,-243.0,-47.0,57.0,-18.0,-10.0,-2.0,-1006.0,-177.0
5.0,-247.0,-48.0,63.0,-17.0,-12.0,-1.0,-1004.0,-180.0
2.0,-248.0,-49.0,69.0,-19.0,-15.0,3.0,-1003.0,-196.0
1.0,-244.0,-48.0,73.0,-19.0,-16.0,0.0,-997.0,-193.0
0.0,-243.0,-57.0,75.0,-18.0,-16.0,2.0,-997.0,-193.0
2.0,-245.0,-53.0,72.0,-18.0,-16.0,-3.0,-1000.0,-194.0
2.0,-244.0,-52.0,70.0,-18.0,-18.0,-5.0,-996.0,-193.0
1.0,-243.0,-51.0,68.0,-20.0,-17.0,-6.0,-1011.0,-186.0
0.0,-245.0,-50.0,69.0,-24.0,-21.0,-7.0,-1007.0,-189.0
1.0,-245.0,-47.0,73.0,-23.0,-19.0,-11.0,-1005.0,-182.0
5.0,-251.0,-47.0,79.0,-25.0,-18.0,-13.0,-1012.0,-192.0
0.0,-246.0,-48.0,83.0,-27.0,-20.0,-9.0,-1011.0,-188.0
3.0,-247.0,-45.0,88.0,-30.0,-21.0,-8.0,-1012.0,-191.0
0.0,-246.0,-45.0,92.0,-31.0,-20.0,-7.0,-1007.0,-180.0
2.0,-245.0,-47.0,97.0,-32.0,-20.0,-6.0,-1003.0,-178.0
2.0,-246.0,-49.0,100.0,-33.0,-18.0,-8.0,-1006.0,-174.0
2.0,-246.0,-49.0,102.0,-36.0,-18.0,-3.0,-1003.0,-175.0
3.0,-244.0,-47.0,103.0,-38.0,-18.0,-4.0,-996.0,-174.0
4.0,-241.0,-47.0,102.0,-37.0,-17.0,-2.0,-993.0,-180.0
4.0,-243.0,-49.0,98.0,-40.0,-19.0,-1.0,-996.0,-181.0
3.0,-242.0,-48.0,92.0,-40.0,-18.0,1.0,-992.0,-177.0
4.0,-243.0,-35.0,88.0,-40.0,-18.0,0.0,-995.0,-182.0
5.0,-239.0,-49.0,84.0,-39.0,-20.0,0.0,-997.0,-172.0
5.0,-239.0,-46.0,81.0,-38.0,-20.0,5.0,-993.0,-174.0
6.0,-241.0,-46.0,80.0,-36.0,-21.0,8.0,-991.0,-175.0
8.0,-243.0,-47.0,79.0,-33.0,-20.0,8.0,-994.0,-174.0
5.0,-243.0,-51.0,76.0,-31.0,-20.0,7.0,-994.0,-180.0
6.0,-243.0,-50.0,74.0,-29.0,-22.0,9.0,-999.0,-169.0
4.0,-243.0,-45.0,72.0,-28.0,-21.0,8.0,-1001.0,-177.0
5.0,-244.0,-51.0,70.0,-26.0,-22.0,10.0,-1000.0,-179.0
7.0,-246.0,-48.0,69.0,-23.0,-21.0,8.0,-998.0,-186.0
2.0,-246.0,-46.0,70.0,-21.0,-21.0,2.0,-999.0,-183.0
4.0,-243.0,-50.0,72.0,-19.0,-21.0,2.0,-999.0,-184.0
4.0,-245.0,-52.0,72.0,-17.0,-22.0,-1.0,-997.0,-183.0
4.0,-245.0,-49.0,72.0,-14.0,-21.0,-2.0,-995.0,-182.0
4.0,-244.0,-49.0,71.0,-14.0,-21.0,3.0,-1001.0,-181.0
2.0,-246.0,-52.0,69.0,-14.0,-21.0,0.0,-999.0,-182.0
2.0,-243.0,-44.0,67.0,-13.0,-20.0,-3.0,-994.0,-175.0
4.0,-243.0,-45.0,63.0,-12.0,-19.0,-4.0,-997.0,-178.0
2.0,-246.0,-42.0,60.0,-11.0,-19.0,1.0,-1000.0,-179.0
2.0,-243.0,-43.0,61.0,-11.0,-17.0,1.0,-1000.0,-169.0
3.0,-245.0,-47.0,60.0,-11.0,-16.0,-6.0,-1005.0,-167.0
3.0,-249.0,-43.0,61.0,-11.0,-17.0,-5.0,-1003.0,-167.0
2.0,-244.0,-49.0,63.0,-11.0,-16.0,0.0,-1005.0,-168.0
1.0,-246.0,-44.0,61.0,-12.0,-18.0,-2.0,-1011.0,-172.0
4.0,-247.0,-47.0,62.0,-12.0,-17.0,0.0,-1005.0,-165.0
3.0,-240.0,-48.0,62.0,-10.0,-16.0,0.0,-1010.0,-174.0
4.0,-243.0,-47.0,61.0,-12.0,-18.0,0.0,-1004.0,-173.0
1.0,-244.0,-47.0,62.0,-12.0,-17.0,0.0,-1005.0,-172.0
4.0,-246.0,-48.0,64.0,-10.0,-16.0,1.0,-1008.0,-170.0
4.0,-244.0,-45.0,67.0,-10.0,-16.0,3.0,-1004.0,-171.0
2.0,-243.0,-45.0,69.0,-10.0,-16.0,-3.0,-1003.0,-174.0
6.0,-244.0,-47.0,71.0,-10.0,-15.0,-3.0,-1005.0,-169.0
4.0,-245.0,-46.0,74.0,-8.0,-17.0,-3.0,-999.0,-172.0
3.0,-242.0,-42.0,73.0,-8.0,-16.0,-6.0,-999.0,-168.0
1.0,-245.0,-41.0,73.0,-8.0,-14.0,-3.0,-994.0,-168.0
2.0,-243.0,-46.0,74.0,-8.0,-14.0,-5.0,-1004.0,-166.0
2.0,-244.0,-45.0,74.0,-6.0,-14.0,-4.0,-997.0,-166.0
1.0,-243.0,-42.0,74.0,-5.0,-13.0,-2.0,-1004.0,-167.0
3.0,-246.0,-47.0,74.0,-5.0,-14.0,-4.0,-997.0,-166.0
4.0,-241.0,-46.0,76.0,-5.0,-13.0,-1.0,-1004.0,-170.0
5.0,-245.0,-40.0,77.0,-2.0,-15.0,0.0,-1003.0,-162.0
8.0,-248.0,-45.0,79.0,2.0,-13.0,1.0,-1002.0,-164.0
3.0,-243.0,-42.0,82.0,4.0,-15.0,3.0,-1003.0,-160.0
4.0,-244.0,-42.0,83.0,7.0,-14.0,2.0,-1001.0,-159.0
4.0,-247.0,-41.0,83.0,10.0,-13.0,6.0,-1004.0,-162.0
6.0,-244.0,-44.0,82.0,10.0,-11.0,6.0,-1005.0,-158.0
10.0,-248.0,-42.0,82.0,13.0,-10.0,9.0,-1002.0,-160.0
6.0,-245.0,-41.0,81.0,16.0,-9.0,12.0,-1000.0,-156.0
8.0,-245.0,-43.0,83.0,16.0,-10.0,12.0,-1006.0,-162.0
5.0,-243.0,-41.0,86.0,17.0,-7.0,10.0,-1005.0,-167.0
7.0,-246.0,-45.0,89.0,20.0,-7.0,9.0,-1003.0,-165.0
5.0,-241.0,-45.0,90.0,22.0,-7.0,4.0,-1001.0,-159.0
4.0,-244.0,-47.0,91.0,24.0,-8.0,3.0,-997.0,-169.0
2.0,-241.0,-40.0,90.0,24.0,-9.0,-7.0,-992.0,-162.0
2.0,-240.0,-46.0,86.0,25.0,-8.0,2.0,-995.0,-165.0
2.0,-240.0,-43.0,83.0,25.0,-7.0,-6.0,-993.0,-165.0
0.0,-242.0,-46.0,80.0,24.0,-10.0,-5.0,-992.0,-165.0
3.0,-241.0,-46.0,74.0,24.0,-10.0,-6.0,-998.0,-164.0
4.0,-244.0,-46.0,70.0,22.0,-12.0,-11.0,-999.0,-166.0
1.0,-239.0,-49.0,68.0,21.0,-11.0,-10.0,-996.0,-170.0
3.0,-242.0,-42.0,66.0,19.0,-11.0,-9.0,-997.0,-169.0
1.0,-244.0,-45.0,65.0,19.0,-11.0,-12.0,-1004.0,-172.0
3.0,-242.0,-42.0,66.0,18.0,-11.0,-9.0,-999.0,-171.0
2.0,-244.0,-46.0,66.0,16.0,-11.0,-14.0,-1001.0,-172.0
0.0,-243.0,-48.0,68.0,17.0,-11.0,-14.0,-1004.0,-159.0
-1.0,-243.0,-47.0,69.0,15.0,-10.0,-16.0,-1003.0,-166.0
0.0,-243.0,-43.0,68.0,13.0,-9.0,-14.0,-1003.0,-171.0
1.0,-246.0,-49.0,68.0,11.0,-7.0,-14.0,-1005.0,-167.0
0.0,-245.0,-49.0,68.0,8.0,-8.0,-10.0,-1009.0,-173.0
2.0,-246.0,-48.0,71.0,7.0,-9.0,-11.0,-1005.0,-168.0
0.0,-248.0,-45.0,73.0,5.0,-9.0,-12.0,-1005.0,-168.0
1.0,-245.0,-44.0,76.0,4.0,-8.0,-14.0,-1005.0,-167.0
2.0,-245.0,-44.0,79.0,2.0,-8.0,-6.0,-1004.0,-168.0
2.0,-246.0,-44.0,76.0,0.0,-7.0,-7.0,-1005.0,-164.0
4.0,-245.0,-45.0,73.0,-3.0,-6.0,-6.0,-1004.0,-159.0
4.0,-247.0,-43.0,73.0,-3.0,-8.0,-3.0,-1003.0,-165.0
4.0,-249.0,-45.0,72.0,-4.0,-9.0,-1.0,-1003.0,-169.0
4.0,-244.0,-42.0,71.0,-6.0,-8.0,-1.0,-1004.0,-171.0
-1.0,-245.0,-44.0,72.0,-5.0,-7.0,-3.0,-1005.0,-169.0
2.0,-245.0,-48.0,74.0,-6.0,-8.0,-5.0,-1004.0,-173.0
5.0,-245.0,-43.0,76.0,-4.0,-7.0,-2.0,-1000.0,-167.0
1.0,-245.0,-44.0,76.0,-3.0,-8.0,-2.0,-1004.0,-167.0
1.0,-243.0,-47.0,78.0,-3.0,-7.0,-8.0,-1001.0,-170.0
2.0,-247.0,-44.0,79.0,-3.0,-5.0,-5.0,-1000.0,-165.0
2.0,-247.0,-46.0,78.0,-4.0,-6.0,-6.0,-1003.0,-166.0
3.0,-249.0,-43.0,78.0,-5.0,-6.0,-12.0,-1002.0,-170.0
1.0,-248.0,-41.0,79.0,-5.0,-6.0,-13.0,-1003.0,-163.0
0.0,-245.0,-41.0,79.0,-7.0,-3.0,-6.0,-1008.0,-165.0
1.0,-243.0,-46.0,82.0,-7.0,-2.0,-13.0,-1003.0,-158.0
0.0,-243.0,-43.0,85.0,-7.0,-2.0,-12.0,-996.0,-165.0
2.0,-244.0,-44.0,85.0,-8.0,-3.0,-8.0,-999.0,-164.0
4.0,-246.0,-42.0,85.0,-8.0,-3.0,-7.0,-995.0,-168.0
3.0,-243.0,-43.0,83.0,-7.0,-2.0,-4.0,-992.0,-160.0
3.0,-244.0,-47.0,78.0,-7.0,-3.0,-4.0,-986.0,-169.0
3.0,-245.0,-43.0,71.0,-8.0,-2.0,-7.0,-994.0,-160.0
5.0,-248.0,-40.0,66.0,-9.0,-2.0,-5.0,-999.0,-162.0
5.0,-245.0,-44.0,62.0,-8.0,0.0,-5.0,-999.0,-158.0
5.0,-246.0,-46.0,62.0,-7.0,-1.0,-3.0,-1003.0,-165.0
4.0,-248.0,-46.0,61.0,-6.0,0.0,-8.0,-1002.0,-167.0
2.0,-243.0,-43.0,63.0,-4.0,1.0,-6.0,-1003.0,-165.0
3.0,-247.0,-39.0,65.0,-5.0,1.0,-8.0,-1000.0,-165.0
3.0,-247.0,-42.0,62.0,-3.0,0.0,-10.0,-1001.0,-151.0
1.0,-243.0,-41.0,60.0,-1.0,1.0,-11.0,-1001.0,-153.0
2.0,-240.0,-42.0,56.0,-1.0,2.0,-8.0,-1002.0,-154.0
3.0,-246.0,-43.0,57.0,-2.0,1.0,-6.0,-999.0,-152.0
3.0,-245.0,-44.0,60.0,-3.0,0.0,-9.0,-1005.0,-162.0
4.0,-241.0,-44.0,64.0,-3.0,1.0,-5.0,-999.0,-161.0
3.0,-242.0,-43.0,65.0,0.0,0.0,-4.0,-998.0,-160.0
5.0,-244.0,-42.0,63.0,1.0,-4.0,-2.0,-998.0,-154.0
4.0,-243.0,-42.0,60.0,0.0,-4.0,-2.0,-996.0,-150.0
4.0,-241.0,-42.0,55.0,-1.0,-6.0,-3.0,-998.0,-164.0
4.0,-246.0,-49.0,52.0,0.0,-6.0,1.0,-999.0,-161.0
4.0,-244.0,-47.0,53.0,3.0,-7.0,1.0,-1001.0,-160.0
4.0,-247.0,-42.0,54.0,5.0,-7.0,-1.0,-997.0,-161.0
2.0,-245.0,-44.0,57.0,7.0,-7.0,-5.0,-1006.0,-151.0
2.0,-247.0,-45.0,57.0,10.0,-8.0,-4.0,-1007.0,-158.0
3.0,-245.0,-42.0,59.0,10.0,-9.0,-7.0,-998.0,-146.0
0.0,-244.0,-40.0,59.0,10.0,-8.0,-9.0,-998.0,-155.0
2.0,-244.0,-39.0,57.0,9.0,-8.0,-12.0,-994.0,-156.0
4.0,-246.0,-38.0,52.0,8.0,-8.0,-15.0,-997.0,-147.0
0.0,-241.0,-40.0,46.0,5.0,-7.0,-16.0,-999.0,-147.0
1.0,-244.0,-38.0,44.0,3.0,-6.0,-10.0,-996.0,-151.0
3.0,-244.0,-43.0,43.0,1.0,-7.0,-11.0,-1005.0,-161.0
0.0,-245.0,-39.0,43.0,0.0,-6.0,-8.0,-1003.0,-159.0
3.0,-249.0,-43.0,43.0,-2.0,-8.0,-11.0,-1007.0,-164.0
1.0,-246.0,-43.0,43.0,-2.0,-8.0,-14.0,-1004.0,-152.0
-3.0,-249.0,-41.0,43.0,-4.0,-9.0,-5.0,-1003.0,-154.0
3.0,-245.0,-44.0,42.0,-7.0,-10.0,-9.0,-1003.0,-163.0
0.0,-244.0,-42.0,41.0,-8.0,-12.0,-8.0,-999.0,-153.0
1.0,-245.0,-45.0,41.0,-9.0,-12.0,-15.0,-1002.0,-155.0
2.0,-244.0,-36.0,41.0,-10.0,-10.0,-9.0,-998.0,-157.0
4.0,-242.0,-46.0,41.0,-11.0,-10.0,-11.0,-1001.0,-152.0
2.0,-243.0,-42.0,40.0,-11.0,-12.0,-12.0,-999.0,-163.0
1.0,-241.0,-46.0,39.0,-13.0,-11.0,-10.0,-997.0,-163.0
0.0,-244.0,-45.0,38.0,-14.0,-11.0,-12.0,-996.0,-161.0
1.0,-244.0,-39.0,36.0,-15.0,-13.0,-10.0,-994.0,-158.0
1.0,-245.0,-40.0,34.0,-14.0,-12.0,-10.0,-998.0,-163.0
3.0,-242.0,-43.0,33.0,-15.0,-10.0,-3.0,-997.0,-164.0
3.0,-241.0,-42.0,31.0,-15.0,-11.0,-7.0,-995.0,-163.0
6.0,-244.0,-41.0,29.0,-15.0,-11.0,-4.0,-997.0,-162.0
3.0,-242.0,-45.0,29.0,-14.0,-10.0,-3.0,-999.0,-162.0
1.0,-241.0,-44.0,28.0,-13.0,-8.0,-4.0,-1005.0,-163.0
2.0,-243.0,-44.0,28.0,-12.0,-8.0,-7.0,-1003.0,-156.0
2.0,-244.0,-45.0,30.0,-10.0,-9.0,-3.0,-1000.0,-161.0
5.0,-245.0,-43.0,30.0,-10.0,-8.0,3.0,-1003.0,-165.0
3.0,-245.0,-47.0,31.0,-10.0,-7.0,-6.0,-1001.0,-163.0
3.0,-242.0,-41.0,30.0,-9.0,-7.0,-1.0,-1000.0,-170.0
3.0,-244.0,-43.0,28.0,-9.0,-10.0,-1.0,-995.0,-167.0
3.0,-245.0,-47.0,25.0,-8.0,-7.0,2.0,-998.0,-171.0
2.0,-245.0,-48.0,21.0,-6.0,-7.0,-2.0,-1000.0,-172.0
3.0,-245.0,-44.0,20.0,-5.0,-5.0,-3.0,-1002.0,-169.0
1.0,-244.0,-51.0,19.0,-4.0,-4.0,0.0,-1004.0,-172.0
1.0,-243.0,-49.0,20.0,-3.0,-4.0,-4.0,-1007.0,-169.0
2.0,-246.0,-44.0,22.0,-2.0,-5.0,-4.0,-1002.0,-178.0
3.0,-246.0,-51.0,22.0,-1.0,-3.0,-2.0,-1004.0,-170.0
1.0,-246.0,-49.0,24.0,2.0,-4.0,-2.0,-1005.0,-172.0
1.0,-247.0,-47.0,27.0,2.0,-3.0,-6.0,-1008.0,-167.0
1.0,-246.0,-47.0,28.0,2.0,-4.0,-9.0,-1011.0,-175.0
2.0,-247.0,-49.0,30.0,4.0,-4.0,-6.0,-1010.0,-180.0
1.0,-243.0,-43.0,31.0,4.0,-6.0,-7.0,-1011.0,-173.0
2.0,-248.0,-46.0,33.0,6.0,-7.0,-1.0,-1015.0,-170.0
1.0,-247.0,-47.0,35.0,9.0,-7.0,-6.0,-1018.0,-177.0
1.0,-250.0,-49.0,40.0,10.0,-7.0,-5.0,-1012.0,-170.0
4.0,-248.0,-48.0,43.0,12.0,-7.0,-7.0,-1012.0,-174.0
0.0,-249.0,-50.0,48.0,12.0,-8.0,-8.0,-1019.0,-179.0
0.0,-246.0,-44.0,51.0,14.0,-7.0,-10.0,-1013.0,-179.0
0.0,-247.0,-48.0,56.0,14.0,-8.0,-9.0,-1013.0,-179.0
0.0,-246.0,-48.0,59.0,14.0,-8.0,-8.0,-1008.0,-173.0
1.0,-246.0,-45.0,63.0,15.0,-8.0,-3.0,-998.0,-178.0
1.0,-246.0,-46.0,66.0,16.0,-11.0,-2.0,-1001.0,-174.0
2.0,-244.0,-46.0,67.0,16.0,-11.0,-8.0,-1005.0,-176.0
1.0,-247.0,-48.0,68.0,18.0,-12.0,-9.0,-1005.0,-171.0
0.0,-245.0,-47.0,69.0,18.0,-12.0,-8.0,-1003.0,-172.0
1.0,-241.0,-42.0,69.0,18.0,-15.0,-12.0,-1003.0,-164.0
1.0,-242.0,-47.0,69.0,17.0,-14.0,-10.0,-997.0,-164.0
3.0,-242.0,-46.0,69.0,16.0,-15.0,-10.0,-999.0,-167.0
3.0,-242.0,-45.0,66.0,13.0,-15.0,-9.0,-998.0,-166.0
2.0,-242.0,-45.0,63.0,13.0,-17.0,-11.0,-1004.0,-164.0
2.0,-243.0,-43.0,61.0,13.0,-15.0,-7.0,-1003.0,-165.0
0.0,-243.0,-43.0,62.0,12.0,-15.0,-10.0,-998.0,-164.0
1.0,-243.0,-44.0,63.0,12.0,-14.0,-10.0,-994.0,-164.0
1.0,-241.0,-46.0,64.0,11.0,-14.0,-7.0,-996.0,-167.0
1.0,-242.0,-46.0,64.0,9.0,-13.0,-7.0,-990.0,-167.0
1.0,-242.0,-39.0,61.0,8.0,-13.0,-15.0,-992.0,-166.0
3.0,-243.0,-45.0,59.0,8.0,-11.0,-9.0,-991.0,-163.0
3.0,-244.0,-40.0,53.0,6.0,-9.0,-8.0,-991.0,-164.0
2.0,-240.0,-43.0,49.0,6.0,-11.0,-10.0,-994.0,-158.0
1.0,-241.0,-45.0,49.0,4.0,-13.0,-10.0,-991.0,-158.0
0.0,-244.0,-45.0,43.0,5.0,-9.0,-10.0,-990.0,-159.0
2.0,-242.0,-43.0,39.0,4.0,-10.0,-9.0,-989.0,-165.0
1.0,-241.0,-44.0,32.0,3.0,-12.0,-14.0,-993.0,-163.0
1.0,-246.0,-43.0,26.0,2.0,-12.0,-13.0,-996.0,-161.0
0.0,-241.0,-41.0,22.0,2.0,-13.0,-12.0,-995.0,-156.0
2.0,-244.0,-47.0,18.0,2.0,-12.0,-8.0,-997.0,-162.0
3.0,-245.0,-41.0,17.0,1.0,-12.0,-8.0,-996.0,-169.0
3.0,-246.0,-45.0,16.0,0.0,-13.0,-11.0,-994.0,-165.0
5.0,-244.0,-45.0,16.0,0.0,-14.0,-9.0,-990.0,-165.0
4.0,-242.0,-46.0,15.0,3.0,-13.0,-9.0,-1000.0,-166.0
1.0,-243.0,-50.0,15.0,4.0,-13.0,-7.0,-1003.0,-169.0
2.0,-242.0,-44.0,16.0,4.0,-13.0,-2.0,-993.0,-166.0
3.0,-245.0,-45.0,14.0,3.0,-12.0,-5.0,-996.0,-167.0
1.0,-242.0,-49.0,15.0,3.0,-15.0,-6.0,-996.0,-166.0
3.0,-245.0,-43.0,12.0,4.0,-16.0,-2.0,-994.0,-168.0
5.0,-243.0,-45.0,9.0,4.0,-16.0,-7.0,-1006.0,-172.0
4.0,-244.0,-45.0,9.0,6.0,-18.0,-1.0,-1001.0,-175.0
7.0,-244.0,-45.0,7.0,7.0,-18.0,-3.0,-1002.0,-168.0
0.0,-243.0,-45.0,7.0,9.0,-19.0,-3.0,-1003.0,-172.0
4.0,-248.0,-47.0,5.0,11.0,-21.0,-3.0,-1012.0,-169.0
3.0,-245.0,-43.0,5.0,10.0,-20.0,3.0,-1007.0,-172.0
2.0,-244.0,-45.0,8.0,10.0,-20.0,-3.0,-1011.0,-173.0
3.0,-248.0,-42.0,11.0,11.0,-20.0,-3.0,-1006.0,-174.0
2.0,-248.0,-47.0,14.0,10.0,-20.0,-5.0,-1007.0,-170.0
1.0,-244.0,-44.0,20.0,13.0,-23.0,-4.0,-1012.0,-174.0
1.0,-247.0,-46.0,27.0,14.0,-23.0,-11.0,-1010.0,-171.0
2.0,-247.0,-43.0,31.0,13.0,-22.0,-11.0,-1005.0,-175.0
1.0,-245.0,-46.0,34.0,11.0,-22.0,-12.0,-1004.0,-176.0
3.0,-243.0,-45.0,35.0,10.0,-22.0,-14.0,-1005.0,-179.0
1.0,-246.0,-49.0,36.0,9.0,-22.0,-11.0,-1008.0,-178.0
2.0,-244.0,-48.0,34.0,7.0,-22.0,-11.0,-1007.0,-169.0
0.0,-247.0,-47.0,34.0,6.0,-22.0,-12.0,-996.0,-177.0
0.0,-246.0,-51.0,35.0,4.0,-20.0,-12.0,-1008.0,-176.0
0.0,-246.0,-47.0,35.0,4.0,-19.0,-11.0,-1007.0,-175.0
2.0,-251.0,-46.0,36.0,3.0,-19.0,-7.0,-1009.0,-179.0
1.0,-243.0,-50.0,38.0,3.0,-20.0,-8.0,-1011.0,-167.0
1.0,-243.0,-45.0,42.0,5.0,-21.0,-2.0,-1009.0,-176.0
1.0,-244.0,-44.0,42.0,6.0,-19.0,-6.0,-1008.0,-175.0
2.0,-244.0,-46.0,44.0,7.0,-20.0,-10.0,-1007.0,-171.0
4.0,-246.0,-45.0,45.0,8.0,-19.0,-2.0,-1003.0,-168.0
1.0,-246.0,-46.0,44.0,8.0,-19.0,0.0,-1003.0,-167.0
2.0,-244.0,-46.0,45.0,6.0,-19.0,2.0,-1004.0,-170.0
1.0,-243.0,-48.0,49.0,6.0,-17.0,2.0,-1003.0,-180.0
4.0,-242.0,-46.0,54.0,9.0,-19.0,0.0,-1001.0,-183.0
2.0,-243.0,-49.0,56.0,15.0,-17.0,12.0,-993.0,-179.0
2.0,-244.0,-51.0,57.0,18.0,-20.0,-4.0,-1003.0,-178.0
5.0,-243.0,-46.0,58.0,20.0,-19.0,4.0,-992.0,-184.0
3.0,-242.0,-50.0,58.0,20.0,-18.0,0.0,-996.0,-179.0
5.0,-244.0,-50.0,57.0,22.0,-19.0,-1.0,-996.0,-173.0
4.0,-242.0,-50.0,57.0,25.0,-17.0,2.0,-1000.0,-181.0
3.0,-247.0,-48.0,54.0,28.0,-17.0,0.0,-1000.0,-175.0
0.0,-242.0,-47.0,54.0,30.0,-16.0,-5.0,-999.0,-170.0
5.0,-246.0,-43.0,54.0,32.0,-14.0,-4.0,-1001.0,-169.0
5.0,-243.0,-42.0,54.0,34.0,-15.0,-7.0,-997.0,-166.0
1.0,-242.0,-44.0,55.0,35.0,-15.0,-8.0,-1002.0,-166.0
1.0,-242.0,-47.0,54.0,33.0,-14.0,-8.0,-998.0,-163.0
5.0,-244.0,-48.0,53.0,35.0,-12.0,-10.0,-992.0,-169.0
1.0,-241.0,-48.0,49.0,36.0,-11.0,-6.0,-993.0,-168.0
2.0,-245.0,-44.0,45.0,34.0,-12.0,-5.0,-992.0,-174.0
1.0,-242.0,-47.0,40.0,33.0,-10.0,-4.0,-993.0,-178.0
2.0,-242.0,-47.0,39.0,33.0,-12.0,-2.0,-996.0,-171.0
2.0,-245.0,-49.0,36.0,33.0,-11.0,-4.0,-991.0,-176.0
2.0,-245.0,-45.0,34.0,34.0,-12.0,-5.0,-997.0,-171.0
4.0,-245.0,-46.0,35.0,36.0,-12.0,-5.0,-997.0,-167.0
3.0,-244.0,-43.0,35.0,36.0,-12.0,-2.0,-1002.0,-173.0
2.0,-243.0,-43.0,36.0,38.0,-12.0,-4.0,-1006.0,-178.0
4.0,-243.0,-46.0,37.0,40.0,-12.0,-5.0,-997.0,-169.0
3.0,-243.0,-47.0,39.0,41.0,-13.0,-3.0,-996.0,-172.0
4.0,-242.0,-47.0,39.0,40.0,-15.0,-5.0,-998.0,-170.0
1.0,-244.0,-48.0,36.0,40.0,-15.0,-7.0,-1001.0,-172.0
2.0,-244.0,-48.0,35.0,38.0,-15.0,-4.0,-1000.0,-170.0
3.0,-247.0,-47.0,32.0,39.0,-16.0,-7.0,-1002.0,-169.0
1.0,-245.0,-46.0,33.0,39.0,-16.0,-6.0,-1006.0,-169.0
5.0,-247.0,-46.0,34.0,37.0,-15.0,-7.0,-1004.0,-179.0
2.0,-247.0,-47.0,33.0,37.0,-15.0,-8.0,-1008.0,-172.0
1.0,-246.0,-50.0,32.0,35.0,-16.0,-10.0,-1007.0,-182.0
1.0,-245.0,-49.0,35.0,32.0,-14.0,-5.0,-1012.0,-176.0
3.0,-248.0,-50.0,38.0,31.0,-13.0,-11.0,-1009.0,-181.0
2.0,-248.0,-49.0,45.0,30.0,-13.0,-10.0,-1008.0,-175.0
0.0,-245.0,-49.0,51.0,28.0,-13.0,-9.0,-1011.0,-176.0
1.0,-244.0,-45.0,57.0,27.0,-13.0,-10.0,-1003.0,-174.0
2.0,-245.0,-48.0,59.0,24.0,-15.0,-14.0,-1002.0,-178.0
5.0,-242.0,-47.0,57.0,24.0,-15.0,-10.0,-995.0,-175.0
0.0,-243.0,-47.0,57.0,20.0,-14.0,-10.0,-997.0,-178.0
1.0,-242.0,-48.0,55.0,17.0,-15.0,-18.0,-1000.0,-177.0
2.0,-245.0,-46.0,53.0,15.0,-15.0,-11.0,-998.0,-179.0
1.0,-245.0,-49.0,50.0,13.0,-15.0,-12.0,-1002.0,-179.0
1.0,-245.0,-51.0,49.0,10.0,-14.0,-13.0,-1000.0,-183.0
1.0,-243.0,-47.0,49.0,8.0,-15.0,-14.0,-999.0,-179.0
1.0,-244.0,-45.0,49.0,5.0,-14.0,-12.0,-1006.0,-174.0
5.0,-246.0,-46.0,50.0,3.0,-15.0,-18.0,-1007.0,-180.0
2.0,-246.0,-52.0,50.0,1.0,-13.0,-8.0,-1003.0,-180.0
1.0,-247.0,-50.0,54.0,-2.0,-14.0,-6.0,-1003.0,-177.0
1.0,-245.0,-46.0,55.0,-2.0,-13.0,-10.0,-1005.0,-176.0
2.0,-248.0,-50.0,59.0,-3.0,-11.0,-8.0,-1006.0,-177.0
4.0,-241.0,-49.0,61.0,-4.0,-12.0,-5.0,-1009.0,-175.0
3.0,-242.0,-47.0,63.0,-4.0,-11.0,0.0,-1003.0,-173.0
4.0,-245.0,-45.0,66.0,-4.0,-13.0,-6.0,-998.0,-173.0
0.0,-244.0,-47.0,67.0,-6.0,-13.0,-4.0,-999.0,-178.0
3.0,-245.0,-46.0,68.0,-5.0,-13.0,-4.0,-1001.0,-168.0
5.0,-243.0,-47.0,67.0,-6.0,-12.0,-2.0,-997.0,-176.0
1.0,-244.0,-48.0,67.0,-6.0,-12.0,-2.0,-997.0,-177.0
3.0,-245.0,-44.0,66.0,-6.0,-9.0,-7.0,-1000.0,-171.0
4.0,-242.0,-48.0,64.0,-7.0,-11.0,-2.0,-1001.0,-174.0
3.0,-241.0,-51.0,63.0,-8.0,-10.0,-4.0,-995.0,-174.0
2.0,-242.0,-46.0,61.0,-7.0,-12.0,-1.0,-997.0,-170.0
4.0,-246.0,-49.0,61.0,-7.0,-12.0,-2.0,-996.0,-172.0
3.0,-241.0,-47.0,61.0,-7.0,-12.0,-2.0,-996.0,-174.0
1.0,-244.0,-46.0,61.0,-7.0,-12.0,-1.0,-1002.0,-167.0
5.0,-244.0,-46.0,62.0,-7.0,-13.0,-2.0,-1001.0,-169.0
3.0,-243.0,-44.0,63.0,-7.0,-11.0,0.0,-1000.0,-174.0
3.0,-243.0,-47.0,65.0,-6.0,-11.0,1.0,-999.0,-170.0
4.0,-245.0,-46.0,65.0,-5.0,-12.0,0.0,-1004.0,-174.0
2.0,-244.0,-51.0,64.0,-2.0,-14.0,0.0,-1001.0,-175.0
2.0,-243.0,-47.0,62.0,-2.0,-13.0,0.0,-1001.0,-173.0
5.0,-245.0,-46.0,60.0,0.0,-14.0,-2.0,-998.0,-177.0
3.0,-243.0,-47.0,58.0,2.0,-12.0,-6.0,-998.0,-176.0
2.0,-241.0,-47.0,58.0,1.0,-12.0,-4.0,-998.0,-177.0
2.0,-245.0,-47.0,59.0,1.0,-12.0,1.0,-998.0,-179.0
5.0,-246.0,-50.0,57.0,3.0,-11.0,0.0,-1003.0,-176.0
5.0,-242.0,-48.0,56.0,3.0,-11.0,-4.0,-999.0,-174.0
4.0,-247.0,-45.0,57.0,5.0,-12.0,1.0,-1002.0,-178.0
3.0,-246.0,-43.0,56.0,4.0,-12.0,-2.0,-1001.0,-174.0
4.0,-245.0,-48.0,58.0,6.0,-11.0,1.0,-1005.0,-178.0
5.0,-247.0,-50.0,59.0,6.0,-13.0,-3.0,-1001.0,-183.0
6.0,-245.0,-49.0,59.0,7.0,-12.0,-5.0,-1001.0,-173.0
3.0,-244.0,-47.0,61.0,7.0,-12.0,4.0,-1006.0,-177.0
6.0,-245.0,-45.0,62.0,8.0,-12.0,-1.0,-1003.0,-180.0
6.0,-245.0,-49.0,61.0,8.0,-12.0,-4.0,-1007.0,-170.0
1.0,-245.0,-49.0,62.0,8.0,-13.0,-4.0,-1004.0,-181.0
1.0,-247.0,-45.0,63.0,9.0,-13.0,-4.0,-1005.0,-181.0
4.0,-245.0,-44.0,64.0,10.0,-12.0,-8.0,-1002.0,-173.0
3.0,-244.0,-47.0,63.0,10.0,-11.0,-8.0,-1000.0,-173.0
0.0,-242.0,-49.0,65.0,9.0,-10.0,-8.0,-1002.0,-181.0
3.0,-246.0,-47.0,66.0,9.0,-10.0,-6.0,-999.0,-168.0
1.0,-247.0,-47.0,66.0,9.0,-10.0,-2.0,-1004.0,-172.0
3.0,-245.0,-48.0,67.0,8.0,-11.0,-4.0,-1004.0,-167.0
4.0,-245.0,-44.0,68.0,10.0,-10.0,-6.0,-1005.0,-175.0
5.0,-245.0,-46.0,68.0,10.0,-12.0,0.0,-1005.0,-174.0
4.0,-246.0,-45.0,70.0,12.0,-9.0,1.0,-1002.0,-173.0
4.0,-242.0,-42.0,69.0,14.0,-8.0,-2.0,-1002.0,-173.0
7.0,-246.0,-49.0,68.0,16.0,-7.0,5.0,-1004.0,-179.0
5.0,-241.0,-47.0,69.0,17.0,-9.0,8.0,-996.0,-175.0
6.0,-246.0,-47.0,69.0,19.0,-7.0,11.0,-1001.0,-171.0
7.0,-244.0,-45.0,68.0,22.0,-7.0,13.0,-1002.0,-172.0
7.0,-245.0,-49.0,66.0,24.0,-9.0,7.0,-1002.0,-167.0
8.0,-244.0,-46.0,65.0,26.0,-9.0,7.0,-1004.0,-173.0
6.0,-244.0,-48.0,64.0,28.0,-9.0,5.0,-1000.0,-174.0
6.0,-244.0,-46.0,65.0,31.0,-12.0,7.0,-1003.0,-172.0
3.0,-244.0,-46.0,66.0,31.0,-11.0,3.0,-1004.0,-178.0
4.0,-245.0,-47.0,68.0,32.0,-13.0,8.0,-999.0,-174.0
3.0,-245.0,-46.0,69.0,34.0,-14.0,3.0,-1002.0,-171.0
5.0,-246.0,-48.0,68.0,35.0,-14.0,1.0,-1003.0,-175.0
0.0,-243.0,-43.0,69.0,37.0,-14.0,0.0,-999.0,-170.0
4.0,-243.0,-49.0,71.0,38.0,-14.0,1.0,-999.0,-170.0
2.0,-242.0,-46.0,72.0,37.0,-15.0,-2.0,-997.0,-176.0
4.0,-243.0,-47.0,70.0,37.0,-15.0,-4.0,-994.0,-176.0
2.0,-245.0,-45.0,69.0,37.0,-15.0,-5.0,-995.0,-174.0
1.0,-242.0,-46.0,67.0,37.0,-13.0,-7.0,-996.0,-173.0
4.0,-244.0,-47.0,64.0,36.0,-13.0,-8.0,-995.0,-169.0
2.0,-245.0,-43.0,61.0,35.0,-12.0,-8.0,-1003.0,-166.0
2.0,-245.0,-45.0,59.0,32.0,-14.0,-10.0,-1003.0,-168.0
1.0,-246.0,-48.0,60.0,30.0,-15.0,-6.0,-1011.0,-169.0
1.0,-248.0,-45.0,61.0,31.0,-14.0,-6.0,-1007.0,-177.0
2.0,-245.0,-48.0,65.0,31.0,-15.0,-6.0,-1002.0,-167.0
1.0,-245.0,-46.0,65.0,31.0,-15.0,-8.0,-1002.0,-167.0
2.0,-247.0,-43.0,66.0,31.0,-14.0,-3.0,-1003.0,-165.0
0.0,-244.0,-42.0,65.0,30.0,-14.0,-6.0,-998.0,-164.0
4.0,-242.0,-43.0,63.0,30.0,-14.0,-2.0,-1005.0,-170.0
1.0,-244.0,-45.0,65.0,29.0,-13.0,-4.0,-999.0,-177.0
5.0,-244.0,-48.0,69.0,27.0,-14.0,-3.0,-1000.0,-174.0
5.0,-243.0,-49.0,73.0,28.0,-14.0,2.0,-1001.0,-181.0
3.0,-246.0,-50.0,74.0,30.0,-15.0,0.0,-997.0,-172.0
3.0,-244.0,-46.0,73.0,30.0,-15.0,-2.0,-996.0,-176.0
4.0,-245.0,-48.0,72.0,29.0,-15.0,-5.0,-1003.0,-177.0
0.0,-245.0,-43.0,71.0,30.0,-16.0,1.0,-1001.0,-173.0
-1.0,-242.0,-45.0,71.0,30.0,-16.0,-8.0,-1005.0,-174.0
2.0,-244.0,-48.0,71.0,29.0,-17.0,-7.0,-1005.0,-173.0
3.0,-247.0,-48.0,70.0,29.0,-18.0,-4.0,-1010.0,-168.0
3.0,-247.0,-47.0,72.0,28.0,-17.0,-12.0,-1004.0,-169.0
0.0,-248.0,-45.0,75.0,29.0,-20.0,-11.0,-1007.0,-164.0
2.0,-244.0,-40.0,79.0,27.0,-20.0,-12.0,-1006.0,-165.0
2.0,-247.0,-42.0,82.0,27.0,-17.0,-8.0,-1003.0,-162.0
4.0,-245.0,-45.0,83.0,25.0,-20.0,-10.0,-1003.0,-167.0
2.0,-243.0,-46.0,80.0,24.0,-20.0,-5.0,-1000.0,-169.0
1.0,-243.0,-46.0,78.0,21.0,-17.0,-10.0,-1000.0,-167.0
3.0,-246.0,-45.0,75.0,22.0,-16.0,-5.0,-996.0,-165.0
0.0,-242.0,-46.0,71.0,19.0,-16.0,-6.0,-998.0,-167.0
1.0,-245.0,-46.0,71.0,20.0,-16.0,-4.0,-997.0,-167.0
4.0,-242.0,-49.0,70.0,19.0,-15.0,-4.0,-1002.0,-165.0
3.0,-241.0,-42.0,69.0,18.0,-14.0,-4.0,-1003.0,-169.0
1.0,-241.0,-44.0,71.0,18.0,-14.0,-9.0,-1003.0,-163.0
1.0,-242.0,-41.0,70.0,17.0,-15.0,-7.0,-1001.0,-159.0
1.0,-250.0,-41.0,71.0,18.0,-15.0,-5.0,-1008.0,-160.0
0.0,-246.0,-45.0,71.0,18.0,-13.0,-10.0,-1002.0,-165.0
1.0,-244.0,-47.0,70.0,17.0,-13.0,-5.0,-1005.0,-159.0
4.0,-245.0,-42.0,72.0,17.0,-14.0,-9.0,-1006.0,-158.0
5.0,-249.0,-45.0,73.0,17.0,-12.0,-2.0,-1012.0,-163.0
3.0,-245.0,-40.0,75.0,18.0,-12.0,-5.0,-1002.0,-161.0
5.0,-245.0,-41.0,76.0,17.0,-14.0,-4.0,-1001.0,-160.0
3.0,-244.0,-41.0,77.0,16.0,-14.0,-6.0,-1001.0,-163.0
4.0,-242.0,-42.0,77.0,15.0,-14.0,-2.0,-1001.0,-161.0
1.0,-245.0,-44.0,77.0,17.0,-16.0,-2.0,-1000.0,-162.0
2.0,-245.0,-42.0,78.0,17.0,-17.0,-3.0,-1000.0,-163.0
1.0,-241.0,-45.0,78.0,18.0,-17.0,2.0,-1003.0,-165.0
4.0,-245.0,-45.0,78.0,17.0,-17.0,-2.0,-1002.0,-158.0
3.0,-244.0,-44.0,77.0,19.0,-18.0,3.0,-998.0,-168.0
3.0,-241.0,-42.0,76.0,18.0,-18.0,2.0,-1001.0,-166.0
3.0,-247.0,-45.0,75.0,18.0,-17.0,1.0,-1000.0,-161.0
5.0,-243.0,-44.0,75.0,18.0,-19.0,0.0,-999.0,-162.0
0.0,-242.0,-44.0,73.0,19.0,-18.0,-1.0,-999.0,-167.0
3.0,-249.0,-42.0,72.0,21.0,-17.0,2.0,-1000.0,-160.0
3.0,-247.0,-43.0,71.0,19.0,-18.0,0.0,-1002.0,-163.0
7.0,-247.0,-45.0,71.0,17.0,-20.0,0.0,-1007.0,-159.0
5.0,-243.0,-38.0,72.0,20.0,-22.0,0.0,-1003.0,-165.0
3.0,-244.0,-47.0,73.0,19.0,-20.0,4.0,-1004.0,-166.0
4.0,-244.0,-45.0,73.0,20.0,-19.0,7.0,-1009.0,-165.0
5.0,-246.0,-46.0,73.0,21.0,-21.0,6.0,-1004.0,-166.0
6.0,-250.0,-43.0,73.0,23.0,-22.0,5.0,-1006.0,-169.0
6.0,-244.0,-47.0,74.0,23.0,-22.0,7.0,-1007.0,-162.0
4.0,-245.0,-44.0,75.0,24.0,-22.0,1.0,-999.0,-166.0
10.0,-249.0,-39.0,76.0,23.0,-23.0,3.0,-1003.0,-166.0
3.0,-246.0,-48.0,76.0,24.0,-23.0,7.0,-1001.0,-164.0
4.0,-243.0,-44.0,76.0,24.0,-24.0,1.0,-1000.0,-164.0
6.0,-244.0,-44.0,77.0,24.0,-25.0,2.0,-999.0,-164.0
5.0,-242.0,-47.0,75.0,23.0,-26.0,-4.0,-993.0,-166.0
2.0,-243.0,-40.0,74.0,23.0,-25.0,-1.0,-1001.0,-165.0
2.0,-245.0,-44.0,73.0,23.0,-25.0,-1.0,-1002.0,-165.0
2.0,-245.0,-44.0,70.0,22.0,-22.0,-7.0,-1004.0,-159.0
2.0,-244.0,-46.0,68.0,19.0,-21.0,-4.0,-1005.0,-163.0
3.0,-246.0,-45.0,66.0,18.0,-22.0,-1.0,-1005.0,-162.0
3.0,-243.0,-44.0,66.0,17.0,-20.0,-8.0,-1003.0,-163.0
3.0,-243.0,-48.0,65.0,15.0,-21.0,0.0,-999.0,-161.0
-8.0,-244.0,-47.0,66.0,15.0,-20.0,0.0,-1003.0,-159.0
11.0,-240.0,-35.0,68.0,14.0,-19.0,-5.0,-1001.0,-163.0
3.0,-244.0,-43.0,69.0,14.0,-17.0,-1.0,-1000.0,-161.0
3.0,-246.0,-44.0,70.0,13.0,-17.0,-1.0,-998.0,-155.0
3.0,-242.0,-41.0,68.0,11.0,-18.0,0.0,-998.0,-156.0
3.0,-242.0,-45.0,66.0,11.0,-19.0,3.0,-1002.0,-162.0
5.0,-245.0,-48.0,67.0,11.0,-17.0,3.0,-999.0,-155.0
5.0,-244.0,-44.0,64.0,11.0,-18.0,2.0,-1002.0,-165.0
5.0,-242.0,-38.0,65.0,10.0,-17.0,2.0,-1001.0,-156.0
6.0,-246.0,-40.0,65.0,12.0,-16.0,5.0,-1007.0,-165.0
6.0,-242.0,-46.0,63.0,12.0,-17.0,10.0,-1002.0,-164.0
5.0,-244.0,-39.0,63.0,13.0,-18.0,16.0,-1002.0,-159.0
5.0,-240.0,-45.0,63.0,15.0,-18.0,10.0,-1001.0,-163.0
3.0,-246.0,-47.0,63.0,17.0,-18.0,12.0,-1005.0,-155.0
6.0,-245.0,-43.0,62.0,19.0,-19.0,9.0,-1002.0,-154.0
5.0,-244.0,-43.0,64.0,20.0,-17.0,15.0,-1001.0,-160.0
11.0,-247.0,-40.0,66.0,20.0,-19.0,14.0,-1005.0,-162.0
4.0,-246.0,-45.0,65.0,20.0,-19.0,8.0,-1008.0,-160.0
5.0,-245.0,-45.0,66.0,22.0,-18.0,13.0,-1001.0,-156.0
4.0,-247.0,-44.0,67.0,23.0,-18.0,10.0,-1000.0,-157.0
7.0,-244.0,-44.0,68.0,24.0,-17.0,7.0,-1004.0,-160.0
5.0,-245.0,-41.0,68.0,25.0,-18.0,4.0,-1002.0,-153.0
6.0,-248.0,-42.0,68.0,26.0,-15.0,3.0,-1006.0,-156.0
2.0,-244.0,-44.0,68.0,26.0,-14.0,7.0,-1003.0,-158.0
4.0,-244.0,-45.0,68.0,26.0,-12.0,0.0,-1006.0,-156.0
5.0,-244.0,-42.0,70.0,27.0,-11.0,6.0,-1003.0,-158.0
4.0,-242.0,-45.0,69.0,27.0,-10.0,3.0,-1006.0,-153.0
2.0,-244.0,-45.0,68.0,27.0,-9.0,1.0,-1001.0,-155.0
1.0,-241.0,-46.0,68.0,27.0,-8.0,-2.0,-1003.0,-158.0
5.0,-247.0,-42.0,68.0,27.0,-6.0,3.0,-1001.0,-154.0
7.0,-243.0,-42.0,68.0,29.0,-7.0,4.0,-999.0,-161.0
6.0,-245.0,-44.0,67.0,29.0,-8.0,8.0,-1000.0,-159.0
3.0,-243.0,-42.0,66.0,29.0,-8.0,10.0,-999.0,-162.0
6.0,-242.0,-43.0,67.0,30.0,-9.0,2.0,-1001.0,-159.0
4.0,-241.0,-43.0,65.0,30.0,-12.0,5.0,-1000.0,-157.0
7.0,-246.0,-42.0,67.0,32.0,-11.0,12.0,-996.0,-153.0
8.0,-243.0,-42.0,65.0,35.0,-10.0,8.0,-1001.0,-161.0
5.0,-245.0,-42.0,65.0,36.0,-9.0,6.0,-998.0,-153.0
4.0,-244.0,-39.0,63.0,37.0,-11.0,4.0,-1000.0,-162.0
9.0,-246.0,-40.0,61.0,38.0,-10.0,8.0,-1001.0,-157.0
7.0,-245.0,-41.0,58.0,39.0,-11.0,7.0,-1003.0,-153.0
6.0,-245.0,-40.0,56.0,40.0,-9.0,8.0,-1001.0,-148.0
5.0,-247.0,-41.0,55.0,40.0,-9.0,0.0,-1001.0,-150.0
5.0,-243.0,-39.0,55.0,38.0,-10.0,-4.0,-1000.0,-158.0
5.0,-246.0,-42.0,55.0,39.0,-10.0,0.0,-1002.0,-155.0
5.0,-246.0,-39.0,56.0,39.0,-10.0,4.0,-1005.0,-151.0
4.0,-245.0,-47.0,59.0,39.0,-10.0,4.0,-1004.0,-163.0
6.0,-247.0,-46.0,61.0,39.0,-11.0,6.0,-1002.0,-158.0
5.0,-244.0,-42.0,63.0,37.0,-12.0,6.0,-1002.0,-162.0
5.0,-244.0,-47.0,63.0,37.0,-12.0,2.0,-991.0,-163.0
1.0,-244.0,-44.0,62.0,36.0,-12.0,2.0,-1000.0,-159.0
4.0,-249.0,-42.0,63.0,36.0,-11.0,2.0,-997.0,-160.0
4.0,-241.0,-45.0,63.0,34.0,-12.0,3.0,-992.0,-163.0
3.0,-238.0,-47.0,62.0,33.0,-13.0,0.0,-990.0,-161.0
2.0,-241.0,-38.0,58.0,30.0,-12.0,-1.0,-997.0,-158.0
3.0,-244.0,-43.0,54.0,28.0,-13.0,-1.0,-997.0,-161.0
4.0,-246.0,-43.0,51.0,27.0,-13.0,0.0,-999.0,-152.0
1.0,-244.0,-40.0,47.0,22.0,-11.0,-1.0,-998.0,-158.0
2.0,-241.0,-44.0,45.0,22.0,-12.0,3.0,-1004.0,-151.0
1.0,-244.0,-41.0,42.0,21.0,-12.0,-2.0,-1007.0,-161.0
4.0,-245.0,-44.0,42.0,21.0,-12.0,-3.0,-1004.0,-160.0
6.0,-246.0,-43.0,41.0,21.0,-13.0,-2.0,-1007.0,-157.0
5.0,-246.0,-41.0,40.0,21.0,-12.0,-2.0,-1009.0,-161.0
7.0,-244.0,-42.0,40.0,21.0,-12.0,1.0,-1006.0,-149.0
2.0,-246.0,-44.0,39.0,21.0,-12.0,7.0,-1006.0,-161.0
3.0,-246.0,-41.0,42.0,21.0,-14.0,5.0,-1005.0,-155.0
4.0,-247.0,-42.0,42.0,22.0,-13.0,8.0,-1006.0,-160.0
3.0,-243.0,-45.0,46.0,21.0,-12.0,4.0,-1004.0,-165.0
9.0,-245.0,-45.0,53.0,21.0,-12.0,11.0,-1003.0,-162.0
8.0,-249.0,-47.0,54.0,23.0,-12.0,16.0,-1002.0,-169.0
6.0,-245.0,-47.0,55.0,25.0,-12.0,7.0,-1001.0,-164.0
7.0,-244.0,-45.0,53.0,25.0,-13.0,7.0,-1002.0,-167.0
6.0,-245.0,-46.0,52.0,25.0,-13.0,8.0,-1001.0,-161.0
5.0,-244.0,-43.0,50.0,25.0,-14.0,5.0,-1002.0,-157.0
5.0,-243.0,-42.0,49.0,25.0,-14.0,7.0,-1004.0,-155.0
4.0,-248.0,-46.0,48.0,26.0,-15.0,3.0,-1005.0,-155.0
6.0,-246.0,-42.0,50.0,26.0,-14.0,3.0,-999.0,-152.0
3.0,-247.0,-46.0,50.0,25.0,-14.0,1.0,-1006.0,-148.0
1.0,-245.0,-43.0,51.0,26.0,-13.0,-1.0,-1001.0,-146.0
7.0,-247.0,-42.0,52.0,23.0,-13.0,0.0,-1007.0,-152.0
2.0,-246.0,-41.0,53.0,21.0,-14.0,-2.0,-1001.0,-154.0
4.0,-244.0,-43.0,54.0,18.0,-13.0,-3.0,-1000.0,-152.0
3.0,-242.0,-43.0,53.0,18.0,-12.0,5.0,-1001.0,-159.0
5.0,-243.0,-45.0,51.0,17.0,-10.0,7.0,-996.0,-156.0
4.0,-246.0,-39.0,48.0,15.0,-9.0,5.0,-998.0,-163.0
5.0,-246.0,-41.0,45.0,14.0,-8.0,1.0,-998.0,-156.0
3.0,-246.0,-45.0,45.0,13.0,-9.0,0.0,-1005.0,-157.0
4.0,-246.0,-45.0,44.0,12.0,-8.0,7.0,-1002.0,-157.0
7.0,-247.0,-42.0,46.0,14.0,-6.0,3.0,-1001.0,-157.0
4.0,-246.0,-42.0,48.0,14.0,-7.0,2.0,-1001.0,-158.0
6.0,-249.0,-42.0,49.0,16.0,-5.0,4.0,-1007.0,-162.0
7.0,-245.0,-41.0,51.0,16.0,-5.0,2.0,-1000.0,-150.0
2.0,-244.0,-38.0,50.0,17.0,-5.0,2.0,-1013.0,-153.0
5.0,-245.0,-43.0,49.0,18.0,-5.0,2.0,-1006.0,-152.0
6.0,-245.0,-40.0,50.0,18.0,-3.0,7.0,-1006.0,-150.0
3.0,-247.0,-40.0,53.0,19.0,-2.0,8.0,-1012.0,-157.0
8.0,-246.0,-38.0,53.0,19.0,-4.0,9.0,-1004.0,-152.0
3.0,-246.0,-43.0,55.0,20.0,-7.0,6.0,-1004.0,-156.0
4.0,-242.0,-44.0,56.0,20.0,-6.0,7.0,-999.0,-159.0
7.0,-246.0,-43.0,55.0,20.0,-6.0,4.0,-1002.0,-157.0
7.0,-247.0,-42.0,55.0,21.0,-8.0,4.0,-1005.0,-159.0
8.0,-244.0,-41.0,54.0,21.0,-11.0,8.0,-1002.0,-159.0
3.0,-247.0,-44.0,54.0,21.0,-11.0,3.0,-1002.0,-151.0
7.0,-246.0,-40.0,53.0,22.0,-12.0,10.0,-1001.0,-152.0
7.0,-245.0,-43.0,53.0,21.0,-12.0,5.0,-1003.0,-162.0
6.0,-245.0,-43.0,51.0,23.0,-12.0,6.0,-1001.0,-151.0
5.0,-243.0,-41.0,50.0,24.0,-9.0,0.0,-1005.0,-153.0
4.0,-242.0,-42.0,51.0,25.0,-11.0,2.0,-998.0,-152.0
2.0,-241.0,-39.0,48.0,23.0,-10.0,0.0,-1002.0,-149.0
4.0,-247.0,-43.0,46.0,21.0,-11.0,0.0,-1004.0,-153.0
6.0,-246.0,-39.0,44.0,20.0,-10.0,0.0,-1006.0,-154.0
3.0,-244.0,-42.0,44.0,18.0,-8.0,3.0,-1006.0,-158.0
3.0,-245.0,-46.0,45.0,19.0,-8.0,2.0,-1005.0,-154.0
4.0,-242.0,-42.0,45.0,20.0,-7.0,2.0,-1007.0,-160.0
5.0,-243.0,-42.0,47.0,20.0,-6.0,4.0,-1009.0,-152.0
8.0,-247.0,-41.0,47.0,20.0,-8.0,2.0,-1005.0,-149.0
5.0,-245.0,-42.0,49.0,19.0,-7.0,10.0,-1004.0,-149.0
6.0,-243.0,-42.0,50.0,18.0,-7.0,8.0,-1002.0,-155.0
7.0,-242.0,-40.0,52.0,19.0,-7.0,0.0,-998.0,-147.0
3.0,-241.0,-42.0,53.0,19.0,-9.0,6.0,-1001.0,-148.0
9.0,-246.0,-42.0,53.0,20.0,-10.0,7.0,-1000.0,-155.0
2.0,-241.0,-41.0,53.0,20.0,-11.0,8.0,-999.0,-149.0
5.0,-246.0,-39.0,52.0,21.0,-11.0,6.0,-997.0,-153.0
4.0,-244.0,-42.0,50.0,21.0,-12.0,7.0,-999.0,-151.0
6.0,-247.0,-44.0,48.0,21.0,-12.0,4.0,-996.0,-149.0
5.0,-244.0,-39.0,45.0,21.0,-11.0,1.0,-999.0,-154.0
4.0,-242.0,-41.0,43.0,20.0,-11.0,-1.0,-997.0,-153.0
4.0,-244.0,-45.0,42.0,19.0,-11.0,0.0,-999.0,-150.0
3.0,-241.0,-41.0,41.0,17.0,-11.0,-2.0,-1000.0,-150.0
9.0,-244.0,-41.0,41.0,16.0,-11.0,2.0,-1005.0,-146.0
5.0,-247.0,-41.0,41.0,17.0,-9.0,3.0,-1003.0,-156.0
6.0,-242.0,-46.0,41.0,17.0,-8.0,4.0,-1003.0,-155.0
6.0,-247.0,-41.0,43.0,17.0,-8.0,1.0,-1004.0,-151.0
3.0,-248.0,-42.0,46.0,16.0,-7.0,0.0,-1008.0,-157.0
2.0,-245.0,-42.0,47.0,16.0,-8.0,2.0,-1002.0,-156.0
4.0,-248.0,-42.0,49.0,14.0,-5.0,-1.0,-1003.0,-159.0
5.0,-245.0,-43.0,51.0,13.0,-7.0,0.0,-1005.0,-150.0
5.0,-244.0,-42.0,52.0,12.0,-5.0,-1.0,-997.0,-157.0
6.0,-249.0,-43.0,52.0,13.0,-4.0,-1.0,-1001.0,-156.0
7.0,-245.0,-39.0,52.0,13.0,-5.0,0.0,-1004.0,-159.0
2.0,-243.0,-44.0,52.0,13.0,-7.0,0.0,-1004.0,-162.0
4.0,-244.0,-43.0,54.0,13.0,-8.0,2.0,-1001.0,-160.0
5.0,-248.0,-43.0,52.0,12.0,-9.0,-1.0,-1001.0,-159.0
2.0,-244.0,-43.0,53.0,13.0,-10.0,-2.0,-1003.0,-165.0
4.0,-245.0,-41.0,51.0,13.0,-9.0,1.0,-1000.0,-166.0
5.0,-246.0,-44.0,50.0,13.0,-11.0,2.0,-1006.0,-164.0
5.0,-248.0,-43.0,49.0,12.0,-10.0,-1.0,-1005.0,-162.0
2.0,-245.0,-45.0,48.0,12.0,-10.0,3.0,-1007.0,-162.0
3.0,-248.0,-49.0,48.0,11.0,-11.0,-1.0,-1006.0,-161.0
2.0,-242.0,-48.0,50.0,11.0,-11.0,-2.0,-1007.0,-155.0
5.0,-243.0,-46.0,50.0,11.0,-11.0,0.0,-1009.0,-159.0
3.0,-247.0,-41.0,53.0,10.0,-11.0,-2.0,-1003.0,-152.0
4.0,-243.0,-45.0,54.0,8.0,-10.0,-5.0,-1001.0,-160.0
6.0,-245.0,-44.0,57.0,7.0,-10.0,-6.0,-1005.0,-156.0
2.0,-244.0,-45.0,56.0,5.0,-9.0,-4.0,-999.0,-163.0
2.0,-245.0,-46.0,55.0,5.0,-10.0,0.0,-1002.0,-159.0
5.0,-245.0,-43.0,54.0,3.0,-9.0,0.0,-1000.0,-159.0
6.0,-244.0,-44.0,54.0,2.0,-8.0,1.0,-1000.0,-160.0
3.0,-246.0,-43.0,53.0,3.0,-7.0,3.0,-1005.0,-163.0
4.0,-244.0,-43.0,52.0,3.0,-7.0,0.0,-996.0,-165.0
4.0,-243.0,-46.0,52.0,1.0,-7.0,2.0,-1000.0,-159.0
4.0,-244.0,-45.0,50.0,1.0,-8.0,0.0,-1007.0,-165.0
6.0,-246.0,-43.0,51.0,0.0,-7.0,2.0,-1003.0,-166.0
3.0,-245.0,-40.0,52.0,2.0,-6.0,2.0,-1002.0,-156.0
2.0,-244.0,-43.0,51.0,2.0,-9.0,2.0,-1001.0,-162.0
6.0,-248.0,-46.0,52.0,-1.0,-8.0,-1.0,-1004.0,-157.0
3.0,-243.0,-42.0,53.0,0.0,-8.0,2.0,-1005.0,-154.0
3.0,-246.0,-43.0,53.0,-1.0,-9.0,3.0,-1006.0,-159.0
4.0,-243.0,-39.0,54.0,-1.0,-10.0,7.0,-1001.0,-158.0
6.0,-245.0,-44.0,56.0,-2.0,-9.0,3.0,-1004.0,-163.0
2.0,-244.0,-44.0,57.0,-3.0,-9.0,-1.0,-1005.0,-160.0
5.0,-244.0,-41.0,57.0,-1.0,-10.0,0.0,-1002.0,-162.0
2.0,-244.0,-44.0,57.0,-2.0,-10.0,3.0,-1002.0,-167.0
3.0,-244.0,-41.0,57.0,-1.0,-11.0,-1.0,-1001.0,-161.0
6.0,-245.0,-43.0,57.0,-2.0,-12.0,3.0,-998.0,-164.0
4.0,-242.0,-46.0,57.0,-1.0,-11.0,-2.0,-1001.0,-165.0
6.0,-244.0,-45.0,59.0,0.0,-10.0,-3.0,-999.0,-168.0
3.0,-244.0,-45.0,61.0,0.0,-9.0,2.0,-999.0,-166.0
4.0,-243.0,-48.0,62.0,0.0,-7.0,5.0,-999.0,-160.0
5.0,-240.0,-47.0,61.0,0.0,-8.0,10.0,-996.0,-158.0
5.0,-244.0,-45.0,59.0,0.0,-8.0,5.0,-999.0,-165.0
5.0,-242.0,-43.0,54.0,-1.0,-8.0,8.0,-1002.0,-162.0
6.0,-243.0,-47.0,52.0,0.0,-5.0,8.0,-1001.0,-158.0
4.0,-246.0,-44.0,49.0,0.0,-6.0,6.0,-1011.0,-162.0
5.0,-247.0,-39.0,50.0,0.0,-5.0,9.0,-1008.0,-158.0
4.0,-245.0,-43.0,53.0,2.0,-6.0,7.0,-1009.0,-162.0
4.0,-247.0,-45.0,53.0,1.0,-6.0,2.0,-1008.0,-166.0
2.0,-245.0,-44.0,55.0,3.0,-7.0,3.0,-1012.0,-161.0
4.0,-246.0,-44.0,57.0,4.0,-10.0,0.0,-1003.0,-160.0
4.0,-244.0,-43.0,59.0,3.0,-10.0,4.0,-1002.0,-154.0
4.0,-244.0,-43.0,59.0,6.0,-11.0,0.0,-1005.0,-155.0
3.0,-244.0,-38.0,59.0,7.0,-11.0,0.0,-1003.0,-147.0
4.0,-242.0,-45.0,58.0,8.0,-12.0,2.0,-999.0,-153.0
5.0,-247.0,-46.0,58.0,6.0,-11.0,2.0,-998.0,-160.0
5.0,-245.0,-43.0,60.0,5.0,-12.0,2.0,-995.0,-161.0
5.0,-244.0,-45.0,61.0,7.0,-12.0,1.0,-994.0,-167.0
4.0,-242.0,-43.0,61.0,10.0,-12.0,-2.0,-996.0,-166.0
5.0,-245.0,-44.0,58.0,11.0,-10.0,0.0,-996.0,-162.0
3.0,-244.0,-45.0,56.0,10.0,-10.0,-2.0,-996.0,-154.0
5.0,-245.0,-44.0,54.0,8.0,-8.0,2.0,-1003.0,-160.0
2.0,-243.0,-40.0,54.0,6.0,-8.0,-6.0,-1000.0,-153.0
1.0,-245.0,-43.0,54.0,6.0,-8.0,-9.0,-1008.0,-152.0
2.0,-247.0,-41.0,54.0,3.0,-8.0,-2.0,-1010.0,-152.0
2.0,-244.0,-39.0,54.0,4.0,-8.0,-6.0,-1005.0,-155.0
7.0,-247.0,-44.0,54.0,2.0,-7.0,-2.0,-1003.0,-146.0
5.0,-246.0,-39.0,54.0,-1.0,-5.0,-1.0,-1001.0,-154.0
5.0,-248.0,-38.0,54.0,-2.0,-5.0,0.0,-1007.0,-152.0
4.0,-243.0,-41.0,54.0,-4.0,-4.0,-4.0,-1004.0,-159.0
2.0,-245.0,-43.0,55.0,-3.0,-4.0,-1.0,-1000.0,-155.0
3.0,-239.0,-42.0,56.0,-5.0,-3.0,1.0,-1000.0,-156.0
3.0,-243.0,-40.0,54.0,-6.0,-4.0,6.0,-995.0,-158.0
8.0,-244.0,-45.0,52.0,-6.0,-7.0,2.0,-997.0,-163.0
2.0,-244.0,-44.0,49.0,-6.0,-6.0,5.0,-999.0,-158.0
4.0,-243.0,-44.0,49.0,-6.0,-6.0,-1.0,-1002.0,-160.0
0.0,-241.0,-40.0,50.0,-6.0,-5.0,2.0,-1004.0,-159.0
7.0,-242.0,-44.0,51.0,-4.0,-6.0,2.0,-1000.0,-158.0
6.0,-242.0,-43.0,52.0,-3.0,-8.0,4.0,-1006.0,-155.0
4.0,-246.0,-45.0,53.0,-4.0,-7.0,3.0,-1001.0,-159.0
7.0,-244.0,-43.0,51.0,-2.0,-8.0,1.0,-1012.0,-159.0
3.0,-245.0,-43.0,49.0,-3.0,-7.0,3.0,-1002.0,-153.0
3.0,-246.0,-41.0,49.0,-3.0,-9.0,-1.0,-1005.0,-154.0
4.0,-242.0,-44.0,49.0,-3.0,-9.0,-2.0,-1008.0,-156.0
2.0,-243.0,-41.0,49.0,-3.0,-9.0,4.0,-1003.0,-163.0
5.0,-248.0,-43.0,50.0,-4.0,-10.0,-3.0,-1004.0,-158.0
3.0,-243.0,-41.0,52.0,-2.0,-7.0,-1.0,-998.0,-157.0
3.0,-243.0,-46.0,51.0,-2.0,-8.0,1.0,-1005.0,-160.0
4.0,-242.0,-45.0,53.0,-3.0,-6.0,2.0,-1006.0,-153.0
3.0,-246.0,-43.0,53.0,-4.0,-8.0,3.0,-1006.0,-151.0
6.0,-242.0,-46.0,53.0,-6.0,-8.0,-1.0,-1004.0,-161.0
4.0,-245.0,-40.0,53.0,-5.0,-8.0,2.0,-999.0,-149.0
4.0,-245.0,-45.0,53.0,-4.0,-7.0,1.0,-1000.0,-162.0
4.0,-247.0,-42.0,52.0,-4.0,-7.0,2.0,-1005.0,-158.0
4.0,-247.0,-43.0,51.0,-4.0,-8.0,3.0,-1001.0,-161.0
3.0,-245.0,-44.0,50.0,-4.0,-8.0,-2.0,-1000.0,-163.0
6.0,-246.0,-40.0,51.0,-1.0,-8.0,-1.0,-1005.0,-163.0
6.0,-248.0,-41.0,49.0,-2.0,-9.0,0.0,-1006.0,-164.0
6.0,-245.0,-44.0,49.0,-2.0,-9.0,3.0,-1001.0,-164.0
6.0,-246.0,-46.0,48.0,-1.0,-9.0,-3.0,-1005.0,-158.0
5.0,-244.0,-43.0,48.0,0.0,-9.0,3.0,-1005.0,-161.0
3.0,-249.0,-43.0,48.0,-1.0,-11.0,1.0,-1005.0,-159.0
5.0,-246.0,-42.0,49.0,1.0,-9.0,0.0,-1004.0,-156.0
2.0,-242.0,-38.0,52.0,1.0,-10.0,-2.0,-1010.0,-155.0
4.0,-245.0,-44.0,49.0,1.0,-10.0,0.0,-1006.0,-152.0
5.0,-247.0,-40.0,49.0,1.0,-9.0,-1.0,-1003.0,-156.0
5.0,-231.0,-40.0,50.0,0.0,-8.0,3.0,-1004.0,-162.0
5.0,-244.0,-41.0,51.0,-1.0,-9.0,-2.0,-1002.0,-152.0
1.0,-243.0,-41.0,51.0,0.0,-10.0,2.0,-1000.0,-155.0
2.0,-242.0,-42.0,50.0,1.0,-11.0,2.0,-997.0,-152.0
2.0,-241.0,-40.0,49.0,-1.0,-10.0,-2.0,-997.0,-149.0
1.0,-241.0,-41.0,48.0,0.0,-10.0,5.0,-996.0,-154.0
4.0,-243.0,-40.0,47.0,1.0,-8.0,-3.0,-1000.0,-156.0
6.0,-248.0,-42.0,46.0,1.0,-10.0,1.0,-1004.0,-153.0
4.0,-244.0,-43.0,46.0,1.0,-11.0,4.0,-1003.0,-160.0
1.0,-243.0,-47.0,48.0,1.0,-10.0,-3.0,-1004.0,-165.0
2.0,-242.0,-39.0,46.0,1.0,-10.0,3.0,-1004.0,-159.0
5.0,-247.0,-42.0,44.0,1.0,-8.0,-2.0,-1000.0,-153.0
3.0,-241.0,-43.0,45.0,0.0,-8.0,1.0,-999.0,-162.0
3.0,-241.0,-44.0,45.0,2.0,-8.0,5.0,-1002.0,-157.0
6.0,-244.0,-43.0,44.0,2.0,-8.0,0.0,-1002.0,-158.0
1.0,-248.0,-40.0,45.0,2.0,-8.0,-1.0,-1004.0,-162.0
5.0,-243.0,-42.0,45.0,2.0,-7.0,3.0,-1010.0,-160.0
3.0,-248.0,-44.0,45.0,2.0,-8.0,4.0,-1007.0,-158.0
4.0,-248.0,-45.0,46.0,2.0,-8.0,4.0,-1007.0,-161.0
2.0,-248.0,-42.0,47.0,1.0,-8.0,5.0,-1010.0,-159.0
3.0,-244.0,-44.0,51.0,3.0,-8.0,-1.0,-1004.0,-157.0
2.0,-244.0,-47.0,53.0,3.0,-10.0,0.0,-1012.0,-161.0
4.0,-245.0,-42.0,55.0,2.0,-10.0,1.0,-1007.0,-156.0
4.0,-244.0,-41.0,55.0,3.0,-10.0,1.0,-999.0,-161.0
7.0,-245.0,-43.0,55.0,5.0,-10.0,1.0,-1001.0,-162.0
6.0,-245.0,-42.0,55.0,5.0,-9.0,0.0,-1003.0,-155.0
5.0,-243.0,-44.0,55.0,4.0,-13.0,2.0,-1001.0,-162.0
5.0,-247.0,-40.0,55.0,5.0,-12.0,-3.0,-1002.0,-157.0
3.0,-247.0,-41.0,51.0,5.0,-13.0,0.0,-1002.0,-157.0
6.0,-245.0,-45.0,49.0,6.0,-14.0,0.0,-1007.0,-152.0
3.0,-246.0,-43.0,49.0,7.0,-14.0,-3.0,-1004.0,-159.0
3.0,-244.0,-47.0,48.0,8.0,-14.0,-3.0,-1007.0,-153.0
2.0,-245.0,-46.0,49.0,7.0,-15.0,-5.0,-1003.0,-156.0
3.0,-248.0,-44.0,49.0,8.0,-13.0,-1.0,-1003.0,-149.0
6.0,-245.0,-39.0,49.0,6.0,-11.0,-1.0,-1001.0,-156.0
3.0,-247.0,-47.0,47.0,7.0,-11.0,1.0,-1005.0,-157.0
6.0,-245.0,-47.0,50.0,6.0,-10.0,1.0,-1007.0,-162.0
1.0,-241.0,-44.0,51.0,7.0,-10.0,0.0,-1002.0,-148.0
2.0,-245.0,-45.0,54.0,8.0,-10.0,-1.0,-1003.0,-158.0
4.0,-248.0,-45.0,54.0,9.0,-9.0,-2.0,-1005.0,-162.0
5.0,-244.0,-42.0,55.0,9.0,-8.0,0.0,-1004.0,-152.0
4.0,-242.0,-43.0,55.0,9.0,-8.0,3.0,-999.0,-160.0
5.0,-243.0,-45.0,55.0,10.0,-7.0,-1.0,-1003.0,-163.0
3.0,-244.0,-40.0,55.0,10.0,-7.0,2.0,-1000.0,-157.0
6.0,-245.0,-45.0,52.0,11.0,-7.0,-1.0,-994.0,-162.0
2.0,-240.0,-43.0,50.0,11.0,-7.0,7.0,-1002.0,-163.0
7.0,-246.0,-43.0,50.0,12.0,-8.0,-2.0,-1002.0,-163.0
3.0,-243.0,-43.0,48.0,13.0,-7.0,5.0,-1003.0,-162.0
5.0,-245.0,-44.0,48.0,13.0,-6.0,3.0,-1006.0,-157.0
6.0,-244.0,-47.0,47.0,11.0,-4.0,5.0,-1001.0,-157.0
4.0,-246.0,-45.0,46.0,11.0,-6.0,0.0,-1005.0,-158.0
2.0,-244.0,-48.0,44.0,13.0,-6.0,3.0,-1007.0,-166.0
3.0,-243.0,-47.0,45.0,12.0,-6.0,0.0,-1010.0,-163.0
4.0,-244.0,-41.0,44.0,11.0,-7.0,6.0,-1011.0,-159.0
2.0,-245.0,-46.0,45.0,12.0,-8.0,-3.0,-1002.0,-163.0
0.0,-241.0,-44.0,46.0,13.0,-8.0,-2.0,-1006.0,-165.0
2.0,-242.0,-44.0,50.0,13.0,-7.0,0.0,-1002.0,-162.0
5.0,-243.0,-43.0,53.0,14.0,-7.0,1.0,-1000.0,-164.0
1.0,-244.0,-45.0,53.0,14.0,-6.0,5.0,-997.0,-159.0
3.0,-244.0,-43.0,53.0,12.0,-5.0,-1.0,-998.0,-164.0
5.0,-244.0,-44.0,49.0,11.0,-4.0,0.0,-996.0,-167.0
3.0,-244.0,-46.0,47.0,10.0,-3.0,0.0,-1000.0,-170.0
2.0,-246.0,-47.0,44.0,8.0,-2.0,-3.0,-1003.0,-167.0
2.0,-243.0,-48.0,42.0,8.0,-1.0,1.0,-1005.0,-173.0
3.0,-247.0,-45.0,41.0,7.0,-3.0,0.0,-1004.0,-168.0
4.0,-244.0,-48.0,41.0,4.0,-3.0,0.0,-1005.0,-174.0
3.0,-247.0,-46.0,43.0,5.0,-3.0,-1.0,-1010.0,-178.0
2.0,-244.0,-47.0,43.0,3.0,-5.0,-1.0,-1003.0,-168.0
1.0,-246.0,-46.0,42.0,1.0,-6.0,-1.0,-1007.0,-167.0
2.0,-243.0,-45.0,40.0,1.0,-7.0,-3.0,-1009.0,-167.0
3.0,-249.0,-40.0,40.0,0.0,-7.0,-6.0,-1008.0,-164.0
1.0,-246.0,-44.0,40.0,-2.0,-7.0,-5.0,-1007.0,-164.0
3.0,-245.0,-46.0,43.0,-5.0,-7.0,-6.0,-1007.0,-166.0
4.0,-247.0,-46.0,47.0,-6.0,-7.0,-2.0,-1000.0,-171.0
1.0,-245.0,-49.0,51.0,-6.0,-4.0,-3.0,-1002.0,-170.0
1.0,-241.0,-42.0,50.0,-8.0,-3.0,-3.0,-994.0,-174.0
2.0,-244.0,-51.0,46.0,-8.0,-1.0,-5.0,-997.0,-180.0
1.0,-241.0,-47.0,41.0,-8.0,0.0,-4.0,-998.0,-170.0
1.0,-243.0,-46.0,38.0,-10.0,1.0,-9.0,-1000.0,-168.0
1.0,-246.0,-46.0,37.0,-11.0,1.0,-3.0,-1003.0,-176.0
3.0,-245.0,-49.0,39.0,-13.0,2.0,-5.0,-1005.0,-169.0
1.0,-247.0,-48.0,40.0,-12.0,1.0,-3.0,-1002.0,-170.0
2.0,-245.0,-44.0,42.0,-12.0,3.0,-1.0,-1006.0,-171.0
2.0,-245.0,-41.0,44.0,-11.0,2.0,-4.0,-1002.0,-166.0
6.0,-246.0,-47.0,45.0,-12.0,2.0,-3.0,-1002.0,-166.0
5.0,-245.0,-43.0,47.0,-13.0,2.0,-2.0,-1004.0,-165.0
6.0,-239.0,-42.0,47.0,-15.0,2.0,0.0,-1004.0,-164.0
2.0,-247.0,-45.0,50.0,-15.0,4.0,-3.0,-1004.0,-165.0
6.0,-245.0,-46.0,50.0,-16.0,3.0,-5.0,-1001.0,-164.0
1.0,-246.0,-46.0,48.0,-17.0,3.0,-4.0,-1005.0,-165.0
1.0,-244.0,-49.0,49.0,-16.0,2.0,-2.0,-1005.0,-164.0
3.0,-243.0,-46.0,50.0,-17.0,3.0,-2.0,-1000.0,-165.0
5.0,-246.0,-45.0,51.0,-16.0,3.0,0.0,-1002.0,-169.0
3.0,-247.0,-47.0,49.0,-15.0,3.0,-3.0,-1002.0,-166.0
2.0,-243.0,-47.0,48.0,-13.0,1.0,-1.0,-1004.0,-167.0
5.0,-246.0,-47.0,47.0,-13.0,0.0,-2.0,-1004.0,-165.0
2.0,-246.0,-47.0,47.0,-13.0,-2.0,1.0,-1005.0,-166.0
5.0,-250.0,-44.0,49.0,-13.0,-2.0,-1.0,-1005.0,-166.0
5.0,-245.0,-46.0,48.0,-12.0,-2.0,-8.0,-1011.0,-168.0
4.0,-249.0,-45.0,49.0,-11.0,-3.0,-2.0,-1008.0,-167.0
2.0,-245.0,-44.0,53.0,-10.0,-4.0,-2.0,-1013.0,-162.0
4.0,-245.0,-44.0,57.0,-8.0,-4.0,-2.0,-1012.0,-169.0
2.0,-244.0,-49.0,59.0,-8.0,-6.0,-1.0,-1008.0,-169.0
5.0,-247.0,-45.0,61.0,-6.0,-6.0,-1.0,-1008.0,-169.0
4.0,-245.0,-47.0,61.0,-4.0,-10.0,-1.0,-1001.0,-168.0
3.0,-243.0,-43.0,61.0,-3.0,-10.0,0.0,-1005.0,-166.0
3.0,-246.0,-41.0,58.0,1.0,-11.0,-1.0,-1008.0,-167.0
3.0,-245.0,-46.0,57.0,1.0,-12.0,-3.0,-1000.0,-166.0
2.0,-243.0,-46.0,56.0,2.0,-15.0,3.0,-1004.0,-161.0
4.0,-246.0,-43.0,55.0,3.0,-17.0,-3.0,-1002.0,-161.0
1.0,-243.0,-46.0,57.0,4.0,-19.0,-3.0,-1002.0,-164.0
1.0,-245.0,-40.0,57.0,5.0,-21.0,0.0,-1001.0,-161.0
5.0,-245.0,-46.0,59.0,4.0,-22.0,-2.0,-1002.0,-161.0
5.0,-245.0,-46.0,58.0,4.0,-24.0,-3.0,-1004.0,-168.0
5.0,-242.0,-45.0,60.0,6.0,-26.0,1.0,-1013.0,-168.0
6.0,-245.0,-49.0,59.0,9.0,-27.0,8.0,-999.0,-169.0
2.0,-247.0,-45.0,58.0,10.0,-27.0,6.0,-1002.0,-166.0
6.0,-243.0,-46.0,54.0,13.0,-29.0,10.0,-999.0,-172.0
5.0,-246.0,-48.0,53.0,15.0,-31.0,10.0,-996.0,-166.0
7.0,-244.0,-47.0,50.0,16.0,-31.0,9.0,-996.0,-173.0
4.0,-244.0,-48.0,47.0,17.0,-31.0,13.0,-998.0,-173.0
9.0,-243.0,-46.0,45.0,19.0,-33.0,10.0,-994.0,-170.0
5.0,-241.0,-48.0,43.0,20.0,-35.0,10.0,-994.0,-170.0
7.0,-243.0,-47.0,37.0,22.0,-37.0,10.0,-993.0,-177.0
8.0,-241.0,-47.0,30.0,23.0,-39.0,21.0,-993.0,-171.0
8.0,-241.0,-48.0,23.0,23.0,-41.0,18.0,-995.0,-177.0
7.0,-239.0,-49.0,17.0,25.0,-42.0,20.0,-997.0,-175.0
7.0,-243.0,-46.0,12.0,27.0,-44.0,19.0,-1000.0,-170.0
5.0,-244.0,-45.0,6.0,29.0,-43.0,18.0,-997.0,-176.0
6.0,-245.0,-42.0,2.0,30.0,-46.0,15.0,-1005.0,-173.0
9.0,-249.0,-45.0,1.0,30.0,-48.0,16.0,-1011.0,-169.0
8.0,-246.0,-46.0,0.0,30.0,-52.0,10.0,-1011.0,-166.0
8.0,-248.0,-44.0,1.0,31.0,-53.0,10.0,-1016.0,-165.0
5.0,-249.0,-47.0,2.0,33.0,-56.0,9.0,-1019.0,-168.0
5.0,-246.0,-45.0,5.0,36.0,-58.0,9.0,-1016.0,-167.0
3.0,-246.0,-46.0,10.0,36.0,-58.0,5.0,-1014.0,-169.0
3.0,-245.0,-44.0,16.0,38.0,-61.0,6.0,-1009.0,-167.0
2.0,-245.0,-49.0,21.0,40.0,-61.0,0.0,-1014.0,-171.0
1.0,-244.0,-46.0,25.0,41.0,-62.0,1.0,-1013.0,-170.0
2.0,-244.0,-49.0,30.0,40.0,-64.0,1.0,-1004.0,-166.0
3.0,-245.0,-50.0,30.0,40.0,-63.0,3.0,-1000.0,-167.0
2.0,-240.0,-49.0,27.0,41.0,-63.0,-1.0,-1002.0,-169.0
3.0,-247.0,-44.0,25.0,40.0,-64.0,0.0,-996.0,-167.0
4.0,-243.0,-48.0,25.0,39.0,-62.0,-1.0,-1000.0,-165.0
3.0,-242.0,-43.0,24.0,38.0,-61.0,-1.0,-999.0,-164.0
1.0,-244.0,-43.0,20.0,37.0,-59.0,-5.0,-998.0,-169.0
5.0,-244.0,-43.0,18.0,36.0,-58.0,0.0,-999.0,-166.0
5.0,-245.0,-45.0,19.0,34.0,-56.0,0.0,-1003.0,-158.0
5.0,-242.0,-40.0,18.0,33.0,-54.0,0.0,-995.0,-159.0
4.0,-240.0,-42.0,17.0,32.0,-54.0,3.0,-1003.0,-157.0
7.0,-241.0,-41.0,16.0,31.0,-52.0,5.0,-998.0,-162.0
7.0,-246.0,-43.0,16.0,32.0,-52.0,9.0,-1000.0,-160.0
10.0,-245.0,-43.0,15.0,34.0,-53.0,13.0,-1001.0,-147.0
9.0,-244.0,-43.0,18.0,35.0,-52.0,9.0,-1005.0,-157.0
6.0,-246.0,-43.0,19.0,34.0,-52.0,16.0,-1002.0,-162.0
8.0,-246.0,-40.0,20.0,36.0,-51.0,16.0,-1003.0,-155.0
9.0,-245.0,-44.0,18.0,36.0,-51.0,21.0,-1002.0,-155.0
8.0,-245.0,-49.0,16.0,38.0,-49.0,15.0,-1001.0,-156.0
8.0,-244.0,-36.0,16.0,41.0,-50.0,15.0,-1002.0,-154.0
5.0,-245.0,-44.0,16.0,42.0,-49.0,15.0,-1004.0,-151.0
8.0,-246.0,-44.0,16.0,41.0,-50.0,10.0,-1004.0,-158.0
7.0,-248.0,-44.0,20.0,42.0,-49.0,10.0,-1005.0,-153.0
6.0,-246.0,-39.0,21.0,44.0,-48.0,4.0,-1005.0,-149.0
6.0,-249.0,-43.0,24.0,45.0,-46.0,4.0,-1005.0,-157.0
2.0,-245.0,-42.0,25.0,42.0,-46.0,3.0,-1001.0,-153.0
2.0,-243.0,-44.0,26.0,43.0,-46.0,4.0,-1004.0,-162.0
2.0,-246.0,-44.0,28.0,38.0,-44.0,-6.0,-1007.0,-159.0
2.0,-244.0,-42.0,30.0,35.0,-43.0,1.0,-1002.0,-152.0
5.0,-244.0,-47.0,34.0,35.0,-41.0,-5.0,-1003.0,-151.0
5.0,-246.0,-42.0,36.0,33.0,-39.0,-11.0,-1005.0,-154.0
0.0,-242.0,-40.0,37.0,29.0,-37.0,-6.0,-1005.0,-153.0
1.0,-247.0,-42.0,36.0,26.0,-33.0,-10.0,-1005.0,-157.0
0.0,-244.0,-43.0,37.0,22.0,-29.0,-9.0,-1002.0,-150.0
1.0,-246.0,-45.0,39.0,16.0,-27.0,-7.0,-1001.0,-157.0
3.0,-247.0,-45.0,43.0,12.0,-25.0,-3.0,-1008.0,-147.0
3.0,-247.0,-48.0,44.0,9.0,-21.0,-7.0,-1004.0,-163.0
2.0,-243.0,-45.0,44.0,7.0,-18.0,-5.0,-1005.0,-154.0
7.0,-247.0,-43.0,48.0,3.0,-17.0,-2.0,-1011.0,-153.0
4.0,-249.0,-43.0,53.0,1.0,-14.0,-1.0,-1011.0,-157.0
2.0,-245.0,-44.0,57.0,0.0,-15.0,-2.0,-1008.0,-163.0
3.0,-245.0,-44.0,65.0,-2.0,-14.0,-3.0,-1008.0,-161.0
0.0,-245.0,-40.0,72.0,-4.0,-13.0,2.0,-998.0,-168.0
5.0,-247.0,-37.0,74.0,-5.0,-13.0,5.0,-999.0,-165.0
8.0,-244.0,-45.0,74.0,-5.0,-13.0,5.0,-998.0,-165.0
5.0,-243.0,-44.0,73.0,-6.0,-11.0,10.0,-1001.0,-172.0
7.0,-244.0,-46.0,71.0,-7.0,-10.0,12.0,-1003.0,-176.0
9.0,-243.0,-44.0,71.0,-6.0,-11.0,13.0,-1002.0,-173.0
6.0,-241.0,-45.0,71.0,-4.0,-12.0,17.0,-995.0,-174.0
8.0,-243.0,-45.0,70.0,-5.0,-11.0,13.0,-997.0,-169.0
8.0,-244.0,-47.0,67.0,-2.0,-10.0,22.0,-1001.0,-174.0
7.0,-242.0,-48.0,63.0,-2.0,-10.0,14.0,-999.0,-169.0
7.0,-243.0,-45.0,59.0,0.0,-8.0,17.0,-998.0,-166.0
6.0,-245.0,-45.0,55.0,3.0,-5.0,17.0,-1000.0,-169.0
9.0,-244.0,-49.0,53.0,4.0,-6.0,19.0,-998.0,-170.0
7.0,-241.0,-49.0,55.0,3.0,-2.0,17.0,-1001.0,-183.0
10.0,-244.0,-47.0,61.0,3.0,0.0,21.0,-1005.0,-175.0
11.0,-245.0,-54.0,64.0,8.0,-1.0,20.0,-999.0,-179.0
10.0,-244.0,-50.0,64.0,12.0,0.0,18.0,-1006.0,-175.0
11.0,-246.0,-49.0,64.0,14.0,2.0,19.0,-992.0,-183.0
7.0,-242.0,-51.0,61.0,15.0,0.0,20.0,-996.0,-177.0
10.0,-244.0,-49.0,60.0,16.0,-1.0,23.0,-996.0,-178.0
9.0,-242.0,-49.0,58.0,17.0,-2.0,21.0,-1001.0,-180.0
11.0,-243.0,-48.0,59.0,22.0,-2.0,23.0,-998.0,-182.0
8.0,-248.0,-48.0,61.0,24.0,-2.0,18.0,-1001.0,-185.0
9.0,-245.0,-52.0,64.0,27.0,-2.0,16.0,-1002.0,-184.0
7.0,-242.0,-47.0,67.0,29.0,-1.0,18.0,-999.0,-180.0
8.0,-244.0,-46.0,71.0,33.0,-1.0,18.0,-1002.0,-186.0
8.0,-246.0,-45.0,74.0,35.0,0.0,15.0,-1000.0,-179.0
9.0,-244.0,-47.0,75.0,37.0,0.0,17.0,-1003.0,-181.0
8.0,-246.0,-49.0,78.0,38.0,-1.0,17.0,-1005.0,-177.0
7.0,-243.0,-53.0,79.0,36.0,-2.0,18.0,-1003.0,-178.0
6.0,-241.0,-49.0,81.0,35.0,-1.0,13.0,-1002.0,-182.0
8.0,-242.0,-55.0,81.0,35.0,-1.0,15.0,-999.0,-190.0
6.0,-244.0,-48.0,79.0,34.0,-2.0,13.0,-1002.0,-193.0
9.0,-245.0,-47.0,78.0,32.0,-1.0,8.0,-998.0,-192.0
5.0,-240.0,-41.0,81.0,32.0,0.0,14.0,-996.0,-190.0
7.0,-245.0,-52.0,82.0,31.0,1.0,17.0,-996.0,-191.0
4.0,-245.0,-51.0,83.0,31.0,1.0,10.0,-996.0,-192.0
10.0,-244.0,-54.0,83.0,29.0,0.0,14.0,-1000.0,-194.0
7.0,-245.0,-53.0,83.0,27.0,3.0,16.0,-997.0,-192.0
6.0,-243.0,-53.0,83.0,25.0,4.0,11.0,-1006.0,-195.0
6.0,-246.0,-50.0,84.0,24.0,4.0,5.0,-1006.0,-195.0
6.0,-245.0,-51.0,83.0,24.0,5.0,5.0,-1001.0,-209.0
6.0,-245.0,-51.0,85.0,21.0,5.0,9.0,-997.0,-193.0
5.0,-243.0,-52.0,89.0,19.0,6.0,16.0,-998.0,-193.0
-4.0,-255.0,-49.0,93.0,18.0,8.0,15.0,-997.0,-199.0
6.0,-235.0,-54.0,96.0,17.0,10.0,15.0,-996.0,-202.0
6.0,-239.0,-53.0,96.0,13.0,12.0,8.0,-997.0,-197.0
6.0,-242.0,-51.0,96.0,12.0,12.0,12.0,-990.0,-200.0
6.0,-241.0,-52.0,95.0,11.0,14.0,11.0,-985.0,-197.0
5.0,-242.0,-53.0,93.0,9.0,13.0,10.0,-987.0,-196.0
6.0,-241.0,-54.0,87.0,8.0,15.0,12.0,-986.0,-207.0
8.0,-239.0,-53.0,83.0,8.0,16.0,11.0,-984.0,-204.0
8.0,-237.0,-52.0,78.0,6.0,17.0,10.0,-983.0,-199.0
5.0,-239.0,-49.0,71.0,4.0,17.0,11.0,-982.0,-198.0
6.0,-239.0,-52.0,64.0,5.0,17.0,10.0,-982.0,-196.0
8.0,-244.0,-53.0,56.0,4.0,19.0,10.0,-980.0,-197.0
6.0,-237.0,-55.0,49.0,2.0,22.0,12.0,-983.0,-200.0
8.0,-239.0,-51.0,43.0,1.0,23.0,13.0,-986.0,-189.0
7.0,-240.0,-51.0,37.0,0.0,25.0,7.0,-988.0,-191.0
6.0,-240.0,-52.0,32.0,-2.0,26.0,10.0,-987.0,-194.0
8.0,-241.0,-53.0,29.0,-2.0,27.0,10.0,-988.0,-205.0
7.0,-242.0,-55.0,29.0,-3.0,29.0,10.0,-990.0,-198.0
6.0,-241.0,-58.0,30.0,-3.0,32.0,11.0,-986.0,-201.0
8.0,-243.0,-54.0,31.0,-2.0,33.0,14.0,-991.0,-209.0
9.0,-243.0,-57.0,31.0,-1.0,36.0,16.0,-991.0,-211.0
5.0,-240.0,-54.0,31.0,-1.0,38.0,15.0,-989.0,-205.0
9.0,-245.0,-55.0,32.0,-1.0,38.0,15.0,-988.0,-213.0
7.0,-238.0,-51.0,31.0,0.0,37.0,14.0,-987.0,-210.0
7.0,-236.0,-55.0,28.0,2.0,38.0,14.0,-984.0,-205.0
7.0,-241.0,-56.0,23.0,3.0,36.0,12.0,-984.0,-207.0
11.0,-240.0,-51.0,18.0,4.0,34.0,15.0,-981.0,-206.0
10.0,-239.0,-57.0,14.0,3.0,35.0,16.0,-976.0,-208.0
10.0,-238.0,-56.0,9.0,4.0,33.0,16.0,-969.0,-205.0
7.0,-238.0,-51.0,3.0,7.0,32.0,10.0,-974.0,-214.0
8.0,-235.0,-57.0,-3.0,9.0,31.0,15.0,-966.0,-204.0
9.0,-237.0,-56.0,-10.0,10.0,32.0,13.0,-975.0,-208.0
9.0,-238.0,-53.0,-18.0,13.0,31.0,9.0,-977.0,-203.0
6.0,-235.0,-55.0,-24.0,14.0,30.0,10.0,-974.0,-200.0
7.0,-238.0,-53.0,-29.0,14.0,31.0,9.0,-979.0,-201.0
5.0,-241.0,-56.0,-35.0,14.0,33.0,6.0,-981.0,-195.0
4.0,-240.0,-55.0,-39.0,13.0,33.0,6.0,-982.0,-201.0
7.0,-240.0,-52.0,-44.0,12.0,35.0,6.0,-989.0,-202.0
6.0,-240.0,-53.0,-46.0,11.0,36.0,6.0,-989.0,-201.0
5.0,-244.0,-51.0,-48.0,11.0,35.0,1.0,-991.0,-197.0
3.0,-243.0,-55.0,-49.0,10.0,34.0,1.0,-991.0,-195.0
4.0,-242.0,-54.0,-49.0,10.0,33.0,-5.0,-993.0,-197.0
3.0,-245.0,-54.0,-50.0,5.0,33.0,-8.0,-991.0,-199.0
1.0,-239.0,-52.0,-53.0,3.0,34.0,-12.0,-992.0,-204.0
4.0,-242.0,-54.0,-56.0,-1.0,35.0,-8.0,-989.0,-197.0
1.0,-242.0,-51.0,-60.0,-6.0,36.0,-10.0,-996.0,-199.0
1.0,-245.0,-50.0,-60.0,-9.0,35.0,-13.0,-995.0,-188.0
0.0,-245.0,-51.0,-59.0,-11.0,32.0,-17.0,-999.0,-183.0
-1.0,-239.0,-49.0,-57.0,-16.0,33.0,-21.0,-997.0,-178.0
-2.0,-244.0,-45.0,-54.0,-21.0,30.0,-23.0,-997.0,-181.0
0.0,-244.0,-48.0,-55.0,-28.0,29.0,-25.0,-1002.0,-188.0
-3.0,-246.0,-52.0,-55.0,-36.0,27.0,-26.0,-1002.0,-201.0
-1.0,-246.0,-54.0,-54.0,-40.0,26.0,-26.0,-997.0,-200.0
-3.0,-244.0,-51.0,-53.0,-44.0,27.0,-25.0,-1001.0,-198.0
-4.0,-245.0,-49.0,-52.0,-49.0,27.0,-23.0,-999.0,-204.0
-3.0,-241.0,-51.0,-49.0,-51.0,28.0,-21.0,-1009.0,-197.0
0.0,-244.0,-52.0,-49.0,-54.0,28.0,-17.0,-1003.0,-188.0
0.0,-248.0,-53.0,-48.0,-58.0,25.0,-13.0,-1007.0,-187.0
1.0,-249.0,-44.0,-46.0,-62.0,24.0,-15.0,-1007.0,-184.0
-1.0,-244.0,-48.0,-45.0,-69.0,19.0,-16.0,-1003.0,-181.0
2.0,-244.0,-52.0,-43.0,-74.0,15.0,-11.0,-1008.0,-182.0
2.0,-248.0,-51.0,-38.0,-76.0,16.0,-7.0,-1000.0,-184.0
2.0,-247.0,-55.0,-32.0,-80.0,12.0,-2.0,-1008.0,-197.0
4.0,-247.0,-54.0,-24.0,-81.0,11.0,-3.0,-1004.0,-200.0
2.0,-241.0,-57.0,-15.0,-81.0,9.0,-3.0,-1005.0,-202.0
5.0,-243.0,-57.0,-6.0,-81.0,8.0,-2.0,-998.0,-206.0
1.0,-243.0,-59.0,-2.0,-81.0,8.0,-6.0,-992.0,-204.0
3.0,-242.0,-57.0,-5.0,-81.0,10.0,-3.0,-990.0,-206.0
2.0,-240.0,-55.0,-12.0,-83.0,10.0,-1.0,-985.0,-202.0
3.0,-239.0,-53.0,-24.0,-85.0,9.0,-6.0,-986.0,-201.0
1.0,-239.0,-52.0,-34.0,-87.0,8.0,-15.0,-981.0,-195.0
0.0,-240.0,-51.0,-42.0,-88.0,7.0,-11.0,-983.0,-189.0
0.0,-240.0,-49.0,-48.0,-93.0,6.0,-8.0,-984.0,-192.0
1.0,-237.0,-52.0,-50.0,-95.0,5.0,-12.0,-987.0,-194.0
1.0,-243.0,-51.0,-50.0,-98.0,5.0,-8.0,-985.0,-201.0
1.0,-243.0,-50.0,-52.0,-100.0,6.0,-11.0,-992.0,-198.0
2.0,-243.0,-54.0,-53.0,-101.0,6.0,-3.0,-992.0,-205.0
3.0,-244.0,-57.0,-53.0,-101.0,8.0,-8.0,-997.0,-205.0
3.0,-246.0,-56.0,-51.0,-101.0,7.0,-4.0,-999.0,-208.0
8.0,-247.0,-55.0,-47.0,-99.0,6.0,-3.0,-1002.0,-205.0
2.0,-245.0,-59.0,-40.0,-98.0,7.0,-4.0,-1005.0,-203.0
2.0,-246.0,-54.0,-34.0,-98.0,8.0,-2.0,-1008.0,-203.0
2.0,-246.0,-51.0,-26.0,-98.0,10.0,-4.0,-1005.0,-203.0
2.0,-247.0,-55.0,-19.0,-98.0,10.0,-2.0,-1008.0,-199.0
3.0,-245.0,-53.0,-13.0,-99.0,7.0,-2.0,-1001.0,-205.0
3.0,-243.0,-57.0,-10.0,-98.0,7.0,-3.0,-1001.0,-207.0
1.0,-241.0,-53.0,-7.0,-98.0,8.0,-4.0,-1000.0,-207.0
4.0,-243.0,-54.0,-10.0,-97.0,8.0,-3.0,-996.0,-199.0
5.0,-244.0,-59.0,-13.0,-98.0,11.0,-3.0,-993.0,-205.0
2.0,-245.0,-53.0,-14.0,-99.0,11.0,-3.0,-991.0,-197.0
5.0,-241.0,-50.0,-16.0,-100.0,12.0,-8.0,-989.0,-199.0
2.0,-240.0,-53.0,-16.0,-102.0,12.0,-5.0,-987.0,-202.0
3.0,-240.0,-61.0,-16.0,-103.0,13.0,-8.0,-988.0,-207.0
0.0,-239.0,-59.0,-14.0,-103.0,14.0,-8.0,-986.0,-218.0
0.0,-238.0,-59.0,-9.0,-104.0,14.0,-9.0,-989.0,-225.0
5.0,-243.0,-57.0,-7.0,-104.0,14.0,-3.0,-989.0,-225.0
4.0,-242.0,-59.0,-5.0,-103.0,17.0,-2.0,-990.0,-225.0
1.0,-237.0,-60.0,-5.0,-102.0,14.0,-6.0,-986.0,-226.0
2.0,-242.0,-59.0,-6.0,-103.0,14.0,0.0,-983.0,-226.0
2.0,-241.0,-58.0,-4.0,-103.0,14.0,1.0,-991.0,-218.0
3.0,-242.0,-57.0,-1.0,-103.0,12.0,-4.0,-992.0,-217.0
3.0,-237.0,-59.0,4.0,-102.0,12.0,-10.0,-988.0,-219.0
4.0,-239.0,-58.0,10.0,-103.0,10.0,-10.0,-982.0,-224.0
0.0,-239.0,-58.0,12.0,-105.0,9.0,-10.0,-982.0,-224.0
0.0,-237.0,-57.0,11.0,-107.0,9.0,-18.0,-977.0,-217.0
-2.0,-237.0,-60.0,10.0,-109.0,10.0,-20.0,-978.0,-224.0
-4.0,-235.0,-59.0,7.0,-110.0,7.0,-24.0,-973.0,-228.0
-2.0,-235.0,-62.0,0.0,-110.0,8.0,-26.0,-976.0,-215.0
0.0,-236.0,-56.0,-9.0,-110.0,7.0,-21.0,-965.0,-215.0
-1.0,-235.0,-56.0,-20.0,-110.0,7.0,-20.0,-966.0,-216.0
-1.0,-236.0,-56.0,-30.0,-113.0,3.0,-31.0,-970.0,-220.0
-2.0,-235.0,-55.0,-35.0,-117.0,4.0,-25.0,-973.0,-214.0
1.0,-241.0,-55.0,-39.0,-120.0,4.0,-22.0,-979.0,-225.0
0.0,-237.0,-57.0,-42.0,-123.0,4.0,-21.0,-973.0,-224.0
0.0,-237.0,-62.0,-44.0,-123.0,4.0,-13.0,-979.0,-229.0
0.0,-239.0,-61.0,-51.0,-126.0,2.0,-16.0,-985.0,-233.0
0.0,-240.0,-60.0,-53.0,-127.0,2.0,-14.0,-988.0,-229.0
2.0,-243.0,-62.0,-55.0,-127.0,2.0,-10.0,-993.0,-230.0
0.0,-249.0,-58.0,-55.0,-129.0,1.0,-5.0,-996.0,-232.0
4.0,-248.0,-57.0,-47.0,-126.0,-1.0,-6.0,-1004.0,-238.0
1.0,-246.0,-69.0,-39.0,-125.0,-3.0,-6.0,-1007.0,-235.0
5.0,-247.0,-62.0,-25.0,-123.0,-4.0,-4.0,-1004.0,-229.0
6.0,-248.0,-61.0,-8.0,-119.0,-3.0,-5.0,-1001.0,-230.0
2.0,-243.0,-59.0,8.0,-115.0,-2.0,-3.0,-998.0,-222.0
1.0,-239.0,-60.0,22.0,-113.0,-2.0,-3.0,-989.0,-228.0
5.0,-236.0,-62.0,30.0,-111.0,-1.0,-1.0,-979.0,-232.0
3.0,-231.0,-63.0,34.0,-108.0,-2.0,-2.0,-962.0,-231.0
5.0,-234.0,-62.0,29.0,-107.0,-4.0,-1.0,-955.0,-229.0
6.0,-232.0,-62.0,19.0,-106.0,-8.0,1.0,-947.0,-232.0
1.0,-223.0,-61.0,6.0,-102.0,-10.0,-6.0,-935.0,-242.0
2.0,-227.0,-61.0,-11.0,-101.0,-12.0,-4.0,-933.0,-236.0
2.0,-226.0,-63.0,-27.0,-99.0,-14.0,-2.0,-937.0,-242.0
0.0,-226.0,-63.0,-43.0,-95.0,-10.0,-4.0,-934.0,-241.0
3.0,-226.0,-66.0,-56.0,-94.0,-5.0,2.0,-937.0,-245.0
5.0,-226.0,-60.0,-76.0,-92.0,-1.0,5.0,-942.0,-246.0
8.0,-231.0,-64.0,-98.0,-87.0,-1.0,11.0,-953.0,-244.0
7.0,-233.0,-59.0,-110.0,-76.0,-5.0,13.0,-959.0,-237.0
11.0,-235.0,-65.0,-112.0,-67.0,-7.0,12.0,-959.0,-241.0
11.0,-237.0,-57.0,-115.0,-59.0,-8.0,17.0,-965.0,-232.0
11.0,-235.0,-61.0,-114.0,-47.0,-5.0,17.0,-973.0,-241.0
10.0,-236.0,-59.0,-115.0,-37.0,1.0,18.0,-977.0,-224.0
10.0,-240.0,-53.0,-114.0,-27.0,12.0,26.0,-980.0,-219.0
12.0,-238.0,-58.0,-110.0,-18.0,18.0,32.0,-987.0,-218.0
13.0,-242.0,-58.0,-103.0,-10.0,23.0,33.0,-999.0,-214.0
12.0,-246.0,-57.0,-95.0,-3.0,25.0,33.0,-990.0,-213.0
13.0,-241.0,-60.0,-83.0,3.0,25.0,31.0,-991.0,-222.0
8.0,-239.0,-55.0,-74.0,7.0,22.0,23.0,-991.0,-223.0
11.0,-241.0,-60.0,-68.0,8.0,22.0,25.0,-990.0,-229.0
9.0,-242.0,-60.0,-61.0,12.0,21.0,16.0,-990.0,-240.0
7.0,-243.0,-62.0,-57.0,15.0,21.0,12.0,-996.0,-240.0
6.0,-245.0,-64.0,-53.0,18.0,21.0,5.0,-995.0,-245.0
5.0,-246.0,-61.0,-48.0,20.0,16.0,-3.0,-999.0,-244.0
0.0,-244.0,-64.0,-40.0,23.0,10.0,-7.0,-997.0,-245.0
1.0,-246.0,-70.0,-33.0,28.0,7.0,-11.0,-998.0,-256.0
0.0,-243.0,-66.0,-36.0,27.0,4.0,-21.0,-994.0,-254.0
0.0,-241.0,-64.0,-48.0,22.0,2.0,-23.0,-994.0,-254.0
0.0,-246.0,-65.0,-57.0,22.0,1.0,-24.0,-993.0,-246.0
-1.0,-243.0,-65.0,-56.0,21.0,2.0,-32.0,-994.0,-243.0
-2.0,-244.0,-59.0,-50.0,18.0,0.0,-28.0,-991.0,-234.0
-4.0,-240.0,-60.0,-46.0,14.0,-3.0,-37.0,-993.0,-243.0
-4.0,-241.0,-60.0,-45.0,9.0,-8.0,-38.0,-986.0,-243.0
-4.0,-240.0,-64.0,-41.0,6.0,-12.0,-39.0,-992.0,-243.0
-4.0,-241.0,-60.0,-40.0,2.0,-11.0,-36.0,-986.0,-240.0
-14.0,-243.0,-60.0,-38.0,1.0,-11.0,-32.0,-977.0,-243.0
-6.0,-237.0,-61.0,-39.0,0.0,-12.0,-30.0,-974.0,-238.0
-4.0,-233.0,-60.0,-44.0,0.0,-12.0,-27.0,-972.0,-231.0
-6.0,-235.0,-62.0,-47.0,0.0,-10.0,-33.0,-967.0,-230.0
0.0,-237.0,-58.0,-50.0,-3.0,-12.0,-25.0,-963.0,-238.0
-5.0,-233.0,-63.0,-53.0,-2.0,-13.0,-26.0,-970.0,-238.0
1.0,-237.0,-62.0,-56.0,-3.0,-16.0,-24.0,-963.0,-237.0
1.0,-235.0,-61.0,-61.0,-3.0,-19.0,-20.0,-962.0,-246.0
0.0,-237.0,-69.0,-67.0,-4.0,-21.0,-15.0,-972.0,-250.0
1.0,-237.0,-65.0,-70.0,-3.0,-20.0,-8.0,-967.0,-254.0
1.0,-238.0,-65.0,-73.0,-1.0,-19.0,-4.0,-973.0,-254.0
3.0,-238.0,-70.0,-74.0,2.0,-20.0,-8.0,-977.0,-256.0
1.0,-239.0,-66.0,-76.0,5.0,-21.0,-5.0,-982.0,-253.0
4.0,-244.0,-64.0,-79.0,7.0,-23.0,-7.0,-989.0,-248.0
3.0,-240.0,-60.0,-81.0,6.0,-24.0,-6.0,-987.0,-246.0
1.0,-241.0,-62.0,-84.0,6.0,-23.0,-12.0,-990.0,-236.0
1.0,-242.0,-63.0,-88.0,2.0,-22.0,-13.0,-990.0,-234.0
-1.0,-242.0,-57.0,-90.0,-2.0,-22.0,-22.0,-995.0,-232.0
-1.0,-242.0,-61.0,-90.0,-8.0,-20.0,-26.0,-992.0,-228.0
-2.0,-242.0,-58.0,-89.0,-13.0,-23.0,-26.0,-995.0,-222.0
0.0,-240.0,-57.0,-88.0,-18.0,-25.0,-28.0,-1000.0,-226.0
-8.0,-242.0,-61.0,-84.0,-21.0,-26.0,-36.0,-999.0,-227.0
-6.0,-244.0,-56.0,-79.0,-25.0,-28.0,-38.0,-993.0,-233.0
0.0,-243.0,-63.0,-72.0,-31.0,-32.0,-35.0,-997.0,-226.0
-1.0,-244.0,-64.0,-65.0,-36.0,-38.0,-36.0,-988.0,-237.0
-4.0,-243.0,-60.0,-59.0,-38.0,-41.0,-35.0,-991.0,-233.0
-2.0,-242.0,-64.0,-56.0,-40.0,-44.0,-31.0,-989.0,-242.0
-4.0,-238.0,-62.0,-57.0,-38.0,-50.0,-37.0,-985.0,-237.0
-2.0,-242.0,-60.0,-62.0,-36.0,-56.0,-37.0,-982.0,-238.0
-4.0,-241.0,-63.0,-66.0,-36.0,-62.0,-35.0,-987.0,-232.0
-5.0,-240.0,-57.0,-68.0,-41.0,-64.0,-39.0,-978.0,-235.0
-4.0,-239.0,-61.0,-70.0,-43.0,-68.0,-34.0,-982.0,-232.0
-2.0,-240.0,-61.0,-70.0,-44.0,-68.0,-33.0,-981.0,-239.0
0.0,-235.0,-55.0,-71.0,-43.0,-66.0,-30.0,-980.0,-243.0
-1.0,-239.0,-65.0,-71.0,-43.0,-65.0,-26.0,-980.0,-242.0
-1.0,-237.0,-63.0,-76.0,-40.0,-61.0,-20.0,-977.0,-243.0
1.0,-241.0,-63.0,-75.0,-36.0,-56.0,-17.0,-981.0,-241.0
0.0,-238.0,-63.0,-73.0,-34.0,-47.0,-17.0,-977.0,-238.0
-2.0,-235.0,-62.0,-69.0,-36.0,-41.0,-14.0,-977.0,-238.0
0.0,-238.0,-61.0,-65.0,-39.0,-35.0,-16.0,-976.0,-229.0
1.0,-238.0,-60.0,-56.0,-44.0,-31.0,-17.0,-980.0,-233.0
-1.0,-235.0,-64.0,-48.0,-51.0,-26.0,-21.0,-982.0,-239.0
0.0,-238.0,-63.0,-40.0,-56.0,-23.0,-19.0,-973.0,-243.0
0.0,-240.0,-63.0,-32.0,-59.0,-23.0,-21.0,-972.0,-235.0
-1.0,-236.0,-64.0,-20.0,-58.0,-21.0,-31.0,-973.0,-239.0
0.0,-239.0,-65.0,-10.0,-61.0,-21.0,-34.0,-965.0,-240.0
-5.0,-234.0,-65.0,-5.0,-60.0,-21.0,-37.0,-963.0,-236.0
-6.0,-235.0,-63.0,-1.0,-60.0,-22.0,-45.0,-961.0,-235.0
-7.0,-230.0,-58.0,-3.0,-59.0,-22.0,-42.0,-971.0,-239.0
-6.0,-236.0,-62.0,-11.0,-63.0,-22.0,-40.0,-974.0,-234.0
-2.0,-239.0,-65.0,-21.0,-66.0,-22.0,-48.0,-978.0,-236.0
-4.0,-242.0,-61.0,-31.0,-71.0,-25.0,-50.0,-985.0,-236.0
-9.0,-241.0,-60.0,-36.0,-77.0,-26.0,-48.0,-988.0,-238.0
-8.0,-244.0,-63.0,-37.0,-85.0,-27.0,-50.0,-999.0,-240.0
-7.0,-244.0,-62.0,-36.0,-91.0,-27.0,-39.0,-1005.0,-245.0
-7.0,-247.0,-65.0,-32.0,-95.0,-28.0,-35.0,-1016.0,-247.0
-6.0,-247.0,-68.0,-24.0,-99.0,-35.0,-41.0,-1016.0,-249.0
-4.0,-252.0,-66.0,-6.0,-98.0,-41.0,-38.0,-1023.0,-260.0
-5.0,-252.0,-68.0,17.0,-98.0,-48.0,-32.0,-1020.0,-268.0
-2.0,-248.0,-69.0,41.0,-94.0,-57.0,-34.0,-1011.0,-264.0
-1.0,-243.0,-64.0,62.0,-90.0,-61.0,-34.0,-1001.0,-258.0
-2.0,-241.0,-66.0,80.0,-89.0,-64.0,-37.0,-993.0,-264.0
-2.0,-240.0,-65.0,91.0,-88.0,-64.0,-33.0,-982.0,-258.0
-2.0,-237.0,-67.0,95.0,-89.0,-62.0,-31.0,-963.0,-249.0
-2.0,-232.0,-65.0,97.0,-90.0,-61.0,-31.0,-957.0,-257.0
-1.0,-233.0,-64.0,94.0,-89.0,-55.0,-30.0,-947.0,-246.0
-2.0,-229.0,-63.0,89.0,-87.0,-47.0,-20.0,-945.0,-248.0
0.0,-229.0,-63.0,85.0,-86.0,-40.0,-19.0,-944.0,-246.0
-1.0,-226.0,-65.0,78.0,-85.0,-35.0,-15.0,-942.0,-247.0
0.0,-233.0,-66.0,68.0,-82.0,-33.0,-25.0,-942.0,-254.0
-1.0,-228.0,-66.0,59.0,-82.0,-33.0,-22.0,-948.0,-254.0
-5.0,-232.0,-66.0,49.0,-83.0,-37.0,-29.0,-950.0,-249.0
-3.0,-232.0,-68.0,42.0,-86.0,-38.0,-37.0,-954.0,-254.0
-8.0,-232.0,-65.0,36.0,-84.0,-42.0,-40.0,-957.0,-262.0
-9.0,-235.0,-65.0,28.0,-82.0,-45.0,-42.0,-965.0,-262.0
-3.0,-236.0,-67.0,20.0,-82.0,-46.0,-45.0,-975.0,-269.0
-2.0,-241.0,-60.0,12.0,-81.0,-53.0,-39.0,-980.0,-268.0
-7.0,-240.0,-71.0,5.0,-78.0,-55.0,-40.0,-983.0,-277.0
-2.0,-242.0,-72.0,1.0,-76.0,-58.0,-35.0,-992.0,-284.0
-2.0,-242.0,-69.0,-2.0,-73.0,-59.0,-24.0,-994.0,-287.0
0.0,-244.0,-70.0,-7.0,-68.0,-60.0,-24.0,-1004.0,-285.0
-5.0,-247.0,-72.0,-9.0,-64.0,-61.0,-27.0,-1010.0,-277.0
-4.0,-248.0,-68.0,-11.0,-60.0,-64.0,-23.0,-1013.0,-275.0
0.0,-250.0,-69.0,-10.0,-57.0,-63.0,-26.0,-1023.0,-273.0
3.0,-253.0,-67.0,-5.0,-57.0,-66.0,-26.0,-1019.0,-263.0
-3.0,-251.0,-67.0,4.0,-55.0,-68.0,-33.0,-1024.0,-258.0
-3.0,-252.0,-63.0,20.0,-52.0,-69.0,-30.0,-1014.0,-254.0
-6.0,-244.0,-63.0,38.0,-50.0,-72.0,-35.0,-1014.0,-253.0
-4.0,-246.0,-65.0,51.0,-48.0,-73.0,-33.0,-1009.0,-250.0
-7.0,-243.0,-63.0,62.0,-47.0,-73.0,-46.0,-1001.0,-246.0
-4.0,-242.0,-64.0,77.0,-48.0,-68.0,-45.0,-995.0,-244.0
-9.0,-239.0,-63.0,91.0,-47.0,-61.0,-47.0,-978.0,-244.0
-9.0,-236.0,-59.0,103.0,-45.0,-55.0,-55.0,-971.0,-246.0
-11.0,-237.0,-64.0,106.0,-45.0,-48.0,-59.0,-965.0,-245.0
-14.0,-231.0,-65.0,101.0,-44.0,-46.0,-64.0,-958.0,-245.0
-14.0,-231.0,-65.0,87.0,-44.0,-43.0,-64.0,-957.0,-251.0
-12.0,-229.0,-65.0,68.0,-46.0,-45.0,-62.0,-954.0,-254.0
-12.0,-234.0,-65.0,51.0,-46.0,-47.0,-67.0,-960.0,-254.0
-11.0,-234.0,-69.0,40.0,-45.0,-53.0,-64.0,-966.0,-279.0
-8.0,-236.0,-71.0,18.0,-45.0,-58.0,-60.0,-963.0,-280.0
-10.0,-241.0,-68.0,-3.0,-43.0,-57.0,-52.0,-985.0,-275.0
-6.0,-242.0,-61.0,-12.0,-43.0,-61.0,-41.0,-991.0,-283.0
0.0,-246.0,-70.0,-15.0,-44.0,-64.0,-30.0,-1000.0,-270.0
0.0,-242.0,-68.0,-8.0,-40.0,-69.0,-22.0,-1002.0,-267.0
0.0,-243.0,-70.0,0.0,-33.0,-70.0,-17.0,-1000.0,-266.0
1.0,-245.0,-67.0,8.0,-27.0,-67.0,-11.0,-1001.0,-262.0
1.0,-246.0,-67.0,16.0,-26.0,-65.0,-13.0,-1004.0,-260.0
1.0,-243.0,-65.0,26.0,-25.0,-61.0,-11.0,-1005.0,-260.0
-1.0,-244.0,-65.0,35.0,-25.0,-55.0,-15.0,-1004.0,-258.0
-1.0,-244.0,-64.0,38.0,-27.0,-46.0,-14.0,-1003.0,-254.0
-2.0,-242.0,-65.0,40.0,-28.0,-39.0,-17.0,-1006.0,-252.0
0.0,-244.0,-65.0,40.0,-28.0,-34.0,-21.0,-1008.0,-250.0
0.0,-247.0,-63.0,41.0,-26.0,-30.0,-26.0,-1014.0,-244.0
-4.0,-252.0,-66.0,47.0,-27.0,-28.0,-37.0,-1021.0,-243.0
-5.0,-252.0,-65.0,57.0,-32.0,-29.0,-50.0,-1022.0,-243.0
-9.0,-251.0,-64.0,67.0,-36.0,-32.0,-53.0,-1026.0,-244.0
-10.0,-251.0,-60.0,78.0,-42.0,-32.0,-56.0,-1022.0,-243.0
-7.0,-248.0,-57.0,93.0,-47.0,-30.0,-60.0,-1022.0,-243.0
-11.0,-246.0,-58.0,110.0,-55.0,-32.0,-56.0,-1010.0,-245.0
-10.0,-231.0,-69.0,122.0,-62.0,-33.0,-57.0,-999.0,-247.0
-9.0,-240.0,-66.0,133.0,-66.0,-30.0,-50.0,-986.0,-255.0
-5.0,-239.0,-68.0,140.0,-67.0,-24.0,-48.0,-978.0,-271.0
-5.0,-235.0,-72.0,142.0,-65.0,-19.0,-44.0,-968.0,-281.0
-7.0,-232.0,-72.0,143.0,-61.0,-12.0,-32.0,-958.0,-281.0
-1.0,-229.0,-73.0,135.0,-59.0,-1.0,-20.0,-947.0,-289.0
0.0,-229.0,-73.0,119.0,-51.0,10.0,-19.0,-949.0,-288.0
0.0,-232.0,-71.0,100.0,-43.0,15.0,-14.0,-951.0,-275.0
2.0,-231.0,-66.0,84.0,-37.0,13.0,-3.0,-950.0,-266.0
0.0,-229.0,-66.0,69.0,-32.0,8.0,-3.0,-953.0,-269.0
6.0,-230.0,-64.0,52.0,-30.0,4.0,0.0,-950.0,-257.0
8.0,-232.0,-64.0,44.0,-26.0,-1.0,7.0,-960.0,-251.0
6.0,-230.0,-65.0,40.0,-22.0,-3.0,6.0,-961.0,-259.0
3.0,-236.0,-69.0,37.0,-24.0,-10.0,7.0,-975.0,-263.0
4.0,-239.0,-66.0,36.0,-28.0,-15.0,8.0,-975.0,-270.0
4.0,-242.0,-70.0,38.0,-36.0,-20.0,5.0,-985.0,-282.0
2.0,-243.0,-74.0,41.0,-41.0,-21.0,0.0,-992.0,-290.0
2.0,-245.0,-76.0,47.0,-41.0,-19.0,-7.0,-991.0,-295.0
1.0,-245.0,-74.0,54.0,-39.0,-19.0,-8.0,-994.0,-299.0
-1.0,-241.0,-74.0,55.0,-32.0,-15.0,-21.0,-988.0,-299.0
-3.0,-240.0,-73.0,45.0,-29.0,-10.0,-19.0,-984.0,-285.0
0.0,-241.0,-66.0,23.0,-25.0,-6.0,-19.0,-994.0,-268.0
-1.0,-244.0,-62.0,11.0,-12.0,-1.0,-10.0,-1007.0,-246.0
-1.0,-247.0,-66.0,18.0,-1.0,2.0,-13.0,-1001.0,-251.0
0.0,-248.0,-63.0,31.0,-2.0,5.0,-18.0,-1013.0,-245.0
0.0,-245.0,-68.0,55.0,-9.0,11.0,-4.0,-1003.0,-264.0
3.0,-245.0,-71.0,82.0,-15.0,12.0,-1.0,-1001.0,-284.0
4.0,-241.0,-77.0,105.0,-12.0,17.0,6.0,-990.0,-301.0
2.0,-239.0,-75.0,118.0,-9.0,16.0,6.0,-991.0,-293.0
3.0,-238.0,-73.0,129.0,-8.0,16.0,-2.0,-979.0,-292.0
2.0,-235.0,-72.0,136.0,-7.0,15.0,-6.0,-968.0,-285.0
0.0,-237.0,-68.0,135.0,-3.0,16.0,-26.0,-964.0,-278.0
-4.0,-234.0,-70.0,134.0,0.0,22.0,-33.0,-966.0,-269.0
-5.0,-234.0,-67.0,131.0,-1.0,29.0,-33.0,-970.0,-249.0
-2.0,-239.0,-64.0,124.0,0.0,37.0,-32.0,-969.0,-253.0
-3.0,-237.0,-60.0,121.0,1.0,39.0,-33.0,-969.0,-247.0
-5.0,-236.0,-64.0,123.0,0.0,44.0,-33.0,-969.0,-247.0
-3.0,-232.0,-73.0,128.0,0.0,44.0,-24.0,-962.0,-274.0
-1.0,-229.0,-75.0,138.0,1.0,48.0,-19.0,-965.0,-288.0
0.0,-234.0,-76.0,141.0,7.0,53.0,-18.0,-965.0,-302.0
0.0,-234.0,-76.0,141.0,13.0,54.0,-17.0,-964.0,-302.0
1.0,-235.0,-72.0,138.0,13.0,54.0,-9.0,-961.0,-295.0
1.0,-231.0,-74.0,136.0,8.0,53.0,-4.0,-966.0,-288.0
2.0,-234.0,-77.0,131.0,1.0,53.0,2.0,-965.0,-299.0
2.0,-235.0,-76.0,119.0,-2.0,51.0,-3.0,-970.0,-299.0
5.0,-237.0,-70.0,110.0,0.0,52.0,-1.0,-973.0,-280.0
0.0,-237.0,-70.0,108.0,1.0,53.0,-5.0,-978.0,-275.0
0.0,-240.0,-68.0,109.0,-5.0,51.0,-19.0,-980.0,-268.0
-1.0,-241.0,-66.0,109.0,-13.0,52.0,-24.0,-980.0,-259.0
-5.0,-235.0,-67.0,110.0,-18.0,53.0,-22.0,-979.0,-258.0
-4.0,-238.0,-67.0,111.0,-18.0,58.0,-35.0,-981.0,-247.0
-5.0,-239.0,-62.0,114.0,-17.0,65.0,-41.0,-987.0,-250.0
-6.0,-241.0,-66.0,122.0,-15.0,74.0,-46.0,-987.0,-248.0
-8.0,-242.0,-66.0,138.0,-11.0,84.0,-43.0,-983.0,-248.0
-5.0,-237.0,-74.0,154.0,-6.0,95.0,-29.0,-980.0,-285.0
0.0,-237.0,-72.0,149.0,-4.0,106.0,-21.0,-978.0,-277.0
1.0,-235.0,-68.0,145.0,1.0,120.0,-18.0,-972.0,-280.0
3.0,-237.0,-71.0,149.0,0.0,131.0,-6.0,-972.0,-276.0
4.0,-238.0,-67.0,155.0,0.0,140.0,4.0,-975.0,-274.0
9.0,-243.0,-68.0,170.0,6.0,148.0,19.0,-978.0,-278.0
14.0,-240.0,-69.0,183.0,11.0,153.0,32.0,-977.0,-274.0
16.0,-235.0,-71.0,190.0,22.0,155.0,40.0,-973.0,-266.0
12.0,-233.0,-68.0,195.0,31.0,155.0,48.0,-964.0,-277.0
14.0,-233.0,-66.0,198.0,38.0,155.0,39.0,-955.0,-262.0
15.0,-229.0,-67.0,198.0,48.0,157.0,38.0,-943.0,-262.0
11.0,-227.0,-65.0,198.0,58.0,155.0,39.0,-942.0,-260.0
13.0,-223.0,-64.0,200.0,68.0,152.0,28.0,-930.0,-264.0
9.0,-227.0,-71.0,201.0,79.0,147.0,28.0,-933.0,-266.0
6.0,-222.0,-71.0,197.0,91.0,145.0,17.0,-930.0,-273.0
10.0,-224.0,-69.0,186.0,100.0,150.0,14.0,-929.0,-282.0
8.0,-223.0,-73.0,174.0,104.0,153.0,17.0,-930.0,-286.0
6.0,-225.0,-72.0,159.0,110.0,154.0,19.0,-933.0,-279.0
7.0,-225.0,-73.0,149.0,117.0,154.0,18.0,-938.0,-288.0
8.0,-227.0,-73.0,138.0,126.0,155.0,19.0,-936.0,-286.0
11.0,-229.0,-73.0,128.0,138.0,161.0,24.0,-940.0,-288.0
12.0,-229.0,-72.0,123.0,150.0,171.0,30.0,-945.0,-287.0
14.0,-235.0,-74.0,126.0,161.0,184.0,34.0,-948.0,-281.0
12.0,-234.0,-64.0,138.0,169.0,196.0,34.0,-956.0,-270.0
15.0,-233.0,-69.0,157.0,180.0,206.0,41.0,-951.0,-262.0
15.0,-231.0,-70.0,179.0,192.0,215.0,42.0,-950.0,-268.0
14.0,-228.0,-66.0,198.0,204.0,224.0,50.0,-950.0,-258.0
17.0,-228.0,-71.0,218.0,208.0,226.0,40.0,-943.0,-282.0
18.0,-228.0,-73.0,229.0,214.0,238.0,52.0,-941.0,-282.0
13.0,-227.0,-71.0,238.0,226.0,245.0,39.0,-939.0,-282.0
9.0,-227.0,-70.0,258.0,228.0,247.0,28.0,-936.0,-279.0
8.0,-222.0,-75.0,285.0,227.0,248.0,11.0,-915.0,-284.0
3.0,-218.0,-79.0,312.0,227.0,250.0,-3.0,-907.0,-293.0
1.0,-215.0,-76.0,333.0,227.0,254.0,-21.0,-884.0,-305.0
-5.0,-211.0,-78.0,338.0,233.0,252.0,-48.0,-875.0,-297.0
-17.0,-208.0,-70.0,322.0,233.0,242.0,-69.0,-864.0,-282.0
-18.0,-208.0,-67.0,294.0,219.0,230.0,-91.0,-870.0,-270.0
-22.0,-209.0,-68.0,258.0,187.0,219.0,-104.0,-868.0,-268.0
-25.0,-207.0,-70.0,222.0,161.0,215.0,-102.0,-863.0,-281.0
-25.0,-213.0,-70.0,183.0,145.0,214.0,-102.0,-895.0,-286.0
-22.0,-218.0,-67.0,144.0,127.0,209.0,-104.0,-899.0,-282.0
-23.0,-221.0,-71.0,126.0,100.0,207.0,-104.0,-908.0,-286.0
-21.0,-220.0,-77.0,113.0,70.0,211.0,-99.0,-907.0,-294.0
-18.0,-219.0,-75.0,108.0,42.0,220.0,-90.0,-907.0,-297.0
-13.0,-219.0,-76.0,110.0,25.0,230.0,-64.0,-906.0,-294.0
-10.0,-216.0,-70.0,111.0,20.0,238.0,-51.0,-909.0,-284.0
-3.0,-218.0,-70.0,110.0,19.0,249.0,-43.0,-913.0,-272.0
0.0,-223.0,-65.0,116.0,19.0,258.0,-24.0,-910.0,-269.0
2.0,-221.0,-68.0,133.0,17.0,268.0,-8.0,-907.0,-271.0
11.0,-222.0,-69.0,161.0,20.0,277.0,18.0,-909.0,-284.0
15.0,-214.0,-74.0,199.0,36.0,285.0,44.0,-889.0,-294.0
19.0,-214.0,-78.0,231.0,62.0,290.0,61.0,-877.0,-304.0
21.0,-212.0,-77.0,256.0,84.0,298.0,79.0,-867.0,-300.0
24.0,-207.0,-78.0,275.0,99.0,305.0,86.0,-855.0,-325.0
26.0,-204.0,-80.0,289.0,111.0,311.0,90.0,-834.0,-324.0
28.0,-200.0,-81.0,294.0,123.0,316.0,83.0,-821.0,-328.0
23.0,-198.0,-72.0,284.0,142.0,319.0,71.0,-814.0,-297.0
17.0,-195.0,-69.0,265.0,164.0,322.0,50.0,-810.0,-254.0
10.0,-197.0,-63.0,254.0,185.0,316.0,16.0,-810.0,-233.0
1.0,-197.0,-54.0,247.0,195.0,319.0,-9.0,-817.0,-222.0
-1.0,-198.0,-55.0,244.0,194.0,318.0,-26.0,-818.0,-215.0
-8.0,-201.0,-56.0,241.0,196.0,313.0,-48.0,-831.0,-215.0
-7.0,-207.0,-62.0,226.0,202.0,308.0,-67.0,-843.0,-235.0
-17.0,-207.0,-63.0,203.0,209.0,303.0,-89.0,-857.0,-239.0
-21.0,-211.0,-61.0,179.0,220.0,300.0,-91.0,-882.0,-242.0
-18.0,-222.0,-56.0,164.0,229.0,295.0,-93.0,-898.0,-228.0
-12.0,-220.0,-48.0,157.0,231.0,288.0,-86.0,-919.0,-215.0
-12.0,-226.0,-51.0,160.0,228.0,279.0,-71.0,-934.0,-194.0
-6.0,-233.0,-48.0,166.0,225.0,271.0,-59.0,-945.0,-175.0
-5.0,-229.0,-43.0,188.0,220.0,266.0,-38.0,-948.0,-161.0
5.0,-233.0,-52.0,220.0,211.0,271.0,-19.0,-956.0,-198.0
6.0,-224.0,-55.0,245.0,210.0,276.0,7.0,-909.0,-195.0
8.0,-220.0,-62.0,294.0,220.0,287.0,20.0,-903.0,-231.0
18.0,-215.0,-64.0,342.0,236.0,305.0,48.0,-880.0,-240.0
23.0,-203.0,-62.0,380.0,254.0,313.0,65.0,-845.0,-244.0
27.0,-194.0,-64.0,391.0,280.0,310.0,70.0,-809.0,-236.0
26.0,-193.0,-62.0,374.0,315.0,303.0,79.0,-802.0,-230.0
21.0,-200.0,-73.0,305.0,351.0,283.0,65.0,-852.0,-286.0
28.0,-163.0,-20.0,162.0,388.0,247.0,85.0,-651.0,-81.0
20.0,-182.0,-45.0,179.0,412.0,219.0,55.0,-762.0,-176.0
15.0,-187.0,-49.0,138.0,447.0,208.0,32.0,-779.0,-170.0
9.0,-191.0,-45.0,69.0,493.0,194.0,10.0,-796.0,-166.0
4.0,-198.0,-47.0,9.0,506.0,190.0,-1.0,-820.0,-165.0
9.0,-208.0,-54.0,-39.0,503.0,197.0,17.0,-864.0,-194.0
6.0,-218.0,-60.0,-73.0,512.0,212.0,5.0,-893.0,-225.0
4.0,-227.0,-64.0,-81.0,520.0,233.0,4.0,-931.0,-235.0
2.0,-227.0,-64.0,-74.0,524.0,241.0,3.0,-947.0,-238.0
6.0,-232.0,-72.0,-61.0,521.0,243.0,4.0,-956.0,-272.0
2.0,-235.0,-78.0,-50.0,521.0,248.0,-3.0,-960.0,-289.0
3.0,-231.0,-79.0,-51.0,519.0,249.0,-3.0,-956.0,-301.0
0.0,-229.0,-71.0,-66.0,514.0,244.0,-13.0,-950.0,-291.0
1.0,-226.0,-64.0,-82.0,516.0,241.0,-14.0,-936.0,-239.0
2.0,-227.0,-55.0,-96.0,527.0,240.0,-3.0,-933.0,-183.0
0.0,-223.0,-37.0,-89.0,547.0,242.0,-13.0,-916.0,-146.0
0.0,-221.0,-38.0,-59.0,561.0,250.0,-13.0,-900.0,-126.0
-8.0,-215.0,-39.0,-19.0,555.0,267.0,-34.0,-873.0,-147.0
1.0,-211.0,-47.0,23.0,539.0,289.0,2.0,-863.0,-191.0
5.0,-210.0,-60.0,42.0,530.0,302.0,9.0,-889.0,-231.0
19.0,-199.0,-52.0,-12.0,527.0,304.0,47.0,-811.0,-193.0
0.0,-171.0,-49.0,-29.0,552.0,280.0,-19.0,-778.0,-167.0
3.0,-195.0,-50.0,34.0,563.0,335.0,15.0,-805.0,-184.0
10.0,-198.0,-51.0,18.0,542.0,365.0,23.0,-818.0,-176.0
8.0,-199.0,-41.0,-6.0,519.0,374.0,20.0,-832.0,-156.0
19.0,-205.0,-44.0,-23.0,497.0,386.0,34.0,-832.0,-161.0
19.0,-209.0,-44.0,-45.0,484.0,384.0,48.0,-863.0,-150.0
18.0,-215.0,-42.0,-56.0,482.0,369.0,43.0,-890.0,-152.0
15.0,-224.0,-38.0,-50.0,487.0,359.0,32.0,-914.0,-150.0
4.0,-238.0,-54.0,-35.0,492.0,360.0,3.0,-953.0,-164.0
15.0,-220.0,-24.0,-70.0,489.0,369.0,42.0,-896.0,-123.0
-5.0,-223.0,-42.0,25.0,499.0,336.0,-8.0,-918.0,-138.0
-18.0,-218.0,-44.0,105.0,497.0,314.0,-84.0,-903.0,-170.0
-31.0,-211.0,-48.0,142.0,478.0,320.0,-128.0,-873.0,-175.0
-41.0,-202.0,-34.0,160.0,447.0,346.0,-176.0,-829.0,-139.0
-46.0,-192.0,-39.0,171.0,394.0,397.0,-191.0,-796.0,-153.0
-42.0,-199.0,-47.0,155.0,338.0,436.0,-171.0,-850.0,-200.0
-29.0,-165.0,-17.0,101.0,285.0,454.0,-142.0,-657.0,-71.0
-33.0,-166.0,-37.0,155.0,258.0,468.0,-130.0,-705.0,-139.0
-25.0,-173.0,-30.0,154.0,216.0,489.0,-116.0,-714.0,-140.0
-9.0,-180.0,-33.0,117.0,181.0,505.0,-62.0,-736.0,-135.0
-7.0,-157.0,-34.0,106.0,154.0,503.0,-42.0,-642.0,-116.0
-2.0,-172.0,-46.0,146.0,129.0,520.0,-23.0,-727.0,-178.0
1.0,-180.0,-48.0,137.0,101.0,526.0,-7.0,-741.0,-165.0
6.0,-180.0,-45.0,130.0,78.0,524.0,2.0,-757.0,-162.0
16.0,-181.0,-36.0,99.0,62.0,514.0,51.0,-768.0,-160.0
15.0,-175.0,-41.0,101.0,52.0,491.0,27.0,-708.0,-147.0
1.0,-179.0,-46.0,139.0,39.0,475.0,-11.0,-730.0,-155.0
-7.0,-180.0,-38.0,145.0,13.0,471.0,-33.0,-742.0,-147.0
-8.0,-175.0,-31.0,153.0,-24.0,470.0,-44.0,-724.0,-114.0
-6.0,-201.0,-53.0,168.0,-69.0,476.0,-23.0,-756.0,-134.0
12.0,-164.0,-16.0,159.0,-96.0,474.0,23.0,-655.0,-78.0
6.0,-161.0,-34.0,222.0,-123.0,471.0,4.0,-662.0,-130.0
10.0,-162.0,-29.0,250.0,-159.0,477.0,16.0,-698.0,-127.0
9.0,-163.0,-29.0,278.0,-195.0,484.0,27.0,-660.0,-116.0
16.0,-176.0,-30.0,316.0,-226.0,499.0,26.0,-718.0,-93.0
14.0,-179.0,-16.0,354.0,-250.0,519.0,44.0,-748.0,-56.0
19.0,-190.0,-4.0,409.0,-262.0,538.0,40.0,-761.0,-24.0
17.0,-191.0,-5.0,476.0,-267.0,568.0,43.0,-764.0,6.0
18.0,-185.0,6.0,542.0,-271.0,600.0,44.0,-756.0,29.0
21.0,-174.0,3.0,606.0,-275.0,640.0,38.0,-733.0,29.0
9.0,-170.0,3.0,643.0,-285.0,689.0,12.0,-704.0,19.0
2.0,-167.0,1.0,663.0,-319.0,747.0,0.0,-688.0,8.0
-5.0,-155.0,5.0,661.0,-367.0,809.0,-34.0,-636.0,24.0
-8.0,-147.0,-2.0,673.0,-415.0,875.0,-59.0,-598.0,-9.0
-13.0,-148.0,2.0,689.0,-460.0,941.0,-70.0,-615.0,0.0
-16.0,-142.0,1.0,693.0,-504.0,1009.0,-81.0,-595.0,5.0
-18.0,-136.0,3.0,693.0,-548.0,1079.0,-97.0,-583.0,12.0
-20.0,-137.0,6.0,694.0,-592.0,1154.0,-101.0,-573.0,22.0
-20.0,-133.0,2.0,686.0,-636.0,1230.0,-102.0,-568.0,21.0
-19.0,-133.0,3.0,673.0,-680.0,1303.0,-103.0,-568.0,15.0
-22.0,-134.0,1.0,658.0,-713.0,1373.0,-104.0,-572.0,14.0
-18.0,-138.0,3.0,643.0,-728.0,1444.0,-104.0,-573.0,19.0
-14.0,-144.0,1.0,627.0,-734.0,1515.0,-107.0,-575.0,10.0
-33.0,-128.0,-4.0,602.0,-757.0,1581.0,-145.0,-549.0,7.0
-25.0,-132.0,-12.0,593.0,-763.0,1663.0,-131.0,-556.0,-41.0
-12.0,-143.0,-21.0,576.0,-761.0,1752.0,-97.0,-589.0,-75.0
-32.0,-128.0,-23.0,523.0,-784.0,1826.0,-164.0,-533.0,-83.0
-34.0,-132.0,-30.0,484.0,-784.0,1942.0,-155.0,-556.0,-112.0
-57.0,-122.0,-34.0,423.0,-795.0,2020.0,-235.0,-511.0,-134.0
-55.0,-119.0,-44.0,354.0,-823.0,2119.0,-227.0,-513.0,-161.0
-39.0,-130.0,-34.0,273.0,-850.0,2228.0,-175.0,-560.0,-123.0
-52.0,-119.0,-12.0,148.0,-860.0,2314.0,-235.0,-516.0,-39.0
-49.0,-133.0,5.0,55.0,-857.0,2396.0,-216.0,-579.0,28.0
-58.0,-137.0,27.0,-12.0,-895.0,2438.0,-228.0,-579.0,100.0
-65.0,-141.0,27.0,-19.0,-975.0,2447.0,-263.0,-578.0,105.0
-63.0,-145.0,19.0,-6.0,-1062.0,2433.0,-270.0,-596.0,74.0
-67.0,-148.0,16.0,2.0,-1129.0,2392.0,-292.0,-632.0,67.0
-66.0,-166.0,19.0,0.0,-1178.0,2364.0,-285.0,-670.0,62.0
-69.0,-171.0,21.0,23.0,-1210.0,2327.0,-303.0,-706.0,69.0
-80.0,-182.0,22.0,91.0,-1236.0,2279.0,-337.0,-735.0,100.0
-91.0,-187.0,23.0,202.0,-1275.0,2220.0,-387.0,-744.0,96.0
-95.0,-189.0,13.0,312.0,-1332.0,2169.0,-408.0,-754.0,60.0
-105.0,-185.0,9.0,390.0,-1369.0,2122.0,-409.0,-772.0,51.0
-113.0,-191.0,22.0,456.0,-1391.0,2074.0,-469.0,-768.0,87.0
-119.0,-190.0,24.0,521.0,-1429.0,2044.0,-491.0,-783.0,98.0
-131.0,-191.0,28.0,592.0,-1464.0,2011.0,-538.0,-777.0,125.0
-140.0,-193.0,27.0,665.0,-1511.0,1995.0,-591.0,-787.0,103.0
-141.0,-193.0,19.0,729.0,-1560.0,1983.0,-593.0,-799.0,87.0
-137.0,-198.0,15.0,783.0,-1603.0,1961.0,-575.0,-812.0,59.0
-133.0,-191.0,12.0,823.0,-1637.0,1918.0,-558.0,-784.0,55.0
-125.0,-193.0,4.0,870.0,-1656.0,1884.0,-524.0,-793.0,28.0
-116.0,-194.0,12.0,911.0,-1684.0,1839.0,-478.0,-801.0,44.0
-100.0,-190.0,12.0,947.0,-1738.0,1787.0,-425.0,-788.0,44.0
-86.0,-184.0,11.0,976.0,-1797.0,1729.0,-366.0,-759.0,43.0
-76.0,-178.0,2.0,979.0,-1832.0,1676.0,-338.0,-757.0,19.0
-68.0,-188.0,-1.0,948.0,-1857.0,1615.0,-308.0,-779.0,1.0
-62.0,-189.0,-2.0,892.0,-1891.0,1546.0,-289.0,-777.0,0.0
-36.0,-223.0,-9.0,844.0,-1906.0,1478.0,-165.0,-844.0,17.0
-6.0,-232.0,19.0,848.0,-1893.0,1380.0,-53.0,-940.0,85.0
0.0,-243.0,29.0,921.0,-1871.0,1273.0,-29.0,-979.0,126.0
-33.0,-244.0,25.0,991.0,-1841.0,1127.0,-130.0,-999.0,106.0
-63.0,-243.0,22.0,1022.0,-1827.0,954.0,-255.0,-985.0,90.0
-73.0,-237.0,15.0,1055.0,-1853.0,830.0,-315.0,-975.0,75.0
-42.0,-274.0,4.0,1070.0,-1871.0,754.0,-212.0,-1119.0,9.0
-98.0,-282.0,22.0,1083.0,-1798.0,641.0,-405.0,-1131.0,93.0
-136.0,-307.0,43.0,1182.0,-1733.0,596.0,-523.0,-1216.0,171.0
-227.0,-329.0,71.0,1364.0,-1646.0,570.0,-871.0,-1326.0,309.0
-325.0,-338.0,105.0,1648.0,-1561.0,596.0,-1434.0,-1367.0,454.0
-472.0,-360.0,115.0,1986.0,-1483.0,658.0,-2027.0,-1426.0,491.0
-650.0,-355.0,98.0,2296.0,-1454.0,745.0,-2652.0,-1454.0,405.0
-779.0,-353.0,57.0,2559.0,-1476.0,851.0,-3127.0,-1453.0,243.0
-930.0,-320.0,62.0,2690.0,-1626.0,956.0,-3721.0,-1367.0,255.0
-1055.0,-300.0,99.0,2704.0,-1772.0,1023.0,-4270.0,-1266.0,407.0
-1158.0,-355.0,185.0,2663.0,-1865.0,1260.0,-4680.0,-1508.0,758.0
-1199.0,-501.0,258.0,2613.0,-2057.0,1697.0,-4826.0,-2045.0,1060.0
-1164.0,-631.0,302.0,2613.0,-2265.0,2079.0,-4721.0,-2572.0,1198.0
-1213.0,-675.0,250.0,2652.0,-2448.0,2274.0,-4877.0,-2782.0,1110.0
-1211.0,-635.0,193.0,2682.0,-2405.0,2529.0,-4958.0,-2641.0,818.0
-1148.0,-480.0,111.0,2627.0,-1946.0,2870.0,-4758.0,-2027.0,496.0
-1042.0,-326.0,72.0,2530.0,-1339.0,3254.0,-4360.0,-1430.0,277.0
-667.0,-174.0,98.0,2440.0,-694.0,3420.0,-2911.0,-879.0,378.0
-488.0,-68.0,111.0,2290.0,-379.0,3266.0,-2005.0,-333.0,446.0
-301.0,28.0,146.0,2019.0,-138.0,3071.0,-1332.0,13.0,579.0
-231.0,41.0,188.0,1597.0,214.0,2952.0,-1048.0,73.0,753.0
-204.0,52.0,252.0,1058.0,601.0,2956.0,-875.0,116.0,973.0
-227.0,10.0,296.0,533.0,755.0,3095.0,-985.0,-5.0,1145.0
-216.0,-40.0,339.0,101.0,791.0,3340.0,-943.0,-206.0,1422.0
-180.0,-123.0,389.0,-113.0,785.0,3588.0,-765.0,-536.0,1577.0
-146.0,-193.0,359.0,-63.0,738.0,3698.0,-618.0,-791.0,1477.0
-109.0,-249.0,307.0,157.0,521.0,3739.0,-436.0,-991.0,1268.0
-42.0,-290.0,266.0,461.0,195.0,3713.0,-195.0,-1128.0,1106.0
16.0,-324.0,235.0,843.0,-69.0,3605.0,45.0,-1288.0,959.0
82.0,-326.0,167.0,1355.0,-129.0,3400.0,274.0,-1285.0,693.0
88.0,-307.0,114.0,1754.0,-20.0,3107.0,269.0,-1217.0,493.0
149.0,-252.0,113.0,2073.0,276.0,2767.0,517.0,-1027.0,481.0
146.0,-171.0,144.0,2345.0,486.0,2434.0,647.0,-711.0,636.0
111.0,-134.0,109.0,2572.0,603.0,2243.0,358.0,-541.0,467.0
115.0,-80.0,80.0,2620.0,786.0,2150.0,386.0,-352.0,353.0
102.0,-41.0,66.0,2585.0,931.0,2022.0,358.0,-189.0,287.0
77.0,6.0,70.0,2537.0,1035.0,1877.0,287.0,-14.0,285.0
39.0,49.0,57.0,2505.0,1104.0,1775.0,144.0,138.0,258.0
1.0,69.0,26.0,2436.0,1148.0,1723.0,-31.0,221.0,94.0
-56.0,95.0,4.0,2264.0,1172.0,1679.0,-225.0,315.0,22.0
-124.0,102.0,1.0,2036.0,1160.0,1713.0,-502.0,344.0,-16.0
-155.0,94.0,18.0,1782.0,1134.0,1784.0,-631.0,328.0,33.0
-186.0,86.0,47.0,1577.0,1072.0,1806.0,-754.0,308.0,167.0
-217.0,75.0,71.0,1484.0,996.0,1815.0,-879.0,283.0,277.0
-231.0,69.0,92.0,1494.0,902.0,1832.0,-954.0,258.0,383.0
-239.0,64.0,107.0,1559.0,804.0,1854.0,-1001.0,229.0,432.0
-249.0,61.0,107.0,1645.0,740.0,1887.0,-1037.0,221.0,451.0
-256.0,61.0,116.0,1756.0,702.0,1938.0,-1080.0,233.0,482.0
-258.0,69.0,124.0,1883.0,664.0,2008.0,-1083.0,254.0,488.0
-260.0,76.0,117.0,1986.0,613.0,2079.0,-1042.0,285.0,458.0
-254.0,81.0,100.0,2048.0,551.0,2127.0,-1061.0,294.0,414.0
-234.0,83.0,95.0,2088.0,492.0,2172.0,-977.0,310.0,377.0
-228.0,78.0,87.0,2126.0,470.0,2195.0,-977.0,299.0,343.0
-247.0,84.0,83.0,2171.0,536.0,2168.0,-1040.0,311.0,329.0
-262.0,91.0,95.0,2207.0,604.0,2116.0,-1111.0,346.0,372.0
-267.0,104.0,107.0,2222.0,608.0,2047.0,-1110.0,380.0,420.0
-287.0,107.0,98.0,2232.0,563.0,1967.0,-1190.0,388.0,397.0
-289.0,109.0,89.0,2220.0,543.0,1873.0,-1208.0,409.0,348.0
-290.0,128.0,84.0,2217.0,522.0,1772.0,-1206.0,485.0,333.0
-276.0,157.0,71.0,2261.0,474.0,1682.0,-1168.0,596.0,297.0
-278.0,177.0,43.0,2256.0,406.0,1626.0,-1136.0,599.0,161.0
-278.0,233.0,56.0,2120.0,366.0,1564.0,-1185.0,871.0,202.0
-290.0,251.0,19.0,2102.0,400.0,1370.0,-1214.0,961.0,81.0
-300.0,256.0,5.0,1989.0,456.0,1125.0,-1265.0,978.0,3.0
-310.0,261.0,-8.0,1760.0,552.0,886.0,-1255.0,973.0,-44.0
-321.0,261.0,-13.0,1540.0,685.0,597.0,-1348.0,1008.0,-82.0
-334.0,254.0,-15.0,1353.0,830.0,339.0,-1387.0,975.0,-77.0
-342.0,240.0,-17.0,1230.0,937.0,99.0,-1412.0,927.0,-89.0
-341.0,222.0,-24.0,1167.0,981.0,-129.0,-1399.0,861.0,-99.0
-332.0,218.0,-31.0,914.0,1168.0,-334.0,-1202.0,920.0,-188.0
-327.0,195.0,-1.0,646.0,1307.0,-488.0,-1300.0,758.0,-94.0
-317.0,185.0,19.0,388.0,1273.0,-586.0,-1279.0,677.0,74.0
-306.0,161.0,74.0,151.0,1117.0,-648.0,-1211.0,591.0,306.0
-282.0,128.0,124.0,-38.0,870.0,-669.0,-1121.0,467.0,481.0
-243.0,90.0,139.0,-142.0,563.0,-656.0,-976.0,349.0,551.0
-204.0,62.0,134.0,-170.0,263.0,-626.0,-858.0,245.0,534.0
-170.0,49.0,119.0,-148.0,41.0,-569.0,-720.0,166.0,479.0
-148.0,38.0,107.0,-106.0,-72.0,-507.0,-624.0,123.0,421.0
-128.0,31.0,92.0,-58.0,-98.0,-438.0,-574.0,112.0,374.0
-123.0,30.0,75.0,-4.0,-82.0,-365.0,-537.0,102.0,315.0
-123.0,28.0,61.0,52.0,-47.0,-302.0,-538.0,99.0,243.0
-117.0,27.0,52.0,112.0,-2.0,-255.0,-520.0,101.0,194.0
-114.0,38.0,42.0,193.0,52.0,-219.0,-497.0,139.0,173.0
-112.0,51.0,42.0,297.0,113.0,-190.0,-483.0,173.0,160.0
-119.0,67.0,42.0,410.0,176.0,-173.0,-513.0,239.0,159.0
-123.0,79.0,46.0,528.0,227.0,-151.0,-517.0,302.0,174.0
-133.0,91.0,43.0,642.0,259.0,-131.0,-568.0,380.0,159.0
-142.0,111.0,39.0,739.0,263.0,-122.0,-613.0,431.0,140.0
-155.0,125.0,31.0,819.0,252.0,-117.0,-661.0,481.0,105.0
-172.0,131.0,21.0,875.0,238.0,-103.0,-724.0,511.0,73.0
-188.0,141.0,22.0,906.0,234.0,-89.0,-797.0,551.0,81.0
-195.0,151.0,23.0,913.0,199.0,-66.0,-822.0,577.0,87.0
-192.0,159.0,26.0,887.0,134.0,-65.0,-812.0,606.0,87.0
-202.0,174.0,31.0,840.0,58.0,-72.0,-842.0,660.0,100.0
-218.0,177.0,44.0,777.0,3.0,-72.0,-913.0,676.0,138.0
-226.0,182.0,50.0,689.0,-31.0,-71.0,-956.0,676.0,182.0
-231.0,173.0,59.0,586.0,-57.0,-72.0,-965.0,662.0,216.0
-234.0,161.0,53.0,491.0,-83.0,-73.0,-980.0,620.0,196.0
-235.0,151.0,42.0,404.0,-117.0,-74.0,-979.0,575.0,153.0
-241.0,139.0,31.0,332.0,-145.0,-67.0,-994.0,552.0,112.0
-246.0,135.0,23.0,275.0,-160.0,-51.0,-1019.0,519.0,89.0
-245.0,127.0,20.0,229.0,-163.0,-43.0,-1008.0,486.0,77.0
-260.0,127.0,26.0,209.0,-161.0,-52.0,-1087.0,478.0,82.0
-267.0,126.0,30.0,209.0,-169.0,-46.0,-1116.0,475.0,99.0
-278.0,125.0,30.0,208.0,-198.0,-36.0,-1134.0,469.0,105.0
-285.0,123.0,34.0,209.0,-237.0,-24.0,-1185.0,470.0,125.0
-297.0,126.0,41.0,207.0,-279.0,-17.0,-1213.0,462.0,135.0
-301.0,125.0,34.0,208.0,-327.0,-19.0,-1220.0,477.0,145.0
-299.0,127.0,28.0,213.0,-365.0,-23.0,-1233.0,469.0,97.0
-306.0,126.0,21.0,216.0,-372.0,-31.0,-1252.0,477.0,64.0
-310.0,125.0,17.0,205.0,-358.0,-37.0,-1270.0,469.0,55.0
-318.0,127.0,19.0,188.0,-337.0,-56.0,-1309.0,475.0,58.0
-316.0,127.0,24.0,167.0,-312.0,-67.0,-1306.0,470.0,75.0
-311.0,124.0,30.0,143.0,-287.0,-77.0,-1303.0,472.0,103.0
-302.0,120.0,31.0,106.0,-262.0,-83.0,-1256.0,445.0,112.0
-295.0,115.0,36.0,53.0,-230.0,-99.0,-1211.0,430.0,123.0
-289.0,105.0,43.0,-12.0,-190.0,-111.0,-1198.0,384.0,141.0
-278.0,94.0,45.0,-64.0,-166.0,-121.0,-1164.0,348.0,169.0
-281.0,85.0,49.0,-99.0,-149.0,-131.0,-1166.0,311.0,164.0
-271.0,74.0,48.0,-121.0,-141.0,-114.0,-1139.0,278.0,186.0
-264.0,69.0,54.0,-124.0,-134.0,-96.0,-1120.0,257.0,204.0
-258.0,63.0,58.0,-109.0,-124.0,-65.0,-1088.0,228.0,209.0
-252.0,66.0,55.0,-85.0,-122.0,-38.0,-1045.0,222.0,216.0
-245.0,63.0,55.0,-61.0,-120.0,-18.0,-1021.0,221.0,219.0
-238.0,63.0,62.0,-34.0,-118.0,3.0,-995.0,214.0,223.0
-231.0,60.0,58.0,-8.0,-124.0,18.0,-969.0,221.0,226.0
-223.0,64.0,64.0,18.0,-129.0,28.0,-950.0,221.0,237.0
-221.0,65.0,66.0,44.0,-136.0,30.0,-936.0,228.0,240.0
-217.0,67.0,60.0,69.0,-148.0,20.0,-916.0,245.0,244.0
-216.0,70.0,62.0,93.0,-162.0,8.0,-913.0,255.0,251.0
-217.0,74.0,65.0,110.0,-173.0,-11.0,-914.0,275.0,248.0
-221.0,80.0,65.0,128.0,-183.0,-36.0,-915.0,298.0,253.0
-221.0,83.0,66.0,143.0,-193.0,-63.0,-932.0,317.0,260.0
-223.0,88.0,68.0,150.0,-203.0,-95.0,-936.0,336.0,265.0
-221.0,96.0,69.0,141.0,-214.0,-130.0,-926.0,351.0,277.0
-220.0,99.0,75.0,113.0,-210.0,-169.0,-932.0,366.0,304.0
-216.0,101.0,82.0,67.0,-195.0,-218.0,-924.0,363.0,329.0
-220.0,100.0,86.0,11.0,-174.0,-273.0,-920.0,367.0,354.0
-217.0,95.0,82.0,-43.0,-156.0,-332.0,-915.0,351.0,323.0
-215.0,92.0,74.0,-86.0,-145.0,-380.0,-909.0,335.0,292.0
-208.0,83.0,65.0,-129.0,-121.0,-414.0,-899.0,313.0,260.0
-212.0,79.0,64.0,-178.0,-90.0,-431.0,-895.0,285.0,257.0
-217.0,75.0,65.0,-229.0,-65.0,-439.0,-900.0,267.0,252.0
-217.0,73.0,63.0,-282.0,-51.0,-448.0,-900.0,247.0,251.0
-217.0,63.0,66.0,-331.0,-34.0,-447.0,-916.0,222.0,260.0
-213.0,56.0,68.0,-369.0,-29.0,-445.0,-904.0,195.0,254.0
-214.0,50.0,70.0,-395.0,-32.0,-446.0,-905.0,174.0,267.0
-210.0,46.0,72.0,-398.0,-41.0,-449.0,-880.0,154.0,263.0
-208.0,43.0,75.0,-391.0,-60.0,-473.0,-880.0,157.0,273.0
-218.0,42.0,65.0,-365.0,-80.0,-521.0,-923.0,144.0,268.0
-225.0,40.0,65.0,-318.0,-97.0,-552.0,-940.0,135.0,252.0
-231.0,38.0,68.0,-282.0,-106.0,-579.0,-971.0,123.0,247.0
-240.0,32.0,65.0,-253.0,-102.0,-587.0,-1003.0,112.0,264.0
-245.0,30.0,67.0,-217.0,-95.0,-577.0,-1026.0,96.0,275.0
-253.0,27.0,73.0,-158.0,-98.0,-560.0,-1044.0,88.0,296.0
-250.0,24.0,76.0,-103.0,-106.0,-548.0,-1049.0,88.0,306.0
-245.0,26.0,75.0,-56.0,-112.0,-537.0,-1037.0,87.0,300.0
-248.0,35.0,74.0,-19.0,-113.0,-528.0,-1027.0,96.0,291.0
-245.0,36.0,70.0,8.0,-119.0,-520.0,-1014.0,103.0,284.0
-249.0,42.0,70.0,7.0,-123.0,-520.0,-1046.0,136.0,277.0
-248.0,42.0,69.0,7.0,-119.0,-510.0,-1049.0,141.0,280.0
-250.0,41.0,68.0,-8.0,-124.0,-498.0,-1053.0,143.0,265.0
-249.0,45.0,67.0,-30.0,-130.0,-485.0,-1041.0,143.0,264.0
-253.0,41.0,67.0,-52.0,-121.0,-470.0,-1050.0,135.0,265.0
-250.0,36.0,64.0,-67.0,-109.0,-452.0,-1041.0,123.0,268.0
-251.0,37.0,68.0,-78.0,-93.0,-435.0,-1046.0,116.0,269.0
-253.0,32.0,72.0,-79.0,-73.0,-420.0,-1055.0,113.0,271.0
-254.0,33.0,74.0,-77.0,-56.0,-405.0,-1077.0,118.0,283.0
-256.0,31.0,69.0,-67.0,-46.0,-392.0,-1081.0,113.0,280.0
-259.0,34.0,73.0,-54.0,-38.0,-381.0,-1082.0,116.0,287.0
-257.0,36.0,69.0,-39.0,-44.0,-365.0,-1084.0,111.0,286.0
-252.0,35.0,72.0,-30.0,-45.0,-345.0,-1061.0,117.0,280.0
-250.0,39.0,73.0,-31.0,-47.0,-327.0,-1050.0,114.0,264.0
-250.0,35.0,67.0,-40.0,-48.0,-305.0,-1041.0,114.0,259.0
-255.0,36.0,63.0,-52.0,-51.0,-290.0,-1047.0,121.0,252.0
-253.0,37.0,65.0,-69.0,-58.0,-271.0,-1045.0,118.0,248.0
-249.0,38.0,66.0,-90.0,-66.0,-249.0,-1040.0,107.0,256.0
-248.0,35.0,64.0,-106.0,-76.0,-233.0,-1035.0,119.0,263.0
-248.0,34.0,68.0,-115.0,-84.0,-217.0,-1028.0,110.0,271.0
-249.0,37.0,71.0,-116.0,-96.0,-201.0,-1029.0,113.0,282.0
-243.0,31.0,72.0,-112.0,-112.0,-190.0,-1021.0,104.0,283.0
-246.0,31.0,69.0,-109.0,-123.0,-182.0,-1017.0,104.0,277.0
-245.0,30.0,68.0,-108.0,-134.0,-176.0,-1007.0,99.0,271.0
-241.0,30.0,67.0,-106.0,-140.0,-173.0,-1000.0,94.0,272.0
-232.0,31.0,71.0,-107.0,-136.0,-177.0,-978.0,97.0,264.0
-233.0,32.0,68.0,-108.0,-113.0,-180.0,-984.0,97.0,281.0
-234.0,30.0,69.0,-120.0,-102.0,-183.0,-985.0,105.0,274.0
-243.0,30.0,74.0,-120.0,-86.0,-190.0,-1018.0,93.0,283.0
-250.0,29.0,69.0,-105.0,-76.0,-178.0,-1026.0,87.0,278.0
-247.0,25.0,66.0,-97.0,-89.0,-167.0,-1026.0,83.0,263.0
-249.0,31.0,67.0,-90.0,-92.0,-152.0,-1030.0,95.0,262.0
-249.0,30.0,70.0,-91.0,-89.0,-134.0,-1042.0,94.0,278.0
-248.0,35.0,69.0,-95.0,-87.0,-119.0,-1042.0,109.0,294.0
-252.0,34.0,72.0,-94.0,-94.0,-106.0,-1042.0,110.0,290.0
-251.0,33.0,73.0,-93.0,-104.0,-96.0,-1042.0,103.0,296.0
-248.0,28.0,72.0,-96.0,-111.0,-87.0,-1026.0,96.0,290.0
-245.0,26.0,77.0,-98.0,-120.0,-77.0,-1016.0,81.0,293.0
-244.0,23.0,71.0,-95.0,-128.0,-73.0,-1005.0,71.0,280.0
-242.0,21.0,77.0,-90.0,-134.0,-76.0,-1006.0,61.0,293.0
-236.0,21.0,78.0,-78.0,-138.0,-75.0,-997.0,60.0,316.0
-234.0,19.0,81.0,-60.0,-133.0,-72.0,-981.0,61.0,327.0
-231.0,21.0,81.0,-34.0,-123.0,-70.0,-976.0,64.0,338.0
-233.0,22.0,86.0,8.0,-113.0,-76.0,-974.0,73.0,355.0
-235.0,26.0,85.0,56.0,-101.0,-87.0,-974.0,84.0,346.0
-236.0,33.0,83.0,103.0,-88.0,-101.0,-978.0,95.0,333.0
-234.0,35.0,77.0,140.0,-71.0,-116.0,-982.0,115.0,314.0
-236.0,38.0,73.0,159.0,-53.0,-132.0,-990.0,125.0,300.0
-240.0,41.0,68.0,170.0,-40.0,-145.0,-1001.0,135.0,290.0
-243.0,43.0,67.0,170.0,-36.0,-157.0,-982.0,128.0,261.0
-245.0,47.0,77.0,137.0,-61.0,-171.0,-1026.0,158.0,299.0
-238.0,47.0,76.0,136.0,-64.0,-165.0,-1006.0,153.0,288.0
-244.0,49.0,76.0,121.0,-58.0,-162.0,-1009.0,155.0,293.0
-243.0,46.0,82.0,90.0,-70.0,-166.0,-1009.0,156.0,318.0
-241.0,47.0,81.0,56.0,-88.0,-164.0,-1005.0,150.0,327.0
-238.0,42.0,86.0,30.0,-102.0,-159.0,-1006.0,144.0,335.0
-237.0,40.0,83.0,9.0,-103.0,-156.0,-1003.0,142.0,342.0
-238.0,38.0,80.0,-3.0,-106.0,-151.0,-987.0,127.0,337.0
-234.0,34.0,83.0,-11.0,-113.0,-146.0,-978.0,111.0,336.0
-232.0,30.0,79.0,-10.0,-120.0,-146.0,-979.0,97.0,316.0
-242.0,39.0,76.0,-2.0,-121.0,-147.0,-978.0,96.0,314.0
-235.0,27.0,75.0,10.0,-120.0,-147.0,-981.0,89.0,314.0
-237.0,26.0,82.0,22.0,-114.0,-143.0,-994.0,78.0,320.0
-238.0,24.0,82.0,32.0,-108.0,-140.0,-997.0,77.0,336.0
-242.0,26.0,89.0,37.0,-104.0,-138.0,-1004.0,73.0,336.0
-243.0,26.0,92.0,43.0,-103.0,-129.0,-1015.0,77.0,364.0
-243.0,23.0,91.0,60.0,-103.0,-121.0,-1010.0,75.0,369.0
-242.0,24.0,91.0,79.0,-103.0,-115.0,-1014.0,83.0,372.0
-246.0,28.0,89.0,89.0,-100.0,-111.0,-1022.0,87.0,369.0
-243.0,32.0,91.0,96.0,-98.0,-101.0,-1020.0,97.0,367.0
-243.0,32.0,96.0,95.0,-92.0,-94.0,-1021.0,96.0,369.0
-245.0,33.0,92.0,86.0,-82.0,-83.0,-1021.0,102.0,367.0
-246.0,35.0,86.0,69.0,-74.0,-78.0,-1021.0,110.0,345.0
-245.0,36.0,82.0,54.0,-70.0,-74.0,-1019.0,102.0,338.0
-242.0,33.0,82.0,41.0,-61.0,-67.0,-1011.0,97.0,324.0
-244.0,32.0,78.0,28.0,-54.0,-63.0,-1009.0,98.0,310.0
-241.0,32.0,76.0,17.0,-49.0,-59.0,-995.0,96.0,301.0
-242.0,32.0,76.0,7.0,-50.0,-59.0,-1006.0,97.0,293.0
-244.0,32.0,76.0,-8.0,-52.0,-54.0,-1012.0,93.0,293.0
-246.0,28.0,77.0,-24.0,-56.0,-51.0,-1019.0,90.0,300.0
-248.0,30.0,77.0,-36.0,-66.0,-46.0,-1019.0,88.0,306.0
-250.0,27.0,80.0,-44.0,-81.0,-40.0,-1023.0,82.0,311.0
-247.0,27.0,81.0,-46.0,-94.0,-31.0,-1028.0,79.0,316.0
-245.0,27.0,84.0,-45.0,-100.0,-24.0,-1026.0,80.0,325.0
-246.0,23.0,80.0,-38.0,-102.0,-20.0,-1017.0,77.0,326.0
-245.0,24.0,83.0,-23.0,-103.0,-19.0,-1017.0,77.0,326.0
-241.0,23.0,78.0,-2.0,-107.0,-22.0,-1010.0,75.0,309.0
-242.0,26.0,76.0,15.0,-107.0,-22.0,-1015.0,81.0,303.0
-245.0,26.0,75.0,26.0,-104.0,-22.0,-1010.0,81.0,304.0
-244.0,26.0,78.0,29.0,-102.0,-21.0,-1014.0,78.0,296.0
-244.0,28.0,75.0,34.0,-102.0,-21.0,-1006.0,80.0,304.0
-240.0,28.0,77.0,36.0,-106.0,-24.0,-1012.0,83.0,307.0
-241.0,26.0,77.0,37.0,-112.0,-24.0,-1001.0,77.0,304.0
-242.0,25.0,75.0,38.0,-112.0,-28.0,-1013.0,80.0,304.0
-242.0,24.0,75.0,42.0,-110.0,-29.0,-1012.0,81.0,305.0
-243.0,28.0,75.0,54.0,-109.0,-34.0,-1013.0,84.0,295.0
-243.0,32.0,74.0,66.0,-112.0,-34.0,-1009.0,80.0,301.0
-244.0,28.0,78.0,72.0,-111.0,-35.0,-1007.0,83.0,301.0
-241.0,29.0,77.0,73.0,-110.0,-32.0,-1013.0,85.0,310.0
-245.0,30.0,81.0,68.0,-104.0,-28.0,-1013.0,83.0,320.0
-243.0,27.0,81.0,63.0,-99.0,-22.0,-1014.0,86.0,334.0
-242.0,24.0,86.0,63.0,-98.0,-15.0,-1012.0,76.0,335.0
-242.0,26.0,87.0,62.0,-94.0,-9.0,-1010.0,80.0,345.0
-240.0,27.0,89.0,62.0,-94.0,-3.0,-1000.0,76.0,357.0
-237.0,24.0,92.0,62.0,-91.0,3.0,-997.0,82.0,368.0
-238.0,28.0,92.0,65.0,-87.0,5.0,-991.0,84.0,378.0
-237.0,30.0,99.0,66.0,-82.0,2.0,-988.0,88.0,379.0
-235.0,27.0,92.0,63.0,-78.0,2.0,-980.0,86.0,382.0
-234.0,28.0,96.0,57.0,-72.0,2.0,-980.0,84.0,388.0
-233.0,26.0,97.0,48.0,-64.0,5.0,-978.0,82.0,380.0
-231.0,22.0,95.0,43.0,-54.0,6.0,-977.0,77.0,380.0
-233.0,27.0,93.0,42.0,-44.0,7.0,-978.0,84.0,373.0
-230.0,24.0,94.0,44.0,-34.0,6.0,-974.0,81.0,374.0
-224.0,28.0,85.0,41.0,-21.0,3.0,-970.0,81.0,364.0
-234.0,30.0,94.0,40.0,-11.0,4.0,-975.0,82.0,372.0
-232.0,29.0,93.0,37.0,-2.0,3.0,-964.0,88.0,361.0
-229.0,31.0,89.0,33.0,2.0,2.0,-967.0,93.0,375.0
-233.0,31.0,93.0,32.0,6.0,-1.0,-962.0,91.0,378.0
-230.0,31.0,97.0,32.0,6.0,-6.0,-970.0,91.0,379.0
-233.0,29.0,94.0,35.0,6.0,-7.0,-975.0,97.0,379.0
-233.0,30.0,96.0,37.0,6.0,-9.0,-977.0,90.0,376.0
-230.0,27.0,92.0,41.0,6.0,-7.0,-983.0,88.0,377.0
-236.0,28.0,92.0,43.0,5.0,-9.0,-982.0,86.0,379.0
-239.0,26.0,94.0,48.0,5.0,-12.0,-988.0,89.0,370.0
-238.0,31.0,93.0,57.0,4.0,-13.0,-992.0,85.0,365.0
-237.0,31.0,89.0,68.0,-1.0,-16.0,-1003.0,92.0,357.0
-241.0,28.0,84.0,77.0,-3.0,-19.0,-1013.0,93.0,342.0
-240.0,31.0,82.0,84.0,-5.0,-22.0,-1008.0,88.0,332.0
-243.0,31.0,84.0,87.0,-5.0,-24.0,-1012.0,94.0,328.0
-245.0,32.0,82.0,86.0,-7.0,-22.0,-1010.0,92.0,323.0
-241.0,33.0,83.0,79.0,-10.0,-22.0,-1008.0,97.0,316.0
-241.0,30.0,83.0,70.0,-12.0,-23.0,-1007.0,99.0,311.0
-241.0,30.0,79.0,59.0,-13.0,-23.0,-1004.0,97.0,323.0
-238.0,28.0,77.0,49.0,-15.0,-22.0,-1010.0,99.0,322.0
-238.0,34.0,80.0,38.0,-17.0,-24.0,-1000.0,99.0,316.0
-239.0,28.0,80.0,30.0,-21.0,-24.0,-1000.0,92.0,321.0
-240.0,29.0,79.0,26.0,-27.0,-26.0,-998.0,96.0,320.0
-240.0,31.0,80.0,21.0,-33.0,-28.0,-999.0,92.0,322.0
-236.0,28.0,81.0,18.0,-38.0,-31.0,-1002.0,92.0,325.0
-239.0,30.0,81.0,14.0,-42.0,-33.0,-999.0,95.0,328.0
-242.0,29.0,86.0,13.0,-47.0,-34.0,-1002.0,92.0,335.0
-239.0,28.0,82.0,11.0,-49.0,-37.0,-999.0,88.0,328.0
-228.0,16.0,74.0,7.0,-53.0,-37.0,-960.0,58.0,305.0
-245.0,28.0,86.0,-1.0,-58.0,-49.0,-1017.0,95.0,339.0
-239.0,24.0,90.0,3.0,-46.0,-37.0,-1010.0,87.0,353.0
-239.0,24.0,91.0,-1.0,-50.0,-33.0,-1001.0,81.0,362.0
-234.0,34.0,86.0,1.0,-51.0,-28.0,-1003.0,77.0,352.0
-237.0,29.0,88.0,6.0,-53.0,-24.0,-1001.0,79.0,353.0
-240.0,30.0,91.0,10.0,-49.0,-20.0,-995.0,81.0,362.0
-239.0,25.0,92.0,13.0,-43.0,-19.0,-999.0,79.0,370.0
-241.0,29.0,96.0,14.0,-42.0,-18.0,-1005.0,83.0,370.0
-243.0,29.0,97.0,15.0,-41.0,-17.0,-1004.0,91.0,374.0
-238.0,30.0,93.0,19.0,-39.0,-16.0,-1001.0,86.0,374.0
-242.0,28.0,94.0,20.0,-35.0,-15.0,-998.0,87.0,370.0
-238.0,27.0,93.0,20.0,-29.0,-14.0,-992.0,88.0,370.0
-240.0,30.0,91.0,18.0,-27.0,-13.0,-1000.0,79.0,361.0
-234.0,32.0,94.0,16.0,-24.0,-14.0,-991.0,85.0,365.0
-239.0,27.0,91.0,12.0,-19.0,-12.0,-989.0,80.0,362.0
-235.0,26.0,89.0,12.0,-15.0,-13.0,-991.0,77.0,363.0
-235.0,26.0,89.0,14.0,-12.0,-12.0,-986.0,72.0,353.0
-237.0,25.0,88.0,21.0,-6.0,-11.0,-995.0,69.0,364.0
-238.0,22.0,91.0,29.0,0.0,-8.0,-993.0,65.0,363.0
-240.0,23.0,93.0,37.0,4.0,-11.0,-1008.0,68.0,359.0
-241.0,26.0,93.0,50.0,9.0,-8.0,-995.0,65.0,371.0
-244.0,25.0,95.0,64.0,4.0,-4.0,-996.0,55.0,376.0
-238.0,19.0,91.0,81.0,3.0,-3.0,-993.0,59.0,370.0
-235.0,15.0,89.0,98.0,3.0,-1.0,-987.0,57.0,369.0
-235.0,22.0,94.0,116.0,6.0,0.0,-986.0,65.0,373.0
-239.0,26.0,87.0,134.0,10.0,3.0,-980.0,60.0,370.0
-233.0,20.0,97.0,150.0,16.0,3.0,-987.0,65.0,373.0
-235.0,24.0,95.0,169.0,21.0,8.0,-975.0,67.0,374.0
-231.0,23.0,95.0,185.0,24.0,8.0,-978.0,78.0,381.0
-233.0,26.0,95.0,198.0,24.0,10.0,-976.0,79.0,374.0
-231.0,31.0,91.0,206.0,25.0,11.0,-977.0,86.0,372.0
-232.0,28.0,91.0,210.0,25.0,12.0,-973.0,93.0,367.0
-235.0,30.0,92.0,210.0,26.0,11.0,-971.0,95.0,372.0
-234.0,31.0,90.0,209.0,27.0,11.0,-974.0,104.0,364.0
-234.0,31.0,89.0,203.0,30.0,8.0,-978.0,106.0,360.0
-236.0,33.0,91.0,194.0,28.0,4.0,-982.0,108.0,357.0
-234.0,33.0,90.0,185.0,21.0,1.0,-980.0,105.0,355.0
-240.0,35.0,91.0,176.0,18.0,-2.0,-987.0,100.0,352.0
-234.0,29.0,89.0,167.0,17.0,-3.0,-990.0,104.0,347.0
-241.0,35.0,88.0,155.0,19.0,-4.0,-994.0,105.0,355.0
-238.0,33.0,92.0,145.0,23.0,-3.0,-993.0,100.0,360.0
-239.0,34.0,91.0,137.0,25.0,-4.0,-994.0,103.0,363.0
