acc1_x,acc1_y,acc1_z,gyro_x,gyro_y,gyro_z,acc2_x,acc2_y,acc2_z
-1.0,-246.0,27.0,70.0,34.0,-19.0,-44.0,-1017.0,119.0
2.0,-248.0,25.0,71.0,32.0,-21.0,-35.0,-1011.0,119.0
-3.0,-251.0,23.0,71.0,27.0,-20.0,-43.0,-1016.0,113.0
-2.0,-246.0,19.0,72.0,23.0,-19.0,-43.0,-1010.0,117.0
-3.0,-244.0,27.0,72.0,18.0,-16.0,-48.0,-1013.0,112.0
-7.0,-244.0,34.0,73.0,14.0,-12.0,-39.0,-1003.0,107.0
-3.0,-247.0,24.0,73.0,11.0,-10.0,-47.0,-1001.0,104.0
-2.0,-246.0,24.0,71.0,10.0,-9.0,-40.0,-1009.0,97.0
-1.0,-247.0,27.0,67.0,10.0,-10.0,-37.0,-1010.0,108.0
2.0,-246.0,23.0,63.0,13.0,-9.0,-32.0,-1012.0,110.0
-1.0,-246.0,21.0,61.0,15.0,-10.0,-34.0,-1008.0,111.0
-2.0,-249.0,28.0,58.0,17.0,-11.0,-33.0,-1014.0,116.0
-1.0,-247.0,27.0,60.0,19.0,-11.0,-40.0,-1011.0,120.0
-3.0,-249.0,25.0,62.0,19.0,-14.0,-43.0,-1016.0,125.0
-1.0,-247.0,26.0,62.0,17.0,-12.0,-41.0,-1014.0,120.0
0.0,-245.0,36.0,62.0,16.0,-13.0,-41.0,-1016.0,118.0
-4.0,-240.0,29.0,59.0,16.0,-15.0,-47.0,-1021.0,108.0
-1.0,-247.0,27.0,54.0,15.0,-15.0,-47.0,-1009.0,108.0
-1.0,-244.0,23.0,50.0,16.0,-15.0,-43.0,-1011.0,108.0
-1.0,-247.0,24.0,47.0,16.0,-15.0,-41.0,-1013.0,117.0
-2.0,-246.0,25.0,45.0,16.0,-15.0,-39.0,-1011.0,117.0
-1.0,-248.0,24.0,43.0,17.0,-13.0,-46.0,-1011.0,110.0
0.0,-248.0,24.0,42.0,16.0,-12.0,-44.0,-1013.0,120.0
-1.0,-245.0,26.0,40.0,15.0,-9.0,-44.0,-1013.0,112.0
-2.0,-248.0,27.0,39.0,11.0,-7.0,-46.0,-1015.0,117.0
-6.0,-242.0,24.0,38.0,8.0,-5.0,-43.0,-1015.0,117.0
-6.0,-243.0,23.0,35.0,4.0,-7.0,-43.0,-1012.0,107.0
-1.0,-250.0,23.0,36.0,2.0,-6.0,-40.0,-1016.0,111.0
-1.0,-248.0,24.0,37.0,2.0,-7.0,-40.0,-1017.0,111.0
-2.0,-247.0,26.0,40.0,4.0,-6.0,-37.0,-1014.0,107.0
-2.0,-249.0,22.0,45.0,6.0,-8.0,-38.0,-1019.0,107.0
-4.0,-248.0,25.0,48.0,7.0,-9.0,-40.0,-1011.0,110.0
-1.0,-249.0,24.0,51.0,7.0,-10.0,-39.0,-1018.0,107.0
-2.0,-250.0,20.0,51.0,7.0,-11.0,-40.0,-1018.0,112.0
-3.0,-246.0,23.0,50.0,5.0,-13.0,-37.0,-1019.0,106.0
-4.0,-246.0,26.0,49.0,7.0,-13.0,-39.0,-1019.0,113.0
0.0,-247.0,24.0,51.0,6.0,-11.0,-43.0,-1017.0,111.0
-4.0,-248.0,24.0,52.0,6.0,-12.0,-43.0,-1019.0,107.0
-2.0,-249.0,27.0,53.0,4.0,-12.0,-45.0,-1020.0,111.0
-3.0,-247.0,25.0,55.0,4.0,-11.0,-47.0,-1019.0,114.0
-1.0,-247.0,25.0,53.0,3.0,-10.0,-40.0,-1015.0,117.0
-3.0,-247.0,24.0,52.0,1.0,-11.0,-47.0,-1012.0,119.0
-3.0,-246.0,24.0,51.0,1.0,-11.0,-39.0,-1012.0,120.0
-1.0,-248.0,23.0,50.0,0.0,-10.0,-43.0,-1011.0,119.0
-3.0,-247.0,28.0,50.0,1.0,-9.0,-43.0,-1017.0,119.0
-4.0,-248.0,32.0,50.0,-1.0,-9.0,-39.0,-1015.0,120.0
-1.0,-243.0,27.0,52.0,-1.0,-8.0,-45.0,-1013.0,124.0
-5.0,-248.0,26.0,53.0,-3.0,-7.0,-40.0,-1013.0,123.0
-1.0,-245.0,26.0,53.0,-5.0,-7.0,-42.0,-1009.0,122.0
-3.0,-244.0,30.0,52.0,-7.0,-6.0,-37.0,-1009.0,121.0
0.0,-243.0,24.0,47.0,-7.0,-5.0,-45.0,-1009.0,118.0
-2.0,-246.0,28.0,43.0,-9.0,-5.0,-47.0,-1009.0,125.0
-4.0,-244.0,28.0,41.0,-9.0,-6.0,-44.0,-1015.0,117.0
-2.0,-248.0,29.0,39.0,-10.0,-8.0,-42.0,-1005.0,117.0
1.0,-247.0,29.0,38.0,-8.0,-8.0,-38.0,-1007.0,118.0
-3.0,-245.0,23.0,37.0,-7.0,-7.0,-42.0,-1009.0,119.0
-1.0,-249.0,33.0,37.0,-5.0,-8.0,-42.0,-1004.0,123.0
-3.0,-245.0,24.0,38.0,-4.0,-7.0,-43.0,-1016.0,123.0
-4.0,-249.0,22.0,39.0,-4.0,-6.0,-41.0,-1013.0,122.0
-4.0,-246.0,26.0,40.0,-3.0,-6.0,-45.0,-1012.0,121.0
-3.0,-248.0,32.0,41.0,-3.0,-8.0,-41.0,-1013.0,121.0
-1.0,-248.0,28.0,41.0,-3.0,-7.0,-40.0,-1018.0,117.0
-1.0,-248.0,26.0,37.0,-3.0,-9.0,-37.0,-1013.0,118.0
-6.0,-247.0,27.0,37.0,-3.0,-9.0,-42.0,-1013.0,119.0
0.0,-247.0,20.0,37.0,0.0,-10.0,-40.0,-1017.0,114.0
0.0,-248.0,28.0,36.0,0.0,-9.0,-39.0,-1018.0,112.0
-1.0,-247.0,24.0,36.0,2.0,-9.0,-38.0,-1017.0,116.0
-4.0,-247.0,27.0,38.0,3.0,-9.0,-35.0,-1014.0,109.0
-1.0,-248.0,22.0,40.0,5.0,-9.0,-39.0,-1012.0,111.0
-1.0,-252.0,16.0,41.0,5.0,-9.0,-36.0,-1014.0,113.0
0.0,-246.0,25.0,39.0,6.0,-10.0,-38.0,-1016.0,110.0
0.0,-247.0,30.0,36.0,6.0,-10.0,-32.0,-1013.0,114.0
0.0,-248.0,25.0,33.0,5.0,-8.0,-37.0,-1017.0,115.0
-1.0,-248.0,27.0,31.0,5.0,-7.0,-32.0,-1021.0,119.0
0.0,-247.0,26.0,31.0,6.0,-9.0,-32.0,-1012.0,118.0
-3.0,-247.0,30.0,32.0,10.0,-10.0,-39.0,-1016.0,121.0
-2.0,-248.0,29.0,35.0,12.0,-10.0,-39.0,-1008.0,121.0
-3.0,-249.0,26.0,42.0,15.0,-11.0,-34.0,-1016.0,121.0
-4.0,-248.0,24.0,43.0,18.0,-13.0,-39.0,-1018.0,123.0
-5.0,-248.0,20.0,45.0,19.0,-14.0,-37.0,-1017.0,119.0
-3.0,-249.0,28.0,44.0,19.0,-15.0,-45.0,-1012.0,120.0
-4.0,-247.0,29.0,41.0,19.0,-16.0,-44.0,-1011.0,121.0
-1.0,-247.0,25.0,38.0,17.0,-14.0,-38.0,-1008.0,123.0
-1.0,-246.0,27.0,38.0,16.0,-15.0,-43.0,-1009.0,110.0
-3.0,-243.0,24.0,40.0,16.0,-15.0,-44.0,-1014.0,113.0
0.0,-248.0,26.0,39.0,15.0,-16.0,-39.0,-1010.0,120.0
-3.0,-245.0,28.0,40.0,16.0,-16.0,-36.0,-1013.0,119.0
-2.0,-246.0,29.0,41.0,16.0,-17.0,-39.0,-1018.0,120.0
0.0,-245.0,25.0,43.0,16.0,-15.0,-40.0,-1015.0,121.0
-3.0,-247.0,28.0,44.0,16.0,-14.0,-39.0,-1016.0,117.0
-1.0,-253.0,31.0,45.0,17.0,-15.0,-41.0,-1017.0,119.0
-2.0,-249.0,29.0,44.0,17.0,-17.0,-38.0,-1012.0,111.0
-3.0,-246.0,26.0,43.0,18.0,-17.0,-48.0,-1009.0,116.0
-1.0,-245.0,25.0,40.0,20.0,-18.0,-45.0,-1010.0,113.0
0.0,-244.0,28.0,40.0,23.0,-17.0,-38.0,-1013.0,119.0
-4.0,-246.0,22.0,37.0,26.0,-19.0,-42.0,-1014.0,120.0
-4.0,-245.0,27.0,36.0,28.0,-18.0,-38.0,-1013.0,122.0
0.0,-249.0,24.0,36.0,30.0,-18.0,-41.0,-1019.0,119.0
-1.0,-249.0,27.0,40.0,29.0,-17.0,-46.0,-1011.0,120.0
-3.0,-248.0,23.0,43.0,28.0,-17.0,-43.0,-1010.0,114.0
-1.0,-249.0,22.0,45.0,27.0,-17.0,-47.0,-1016.0,122.0
0.0,-247.0,27.0,44.0,26.0,-16.0,-42.0,-1013.0,116.0
-3.0,-246.0,27.0,43.0,25.0,-15.0,-42.0,-1010.0,115.0
0.0,-247.0,22.0,40.0,25.0,-15.0,-41.0,-1015.0,110.0
-2.0,-247.0,26.0,38.0,25.0,-15.0,-40.0,-1016.0,117.0
-5.0,-246.0,26.0,37.0,26.0,-14.0,-49.0,-1015.0,114.0
-6.0,-247.0,21.0,36.0,27.0,-15.0,-45.0,-1019.0,110.0
-7.0,-247.0,28.0,36.0,28.0,-16.0,-43.0,-1019.0,110.0
2.0,-247.0,26.0,38.0,30.0,-18.0,-39.0,-1017.0,111.0
-2.0,-250.0,24.0,40.0,32.0,-19.0,-42.0,-1013.0,107.0
-3.0,-248.0,25.0,42.0,35.0,-21.0,-39.0,-1017.0,113.0
-5.0,-248.0,20.0,44.0,38.0,-22.0,-33.0,-1018.0,115.0
-1.0,-245.0,26.0,46.0,41.0,-22.0,-36.0,-1018.0,111.0
0.0,-248.0,25.0,47.0,45.0,-24.0,-39.0,-1013.0,117.0
0.0,-249.0,29.0,47.0,47.0,-25.0,-33.0,-1019.0,116.0
-1.0,-249.0,25.0,46.0,49.0,-24.0,-34.0,-1012.0,110.0
1.0,-245.0,23.0,46.0,50.0,-23.0,-32.0,-1016.0,115.0
-1.0,-244.0,24.0,46.0,52.0,-25.0,-32.0,-1013.0,112.0
-1.0,-246.0,28.0,46.0,53.0,-25.0,-29.0,-1007.0,108.0
-2.0,-242.0,16.0,45.0,55.0,-25.0,-34.0,-1013.0,104.0
-1.0,-250.0,21.0,41.0,55.0,-26.0,-36.0,-1007.0,103.0
0.0,-245.0,22.0,34.0,59.0,-25.0,-31.0,-1007.0,99.0
-3.0,-245.0,29.0,29.0,62.0,-26.0,-32.0,-1008.0,107.0
-2.0,-244.0,26.0,23.0,65.0,-26.0,-28.0,-1010.0,110.0
0.0,-246.0,22.0,20.0,68.0,-27.0,-33.0,-1018.0,114.0
1.0,-244.0,22.0,19.0,70.0,-29.0,-34.0,-1013.0,108.0
0.0,-246.0,24.0,20.0,71.0,-28.0,-33.0,-1018.0,108.0
2.0,-248.0,23.0,21.0,71.0,-29.0,-30.0,-1017.0,103.0
0.0,-247.0,26.0,22.0,72.0,-29.0,-29.0,-1017.0,97.0
3.0,-247.0,25.0,28.0,74.0,-29.0,-33.0,-1016.0,102.0
-2.0,-249.0,22.0,31.0,74.0,-30.0,-30.0,-1017.0,100.0
1.0,-249.0,21.0,33.0,76.0,-29.0,-27.0,-1017.0,103.0
1.0,-250.0,23.0,32.0,80.0,-29.0,-26.0,-1021.0,101.0
-1.0,-245.0,18.0,32.0,85.0,-29.0,-27.0,-1017.0,101.0
-1.0,-246.0,21.0,33.0,90.0,-30.0,-26.0,-1022.0,104.0
-2.0,-249.0,22.0,33.0,95.0,-33.0,-31.0,-1016.0,107.0
-4.0,-246.0,25.0,34.0,100.0,-33.0,-32.0,-1020.0,104.0
1.0,-247.0,26.0,36.0,103.0,-36.0,-25.0,-1020.0,103.0
0.0,-244.0,26.0,37.0,103.0,-36.0,-33.0,-1009.0,108.0
1.0,-245.0,21.0,39.0,103.0,-38.0,-27.0,-1009.0,106.0
1.0,-248.0,25.0,42.0,102.0,-38.0,-28.0,-1015.0,115.0
-1.0,-245.0,22.0,41.0,102.0,-38.0,-34.0,-1013.0,119.0
-2.0,-246.0,28.0,40.0,105.0,-38.0,-35.0,-1017.0,119.0
-2.0,-250.0,26.0,38.0,107.0,-39.0,-38.0,-1015.0,125.0
0.0,-245.0,26.0,36.0,107.0,-40.0,-40.0,-1010.0,125.0
1.0,-246.0,30.0,33.0,108.0,-40.0,-39.0,-1011.0,121.0
0.0,-246.0,25.0,31.0,108.0,-40.0,-36.0,-1009.0,112.0
0.0,-245.0,24.0,27.0,109.0,-39.0,-39.0,-1015.0,120.0
-2.0,-247.0,21.0,23.0,109.0,-39.0,-41.0,-1007.0,110.0
-2.0,-248.0,23.0,17.0,108.0,-38.0,-37.0,-1011.0,107.0
-4.0,-247.0,22.0,13.0,108.0,-37.0,-36.0,-1010.0,111.0
0.0,-243.0,28.0,11.0,106.0,-37.0,-40.0,-1009.0,106.0
-4.0,-243.0,24.0,10.0,103.0,-35.0,-33.0,-1012.0,102.0
-4.0,-246.0,23.0,8.0,101.0,-34.0,-42.0,-1015.0,107.0
1.0,-242.0,19.0,9.0,99.0,-36.0,-38.0,-1019.0,104.0
0.0,-249.0,25.0,12.0,98.0,-35.0,-42.0,-1016.0,101.0
-2.0,-247.0,24.0,15.0,96.0,-35.0,-36.0,-1022.0,100.0
0.0,-250.0,25.0,19.0,96.0,-35.0,-40.0,-1020.0,96.0
-3.0,-249.0,22.0,23.0,94.0,-34.0,-41.0,-1019.0,100.0
-2.0,-250.0,21.0,28.0,90.0,-37.0,-44.0,-1022.0,104.0
-2.0,-247.0,24.0,31.0,86.0,-37.0,-45.0,-1021.0,100.0
-4.0,-248.0,24.0,33.0,82.0,-36.0,-42.0,-1020.0,101.0
-2.0,-249.0,23.0,36.0,80.0,-37.0,-38.0,-1018.0,104.0
0.0,-248.0,24.0,38.0,80.0,-38.0,-40.0,-1014.0,110.0
-1.0,-247.0,24.0,38.0,79.0,-38.0,-40.0,-1020.0,111.0
-3.0,-250.0,28.0,39.0,80.0,-39.0,-44.0,-1018.0,110.0
-2.0,-247.0,27.0,41.0,79.0,-40.0,-41.0,-1020.0,117.0
0.0,-250.0,25.0,42.0,78.0,-39.0,-42.0,-1020.0,119.0
-1.0,-249.0,24.0,44.0,75.0,-40.0,-43.0,-1020.0,110.0
0.0,-248.0,25.0,46.0,73.0,-41.0,-42.0,-1023.0,113.0
-1.0,-248.0,26.0,49.0,71.0,-39.0,-39.0,-1023.0,112.0
-5.0,-246.0,25.0,52.0,68.0,-38.0,-47.0,-1021.0,113.0
-3.0,-245.0,21.0,56.0,63.0,-35.0,-43.0,-1020.0,111.0
0.0,-250.0,21.0,60.0,59.0,-35.0,-38.0,-1015.0,113.0
-5.0,-245.0,20.0,64.0,58.0,-34.0,-42.0,-1014.0,103.0
-4.0,-247.0,21.0,65.0,56.0,-34.0,-37.0,-1013.0,100.0
0.0,-246.0,22.0,63.0,53.0,-32.0,-43.0,-1014.0,96.0
0.0,-246.0,24.0,61.0,53.0,-29.0,-39.0,-1008.0,104.0
0.0,-244.0,25.0,59.0,51.0,-27.0,-36.0,-1016.0,101.0
-1.0,-249.0,22.0,58.0,49.0,-27.0,-42.0,-1011.0,101.0
0.0,-250.0,23.0,58.0,48.0,-27.0,-39.0,-1011.0,100.0
-3.0,-246.0,25.0,57.0,45.0,-26.0,-36.0,-1010.0,102.0
0.0,-247.0,24.0,54.0,42.0,-24.0,-39.0,-1014.0,99.0
0.0,-250.0,19.0,51.0,39.0,-24.0,-43.0,-1012.0,101.0
-1.0,-246.0,21.0,48.0,37.0,-25.0,-45.0,-1017.0,100.0
1.0,-248.0,23.0,45.0,36.0,-25.0,-43.0,-1015.0,106.0
-4.0,-247.0,17.0,44.0,36.0,-24.0,-40.0,-1017.0,96.0
0.0,-246.0,23.0,46.0,35.0,-24.0,-36.0,-1018.0,102.0
-3.0,-246.0,24.0,47.0,34.0,-25.0,-41.0,-1020.0,110.0
0.0,-248.0,21.0,49.0,36.0,-25.0,-38.0,-1021.0,100.0
0.0,-247.0,23.0,50.0,37.0,-24.0,-42.0,-1019.0,105.0
0.0,-249.0,21.0,51.0,38.0,-25.0,-38.0,-1024.0,97.0
0.0,-247.0,19.0,50.0,39.0,-24.0,-36.0,-1019.0,105.0
-1.0,-251.0,27.0,48.0,40.0,-26.0,-33.0,-1017.0,113.0
-1.0,-245.0,24.0,47.0,38.0,-25.0,-36.0,-1019.0,105.0
2.0,-249.0,24.0,48.0,37.0,-24.0,-38.0,-1018.0,101.0
-5.0,-244.0,26.0,49.0,35.0,-21.0,-35.0,-1015.0,104.0
3.0,-249.0,22.0,51.0,31.0,-21.0,-37.0,-1010.0,106.0
0.0,-248.0,22.0,52.0,29.0,-19.0,-33.0,-1015.0,108.0
-1.0,-247.0,23.0,50.0,28.0,-19.0,-29.0,-1013.0,103.0
0.0,-245.0,23.0,51.0,28.0,-19.0,-41.0,-1016.0,106.0
-1.0,-244.0,22.0,50.0,28.0,-18.0,-41.0,-1011.0,107.0
0.0,-246.0,22.0,50.0,26.0,-18.0,-43.0,-1011.0,101.0
-3.0,-249.0,24.0,47.0,26.0,-18.0,-36.0,-1011.0,92.0
-5.0,-245.0,19.0,45.0,25.0,-19.0,-35.0,-1010.0,105.0
0.0,-245.0,23.0,44.0,23.0,-16.0,-38.0,-1008.0,96.0
-2.0,-249.0,24.0,44.0,22.0,-15.0,-32.0,-1009.0,100.0
4.0,-253.0,21.0,43.0,22.0,-15.0,-36.0,-1010.0,101.0
1.0,-247.0,25.0,42.0,23.0,-15.0,-36.0,-1017.0,96.0
0.0,-247.0,22.0,39.0,22.0,-12.0,-36.0,-1015.0,93.0
0.0,-244.0,21.0,39.0,22.0,-13.0,-33.0,-1022.0,101.0
0.0,-246.0,23.0,39.0,22.0,-13.0,-36.0,-1012.0,103.0
0.0,-245.0,23.0,36.0,21.0,-13.0,-35.0,-1018.0,103.0
-2.0,-246.0,24.0,37.0,19.0,-13.0,-34.0,-1016.0,106.0
0.0,-250.0,21.0,38.0,19.0,-12.0,-38.0,-1021.0,110.0
0.0,-247.0,28.0,39.0,20.0,-12.0,-24.0,-1021.0,108.0
-1.0,-249.0,20.0,39.0,20.0,-12.0,-28.0,-1020.0,105.0
-1.0,-248.0,24.0,41.0,21.0,-13.0,-30.0,-1016.0,106.0
0.0,-252.0,23.0,41.0,21.0,-11.0,-32.0,-1014.0,103.0
0.0,-247.0,21.0,41.0,20.0,-12.0,-26.0,-1014.0,104.0
-1.0,-246.0,24.0,39.0,20.0,-11.0,-25.0,-1015.0,97.0
2.0,-246.0,24.0,38.0,20.0,-12.0,-25.0,-1017.0,103.0
0.0,-248.0,21.0,36.0,22.0,-10.0,-25.0,-1017.0,108.0
0.0,-247.0,22.0,36.0,22.0,-9.0,-22.0,-1013.0,100.0
1.0,-248.0,26.0,36.0,20.0,-9.0,-28.0,-1018.0,103.0
-2.0,-246.0,28.0,38.0,19.0,-8.0,-30.0,-1012.0,103.0
-1.0,-242.0,24.0,39.0,19.0,-5.0,-29.0,-1015.0,105.0
1.0,-247.0,24.0,40.0,21.0,-6.0,-26.0,-1014.0,102.0
2.0,-244.0,19.0,40.0,22.0,-5.0,-31.0,-1008.0,102.0
0.0,-248.0,27.0,40.0,23.0,-6.0,-25.0,-1013.0,105.0
-1.0,-245.0,22.0,39.0,25.0,-5.0,-29.0,-1015.0,98.0
-1.0,-244.0,24.0,37.0,25.0,-3.0,-33.0,-1009.0,98.0
0.0,-248.0,19.0,34.0,23.0,-3.0,-32.0,-1013.0,101.0
0.0,-247.0,24.0,31.0,22.0,-4.0,-35.0,-1012.0,102.0
-3.0,-244.0,22.0,29.0,21.0,-4.0,-32.0,-1010.0,100.0
-1.0,-250.0,19.0,25.0,20.0,-7.0,-34.0,-1017.0,102.0
-1.0,-247.0,19.0,25.0,18.0,-7.0,-32.0,-1020.0,105.0
-4.0,-247.0,22.0,28.0,19.0,-6.0,-37.0,-1017.0,108.0
0.0,-250.0,23.0,34.0,21.0,-6.0,-38.0,-1022.0,103.0
-1.0,-246.0,33.0,39.0,22.0,-7.0,-38.0,-1016.0,102.0
-2.0,-247.0,21.0,45.0,24.0,-8.0,-38.0,-1017.0,102.0
-2.0,-246.0,23.0,51.0,24.0,-8.0,-35.0,-1015.0,101.0
0.0,-246.0,21.0,53.0,25.0,-8.0,-36.0,-1012.0,89.0
-1.0,-246.0,23.0,52.0,24.0,-6.0,-31.0,-1010.0,101.0
0.0,-246.0,23.0,48.0,21.0,-5.0,-38.0,-1008.0,101.0
0.0,-244.0,18.0,43.0,16.0,-3.0,-36.0,-1006.0,97.0
-2.0,-245.0,16.0,40.0,11.0,-1.0,-33.0,-1009.0,98.0
0.0,-249.0,22.0,39.0,9.0,0.0,-38.0,-1007.0,98.0
-2.0,-247.0,22.0,39.0,7.0,2.0,-37.0,-1009.0,101.0
-2.0,-246.0,21.0,39.0,5.0,2.0,-39.0,-1013.0,92.0
-2.0,-252.0,18.0,39.0,4.0,2.0,-39.0,-1013.0,97.0
-1.0,-246.0,22.0,38.0,2.0,3.0,-37.0,-1018.0,92.0
0.0,-249.0,22.0,34.0,2.0,2.0,-39.0,-1020.0,101.0
-1.0,-246.0,27.0,30.0,1.0,4.0,-35.0,-1018.0,101.0
0.0,-247.0,22.0,28.0,0.0,2.0,-40.0,-1017.0,99.0
-2.0,-248.0,23.0,29.0,0.0,3.0,-35.0,-1016.0,102.0
-1.0,-249.0,22.0,33.0,0.0,1.0,-35.0,-1020.0,104.0
-5.0,-246.0,24.0,40.0,-2.0,-1.0,-36.0,-1024.0,99.0
-6.0,-242.0,20.0,47.0,-3.0,0.0,-37.0,-1024.0,95.0
-3.0,-249.0,21.0,53.0,-7.0,-2.0,-39.0,-1022.0,96.0
0.0,-250.0,21.0,57.0,-9.0,-1.0,-35.0,-1024.0,99.0
1.0,-249.0,29.0,58.0,-12.0,-1.0,-40.0,-1017.0,98.0
0.0,-247.0,22.0,56.0,-14.0,0.0,-41.0,-1017.0,93.0
-2.0,-246.0,20.0,53.0,-16.0,-1.0,-40.0,-1014.0,95.0
0.0,-248.0,20.0,49.0,-14.0,-3.0,-39.0,-1012.0,95.0
0.0,-249.0,25.0,46.0,-12.0,-3.0,-37.0,-1010.0,94.0
0.0,-248.0,23.0,43.0,-11.0,-5.0,-39.0,-1014.0,103.0
-1.0,-249.0,21.0,43.0,-11.0,-3.0,-38.0,-1012.0,105.0
-3.0,-247.0,18.0,47.0,-11.0,-2.0,-38.0,-1019.0,105.0
0.0,-249.0,21.0,51.0,-14.0,-3.0,-38.0,-1017.0,103.0
1.0,-250.0,25.0,55.0,-16.0,-3.0,-38.0,-1018.0,102.0
-1.0,-249.0,18.0,56.0,-18.0,0.0,-35.0,-1012.0,102.0
-2.0,-245.0,24.0,56.0,-22.0,0.0,-36.0,-1019.0,95.0
-2.0,-248.0,23.0,55.0,-25.0,4.0,-31.0,-1022.0,99.0
1.0,-248.0,21.0,54.0,-27.0,5.0,-29.0,-1018.0,98.0
0.0,-246.0,24.0,53.0,-28.0,8.0,-33.0,-1020.0,100.0
0.0,-247.0,21.0,54.0,-30.0,7.0,-30.0,-1016.0,100.0
-1.0,-251.0,22.0,56.0,-30.0,6.0,-37.0,-1020.0,99.0
0.0,-249.0,24.0,60.0,-30.0,7.0,-31.0,-1020.0,98.0
0.0,-250.0,21.0,64.0,-31.0,5.0,-32.0,-1018.0,94.0
0.0,-250.0,21.0,65.0,-31.0,5.0,-31.0,-1016.0,99.0
1.0,-245.0,28.0,63.0,-32.0,4.0,-33.0,-1012.0,97.0
-5.0,-247.0,16.0,61.0,-32.0,4.0,-38.0,-1015.0,89.0
0.0,-247.0,23.0,59.0,-31.0,3.0,-36.0,-1015.0,95.0
0.0,-247.0,21.0,55.0,-31.0,3.0,-40.0,-1016.0,97.0
-1.0,-248.0,25.0,54.0,-31.0,2.0,-36.0,-1017.0,100.0
0.0,-247.0,22.0,53.0,-32.0,2.0,-38.0,-1018.0,99.0
0.0,-246.0,24.0,53.0,-33.0,3.0,-38.0,-1014.0,100.0
0.0,-247.0,26.0,52.0,-33.0,1.0,-35.0,-1014.0,99.0
-2.0,-248.0,26.0,54.0,-34.0,0.0,-35.0,-1012.0,100.0
-2.0,-247.0,22.0,54.0,-33.0,1.0,-30.0,-1013.0,103.0
-1.0,-246.0,22.0,53.0,-34.0,0.0,-32.0,-1013.0,99.0
-3.0,-244.0,25.0,53.0,-33.0,3.0,-34.0,-1015.0,101.0
0.0,-244.0,24.0,53.0,-32.0,3.0,-37.0,-1014.0,100.0
0.0,-248.0,19.0,51.0,-32.0,5.0,-37.0,-1010.0,102.0
0.0,-244.0,19.0,47.0,-33.0,6.0,-37.0,-1014.0,97.0
-1.0,-247.0,24.0,44.0,-34.0,6.0,-33.0,-1018.0,93.0
0.0,-249.0,25.0,39.0,-35.0,6.0,-33.0,-1014.0,96.0
0.0,-251.0,21.0,37.0,-36.0,7.0,-33.0,-1019.0,98.0
0.0,-246.0,21.0,39.0,-36.0,7.0,-30.0,-1021.0,95.0
1.0,-249.0,21.0,40.0,-37.0,5.0,-35.0,-1018.0,95.0
-2.0,-250.0,22.0,44.0,-36.0,4.0,-30.0,-1022.0,96.0
0.0,-249.0,18.0,50.0,-36.0,4.0,-33.0,-1020.0,98.0
0.0,-247.0,24.0,54.0,-34.0,3.0,-29.0,-1021.0,96.0
-1.0,-249.0,20.0,58.0,-35.0,1.0,-31.0,-1020.0,91.0
-2.0,-247.0,21.0,62.0,-33.0,0.0,-32.0,-1023.0,95.0
0.0,-248.0,17.0,65.0,-32.0,1.0,-30.0,-1015.0,94.0
0.0,-246.0,19.0,66.0,-31.0,-3.0,-27.0,-1014.0,93.0
-2.0,-245.0,21.0,67.0,-29.0,-4.0,-36.0,-1014.0,88.0
0.0,-248.0,22.0,67.0,-26.0,-6.0,-32.0,-1015.0,90.0
0.0,-248.0,24.0,67.0,-26.0,-5.0,-31.0,-1012.0,94.0
0.0,-247.0,19.0,67.0,-26.0,-6.0,-34.0,-1011.0,92.0
0.0,-248.0,25.0,67.0,-25.0,-5.0,-37.0,-1010.0,99.0
0.0,-249.0,20.0,66.0,-25.0,-6.0,-38.0,-1015.0,100.0
-6.0,-243.0,23.0,67.0,-25.0,-5.0,-34.0,-1018.0,94.0
0.0,-245.0,20.0,66.0,-24.0,-5.0,-39.0,-1014.0,103.0
0.0,-246.0,21.0,66.0,-25.0,-4.0,-35.0,-1016.0,103.0
-1.0,-246.0,22.0,65.0,-26.0,-2.0,-39.0,-1018.0,100.0
-1.0,-246.0,20.0,63.0,-26.0,0.0,-34.0,-1018.0,100.0
0.0,-247.0,25.0,62.0,-27.0,-1.0,-37.0,-1013.0,98.0
-1.0,-249.0,25.0,61.0,-27.0,-1.0,-39.0,-1019.0,92.0
-1.0,-246.0,20.0,58.0,-27.0,0.0,-32.0,-1011.0,98.0
0.0,-248.0,26.0,56.0,-26.0,-3.0,-35.0,-1012.0,97.0
-2.0,-249.0,23.0,52.0,-25.0,-4.0,-39.0,-1011.0,101.0
0.0,-244.0,19.0,50.0,-24.0,-5.0,-35.0,-1010.0,101.0
-1.0,-247.0,31.0,47.0,-24.0,-5.0,-35.0,-1009.0,105.0
-1.0,-247.0,25.0,46.0,-23.0,-5.0,-34.0,-1013.0,102.0
-2.0,-246.0,24.0,45.0,-22.0,-6.0,-33.0,-1016.0,106.0
0.0,-247.0,25.0,48.0,-21.0,-8.0,-40.0,-1012.0,100.0
0.0,-247.0,22.0,50.0,-20.0,-8.0,-42.0,-1014.0,108.0
0.0,-247.0,21.0,54.0,-21.0,-9.0,-38.0,-1015.0,103.0
1.0,-250.0,25.0,56.0,-21.0,-8.0,-40.0,-1018.0,102.0
-2.0,-246.0,19.0,55.0,-25.0,-6.0,-39.0,-1016.0,101.0
-2.0,-245.0,24.0,56.0,-26.0,-6.0,-46.0,-1015.0,109.0
-7.0,-249.0,26.0,58.0,-28.0,-6.0,-47.0,-1017.0,107.0
-3.0,-250.0,22.0,57.0,-28.0,-6.0,-44.0,-1020.0,106.0
-3.0,-248.0,24.0,59.0,-28.0,-5.0,-44.0,-1022.0,104.0
-3.0,-245.0,23.0,61.0,-29.0,-3.0,-52.0,-1016.0,102.0
-1.0,-249.0,24.0,61.0,-29.0,-3.0,-46.0,-1017.0,100.0
-3.0,-249.0,23.0,60.0,-28.0,-1.0,-45.0,-1019.0,93.0
-3.0,-249.0,22.0,59.0,-29.0,-1.0,-42.0,-1021.0,94.0
-4.0,-246.0,21.0,56.0,-28.0,0.0,-46.0,-1020.0,95.0
0.0,-247.0,24.0,54.0,-26.0,0.0,-43.0,-1018.0,94.0
-1.0,-246.0,22.0,51.0,-25.0,2.0,-37.0,-1014.0,95.0
0.0,-245.0,20.0,50.0,-24.0,2.0,-37.0,-1021.0,99.0
-2.0,-248.0,19.0,49.0,-24.0,1.0,-29.0,-1019.0,101.0
0.0,-251.0,21.0,50.0,-25.0,0.0,-30.0,-1027.0,96.0
-2.0,-247.0,20.0,52.0,-24.0,1.0,-29.0,-1020.0,103.0
0.0,-249.0,21.0,54.0,-24.0,0.0,-29.0,-1022.0,101.0
1.0,-251.0,18.0,55.0,-25.0,1.0,-30.0,-1022.0,95.0
0.0,-248.0,22.0,55.0,-26.0,4.0,-30.0,-1022.0,89.0
1.0,-249.0,24.0,54.0,-26.0,3.0,-32.0,-1030.0,94.0
-1.0,-250.0,22.0,52.0,-27.0,5.0,-34.0,-1027.0,100.0
0.0,-251.0,22.0,50.0,-26.0,9.0,-27.0,-1027.0,101.0
0.0,-252.0,22.0,48.0,-28.0,12.0,-37.0,-1032.0,98.0
-2.0,-246.0,24.0,47.0,-28.0,15.0,-40.0,-1028.0,106.0
-8.0,-250.0,23.0,45.0,-30.0,17.0,-51.0,-1032.0,105.0
-5.0,-249.0,32.0,35.0,-34.0,25.0,-68.0,-1040.0,105.0
-11.0,-252.0,22.0,17.0,-42.0,34.0,-67.0,-1050.0,101.0
-8.0,-254.0,23.0,-7.0,-52.0,40.0,-64.0,-1054.0,105.0
-7.0,-256.0,24.0,-33.0,-60.0,38.0,-62.0,-1055.0,120.0
-2.0,-256.0,25.0,-62.0,-64.0,34.0,-44.0,-1062.0,125.0
-3.0,-253.0,27.0,-108.0,-61.0,30.0,-32.0,-1056.0,118.0
5.0,-254.0,24.0,-178.0,-51.0,32.0,-22.0,-1064.0,125.0
2.0,-260.0,26.0,-267.0,-24.0,39.0,-20.0,-1093.0,119.0
1.0,-263.0,18.0,-376.0,26.0,51.0,-33.0,-1120.0,80.0
7.0,-274.0,-8.0,-508.0,119.0,58.0,-26.0,-1150.0,-32.0
4.0,-288.0,-39.0,-659.0,250.0,49.0,-33.0,-1180.0,-151.0
-5.0,-302.0,-60.0,-754.0,378.0,25.0,-40.0,-1218.0,-214.0
-14.0,-319.0,-59.0,-715.0,432.0,2.0,-63.0,-1294.0,-214.0
-11.0,-349.0,-56.0,-517.0,383.0,-6.0,-65.0,-1387.0,-210.0
-6.0,-366.0,-71.0,-236.0,293.0,0.0,-45.0,-1462.0,-267.0
0.0,-362.0,-86.0,16.0,224.0,9.0,-22.0,-1472.0,-320.0
2.0,-343.0,-96.0,181.0,197.0,15.0,-8.0,-1412.0,-368.0
7.0,-319.0,-108.0,230.0,188.0,18.0,13.0,-1308.0,-408.0
13.0,-289.0,-120.0,178.0,163.0,24.0,46.0,-1200.0,-463.0
22.0,-262.0,-129.0,43.0,101.0,31.0,67.0,-1112.0,-509.0
19.0,-242.0,-130.0,-133.0,27.0,48.0,72.0,-1029.0,-519.0
33.0,-225.0,-131.0,-297.0,-16.0,77.0,89.0,-945.0,-508.0
33.0,-204.0,-126.0,-408.0,-3.0,94.0,101.0,-848.0,-491.0
26.0,-180.0,-118.0,-447.0,38.0,91.0,82.0,-744.0,-473.0
6.0,-147.0,-127.0,-417.0,57.0,70.0,31.0,-629.0,-513.0
2.0,-120.0,-160.0,-374.0,48.0,60.0,-1.0,-518.0,-629.0
0.0,-91.0,-191.0,-370.0,50.0,57.0,-12.0,-405.0,-755.0
-3.0,-70.0,-200.0,-431.0,88.0,71.0,-39.0,-293.0,-809.0
-9.0,-39.0,-209.0,-530.0,145.0,85.0,-37.0,-181.0,-856.0
1.0,-22.0,-223.0,-646.0,192.0,105.0,-6.0,-129.0,-903.0
3.0,-13.0,-221.0,-814.0,216.0,110.0,14.0,-90.0,-914.0
7.0,-2.0,-209.0,-1025.0,232.0,93.0,7.0,-61.0,-862.0
-1.0,-3.0,-185.0,-1243.0,256.0,79.0,-12.0,-44.0,-767.0
-2.0,-1.0,-166.0,-1433.0,299.0,75.0,-22.0,-30.0,-673.0
-6.0,-2.0,-142.0,-1581.0,349.0,74.0,-47.0,-34.0,-580.0
-15.0,-8.0,-122.0,-1679.0,399.0,75.0,-75.0,-56.0,-497.0
-19.0,-18.0,-117.0,-1727.0,441.0,78.0,-102.0,-76.0,-467.0
-20.0,-24.0,-117.0,-1734.0,476.0,82.0,-104.0,-106.0,-474.0
-19.0,-34.0,-121.0,-1720.0,506.0,86.0,-96.0,-147.0,-490.0
-13.0,-45.0,-130.0,-1703.0,527.0,87.0,-83.0,-183.0,-502.0
-13.0,-53.0,-126.0,-1683.0,539.0,83.0,-68.0,-224.0,-494.0
-7.0,-63.0,-125.0,-1658.0,546.0,79.0,-45.0,-262.0,-487.0
-2.0,-78.0,-111.0,-1628.0,560.0,80.0,-41.0,-308.0,-481.0
-2.0,-90.0,-117.0,-1594.0,578.0,88.0,-36.0,-364.0,-468.0
1.0,-105.0,-111.0,-1549.0,598.0,104.0,-22.0,-411.0,-447.0
7.0,-113.0,-98.0,-1491.0,621.0,119.0,-7.0,-448.0,-398.0
8.0,-115.0,-91.0,-1432.0,640.0,124.0,13.0,-475.0,-350.0
13.0,-115.0,-76.0,-1387.0,656.0,118.0,24.0,-466.0,-284.0
16.0,-106.0,-50.0,-1354.0,663.0,114.0,41.0,-432.0,-189.0
18.0,-90.0,-25.0,-1320.0,671.0,120.0,40.0,-368.0,-98.0
25.0,-63.0,8.0,-1314.0,681.0,133.0,58.0,-290.0,31.0
29.0,-45.0,35.0,-1358.0,694.0,128.0,67.0,-187.0,166.0
24.0,-8.0,73.0,-1438.0,698.0,106.0,66.0,-62.0,294.0
23.0,27.0,88.0,-1534.0,691.0,70.0,56.0,53.0,370.0
18.0,49.0,101.0,-1636.0,672.0,31.0,35.0,150.0,405.0
4.0,66.0,104.0,-1749.0,662.0,-3.0,-10.0,211.0,415.0
4.0,70.0,109.0,-1878.0,667.0,-17.0,-19.0,236.0,452.0
0.0,68.0,113.0,-1992.0,658.0,-35.0,-32.0,237.0,463.0
-6.0,63.0,114.0,-2088.0,617.0,-61.0,-64.0,215.0,472.0
-21.0,45.0,119.0,-2143.0,537.0,-84.0,-106.0,164.0,481.0
-37.0,19.0,111.0,-2131.0,424.0,-102.0,-152.0,88.0,465.0
-50.0,0.0,109.0,-2037.0,279.0,-102.0,-204.0,-7.0,438.0
-63.0,-41.0,100.0,-1865.0,103.0,-91.0,-262.0,-147.0,406.0
-81.0,-79.0,89.0,-1637.0,-113.0,-72.0,-337.0,-288.0,384.0
-96.0,-120.0,80.0,-1377.0,-358.0,-54.0,-375.0,-451.0,348.0
-100.0,-160.0,58.0,-1107.0,-596.0,-53.0,-419.0,-599.0,275.0
-98.0,-182.0,37.0,-867.0,-757.0,-59.0,-428.0,-726.0,133.0
-84.0,-199.0,-4.0,-703.0,-788.0,-77.0,-372.0,-839.0,-20.0
-63.0,-208.0,-49.0,-665.0,-685.0,-123.0,-293.0,-884.0,-187.0
-42.0,-214.0,-84.0,-760.0,-513.0,-205.0,-214.0,-909.0,-323.0
-28.0,-217.0,-85.0,-943.0,-353.0,-305.0,-127.0,-925.0,-355.0
-18.0,-225.0,-80.0,-1129.0,-271.0,-396.0,-83.0,-941.0,-314.0
-11.0,-237.0,-57.0,-1230.0,-268.0,-451.0,-55.0,-978.0,-198.0
-6.0,-262.0,-14.0,-1193.0,-310.0,-446.0,-50.0,-1060.0,-46.0
-3.0,-297.0,11.0,-1008.0,-369.0,-380.0,-60.0,-1153.0,64.0
-5.0,-318.0,24.0,-736.0,-442.0,-277.0,-41.0,-1297.0,110.0
-14.0,-340.0,31.0,-459.0,-520.0,-180.0,-83.0,-1375.0,145.0
-33.0,-356.0,24.0,-212.0,-596.0,-78.0,-154.0,-1446.0,117.0
-53.0,-378.0,8.0,-41.0,-654.0,41.0,-230.0,-1535.0,45.0
-54.0,-390.0,-2.0,34.0,-679.0,161.0,-245.0,-1594.0,9.0
-45.0,-398.0,-6.0,47.0,-671.0,255.0,-200.0,-1640.0,-1.0
-19.0,-408.0,-1.0,30.0,-656.0,296.0,-95.0,-1670.0,-2.0
9.0,-408.0,-7.0,6.0,-661.0,263.0,10.0,-1670.0,-6.0
27.0,-401.0,-21.0,-11.0,-680.0,196.0,73.0,-1649.0,-54.0
55.0,-398.0,-36.0,-35.0,-679.0,146.0,155.0,-1632.0,-117.0
67.0,-398.0,-43.0,-62.0,-650.0,70.0,254.0,-1626.0,-154.0
94.0,-385.0,-60.0,-84.0,-560.0,-36.0,328.0,-1576.0,-222.0
97.0,-363.0,-76.0,-106.0,-412.0,-148.0,342.0,-1471.0,-296.0
92.0,-349.0,-87.0,-146.0,-261.0,-242.0,319.0,-1417.0,-347.0
73.0,-321.0,-103.0,-186.0,-121.0,-323.0,254.0,-1328.0,-408.0
56.0,-300.0,-109.0,-232.0,-2.0,-373.0,170.0,-1222.0,-421.0
24.0,-272.0,-99.0,-268.0,81.0,-395.0,68.0,-1126.0,-385.0
-8.0,-261.0,-88.0,-289.0,109.0,-391.0,-44.0,-1075.0,-334.0
-45.0,-270.0,-71.0,-269.0,115.0,-341.0,-201.0,-1091.0,-291.0
-79.0,-287.0,-63.0,-202.0,73.0,-246.0,-305.0,-1152.0,-247.0
-97.0,-307.0,-57.0,-119.0,-6.0,-157.0,-404.0,-1259.0,-214.0
-126.0,-343.0,-53.0,-33.0,-90.0,-91.0,-526.0,-1366.0,-214.0
-132.0,-364.0,-65.0,33.0,-190.0,-29.0,-544.0,-1471.0,-234.0
-116.0,-381.0,-73.0,95.0,-268.0,2.0,-504.0,-1534.0,-269.0
-96.0,-386.0,-88.0,155.0,-300.0,2.0,-394.0,-1601.0,-344.0
-60.0,-389.0,-101.0,196.0,-304.0,-26.0,-261.0,-1587.0,-393.0
-25.0,-392.0,-110.0,228.0,-311.0,-41.0,-125.0,-1603.0,-427.0
9.0,-397.0,-111.0,262.0,-343.0,-65.0,5.0,-1629.0,-421.0
30.0,-396.0,-110.0,317.0,-376.0,-99.0,94.0,-1616.0,-408.0
50.0,-389.0,-100.0,403.0,-398.0,-127.0,168.0,-1583.0,-386.0
55.0,-376.0,-93.0,504.0,-396.0,-155.0,198.0,-1534.0,-389.0
53.0,-363.0,-96.0,597.0,-385.0,-180.0,200.0,-1480.0,-358.0
59.0,-352.0,-91.0,678.0,-369.0,-192.0,208.0,-1434.0,-350.0
43.0,-341.0,-84.0,731.0,-339.0,-201.0,143.0,-1393.0,-334.0
32.0,-334.0,-88.0,756.0,-313.0,-193.0,82.0,-1367.0,-335.0
10.0,-325.0,-85.0,752.0,-299.0,-169.0,18.0,-1348.0,-345.0
-8.0,-322.0,-85.0,727.0,-293.0,-152.0,-45.0,-1325.0,-337.0
-31.0,-318.0,-85.0,694.0,-288.0,-138.0,-131.0,-1325.0,-338.0
-45.0,-323.0,-93.0,649.0,-284.0,-129.0,-200.0,-1336.0,-350.0
-49.0,-327.0,-94.0,603.0,-288.0,-99.0,-207.0,-1350.0,-364.0
-56.0,-334.0,-99.0,566.0,-290.0,-71.0,-219.0,-1378.0,-384.0
-50.0,-346.0,-105.0,532.0,-302.0,-52.0,-210.0,-1411.0,-409.0
-48.0,-349.0,-110.0,499.0,-314.0,-50.0,-181.0,-1462.0,-424.0
-26.0,-359.0,-112.0,476.0,-326.0,-73.0,-132.0,-1465.0,-440.0
-10.0,-367.0,-122.0,490.0,-319.0,-87.0,-57.0,-1484.0,-477.0
0.0,-368.0,-125.0,537.0,-295.0,-93.0,-7.0,-1491.0,-511.0
7.0,-370.0,-135.0,603.0,-277.0,-108.0,17.0,-1498.0,-526.0
10.0,-373.0,-134.0,687.0,-261.0,-128.0,21.0,-1500.0,-540.0
7.0,-372.0,-140.0,780.0,-243.0,-152.0,6.0,-1498.0,-541.0
0.0,-366.0,-138.0,860.0,-223.0,-173.0,-5.0,-1483.0,-533.0
-3.0,-365.0,-130.0,917.0,-202.0,-183.0,-26.0,-1478.0,-523.0
-3.0,-366.0,-128.0,967.0,-182.0,-178.0,-32.0,-1472.0,-496.0
-2.0,-359.0,-118.0,1003.0,-164.0,-168.0,-34.0,-1458.0,-467.0
-8.0,-355.0,-122.0,1023.0,-154.0,-152.0,-33.0,-1431.0,-445.0
-1.0,-345.0,-110.0,1037.0,-148.0,-136.0,-22.0,-1416.0,-434.0
2.0,-339.0,-107.0,1040.0,-143.0,-127.0,-3.0,-1395.0,-416.0
9.0,-332.0,-100.0,1037.0,-137.0,-131.0,16.0,-1374.0,-402.0
11.0,-328.0,-103.0,1028.0,-129.0,-144.0,20.0,-1344.0,-393.0
15.0,-321.0,-105.0,1014.0,-111.0,-159.0,41.0,-1321.0,-406.0
21.0,-323.0,-100.0,991.0,-78.0,-171.0,54.0,-1315.0,-389.0
11.0,-316.0,-94.0,965.0,-38.0,-181.0,14.0,-1299.0,-360.0
1.0,-309.0,-90.0,939.0,-5.0,-186.0,-15.0,-1283.0,-343.0
-6.0,-311.0,-90.0,909.0,23.0,-193.0,-48.0,-1284.0,-340.0
-19.0,-311.0,-85.0,880.0,35.0,-196.0,-89.0,-1276.0,-337.0
-26.0,-309.0,-86.0,863.0,33.0,-193.0,-105.0,-1266.0,-344.0
-22.0,-307.0,-85.0,866.0,25.0,-185.0,-110.0,-1268.0,-332.0
-20.0,-306.0,-79.0,881.0,14.0,-175.0,-95.0,-1239.0,-323.0
-14.0,-301.0,-82.0,900.0,2.0,-167.0,-72.0,-1227.0,-325.0
-10.0,-295.0,-81.0,911.0,-10.0,-167.0,-58.0,-1209.0,-322.0
-4.0,-293.0,-73.0,915.0,-18.0,-172.0,-33.0,-1206.0,-303.0
4.0,-295.0,-71.0,919.0,-16.0,-181.0,-20.0,-1193.0,-289.0
6.0,-286.0,-71.0,928.0,-8.0,-190.0,-2.0,-1183.0,-273.0
6.0,-283.0,-67.0,943.0,3.0,-200.0,7.0,-1167.0,-264.0
8.0,-280.0,-70.0,959.0,18.0,-203.0,11.0,-1139.0,-244.0
15.0,-280.0,-64.0,970.0,35.0,-202.0,9.0,-1122.0,-234.0
6.0,-270.0,-57.0,979.0,56.0,-200.0,8.0,-1114.0,-220.0
3.0,-269.0,-56.0,988.0,77.0,-198.0,-4.0,-1109.0,-201.0
2.0,-269.0,-49.0,999.0,97.0,-196.0,-21.0,-1109.0,-190.0
6.0,-269.0,-50.0,1017.0,120.0,-191.0,-13.0,-1104.0,-177.0
6.0,-268.0,-45.0,1042.0,152.0,-193.0,6.0,-1104.0,-151.0
5.0,-275.0,-39.0,1067.0,181.0,-198.0,10.0,-1129.0,-122.0
1.0,-288.0,-34.0,1089.0,204.0,-205.0,-15.0,-1180.0,-129.0
0.0,-299.0,-37.0,1084.0,214.0,-207.0,-49.0,-1221.0,-143.0
-5.0,-312.0,-38.0,1051.0,207.0,-205.0,-52.0,-1274.0,-133.0
-2.0,-317.0,-38.0,1013.0,194.0,-195.0,-57.0,-1314.0,-136.0
-7.0,-336.0,-25.0,973.0,180.0,-177.0,-44.0,-1379.0,-103.0
1.0,-359.0,-24.0,925.0,173.0,-154.0,-22.0,-1464.0,-95.0
6.0,-382.0,-22.0,872.0,180.0,-132.0,-3.0,-1574.0,-76.0
4.0,-399.0,-24.0,810.0,192.0,-112.0,-9.0,-1646.0,-80.0
1.0,-408.0,-34.0,743.0,200.0,-97.0,-9.0,-1685.0,-114.0
1.0,-407.0,-53.0,667.0,206.0,-89.0,-11.0,-1679.0,-163.0
0.0,-396.0,-64.0,578.0,214.0,-87.0,-23.0,-1645.0,-232.0
-2.0,-378.0,-76.0,476.0,221.0,-97.0,-35.0,-1564.0,-302.0
-1.0,-349.0,-89.0,381.0,236.0,-116.0,-37.0,-1461.0,-367.0
1.0,-324.0,-99.0,314.0,264.0,-141.0,-19.0,-1326.0,-386.0
0.0,-300.0,-95.0,285.0,297.0,-178.0,-11.0,-1218.0,-384.0
7.0,-274.0,-90.0,292.0,324.0,-227.0,2.0,-1127.0,-352.0
8.0,-255.0,-82.0,334.0,344.0,-282.0,14.0,-1029.0,-321.0
10.0,-235.0,-64.0,401.0,357.0,-337.0,24.0,-947.0,-260.0
14.0,-212.0,-52.0,488.0,364.0,-383.0,34.0,-873.0,-203.0
13.0,-197.0,-37.0,586.0,364.0,-411.0,38.0,-808.0,-142.0
9.0,-185.0,-22.0,678.0,351.0,-428.0,20.0,-763.0,-90.0
4.0,-175.0,-14.0,750.0,326.0,-430.0,-3.0,-720.0,-51.0
-3.0,-167.0,-8.0,791.0,296.0,-413.0,-42.0,-693.0,-24.0
-4.0,-160.0,-1.0,801.0,259.0,-385.0,-52.0,-671.0,8.0
-14.0,-161.0,13.0,781.0,226.0,-345.0,-81.0,-664.0,39.0
-12.0,-162.0,30.0,742.0,194.0,-290.0,-103.0,-692.0,83.0
-19.0,-170.0,26.0,693.0,162.0,-231.0,-118.0,-715.0,107.0
-21.0,-181.0,27.0,646.0,138.0,-173.0,-112.0,-753.0,125.0
-15.0,-194.0,33.0,603.0,126.0,-119.0,-91.0,-805.0,143.0
-4.0,-210.0,32.0,572.0,122.0,-76.0,-65.0,-862.0,164.0
1.0,-219.0,42.0,555.0,124.0,-46.0,-38.0,-923.0,166.0
3.0,-235.0,43.0,555.0,131.0,-24.0,-13.0,-960.0,183.0
7.0,-247.0,39.0,564.0,141.0,-2.0,-5.0,-997.0,168.0
11.0,-256.0,38.0,572.0,157.0,23.0,5.0,-1054.0,152.0
11.0,-265.0,29.0,569.0,176.0,48.0,8.0,-1084.0,132.0
12.0,-270.0,26.0,551.0,195.0,76.0,8.0,-1125.0,119.0
17.0,-271.0,20.0,519.0,213.0,104.0,18.0,-1141.0,80.0
12.0,-279.0,4.0,473.0,231.0,130.0,21.0,-1157.0,46.0
15.0,-281.0,0.0,421.0,247.0,153.0,25.0,-1159.0,19.0
16.0,-285.0,0.0,369.0,262.0,173.0,22.0,-1163.0,4.0
12.0,-285.0,0.0,330.0,281.0,202.0,25.0,-1162.0,-1.0
15.0,-285.0,-3.0,314.0,302.0,230.0,18.0,-1167.0,8.0
6.0,-280.0,0.0,328.0,321.0,256.0,18.0,-1155.0,15.0
11.0,-278.0,2.0,370.0,323.0,283.0,15.0,-1133.0,21.0
8.0,-270.0,2.0,434.0,301.0,301.0,14.0,-1110.0,18.0
9.0,-263.0,0.0,500.0,264.0,311.0,11.0,-1083.0,16.0
5.0,-252.0,-1.0,554.0,218.0,312.0,12.0,-1048.0,15.0
6.0,-242.0,-10.0,591.0,171.0,307.0,22.0,-1006.0,6.0
14.0,-235.0,-8.0,602.0,123.0,297.0,33.0,-974.0,-16.0
16.0,-227.0,-12.0,580.0,78.0,283.0,42.0,-951.0,-27.0
19.0,-224.0,-15.0,534.0,40.0,271.0,47.0,-939.0,-36.0
20.0,-227.0,-10.0,466.0,9.0,255.0,54.0,-940.0,-37.0
20.0,-227.0,-10.0,387.0,-15.0,231.0,51.0,-952.0,-34.0
21.0,-232.0,-11.0,308.0,-31.0,206.0,48.0,-961.0,-31.0
17.0,-237.0,-2.0,243.0,-42.0,175.0,44.0,-976.0,-26.0
17.0,-241.0,0.0,199.0,-44.0,146.0,42.0,-999.0,-17.0
21.0,-253.0,-3.0,177.0,-32.0,119.0,39.0,-1037.0,-9.0
19.0,-259.0,-1.0,182.0,-7.0,92.0,43.0,-1065.0,1.0
22.0,-265.0,0.0,223.0,23.0,67.0,48.0,-1096.0,-3.0
21.0,-277.0,-2.0,302.0,51.0,45.0,58.0,-1118.0,1.0
23.0,-282.0,-1.0,417.0,71.0,24.0,61.0,-1134.0,-17.0
21.0,-284.0,-7.0,560.0,83.0,6.0,55.0,-1146.0,-21.0
18.0,-285.0,-8.0,721.0,84.0,-2.0,53.0,-1141.0,-32.0
17.0,-278.0,-13.0,887.0,85.0,0.0,45.0,-1132.0,-34.0
17.0,-273.0,-10.0,1036.0,87.0,7.0,30.0,-1111.0,-21.0
16.0,-267.0,-1.0,1156.0,88.0,17.0,36.0,-1092.0,-3.0
9.0,-254.0,3.0,1231.0,90.0,29.0,21.0,-1064.0,25.0
13.0,-249.0,14.0,1259.0,89.0,40.0,19.0,-1025.0,60.0
3.0,-243.0,22.0,1237.0,85.0,55.0,9.0,-1001.0,102.0
6.0,-234.0,30.0,1172.0,78.0,69.0,-4.0,-972.0,136.0
2.0,-226.0,37.0,1074.0,64.0,82.0,-19.0,-949.0,159.0
-2.0,-222.0,41.0,934.0,42.0,90.0,-43.0,-940.0,166.0
-11.0,-220.0,44.0,816.0,18.0,91.0,-68.0,-922.0,168.0
-11.0,-215.0,40.0,707.0,-5.0,83.0,-83.0,-910.0,178.0
-19.0,-210.0,40.0,611.0,-19.0,72.0,-99.0,-891.0,166.0
-21.0,-209.0,40.0,527.0,-25.0,62.0,-114.0,-880.0,162.0
-20.0,-208.0,38.0,451.0,-21.0,56.0,-111.0,-877.0,166.0
-18.0,-209.0,43.0,383.0,-8.0,56.0,-111.0,-892.0,181.0
-13.0,-215.0,47.0,325.0,16.0,56.0,-99.0,-898.0,204.0
-16.0,-221.0,54.0,274.0,43.0,63.0,-96.0,-925.0,202.0
-9.0,-230.0,50.0,231.0,66.0,77.0,-81.0,-952.0,213.0
-9.0,-236.0,49.0,194.0,80.0,93.0,-63.0,-985.0,211.0
-4.0,-247.0,49.0,164.0,80.0,109.0,-50.0,-1013.0,205.0
0.0,-253.0,45.0,149.0,71.0,118.0,-30.0,-1050.0,201.0
1.0,-259.0,42.0,153.0,53.0,124.0,-22.0,-1072.0,187.0
8.0,-267.0,38.0,172.0,37.0,118.0,-9.0,-1086.0,169.0
4.0,-266.0,29.0,204.0,24.0,110.0,-2.0,-1090.0,150.0
2.0,-263.0,29.0,240.0,14.0,96.0,-7.0,-1084.0,134.0
1.0,-258.0,29.0,271.0,5.0,84.0,-23.0,-1070.0,133.0
0.0,-256.0,31.0,291.0,0.0,67.0,-41.0,-1059.0,123.0
-6.0,-246.0,25.0,298.0,-2.0,54.0,-55.0,-1046.0,117.0
-10.0,-246.0,27.0,297.0,4.0,40.0,-66.0,-1029.0,125.0
-10.0,-247.0,29.0,288.0,16.0,26.0,-66.0,-1016.0,125.0
-12.0,-246.0,32.0,277.0,35.0,10.0,-80.0,-1012.0,129.0
-12.0,-241.0,28.0,265.0,56.0,-9.0,-78.0,-1005.0,134.0
-16.0,-242.0,37.0,251.0,77.0,-26.0,-95.0,-1002.0,151.0
-14.0,-239.0,39.0,240.0,95.0,-42.0,-96.0,-991.0,163.0
-20.0,-235.0,43.0,233.0,111.0,-55.0,-102.0,-983.0,171.0
-19.0,-237.0,46.0,229.0,121.0,-66.0,-106.0,-973.0,182.0
-20.0,-235.0,42.0,225.0,123.0,-72.0,-110.0,-971.0,194.0
-23.0,-232.0,49.0,218.0,116.0,-73.0,-117.0,-957.0,203.0
-26.0,-233.0,46.0,203.0,107.0,-73.0,-124.0,-963.0,206.0
-23.0,-231.0,52.0,185.0,96.0,-71.0,-128.0,-961.0,209.0
-25.0,-230.0,49.0,168.0,87.0,-72.0,-131.0,-954.0,209.0
-24.0,-228.0,49.0,153.0,77.0,-71.0,-135.0,-949.0,203.0
-24.0,-229.0,49.0,141.0,68.0,-68.0,-126.0,-952.0,209.0
-21.0,-230.0,50.0,132.0,60.0,-66.0,-128.0,-947.0,206.0
-25.0,-229.0,54.0,131.0,54.0,-60.0,-118.0,-948.0,212.0
-18.0,-234.0,51.0,132.0,53.0,-55.0,-116.0,-955.0,212.0
-20.0,-228.0,52.0,138.0,52.0,-48.0,-104.0,-959.0,213.0
-10.0,-237.0,47.0,143.0,53.0,-41.0,-94.0,-971.0,210.0
-11.0,-237.0,50.0,144.0,56.0,-36.0,-87.0,-973.0,215.0
-8.0,-239.0,53.0,143.0,57.0,-32.0,-69.0,-985.0,223.0
-7.0,-240.0,54.0,141.0,58.0,-31.0,-57.0,-1000.0,234.0
-2.0,-243.0,54.0,140.0,64.0,-34.0,-44.0,-1008.0,239.0
-2.0,-246.0,59.0,144.0,70.0,-38.0,-43.0,-1017.0,229.0
1.0,-245.0,58.0,151.0,74.0,-45.0,-27.0,-1013.0,246.0
3.0,-251.0,54.0,160.0,76.0,-51.0,-13.0,-1020.0,236.0
7.0,-251.0,53.0,175.0,76.0,-52.0,-10.0,-1018.0,238.0
8.0,-250.0,51.0,191.0,77.0,-51.0,5.0,-1010.0,214.0
11.0,-248.0,46.0,204.0,80.0,-51.0,15.0,-1010.0,206.0
14.0,-242.0,46.0,204.0,79.0,-53.0,22.0,-1013.0,197.0
13.0,-240.0,43.0,194.0,74.0,-57.0,21.0,-1009.0,187.0
14.0,-243.0,44.0,179.0,68.0,-63.0,23.0,-1002.0,186.0
15.0,-243.0,45.0,167.0,60.0,-71.0,27.0,-1000.0,188.0
14.0,-242.0,48.0,157.0,51.0,-81.0,20.0,-1003.0,197.0
9.0,-242.0,45.0,151.0,40.0,-94.0,19.0,-1002.0,198.0
10.0,-243.0,46.0,148.0,33.0,-106.0,16.0,-1003.0,195.0
14.0,-244.0,43.0,148.0,32.0,-118.0,20.0,-998.0,194.0
15.0,-240.0,40.0,153.0,39.0,-127.0,24.0,-1000.0,183.0
15.0,-244.0,46.0,157.0,49.0,-131.0,29.0,-1005.0,187.0
22.0,-245.0,40.0,165.0,62.0,-131.0,39.0,-1005.0,191.0
20.0,-248.0,43.0,176.0,81.0,-132.0,48.0,-1008.0,186.0
22.0,-247.0,48.0,194.0,108.0,-131.0,55.0,-1002.0,189.0
29.0,-244.0,42.0,216.0,142.0,-130.0,74.0,-1001.0,183.0
34.0,-242.0,37.0,237.0,183.0,-137.0,83.0,-1005.0,172.0
37.0,-245.0,40.0,248.0,226.0,-151.0,105.0,-999.0,174.0
41.0,-242.0,43.0,250.0,267.0,-166.0,113.0,-1008.0,178.0
39.0,-242.0,41.0,242.0,297.0,-180.0,103.0,-1002.0,186.0
32.0,-242.0,45.0,230.0,320.0,-186.0,96.0,-1002.0,190.0
29.0,-244.0,46.0,217.0,331.0,-185.0,74.0,-1007.0,196.0
18.0,-248.0,41.0,198.0,331.0,-176.0,50.0,-1008.0,196.0
12.0,-246.0,46.0,178.0,329.0,-159.0,22.0,-1027.0,201.0
4.0,-246.0,46.0,157.0,322.0,-139.0,-8.0,-1027.0,197.0
-5.0,-248.0,46.0,139.0,313.0,-119.0,-46.0,-1036.0,210.0
-14.0,-251.0,53.0,131.0,295.0,-98.0,-86.0,-1038.0,212.0
-21.0,-250.0,52.0,130.0,272.0,-77.0,-117.0,-1031.0,212.0
-30.0,-249.0,48.0,131.0,245.0,-56.0,-142.0,-1023.0,215.0
-37.0,-247.0,51.0,135.0,218.0,-39.0,-174.0,-1017.0,212.0
-41.0,-243.0,48.0,138.0,192.0,-22.0,-184.0,-1000.0,209.0
-39.0,-244.0,51.0,143.0,164.0,-6.0,-203.0,-993.0,208.0
-44.0,-235.0,48.0,148.0,136.0,9.0,-200.0,-981.0,211.0
-39.0,-238.0,50.0,152.0,107.0,23.0,-192.0,-973.0,202.0
-34.0,-234.0,51.0,153.0,83.0,36.0,-171.0,-965.0,204.0
-32.0,-229.0,46.0,151.0,62.0,47.0,-154.0,-956.0,201.0
-23.0,-233.0,51.0,144.0,47.0,56.0,-134.0,-958.0,209.0
-19.0,-233.0,50.0,134.0,34.0,63.0,-111.0,-968.0,214.0
-13.0,-233.0,53.0,119.0,22.0,63.0,-90.0,-960.0,212.0
-9.0,-238.0,50.0,100.0,9.0,63.0,-69.0,-975.0,221.0
-8.0,-238.0,50.0,82.0,-8.0,64.0,-60.0,-981.0,219.0
-4.0,-239.0,53.0,63.0,-25.0,71.0,-53.0,-990.0,221.0
-5.0,-240.0,52.0,48.0,-40.0,74.0,-52.0,-1002.0,211.0
-7.0,-244.0,45.0,32.0,-53.0,78.0,-46.0,-1007.0,199.0
-5.0,-246.0,47.0,14.0,-66.0,77.0,-51.0,-1025.0,201.0
-5.0,-252.0,44.0,-4.0,-80.0,70.0,-55.0,-1029.0,194.0
-8.0,-251.0,43.0,-19.0,-94.0,63.0,-55.0,-1030.0,181.0
-5.0,-250.0,44.0,-24.0,-108.0,56.0,-57.0,-1030.0,175.0
-8.0,-248.0,39.0,-24.0,-120.0,50.0,-63.0,-1022.0,164.0
-6.0,-251.0,37.0,-18.0,-128.0,47.0,-61.0,-1024.0,152.0
-1.0,-250.0,38.0,-10.0,-130.0,47.0,-56.0,-1014.0,148.0
-2.0,-246.0,36.0,-1.0,-128.0,51.0,-47.0,-1015.0,147.0
0.0,-247.0,34.0,9.0,-121.0,56.0,-39.0,-1010.0,139.0
0.0,-246.0,31.0,21.0,-118.0,62.0,-23.0,-1004.0,138.0
0.0,-244.0,34.0,30.0,-115.0,68.0,-15.0,-1004.0,137.0
4.0,-246.0,34.0,35.0,-112.0,75.0,-4.0,-1003.0,138.0
6.0,-243.0,29.0,39.0,-109.0,80.0,1.0,-1005.0,141.0
8.0,-245.0,29.0,42.0,-105.0,86.0,1.0,-1012.0,146.0
14.0,-243.0,31.0,44.0,-99.0,88.0,15.0,-1005.0,142.0
9.0,-244.0,32.0,46.0,-93.0,91.0,26.0,-1004.0,136.0
15.0,-246.0,35.0,51.0,-88.0,90.0,33.0,-1005.0,139.0
14.0,-244.0,29.0,58.0,-85.0,87.0,35.0,-1006.0,128.0
17.0,-246.0,29.0,67.0,-83.0,84.0,35.0,-1006.0,134.0
14.0,-246.0,32.0,75.0,-82.0,75.0,31.0,-1010.0,135.0
14.0,-249.0,33.0,83.0,-83.0,66.0,24.0,-1027.0,148.0
12.0,-251.0,33.0,92.0,-84.0,51.0,18.0,-1031.0,159.0
10.0,-249.0,38.0,103.0,-87.0,39.0,14.0,-1035.0,162.0
8.0,-253.0,42.0,114.0,-88.0,29.0,10.0,-1040.0,182.0
6.0,-253.0,42.0,124.0,-88.0,18.0,0.0,-1053.0,182.0
7.0,-257.0,46.0,133.0,-87.0,8.0,-4.0,-1057.0,186.0
2.0,-254.0,47.0,143.0,-84.0,-1.0,-13.0,-1056.0,195.0
1.0,-256.0,47.0,153.0,-78.0,-7.0,-25.0,-1057.0,199.0
1.0,-256.0,44.0,159.0,-73.0,-13.0,-24.0,-1058.0,202.0
-1.0,-254.0,46.0,163.0,-71.0,-17.0,-37.0,-1057.0,191.0
-3.0,-255.0,40.0,165.0,-70.0,-16.0,-42.0,-1051.0,185.0
-7.0,-249.0,40.0,166.0,-73.0,-12.0,-52.0,-1036.0,169.0
-4.0,-252.0,35.0,163.0,-78.0,-3.0,-56.0,-1026.0,158.0
-11.0,-246.0,33.0,157.0,-85.0,7.0,-63.0,-1021.0,146.0
-16.0,-242.0,29.0,150.0,-90.0,22.0,-80.0,-1010.0,138.0
-16.0,-246.0,29.0,141.0,-94.0,35.0,-85.0,-1013.0,140.0
-14.0,-246.0,35.0,132.0,-96.0,46.0,-97.0,-1020.0,146.0
-17.0,-246.0,35.0,129.0,-95.0,51.0,-104.0,-1017.0,158.0
-17.0,-245.0,40.0,138.0,-93.0,50.0,-98.0,-1016.0,175.0
-16.0,-246.0,46.0,157.0,-88.0,46.0,-94.0,-1008.0,189.0
-16.0,-242.0,50.0,179.0,-94.0,40.0,-90.0,-997.0,217.0
-12.0,-236.0,60.0,199.0,-104.0,33.0,-82.0,-980.0,239.0
-5.0,-230.0,57.0,210.0,-116.0,27.0,-70.0,-955.0,246.0
-9.0,-223.0,59.0,201.0,-131.0,24.0,-51.0,-936.0,252.0
-1.0,-220.0,61.0,170.0,-143.0,24.0,-43.0,-910.0,254.0
-4.0,-212.0,57.0,113.0,-157.0,27.0,-25.0,-895.0,246.0
1.0,-205.0,63.0,33.0,-169.0,30.0,-15.0,-870.0,254.0
4.0,-200.0,60.0,-64.0,-180.0,33.0,-3.0,-847.0,261.0
7.0,-200.0,64.0,-169.0,-191.0,36.0,1.0,-844.0,272.0
9.0,-206.0,64.0,-272.0,-202.0,38.0,2.0,-855.0,274.0
8.0,-211.0,66.0,-364.0,-217.0,41.0,3.0,-871.0,281.0
8.0,-215.0,71.0,-441.0,-230.0,42.0,8.0,-906.0,286.0
10.0,-224.0,72.0,-497.0,-240.0,43.0,4.0,-937.0,300.0
8.0,-240.0,70.0,-535.0,-246.0,40.0,3.0,-976.0,313.0
3.0,-241.0,74.0,-554.0,-251.0,36.0,-11.0,-1011.0,306.0
3.0,-252.0,73.0,-556.0,-253.0,33.0,-24.0,-1043.0,319.0
-1.0,-261.0,72.0,-541.0,-251.0,31.0,-36.0,-1064.0,307.0
0.0,-265.0,67.0,-510.0,-239.0,28.0,-45.0,-1085.0,287.0
-4.0,-266.0,65.0,-465.0,-219.0,27.0,-55.0,-1099.0,271.0
-8.0,-270.0,57.0,-407.0,-189.0,24.0,-55.0,-1111.0,246.0
-5.0,-273.0,56.0,-336.0,-152.0,20.0,-62.0,-1113.0,227.0
-3.0,-274.0,48.0,-256.0,-112.0,15.0,-54.0,-1112.0,203.0
-2.0,-269.0,40.0,-169.0,-72.0,10.0,-41.0,-1110.0,172.0
1.0,-270.0,37.0,-88.0,-40.0,7.0,-29.0,-1106.0,163.0
2.0,-268.0,38.0,-1.0,-22.0,3.0,-17.0,-1104.0,153.0
7.0,-266.0,34.0,61.0,-14.0,3.0,-2.0,-1100.0,147.0
8.0,-270.0,26.0,116.0,-13.0,6.0,11.0,-1089.0,135.0
13.0,-261.0,24.0,159.0,-16.0,9.0,9.0,-1081.0,115.0
6.0,-258.0,25.0,186.0,-23.0,15.0,5.0,-1073.0,108.0
6.0,-255.0,22.0,195.0,-30.0,19.0,0.0,-1061.0,97.0
1.0,-247.0,15.0,188.0,-39.0,20.0,-11.0,-1039.0,88.0
1.0,-247.0,14.0,170.0,-46.0,25.0,-28.0,-1016.0,74.0
0.0,-243.0,14.0,142.0,-49.0,29.0,-36.0,-997.0,67.0
-4.0,-237.0,6.0,107.0,-50.0,34.0,-43.0,-980.0,54.0
-7.0,-232.0,4.0,71.0,-44.0,39.0,-60.0,-980.0,45.0
-12.0,-234.0,6.0,38.0,-34.0,44.0,-75.0,-981.0,27.0
-16.0,-237.0,4.0,14.0,-23.0,46.0,-86.0,-981.0,26.0
-16.0,-234.0,3.0,5.0,-10.0,49.0,-95.0,-984.0,35.0
-18.0,-240.0,2.0,10.0,1.0,51.0,-102.0,-990.0,39.0
-19.0,-242.0,11.0,31.0,7.0,53.0,-107.0,-991.0,46.0
-18.0,-243.0,12.0,62.0,12.0,54.0,-97.0,-990.0,56.0
-17.0,-239.0,15.0,96.0,15.0,53.0,-99.0,-990.0,64.0
-14.0,-241.0,15.0,127.0,14.0,51.0,-91.0,-995.0,76.0
-13.0,-242.0,16.0,146.0,12.0,50.0,-86.0,-993.0,85.0
-9.0,-240.0,19.0,152.0,7.0,45.0,-77.0,-992.0,89.0
-11.0,-236.0,29.0,144.0,-2.0,44.0,-62.0,-991.0,111.0
-8.0,-238.0,23.0,126.0,-17.0,42.0,-61.0,-994.0,124.0
-5.0,-241.0,27.0,103.0,-32.0,43.0,-49.0,-996.0,127.0
-7.0,-241.0,33.0,79.0,-49.0,44.0,-38.0,-993.0,130.0
0.0,-242.0,31.0,56.0,-65.0,41.0,-36.0,-1007.0,153.0
1.0,-242.0,32.0,35.0,-78.0,37.0,-29.0,-999.0,155.0
1.0,-245.0,35.0,21.0,-88.0,36.0,-27.0,-1012.0,157.0
0.0,-249.0,46.0,15.0,-94.0,36.0,-23.0,-1017.0,175.0
1.0,-249.0,45.0,18.0,-95.0,36.0,-21.0,-1024.0,183.0
1.0,-254.0,44.0,28.0,-93.0,37.0,-24.0,-1031.0,185.0
2.0,-253.0,44.0,42.0,-88.0,37.0,-19.0,-1044.0,200.0
2.0,-252.0,45.0,58.0,-79.0,34.0,-24.0,-1051.0,201.0
2.0,-250.0,52.0,72.0,-66.0,33.0,-20.0,-1045.0,205.0
2.0,-254.0,50.0,85.0,-52.0,33.0,-16.0,-1037.0,206.0
4.0,-250.0,50.0,97.0,-40.0,31.0,-15.0,-1032.0,216.0
4.0,-250.0,48.0,108.0,-27.0,29.0,-12.0,-1031.0,214.0
2.0,-249.0,48.0,117.0,-19.0,28.0,-7.0,-1021.0,211.0
6.0,-245.0,46.0,126.0,-9.0,24.0,-14.0,-1015.0,213.0
4.0,-244.0,46.0,135.0,-1.0,20.0,-17.0,-1008.0,203.0
8.0,-244.0,47.0,143.0,5.0,16.0,-15.0,-1002.0,200.0
1.0,-244.0,46.0,149.0,7.0,13.0,-15.0,-1000.0,197.0
5.0,-244.0,41.0,151.0,9.0,11.0,-14.0,-995.0,200.0
1.0,-238.0,45.0,153.0,11.0,11.0,-20.0,-995.0,192.0
3.0,-238.0,45.0,153.0,13.0,10.0,-20.0,-990.0,188.0
1.0,-239.0,43.0,148.0,14.0,11.0,-19.0,-994.0,185.0
3.0,-241.0,45.0,141.0,13.0,11.0,-23.0,-993.0,185.0
2.0,-240.0,45.0,134.0,11.0,12.0,-23.0,-994.0,183.0
0.0,-244.0,40.0,127.0,8.0,9.0,-21.0,-994.0,184.0
0.0,-244.0,44.0,121.0,4.0,8.0,-23.0,-1002.0,171.0
-2.0,-242.0,39.0,118.0,-2.0,8.0,-36.0,-1005.0,172.0
2.0,-244.0,45.0,118.0,-5.0,10.0,-37.0,-1004.0,186.0
-2.0,-244.0,47.0,120.0,-8.0,13.0,-44.0,-1002.0,186.0
-3.0,-244.0,45.0,123.0,-12.0,15.0,-51.0,-999.0,201.0
-3.0,-241.0,47.0,126.0,-17.0,18.0,-49.0,-995.0,196.0
-5.0,-243.0,48.0,128.0,-23.0,20.0,-52.0,-998.0,200.0
-6.0,-241.0,43.0,128.0,-32.0,20.0,-53.0,-995.0,207.0
-3.0,-239.0,43.0,126.0,-41.0,20.0,-58.0,-991.0,206.0
-9.0,-243.0,52.0,121.0,-52.0,20.0,-63.0,-990.0,210.0
-9.0,-240.0,47.0,112.0,-61.0,22.0,-64.0,-992.0,208.0
-10.0,-240.0,49.0,100.0,-73.0,23.0,-66.0,-994.0,210.0
-10.0,-240.0,46.0,87.0,-86.0,25.0,-73.0,-994.0,206.0
-10.0,-242.0,46.0,73.0,-98.0,25.0,-75.0,-989.0,208.0
-12.0,-242.0,49.0,57.0,-111.0,24.0,-79.0,-997.0,205.0
-12.0,-242.0,44.0,44.0,-122.0,23.0,-81.0,-997.0,206.0
-14.0,-244.0,45.0,35.0,-129.0,22.0,-82.0,-994.0,205.0
-13.0,-242.0,49.0,30.0,-132.0,18.0,-85.0,-999.0,202.0
-14.0,-247.0,46.0,29.0,-134.0,12.0,-79.0,-1006.0,204.0
-11.0,-245.0,48.0,28.0,-131.0,6.0,-78.0,-1014.0,204.0
-9.0,-247.0,50.0,31.0,-126.0,-1.0,-69.0,-1017.0,203.0
-6.0,-248.0,50.0,37.0,-121.0,-9.0,-57.0,-1022.0,206.0
0.0,-248.0,50.0,45.0,-116.0,-14.0,-47.0,-1014.0,196.0
-2.0,-244.0,45.0,53.0,-112.0,-17.0,-31.0,-1015.0,194.0
4.0,-246.0,42.0,55.0,-107.0,-17.0,-24.0,-1011.0,183.0
4.0,-245.0,42.0,52.0,-103.0,-15.0,-16.0,-1012.0,178.0
2.0,-244.0,42.0,48.0,-97.0,-10.0,-14.0,-1005.0,182.0
6.0,-246.0,41.0,44.0,-91.0,-6.0,-14.0,-1005.0,182.0
2.0,-243.0,44.0,43.0,-83.0,-2.0,-12.0,-1009.0,182.0
4.0,-244.0,40.0,44.0,-74.0,0.0,-11.0,-1001.0,174.0
3.0,-241.0,42.0,45.0,-68.0,2.0,-17.0,-1005.0,172.0
4.0,-243.0,43.0,49.0,-61.0,2.0,-20.0,-1005.0,171.0
5.0,-245.0,41.0,52.0,-54.0,2.0,-19.0,-1003.0,169.0
2.0,-243.0,39.0,55.0,-47.0,2.0,-22.0,-1001.0,168.0
1.0,-243.0,43.0,56.0,-42.0,-3.0,-25.0,-1002.0,162.0
0.0,-243.0,38.0,55.0,-37.0,-3.0,-25.0,-998.0,161.0
1.0,-245.0,38.0,52.0,-33.0,-7.0,-32.0,-998.0,161.0
-3.0,-243.0,39.0,51.0,-30.0,-6.0,-36.0,-1001.0,160.0
-4.0,-245.0,40.0,47.0,-25.0,-5.0,-49.0,-996.0,160.0
-6.0,-246.0,40.0,45.0,-22.0,-6.0,-45.0,-1000.0,162.0
-5.0,-242.0,31.0,44.0,-16.0,-3.0,-49.0,-996.0,161.0
-5.0,-243.0,39.0,42.0,-14.0,-3.0,-51.0,-1002.0,162.0
-2.0,-244.0,36.0,41.0,-9.0,-1.0,-56.0,-999.0,164.0
-6.0,-245.0,42.0,43.0,-6.0,0.0,-50.0,-1002.0,165.0
-4.0,-245.0,38.0,46.0,-5.0,-1.0,-57.0,-1006.0,172.0
-3.0,-243.0,45.0,49.0,-4.0,-1.0,-50.0,-1006.0,169.0
-4.0,-242.0,43.0,56.0,-5.0,-3.0,-52.0,-1011.0,183.0
-4.0,-245.0,43.0,61.0,-5.0,-3.0,-50.0,-1004.0,178.0
-8.0,-242.0,44.0,69.0,-8.0,-2.0,-53.0,-1009.0,181.0
-6.0,-246.0,41.0,73.0,-11.0,0.0,-54.0,-1003.0,178.0
-4.0,-245.0,40.0,75.0,-12.0,0.0,-54.0,-1007.0,175.0
-8.0,-247.0,43.0,75.0,-12.0,-1.0,-55.0,-1003.0,180.0
-8.0,-242.0,43.0,75.0,-10.0,-1.0,-62.0,-1007.0,182.0
-4.0,-243.0,45.0,73.0,-10.0,-4.0,-52.0,-1002.0,182.0
-4.0,-243.0,45.0,71.0,-8.0,-5.0,-55.0,-1006.0,184.0
-5.0,-249.0,45.0,69.0,-6.0,-7.0,-51.0,-1007.0,186.0
-2.0,-243.0,44.0,66.0,-3.0,-10.0,-52.0,-1008.0,183.0
-5.0,-247.0,44.0,64.0,-2.0,-9.0,-48.0,-1007.0,189.0
-4.0,-243.0,46.0,62.0,2.0,-11.0,-45.0,-1007.0,189.0
-5.0,-244.0,47.0,62.0,3.0,-12.0,-51.0,-1006.0,192.0
-6.0,-244.0,45.0,66.0,4.0,-11.0,-41.0,-1007.0,185.0
-5.0,-239.0,48.0,69.0,7.0,-12.0,-46.0,-1006.0,188.0
-3.0,-244.0,46.0,74.0,10.0,-12.0,-38.0,-1008.0,198.0
0.0,-245.0,46.0,77.0,13.0,-14.0,-39.0,-1010.0,189.0
0.0,-243.0,47.0,79.0,14.0,-13.0,-44.0,-1002.0,200.0
0.0,-244.0,46.0,78.0,15.0,-14.0,-38.0,-1004.0,195.0
0.0,-242.0,47.0,78.0,16.0,-15.0,-33.0,-1003.0,197.0
0.0,-244.0,45.0,74.0,15.0,-15.0,-36.0,-1004.0,200.0
-3.0,-243.0,46.0,71.0,14.0,-15.0,-37.0,-999.0,197.0
0.0,-240.0,47.0,67.0,16.0,-16.0,-40.0,-1004.0,197.0
0.0,-240.0,48.0,65.0,17.0,-16.0,-48.0,-1003.0,194.0
-3.0,-242.0,46.0,63.0,19.0,-17.0,-44.0,-1001.0,192.0
-1.0,-245.0,46.0,63.0,18.0,-17.0,-44.0,-1000.0,192.0
-4.0,-241.0,44.0,64.0,18.0,-20.0,-45.0,-994.0,191.0
-2.0,-242.0,46.0,64.0,18.0,-20.0,-49.0,-1002.0,190.0
-5.0,-243.0,46.0,67.0,17.0,-21.0,-46.0,-1002.0,192.0
-4.0,-241.0,46.0,70.0,19.0,-22.0,-51.0,-1013.0,189.0
-2.0,-241.0,46.0,73.0,22.0,-20.0,-49.0,-1006.0,191.0
-1.0,-244.0,40.0,77.0,25.0,-18.0,-50.0,-1004.0,189.0
-6.0,-242.0,48.0,83.0,29.0,-17.0,-45.0,-1015.0,186.0
-2.0,-245.0,45.0,88.0,32.0,-16.0,-43.0,-1010.0,185.0
0.0,-245.0,44.0,91.0,33.0,-17.0,-43.0,-1008.0,186.0
-2.0,-248.0,47.0,95.0,34.0,-18.0,-39.0,-1009.0,186.0
0.0,-245.0,46.0,98.0,34.0,-21.0,-35.0,-1010.0,187.0
-1.0,-245.0,45.0,100.0,33.0,-22.0,-39.0,-1003.0,189.0
-2.0,-244.0,46.0,100.0,30.0,-23.0,-47.0,-1005.0,188.0
-6.0,-242.0,43.0,97.0,28.0,-20.0,-49.0,-1002.0,197.0
-4.0,-242.0,45.0,93.0,26.0,-21.0,-51.0,-995.0,194.0
-5.0,-239.0,43.0,87.0,26.0,-22.0,-52.0,-996.0,186.0
-2.0,-245.0,47.0,81.0,26.0,-23.0,-49.0,-996.0,185.0
-2.0,-242.0,48.0,72.0,25.0,-23.0,-62.0,-993.0,189.0
-8.0,-241.0,47.0,65.0,22.0,-21.0,-66.0,-1000.0,191.0
-9.0,-243.0,46.0,56.0,19.0,-14.0,-69.0,-1003.0,183.0
-3.0,-241.0,43.0,41.0,19.0,-4.0,-57.0,-1005.0,188.0
-5.0,-242.0,43.0,28.0,21.0,3.0,-51.0,-1014.0,189.0
-1.0,-242.0,51.0,19.0,24.0,13.0,-49.0,-1008.0,200.0
0.0,-245.0,49.0,11.0,30.0,22.0,-43.0,-1013.0,203.0
1.0,-245.0,50.0,7.0,30.0,27.0,-38.0,-1011.0,205.0
-3.0,-247.0,51.0,5.0,30.0,34.0,-35.0,-1011.0,204.0
0.0,-242.0,46.0,5.0,31.0,36.0,-30.0,-1010.0,198.0
0.0,-243.0,46.0,6.0,31.0,38.0,-26.0,-1005.0,192.0
0.0,-243.0,43.0,11.0,31.0,34.0,-32.0,-1001.0,196.0
1.0,-243.0,46.0,14.0,31.0,30.0,-27.0,-1003.0,193.0
0.0,-246.0,42.0,18.0,33.0,22.0,-30.0,-1000.0,190.0
-4.0,-239.0,42.0,25.0,35.0,18.0,-38.0,-996.0,185.0
-2.0,-240.0,42.0,30.0,38.0,12.0,-36.0,-993.0,178.0
-2.0,-243.0,38.0,32.0,41.0,4.0,-40.0,-992.0,170.0
-1.0,-241.0,40.0,29.0,47.0,-5.0,-38.0,-999.0,177.0
-1.0,-243.0,43.0,24.0,51.0,-9.0,-40.0,-999.0,178.0
-2.0,-242.0,38.0,19.0,57.0,-12.0,-38.0,-1004.0,181.0
0.0,-247.0,46.0,15.0,62.0,-12.0,-31.0,-1009.0,175.0
0.0,-244.0,42.0,13.0,66.0,-11.0,-39.0,-1012.0,182.0
0.0,-247.0,43.0,12.0,67.0,-9.0,-34.0,-1013.0,187.0
-1.0,-247.0,43.0,16.0,66.0,-7.0,-38.0,-1011.0,189.0
-1.0,-244.0,41.0,23.0,68.0,-6.0,-43.0,-1013.0,186.0
-4.0,-245.0,34.0,28.0,68.0,-7.0,-43.0,-1005.0,178.0
-2.0,-247.0,43.0,34.0,67.0,-7.0,-49.0,-1012.0,179.0
-4.0,-243.0,39.0,41.0,65.0,-9.0,-46.0,-999.0,175.0
-6.0,-244.0,42.0,44.0,63.0,-13.0,-50.0,-1002.0,178.0
-5.0,-242.0,38.0,46.0,59.0,-18.0,-52.0,-992.0,177.0
-5.0,-239.0,44.0,46.0,54.0,-23.0,-50.0,-990.0,176.0
-1.0,-241.0,42.0,47.0,50.0,-29.0,-49.0,-992.0,178.0
-4.0,-239.0,38.0,47.0,47.0,-30.0,-50.0,-989.0,175.0
-4.0,-241.0,42.0,46.0,43.0,-32.0,-50.0,-994.0,181.0
-4.0,-239.0,46.0,45.0,41.0,-32.0,-50.0,-997.0,177.0
-5.0,-243.0,41.0,42.0,39.0,-32.0,-55.0,-1000.0,179.0
-6.0,-242.0,42.0,39.0,39.0,-31.0,-57.0,-995.0,183.0
-7.0,-244.0,41.0,40.0,41.0,-33.0,-61.0,-998.0,185.0
-5.0,-242.0,42.0,40.0,40.0,-32.0,-57.0,-1004.0,185.0
-3.0,-244.0,44.0,41.0,41.0,-32.0,-57.0,-1005.0,188.0
-5.0,-243.0,42.0,41.0,41.0,-33.0,-58.0,-1002.0,176.0
-7.0,-244.0,45.0,41.0,42.0,-34.0,-50.0,-1001.0,183.0
-1.0,-248.0,43.0,41.0,40.0,-36.0,-45.0,-1004.0,183.0
-4.0,-244.0,47.0,42.0,38.0,-35.0,-43.0,-1006.0,185.0
-1.0,-245.0,40.0,41.0,35.0,-37.0,-49.0,-1006.0,189.0
-7.0,-245.0,42.0,41.0,31.0,-35.0,-46.0,-1008.0,196.0
0.0,-239.0,57.0,42.0,29.0,-33.0,-46.0,-1006.0,193.0
-1.0,-244.0,45.0,43.0,27.0,-31.0,-46.0,-1007.0,194.0
-5.0,-242.0,48.0,42.0,26.0,-29.0,-48.0,-1006.0,197.0
-1.0,-241.0,48.0,42.0,25.0,-27.0,-41.0,-1002.0,192.0
-2.0,-244.0,40.0,43.0,26.0,-26.0,-52.0,-1003.0,191.0
-4.0,-241.0,44.0,43.0,30.0,-26.0,-46.0,-1005.0,193.0
-4.0,-244.0,43.0,42.0,32.0,-26.0,-52.0,-1003.0,193.0
0.0,-249.0,43.0,43.0,34.0,-30.0,-50.0,-1011.0,189.0
-4.0,-245.0,46.0,45.0,36.0,-29.0,-54.0,-1005.0,189.0
-7.0,-242.0,42.0,50.0,38.0,-31.0,-50.0,-1006.0,186.0
-4.0,-244.0,41.0,54.0,39.0,-34.0,-46.0,-1011.0,187.0
-6.0,-243.0,42.0,60.0,39.0,-35.0,-45.0,-1009.0,183.0
-2.0,-248.0,43.0,64.0,39.0,-37.0,-52.0,-1014.0,177.0
-3.0,-246.0,44.0,66.0,38.0,-37.0,-48.0,-1015.0,182.0
-2.0,-245.0,41.0,70.0,38.0,-37.0,-48.0,-1009.0,177.0
-4.0,-243.0,45.0,71.0,35.0,-36.0,-49.0,-1009.0,174.0
-6.0,-244.0,47.0,70.0,34.0,-34.0,-49.0,-1008.0,183.0
-9.0,-243.0,43.0,66.0,30.0,-30.0,-56.0,-1004.0,184.0
-8.0,-244.0,48.0,60.0,23.0,-22.0,-56.0,-1006.0,182.0
-2.0,-243.0,45.0,48.0,17.0,-13.0,-56.0,-1008.0,187.0
0.0,-244.0,43.0,36.0,17.0,-5.0,-51.0,-1006.0,191.0
-9.0,-247.0,49.0,26.0,19.0,5.0,-47.0,-1010.0,192.0
1.0,-247.0,44.0,19.0,17.0,14.0,-43.0,-1007.0,196.0
-1.0,-247.0,44.0,11.0,18.0,21.0,-42.0,-1012.0,183.0
-3.0,-247.0,43.0,3.0,17.0,23.0,-41.0,-1006.0,177.0
-2.0,-247.0,43.0,-2.0,15.0,23.0,-36.0,-1010.0,184.0
-1.0,-243.0,40.0,-5.0,17.0,22.0,-39.0,-1006.0,187.0
-2.0,-245.0,42.0,-2.0,20.0,16.0,-37.0,-1006.0,183.0
-1.0,-244.0,41.0,2.0,21.0,8.0,-44.0,-1002.0,183.0
-3.0,-236.0,39.0,8.0,23.0,2.0,-36.0,-1003.0,179.0
-4.0,-244.0,40.0,12.0,25.0,-7.0,-35.0,-997.0,169.0
-4.0,-240.0,38.0,15.0,28.0,-13.0,-36.0,-996.0,177.0
0.0,-244.0,39.0,15.0,31.0,-21.0,-39.0,-999.0,170.0
-1.0,-245.0,45.0,14.0,35.0,-28.0,-34.0,-1001.0,167.0
0.0,-242.0,42.0,12.0,38.0,-35.0,-31.0,-1000.0,183.0
-2.0,-243.0,39.0,11.0,41.0,-36.0,-43.0,-1001.0,182.0
-1.0,-243.0,43.0,10.0,43.0,-40.0,-37.0,-1004.0,179.0
-1.0,-242.0,38.0,11.0,42.0,-44.0,-35.0,-1002.0,176.0
-2.0,-243.0,40.0,11.0,41.0,-47.0,-42.0,-1001.0,173.0
-7.0,-243.0,38.0,11.0,41.0,-48.0,-44.0,-1003.0,175.0
-2.0,-242.0,40.0,12.0,38.0,-47.0,-46.0,-1006.0,178.0
-4.0,-242.0,43.0,10.0,36.0,-50.0,-51.0,-998.0,172.0
-4.0,-239.0,42.0,8.0,31.0,-50.0,-56.0,-1003.0,175.0
-8.0,-246.0,37.0,7.0,26.0,-45.0,-68.0,-1005.0,172.0
-5.0,-247.0,47.0,4.0,23.0,-39.0,-62.0,-1003.0,176.0
-9.0,-244.0,44.0,2.0,21.0,-31.0,-61.0,-1004.0,183.0
-7.0,-246.0,43.0,2.0,21.0,-24.0,-61.0,-1010.0,186.0
-4.0,-246.0,41.0,5.0,21.0,-19.0,-61.0,-1013.0,178.0
-8.0,-245.0,43.0,10.0,23.0,-16.0,-61.0,-1012.0,175.0
-5.0,-245.0,42.0,17.0,25.0,-15.0,-60.0,-1014.0,176.0
-6.0,-244.0,38.0,24.0,26.0,-16.0,-61.0,-1017.0,172.0
-10.0,-246.0,44.0,29.0,26.0,-14.0,-53.0,-1016.0,169.0
-2.0,-246.0,40.0,38.0,26.0,-16.0,-54.0,-1005.0,164.0
-6.0,-245.0,39.0,45.0,26.0,-18.0,-45.0,-1006.0,164.0
-8.0,-249.0,30.0,49.0,26.0,-18.0,-53.0,-1009.0,164.0
-1.0,-247.0,39.0,51.0,26.0,-20.0,-51.0,-1004.0,168.0
1.0,-245.0,39.0,50.0,25.0,-22.0,-53.0,-1004.0,158.0
-6.0,-243.0,39.0,49.0,26.0,-26.0,-52.0,-1010.0,170.0
-3.0,-245.0,41.0,49.0,26.0,-24.0,-48.0,-1007.0,167.0
-2.0,-247.0,40.0,52.0,26.0,-24.0,-44.0,-1013.0,167.0
-3.0,-247.0,35.0,57.0,28.0,-23.0,-44.0,-1014.0,172.0
-4.0,-245.0,40.0,65.0,29.0,-23.0,-44.0,-1014.0,165.0
-1.0,-249.0,40.0,73.0,29.0,-22.0,-42.0,-1013.0,165.0
-2.0,-249.0,39.0,80.0,29.0,-22.0,-46.0,-1010.0,163.0
5.0,-248.0,32.0,88.0,29.0,-21.0,-44.0,-1010.0,164.0
-2.0,-246.0,40.0,91.0,29.0,-22.0,-45.0,-1003.0,157.0
0.0,-245.0,38.0,92.0,29.0,-25.0,-42.0,-1005.0,165.0
-1.0,-244.0,38.0,90.0,27.0,-25.0,-39.0,-1000.0,164.0
-3.0,-243.0,37.0,88.0,26.0,-27.0,-39.0,-1001.0,168.0
-3.0,-243.0,39.0,86.0,23.0,-28.0,-38.0,-1003.0,167.0
-3.0,-244.0,37.0,83.0,20.0,-29.0,-41.0,-998.0,168.0
0.0,-243.0,44.0,79.0,18.0,-28.0,-47.0,-1008.0,162.0
-2.0,-244.0,40.0,76.0,16.0,-28.0,-40.0,-1003.0,167.0
-1.0,-248.0,42.0,73.0,16.0,-27.0,-40.0,-1004.0,166.0
-7.0,-241.0,42.0,71.0,17.0,-25.0,-38.0,-1006.0,168.0
-6.0,-249.0,38.0,68.0,16.0,-23.0,-44.0,-1008.0,167.0
-1.0,-245.0,43.0,64.0,13.0,-22.0,-45.0,-1007.0,175.0
0.0,-247.0,43.0,60.0,12.0,-21.0,-42.0,-1005.0,178.0
0.0,-244.0,42.0,58.0,12.0,-20.0,-39.0,-1016.0,176.0
-2.0,-244.0,41.0,54.0,13.0,-19.0,-43.0,-1012.0,175.0
1.0,-244.0,42.0,54.0,12.0,-18.0,-36.0,-1013.0,172.0
-2.0,-245.0,39.0,54.0,9.0,-16.0,-38.0,-1008.0,178.0
-2.0,-248.0,42.0,54.0,6.0,-14.0,-36.0,-1011.0,172.0
-2.0,-243.0,38.0,53.0,6.0,-12.0,-44.0,-1006.0,166.0
0.0,-246.0,41.0,54.0,6.0,-11.0,-38.0,-1006.0,172.0
-2.0,-245.0,35.0,53.0,6.0,-10.0,-41.0,-1008.0,166.0
-5.0,-243.0,40.0,52.0,5.0,-13.0,-40.0,-1005.0,168.0
-2.0,-245.0,38.0,48.0,5.0,-13.0,-42.0,-1008.0,167.0
-1.0,-246.0,41.0,45.0,4.0,-11.0,-45.0,-1003.0,167.0
0.0,-245.0,41.0,44.0,3.0,-9.0,-44.0,-1008.0,166.0
-2.0,-243.0,38.0,42.0,4.0,-8.0,-38.0,-1009.0,172.0
-2.0,-245.0,39.0,40.0,5.0,-6.0,-37.0,-1012.0,165.0
-1.0,-244.0,37.0,40.0,6.0,-8.0,-37.0,-1009.0,167.0
-2.0,-248.0,39.0,41.0,6.0,-11.0,-39.0,-1009.0,171.0
-1.0,-243.0,40.0,43.0,7.0,-13.0,-40.0,-1005.0,170.0
2.0,-244.0,41.0,47.0,8.0,-14.0,-34.0,-1005.0,169.0
12.0,-240.0,39.0,51.0,5.0,-14.0,-33.0,-1005.0,169.0
-1.0,-242.0,40.0,50.0,2.0,-15.0,-39.0,-1005.0,165.0
0.0,-247.0,41.0,52.0,3.0,-13.0,-39.0,-1003.0,171.0
-2.0,-244.0,40.0,51.0,2.0,-14.0,-38.0,-1007.0,171.0
-1.0,-245.0,35.0,49.0,4.0,-14.0,-39.0,-1001.0,170.0
-5.0,-241.0,43.0,43.0,6.0,-11.0,-35.0,-1002.0,169.0
-2.0,-243.0,41.0,36.0,6.0,-11.0,-42.0,-1009.0,171.0
-6.0,-247.0,37.0,27.0,5.0,-11.0,-46.0,-1009.0,176.0
-5.0,-243.0,42.0,20.0,6.0,-11.0,-48.0,-1005.0,180.0
-5.0,-242.0,44.0,13.0,8.0,-11.0,-54.0,-1006.0,172.0
-7.0,-245.0,43.0,8.0,8.0,-8.0,-54.0,-1009.0,174.0
-6.0,-246.0,42.0,1.0,9.0,-7.0,-52.0,-1017.0,182.0
-2.0,-248.0,42.0,-4.0,11.0,-8.0,-54.0,-1022.0,182.0
-4.0,-249.0,44.0,-9.0,11.0,-11.0,-50.0,-1024.0,179.0
-2.0,-249.0,41.0,-13.0,10.0,-17.0,-48.0,-1026.0,182.0
0.0,-249.0,42.0,-17.0,8.0,-26.0,-46.0,-1033.0,176.0
-6.0,-248.0,42.0,-23.0,5.0,-38.0,-47.0,-1032.0,178.0
-2.0,-250.0,40.0,-30.0,2.0,-51.0,-46.0,-1036.0,172.0
-3.0,-247.0,34.0,-39.0,-2.0,-59.0,-41.0,-1026.0,164.0
-1.0,-251.0,34.0,-51.0,-2.0,-62.0,-38.0,-1026.0,153.0
0.0,-250.0,34.0,-66.0,-2.0,-64.0,-40.0,-1021.0,151.0
-6.0,-246.0,39.0,-88.0,-2.0,-67.0,-41.0,-1026.0,146.0
-4.0,-249.0,30.0,-118.0,-1.0,-67.0,-41.0,-1028.0,147.0
0.0,-242.0,37.0,-152.0,4.0,-64.0,-43.0,-1034.0,151.0
-3.0,-248.0,37.0,-189.0,17.0,-53.0,-37.0,-1034.0,157.0
0.0,-250.0,34.0,-239.0,36.0,-35.0,-44.0,-1046.0,155.0
-1.0,-253.0,42.0,-306.0,57.0,-15.0,-48.0,-1060.0,170.0
-3.0,-255.0,48.0,-380.0,79.0,8.0,-44.0,-1065.0,183.0
-1.0,-259.0,48.0,-443.0,102.0,26.0,-43.0,-1061.0,205.0
-4.0,-257.0,52.0,-471.0,114.0,31.0,-51.0,-1058.0,213.0
-13.0,-253.0,43.0,-465.0,96.0,22.0,-73.0,-1037.0,203.0
-14.0,-249.0,46.0,-446.0,60.0,23.0,-84.0,-1037.0,192.0
-6.0,-247.0,42.0,-456.0,34.0,48.0,-62.0,-1050.0,186.0
1.0,-259.0,46.0,-501.0,36.0,91.0,-47.0,-1065.0,203.0
-10.0,-261.0,49.0,-548.0,51.0,127.0,-63.0,-1071.0,218.0
-23.0,-258.0,50.0,-566.0,45.0,143.0,-102.0,-1065.0,220.0
-25.0,-256.0,42.0,-542.0,8.0,149.0,-127.0,-1067.0,177.0
-27.0,-263.0,36.0,-494.0,-20.0,150.0,-137.0,-1085.0,150.0
-33.0,-267.0,28.0,-434.0,-34.0,125.0,-160.0,-1100.0,128.0
-32.0,-269.0,17.0,-368.0,-64.0,98.0,-154.0,-1097.0,79.0
-35.0,-265.0,5.0,-298.0,-103.0,80.0,-151.0,-1079.0,34.0
-31.0,-258.0,-9.0,-226.0,-137.0,52.0,-150.0,-1067.0,-26.0
-23.0,-254.0,-16.0,-194.0,-162.0,37.0,-122.0,-1050.0,-47.0
-12.0,-245.0,-14.0,-190.0,-171.0,38.0,-75.0,-1010.0,-55.0
-2.0,-235.0,-26.0,-194.0,-166.0,44.0,-47.0,-970.0,-86.0
-4.0,-224.0,-39.0,-246.0,-169.0,46.0,-25.0,-936.0,-137.0
7.0,-211.0,-51.0,-363.0,-191.0,63.0,4.0,-902.0,-177.0
11.0,-203.0,-53.0,-513.0,-220.0,85.0,33.0,-859.0,-190.0
19.0,-196.0,-51.0,-642.0,-239.0,101.0,43.0,-819.0,-178.0
18.0,-189.0,-44.0,-720.0,-234.0,97.0,38.0,-783.0,-164.0
14.0,-177.0,-39.0,-751.0,-206.0,89.0,35.0,-740.0,-148.0
13.0,-175.0,-39.0,-745.0,-165.0,78.0,26.0,-725.0,-132.0
15.0,-177.0,-31.0,-719.0,-109.0,65.0,38.0,-720.0,-116.0
17.0,-178.0,-23.0,-690.0,-58.0,47.0,39.0,-745.0,-84.0
19.0,-186.0,-11.0,-653.0,-21.0,30.0,45.0,-770.0,-48.0
19.0,-197.0,0.0,-617.0,-4.0,17.0,45.0,-811.0,-5.0
19.0,-212.0,6.0,-586.0,-1.0,6.0,46.0,-864.0,53.0
18.0,-228.0,31.0,-555.0,-4.0,0.0,38.0,-933.0,122.0
16.0,-235.0,41.0,-518.0,-7.0,-2.0,18.0,-976.0,183.0
4.0,-250.0,61.0,-472.0,-6.0,3.0,-14.0,-1035.0,257.0
0.0,-263.0,77.0,-421.0,-7.0,7.0,-37.0,-1085.0,324.0
1.0,-275.0,90.0,-362.0,-4.0,14.0,-38.0,-1129.0,373.0
0.0,-283.0,104.0,-298.0,6.0,14.0,-47.0,-1155.0,429.0
-4.0,-283.0,117.0,-238.0,19.0,2.0,-52.0,-1165.0,489.0
-1.0,-281.0,136.0,-187.0,33.0,-12.0,-51.0,-1159.0,566.0
2.0,-276.0,157.0,-154.0,42.0,-27.0,-36.0,-1137.0,630.0
0.0,-265.0,155.0,-138.0,51.0,-25.0,-36.0,-1108.0,654.0
4.0,-265.0,152.0,-145.0,56.0,-10.0,-28.0,-1100.0,645.0
0.0,-261.0,146.0,-167.0,58.0,10.0,-38.0,-1091.0,613.0
-1.0,-262.0,132.0,-198.0,56.0,39.0,-47.0,-1085.0,556.0
-6.0,-256.0,116.0,-227.0,45.0,64.0,-65.0,-1073.0,491.0
-9.0,-253.0,93.0,-244.0,31.0,89.0,-66.0,-1061.0,412.0
-10.0,-253.0,85.0,-259.0,10.0,109.0,-73.0,-1045.0,348.0
-9.0,-254.0,69.0,-285.0,-4.0,112.0,-73.0,-1050.0,286.0
-11.0,-256.0,52.0,-336.0,1.0,98.0,-89.0,-1065.0,236.0
-16.0,-252.0,49.0,-425.0,6.0,72.0,-90.0,-1080.0,201.0
-26.0,-261.0,40.0,-546.0,-6.0,42.0,-113.0,-1105.0,168.0
-36.0,-268.0,33.0,-684.0,-37.0,19.0,-152.0,-1131.0,138.0
-44.0,-282.0,22.0,-821.0,-87.0,12.0,-210.0,-1185.0,88.0
-62.0,-302.0,11.0,-934.0,-153.0,13.0,-257.0,-1249.0,58.0
-66.0,-320.0,7.0,-1000.0,-220.0,19.0,-302.0,-1302.0,46.0
-64.0,-330.0,1.0,-1011.0,-270.0,26.0,-287.0,-1362.0,25.0
-55.0,-338.0,-6.0,-981.0,-303.0,16.0,-231.0,-1391.0,-11.0
-27.0,-339.0,-17.0,-940.0,-314.0,-8.0,-137.0,-1394.0,-54.0
7.0,-329.0,-31.0,-907.0,-290.0,-43.0,4.0,-1352.0,-103.0
50.0,-309.0,-33.0,-888.0,-218.0,-85.0,147.0,-1278.0,-90.0
79.0,-295.0,-11.0,-857.0,-120.0,-108.0,270.0,-1215.0,-48.0
92.0,-305.0,-2.0,-808.0,-23.0,-117.0,329.0,-1247.0,-2.0
77.0,-329.0,4.0,-779.0,37.0,-135.0,283.0,-1351.0,31.0
38.0,-353.0,11.0,-788.0,46.0,-157.0,137.0,-1447.0,50.0
6.0,-375.0,12.0,-815.0,33.0,-151.0,7.0,-1520.0,59.0
-17.0,-386.0,13.0,-846.0,34.0,-110.0,-76.0,-1593.0,46.0
-30.0,-383.0,-1.0,-884.0,49.0,-59.0,-136.0,-1574.0,21.0
-47.0,-371.0,-9.0,-959.0,56.0,-3.0,-200.0,-1537.0,-21.0
-58.0,-365.0,-22.0,-1072.0,45.0,42.0,-239.0,-1520.0,-59.0
-61.0,-378.0,-39.0,-1209.0,35.0,80.0,-254.0,-1549.0,-100.0
-63.0,-393.0,-37.0,-1353.0,29.0,108.0,-253.0,-1632.0,-127.0
-54.0,-417.0,-44.0,-1463.0,25.0,119.0,-222.0,-1710.0,-115.0
-41.0,-438.0,-34.0,-1492.0,11.0,113.0,-184.0,-1776.0,-116.0
-25.0,-450.0,-32.0,-1425.0,-9.0,99.0,-119.0,-1809.0,-108.0
-14.0,-454.0,-36.0,-1266.0,-26.0,87.0,-81.0,-1834.0,-116.0
-2.0,-463.0,-41.0,-1052.0,-40.0,80.0,-37.0,-1864.0,-123.0
2.0,-468.0,-43.0,-832.0,-46.0,77.0,-9.0,-1894.0,-138.0
9.0,-473.0,-36.0,-635.0,-40.0,76.0,18.0,-1914.0,-128.0
14.0,-465.0,-40.0,-479.0,-25.0,65.0,35.0,-1895.0,-126.0
10.0,-455.0,-33.0,-367.0,-4.0,53.0,31.0,-1853.0,-132.0
12.0,-442.0,-48.0,-302.0,19.0,36.0,14.0,-1803.0,-155.0
10.0,-431.0,-58.0,-274.0,51.0,26.0,15.0,-1750.0,-168.0
10.0,-415.0,-58.0,-268.0,92.0,22.0,16.0,-1709.0,-215.0
10.0,-411.0,-65.0,-275.0,141.0,11.0,14.0,-1685.0,-239.0
6.0,-407.0,-73.0,-287.0,206.0,-8.0,-2.0,-1670.0,-273.0
1.0,-404.0,-79.0,-299.0,257.0,-27.0,-9.0,-1660.0,-321.0
1.0,-400.0,-89.0,-307.0,303.0,-43.0,-15.0,-1639.0,-340.0
0.0,-402.0,-95.0,-305.0,342.0,-53.0,-22.0,-1638.0,-351.0
-7.0,-399.0,-92.0,-293.0,373.0,-61.0,-35.0,-1638.0,-342.0
-8.0,-401.0,-79.0,-268.0,395.0,-60.0,-49.0,-1637.0,-313.0
-12.0,-400.0,-78.0,-215.0,410.0,-60.0,-53.0,-1632.0,-294.0
-14.0,-399.0,-66.0,-158.0,419.0,-61.0,-63.0,-1639.0,-256.0
-13.0,-401.0,-59.0,-99.0,418.0,-54.0,-65.0,-1658.0,-200.0
-7.0,-404.0,-51.0,-39.0,409.0,-44.0,-58.0,-1661.0,-186.0
-14.0,-406.0,-45.0,8.0,395.0,-39.0,-67.0,-1662.0,-167.0
-15.0,-406.0,-43.0,43.0,371.0,-34.0,-82.0,-1657.0,-162.0
-14.0,-399.0,-39.0,66.0,345.0,-20.0,-80.0,-1644.0,-158.0
-15.0,-394.0,-46.0,82.0,327.0,4.0,-77.0,-1626.0,-165.0
-13.0,-388.0,-47.0,90.0,324.0,33.0,-64.0,-1601.0,-176.0
-10.0,-386.0,-51.0,89.0,328.0,63.0,-57.0,-1580.0,-180.0
-5.0,-376.0,-54.0,90.0,339.0,90.0,-51.0,-1546.0,-200.0
-9.0,-375.0,-54.0,96.0,356.0,108.0,-54.0,-1530.0,-186.0
-13.0,-369.0,-54.0,112.0,369.0,118.0,-49.0,-1511.0,-179.0
-5.0,-366.0,-41.0,134.0,370.0,121.0,-37.0,-1486.0,-144.0
-1.0,-364.0,-33.0,168.0,362.0,118.0,-32.0,-1480.0,-116.0
-1.0,-362.0,-24.0,207.0,346.0,108.0,-27.0,-1475.0,-81.0
-1.0,-362.0,-9.0,242.0,324.0,99.0,-30.0,-1469.0,-33.0
-1.0,-357.0,-4.0,275.0,296.0,92.0,-29.0,-1464.0,0.0
-7.0,-358.0,4.0,303.0,260.0,93.0,-45.0,-1467.0,22.0
-7.0,-360.0,8.0,317.0,218.0,100.0,-55.0,-1475.0,39.0
-14.0,-356.0,4.0,321.0,166.0,109.0,-80.0,-1469.0,40.0
-18.0,-360.0,8.0,317.0,125.0,125.0,-92.0,-1473.0,48.0
-18.0,-363.0,4.0,311.0,93.0,145.0,-110.0,-1478.0,41.0
-18.0,-362.0,3.0,307.0,75.0,156.0,-109.0,-1482.0,34.0
-12.0,-364.0,4.0,310.0,69.0,162.0,-84.0,-1469.0,19.0
-6.0,-360.0,2.0,324.0,82.0,158.0,-57.0,-1458.0,23.0
-2.0,-358.0,-2.0,362.0,105.0,146.0,-43.0,-1448.0,8.0
-3.0,-348.0,0.0,410.0,123.0,130.0,-48.0,-1424.0,4.0
-9.0,-340.0,-6.0,466.0,124.0,112.0,-64.0,-1399.0,-19.0
-18.0,-329.0,-8.0,527.0,108.0,92.0,-88.0,-1356.0,-14.0
-15.0,-320.0,-6.0,605.0,79.0,70.0,-93.0,-1298.0,-22.0
-20.0,-300.0,-8.0,689.0,49.0,43.0,-104.0,-1232.0,-19.0
-17.0,-285.0,-13.0,764.0,19.0,10.0,-101.0,-1177.0,-34.0
-22.0,-271.0,-9.0,810.0,-10.0,-25.0,-114.0,-1108.0,-32.0
-30.0,-251.0,-3.0,826.0,-43.0,-47.0,-124.0,-1035.0,-26.0
-28.0,-233.0,-3.0,825.0,-78.0,-58.0,-130.0,-976.0,-10.0
-30.0,-219.0,-2.0,806.0,-119.0,-60.0,-139.0,-914.0,3.0
-29.0,-205.0,-2.0,785.0,-155.0,-57.0,-142.0,-863.0,5.0
-28.0,-192.0,-6.0,752.0,-180.0,-58.0,-147.0,-806.0,-6.0
-31.0,-177.0,-12.0,717.0,-195.0,-55.0,-149.0,-753.0,-30.0
-31.0,-163.0,-13.0,674.0,-209.0,-44.0,-154.0,-694.0,-52.0
-36.0,-144.0,-19.0,628.0,-223.0,-34.0,-166.0,-623.0,-73.0
-41.0,-127.0,-27.0,580.0,-236.0,-24.0,-181.0,-558.0,-99.0
-42.0,-115.0,-30.0,524.0,-257.0,-18.0,-198.0,-468.0,-131.0
-55.0,-97.0,-35.0,451.0,-286.0,-16.0,-230.0,-396.0,-135.0
-57.0,-77.0,-34.0,369.0,-305.0,-16.0,-245.0,-338.0,-125.0
-57.0,-65.0,-28.0,288.0,-315.0,-22.0,-248.0,-286.0,-108.0
-58.0,-57.0,-15.0,212.0,-320.0,-35.0,-251.0,-256.0,-76.0
-56.0,-55.0,-12.0,142.0,-321.0,-58.0,-245.0,-242.0,-42.0
-57.0,-59.0,-1.0,82.0,-317.0,-95.0,-253.0,-243.0,-2.0
-58.0,-60.0,3.0,39.0,-302.0,-140.0,-250.0,-256.0,17.0
-47.0,-68.0,9.0,23.0,-271.0,-178.0,-227.0,-287.0,35.0
-36.0,-82.0,5.0,41.0,-235.0,-206.0,-192.0,-313.0,29.0
-29.0,-80.0,5.0,92.0,-193.0,-222.0,-152.0,-336.0,24.0
-21.0,-79.0,9.0,168.0,-144.0,-240.0,-127.0,-332.0,44.0
-15.0,-72.0,17.0,274.0,-104.0,-248.0,-97.0,-321.0,60.0
-1.0,-71.0,15.0,400.0,-79.0,-237.0,-50.0,-296.0,73.0
4.0,-68.0,12.0,530.0,-58.0,-217.0,-13.0,-271.0,56.0
20.0,-58.0,9.0,648.0,-24.0,-183.0,35.0,-238.0,38.0
32.0,-45.0,5.0,749.0,29.0,-143.0,81.0,-202.0,18.0
43.0,-44.0,-7.0,824.0,87.0,-99.0,121.0,-176.0,-16.0
48.0,-35.0,-14.0,888.0,131.0,-53.0,150.0,-153.0,-36.0
49.0,-32.0,-19.0,967.0,148.0,-12.0,157.0,-120.0,-69.0
54.0,-22.0,-29.0,1070.0,134.0,28.0,164.0,-85.0,-107.0
47.0,-7.0,-37.0,1186.0,82.0,71.0,160.0,-35.0,-151.0
43.0,3.0,-54.0,1293.0,4.0,115.0,153.0,10.0,-194.0
45.0,22.0,-61.0,1364.0,-78.0,157.0,140.0,67.0,-245.0
40.0,31.0,-69.0,1381.0,-142.0,184.0,128.0,113.0,-294.0
31.0,50.0,-82.0,1339.0,-169.0,187.0,94.0,165.0,-338.0
23.0,64.0,-96.0,1252.0,-157.0,171.0,57.0,225.0,-385.0
12.0,78.0,-109.0,1123.0,-117.0,145.0,20.0,267.0,-439.0
5.0,79.0,-122.0,966.0,-68.0,126.0,-14.0,269.0,-488.0
-1.0,81.0,-121.0,779.0,-13.0,112.0,-18.0,281.0,-490.0
-5.0,76.0,-122.0,621.0,25.0,97.0,-43.0,273.0,-491.0
-14.0,73.0,-122.0,508.0,35.0,89.0,-64.0,255.0,-506.0
-12.0,57.0,-125.0,421.0,19.0,85.0,-67.0,215.0,-505.0
-16.0,47.0,-126.0,357.0,-13.0,80.0,-84.0,177.0,-519.0
-14.0,32.0,-128.0,304.0,-39.0,79.0,-83.0,131.0,-513.0
-17.0,27.0,-123.0,259.0,-55.0,71.0,-91.0,89.0,-507.0
-23.0,14.0,-115.0,211.0,-63.0,58.0,-112.0,42.0,-472.0
-28.0,1.0,-105.0,157.0,-69.0,54.0,-124.0,-11.0,-430.0
-30.0,-16.0,-88.0,102.0,-85.0,54.0,-135.0,-71.0,-367.0
-28.0,-30.0,-75.0,49.0,-113.0,63.0,-123.0,-155.0,-319.0
-22.0,-63.0,-73.0,-13.0,-151.0,70.0,-117.0,-251.0,-282.0
-16.0,-95.0,-66.0,-99.0,-188.0,88.0,-85.0,-410.0,-251.0
-1.0,-126.0,-60.0,-208.0,-215.0,108.0,-35.0,-530.0,-231.0
2.0,-152.0,-56.0,-302.0,-236.0,127.0,0.0,-650.0,-212.0
14.0,-180.0,-51.0,-346.0,-250.0,143.0,36.0,-750.0,-193.0
17.0,-209.0,-48.0,-325.0,-256.0,157.0,58.0,-841.0,-168.0
21.0,-228.0,-43.0,-237.0,-252.0,159.0,58.0,-917.0,-161.0
13.0,-238.0,-42.0,-96.0,-241.0,154.0,39.0,-962.0,-149.0
12.0,-244.0,-39.0,76.0,-224.0,148.0,27.0,-990.0,-130.0
10.0,-250.0,-32.0,255.0,-202.0,145.0,18.0,-1002.0,-119.0
8.0,-251.0,-32.0,418.0,-174.0,147.0,7.0,-1007.0,-104.0
8.0,-251.0,-29.0,555.0,-140.0,150.0,5.0,-1019.0,-94.0
6.0,-254.0,-22.0,664.0,-106.0,151.0,-1.0,-1037.0,-74.0
8.0,-256.0,-14.0,734.0,-70.0,153.0,-4.0,-1062.0,-52.0
6.0,-269.0,-12.0,759.0,-38.0,152.0,-7.0,-1108.0,-41.0
4.0,-283.0,-11.0,740.0,-6.0,146.0,-14.0,-1157.0,-33.0
2.0,-302.0,-10.0,672.0,37.0,142.0,-20.0,-1237.0,-37.0
-1.0,-320.0,-13.0,558.0,90.0,131.0,-22.0,-1327.0,-45.0
-3.0,-342.0,-15.0,413.0,145.0,111.0,-43.0,-1417.0,-33.0
-9.0,-369.0,-13.0,270.0,188.0,87.0,-54.0,-1518.0,-40.0
-19.0,-392.0,-10.0,154.0,211.0,50.0,-94.0,-1602.0,-39.0
-27.0,-408.0,-9.0,92.0,217.0,7.0,-127.0,-1657.0,-31.0
-32.0,-422.0,-13.0,101.0,222.0,-37.0,-154.0,-1707.0,-41.0
-37.0,-423.0,-14.0,170.0,232.0,-85.0,-164.0,-1702.0,-30.0
-37.0,-415.0,-9.0,298.0,244.0,-141.0,-163.0,-1671.0,-20.0
-31.0,-400.0,-9.0,471.0,256.0,-206.0,-150.0,-1623.0,-25.0
-25.0,-376.0,-11.0,647.0,274.0,-268.0,-129.0,-1528.0,-25.0
-25.0,-356.0,-10.0,804.0,294.0,-316.0,-122.0,-1425.0,-30.0
-23.0,-321.0,-11.0,920.0,312.0,-339.0,-120.0,-1310.0,-25.0
-20.0,-290.0,-12.0,978.0,316.0,-339.0,-113.0,-1191.0,-28.0
-15.0,-263.0,-13.0,966.0,299.0,-328.0,-84.0,-1099.0,-35.0
-7.0,-242.0,-9.0,892.0,267.0,-315.0,-53.0,-1014.0,-38.0
0.0,-224.0,-9.0,775.0,231.0,-293.0,-28.0,-945.0,-22.0
9.0,-217.0,-5.0,642.0,204.0,-267.0,0.0,-905.0,-15.0
12.0,-203.0,-1.0,511.0,189.0,-231.0,15.0,-865.0,1.0
18.0,-199.0,1.0,402.0,182.0,-192.0,29.0,-844.0,5.0
18.0,-198.0,0.0,312.0,179.0,-153.0,33.0,-844.0,10.0
20.0,-206.0,-1.0,234.0,178.0,-115.0,35.0,-846.0,24.0
16.0,-206.0,6.0,177.0,176.0,-81.0,30.0,-853.0,41.0
14.0,-210.0,9.0,143.0,169.0,-47.0,27.0,-872.0,53.0
11.0,-213.0,14.0,128.0,158.0,-14.0,23.0,-886.0,66.0
10.0,-216.0,11.0,129.0,149.0,15.0,19.0,-897.0,75.0
9.0,-218.0,17.0,137.0,146.0,40.0,11.0,-912.0,75.0
6.0,-221.0,16.0,148.0,148.0,50.0,1.0,-911.0,83.0
5.0,-218.0,17.0,161.0,154.0,52.0,-13.0,-906.0,88.0
2.0,-214.0,21.0,180.0,164.0,50.0,-22.0,-896.0,92.0
0.0,-217.0,25.0,206.0,179.0,42.0,-34.0,-900.0,89.0
-2.0,-214.0,19.0,232.0,200.0,29.0,-44.0,-904.0,107.0
-5.0,-222.0,25.0,255.0,216.0,18.0,-41.0,-916.0,121.0
-5.0,-226.0,27.0,272.0,226.0,11.0,-50.0,-934.0,128.0
-10.0,-232.0,31.0,278.0,226.0,2.0,-65.0,-952.0,133.0
-11.0,-237.0,28.0,275.0,213.0,-12.0,-80.0,-982.0,128.0
-14.0,-244.0,27.0,265.0,200.0,-32.0,-78.0,-1004.0,123.0
-9.0,-249.0,25.0,245.0,194.0,-55.0,-87.0,-1034.0,114.0
-14.0,-258.0,21.0,224.0,200.0,-76.0,-86.0,-1070.0,101.0
-14.0,-266.0,18.0,204.0,217.0,-102.0,-83.0,-1087.0,102.0
-16.0,-270.0,17.0,194.0,233.0,-123.0,-101.0,-1113.0,93.0
-18.0,-274.0,18.0,200.0,244.0,-146.0,-102.0,-1126.0,92.0
-17.0,-277.0,18.0,217.0,244.0,-164.0,-103.0,-1136.0,79.0
-18.0,-279.0,8.0,242.0,232.0,-176.0,-95.0,-1133.0,86.0
-14.0,-268.0,25.0,278.0,210.0,-183.0,-84.0,-1114.0,88.0
-12.0,-261.0,22.0,327.0,186.0,-189.0,-67.0,-1083.0,99.0
-10.0,-254.0,19.0,383.0,161.0,-188.0,-63.0,-1057.0,94.0
-5.0,-246.0,19.0,427.0,144.0,-180.0,-48.0,-1021.0,93.0
-6.0,-239.0,15.0,440.0,130.0,-166.0,-50.0,-999.0,84.0
-6.0,-238.0,19.0,415.0,119.0,-148.0,-53.0,-989.0,90.0
-7.0,-236.0,19.0,364.0,113.0,-128.0,-60.0,-982.0,86.0
-9.0,-236.0,18.0,298.0,107.0,-103.0,-63.0,-981.0,93.0
-11.0,-236.0,18.0,231.0,103.0,-79.0,-66.0,-982.0,97.0
-10.0,-243.0,22.0,171.0,96.0,-57.0,-68.0,-997.0,94.0
-13.0,-247.0,19.0,125.0,85.0,-39.0,-71.0,-1020.0,97.0
-12.0,-251.0,21.0,88.0,76.0,-22.0,-68.0,-1039.0,101.0
-8.0,-257.0,22.0,63.0,67.0,-7.0,-67.0,-1062.0,102.0
-11.0,-259.0,25.0,47.0,61.0,8.0,-75.0,-1072.0,101.0
-11.0,-259.0,20.0,37.0,55.0,19.0,-74.0,-1080.0,103.0
-13.0,-259.0,27.0,37.0,50.0,25.0,-65.0,-1080.0,100.0
-12.0,-256.0,22.0,43.0,44.0,28.0,-66.0,-1071.0,103.0
-9.0,-256.0,25.0,55.0,41.0,25.0,-63.0,-1060.0,106.0
-9.0,-252.0,25.0,66.0,35.0,19.0,-62.0,-1051.0,117.0
-7.0,-251.0,22.0,71.0,30.0,13.0,-59.0,-1033.0,116.0
-5.0,-249.0,32.0,72.0,29.0,4.0,-51.0,-1016.0,124.0
-2.0,-244.0,28.0,71.0,28.0,-6.0,-46.0,-1008.0,132.0
-3.0,-239.0,34.0,70.0,30.0,-17.0,-45.0,-994.0,135.0
-1.0,-238.0,37.0,73.0,37.0,-32.0,-47.0,-986.0,144.0
-8.0,-232.0,32.0,81.0,47.0,-47.0,-48.0,-978.0,139.0
-3.0,-232.0,37.0,89.0,55.0,-60.0,-47.0,-961.0,144.0
-1.0,-229.0,34.0,93.0,58.0,-71.0,-53.0,-954.0,151.0
-1.0,-232.0,34.0,95.0,56.0,-76.0,-50.0,-954.0,146.0
0.0,-232.0,31.0,89.0,53.0,-76.0,-44.0,-957.0,146.0
-3.0,-234.0,33.0,77.0,49.0,-73.0,-31.0,-963.0,156.0
0.0,-234.0,36.0,64.0,47.0,-71.0,-20.0,-981.0,157.0
9.0,-242.0,38.0,50.0,50.0,-64.0,-14.0,-986.0,160.0
3.0,-243.0,36.0,38.0,56.0,-57.0,-13.0,-990.0,168.0
2.0,-241.0,38.0,29.0,65.0,-49.0,-29.0,-996.0,173.0
0.0,-244.0,40.0,22.0,72.0,-43.0,-42.0,-998.0,174.0
-4.0,-242.0,45.0,18.0,77.0,-38.0,-40.0,-996.0,170.0
0.0,-245.0,43.0,13.0,78.0,-37.0,-35.0,-1005.0,171.0
0.0,-244.0,39.0,6.0,76.0,-34.0,-42.0,-1006.0,166.0
-3.0,-243.0,38.0,-6.0,78.0,-29.0,-44.0,-1000.0,161.0
-2.0,-245.0,35.0,-20.0,78.0,-24.0,-53.0,-995.0,163.0
-11.0,-240.0,37.0,-37.0,79.0,-18.0,-59.0,-991.0,152.0
-12.0,-239.0,36.0,-54.0,77.0,-10.0,-71.0,-994.0,149.0
-18.0,-239.0,31.0,-70.0,74.0,-2.0,-82.0,-998.0,152.0
-14.0,-245.0,35.0,-78.0,71.0,0.0,-92.0,-1002.0,148.0
-18.0,-246.0,34.0,-78.0,69.0,2.0,-112.0,-1002.0,143.0
-22.0,-244.0,31.0,-70.0,66.0,1.0,-114.0,-1005.0,147.0
-19.0,-245.0,32.0,-61.0,57.0,-1.0,-118.0,-1015.0,138.0
-22.0,-247.0,31.0,-56.0,49.0,-3.0,-109.0,-1019.0,143.0
-21.0,-251.0,30.0,-55.0,39.0,-3.0,-111.0,-1037.0,135.0
-20.0,-251.0,31.0,-56.0,29.0,-1.0,-104.0,-1038.0,139.0
-20.0,-254.0,33.0,-56.0,18.0,2.0,-102.0,-1053.0,134.0
-18.0,-255.0,25.0,-53.0,4.0,2.0,-98.0,-1046.0,124.0
-18.0,-252.0,24.0,-45.0,-10.0,-1.0,-97.0,-1051.0,122.0
-14.0,-252.0,29.0,-31.0,-25.0,-3.0,-95.0,-1036.0,107.0
-14.0,-250.0,25.0,-17.0,-40.0,-4.0,-89.0,-1033.0,104.0
-14.0,-249.0,26.0,-7.0,-54.0,-7.0,-85.0,-1024.0,113.0
-13.0,-250.0,23.0,1.0,-67.0,-7.0,-86.0,-1016.0,117.0
-10.0,-247.0,25.0,3.0,-78.0,-6.0,-84.0,-1015.0,121.0
-12.0,-248.0,31.0,1.0,-87.0,-4.0,-76.0,-1022.0,127.0
-12.0,-248.0,33.0,2.0,-97.0,-1.0,-79.0,-1022.0,131.0
-16.0,-248.0,34.0,2.0,-105.0,6.0,-80.0,-1019.0,136.0
-16.0,-251.0,30.0,4.0,-113.0,14.0,-84.0,-1018.0,129.0
-16.0,-242.0,25.0,7.0,-118.0,22.0,-86.0,-1022.0,129.0
-14.0,-249.0,29.0,13.0,-125.0,27.0,-87.0,-1016.0,123.0
-16.0,-246.0,30.0,23.0,-128.0,30.0,-101.0,-1019.0,123.0
-17.0,-248.0,30.0,33.0,-133.0,30.0,-92.0,-1014.0,129.0
-14.0,-249.0,25.0,40.0,-137.0,26.0,-92.0,-1015.0,124.0
-11.0,-244.0,26.0,45.0,-142.0,24.0,-83.0,-1008.0,133.0
-9.0,-245.0,31.0,48.0,-146.0,24.0,-70.0,-1006.0,132.0
-8.0,-242.0,27.0,52.0,-146.0,23.0,-65.0,-998.0,129.0
-6.0,-240.0,30.0,53.0,-148.0,24.0,-48.0,-999.0,128.0
-2.0,-242.0,28.0,52.0,-150.0,25.0,-41.0,-996.0,132.0
0.0,-242.0,30.0,48.0,-150.0,28.0,-40.0,-992.0,120.0
0.0,-239.0,25.0,44.0,-150.0,34.0,-43.0,-992.0,120.0
1.0,-246.0,33.0,40.0,-150.0,39.0,-47.0,-1001.0,111.0
0.0,-249.0,21.0,36.0,-149.0,43.0,-44.0,-1006.0,112.0
-1.0,-248.0,25.0,29.0,-146.0,44.0,-32.0,-1014.0,100.0
0.0,-250.0,24.0,24.0,-140.0,45.0,-27.0,-1016.0,107.0
0.0,-246.0,25.0,21.0,-131.0,43.0,-36.0,-1031.0,112.0
3.0,-254.0,21.0,24.0,-120.0,39.0,-21.0,-1029.0,103.0
4.0,-251.0,22.0,29.0,-105.0,29.0,-12.0,-1033.0,113.0
4.0,-247.0,22.0,35.0,-90.0,25.0,-1.0,-1036.0,114.0
9.0,-249.0,26.0,42.0,-75.0,20.0,13.0,-1033.0,113.0
15.0,-252.0,21.0,47.0,-60.0,15.0,20.0,-1022.0,107.0
11.0,-248.0,29.0,48.0,-49.0,10.0,16.0,-1019.0,112.0
13.0,-248.0,24.0,50.0,-37.0,9.0,9.0,-1019.0,121.0
8.0,-250.0,29.0,50.0,-29.0,3.0,0.0,-1020.0,121.0
7.0,-247.0,28.0,47.0,-20.0,-4.0,7.0,-1019.0,126.0
12.0,-249.0,29.0,38.0,-10.0,-12.0,9.0,-1019.0,122.0
2.0,-246.0,28.0,29.0,3.0,-17.0,-13.0,-1014.0,126.0
0.0,-246.0,28.0,24.0,20.0,-16.0,-25.0,-1011.0,132.0
-2.0,-244.0,29.0,28.0,24.0,-22.0,-37.0,-1005.0,134.0
-2.0,-251.0,23.0,37.0,24.0,-33.0,-39.0,-1009.0,108.0
1.0,-250.0,18.0,29.0,25.0,-38.0,-25.0,-1033.0,89.0
3.0,-251.0,21.0,-9.0,28.0,-44.0,-18.0,-1021.0,102.0
2.0,-250.0,27.0,-36.0,36.0,-48.0,-28.0,-1031.0,119.0
0.0,-253.0,30.0,-41.0,53.0,-38.0,-29.0,-1031.0,135.0
0.0,-251.0,31.0,-27.0,67.0,-28.0,-42.0,-1021.0,136.0
-1.0,-246.0,31.0,8.0,75.0,-23.0,-41.0,-1014.0,137.0
0.0,-248.0,30.0,49.0,75.0,-22.0,-43.0,-1007.0,128.0
-1.0,-244.0,27.0,77.0,65.0,-22.0,-38.0,-998.0,121.0
0.0,-242.0,24.0,90.0,49.0,-24.0,-29.0,-993.0,112.0
0.0,-239.0,22.0,90.0,32.0,-27.0,-38.0,-983.0,99.0
-3.0,-236.0,23.0,79.0,20.0,-28.0,-39.0,-981.0,96.0
-6.0,-234.0,24.0,59.0,16.0,-28.0,-45.0,-982.0,93.0
-9.0,-234.0,22.0,30.0,15.0,-27.0,-59.0,-977.0,93.0
-7.0,-242.0,21.0,5.0,13.0,-20.0,-52.0,-987.0,101.0
-1.0,-239.0,22.0,-10.0,11.0,-24.0,-53.0,-997.0,118.0
-9.0,-245.0,28.0,-12.0,10.0,-21.0,-71.0,-1016.0,121.0
-3.0,-253.0,30.0,-7.0,8.0,-13.0,-61.0,-1025.0,130.0
-7.0,-254.0,30.0,5.0,6.0,-11.0,-56.0,-1050.0,126.0
-6.0,-256.0,24.0,10.0,6.0,-11.0,-56.0,-1051.0,127.0
-9.0,-254.0,28.0,18.0,8.0,-17.0,-61.0,-1052.0,128.0
-8.0,-255.0,26.0,27.0,11.0,-24.0,-55.0,-1055.0,120.0
-9.0,-254.0,24.0,34.0,10.0,-35.0,-64.0,-1050.0,116.0
-9.0,-252.0,22.0,35.0,7.0,-39.0,-55.0,-1043.0,110.0
-6.0,-249.0,23.0,32.0,3.0,-42.0,-51.0,-1036.0,111.0
-3.0,-253.0,26.0,26.0,-1.0,-41.0,-40.0,-1022.0,112.0
0.0,-251.0,26.0,25.0,-4.0,-41.0,-33.0,-1027.0,107.0
0.0,-248.0,28.0,25.0,-7.0,-36.0,-28.0,-1017.0,114.0
-1.0,-245.0,25.0,28.0,-11.0,-31.0,-37.0,-1013.0,102.0
1.0,-245.0,23.0,28.0,-15.0,-25.0,-35.0,-1007.0,99.0
1.0,-245.0,21.0,24.0,-19.0,-20.0,-25.0,-1008.0,96.0
1.0,-242.0,20.0,17.0,-19.0,-21.0,-29.0,-1005.0,101.0
-1.0,-242.0,24.0,12.0,-14.0,-21.0,-30.0,-999.0,98.0
0.0,-243.0,20.0,7.0,-7.0,-24.0,-33.0,-997.0,95.0
-5.0,-241.0,21.0,3.0,-4.0,-29.0,-43.0,-993.0,99.0
-4.0,-238.0,24.0,-1.0,-2.0,-33.0,-49.0,-991.0,100.0
-13.0,-236.0,20.0,-7.0,1.0,-33.0,-59.0,-990.0,108.0
-7.0,-240.0,24.0,-10.0,3.0,-37.0,-62.0,-993.0,117.0
-10.0,-242.0,29.0,-15.0,6.0,-38.0,-69.0,-993.0,124.0
-7.0,-244.0,31.0,-22.0,12.0,-40.0,-66.0,-1001.0,138.0
-7.0,-246.0,36.0,-23.0,13.0,-39.0,-67.0,-1013.0,145.0
-8.0,-247.0,36.0,-17.0,10.0,-36.0,-65.0,-1005.0,151.0
-7.0,-248.0,35.0,0.0,2.0,-31.0,-60.0,-1008.0,151.0
-7.0,-246.0,32.0,23.0,-6.0,-28.0,-58.0,-1006.0,146.0
-8.0,-245.0,29.0,43.0,-14.0,-26.0,-56.0,-1005.0,134.0
-6.0,-248.0,28.0,54.0,-18.0,-24.0,-58.0,-1005.0,122.0
-2.0,-237.0,24.0,57.0,-20.0,-23.0,-48.0,-997.0,108.0
-2.0,-240.0,21.0,50.0,-19.0,-24.0,-52.0,-990.0,115.0
-3.0,-239.0,27.0,43.0,-18.0,-24.0,-48.0,-990.0,116.0
-3.0,-241.0,28.0,33.0,-14.0,-24.0,-49.0,-994.0,121.0
-1.0,-243.0,29.0,25.0,-8.0,-27.0,-39.0,-998.0,129.0
-4.0,-244.0,29.0,21.0,-5.0,-34.0,-44.0,-1007.0,134.0
-2.0,-248.0,33.0,27.0,3.0,-40.0,-45.0,-1014.0,134.0
-2.0,-252.0,34.0,33.0,10.0,-45.0,-50.0,-1021.0,132.0
-1.0,-251.0,32.0,43.0,17.0,-52.0,-52.0,-1025.0,134.0
-2.0,-253.0,32.0,54.0,23.0,-57.0,-45.0,-1044.0,131.0
-5.0,-250.0,29.0,65.0,26.0,-64.0,-42.0,-1036.0,122.0
-1.0,-252.0,28.0,70.0,28.0,-70.0,-45.0,-1033.0,128.0
0.0,-251.0,25.0,76.0,28.0,-76.0,-38.0,-1028.0,125.0
-2.0,-249.0,24.0,86.0,30.0,-76.0,-30.0,-1022.0,122.0
1.0,-249.0,27.0,96.0,31.0,-72.0,-24.0,-1023.0,119.0
2.0,-249.0,22.0,106.0,34.0,-68.0,-23.0,-1022.0,105.0
1.0,-248.0,27.0,112.0,40.0,-63.0,-20.0,-1022.0,112.0
4.0,-248.0,22.0,115.0,46.0,-57.0,-20.0,-1021.0,100.0
3.0,-248.0,23.0,114.0,51.0,-50.0,-15.0,-1026.0,92.0
5.0,-253.0,20.0,104.0,55.0,-46.0,-13.0,-1021.0,92.0
2.0,-248.0,20.0,94.0,60.0,-42.0,-16.0,-1022.0,94.0
1.0,-242.0,21.0,87.0,69.0,-41.0,-18.0,-1024.0,100.0
5.0,-251.0,23.0,86.0,78.0,-41.0,-22.0,-1028.0,100.0
-2.0,-249.0,18.0,83.0,83.0,-42.0,-39.0,-1026.0,101.0
-3.0,-249.0,17.0,76.0,87.0,-43.0,-40.0,-1036.0,87.0
-7.0,-253.0,20.0,64.0,86.0,-47.0,-50.0,-1041.0,77.0
-7.0,-253.0,17.0,50.0,85.0,-46.0,-61.0,-1044.0,77.0
-10.0,-251.0,17.0,34.0,81.0,-44.0,-72.0,-1052.0,72.0
-12.0,-255.0,17.0,20.0,76.0,-45.0,-74.0,-1058.0,78.0
-12.0,-254.0,21.0,11.0,72.0,-49.0,-85.0,-1048.0,91.0
-18.0,-254.0,19.0,10.0,68.0,-52.0,-91.0,-1058.0,100.0
-16.0,-254.0,25.0,13.0,63.0,-53.0,-92.0,-1053.0,113.0
-14.0,-254.0,27.0,23.0,60.0,-54.0,-97.0,-1036.0,118.0
-14.0,-255.0,26.0,38.0,58.0,-53.0,-90.0,-1028.0,120.0
-18.0,-247.0,23.0,54.0,52.0,-52.0,-98.0,-1012.0,118.0
-18.0,-243.0,25.0,65.0,44.0,-47.0,-100.0,-998.0,113.0
-16.0,-242.0,24.0,70.0,33.0,-42.0,-98.0,-989.0,111.0
-14.0,-240.0,25.0,71.0,20.0,-39.0,-94.0,-982.0,111.0
-14.0,-238.0,25.0,69.0,9.0,-33.0,-90.0,-981.0,111.0
-15.0,-237.0,23.0,65.0,-2.0,-31.0,-89.0,-975.0,105.0
-16.0,-238.0,25.0,59.0,-11.0,-27.0,-86.0,-975.0,118.0
-13.0,-240.0,25.0,53.0,-17.0,-28.0,-74.0,-986.0,106.0
-13.0,-240.0,27.0,46.0,-25.0,-26.0,-73.0,-989.0,105.0
-14.0,-237.0,20.0,39.0,-35.0,-25.0,-71.0,-994.0,107.0
-9.0,-242.0,28.0,35.0,-42.0,-25.0,-64.0,-995.0,112.0
-9.0,-243.0,25.0,34.0,-49.0,-24.0,-55.0,-1000.0,112.0
-4.0,-245.0,29.0,37.0,-55.0,-24.0,-54.0,-1002.0,115.0
-2.0,-246.0,29.0,43.0,-58.0,-24.0,-49.0,-1006.0,122.0
0.0,-246.0,31.0,52.0,-60.0,-26.0,-37.0,-1007.0,122.0
0.0,-248.0,25.0,61.0,-63.0,-28.0,-41.0,-1019.0,123.0
-4.0,-250.0,25.0,71.0,-62.0,-28.0,-43.0,-1012.0,124.0
-3.0,-247.0,29.0,78.0,-63.0,-30.0,-39.0,-1008.0,123.0
0.0,-248.0,27.0,89.0,-62.0,-31.0,-43.0,-1010.0,124.0
0.0,-247.0,25.0,95.0,-62.0,-30.0,-35.0,-1014.0,117.0
-1.0,-241.0,25.0,99.0,-60.0,-31.0,-34.0,-1005.0,120.0
0.0,-243.0,28.0,102.0,-59.0,-30.0,-32.0,-1001.0,119.0
0.0,-243.0,23.0,101.0,-57.0,-27.0,-20.0,-1006.0,118.0
2.0,-245.0,26.0,100.0,-56.0,-28.0,-19.0,-1007.0,118.0
4.0,-247.0,24.0,99.0,-50.0,-26.0,-15.0,-1007.0,121.0
0.0,-245.0,27.0,101.0,-44.0,-22.0,-15.0,-1013.0,115.0
2.0,-246.0,24.0,103.0,-37.0,-20.0,-15.0,-1009.0,125.0
3.0,-246.0,30.0,101.0,-32.0,-26.0,-20.0,-1010.0,127.0
5.0,-246.0,30.0,101.0,-27.0,-27.0,-19.0,-1012.0,117.0
3.0,-247.0,29.0,101.0,-19.0,-26.0,-13.0,-1014.0,114.0
2.0,-246.0,30.0,102.0,-11.0,-26.0,-19.0,-1014.0,121.0
2.0,-240.0,38.0,105.0,-4.0,-28.0,-22.0,-1014.0,116.0
1.0,-246.0,26.0,105.0,3.0,-32.0,-23.0,-1017.0,118.0
2.0,-251.0,25.0,101.0,8.0,-34.0,-21.0,-1020.0,117.0
1.0,-249.0,22.0,97.0,15.0,-33.0,-27.0,-1026.0,112.0
0.0,-252.0,27.0,91.0,22.0,-35.0,-24.0,-1029.0,104.0
1.0,-250.0,26.0,87.0,27.0,-37.0,-27.0,-1036.0,104.0
-1.0,-250.0,26.0,81.0,31.0,-38.0,-25.0,-1037.0,105.0
0.0,-253.0,24.0,80.0,35.0,-38.0,-33.0,-1045.0,111.0
-3.0,-255.0,27.0,80.0,41.0,-39.0,-31.0,-1048.0,108.0
2.0,-257.0,21.0,82.0,46.0,-39.0,-33.0,-1058.0,93.0
1.0,-256.0,20.0,84.0,53.0,-39.0,-31.0,-1055.0,94.0
-3.0,-259.0,26.0,89.0,61.0,-42.0,-33.0,-1056.0,95.0
0.0,-254.0,24.0,92.0,69.0,-42.0,-33.0,-1056.0,104.0
2.0,-256.0,22.0,97.0,74.0,-44.0,-32.0,-1053.0,107.0
0.0,-252.0,22.0,103.0,80.0,-46.0,-24.0,-1052.0,114.0
-1.0,-254.0,22.0,111.0,84.0,-46.0,-24.0,-1034.0,107.0
0.0,-251.0,23.0,119.0,88.0,-45.0,-25.0,-1031.0,106.0
2.0,-250.0,24.0,125.0,90.0,-45.0,-24.0,-1022.0,106.0
1.0,-249.0,28.0,126.0,94.0,-44.0,-26.0,-1021.0,112.0
0.0,-249.0,25.0,123.0,97.0,-43.0,-29.0,-1019.0,105.0
-1.0,-245.0,20.0,117.0,98.0,-41.0,-30.0,-1017.0,99.0
3.0,-245.0,24.0,107.0,100.0,-38.0,-34.0,-1006.0,104.0
0.0,-246.0,24.0,94.0,98.0,-35.0,-36.0,-1007.0,102.0
-4.0,-246.0,20.0,82.0,96.0,-33.0,-43.0,-1011.0,110.0
0.0,-249.0,25.0,70.0,95.0,-30.0,-41.0,-1013.0,107.0
0.0,-245.0,25.0,65.0,90.0,-29.0,-45.0,-1011.0,108.0
-2.0,-248.0,24.0,63.0,90.0,-28.0,-47.0,-1007.0,113.0
-6.0,-245.0,25.0,64.0,88.0,-25.0,-48.0,-1009.0,115.0
-7.0,-245.0,26.0,66.0,84.0,-24.0,-45.0,-1008.0,116.0
-8.0,-243.0,23.0,67.0,79.0,-23.0,-49.0,-1004.0,111.0
-7.0,-246.0,27.0,67.0,74.0,-24.0,-60.0,-1009.0,115.0
-9.0,-244.0,25.0,68.0,70.0,-24.0,-55.0,-1008.0,117.0
-4.0,-243.0,25.0,65.0,66.0,-24.0,-61.0,-1005.0,113.0
-9.0,-245.0,24.0,67.0,61.0,-25.0,-57.0,-1007.0,107.0
-6.0,-245.0,23.0,69.0,57.0,-27.0,-59.0,-1007.0,108.0
-8.0,-246.0,25.0,73.0,52.0,-27.0,-56.0,-1012.0,105.0
-7.0,-245.0,29.0,76.0,49.0,-28.0,-57.0,-1013.0,109.0
-5.0,-244.0,21.0,80.0,47.0,-31.0,-50.0,-1011.0,105.0
-4.0,-246.0,25.0,83.0,46.0,-33.0,-48.0,-1011.0,96.0
-6.0,-243.0,23.0,87.0,45.0,-36.0,-43.0,-1005.0,107.0
-4.0,-243.0,22.0,89.0,45.0,-37.0,-46.0,-1005.0,103.0
0.0,-243.0,24.0,89.0,44.0,-37.0,-41.0,-996.0,106.0
1.0,-245.0,26.0,88.0,41.0,-39.0,-41.0,-1001.0,107.0
-1.0,-242.0,24.0,86.0,39.0,-40.0,-39.0,-1000.0,110.0
-2.0,-243.0,29.0,82.0,37.0,-43.0,-34.0,-1003.0,112.0
1.0,-244.0,25.0,78.0,35.0,-42.0,-30.0,-999.0,115.0
0.0,-243.0,26.0,75.0,33.0,-42.0,-30.0,-1005.0,117.0
0.0,-244.0,27.0,73.0,32.0,-42.0,-29.0,-1003.0,119.0
-2.0,-244.0,28.0,71.0,30.0,-42.0,-33.0,-1009.0,127.0
1.0,-244.0,25.0,71.0,30.0,-42.0,-29.0,-1006.0,122.0
1.0,-245.0,30.0,71.0,31.0,-42.0,-33.0,-1009.0,121.0
1.0,-246.0,28.0,71.0,33.0,-44.0,-29.0,-1014.0,128.0
5.0,-246.0,34.0,69.0,36.0,-44.0,-28.0,-1012.0,128.0
7.0,-246.0,25.0,71.0,37.0,-45.0,-29.0,-1017.0,126.0
2.0,-249.0,25.0,71.0,40.0,-45.0,-25.0,-1011.0,129.0
-1.0,-245.0,26.0,71.0,42.0,-47.0,-27.0,-1016.0,127.0
1.0,-244.0,26.0,74.0,44.0,-47.0,-26.0,-1013.0,123.0
1.0,-245.0,28.0,75.0,46.0,-47.0,-24.0,-1012.0,122.0
0.0,-243.0,24.0,75.0,46.0,-48.0,-23.0,-1007.0,127.0
0.0,-243.0,31.0,73.0,45.0,-47.0,-28.0,-1009.0,126.0
0.0,-243.0,31.0,71.0,44.0,-46.0,-35.0,-1012.0,125.0
1.0,-248.0,33.0,67.0,45.0,-45.0,-28.0,-1006.0,119.0
1.0,-245.0,33.0,61.0,44.0,-45.0,-27.0,-1008.0,125.0
1.0,-242.0,29.0,54.0,44.0,-43.0,-29.0,-1015.0,122.0
0.0,-249.0,22.0,48.0,45.0,-42.0,-31.0,-1014.0,121.0
0.0,-244.0,26.0,41.0,49.0,-41.0,-40.0,-1015.0,119.0
0.0,-247.0,26.0,36.0,48.0,-40.0,-29.0,-1018.0,119.0
0.0,-248.0,28.0,35.0,50.0,-39.0,-36.0,-1031.0,121.0
1.0,-253.0,29.0,35.0,54.0,-39.0,-31.0,-1022.0,115.0
1.0,-247.0,27.0,38.0,57.0,-38.0,-35.0,-1022.0,126.0
0.0,-251.0,30.0,41.0,61.0,-38.0,-33.0,-1020.0,132.0
0.0,-248.0,23.0,41.0,66.0,-39.0,-37.0,-1020.0,126.0
-2.0,-250.0,31.0,43.0,68.0,-39.0,-34.0,-1027.0,134.0
0.0,-249.0,33.0,46.0,73.0,-40.0,-39.0,-1025.0,131.0
-2.0,-249.0,25.0,49.0,74.0,-40.0,-36.0,-1022.0,128.0
2.0,-250.0,25.0,50.0,74.0,-39.0,-32.0,-1029.0,126.0
0.0,-251.0,27.0,52.0,73.0,-39.0,-35.0,-1025.0,123.0
-2.0,-249.0,29.0,55.0,72.0,-41.0,-38.0,-1028.0,118.0
0.0,-249.0,28.0,56.0,71.0,-39.0,-35.0,-1022.0,119.0
-3.0,-247.0,26.0,57.0,71.0,-40.0,-35.0,-1025.0,119.0
0.0,-248.0,25.0,57.0,72.0,-39.0,-39.0,-1022.0,117.0
-2.0,-246.0,28.0,54.0,71.0,-41.0,-36.0,-1019.0,119.0
0.0,-246.0,28.0,52.0,74.0,-42.0,-39.0,-1015.0,123.0
1.0,-250.0,31.0,51.0,75.0,-41.0,-41.0,-1019.0,118.0
-3.0,-245.0,26.0,53.0,78.0,-42.0,-37.0,-1014.0,125.0
0.0,-243.0,23.0,55.0,77.0,-41.0,-36.0,-1018.0,128.0
-1.0,-246.0,27.0,56.0,79.0,-40.0,-33.0,-1014.0,128.0
-3.0,-244.0,29.0,58.0,78.0,-39.0,-40.0,-1015.0,127.0
0.0,-247.0,31.0,59.0,77.0,-37.0,-36.0,-1015.0,129.0
0.0,-244.0,26.0,59.0,76.0,-34.0,-32.0,-1014.0,122.0
-2.0,-244.0,26.0,59.0,72.0,-31.0,-35.0,-1014.0,124.0
0.0,-243.0,26.0,58.0,71.0,-28.0,-31.0,-1015.0,126.0
0.0,-246.0,27.0,57.0,69.0,-26.0,-32.0,-1012.0,129.0
1.0,-246.0,29.0,55.0,68.0,-24.0,-35.0,-1012.0,120.0
-3.0,-245.0,30.0,55.0,67.0,-24.0,-35.0,-1011.0,127.0
1.0,-243.0,27.0,52.0,66.0,-22.0,-36.0,-1010.0,132.0
0.0,-236.0,27.0,52.0,66.0,-23.0,-34.0,-1012.0,130.0
1.0,-248.0,31.0,51.0,64.0,-21.0,-31.0,-1012.0,127.0
0.0,-246.0,29.0,54.0,64.0,-23.0,-36.0,-1009.0,130.0
1.0,-242.0,31.0,56.0,62.0,-23.0,-29.0,-1011.0,133.0
0.0,-245.0,29.0,60.0,62.0,-21.0,-32.0,-1011.0,131.0
0.0,-245.0,29.0,63.0,60.0,-23.0,-31.0,-1015.0,129.0
1.0,-248.0,31.0,66.0,60.0,-25.0,-33.0,-1013.0,127.0
0.0,-245.0,32.0,67.0,60.0,-27.0,-29.0,-1012.0,127.0
-2.0,-242.0,29.0,66.0,58.0,-28.0,-30.0,-1010.0,124.0
-1.0,-247.0,29.0,63.0,57.0,-30.0,-33.0,-1013.0,128.0
1.0,-242.0,28.0,60.0,58.0,-31.0,-30.0,-1006.0,129.0
-1.0,-243.0,24.0,59.0,55.0,-31.0,-30.0,-1007.0,126.0
0.0,-246.0,30.0,58.0,55.0,-35.0,-32.0,-1012.0,131.0
0.0,-244.0,27.0,57.0,53.0,-34.0,-33.0,-1006.0,130.0
0.0,-247.0,29.0,56.0,52.0,-35.0,-35.0,-1009.0,134.0
0.0,-245.0,31.0,56.0,51.0,-34.0,-31.0,-1012.0,134.0
1.0,-246.0,30.0,58.0,51.0,-35.0,-35.0,-1006.0,133.0
-2.0,-245.0,27.0,59.0,49.0,-32.0,-36.0,-1013.0,132.0
-3.0,-247.0,30.0,60.0,45.0,-31.0,-33.0,-1016.0,130.0
0.0,-249.0,28.0,59.0,42.0,-30.0,-32.0,-1014.0,133.0
0.0,-249.0,26.0,59.0,39.0,-28.0,-28.0,-1019.0,133.0
0.0,-248.0,20.0,59.0,35.0,-28.0,-29.0,-1017.0,128.0
0.0,-247.0,25.0,58.0,31.0,-26.0,-28.0,-1016.0,130.0
0.0,-248.0,27.0,58.0,28.0,-26.0,-28.0,-1018.0,129.0
0.0,-248.0,29.0,58.0,27.0,-22.0,-28.0,-1019.0,128.0
0.0,-245.0,27.0,59.0,25.0,-22.0,-30.0,-1016.0,129.0
0.0,-246.0,29.0,60.0,23.0,-20.0,-29.0,-1014.0,132.0
1.0,-245.0,30.0,62.0,22.0,-20.0,-30.0,-1017.0,125.0
2.0,-247.0,32.0,63.0,21.0,-18.0,-31.0,-1012.0,127.0
1.0,-248.0,30.0,65.0,21.0,-19.0,-27.0,-1016.0,132.0
-1.0,-247.0,29.0,65.0,20.0,-19.0,-31.0,-1013.0,128.0
0.0,-246.0,26.0,67.0,21.0,-17.0,-30.0,-1013.0,128.0
0.0,-247.0,25.0,67.0,23.0,-19.0,-33.0,-1019.0,129.0
2.0,-245.0,29.0,67.0,21.0,-17.0,-27.0,-1017.0,127.0
0.0,-246.0,29.0,68.0,20.0,-19.0,-25.0,-1018.0,124.0
0.0,-249.0,30.0,67.0,20.0,-18.0,-29.0,-1019.0,129.0
1.0,-246.0,30.0,68.0,17.0,-17.0,-28.0,-1020.0,123.0
3.0,-248.0,29.0,67.0,15.0,-17.0,-29.0,-1020.0,120.0
1.0,-248.0,28.0,69.0,12.0,-15.0,-28.0,-1013.0,128.0
0.0,-251.0,28.0,70.0,12.0,-12.0,-24.0,-1023.0,129.0
1.0,-246.0,33.0,72.0,13.0,-11.0,-26.0,-1016.0,126.0
0.0,-249.0,29.0,73.0,14.0,-10.0,-31.0,-1017.0,134.0
0.0,-246.0,29.0,72.0,14.0,-12.0,-28.0,-1017.0,125.0
0.0,-245.0,31.0,71.0,16.0,-10.0,-28.0,-1015.0,128.0
0.0,-244.0,31.0,70.0,17.0,-8.0,-28.0,-1018.0,135.0
-2.0,-244.0,26.0,70.0,15.0,-8.0,-21.0,-1012.0,135.0
-2.0,-247.0,29.0,72.0,14.0,-6.0,-32.0,-1014.0,135.0
0.0,-245.0,26.0,74.0,15.0,-6.0,-27.0,-1008.0,131.0
1.0,-247.0,31.0,74.0,12.0,-5.0,-29.0,-1010.0,129.0
0.0,-243.0,30.0,74.0,10.0,-4.0,-26.0,-1013.0,133.0
-1.0,-244.0,27.0,73.0,8.0,-4.0,-32.0,-1010.0,130.0
-2.0,-245.0,29.0,68.0,6.0,-4.0,-36.0,-1013.0,138.0
0.0,-245.0,29.0,66.0,5.0,-8.0,-32.0,-1017.0,134.0
2.0,-247.0,29.0,67.0,6.0,-9.0,-36.0,-1006.0,137.0
-1.0,-244.0,32.0,68.0,9.0,-9.0,-29.0,-1013.0,126.0
-1.0,-244.0,26.0,69.0,12.0,-11.0,-30.0,-1011.0,129.0
1.0,-247.0,28.0,70.0,14.0,-12.0,-26.0,-1016.0,127.0
0.0,-247.0,31.0,70.0,15.0,-10.0,-26.0,-1011.0,123.0
1.0,-245.0,28.0,70.0,15.0,-8.0,-23.0,-1007.0,133.0
-1.0,-246.0,32.0,69.0,15.0,-7.0,-22.0,-1016.0,130.0
2.0,-245.0,24.0,67.0,13.0,-7.0,-24.0,-1006.0,130.0
2.0,-245.0,31.0,65.0,11.0,-6.0,-28.0,-1015.0,128.0
1.0,-250.0,29.0,62.0,7.0,-4.0,-27.0,-1010.0,129.0
0.0,-245.0,31.0,59.0,5.0,-1.0,-23.0,-1013.0,126.0
2.0,-251.0,28.0,56.0,2.0,0.0,-27.0,-1011.0,131.0
-3.0,-248.0,29.0,55.0,2.0,0.0,-29.0,-1008.0,128.0
2.0,-245.0,30.0,53.0,1.0,0.0,-32.0,-1005.0,126.0
-2.0,-247.0,33.0,53.0,3.0,0.0,-34.0,-1014.0,132.0
-2.0,-246.0,28.0,56.0,4.0,-1.0,-34.0,-1009.0,136.0
0.0,-247.0,30.0,57.0,2.0,0.0,-30.0,-1020.0,131.0
-1.0,-248.0,29.0,58.0,-1.0,0.0,-29.0,-1016.0,134.0
2.0,-247.0,30.0,57.0,-2.0,-2.0,-29.0,-1009.0,126.0
-1.0,-249.0,30.0,55.0,-3.0,-1.0,-33.0,-1014.0,126.0
-2.0,-249.0,26.0,53.0,-5.0,-3.0,-32.0,-1013.0,127.0
1.0,-245.0,31.0,52.0,-4.0,-1.0,-32.0,-1013.0,123.0
0.0,-244.0,29.0,51.0,-4.0,-2.0,-32.0,-1012.0,125.0
0.0,-249.0,26.0,51.0,-4.0,-3.0,-32.0,-1011.0,127.0
0.0,-248.0,26.0,49.0,-3.0,-2.0,-28.0,-1011.0,126.0
3.0,-245.0,29.0,49.0,-3.0,0.0,-28.0,-1010.0,137.0
0.0,-245.0,30.0,48.0,-4.0,2.0,-32.0,-1010.0,129.0
0.0,-243.0,30.0,48.0,-5.0,5.0,-27.0,-1010.0,129.0
1.0,-247.0,29.0,49.0,-6.0,8.0,-23.0,-1008.0,131.0
0.0,-245.0,29.0,48.0,-9.0,10.0,-30.0,-1010.0,126.0
4.0,-245.0,26.0,47.0,-12.0,13.0,-25.0,-1014.0,126.0
1.0,-247.0,28.0,45.0,-12.0,11.0,-24.0,-1009.0,122.0
0.0,-245.0,26.0,43.0,-12.0,12.0,-25.0,-1016.0,124.0
1.0,-246.0,30.0,41.0,-10.0,11.0,-24.0,-1013.0,128.0
1.0,-246.0,29.0,41.0,-8.0,9.0,-19.0,-1010.0,129.0
0.0,-245.0,30.0,39.0,-4.0,7.0,-26.0,-1011.0,128.0
3.0,-248.0,33.0,41.0,-1.0,6.0,-23.0,-1017.0,136.0
4.0,-246.0,31.0,44.0,-1.0,5.0,-30.0,-1021.0,134.0
1.0,-248.0,29.0,48.0,0.0,4.0,-20.0,-1020.0,131.0
1.0,-249.0,25.0,54.0,-1.0,2.0,-24.0,-1022.0,129.0
2.0,-244.0,26.0,62.0,-4.0,3.0,-22.0,-1018.0,123.0
3.0,-248.0,26.0,66.0,-9.0,3.0,-24.0,-1015.0,122.0
-1.0,-246.0,27.0,72.0,-13.0,4.0,-23.0,-1010.0,124.0
-1.0,-244.0,25.0,74.0,-14.0,2.0,-31.0,-1006.0,126.0
-1.0,-243.0,26.0,72.0,-15.0,2.0,-26.0,-1007.0,127.0
0.0,-245.0,29.0,67.0,-15.0,2.0,-35.0,-1012.0,133.0
1.0,-245.0,28.0,63.0,-14.0,2.0,-37.0,-1005.0,131.0
-2.0,-244.0,27.0,60.0,-14.0,1.0,-35.0,-1012.0,131.0
0.0,-243.0,30.0,58.0,-10.0,1.0,-37.0,-1011.0,131.0
-2.0,-246.0,26.0,58.0,-8.0,1.0,-31.0,-1010.0,130.0
2.0,-248.0,28.0,59.0,-5.0,3.0,-32.0,-1013.0,136.0
0.0,-245.0,31.0,60.0,-3.0,2.0,-25.0,-1015.0,136.0
1.0,-247.0,32.0,61.0,-4.0,1.0,-30.0,-1011.0,135.0
2.0,-243.0,32.0,61.0,-4.0,2.0,-26.0,-1011.0,129.0
0.0,-244.0,30.0,59.0,-4.0,4.0,-26.0,-1019.0,140.0
0.0,-244.0,27.0,56.0,-5.0,5.0,-30.0,-1015.0,140.0
0.0,-247.0,33.0,54.0,-6.0,8.0,-32.0,-1014.0,137.0
0.0,-244.0,33.0,54.0,-7.0,6.0,-24.0,-1013.0,138.0
1.0,-246.0,31.0,53.0,-7.0,7.0,-26.0,-1021.0,135.0
1.0,-247.0,26.0,55.0,-6.0,5.0,-23.0,-1015.0,136.0
2.0,-249.0,30.0,55.0,-4.0,4.0,-22.0,-1016.0,136.0
3.0,-245.0,28.0,56.0,-4.0,3.0,-24.0,-1014.0,133.0
0.0,-246.0,30.0,55.0,-3.0,3.0,-27.0,-1013.0,136.0
1.0,-245.0,28.0,56.0,-3.0,5.0,-24.0,-1014.0,140.0
0.0,-247.0,27.0,56.0,-2.0,3.0,-20.0,-1014.0,138.0
0.0,-246.0,32.0,56.0,-2.0,2.0,-28.0,-1010.0,136.0
2.0,-248.0,31.0,56.0,-3.0,2.0,-26.0,-1012.0,136.0
2.0,-246.0,35.0,56.0,-4.0,1.0,-32.0,-1009.0,135.0
0.0,-247.0,29.0,55.0,-5.0,1.0,-28.0,-1013.0,136.0
-1.0,-246.0,33.0,52.0,-7.0,3.0,-31.0,-1016.0,135.0
-1.0,-243.0,30.0,50.0,-9.0,1.0,-30.0,-1011.0,133.0
-1.0,-246.0,29.0,49.0,-10.0,2.0,-32.0,-1009.0,137.0
0.0,-249.0,31.0,49.0,-10.0,3.0,-33.0,-1012.0,131.0
3.0,-247.0,30.0,51.0,-8.0,4.0,-34.0,-1009.0,137.0
2.0,-246.0,32.0,53.0,-8.0,6.0,-34.0,-1013.0,137.0
-6.0,-246.0,30.0,57.0,-9.0,6.0,-36.0,-1010.0,138.0
-2.0,-246.0,33.0,58.0,-8.0,6.0,-34.0,-1015.0,132.0
1.0,-247.0,28.0,60.0,-10.0,7.0,-37.0,-1014.0,133.0
1.0,-248.0,33.0,62.0,-12.0,6.0,-33.0,-1015.0,143.0
-3.0,-244.0,29.0,63.0,-15.0,8.0,-34.0,-1019.0,140.0
1.0,-246.0,30.0,63.0,-16.0,5.0,-33.0,-1014.0,137.0
0.0,-244.0,32.0,62.0,-18.0,3.0,-34.0,-1012.0,134.0
0.0,-246.0,32.0,62.0,-19.0,5.0,-30.0,-1017.0,129.0
0.0,-241.0,34.0,61.0,-20.0,5.0,-27.0,-1004.0,136.0
1.0,-246.0,26.0,61.0,-20.0,4.0,-27.0,-1011.0,130.0
1.0,-244.0,33.0,58.0,-18.0,5.0,-22.0,-1005.0,128.0
0.0,-246.0,30.0,56.0,-17.0,5.0,-22.0,-1005.0,139.0
2.0,-246.0,29.0,52.0,-15.0,5.0,-23.0,-1005.0,130.0
-1.0,-245.0,29.0,47.0,-14.0,5.0,-32.0,-1005.0,134.0
0.0,-246.0,31.0,44.0,-15.0,4.0,-29.0,-1013.0,133.0
-2.0,-245.0,29.0,40.0,-14.0,4.0,-26.0,-1014.0,134.0
2.0,-248.0,28.0,39.0,-15.0,3.0,-25.0,-1010.0,134.0
2.0,-246.0,29.0,37.0,-13.0,4.0,-34.0,-1012.0,132.0
0.0,-244.0,28.0,37.0,-11.0,2.0,-28.0,-1011.0,133.0
2.0,-243.0,28.0,38.0,-10.0,0.0,-31.0,-1009.0,138.0
0.0,-245.0,32.0,40.0,-10.0,0.0,-32.0,-1013.0,137.0
-1.0,-254.0,44.0,40.0,-10.0,0.0,-36.0,-1020.0,139.0
1.0,-248.0,28.0,39.0,-9.0,1.0,-26.0,-1019.0,135.0
-1.0,-247.0,28.0,40.0,-7.0,2.0,-32.0,-1012.0,135.0
1.0,-246.0,33.0,41.0,-5.0,1.0,-28.0,-1022.0,138.0
1.0,-248.0,30.0,44.0,-4.0,3.0,-21.0,-1014.0,137.0
0.0,-248.0,28.0,46.0,-4.0,2.0,-23.0,-1012.0,137.0
1.0,-245.0,29.0,45.0,-3.0,0.0,-26.0,-1006.0,141.0
3.0,-247.0,34.0,44.0,-1.0,-1.0,-25.0,-1008.0,134.0
4.0,-246.0,32.0,41.0,1.0,-2.0,-23.0,-1010.0,134.0
0.0,-245.0,31.0,36.0,3.0,-3.0,-22.0,-1009.0,131.0
3.0,-244.0,28.0,34.0,4.0,-2.0,-21.0,-1016.0,133.0
5.0,-246.0,34.0,31.0,4.0,-4.0,-21.0,-1014.0,132.0
0.0,-247.0,28.0,32.0,5.0,-3.0,-21.0,-1014.0,136.0
0.0,-247.0,30.0,36.0,5.0,-4.0,-23.0,-1011.0,137.0
1.0,-245.0,32.0,37.0,3.0,-5.0,-22.0,-1010.0,142.0
1.0,-246.0,32.0,40.0,1.0,-4.0,-23.0,-1018.0,141.0
1.0,-249.0,31.0,43.0,1.0,-4.0,-24.0,-1014.0,141.0
3.0,-249.0,30.0,43.0,1.0,-5.0,-23.0,-1016.0,132.0
1.0,-245.0,28.0,45.0,2.0,-4.0,-28.0,-1013.0,136.0
0.0,-246.0,37.0,45.0,2.0,-2.0,-34.0,-1015.0,126.0
-1.0,-250.0,28.0,46.0,5.0,-3.0,-29.0,-1019.0,136.0
1.0,-247.0,31.0,46.0,6.0,-3.0,-30.0,-1014.0,134.0
1.0,-246.0,27.0,48.0,9.0,-1.0,-34.0,-1012.0,135.0
0.0,-245.0,32.0,48.0,13.0,-3.0,-27.0,-1012.0,129.0
0.0,-250.0,30.0,49.0,14.0,-2.0,-26.0,-1013.0,130.0
0.0,-247.0,33.0,50.0,17.0,-4.0,-23.0,-1016.0,134.0
1.0,-247.0,33.0,50.0,19.0,-3.0,-30.0,-1009.0,138.0
1.0,-248.0,27.0,50.0,22.0,-4.0,-26.0,-1014.0,135.0
1.0,-248.0,34.0,51.0,23.0,-5.0,-24.0,-1016.0,137.0
2.0,-249.0,27.0,53.0,25.0,-6.0,-30.0,-1012.0,138.0
-2.0,-245.0,29.0,55.0,27.0,-5.0,-23.0,-1006.0,136.0
0.0,-243.0,29.0,56.0,30.0,-6.0,-24.0,-1009.0,136.0
0.0,-243.0,27.0,56.0,32.0,-7.0,-24.0,-1013.0,133.0
1.0,-247.0,29.0,57.0,33.0,-5.0,-23.0,-1009.0,128.0
0.0,-246.0,32.0,54.0,32.0,-5.0,-27.0,-1012.0,134.0
1.0,-245.0,30.0,54.0,32.0,-4.0,-23.0,-1014.0,133.0
0.0,-247.0,31.0,51.0,33.0,-4.0,-24.0,-1016.0,139.0
0.0,-246.0,28.0,51.0,34.0,-5.0,-26.0,-1019.0,130.0
1.0,-249.0,32.0,52.0,33.0,-6.0,-24.0,-1012.0,134.0
-2.0,-244.0,28.0,54.0,32.0,-4.0,-36.0,-1019.0,134.0
0.0,-245.0,35.0,59.0,31.0,-3.0,-27.0,-1015.0,130.0
-1.0,-245.0,29.0,60.0,32.0,-3.0,-32.0,-1017.0,139.0
-2.0,-243.0,25.0,62.0,33.0,-4.0,-37.0,-1019.0,127.0
0.0,-249.0,30.0,62.0,33.0,-3.0,-36.0,-1011.0,126.0
0.0,-250.0,30.0,62.0,31.0,-2.0,-37.0,-1012.0,127.0
-2.0,-248.0,29.0,59.0,30.0,0.0,-43.0,-1008.0,129.0
-2.0,-248.0,24.0,57.0,27.0,1.0,-39.0,-1008.0,126.0
-2.0,-248.0,28.0,54.0,26.0,3.0,-41.0,-1006.0,126.0
0.0,-248.0,27.0,51.0,25.0,4.0,-37.0,-1009.0,124.0
0.0,-242.0,25.0,51.0,23.0,5.0,-37.0,-1012.0,125.0
-3.0,-243.0,32.0,50.0,23.0,5.0,-37.0,-1006.0,130.0
0.0,-246.0,30.0,53.0,21.0,5.0,-32.0,-1011.0,131.0
0.0,-249.0,29.0,56.0,20.0,4.0,-40.0,-1010.0,140.0
0.0,-243.0,25.0,57.0,18.0,5.0,-43.0,-1007.0,136.0
2.0,-242.0,35.0,60.0,18.0,6.0,-40.0,-1008.0,131.0
0.0,-248.0,30.0,62.0,15.0,5.0,-43.0,-1010.0,130.0
0.0,-246.0,25.0,62.0,12.0,5.0,-38.0,-1011.0,123.0
0.0,-247.0,27.0,60.0,8.0,5.0,-43.0,-1012.0,116.0
0.0,-244.0,26.0,58.0,2.0,9.0,-39.0,-1012.0,115.0
-2.0,-247.0,25.0,58.0,-2.0,9.0,-40.0,-1010.0,118.0
-1.0,-242.0,25.0,58.0,-6.0,8.0,-40.0,-1005.0,119.0
-2.0,-246.0,22.0,59.0,-7.0,7.0,-40.0,-1007.0,126.0
-3.0,-247.0,28.0,60.0,-9.0,8.0,-45.0,-1013.0,123.0
-1.0,-243.0,25.0,60.0,-10.0,6.0,-38.0,-1014.0,131.0
-6.0,-248.0,32.0,61.0,-11.0,5.0,-47.0,-1014.0,133.0
-6.0,-246.0,30.0,60.0,-14.0,6.0,-49.0,-1021.0,142.0
-2.0,-247.0,33.0,58.0,-15.0,6.0,-50.0,-1020.0,138.0
-3.0,-248.0,31.0,58.0,-19.0,6.0,-43.0,-1019.0,135.0
-3.0,-248.0,32.0,57.0,-22.0,7.0,-50.0,-1015.0,136.0
-4.0,-248.0,29.0,56.0,-24.0,7.0,-47.0,-1015.0,134.0
-4.0,-248.0,29.0,57.0,-28.0,5.0,-46.0,-1012.0,131.0
-1.0,-245.0,33.0,56.0,-32.0,8.0,-43.0,-1010.0,136.0
-1.0,-249.0,31.0,56.0,-36.0,9.0,-50.0,-1005.0,137.0
-1.0,-247.0,31.0,53.0,-41.0,10.0,-43.0,-1009.0,136.0
-4.0,-247.0,30.0,50.0,-45.0,11.0,-42.0,-1006.0,131.0
-3.0,-250.0,33.0,46.0,-50.0,13.0,-40.0,-1008.0,129.0
-3.0,-243.0,30.0,43.0,-55.0,17.0,-44.0,-1010.0,130.0
-2.0,-247.0,30.0,39.0,-58.0,18.0,-46.0,-1002.0,132.0
-2.0,-244.0,31.0,34.0,-63.0,19.0,-43.0,-1010.0,125.0
0.0,-247.0,30.0,33.0,-63.0,18.0,-45.0,-1011.0,128.0
-2.0,-243.0,24.0,29.0,-65.0,19.0,-42.0,-1009.0,125.0
-2.0,-249.0,30.0,27.0,-66.0,21.0,-39.0,-1018.0,126.0
-4.0,-247.0,34.0,25.0,-65.0,17.0,-42.0,-1015.0,133.0
-2.0,-249.0,29.0,24.0,-64.0,16.0,-42.0,-1009.0,136.0
1.0,-249.0,32.0,25.0,-64.0,16.0,-43.0,-1006.0,134.0
-3.0,-245.0,31.0,25.0,-64.0,16.0,-41.0,-1013.0,141.0
-1.0,-248.0,31.0,24.0,-66.0,17.0,-41.0,-1016.0,141.0
0.0,-247.0,29.0,23.0,-68.0,16.0,-39.0,-1013.0,135.0
-4.0,-247.0,28.0,21.0,-71.0,15.0,-38.0,-1009.0,130.0
0.0,-244.0,31.0,20.0,-73.0,15.0,-38.0,-1008.0,132.0
0.0,-244.0,25.0,19.0,-75.0,14.0,-38.0,-1002.0,131.0
1.0,-247.0,29.0,18.0,-78.0,14.0,-33.0,-1015.0,130.0
0.0,-244.0,30.0,18.0,-78.0,12.0,-38.0,-1006.0,127.0
0.0,-245.0,27.0,20.0,-78.0,11.0,-37.0,-1007.0,130.0
-3.0,-248.0,30.0,20.0,-79.0,13.0,-39.0,-1015.0,130.0
-2.0,-245.0,27.0,20.0,-80.0,11.0,-34.0,-1019.0,131.0
1.0,-248.0,31.0,20.0,-81.0,13.0,-39.0,-1018.0,134.0
-2.0,-244.0,28.0,21.0,-81.0,11.0,-37.0,-1013.0,135.0
0.0,-248.0,32.0,20.0,-81.0,9.0,-37.0,-1015.0,134.0
-2.0,-245.0,30.0,21.0,-82.0,10.0,-37.0,-1014.0,135.0
-2.0,-245.0,30.0,22.0,-83.0,9.0,-39.0,-1009.0,132.0
-3.0,-246.0,32.0,24.0,-84.0,11.0,-39.0,-1013.0,138.0
0.0,-247.0,30.0,24.0,-85.0,12.0,-39.0,-1016.0,129.0
0.0,-243.0,27.0,27.0,-84.0,14.0,-34.0,-1020.0,137.0
0.0,-247.0,32.0,29.0,-80.0,14.0,-39.0,-1021.0,130.0
1.0,-250.0,31.0,30.0,-77.0,15.0,-34.0,-1015.0,136.0
0.0,-248.0,28.0,31.0,-75.0,13.0,-31.0,-1013.0,138.0
-1.0,-245.0,29.0,29.0,-72.0,12.0,-33.0,-1016.0,130.0
0.0,-245.0,30.0,27.0,-68.0,10.0,-31.0,-1013.0,128.0
0.0,-245.0,30.0,26.0,-65.0,10.0,-33.0,-1014.0,130.0
-1.0,-244.0,32.0,26.0,-64.0,8.0,-30.0,-1013.0,132.0
-1.0,-248.0,30.0,25.0,-65.0,8.0,-28.0,-1006.0,128.0
0.0,-247.0,32.0,25.0,-65.0,6.0,-36.0,-1014.0,126.0
-2.0,-245.0,28.0,24.0,-65.0,4.0,-37.0,-1007.0,133.0
-1.0,-246.0,29.0,21.0,-64.0,3.0,-35.0,-1006.0,132.0
0.0,-246.0,30.0,19.0,-60.0,2.0,-32.0,-1008.0,133.0
0.0,-245.0,27.0,17.0,-55.0,0.0,-36.0,-1015.0,129.0
-3.0,-245.0,30.0,14.0,-51.0,1.0,-37.0,-1012.0,130.0
-2.0,-249.0,32.0,12.0,-46.0,0.0,-37.0,-1017.0,130.0
0.0,-249.0,30.0,12.0,-44.0,0.0,-33.0,-1018.0,125.0
2.0,-247.0,26.0,13.0,-42.0,-2.0,-34.0,-1017.0,130.0
-2.0,-247.0,27.0,17.0,-41.0,-2.0,-37.0,-1018.0,128.0
0.0,-249.0,29.0,21.0,-39.0,-1.0,-31.0,-1017.0,127.0
-2.0,-249.0,28.0,25.0,-40.0,-1.0,-36.0,-1013.0,135.0
0.0,-244.0,32.0,27.0,-39.0,0.0,-33.0,-1010.0,131.0
-4.0,-246.0,25.0,31.0,-37.0,1.0,-33.0,-1018.0,134.0
-1.0,-246.0,31.0,32.0,-37.0,0.0,-36.0,-1011.0,127.0
-2.0,-243.0,26.0,33.0,-35.0,0.0,-36.0,-1011.0,128.0
2.0,-246.0,27.0,32.0,-32.0,1.0,-34.0,-1012.0,126.0
0.0,-248.0,26.0,32.0,-31.0,-2.0,-35.0,-1015.0,115.0
1.0,-247.0,24.0,29.0,-28.0,-2.0,-30.0,-1010.0,115.0
-1.0,-247.0,23.0,29.0,-28.0,-2.0,-32.0,-1013.0,118.0
-1.0,-247.0,28.0,28.0,-24.0,-2.0,-32.0,-1017.0,113.0
0.0,-250.0,21.0,29.0,-21.0,-3.0,-37.0,-1019.0,118.0
-2.0,-248.0,27.0,32.0,-18.0,-2.0,-38.0,-1022.0,118.0
0.0,-248.0,28.0,39.0,-15.0,-3.0,-41.0,-1026.0,116.0
-4.0,-252.0,29.0,47.0,-13.0,-4.0,-40.0,-1020.0,124.0
0.0,-244.0,29.0,53.0,-10.0,-5.0,-42.0,-1021.0,126.0
-3.0,-248.0,27.0,61.0,-9.0,-7.0,-40.0,-1018.0,125.0
1.0,-249.0,23.0,64.0,-6.0,-9.0,-41.0,-1018.0,126.0
0.0,-247.0,26.0,64.0,-4.0,-9.0,-41.0,-1011.0,126.0
-1.0,-245.0,27.0,60.0,-3.0,-9.0,-40.0,-1009.0,126.0
-2.0,-247.0,29.0,56.0,-1.0,-11.0,-37.0,-1005.0,125.0
-2.0,-242.0,28.0,50.0,1.0,-13.0,-35.0,-1009.0,129.0
2.0,-244.0,27.0,44.0,1.0,-13.0,-37.0,-1001.0,129.0
0.0,-243.0,28.0,41.0,2.0,-12.0,-35.0,-1007.0,120.0
1.0,-245.0,29.0,35.0,3.0,-11.0,-30.0,-1004.0,122.0
0.0,-242.0,26.0,30.0,3.0,-11.0,-32.0,-1005.0,113.0
-1.0,-248.0,24.0,28.0,4.0,-12.0,-28.0,-1005.0,116.0
-2.0,-243.0,31.0,27.0,6.0,-13.0,-37.0,-1006.0,112.0
0.0,-246.0,21.0,27.0,9.0,-12.0,-34.0,-1012.0,113.0
0.0,-246.0,26.0,32.0,13.0,-14.0,-38.0,-1011.0,119.0
0.0,-245.0,27.0,34.0,15.0,-13.0,-35.0,-1011.0,114.0
-1.0,-247.0,22.0,37.0,18.0,-13.0,-35.0,-1016.0,114.0
0.0,-248.0,27.0,38.0,19.0,-13.0,-35.0,-1018.0,113.0
0.0,-247.0,26.0,37.0,20.0,-14.0,-38.0,-1013.0,118.0
-2.0,-249.0,29.0,36.0,19.0,-11.0,-36.0,-1018.0,108.0
1.0,-249.0,26.0,35.0,19.0,-11.0,-43.0,-1017.0,121.0
-3.0,-249.0,28.0,35.0,18.0,-9.0,-36.0,-1015.0,116.0
0.0,-250.0,29.0,37.0,20.0,-9.0,-35.0,-1018.0,118.0
-5.0,-249.0,17.0,38.0,23.0,-9.0,-34.0,-1017.0,114.0
0.0,-246.0,25.0,39.0,24.0,-11.0,-36.0,-1016.0,118.0
1.0,-250.0,28.0,41.0,27.0,-11.0,-41.0,-1016.0,118.0
-2.0,-244.0,26.0,40.0,30.0,-11.0,-32.0,-1011.0,123.0
0.0,-244.0,27.0,41.0,33.0,-12.0,-33.0,-1011.0,124.0
-3.0,-247.0,32.0,41.0,32.0,-13.0,-39.0,-1009.0,135.0
0.0,-248.0,29.0,44.0,32.0,-12.0,-42.0,-1011.0,132.0
-2.0,-248.0,27.0,49.0,30.0,-12.0,-43.0,-1013.0,125.0
-2.0,-246.0,24.0,54.0,28.0,-12.0,-41.0,-1009.0,117.0
-3.0,-248.0,27.0,56.0,28.0,-12.0,-40.0,-1009.0,118.0
-3.0,-247.0,26.0,57.0,30.0,-12.0,-38.0,-1009.0,117.0
-1.0,-248.0,29.0,55.0,32.0,-13.0,-38.0,-1005.0,117.0
0.0,-245.0,27.0,51.0,34.0,-15.0,-38.0,-1010.0,111.0
0.0,-245.0,26.0,50.0,39.0,-16.0,-38.0,-1007.0,105.0
2.0,-246.0,26.0,49.0,42.0,-17.0,-35.0,-1011.0,112.0
0.0,-246.0,25.0,48.0,44.0,-19.0,-38.0,-1011.0,111.0
1.0,-248.0,28.0,48.0,46.0,-19.0,-40.0,-1012.0,120.0
0.0,-247.0,24.0,48.0,46.0,-19.0,-40.0,-1014.0,119.0
2.0,-249.0,26.0,50.0,45.0,-17.0,-39.0,-1014.0,118.0
-1.0,-249.0,29.0,54.0,41.0,-16.0,-36.0,-1014.0,124.0
-4.0,-245.0,30.0,57.0,40.0,-16.0,-42.0,-1013.0,117.0
-4.0,-246.0,29.0,58.0,39.0,-14.0,-39.0,-1013.0,119.0
-3.0,-245.0,24.0,58.0,38.0,-13.0,-39.0,-1016.0,123.0
-2.0,-247.0,28.0,55.0,39.0,-11.0,-40.0,-1015.0,120.0
-2.0,-247.0,28.0,54.0,39.0,-12.0,-43.0,-1021.0,121.0
-4.0,-249.0,24.0,53.0,40.0,-12.0,-40.0,-1021.0,120.0
-4.0,-248.0,24.0,56.0,42.0,-11.0,-43.0,-1020.0,123.0
0.0,-250.0,26.0,59.0,43.0,-10.0,-43.0,-1022.0,115.0
-2.0,-246.0,27.0,59.0,43.0,-11.0,-44.0,-1030.0,123.0
-1.0,-248.0,30.0,63.0,44.0,-9.0,-40.0,-1021.0,122.0
-5.0,-247.0,30.0,67.0,44.0,-9.0,-41.0,-1014.0,118.0
-5.0,-245.0,27.0,68.0,44.0,-10.0,-40.0,-1013.0,119.0
-2.0,-248.0,25.0,68.0,45.0,-11.0,-41.0,-1015.0,124.0
0.0,-247.0,29.0,67.0,45.0,-11.0,-35.0,-1012.0,119.0
0.0,-250.0,24.0,66.0,46.0,-13.0,-41.0,-1010.0,128.0
-1.0,-246.0,30.0,65.0,44.0,-12.0,-39.0,-1015.0,122.0
-4.0,-246.0,26.0,64.0,44.0,-12.0,-37.0,-1011.0,123.0
0.0,-247.0,27.0,64.0,45.0,-13.0,-41.0,-1011.0,121.0
1.0,-244.0,24.0,64.0,44.0,-14.0,-36.0,-1013.0,121.0
-4.0,-245.0,26.0,63.0,44.0,-13.0,-40.0,-1008.0,123.0
-2.0,-247.0,27.0,61.0,43.0,-13.0,-41.0,-1016.0,126.0
-1.0,-247.0,27.0,62.0,41.0,-12.0,-39.0,-1014.0,124.0
0.0,-249.0,30.0,63.0,40.0,-11.0,-37.0,-1014.0,128.0
-7.0,-248.0,27.0,64.0,38.0,-9.0,-38.0,-1012.0,125.0
-5.0,-248.0,29.0,66.0,37.0,-8.0,-38.0,-1022.0,129.0
-1.0,-244.0,30.0,69.0,35.0,-5.0,-39.0,-1011.0,126.0
-3.0,-243.0,26.0,69.0,33.0,-4.0,-46.0,-1012.0,128.0
0.0,-247.0,29.0,68.0,31.0,-6.0,-48.0,-1017.0,127.0
-4.0,-247.0,28.0,67.0,29.0,-6.0,-45.0,-1012.0,122.0
-3.0,-246.0,32.0,65.0,28.0,-5.0,-46.0,-1016.0,127.0
-5.0,-249.0,29.0,63.0,27.0,-6.0,-46.0,-1011.0,129.0
-4.0,-250.0,26.0,63.0,28.0,-6.0,-45.0,-1016.0,128.0
0.0,-247.0,26.0,61.0,27.0,-8.0,-47.0,-1018.0,120.0
-1.0,-247.0,27.0,63.0,29.0,-9.0,-40.0,-1008.0,125.0
-10.0,-248.0,25.0,62.0,30.0,-9.0,-41.0,-1009.0,122.0
-2.0,-245.0,26.0,63.0,30.0,-9.0,-43.0,-1005.0,125.0
-2.0,-248.0,27.0,64.0,30.0,-11.0,-40.0,-1006.0,118.0
-1.0,-243.0,26.0,61.0,31.0,-10.0,-44.0,-1008.0,120.0
-2.0,-247.0,27.0,57.0,31.0,-11.0,-38.0,-1009.0,121.0
0.0,-247.0,29.0,54.0,29.0,-12.0,-38.0,-1009.0,122.0
0.0,-247.0,33.0,49.0,27.0,-11.0,-40.0,-1013.0,122.0
0.0,-248.0,30.0,47.0,26.0,-9.0,-39.0,-1016.0,128.0
-3.0,-247.0,31.0,49.0,24.0,-9.0,-37.0,-1013.0,126.0
-3.0,-246.0,27.0,51.0,23.0,-9.0,-39.0,-1013.0,126.0
1.0,-245.0,31.0,54.0,21.0,-10.0,-44.0,-1015.0,130.0
-5.0,-246.0,30.0,57.0,21.0,-9.0,-41.0,-1017.0,127.0
-4.0,-245.0,26.0,60.0,21.0,-10.0,-43.0,-1015.0,124.0
-1.0,-249.0,28.0,62.0,20.0,-10.0,-46.0,-1010.0,128.0
-1.0,-248.0,28.0,64.0,19.0,-9.0,-41.0,-1012.0,127.0
-1.0,-247.0,28.0,64.0,18.0,-6.0,-38.0,-1012.0,122.0
-1.0,-244.0,24.0,61.0,17.0,-6.0,-40.0,-1017.0,125.0
-3.0,-242.0,31.0,60.0,16.0,-5.0,-44.0,-1011.0,123.0
-2.0,-248.0,25.0,60.0,13.0,-3.0,-39.0,-1015.0,127.0
0.0,-248.0,26.0,58.0,12.0,-4.0,-43.0,-1011.0,123.0
-7.0,-249.0,31.0,61.0,10.0,-5.0,-46.0,-1015.0,127.0
-3.0,-250.0,27.0,61.0,8.0,-5.0,-46.0,-1017.0,125.0
-5.0,-245.0,30.0,62.0,8.0,-6.0,-46.0,-1013.0,125.0
-4.0,-245.0,29.0,62.0,9.0,-7.0,-40.0,-1016.0,126.0
-2.0,-246.0,31.0,62.0,9.0,-8.0,-45.0,-1021.0,121.0
-3.0,-248.0,29.0,64.0,9.0,-8.0,-42.0,-1017.0,125.0
0.0,-248.0,31.0,64.0,8.0,-6.0,-43.0,-1016.0,128.0
0.0,-249.0,28.0,68.0,7.0,-6.0,-40.0,-1019.0,127.0
-8.0,-248.0,30.0,69.0,5.0,-5.0,-38.0,-1012.0,129.0
-6.0,-247.0,30.0,71.0,0.0,-5.0,-40.0,-1018.0,132.0
-4.0,-248.0,32.0,74.0,-2.0,-6.0,-45.0,-1018.0,130.0
0.0,-245.0,32.0,77.0,-3.0,-5.0,-47.0,-1013.0,128.0
-7.0,-241.0,26.0,77.0,-4.0,-4.0,-46.0,-1018.0,133.0
0.0,-244.0,30.0,75.0,-4.0,-4.0,-46.0,-1016.0,139.0
-5.0,-246.0,32.0,73.0,-6.0,-4.0,-44.0,-1012.0,135.0
-2.0,-246.0,28.0,72.0,-7.0,-5.0,-49.0,-1013.0,136.0
-4.0,-247.0,31.0,69.0,-9.0,-4.0,-48.0,-1010.0,136.0
-5.0,-243.0,33.0,66.0,-9.0,-5.0,-51.0,-1011.0,132.0
-3.0,-248.0,28.0,64.0,-10.0,-4.0,-48.0,-1007.0,135.0
-1.0,-249.0,30.0,62.0,-9.0,-4.0,-42.0,-1012.0,133.0
-3.0,-245.0,31.0,60.0,-9.0,-2.0,-45.0,-1009.0,126.0
0.0,-244.0,28.0,59.0,-8.0,-1.0,-42.0,-1012.0,128.0
-1.0,-247.0,40.0,57.0,-8.0,-3.0,-44.0,-1010.0,140.0
0.0,-247.0,30.0,55.0,-8.0,-2.0,-45.0,-1008.0,135.0
-1.0,-246.0,27.0,58.0,-10.0,-5.0,-35.0,-1012.0,131.0
-2.0,-250.0,27.0,59.0,-10.0,-3.0,-37.0,-1013.0,133.0
0.0,-246.0,28.0,61.0,-10.0,-3.0,-41.0,-1008.0,123.0
-2.0,-243.0,29.0,63.0,-11.0,-2.0,-38.0,-1013.0,135.0
-3.0,-246.0,29.0,64.0,-10.0,0.0,-36.0,-1006.0,126.0
-1.0,-247.0,24.0,62.0,-10.0,0.0,-38.0,-1005.0,130.0
-3.0,-242.0,26.0,60.0,-10.0,2.0,-35.0,-1006.0,129.0
-4.0,-247.0,30.0,54.0,-10.0,0.0,-42.0,-1007.0,127.0
-3.0,-245.0,29.0,48.0,-11.0,0.0,-37.0,-1012.0,134.0
2.0,-248.0,31.0,44.0,-13.0,0.0,-41.0,-1018.0,126.0
-4.0,-248.0,30.0,42.0,-13.0,1.0,-44.0,-1016.0,130.0
0.0,-248.0,30.0,47.0,-13.0,2.0,-37.0,-1016.0,125.0
0.0,-249.0,28.0,51.0,-13.0,0.0,-42.0,-1022.0,126.0
-2.0,-248.0,28.0,56.0,-13.0,-1.0,-38.0,-1009.0,127.0
-4.0,-247.0,28.0,60.0,-11.0,-2.0,-42.0,-1021.0,127.0
0.0,-244.0,28.0,62.0,-10.0,-2.0,-43.0,-1016.0,122.0
0.0,-246.0,29.0,63.0,-8.0,-4.0,-45.0,-1009.0,125.0
1.0,-245.0,33.0,63.0,-7.0,-4.0,-47.0,-1016.0,131.0
-4.0,-246.0,27.0,62.0,-6.0,-5.0,-45.0,-1015.0,128.0
-7.0,-244.0,30.0,63.0,-6.0,-6.0,-45.0,-1011.0,128.0
-5.0,-248.0,27.0,66.0,-6.0,-7.0,-44.0,-1011.0,123.0
-1.0,-246.0,27.0,69.0,-8.0,-6.0,-42.0,-1010.0,124.0
-2.0,-246.0,29.0,71.0,-11.0,-7.0,-37.0,-1016.0,120.0
-2.0,-248.0,27.0,76.0,-12.0,-7.0,-46.0,-1011.0,118.0
0.0,-247.0,25.0,79.0,-12.0,-7.0,-42.0,-1013.0,125.0
0.0,-248.0,30.0,81.0,-14.0,-5.0,-43.0,-1008.0,122.0
-2.0,-245.0,28.0,80.0,-14.0,-7.0,-48.0,-1013.0,125.0
-1.0,-247.0,27.0,76.0,-14.0,-8.0,-42.0,-1007.0,124.0
-2.0,-243.0,27.0,73.0,-11.0,-9.0,-43.0,-1006.0,130.0
-5.0,-246.0,29.0,69.0,-10.0,-8.0,-46.0,-1013.0,128.0
-8.0,-243.0,25.0,68.0,-11.0,-10.0,-43.0,-1009.0,128.0
-3.0,-247.0,32.0,67.0,-11.0,-9.0,-42.0,-1014.0,129.0
-2.0,-246.0,31.0,67.0,-13.0,-7.0,-43.0,-1014.0,131.0
-3.0,-246.0,31.0,67.0,-13.0,-7.0,-41.0,-1022.0,133.0
-2.0,-246.0,30.0,68.0,-13.0,-9.0,-43.0,-1011.0,130.0
-2.0,-249.0,31.0,69.0,-12.0,-8.0,-46.0,-1014.0,130.0
-7.0,-245.0,31.0,70.0,-12.0,-10.0,-37.0,-1014.0,134.0
-6.0,-246.0,34.0,69.0,-10.0,-10.0,-41.0,-1019.0,125.0
-3.0,-247.0,29.0,68.0,-10.0,-11.0,-40.0,-1015.0,131.0
-4.0,-247.0,27.0,66.0,-6.0,-10.0,-39.0,-1007.0,130.0
-4.0,-246.0,24.0,65.0,-7.0,-9.0,-37.0,-1013.0,131.0
-1.0,-247.0,40.0,63.0,-6.0,-10.0,-38.0,-1015.0,125.0
0.0,-245.0,28.0,63.0,-5.0,-10.0,-33.0,-1012.0,132.0
-4.0,-245.0,27.0,62.0,-4.0,-10.0,-37.0,-1014.0,121.0
0.0,-247.0,27.0,60.0,-3.0,-11.0,-33.0,-1014.0,127.0
0.0,-245.0,27.0,58.0,-2.0,-10.0,-37.0,-1010.0,124.0
0.0,-243.0,26.0,57.0,-2.0,-9.0,-34.0,-1015.0,129.0
-1.0,-245.0,30.0,57.0,-3.0,-7.0,-33.0,-1005.0,133.0
0.0,-247.0,30.0,55.0,-2.0,-9.0,-37.0,-1016.0,132.0
0.0,-246.0,28.0,54.0,-1.0,-10.0,-39.0,-1014.0,141.0
0.0,-248.0,24.0,54.0,1.0,-9.0,-37.0,-1015.0,138.0
0.0,-250.0,25.0,56.0,1.0,-10.0,-37.0,-1018.0,132.0
7.0,-252.0,27.0,59.0,2.0,-9.0,-39.0,-1021.0,138.0
-3.0,-248.0,27.0,62.0,3.0,-8.0,-38.0,-1017.0,129.0
-1.0,-247.0,28.0,65.0,4.0,-10.0,-38.0,-1016.0,131.0
-6.0,-244.0,29.0,67.0,4.0,-11.0,-39.0,-1014.0,131.0
-3.0,-246.0,30.0,70.0,4.0,-10.0,-44.0,-1018.0,127.0
-4.0,-244.0,28.0,71.0,6.0,-11.0,-43.0,-1008.0,126.0
-1.0,-245.0,30.0,67.0,8.0,-11.0,-44.0,-1011.0,132.0
-3.0,-244.0,32.0,65.0,8.0,-11.0,-43.0,-1006.0,129.0
-3.0,-247.0,30.0,60.0,9.0,-11.0,-44.0,-1009.0,132.0
0.0,-247.0,32.0,56.0,10.0,-10.0,-47.0,-1011.0,132.0
-3.0,-248.0,33.0,56.0,10.0,-9.0,-44.0,-1008.0,134.0
-2.0,-245.0,31.0,57.0,9.0,-10.0,-40.0,-1013.0,137.0
-1.0,-248.0,31.0,60.0,8.0,-10.0,-43.0,-1018.0,137.0
-4.0,-244.0,30.0,62.0,7.0,-10.0,-36.0,-1014.0,136.0
-2.0,-249.0,34.0,64.0,5.0,-12.0,-38.0,-1013.0,136.0
-1.0,-246.0,28.0,66.0,4.0,-10.0,-39.0,-1013.0,127.0
0.0,-246.0,28.0,66.0,5.0,-11.0,-38.0,-1009.0,131.0
2.0,-243.0,29.0,67.0,5.0,-10.0,-41.0,-1015.0,129.0
-2.0,-247.0,31.0,66.0,6.0,-11.0,-37.0,-1017.0,134.0
-3.0,-244.0,26.0,66.0,6.0,-11.0,-37.0,-1013.0,137.0
0.0,-250.0,28.0,64.0,6.0,-12.0,-42.0,-1014.0,137.0
-1.0,-248.0,28.0,63.0,6.0,-11.0,-39.0,-1017.0,131.0
0.0,-247.0,28.0,64.0,6.0,-11.0,-38.0,-1011.0,136.0
-1.0,-247.0,31.0,63.0,6.0,-13.0,-40.0,-1012.0,139.0
0.0,-243.0,29.0,61.0,4.0,-13.0,-38.0,-1014.0,137.0
-4.0,-244.0,34.0,61.0,5.0,-14.0,-48.0,-1012.0,136.0
-2.0,-245.0,32.0,60.0,7.0,-16.0,-41.0,-1011.0,136.0
-4.0,-248.0,32.0,61.0,8.0,-18.0,-38.0,-1014.0,134.0
0.0,-248.0,31.0,61.0,10.0,-17.0,-39.0,-1013.0,132.0
1.0,-244.0,29.0,63.0,11.0,-16.0,-37.0,-1012.0,135.0
1.0,-248.0,31.0,65.0,10.0,-16.0,-35.0,-1008.0,132.0
-1.0,-244.0,30.0,65.0,11.0,-15.0,-38.0,-1008.0,133.0
0.0,-245.0,39.0,66.0,12.0,-14.0,-37.0,-1008.0,133.0
-1.0,-250.0,27.0,65.0,9.0,-15.0,-33.0,-1007.0,129.0
1.0,-246.0,31.0,63.0,9.0,-14.0,-34.0,-1009.0,132.0
0.0,-245.0,30.0,61.0,8.0,-14.0,-37.0,-1006.0,135.0
0.0,-248.0,29.0,58.0,7.0,-14.0,-34.0,-1010.0,131.0
1.0,-247.0,30.0,54.0,6.0,-12.0,-32.0,-1006.0,123.0
-1.0,-250.0,31.0,51.0,7.0,-11.0,-37.0,-1008.0,132.0
1.0,-247.0,30.0,49.0,7.0,-11.0,-40.0,-1016.0,134.0
-5.0,-248.0,30.0,48.0,9.0,-12.0,-39.0,-1015.0,130.0
2.0,-249.0,31.0,49.0,10.0,-13.0,-33.0,-1014.0,129.0
-2.0,-251.0,27.0,50.0,13.0,-14.0,-40.0,-1017.0,128.0
-2.0,-246.0,30.0,52.0,16.0,-15.0,-40.0,-1016.0,122.0
-2.0,-249.0,30.0,54.0,19.0,-18.0,-40.0,-1019.0,126.0
-2.0,-247.0,28.0,55.0,21.0,-18.0,-38.0,-1015.0,129.0
0.0,-246.0,29.0,57.0,22.0,-20.0,-40.0,-1010.0,129.0
-4.0,-245.0,31.0,57.0,23.0,-19.0,-39.0,-1008.0,129.0
1.0,-249.0,27.0,58.0,22.0,-19.0,-33.0,-1006.0,133.0
-1.0,-247.0,31.0,58.0,23.0,-21.0,-40.0,-1006.0,135.0
0.0,-246.0,26.0,56.0,23.0,-21.0,-37.0,-1008.0,137.0
-1.0,-246.0,33.0,58.0,26.0,-20.0,-29.0,-1011.0,133.0
1.0,-246.0,30.0,57.0,26.0,-20.0,-34.0,-1009.0,129.0
0.0,-250.0,29.0,58.0,27.0,-21.0,-36.0,-1013.0,127.0
0.0,-242.0,30.0,57.0,30.0,-22.0,-34.0,-1007.0,129.0
0.0,-241.0,32.0,57.0,32.0,-23.0,-38.0,-1006.0,126.0
-3.0,-242.0,27.0,57.0,33.0,-22.0,-40.0,-1008.0,123.0
0.0,-244.0,29.0,53.0,35.0,-23.0,-40.0,-1011.0,124.0
-4.0,-249.0,26.0,52.0,35.0,-24.0,-35.0,-1016.0,129.0
0.0,-250.0,26.0,49.0,37.0,-23.0,-37.0,-1014.0,123.0
0.0,-250.0,30.0,48.0,38.0,-21.0,-43.0,-1017.0,131.0
-2.0,-248.0,29.0,50.0,38.0,-20.0,-44.0,-1022.0,129.0
-4.0,-249.0,31.0,54.0,37.0,-22.0,-44.0,-1022.0,129.0
-2.0,-249.0,25.0,61.0,36.0,-21.0,-38.0,-1019.0,128.0
-1.0,-248.0,26.0,66.0,33.0,-21.0,-41.0,-1014.0,130.0
0.0,-247.0,24.0,70.0,31.0,-21.0,-43.0,-1017.0,130.0
-2.0,-247.0,29.0,72.0,29.0,-20.0,-46.0,-1019.0,133.0
-1.0,-246.0,27.0,72.0,28.0,-21.0,-44.0,-1010.0,124.0
-4.0,-245.0,29.0,71.0,27.0,-19.0,-40.0,-1010.0,130.0
0.0,-247.0,30.0,70.0,29.0,-18.0,-43.0,-1011.0,125.0
-4.0,-246.0,31.0,67.0,30.0,-18.0,-46.0,-1014.0,128.0
-5.0,-241.0,26.0,65.0,33.0,-18.0,-43.0,-1013.0,132.0
0.0,-248.0,33.0,63.0,33.0,-18.0,-40.0,-1013.0,137.0
-1.0,-247.0,28.0,61.0,35.0,-18.0,-43.0,-1017.0,133.0
1.0,-246.0,29.0,61.0,35.0,-18.0,-42.0,-1017.0,139.0
-3.0,-245.0,29.0,63.0,35.0,-16.0,-41.0,-1015.0,142.0
0.0,-248.0,34.0,64.0,34.0,-17.0,-43.0,-1011.0,140.0
-1.0,-245.0,28.0,68.0,33.0,-18.0,-37.0,-1012.0,133.0
-3.0,-244.0,26.0,71.0,32.0,-19.0,-40.0,-1011.0,126.0
-2.0,-247.0,28.0,72.0,32.0,-18.0,-43.0,-1004.0,126.0
-3.0,-246.0,30.0,72.0,30.0,-17.0,-34.0,-1002.0,125.0
0.0,-244.0,29.0,71.0,32.0,-17.0,-35.0,-1008.0,123.0
-1.0,-245.0,26.0,69.0,33.0,-18.0,-37.0,-1003.0,119.0
-4.0,-243.0,30.0,66.0,34.0,-19.0,-30.0,-1013.0,128.0
-1.0,-246.0,27.0,62.0,35.0,-18.0,-33.0,-1006.0,125.0
-11.0,-244.0,27.0,57.0,36.0,-19.0,-46.0,-1004.0,130.0
-2.0,-247.0,30.0,53.0,36.0,-17.0,-41.0,-1006.0,141.0
-3.0,-244.0,34.0,49.0,37.0,-19.0,-40.0,-1017.0,135.0
-3.0,-247.0,30.0,49.0,35.0,-19.0,-36.0,-1018.0,137.0
-1.0,-242.0,30.0,52.0,34.0,-21.0,-44.0,-1011.0,140.0
0.0,-246.0,30.0,56.0,34.0,-21.0,-41.0,-1016.0,135.0
-3.0,-245.0,31.0,61.0,34.0,-22.0,-46.0,-1016.0,138.0
-3.0,-248.0,27.0,63.0,34.0,-25.0,-43.0,-1013.0,130.0
-2.0,-245.0,23.0,63.0,35.0,-26.0,-47.0,-1012.0,129.0
-1.0,-244.0,30.0,62.0,38.0,-25.0,-46.0,-1012.0,135.0
-1.0,-247.0,26.0,59.0,38.0,-26.0,-43.0,-1010.0,129.0
-5.0,-247.0,33.0,56.0,40.0,-24.0,-43.0,-1009.0,133.0
-1.0,-245.0,35.0,54.0,41.0,-23.0,-41.0,-1009.0,126.0
0.0,-245.0,28.0,52.0,43.0,-21.0,-39.0,-1014.0,129.0
-2.0,-249.0,32.0,51.0,44.0,-21.0,-37.0,-1011.0,133.0
-3.0,-245.0,30.0,50.0,44.0,-19.0,-36.0,-1014.0,137.0
-1.0,-249.0,33.0,50.0,42.0,-18.0,-34.0,-1015.0,138.0
-5.0,-245.0,35.0,50.0,41.0,-17.0,-40.0,-1014.0,133.0
0.0,-246.0,33.0,50.0,38.0,-16.0,-38.0,-1023.0,137.0
-2.0,-246.0,30.0,52.0,39.0,-16.0,-38.0,-1015.0,137.0
1.0,-248.0,32.0,52.0,39.0,-16.0,-39.0,-1015.0,135.0
-3.0,-248.0,26.0,51.0,40.0,-16.0,-40.0,-1014.0,139.0
0.0,-249.0,33.0,52.0,40.0,-16.0,-38.0,-1016.0,135.0
-2.0,-244.0,32.0,55.0,38.0,-17.0,-36.0,-1016.0,130.0
0.0,-247.0,29.0,55.0,39.0,-17.0,-43.0,-1020.0,130.0
1.0,-249.0,28.0,58.0,39.0,-18.0,-39.0,-1014.0,130.0
-1.0,-244.0,28.0,58.0,39.0,-18.0,-42.0,-1012.0,132.0
-3.0,-244.0,28.0,58.0,37.0,-18.0,-43.0,-1015.0,134.0
-3.0,-246.0,31.0,58.0,36.0,-16.0,-43.0,-1012.0,125.0
-1.0,-244.0,28.0,56.0,33.0,-18.0,-46.0,-1012.0,132.0
-5.0,-246.0,32.0,54.0,31.0,-17.0,-48.0,-1014.0,137.0
-2.0,-247.0,31.0,54.0,28.0,-16.0,-45.0,-1017.0,129.0
-11.0,-249.0,25.0,54.0,24.0,-14.0,-46.0,-1010.0,128.0
-4.0,-246.0,33.0,54.0,23.0,-15.0,-45.0,-1010.0,137.0
-3.0,-246.0,30.0,55.0,22.0,-13.0,-51.0,-1014.0,139.0
-1.0,-247.0,30.0,55.0,20.0,-13.0,-47.0,-1006.0,135.0
-4.0,-245.0,33.0,52.0,18.0,-12.0,-43.0,-1006.0,135.0
-2.0,-248.0,33.0,50.0,18.0,-11.0,-51.0,-1009.0,131.0
-4.0,-243.0,29.0,47.0,18.0,-13.0,-47.0,-1012.0,131.0
-2.0,-246.0,27.0,47.0,17.0,-12.0,-47.0,-1013.0,137.0
0.0,-246.0,27.0,48.0,18.0,-12.0,-40.0,-1016.0,131.0
-4.0,-246.0,28.0,50.0,17.0,-15.0,-43.0,-1013.0,131.0
-2.0,-247.0,27.0,52.0,14.0,-14.0,-43.0,-1014.0,131.0
1.0,-247.0,32.0,54.0,14.0,-16.0,-40.0,-1011.0,131.0
0.0,-247.0,30.0,55.0,13.0,-16.0,-41.0,-1013.0,133.0
-1.0,-246.0,30.0,55.0,13.0,-15.0,-36.0,-1013.0,130.0
-1.0,-245.0,31.0,54.0,12.0,-18.0,-40.0,-1010.0,131.0
0.0,-246.0,30.0,51.0,12.0,-17.0,-34.0,-1014.0,132.0
-1.0,-244.0,28.0,50.0,12.0,-16.0,-34.0,-1017.0,135.0
-3.0,-246.0,29.0,49.0,12.0,-16.0,-42.0,-1012.0,129.0
0.0,-248.0,23.0,47.0,10.0,-17.0,-36.0,-1012.0,137.0
-1.0,-244.0,27.0,48.0,9.0,-16.0,-40.0,-1009.0,129.0
-4.0,-246.0,31.0,47.0,7.0,-16.0,-37.0,-1007.0,134.0
0.0,-239.0,32.0,47.0,4.0,-16.0,-43.0,-1016.0,132.0
-1.0,-247.0,33.0,46.0,1.0,-14.0,-43.0,-1010.0,130.0
-5.0,-243.0,35.0,43.0,-2.0,-14.0,-45.0,-1006.0,135.0
-3.0,-247.0,29.0,41.0,-4.0,-14.0,-45.0,-1014.0,141.0
-2.0,-244.0,32.0,37.0,-5.0,-13.0,-47.0,-1011.0,137.0
-3.0,-245.0,32.0,33.0,-7.0,-15.0,-45.0,-1011.0,138.0
-3.0,-243.0,31.0,31.0,-7.0,-14.0,-49.0,-1011.0,138.0
0.0,-246.0,34.0,26.0,-8.0,-14.0,-46.0,-1010.0,143.0
-1.0,-248.0,31.0,21.0,-8.0,-14.0,-45.0,-1015.0,141.0
-1.0,-246.0,32.0,16.0,-7.0,-15.0,-44.0,-1005.0,138.0
0.0,-248.0,30.0,10.0,-5.0,-14.0,-41.0,-1011.0,138.0
-6.0,-244.0,41.0,9.0,-4.0,-14.0,-41.0,-1012.0,139.0
-2.0,-245.0,32.0,8.0,-2.0,-16.0,-41.0,-1011.0,134.0
2.0,-245.0,30.0,9.0,-1.0,-16.0,-41.0,-1011.0,136.0
0.0,-247.0,33.0,14.0,-1.0,-15.0,-38.0,-1008.0,139.0
-1.0,-247.0,30.0,18.0,-1.0,-15.0,-36.0,-1005.0,139.0
-1.0,-249.0,30.0,24.0,-2.0,-16.0,-38.0,-1014.0,140.0
0.0,-249.0,31.0,28.0,-5.0,-18.0,-38.0,-1017.0,134.0
-2.0,-248.0,26.0,35.0,-6.0,-19.0,-30.0,-1024.0,130.0
-2.0,-250.0,30.0,40.0,-7.0,-20.0,-31.0,-1020.0,131.0
-2.0,-249.0,27.0,47.0,-9.0,-21.0,-34.0,-1026.0,126.0
0.0,-250.0,29.0,51.0,-8.0,-21.0,-32.0,-1023.0,122.0
-6.0,-244.0,20.0,56.0,-9.0,-23.0,-32.0,-1020.0,119.0
0.0,-250.0,26.0,60.0,-8.0,-23.0,-35.0,-1023.0,122.0
1.0,-248.0,27.0,63.0,-6.0,-23.0,-31.0,-1021.0,114.0
0.0,-251.0,28.0,65.0,-5.0,-22.0,-31.0,-1022.0,121.0
1.0,-248.0,30.0,66.0,-3.0,-21.0,-33.0,-1024.0,123.0
0.0,-248.0,25.0,66.0,-2.0,-18.0,-30.0,-1019.0,124.0
0.0,-243.0,26.0,65.0,1.0,-17.0,-31.0,-1025.0,122.0
-1.0,-250.0,26.0,65.0,4.0,-15.0,-32.0,-1019.0,122.0
-1.0,-248.0,28.0,64.0,5.0,-12.0,-35.0,-1022.0,127.0
2.0,-250.0,30.0,64.0,8.0,-11.0,-26.0,-1020.0,129.0
1.0,-245.0,29.0,65.0,10.0,-8.0,-28.0,-1021.0,135.0
0.0,-249.0,32.0,69.0,14.0,-8.0,-30.0,-1018.0,140.0
0.0,-247.0,31.0,75.0,16.0,-8.0,-31.0,-1018.0,133.0
1.0,-247.0,32.0,81.0,20.0,-7.0,-29.0,-1017.0,138.0
1.0,-248.0,27.0,84.0,20.0,-5.0,-25.0,-1013.0,139.0
2.0,-248.0,31.0,84.0,20.0,-4.0,-22.0,-1007.0,139.0
1.0,-244.0,33.0,82.0,21.0,-3.0,-22.0,-1013.0,130.0
1.0,-246.0,30.0,78.0,21.0,-2.0,-24.0,-1008.0,134.0
3.0,-244.0,29.0,73.0,20.0,-1.0,-24.0,-1005.0,138.0
4.0,-248.0,30.0,70.0,23.0,0.0,-24.0,-1005.0,132.0
0.0,-247.0,30.0,68.0,24.0,-3.0,-27.0,-1004.0,132.0
1.0,-249.0,30.0,65.0,28.0,-3.0,-28.0,-1001.0,133.0
1.0,-241.0,30.0,61.0,32.0,-5.0,-28.0,-1002.0,137.0
0.0,-245.0,31.0,55.0,37.0,-6.0,-28.0,-1004.0,140.0
0.0,-247.0,33.0,51.0,42.0,-8.0,-29.0,-1008.0,141.0
-2.0,-242.0,28.0,47.0,46.0,-11.0,-34.0,-1008.0,139.0
0.0,-243.0,30.0,46.0,48.0,-11.0,-37.0,-1007.0,140.0
1.0,-244.0,32.0,47.0,49.0,-13.0,-34.0,-1006.0,140.0
-1.0,-244.0,30.0,49.0,48.0,-13.0,-38.0,-1006.0,140.0
-1.0,-245.0,29.0,51.0,46.0,-12.0,-42.0,-1015.0,138.0
-7.0,-242.0,26.0,51.0,44.0,-13.0,-39.0,-1007.0,135.0
-3.0,-246.0,32.0,50.0,41.0,-12.0,-39.0,-1008.0,132.0
-3.0,-245.0,36.0,46.0,39.0,-11.0,-36.0,-1006.0,133.0
-3.0,-244.0,29.0,41.0,37.0,-11.0,-38.0,-1003.0,131.0
-2.0,-243.0,30.0,36.0,37.0,-11.0,-47.0,-1013.0,130.0
0.0,-247.0,31.0,33.0,36.0,-11.0,-40.0,-1010.0,139.0
0.0,-248.0,33.0,32.0,36.0,-11.0,-40.0,-1014.0,141.0
-1.0,-246.0,28.0,34.0,36.0,-12.0,-41.0,-1013.0,139.0
0.0,-249.0,31.0,36.0,37.0,-13.0,-38.0,-1016.0,142.0
0.0,-247.0,31.0,40.0,38.0,-13.0,-38.0,-1018.0,139.0
0.0,-249.0,33.0,44.0,39.0,-15.0,-33.0,-1017.0,139.0
0.0,-243.0,33.0,47.0,40.0,-16.0,-27.0,-1021.0,137.0
-2.0,-241.0,32.0,48.0,40.0,-17.0,-38.0,-1008.0,138.0
-2.0,-248.0,30.0,48.0,39.0,-18.0,-37.0,-1012.0,131.0
0.0,-246.0,30.0,48.0,39.0,-18.0,-35.0,-1017.0,135.0
-1.0,-247.0,31.0,47.0,36.0,-16.0,-35.0,-1017.0,135.0
0.0,-246.0,33.0,47.0,33.0,-15.0,-38.0,-1015.0,136.0
-1.0,-247.0,31.0,47.0,31.0,-15.0,-39.0,-1017.0,137.0
0.0,-248.0,32.0,49.0,29.0,-16.0,-41.0,-1024.0,140.0
0.0,-245.0,34.0,52.0,27.0,-17.0,-44.0,-1029.0,144.0
-5.0,-246.0,34.0,55.0,26.0,-17.0,-42.0,-1020.0,139.0
-1.0,-249.0,34.0,57.0,24.0,-15.0,-42.0,-1020.0,139.0
-1.0,-250.0,31.0,61.0,23.0,-14.0,-42.0,-1020.0,142.0
-8.0,-246.0,31.0,64.0,21.0,-13.0,-42.0,-1022.0,138.0
-3.0,-252.0,35.0,65.0,20.0,-11.0,-43.0,-1021.0,146.0
0.0,-245.0,34.0,66.0,18.0,-11.0,-38.0,-1016.0,143.0
0.0,-247.0,31.0,66.0,16.0,-11.0,-42.0,-1021.0,140.0
-1.0,-247.0,34.0,66.0,15.0,-12.0,-38.0,-1010.0,145.0
-2.0,-245.0,33.0,67.0,13.0,-11.0,-38.0,-1014.0,142.0
-2.0,-248.0,33.0,69.0,12.0,-11.0,-41.0,-1011.0,139.0
0.0,-247.0,30.0,71.0,13.0,-12.0,-41.0,-1017.0,142.0
-2.0,-250.0,36.0,73.0,14.0,-12.0,-42.0,-1016.0,139.0
-1.0,-244.0,27.0,74.0,14.0,-12.0,-38.0,-1022.0,137.0
0.0,-251.0,31.0,76.0,14.0,-14.0,-42.0,-1019.0,136.0
-2.0,-250.0,29.0,77.0,12.0,-14.0,-37.0,-1020.0,141.0
-3.0,-247.0,28.0,78.0,11.0,-15.0,-34.0,-1019.0,140.0
-1.0,-245.0,30.0,82.0,9.0,-14.0,-37.0,-1020.0,140.0
-2.0,-248.0,33.0,86.0,9.0,-14.0,-43.0,-1019.0,142.0
