acc1_x,acc1_y,acc1_z,gyro_x,gyro_y,gyro_z,acc2_x,acc2_y,acc2_z
19.0,-236.0,81.0,39.0,20.0,-9.0,39.0,-962.0,342.0
21.0,-238.0,80.0,39.0,20.0,-9.0,38.0,-955.0,344.0
19.0,-234.0,83.0,38.0,22.0,-12.0,39.0,-963.0,341.0
19.0,-234.0,78.0,39.0,19.0,-13.0,40.0,-963.0,340.0
23.0,-234.0,76.0,39.0,19.0,-13.0,37.0,-960.0,346.0
20.0,-227.0,79.0,39.0,20.0,-13.0,36.0,-958.0,341.0
19.0,-229.0,78.0,37.0,21.0,-13.0,40.0,-964.0,337.0
20.0,-234.0,81.0,34.0,21.0,-14.0,43.0,-965.0,343.0
20.0,-234.0,83.0,31.0,20.0,-14.0,44.0,-962.0,342.0
18.0,-227.0,74.0,30.0,20.0,-16.0,40.0,-968.0,344.0
19.0,-235.0,80.0,27.0,20.0,-15.0,45.0,-967.0,335.0
22.0,-233.0,82.0,24.0,21.0,-17.0,44.0,-964.0,338.0
22.0,-234.0,76.0,23.0,21.0,-18.0,40.0,-975.0,336.0
17.0,-232.0,80.0,23.0,19.0,-18.0,43.0,-971.0,341.0
23.0,-233.0,81.0,25.0,17.0,-20.0,45.0,-971.0,339.0
22.0,-238.0,77.0,28.0,15.0,-21.0,51.0,-973.0,338.0
21.0,-239.0,79.0,30.0,14.0,-20.0,46.0,-968.0,334.0
20.0,-235.0,76.0,34.0,14.0,-19.0,41.0,-968.0,339.0
19.0,-230.0,75.0,36.0,13.0,-18.0,45.0,-967.0,329.0
21.0,-237.0,79.0,39.0,13.0,-18.0,48.0,-968.0,328.0
22.0,-233.0,77.0,39.0,15.0,-17.0,49.0,-970.0,326.0
24.0,-234.0,77.0,37.0,15.0,-18.0,52.0,-961.0,325.0
22.0,-236.0,75.0,35.0,17.0,-17.0,55.0,-974.0,329.0
21.0,-237.0,73.0,33.0,14.0,-15.0,48.0,-963.0,330.0
25.0,-235.0,79.0,30.0,12.0,-14.0,46.0,-963.0,333.0
22.0,-232.0,75.0,28.0,8.0,-12.0,54.0,-976.0,323.0
23.0,-241.0,75.0,29.0,6.0,-10.0,50.0,-968.0,329.0
24.0,-237.0,78.0,29.0,5.0,-11.0,52.0,-968.0,333.0
25.0,-234.0,74.0,34.0,5.0,-11.0,55.0,-968.0,335.0
24.0,-236.0,77.0,38.0,5.0,-11.0,55.0,-967.0,333.0
24.0,-236.0,76.0,42.0,5.0,-10.0,53.0,-963.0,326.0
23.0,-235.0,79.0,46.0,6.0,-11.0,45.0,-963.0,331.0
22.0,-232.0,79.0,50.0,7.0,-11.0,52.0,-969.0,328.0
21.0,-232.0,82.0,51.0,6.0,-11.0,50.0,-964.0,326.0
21.0,-233.0,78.0,51.0,8.0,-10.0,48.0,-965.0,332.0
20.0,-234.0,79.0,51.0,8.0,-10.0,55.0,-963.0,337.0
20.0,-232.0,77.0,49.0,7.0,-11.0,50.0,-965.0,335.0
10.0,-227.0,88.0,48.0,7.0,-8.0,47.0,-965.0,333.0
22.0,-233.0,79.0,46.0,7.0,-8.0,47.0,-969.0,333.0
21.0,-234.0,75.0,43.0,5.0,-6.0,42.0,-962.0,328.0
23.0,-233.0,78.0,40.0,6.0,-6.0,45.0,-961.0,339.0
19.0,-231.0,76.0,36.0,5.0,-4.0,43.0,-960.0,334.0
22.0,-231.0,80.0,34.0,7.0,-3.0,48.0,-962.0,332.0
20.0,-234.0,75.0,31.0,8.0,-4.0,42.0,-964.0,339.0
17.0,-233.0,77.0,32.0,6.0,-5.0,44.0,-968.0,335.0
22.0,-234.0,80.0,32.0,6.0,-3.0,48.0,-968.0,338.0
19.0,-234.0,77.0,35.0,5.0,-4.0,44.0,-971.0,333.0
24.0,-236.0,78.0,38.0,3.0,-6.0,44.0,-975.0,346.0
16.0,-234.0,77.0,42.0,2.0,-5.0,44.0,-966.0,342.0
21.0,-234.0,80.0,45.0,4.0,-6.0,48.0,-970.0,340.0
20.0,-233.0,79.0,48.0,3.0,-7.0,41.0,-970.0,343.0
18.0,-235.0,79.0,50.0,4.0,-8.0,40.0,-973.0,335.0
21.0,-237.0,78.0,52.0,3.0,-7.0,47.0,-966.0,338.0
21.0,-235.0,79.0,53.0,5.0,-8.0,44.0,-964.0,333.0
20.0,-235.0,78.0,54.0,6.0,-8.0,44.0,-964.0,333.0
21.0,-235.0,73.0,54.0,6.0,-8.0,45.0,-968.0,330.0
24.0,-233.0,72.0,54.0,6.0,-6.0,44.0,-963.0,333.0
19.0,-232.0,78.0,53.0,7.0,-8.0,44.0,-964.0,335.0
23.0,-233.0,81.0,52.0,6.0,-10.0,45.0,-961.0,326.0
22.0,-229.0,81.0,54.0,8.0,-8.0,44.0,-964.0,332.0
21.0,-233.0,77.0,53.0,8.0,-8.0,50.0,-967.0,333.0
22.0,-233.0,79.0,52.0,7.0,-8.0,52.0,-961.0,330.0
21.0,-231.0,78.0,51.0,7.0,-9.0,48.0,-965.0,331.0
23.0,-235.0,79.0,49.0,8.0,-8.0,54.0,-961.0,332.0
24.0,-233.0,76.0,48.0,7.0,-8.0,51.0,-962.0,330.0
22.0,-235.0,78.0,47.0,7.0,-8.0,53.0,-964.0,330.0
21.0,-237.0,78.0,45.0,6.0,-5.0,56.0,-975.0,335.0
24.0,-236.0,77.0,45.0,4.0,-6.0,57.0,-973.0,334.0
23.0,-236.0,81.0,48.0,3.0,-6.0,51.0,-972.0,330.0
24.0,-238.0,82.0,51.0,2.0,-7.0,46.0,-968.0,337.0
20.0,-239.0,85.0,52.0,2.0,-6.0,44.0,-974.0,330.0
19.0,-233.0,81.0,54.0,4.0,-6.0,49.0,-970.0,342.0
21.0,-234.0,78.0,56.0,5.0,-9.0,52.0,-965.0,324.0
20.0,-233.0,80.0,58.0,6.0,-10.0,48.0,-967.0,328.0
20.0,-233.0,78.0,53.0,6.0,-10.0,45.0,-963.0,329.0
23.0,-232.0,77.0,53.0,5.0,-10.0,47.0,-966.0,333.0
19.0,-235.0,78.0,48.0,6.0,-10.0,50.0,-965.0,329.0
22.0,-229.0,78.0,43.0,7.0,-10.0,45.0,-962.0,329.0
21.0,-234.0,75.0,41.0,7.0,-11.0,46.0,-958.0,328.0
19.0,-229.0,75.0,38.0,6.0,-11.0,48.0,-959.0,330.0
25.0,-234.0,85.0,40.0,3.0,-12.0,43.0,-964.0,331.0
12.0,-234.0,78.0,38.0,2.0,-11.0,44.0,-964.0,330.0
21.0,-234.0,78.0,39.0,3.0,-12.0,45.0,-963.0,334.0
22.0,-235.0,76.0,38.0,4.0,-13.0,44.0,-965.0,333.0
23.0,-232.0,75.0,39.0,5.0,-12.0,41.0,-968.0,336.0
22.0,-234.0,74.0,42.0,4.0,-11.0,48.0,-969.0,336.0
21.0,-232.0,78.0,44.0,3.0,-11.0,48.0,-963.0,332.0
22.0,-234.0,77.0,45.0,1.0,-12.0,48.0,-973.0,333.0
24.0,-233.0,80.0,46.0,0.0,-10.0,59.0,-969.0,333.0
23.0,-235.0,82.0,47.0,-1.0,-9.0,48.0,-965.0,339.0
22.0,-238.0,79.0,48.0,-2.0,-6.0,51.0,-971.0,332.0
18.0,-232.0,79.0,51.0,-3.0,-8.0,47.0,-968.0,337.0
24.0,-238.0,79.0,53.0,-3.0,-7.0,44.0,-967.0,341.0
22.0,-234.0,77.0,55.0,-3.0,-8.0,45.0,-964.0,342.0
21.0,-232.0,80.0,58.0,-2.0,-9.0,48.0,-964.0,337.0
20.0,-233.0,75.0,59.0,-3.0,-9.0,42.0,-965.0,331.0
16.0,-231.0,80.0,60.0,-1.0,-9.0,46.0,-968.0,335.0
19.0,-236.0,76.0,58.0,1.0,-10.0,44.0,-963.0,340.0
21.0,-232.0,79.0,58.0,1.0,-11.0,49.0,-968.0,339.0
18.0,-227.0,72.0,57.0,1.0,-10.0,53.0,-964.0,331.0
26.0,-235.0,74.0,56.0,1.0,-12.0,46.0,-965.0,326.0
23.0,-231.0,71.0,57.0,3.0,-12.0,50.0,-965.0,325.0
27.0,-233.0,80.0,56.0,5.0,-12.0,55.0,-963.0,326.0
19.0,-235.0,77.0,53.0,9.0,-14.0,55.0,-963.0,315.0
23.0,-233.0,75.0,48.0,12.0,-13.0,51.0,-967.0,319.0
21.0,-235.0,76.0,46.0,13.0,-14.0,58.0,-965.0,328.0
23.0,-236.0,78.0,43.0,12.0,-12.0,54.0,-970.0,326.0
22.0,-234.0,75.0,40.0,11.0,-12.0,55.0,-965.0,322.0
23.0,-237.0,77.0,42.0,9.0,-13.0,53.0,-966.0,328.0
22.0,-238.0,74.0,45.0,8.0,-12.0,49.0,-968.0,329.0
20.0,-237.0,82.0,46.0,9.0,-10.0,50.0,-973.0,335.0
21.0,-235.0,77.0,49.0,9.0,-10.0,51.0,-978.0,330.0
25.0,-233.0,73.0,53.0,11.0,-9.0,54.0,-976.0,338.0
18.0,-232.0,78.0,54.0,14.0,-11.0,53.0,-976.0,325.0
19.0,-234.0,78.0,55.0,16.0,-9.0,56.0,-972.0,333.0
20.0,-234.0,77.0,54.0,20.0,-11.0,45.0,-968.0,330.0
22.0,-234.0,78.0,51.0,21.0,-11.0,53.0,-972.0,334.0
25.0,-235.0,79.0,48.0,24.0,-12.0,45.0,-976.0,329.0
21.0,-233.0,77.0,44.0,28.0,-12.0,46.0,-966.0,333.0
21.0,-233.0,80.0,43.0,28.0,-15.0,45.0,-966.0,335.0
20.0,-234.0,82.0,41.0,29.0,-15.0,51.0,-966.0,337.0
17.0,-232.0,78.0,39.0,28.0,-15.0,41.0,-958.0,340.0
18.0,-228.0,77.0,38.0,28.0,-15.0,35.0,-960.0,337.0
17.0,-228.0,79.0,35.0,23.0,-15.0,35.0,-953.0,339.0
21.0,-238.0,77.0,30.0,19.0,-15.0,35.0,-949.0,337.0
22.0,-232.0,78.0,24.0,16.0,-14.0,38.0,-952.0,341.0
20.0,-233.0,81.0,18.0,13.0,-13.0,40.0,-952.0,335.0
18.0,-230.0,80.0,11.0,11.0,-14.0,39.0,-953.0,337.0
18.0,-231.0,81.0,7.0,8.0,-14.0,38.0,-953.0,341.0
22.0,-233.0,78.0,3.0,6.0,-12.0,34.0,-958.0,335.0
22.0,-233.0,79.0,1.0,5.0,-10.0,38.0,-958.0,341.0
20.0,-233.0,80.0,1.0,2.0,-8.0,47.0,-963.0,340.0
23.0,-236.0,84.0,1.0,1.0,-8.0,39.0,-962.0,340.0
21.0,-234.0,79.0,3.0,1.0,-9.0,44.0,-975.0,340.0
22.0,-235.0,79.0,4.0,1.0,-7.0,53.0,-971.0,335.0
18.0,-233.0,82.0,7.0,2.0,-8.0,42.0,-976.0,335.0
21.0,-236.0,80.0,11.0,4.0,-10.0,45.0,-970.0,335.0
21.0,-235.0,77.0,14.0,6.0,-8.0,43.0,-967.0,337.0
19.0,-234.0,76.0,18.0,7.0,-7.0,55.0,-971.0,333.0
21.0,-235.0,75.0,22.0,8.0,-7.0,55.0,-970.0,328.0
26.0,-235.0,76.0,21.0,9.0,-6.0,52.0,-961.0,327.0
20.0,-235.0,75.0,19.0,9.0,-5.0,56.0,-964.0,318.0
22.0,-233.0,77.0,17.0,9.0,-3.0,55.0,-967.0,321.0
21.0,-234.0,72.0,15.0,8.0,-2.0,57.0,-961.0,317.0
22.0,-235.0,71.0,15.0,8.0,-1.0,53.0,-967.0,315.0
24.0,-235.0,71.0,17.0,6.0,1.0,56.0,-974.0,315.0
22.0,-232.0,77.0,21.0,4.0,3.0,54.0,-974.0,315.0
23.0,-237.0,76.0,26.0,3.0,2.0,57.0,-974.0,312.0
25.0,-237.0,75.0,31.0,4.0,1.0,58.0,-978.0,313.0
24.0,-236.0,71.0,36.0,4.0,1.0,54.0,-971.0,309.0
23.0,-236.0,74.0,42.0,6.0,-1.0,62.0,-974.0,307.0
22.0,-234.0,74.0,45.0,8.0,-1.0,52.0,-978.0,304.0
24.0,-238.0,69.0,47.0,10.0,-1.0,58.0,-978.0,294.0
21.0,-233.0,71.0,46.0,11.0,-1.0,57.0,-969.0,299.0
21.0,-234.0,67.0,43.0,13.0,-3.0,58.0,-975.0,300.0
25.0,-237.0,75.0,41.0,12.0,-4.0,58.0,-978.0,301.0
25.0,-235.0,72.0,39.0,14.0,-4.0,55.0,-976.0,299.0
24.0,-237.0,69.0,38.0,13.0,-2.0,56.0,-974.0,302.0
26.0,-236.0,72.0,37.0,13.0,-2.0,49.0,-968.0,308.0
26.0,-242.0,73.0,40.0,12.0,0.0,47.0,-976.0,311.0
21.0,-235.0,72.0,44.0,11.0,1.0,46.0,-976.0,317.0
23.0,-240.0,78.0,48.0,11.0,1.0,41.0,-979.0,321.0
20.0,-236.0,74.0,52.0,8.0,2.0,44.0,-972.0,324.0
22.0,-236.0,76.0,57.0,8.0,1.0,47.0,-972.0,331.0
18.0,-237.0,77.0,60.0,8.0,2.0,43.0,-974.0,323.0
18.0,-239.0,76.0,61.0,7.0,1.0,38.0,-975.0,327.0
18.0,-236.0,76.0,62.0,7.0,-1.0,41.0,-981.0,327.0
21.0,-234.0,75.0,64.0,7.0,-3.0,39.0,-975.0,325.0
22.0,-233.0,75.0,64.0,6.0,-6.0,37.0,-975.0,326.0
22.0,-237.0,73.0,64.0,7.0,-5.0,40.0,-973.0,323.0
18.0,-233.0,77.0,65.0,9.0,-8.0,41.0,-975.0,331.0
18.0,-233.0,79.0,65.0,9.0,-8.0,39.0,-968.0,325.0
20.0,-235.0,77.0,65.0,8.0,-10.0,39.0,-977.0,332.0
20.0,-236.0,75.0,67.0,7.0,-10.0,35.0,-971.0,325.0
18.0,-231.0,77.0,68.0,7.0,-10.0,38.0,-971.0,328.0
18.0,-234.0,71.0,70.0,6.0,-12.0,40.0,-968.0,324.0
19.0,-234.0,79.0,73.0,6.0,-13.0,40.0,-965.0,326.0
21.0,-233.0,77.0,76.0,7.0,-14.0,43.0,-963.0,329.0
21.0,-234.0,74.0,79.0,7.0,-16.0,42.0,-967.0,327.0
22.0,-235.0,77.0,84.0,6.0,-15.0,43.0,-966.0,326.0
20.0,-235.0,78.0,88.0,4.0,-14.0,40.0,-967.0,325.0
21.0,-236.0,81.0,92.0,5.0,-13.0,43.0,-974.0,323.0
22.0,-235.0,78.0,95.0,4.0,-15.0,44.0,-965.0,324.0
21.0,-235.0,75.0,99.0,3.0,-15.0,44.0,-977.0,318.0
21.0,-235.0,73.0,101.0,4.0,-16.0,47.0,-963.0,323.0
23.0,-233.0,76.0,103.0,6.0,-17.0,48.0,-970.0,322.0
20.0,-233.0,79.0,106.0,5.0,-20.0,47.0,-965.0,324.0
20.0,-235.0,74.0,108.0,6.0,-21.0,47.0,-965.0,322.0
19.0,-232.0,79.0,108.0,4.0,-21.0,43.0,-967.0,327.0
23.0,-235.0,75.0,104.0,3.0,-21.0,44.0,-960.0,327.0
19.0,-236.0,73.0,100.0,3.0,-20.0,45.0,-962.0,329.0
19.0,-231.0,78.0,92.0,1.0,-19.0,41.0,-961.0,340.0
20.0,-234.0,82.0,86.0,2.0,-19.0,40.0,-957.0,337.0
20.0,-232.0,81.0,82.0,3.0,-18.0,42.0,-964.0,336.0
20.0,-234.0,81.0,77.0,4.0,-18.0,43.0,-958.0,345.0
22.0,-232.0,78.0,74.0,7.0,-17.0,43.0,-964.0,343.0
21.0,-233.0,79.0,71.0,9.0,-17.0,52.0,-963.0,347.0
22.0,-233.0,79.0,70.0,12.0,-17.0,50.0,-961.0,345.0
22.0,-230.0,80.0,65.0,14.0,-18.0,49.0,-960.0,345.0
24.0,-234.0,81.0,62.0,14.0,-18.0,50.0,-961.0,347.0
22.0,-233.0,81.0,57.0,15.0,-18.0,51.0,-964.0,342.0
21.0,-236.0,78.0,52.0,17.0,-17.0,49.0,-962.0,336.0
21.0,-231.0,75.0,48.0,17.0,-19.0,55.0,-960.0,333.0
23.0,-233.0,80.0,45.0,17.0,-17.0,59.0,-962.0,341.0
21.0,-237.0,82.0,39.0,17.0,-17.0,55.0,-956.0,338.0
21.0,-233.0,78.0,34.0,16.0,-16.0,53.0,-961.0,337.0
22.0,-233.0,78.0,29.0,11.0,-15.0,53.0,-958.0,334.0
22.0,-235.0,78.0,25.0,9.0,-12.0,56.0,-965.0,338.0
26.0,-240.0,80.0,21.0,5.0,-10.0,55.0,-964.0,343.0
27.0,-232.0,79.0,19.0,3.0,-8.0,54.0,-962.0,334.0
23.0,-233.0,79.0,18.0,3.0,-9.0,55.0,-962.0,339.0
20.0,-237.0,81.0,17.0,2.0,-8.0,58.0,-962.0,339.0
26.0,-236.0,80.0,19.0,3.0,-7.0,54.0,-962.0,336.0
23.0,-235.0,80.0,21.0,3.0,-8.0,55.0,-972.0,335.0
22.0,-234.0,78.0,22.0,3.0,-6.0,55.0,-962.0,337.0
23.0,-232.0,74.0,23.0,2.0,-5.0,52.0,-967.0,329.0
20.0,-233.0,79.0,22.0,1.0,-6.0,53.0,-968.0,334.0
23.0,-232.0,78.0,21.0,-1.0,-3.0,52.0,-967.0,331.0
22.0,-234.0,74.0,18.0,-1.0,-5.0,50.0,-964.0,333.0
21.0,-235.0,81.0,16.0,-3.0,-6.0,48.0,-964.0,334.0
23.0,-235.0,75.0,15.0,-5.0,-4.0,48.0,-964.0,332.0
19.0,-233.0,77.0,16.0,-6.0,-6.0,42.0,-963.0,334.0
25.0,-234.0,81.0,18.0,-5.0,-7.0,41.0,-967.0,335.0
19.0,-236.0,79.0,19.0,-4.0,-8.0,43.0,-971.0,328.0
21.0,-237.0,73.0,22.0,-3.0,-9.0,40.0,-966.0,332.0
20.0,-234.0,78.0,23.0,-5.0,-12.0,40.0,-966.0,333.0
22.0,-235.0,75.0,22.0,-4.0,-12.0,41.0,-966.0,325.0
19.0,-236.0,76.0,22.0,-4.0,-11.0,42.0,-969.0,334.0
20.0,-231.0,76.0,18.0,-5.0,-11.0,36.0,-965.0,327.0
21.0,-232.0,77.0,14.0,-6.0,-12.0,39.0,-965.0,325.0
17.0,-232.0,79.0,8.0,-7.0,-13.0,38.0,-963.0,322.0
21.0,-234.0,79.0,0.0,-8.0,-14.0,43.0,-964.0,320.0
21.0,-235.0,70.0,-10.0,-8.0,-17.0,44.0,-966.0,320.0
18.0,-228.0,76.0,-17.0,-9.0,-18.0,43.0,-966.0,319.0
25.0,-237.0,74.0,-24.0,-8.0,-16.0,50.0,-965.0,321.0
24.0,-238.0,81.0,-30.0,-8.0,-17.0,53.0,-977.0,316.0
23.0,-232.0,75.0,-31.0,-7.0,-16.0,58.0,-973.0,318.0
22.0,-236.0,76.0,-27.0,-5.0,-16.0,56.0,-978.0,314.0
25.0,-238.0,74.0,-22.0,-2.0,-18.0,55.0,-981.0,314.0
22.0,-236.0,73.0,-14.0,1.0,-18.0,53.0,-977.0,314.0
22.0,-236.0,73.0,-5.0,4.0,-17.0,60.0,-981.0,314.0
24.0,-234.0,73.0,2.0,6.0,-18.0,57.0,-979.0,310.0
23.0,-239.0,71.0,5.0,6.0,-17.0,56.0,-979.0,305.0
24.0,-236.0,69.0,3.0,5.0,-17.0,58.0,-974.0,307.0
22.0,-236.0,71.0,2.0,3.0,-16.0,60.0,-973.0,305.0
23.0,-233.0,71.0,0.0,0.0,-14.0,60.0,-973.0,302.0
23.0,-235.0,69.0,-3.0,-1.0,-15.0,53.0,-976.0,306.0
23.0,-236.0,68.0,-1.0,-2.0,-11.0,58.0,-975.0,307.0
25.0,-236.0,70.0,0.0,-2.0,-11.0,64.0,-976.0,305.0
24.0,-231.0,74.0,4.0,-5.0,-9.0,55.0,-969.0,306.0
21.0,-232.0,71.0,9.0,-5.0,-10.0,54.0,-971.0,312.0
18.0,-233.0,75.0,15.0,-7.0,-10.0,55.0,-968.0,314.0
21.0,-235.0,72.0,21.0,-5.0,-12.0,49.0,-964.0,305.0
22.0,-233.0,74.0,28.0,-5.0,-12.0,51.0,-965.0,307.0
27.0,-233.0,75.0,32.0,-4.0,-11.0,50.0,-968.0,309.0
21.0,-236.0,77.0,38.0,-2.0,-10.0,51.0,-968.0,310.0
26.0,-234.0,74.0,40.0,-1.0,-12.0,57.0,-963.0,319.0
23.0,-236.0,75.0,41.0,-1.0,-13.0,54.0,-964.0,310.0
21.0,-235.0,74.0,41.0,0.0,-12.0,52.0,-964.0,323.0
23.0,-234.0,77.0,39.0,1.0,-13.0,48.0,-967.0,320.0
22.0,-233.0,74.0,36.0,2.0,-13.0,52.0,-967.0,321.0
21.0,-233.0,77.0,33.0,4.0,-13.0,52.0,-961.0,331.0
20.0,-232.0,78.0,27.0,4.0,-11.0,51.0,-963.0,333.0
22.0,-233.0,80.0,25.0,3.0,-13.0,49.0,-972.0,329.0
22.0,-237.0,81.0,24.0,2.0,-10.0,46.0,-973.0,338.0
22.0,-237.0,76.0,25.0,0.0,-8.0,49.0,-980.0,346.0
17.0,-234.0,77.0,29.0,0.0,-9.0,43.0,-981.0,342.0
21.0,-239.0,76.0,36.0,0.0,-6.0,45.0,-983.0,344.0
26.0,-237.0,81.0,43.0,0.0,-6.0,47.0,-977.0,334.0
20.0,-235.0,79.0,49.0,2.0,-5.0,43.0,-976.0,327.0
23.0,-237.0,76.0,53.0,2.0,-7.0,44.0,-973.0,336.0
20.0,-233.0,75.0,53.0,2.0,-6.0,46.0,-967.0,328.0
20.0,-235.0,75.0,49.0,3.0,-6.0,44.0,-971.0,320.0
24.0,-233.0,81.0,42.0,5.0,-8.0,46.0,-964.0,330.0
16.0,-230.0,76.0,35.0,7.0,-10.0,47.0,-968.0,319.0
24.0,-235.0,76.0,28.0,10.0,-9.0,47.0,-964.0,329.0
23.0,-229.0,79.0,23.0,14.0,-8.0,48.0,-962.0,332.0
25.0,-234.0,76.0,21.0,16.0,-9.0,48.0,-965.0,333.0
21.0,-231.0,78.0,19.0,17.0,-7.0,51.0,-975.0,335.0
22.0,-234.0,77.0,20.0,18.0,-8.0,53.0,-969.0,331.0
25.0,-234.0,78.0,21.0,18.0,-7.0,56.0,-972.0,333.0
24.0,-232.0,77.0,22.0,17.0,-6.0,56.0,-970.0,329.0
24.0,-235.0,73.0,23.0,16.0,-4.0,52.0,-968.0,324.0
23.0,-235.0,73.0,22.0,15.0,-5.0,54.0,-968.0,311.0
22.0,-234.0,77.0,19.0,15.0,-5.0,57.0,-970.0,311.0
24.0,-237.0,67.0,13.0,13.0,-5.0,57.0,-965.0,313.0
22.0,-232.0,71.0,10.0,12.0,-4.0,52.0,-977.0,309.0
24.0,-239.0,72.0,6.0,10.0,-3.0,53.0,-977.0,306.0
20.0,-238.0,69.0,4.0,8.0,0.0,59.0,-983.0,309.0
22.0,-237.0,71.0,6.0,7.0,-1.0,54.0,-981.0,300.0
22.0,-237.0,69.0,13.0,6.0,-2.0,58.0,-982.0,307.0
18.0,-236.0,70.0,19.0,5.0,-3.0,56.0,-980.0,306.0
24.0,-238.0,71.0,28.0,7.0,-3.0,56.0,-984.0,305.0
23.0,-234.0,66.0,37.0,10.0,-3.0,59.0,-979.0,294.0
26.0,-236.0,66.0,44.0,12.0,-2.0,59.0,-978.0,302.0
25.0,-237.0,74.0,49.0,11.0,-3.0,59.0,-976.0,301.0
22.0,-235.0,72.0,51.0,11.0,-3.0,61.0,-973.0,301.0
23.0,-236.0,65.0,52.0,11.0,-1.0,60.0,-978.0,293.0
27.0,-242.0,75.0,50.0,10.0,-2.0,58.0,-974.0,292.0
29.0,-235.0,66.0,47.0,9.0,-1.0,59.0,-972.0,301.0
24.0,-234.0,71.0,43.0,8.0,-1.0,55.0,-976.0,298.0
21.0,-237.0,71.0,39.0,6.0,-2.0,50.0,-976.0,299.0
22.0,-236.0,71.0,38.0,4.0,-2.0,56.0,-980.0,305.0
24.0,-240.0,70.0,37.0,1.0,-3.0,57.0,-981.0,303.0
23.0,-238.0,72.0,38.0,0.0,-3.0,48.0,-978.0,300.0
23.0,-239.0,70.0,39.0,-2.0,-3.0,52.0,-984.0,301.0
20.0,-235.0,65.0,42.0,1.0,-6.0,53.0,-977.0,295.0
23.0,-236.0,73.0,44.0,4.0,-5.0,54.0,-972.0,294.0
22.0,-239.0,67.0,47.0,7.0,-5.0,52.0,-978.0,300.0
21.0,-235.0,71.0,49.0,9.0,-6.0,56.0,-971.0,305.0
26.0,-233.0,77.0,52.0,12.0,-8.0,51.0,-972.0,297.0
21.0,-237.0,70.0,52.0,15.0,-8.0,51.0,-977.0,307.0
22.0,-236.0,71.0,51.0,16.0,-11.0,50.0,-972.0,305.0
20.0,-233.0,71.0,51.0,17.0,-11.0,49.0,-971.0,299.0
22.0,-234.0,70.0,50.0,18.0,-11.0,48.0,-975.0,302.0
20.0,-238.0,68.0,50.0,18.0,-11.0,55.0,-974.0,307.0
19.0,-235.0,69.0,53.0,20.0,-11.0,48.0,-977.0,310.0
23.0,-236.0,74.0,56.0,20.0,-12.0,49.0,-977.0,311.0
21.0,-234.0,71.0,58.0,20.0,-12.0,46.0,-973.0,313.0
19.0,-233.0,72.0,60.0,19.0,-11.0,49.0,-976.0,315.0
20.0,-239.0,68.0,63.0,16.0,-12.0,50.0,-981.0,313.0
21.0,-238.0,74.0,64.0,15.0,-11.0,42.0,-977.0,319.0
24.0,-236.0,72.0,66.0,15.0,-11.0,44.0,-973.0,322.0
17.0,-234.0,78.0,70.0,16.0,-11.0,46.0,-975.0,328.0
20.0,-237.0,77.0,73.0,15.0,-13.0,49.0,-977.0,324.0
20.0,-235.0,76.0,80.0,16.0,-13.0,48.0,-973.0,325.0
22.0,-233.0,76.0,83.0,18.0,-12.0,43.0,-972.0,325.0
23.0,-237.0,75.0,85.0,20.0,-14.0,40.0,-971.0,321.0
20.0,-234.0,78.0,85.0,22.0,-14.0,43.0,-966.0,322.0
17.0,-235.0,74.0,84.0,23.0,-14.0,42.0,-968.0,315.0
23.0,-236.0,74.0,80.0,23.0,-15.0,39.0,-965.0,310.0
18.0,-236.0,72.0,76.0,24.0,-16.0,44.0,-975.0,313.0
23.0,-236.0,75.0,71.0,23.0,-14.0,42.0,-969.0,317.0
21.0,-234.0,73.0,67.0,23.0,-13.0,51.0,-966.0,316.0
23.0,-235.0,74.0,65.0,21.0,-14.0,43.0,-974.0,321.0
20.0,-234.0,72.0,65.0,20.0,-15.0,48.0,-972.0,321.0
23.0,-236.0,76.0,65.0,20.0,-15.0,43.0,-975.0,320.0
24.0,-237.0,79.0,67.0,18.0,-15.0,48.0,-974.0,318.0
21.0,-236.0,78.0,71.0,18.0,-17.0,49.0,-971.0,319.0
21.0,-238.0,72.0,75.0,20.0,-18.0,41.0,-976.0,320.0
22.0,-233.0,81.0,79.0,20.0,-18.0,43.0,-977.0,320.0
17.0,-235.0,76.0,80.0,21.0,-18.0,47.0,-971.0,315.0
23.0,-234.0,73.0,81.0,20.0,-19.0,47.0,-967.0,316.0
21.0,-236.0,72.0,81.0,18.0,-16.0,47.0,-965.0,319.0
21.0,-234.0,74.0,78.0,17.0,-16.0,40.0,-964.0,320.0
19.0,-235.0,75.0,76.0,17.0,-16.0,41.0,-964.0,321.0
22.0,-236.0,74.0,71.0,16.0,-17.0,46.0,-963.0,316.0
17.0,-232.0,73.0,67.0,15.0,-14.0,41.0,-965.0,313.0
22.0,-234.0,75.0,64.0,16.0,-14.0,48.0,-964.0,322.0
21.0,-236.0,73.0,61.0,15.0,-14.0,43.0,-972.0,321.0
22.0,-235.0,74.0,59.0,15.0,-13.0,48.0,-970.0,320.0
24.0,-233.0,76.0,57.0,16.0,-13.0,54.0,-974.0,313.0
22.0,-237.0,73.0,58.0,15.0,-15.0,47.0,-973.0,321.0
22.0,-237.0,78.0,58.0,13.0,-13.0,46.0,-973.0,322.0
18.0,-236.0,74.0,59.0,11.0,-13.0,52.0,-973.0,318.0
22.0,-237.0,76.0,60.0,12.0,-13.0,51.0,-967.0,316.0
22.0,-236.0,73.0,63.0,10.0,-13.0,45.0,-977.0,318.0
22.0,-234.0,73.0,64.0,10.0,-14.0,49.0,-974.0,319.0
21.0,-237.0,75.0,66.0,10.0,-13.0,48.0,-974.0,320.0
21.0,-234.0,73.0,68.0,9.0,-13.0,50.0,-977.0,317.0
22.0,-235.0,71.0,70.0,8.0,-14.0,51.0,-968.0,311.0
22.0,-236.0,71.0,71.0,6.0,-14.0,48.0,-968.0,319.0
20.0,-235.0,70.0,73.0,4.0,-16.0,44.0,-975.0,313.0
21.0,-235.0,74.0,72.0,4.0,-15.0,46.0,-968.0,319.0
23.0,-230.0,71.0,70.0,5.0,-15.0,43.0,-968.0,315.0
19.0,-234.0,73.0,70.0,6.0,-17.0,47.0,-972.0,325.0
22.0,-233.0,74.0,68.0,7.0,-16.0,50.0,-971.0,320.0
23.0,-232.0,74.0,70.0,6.0,-15.0,53.0,-969.0,325.0
23.0,-236.0,75.0,69.0,9.0,-15.0,53.0,-971.0,320.0
20.0,-235.0,79.0,68.0,8.0,-13.0,51.0,-970.0,325.0
20.0,-234.0,79.0,68.0,9.0,-13.0,51.0,-974.0,324.0
24.0,-234.0,79.0,68.0,8.0,-13.0,53.0,-972.0,327.0
19.0,-233.0,72.0,67.0,7.0,-10.0,52.0,-973.0,314.0
22.0,-238.0,79.0,65.0,6.0,-12.0,55.0,-966.0,320.0
23.0,-238.0,72.0,63.0,5.0,-12.0,55.0,-969.0,312.0
16.0,-239.0,75.0,61.0,5.0,-11.0,54.0,-970.0,314.0
24.0,-232.0,74.0,58.0,4.0,-11.0,52.0,-970.0,316.0
22.0,-233.0,74.0,55.0,4.0,-11.0,52.0,-964.0,316.0
22.0,-233.0,72.0,52.0,5.0,-12.0,55.0,-964.0,319.0
22.0,-235.0,76.0,52.0,7.0,-13.0,49.0,-972.0,316.0
20.0,-233.0,71.0,53.0,7.0,-13.0,54.0,-964.0,316.0
22.0,-234.0,77.0,54.0,7.0,-15.0,54.0,-968.0,318.0
24.0,-235.0,73.0,55.0,8.0,-17.0,56.0,-968.0,320.0
22.0,-236.0,76.0,57.0,9.0,-16.0,55.0,-978.0,321.0
22.0,-235.0,73.0,59.0,8.0,-17.0,58.0,-972.0,319.0
24.0,-239.0,73.0,63.0,8.0,-17.0,53.0,-973.0,320.0
16.0,-240.0,78.0,66.0,8.0,-18.0,52.0,-969.0,315.0
21.0,-235.0,75.0,69.0,8.0,-17.0,47.0,-976.0,317.0
21.0,-235.0,74.0,70.0,9.0,-18.0,45.0,-969.0,317.0
23.0,-236.0,75.0,70.0,7.0,-20.0,50.0,-971.0,308.0
22.0,-234.0,75.0,69.0,7.0,-18.0,49.0,-975.0,312.0
21.0,-236.0,75.0,66.0,7.0,-18.0,49.0,-966.0,308.0
20.0,-236.0,72.0,66.0,8.0,-17.0,54.0,-971.0,316.0
21.0,-233.0,78.0,64.0,9.0,-16.0,55.0,-970.0,319.0
19.0,-233.0,78.0,63.0,9.0,-17.0,47.0,-967.0,319.0
24.0,-237.0,75.0,64.0,10.0,-17.0,48.0,-975.0,321.0
23.0,-235.0,72.0,66.0,9.0,-17.0,44.0,-967.0,319.0
25.0,-235.0,78.0,69.0,11.0,-16.0,46.0,-973.0,317.0
21.0,-233.0,76.0,72.0,12.0,-17.0,54.0,-973.0,320.0
22.0,-236.0,74.0,75.0,11.0,-16.0,51.0,-973.0,321.0
22.0,-233.0,74.0,77.0,11.0,-15.0,48.0,-967.0,323.0
21.0,-235.0,75.0,77.0,10.0,-14.0,47.0,-972.0,325.0
21.0,-237.0,75.0,77.0,11.0,-14.0,47.0,-970.0,321.0
22.0,-233.0,77.0,75.0,11.0,-13.0,54.0,-972.0,324.0
18.0,-233.0,72.0,73.0,11.0,-13.0,51.0,-965.0,322.0
20.0,-234.0,74.0,69.0,12.0,-12.0,54.0,-972.0,321.0
22.0,-233.0,79.0,67.0,13.0,-12.0,54.0,-975.0,326.0
21.0,-233.0,74.0,67.0,13.0,-13.0,50.0,-973.0,326.0
21.0,-232.0,75.0,66.0,15.0,-12.0,55.0,-974.0,322.0
21.0,-238.0,75.0,65.0,14.0,-12.0,54.0,-972.0,319.0
21.0,-235.0,80.0,68.0,13.0,-14.0,58.0,-972.0,328.0
23.0,-236.0,77.0,71.0,13.0,-13.0,59.0,-967.0,326.0
21.0,-235.0,71.0,73.0,10.0,-13.0,58.0,-971.0,323.0
25.0,-236.0,76.0,74.0,8.0,-14.0,55.0,-966.0,321.0
20.0,-235.0,73.0,75.0,8.0,-13.0,48.0,-965.0,322.0
22.0,-232.0,72.0,75.0,7.0,-12.0,56.0,-965.0,321.0
26.0,-235.0,80.0,75.0,7.0,-11.0,55.0,-968.0,318.0
25.0,-234.0,78.0,75.0,7.0,-11.0,51.0,-961.0,322.0
21.0,-229.0,77.0,74.0,8.0,-13.0,53.0,-971.0,322.0
22.0,-232.0,74.0,70.0,9.0,-13.0,51.0,-963.0,323.0
24.0,-236.0,73.0,68.0,13.0,-13.0,48.0,-966.0,322.0
21.0,-232.0,75.0,67.0,17.0,-11.0,57.0,-964.0,326.0
23.0,-233.0,75.0,65.0,18.0,-12.0,60.0,-968.0,323.0
25.0,-234.0,78.0,63.0,19.0,-11.0,55.0,-964.0,326.0
23.0,-235.0,79.0,61.0,18.0,-9.0,50.0,-961.0,327.0
20.0,-233.0,79.0,63.0,17.0,-8.0,49.0,-966.0,330.0
24.0,-236.0,77.0,62.0,16.0,-9.0,56.0,-975.0,330.0
21.0,-234.0,71.0,64.0,14.0,-10.0,56.0,-974.0,325.0
21.0,-235.0,76.0,66.0,13.0,-10.0,53.0,-973.0,322.0
18.0,-231.0,78.0,66.0,13.0,-11.0,53.0,-971.0,324.0
22.0,-235.0,78.0,68.0,14.0,-12.0,55.0,-967.0,326.0
23.0,-233.0,73.0,69.0,15.0,-11.0,49.0,-968.0,321.0
23.0,-233.0,73.0,68.0,17.0,-14.0,53.0,-964.0,322.0
22.0,-235.0,76.0,69.0,18.0,-14.0,53.0,-968.0,316.0
21.0,-235.0,74.0,67.0,19.0,-15.0,56.0,-968.0,315.0
24.0,-233.0,76.0,67.0,18.0,-14.0,51.0,-963.0,324.0
21.0,-230.0,73.0,66.0,18.0,-14.0,49.0,-966.0,322.0
21.0,-233.0,74.0,66.0,19.0,-12.0,55.0,-961.0,319.0
19.0,-233.0,75.0,63.0,19.0,-11.0,53.0,-968.0,318.0
20.0,-229.0,75.0,61.0,19.0,-11.0,53.0,-967.0,320.0
26.0,-230.0,66.0,60.0,20.0,-11.0,53.0,-973.0,321.0
23.0,-231.0,72.0,60.0,19.0,-8.0,53.0,-966.0,319.0
24.0,-233.0,76.0,59.0,18.0,-8.0,56.0,-974.0,327.0
25.0,-235.0,76.0,58.0,17.0,-9.0,58.0,-968.0,322.0
24.0,-235.0,76.0,59.0,18.0,-10.0,55.0,-975.0,324.0
23.0,-232.0,77.0,60.0,17.0,-9.0,54.0,-971.0,325.0
22.0,-234.0,79.0,62.0,17.0,-9.0,55.0,-971.0,328.0
20.0,-232.0,77.0,65.0,17.0,-9.0,54.0,-967.0,326.0
24.0,-233.0,74.0,66.0,18.0,-8.0,54.0,-970.0,330.0
23.0,-234.0,78.0,68.0,20.0,-9.0,50.0,-968.0,321.0
21.0,-230.0,76.0,67.0,20.0,-12.0,48.0,-967.0,330.0
24.0,-234.0,80.0,65.0,20.0,-12.0,55.0,-963.0,324.0
21.0,-233.0,77.0,61.0,19.0,-12.0,54.0,-967.0,336.0
23.0,-234.0,77.0,56.0,18.0,-11.0,41.0,-963.0,326.0
24.0,-237.0,75.0,52.0,16.0,-8.0,48.0,-965.0,327.0
21.0,-236.0,75.0,49.0,14.0,-10.0,51.0,-971.0,334.0
21.0,-234.0,77.0,48.0,13.0,-10.0,52.0,-967.0,333.0
21.0,-238.0,77.0,49.0,12.0,-10.0,52.0,-975.0,327.0
22.0,-236.0,77.0,51.0,13.0,-12.0,48.0,-975.0,329.0
24.0,-237.0,76.0,53.0,13.0,-11.0,48.0,-974.0,328.0
23.0,-238.0,79.0,58.0,14.0,-12.0,52.0,-978.0,333.0
21.0,-234.0,78.0,60.0,17.0,-13.0,55.0,-967.0,323.0
24.0,-232.0,73.0,64.0,18.0,-12.0,48.0,-966.0,323.0
23.0,-234.0,74.0,67.0,19.0,-12.0,55.0,-972.0,326.0
24.0,-234.0,77.0,67.0,19.0,-13.0,55.0,-969.0,324.0
23.0,-234.0,80.0,67.0,19.0,-11.0,51.0,-964.0,323.0
21.0,-233.0,78.0,66.0,21.0,-9.0,46.0,-962.0,318.0
21.0,-231.0,78.0,62.0,22.0,-9.0,52.0,-962.0,325.0
23.0,-232.0,77.0,59.0,22.0,-10.0,48.0,-968.0,325.0
20.0,-231.0,76.0,57.0,23.0,-9.0,49.0,-963.0,331.0
18.0,-234.0,78.0,56.0,23.0,-11.0,51.0,-966.0,331.0
26.0,-236.0,76.0,56.0,23.0,-10.0,51.0,-969.0,336.0
23.0,-236.0,76.0,61.0,24.0,-12.0,56.0,-963.0,332.0
19.0,-241.0,83.0,63.0,23.0,-11.0,45.0,-965.0,336.0
20.0,-232.0,79.0,65.0,20.0,-12.0,49.0,-971.0,331.0
23.0,-234.0,76.0,69.0,18.0,-11.0,45.0,-967.0,332.0
23.0,-236.0,80.0,68.0,17.0,-12.0,49.0,-962.0,326.0
21.0,-233.0,80.0,65.0,18.0,-12.0,43.0,-964.0,327.0
23.0,-231.0,78.0,62.0,19.0,-12.0,46.0,-963.0,323.0
18.0,-234.0,77.0,58.0,20.0,-13.0,48.0,-963.0,331.0
19.0,-234.0,80.0,53.0,20.0,-11.0,48.0,-964.0,333.0
25.0,-236.0,78.0,51.0,20.0,-11.0,54.0,-962.0,329.0
22.0,-232.0,79.0,51.0,19.0,-13.0,50.0,-967.0,329.0
22.0,-231.0,77.0,50.0,19.0,-11.0,54.0,-968.0,331.0
20.0,-238.0,83.0,48.0,19.0,-11.0,50.0,-963.0,325.0
24.0,-231.0,78.0,49.0,18.0,-12.0,53.0,-968.0,334.0
20.0,-234.0,77.0,49.0,18.0,-11.0,53.0,-967.0,330.0
23.0,-234.0,73.0,50.0,19.0,-10.0,52.0,-967.0,329.0
24.0,-236.0,79.0,48.0,18.0,-9.0,53.0,-973.0,331.0
22.0,-236.0,74.0,52.0,18.0,-11.0,53.0,-968.0,330.0
21.0,-233.0,77.0,52.0,17.0,-12.0,41.0,-976.0,327.0
24.0,-234.0,74.0,54.0,19.0,-12.0,49.0,-971.0,332.0
19.0,-236.0,76.0,56.0,22.0,-14.0,46.0,-972.0,332.0
26.0,-237.0,80.0,59.0,23.0,-13.0,44.0,-963.0,332.0
20.0,-232.0,75.0,63.0,22.0,-15.0,45.0,-964.0,326.0
16.0,-233.0,75.0,64.0,23.0,-15.0,43.0,-964.0,324.0
20.0,-233.0,79.0,62.0,23.0,-15.0,49.0,-960.0,327.0
21.0,-232.0,75.0,60.0,22.0,-16.0,52.0,-961.0,323.0
22.0,-234.0,76.0,58.0,22.0,-16.0,49.0,-960.0,322.0
17.0,-233.0,75.0,54.0,21.0,-15.0,52.0,-960.0,320.0
22.0,-229.0,79.0,47.0,19.0,-14.0,45.0,-957.0,326.0
21.0,-233.0,79.0,41.0,18.0,-13.0,51.0,-960.0,327.0
24.0,-234.0,81.0,36.0,16.0,-12.0,52.0,-962.0,325.0
22.0,-231.0,78.0,34.0,15.0,-14.0,57.0,-961.0,326.0
21.0,-235.0,78.0,32.0,14.0,-12.0,51.0,-962.0,323.0
24.0,-230.0,81.0,32.0,14.0,-11.0,50.0,-976.0,327.0
28.0,-233.0,91.0,33.0,13.0,-11.0,53.0,-967.0,330.0
24.0,-235.0,78.0,32.0,13.0,-10.0,56.0,-970.0,334.0
24.0,-234.0,79.0,31.0,12.0,-10.0,51.0,-970.0,335.0
24.0,-231.0,79.0,33.0,10.0,-8.0,54.0,-964.0,329.0
24.0,-232.0,82.0,31.0,9.0,-9.0,54.0,-978.0,329.0
24.0,-236.0,78.0,31.0,10.0,-8.0,49.0,-967.0,332.0
23.0,-235.0,76.0,31.0,12.0,-9.0,54.0,-976.0,329.0
27.0,-233.0,80.0,30.0,13.0,-8.0,52.0,-965.0,328.0
24.0,-233.0,76.0,30.0,14.0,-8.0,57.0,-970.0,328.0
22.0,-233.0,79.0,28.0,16.0,-8.0,54.0,-967.0,323.0
24.0,-231.0,78.0,27.0,15.0,-7.0,56.0,-958.0,332.0
23.0,-223.0,69.0,25.0,13.0,-7.0,45.0,-961.0,335.0
23.0,-235.0,79.0,22.0,12.0,-5.0,54.0,-966.0,327.0
20.0,-230.0,75.0,20.0,10.0,-6.0,56.0,-966.0,331.0
24.0,-236.0,76.0,18.0,7.0,-6.0,53.0,-962.0,329.0
21.0,-234.0,79.0,18.0,7.0,-5.0,51.0,-964.0,331.0
24.0,-231.0,76.0,17.0,7.0,-4.0,54.0,-966.0,330.0
20.0,-232.0,74.0,17.0,8.0,-5.0,53.0,-966.0,323.0
22.0,-236.0,78.0,16.0,8.0,-6.0,49.0,-967.0,333.0
23.0,-234.0,76.0,16.0,8.0,-5.0,50.0,-967.0,327.0
22.0,-235.0,75.0,17.0,7.0,-5.0,49.0,-968.0,327.0
22.0,-237.0,77.0,19.0,8.0,-5.0,51.0,-973.0,326.0
23.0,-235.0,72.0,20.0,8.0,-5.0,54.0,-975.0,321.0
24.0,-235.0,74.0,21.0,8.0,-5.0,53.0,-967.0,325.0
22.0,-236.0,78.0,25.0,11.0,-4.0,55.0,-974.0,322.0
21.0,-233.0,78.0,26.0,12.0,-4.0,54.0,-963.0,325.0
20.0,-233.0,74.0,27.0,12.0,-5.0,52.0,-966.0,318.0
23.0,-233.0,73.0,25.0,11.0,-6.0,47.0,-965.0,316.0
21.0,-232.0,69.0,21.0,12.0,-4.0,55.0,-965.0,318.0
21.0,-238.0,72.0,17.0,12.0,-1.0,49.0,-967.0,318.0
21.0,-233.0,76.0,14.0,10.0,0.0,53.0,-964.0,322.0
22.0,-234.0,76.0,10.0,10.0,-1.0,45.0,-968.0,311.0
24.0,-240.0,65.0,7.0,8.0,-2.0,46.0,-971.0,313.0
25.0,-235.0,75.0,5.0,8.0,-3.0,42.0,-969.0,318.0
20.0,-234.0,76.0,3.0,8.0,-3.0,49.0,-971.0,309.0
21.0,-237.0,72.0,3.0,8.0,-2.0,44.0,-976.0,319.0
23.0,-236.0,72.0,5.0,8.0,-4.0,52.0,-977.0,314.0
20.0,-235.0,73.0,7.0,7.0,-4.0,55.0,-977.0,317.0
19.0,-236.0,72.0,8.0,9.0,-5.0,54.0,-975.0,314.0
23.0,-242.0,71.0,10.0,9.0,-6.0,42.0,-975.0,313.0
21.0,-234.0,72.0,12.0,10.0,-6.0,41.0,-979.0,308.0
22.0,-238.0,72.0,11.0,10.0,-6.0,52.0,-974.0,309.0
19.0,-236.0,73.0,11.0,12.0,-5.0,48.0,-977.0,305.0
19.0,-236.0,71.0,10.0,12.0,-4.0,54.0,-975.0,308.0
22.0,-238.0,69.0,9.0,12.0,-4.0,48.0,-977.0,314.0
21.0,-233.0,74.0,7.0,9.0,-4.0,53.0,-974.0,310.0
21.0,-236.0,71.0,7.0,7.0,-2.0,49.0,-973.0,312.0
21.0,-234.0,71.0,6.0,7.0,-1.0,44.0,-978.0,311.0
23.0,-235.0,74.0,9.0,6.0,0.0,51.0,-976.0,312.0
20.0,-235.0,70.0,11.0,6.0,-3.0,51.0,-976.0,313.0
20.0,-236.0,77.0,13.0,8.0,-2.0,49.0,-967.0,310.0
23.0,-238.0,72.0,13.0,9.0,0.0,42.0,-975.0,315.0
22.0,-234.0,68.0,14.0,10.0,-3.0,48.0,-972.0,306.0
21.0,-235.0,76.0,12.0,10.0,-1.0,40.0,-971.0,312.0
19.0,-235.0,72.0,10.0,12.0,-1.0,43.0,-973.0,310.0
22.0,-235.0,75.0,8.0,11.0,1.0,50.0,-976.0,310.0
19.0,-233.0,71.0,6.0,10.0,0.0,43.0,-971.0,312.0
22.0,-238.0,74.0,3.0,8.0,1.0,41.0,-967.0,312.0
20.0,-236.0,77.0,1.0,2.0,3.0,42.0,-967.0,320.0
19.0,-235.0,73.0,1.0,-3.0,3.0,44.0,-971.0,314.0
17.0,-237.0,77.0,3.0,-6.0,2.0,37.0,-972.0,326.0
20.0,-237.0,74.0,9.0,-8.0,0.0,41.0,-970.0,327.0
23.0,-232.0,74.0,15.0,-5.0,-2.0,40.0,-970.0,317.0
21.0,-236.0,72.0,21.0,-1.0,-3.0,39.0,-966.0,307.0
18.0,-233.0,77.0,23.0,6.0,-3.0,38.0,-966.0,307.0
15.0,-234.0,66.0,20.0,10.0,-2.0,36.0,-964.0,318.0
21.0,-232.0,76.0,18.0,13.0,-1.0,40.0,-972.0,315.0
18.0,-233.0,71.0,14.0,16.0,3.0,44.0,-964.0,305.0
24.0,-234.0,72.0,8.0,17.0,6.0,49.0,-965.0,306.0
20.0,-234.0,70.0,3.0,16.0,8.0,52.0,-967.0,302.0
24.0,-234.0,71.0,-2.0,14.0,11.0,47.0,-970.0,314.0
19.0,-231.0,71.0,-7.0,14.0,14.0,53.0,-963.0,312.0
22.0,-232.0,75.0,-11.0,15.0,17.0,53.0,-959.0,318.0
25.0,-235.0,70.0,-13.0,13.0,20.0,55.0,-966.0,319.0
25.0,-231.0,77.0,-13.0,12.0,20.0,59.0,-965.0,322.0
21.0,-231.0,75.0,-14.0,9.0,20.0,56.0,-965.0,315.0
21.0,-233.0,76.0,-16.0,6.0,16.0,49.0,-960.0,323.0
25.0,-234.0,75.0,-19.0,2.0,15.0,54.0,-962.0,321.0
22.0,-229.0,73.0,-24.0,-2.0,10.0,52.0,-954.0,324.0
23.0,-231.0,74.0,-30.0,-6.0,6.0,54.0,-964.0,319.0
23.0,-231.0,73.0,-38.0,-7.0,4.0,56.0,-960.0,314.0
21.0,-233.0,75.0,-46.0,-8.0,1.0,54.0,-961.0,314.0
25.0,-234.0,70.0,-54.0,-6.0,-1.0,54.0,-965.0,317.0
22.0,-234.0,76.0,-60.0,-4.0,-1.0,59.0,-966.0,311.0
23.0,-231.0,73.0,-62.0,-4.0,0.0,53.0,-963.0,314.0
21.0,-232.0,73.0,-61.0,-5.0,4.0,59.0,-968.0,317.0
23.0,-233.0,76.0,-58.0,-5.0,6.0,57.0,-968.0,308.0
20.0,-230.0,71.0,-54.0,-3.0,7.0,58.0,-968.0,315.0
26.0,-236.0,72.0,-52.0,-1.0,8.0,57.0,-972.0,315.0
23.0,-232.0,74.0,-50.0,1.0,8.0,57.0,-965.0,311.0
24.0,-232.0,71.0,-49.0,5.0,12.0,58.0,-963.0,315.0
25.0,-234.0,72.0,-52.0,9.0,11.0,61.0,-966.0,308.0
24.0,-232.0,72.0,-55.0,12.0,7.0,58.0,-963.0,307.0
24.0,-234.0,74.0,-63.0,17.0,6.0,56.0,-962.0,309.0
24.0,-229.0,73.0,-71.0,22.0,4.0,58.0,-962.0,314.0
21.0,-233.0,74.0,-77.0,26.0,0.0,54.0,-960.0,309.0
21.0,-234.0,76.0,-83.0,30.0,-4.0,51.0,-956.0,305.0
24.0,-229.0,74.0,-91.0,32.0,-6.0,52.0,-961.0,306.0
16.0,-231.0,72.0,-103.0,34.0,-12.0,45.0,-950.0,305.0
21.0,-234.0,68.0,-116.0,34.0,-13.0,54.0,-958.0,296.0
21.0,-234.0,65.0,-131.0,33.0,-18.0,50.0,-960.0,293.0
23.0,-234.0,63.0,-147.0,31.0,-22.0,52.0,-963.0,292.0
23.0,-233.0,66.0,-162.0,34.0,-24.0,56.0,-971.0,281.0
24.0,-235.0,63.0,-177.0,36.0,-28.0,58.0,-986.0,278.0
22.0,-243.0,66.0,-191.0,43.0,-32.0,61.0,-999.0,283.0
27.0,-250.0,69.0,-199.0,54.0,-35.0,60.0,-1002.0,291.0
23.0,-247.0,72.0,-201.0,67.0,-37.0,50.0,-1020.0,293.0
22.0,-254.0,65.0,-194.0,75.0,-34.0,51.0,-1035.0,302.0
21.0,-255.0,72.0,-175.0,77.0,-27.0,45.0,-1037.0,301.0
21.0,-253.0,70.0,-148.0,67.0,-11.0,52.0,-1040.0,304.0
25.0,-249.0,66.0,-118.0,55.0,13.0,59.0,-1029.0,291.0
23.0,-250.0,65.0,-90.0,45.0,36.0,65.0,-1021.0,275.0
25.0,-249.0,57.0,-70.0,42.0,58.0,64.0,-1010.0,252.0
28.0,-246.0,61.0,-62.0,42.0,77.0,72.0,-1007.0,249.0
26.0,-243.0,58.0,-65.0,43.0,89.0,66.0,-1007.0,253.0
25.0,-241.0,58.0,-73.0,42.0,98.0,63.0,-998.0,257.0
24.0,-240.0,62.0,-82.0,39.0,103.0,61.0,-990.0,264.0
22.0,-238.0,66.0,-90.0,36.0,104.0,53.0,-984.0,275.0
23.0,-234.0,67.0,-99.0,34.0,102.0,41.0,-980.0,282.0
18.0,-232.0,67.0,-107.0,35.0,96.0,40.0,-970.0,285.0
17.0,-234.0,72.0,-113.0,36.0,86.0,34.0,-965.0,286.0
16.0,-232.0,74.0,-116.0,36.0,75.0,29.0,-954.0,290.0
15.0,-228.0,68.0,-117.0,40.0,61.0,18.0,-945.0,287.0
12.0,-222.0,65.0,-117.0,44.0,50.0,17.0,-934.0,271.0
12.0,-221.0,61.0,-125.0,49.0,39.0,14.0,-926.0,256.0
12.0,-218.0,58.0,-144.0,53.0,36.0,8.0,-923.0,249.0
13.0,-219.0,61.0,-173.0,51.0,37.0,9.0,-920.0,250.0
11.0,-225.0,61.0,-206.0,43.0,40.0,2.0,-923.0,249.0
13.0,-220.0,58.0,-241.0,32.0,45.0,4.0,-930.0,252.0
13.0,-221.0,58.0,-274.0,20.0,52.0,15.0,-934.0,258.0
8.0,-224.0,65.0,-299.0,14.0,62.0,15.0,-952.0,262.0
14.0,-231.0,63.0,-312.0,10.0,69.0,25.0,-956.0,266.0
13.0,-232.0,63.0,-318.0,9.0,76.0,20.0,-964.0,267.0
14.0,-239.0,62.0,-314.0,7.0,85.0,22.0,-983.0,260.0
17.0,-243.0,61.0,-305.0,6.0,92.0,25.0,-985.0,262.0
15.0,-243.0,61.0,-297.0,5.0,100.0,29.0,-998.0,255.0
15.0,-247.0,59.0,-288.0,7.0,107.0,30.0,-1004.0,249.0
15.0,-243.0,59.0,-284.0,13.0,113.0,22.0,-1007.0,245.0
16.0,-241.0,59.0,-283.0,19.0,118.0,29.0,-998.0,247.0
18.0,-243.0,60.0,-288.0,27.0,122.0,32.0,-999.0,249.0
19.0,-246.0,58.0,-300.0,34.0,125.0,39.0,-998.0,246.0
15.0,-247.0,59.0,-309.0,39.0,128.0,42.0,-995.0,251.0
18.0,-237.0,58.0,-325.0,38.0,130.0,40.0,-992.0,253.0
18.0,-238.0,59.0,-343.0,34.0,130.0,40.0,-991.0,247.0
20.0,-238.0,61.0,-367.0,26.0,129.0,41.0,-990.0,252.0
21.0,-240.0,62.0,-396.0,18.0,122.0,39.0,-991.0,257.0
18.0,-241.0,62.0,-421.0,8.0,113.0,36.0,-994.0,260.0
17.0,-243.0,63.0,-441.0,1.0,106.0,36.0,-995.0,260.0
19.0,-242.0,61.0,-456.0,-1.0,105.0,36.0,-1000.0,257.0
16.0,-239.0,59.0,-469.0,4.0,105.0,44.0,-1002.0,248.0
17.0,-243.0,54.0,-481.0,12.0,104.0,45.0,-1006.0,250.0
21.0,-244.0,55.0,-492.0,18.0,108.0,46.0,-1005.0,239.0
16.0,-242.0,52.0,-506.0,23.0,114.0,52.0,-998.0,224.0
24.0,-242.0,53.0,-526.0,27.0,120.0,58.0,-999.0,209.0
24.0,-241.0,48.0,-559.0,29.0,123.0,62.0,-998.0,207.0
24.0,-243.0,53.0,-611.0,29.0,115.0,61.0,-1006.0,217.0
23.0,-244.0,53.0,-673.0,27.0,102.0,55.0,-1011.0,220.0
20.0,-247.0,57.0,-738.0,21.0,84.0,41.0,-1016.0,235.0
17.0,-247.0,58.0,-799.0,13.0,67.0,42.0,-1028.0,248.0
16.0,-247.0,59.0,-858.0,3.0,43.0,30.0,-1041.0,244.0
13.0,-254.0,58.0,-910.0,-7.0,19.0,17.0,-1053.0,231.0
12.0,-259.0,53.0,-962.0,-15.0,-4.0,14.0,-1061.0,218.0
5.0,-255.0,47.0,-1016.0,-24.0,-23.0,2.0,-1074.0,203.0
5.0,-257.0,43.0,-1067.0,-30.0,-32.0,-15.0,-1072.0,183.0
3.0,-259.0,42.0,-1115.0,-32.0,-31.0,-22.0,-1074.0,170.0
3.0,-260.0,37.0,-1157.0,-27.0,-13.0,-22.0,-1083.0,166.0
7.0,-264.0,36.0,-1191.0,-13.0,12.0,-8.0,-1094.0,155.0
7.0,-264.0,31.0,-1216.0,-2.0,42.0,7.0,-1104.0,151.0
15.0,-270.0,31.0,-1229.0,5.0,69.0,23.0,-1117.0,145.0
18.0,-274.0,35.0,-1231.0,7.0,89.0,40.0,-1126.0,150.0
21.0,-278.0,41.0,-1221.0,6.0,102.0,58.0,-1145.0,156.0
23.0,-284.0,39.0,-1200.0,3.0,108.0,66.0,-1160.0,163.0
32.0,-293.0,41.0,-1165.0,6.0,105.0,81.0,-1175.0,166.0
30.0,-293.0,35.0,-1125.0,20.0,93.0,85.0,-1183.0,168.0
29.0,-292.0,37.0,-1081.0,43.0,75.0,81.0,-1192.0,163.0
26.0,-292.0,35.0,-1038.0,68.0,60.0,69.0,-1188.0,150.0
27.0,-291.0,29.0,-1000.0,85.0,44.0,70.0,-1188.0,140.0
29.0,-290.0,26.0,-971.0,95.0,29.0,77.0,-1192.0,125.0
30.0,-294.0,30.0,-955.0,97.0,14.0,78.0,-1199.0,129.0
31.0,-294.0,26.0,-944.0,92.0,-2.0,86.0,-1200.0,124.0
28.0,-299.0,30.0,-930.0,83.0,-8.0,81.0,-1215.0,132.0
27.0,-297.0,33.0,-907.0,69.0,-11.0,72.0,-1216.0,139.0
24.0,-300.0,33.0,-870.0,56.0,-12.0,61.0,-1223.0,143.0
20.0,-302.0,33.0,-818.0,45.0,-12.0,59.0,-1222.0,136.0
14.0,-296.0,23.0,-761.0,32.0,-14.0,49.0,-1218.0,123.0
16.0,-297.0,24.0,-702.0,22.0,-17.0,41.0,-1205.0,111.0
15.0,-292.0,16.0,-642.0,15.0,-21.0,27.0,-1199.0,87.0
9.0,-288.0,11.0,-589.0,14.0,-28.0,12.0,-1185.0,65.0
6.0,-285.0,7.0,-545.0,20.0,-30.0,5.0,-1168.0,46.0
5.0,-281.0,2.0,-513.0,29.0,-31.0,-2.0,-1150.0,21.0
4.0,-275.0,-1.0,-494.0,39.0,-33.0,-15.0,-1133.0,7.0
1.0,-270.0,-6.0,-484.0,47.0,-35.0,-27.0,-1126.0,-17.0
-1.0,-267.0,-9.0,-480.0,53.0,-35.0,-29.0,-1113.0,-34.0
-4.0,-270.0,-13.0,-477.0,52.0,-32.0,-34.0,-1104.0,-32.0
-4.0,-264.0,-16.0,-475.0,43.0,-31.0,-37.0,-1107.0,-49.0
0.0,-266.0,-15.0,-480.0,29.0,-27.0,-32.0,-1107.0,-51.0
0.0,-269.0,-18.0,-488.0,13.0,-25.0,-30.0,-1115.0,-55.0
-2.0,-273.0,-17.0,-494.0,-5.0,-19.0,-35.0,-1121.0,-55.0
-5.0,-273.0,-20.0,-486.0,-26.0,-8.0,-44.0,-1131.0,-62.0
4.0,-275.0,-17.0,-479.0,-48.0,10.0,-5.0,-1141.0,-53.0
3.0,-279.0,-15.0,-461.0,-69.0,15.0,-11.0,-1140.0,-44.0
-2.0,-281.0,-13.0,-417.0,-86.0,8.0,-37.0,-1148.0,-48.0
3.0,-283.0,-16.0,-371.0,-98.0,16.0,-7.0,-1153.0,-54.0
14.0,-279.0,-17.0,-333.0,-105.0,27.0,26.0,-1141.0,-52.0
5.0,-277.0,-18.0,-297.0,-107.0,28.0,4.0,-1136.0,-56.0
5.0,-280.0,-15.0,-268.0,-106.0,32.0,9.0,-1140.0,-54.0
14.0,-277.0,-15.0,-245.0,-105.0,39.0,25.0,-1132.0,-55.0
9.0,-275.0,-17.0,-220.0,-99.0,40.0,17.0,-1133.0,-60.0
16.0,-276.0,-15.0,-202.0,-90.0,44.0,36.0,-1134.0,-62.0
19.0,-276.0,-21.0,-187.0,-81.0,43.0,38.0,-1130.0,-58.0
8.0,-274.0,-22.0,-171.0,-73.0,35.0,19.0,-1125.0,-71.0
12.0,-275.0,-24.0,-155.0,-68.0,36.0,25.0,-1129.0,-77.0
16.0,-273.0,-25.0,-142.0,-66.0,36.0,27.0,-1125.0,-86.0
4.0,-275.0,-27.0,-129.0,-70.0,32.0,1.0,-1131.0,-107.0
12.0,-275.0,-31.0,-111.0,-79.0,31.0,19.0,-1130.0,-110.0
12.0,-272.0,-31.0,-100.0,-83.0,30.0,31.0,-1126.0,-121.0
4.0,-271.0,-36.0,-92.0,-80.0,20.0,0.0,-1122.0,-126.0
7.0,-272.0,-35.0,-91.0,-71.0,10.0,6.0,-1116.0,-128.0
11.0,-273.0,-37.0,-98.0,-63.0,15.0,19.0,-1128.0,-121.0
12.0,-271.0,-33.0,-106.0,-57.0,19.0,27.0,-1126.0,-117.0
12.0,-274.0,-30.0,-111.0,-49.0,17.0,24.0,-1125.0,-105.0
9.0,-275.0,-28.0,-106.0,-35.0,11.0,21.0,-1129.0,-96.0
8.0,-274.0,-29.0,-96.0,-24.0,8.0,17.0,-1135.0,-96.0
11.0,-273.0,-33.0,-77.0,-13.0,10.0,23.0,-1134.0,-98.0
12.0,-278.0,-28.0,-60.0,-2.0,16.0,35.0,-1138.0,-105.0
17.0,-276.0,-19.0,-50.0,8.0,14.0,22.0,-1126.0,-96.0
21.0,-280.0,-29.0,-35.0,17.0,10.0,14.0,-1128.0,-98.0
6.0,-273.0,-24.0,-19.0,25.0,4.0,8.0,-1126.0,-86.0
8.0,-275.0,-26.0,-3.0,24.0,-1.0,13.0,-1132.0,-94.0
3.0,-273.0,-25.0,11.0,22.0,-3.0,-2.0,-1123.0,-95.0
8.0,-272.0,-26.0,27.0,23.0,3.0,6.0,-1124.0,-91.0
10.0,-273.0,-24.0,37.0,26.0,9.0,17.0,-1115.0,-90.0
17.0,-266.0,-27.0,45.0,30.0,9.0,34.0,-1108.0,-87.0
9.0,-268.0,-26.0,61.0,35.0,-13.0,13.0,-1095.0,-93.0
5.0,-264.0,-26.0,81.0,42.0,-38.0,-2.0,-1085.0,-92.0
7.0,-259.0,-26.0,102.0,47.0,-55.0,-2.0,-1074.0,-105.0
4.0,-255.0,-32.0,118.0,47.0,-61.0,2.0,-1040.0,-115.0
8.0,-252.0,-37.0,117.0,42.0,-57.0,10.0,-1032.0,-125.0
2.0,-249.0,-35.0,108.0,40.0,-53.0,-9.0,-1023.0,-121.0
14.0,-248.0,-35.0,109.0,36.0,-51.0,26.0,-1020.0,-123.0
13.0,-244.0,-35.0,112.0,33.0,-46.0,29.0,-1003.0,-115.0
-1.0,-243.0,-37.0,133.0,30.0,-63.0,-38.0,-994.0,-128.0
-11.0,-239.0,-36.0,160.0,27.0,-91.0,-54.0,-995.0,-131.0
2.0,-239.0,-33.0,182.0,9.0,-106.0,-5.0,-984.0,-126.0
16.0,-236.0,-29.0,203.0,-9.0,-109.0,42.0,-962.0,-112.0
17.0,-229.0,-31.0,245.0,-1.0,-145.0,33.0,-943.0,-113.0
12.0,-223.0,-35.0,287.0,38.0,-194.0,18.0,-933.0,-122.0
10.0,-218.0,-38.0,308.0,67.0,-209.0,20.0,-923.0,-125.0
10.0,-217.0,-46.0,316.0,62.0,-197.0,27.0,-912.0,-134.0
14.0,-217.0,-38.0,319.0,42.0,-179.0,13.0,-897.0,-142.0
13.0,-215.0,-39.0,312.0,29.0,-155.0,31.0,-883.0,-136.0
14.0,-207.0,-37.0,296.0,28.0,-141.0,23.0,-853.0,-133.0
4.0,-199.0,-37.0,292.0,34.0,-122.0,9.0,-825.0,-139.0
10.0,-197.0,-36.0,296.0,34.0,-86.0,8.0,-809.0,-134.0
9.0,-191.0,-42.0,309.0,30.0,-63.0,9.0,-796.0,-137.0
9.0,-187.0,-37.0,323.0,27.0,-47.0,16.0,-780.0,-138.0
6.0,-179.0,-44.0,335.0,18.0,-44.0,13.0,-746.0,-156.0
5.0,-178.0,-44.0,340.0,6.0,-42.0,0.0,-724.0,-163.0
0.0,-171.0,-47.0,331.0,-1.0,-30.0,-14.0,-712.0,-169.0
0.0,-168.0,-47.0,313.0,-6.0,-14.0,-30.0,-696.0,-193.0
0.0,-165.0,-51.0,281.0,-12.0,14.0,-5.0,-682.0,-182.0
6.0,-159.0,-51.0,244.0,-33.0,26.0,1.0,-659.0,-202.0
3.0,-154.0,-54.0,218.0,-43.0,15.0,-9.0,-636.0,-194.0
7.0,-148.0,-52.0,193.0,-43.0,3.0,-4.0,-619.0,-192.0
5.0,-146.0,-57.0,170.0,-40.0,-7.0,3.0,-604.0,-205.0
1.0,-151.0,-60.0,139.0,-36.0,-15.0,-30.0,-615.0,-216.0
-15.0,-153.0,-62.0,90.0,-32.0,-22.0,-87.0,-635.0,-232.0
-11.0,-147.0,-58.0,22.0,-40.0,-31.0,-69.0,-633.0,-235.0
-8.0,-146.0,-60.0,-38.0,-54.0,-44.0,-54.0,-618.0,-225.0
-3.0,-144.0,-57.0,-83.0,-67.0,-63.0,-43.0,-608.0,-242.0
-5.0,-143.0,-63.0,-118.0,-75.0,-90.0,-42.0,-600.0,-238.0
0.0,-140.0,-64.0,-150.0,-78.0,-110.0,-22.0,-596.0,-239.0
3.0,-141.0,-65.0,-173.0,-77.0,-126.0,-11.0,-592.0,-240.0
1.0,-142.0,-67.0,-187.0,-73.0,-133.0,-10.0,-596.0,-245.0
4.0,-145.0,-66.0,-195.0,-70.0,-132.0,-4.0,-596.0,-248.0
8.0,-149.0,-66.0,-200.0,-70.0,-121.0,6.0,-608.0,-261.0
8.0,-154.0,-66.0,-199.0,-73.0,-102.0,16.0,-631.0,-262.0
3.0,-162.0,-69.0,-189.0,-78.0,-84.0,0.0,-670.0,-268.0
0.0,-171.0,-70.0,-178.0,-85.0,-63.0,-17.0,-696.0,-278.0
2.0,-172.0,-68.0,-160.0,-100.0,-40.0,3.0,-723.0,-271.0
2.0,-178.0,-66.0,-130.0,-117.0,-20.0,4.0,-737.0,-255.0
9.0,-185.0,-61.0,-79.0,-133.0,-6.0,14.0,-747.0,-233.0
6.0,-185.0,-55.0,-4.0,-142.0,-2.0,4.0,-752.0,-215.0
0.0,-184.0,-46.0,83.0,-145.0,0.0,-27.0,-745.0,-168.0
-15.0,-178.0,-37.0,177.0,-148.0,7.0,-95.0,-722.0,-136.0
-27.0,-175.0,-35.0,283.0,-168.0,26.0,-133.0,-707.0,-119.0
-34.0,-171.0,-36.0,388.0,-209.0,46.0,-155.0,-699.0,-128.0
-28.0,-159.0,-36.0,474.0,-257.0,55.0,-133.0,-667.0,-137.0
-17.0,-151.0,-39.0,531.0,-303.0,63.0,-107.0,-639.0,-147.0
-18.0,-148.0,-43.0,558.0,-341.0,68.0,-92.0,-602.0,-165.0
-18.0,-132.0,-52.0,551.0,-368.0,72.0,-80.0,-580.0,-185.0
-1.0,-132.0,-48.0,520.0,-383.0,80.0,-54.0,-550.0,-208.0
0.0,-124.0,-60.0,473.0,-386.0,78.0,-21.0,-526.0,-217.0
20.0,-118.0,-57.0,424.0,-371.0,70.0,18.0,-501.0,-224.0
40.0,-114.0,-61.0,371.0,-337.0,61.0,114.0,-479.0,-229.0
61.0,-113.0,-58.0,313.0,-281.0,44.0,190.0,-475.0,-221.0
79.0,-117.0,-54.0,254.0,-203.0,12.0,253.0,-479.0,-212.0
94.0,-118.0,-49.0,205.0,-114.0,-28.0,313.0,-489.0,-182.0
102.0,-116.0,-44.0,175.0,-11.0,-77.0,371.0,-483.0,-165.0
108.0,-117.0,-37.0,173.0,99.0,-134.0,385.0,-488.0,-137.0
117.0,-120.0,-37.0,201.0,206.0,-193.0,421.0,-498.0,-137.0
116.0,-129.0,-39.0,246.0,303.0,-252.0,419.0,-516.0,-130.0
106.0,-135.0,-41.0,292.0,390.0,-302.0,389.0,-554.0,-132.0
102.0,-139.0,-35.0,334.0,457.0,-343.0,359.0,-578.0,-127.0
77.0,-147.0,-39.0,370.0,500.0,-391.0,282.0,-595.0,-123.0
46.0,-154.0,-34.0,401.0,514.0,-440.0,141.0,-624.0,-126.0
1.0,-158.0,-32.0,429.0,496.0,-471.0,-10.0,-652.0,-124.0
-31.0,-163.0,-33.0,454.0,445.0,-479.0,-125.0,-672.0,-123.0
-52.0,-167.0,-27.0,483.0,361.0,-469.0,-222.0,-677.0,-106.0
-66.0,-171.0,-26.0,518.0,258.0,-446.0,-282.0,-695.0,-100.0
-74.0,-171.0,-26.0,555.0,157.0,-414.0,-333.0,-698.0,-83.0
-87.0,-173.0,-17.0,595.0,73.0,-365.0,-361.0,-715.0,-75.0
-86.0,-177.0,-14.0,640.0,10.0,-296.0,-366.0,-724.0,-53.0
-91.0,-177.0,-11.0,686.0,-30.0,-217.0,-368.0,-743.0,-42.0
-81.0,-181.0,-10.0,733.0,-52.0,-100.0,-344.0,-751.0,-43.0
-66.0,-185.0,-18.0,779.0,-62.0,9.0,-295.0,-761.0,-51.0
-48.0,-191.0,-21.0,820.0,-62.0,114.0,-229.0,-773.0,-71.0
-25.0,-186.0,-33.0,857.0,-55.0,196.0,-145.0,-778.0,-104.0
-9.0,-184.0,-37.0,884.0,-39.0,258.0,-68.0,-757.0,-149.0
4.0,-181.0,-55.0,905.0,-9.0,290.0,0.0,-751.0,-190.0
10.0,-179.0,-60.0,918.0,22.0,297.0,14.0,-732.0,-230.0
10.0,-174.0,-70.0,926.0,52.0,288.0,17.0,-712.0,-252.0
10.0,-167.0,-69.0,936.0,70.0,261.0,7.0,-694.0,-257.0
2.0,-167.0,-64.0,951.0,76.0,223.0,-19.0,-688.0,-238.0
-4.0,-168.0,-48.0,972.0,80.0,190.0,-24.0,-675.0,-200.0
-1.0,-172.0,-41.0,1013.0,88.0,163.0,-33.0,-694.0,-145.0
0.0,-182.0,-19.0,1053.0,102.0,151.0,-27.0,-746.0,-73.0
4.0,-204.0,7.0,1090.0,129.0,153.0,-7.0,-848.0,56.0
17.0,-251.0,64.0,1150.0,182.0,172.0,22.0,-1017.0,282.0
15.0,-319.0,161.0,1286.0,280.0,217.0,-2.0,-1267.0,643.0
2.0,-461.0,410.0,1578.0,416.0,315.0,-67.0,-1729.0,1511.0
-29.0,-721.0,566.0,2193.0,585.0,471.0,-157.0,-2645.0,2433.0
-88.0,-866.0,500.0,3184.0,599.0,653.0,-384.0,-3463.0,2061.0
-166.0,-1178.0,593.0,4000.0,322.0,988.0,-636.0,-4673.0,2471.0
-135.0,-1311.0,460.0,4714.0,-313.0,1408.0,-539.0,-5309.0,2025.0
23.0,-1074.0,181.0,5032.0,-1026.0,1405.0,-113.0,-4779.0,1063.0
236.0,-812.0,-107.0,4161.0,-1393.0,855.0,692.0,-3882.0,-114.0
437.0,-661.0,-255.0,2114.0,-1286.0,66.0,1631.0,-3042.0,-978.0
423.0,-615.0,-244.0,-118.0,-895.0,-571.0,1715.0,-2574.0,-898.0
164.0,-693.0,-73.0,-1320.0,-354.0,-738.0,580.0,-2731.0,-246.0
73.0,-706.0,30.0,-1184.0,41.0,-814.0,289.0,-2759.0,128.0
10.0,-660.0,80.0,-411.0,101.0,-1002.0,63.0,-2589.0,348.0
-31.0,-580.0,115.0,525.0,-1.0,-1185.0,-152.0,-2214.0,482.0
-41.0,-428.0,126.0,1286.0,-99.0,-1191.0,-203.0,-1691.0,558.0
17.0,-251.0,159.0,1670.0,-79.0,-1020.0,-9.0,-1062.0,686.0
14.0,-75.0,189.0,1690.0,83.0,-853.0,23.0,-420.0,799.0
-50.0,67.0,196.0,1502.0,278.0,-837.0,-198.0,145.0,823.0
-99.0,155.0,153.0,1255.0,248.0,-817.0,-384.0,559.0,598.0
-95.0,228.0,73.0,905.0,-78.0,-591.0,-377.0,812.0,289.0
-55.0,254.0,-11.0,410.0,-446.0,-191.0,-241.0,924.0,-33.0
-13.0,256.0,-61.0,-173.0,-673.0,200.0,-83.0,938.0,-224.0
1.0,238.0,-83.0,-791.0,-778.0,450.0,-45.0,852.0,-355.0
-10.0,192.0,-107.0,-1465.0,-766.0,541.0,-87.0,661.0,-440.0
0.0,132.0,-96.0,-2201.0,-691.0,602.0,-39.0,435.0,-403.0
30.0,51.0,-49.0,-2875.0,-576.0,621.0,65.0,165.0,-221.0
63.0,-37.0,29.0,-3382.0,-455.0,587.0,135.0,-88.0,42.0
34.0,-99.0,103.0,-3659.0,-391.0,542.0,174.0,-441.0,405.0
-24.0,-184.0,164.0,-3680.0,-397.0,505.0,207.0,-719.0,684.0
26.0,-274.0,237.0,-3446.0,-447.0,492.0,121.0,-1024.0,997.0
35.0,-366.0,253.0,-2988.0,-543.0,508.0,99.0,-1404.0,1056.0
45.0,-446.0,218.0,-2282.0,-639.0,513.0,121.0,-1691.0,931.0
49.0,-482.0,161.0,-1374.0,-669.0,463.0,136.0,-1882.0,634.0
64.0,-488.0,80.0,-454.0,-563.0,356.0,178.0,-1914.0,333.0
78.0,-449.0,28.0,282.0,-309.0,196.0,247.0,-1775.0,138.0
74.0,-379.0,20.0,753.0,-4.0,47.0,251.0,-1563.0,95.0
60.0,-312.0,53.0,955.0,209.0,-58.0,204.0,-1323.0,203.0
52.0,-266.0,83.0,986.0,266.0,-113.0,183.0,-1106.0,352.0
53.0,-238.0,113.0,950.0,207.0,-137.0,179.0,-973.0,434.0
49.0,-213.0,109.0,874.0,105.0,-150.0,160.0,-904.0,450.0
42.0,-210.0,101.0,771.0,6.0,-158.0,137.0,-892.0,416.0
41.0,-220.0,83.0,639.0,-81.0,-166.0,138.0,-923.0,364.0
40.0,-231.0,71.0,504.0,-154.0,-175.0,122.0,-967.0,316.0
38.0,-245.0,62.0,407.0,-213.0,-193.0,116.0,-1011.0,264.0
38.0,-257.0,49.0,372.0,-253.0,-204.0,122.0,-1066.0,221.0
44.0,-267.0,40.0,381.0,-263.0,-201.0,132.0,-1095.0,169.0
47.0,-266.0,34.0,399.0,-234.0,-190.0,129.0,-1108.0,154.0
45.0,-266.0,39.0,413.0,-175.0,-165.0,136.0,-1102.0,151.0
53.0,-275.0,35.0,427.0,-101.0,-132.0,134.0,-1099.0,167.0
44.0,-266.0,40.0,446.0,-14.0,-103.0,133.0,-1102.0,167.0
46.0,-264.0,36.0,483.0,85.0,-79.0,132.0,-1086.0,164.0
40.0,-265.0,41.0,534.0,178.0,-80.0,107.0,-1086.0,168.0
34.0,-265.0,40.0,621.0,256.0,-101.0,93.0,-1083.0,163.0
33.0,-257.0,34.0,724.0,324.0,-123.0,84.0,-1048.0,152.0
30.0,-250.0,39.0,820.0,380.0,-136.0,80.0,-1014.0,151.0
22.0,-238.0,31.0,912.0,420.0,-151.0,71.0,-985.0,153.0
20.0,-233.0,37.0,993.0,435.0,-166.0,47.0,-955.0,154.0
17.0,-222.0,41.0,1050.0,423.0,-175.0,36.0,-933.0,163.0
18.0,-218.0,40.0,1068.0,391.0,-186.0,33.0,-914.0,163.0
12.0,-211.0,40.0,1046.0,356.0,-195.0,18.0,-886.0,189.0
4.0,-206.0,52.0,988.0,335.0,-191.0,-3.0,-881.0,216.0
2.0,-208.0,51.0,895.0,316.0,-177.0,-14.0,-899.0,228.0
0.0,-214.0,51.0,781.0,302.0,-163.0,-26.0,-916.0,222.0
0.0,-227.0,48.0,658.0,297.0,-147.0,-33.0,-946.0,218.0
-3.0,-243.0,51.0,555.0,301.0,-134.0,-49.0,-996.0,210.0
-5.0,-255.0,50.0,480.0,310.0,-114.0,-57.0,-1049.0,216.0
-8.0,-263.0,51.0,437.0,313.0,-87.0,-62.0,-1091.0,213.0
-7.0,-267.0,47.0,411.0,304.0,-59.0,-61.0,-1118.0,211.0
-5.0,-272.0,56.0,386.0,283.0,-32.0,-48.0,-1126.0,212.0
-3.0,-268.0,53.0,347.0,248.0,-11.0,-47.0,-1118.0,213.0
-9.0,-264.0,51.0,299.0,209.0,0.0,-56.0,-1098.0,217.0
-10.0,-256.0,52.0,239.0,163.0,3.0,-62.0,-1069.0,222.0
-13.0,-255.0,53.0,168.0,111.0,2.0,-82.0,-1054.0,219.0
-13.0,-244.0,54.0,94.0,53.0,4.0,-81.0,-1020.0,223.0
-14.0,-239.0,51.0,31.0,-5.0,7.0,-82.0,-999.0,226.0
-10.0,-238.0,51.0,-8.0,-53.0,8.0,-70.0,-984.0,207.0
-10.0,-235.0,48.0,-18.0,-87.0,9.0,-70.0,-959.0,200.0
-4.0,-230.0,41.0,3.0,-104.0,9.0,-48.0,-937.0,182.0
1.0,-222.0,35.0,40.0,-108.0,11.0,-22.0,-914.0,165.0
5.0,-216.0,37.0,91.0,-99.0,12.0,-5.0,-898.0,155.0
9.0,-210.0,33.0,145.0,-86.0,14.0,10.0,-875.0,146.0
18.0,-213.0,29.0,194.0,-69.0,14.0,27.0,-862.0,140.0
18.0,-207.0,32.0,226.0,-51.0,14.0,38.0,-868.0,145.0
21.0,-211.0,33.0,244.0,-35.0,13.0,54.0,-874.0,146.0
23.0,-213.0,35.0,251.0,-20.0,5.0,60.0,-886.0,147.0
27.0,-216.0,38.0,247.0,-9.0,-3.0,68.0,-899.0,151.0
22.0,-220.0,39.0,242.0,3.0,-6.0,67.0,-926.0,159.0
28.0,-229.0,42.0,237.0,19.0,-6.0,70.0,-939.0,175.0
26.0,-233.0,46.0,235.0,38.0,-9.0,65.0,-958.0,196.0
21.0,-236.0,52.0,237.0,55.0,-20.0,56.0,-980.0,213.0
22.0,-242.0,49.0,240.0,64.0,-33.0,48.0,-993.0,212.0
21.0,-246.0,51.0,244.0,63.0,-44.0,38.0,-1008.0,201.0
16.0,-250.0,47.0,249.0,46.0,-49.0,32.0,-1028.0,179.0
17.0,-254.0,39.0,247.0,24.0,-42.0,39.0,-1050.0,161.0
18.0,-256.0,34.0,235.0,3.0,-30.0,45.0,-1065.0,147.0
20.0,-259.0,31.0,226.0,-11.0,-23.0,55.0,-1074.0,142.0
21.0,-262.0,32.0,234.0,-17.0,-20.0,59.0,-1087.0,153.0
28.0,-264.0,37.0,257.0,-9.0,-16.0,76.0,-1092.0,163.0
39.0,-272.0,47.0,286.0,16.0,-9.0,103.0,-1097.0,189.0
39.0,-263.0,47.0,323.0,56.0,-1.0,132.0,-1101.0,225.0
47.0,-266.0,61.0,369.0,100.0,-2.0,148.0,-1105.0,251.0
52.0,-266.0,66.0,429.0,134.0,-15.0,161.0,-1097.0,282.0
46.0,-266.0,63.0,491.0,152.0,-40.0,150.0,-1087.0,285.0
44.0,-258.0,65.0,541.0,160.0,-70.0,122.0,-1069.0,281.0
40.0,-257.0,65.0,561.0,156.0,-89.0,113.0,-1056.0,278.0
31.0,-251.0,63.0,556.0,153.0,-95.0,96.0,-1030.0,271.0
29.0,-244.0,62.0,528.0,156.0,-97.0,87.0,-1014.0,264.0
25.0,-241.0,63.0,489.0,163.0,-97.0,77.0,-1004.0,265.0
23.0,-234.0,62.0,443.0,172.0,-100.0,67.0,-991.0,261.0
22.0,-235.0,66.0,395.0,178.0,-107.0,53.0,-981.0,273.0
18.0,-235.0,63.0,352.0,179.0,-118.0,42.0,-971.0,276.0
17.0,-230.0,73.0,319.0,177.0,-133.0,32.0,-960.0,288.0
9.0,-226.0,71.0,300.0,170.0,-151.0,17.0,-944.0,297.0
6.0,-230.0,76.0,290.0,155.0,-160.0,-9.0,-932.0,304.0
4.0,-220.0,73.0,288.0,140.0,-167.0,-18.0,-915.0,304.0
6.0,-217.0,70.0,286.0,130.0,-170.0,-25.0,-911.0,303.0
1.0,-213.0,71.0,285.0,123.0,-174.0,-26.0,-896.0,297.0
3.0,-211.0,67.0,279.0,117.0,-176.0,-19.0,-884.0,295.0
3.0,-208.0,67.0,270.0,110.0,-172.0,-16.0,-876.0,285.0
7.0,-207.0,69.0,248.0,102.0,-162.0,0.0,-872.0,277.0
12.0,-207.0,64.0,220.0,97.0,-144.0,18.0,-872.0,278.0
21.0,-208.0,69.0,189.0,97.0,-119.0,35.0,-879.0,281.0
23.0,-213.0,67.0,155.0,101.0,-89.0,54.0,-899.0,291.0
25.0,-219.0,77.0,123.0,104.0,-55.0,62.0,-920.0,298.0
28.0,-227.0,73.0,99.0,101.0,-21.0,67.0,-941.0,312.0
23.0,-230.0,74.0,83.0,92.0,9.0,67.0,-957.0,323.0
23.0,-241.0,77.0,75.0,76.0,38.0,57.0,-989.0,331.0
19.0,-246.0,79.0,78.0,55.0,63.0,51.0,-1008.0,336.0
18.0,-251.0,78.0,90.0,31.0,85.0,49.0,-1027.0,340.0
22.0,-254.0,84.0,108.0,6.0,102.0,42.0,-1043.0,345.0
19.0,-255.0,81.0,134.0,-13.0,114.0,43.0,-1053.0,343.0
24.0,-257.0,83.0,167.0,-29.0,114.0,51.0,-1060.0,358.0
24.0,-259.0,85.0,199.0,-37.0,109.0,42.0,-1066.0,357.0
17.0,-254.0,84.0,231.0,-40.0,98.0,41.0,-1056.0,364.0
21.0,-253.0,90.0,257.0,-36.0,85.0,34.0,-1051.0,371.0
16.0,-252.0,94.0,278.0,-31.0,67.0,32.0,-1027.0,375.0
17.0,-245.0,88.0,296.0,-25.0,49.0,26.0,-1002.0,366.0
14.0,-239.0,87.0,309.0,-16.0,27.0,28.0,-987.0,370.0
15.0,-235.0,83.0,317.0,-7.0,7.0,25.0,-975.0,361.0
15.0,-227.0,83.0,315.0,-1.0,-10.0,32.0,-951.0,360.0
16.0,-226.0,80.0,301.0,3.0,-21.0,31.0,-934.0,341.0
15.0,-218.0,81.0,274.0,4.0,-26.0,34.0,-917.0,337.0
23.0,-217.0,79.0,241.0,4.0,-26.0,41.0,-906.0,341.0
20.0,-216.0,76.0,208.0,5.0,-28.0,52.0,-906.0,337.0
24.0,-214.0,77.0,176.0,1.0,-32.0,58.0,-908.0,325.0
21.0,-217.0,70.0,145.0,-9.0,-30.0,59.0,-904.0,329.0
27.0,-219.0,73.0,116.0,-21.0,-24.0,68.0,-914.0,321.0
30.0,-222.0,74.0,89.0,-35.0,-17.0,77.0,-928.0,326.0
27.0,-225.0,78.0,68.0,-46.0,-8.0,77.0,-941.0,322.0
28.0,-230.0,73.0,57.0,-53.0,4.0,72.0,-947.0,321.0
30.0,-233.0,75.0,56.0,-58.0,15.0,74.0,-958.0,318.0
27.0,-236.0,75.0,62.0,-59.0,23.0,77.0,-976.0,326.0
29.0,-239.0,74.0,71.0,-55.0,32.0,75.0,-980.0,317.0
29.0,-240.0,74.0,86.0,-46.0,37.0,69.0,-988.0,321.0
23.0,-240.0,74.0,102.0,-30.0,40.0,63.0,-997.0,322.0
25.0,-244.0,75.0,118.0,-11.0,46.0,60.0,-995.0,331.0
20.0,-245.0,76.0,131.0,8.0,50.0,46.0,-999.0,336.0
19.0,-241.0,83.0,144.0,25.0,56.0,40.0,-999.0,340.0
19.0,-243.0,82.0,155.0,42.0,64.0,37.0,-1004.0,345.0
19.0,-240.0,81.0,163.0,55.0,69.0,33.0,-995.0,351.0
17.0,-238.0,82.0,169.0,61.0,73.0,32.0,-992.0,354.0
17.0,-239.0,82.0,170.0,62.0,78.0,30.0,-988.0,347.0
15.0,-236.0,81.0,168.0,58.0,84.0,29.0,-985.0,339.0
18.0,-237.0,80.0,159.0,53.0,93.0,29.0,-983.0,338.0
14.0,-235.0,79.0,144.0,49.0,99.0,25.0,-978.0,335.0
13.0,-238.0,83.0,126.0,45.0,104.0,24.0,-976.0,337.0
13.0,-235.0,83.0,109.0,38.0,105.0,20.0,-982.0,333.0
10.0,-235.0,78.0,92.0,28.0,101.0,11.0,-978.0,336.0
9.0,-235.0,77.0,78.0,15.0,93.0,6.0,-974.0,330.0
11.0,-233.0,72.0,63.0,0.0,81.0,-1.0,-977.0,322.0
7.0,-238.0,74.0,51.0,-15.0,71.0,-1.0,-976.0,316.0
8.0,-236.0,77.0,43.0,-28.0,63.0,1.0,-973.0,314.0
8.0,-237.0,73.0,37.0,-38.0,56.0,4.0,-976.0,314.0
10.0,-235.0,70.0,36.0,-45.0,51.0,8.0,-977.0,310.0
13.0,-236.0,72.0,37.0,-46.0,47.0,12.0,-981.0,310.0
9.0,-235.0,71.0,43.0,-46.0,46.0,8.0,-975.0,307.0
9.0,-233.0,74.0,54.0,-46.0,45.0,11.0,-974.0,300.0
8.0,-236.0,67.0,69.0,-52.0,48.0,11.0,-971.0,296.0
7.0,-236.0,71.0,84.0,-57.0,46.0,13.0,-966.0,284.0
14.0,-234.0,67.0,101.0,-62.0,44.0,18.0,-971.0,286.0
15.0,-233.0,63.0,113.0,-65.0,40.0,34.0,-959.0,277.0
21.0,-233.0,66.0,120.0,-64.0,34.0,41.0,-957.0,280.0
23.0,-231.0,64.0,124.0,-57.0,25.0,46.0,-957.0,277.0
26.0,-231.0,65.0,123.0,-46.0,12.0,60.0,-946.0,279.0
27.0,-229.0,65.0,118.0,-35.0,-1.0,65.0,-946.0,278.0
27.0,-224.0,67.0,106.0,-23.0,-13.0,78.0,-945.0,284.0
32.0,-229.0,66.0,89.0,-13.0,-25.0,80.0,-952.0,280.0
28.0,-227.0,66.0,69.0,-3.0,-37.0,87.0,-954.0,288.0
29.0,-230.0,66.0,48.0,5.0,-48.0,92.0,-959.0,291.0
35.0,-235.0,66.0,28.0,11.0,-55.0,91.0,-961.0,304.0
35.0,-238.0,71.0,15.0,14.0,-61.0,90.0,-971.0,297.0
32.0,-238.0,74.0,12.0,14.0,-63.0,88.0,-982.0,318.0
32.0,-237.0,71.0,15.0,16.0,-69.0,85.0,-987.0,314.0
30.0,-241.0,74.0,23.0,17.0,-72.0,76.0,-992.0,315.0
30.0,-241.0,73.0,34.0,19.0,-73.0,71.0,-996.0,310.0
30.0,-243.0,71.0,47.0,22.0,-74.0,72.0,-1003.0,317.0
26.0,-246.0,74.0,60.0,25.0,-76.0,68.0,-999.0,309.0
23.0,-243.0,73.0,75.0,32.0,-77.0,63.0,-997.0,306.0
25.0,-242.0,72.0,88.0,38.0,-80.0,54.0,-1002.0,305.0
28.0,-243.0,76.0,101.0,42.0,-81.0,50.0,-991.0,305.0
19.0,-233.0,73.0,112.0,46.0,-82.0,47.0,-992.0,302.0
21.0,-239.0,71.0,119.0,49.0,-82.0,40.0,-980.0,306.0
26.0,-238.0,72.0,123.0,52.0,-82.0,41.0,-976.0,305.0
19.0,-234.0,72.0,124.0,58.0,-83.0,46.0,-971.0,303.0
20.0,-235.0,72.0,121.0,63.0,-81.0,47.0,-971.0,306.0
20.0,-236.0,72.0,118.0,71.0,-78.0,45.0,-967.0,306.0
21.0,-233.0,74.0,114.0,76.0,-76.0,47.0,-963.0,318.0
21.0,-229.0,74.0,109.0,77.0,-71.0,51.0,-960.0,315.0
21.0,-234.0,79.0,104.0,77.0,-63.0,47.0,-961.0,317.0
21.0,-238.0,78.0,101.0,73.0,-58.0,53.0,-956.0,329.0
20.0,-231.0,81.0,100.0,69.0,-55.0,49.0,-960.0,335.0
20.0,-232.0,79.0,101.0,66.0,-52.0,49.0,-962.0,335.0
22.0,-232.0,77.0,101.0,62.0,-49.0,42.0,-961.0,340.0
20.0,-237.0,82.0,103.0,57.0,-47.0,45.0,-960.0,335.0
22.0,-233.0,77.0,103.0,53.0,-47.0,40.0,-967.0,339.0
17.0,-235.0,82.0,101.0,50.0,-47.0,41.0,-964.0,348.0
18.0,-236.0,82.0,101.0,48.0,-46.0,40.0,-976.0,343.0
22.0,-235.0,83.0,102.0,45.0,-46.0,42.0,-979.0,358.0
18.0,-238.0,83.0,107.0,46.0,-47.0,36.0,-980.0,364.0
20.0,-235.0,85.0,113.0,49.0,-43.0,40.0,-988.0,358.0
23.0,-237.0,86.0,118.0,53.0,-41.0,43.0,-977.0,364.0
21.0,-239.0,84.0,124.0,61.0,-38.0,51.0,-979.0,365.0
22.0,-232.0,84.0,131.0,68.0,-37.0,47.0,-972.0,367.0
21.0,-234.0,86.0,140.0,76.0,-38.0,58.0,-965.0,367.0
22.0,-232.0,83.0,145.0,80.0,-41.0,41.0,-965.0,359.0
22.0,-232.0,78.0,148.0,82.0,-44.0,51.0,-958.0,349.0
23.0,-230.0,83.0,145.0,82.0,-43.0,57.0,-955.0,355.0
21.0,-231.0,83.0,135.0,84.0,-46.0,44.0,-955.0,356.0
20.0,-227.0,83.0,123.0,88.0,-43.0,49.0,-947.0,358.0
23.0,-227.0,86.0,111.0,90.0,-41.0,44.0,-945.0,360.0
21.0,-227.0,81.0,103.0,91.0,-41.0,49.0,-945.0,351.0
22.0,-225.0,83.0,97.0,88.0,-39.0,55.0,-945.0,354.0
25.0,-234.0,81.0,91.0,84.0,-37.0,48.0,-949.0,361.0
24.0,-234.0,87.0,88.0,77.0,-35.0,46.0,-958.0,368.0
20.0,-230.0,87.0,88.0,68.0,-29.0,50.0,-958.0,361.0
19.0,-233.0,86.0,89.0,59.0,-24.0,44.0,-960.0,361.0
19.0,-233.0,85.0,91.0,51.0,-20.0,47.0,-962.0,366.0
22.0,-233.0,84.0,91.0,44.0,-18.0,39.0,-958.0,362.0
19.0,-236.0,84.0,92.0,42.0,-16.0,39.0,-964.0,358.0
14.0,-232.0,82.0,88.0,40.0,-16.0,37.0,-966.0,349.0
18.0,-230.0,83.0,87.0,39.0,-16.0,38.0,-962.0,352.0
15.0,-230.0,82.0,87.0,38.0,-16.0,30.0,-961.0,351.0
16.0,-230.0,78.0,86.0,36.0,-14.0,32.0,-960.0,344.0
14.0,-228.0,81.0,86.0,34.0,-14.0,32.0,-959.0,344.0
18.0,-231.0,81.0,83.0,31.0,-12.0,34.0,-955.0,349.0
18.0,-227.0,83.0,78.0,33.0,-14.0,31.0,-953.0,351.0
17.0,-231.0,81.0,73.0,31.0,-13.0,30.0,-953.0,347.0
17.0,-233.0,81.0,68.0,29.0,-14.0,22.0,-951.0,347.0
14.0,-229.0,78.0,63.0,27.0,-15.0,27.0,-950.0,339.0
14.0,-231.0,80.0,57.0,25.0,-19.0,24.0,-955.0,345.0
16.0,-231.0,81.0,53.0,23.0,-19.0,24.0,-961.0,342.0
14.0,-228.0,85.0,48.0,23.0,-21.0,26.0,-964.0,343.0
18.0,-234.0,84.0,47.0,21.0,-21.0,22.0,-961.0,342.0
16.0,-235.0,80.0,47.0,22.0,-22.0,26.0,-967.0,350.0
12.0,-234.0,80.0,47.0,23.0,-24.0,27.0,-970.0,356.0
17.0,-237.0,82.0,52.0,25.0,-24.0,24.0,-976.0,356.0
15.0,-237.0,84.0,58.0,25.0,-27.0,24.0,-978.0,360.0
17.0,-237.0,82.0,67.0,24.0,-25.0,23.0,-979.0,348.0
18.0,-237.0,82.0,77.0,22.0,-24.0,28.0,-979.0,345.0
18.0,-239.0,82.0,85.0,18.0,-19.0,27.0,-973.0,343.0
16.0,-237.0,79.0,92.0,14.0,-17.0,27.0,-975.0,341.0
17.0,-235.0,82.0,99.0,12.0,-15.0,34.0,-964.0,341.0
16.0,-234.0,75.0,103.0,10.0,-13.0,26.0,-964.0,339.0
15.0,-230.0,77.0,106.0,10.0,-14.0,32.0,-963.0,339.0
17.0,-232.0,85.0,111.0,8.0,-15.0,31.0,-962.0,346.0
13.0,-234.0,86.0,115.0,6.0,-15.0,24.0,-959.0,354.0
16.0,-233.0,86.0,120.0,7.0,-20.0,26.0,-959.0,355.0
17.0,-230.0,84.0,124.0,8.0,-19.0,29.0,-954.0,357.0
17.0,-230.0,86.0,124.0,7.0,-18.0,32.0,-957.0,354.0
18.0,-231.0,82.0,124.0,5.0,-17.0,33.0,-960.0,356.0
19.0,-231.0,82.0,121.0,2.0,-14.0,37.0,-952.0,353.0
17.0,-229.0,86.0,117.0,-1.0,-11.0,34.0,-956.0,360.0
18.0,-231.0,85.0,112.0,-3.0,-12.0,38.0,-959.0,359.0
18.0,-232.0,87.0,108.0,-5.0,-10.0,42.0,-959.0,365.0
23.0,-230.0,81.0,104.0,-6.0,-9.0,39.0,-961.0,360.0
22.0,-233.0,82.0,103.0,-5.0,-8.0,44.0,-962.0,361.0
19.0,-238.0,80.0,101.0,-6.0,-10.0,44.0,-956.0,370.0
23.0,-230.0,84.0,102.0,-7.0,-9.0,45.0,-959.0,363.0
23.0,-232.0,85.0,103.0,-6.0,-9.0,48.0,-952.0,367.0
24.0,-233.0,89.0,104.0,-5.0,-10.0,44.0,-953.0,364.0
21.0,-229.0,86.0,102.0,-6.0,-11.0,43.0,-951.0,359.0
22.0,-231.0,84.0,100.0,-7.0,-13.0,48.0,-950.0,352.0
22.0,-230.0,86.0,94.0,-10.0,-11.0,47.0,-952.0,360.0
21.0,-228.0,80.0,90.0,-16.0,-9.0,46.0,-950.0,362.0
24.0,-230.0,86.0,84.0,-20.0,-6.0,53.0,-953.0,363.0
26.0,-226.0,87.0,77.0,-24.0,-2.0,56.0,-953.0,354.0
20.0,-228.0,87.0,73.0,-24.0,-2.0,56.0,-954.0,354.0
25.0,-230.0,81.0,71.0,-21.0,-4.0,50.0,-958.0,362.0
24.0,-232.0,84.0,69.0,-15.0,-8.0,59.0,-958.0,350.0
24.0,-233.0,83.0,68.0,-8.0,-12.0,52.0,-961.0,356.0
22.0,-232.0,84.0,67.0,-3.0,-15.0,56.0,-958.0,357.0
24.0,-232.0,83.0,66.0,-1.0,-17.0,58.0,-959.0,356.0
26.0,-235.0,81.0,67.0,2.0,-19.0,60.0,-962.0,361.0
24.0,-231.0,88.0,68.0,2.0,-19.0,58.0,-960.0,365.0
25.0,-232.0,85.0,69.0,2.0,-15.0,59.0,-954.0,362.0
22.0,-230.0,89.0,70.0,2.0,-10.0,59.0,-959.0,362.0
25.0,-232.0,88.0,70.0,3.0,-11.0,60.0,-955.0,364.0
22.0,-231.0,94.0,72.0,2.0,-12.0,54.0,-950.0,364.0
23.0,-230.0,84.0,72.0,0.0,-13.0,49.0,-950.0,367.0
25.0,-231.0,85.0,73.0,-4.0,-13.0,47.0,-948.0,366.0
20.0,-229.0,85.0,70.0,-8.0,-10.0,44.0,-948.0,366.0
20.0,-228.0,85.0,66.0,-13.0,-6.0,50.0,-946.0,358.0
21.0,-227.0,84.0,61.0,-15.0,-1.0,46.0,-947.0,359.0
21.0,-230.0,86.0,51.0,-20.0,6.0,52.0,-948.0,350.0
19.0,-232.0,83.0,44.0,-18.0,8.0,37.0,-949.0,355.0
26.0,-233.0,85.0,38.0,-14.0,6.0,47.0,-950.0,357.0
21.0,-228.0,80.0,35.0,-11.0,2.0,63.0,-949.0,359.0
25.0,-234.0,86.0,34.0,-4.0,-5.0,60.0,-960.0,361.0
26.0,-234.0,84.0,35.0,0.0,-10.0,63.0,-957.0,365.0
17.0,-231.0,81.0,41.0,2.0,-12.0,61.0,-962.0,367.0
23.0,-235.0,87.0,50.0,3.0,-16.0,58.0,-962.0,361.0
23.0,-235.0,85.0,61.0,2.0,-16.0,59.0,-975.0,361.0
24.0,-233.0,83.0,70.0,-1.0,-16.0,51.0,-962.0,355.0
23.0,-234.0,85.0,75.0,-1.0,-10.0,55.0,-964.0,353.0
20.0,-232.0,85.0,78.0,-2.0,-7.0,45.0,-963.0,356.0
25.0,-232.0,81.0,80.0,0.0,-5.0,58.0,-964.0,360.0
22.0,-232.0,83.0,80.0,0.0,-6.0,57.0,-962.0,356.0
24.0,-237.0,87.0,84.0,2.0,-8.0,58.0,-961.0,358.0
20.0,-235.0,80.0,88.0,4.0,-10.0,52.0,-959.0,348.0
20.0,-228.0,79.0,90.0,5.0,-12.0,54.0,-963.0,358.0
25.0,-230.0,74.0,92.0,7.0,-14.0,43.0,-960.0,353.0
22.0,-231.0,84.0,95.0,10.0,-13.0,46.0,-955.0,358.0
19.0,-231.0,82.0,94.0,12.0,-11.0,46.0,-956.0,357.0
21.0,-231.0,84.0,92.0,12.0,-9.0,43.0,-954.0,361.0
22.0,-230.0,86.0,91.0,9.0,-8.0,45.0,-957.0,361.0
21.0,-231.0,85.0,88.0,10.0,-8.0,42.0,-958.0,362.0
21.0,-230.0,87.0,87.0,9.0,-11.0,46.0,-956.0,360.0
23.0,-230.0,86.0,85.0,13.0,-15.0,46.0,-958.0,362.0
20.0,-231.0,85.0,82.0,17.0,-16.0,49.0,-957.0,362.0
17.0,-230.0,84.0,78.0,17.0,-16.0,46.0,-958.0,361.0
21.0,-231.0,84.0,76.0,20.0,-18.0,46.0,-959.0,361.0
24.0,-227.0,95.0,77.0,19.0,-14.0,38.0,-961.0,356.0
20.0,-231.0,84.0,79.0,18.0,-11.0,41.0,-959.0,360.0
20.0,-229.0,83.0,83.0,17.0,-9.0,43.0,-957.0,356.0
19.0,-229.0,87.0,85.0,15.0,-3.0,45.0,-954.0,360.0
20.0,-231.0,88.0,87.0,14.0,-2.0,43.0,-955.0,364.0
18.0,-231.0,86.0,86.0,12.0,-2.0,36.0,-950.0,368.0
22.0,-227.0,85.0,85.0,12.0,-4.0,42.0,-955.0,361.0
23.0,-233.0,87.0,81.0,12.0,-9.0,45.0,-949.0,361.0
20.0,-231.0,83.0,76.0,11.0,-11.0,40.0,-947.0,364.0
25.0,-232.0,87.0,69.0,13.0,-13.0,38.0,-952.0,360.0
17.0,-234.0,88.0,61.0,15.0,-12.0,38.0,-948.0,360.0
17.0,-228.0,84.0,54.0,16.0,-7.0,41.0,-954.0,363.0
20.0,-230.0,87.0,51.0,16.0,-3.0,48.0,-952.0,369.0
24.0,-231.0,88.0,49.0,13.0,-1.0,40.0,-955.0,373.0
21.0,-231.0,85.0,51.0,12.0,-4.0,39.0,-957.0,371.0
22.0,-229.0,87.0,54.0,11.0,-7.0,45.0,-957.0,366.0
21.0,-229.0,85.0,55.0,12.0,-9.0,48.0,-958.0,369.0
23.0,-232.0,85.0,56.0,11.0,-12.0,47.0,-957.0,371.0
22.0,-231.0,83.0,54.0,10.0,-12.0,54.0,-962.0,377.0
23.0,-236.0,88.0,52.0,8.0,-12.0,52.0,-960.0,375.0
19.0,-232.0,87.0,52.0,7.0,-11.0,44.0,-960.0,376.0
25.0,-232.0,81.0,56.0,8.0,-14.0,39.0,-956.0,372.0
20.0,-233.0,87.0,59.0,10.0,-15.0,48.0,-960.0,372.0
19.0,-229.0,88.0,63.0,12.0,-15.0,47.0,-954.0,373.0
23.0,-236.0,87.0,67.0,15.0,-15.0,47.0,-957.0,374.0
19.0,-232.0,89.0,69.0,15.0,-14.0,45.0,-956.0,373.0
22.0,-229.0,84.0,71.0,17.0,-12.0,48.0,-958.0,373.0
20.0,-230.0,85.0,72.0,18.0,-10.0,49.0,-953.0,375.0
22.0,-230.0,88.0,72.0,20.0,-9.0,44.0,-956.0,372.0
19.0,-231.0,89.0,74.0,21.0,-10.0,45.0,-953.0,374.0
17.0,-230.0,88.0,76.0,23.0,-12.0,51.0,-951.0,377.0
24.0,-231.0,84.0,78.0,25.0,-13.0,49.0,-953.0,372.0
17.0,-233.0,83.0,83.0,24.0,-15.0,49.0,-955.0,374.0
20.0,-231.0,88.0,88.0,20.0,-18.0,43.0,-950.0,377.0
21.0,-230.0,88.0,90.0,18.0,-21.0,43.0,-955.0,371.0
20.0,-230.0,86.0,92.0,16.0,-21.0,39.0,-959.0,366.0
21.0,-231.0,89.0,94.0,14.0,-22.0,49.0,-952.0,369.0
22.0,-229.0,84.0,94.0,14.0,-22.0,42.0,-957.0,366.0
21.0,-233.0,88.0,93.0,14.0,-20.0,38.0,-955.0,369.0
21.0,-231.0,89.0,96.0,14.0,-21.0,45.0,-952.0,373.0
20.0,-231.0,85.0,97.0,15.0,-22.0,44.0,-957.0,360.0
22.0,-231.0,83.0,98.0,16.0,-20.0,43.0,-959.0,362.0
22.0,-232.0,87.0,96.0,17.0,-18.0,47.0,-957.0,371.0
26.0,-232.0,84.0,92.0,16.0,-15.0,49.0,-954.0,359.0
20.0,-230.0,86.0,88.0,18.0,-14.0,41.0,-956.0,366.0
19.0,-229.0,89.0,84.0,19.0,-13.0,42.0,-952.0,362.0
22.0,-234.0,85.0,81.0,18.0,-14.0,48.0,-958.0,367.0
19.0,-231.0,87.0,80.0,16.0,-17.0,46.0,-960.0,372.0
20.0,-233.0,86.0,80.0,12.0,-17.0,40.0,-956.0,369.0
22.0,-231.0,87.0,80.0,10.0,-15.0,41.0,-960.0,364.0
20.0,-231.0,88.0,80.0,9.0,-13.0,49.0,-958.0,371.0
19.0,-231.0,90.0,82.0,9.0,-11.0,41.0,-956.0,371.0
20.0,-230.0,89.0,87.0,9.0,-11.0,40.0,-957.0,374.0
22.0,-232.0,90.0,90.0,10.0,-8.0,35.0,-960.0,370.0
23.0,-234.0,92.0,93.0,12.0,-6.0,41.0,-955.0,367.0
16.0,-228.0,87.0,93.0,10.0,-6.0,40.0,-953.0,369.0
18.0,-230.0,84.0,91.0,10.0,-8.0,48.0,-951.0,370.0
20.0,-227.0,84.0,88.0,8.0,-7.0,52.0,-951.0,360.0
21.0,-231.0,83.0,84.0,6.0,-6.0,50.0,-951.0,362.0
20.0,-227.0,85.0,79.0,5.0,-4.0,48.0,-945.0,355.0
22.0,-228.0,83.0,73.0,5.0,-3.0,51.0,-949.0,356.0
19.0,-229.0,83.0,67.0,3.0,0.0,56.0,-947.0,359.0
20.0,-227.0,86.0,61.0,3.0,2.0,52.0,-946.0,362.0
22.0,-230.0,86.0,58.0,4.0,5.0,55.0,-953.0,367.0
25.0,-231.0,87.0,58.0,6.0,4.0,53.0,-952.0,367.0
22.0,-232.0,86.0,60.0,7.0,4.0,57.0,-958.0,370.0
23.0,-230.0,89.0,60.0,7.0,6.0,54.0,-954.0,374.0
24.0,-231.0,88.0,63.0,6.0,5.0,56.0,-952.0,382.0
22.0,-231.0,90.0,67.0,6.0,4.0,52.0,-957.0,381.0
24.0,-229.0,91.0,69.0,6.0,4.0,52.0,-953.0,378.0
23.0,-232.0,91.0,69.0,6.0,4.0,47.0,-956.0,379.0
23.0,-231.0,89.0,68.0,9.0,6.0,44.0,-955.0,376.0
21.0,-231.0,88.0,66.0,11.0,4.0,55.0,-949.0,379.0
23.0,-232.0,92.0,65.0,14.0,3.0,53.0,-952.0,379.0
22.0,-227.0,90.0,67.0,17.0,0.0,48.0,-952.0,381.0
17.0,-233.0,88.0,65.0,17.0,-3.0,44.0,-954.0,372.0
20.0,-228.0,87.0,63.0,18.0,-2.0,47.0,-951.0,380.0
21.0,-232.0,92.0,61.0,17.0,-3.0,42.0,-956.0,381.0
19.0,-230.0,90.0,61.0,16.0,-2.0,48.0,-951.0,378.0
19.0,-233.0,92.0,62.0,14.0,0.0,40.0,-955.0,376.0
21.0,-229.0,89.0,63.0,12.0,2.0,42.0,-949.0,377.0
18.0,-231.0,88.0,65.0,11.0,2.0,43.0,-954.0,378.0
20.0,-231.0,90.0,68.0,10.0,3.0,46.0,-959.0,377.0
22.0,-230.0,91.0,71.0,10.0,1.0,48.0,-956.0,378.0
21.0,-233.0,89.0,74.0,11.0,-3.0,45.0,-950.0,377.0
21.0,-227.0,88.0,75.0,10.0,-7.0,43.0,-949.0,371.0
19.0,-231.0,86.0,73.0,10.0,-8.0,40.0,-955.0,375.0
15.0,-232.0,86.0,71.0,9.0,-7.0,39.0,-950.0,374.0
21.0,-232.0,85.0,68.0,8.0,-7.0,39.0,-947.0,373.0
19.0,-230.0,83.0,66.0,6.0,-6.0,39.0,-953.0,353.0
22.0,-230.0,90.0,65.0,5.0,-5.0,41.0,-953.0,366.0
21.0,-229.0,91.0,65.0,8.0,-4.0,43.0,-959.0,368.0
21.0,-231.0,86.0,66.0,10.0,-7.0,36.0,-957.0,369.0
19.0,-234.0,88.0,67.0,11.0,-9.0,42.0,-961.0,369.0
21.0,-229.0,85.0,71.0,13.0,-12.0,40.0,-962.0,370.0
18.0,-233.0,85.0,77.0,13.0,-11.0,44.0,-960.0,371.0
21.0,-234.0,86.0,80.0,14.0,-14.0,38.0,-960.0,368.0
22.0,-233.0,88.0,82.0,12.0,-14.0,37.0,-959.0,369.0
20.0,-232.0,86.0,83.0,12.0,-14.0,39.0,-961.0,370.0
18.0,-230.0,86.0,85.0,12.0,-12.0,39.0,-957.0,363.0
19.0,-232.0,88.0,83.0,13.0,-9.0,39.0,-951.0,366.0
17.0,-230.0,89.0,82.0,13.0,-5.0,39.0,-958.0,367.0
21.0,-231.0,86.0,79.0,15.0,-1.0,45.0,-955.0,374.0
20.0,-233.0,82.0,77.0,17.0,1.0,47.0,-956.0,377.0
20.0,-231.0,85.0,78.0,19.0,-1.0,43.0,-961.0,378.0
23.0,-230.0,91.0,79.0,20.0,-5.0,41.0,-959.0,379.0
20.0,-232.0,87.0,81.0,17.0,-8.0,45.0,-954.0,375.0
22.0,-233.0,91.0,81.0,13.0,-9.0,47.0,-959.0,377.0
17.0,-231.0,88.0,82.0,9.0,-9.0,36.0,-953.0,374.0
19.0,-232.0,91.0,80.0,3.0,-8.0,47.0,-957.0,373.0
24.0,-232.0,90.0,77.0,2.0,-5.0,44.0,-955.0,375.0
22.0,-231.0,90.0,78.0,4.0,-5.0,40.0,-958.0,374.0
18.0,-230.0,86.0,78.0,5.0,-4.0,36.0,-956.0,375.0
21.0,-233.0,88.0,82.0,3.0,-6.0,39.0,-952.0,377.0
19.0,-233.0,88.0,86.0,1.0,-6.0,39.0,-954.0,379.0
20.0,-226.0,88.0,89.0,-1.0,-8.0,47.0,-950.0,378.0
20.0,-229.0,85.0,91.0,-1.0,-10.0,42.0,-953.0,372.0
17.0,-225.0,84.0,90.0,-2.0,-11.0,40.0,-955.0,375.0
20.0,-227.0,92.0,90.0,0.0,-12.0,44.0,-947.0,377.0
24.0,-232.0,86.0,89.0,2.0,-14.0,42.0,-949.0,382.0
19.0,-228.0,89.0,88.0,2.0,-11.0,38.0,-949.0,376.0
21.0,-227.0,90.0,88.0,4.0,-10.0,48.0,-948.0,384.0
20.0,-229.0,90.0,90.0,7.0,-11.0,41.0,-945.0,381.0
21.0,-228.0,89.0,91.0,10.0,-11.0,43.0,-952.0,384.0
21.0,-230.0,95.0,96.0,11.0,-11.0,48.0,-949.0,387.0
22.0,-232.0,94.0,101.0,11.0,-12.0,49.0,-956.0,383.0
23.0,-230.0,92.0,105.0,7.0,-11.0,44.0,-954.0,384.0
21.0,-228.0,94.0,108.0,4.0,-10.0,43.0,-952.0,381.0
20.0,-228.0,95.0,110.0,0.0,-9.0,44.0,-946.0,384.0
25.0,-230.0,92.0,113.0,-2.0,-4.0,39.0,-944.0,390.0
17.0,-234.0,90.0,113.0,-2.0,-1.0,40.0,-944.0,381.0
23.0,-231.0,96.0,110.0,-3.0,3.0,38.0,-946.0,385.0
22.0,-227.0,95.0,108.0,1.0,1.0,38.0,-941.0,389.0
20.0,-230.0,93.0,104.0,2.0,1.0,40.0,-943.0,386.0
19.0,-229.0,90.0,101.0,5.0,-2.0,42.0,-945.0,389.0
24.0,-230.0,90.0,97.0,3.0,-5.0,48.0,-943.0,392.0
21.0,-228.0,90.0,95.0,2.0,-8.0,37.0,-946.0,385.0
21.0,-227.0,88.0,94.0,0.0,-8.0,37.0,-946.0,381.0
20.0,-227.0,89.0,91.0,0.0,-9.0,45.0,-945.0,385.0
16.0,-224.0,92.0,93.0,-2.0,-6.0,36.0,-941.0,386.0
22.0,-230.0,91.0,95.0,-2.0,-6.0,48.0,-938.0,384.0
19.0,-229.0,91.0,97.0,0.0,-2.0,52.0,-945.0,382.0
22.0,-229.0,93.0,97.0,1.0,-3.0,48.0,-943.0,379.0
22.0,-227.0,91.0,97.0,4.0,-5.0,38.0,-943.0,387.0
19.0,-227.0,88.0,94.0,4.0,-7.0,43.0,-942.0,382.0
21.0,-227.0,90.0,92.0,4.0,-9.0,41.0,-942.0,382.0
22.0,-227.0,92.0,89.0,3.0,-11.0,47.0,-942.0,384.0
22.0,-226.0,90.0,87.0,1.0,-11.0,42.0,-945.0,379.0
25.0,-231.0,89.0,86.0,-2.0,-13.0,39.0,-949.0,382.0
18.0,-225.0,88.0,84.0,-2.0,-14.0,41.0,-946.0,379.0
24.0,-230.0,90.0,83.0,0.0,-14.0,45.0,-942.0,377.0
24.0,-229.0,93.0,82.0,4.0,-15.0,48.0,-939.0,377.0
19.0,-232.0,88.0,86.0,9.0,-15.0,43.0,-948.0,383.0
21.0,-229.0,96.0,91.0,16.0,-17.0,45.0,-945.0,387.0
21.0,-228.0,90.0,97.0,18.0,-16.0,42.0,-951.0,385.0
19.0,-228.0,90.0,103.0,18.0,-18.0,47.0,-947.0,383.0
22.0,-231.0,95.0,107.0,16.0,-18.0,40.0,-950.0,390.0
22.0,-226.0,93.0,109.0,14.0,-18.0,47.0,-946.0,389.0
19.0,-227.0,92.0,108.0,13.0,-17.0,43.0,-944.0,385.0
21.0,-226.0,94.0,105.0,11.0,-15.0,43.0,-946.0,392.0
21.0,-223.0,93.0,98.0,12.0,-11.0,52.0,-944.0,382.0
19.0,-225.0,97.0,90.0,14.0,-7.0,47.0,-939.0,389.0
21.0,-225.0,90.0,84.0,18.0,-6.0,51.0,-941.0,392.0
22.0,-228.0,97.0,79.0,20.0,-8.0,46.0,-941.0,405.0
19.0,-226.0,95.0,79.0,22.0,-9.0,51.0,-940.0,404.0
22.0,-226.0,97.0,80.0,20.0,-10.0,47.0,-937.0,398.0
21.0,-228.0,96.0,82.0,18.0,-7.0,47.0,-940.0,401.0
23.0,-227.0,97.0,83.0,15.0,-7.0,46.0,-940.0,399.0
19.0,-226.0,95.0,80.0,10.0,-5.0,46.0,-937.0,394.0
18.0,-225.0,97.0,76.0,4.0,-3.0,42.0,-943.0,392.0
21.0,-223.0,94.0,72.0,0.0,1.0,52.0,-944.0,396.0
21.0,-229.0,94.0,66.0,1.0,2.0,47.0,-948.0,402.0
24.0,-232.0,97.0,62.0,0.0,2.0,48.0,-944.0,405.0
24.0,-230.0,98.0,62.0,2.0,3.0,44.0,-947.0,400.0
21.0,-229.0,90.0,66.0,6.0,0.0,49.0,-949.0,402.0
20.0,-229.0,95.0,74.0,9.0,-1.0,42.0,-947.0,401.0
22.0,-231.0,94.0,79.0,11.0,-4.0,47.0,-952.0,393.0
22.0,-229.0,96.0,84.0,13.0,-5.0,40.0,-945.0,397.0
22.0,-227.0,95.0,87.0,13.0,-6.0,47.0,-945.0,397.0
22.0,-230.0,93.0,85.0,14.0,-4.0,42.0,-944.0,394.0
22.0,-227.0,95.0,82.0,16.0,-2.0,46.0,-942.0,394.0
19.0,-227.0,95.0,76.0,18.0,-1.0,46.0,-941.0,400.0
20.0,-225.0,98.0,72.0,20.0,-2.0,38.0,-941.0,397.0
22.0,-225.0,96.0,71.0,18.0,-3.0,39.0,-942.0,395.0
19.0,-227.0,99.0,70.0,15.0,-5.0,40.0,-941.0,397.0
19.0,-231.0,95.0,70.0,12.0,-6.0,47.0,-944.0,399.0
19.0,-227.0,93.0,69.0,9.0,-8.0,42.0,-944.0,396.0
19.0,-227.0,94.0,68.0,9.0,-9.0,42.0,-943.0,392.0
21.0,-229.0,96.0,70.0,8.0,-10.0,41.0,-950.0,392.0
20.0,-227.0,89.0,70.0,8.0,-10.0,43.0,-945.0,392.0
22.0,-227.0,93.0,72.0,9.0,-8.0,40.0,-947.0,390.0
16.0,-229.0,93.0,75.0,11.0,-10.0,36.0,-944.0,386.0
17.0,-226.0,95.0,79.0,13.0,-9.0,39.0,-942.0,395.0
17.0,-224.0,94.0,82.0,16.0,-9.0,38.0,-943.0,400.0
20.0,-229.0,95.0,85.0,16.0,-11.0,36.0,-938.0,392.0
19.0,-231.0,97.0,85.0,15.0,-12.0,40.0,-944.0,393.0
22.0,-227.0,93.0,84.0,14.0,-14.0,40.0,-936.0,396.0
20.0,-225.0,94.0,79.0,11.0,-14.0,39.0,-941.0,398.0
19.0,-230.0,97.0,74.0,9.0,-14.0,37.0,-938.0,392.0
20.0,-227.0,93.0,68.0,8.0,-11.0,34.0,-938.0,391.0
15.0,-227.0,95.0,60.0,8.0,-12.0,38.0,-942.0,396.0
19.0,-228.0,93.0,55.0,7.0,-10.0,39.0,-948.0,393.0
21.0,-229.0,91.0,52.0,8.0,-10.0,34.0,-948.0,387.0
21.0,-229.0,94.0,51.0,7.0,-10.0,39.0,-948.0,398.0
20.0,-232.0,94.0,54.0,7.0,-11.0,38.0,-951.0,395.0
22.0,-233.0,94.0,57.0,5.0,-12.0,37.0,-952.0,391.0
24.0,-231.0,89.0,60.0,6.0,-10.0,44.0,-951.0,391.0
16.0,-229.0,90.0,63.0,7.0,-8.0,43.0,-951.0,394.0
21.0,-229.0,94.0,64.0,10.0,-4.0,42.0,-947.0,389.0
22.0,-227.0,92.0,66.0,12.0,-2.0,45.0,-953.0,392.0
21.0,-230.0,93.0,68.0,14.0,-1.0,48.0,-952.0,392.0
21.0,-230.0,94.0,69.0,16.0,-5.0,46.0,-947.0,395.0
20.0,-229.0,92.0,71.0,15.0,-8.0,42.0,-943.0,390.0
18.0,-230.0,91.0,70.0,14.0,-9.0,41.0,-946.0,391.0
17.0,-227.0,87.0,66.0,12.0,-10.0,44.0,-941.0,386.0
18.0,-228.0,92.0,63.0,8.0,-12.0,39.0,-942.0,382.0
22.0,-227.0,93.0,59.0,6.0,-8.0,40.0,-942.0,384.0
23.0,-230.0,97.0,54.0,5.0,-6.0,47.0,-945.0,384.0
19.0,-229.0,92.0,53.0,5.0,-2.0,37.0,-945.0,387.0
23.0,-228.0,91.0,53.0,6.0,0.0,41.0,-948.0,390.0
19.0,-229.0,92.0,53.0,9.0,-1.0,37.0,-949.0,388.0
22.0,-231.0,91.0,56.0,11.0,-1.0,43.0,-949.0,388.0
22.0,-234.0,93.0,58.0,12.0,-3.0,44.0,-944.0,385.0
22.0,-233.0,91.0,61.0,11.0,-6.0,47.0,-955.0,390.0
21.0,-229.0,96.0,62.0,11.0,-7.0,46.0,-950.0,390.0
23.0,-228.0,88.0,66.0,10.0,-8.0,42.0,-946.0,393.0
20.0,-231.0,93.0,69.0,8.0,-8.0,44.0,-950.0,396.0
20.0,-230.0,90.0,71.0,7.0,-6.0,42.0,-947.0,390.0
20.0,-228.0,92.0,73.0,6.0,-5.0,39.0,-946.0,393.0
18.0,-229.0,95.0,76.0,6.0,-5.0,38.0,-946.0,398.0
21.0,-228.0,93.0,78.0,4.0,-7.0,39.0,-948.0,400.0
17.0,-225.0,90.0,77.0,2.0,-9.0,40.0,-945.0,392.0
22.0,-227.0,95.0,78.0,3.0,-12.0,37.0,-946.0,399.0
21.0,-224.0,95.0,76.0,4.0,-12.0,40.0,-941.0,394.0
20.0,-229.0,94.0,75.0,6.0,-14.0,40.0,-940.0,395.0
20.0,-228.0,96.0,72.0,6.0,-17.0,36.0,-945.0,393.0
21.0,-226.0,94.0,72.0,3.0,-16.0,38.0,-942.0,395.0
17.0,-229.0,93.0,71.0,4.0,-14.0,38.0,-942.0,386.0
17.0,-224.0,89.0,68.0,2.0,-10.0,40.0,-937.0,393.0
13.0,-220.0,85.0,67.0,2.0,-10.0,38.0,-940.0,394.0
20.0,-227.0,98.0,66.0,5.0,-11.0,39.0,-944.0,398.0
19.0,-226.0,92.0,64.0,9.0,-11.0,39.0,-946.0,402.0
20.0,-226.0,93.0,65.0,9.0,-11.0,48.0,-943.0,398.0
21.0,-226.0,96.0,66.0,9.0,-12.0,44.0,-946.0,389.0
21.0,-226.0,97.0,67.0,7.0,-13.0,47.0,-948.0,400.0
24.0,-229.0,94.0,67.0,8.0,-12.0,42.0,-945.0,394.0
23.0,-227.0,93.0,68.0,6.0,-11.0,40.0,-948.0,392.0
22.0,-226.0,89.0,68.0,5.0,-11.0,52.0,-944.0,394.0
23.0,-232.0,92.0,71.0,4.0,-9.0,44.0,-945.0,400.0
23.0,-226.0,89.0,74.0,3.0,-6.0,42.0,-945.0,398.0
21.0,-234.0,87.0,78.0,2.0,-6.0,40.0,-945.0,403.0
21.0,-228.0,96.0,79.0,3.0,-6.0,41.0,-945.0,402.0
21.0,-228.0,99.0,83.0,3.0,-6.0,40.0,-942.0,407.0
20.0,-228.0,95.0,85.0,3.0,-7.0,45.0,-947.0,395.0
19.0,-226.0,96.0,85.0,5.0,-8.0,46.0,-945.0,403.0
19.0,-226.0,95.0,84.0,7.0,-9.0,39.0,-945.0,400.0
20.0,-228.0,95.0,80.0,8.0,-10.0,43.0,-941.0,399.0
20.0,-223.0,94.0,80.0,10.0,-10.0,39.0,-941.0,404.0
22.0,-230.0,95.0,79.0,10.0,-9.0,48.0,-943.0,399.0
20.0,-224.0,92.0,78.0,10.0,-7.0,47.0,-941.0,398.0
22.0,-225.0,94.0,77.0,10.0,-7.0,43.0,-943.0,399.0
24.0,-225.0,93.0,73.0,10.0,-6.0,48.0,-936.0,395.0
20.0,-227.0,94.0,70.0,9.0,-5.0,44.0,-943.0,393.0
23.0,-225.0,98.0,67.0,10.0,-5.0,44.0,-939.0,397.0
22.0,-228.0,94.0,65.0,8.0,-5.0,50.0,-941.0,395.0
22.0,-226.0,93.0,60.0,9.0,-5.0,46.0,-943.0,395.0
24.0,-226.0,95.0,57.0,10.0,-4.0,47.0,-945.0,396.0
18.0,-225.0,94.0,55.0,9.0,-6.0,48.0,-941.0,396.0
19.0,-226.0,97.0,51.0,6.0,-6.0,39.0,-940.0,398.0
24.0,-231.0,93.0,48.0,6.0,-5.0,40.0,-948.0,396.0
22.0,-230.0,97.0,47.0,6.0,-5.0,43.0,-943.0,397.0
22.0,-232.0,94.0,47.0,8.0,-5.0,40.0,-944.0,399.0
27.0,-230.0,86.0,46.0,9.0,-4.0,37.0,-948.0,402.0
20.0,-228.0,97.0,49.0,9.0,-5.0,36.0,-946.0,398.0
22.0,-229.0,96.0,51.0,11.0,-8.0,39.0,-947.0,396.0
21.0,-229.0,99.0,53.0,10.0,-9.0,38.0,-943.0,397.0
21.0,-225.0,95.0,56.0,11.0,-7.0,40.0,-942.0,396.0
23.0,-229.0,92.0,57.0,13.0,-8.0,35.0,-942.0,400.0
20.0,-229.0,96.0,57.0,14.0,-8.0,39.0,-948.0,400.0
18.0,-227.0,96.0,57.0,14.0,-9.0,45.0,-943.0,398.0
21.0,-227.0,96.0,56.0,14.0,-8.0,42.0,-943.0,403.0
14.0,-224.0,95.0,60.0,13.0,-10.0,42.0,-943.0,403.0
22.0,-231.0,94.0,61.0,12.0,-9.0,42.0,-945.0,403.0
19.0,-225.0,94.0,61.0,11.0,-12.0,42.0,-945.0,402.0
20.0,-229.0,96.0,61.0,12.0,-11.0,42.0,-941.0,402.0
20.0,-227.0,99.0,62.0,12.0,-14.0,48.0,-947.0,405.0
21.0,-227.0,92.0,61.0,13.0,-14.0,44.0,-944.0,406.0
20.0,-228.0,94.0,63.0,14.0,-13.0,49.0,-946.0,402.0
19.0,-225.0,96.0,65.0,15.0,-13.0,44.0,-945.0,405.0
24.0,-230.0,99.0,67.0,15.0,-13.0,39.0,-945.0,403.0
18.0,-227.0,99.0,69.0,16.0,-14.0,44.0,-944.0,406.0
20.0,-225.0,97.0,72.0,17.0,-17.0,43.0,-939.0,404.0
20.0,-225.0,96.0,73.0,17.0,-17.0,44.0,-943.0,408.0
22.0,-227.0,94.0,71.0,16.0,-17.0,40.0,-937.0,403.0
19.0,-227.0,86.0,68.0,17.0,-16.0,41.0,-936.0,404.0
20.0,-225.0,97.0,64.0,17.0,-14.0,42.0,-938.0,399.0
21.0,-225.0,96.0,64.0,20.0,-10.0,45.0,-942.0,404.0
19.0,-226.0,99.0,63.0,21.0,-12.0,39.0,-941.0,406.0
22.0,-226.0,94.0,65.0,19.0,-10.0,50.0,-939.0,406.0
20.0,-225.0,99.0,67.0,17.0,-11.0,48.0,-939.0,404.0
19.0,-225.0,99.0,69.0,15.0,-13.0,44.0,-940.0,403.0
17.0,-223.0,96.0,68.0,12.0,-12.0,43.0,-938.0,403.0
22.0,-223.0,97.0,65.0,12.0,-13.0,46.0,-938.0,409.0
18.0,-226.0,99.0,62.0,11.0,-14.0,44.0,-939.0,399.0
21.0,-227.0,95.0,57.0,11.0,-13.0,46.0,-936.0,410.0
16.0,-230.0,96.0,57.0,12.0,-11.0,38.0,-943.0,409.0
22.0,-227.0,97.0,57.0,11.0,-9.0,42.0,-938.0,408.0
22.0,-226.0,97.0,59.0,9.0,-9.0,43.0,-944.0,406.0
19.0,-229.0,100.0,63.0,7.0,-9.0,40.0,-943.0,409.0
20.0,-228.0,96.0,64.0,6.0,-11.0,42.0,-945.0,403.0
21.0,-233.0,93.0,66.0,6.0,-11.0,41.0,-948.0,403.0
18.0,-227.0,98.0,65.0,5.0,-13.0,44.0,-943.0,406.0
19.0,-228.0,95.0,63.0,8.0,-16.0,41.0,-944.0,400.0
19.0,-224.0,95.0,62.0,10.0,-16.0,41.0,-942.0,403.0
21.0,-225.0,91.0,62.0,10.0,-16.0,43.0,-945.0,402.0
20.0,-229.0,93.0,62.0,10.0,-14.0,51.0,-945.0,400.0
21.0,-225.0,98.0,64.0,9.0,-13.0,47.0,-940.0,393.0
23.0,-225.0,94.0,66.0,7.0,-13.0,47.0,-941.0,397.0
20.0,-225.0,96.0,68.0,7.0,-12.0,47.0,-939.0,397.0
22.0,-224.0,95.0,70.0,5.0,-12.0,43.0,-938.0,400.0
22.0,-228.0,93.0,70.0,4.0,-12.0,48.0,-943.0,398.0
20.0,-227.0,95.0,71.0,2.0,-12.0,43.0,-941.0,401.0
17.0,-221.0,95.0,72.0,-1.0,-11.0,45.0,-940.0,402.0
19.0,-229.0,96.0,73.0,-3.0,-13.0,45.0,-935.0,406.0
20.0,-227.0,95.0,70.0,-2.0,-11.0,42.0,-937.0,396.0
19.0,-227.0,98.0,68.0,1.0,-10.0,40.0,-934.0,406.0
18.0,-227.0,95.0,66.0,3.0,-8.0,42.0,-938.0,410.0
20.0,-229.0,99.0,65.0,4.0,-8.0,44.0,-936.0,406.0
22.0,-228.0,99.0,65.0,7.0,-10.0,40.0,-943.0,413.0
19.0,-225.0,96.0,65.0,9.0,-12.0,36.0,-942.0,406.0
19.0,-228.0,95.0,64.0,12.0,-15.0,47.0,-939.0,403.0
21.0,-226.0,95.0,63.0,12.0,-16.0,49.0,-942.0,402.0
21.0,-229.0,96.0,64.0,12.0,-16.0,41.0,-944.0,406.0
21.0,-226.0,99.0,66.0,10.0,-17.0,43.0,-944.0,398.0
24.0,-226.0,100.0,66.0,9.0,-16.0,45.0,-944.0,402.0
20.0,-229.0,98.0,68.0,8.0,-17.0,39.0,-943.0,402.0
19.0,-228.0,96.0,71.0,8.0,-16.0,48.0,-936.0,404.0
19.0,-223.0,97.0,72.0,7.0,-13.0,39.0,-938.0,401.0
20.0,-226.0,95.0,73.0,6.0,-12.0,38.0,-938.0,402.0
21.0,-226.0,95.0,70.0,7.0,-8.0,40.0,-941.0,402.0
23.0,-225.0,96.0,66.0,11.0,-7.0,45.0,-938.0,405.0
22.0,-229.0,100.0,62.0,14.0,-7.0,40.0,-943.0,400.0
19.0,-226.0,94.0,59.0,15.0,-7.0,42.0,-938.0,400.0
23.0,-229.0,96.0,58.0,14.0,-8.0,42.0,-939.0,398.0
18.0,-225.0,93.0,58.0,12.0,-8.0,44.0,-945.0,405.0
24.0,-229.0,96.0,57.0,11.0,-6.0,48.0,-942.0,399.0
24.0,-227.0,99.0,55.0,11.0,-6.0,43.0,-945.0,405.0
20.0,-226.0,94.0,55.0,11.0,-5.0,47.0,-943.0,404.0
16.0,-228.0,96.0,56.0,11.0,-5.0,46.0,-945.0,408.0
21.0,-227.0,94.0,57.0,13.0,-6.0,46.0,-945.0,403.0
21.0,-227.0,94.0,55.0,15.0,-6.0,43.0,-944.0,404.0
23.0,-229.0,97.0,54.0,14.0,-7.0,45.0,-941.0,405.0
20.0,-224.0,96.0,54.0,13.0,-4.0,49.0,-940.0,406.0
19.0,-224.0,95.0,54.0,12.0,-6.0,41.0,-943.0,407.0
22.0,-227.0,96.0,55.0,12.0,-7.0,43.0,-939.0,404.0
21.0,-225.0,91.0,56.0,10.0,-6.0,42.0,-938.0,405.0
23.0,-230.0,99.0,57.0,10.0,-9.0,39.0,-946.0,409.0
21.0,-230.0,96.0,59.0,9.0,-10.0,42.0,-947.0,408.0
22.0,-224.0,98.0,61.0,9.0,-12.0,37.0,-937.0,409.0
23.0,-231.0,101.0,63.0,11.0,-11.0,38.0,-941.0,403.0
20.0,-227.0,96.0,64.0,12.0,-11.0,39.0,-940.0,408.0
20.0,-227.0,101.0,65.0,14.0,-10.0,46.0,-940.0,406.0
21.0,-225.0,96.0,63.0,14.0,-12.0,40.0,-941.0,409.0
23.0,-226.0,99.0,62.0,14.0,-11.0,42.0,-942.0,407.0
20.0,-224.0,95.0,61.0,13.0,-11.0,39.0,-937.0,404.0
21.0,-227.0,97.0,60.0,13.0,-9.0,39.0,-936.0,403.0
17.0,-226.0,96.0,57.0,11.0,-8.0,48.0,-938.0,405.0
22.0,-227.0,96.0,54.0,10.0,-8.0,40.0,-933.0,402.0
21.0,-223.0,91.0,53.0,10.0,-7.0,44.0,-936.0,402.0
21.0,-229.0,100.0,50.0,9.0,-7.0,40.0,-944.0,403.0
25.0,-225.0,95.0,50.0,8.0,-8.0,45.0,-941.0,407.0
20.0,-227.0,98.0,51.0,7.0,-8.0,44.0,-945.0,406.0
23.0,-228.0,99.0,52.0,6.0,-9.0,40.0,-944.0,412.0
20.0,-228.0,97.0,53.0,7.0,-10.0,42.0,-940.0,412.0
18.0,-225.0,99.0,54.0,11.0,-10.0,45.0,-944.0,409.0
22.0,-228.0,96.0,55.0,15.0,-11.0,42.0,-942.0,407.0
22.0,-227.0,99.0,58.0,15.0,-11.0,41.0,-943.0,409.0
18.0,-225.0,100.0,63.0,15.0,-10.0,42.0,-940.0,409.0
21.0,-229.0,94.0,64.0,14.0,-10.0,41.0,-941.0,407.0
19.0,-224.0,97.0,64.0,15.0,-11.0,47.0,-938.0,404.0
23.0,-226.0,101.0,64.0,15.0,-10.0,45.0,-933.0,405.0
19.0,-228.0,96.0,61.0,15.0,-11.0,40.0,-934.0,410.0
20.0,-226.0,97.0,60.0,14.0,-12.0,43.0,-938.0,410.0
21.0,-221.0,101.0,57.0,13.0,-11.0,40.0,-933.0,404.0
21.0,-226.0,100.0,56.0,11.0,-11.0,40.0,-934.0,407.0
20.0,-226.0,98.0,56.0,9.0,-14.0,41.0,-937.0,411.0
19.0,-225.0,100.0,57.0,8.0,-15.0,37.0,-941.0,411.0
21.0,-227.0,97.0,58.0,6.0,-14.0,40.0,-939.0,404.0
19.0,-224.0,96.0,60.0,5.0,-17.0,45.0,-936.0,407.0
19.0,-225.0,98.0,62.0,5.0,-18.0,43.0,-937.0,408.0
21.0,-225.0,96.0,64.0,3.0,-20.0,43.0,-937.0,397.0
20.0,-224.0,95.0,64.0,4.0,-21.0,44.0,-940.0,403.0
19.0,-225.0,88.0,64.0,6.0,-22.0,43.0,-936.0,408.0
21.0,-225.0,98.0,63.0,7.0,-22.0,48.0,-933.0,404.0
22.0,-225.0,96.0,60.0,8.0,-22.0,42.0,-944.0,408.0
22.0,-226.0,98.0,58.0,9.0,-20.0,43.0,-942.0,407.0
21.0,-227.0,99.0,57.0,11.0,-14.0,45.0,-945.0,405.0
23.0,-229.0,97.0,53.0,15.0,-13.0,50.0,-944.0,407.0
23.0,-228.0,95.0,52.0,18.0,-8.0,50.0,-947.0,406.0
24.0,-228.0,96.0,53.0,21.0,-7.0,51.0,-942.0,407.0
21.0,-227.0,91.0,52.0,19.0,-3.0,47.0,-944.0,404.0
23.0,-228.0,97.0,52.0,17.0,-3.0,44.0,-940.0,404.0
18.0,-225.0,97.0,51.0,16.0,-1.0,54.0,-939.0,405.0
19.0,-234.0,103.0,49.0,17.0,0.0,54.0,-941.0,405.0
21.0,-224.0,98.0,47.0,17.0,0.0,52.0,-947.0,402.0
22.0,-228.0,95.0,44.0,18.0,3.0,48.0,-943.0,407.0
20.0,-228.0,98.0,44.0,20.0,2.0,53.0,-947.0,407.0
20.0,-227.0,94.0,44.0,19.0,0.0,48.0,-940.0,407.0
21.0,-226.0,95.0,46.0,20.0,-1.0,44.0,-947.0,409.0
18.0,-227.0,95.0,48.0,21.0,0.0,38.0,-943.0,406.0
21.0,-226.0,98.0,49.0,18.0,-3.0,40.0,-943.0,404.0
18.0,-222.0,93.0,53.0,18.0,-4.0,41.0,-946.0,407.0
22.0,-228.0,97.0,53.0,17.0,-5.0,42.0,-940.0,411.0
19.0,-230.0,99.0,55.0,17.0,-6.0,42.0,-939.0,403.0
21.0,-225.0,97.0,56.0,18.0,-5.0,41.0,-939.0,404.0
20.0,-225.0,101.0,55.0,19.0,-5.0,38.0,-936.0,399.0
18.0,-225.0,93.0,56.0,18.0,-8.0,40.0,-937.0,400.0
19.0,-226.0,97.0,55.0,17.0,-8.0,43.0,-938.0,405.0
21.0,-229.0,97.0,54.0,16.0,-7.0,36.0,-933.0,408.0
21.0,-226.0,97.0,52.0,16.0,-8.0,41.0,-935.0,407.0
18.0,-223.0,90.0,50.0,16.0,-10.0,44.0,-937.0,405.0
19.0,-226.0,96.0,49.0,17.0,-9.0,43.0,-936.0,407.0
21.0,-223.0,94.0,47.0,18.0,-9.0,43.0,-937.0,405.0
21.0,-227.0,98.0,45.0,21.0,-12.0,41.0,-937.0,409.0
23.0,-226.0,96.0,46.0,21.0,-11.0,50.0,-939.0,410.0
22.0,-228.0,95.0,49.0,22.0,-11.0,47.0,-940.0,407.0
20.0,-226.0,101.0,52.0,20.0,-12.0,42.0,-942.0,408.0
21.0,-227.0,98.0,53.0,18.0,-14.0,45.0,-942.0,411.0
21.0,-228.0,99.0,54.0,15.0,-14.0,42.0,-944.0,418.0
19.0,-225.0,95.0,55.0,15.0,-15.0,38.0,-942.0,407.0
23.0,-226.0,96.0,52.0,14.0,-12.0,41.0,-940.0,407.0
20.0,-227.0,94.0,51.0,16.0,-10.0,38.0,-943.0,411.0
18.0,-228.0,99.0,53.0,18.0,-9.0,39.0,-942.0,404.0
22.0,-229.0,100.0,53.0,19.0,-11.0,40.0,-938.0,409.0
18.0,-223.0,100.0,56.0,18.0,-10.0,41.0,-942.0,406.0
16.0,-230.0,94.0,56.0,16.0,-12.0,44.0,-942.0,405.0
20.0,-227.0,99.0,59.0,14.0,-10.0,42.0,-946.0,404.0
18.0,-226.0,97.0,56.0,13.0,-10.0,38.0,-941.0,402.0
17.0,-226.0,97.0,54.0,12.0,-9.0,37.0,-941.0,402.0
21.0,-225.0,97.0,52.0,11.0,-10.0,41.0,-934.0,411.0
21.0,-226.0,100.0,50.0,13.0,-11.0,39.0,-942.0,405.0
19.0,-227.0,97.0,48.0,14.0,-10.0,39.0,-942.0,405.0
23.0,-228.0,95.0,49.0,13.0,-10.0,39.0,-941.0,410.0
21.0,-233.0,96.0,50.0,13.0,-8.0,40.0,-947.0,413.0
19.0,-230.0,94.0,53.0,13.0,-9.0,44.0,-942.0,410.0
19.0,-228.0,100.0,56.0,12.0,-7.0,39.0,-946.0,409.0
20.0,-215.0,106.0,58.0,9.0,-9.0,36.0,-947.0,410.0
20.0,-230.0,96.0,61.0,7.0,-9.0,39.0,-939.0,410.0
21.0,-226.0,97.0,61.0,5.0,-10.0,40.0,-945.0,409.0
19.0,-229.0,98.0,61.0,1.0,-11.0,37.0,-942.0,406.0
19.0,-224.0,100.0,61.0,3.0,-12.0,40.0,-940.0,409.0
18.0,-224.0,97.0,62.0,4.0,-12.0,38.0,-937.0,401.0
16.0,-225.0,94.0,64.0,3.0,-12.0,37.0,-942.0,403.0
21.0,-226.0,96.0,63.0,1.0,-11.0,37.0,-929.0,402.0
21.0,-224.0,91.0,62.0,0.0,-11.0,36.0,-936.0,394.0
21.0,-226.0,94.0,58.0,-1.0,-11.0,37.0,-932.0,406.0
18.0,-225.0,91.0,56.0,-2.0,-11.0,40.0,-939.0,402.0
15.0,-226.0,91.0,54.0,-1.0,-10.0,42.0,-934.0,403.0
19.0,-226.0,95.0,53.0,-2.0,-12.0,38.0,-935.0,402.0
23.0,-226.0,97.0,51.0,-5.0,-13.0,41.0,-934.0,399.0
23.0,-228.0,98.0,51.0,-7.0,-12.0,38.0,-934.0,402.0
19.0,-226.0,93.0,51.0,-8.0,-13.0,34.0,-936.0,398.0
18.0,-228.0,100.0,49.0,-11.0,-16.0,33.0,-938.0,406.0
18.0,-224.0,98.0,48.0,-15.0,-15.0,34.0,-935.0,413.0
19.0,-227.0,100.0,46.0,-16.0,-17.0,34.0,-932.0,410.0
21.0,-230.0,100.0,44.0,-18.0,-18.0,34.0,-939.0,409.0
19.0,-225.0,99.0,43.0,-17.0,-19.0,38.0,-940.0,412.0
19.0,-226.0,100.0,43.0,-14.0,-20.0,43.0,-942.0,414.0
20.0,-230.0,100.0,43.0,-15.0,-21.0,43.0,-942.0,412.0
23.0,-230.0,97.0,44.0,-11.0,-22.0,48.0,-945.0,406.0
22.0,-229.0,96.0,44.0,-10.0,-22.0,49.0,-946.0,411.0
24.0,-228.0,99.0,49.0,-10.0,-20.0,53.0,-944.0,406.0
21.0,-227.0,94.0,55.0,-9.0,-17.0,56.0,-940.0,412.0
22.0,-225.0,97.0,62.0,-10.0,-15.0,51.0,-939.0,410.0
22.0,-230.0,95.0,66.0,-13.0,-11.0,49.0,-948.0,407.0
24.0,-231.0,100.0,74.0,-12.0,-11.0,53.0,-943.0,412.0
22.0,-226.0,101.0,79.0,-13.0,-7.0,52.0,-941.0,411.0
24.0,-226.0,97.0,83.0,-12.0,-7.0,54.0,-943.0,412.0
24.0,-226.0,94.0,85.0,-10.0,-9.0,47.0,-938.0,404.0
23.0,-229.0,95.0,84.0,-8.0,-12.0,51.0,-940.0,404.0
21.0,-228.0,98.0,81.0,-5.0,-12.0,45.0,-931.0,402.0
23.0,-226.0,94.0,81.0,-4.0,-13.0,52.0,-941.0,407.0
26.0,-229.0,99.0,80.0,-1.0,-14.0,53.0,-940.0,408.0
22.0,-225.0,97.0,80.0,0.0,-14.0,51.0,-939.0,405.0
20.0,-226.0,96.0,81.0,1.0,-14.0,54.0,-936.0,412.0
19.0,-222.0,94.0,83.0,4.0,-15.0,57.0,-939.0,407.0
23.0,-225.0,95.0,84.0,6.0,-16.0,58.0,-937.0,407.0
22.0,-225.0,98.0,85.0,8.0,-16.0,53.0,-939.0,408.0
21.0,-223.0,98.0,86.0,8.0,-17.0,45.0,-937.0,406.0
23.0,-224.0,96.0,85.0,7.0,-18.0,51.0,-933.0,407.0
18.0,-231.0,95.0,83.0,6.0,-19.0,48.0,-933.0,409.0
22.0,-224.0,96.0,80.0,6.0,-19.0,53.0,-939.0,407.0
20.0,-225.0,97.0,77.0,6.0,-20.0,44.0,-938.0,411.0
21.0,-224.0,96.0,74.0,5.0,-19.0,51.0,-939.0,411.0
22.0,-226.0,97.0,73.0,5.0,-21.0,49.0,-942.0,408.0
22.0,-227.0,98.0,71.0,3.0,-22.0,47.0,-939.0,415.0
22.0,-226.0,100.0,70.0,3.0,-23.0,51.0,-939.0,407.0
20.0,-225.0,100.0,70.0,4.0,-22.0,46.0,-942.0,412.0
26.0,-229.0,96.0,70.0,4.0,-22.0,52.0,-939.0,411.0
25.0,-229.0,101.0,70.0,5.0,-20.0,49.0,-943.0,409.0
21.0,-225.0,97.0,73.0,7.0,-22.0,52.0,-943.0,413.0
22.0,-224.0,94.0,77.0,8.0,-22.0,54.0,-944.0,409.0
22.0,-226.0,96.0,77.0,9.0,-20.0,44.0,-942.0,411.0
21.0,-226.0,97.0,80.0,11.0,-21.0,50.0,-937.0,413.0
21.0,-227.0,95.0,81.0,11.0,-19.0,46.0,-937.0,408.0
19.0,-224.0,97.0,80.0,13.0,-19.0,46.0,-944.0,405.0
24.0,-225.0,99.0,78.0,13.0,-20.0,52.0,-935.0,406.0
21.0,-226.0,98.0,76.0,14.0,-19.0,50.0,-929.0,406.0
19.0,-226.0,98.0,73.0,15.0,-17.0,52.0,-938.0,409.0
24.0,-226.0,96.0,69.0,14.0,-17.0,50.0,-931.0,413.0
21.0,-226.0,103.0,68.0,16.0,-14.0,47.0,-939.0,419.0
22.0,-230.0,99.0,67.0,14.0,-12.0,52.0,-936.0,417.0
19.0,-227.0,98.0,67.0,15.0,-13.0,47.0,-938.0,414.0
19.0,-225.0,95.0,69.0,17.0,-13.0,46.0,-940.0,413.0
23.0,-226.0,99.0,69.0,20.0,-15.0,42.0,-935.0,420.0
21.0,-222.0,97.0,69.0,20.0,-15.0,48.0,-936.0,411.0
22.0,-226.0,99.0,69.0,22.0,-15.0,39.0,-938.0,412.0
22.0,-223.0,96.0,69.0,24.0,-16.0,47.0,-935.0,409.0
18.0,-224.0,99.0,67.0,26.0,-15.0,44.0,-939.0,411.0
23.0,-226.0,97.0,65.0,25.0,-17.0,44.0,-935.0,409.0
21.0,-227.0,98.0,64.0,25.0,-15.0,44.0,-940.0,415.0
18.0,-225.0,96.0,62.0,24.0,-16.0,46.0,-935.0,411.0
19.0,-226.0,96.0,62.0,23.0,-15.0,41.0,-936.0,417.0
23.0,-228.0,99.0,63.0,20.0,-14.0,44.0,-931.0,410.0
23.0,-226.0,95.0,63.0,18.0,-13.0,40.0,-934.0,414.0
20.0,-226.0,101.0,63.0,17.0,-13.0,44.0,-938.0,414.0
20.0,-225.0,98.0,64.0,16.0,-14.0,47.0,-941.0,426.0
21.0,-227.0,103.0,65.0,16.0,-12.0,38.0,-940.0,420.0
20.0,-229.0,105.0,67.0,17.0,-13.0,42.0,-942.0,413.0
24.0,-227.0,101.0,68.0,18.0,-12.0,46.0,-938.0,418.0
20.0,-224.0,97.0,69.0,20.0,-14.0,43.0,-942.0,412.0
19.0,-228.0,101.0,69.0,21.0,-17.0,45.0,-939.0,415.0
19.0,-225.0,98.0,71.0,22.0,-16.0,43.0,-942.0,413.0
27.0,-228.0,108.0,71.0,21.0,-16.0,43.0,-940.0,412.0
16.0,-222.0,100.0,73.0,21.0,-17.0,42.0,-937.0,411.0
22.0,-225.0,100.0,72.0,19.0,-16.0,45.0,-937.0,410.0
21.0,-225.0,99.0,71.0,17.0,-15.0,41.0,-934.0,406.0
21.0,-224.0,97.0,71.0,15.0,-14.0,46.0,-931.0,413.0
21.0,-226.0,96.0,69.0,15.0,-14.0,44.0,-936.0,416.0
21.0,-224.0,100.0,67.0,14.0,-13.0,42.0,-930.0,412.0
20.0,-223.0,96.0,65.0,13.0,-11.0,38.0,-933.0,410.0
25.0,-225.0,102.0,62.0,13.0,-11.0,42.0,-932.0,405.0
22.0,-227.0,98.0,59.0,12.0,-9.0,41.0,-926.0,418.0
17.0,-221.0,99.0,53.0,11.0,-10.0,47.0,-931.0,409.0
16.0,-227.0,97.0,50.0,10.0,-10.0,40.0,-937.0,412.0
18.0,-224.0,99.0,46.0,11.0,-11.0,43.0,-932.0,412.0
20.0,-226.0,102.0,44.0,9.0,-11.0,43.0,-935.0,414.0
23.0,-228.0,100.0,43.0,9.0,-12.0,40.0,-935.0,408.0
21.0,-226.0,96.0,43.0,8.0,-12.0,43.0,-939.0,413.0
21.0,-232.0,99.0,44.0,8.0,-12.0,41.0,-944.0,414.0
19.0,-227.0,99.0,47.0,8.0,-11.0,38.0,-941.0,417.0
22.0,-227.0,103.0,51.0,9.0,-11.0,34.0,-941.0,426.0
21.0,-231.0,99.0,56.0,10.0,-13.0,42.0,-939.0,422.0
18.0,-226.0,103.0,60.0,10.0,-14.0,40.0,-939.0,418.0
22.0,-225.0,97.0,64.0,12.0,-15.0,41.0,-941.0,411.0
20.0,-229.0,98.0,67.0,11.0,-14.0,47.0,-935.0,418.0
20.0,-227.0,100.0,67.0,10.0,-14.0,48.0,-937.0,421.0
21.0,-225.0,101.0,67.0,10.0,-15.0,44.0,-938.0,411.0
19.0,-224.0,97.0,65.0,9.0,-16.0,41.0,-940.0,413.0
20.0,-227.0,96.0,63.0,8.0,-12.0,40.0,-935.0,414.0
20.0,-224.0,101.0,59.0,8.0,-12.0,44.0,-929.0,406.0
21.0,-224.0,98.0,56.0,7.0,-12.0,51.0,-934.0,412.0
23.0,-227.0,96.0,54.0,6.0,-12.0,44.0,-934.0,412.0
17.0,-223.0,97.0,53.0,6.0,-12.0,45.0,-940.0,423.0
21.0,-223.0,97.0,55.0,7.0,-13.0,50.0,-941.0,411.0
21.0,-227.0,103.0,57.0,10.0,-15.0,48.0,-939.0,418.0
20.0,-230.0,103.0,61.0,11.0,-16.0,54.0,-940.0,428.0
23.0,-229.0,98.0,64.0,11.0,-15.0,46.0,-944.0,414.0
23.0,-227.0,101.0,68.0,12.0,-15.0,52.0,-934.0,410.0
21.0,-227.0,97.0,69.0,11.0,-14.0,53.0,-938.0,418.0
22.0,-225.0,101.0,69.0,11.0,-11.0,54.0,-936.0,417.0
24.0,-226.0,100.0,68.0,9.0,-9.0,53.0,-941.0,412.0
22.0,-227.0,100.0,68.0,8.0,-9.0,51.0,-938.0,411.0
23.0,-222.0,95.0,67.0,8.0,-10.0,53.0,-941.0,411.0
24.0,-226.0,101.0,66.0,10.0,-10.0,53.0,-940.0,417.0
26.0,-226.0,102.0,68.0,10.0,-11.0,50.0,-935.0,413.0
26.0,-229.0,102.0,69.0,11.0,-11.0,53.0,-935.0,417.0
21.0,-223.0,100.0,72.0,13.0,-11.0,52.0,-936.0,415.0
22.0,-224.0,101.0,71.0,14.0,-8.0,49.0,-928.0,407.0
23.0,-226.0,101.0,69.0,12.0,-7.0,53.0,-932.0,422.0
22.0,-224.0,102.0,67.0,10.0,-6.0,48.0,-930.0,423.0
22.0,-226.0,102.0,62.0,7.0,-4.0,46.0,-931.0,425.0
21.0,-226.0,103.0,59.0,7.0,-3.0,45.0,-931.0,415.0
20.0,-224.0,105.0,55.0,6.0,-2.0,57.0,-936.0,418.0
24.0,-227.0,102.0,54.0,8.0,-3.0,52.0,-940.0,422.0
20.0,-226.0,102.0,54.0,10.0,-5.0,52.0,-934.0,422.0
22.0,-225.0,100.0,55.0,12.0,-7.0,46.0,-936.0,411.0
22.0,-227.0,103.0,57.0,14.0,-9.0,52.0,-929.0,415.0
25.0,-224.0,98.0,56.0,14.0,-10.0,50.0,-930.0,417.0
22.0,-226.0,101.0,55.0,14.0,-9.0,53.0,-931.0,410.0
21.0,-223.0,100.0,53.0,14.0,-8.0,48.0,-928.0,409.0
24.0,-226.0,100.0,53.0,13.0,-8.0,48.0,-929.0,417.0
20.0,-224.0,104.0,51.0,11.0,-7.0,50.0,-932.0,416.0
21.0,-223.0,101.0,50.0,11.0,-7.0,52.0,-931.0,419.0
20.0,-228.0,99.0,51.0,9.0,-11.0,49.0,-937.0,418.0
26.0,-229.0,98.0,53.0,11.0,-11.0,50.0,-943.0,423.0
25.0,-226.0,100.0,57.0,13.0,-11.0,49.0,-945.0,422.0
20.0,-227.0,96.0,61.0,12.0,-13.0,48.0,-938.0,418.0
24.0,-223.0,101.0,65.0,14.0,-13.0,47.0,-941.0,415.0
21.0,-229.0,104.0,67.0,14.0,-15.0,53.0,-936.0,415.0
23.0,-227.0,99.0,68.0,14.0,-13.0,42.0,-931.0,422.0
23.0,-227.0,100.0,67.0,12.0,-12.0,43.0,-936.0,417.0
20.0,-224.0,99.0,65.0,10.0,-9.0,40.0,-935.0,430.0
22.0,-225.0,102.0,62.0,8.0,-8.0,46.0,-934.0,422.0
22.0,-224.0,100.0,60.0,8.0,-6.0,42.0,-937.0,421.0
19.0,-224.0,103.0,60.0,10.0,-5.0,45.0,-939.0,414.0
24.0,-226.0,93.0,59.0,11.0,-5.0,46.0,-936.0,420.0
24.0,-227.0,93.0,59.0,12.0,-5.0,50.0,-937.0,415.0
22.0,-222.0,96.0,59.0,13.0,-7.0,52.0,-931.0,411.0
24.0,-226.0,96.0,57.0,14.0,-5.0,48.0,-935.0,412.0
19.0,-226.0,92.0,55.0,14.0,-8.0,53.0,-928.0,416.0
20.0,-223.0,99.0,53.0,16.0,-10.0,45.0,-927.0,420.0
21.0,-222.0,99.0,52.0,17.0,-9.0,47.0,-929.0,421.0
23.0,-225.0,102.0,52.0,17.0,-9.0,40.0,-934.0,422.0
19.0,-222.0,105.0,53.0,17.0,-9.0,42.0,-936.0,429.0
21.0,-225.0,98.0,53.0,18.0,-10.0,40.0,-935.0,436.0
23.0,-224.0,103.0,55.0,18.0,-11.0,44.0,-932.0,423.0
23.0,-226.0,101.0,55.0,20.0,-11.0,43.0,-929.0,428.0
24.0,-225.0,104.0,54.0,23.0,-11.0,43.0,-931.0,414.0
21.0,-225.0,101.0,52.0,24.0,-13.0,43.0,-933.0,419.0
19.0,-226.0,100.0,48.0,24.0,-13.0,47.0,-932.0,415.0
21.0,-225.0,97.0,45.0,25.0,-13.0,42.0,-935.0,419.0
23.0,-227.0,99.0,40.0,24.0,-9.0,49.0,-938.0,411.0
22.0,-227.0,100.0,35.0,23.0,-5.0,53.0,-939.0,419.0
27.0,-226.0,99.0,32.0,19.0,-4.0,55.0,-937.0,420.0
26.0,-230.0,99.0,33.0,17.0,-3.0,61.0,-944.0,422.0
27.0,-229.0,103.0,37.0,15.0,-3.0,60.0,-943.0,427.0
24.0,-226.0,97.0,44.0,16.0,-7.0,64.0,-939.0,426.0
23.0,-228.0,100.0,53.0,16.0,-8.0,58.0,-937.0,419.0
24.0,-225.0,102.0,60.0,20.0,-12.0,51.0,-938.0,421.0
28.0,-230.0,98.0,66.0,23.0,-15.0,54.0,-931.0,406.0
19.0,-214.0,95.0,68.0,24.0,-17.0,49.0,-932.0,406.0
22.0,-222.0,99.0,69.0,26.0,-17.0,54.0,-930.0,406.0
18.0,-223.0,98.0,68.0,29.0,-17.0,44.0,-932.0,414.0
21.0,-223.0,96.0,64.0,30.0,-17.0,41.0,-933.0,416.0
23.0,-225.0,101.0,61.0,34.0,-17.0,41.0,-924.0,411.0
23.0,-222.0,95.0,55.0,40.0,-17.0,41.0,-924.0,411.0
22.0,-224.0,100.0,47.0,48.0,-17.0,42.0,-926.0,411.0
16.0,-222.0,101.0,35.0,57.0,-15.0,41.0,-928.0,406.0
22.0,-224.0,97.0,22.0,64.0,-12.0,39.0,-921.0,409.0
24.0,-218.0,103.0,5.0,67.0,-8.0,38.0,-923.0,406.0
17.0,-222.0,101.0,-13.0,65.0,-3.0,39.0,-922.0,408.0
24.0,-223.0,102.0,-30.0,59.0,2.0,42.0,-926.0,422.0
20.0,-225.0,105.0,-39.0,53.0,6.0,48.0,-933.0,426.0
22.0,-225.0,103.0,-46.0,44.0,8.0,41.0,-945.0,423.0
19.0,-227.0,104.0,-47.0,34.0,8.0,39.0,-946.0,431.0
20.0,-228.0,101.0,-44.0,23.0,7.0,42.0,-947.0,431.0
19.0,-230.0,100.0,-37.0,13.0,1.0,39.0,-953.0,433.0
19.0,-228.0,101.0,-30.0,7.0,-2.0,39.0,-947.0,426.0
17.0,-225.0,97.0,-23.0,3.0,-6.0,42.0,-948.0,415.0
20.0,-226.0,103.0,-17.0,-1.0,-11.0,48.0,-949.0,410.0
22.0,-231.0,101.0,-12.0,-3.0,-14.0,39.0,-945.0,415.0
19.0,-228.0,101.0,-8.0,-3.0,-14.0,42.0,-941.0,414.0
18.0,-222.0,98.0,-7.0,-3.0,-14.0,37.0,-939.0,410.0
20.0,-223.0,96.0,-5.0,0.0,-14.0,44.0,-934.0,412.0
21.0,-226.0,99.0,-5.0,5.0,-15.0,39.0,-930.0,406.0
21.0,-225.0,96.0,-4.0,10.0,-15.0,38.0,-935.0,403.0
22.0,-223.0,98.0,0.0,12.0,-13.0,38.0,-931.0,408.0
22.0,-226.0,97.0,7.0,14.0,-13.0,42.0,-934.0,409.0
22.0,-222.0,102.0,17.0,14.0,-10.0,40.0,-936.0,413.0
26.0,-229.0,101.0,28.0,12.0,-8.0,44.0,-935.0,412.0
25.0,-227.0,100.0,41.0,9.0,-9.0,45.0,-938.0,414.0
24.0,-227.0,100.0,52.0,7.0,-9.0,47.0,-937.0,415.0
21.0,-228.0,102.0,60.0,6.0,-11.0,43.0,-937.0,413.0
28.0,-230.0,95.0,65.0,4.0,-12.0,45.0,-934.0,404.0
22.0,-224.0,97.0,67.0,4.0,-10.0,44.0,-943.0,416.0
23.0,-224.0,98.0,69.0,4.0,-10.0,41.0,-937.0,417.0
23.0,-227.0,103.0,69.0,3.0,-12.0,46.0,-942.0,418.0
21.0,-229.0,100.0,72.0,3.0,-13.0,44.0,-937.0,424.0
19.0,-224.0,103.0,73.0,3.0,-14.0,49.0,-942.0,417.0
24.0,-227.0,96.0,76.0,4.0,-12.0,42.0,-939.0,420.0
18.0,-224.0,97.0,77.0,6.0,-13.0,41.0,-943.0,414.0
21.0,-222.0,98.0,79.0,5.0,-12.0,43.0,-933.0,414.0
21.0,-224.0,102.0,78.0,6.0,-12.0,42.0,-933.0,407.0
22.0,-222.0,99.0,77.0,6.0,-14.0,42.0,-930.0,414.0
15.0,-225.0,98.0,75.0,6.0,-13.0,39.0,-931.0,414.0
20.0,-224.0,99.0,71.0,6.0,-13.0,39.0,-932.0,407.0
26.0,-228.0,100.0,65.0,6.0,-11.0,42.0,-931.0,408.0
19.0,-225.0,96.0,58.0,5.0,-11.0,38.0,-934.0,406.0
19.0,-223.0,97.0,51.0,3.0,-10.0,41.0,-936.0,401.0
22.0,-227.0,96.0,46.0,0.0,-10.0,47.0,-939.0,403.0
22.0,-229.0,96.0,40.0,-1.0,-13.0,49.0,-939.0,400.0
25.0,-230.0,95.0,34.0,-4.0,-15.0,42.0,-942.0,395.0
16.0,-227.0,88.0,31.0,-9.0,-13.0,47.0,-948.0,391.0
17.0,-226.0,96.0,30.0,-14.0,-12.0,47.0,-947.0,395.0
25.0,-224.0,93.0,32.0,-16.0,-10.0,52.0,-942.0,391.0
18.0,-229.0,96.0,40.0,-18.0,-12.0,53.0,-946.0,398.0
20.0,-232.0,97.0,49.0,-18.0,-11.0,48.0,-946.0,398.0
22.0,-228.0,92.0,58.0,-16.0,-11.0,43.0,-944.0,408.0
23.0,-228.0,98.0,69.0,-15.0,-13.0,42.0,-941.0,404.0
20.0,-226.0,96.0,75.0,-10.0,-13.0,43.0,-940.0,407.0
23.0,-227.0,98.0,79.0,-10.0,-13.0,45.0,-940.0,404.0
21.0,-227.0,98.0,80.0,-8.0,-14.0,46.0,-940.0,408.0
23.0,-225.0,97.0,78.0,-4.0,-13.0,45.0,-932.0,409.0
20.0,-224.0,99.0,76.0,-1.0,-14.0,48.0,-940.0,408.0
21.0,-225.0,93.0,73.0,2.0,-14.0,48.0,-938.0,406.0
23.0,-223.0,97.0,69.0,5.0,-12.0,50.0,-935.0,409.0
22.0,-231.0,99.0,66.0,5.0,-12.0,50.0,-933.0,405.0
21.0,-225.0,98.0,63.0,4.0,-12.0,49.0,-938.0,414.0
23.0,-227.0,96.0,62.0,4.0,-11.0,48.0,-934.0,412.0
23.0,-228.0,96.0,63.0,1.0,-9.0,53.0,-936.0,413.0
23.0,-228.0,96.0,65.0,-3.0,-10.0,44.0,-940.0,413.0
23.0,-229.0,99.0,69.0,-5.0,-8.0,48.0,-938.0,416.0
22.0,-226.0,101.0,73.0,-5.0,-6.0,43.0,-945.0,416.0
22.0,-227.0,95.0,76.0,-4.0,-7.0,45.0,-940.0,416.0
24.0,-226.0,98.0,81.0,-6.0,-7.0,45.0,-938.0,414.0
25.0,-228.0,99.0,84.0,-4.0,-6.0,44.0,-933.0,416.0
23.0,-226.0,97.0,85.0,-4.0,-8.0,42.0,-940.0,417.0
17.0,-228.0,95.0,84.0,-2.0,-10.0,49.0,-941.0,417.0
21.0,-226.0,102.0,81.0,0.0,-11.0,45.0,-932.0,407.0
20.0,-225.0,100.0,77.0,1.0,-13.0,49.0,-937.0,414.0
24.0,-225.0,102.0,74.0,2.0,-15.0,40.0,-934.0,422.0
22.0,-223.0,101.0,71.0,5.0,-15.0,45.0,-937.0,421.0
22.0,-227.0,100.0,69.0,7.0,-17.0,47.0,-937.0,419.0
21.0,-225.0,100.0,68.0,7.0,-20.0,45.0,-937.0,418.0
19.0,-224.0,98.0,69.0,8.0,-21.0,48.0,-936.0,424.0
17.0,-228.0,97.0,69.0,10.0,-23.0,44.0,-934.0,416.0
20.0,-225.0,100.0,71.0,11.0,-22.0,48.0,-937.0,419.0
23.0,-226.0,104.0,74.0,11.0,-22.0,45.0,-934.0,416.0
24.0,-232.0,110.0,78.0,11.0,-22.0,49.0,-938.0,412.0
21.0,-225.0,98.0,81.0,12.0,-22.0,51.0,-932.0,426.0
23.0,-223.0,98.0,83.0,11.0,-21.0,50.0,-931.0,415.0
22.0,-225.0,100.0,84.0,12.0,-20.0,46.0,-930.0,420.0
20.0,-224.0,98.0,85.0,10.0,-20.0,48.0,-930.0,415.0
20.0,-221.0,98.0,83.0,10.0,-18.0,46.0,-928.0,422.0
23.0,-221.0,98.0,79.0,8.0,-17.0,47.0,-926.0,416.0
22.0,-224.0,101.0,76.0,7.0,-15.0,47.0,-932.0,414.0
21.0,-221.0,98.0,73.0,7.0,-15.0,51.0,-925.0,415.0
24.0,-226.0,97.0,68.0,9.0,-17.0,46.0,-931.0,413.0
16.0,-223.0,101.0,65.0,9.0,-14.0,53.0,-930.0,424.0
20.0,-223.0,100.0,64.0,10.0,-16.0,53.0,-933.0,420.0
23.0,-225.0,99.0,62.0,12.0,-15.0,53.0,-931.0,425.0
23.0,-223.0,100.0,61.0,12.0,-17.0,53.0,-934.0,418.0
21.0,-225.0,98.0,59.0,13.0,-18.0,57.0,-935.0,422.0
18.0,-222.0,100.0,60.0,13.0,-20.0,50.0,-938.0,427.0
20.0,-226.0,96.0,60.0,13.0,-20.0,49.0,-935.0,421.0
22.0,-225.0,103.0,61.0,12.0,-19.0,49.0,-938.0,418.0
24.0,-227.0,99.0,62.0,13.0,-20.0,49.0,-936.0,418.0
26.0,-224.0,99.0,65.0,13.0,-20.0,42.0,-937.0,422.0
22.0,-225.0,99.0,66.0,14.0,-18.0,55.0,-940.0,421.0
27.0,-227.0,100.0,69.0,15.0,-20.0,48.0,-931.0,421.0
23.0,-225.0,101.0,70.0,16.0,-20.0,51.0,-930.0,418.0
23.0,-223.0,103.0,69.0,15.0,-18.0,51.0,-932.0,412.0
22.0,-223.0,99.0,66.0,15.0,-19.0,52.0,-936.0,415.0
21.0,-228.0,99.0,62.0,15.0,-20.0,51.0,-933.0,414.0
22.0,-223.0,103.0,59.0,15.0,-20.0,51.0,-935.0,410.0
20.0,-224.0,99.0,55.0,13.0,-16.0,57.0,-933.0,418.0
22.0,-225.0,99.0,54.0,13.0,-16.0,50.0,-937.0,414.0
25.0,-225.0,102.0,56.0,11.0,-17.0,55.0,-940.0,415.0
22.0,-224.0,103.0,56.0,10.0,-16.0,53.0,-940.0,422.0
22.0,-225.0,97.0,57.0,10.0,-17.0,51.0,-942.0,422.0
19.0,-227.0,96.0,58.0,10.0,-18.0,47.0,-939.0,416.0
23.0,-225.0,97.0,60.0,10.0,-17.0,48.0,-940.0,419.0
22.0,-227.0,99.0,63.0,14.0,-17.0,47.0,-934.0,425.0
21.0,-225.0,100.0,64.0,14.0,-19.0,42.0,-939.0,424.0
22.0,-225.0,97.0,64.0,16.0,-18.0,49.0,-937.0,433.0
24.0,-227.0,103.0,66.0,15.0,-16.0,52.0,-933.0,427.0
20.0,-224.0,103.0,66.0,16.0,-16.0,49.0,-936.0,417.0
24.0,-226.0,100.0,66.0,15.0,-17.0,53.0,-932.0,415.0
23.0,-225.0,97.0,67.0,14.0,-16.0,52.0,-937.0,420.0
22.0,-227.0,97.0,67.0,13.0,-15.0,55.0,-931.0,417.0
23.0,-223.0,91.0,67.0,11.0,-17.0,53.0,-930.0,418.0
27.0,-220.0,98.0,65.0,10.0,-16.0,55.0,-930.0,414.0
21.0,-224.0,97.0,63.0,10.0,-15.0,54.0,-931.0,417.0
20.0,-225.0,103.0,61.0,10.0,-14.0,52.0,-934.0,416.0
24.0,-227.0,99.0,61.0,11.0,-15.0,53.0,-936.0,416.0
25.0,-227.0,101.0,61.0,12.0,-15.0,48.0,-938.0,427.0
24.0,-224.0,98.0,64.0,11.0,-16.0,49.0,-930.0,423.0
24.0,-226.0,106.0,65.0,12.0,-16.0,58.0,-933.0,429.0
24.0,-225.0,106.0,67.0,12.0,-16.0,56.0,-936.0,425.0
20.0,-223.0,96.0,70.0,14.0,-15.0,59.0,-934.0,423.0
23.0,-227.0,99.0,70.0,13.0,-17.0,47.0,-938.0,422.0
21.0,-225.0,99.0,69.0,11.0,-16.0,55.0,-932.0,417.0
19.0,-223.0,102.0,69.0,10.0,-15.0,50.0,-936.0,415.0
24.0,-226.0,100.0,69.0,9.0,-15.0,50.0,-936.0,419.0
22.0,-225.0,99.0,69.0,8.0,-14.0,47.0,-932.0,429.0
22.0,-223.0,102.0,69.0,5.0,-15.0,50.0,-937.0,428.0
22.0,-225.0,101.0,70.0,4.0,-16.0,52.0,-932.0,416.0
22.0,-223.0,98.0,71.0,5.0,-18.0,54.0,-930.0,414.0
25.0,-225.0,102.0,71.0,5.0,-17.0,49.0,-932.0,417.0
20.0,-222.0,105.0,71.0,6.0,-15.0,50.0,-932.0,416.0
23.0,-228.0,101.0,68.0,6.0,-16.0,51.0,-928.0,412.0
23.0,-225.0,104.0,65.0,6.0,-14.0,46.0,-929.0,409.0
23.0,-224.0,100.0,60.0,5.0,-15.0,52.0,-925.0,417.0
19.0,-223.0,101.0,52.0,2.0,-15.0,45.0,-928.0,411.0
20.0,-225.0,98.0,47.0,1.0,-14.0,42.0,-936.0,414.0
19.0,-225.0,97.0,41.0,-1.0,-14.0,44.0,-934.0,409.0
23.0,-225.0,98.0,35.0,-1.0,-14.0,45.0,-932.0,415.0
23.0,-228.0,101.0,32.0,1.0,-13.0,49.0,-936.0,412.0
23.0,-225.0,99.0,31.0,3.0,-13.0,50.0,-940.0,416.0
23.0,-226.0,103.0,31.0,2.0,-12.0,48.0,-942.0,414.0
23.0,-226.0,101.0,34.0,4.0,-12.0,48.0,-946.0,419.0
17.0,-226.0,102.0,39.0,2.0,-12.0,51.0,-939.0,418.0
23.0,-227.0,101.0,43.0,-1.0,-13.0,48.0,-940.0,423.0
19.0,-228.0,102.0,46.0,-1.0,-11.0,43.0,-943.0,415.0
19.0,-229.0,102.0,50.0,-1.0,-12.0,47.0,-944.0,420.0
24.0,-226.0,100.0,54.0,1.0,-13.0,50.0,-942.0,417.0
23.0,-227.0,100.0,58.0,-1.0,-15.0,42.0,-942.0,421.0
22.0,-225.0,98.0,60.0,-1.0,-14.0,43.0,-936.0,420.0
19.0,-225.0,101.0,61.0,0.0,-16.0,46.0,-931.0,422.0
22.0,-223.0,103.0,61.0,-1.0,-16.0,43.0,-930.0,424.0
24.0,-224.0,99.0,60.0,1.0,-16.0,53.0,-931.0,433.0
21.0,-223.0,108.0,58.0,1.0,-15.0,48.0,-930.0,436.0
24.0,-223.0,103.0,58.0,3.0,-17.0,51.0,-935.0,425.0
22.0,-219.0,98.0,55.0,4.0,-15.0,53.0,-929.0,432.0
24.0,-223.0,105.0,54.0,7.0,-17.0,48.0,-928.0,423.0
24.0,-222.0,101.0,50.0,9.0,-17.0,49.0,-931.0,422.0
22.0,-221.0,100.0,48.0,9.0,-14.0,53.0,-929.0,423.0
24.0,-223.0,102.0,45.0,9.0,-15.0,54.0,-931.0,410.0
26.0,-227.0,98.0,42.0,8.0,-13.0,50.0,-926.0,414.0
24.0,-223.0,99.0,39.0,6.0,-12.0,55.0,-931.0,414.0
22.0,-227.0,101.0,39.0,4.0,-13.0,58.0,-930.0,418.0
23.0,-224.0,102.0,39.0,1.0,-13.0,51.0,-934.0,418.0
23.0,-224.0,101.0,41.0,-3.0,-10.0,57.0,-937.0,425.0
25.0,-226.0,104.0,44.0,-7.0,-10.0,57.0,-937.0,425.0
22.0,-224.0,96.0,45.0,-9.0,-11.0,51.0,-934.0,424.0
21.0,-227.0,102.0,50.0,-10.0,-12.0,51.0,-935.0,427.0
28.0,-225.0,95.0,52.0,-8.0,-16.0,57.0,-937.0,420.0
24.0,-227.0,102.0,55.0,-7.0,-16.0,58.0,-936.0,425.0
22.0,-226.0,101.0,58.0,-5.0,-18.0,52.0,-932.0,426.0
22.0,-222.0,102.0,60.0,-1.0,-19.0,55.0,-930.0,431.0
24.0,-222.0,102.0,60.0,2.0,-20.0,49.0,-936.0,426.0
24.0,-223.0,96.0,60.0,3.0,-20.0,58.0,-926.0,432.0
24.0,-225.0,100.0,59.0,5.0,-20.0,54.0,-932.0,423.0
25.0,-225.0,101.0,56.0,9.0,-18.0,50.0,-928.0,419.0
22.0,-226.0,104.0,52.0,12.0,-20.0,50.0,-931.0,421.0
21.0,-225.0,98.0,48.0,15.0,-21.0,55.0,-931.0,418.0
23.0,-227.0,101.0,46.0,16.0,-21.0,51.0,-930.0,421.0
24.0,-223.0,99.0,43.0,15.0,-21.0,54.0,-932.0,417.0
24.0,-224.0,98.0,43.0,17.0,-21.0,58.0,-934.0,416.0
22.0,-225.0,99.0,42.0,17.0,-19.0,60.0,-928.0,415.0
24.0,-223.0,101.0,41.0,16.0,-19.0,57.0,-932.0,416.0
24.0,-224.0,100.0,41.0,16.0,-20.0,56.0,-939.0,418.0
24.0,-224.0,99.0,42.0,15.0,-20.0,55.0,-933.0,416.0
28.0,-227.0,101.0,42.0,14.0,-20.0,58.0,-938.0,419.0
22.0,-225.0,100.0,45.0,11.0,-20.0,56.0,-935.0,420.0
25.0,-226.0,102.0,46.0,10.0,-20.0,55.0,-937.0,420.0
23.0,-227.0,99.0,49.0,10.0,-18.0,56.0,-933.0,420.0
21.0,-229.0,98.0,52.0,9.0,-17.0,51.0,-933.0,418.0
20.0,-229.0,98.0,53.0,9.0,-16.0,47.0,-936.0,426.0
25.0,-228.0,100.0,54.0,10.0,-17.0,52.0,-935.0,416.0
26.0,-225.0,99.0,56.0,10.0,-18.0,53.0,-939.0,415.0
23.0,-225.0,99.0,57.0,10.0,-18.0,57.0,-931.0,415.0
27.0,-225.0,99.0,57.0,11.0,-18.0,53.0,-936.0,416.0
23.0,-222.0,100.0,53.0,11.0,-14.0,58.0,-929.0,411.0
27.0,-224.0,96.0,51.0,12.0,-16.0,56.0,-931.0,412.0
23.0,-224.0,97.0,45.0,10.0,-16.0,56.0,-933.0,407.0
28.0,-225.0,100.0,40.0,13.0,-15.0,57.0,-930.0,412.0
26.0,-229.0,96.0,37.0,13.0,-15.0,60.0,-935.0,410.0
26.0,-229.0,98.0,36.0,14.0,-14.0,59.0,-932.0,415.0
25.0,-226.0,100.0,37.0,13.0,-15.0,56.0,-936.0,420.0
27.0,-226.0,100.0,38.0,12.0,-14.0,53.0,-939.0,414.0
25.0,-227.0,101.0,41.0,12.0,-13.0,53.0,-941.0,417.0
23.0,-224.0,99.0,44.0,11.0,-14.0,58.0,-942.0,420.0
22.0,-226.0,99.0,48.0,12.0,-15.0,55.0,-942.0,422.0
27.0,-225.0,101.0,51.0,12.0,-16.0,61.0,-939.0,425.0
28.0,-227.0,101.0,54.0,11.0,-16.0,58.0,-940.0,417.0
20.0,-226.0,104.0,58.0,10.0,-15.0,55.0,-939.0,415.0
27.0,-226.0,97.0,61.0,11.0,-14.0,58.0,-933.0,414.0
24.0,-226.0,102.0,63.0,13.0,-13.0,59.0,-939.0,417.0
25.0,-230.0,100.0,65.0,14.0,-13.0,57.0,-935.0,419.0
23.0,-224.0,101.0,66.0,14.0,-14.0,55.0,-928.0,419.0
21.0,-223.0,98.0,67.0,14.0,-14.0,55.0,-928.0,415.0
21.0,-223.0,102.0,66.0,15.0,-13.0,51.0,-930.0,416.0
23.0,-222.0,98.0,64.0,16.0,-12.0,48.0,-933.0,423.0
26.0,-225.0,98.0,62.0,18.0,-13.0,55.0,-929.0,422.0
24.0,-226.0,100.0,60.0,17.0,-12.0,57.0,-932.0,417.0
22.0,-223.0,98.0,57.0,16.0,-10.0,58.0,-935.0,430.0
22.0,-226.0,104.0,55.0,18.0,-11.0,58.0,-931.0,421.0
22.0,-224.0,102.0,52.0,20.0,-10.0,57.0,-931.0,417.0
23.0,-223.0,101.0,52.0,21.0,-9.0,57.0,-926.0,415.0
23.0,-224.0,101.0,51.0,20.0,-6.0,54.0,-935.0,415.0
21.0,-224.0,103.0,50.0,18.0,-6.0,60.0,-941.0,416.0
22.0,-224.0,104.0,52.0,15.0,-7.0,61.0,-937.0,426.0
25.0,-227.0,100.0,53.0,14.0,-7.0,56.0,-935.0,422.0
24.0,-225.0,96.0,56.0,13.0,-9.0,57.0,-942.0,421.0
24.0,-227.0,99.0,57.0,12.0,-9.0,58.0,-936.0,422.0
22.0,-227.0,100.0,60.0,11.0,-11.0,50.0,-938.0,418.0
23.0,-224.0,98.0,60.0,11.0,-11.0,53.0,-940.0,415.0
21.0,-224.0,101.0,63.0,9.0,-12.0,53.0,-936.0,424.0
25.0,-229.0,102.0,62.0,9.0,-12.0,49.0,-936.0,418.0
20.0,-224.0,101.0,62.0,9.0,-11.0,54.0,-938.0,422.0
23.0,-227.0,106.0,62.0,10.0,-10.0,53.0,-932.0,416.0
26.0,-227.0,104.0,61.0,12.0,-8.0,56.0,-931.0,420.0
22.0,-225.0,98.0,59.0,13.0,-9.0,59.0,-934.0,417.0
22.0,-224.0,100.0,59.0,16.0,-9.0,58.0,-931.0,413.0
26.0,-227.0,100.0,57.0,18.0,-8.0,58.0,-934.0,415.0
24.0,-222.0,101.0,55.0,21.0,-9.0,55.0,-931.0,415.0
25.0,-224.0,101.0,54.0,23.0,-10.0,55.0,-932.0,413.0
22.0,-224.0,98.0,53.0,21.0,-6.0,53.0,-933.0,417.0
22.0,-222.0,99.0,53.0,19.0,-9.0,51.0,-934.0,415.0
21.0,-225.0,100.0,50.0,17.0,-6.0,53.0,-933.0,419.0
23.0,-222.0,102.0,50.0,16.0,-6.0,51.0,-934.0,425.0
20.0,-220.0,90.0,51.0,16.0,-8.0,57.0,-933.0,420.0
24.0,-226.0,103.0,52.0,16.0,-7.0,51.0,-934.0,419.0
25.0,-226.0,100.0,53.0,14.0,-9.0,56.0,-937.0,424.0
24.0,-223.0,98.0,55.0,16.0,-8.0,58.0,-935.0,425.0
24.0,-226.0,102.0,57.0,17.0,-9.0,63.0,-934.0,422.0
24.0,-225.0,102.0,59.0,16.0,-9.0,56.0,-939.0,425.0
24.0,-227.0,100.0,61.0,13.0,-10.0,55.0,-930.0,416.0
22.0,-225.0,96.0,62.0,14.0,-11.0,53.0,-930.0,425.0
25.0,-231.0,98.0,60.0,13.0,-12.0,53.0,-933.0,415.0
23.0,-225.0,98.0,60.0,16.0,-11.0,57.0,-927.0,415.0
23.0,-224.0,99.0,58.0,15.0,-11.0,53.0,-933.0,416.0
21.0,-225.0,99.0,58.0,14.0,-11.0,52.0,-931.0,422.0
19.0,-223.0,103.0,57.0,11.0,-11.0,57.0,-932.0,422.0
22.0,-224.0,100.0,59.0,9.0,-9.0,53.0,-935.0,421.0
25.0,-224.0,99.0,59.0,8.0,-8.0,55.0,-934.0,423.0
26.0,-227.0,101.0,61.0,7.0,-6.0,54.0,-931.0,422.0
25.0,-223.0,101.0,63.0,6.0,-5.0,58.0,-931.0,429.0
24.0,-222.0,101.0,63.0,8.0,-7.0,53.0,-932.0,427.0
23.0,-225.0,105.0,62.0,9.0,-9.0,52.0,-930.0,434.0
25.0,-225.0,105.0,59.0,10.0,-8.0,54.0,-932.0,423.0
21.0,-223.0,107.0,58.0,9.0,-5.0,51.0,-932.0,422.0
24.0,-227.0,103.0,55.0,9.0,-5.0,57.0,-935.0,424.0
24.0,-226.0,97.0,52.0,8.0,-4.0,56.0,-933.0,422.0
23.0,-226.0,98.0,50.0,9.0,-5.0,55.0,-936.0,416.0
23.0,-224.0,99.0,49.0,8.0,-4.0,53.0,-933.0,422.0
24.0,-226.0,100.0,48.0,6.0,-4.0,52.0,-935.0,418.0
23.0,-226.0,101.0,48.0,6.0,-4.0,50.0,-939.0,424.0
25.0,-228.0,100.0,52.0,6.0,-5.0,55.0,-938.0,422.0
23.0,-226.0,103.0,54.0,8.0,-5.0,54.0,-941.0,417.0
21.0,-226.0,106.0,59.0,8.0,-6.0,53.0,-940.0,423.0
24.0,-225.0,100.0,65.0,7.0,-8.0,54.0,-935.0,424.0
22.0,-224.0,101.0,70.0,6.0,-11.0,55.0,-938.0,431.0
22.0,-224.0,101.0,76.0,8.0,-11.0,55.0,-939.0,423.0
24.0,-225.0,101.0,78.0,9.0,-12.0,47.0,-933.0,427.0
23.0,-223.0,102.0,78.0,10.0,-13.0,50.0,-928.0,429.0
25.0,-225.0,100.0,75.0,11.0,-12.0,50.0,-925.0,429.0
25.0,-225.0,100.0,70.0,14.0,-11.0,53.0,-925.0,422.0
23.0,-223.0,101.0,65.0,14.0,-11.0,47.0,-925.0,417.0
24.0,-222.0,101.0,60.0,16.0,-10.0,50.0,-930.0,429.0
23.0,-221.0,102.0,55.0,17.0,-9.0,58.0,-922.0,420.0
22.0,-223.0,101.0,51.0,17.0,-7.0,56.0,-930.0,412.0
24.0,-225.0,101.0,50.0,16.0,-7.0,56.0,-932.0,427.0
24.0,-224.0,105.0,47.0,14.0,-5.0,54.0,-931.0,427.0
19.0,-226.0,100.0,47.0,12.0,-7.0,53.0,-934.0,427.0
23.0,-224.0,104.0,48.0,11.0,-7.0,57.0,-931.0,419.0
23.0,-225.0,101.0,47.0,11.0,-9.0,57.0,-938.0,416.0
23.0,-225.0,103.0,44.0,12.0,-9.0,58.0,-936.0,416.0
23.0,-226.0,98.0,46.0,13.0,-9.0,55.0,-936.0,417.0
25.0,-228.0,98.0,47.0,12.0,-10.0,57.0,-938.0,422.0
24.0,-228.0,101.0,50.0,11.0,-10.0,57.0,-938.0,422.0
23.0,-229.0,96.0,52.0,9.0,-9.0,53.0,-938.0,412.0
23.0,-225.0,101.0,55.0,11.0,-10.0,55.0,-933.0,416.0
24.0,-228.0,102.0,56.0,10.0,-9.0,57.0,-938.0,422.0
25.0,-230.0,98.0,60.0,10.0,-10.0,51.0,-934.0,419.0
30.0,-222.0,100.0,59.0,9.0,-11.0,52.0,-934.0,421.0
23.0,-224.0,102.0,58.0,12.0,-10.0,51.0,-934.0,417.0
25.0,-225.0,102.0,56.0,11.0,-9.0,48.0,-931.0,425.0
22.0,-223.0,103.0,54.0,9.0,-6.0,50.0,-930.0,416.0
22.0,-224.0,104.0,53.0,8.0,-6.0,51.0,-934.0,426.0
21.0,-227.0,104.0,52.0,10.0,-5.0,52.0,-932.0,429.0
23.0,-226.0,98.0,52.0,11.0,-7.0,48.0,-937.0,432.0
22.0,-226.0,105.0,52.0,13.0,-8.0,52.0,-936.0,433.0
25.0,-225.0,101.0,54.0,15.0,-9.0,52.0,-932.0,423.0
28.0,-226.0,103.0,56.0,17.0,-12.0,54.0,-932.0,429.0
25.0,-222.0,101.0,57.0,17.0,-14.0,54.0,-936.0,423.0
20.0,-231.0,99.0,57.0,19.0,-15.0,49.0,-930.0,417.0
24.0,-225.0,99.0,56.0,21.0,-15.0,45.0,-930.0,427.0
23.0,-221.0,103.0,55.0,23.0,-14.0,54.0,-934.0,427.0
22.0,-222.0,101.0,54.0,20.0,-12.0,58.0,-935.0,428.0
23.0,-226.0,103.0,55.0,16.0,-10.0,52.0,-934.0,425.0
25.0,-227.0,100.0,57.0,13.0,-9.0,55.0,-932.0,432.0
24.0,-224.0,102.0,59.0,11.0,-7.0,50.0,-931.0,429.0
25.0,-224.0,98.0,61.0,10.0,-8.0,56.0,-937.0,431.0
23.0,-226.0,104.0,63.0,7.0,-6.0,61.0,-934.0,416.0
25.0,-224.0,104.0,62.0,8.0,-7.0,60.0,-931.0,426.0
23.0,-227.0,101.0,65.0,8.0,-7.0,59.0,-933.0,421.0
18.0,-226.0,99.0,66.0,7.0,-10.0,58.0,-937.0,423.0
27.0,-227.0,105.0,70.0,9.0,-11.0,54.0,-936.0,424.0
25.0,-225.0,100.0,73.0,8.0,-10.0,58.0,-934.0,435.0
24.0,-223.0,99.0,78.0,10.0,-12.0,55.0,-933.0,423.0
22.0,-224.0,99.0,80.0,12.0,-14.0,44.0,-935.0,436.0
22.0,-222.0,101.0,82.0,13.0,-13.0,54.0,-935.0,422.0
23.0,-225.0,101.0,84.0,12.0,-11.0,53.0,-933.0,423.0
25.0,-222.0,99.0,83.0,14.0,-12.0,58.0,-936.0,419.0
22.0,-222.0,103.0,82.0,16.0,-11.0,55.0,-930.0,425.0
30.0,-223.0,104.0,80.0,18.0,-12.0,56.0,-930.0,419.0
23.0,-224.0,97.0,77.0,21.0,-16.0,59.0,-926.0,412.0
23.0,-223.0,97.0,73.0,24.0,-16.0,58.0,-930.0,423.0
19.0,-221.0,98.0,68.0,27.0,-16.0,52.0,-927.0,418.0
22.0,-226.0,102.0,63.0,26.0,-15.0,59.0,-929.0,422.0
22.0,-222.0,100.0,57.0,22.0,-13.0,55.0,-931.0,425.0
24.0,-224.0,101.0,50.0,20.0,-11.0,55.0,-930.0,414.0
21.0,-222.0,99.0,44.0,17.0,-9.0,56.0,-933.0,429.0
24.0,-225.0,102.0,43.0,14.0,-8.0,58.0,-935.0,417.0
25.0,-225.0,100.0,42.0,12.0,-8.0,61.0,-933.0,423.0
27.0,-225.0,106.0,42.0,12.0,-9.0,59.0,-934.0,426.0
25.0,-226.0,105.0,44.0,11.0,-8.0,55.0,-934.0,424.0
23.0,-224.0,100.0,45.0,9.0,-11.0,55.0,-945.0,430.0
24.0,-227.0,102.0,48.0,7.0,-11.0,54.0,-937.0,423.0
26.0,-226.0,104.0,52.0,7.0,-12.0,49.0,-937.0,422.0
23.0,-226.0,98.0,55.0,6.0,-10.0,52.0,-938.0,426.0
23.0,-225.0,101.0,57.0,6.0,-10.0,47.0,-933.0,424.0
23.0,-227.0,100.0,60.0,8.0,-9.0,55.0,-938.0,425.0
23.0,-222.0,100.0,60.0,7.0,-10.0,53.0,-930.0,424.0
21.0,-222.0,101.0,60.0,8.0,-8.0,50.0,-930.0,427.0
22.0,-219.0,100.0,59.0,10.0,-8.0,43.0,-924.0,427.0
21.0,-223.0,99.0,58.0,12.0,-7.0,55.0,-933.0,422.0
24.0,-223.0,98.0,55.0,13.0,-8.0,45.0,-928.0,428.0
29.0,-225.0,100.0,53.0,15.0,-9.0,51.0,-931.0,424.0
18.0,-226.0,104.0,52.0,16.0,-11.0,52.0,-929.0,422.0
23.0,-225.0,103.0,53.0,15.0,-9.0,53.0,-927.0,435.0
23.0,-227.0,102.0,55.0,15.0,-12.0,50.0,-929.0,435.0
23.0,-223.0,100.0,57.0,13.0,-11.0,54.0,-932.0,434.0
23.0,-226.0,102.0,58.0,14.0,-12.0,53.0,-929.0,437.0
22.0,-223.0,103.0,60.0,12.0,-12.0,49.0,-926.0,433.0
25.0,-223.0,100.0,60.0,12.0,-12.0,52.0,-930.0,436.0
21.0,-223.0,104.0,59.0,11.0,-11.0,56.0,-932.0,426.0
23.0,-226.0,103.0,57.0,10.0,-11.0,49.0,-928.0,430.0
23.0,-226.0,101.0,56.0,11.0,-9.0,57.0,-924.0,429.0
22.0,-225.0,104.0,54.0,10.0,-11.0,56.0,-931.0,429.0
19.0,-228.0,100.0,53.0,10.0,-14.0,58.0,-931.0,432.0
24.0,-224.0,104.0,50.0,10.0,-12.0,55.0,-934.0,429.0
25.0,-227.0,98.0,50.0,12.0,-12.0,59.0,-933.0,428.0
23.0,-223.0,103.0,51.0,11.0,-14.0,55.0,-931.0,434.0
25.0,-223.0,98.0,52.0,9.0,-13.0,58.0,-933.0,435.0
22.0,-223.0,102.0,55.0,10.0,-12.0,53.0,-931.0,430.0
24.0,-223.0,103.0,56.0,10.0,-10.0,58.0,-930.0,427.0
22.0,-223.0,99.0,57.0,11.0,-7.0,55.0,-930.0,423.0
20.0,-222.0,100.0,55.0,12.0,-6.0,58.0,-930.0,423.0
23.0,-223.0,103.0,54.0,12.0,-6.0,61.0,-931.0,424.0
25.0,-224.0,101.0,53.0,13.0,-7.0,54.0,-931.0,423.0
28.0,-225.0,96.0,51.0,17.0,-8.0,55.0,-934.0,420.0
24.0,-225.0,99.0,49.0,17.0,-8.0,52.0,-930.0,422.0
23.0,-226.0,101.0,50.0,17.0,-9.0,58.0,-935.0,429.0
24.0,-222.0,101.0,51.0,17.0,-8.0,54.0,-931.0,422.0
24.0,-227.0,100.0,54.0,15.0,-10.0,50.0,-933.0,425.0
23.0,-228.0,101.0,58.0,14.0,-8.0,58.0,-938.0,430.0
22.0,-223.0,101.0,62.0,12.0,-8.0,55.0,-937.0,417.0
21.0,-225.0,98.0,67.0,12.0,-8.0,54.0,-934.0,426.0
23.0,-224.0,103.0,71.0,13.0,-9.0,53.0,-933.0,424.0
24.0,-225.0,103.0,73.0,14.0,-10.0,51.0,-930.0,426.0
23.0,-225.0,97.0,73.0,16.0,-12.0,54.0,-930.0,423.0
21.0,-223.0,103.0,70.0,18.0,-14.0,51.0,-930.0,418.0
23.0,-221.0,101.0,66.0,21.0,-13.0,49.0,-930.0,411.0
22.0,-220.0,101.0,62.0,21.0,-11.0,54.0,-927.0,422.0
24.0,-224.0,103.0,58.0,18.0,-11.0,57.0,-928.0,415.0
20.0,-220.0,99.0,56.0,18.0,-9.0,49.0,-934.0,422.0
22.0,-224.0,102.0,52.0,18.0,-10.0,55.0,-931.0,429.0
24.0,-225.0,101.0,52.0,18.0,-10.0,59.0,-937.0,428.0
25.0,-226.0,102.0,51.0,18.0,-11.0,55.0,-934.0,418.0
23.0,-227.0,105.0,52.0,17.0,-10.0,51.0,-935.0,427.0
22.0,-224.0,100.0,53.0,17.0,-12.0,52.0,-936.0,437.0
25.0,-226.0,96.0,53.0,16.0,-13.0,58.0,-937.0,422.0
25.0,-225.0,100.0,55.0,15.0,-10.0,60.0,-940.0,431.0
23.0,-227.0,102.0,56.0,14.0,-9.0,58.0,-935.0,431.0
23.0,-225.0,101.0,58.0,13.0,-7.0,57.0,-938.0,434.0
27.0,-227.0,103.0,60.0,10.0,-6.0,59.0,-935.0,423.0
25.0,-225.0,109.0,63.0,10.0,-7.0,52.0,-934.0,424.0
25.0,-225.0,102.0,67.0,8.0,-6.0,56.0,-935.0,429.0
22.0,-221.0,100.0,68.0,7.0,-9.0,55.0,-932.0,429.0
22.0,-224.0,102.0,70.0,7.0,-8.0,50.0,-930.0,428.0
23.0,-221.0,101.0,68.0,8.0,-8.0,53.0,-926.0,422.0
24.0,-226.0,97.0,66.0,9.0,-8.0,51.0,-930.0,423.0
24.0,-229.0,102.0,64.0,10.0,-10.0,49.0,-932.0,427.0
22.0,-222.0,99.0,63.0,13.0,-9.0,56.0,-928.0,434.0
22.0,-223.0,103.0,59.0,14.0,-10.0,54.0,-929.0,438.0
23.0,-224.0,103.0,62.0,16.0,-11.0,52.0,-930.0,440.0
24.0,-224.0,104.0,65.0,16.0,-14.0,50.0,-937.0,435.0
23.0,-223.0,105.0,67.0,16.0,-12.0,54.0,-931.0,436.0
23.0,-225.0,100.0,69.0,16.0,-13.0,47.0,-932.0,440.0
23.0,-220.0,96.0,71.0,17.0,-14.0,52.0,-928.0,427.0
26.0,-225.0,102.0,70.0,17.0,-15.0,49.0,-928.0,429.0
23.0,-222.0,104.0,67.0,18.0,-12.0,51.0,-923.0,434.0
23.0,-220.0,105.0,65.0,16.0,-12.0,48.0,-930.0,432.0
32.0,-224.0,97.0,60.0,15.0,-12.0,56.0,-930.0,438.0
24.0,-223.0,105.0,57.0,14.0,-13.0,55.0,-927.0,437.0
24.0,-227.0,102.0,57.0,11.0,-12.0,49.0,-931.0,432.0
24.0,-228.0,99.0,58.0,9.0,-9.0,54.0,-936.0,429.0
23.0,-220.0,101.0,60.0,9.0,-9.0,57.0,-930.0,421.0
24.0,-226.0,99.0,60.0,9.0,-10.0,61.0,-930.0,423.0
23.0,-221.0,97.0,59.0,13.0,-10.0,58.0,-929.0,419.0
22.0,-222.0,105.0,59.0,15.0,-8.0,58.0,-928.0,426.0
28.0,-222.0,100.0,57.0,15.0,-9.0,55.0,-927.0,419.0
22.0,-222.0,100.0,56.0,15.0,-7.0,62.0,-926.0,438.0
22.0,-223.0,101.0,54.0,14.0,-6.0,53.0,-928.0,428.0
25.0,-222.0,96.0,52.0,13.0,-7.0,56.0,-933.0,437.0
22.0,-224.0,102.0,53.0,13.0,-6.0,56.0,-931.0,434.0
24.0,-223.0,102.0,55.0,13.0,-8.0,56.0,-932.0,443.0
23.0,-225.0,104.0,58.0,14.0,-9.0,56.0,-935.0,440.0
22.0,-223.0,103.0,61.0,15.0,-12.0,51.0,-933.0,441.0
21.0,-228.0,104.0,64.0,15.0,-12.0,55.0,-935.0,438.0
22.0,-225.0,104.0,64.0,15.0,-13.0,52.0,-929.0,438.0
24.0,-222.0,103.0,66.0,15.0,-11.0,50.0,-926.0,432.0
24.0,-223.0,106.0,66.0,15.0,-12.0,52.0,-931.0,438.0
23.0,-221.0,108.0,67.0,13.0,-11.0,47.0,-929.0,433.0
23.0,-221.0,101.0,64.0,12.0,-10.0,55.0,-927.0,433.0
20.0,-223.0,99.0,61.0,11.0,-8.0,49.0,-926.0,428.0
21.0,-225.0,102.0,59.0,11.0,-9.0,50.0,-927.0,423.0
21.0,-224.0,100.0,57.0,10.0,-9.0,46.0,-926.0,425.0
20.0,-222.0,104.0,56.0,10.0,-10.0,53.0,-931.0,434.0
22.0,-222.0,101.0,55.0,9.0,-10.0,48.0,-930.0,425.0
23.0,-226.0,103.0,55.0,10.0,-11.0,53.0,-929.0,431.0
24.0,-223.0,103.0,58.0,10.0,-9.0,55.0,-933.0,436.0
24.0,-223.0,101.0,61.0,12.0,-14.0,54.0,-934.0,439.0
25.0,-224.0,100.0,63.0,13.0,-13.0,48.0,-931.0,429.0
21.0,-222.0,105.0,64.0,16.0,-13.0,48.0,-931.0,430.0
23.0,-224.0,104.0,66.0,19.0,-13.0,56.0,-933.0,431.0
27.0,-220.0,104.0,66.0,19.0,-10.0,55.0,-933.0,430.0
26.0,-224.0,105.0,66.0,17.0,-11.0,53.0,-936.0,418.0
22.0,-225.0,104.0,66.0,16.0,-8.0,55.0,-933.0,422.0
24.0,-221.0,102.0,64.0,15.0,-8.0,58.0,-933.0,427.0
22.0,-225.0,102.0,63.0,16.0,-8.0,58.0,-933.0,432.0
28.0,-225.0,101.0,60.0,19.0,-10.0,59.0,-933.0,421.0
24.0,-223.0,98.0,59.0,21.0,-13.0,55.0,-932.0,426.0
22.0,-224.0,101.0,56.0,24.0,-14.0,59.0,-930.0,424.0
25.0,-227.0,102.0,56.0,22.0,-14.0,54.0,-928.0,428.0
21.0,-221.0,100.0,54.0,20.0,-11.0,53.0,-928.0,432.0
20.0,-223.0,102.0,51.0,17.0,-10.0,54.0,-929.0,433.0
19.0,-222.0,96.0,48.0,16.0,-10.0,53.0,-930.0,423.0
23.0,-221.0,100.0,44.0,14.0,-8.0,58.0,-930.0,432.0
25.0,-224.0,103.0,42.0,13.0,-10.0,44.0,-933.0,437.0
23.0,-225.0,103.0,42.0,13.0,-11.0,52.0,-934.0,438.0
20.0,-222.0,104.0,43.0,12.0,-11.0,53.0,-933.0,436.0
22.0,-225.0,102.0,43.0,13.0,-12.0,55.0,-927.0,429.0
22.0,-223.0,104.0,44.0,11.0,-11.0,50.0,-933.0,433.0
27.0,-224.0,104.0,46.0,11.0,-11.0,53.0,-934.0,439.0
21.0,-223.0,104.0,50.0,11.0,-12.0,45.0,-931.0,434.0
25.0,-223.0,100.0,52.0,12.0,-11.0,51.0,-930.0,432.0
25.0,-223.0,99.0,53.0,11.0,-11.0,57.0,-925.0,432.0
20.0,-222.0,98.0,51.0,10.0,-11.0,45.0,-927.0,423.0
23.0,-224.0,105.0,51.0,10.0,-11.0,47.0,-927.0,428.0
21.0,-224.0,100.0,49.0,10.0,-9.0,51.0,-929.0,438.0
22.0,-221.0,106.0,47.0,9.0,-8.0,50.0,-929.0,432.0
23.0,-223.0,103.0,46.0,11.0,-9.0,53.0,-927.0,441.0
20.0,-222.0,102.0,44.0,10.0,-10.0,52.0,-922.0,440.0
20.0,-224.0,105.0,45.0,11.0,-11.0,46.0,-929.0,432.0
22.0,-224.0,101.0,44.0,13.0,-12.0,49.0,-924.0,435.0
23.0,-224.0,106.0,46.0,13.0,-12.0,48.0,-922.0,443.0
18.0,-222.0,103.0,46.0,16.0,-15.0,56.0,-926.0,439.0
28.0,-223.0,105.0,47.0,16.0,-14.0,47.0,-930.0,442.0
24.0,-225.0,104.0,48.0,17.0,-16.0,53.0,-931.0,438.0
22.0,-222.0,102.0,50.0,17.0,-17.0,53.0,-931.0,436.0
24.0,-222.0,104.0,52.0,17.0,-20.0,54.0,-931.0,439.0
24.0,-222.0,102.0,53.0,17.0,-20.0,50.0,-923.0,430.0
23.0,-223.0,103.0,52.0,16.0,-22.0,52.0,-926.0,430.0
22.0,-219.0,100.0,48.0,12.0,-21.0,50.0,-922.0,432.0
17.0,-217.0,103.0,41.0,7.0,-23.0,44.0,-921.0,424.0
21.0,-219.0,102.0,34.0,3.0,-24.0,45.0,-922.0,427.0
15.0,-217.0,102.0,24.0,1.0,-24.0,41.0,-926.0,427.0
19.0,-220.0,104.0,16.0,3.0,-26.0,40.0,-920.0,435.0
23.0,-226.0,101.0,11.0,7.0,-29.0,50.0,-921.0,448.0
21.0,-224.0,106.0,9.0,12.0,-29.0,44.0,-930.0,437.0
24.0,-224.0,106.0,10.0,14.0,-33.0,50.0,-928.0,443.0
24.0,-225.0,106.0,14.0,18.0,-33.0,53.0,-932.0,442.0
24.0,-223.0,104.0,16.0,21.0,-31.0,55.0,-930.0,442.0
20.0,-224.0,106.0,18.0,22.0,-29.0,52.0,-929.0,438.0
25.0,-224.0,107.0,20.0,23.0,-30.0,53.0,-937.0,440.0
24.0,-225.0,108.0,18.0,24.0,-27.0,55.0,-937.0,434.0
24.0,-225.0,102.0,15.0,28.0,-27.0,53.0,-926.0,439.0
23.0,-223.0,102.0,15.0,31.0,-26.0,57.0,-927.0,425.0
25.0,-224.0,102.0,12.0,31.0,-26.0,54.0,-925.0,424.0
28.0,-222.0,101.0,6.0,30.0,-24.0,63.0,-926.0,429.0
25.0,-222.0,103.0,1.0,28.0,-25.0,60.0,-923.0,420.0
25.0,-224.0,103.0,-4.0,25.0,-23.0,67.0,-928.0,424.0
26.0,-224.0,105.0,-8.0,24.0,-21.0,61.0,-927.0,426.0
26.0,-224.0,100.0,-11.0,23.0,-20.0,64.0,-924.0,428.0
26.0,-224.0,106.0,-11.0,20.0,-17.0,67.0,-935.0,427.0
28.0,-225.0,105.0,-9.0,18.0,-15.0,68.0,-929.0,425.0
25.0,-225.0,101.0,-5.0,16.0,-13.0,68.0,-936.0,436.0
29.0,-223.0,100.0,3.0,13.0,-8.0,66.0,-936.0,423.0
28.0,-227.0,100.0,10.0,11.0,-8.0,65.0,-940.0,429.0
26.0,-222.0,99.0,18.0,8.0,-7.0,61.0,-937.0,422.0
23.0,-225.0,101.0,24.0,6.0,-7.0,59.0,-939.0,416.0
23.0,-227.0,99.0,28.0,5.0,-6.0,59.0,-937.0,422.0
24.0,-225.0,101.0,29.0,5.0,-6.0,55.0,-935.0,420.0
25.0,-224.0,100.0,27.0,6.0,-5.0,57.0,-927.0,420.0
27.0,-227.0,101.0,25.0,10.0,-6.0,54.0,-929.0,417.0
25.0,-225.0,98.0,24.0,16.0,-8.0,53.0,-935.0,422.0
22.0,-224.0,101.0,21.0,19.0,-8.0,55.0,-932.0,417.0
20.0,-224.0,104.0,19.0,20.0,-9.0,56.0,-933.0,423.0
23.0,-224.0,102.0,19.0,16.0,-9.0,59.0,-936.0,430.0
24.0,-223.0,103.0,20.0,16.0,-7.0,57.0,-938.0,431.0
29.0,-227.0,102.0,21.0,14.0,-8.0,55.0,-941.0,425.0
20.0,-222.0,96.0,27.0,14.0,-6.0,54.0,-939.0,429.0
23.0,-223.0,102.0,29.0,12.0,-9.0,53.0,-938.0,416.0
