acc1_x,acc1_y,acc1_z,gyro_x,gyro_y,gyro_z,acc2_x,acc2_y,acc2_z
17.0,-245.0,10.0,50.0,9.0,-10.0,42.0,-1014.0,58.0
15.0,-247.0,13.0,48.0,9.0,-10.0,41.0,-1012.0,52.0
17.0,-251.0,11.0,46.0,8.0,-10.0,38.0,-1010.0,57.0
20.0,-247.0,9.0,44.0,8.0,-11.0,42.0,-1012.0,53.0
16.0,-246.0,6.0,44.0,8.0,-10.0,42.0,-1015.0,53.0
14.0,-243.0,3.0,43.0,9.0,-10.0,41.0,-1021.0,51.0
14.0,-247.0,13.0,45.0,11.0,-11.0,35.0,-1020.0,54.0
16.0,-248.0,15.0,47.0,11.0,-13.0,37.0,-1018.0,49.0
14.0,-252.0,12.0,48.0,13.0,-13.0,30.0,-1020.0,46.0
17.0,-247.0,14.0,49.0,13.0,-13.0,33.0,-1016.0,51.0
18.0,-251.0,12.0,50.0,13.0,-11.0,32.0,-1022.0,51.0
13.0,-246.0,12.0,51.0,13.0,-13.0,37.0,-1025.0,54.0
16.0,-249.0,13.0,51.0,12.0,-13.0,33.0,-1020.0,45.0
14.0,-248.0,8.0,52.0,12.0,-12.0,35.0,-1020.0,48.0
14.0,-250.0,13.0,53.0,13.0,-12.0,34.0,-1020.0,53.0
14.0,-250.0,7.0,53.0,12.0,-12.0,33.0,-1018.0,50.0
18.0,-237.0,7.0,53.0,12.0,-11.0,33.0,-1016.0,55.0
15.0,-247.0,8.0,55.0,11.0,-14.0,39.0,-1020.0,50.0
18.0,-248.0,10.0,56.0,12.0,-12.0,40.0,-1016.0,54.0
18.0,-251.0,13.0,58.0,15.0,-12.0,39.0,-1019.0,58.0
19.0,-248.0,10.0,59.0,14.0,-11.0,37.0,-1021.0,51.0
18.0,-248.0,13.0,60.0,14.0,-14.0,37.0,-1016.0,56.0
19.0,-247.0,9.0,59.0,14.0,-15.0,37.0,-1020.0,57.0
16.0,-244.0,16.0,59.0,14.0,-13.0,41.0,-1018.0,58.0
15.0,-246.0,11.0,58.0,13.0,-14.0,40.0,-1014.0,53.0
19.0,-247.0,8.0,57.0,13.0,-12.0,39.0,-1015.0,57.0
22.0,-250.0,10.0,54.0,12.0,-12.0,39.0,-1018.0,56.0
15.0,-245.0,10.0,55.0,10.0,-11.0,37.0,-1010.0,52.0
16.0,-244.0,11.0,54.0,9.0,-10.0,38.0,-1018.0,55.0
16.0,-248.0,16.0,52.0,9.0,-10.0,37.0,-1015.0,55.0
16.0,-246.0,11.0,52.0,7.0,-9.0,33.0,-1013.0,54.0
15.0,-244.0,12.0,51.0,7.0,-10.0,32.0,-1013.0,55.0
15.0,-247.0,9.0,49.0,8.0,-10.0,34.0,-1023.0,52.0
12.0,-244.0,11.0,48.0,8.0,-10.0,37.0,-1017.0,58.0
19.0,-251.0,11.0,50.0,9.0,-10.0,30.0,-1020.0,57.0
14.0,-246.0,9.0,49.0,9.0,-12.0,27.0,-1020.0,51.0
18.0,-247.0,12.0,49.0,9.0,-12.0,33.0,-1015.0,52.0
17.0,-250.0,5.0,49.0,9.0,-12.0,36.0,-1016.0,48.0
15.0,-249.0,11.0,48.0,9.0,-12.0,33.0,-1016.0,53.0
15.0,-248.0,9.0,48.0,11.0,-13.0,35.0,-1018.0,47.0
18.0,-248.0,7.0,47.0,11.0,-12.0,35.0,-1019.0,55.0
15.0,-249.0,7.0,47.0,10.0,-13.0,39.0,-1019.0,46.0
16.0,-247.0,7.0,48.0,10.0,-11.0,39.0,-1021.0,47.0
16.0,-247.0,16.0,49.0,12.0,-12.0,40.0,-1008.0,48.0
16.0,-251.0,11.0,51.0,11.0,-12.0,39.0,-1015.0,58.0
17.0,-249.0,10.0,53.0,11.0,-12.0,42.0,-1016.0,55.0
16.0,-243.0,11.0,53.0,10.0,-13.0,39.0,-1015.0,50.0
20.0,-252.0,9.0,55.0,9.0,-14.0,38.0,-1015.0,55.0
18.0,-247.0,6.0,54.0,8.0,-14.0,35.0,-1017.0,50.0
17.0,-249.0,11.0,52.0,6.0,-13.0,36.0,-1015.0,48.0
17.0,-250.0,13.0,53.0,4.0,-11.0,36.0,-1019.0,53.0
17.0,-249.0,11.0,53.0,3.0,-12.0,36.0,-1025.0,42.0
16.0,-249.0,9.0,57.0,4.0,-10.0,41.0,-1022.0,49.0
16.0,-250.0,7.0,59.0,6.0,-10.0,31.0,-1024.0,49.0
17.0,-250.0,10.0,63.0,8.0,-11.0,37.0,-1025.0,46.0
16.0,-251.0,11.0,63.0,9.0,-9.0,31.0,-1030.0,51.0
15.0,-248.0,6.0,62.0,8.0,-9.0,30.0,-1025.0,49.0
18.0,-249.0,8.0,61.0,7.0,-8.0,33.0,-1023.0,57.0
14.0,-253.0,13.0,65.0,6.0,-6.0,32.0,-1033.0,52.0
17.0,-251.0,12.0,73.0,5.0,-4.0,36.0,-1036.0,61.0
17.0,-252.0,12.0,86.0,3.0,-3.0,35.0,-1040.0,58.0
17.0,-252.0,11.0,104.0,2.0,-2.0,36.0,-1035.0,55.0
18.0,-253.0,6.0,120.0,2.0,-2.0,41.0,-1029.0,46.0
21.0,-251.0,10.0,131.0,6.0,-1.0,45.0,-1026.0,42.0
18.0,-247.0,7.0,135.0,12.0,-2.0,49.0,-1016.0,39.0
17.0,-246.0,9.0,133.0,17.0,-2.0,48.0,-1019.0,37.0
23.0,-240.0,9.0,127.0,23.0,-5.0,53.0,-1004.0,44.0
19.0,-243.0,13.0,120.0,27.0,-6.0,41.0,-1003.0,46.0
17.0,-244.0,7.0,109.0,30.0,-6.0,42.0,-1000.0,48.0
19.0,-241.0,13.0,98.0,34.0,-9.0,44.0,-999.0,50.0
18.0,-241.0,10.0,87.0,36.0,-9.0,45.0,-997.0,54.0
21.0,-241.0,11.0,76.0,38.0,-9.0,40.0,-992.0,62.0
19.0,-243.0,13.0,66.0,37.0,-10.0,38.0,-995.0,61.0
17.0,-245.0,13.0,57.0,36.0,-8.0,39.0,-997.0,61.0
16.0,-242.0,14.0,49.0,36.0,-7.0,36.0,-994.0,64.0
14.0,-241.0,20.0,42.0,36.0,-7.0,37.0,-1004.0,59.0
13.0,-242.0,13.0,35.0,34.0,-5.0,33.0,-1000.0,69.0
12.0,-244.0,14.0,27.0,35.0,-5.0,28.0,-1006.0,72.0
13.0,-243.0,11.0,19.0,34.0,-4.0,33.0,-1010.0,65.0
12.0,-244.0,9.0,12.0,32.0,-2.0,31.0,-1012.0,63.0
16.0,-248.0,13.0,5.0,30.0,-1.0,35.0,-1020.0,59.0
16.0,-248.0,14.0,-1.0,30.0,1.0,35.0,-1016.0,58.0
16.0,-248.0,11.0,-4.0,30.0,1.0,33.0,-1027.0,50.0
15.0,-247.0,14.0,-6.0,31.0,0.0,37.0,-1015.0,56.0
18.0,-249.0,13.0,-5.0,32.0,0.0,37.0,-1027.0,54.0
16.0,-251.0,15.0,-2.0,34.0,0.0,40.0,-1026.0,52.0
18.0,-245.0,6.0,1.0,36.0,-2.0,41.0,-1023.0,53.0
18.0,-252.0,9.0,6.0,39.0,-4.0,43.0,-1022.0,56.0
16.0,-251.0,10.0,8.0,42.0,-4.0,40.0,-1022.0,54.0
19.0,-249.0,14.0,10.0,43.0,-7.0,50.0,-1017.0,52.0
19.0,-245.0,5.0,11.0,45.0,-10.0,42.0,-1025.0,47.0
20.0,-247.0,9.0,9.0,46.0,-11.0,40.0,-1023.0,51.0
18.0,-248.0,10.0,6.0,48.0,-12.0,42.0,-1019.0,56.0
19.0,-247.0,8.0,3.0,50.0,-13.0,43.0,-1018.0,52.0
16.0,-246.0,8.0,-1.0,51.0,-14.0,38.0,-1010.0,49.0
16.0,-248.0,10.0,-3.0,51.0,-15.0,37.0,-1012.0,49.0
18.0,-244.0,7.0,-6.0,49.0,-14.0,39.0,-1009.0,57.0
16.0,-243.0,12.0,-8.0,48.0,-13.0,39.0,-1006.0,60.0
17.0,-245.0,12.0,-11.0,48.0,-14.0,40.0,-1013.0,58.0
16.0,-245.0,11.0,-16.0,46.0,-12.0,36.0,-1008.0,52.0
15.0,-246.0,12.0,-20.0,45.0,-12.0,36.0,-1011.0,59.0
20.0,-248.0,10.0,-22.0,42.0,-13.0,39.0,-1020.0,59.0
18.0,-252.0,9.0,-22.0,41.0,-14.0,37.0,-1017.0,55.0
17.0,-248.0,9.0,-20.0,40.0,-11.0,38.0,-1015.0,55.0
14.0,-250.0,8.0,-17.0,40.0,-12.0,35.0,-1020.0,52.0
20.0,-251.0,13.0,-13.0,39.0,-12.0,34.0,-1021.0,48.0
16.0,-245.0,8.0,-10.0,39.0,-13.0,43.0,-1021.0,46.0
17.0,-248.0,9.0,-7.0,38.0,-13.0,39.0,-1016.0,47.0
18.0,-249.0,7.0,-4.0,38.0,-13.0,38.0,-1021.0,43.0
17.0,-248.0,6.0,-3.0,39.0,-14.0,36.0,-1022.0,45.0
18.0,-252.0,10.0,-4.0,41.0,-15.0,39.0,-1017.0,46.0
16.0,-253.0,10.0,-7.0,41.0,-16.0,37.0,-1020.0,43.0
17.0,-251.0,11.0,-7.0,41.0,-15.0,39.0,-1013.0,43.0
17.0,-246.0,12.0,-6.0,40.0,-15.0,38.0,-1021.0,51.0
17.0,-247.0,7.0,-6.0,37.0,-16.0,41.0,-1014.0,43.0
17.0,-248.0,6.0,-4.0,35.0,-16.0,35.0,-1016.0,46.0
16.0,-246.0,9.0,-2.0,33.0,-14.0,30.0,-1017.0,46.0
14.0,-246.0,11.0,1.0,31.0,-14.0,30.0,-1013.0,48.0
17.0,-247.0,7.0,3.0,30.0,-15.0,37.0,-1013.0,53.0
12.0,-245.0,8.0,3.0,28.0,-14.0,31.0,-1016.0,46.0
15.0,-248.0,5.0,3.0,31.0,-13.0,32.0,-1012.0,45.0
16.0,-247.0,8.0,0.0,33.0,-13.0,36.0,-1017.0,41.0
14.0,-247.0,5.0,-2.0,35.0,-14.0,36.0,-1021.0,42.0
17.0,-252.0,3.0,-3.0,37.0,-13.0,37.0,-1022.0,39.0
14.0,-248.0,6.0,-5.0,37.0,-13.0,35.0,-1021.0,40.0
18.0,-251.0,9.0,-4.0,37.0,-13.0,42.0,-1022.0,36.0
15.0,-248.0,7.0,-2.0,36.0,-11.0,36.0,-1020.0,34.0
16.0,-245.0,3.0,0.0,36.0,-12.0,40.0,-1023.0,36.0
18.0,-248.0,6.0,1.0,33.0,-11.0,40.0,-1019.0,28.0
18.0,-251.0,3.0,3.0,32.0,-13.0,39.0,-1026.0,26.0
16.0,-250.0,2.0,6.0,31.0,-12.0,39.0,-1029.0,26.0
18.0,-250.0,3.0,10.0,30.0,-11.0,38.0,-1031.0,31.0
19.0,-250.0,4.0,16.0,31.0,-12.0,36.0,-1032.0,30.0
16.0,-254.0,16.0,24.0,32.0,-12.0,40.0,-1036.0,29.0
19.0,-254.0,1.0,32.0,34.0,-12.0,40.0,-1037.0,29.0
17.0,-249.0,2.0,43.0,37.0,-12.0,39.0,-1031.0,26.0
19.0,-250.0,3.0,54.0,40.0,-13.0,35.0,-1027.0,38.0
16.0,-249.0,2.0,63.0,42.0,-14.0,39.0,-1027.0,38.0
17.0,-249.0,6.0,73.0,43.0,-13.0,37.0,-1024.0,38.0
14.0,-247.0,3.0,80.0,43.0,-11.0,36.0,-1026.0,35.0
15.0,-248.0,4.0,84.0,45.0,-12.0,31.0,-1017.0,34.0
17.0,-248.0,4.0,84.0,44.0,-13.0,35.0,-1009.0,33.0
13.0,-244.0,4.0,79.0,44.0,-11.0,36.0,-1012.0,35.0
18.0,-249.0,12.0,72.0,41.0,-10.0,29.0,-1011.0,34.0
14.0,-247.0,5.0,65.0,37.0,-8.0,36.0,-1011.0,36.0
14.0,-245.0,4.0,58.0,33.0,-9.0,34.0,-1015.0,34.0
14.0,-248.0,5.0,52.0,30.0,-8.0,32.0,-1015.0,36.0
15.0,-249.0,3.0,49.0,26.0,-9.0,34.0,-1013.0,31.0
16.0,-246.0,6.0,49.0,24.0,-10.0,34.0,-1009.0,39.0
14.0,-247.0,8.0,50.0,24.0,-10.0,35.0,-1014.0,42.0
16.0,-246.0,11.0,53.0,22.0,-10.0,30.0,-1005.0,45.0
15.0,-242.0,11.0,54.0,22.0,-12.0,31.0,-1013.0,48.0
17.0,-246.0,9.0,55.0,22.0,-12.0,36.0,-1014.0,52.0
18.0,-244.0,5.0,52.0,21.0,-13.0,37.0,-1009.0,47.0
12.0,-248.0,10.0,48.0,20.0,-13.0,31.0,-1011.0,44.0
13.0,-246.0,6.0,43.0,18.0,-12.0,38.0,-1014.0,38.0
17.0,-246.0,9.0,37.0,15.0,-12.0,40.0,-1010.0,36.0
17.0,-247.0,7.0,34.0,14.0,-12.0,38.0,-1014.0,37.0
16.0,-247.0,7.0,31.0,14.0,-11.0,40.0,-1012.0,34.0
18.0,-247.0,4.0,27.0,14.0,-13.0,38.0,-1014.0,34.0
16.0,-245.0,5.0,23.0,13.0,-11.0,40.0,-1016.0,33.0
16.0,-248.0,0.0,18.0,13.0,-10.0,41.0,-1015.0,31.0
14.0,-248.0,6.0,13.0,13.0,-12.0,34.0,-1022.0,29.0
18.0,-251.0,9.0,8.0,15.0,-12.0,34.0,-1024.0,34.0
18.0,-247.0,8.0,6.0,15.0,-13.0,35.0,-1026.0,38.0
18.0,-252.0,1.0,7.0,16.0,-10.0,36.0,-1026.0,37.0
18.0,-250.0,4.0,11.0,15.0,-11.0,32.0,-1027.0,36.0
17.0,-251.0,6.0,16.0,14.0,-11.0,36.0,-1033.0,39.0
17.0,-250.0,5.0,22.0,12.0,-10.0,36.0,-1026.0,35.0
18.0,-249.0,4.0,27.0,9.0,-9.0,39.0,-1029.0,28.0
17.0,-251.0,6.0,32.0,7.0,-10.0,39.0,-1032.0,28.0
16.0,-251.0,4.0,35.0,7.0,-11.0,40.0,-1021.0,30.0
18.0,-249.0,9.0,36.0,8.0,-11.0,40.0,-1026.0,30.0
19.0,-253.0,6.0,39.0,10.0,-11.0,36.0,-1019.0,33.0
23.0,-251.0,6.0,39.0,14.0,-13.0,38.0,-1021.0,36.0
20.0,-249.0,8.0,42.0,16.0,-14.0,38.0,-1022.0,41.0
17.0,-248.0,7.0,46.0,19.0,-15.0,39.0,-1021.0,45.0
16.0,-248.0,6.0,51.0,19.0,-14.0,32.0,-1027.0,45.0
15.0,-249.0,8.0,55.0,20.0,-16.0,39.0,-1013.0,43.0
18.0,-246.0,10.0,57.0,20.0,-16.0,40.0,-1017.0,39.0
14.0,-247.0,10.0,57.0,21.0,-17.0,38.0,-1008.0,44.0
19.0,-246.0,10.0,56.0,22.0,-16.0,37.0,-1014.0,42.0
14.0,-244.0,4.0,50.0,21.0,-18.0,38.0,-1012.0,38.0
19.0,-247.0,8.0,45.0,22.0,-16.0,39.0,-1008.0,42.0
18.0,-243.0,4.0,41.0,19.0,-17.0,37.0,-1013.0,42.0
20.0,-248.0,4.0,37.0,18.0,-15.0,38.0,-1010.0,42.0
10.0,-242.0,6.0,34.0,17.0,-14.0,38.0,-1016.0,39.0
17.0,-250.0,7.0,31.0,15.0,-13.0,39.0,-1016.0,36.0
15.0,-246.0,4.0,31.0,13.0,-13.0,38.0,-1020.0,38.0
18.0,-250.0,7.0,32.0,11.0,-13.0,37.0,-1017.0,34.0
16.0,-248.0,6.0,34.0,9.0,-11.0,34.0,-1022.0,36.0
16.0,-248.0,8.0,36.0,6.0,-12.0,38.0,-1021.0,31.0
15.0,-251.0,4.0,38.0,5.0,-12.0,34.0,-1023.0,34.0
15.0,-248.0,5.0,40.0,3.0,-12.0,40.0,-1022.0,28.0
14.0,-249.0,4.0,40.0,2.0,-11.0,36.0,-1023.0,24.0
17.0,-249.0,2.0,42.0,1.0,-10.0,39.0,-1023.0,25.0
13.0,-250.0,4.0,41.0,0.0,-12.0,37.0,-1026.0,16.0
16.0,-254.0,-4.0,40.0,0.0,-8.0,35.0,-1017.0,19.0
15.0,-246.0,1.0,39.0,1.0,-10.0,36.0,-1021.0,17.0
18.0,-246.0,0.0,39.0,4.0,-10.0,45.0,-1015.0,22.0
18.0,-247.0,1.0,38.0,6.0,-10.0,40.0,-1017.0,22.0
17.0,-245.0,0.0,38.0,6.0,-8.0,34.0,-1017.0,28.0
17.0,-249.0,4.0,38.0,7.0,-7.0,35.0,-1005.0,31.0
17.0,-245.0,4.0,36.0,7.0,-8.0,40.0,-1010.0,33.0
17.0,-246.0,4.0,34.0,5.0,-8.0,39.0,-1006.0,34.0
19.0,-244.0,7.0,31.0,3.0,-7.0,42.0,-1015.0,41.0
19.0,-249.0,6.0,29.0,2.0,-7.0,38.0,-1015.0,37.0
24.0,-250.0,2.0,24.0,1.0,-7.0,39.0,-1011.0,34.0
18.0,-250.0,5.0,19.0,1.0,-8.0,39.0,-1012.0,35.0
16.0,-243.0,4.0,14.0,3.0,-10.0,41.0,-1011.0,26.0
15.0,-245.0,6.0,11.0,4.0,-9.0,43.0,-1015.0,35.0
20.0,-248.0,4.0,7.0,4.0,-9.0,41.0,-1012.0,35.0
19.0,-245.0,6.0,5.0,6.0,-9.0,43.0,-1015.0,36.0
19.0,-244.0,4.0,1.0,7.0,-10.0,44.0,-1014.0,35.0
17.0,-245.0,2.0,-2.0,9.0,-11.0,40.0,-1019.0,35.0
19.0,-251.0,5.0,-6.0,11.0,-13.0,44.0,-1018.0,32.0
20.0,-251.0,8.0,-8.0,14.0,-12.0,45.0,-1021.0,32.0
14.0,-247.0,5.0,-9.0,16.0,-12.0,41.0,-1023.0,34.0
17.0,-249.0,4.0,-9.0,18.0,-15.0,43.0,-1021.0,30.0
16.0,-248.0,8.0,-8.0,20.0,-14.0,40.0,-1019.0,32.0
17.0,-249.0,6.0,-5.0,21.0,-15.0,38.0,-1020.0,41.0
16.0,-246.0,3.0,-3.0,21.0,-15.0,43.0,-1016.0,36.0
17.0,-246.0,3.0,-1.0,22.0,-16.0,40.0,-1021.0,34.0
18.0,-248.0,9.0,1.0,23.0,-16.0,46.0,-1021.0,36.0
18.0,-252.0,10.0,1.0,26.0,-14.0,43.0,-1021.0,35.0
19.0,-249.0,8.0,5.0,26.0,-14.0,41.0,-1022.0,40.0
20.0,-249.0,9.0,7.0,26.0,-15.0,46.0,-1023.0,39.0
19.0,-248.0,7.0,11.0,28.0,-15.0,46.0,-1020.0,37.0
20.0,-250.0,11.0,17.0,28.0,-16.0,43.0,-1026.0,38.0
18.0,-245.0,15.0,24.0,28.0,-16.0,45.0,-1025.0,36.0
21.0,-250.0,6.0,32.0,28.0,-17.0,43.0,-1022.0,37.0
19.0,-248.0,7.0,39.0,29.0,-18.0,45.0,-1021.0,36.0
19.0,-248.0,4.0,43.0,29.0,-18.0,41.0,-1025.0,33.0
20.0,-249.0,7.0,47.0,30.0,-17.0,45.0,-1021.0,29.0
18.0,-249.0,8.0,50.0,31.0,-17.0,39.0,-1015.0,30.0
17.0,-248.0,4.0,50.0,34.0,-20.0,39.0,-1018.0,33.0
16.0,-243.0,2.0,50.0,36.0,-19.0,39.0,-1020.0,29.0
17.0,-246.0,4.0,49.0,39.0,-19.0,37.0,-1019.0,26.0
20.0,-248.0,6.0,46.0,43.0,-18.0,38.0,-1018.0,27.0
20.0,-245.0,5.0,44.0,45.0,-19.0,41.0,-1018.0,28.0
18.0,-245.0,1.0,40.0,47.0,-19.0,39.0,-1023.0,27.0
17.0,-247.0,2.0,40.0,48.0,-19.0,40.0,-1016.0,28.0
18.0,-249.0,2.0,41.0,48.0,-17.0,40.0,-1018.0,32.0
17.0,-249.0,6.0,45.0,47.0,-16.0,39.0,-1015.0,33.0
16.0,-246.0,3.0,48.0,44.0,-15.0,37.0,-1019.0,33.0
16.0,-248.0,3.0,48.0,42.0,-16.0,32.0,-1015.0,29.0
13.0,-244.0,9.0,46.0,40.0,-15.0,31.0,-1008.0,32.0
17.0,-248.0,9.0,40.0,37.0,-14.0,34.0,-1014.0,33.0
19.0,-248.0,4.0,37.0,34.0,-12.0,31.0,-1012.0,35.0
15.0,-246.0,3.0,32.0,30.0,-11.0,38.0,-1019.0,32.0
11.0,-249.0,5.0,29.0,30.0,-11.0,31.0,-1018.0,33.0
17.0,-249.0,4.0,30.0,30.0,-11.0,30.0,-1016.0,26.0
12.0,-244.0,3.0,31.0,31.0,-12.0,26.0,-1013.0,26.0
13.0,-246.0,1.0,32.0,32.0,-12.0,32.0,-1019.0,26.0
17.0,-248.0,3.0,34.0,34.0,-10.0,29.0,-1013.0,24.0
12.0,-246.0,2.0,34.0,35.0,-10.0,28.0,-1013.0,25.0
14.0,-245.0,2.0,33.0,34.0,-8.0,35.0,-1016.0,24.0
15.0,-250.0,1.0,30.0,31.0,-7.0,25.0,-1015.0,26.0
12.0,-246.0,1.0,29.0,29.0,-8.0,27.0,-1023.0,24.0
16.0,-247.0,3.0,30.0,25.0,-7.0,27.0,-1019.0,26.0
17.0,-253.0,6.0,34.0,22.0,-5.0,31.0,-1034.0,25.0
14.0,-254.0,-1.0,40.0,22.0,-7.0,27.0,-1023.0,20.0
15.0,-250.0,2.0,47.0,23.0,-7.0,35.0,-1024.0,22.0
14.0,-250.0,1.0,52.0,23.0,-6.0,31.0,-1026.0,19.0
14.0,-250.0,1.0,57.0,24.0,-6.0,28.0,-1023.0,22.0
17.0,-252.0,0.0,56.0,24.0,-8.0,28.0,-1024.0,19.0
15.0,-250.0,1.0,52.0,23.0,-6.0,31.0,-1022.0,22.0
17.0,-248.0,0.0,47.0,22.0,-6.0,37.0,-1019.0,23.0
16.0,-248.0,6.0,43.0,19.0,-7.0,36.0,-1015.0,23.0
18.0,-250.0,3.0,40.0,16.0,-6.0,34.0,-1020.0,29.0
15.0,-252.0,6.0,41.0,12.0,-4.0,34.0,-1020.0,30.0
9.0,-251.0,1.0,45.0,6.0,-1.0,37.0,-1019.0,33.0
15.0,-246.0,2.0,51.0,0.0,1.0,32.0,-1016.0,25.0
16.0,-247.0,4.0,57.0,-4.0,3.0,35.0,-1016.0,28.0
17.0,-249.0,2.0,60.0,-7.0,3.0,34.0,-1013.0,26.0
15.0,-243.0,2.0,61.0,-10.0,2.0,29.0,-1008.0,20.0
16.0,-244.0,0.0,58.0,-11.0,4.0,32.0,-1015.0,24.0
18.0,-249.0,3.0,54.0,-13.0,2.0,31.0,-1006.0,28.0
14.0,-245.0,6.0,49.0,-13.0,3.0,27.0,-1009.0,28.0
16.0,-249.0,6.0,43.0,-12.0,2.0,29.0,-1017.0,25.0
12.0,-245.0,1.0,41.0,-12.0,1.0,29.0,-1016.0,23.0
16.0,-247.0,4.0,39.0,-11.0,1.0,35.0,-1016.0,21.0
13.0,-249.0,7.0,41.0,-11.0,-1.0,28.0,-1017.0,22.0
12.0,-249.0,3.0,42.0,-8.0,-1.0,32.0,-1025.0,25.0
15.0,-249.0,1.0,45.0,-6.0,-2.0,31.0,-1021.0,24.0
17.0,-250.0,2.0,48.0,-6.0,-1.0,32.0,-1023.0,22.0
15.0,-250.0,6.0,51.0,-6.0,-1.0,33.0,-1022.0,22.0
17.0,-247.0,1.0,55.0,-6.0,-2.0,33.0,-1027.0,21.0
16.0,-246.0,3.0,57.0,-7.0,-2.0,39.0,-1022.0,28.0
15.0,-249.0,1.0,59.0,-11.0,-2.0,39.0,-1023.0,20.0
16.0,-249.0,4.0,61.0,-13.0,-2.0,39.0,-1019.0,25.0
17.0,-252.0,4.0,60.0,-16.0,-1.0,35.0,-1018.0,20.0
17.0,-251.0,3.0,60.0,-22.0,-1.0,39.0,-1021.0,19.0
13.0,-248.0,3.0,61.0,-26.0,-1.0,36.0,-1019.0,29.0
19.0,-247.0,3.0,60.0,-31.0,0.0,38.0,-1015.0,22.0
17.0,-248.0,2.0,58.0,-35.0,1.0,38.0,-1018.0,26.0
16.0,-246.0,3.0,57.0,-39.0,2.0,34.0,-1016.0,24.0
14.0,-244.0,4.0,54.0,-40.0,3.0,33.0,-1019.0,24.0
17.0,-247.0,3.0,51.0,-43.0,3.0,31.0,-1018.0,29.0
14.0,-246.0,5.0,50.0,-45.0,3.0,34.0,-1014.0,24.0
11.0,-244.0,7.0,50.0,-46.0,3.0,33.0,-1018.0,29.0
17.0,-248.0,6.0,48.0,-44.0,1.0,33.0,-1017.0,29.0
15.0,-248.0,3.0,48.0,-45.0,3.0,38.0,-1020.0,29.0
13.0,-241.0,3.0,50.0,-42.0,2.0,32.0,-1026.0,28.0
18.0,-249.0,3.0,52.0,-39.0,2.0,37.0,-1021.0,26.0
16.0,-249.0,6.0,56.0,-37.0,-1.0,40.0,-1021.0,29.0
19.0,-249.0,2.0,60.0,-34.0,-3.0,40.0,-1020.0,29.0
21.0,-250.0,6.0,63.0,-31.0,-3.0,45.0,-1017.0,28.0
15.0,-245.0,8.0,65.0,-30.0,-3.0,38.0,-1013.0,35.0
18.0,-246.0,4.0,65.0,-29.0,-3.0,41.0,-1019.0,34.0
14.0,-249.0,5.0,66.0,-32.0,-4.0,42.0,-1016.0,30.0
17.0,-248.0,5.0,64.0,-33.0,-4.0,40.0,-1016.0,31.0
16.0,-246.0,4.0,63.0,-35.0,-5.0,40.0,-1006.0,37.0
16.0,-241.0,0.0,64.0,-36.0,-4.0,42.0,-1014.0,31.0
21.0,-246.0,7.0,61.0,-37.0,-5.0,43.0,-1010.0,28.0
19.0,-245.0,4.0,59.0,-40.0,-5.0,39.0,-1011.0,25.0
20.0,-246.0,3.0,56.0,-40.0,-5.0,39.0,-1015.0,24.0
17.0,-248.0,5.0,52.0,-41.0,-5.0,42.0,-1020.0,27.0
20.0,-248.0,1.0,49.0,-42.0,-4.0,40.0,-1012.0,21.0
16.0,-249.0,5.0,45.0,-42.0,-4.0,42.0,-1021.0,26.0
22.0,-249.0,3.0,45.0,-39.0,-4.0,39.0,-1019.0,29.0
19.0,-250.0,2.0,44.0,-37.0,-5.0,41.0,-1028.0,26.0
20.0,-250.0,3.0,48.0,-34.0,-6.0,44.0,-1022.0,27.0
17.0,-249.0,2.0,53.0,-30.0,-7.0,46.0,-1026.0,27.0
13.0,-247.0,-1.0,57.0,-28.0,-8.0,40.0,-1038.0,30.0
21.0,-254.0,5.0,61.0,-24.0,-9.0,47.0,-1024.0,27.0
18.0,-251.0,4.0,64.0,-20.0,-11.0,43.0,-1024.0,33.0
20.0,-248.0,6.0,66.0,-17.0,-10.0,39.0,-1021.0,27.0
18.0,-249.0,3.0,68.0,-13.0,-13.0,39.0,-1019.0,27.0
16.0,-246.0,3.0,67.0,-8.0,-15.0,40.0,-1012.0,24.0
19.0,-248.0,3.0,64.0,-5.0,-17.0,38.0,-1017.0,33.0
17.0,-249.0,6.0,63.0,-2.0,-18.0,39.0,-1016.0,31.0
20.0,-242.0,4.0,60.0,2.0,-19.0,41.0,-1014.0,35.0
18.0,-248.0,4.0,61.0,2.0,-19.0,42.0,-1013.0,33.0
16.0,-248.0,4.0,60.0,2.0,-17.0,50.0,-1012.0,35.0
18.0,-249.0,3.0,62.0,2.0,-17.0,44.0,-1012.0,36.0
19.0,-247.0,7.0,62.0,1.0,-17.0,46.0,-1011.0,31.0
21.0,-249.0,5.0,61.0,0.0,-16.0,42.0,-1021.0,28.0
21.0,-250.0,2.0,60.0,-2.0,-17.0,43.0,-1019.0,36.0
18.0,-246.0,4.0,60.0,-2.0,-15.0,48.0,-1018.0,24.0
17.0,-249.0,3.0,60.0,-1.0,-15.0,38.0,-1016.0,26.0
19.0,-247.0,2.0,60.0,-1.0,-13.0,37.0,-1022.0,28.0
17.0,-247.0,3.0,62.0,0.0,-13.0,35.0,-1021.0,29.0
16.0,-248.0,3.0,66.0,0.0,-12.0,38.0,-1017.0,22.0
18.0,-247.0,5.0,66.0,1.0,-12.0,39.0,-1017.0,27.0
16.0,-249.0,0.0,67.0,3.0,-12.0,37.0,-1021.0,26.0
13.0,-245.0,4.0,69.0,3.0,-10.0,34.0,-1019.0,29.0
16.0,-248.0,4.0,71.0,4.0,-10.0,38.0,-1019.0,27.0
18.0,-247.0,4.0,73.0,5.0,-10.0,27.0,-1018.0,26.0
15.0,-250.0,4.0,72.0,8.0,-10.0,33.0,-1018.0,22.0
13.0,-245.0,2.0,72.0,9.0,-9.0,34.0,-1013.0,23.0
18.0,-244.0,1.0,70.0,10.0,-10.0,37.0,-1017.0,28.0
16.0,-246.0,5.0,69.0,12.0,-10.0,30.0,-1017.0,29.0
16.0,-247.0,3.0,66.0,11.0,-10.0,40.0,-1015.0,29.0
16.0,-251.0,4.0,65.0,11.0,-11.0,39.0,-1029.0,29.0
17.0,-249.0,3.0,64.0,12.0,-10.0,40.0,-1017.0,27.0
17.0,-248.0,6.0,65.0,11.0,-11.0,36.0,-1020.0,24.0
22.0,-251.0,1.0,66.0,13.0,-13.0,33.0,-1023.0,22.0
16.0,-247.0,1.0,66.0,15.0,-12.0,38.0,-1017.0,27.0
19.0,-248.0,0.0,69.0,16.0,-10.0,39.0,-1020.0,27.0
17.0,-246.0,1.0,73.0,18.0,-11.0,40.0,-1019.0,25.0
20.0,-245.0,5.0,75.0,20.0,-8.0,43.0,-1011.0,25.0
20.0,-250.0,3.0,75.0,21.0,-9.0,41.0,-1022.0,28.0
19.0,-249.0,4.0,72.0,21.0,-8.0,42.0,-1013.0,24.0
20.0,-249.0,8.0,71.0,19.0,-9.0,36.0,-1024.0,27.0
21.0,-251.0,5.0,68.0,19.0,-8.0,40.0,-1018.0,24.0
17.0,-247.0,2.0,67.0,21.0,-8.0,41.0,-1027.0,28.0
16.0,-247.0,4.0,70.0,22.0,-9.0,40.0,-1020.0,29.0
17.0,-247.0,2.0,73.0,24.0,-10.0,36.0,-1014.0,20.0
18.0,-247.0,5.0,75.0,30.0,-13.0,38.0,-1016.0,19.0
19.0,-248.0,0.0,74.0,36.0,-13.0,37.0,-1016.0,18.0
16.0,-246.0,2.0,68.0,38.0,-13.0,41.0,-1011.0,30.0
17.0,-252.0,3.0,63.0,41.0,-15.0,41.0,-1011.0,28.0
16.0,-245.0,9.0,56.0,44.0,-14.0,38.0,-1016.0,28.0
16.0,-248.0,5.0,50.0,44.0,-14.0,43.0,-1018.0,22.0
18.0,-245.0,4.0,49.0,43.0,-12.0,39.0,-1017.0,34.0
14.0,-248.0,3.0,49.0,42.0,-10.0,42.0,-1023.0,27.0
15.0,-251.0,3.0,54.0,39.0,-10.0,38.0,-1027.0,28.0
23.0,-253.0,11.0,62.0,37.0,-8.0,35.0,-1026.0,24.0
17.0,-252.0,1.0,68.0,35.0,-7.0,38.0,-1029.0,26.0
18.0,-251.0,5.0,75.0,35.0,-8.0,39.0,-1022.0,21.0
14.0,-251.0,2.0,81.0,34.0,-10.0,35.0,-1022.0,26.0
16.0,-248.0,4.0,84.0,34.0,-12.0,31.0,-1020.0,28.0
16.0,-251.0,1.0,85.0,36.0,-13.0,34.0,-1025.0,26.0
19.0,-250.0,2.0,85.0,37.0,-15.0,38.0,-1021.0,28.0
15.0,-248.0,6.0,83.0,39.0,-14.0,37.0,-1026.0,20.0
16.0,-246.0,1.0,81.0,40.0,-17.0,41.0,-1025.0,24.0
16.0,-250.0,4.0,79.0,41.0,-15.0,35.0,-1019.0,26.0
15.0,-251.0,5.0,76.0,42.0,-16.0,35.0,-1014.0,22.0
18.0,-237.0,8.0,75.0,43.0,-16.0,34.0,-1017.0,27.0
14.0,-246.0,5.0,74.0,44.0,-15.0,31.0,-1013.0,22.0
14.0,-250.0,3.0,73.0,43.0,-17.0,39.0,-1006.0,27.0
16.0,-246.0,4.0,73.0,43.0,-18.0,32.0,-1017.0,22.0
13.0,-247.0,2.0,72.0,42.0,-16.0,32.0,-1010.0,26.0
14.0,-247.0,0.0,72.0,40.0,-15.0,35.0,-1013.0,34.0
16.0,-243.0,5.0,71.0,37.0,-14.0,33.0,-1018.0,30.0
18.0,-249.0,3.0,71.0,34.0,-13.0,26.0,-1014.0,32.0
15.0,-248.0,9.0,70.0,30.0,-13.0,27.0,-1016.0,31.0
13.0,-249.0,5.0,68.0,25.0,-12.0,27.0,-1014.0,36.0
5.0,-244.0,3.0,66.0,21.0,-12.0,22.0,-1020.0,24.0
15.0,-251.0,5.0,63.0,17.0,-10.0,23.0,-1026.0,29.0
10.0,-248.0,4.0,58.0,12.0,-8.0,28.0,-1018.0,21.0
17.0,-249.0,2.0,55.0,7.0,-8.0,22.0,-1022.0,30.0
10.0,-245.0,4.0,54.0,4.0,-7.0,22.0,-1021.0,33.0
12.0,-251.0,5.0,53.0,1.0,-5.0,23.0,-1018.0,25.0
14.0,-248.0,5.0,54.0,-5.0,-6.0,22.0,-1027.0,23.0
14.0,-247.0,5.0,55.0,-9.0,-4.0,25.0,-1022.0,31.0
17.0,-250.0,6.0,58.0,-11.0,-2.0,31.0,-1023.0,31.0
13.0,-247.0,0.0,58.0,-14.0,-1.0,29.0,-1016.0,26.0
13.0,-246.0,6.0,59.0,-18.0,-2.0,26.0,-1016.0,26.0
12.0,-248.0,8.0,60.0,-20.0,0.0,24.0,-1013.0,30.0
13.0,-245.0,3.0,59.0,-23.0,0.0,27.0,-1018.0,29.0
11.0,-245.0,1.0,54.0,-25.0,-1.0,27.0,-1012.0,30.0
13.0,-248.0,3.0,50.0,-28.0,1.0,21.0,-1009.0,29.0
14.0,-245.0,4.0,48.0,-32.0,2.0,31.0,-1016.0,36.0
14.0,-248.0,5.0,46.0,-35.0,1.0,25.0,-1018.0,28.0
13.0,-248.0,5.0,47.0,-36.0,2.0,27.0,-1022.0,35.0
12.0,-245.0,5.0,50.0,-38.0,2.0,26.0,-1018.0,30.0
14.0,-248.0,5.0,56.0,-39.0,2.0,30.0,-1020.0,35.0
12.0,-248.0,6.0,58.0,-38.0,3.0,34.0,-1020.0,31.0
15.0,-249.0,7.0,59.0,-40.0,3.0,30.0,-1018.0,32.0
14.0,-245.0,12.0,59.0,-41.0,3.0,26.0,-1021.0,33.0
17.0,-250.0,8.0,56.0,-43.0,4.0,32.0,-1021.0,32.0
17.0,-249.0,7.0,53.0,-44.0,5.0,38.0,-1025.0,31.0
19.0,-251.0,3.0,51.0,-45.0,4.0,32.0,-1025.0,31.0
15.0,-248.0,4.0,49.0,-45.0,2.0,40.0,-1019.0,30.0
16.0,-247.0,5.0,49.0,-45.0,4.0,38.0,-1022.0,31.0
18.0,-250.0,3.0,49.0,-45.0,3.0,41.0,-1020.0,37.0
17.0,-248.0,4.0,53.0,-46.0,3.0,38.0,-1020.0,33.0
19.0,-249.0,10.0,55.0,-45.0,5.0,37.0,-1016.0,29.0
21.0,-251.0,1.0,55.0,-45.0,3.0,39.0,-1018.0,32.0
21.0,-245.0,6.0,56.0,-46.0,2.0,40.0,-1013.0,34.0
17.0,-250.0,6.0,55.0,-43.0,1.0,43.0,-1014.0,31.0
18.0,-246.0,3.0,54.0,-41.0,0.0,48.0,-1016.0,31.0
20.0,-250.0,8.0,54.0,-38.0,1.0,45.0,-1017.0,29.0
22.0,-248.0,4.0,52.0,-37.0,-2.0,44.0,-1014.0,40.0
19.0,-248.0,5.0,53.0,-34.0,-1.0,41.0,-1018.0,36.0
20.0,-248.0,8.0,50.0,-34.0,0.0,44.0,-1019.0,40.0
19.0,-249.0,5.0,49.0,-31.0,-1.0,48.0,-1017.0,36.0
17.0,-248.0,6.0,49.0,-29.0,-1.0,47.0,-1022.0,37.0
17.0,-249.0,8.0,47.0,-25.0,0.0,53.0,-1019.0,34.0
19.0,-251.0,3.0,47.0,-24.0,1.0,52.0,-1021.0,37.0
19.0,-251.0,5.0,48.0,-21.0,-2.0,50.0,-1020.0,36.0
20.0,-252.0,4.0,48.0,-17.0,1.0,52.0,-1019.0,30.0
19.0,-249.0,6.0,48.0,-15.0,1.0,53.0,-1028.0,31.0
20.0,-252.0,8.0,48.0,-12.0,1.0,55.0,-1022.0,29.0
19.0,-250.0,5.0,49.0,-11.0,0.0,43.0,-1019.0,34.0
19.0,-247.0,4.0,51.0,-9.0,0.0,49.0,-1017.0,36.0
16.0,-246.0,5.0,54.0,-6.0,-1.0,44.0,-1018.0,35.0
16.0,-244.0,1.0,55.0,-4.0,-3.0,42.0,-1010.0,38.0
19.0,-249.0,6.0,57.0,1.0,-4.0,44.0,-1010.0,38.0
15.0,-247.0,5.0,55.0,4.0,-5.0,39.0,-1006.0,36.0
15.0,-245.0,5.0,55.0,8.0,-6.0,40.0,-1006.0,38.0
22.0,-245.0,8.0,53.0,11.0,-8.0,42.0,-1011.0,39.0
16.0,-246.0,6.0,49.0,14.0,-8.0,39.0,-1009.0,42.0
16.0,-245.0,4.0,44.0,16.0,-9.0,37.0,-1005.0,37.0
15.0,-246.0,9.0,39.0,19.0,-11.0,36.0,-1010.0,35.0
18.0,-247.0,6.0,35.0,23.0,-13.0,41.0,-1015.0,39.0
18.0,-247.0,8.0,31.0,24.0,-14.0,39.0,-1016.0,42.0
17.0,-246.0,5.0,29.0,27.0,-16.0,40.0,-1016.0,39.0
20.0,-249.0,4.0,29.0,30.0,-16.0,39.0,-1019.0,34.0
19.0,-249.0,5.0,30.0,32.0,-18.0,37.0,-1022.0,34.0
17.0,-249.0,14.0,32.0,33.0,-19.0,39.0,-1027.0,38.0
19.0,-247.0,1.0,34.0,35.0,-18.0,41.0,-1022.0,37.0
19.0,-250.0,5.0,35.0,34.0,-18.0,37.0,-1020.0,34.0
18.0,-250.0,4.0,33.0,32.0,-17.0,35.0,-1026.0,36.0
17.0,-248.0,4.0,32.0,27.0,-15.0,33.0,-1030.0,32.0
17.0,-250.0,3.0,31.0,23.0,-13.0,34.0,-1026.0,33.0
15.0,-250.0,2.0,29.0,19.0,-12.0,33.0,-1027.0,27.0
16.0,-249.0,5.0,30.0,14.0,-11.0,33.0,-1024.0,34.0
14.0,-251.0,3.0,31.0,11.0,-10.0,32.0,-1028.0,26.0
12.0,-246.0,1.0,34.0,10.0,-9.0,31.0,-1024.0,35.0
18.0,-253.0,2.0,36.0,10.0,-8.0,30.0,-1025.0,36.0
17.0,-249.0,3.0,39.0,10.0,-6.0,31.0,-1021.0,29.0
11.0,-244.0,5.0,43.0,12.0,-4.0,34.0,-1017.0,31.0
12.0,-247.0,3.0,46.0,13.0,-5.0,28.0,-1017.0,30.0
13.0,-247.0,4.0,50.0,14.0,-5.0,25.0,-1013.0,31.0
16.0,-247.0,6.0,54.0,13.0,-4.0,24.0,-1010.0,35.0
13.0,-245.0,7.0,59.0,10.0,-2.0,19.0,-1005.0,46.0
10.0,-246.0,9.0,60.0,5.0,-2.0,18.0,-1012.0,41.0
11.0,-247.0,9.0,56.0,1.0,-3.0,18.0,-1017.0,44.0
12.0,-247.0,7.0,47.0,-3.0,-2.0,18.0,-1022.0,50.0
13.0,-253.0,10.0,38.0,-4.0,-1.0,20.0,-1040.0,44.0
12.0,-254.0,7.0,31.0,-8.0,3.0,17.0,-1041.0,39.0
9.0,-252.0,4.0,30.0,-15.0,10.0,19.0,-1037.0,34.0
11.0,-255.0,0.0,31.0,-25.0,22.0,12.0,-1044.0,20.0
6.0,-252.0,0.0,28.0,-36.0,33.0,-1.0,-1042.0,8.0
3.0,-252.0,1.0,19.0,-48.0,46.0,-10.0,-1036.0,11.0
2.0,-251.0,0.0,9.0,-57.0,58.0,-11.0,-1034.0,11.0
3.0,-252.0,-1.0,-3.0,-62.0,65.0,-7.0,-1036.0,6.0
2.0,-253.0,-3.0,-11.0,-64.0,73.0,-8.0,-1044.0,7.0
4.0,-255.0,-1.0,-18.0,-62.0,79.0,2.0,-1036.0,-4.0
9.0,-255.0,-2.0,-29.0,-62.0,87.0,7.0,-1053.0,-2.0
10.0,-257.0,-4.0,-38.0,-69.0,95.0,19.0,-1055.0,-6.0
11.0,-254.0,-6.0,-48.0,-80.0,101.0,19.0,-1059.0,-10.0
13.0,-257.0,-8.0,-51.0,-94.0,106.0,18.0,-1055.0,-10.0
11.0,-256.0,-2.0,-49.0,-103.0,107.0,21.0,-1060.0,-6.0
12.0,-254.0,-1.0,-41.0,-106.0,104.0,26.0,-1055.0,-3.0
13.0,-255.0,-4.0,-29.0,-103.0,95.0,22.0,-1050.0,2.0
13.0,-252.0,-1.0,-13.0,-94.0,83.0,17.0,-1038.0,1.0
10.0,-250.0,0.0,2.0,-83.0,69.0,24.0,-1036.0,0.0
16.0,-252.0,-5.0,10.0,-73.0,59.0,20.0,-1031.0,-7.0
14.0,-248.0,0.0,13.0,-63.0,50.0,23.0,-1012.0,0.0
13.0,-243.0,-6.0,12.0,-53.0,42.0,28.0,-1001.0,-2.0
12.0,-237.0,-5.0,6.0,-43.0,35.0,26.0,-992.0,-5.0
11.0,-238.0,-8.0,-1.0,-34.0,29.0,18.0,-980.0,-9.0
8.0,-233.0,-1.0,-12.0,-29.0,24.0,18.0,-973.0,-16.0
11.0,-233.0,-6.0,-27.0,-26.0,19.0,21.0,-968.0,-16.0
15.0,-232.0,-9.0,-45.0,-25.0,15.0,20.0,-961.0,-20.0
12.0,-232.0,-6.0,-66.0,-23.0,11.0,24.0,-962.0,-23.0
13.0,-230.0,-5.0,-88.0,-19.0,7.0,24.0,-957.0,-22.0
15.0,-228.0,-9.0,-108.0,-9.0,5.0,36.0,-942.0,-21.0
14.0,-227.0,-10.0,-123.0,2.0,3.0,36.0,-949.0,-25.0
15.0,-231.0,-13.0,-133.0,9.0,4.0,41.0,-947.0,-38.0
17.0,-224.0,-19.0,-137.0,12.0,7.0,51.0,-932.0,-47.0
21.0,-222.0,-14.0,-137.0,7.0,14.0,54.0,-921.0,-59.0
18.0,-218.0,-17.0,-134.0,-5.0,24.0,54.0,-907.0,-76.0
13.0,-209.0,-26.0,-132.0,-26.0,36.0,50.0,-876.0,-89.0
15.0,-203.0,-28.0,-137.0,-53.0,56.0,36.0,-844.0,-106.0
13.0,-195.0,-29.0,-147.0,-83.0,80.0,28.0,-809.0,-115.0
10.0,-186.0,-40.0,-160.0,-110.0,107.0,21.0,-782.0,-132.0
9.0,-178.0,-38.0,-184.0,-130.0,137.0,20.0,-742.0,-140.0
12.0,-166.0,-39.0,-215.0,-140.0,165.0,15.0,-704.0,-147.0
14.0,-158.0,-46.0,-250.0,-137.0,191.0,21.0,-659.0,-148.0
17.0,-148.0,-40.0,-291.0,-123.0,212.0,33.0,-605.0,-146.0
18.0,-134.0,-40.0,-327.0,-97.0,231.0,34.0,-569.0,-146.0
15.0,-123.0,-39.0,-360.0,-62.0,249.0,30.0,-518.0,-142.0
13.0,-108.0,-37.0,-383.0,-22.0,264.0,22.0,-468.0,-129.0
10.0,-105.0,-31.0,-397.0,16.0,280.0,5.0,-436.0,-107.0
4.0,-95.0,-23.0,-408.0,50.0,298.0,-10.0,-401.0,-90.0
3.0,-87.0,-12.0,-423.0,78.0,319.0,-19.0,-382.0,-61.0
1.0,-85.0,-14.0,-440.0,97.0,340.0,-22.0,-364.0,-39.0
1.0,-80.0,0.0,-450.0,107.0,351.0,-19.0,-343.0,8.0
0.0,-78.0,8.0,-436.0,108.0,349.0,-32.0,-320.0,40.0
-3.0,-78.0,14.0,-397.0,101.0,335.0,-51.0,-319.0,46.0
-1.0,-80.0,16.0,-356.0,85.0,321.0,-38.0,-325.0,68.0
0.0,-83.0,21.0,-316.0,62.0,308.0,-30.0,-349.0,94.0
0.0,-88.0,27.0,-277.0,39.0,286.0,-41.0,-363.0,113.0
-7.0,-92.0,24.0,-237.0,12.0,250.0,-56.0,-405.0,127.0
-15.0,-106.0,25.0,-208.0,-24.0,214.0,-61.0,-441.0,123.0
-13.0,-120.0,27.0,-203.0,-76.0,171.0,-78.0,-483.0,113.0
-15.0,-125.0,29.0,-219.0,-143.0,119.0,-90.0,-526.0,104.0
-15.0,-136.0,20.0,-257.0,-217.0,59.0,-100.0,-578.0,89.0
-22.0,-149.0,18.0,-308.0,-279.0,1.0,-111.0,-616.0,78.0
-17.0,-162.0,16.0,-359.0,-310.0,-47.0,-122.0,-666.0,74.0
-23.0,-169.0,12.0,-403.0,-307.0,-85.0,-131.0,-704.0,62.0
-21.0,-183.0,15.0,-435.0,-272.0,-114.0,-135.0,-755.0,52.0
-27.0,-194.0,4.0,-455.0,-207.0,-133.0,-132.0,-794.0,34.0
-20.0,-203.0,-4.0,-451.0,-119.0,-138.0,-129.0,-838.0,3.0
-14.0,-211.0,-4.0,-420.0,-13.0,-132.0,-121.0,-854.0,-10.0
-13.0,-214.0,-16.0,-368.0,99.0,-108.0,-95.0,-881.0,-45.0
-7.0,-220.0,-25.0,-306.0,210.0,-70.0,-50.0,-900.0,-79.0
9.0,-225.0,-35.0,-246.0,308.0,-23.0,10.0,-921.0,-128.0
26.0,-229.0,-48.0,-202.0,383.0,28.0,66.0,-955.0,-162.0
43.0,-239.0,-51.0,-186.0,429.0,81.0,139.0,-984.0,-183.0
55.0,-246.0,-52.0,-201.0,442.0,134.0,204.0,-1020.0,-179.0
66.0,-254.0,-51.0,-240.0,411.0,188.0,252.0,-1063.0,-170.0
76.0,-270.0,-34.0,-289.0,332.0,235.0,285.0,-1119.0,-128.0
79.0,-285.0,-29.0,-336.0,209.0,272.0,311.0,-1178.0,-95.0
78.0,-308.0,-9.0,-377.0,56.0,299.0,301.0,-1263.0,-46.0
73.0,-329.0,0.0,-401.0,-116.0,319.0,269.0,-1354.0,12.0
52.0,-359.0,18.0,-386.0,-300.0,321.0,183.0,-1449.0,87.0
21.0,-384.0,35.0,-314.0,-503.0,313.0,78.0,-1555.0,161.0
-9.0,-418.0,49.0,-192.0,-634.0,288.0,-45.0,-1679.0,210.0
-36.0,-447.0,51.0,-36.0,-696.0,247.0,-173.0,-1779.0,235.0
-52.0,-463.0,44.0,128.0,-657.0,192.0,-259.0,-1877.0,201.0
-65.0,-478.0,30.0,260.0,-521.0,114.0,-319.0,-1952.0,143.0
-74.0,-495.0,18.0,344.0,-313.0,20.0,-351.0,-2018.0,87.0
-77.0,-506.0,5.0,378.0,-82.0,-78.0,-362.0,-2050.0,48.0
-74.0,-506.0,-1.0,382.0,116.0,-172.0,-350.0,-2065.0,7.0
-69.0,-510.0,-14.0,370.0,247.0,-236.0,-304.0,-2070.0,-26.0
-63.0,-507.0,-13.0,355.0,281.0,-259.0,-249.0,-2073.0,-55.0
-57.0,-512.0,-31.0,361.0,196.0,-230.0,-217.0,-2082.0,-99.0
-59.0,-527.0,-37.0,387.0,-7.0,-143.0,-210.0,-2135.0,-123.0
-65.0,-546.0,-12.0,435.0,-288.0,-22.0,-222.0,-2219.0,-48.0
-67.0,-566.0,8.0,518.0,-577.0,102.0,-269.0,-2314.0,70.0
-70.0,-589.0,38.0,642.0,-804.0,206.0,-318.0,-2387.0,166.0
-79.0,-594.0,46.0,777.0,-907.0,285.0,-357.0,-2436.0,199.0
-69.0,-601.0,41.0,871.0,-858.0,334.0,-342.0,-2455.0,190.0
-44.0,-605.0,31.0,865.0,-687.0,320.0,-257.0,-2490.0,160.0
-21.0,-609.0,32.0,728.0,-453.0,236.0,-115.0,-2529.0,143.0
14.0,-628.0,29.0,480.0,-240.0,98.0,31.0,-2604.0,148.0
53.0,-662.0,30.0,171.0,-124.0,-54.0,159.0,-2718.0,143.0
71.0,-700.0,25.0,-136.0,-131.0,-183.0,258.0,-2859.0,122.0
97.0,-737.0,18.0,-394.0,-211.0,-277.0,386.0,-3041.0,121.0
141.0,-791.0,28.0,-580.0,-290.0,-317.0,543.0,-3241.0,143.0
186.0,-844.0,40.0,-662.0,-311.0,-309.0,694.0,-3427.0,190.0
212.0,-893.0,64.0,-639.0,-280.0,-266.0,812.0,-3608.0,277.0
222.0,-935.0,78.0,-525.0,-231.0,-191.0,843.0,-3750.0,344.0
208.0,-953.0,82.0,-307.0,-188.0,-87.0,806.0,-3831.0,369.0
184.0,-946.0,57.0,9.0,-164.0,15.0,714.0,-3808.0,295.0
147.0,-909.0,36.0,371.0,-135.0,96.0,579.0,-3685.0,198.0
103.0,-859.0,15.0,707.0,-56.0,131.0,389.0,-3503.0,156.0
42.0,-807.0,33.0,973.0,51.0,113.0,176.0,-3326.0,154.0
-2.0,-767.0,25.0,1144.0,146.0,50.0,-27.0,-3125.0,119.0
-49.0,-709.0,-7.0,1212.0,199.0,-44.0,-192.0,-2880.0,-21.0
-88.0,-644.0,-62.0,1136.0,198.0,-158.0,-368.0,-2652.0,-236.0
-111.0,-587.0,-105.0,938.0,150.0,-261.0,-450.0,-2431.0,-396.0
-126.0,-522.0,-113.0,696.0,38.0,-334.0,-489.0,-2182.0,-450.0
-130.0,-469.0,-103.0,474.0,-109.0,-354.0,-514.0,-1896.0,-388.0
-125.0,-410.0,-78.0,330.0,-230.0,-291.0,-512.0,-1658.0,-299.0
-114.0,-364.0,-70.0,276.0,-275.0,-166.0,-489.0,-1477.0,-271.0
-105.0,-324.0,-78.0,293.0,-248.0,4.0,-456.0,-1348.0,-298.0
-79.0,-297.0,-88.0,375.0,-198.0,172.0,-354.0,-1228.0,-340.0
-66.0,-282.0,-105.0,483.0,-165.0,280.0,-272.0,-1162.0,-412.0
-36.0,-264.0,-114.0,535.0,-144.0,337.0,-162.0,-1101.0,-449.0
-4.0,-227.0,-97.0,547.0,-125.0,320.0,-51.0,-933.0,-383.0
15.0,-180.0,-86.0,631.0,-81.0,241.0,11.0,-745.0,-324.0
23.0,-120.0,-82.0,812.0,2.0,133.0,41.0,-503.0,-320.0
33.0,-64.0,-76.0,1099.0,118.0,16.0,87.0,-226.0,-311.0
29.0,12.0,-80.0,1483.0,229.0,-94.0,75.0,68.0,-321.0
26.0,72.0,-118.0,1878.0,331.0,-181.0,74.0,266.0,-442.0
29.0,126.0,-135.0,2120.0,413.0,-213.0,70.0,458.0,-517.0
11.0,174.0,-134.0,2136.0,450.0,-216.0,70.0,597.0,-573.0
-9.0,195.0,-139.0,1945.0,411.0,-186.0,-46.0,734.0,-591.0
-55.0,220.0,-143.0,1587.0,260.0,-57.0,-183.0,801.0,-592.0
-60.0,216.0,-150.0,1158.0,4.0,171.0,-227.0,798.0,-644.0
-45.0,189.0,-184.0,708.0,-292.0,429.0,-165.0,678.0,-737.0
-31.0,165.0,-196.0,230.0,-545.0,608.0,-113.0,577.0,-820.0
-9.0,147.0,-205.0,-244.0,-679.0,653.0,-52.0,539.0,-847.0
7.0,131.0,-196.0,-631.0,-658.0,565.0,-5.0,494.0,-804.0
10.0,117.0,-180.0,-899.0,-514.0,372.0,12.0,410.0,-718.0
6.0,79.0,-147.0,-1079.0,-327.0,105.0,-6.0,291.0,-607.0
1.0,51.0,-116.0,-1204.0,-157.0,-159.0,-44.0,162.0,-468.0
1.0,17.0,-71.0,-1295.0,-20.0,-327.0,-26.0,48.0,-280.0
16.0,-9.0,-20.0,-1326.0,90.0,-394.0,38.0,-46.0,-68.0
44.0,-34.0,32.0,-1264.0,192.0,-424.0,113.0,-113.0,108.0
59.0,-40.0,61.0,-1095.0,307.0,-455.0,177.0,-150.0,247.0
73.0,-48.0,75.0,-838.0,431.0,-485.0,223.0,-162.0,329.0
80.0,-46.0,76.0,-543.0,544.0,-502.0,268.0,-174.0,336.0
83.0,-40.0,77.0,-285.0,626.0,-489.0,278.0,-159.0,329.0
74.0,-30.0,75.0,-85.0,672.0,-445.0,267.0,-141.0,309.0
61.0,-34.0,62.0,33.0,675.0,-380.0,221.0,-152.0,273.0
53.0,-29.0,61.0,46.0,636.0,-309.0,179.0,-152.0,252.0
37.0,-28.0,64.0,-6.0,559.0,-252.0,125.0,-135.0,262.0
20.0,-22.0,66.0,-68.0,461.0,-201.0,60.0,-105.0,277.0
6.0,-10.0,74.0,-96.0,354.0,-148.0,4.0,-62.0,296.0
-5.0,1.0,72.0,-68.0,247.0,-89.0,-50.0,-5.0,299.0
-10.0,3.0,74.0,3.0,144.0,-37.0,-89.0,14.0,295.0
-21.0,8.0,71.0,79.0,55.0,3.0,-121.0,25.0,273.0
-26.0,15.0,64.0,135.0,-16.0,22.0,-145.0,41.0,254.0
-34.0,22.0,57.0,160.0,-65.0,35.0,-166.0,69.0,231.0
-33.0,27.0,48.0,164.0,-93.0,41.0,-178.0,78.0,201.0
-39.0,27.0,46.0,148.0,-108.0,46.0,-182.0,103.0,167.0
-37.0,36.0,33.0,126.0,-110.0,49.0,-173.0,112.0,137.0
-31.0,36.0,24.0,101.0,-101.0,52.0,-164.0,121.0,95.0
-31.0,38.0,8.0,77.0,-83.0,56.0,-144.0,129.0,56.0
-22.0,37.0,1.0,56.0,-59.0,57.0,-125.0,127.0,14.0
-17.0,34.0,-5.0,34.0,-30.0,58.0,-103.0,122.0,-27.0
-12.0,34.0,-15.0,6.0,7.0,52.0,-69.0,109.0,-55.0
-1.0,31.0,-23.0,-27.0,45.0,35.0,-46.0,96.0,-90.0
1.0,26.0,-27.0,-62.0,86.0,14.0,-34.0,87.0,-104.0
2.0,20.0,-30.0,-95.0,133.0,-10.0,-25.0,65.0,-115.0
4.0,19.0,-31.0,-127.0,181.0,-35.0,-7.0,46.0,-114.0
7.0,8.0,-27.0,-149.0,231.0,-58.0,0.0,31.0,-107.0
12.0,3.0,-24.0,-157.0,277.0,-81.0,9.0,7.0,-99.0
11.0,0.0,-23.0,-154.0,321.0,-106.0,15.0,-12.0,-94.0
12.0,-3.0,-26.0,-143.0,362.0,-130.0,19.0,-33.0,-76.0
14.0,-7.0,-20.0,-126.0,399.0,-149.0,27.0,-44.0,-72.0
17.0,-12.0,-15.0,-106.0,429.0,-162.0,38.0,-62.0,-61.0
19.0,-16.0,-15.0,-86.0,451.0,-164.0,55.0,-84.0,-59.0
23.0,-19.0,-16.0,-68.0,461.0,-162.0,60.0,-105.0,-55.0
23.0,-23.0,-19.0,-50.0,457.0,-150.0,66.0,-109.0,-50.0
27.0,-24.0,-11.0,-33.0,439.0,-134.0,75.0,-115.0,-46.0
23.0,-24.0,-11.0,-10.0,411.0,-113.0,77.0,-122.0,-43.0
23.0,-27.0,-20.0,22.0,376.0,-91.0,73.0,-116.0,-54.0
26.0,-22.0,-15.0,60.0,339.0,-70.0,68.0,-96.0,-66.0
20.0,-16.0,-19.0,105.0,304.0,-51.0,59.0,-70.0,-82.0
12.0,-9.0,-28.0,150.0,274.0,-34.0,40.0,-42.0,-91.0
12.0,1.0,-31.0,190.0,250.0,-20.0,38.0,-8.0,-102.0
11.0,5.0,-34.0,219.0,233.0,-12.0,24.0,11.0,-119.0
11.0,17.0,-36.0,235.0,228.0,-7.0,18.0,42.0,-128.0
8.0,24.0,-38.0,239.0,234.0,-7.0,15.0,69.0,-144.0
8.0,32.0,-48.0,230.0,251.0,-12.0,6.0,90.0,-162.0
3.0,35.0,-46.0,209.0,276.0,-18.0,-6.0,109.0,-169.0
2.0,38.0,-56.0,176.0,305.0,-28.0,-15.0,125.0,-190.0
1.0,36.0,-57.0,124.0,344.0,-31.0,-16.0,123.0,-210.0
1.0,36.0,-53.0,57.0,380.0,-32.0,-23.0,116.0,-193.0
-1.0,31.0,-50.0,2.0,398.0,-32.0,-18.0,91.0,-189.0
7.0,19.0,-54.0,-38.0,403.0,-31.0,-18.0,78.0,-181.0
0.0,18.0,-48.0,-61.0,399.0,-28.0,-15.0,58.0,-183.0
5.0,14.0,-52.0,-71.0,394.0,-26.0,-8.0,41.0,-188.0
11.0,11.0,-52.0,-71.0,396.0,-25.0,-1.0,33.0,-187.0
9.0,10.0,-49.0,-65.0,412.0,-27.0,11.0,30.0,-185.0
12.0,7.0,-45.0,-56.0,444.0,-30.0,11.0,18.0,-167.0
0.0,7.0,-32.0,-43.0,488.0,-34.0,-32.0,15.0,-122.0
-17.0,-7.0,-43.0,-23.0,524.0,-28.0,-85.0,-31.0,-151.0
-34.0,-21.0,-18.0,-16.0,528.0,-20.0,-162.0,-112.0,-68.0
-128.0,-62.0,9.0,-11.0,462.0,3.0,-517.0,-258.0,47.0
-126.0,-97.0,-2.0,20.0,293.0,67.0,-526.0,-404.0,-30.0
-75.0,-198.0,110.0,124.0,116.0,149.0,-348.0,-696.0,369.0
-62.0,-268.0,144.0,603.0,19.0,180.0,-319.0,-1031.0,602.0
-93.0,-327.0,-7.0,1230.0,127.0,173.0,-437.0,-1345.0,38.0
-144.0,-337.0,-262.0,1379.0,247.0,182.0,-521.0,-1498.0,-965.0
-145.0,-397.0,-368.0,754.0,52.0,202.0,-531.0,-1706.0,-1520.0
-123.0,-504.0,-216.0,-176.0,-258.0,177.0,-487.0,-2044.0,-1061.0
-90.0,-580.0,-112.0,-869.0,-469.0,131.0,-384.0,-2422.0,-455.0
-61.0,-713.0,-15.0,-1361.0,-477.0,103.0,-292.0,-2896.0,-88.0
-35.0,-868.0,70.0,-1626.0,-412.0,139.0,-186.0,-3421.0,349.0
15.0,-1022.0,133.0,-1512.0,-401.0,190.0,-15.0,-4120.0,569.0
95.0,-1135.0,76.0,-1168.0,-460.0,172.0,342.0,-4602.0,368.0
230.0,-1212.0,-16.0,-977.0,-462.0,172.0,955.0,-5064.0,-40.0
320.0,-1316.0,-70.0,-1265.0,-281.0,272.0,1260.0,-5454.0,-210.0
249.0,-1355.0,-12.0,-1727.0,-57.0,392.0,943.0,-5436.0,8.0
65.0,-1264.0,57.0,-1540.0,89.0,489.0,260.0,-4972.0,271.0
-31.0,-1133.0,83.0,-484.0,89.0,649.0,-103.0,-4484.0,388.0
-15.0,-1015.0,87.0,865.0,-97.0,727.0,-64.0,-3946.0,396.0
9.0,-845.0,81.0,1979.0,-236.0,535.0,-20.0,-3373.0,392.0
20.0,-686.0,77.0,2613.0,-148.0,175.0,0.0,-2832.0,376.0
27.0,-543.0,83.0,2723.0,108.0,-177.0,44.0,-2313.0,363.0
30.0,-398.0,46.0,2451.0,357.0,-417.0,74.0,-1781.0,254.0
-1.0,-310.0,-8.0,2009.0,492.0,-500.0,-18.0,-1340.0,-21.0
-71.0,-215.0,-73.0,1459.0,447.0,-423.0,-254.0,-990.0,-271.0
-120.0,-184.0,-96.0,778.0,180.0,-209.0,-441.0,-871.0,-408.0
-125.0,-249.0,-6.0,-2.0,-189.0,100.0,-485.0,-1052.0,-106.0
-122.0,-390.0,110.0,-703.0,-521.0,382.0,-517.0,-1548.0,344.0
-124.0,-482.0,175.0,-1269.0,-683.0,491.0,-576.0,-1993.0,735.0
-108.0,-576.0,205.0,-1629.0,-542.0,459.0,-547.0,-2337.0,870.0
-83.0,-637.0,188.0,-1765.0,-174.0,317.0,-441.0,-2556.0,838.0
-65.0,-649.0,148.0,-1713.0,180.0,97.0,-331.0,-2626.0,650.0
-51.0,-631.0,96.0,-1519.0,347.0,-125.0,-250.0,-2544.0,440.0
-30.0,-617.0,53.0,-1216.0,312.0,-270.0,-103.0,-2434.0,214.0
2.0,-586.0,2.0,-839.0,163.0,-334.0,20.0,-2317.0,11.0
40.0,-537.0,-28.0,-458.0,-4.0,-349.0,140.0,-2149.0,-88.0
64.0,-487.0,-37.0,-99.0,-139.0,-344.0,234.0,-1967.0,-122.0
74.0,-448.0,-34.0,201.0,-239.0,-350.0,279.0,-1772.0,-103.0
77.0,-384.0,-18.0,416.0,-311.0,-361.0,276.0,-1540.0,-50.0
70.0,-323.0,-1.0,555.0,-340.0,-355.0,238.0,-1317.0,-1.0
59.0,-265.0,1.0,639.0,-318.0,-314.0,190.0,-1111.0,27.0
54.0,-214.0,5.0,683.0,-263.0,-243.0,165.0,-906.0,38.0
44.0,-177.0,1.0,712.0,-190.0,-169.0,141.0,-729.0,18.0
40.0,-138.0,-3.0,722.0,-115.0,-111.0,128.0,-582.0,-21.0
33.0,-115.0,-6.0,706.0,-39.0,-94.0,96.0,-473.0,-52.0
23.0,-87.0,-14.0,648.0,18.0,-100.0,66.0,-386.0,-62.0
10.0,-69.0,-16.0,551.0,53.0,-117.0,18.0,-331.0,-60.0
-5.0,-63.0,-13.0,429.0,68.0,-124.0,-46.0,-283.0,-51.0
-20.0,-58.0,-9.0,312.0,63.0,-111.0,-102.0,-260.0,-38.0
-33.0,-55.0,-6.0,211.0,39.0,-91.0,-167.0,-239.0,-34.0
-41.0,-58.0,-6.0,138.0,8.0,-76.0,-171.0,-238.0,-24.0
-48.0,-58.0,-4.0,84.0,-18.0,-73.0,-208.0,-245.0,-24.0
-55.0,-52.0,-5.0,47.0,-37.0,-64.0,-232.0,-232.0,-10.0
-58.0,-52.0,-4.0,51.0,-43.0,-44.0,-261.0,-231.0,-17.0
-60.0,-54.0,-5.0,78.0,-44.0,-15.0,-265.0,-238.0,-30.0
-59.0,-45.0,-11.0,93.0,-47.0,17.0,-256.0,-242.0,-37.0
-54.0,-61.0,-14.0,103.0,-54.0,28.0,-245.0,-244.0,-57.0
-56.0,-59.0,-17.0,105.0,-66.0,25.0,-239.0,-241.0,-80.0
-49.0,-54.0,-30.0,102.0,-77.0,10.0,-219.0,-242.0,-104.0
-40.0,-51.0,-38.0,92.0,-86.0,-16.0,-189.0,-233.0,-125.0
-33.0,-48.0,-39.0,82.0,-98.0,-51.0,-159.0,-207.0,-140.0
-25.0,-45.0,-43.0,79.0,-113.0,-92.0,-122.0,-200.0,-150.0
-19.0,-48.0,-43.0,81.0,-133.0,-125.0,-89.0,-196.0,-167.0
-12.0,-51.0,-46.0,66.0,-162.0,-155.0,-64.0,-225.0,-167.0
-2.0,-63.0,-37.0,30.0,-193.0,-186.0,-36.0,-261.0,-150.0
0.0,-74.0,-32.0,-18.0,-226.0,-217.0,-27.0,-312.0,-128.0
3.0,-90.0,-21.0,-65.0,-255.0,-241.0,-5.0,-388.0,-93.0
6.0,-113.0,-24.0,-111.0,-285.0,-263.0,4.0,-472.0,-71.0
12.0,-141.0,-10.0,-161.0,-307.0,-286.0,17.0,-585.0,-40.0
14.0,-168.0,2.0,-215.0,-324.0,-318.0,26.0,-687.0,5.0
18.0,-199.0,5.0,-256.0,-330.0,-350.0,35.0,-809.0,40.0
24.0,-238.0,17.0,-276.0,-322.0,-376.0,44.0,-938.0,64.0
23.0,-260.0,17.0,-277.0,-304.0,-388.0,59.0,-1070.0,96.0
31.0,-300.0,17.0,-249.0,-286.0,-384.0,83.0,-1203.0,96.0
35.0,-338.0,10.0,-210.0,-280.0,-373.0,112.0,-1395.0,57.0
44.0,-374.0,-6.0,-181.0,-297.0,-353.0,145.0,-1520.0,-8.0
52.0,-389.0,-26.0,-178.0,-327.0,-318.0,176.0,-1624.0,-114.0
64.0,-410.0,-55.0,-207.0,-359.0,-267.0,216.0,-1687.0,-213.0
68.0,-416.0,-75.0,-245.0,-378.0,-204.0,242.0,-1713.0,-286.0
72.0,-420.0,-80.0,-262.0,-379.0,-142.0,264.0,-1703.0,-304.0
78.0,-415.0,-68.0,-230.0,-352.0,-91.0,273.0,-1677.0,-258.0
76.0,-398.0,-52.0,-136.0,-296.0,-51.0,265.0,-1610.0,-179.0
69.0,-378.0,-28.0,32.0,-219.0,-33.0,230.0,-1505.0,-86.0
57.0,-341.0,-8.0,254.0,-133.0,-42.0,177.0,-1381.0,-13.0
46.0,-304.0,11.0,482.0,-49.0,-68.0,136.0,-1214.0,50.0
33.0,-260.0,20.0,667.0,26.0,-94.0,92.0,-1081.0,87.0
22.0,-232.0,30.0,767.0,84.0,-110.0,57.0,-965.0,114.0
14.0,-206.0,34.0,774.0,118.0,-114.0,30.0,-868.0,133.0
10.0,-195.0,39.0,695.0,127.0,-116.0,2.0,-802.0,141.0
2.0,-178.0,32.0,554.0,108.0,-104.0,-15.0,-778.0,130.0
6.0,-188.0,26.0,374.0,69.0,-91.0,-13.0,-778.0,116.0
0.0,-194.0,20.0,184.0,18.0,-79.0,-16.0,-819.0,88.0
4.0,-208.0,18.0,11.0,-45.0,-65.0,-9.0,-873.0,79.0
2.0,-225.0,10.0,-116.0,-103.0,-52.0,-3.0,-931.0,62.0
10.0,-242.0,8.0,-193.0,-148.0,-38.0,3.0,-986.0,50.0
12.0,-250.0,7.0,-227.0,-172.0,-23.0,13.0,-1025.0,36.0
11.0,-256.0,4.0,-229.0,-177.0,-7.0,10.0,-1045.0,38.0
8.0,-254.0,5.0,-203.0,-166.0,14.0,5.0,-1040.0,42.0
10.0,-250.0,13.0,-154.0,-147.0,34.0,12.0,-1018.0,57.0
8.0,-242.0,12.0,-100.0,-123.0,50.0,5.0,-1002.0,55.0
14.0,-238.0,12.0,-56.0,-93.0,61.0,9.0,-982.0,52.0
12.0,-234.0,9.0,-36.0,-63.0,66.0,16.0,-969.0,49.0
11.0,-235.0,7.0,-42.0,-33.0,71.0,15.0,-968.0,40.0
9.0,-233.0,5.0,-61.0,-8.0,71.0,13.0,-968.0,37.0
13.0,-238.0,5.0,-83.0,9.0,72.0,15.0,-978.0,36.0
14.0,-237.0,4.0,-92.0,21.0,71.0,18.0,-978.0,32.0
15.0,-240.0,10.0,-82.0,28.0,69.0,29.0,-980.0,28.0
14.0,-239.0,1.0,-54.0,29.0,63.0,23.0,-982.0,27.0
13.0,-239.0,0.0,-16.0,27.0,53.0,25.0,-977.0,15.0
15.0,-240.0,-9.0,21.0,16.0,39.0,25.0,-975.0,2.0
10.0,-236.0,-7.0,53.0,6.0,25.0,20.0,-975.0,-5.0
15.0,-236.0,-1.0,79.0,-1.0,21.0,24.0,-975.0,-20.0
11.0,-238.0,-7.0,97.0,-5.0,17.0,17.0,-978.0,-11.0
10.0,-244.0,-8.0,108.0,-2.0,17.0,15.0,-1001.0,-23.0
11.0,-253.0,-5.0,110.0,2.0,17.0,10.0,-1019.0,-17.0
9.0,-254.0,-8.0,114.0,5.0,20.0,15.0,-1053.0,-14.0
11.0,-257.0,-1.0,121.0,7.0,21.0,22.0,-1070.0,-17.0
15.0,-266.0,-2.0,136.0,5.0,19.0,30.0,-1097.0,0.0
18.0,-268.0,-6.0,155.0,7.0,19.0,36.0,-1105.0,-2.0
19.0,-270.0,-2.0,187.0,11.0,15.0,41.0,-1113.0,0.0
20.0,-271.0,-8.0,227.0,20.0,5.0,49.0,-1109.0,-3.0
22.0,-268.0,-7.0,273.0,32.0,-6.0,61.0,-1111.0,-16.0
25.0,-270.0,-4.0,314.0,49.0,-20.0,68.0,-1106.0,-15.0
29.0,-264.0,-8.0,345.0,69.0,-33.0,80.0,-1092.0,-20.0
29.0,-261.0,-8.0,365.0,87.0,-47.0,88.0,-1077.0,-21.0
29.0,-259.0,-7.0,377.0,102.0,-56.0,87.0,-1060.0,-18.0
29.0,-253.0,-6.0,381.0,108.0,-62.0,84.0,-1040.0,-22.0
26.0,-246.0,-13.0,381.0,109.0,-64.0,88.0,-1020.0,-13.0
31.0,-247.0,-9.0,374.0,109.0,-63.0,78.0,-1004.0,-21.0
24.0,-241.0,-11.0,365.0,114.0,-64.0,70.0,-994.0,-23.0
23.0,-243.0,-10.0,350.0,120.0,-65.0,63.0,-995.0,-20.0
17.0,-245.0,-9.0,332.0,128.0,-66.0,52.0,-999.0,-16.0
18.0,-245.0,-2.0,314.0,139.0,-68.0,39.0,-1005.0,-15.0
16.0,-250.0,0.0,301.0,152.0,-70.0,28.0,-1021.0,2.0
13.0,-250.0,-1.0,290.0,168.0,-75.0,30.0,-1036.0,4.0
12.0,-253.0,0.0,286.0,184.0,-79.0,21.0,-1039.0,16.0
14.0,-256.0,1.0,283.0,198.0,-80.0,14.0,-1059.0,15.0
6.0,-255.0,3.0,281.0,205.0,-82.0,15.0,-1062.0,19.0
6.0,-256.0,2.0,279.0,210.0,-82.0,12.0,-1064.0,13.0
6.0,-257.0,0.0,272.0,209.0,-82.0,6.0,-1067.0,14.0
6.0,-256.0,1.0,263.0,208.0,-79.0,6.0,-1057.0,12.0
7.0,-252.0,3.0,253.0,206.0,-76.0,10.0,-1053.0,18.0
8.0,-254.0,1.0,246.0,204.0,-71.0,4.0,-1048.0,17.0
8.0,-252.0,4.0,241.0,197.0,-67.0,8.0,-1036.0,21.0
7.0,-247.0,3.0,242.0,190.0,-64.0,12.0,-1025.0,24.0
6.0,-248.0,2.0,245.0,183.0,-64.0,-2.0,-1011.0,26.0
7.0,-246.0,3.0,252.0,177.0,-62.0,2.0,-1001.0,33.0
10.0,-245.0,4.0,256.0,173.0,-61.0,1.0,-992.0,33.0
4.0,-237.0,6.0,257.0,171.0,-60.0,-6.0,-990.0,42.0
2.0,-236.0,11.0,254.0,169.0,-62.0,-2.0,-978.0,49.0
5.0,-237.0,14.0,252.0,168.0,-61.0,-7.0,-974.0,60.0
1.0,-232.0,10.0,251.0,165.0,-62.0,-4.0,-965.0,68.0
2.0,-237.0,13.0,248.0,163.0,-59.0,0.0,-963.0,71.0
5.0,-233.0,18.0,245.0,158.0,-56.0,2.0,-961.0,75.0
9.0,-232.0,14.0,236.0,154.0,-50.0,5.0,-961.0,75.0
8.0,-231.0,17.0,222.0,146.0,-46.0,16.0,-965.0,69.0
12.0,-235.0,17.0,204.0,137.0,-40.0,21.0,-964.0,74.0
14.0,-237.0,13.0,182.0,127.0,-33.0,21.0,-969.0,68.0
12.0,-235.0,15.0,157.0,116.0,-25.0,18.0,-978.0,70.0
14.0,-239.0,18.0,136.0,106.0,-22.0,22.0,-973.0,66.0
11.0,-239.0,14.0,119.0,97.0,-19.0,19.0,-983.0,80.0
14.0,-240.0,17.0,110.0,86.0,-17.0,15.0,-986.0,74.0
6.0,-245.0,17.0,102.0,74.0,-17.0,8.0,-996.0,69.0
5.0,-244.0,12.0,98.0,62.0,-17.0,6.0,-997.0,66.0
4.0,-243.0,14.0,91.0,50.0,-19.0,5.0,-1006.0,61.0
6.0,-244.0,8.0,81.0,41.0,-21.0,4.0,-1006.0,53.0
7.0,-244.0,5.0,65.0,33.0,-20.0,-2.0,-1008.0,50.0
6.0,-246.0,8.0,48.0,27.0,-21.0,-2.0,-1012.0,48.0
1.0,-246.0,4.0,26.0,23.0,-22.0,-4.0,-1013.0,40.0
6.0,-247.0,4.0,7.0,19.0,-20.0,0.0,-1014.0,32.0
4.0,-249.0,6.0,-9.0,19.0,-20.0,1.0,-1020.0,27.0
4.0,-246.0,3.0,-20.0,19.0,-16.0,7.0,-1021.0,25.0
5.0,-249.0,6.0,-23.0,21.0,-12.0,4.0,-1032.0,19.0
13.0,-254.0,2.0,-22.0,25.0,-9.0,12.0,-1037.0,17.0
14.0,-251.0,2.0,-14.0,30.0,-5.0,17.0,-1052.0,20.0
12.0,-256.0,1.0,-6.0,36.0,-3.0,29.0,-1052.0,13.0
16.0,-255.0,0.0,3.0,40.0,0.0,23.0,-1050.0,8.0
15.0,-253.0,0.0,7.0,43.0,4.0,29.0,-1045.0,0.0
15.0,-253.0,-3.0,9.0,44.0,5.0,31.0,-1037.0,2.0
13.0,-252.0,-1.0,9.0,43.0,3.0,37.0,-1035.0,6.0
15.0,-251.0,3.0,4.0,42.0,0.0,38.0,-1027.0,10.0
17.0,-254.0,1.0,-2.0,44.0,-2.0,36.0,-1032.0,11.0
14.0,-250.0,5.0,-8.0,46.0,-7.0,37.0,-1036.0,26.0
19.0,-247.0,2.0,-8.0,50.0,-11.0,32.0,-1034.0,30.0
17.0,-256.0,9.0,-5.0,51.0,-17.0,37.0,-1035.0,38.0
15.0,-251.0,8.0,6.0,54.0,-21.0,34.0,-1030.0,44.0
17.0,-251.0,6.0,18.0,56.0,-25.0,28.0,-1029.0,47.0
16.0,-251.0,4.0,33.0,59.0,-25.0,29.0,-1030.0,45.0
14.0,-249.0,8.0,48.0,62.0,-28.0,28.0,-1028.0,48.0
13.0,-251.0,7.0,58.0,63.0,-32.0,25.0,-1018.0,47.0
12.0,-245.0,11.0,67.0,66.0,-31.0,20.0,-1017.0,51.0
12.0,-248.0,7.0,74.0,68.0,-29.0,15.0,-1017.0,48.0
11.0,-247.0,9.0,78.0,70.0,-26.0,17.0,-1013.0,47.0
10.0,-247.0,12.0,79.0,72.0,-25.0,14.0,-1017.0,49.0
10.0,-247.0,8.0,82.0,73.0,-24.0,10.0,-1018.0,48.0
11.0,-244.0,11.0,86.0,76.0,-23.0,7.0,-1013.0,42.0
11.0,-250.0,6.0,87.0,76.0,-22.0,15.0,-1008.0,37.0
10.0,-246.0,9.0,86.0,77.0,-22.0,10.0,-1011.0,36.0
10.0,-243.0,8.0,80.0,77.0,-22.0,12.0,-1007.0,31.0
9.0,-244.0,6.0,72.0,78.0,-22.0,7.0,-1006.0,38.0
12.0,-246.0,4.0,62.0,81.0,-23.0,11.0,-1008.0,36.0
12.0,-241.0,5.0,53.0,84.0,-24.0,11.0,-1006.0,33.0
10.0,-243.0,7.0,45.0,87.0,-25.0,13.0,-998.0,38.0
9.0,-242.0,4.0,42.0,90.0,-27.0,17.0,-1007.0,34.0
12.0,-242.0,6.0,39.0,93.0,-28.0,20.0,-1004.0,37.0
13.0,-242.0,8.0,36.0,93.0,-28.0,21.0,-994.0,34.0
18.0,-246.0,4.0,30.0,92.0,-27.0,28.0,-1000.0,38.0
12.0,-243.0,6.0,22.0,88.0,-25.0,22.0,-1002.0,42.0
15.0,-244.0,6.0,10.0,81.0,-23.0,37.0,-998.0,41.0
16.0,-243.0,7.0,1.0,75.0,-23.0,29.0,-1007.0,47.0
13.0,-246.0,11.0,-7.0,68.0,-22.0,28.0,-1008.0,53.0
12.0,-247.0,9.0,-15.0,63.0,-19.0,21.0,-1017.0,40.0
11.0,-249.0,11.0,-21.0,58.0,-16.0,18.0,-1021.0,47.0
11.0,-249.0,7.0,-24.0,54.0,-14.0,16.0,-1020.0,46.0
11.0,-250.0,13.0,-22.0,51.0,-12.0,19.0,-1027.0,48.0
11.0,-249.0,11.0,-21.0,47.0,-11.0,16.0,-1028.0,46.0
11.0,-254.0,7.0,-19.0,43.0,-7.0,11.0,-1029.0,44.0
9.0,-254.0,7.0,-16.0,42.0,-5.0,12.0,-1030.0,46.0
11.0,-255.0,3.0,-10.0,40.0,-4.0,10.0,-1030.0,38.0
8.0,-252.0,5.0,-6.0,41.0,-6.0,9.0,-1032.0,30.0
7.0,-250.0,6.0,-2.0,42.0,-5.0,9.0,-1025.0,33.0
7.0,-249.0,1.0,1.0,41.0,-4.0,4.0,-1022.0,31.0
10.0,-251.0,1.0,3.0,37.0,-5.0,12.0,-1021.0,29.0
8.0,-244.0,2.0,4.0,33.0,-5.0,9.0,-1020.0,28.0
10.0,-245.0,1.0,3.0,29.0,-5.0,15.0,-1014.0,28.0
8.0,-245.0,4.0,0.0,22.0,-4.0,17.0,-1019.0,20.0
9.0,-248.0,7.0,-3.0,18.0,-3.0,12.0,-1008.0,16.0
8.0,-248.0,3.0,-8.0,14.0,-4.0,7.0,-1011.0,18.0
6.0,-246.0,2.0,-14.0,8.0,-5.0,10.0,-1015.0,16.0
11.0,-248.0,0.0,-21.0,5.0,-7.0,13.0,-1020.0,17.0
11.0,-246.0,1.0,-26.0,2.0,-7.0,18.0,-1021.0,14.0
14.0,-248.0,2.0,-31.0,6.0,-7.0,26.0,-1027.0,22.0
15.0,-250.0,4.0,-32.0,10.0,-11.0,26.0,-1030.0,23.0
14.0,-253.0,1.0,-26.0,12.0,-12.0,22.0,-1027.0,20.0
15.0,-247.0,5.0,-19.0,16.0,-13.0,37.0,-1033.0,19.0
19.0,-250.0,1.0,-10.0,19.0,-15.0,34.0,-1033.0,19.0
18.0,-251.0,-1.0,-3.0,22.0,-20.0,37.0,-1035.0,11.0
18.0,-252.0,1.0,2.0,26.0,-23.0,42.0,-1031.0,11.0
17.0,-248.0,-1.0,6.0,30.0,-28.0,46.0,-1035.0,13.0
18.0,-249.0,0.0,9.0,33.0,-32.0,48.0,-1026.0,12.0
20.0,-254.0,0.0,13.0,32.0,-36.0,53.0,-1024.0,22.0
18.0,-249.0,1.0,17.0,27.0,-37.0,52.0,-1025.0,20.0
19.0,-248.0,4.0,22.0,18.0,-39.0,50.0,-1021.0,23.0
20.0,-246.0,3.0,26.0,11.0,-38.0,51.0,-1027.0,19.0
18.0,-253.0,3.0,29.0,6.0,-39.0,50.0,-1025.0,22.0
19.0,-250.0,4.0,33.0,4.0,-40.0,43.0,-1030.0,27.0
16.0,-249.0,8.0,37.0,5.0,-40.0,43.0,-1022.0,23.0
19.0,-250.0,4.0,45.0,9.0,-44.0,42.0,-1034.0,22.0
16.0,-253.0,5.0,49.0,13.0,-48.0,41.0,-1030.0,24.0
16.0,-249.0,6.0,54.0,19.0,-49.0,40.0,-1023.0,24.0
17.0,-248.0,4.0,57.0,24.0,-49.0,41.0,-1022.0,26.0
20.0,-248.0,10.0,54.0,24.0,-47.0,40.0,-1021.0,22.0
17.0,-251.0,3.0,52.0,23.0,-45.0,43.0,-1016.0,31.0
15.0,-246.0,4.0,50.0,23.0,-42.0,49.0,-1013.0,32.0
17.0,-248.0,4.0,49.0,22.0,-39.0,46.0,-1012.0,34.0
18.0,-246.0,4.0,52.0,21.0,-34.0,45.0,-1013.0,28.0
16.0,-244.0,3.0,59.0,19.0,-32.0,44.0,-1009.0,35.0
17.0,-246.0,3.0,64.0,19.0,-30.0,38.0,-1011.0,24.0
18.0,-245.0,4.0,68.0,17.0,-27.0,44.0,-1004.0,28.0
24.0,-248.0,6.0,67.0,17.0,-27.0,48.0,-1001.0,26.0
20.0,-244.0,1.0,63.0,18.0,-28.0,44.0,-1004.0,24.0
17.0,-246.0,6.0,54.0,18.0,-27.0,36.0,-1004.0,28.0
16.0,-246.0,2.0,44.0,18.0,-30.0,34.0,-999.0,33.0
13.0,-244.0,6.0,35.0,18.0,-31.0,31.0,-1005.0,37.0
13.0,-245.0,2.0,29.0,22.0,-32.0,29.0,-1005.0,34.0
12.0,-244.0,4.0,25.0,25.0,-35.0,26.0,-1010.0,32.0
14.0,-249.0,7.0,23.0,30.0,-37.0,22.0,-1016.0,35.0
10.0,-247.0,6.0,24.0,35.0,-38.0,28.0,-1022.0,38.0
14.0,-249.0,1.0,22.0,39.0,-38.0,22.0,-1022.0,29.0
18.0,-249.0,7.0,22.0,42.0,-39.0,25.0,-1025.0,30.0
11.0,-249.0,3.0,22.0,44.0,-38.0,29.0,-1019.0,32.0
16.0,-248.0,3.0,20.0,46.0,-38.0,29.0,-1017.0,30.0
15.0,-246.0,2.0,19.0,45.0,-35.0,35.0,-1016.0,29.0
16.0,-250.0,7.0,19.0,43.0,-34.0,29.0,-1024.0,31.0
16.0,-249.0,4.0,18.0,41.0,-31.0,27.0,-1020.0,27.0
15.0,-248.0,4.0,17.0,36.0,-29.0,32.0,-1025.0,27.0
14.0,-249.0,3.0,16.0,35.0,-27.0,25.0,-1021.0,28.0
13.0,-244.0,1.0,17.0,31.0,-24.0,27.0,-1025.0,26.0
13.0,-248.0,2.0,19.0,28.0,-24.0,28.0,-1028.0,31.0
10.0,-251.0,2.0,21.0,26.0,-21.0,24.0,-1030.0,27.0
14.0,-254.0,4.0,25.0,23.0,-19.0,30.0,-1037.0,28.0
5.0,-253.0,3.0,28.0,19.0,-17.0,25.0,-1038.0,23.0
13.0,-252.0,4.0,33.0,17.0,-15.0,23.0,-1047.0,25.0
13.0,-254.0,0.0,39.0,17.0,-15.0,16.0,-1037.0,22.0
12.0,-254.0,5.0,47.0,16.0,-14.0,23.0,-1034.0,29.0
12.0,-249.0,1.0,54.0,16.0,-16.0,18.0,-1034.0,22.0
15.0,-251.0,2.0,60.0,15.0,-14.0,17.0,-1033.0,20.0
14.0,-252.0,2.0,67.0,13.0,-14.0,24.0,-1025.0,18.0
16.0,-249.0,5.0,70.0,10.0,-13.0,26.0,-1018.0,23.0
13.0,-247.0,2.0,73.0,7.0,-12.0,11.0,-1014.0,25.0
12.0,-245.0,3.0,75.0,6.0,-11.0,18.0,-1014.0,32.0
11.0,-239.0,4.0,74.0,4.0,-12.0,17.0,-1008.0,30.0
15.0,-242.0,9.0,74.0,4.0,-14.0,19.0,-1004.0,32.0
11.0,-246.0,3.0,74.0,4.0,-13.0,21.0,-1017.0,36.0
13.0,-248.0,2.0,72.0,7.0,-14.0,18.0,-1014.0,30.0
10.0,-246.0,3.0,70.0,8.0,-17.0,15.0,-1015.0,30.0
11.0,-245.0,5.0,71.0,9.0,-19.0,21.0,-1019.0,31.0
13.0,-246.0,5.0,69.0,12.0,-22.0,24.0,-1017.0,34.0
11.0,-249.0,1.0,67.0,15.0,-24.0,21.0,-1018.0,21.0
14.0,-247.0,5.0,65.0,18.0,-26.0,26.0,-1017.0,32.0
10.0,-251.0,3.0,63.0,22.0,-26.0,28.0,-1014.0,33.0
17.0,-246.0,6.0,63.0,24.0,-28.0,31.0,-1012.0,32.0
16.0,-251.0,11.0,63.0,25.0,-29.0,32.0,-1020.0,25.0
14.0,-247.0,6.0,63.0,24.0,-29.0,31.0,-1014.0,27.0
15.0,-246.0,3.0,64.0,23.0,-31.0,33.0,-1016.0,32.0
14.0,-249.0,2.0,61.0,22.0,-28.0,32.0,-1015.0,34.0
16.0,-249.0,4.0,60.0,21.0,-28.0,32.0,-1018.0,27.0
16.0,-248.0,2.0,58.0,22.0,-28.0,33.0,-1018.0,28.0
14.0,-249.0,2.0,53.0,22.0,-28.0,30.0,-1012.0,24.0
15.0,-249.0,2.0,51.0,25.0,-29.0,31.0,-1019.0,22.0
14.0,-245.0,1.0,49.0,29.0,-29.0,30.0,-1022.0,23.0
13.0,-248.0,2.0,48.0,30.0,-26.0,29.0,-1021.0,24.0
13.0,-250.0,5.0,50.0,31.0,-26.0,32.0,-1024.0,23.0
12.0,-253.0,3.0,52.0,31.0,-23.0,28.0,-1020.0,24.0
13.0,-249.0,7.0,56.0,30.0,-21.0,22.0,-1026.0,23.0
12.0,-247.0,6.0,61.0,28.0,-20.0,23.0,-1026.0,24.0
11.0,-249.0,3.0,64.0,28.0,-19.0,20.0,-1023.0,23.0
10.0,-252.0,1.0,67.0,30.0,-20.0,21.0,-1021.0,20.0
12.0,-248.0,1.0,67.0,31.0,-19.0,19.0,-1020.0,25.0
11.0,-248.0,0.0,68.0,31.0,-18.0,19.0,-1022.0,21.0
13.0,-249.0,0.0,64.0,34.0,-19.0,17.0,-1020.0,20.0
15.0,-251.0,2.0,62.0,36.0,-19.0,18.0,-1022.0,22.0
12.0,-247.0,3.0,60.0,36.0,-17.0,26.0,-1018.0,20.0
11.0,-253.0,1.0,58.0,35.0,-16.0,21.0,-1018.0,24.0
11.0,-246.0,2.0,59.0,33.0,-15.0,25.0,-1021.0,26.0
13.0,-246.0,5.0,60.0,30.0,-15.0,18.0,-1015.0,24.0
12.0,-247.0,1.0,62.0,27.0,-13.0,19.0,-1015.0,27.0
10.0,-247.0,6.0,62.0,25.0,-14.0,17.0,-1024.0,25.0
13.0,-251.0,6.0,61.0,24.0,-15.0,15.0,-1022.0,28.0
10.0,-252.0,2.0,60.0,23.0,-17.0,19.0,-1021.0,29.0
9.0,-247.0,6.0,59.0,23.0,-16.0,17.0,-1025.0,28.0
11.0,-250.0,2.0,59.0,25.0,-17.0,22.0,-1028.0,30.0
13.0,-252.0,0.0,61.0,25.0,-17.0,17.0,-1027.0,28.0
11.0,-250.0,4.0,63.0,25.0,-15.0,19.0,-1032.0,28.0
9.0,-250.0,5.0,66.0,25.0,-13.0,24.0,-1023.0,30.0
9.0,-245.0,7.0,70.0,23.0,-14.0,18.0,-1018.0,26.0
10.0,-244.0,5.0,72.0,21.0,-11.0,22.0,-1022.0,27.0
10.0,-244.0,1.0,73.0,20.0,-12.0,18.0,-1018.0,24.0
12.0,-248.0,3.0,72.0,19.0,-11.0,17.0,-1016.0,32.0
11.0,-246.0,1.0,71.0,19.0,-12.0,19.0,-1018.0,24.0
11.0,-247.0,4.0,69.0,19.0,-10.0,15.0,-1013.0,28.0
15.0,-245.0,3.0,64.0,21.0,-8.0,17.0,-1015.0,24.0
11.0,-247.0,2.0,61.0,24.0,-7.0,23.0,-1009.0,23.0
14.0,-243.0,3.0,57.0,24.0,-6.0,24.0,-1019.0,32.0
16.0,-249.0,6.0,54.0,21.0,-4.0,26.0,-1018.0,26.0
15.0,-251.0,6.0,52.0,17.0,-2.0,26.0,-1017.0,22.0
13.0,-248.0,4.0,53.0,13.0,-1.0,25.0,-1020.0,25.0
13.0,-250.0,2.0,54.0,9.0,-1.0,28.0,-1026.0,25.0
14.0,-252.0,5.0,57.0,5.0,-1.0,23.0,-1023.0,25.0
11.0,-250.0,2.0,59.0,3.0,-2.0,26.0,-1021.0,24.0
15.0,-250.0,5.0,60.0,2.0,-1.0,20.0,-1019.0,20.0
14.0,-248.0,6.0,59.0,1.0,-4.0,22.0,-1019.0,26.0
14.0,-251.0,1.0,57.0,0.0,-2.0,18.0,-1018.0,28.0
14.0,-247.0,6.0,54.0,-1.0,-2.0,22.0,-1021.0,24.0
13.0,-249.0,6.0,49.0,-3.0,0.0,24.0,-1017.0,26.0
12.0,-251.0,3.0,48.0,-6.0,0.0,22.0,-1020.0,25.0
23.0,-257.0,3.0,49.0,-8.0,2.0,24.0,-1021.0,28.0
14.0,-250.0,4.0,52.0,-10.0,3.0,25.0,-1024.0,28.0
15.0,-247.0,4.0,56.0,-11.0,4.0,22.0,-1023.0,25.0
12.0,-249.0,5.0,61.0,-11.0,5.0,23.0,-1021.0,26.0
16.0,-251.0,5.0,65.0,-10.0,5.0,29.0,-1021.0,31.0
16.0,-251.0,8.0,66.0,-8.0,4.0,30.0,-1019.0,29.0
16.0,-250.0,5.0,65.0,-5.0,3.0,32.0,-1022.0,33.0
16.0,-250.0,5.0,64.0,-3.0,3.0,35.0,-1014.0,35.0
17.0,-249.0,7.0,64.0,-2.0,4.0,29.0,-1021.0,30.0
15.0,-248.0,3.0,65.0,-2.0,4.0,36.0,-1022.0,28.0
20.0,-247.0,3.0,68.0,-5.0,3.0,32.0,-1027.0,29.0
15.0,-249.0,3.0,69.0,-7.0,3.0,31.0,-1019.0,32.0
14.0,-246.0,4.0,67.0,-8.0,3.0,34.0,-1017.0,21.0
17.0,-247.0,2.0,64.0,-9.0,1.0,32.0,-1020.0,25.0
14.0,-247.0,1.0,59.0,-10.0,-1.0,29.0,-1016.0,27.0
11.0,-245.0,1.0,54.0,-8.0,-1.0,31.0,-1014.0,25.0
15.0,-248.0,3.0,50.0,-6.0,-3.0,28.0,-1011.0,22.0
13.0,-246.0,4.0,45.0,-4.0,-3.0,32.0,-1016.0,29.0
13.0,-248.0,8.0,45.0,0.0,-3.0,32.0,-1011.0,29.0
13.0,-249.0,1.0,44.0,3.0,-2.0,26.0,-1013.0,31.0
14.0,-244.0,3.0,45.0,3.0,-1.0,32.0,-1019.0,32.0
13.0,-249.0,9.0,48.0,3.0,-2.0,28.0,-1015.0,28.0
12.0,-249.0,10.0,48.0,3.0,0.0,32.0,-1017.0,36.0
12.0,-248.0,2.0,48.0,1.0,1.0,25.0,-1014.0,38.0
14.0,-247.0,5.0,47.0,-1.0,0.0,23.0,-1012.0,34.0
15.0,-244.0,7.0,43.0,-1.0,1.0,24.0,-1015.0,33.0
16.0,-248.0,5.0,39.0,1.0,-1.0,29.0,-1014.0,33.0
15.0,-248.0,8.0,35.0,2.0,0.0,31.0,-1013.0,28.0
18.0,-248.0,5.0,34.0,3.0,-1.0,29.0,-1019.0,34.0
15.0,-244.0,7.0,31.0,3.0,-1.0,30.0,-1017.0,38.0
19.0,-249.0,6.0,30.0,3.0,-2.0,35.0,-1018.0,35.0
13.0,-250.0,8.0,30.0,1.0,-1.0,32.0,-1018.0,32.0
16.0,-249.0,5.0,33.0,1.0,0.0,25.0,-1021.0,35.0
15.0,-247.0,4.0,34.0,0.0,-1.0,27.0,-1018.0,29.0
12.0,-248.0,1.0,36.0,-2.0,-1.0,27.0,-1017.0,33.0
13.0,-249.0,3.0,39.0,-5.0,-3.0,27.0,-1019.0,37.0
12.0,-248.0,3.0,40.0,-6.0,-4.0,22.0,-1016.0,29.0
12.0,-248.0,3.0,41.0,-8.0,-4.0,24.0,-1021.0,30.0
14.0,-251.0,6.0,41.0,-11.0,-3.0,25.0,-1020.0,30.0
14.0,-249.0,1.0,41.0,-13.0,-2.0,24.0,-1020.0,33.0
14.0,-248.0,0.0,42.0,-14.0,-2.0,21.0,-1025.0,26.0
14.0,-245.0,3.0,42.0,-14.0,-2.0,23.0,-1024.0,28.0
18.0,-250.0,4.0,42.0,-13.0,-2.0,22.0,-1021.0,32.0
14.0,-250.0,0.0,44.0,-14.0,0.0,29.0,-1018.0,29.0
12.0,-247.0,5.0,44.0,-14.0,1.0,25.0,-1026.0,32.0
16.0,-250.0,4.0,47.0,-14.0,0.0,29.0,-1028.0,32.0
14.0,-248.0,5.0,50.0,-17.0,2.0,23.0,-1020.0,27.0
16.0,-253.0,5.0,54.0,-18.0,2.0,31.0,-1018.0,29.0
15.0,-246.0,3.0,57.0,-20.0,3.0,24.0,-1017.0,38.0
15.0,-250.0,5.0,61.0,-22.0,2.0,25.0,-1021.0,32.0
16.0,-250.0,5.0,61.0,-23.0,4.0,30.0,-1019.0,33.0
15.0,-249.0,8.0,62.0,-25.0,2.0,27.0,-1018.0,34.0
10.0,-247.0,3.0,61.0,-26.0,0.0,25.0,-1022.0,29.0
14.0,-250.0,10.0,56.0,-26.0,0.0,24.0,-1019.0,29.0
14.0,-249.0,5.0,54.0,-26.0,-1.0,23.0,-1020.0,27.0
13.0,-248.0,2.0,51.0,-25.0,-2.0,26.0,-1019.0,35.0
15.0,-246.0,4.0,51.0,-25.0,-2.0,25.0,-1017.0,30.0
12.0,-245.0,5.0,52.0,-23.0,-4.0,27.0,-1010.0,28.0
17.0,-249.0,5.0,52.0,-22.0,-2.0,29.0,-1013.0,26.0
15.0,-242.0,1.0,53.0,-22.0,-2.0,35.0,-1012.0,29.0
15.0,-250.0,0.0,54.0,-20.0,-3.0,34.0,-1014.0,29.0
13.0,-244.0,4.0,55.0,-19.0,-3.0,28.0,-1017.0,32.0
19.0,-249.0,7.0,56.0,-20.0,-3.0,31.0,-1020.0,26.0
15.0,-249.0,7.0,55.0,-19.0,-3.0,28.0,-1018.0,31.0
14.0,-249.0,1.0,55.0,-18.0,-3.0,31.0,-1015.0,32.0
16.0,-247.0,3.0,54.0,-18.0,-3.0,34.0,-1022.0,31.0
16.0,-249.0,5.0,54.0,-17.0,-3.0,32.0,-1020.0,28.0
17.0,-249.0,2.0,53.0,-18.0,-1.0,32.0,-1017.0,24.0
15.0,-248.0,4.0,54.0,-18.0,-1.0,36.0,-1020.0,29.0
14.0,-250.0,5.0,55.0,-18.0,-2.0,26.0,-1022.0,27.0
19.0,-252.0,4.0,57.0,-16.0,-2.0,29.0,-1022.0,28.0
17.0,-249.0,4.0,58.0,-15.0,-2.0,33.0,-1022.0,32.0
14.0,-246.0,3.0,58.0,-11.0,-4.0,31.0,-1024.0,26.0
16.0,-247.0,3.0,57.0,-8.0,-6.0,32.0,-1020.0,29.0
23.0,-245.0,1.0,58.0,-5.0,-6.0,28.0,-1025.0,26.0
14.0,-248.0,1.0,57.0,-3.0,-6.0,30.0,-1017.0,28.0
17.0,-248.0,5.0,56.0,-2.0,-6.0,29.0,-1016.0,32.0
16.0,-248.0,2.0,55.0,-2.0,-6.0,35.0,-1006.0,23.0
18.0,-249.0,1.0,54.0,0.0,-5.0,35.0,-1015.0,30.0
15.0,-247.0,1.0,54.0,-1.0,-3.0,31.0,-1012.0,21.0
14.0,-248.0,4.0,53.0,-2.0,-4.0,24.0,-1015.0,30.0
11.0,-244.0,8.0,53.0,-2.0,-3.0,28.0,-1018.0,29.0
10.0,-248.0,4.0,53.0,-3.0,-4.0,28.0,-1018.0,30.0
9.0,-246.0,6.0,53.0,-3.0,-4.0,25.0,-1017.0,27.0
15.0,-248.0,2.0,53.0,-4.0,-5.0,25.0,-1018.0,28.0
15.0,-242.0,6.0,54.0,-2.0,-7.0,25.0,-1027.0,29.0
14.0,-248.0,5.0,54.0,0.0,-7.0,30.0,-1024.0,30.0
16.0,-248.0,4.0,53.0,1.0,-9.0,30.0,-1026.0,27.0
13.0,-250.0,1.0,54.0,4.0,-8.0,27.0,-1025.0,29.0
14.0,-251.0,2.0,55.0,3.0,-8.0,34.0,-1026.0,33.0
13.0,-247.0,3.0,56.0,4.0,-7.0,27.0,-1023.0,31.0
12.0,-248.0,6.0,57.0,3.0,-7.0,28.0,-1021.0,32.0
13.0,-248.0,4.0,59.0,2.0,-7.0,32.0,-1020.0,34.0
16.0,-248.0,3.0,60.0,1.0,-8.0,25.0,-1016.0,31.0
18.0,-243.0,4.0,59.0,2.0,-7.0,21.0,-1018.0,28.0
7.0,-247.0,-1.0,58.0,2.0,-7.0,24.0,-1017.0,27.0
14.0,-250.0,4.0,56.0,3.0,-8.0,24.0,-1015.0,26.0
11.0,-244.0,4.0,57.0,3.0,-7.0,28.0,-1014.0,33.0
11.0,-249.0,4.0,58.0,3.0,-7.0,24.0,-1016.0,22.0
13.0,-245.0,4.0,58.0,4.0,-7.0,28.0,-1021.0,29.0
13.0,-248.0,2.0,58.0,2.0,-5.0,26.0,-1013.0,26.0
13.0,-247.0,3.0,60.0,2.0,-8.0,25.0,-1020.0,33.0
11.0,-251.0,5.0,60.0,2.0,-8.0,26.0,-1016.0,32.0
13.0,-250.0,4.0,57.0,1.0,-6.0,21.0,-1019.0,34.0
13.0,-246.0,7.0,53.0,2.0,-7.0,30.0,-1018.0,32.0
14.0,-250.0,4.0,50.0,2.0,-6.0,24.0,-1018.0,35.0
19.0,-244.0,1.0,50.0,4.0,-8.0,27.0,-1021.0,40.0
12.0,-248.0,3.0,51.0,5.0,-7.0,28.0,-1020.0,35.0
15.0,-249.0,4.0,56.0,6.0,-8.0,30.0,-1023.0,34.0
14.0,-249.0,5.0,62.0,5.0,-4.0,30.0,-1030.0,32.0
14.0,-248.0,3.0,66.0,4.0,-6.0,24.0,-1023.0,34.0
15.0,-249.0,2.0,70.0,3.0,-4.0,31.0,-1024.0,27.0
14.0,-249.0,2.0,72.0,2.0,-3.0,35.0,-1020.0,28.0
15.0,-249.0,2.0,71.0,1.0,-4.0,30.0,-1022.0,23.0
10.0,-248.0,3.0,68.0,1.0,-6.0,24.0,-1019.0,30.0
14.0,-245.0,5.0,65.0,1.0,-9.0,27.0,-1019.0,31.0
14.0,-250.0,12.0,60.0,2.0,-10.0,26.0,-1022.0,31.0
9.0,-250.0,-1.0,59.0,4.0,-11.0,27.0,-1020.0,30.0
13.0,-249.0,6.0,59.0,6.0,-12.0,27.0,-1019.0,41.0
15.0,-249.0,3.0,61.0,8.0,-13.0,28.0,-1017.0,29.0
13.0,-246.0,2.0,63.0,10.0,-13.0,32.0,-1021.0,25.0
15.0,-249.0,1.0,65.0,11.0,-11.0,35.0,-1025.0,28.0
17.0,-248.0,2.0,67.0,12.0,-9.0,32.0,-1017.0,21.0
16.0,-246.0,4.0,65.0,12.0,-9.0,30.0,-1013.0,24.0
13.0,-245.0,3.0,63.0,13.0,-10.0,29.0,-1014.0,21.0
13.0,-244.0,4.0,59.0,11.0,-9.0,26.0,-1007.0,25.0
16.0,-247.0,4.0,56.0,12.0,-9.0,26.0,-1013.0,24.0
10.0,-243.0,4.0,51.0,12.0,-6.0,24.0,-1010.0,32.0
15.0,-245.0,5.0,49.0,12.0,-8.0,26.0,-1015.0,37.0
16.0,-246.0,4.0,45.0,15.0,-8.0,26.0,-1011.0,32.0
14.0,-244.0,4.0,43.0,15.0,-8.0,24.0,-1022.0,33.0
14.0,-249.0,3.0,40.0,15.0,-9.0,25.0,-1020.0,36.0
14.0,-250.0,4.0,41.0,17.0,-9.0,25.0,-1026.0,36.0
12.0,-253.0,2.0,43.0,17.0,-8.0,27.0,-1023.0,35.0
14.0,-251.0,4.0,47.0,19.0,-10.0,23.0,-1026.0,33.0
19.0,-252.0,6.0,52.0,21.0,-10.0,28.0,-1026.0,33.0
13.0,-248.0,4.0,57.0,22.0,-13.0,31.0,-1020.0,33.0
15.0,-251.0,5.0,57.0,23.0,-13.0,24.0,-1027.0,24.0
12.0,-252.0,3.0,58.0,24.0,-11.0,27.0,-1016.0,29.0
14.0,-248.0,7.0,59.0,25.0,-12.0,32.0,-1025.0,30.0
14.0,-247.0,2.0,58.0,24.0,-12.0,28.0,-1019.0,27.0
11.0,-247.0,6.0,58.0,23.0,-12.0,27.0,-1020.0,34.0
15.0,-248.0,3.0,58.0,21.0,-10.0,26.0,-1015.0,30.0
15.0,-249.0,3.0,58.0,20.0,-11.0,24.0,-1021.0,35.0
11.0,-247.0,6.0,57.0,20.0,-9.0,27.0,-1017.0,33.0
11.0,-247.0,5.0,56.0,21.0,-8.0,22.0,-1018.0,26.0
10.0,-247.0,4.0,54.0,21.0,-9.0,32.0,-1013.0,38.0
14.0,-249.0,4.0,51.0,21.0,-8.0,24.0,-1016.0,29.0
14.0,-250.0,10.0,50.0,21.0,-7.0,24.0,-1020.0,34.0
17.0,-254.0,8.0,51.0,20.0,-7.0,27.0,-1020.0,31.0
10.0,-246.0,5.0,51.0,18.0,-7.0,21.0,-1018.0,32.0
13.0,-248.0,5.0,53.0,17.0,-7.0,25.0,-1019.0,37.0
11.0,-248.0,3.0,55.0,16.0,-9.0,22.0,-1021.0,35.0
12.0,-249.0,6.0,54.0,14.0,-6.0,23.0,-1020.0,28.0
14.0,-249.0,2.0,51.0,12.0,-8.0,23.0,-1020.0,31.0
13.0,-246.0,4.0,49.0,12.0,-8.0,20.0,-1027.0,33.0
10.0,-248.0,6.0,45.0,12.0,-7.0,23.0,-1019.0,31.0
12.0,-248.0,4.0,43.0,13.0,-10.0,25.0,-1019.0,35.0
13.0,-244.0,2.0,41.0,13.0,-10.0,21.0,-1018.0,34.0
15.0,-247.0,6.0,41.0,14.0,-10.0,28.0,-1012.0,30.0
15.0,-251.0,5.0,42.0,15.0,-10.0,22.0,-1013.0,34.0
13.0,-245.0,7.0,42.0,16.0,-9.0,25.0,-1011.0,36.0
16.0,-248.0,5.0,43.0,17.0,-10.0,30.0,-1014.0,34.0
14.0,-245.0,5.0,43.0,18.0,-11.0,30.0,-1018.0,31.0
16.0,-249.0,2.0,41.0,18.0,-8.0,28.0,-1009.0,29.0
11.0,-245.0,1.0,40.0,17.0,-9.0,31.0,-1016.0,28.0
15.0,-249.0,5.0,38.0,17.0,-10.0,28.0,-1016.0,28.0
13.0,-246.0,4.0,37.0,15.0,-9.0,21.0,-1016.0,31.0
10.0,-248.0,5.0,35.0,14.0,-8.0,29.0,-1015.0,28.0
18.0,-250.0,4.0,36.0,12.0,-9.0,25.0,-1014.0,26.0
21.0,-255.0,12.0,38.0,9.0,-9.0,28.0,-1023.0,27.0
13.0,-248.0,-1.0,39.0,8.0,-10.0,27.0,-1021.0,31.0
13.0,-250.0,2.0,42.0,7.0,-9.0,25.0,-1021.0,28.0
14.0,-253.0,4.0,44.0,5.0,-11.0,32.0,-1020.0,27.0
14.0,-249.0,2.0,47.0,5.0,-10.0,22.0,-1021.0,28.0
16.0,-251.0,2.0,48.0,5.0,-7.0,27.0,-1022.0,26.0
13.0,-251.0,6.0,48.0,5.0,-9.0,28.0,-1030.0,27.0
12.0,-251.0,2.0,46.0,4.0,-8.0,29.0,-1017.0,29.0
11.0,-249.0,3.0,47.0,4.0,-7.0,31.0,-1022.0,32.0
11.0,-249.0,3.0,47.0,1.0,-7.0,26.0,-1022.0,28.0
12.0,-244.0,6.0,47.0,0.0,-6.0,22.0,-1016.0,26.0
11.0,-246.0,1.0,48.0,0.0,-10.0,20.0,-1017.0,25.0
11.0,-247.0,4.0,47.0,1.0,-8.0,27.0,-1013.0,22.0
12.0,-244.0,1.0,46.0,2.0,-8.0,29.0,-1007.0,22.0
14.0,-244.0,4.0,43.0,3.0,-8.0,24.0,-1010.0,22.0
12.0,-247.0,6.0,41.0,4.0,-7.0,26.0,-1011.0,28.0
13.0,-246.0,5.0,40.0,5.0,-7.0,22.0,-1013.0,21.0
10.0,-249.0,2.0,37.0,6.0,-8.0,32.0,-1013.0,26.0
14.0,-249.0,8.0,35.0,7.0,-8.0,25.0,-1017.0,26.0
13.0,-250.0,3.0,34.0,5.0,-7.0,27.0,-1014.0,26.0
11.0,-247.0,0.0,32.0,5.0,-7.0,27.0,-1017.0,30.0
13.0,-251.0,6.0,34.0,4.0,-8.0,28.0,-1026.0,29.0
15.0,-250.0,4.0,35.0,4.0,-8.0,28.0,-1023.0,29.0
16.0,-250.0,1.0,37.0,4.0,-8.0,28.0,-1028.0,26.0
16.0,-252.0,2.0,39.0,5.0,-9.0,29.0,-1031.0,29.0
15.0,-252.0,4.0,41.0,6.0,-11.0,30.0,-1026.0,24.0
14.0,-249.0,3.0,44.0,6.0,-10.0,31.0,-1033.0,27.0
14.0,-251.0,4.0,46.0,5.0,-10.0,30.0,-1039.0,26.0
14.0,-250.0,4.0,50.0,4.0,-11.0,25.0,-1023.0,23.0
11.0,-247.0,1.0,53.0,3.0,-12.0,26.0,-1021.0,23.0
13.0,-249.0,2.0,54.0,3.0,-11.0,24.0,-1024.0,20.0
13.0,-247.0,-1.0,56.0,3.0,-9.0,26.0,-1019.0,25.0
15.0,-247.0,6.0,57.0,1.0,-10.0,28.0,-1019.0,20.0
14.0,-248.0,4.0,56.0,2.0,-9.0,25.0,-1014.0,25.0
14.0,-248.0,2.0,54.0,2.0,-8.0,23.0,-1011.0,24.0
12.0,-244.0,4.0,53.0,1.0,-8.0,21.0,-1005.0,27.0
15.0,-247.0,2.0,50.0,1.0,-8.0,26.0,-1007.0,17.0
13.0,-246.0,3.0,47.0,1.0,-8.0,26.0,-1016.0,27.0
13.0,-246.0,6.0,44.0,0.0,-8.0,23.0,-1013.0,23.0
15.0,-249.0,4.0,42.0,0.0,-6.0,25.0,-1014.0,28.0
15.0,-246.0,3.0,42.0,1.0,-7.0,20.0,-1016.0,36.0
18.0,-252.0,7.0,44.0,2.0,-8.0,32.0,-1019.0,32.0
13.0,-251.0,6.0,46.0,3.0,-9.0,29.0,-1016.0,31.0
8.0,-245.0,3.0,49.0,3.0,-12.0,27.0,-1021.0,33.0
12.0,-248.0,4.0,52.0,4.0,-12.0,29.0,-1014.0,31.0
14.0,-248.0,3.0,52.0,2.0,-11.0,24.0,-1020.0,37.0
10.0,-249.0,4.0,52.0,-1.0,-12.0,24.0,-1023.0,31.0
13.0,-250.0,2.0,51.0,-1.0,-10.0,20.0,-1028.0,31.0
13.0,-248.0,4.0,49.0,-1.0,-12.0,24.0,-1020.0,33.0
12.0,-248.0,2.0,46.0,0.0,-14.0,28.0,-1020.0,23.0
10.0,-248.0,2.0,47.0,2.0,-12.0,29.0,-1021.0,27.0
14.0,-246.0,4.0,49.0,5.0,-12.0,29.0,-1017.0,25.0
13.0,-247.0,2.0,52.0,9.0,-10.0,28.0,-1016.0,25.0
13.0,-239.0,1.0,54.0,8.0,-10.0,31.0,-1016.0,24.0
15.0,-246.0,2.0,55.0,8.0,-10.0,32.0,-1007.0,21.0
14.0,-246.0,3.0,54.0,7.0,-9.0,32.0,-1009.0,26.0
14.0,-244.0,4.0,51.0,4.0,-9.0,30.0,-1011.0,24.0
12.0,-244.0,1.0,48.0,3.0,-8.0,28.0,-1013.0,23.0
13.0,-245.0,3.0,43.0,1.0,-7.0,27.0,-1016.0,28.0
12.0,-248.0,2.0,39.0,0.0,-6.0,25.0,-1016.0,24.0
13.0,-246.0,1.0,34.0,0.0,-6.0,29.0,-1021.0,28.0
10.0,-250.0,4.0,31.0,0.0,-7.0,27.0,-1021.0,30.0
12.0,-252.0,2.0,30.0,1.0,-8.0,26.0,-1029.0,31.0
13.0,-247.0,4.0,31.0,2.0,-7.0,28.0,-1022.0,32.0
11.0,-252.0,3.0,36.0,5.0,-10.0,27.0,-1035.0,30.0
12.0,-252.0,6.0,43.0,6.0,-10.0,23.0,-1030.0,28.0
14.0,-249.0,4.0,50.0,7.0,-10.0,24.0,-1030.0,29.0
13.0,-248.0,0.0,56.0,8.0,-10.0,24.0,-1024.0,28.0
14.0,-250.0,2.0,56.0,9.0,-11.0,25.0,-1010.0,18.0
12.0,-248.0,1.0,49.0,8.0,-10.0,29.0,-1016.0,23.0
12.0,-244.0,1.0,39.0,9.0,-10.0,25.0,-1014.0,14.0
12.0,-243.0,4.0,30.0,8.0,-9.0,27.0,-1005.0,25.0
15.0,-242.0,1.0,19.0,9.0,-11.0,23.0,-1004.0,24.0
12.0,-241.0,0.0,8.0,9.0,-13.0,22.0,-1002.0,27.0
14.0,-244.0,8.0,4.0,10.0,-11.0,23.0,-1003.0,27.0
11.0,-245.0,6.0,0.0,11.0,-10.0,23.0,-1010.0,27.0
16.0,-246.0,4.0,-2.0,12.0,-10.0,21.0,-1013.0,29.0
12.0,-245.0,5.0,1.0,13.0,-10.0,22.0,-1016.0,26.0
14.0,-248.0,4.0,5.0,13.0,-10.0,26.0,-1014.0,37.0
12.0,-246.0,8.0,9.0,15.0,-11.0,26.0,-1022.0,33.0
12.0,-246.0,4.0,10.0,15.0,-10.0,24.0,-1012.0,19.0
13.0,-246.0,3.0,9.0,14.0,-10.0,25.0,-1021.0,28.0
9.0,-246.0,3.0,9.0,13.0,-7.0,22.0,-1016.0,28.0
14.0,-251.0,5.0,7.0,12.0,-7.0,23.0,-1022.0,22.0
15.0,-246.0,7.0,7.0,11.0,-8.0,28.0,-1021.0,32.0
14.0,-254.0,6.0,7.0,10.0,-7.0,30.0,-1023.0,30.0
15.0,-248.0,3.0,7.0,9.0,-8.0,25.0,-1021.0,29.0
14.0,-246.0,3.0,7.0,8.0,-9.0,22.0,-1017.0,33.0
11.0,-248.0,4.0,9.0,7.0,-13.0,21.0,-1011.0,29.0
9.0,-243.0,7.0,10.0,7.0,-17.0,17.0,-1005.0,24.0
10.0,-242.0,4.0,10.0,9.0,-20.0,16.0,-1005.0,29.0
12.0,-245.0,3.0,9.0,11.0,-22.0,14.0,-1011.0,23.0
11.0,-247.0,2.0,2.0,16.0,-19.0,32.0,-1016.0,29.0
20.0,-250.0,4.0,-7.0,28.0,-10.0,48.0,-1032.0,34.0
20.0,-254.0,10.0,-13.0,44.0,0.0,64.0,-1044.0,40.0
33.0,-251.0,9.0,-8.0,61.0,10.0,76.0,-1045.0,53.0
33.0,-255.0,14.0,8.0,72.0,19.0,78.0,-1045.0,51.0
24.0,-255.0,9.0,27.0,68.0,28.0,70.0,-1056.0,50.0
19.0,-256.0,7.0,39.0,45.0,35.0,61.0,-1059.0,37.0
21.0,-255.0,5.0,34.0,5.0,40.0,50.0,-1059.0,20.0
18.0,-254.0,0.0,8.0,-32.0,38.0,45.0,-1061.0,13.0
14.0,-251.0,-7.0,-40.0,-57.0,25.0,31.0,-1040.0,-20.0
13.0,-249.0,-11.0,-105.0,-62.0,7.0,23.0,-1032.0,-29.0
12.0,-249.0,-13.0,-171.0,-54.0,-13.0,16.0,-1024.0,-40.0
11.0,-248.0,-16.0,-229.0,-43.0,-33.0,14.0,-1014.0,-51.0
12.0,-245.0,-15.0,-270.0,-28.0,-49.0,17.0,-1008.0,-50.0
8.0,-244.0,-14.0,-283.0,-9.0,-63.0,19.0,-1007.0,-50.0
9.0,-249.0,-14.0,-266.0,16.0,-71.0,17.0,-1010.0,-27.0
14.0,-251.0,-5.0,-219.0,49.0,-75.0,24.0,-1016.0,-9.0
13.0,-253.0,0.0,-151.0,80.0,-77.0,31.0,-1026.0,1.0
15.0,-257.0,-2.0,-84.0,104.0,-79.0,29.0,-1043.0,4.0
10.0,-252.0,-6.0,-32.0,111.0,-74.0,24.0,-1042.0,-17.0
8.0,-253.0,-6.0,-7.0,101.0,-66.0,23.0,-1041.0,-18.0
8.0,-249.0,-4.0,-6.0,75.0,-58.0,17.0,-1031.0,-23.0
8.0,-249.0,-10.0,-24.0,43.0,-44.0,13.0,-1024.0,-23.0
8.0,-246.0,-10.0,-54.0,14.0,-31.0,4.0,-1023.0,-25.0
7.0,-245.0,-9.0,-85.0,-8.0,-17.0,5.0,-1023.0,-28.0
4.0,-250.0,-10.0,-110.0,-23.0,-6.0,8.0,-1033.0,-39.0
11.0,-251.0,-13.0,-125.0,-32.0,7.0,8.0,-1037.0,-44.0
11.0,-254.0,-18.0,-125.0,-36.0,19.0,11.0,-1048.0,-45.0
13.0,-254.0,-20.0,-112.0,-37.0,30.0,18.0,-1029.0,-58.0
12.0,-246.0,-21.0,-94.0,-32.0,41.0,33.0,-1020.0,-60.0
16.0,-245.0,-15.0,-73.0,-23.0,52.0,41.0,-1006.0,-57.0
19.0,-238.0,-19.0,-52.0,-13.0,61.0,41.0,-987.0,-60.0
17.0,-236.0,-24.0,-36.0,-8.0,67.0,54.0,-968.0,-51.0
20.0,-228.0,-19.0,-31.0,-3.0,75.0,56.0,-950.0,-58.0
20.0,-224.0,-16.0,-39.0,-3.0,85.0,55.0,-935.0,-64.0
20.0,-220.0,-19.0,-56.0,-2.0,94.0,45.0,-922.0,-66.0
17.0,-216.0,-25.0,-74.0,-2.0,107.0,42.0,-902.0,-77.0
19.0,-213.0,-26.0,-99.0,0.0,121.0,48.0,-889.0,-89.0
20.0,-206.0,-28.0,-121.0,5.0,137.0,46.0,-865.0,-108.0
19.0,-202.0,-37.0,-141.0,18.0,155.0,51.0,-841.0,-110.0
18.0,-195.0,-35.0,-156.0,35.0,177.0,52.0,-814.0,-114.0
20.0,-188.0,-30.0,-170.0,58.0,201.0,50.0,-793.0,-114.0
24.0,-185.0,-29.0,-185.0,84.0,225.0,54.0,-761.0,-104.0
27.0,-175.0,-26.0,-205.0,108.0,250.0,54.0,-725.0,-93.0
27.0,-162.0,-23.0,-227.0,138.0,274.0,68.0,-691.0,-78.0
31.0,-152.0,-18.0,-247.0,170.0,295.0,90.0,-647.0,-63.0
39.0,-143.0,-11.0,-258.0,203.0,311.0,116.0,-606.0,-55.0
39.0,-134.0,-14.0,-267.0,230.0,324.0,137.0,-566.0,-48.0
46.0,-123.0,-8.0,-278.0,252.0,331.0,139.0,-511.0,-38.0
41.0,-110.0,-11.0,-278.0,262.0,339.0,142.0,-465.0,-34.0
39.0,-99.0,-7.0,-275.0,252.0,343.0,132.0,-424.0,-30.0
33.0,-91.0,-9.0,-263.0,215.0,337.0,114.0,-387.0,-27.0
22.0,-84.0,-8.0,-242.0,147.0,325.0,80.0,-359.0,-34.0
8.0,-81.0,-15.0,-224.0,44.0,305.0,21.0,-351.0,-55.0
-8.0,-77.0,-27.0,-234.0,-82.0,288.0,-32.0,-343.0,-89.0
-31.0,-80.0,-31.0,-278.0,-223.0,267.0,-103.0,-353.0,-120.0
-48.0,-86.0,-40.0,-364.0,-364.0,244.0,-168.0,-367.0,-142.0
-55.0,-90.0,-40.0,-487.0,-496.0,213.0,-229.0,-401.0,-157.0
-64.0,-104.0,-37.0,-624.0,-604.0,169.0,-279.0,-440.0,-155.0
-81.0,-110.0,-39.0,-756.0,-676.0,111.0,-338.0,-475.0,-138.0
-84.0,-122.0,-32.0,-856.0,-698.0,42.0,-366.0,-507.0,-110.0
-81.0,-128.0,-20.0,-909.0,-668.0,-39.0,-364.0,-526.0,-65.0
-77.0,-131.0,-10.0,-917.0,-590.0,-135.0,-342.0,-548.0,-25.0
-66.0,-134.0,1.0,-880.0,-464.0,-227.0,-326.0,-559.0,24.0
-66.0,-132.0,19.0,-805.0,-296.0,-303.0,-309.0,-550.0,76.0
-58.0,-134.0,28.0,-690.0,-102.0,-343.0,-280.0,-540.0,131.0
-43.0,-134.0,38.0,-545.0,94.0,-344.0,-217.0,-557.0,170.0
-23.0,-136.0,49.0,-390.0,270.0,-317.0,-148.0,-568.0,193.0
-8.0,-143.0,41.0,-238.0,415.0,-276.0,-73.0,-583.0,187.0
10.0,-148.0,39.0,-87.0,518.0,-219.0,1.0,-600.0,168.0
29.0,-161.0,30.0,65.0,563.0,-156.0,74.0,-641.0,139.0
41.0,-167.0,22.0,207.0,548.0,-91.0,139.0,-685.0,95.0
61.0,-181.0,12.0,324.0,473.0,-31.0,209.0,-744.0,58.0
65.0,-192.0,3.0,407.0,352.0,20.0,247.0,-794.0,23.0
67.0,-207.0,-6.0,451.0,207.0,60.0,247.0,-839.0,-11.0
63.0,-217.0,-15.0,453.0,58.0,94.0,229.0,-890.0,-35.0
58.0,-233.0,-14.0,417.0,-73.0,117.0,205.0,-964.0,-45.0
50.0,-246.0,-12.0,349.0,-163.0,123.0,175.0,-1041.0,-34.0
49.0,-272.0,-10.0,264.0,-194.0,104.0,156.0,-1119.0,-37.0
53.0,-295.0,-18.0,169.0,-168.0,62.0,156.0,-1205.0,-38.0
47.0,-313.0,-21.0,71.0,-99.0,-14.0,160.0,-1324.0,-68.0
46.0,-342.0,-35.0,-32.0,-16.0,-73.0,144.0,-1423.0,-107.0
39.0,-371.0,-37.0,-141.0,44.0,-116.0,138.0,-1526.0,-125.0
36.0,-393.0,-42.0,-230.0,52.0,-140.0,118.0,-1611.0,-139.0
28.0,-412.0,-43.0,-264.0,32.0,-133.0,93.0,-1690.0,-140.0
24.0,-432.0,-37.0,-234.0,7.0,-99.0,75.0,-1745.0,-115.0
18.0,-440.0,-24.0,-164.0,-13.0,-56.0,45.0,-1790.0,-78.0
11.0,-449.0,-13.0,-76.0,-14.0,-9.0,27.0,-1828.0,-14.0
7.0,-457.0,6.0,21.0,-10.0,32.0,5.0,-1854.0,40.0
-3.0,-470.0,26.0,128.0,-13.0,69.0,-39.0,-1898.0,109.0
-28.0,-492.0,39.0,235.0,-38.0,109.0,-110.0,-1958.0,160.0
-43.0,-502.0,46.0,315.0,-86.0,139.0,-206.0,-2043.0,205.0
-63.0,-528.0,54.0,358.0,-143.0,155.0,-280.0,-2155.0,249.0
-78.0,-562.0,61.0,379.0,-198.0,156.0,-334.0,-2281.0,255.0
-88.0,-602.0,48.0,368.0,-256.0,135.0,-371.0,-2432.0,218.0
-90.0,-646.0,16.0,323.0,-314.0,101.0,-379.0,-2596.0,130.0
-87.0,-685.0,-2.0,249.0,-370.0,53.0,-377.0,-2788.0,17.0
-83.0,-727.0,-29.0,150.0,-412.0,-9.0,-348.0,-2967.0,-79.0
-67.0,-769.0,-28.0,64.0,-431.0,-70.0,-291.0,-3113.0,-91.0
-55.0,-800.0,-15.0,39.0,-444.0,-108.0,-250.0,-3226.0,-51.0
-51.0,-813.0,-9.0,120.0,-443.0,-114.0,-231.0,-3290.0,-16.0
-45.0,-826.0,-10.0,296.0,-405.0,-94.0,-187.0,-3318.0,-27.0
-25.0,-818.0,-18.0,514.0,-342.0,-69.0,-129.0,-3304.0,-40.0
-8.0,-807.0,-10.0,711.0,-282.0,-58.0,-50.0,-3260.0,-6.0
18.0,-786.0,15.0,855.0,-251.0,-58.0,37.0,-3193.0,74.0
38.0,-776.0,29.0,948.0,-269.0,-58.0,139.0,-3152.0,170.0
61.0,-768.0,49.0,986.0,-336.0,-56.0,217.0,-3118.0,237.0
81.0,-764.0,58.0,957.0,-434.0,-57.0,287.0,-3114.0,251.0
98.0,-766.0,56.0,855.0,-522.0,-63.0,374.0,-3139.0,262.0
114.0,-775.0,61.0,713.0,-568.0,-87.0,419.0,-3172.0,283.0
117.0,-796.0,61.0,574.0,-565.0,-112.0,434.0,-3244.0,292.0
114.0,-806.0,63.0,488.0,-531.0,-128.0,431.0,-3292.0,290.0
110.0,-818.0,58.0,486.0,-476.0,-131.0,392.0,-3310.0,264.0
93.0,-802.0,40.0,575.0,-414.0,-133.0,342.0,-3251.0,218.0
76.0,-772.0,23.0,720.0,-353.0,-136.0,276.0,-3141.0,151.0
66.0,-741.0,10.0,873.0,-297.0,-135.0,218.0,-2990.0,80.0
49.0,-684.0,1.0,998.0,-241.0,-128.0,158.0,-2781.0,39.0
31.0,-620.0,-11.0,1088.0,-183.0,-114.0,102.0,-2559.0,-18.0
24.0,-559.0,-36.0,1123.0,-130.0,-87.0,72.0,-2321.0,-94.0
8.0,-494.0,-63.0,1071.0,-99.0,-61.0,30.0,-2098.0,-192.0
1.0,-445.0,-72.0,945.0,-110.0,-39.0,0.0,-1849.0,-285.0
-2.0,-382.0,-87.0,819.0,-144.0,-16.0,-23.0,-1516.0,-350.0
-11.0,-323.0,-96.0,766.0,-160.0,27.0,-70.0,-1298.0,-377.0
-6.0,-270.0,-103.0,778.0,-126.0,102.0,-59.0,-1116.0,-400.0
0.0,-234.0,-105.0,794.0,-56.0,162.0,-17.0,-984.0,-415.0
3.0,-205.0,-101.0,768.0,19.0,201.0,10.0,-847.0,-379.0
19.0,-170.0,-89.0,713.0,75.0,225.0,46.0,-704.0,-354.0
24.0,-124.0,-69.0,654.0,101.0,209.0,68.0,-507.0,-268.0
16.0,-65.0,-47.0,655.0,113.0,155.0,29.0,-267.0,-174.0
2.0,11.0,-17.0,777.0,143.0,81.0,-19.0,43.0,-59.0
-1.0,65.0,-9.0,1070.0,193.0,-4.0,-38.0,304.0,-34.0
-2.0,122.0,-27.0,1419.0,254.0,-119.0,-47.0,490.0,-122.0
-18.0,171.0,-56.0,1647.0,324.0,-246.0,-103.0,656.0,-226.0
-39.0,205.0,-88.0,1679.0,369.0,-313.0,-165.0,774.0,-347.0
-60.0,238.0,-115.0,1506.0,351.0,-310.0,-235.0,878.0,-447.0
-87.0,251.0,-133.0,1191.0,241.0,-241.0,-340.0,927.0,-548.0
-101.0,246.0,-167.0,789.0,54.0,-80.0,-388.0,922.0,-674.0
-76.0,225.0,-193.0,334.0,-159.0,147.0,-327.0,859.0,-786.0
-50.0,201.0,-210.0,-130.0,-341.0,338.0,-227.0,772.0,-857.0
-33.0,178.0,-216.0,-545.0,-443.0,422.0,-140.0,658.0,-898.0
-8.0,139.0,-210.0,-905.0,-444.0,394.0,-68.0,519.0,-882.0
6.0,94.0,-187.0,-1208.0,-355.0,292.0,-3.0,358.0,-762.0
12.0,24.0,-155.0,-1454.0,-213.0,152.0,12.0,59.0,-626.0
22.0,-39.0,-107.0,-1671.0,-58.0,31.0,47.0,-171.0,-438.0
33.0,-90.0,-66.0,-1800.0,81.0,-57.0,88.0,-374.0,-212.0
46.0,-135.0,-13.0,-1758.0,193.0,-125.0,128.0,-529.0,-33.0
58.0,-168.0,16.0,-1520.0,288.0,-179.0,178.0,-637.0,83.0
68.0,-185.0,34.0,-1131.0,372.0,-229.0,218.0,-692.0,153.0
76.0,-179.0,46.0,-661.0,437.0,-271.0,260.0,-686.0,181.0
82.0,-163.0,45.0,-175.0,486.0,-305.0,287.0,-603.0,180.0
86.0,-132.0,36.0,284.0,514.0,-320.0,307.0,-499.0,159.0
86.0,-90.0,32.0,665.0,523.0,-322.0,305.0,-350.0,135.0
80.0,-49.0,23.0,926.0,521.0,-308.0,291.0,-209.0,113.0
77.0,-5.0,22.0,1067.0,505.0,-281.0,267.0,-61.0,94.0
61.0,34.0,30.0,1095.0,478.0,-239.0,213.0,92.0,107.0
48.0,66.0,33.0,1034.0,427.0,-186.0,156.0,226.0,120.0
34.0,92.0,35.0,904.0,359.0,-140.0,100.0,326.0,134.0
16.0,117.0,38.0,715.0,285.0,-103.0,46.0,387.0,140.0
0.0,121.0,35.0,482.0,213.0,-76.0,-7.0,428.0,150.0
-4.0,118.0,38.0,224.0,150.0,-54.0,-50.0,410.0,150.0
-16.0,107.0,41.0,-31.0,99.0,-38.0,-98.0,383.0,164.0
-20.0,91.0,48.0,-242.0,60.0,-26.0,-122.0,342.0,180.0
-24.0,73.0,50.0,-380.0,35.0,-17.0,-132.0,284.0,202.0
-33.0,57.0,45.0,-443.0,19.0,-15.0,-150.0,203.0,190.0
-35.0,41.0,47.0,-456.0,16.0,-20.0,-167.0,143.0,162.0
-40.0,26.0,36.0,-440.0,16.0,-28.0,-182.0,90.0,154.0
-39.0,23.0,31.0,-409.0,22.0,-34.0,-197.0,58.0,123.0
-39.0,13.0,21.0,-369.0,31.0,-37.0,-189.0,37.0,85.0
-39.0,13.0,11.0,-336.0,46.0,-37.0,-185.0,26.0,48.0
-35.0,7.0,7.0,-313.0,66.0,-33.0,-175.0,18.0,20.0
-34.0,8.0,-2.0,-310.0,88.0,-39.0,-155.0,13.0,-4.0
-22.0,8.0,-8.0,-326.0,110.0,-46.0,-132.0,12.0,-28.0
-15.0,4.0,-12.0,-351.0,135.0,-50.0,-103.0,6.0,-57.0
-9.0,3.0,-22.0,-376.0,169.0,-56.0,-67.0,-4.0,-73.0
-1.0,0.0,-22.0,-399.0,209.0,-70.0,-38.0,-8.0,-87.0
2.0,-1.0,-21.0,-412.0,254.0,-89.0,-21.0,-19.0,-87.0
8.0,-2.0,-20.0,-412.0,302.0,-113.0,-2.0,-19.0,-85.0
16.0,-7.0,-21.0,-393.0,347.0,-138.0,23.0,-40.0,-79.0
16.0,-11.0,-18.0,-361.0,391.0,-166.0,39.0,-51.0,-67.0
22.0,-15.0,-16.0,-320.0,430.0,-192.0,47.0,-65.0,-57.0
25.0,-20.0,-13.0,-272.0,467.0,-210.0,56.0,-79.0,-47.0
25.0,-24.0,-10.0,-218.0,495.0,-223.0,59.0,-99.0,-44.0
21.0,-23.0,-9.0,-158.0,516.0,-230.0,61.0,-101.0,-41.0
25.0,-29.0,-12.0,-92.0,527.0,-230.0,57.0,-115.0,-37.0
23.0,-26.0,-6.0,-26.0,528.0,-219.0,55.0,-116.0,-26.0
19.0,-29.0,-2.0,43.0,516.0,-202.0,45.0,-119.0,-32.0
13.0,-23.0,-12.0,110.0,492.0,-183.0,33.0,-108.0,-33.0
12.0,-21.0,-18.0,168.0,460.0,-163.0,24.0,-95.0,-43.0
10.0,-16.0,-15.0,214.0,419.0,-141.0,18.0,-75.0,-53.0
6.0,-8.0,-20.0,254.0,374.0,-123.0,0.0,-49.0,-81.0
1.0,-2.0,-27.0,272.0,334.0,-102.0,-14.0,-24.0,-101.0
0.0,5.0,-27.0,263.0,300.0,-90.0,-21.0,0.0,-107.0
-5.0,12.0,-31.0,244.0,265.0,-79.0,-46.0,20.0,-122.0
-10.0,16.0,-35.0,213.0,235.0,-70.0,-50.0,43.0,-130.0
-9.0,20.0,-37.0,173.0,210.0,-61.0,-71.0,66.0,-141.0
-13.0,24.0,-36.0,130.0,194.0,-54.0,-87.0,84.0,-147.0
-18.0,29.0,-41.0,88.0,191.0,-43.0,-99.0,94.0,-155.0
-17.0,31.0,-40.0,47.0,202.0,-31.0,-92.0,102.0,-157.0
-19.0,25.0,-45.0,8.0,219.0,-23.0,-94.0,96.0,-157.0
-19.0,30.0,-41.0,-17.0,242.0,-20.0,-98.0,98.0,-154.0
-15.0,24.0,-39.0,-24.0,265.0,-22.0,-105.0,90.0,-145.0
-20.0,25.0,-40.0,-9.0,284.0,-21.0,-111.0,82.0,-143.0
-36.0,18.0,-33.0,22.0,291.0,-19.0,-137.0,63.0,-132.0
-56.0,9.0,-27.0,68.0,273.0,-11.0,-228.0,35.0,-95.0
-83.0,-5.0,-19.0,134.0,213.0,12.0,-359.0,-31.0,-81.0
-66.0,-28.0,-22.0,209.0,130.0,39.0,-284.0,-116.0,-88.0
-63.0,-61.0,-2.0,276.0,61.0,55.0,-273.0,-247.0,-8.0
-77.0,-115.0,47.0,362.0,28.0,81.0,-345.0,-434.0,179.0
-63.0,-159.0,63.0,532.0,56.0,122.0,-275.0,-634.0,285.0
2.0,-218.0,86.0,831.0,169.0,156.0,-65.0,-845.0,369.0
17.0,-255.0,38.0,1255.0,367.0,124.0,48.0,-1036.0,181.0
-17.0,-268.0,-91.0,1513.0,412.0,54.0,2.0,-1177.0,-311.0
-48.0,-288.0,-194.0,1241.0,11.0,15.0,-92.0,-1335.0,-837.0
-64.0,-358.0,-293.0,467.0,-740.0,57.0,-164.0,-1610.0,-1203.0
-19.0,-472.0,-257.0,-527.0,-1443.0,214.0,-77.0,-1996.0,-1055.0
49.0,-607.0,-148.0,-1367.0,-1711.0,412.0,114.0,-2464.0,-624.0
85.0,-746.0,-65.0,-1835.0,-1490.0,533.0,247.0,-2950.0,-249.0
92.0,-845.0,2.0,-1942.0,-1045.0,545.0,268.0,-3419.0,58.0
69.0,-950.0,87.0,-1758.0,-577.0,465.0,202.0,-3798.0,380.0
40.0,-1026.0,126.0,-1360.0,-180.0,319.0,109.0,-4102.0,548.0
10.0,-1067.0,146.0,-922.0,73.0,147.0,25.0,-4301.0,630.0
-20.0,-1057.0,192.0,-533.0,163.0,24.0,-74.0,-4271.0,783.0
-59.0,-1013.0,212.0,-104.0,136.0,-39.0,-251.0,-4060.0,910.0
-55.0,-926.0,202.0,375.0,1.0,-44.0,-241.0,-3746.0,871.0
-21.0,-808.0,167.0,807.0,-226.0,-29.0,-111.0,-3340.0,704.0
23.0,-691.0,126.0,1143.0,-439.0,-10.0,27.0,-2777.0,545.0
59.0,-585.0,77.0,1385.0,-527.0,21.0,178.0,-2406.0,360.0
72.0,-524.0,23.0,1532.0,-470.0,36.0,239.0,-2106.0,86.0
65.0,-459.0,-71.0,1543.0,-358.0,34.0,237.0,-1889.0,-308.0
51.0,-400.0,-182.0,1346.0,-352.0,98.0,210.0,-1712.0,-754.0
38.0,-357.0,-241.0,900.0,-514.0,240.0,185.0,-1552.0,-997.0
32.0,-356.0,-165.0,261.0,-731.0,411.0,113.0,-1498.0,-727.0
47.0,-406.0,-32.0,-288.0,-859.0,611.0,163.0,-1704.0,-59.0
50.0,-525.0,102.0,-533.0,-941.0,629.0,157.0,-2155.0,439.0
35.0,-578.0,199.0,-635.0,-956.0,356.0,57.0,-2370.0,818.0
23.0,-585.0,235.0,-667.0,-767.0,51.0,-19.0,-2394.0,976.0
28.0,-576.0,208.0,-620.0,-362.0,-142.0,9.0,-2349.0,924.0
33.0,-561.0,167.0,-516.0,105.0,-251.0,44.0,-2278.0,704.0
16.0,-539.0,91.0,-417.0,444.0,-298.0,33.0,-2200.0,428.0
3.0,-520.0,35.0,-361.0,573.0,-287.0,2.0,-2137.0,182.0
11.0,-517.0,-4.0,-343.0,545.0,-230.0,26.0,-2118.0,13.0
20.0,-530.0,-7.0,-335.0,426.0,-162.0,73.0,-2138.0,-33.0
27.0,-529.0,-1.0,-300.0,222.0,-101.0,92.0,-2148.0,15.0
19.0,-528.0,19.0,-200.0,20.0,-49.0,77.0,-2136.0,78.0
20.0,-526.0,32.0,-40.0,-177.0,8.0,67.0,-2130.0,136.0
15.0,-510.0,42.0,148.0,-340.0,65.0,38.0,-2076.0,171.0
15.0,-492.0,32.0,345.0,-427.0,118.0,26.0,-1980.0,132.0
16.0,-461.0,10.0,503.0,-425.0,149.0,24.0,-1869.0,61.0
20.0,-424.0,3.0,579.0,-351.0,141.0,34.0,-1729.0,24.0
22.0,-383.0,2.0,576.0,-245.0,101.0,41.0,-1584.0,22.0
20.0,-338.0,4.0,514.0,-133.0,59.0,44.0,-1417.0,33.0
15.0,-307.0,2.0,438.0,-49.0,27.0,77.0,-1270.0,61.0
33.0,-279.0,20.0,349.0,-17.0,-10.0,96.0,-1158.0,82.0
33.0,-259.0,25.0,242.0,-37.0,-40.0,96.0,-1088.0,117.0
25.0,-250.0,23.0,121.0,-83.0,-53.0,76.0,-1054.0,112.0
23.0,-244.0,23.0,-16.0,-123.0,-48.0,73.0,-1031.0,107.0
23.0,-241.0,24.0,-157.0,-149.0,-37.0,63.0,-1010.0,101.0
21.0,-240.0,15.0,-263.0,-163.0,-28.0,48.0,-987.0,82.0
16.0,-237.0,12.0,-320.0,-167.0,-27.0,34.0,-971.0,62.0
15.0,-228.0,3.0,-341.0,-166.0,-26.0,22.0,-945.0,34.0
9.0,-221.0,0.0,-335.0,-153.0,-38.0,6.0,-916.0,8.0
4.0,-210.0,-10.0,-310.0,-128.0,-55.0,-5.0,-872.0,-23.0
1.0,-197.0,-6.0,-272.0,-101.0,-75.0,-24.0,-830.0,-52.0
3.0,-194.0,-25.0,-228.0,-70.0,-98.0,-25.0,-800.0,-79.0
1.0,-181.0,-28.0,-186.0,-32.0,-123.0,-27.0,-755.0,-95.0
-2.0,-175.0,-27.0,-137.0,4.0,-139.0,-34.0,-716.0,-102.0
0.0,-165.0,-27.0,-88.0,38.0,-150.0,-29.0,-683.0,-103.0
-7.0,-149.0,-27.0,-44.0,68.0,-163.0,-52.0,-619.0,-90.0
-12.0,-133.0,-17.0,7.0,88.0,-167.0,-79.0,-561.0,-68.0
-16.0,-117.0,-7.0,75.0,92.0,-157.0,-90.0,-483.0,-37.0
-17.0,-102.0,-7.0,170.0,85.0,-143.0,-85.0,-435.0,-25.0
-8.0,-95.0,-10.0,250.0,70.0,-132.0,-72.0,-401.0,-38.0
-10.0,-91.0,-8.0,283.0,51.0,-123.0,-66.0,-391.0,-27.0
-7.0,-84.0,-12.0,270.0,32.0,-111.0,-48.0,-376.0,-28.0
0.0,-84.0,-4.0,228.0,15.0,-97.0,-31.0,-359.0,-20.0
1.0,-81.0,-4.0,175.0,-4.0,-85.0,-23.0,-351.0,-17.0
3.0,-82.0,-6.0,133.0,-25.0,-79.0,-11.0,-345.0,-19.0
3.0,-78.0,-9.0,105.0,-47.0,-79.0,-7.0,-344.0,-17.0
4.0,-81.0,-10.0,93.0,-68.0,-84.0,-1.0,-350.0,-30.0
3.0,-83.0,-15.0,84.0,-82.0,-91.0,-5.0,-360.0,-33.0
7.0,-90.0,-14.0,73.0,-88.0,-94.0,0.0,-374.0,-57.0
3.0,-90.0,-14.0,55.0,-82.0,-95.0,0.0,-381.0,-50.0
5.0,-95.0,-14.0,45.0,-69.0,-89.0,2.0,-405.0,-50.0
9.0,-105.0,-14.0,42.0,-55.0,-80.0,5.0,-439.0,-45.0
14.0,-113.0,-16.0,34.0,-44.0,-78.0,15.0,-470.0,-42.0
10.0,-123.0,-16.0,27.0,-35.0,-78.0,17.0,-511.0,-42.0
12.0,-136.0,-12.0,24.0,-33.0,-79.0,18.0,-563.0,-38.0
14.0,-150.0,-15.0,22.0,-40.0,-76.0,17.0,-633.0,-48.0
8.0,-167.0,-17.0,13.0,-57.0,-68.0,18.0,-705.0,-53.0
13.0,-188.0,-16.0,-9.0,-79.0,-56.0,25.0,-777.0,-73.0
15.0,-196.0,-27.0,-33.0,-95.0,-46.0,32.0,-828.0,-86.0
20.0,-216.0,-34.0,-47.0,-106.0,-36.0,42.0,-887.0,-115.0
18.0,-229.0,-42.0,-52.0,-105.0,-29.0,50.0,-951.0,-137.0
19.0,-245.0,-42.0,-62.0,-101.0,-29.0,59.0,-1005.0,-146.0
28.0,-260.0,-38.0,-60.0,-92.0,-24.0,63.0,-1071.0,-136.0
23.0,-274.0,-39.0,-47.0,-81.0,-21.0,63.0,-1139.0,-121.0
22.0,-295.0,-31.0,-22.0,-68.0,-19.0,66.0,-1218.0,-105.0
21.0,-314.0,-15.0,22.0,-53.0,-9.0,54.0,-1279.0,-50.0
17.0,-327.0,-5.0,94.0,-39.0,8.0,58.0,-1340.0,-20.0
21.0,-343.0,1.0,186.0,-24.0,23.0,48.0,-1381.0,10.0
20.0,-343.0,3.0,277.0,-6.0,35.0,48.0,-1402.0,20.0
20.0,-340.0,4.0,364.0,15.0,37.0,41.0,-1396.0,24.0
17.0,-329.0,3.0,445.0,44.0,34.0,46.0,-1362.0,26.0
17.0,-318.0,-3.0,513.0,84.0,21.0,40.0,-1320.0,26.0
16.0,-302.0,0.0,561.0,128.0,-1.0,31.0,-1243.0,23.0
14.0,-285.0,4.0,589.0,173.0,-31.0,20.0,-1171.0,29.0
8.0,-259.0,1.0,598.0,216.0,-58.0,16.0,-1096.0,41.0
10.0,-241.0,7.0,588.0,251.0,-82.0,9.0,-1016.0,47.0
13.0,-226.0,12.0,557.0,278.0,-99.0,10.0,-949.0,51.0
15.0,-215.0,12.0,502.0,298.0,-111.0,35.0,-916.0,58.0
18.0,-213.0,14.0,428.0,311.0,-124.0,46.0,-899.0,63.0
20.0,-206.0,12.0,342.0,317.0,-139.0,45.0,-878.0,60.0
18.0,-209.0,16.0,255.0,312.0,-151.0,43.0,-878.0,59.0
17.0,-212.0,11.0,179.0,305.0,-157.0,50.0,-890.0,54.0
22.0,-220.0,10.0,119.0,293.0,-154.0,44.0,-909.0,58.0
20.0,-221.0,7.0,69.0,281.0,-145.0,43.0,-936.0,43.0
21.0,-234.0,8.0,22.0,267.0,-133.0,33.0,-962.0,43.0
16.0,-243.0,1.0,-28.0,256.0,-121.0,35.0,-1010.0,38.0
17.0,-257.0,5.0,-73.0,249.0,-104.0,34.0,-1054.0,33.0
13.0,-265.0,5.0,-108.0,242.0,-84.0,27.0,-1094.0,25.0
15.0,-271.0,2.0,-126.0,233.0,-63.0,35.0,-1114.0,29.0
16.0,-274.0,6.0,-117.0,223.0,-40.0,31.0,-1131.0,40.0
16.0,-281.0,8.0,-79.0,212.0,-23.0,33.0,-1133.0,41.0
16.0,-277.0,10.0,-22.0,203.0,-11.0,28.0,-1132.0,56.0
15.0,-272.0,14.0,46.0,194.0,-3.0,28.0,-1115.0,56.0
13.0,-263.0,12.0,112.0,184.0,1.0,21.0,-1091.0,57.0
3.0,-258.0,11.0,165.0,171.0,7.0,9.0,-1064.0,61.0
4.0,-251.0,12.0,205.0,152.0,10.0,-3.0,-1037.0,60.0
1.0,-244.0,14.0,231.0,133.0,12.0,-9.0,-1016.0,71.0
4.0,-243.0,20.0,253.0,116.0,12.0,-16.0,-985.0,81.0
0.0,-239.0,17.0,272.0,107.0,15.0,-26.0,-970.0,85.0
0.0,-232.0,25.0,287.0,98.0,17.0,-32.0,-965.0,101.0
0.0,-232.0,22.0,297.0,95.0,16.0,-33.0,-960.0,107.0
2.0,-230.0,26.0,304.0,93.0,16.0,-26.0,-961.0,112.0
6.0,-233.0,22.0,302.0,93.0,11.0,-20.0,-959.0,109.0
8.0,-233.0,24.0,296.0,92.0,5.0,-3.0,-960.0,109.0
11.0,-233.0,21.0,284.0,92.0,1.0,7.0,-961.0,104.0
11.0,-234.0,20.0,268.0,94.0,-8.0,23.0,-963.0,96.0
19.0,-234.0,16.0,247.0,96.0,-17.0,36.0,-967.0,89.0
21.0,-232.0,17.0,224.0,103.0,-27.0,53.0,-970.0,84.0
23.0,-235.0,15.0,203.0,110.0,-39.0,62.0,-970.0,79.0
24.0,-235.0,17.0,181.0,118.0,-48.0,71.0,-976.0,79.0
28.0,-237.0,14.0,163.0,127.0,-57.0,81.0,-988.0,77.0
32.0,-242.0,15.0,143.0,140.0,-67.0,87.0,-993.0,67.0
30.0,-242.0,10.0,123.0,155.0,-78.0,87.0,-1006.0,61.0
32.0,-248.0,12.0,104.0,170.0,-88.0,87.0,-1014.0,57.0
27.0,-252.0,12.0,83.0,185.0,-96.0,81.0,-1021.0,58.0
24.0,-247.0,12.0,65.0,198.0,-104.0,78.0,-1027.0,61.0
28.0,-253.0,13.0,49.0,207.0,-107.0,77.0,-1038.0,62.0
30.0,-256.0,13.0,37.0,211.0,-107.0,69.0,-1052.0,65.0
24.0,-255.0,13.0,30.0,213.0,-107.0,64.0,-1042.0,78.0
22.0,-252.0,19.0,28.0,211.0,-99.0,58.0,-1038.0,93.0
20.0,-253.0,18.0,31.0,205.0,-90.0,51.0,-1034.0,88.0
17.0,-251.0,19.0,39.0,198.0,-79.0,43.0,-1034.0,98.0
15.0,-248.0,21.0,44.0,186.0,-67.0,29.0,-1021.0,91.0
16.0,-245.0,20.0,45.0,177.0,-58.0,27.0,-1020.0,90.0
9.0,-245.0,18.0,42.0,169.0,-51.0,14.0,-1010.0,90.0
9.0,-248.0,18.0,34.0,162.0,-43.0,9.0,-1008.0,91.0
8.0,-247.0,21.0,30.0,159.0,-40.0,8.0,-1006.0,101.0
9.0,-249.0,19.0,28.0,159.0,-38.0,0.0,-1011.0,96.0
5.0,-246.0,23.0,29.0,159.0,-36.0,-2.0,-1011.0,93.0
7.0,-247.0,22.0,35.0,158.0,-36.0,-2.0,-1011.0,102.0
8.0,-247.0,21.0,41.0,154.0,-36.0,5.0,-1010.0,100.0
7.0,-245.0,23.0,47.0,148.0,-38.0,4.0,-1011.0,91.0
8.0,-244.0,21.0,55.0,143.0,-42.0,3.0,-1015.0,93.0
7.0,-244.0,16.0,59.0,137.0,-41.0,3.0,-1014.0,92.0
7.0,-243.0,17.0,60.0,133.0,-42.0,7.0,-1009.0,88.0
7.0,-248.0,12.0,59.0,132.0,-44.0,10.0,-1009.0,93.0
10.0,-249.0,23.0,56.0,132.0,-44.0,7.0,-1018.0,96.0
10.0,-247.0,20.0,53.0,134.0,-43.0,10.0,-1014.0,94.0
4.0,-245.0,17.0,50.0,131.0,-39.0,14.0,-1019.0,89.0
10.0,-250.0,20.0,48.0,128.0,-38.0,13.0,-1015.0,95.0
10.0,-247.0,21.0,47.0,124.0,-33.0,12.0,-1015.0,87.0
12.0,-247.0,20.0,49.0,119.0,-32.0,23.0,-1013.0,91.0
11.0,-243.0,24.0,48.0,113.0,-29.0,19.0,-1009.0,95.0
14.0,-249.0,19.0,48.0,107.0,-28.0,21.0,-1010.0,97.0
15.0,-244.0,22.0,47.0,105.0,-27.0,29.0,-1005.0,103.0
14.0,-247.0,20.0,45.0,104.0,-29.0,30.0,-1005.0,105.0
15.0,-249.0,21.0,43.0,103.0,-32.0,35.0,-1011.0,100.0
17.0,-247.0,21.0,41.0,98.0,-32.0,34.0,-1016.0,101.0
17.0,-246.0,25.0,38.0,92.0,-31.0,29.0,-1009.0,104.0
18.0,-245.0,19.0,36.0,86.0,-29.0,36.0,-1014.0,101.0
15.0,-242.0,18.0,35.0,81.0,-29.0,35.0,-1013.0,84.0
15.0,-246.0,17.0,34.0,73.0,-30.0,38.0,-1013.0,86.0
17.0,-245.0,17.0,31.0,66.0,-29.0,36.0,-1013.0,77.0
18.0,-246.0,17.0,29.0,60.0,-27.0,37.0,-1015.0,79.0
18.0,-246.0,15.0,31.0,55.0,-27.0,34.0,-1018.0,85.0
15.0,-249.0,18.0,33.0,51.0,-27.0,34.0,-1017.0,86.0
15.0,-250.0,16.0,38.0,50.0,-26.0,36.0,-1023.0,87.0
13.0,-251.0,14.0,45.0,49.0,-26.0,34.0,-1026.0,92.0
14.0,-248.0,21.0,54.0,44.0,-25.0,34.0,-1023.0,83.0
15.0,-251.0,14.0,60.0,40.0,-24.0,34.0,-1018.0,80.0
13.0,-244.0,13.0,60.0,35.0,-23.0,30.0,-1017.0,76.0
16.0,-246.0,16.0,58.0,31.0,-23.0,28.0,-1021.0,78.0
13.0,-248.0,13.0,56.0,32.0,-23.0,23.0,-1020.0,73.0
14.0,-249.0,16.0,56.0,32.0,-24.0,21.0,-1015.0,84.0
12.0,-248.0,20.0,57.0,34.0,-26.0,25.0,-1016.0,86.0
11.0,-249.0,15.0,61.0,34.0,-27.0,23.0,-1013.0,85.0
14.0,-247.0,17.0,69.0,31.0,-26.0,24.0,-1020.0,81.0
12.0,-249.0,16.0,78.0,28.0,-26.0,33.0,-1020.0,80.0
14.0,-247.0,12.0,88.0,27.0,-25.0,32.0,-1020.0,71.0
16.0,-248.0,15.0,96.0,28.0,-26.0,33.0,-1016.0,66.0
15.0,-254.0,11.0,101.0,32.0,-24.0,37.0,-1013.0,64.0
16.0,-243.0,13.0,104.0,36.0,-24.0,34.0,-1011.0,71.0
15.0,-245.0,16.0,103.0,38.0,-26.0,34.0,-1006.0,67.0
16.0,-244.0,11.0,102.0,38.0,-26.0,33.0,-1008.0,71.0
15.0,-246.0,15.0,100.0,36.0,-24.0,30.0,-1011.0,68.0
16.0,-249.0,16.0,96.0,33.0,-21.0,33.0,-1014.0,78.0
15.0,-246.0,16.0,91.0,32.0,-20.0,27.0,-1014.0,71.0
18.0,-249.0,16.0,85.0,32.0,-18.0,37.0,-1020.0,70.0
19.0,-249.0,17.0,81.0,32.0,-16.0,37.0,-1021.0,72.0
17.0,-247.0,10.0,79.0,34.0,-16.0,40.0,-1022.0,68.0
18.0,-250.0,13.0,81.0,34.0,-16.0,38.0,-1029.0,67.0
16.0,-250.0,17.0,86.0,34.0,-17.0,42.0,-1027.0,65.0
22.0,-251.0,14.0,90.0,30.0,-17.0,38.0,-1021.0,66.0
19.0,-248.0,13.0,92.0,24.0,-16.0,44.0,-1017.0,67.0
16.0,-246.0,13.0,88.0,21.0,-16.0,39.0,-1015.0,65.0
17.0,-246.0,13.0,83.0,20.0,-18.0,39.0,-1019.0,69.0
18.0,-246.0,13.0,77.0,18.0,-17.0,39.0,-1010.0,59.0
20.0,-248.0,15.0,71.0,15.0,-18.0,38.0,-1020.0,59.0
16.0,-250.0,9.0,68.0,15.0,-19.0,38.0,-1021.0,59.0
13.0,-249.0,12.0,70.0,14.0,-18.0,32.0,-1021.0,57.0
15.0,-249.0,5.0,76.0,13.0,-17.0,38.0,-1027.0,49.0
14.0,-255.0,11.0,86.0,13.0,-18.0,37.0,-1032.0,49.0
15.0,-253.0,7.0,98.0,13.0,-17.0,36.0,-1033.0,50.0
16.0,-249.0,12.0,109.0,15.0,-18.0,34.0,-1032.0,52.0
15.0,-250.0,10.0,118.0,17.0,-18.0,32.0,-1028.0,52.0
17.0,-250.0,13.0,124.0,19.0,-18.0,33.0,-1021.0,57.0
12.0,-248.0,11.0,128.0,21.0,-19.0,31.0,-1011.0,56.0
12.0,-246.0,13.0,126.0,22.0,-21.0,22.0,-1008.0,59.0
10.0,-239.0,16.0,124.0,22.0,-21.0,17.0,-1005.0,67.0
13.0,-241.0,15.0,118.0,21.0,-22.0,17.0,-1001.0,60.0
7.0,-239.0,11.0,111.0,17.0,-23.0,15.0,-995.0,72.0
9.0,-241.0,14.0,102.0,12.0,-23.0,9.0,-992.0,75.0
9.0,-241.0,18.0,94.0,7.0,-22.0,8.0,-995.0,76.0
11.0,-244.0,15.0,89.0,3.0,-22.0,12.0,-991.0,83.0
11.0,-241.0,14.0,83.0,2.0,-21.0,15.0,-998.0,87.0
14.0,-244.0,19.0,77.0,1.0,-21.0,18.0,-1003.0,90.0
14.0,-247.0,17.0,72.0,1.0,-20.0,21.0,-1010.0,89.0
12.0,-247.0,17.0,66.0,1.0,-17.0,27.0,-1016.0,81.0
13.0,-248.0,18.0,60.0,-2.0,-15.0,28.0,-1018.0,86.0
13.0,-246.0,20.0,55.0,-6.0,-13.0,30.0,-1019.0,75.0
15.0,-247.0,13.0,52.0,-10.0,-9.0,34.0,-1019.0,74.0
17.0,-246.0,15.0,50.0,-16.0,-7.0,31.0,-1018.0,67.0
16.0,-249.0,14.0,49.0,-23.0,-6.0,35.0,-1017.0,68.0
11.0,-245.0,13.0,46.0,-30.0,-5.0,40.0,-1022.0,65.0
15.0,-245.0,13.0,41.0,-36.0,-5.0,30.0,-1019.0,59.0
16.0,-246.0,13.0,37.0,-38.0,-4.0,29.0,-1017.0,64.0
16.0,-247.0,13.0,32.0,-41.0,-7.0,32.0,-1012.0,67.0
15.0,-248.0,15.0,27.0,-43.0,-9.0,34.0,-1011.0,69.0
15.0,-249.0,15.0,27.0,-45.0,-9.0,31.0,-1017.0,65.0
14.0,-249.0,9.0,30.0,-47.0,-11.0,26.0,-1021.0,66.0
20.0,-246.0,19.0,36.0,-52.0,-10.0,20.0,-1020.0,74.0
14.0,-250.0,14.0,42.0,-56.0,-10.0,18.0,-1015.0,67.0
15.0,-251.0,13.0,48.0,-62.0,-7.0,24.0,-1021.0,73.0
9.0,-240.0,16.0,53.0,-67.0,-5.0,21.0,-1026.0,64.0
11.0,-249.0,14.0,55.0,-72.0,-2.0,19.0,-1025.0,74.0
11.0,-248.0,15.0,54.0,-78.0,4.0,21.0,-1023.0,75.0
14.0,-250.0,13.0,53.0,-82.0,9.0,24.0,-1018.0,71.0
14.0,-247.0,13.0,52.0,-86.0,10.0,21.0,-1019.0,73.0
14.0,-250.0,16.0,50.0,-90.0,13.0,20.0,-1019.0,77.0
11.0,-248.0,16.0,49.0,-94.0,15.0,22.0,-1018.0,70.0
15.0,-249.0,20.0,48.0,-96.0,17.0,20.0,-1018.0,73.0
14.0,-249.0,15.0,47.0,-98.0,18.0,20.0,-1016.0,71.0
15.0,-247.0,15.0,49.0,-97.0,21.0,26.0,-1018.0,71.0
14.0,-247.0,15.0,51.0,-95.0,21.0,27.0,-1020.0,74.0
17.0,-243.0,21.0,51.0,-93.0,22.0,28.0,-1012.0,74.0
16.0,-247.0,15.0,53.0,-91.0,20.0,27.0,-1014.0,71.0
16.0,-247.0,19.0,54.0,-90.0,21.0,28.0,-1015.0,70.0
15.0,-244.0,13.0,52.0,-90.0,19.0,28.0,-1004.0,64.0
17.0,-246.0,13.0,48.0,-89.0,17.0,35.0,-1009.0,59.0
15.0,-245.0,10.0,41.0,-87.0,15.0,26.0,-1008.0,61.0
16.0,-248.0,11.0,32.0,-85.0,11.0,22.0,-1008.0,59.0
16.0,-245.0,14.0,21.0,-82.0,8.0,28.0,-1009.0,57.0
14.0,-246.0,7.0,13.0,-80.0,5.0,30.0,-1010.0,55.0
14.0,-246.0,16.0,9.0,-75.0,4.0,32.0,-1016.0,58.0
17.0,-249.0,10.0,9.0,-72.0,4.0,34.0,-1022.0,58.0
9.0,-250.0,8.0,13.0,-70.0,3.0,33.0,-1016.0,60.0
14.0,-246.0,7.0,16.0,-67.0,5.0,30.0,-1022.0,56.0
14.0,-248.0,10.0,20.0,-65.0,5.0,31.0,-1026.0,61.0
16.0,-249.0,8.0,22.0,-65.0,7.0,31.0,-1021.0,55.0
15.0,-250.0,12.0,22.0,-66.0,7.0,31.0,-1017.0,52.0
20.0,-250.0,8.0,22.0,-68.0,9.0,35.0,-1018.0,46.0
14.0,-248.0,11.0,19.0,-70.0,11.0,30.0,-1020.0,48.0
16.0,-252.0,10.0,17.0,-72.0,13.0,31.0,-1023.0,50.0
13.0,-249.0,11.0,16.0,-73.0,15.0,31.0,-1023.0,54.0
15.0,-252.0,8.0,15.0,-74.0,17.0,29.0,-1023.0,48.0
11.0,-245.0,11.0,14.0,-76.0,19.0,32.0,-1026.0,58.0
17.0,-251.0,14.0,14.0,-78.0,17.0,26.0,-1024.0,53.0
15.0,-248.0,10.0,16.0,-78.0,17.0,25.0,-1022.0,53.0
11.0,-249.0,9.0,21.0,-77.0,15.0,30.0,-1022.0,54.0
12.0,-245.0,6.0,23.0,-76.0,12.0,25.0,-1015.0,55.0
14.0,-248.0,12.0,22.0,-72.0,11.0,27.0,-1009.0,60.0
12.0,-244.0,9.0,18.0,-67.0,10.0,23.0,-1014.0,55.0
14.0,-248.0,11.0,16.0,-63.0,6.0,22.0,-1008.0,55.0
12.0,-246.0,11.0,13.0,-63.0,7.0,19.0,-1008.0,57.0
12.0,-243.0,8.0,11.0,-63.0,6.0,28.0,-1008.0,60.0
14.0,-249.0,5.0,8.0,-63.0,6.0,19.0,-1011.0,59.0
14.0,-249.0,11.0,6.0,-66.0,8.0,28.0,-1003.0,59.0
12.0,-243.0,9.0,5.0,-69.0,10.0,20.0,-1005.0,54.0
11.0,-246.0,11.0,0.0,-74.0,13.0,17.0,-1002.0,50.0
11.0,-244.0,11.0,-5.0,-78.0,16.0,22.0,-1005.0,49.0
10.0,-244.0,7.0,-10.0,-80.0,19.0,26.0,-1004.0,52.0
11.0,-243.0,9.0,-18.0,-80.0,22.0,20.0,-1005.0,49.0
11.0,-246.0,8.0,-26.0,-77.0,23.0,18.0,-1007.0,47.0
9.0,-240.0,10.0,-33.0,-74.0,26.0,18.0,-1008.0,49.0
9.0,-247.0,11.0,-36.0,-70.0,28.0,19.0,-1020.0,51.0
11.0,-246.0,13.0,-38.0,-63.0,29.0,17.0,-1017.0,53.0
12.0,-247.0,15.0,-39.0,-58.0,29.0,21.0,-1023.0,51.0
7.0,-252.0,11.0,-39.0,-53.0,29.0,25.0,-1027.0,45.0
13.0,-250.0,9.0,-41.0,-50.0,29.0,20.0,-1030.0,44.0
11.0,-248.0,8.0,-44.0,-45.0,30.0,25.0,-1033.0,43.0
13.0,-251.0,10.0,-47.0,-42.0,30.0,23.0,-1024.0,45.0
12.0,-251.0,5.0,-47.0,-39.0,30.0,25.0,-1033.0,48.0
15.0,-248.0,3.0,-48.0,-36.0,29.0,32.0,-1027.0,40.0
12.0,-248.0,8.0,-46.0,-36.0,29.0,27.0,-1027.0,44.0
13.0,-249.0,4.0,-40.0,-33.0,29.0,30.0,-1021.0,46.0
15.0,-248.0,12.0,-31.0,-32.0,29.0,29.0,-1027.0,51.0
10.0,-248.0,13.0,-21.0,-27.0,29.0,28.0,-1023.0,47.0
16.0,-250.0,18.0,-10.0,-22.0,27.0,22.0,-1019.0,61.0
12.0,-247.0,9.0,1.0,-19.0,25.0,18.0,-1024.0,58.0
11.0,-247.0,6.0,8.0,-19.0,25.0,18.0,-1019.0,50.0
10.0,-245.0,13.0,12.0,-19.0,24.0,17.0,-1012.0,56.0
12.0,-245.0,9.0,11.0,-20.0,25.0,18.0,-1011.0,54.0
12.0,-244.0,12.0,7.0,-23.0,25.0,19.0,-1016.0,52.0
11.0,-249.0,11.0,3.0,-28.0,25.0,17.0,-1014.0,52.0
13.0,-247.0,7.0,0.0,-32.0,25.0,16.0,-1025.0,46.0
10.0,-249.0,7.0,4.0,-37.0,26.0,12.0,-1023.0,46.0
9.0,-250.0,7.0,12.0,-44.0,25.0,12.0,-1028.0,43.0
10.0,-249.0,6.0,23.0,-49.0,27.0,9.0,-1021.0,43.0
5.0,-238.0,15.0,33.0,-57.0,29.0,11.0,-1019.0,38.0
7.0,-246.0,7.0,41.0,-63.0,27.0,5.0,-1014.0,34.0
7.0,-250.0,4.0,46.0,-68.0,27.0,4.0,-1021.0,42.0
7.0,-248.0,7.0,42.0,-72.0,25.0,7.0,-1029.0,37.0
6.0,-248.0,7.0,37.0,-75.0,23.0,2.0,-1021.0,41.0
7.0,-249.0,7.0,30.0,-76.0,18.0,2.0,-1022.0,41.0
5.0,-247.0,4.0,26.0,-76.0,17.0,0.0,-1022.0,45.0
7.0,-250.0,5.0,24.0,-73.0,14.0,7.0,-1030.0,46.0
10.0,-251.0,9.0,31.0,-69.0,11.0,11.0,-1026.0,48.0
7.0,-250.0,5.0,41.0,-66.0,9.0,13.0,-1031.0,47.0
10.0,-251.0,7.0,53.0,-62.0,7.0,18.0,-1020.0,43.0
12.0,-253.0,10.0,65.0,-60.0,5.0,21.0,-1022.0,43.0
12.0,-252.0,8.0,74.0,-57.0,5.0,29.0,-1022.0,50.0
15.0,-249.0,10.0,79.0,-58.0,2.0,25.0,-1019.0,43.0
15.0,-249.0,11.0,81.0,-60.0,2.0,30.0,-1022.0,51.0
14.0,-247.0,11.0,81.0,-62.0,-1.0,30.0,-1021.0,50.0
16.0,-248.0,8.0,77.0,-64.0,-4.0,29.0,-1019.0,49.0
14.0,-250.0,9.0,73.0,-65.0,-6.0,31.0,-1019.0,53.0
14.0,-245.0,11.0,69.0,-66.0,-8.0,28.0,-1020.0,49.0
18.0,-250.0,8.0,65.0,-63.0,-10.0,34.0,-1018.0,45.0
16.0,-248.0,8.0,64.0,-59.0,-11.0,39.0,-1019.0,49.0
18.0,-251.0,13.0,63.0,-55.0,-13.0,40.0,-1021.0,53.0
16.0,-248.0,11.0,64.0,-52.0,-14.0,37.0,-1019.0,66.0
15.0,-248.0,11.0,65.0,-49.0,-14.0,39.0,-1020.0,59.0
16.0,-252.0,10.0,68.0,-46.0,-15.0,36.0,-1017.0,59.0
13.0,-248.0,12.0,71.0,-45.0,-16.0,33.0,-1015.0,60.0
14.0,-247.0,9.0,72.0,-41.0,-14.0,30.0,-1013.0,61.0
11.0,-245.0,10.0,70.0,-38.0,-17.0,30.0,-1008.0,60.0
13.0,-242.0,8.0,67.0,-34.0,-18.0,20.0,-1006.0,53.0
12.0,-242.0,13.0,63.0,-31.0,-19.0,19.0,-1007.0,56.0
12.0,-245.0,8.0,58.0,-29.0,-18.0,19.0,-1005.0,54.0
12.0,-246.0,10.0,52.0,-25.0,-19.0,14.0,-1005.0,58.0
11.0,-248.0,14.0,48.0,-22.0,-18.0,18.0,-1006.0,56.0
11.0,-245.0,12.0,42.0,-22.0,-18.0,17.0,-1005.0,52.0
10.0,-245.0,12.0,38.0,-22.0,-16.0,12.0,-1008.0,59.0
9.0,-246.0,7.0,35.0,-26.0,-16.0,12.0,-1012.0,57.0
9.0,-248.0,11.0,34.0,-29.0,-13.0,11.0,-1012.0,50.0
8.0,-245.0,13.0,32.0,-30.0,-14.0,9.0,-1008.0,54.0
8.0,-246.0,10.0,30.0,-27.0,-14.0,8.0,-1013.0,56.0
7.0,-246.0,9.0,30.0,-27.0,-15.0,10.0,-1017.0,58.0
7.0,-247.0,14.0,29.0,-29.0,-16.0,8.0,-1013.0,53.0
9.0,-247.0,12.0,27.0,-28.0,-17.0,14.0,-1018.0,58.0
11.0,-248.0,12.0,26.0,-27.0,-17.0,14.0,-1019.0,57.0
11.0,-245.0,12.0,26.0,-28.0,-17.0,12.0,-1017.0,61.0
8.0,-247.0,10.0,26.0,-28.0,-19.0,15.0,-1022.0,52.0
12.0,-250.0,11.0,26.0,-27.0,-17.0,22.0,-1023.0,49.0
13.0,-251.0,6.0,26.0,-27.0,-17.0,21.0,-1025.0,50.0
11.0,-248.0,8.0,27.0,-26.0,-16.0,25.0,-1025.0,54.0
13.0,-250.0,5.0,28.0,-26.0,-17.0,20.0,-1030.0,48.0
11.0,-250.0,9.0,32.0,-26.0,-16.0,28.0,-1027.0,48.0
16.0,-249.0,10.0,37.0,-25.0,-14.0,27.0,-1021.0,47.0
14.0,-244.0,4.0,41.0,-25.0,-12.0,30.0,-1022.0,46.0
13.0,-252.0,8.0,44.0,-23.0,-13.0,31.0,-1025.0,52.0
9.0,-245.0,5.0,50.0,-19.0,-13.0,29.0,-1025.0,53.0
15.0,-249.0,8.0,52.0,-16.0,-15.0,29.0,-1021.0,46.0
15.0,-247.0,12.0,56.0,-12.0,-14.0,36.0,-1016.0,47.0
18.0,-248.0,8.0,56.0,-9.0,-14.0,33.0,-1017.0,53.0
16.0,-248.0,8.0,58.0,-2.0,-11.0,35.0,-1018.0,51.0
19.0,-250.0,11.0,62.0,4.0,-13.0,34.0,-1012.0,54.0
20.0,-247.0,9.0,67.0,9.0,-15.0,37.0,-1022.0,58.0
16.0,-248.0,13.0,70.0,14.0,-15.0,34.0,-1020.0,58.0
19.0,-248.0,8.0,74.0,18.0,-18.0,36.0,-1020.0,60.0
14.0,-245.0,12.0,76.0,23.0,-22.0,35.0,-1018.0,60.0
17.0,-247.0,15.0,78.0,28.0,-24.0,34.0,-1020.0,62.0
15.0,-251.0,9.0,78.0,33.0,-28.0,36.0,-1022.0,57.0
16.0,-248.0,9.0,76.0,39.0,-33.0,35.0,-1015.0,57.0
17.0,-248.0,12.0,76.0,45.0,-37.0,36.0,-1017.0,56.0
16.0,-249.0,13.0,76.0,49.0,-40.0,32.0,-1025.0,62.0
14.0,-247.0,13.0,76.0,57.0,-44.0,32.0,-1017.0,54.0
14.0,-249.0,11.0,78.0,64.0,-48.0,29.0,-1025.0,59.0
12.0,-249.0,11.0,82.0,72.0,-51.0,33.0,-1025.0,54.0
15.0,-251.0,7.0,87.0,78.0,-53.0,22.0,-1022.0,65.0
14.0,-249.0,9.0,92.0,82.0,-55.0,25.0,-1023.0,60.0
17.0,-245.0,11.0,95.0,87.0,-56.0,24.0,-1026.0,58.0
10.0,-244.0,13.0,99.0,88.0,-56.0,28.0,-1020.0,58.0
11.0,-246.0,15.0,101.0,91.0,-57.0,26.0,-1024.0,56.0
10.0,-247.0,12.0,103.0,94.0,-56.0,23.0,-1019.0,56.0
16.0,-250.0,12.0,104.0,96.0,-55.0,21.0,-1020.0,50.0
14.0,-248.0,9.0,102.0,99.0,-54.0,20.0,-1017.0,56.0
11.0,-249.0,10.0,102.0,99.0,-55.0,22.0,-1021.0,56.0
11.0,-246.0,13.0,103.0,96.0,-51.0,24.0,-1018.0,56.0
13.0,-246.0,13.0,104.0,93.0,-51.0,21.0,-1014.0,62.0
16.0,-248.0,13.0,107.0,88.0,-48.0,18.0,-1014.0,62.0
15.0,-248.0,15.0,110.0,82.0,-47.0,22.0,-1016.0,63.0
14.0,-247.0,13.0,110.0,77.0,-45.0,18.0,-1011.0,62.0
10.0,-249.0,11.0,111.0,73.0,-46.0,16.0,-1015.0,62.0
12.0,-247.0,12.0,109.0,70.0,-44.0,14.0,-1014.0,61.0
10.0,-246.0,13.0,104.0,69.0,-45.0,16.0,-1016.0,55.0
13.0,-245.0,11.0,99.0,70.0,-45.0,13.0,-1016.0,60.0
12.0,-248.0,15.0,96.0,72.0,-44.0,13.0,-1018.0,68.0
11.0,-246.0,8.0,90.0,75.0,-43.0,16.0,-1012.0,61.0
12.0,-246.0,10.0,85.0,77.0,-43.0,22.0,-1016.0,63.0
13.0,-247.0,10.0,81.0,82.0,-41.0,21.0,-1012.0,58.0
10.0,-249.0,16.0,77.0,83.0,-37.0,23.0,-1013.0,57.0
13.0,-246.0,12.0,73.0,85.0,-35.0,20.0,-1018.0,59.0
10.0,-249.0,18.0,70.0,83.0,-30.0,24.0,-1017.0,57.0
15.0,-250.0,13.0,69.0,83.0,-30.0,27.0,-1020.0,63.0
15.0,-250.0,11.0,70.0,82.0,-27.0,25.0,-1021.0,62.0
13.0,-250.0,11.0,74.0,82.0,-26.0,24.0,-1021.0,65.0
15.0,-251.0,12.0,78.0,83.0,-27.0,23.0,-1024.0,61.0
14.0,-252.0,15.0,83.0,85.0,-27.0,30.0,-1032.0,67.0
17.0,-249.0,14.0,92.0,89.0,-27.0,23.0,-1024.0,66.0
14.0,-249.0,14.0,99.0,93.0,-29.0,26.0,-1019.0,61.0
13.0,-249.0,9.0,105.0,98.0,-29.0,32.0,-1019.0,58.0
14.0,-248.0,12.0,109.0,105.0,-29.0,36.0,-1017.0,54.0
16.0,-251.0,9.0,111.0,108.0,-31.0,36.0,-1019.0,56.0
18.0,-245.0,11.0,110.0,112.0,-29.0,35.0,-1019.0,51.0
14.0,-251.0,7.0,107.0,113.0,-30.0,36.0,-1017.0,47.0
15.0,-245.0,12.0,104.0,111.0,-30.0,36.0,-1017.0,56.0
14.0,-245.0,10.0,101.0,110.0,-30.0,35.0,-1015.0,59.0
14.0,-246.0,13.0,103.0,106.0,-32.0,36.0,-1015.0,59.0
13.0,-246.0,14.0,103.0,103.0,-33.0,31.0,-1020.0,56.0
14.0,-249.0,12.0,104.0,102.0,-33.0,29.0,-1019.0,61.0
14.0,-248.0,13.0,104.0,101.0,-34.0,28.0,-1020.0,61.0
10.0,-246.0,13.0,103.0,102.0,-34.0,29.0,-1021.0,63.0
16.0,-249.0,11.0,99.0,103.0,-34.0,27.0,-1027.0,59.0
18.0,-248.0,13.0,98.0,103.0,-35.0,31.0,-1019.0,61.0
17.0,-246.0,15.0,97.0,104.0,-36.0,31.0,-1021.0,57.0
15.0,-251.0,11.0,94.0,103.0,-36.0,28.0,-1015.0,60.0
12.0,-247.0,8.0,92.0,100.0,-36.0,31.0,-1013.0,54.0
13.0,-244.0,14.0,88.0,95.0,-36.0,29.0,-1016.0,55.0
12.0,-245.0,8.0,84.0,91.0,-36.0,27.0,-1015.0,53.0
16.0,-246.0,10.0,80.0,88.0,-36.0,28.0,-1007.0,53.0
13.0,-245.0,17.0,74.0,86.0,-35.0,28.0,-1008.0,63.0
16.0,-243.0,11.0,66.0,82.0,-34.0,37.0,-1008.0,59.0
17.0,-241.0,14.0,61.0,80.0,-34.0,37.0,-1009.0,60.0
16.0,-246.0,12.0,53.0,81.0,-35.0,38.0,-1005.0,57.0
16.0,-246.0,10.0,45.0,82.0,-34.0,39.0,-1009.0,56.0
18.0,-254.0,14.0,37.0,81.0,-34.0,36.0,-1009.0,60.0
16.0,-244.0,9.0,30.0,81.0,-35.0,42.0,-1012.0,60.0
17.0,-247.0,12.0,24.0,80.0,-34.0,39.0,-1012.0,60.0
16.0,-246.0,10.0,19.0,82.0,-34.0,40.0,-1011.0,57.0
18.0,-249.0,10.0,13.0,83.0,-36.0,34.0,-1023.0,53.0
16.0,-245.0,12.0,6.0,85.0,-40.0,33.0,-1015.0,52.0
18.0,-249.0,14.0,2.0,88.0,-42.0,36.0,-1019.0,50.0
12.0,-245.0,12.0,-4.0,90.0,-44.0,37.0,-1020.0,56.0
17.0,-251.0,9.0,-10.0,93.0,-46.0,36.0,-1019.0,53.0
18.0,-248.0,13.0,-14.0,96.0,-47.0,33.0,-1021.0,49.0
14.0,-248.0,9.0,-18.0,98.0,-49.0,37.0,-1019.0,49.0
16.0,-247.0,7.0,-17.0,99.0,-47.0,36.0,-1019.0,46.0
15.0,-244.0,12.0,-15.0,102.0,-49.0,34.0,-1021.0,51.0
16.0,-247.0,9.0,-11.0,102.0,-49.0,35.0,-1018.0,54.0
14.0,-245.0,12.0,-10.0,102.0,-50.0,28.0,-1019.0,47.0
17.0,-248.0,11.0,-7.0,102.0,-49.0,31.0,-1014.0,55.0
17.0,-251.0,9.0,-6.0,103.0,-49.0,36.0,-1018.0,59.0
15.0,-250.0,10.0,-6.0,104.0,-50.0,30.0,-1020.0,54.0
16.0,-249.0,9.0,-6.0,104.0,-48.0,38.0,-1020.0,56.0
18.0,-248.0,12.0,-6.0,107.0,-48.0,38.0,-1029.0,43.0
14.0,-247.0,4.0,-3.0,107.0,-48.0,38.0,-1021.0,50.0
17.0,-250.0,6.0,4.0,107.0,-47.0,38.0,-1021.0,47.0
18.0,-251.0,7.0,9.0,109.0,-47.0,39.0,-1027.0,44.0
17.0,-250.0,9.0,15.0,110.0,-47.0,41.0,-1018.0,43.0
20.0,-248.0,7.0,19.0,111.0,-46.0,41.0,-1020.0,39.0
17.0,-248.0,3.0,21.0,111.0,-46.0,35.0,-1020.0,39.0
20.0,-248.0,8.0,20.0,109.0,-46.0,41.0,-1015.0,38.0
20.0,-247.0,4.0,18.0,108.0,-45.0,40.0,-1009.0,37.0
19.0,-246.0,10.0,13.0,105.0,-45.0,38.0,-1012.0,43.0
18.0,-248.0,7.0,6.0,104.0,-43.0,40.0,-1012.0,45.0
18.0,-243.0,8.0,0.0,103.0,-42.0,38.0,-1010.0,45.0
18.0,-247.0,4.0,-6.0,103.0,-39.0,30.0,-1010.0,52.0
14.0,-246.0,6.0,-10.0,103.0,-39.0,37.0,-1017.0,44.0
19.0,-246.0,7.0,-12.0,105.0,-35.0,38.0,-1018.0,49.0
15.0,-247.0,5.0,-12.0,106.0,-33.0,40.0,-1018.0,49.0
19.0,-251.0,8.0,-12.0,108.0,-31.0,41.0,-1017.0,42.0
18.0,-248.0,9.0,-10.0,107.0,-28.0,38.0,-1020.0,53.0
17.0,-248.0,8.0,-9.0,108.0,-26.0,36.0,-1020.0,48.0
19.0,-248.0,6.0,-5.0,106.0,-24.0,38.0,-1021.0,52.0
19.0,-249.0,11.0,-1.0,105.0,-20.0,42.0,-1023.0,43.0
19.0,-249.0,4.0,2.0,99.0,-17.0,41.0,-1020.0,42.0
21.0,-244.0,5.0,3.0,95.0,-15.0,39.0,-1019.0,41.0
19.0,-247.0,5.0,3.0,92.0,-14.0,40.0,-1022.0,39.0
18.0,-248.0,9.0,3.0,89.0,-15.0,38.0,-1022.0,38.0
18.0,-249.0,5.0,3.0,87.0,-14.0,37.0,-1021.0,40.0
17.0,-247.0,2.0,2.0,85.0,-16.0,36.0,-1019.0,38.0
19.0,-248.0,5.0,2.0,84.0,-15.0,37.0,-1013.0,33.0
16.0,-250.0,9.0,-1.0,86.0,-15.0,41.0,-1014.0,35.0
18.0,-244.0,5.0,-6.0,90.0,-17.0,39.0,-1009.0,38.0
19.0,-246.0,9.0,-8.0,96.0,-19.0,39.0,-1008.0,46.0
21.0,-249.0,7.0,-10.0,101.0,-19.0,43.0,-1004.0,50.0
19.0,-240.0,9.0,-6.0,97.0,-20.0,43.0,-1008.0,53.0
14.0,-248.0,14.0,-4.0,89.0,-19.0,38.0,-1013.0,56.0
14.0,-240.0,9.0,-4.0,79.0,-17.0,26.0,-1013.0,51.0
11.0,-246.0,6.0,-9.0,67.0,-15.0,21.0,-1015.0,56.0
11.0,-245.0,8.0,-19.0,56.0,-16.0,18.0,-1015.0,49.0
15.0,-248.0,10.0,-33.0,46.0,-18.0,19.0,-1015.0,48.0
13.0,-246.0,10.0,-48.0,41.0,-23.0,19.0,-1015.0,37.0
13.0,-247.0,7.0,-62.0,39.0,-25.0,18.0,-1015.0,44.0
8.0,-247.0,6.0,-68.0,39.0,-28.0,11.0,-1007.0,45.0
12.0,-245.0,8.0,-67.0,42.0,-28.0,12.0,-1016.0,47.0
10.0,-244.0,6.0,-61.0,46.0,-29.0,24.0,-1018.0,49.0
18.0,-252.0,11.0,-54.0,47.0,-27.0,36.0,-1028.0,55.0
16.0,-253.0,10.0,-45.0,50.0,-25.0,53.0,-1021.0,52.0
16.0,-252.0,2.0,-39.0,51.0,-20.0,55.0,-1032.0,57.0
20.0,-250.0,8.0,-28.0,43.0,-14.0,49.0,-1033.0,47.0
19.0,-254.0,12.0,-18.0,34.0,-8.0,54.0,-1025.0,52.0
21.0,-250.0,6.0,-9.0,23.0,-4.0,53.0,-1026.0,47.0
18.0,-251.0,8.0,0.0,15.0,-5.0,44.0,-1032.0,51.0
16.0,-247.0,8.0,5.0,10.0,-6.0,42.0,-1033.0,47.0
17.0,-253.0,8.0,6.0,7.0,-9.0,34.0,-1035.0,36.0
18.0,-248.0,3.0,7.0,7.0,-9.0,41.0,-1029.0,34.0
16.0,-252.0,4.0,5.0,12.0,-14.0,37.0,-1031.0,40.0
15.0,-249.0,3.0,3.0,19.0,-16.0,35.0,-1024.0,37.0
16.0,-252.0,13.0,3.0,24.0,-17.0,39.0,-1023.0,35.0
18.0,-249.0,9.0,4.0,28.0,-19.0,36.0,-1027.0,33.0
18.0,-248.0,4.0,1.0,29.0,-18.0,37.0,-1022.0,36.0
17.0,-250.0,7.0,1.0,28.0,-16.0,35.0,-1025.0,39.0
19.0,-246.0,5.0,0.0,26.0,-13.0,40.0,-1030.0,36.0
16.0,-248.0,10.0,2.0,24.0,-11.0,45.0,-1023.0,44.0
18.0,-252.0,8.0,10.0,22.0,-11.0,32.0,-1021.0,45.0
13.0,-244.0,13.0,20.0,17.0,-9.0,36.0,-1019.0,46.0
15.0,-247.0,13.0,30.0,12.0,-6.0,32.0,-1020.0,47.0
13.0,-246.0,8.0,40.0,6.0,-4.0,30.0,-1013.0,47.0
19.0,-251.0,12.0,48.0,3.0,-5.0,30.0,-1019.0,44.0
8.0,-246.0,3.0,53.0,2.0,-6.0,30.0,-1018.0,45.0
13.0,-248.0,7.0,58.0,5.0,-7.0,32.0,-1013.0,47.0
12.0,-248.0,8.0,61.0,8.0,-10.0,30.0,-1019.0,48.0
12.0,-250.0,12.0,65.0,10.0,-10.0,31.0,-1012.0,48.0
17.0,-244.0,8.0,69.0,15.0,-11.0,32.0,-1013.0,51.0
15.0,-245.0,6.0,74.0,19.0,-11.0,35.0,-1018.0,46.0
12.0,-245.0,8.0,77.0,20.0,-9.0,38.0,-1010.0,47.0
15.0,-248.0,10.0,78.0,20.0,-11.0,39.0,-1011.0,47.0
16.0,-250.0,9.0,78.0,18.0,-11.0,33.0,-1016.0,42.0
15.0,-249.0,5.0,77.0,15.0,-10.0,39.0,-1016.0,43.0
14.0,-247.0,3.0,75.0,11.0,-9.0,35.0,-1017.0,33.0
14.0,-247.0,8.0,72.0,6.0,-9.0,36.0,-1020.0,38.0
15.0,-245.0,5.0,66.0,0.0,-8.0,35.0,-1019.0,33.0
14.0,-247.0,5.0,60.0,-4.0,-8.0,33.0,-1020.0,29.0
17.0,-249.0,4.0,56.0,-9.0,-8.0,36.0,-1021.0,30.0
15.0,-248.0,6.0,52.0,-12.0,-6.0,37.0,-1018.0,38.0
17.0,-249.0,6.0,51.0,-16.0,-7.0,36.0,-1017.0,36.0
17.0,-252.0,3.0,51.0,-19.0,-8.0,36.0,-1012.0,40.0
15.0,-248.0,6.0,54.0,-19.0,-6.0,35.0,-1014.0,37.0
13.0,-246.0,10.0,55.0,-22.0,-6.0,34.0,-1016.0,37.0
16.0,-249.0,5.0,57.0,-22.0,-5.0,35.0,-1015.0,39.0
17.0,-248.0,3.0,56.0,-24.0,-2.0,36.0,-1016.0,37.0
14.0,-249.0,7.0,55.0,-25.0,0.0,36.0,-1017.0,37.0
16.0,-246.0,6.0,50.0,-27.0,-1.0,36.0,-1012.0,35.0
16.0,-245.0,5.0,46.0,-29.0,2.0,39.0,-1012.0,39.0
15.0,-246.0,6.0,43.0,-30.0,3.0,35.0,-1015.0,43.0
18.0,-248.0,10.0,42.0,-33.0,5.0,35.0,-1018.0,35.0
18.0,-250.0,5.0,42.0,-34.0,6.0,36.0,-1016.0,33.0
20.0,-249.0,7.0,42.0,-35.0,6.0,35.0,-1017.0,35.0
17.0,-246.0,8.0,43.0,-36.0,6.0,40.0,-1020.0,34.0
13.0,-248.0,7.0,42.0,-35.0,5.0,37.0,-1018.0,34.0
16.0,-249.0,4.0,42.0,-35.0,4.0,38.0,-1023.0,32.0
15.0,-250.0,2.0,43.0,-33.0,3.0,40.0,-1016.0,35.0
15.0,-248.0,3.0,43.0,-32.0,0.0,41.0,-1020.0,32.0
18.0,-247.0,6.0,46.0,-29.0,-2.0,39.0,-1019.0,33.0
14.0,-249.0,8.0,48.0,-28.0,-3.0,39.0,-1016.0,32.0
17.0,-247.0,2.0,48.0,-27.0,-3.0,41.0,-1013.0,33.0
17.0,-248.0,4.0,46.0,-26.0,-4.0,36.0,-1014.0,30.0
16.0,-247.0,1.0,43.0,-25.0,-4.0,37.0,-1014.0,29.0
20.0,-248.0,1.0,38.0,-25.0,-3.0,42.0,-1016.0,30.0
20.0,-246.0,4.0,35.0,-27.0,-2.0,40.0,-1013.0,27.0
17.0,-244.0,3.0,32.0,-28.0,-2.0,41.0,-1010.0,33.0
16.0,-243.0,6.0,30.0,-30.0,0.0,38.0,-1006.0,23.0
18.0,-249.0,8.0,26.0,-30.0,2.0,37.0,-1006.0,27.0
18.0,-248.0,2.0,21.0,-30.0,4.0,41.0,-1018.0,25.0
16.0,-247.0,4.0,14.0,-28.0,1.0,38.0,-1014.0,25.0
21.0,-248.0,5.0,6.0,-24.0,1.0,41.0,-1020.0,20.0
17.0,-250.0,3.0,1.0,-21.0,1.0,40.0,-1017.0,22.0
17.0,-251.0,4.0,-3.0,-19.0,-1.0,38.0,-1018.0,23.0
18.0,-250.0,2.0,-4.0,-15.0,0.0,39.0,-1018.0,20.0
19.0,-250.0,4.0,-1.0,-15.0,0.0,40.0,-1026.0,24.0
19.0,-252.0,2.0,5.0,-12.0,-3.0,39.0,-1021.0,25.0
18.0,-252.0,2.0,10.0,-8.0,-4.0,34.0,-1021.0,20.0
15.0,-250.0,2.0,16.0,-5.0,-5.0,42.0,-1022.0,19.0
14.0,-254.0,1.0,18.0,-1.0,-5.0,32.0,-1019.0,21.0
14.0,-248.0,1.0,22.0,3.0,-5.0,34.0,-1023.0,24.0
15.0,-249.0,1.0,24.0,4.0,-5.0,30.0,-1025.0,29.0
11.0,-247.0,8.0,26.0,5.0,-5.0,34.0,-1020.0,30.0
13.0,-247.0,6.0,30.0,7.0,-5.0,37.0,-1019.0,31.0
15.0,-250.0,7.0,33.0,4.0,-5.0,34.0,-1020.0,37.0
17.0,-247.0,10.0,35.0,3.0,-4.0,36.0,-1020.0,36.0
16.0,-249.0,4.0,41.0,-1.0,-2.0,36.0,-1021.0,42.0
16.0,-247.0,9.0,46.0,-5.0,-1.0,42.0,-1020.0,38.0
19.0,-246.0,7.0,50.0,-11.0,0.0,37.0,-1020.0,35.0
14.0,-245.0,4.0,53.0,-16.0,1.0,38.0,-1025.0,38.0
16.0,-249.0,3.0,54.0,-21.0,1.0,40.0,-1027.0,38.0
15.0,-249.0,6.0,57.0,-26.0,0.0,36.0,-1022.0,35.0
19.0,-249.0,4.0,56.0,-26.0,-1.0,28.0,-1024.0,36.0
16.0,-250.0,5.0,58.0,-25.0,-2.0,30.0,-1020.0,31.0
14.0,-247.0,4.0,61.0,-24.0,-3.0,28.0,-1018.0,30.0
14.0,-248.0,2.0,62.0,-22.0,-3.0,32.0,-1012.0,30.0
16.0,-246.0,5.0,61.0,-17.0,-2.0,30.0,-1020.0,33.0
17.0,-250.0,2.0,60.0,-14.0,-2.0,33.0,-1013.0,23.0
14.0,-247.0,-1.0,58.0,-11.0,-1.0,25.0,-1011.0,29.0
16.0,-245.0,1.0,56.0,-9.0,-4.0,26.0,-1013.0,27.0
10.0,-241.0,-1.0,52.0,-7.0,-4.0,30.0,-1018.0,28.0
16.0,-250.0,7.0,51.0,-7.0,-3.0,32.0,-1020.0,26.0
15.0,-247.0,5.0,50.0,-7.0,-2.0,35.0,-1019.0,33.0
17.0,-246.0,8.0,53.0,-7.0,-1.0,35.0,-1015.0,32.0
17.0,-246.0,4.0,53.0,-6.0,-3.0,39.0,-1026.0,29.0
18.0,-250.0,5.0,58.0,-6.0,1.0,38.0,-1022.0,35.0
14.0,-249.0,3.0,60.0,-8.0,2.0,39.0,-1016.0,29.0
19.0,-248.0,10.0,64.0,-11.0,1.0,38.0,-1033.0,37.0
19.0,-251.0,5.0,66.0,-12.0,2.0,34.0,-1027.0,34.0
19.0,-254.0,6.0,69.0,-15.0,1.0,30.0,-1021.0,32.0
17.0,-254.0,5.0,70.0,-18.0,0.0,32.0,-1027.0,40.0
10.0,-255.0,2.0,70.0,-18.0,-2.0,33.0,-1028.0,31.0
15.0,-251.0,7.0,67.0,-18.0,-3.0,30.0,-1025.0,33.0
16.0,-250.0,5.0,67.0,-17.0,-2.0,32.0,-1023.0,38.0
17.0,-252.0,4.0,68.0,-14.0,-5.0,33.0,-1020.0,35.0
17.0,-247.0,8.0,72.0,-10.0,-6.0,32.0,-1015.0,36.0
11.0,-246.0,8.0,77.0,-7.0,-5.0,37.0,-1013.0,37.0
15.0,-245.0,11.0,79.0,-3.0,-5.0,34.0,-1003.0,35.0
17.0,-242.0,5.0,80.0,-4.0,-4.0,32.0,-1005.0,35.0
18.0,-245.0,4.0,76.0,-7.0,-3.0,40.0,-1010.0,35.0
16.0,-243.0,4.0,70.0,-10.0,-2.0,32.0,-1008.0,35.0
16.0,-245.0,4.0,66.0,-12.0,-1.0,37.0,-1007.0,35.0
16.0,-248.0,4.0,62.0,-14.0,0.0,38.0,-1010.0,38.0
18.0,-248.0,2.0,59.0,-15.0,-2.0,33.0,-1017.0,38.0
16.0,-249.0,3.0,60.0,-15.0,-2.0,37.0,-1016.0,33.0
19.0,-250.0,4.0,58.0,-15.0,-2.0,40.0,-1018.0,39.0
15.0,-246.0,7.0,57.0,-11.0,-3.0,38.0,-1021.0,35.0
18.0,-249.0,6.0,57.0,-7.0,-4.0,40.0,-1026.0,30.0
18.0,-250.0,4.0,57.0,-5.0,-6.0,37.0,-1029.0,32.0
16.0,-252.0,4.0,58.0,-3.0,-5.0,40.0,-1028.0,31.0
15.0,-250.0,4.0,62.0,-3.0,-5.0,41.0,-1032.0,23.0
15.0,-250.0,2.0,71.0,-4.0,-5.0,36.0,-1026.0,24.0
18.0,-253.0,13.0,78.0,-5.0,-5.0,31.0,-1028.0,26.0
15.0,-251.0,2.0,85.0,-4.0,-6.0,32.0,-1021.0,29.0
14.0,-248.0,3.0,91.0,-4.0,-6.0,32.0,-1024.0,30.0
16.0,-249.0,5.0,95.0,-2.0,-6.0,33.0,-1024.0,24.0
17.0,-248.0,3.0,95.0,0.0,-6.0,33.0,-1019.0,35.0
16.0,-248.0,3.0,94.0,2.0,-6.0,42.0,-1016.0,31.0
15.0,-249.0,8.0,91.0,5.0,-5.0,39.0,-1019.0,39.0
17.0,-244.0,6.0,88.0,7.0,-6.0,37.0,-1020.0,35.0
14.0,-244.0,4.0,87.0,6.0,-5.0,36.0,-1026.0,37.0
15.0,-249.0,12.0,87.0,6.0,-4.0,32.0,-1017.0,36.0
16.0,-250.0,3.0,90.0,6.0,-6.0,33.0,-1020.0,36.0
13.0,-234.0,8.0,94.0,7.0,-6.0,39.0,-1017.0,42.0
18.0,-247.0,7.0,98.0,8.0,-8.0,38.0,-1016.0,35.0
15.0,-249.0,6.0,102.0,11.0,-10.0,35.0,-1015.0,37.0
15.0,-247.0,8.0,103.0,11.0,-11.0,34.0,-1019.0,36.0
17.0,-249.0,9.0,104.0,14.0,-10.0,37.0,-1017.0,42.0
16.0,-248.0,8.0,102.0,14.0,-10.0,36.0,-1015.0,39.0
16.0,-246.0,5.0,98.0,13.0,-11.0,33.0,-1016.0,40.0
16.0,-251.0,2.0,95.0,13.0,-11.0,37.0,-1013.0,35.0
18.0,-248.0,3.0,90.0,12.0,-12.0,33.0,-1017.0,41.0
17.0,-248.0,6.0,88.0,12.0,-12.0,31.0,-1026.0,35.0
16.0,-251.0,16.0,87.0,10.0,-12.0,32.0,-1028.0,33.0
14.0,-248.0,6.0,87.0,11.0,-12.0,31.0,-1022.0,42.0
16.0,-248.0,7.0,89.0,12.0,-13.0,33.0,-1022.0,44.0
17.0,-249.0,6.0,91.0,10.0,-14.0,32.0,-1021.0,39.0
16.0,-250.0,8.0,94.0,11.0,-11.0,35.0,-1024.0,38.0
17.0,-249.0,4.0,96.0,8.0,-11.0,34.0,-1024.0,35.0
18.0,-250.0,7.0,95.0,8.0,-11.0,34.0,-1023.0,36.0
12.0,-245.0,3.0,96.0,7.0,-9.0,36.0,-1022.0,34.0
16.0,-244.0,6.0,93.0,7.0,-7.0,30.0,-1017.0,33.0
13.0,-245.0,3.0,91.0,6.0,-7.0,35.0,-1016.0,36.0
17.0,-249.0,1.0,90.0,4.0,-9.0,28.0,-1014.0,34.0
18.0,-249.0,9.0,87.0,4.0,-9.0,31.0,-1019.0,34.0
14.0,-248.0,6.0,87.0,5.0,-8.0,31.0,-1021.0,42.0
15.0,-250.0,7.0,88.0,6.0,-10.0,32.0,-1019.0,42.0
16.0,-249.0,9.0,91.0,7.0,-9.0,30.0,-1019.0,42.0
15.0,-249.0,10.0,93.0,7.0,-12.0,28.0,-1020.0,42.0
12.0,-249.0,8.0,93.0,7.0,-13.0,29.0,-1023.0,46.0
14.0,-248.0,8.0,94.0,7.0,-14.0,26.0,-1025.0,46.0
14.0,-250.0,7.0,94.0,6.0,-13.0,28.0,-1021.0,49.0
12.0,-247.0,6.0,95.0,4.0,-14.0,33.0,-1020.0,45.0
16.0,-250.0,8.0,98.0,3.0,-12.0,28.0,-1019.0,49.0
16.0,-245.0,7.0,98.0,2.0,-12.0,29.0,-1017.0,49.0
16.0,-242.0,6.0,100.0,2.0,-11.0,29.0,-1020.0,47.0
14.0,-248.0,6.0,99.0,2.0,-11.0,30.0,-1012.0,48.0
15.0,-248.0,7.0,98.0,2.0,-10.0,29.0,-1015.0,50.0
15.0,-246.0,11.0,95.0,-1.0,-10.0,30.0,-1008.0,49.0
15.0,-250.0,8.0,90.0,-2.0,-10.0,29.0,-1010.0,45.0
11.0,-247.0,12.0,86.0,-7.0,-7.0,26.0,-1015.0,48.0
15.0,-247.0,6.0,85.0,-11.0,-8.0,30.0,-1014.0,48.0
13.0,-245.0,4.0,83.0,-13.0,-6.0,24.0,-1015.0,47.0
13.0,-246.0,4.0,82.0,-14.0,-5.0,31.0,-1018.0,47.0
16.0,-249.0,9.0,81.0,-14.0,-5.0,26.0,-1020.0,42.0
13.0,-245.0,12.0,79.0,-13.0,-5.0,29.0,-1021.0,42.0
13.0,-249.0,9.0,78.0,-13.0,-3.0,25.0,-1021.0,47.0
14.0,-251.0,11.0,79.0,-12.0,-3.0,25.0,-1022.0,43.0
15.0,-251.0,10.0,82.0,-11.0,-4.0,30.0,-1020.0,48.0
17.0,-253.0,7.0,85.0,-9.0,-2.0,36.0,-1027.0,45.0
15.0,-250.0,9.0,91.0,-7.0,-2.0,35.0,-1025.0,43.0
13.0,-248.0,8.0,96.0,-6.0,-5.0,37.0,-1026.0,47.0
16.0,-249.0,6.0,100.0,-4.0,-5.0,34.0,-1022.0,38.0
20.0,-250.0,8.0,103.0,-2.0,-5.0,41.0,-1020.0,41.0
15.0,-248.0,6.0,104.0,-2.0,-6.0,36.0,-1021.0,42.0
13.0,-243.0,8.0,102.0,-3.0,-7.0,35.0,-1021.0,46.0
18.0,-237.0,7.0,99.0,-2.0,-8.0,40.0,-1020.0,47.0
16.0,-248.0,9.0,96.0,0.0,-9.0,41.0,-1015.0,46.0
18.0,-246.0,8.0,93.0,1.0,-11.0,40.0,-1019.0,55.0
18.0,-246.0,10.0,92.0,2.0,-11.0,33.0,-1021.0,55.0
19.0,-249.0,12.0,90.0,1.0,-10.0,39.0,-1020.0,54.0
16.0,-245.0,10.0,91.0,1.0,-10.0,39.0,-1013.0,53.0
16.0,-246.0,12.0,93.0,0.0,-9.0,37.0,-1013.0,52.0
20.0,-247.0,13.0,96.0,2.0,-7.0,39.0,-1013.0,52.0
17.0,-245.0,6.0,96.0,3.0,-9.0,38.0,-1012.0,54.0
17.0,-244.0,9.0,94.0,4.0,-9.0,32.0,-1012.0,46.0
17.0,-246.0,10.0,88.0,4.0,-11.0,36.0,-1004.0,47.0
19.0,-251.0,8.0,79.0,5.0,-11.0,31.0,-1007.0,45.0
17.0,-246.0,8.0,70.0,4.0,-11.0,32.0,-1015.0,48.0
14.0,-246.0,8.0,59.0,4.0,-12.0,34.0,-1011.0,51.0
15.0,-246.0,9.0,52.0,4.0,-12.0,34.0,-1020.0,49.0
17.0,-245.0,9.0,48.0,5.0,-11.0,31.0,-1019.0,52.0
16.0,-250.0,8.0,48.0,5.0,-10.0,36.0,-1015.0,51.0
15.0,-243.0,10.0,48.0,6.0,-9.0,34.0,-1017.0,54.0
17.0,-248.0,7.0,49.0,5.0,-10.0,36.0,-1021.0,57.0
12.0,-248.0,8.0,47.0,3.0,-7.0,37.0,-1023.0,52.0
15.0,-250.0,4.0,47.0,-1.0,-8.0,32.0,-1023.0,52.0
16.0,-257.0,18.0,44.0,-3.0,-7.0,25.0,-1016.0,47.0
13.0,-247.0,10.0,41.0,-4.0,-9.0,27.0,-1021.0,48.0
11.0,-247.0,9.0,39.0,-5.0,-11.0,21.0,-1021.0,45.0
15.0,-249.0,8.0,36.0,-4.0,-11.0,24.0,-1019.0,39.0
14.0,-247.0,6.0,36.0,-2.0,-13.0,29.0,-1012.0,50.0
12.0,-247.0,5.0,37.0,0.0,-13.0,27.0,-1015.0,50.0
14.0,-248.0,10.0,38.0,5.0,-14.0,32.0,-1015.0,44.0
12.0,-247.0,7.0,38.0,8.0,-11.0,33.0,-1011.0,49.0
17.0,-250.0,11.0,38.0,9.0,-10.0,35.0,-1011.0,50.0
16.0,-245.0,9.0,37.0,8.0,-9.0,36.0,-1012.0,42.0
18.0,-246.0,8.0,35.0,6.0,-8.0,36.0,-1014.0,46.0
21.0,-245.0,11.0,32.0,4.0,-6.0,36.0,-1020.0,53.0
15.0,-246.0,10.0,29.0,-1.0,-5.0,36.0,-1019.0,49.0
15.0,-245.0,7.0,26.0,-5.0,-8.0,32.0,-1017.0,49.0
15.0,-248.0,6.0,21.0,-8.0,-7.0,35.0,-1020.0,48.0
14.0,-247.0,10.0,17.0,-7.0,-9.0,32.0,-1020.0,49.0
14.0,-248.0,13.0,15.0,-4.0,-8.0,32.0,-1021.0,52.0
17.0,-252.0,7.0,14.0,-1.0,-10.0,35.0,-1022.0,51.0
18.0,-251.0,12.0,19.0,4.0,-11.0,38.0,-1027.0,58.0
15.0,-251.0,9.0,24.0,5.0,-11.0,35.0,-1018.0,58.0
19.0,-252.0,11.0,28.0,4.0,-10.0,34.0,-1021.0,50.0
15.0,-248.0,9.0,33.0,3.0,-10.0,35.0,-1020.0,53.0
15.0,-250.0,11.0,35.0,0.0,-8.0,35.0,-1022.0,46.0
14.0,-248.0,8.0,36.0,-1.0,-9.0,32.0,-1020.0,49.0
15.0,-249.0,14.0,33.0,-2.0,-10.0,34.0,-1021.0,42.0
13.0,-247.0,9.0,31.0,-3.0,-9.0,26.0,-1012.0,43.0
15.0,-249.0,8.0,29.0,-3.0,-10.0,31.0,-1014.0,44.0
13.0,-248.0,10.0,27.0,-2.0,-10.0,39.0,-1018.0,48.0
19.0,-245.0,7.0,26.0,2.0,-8.0,35.0,-1015.0,43.0
17.0,-244.0,8.0,28.0,7.0,-9.0,32.0,-1011.0,43.0
17.0,-244.0,3.0,25.0,11.0,-8.0,36.0,-1007.0,46.0
14.0,-245.0,13.0,23.0,13.0,-7.0,33.0,-1014.0,44.0
13.0,-251.0,9.0,21.0,15.0,-6.0,38.0,-1012.0,49.0
16.0,-247.0,9.0,18.0,15.0,-6.0,35.0,-1014.0,47.0
17.0,-248.0,7.0,15.0,16.0,-7.0,36.0,-1015.0,50.0
14.0,-247.0,11.0,14.0,16.0,-9.0,32.0,-1014.0,54.0
17.0,-249.0,10.0,12.0,15.0,-8.0,31.0,-1017.0,55.0
17.0,-248.0,9.0,9.0,14.0,-9.0,32.0,-1011.0,58.0
16.0,-250.0,10.0,9.0,14.0,-10.0,33.0,-1024.0,57.0
14.0,-242.0,8.0,11.0,15.0,-8.0,37.0,-1019.0,52.0
14.0,-248.0,10.0,13.0,16.0,-10.0,33.0,-1022.0,51.0
18.0,-253.0,14.0,17.0,13.0,-10.0,35.0,-1027.0,51.0
12.0,-247.0,7.0,22.0,12.0,-8.0,31.0,-1021.0,49.0
20.0,-253.0,6.0,27.0,8.0,-9.0,34.0,-1028.0,58.0
15.0,-252.0,8.0,33.0,6.0,-9.0,31.0,-1025.0,53.0
14.0,-248.0,8.0,36.0,3.0,-10.0,25.0,-1032.0,53.0
13.0,-251.0,11.0,40.0,2.0,-12.0,28.0,-1022.0,54.0
13.0,-245.0,8.0,42.0,0.0,-11.0,28.0,-1025.0,54.0
18.0,-249.0,6.0,45.0,1.0,-10.0,30.0,-1025.0,48.0
15.0,-253.0,9.0,48.0,1.0,-9.0,31.0,-1023.0,47.0
15.0,-248.0,3.0,50.0,3.0,-9.0,29.0,-1018.0,46.0
13.0,-246.0,4.0,53.0,6.0,-11.0,33.0,-1013.0,41.0
12.0,-246.0,6.0,54.0,8.0,-9.0,31.0,-1015.0,42.0
14.0,-242.0,6.0,55.0,10.0,-8.0,30.0,-1013.0,44.0
16.0,-246.0,12.0,55.0,14.0,-8.0,28.0,-1016.0,38.0
17.0,-250.0,9.0,53.0,13.0,-8.0,29.0,-1012.0,37.0
16.0,-248.0,9.0,50.0,14.0,-8.0,32.0,-1015.0,44.0
15.0,-245.0,6.0,49.0,14.0,-8.0,32.0,-1018.0,44.0
17.0,-248.0,6.0,45.0,13.0,-7.0,34.0,-1008.0,49.0
16.0,-249.0,8.0,43.0,11.0,-8.0,37.0,-1017.0,46.0
17.0,-247.0,11.0,40.0,10.0,-7.0,35.0,-1020.0,48.0
15.0,-244.0,13.0,39.0,9.0,-7.0,36.0,-1018.0,45.0
20.0,-250.0,6.0,38.0,9.0,-5.0,32.0,-1026.0,48.0
15.0,-249.0,7.0,40.0,6.0,-7.0,34.0,-1022.0,45.0
20.0,-249.0,13.0,42.0,5.0,-7.0,34.0,-1020.0,44.0
14.0,-247.0,8.0,44.0,3.0,-6.0,26.0,-1020.0,41.0
16.0,-245.0,5.0,44.0,2.0,-8.0,31.0,-1018.0,40.0
15.0,-247.0,7.0,42.0,3.0,-8.0,29.0,-1022.0,43.0
18.0,-248.0,6.0,41.0,4.0,-9.0,28.0,-1014.0,43.0
15.0,-245.0,11.0,40.0,4.0,-9.0,33.0,-1015.0,43.0
16.0,-249.0,9.0,37.0,3.0,-8.0,28.0,-1017.0,45.0
14.0,-244.0,6.0,35.0,3.0,-7.0,35.0,-1016.0,48.0
18.0,-244.0,7.0,33.0,2.0,-4.0,33.0,-1016.0,48.0
17.0,-249.0,6.0,35.0,2.0,-6.0,35.0,-1018.0,40.0
15.0,-248.0,7.0,34.0,4.0,-5.0,35.0,-1011.0,49.0
14.0,-248.0,4.0,35.0,6.0,-6.0,36.0,-1018.0,49.0
15.0,-249.0,6.0,41.0,7.0,-6.0,34.0,-1027.0,45.0
15.0,-250.0,9.0,47.0,7.0,-7.0,32.0,-1022.0,38.0
16.0,-248.0,9.0,49.0,10.0,-8.0,29.0,-1028.0,43.0
14.0,-247.0,9.0,55.0,10.0,-8.0,36.0,-1022.0,40.0
15.0,-252.0,7.0,59.0,10.0,-8.0,37.0,-1028.0,38.0
15.0,-251.0,5.0,60.0,13.0,-9.0,35.0,-1031.0,38.0
21.0,-251.0,8.0,59.0,14.0,-8.0,32.0,-1028.0,35.0
18.0,-250.0,9.0,59.0,16.0,-9.0,31.0,-1026.0,38.0
14.0,-250.0,5.0,59.0,15.0,-11.0,32.0,-1021.0,41.0
15.0,-246.0,5.0,58.0,15.0,-11.0,35.0,-1026.0,37.0
14.0,-248.0,12.0,59.0,11.0,-9.0,33.0,-1025.0,40.0
15.0,-249.0,8.0,60.0,9.0,-8.0,32.0,-1017.0,41.0
14.0,-246.0,7.0,61.0,9.0,-9.0,32.0,-1017.0,41.0
15.0,-248.0,8.0,62.0,10.0,-11.0,32.0,-1015.0,41.0
13.0,-245.0,7.0,62.0,8.0,-9.0,32.0,-1017.0,48.0
14.0,-245.0,8.0,62.0,8.0,-10.0,31.0,-1011.0,40.0
14.0,-249.0,7.0,60.0,6.0,-10.0,33.0,-1010.0,48.0
16.0,-244.0,3.0,57.0,7.0,-9.0,30.0,-1010.0,44.0
14.0,-245.0,3.0,52.0,6.0,-8.0,25.0,-1005.0,42.0
16.0,-246.0,5.0,45.0,6.0,-6.0,26.0,-1007.0,49.0
13.0,-243.0,5.0,39.0,5.0,-6.0,28.0,-1012.0,47.0
15.0,-248.0,12.0,33.0,5.0,-4.0,36.0,-1015.0,50.0
14.0,-248.0,9.0,31.0,3.0,-4.0,27.0,-1016.0,51.0
14.0,-249.0,12.0,31.0,2.0,-5.0,31.0,-1018.0,58.0
16.0,-249.0,12.0,32.0,0.0,-7.0,25.0,-1020.0,50.0
13.0,-249.0,9.0,38.0,1.0,-7.0,30.0,-1022.0,46.0
18.0,-250.0,11.0,44.0,3.0,-9.0,29.0,-1024.0,47.0
16.0,-253.0,14.0,48.0,5.0,-8.0,31.0,-1029.0,49.0
16.0,-250.0,10.0,53.0,6.0,-10.0,33.0,-1026.0,41.0
15.0,-247.0,8.0,53.0,9.0,-12.0,28.0,-1021.0,43.0
17.0,-248.0,10.0,53.0,9.0,-11.0,33.0,-1018.0,44.0
11.0,-250.0,4.0,50.0,10.0,-10.0,39.0,-1021.0,43.0
