acc1_x,acc1_y,acc1_z,gyro_x,gyro_y,gyro_z,acc2_x,acc2_y,acc2_z
10.0,-242.0,-55.0,50.0,23.0,-23.0,26.0,-1000.0,-203.0
12.0,-242.0,-55.0,47.0,23.0,-27.0,32.0,-996.0,-199.0
12.0,-243.0,-56.0,44.0,22.0,-29.0,31.0,-990.0,-203.0
14.0,-243.0,-56.0,42.0,20.0,-29.0,26.0,-994.0,-205.0
11.0,-240.0,-57.0,42.0,20.0,-31.0,27.0,-991.0,-202.0
7.0,-241.0,-54.0,41.0,20.0,-31.0,33.0,-996.0,-209.0
15.0,-243.0,-51.0,42.0,18.0,-32.0,34.0,-994.0,-206.0
11.0,-241.0,-55.0,43.0,17.0,-30.0,28.0,-995.0,-202.0
15.0,-244.0,-56.0,45.0,15.0,-31.0,29.0,-998.0,-208.0
10.0,-241.0,-54.0,47.0,14.0,-32.0,26.0,-1000.0,-209.0
14.0,-241.0,-54.0,49.0,13.0,-31.0,28.0,-997.0,-207.0
15.0,-243.0,-60.0,53.0,13.0,-30.0,25.0,-998.0,-203.0
10.0,-245.0,-54.0,57.0,15.0,-30.0,25.0,-1004.0,-203.0
15.0,-246.0,-53.0,62.0,15.0,-30.0,27.0,-994.0,-204.0
14.0,-245.0,-54.0,65.0,14.0,-29.0,27.0,-997.0,-204.0
14.0,-243.0,-53.0,70.0,15.0,-29.0,33.0,-1003.0,-213.0
8.0,-244.0,-55.0,72.0,13.0,-28.0,30.0,-1000.0,-209.0
10.0,-241.0,-58.0,76.0,12.0,-27.0,31.0,-994.0,-213.0
13.0,-242.0,-58.0,77.0,15.0,-26.0,28.0,-993.0,-210.0
14.0,-243.0,-58.0,78.0,15.0,-26.0,24.0,-1000.0,-209.0
11.0,-242.0,-54.0,77.0,16.0,-24.0,28.0,-997.0,-204.0
13.0,-242.0,-56.0,74.0,17.0,-23.0,30.0,-993.0,-200.0
11.0,-242.0,-55.0,72.0,17.0,-25.0,31.0,-992.0,-206.0
11.0,-237.0,-57.0,69.0,18.0,-25.0,30.0,-990.0,-204.0
11.0,-241.0,-55.0,65.0,18.0,-23.0,33.0,-991.0,-201.0
14.0,-243.0,-48.0,63.0,17.0,-23.0,31.0,-994.0,-204.0
11.0,-244.0,-52.0,60.0,17.0,-21.0,25.0,-994.0,-202.0
10.0,-243.0,-56.0,59.0,16.0,-22.0,30.0,-996.0,-201.0
12.0,-243.0,-54.0,59.0,15.0,-22.0,25.0,-994.0,-203.0
14.0,-244.0,-54.0,57.0,16.0,-22.0,26.0,-994.0,-204.0
12.0,-241.0,-51.0,56.0,17.0,-24.0,22.0,-998.0,-197.0
14.0,-245.0,-51.0,56.0,17.0,-23.0,23.0,-996.0,-195.0
12.0,-242.0,-56.0,57.0,16.0,-23.0,31.0,-991.0,-198.0
12.0,-243.0,-55.0,59.0,15.0,-23.0,28.0,-996.0,-199.0
12.0,-242.0,-56.0,58.0,15.0,-22.0,27.0,-991.0,-203.0
12.0,-241.0,-53.0,59.0,16.0,-23.0,26.0,-993.0,-205.0
20.0,-243.0,-50.0,62.0,13.0,-23.0,30.0,-993.0,-201.0
13.0,-244.0,-59.0,61.0,14.0,-21.0,32.0,-996.0,-194.0
12.0,-240.0,-57.0,61.0,15.0,-20.0,31.0,-993.0,-200.0
14.0,-237.0,-56.0,63.0,16.0,-20.0,32.0,-992.0,-206.0
15.0,-240.0,-56.0,64.0,16.0,-18.0,33.0,-990.0,-199.0
13.0,-241.0,-55.0,63.0,16.0,-19.0,39.0,-990.0,-202.0
16.0,-244.0,-55.0,63.0,16.0,-17.0,32.0,-992.0,-202.0
16.0,-244.0,-53.0,62.0,16.0,-17.0,36.0,-993.0,-203.0
12.0,-242.0,-56.0,62.0,16.0,-16.0,35.0,-999.0,-199.0
12.0,-241.0,-55.0,62.0,17.0,-14.0,41.0,-992.0,-205.0
15.0,-241.0,-53.0,62.0,17.0,-15.0,33.0,-995.0,-201.0
15.0,-239.0,-51.0,62.0,17.0,-14.0,30.0,-995.0,-197.0
16.0,-247.0,-53.0,62.0,17.0,-16.0,35.0,-1000.0,-204.0
14.0,-241.0,-52.0,63.0,18.0,-14.0,35.0,-998.0,-203.0
12.0,-241.0,-55.0,63.0,17.0,-15.0,33.0,-997.0,-205.0
14.0,-244.0,-54.0,63.0,17.0,-16.0,34.0,-1000.0,-205.0
13.0,-243.0,-54.0,63.0,16.0,-16.0,34.0,-994.0,-207.0
13.0,-240.0,-53.0,63.0,16.0,-17.0,29.0,-993.0,-201.0
13.0,-244.0,-51.0,64.0,15.0,-18.0,32.0,-993.0,-204.0
13.0,-242.0,-56.0,62.0,16.0,-16.0,31.0,-990.0,-202.0
10.0,-241.0,-50.0,61.0,15.0,-17.0,32.0,-998.0,-201.0
12.0,-239.0,-55.0,60.0,15.0,-17.0,31.0,-990.0,-199.0
13.0,-244.0,-52.0,58.0,15.0,-16.0,30.0,-990.0,-200.0
12.0,-246.0,-51.0,57.0,13.0,-17.0,38.0,-991.0,-199.0
14.0,-243.0,-54.0,57.0,12.0,-16.0,33.0,-988.0,-194.0
12.0,-242.0,-50.0,58.0,12.0,-16.0,37.0,-995.0,-203.0
13.0,-242.0,-50.0,59.0,10.0,-16.0,36.0,-993.0,-199.0
16.0,-245.0,-52.0,60.0,10.0,-15.0,37.0,-998.0,-197.0
11.0,-243.0,-54.0,62.0,10.0,-14.0,37.0,-997.0,-196.0
15.0,-244.0,-53.0,62.0,11.0,-16.0,34.0,-998.0,-196.0
15.0,-247.0,-51.0,63.0,12.0,-14.0,31.0,-999.0,-198.0
19.0,-246.0,-53.0,64.0,10.0,-15.0,34.0,-998.0,-201.0
13.0,-248.0,-54.0,64.0,10.0,-16.0,31.0,-1000.0,-201.0
13.0,-244.0,-58.0,64.0,11.0,-15.0,35.0,-1003.0,-203.0
12.0,-241.0,-59.0,63.0,13.0,-14.0,36.0,-1001.0,-202.0
16.0,-244.0,-55.0,63.0,14.0,-13.0,33.0,-1000.0,-203.0
13.0,-243.0,-52.0,62.0,15.0,-15.0,30.0,-1000.0,-206.0
16.0,-245.0,-52.0,63.0,16.0,-15.0,34.0,-996.0,-197.0
12.0,-245.0,-55.0,62.0,18.0,-14.0,32.0,-995.0,-202.0
13.0,-242.0,-55.0,61.0,19.0,-13.0,33.0,-999.0,-200.0
15.0,-245.0,-55.0,62.0,19.0,-14.0,31.0,-990.0,-195.0
14.0,-241.0,-49.0,63.0,19.0,-16.0,33.0,-993.0,-200.0
15.0,-243.0,-53.0,62.0,18.0,-15.0,32.0,-995.0,-200.0
16.0,-243.0,-53.0,63.0,17.0,-13.0,28.0,-993.0,-188.0
13.0,-240.0,-50.0,63.0,18.0,-14.0,34.0,-992.0,-195.0
12.0,-243.0,-52.0,63.0,18.0,-13.0,26.0,-996.0,-201.0
12.0,-242.0,-57.0,64.0,18.0,-12.0,32.0,-991.0,-200.0
12.0,-239.0,-56.0,64.0,17.0,-10.0,32.0,-993.0,-196.0
12.0,-242.0,-56.0,62.0,17.0,-11.0,36.0,-994.0,-200.0
14.0,-243.0,-49.0,62.0,17.0,-11.0,35.0,-993.0,-201.0
13.0,-241.0,-52.0,60.0,16.0,-11.0,33.0,-995.0,-196.0
12.0,-243.0,-54.0,59.0,13.0,-11.0,37.0,-989.0,-197.0
12.0,-244.0,-52.0,58.0,11.0,-12.0,32.0,-998.0,-193.0
16.0,-247.0,-51.0,56.0,13.0,-11.0,32.0,-995.0,-199.0
10.0,-243.0,-53.0,55.0,13.0,-12.0,36.0,-993.0,-199.0
11.0,-248.0,-60.0,55.0,14.0,-13.0,35.0,-1002.0,-189.0
16.0,-248.0,-51.0,55.0,14.0,-14.0,30.0,-1000.0,-198.0
13.0,-241.0,-52.0,56.0,16.0,-12.0,34.0,-998.0,-195.0
14.0,-241.0,-51.0,55.0,15.0,-12.0,37.0,-996.0,-197.0
11.0,-243.0,-52.0,56.0,17.0,-14.0,32.0,-999.0,-200.0
12.0,-242.0,-55.0,57.0,17.0,-13.0,30.0,-1000.0,-193.0
13.0,-242.0,-50.0,58.0,17.0,-13.0,28.0,-1000.0,-200.0
17.0,-243.0,-48.0,59.0,18.0,-13.0,29.0,-997.0,-195.0
11.0,-239.0,-55.0,60.0,17.0,-13.0,32.0,-997.0,-201.0
12.0,-242.0,-52.0,62.0,16.0,-13.0,30.0,-1000.0,-197.0
11.0,-241.0,-49.0,64.0,15.0,-13.0,32.0,-996.0,-195.0
11.0,-241.0,-47.0,65.0,17.0,-12.0,35.0,-994.0,-201.0
11.0,-240.0,-57.0,65.0,18.0,-11.0,28.0,-993.0,-197.0
13.0,-239.0,-50.0,66.0,17.0,-11.0,31.0,-994.0,-196.0
14.0,-240.0,-55.0,66.0,18.0,-11.0,24.0,-993.0,-193.0
13.0,-240.0,-53.0,66.0,19.0,-10.0,26.0,-989.0,-195.0
11.0,-240.0,-58.0,66.0,19.0,-11.0,28.0,-991.0,-193.0
12.0,-239.0,-54.0,64.0,18.0,-10.0,33.0,-992.0,-199.0
11.0,-240.0,-51.0,64.0,18.0,-10.0,32.0,-992.0,-197.0
16.0,-245.0,-56.0,63.0,17.0,-10.0,30.0,-990.0,-199.0
18.0,-241.0,-51.0,62.0,17.0,-11.0,35.0,-994.0,-193.0
15.0,-246.0,-53.0,63.0,16.0,-14.0,33.0,-995.0,-194.0
13.0,-247.0,-50.0,63.0,16.0,-12.0,34.0,-997.0,-190.0
16.0,-243.0,-50.0,62.0,17.0,-12.0,35.0,-998.0,-198.0
11.0,-241.0,-51.0,64.0,16.0,-11.0,34.0,-1002.0,-198.0
14.0,-243.0,-57.0,63.0,17.0,-12.0,31.0,-1001.0,-203.0
12.0,-246.0,-51.0,62.0,16.0,-12.0,37.0,-997.0,-196.0
12.0,-241.0,-52.0,62.0,15.0,-12.0,33.0,-999.0,-192.0
14.0,-244.0,-52.0,62.0,14.0,-12.0,33.0,-998.0,-198.0
12.0,-241.0,-56.0,62.0,13.0,-12.0,32.0,-997.0,-200.0
14.0,-244.0,-55.0,62.0,13.0,-12.0,33.0,-997.0,-195.0
12.0,-242.0,-56.0,60.0,14.0,-13.0,30.0,-995.0,-190.0
12.0,-243.0,-55.0,61.0,13.0,-11.0,29.0,-992.0,-202.0
14.0,-248.0,-46.0,61.0,14.0,-12.0,32.0,-991.0,-195.0
14.0,-240.0,-53.0,61.0,17.0,-13.0,26.0,-995.0,-190.0
15.0,-242.0,-52.0,62.0,17.0,-11.0,30.0,-990.0,-190.0
12.0,-240.0,-52.0,63.0,18.0,-13.0,26.0,-995.0,-193.0
13.0,-241.0,-51.0,63.0,16.0,-12.0,30.0,-993.0,-192.0
15.0,-243.0,-51.0,63.0,16.0,-13.0,31.0,-991.0,-188.0
15.0,-242.0,-53.0,64.0,15.0,-14.0,31.0,-1002.0,-194.0
12.0,-240.0,-56.0,64.0,15.0,-11.0,36.0,-994.0,-191.0
16.0,-243.0,-50.0,65.0,14.0,-12.0,33.0,-994.0,-199.0
16.0,-243.0,-51.0,65.0,13.0,-10.0,31.0,-996.0,-202.0
14.0,-245.0,-52.0,64.0,12.0,-11.0,31.0,-1000.0,-199.0
10.0,-243.0,-55.0,62.0,11.0,-11.0,34.0,-996.0,-193.0
12.0,-243.0,-54.0,61.0,10.0,-12.0,28.0,-994.0,-193.0
13.0,-239.0,-55.0,58.0,11.0,-12.0,35.0,-995.0,-196.0
14.0,-240.0,-53.0,57.0,12.0,-16.0,36.0,-995.0,-202.0
12.0,-240.0,-52.0,56.0,12.0,-18.0,36.0,-991.0,-184.0
17.0,-242.0,-53.0,55.0,13.0,-18.0,32.0,-992.0,-191.0
14.0,-241.0,-52.0,54.0,13.0,-18.0,32.0,-991.0,-186.0
15.0,-242.0,-55.0,55.0,15.0,-18.0,34.0,-991.0,-185.0
15.0,-242.0,-48.0,56.0,14.0,-17.0,35.0,-997.0,-196.0
14.0,-242.0,-51.0,56.0,15.0,-16.0,35.0,-998.0,-191.0
12.0,-243.0,-53.0,57.0,15.0,-15.0,36.0,-1001.0,-202.0
15.0,-247.0,-53.0,58.0,14.0,-15.0,30.0,-1001.0,-198.0
13.0,-243.0,-50.0,61.0,13.0,-12.0,29.0,-1005.0,-196.0
14.0,-243.0,-51.0,62.0,12.0,-11.0,33.0,-1005.0,-198.0
12.0,-248.0,-56.0,68.0,12.0,-10.0,32.0,-1006.0,-203.0
10.0,-242.0,-52.0,71.0,11.0,-10.0,27.0,-1009.0,-196.0
16.0,-245.0,-52.0,76.0,9.0,-11.0,31.0,-1009.0,-204.0
14.0,-242.0,-54.0,78.0,8.0,-13.0,36.0,-1001.0,-198.0
12.0,-244.0,-48.0,81.0,8.0,-13.0,35.0,-1003.0,-198.0
18.0,-245.0,-55.0,82.0,8.0,-12.0,34.0,-1002.0,-203.0
13.0,-243.0,-51.0,82.0,7.0,-14.0,32.0,-1000.0,-194.0
12.0,-239.0,-52.0,81.0,6.0,-14.0,39.0,-991.0,-203.0
16.0,-241.0,-55.0,78.0,7.0,-14.0,32.0,-992.0,-202.0
15.0,-239.0,-51.0,74.0,8.0,-13.0,35.0,-988.0,-201.0
14.0,-242.0,-56.0,71.0,9.0,-13.0,33.0,-991.0,-200.0
14.0,-242.0,-53.0,66.0,10.0,-13.0,30.0,-986.0,-196.0
16.0,-241.0,-51.0,62.0,12.0,-13.0,34.0,-988.0,-186.0
14.0,-241.0,-49.0,60.0,14.0,-12.0,33.0,-988.0,-198.0
13.0,-240.0,-50.0,59.0,16.0,-13.0,32.0,-987.0,-187.0
15.0,-243.0,-50.0,58.0,18.0,-13.0,35.0,-991.0,-190.0
15.0,-239.0,-47.0,57.0,19.0,-12.0,30.0,-992.0,-187.0
16.0,-245.0,-49.0,58.0,20.0,-13.0,27.0,-996.0,-184.0
12.0,-241.0,-49.0,57.0,19.0,-12.0,35.0,-994.0,-183.0
15.0,-243.0,-53.0,59.0,19.0,-11.0,28.0,-997.0,-184.0
15.0,-245.0,-52.0,60.0,15.0,-12.0,27.0,-996.0,-184.0
13.0,-242.0,-50.0,61.0,15.0,-12.0,31.0,-999.0,-184.0
14.0,-242.0,-52.0,61.0,14.0,-10.0,30.0,-999.0,-188.0
14.0,-243.0,-48.0,62.0,12.0,-11.0,32.0,-996.0,-184.0
13.0,-243.0,-52.0,62.0,12.0,-11.0,35.0,-1003.0,-180.0
11.0,-240.0,-53.0,62.0,12.0,-13.0,33.0,-996.0,-185.0
15.0,-243.0,-49.0,62.0,11.0,-11.0,34.0,-995.0,-180.0
12.0,-244.0,-53.0,60.0,11.0,-11.0,37.0,-997.0,-189.0
14.0,-244.0,-53.0,59.0,12.0,-11.0,31.0,-994.0,-187.0
12.0,-242.0,-50.0,58.0,14.0,-12.0,39.0,-993.0,-181.0
12.0,-241.0,-49.0,57.0,14.0,-11.0,34.0,-994.0,-185.0
15.0,-243.0,-51.0,57.0,15.0,-11.0,38.0,-995.0,-181.0
17.0,-242.0,-49.0,56.0,17.0,-9.0,36.0,-994.0,-193.0
14.0,-240.0,-52.0,53.0,18.0,-8.0,34.0,-997.0,-188.0
14.0,-242.0,-54.0,52.0,18.0,-8.0,38.0,-990.0,-185.0
15.0,-240.0,-54.0,51.0,17.0,-7.0,38.0,-996.0,-189.0
15.0,-240.0,-53.0,51.0,16.0,-8.0,33.0,-995.0,-189.0
14.0,-245.0,-50.0,50.0,16.0,-7.0,31.0,-998.0,-192.0
12.0,-245.0,-55.0,48.0,16.0,-8.0,36.0,-1000.0,-196.0
8.0,-238.0,-50.0,49.0,17.0,-8.0,32.0,-999.0,-192.0
8.0,-238.0,-53.0,48.0,17.0,-7.0,34.0,-995.0,-198.0
14.0,-243.0,-54.0,48.0,16.0,-9.0,35.0,-996.0,-193.0
13.0,-244.0,-51.0,46.0,15.0,-11.0,35.0,-994.0,-193.0
12.0,-240.0,-51.0,46.0,15.0,-11.0,35.0,-995.0,-188.0
12.0,-243.0,-52.0,45.0,15.0,-13.0,35.0,-997.0,-196.0
13.0,-245.0,-52.0,46.0,14.0,-13.0,32.0,-997.0,-187.0
16.0,-244.0,-51.0,46.0,12.0,-11.0,33.0,-994.0,-185.0
15.0,-243.0,-51.0,47.0,10.0,-13.0,31.0,-997.0,-188.0
17.0,-247.0,-53.0,46.0,10.0,-13.0,37.0,-1000.0,-184.0
15.0,-244.0,-53.0,48.0,10.0,-11.0,30.0,-994.0,-191.0
15.0,-247.0,-54.0,48.0,10.0,-12.0,32.0,-996.0,-190.0
11.0,-245.0,-51.0,48.0,10.0,-11.0,31.0,-1001.0,-194.0
13.0,-245.0,-52.0,50.0,10.0,-10.0,39.0,-1000.0,-191.0
15.0,-244.0,-50.0,53.0,10.0,-9.0,33.0,-1011.0,-191.0
14.0,-243.0,-51.0,53.0,10.0,-9.0,35.0,-1000.0,-188.0
13.0,-249.0,-49.0,56.0,10.0,-9.0,32.0,-1003.0,-194.0
17.0,-245.0,-52.0,57.0,11.0,-8.0,36.0,-999.0,-194.0
15.0,-243.0,-51.0,58.0,11.0,-10.0,26.0,-1002.0,-196.0
10.0,-240.0,-54.0,59.0,12.0,-10.0,35.0,-998.0,-195.0
14.0,-240.0,-56.0,59.0,13.0,-9.0,32.0,-995.0,-189.0
12.0,-245.0,-55.0,58.0,14.0,-9.0,26.0,-995.0,-191.0
8.0,-238.0,-46.0,59.0,15.0,-9.0,29.0,-996.0,-193.0
11.0,-243.0,-56.0,58.0,15.0,-9.0,30.0,-992.0,-184.0
14.0,-240.0,-50.0,58.0,14.0,-11.0,31.0,-988.0,-185.0
13.0,-241.0,-52.0,57.0,15.0,-12.0,28.0,-996.0,-191.0
10.0,-239.0,-50.0,56.0,14.0,-11.0,32.0,-1000.0,-188.0
14.0,-244.0,-54.0,54.0,15.0,-10.0,30.0,-1000.0,-186.0
15.0,-245.0,-55.0,51.0,15.0,-11.0,35.0,-997.0,-190.0
12.0,-246.0,-54.0,50.0,14.0,-11.0,36.0,-999.0,-185.0
11.0,-239.0,-50.0,48.0,15.0,-11.0,37.0,-998.0,-188.0
12.0,-242.0,-53.0,49.0,13.0,-11.0,32.0,-998.0,-192.0
15.0,-242.0,-49.0,47.0,9.0,-10.0,32.0,-996.0,-186.0
12.0,-242.0,-57.0,46.0,9.0,-10.0,35.0,-1001.0,-189.0
14.0,-245.0,-49.0,45.0,6.0,-10.0,33.0,-999.0,-188.0
12.0,-243.0,-53.0,45.0,6.0,-9.0,33.0,-1000.0,-187.0
13.0,-243.0,-55.0,46.0,6.0,-9.0,33.0,-1000.0,-181.0
12.0,-242.0,-48.0,47.0,6.0,-7.0,34.0,-996.0,-183.0
14.0,-240.0,-52.0,48.0,6.0,-7.0,36.0,-994.0,-190.0
13.0,-242.0,-53.0,47.0,7.0,-7.0,34.0,-996.0,-191.0
15.0,-243.0,-49.0,49.0,6.0,-8.0,34.0,-994.0,-193.0
13.0,-241.0,-49.0,49.0,5.0,-8.0,31.0,-991.0,-193.0
11.0,-240.0,-54.0,49.0,5.0,-7.0,36.0,-996.0,-189.0
13.0,-240.0,-56.0,50.0,4.0,-7.0,35.0,-991.0,-192.0
8.0,-241.0,-57.0,51.0,3.0,-7.0,33.0,-992.0,-188.0
13.0,-243.0,-51.0,53.0,4.0,-5.0,36.0,-1000.0,-192.0
13.0,-244.0,-52.0,54.0,2.0,-3.0,34.0,-996.0,-192.0
16.0,-241.0,-52.0,56.0,2.0,-3.0,35.0,-996.0,-190.0
15.0,-243.0,-51.0,55.0,2.0,-4.0,32.0,-997.0,-184.0
13.0,-240.0,-52.0,54.0,3.0,-3.0,40.0,-992.0,-180.0
13.0,-240.0,-55.0,53.0,2.0,-2.0,34.0,-998.0,-196.0
15.0,-240.0,-54.0,54.0,2.0,-2.0,34.0,-997.0,-188.0
18.0,-244.0,-49.0,55.0,3.0,-4.0,33.0,-996.0,-194.0
16.0,-241.0,-51.0,54.0,2.0,-2.0,31.0,-996.0,-190.0
16.0,-244.0,-52.0,55.0,3.0,-2.0,36.0,-1002.0,-188.0
14.0,-243.0,-48.0,55.0,2.0,-1.0,38.0,-1001.0,-187.0
15.0,-244.0,-53.0,55.0,3.0,-3.0,36.0,-998.0,-188.0
15.0,-244.0,-54.0,57.0,4.0,0.0,29.0,-999.0,-189.0
15.0,-243.0,-52.0,58.0,6.0,0.0,36.0,-995.0,-184.0
13.0,-244.0,-55.0,60.0,7.0,0.0,34.0,-995.0,-191.0
12.0,-239.0,-54.0,62.0,9.0,0.0,37.0,-995.0,-191.0
15.0,-242.0,-52.0,64.0,10.0,1.0,31.0,-997.0,-190.0
10.0,-239.0,-56.0,65.0,11.0,2.0,34.0,-1000.0,-194.0
11.0,-241.0,-54.0,66.0,12.0,0.0,31.0,-997.0,-193.0
13.0,-240.0,-51.0,66.0,12.0,-1.0,35.0,-994.0,-195.0
13.0,-241.0,-51.0,67.0,11.0,-1.0,32.0,-998.0,-192.0
7.0,-239.0,-58.0,67.0,12.0,-1.0,31.0,-994.0,-189.0
14.0,-240.0,-55.0,66.0,10.0,-2.0,28.0,-1000.0,-191.0
15.0,-241.0,-51.0,67.0,10.0,-1.0,28.0,-994.0,-196.0
13.0,-240.0,-49.0,65.0,12.0,-4.0,31.0,-998.0,-195.0
18.0,-246.0,-53.0,63.0,13.0,-3.0,29.0,-994.0,-185.0
16.0,-244.0,-47.0,63.0,14.0,-5.0,30.0,-1007.0,-187.0
14.0,-243.0,-54.0,62.0,16.0,-4.0,27.0,-995.0,-193.0
15.0,-243.0,-53.0,61.0,15.0,-5.0,29.0,-996.0,-189.0
16.0,-239.0,-48.0,60.0,15.0,-6.0,27.0,-996.0,-183.0
10.0,-241.0,-52.0,59.0,16.0,-7.0,30.0,-995.0,-188.0
13.0,-242.0,-52.0,59.0,16.0,-6.0,30.0,-997.0,-188.0
12.0,-245.0,-54.0,59.0,16.0,-6.0,33.0,-1002.0,-188.0
14.0,-241.0,-51.0,60.0,15.0,-6.0,28.0,-1001.0,-185.0
14.0,-244.0,-51.0,60.0,16.0,-8.0,29.0,-997.0,-191.0
15.0,-242.0,-50.0,60.0,15.0,-7.0,30.0,-1001.0,-187.0
12.0,-244.0,-50.0,58.0,16.0,-7.0,33.0,-996.0,-187.0
13.0,-243.0,-48.0,56.0,16.0,-8.0,29.0,-999.0,-189.0
15.0,-245.0,-48.0,56.0,16.0,-8.0,29.0,-998.0,-186.0
13.0,-243.0,-52.0,55.0,16.0,-9.0,28.0,-997.0,-191.0
13.0,-242.0,-45.0,52.0,17.0,-8.0,25.0,-994.0,-188.0
12.0,-243.0,-53.0,52.0,18.0,-10.0,31.0,-999.0,-188.0
12.0,-242.0,-52.0,52.0,19.0,-8.0,34.0,-999.0,-192.0
18.0,-245.0,-39.0,53.0,20.0,-9.0,28.0,-990.0,-190.0
12.0,-243.0,-51.0,55.0,22.0,-11.0,32.0,-999.0,-188.0
12.0,-244.0,-53.0,56.0,21.0,-12.0,29.0,-1000.0,-187.0
13.0,-243.0,-53.0,57.0,22.0,-13.0,30.0,-996.0,-189.0
11.0,-244.0,-51.0,57.0,22.0,-14.0,25.0,-998.0,-188.0
11.0,-246.0,-50.0,57.0,21.0,-13.0,31.0,-1000.0,-193.0
14.0,-243.0,-51.0,60.0,20.0,-13.0,28.0,-996.0,-191.0
14.0,-240.0,-49.0,62.0,21.0,-11.0,30.0,-998.0,-193.0
20.0,-247.0,-48.0,61.0,20.0,-12.0,34.0,-999.0,-192.0
11.0,-243.0,-52.0,62.0,18.0,-9.0,33.0,-997.0,-190.0
14.0,-243.0,-55.0,59.0,17.0,-8.0,25.0,-1000.0,-182.0
10.0,-236.0,-58.0,57.0,16.0,-8.0,26.0,-992.0,-182.0
11.0,-241.0,-53.0,55.0,14.0,-9.0,28.0,-995.0,-184.0
14.0,-242.0,-48.0,54.0,14.0,-11.0,28.0,-997.0,-183.0
13.0,-240.0,-52.0,54.0,14.0,-11.0,34.0,-992.0,-183.0
13.0,-238.0,-52.0,53.0,15.0,-12.0,35.0,-990.0,-188.0
14.0,-242.0,-51.0,53.0,15.0,-15.0,33.0,-989.0,-194.0
11.0,-241.0,-48.0,52.0,14.0,-15.0,35.0,-994.0,-184.0
16.0,-241.0,-50.0,54.0,14.0,-14.0,32.0,-997.0,-189.0
17.0,-244.0,-55.0,54.0,14.0,-13.0,34.0,-997.0,-194.0
11.0,-244.0,-54.0,55.0,13.0,-12.0,33.0,-994.0,-187.0
13.0,-247.0,-51.0,58.0,11.0,-11.0,34.0,-1007.0,-192.0
11.0,-245.0,-56.0,59.0,11.0,-10.0,36.0,-1006.0,-184.0
15.0,-245.0,-55.0,61.0,12.0,-9.0,38.0,-1010.0,-188.0
16.0,-248.0,-53.0,64.0,10.0,-7.0,29.0,-1009.0,-183.0
15.0,-248.0,-52.0,67.0,9.0,-9.0,27.0,-1012.0,-190.0
13.0,-244.0,-53.0,72.0,9.0,-8.0,27.0,-1012.0,-196.0
13.0,-244.0,-53.0,75.0,8.0,-8.0,28.0,-1010.0,-187.0
14.0,-246.0,-53.0,79.0,7.0,-9.0,33.0,-1001.0,-196.0
11.0,-247.0,-50.0,81.0,6.0,-9.0,28.0,-1004.0,-187.0
11.0,-242.0,-56.0,83.0,6.0,-13.0,32.0,-1005.0,-192.0
13.0,-241.0,-53.0,82.0,5.0,-13.0,32.0,-996.0,-196.0
10.0,-242.0,-50.0,80.0,4.0,-14.0,25.0,-991.0,-199.0
14.0,-242.0,-51.0,77.0,4.0,-15.0,25.0,-993.0,-195.0
10.0,-237.0,-52.0,74.0,5.0,-14.0,27.0,-991.0,-201.0
10.0,-240.0,-54.0,69.0,6.0,-13.0,29.0,-991.0,-193.0
15.0,-239.0,-51.0,66.0,7.0,-14.0,25.0,-983.0,-192.0
12.0,-238.0,-49.0,62.0,9.0,-11.0,26.0,-988.0,-191.0
12.0,-239.0,-50.0,61.0,11.0,-11.0,27.0,-985.0,-188.0
14.0,-241.0,-50.0,59.0,12.0,-10.0,29.0,-986.0,-183.0
14.0,-238.0,-48.0,57.0,13.0,-9.0,32.0,-987.0,-189.0
13.0,-242.0,-52.0,58.0,15.0,-9.0,34.0,-990.0,-176.0
14.0,-241.0,-42.0,56.0,15.0,-6.0,33.0,-993.0,-182.0
11.0,-241.0,-54.0,54.0,14.0,-6.0,33.0,-993.0,-179.0
19.0,-243.0,-49.0,52.0,13.0,-4.0,37.0,-994.0,-183.0
16.0,-245.0,-51.0,51.0,11.0,-2.0,36.0,-999.0,-181.0
17.0,-243.0,-44.0,49.0,9.0,-2.0,37.0,-1000.0,-180.0
12.0,-244.0,-49.0,46.0,8.0,-1.0,38.0,-1003.0,-184.0
15.0,-242.0,-50.0,44.0,7.0,-1.0,35.0,-997.0,-183.0
14.0,-245.0,-49.0,41.0,7.0,-1.0,34.0,-995.0,-178.0
14.0,-241.0,-50.0,41.0,5.0,0.0,36.0,-999.0,-182.0
16.0,-239.0,-55.0,40.0,6.0,1.0,38.0,-996.0,-181.0
11.0,-245.0,-51.0,39.0,6.0,1.0,34.0,-1004.0,-181.0
11.0,-243.0,-49.0,40.0,4.0,2.0,37.0,-998.0,-179.0
18.0,-245.0,-50.0,40.0,5.0,3.0,36.0,-1003.0,-182.0
14.0,-243.0,-48.0,42.0,4.0,1.0,35.0,-995.0,-182.0
14.0,-246.0,-49.0,44.0,4.0,2.0,35.0,-999.0,-184.0
15.0,-240.0,-49.0,47.0,4.0,2.0,35.0,-999.0,-185.0
14.0,-245.0,-48.0,49.0,5.0,0.0,34.0,-1004.0,-182.0
15.0,-245.0,-50.0,52.0,6.0,-1.0,33.0,-996.0,-181.0
15.0,-244.0,-51.0,54.0,4.0,0.0,32.0,-996.0,-187.0
15.0,-244.0,-49.0,55.0,6.0,-2.0,31.0,-996.0,-188.0
14.0,-246.0,-52.0,56.0,7.0,-2.0,38.0,-996.0,-186.0
14.0,-241.0,-54.0,57.0,7.0,-2.0,35.0,-995.0,-190.0
10.0,-237.0,-53.0,57.0,7.0,-2.0,31.0,-996.0,-188.0
15.0,-248.0,-52.0,57.0,8.0,-3.0,29.0,-990.0,-190.0
14.0,-238.0,-49.0,56.0,8.0,-4.0,33.0,-991.0,-184.0
13.0,-241.0,-49.0,54.0,8.0,-3.0,32.0,-987.0,-191.0
15.0,-241.0,-56.0,55.0,6.0,-2.0,35.0,-989.0,-188.0
13.0,-242.0,-53.0,56.0,6.0,-1.0,33.0,-993.0,-184.0
12.0,-243.0,-52.0,54.0,6.0,-2.0,33.0,-997.0,-183.0
14.0,-246.0,-51.0,54.0,5.0,-2.0,32.0,-1003.0,-193.0
17.0,-245.0,-51.0,53.0,4.0,-3.0,33.0,-998.0,-185.0
9.0,-242.0,-50.0,54.0,3.0,-1.0,30.0,-1002.0,-194.0
13.0,-242.0,-47.0,55.0,1.0,-1.0,34.0,-1000.0,-192.0
10.0,-244.0,-49.0,55.0,1.0,-2.0,33.0,-1005.0,-192.0
13.0,-247.0,-52.0,57.0,-2.0,-3.0,32.0,-1005.0,-189.0
14.0,-243.0,-54.0,58.0,-3.0,-3.0,30.0,-1004.0,-196.0
10.0,-244.0,-49.0,59.0,-3.0,0.0,25.0,-1004.0,-188.0
14.0,-243.0,-52.0,60.0,-4.0,-3.0,29.0,-1005.0,-184.0
14.0,-242.0,-52.0,61.0,-2.0,-3.0,30.0,-1005.0,-192.0
9.0,-243.0,-51.0,63.0,-1.0,-3.0,24.0,-999.0,-196.0
15.0,-246.0,-50.0,63.0,2.0,-1.0,28.0,-999.0,-198.0
11.0,-241.0,-55.0,63.0,1.0,-2.0,32.0,-998.0,-194.0
11.0,-244.0,-49.0,63.0,2.0,-3.0,32.0,-993.0,-183.0
10.0,-242.0,-52.0,63.0,3.0,-2.0,30.0,-995.0,-196.0
7.0,-243.0,-56.0,62.0,3.0,-1.0,29.0,-997.0,-187.0
7.0,-243.0,-57.0,61.0,4.0,-1.0,24.0,-997.0,-196.0
12.0,-242.0,-52.0,62.0,6.0,0.0,26.0,-997.0,-192.0
13.0,-243.0,-54.0,62.0,8.0,-1.0,27.0,-995.0,-185.0
12.0,-243.0,-54.0,61.0,11.0,-2.0,24.0,-999.0,-191.0
11.0,-240.0,-53.0,59.0,12.0,-2.0,28.0,-999.0,-189.0
12.0,-241.0,-52.0,59.0,15.0,-3.0,27.0,-994.0,-185.0
10.0,-244.0,-51.0,58.0,13.0,-4.0,27.0,-996.0,-184.0
12.0,-243.0,-49.0,58.0,12.0,-5.0,24.0,-994.0,-190.0
11.0,-244.0,-52.0,56.0,11.0,-6.0,23.0,-994.0,-184.0
14.0,-247.0,-53.0,55.0,10.0,-4.0,22.0,-996.0,-185.0
7.0,-245.0,-51.0,55.0,10.0,-7.0,24.0,-1000.0,-183.0
11.0,-245.0,-51.0,54.0,9.0,-7.0,25.0,-998.0,-183.0
11.0,-242.0,-49.0,54.0,10.0,-8.0,21.0,-992.0,-187.0
11.0,-241.0,-51.0,53.0,9.0,-7.0,24.0,-999.0,-180.0
13.0,-244.0,-50.0,53.0,10.0,-8.0,24.0,-994.0,-183.0
12.0,-242.0,-52.0,51.0,11.0,-6.0,26.0,-998.0,-186.0
12.0,-242.0,-50.0,48.0,10.0,-8.0,25.0,-998.0,-184.0
12.0,-241.0,-49.0,48.0,11.0,-8.0,23.0,-995.0,-191.0
12.0,-245.0,-50.0,47.0,12.0,-9.0,24.0,-998.0,-188.0
13.0,-242.0,-49.0,47.0,12.0,-10.0,24.0,-1001.0,-181.0
11.0,-245.0,-54.0,47.0,13.0,-10.0,24.0,-1000.0,-190.0
7.0,-241.0,-55.0,47.0,13.0,-11.0,24.0,-1004.0,-191.0
11.0,-243.0,-49.0,47.0,15.0,-12.0,28.0,-999.0,-189.0
14.0,-242.0,-52.0,47.0,17.0,-13.0,27.0,-998.0,-180.0
10.0,-242.0,-50.0,49.0,18.0,-13.0,23.0,-1003.0,-192.0
11.0,-244.0,-50.0,47.0,19.0,-14.0,28.0,-994.0,-187.0
12.0,-244.0,-50.0,48.0,18.0,-15.0,27.0,-994.0,-179.0
12.0,-241.0,-51.0,49.0,18.0,-14.0,24.0,-997.0,-186.0
8.0,-243.0,-50.0,50.0,19.0,-16.0,28.0,-998.0,-181.0
11.0,-241.0,-51.0,51.0,21.0,-17.0,20.0,-1001.0,-183.0
12.0,-244.0,-51.0,52.0,21.0,-18.0,20.0,-990.0,-179.0
12.0,-242.0,-48.0,53.0,20.0,-17.0,22.0,-1000.0,-181.0
15.0,-246.0,-55.0,54.0,21.0,-18.0,25.0,-996.0,-186.0
11.0,-243.0,-50.0,55.0,22.0,-18.0,20.0,-1001.0,-185.0
10.0,-243.0,-49.0,57.0,20.0,-19.0,28.0,-994.0,-183.0
10.0,-244.0,-48.0,58.0,19.0,-17.0,25.0,-997.0,-187.0
13.0,-240.0,-51.0,59.0,17.0,-19.0,21.0,-997.0,-183.0
12.0,-243.0,-48.0,61.0,16.0,-19.0,29.0,-1008.0,-182.0
10.0,-244.0,-51.0,62.0,15.0,-17.0,23.0,-1001.0,-180.0
13.0,-244.0,-50.0,62.0,15.0,-19.0,19.0,-1000.0,-182.0
16.0,-243.0,-52.0,64.0,15.0,-20.0,30.0,-1000.0,-179.0
14.0,-244.0,-50.0,63.0,16.0,-20.0,32.0,-999.0,-180.0
10.0,-243.0,-48.0,63.0,17.0,-18.0,32.0,-996.0,-181.0
11.0,-236.0,-49.0,62.0,16.0,-17.0,32.0,-997.0,-183.0
12.0,-243.0,-50.0,60.0,16.0,-19.0,31.0,-1000.0,-180.0
14.0,-243.0,-49.0,59.0,13.0,-20.0,33.0,-994.0,-176.0
14.0,-246.0,-46.0,56.0,13.0,-22.0,32.0,-999.0,-184.0
14.0,-244.0,-52.0,56.0,14.0,-21.0,33.0,-1001.0,-176.0
16.0,-243.0,-51.0,53.0,13.0,-22.0,37.0,-994.0,-175.0
13.0,-242.0,-50.0,50.0,13.0,-21.0,34.0,-995.0,-173.0
16.0,-240.0,-48.0,48.0,13.0,-21.0,37.0,-994.0,-179.0
12.0,-239.0,-50.0,49.0,12.0,-19.0,34.0,-992.0,-180.0
16.0,-243.0,-46.0,47.0,12.0,-19.0,34.0,-1000.0,-181.0
17.0,-234.0,-48.0,45.0,11.0,-20.0,36.0,-992.0,-183.0
11.0,-242.0,-51.0,43.0,8.0,-19.0,34.0,-995.0,-179.0
14.0,-246.0,-50.0,45.0,8.0,-18.0,37.0,-997.0,-180.0
13.0,-241.0,-47.0,46.0,7.0,-18.0,33.0,-999.0,-188.0
11.0,-244.0,-51.0,45.0,8.0,-18.0,30.0,-999.0,-182.0
13.0,-242.0,-55.0,44.0,8.0,-16.0,33.0,-1003.0,-187.0
16.0,-243.0,-49.0,43.0,6.0,-15.0,34.0,-998.0,-186.0
12.0,-241.0,-52.0,42.0,6.0,-16.0,33.0,-1001.0,-184.0
13.0,-241.0,-50.0,42.0,7.0,-15.0,34.0,-993.0,-179.0
16.0,-243.0,-50.0,40.0,6.0,-14.0,33.0,-993.0,-183.0
12.0,-245.0,-50.0,38.0,6.0,-13.0,37.0,-995.0,-185.0
13.0,-245.0,-42.0,37.0,6.0,-13.0,31.0,-995.0,-184.0
14.0,-244.0,-49.0,38.0,5.0,-12.0,32.0,-997.0,-180.0
12.0,-242.0,-47.0,37.0,4.0,-11.0,33.0,-992.0,-187.0
13.0,-242.0,-49.0,39.0,3.0,-12.0,27.0,-1002.0,-189.0
14.0,-244.0,-50.0,38.0,4.0,-14.0,34.0,-999.0,-190.0
14.0,-244.0,-49.0,39.0,5.0,-12.0,33.0,-1001.0,-184.0
13.0,-242.0,-49.0,38.0,5.0,-14.0,34.0,-994.0,-185.0
11.0,-240.0,-48.0,38.0,4.0,-14.0,30.0,-997.0,-186.0
12.0,-243.0,-53.0,37.0,4.0,-13.0,31.0,-997.0,-184.0
15.0,-243.0,-48.0,36.0,4.0,-12.0,35.0,-1001.0,-188.0
13.0,-243.0,-52.0,36.0,1.0,-13.0,28.0,-998.0,-186.0
8.0,-240.0,-53.0,35.0,0.0,-12.0,28.0,-999.0,-185.0
14.0,-242.0,-52.0,32.0,-1.0,-11.0,30.0,-999.0,-187.0
14.0,-243.0,-49.0,33.0,-2.0,-11.0,28.0,-999.0,-188.0
12.0,-246.0,-50.0,33.0,-1.0,-12.0,24.0,-992.0,-187.0
12.0,-242.0,-52.0,33.0,-1.0,-12.0,29.0,-995.0,-183.0
13.0,-241.0,-50.0,33.0,1.0,-12.0,32.0,-993.0,-184.0
15.0,-238.0,-51.0,34.0,2.0,-12.0,31.0,-991.0,-185.0
15.0,-243.0,-49.0,38.0,4.0,-13.0,35.0,-986.0,-185.0
13.0,-242.0,-49.0,38.0,4.0,-13.0,33.0,-991.0,-192.0
16.0,-246.0,-52.0,40.0,3.0,-12.0,33.0,-995.0,-189.0
16.0,-244.0,-50.0,42.0,1.0,-11.0,31.0,-998.0,-184.0
17.0,-247.0,-58.0,44.0,0.0,-9.0,33.0,-1004.0,-182.0
14.0,-245.0,-51.0,47.0,-1.0,-8.0,34.0,-1009.0,-181.0
13.0,-244.0,-51.0,49.0,-3.0,-7.0,37.0,-1005.0,-183.0
14.0,-246.0,-51.0,51.0,-3.0,-7.0,35.0,-1005.0,-184.0
14.0,-242.0,-51.0,51.0,-2.0,-6.0,32.0,-1012.0,-191.0
12.0,-243.0,-46.0,53.0,-3.0,-6.0,36.0,-1004.0,-182.0
13.0,-242.0,-54.0,56.0,-2.0,-8.0,30.0,-1005.0,-188.0
13.0,-246.0,-51.0,55.0,-2.0,-7.0,31.0,-1010.0,-192.0
11.0,-242.0,-48.0,56.0,-2.0,-8.0,32.0,-1003.0,-187.0
16.0,-247.0,-54.0,55.0,-1.0,-10.0,29.0,-1001.0,-192.0
15.0,-242.0,-52.0,56.0,-2.0,-11.0,26.0,-999.0,-190.0
10.0,-242.0,-55.0,54.0,-2.0,-12.0,28.0,-1000.0,-194.0
14.0,-243.0,-52.0,52.0,-2.0,-12.0,25.0,-1001.0,-195.0
12.0,-242.0,-52.0,50.0,0.0,-12.0,23.0,-995.0,-189.0
11.0,-242.0,-53.0,46.0,2.0,-14.0,28.0,-992.0,-187.0
12.0,-242.0,-53.0,42.0,4.0,-13.0,25.0,-992.0,-182.0
12.0,-242.0,-54.0,39.0,8.0,-13.0,22.0,-990.0,-183.0
13.0,-240.0,-52.0,35.0,9.0,-15.0,28.0,-992.0,-187.0
8.0,-239.0,-48.0,33.0,10.0,-15.0,27.0,-990.0,-177.0
15.0,-245.0,-47.0,32.0,12.0,-15.0,23.0,-1000.0,-177.0
11.0,-241.0,-47.0,31.0,11.0,-15.0,26.0,-998.0,-177.0
20.0,-235.0,-58.0,29.0,11.0,-16.0,20.0,-997.0,-180.0
13.0,-242.0,-50.0,29.0,12.0,-16.0,25.0,-1003.0,-172.0
10.0,-242.0,-48.0,26.0,11.0,-15.0,26.0,-1000.0,-169.0
9.0,-241.0,-48.0,25.0,12.0,-16.0,23.0,-1004.0,-178.0
8.0,-244.0,-47.0,23.0,11.0,-17.0,20.0,-1002.0,-174.0
10.0,-246.0,-45.0,21.0,11.0,-17.0,20.0,-997.0,-173.0
12.0,-242.0,-46.0,18.0,9.0,-17.0,22.0,-993.0,-178.0
13.0,-242.0,-46.0,15.0,8.0,-19.0,23.0,-998.0,-174.0
11.0,-243.0,-48.0,12.0,6.0,-18.0,24.0,-992.0,-178.0
15.0,-243.0,-50.0,12.0,5.0,-16.0,31.0,-997.0,-174.0
16.0,-244.0,-47.0,10.0,2.0,-15.0,31.0,-993.0,-184.0
14.0,-237.0,-50.0,8.0,1.0,-12.0,36.0,-998.0,-180.0
14.0,-242.0,-52.0,6.0,2.0,-8.0,39.0,-992.0,-183.0
18.0,-243.0,-49.0,3.0,2.0,-4.0,38.0,-990.0,-192.0
16.0,-241.0,-55.0,3.0,1.0,0.0,48.0,-990.0,-185.0
17.0,-245.0,-55.0,1.0,1.0,2.0,42.0,-990.0,-186.0
15.0,-241.0,-53.0,2.0,-1.0,4.0,49.0,-998.0,-199.0
15.0,-238.0,-57.0,3.0,1.0,5.0,43.0,-993.0,-197.0
18.0,-241.0,-54.0,5.0,1.0,4.0,47.0,-997.0,-204.0
16.0,-240.0,-61.0,8.0,-2.0,5.0,48.0,-994.0,-205.0
18.0,-242.0,-59.0,6.0,-3.0,5.0,43.0,-994.0,-205.0
17.0,-243.0,-54.0,7.0,-3.0,4.0,48.0,-991.0,-204.0
14.0,-240.0,-61.0,8.0,-5.0,2.0,43.0,-990.0,-208.0
19.0,-242.0,-53.0,8.0,-5.0,3.0,41.0,-989.0,-210.0
14.0,-241.0,-56.0,8.0,-7.0,2.0,37.0,-991.0,-207.0
16.0,-241.0,-55.0,8.0,-7.0,0.0,37.0,-993.0,-206.0
12.0,-241.0,-56.0,9.0,-8.0,0.0,38.0,-993.0,-206.0
14.0,-242.0,-54.0,10.0,-10.0,-3.0,35.0,-991.0,-208.0
17.0,-245.0,-55.0,12.0,-11.0,-3.0,35.0,-995.0,-201.0
16.0,-247.0,-57.0,16.0,-13.0,-2.0,32.0,-995.0,-199.0
17.0,-246.0,-57.0,21.0,-12.0,-2.0,33.0,-989.0,-202.0
11.0,-241.0,-52.0,26.0,-14.0,-2.0,28.0,-995.0,-207.0
12.0,-249.0,-52.0,30.0,-12.0,-2.0,31.0,-1000.0,-207.0
12.0,-241.0,-59.0,34.0,-12.0,-1.0,32.0,-1000.0,-198.0
13.0,-245.0,-53.0,39.0,-11.0,0.0,31.0,-999.0,-206.0
10.0,-243.0,-50.0,43.0,-11.0,-2.0,25.0,-998.0,-201.0
9.0,-243.0,-56.0,46.0,-9.0,-2.0,26.0,-999.0,-207.0
15.0,-245.0,-55.0,47.0,-6.0,-1.0,24.0,-998.0,-198.0
13.0,-245.0,-52.0,49.0,-5.0,-1.0,24.0,-1000.0,-207.0
13.0,-245.0,-54.0,48.0,-3.0,1.0,23.0,-998.0,-201.0
7.0,-238.0,-53.0,48.0,-2.0,2.0,28.0,-998.0,-198.0
12.0,-242.0,-54.0,48.0,-2.0,0.0,26.0,-997.0,-200.0
12.0,-244.0,-54.0,46.0,-2.0,0.0,24.0,-996.0,-201.0
8.0,-240.0,-57.0,46.0,0.0,2.0,25.0,-997.0,-200.0
6.0,-244.0,-48.0,43.0,0.0,2.0,19.0,-1000.0,-196.0
11.0,-246.0,-53.0,43.0,1.0,2.0,25.0,-996.0,-200.0
10.0,-242.0,-52.0,42.0,1.0,3.0,27.0,-998.0,-199.0
7.0,-241.0,-53.0,41.0,1.0,3.0,23.0,-997.0,-201.0
11.0,-241.0,-51.0,40.0,3.0,3.0,22.0,-995.0,-203.0
13.0,-245.0,-57.0,40.0,3.0,3.0,27.0,-995.0,-202.0
10.0,-243.0,-54.0,39.0,4.0,2.0,24.0,-998.0,-202.0
11.0,-240.0,-58.0,39.0,5.0,4.0,26.0,-995.0,-202.0
10.0,-241.0,-53.0,40.0,6.0,3.0,26.0,-998.0,-203.0
11.0,-244.0,-57.0,42.0,8.0,3.0,24.0,-993.0,-202.0
12.0,-244.0,-58.0,43.0,10.0,3.0,27.0,-991.0,-201.0
11.0,-238.0,-56.0,43.0,11.0,3.0,23.0,-996.0,-200.0
13.0,-244.0,-55.0,46.0,11.0,4.0,26.0,-995.0,-198.0
13.0,-244.0,-54.0,47.0,11.0,4.0,27.0,-994.0,-202.0
12.0,-243.0,-57.0,51.0,11.0,4.0,27.0,-999.0,-205.0
11.0,-243.0,-54.0,52.0,10.0,2.0,23.0,-992.0,-204.0
14.0,-242.0,-54.0,54.0,10.0,0.0,25.0,-999.0,-202.0
11.0,-242.0,-51.0,55.0,11.0,1.0,25.0,-995.0,-201.0
12.0,-242.0,-53.0,56.0,12.0,1.0,21.0,-997.0,-196.0
10.0,-243.0,-56.0,58.0,13.0,1.0,21.0,-990.0,-200.0
15.0,-245.0,-50.0,57.0,14.0,-1.0,24.0,-997.0,-200.0
8.0,-237.0,-51.0,59.0,14.0,-2.0,24.0,-999.0,-198.0
10.0,-245.0,-52.0,60.0,13.0,-2.0,20.0,-996.0,-200.0
11.0,-243.0,-51.0,59.0,14.0,-2.0,29.0,-992.0,-199.0
13.0,-245.0,-50.0,62.0,14.0,-2.0,27.0,-993.0,-203.0
12.0,-239.0,-55.0,63.0,17.0,-4.0,25.0,-992.0,-198.0
12.0,-240.0,-50.0,64.0,17.0,-4.0,24.0,-991.0,-193.0
13.0,-241.0,-56.0,65.0,19.0,-5.0,27.0,-994.0,-197.0
11.0,-239.0,-54.0,65.0,20.0,-5.0,24.0,-990.0,-199.0
12.0,-243.0,-53.0,65.0,19.0,-5.0,24.0,-991.0,-201.0
13.0,-241.0,-55.0,64.0,19.0,-7.0,32.0,-994.0,-205.0
11.0,-240.0,-58.0,64.0,18.0,-7.0,25.0,-993.0,-209.0
13.0,-238.0,-59.0,64.0,19.0,-5.0,30.0,-991.0,-197.0
16.0,-245.0,-52.0,62.0,18.0,-6.0,26.0,-997.0,-204.0
10.0,-244.0,-55.0,62.0,19.0,-4.0,21.0,-995.0,-200.0
12.0,-241.0,-55.0,63.0,16.0,-5.0,24.0,-994.0,-202.0
11.0,-242.0,-55.0,61.0,16.0,-4.0,22.0,-1000.0,-200.0
14.0,-243.0,-56.0,61.0,15.0,-5.0,24.0,-993.0,-201.0
10.0,-238.0,-51.0,61.0,14.0,-6.0,32.0,-992.0,-204.0
11.0,-241.0,-47.0,61.0,13.0,-6.0,24.0,-997.0,-201.0
16.0,-244.0,-54.0,62.0,13.0,-4.0,28.0,-996.0,-197.0
10.0,-242.0,-53.0,62.0,13.0,-4.0,27.0,-1000.0,-197.0
9.0,-242.0,-56.0,64.0,13.0,-4.0,23.0,-994.0,-196.0
19.0,-244.0,-60.0,64.0,15.0,-4.0,27.0,-1000.0,-197.0
14.0,-244.0,-56.0,62.0,13.0,-4.0,22.0,-998.0,-200.0
10.0,-244.0,-52.0,65.0,14.0,-4.0,25.0,-997.0,-198.0
9.0,-243.0,-55.0,65.0,15.0,-6.0,21.0,-996.0,-196.0
8.0,-242.0,-53.0,65.0,15.0,-6.0,20.0,-997.0,-201.0
12.0,-242.0,-54.0,67.0,15.0,-6.0,23.0,-1001.0,-200.0
13.0,-243.0,-57.0,67.0,17.0,-6.0,26.0,-999.0,-201.0
12.0,-245.0,-54.0,67.0,19.0,-7.0,24.0,-997.0,-198.0
10.0,-240.0,-53.0,68.0,20.0,-7.0,21.0,-998.0,-199.0
9.0,-242.0,-57.0,69.0,21.0,-6.0,22.0,-998.0,-202.0
14.0,-244.0,-55.0,69.0,22.0,-7.0,24.0,-996.0,-204.0
9.0,-242.0,-57.0,70.0,22.0,-9.0,22.0,-997.0,-200.0
12.0,-241.0,-49.0,70.0,23.0,-9.0,21.0,-995.0,-199.0
13.0,-246.0,-52.0,69.0,26.0,-9.0,17.0,-994.0,-199.0
12.0,-244.0,-52.0,68.0,26.0,-12.0,21.0,-998.0,-191.0
11.0,-245.0,-54.0,65.0,26.0,-13.0,21.0,-998.0,-191.0
11.0,-244.0,-49.0,63.0,25.0,-17.0,17.0,-997.0,-191.0
10.0,-245.0,-50.0,60.0,25.0,-19.0,22.0,-998.0,-190.0
11.0,-246.0,-52.0,60.0,26.0,-20.0,19.0,-1000.0,-188.0
10.0,-245.0,-49.0,59.0,26.0,-21.0,22.0,-996.0,-190.0
11.0,-248.0,-53.0,62.0,27.0,-24.0,20.0,-1002.0,-192.0
11.0,-241.0,-51.0,65.0,27.0,-24.0,22.0,-1003.0,-183.0
13.0,-240.0,-52.0,67.0,28.0,-26.0,20.0,-999.0,-193.0
12.0,-245.0,-52.0,68.0,27.0,-28.0,17.0,-997.0,-194.0
12.0,-242.0,-50.0,68.0,28.0,-29.0,17.0,-996.0,-196.0
10.0,-242.0,-56.0,68.0,27.0,-29.0,22.0,-989.0,-193.0
13.0,-242.0,-57.0,68.0,27.0,-31.0,22.0,-990.0,-195.0
14.0,-239.0,-58.0,67.0,26.0,-29.0,29.0,-991.0,-196.0
13.0,-240.0,-52.0,66.0,26.0,-29.0,29.0,-991.0,-191.0
14.0,-238.0,-51.0,67.0,25.0,-27.0,29.0,-986.0,-194.0
10.0,-240.0,-58.0,66.0,24.0,-24.0,25.0,-988.0,-195.0
14.0,-239.0,-59.0,65.0,23.0,-23.0,28.0,-991.0,-197.0
15.0,-242.0,-51.0,66.0,20.0,-20.0,26.0,-992.0,-196.0
14.0,-249.0,-52.0,66.0,19.0,-18.0,27.0,-998.0,-191.0
14.0,-241.0,-51.0,64.0,17.0,-15.0,28.0,-998.0,-189.0
14.0,-243.0,-50.0,64.0,17.0,-16.0,28.0,-1000.0,-187.0
13.0,-246.0,-55.0,63.0,13.0,-16.0,34.0,-1002.0,-193.0
14.0,-246.0,-51.0,62.0,13.0,-17.0,33.0,-1005.0,-187.0
13.0,-246.0,-49.0,62.0,9.0,-16.0,29.0,-1006.0,-188.0
12.0,-247.0,-54.0,63.0,6.0,-16.0,30.0,-1007.0,-194.0
15.0,-247.0,-53.0,63.0,4.0,-18.0,31.0,-1005.0,-202.0
13.0,-245.0,-56.0,66.0,4.0,-20.0,28.0,-1010.0,-191.0
12.0,-246.0,-57.0,67.0,5.0,-21.0,27.0,-1008.0,-191.0
12.0,-243.0,-53.0,69.0,6.0,-20.0,25.0,-1003.0,-194.0
12.0,-243.0,-47.0,71.0,7.0,-22.0,29.0,-992.0,-188.0
14.0,-244.0,-50.0,72.0,9.0,-21.0,25.0,-994.0,-188.0
11.0,-243.0,-50.0,72.0,11.0,-22.0,26.0,-994.0,-195.0
14.0,-244.0,-51.0,72.0,14.0,-23.0,29.0,-990.0,-194.0
14.0,-238.0,-51.0,70.0,17.0,-22.0,29.0,-992.0,-192.0
8.0,-236.0,-48.0,69.0,19.0,-21.0,29.0,-988.0,-183.0
12.0,-238.0,-49.0,69.0,22.0,-20.0,28.0,-988.0,-181.0
11.0,-237.0,-55.0,68.0,24.0,-20.0,32.0,-990.0,-190.0
15.0,-243.0,-49.0,69.0,25.0,-20.0,26.0,-991.0,-185.0
13.0,-243.0,-50.0,67.0,27.0,-19.0,26.0,-991.0,-186.0
13.0,-244.0,-49.0,68.0,27.0,-17.0,29.0,-991.0,-183.0
9.0,-242.0,-53.0,69.0,27.0,-15.0,32.0,-992.0,-188.0
10.0,-241.0,-52.0,69.0,27.0,-15.0,28.0,-997.0,-196.0
11.0,-240.0,-50.0,69.0,26.0,-14.0,30.0,-997.0,-195.0
13.0,-244.0,-54.0,69.0,25.0,-15.0,30.0,-996.0,-196.0
13.0,-241.0,-52.0,69.0,24.0,-14.0,30.0,-995.0,-194.0
14.0,-242.0,-51.0,70.0,22.0,-15.0,32.0,-998.0,-197.0
11.0,-244.0,-49.0,71.0,21.0,-15.0,32.0,-993.0,-192.0
10.0,-242.0,-56.0,71.0,19.0,-15.0,33.0,-995.0,-195.0
13.0,-240.0,-52.0,72.0,19.0,-13.0,28.0,-997.0,-193.0
13.0,-243.0,-56.0,71.0,19.0,-12.0,34.0,-997.0,-193.0
13.0,-242.0,-54.0,73.0,18.0,-11.0,30.0,-994.0,-201.0
11.0,-243.0,-50.0,74.0,18.0,-12.0,32.0,-993.0,-199.0
12.0,-241.0,-56.0,76.0,19.0,-10.0,31.0,-997.0,-193.0
15.0,-241.0,-53.0,76.0,19.0,-6.0,34.0,-996.0,-199.0
14.0,-243.0,-54.0,78.0,18.0,-6.0,31.0,-994.0,-190.0
14.0,-239.0,-54.0,80.0,19.0,-6.0,35.0,-1001.0,-201.0
12.0,-240.0,-54.0,81.0,19.0,-5.0,25.0,-1000.0,-196.0
14.0,-244.0,-51.0,83.0,19.0,-5.0,27.0,-999.0,-193.0
13.0,-245.0,-50.0,84.0,18.0,-6.0,29.0,-1000.0,-188.0
11.0,-242.0,-48.0,85.0,19.0,-7.0,31.0,-997.0,-192.0
13.0,-242.0,-53.0,85.0,20.0,-6.0,30.0,-993.0,-192.0
15.0,-244.0,-56.0,85.0,20.0,-7.0,27.0,-996.0,-186.0
12.0,-244.0,-48.0,83.0,21.0,-6.0,27.0,-996.0,-188.0
14.0,-242.0,-56.0,81.0,22.0,-5.0,27.0,-992.0,-188.0
11.0,-242.0,-54.0,78.0,22.0,-6.0,29.0,-992.0,-189.0
11.0,-242.0,-52.0,76.0,21.0,-8.0,27.0,-998.0,-183.0
11.0,-244.0,-49.0,71.0,20.0,-8.0,23.0,-997.0,-184.0
12.0,-242.0,-49.0,69.0,19.0,-7.0,23.0,-999.0,-186.0
11.0,-241.0,-57.0,67.0,18.0,-6.0,21.0,-997.0,-179.0
13.0,-244.0,-50.0,68.0,16.0,-6.0,23.0,-998.0,-189.0
15.0,-245.0,-49.0,68.0,16.0,-7.0,30.0,-1000.0,-181.0
14.0,-245.0,-47.0,70.0,15.0,-8.0,24.0,-997.0,-186.0
13.0,-246.0,-56.0,71.0,15.0,-7.0,29.0,-999.0,-184.0
19.0,-241.0,-42.0,71.0,14.0,-8.0,29.0,-998.0,-196.0
12.0,-244.0,-53.0,74.0,15.0,-9.0,27.0,-1000.0,-191.0
12.0,-245.0,-56.0,75.0,13.0,-8.0,29.0,-997.0,-189.0
11.0,-242.0,-56.0,75.0,13.0,-7.0,30.0,-1001.0,-192.0
13.0,-242.0,-51.0,75.0,14.0,-6.0,32.0,-998.0,-192.0
10.0,-242.0,-53.0,75.0,15.0,-5.0,29.0,-996.0,-186.0
12.0,-242.0,-51.0,74.0,14.0,-6.0,30.0,-999.0,-192.0
13.0,-244.0,-46.0,72.0,15.0,-4.0,32.0,-1003.0,-188.0
13.0,-240.0,-50.0,72.0,16.0,-3.0,29.0,-999.0,-188.0
11.0,-242.0,-50.0,71.0,18.0,-2.0,31.0,-998.0,-188.0
11.0,-240.0,-57.0,71.0,19.0,-1.0,26.0,-995.0,-182.0
10.0,-242.0,-53.0,71.0,20.0,-3.0,27.0,-997.0,-192.0
11.0,-242.0,-51.0,72.0,21.0,-3.0,25.0,-997.0,-184.0
13.0,-243.0,-51.0,72.0,20.0,-3.0,28.0,-995.0,-189.0
11.0,-241.0,-51.0,72.0,18.0,-4.0,29.0,-993.0,-181.0
12.0,-242.0,-51.0,72.0,15.0,-3.0,28.0,-992.0,-185.0
11.0,-242.0,-50.0,71.0,15.0,-4.0,22.0,-994.0,-194.0
14.0,-241.0,-52.0,67.0,13.0,-3.0,24.0,-994.0,-185.0
10.0,-242.0,-51.0,66.0,11.0,-3.0,21.0,-989.0,-182.0
9.0,-237.0,-52.0,63.0,9.0,-3.0,21.0,-985.0,-184.0
9.0,-240.0,-51.0,60.0,8.0,-1.0,22.0,-989.0,-187.0
5.0,-240.0,-56.0,57.0,8.0,-1.0,18.0,-983.0,-187.0
11.0,-238.0,-53.0,53.0,9.0,3.0,17.0,-988.0,-177.0
12.0,-239.0,-54.0,48.0,10.0,4.0,21.0,-989.0,-180.0
10.0,-241.0,-48.0,44.0,12.0,7.0,18.0,-994.0,-174.0
11.0,-241.0,-50.0,40.0,15.0,9.0,18.0,-990.0,-178.0
13.0,-241.0,-50.0,35.0,15.0,10.0,23.0,-990.0,-173.0
12.0,-246.0,-48.0,32.0,17.0,9.0,25.0,-999.0,-170.0
11.0,-245.0,-48.0,29.0,16.0,8.0,24.0,-1001.0,-178.0
13.0,-244.0,-47.0,28.0,15.0,7.0,26.0,-1010.0,-180.0
12.0,-242.0,-48.0,27.0,13.0,7.0,28.0,-1007.0,-180.0
12.0,-248.0,-46.0,27.0,13.0,5.0,28.0,-1011.0,-177.0
12.0,-249.0,-47.0,29.0,12.0,1.0,30.0,-1009.0,-182.0
15.0,-247.0,-49.0,30.0,11.0,-1.0,30.0,-1005.0,-171.0
15.0,-246.0,-52.0,33.0,11.0,-2.0,30.0,-1012.0,-178.0
15.0,-246.0,-49.0,35.0,10.0,-5.0,36.0,-1006.0,-179.0
15.0,-245.0,-49.0,38.0,9.0,-5.0,36.0,-1009.0,-183.0
15.0,-246.0,-52.0,40.0,10.0,-7.0,32.0,-1003.0,-181.0
16.0,-246.0,-44.0,44.0,10.0,-9.0,31.0,-1004.0,-181.0
12.0,-249.0,-55.0,45.0,10.0,-6.0,34.0,-998.0,-176.0
13.0,-244.0,-51.0,47.0,10.0,-6.0,33.0,-998.0,-181.0
11.0,-241.0,-49.0,50.0,10.0,-6.0,31.0,-1002.0,-185.0
12.0,-245.0,-51.0,51.0,10.0,-5.0,25.0,-997.0,-176.0
9.0,-243.0,-48.0,53.0,11.0,-3.0,27.0,-1000.0,-176.0
11.0,-244.0,-46.0,54.0,10.0,-2.0,24.0,-999.0,-175.0
12.0,-242.0,-52.0,56.0,11.0,0.0,21.0,-992.0,-174.0
10.0,-241.0,-46.0,59.0,11.0,0.0,21.0,-999.0,-177.0
11.0,-241.0,-47.0,59.0,12.0,0.0,23.0,-996.0,-173.0
13.0,-244.0,-48.0,59.0,11.0,-1.0,22.0,-996.0,-181.0
9.0,-243.0,-49.0,58.0,12.0,-1.0,22.0,-1001.0,-174.0
13.0,-243.0,-45.0,59.0,12.0,-1.0,19.0,-998.0,-179.0
8.0,-246.0,-44.0,58.0,11.0,0.0,20.0,-1000.0,-176.0
12.0,-242.0,-48.0,57.0,10.0,-2.0,28.0,-1005.0,-177.0
9.0,-242.0,-47.0,55.0,10.0,-2.0,27.0,-998.0,-181.0
13.0,-243.0,-48.0,55.0,10.0,-1.0,25.0,-1001.0,-175.0
12.0,-242.0,-49.0,56.0,9.0,-3.0,29.0,-995.0,-178.0
13.0,-244.0,-50.0,55.0,8.0,-2.0,24.0,-1002.0,-179.0
10.0,-242.0,-46.0,55.0,9.0,-2.0,26.0,-1000.0,-177.0
13.0,-244.0,-47.0,54.0,9.0,-2.0,25.0,-1002.0,-181.0
13.0,-244.0,-49.0,55.0,7.0,-2.0,23.0,-997.0,-178.0
12.0,-243.0,-47.0,57.0,7.0,-2.0,28.0,-1004.0,-170.0
14.0,-243.0,-48.0,57.0,8.0,-1.0,27.0,-995.0,-183.0
14.0,-243.0,-45.0,57.0,7.0,-1.0,27.0,-1001.0,-182.0
12.0,-245.0,-52.0,56.0,8.0,-1.0,30.0,-1000.0,-182.0
16.0,-244.0,-52.0,55.0,8.0,-1.0,28.0,-996.0,-183.0
14.0,-248.0,-56.0,57.0,9.0,-1.0,27.0,-995.0,-179.0
12.0,-245.0,-52.0,57.0,9.0,0.0,27.0,-996.0,-182.0
11.0,-242.0,-51.0,57.0,9.0,-1.0,29.0,-999.0,-183.0
12.0,-242.0,-51.0,57.0,9.0,-1.0,22.0,-999.0,-185.0
11.0,-243.0,-51.0,57.0,9.0,-2.0,27.0,-997.0,-178.0
11.0,-242.0,-50.0,57.0,9.0,-2.0,27.0,-998.0,-187.0
14.0,-242.0,-52.0,57.0,9.0,-3.0,27.0,-996.0,-183.0
7.0,-241.0,-52.0,55.0,9.0,0.0,26.0,-1000.0,-185.0
15.0,-246.0,-53.0,56.0,9.0,-2.0,29.0,-992.0,-188.0
13.0,-245.0,-50.0,54.0,8.0,-2.0,28.0,-995.0,-186.0
14.0,-246.0,-56.0,54.0,7.0,-2.0,26.0,-993.0,-191.0
12.0,-243.0,-51.0,53.0,6.0,-2.0,28.0,-992.0,-193.0
10.0,-239.0,-52.0,50.0,7.0,-4.0,22.0,-996.0,-186.0
11.0,-241.0,-54.0,50.0,7.0,-6.0,27.0,-995.0,-187.0
10.0,-240.0,-50.0,49.0,6.0,-5.0,22.0,-993.0,-189.0
12.0,-242.0,-57.0,49.0,6.0,-8.0,25.0,-991.0,-192.0
10.0,-243.0,-52.0,48.0,7.0,-7.0,21.0,-994.0,-188.0
11.0,-245.0,-55.0,48.0,7.0,-7.0,22.0,-997.0,-196.0
13.0,-243.0,-52.0,47.0,5.0,-7.0,22.0,-997.0,-194.0
12.0,-244.0,-56.0,47.0,4.0,-5.0,22.0,-996.0,-187.0
10.0,-240.0,-50.0,46.0,0.0,-4.0,27.0,-993.0,-193.0
7.0,-242.0,-56.0,46.0,-4.0,-3.0,24.0,-998.0,-195.0
11.0,-243.0,-53.0,45.0,-6.0,-2.0,18.0,-998.0,-192.0
10.0,-243.0,-50.0,46.0,-8.0,1.0,18.0,-1004.0,-192.0
8.0,-243.0,-54.0,46.0,-8.0,2.0,16.0,-998.0,-193.0
9.0,-243.0,-51.0,45.0,-7.0,2.0,15.0,-1002.0,-192.0
10.0,-245.0,-55.0,47.0,-6.0,6.0,12.0,-1007.0,-198.0
9.0,-245.0,-54.0,48.0,-3.0,7.0,18.0,-1004.0,-198.0
8.0,-246.0,-54.0,49.0,-1.0,9.0,15.0,-996.0,-191.0
8.0,-243.0,-54.0,49.0,1.0,10.0,15.0,-1005.0,-200.0
10.0,-244.0,-51.0,50.0,5.0,11.0,18.0,-999.0,-196.0
10.0,-241.0,-57.0,50.0,6.0,11.0,23.0,-1003.0,-201.0
15.0,-241.0,-54.0,48.0,10.0,11.0,21.0,-994.0,-199.0
10.0,-241.0,-53.0,46.0,11.0,12.0,21.0,-1003.0,-192.0
11.0,-242.0,-53.0,42.0,12.0,10.0,19.0,-1000.0,-192.0
12.0,-243.0,-49.0,39.0,11.0,10.0,20.0,-998.0,-189.0
13.0,-242.0,-52.0,36.0,11.0,8.0,26.0,-999.0,-184.0
11.0,-245.0,-51.0,35.0,10.0,7.0,25.0,-999.0,-184.0
12.0,-245.0,-48.0,36.0,9.0,5.0,24.0,-1003.0,-179.0
11.0,-245.0,-53.0,36.0,7.0,2.0,25.0,-999.0,-178.0
9.0,-244.0,-50.0,37.0,6.0,2.0,26.0,-1000.0,-179.0
13.0,-248.0,-54.0,39.0,4.0,1.0,24.0,-1006.0,-183.0
10.0,-245.0,-46.0,40.0,3.0,0.0,24.0,-993.0,-178.0
13.0,-242.0,-50.0,41.0,3.0,-1.0,27.0,-998.0,-182.0
9.0,-241.0,-49.0,45.0,4.0,-2.0,19.0,-994.0,-185.0
10.0,-242.0,-45.0,48.0,3.0,-3.0,21.0,-999.0,-176.0
9.0,-241.0,-48.0,48.0,3.0,-1.0,19.0,-995.0,-184.0
11.0,-243.0,-52.0,48.0,4.0,-1.0,23.0,-996.0,-187.0
11.0,-241.0,-50.0,49.0,5.0,0.0,19.0,-993.0,-179.0
10.0,-246.0,-50.0,50.0,6.0,2.0,21.0,-990.0,-175.0
10.0,-240.0,-47.0,50.0,7.0,1.0,21.0,-988.0,-181.0
15.0,-243.0,-48.0,49.0,6.0,1.0,16.0,-996.0,-177.0
13.0,-238.0,-50.0,49.0,7.0,3.0,17.0,-996.0,-183.0
11.0,-236.0,-50.0,48.0,6.0,6.0,17.0,-996.0,-183.0
11.0,-241.0,-48.0,47.0,7.0,6.0,19.0,-993.0,-170.0
11.0,-242.0,-48.0,47.0,7.0,7.0,21.0,-995.0,-177.0
9.0,-242.0,-49.0,46.0,7.0,6.0,19.0,-997.0,-183.0
10.0,-241.0,-50.0,46.0,7.0,7.0,18.0,-999.0,-178.0
12.0,-244.0,-48.0,47.0,7.0,6.0,18.0,-1002.0,-185.0
11.0,-241.0,-51.0,47.0,8.0,5.0,20.0,-1000.0,-185.0
8.0,-245.0,-49.0,46.0,7.0,7.0,21.0,-999.0,-179.0
13.0,-244.0,-55.0,46.0,5.0,7.0,19.0,-1001.0,-181.0
12.0,-243.0,-50.0,47.0,5.0,5.0,20.0,-999.0,-183.0
10.0,-245.0,-49.0,48.0,5.0,4.0,26.0,-1001.0,-182.0
10.0,-239.0,-40.0,47.0,6.0,2.0,21.0,-997.0,-182.0
13.0,-242.0,-53.0,49.0,5.0,0.0,24.0,-997.0,-187.0
10.0,-240.0,-50.0,47.0,4.0,0.0,21.0,-996.0,-182.0
11.0,-240.0,-47.0,47.0,5.0,-1.0,29.0,-996.0,-184.0
11.0,-242.0,-52.0,48.0,5.0,-1.0,24.0,-998.0,-183.0
8.0,-242.0,-51.0,48.0,6.0,-3.0,28.0,-993.0,-187.0
11.0,-243.0,-46.0,48.0,6.0,-3.0,23.0,-995.0,-184.0
10.0,-242.0,-46.0,48.0,7.0,-3.0,25.0,-999.0,-180.0
12.0,-245.0,-48.0,49.0,8.0,-3.0,21.0,-995.0,-188.0
12.0,-246.0,-48.0,50.0,8.0,-2.0,23.0,-1000.0,-188.0
15.0,-244.0,-54.0,52.0,8.0,-2.0,29.0,-998.0,-190.0
17.0,-243.0,-45.0,54.0,8.0,-2.0,23.0,-1000.0,-197.0
11.0,-241.0,-53.0,55.0,8.0,-2.0,24.0,-999.0,-199.0
11.0,-243.0,-53.0,56.0,7.0,0.0,26.0,-1002.0,-196.0
11.0,-242.0,-50.0,55.0,7.0,-1.0,20.0,-1001.0,-197.0
10.0,-244.0,-57.0,55.0,5.0,0.0,19.0,-996.0,-193.0
10.0,-242.0,-54.0,54.0,5.0,-2.0,17.0,-999.0,-196.0
11.0,-243.0,-54.0,53.0,7.0,-3.0,18.0,-1003.0,-199.0
13.0,-243.0,-54.0,51.0,8.0,-2.0,16.0,-1000.0,-200.0
8.0,-242.0,-48.0,49.0,9.0,-2.0,19.0,-1000.0,-197.0
11.0,-242.0,-52.0,46.0,10.0,-4.0,14.0,-1001.0,-194.0
8.0,-245.0,-53.0,43.0,12.0,-6.0,13.0,-992.0,-193.0
9.0,-244.0,-53.0,39.0,12.0,-6.0,15.0,-997.0,-199.0
6.0,-240.0,-49.0,37.0,16.0,-8.0,17.0,-997.0,-195.0
9.0,-242.0,-52.0,36.0,17.0,-7.0,19.0,-994.0,-193.0
8.0,-241.0,-53.0,36.0,21.0,-9.0,18.0,-996.0,-185.0
9.0,-244.0,-52.0,37.0,21.0,-9.0,17.0,-998.0,-195.0
10.0,-245.0,-53.0,40.0,23.0,-7.0,19.0,-1000.0,-188.0
7.0,-247.0,-55.0,41.0,24.0,-6.0,16.0,-1003.0,-189.0
9.0,-240.0,-50.0,43.0,24.0,-4.0,15.0,-1000.0,-194.0
7.0,-245.0,-51.0,45.0,22.0,-6.0,15.0,-1002.0,-188.0
7.0,-245.0,-53.0,44.0,21.0,-3.0,18.0,-1002.0,-187.0
6.0,-246.0,-57.0,47.0,19.0,-3.0,14.0,-1005.0,-183.0
7.0,-245.0,-51.0,47.0,16.0,-3.0,14.0,-1003.0,-188.0
10.0,-244.0,-52.0,47.0,14.0,-4.0,17.0,-1000.0,-183.0
11.0,-244.0,-48.0,48.0,12.0,-5.0,20.0,-1000.0,-184.0
7.0,-242.0,-49.0,46.0,10.0,-5.0,16.0,-998.0,-181.0
8.0,-242.0,-52.0,46.0,8.0,-5.0,15.0,-1002.0,-174.0
12.0,-246.0,-50.0,44.0,6.0,-4.0,14.0,-999.0,-187.0
8.0,-242.0,-48.0,44.0,4.0,-6.0,24.0,-1002.0,-173.0
10.0,-245.0,-49.0,44.0,5.0,-6.0,18.0,-997.0,-181.0
13.0,-243.0,-50.0,43.0,3.0,-7.0,19.0,-1001.0,-185.0
11.0,-246.0,-49.0,44.0,1.0,-7.0,19.0,-1002.0,-180.0
12.0,-247.0,-54.0,44.0,0.0,-7.0,21.0,-1001.0,-181.0
12.0,-244.0,-52.0,43.0,-1.0,-6.0,17.0,-999.0,-180.0
12.0,-241.0,-49.0,42.0,-4.0,-6.0,17.0,-994.0,-184.0
9.0,-241.0,-49.0,43.0,-5.0,-5.0,16.0,-993.0,-189.0
9.0,-243.0,-51.0,42.0,-4.0,-3.0,13.0,-991.0,-184.0
9.0,-242.0,-51.0,40.0,-3.0,-1.0,17.0,-995.0,-182.0
9.0,-240.0,-51.0,38.0,-2.0,-1.0,18.0,-993.0,-187.0
12.0,-242.0,-50.0,37.0,0.0,-1.0,13.0,-996.0,-184.0
9.0,-239.0,-50.0,36.0,0.0,1.0,17.0,-992.0,-192.0
8.0,-240.0,-52.0,36.0,2.0,2.0,16.0,-994.0,-185.0
6.0,-239.0,-53.0,34.0,4.0,0.0,16.0,-992.0,-185.0
5.0,-242.0,-51.0,33.0,5.0,2.0,17.0,-993.0,-184.0
10.0,-242.0,-52.0,32.0,6.0,2.0,19.0,-994.0,-188.0
11.0,-242.0,-53.0,32.0,7.0,2.0,19.0,-991.0,-186.0
11.0,-241.0,-50.0,32.0,6.0,1.0,22.0,-990.0,-199.0
10.0,-239.0,-51.0,29.0,6.0,1.0,18.0,-991.0,-190.0
8.0,-244.0,-50.0,27.0,4.0,-1.0,19.0,-988.0,-189.0
11.0,-242.0,-51.0,26.0,4.0,-1.0,16.0,-990.0,-192.0
11.0,-244.0,-48.0,25.0,2.0,-2.0,17.0,-989.0,-184.0
11.0,-241.0,-50.0,24.0,0.0,-2.0,16.0,-993.0,-189.0
9.0,-243.0,-51.0,23.0,-1.0,-2.0,18.0,-995.0,-183.0
9.0,-239.0,-50.0,23.0,-1.0,0.0,14.0,-995.0,-198.0
10.0,-240.0,-49.0,22.0,0.0,2.0,14.0,-997.0,-183.0
7.0,-241.0,-51.0,22.0,1.0,1.0,13.0,-1000.0,-184.0
8.0,-244.0,-51.0,20.0,3.0,1.0,15.0,-1000.0,-185.0
9.0,-244.0,-50.0,19.0,5.0,0.0,15.0,-1003.0,-193.0
7.0,-244.0,-49.0,18.0,6.0,-2.0,8.0,-1012.0,-189.0
9.0,-244.0,-53.0,17.0,8.0,-2.0,17.0,-1003.0,-194.0
11.0,-246.0,-53.0,15.0,7.0,-3.0,13.0,-1006.0,-196.0
5.0,-242.0,-57.0,16.0,8.0,-3.0,12.0,-1002.0,-194.0
8.0,-244.0,-55.0,15.0,8.0,-4.0,16.0,-1003.0,-194.0
8.0,-245.0,-50.0,15.0,9.0,-6.0,15.0,-998.0,-203.0
6.0,-241.0,-56.0,14.0,10.0,-7.0,19.0,-1001.0,-197.0
8.0,-245.0,-49.0,15.0,10.0,-10.0,15.0,-1003.0,-198.0
10.0,-243.0,-56.0,15.0,11.0,-8.0,21.0,-996.0,-195.0
6.0,-241.0,-54.0,17.0,12.0,-9.0,18.0,-999.0,-193.0
10.0,-243.0,-54.0,18.0,12.0,-10.0,17.0,-1000.0,-193.0
10.0,-245.0,-50.0,20.0,13.0,-12.0,18.0,-997.0,-195.0
8.0,-243.0,-53.0,23.0,14.0,-14.0,18.0,-1002.0,-191.0
8.0,-247.0,-55.0,25.0,16.0,-14.0,19.0,-1000.0,-197.0
10.0,-243.0,-47.0,25.0,18.0,-14.0,18.0,-1001.0,-194.0
9.0,-243.0,-48.0,28.0,19.0,-14.0,18.0,-996.0,-188.0
10.0,-243.0,-58.0,27.0,17.0,-14.0,19.0,-1002.0,-195.0
10.0,-243.0,-46.0,25.0,17.0,-13.0,15.0,-1000.0,-193.0
10.0,-243.0,-54.0,25.0,15.0,-13.0,14.0,-997.0,-189.0
10.0,-244.0,-52.0,24.0,15.0,-10.0,17.0,-1000.0,-188.0
10.0,-243.0,-53.0,22.0,13.0,-10.0,16.0,-1004.0,-193.0
10.0,-242.0,-55.0,20.0,11.0,-10.0,12.0,-997.0,-193.0
9.0,-244.0,-52.0,16.0,8.0,-13.0,17.0,-989.0,-189.0
7.0,-238.0,-52.0,13.0,7.0,-13.0,9.0,-993.0,-195.0
11.0,-244.0,-54.0,11.0,7.0,-13.0,17.0,-996.0,-191.0
8.0,-239.0,-50.0,9.0,7.0,-14.0,17.0,-994.0,-192.0
10.0,-239.0,-51.0,8.0,8.0,-14.0,15.0,-983.0,-182.0
9.0,-240.0,-56.0,7.0,8.0,-16.0,19.0,-997.0,-184.0
16.0,-241.0,-39.0,7.0,7.0,-16.0,19.0,-989.0,-193.0
9.0,-240.0,-52.0,7.0,8.0,-15.0,20.0,-995.0,-195.0
8.0,-239.0,-52.0,7.0,7.0,-12.0,19.0,-996.0,-196.0
9.0,-241.0,-54.0,6.0,7.0,-13.0,19.0,-995.0,-197.0
7.0,-243.0,-55.0,7.0,9.0,-11.0,19.0,-991.0,-199.0
9.0,-245.0,-50.0,8.0,8.0,-8.0,22.0,-1004.0,-199.0
8.0,-242.0,-54.0,10.0,7.0,-5.0,19.0,-1008.0,-202.0
12.0,-247.0,-55.0,11.0,7.0,-4.0,19.0,-1004.0,-201.0
10.0,-245.0,-57.0,14.0,7.0,-4.0,19.0,-1000.0,-206.0
10.0,-245.0,-50.0,19.0,7.0,-4.0,16.0,-1003.0,-203.0
11.0,-246.0,-52.0,22.0,7.0,-5.0,17.0,-1015.0,-205.0
5.0,-251.0,-59.0,26.0,8.0,-4.0,19.0,-1006.0,-205.0
9.0,-249.0,-58.0,31.0,8.0,-4.0,13.0,-1002.0,-202.0
10.0,-247.0,-52.0,34.0,9.0,-3.0,9.0,-1004.0,-206.0
9.0,-240.0,-51.0,36.0,8.0,-4.0,19.0,-1001.0,-203.0
12.0,-243.0,-55.0,37.0,9.0,-7.0,18.0,-993.0,-203.0
10.0,-240.0,-54.0,34.0,9.0,-8.0,16.0,-992.0,-205.0
6.0,-239.0,-54.0,33.0,7.0,-9.0,13.0,-994.0,-197.0
9.0,-241.0,-51.0,29.0,7.0,-11.0,14.0,-983.0,-196.0
9.0,-239.0,-56.0,27.0,6.0,-10.0,17.0,-987.0,-197.0
9.0,-239.0,-48.0,24.0,4.0,-11.0,17.0,-992.0,-197.0
10.0,-238.0,-54.0,22.0,4.0,-9.0,16.0,-988.0,-191.0
13.0,-242.0,-54.0,21.0,4.0,-8.0,18.0,-988.0,-195.0
7.0,-240.0,-54.0,17.0,4.0,-9.0,15.0,-989.0,-198.0
10.0,-240.0,-53.0,16.0,4.0,-8.0,12.0,-993.0,-196.0
9.0,-242.0,-56.0,13.0,5.0,-6.0,10.0,-997.0,-200.0
7.0,-240.0,-54.0,12.0,5.0,-7.0,16.0,-991.0,-199.0
9.0,-244.0,-55.0,9.0,6.0,-4.0,16.0,-991.0,-197.0
8.0,-238.0,-54.0,8.0,4.0,-5.0,17.0,-997.0,-204.0
7.0,-242.0,-51.0,6.0,5.0,-5.0,17.0,-993.0,-200.0
6.0,-237.0,-56.0,5.0,5.0,-3.0,12.0,-998.0,-205.0
10.0,-242.0,-52.0,3.0,4.0,-4.0,17.0,-991.0,-205.0
11.0,-240.0,-59.0,0.0,5.0,-4.0,21.0,-995.0,-204.0
6.0,-240.0,-58.0,0.0,5.0,-5.0,18.0,-994.0,-206.0
9.0,-243.0,-54.0,-1.0,6.0,-4.0,18.0,-991.0,-205.0
10.0,-243.0,-56.0,-2.0,5.0,-4.0,20.0,-991.0,-206.0
12.0,-242.0,-55.0,-3.0,5.0,-5.0,21.0,-991.0,-208.0
10.0,-237.0,-58.0,-4.0,5.0,-6.0,18.0,-995.0,-211.0
8.0,-241.0,-56.0,-5.0,6.0,-5.0,17.0,-992.0,-213.0
13.0,-246.0,-57.0,-5.0,6.0,-3.0,16.0,-995.0,-212.0
11.0,-243.0,-60.0,-5.0,7.0,-2.0,19.0,-994.0,-212.0
11.0,-240.0,-62.0,-5.0,6.0,-1.0,15.0,-995.0,-213.0
7.0,-241.0,-59.0,-3.0,5.0,-1.0,18.0,-995.0,-214.0
10.0,-243.0,-58.0,-2.0,3.0,-2.0,14.0,-992.0,-214.0
9.0,-246.0,-52.0,-2.0,5.0,-1.0,18.0,-991.0,-208.0
7.0,-242.0,-59.0,-1.0,3.0,-2.0,13.0,-995.0,-216.0
9.0,-242.0,-58.0,-1.0,4.0,-3.0,13.0,-996.0,-220.0
10.0,-244.0,-54.0,-1.0,3.0,-3.0,16.0,-990.0,-217.0
11.0,-243.0,-59.0,-1.0,2.0,-2.0,13.0,-993.0,-216.0
8.0,-241.0,-59.0,-2.0,3.0,-4.0,11.0,-992.0,-214.0
7.0,-239.0,-57.0,-3.0,2.0,-5.0,14.0,-987.0,-213.0
6.0,-241.0,-52.0,-3.0,3.0,-7.0,11.0,-988.0,-213.0
9.0,-241.0,-62.0,-5.0,3.0,-8.0,14.0,-997.0,-213.0
5.0,-241.0,-53.0,-5.0,3.0,-7.0,13.0,-992.0,-216.0
7.0,-238.0,-60.0,-5.0,4.0,-6.0,15.0,-992.0,-217.0
10.0,-242.0,-54.0,-4.0,3.0,-7.0,19.0,-992.0,-208.0
8.0,-241.0,-58.0,-2.0,2.0,-8.0,18.0,-992.0,-212.0
8.0,-239.0,-61.0,0.0,3.0,-8.0,11.0,-993.0,-214.0
9.0,-240.0,-60.0,1.0,4.0,-7.0,17.0,-996.0,-213.0
10.0,-243.0,-57.0,2.0,5.0,-7.0,16.0,-1000.0,-217.0
8.0,-241.0,-56.0,2.0,5.0,-7.0,16.0,-995.0,-216.0
8.0,-244.0,-56.0,3.0,6.0,-6.0,10.0,-998.0,-217.0
8.0,-242.0,-64.0,4.0,5.0,-7.0,14.0,-1000.0,-221.0
11.0,-242.0,-58.0,4.0,5.0,-7.0,13.0,-999.0,-221.0
8.0,-239.0,-56.0,4.0,6.0,-8.0,15.0,-998.0,-217.0
10.0,-247.0,-62.0,2.0,6.0,-8.0,9.0,-997.0,-215.0
11.0,-243.0,-60.0,0.0,7.0,-9.0,13.0,-996.0,-215.0
9.0,-242.0,-55.0,-1.0,6.0,-9.0,15.0,-992.0,-219.0
7.0,-243.0,-62.0,-3.0,6.0,-10.0,14.0,-994.0,-214.0
9.0,-243.0,-60.0,-6.0,6.0,-9.0,14.0,-990.0,-210.0
9.0,-240.0,-55.0,-6.0,7.0,-9.0,13.0,-985.0,-213.0
9.0,-241.0,-57.0,-8.0,7.0,-10.0,15.0,-994.0,-217.0
7.0,-241.0,-61.0,-9.0,7.0,-10.0,13.0,-990.0,-219.0
9.0,-246.0,-57.0,-9.0,6.0,-13.0,10.0,-992.0,-222.0
8.0,-241.0,-61.0,-9.0,7.0,-11.0,14.0,-994.0,-214.0
8.0,-244.0,-59.0,-8.0,6.0,-14.0,12.0,-991.0,-217.0
6.0,-241.0,-62.0,-7.0,8.0,-12.0,12.0,-989.0,-217.0
12.0,-241.0,-57.0,-5.0,7.0,-10.0,12.0,-986.0,-223.0
9.0,-242.0,-60.0,-5.0,7.0,-10.0,14.0,-990.0,-217.0
7.0,-240.0,-58.0,-5.0,8.0,-10.0,10.0,-989.0,-221.0
8.0,-241.0,-61.0,-5.0,8.0,-10.0,13.0,-988.0,-221.0
9.0,-242.0,-59.0,-5.0,8.0,-10.0,17.0,-991.0,-225.0
6.0,-241.0,-62.0,-8.0,9.0,-10.0,21.0,-991.0,-224.0
5.0,-239.0,-58.0,-8.0,9.0,-11.0,18.0,-987.0,-227.0
11.0,-241.0,-55.0,-9.0,9.0,-14.0,19.0,-984.0,-217.0
6.0,-241.0,-61.0,-11.0,9.0,-14.0,17.0,-991.0,-220.0
11.0,-242.0,-58.0,-13.0,8.0,-13.0,14.0,-990.0,-219.0
5.0,-244.0,-61.0,-14.0,8.0,-14.0,16.0,-992.0,-224.0
13.0,-242.0,-61.0,-12.0,7.0,-13.0,15.0,-991.0,-220.0
10.0,-242.0,-61.0,-14.0,6.0,-12.0,17.0,-991.0,-217.0
9.0,-239.0,-59.0,-14.0,6.0,-15.0,15.0,-991.0,-219.0
7.0,-239.0,-57.0,-13.0,6.0,-16.0,13.0,-989.0,-224.0
8.0,-238.0,-58.0,-10.0,6.0,-18.0,11.0,-988.0,-225.0
7.0,-240.0,-58.0,-10.0,4.0,-17.0,15.0,-991.0,-226.0
5.0,-241.0,-56.0,-12.0,5.0,-17.0,10.0,-991.0,-225.0
7.0,-242.0,-62.0,-12.0,5.0,-15.0,13.0,-990.0,-226.0
6.0,-239.0,-60.0,-12.0,5.0,-16.0,14.0,-991.0,-229.0
8.0,-240.0,-63.0,-14.0,5.0,-16.0,14.0,-994.0,-224.0
8.0,-242.0,-60.0,-13.0,4.0,-16.0,16.0,-993.0,-226.0
8.0,-241.0,-58.0,-13.0,5.0,-15.0,17.0,-990.0,-224.0
8.0,-241.0,-59.0,-15.0,4.0,-15.0,16.0,-991.0,-227.0
8.0,-238.0,-59.0,-15.0,3.0,-16.0,17.0,-991.0,-232.0
9.0,-239.0,-61.0,-16.0,3.0,-14.0,16.0,-988.0,-232.0
10.0,-240.0,-60.0,-18.0,3.0,-14.0,17.0,-984.0,-227.0
10.0,-242.0,-61.0,-17.0,4.0,-16.0,16.0,-982.0,-224.0
9.0,-238.0,-62.0,-18.0,5.0,-16.0,15.0,-981.0,-227.0
9.0,-243.0,-63.0,-18.0,4.0,-17.0,18.0,-986.0,-234.0
9.0,-241.0,-63.0,-19.0,5.0,-19.0,18.0,-988.0,-228.0
9.0,-240.0,-60.0,-18.0,5.0,-18.0,18.0,-987.0,-230.0
6.0,-236.0,-66.0,-17.0,5.0,-16.0,20.0,-983.0,-229.0
9.0,-239.0,-61.0,-17.0,3.0,-17.0,18.0,-991.0,-231.0
9.0,-242.0,-62.0,-16.0,3.0,-15.0,20.0,-992.0,-236.0
7.0,-239.0,-64.0,-15.0,2.0,-15.0,19.0,-990.0,-239.0
10.0,-240.0,-65.0,-14.0,3.0,-15.0,18.0,-990.0,-237.0
9.0,-240.0,-63.0,-16.0,4.0,-15.0,16.0,-994.0,-244.0
8.0,-242.0,-62.0,-14.0,6.0,-15.0,14.0,-991.0,-239.0
11.0,-241.0,-67.0,-12.0,7.0,-14.0,14.0,-989.0,-243.0
9.0,-242.0,-63.0,-11.0,8.0,-14.0,15.0,-990.0,-242.0
10.0,-242.0,-65.0,-10.0,10.0,-15.0,17.0,-992.0,-246.0
8.0,-241.0,-63.0,-7.0,11.0,-13.0,17.0,-987.0,-240.0
13.0,-235.0,-58.0,-3.0,11.0,-15.0,19.0,-991.0,-243.0
7.0,-239.0,-66.0,-1.0,12.0,-14.0,19.0,-990.0,-246.0
13.0,-242.0,-65.0,2.0,13.0,-16.0,13.0,-988.0,-242.0
10.0,-239.0,-63.0,5.0,13.0,-16.0,15.0,-987.0,-244.0
10.0,-244.0,-66.0,7.0,15.0,-15.0,17.0,-987.0,-241.0
8.0,-240.0,-65.0,5.0,17.0,-15.0,16.0,-986.0,-234.0
11.0,-240.0,-62.0,5.0,17.0,-15.0,20.0,-987.0,-242.0
13.0,-241.0,-65.0,3.0,18.0,-15.0,24.0,-984.0,-240.0
9.0,-237.0,-67.0,6.0,19.0,-15.0,23.0,-982.0,-243.0
13.0,-240.0,-64.0,9.0,18.0,-13.0,27.0,-987.0,-244.0
11.0,-243.0,-63.0,12.0,19.0,-13.0,19.0,-995.0,-244.0
8.0,-244.0,-63.0,17.0,17.0,-13.0,23.0,-990.0,-247.0
9.0,-241.0,-66.0,21.0,16.0,-12.0,20.0,-994.0,-240.0
8.0,-242.0,-63.0,25.0,17.0,-13.0,18.0,-995.0,-244.0
7.0,-242.0,-63.0,27.0,14.0,-12.0,20.0,-992.0,-248.0
12.0,-242.0,-64.0,29.0,15.0,-13.0,15.0,-991.0,-249.0
9.0,-241.0,-63.0,30.0,14.0,-15.0,17.0,-991.0,-245.0
8.0,-238.0,-63.0,27.0,13.0,-15.0,19.0,-988.0,-242.0
9.0,-240.0,-65.0,27.0,14.0,-17.0,20.0,-985.0,-245.0
10.0,-241.0,-62.0,24.0,13.0,-18.0,14.0,-978.0,-240.0
14.0,-239.0,-63.0,22.0,13.0,-16.0,12.0,-981.0,-233.0
9.0,-236.0,-61.0,21.0,14.0,-17.0,15.0,-980.0,-239.0
3.0,-236.0,-64.0,19.0,14.0,-17.0,15.0,-982.0,-237.0
7.0,-239.0,-62.0,17.0,15.0,-17.0,13.0,-981.0,-237.0
10.0,-238.0,-63.0,17.0,15.0,-14.0,10.0,-983.0,-235.0
10.0,-241.0,-61.0,15.0,16.0,-12.0,14.0,-986.0,-232.0
7.0,-237.0,-63.0,15.0,17.0,-13.0,14.0,-987.0,-233.0
7.0,-240.0,-62.0,15.0,19.0,-14.0,15.0,-986.0,-235.0
7.0,-242.0,-64.0,15.0,21.0,-15.0,18.0,-991.0,-240.0
7.0,-242.0,-64.0,17.0,21.0,-14.0,9.0,-991.0,-241.0
6.0,-241.0,-67.0,17.0,22.0,-14.0,13.0,-991.0,-247.0
7.0,-247.0,-60.0,17.0,25.0,-15.0,9.0,-991.0,-243.0
3.0,-240.0,-69.0,20.0,25.0,-14.0,16.0,-991.0,-246.0
4.0,-242.0,-62.0,19.0,25.0,-15.0,13.0,-994.0,-244.0
7.0,-240.0,-63.0,19.0,25.0,-13.0,13.0,-982.0,-243.0
6.0,-238.0,-65.0,20.0,24.0,-16.0,9.0,-983.0,-243.0
7.0,-240.0,-65.0,19.0,24.0,-17.0,13.0,-984.0,-243.0
9.0,-238.0,-65.0,18.0,24.0,-16.0,8.0,-983.0,-242.0
7.0,-237.0,-63.0,17.0,22.0,-19.0,16.0,-988.0,-247.0
8.0,-241.0,-60.0,15.0,22.0,-19.0,11.0,-982.0,-245.0
8.0,-237.0,-66.0,14.0,24.0,-18.0,16.0,-980.0,-243.0
8.0,-241.0,-61.0,11.0,24.0,-17.0,13.0,-985.0,-237.0
11.0,-239.0,-63.0,9.0,24.0,-16.0,18.0,-983.0,-243.0
16.0,-243.0,-63.0,8.0,25.0,-17.0,15.0,-978.0,-244.0
8.0,-238.0,-64.0,6.0,27.0,-18.0,17.0,-981.0,-246.0
9.0,-235.0,-64.0,5.0,27.0,-18.0,21.0,-978.0,-239.0
7.0,-241.0,-65.0,2.0,27.0,-19.0,19.0,-978.0,-240.0
9.0,-240.0,-65.0,0.0,28.0,-19.0,23.0,-982.0,-242.0
10.0,-236.0,-63.0,-2.0,28.0,-18.0,20.0,-979.0,-245.0
13.0,-239.0,-61.0,-1.0,27.0,-19.0,22.0,-986.0,-245.0
8.0,-240.0,-67.0,-3.0,25.0,-21.0,25.0,-984.0,-245.0
11.0,-236.0,-61.0,-3.0,24.0,-20.0,20.0,-979.0,-244.0
7.0,-238.0,-62.0,-4.0,22.0,-20.0,23.0,-984.0,-246.0
10.0,-237.0,-65.0,-5.0,21.0,-21.0,23.0,-984.0,-244.0
6.0,-240.0,-65.0,-7.0,21.0,-20.0,24.0,-984.0,-246.0
10.0,-241.0,-65.0,-8.0,19.0,-21.0,20.0,-990.0,-245.0
10.0,-239.0,-65.0,-9.0,20.0,-21.0,22.0,-981.0,-244.0
8.0,-238.0,-67.0,-10.0,19.0,-20.0,19.0,-982.0,-245.0
11.0,-239.0,-67.0,-11.0,19.0,-20.0,19.0,-988.0,-249.0
11.0,-240.0,-66.0,-13.0,20.0,-21.0,21.0,-980.0,-247.0
7.0,-238.0,-67.0,-15.0,19.0,-17.0,17.0,-985.0,-244.0
9.0,-239.0,-66.0,-14.0,19.0,-17.0,18.0,-980.0,-251.0
9.0,-236.0,-62.0,-14.0,19.0,-17.0,19.0,-982.0,-251.0
8.0,-239.0,-64.0,-15.0,19.0,-16.0,19.0,-982.0,-247.0
12.0,-236.0,-64.0,-15.0,20.0,-16.0,20.0,-983.0,-255.0
6.0,-237.0,-67.0,-17.0,22.0,-18.0,24.0,-975.0,-249.0
1.0,-236.0,-73.0,-18.0,21.0,-17.0,24.0,-976.0,-247.0
11.0,-240.0,-66.0,-19.0,20.0,-16.0,23.0,-979.0,-256.0
13.0,-238.0,-65.0,-22.0,19.0,-16.0,23.0,-976.0,-253.0
8.0,-236.0,-66.0,-24.0,17.0,-17.0,23.0,-975.0,-251.0
8.0,-237.0,-64.0,-25.0,15.0,-16.0,17.0,-978.0,-253.0
8.0,-237.0,-64.0,-29.0,13.0,-17.0,18.0,-978.0,-247.0
11.0,-238.0,-66.0,-30.0,11.0,-18.0,13.0,-983.0,-246.0
6.0,-237.0,-69.0,-33.0,10.0,-19.0,24.0,-976.0,-250.0
9.0,-235.0,-64.0,-32.0,10.0,-18.0,19.0,-981.0,-245.0
8.0,-242.0,-62.0,-31.0,9.0,-19.0,16.0,-985.0,-253.0
4.0,-242.0,-66.0,-29.0,7.0,-21.0,20.0,-981.0,-260.0
10.0,-240.0,-68.0,-29.0,6.0,-21.0,14.0,-986.0,-252.0
8.0,-240.0,-65.0,-28.0,7.0,-21.0,18.0,-984.0,-253.0
10.0,-239.0,-66.0,-28.0,7.0,-21.0,18.0,-981.0,-255.0
10.0,-239.0,-68.0,-29.0,8.0,-19.0,18.0,-980.0,-259.0
10.0,-240.0,-64.0,-29.0,8.0,-22.0,20.0,-983.0,-262.0
10.0,-238.0,-71.0,-29.0,9.0,-22.0,21.0,-985.0,-261.0
10.0,-240.0,-67.0,-30.0,10.0,-22.0,25.0,-977.0,-257.0
9.0,-236.0,-68.0,-31.0,11.0,-22.0,23.0,-984.0,-260.0
15.0,-242.0,-65.0,-31.0,11.0,-22.0,22.0,-977.0,-256.0
13.0,-237.0,-70.0,-31.0,13.0,-20.0,25.0,-976.0,-258.0
12.0,-241.0,-66.0,-32.0,12.0,-19.0,22.0,-972.0,-263.0
14.0,-240.0,-68.0,-34.0,13.0,-20.0,21.0,-976.0,-265.0
11.0,-236.0,-68.0,-36.0,15.0,-20.0,18.0,-977.0,-265.0
9.0,-236.0,-70.0,-35.0,16.0,-19.0,22.0,-977.0,-265.0
12.0,-238.0,-66.0,-36.0,16.0,-20.0,23.0,-974.0,-266.0
12.0,-240.0,-69.0,-38.0,16.0,-19.0,24.0,-975.0,-267.0
12.0,-238.0,-67.0,-41.0,17.0,-18.0,21.0,-976.0,-265.0
10.0,-241.0,-72.0,-44.0,16.0,-17.0,24.0,-980.0,-267.0
8.0,-238.0,-72.0,-46.0,15.0,-19.0,20.0,-978.0,-266.0
9.0,-236.0,-70.0,-49.0,14.0,-19.0,20.0,-977.0,-272.0
8.0,-236.0,-71.0,-51.0,12.0,-19.0,23.0,-984.0,-273.0
13.0,-241.0,-69.0,-53.0,11.0,-18.0,21.0,-979.0,-269.0
11.0,-237.0,-73.0,-56.0,9.0,-17.0,21.0,-978.0,-266.0
9.0,-237.0,-69.0,-60.0,9.0,-17.0,22.0,-981.0,-270.0
12.0,-238.0,-67.0,-64.0,7.0,-18.0,19.0,-972.0,-272.0
9.0,-237.0,-68.0,-68.0,7.0,-18.0,21.0,-969.0,-271.0
11.0,-239.0,-70.0,-71.0,8.0,-16.0,20.0,-973.0,-273.0
10.0,-234.0,-69.0,-71.0,9.0,-18.0,17.0,-975.0,-267.0
10.0,-237.0,-72.0,-74.0,10.0,-17.0,23.0,-969.0,-272.0
14.0,-235.0,-71.0,-75.0,10.0,-19.0,28.0,-967.0,-264.0
8.0,-236.0,-67.0,-76.0,8.0,-20.0,22.0,-961.0,-268.0
11.0,-237.0,-72.0,-77.0,10.0,-20.0,21.0,-972.0,-271.0
10.0,-235.0,-71.0,-79.0,10.0,-22.0,22.0,-975.0,-271.0
9.0,-236.0,-73.0,-80.0,10.0,-22.0,21.0,-963.0,-270.0
9.0,-233.0,-67.0,-81.0,8.0,-22.0,17.0,-972.0,-278.0
10.0,-235.0,-73.0,-84.0,9.0,-21.0,19.0,-968.0,-277.0
9.0,-237.0,-72.0,-84.0,10.0,-23.0,24.0,-977.0,-279.0
9.0,-237.0,-67.0,-87.0,9.0,-20.0,22.0,-973.0,-274.0
13.0,-239.0,-72.0,-89.0,9.0,-22.0,15.0,-974.0,-287.0
9.0,-237.0,-74.0,-89.0,10.0,-24.0,15.0,-978.0,-277.0
6.0,-237.0,-69.0,-90.0,12.0,-27.0,15.0,-978.0,-283.0
11.0,-240.0,-72.0,-92.0,12.0,-29.0,19.0,-975.0,-286.0
15.0,-240.0,-71.0,-94.0,12.0,-30.0,25.0,-977.0,-286.0
15.0,-240.0,-68.0,-96.0,13.0,-31.0,24.0,-972.0,-282.0
11.0,-236.0,-75.0,-96.0,15.0,-32.0,27.0,-973.0,-285.0
15.0,-237.0,-77.0,-100.0,18.0,-34.0,28.0,-968.0,-287.0
14.0,-238.0,-73.0,-104.0,19.0,-33.0,31.0,-969.0,-287.0
11.0,-234.0,-78.0,-109.0,19.0,-32.0,36.0,-966.0,-291.0
12.0,-234.0,-75.0,-110.0,19.0,-31.0,33.0,-962.0,-287.0
9.0,-234.0,-74.0,-114.0,17.0,-30.0,30.0,-963.0,-293.0
14.0,-232.0,-78.0,-118.0,13.0,-28.0,28.0,-958.0,-288.0
14.0,-232.0,-76.0,-121.0,10.0,-27.0,30.0,-960.0,-295.0
11.0,-230.0,-75.0,-124.0,5.0,-27.0,28.0,-949.0,-300.0
8.0,-230.0,-78.0,-127.0,1.0,-22.0,19.0,-955.0,-288.0
11.0,-233.0,-78.0,-126.0,0.0,-22.0,24.0,-953.0,-295.0
13.0,-235.0,-79.0,-126.0,-2.0,-19.0,23.0,-958.0,-292.0
9.0,-233.0,-77.0,-127.0,0.0,-18.0,20.0,-962.0,-292.0
11.0,-236.0,-77.0,-129.0,-1.0,-16.0,21.0,-960.0,-290.0
11.0,-231.0,-78.0,-129.0,-1.0,-17.0,26.0,-967.0,-301.0
11.0,-236.0,-76.0,-130.0,-2.0,-15.0,23.0,-964.0,-310.0
10.0,-234.0,-77.0,-133.0,-3.0,-16.0,20.0,-963.0,-296.0
12.0,-234.0,-74.0,-137.0,-4.0,-18.0,22.0,-963.0,-302.0
9.0,-235.0,-83.0,-144.0,-6.0,-18.0,17.0,-964.0,-307.0
11.0,-235.0,-77.0,-151.0,-7.0,-16.0,17.0,-970.0,-298.0
12.0,-235.0,-78.0,-157.0,-6.0,-19.0,16.0,-963.0,-299.0
12.0,-236.0,-79.0,-164.0,-5.0,-21.0,17.0,-965.0,-307.0
9.0,-233.0,-79.0,-172.0,-5.0,-23.0,20.0,-967.0,-305.0
10.0,-234.0,-77.0,-181.0,-3.0,-25.0,19.0,-962.0,-303.0
8.0,-231.0,-81.0,-188.0,-3.0,-26.0,16.0,-965.0,-306.0
7.0,-231.0,-78.0,-195.0,0.0,-29.0,22.0,-957.0,-301.0
11.0,-232.0,-79.0,-200.0,-2.0,-33.0,25.0,-960.0,-315.0
8.0,-231.0,-74.0,-204.0,-2.0,-35.0,24.0,-958.0,-307.0
10.0,-231.0,-77.0,-208.0,-2.0,-37.0,22.0,-960.0,-309.0
10.0,-235.0,-80.0,-215.0,-3.0,-39.0,24.0,-957.0,-305.0
10.0,-235.0,-79.0,-222.0,-2.0,-39.0,21.0,-955.0,-311.0
20.0,-232.0,-86.0,-224.0,-4.0,-39.0,22.0,-957.0,-315.0
9.0,-232.0,-83.0,-226.0,-5.0,-42.0,25.0,-952.0,-316.0
12.0,-233.0,-82.0,-228.0,-6.0,-43.0,22.0,-951.0,-321.0
13.0,-233.0,-84.0,-232.0,-8.0,-44.0,22.0,-959.0,-319.0
5.0,-229.0,-82.0,-235.0,-9.0,-44.0,21.0,-955.0,-325.0
14.0,-233.0,-83.0,-242.0,-9.0,-47.0,23.0,-958.0,-326.0
9.0,-234.0,-83.0,-247.0,-9.0,-47.0,21.0,-956.0,-332.0
12.0,-232.0,-82.0,-255.0,-8.0,-51.0,21.0,-956.0,-325.0
10.0,-232.0,-83.0,-258.0,-8.0,-53.0,22.0,-954.0,-319.0
10.0,-233.0,-83.0,-261.0,-6.0,-58.0,24.0,-953.0,-330.0
9.0,-232.0,-78.0,-265.0,-6.0,-58.0,20.0,-950.0,-335.0
9.0,-230.0,-83.0,-268.0,-6.0,-60.0,22.0,-953.0,-326.0
11.0,-233.0,-83.0,-271.0,-8.0,-59.0,24.0,-950.0,-329.0
12.0,-233.0,-83.0,-274.0,-9.0,-60.0,21.0,-950.0,-341.0
8.0,-229.0,-90.0,-275.0,-9.0,-62.0,27.0,-953.0,-338.0
12.0,-232.0,-85.0,-274.0,-11.0,-61.0,26.0,-954.0,-340.0
9.0,-232.0,-93.0,-274.0,-11.0,-62.0,21.0,-957.0,-342.0
11.0,-233.0,-86.0,-273.0,-11.0,-61.0,21.0,-951.0,-345.0
11.0,-227.0,-90.0,-274.0,-11.0,-60.0,22.0,-954.0,-345.0
10.0,-234.0,-91.0,-275.0,-11.0,-61.0,21.0,-953.0,-349.0
11.0,-232.0,-92.0,-276.0,-13.0,-61.0,25.0,-953.0,-349.0
10.0,-235.0,-93.0,-277.0,-13.0,-61.0,21.0,-950.0,-358.0
5.0,-227.0,-96.0,-279.0,-15.0,-65.0,23.0,-949.0,-358.0
10.0,-230.0,-90.0,-279.0,-17.0,-67.0,28.0,-947.0,-361.0
10.0,-230.0,-91.0,-282.0,-18.0,-66.0,28.0,-948.0,-363.0
11.0,-227.0,-93.0,-286.0,-21.0,-68.0,25.0,-946.0,-360.0
9.0,-226.0,-96.0,-287.0,-24.0,-70.0,27.0,-941.0,-366.0
9.0,-226.0,-95.0,-291.0,-25.0,-70.0,29.0,-935.0,-363.0
10.0,-225.0,-94.0,-293.0,-25.0,-73.0,25.0,-934.0,-361.0
10.0,-227.0,-97.0,-296.0,-24.0,-76.0,25.0,-934.0,-362.0
13.0,-227.0,-96.0,-300.0,-26.0,-75.0,26.0,-932.0,-364.0
11.0,-226.0,-93.0,-305.0,-27.0,-76.0,26.0,-930.0,-357.0
9.0,-225.0,-95.0,-310.0,-27.0,-77.0,18.0,-931.0,-365.0
14.0,-236.0,-97.0,-313.0,-28.0,-77.0,25.0,-924.0,-369.0
12.0,-226.0,-93.0,-320.0,-31.0,-78.0,30.0,-930.0,-370.0
12.0,-222.0,-97.0,-325.0,-31.0,-79.0,28.0,-928.0,-374.0
12.0,-223.0,-93.0,-332.0,-32.0,-78.0,33.0,-923.0,-372.0
10.0,-220.0,-98.0,-339.0,-30.0,-76.0,28.0,-929.0,-376.0
12.0,-225.0,-100.0,-347.0,-31.0,-75.0,27.0,-928.0,-381.0
14.0,-224.0,-101.0,-358.0,-31.0,-77.0,28.0,-924.0,-378.0
10.0,-222.0,-97.0,-368.0,-29.0,-76.0,27.0,-925.0,-387.0
11.0,-223.0,-95.0,-377.0,-27.0,-76.0,32.0,-921.0,-384.0
14.0,-222.0,-102.0,-385.0,-28.0,-77.0,34.0,-917.0,-388.0
11.0,-226.0,-97.0,-393.0,-27.0,-77.0,33.0,-926.0,-387.0
11.0,-224.0,-94.0,-401.0,-27.0,-77.0,38.0,-916.0,-392.0
14.0,-219.0,-102.0,-408.0,-27.0,-79.0,39.0,-917.0,-400.0
13.0,-218.0,-102.0,-416.0,-27.0,-79.0,38.0,-916.0,-402.0
14.0,-222.0,-106.0,-422.0,-29.0,-80.0,38.0,-916.0,-402.0
11.0,-219.0,-102.0,-428.0,-31.0,-82.0,35.0,-918.0,-409.0
10.0,-218.0,-105.0,-436.0,-30.0,-83.0,37.0,-910.0,-414.0
15.0,-220.0,-104.0,-443.0,-30.0,-82.0,37.0,-918.0,-416.0
12.0,-222.0,-112.0,-449.0,-31.0,-84.0,39.0,-913.0,-423.0
16.0,-219.0,-105.0,-455.0,-32.0,-87.0,38.0,-916.0,-425.0
11.0,-222.0,-107.0,-463.0,-31.0,-90.0,37.0,-915.0,-427.0
15.0,-223.0,-111.0,-473.0,-34.0,-89.0,35.0,-916.0,-430.0
11.0,-224.0,-112.0,-482.0,-33.0,-88.0,32.0,-913.0,-441.0
9.0,-219.0,-109.0,-493.0,-33.0,-87.0,35.0,-912.0,-442.0
14.0,-220.0,-117.0,-503.0,-34.0,-90.0,37.0,-910.0,-442.0
15.0,-218.0,-113.0,-516.0,-34.0,-92.0,43.0,-903.0,-451.0
14.0,-218.0,-111.0,-529.0,-34.0,-94.0,38.0,-898.0,-452.0
14.0,-213.0,-118.0,-542.0,-33.0,-94.0,38.0,-891.0,-453.0
16.0,-212.0,-118.0,-554.0,-34.0,-97.0,48.0,-879.0,-454.0
13.0,-212.0,-116.0,-566.0,-38.0,-97.0,38.0,-877.0,-461.0
14.0,-209.0,-118.0,-578.0,-40.0,-99.0,42.0,-873.0,-463.0
14.0,-208.0,-117.0,-594.0,-42.0,-112.0,27.0,-868.0,-472.0
18.0,-209.0,-114.0,-610.0,-43.0,-109.0,49.0,-863.0,-470.0
15.0,-210.0,-120.0,-617.0,-47.0,-106.0,43.0,-863.0,-470.0
15.0,-211.0,-121.0,-626.0,-51.0,-107.0,41.0,-866.0,-477.0
17.0,-210.0,-122.0,-635.0,-55.0,-108.0,38.0,-862.0,-475.0
13.0,-209.0,-124.0,-649.0,-59.0,-111.0,36.0,-863.0,-478.0
13.0,-206.0,-121.0,-661.0,-61.0,-117.0,43.0,-859.0,-486.0
18.0,-209.0,-124.0,-676.0,-65.0,-120.0,38.0,-863.0,-487.0
12.0,-209.0,-126.0,-690.0,-69.0,-123.0,40.0,-863.0,-488.0
11.0,-204.0,-125.0,-713.0,-71.0,-112.0,45.0,-859.0,-486.0
11.0,-201.0,-127.0,-731.0,-76.0,-121.0,37.0,-844.0,-500.0
14.0,-206.0,-130.0,-742.0,-76.0,-129.0,47.0,-847.0,-496.0
17.0,-202.0,-132.0,-754.0,-80.0,-133.0,57.0,-842.0,-506.0
21.0,-205.0,-128.0,-767.0,-80.0,-135.0,42.0,-840.0,-512.0
15.0,-203.0,-128.0,-782.0,-84.0,-136.0,51.0,-841.0,-524.0
16.0,-201.0,-129.0,-801.0,-85.0,-136.0,48.0,-835.0,-516.0
19.0,-204.0,-130.0,-821.0,-87.0,-134.0,53.0,-829.0,-521.0
12.0,-194.0,-129.0,-849.0,-92.0,-155.0,44.0,-801.0,-525.0
19.0,-196.0,-132.0,-875.0,-88.0,-144.0,60.0,-815.0,-530.0
17.0,-194.0,-137.0,-885.0,-91.0,-134.0,52.0,-812.0,-536.0
12.0,-197.0,-135.0,-899.0,-96.0,-133.0,53.0,-811.0,-545.0
15.0,-195.0,-135.0,-917.0,-100.0,-134.0,49.0,-816.0,-541.0
15.0,-200.0,-142.0,-937.0,-104.0,-136.0,50.0,-814.0,-553.0
11.0,-194.0,-142.0,-960.0,-109.0,-138.0,56.0,-812.0,-565.0
17.0,-195.0,-141.0,-983.0,-116.0,-142.0,52.0,-807.0,-570.0
17.0,-195.0,-139.0,-1007.0,-123.0,-145.0,51.0,-803.0,-572.0
17.0,-195.0,-144.0,-1030.0,-128.0,-147.0,44.0,-798.0,-574.0
22.0,-193.0,-140.0,-1063.0,-133.0,-129.0,57.0,-796.0,-576.0
14.0,-191.0,-146.0,-1090.0,-139.0,-138.0,38.0,-783.0,-584.0
12.0,-194.0,-151.0,-1112.0,-140.0,-148.0,38.0,-805.0,-597.0
18.0,-190.0,-150.0,-1148.0,-140.0,-160.0,53.0,-753.0,-588.0
17.0,-186.0,-149.0,-1163.0,-144.0,-150.0,45.0,-761.0,-596.0
15.0,-184.0,-154.0,-1181.0,-150.0,-144.0,40.0,-764.0,-618.0
10.0,-185.0,-155.0,-1202.0,-155.0,-140.0,37.0,-769.0,-614.0
9.0,-187.0,-148.0,-1228.0,-159.0,-138.0,45.0,-759.0,-620.0
12.0,-183.0,-158.0,-1263.0,-168.0,-134.0,34.0,-760.0,-622.0
13.0,-186.0,-160.0,-1299.0,-174.0,-133.0,38.0,-757.0,-626.0
13.0,-180.0,-157.0,-1348.0,-182.0,-105.0,45.0,-743.0,-620.0
8.0,-177.0,-162.0,-1383.0,-189.0,-111.0,28.0,-732.0,-641.0
6.0,-178.0,-161.0,-1418.0,-197.0,-123.0,26.0,-826.0,-659.0
14.0,-170.0,-160.0,-1469.0,-204.0,-133.0,44.0,-699.0,-652.0
11.0,-172.0,-164.0,-1497.0,-210.0,-116.0,33.0,-703.0,-666.0
11.0,-168.0,-165.0,-1529.0,-223.0,-106.0,34.0,-699.0,-672.0
15.0,-167.0,-168.0,-1568.0,-233.0,-98.0,42.0,-704.0,-683.0
14.0,-165.0,-168.0,-1624.0,-243.0,-69.0,32.0,-682.0,-681.0
10.0,-165.0,-172.0,-1674.0,-248.0,-84.0,28.0,-665.0,-692.0
2.0,-168.0,-174.0,-1729.0,-251.0,-105.0,8.0,-663.0,-693.0
17.0,-156.0,-174.0,-1788.0,-259.0,-116.0,40.0,-642.0,-698.0
12.0,-157.0,-175.0,-1831.0,-269.0,-104.0,44.0,-642.0,-706.0
22.0,-157.0,-176.0,-1876.0,-276.0,-81.0,76.0,-648.0,-714.0
4.0,-146.0,-178.0,-1932.0,-283.0,-59.0,28.0,-622.0,-708.0
9.0,-146.0,-178.0,-1983.0,-293.0,-72.0,33.0,-619.0,-719.0
11.0,-146.0,-181.0,-2048.0,-309.0,-103.0,22.0,-601.0,-732.0
11.0,-155.0,-190.0,-2116.0,-316.0,-97.0,73.0,-614.0,-759.0
16.0,-143.0,-187.0,-2189.0,-323.0,-51.0,53.0,-594.0,-748.0
14.0,-137.0,-192.0,-2245.0,-322.0,-55.0,30.0,-583.0,-765.0
4.0,-140.0,-190.0,-2309.0,-321.0,-60.0,12.0,-579.0,-770.0
7.0,-134.0,-195.0,-2380.0,-325.0,-48.0,58.0,-626.0,-782.0
14.0,-131.0,-195.0,-2444.0,-328.0,4.0,51.0,-561.0,-782.0
9.0,-131.0,-198.0,-2488.0,-329.0,6.0,38.0,-536.0,-797.0
16.0,-121.0,-202.0,-2533.0,-334.0,-22.0,40.0,-501.0,-801.0
23.0,-123.0,-200.0,-2568.0,-344.0,12.0,86.0,-510.0,-808.0
18.0,-122.0,-206.0,-2590.0,-351.0,26.0,50.0,-504.0,-839.0
10.0,-121.0,-204.0,-2624.0,-352.0,18.0,14.0,-503.0,-845.0
21.0,-111.0,-208.0,-2691.0,-352.0,45.0,86.0,-463.0,-828.0
12.0,-113.0,-209.0,-2730.0,-348.0,55.0,57.0,-476.0,-847.0
23.0,-113.0,-214.0,-2774.0,-346.0,49.0,77.0,-488.0,-874.0
22.0,-98.0,-216.0,-2840.0,-351.0,51.0,77.0,-406.0,-858.0
17.0,-103.0,-221.0,-2877.0,-356.0,75.0,69.0,-435.0,-882.0
18.0,-101.0,-220.0,-2917.0,-366.0,109.0,90.0,-422.0,-873.0
5.0,-104.0,-219.0,-2955.0,-370.0,103.0,25.0,-399.0,-889.0
19.0,-100.0,-226.0,-2992.0,-368.0,88.0,63.0,-412.0,-910.0
16.0,-91.0,-224.0,-3015.0,-381.0,123.0,63.0,-388.0,-912.0
10.0,-72.0,-222.0,-3047.0,-393.0,116.0,-2.0,-336.0,-916.0
10.0,-89.0,-228.0,-3085.0,-392.0,110.0,58.0,-332.0,-919.0
12.0,-81.0,-221.0,-3113.0,-403.0,180.0,48.0,-334.0,-915.0
3.0,-77.0,-230.0,-3123.0,-410.0,167.0,-5.0,-336.0,-936.0
14.0,-74.0,-237.0,-3140.0,-408.0,161.0,40.0,-333.0,-930.0
-2.0,-95.0,-240.0,-3139.0,-403.0,151.0,54.0,-512.0,-977.0
15.0,-68.0,-230.0,-3163.0,-408.0,146.0,78.0,-261.0,-979.0
2.0,-73.0,-245.0,-3145.0,-441.0,199.0,5.0,-303.0,-979.0
-2.0,-68.0,-245.0,-3108.0,-469.0,193.0,-7.0,-341.0,-991.0
-1.0,-67.0,-250.0,-3080.0,-493.0,172.0,0.0,-277.0,-1027.0
7.0,-69.0,-252.0,-3049.0,-532.0,160.0,36.0,-285.0,-1037.0
0.0,-46.0,-253.0,-3050.0,-584.0,120.0,-16.0,-189.0,-1034.0
-6.0,-60.0,-260.0,-3035.0,-622.0,99.0,24.0,-244.0,-1058.0
-9.0,-58.0,-260.0,-3011.0,-680.0,112.0,-13.0,-238.0,-1075.0
-3.0,-52.0,-268.0,-2990.0,-726.0,89.0,-20.0,-201.0,-1089.0
16.0,-56.0,-268.0,-2958.0,-755.0,69.0,50.0,-215.0,-1120.0
-2.0,-61.0,-267.0,-2940.0,-789.0,76.0,-2.0,-349.0,-1101.0
6.0,-19.0,-261.0,-2940.0,-800.0,-4.0,29.0,-75.0,-1082.0
2.0,-24.0,-267.0,-2910.0,-813.0,8.0,2.0,-90.0,-1089.0
4.0,-35.0,-274.0,-2857.0,-816.0,1.0,42.0,-122.0,-1120.0
-7.0,-6.0,-260.0,-2830.0,-812.0,2.0,-47.0,-78.0,-1090.0
0.0,-14.0,-264.0,-2799.0,-783.0,-35.0,-9.0,-42.0,-1088.0
2.0,-15.0,-266.0,-2760.0,-753.0,-32.0,-12.0,-43.0,-1100.0
-2.0,-62.0,-286.0,-2688.0,-708.0,-49.0,-1.0,-230.0,-1148.0
6.0,-10.0,-279.0,-2614.0,-661.0,-107.0,45.0,-13.0,-1140.0
8.0,-14.0,-281.0,-2505.0,-629.0,-90.0,28.0,-33.0,-1145.0
7.0,-5.0,-286.0,-2379.0,-609.0,-100.0,31.0,-16.0,-1162.0
15.0,11.0,-281.0,-2276.0,-590.0,-130.0,57.0,45.0,-1146.0
16.0,19.0,-280.0,-2190.0,-574.0,-157.0,62.0,66.0,-1145.0
10.0,28.0,-276.0,-2099.0,-557.0,-196.0,43.0,108.0,-1140.0
13.0,27.0,-277.0,-2014.0,-533.0,-224.0,37.0,109.0,-1135.0
6.0,38.0,-278.0,-1949.0,-505.0,-251.0,17.0,133.0,-1142.0
7.0,38.0,-271.0,-1894.0,-480.0,-269.0,20.0,138.0,-1130.0
8.0,32.0,-271.0,-1839.0,-453.0,-286.0,23.0,135.0,-1126.0
5.0,35.0,-275.0,-1768.0,-426.0,-303.0,17.0,127.0,-1132.0
-8.0,50.0,-273.0,-1727.0,-403.0,-325.0,-24.0,143.0,-1124.0
3.0,46.0,-284.0,-1678.0,-377.0,-371.0,6.0,185.0,-1147.0
0.0,48.0,-281.0,-1599.0,-342.0,-393.0,-7.0,179.0,-1154.0
-3.0,50.0,-285.0,-1531.0,-311.0,-422.0,-11.0,184.0,-1165.0
-6.0,52.0,-284.0,-1488.0,-298.0,-461.0,-31.0,190.0,-1168.0
-10.0,54.0,-280.0,-1472.0,-293.0,-496.0,-47.0,198.0,-1148.0
-16.0,57.0,-271.0,-1463.0,-289.0,-534.0,-62.0,210.0,-1112.0
-21.0,59.0,-262.0,-1450.0,-283.0,-565.0,-100.0,222.0,-1081.0
-32.0,59.0,-256.0,-1430.0,-278.0,-586.0,-131.0,210.0,-1083.0
-36.0,53.0,-263.0,-1403.0,-282.0,-603.0,-130.0,205.0,-1084.0
-38.0,53.0,-267.0,-1375.0,-305.0,-623.0,-145.0,194.0,-1109.0
-36.0,46.0,-266.0,-1346.0,-337.0,-638.0,-146.0,176.0,-1125.0
-35.0,44.0,-273.0,-1320.0,-368.0,-656.0,-134.0,168.0,-1124.0
-35.0,48.0,-269.0,-1290.0,-390.0,-670.0,-147.0,174.0,-1122.0
-32.0,49.0,-273.0,-1262.0,-392.0,-675.0,-139.0,181.0,-1123.0
-35.0,50.0,-269.0,-1236.0,-384.0,-671.0,-141.0,186.0,-1118.0
-34.0,52.0,-267.0,-1215.0,-369.0,-664.0,-143.0,191.0,-1110.0
-35.0,56.0,-266.0,-1195.0,-355.0,-651.0,-131.0,205.0,-1097.0
-3.0,21.0,-263.0,-1173.0,-345.0,-643.0,-62.0,120.0,-1098.0
-34.0,64.0,-269.0,-1167.0,-347.0,-646.0,-142.0,249.0,-1098.0
-31.0,64.0,-262.0,-1153.0,-342.0,-633.0,-128.0,251.0,-1093.0
-41.0,65.0,-267.0,-1138.0,-345.0,-631.0,-130.0,254.0,-1094.0
-34.0,69.0,-266.0,-1125.0,-359.0,-638.0,-142.0,265.0,-1093.0
-35.0,73.0,-264.0,-1114.0,-379.0,-652.0,-140.0,278.0,-1094.0
-39.0,79.0,-264.0,-1107.0,-398.0,-672.0,-147.0,300.0,-1089.0
-38.0,82.0,-264.0,-1099.0,-415.0,-695.0,-147.0,317.0,-1084.0
-37.0,91.0,-259.0,-1100.0,-429.0,-716.0,-154.0,340.0,-1076.0
-41.0,95.0,-253.0,-1109.0,-435.0,-738.0,-157.0,368.0,-1059.0
-36.0,100.0,-256.0,-1121.0,-438.0,-755.0,-143.0,382.0,-1048.0
-33.0,98.0,-255.0,-1134.0,-436.0,-774.0,-143.0,387.0,-1038.0
-34.0,101.0,-250.0,-1145.0,-430.0,-786.0,-140.0,390.0,-1032.0
-33.0,105.0,-250.0,-1155.0,-419.0,-791.0,-136.0,400.0,-1019.0
-36.0,106.0,-245.0,-1166.0,-406.0,-791.0,-143.0,409.0,-1015.0
-37.0,105.0,-248.0,-1180.0,-391.0,-791.0,-153.0,413.0,-1005.0
-41.0,110.0,-244.0,-1193.0,-377.0,-790.0,-161.0,420.0,-1006.0
-40.0,106.0,-244.0,-1204.0,-364.0,-788.0,-170.0,408.0,-1001.0
-46.0,109.0,-246.0,-1214.0,-347.0,-783.0,-188.0,407.0,-997.0
-52.0,106.0,-242.0,-1223.0,-330.0,-775.0,-205.0,410.0,-998.0
-48.0,107.0,-236.0,-1230.0,-312.0,-767.0,-204.0,411.0,-989.0
-47.0,104.0,-242.0,-1234.0,-300.0,-761.0,-196.0,399.0,-988.0
-47.0,101.0,-236.0,-1240.0,-292.0,-759.0,-201.0,389.0,-976.0
-50.0,100.0,-236.0,-1251.0,-281.0,-760.0,-209.0,390.0,-971.0
-51.0,101.0,-232.0,-1261.0,-273.0,-761.0,-211.0,379.0,-967.0
-49.0,102.0,-232.0,-1268.0,-268.0,-765.0,-208.0,381.0,-952.0
-46.0,97.0,-233.0,-1272.0,-268.0,-769.0,-205.0,384.0,-943.0
-50.0,99.0,-226.0,-1275.0,-274.0,-775.0,-203.0,376.0,-937.0
-50.0,98.0,-221.0,-1282.0,-282.0,-784.0,-204.0,372.0,-921.0
-51.0,96.0,-219.0,-1290.0,-289.0,-792.0,-207.0,367.0,-914.0
-51.0,96.0,-219.0,-1300.0,-298.0,-801.0,-196.0,365.0,-898.0
-46.0,97.0,-222.0,-1304.0,-312.0,-810.0,-199.0,361.0,-888.0
-48.0,94.0,-212.0,-1310.0,-336.0,-822.0,-191.0,358.0,-874.0
-42.0,89.0,-210.0,-1324.0,-360.0,-838.0,-184.0,343.0,-859.0
-44.0,88.0,-209.0,-1334.0,-384.0,-852.0,-172.0,332.0,-843.0
-42.0,88.0,-199.0,-1341.0,-408.0,-865.0,-174.0,335.0,-827.0
-44.0,88.0,-195.0,-1354.0,-429.0,-878.0,-182.0,337.0,-807.0
-44.0,90.0,-192.0,-1369.0,-445.0,-889.0,-180.0,341.0,-797.0
-49.0,91.0,-187.0,-1379.0,-458.0,-895.0,-197.0,341.0,-779.0
-48.0,86.0,-189.0,-1392.0,-476.0,-905.0,-194.0,323.0,-786.0
-53.0,85.0,-187.0,-1410.0,-494.0,-915.0,-211.0,316.0,-771.0
-51.0,80.0,-185.0,-1423.0,-516.0,-929.0,-218.0,304.0,-766.0
-56.0,73.0,-188.0,-1432.0,-532.0,-949.0,-226.0,297.0,-752.0
-58.0,72.0,-182.0,-1434.0,-551.0,-974.0,-244.0,277.0,-734.0
-60.0,70.0,-179.0,-1430.0,-575.0,-1003.0,-250.0,261.0,-721.0
-60.0,60.0,-171.0,-1429.0,-608.0,-1039.0,-250.0,240.0,-708.0
-59.0,54.0,-165.0,-1424.0,-647.0,-1079.0,-232.0,209.0,-697.0
-55.0,49.0,-167.0,-1401.0,-692.0,-1118.0,-225.0,189.0,-679.0
-53.0,44.0,-161.0,-1377.0,-741.0,-1157.0,-222.0,164.0,-661.0
-53.0,38.0,-154.0,-1348.0,-798.0,-1203.0,-212.0,144.0,-641.0
-48.0,30.0,-153.0,-1318.0,-856.0,-1254.0,-195.0,110.0,-630.0
-50.0,25.0,-146.0,-1268.0,-921.0,-1303.0,-201.0,83.0,-594.0
-38.0,17.0,-146.0,-1205.0,-995.0,-1368.0,-176.0,66.0,-592.0
-36.0,15.0,-144.0,-1133.0,-1065.0,-1414.0,-165.0,53.0,-592.0
-45.0,11.0,-146.0,-1044.0,-1144.0,-1459.0,-175.0,53.0,-592.0
-42.0,5.0,-142.0,-941.0,-1221.0,-1502.0,-183.0,25.0,-575.0
-52.0,-3.0,-147.0,-815.0,-1326.0,-1547.0,-175.0,-18.0,-584.0
-46.0,-4.0,-136.0,-680.0,-1414.0,-1589.0,-187.0,-42.0,-558.0
-47.0,-4.0,-129.0,-528.0,-1518.0,-1625.0,-190.0,-13.0,-539.0
-44.0,-2.0,-127.0,-355.0,-1632.0,-1653.0,-190.0,-2.0,-497.0
-39.0,6.0,-119.0,-215.0,-1778.0,-1670.0,-181.0,43.0,-492.0
-53.0,15.0,-107.0,-77.0,-1935.0,-1665.0,-224.0,63.0,-444.0
-72.0,25.0,-100.0,44.0,-2080.0,-1660.0,-288.0,94.0,-406.0
-76.0,33.0,-99.0,160.0,-2209.0,-1654.0,-300.0,120.0,-409.0
-75.0,33.0,-98.0,272.0,-2323.0,-1653.0,-308.0,120.0,-406.0
-76.0,30.0,-99.0,366.0,-2428.0,-1646.0,-313.0,116.0,-397.0
-88.0,33.0,-94.0,440.0,-2540.0,-1629.0,-352.0,104.0,-368.0
-100.0,48.0,-97.0,502.0,-2657.0,-1612.0,-417.0,165.0,-384.0
-129.0,66.0,-94.0,539.0,-2764.0,-1564.0,-504.0,219.0,-375.0
-148.0,75.0,-102.0,548.0,-2850.0,-1466.0,-605.0,274.0,-414.0
-152.0,79.0,-100.0,506.0,-2904.0,-1357.0,-620.0,279.0,-415.0
-157.0,87.0,-100.0,414.0,-2950.0,-1291.0,-643.0,304.0,-396.0
-158.0,93.0,-108.0,345.0,-2959.0,-1238.0,-669.0,329.0,-453.0
-160.0,123.0,-127.0,268.0,-2920.0,-1200.0,-675.0,423.0,-484.0
-154.0,142.0,-126.0,145.0,-2848.0,-1144.0,-646.0,520.0,-499.0
-151.0,180.0,-123.0,-31.0,-2781.0,-1089.0,-638.0,655.0,-468.0
-138.0,211.0,-111.0,-222.0,-2727.0,-995.0,-615.0,821.0,-463.0
-132.0,238.0,-126.0,-418.0,-2686.0,-893.0,-537.0,940.0,-497.0
-127.0,267.0,-130.0,-595.0,-2650.0,-810.0,-523.0,1030.0,-532.0
-112.0,275.0,-136.0,-738.0,-2608.0,-742.0,-470.0,1086.0,-570.0
-100.0,283.0,-144.0,-867.0,-2564.0,-696.0,-422.0,1109.0,-596.0
-103.0,283.0,-145.0,-958.0,-2533.0,-663.0,-428.0,1122.0,-592.0
-112.0,288.0,-146.0,-993.0,-2499.0,-638.0,-466.0,1136.0,-610.0
-124.0,290.0,-157.0,-1011.0,-2475.0,-629.0,-517.0,1155.0,-640.0
-147.0,297.0,-153.0,-1017.0,-2467.0,-627.0,-625.0,1167.0,-626.0
-179.0,294.0,-147.0,-1009.0,-2475.0,-637.0,-737.0,1172.0,-616.0
-221.0,302.0,-148.0,-998.0,-2491.0,-674.0,-892.0,1200.0,-621.0
-280.0,304.0,-149.0,-961.0,-2518.0,-740.0,-1095.0,1221.0,-608.0
-320.0,319.0,-143.0,-872.0,-2551.0,-836.0,-1323.0,1254.0,-615.0
-381.0,318.0,-154.0,-756.0,-2566.0,-957.0,-1540.0,1281.0,-640.0
-432.0,325.0,-164.0,-623.0,-2563.0,-1092.0,-1730.0,1305.0,-696.0
-461.0,330.0,-186.0,-474.0,-2538.0,-1232.0,-1855.0,1322.0,-750.0
-479.0,340.0,-196.0,-314.0,-2512.0,-1379.0,-1927.0,1357.0,-805.0
-472.0,352.0,-209.0,-133.0,-2522.0,-1533.0,-1902.0,1428.0,-860.0
-466.0,358.0,-211.0,61.0,-2586.0,-1680.0,-1862.0,1447.0,-886.0
-441.0,353.0,-211.0,279.0,-2699.0,-1832.0,-1778.0,1436.0,-876.0
-405.0,341.0,-198.0,495.0,-2842.0,-1970.0,-1647.0,1375.0,-828.0
-369.0,317.0,-181.0,698.0,-2965.0,-2074.0,-1504.0,1282.0,-763.0
-340.0,306.0,-160.0,906.0,-3016.0,-2163.0,-1363.0,1210.0,-649.0
-290.0,276.0,-124.0,1062.0,-3003.0,-2218.0,-1195.0,1118.0,-475.0
-248.0,254.0,-66.0,1169.0,-2937.0,-2214.0,-1039.0,1010.0,-280.0
-199.0,244.0,-20.0,1290.0,-2836.0,-2167.0,-851.0,959.0,-102.0
-139.0,257.0,11.0,1290.0,-2697.0,-2093.0,-641.0,972.0,12.0
-107.0,274.0,33.0,1170.0,-2542.0,-1970.0,-476.0,1045.0,134.0
-66.0,295.0,54.0,961.0,-2404.0,-1805.0,-305.0,1127.0,193.0
-32.0,310.0,56.0,706.0,-2302.0,-1597.0,-179.0,1173.0,243.0
-6.0,311.0,44.0,427.0,-2248.0,-1384.0,-56.0,1193.0,185.0
5.0,300.0,49.0,84.0,-2215.0,-1172.0,-11.0,1128.0,198.0
9.0,275.0,56.0,-286.0,-2205.0,-903.0,10.0,1037.0,211.0
0.0,236.0,59.0,-621.0,-2238.0,-642.0,-22.0,915.0,224.0
-31.0,199.0,59.0,-854.0,-2301.0,-431.0,-153.0,794.0,232.0
-58.0,175.0,58.0,-982.0,-2344.0,-287.0,-262.0,688.0,239.0
-75.0,166.0,64.0,-1051.0,-2364.0,-191.0,-335.0,635.0,252.0
-91.0,161.0,60.0,-1114.0,-2400.0,-137.0,-379.0,604.0,238.0
-98.0,149.0,46.0,-1173.0,-2456.0,-110.0,-426.0,572.0,192.0
-107.0,130.0,33.0,-1225.0,-2519.0,-104.0,-461.0,518.0,140.0
-115.0,105.0,32.0,-1273.0,-2579.0,-114.0,-485.0,399.0,130.0
-120.0,77.0,34.0,-1298.0,-2642.0,-137.0,-515.0,269.0,145.0
-128.0,44.0,39.0,-1294.0,-2705.0,-164.0,-539.0,156.0,160.0
-132.0,25.0,43.0,-1269.0,-2761.0,-198.0,-552.0,102.0,172.0
-136.0,31.0,52.0,-1234.0,-2815.0,-234.0,-583.0,109.0,196.0
-143.0,61.0,61.0,-1204.0,-2858.0,-270.0,-605.0,197.0,233.0
-144.0,90.0,61.0,-1200.0,-2899.0,-304.0,-617.0,360.0,254.0
-139.0,130.0,62.0,-1230.0,-2938.0,-330.0,-600.0,493.0,257.0
-131.0,149.0,65.0,-1292.0,-2979.0,-355.0,-568.0,555.0,257.0
-117.0,148.0,63.0,-1383.0,-3025.0,-400.0,-509.0,557.0,258.0
-114.0,140.0,68.0,-1499.0,-3075.0,-460.0,-482.0,524.0,277.0
-123.0,130.0,80.0,-1626.0,-3124.0,-539.0,-531.0,488.0,328.0
-115.0,113.0,79.0,-1746.0,-3172.0,-627.0,-493.0,405.0,340.0
-126.0,95.0,93.0,-1868.0,-3176.0,-733.0,-537.0,358.0,379.0
-141.0,88.0,116.0,-1987.0,-3150.0,-853.0,-597.0,323.0,473.0
-163.0,79.0,134.0,-2089.0,-3111.0,-1006.0,-711.0,271.0,559.0
-171.0,64.0,149.0,-2162.0,-3075.0,-1147.0,-739.0,221.0,617.0
-175.0,63.0,152.0,-2225.0,-3031.0,-1314.0,-767.0,208.0,628.0
-199.0,58.0,175.0,-2318.0,-2978.0,-1490.0,-829.0,175.0,696.0
-200.0,58.0,188.0,-2420.0,-2948.0,-1670.0,-844.0,170.0,771.0
-191.0,52.0,186.0,-2517.0,-2946.0,-1859.0,-817.0,146.0,765.0
-175.0,43.0,169.0,-2632.0,-2939.0,-2065.0,-754.0,129.0,676.0
-153.0,53.0,142.0,-2806.0,-2914.0,-2254.0,-676.0,158.0,580.0
-154.0,46.0,135.0,-2929.0,-2843.0,-2428.0,-680.0,154.0,534.0
-144.0,40.0,147.0,-2962.0,-2778.0,-2547.0,-664.0,136.0,613.0
-128.0,39.0,179.0,-2944.0,-2715.0,-2661.0,-538.0,120.0,728.0
-94.0,17.0,189.0,-2886.0,-2712.0,-2703.0,-415.0,44.0,775.0
-74.0,9.0,203.0,-2802.0,-2721.0,-2683.0,-343.0,23.0,846.0
-56.0,14.0,240.0,-2719.0,-2737.0,-2633.0,-256.0,25.0,971.0
-67.0,6.0,291.0,-2656.0,-2747.0,-2566.0,-303.0,0.0,1163.0
-83.0,-4.0,311.0,-2610.0,-2784.0,-2488.0,-413.0,-63.0,1278.0
-107.0,-30.0,319.0,-2559.0,-2811.0,-2431.0,-502.0,-140.0,1327.0
-131.0,-60.0,321.0,-2465.0,-2821.0,-2399.0,-592.0,-236.0,1312.0
-150.0,-64.0,305.0,-2338.0,-2849.0,-2385.0,-644.0,-283.0,1263.0
-162.0,-59.0,294.0,-2229.0,-2907.0,-2377.0,-702.0,-274.0,1220.0
-179.0,-49.0,295.0,-2178.0,-2968.0,-2354.0,-756.0,-227.0,1217.0
-195.0,-45.0,309.0,-2147.0,-3042.0,-2313.0,-835.0,-221.0,1257.0
-210.0,-55.0,316.0,-2112.0,-3111.0,-2268.0,-889.0,-236.0,1292.0
-213.0,-68.0,330.0,-2072.0,-3163.0,-2214.0,-925.0,-287.0,1356.0
-211.0,-80.0,348.0,-2038.0,-3209.0,-2153.0,-920.0,-344.0,1476.0
-208.0,-105.0,401.0,-2006.0,-3228.0,-2056.0,-931.0,-466.0,1684.0
-200.0,-149.0,435.0,-1921.0,-3189.0,-1932.0,-889.0,-645.0,1794.0
-184.0,-190.0,422.0,-1768.0,-3086.0,-1809.0,-825.0,-794.0,1737.0
-157.0,-218.0,401.0,-1557.0,-2960.0,-1701.0,-739.0,-869.0,1658.0
-155.0,-207.0,385.0,-1289.0,-2850.0,-1614.0,-723.0,-859.0,1595.0
-152.0,-192.0,382.0,-1026.0,-2753.0,-1534.0,-706.0,-772.0,1555.0
-146.0,-166.0,376.0,-790.0,-2633.0,-1483.0,-675.0,-694.0,1545.0
-119.0,-149.0,374.0,-593.0,-2472.0,-1458.0,-588.0,-618.0,1521.0
-108.0,-140.0,378.0,-434.0,-2252.0,-1440.0,-539.0,-588.0,1570.0
-85.0,-136.0,373.0,-283.0,-2019.0,-1413.0,-442.0,-578.0,1526.0
-75.0,-139.0,348.0,-166.0,-1800.0,-1372.0,-386.0,-597.0,1436.0
-59.0,-150.0,327.0,-85.0,-1593.0,-1343.0,-341.0,-622.0,1361.0
-38.0,-163.0,313.0,-20.0,-1418.0,-1303.0,-244.0,-682.0,1309.0
-22.0,-197.0,321.0,4.0,-1264.0,-1242.0,-181.0,-795.0,1293.0
-14.0,-219.0,293.0,-12.0,-1142.0,-1167.0,-113.0,-923.0,1227.0
1.0,-241.0,263.0,-36.0,-1076.0,-1092.0,-51.0,-1003.0,1113.0
1.0,-245.0,230.0,-55.0,-1065.0,-1021.0,-47.0,-1027.0,989.0
-15.0,-239.0,202.0,-52.0,-1092.0,-960.0,-91.0,-981.0,856.0
-18.0,-224.0,186.0,-1.0,-1160.0,-915.0,-93.0,-931.0,769.0
-11.0,-217.0,167.0,118.0,-1283.0,-867.0,-77.0,-876.0,697.0
-14.0,-195.0,160.0,279.0,-1461.0,-815.0,-65.0,-789.0,653.0
-15.0,-188.0,158.0,454.0,-1669.0,-791.0,-98.0,-729.0,665.0
-25.0,-171.0,165.0,663.0,-1854.0,-789.0,-133.0,-687.0,684.0
-36.0,-154.0,162.0,906.0,-1984.0,-815.0,-178.0,-618.0,674.0
-46.0,-142.0,167.0,1144.0,-2062.0,-831.0,-213.0,-577.0,698.0
-45.0,-121.0,168.0,1335.0,-2105.0,-835.0,-220.0,-526.0,719.0
-47.0,-97.0,188.0,1446.0,-2132.0,-803.0,-219.0,-421.0,776.0
-26.0,-102.0,186.0,1514.0,-2124.0,-713.0,-155.0,-446.0,769.0
-20.0,-87.0,190.0,1522.0,-2081.0,-638.0,-129.0,-371.0,774.0
-8.0,-69.0,207.0,1475.0,-2017.0,-542.0,-95.0,-322.0,846.0
2.0,-63.0,228.0,1403.0,-1940.0,-441.0,-59.0,-301.0,956.0
30.0,-64.0,238.0,1306.0,-1868.0,-410.0,41.0,-318.0,980.0
51.0,-54.0,226.0,1102.0,-1798.0,-379.0,127.0,-282.0,947.0
55.0,-43.0,217.0,794.0,-1731.0,-318.0,154.0,-246.0,900.0
46.0,-49.0,203.0,467.0,-1702.0,-209.0,129.0,-235.0,841.0
26.0,-32.0,196.0,215.0,-1724.0,-97.0,77.0,-172.0,784.0
31.0,-81.0,168.0,116.0,-1772.0,11.0,100.0,-353.0,699.0
20.0,-104.0,142.0,132.0,-1830.0,58.0,48.0,-418.0,621.0
22.0,-112.0,128.0,240.0,-1884.0,119.0,50.0,-450.0,545.0
24.0,-117.0,110.0,381.0,-1915.0,175.0,53.0,-480.0,458.0
14.0,-104.0,101.0,487.0,-1924.0,234.0,-40.0,-460.0,429.0
16.0,-105.0,106.0,543.0,-1909.0,293.0,19.0,-445.0,445.0
10.0,-97.0,118.0,521.0,-1877.0,291.0,-10.0,-408.0,475.0
1.0,-82.0,119.0,458.0,-1839.0,277.0,-44.0,-344.0,508.0
-7.0,-60.0,123.0,366.0,-1786.0,277.0,-58.0,-285.0,532.0
-14.0,-51.0,140.0,275.0,-1719.0,295.0,-104.0,-228.0,571.0
-40.0,-14.0,148.0,162.0,-1645.0,263.0,-181.0,-121.0,620.0
-26.0,-15.0,170.0,53.0,-1551.0,299.0,-168.0,-75.0,700.0
-15.0,-14.0,180.0,29.0,-1425.0,407.0,-123.0,-80.0,730.0
-12.0,12.0,159.0,23.0,-1290.0,490.0,-130.0,15.0,666.0
0.0,-18.0,189.0,-29.0,-1134.0,587.0,-66.0,-101.0,763.0
-4.0,-19.0,193.0,-106.0,-1046.0,603.0,-52.0,-117.0,776.0
-26.0,-3.0,190.0,-226.0,-1047.0,598.0,-58.0,-27.0,807.0
15.0,-32.0,195.0,-318.0,-1114.0,621.0,38.0,-160.0,818.0
39.0,-31.0,197.0,-375.0,-1218.0,643.0,74.0,-179.0,803.0
32.0,-48.0,182.0,-420.0,-1302.0,677.0,84.0,-224.0,759.0
46.0,-70.0,187.0,-560.0,-1343.0,801.0,123.0,-303.0,763.0
43.0,-82.0,191.0,-775.0,-1366.0,848.0,85.0,-366.0,801.0
19.0,-95.0,205.0,-1020.0,-1371.0,811.0,30.0,-426.0,854.0
6.0,-104.0,225.0,-1216.0,-1361.0,757.0,-15.0,-441.0,926.0
1.0,-105.0,228.0,-1313.0,-1333.0,702.0,-31.0,-454.0,937.0
-2.0,-103.0,219.0,-1350.0,-1315.0,653.0,-71.0,-444.0,922.0
-19.0,-80.0,225.0,-1332.0,-1299.0,635.0,-110.0,-367.0,913.0
-24.0,-86.0,206.0,-1277.0,-1299.0,651.0,-149.0,-356.0,864.0
-53.0,-68.0,206.0,-1275.0,-1314.0,622.0,-261.0,-290.0,870.0
-77.0,-63.0,229.0,-1276.0,-1341.0,643.0,-353.0,-265.0,943.0
-60.0,-76.0,267.0,-1228.0,-1368.0,718.0,-319.0,-327.0,1057.0
-27.0,-95.0,289.0,-1094.0,-1331.0,834.0,-155.0,-435.0,1235.0
37.0,-157.0,360.0,-915.0,-1220.0,897.0,62.0,-644.0,1467.0
92.0,-201.0,416.0,-730.0,-1047.0,865.0,268.0,-802.0,1695.0
101.0,-227.0,466.0,-517.0,-853.0,799.0,256.0,-900.0,1921.0
149.0,-284.0,488.0,-240.0,-618.0,863.0,491.0,-1147.0,1997.0
196.0,-321.0,505.0,42.0,-374.0,883.0,677.0,-1317.0,2060.0
255.0,-338.0,504.0,229.0,-151.0,870.0,827.0,-1333.0,2106.0
296.0,-386.0,463.0,344.0,48.0,838.0,1109.0,-1606.0,1932.0
279.0,-381.0,397.0,333.0,163.0,705.0,1078.0,-1596.0,1717.0
245.0,-347.0,342.0,246.0,141.0,542.0,946.0,-1468.0,1404.0
160.0,-305.0,274.0,125.0,-51.0,386.0,670.0,-1290.0,1159.0
85.0,-249.0,220.0,6.0,-375.0,290.0,374.0,-1056.0,933.0
57.0,-207.0,173.0,9.0,-686.0,303.0,208.0,-872.0,713.0
46.0,-182.0,131.0,102.0,-852.0,377.0,147.0,-753.0,564.0
41.0,-169.0,127.0,188.0,-903.0,402.0,90.0,-683.0,528.0
16.0,-139.0,131.0,209.0,-911.0,333.0,15.0,-576.0,551.0
14.0,-98.0,150.0,197.0,-923.0,261.0,19.0,-416.0,627.0
20.0,-66.0,169.0,181.0,-948.0,196.0,28.0,-297.0,678.0
28.0,-52.0,176.0,182.0,-970.0,166.0,56.0,-236.0,716.0
38.0,-50.0,182.0,206.0,-963.0,174.0,101.0,-201.0,775.0
50.0,-43.0,181.0,277.0,-925.0,184.0,132.0,-185.0,762.0
46.0,-48.0,181.0,355.0,-863.0,165.0,119.0,-206.0,738.0
42.0,-48.0,166.0,429.0,-767.0,164.0,106.0,-202.0,692.0
46.0,-32.0,155.0,476.0,-634.0,191.0,103.0,-170.0,644.0
46.0,-22.0,145.0,470.0,-499.0,226.0,120.0,-103.0,618.0
49.0,-7.0,146.0,439.0,-375.0,256.0,129.0,-53.0,603.0
62.0,6.0,147.0,394.0,-248.0,327.0,155.0,-2.0,589.0
73.0,3.0,154.0,342.0,-129.0,396.0,217.0,-6.0,621.0
85.0,-2.0,160.0,287.0,-30.0,444.0,273.0,-48.0,667.0
97.0,-24.0,177.0,217.0,20.0,481.0,334.0,-135.0,713.0
106.0,-59.0,196.0,147.0,23.0,498.0,378.0,-245.0,784.0
112.0,-96.0,209.0,94.0,-21.0,499.0,395.0,-370.0,851.0
110.0,-125.0,220.0,65.0,-100.0,492.0,403.0,-507.0,890.0
117.0,-155.0,228.0,61.0,-187.0,474.0,429.0,-642.0,939.0
115.0,-187.0,225.0,96.0,-273.0,414.0,410.0,-792.0,918.0
118.0,-216.0,223.0,134.0,-343.0,382.0,420.0,-887.0,917.0
109.0,-225.0,219.0,177.0,-411.0,339.0,384.0,-929.0,917.0
103.0,-226.0,217.0,220.0,-471.0,279.0,352.0,-933.0,902.0
106.0,-219.0,212.0,253.0,-500.0,202.0,347.0,-908.0,875.0
107.0,-201.0,205.0,276.0,-458.0,107.0,350.0,-827.0,861.0
75.0,-165.0,205.0,287.0,-359.0,-1.0,251.0,-699.0,864.0
57.0,-129.0,205.0,268.0,-267.0,-88.0,165.0,-562.0,858.0
30.0,-97.0,200.0,232.0,-198.0,-124.0,74.0,-432.0,833.0
13.0,-72.0,196.0,190.0,-163.0,-119.0,4.0,-326.0,814.0
8.0,-54.0,197.0,167.0,-144.0,-93.0,3.0,-247.0,816.0
33.0,-42.0,197.0,149.0,-115.0,-46.0,56.0,-203.0,814.0
49.0,-37.0,193.0,120.0,-60.0,-3.0,111.0,-197.0,808.0
64.0,-41.0,202.0,60.0,29.0,71.0,176.0,-188.0,817.0
79.0,-39.0,197.0,-8.0,135.0,141.0,250.0,-181.0,838.0
92.0,-44.0,206.0,-83.0,244.0,189.0,331.0,-204.0,850.0
112.0,-55.0,221.0,-156.0,329.0,232.0,391.0,-231.0,894.0
130.0,-76.0,228.0,-213.0,338.0,236.0,444.0,-319.0,951.0
119.0,-89.0,229.0,-243.0,262.0,266.0,450.0,-384.0,943.0
112.0,-115.0,236.0,-301.0,89.0,267.0,426.0,-539.0,969.0
91.0,-149.0,232.0,-382.0,-152.0,195.0,332.0,-640.0,957.0
75.0,-189.0,231.0,-455.0,-422.0,96.0,256.0,-782.0,931.0
52.0,-236.0,222.0,-476.0,-647.0,13.0,176.0,-951.0,927.0
42.0,-258.0,212.0,-385.0,-773.0,-27.0,103.0,-1062.0,883.0
14.0,-278.0,208.0,-218.0,-832.0,-72.0,-7.0,-1127.0,868.0
-17.0,-290.0,200.0,-20.0,-862.0,-122.0,-115.0,-1177.0,848.0
-10.0,-302.0,204.0,166.0,-871.0,-169.0,-118.0,-1204.0,831.0
-24.0,-290.0,189.0,395.0,-752.0,-160.0,-156.0,-1173.0,794.0
-37.0,-270.0,181.0,647.0,-584.0,-90.0,-227.0,-1100.0,772.0
-50.0,-239.0,188.0,845.0,-423.0,-4.0,-275.0,-980.0,759.0
-45.0,-205.0,179.0,955.0,-283.0,72.0,-252.0,-860.0,729.0
-31.0,-170.0,173.0,977.0,-156.0,108.0,-195.0,-734.0,732.0
-12.0,-141.0,182.0,929.0,-28.0,102.0,-106.0,-630.0,755.0
6.0,-116.0,185.0,868.0,103.0,53.0,-30.0,-499.0,772.0
45.0,-82.0,187.0,777.0,244.0,24.0,75.0,-379.0,782.0
63.0,-52.0,193.0,646.0,424.0,76.0,158.0,-271.0,786.0
72.0,-32.0,200.0,485.0,574.0,150.0,220.0,-178.0,828.0
81.0,-18.0,216.0,328.0,681.0,171.0,252.0,-135.0,879.0
87.0,-13.0,220.0,206.0,744.0,131.0,289.0,-86.0,922.0
101.0,10.0,227.0,90.0,761.0,59.0,341.0,-4.0,924.0
109.0,16.0,227.0,-37.0,749.0,36.0,379.0,23.0,954.0
110.0,14.0,229.0,-173.0,713.0,25.0,388.0,30.0,954.0
112.0,9.0,229.0,-316.0,666.0,18.0,392.0,11.0,955.0
110.0,0.0,231.0,-455.0,606.0,21.0,377.0,-35.0,955.0
94.0,-14.0,233.0,-569.0,531.0,11.0,343.0,-100.0,948.0
90.0,-38.0,231.0,-652.0,446.0,-23.0,304.0,-172.0,954.0
79.0,-59.0,232.0,-694.0,356.0,-57.0,262.0,-255.0,953.0
70.0,-74.0,230.0,-700.0,269.0,-81.0,226.0,-328.0,950.0
63.0,-95.0,229.0,-681.0,191.0,-94.0,195.0,-391.0,940.0
57.0,-107.0,225.0,-643.0,120.0,-100.0,165.0,-448.0,941.0
48.0,-116.0,227.0,-592.0,56.0,-102.0,148.0,-495.0,930.0
49.0,-129.0,228.0,-531.0,-1.0,-102.0,143.0,-520.0,935.0
52.0,-130.0,228.0,-464.0,-42.0,-100.0,147.0,-543.0,934.0
54.0,-134.0,226.0,-396.0,-73.0,-100.0,151.0,-545.0,933.0
56.0,-129.0,230.0,-336.0,-97.0,-97.0,160.0,-531.0,940.0
55.0,-121.0,229.0,-282.0,-110.0,-95.0,161.0,-516.0,938.0
58.0,-117.0,230.0,-236.0,-112.0,-99.0,161.0,-496.0,947.0
57.0,-112.0,228.0,-200.0,-107.0,-103.0,161.0,-469.0,953.0
56.0,-110.0,233.0,-173.0,-95.0,-105.0,165.0,-463.0,970.0
56.0,-102.0,234.0,-147.0,-80.0,-113.0,158.0,-441.0,973.0
58.0,-96.0,236.0,-123.0,-63.0,-123.0,156.0,-423.0,983.0
55.0,-99.0,238.0,-99.0,-41.0,-135.0,152.0,-408.0,993.0
54.0,-92.0,242.0,-68.0,-8.0,-141.0,143.0,-386.0,1000.0
53.0,-88.0,245.0,-37.0,32.0,-146.0,137.0,-379.0,1006.0
42.0,-89.0,245.0,-9.0,80.0,-149.0,112.0,-356.0,1014.0
42.0,-77.0,247.0,15.0,125.0,-154.0,101.0,-337.0,1021.0
42.0,-74.0,254.0,41.0,167.0,-166.0,111.0,-316.0,1043.0
41.0,-68.0,256.0,75.0,210.0,-181.0,100.0,-289.0,1056.0
41.0,-63.0,257.0,118.0,244.0,-187.0,101.0,-274.0,1065.0
45.0,-55.0,260.0,163.0,274.0,-182.0,117.0,-242.0,1075.0
42.0,-50.0,260.0,203.0,309.0,-173.0,113.0,-224.0,1081.0
48.0,-51.0,257.0,223.0,348.0,-151.0,113.0,-217.0,1066.0
56.0,-48.0,261.0,210.0,383.0,-114.0,150.0,-219.0,1060.0
60.0,-49.0,254.0,176.0,421.0,-74.0,160.0,-219.0,1065.0
52.0,-51.0,256.0,133.0,464.0,-36.0,135.0,-230.0,1061.0
49.0,-60.0,256.0,85.0,503.0,-1.0,127.0,-251.0,1055.0
41.0,-62.0,252.0,39.0,528.0,15.0,114.0,-279.0,1036.0
42.0,-70.0,249.0,13.0,535.0,21.0,115.0,-305.0,1026.0
37.0,-78.0,241.0,13.0,528.0,17.0,93.0,-330.0,997.0
31.0,-83.0,234.0,32.0,505.0,8.0,75.0,-350.0,966.0
26.0,-85.0,224.0,69.0,472.0,-4.0,56.0,-353.0,946.0
23.0,-86.0,224.0,109.0,430.0,-11.0,38.0,-363.0,912.0
26.0,-88.0,219.0,141.0,389.0,-12.0,37.0,-372.0,899.0
9.0,-80.0,217.0,158.0,355.0,8.0,-5.0,-361.0,899.0
-4.0,-80.0,209.0,162.0,331.0,35.0,-66.0,-353.0,883.0
-6.0,-78.0,210.0,136.0,305.0,67.0,-78.0,-361.0,875.0
13.0,-80.0,217.0,70.0,265.0,85.0,-10.0,-354.0,885.0
20.0,-75.0,222.0,-8.0,228.0,80.0,25.0,-336.0,899.0
12.0,-73.0,224.0,-76.0,213.0,71.0,7.0,-324.0,913.0
13.0,-78.0,225.0,-132.0,214.0,78.0,-3.0,-328.0,928.0
13.0,-75.0,234.0,-174.0,220.0,86.0,0.0,-337.0,965.0
17.0,-82.0,236.0,-199.0,217.0,88.0,19.0,-348.0,980.0
22.0,-88.0,239.0,-210.0,201.0,79.0,27.0,-365.0,989.0
27.0,-93.0,239.0,-203.0,187.0,68.0,40.0,-391.0,993.0
31.0,-97.0,242.0,-179.0,182.0,58.0,61.0,-402.0,993.0
34.0,-98.0,241.0,-141.0,186.0,48.0,72.0,-415.0,996.0
36.0,-105.0,245.0,-96.0,198.0,34.0,82.0,-421.0,988.0
35.0,-99.0,232.0,-49.0,213.0,14.0,84.0,-420.0,985.0
38.0,-100.0,238.0,-6.0,226.0,-5.0,79.0,-432.0,974.0
35.0,-101.0,231.0,28.0,238.0,-23.0,78.0,-435.0,968.0
35.0,-105.0,235.0,54.0,248.0,-37.0,74.0,-441.0,953.0
35.0,-107.0,227.0,68.0,257.0,-44.0,74.0,-450.0,938.0
31.0,-110.0,224.0,75.0,264.0,-47.0,77.0,-463.0,923.0
30.0,-113.0,219.0,76.0,267.0,-48.0,66.0,-476.0,917.0
26.0,-113.0,225.0,75.0,268.0,-47.0,58.0,-487.0,910.0
25.0,-118.0,216.0,70.0,265.0,-40.0,52.0,-506.0,900.0
22.0,-124.0,218.0,65.0,257.0,-30.0,39.0,-520.0,898.0
18.0,-130.0,218.0,58.0,245.0,-17.0,26.0,-536.0,897.0
13.0,-129.0,220.0,56.0,231.0,2.0,15.0,-556.0,895.0
11.0,-132.0,213.0,59.0,212.0,21.0,-1.0,-571.0,885.0
2.0,-133.0,217.0,63.0,186.0,39.0,-19.0,-581.0,880.0
3.0,-137.0,211.0,68.0,154.0,61.0,-30.0,-579.0,879.0
-1.0,-136.0,212.0,77.0,120.0,82.0,-49.0,-578.0,877.0
-1.0,-134.0,214.0,93.0,81.0,109.0,-51.0,-573.0,874.0
-1.0,-130.0,212.0,115.0,43.0,132.0,-40.0,-554.0,876.0
4.0,-128.0,216.0,139.0,7.0,150.0,-25.0,-532.0,885.0
14.0,-123.0,216.0,166.0,-21.0,163.0,-10.0,-511.0,894.0
15.0,-115.0,215.0,189.0,-38.0,169.0,9.0,-486.0,906.0
23.0,-110.0,216.0,207.0,-45.0,162.0,28.0,-466.0,910.0
26.0,-101.0,222.0,221.0,-41.0,152.0,45.0,-442.0,917.0
30.0,-94.0,223.0,230.0,-29.0,143.0,67.0,-406.0,932.0
32.0,-90.0,229.0,225.0,-18.0,127.0,74.0,-378.0,943.0
32.0,-82.0,231.0,214.0,-9.0,103.0,76.0,-360.0,955.0
29.0,-77.0,234.0,197.0,-4.0,79.0,75.0,-348.0,972.0
38.0,-84.0,233.0,180.0,-2.0,49.0,71.0,-344.0,970.0
31.0,-80.0,237.0,161.0,-4.0,15.0,70.0,-351.0,978.0
24.0,-80.0,238.0,142.0,-9.0,-20.0,67.0,-363.0,979.0
27.0,-88.0,240.0,128.0,-19.0,-51.0,63.0,-380.0,978.0
34.0,-95.0,240.0,122.0,-29.0,-79.0,65.0,-404.0,980.0
28.0,-91.0,227.0,121.0,-42.0,-104.0,63.0,-404.0,962.0
28.0,-92.0,229.0,119.0,-55.0,-123.0,66.0,-405.0,950.0
32.0,-99.0,224.0,114.0,-64.0,-140.0,64.0,-414.0,933.0
31.0,-96.0,217.0,106.0,-72.0,-153.0,61.0,-411.0,917.0
25.0,-97.0,219.0,89.0,-73.0,-160.0,57.0,-417.0,907.0
30.0,-95.0,216.0,62.0,-64.0,-164.0,52.0,-413.0,900.0
26.0,-99.0,217.0,29.0,-49.0,-164.0,42.0,-421.0,896.0
22.0,-96.0,219.0,-10.0,-25.0,-162.0,36.0,-429.0,885.0
22.0,-98.0,212.0,-49.0,2.0,-158.0,36.0,-428.0,884.0
21.0,-102.0,211.0,-83.0,32.0,-153.0,26.0,-433.0,887.0
19.0,-106.0,218.0,-110.0,57.0,-150.0,29.0,-438.0,890.0
18.0,-104.0,220.0,-130.0,80.0,-146.0,17.0,-445.0,895.0
17.0,-107.0,217.0,-140.0,100.0,-142.0,19.0,-453.0,896.0
17.0,-107.0,216.0,-140.0,112.0,-142.0,25.0,-455.0,900.0
17.0,-109.0,218.0,-136.0,117.0,-144.0,23.0,-457.0,896.0
18.0,-108.0,219.0,-128.0,114.0,-145.0,20.0,-460.0,900.0
14.0,-107.0,220.0,-116.0,104.0,-147.0,8.0,-464.0,899.0
12.0,-109.0,215.0,-103.0,88.0,-148.0,-4.0,-465.0,898.0
8.0,-112.0,216.0,-87.0,68.0,-146.0,-6.0,-461.0,896.0
10.0,-107.0,221.0,-65.0,45.0,-140.0,-11.0,-454.0,896.0
11.0,-107.0,220.0,-43.0,22.0,-135.0,-3.0,-451.0,900.0
15.0,-107.0,216.0,-18.0,-1.0,-131.0,2.0,-442.0,905.0
12.0,-101.0,215.0,2.0,-18.0,-126.0,18.0,-433.0,911.0
21.0,-101.0,217.0,19.0,-31.0,-123.0,23.0,-431.0,911.0
24.0,-97.0,227.0,31.0,-40.0,-121.0,42.0,-426.0,929.0
27.0,-102.0,225.0,38.0,-47.0,-120.0,51.0,-436.0,940.0
30.0,-101.0,234.0,41.0,-52.0,-120.0,62.0,-436.0,966.0
32.0,-102.0,235.0,43.0,-56.0,-120.0,71.0,-442.0,974.0
32.0,-105.0,238.0,41.0,-57.0,-122.0,73.0,-455.0,976.0
34.0,-109.0,238.0,38.0,-57.0,-124.0,76.0,-464.0,983.0
37.0,-114.0,238.0,31.0,-54.0,-127.0,74.0,-479.0,988.0
33.0,-111.0,238.0,23.0,-48.0,-126.0,78.0,-483.0,979.0
33.0,-117.0,237.0,14.0,-42.0,-127.0,75.0,-493.0,981.0
28.0,-125.0,230.0,6.0,-37.0,-126.0,67.0,-493.0,982.0
31.0,-119.0,232.0,0.0,-36.0,-124.0,69.0,-503.0,968.0
29.0,-117.0,230.0,-3.0,-38.0,-118.0,61.0,-495.0,957.0
29.0,-119.0,230.0,-2.0,-42.0,-109.0,61.0,-495.0,943.0
27.0,-113.0,228.0,3.0,-47.0,-101.0,56.0,-484.0,931.0
29.0,-113.0,224.0,11.0,-50.0,-92.0,55.0,-478.0,920.0
24.0,-109.0,221.0,21.0,-53.0,-84.0,51.0,-463.0,903.0
25.0,-103.0,217.0,32.0,-55.0,-78.0,43.0,-454.0,896.0
23.0,-101.0,218.0,41.0,-51.0,-72.0,45.0,-439.0,883.0
24.0,-94.0,212.0,48.0,-44.0,-69.0,49.0,-416.0,875.0
26.0,-92.0,211.0,51.0,-35.0,-65.0,56.0,-396.0,869.0
29.0,-94.0,212.0,58.0,-25.0,-63.0,60.0,-391.0,858.0
29.0,-89.0,205.0,63.0,-17.0,-64.0,60.0,-381.0,864.0
31.0,-88.0,205.0,67.0,-9.0,-62.0,65.0,-379.0,868.0
28.0,-86.0,214.0,68.0,0.0,-60.0,67.0,-382.0,860.0
30.0,-88.0,215.0,70.0,7.0,-61.0,62.0,-378.0,871.0
30.0,-89.0,214.0,72.0,11.0,-61.0,67.0,-388.0,878.0
31.0,-90.0,211.0,72.0,12.0,-60.0,74.0,-386.0,882.0
33.0,-91.0,215.0,71.0,15.0,-61.0,72.0,-393.0,900.0
31.0,-91.0,215.0,66.0,15.0,-60.0,75.0,-400.0,909.0
32.0,-90.0,219.0,61.0,16.0,-59.0,73.0,-404.0,915.0
32.0,-96.0,222.0,58.0,14.0,-56.0,72.0,-409.0,918.0
27.0,-97.0,222.0,57.0,11.0,-57.0,73.0,-410.0,932.0
33.0,-99.0,224.0,59.0,8.0,-53.0,80.0,-416.0,933.0
36.0,-98.0,224.0,60.0,6.0,-51.0,83.0,-418.0,931.0
35.0,-97.0,225.0,60.0,5.0,-52.0,83.0,-416.0,927.0
34.0,-95.0,225.0,59.0,5.0,-52.0,83.0,-416.0,932.0
38.0,-96.0,226.0,57.0,6.0,-53.0,85.0,-414.0,929.0
37.0,-99.0,226.0,53.0,9.0,-52.0,90.0,-410.0,932.0
39.0,-99.0,228.0,50.0,12.0,-52.0,91.0,-412.0,933.0
39.0,-97.0,225.0,44.0,15.0,-50.0,95.0,-414.0,945.0
39.0,-98.0,226.0,39.0,16.0,-49.0,89.0,-415.0,936.0
37.0,-98.0,231.0,35.0,20.0,-47.0,101.0,-418.0,937.0
38.0,-101.0,237.0,33.0,24.0,-46.0,101.0,-426.0,953.0
41.0,-99.0,227.0,31.0,31.0,-43.0,101.0,-417.0,958.0
43.0,-100.0,230.0,27.0,43.0,-41.0,107.0,-416.0,955.0
42.0,-98.0,229.0,22.0,51.0,-39.0,114.0,-425.0,953.0
48.0,-96.0,232.0,16.0,59.0,-38.0,118.0,-421.0,958.0
46.0,-99.0,232.0,12.0,66.0,-37.0,118.0,-424.0,963.0
45.0,-101.0,232.0,9.0,70.0,-35.0,116.0,-420.0,955.0
39.0,-98.0,228.0,8.0,69.0,-37.0,108.0,-424.0,956.0
41.0,-97.0,229.0,8.0,68.0,-36.0,108.0,-421.0,941.0
40.0,-99.0,232.0,10.0,65.0,-34.0,104.0,-426.0,944.0
39.0,-101.0,228.0,15.0,62.0,-34.0,97.0,-433.0,938.0
42.0,-104.0,224.0,20.0,60.0,-31.0,92.0,-426.0,934.0
34.0,-100.0,231.0,26.0,60.0,-29.0,85.0,-425.0,931.0
34.0,-99.0,225.0,33.0,60.0,-26.0,78.0,-429.0,930.0
33.0,-101.0,227.0,40.0,61.0,-26.0,73.0,-427.0,931.0
27.0,-95.0,226.0,46.0,61.0,-19.0,70.0,-426.0,921.0
27.0,-101.0,221.0,51.0,60.0,-14.0,66.0,-425.0,921.0
24.0,-101.0,225.0,56.0,58.0,-10.0,62.0,-429.0,926.0
24.0,-98.0,230.0,60.0,56.0,-4.0,50.0,-427.0,919.0
27.0,-101.0,221.0,63.0,53.0,0.0,53.0,-438.0,919.0
23.0,-98.0,219.0,67.0,50.0,4.0,46.0,-434.0,919.0
22.0,-105.0,217.0,70.0,46.0,9.0,41.0,-434.0,921.0
23.0,-101.0,223.0,74.0,43.0,10.0,42.0,-436.0,919.0
22.0,-102.0,222.0,77.0,38.0,14.0,40.0,-434.0,922.0
24.0,-102.0,224.0,82.0,34.0,18.0,39.0,-431.0,922.0
22.0,-100.0,222.0,84.0,30.0,20.0,38.0,-432.0,919.0
22.0,-100.0,221.0,86.0,26.0,22.0,36.0,-429.0,918.0
21.0,-97.0,223.0,86.0,22.0,24.0,39.0,-422.0,925.0
26.0,-100.0,224.0,86.0,20.0,27.0,40.0,-431.0,917.0
29.0,-100.0,223.0,84.0,18.0,29.0,42.0,-422.0,922.0
31.0,-101.0,223.0,81.0,20.0,26.0,40.0,-430.0,916.0
21.0,-103.0,226.0,78.0,19.0,26.0,41.0,-430.0,917.0
23.0,-102.0,230.0,75.0,21.0,27.0,44.0,-427.0,921.0
23.0,-98.0,227.0,70.0,23.0,27.0,39.0,-426.0,926.0
25.0,-101.0,222.0,65.0,26.0,26.0,48.0,-431.0,922.0
22.0,-98.0,222.0,60.0,29.0,26.0,42.0,-432.0,927.0
24.0,-101.0,224.0,57.0,33.0,25.0,44.0,-434.0,934.0
27.0,-100.0,225.0,57.0,38.0,26.0,56.0,-421.0,931.0
29.0,-101.0,227.0,53.0,44.0,26.0,59.0,-430.0,931.0
31.0,-104.0,227.0,52.0,50.0,27.0,65.0,-424.0,931.0
28.0,-98.0,224.0,49.0,56.0,27.0,68.0,-422.0,935.0
33.0,-100.0,229.0,45.0,62.0,28.0,68.0,-430.0,934.0
33.0,-99.0,230.0,42.0,65.0,26.0,66.0,-428.0,939.0
30.0,-98.0,230.0,37.0,68.0,26.0,64.0,-431.0,936.0
29.0,-101.0,223.0,34.0,69.0,23.0,63.0,-434.0,950.0
29.0,-104.0,227.0,32.0,67.0,20.0,61.0,-437.0,947.0
29.0,-103.0,230.0,35.0,66.0,15.0,55.0,-444.0,941.0
26.0,-105.0,228.0,40.0,62.0,9.0,58.0,-445.0,946.0
27.0,-105.0,229.0,46.0,56.0,5.0,53.0,-454.0,941.0
24.0,-106.0,229.0,53.0,50.0,0.0,51.0,-449.0,946.0
29.0,-107.0,230.0,61.0,42.0,-4.0,57.0,-457.0,955.0
29.0,-112.0,231.0,68.0,34.0,-7.0,55.0,-460.0,963.0
30.0,-112.0,232.0,76.0,31.0,-11.0,57.0,-462.0,974.0
25.0,-106.0,237.0,84.0,25.0,-14.0,51.0,-454.0,983.0
19.0,-109.0,231.0,95.0,19.0,-17.0,59.0,-463.0,978.0
23.0,-106.0,238.0,110.0,10.0,-17.0,53.0,-463.0,985.0
27.0,-107.0,239.0,125.0,-5.0,-17.0,42.0,-457.0,982.0
23.0,-106.0,237.0,146.0,-19.0,-17.0,41.0,-461.0,983.0
23.0,-108.0,236.0,165.0,-37.0,-16.0,40.0,-459.0,985.0
23.0,-108.0,233.0,187.0,-53.0,-16.0,42.0,-459.0,977.0
25.0,-108.0,233.0,205.0,-70.0,-17.0,36.0,-460.0,958.0
23.0,-109.0,235.0,221.0,-80.0,-21.0,40.0,-454.0,958.0
23.0,-108.0,227.0,236.0,-89.0,-24.0,39.0,-456.0,959.0
22.0,-108.0,230.0,253.0,-92.0,-27.0,35.0,-459.0,941.0
21.0,-110.0,227.0,274.0,-93.0,-32.0,35.0,-459.0,939.0
22.0,-107.0,221.0,297.0,-90.0,-39.0,33.0,-463.0,930.0
24.0,-108.0,220.0,321.0,-83.0,-44.0,36.0,-465.0,919.0
25.0,-112.0,221.0,346.0,-73.0,-47.0,48.0,-458.0,913.0
24.0,-106.0,219.0,371.0,-60.0,-49.0,37.0,-452.0,906.0
26.0,-105.0,218.0,397.0,-48.0,-48.0,41.0,-445.0,900.0
26.0,-102.0,217.0,421.0,-39.0,-44.0,46.0,-445.0,880.0
25.0,-101.0,211.0,439.0,-33.0,-42.0,51.0,-435.0,875.0
25.0,-97.0,209.0,449.0,-32.0,-41.0,52.0,-420.0,855.0
32.0,-96.0,208.0,454.0,-32.0,-36.0,55.0,-405.0,851.0
31.0,-91.0,202.0,451.0,-33.0,-34.0,62.0,-387.0,840.0
32.0,-89.0,200.0,442.0,-29.0,-32.0,67.0,-376.0,836.0
29.0,-83.0,195.0,422.0,-22.0,-28.0,69.0,-355.0,839.0
34.0,-76.0,205.0,398.0,-17.0,-27.0,78.0,-343.0,848.0
33.0,-73.0,207.0,370.0,-10.0,-29.0,78.0,-333.0,858.0
34.0,-74.0,213.0,342.0,-4.0,-32.0,78.0,-324.0,875.0
35.0,-69.0,219.0,315.0,-1.0,-33.0,78.0,-325.0,891.0
35.0,-73.0,221.0,289.0,5.0,-35.0,80.0,-321.0,906.0
36.0,-70.0,221.0,261.0,9.0,-36.0,78.0,-321.0,924.0
33.0,-69.0,226.0,225.0,14.0,-33.0,79.0,-319.0,933.0
35.0,-72.0,235.0,181.0,20.0,-26.0,82.0,-318.0,959.0
35.0,-77.0,236.0,133.0,23.0,-18.0,79.0,-325.0,970.0
31.0,-74.0,237.0,86.0,26.0,-13.0,78.0,-327.0,983.0
36.0,-81.0,241.0,42.0,29.0,-10.0,80.0,-339.0,992.0
33.0,-76.0,241.0,3.0,30.0,-8.0,78.0,-348.0,996.0
33.0,-81.0,243.0,-29.0,26.0,-8.0,78.0,-350.0,990.0
35.0,-82.0,237.0,-57.0,23.0,-8.0,80.0,-361.0,986.0
36.0,-87.0,233.0,-81.0,22.0,-2.0,78.0,-368.0,971.0
35.0,-89.0,235.0,-98.0,22.0,0.0,74.0,-387.0,967.0
34.0,-91.0,226.0,-105.0,22.0,-2.0,76.0,-396.0,950.0
30.0,-97.0,224.0,-98.0,24.0,-6.0,72.0,-402.0,932.0
29.0,-94.0,222.0,-86.0,25.0,-7.0,70.0,-413.0,916.0
28.0,-100.0,220.0,-71.0,28.0,-8.0,59.0,-415.0,908.0
29.0,-98.0,219.0,-57.0,30.0,-9.0,61.0,-428.0,897.0
23.0,-106.0,216.0,-44.0,32.0,-11.0,58.0,-428.0,900.0
26.0,-98.0,216.0,-34.0,34.0,-12.0,57.0,-425.0,903.0
28.0,-101.0,220.0,-29.0,35.0,-15.0,54.0,-429.0,906.0
27.0,-95.0,219.0,-23.0,34.0,-20.0,54.0,-422.0,916.0
25.0,-100.0,225.0,-15.0,31.0,-25.0,49.0,-421.0,935.0
24.0,-98.0,229.0,-9.0,25.0,-33.0,57.0,-419.0,948.0
27.0,-95.0,233.0,-3.0,19.0,-37.0,53.0,-413.0,964.0
28.0,-96.0,234.0,-1.0,12.0,-37.0,52.0,-416.0,979.0
26.0,-94.0,239.0,-1.0,4.0,-33.0,60.0,-406.0,982.0
28.0,-92.0,243.0,-6.0,1.0,-30.0,52.0,-409.0,998.0
28.0,-94.0,242.0,-13.0,0.0,-27.0,62.0,-402.0,998.0
28.0,-96.0,237.0,-26.0,0.0,-21.0,64.0,-400.0,998.0
27.0,-93.0,239.0,-38.0,-1.0,-16.0,57.0,-404.0,999.0
33.0,-92.0,241.0,-48.0,-2.0,-12.0,58.0,-402.0,992.0
26.0,-93.0,240.0,-58.0,-3.0,-7.0,54.0,-400.0,984.0
27.0,-93.0,234.0,-66.0,-6.0,-7.0,54.0,-405.0,959.0
28.0,-97.0,229.0,-70.0,-9.0,-5.0,57.0,-410.0,947.0
26.0,-99.0,220.0,-67.0,-9.0,-4.0,50.0,-411.0,934.0
28.0,-95.0,217.0,-57.0,-8.0,-2.0,50.0,-416.0,926.0
28.0,-97.0,222.0,-37.0,-5.0,0.0,47.0,-430.0,906.0
26.0,-100.0,217.0,-9.0,0.0,1.0,54.0,-428.0,896.0
33.0,-99.0,214.0,17.0,8.0,4.0,53.0,-433.0,893.0
25.0,-99.0,216.0,39.0,15.0,4.0,48.0,-426.0,885.0
24.0,-99.0,216.0,57.0,21.0,1.0,46.0,-423.0,898.0
30.0,-99.0,220.0,69.0,26.0,-1.0,61.0,-425.0,902.0
28.0,-96.0,217.0,79.0,31.0,-6.0,58.0,-408.0,906.0
32.0,-95.0,225.0,90.0,36.0,-12.0,64.0,-410.0,915.0
31.0,-92.0,223.0,100.0,38.0,-13.0,74.0,-400.0,925.0
32.0,-97.0,224.0,113.0,38.0,-17.0,70.0,-394.0,930.0
32.0,-91.0,229.0,123.0,36.0,-19.0,76.0,-393.0,940.0
32.0,-91.0,229.0,130.0,32.0,-22.0,80.0,-384.0,955.0
33.0,-84.0,238.0,134.0,24.0,-26.0,83.0,-386.0,958.0
37.0,-88.0,232.0,132.0,16.0,-28.0,74.0,-378.0,958.0
37.0,-89.0,231.0,124.0,9.0,-31.0,79.0,-371.0,968.0
38.0,-87.0,234.0,113.0,4.0,-34.0,87.0,-370.0,968.0
36.0,-84.0,235.0,98.0,0.0,-36.0,88.0,-367.0,964.0
34.0,-80.0,231.0,81.0,3.0,-38.0,91.0,-364.0,969.0
36.0,-85.0,230.0,61.0,8.0,-39.0,90.0,-367.0,960.0
38.0,-84.0,232.0,43.0,11.0,-37.0,83.0,-364.0,960.0
34.0,-86.0,230.0,25.0,13.0,-38.0,84.0,-370.0,957.0
34.0,-87.0,233.0,8.0,17.0,-37.0,82.0,-382.0,954.0
35.0,-85.0,231.0,-4.0,22.0,-35.0,83.0,-385.0,948.0
36.0,-94.0,228.0,-13.0,28.0,-34.0,82.0,-387.0,945.0
33.0,-92.0,227.0,-22.0,39.0,-30.0,78.0,-390.0,942.0
35.0,-89.0,230.0,-29.0,49.0,-26.0,83.0,-396.0,942.0
32.0,-91.0,231.0,-35.0,61.0,-24.0,77.0,-398.0,953.0
38.0,-97.0,229.0,-42.0,73.0,-21.0,79.0,-409.0,955.0
35.0,-94.0,227.0,-45.0,84.0,-18.0,84.0,-409.0,956.0
31.0,-93.0,230.0,-47.0,93.0,-16.0,84.0,-411.0,956.0
34.0,-98.0,234.0,-47.0,96.0,-13.0,80.0,-416.0,949.0
33.0,-99.0,226.0,-44.0,97.0,-12.0,76.0,-421.0,952.0
31.0,-101.0,227.0,-36.0,96.0,-10.0,70.0,-420.0,945.0
30.0,-99.0,230.0,-27.0,92.0,-10.0,78.0,-421.0,954.0
30.0,-104.0,225.0,-14.0,86.0,-11.0,69.0,-429.0,941.0
29.0,-102.0,230.0,0.0,78.0,-14.0,66.0,-417.0,945.0
30.0,-100.0,226.0,16.0,71.0,-17.0,61.0,-425.0,939.0
28.0,-100.0,225.0,29.0,65.0,-18.0,60.0,-421.0,935.0
30.0,-98.0,225.0,39.0,61.0,-16.0,59.0,-414.0,937.0
29.0,-98.0,226.0,47.0,58.0,-14.0,58.0,-414.0,929.0
28.0,-96.0,226.0,52.0,53.0,-13.0,57.0,-415.0,934.0
25.0,-96.0,230.0,54.0,50.0,-14.0,55.0,-414.0,937.0
28.0,-98.0,231.0,57.0,44.0,-15.0,56.0,-408.0,936.0
28.0,-97.0,230.0,56.0,39.0,-14.0,49.0,-410.0,946.0
28.0,-92.0,229.0,53.0,35.0,-13.0,53.0,-408.0,945.0
29.0,-92.0,227.0,49.0,31.0,-11.0,59.0,-406.0,945.0
26.0,-94.0,231.0,45.0,26.0,-11.0,56.0,-406.0,942.0
27.0,-95.0,229.0,40.0,24.0,-11.0,62.0,-402.0,949.0
27.0,-94.0,229.0,37.0,23.0,-13.0,61.0,-405.0,944.0
30.0,-93.0,227.0,35.0,22.0,-12.0,60.0,-396.0,946.0
29.0,-93.0,229.0,34.0,22.0,-13.0,60.0,-403.0,946.0
31.0,-95.0,227.0,33.0,22.0,-15.0,61.0,-400.0,940.0
29.0,-92.0,230.0,33.0,23.0,-16.0,59.0,-399.0,939.0
31.0,-95.0,224.0,33.0,22.0,-17.0,59.0,-398.0,938.0
29.0,-94.0,231.0,33.0,24.0,-17.0,56.0,-407.0,933.0
32.0,-96.0,229.0,31.0,25.0,-16.0,58.0,-406.0,944.0
31.0,-96.0,228.0,29.0,28.0,-17.0,59.0,-404.0,941.0
22.0,-94.0,220.0,24.0,32.0,-17.0,60.0,-408.0,945.0
27.0,-93.0,228.0,21.0,37.0,-18.0,65.0,-406.0,940.0
26.0,-95.0,229.0,16.0,43.0,-19.0,57.0,-405.0,936.0
30.0,-97.0,229.0,12.0,49.0,-20.0,62.0,-405.0,937.0
29.0,-93.0,227.0,9.0,56.0,-19.0,63.0,-405.0,932.0
28.0,-94.0,226.0,9.0,62.0,-24.0,59.0,-405.0,939.0
31.0,-98.0,225.0,10.0,63.0,-33.0,67.0,-409.0,935.0
32.0,-97.0,231.0,8.0,67.0,-32.0,77.0,-409.0,935.0
33.0,-96.0,224.0,3.0,76.0,-29.0,67.0,-406.0,931.0
33.0,-94.0,224.0,-3.0,84.0,-24.0,68.0,-408.0,931.0
32.0,-92.0,224.0,-9.0,93.0,-21.0,68.0,-411.0,933.0
26.0,-97.0,235.0,-13.0,99.0,-20.0,67.0,-411.0,938.0
31.0,-102.0,215.0,-12.0,104.0,-20.0,59.0,-414.0,929.0
27.0,-98.0,229.0,-8.0,103.0,-21.0,52.0,-420.0,942.0
25.0,-102.0,229.0,-2.0,98.0,-20.0,42.0,-424.0,942.0
25.0,-98.0,228.0,5.0,90.0,-20.0,41.0,-428.0,950.0
23.0,-102.0,227.0,15.0,82.0,-20.0,40.0,-421.0,940.0
23.0,-98.0,229.0,23.0,69.0,-20.0,46.0,-425.0,938.0
22.0,-97.0,227.0,32.0,57.0,-23.0,46.0,-418.0,941.0
25.0,-96.0,226.0,38.0,47.0,-21.0,45.0,-413.0,937.0
25.0,-97.0,227.0,41.0,38.0,-17.0,54.0,-406.0,934.0
25.0,-91.0,228.0,38.0,33.0,-15.0,45.0,-406.0,932.0
23.0,-95.0,223.0,33.0,29.0,-12.0,42.0,-410.0,933.0
24.0,-99.0,227.0,25.0,27.0,-8.0,41.0,-406.0,931.0
24.0,-97.0,228.0,16.0,21.0,-5.0,40.0,-416.0,938.0
24.0,-99.0,231.0,10.0,17.0,-3.0,38.0,-416.0,936.0
23.0,-98.0,227.0,6.0,12.0,-5.0,38.0,-422.0,938.0
26.0,-102.0,229.0,2.0,6.0,-5.0,37.0,-422.0,940.0
22.0,-98.0,227.0,5.0,0.0,-9.0,37.0,-425.0,938.0
22.0,-101.0,225.0,11.0,-6.0,-8.0,39.0,-426.0,936.0
25.0,-101.0,229.0,18.0,-10.0,-11.0,39.0,-431.0,935.0
23.0,-99.0,233.0,29.0,-13.0,-14.0,29.0,-431.0,951.0
22.0,-101.0,226.0,46.0,-13.0,-15.0,31.0,-431.0,930.0
20.0,-99.0,221.0,58.0,-13.0,-18.0,31.0,-420.0,927.0
25.0,-100.0,225.0,69.0,-14.0,-19.0,37.0,-421.0,927.0
24.0,-98.0,226.0,79.0,-12.0,-24.0,48.0,-415.0,932.0
26.0,-97.0,225.0,87.0,-10.0,-25.0,47.0,-414.0,933.0
27.0,-96.0,221.0,92.0,-1.0,-28.0,54.0,-408.0,928.0
29.0,-96.0,227.0,92.0,6.0,-28.0,55.0,-413.0,938.0
26.0,-96.0,228.0,88.0,15.0,-27.0,53.0,-408.0,933.0
29.0,-95.0,228.0,84.0,26.0,-23.0,53.0,-405.0,941.0
28.0,-98.0,227.0,77.0,36.0,-20.0,54.0,-403.0,940.0
27.0,-93.0,228.0,69.0,43.0,-18.0,54.0,-409.0,942.0
28.0,-97.0,230.0,60.0,45.0,-19.0,55.0,-404.0,937.0
29.0,-93.0,234.0,50.0,45.0,-17.0,50.0,-408.0,942.0
27.0,-94.0,229.0,42.0,42.0,-16.0,55.0,-405.0,951.0
25.0,-94.0,228.0,35.0,38.0,-14.0,51.0,-405.0,948.0
25.0,-94.0,229.0,31.0,30.0,-14.0,51.0,-410.0,946.0
26.0,-97.0,224.0,29.0,24.0,-14.0,50.0,-415.0,942.0
27.0,-97.0,229.0,30.0,21.0,-14.0,53.0,-417.0,942.0
26.0,-98.0,230.0,32.0,17.0,-13.0,48.0,-420.0,936.0
26.0,-99.0,223.0,34.0,14.0,-13.0,43.0,-414.0,934.0
26.0,-98.0,224.0,37.0,13.0,-12.0,44.0,-408.0,933.0
28.0,-97.0,232.0,38.0,12.0,-14.0,44.0,-416.0,945.0
28.0,-93.0,225.0,39.0,12.0,-13.0,44.0,-415.0,935.0
25.0,-99.0,229.0,39.0,11.0,-11.0,42.0,-411.0,941.0
25.0,-95.0,226.0,40.0,7.0,-11.0,40.0,-417.0,933.0
26.0,-98.0,229.0,41.0,3.0,-12.0,46.0,-419.0,939.0
25.0,-99.0,231.0,43.0,-2.0,-11.0,49.0,-428.0,938.0
23.0,-98.0,226.0,44.0,-5.0,-10.0,42.0,-417.0,936.0
24.0,-96.0,226.0,46.0,-8.0,-10.0,48.0,-418.0,935.0
25.0,-99.0,228.0,50.0,-10.0,-11.0,46.0,-419.0,933.0
24.0,-95.0,222.0,54.0,-10.0,-11.0,49.0,-419.0,933.0
27.0,-95.0,221.0,59.0,-9.0,-11.0,52.0,-411.0,933.0
25.0,-95.0,222.0,62.0,-7.0,-12.0,58.0,-412.0,930.0
28.0,-97.0,229.0,65.0,-4.0,-12.0,58.0,-409.0,932.0
30.0,-95.0,224.0,66.0,0.0,-10.0,60.0,-407.0,934.0
30.0,-95.0,224.0,68.0,4.0,-10.0,58.0,-407.0,930.0
29.0,-97.0,226.0,67.0,6.0,-10.0,58.0,-402.0,936.0
25.0,-92.0,226.0,64.0,6.0,-9.0,56.0,-407.0,934.0
29.0,-96.0,227.0,60.0,7.0,-9.0,49.0,-407.0,939.0
25.0,-93.0,225.0,56.0,5.0,-10.0,54.0,-407.0,929.0
31.0,-98.0,227.0,52.0,3.0,-9.0,56.0,-408.0,934.0
29.0,-100.0,228.0,45.0,0.0,-7.0,58.0,-411.0,948.0
27.0,-95.0,232.0,41.0,-2.0,-8.0,52.0,-412.0,938.0
29.0,-94.0,234.0,37.0,-5.0,-7.0,60.0,-411.0,939.0
31.0,-100.0,235.0,34.0,-4.0,-7.0,57.0,-412.0,937.0
26.0,-95.0,227.0,34.0,-4.0,-6.0,60.0,-416.0,931.0
30.0,-96.0,229.0,33.0,-2.0,-7.0,57.0,-414.0,936.0
29.0,-98.0,227.0,34.0,-2.0,-7.0,61.0,-418.0,933.0
28.0,-97.0,226.0,35.0,-2.0,-6.0,58.0,-415.0,936.0
29.0,-97.0,228.0,36.0,-1.0,-5.0,61.0,-419.0,937.0
28.0,-99.0,224.0,37.0,-1.0,-8.0,59.0,-417.0,937.0
28.0,-100.0,227.0,38.0,-4.0,-9.0,58.0,-414.0,934.0
30.0,-96.0,226.0,39.0,-6.0,-8.0,54.0,-412.0,943.0
27.0,-95.0,224.0,40.0,-8.0,-8.0,57.0,-412.0,934.0
22.0,-98.0,225.0,43.0,-10.0,-8.0,56.0,-417.0,933.0
25.0,-100.0,222.0,44.0,-13.0,-7.0,58.0,-419.0,933.0
31.0,-96.0,227.0,45.0,-13.0,-8.0,61.0,-422.0,928.0
28.0,-96.0,223.0,46.0,-12.0,-8.0,62.0,-412.0,936.0
28.0,-96.0,227.0,49.0,-8.0,-7.0,68.0,-418.0,936.0
32.0,-97.0,227.0,49.0,-4.0,-8.0,67.0,-418.0,933.0
31.0,-97.0,226.0,53.0,1.0,-7.0,61.0,-414.0,934.0
27.0,-97.0,226.0,55.0,5.0,-8.0,63.0,-409.0,942.0
26.0,-93.0,224.0,57.0,8.0,-9.0,59.0,-412.0,932.0
29.0,-96.0,225.0,58.0,10.0,-9.0,56.0,-415.0,936.0
25.0,-97.0,231.0,59.0,13.0,-11.0,60.0,-418.0,935.0
28.0,-96.0,228.0,58.0,13.0,-11.0,60.0,-416.0,936.0
29.0,-96.0,224.0,58.0,12.0,-11.0,58.0,-416.0,932.0
26.0,-96.0,225.0,58.0,11.0,-10.0,58.0,-419.0,929.0
28.0,-99.0,226.0,60.0,10.0,-11.0,62.0,-418.0,934.0
28.0,-95.0,224.0,62.0,9.0,-10.0,50.0,-422.0,937.0
30.0,-96.0,225.0,63.0,10.0,-11.0,54.0,-419.0,931.0
27.0,-100.0,227.0,66.0,11.0,-11.0,54.0,-421.0,926.0
26.0,-98.0,223.0,67.0,14.0,-13.0,52.0,-414.0,924.0
29.0,-97.0,226.0,67.0,15.0,-12.0,54.0,-414.0,933.0
28.0,-95.0,223.0,65.0,14.0,-11.0,58.0,-416.0,928.0
25.0,-97.0,225.0,62.0,15.0,-13.0,55.0,-419.0,935.0
27.0,-102.0,227.0,60.0,15.0,-11.0,59.0,-414.0,935.0
26.0,-98.0,231.0,58.0,13.0,-9.0,58.0,-412.0,936.0
28.0,-97.0,225.0,57.0,11.0,-9.0,58.0,-415.0,941.0
26.0,-97.0,226.0,57.0,7.0,-9.0,60.0,-418.0,940.0
28.0,-94.0,228.0,56.0,5.0,-8.0,61.0,-411.0,934.0
27.0,-97.0,224.0,57.0,4.0,-7.0,58.0,-414.0,940.0
28.0,-95.0,227.0,59.0,2.0,-8.0,60.0,-405.0,929.0
29.0,-97.0,224.0,62.0,6.0,-10.0,58.0,-413.0,937.0
29.0,-93.0,222.0,63.0,11.0,-12.0,58.0,-406.0,931.0
26.0,-90.0,224.0,66.0,16.0,-13.0,60.0,-403.0,936.0
24.0,-89.0,225.0,68.0,21.0,-15.0,59.0,-409.0,933.0
27.0,-92.0,225.0,67.0,24.0,-16.0,61.0,-399.0,938.0
26.0,-97.0,226.0,66.0,25.0,-18.0,61.0,-406.0,934.0
26.0,-93.0,227.0,62.0,26.0,-18.0,59.0,-405.0,937.0
28.0,-96.0,228.0,59.0,29.0,-19.0,57.0,-407.0,931.0
27.0,-94.0,225.0,54.0,30.0,-18.0,49.0,-409.0,934.0
28.0,-96.0,227.0,46.0,31.0,-17.0,50.0,-413.0,934.0
27.0,-100.0,227.0,39.0,36.0,-15.0,54.0,-412.0,940.0
29.0,-101.0,228.0,31.0,37.0,-14.0,53.0,-418.0,934.0
30.0,-95.0,225.0,24.0,39.0,-11.0,57.0,-429.0,948.0
24.0,-100.0,234.0,19.0,40.0,-8.0,55.0,-428.0,944.0
28.0,-99.0,229.0,20.0,40.0,-9.0,56.0,-426.0,938.0
29.0,-103.0,223.0,22.0,38.0,-9.0,56.0,-431.0,937.0
21.0,-104.0,224.0,32.0,36.0,-9.0,58.0,-431.0,935.0
29.0,-102.0,231.0,45.0,32.0,-12.0,55.0,-430.0,931.0
29.0,-100.0,223.0,59.0,30.0,-14.0,58.0,-431.0,938.0
28.0,-99.0,223.0,75.0,30.0,-17.0,55.0,-424.0,928.0
26.0,-98.0,225.0,90.0,29.0,-19.0,54.0,-427.0,923.0
26.0,-99.0,226.0,101.0,27.0,-21.0,48.0,-418.0,920.0
27.0,-96.0,225.0,113.0,26.0,-22.0,55.0,-411.0,923.0
26.0,-95.0,224.0,119.0,27.0,-22.0,54.0,-410.0,920.0
28.0,-94.0,224.0,120.0,29.0,-21.0,57.0,-404.0,923.0
28.0,-94.0,223.0,121.0,31.0,-19.0,55.0,-408.0,924.0
30.0,-96.0,225.0,115.0,33.0,-18.0,60.0,-403.0,929.0
30.0,-96.0,225.0,108.0,37.0,-15.0,59.0,-398.0,925.0
27.0,-93.0,224.0,98.0,42.0,-14.0,60.0,-403.0,930.0
29.0,-91.0,224.0,83.0,46.0,-14.0,62.0,-403.0,933.0
28.0,-91.0,227.0,71.0,49.0,-13.0,64.0,-402.0,939.0
28.0,-93.0,227.0,56.0,50.0,-15.0,63.0,-400.0,939.0
31.0,-95.0,224.0,46.0,50.0,-15.0,66.0,-401.0,936.0
29.0,-93.0,232.0,34.0,48.0,-17.0,59.0,-406.0,949.0
28.0,-96.0,228.0,27.0,45.0,-17.0,61.0,-408.0,949.0
25.0,-94.0,230.0,22.0,39.0,-18.0,60.0,-409.0,956.0
25.0,-94.0,229.0,21.0,33.0,-18.0,57.0,-409.0,955.0
17.0,-96.0,231.0,20.0,27.0,-20.0,51.0,-417.0,949.0
26.0,-99.0,229.0,21.0,24.0,-18.0,48.0,-415.0,949.0
22.0,-96.0,226.0,21.0,20.0,-19.0,50.0,-415.0,941.0
25.0,-98.0,226.0,22.0,18.0,-17.0,48.0,-417.0,937.0
24.0,-97.0,226.0,24.0,15.0,-17.0,41.0,-416.0,946.0
24.0,-98.0,227.0,24.0,14.0,-16.0,38.0,-422.0,942.0
23.0,-98.0,226.0,25.0,13.0,-17.0,40.0,-417.0,945.0
23.0,-101.0,230.0,27.0,13.0,-15.0,41.0,-420.0,935.0
24.0,-98.0,232.0,30.0,12.0,-12.0,37.0,-418.0,937.0
23.0,-98.0,231.0,32.0,9.0,-12.0,36.0,-418.0,944.0
25.0,-99.0,227.0,33.0,8.0,-10.0,36.0,-419.0,939.0
24.0,-99.0,233.0,36.0,7.0,-9.0,36.0,-411.0,930.0
23.0,-98.0,222.0,40.0,5.0,-8.0,45.0,-413.0,933.0
25.0,-97.0,227.0,44.0,7.0,-6.0,40.0,-419.0,933.0
23.0,-97.0,223.0,47.0,8.0,-7.0,44.0,-416.0,934.0
27.0,-95.0,228.0,52.0,9.0,-7.0,46.0,-412.0,930.0
26.0,-96.0,223.0,56.0,12.0,-8.0,50.0,-409.0,931.0
26.0,-95.0,226.0,58.0,13.0,-7.0,49.0,-418.0,932.0
27.0,-94.0,225.0,61.0,14.0,-7.0,42.0,-406.0,934.0
25.0,-97.0,227.0,61.0,15.0,-8.0,41.0,-409.0,937.0
22.0,-99.0,225.0,61.0,13.0,-8.0,42.0,-406.0,935.0
25.0,-94.0,221.0,57.0,11.0,-5.0,44.0,-412.0,930.0
22.0,-96.0,224.0,54.0,9.0,-7.0,53.0,-411.0,933.0
27.0,-94.0,224.0,52.0,8.0,-6.0,45.0,-408.0,933.0
25.0,-94.0,228.0,46.0,9.0,-6.0,50.0,-412.0,934.0
27.0,-96.0,226.0,42.0,11.0,-6.0,52.0,-407.0,935.0
26.0,-95.0,226.0,36.0,12.0,-4.0,51.0,-410.0,938.0
24.0,-95.0,228.0,31.0,13.0,-5.0,46.0,-409.0,940.0
25.0,-95.0,231.0,23.0,12.0,-6.0,50.0,-414.0,934.0
25.0,-98.0,224.0,18.0,11.0,-4.0,53.0,-412.0,938.0
28.0,-98.0,224.0,16.0,8.0,-4.0,50.0,-416.0,954.0
27.0,-97.0,226.0,12.0,4.0,-3.0,43.0,-420.0,938.0
24.0,-98.0,226.0,13.0,-1.0,-4.0,45.0,-426.0,939.0
23.0,-101.0,231.0,17.0,-6.0,-7.0,44.0,-422.0,941.0
26.0,-102.0,226.0,25.0,-8.0,-7.0,45.0,-431.0,936.0
23.0,-102.0,229.0,35.0,-13.0,-10.0,39.0,-429.0,932.0
23.0,-99.0,230.0,48.0,-15.0,-12.0,39.0,-427.0,935.0
21.0,-100.0,224.0,60.0,-16.0,-14.0,43.0,-426.0,931.0
25.0,-99.0,225.0,69.0,-15.0,-15.0,43.0,-426.0,927.0
27.0,-98.0,226.0,75.0,-12.0,-15.0,46.0,-423.0,925.0
28.0,-98.0,225.0,80.0,-7.0,-15.0,51.0,-422.0,929.0
30.0,-98.0,227.0,83.0,-1.0,-18.0,50.0,-411.0,933.0
27.0,-98.0,228.0,82.0,4.0,-17.0,55.0,-409.0,931.0
27.0,-94.0,227.0,79.0,10.0,-17.0,56.0,-411.0,933.0
25.0,-97.0,226.0,76.0,13.0,-15.0,61.0,-406.0,931.0
28.0,-94.0,227.0,70.0,14.0,-15.0,58.0,-406.0,932.0
29.0,-94.0,227.0,64.0,15.0,-13.0,59.0,-408.0,934.0
28.0,-95.0,227.0,58.0,16.0,-10.0,60.0,-406.0,938.0
30.0,-99.0,229.0,54.0,15.0,-9.0,64.0,-409.0,931.0
30.0,-93.0,227.0,52.0,15.0,-7.0,59.0,-414.0,931.0
28.0,-95.0,222.0,50.0,15.0,-8.0,60.0,-411.0,933.0
29.0,-96.0,226.0,49.0,16.0,-8.0,62.0,-411.0,936.0
29.0,-100.0,230.0,52.0,15.0,-7.0,59.0,-412.0,939.0
27.0,-99.0,226.0,52.0,15.0,-9.0,57.0,-410.0,938.0
28.0,-96.0,228.0,54.0,13.0,-11.0,56.0,-408.0,934.0
26.0,-98.0,225.0,53.0,12.0,-13.0,58.0,-412.0,936.0
27.0,-99.0,227.0,53.0,11.0,-13.0,54.0,-418.0,935.0
27.0,-96.0,223.0,53.0,8.0,-15.0,54.0,-414.0,935.0
27.0,-96.0,228.0,52.0,6.0,-14.0,57.0,-416.0,933.0
29.0,-97.0,228.0,54.0,5.0,-14.0,55.0,-420.0,937.0
29.0,-96.0,229.0,53.0,4.0,-13.0,57.0,-417.0,942.0
24.0,-97.0,229.0,54.0,2.0,-14.0,60.0,-413.0,937.0
25.0,-97.0,227.0,54.0,1.0,-15.0,64.0,-415.0,934.0
27.0,-99.0,226.0,56.0,3.0,-15.0,60.0,-410.0,936.0
30.0,-97.0,228.0,56.0,4.0,-14.0,66.0,-411.0,934.0
27.0,-98.0,225.0,59.0,5.0,-15.0,60.0,-409.0,932.0
32.0,-97.0,221.0,60.0,8.0,-15.0,63.0,-411.0,930.0
28.0,-98.0,232.0,62.0,11.0,-16.0,60.0,-410.0,939.0
26.0,-95.0,225.0,64.0,12.0,-15.0,58.0,-411.0,929.0
30.0,-95.0,228.0,65.0,15.0,-15.0,61.0,-405.0,932.0
31.0,-95.0,228.0,64.0,16.0,-14.0,61.0,-410.0,931.0
30.0,-95.0,225.0,65.0,17.0,-13.0,66.0,-407.0,933.0
27.0,-96.0,228.0,63.0,19.0,-11.0,60.0,-407.0,934.0
28.0,-96.0,229.0,61.0,18.0,-11.0,54.0,-408.0,934.0
32.0,-100.0,227.0,60.0,20.0,-11.0,58.0,-405.0,929.0
29.0,-96.0,227.0,55.0,21.0,-10.0,58.0,-403.0,933.0
30.0,-97.0,226.0,54.0,20.0,-8.0,58.0,-410.0,928.0
24.0,-91.0,229.0,49.0,21.0,-9.0,57.0,-405.0,935.0
23.0,-96.0,228.0,46.0,20.0,-8.0,53.0,-413.0,934.0
26.0,-96.0,227.0,44.0,19.0,-6.0,55.0,-415.0,941.0
27.0,-99.0,227.0,40.0,16.0,-7.0,58.0,-413.0,936.0
26.0,-95.0,231.0,37.0,11.0,-8.0,57.0,-415.0,937.0
27.0,-100.0,226.0,35.0,9.0,-8.0,54.0,-414.0,942.0
27.0,-98.0,228.0,35.0,4.0,-9.0,56.0,-413.0,938.0
22.0,-95.0,228.0,38.0,-1.0,-10.0,49.0,-419.0,936.0
26.0,-95.0,229.0,40.0,-2.0,-10.0,51.0,-416.0,933.0
29.0,-98.0,225.0,42.0,-4.0,-11.0,46.0,-420.0,938.0
28.0,-96.0,228.0,47.0,-7.0,-15.0,61.0,-411.0,936.0
28.0,-98.0,221.0,48.0,-3.0,-8.0,60.0,-417.0,939.0
31.0,-96.0,227.0,48.0,4.0,-7.0,66.0,-420.0,933.0
27.0,-97.0,230.0,48.0,10.0,-6.0,56.0,-421.0,934.0
29.0,-98.0,225.0,48.0,14.0,-7.0,65.0,-416.0,937.0
28.0,-97.0,227.0,48.0,17.0,-8.0,60.0,-411.0,933.0
33.0,-98.0,225.0,49.0,20.0,-8.0,59.0,-415.0,932.0
30.0,-93.0,226.0,49.0,20.0,-7.0,59.0,-412.0,935.0
29.0,-99.0,223.0,48.0,19.0,-9.0,59.0,-418.0,935.0
26.0,-96.0,226.0,48.0,17.0,-9.0,55.0,-410.0,936.0
25.0,-96.0,224.0,48.0,17.0,-9.0,57.0,-419.0,935.0
23.0,-94.0,221.0,46.0,17.0,-10.0,52.0,-420.0,934.0
25.0,-98.0,229.0,45.0,15.0,-9.0,54.0,-410.0,934.0
23.0,-96.0,227.0,43.0,14.0,-10.0,54.0,-415.0,924.0
26.0,-100.0,231.0,41.0,13.0,-10.0,53.0,-414.0,933.0
25.0,-98.0,231.0,39.0,12.0,-9.0,55.0,-418.0,934.0
27.0,-98.0,230.0,37.0,11.0,-10.0,52.0,-413.0,941.0
24.0,-99.0,225.0,37.0,10.0,-8.0,51.0,-417.0,940.0
26.0,-99.0,228.0,38.0,11.0,-8.0,49.0,-424.0,941.0
27.0,-95.0,225.0,42.0,12.0,-11.0,55.0,-420.0,938.0
31.0,-102.0,230.0,46.0,13.0,-12.0,52.0,-419.0,940.0
27.0,-100.0,225.0,53.0,15.0,-12.0,59.0,-424.0,937.0
26.0,-97.0,225.0,58.0,17.0,-14.0,54.0,-418.0,940.0
26.0,-100.0,228.0,65.0,17.0,-16.0,49.0,-409.0,937.0
28.0,-97.0,226.0,69.0,17.0,-17.0,55.0,-408.0,939.0
27.0,-96.0,228.0,73.0,16.0,-17.0,49.0,-416.0,928.0
26.0,-98.0,225.0,75.0,15.0,-17.0,47.0,-414.0,931.0
25.0,-95.0,229.0,74.0,15.0,-17.0,55.0,-414.0,933.0
26.0,-96.0,226.0,73.0,13.0,-19.0,48.0,-409.0,930.0
29.0,-96.0,228.0,69.0,12.0,-16.0,46.0,-411.0,931.0
31.0,-98.0,223.0,64.0,13.0,-17.0,52.0,-413.0,932.0
26.0,-93.0,226.0,58.0,15.0,-17.0,48.0,-408.0,934.0
25.0,-96.0,228.0,52.0,19.0,-16.0,50.0,-414.0,938.0
26.0,-99.0,226.0,46.0,23.0,-15.0,53.0,-417.0,931.0
28.0,-94.0,228.0,40.0,27.0,-16.0,58.0,-415.0,934.0
27.0,-96.0,226.0,35.0,28.0,-14.0,61.0,-414.0,940.0
29.0,-99.0,232.0,31.0,31.0,-11.0,58.0,-419.0,948.0
29.0,-96.0,231.0,26.0,29.0,-13.0,61.0,-417.0,944.0
29.0,-96.0,229.0,23.0,28.0,-11.0,61.0,-414.0,940.0
30.0,-98.0,221.0,24.0,28.0,-12.0,54.0,-412.0,940.0
27.0,-94.0,227.0,24.0,27.0,-11.0,56.0,-413.0,938.0
28.0,-95.0,228.0,25.0,26.0,-9.0,55.0,-416.0,951.0
27.0,-95.0,230.0,26.0,24.0,-12.0,54.0,-419.0,939.0
27.0,-96.0,226.0,29.0,23.0,-12.0,57.0,-409.0,936.0
26.0,-95.0,227.0,31.0,21.0,-15.0,52.0,-412.0,937.0
26.0,-94.0,224.0,31.0,19.0,-14.0,48.0,-409.0,932.0
27.0,-95.0,225.0,31.0,20.0,-14.0,56.0,-413.0,930.0
26.0,-95.0,227.0,30.0,20.0,-15.0,59.0,-410.0,931.0
