acc1_x,acc1_y,acc1_z,gyro_x,gyro_y,gyro_z,acc2_x,acc2_y,acc2_z
-8.0,-231.0,-109.0,-25.0,61.0,-8.0,-11.0,-871.0,-509.0
-8.0,-234.0,-112.0,-23.0,61.0,-8.0,-12.0,-873.0,-512.0
-8.0,-231.0,-113.0,-21.0,60.0,-9.0,-9.0,-874.0,-512.0
-4.0,-233.0,-111.0,-20.0,58.0,-7.0,-11.0,-871.0,-512.0
-4.0,-231.0,-112.0,-20.0,59.0,-9.0,-11.0,-875.0,-519.0
-7.0,-231.0,-112.0,-21.0,59.0,-9.0,-14.0,-873.0,-512.0
-2.0,-232.0,-112.0,-20.0,58.0,-9.0,-7.0,-869.0,-516.0
-5.0,-234.0,-113.0,-23.0,60.0,-10.0,-8.0,-870.0,-511.0
-5.0,-232.0,-112.0,-25.0,61.0,-9.0,-7.0,-870.0,-514.0
-2.0,-233.0,-107.0,-26.0,61.0,-10.0,-9.0,-871.0,-512.0
-5.0,-234.0,-112.0,-26.0,61.0,-9.0,-10.0,-873.0,-511.0
-1.0,-233.0,-115.0,-28.0,63.0,-10.0,-6.0,-874.0,-512.0
-4.0,-233.0,-108.0,-26.0,64.0,-10.0,-9.0,-878.0,-514.0
-6.0,-233.0,-109.0,-25.0,65.0,-9.0,-3.0,-878.0,-513.0
-5.0,-233.0,-110.0,-23.0,66.0,-7.0,-2.0,-874.0,-513.0
-5.0,-231.0,-112.0,-20.0,66.0,-7.0,-5.0,-878.0,-514.0
-4.0,-229.0,-112.0,-19.0,65.0,-6.0,-3.0,-873.0,-511.0
-2.0,-231.0,-111.0,-18.0,65.0,-6.0,-2.0,-873.0,-510.0
-3.0,-232.0,-112.0,-17.0,66.0,-8.0,-5.0,-871.0,-514.0
-5.0,-231.0,-108.0,-16.0,65.0,-5.0,-2.0,-873.0,-515.0
0.0,-229.0,-109.0,-17.0,66.0,-6.0,-4.0,-870.0,-514.0
-6.0,-233.0,-112.0,-18.0,66.0,-6.0,-5.0,-867.0,-514.0
-5.0,-231.0,-113.0,-18.0,65.0,-7.0,-6.0,-872.0,-512.0
-5.0,-231.0,-108.0,-21.0,66.0,-7.0,-10.0,-870.0,-512.0
-4.0,-229.0,-112.0,-22.0,65.0,-7.0,-4.0,-864.0,-510.0
-6.0,-228.0,-113.0,-24.0,66.0,-6.0,-7.0,-871.0,-518.0
-4.0,-230.0,-110.0,-26.0,66.0,-6.0,-5.0,-867.0,-515.0
-7.0,-228.0,-111.0,-25.0,67.0,-7.0,-13.0,-870.0,-512.0
-5.0,-230.0,-109.0,-25.0,67.0,-8.0,-5.0,-869.0,-514.0
-7.0,-228.0,-110.0,-24.0,65.0,-7.0,-5.0,-870.0,-518.0
-6.0,-232.0,-114.0,-22.0,65.0,-7.0,-12.0,-869.0,-512.0
-5.0,-233.0,-112.0,-21.0,65.0,-7.0,-10.0,-867.0,-515.0
-7.0,-231.0,-111.0,-20.0,65.0,-6.0,-10.0,-872.0,-519.0
-2.0,-233.0,-112.0,-17.0,65.0,-7.0,-8.0,-870.0,-517.0
-6.0,-233.0,-114.0,-18.0,67.0,-6.0,-13.0,-871.0,-517.0
-6.0,-230.0,-110.0,-17.0,67.0,-5.0,-11.0,-867.0,-513.0
-4.0,-232.0,-111.0,-18.0,65.0,-4.0,-8.0,-870.0,-516.0
-6.0,-230.0,-114.0,-17.0,67.0,-6.0,-8.0,-867.0,-517.0
-5.0,-230.0,-112.0,-19.0,68.0,-6.0,-6.0,-863.0,-520.0
-3.0,-231.0,-111.0,-19.0,67.0,-4.0,-9.0,-869.0,-512.0
-2.0,-231.0,-111.0,-18.0,66.0,-5.0,-5.0,-866.0,-523.0
-3.0,-232.0,-111.0,-19.0,65.0,-7.0,-1.0,-869.0,-520.0
-6.0,-231.0,-111.0,-20.0,67.0,-8.0,0.0,-866.0,-520.0
-7.0,-228.0,-111.0,-19.0,68.0,-8.0,-4.0,-863.0,-518.0
-2.0,-232.0,-110.0,-17.0,68.0,-7.0,-4.0,-865.0,-519.0
-4.0,-228.0,-113.0,-19.0,69.0,-7.0,-4.0,-858.0,-520.0
-5.0,-230.0,-111.0,-18.0,69.0,-9.0,-3.0,-867.0,-518.0
-6.0,-227.0,-112.0,-19.0,70.0,-9.0,-2.0,-865.0,-521.0
-6.0,-230.0,-111.0,-19.0,72.0,-8.0,-6.0,-862.0,-516.0
-4.0,-231.0,-111.0,-18.0,70.0,-10.0,-8.0,-864.0,-513.0
-4.0,-231.0,-109.0,-19.0,69.0,-10.0,-9.0,-863.0,-513.0
-4.0,-231.0,-112.0,-19.0,71.0,-10.0,-10.0,-869.0,-518.0
-2.0,-232.0,-114.0,-19.0,70.0,-9.0,-8.0,-871.0,-515.0
-5.0,-230.0,-110.0,-20.0,71.0,-11.0,-9.0,-868.0,-517.0
-6.0,-227.0,-112.0,-19.0,72.0,-9.0,-7.0,-868.0,-516.0
-3.0,-232.0,-112.0,-21.0,74.0,-7.0,-7.0,-862.0,-518.0
-4.0,-235.0,-114.0,-21.0,74.0,-7.0,-5.0,-870.0,-519.0
-5.0,-229.0,-111.0,-21.0,73.0,-4.0,-2.0,-871.0,-511.0
-1.0,-229.0,-108.0,-20.0,72.0,-5.0,0.0,-867.0,-518.0
-1.0,-230.0,-109.0,-20.0,72.0,-3.0,-3.0,-867.0,-518.0
-1.0,-233.0,-113.0,-19.0,71.0,-6.0,-4.0,-869.0,-517.0
-1.0,-230.0,-114.0,-20.0,70.0,-6.0,-3.0,-871.0,-523.0
-4.0,-231.0,-112.0,-18.0,71.0,-6.0,-2.0,-867.0,-523.0
-2.0,-231.0,-115.0,-16.0,70.0,-6.0,0.0,-870.0,-519.0
-6.0,-231.0,-112.0,-14.0,68.0,-8.0,-5.0,-867.0,-518.0
-6.0,-230.0,-110.0,-12.0,68.0,-7.0,-7.0,-863.0,-522.0
-6.0,-227.0,-113.0,-10.0,69.0,-7.0,0.0,-859.0,-515.0
-3.0,-227.0,-111.0,-8.0,72.0,-7.0,-6.0,-862.0,-516.0
-4.0,-229.0,-109.0,-8.0,73.0,-7.0,2.0,-867.0,-515.0
-7.0,-225.0,-111.0,-10.0,74.0,-7.0,-3.0,-860.0,-514.0
-6.0,-225.0,-113.0,-11.0,74.0,-5.0,-11.0,-860.0,-511.0
-4.0,-229.0,-111.0,-13.0,74.0,-5.0,-2.0,-863.0,-513.0
-2.0,-230.0,-114.0,-13.0,77.0,-5.0,-7.0,-866.0,-511.0
-2.0,-230.0,-113.0,-14.0,77.0,-5.0,-8.0,-861.0,-515.0
-4.0,-228.0,-113.0,-12.0,78.0,-5.0,-2.0,-867.0,-518.0
-5.0,-232.0,-109.0,-13.0,79.0,-4.0,-5.0,-867.0,-517.0
-5.0,-233.0,-109.0,-14.0,78.0,-4.0,-4.0,-870.0,-519.0
-3.0,-232.0,-107.0,-13.0,80.0,-4.0,-2.0,-867.0,-519.0
-4.0,-232.0,-115.0,-13.0,78.0,-4.0,1.0,-868.0,-516.0
-5.0,-232.0,-110.0,-12.0,80.0,-5.0,-3.0,-874.0,-520.0
-5.0,-229.0,-112.0,-12.0,80.0,-4.0,-6.0,-870.0,-517.0
-1.0,-230.0,-112.0,-10.0,78.0,-5.0,-9.0,-870.0,-522.0
-5.0,-231.0,-113.0,-8.0,79.0,-4.0,-1.0,-873.0,-520.0
-6.0,-233.0,-113.0,-6.0,79.0,-4.0,-9.0,-872.0,-514.0
-7.0,-231.0,-110.0,-4.0,79.0,-4.0,-9.0,-869.0,-517.0
-5.0,-230.0,-113.0,-2.0,79.0,-4.0,-11.0,-867.0,-511.0
-8.0,-230.0,-112.0,0.0,78.0,-5.0,-9.0,-869.0,-518.0
-4.0,-229.0,-113.0,0.0,79.0,-4.0,-7.0,-869.0,-512.0
-3.0,-231.0,-109.0,-1.0,81.0,-3.0,-12.0,-862.0,-519.0
-3.0,-230.0,-110.0,-3.0,79.0,-3.0,-10.0,-866.0,-510.0
-5.0,-230.0,-108.0,-3.0,81.0,-2.0,-7.0,-866.0,-515.0
-5.0,-230.0,-111.0,-6.0,82.0,-2.0,-9.0,-866.0,-512.0
-2.0,-231.0,-113.0,-7.0,82.0,-1.0,-4.0,-861.0,-518.0
-7.0,-228.0,-116.0,-9.0,81.0,0.0,1.0,-866.0,-515.0
-3.0,-231.0,-108.0,-9.0,81.0,2.0,-5.0,-868.0,-517.0
-2.0,-231.0,-110.0,-10.0,81.0,-1.0,0.0,-866.0,-510.0
-5.0,-230.0,-111.0,-10.0,81.0,0.0,-6.0,-867.0,-511.0
-4.0,-230.0,-112.0,-10.0,83.0,0.0,-8.0,-867.0,-513.0
-1.0,-232.0,-113.0,-8.0,83.0,0.0,-8.0,-871.0,-511.0
-2.0,-231.0,-112.0,-7.0,80.0,0.0,0.0,-870.0,-516.0
-1.0,-232.0,-110.0,-6.0,82.0,0.0,-7.0,-867.0,-512.0
-1.0,-232.0,-113.0,-6.0,83.0,0.0,-9.0,-868.0,-514.0
-5.0,-230.0,-110.0,-6.0,83.0,0.0,-2.0,-866.0,-509.0
-2.0,-233.0,-110.0,-4.0,85.0,1.0,-4.0,-872.0,-512.0
-2.0,-229.0,-111.0,-5.0,87.0,1.0,-1.0,-869.0,-511.0
-3.0,-232.0,-111.0,-4.0,86.0,2.0,0.0,-874.0,-510.0
-2.0,-232.0,-114.0,-3.0,88.0,2.0,0.0,-870.0,-513.0
-4.0,-233.0,-110.0,-3.0,88.0,1.0,2.0,-874.0,-511.0
-5.0,-231.0,-108.0,-1.0,90.0,4.0,-5.0,-870.0,-510.0
-4.0,-229.0,-112.0,-1.0,88.0,3.0,-4.0,-868.0,-514.0
-3.0,-229.0,-112.0,-1.0,87.0,4.0,-2.0,-867.0,-512.0
0.0,-230.0,-111.0,-1.0,89.0,6.0,-5.0,-869.0,-512.0
-2.0,-232.0,-111.0,0.0,88.0,7.0,-4.0,-873.0,-519.0
-4.0,-228.0,-110.0,1.0,85.0,8.0,-2.0,-872.0,-512.0
-5.0,-228.0,-108.0,1.0,86.0,8.0,-2.0,-872.0,-519.0
-3.0,-230.0,-111.0,1.0,86.0,7.0,-3.0,-869.0,-514.0
-5.0,-233.0,-111.0,1.0,87.0,8.0,-7.0,-869.0,-513.0
-3.0,-234.0,-111.0,1.0,86.0,9.0,-6.0,-873.0,-515.0
-5.0,-231.0,-110.0,2.0,83.0,8.0,-6.0,-869.0,-514.0
-6.0,-230.0,-113.0,1.0,85.0,7.0,1.0,-868.0,-515.0
-4.0,-228.0,-108.0,1.0,84.0,7.0,-10.0,-869.0,-517.0
-4.0,-231.0,-111.0,-1.0,84.0,6.0,-6.0,-867.0,-511.0
-2.0,-230.0,-110.0,-2.0,84.0,5.0,-6.0,-868.0,-518.0
-7.0,-230.0,-116.0,-4.0,83.0,6.0,-4.0,-868.0,-510.0
-3.0,-229.0,-110.0,-4.0,84.0,5.0,-3.0,-869.0,-513.0
-3.0,-232.0,-113.0,-5.0,86.0,6.0,-4.0,-873.0,-520.0
-2.0,-229.0,-113.0,-5.0,86.0,6.0,-4.0,-870.0,-513.0
-4.0,-229.0,-114.0,-5.0,85.0,5.0,-4.0,-869.0,-514.0
-2.0,-229.0,-111.0,-4.0,84.0,7.0,-9.0,-867.0,-512.0
-6.0,-232.0,-113.0,-5.0,83.0,7.0,-4.0,-866.0,-513.0
-6.0,-229.0,-114.0,-5.0,82.0,6.0,-6.0,-873.0,-512.0
-2.0,-231.0,-111.0,-3.0,81.0,5.0,-3.0,-869.0,-512.0
-4.0,-228.0,-110.0,-4.0,80.0,4.0,-5.0,-865.0,-514.0
-2.0,-229.0,-111.0,-4.0,79.0,5.0,-6.0,-866.0,-512.0
-3.0,-230.0,-107.0,-5.0,80.0,4.0,-5.0,-866.0,-506.0
-8.0,-230.0,-110.0,-5.0,80.0,4.0,-4.0,-872.0,-510.0
-4.0,-230.0,-108.0,-8.0,78.0,4.0,-4.0,-872.0,-512.0
-8.0,-233.0,-113.0,-9.0,76.0,2.0,-5.0,-872.0,-510.0
-2.0,-232.0,-111.0,-10.0,75.0,2.0,-3.0,-871.0,-513.0
-4.0,-231.0,-113.0,-12.0,76.0,2.0,-7.0,-871.0,-509.0
-4.0,-231.0,-111.0,-13.0,73.0,2.0,-4.0,-875.0,-511.0
-3.0,-233.0,-113.0,-12.0,73.0,0.0,-7.0,-875.0,-510.0
-4.0,-232.0,-110.0,-13.0,72.0,-2.0,-4.0,-877.0,-509.0
-4.0,-234.0,-111.0,-13.0,71.0,-1.0,-7.0,-872.0,-513.0
-3.0,-235.0,-115.0,-12.0,70.0,-2.0,-6.0,-876.0,-514.0
-4.0,-233.0,-113.0,-11.0,71.0,-1.0,-5.0,-878.0,-514.0
-3.0,-233.0,-110.0,-10.0,70.0,-2.0,-2.0,-884.0,-512.0
-2.0,-234.0,-109.0,-8.0,70.0,-2.0,2.0,-877.0,-511.0
-5.0,-234.0,-110.0,-6.0,68.0,-2.0,4.0,-881.0,-510.0
-6.0,-233.0,-112.0,-4.0,66.0,-3.0,1.0,-881.0,-512.0
-4.0,-232.0,-108.0,-1.0,66.0,-4.0,-3.0,-878.0,-515.0
-3.0,-232.0,-112.0,-2.0,65.0,-2.0,-5.0,-877.0,-509.0
-2.0,-232.0,-113.0,-3.0,65.0,-3.0,-1.0,-879.0,-510.0
-3.0,-233.0,-111.0,-2.0,65.0,-5.0,0.0,-873.0,-514.0
-4.0,-229.0,-113.0,1.0,67.0,-4.0,4.0,-870.0,-510.0
-6.0,-229.0,-109.0,0.0,67.0,-5.0,1.0,-873.0,-513.0
-2.0,-231.0,-109.0,0.0,65.0,-5.0,2.0,-868.0,-507.0
-4.0,-232.0,-112.0,1.0,67.0,-7.0,-5.0,-872.0,-512.0
-3.0,-232.0,-109.0,-2.0,67.0,-10.0,4.0,-864.0,-510.0
-3.0,-231.0,-112.0,-2.0,68.0,-9.0,-2.0,-866.0,-510.0
-2.0,-233.0,-112.0,-4.0,69.0,-10.0,-3.0,-864.0,-509.0
-2.0,-231.0,-110.0,-5.0,68.0,-9.0,3.0,-865.0,-513.0
-3.0,-231.0,-109.0,-7.0,67.0,-8.0,-2.0,-870.0,-511.0
-4.0,-231.0,-113.0,-8.0,68.0,-9.0,1.0,-865.0,-511.0
-2.0,-230.0,-110.0,-8.0,67.0,-7.0,-3.0,-874.0,-511.0
-5.0,-232.0,-110.0,-8.0,67.0,-7.0,-2.0,-869.0,-510.0
-6.0,-230.0,-110.0,-8.0,67.0,-7.0,2.0,-870.0,-509.0
-4.0,-233.0,-108.0,-9.0,65.0,-8.0,0.0,-872.0,-514.0
-6.0,-231.0,-111.0,-8.0,65.0,-8.0,-7.0,-869.0,-508.0
-2.0,-232.0,-109.0,-9.0,65.0,-7.0,-7.0,-873.0,-509.0
-5.0,-230.0,-108.0,-9.0,64.0,-5.0,-7.0,-869.0,-510.0
-6.0,-232.0,-112.0,-10.0,64.0,-6.0,-4.0,-872.0,-511.0
-2.0,-232.0,-109.0,-9.0,63.0,-6.0,-5.0,-871.0,-509.0
-3.0,-234.0,-109.0,-10.0,62.0,-7.0,0.0,-874.0,-512.0
-2.0,-233.0,-110.0,-10.0,62.0,-6.0,-4.0,-871.0,-507.0
-5.0,-231.0,-109.0,-12.0,62.0,-6.0,-6.0,-872.0,-511.0
-3.0,-234.0,-112.0,-11.0,61.0,-5.0,-1.0,-876.0,-511.0
-7.0,-232.0,-110.0,-11.0,60.0,-5.0,-1.0,-873.0,-513.0
-3.0,-233.0,-110.0,-10.0,60.0,-7.0,-5.0,-874.0,-506.0
-3.0,-232.0,-111.0,-9.0,59.0,-7.0,-2.0,-872.0,-513.0
-7.0,-232.0,-112.0,-8.0,59.0,-5.0,-5.0,-872.0,-515.0
-3.0,-233.0,-110.0,-5.0,59.0,-8.0,-3.0,-878.0,-512.0
-6.0,-234.0,-108.0,-5.0,58.0,-7.0,-4.0,-874.0,-515.0
-6.0,-229.0,-113.0,-4.0,59.0,-6.0,-3.0,-872.0,-514.0
-3.0,-231.0,-111.0,-6.0,58.0,-7.0,-7.0,-874.0,-510.0
-1.0,-233.0,-114.0,-6.0,60.0,-6.0,-10.0,-870.0,-513.0
-1.0,-231.0,-112.0,-7.0,60.0,-6.0,-3.0,-869.0,-512.0
-3.0,-232.0,-110.0,-6.0,60.0,-7.0,-2.0,-867.0,-507.0
-4.0,-230.0,-113.0,-8.0,62.0,-6.0,0.0,-865.0,-511.0
-4.0,-226.0,-112.0,-6.0,62.0,-7.0,1.0,-870.0,-508.0
-2.0,-232.0,-113.0,-6.0,62.0,-6.0,0.0,-866.0,-511.0
-4.0,-230.0,-113.0,-8.0,65.0,-6.0,-3.0,-870.0,-508.0
-5.0,-232.0,-106.0,-9.0,64.0,-7.0,-3.0,-863.0,-506.0
-4.0,-230.0,-109.0,-10.0,66.0,-8.0,-2.0,-865.0,-506.0
-4.0,-230.0,-109.0,-13.0,65.0,-7.0,-2.0,-864.0,-508.0
-2.0,-229.0,-109.0,-15.0,64.0,-7.0,-4.0,-869.0,-506.0
-6.0,-229.0,-110.0,-20.0,65.0,-6.0,-2.0,-870.0,-505.0
-2.0,-232.0,-112.0,-24.0,65.0,-6.0,-2.0,-872.0,-511.0
-4.0,-231.0,-111.0,-29.0,67.0,-7.0,-6.0,-869.0,-513.0
-4.0,-235.0,-111.0,-30.0,67.0,-7.0,-6.0,-874.0,-511.0
-3.0,-233.0,-110.0,-31.0,68.0,-5.0,-6.0,-870.0,-511.0
-3.0,-232.0,-113.0,-30.0,69.0,-6.0,-2.0,-868.0,-515.0
-1.0,-226.0,-115.0,-28.0,69.0,-6.0,-3.0,-871.0,-510.0
-6.0,-230.0,-109.0,-27.0,68.0,-5.0,0.0,-869.0,-514.0
-4.0,-233.0,-113.0,-23.0,67.0,-5.0,1.0,-870.0,-513.0
-4.0,-230.0,-111.0,-22.0,67.0,-6.0,1.0,-874.0,-510.0
-1.0,-232.0,-111.0,-19.0,68.0,-3.0,2.0,-875.0,-514.0
-3.0,-232.0,-113.0,-16.0,68.0,-3.0,4.0,-872.0,-509.0
-7.0,-231.0,-111.0,-14.0,69.0,-4.0,-3.0,-878.0,-514.0
0.0,-232.0,-111.0,-12.0,70.0,-2.0,3.0,-876.0,-512.0
-2.0,-228.0,-112.0,-11.0,70.0,-2.0,3.0,-875.0,-514.0
-2.0,-230.0,-109.0,-10.0,73.0,-2.0,5.0,-871.0,-512.0
-3.0,-228.0,-110.0,-9.0,73.0,-2.0,0.0,-869.0,-512.0
0.0,-233.0,-108.0,-9.0,75.0,-1.0,1.0,-871.0,-510.0
-2.0,-230.0,-111.0,-6.0,75.0,-1.0,3.0,-868.0,-514.0
-3.0,-230.0,-110.0,-6.0,75.0,-2.0,6.0,-871.0,-511.0
-1.0,-231.0,-106.0,-2.0,77.0,0.0,2.0,-870.0,-514.0
-1.0,-231.0,-112.0,0.0,76.0,1.0,-3.0,-869.0,-514.0
0.0,-231.0,-111.0,0.0,76.0,0.0,1.0,-868.0,-513.0
-3.0,-231.0,-109.0,0.0,76.0,1.0,0.0,-868.0,-512.0
-5.0,-229.0,-109.0,0.0,76.0,0.0,-2.0,-868.0,-511.0
-1.0,-232.0,-112.0,0.0,75.0,1.0,-2.0,-866.0,-512.0
-8.0,-233.0,-107.0,-1.0,74.0,0.0,-3.0,-868.0,-510.0
-1.0,-231.0,-106.0,-3.0,75.0,1.0,-8.0,-870.0,-509.0
-6.0,-228.0,-111.0,-3.0,74.0,0.0,1.0,-867.0,-511.0
-8.0,-229.0,-109.0,-6.0,76.0,0.0,-3.0,-868.0,-509.0
-3.0,-233.0,-113.0,-7.0,75.0,1.0,-4.0,-869.0,-509.0
-5.0,-233.0,-110.0,-10.0,77.0,2.0,-3.0,-870.0,-510.0
-2.0,-233.0,-112.0,-10.0,76.0,2.0,-2.0,-869.0,-514.0
-7.0,-230.0,-110.0,-10.0,76.0,0.0,-10.0,-867.0,-513.0
-6.0,-231.0,-111.0,-11.0,75.0,0.0,-5.0,-872.0,-516.0
-5.0,-231.0,-110.0,-12.0,75.0,2.0,-3.0,-870.0,-509.0
-2.0,-233.0,-111.0,-11.0,72.0,1.0,-6.0,-873.0,-517.0
-5.0,-234.0,-106.0,-9.0,70.0,1.0,-4.0,-868.0,-517.0
-6.0,-231.0,-107.0,-9.0,69.0,0.0,-8.0,-871.0,-511.0
-6.0,-230.0,-108.0,-9.0,66.0,0.0,-8.0,-872.0,-513.0
-6.0,-231.0,-108.0,-7.0,65.0,-1.0,-8.0,-876.0,-509.0
-5.0,-233.0,-113.0,-7.0,63.0,0.0,0.0,-874.0,-509.0
-4.0,-227.0,-113.0,-5.0,62.0,-1.0,-8.0,-870.0,-513.0
-1.0,-233.0,-115.0,-4.0,60.0,-1.0,-3.0,-872.0,-508.0
-6.0,-232.0,-106.0,-4.0,60.0,-3.0,-7.0,-869.0,-509.0
-6.0,-228.0,-109.0,-4.0,60.0,-2.0,-7.0,-867.0,-511.0
-4.0,-230.0,-112.0,-5.0,59.0,-3.0,-4.0,-864.0,-513.0
-4.0,-229.0,-112.0,-5.0,60.0,-5.0,-4.0,-866.0,-501.0
-1.0,-231.0,-112.0,-6.0,60.0,-4.0,-2.0,-867.0,-505.0
0.0,-231.0,-110.0,-8.0,60.0,-3.0,-4.0,-868.0,-509.0
-6.0,-229.0,-109.0,-12.0,60.0,-6.0,-1.0,-865.0,-509.0
-4.0,-229.0,-112.0,-14.0,59.0,-8.0,1.0,-867.0,-508.0
-6.0,-229.0,-110.0,-13.0,59.0,-5.0,0.0,-869.0,-506.0
-3.0,-234.0,-110.0,-13.0,59.0,-9.0,-2.0,-868.0,-511.0
-2.0,-230.0,-108.0,-12.0,60.0,-8.0,-3.0,-869.0,-510.0
-3.0,-229.0,-108.0,-11.0,60.0,-6.0,-3.0,-873.0,-510.0
-2.0,-233.0,-114.0,-9.0,61.0,-6.0,0.0,-872.0,-511.0
-4.0,-232.0,-108.0,-8.0,62.0,-8.0,-2.0,-876.0,-516.0
-3.0,-234.0,-107.0,-7.0,60.0,-7.0,0.0,-878.0,-511.0
-3.0,-232.0,-108.0,-7.0,61.0,-9.0,4.0,-879.0,-509.0
-2.0,-233.0,-110.0,-6.0,60.0,-8.0,-6.0,-878.0,-512.0
-3.0,-234.0,-110.0,-6.0,60.0,-8.0,-4.0,-875.0,-511.0
-2.0,-234.0,-113.0,-5.0,59.0,-8.0,-3.0,-871.0,-513.0
-7.0,-231.0,-112.0,-3.0,59.0,-8.0,0.0,-874.0,-514.0
-2.0,-232.0,-111.0,-2.0,57.0,-9.0,0.0,-878.0,-507.0
-2.0,-234.0,-113.0,-1.0,58.0,-9.0,1.0,-876.0,-510.0
-3.0,-231.0,-111.0,-2.0,59.0,-7.0,-4.0,-871.0,-509.0
-2.0,-234.0,-112.0,-2.0,59.0,-7.0,-1.0,-873.0,-515.0
-2.0,-232.0,-110.0,0.0,59.0,-8.0,1.0,-874.0,-511.0
-3.0,-235.0,-110.0,1.0,62.0,-8.0,1.0,-868.0,-511.0
-2.0,-233.0,-112.0,1.0,63.0,-8.0,0.0,-870.0,-508.0
-4.0,-232.0,-109.0,1.0,63.0,-7.0,1.0,-865.0,-509.0
-2.0,-231.0,-108.0,0.0,63.0,-6.0,2.0,-867.0,-507.0
-5.0,-232.0,-108.0,-1.0,64.0,-6.0,-2.0,-865.0,-510.0
-5.0,-230.0,-111.0,-1.0,64.0,-7.0,-3.0,-869.0,-508.0
-3.0,-230.0,-109.0,-2.0,67.0,-5.0,4.0,-870.0,-507.0
-6.0,-231.0,-110.0,-3.0,67.0,-6.0,-7.0,-870.0,-510.0
-3.0,-232.0,-107.0,-2.0,66.0,-6.0,1.0,-872.0,-509.0
-4.0,-235.0,-110.0,-1.0,68.0,-7.0,-3.0,-870.0,-509.0
-1.0,-236.0,-105.0,-1.0,67.0,-7.0,-2.0,-870.0,-508.0
-3.0,-233.0,-110.0,-3.0,68.0,-5.0,-2.0,-870.0,-505.0
-1.0,-232.0,-108.0,-3.0,69.0,-5.0,1.0,-874.0,-511.0
-11.0,-242.0,-116.0,-4.0,70.0,-6.0,0.0,-875.0,-509.0
-1.0,-232.0,-113.0,-7.0,71.0,-3.0,-3.0,-880.0,-509.0
-3.0,-233.0,-109.0,-5.0,71.0,-4.0,-1.0,-874.0,-509.0
-8.0,-234.0,-110.0,-3.0,71.0,-5.0,-3.0,-876.0,-509.0
-3.0,-231.0,-111.0,0.0,71.0,-3.0,-2.0,-877.0,-507.0
-1.0,-236.0,-110.0,1.0,72.0,-2.0,-3.0,-878.0,-513.0
-5.0,-233.0,-109.0,2.0,70.0,-3.0,2.0,-872.0,-507.0
-1.0,-235.0,-113.0,4.0,71.0,-4.0,-1.0,-876.0,-511.0
-4.0,-231.0,-106.0,4.0,71.0,-3.0,-5.0,-873.0,-505.0
-4.0,-231.0,-106.0,7.0,72.0,-3.0,-1.0,-870.0,-510.0
-3.0,-234.0,-111.0,5.0,71.0,-2.0,-3.0,-873.0,-509.0
-4.0,-230.0,-107.0,5.0,71.0,-2.0,-8.0,-870.0,-507.0
-6.0,-229.0,-106.0,5.0,72.0,-2.0,-4.0,-866.0,-505.0
-5.0,-231.0,-111.0,4.0,75.0,0.0,-4.0,-866.0,-512.0
-3.0,-229.0,-107.0,3.0,73.0,1.0,-3.0,-871.0,-507.0
-4.0,-231.0,-108.0,2.0,74.0,1.0,-6.0,-867.0,-504.0
-5.0,-232.0,-111.0,-2.0,75.0,2.0,-4.0,-868.0,-506.0
-6.0,-230.0,-110.0,-5.0,75.0,3.0,-5.0,-869.0,-510.0
-6.0,-231.0,-107.0,-7.0,73.0,2.0,-1.0,-868.0,-506.0
-5.0,-229.0,-109.0,-8.0,73.0,3.0,-4.0,-866.0,-505.0
-3.0,-232.0,-108.0,-9.0,73.0,3.0,-3.0,-873.0,-504.0
-2.0,-230.0,-108.0,-11.0,71.0,3.0,-4.0,-869.0,-507.0
-2.0,-232.0,-108.0,-11.0,72.0,4.0,1.0,-875.0,-505.0
-8.0,-232.0,-111.0,-13.0,71.0,3.0,-3.0,-869.0,-505.0
-2.0,-235.0,-110.0,-14.0,71.0,4.0,-3.0,-870.0,-501.0
-1.0,-232.0,-110.0,-14.0,71.0,4.0,-4.0,-872.0,-503.0
-3.0,-233.0,-109.0,-13.0,72.0,4.0,1.0,-872.0,-509.0
-4.0,-230.0,-107.0,-14.0,71.0,3.0,1.0,-877.0,-502.0
-4.0,-232.0,-107.0,-12.0,72.0,4.0,-6.0,-870.0,-509.0
-3.0,-232.0,-110.0,-11.0,74.0,3.0,-6.0,-875.0,-502.0
-2.0,-233.0,-109.0,-9.0,74.0,2.0,3.0,-879.0,-501.0
-3.0,-234.0,-112.0,-9.0,74.0,2.0,-1.0,-876.0,-510.0
-4.0,-233.0,-110.0,-10.0,74.0,2.0,-4.0,-877.0,-510.0
-5.0,-233.0,-112.0,-9.0,74.0,2.0,3.0,-877.0,-510.0
-3.0,-234.0,-111.0,-9.0,75.0,2.0,-7.0,-871.0,-501.0
-2.0,-232.0,-110.0,-7.0,76.0,2.0,0.0,-877.0,-507.0
-3.0,-233.0,-106.0,-7.0,75.0,0.0,-7.0,-873.0,-508.0
-6.0,-235.0,-110.0,-6.0,76.0,1.0,-7.0,-875.0,-509.0
-5.0,-231.0,-109.0,-6.0,77.0,0.0,-9.0,-875.0,-507.0
-6.0,-233.0,-109.0,-7.0,77.0,0.0,-8.0,-875.0,-512.0
-4.0,-232.0,-113.0,-8.0,76.0,-2.0,-6.0,-868.0,-510.0
-3.0,-232.0,-110.0,-9.0,76.0,-2.0,-9.0,-875.0,-509.0
-4.0,-232.0,-110.0,-11.0,73.0,-1.0,-12.0,-875.0,-511.0
-7.0,-231.0,-111.0,-12.0,72.0,-2.0,-12.0,-877.0,-507.0
-4.0,-233.0,-111.0,-11.0,72.0,-4.0,-9.0,-875.0,-508.0
-6.0,-230.0,-113.0,-10.0,69.0,-3.0,-6.0,-876.0,-506.0
-5.0,-233.0,-110.0,-10.0,69.0,-3.0,-8.0,-874.0,-505.0
-5.0,-234.0,-107.0,-10.0,68.0,-6.0,-7.0,-873.0,-507.0
-5.0,-236.0,-109.0,-9.0,68.0,-5.0,-6.0,-873.0,-506.0
-6.0,-233.0,-110.0,-9.0,68.0,-4.0,-10.0,-873.0,-504.0
-5.0,-232.0,-107.0,-8.0,67.0,-4.0,-4.0,-877.0,-504.0
-4.0,-233.0,-109.0,-7.0,67.0,-5.0,-3.0,-872.0,-505.0
-4.0,-234.0,-108.0,-7.0,66.0,-5.0,-5.0,-875.0,-510.0
-4.0,-231.0,-106.0,-6.0,64.0,-5.0,-7.0,-871.0,-504.0
-3.0,-231.0,-109.0,-6.0,64.0,-6.0,-6.0,-872.0,-510.0
-4.0,-232.0,-106.0,-4.0,62.0,-7.0,-2.0,-869.0,-502.0
-4.0,-231.0,-108.0,-4.0,62.0,-8.0,-6.0,-873.0,-508.0
-4.0,-231.0,-110.0,-3.0,61.0,-9.0,1.0,-872.0,-509.0
-3.0,-230.0,-108.0,-2.0,62.0,-9.0,-5.0,-874.0,-505.0
-5.0,-231.0,-109.0,-2.0,61.0,-9.0,-4.0,-873.0,-507.0
-4.0,-233.0,-108.0,-4.0,62.0,-9.0,-4.0,-869.0,-506.0
-6.0,-228.0,-108.0,-4.0,63.0,-10.0,0.0,-873.0,-506.0
-4.0,-231.0,-112.0,-6.0,62.0,-11.0,-4.0,-873.0,-509.0
-4.0,-234.0,-107.0,-6.0,64.0,-11.0,-7.0,-875.0,-504.0
-4.0,-234.0,-110.0,-6.0,64.0,-13.0,-4.0,-878.0,-506.0
-3.0,-234.0,-110.0,-5.0,64.0,-12.0,-3.0,-878.0,-509.0
-4.0,-235.0,-110.0,-4.0,67.0,-11.0,-7.0,-877.0,-504.0
-5.0,-231.0,-110.0,-1.0,67.0,-10.0,-3.0,-875.0,-506.0
-2.0,-232.0,-111.0,3.0,67.0,-11.0,0.0,-876.0,-502.0
-5.0,-235.0,-111.0,6.0,67.0,-11.0,-3.0,-878.0,-504.0
-2.0,-233.0,-111.0,9.0,67.0,-10.0,-2.0,-877.0,-506.0
-3.0,-235.0,-111.0,10.0,67.0,-10.0,-3.0,-871.0,-507.0
-6.0,-233.0,-110.0,13.0,68.0,-9.0,-5.0,-879.0,-507.0
-4.0,-230.0,-107.0,14.0,68.0,-9.0,1.0,-870.0,-502.0
0.0,-231.0,-110.0,15.0,69.0,-8.0,1.0,-879.0,-506.0
0.0,-230.0,-107.0,14.0,71.0,-8.0,2.0,-873.0,-511.0
-1.0,-231.0,-108.0,15.0,71.0,-8.0,-5.0,-872.0,-504.0
-5.0,-232.0,-107.0,15.0,72.0,-8.0,0.0,-874.0,-508.0
-3.0,-232.0,-111.0,13.0,73.0,-7.0,4.0,-874.0,-504.0
-4.0,-230.0,-108.0,11.0,73.0,-6.0,-3.0,-875.0,-506.0
-6.0,-229.0,-112.0,10.0,74.0,-4.0,0.0,-872.0,-506.0
-1.0,-230.0,-105.0,8.0,74.0,-4.0,-2.0,-873.0,-506.0
-3.0,-232.0,-109.0,4.0,76.0,-5.0,-8.0,-874.0,-503.0
-1.0,-235.0,-105.0,4.0,76.0,-4.0,-4.0,-873.0,-507.0
-3.0,-232.0,-111.0,2.0,75.0,-3.0,-8.0,-877.0,-502.0
-3.0,-232.0,-110.0,0.0,75.0,-2.0,1.0,-880.0,-506.0
-5.0,-231.0,-110.0,-1.0,75.0,0.0,-8.0,-870.0,-503.0
-3.0,-234.0,-106.0,-1.0,74.0,-2.0,-6.0,-875.0,-507.0
-7.0,-231.0,-109.0,-2.0,76.0,-4.0,-7.0,-874.0,-506.0
-2.0,-236.0,-107.0,1.0,77.0,-3.0,-7.0,-874.0,-500.0
-4.0,-233.0,-104.0,1.0,77.0,-3.0,-7.0,-876.0,-506.0
-5.0,-231.0,-108.0,2.0,77.0,-2.0,-11.0,-877.0,-507.0
-4.0,-230.0,-110.0,2.0,77.0,-3.0,-11.0,-873.0,-504.0
-4.0,-235.0,-112.0,3.0,76.0,-4.0,-5.0,-876.0,-502.0
-5.0,-232.0,-109.0,4.0,77.0,-3.0,-8.0,-874.0,-501.0
-4.0,-231.0,-106.0,4.0,76.0,-3.0,-11.0,-871.0,-500.0
-6.0,-231.0,-106.0,2.0,76.0,-2.0,-3.0,-875.0,-505.0
-7.0,-233.0,-105.0,3.0,75.0,-3.0,-5.0,-878.0,-510.0
-1.0,-233.0,-109.0,2.0,75.0,-4.0,-12.0,-873.0,-502.0
-4.0,-233.0,-110.0,1.0,74.0,-3.0,-11.0,-868.0,-504.0
-5.0,-233.0,-108.0,-1.0,74.0,-4.0,-8.0,-874.0,-503.0
-2.0,-232.0,-110.0,-1.0,72.0,-2.0,-8.0,-871.0,-504.0
-3.0,-233.0,-112.0,-4.0,71.0,-4.0,-9.0,-869.0,-508.0
-3.0,-233.0,-112.0,-6.0,71.0,-4.0,-13.0,-871.0,-507.0
-3.0,-233.0,-110.0,-8.0,69.0,-5.0,-4.0,-876.0,-507.0
-5.0,-235.0,-104.0,-10.0,71.0,-7.0,-11.0,-874.0,-508.0
-6.0,-232.0,-105.0,-10.0,69.0,-6.0,-5.0,-876.0,-504.0
-4.0,-232.0,-108.0,-11.0,70.0,-6.0,-12.0,-876.0,-510.0
-4.0,-233.0,-108.0,-9.0,69.0,-6.0,-8.0,-878.0,-502.0
-1.0,-233.0,-108.0,-8.0,68.0,-7.0,-7.0,-872.0,-495.0
-5.0,-232.0,-110.0,-7.0,69.0,-9.0,-4.0,-869.0,-506.0
-4.0,-232.0,-108.0,-6.0,67.0,-9.0,0.0,-875.0,-506.0
-3.0,-232.0,-106.0,-6.0,65.0,-9.0,-1.0,-874.0,-503.0
-2.0,-234.0,-109.0,-7.0,66.0,-11.0,1.0,-874.0,-501.0
-2.0,-233.0,-110.0,-8.0,64.0,-11.0,-2.0,-875.0,-503.0
-3.0,-233.0,-109.0,-8.0,64.0,-11.0,2.0,-872.0,-500.0
-1.0,-232.0,-105.0,-8.0,64.0,-10.0,2.0,-874.0,-497.0
-1.0,-231.0,-111.0,-10.0,63.0,-10.0,-1.0,-875.0,-510.0
-3.0,-231.0,-108.0,-10.0,64.0,-9.0,3.0,-870.0,-504.0
-3.0,-231.0,-107.0,-10.0,64.0,-9.0,2.0,-873.0,-500.0
0.0,-234.0,-109.0,-11.0,66.0,-10.0,-1.0,-875.0,-502.0
-5.0,-229.0,-108.0,-12.0,66.0,-8.0,4.0,-874.0,-504.0
-4.0,-231.0,-110.0,-12.0,67.0,-9.0,3.0,-879.0,-506.0
-4.0,-231.0,-113.0,-12.0,68.0,-8.0,-2.0,-879.0,-507.0
-7.0,-229.0,-112.0,-12.0,68.0,-9.0,0.0,-870.0,-507.0
-2.0,-231.0,-107.0,-13.0,67.0,-8.0,-1.0,-876.0,-499.0
-2.0,-233.0,-108.0,-15.0,68.0,-8.0,1.0,-874.0,-504.0
0.0,-234.0,-109.0,-17.0,68.0,-8.0,-3.0,-875.0,-502.0
-2.0,-232.0,-107.0,-17.0,69.0,-6.0,-6.0,-879.0,-503.0
-1.0,-235.0,-106.0,-18.0,69.0,-6.0,-3.0,-874.0,-498.0
-4.0,-235.0,-107.0,-18.0,70.0,-5.0,1.0,-879.0,-506.0
-1.0,-233.0,-110.0,-19.0,70.0,-3.0,3.0,-881.0,-506.0
-3.0,-232.0,-108.0,-20.0,71.0,-3.0,-5.0,-879.0,-506.0
-7.0,-233.0,-111.0,-20.0,70.0,-3.0,-1.0,-879.0,-504.0
-2.0,-236.0,-109.0,-22.0,71.0,-4.0,-8.0,-880.0,-504.0
-2.0,-234.0,-107.0,-20.0,70.0,-5.0,0.0,-879.0,-504.0
-3.0,-235.0,-108.0,-20.0,72.0,-6.0,-4.0,-883.0,-503.0
-5.0,-234.0,-110.0,-19.0,71.0,-4.0,-4.0,-881.0,-500.0
-2.0,-234.0,-107.0,-19.0,71.0,-5.0,-4.0,-878.0,-506.0
-4.0,-236.0,-108.0,-19.0,70.0,-3.0,-8.0,-882.0,-511.0
-6.0,-232.0,-110.0,-18.0,69.0,-4.0,-5.0,-881.0,-507.0
-2.0,-234.0,-106.0,-17.0,70.0,-5.0,-6.0,-879.0,-505.0
-3.0,-235.0,-109.0,-17.0,70.0,-6.0,-3.0,-875.0,-508.0
-4.0,-231.0,-107.0,-17.0,71.0,-5.0,-5.0,-878.0,-507.0
-6.0,-234.0,-110.0,-17.0,68.0,-4.0,-4.0,-878.0,-507.0
-2.0,-231.0,-109.0,-19.0,67.0,-4.0,-6.0,-873.0,-509.0
-2.0,-233.0,-112.0,-17.0,68.0,-4.0,-5.0,-875.0,-504.0
-4.0,-234.0,-105.0,-17.0,67.0,-5.0,-4.0,-874.0,-508.0
-5.0,-229.0,-105.0,-18.0,65.0,-5.0,-8.0,-875.0,-503.0
-5.0,-228.0,-109.0,-18.0,66.0,-6.0,-2.0,-874.0,-505.0
-5.0,-230.0,-105.0,-18.0,65.0,-4.0,-5.0,-870.0,-501.0
-3.0,-234.0,-107.0,-20.0,65.0,-5.0,-7.0,-870.0,-500.0
-1.0,-232.0,-107.0,-22.0,67.0,-4.0,-2.0,-873.0,-498.0
-6.0,-228.0,-111.0,-22.0,66.0,-5.0,-3.0,-872.0,-502.0
-2.0,-232.0,-108.0,-23.0,67.0,-4.0,-7.0,-871.0,-500.0
-5.0,-227.0,-107.0,-27.0,66.0,-5.0,-3.0,-876.0,-502.0
-3.0,-230.0,-105.0,-29.0,67.0,-3.0,-3.0,-871.0,-499.0
-3.0,-229.0,-106.0,-32.0,66.0,-4.0,-1.0,-867.0,-505.0
-7.0,-229.0,-106.0,-35.0,68.0,-5.0,-2.0,-871.0,-501.0
-3.0,-233.0,-110.0,-39.0,69.0,-4.0,0.0,-868.0,-502.0
-2.0,-230.0,-109.0,-41.0,70.0,-3.0,5.0,-872.0,-508.0
-1.0,-232.0,-109.0,-42.0,72.0,-2.0,2.0,-870.0,-506.0
-5.0,-233.0,-110.0,-45.0,72.0,-1.0,1.0,-877.0,-506.0
-1.0,-233.0,-112.0,-43.0,73.0,-2.0,4.0,-873.0,-510.0
-2.0,-233.0,-114.0,-42.0,72.0,-2.0,6.0,-874.0,-509.0
-3.0,-232.0,-111.0,-39.0,72.0,-1.0,3.0,-876.0,-513.0
-1.0,-236.0,-112.0,-38.0,72.0,-2.0,0.0,-878.0,-508.0
-2.0,-233.0,-112.0,-36.0,74.0,-1.0,4.0,-876.0,-510.0
-3.0,-233.0,-108.0,-33.0,73.0,-1.0,-2.0,-872.0,-514.0
-3.0,-231.0,-112.0,-33.0,75.0,-1.0,-2.0,-870.0,-514.0
-5.0,-232.0,-110.0,-31.0,76.0,-2.0,0.0,-877.0,-515.0
-4.0,-232.0,-114.0,-29.0,77.0,0.0,3.0,-874.0,-512.0
-5.0,-233.0,-111.0,-29.0,77.0,-1.0,2.0,-875.0,-514.0
-3.0,-235.0,-108.0,-27.0,77.0,-2.0,-1.0,-871.0,-512.0
-4.0,-233.0,-111.0,-29.0,78.0,0.0,0.0,-877.0,-510.0
-2.0,-231.0,-111.0,-31.0,79.0,0.0,-2.0,-873.0,-513.0
-2.0,-234.0,-109.0,-33.0,78.0,0.0,-2.0,-875.0,-513.0
-6.0,-232.0,-111.0,-35.0,80.0,-2.0,-1.0,-876.0,-506.0
-4.0,-234.0,-110.0,-35.0,79.0,-2.0,-6.0,-881.0,-512.0
-3.0,-235.0,-109.0,-36.0,77.0,-2.0,-6.0,-876.0,-512.0
-7.0,-231.0,-112.0,-35.0,77.0,-1.0,-5.0,-871.0,-509.0
-5.0,-232.0,-109.0,-36.0,76.0,-2.0,-1.0,-874.0,-511.0
-7.0,-233.0,-110.0,-35.0,74.0,-2.0,-7.0,-873.0,-509.0
-3.0,-232.0,-111.0,-36.0,73.0,-2.0,-8.0,-878.0,-506.0
-1.0,-234.0,-109.0,-34.0,73.0,-1.0,-5.0,-874.0,-509.0
-3.0,-231.0,-113.0,-33.0,73.0,-2.0,-3.0,-871.0,-513.0
-4.0,-231.0,-111.0,-32.0,73.0,-3.0,-3.0,-868.0,-510.0
-6.0,-230.0,-111.0,-31.0,74.0,-5.0,-3.0,-873.0,-511.0
-5.0,-230.0,-109.0,-31.0,73.0,-2.0,-4.0,-869.0,-512.0
-4.0,-229.0,-111.0,-30.0,71.0,-4.0,-8.0,-866.0,-511.0
-1.0,-232.0,-113.0,-32.0,72.0,-3.0,-11.0,-864.0,-511.0
-6.0,-230.0,-108.0,-32.0,73.0,-3.0,-6.0,-864.0,-511.0
-3.0,-226.0,-116.0,-32.0,73.0,-4.0,-8.0,-864.0,-515.0
-5.0,-231.0,-111.0,-34.0,73.0,-1.0,-4.0,-866.0,-513.0
-5.0,-229.0,-111.0,-35.0,73.0,-2.0,-5.0,-859.0,-511.0
-6.0,-227.0,-111.0,-36.0,74.0,-2.0,-3.0,-865.0,-509.0
0.0,-231.0,-111.0,-39.0,71.0,-1.0,-5.0,-868.0,-511.0
-6.0,-229.0,-109.0,-42.0,73.0,-2.0,-2.0,-867.0,-508.0
-5.0,-227.0,-107.0,-46.0,72.0,-2.0,-3.0,-868.0,-506.0
-7.0,-230.0,-109.0,-50.0,71.0,-1.0,-3.0,-869.0,-506.0
-5.0,-233.0,-111.0,-52.0,72.0,-2.0,-2.0,-871.0,-504.0
-5.0,-232.0,-107.0,-54.0,71.0,0.0,-6.0,-871.0,-504.0
-7.0,-230.0,-109.0,-55.0,71.0,0.0,-7.0,-872.0,-504.0
-2.0,-232.0,-109.0,-55.0,70.0,-1.0,-2.0,-867.0,-508.0
-3.0,-232.0,-113.0,-54.0,69.0,-1.0,1.0,-873.0,-509.0
-5.0,-231.0,-110.0,-53.0,68.0,1.0,1.0,-870.0,-511.0
-1.0,-231.0,-114.0,-50.0,68.0,0.0,-6.0,-867.0,-512.0
-3.0,-231.0,-114.0,-49.0,69.0,0.0,0.0,-873.0,-514.0
-7.0,-230.0,-111.0,-47.0,68.0,2.0,4.0,-870.0,-511.0
-3.0,-232.0,-111.0,-44.0,71.0,0.0,1.0,-868.0,-517.0
-3.0,-231.0,-113.0,-42.0,71.0,1.0,-6.0,-869.0,-517.0
-3.0,-230.0,-111.0,-39.0,72.0,1.0,-1.0,-867.0,-519.0
-4.0,-228.0,-110.0,-36.0,75.0,4.0,-4.0,-870.0,-520.0
-2.0,-231.0,-112.0,-35.0,79.0,5.0,-3.0,-869.0,-516.0
-3.0,-228.0,-114.0,-36.0,83.0,5.0,-4.0,-864.0,-520.0
-3.0,-230.0,-113.0,-35.0,86.0,6.0,-5.0,-867.0,-516.0
-3.0,-228.0,-111.0,-36.0,90.0,7.0,-1.0,-862.0,-513.0
0.0,-228.0,-112.0,-36.0,92.0,8.0,0.0,-866.0,-517.0
-5.0,-227.0,-112.0,-38.0,94.0,9.0,0.0,-862.0,-521.0
0.0,-230.0,-114.0,-41.0,94.0,10.0,0.0,-862.0,-519.0
0.0,-229.0,-112.0,-44.0,96.0,12.0,2.0,-858.0,-521.0
-1.0,-227.0,-110.0,-48.0,98.0,12.0,-4.0,-859.0,-522.0
0.0,-230.0,-108.0,-53.0,101.0,11.0,3.0,-857.0,-518.0
-3.0,-225.0,-113.0,-56.0,103.0,14.0,-1.0,-853.0,-519.0
1.0,-229.0,-117.0,-59.0,105.0,16.0,4.0,-855.0,-523.0
0.0,-230.0,-115.0,-62.0,107.0,15.0,8.0,-857.0,-527.0
-2.0,-225.0,-116.0,-65.0,112.0,16.0,10.0,-853.0,-529.0
0.0,-226.0,-114.0,-66.0,115.0,15.0,5.0,-855.0,-526.0
-2.0,-226.0,-112.0,-68.0,119.0,16.0,10.0,-853.0,-529.0
-1.0,-225.0,-117.0,-70.0,121.0,17.0,5.0,-855.0,-531.0
-1.0,-226.0,-118.0,-73.0,126.0,18.0,6.0,-855.0,-532.0
-2.0,-227.0,-122.0,-75.0,130.0,17.0,8.0,-856.0,-544.0
0.0,-229.0,-121.0,-78.0,135.0,18.0,11.0,-855.0,-544.0
0.0,-226.0,-121.0,-80.0,139.0,19.0,11.0,-849.0,-546.0
0.0,-227.0,-120.0,-79.0,146.0,21.0,6.0,-853.0,-550.0
-4.0,-224.0,-120.0,-79.0,150.0,22.0,10.0,-855.0,-551.0
-1.0,-224.0,-120.0,-78.0,157.0,24.0,10.0,-848.0,-552.0
1.0,-226.0,-120.0,-78.0,161.0,26.0,13.0,-842.0,-550.0
1.0,-227.0,-123.0,-75.0,167.0,29.0,12.0,-838.0,-560.0
0.0,-225.0,-123.0,-73.0,173.0,29.0,17.0,-841.0,-560.0
0.0,-221.0,-125.0,-72.0,178.0,30.0,14.0,-834.0,-565.0
2.0,-225.0,-124.0,-71.0,184.0,30.0,12.0,-832.0,-561.0
0.0,-221.0,-124.0,-71.0,189.0,31.0,14.0,-831.0,-568.0
0.0,-220.0,-124.0,-69.0,196.0,33.0,9.0,-830.0,-562.0
0.0,-220.0,-122.0,-68.0,200.0,33.0,14.0,-828.0,-565.0
1.0,-219.0,-126.0,-67.0,203.0,35.0,8.0,-829.0,-565.0
0.0,-222.0,-127.0,-64.0,206.0,37.0,12.0,-824.0,-567.0
0.0,-218.0,-126.0,-64.0,209.0,40.0,6.0,-825.0,-572.0
0.0,-223.0,-129.0,-61.0,213.0,43.0,11.0,-824.0,-571.0
-1.0,-219.0,-126.0,-57.0,216.0,46.0,6.0,-826.0,-571.0
-1.0,-217.0,-129.0,-51.0,218.0,51.0,8.0,-832.0,-571.0
-1.0,-219.0,-125.0,-45.0,222.0,51.0,8.0,-827.0,-571.0
-2.0,-220.0,-128.0,-39.0,224.0,55.0,4.0,-832.0,-575.0
0.0,-221.0,-126.0,-33.0,229.0,57.0,1.0,-830.0,-567.0
-2.0,-219.0,-127.0,-29.0,233.0,60.0,-7.0,-831.0,-569.0
-3.0,-222.0,-128.0,-24.0,232.0,64.0,-5.0,-829.0,-573.0
-3.0,-222.0,-127.0,-23.0,233.0,68.0,-5.0,-835.0,-573.0
-4.0,-222.0,-126.0,-22.0,236.0,71.0,-2.0,-827.0,-569.0
-3.0,-221.0,-126.0,-23.0,236.0,75.0,1.0,-831.0,-566.0
-1.0,-220.0,-128.0,-26.0,236.0,77.0,3.0,-830.0,-571.0
-1.0,-216.0,-126.0,-30.0,236.0,78.0,1.0,-828.0,-575.0
-4.0,-212.0,-124.0,-33.0,237.0,79.0,-5.0,-828.0,-577.0
-8.0,-220.0,-119.0,-40.0,236.0,80.0,-2.0,-823.0,-585.0
-10.0,-218.0,-124.0,-47.0,234.0,81.0,-7.0,-813.0,-583.0
-6.0,-215.0,-132.0,-54.0,232.0,83.0,-2.0,-815.0,-580.0
-3.0,-217.0,-128.0,-61.0,230.0,86.0,-8.0,-816.0,-577.0
-2.0,-216.0,-127.0,-67.0,228.0,86.0,-5.0,-816.0,-584.0
-2.0,-215.0,-125.0,-72.0,226.0,89.0,-11.0,-815.0,-581.0
-5.0,-215.0,-129.0,-76.0,224.0,89.0,-10.0,-809.0,-587.0
-3.0,-215.0,-128.0,-79.0,223.0,92.0,-8.0,-806.0,-590.0
-7.0,-209.0,-129.0,-86.0,222.0,94.0,-10.0,-801.0,-589.0
-2.0,-210.0,-128.0,-91.0,221.0,96.0,-12.0,-803.0,-588.0
-4.0,-208.0,-130.0,-97.0,222.0,98.0,-14.0,-793.0,-589.0
-3.0,-208.0,-130.0,-102.0,222.0,100.0,-9.0,-793.0,-593.0
-6.0,-209.0,-131.0,-108.0,223.0,101.0,-18.0,-782.0,-596.0
-8.0,-207.0,-129.0,-112.0,222.0,101.0,-13.0,-780.0,-597.0
-8.0,-207.0,-130.0,-118.0,223.0,101.0,-14.0,-774.0,-599.0
-5.0,-205.0,-132.0,-123.0,223.0,103.0,-10.0,-769.0,-600.0
-7.0,-207.0,-131.0,-129.0,224.0,106.0,-16.0,-768.0,-601.0
-6.0,-205.0,-130.0,-136.0,224.0,110.0,-17.0,-764.0,-601.0
-6.0,-201.0,-133.0,-136.0,224.0,114.0,-18.0,-759.0,-601.0
-7.0,-202.0,-133.0,-137.0,223.0,117.0,-16.0,-751.0,-602.0
-8.0,-198.0,-135.0,-142.0,224.0,120.0,-17.0,-743.0,-608.0
-6.0,-197.0,-133.0,-148.0,224.0,123.0,-19.0,-735.0,-607.0
-7.0,-195.0,-133.0,-158.0,223.0,127.0,-15.0,-725.0,-606.0
-3.0,-195.0,-134.0,-170.0,224.0,130.0,-16.0,-726.0,-611.0
-7.0,-191.0,-138.0,-183.0,223.0,131.0,-13.0,-719.0,-617.0
-8.0,-191.0,-134.0,-201.0,223.0,131.0,-18.0,-710.0,-624.0
-8.0,-187.0,-136.0,-218.0,223.0,126.0,-20.0,-700.0,-622.0
-7.0,-189.0,-134.0,-235.0,222.0,127.0,-26.0,-698.0,-626.0
-10.0,-185.0,-140.0,-253.0,223.0,127.0,-26.0,-698.0,-622.0
-10.0,-186.0,-137.0,-270.0,225.0,125.0,-28.0,-702.0,-618.0
-8.0,-189.0,-135.0,-285.0,227.0,126.0,-25.0,-691.0,-614.0
-9.0,-189.0,-130.0,-300.0,228.0,127.0,-18.0,-698.0,-610.0
-7.0,-184.0,-131.0,-314.0,231.0,129.0,-21.0,-692.0,-603.0
-9.0,-188.0,-130.0,-322.0,232.0,131.0,-19.0,-691.0,-598.0
-9.0,-188.0,-132.0,-329.0,236.0,134.0,-20.0,-686.0,-596.0
-4.0,-187.0,-129.0,-336.0,240.0,137.0,-28.0,-682.0,-585.0
-7.0,-183.0,-122.0,-340.0,242.0,142.0,-25.0,-682.0,-582.0
-7.0,-181.0,-129.0,-346.0,247.0,149.0,-21.0,-672.0,-582.0
-6.0,-179.0,-126.0,-350.0,252.0,155.0,-21.0,-666.0,-579.0
-6.0,-173.0,-127.0,-358.0,253.0,163.0,-20.0,-655.0,-580.0
-7.0,-172.0,-127.0,-368.0,255.0,173.0,-22.0,-643.0,-572.0
-7.0,-171.0,-127.0,-380.0,258.0,181.0,-23.0,-626.0,-574.0
-5.0,-167.0,-127.0,-398.0,258.0,193.0,-22.0,-619.0,-576.0
-7.0,-166.0,-127.0,-419.0,258.0,204.0,-16.0,-608.0,-572.0
-8.0,-162.0,-126.0,-441.0,258.0,211.0,-24.0,-592.0,-573.0
-11.0,-159.0,-126.0,-466.0,253.0,224.0,-37.0,-589.0,-569.0
-10.0,-155.0,-126.0,-495.0,243.0,239.0,-29.0,-585.0,-570.0
-9.0,-158.0,-128.0,-527.0,235.0,252.0,-32.0,-583.0,-571.0
-9.0,-157.0,-120.0,-558.0,225.0,265.0,-32.0,-588.0,-561.0
-8.0,-158.0,-117.0,-582.0,211.0,280.0,-35.0,-583.0,-550.0
-11.0,-159.0,-116.0,-598.0,196.0,296.0,-29.0,-592.0,-548.0
-10.0,-161.0,-117.0,-611.0,181.0,309.0,-24.0,-595.0,-540.0
-6.0,-160.0,-118.0,-624.0,168.0,323.0,-25.0,-602.0,-535.0
-10.0,-160.0,-114.0,-640.0,155.0,335.0,-27.0,-597.0,-541.0
-9.0,-160.0,-118.0,-659.0,140.0,345.0,-34.0,-596.0,-536.0
-12.0,-162.0,-120.0,-683.0,125.0,353.0,-37.0,-600.0,-541.0
-13.0,-161.0,-119.0,-705.0,109.0,361.0,-39.0,-606.0,-532.0
-10.0,-168.0,-113.0,-723.0,92.0,366.0,-36.0,-616.0,-530.0
-11.0,-171.0,-115.0,-736.0,77.0,365.0,-34.0,-628.0,-534.0
-13.0,-173.0,-118.0,-742.0,68.0,362.0,-38.0,-644.0,-530.0
-19.0,-177.0,-116.0,-744.0,61.0,353.0,-49.0,-660.0,-538.0
-14.0,-179.0,-121.0,-744.0,53.0,344.0,-59.0,-678.0,-540.0
-17.0,-185.0,-119.0,-745.0,47.0,335.0,-65.0,-683.0,-550.0
-19.0,-191.0,-121.0,-743.0,41.0,325.0,-69.0,-700.0,-550.0
-20.0,-193.0,-123.0,-733.0,37.0,311.0,-66.0,-718.0,-552.0
-26.0,-194.0,-120.0,-711.0,37.0,293.0,-88.0,-725.0,-561.0
-23.0,-196.0,-128.0,-689.0,33.0,278.0,-74.0,-746.0,-572.0
-23.0,-200.0,-126.0,-671.0,43.0,258.0,-76.0,-752.0,-575.0
-19.0,-200.0,-126.0,-649.0,57.0,238.0,-80.0,-752.0,-580.0
-22.0,-200.0,-127.0,-623.0,72.0,220.0,-83.0,-754.0,-577.0
-25.0,-200.0,-126.0,-597.0,84.0,206.0,-93.0,-750.0,-579.0
-28.0,-199.0,-127.0,-576.0,92.0,202.0,-92.0,-751.0,-581.0
-25.0,-201.0,-126.0,-558.0,100.0,206.0,-89.0,-750.0,-584.0
-26.0,-201.0,-122.0,-543.0,106.0,216.0,-80.0,-747.0,-569.0
-23.0,-198.0,-129.0,-530.0,107.0,229.0,-80.0,-754.0,-567.0
-19.0,-204.0,-127.0,-518.0,104.0,242.0,-73.0,-757.0,-571.0
-18.0,-205.0,-125.0,-507.0,94.0,256.0,-48.0,-765.0,-576.0
-18.0,-204.0,-126.0,-496.0,85.0,267.0,-51.0,-773.0,-576.0
-16.0,-208.0,-127.0,-490.0,72.0,279.0,-51.0,-781.0,-575.0
-17.0,-210.0,-128.0,-479.0,58.0,286.0,-46.0,-780.0,-573.0
-13.0,-210.0,-127.0,-468.0,43.0,292.0,-39.0,-786.0,-584.0
-13.0,-209.0,-127.0,-458.0,26.0,298.0,-37.0,-798.0,-587.0
-15.0,-212.0,-128.0,-450.0,7.0,297.0,-43.0,-789.0,-583.0
-16.0,-210.0,-131.0,-442.0,-11.0,297.0,-44.0,-784.0,-587.0
-12.0,-210.0,-127.0,-434.0,-28.0,297.0,-43.0,-778.0,-589.0
-12.0,-206.0,-127.0,-422.0,-37.0,295.0,-42.0,-771.0,-583.0
-13.0,-204.0,-125.0,-406.0,-42.0,286.0,-37.0,-766.0,-576.0
-12.0,-202.0,-125.0,-386.0,-40.0,276.0,-37.0,-759.0,-568.0
-14.0,-200.0,-125.0,-358.0,-34.0,263.0,-41.0,-748.0,-577.0
-13.0,-200.0,-127.0,-334.0,-26.0,249.0,-36.0,-736.0,-581.0
-14.0,-195.0,-129.0,-320.0,-17.0,235.0,-57.0,-727.0,-583.0
-16.0,-194.0,-126.0,-313.0,-6.0,230.0,-69.0,-723.0,-575.0
-17.0,-192.0,-128.0,-309.0,4.0,232.0,-69.0,-722.0,-592.0
-19.0,-189.0,-128.0,-308.0,12.0,236.0,-74.0,-713.0,-595.0
-19.0,-187.0,-131.0,-310.0,18.0,246.0,-70.0,-700.0,-608.0
-18.0,-184.0,-130.0,-318.0,27.0,254.0,-75.0,-693.0,-607.0
-21.0,-191.0,-130.0,-331.0,29.0,259.0,-80.0,-697.0,-603.0
-23.0,-189.0,-132.0,-336.0,25.0,263.0,-75.0,-709.0,-611.0
-21.0,-195.0,-130.0,-337.0,23.0,260.0,-71.0,-726.0,-603.0
-22.0,-200.0,-130.0,-333.0,20.0,256.0,-64.0,-745.0,-605.0
-23.0,-201.0,-132.0,-325.0,18.0,250.0,-81.0,-746.0,-613.0
-27.0,-205.0,-136.0,-312.0,15.0,247.0,-88.0,-763.0,-621.0
-24.0,-210.0,-140.0,-297.0,7.0,249.0,-84.0,-782.0,-626.0
-24.0,-215.0,-140.0,-277.0,6.0,251.0,-90.0,-806.0,-638.0
-27.0,-217.0,-140.0,-255.0,10.0,249.0,-87.0,-815.0,-638.0
-25.0,-217.0,-139.0,-232.0,14.0,241.0,-86.0,-822.0,-644.0
-24.0,-219.0,-141.0,-208.0,18.0,236.0,-86.0,-819.0,-651.0
-26.0,-220.0,-146.0,-191.0,29.0,230.0,-80.0,-816.0,-654.0
-26.0,-216.0,-148.0,-171.0,42.0,221.0,-74.0,-822.0,-669.0
-23.0,-218.0,-148.0,-159.0,57.0,207.0,-80.0,-817.0,-673.0
-24.0,-214.0,-152.0,-154.0,68.0,189.0,-90.0,-804.0,-674.0
-26.0,-216.0,-152.0,-152.0,74.0,173.0,-92.0,-798.0,-675.0
-29.0,-205.0,-147.0,-148.0,77.0,160.0,-104.0,-783.0,-667.0
-23.0,-213.0,-145.0,-145.0,77.0,147.0,-96.0,-768.0,-659.0
-27.0,-200.0,-148.0,-142.0,76.0,130.0,-84.0,-756.0,-661.0
-27.0,-197.0,-145.0,-143.0,79.0,107.0,-101.0,-749.0,-669.0
-30.0,-201.0,-149.0,-145.0,81.0,92.0,-106.0,-752.0,-669.0
-32.0,-199.0,-152.0,-144.0,72.0,87.0,-118.0,-751.0,-671.0
-36.0,-201.0,-147.0,-147.0,64.0,86.0,-131.0,-754.0,-679.0
-42.0,-202.0,-151.0,-155.0,58.0,93.0,-139.0,-755.0,-683.0
-38.0,-203.0,-150.0,-169.0,48.0,101.0,-147.0,-764.0,-686.0
-36.0,-204.0,-151.0,-178.0,37.0,107.0,-123.0,-766.0,-690.0
-36.0,-205.0,-155.0,-183.0,32.0,113.0,-126.0,-768.0,-692.0
-33.0,-204.0,-154.0,-181.0,29.0,113.0,-117.0,-768.0,-696.0
-36.0,-204.0,-151.0,-182.0,26.0,116.0,-121.0,-763.0,-693.0
-34.0,-202.0,-150.0,-180.0,25.0,119.0,-129.0,-754.0,-687.0
-35.0,-199.0,-149.0,-175.0,21.0,119.0,-126.0,-745.0,-684.0
-40.0,-196.0,-149.0,-170.0,21.0,117.0,-135.0,-741.0,-680.0
-29.0,-203.0,-152.0,-168.0,17.0,124.0,-108.0,-754.0,-690.0
-32.0,-197.0,-150.0,-161.0,21.0,125.0,-106.0,-739.0,-687.0
-53.0,-187.0,-140.0,-157.0,12.0,132.0,-145.0,-713.0,-677.0
-11.0,-192.0,-160.0,-176.0,-27.0,170.0,-73.0,-721.0,-714.0
-8.0,-200.0,-157.0,-196.0,-2.0,161.0,-26.0,-755.0,-701.0
-17.0,-197.0,-149.0,-180.0,40.0,134.0,-61.0,-738.0,-674.0
-16.0,-201.0,-147.0,-153.0,68.0,136.0,-69.0,-741.0,-670.0
-14.0,-201.0,-150.0,-122.0,83.0,137.0,-55.0,-743.0,-675.0
-15.0,-201.0,-150.0,-99.0,89.0,134.0,-52.0,-742.0,-685.0
-21.0,-200.0,-153.0,-84.0,90.0,127.0,-70.0,-739.0,-689.0
-21.0,-194.0,-154.0,-71.0,88.0,115.0,-67.0,-740.0,-689.0
-28.0,-194.0,-153.0,-60.0,86.0,99.0,-92.0,-744.0,-695.0
-27.0,-198.0,-160.0,-43.0,83.0,90.0,-107.0,-741.0,-697.0
-34.0,-197.0,-157.0,-30.0,81.0,82.0,-114.0,-742.0,-709.0
-33.0,-196.0,-156.0,-20.0,83.0,74.0,-127.0,-740.0,-715.0
-38.0,-197.0,-159.0,-13.0,87.0,70.0,-132.0,-741.0,-716.0
-37.0,-200.0,-162.0,-2.0,87.0,67.0,-138.0,-739.0,-715.0
-40.0,-196.0,-159.0,10.0,85.0,68.0,-145.0,-736.0,-712.0
-45.0,-199.0,-162.0,23.0,77.0,70.0,-151.0,-738.0,-710.0
-41.0,-199.0,-158.0,33.0,70.0,72.0,-153.0,-740.0,-709.0
-44.0,-196.0,-159.0,46.0,67.0,76.0,-164.0,-738.0,-713.0
-46.0,-198.0,-157.0,54.0,63.0,83.0,-164.0,-735.0,-721.0
-43.0,-195.0,-158.0,59.0,60.0,91.0,-159.0,-740.0,-715.0
-48.0,-195.0,-158.0,63.0,58.0,99.0,-159.0,-738.0,-711.0
-46.0,-197.0,-151.0,64.0,53.0,105.0,-167.0,-746.0,-710.0
-42.0,-200.0,-156.0,64.0,45.0,114.0,-157.0,-753.0,-714.0
-42.0,-205.0,-150.0,64.0,42.0,113.0,-160.0,-757.0,-707.0
-40.0,-203.0,-155.0,68.0,39.0,106.0,-151.0,-755.0,-700.0
-43.0,-200.0,-157.0,79.0,37.0,93.0,-147.0,-762.0,-702.0
-40.0,-202.0,-156.0,93.0,36.0,84.0,-148.0,-750.0,-696.0
-41.0,-201.0,-155.0,111.0,34.0,75.0,-149.0,-751.0,-700.0
-41.0,-198.0,-157.0,131.0,29.0,64.0,-158.0,-741.0,-709.0
-42.0,-198.0,-159.0,148.0,28.0,55.0,-152.0,-744.0,-717.0
-39.0,-200.0,-165.0,166.0,29.0,43.0,-148.0,-747.0,-723.0
-42.0,-198.0,-160.0,183.0,32.0,38.0,-151.0,-745.0,-725.0
-40.0,-199.0,-160.0,204.0,33.0,35.0,-150.0,-746.0,-726.0
-41.0,-198.0,-165.0,222.0,38.0,40.0,-146.0,-739.0,-724.0
-35.0,-197.0,-162.0,241.0,43.0,48.0,-141.0,-739.0,-729.0
-38.0,-195.0,-164.0,253.0,45.0,59.0,-135.0,-734.0,-732.0
-34.0,-196.0,-166.0,260.0,47.0,70.0,-119.0,-727.0,-733.0
-26.0,-194.0,-168.0,265.0,52.0,78.0,-101.0,-718.0,-738.0
-23.0,-192.0,-168.0,268.0,60.0,83.0,-86.0,-711.0,-738.0
-23.0,-191.0,-160.0,269.0,71.0,86.0,-72.0,-712.0,-742.0
-20.0,-190.0,-167.0,274.0,91.0,86.0,-77.0,-705.0,-735.0
-19.0,-187.0,-167.0,279.0,111.0,83.0,-60.0,-700.0,-740.0
-18.0,-187.0,-163.0,281.0,135.0,80.0,-59.0,-701.0,-743.0
-16.0,-189.0,-164.0,285.0,153.0,77.0,-64.0,-694.0,-738.0
-19.0,-188.0,-164.0,280.0,172.0,73.0,-70.0,-698.0,-730.0
-20.0,-191.0,-163.0,277.0,188.0,69.0,-75.0,-699.0,-729.0
-24.0,-189.0,-163.0,272.0,202.0,67.0,-83.0,-708.0,-728.0
-26.0,-190.0,-162.0,263.0,208.0,65.0,-99.0,-711.0,-725.0
-30.0,-192.0,-161.0,251.0,203.0,64.0,-107.0,-712.0,-726.0
-35.0,-190.0,-160.0,234.0,194.0,60.0,-116.0,-712.0,-725.0
-38.0,-191.0,-160.0,220.0,186.0,53.0,-138.0,-715.0,-727.0
-43.0,-192.0,-161.0,206.0,170.0,49.0,-149.0,-723.0,-735.0
-47.0,-193.0,-167.0,199.0,155.0,42.0,-161.0,-719.0,-737.0
-43.0,-193.0,-166.0,191.0,141.0,38.0,-161.0,-719.0,-743.0
-42.0,-193.0,-169.0,186.0,132.0,32.0,-169.0,-722.0,-743.0
-46.0,-195.0,-167.0,184.0,132.0,28.0,-168.0,-719.0,-751.0
-45.0,-196.0,-170.0,183.0,131.0,28.0,-167.0,-727.0,-747.0
-44.0,-199.0,-169.0,188.0,132.0,25.0,-157.0,-741.0,-747.0
-44.0,-198.0,-166.0,190.0,131.0,21.0,-158.0,-739.0,-744.0
-43.0,-195.0,-164.0,191.0,131.0,19.0,-153.0,-743.0,-733.0
-40.0,-201.0,-164.0,193.0,129.0,15.0,-151.0,-746.0,-730.0
-42.0,-202.0,-161.0,201.0,130.0,10.0,-148.0,-755.0,-722.0
-39.0,-205.0,-155.0,210.0,130.0,3.0,-152.0,-755.0,-715.0
-38.0,-200.0,-158.0,215.0,126.0,-4.0,-148.0,-745.0,-712.0
-42.0,-202.0,-157.0,222.0,123.0,-9.0,-145.0,-750.0,-704.0
-37.0,-202.0,-153.0,232.0,115.0,-14.0,-144.0,-752.0,-694.0
-36.0,-202.0,-152.0,247.0,109.0,-18.0,-127.0,-752.0,-680.0
-34.0,-204.0,-146.0,264.0,103.0,-21.0,-129.0,-756.0,-672.0
-34.0,-202.0,-143.0,283.0,95.0,-24.0,-111.0,-758.0,-660.0
-30.0,-203.0,-146.0,301.0,91.0,-25.0,-113.0,-760.0,-656.0
-30.0,-203.0,-144.0,314.0,89.0,-26.0,-105.0,-762.0,-648.0
-29.0,-202.0,-145.0,324.0,88.0,-28.0,-96.0,-753.0,-650.0
-26.0,-202.0,-140.0,328.0,94.0,-26.0,-97.0,-758.0,-642.0
-27.0,-200.0,-143.0,335.0,103.0,-27.0,-93.0,-754.0,-649.0
-24.0,-205.0,-141.0,343.0,114.0,-29.0,-82.0,-760.0,-643.0
-22.0,-200.0,-140.0,353.0,122.0,-30.0,-82.0,-762.0,-642.0
-25.0,-202.0,-141.0,362.0,123.0,-31.0,-78.0,-771.0,-639.0
-23.0,-208.0,-138.0,375.0,123.0,-37.0,-82.0,-788.0,-647.0
-24.0,-210.0,-136.0,392.0,123.0,-43.0,-83.0,-779.0,-635.0
-29.0,-209.0,-135.0,412.0,122.0,-52.0,-89.0,-787.0,-632.0
-26.0,-210.0,-138.0,434.0,120.0,-60.0,-100.0,-801.0,-626.0
-29.0,-210.0,-136.0,461.0,115.0,-63.0,-102.0,-788.0,-624.0
-33.0,-209.0,-137.0,486.0,108.0,-64.0,-105.0,-788.0,-620.0
-32.0,-211.0,-136.0,508.0,100.0,-66.0,-104.0,-798.0,-618.0
-34.0,-208.0,-137.0,526.0,92.0,-65.0,-108.0,-793.0,-621.0
-34.0,-213.0,-134.0,545.0,84.0,-62.0,-115.0,-796.0,-614.0
-35.0,-212.0,-131.0,561.0,77.0,-57.0,-112.0,-795.0,-605.0
-25.0,-208.0,-133.0,573.0,72.0,-55.0,-103.0,-781.0,-613.0
-25.0,-206.0,-131.0,586.0,75.0,-53.0,-95.0,-776.0,-621.0
-25.0,-209.0,-133.0,598.0,81.0,-52.0,-82.0,-778.0,-618.0
-25.0,-204.0,-137.0,607.0,92.0,-55.0,-84.0,-760.0,-614.0
-22.0,-204.0,-128.0,613.0,104.0,-63.0,-82.0,-762.0,-603.0
-24.0,-201.0,-129.0,614.0,113.0,-74.0,-88.0,-753.0,-598.0
-24.0,-202.0,-131.0,613.0,120.0,-85.0,-91.0,-749.0,-589.0
-27.0,-200.0,-127.0,613.0,123.0,-97.0,-92.0,-748.0,-583.0
-28.0,-199.0,-129.0,612.0,117.0,-102.0,-107.0,-746.0,-570.0
-31.0,-201.0,-126.0,608.0,102.0,-106.0,-114.0,-752.0,-571.0
-32.0,-203.0,-125.0,597.0,79.0,-110.0,-108.0,-754.0,-573.0
-32.0,-202.0,-126.0,583.0,52.0,-110.0,-110.0,-760.0,-574.0
-32.0,-210.0,-125.0,573.0,27.0,-106.0,-113.0,-765.0,-563.0
-29.0,-208.0,-126.0,565.0,3.0,-102.0,-100.0,-782.0,-567.0
-31.0,-208.0,-127.0,561.0,-15.0,-94.0,-95.0,-782.0,-564.0
-27.0,-211.0,-124.0,559.0,-29.0,-89.0,-90.0,-795.0,-566.0
-23.0,-215.0,-122.0,562.0,-34.0,-82.0,-82.0,-805.0,-562.0
-24.0,-218.0,-121.0,572.0,-32.0,-80.0,-72.0,-814.0,-560.0
-20.0,-220.0,-122.0,586.0,-23.0,-85.0,-75.0,-832.0,-559.0
-22.0,-225.0,-119.0,604.0,-7.0,-91.0,-66.0,-834.0,-555.0
-23.0,-222.0,-121.0,625.0,9.0,-99.0,-67.0,-842.0,-552.0
-16.0,-229.0,-123.0,647.0,27.0,-114.0,-64.0,-853.0,-547.0
-21.0,-232.0,-118.0,665.0,45.0,-126.0,-70.0,-853.0,-549.0
-27.0,-232.0,-121.0,688.0,60.0,-138.0,-80.0,-863.0,-544.0
-28.0,-229.0,-115.0,705.0,74.0,-149.0,-101.0,-859.0,-545.0
-32.0,-229.0,-115.0,724.0,85.0,-160.0,-111.0,-870.0,-539.0
-34.0,-227.0,-117.0,741.0,90.0,-166.0,-118.0,-860.0,-528.0
-35.0,-230.0,-111.0,754.0,87.0,-167.0,-130.0,-862.0,-527.0
-40.0,-224.0,-111.0,764.0,80.0,-164.0,-140.0,-861.0,-523.0
-40.0,-230.0,-115.0,770.0,67.0,-157.0,-141.0,-869.0,-528.0
-38.0,-232.0,-111.0,774.0,48.0,-146.0,-137.0,-875.0,-522.0
-36.0,-234.0,-113.0,783.0,31.0,-137.0,-126.0,-882.0,-514.0
-32.0,-238.0,-110.0,796.0,14.0,-126.0,-111.0,-889.0,-502.0
-35.0,-234.0,-108.0,808.0,-2.0,-120.0,-108.0,-888.0,-503.0
-30.0,-236.0,-103.0,817.0,-14.0,-117.0,-102.0,-898.0,-494.0
-29.0,-235.0,-103.0,824.0,-22.0,-114.0,-97.0,-886.0,-488.0
-28.0,-237.0,-100.0,829.0,-23.0,-114.0,-83.0,-883.0,-483.0
-24.0,-236.0,-101.0,835.0,-16.0,-115.0,-76.0,-886.0,-481.0
-26.0,-238.0,-97.0,841.0,-6.0,-120.0,-79.0,-899.0,-473.0
-24.0,-244.0,-99.0,852.0,4.0,-124.0,-83.0,-908.0,-463.0
-24.0,-242.0,-97.0,860.0,14.0,-132.0,-80.0,-914.0,-464.0
-26.0,-244.0,-98.0,863.0,23.0,-140.0,-89.0,-924.0,-455.0
-27.0,-251.0,-95.0,867.0,31.0,-146.0,-88.0,-936.0,-456.0
-27.0,-254.0,-95.0,872.0,37.0,-151.0,-105.0,-942.0,-445.0
-31.0,-257.0,-97.0,876.0,38.0,-152.0,-104.0,-958.0,-448.0
-32.0,-257.0,-96.0,877.0,36.0,-154.0,-116.0,-957.0,-454.0
-39.0,-256.0,-95.0,876.0,28.0,-152.0,-121.0,-965.0,-458.0
-36.0,-255.0,-98.0,875.0,18.0,-145.0,-125.0,-964.0,-464.0
-40.0,-255.0,-100.0,874.0,11.0,-136.0,-131.0,-961.0,-462.0
-38.0,-255.0,-101.0,879.0,1.0,-131.0,-126.0,-964.0,-462.0
-39.0,-256.0,-98.0,883.0,-7.0,-127.0,-124.0,-966.0,-462.0
-38.0,-259.0,-99.0,890.0,-15.0,-124.0,-119.0,-965.0,-460.0
-31.0,-259.0,-98.0,896.0,-22.0,-126.0,-114.0,-972.0,-460.0
-34.0,-257.0,-98.0,903.0,-27.0,-128.0,-110.0,-969.0,-456.0
-29.0,-259.0,-100.0,906.0,-31.0,-133.0,-101.0,-979.0,-459.0
-27.0,-260.0,-98.0,906.0,-30.0,-137.0,-98.0,-982.0,-459.0
-28.0,-263.0,-96.0,906.0,-29.0,-140.0,-93.0,-977.0,-460.0
-30.0,-262.0,-98.0,904.0,-27.0,-144.0,-92.0,-986.0,-458.0
-30.0,-259.0,-97.0,903.0,-27.0,-145.0,-86.0,-995.0,-455.0
-24.0,-261.0,-98.0,902.0,-28.0,-147.0,-86.0,-990.0,-453.0
-22.0,-263.0,-93.0,900.0,-31.0,-147.0,-90.0,-995.0,-455.0
-26.0,-265.0,-95.0,901.0,-33.0,-145.0,-86.0,-1002.0,-449.0
-24.0,-266.0,-96.0,903.0,-32.0,-144.0,-83.0,-996.0,-445.0
-24.0,-265.0,-91.0,905.0,-33.0,-141.0,-86.0,-997.0,-445.0
-25.0,-262.0,-91.0,903.0,-31.0,-140.0,-85.0,-1000.0,-445.0
-28.0,-263.0,-93.0,901.0,-31.0,-139.0,-84.0,-994.0,-443.0
-30.0,-256.0,-89.0,894.0,-30.0,-139.0,-90.0,-969.0,-445.0
-22.0,-261.0,-99.0,890.0,-25.0,-139.0,-78.0,-987.0,-449.0
-24.0,-260.0,-96.0,876.0,-23.0,-144.0,-76.0,-987.0,-450.0
-19.0,-261.0,-95.0,860.0,-20.0,-148.0,-74.0,-990.0,-442.0
-24.0,-262.0,-94.0,850.0,-17.0,-152.0,-75.0,-996.0,-442.0
-24.0,-263.0,-90.0,841.0,-15.0,-160.0,-73.0,-996.0,-434.0
-21.0,-261.0,-88.0,837.0,-12.0,-163.0,-65.0,-1001.0,-426.0
-22.0,-265.0,-88.0,835.0,-14.0,-167.0,-80.0,-1005.0,-420.0
-23.0,-265.0,-79.0,831.0,-17.0,-167.0,-81.0,-1017.0,-411.0
-27.0,-266.0,-85.0,830.0,-21.0,-168.0,-80.0,-1011.0,-403.0
-24.0,-268.0,-79.0,829.0,-28.0,-168.0,-80.0,-1005.0,-399.0
-25.0,-264.0,-79.0,830.0,-33.0,-166.0,-78.0,-1012.0,-397.0
-24.0,-265.0,-78.0,833.0,-39.0,-164.0,-77.0,-1002.0,-395.0
-24.0,-268.0,-79.0,836.0,-43.0,-162.0,-78.0,-1022.0,-398.0
-24.0,-268.0,-81.0,836.0,-47.0,-162.0,-73.0,-1026.0,-393.0
-25.0,-264.0,-83.0,835.0,-48.0,-163.0,-74.0,-1028.0,-391.0
-20.0,-272.0,-74.0,836.0,-55.0,-164.0,-74.0,-1028.0,-377.0
-25.0,-266.0,-74.0,839.0,-59.0,-168.0,-76.0,-1012.0,-371.0
-23.0,-266.0,-71.0,840.0,-64.0,-165.0,-72.0,-1013.0,-362.0
-21.0,-268.0,-68.0,839.0,-68.0,-168.0,-68.0,-1019.0,-353.0
-21.0,-267.0,-70.0,835.0,-71.0,-172.0,-65.0,-1019.0,-339.0
-21.0,-267.0,-64.0,832.0,-73.0,-175.0,-64.0,-1024.0,-335.0
-20.0,-266.0,-67.0,828.0,-73.0,-180.0,-67.0,-1017.0,-333.0
-23.0,-264.0,-62.0,827.0,-73.0,-187.0,-63.0,-1011.0,-322.0
-18.0,-270.0,-62.0,825.0,-75.0,-189.0,-63.0,-1005.0,-313.0
-19.0,-265.0,-64.0,826.0,-77.0,-192.0,-60.0,-1002.0,-308.0
-21.0,-265.0,-56.0,826.0,-78.0,-193.0,-58.0,-998.0,-298.0
-24.0,-264.0,-51.0,829.0,-78.0,-194.0,-66.0,-1004.0,-286.0
-19.0,-264.0,-53.0,829.0,-80.0,-195.0,-53.0,-997.0,-278.0
-17.0,-261.0,-51.0,829.0,-81.0,-197.0,-64.0,-997.0,-268.0
-18.0,-262.0,-50.0,831.0,-82.0,-197.0,-59.0,-1000.0,-253.0
-17.0,-261.0,-42.0,837.0,-83.0,-201.0,-52.0,-989.0,-245.0
-16.0,-264.0,-33.0,843.0,-83.0,-200.0,-46.0,-1005.0,-195.0
-18.0,-267.0,-36.0,855.0,-81.0,-207.0,-52.0,-1011.0,-207.0
-13.0,-270.0,-34.0,876.0,-74.0,-217.0,-45.0,-1040.0,-206.0
-11.0,-271.0,-30.0,898.0,-61.0,-228.0,-40.0,-1038.0,-182.0
-13.0,-273.0,-29.0,907.0,-47.0,-238.0,-41.0,-1037.0,-172.0
-16.0,-276.0,-26.0,909.0,-36.0,-239.0,-47.0,-1054.0,-177.0
-21.0,-283.0,-21.0,915.0,-34.0,-238.0,-46.0,-1078.0,-153.0
-18.0,-293.0,-12.0,930.0,-32.0,-237.0,-50.0,-1117.0,-121.0
-18.0,-305.0,-9.0,952.0,-32.0,-235.0,-54.0,-1156.0,-109.0
-18.0,-315.0,-9.0,977.0,-31.0,-228.0,-63.0,-1191.0,-96.0
-22.0,-323.0,-11.0,1008.0,-31.0,-218.0,-65.0,-1232.0,-111.0
-22.0,-336.0,-12.0,1041.0,-29.0,-211.0,-70.0,-1275.0,-119.0
-25.0,-343.0,-23.0,1070.0,-21.0,-201.0,-84.0,-1307.0,-146.0
-24.0,-350.0,-35.0,1078.0,-5.0,-195.0,-77.0,-1360.0,-213.0
-22.0,-359.0,-47.0,1047.0,13.0,-190.0,-68.0,-1383.0,-256.0
-19.0,-358.0,-60.0,978.0,36.0,-181.0,-56.0,-1389.0,-304.0
-16.0,-358.0,-66.0,866.0,58.0,-174.0,-52.0,-1381.0,-333.0
-21.0,-353.0,-73.0,733.0,83.0,-167.0,-49.0,-1375.0,-351.0
-27.0,-333.0,-71.0,601.0,109.0,-158.0,-57.0,-1335.0,-355.0
-15.0,-344.0,-66.0,498.0,146.0,-145.0,-48.0,-1321.0,-337.0
-19.0,-337.0,-54.0,412.0,174.0,-143.0,-49.0,-1300.0,-291.0
-19.0,-332.0,-38.0,353.0,200.0,-141.0,-47.0,-1283.0,-239.0
-18.0,-330.0,-21.0,325.0,223.0,-144.0,-45.0,-1265.0,-171.0
-22.0,-322.0,-10.0,316.0,240.0,-151.0,-56.0,-1237.0,-116.0
-20.0,-317.0,2.0,319.0,253.0,-161.0,-60.0,-1203.0,-59.0
-22.0,-309.0,6.0,325.0,260.0,-168.0,-58.0,-1171.0,-35.0
-22.0,-296.0,7.0,326.0,258.0,-172.0,-51.0,-1135.0,-22.0
-20.0,-287.0,11.0,316.0,249.0,-173.0,-52.0,-1098.0,-23.0
-19.0,-276.0,11.0,299.0,233.0,-173.0,-50.0,-1064.0,-30.0
-15.0,-268.0,2.0,280.0,212.0,-171.0,-36.0,-1035.0,-39.0
-13.0,-256.0,6.0,254.0,187.0,-169.0,-27.0,-991.0,-42.0
-10.0,-251.0,-1.0,230.0,165.0,-167.0,-16.0,-943.0,-63.0
-2.0,-242.0,-2.0,209.0,140.0,-160.0,-8.0,-917.0,-70.0
-5.0,-235.0,-5.0,194.0,117.0,-151.0,10.0,-887.0,-72.0
-1.0,-227.0,0.0,187.0,99.0,-141.0,12.0,-863.0,-70.0
1.0,-218.0,-2.0,189.0,86.0,-127.0,19.0,-826.0,-63.0
0.0,-216.0,1.0,198.0,75.0,-109.0,23.0,-815.0,-62.0
1.0,-211.0,1.0,216.0,73.0,-91.0,29.0,-801.0,-47.0
2.0,-211.0,4.0,236.0,77.0,-72.0,30.0,-800.0,-41.0
5.0,-211.0,8.0,260.0,85.0,-52.0,31.0,-801.0,-35.0
2.0,-214.0,7.0,277.0,97.0,-36.0,27.0,-814.0,-27.0
2.0,-220.0,10.0,289.0,113.0,-21.0,28.0,-824.0,-17.0
0.0,-223.0,13.0,291.0,127.0,-6.0,28.0,-845.0,-1.0
1.0,-232.0,19.0,281.0,140.0,5.0,29.0,-868.0,10.0
0.0,-238.0,21.0,265.0,151.0,15.0,22.0,-897.0,31.0
3.0,-244.0,24.0,246.0,163.0,24.0,24.0,-929.0,44.0
2.0,-253.0,31.0,229.0,175.0,31.0,29.0,-956.0,53.0
2.0,-259.0,32.0,214.0,188.0,37.0,25.0,-981.0,63.0
1.0,-264.0,34.0,205.0,196.0,42.0,26.0,-1011.0,76.0
1.0,-273.0,32.0,207.0,206.0,44.0,31.0,-1035.0,78.0
4.0,-277.0,35.0,215.0,213.0,47.0,31.0,-1053.0,82.0
0.0,-281.0,34.0,234.0,221.0,46.0,33.0,-1076.0,80.0
1.0,-286.0,32.0,257.0,226.0,45.0,32.0,-1088.0,82.0
0.0,-289.0,31.0,278.0,231.0,40.0,29.0,-1099.0,71.0
0.0,-291.0,29.0,299.0,233.0,30.0,25.0,-1108.0,63.0
0.0,-291.0,27.0,317.0,233.0,19.0,22.0,-1117.0,55.0
0.0,-292.0,27.0,332.0,229.0,6.0,18.0,-1115.0,45.0
0.0,-291.0,20.0,346.0,223.0,-9.0,22.0,-1113.0,37.0
-1.0,-291.0,21.0,362.0,215.0,-22.0,15.0,-1105.0,26.0
0.0,-290.0,16.0,377.0,205.0,-39.0,31.0,-1102.0,19.0
-1.0,-285.0,17.0,392.0,198.0,-51.0,15.0,-1088.0,0.0
-3.0,-283.0,12.0,403.0,190.0,-64.0,9.0,-1079.0,-9.0
-2.0,-278.0,12.0,408.0,186.0,-73.0,6.0,-1062.0,-23.0
-3.0,-275.0,8.0,408.0,183.0,-78.0,7.0,-1060.0,-32.0
0.0,-273.0,1.0,402.0,180.0,-80.0,13.0,-1041.0,-52.0
-3.0,-269.0,-5.0,392.0,180.0,-79.0,16.0,-1038.0,-61.0
-5.0,-265.0,-3.0,376.0,183.0,-79.0,17.0,-1034.0,-68.0
-3.0,-262.0,-2.0,362.0,185.0,-80.0,19.0,-1016.0,-78.0
0.0,-262.0,-3.0,346.0,180.0,-81.0,16.0,-1003.0,-79.0
0.0,-261.0,-11.0,333.0,174.0,-86.0,9.0,-995.0,-82.0
-6.0,-262.0,-7.0,317.0,165.0,-91.0,0.0,-989.0,-91.0
-5.0,-259.0,-9.0,303.0,155.0,-91.0,1.0,-984.0,-94.0
-5.0,-257.0,-11.0,288.0,144.0,-89.0,-11.0,-976.0,-90.0
-9.0,-254.0,-6.0,272.0,135.0,-86.0,-9.0,-967.0,-97.0
-8.0,-256.0,-5.0,256.0,124.0,-80.0,-17.0,-963.0,-91.0
-10.0,-252.0,-3.0,240.0,113.0,-73.0,-21.0,-961.0,-84.0
-10.0,-250.0,-2.0,230.0,107.0,-66.0,-16.0,-959.0,-68.0
-8.0,-254.0,2.0,219.0,100.0,-61.0,-11.0,-964.0,-60.0
-8.0,-255.0,3.0,211.0,98.0,-57.0,0.0,-965.0,-48.0
-5.0,-258.0,5.0,207.0,95.0,-53.0,1.0,-973.0,-33.0
0.0,-261.0,6.0,204.0,97.0,-48.0,4.0,-977.0,-23.0
-1.0,-259.0,7.0,204.0,102.0,-44.0,13.0,-988.0,-19.0
-1.0,-261.0,8.0,201.0,109.0,-41.0,14.0,-992.0,-15.0
1.0,-262.0,8.0,199.0,117.0,-40.0,14.0,-995.0,-12.0
0.0,-265.0,14.0,194.0,123.0,-42.0,15.0,-1001.0,-2.0
-3.0,-265.0,11.0,190.0,127.0,-47.0,14.0,-1010.0,7.0
-2.0,-264.0,16.0,183.0,129.0,-49.0,5.0,-1025.0,11.0
-5.0,-266.0,19.0,179.0,129.0,-51.0,5.0,-1027.0,31.0
-7.0,-270.0,23.0,178.0,126.0,-53.0,1.0,-1035.0,41.0
-7.0,-270.0,26.0,181.0,123.0,-52.0,-6.0,-1040.0,48.0
-7.0,-273.0,28.0,188.0,120.0,-50.0,-7.0,-1044.0,57.0
-12.0,-274.0,25.0,198.0,116.0,-49.0,-17.0,-1050.0,60.0
-6.0,-278.0,30.0,210.0,112.0,-50.0,-12.0,-1056.0,61.0
-12.0,-277.0,30.0,222.0,109.0,-53.0,-24.0,-1064.0,62.0
-11.0,-277.0,26.0,232.0,106.0,-59.0,-24.0,-1063.0,60.0
-9.0,-278.0,29.0,241.0,108.0,-63.0,-20.0,-1056.0,54.0
-10.0,-275.0,26.0,248.0,116.0,-66.0,-18.0,-1045.0,48.0
-7.0,-273.0,26.0,256.0,127.0,-67.0,-5.0,-1042.0,48.0
-3.0,-266.0,25.0,264.0,142.0,-63.0,0.0,-1031.0,44.0
0.0,-268.0,27.0,275.0,157.0,-58.0,15.0,-1023.0,49.0
1.0,-262.0,29.0,282.0,172.0,-51.0,19.0,-1017.0,56.0
1.0,-262.0,26.0,289.0,184.0,-46.0,24.0,-1003.0,63.0
2.0,-261.0,32.0,295.0,193.0,-44.0,35.0,-993.0,60.0
1.0,-260.0,28.0,300.0,201.0,-44.0,32.0,-989.0,66.0
1.0,-260.0,32.0,301.0,206.0,-46.0,34.0,-986.0,76.0
2.0,-260.0,35.0,301.0,212.0,-49.0,33.0,-994.0,82.0
2.0,-262.0,39.0,299.0,218.0,-58.0,27.0,-995.0,91.0
1.0,-262.0,37.0,298.0,220.0,-65.0,27.0,-995.0,99.0
-1.0,-262.0,42.0,298.0,218.0,-73.0,26.0,-998.0,103.0
0.0,-263.0,41.0,299.0,215.0,-78.0,21.0,-1004.0,107.0
2.0,-263.0,44.0,301.0,211.0,-84.0,16.0,-1003.0,105.0
-4.0,-260.0,39.0,303.0,206.0,-87.0,11.0,-998.0,100.0
-3.0,-262.0,38.0,305.0,202.0,-92.0,1.0,-996.0,98.0
-5.0,-259.0,37.0,308.0,202.0,-95.0,6.0,-993.0,108.0
-3.0,-263.0,41.0,309.0,202.0,-97.0,10.0,-989.0,108.0
-4.0,-261.0,46.0,316.0,201.0,-98.0,3.0,-990.0,120.0
-2.0,-259.0,45.0,322.0,200.0,-100.0,2.0,-986.0,130.0
-4.0,-259.0,51.0,327.0,199.0,-100.0,4.0,-987.0,131.0
-1.0,-259.0,53.0,331.0,200.0,-99.0,9.0,-992.0,143.0
-3.0,-259.0,50.0,332.0,202.0,-97.0,11.0,-993.0,148.0
0.0,-259.0,57.0,331.0,202.0,-93.0,12.0,-989.0,153.0
-2.0,-260.0,52.0,332.0,202.0,-88.0,14.0,-999.0,164.0
0.0,-261.0,53.0,332.0,201.0,-80.0,21.0,-988.0,169.0
1.0,-259.0,59.0,332.0,199.0,-75.0,20.0,-989.0,174.0
-1.0,-257.0,58.0,333.0,195.0,-70.0,22.0,-983.0,171.0
-1.0,-257.0,58.0,332.0,190.0,-69.0,19.0,-986.0,164.0
0.0,-258.0,57.0,329.0,186.0,-65.0,21.0,-974.0,166.0
0.0,-257.0,56.0,325.0,185.0,-66.0,20.0,-986.0,160.0
-1.0,-259.0,56.0,317.0,182.0,-67.0,23.0,-989.0,156.0
0.0,-258.0,51.0,306.0,177.0,-67.0,23.0,-995.0,160.0
-2.0,-262.0,56.0,288.0,170.0,-67.0,22.0,-1001.0,161.0
1.0,-267.0,61.0,270.0,163.0,-65.0,23.0,-1017.0,164.0
0.0,-265.0,56.0,253.0,153.0,-64.0,28.0,-1025.0,165.0
-1.0,-265.0,57.0,238.0,143.0,-62.0,18.0,-1024.0,158.0
-1.0,-263.0,49.0,226.0,131.0,-62.0,17.0,-1021.0,141.0
-3.0,-263.0,48.0,213.0,121.0,-64.0,11.0,-1006.0,132.0
-2.0,-264.0,46.0,198.0,112.0,-70.0,9.0,-1002.0,116.0
-6.0,-260.0,38.0,185.0,107.0,-75.0,1.0,-994.0,104.0
-3.0,-261.0,35.0,173.0,108.0,-79.0,5.0,-991.0,96.0
-2.0,-256.0,35.0,165.0,115.0,-82.0,9.0,-980.0,92.0
0.0,-257.0,40.0,156.0,127.0,-82.0,16.0,-973.0,90.0
0.0,-255.0,34.0,150.0,135.0,-78.0,15.0,-964.0,92.0
0.0,-255.0,32.0,142.0,142.0,-72.0,23.0,-969.0,90.0
0.0,-255.0,36.0,134.0,147.0,-63.0,24.0,-971.0,93.0
3.0,-254.0,38.0,127.0,144.0,-54.0,31.0,-961.0,99.0
3.0,-253.0,41.0,121.0,138.0,-47.0,30.0,-957.0,103.0
2.0,-255.0,41.0,114.0,127.0,-39.0,34.0,-965.0,108.0
3.0,-253.0,40.0,105.0,114.0,-31.0,31.0,-963.0,105.0
-1.0,-253.0,40.0,95.0,99.0,-25.0,28.0,-960.0,104.0
1.0,-253.0,40.0,82.0,88.0,-21.0,23.0,-958.0,105.0
0.0,-255.0,36.0,68.0,78.0,-18.0,26.0,-959.0,104.0
0.0,-254.0,40.0,58.0,72.0,-15.0,23.0,-965.0,100.0
-2.0,-255.0,43.0,46.0,69.0,-14.0,17.0,-967.0,104.0
0.0,-256.0,38.0,34.0,65.0,-12.0,19.0,-973.0,100.0
-1.0,-257.0,41.0,27.0,63.0,-10.0,22.0,-975.0,100.0
-1.0,-259.0,40.0,19.0,61.0,-6.0,21.0,-984.0,104.0
-1.0,-261.0,39.0,10.0,59.0,-5.0,16.0,-987.0,104.0
-1.0,-260.0,41.0,4.0,58.0,-6.0,23.0,-1001.0,110.0
1.0,-264.0,43.0,-2.0,56.0,-7.0,25.0,-1002.0,111.0
1.0,-263.0,43.0,-8.0,56.0,-8.0,27.0,-1013.0,111.0
4.0,-267.0,39.0,-12.0,56.0,-10.0,24.0,-1021.0,111.0
0.0,-267.0,43.0,-13.0,59.0,-11.0,29.0,-1021.0,109.0
4.0,-269.0,43.0,-14.0,62.0,-15.0,30.0,-1026.0,107.0
4.0,-267.0,43.0,-11.0,63.0,-17.0,35.0,-1029.0,109.0
2.0,-270.0,39.0,-5.0,65.0,-18.0,35.0,-1031.0,109.0
2.0,-269.0,43.0,1.0,69.0,-22.0,39.0,-1035.0,108.0
1.0,-271.0,40.0,10.0,67.0,-23.0,33.0,-1035.0,102.0
0.0,-270.0,41.0,18.0,68.0,-25.0,31.0,-1029.0,102.0
1.0,-265.0,43.0,25.0,69.0,-26.0,32.0,-1025.0,108.0
4.0,-269.0,42.0,31.0,70.0,-25.0,29.0,-1023.0,103.0
1.0,-264.0,39.0,35.0,70.0,-25.0,31.0,-1017.0,103.0
2.0,-266.0,39.0,37.0,67.0,-24.0,26.0,-1001.0,114.0
1.0,-260.0,40.0,39.0,65.0,-24.0,27.0,-998.0,114.0
-1.0,-260.0,45.0,39.0,61.0,-24.0,17.0,-988.0,117.0
-1.0,-258.0,44.0,36.0,57.0,-23.0,20.0,-980.0,115.0
0.0,-255.0,44.0,32.0,56.0,-23.0,20.0,-973.0,117.0
0.0,-258.0,47.0,26.0,58.0,-23.0,17.0,-964.0,123.0
0.0,-251.0,42.0,20.0,62.0,-22.0,17.0,-966.0,124.0
-2.0,-255.0,47.0,13.0,68.0,-18.0,23.0,-964.0,126.0
0.0,-254.0,47.0,5.0,76.0,-17.0,12.0,-966.0,129.0
0.0,-255.0,49.0,-4.0,81.0,-12.0,14.0,-964.0,134.0
0.0,-254.0,47.0,-11.0,84.0,-6.0,19.0,-963.0,132.0
-1.0,-255.0,49.0,-21.0,85.0,-1.0,21.0,-958.0,130.0
0.0,-253.0,52.0,-33.0,83.0,5.0,22.0,-964.0,135.0
-3.0,-254.0,47.0,-45.0,80.0,11.0,18.0,-963.0,133.0
0.0,-254.0,47.0,-54.0,74.0,17.0,16.0,-968.0,128.0
0.0,-255.0,45.0,-63.0,67.0,22.0,15.0,-972.0,125.0
0.0,-257.0,44.0,-71.0,61.0,27.0,8.0,-969.0,125.0
0.0,-258.0,43.0,-78.0,56.0,31.0,13.0,-979.0,123.0
-3.0,-260.0,41.0,-85.0,52.0,35.0,12.0,-981.0,119.0
-4.0,-256.0,45.0,-91.0,49.0,40.0,6.0,-986.0,118.0
-5.0,-260.0,48.0,-99.0,45.0,43.0,5.0,-990.0,124.0
-5.0,-260.0,44.0,-105.0,41.0,45.0,6.0,-993.0,121.0
-3.0,-265.0,41.0,-113.0,38.0,42.0,3.0,-999.0,117.0
-6.0,-263.0,45.0,-118.0,36.0,38.0,2.0,-1005.0,123.0
-7.0,-261.0,44.0,-124.0,38.0,34.0,3.0,-1008.0,116.0
-4.0,-264.0,45.0,-131.0,44.0,28.0,7.0,-1021.0,115.0
-1.0,-266.0,43.0,-138.0,53.0,19.0,10.0,-1027.0,121.0
0.0,-269.0,50.0,-141.0,64.0,15.0,20.0,-1030.0,127.0
-2.0,-265.0,47.0,-140.0,78.0,10.0,22.0,-1033.0,127.0
0.0,-271.0,50.0,-134.0,91.0,8.0,27.0,-1039.0,131.0
1.0,-271.0,46.0,-125.0,99.0,7.0,34.0,-1042.0,134.0
2.0,-268.0,49.0,-115.0,103.0,7.0,33.0,-1041.0,125.0
1.0,-271.0,47.0,-105.0,100.0,10.0,33.0,-1038.0,118.0
-1.0,-266.0,41.0,-98.0,91.0,13.0,25.0,-1035.0,105.0
0.0,-265.0,40.0,-94.0,77.0,17.0,26.0,-1025.0,98.0
0.0,-268.0,37.0,-93.0,64.0,25.0,22.0,-1020.0,88.0
0.0,-264.0,37.0,-91.0,53.0,32.0,23.0,-1012.0,89.0
0.0,-263.0,37.0,-87.0,48.0,40.0,29.0,-1009.0,91.0
4.0,-263.0,37.0,-81.0,43.0,47.0,30.0,-1003.0,101.0
2.0,-264.0,42.0,-72.0,43.0,50.0,37.0,-1003.0,100.0
4.0,-266.0,40.0,-62.0,47.0,52.0,41.0,-996.0,103.0
5.0,-260.0,38.0,-51.0,50.0,49.0,40.0,-994.0,103.0
3.0,-260.0,41.0,-42.0,52.0,46.0,44.0,-991.0,104.0
4.0,-261.0,42.0,-37.0,57.0,43.0,47.0,-998.0,102.0
7.0,-263.0,42.0,-36.0,60.0,39.0,47.0,-989.0,103.0
3.0,-259.0,38.0,-36.0,62.0,37.0,41.0,-991.0,107.0
3.0,-261.0,40.0,-36.0,59.0,37.0,45.0,-996.0,98.0
7.0,-263.0,38.0,-39.0,58.0,36.0,38.0,-995.0,103.0
4.0,-265.0,41.0,-40.0,55.0,31.0,38.0,-1000.0,107.0
1.0,-261.0,41.0,-42.0,50.0,27.0,37.0,-1000.0,103.0
3.0,-262.0,39.0,-43.0,50.0,21.0,35.0,-998.0,106.0
1.0,-263.0,41.0,-42.0,48.0,13.0,29.0,-1000.0,106.0
2.0,-265.0,41.0,-39.0,51.0,5.0,32.0,-1003.0,106.0
0.0,-267.0,41.0,-36.0,55.0,0.0,29.0,-1016.0,112.0
0.0,-267.0,44.0,-34.0,59.0,-2.0,27.0,-1026.0,114.0
1.0,-268.0,40.0,-32.0,62.0,-5.0,21.0,-1027.0,116.0
-1.0,-266.0,41.0,-29.0,66.0,-5.0,20.0,-1031.0,123.0
-3.0,-268.0,42.0,-24.0,69.0,-5.0,16.0,-1030.0,117.0
0.0,-266.0,44.0,-17.0,71.0,-5.0,11.0,-1032.0,117.0
-1.0,-271.0,44.0,-9.0,72.0,-4.0,6.0,-1028.0,120.0
-6.0,-267.0,44.0,3.0,73.0,-4.0,3.0,-1012.0,113.0
-7.0,-263.0,44.0,19.0,75.0,-5.0,-4.0,-1000.0,118.0
-4.0,-263.0,44.0,32.0,77.0,-8.0,-2.0,-994.0,118.0
-5.0,-260.0,47.0,48.0,80.0,-10.0,-6.0,-994.0,120.0
-9.0,-260.0,46.0,61.0,85.0,-12.0,-6.0,-987.0,126.0
-7.0,-257.0,45.0,71.0,89.0,-13.0,-9.0,-986.0,130.0
-8.0,-257.0,48.0,78.0,93.0,-14.0,1.0,-989.0,138.0
-6.0,-257.0,52.0,82.0,93.0,-14.0,3.0,-977.0,144.0
-4.0,-260.0,49.0,79.0,93.0,-13.0,2.0,-988.0,145.0
-1.0,-261.0,52.0,75.0,91.0,-11.0,7.0,-984.0,149.0
0.0,-258.0,50.0,69.0,90.0,-10.0,15.0,-990.0,150.0
1.0,-261.0,52.0,59.0,86.0,-7.0,17.0,-991.0,147.0
0.0,-262.0,53.0,50.0,82.0,-9.0,22.0,-993.0,153.0
3.0,-262.0,54.0,42.0,78.0,-8.0,26.0,-1001.0,152.0
2.0,-260.0,51.0,34.0,73.0,-8.0,32.0,-994.0,150.0
2.0,-263.0,51.0,30.0,68.0,-10.0,31.0,-995.0,148.0
5.0,-263.0,50.0,25.0,63.0,-11.0,33.0,-996.0,141.0
0.0,-261.0,49.0,21.0,57.0,-13.0,33.0,-993.0,139.0
0.0,-262.0,50.0,19.0,54.0,-14.0,31.0,-993.0,137.0
0.0,-262.0,46.0,19.0,50.0,-14.0,33.0,-996.0,127.0
-1.0,-259.0,49.0,19.0,45.0,-16.0,28.0,-994.0,122.0
2.0,-261.0,43.0,17.0,41.0,-17.0,30.0,-994.0,125.0
0.0,-258.0,45.0,16.0,39.0,-18.0,24.0,-992.0,120.0
0.0,-261.0,45.0,13.0,37.0,-18.0,19.0,-996.0,121.0
0.0,-261.0,47.0,11.0,38.0,-17.0,21.0,-997.0,120.0
1.0,-262.0,45.0,9.0,40.0,-17.0,24.0,-1000.0,117.0
0.0,-257.0,45.0,5.0,44.0,-17.0,24.0,-999.0,121.0
2.0,-252.0,41.0,2.0,47.0,-16.0,27.0,-997.0,112.0
0.0,-263.0,42.0,-1.0,49.0,-16.0,19.0,-999.0,110.0
-2.0,-262.0,44.0,-5.0,51.0,-16.0,23.0,-1002.0,103.0
0.0,-263.0,42.0,-7.0,52.0,-16.0,15.0,-997.0,108.0
-2.0,-263.0,42.0,-9.0,52.0,-18.0,18.0,-1002.0,104.0
-2.0,-260.0,43.0,-10.0,52.0,-20.0,16.0,-995.0,107.0
0.0,-266.0,40.0,-11.0,53.0,-20.0,12.0,-1006.0,109.0
0.0,-265.0,40.0,-11.0,52.0,-20.0,13.0,-1004.0,108.0
0.0,-265.0,43.0,-13.0,49.0,-21.0,14.0,-1011.0,105.0
-2.0,-264.0,43.0,-12.0,48.0,-21.0,14.0,-1016.0,111.0
-2.0,-264.0,40.0,-14.0,47.0,-21.0,12.0,-1021.0,111.0
0.0,-266.0,45.0,-15.0,43.0,-19.0,14.0,-1021.0,114.0
-3.0,-269.0,44.0,-15.0,38.0,-18.0,10.0,-1025.0,111.0
-4.0,-267.0,44.0,-15.0,34.0,-14.0,8.0,-1026.0,116.0
-4.0,-266.0,47.0,-15.0,30.0,-13.0,7.0,-1023.0,115.0
-5.0,-267.0,46.0,-13.0,24.0,-11.0,8.0,-1022.0,119.0
-4.0,-267.0,42.0,-9.0,23.0,-9.0,9.0,-1012.0,118.0
-1.0,-264.0,45.0,-4.0,21.0,-10.0,3.0,-1004.0,120.0
-4.0,-261.0,45.0,0.0,20.0,-10.0,6.0,-1001.0,124.0
0.0,-261.0,45.0,6.0,21.0,-7.0,8.0,-995.0,120.0
-5.0,-263.0,45.0,12.0,21.0,-8.0,15.0,-992.0,125.0
0.0,-259.0,47.0,14.0,24.0,-6.0,15.0,-986.0,124.0
2.0,-259.0,46.0,16.0,27.0,-5.0,14.0,-979.0,126.0
0.0,-259.0,51.0,16.0,29.0,-7.0,25.0,-984.0,128.0
1.0,-258.0,50.0,14.0,30.0,-8.0,28.0,-983.0,130.0
0.0,-257.0,46.0,11.0,31.0,-9.0,25.0,-989.0,129.0
3.0,-257.0,47.0,6.0,33.0,-9.0,29.0,-982.0,126.0
0.0,-257.0,50.0,2.0,34.0,-8.0,26.0,-988.0,128.0
2.0,-258.0,46.0,-2.0,36.0,-8.0,32.0,-984.0,126.0
3.0,-258.0,51.0,-7.0,39.0,-8.0,37.0,-988.0,127.0
2.0,-263.0,44.0,-9.0,41.0,-6.0,42.0,-985.0,127.0
1.0,-259.0,49.0,-13.0,44.0,-9.0,36.0,-993.0,124.0
1.0,-261.0,45.0,-15.0,43.0,-7.0,41.0,-999.0,132.0
1.0,-262.0,44.0,-14.0,42.0,-8.0,38.0,-995.0,130.0
6.0,-265.0,46.0,-14.0,38.0,-10.0,33.0,-993.0,129.0
0.0,-261.0,44.0,-12.0,35.0,-11.0,34.0,-1000.0,125.0
0.0,-263.0,48.0,-10.0,31.0,-12.0,33.0,-1005.0,128.0
1.0,-264.0,46.0,-7.0,28.0,-15.0,30.0,-1003.0,127.0
1.0,-264.0,44.0,-5.0,29.0,-16.0,27.0,-1005.0,120.0
0.0,-263.0,43.0,-3.0,30.0,-18.0,25.0,-1001.0,117.0
0.0,-265.0,45.0,-1.0,31.0,-20.0,24.0,-1002.0,123.0
1.0,-266.0,46.0,0.0,33.0,-22.0,25.0,-1010.0,123.0
1.0,-264.0,45.0,-1.0,35.0,-23.0,30.0,-1004.0,123.0
0.0,-261.0,42.0,0.0,38.0,-24.0,30.0,-1013.0,118.0
0.0,-261.0,47.0,2.0,42.0,-24.0,27.0,-1004.0,121.0
4.0,-265.0,46.0,1.0,46.0,-22.0,33.0,-1002.0,122.0
3.0,-262.0,42.0,1.0,49.0,-21.0,32.0,-1003.0,119.0
2.0,-262.0,45.0,1.0,54.0,-20.0,32.0,-1003.0,112.0
0.0,-261.0,40.0,1.0,56.0,-18.0,32.0,-1003.0,115.0
2.0,-260.0,46.0,1.0,58.0,-17.0,34.0,-994.0,116.0
1.0,-265.0,46.0,1.0,55.0,-17.0,33.0,-997.0,119.0
1.0,-261.0,42.0,1.0,57.0,-19.0,33.0,-995.0,118.0
1.0,-262.0,44.0,2.0,57.0,-19.0,35.0,-994.0,119.0
0.0,-264.0,45.0,2.0,58.0,-18.0,29.0,-1002.0,119.0
0.0,-262.0,45.0,3.0,57.0,-18.0,29.0,-996.0,121.0
2.0,-263.0,43.0,3.0,54.0,-18.0,28.0,-994.0,116.0
0.0,-260.0,46.0,5.0,52.0,-18.0,28.0,-995.0,117.0
2.0,-262.0,44.0,4.0,48.0,-18.0,28.0,-993.0,114.0
0.0,-263.0,45.0,4.0,49.0,-18.0,27.0,-1000.0,118.0
1.0,-264.0,46.0,3.0,48.0,-19.0,21.0,-1000.0,113.0
0.0,-264.0,44.0,4.0,48.0,-17.0,31.0,-1007.0,116.0
1.0,-262.0,42.0,3.0,48.0,-17.0,29.0,-1005.0,112.0
0.0,-263.0,46.0,6.0,48.0,-17.0,22.0,-1003.0,114.0
1.0,-262.0,43.0,4.0,50.0,-16.0,33.0,-999.0,109.0
2.0,-264.0,43.0,4.0,52.0,-15.0,34.0,-998.0,116.0
1.0,-263.0,44.0,4.0,53.0,-13.0,35.0,-1005.0,112.0
2.0,-265.0,44.0,5.0,55.0,-14.0,34.0,-1003.0,114.0
5.0,-264.0,42.0,5.0,59.0,-12.0,42.0,-1003.0,118.0
4.0,-263.0,43.0,5.0,62.0,-10.0,38.0,-1002.0,117.0
4.0,-265.0,41.0,7.0,64.0,-10.0,40.0,-1004.0,117.0
4.0,-265.0,46.0,8.0,66.0,-9.0,34.0,-1003.0,116.0
3.0,-264.0,45.0,7.0,66.0,-7.0,39.0,-1001.0,110.0
2.0,-263.0,45.0,6.0,66.0,-6.0,39.0,-1003.0,116.0
2.0,-261.0,47.0,5.0,65.0,-5.0,36.0,-1002.0,120.0
3.0,-261.0,45.0,5.0,66.0,-6.0,35.0,-997.0,115.0
3.0,-264.0,49.0,6.0,66.0,-4.0,42.0,-997.0,122.0
4.0,-266.0,47.0,8.0,65.0,-3.0,35.0,-1005.0,123.0
1.0,-262.0,48.0,7.0,66.0,-6.0,39.0,-1002.0,125.0
2.0,-263.0,48.0,9.0,66.0,-7.0,36.0,-1011.0,118.0
3.0,-263.0,46.0,10.0,69.0,-9.0,38.0,-1008.0,123.0
1.0,-262.0,43.0,12.0,70.0,-10.0,30.0,-1004.0,126.0
2.0,-262.0,45.0,13.0,72.0,-12.0,35.0,-1000.0,121.0
3.0,-263.0,48.0,11.0,75.0,-10.0,32.0,-994.0,121.0
2.0,-260.0,45.0,13.0,75.0,-10.0,30.0,-1009.0,123.0
2.0,-266.0,48.0,13.0,76.0,-8.0,32.0,-1003.0,122.0
1.0,-266.0,47.0,12.0,77.0,-5.0,33.0,-996.0,120.0
0.0,-262.0,45.0,12.0,75.0,-4.0,30.0,-997.0,121.0
1.0,-263.0,47.0,9.0,73.0,-3.0,28.0,-995.0,120.0
1.0,-260.0,43.0,9.0,73.0,-3.0,26.0,-993.0,123.0
0.0,-262.0,46.0,7.0,71.0,-3.0,26.0,-991.0,124.0
-2.0,-260.0,50.0,6.0,71.0,-2.0,24.0,-998.0,130.0
1.0,-264.0,47.0,6.0,69.0,-2.0,28.0,-993.0,130.0
1.0,-258.0,48.0,6.0,70.0,0.0,27.0,-994.0,128.0
0.0,-261.0,49.0,6.0,69.0,0.0,29.0,-997.0,131.0
2.0,-261.0,45.0,4.0,69.0,-1.0,30.0,-993.0,128.0
1.0,-264.0,49.0,4.0,70.0,-1.0,27.0,-994.0,126.0
0.0,-256.0,48.0,2.0,71.0,-2.0,26.0,-995.0,131.0
-2.0,-260.0,47.0,2.0,72.0,-4.0,30.0,-992.0,132.0
1.0,-259.0,45.0,2.0,76.0,-5.0,24.0,-991.0,129.0
1.0,-260.0,48.0,2.0,76.0,-6.0,29.0,-994.0,127.0
1.0,-260.0,50.0,3.0,78.0,-3.0,30.0,-997.0,131.0
2.0,-261.0,50.0,4.0,79.0,-3.0,31.0,-998.0,131.0
1.0,-261.0,48.0,7.0,81.0,-5.0,29.0,-993.0,130.0
1.0,-261.0,50.0,8.0,81.0,-6.0,30.0,-994.0,128.0
1.0,-262.0,50.0,8.0,80.0,-4.0,29.0,-992.0,136.0
0.0,-262.0,48.0,8.0,79.0,-4.0,28.0,-1003.0,131.0
3.0,-258.0,47.0,9.0,80.0,-4.0,25.0,-999.0,133.0
3.0,-260.0,49.0,10.0,77.0,-4.0,28.0,-996.0,131.0
7.0,-267.0,51.0,9.0,77.0,-2.0,26.0,-1000.0,129.0
-3.0,-264.0,35.0,8.0,75.0,-3.0,20.0,-1000.0,127.0
-8.0,-272.0,44.0,7.0,74.0,1.0,23.0,-998.0,126.0
-12.0,-261.0,55.0,8.0,71.0,3.0,20.0,-998.0,130.0
0.0,-263.0,44.0,7.0,70.0,6.0,22.0,-999.0,128.0
1.0,-264.0,48.0,7.0,67.0,7.0,21.0,-1002.0,127.0
0.0,-264.0,47.0,7.0,65.0,10.0,21.0,-999.0,127.0
0.0,-262.0,49.0,8.0,65.0,14.0,19.0,-996.0,135.0
0.0,-260.0,43.0,9.0,62.0,15.0,26.0,-996.0,134.0
0.0,-261.0,48.0,13.0,60.0,15.0,22.0,-995.0,128.0
0.0,-263.0,46.0,14.0,59.0,15.0,19.0,-1001.0,131.0
0.0,-264.0,47.0,15.0,58.0,16.0,27.0,-1001.0,127.0
1.0,-262.0,48.0,16.0,61.0,13.0,24.0,-1003.0,132.0
0.0,-263.0,49.0,15.0,61.0,13.0,24.0,-1003.0,132.0
1.0,-263.0,50.0,16.0,64.0,11.0,31.0,-1004.0,132.0
0.0,-263.0,48.0,17.0,64.0,9.0,33.0,-1004.0,131.0
3.0,-261.0,49.0,17.0,65.0,5.0,36.0,-1011.0,128.0
0.0,-261.0,50.0,16.0,67.0,2.0,31.0,-1008.0,130.0
1.0,-262.0,45.0,16.0,68.0,-2.0,34.0,-1003.0,129.0
1.0,-260.0,51.0,16.0,70.0,-4.0,31.0,-1000.0,127.0
2.0,-262.0,43.0,16.0,73.0,-6.0,35.0,-1000.0,123.0
2.0,-262.0,44.0,16.0,77.0,-9.0,35.0,-1000.0,124.0
1.0,-261.0,48.0,17.0,79.0,-9.0,37.0,-998.0,124.0
3.0,-262.0,47.0,17.0,80.0,-9.0,32.0,-996.0,127.0
1.0,-259.0,48.0,15.0,80.0,-9.0,32.0,-991.0,128.0
2.0,-259.0,47.0,14.0,81.0,-9.0,31.0,-993.0,129.0
4.0,-260.0,47.0,10.0,80.0,-8.0,31.0,-991.0,129.0
1.0,-261.0,48.0,7.0,79.0,-7.0,26.0,-992.0,133.0
0.0,-260.0,45.0,5.0,77.0,-6.0,30.0,-995.0,130.0
0.0,-259.0,49.0,3.0,74.0,-4.0,27.0,-993.0,127.0
1.0,-261.0,48.0,0.0,73.0,-2.0,30.0,-996.0,133.0
1.0,-264.0,46.0,-3.0,71.0,-3.0,27.0,-1003.0,135.0
0.0,-263.0,50.0,-3.0,69.0,-2.0,23.0,-999.0,135.0
1.0,-261.0,52.0,-2.0,67.0,-2.0,26.0,-1001.0,129.0
3.0,-262.0,50.0,-3.0,69.0,-2.0,27.0,-1001.0,136.0
1.0,-265.0,51.0,-3.0,70.0,-1.0,32.0,-1010.0,131.0
0.0,-263.0,50.0,0.0,72.0,-1.0,29.0,-1006.0,135.0
1.0,-265.0,48.0,2.0,73.0,-2.0,27.0,-998.0,131.0
2.0,-262.0,48.0,6.0,75.0,-1.0,31.0,-1003.0,134.0
2.0,-267.0,51.0,6.0,75.0,-1.0,30.0,-1015.0,140.0
1.0,-264.0,49.0,7.0,76.0,1.0,32.0,-1002.0,136.0
0.0,-262.0,48.0,10.0,75.0,1.0,30.0,-1004.0,137.0
1.0,-264.0,46.0,14.0,73.0,1.0,23.0,-1001.0,138.0
2.0,-263.0,49.0,15.0,70.0,2.0,26.0,-1001.0,135.0
0.0,-260.0,48.0,15.0,69.0,-2.0,26.0,-998.0,132.0
1.0,-263.0,48.0,16.0,68.0,-1.0,29.0,-992.0,139.0
0.0,-261.0,51.0,17.0,66.0,-1.0,22.0,-993.0,134.0
0.0,-261.0,46.0,19.0,67.0,-1.0,27.0,-990.0,134.0
0.0,-260.0,51.0,19.0,65.0,-1.0,28.0,-984.0,131.0
0.0,-259.0,50.0,21.0,65.0,1.0,25.0,-981.0,132.0
1.0,-257.0,51.0,21.0,66.0,1.0,27.0,-984.0,133.0
3.0,-259.0,51.0,20.0,66.0,2.0,26.0,-983.0,132.0
1.0,-257.0,49.0,19.0,68.0,3.0,31.0,-979.0,132.0
3.0,-259.0,48.0,18.0,67.0,5.0,28.0,-983.0,134.0
1.0,-257.0,47.0,16.0,67.0,4.0,33.0,-984.0,142.0
3.0,-257.0,50.0,13.0,68.0,6.0,33.0,-982.0,134.0
2.0,-258.0,49.0,11.0,69.0,7.0,32.0,-985.0,133.0
1.0,-260.0,52.0,9.0,68.0,8.0,29.0,-986.0,137.0
0.0,-257.0,51.0,5.0,70.0,9.0,30.0,-986.0,135.0
3.0,-261.0,49.0,3.0,71.0,9.0,35.0,-989.0,137.0
4.0,-259.0,48.0,1.0,70.0,10.0,37.0,-987.0,143.0
0.0,-260.0,53.0,-4.0,69.0,11.0,33.0,-991.0,142.0
2.0,-263.0,52.0,-8.0,69.0,11.0,33.0,-997.0,145.0
2.0,-264.0,53.0,-12.0,68.0,9.0,33.0,-1009.0,145.0
2.0,-262.0,49.0,-14.0,67.0,9.0,34.0,-1002.0,144.0
1.0,-265.0,51.0,-16.0,66.0,7.0,28.0,-1010.0,141.0
0.0,-264.0,48.0,-17.0,66.0,4.0,27.0,-1010.0,137.0
1.0,-266.0,46.0,-17.0,66.0,1.0,34.0,-1007.0,135.0
0.0,-265.0,49.0,-15.0,68.0,0.0,28.0,-1017.0,133.0
0.0,-265.0,46.0,-12.0,71.0,-3.0,29.0,-1020.0,131.0
-1.0,-264.0,48.0,-9.0,72.0,-5.0,27.0,-1020.0,133.0
1.0,-262.0,42.0,-4.0,74.0,-6.0,30.0,-1001.0,133.0
1.0,-265.0,50.0,2.0,76.0,-6.0,32.0,-1010.0,135.0
1.0,-265.0,52.0,8.0,77.0,-5.0,31.0,-1000.0,131.0
1.0,-264.0,49.0,12.0,76.0,-6.0,30.0,-999.0,134.0
2.0,-264.0,50.0,15.0,78.0,-8.0,28.0,-993.0,134.0
0.0,-263.0,47.0,18.0,77.0,-7.0,28.0,-995.0,137.0
0.0,-261.0,50.0,20.0,77.0,-5.0,28.0,-1000.0,136.0
0.0,-261.0,51.0,21.0,75.0,-5.0,26.0,-994.0,143.0
0.0,-259.0,47.0,19.0,74.0,-4.0,25.0,-996.0,136.0
1.0,-258.0,51.0,18.0,73.0,-4.0,24.0,-997.0,142.0
0.0,-260.0,49.0,16.0,73.0,-3.0,23.0,-995.0,139.0
-1.0,-257.0,48.0,13.0,70.0,-3.0,25.0,-991.0,139.0
1.0,-262.0,50.0,12.0,68.0,-4.0,27.0,-995.0,146.0
-1.0,-260.0,49.0,9.0,64.0,-3.0,27.0,-994.0,144.0
0.0,-262.0,51.0,5.0,61.0,-5.0,22.0,-996.0,141.0
2.0,-260.0,53.0,4.0,59.0,-4.0,26.0,-993.0,138.0
-1.0,-260.0,52.0,1.0,58.0,-5.0,27.0,-995.0,141.0
-1.0,-260.0,52.0,0.0,57.0,-4.0,26.0,-995.0,148.0
1.0,-263.0,52.0,-2.0,57.0,-3.0,25.0,-995.0,140.0
-2.0,-262.0,50.0,-3.0,56.0,-3.0,27.0,-996.0,139.0
1.0,-261.0,52.0,-4.0,55.0,-2.0,22.0,-995.0,143.0
-2.0,-259.0,53.0,-4.0,57.0,-3.0,26.0,-992.0,142.0
1.0,-263.0,51.0,-3.0,57.0,-4.0,24.0,-997.0,142.0
2.0,-264.0,52.0,-1.0,58.0,-4.0,26.0,-999.0,139.0
1.0,-260.0,50.0,0.0,59.0,-3.0,31.0,-996.0,141.0
1.0,-259.0,51.0,0.0,60.0,-3.0,28.0,-993.0,145.0
2.0,-260.0,49.0,2.0,62.0,-4.0,26.0,-993.0,139.0
0.0,-262.0,47.0,5.0,63.0,-3.0,29.0,-994.0,140.0
1.0,-261.0,51.0,6.0,63.0,-4.0,30.0,-997.0,144.0
0.0,-261.0,51.0,7.0,64.0,-4.0,31.0,-994.0,142.0
0.0,-260.0,47.0,9.0,64.0,-3.0,29.0,-999.0,143.0
2.0,-262.0,52.0,9.0,64.0,-2.0,27.0,-995.0,144.0
2.0,-262.0,50.0,8.0,62.0,-1.0,26.0,-995.0,145.0
0.0,-261.0,50.0,8.0,61.0,-2.0,26.0,-998.0,143.0
1.0,-262.0,49.0,10.0,59.0,-2.0,25.0,-1000.0,145.0
0.0,-260.0,52.0,11.0,59.0,-3.0,26.0,-1002.0,139.0
1.0,-258.0,50.0,11.0,57.0,-4.0,27.0,-994.0,143.0
2.0,-262.0,52.0,12.0,58.0,-4.0,28.0,-1000.0,146.0
2.0,-259.0,51.0,12.0,59.0,-3.0,28.0,-998.0,140.0
4.0,-261.0,51.0,10.0,59.0,-5.0,29.0,-1000.0,138.0
1.0,-262.0,48.0,8.0,61.0,-6.0,28.0,-997.0,141.0
0.0,-262.0,51.0,6.0,62.0,-7.0,27.0,-999.0,139.0
1.0,-261.0,50.0,5.0,65.0,-11.0,25.0,-997.0,145.0
2.0,-262.0,49.0,1.0,68.0,-9.0,30.0,-1002.0,143.0
0.0,-264.0,51.0,0.0,69.0,-9.0,29.0,-1003.0,145.0
1.0,-262.0,49.0,-2.0,70.0,-8.0,30.0,-1002.0,145.0
0.0,-262.0,52.0,-3.0,69.0,-9.0,27.0,-1000.0,144.0
1.0,-260.0,50.0,-3.0,67.0,-8.0,26.0,-1001.0,148.0
2.0,-262.0,51.0,-3.0,64.0,-11.0,26.0,-1001.0,136.0
0.0,-261.0,53.0,-3.0,63.0,-11.0,22.0,-990.0,141.0
0.0,-263.0,51.0,-3.0,61.0,-11.0,23.0,-1005.0,138.0
1.0,-262.0,52.0,-4.0,60.0,-12.0,29.0,-1000.0,136.0
0.0,-261.0,48.0,-3.0,59.0,-12.0,22.0,-995.0,142.0
0.0,-262.0,54.0,-1.0,60.0,-11.0,26.0,-993.0,140.0
3.0,-261.0,49.0,1.0,61.0,-11.0,33.0,-998.0,141.0
1.0,-264.0,50.0,1.0,60.0,-9.0,30.0,-994.0,145.0
1.0,-263.0,53.0,0.0,60.0,-10.0,28.0,-1000.0,144.0
1.0,-265.0,54.0,-1.0,62.0,-8.0,31.0,-1000.0,141.0
3.0,-265.0,53.0,-4.0,63.0,-7.0,31.0,-996.0,143.0
2.0,-262.0,52.0,-3.0,62.0,-6.0,33.0,-999.0,139.0
3.0,-262.0,50.0,-6.0,62.0,-6.0,32.0,-1003.0,136.0
1.0,-261.0,51.0,-7.0,62.0,-6.0,33.0,-998.0,143.0
1.0,-263.0,51.0,-7.0,63.0,-6.0,32.0,-998.0,142.0
3.0,-263.0,49.0,-6.0,62.0,-5.0,33.0,-997.0,142.0
2.0,-260.0,47.0,-5.0,63.0,-3.0,36.0,-992.0,142.0
0.0,-260.0,53.0,-3.0,63.0,-2.0,24.0,-995.0,144.0
1.0,-265.0,55.0,-2.0,62.0,-3.0,30.0,-993.0,137.0
0.0,-262.0,54.0,0.0,59.0,-2.0,29.0,-993.0,141.0
-1.0,-258.0,53.0,0.0,59.0,-3.0,27.0,-997.0,146.0
0.0,-258.0,51.0,2.0,59.0,-4.0,29.0,-1001.0,141.0
1.0,-263.0,52.0,2.0,58.0,-2.0,26.0,-996.0,145.0
4.0,-261.0,52.0,2.0,58.0,-3.0,29.0,-1001.0,150.0
0.0,-261.0,48.0,0.0,57.0,-1.0,27.0,-1001.0,142.0
1.0,-260.0,48.0,-1.0,57.0,-2.0,27.0,-1000.0,145.0
0.0,-267.0,48.0,-1.0,58.0,-2.0,21.0,-992.0,146.0
0.0,-260.0,47.0,0.0,59.0,-2.0,28.0,-992.0,142.0
0.0,-260.0,53.0,1.0,59.0,-3.0,29.0,-998.0,139.0
0.0,-257.0,50.0,0.0,61.0,-3.0,29.0,-992.0,142.0
-2.0,-258.0,49.0,1.0,63.0,-5.0,30.0,-990.0,145.0
4.0,-260.0,51.0,3.0,65.0,-4.0,29.0,-995.0,148.0
1.0,-261.0,50.0,2.0,67.0,-2.0,32.0,-990.0,149.0
-1.0,-257.0,53.0,0.0,67.0,-3.0,35.0,-991.0,149.0
2.0,-261.0,54.0,0.0,68.0,-3.0,33.0,-986.0,146.0
4.0,-261.0,54.0,-1.0,67.0,-4.0,36.0,-997.0,153.0
0.0,-264.0,52.0,-4.0,65.0,-2.0,33.0,-994.0,155.0
-2.0,-258.0,50.0,-5.0,64.0,-1.0,31.0,-995.0,147.0
2.0,-262.0,51.0,-7.0,62.0,-1.0,30.0,-993.0,145.0
0.0,-260.0,49.0,-8.0,61.0,-1.0,27.0,-999.0,146.0
2.0,-265.0,52.0,-9.0,61.0,0.0,29.0,-1002.0,147.0
0.0,-264.0,47.0,-9.0,62.0,0.0,28.0,-1002.0,146.0
-1.0,-260.0,55.0,-7.0,60.0,-2.0,23.0,-999.0,146.0
0.0,-263.0,49.0,-4.0,60.0,-4.0,20.0,-1005.0,142.0
1.0,-263.0,53.0,-1.0,60.0,-3.0,23.0,-1002.0,137.0
1.0,-264.0,50.0,1.0,61.0,-4.0,23.0,-999.0,144.0
-1.0,-263.0,48.0,4.0,65.0,-5.0,30.0,-996.0,144.0
2.0,-264.0,52.0,6.0,67.0,-6.0,29.0,-993.0,143.0
1.0,-262.0,50.0,7.0,69.0,-8.0,28.0,-993.0,145.0
3.0,-259.0,52.0,9.0,71.0,-7.0,32.0,-998.0,146.0
1.0,-261.0,51.0,5.0,74.0,-8.0,28.0,-998.0,150.0
1.0,-260.0,54.0,3.0,76.0,-8.0,33.0,-1004.0,144.0
2.0,-263.0,51.0,1.0,76.0,-8.0,36.0,-997.0,145.0
3.0,-262.0,48.0,-1.0,74.0,-9.0,34.0,-1001.0,140.0
2.0,-264.0,49.0,-1.0,73.0,-10.0,32.0,-995.0,142.0
2.0,-262.0,55.0,-2.0,75.0,-11.0,31.0,-998.0,142.0
0.0,-262.0,52.0,0.0,76.0,-14.0,34.0,-1001.0,142.0
0.0,-260.0,51.0,3.0,77.0,-12.0,33.0,-1001.0,148.0
3.0,-263.0,50.0,6.0,76.0,-13.0,35.0,-1001.0,144.0
0.0,-261.0,50.0,9.0,75.0,-13.0,34.0,-1002.0,148.0
2.0,-265.0,51.0,12.0,75.0,-13.0,31.0,-1001.0,145.0
0.0,-260.0,52.0,15.0,74.0,-12.0,26.0,-995.0,149.0
3.0,-260.0,51.0,17.0,72.0,-13.0,30.0,-993.0,146.0
0.0,-259.0,51.0,17.0,70.0,-12.0,28.0,-996.0,145.0
0.0,-262.0,50.0,17.0,69.0,-12.0,24.0,-988.0,150.0
1.0,-261.0,52.0,16.0,69.0,-11.0,29.0,-989.0,148.0
-1.0,-257.0,52.0,16.0,70.0,-8.0,24.0,-984.0,146.0
2.0,-257.0,52.0,15.0,70.0,-8.0,23.0,-981.0,147.0
0.0,-259.0,53.0,15.0,69.0,-7.0,27.0,-986.0,150.0
4.0,-264.0,54.0,14.0,69.0,-4.0,27.0,-991.0,147.0
4.0,-261.0,53.0,13.0,70.0,-5.0,30.0,-989.0,147.0
3.0,-259.0,48.0,12.0,69.0,-4.0,31.0,-986.0,148.0
2.0,-258.0,51.0,10.0,70.0,-4.0,30.0,-992.0,147.0
4.0,-260.0,49.0,8.0,70.0,-4.0,31.0,-992.0,149.0
1.0,-261.0,54.0,6.0,72.0,-3.0,29.0,-993.0,151.0
2.0,-261.0,51.0,4.0,71.0,-3.0,32.0,-988.0,154.0
2.0,-260.0,54.0,3.0,72.0,-5.0,31.0,-991.0,153.0
3.0,-263.0,55.0,0.0,71.0,-3.0,31.0,-991.0,153.0
2.0,-259.0,56.0,-2.0,73.0,-4.0,32.0,-996.0,151.0
1.0,-261.0,52.0,-3.0,71.0,-4.0,32.0,-998.0,152.0
1.0,-260.0,50.0,-5.0,71.0,-6.0,36.0,-1000.0,150.0
1.0,-262.0,56.0,-6.0,70.0,-5.0,28.0,-998.0,150.0
1.0,-260.0,54.0,-5.0,67.0,-7.0,34.0,-994.0,151.0
3.0,-261.0,51.0,-4.0,69.0,-8.0,28.0,-996.0,148.0
0.0,-261.0,49.0,-4.0,70.0,-8.0,31.0,-994.0,149.0
1.0,-261.0,52.0,-4.0,73.0,-9.0,31.0,-997.0,148.0
0.0,-259.0,52.0,-4.0,71.0,-9.0,30.0,-994.0,151.0
1.0,-261.0,53.0,-3.0,72.0,-8.0,30.0,-992.0,149.0
3.0,-261.0,52.0,-1.0,74.0,-9.0,31.0,-996.0,149.0
1.0,-260.0,54.0,0.0,73.0,-8.0,27.0,-996.0,147.0
1.0,-262.0,51.0,2.0,74.0,-6.0,31.0,-997.0,153.0
0.0,-261.0,53.0,4.0,75.0,-5.0,29.0,-998.0,152.0
0.0,-264.0,51.0,3.0,76.0,-5.0,31.0,-999.0,148.0
0.0,-261.0,53.0,5.0,77.0,-4.0,29.0,-995.0,153.0
0.0,-261.0,54.0,3.0,75.0,-3.0,32.0,-991.0,148.0
1.0,-261.0,52.0,3.0,75.0,-3.0,33.0,-992.0,151.0
2.0,-259.0,54.0,1.0,74.0,-3.0,28.0,-991.0,149.0
1.0,-261.0,51.0,0.0,75.0,-3.0,29.0,-991.0,147.0
1.0,-260.0,54.0,-2.0,74.0,-4.0,32.0,-990.0,150.0
2.0,-260.0,53.0,-1.0,72.0,-4.0,35.0,-991.0,147.0
1.0,-260.0,51.0,-3.0,72.0,-5.0,30.0,-992.0,150.0
0.0,-260.0,51.0,-2.0,73.0,-5.0,31.0,-991.0,151.0
0.0,-260.0,48.0,-3.0,72.0,-6.0,32.0,-992.0,151.0
1.0,-261.0,52.0,-4.0,73.0,-6.0,30.0,-993.0,152.0
-1.0,-258.0,51.0,-6.0,73.0,-6.0,31.0,-993.0,151.0
2.0,-260.0,55.0,-6.0,73.0,-6.0,31.0,-994.0,150.0
1.0,-258.0,54.0,-6.0,74.0,-7.0,35.0,-992.0,153.0
0.0,-259.0,48.0,-8.0,72.0,-7.0,33.0,-994.0,153.0
2.0,-263.0,52.0,-9.0,73.0,-5.0,32.0,-987.0,152.0
2.0,-260.0,51.0,-10.0,72.0,-5.0,33.0,-992.0,152.0
1.0,-261.0,51.0,-9.0,71.0,-6.0,31.0,-995.0,153.0
1.0,-262.0,57.0,-10.0,71.0,-5.0,29.0,-996.0,151.0
2.0,-260.0,52.0,-11.0,71.0,-4.0,35.0,-993.0,152.0
1.0,-261.0,52.0,-14.0,71.0,-2.0,31.0,-997.0,153.0
2.0,-261.0,54.0,-18.0,71.0,-2.0,29.0,-995.0,149.0
4.0,-263.0,55.0,-20.0,70.0,-3.0,32.0,-1000.0,155.0
2.0,-263.0,49.0,-20.0,69.0,0.0,31.0,-998.0,156.0
1.0,-263.0,53.0,-18.0,65.0,1.0,30.0,-1001.0,153.0
0.0,-262.0,51.0,-17.0,63.0,1.0,29.0,-996.0,150.0
2.0,-260.0,54.0,-16.0,60.0,2.0,28.0,-1002.0,152.0
1.0,-263.0,54.0,-13.0,59.0,0.0,23.0,-996.0,150.0
2.0,-263.0,53.0,-10.0,58.0,0.0,29.0,-998.0,150.0
0.0,-263.0,52.0,-8.0,59.0,1.0,29.0,-991.0,150.0
0.0,-261.0,52.0,-7.0,60.0,-1.0,32.0,-1002.0,154.0
0.0,-263.0,49.0,-7.0,61.0,0.0,28.0,-996.0,154.0
1.0,-260.0,54.0,-4.0,64.0,0.0,33.0,-998.0,155.0
0.0,-262.0,52.0,-5.0,62.0,-1.0,25.0,-992.0,150.0
4.0,-258.0,53.0,-5.0,62.0,-1.0,29.0,-992.0,152.0
1.0,-261.0,53.0,-6.0,64.0,-2.0,30.0,-986.0,153.0
4.0,-261.0,53.0,-8.0,65.0,-2.0,31.0,-991.0,151.0
1.0,-260.0,53.0,-10.0,67.0,-1.0,30.0,-989.0,150.0
1.0,-260.0,50.0,-10.0,67.0,-2.0,28.0,-992.0,152.0
1.0,-259.0,53.0,-11.0,70.0,-3.0,33.0,-992.0,151.0
2.0,-258.0,53.0,-14.0,69.0,-5.0,30.0,-988.0,151.0
3.0,-261.0,54.0,-15.0,71.0,-6.0,29.0,-984.0,153.0
1.0,-261.0,53.0,-15.0,74.0,-7.0,35.0,-992.0,151.0
1.0,-261.0,55.0,-15.0,75.0,-8.0,34.0,-997.0,150.0
1.0,-264.0,54.0,-17.0,74.0,-9.0,31.0,-1000.0,155.0
3.0,-261.0,56.0,-17.0,75.0,-7.0,32.0,-993.0,151.0
1.0,-262.0,54.0,-16.0,75.0,-7.0,31.0,-996.0,156.0
2.0,-262.0,52.0,-16.0,73.0,-7.0,32.0,-997.0,154.0
1.0,-262.0,54.0,-16.0,71.0,-5.0,28.0,-1000.0,152.0
0.0,-260.0,52.0,-16.0,70.0,-4.0,26.0,-1003.0,154.0
-1.0,-261.0,53.0,-15.0,67.0,-2.0,28.0,-998.0,153.0
1.0,-264.0,53.0,-13.0,64.0,-2.0,30.0,-995.0,152.0
0.0,-263.0,55.0,-10.0,64.0,-1.0,30.0,-996.0,151.0
1.0,-264.0,53.0,-8.0,61.0,1.0,28.0,-996.0,153.0
-1.0,-259.0,53.0,-6.0,61.0,-1.0,27.0,-996.0,153.0
0.0,-263.0,53.0,-4.0,61.0,0.0,28.0,-997.0,152.0
3.0,-263.0,52.0,-3.0,62.0,0.0,27.0,-994.0,155.0
0.0,-258.0,55.0,-1.0,62.0,1.0,32.0,-997.0,155.0
3.0,-264.0,55.0,0.0,65.0,0.0,31.0,-992.0,155.0
3.0,-261.0,54.0,-1.0,66.0,0.0,30.0,-1000.0,151.0
1.0,-263.0,56.0,-3.0,68.0,-1.0,32.0,-991.0,151.0
0.0,-260.0,56.0,-5.0,68.0,0.0,31.0,-989.0,152.0
2.0,-259.0,51.0,-6.0,68.0,0.0,33.0,-990.0,153.0
1.0,-261.0,56.0,-8.0,69.0,-2.0,31.0,-997.0,153.0
0.0,-262.0,51.0,-10.0,71.0,-3.0,31.0,-993.0,150.0
0.0,-259.0,53.0,-12.0,73.0,-3.0,34.0,-997.0,150.0
1.0,-262.0,53.0,-14.0,74.0,-3.0,35.0,-997.0,149.0
1.0,-261.0,53.0,-13.0,76.0,-3.0,29.0,-996.0,148.0
-1.0,-261.0,56.0,-13.0,75.0,-2.0,35.0,-999.0,149.0
3.0,-261.0,50.0,-14.0,74.0,-1.0,30.0,-997.0,152.0
2.0,-262.0,50.0,-12.0,73.0,-3.0,34.0,-998.0,154.0
0.0,-260.0,52.0,-13.0,71.0,-4.0,26.0,-997.0,150.0
1.0,-261.0,50.0,-12.0,70.0,-5.0,33.0,-992.0,151.0
0.0,-262.0,53.0,-12.0,70.0,-2.0,23.0,-993.0,150.0
0.0,-259.0,55.0,-10.0,70.0,-6.0,27.0,-989.0,148.0
1.0,-256.0,54.0,-11.0,71.0,-5.0,32.0,-989.0,149.0
2.0,-262.0,52.0,-11.0,72.0,-5.0,30.0,-991.0,153.0
1.0,-259.0,53.0,-11.0,72.0,-6.0,30.0,-992.0,153.0
-1.0,-259.0,54.0,-12.0,74.0,-4.0,30.0,-989.0,152.0
1.0,-259.0,49.0,-13.0,74.0,-4.0,26.0,-989.0,158.0
0.0,-261.0,50.0,-14.0,74.0,-4.0,30.0,-993.0,157.0
0.0,-260.0,52.0,-14.0,75.0,-3.0,29.0,-996.0,151.0
1.0,-260.0,53.0,-13.0,76.0,-1.0,33.0,-993.0,154.0
2.0,-258.0,50.0,-12.0,77.0,-2.0,31.0,-991.0,153.0
2.0,-260.0,51.0,-11.0,76.0,-1.0,31.0,-994.0,159.0
0.0,-261.0,52.0,-11.0,75.0,-3.0,32.0,-990.0,156.0
2.0,-264.0,56.0,-12.0,74.0,-2.0,34.0,-998.0,157.0
3.0,-261.0,56.0,-13.0,74.0,-1.0,33.0,-997.0,157.0
2.0,-263.0,57.0,-13.0,74.0,-1.0,32.0,-994.0,157.0
1.0,-262.0,57.0,-13.0,74.0,-1.0,32.0,-992.0,155.0
0.0,-262.0,55.0,-13.0,73.0,-1.0,31.0,-993.0,153.0
0.0,-259.0,55.0,-13.0,72.0,-2.0,32.0,-993.0,153.0
1.0,-261.0,53.0,-12.0,70.0,-1.0,31.0,-991.0,152.0
1.0,-260.0,54.0,-12.0,70.0,-3.0,28.0,-992.0,153.0
0.0,-261.0,51.0,-13.0,71.0,-4.0,25.0,-993.0,154.0
1.0,-260.0,54.0,-11.0,72.0,-4.0,28.0,-999.0,151.0
1.0,-262.0,56.0,-10.0,72.0,-6.0,27.0,-995.0,151.0
1.0,-263.0,52.0,-12.0,73.0,-6.0,30.0,-1004.0,157.0
0.0,-262.0,54.0,-10.0,74.0,-8.0,23.0,-995.0,151.0
2.0,-261.0,54.0,-11.0,76.0,-8.0,29.0,-996.0,155.0
0.0,-261.0,54.0,-10.0,75.0,-7.0,30.0,-995.0,153.0
3.0,-266.0,54.0,-8.0,78.0,-6.0,29.0,-997.0,154.0
0.0,-262.0,52.0,-7.0,78.0,-5.0,33.0,-995.0,153.0
1.0,-261.0,53.0,-7.0,77.0,-4.0,26.0,-996.0,156.0
2.0,-260.0,51.0,-6.0,76.0,-2.0,31.0,-1000.0,152.0
0.0,-260.0,55.0,-6.0,75.0,-2.0,33.0,-995.0,152.0
0.0,-258.0,54.0,-5.0,74.0,0.0,36.0,-993.0,148.0
0.0,-261.0,53.0,-6.0,73.0,0.0,31.0,-998.0,152.0
1.0,-261.0,53.0,-6.0,71.0,1.0,31.0,-992.0,152.0
3.0,-263.0,55.0,-7.0,70.0,0.0,30.0,-992.0,148.0
0.0,-260.0,53.0,-8.0,68.0,0.0,31.0,-992.0,150.0
1.0,-258.0,52.0,-8.0,66.0,-2.0,30.0,-996.0,149.0
0.0,-260.0,50.0,-9.0,65.0,-1.0,26.0,-993.0,147.0
0.0,-260.0,52.0,-13.0,64.0,-3.0,28.0,-991.0,155.0
1.0,-261.0,50.0,-14.0,65.0,-4.0,34.0,-994.0,152.0
0.0,-259.0,51.0,-12.0,68.0,-5.0,32.0,-995.0,150.0
0.0,-261.0,52.0,-12.0,69.0,-5.0,32.0,-997.0,152.0
3.0,-261.0,54.0,-13.0,72.0,-7.0,34.0,-1000.0,154.0
2.0,-262.0,57.0,-13.0,74.0,-5.0,29.0,-992.0,150.0
1.0,-263.0,54.0,-13.0,75.0,-5.0,28.0,-1000.0,153.0
1.0,-260.0,54.0,-13.0,75.0,-5.0,31.0,-1001.0,148.0
1.0,-260.0,57.0,-12.0,75.0,-5.0,32.0,-999.0,156.0
3.0,-263.0,51.0,-12.0,77.0,-4.0,31.0,-992.0,154.0
2.0,-261.0,54.0,-12.0,76.0,-6.0,30.0,-992.0,151.0
2.0,-260.0,51.0,-12.0,76.0,-5.0,34.0,-992.0,151.0
2.0,-261.0,52.0,-11.0,74.0,-4.0,31.0,-991.0,151.0
0.0,-258.0,54.0,-9.0,74.0,-6.0,30.0,-987.0,150.0
1.0,-260.0,53.0,-9.0,73.0,-5.0,31.0,-989.0,149.0
0.0,-260.0,56.0,-8.0,72.0,-6.0,30.0,-989.0,152.0
3.0,-263.0,52.0,-8.0,71.0,-5.0,33.0,-990.0,153.0
1.0,-260.0,54.0,-9.0,70.0,-3.0,27.0,-994.0,153.0
0.0,-261.0,50.0,-8.0,69.0,-4.0,30.0,-988.0,150.0
1.0,-261.0,53.0,-8.0,67.0,-3.0,31.0,-989.0,144.0
1.0,-260.0,54.0,-9.0,67.0,-3.0,28.0,-998.0,152.0
0.0,-260.0,50.0,-9.0,67.0,-3.0,31.0,-995.0,150.0
1.0,-260.0,53.0,-10.0,68.0,-2.0,31.0,-994.0,151.0
4.0,-264.0,52.0,-9.0,69.0,-2.0,30.0,-995.0,154.0
1.0,-261.0,51.0,-7.0,68.0,0.0,30.0,-1000.0,150.0
2.0,-262.0,53.0,-8.0,70.0,0.0,30.0,-993.0,151.0
3.0,-263.0,55.0,-9.0,71.0,-1.0,30.0,-998.0,148.0
1.0,-259.0,53.0,-10.0,73.0,0.0,24.0,-996.0,148.0
4.0,-262.0,55.0,-10.0,72.0,-1.0,29.0,-1001.0,148.0
1.0,-263.0,52.0,-10.0,70.0,-1.0,35.0,-999.0,151.0
1.0,-264.0,50.0,-11.0,70.0,-2.0,30.0,-997.0,149.0
1.0,-264.0,48.0,-11.0,70.0,-3.0,33.0,-992.0,145.0
1.0,-264.0,52.0,-11.0,69.0,-3.0,30.0,-993.0,144.0
0.0,-259.0,50.0,-9.0,69.0,-6.0,26.0,-998.0,148.0
0.0,-258.0,49.0,-7.0,70.0,-7.0,31.0,-994.0,148.0
3.0,-260.0,51.0,-7.0,70.0,-7.0,27.0,-992.0,153.0
1.0,-260.0,51.0,-7.0,72.0,-8.0,32.0,-992.0,151.0
2.0,-262.0,54.0,-7.0,72.0,-8.0,33.0,-992.0,150.0
2.0,-259.0,52.0,-8.0,73.0,-7.0,29.0,-996.0,153.0
2.0,-258.0,54.0,-8.0,74.0,-5.0,35.0,-995.0,155.0
0.0,-261.0,51.0,-8.0,73.0,-4.0,29.0,-995.0,156.0
1.0,-261.0,53.0,-8.0,73.0,-3.0,29.0,-992.0,155.0
0.0,-261.0,54.0,-9.0,72.0,-2.0,33.0,-993.0,151.0
1.0,-258.0,51.0,-9.0,71.0,-3.0,32.0,-992.0,150.0
1.0,-262.0,53.0,-9.0,71.0,-4.0,32.0,-995.0,151.0
2.0,-261.0,53.0,-9.0,69.0,-3.0,26.0,-995.0,150.0
0.0,-262.0,56.0,-10.0,69.0,-4.0,29.0,-998.0,150.0
3.0,-263.0,56.0,-10.0,70.0,-3.0,28.0,-991.0,157.0
0.0,-260.0,55.0,-10.0,70.0,-4.0,33.0,-994.0,154.0
0.0,-262.0,55.0,-9.0,69.0,-5.0,26.0,-993.0,156.0
0.0,-261.0,55.0,-8.0,70.0,-4.0,32.0,-994.0,153.0
0.0,-261.0,54.0,-9.0,70.0,-5.0,29.0,-994.0,155.0
3.0,-261.0,51.0,-8.0,71.0,-5.0,31.0,-988.0,153.0
2.0,-260.0,56.0,-8.0,70.0,-5.0,33.0,-994.0,153.0
1.0,-260.0,51.0,-9.0,71.0,-4.0,32.0,-991.0,154.0
1.0,-260.0,54.0,-8.0,73.0,-4.0,25.0,-991.0,152.0
4.0,-259.0,54.0,-9.0,73.0,-2.0,29.0,-1001.0,153.0
-1.0,-259.0,52.0,-10.0,71.0,-3.0,30.0,-999.0,148.0
1.0,-260.0,52.0,-9.0,72.0,-2.0,31.0,-997.0,149.0
1.0,-261.0,53.0,-9.0,71.0,-2.0,32.0,-1001.0,153.0
0.0,-265.0,52.0,-9.0,72.0,-2.0,33.0,-996.0,154.0
2.0,-259.0,54.0,-8.0,69.0,-2.0,31.0,-990.0,151.0
2.0,-261.0,52.0,-9.0,69.0,-3.0,34.0,-1000.0,152.0
2.0,-260.0,52.0,-7.0,68.0,-3.0,27.0,-996.0,152.0
1.0,-261.0,51.0,-5.0,68.0,-3.0,28.0,-1000.0,155.0
2.0,-262.0,52.0,-6.0,69.0,-6.0,30.0,-993.0,147.0
1.0,-261.0,56.0,-5.0,70.0,-7.0,27.0,-993.0,152.0
0.0,-262.0,53.0,-4.0,72.0,-6.0,25.0,-991.0,154.0
2.0,-263.0,54.0,-4.0,74.0,-5.0,31.0,-991.0,157.0
3.0,-260.0,54.0,-5.0,73.0,-5.0,32.0,-988.0,152.0
0.0,-259.0,51.0,-5.0,73.0,-7.0,29.0,-993.0,158.0
2.0,-258.0,54.0,-3.0,73.0,-7.0,33.0,-985.0,159.0
0.0,-261.0,56.0,-5.0,72.0,-6.0,31.0,-994.0,156.0
1.0,-263.0,49.0,-7.0,72.0,-5.0,31.0,-998.0,156.0
0.0,-258.0,56.0,-7.0,72.0,-5.0,30.0,-995.0,153.0
3.0,-264.0,54.0,-8.0,71.0,-4.0,26.0,-996.0,157.0
1.0,-263.0,51.0,-9.0,72.0,-3.0,33.0,-999.0,153.0
0.0,-263.0,52.0,-7.0,71.0,-3.0,30.0,-998.0,157.0
0.0,-262.0,52.0,-7.0,70.0,-3.0,31.0,-994.0,153.0
0.0,-261.0,54.0,-6.0,69.0,-4.0,28.0,-996.0,153.0
0.0,-259.0,51.0,-5.0,67.0,-3.0,26.0,-996.0,151.0
1.0,-258.0,57.0,-5.0,67.0,-4.0,26.0,-995.0,150.0
0.0,-260.0,53.0,-2.0,65.0,-5.0,30.0,-999.0,151.0
1.0,-261.0,55.0,0.0,65.0,-5.0,27.0,-998.0,154.0
2.0,-262.0,54.0,0.0,65.0,-5.0,31.0,-992.0,158.0
0.0,-258.0,57.0,2.0,67.0,-5.0,35.0,-991.0,158.0
2.0,-263.0,55.0,1.0,68.0,-6.0,33.0,-991.0,154.0
2.0,-260.0,54.0,0.0,68.0,-5.0,34.0,-988.0,155.0
1.0,-258.0,57.0,1.0,70.0,-5.0,31.0,-987.0,156.0
1.0,-260.0,57.0,-2.0,70.0,-3.0,32.0,-987.0,157.0
2.0,-261.0,54.0,-3.0,71.0,-3.0,32.0,-990.0,159.0
2.0,-260.0,54.0,-5.0,71.0,-2.0,32.0,-993.0,158.0
1.0,-261.0,53.0,-9.0,70.0,-2.0,29.0,-994.0,155.0
2.0,-263.0,57.0,-9.0,70.0,0.0,33.0,-992.0,157.0
2.0,-262.0,53.0,-12.0,69.0,-1.0,32.0,-994.0,154.0
1.0,-260.0,53.0,-15.0,67.0,0.0,34.0,-995.0,156.0
2.0,-262.0,53.0,-15.0,65.0,-1.0,32.0,-995.0,151.0
1.0,-262.0,52.0,-16.0,65.0,-3.0,32.0,-994.0,152.0
5.0,-261.0,54.0,-15.0,66.0,-3.0,28.0,-1000.0,156.0
1.0,-260.0,55.0,-15.0,66.0,-5.0,26.0,-996.0,155.0
0.0,-261.0,53.0,-16.0,68.0,-6.0,32.0,-993.0,150.0
3.0,-261.0,53.0,-12.0,68.0,-3.0,28.0,-989.0,158.0
1.0,-263.0,55.0,-13.0,68.0,-3.0,32.0,-990.0,155.0
2.0,-260.0,55.0,-12.0,69.0,-2.0,35.0,-989.0,157.0
1.0,-260.0,55.0,-14.0,68.0,-1.0,34.0,-994.0,159.0
1.0,-260.0,57.0,-12.0,67.0,0.0,33.0,-994.0,153.0
3.0,-261.0,51.0,-13.0,67.0,1.0,35.0,-992.0,157.0
0.0,-261.0,54.0,-14.0,66.0,2.0,33.0,-994.0,159.0
0.0,-260.0,50.0,-15.0,66.0,0.0,30.0,-997.0,154.0
0.0,-259.0,54.0,-15.0,66.0,-1.0,35.0,-995.0,148.0
1.0,-260.0,56.0,-14.0,66.0,-3.0,27.0,-992.0,155.0
0.0,-262.0,52.0,-16.0,68.0,-3.0,30.0,-986.0,153.0
1.0,-259.0,55.0,-17.0,70.0,-4.0,33.0,-994.0,156.0
0.0,-258.0,52.0,-16.0,72.0,-6.0,31.0,-990.0,152.0
2.0,-262.0,53.0,-19.0,74.0,-7.0,34.0,-991.0,149.0
1.0,-257.0,53.0,-21.0,76.0,-7.0,29.0,-987.0,154.0
3.0,-260.0,51.0,-23.0,77.0,-7.0,32.0,-983.0,149.0
1.0,-257.0,52.0,-25.0,80.0,-5.0,32.0,-983.0,146.0
2.0,-262.0,53.0,-28.0,83.0,-5.0,32.0,-986.0,147.0
1.0,-257.0,56.0,-32.0,85.0,-4.0,35.0,-979.0,152.0
2.0,-261.0,54.0,-35.0,87.0,-3.0,35.0,-989.0,158.0
1.0,-257.0,54.0,-39.0,89.0,-2.0,35.0,-993.0,158.0
4.0,-262.0,53.0,-42.0,92.0,-1.0,32.0,-1004.0,164.0
2.0,-261.0,55.0,-48.0,94.0,-1.0,30.0,-1001.0,162.0
2.0,-264.0,51.0,-52.0,98.0,-3.0,33.0,-1003.0,162.0
1.0,-265.0,58.0,-55.0,99.0,-2.0,35.0,-1005.0,161.0
1.0,-262.0,52.0,-56.0,100.0,-5.0,32.0,-1009.0,159.0
1.0,-263.0,52.0,-55.0,102.0,-7.0,31.0,-1001.0,155.0
1.0,-261.0,54.0,-55.0,101.0,-9.0,29.0,-995.0,159.0
1.0,-261.0,54.0,-53.0,102.0,-12.0,23.0,-997.0,154.0
-1.0,-259.0,54.0,-50.0,101.0,-13.0,18.0,-993.0,160.0
1.0,-259.0,56.0,-48.0,101.0,-14.0,23.0,-990.0,160.0
0.0,-261.0,51.0,-44.0,104.0,-15.0,20.0,-991.0,159.0
0.0,-259.0,54.0,-42.0,107.0,-15.0,24.0,-992.0,156.0
0.0,-258.0,55.0,-42.0,114.0,-13.0,15.0,-988.0,148.0
-1.0,-258.0,50.0,-46.0,123.0,-12.0,24.0,-984.0,150.0
0.0,-259.0,50.0,-52.0,132.0,-7.0,19.0,-986.0,145.0
0.0,-258.0,50.0,-63.0,144.0,1.0,15.0,-991.0,144.0
-1.0,-258.0,51.0,-75.0,152.0,9.0,19.0,-988.0,133.0
0.0,-257.0,46.0,-88.0,160.0,20.0,22.0,-988.0,128.0
1.0,-257.0,45.0,-102.0,163.0,31.0,32.0,-990.0,124.0
0.0,-260.0,43.0,-115.0,166.0,40.0,30.0,-995.0,121.0
0.0,-261.0,45.0,-130.0,164.0,48.0,30.0,-992.0,114.0
1.0,-259.0,47.0,-145.0,163.0,51.0,30.0,-1004.0,109.0
2.0,-262.0,39.0,-160.0,160.0,52.0,28.0,-987.0,111.0
1.0,-260.0,43.0,-173.0,156.0,50.0,28.0,-986.0,109.0
0.0,-259.0,43.0,-185.0,149.0,49.0,24.0,-980.0,102.0
0.0,-259.0,40.0,-198.0,141.0,49.0,17.0,-981.0,105.0
-1.0,-257.0,39.0,-210.0,128.0,48.0,11.0,-976.0,100.0
-4.0,-257.0,38.0,-223.0,114.0,49.0,13.0,-980.0,101.0
-2.0,-258.0,41.0,-239.0,100.0,50.0,9.0,-979.0,100.0
-5.0,-255.0,37.0,-257.0,82.0,48.0,9.0,-979.0,97.0
-7.0,-256.0,33.0,-279.0,65.0,47.0,0.0,-973.0,83.0
-7.0,-257.0,36.0,-303.0,47.0,44.0,-4.0,-981.0,83.0
-6.0,-260.0,31.0,-326.0,29.0,42.0,-12.0,-982.0,71.0
-10.0,-257.0,32.0,-352.0,15.0,39.0,-13.0,-981.0,65.0
-7.0,-258.0,35.0,-378.0,1.0,33.0,-16.0,-983.0,64.0
-11.0,-261.0,26.0,-404.0,-9.0,33.0,-17.0,-986.0,63.0
-8.0,-259.0,28.0,-432.0,-17.0,36.0,-21.0,-990.0,65.0
-10.0,-258.0,29.0,-464.0,-23.0,41.0,-15.0,-992.0,64.0
-6.0,-260.0,28.0,-497.0,-27.0,49.0,-4.0,-992.0,55.0
0.0,-259.0,26.0,-523.0,-27.0,55.0,4.0,-1001.0,62.0
-3.0,-264.0,34.0,-556.0,-27.0,59.0,14.0,-1001.0,64.0
-3.0,-263.0,30.0,-588.0,-27.0,63.0,12.0,-997.0,60.0
-1.0,-260.0,27.0,-618.0,-28.0,64.0,15.0,-994.0,58.0
0.0,-257.0,30.0,-648.0,-26.0,65.0,18.0,-994.0,60.0
1.0,-255.0,27.0,-678.0,-23.0,69.0,21.0,-987.0,59.0
0.0,-256.0,31.0,-709.0,-21.0,74.0,20.0,-982.0,60.0
-4.0,-259.0,29.0,-739.0,-19.0,82.0,27.0,-986.0,61.0
-1.0,-260.0,30.0,-764.0,-19.0,91.0,18.0,-989.0,66.0
0.0,-261.0,30.0,-785.0,-18.0,100.0,18.0,-992.0,59.0
2.0,-262.0,25.0,-799.0,-19.0,109.0,28.0,-997.0,52.0
0.0,-263.0,30.0,-809.0,-18.0,115.0,29.0,-998.0,53.0
1.0,-265.0,26.0,-812.0,-21.0,119.0,30.0,-1002.0,56.0
3.0,-263.0,25.0,-807.0,-25.0,120.0,31.0,-1009.0,58.0
3.0,-263.0,28.0,-800.0,-29.0,119.0,40.0,-1017.0,57.0
4.0,-264.0,26.0,-786.0,-31.0,116.0,41.0,-1022.0,66.0
6.0,-268.0,29.0,-770.0,-29.0,111.0,55.0,-1018.0,58.0
7.0,-268.0,28.0,-755.0,-23.0,104.0,57.0,-1024.0,61.0
10.0,-265.0,31.0,-740.0,-15.0,96.0,64.0,-1026.0,67.0
13.0,-269.0,31.0,-729.0,-11.0,86.0,80.0,-1031.0,66.0
5.0,-269.0,36.0,-719.0,-5.0,74.0,51.0,-1027.0,80.0
6.0,-268.0,34.0,-707.0,-5.0,64.0,39.0,-1023.0,92.0
1.0,-267.0,37.0,-694.0,-5.0,55.0,31.0,-1026.0,99.0
1.0,-266.0,38.0,-678.0,-5.0,52.0,23.0,-1021.0,100.0
1.0,-267.0,38.0,-661.0,-6.0,53.0,20.0,-1021.0,102.0
-3.0,-268.0,36.0,-644.0,-6.0,54.0,17.0,-1027.0,98.0
-3.0,-268.0,38.0,-629.0,-2.0,58.0,9.0,-1029.0,98.0
-5.0,-266.0,43.0,-613.0,1.0,62.0,9.0,-1024.0,98.0
-6.0,-266.0,36.0,-595.0,0.0,66.0,4.0,-1025.0,98.0
-9.0,-266.0,41.0,-577.0,-4.0,70.0,0.0,-1010.0,102.0
-11.0,-260.0,42.0,-558.0,-12.0,74.0,-12.0,-1009.0,104.0
-12.0,-261.0,41.0,-539.0,-19.0,74.0,-14.0,-994.0,110.0
-9.0,-259.0,42.0,-521.0,-29.0,74.0,-21.0,-992.0,108.0
-9.0,-262.0,44.0,-505.0,-35.0,72.0,-20.0,-993.0,113.0
-8.0,-264.0,45.0,-492.0,-36.0,73.0,-10.0,-984.0,118.0
-6.0,-257.0,41.0,-479.0,-35.0,73.0,4.0,-989.0,114.0
-5.0,-258.0,42.0,-465.0,-31.0,71.0,4.0,-984.0,111.0
0.0,-257.0,38.0,-455.0,-29.0,72.0,13.0,-967.0,106.0
2.0,-258.0,39.0,-450.0,-27.0,75.0,28.0,-959.0,113.0
3.0,-256.0,43.0,-446.0,-25.0,80.0,43.0,-957.0,112.0
7.0,-254.0,43.0,-442.0,-23.0,84.0,49.0,-957.0,118.0
5.0,-253.0,43.0,-441.0,-20.0,90.0,51.0,-950.0,114.0
5.0,-253.0,42.0,-440.0,-21.0,94.0,46.0,-950.0,109.0
3.0,-243.0,40.0,-444.0,-19.0,97.0,43.0,-952.0,109.0
6.0,-250.0,43.0,-454.0,-18.0,98.0,43.0,-951.0,102.0
5.0,-253.0,41.0,-467.0,-17.0,100.0,43.0,-953.0,104.0
3.0,-255.0,40.0,-479.0,-14.0,103.0,35.0,-955.0,96.0
3.0,-254.0,36.0,-494.0,-9.0,105.0,35.0,-955.0,87.0
2.0,-254.0,39.0,-513.0,-7.0,112.0,24.0,-960.0,92.0
1.0,-253.0,34.0,-535.0,-11.0,121.0,28.0,-952.0,87.0
2.0,-250.0,34.0,-560.0,-19.0,128.0,27.0,-935.0,78.0
0.0,-250.0,31.0,-588.0,-29.0,140.0,23.0,-936.0,75.0
-6.0,-246.0,31.0,-615.0,-42.0,149.0,4.0,-932.0,65.0
-8.0,-250.0,27.0,-640.0,-57.0,154.0,-3.0,-935.0,48.0
-8.0,-250.0,17.0,-658.0,-73.0,158.0,0.0,-945.0,22.0
-4.0,-252.0,12.0,-668.0,-85.0,157.0,2.0,-959.0,-6.0
0.0,-262.0,4.0,-672.0,-93.0,153.0,8.0,-985.0,-29.0
-2.0,-264.0,1.0,-669.0,-100.0,151.0,11.0,-1011.0,-46.0
1.0,-273.0,-2.0,-663.0,-102.0,155.0,27.0,-1037.0,-67.0
0.0,-279.0,-11.0,-653.0,-102.0,164.0,29.0,-1061.0,-109.0
1.0,-283.0,-16.0,-639.0,-101.0,180.0,17.0,-1078.0,-138.0
-2.0,-291.0,-29.0,-615.0,-94.0,192.0,14.0,-1095.0,-168.0
-4.0,-296.0,-34.0,-583.0,-82.0,201.0,-2.0,-1113.0,-205.0
-8.0,-298.0,-44.0,-546.0,-66.0,203.0,-21.0,-1136.0,-222.0
-14.0,-298.0,-43.0,-511.0,-45.0,196.0,-39.0,-1136.0,-232.0
-20.0,-302.0,-43.0,-477.0,-29.0,191.0,-63.0,-1148.0,-240.0
-23.0,-305.0,-47.0,-449.0,-14.0,184.0,-73.0,-1153.0,-230.0
-26.0,-304.0,-40.0,-429.0,-4.0,176.0,-75.0,-1155.0,-219.0
-29.0,-300.0,-40.0,-415.0,5.0,164.0,-83.0,-1148.0,-221.0
-32.0,-301.0,-43.0,-413.0,11.0,147.0,-94.0,-1145.0,-228.0
-31.0,-304.0,-46.0,-417.0,9.0,130.0,-101.0,-1149.0,-244.0
-37.0,-304.0,-47.0,-427.0,-2.0,114.0,-113.0,-1154.0,-253.0
-39.0,-304.0,-52.0,-444.0,-23.0,99.0,-119.0,-1161.0,-260.0
-35.0,-305.0,-49.0,-468.0,-51.0,88.0,-113.0,-1159.0,-267.0
-33.0,-302.0,-48.0,-507.0,-80.0,81.0,-101.0,-1160.0,-262.0
-24.0,-303.0,-56.0,-559.0,-106.0,82.0,-70.0,-1157.0,-266.0
-19.0,-302.0,-49.0,-619.0,-139.0,87.0,-51.0,-1160.0,-262.0
-16.0,-303.0,-49.0,-682.0,-177.0,93.0,-40.0,-1161.0,-256.0
-9.0,-301.0,-45.0,-741.0,-218.0,109.0,-16.0,-1156.0,-247.0
-10.0,-305.0,-48.0,-794.0,-255.0,124.0,-9.0,-1161.0,-242.0
-11.0,-309.0,-40.0,-836.0,-281.0,136.0,-13.0,-1171.0,-232.0
-14.0,-310.0,-38.0,-868.0,-299.0,144.0,-25.0,-1182.0,-215.0
-13.0,-312.0,-35.0,-890.0,-305.0,143.0,-33.0,-1187.0,-207.0
-16.0,-313.0,-32.0,-904.0,-303.0,138.0,-37.0,-1185.0,-202.0
-16.0,-309.0,-32.0,-913.0,-295.0,128.0,-40.0,-1182.0,-191.0
-16.0,-313.0,-31.0,-922.0,-290.0,121.0,-37.0,-1184.0,-201.0
-16.0,-307.0,-37.0,-940.0,-292.0,121.0,-37.0,-1177.0,-217.0
-13.0,-309.0,-40.0,-963.0,-302.0,131.0,-31.0,-1193.0,-234.0
-19.0,-317.0,-51.0,-995.0,-322.0,148.0,-43.0,-1214.0,-264.0
-20.0,-325.0,-62.0,-1022.0,-346.0,163.0,-53.0,-1243.0,-298.0
-26.0,-338.0,-67.0,-1042.0,-370.0,170.0,-73.0,-1287.0,-325.0
-26.0,-345.0,-73.0,-1052.0,-389.0,164.0,-81.0,-1303.0,-358.0
-26.0,-345.0,-75.0,-1054.0,-396.0,150.0,-78.0,-1330.0,-385.0
-26.0,-350.0,-79.0,-1051.0,-394.0,135.0,-78.0,-1319.0,-385.0
-22.0,-342.0,-78.0,-1045.0,-382.0,124.0,-77.0,-1310.0,-388.0
-21.0,-339.0,-77.0,-1040.0,-365.0,115.0,-71.0,-1293.0,-372.0
-22.0,-338.0,-74.0,-1033.0,-344.0,114.0,-65.0,-1296.0,-370.0
-22.0,-343.0,-74.0,-1018.0,-325.0,113.0,-66.0,-1306.0,-369.0
-24.0,-342.0,-77.0,-996.0,-312.0,114.0,-80.0,-1304.0,-386.0
-30.0,-338.0,-84.0,-979.0,-301.0,116.0,-94.0,-1291.0,-410.0
-34.0,-329.0,-93.0,-985.0,-291.0,125.0,-109.0,-1267.0,-443.0
-39.0,-321.0,-101.0,-1016.0,-282.0,136.0,-127.0,-1231.0,-481.0
-38.0,-308.0,-108.0,-1067.0,-275.0,148.0,-130.0,-1195.0,-498.0
-41.0,-301.0,-109.0,-1129.0,-268.0,162.0,-141.0,-1154.0,-516.0
-40.0,-291.0,-114.0,-1200.0,-263.0,173.0,-140.0,-1120.0,-527.0
-40.0,-288.0,-114.0,-1273.0,-258.0,185.0,-138.0,-1102.0,-529.0
-41.0,-284.0,-116.0,-1341.0,-254.0,194.0,-129.0,-1094.0,-531.0
-38.0,-288.0,-120.0,-1396.0,-249.0,203.0,-136.0,-1088.0,-526.0
-40.0,-289.0,-111.0,-1434.0,-241.0,209.0,-143.0,-1097.0,-521.0
-42.0,-290.0,-112.0,-1456.0,-234.0,216.0,-143.0,-1104.0,-516.0
-42.0,-292.0,-114.0,-1468.0,-225.0,225.0,-145.0,-1112.0,-515.0
-43.0,-293.0,-113.0,-1470.0,-215.0,232.0,-144.0,-1121.0,-519.0
-40.0,-296.0,-113.0,-1466.0,-203.0,231.0,-146.0,-1116.0,-529.0
-40.0,-298.0,-117.0,-1456.0,-187.0,231.0,-145.0,-1117.0,-540.0
-37.0,-289.0,-118.0,-1447.0,-168.0,231.0,-133.0,-1095.0,-530.0
-37.0,-285.0,-115.0,-1438.0,-146.0,236.0,-140.0,-1079.0,-530.0
-38.0,-281.0,-116.0,-1432.0,-126.0,246.0,-136.0,-1059.0,-528.0
-39.0,-275.0,-114.0,-1431.0,-116.0,255.0,-137.0,-1052.0,-529.0
-42.0,-273.0,-112.0,-1432.0,-112.0,257.0,-137.0,-1042.0,-524.0
-38.0,-269.0,-113.0,-1441.0,-116.0,258.0,-133.0,-1030.0,-518.0
-37.0,-266.0,-112.0,-1456.0,-122.0,255.0,-129.0,-1023.0,-517.0
-36.0,-262.0,-114.0,-1475.0,-127.0,248.0,-121.0,-1000.0,-521.0
-35.0,-263.0,-113.0,-1497.0,-130.0,237.0,-117.0,-993.0,-526.0
-29.0,-259.0,-114.0,-1512.0,-129.0,226.0,-117.0,-980.0,-519.0
-35.0,-256.0,-114.0,-1525.0,-126.0,215.0,-111.0,-967.0,-522.0
-34.0,-255.0,-111.0,-1536.0,-122.0,204.0,-111.0,-956.0,-525.0
-34.0,-250.0,-113.0,-1543.0,-121.0,194.0,-114.0,-940.0,-524.0
-38.0,-246.0,-114.0,-1549.0,-123.0,184.0,-119.0,-936.0,-529.0
-37.0,-246.0,-114.0,-1557.0,-129.0,173.0,-126.0,-927.0,-534.0
-35.0,-244.0,-115.0,-1569.0,-137.0,167.0,-136.0,-921.0,-532.0
-41.0,-239.0,-120.0,-1579.0,-146.0,158.0,-144.0,-914.0,-556.0
-41.0,-238.0,-120.0,-1588.0,-155.0,154.0,-144.0,-895.0,-553.0
-41.0,-236.0,-120.0,-1595.0,-162.0,152.0,-149.0,-891.0,-559.0
-40.0,-233.0,-124.0,-1597.0,-167.0,153.0,-149.0,-883.0,-565.0
-40.0,-229.0,-124.0,-1603.0,-166.0,162.0,-150.0,-866.0,-570.0
-40.0,-228.0,-126.0,-1610.0,-160.0,172.0,-151.0,-865.0,-585.0
-41.0,-227.0,-130.0,-1615.0,-151.0,189.0,-138.0,-863.0,-594.0
-37.0,-227.0,-133.0,-1613.0,-140.0,203.0,-128.0,-861.0,-598.0
-34.0,-226.0,-131.0,-1606.0,-125.0,216.0,-130.0,-865.0,-604.0
-32.0,-230.0,-135.0,-1591.0,-108.0,225.0,-120.0,-865.0,-625.0
-34.0,-230.0,-135.0,-1576.0,-86.0,230.0,-119.0,-863.0,-630.0
-34.0,-231.0,-142.0,-1559.0,-64.0,231.0,-117.0,-861.0,-640.0
-35.0,-230.0,-138.0,-1536.0,-42.0,231.0,-117.0,-855.0,-641.0
-34.0,-226.0,-142.0,-1508.0,-24.0,228.0,-119.0,-849.0,-649.0
-39.0,-222.0,-143.0,-1481.0,-5.0,224.0,-139.0,-836.0,-644.0
-42.0,-219.0,-141.0,-1453.0,11.0,218.0,-144.0,-829.0,-645.0
-40.0,-221.0,-139.0,-1419.0,27.0,209.0,-150.0,-827.0,-636.0
-38.0,-225.0,-137.0,-1383.0,42.0,200.0,-145.0,-829.0,-636.0
-42.0,-227.0,-141.0,-1346.0,58.0,193.0,-144.0,-846.0,-637.0
-38.0,-225.0,-141.0,-1306.0,78.0,186.0,-149.0,-846.0,-632.0
-39.0,-225.0,-141.0,-1271.0,96.0,181.0,-145.0,-838.0,-637.0
-39.0,-223.0,-142.0,-1238.0,111.0,176.0,-147.0,-838.0,-632.0
-42.0,-223.0,-143.0,-1208.0,126.0,172.0,-145.0,-841.0,-638.0
-40.0,-225.0,-144.0,-1178.0,140.0,168.0,-144.0,-838.0,-643.0
-42.0,-223.0,-140.0,-1145.0,147.0,162.0,-151.0,-836.0,-643.0
-41.0,-224.0,-143.0,-1110.0,152.0,150.0,-153.0,-839.0,-639.0
-45.0,-224.0,-141.0,-1072.0,150.0,138.0,-160.0,-842.0,-640.0
-48.0,-222.0,-142.0,-1031.0,145.0,125.0,-160.0,-838.0,-645.0
-43.0,-223.0,-144.0,-995.0,145.0,113.0,-158.0,-838.0,-654.0
-43.0,-221.0,-145.0,-960.0,143.0,95.0,-157.0,-831.0,-665.0
-44.0,-221.0,-148.0,-927.0,141.0,78.0,-156.0,-830.0,-676.0
-45.0,-219.0,-151.0,-894.0,141.0,56.0,-165.0,-820.0,-677.0
-45.0,-219.0,-154.0,-857.0,140.0,40.0,-161.0,-817.0,-692.0
-46.0,-217.0,-158.0,-818.0,153.0,27.0,-167.0,-813.0,-702.0
-47.0,-215.0,-161.0,-773.0,177.0,18.0,-175.0,-809.0,-712.0
-47.0,-217.0,-160.0,-726.0,209.0,14.0,-168.0,-813.0,-718.0
-48.0,-216.0,-158.0,-673.0,239.0,9.0,-174.0,-816.0,-703.0
-44.0,-220.0,-157.0,-618.0,264.0,11.0,-171.0,-821.0,-706.0
-47.0,-219.0,-154.0,-560.0,297.0,12.0,-168.0,-830.0,-700.0
-41.0,-223.0,-152.0,-498.0,327.0,11.0,-170.0,-831.0,-700.0
-46.0,-225.0,-151.0,-432.0,353.0,8.0,-172.0,-831.0,-699.0
-46.0,-218.0,-158.0,-379.0,379.0,4.0,-173.0,-818.0,-696.0
-43.0,-219.0,-167.0,-308.0,416.0,2.0,-177.0,-805.0,-690.0
-53.0,-218.0,-148.0,-241.0,449.0,2.0,-180.0,-789.0,-693.0
-46.0,-222.0,-159.0,-175.0,472.0,6.0,-166.0,-784.0,-698.0
-40.0,-210.0,-157.0,-104.0,501.0,7.0,-151.0,-774.0,-728.0
-44.0,-206.0,-176.0,-34.0,533.0,11.0,-154.0,-768.0,-755.0
-35.0,-208.0,-184.0,35.0,554.0,22.0,-136.0,-754.0,-791.0
-32.0,-203.0,-192.0,96.0,568.0,36.0,-122.0,-764.0,-835.0
-32.0,-202.0,-190.0,138.0,579.0,46.0,-122.0,-760.0,-855.0
-34.0,-205.0,-197.0,166.0,574.0,50.0,-106.0,-772.0,-877.0
-27.0,-206.0,-200.0,182.0,563.0,47.0,-101.0,-763.0,-881.0
-28.0,-199.0,-193.0,183.0,545.0,33.0,-100.0,-752.0,-872.0
-31.0,-197.0,-192.0,178.0,521.0,18.0,-97.0,-735.0,-849.0
-28.0,-191.0,-183.0,168.0,481.0,1.0,-92.0,-712.0,-813.0
-27.0,-188.0,-176.0,149.0,435.0,-18.0,-84.0,-706.0,-773.0
-20.0,-185.0,-163.0,136.0,381.0,-43.0,-80.0,-688.0,-739.0
-23.0,-179.0,-153.0,129.0,320.0,-69.0,-80.0,-677.0,-707.0
-23.0,-174.0,-146.0,135.0,260.0,-98.0,-74.0,-661.0,-672.0
-24.0,-176.0,-141.0,147.0,210.0,-120.0,-78.0,-647.0,-657.0
-28.0,-168.0,-144.0,166.0,171.0,-137.0,-90.0,-636.0,-650.0
-30.0,-169.0,-144.0,192.0,145.0,-152.0,-99.0,-622.0,-644.0
-28.0,-165.0,-142.0,226.0,135.0,-161.0,-108.0,-615.0,-641.0
-26.0,-165.0,-143.0,263.0,140.0,-169.0,-94.0,-619.0,-650.0
-27.0,-164.0,-142.0,298.0,154.0,-184.0,-106.0,-612.0,-646.0
-28.0,-163.0,-147.0,326.0,170.0,-196.0,-102.0,-595.0,-647.0
-28.0,-158.0,-142.0,347.0,187.0,-207.0,-101.0,-589.0,-643.0
-26.0,-157.0,-142.0,353.0,208.0,-214.0,-99.0,-578.0,-645.0
-29.0,-157.0,-141.0,339.0,222.0,-221.0,-97.0,-569.0,-633.0
-27.0,-154.0,-138.0,309.0,231.0,-226.0,-96.0,-571.0,-624.0
-24.0,-150.0,-139.0,265.0,240.0,-229.0,-92.0,-564.0,-617.0
-28.0,-151.0,-135.0,212.0,250.0,-237.0,-87.0,-563.0,-608.0
-24.0,-150.0,-135.0,159.0,259.0,-246.0,-87.0,-563.0,-597.0
-24.0,-154.0,-126.0,110.0,263.0,-248.0,-87.0,-567.0,-596.0
-25.0,-157.0,-129.0,70.0,270.0,-248.0,-86.0,-578.0,-600.0
-23.0,-154.0,-129.0,36.0,273.0,-247.0,-88.0,-582.0,-592.0
-23.0,-160.0,-130.0,6.0,276.0,-240.0,-87.0,-586.0,-592.0
-19.0,-160.0,-132.0,-13.0,285.0,-233.0,-81.0,-593.0,-600.0
-24.0,-162.0,-133.0,-22.0,298.0,-227.0,-89.0,-599.0,-599.0
-24.0,-167.0,-132.0,-19.0,310.0,-218.0,-92.0,-617.0,-603.0
-26.0,-173.0,-136.0,-5.0,321.0,-208.0,-82.0,-628.0,-615.0
-24.0,-175.0,-139.0,10.0,332.0,-204.0,-83.0,-639.0,-621.0
-25.0,-172.0,-141.0,27.0,338.0,-204.0,-76.0,-657.0,-641.0
-24.0,-183.0,-140.0,41.0,344.0,-204.0,-81.0,-663.0,-643.0
-22.0,-183.0,-146.0,55.0,343.0,-202.0,-81.0,-681.0,-653.0
-25.0,-188.0,-151.0,68.0,337.0,-201.0,-89.0,-692.0,-681.0
-25.0,-191.0,-151.0,81.0,338.0,-207.0,-87.0,-714.0,-678.0
-22.0,-201.0,-153.0,108.0,340.0,-216.0,-88.0,-731.0,-677.0
-25.0,-202.0,-148.0,148.0,338.0,-238.0,-83.0,-750.0,-677.0
-30.0,-206.0,-154.0,195.0,332.0,-260.0,-101.0,-759.0,-681.0
-31.0,-203.0,-150.0,250.0,322.0,-277.0,-103.0,-766.0,-684.0
-24.0,-204.0,-152.0,308.0,310.0,-292.0,-97.0,-773.0,-694.0
-31.0,-206.0,-156.0,358.0,301.0,-309.0,-95.0,-770.0,-690.0
-25.0,-205.0,-151.0,407.0,292.0,-321.0,-94.0,-763.0,-680.0
-19.0,-204.0,-153.0,455.0,284.0,-332.0,-68.0,-754.0,-690.0
-14.0,-199.0,-155.0,489.0,278.0,-349.0,-64.0,-747.0,-691.0
-15.0,-195.0,-152.0,512.0,273.0,-368.0,-53.0,-740.0,-672.0
-10.0,-194.0,-153.0,528.0,267.0,-380.0,-51.0,-725.0,-670.0
-16.0,-189.0,-145.0,543.0,264.0,-388.0,-47.0,-709.0,-658.0
-15.0,-188.0,-141.0,548.0,262.0,-393.0,-48.0,-692.0,-647.0
-16.0,-182.0,-140.0,550.0,258.0,-393.0,-50.0,-683.0,-634.0
-9.0,-177.0,-133.0,543.0,250.0,-387.0,-42.0,-657.0,-616.0
-10.0,-170.0,-131.0,529.0,241.0,-377.0,-34.0,-633.0,-602.0
-9.0,-163.0,-133.0,508.0,233.0,-372.0,-23.0,-605.0,-594.0
-5.0,-156.0,-128.0,478.0,222.0,-366.0,-19.0,-578.0,-584.0
-4.0,-149.0,-125.0,446.0,210.0,-358.0,-2.0,-555.0,-571.0
0.0,-145.0,-116.0,406.0,201.0,-346.0,-2.0,-546.0,-552.0
0.0,-146.0,-122.0,374.0,196.0,-337.0,4.0,-539.0,-550.0
1.0,-144.0,-119.0,354.0,190.0,-327.0,13.0,-537.0,-548.0
0.0,-147.0,-114.0,348.0,178.0,-323.0,13.0,-536.0,-530.0
-3.0,-149.0,-112.0,357.0,161.0,-317.0,4.0,-546.0,-526.0
-6.0,-146.0,-111.0,364.0,144.0,-312.0,-2.0,-547.0,-512.0
-9.0,-152.0,-109.0,366.0,126.0,-301.0,-11.0,-551.0,-509.0
-3.0,-151.0,-110.0,371.0,110.0,-280.0,-18.0,-556.0,-497.0
-6.0,-154.0,-102.0,385.0,97.0,-256.0,-12.0,-568.0,-493.0
-8.0,-154.0,-99.0,404.0,81.0,-231.0,-5.0,-570.0,-479.0
-5.0,-158.0,-101.0,443.0,69.0,-207.0,-9.0,-579.0,-471.0
-8.0,-158.0,-103.0,491.0,58.0,-183.0,-23.0,-577.0,-477.0
-10.0,-157.0,-97.0,539.0,53.0,-162.0,-34.0,-569.0,-473.0
-10.0,-151.0,-97.0,585.0,54.0,-138.0,-29.0,-555.0,-456.0
-11.0,-148.0,-98.0,632.0,53.0,-112.0,-36.0,-544.0,-457.0
-7.0,-145.0,-97.0,672.0,49.0,-85.0,-21.0,-530.0,-460.0
-4.0,-143.0,-102.0,711.0,61.0,-67.0,-10.0,-520.0,-454.0
-2.0,-139.0,-101.0,739.0,66.0,-55.0,4.0,-503.0,-476.0
-6.0,-131.0,-103.0,754.0,74.0,-44.0,-8.0,-489.0,-483.0
1.0,-131.0,-106.0,752.0,85.0,-25.0,4.0,-486.0,-493.0
2.0,-129.0,-106.0,736.0,100.0,-12.0,22.0,-479.0,-492.0
5.0,-128.0,-108.0,708.0,117.0,-8.0,19.0,-478.0,-500.0
10.0,-129.0,-111.0,677.0,125.0,-1.0,36.0,-478.0,-503.0
7.0,-132.0,-113.0,649.0,137.0,4.0,46.0,-481.0,-508.0
11.0,-133.0,-110.0,621.0,146.0,3.0,54.0,-490.0,-503.0
10.0,-138.0,-112.0,599.0,151.0,2.0,59.0,-499.0,-511.0
12.0,-138.0,-111.0,574.0,152.0,-2.0,57.0,-506.0,-513.0
7.0,-141.0,-116.0,551.0,145.0,-7.0,52.0,-516.0,-521.0
7.0,-141.0,-115.0,530.0,132.0,-10.0,39.0,-519.0,-523.0
3.0,-141.0,-117.0,511.0,118.0,-12.0,37.0,-530.0,-541.0
2.0,-146.0,-123.0,495.0,103.0,-14.0,31.0,-533.0,-544.0
3.0,-144.0,-126.0,483.0,89.0,-18.0,25.0,-534.0,-574.0
0.0,-146.0,-129.0,467.0,79.0,-20.0,9.0,-539.0,-585.0
0.0,-148.0,-132.0,458.0,67.0,-24.0,-13.0,-546.0,-602.0
-9.0,-148.0,-135.0,455.0,61.0,-26.0,-26.0,-553.0,-612.0
-7.0,-155.0,-139.0,459.0,60.0,-21.0,-30.0,-578.0,-630.0
-11.0,-160.0,-142.0,454.0,59.0,-25.0,-32.0,-589.0,-631.0
-13.0,-164.0,-143.0,447.0,61.0,-37.0,-45.0,-601.0,-638.0
-20.0,-164.0,-143.0,435.0,62.0,-48.0,-66.0,-613.0,-647.0
-19.0,-170.0,-143.0,419.0,64.0,-54.0,-74.0,-625.0,-646.0
-22.0,-176.0,-145.0,406.0,68.0,-54.0,-78.0,-650.0,-652.0
-24.0,-177.0,-147.0,390.0,74.0,-51.0,-75.0,-665.0,-658.0
-22.0,-182.0,-146.0,365.0,78.0,-42.0,-74.0,-674.0,-658.0
-17.0,-183.0,-142.0,340.0,79.0,-32.0,-53.0,-692.0,-648.0
-15.0,-188.0,-144.0,326.0,85.0,-25.0,-37.0,-703.0,-651.0
-10.0,-192.0,-145.0,311.0,97.0,-22.0,-23.0,-711.0,-655.0
-5.0,-192.0,-144.0,296.0,108.0,-16.0,-16.0,-726.0,-653.0
-2.0,-195.0,-146.0,281.0,119.0,-7.0,-3.0,-738.0,-654.0
-2.0,-200.0,-144.0,263.0,127.0,3.0,3.0,-744.0,-654.0
0.0,-202.0,-146.0,244.0,133.0,10.0,13.0,-754.0,-651.0
1.0,-208.0,-147.0,224.0,135.0,23.0,14.0,-777.0,-651.0
0.0,-210.0,-145.0,211.0,128.0,35.0,18.0,-798.0,-645.0
4.0,-220.0,-139.0,215.0,114.0,45.0,23.0,-814.0,-638.0
9.0,-226.0,-142.0,229.0,99.0,50.0,50.0,-841.0,-632.0
8.0,-232.0,-140.0,253.0,88.0,48.0,48.0,-851.0,-626.0
3.0,-228.0,-136.0,283.0,80.0,43.0,32.0,-857.0,-619.0
0.0,-230.0,-129.0,320.0,69.0,43.0,23.0,-859.0,-604.0
-2.0,-231.0,-134.0,359.0,52.0,40.0,15.0,-861.0,-602.0
-3.0,-226.0,-129.0,392.0,35.0,32.0,5.0,-850.0,-601.0
-5.0,-225.0,-129.0,419.0,18.0,25.0,-11.0,-842.0,-601.0
-5.0,-221.0,-129.0,441.0,3.0,21.0,-19.0,-823.0,-613.0
-5.0,-214.0,-138.0,460.0,-11.0,16.0,-16.0,-807.0,-621.0
-8.0,-214.0,-139.0,470.0,-16.0,8.0,-16.0,-786.0,-631.0
-6.0,-203.0,-143.0,471.0,-14.0,-7.0,-23.0,-772.0,-649.0
-10.0,-203.0,-143.0,457.0,-8.0,-19.0,-34.0,-757.0,-653.0
-15.0,-197.0,-148.0,436.0,-3.0,-31.0,-41.0,-751.0,-653.0
-12.0,-200.0,-143.0,413.0,2.0,-44.0,-39.0,-755.0,-652.0
-10.0,-198.0,-146.0,390.0,9.0,-60.0,-42.0,-757.0,-653.0
-17.0,-202.0,-143.0,369.0,15.0,-70.0,-50.0,-752.0,-643.0
-14.0,-202.0,-138.0,355.0,20.0,-80.0,-48.0,-758.0,-629.0
-13.0,-203.0,-133.0,346.0,24.0,-87.0,-49.0,-770.0,-621.0
-15.0,-206.0,-133.0,339.0,24.0,-91.0,-46.0,-776.0,-611.0
-15.0,-210.0,-132.0,329.0,21.0,-96.0,-49.0,-786.0,-598.0
-16.0,-217.0,-127.0,320.0,16.0,-99.0,-50.0,-800.0,-585.0
-17.0,-219.0,-121.0,311.0,7.0,-96.0,-54.0,-807.0,-558.0
-11.0,-220.0,-123.0,318.0,0.0,-91.0,-36.0,-825.0,-565.0
-12.0,-223.0,-122.0,320.0,-11.0,-88.0,-25.0,-837.0,-554.0
-10.0,-221.0,-122.0,323.0,-23.0,-84.0,-21.0,-832.0,-550.0
-6.0,-222.0,-120.0,325.0,-37.0,-85.0,-13.0,-836.0,-544.0
-6.0,-223.0,-122.0,326.0,-47.0,-84.0,-5.0,-833.0,-549.0
-5.0,-224.0,-122.0,321.0,-49.0,-86.0,3.0,-838.0,-548.0
-2.0,-224.0,-119.0,316.0,-52.0,-84.0,15.0,-838.0,-546.0
-2.0,-226.0,-119.0,312.0,-50.0,-80.0,14.0,-838.0,-533.0
0.0,-222.0,-120.0,312.0,-46.0,-75.0,26.0,-843.0,-539.0
2.0,-228.0,-117.0,313.0,-41.0,-73.0,32.0,-850.0,-541.0
4.0,-224.0,-119.0,315.0,-32.0,-71.0,36.0,-850.0,-542.0
3.0,-225.0,-115.0,320.0,-22.0,-69.0,40.0,-844.0,-539.0
6.0,-225.0,-118.0,325.0,-14.0,-67.0,37.0,-849.0,-526.0
6.0,-224.0,-116.0,335.0,-9.0,-66.0,33.0,-842.0,-521.0
4.0,-224.0,-113.0,345.0,-4.0,-61.0,39.0,-846.0,-517.0
2.0,-223.0,-111.0,356.0,-2.0,-59.0,34.0,-838.0,-514.0
2.0,-223.0,-108.0,365.0,-1.0,-57.0,35.0,-839.0,-513.0
1.0,-224.0,-113.0,374.0,-2.0,-57.0,25.0,-836.0,-512.0
0.0,-221.0,-113.0,383.0,-3.0,-61.0,23.0,-833.0,-506.0
0.0,-222.0,-113.0,390.0,-5.0,-66.0,16.0,-841.0,-513.0
0.0,-223.0,-117.0,393.0,-6.0,-68.0,9.0,-836.0,-513.0
0.0,-227.0,-113.0,391.0,-8.0,-71.0,1.0,-842.0,-516.0
-3.0,-226.0,-114.0,388.0,-10.0,-72.0,-4.0,-857.0,-518.0
-5.0,-229.0,-110.0,385.0,-9.0,-73.0,-7.0,-856.0,-525.0
-7.0,-229.0,-114.0,380.0,-7.0,-74.0,-4.0,-862.0,-527.0
-3.0,-231.0,-114.0,375.0,-3.0,-73.0,-8.0,-867.0,-533.0
-4.0,-227.0,-117.0,366.0,2.0,-69.0,-6.0,-862.0,-542.0
-3.0,-229.0,-120.0,350.0,4.0,-68.0,-3.0,-862.0,-550.0
-2.0,-228.0,-118.0,332.0,10.0,-63.0,-3.0,-864.0,-549.0
-1.0,-226.0,-123.0,306.0,12.0,-60.0,1.0,-857.0,-552.0
-1.0,-226.0,-120.0,283.0,14.0,-58.0,-3.0,-861.0,-551.0
0.0,-225.0,-118.0,256.0,14.0,-56.0,1.0,-855.0,-550.0
-2.0,-226.0,-116.0,232.0,14.0,-53.0,2.0,-852.0,-541.0
-1.0,-224.0,-116.0,209.0,12.0,-51.0,0.0,-853.0,-540.0
-6.0,-225.0,-115.0,185.0,11.0,-46.0,1.0,-851.0,-529.0
-2.0,-224.0,-111.0,168.0,11.0,-43.0,6.0,-850.0,-513.0
-2.0,-225.0,-114.0,152.0,13.0,-38.0,5.0,-850.0,-511.0
-5.0,-226.0,-107.0,141.0,14.0,-34.0,-3.0,-849.0,-497.0
-1.0,-227.0,-107.0,136.0,14.0,-30.0,3.0,-853.0,-505.0
-5.0,-228.0,-106.0,137.0,15.0,-26.0,4.0,-852.0,-500.0
-1.0,-228.0,-106.0,138.0,14.0,-23.0,1.0,-853.0,-502.0
1.0,-231.0,-107.0,142.0,15.0,-20.0,8.0,-857.0,-498.0
-2.0,-229.0,-106.0,148.0,14.0,-17.0,8.0,-853.0,-508.0
-4.0,-224.0,-110.0,148.0,13.0,-17.0,6.0,-857.0,-508.0
-4.0,-224.0,-109.0,146.0,10.0,-15.0,5.0,-852.0,-510.0
-2.0,-230.0,-108.0,143.0,7.0,-17.0,4.0,-852.0,-509.0
-2.0,-227.0,-110.0,138.0,4.0,-19.0,6.0,-857.0,-509.0
-6.0,-228.0,-110.0,134.0,0.0,-23.0,1.0,-855.0,-515.0
-7.0,-227.0,-111.0,129.0,-4.0,-28.0,-9.0,-858.0,-506.0
-4.0,-226.0,-112.0,122.0,-6.0,-31.0,-11.0,-858.0,-503.0
-6.0,-225.0,-107.0,111.0,-10.0,-33.0,-16.0,-863.0,-503.0
-8.0,-229.0,-112.0,98.0,-13.0,-35.0,-14.0,-861.0,-505.0
-8.0,-230.0,-109.0,82.0,-16.0,-35.0,-16.0,-861.0,-499.0
-9.0,-227.0,-109.0,65.0,-20.0,-35.0,-10.0,-862.0,-497.0
-6.0,-228.0,-109.0,49.0,-24.0,-34.0,-11.0,-866.0,-500.0
-5.0,-231.0,-104.0,32.0,-29.0,-32.0,-8.0,-874.0,-497.0
-6.0,-231.0,-108.0,20.0,-33.0,-30.0,0.0,-871.0,-499.0
-2.0,-233.0,-108.0,11.0,-37.0,-31.0,-1.0,-879.0,-497.0
-3.0,-233.0,-108.0,5.0,-41.0,-31.0,-13.0,-878.0,-494.0
-6.0,-233.0,-107.0,4.0,-45.0,-33.0,-12.0,-882.0,-493.0
-6.0,-234.0,-104.0,7.0,-51.0,-35.0,-12.0,-885.0,-492.0
-7.0,-237.0,-102.0,13.0,-55.0,-40.0,-12.0,-884.0,-489.0
-6.0,-237.0,-106.0,19.0,-58.0,-42.0,-12.0,-881.0,-488.0
-8.0,-234.0,-103.0,25.0,-59.0,-43.0,-9.0,-883.0,-483.0
-6.0,-233.0,-102.0,31.0,-58.0,-44.0,-6.0,-882.0,-486.0
-2.0,-234.0,-103.0,36.0,-56.0,-47.0,-10.0,-883.0,-485.0
-5.0,-235.0,-100.0,36.0,-54.0,-46.0,-8.0,-885.0,-471.0
-4.0,-234.0,-101.0,36.0,-51.0,-47.0,-5.0,-887.0,-472.0
-4.0,-237.0,-102.0,34.0,-49.0,-47.0,-5.0,-887.0,-473.0
-3.0,-234.0,-98.0,31.0,-48.0,-47.0,1.0,-889.0,-472.0
-2.0,-235.0,-98.0,28.0,-45.0,-48.0,2.0,-889.0,-470.0
-6.0,-237.0,-99.0,23.0,-44.0,-48.0,0.0,-888.0,-474.0
-4.0,-237.0,-100.0,20.0,-44.0,-49.0,2.0,-894.0,-476.0
-1.0,-240.0,-101.0,17.0,-43.0,-49.0,3.0,-892.0,-481.0
0.0,-236.0,-101.0,17.0,-41.0,-52.0,6.0,-896.0,-478.0
0.0,-235.0,-106.0,17.0,-36.0,-53.0,6.0,-895.0,-478.0
-3.0,-235.0,-100.0,18.0,-33.0,-54.0,7.0,-889.0,-473.0
-1.0,-235.0,-101.0,16.0,-32.0,-56.0,6.0,-889.0,-476.0
-6.0,-233.0,-100.0,12.0,-28.0,-57.0,1.0,-885.0,-474.0
-2.0,-234.0,-100.0,6.0,-24.0,-56.0,2.0,-881.0,-473.0
0.0,-236.0,-104.0,-1.0,-21.0,-53.0,7.0,-882.0,-471.0
-3.0,-233.0,-101.0,-9.0,-16.0,-54.0,6.0,-883.0,-467.0
-1.0,-234.0,-98.0,-19.0,-11.0,-53.0,8.0,-882.0,-464.0
-1.0,-234.0,-99.0,-26.0,-6.0,-52.0,7.0,-884.0,-458.0
-1.0,-232.0,-98.0,-35.0,-3.0,-50.0,1.0,-883.0,-460.0
-4.0,-236.0,-98.0,-43.0,-3.0,-49.0,0.0,-886.0,-462.0
-2.0,-234.0,-99.0,-53.0,-2.0,-49.0,0.0,-887.0,-460.0
-3.0,-239.0,-98.0,-61.0,-1.0,-48.0,-8.0,-886.0,-461.0
-10.0,-244.0,-90.0,-66.0,1.0,-47.0,-8.0,-893.0,-454.0
-6.0,-240.0,-96.0,-71.0,5.0,-44.0,-12.0,-899.0,-453.0
-7.0,-242.0,-96.0,-74.0,8.0,-41.0,-12.0,-911.0,-457.0
-7.0,-241.0,-99.0,-77.0,10.0,-38.0,-12.0,-913.0,-452.0
-4.0,-243.0,-96.0,-78.0,13.0,-36.0,0.0,-914.0,-450.0
-5.0,-247.0,-93.0,-77.0,13.0,-33.0,-10.0,-914.0,-453.0
-6.0,-243.0,-97.0,-76.0,16.0,-28.0,-7.0,-922.0,-447.0
-2.0,-244.0,-96.0,-76.0,19.0,-24.0,0.0,-914.0,-447.0
-5.0,-244.0,-98.0,-76.0,22.0,-22.0,2.0,-919.0,-447.0
-7.0,-243.0,-93.0,-73.0,24.0,-20.0,1.0,-920.0,-451.0
-1.0,-244.0,-95.0,-69.0,27.0,-21.0,2.0,-921.0,-449.0
-1.0,-246.0,-95.0,-66.0,31.0,-20.0,5.0,-915.0,-449.0
-1.0,-244.0,-94.0,-60.0,34.0,-20.0,4.0,-914.0,-455.0
-2.0,-246.0,-96.0,-55.0,36.0,-20.0,2.0,-912.0,-450.0
-1.0,-241.0,-95.0,-50.0,39.0,-20.0,3.0,-909.0,-449.0
-1.0,-242.0,-92.0,-48.0,43.0,-20.0,6.0,-903.0,-453.0
-4.0,-236.0,-98.0,-45.0,48.0,-17.0,-4.0,-906.0,-452.0
-5.0,-241.0,-93.0,-46.0,51.0,-17.0,2.0,-909.0,-445.0
-2.0,-241.0,-96.0,-46.0,53.0,-13.0,1.0,-903.0,-446.0
-3.0,-240.0,-97.0,-49.0,54.0,-10.0,3.0,-904.0,-450.0
-2.0,-238.0,-95.0,-51.0,56.0,-7.0,-4.0,-897.0,-450.0
-2.0,-237.0,-98.0,-51.0,55.0,-6.0,-2.0,-903.0,-447.0
-2.0,-237.0,-96.0,-50.0,57.0,-5.0,-3.0,-897.0,-450.0
-2.0,-237.0,-98.0,-49.0,58.0,-2.0,-13.0,-895.0,-452.0
-7.0,-238.0,-93.0,-50.0,57.0,0.0,-13.0,-893.0,-446.0
-7.0,-237.0,-95.0,-50.0,58.0,2.0,-13.0,-889.0,-448.0
-5.0,-237.0,-98.0,-50.0,57.0,3.0,-7.0,-889.0,-451.0
-8.0,-236.0,-99.0,-50.0,60.0,2.0,-15.0,-887.0,-453.0
-7.0,-234.0,-96.0,-51.0,60.0,2.0,-14.0,-892.0,-451.0
-10.0,-237.0,-95.0,-54.0,63.0,4.0,-15.0,-889.0,-451.0
-8.0,-233.0,-93.0,-58.0,63.0,5.0,-11.0,-893.0,-451.0
-5.0,-238.0,-93.0,-61.0,66.0,8.0,-6.0,-897.0,-451.0
-6.0,-237.0,-98.0,-63.0,68.0,7.0,-8.0,-891.0,-454.0
-3.0,-238.0,-93.0,-65.0,68.0,9.0,-7.0,-890.0,-448.0
-4.0,-238.0,-97.0,-66.0,71.0,10.0,-8.0,-898.0,-447.0
-6.0,-239.0,-98.0,-67.0,71.0,9.0,-8.0,-893.0,-449.0
-5.0,-239.0,-93.0,-69.0,71.0,10.0,-6.0,-899.0,-448.0
-5.0,-239.0,-95.0,-69.0,72.0,10.0,-6.0,-896.0,-445.0
-3.0,-241.0,-95.0,-70.0,71.0,11.0,-3.0,-899.0,-449.0
-3.0,-242.0,-97.0,-71.0,71.0,12.0,0.0,-901.0,-450.0
-1.0,-242.0,-99.0,-71.0,70.0,11.0,-3.0,-907.0,-450.0
-3.0,-245.0,-94.0,-69.0,72.0,11.0,1.0,-907.0,-455.0
-2.0,-242.0,-96.0,-65.0,74.0,10.0,-2.0,-910.0,-451.0
-4.0,-241.0,-100.0,-61.0,76.0,11.0,-3.0,-907.0,-455.0
-1.0,-242.0,-101.0,-57.0,80.0,11.0,-4.0,-910.0,-462.0
-4.0,-241.0,-100.0,-52.0,85.0,11.0,-2.0,-907.0,-454.0
-6.0,-243.0,-94.0,-48.0,87.0,11.0,3.0,-908.0,-457.0
-5.0,-240.0,-95.0,-45.0,93.0,13.0,-4.0,-904.0,-464.0
-4.0,-240.0,-95.0,-41.0,95.0,13.0,2.0,-905.0,-458.0
-1.0,-240.0,-99.0,-40.0,99.0,12.0,0.0,-902.0,-460.0
-4.0,-241.0,-96.0,-40.0,101.0,12.0,0.0,-904.0,-460.0
0.0,-240.0,-98.0,-41.0,103.0,10.0,-2.0,-897.0,-463.0
-3.0,-239.0,-102.0,-43.0,105.0,11.0,0.0,-903.0,-461.0
-1.0,-239.0,-100.0,-47.0,103.0,10.0,7.0,-900.0,-458.0
-3.0,-241.0,-103.0,-50.0,105.0,9.0,0.0,-894.0,-459.0
-2.0,-243.0,-99.0,-50.0,104.0,9.0,1.0,-905.0,-455.0
-2.0,-241.0,-100.0,-51.0,104.0,8.0,0.0,-907.0,-459.0
-3.0,-239.0,-97.0,-48.0,102.0,8.0,4.0,-907.0,-462.0
-7.0,-238.0,-96.0,-45.0,103.0,7.0,-3.0,-906.0,-461.0
-4.0,-241.0,-100.0,-41.0,104.0,7.0,0.0,-903.0,-457.0
-2.0,-237.0,-96.0,-39.0,105.0,7.0,1.0,-903.0,-456.0
-5.0,-237.0,-99.0,-37.0,105.0,7.0,3.0,-902.0,-453.0
-3.0,-241.0,-97.0,-35.0,106.0,8.0,2.0,-900.0,-454.0
0.0,-239.0,-98.0,-30.0,107.0,11.0,-1.0,-900.0,-451.0
-4.0,-240.0,-98.0,-25.0,106.0,12.0,0.0,-902.0,-461.0
-1.0,-243.0,-98.0,-19.0,106.0,11.0,1.0,-904.0,-453.0
0.0,-243.0,-99.0,-11.0,107.0,11.0,0.0,-904.0,-455.0
0.0,-243.0,-96.0,-3.0,108.0,11.0,3.0,-905.0,-452.0
0.0,-242.0,-97.0,4.0,110.0,12.0,0.0,-902.0,-453.0
0.0,-240.0,-100.0,9.0,112.0,12.0,5.0,-905.0,-453.0
-2.0,-241.0,-95.0,13.0,115.0,13.0,6.0,-903.0,-453.0
-2.0,-238.0,-99.0,17.0,117.0,13.0,-3.0,-902.0,-455.0
-4.0,-238.0,-98.0,18.0,119.0,14.0,2.0,-900.0,-458.0
-2.0,-244.0,-96.0,19.0,119.0,11.0,5.0,-905.0,-459.0
-2.0,-240.0,-101.0,18.0,117.0,11.0,0.0,-895.0,-456.0
-1.0,-238.0,-97.0,16.0,117.0,11.0,-4.0,-901.0,-461.0
-3.0,-240.0,-98.0,16.0,116.0,9.0,-2.0,-904.0,-457.0
-4.0,-242.0,-98.0,14.0,116.0,10.0,0.0,-905.0,-462.0
-1.0,-241.0,-100.0,13.0,116.0,9.0,-2.0,-902.0,-457.0
-4.0,-240.0,-97.0,12.0,115.0,10.0,-2.0,-902.0,-460.0
-3.0,-239.0,-100.0,13.0,113.0,12.0,-5.0,-901.0,-460.0
-5.0,-235.0,-100.0,14.0,112.0,13.0,-2.0,-901.0,-463.0
-6.0,-238.0,-98.0,17.0,112.0,14.0,-2.0,-893.0,-466.0
-4.0,-233.0,-100.0,19.0,111.0,15.0,-4.0,-897.0,-465.0
-2.0,-239.0,-99.0,19.0,110.0,16.0,-5.0,-890.0,-465.0
-6.0,-238.0,-97.0,22.0,107.0,16.0,0.0,-895.0,-469.0
-3.0,-235.0,-101.0,24.0,105.0,16.0,-2.0,-890.0,-473.0
-4.0,-237.0,-99.0,26.0,104.0,16.0,-4.0,-894.0,-469.0
-8.0,-236.0,-98.0,29.0,102.0,16.0,1.0,-890.0,-468.0
-4.0,-239.0,-101.0,31.0,100.0,16.0,0.0,-891.0,-474.0
-3.0,-237.0,-100.0,32.0,98.0,14.0,-1.0,-890.0,-474.0
-5.0,-235.0,-97.0,33.0,96.0,13.0,-4.0,-889.0,-474.0
-3.0,-236.0,-100.0,30.0,96.0,12.0,-7.0,-889.0,-483.0
-1.0,-236.0,-103.0,29.0,94.0,9.0,-3.0,-882.0,-480.0
-5.0,-235.0,-103.0,26.0,94.0,7.0,0.0,-891.0,-481.0
-8.0,-233.0,-101.0,22.0,95.0,5.0,-6.0,-887.0,-481.0
-5.0,-236.0,-102.0,18.0,94.0,2.0,-4.0,-887.0,-474.0
-5.0,-238.0,-102.0,14.0,91.0,1.0,-4.0,-889.0,-478.0
-2.0,-238.0,-100.0,10.0,88.0,-1.0,-2.0,-893.0,-479.0
-3.0,-238.0,-99.0,6.0,85.0,-3.0,-3.0,-894.0,-471.0
-3.0,-238.0,-97.0,5.0,83.0,-5.0,-8.0,-888.0,-475.0
-5.0,-240.0,-99.0,6.0,81.0,-5.0,-3.0,-892.0,-475.0
-3.0,-234.0,-100.0,5.0,78.0,-7.0,-4.0,-889.0,-469.0
-3.0,-237.0,-100.0,4.0,76.0,-6.0,-2.0,-890.0,-462.0
0.0,-237.0,-103.0,5.0,75.0,-6.0,0.0,-891.0,-465.0
-1.0,-239.0,-100.0,7.0,74.0,-6.0,1.0,-890.0,-466.0
-2.0,-238.0,-100.0,8.0,74.0,-8.0,-6.0,-891.0,-464.0
-5.0,-235.0,-100.0,7.0,73.0,-7.0,-3.0,-888.0,-466.0
-2.0,-238.0,-100.0,7.0,72.0,-7.0,5.0,-887.0,-477.0
-4.0,-239.0,-101.0,9.0,72.0,-7.0,4.0,-890.0,-468.0
-3.0,-239.0,-100.0,13.0,72.0,-7.0,2.0,-887.0,-478.0
-1.0,-237.0,-98.0,16.0,71.0,-6.0,4.0,-886.0,-470.0
-2.0,-235.0,-100.0,21.0,72.0,-6.0,6.0,-887.0,-474.0
-3.0,-233.0,-97.0,25.0,71.0,-5.0,5.0,-885.0,-474.0
-2.0,-237.0,-101.0,28.0,71.0,-7.0,1.0,-880.0,-472.0
-2.0,-234.0,-102.0,30.0,72.0,-7.0,5.0,-881.0,-471.0
-2.0,-232.0,-104.0,29.0,70.0,-7.0,4.0,-876.0,-479.0
0.0,-232.0,-100.0,27.0,70.0,-7.0,5.0,-877.0,-475.0
0.0,-234.0,-103.0,23.0,70.0,-8.0,3.0,-878.0,-473.0
-5.0,-234.0,-100.0,18.0,69.0,-8.0,4.0,-874.0,-479.0
-1.0,-234.0,-100.0,12.0,71.0,-9.0,12.0,-879.0,-482.0
-2.0,-236.0,-102.0,6.0,71.0,-8.0,6.0,-878.0,-477.0
0.0,-235.0,-104.0,-3.0,71.0,-10.0,8.0,-881.0,-479.0
-1.0,-234.0,-103.0,-6.0,71.0,-10.0,4.0,-885.0,-480.0
-3.0,-235.0,-102.0,-10.0,70.0,-9.0,2.0,-887.0,-480.0
-2.0,-235.0,-99.0,-12.0,70.0,-9.0,6.0,-891.0,-468.0
-2.0,-236.0,-100.0,-14.0,69.0,-8.0,8.0,-888.0,-467.0
0.0,-241.0,-100.0,-13.0,68.0,-9.0,3.0,-892.0,-476.0
0.0,-240.0,-103.0,-15.0,68.0,-9.0,0.0,-891.0,-472.0
-6.0,-237.0,-103.0,-13.0,69.0,-9.0,1.0,-890.0,-472.0
-3.0,-236.0,-101.0,-15.0,67.0,-10.0,2.0,-893.0,-473.0
-3.0,-237.0,-99.0,-16.0,67.0,-9.0,7.0,-889.0,-470.0
-4.0,-236.0,-100.0,-17.0,69.0,-10.0,8.0,-889.0,-478.0
0.0,-237.0,-100.0,-16.0,69.0,-9.0,9.0,-887.0,-475.0
-3.0,-240.0,-99.0,-17.0,70.0,-10.0,4.0,-893.0,-474.0
-2.0,-237.0,-103.0,-16.0,71.0,-11.0,6.0,-890.0,-468.0
0.0,-235.0,-100.0,-17.0,71.0,-10.0,11.0,-887.0,-463.0
-2.0,-239.0,-102.0,-18.0,71.0,-12.0,7.0,-891.0,-467.0
1.0,-239.0,-101.0,-19.0,70.0,-10.0,3.0,-886.0,-467.0
0.0,-236.0,-100.0,-21.0,70.0,-10.0,7.0,-888.0,-468.0
-6.0,-235.0,-94.0,-24.0,72.0,-10.0,8.0,-890.0,-476.0
