acc1_x,acc1_y,acc1_z,gyro_x,gyro_y,gyro_z,acc2_x,acc2_y,acc2_z
-2.0,-235.0,-106.0,-23.0,93.0,7.0,-5.0,-879.0,-495.0
-7.0,-235.0,-102.0,-24.0,93.0,8.0,-7.0,-883.0,-491.0
-2.0,-236.0,-107.0,-23.0,91.0,9.0,-3.0,-878.0,-505.0
-4.0,-237.0,-112.0,-25.0,90.0,10.0,-7.0,-886.0,-498.0
-4.0,-234.0,-102.0,-23.0,90.0,9.0,-5.0,-883.0,-496.0
-8.0,-232.0,-104.0,-23.0,88.0,8.0,-5.0,-885.0,-492.0
-6.0,-235.0,-101.0,-22.0,87.0,9.0,-6.0,-881.0,-494.0
-5.0,-234.0,-104.0,-21.0,86.0,7.0,-4.0,-884.0,-497.0
-5.0,-235.0,-105.0,-19.0,86.0,7.0,-8.0,-880.0,-496.0
-2.0,-232.0,-110.0,-19.0,86.0,8.0,-10.0,-881.0,-492.0
-2.0,-233.0,-107.0,-19.0,87.0,7.0,-7.0,-881.0,-495.0
-4.0,-236.0,-107.0,-20.0,86.0,5.0,-6.0,-874.0,-494.0
-4.0,-237.0,-105.0,-20.0,87.0,5.0,-10.0,-879.0,-496.0
-8.0,-235.0,-106.0,-22.0,86.0,4.0,-8.0,-880.0,-495.0
-4.0,-234.0,-105.0,-22.0,85.0,3.0,-10.0,-879.0,-493.0
-6.0,-235.0,-109.0,-24.0,85.0,3.0,-9.0,-877.0,-495.0
-4.0,-234.0,-107.0,-25.0,85.0,2.0,-9.0,-881.0,-498.0
-4.0,-232.0,-107.0,-24.0,85.0,0.0,-3.0,-884.0,-494.0
-6.0,-233.0,-105.0,-24.0,83.0,0.0,0.0,-882.0,-498.0
-7.0,-234.0,-107.0,-22.0,82.0,1.0,-5.0,-884.0,-497.0
-6.0,-234.0,-106.0,-21.0,82.0,0.0,-7.0,-882.0,-496.0
-2.0,-233.0,-104.0,-20.0,80.0,1.0,-3.0,-884.0,-495.0
-7.0,-235.0,-108.0,-22.0,79.0,0.0,-3.0,-886.0,-498.0
-6.0,-235.0,-109.0,-20.0,78.0,-1.0,-8.0,-884.0,-498.0
-4.0,-232.0,-105.0,-20.0,76.0,-2.0,-8.0,-881.0,-496.0
-1.0,-233.0,-107.0,-20.0,76.0,-2.0,-10.0,-881.0,-491.0
-3.0,-235.0,-105.0,-20.0,73.0,-3.0,-7.0,-877.0,-493.0
-4.0,-233.0,-104.0,-22.0,74.0,-3.0,-10.0,-878.0,-492.0
-4.0,-234.0,-105.0,-23.0,75.0,-4.0,-14.0,-876.0,-492.0
-5.0,-233.0,-103.0,-24.0,76.0,-6.0,-7.0,-883.0,-488.0
-6.0,-232.0,-108.0,-23.0,76.0,-6.0,-10.0,-879.0,-488.0
-6.0,-231.0,-106.0,-24.0,75.0,-5.0,-9.0,-880.0,-492.0
-5.0,-237.0,-103.0,-25.0,76.0,-5.0,-9.0,-879.0,-493.0
-8.0,-233.0,-105.0,-26.0,77.0,-6.0,-8.0,-879.0,-492.0
0.0,-237.0,-105.0,-27.0,78.0,-7.0,-8.0,-884.0,-493.0
-6.0,-233.0,-104.0,-26.0,77.0,-5.0,-3.0,-881.0,-495.0
-2.0,-237.0,-106.0,-25.0,76.0,-6.0,-12.0,-883.0,-493.0
-6.0,-235.0,-106.0,-23.0,76.0,-6.0,-3.0,-881.0,-493.0
-2.0,-237.0,-105.0,-22.0,74.0,-6.0,-9.0,-879.0,-494.0
-5.0,-234.0,-107.0,-20.0,73.0,-6.0,-4.0,-882.0,-493.0
-2.0,-232.0,-107.0,-19.0,71.0,-5.0,-2.0,-878.0,-497.0
-5.0,-232.0,-106.0,-18.0,70.0,-6.0,-2.0,-879.0,-496.0
-3.0,-235.0,-104.0,-18.0,70.0,-5.0,-7.0,-876.0,-499.0
-8.0,-230.0,-107.0,-18.0,70.0,-5.0,-10.0,-884.0,-495.0
-3.0,-230.0,-107.0,-19.0,68.0,-6.0,-3.0,-876.0,-494.0
-7.0,-230.0,-106.0,-19.0,68.0,-6.0,-4.0,-875.0,-497.0
-1.0,-230.0,-107.0,-20.0,68.0,-6.0,-5.0,-876.0,-500.0
-6.0,-230.0,-107.0,-20.0,68.0,-6.0,-7.0,-875.0,-492.0
-5.0,-234.0,-106.0,-20.0,69.0,-6.0,-7.0,-875.0,-495.0
-5.0,-233.0,-104.0,-21.0,71.0,-6.0,-8.0,-878.0,-494.0
-6.0,-232.0,-107.0,-22.0,73.0,-6.0,-5.0,-873.0,-494.0
-4.0,-233.0,-105.0,-23.0,74.0,-4.0,-7.0,-876.0,-494.0
-4.0,-234.0,-107.0,-25.0,76.0,-4.0,-6.0,-879.0,-493.0
-1.0,-236.0,-107.0,-26.0,75.0,-4.0,-8.0,-878.0,-497.0
-3.0,-234.0,-105.0,-25.0,74.0,-2.0,-9.0,-881.0,-495.0
-7.0,-233.0,-108.0,-26.0,75.0,-1.0,-4.0,-886.0,-496.0
-3.0,-236.0,-104.0,-27.0,74.0,0.0,-2.0,-885.0,-493.0
-8.0,-232.0,-106.0,-24.0,75.0,0.0,0.0,-878.0,-493.0
-1.0,-233.0,-107.0,-22.0,74.0,-1.0,-3.0,-881.0,-496.0
-3.0,-234.0,-101.0,-21.0,74.0,-1.0,0.0,-883.0,-495.0
-3.0,-233.0,-103.0,-19.0,75.0,0.0,-9.0,-879.0,-496.0
0.0,-238.0,-105.0,-19.0,74.0,1.0,0.0,-885.0,-492.0
-3.0,-233.0,-107.0,-19.0,73.0,0.0,-5.0,-883.0,-494.0
-4.0,-232.0,-104.0,-19.0,73.0,-1.0,1.0,-877.0,-489.0
-4.0,-232.0,-104.0,-18.0,74.0,0.0,-9.0,-876.0,-491.0
-4.0,-231.0,-105.0,-20.0,72.0,2.0,0.0,-877.0,-494.0
-5.0,-232.0,-104.0,-21.0,75.0,2.0,-4.0,-874.0,-493.0
-3.0,-229.0,-105.0,-22.0,75.0,1.0,1.0,-873.0,-490.0
-1.0,-232.0,-107.0,-23.0,74.0,3.0,2.0,-877.0,-493.0
-2.0,-234.0,-111.0,-23.0,74.0,2.0,-2.0,-878.0,-495.0
-4.0,-233.0,-104.0,-23.0,77.0,2.0,0.0,-878.0,-492.0
0.0,-235.0,-108.0,-23.0,77.0,2.0,-5.0,-878.0,-493.0
-1.0,-235.0,-105.0,-23.0,77.0,3.0,2.0,-884.0,-494.0
-3.0,-235.0,-104.0,-22.0,78.0,3.0,0.0,-881.0,-495.0
-1.0,-236.0,-105.0,-23.0,78.0,2.0,1.0,-881.0,-495.0
-3.0,-233.0,-107.0,-23.0,79.0,2.0,-8.0,-884.0,-495.0
-5.0,-236.0,-107.0,-24.0,80.0,3.0,0.0,-885.0,-492.0
-1.0,-234.0,-106.0,-23.0,80.0,5.0,-4.0,-885.0,-491.0
-6.0,-237.0,-106.0,-23.0,79.0,3.0,-2.0,-884.0,-493.0
-5.0,-235.0,-102.0,-23.0,79.0,4.0,1.0,-885.0,-491.0
-4.0,-234.0,-107.0,-21.0,78.0,3.0,-3.0,-885.0,-492.0
-7.0,-235.0,-106.0,-21.0,78.0,3.0,-8.0,-889.0,-492.0
-4.0,-234.0,-108.0,-21.0,77.0,3.0,-3.0,-883.0,-497.0
-4.0,-233.0,-102.0,-19.0,75.0,4.0,-3.0,-890.0,-495.0
-5.0,-235.0,-104.0,-17.0,75.0,4.0,-6.0,-886.0,-496.0
-7.0,-233.0,-107.0,-16.0,75.0,4.0,-2.0,-887.0,-491.0
-5.0,-234.0,-107.0,-15.0,75.0,4.0,-7.0,-889.0,-489.0
-3.0,-235.0,-106.0,-13.0,74.0,3.0,-6.0,-888.0,-495.0
-2.0,-237.0,-106.0,-11.0,75.0,3.0,0.0,-886.0,-494.0
-4.0,-237.0,-103.0,-10.0,75.0,4.0,-4.0,-886.0,-490.0
-4.0,-234.0,-103.0,-9.0,76.0,2.0,-9.0,-884.0,-493.0
-7.0,-229.0,-112.0,-8.0,78.0,1.0,-9.0,-880.0,-496.0
-5.0,-235.0,-106.0,-9.0,76.0,0.0,-8.0,-880.0,-492.0
-6.0,-230.0,-104.0,-8.0,75.0,0.0,-5.0,-883.0,-497.0
-1.0,-235.0,-107.0,-11.0,77.0,0.0,-4.0,-879.0,-491.0
-3.0,-236.0,-106.0,-13.0,76.0,1.0,-12.0,-880.0,-492.0
-6.0,-234.0,-101.0,-15.0,76.0,0.0,-7.0,-882.0,-496.0
-3.0,-231.0,-104.0,-16.0,76.0,0.0,-9.0,-877.0,-495.0
-5.0,-233.0,-104.0,-19.0,76.0,-2.0,-7.0,-876.0,-493.0
-3.0,-234.0,-110.0,-20.0,74.0,-2.0,-2.0,-880.0,-493.0
-4.0,-232.0,-109.0,-20.0,74.0,-2.0,-5.0,-881.0,-493.0
-4.0,-234.0,-106.0,-21.0,73.0,-3.0,-7.0,-875.0,-500.0
-3.0,-237.0,-106.0,-21.0,71.0,-2.0,-7.0,-879.0,-490.0
-2.0,-235.0,-109.0,-21.0,71.0,-4.0,-9.0,-883.0,-490.0
-9.0,-236.0,-104.0,-22.0,69.0,-3.0,-6.0,-888.0,-490.0
-5.0,-232.0,-105.0,-20.0,69.0,-3.0,-4.0,-886.0,-490.0
-2.0,-236.0,-106.0,-20.0,68.0,-5.0,-7.0,-885.0,-496.0
-2.0,-234.0,-105.0,-18.0,67.0,-6.0,-2.0,-878.0,-495.0
-3.0,-232.0,-109.0,-18.0,66.0,-6.0,-7.0,-882.0,-491.0
-4.0,-235.0,-105.0,-17.0,67.0,-6.0,-6.0,-883.0,-492.0
-6.0,-235.0,-105.0,-18.0,65.0,-5.0,-11.0,-878.0,-493.0
-5.0,-234.0,-104.0,-15.0,64.0,-6.0,-12.0,-884.0,-488.0
-5.0,-235.0,-104.0,-14.0,64.0,-7.0,-6.0,-886.0,-490.0
-9.0,-235.0,-108.0,-13.0,65.0,-7.0,-12.0,-880.0,-495.0
-1.0,-233.0,-108.0,-13.0,65.0,-7.0,-8.0,-883.0,-496.0
-5.0,-231.0,-105.0,-13.0,65.0,-7.0,-5.0,-880.0,-493.0
-3.0,-235.0,-104.0,-15.0,64.0,-6.0,-4.0,-881.0,-496.0
-7.0,-236.0,-103.0,-14.0,65.0,-6.0,-3.0,-883.0,-493.0
-4.0,-235.0,-107.0,-15.0,64.0,-6.0,-7.0,-880.0,-492.0
-4.0,-236.0,-104.0,-14.0,62.0,-5.0,-7.0,-884.0,-493.0
-1.0,-234.0,-108.0,-14.0,65.0,-6.0,0.0,-877.0,-498.0
-5.0,-235.0,-104.0,-13.0,64.0,-5.0,-5.0,-880.0,-490.0
-4.0,-234.0,-104.0,-12.0,64.0,-6.0,0.0,-879.0,-491.0
-7.0,-232.0,-107.0,-10.0,65.0,-6.0,-2.0,-878.0,-494.0
-3.0,-235.0,-106.0,-11.0,66.0,-4.0,-15.0,-883.0,-496.0
-1.0,-234.0,-105.0,-12.0,67.0,-5.0,-5.0,-880.0,-490.0
-3.0,-235.0,-103.0,-12.0,67.0,-6.0,1.0,-878.0,-489.0
-4.0,-235.0,-103.0,-15.0,67.0,-6.0,3.0,-883.0,-490.0
-3.0,-235.0,-107.0,-15.0,66.0,-5.0,1.0,-881.0,-492.0
-3.0,-234.0,-106.0,-18.0,68.0,-5.0,-3.0,-881.0,-491.0
-4.0,-236.0,-104.0,-17.0,68.0,-5.0,0.0,-881.0,-489.0
-2.0,-236.0,-105.0,-16.0,69.0,-7.0,-3.0,-882.0,-492.0
-5.0,-235.0,-106.0,-15.0,70.0,-5.0,-3.0,-882.0,-492.0
-2.0,-236.0,-103.0,-13.0,71.0,-4.0,-2.0,-880.0,-495.0
-3.0,-233.0,-107.0,-13.0,71.0,-4.0,-2.0,-881.0,-496.0
-5.0,-233.0,-110.0,-11.0,73.0,-3.0,2.0,-882.0,-496.0
-2.0,-235.0,-111.0,-11.0,73.0,-2.0,0.0,-882.0,-494.0
-4.0,-235.0,-108.0,-12.0,73.0,-2.0,-2.0,-883.0,-497.0
-3.0,-237.0,-107.0,-12.0,73.0,-2.0,0.0,-885.0,-499.0
-5.0,-237.0,-106.0,-12.0,71.0,0.0,-4.0,-889.0,-495.0
-5.0,-234.0,-107.0,-12.0,72.0,0.0,-5.0,-880.0,-494.0
-6.0,-234.0,-104.0,-12.0,71.0,-1.0,-10.0,-884.0,-500.0
-6.0,-233.0,-103.0,-12.0,70.0,-1.0,-6.0,-877.0,-496.0
-3.0,-235.0,-107.0,-13.0,71.0,1.0,-3.0,-876.0,-495.0
-5.0,-235.0,-105.0,-11.0,72.0,0.0,-4.0,-878.0,-494.0
-7.0,-231.0,-106.0,-11.0,73.0,-1.0,-8.0,-880.0,-498.0
-3.0,-229.0,-107.0,-12.0,73.0,0.0,-2.0,-880.0,-492.0
-4.0,-232.0,-105.0,-13.0,73.0,-1.0,-10.0,-876.0,-497.0
-4.0,-234.0,-107.0,-14.0,73.0,1.0,-9.0,-877.0,-496.0
-2.0,-231.0,-106.0,-16.0,72.0,0.0,-5.0,-876.0,-493.0
-3.0,-232.0,-106.0,-17.0,72.0,0.0,-6.0,-876.0,-496.0
-5.0,-232.0,-107.0,-19.0,73.0,-1.0,-5.0,-884.0,-493.0
-4.0,-236.0,-105.0,-22.0,71.0,0.0,-7.0,-877.0,-498.0
-2.0,-237.0,-106.0,-23.0,71.0,0.0,-6.0,-877.0,-494.0
-5.0,-230.0,-108.0,-23.0,70.0,0.0,-8.0,-879.0,-499.0
-5.0,-236.0,-104.0,-20.0,68.0,1.0,-8.0,-880.0,-492.0
-4.0,-232.0,-107.0,-18.0,68.0,1.0,-3.0,-880.0,-492.0
-6.0,-236.0,-104.0,-16.0,69.0,1.0,-3.0,-884.0,-494.0
-5.0,-233.0,-107.0,-14.0,68.0,1.0,0.0,-882.0,-497.0
-1.0,-235.0,-109.0,-14.0,68.0,1.0,-2.0,-881.0,-495.0
-5.0,-234.0,-103.0,-14.0,69.0,1.0,-4.0,-881.0,-495.0
-5.0,-233.0,-106.0,-10.0,68.0,3.0,1.0,-874.0,-495.0
-4.0,-232.0,-106.0,-8.0,69.0,2.0,-3.0,-882.0,-493.0
-5.0,-235.0,-106.0,-7.0,71.0,1.0,-3.0,-880.0,-492.0
-3.0,-236.0,-106.0,-5.0,70.0,0.0,-3.0,-880.0,-497.0
-5.0,-234.0,-105.0,-5.0,70.0,2.0,0.0,-879.0,-496.0
-3.0,-232.0,-107.0,-4.0,71.0,1.0,-2.0,-881.0,-496.0
-3.0,-234.0,-107.0,-5.0,73.0,1.0,-3.0,-877.0,-495.0
-4.0,-232.0,-109.0,-6.0,74.0,1.0,1.0,-881.0,-498.0
-5.0,-234.0,-106.0,-7.0,75.0,2.0,0.0,-876.0,-499.0
-4.0,-231.0,-106.0,-8.0,74.0,1.0,-7.0,-880.0,-495.0
0.0,-234.0,-105.0,-9.0,75.0,1.0,4.0,-879.0,-496.0
-3.0,-236.0,-109.0,-12.0,75.0,2.0,-3.0,-880.0,-495.0
-5.0,-232.0,-105.0,-15.0,73.0,2.0,-8.0,-882.0,-499.0
-1.0,-238.0,-106.0,-18.0,74.0,2.0,-1.0,-879.0,-495.0
-4.0,-234.0,-108.0,-19.0,72.0,0.0,-6.0,-879.0,-494.0
-4.0,-236.0,-108.0,-21.0,73.0,1.0,-6.0,-883.0,-495.0
-4.0,-236.0,-107.0,-20.0,73.0,2.0,0.0,-887.0,-496.0
-4.0,-234.0,-105.0,-20.0,73.0,2.0,-9.0,-881.0,-497.0
-3.0,-234.0,-107.0,-20.0,73.0,1.0,-5.0,-880.0,-498.0
-4.0,-230.0,-105.0,-18.0,75.0,2.0,-2.0,-881.0,-497.0
-1.0,-235.0,-107.0,-16.0,75.0,2.0,-7.0,-880.0,-498.0
-3.0,-234.0,-103.0,-15.0,75.0,1.0,-6.0,-877.0,-495.0
-6.0,-229.0,-104.0,-13.0,76.0,2.0,-2.0,-877.0,-493.0
-1.0,-233.0,-107.0,-12.0,75.0,1.0,-10.0,-876.0,-495.0
-7.0,-233.0,-107.0,-12.0,74.0,2.0,-3.0,-878.0,-501.0
-3.0,-233.0,-108.0,-12.0,74.0,1.0,-8.0,-875.0,-494.0
-7.0,-236.0,-106.0,-13.0,75.0,0.0,-6.0,-878.0,-496.0
-5.0,-233.0,-107.0,-13.0,74.0,0.0,0.0,-881.0,-499.0
-4.0,-236.0,-104.0,-13.0,75.0,0.0,-8.0,-881.0,-497.0
-6.0,-233.0,-108.0,-12.0,76.0,-1.0,-9.0,-878.0,-505.0
-4.0,-233.0,-107.0,-13.0,76.0,-1.0,-11.0,-881.0,-498.0
-4.0,-234.0,-107.0,-13.0,75.0,0.0,-7.0,-877.0,-500.0
-3.0,-231.0,-105.0,-14.0,75.0,-1.0,-6.0,-876.0,-499.0
-5.0,-232.0,-104.0,-13.0,74.0,-1.0,-7.0,-873.0,-499.0
-6.0,-234.0,-106.0,-15.0,74.0,0.0,-7.0,-880.0,-496.0
-7.0,-233.0,-108.0,-14.0,74.0,1.0,-2.0,-881.0,-496.0
-5.0,-236.0,-104.0,-16.0,73.0,1.0,-9.0,-881.0,-496.0
-3.0,-235.0,-107.0,-16.0,73.0,0.0,-2.0,-878.0,-500.0
-4.0,-232.0,-108.0,-15.0,71.0,-1.0,-7.0,-877.0,-498.0
-3.0,-233.0,-105.0,-16.0,71.0,0.0,-10.0,-872.0,-495.0
-6.0,-233.0,-109.0,-15.0,70.0,-1.0,-3.0,-880.0,-498.0
-8.0,-235.0,-108.0,-15.0,69.0,0.0,-6.0,-874.0,-498.0
-2.0,-234.0,-108.0,-14.0,69.0,-1.0,-6.0,-873.0,-493.0
-3.0,-234.0,-106.0,-13.0,69.0,-2.0,-2.0,-876.0,-496.0
-5.0,-233.0,-104.0,-14.0,69.0,-1.0,-5.0,-875.0,-496.0
-4.0,-233.0,-107.0,-13.0,69.0,-2.0,-3.0,-880.0,-498.0
-3.0,-231.0,-107.0,-12.0,70.0,-1.0,-8.0,-879.0,-496.0
-3.0,-237.0,-106.0,-13.0,70.0,0.0,-6.0,-880.0,-496.0
-4.0,-234.0,-106.0,-16.0,70.0,-1.0,-8.0,-879.0,-495.0
-6.0,-235.0,-105.0,-16.0,72.0,-1.0,3.0,-877.0,-497.0
-4.0,-234.0,-104.0,-18.0,70.0,-2.0,-10.0,-878.0,-498.0
-3.0,-233.0,-109.0,-18.0,71.0,-1.0,-5.0,-886.0,-499.0
-5.0,-232.0,-104.0,-19.0,71.0,-1.0,-4.0,-879.0,-496.0
0.0,-235.0,-108.0,-21.0,71.0,0.0,-5.0,-886.0,-498.0
-4.0,-234.0,-109.0,-20.0,70.0,-1.0,-7.0,-886.0,-496.0
-2.0,-235.0,-106.0,-20.0,71.0,-2.0,-8.0,-886.0,-497.0
-6.0,-233.0,-109.0,-19.0,70.0,-3.0,-3.0,-880.0,-496.0
-6.0,-235.0,-108.0,-17.0,69.0,-1.0,-8.0,-882.0,-496.0
-7.0,-234.0,-106.0,-14.0,68.0,-2.0,-6.0,-882.0,-495.0
-6.0,-235.0,-106.0,-14.0,70.0,-2.0,-2.0,-883.0,-500.0
-2.0,-237.0,-104.0,-11.0,71.0,-2.0,-12.0,-883.0,-497.0
-5.0,-234.0,-106.0,-8.0,69.0,-2.0,-9.0,-881.0,-496.0
-2.0,-234.0,-109.0,-7.0,69.0,-3.0,-5.0,-882.0,-493.0
-3.0,-233.0,-103.0,-6.0,70.0,-2.0,-11.0,-877.0,-500.0
-2.0,-231.0,-107.0,-5.0,70.0,-3.0,-6.0,-879.0,-495.0
-5.0,-231.0,-106.0,-3.0,71.0,-3.0,-7.0,-877.0,-498.0
-7.0,-231.0,-105.0,-4.0,71.0,-2.0,3.0,-874.0,-493.0
-5.0,-234.0,-107.0,-3.0,71.0,-3.0,-7.0,-874.0,-495.0
-6.0,-231.0,-110.0,-5.0,73.0,-3.0,-9.0,-871.0,-493.0
-2.0,-232.0,-105.0,-6.0,74.0,-3.0,-8.0,-874.0,-494.0
-7.0,-234.0,-107.0,-9.0,74.0,-1.0,-3.0,-875.0,-493.0
-5.0,-231.0,-108.0,-12.0,73.0,-1.0,-9.0,-876.0,-498.0
-6.0,-233.0,-111.0,-15.0,74.0,-2.0,-11.0,-877.0,-496.0
-2.0,-243.0,-107.0,-18.0,75.0,-1.0,-5.0,-880.0,-491.0
-5.0,-234.0,-106.0,-19.0,74.0,-1.0,0.0,-884.0,-496.0
-4.0,-233.0,-105.0,-21.0,73.0,0.0,-3.0,-881.0,-496.0
-5.0,-233.0,-108.0,-20.0,73.0,-1.0,-3.0,-881.0,-496.0
-5.0,-237.0,-109.0,-20.0,74.0,-2.0,-5.0,-884.0,-496.0
-5.0,-235.0,-107.0,-21.0,71.0,-2.0,-6.0,-884.0,-497.0
-4.0,-235.0,-105.0,-19.0,71.0,-3.0,-7.0,-882.0,-500.0
-4.0,-233.0,-109.0,-18.0,71.0,-2.0,-11.0,-886.0,-499.0
-8.0,-232.0,-108.0,-16.0,71.0,-1.0,-10.0,-885.0,-498.0
-2.0,-236.0,-108.0,-15.0,70.0,-2.0,-6.0,-881.0,-498.0
-5.0,-233.0,-108.0,-13.0,69.0,-3.0,-4.0,-881.0,-495.0
-6.0,-232.0,-106.0,-11.0,67.0,-4.0,-10.0,-881.0,-499.0
-4.0,-234.0,-108.0,-9.0,68.0,-6.0,-12.0,-883.0,-496.0
-3.0,-233.0,-105.0,-9.0,69.0,-8.0,-7.0,-877.0,-494.0
-5.0,-233.0,-105.0,-7.0,69.0,-6.0,-6.0,-878.0,-495.0
-2.0,-236.0,-106.0,-6.0,69.0,-7.0,-8.0,-878.0,-495.0
-7.0,-234.0,-107.0,-7.0,69.0,-7.0,-9.0,-878.0,-494.0
-2.0,-234.0,-108.0,-7.0,69.0,-7.0,-9.0,-873.0,-495.0
-5.0,-232.0,-108.0,-7.0,70.0,-8.0,-5.0,-876.0,-491.0
-3.0,-232.0,-104.0,-7.0,70.0,-6.0,0.0,-873.0,-498.0
-7.0,-232.0,-106.0,-6.0,70.0,-6.0,0.0,-868.0,-499.0
-3.0,-232.0,-108.0,-7.0,70.0,-7.0,-2.0,-872.0,-498.0
-1.0,-233.0,-105.0,-10.0,70.0,-6.0,-9.0,-877.0,-495.0
-6.0,-232.0,-106.0,-11.0,71.0,-6.0,4.0,-876.0,-499.0
-6.0,-233.0,-104.0,-13.0,71.0,-3.0,-4.0,-875.0,-496.0
-4.0,-234.0,-107.0,-15.0,73.0,-4.0,5.0,-877.0,-495.0
-5.0,-234.0,-105.0,-17.0,73.0,-2.0,-3.0,-880.0,-492.0
-2.0,-232.0,-108.0,-17.0,73.0,-4.0,-6.0,-879.0,-493.0
-2.0,-236.0,-106.0,-19.0,73.0,-4.0,-6.0,-878.0,-495.0
-4.0,-234.0,-105.0,-20.0,72.0,-3.0,-7.0,-876.0,-495.0
-2.0,-236.0,-104.0,-22.0,72.0,-4.0,-9.0,-878.0,-495.0
-4.0,-235.0,-109.0,-22.0,72.0,-4.0,-6.0,-882.0,-495.0
-1.0,-234.0,-107.0,-23.0,71.0,-5.0,-5.0,-887.0,-496.0
-2.0,-237.0,-104.0,-22.0,71.0,-4.0,-7.0,-887.0,-492.0
-7.0,-237.0,-109.0,-21.0,71.0,-4.0,-3.0,-886.0,-497.0
-3.0,-236.0,-105.0,-20.0,71.0,-2.0,-4.0,-882.0,-494.0
-4.0,-235.0,-105.0,-18.0,69.0,-3.0,-7.0,-886.0,-497.0
-3.0,-236.0,-106.0,-18.0,69.0,-3.0,-8.0,-888.0,-495.0
-3.0,-237.0,-105.0,-16.0,68.0,-5.0,-7.0,-881.0,-497.0
-2.0,-235.0,-109.0,-14.0,68.0,-3.0,-1.0,-885.0,-496.0
-4.0,-233.0,-109.0,-15.0,68.0,-3.0,-6.0,-881.0,-496.0
-4.0,-232.0,-109.0,-15.0,68.0,-3.0,0.0,-882.0,-494.0
-4.0,-235.0,-109.0,-13.0,68.0,-3.0,-6.0,-879.0,-497.0
-5.0,-231.0,-107.0,-12.0,69.0,-4.0,1.0,-880.0,-495.0
-4.0,-234.0,-109.0,-11.0,69.0,-3.0,-6.0,-880.0,-495.0
-5.0,-233.0,-109.0,-9.0,70.0,-2.0,0.0,-878.0,-493.0
-5.0,-235.0,-106.0,-11.0,70.0,-4.0,-4.0,-872.0,-497.0
-2.0,-233.0,-107.0,-11.0,70.0,-4.0,-8.0,-871.0,-499.0
-4.0,-230.0,-106.0,-12.0,70.0,-4.0,-4.0,-874.0,-497.0
-4.0,-233.0,-109.0,-13.0,71.0,-5.0,-3.0,-874.0,-498.0
-3.0,-231.0,-105.0,-15.0,72.0,-6.0,-11.0,-870.0,-501.0
-7.0,-232.0,-107.0,-17.0,72.0,-6.0,-6.0,-877.0,-495.0
-4.0,-234.0,-110.0,-18.0,72.0,-5.0,1.0,-872.0,-498.0
-5.0,-232.0,-111.0,-21.0,72.0,-5.0,-7.0,-877.0,-495.0
-1.0,-234.0,-109.0,-24.0,72.0,-6.0,-6.0,-874.0,-493.0
-2.0,-234.0,-106.0,-28.0,71.0,-7.0,-5.0,-878.0,-493.0
-5.0,-236.0,-105.0,-30.0,70.0,-7.0,-4.0,-883.0,-497.0
-3.0,-232.0,-108.0,-31.0,69.0,-6.0,-5.0,-879.0,-495.0
-1.0,-236.0,-106.0,-30.0,70.0,-6.0,0.0,-883.0,-493.0
-5.0,-235.0,-107.0,-29.0,70.0,-7.0,0.0,-887.0,-497.0
-4.0,-235.0,-106.0,-26.0,70.0,-7.0,-2.0,-882.0,-496.0
-6.0,-234.0,-103.0,-22.0,70.0,-7.0,-6.0,-885.0,-494.0
-1.0,-238.0,-107.0,-19.0,71.0,-7.0,0.0,-886.0,-498.0
-5.0,-231.0,-109.0,-17.0,71.0,-6.0,-4.0,-887.0,-495.0
-4.0,-234.0,-108.0,-15.0,69.0,-6.0,-8.0,-885.0,-496.0
-2.0,-235.0,-107.0,-14.0,69.0,-7.0,-5.0,-883.0,-497.0
-3.0,-236.0,-107.0,-13.0,70.0,-7.0,-6.0,-882.0,-500.0
-4.0,-233.0,-108.0,-12.0,67.0,-7.0,1.0,-883.0,-498.0
-3.0,-237.0,-107.0,-11.0,68.0,-5.0,-6.0,-883.0,-498.0
-5.0,-233.0,-105.0,-10.0,68.0,-5.0,-5.0,-886.0,-498.0
-7.0,-233.0,-109.0,-9.0,68.0,-5.0,-6.0,-883.0,-491.0
-5.0,-235.0,-104.0,-9.0,69.0,-4.0,2.0,-881.0,-495.0
-7.0,-232.0,-110.0,-9.0,69.0,-4.0,-9.0,-878.0,-500.0
-3.0,-235.0,-105.0,-10.0,71.0,-5.0,-10.0,-881.0,-494.0
-6.0,-233.0,-107.0,-12.0,71.0,-5.0,-4.0,-879.0,-494.0
-7.0,-231.0,-104.0,-14.0,72.0,-5.0,-8.0,-879.0,-496.0
-2.0,-237.0,-109.0,-16.0,73.0,-5.0,1.0,-877.0,-497.0
-7.0,-232.0,-106.0,-18.0,73.0,-5.0,-5.0,-872.0,-498.0
-4.0,-230.0,-106.0,-21.0,73.0,-4.0,-6.0,-873.0,-497.0
-5.0,-230.0,-107.0,-22.0,74.0,-4.0,-8.0,-874.0,-498.0
-5.0,-232.0,-108.0,-23.0,74.0,-3.0,-6.0,-873.0,-500.0
-3.0,-235.0,-107.0,-23.0,75.0,-4.0,-1.0,-875.0,-500.0
-5.0,-230.0,-107.0,-23.0,74.0,-4.0,-3.0,-875.0,-495.0
-6.0,-232.0,-105.0,-23.0,73.0,-4.0,-3.0,-870.0,-498.0
-7.0,-228.0,-106.0,-22.0,75.0,-5.0,0.0,-874.0,-498.0
-3.0,-233.0,-109.0,-21.0,74.0,-4.0,1.0,-873.0,-499.0
-4.0,-234.0,-109.0,-21.0,73.0,-3.0,2.0,-876.0,-500.0
-4.0,-234.0,-111.0,-22.0,73.0,-3.0,-6.0,-878.0,-497.0
-7.0,-230.0,-107.0,-22.0,70.0,-3.0,-8.0,-874.0,-503.0
-3.0,-234.0,-107.0,-21.0,71.0,-2.0,-5.0,-878.0,-499.0
-4.0,-235.0,-106.0,-20.0,70.0,-3.0,-5.0,-874.0,-502.0
-4.0,-235.0,-107.0,-21.0,70.0,-2.0,-8.0,-874.0,-501.0
-2.0,-233.0,-110.0,-22.0,71.0,-2.0,-4.0,-875.0,-499.0
-1.0,-230.0,-107.0,-24.0,72.0,-1.0,-3.0,-876.0,-498.0
-3.0,-233.0,-106.0,-27.0,73.0,1.0,-9.0,-877.0,-500.0
-7.0,-229.0,-104.0,-30.0,72.0,1.0,-5.0,-880.0,-503.0
-5.0,-233.0,-110.0,-33.0,71.0,1.0,-10.0,-874.0,-501.0
-5.0,-234.0,-107.0,-35.0,70.0,2.0,-1.0,-881.0,-498.0
-6.0,-234.0,-105.0,-38.0,70.0,3.0,-6.0,-873.0,-496.0
-4.0,-235.0,-105.0,-38.0,69.0,2.0,-5.0,-877.0,-500.0
-5.0,-235.0,-108.0,-38.0,70.0,2.0,-6.0,-880.0,-504.0
-1.0,-234.0,-108.0,-39.0,70.0,2.0,-5.0,-884.0,-503.0
-2.0,-237.0,-106.0,-38.0,69.0,0.0,-7.0,-882.0,-499.0
-6.0,-232.0,-108.0,-38.0,67.0,1.0,-8.0,-880.0,-495.0
-6.0,-233.0,-106.0,-36.0,67.0,-1.0,-10.0,-883.0,-502.0
-1.0,-234.0,-107.0,-34.0,64.0,-2.0,-6.0,-879.0,-498.0
-5.0,-232.0,-106.0,-31.0,62.0,-2.0,-7.0,-879.0,-498.0
-6.0,-231.0,-105.0,-31.0,63.0,-2.0,-7.0,-879.0,-497.0
-3.0,-233.0,-105.0,-31.0,62.0,-2.0,1.0,-877.0,-497.0
-2.0,-233.0,-108.0,-31.0,63.0,-2.0,2.0,-879.0,-502.0
0.0,-234.0,-107.0,-32.0,64.0,-3.0,0.0,-872.0,-499.0
-4.0,-232.0,-107.0,-32.0,64.0,-3.0,-3.0,-870.0,-502.0
-4.0,-233.0,-106.0,-32.0,65.0,-3.0,-4.0,-874.0,-499.0
-2.0,-231.0,-110.0,-33.0,67.0,-3.0,-3.0,-878.0,-494.0
-6.0,-230.0,-109.0,-33.0,67.0,-3.0,-9.0,-876.0,-498.0
-4.0,-232.0,-109.0,-33.0,69.0,-3.0,-4.0,-871.0,-497.0
-3.0,-237.0,-106.0,-35.0,68.0,-2.0,-3.0,-876.0,-500.0
-6.0,-233.0,-103.0,-37.0,69.0,-3.0,-8.0,-875.0,-501.0
-6.0,-231.0,-105.0,-39.0,69.0,-2.0,-8.0,-876.0,-500.0
-4.0,-229.0,-106.0,-41.0,68.0,-1.0,-6.0,-876.0,-499.0
-3.0,-233.0,-105.0,-42.0,68.0,-1.0,-7.0,-876.0,-499.0
-5.0,-232.0,-108.0,-44.0,67.0,-3.0,-8.0,-871.0,-503.0
-5.0,-233.0,-109.0,-45.0,67.0,-2.0,-8.0,-874.0,-501.0
-4.0,-234.0,-108.0,-47.0,66.0,-1.0,-11.0,-880.0,-498.0
-5.0,-233.0,-108.0,-46.0,65.0,-2.0,-6.0,-878.0,-502.0
-5.0,-234.0,-107.0,-46.0,64.0,-4.0,-7.0,-876.0,-501.0
-1.0,-235.0,-110.0,-46.0,64.0,-5.0,-4.0,-881.0,-502.0
-5.0,-234.0,-111.0,-46.0,63.0,-4.0,-7.0,-877.0,-501.0
-3.0,-234.0,-108.0,-46.0,63.0,-3.0,-2.0,-876.0,-503.0
-4.0,-231.0,-111.0,-46.0,63.0,-2.0,-5.0,-880.0,-502.0
-8.0,-231.0,-108.0,-46.0,62.0,-1.0,-2.0,-876.0,-504.0
-6.0,-229.0,-108.0,-46.0,61.0,-1.0,-5.0,-875.0,-505.0
-3.0,-231.0,-109.0,-46.0,62.0,-2.0,-9.0,-885.0,-495.0
-3.0,-236.0,-106.0,-45.0,63.0,-2.0,-4.0,-879.0,-505.0
-4.0,-234.0,-107.0,-46.0,63.0,-3.0,0.0,-880.0,-504.0
-2.0,-235.0,-110.0,-45.0,63.0,-3.0,-4.0,-880.0,-501.0
0.0,-233.0,-108.0,-44.0,64.0,-3.0,-3.0,-878.0,-503.0
-1.0,-230.0,-106.0,-43.0,62.0,-4.0,-8.0,-879.0,-504.0
-1.0,-229.0,-111.0,-44.0,61.0,-4.0,-7.0,-874.0,-503.0
-6.0,-232.0,-106.0,-44.0,61.0,-4.0,-2.0,-881.0,-501.0
-5.0,-235.0,-108.0,-43.0,63.0,-4.0,-3.0,-880.0,-509.0
-1.0,-231.0,-106.0,-42.0,62.0,-4.0,-2.0,-876.0,-508.0
-3.0,-232.0,-110.0,-42.0,63.0,-3.0,-7.0,-877.0,-507.0
-6.0,-231.0,-105.0,-42.0,62.0,-5.0,-11.0,-876.0,-506.0
-5.0,-231.0,-110.0,-41.0,63.0,-6.0,1.0,-872.0,-503.0
-4.0,-230.0,-107.0,-39.0,63.0,-6.0,-11.0,-872.0,-501.0
-5.0,-233.0,-112.0,-39.0,65.0,-6.0,-7.0,-875.0,-497.0
-4.0,-230.0,-109.0,-38.0,63.0,-6.0,0.0,-874.0,-500.0
-6.0,-235.0,-104.0,-37.0,63.0,-6.0,-8.0,-873.0,-503.0
-6.0,-234.0,-109.0,-39.0,64.0,-5.0,-3.0,-873.0,-501.0
-3.0,-232.0,-109.0,-40.0,64.0,-6.0,-7.0,-874.0,-504.0
-3.0,-230.0,-108.0,-41.0,63.0,-5.0,-4.0,-874.0,-502.0
-5.0,-233.0,-105.0,-38.0,61.0,-5.0,-5.0,-873.0,-506.0
-6.0,-233.0,-108.0,-37.0,61.0,-7.0,-5.0,-870.0,-503.0
-4.0,-232.0,-107.0,-37.0,62.0,-7.0,-6.0,-873.0,-509.0
-6.0,-234.0,-112.0,-37.0,62.0,-8.0,-2.0,-876.0,-505.0
-2.0,-230.0,-112.0,-36.0,60.0,-7.0,-4.0,-868.0,-509.0
-5.0,-229.0,-108.0,-35.0,61.0,-7.0,-10.0,-871.0,-503.0
-3.0,-231.0,-109.0,-36.0,61.0,-8.0,-10.0,-875.0,-509.0
0.0,-231.0,-110.0,-36.0,62.0,-8.0,-9.0,-875.0,-502.0
-5.0,-231.0,-106.0,-38.0,63.0,-8.0,-7.0,-875.0,-503.0
-5.0,-231.0,-111.0,-39.0,64.0,-7.0,-6.0,-873.0,-509.0
-3.0,-232.0,-107.0,-40.0,63.0,-7.0,-5.0,-875.0,-511.0
-4.0,-234.0,-110.0,-41.0,63.0,-6.0,-3.0,-881.0,-513.0
-4.0,-232.0,-110.0,-42.0,64.0,-6.0,-3.0,-877.0,-510.0
-3.0,-231.0,-109.0,-41.0,62.0,-5.0,0.0,-875.0,-512.0
-4.0,-234.0,-112.0,-39.0,64.0,-5.0,-9.0,-875.0,-510.0
-2.0,-236.0,-109.0,-39.0,64.0,-5.0,-2.0,-881.0,-508.0
-9.0,-229.0,-110.0,-37.0,63.0,-4.0,-7.0,-877.0,-511.0
-3.0,-236.0,-108.0,-36.0,62.0,-6.0,0.0,-877.0,-513.0
-3.0,-232.0,-112.0,-35.0,61.0,-5.0,-5.0,-873.0,-510.0
-7.0,-232.0,-111.0,-33.0,62.0,-5.0,-6.0,-869.0,-512.0
-2.0,-232.0,-110.0,-31.0,61.0,-4.0,-5.0,-873.0,-509.0
-1.0,-230.0,-108.0,-30.0,62.0,-5.0,-5.0,-874.0,-509.0
-3.0,-231.0,-112.0,-28.0,63.0,-5.0,-4.0,-874.0,-506.0
-1.0,-232.0,-111.0,-26.0,63.0,-7.0,-6.0,-866.0,-509.0
0.0,-230.0,-111.0,-24.0,64.0,-7.0,-1.0,-865.0,-511.0
-5.0,-229.0,-111.0,-21.0,66.0,-7.0,6.0,-865.0,-511.0
-5.0,-228.0,-107.0,-20.0,68.0,-7.0,-7.0,-858.0,-511.0
-4.0,-229.0,-113.0,-21.0,68.0,-7.0,-3.0,-861.0,-513.0
-5.0,-227.0,-112.0,-23.0,69.0,-6.0,-8.0,-863.0,-515.0
-5.0,-227.0,-112.0,-26.0,70.0,-5.0,-12.0,-860.0,-512.0
-5.0,-229.0,-110.0,-29.0,70.0,-6.0,-8.0,-863.0,-511.0
-6.0,-224.0,-114.0,-30.0,71.0,-5.0,-7.0,-860.0,-517.0
-3.0,-232.0,-111.0,-31.0,73.0,-5.0,-10.0,-861.0,-516.0
-3.0,-231.0,-114.0,-32.0,73.0,-5.0,-11.0,-861.0,-519.0
-5.0,-228.0,-115.0,-33.0,75.0,-4.0,-11.0,-866.0,-523.0
-4.0,-231.0,-111.0,-34.0,76.0,-3.0,-4.0,-861.0,-522.0
-2.0,-229.0,-114.0,-35.0,76.0,-2.0,-9.0,-862.0,-526.0
-6.0,-232.0,-112.0,-37.0,78.0,-1.0,-8.0,-863.0,-523.0
-2.0,-230.0,-115.0,-38.0,79.0,-2.0,-7.0,-868.0,-526.0
-5.0,-229.0,-114.0,-39.0,80.0,-2.0,-9.0,-866.0,-526.0
-5.0,-230.0,-114.0,-38.0,81.0,-1.0,-8.0,-864.0,-522.0
-3.0,-229.0,-116.0,-36.0,82.0,-1.0,-8.0,-864.0,-528.0
-5.0,-229.0,-115.0,-35.0,83.0,-2.0,-6.0,-860.0,-529.0
-2.0,-231.0,-114.0,-34.0,86.0,-3.0,0.0,-862.0,-524.0
-4.0,-227.0,-114.0,-33.0,86.0,-2.0,2.0,-863.0,-524.0
-3.0,-229.0,-117.0,-32.0,88.0,-1.0,-2.0,-854.0,-529.0
-6.0,-226.0,-116.0,-29.0,91.0,-1.0,-2.0,-855.0,-528.0
-4.0,-226.0,-116.0,-28.0,92.0,-1.0,5.0,-857.0,-528.0
-2.0,-227.0,-115.0,-27.0,96.0,1.0,-2.0,-855.0,-529.0
-3.0,-225.0,-118.0,-25.0,99.0,2.0,5.0,-854.0,-531.0
-1.0,-227.0,-115.0,-27.0,104.0,3.0,0.0,-854.0,-529.0
-1.0,-229.0,-115.0,-29.0,109.0,5.0,2.0,-855.0,-538.0
-3.0,-225.0,-114.0,-31.0,112.0,5.0,-3.0,-854.0,-536.0
-2.0,-225.0,-120.0,-35.0,117.0,6.0,5.0,-850.0,-531.0
-1.0,-227.0,-118.0,-36.0,121.0,6.0,1.0,-852.0,-533.0
-4.0,-228.0,-118.0,-38.0,125.0,7.0,2.0,-856.0,-535.0
-2.0,-225.0,-114.0,-40.0,128.0,9.0,2.0,-853.0,-535.0
-4.0,-229.0,-118.0,-40.0,131.0,10.0,2.0,-857.0,-547.0
-1.0,-229.0,-115.0,-37.0,133.0,11.0,0.0,-857.0,-537.0
-3.0,-228.0,-117.0,-35.0,135.0,13.0,-5.0,-856.0,-541.0
-2.0,-229.0,-119.0,-32.0,136.0,14.0,0.0,-853.0,-546.0
-5.0,-228.0,-118.0,-26.0,138.0,15.0,-2.0,-860.0,-539.0
-7.0,-228.0,-122.0,-19.0,139.0,16.0,-4.0,-854.0,-538.0
-2.0,-228.0,-119.0,-14.0,140.0,18.0,-4.0,-850.0,-543.0
-2.0,-226.0,-122.0,-8.0,141.0,18.0,-10.0,-848.0,-549.0
-2.0,-227.0,-118.0,-4.0,143.0,18.0,-10.0,-844.0,-546.0
-5.0,-227.0,-120.0,-1.0,144.0,19.0,-8.0,-845.0,-549.0
-5.0,-224.0,-122.0,0.0,147.0,21.0,-4.0,-845.0,-549.0
-7.0,-221.0,-122.0,1.0,147.0,21.0,-12.0,-841.0,-551.0
0.0,-226.0,-122.0,2.0,149.0,22.0,-6.0,-840.0,-559.0
-4.0,-221.0,-118.0,0.0,151.0,24.0,-8.0,-840.0,-558.0
-5.0,-226.0,-124.0,-3.0,154.0,26.0,-10.0,-842.0,-561.0
-7.0,-220.0,-121.0,-6.0,155.0,26.0,-10.0,-837.0,-561.0
-3.0,-222.0,-125.0,-9.0,156.0,25.0,-11.0,-831.0,-559.0
-8.0,-222.0,-122.0,-13.0,155.0,26.0,-15.0,-834.0,-559.0
-6.0,-219.0,-120.0,-17.0,156.0,28.0,-11.0,-833.0,-553.0
-6.0,-221.0,-119.0,-22.0,155.0,28.0,-13.0,-837.0,-554.0
-6.0,-220.0,-119.0,-28.0,152.0,30.0,-15.0,-834.0,-552.0
-4.0,-222.0,-125.0,-35.0,150.0,31.0,-14.0,-837.0,-548.0
-7.0,-222.0,-119.0,-43.0,149.0,32.0,-13.0,-832.0,-549.0
-9.0,-221.0,-121.0,-49.0,150.0,34.0,-11.0,-838.0,-554.0
-6.0,-223.0,-121.0,-55.0,150.0,34.0,-15.0,-839.0,-550.0
-2.0,-221.0,-120.0,-58.0,150.0,36.0,-13.0,-843.0,-553.0
-3.0,-222.0,-119.0,-58.0,153.0,37.0,-8.0,-839.0,-550.0
0.0,-222.0,-121.0,-56.0,154.0,38.0,-7.0,-842.0,-543.0
-3.0,-222.0,-118.0,-56.0,158.0,39.0,-9.0,-839.0,-548.0
-6.0,-222.0,-119.0,-58.0,158.0,35.0,0.0,-838.0,-550.0
-3.0,-220.0,-121.0,-61.0,160.0,34.0,2.0,-834.0,-552.0
-4.0,-221.0,-119.0,-68.0,161.0,31.0,3.0,-835.0,-549.0
-7.0,-222.0,-123.0,-75.0,161.0,29.0,-2.0,-834.0,-548.0
-5.0,-222.0,-118.0,-86.0,160.0,26.0,-5.0,-833.0,-548.0
-6.0,-223.0,-115.0,-92.0,161.0,25.0,-7.0,-838.0,-546.0
-7.0,-223.0,-119.0,-96.0,160.0,23.0,-12.0,-836.0,-542.0
-5.0,-220.0,-120.0,-96.0,160.0,24.0,-4.0,-834.0,-541.0
-6.0,-222.0,-118.0,-95.0,163.0,23.0,-2.0,-838.0,-541.0
-5.0,-221.0,-122.0,-92.0,164.0,25.0,-11.0,-834.0,-544.0
-2.0,-221.0,-121.0,-90.0,168.0,27.0,-5.0,-831.0,-544.0
-6.0,-221.0,-121.0,-89.0,173.0,27.0,-2.0,-828.0,-550.0
-7.0,-222.0,-121.0,-88.0,178.0,31.0,-1.0,-826.0,-550.0
-4.0,-220.0,-122.0,-89.0,184.0,36.0,-5.0,-832.0,-555.0
-4.0,-220.0,-123.0,-90.0,187.0,39.0,-2.0,-828.0,-557.0
-3.0,-222.0,-119.0,-92.0,192.0,43.0,0.0,-832.0,-554.0
-4.0,-222.0,-122.0,-95.0,193.0,47.0,-3.0,-832.0,-551.0
-2.0,-222.0,-123.0,-96.0,194.0,51.0,0.0,-831.0,-551.0
-1.0,-222.0,-117.0,-99.0,193.0,53.0,2.0,-834.0,-546.0
-3.0,-220.0,-121.0,-102.0,193.0,57.0,0.0,-832.0,-551.0
-2.0,-222.0,-119.0,-107.0,190.0,63.0,5.0,-836.0,-549.0
-1.0,-222.0,-122.0,-109.0,189.0,67.0,9.0,-837.0,-551.0
-3.0,-220.0,-120.0,-109.0,189.0,72.0,5.0,-833.0,-546.0
-1.0,-224.0,-121.0,-109.0,189.0,78.0,5.0,-839.0,-547.0
-1.0,-224.0,-119.0,-109.0,191.0,83.0,7.0,-838.0,-551.0
-1.0,-224.0,-119.0,-107.0,192.0,85.0,5.0,-839.0,-548.0
0.0,-225.0,-121.0,-103.0,195.0,91.0,11.0,-845.0,-558.0
-1.0,-225.0,-123.0,-97.0,198.0,93.0,13.0,-845.0,-547.0
0.0,-224.0,-119.0,-89.0,201.0,95.0,11.0,-848.0,-544.0
1.0,-228.0,-120.0,-83.0,206.0,96.0,9.0,-845.0,-552.0
0.0,-228.0,-117.0,-75.0,209.0,94.0,11.0,-852.0,-549.0
0.0,-227.0,-120.0,-67.0,210.0,93.0,6.0,-852.0,-553.0
0.0,-224.0,-121.0,-60.0,210.0,93.0,8.0,-846.0,-555.0
-2.0,-224.0,-123.0,-56.0,211.0,93.0,11.0,-841.0,-559.0
0.0,-221.0,-119.0,-51.0,212.0,93.0,11.0,-837.0,-555.0
0.0,-220.0,-123.0,-47.0,213.0,94.0,9.0,-833.0,-559.0
-3.0,-218.0,-122.0,-42.0,214.0,94.0,4.0,-830.0,-561.0
-1.0,-218.0,-123.0,-38.0,215.0,94.0,0.0,-824.0,-566.0
-3.0,-220.0,-125.0,-38.0,213.0,94.0,-5.0,-820.0,-557.0
-3.0,-216.0,-124.0,-38.0,208.0,94.0,-7.0,-811.0,-558.0
-5.0,-213.0,-122.0,-40.0,207.0,93.0,-14.0,-812.0,-557.0
-6.0,-216.0,-120.0,-44.0,204.0,96.0,-15.0,-806.0,-554.0
-9.0,-210.0,-120.0,-50.0,201.0,98.0,-16.0,-797.0,-551.0
-10.0,-208.0,-117.0,-55.0,198.0,99.0,-17.0,-786.0,-550.0
-10.0,-207.0,-122.0,-59.0,196.0,100.0,-19.0,-780.0,-546.0
-9.0,-207.0,-119.0,-63.0,193.0,106.0,-25.0,-772.0,-545.0
-10.0,-206.0,-117.0,-67.0,190.0,112.0,-26.0,-769.0,-540.0
-11.0,-204.0,-119.0,-72.0,187.0,118.0,-26.0,-767.0,-542.0
-5.0,-205.0,-121.0,-78.0,183.0,126.0,-26.0,-768.0,-545.0
-8.0,-205.0,-118.0,-85.0,180.0,133.0,-16.0,-760.0,-549.0
-6.0,-203.0,-118.0,-94.0,177.0,140.0,-13.0,-760.0,-550.0
-3.0,-203.0,-123.0,-103.0,175.0,144.0,-7.0,-764.0,-552.0
-3.0,-206.0,-121.0,-109.0,174.0,146.0,-7.0,-764.0,-554.0
-2.0,-204.0,-122.0,-115.0,173.0,143.0,4.0,-766.0,-563.0
-4.0,-204.0,-121.0,-118.0,173.0,138.0,-2.0,-767.0,-558.0
-2.0,-204.0,-119.0,-120.0,174.0,131.0,-4.0,-776.0,-562.0
-3.0,-206.0,-125.0,-122.0,176.0,123.0,-3.0,-776.0,-561.0
-2.0,-207.0,-123.0,-121.0,181.0,116.0,-6.0,-773.0,-561.0
0.0,-202.0,-120.0,-119.0,187.0,106.0,-1.0,-770.0,-561.0
-2.0,-201.0,-121.0,-117.0,191.0,95.0,-5.0,-758.0,-557.0
-4.0,-200.0,-120.0,-121.0,200.0,85.0,-2.0,-757.0,-553.0
0.0,-199.0,-123.0,-128.0,208.0,75.0,0.0,-745.0,-552.0
1.0,-198.0,-118.0,-136.0,218.0,67.0,7.0,-739.0,-550.0
0.0,-194.0,-119.0,-148.0,227.0,59.0,4.0,-729.0,-553.0
0.0,-193.0,-122.0,-163.0,235.0,53.0,9.0,-720.0,-550.0
0.0,-190.0,-118.0,-181.0,243.0,46.0,10.0,-713.0,-548.0
1.0,-190.0,-114.0,-200.0,250.0,43.0,9.0,-711.0,-546.0
0.0,-186.0,-122.0,-221.0,257.0,41.0,5.0,-701.0,-544.0
0.0,-187.0,-122.0,-242.0,264.0,37.0,-4.0,-693.0,-536.0
-5.0,-184.0,-120.0,-263.0,267.0,37.0,-9.0,-694.0,-536.0
-6.0,-184.0,-118.0,-287.0,270.0,39.0,-22.0,-682.0,-539.0
-10.0,-181.0,-114.0,-310.0,268.0,45.0,-27.0,-683.0,-527.0
-7.0,-181.0,-115.0,-335.0,265.0,55.0,-29.0,-682.0,-522.0
-12.0,-182.0,-113.0,-357.0,261.0,67.0,-29.0,-687.0,-518.0
-12.0,-184.0,-110.0,-376.0,256.0,82.0,-38.0,-683.0,-509.0
-10.0,-183.0,-114.0,-389.0,251.0,100.0,-37.0,-688.0,-520.0
-12.0,-184.0,-113.0,-402.0,246.0,120.0,-33.0,-689.0,-524.0
-15.0,-184.0,-114.0,-414.0,241.0,142.0,-39.0,-690.0,-523.0
-11.0,-186.0,-111.0,-424.0,237.0,164.0,-36.0,-695.0,-525.0
-12.0,-187.0,-115.0,-434.0,234.0,186.0,-36.0,-701.0,-529.0
-13.0,-186.0,-117.0,-442.0,230.0,211.0,-38.0,-697.0,-526.0
-11.0,-187.0,-116.0,-449.0,223.0,231.0,-36.0,-698.0,-527.0
-12.0,-188.0,-115.0,-453.0,218.0,250.0,-38.0,-696.0,-532.0
-12.0,-188.0,-117.0,-457.0,212.0,268.0,-36.0,-703.0,-530.0
-12.0,-186.0,-118.0,-461.0,202.0,280.0,-26.0,-699.0,-531.0
-9.0,-188.0,-120.0,-469.0,190.0,289.0,-33.0,-700.0,-540.0
-8.0,-191.0,-122.0,-477.0,177.0,299.0,-22.0,-706.0,-548.0
-6.0,-194.0,-123.0,-484.0,166.0,309.0,-22.0,-711.0,-558.0
-10.0,-197.0,-125.0,-493.0,157.0,310.0,-18.0,-724.0,-567.0
-11.0,-195.0,-124.0,-501.0,152.0,311.0,-25.0,-733.0,-564.0
-10.0,-198.0,-123.0,-503.0,146.0,308.0,-26.0,-742.0,-558.0
-12.0,-203.0,-124.0,-501.0,142.0,306.0,-30.0,-752.0,-563.0
-12.0,-205.0,-126.0,-491.0,139.0,297.0,-40.0,-764.0,-560.0
-14.0,-203.0,-124.0,-482.0,135.0,287.0,-48.0,-763.0,-566.0
-18.0,-202.0,-121.0,-469.0,130.0,277.0,-54.0,-764.0,-564.0
-17.0,-204.0,-121.0,-455.0,125.0,266.0,-61.0,-764.0,-562.0
-22.0,-206.0,-124.0,-439.0,118.0,260.0,-69.0,-764.0,-555.0
-20.0,-199.0,-122.0,-422.0,112.0,255.0,-72.0,-765.0,-547.0
-22.0,-205.0,-121.0,-406.0,110.0,249.0,-83.0,-764.0,-553.0
-25.0,-203.0,-121.0,-393.0,106.0,245.0,-80.0,-764.0,-548.0
-28.0,-199.0,-119.0,-389.0,102.0,241.0,-84.0,-765.0,-548.0
-27.0,-205.0,-119.0,-392.0,98.0,238.0,-91.0,-768.0,-550.0
-28.0,-206.0,-121.0,-397.0,94.0,235.0,-96.0,-769.0,-545.0
-28.0,-207.0,-122.0,-405.0,91.0,231.0,-93.0,-770.0,-539.0
-27.0,-207.0,-116.0,-413.0,87.0,230.0,-90.0,-773.0,-537.0
-25.0,-206.0,-115.0,-422.0,81.0,229.0,-87.0,-780.0,-536.0
-27.0,-206.0,-118.0,-432.0,72.0,229.0,-83.0,-781.0,-530.0
-22.0,-203.0,-115.0,-445.0,64.0,225.0,-71.0,-768.0,-530.0
-18.0,-203.0,-120.0,-456.0,60.0,217.0,-58.0,-763.0,-533.0
-22.0,-201.0,-118.0,-468.0,60.0,207.0,-72.0,-755.0,-529.0
-23.0,-197.0,-116.0,-477.0,61.0,200.0,-73.0,-741.0,-532.0
-19.0,-195.0,-118.0,-481.0,60.0,194.0,-65.0,-738.0,-531.0
-16.0,-194.0,-118.0,-491.0,61.0,188.0,-57.0,-732.0,-544.0
-13.0,-193.0,-119.0,-499.0,68.0,188.0,-46.0,-725.0,-551.0
-13.0,-192.0,-116.0,-506.0,79.0,186.0,-41.0,-718.0,-559.0
-12.0,-193.0,-121.0,-509.0,90.0,186.0,-43.0,-718.0,-551.0
-13.0,-191.0,-120.0,-508.0,96.0,185.0,-38.0,-714.0,-541.0
-12.0,-194.0,-113.0,-501.0,100.0,187.0,-38.0,-720.0,-526.0
-13.0,-192.0,-113.0,-493.0,98.0,192.0,-37.0,-729.0,-526.0
-11.0,-194.0,-111.0,-478.0,92.0,197.0,-34.0,-728.0,-512.0
-12.0,-195.0,-111.0,-458.0,87.0,202.0,-36.0,-732.0,-510.0
-16.0,-196.0,-110.0,-433.0,82.0,210.0,-45.0,-733.0,-511.0
-15.0,-196.0,-117.0,-406.0,76.0,219.0,-52.0,-741.0,-519.0
-16.0,-202.0,-111.0,-381.0,69.0,231.0,-51.0,-751.0,-519.0
-19.0,-207.0,-113.0,-353.0,64.0,241.0,-50.0,-765.0,-524.0
-20.0,-206.0,-116.0,-325.0,55.0,251.0,-58.0,-771.0,-532.0
-19.0,-206.0,-116.0,-294.0,43.0,267.0,-68.0,-768.0,-540.0
-20.0,-207.0,-121.0,-267.0,30.0,280.0,-66.0,-769.0,-559.0
-20.0,-205.0,-126.0,-243.0,20.0,292.0,-59.0,-762.0,-564.0
-21.0,-203.0,-127.0,-222.0,12.0,296.0,-62.0,-760.0,-580.0
-22.0,-201.0,-130.0,-211.0,5.0,296.0,-66.0,-758.0,-593.0
-20.0,-201.0,-134.0,-204.0,-3.0,292.0,-73.0,-751.0,-612.0
-18.0,-204.0,-137.0,-199.0,7.0,287.0,-52.0,-763.0,-611.0
-23.0,-198.0,-133.0,-188.0,6.0,275.0,-69.0,-752.0,-610.0
-26.0,-198.0,-141.0,-178.0,-6.0,267.0,-83.0,-748.0,-616.0
-23.0,-199.0,-134.0,-181.0,-23.0,263.0,-84.0,-749.0,-626.0
-26.0,-197.0,-131.0,-187.0,-32.0,258.0,-84.0,-747.0,-618.0
-23.0,-201.0,-135.0,-191.0,-38.0,253.0,-84.0,-748.0,-610.0
-21.0,-200.0,-132.0,-195.0,-38.0,247.0,-81.0,-750.0,-607.0
-20.0,-205.0,-130.0,-196.0,-33.0,240.0,-78.0,-765.0,-597.0
-22.0,-206.0,-129.0,-189.0,-25.0,224.0,-81.0,-762.0,-595.0
-24.0,-208.0,-128.0,-180.0,-15.0,213.0,-82.0,-776.0,-585.0
-21.0,-208.0,-126.0,-170.0,-5.0,205.0,-84.0,-778.0,-574.0
-22.0,-213.0,-127.0,-158.0,5.0,200.0,-80.0,-788.0,-572.0
-25.0,-212.0,-127.0,-143.0,15.0,193.0,-72.0,-792.0,-573.0
-21.0,-217.0,-123.0,-126.0,23.0,185.0,-80.0,-805.0,-566.0
-22.0,-211.0,-127.0,-105.0,34.0,182.0,-63.0,-794.0,-560.0
-22.0,-210.0,-126.0,-80.0,45.0,181.0,-80.0,-796.0,-568.0
-27.0,-207.0,-127.0,-57.0,52.0,179.0,-84.0,-778.0,-580.0
-32.0,-204.0,-129.0,-41.0,55.0,177.0,-97.0,-765.0,-579.0
-37.0,-198.0,-126.0,-34.0,52.0,178.0,-141.0,-744.0,-575.0
-40.0,-193.0,-128.0,-55.0,24.0,197.0,-148.0,-725.0,-587.0
-21.0,-199.0,-132.0,-83.0,0.0,216.0,-87.0,-751.0,-598.0
-24.0,-201.0,-129.0,-86.0,21.0,216.0,-80.0,-750.0,-601.0
-25.0,-202.0,-132.0,-82.0,40.0,218.0,-87.0,-750.0,-601.0
-19.0,-199.0,-130.0,-75.0,51.0,227.0,-83.0,-748.0,-602.0
-27.0,-199.0,-133.0,-71.0,56.0,237.0,-90.0,-749.0,-606.0
-25.0,-201.0,-138.0,-65.0,52.0,253.0,-87.0,-747.0,-617.0
-22.0,-195.0,-142.0,-66.0,48.0,262.0,-75.0,-736.0,-639.0
-24.0,-198.0,-137.0,-81.0,50.0,260.0,-81.0,-732.0,-620.0
-19.0,-198.0,-138.0,-80.0,57.0,270.0,-63.0,-744.0,-629.0
-18.0,-197.0,-135.0,-80.0,63.0,276.0,-53.0,-740.0,-638.0
-9.0,-197.0,-141.0,-83.0,61.0,269.0,-38.0,-739.0,-645.0
-10.0,-194.0,-147.0,-90.0,63.0,254.0,-36.0,-729.0,-656.0
-12.0,-194.0,-147.0,-99.0,79.0,228.0,-36.0,-731.0,-667.0
-13.0,-191.0,-150.0,-106.0,101.0,200.0,-34.0,-713.0,-672.0
-15.0,-192.0,-156.0,-113.0,120.0,173.0,-49.0,-712.0,-680.0
-18.0,-190.0,-157.0,-126.0,136.0,145.0,-58.0,-708.0,-696.0
-18.0,-191.0,-158.0,-134.0,148.0,125.0,-62.0,-709.0,-702.0
-18.0,-193.0,-157.0,-138.0,153.0,108.0,-70.0,-719.0,-712.0
-24.0,-196.0,-159.0,-135.0,156.0,94.0,-82.0,-731.0,-714.0
-28.0,-197.0,-158.0,-123.0,150.0,81.0,-95.0,-747.0,-694.0
-32.0,-200.0,-154.0,-113.0,138.0,79.0,-109.0,-749.0,-683.0
-36.0,-204.0,-149.0,-104.0,125.0,76.0,-121.0,-752.0,-675.0
-34.0,-202.0,-145.0,-92.0,106.0,83.0,-131.0,-764.0,-665.0
-37.0,-204.0,-141.0,-76.0,87.0,95.0,-137.0,-765.0,-653.0
-41.0,-209.0,-141.0,-60.0,68.0,109.0,-151.0,-773.0,-645.0
-40.0,-208.0,-141.0,-39.0,51.0,125.0,-151.0,-775.0,-644.0
-41.0,-206.0,-141.0,-15.0,40.0,146.0,-145.0,-774.0,-650.0
-37.0,-204.0,-147.0,7.0,31.0,158.0,-136.0,-773.0,-663.0
-37.0,-205.0,-145.0,24.0,23.0,162.0,-124.0,-767.0,-672.0
-32.0,-203.0,-154.0,34.0,22.0,160.0,-115.0,-761.0,-686.0
-32.0,-201.0,-157.0,34.0,26.0,157.0,-118.0,-761.0,-705.0
-29.0,-203.0,-163.0,23.0,34.0,158.0,-105.0,-768.0,-716.0
-31.0,-204.0,-157.0,7.0,46.0,156.0,-117.0,-781.0,-714.0
-29.0,-210.0,-155.0,-8.0,60.0,155.0,-107.0,-780.0,-712.0
-34.0,-207.0,-154.0,-25.0,74.0,155.0,-107.0,-791.0,-693.0
-31.0,-208.0,-146.0,-37.0,82.0,150.0,-105.0,-801.0,-684.0
-35.0,-210.0,-150.0,-42.0,89.0,143.0,-113.0,-797.0,-672.0
-32.0,-209.0,-145.0,-41.0,90.0,139.0,-107.0,-789.0,-671.0
-35.0,-211.0,-145.0,-31.0,90.0,128.0,-115.0,-789.0,-661.0
-34.0,-205.0,-146.0,-19.0,84.0,121.0,-124.0,-762.0,-666.0
-26.0,-202.0,-151.0,-11.0,74.0,110.0,-96.0,-771.0,-669.0
-33.0,-205.0,-150.0,6.0,69.0,96.0,-114.0,-767.0,-667.0
-31.0,-204.0,-148.0,31.0,65.0,82.0,-113.0,-767.0,-671.0
-30.0,-208.0,-155.0,60.0,67.0,69.0,-103.0,-767.0,-684.0
-30.0,-207.0,-151.0,92.0,75.0,55.0,-109.0,-766.0,-680.0
-32.0,-207.0,-155.0,125.0,83.0,41.0,-112.0,-767.0,-694.0
-29.0,-208.0,-159.0,151.0,89.0,32.0,-102.0,-771.0,-715.0
-34.0,-209.0,-159.0,172.0,100.0,22.0,-117.0,-775.0,-724.0
-37.0,-206.0,-163.0,188.0,110.0,15.0,-120.0,-770.0,-727.0
-33.0,-206.0,-165.0,196.0,112.0,8.0,-118.0,-772.0,-732.0
-35.0,-207.0,-168.0,198.0,114.0,3.0,-117.0,-773.0,-737.0
-34.0,-210.0,-162.0,197.0,113.0,-1.0,-131.0,-777.0,-718.0
-44.0,-212.0,-157.0,202.0,112.0,-12.0,-142.0,-793.0,-708.0
-41.0,-209.0,-155.0,207.0,106.0,-25.0,-132.0,-782.0,-710.0
-43.0,-208.0,-153.0,214.0,99.0,-35.0,-144.0,-780.0,-693.0
-38.0,-207.0,-149.0,227.0,88.0,-43.0,-138.0,-770.0,-682.0
-42.0,-205.0,-147.0,243.0,81.0,-50.0,-143.0,-759.0,-674.0
-38.0,-203.0,-145.0,258.0,69.0,-52.0,-142.0,-760.0,-671.0
-35.0,-201.0,-144.0,267.0,56.0,-55.0,-139.0,-753.0,-658.0
-38.0,-196.0,-146.0,271.0,38.0,-53.0,-130.0,-739.0,-664.0
-32.0,-198.0,-144.0,273.0,27.0,-43.0,-113.0,-746.0,-656.0
-30.0,-200.0,-145.0,271.0,19.0,-30.0,-113.0,-750.0,-658.0
-31.0,-204.0,-147.0,260.0,8.0,-16.0,-110.0,-763.0,-672.0
-30.0,-205.0,-153.0,241.0,-1.0,-7.0,-109.0,-764.0,-682.0
-32.0,-203.0,-154.0,224.0,-8.0,2.0,-104.0,-769.0,-691.0
-31.0,-205.0,-158.0,213.0,-9.0,10.0,-109.0,-777.0,-702.0
-29.0,-210.0,-155.0,213.0,-5.0,10.0,-103.0,-784.0,-708.0
-31.0,-212.0,-158.0,220.0,3.0,7.0,-112.0,-800.0,-713.0
-30.0,-215.0,-161.0,235.0,14.0,2.0,-111.0,-806.0,-712.0
-33.0,-213.0,-156.0,252.0,28.0,-10.0,-116.0,-801.0,-713.0
-36.0,-211.0,-159.0,272.0,40.0,-18.0,-128.0,-803.0,-709.0
-36.0,-211.0,-156.0,294.0,52.0,-18.0,-133.0,-799.0,-701.0
-39.0,-213.0,-153.0,320.0,63.0,-15.0,-140.0,-794.0,-687.0
-38.0,-213.0,-150.0,348.0,72.0,-7.0,-142.0,-785.0,-678.0
-37.0,-209.0,-149.0,374.0,79.0,7.0,-141.0,-785.0,-676.0
-36.0,-214.0,-146.0,398.0,88.0,21.0,-141.0,-792.0,-672.0
-39.0,-212.0,-144.0,420.0,95.0,33.0,-136.0,-810.0,-671.0
-37.0,-219.0,-144.0,442.0,102.0,42.0,-128.0,-814.0,-653.0
-38.0,-220.0,-142.0,468.0,106.0,43.0,-139.0,-814.0,-650.0
-40.0,-218.0,-142.0,494.0,103.0,43.0,-141.0,-822.0,-642.0
-37.0,-221.0,-143.0,516.0,99.0,39.0,-145.0,-818.0,-636.0
-39.0,-214.0,-138.0,536.0,95.0,31.0,-136.0,-812.0,-634.0
-37.0,-220.0,-134.0,549.0,88.0,22.0,-129.0,-825.0,-620.0
-31.0,-220.0,-136.0,565.0,81.0,8.0,-121.0,-830.0,-617.0
-30.0,-219.0,-131.0,575.0,75.0,-6.0,-116.0,-829.0,-618.0
-29.0,-224.0,-131.0,582.0,69.0,-19.0,-100.0,-843.0,-604.0
-28.0,-220.0,-135.0,588.0,66.0,-32.0,-105.0,-828.0,-614.0
-30.0,-215.0,-132.0,592.0,59.0,-49.0,-89.0,-825.0,-622.0
-22.0,-220.0,-132.0,591.0,58.0,-62.0,-87.0,-829.0,-618.0
-25.0,-221.0,-131.0,589.0,56.0,-76.0,-87.0,-830.0,-613.0
-25.0,-221.0,-134.0,589.0,53.0,-87.0,-85.0,-831.0,-604.0
-23.0,-220.0,-131.0,589.0,54.0,-96.0,-85.0,-832.0,-604.0
-23.0,-222.0,-131.0,585.0,55.0,-110.0,-78.0,-834.0,-600.0
-21.0,-223.0,-130.0,585.0,56.0,-123.0,-78.0,-835.0,-595.0
-22.0,-224.0,-127.0,586.0,54.0,-132.0,-86.0,-836.0,-599.0
-25.0,-226.0,-131.0,592.0,52.0,-137.0,-92.0,-838.0,-587.0
-29.0,-224.0,-127.0,598.0,46.0,-137.0,-96.0,-844.0,-578.0
-30.0,-222.0,-128.0,607.0,35.0,-134.0,-100.0,-842.0,-579.0
-32.0,-226.0,-127.0,614.0,23.0,-129.0,-102.0,-857.0,-581.0
-32.0,-234.0,-124.0,623.0,15.0,-125.0,-102.0,-867.0,-569.0
-26.0,-228.0,-127.0,643.0,6.0,-122.0,-97.0,-860.0,-579.0
-29.0,-228.0,-130.0,661.0,3.0,-116.0,-97.0,-863.0,-585.0
-27.0,-227.0,-131.0,671.0,6.0,-112.0,-91.0,-859.0,-587.0
-28.0,-230.0,-128.0,674.0,12.0,-110.0,-91.0,-865.0,-582.0
-28.0,-234.0,-128.0,680.0,20.0,-111.0,-88.0,-870.0,-576.0
-26.0,-232.0,-123.0,687.0,25.0,-115.0,-86.0,-872.0,-572.0
-25.0,-232.0,-126.0,696.0,32.0,-122.0,-85.0,-874.0,-560.0
-27.0,-234.0,-122.0,704.0,39.0,-131.0,-90.0,-874.0,-554.0
-30.0,-233.0,-114.0,716.0,45.0,-137.0,-93.0,-880.0,-548.0
-29.0,-231.0,-118.0,727.0,49.0,-144.0,-98.0,-878.0,-539.0
-31.0,-234.0,-116.0,736.0,49.0,-147.0,-98.0,-872.0,-531.0
-33.0,-233.0,-117.0,743.0,46.0,-150.0,-99.0,-873.0,-536.0
-30.0,-236.0,-114.0,748.0,35.0,-151.0,-105.0,-874.0,-531.0
-33.0,-232.0,-114.0,752.0,30.0,-151.0,-105.0,-875.0,-526.0
-30.0,-236.0,-107.0,753.0,22.0,-148.0,-111.0,-883.0,-518.0
-31.0,-238.0,-108.0,753.0,13.0,-146.0,-102.0,-885.0,-507.0
-27.0,-239.0,-107.0,751.0,8.0,-142.0,-94.0,-882.0,-502.0
-25.0,-234.0,-106.0,751.0,7.0,-135.0,-82.0,-893.0,-485.0
-26.0,-238.0,-103.0,754.0,7.0,-130.0,-83.0,-892.0,-488.0
-26.0,-239.0,-103.0,754.0,11.0,-130.0,-77.0,-893.0,-490.0
-23.0,-240.0,-103.0,752.0,18.0,-134.0,-79.0,-899.0,-483.0
-21.0,-242.0,-98.0,747.0,26.0,-140.0,-76.0,-905.0,-475.0
-23.0,-243.0,-103.0,744.0,28.0,-146.0,-81.0,-907.0,-479.0
-27.0,-241.0,-99.0,739.0,30.0,-152.0,-88.0,-913.0,-477.0
-28.0,-248.0,-99.0,736.0,29.0,-156.0,-96.0,-908.0,-465.0
-33.0,-242.0,-97.0,732.0,25.0,-159.0,-103.0,-918.0,-479.0
-34.0,-248.0,-96.0,724.0,15.0,-161.0,-104.0,-924.0,-463.0
-34.0,-250.0,-101.0,717.0,4.0,-159.0,-112.0,-929.0,-459.0
-33.0,-248.0,-98.0,711.0,-11.0,-156.0,-119.0,-936.0,-458.0
-33.0,-251.0,-99.0,707.0,-25.0,-148.0,-109.0,-937.0,-463.0
-31.0,-252.0,-97.0,703.0,-39.0,-141.0,-101.0,-943.0,-455.0
-29.0,-254.0,-98.0,702.0,-51.0,-135.0,-93.0,-950.0,-456.0
-30.0,-254.0,-96.0,705.0,-60.0,-131.0,-95.0,-958.0,-455.0
-30.0,-255.0,-99.0,711.0,-62.0,-128.0,-92.0,-962.0,-451.0
-25.0,-262.0,-95.0,718.0,-59.0,-128.0,-87.0,-971.0,-453.0
-24.0,-258.0,-94.0,722.0,-50.0,-129.0,-78.0,-973.0,-452.0
-20.0,-260.0,-98.0,718.0,-37.0,-132.0,-73.0,-984.0,-454.0
-22.0,-260.0,-99.0,715.0,-16.0,-141.0,-66.0,-988.0,-475.0
-23.0,-259.0,-101.0,707.0,1.0,-146.0,-69.0,-986.0,-473.0
-23.0,-262.0,-101.0,700.0,18.0,-151.0,-78.0,-986.0,-474.0
-26.0,-263.0,-98.0,693.0,34.0,-156.0,-81.0,-994.0,-467.0
-24.0,-266.0,-98.0,692.0,48.0,-159.0,-89.0,-998.0,-464.0
-26.0,-263.0,-102.0,691.0,57.0,-162.0,-89.0,-996.0,-460.0
-30.0,-263.0,-98.0,691.0,64.0,-163.0,-91.0,-998.0,-456.0
-33.0,-261.0,-97.0,691.0,66.0,-165.0,-99.0,-1002.0,-458.0
-32.0,-265.0,-96.0,690.0,62.0,-164.0,-101.0,-1009.0,-451.0
-29.0,-267.0,-98.0,690.0,59.0,-163.0,-106.0,-1016.0,-454.0
-35.0,-269.0,-100.0,686.0,53.0,-162.0,-118.0,-1023.0,-450.0
-40.0,-267.0,-92.0,684.0,43.0,-162.0,-123.0,-1032.0,-450.0
-36.0,-269.0,-95.0,678.0,33.0,-162.0,-129.0,-1035.0,-449.0
-38.0,-269.0,-100.0,669.0,24.0,-165.0,-129.0,-1031.0,-455.0
-39.0,-269.0,-95.0,661.0,14.0,-167.0,-121.0,-1031.0,-452.0
-35.0,-270.0,-98.0,657.0,7.0,-168.0,-112.0,-1030.0,-446.0
-35.0,-269.0,-94.0,657.0,0.0,-171.0,-106.0,-1036.0,-449.0
-30.0,-271.0,-99.0,660.0,-5.0,-169.0,-97.0,-1029.0,-449.0
-31.0,-271.0,-98.0,665.0,-5.0,-166.0,-101.0,-1033.0,-443.0
-32.0,-271.0,-94.0,666.0,-7.0,-163.0,-98.0,-1034.0,-448.0
-31.0,-267.0,-93.0,668.0,-10.0,-161.0,-99.0,-1034.0,-442.0
-31.0,-268.0,-93.0,668.0,-10.0,-159.0,-94.0,-1029.0,-437.0
-26.0,-270.0,-93.0,667.0,-6.0,-158.0,-94.0,-1027.0,-433.0
-30.0,-265.0,-90.0,665.0,-2.0,-153.0,-90.0,-1023.0,-433.0
-28.0,-264.0,-88.0,660.0,2.0,-150.0,-91.0,-1006.0,-429.0
-31.0,-262.0,-90.0,654.0,7.0,-147.0,-93.0,-1005.0,-431.0
-26.0,-265.0,-87.0,647.0,13.0,-144.0,-82.0,-1002.0,-421.0
-29.0,-264.0,-86.0,640.0,19.0,-143.0,-85.0,-998.0,-422.0
-26.0,-262.0,-84.0,631.0,20.0,-141.0,-84.0,-1006.0,-411.0
-26.0,-266.0,-76.0,625.0,19.0,-142.0,-85.0,-1008.0,-407.0
-28.0,-267.0,-77.0,621.0,19.0,-141.0,-85.0,-1012.0,-411.0
-25.0,-269.0,-81.0,615.0,18.0,-141.0,-91.0,-1013.0,-404.0
-27.0,-266.0,-80.0,613.0,14.0,-142.0,-94.0,-1016.0,-403.0
-27.0,-268.0,-81.0,613.0,10.0,-144.0,-95.0,-1017.0,-392.0
-27.0,-266.0,-81.0,613.0,6.0,-144.0,-94.0,-1013.0,-397.0
-27.0,-266.0,-80.0,617.0,3.0,-144.0,-91.0,-1004.0,-388.0
-28.0,-262.0,-75.0,622.0,-3.0,-144.0,-85.0,-998.0,-384.0
-27.0,-265.0,-76.0,625.0,-7.0,-144.0,-85.0,-995.0,-369.0
-27.0,-263.0,-76.0,628.0,-10.0,-146.0,-85.0,-995.0,-362.0
-26.0,-261.0,-70.0,629.0,-14.0,-147.0,-85.0,-990.0,-349.0
-27.0,-261.0,-66.0,631.0,-18.0,-145.0,-85.0,-988.0,-337.0
-25.0,-260.0,-63.0,633.0,-21.0,-146.0,-82.0,-978.0,-327.0
-25.0,-259.0,-65.0,635.0,-24.0,-147.0,-86.0,-978.0,-318.0
-25.0,-256.0,-62.0,637.0,-26.0,-144.0,-76.0,-973.0,-312.0
-22.0,-255.0,-60.0,640.0,-27.0,-146.0,-74.0,-961.0,-304.0
-19.0,-255.0,-58.0,645.0,-27.0,-147.0,-69.0,-961.0,-287.0
-21.0,-255.0,-57.0,648.0,-26.0,-147.0,-63.0,-949.0,-282.0
-17.0,-253.0,-52.0,652.0,-22.0,-146.0,-61.0,-946.0,-270.0
-20.0,-251.0,-53.0,659.0,-20.0,-145.0,-54.0,-944.0,-267.0
-20.0,-250.0,-52.0,667.0,-18.0,-145.0,-52.0,-938.0,-260.0
-15.0,-249.0,-48.0,681.0,-13.0,-143.0,-49.0,-936.0,-252.0
-14.0,-252.0,-42.0,696.0,-8.0,-144.0,-45.0,-937.0,-253.0
-13.0,-252.0,-40.0,713.0,-3.0,-145.0,-35.0,-954.0,-217.0
-14.0,-258.0,-37.0,737.0,7.0,-155.0,-37.0,-955.0,-217.0
-17.0,-255.0,-42.0,767.0,15.0,-162.0,-55.0,-959.0,-220.0
-15.0,-255.0,-28.0,798.0,27.0,-168.0,-48.0,-956.0,-200.0
-14.0,-255.0,-25.0,825.0,39.0,-172.0,-46.0,-957.0,-176.0
-17.0,-258.0,-29.0,844.0,45.0,-180.0,-50.0,-975.0,-155.0
-21.0,-264.0,-22.0,868.0,47.0,-188.0,-58.0,-997.0,-147.0
-19.0,-272.0,-19.0,897.0,49.0,-196.0,-59.0,-1041.0,-143.0
-17.0,-283.0,-19.0,927.0,52.0,-200.0,-48.0,-1073.0,-133.0
-18.0,-291.0,-20.0,953.0,55.0,-204.0,-45.0,-1098.0,-127.0
-20.0,-295.0,-17.0,971.0,61.0,-207.0,-58.0,-1121.0,-134.0
-21.0,-302.0,-22.0,982.0,66.0,-208.0,-66.0,-1149.0,-140.0
-25.0,-308.0,-18.0,986.0,72.0,-204.0,-72.0,-1175.0,-137.0
-21.0,-316.0,-22.0,985.0,82.0,-197.0,-64.0,-1197.0,-133.0
-21.0,-320.0,-20.0,975.0,94.0,-191.0,-53.0,-1236.0,-135.0
-20.0,-328.0,-23.0,948.0,107.0,-187.0,-45.0,-1257.0,-162.0
-15.0,-335.0,-31.0,898.0,121.0,-183.0,-39.0,-1290.0,-193.0
-17.0,-336.0,-40.0,833.0,136.0,-178.0,-43.0,-1296.0,-222.0
-15.0,-339.0,-47.0,758.0,153.0,-173.0,-38.0,-1306.0,-259.0
-14.0,-339.0,-54.0,684.0,172.0,-163.0,-41.0,-1299.0,-283.0
-17.0,-338.0,-61.0,618.0,193.0,-152.0,-50.0,-1293.0,-301.0
-15.0,-337.0,-57.0,561.0,213.0,-141.0,-48.0,-1289.0,-290.0
-20.0,-331.0,-55.0,512.0,234.0,-132.0,-44.0,-1278.0,-270.0
-18.0,-328.0,-43.0,464.0,253.0,-121.0,-43.0,-1259.0,-242.0
-19.0,-321.0,-36.0,421.0,269.0,-114.0,-46.0,-1240.0,-201.0
-12.0,-319.0,-25.0,382.0,284.0,-110.0,-41.0,-1228.0,-163.0
-16.0,-319.0,-20.0,347.0,294.0,-109.0,-40.0,-1210.0,-131.0
-16.0,-306.0,-10.0,313.0,297.0,-114.0,-34.0,-1180.0,-118.0
-12.0,-302.0,-15.0,284.0,294.0,-118.0,-37.0,-1153.0,-112.0
-15.0,-292.0,-13.0,259.0,284.0,-123.0,-28.0,-1123.0,-117.0
-13.0,-284.0,-18.0,241.0,269.0,-125.0,-30.0,-1088.0,-118.0
-11.0,-273.0,-15.0,230.0,249.0,-127.0,-22.0,-1058.0,-129.0
-10.0,-265.0,-19.0,227.0,229.0,-125.0,-14.0,-1024.0,-137.0
-8.0,-257.0,-18.0,228.0,207.0,-122.0,-7.0,-980.0,-139.0
-5.0,-248.0,-21.0,231.0,189.0,-118.0,1.0,-945.0,-141.0
-1.0,-240.0,-17.0,237.0,174.0,-111.0,6.0,-914.0,-135.0
-2.0,-232.0,-19.0,240.0,160.0,-104.0,14.0,-879.0,-128.0
-1.0,-220.0,-15.0,242.0,150.0,-94.0,14.0,-853.0,-108.0
-1.0,-222.0,-11.0,242.0,140.0,-87.0,16.0,-827.0,-96.0
-2.0,-214.0,-2.0,241.0,132.0,-79.0,10.0,-819.0,-83.0
0.0,-212.0,-1.0,239.0,127.0,-73.0,11.0,-819.0,-61.0
-1.0,-214.0,3.0,235.0,120.0,-68.0,2.0,-816.0,-47.0
-4.0,-218.0,6.0,233.0,116.0,-62.0,-7.0,-829.0,-29.0
-6.0,-218.0,11.0,230.0,109.0,-58.0,-10.0,-838.0,-24.0
-3.0,-224.0,11.0,222.0,102.0,-54.0,-12.0,-857.0,-10.0
-7.0,-229.0,18.0,212.0,96.0,-50.0,-18.0,-872.0,6.0
-12.0,-232.0,21.0,200.0,88.0,-43.0,-17.0,-891.0,18.0
-5.0,-239.0,22.0,189.0,82.0,-38.0,-9.0,-910.0,34.0
-2.0,-241.0,20.0,183.0,77.0,-29.0,-3.0,-933.0,39.0
-1.0,-251.0,18.0,181.0,73.0,-24.0,10.0,-961.0,46.0
1.0,-259.0,25.0,187.0,74.0,-18.0,19.0,-977.0,54.0
0.0,-266.0,25.0,197.0,78.0,-13.0,30.0,-1004.0,54.0
2.0,-268.0,29.0,213.0,84.0,-8.0,35.0,-1022.0,55.0
2.0,-273.0,24.0,230.0,94.0,-7.0,42.0,-1039.0,49.0
3.0,-274.0,26.0,251.0,106.0,-6.0,40.0,-1052.0,44.0
4.0,-278.0,23.0,267.0,118.0,-10.0,38.0,-1065.0,41.0
2.0,-281.0,22.0,286.0,130.0,-16.0,40.0,-1073.0,40.0
1.0,-285.0,20.0,303.0,145.0,-23.0,37.0,-1080.0,27.0
4.0,-280.0,14.0,315.0,159.0,-30.0,31.0,-1077.0,16.0
3.0,-281.0,14.0,327.0,175.0,-37.0,33.0,-1076.0,14.0
1.0,-279.0,14.0,336.0,190.0,-43.0,28.0,-1084.0,10.0
3.0,-280.0,14.0,343.0,206.0,-50.0,30.0,-1077.0,-3.0
0.0,-282.0,11.0,349.0,220.0,-55.0,27.0,-1074.0,-5.0
-1.0,-278.0,9.0,350.0,232.0,-59.0,23.0,-1069.0,-15.0
-2.0,-278.0,6.0,346.0,242.0,-62.0,16.0,-1057.0,-17.0
-2.0,-271.0,8.0,336.0,248.0,-62.0,14.0,-1054.0,-20.0
-4.0,-272.0,9.0,325.0,247.0,-64.0,11.0,-1044.0,-28.0
-4.0,-269.0,3.0,313.0,235.0,-65.0,-2.0,-1031.0,-36.0
-6.0,-264.0,5.0,296.0,213.0,-70.0,-10.0,-1028.0,-39.0
-9.0,-267.0,5.0,277.0,187.0,-73.0,-15.0,-1005.0,-42.0
-10.0,-261.0,2.0,261.0,157.0,-76.0,-18.0,-991.0,-53.0
-7.0,-262.0,2.0,248.0,130.0,-79.0,-23.0,-994.0,-54.0
-12.0,-262.0,-1.0,248.0,103.0,-84.0,-27.0,-997.0,-66.0
-13.0,-258.0,-1.0,249.0,77.0,-89.0,-27.0,-991.0,-68.0
-12.0,-259.0,-2.0,251.0,60.0,-92.0,-24.0,-984.0,-69.0
-12.0,-260.0,-2.0,251.0,47.0,-90.0,-24.0,-986.0,-67.0
-9.0,-261.0,-2.0,247.0,36.0,-89.0,-26.0,-991.0,-72.0
-9.0,-261.0,0.0,243.0,37.0,-82.0,-14.0,-990.0,-63.0
-10.0,-260.0,0.0,235.0,42.0,-76.0,-11.0,-995.0,-63.0
-7.0,-263.0,-1.0,228.0,49.0,-68.0,-13.0,-1000.0,-54.0
-6.0,-262.0,3.0,223.0,58.0,-61.0,2.0,-996.0,-42.0
-1.0,-263.0,4.0,219.0,67.0,-56.0,8.0,-1004.0,-32.0
-3.0,-259.0,8.0,215.0,75.0,-51.0,7.0,-1005.0,-26.0
0.0,-264.0,8.0,215.0,77.0,-45.0,13.0,-1004.0,-17.0
-3.0,-264.0,11.0,219.0,76.0,-40.0,15.0,-1012.0,-14.0
-1.0,-266.0,12.0,222.0,72.0,-34.0,13.0,-1015.0,-8.0
-1.0,-265.0,12.0,225.0,64.0,-29.0,12.0,-1020.0,0.0
-1.0,-268.0,15.0,227.0,52.0,-25.0,9.0,-1011.0,4.0
-2.0,-267.0,14.0,229.0,43.0,-24.0,11.0,-1020.0,13.0
-5.0,-265.0,17.0,233.0,34.0,-25.0,3.0,-1004.0,18.0
-5.0,-267.0,21.0,235.0,23.0,-27.0,-3.0,-1016.0,26.0
-6.0,-261.0,23.0,236.0,16.0,-29.0,-8.0,-1000.0,40.0
-6.0,-260.0,22.0,239.0,10.0,-33.0,-11.0,-1003.0,38.0
-5.0,-263.0,23.0,244.0,7.0,-35.0,-8.0,-1006.0,41.0
-6.0,-265.0,23.0,249.0,6.0,-36.0,-6.0,-1001.0,42.0
-5.0,-266.0,27.0,252.0,11.0,-34.0,1.0,-1004.0,43.0
-6.0,-267.0,23.0,254.0,15.0,-34.0,1.0,-1004.0,46.0
-3.0,-265.0,21.0,255.0,20.0,-33.0,6.0,-1020.0,40.0
-2.0,-264.0,28.0,255.0,25.0,-31.0,3.0,-1026.0,45.0
-3.0,-268.0,26.0,256.0,28.0,-31.0,10.0,-1028.0,40.0
-1.0,-266.0,24.0,252.0,32.0,-32.0,9.0,-1025.0,33.0
0.0,-266.0,21.0,249.0,40.0,-33.0,9.0,-1034.0,36.0
1.0,-271.0,21.0,241.0,45.0,-37.0,12.0,-1033.0,36.0
0.0,-270.0,23.0,229.0,54.0,-42.0,8.0,-1039.0,32.0
-5.0,-274.0,23.0,214.0,65.0,-47.0,9.0,-1036.0,33.0
-2.0,-272.0,24.0,200.0,79.0,-52.0,12.0,-1039.0,30.0
-2.0,-270.0,22.0,188.0,92.0,-56.0,12.0,-1038.0,30.0
0.0,-272.0,23.0,179.0,104.0,-57.0,15.0,-1036.0,39.0
0.0,-268.0,23.0,175.0,112.0,-56.0,15.0,-1034.0,43.0
0.0,-266.0,25.0,173.0,116.0,-56.0,20.0,-1025.0,44.0
0.0,-267.0,24.0,175.0,116.0,-56.0,24.0,-1003.0,47.0
1.0,-262.0,25.0,178.0,115.0,-55.0,24.0,-999.0,44.0
0.0,-262.0,26.0,182.0,113.0,-52.0,25.0,-987.0,51.0
1.0,-262.0,26.0,187.0,113.0,-49.0,31.0,-989.0,52.0
0.0,-256.0,26.0,191.0,114.0,-45.0,29.0,-986.0,52.0
1.0,-258.0,24.0,192.0,116.0,-40.0,31.0,-982.0,48.0
1.0,-258.0,25.0,188.0,120.0,-36.0,31.0,-982.0,50.0
0.0,-257.0,27.0,178.0,128.0,-33.0,32.0,-989.0,57.0
2.0,-260.0,31.0,166.0,143.0,-28.0,37.0,-992.0,69.0
2.0,-262.0,39.0,155.0,159.0,-22.0,40.0,-1001.0,85.0
7.0,-263.0,39.0,148.0,179.0,-19.0,45.0,-1013.0,98.0
6.0,-263.0,41.0,145.0,194.0,-16.0,45.0,-1014.0,104.0
5.0,-261.0,35.0,147.0,204.0,-16.0,52.0,-1003.0,99.0
3.0,-262.0,36.0,155.0,195.0,-25.0,49.0,-993.0,91.0
3.0,-261.0,30.0,160.0,175.0,-42.0,37.0,-989.0,76.0
0.0,-258.0,27.0,164.0,146.0,-58.0,31.0,-986.0,63.0
0.0,-262.0,25.0,166.0,117.0,-68.0,18.0,-987.0,47.0
0.0,-261.0,27.0,164.0,95.0,-67.0,17.0,-989.0,49.0
-4.0,-261.0,23.0,158.0,85.0,-61.0,15.0,-991.0,47.0
1.0,-261.0,28.0,148.0,87.0,-49.0,28.0,-1004.0,58.0
3.0,-264.0,28.0,141.0,98.0,-38.0,35.0,-1005.0,67.0
8.0,-262.0,35.0,136.0,114.0,-32.0,47.0,-1012.0,83.0
11.0,-263.0,37.0,135.0,137.0,-33.0,56.0,-1011.0,92.0
12.0,-263.0,38.0,137.0,159.0,-38.0,70.0,-1005.0,100.0
10.0,-260.0,38.0,134.0,175.0,-47.0,70.0,-996.0,100.0
11.0,-259.0,38.0,125.0,184.0,-54.0,68.0,-995.0,100.0
11.0,-261.0,38.0,113.0,187.0,-65.0,67.0,-1001.0,101.0
8.0,-261.0,41.0,99.0,184.0,-70.0,56.0,-1006.0,97.0
5.0,-266.0,38.0,89.0,181.0,-75.0,43.0,-1029.0,97.0
3.0,-269.0,38.0,85.0,177.0,-77.0,39.0,-1040.0,100.0
2.0,-273.0,37.0,87.0,169.0,-78.0,33.0,-1041.0,89.0
-2.0,-269.0,34.0,94.0,163.0,-80.0,17.0,-1040.0,78.0
-1.0,-268.0,27.0,104.0,154.0,-81.0,11.0,-1036.0,63.0
-7.0,-268.0,26.0,113.0,147.0,-81.0,2.0,-1031.0,55.0
-9.0,-265.0,25.0,119.0,142.0,-79.0,-10.0,-1023.0,40.0
-10.0,-261.0,24.0,121.0,139.0,-74.0,-21.0,-1002.0,39.0
-10.0,-260.0,22.0,120.0,140.0,-68.0,-19.0,-997.0,39.0
-7.0,-257.0,24.0,116.0,141.0,-57.0,-15.0,-992.0,41.0
-10.0,-258.0,25.0,114.0,144.0,-46.0,-18.0,-982.0,41.0
-9.0,-258.0,26.0,106.0,146.0,-33.0,-15.0,-976.0,50.0
-6.0,-257.0,27.0,94.0,146.0,-20.0,-14.0,-983.0,43.0
-8.0,-257.0,25.0,81.0,143.0,-10.0,-10.0,-981.0,40.0
-8.0,-257.0,24.0,64.0,137.0,1.0,-12.0,-981.0,36.0
-9.0,-256.0,22.0,43.0,132.0,6.0,-15.0,-981.0,31.0
-8.0,-259.0,18.0,20.0,125.0,12.0,-19.0,-988.0,17.0
-8.0,-260.0,18.0,-4.0,119.0,16.0,-18.0,-988.0,13.0
-13.0,-259.0,17.0,-24.0,116.0,21.0,-26.0,-989.0,8.0
-13.0,-261.0,16.0,-42.0,111.0,24.0,-27.0,-993.0,13.0
-13.0,-259.0,21.0,-55.0,107.0,28.0,-40.0,-992.0,12.0
-12.0,-265.0,19.0,-60.0,105.0,32.0,-36.0,-1000.0,20.0
-16.0,-264.0,22.0,-57.0,101.0,34.0,-28.0,-999.0,33.0
-13.0,-264.0,21.0,-53.0,95.0,34.0,-33.0,-1011.0,41.0
-14.0,-265.0,23.0,-47.0,85.0,31.0,-31.0,-1014.0,48.0
-14.0,-266.0,25.0,-41.0,78.0,23.0,-29.0,-1024.0,54.0
-13.0,-267.0,27.0,-33.0,73.0,17.0,-28.0,-1026.0,57.0
-7.0,-268.0,28.0,-26.0,66.0,11.0,-19.0,-1032.0,61.0
-10.0,-269.0,32.0,-19.0,65.0,6.0,-14.0,-1034.0,67.0
-7.0,-269.0,23.0,-12.0,67.0,1.0,-5.0,-1035.0,70.0
-4.0,-270.0,34.0,0.0,72.0,-3.0,1.0,-1036.0,74.0
-1.0,-267.0,31.0,13.0,77.0,-5.0,8.0,-1041.0,79.0
0.0,-269.0,36.0,28.0,85.0,-7.0,16.0,-1032.0,83.0
0.0,-267.0,36.0,46.0,90.0,-5.0,19.0,-1031.0,88.0
1.0,-268.0,40.0,66.0,95.0,-2.0,22.0,-1031.0,89.0
0.0,-267.0,42.0,86.0,101.0,1.0,24.0,-1028.0,98.0
0.0,-265.0,41.0,106.0,105.0,2.0,24.0,-1020.0,104.0
1.0,-264.0,42.0,123.0,111.0,1.0,29.0,-1011.0,104.0
1.0,-265.0,40.0,138.0,118.0,0.0,33.0,-1009.0,114.0
2.0,-262.0,42.0,150.0,124.0,-5.0,32.0,-1016.0,115.0
1.0,-262.0,45.0,161.0,132.0,-11.0,30.0,-993.0,114.0
2.0,-263.0,42.0,168.0,141.0,-16.0,30.0,-989.0,118.0
2.0,-258.0,47.0,169.0,149.0,-22.0,30.0,-980.0,118.0
0.0,-257.0,44.0,169.0,156.0,-27.0,33.0,-978.0,123.0
4.0,-256.0,44.0,163.0,161.0,-31.0,40.0,-971.0,121.0
1.0,-253.0,45.0,156.0,165.0,-37.0,38.0,-967.0,124.0
1.0,-256.0,49.0,145.0,164.0,-39.0,38.0,-976.0,126.0
2.0,-256.0,47.0,133.0,160.0,-40.0,40.0,-972.0,129.0
4.0,-256.0,47.0,120.0,153.0,-42.0,42.0,-975.0,128.0
4.0,-255.0,43.0,107.0,144.0,-42.0,45.0,-977.0,129.0
5.0,-256.0,44.0,96.0,133.0,-40.0,46.0,-978.0,125.0
8.0,-258.0,46.0,88.0,124.0,-38.0,47.0,-975.0,122.0
2.0,-259.0,48.0,81.0,116.0,-34.0,47.0,-978.0,124.0
7.0,-258.0,38.0,79.0,108.0,-27.0,50.0,-982.0,116.0
3.0,-261.0,46.0,77.0,97.0,-21.0,50.0,-986.0,112.0
4.0,-260.0,44.0,75.0,86.0,-16.0,44.0,-994.0,114.0
4.0,-262.0,41.0,71.0,75.0,-15.0,40.0,-996.0,106.0
2.0,-262.0,41.0,67.0,65.0,-15.0,44.0,-1000.0,107.0
4.0,-262.0,41.0,65.0,58.0,-14.0,36.0,-998.0,109.0
3.0,-264.0,39.0,64.0,53.0,-18.0,35.0,-997.0,99.0
1.0,-262.0,37.0,63.0,52.0,-19.0,32.0,-999.0,96.0
4.0,-263.0,34.0,61.0,54.0,-21.0,34.0,-993.0,90.0
1.0,-261.0,32.0,60.0,57.0,-23.0,32.0,-993.0,87.0
3.0,-260.0,31.0,58.0,62.0,-26.0,27.0,-991.0,86.0
2.0,-261.0,35.0,56.0,68.0,-29.0,26.0,-998.0,86.0
2.0,-261.0,38.0,51.0,72.0,-34.0,24.0,-993.0,85.0
0.0,-261.0,38.0,46.0,76.0,-35.0,24.0,-993.0,88.0
1.0,-259.0,37.0,39.0,80.0,-34.0,30.0,-992.0,86.0
0.0,-261.0,35.0,34.0,80.0,-33.0,26.0,-993.0,88.0
0.0,-257.0,37.0,29.0,82.0,-32.0,31.0,-992.0,87.0
0.0,-260.0,36.0,24.0,81.0,-30.0,33.0,-992.0,89.0
2.0,-264.0,40.0,18.0,81.0,-27.0,26.0,-994.0,91.0
2.0,-260.0,37.0,15.0,79.0,-23.0,22.0,-993.0,89.0
2.0,-260.0,35.0,9.0,77.0,-19.0,25.0,-997.0,93.0
-1.0,-259.0,40.0,3.0,74.0,-16.0,25.0,-996.0,87.0
0.0,-261.0,34.0,-4.0,73.0,-11.0,24.0,-1000.0,85.0
1.0,-263.0,38.0,-10.0,71.0,-6.0,21.0,-993.0,85.0
-1.0,-262.0,36.0,-15.0,70.0,-2.0,23.0,-994.0,90.0
0.0,-263.0,39.0,-19.0,71.0,3.0,18.0,-998.0,88.0
-3.0,-262.0,36.0,-24.0,71.0,4.0,13.0,-996.0,87.0
-2.0,-260.0,37.0,-27.0,73.0,4.0,19.0,-1000.0,87.0
0.0,-263.0,37.0,-26.0,76.0,6.0,20.0,-1002.0,94.0
1.0,-267.0,36.0,-27.0,79.0,6.0,19.0,-998.0,93.0
-2.0,-263.0,35.0,-24.0,81.0,7.0,17.0,-1015.0,90.0
0.0,-262.0,38.0,-20.0,83.0,7.0,18.0,-1006.0,94.0
0.0,-261.0,38.0,-17.0,85.0,5.0,20.0,-1005.0,90.0
0.0,-264.0,37.0,-15.0,85.0,3.0,14.0,-1000.0,88.0
0.0,-264.0,38.0,-12.0,87.0,2.0,19.0,-1002.0,95.0
-4.0,-265.0,36.0,-11.0,86.0,-2.0,14.0,-1009.0,91.0
-1.0,-265.0,36.0,-8.0,85.0,-4.0,17.0,-1011.0,99.0
-1.0,-264.0,35.0,-5.0,85.0,-5.0,14.0,-1008.0,102.0
-2.0,-264.0,38.0,-3.0,85.0,-5.0,11.0,-1004.0,101.0
0.0,-265.0,43.0,1.0,85.0,-5.0,16.0,-1003.0,102.0
-1.0,-265.0,41.0,7.0,84.0,-6.0,14.0,-1013.0,108.0
-2.0,-262.0,39.0,12.0,84.0,-6.0,14.0,-1005.0,107.0
0.0,-265.0,41.0,14.0,84.0,-7.0,16.0,-1016.0,107.0
-4.0,-263.0,43.0,13.0,80.0,-7.0,15.0,-1007.0,111.0
-3.0,-262.0,42.0,14.0,80.0,-9.0,15.0,-1009.0,108.0
-1.0,-265.0,48.0,14.0,80.0,-12.0,12.0,-1011.0,110.0
-1.0,-264.0,41.0,15.0,81.0,-13.0,14.0,-1004.0,111.0
0.0,-261.0,41.0,15.0,82.0,-16.0,13.0,-998.0,114.0
-1.0,-263.0,42.0,14.0,83.0,-16.0,15.0,-1003.0,109.0
0.0,-261.0,42.0,13.0,86.0,-19.0,15.0,-1000.0,114.0
0.0,-263.0,47.0,14.0,87.0,-18.0,15.0,-995.0,115.0
1.0,-264.0,46.0,16.0,90.0,-19.0,20.0,-1002.0,114.0
-2.0,-265.0,40.0,15.0,89.0,-18.0,23.0,-1002.0,112.0
0.0,-261.0,43.0,15.0,91.0,-18.0,23.0,-999.0,112.0
1.0,-262.0,41.0,16.0,91.0,-17.0,18.0,-1002.0,118.0
0.0,-261.0,44.0,17.0,92.0,-16.0,23.0,-1002.0,116.0
2.0,-264.0,45.0,18.0,92.0,-15.0,16.0,-997.0,114.0
0.0,-264.0,40.0,20.0,92.0,-12.0,18.0,-1006.0,113.0
0.0,-263.0,42.0,21.0,92.0,-11.0,22.0,-1011.0,108.0
-1.0,-263.0,39.0,22.0,92.0,-10.0,20.0,-1007.0,106.0
-4.0,-265.0,44.0,22.0,88.0,-8.0,19.0,-1015.0,107.0
0.0,-266.0,43.0,23.0,86.0,-6.0,18.0,-1006.0,102.0
-1.0,-265.0,40.0,23.0,82.0,-6.0,17.0,-1017.0,99.0
-1.0,-265.0,35.0,22.0,79.0,-6.0,15.0,-1009.0,100.0
-3.0,-264.0,41.0,23.0,77.0,-6.0,13.0,-1020.0,97.0
6.0,-262.0,39.0,24.0,75.0,-7.0,12.0,-1005.0,96.0
-1.0,-265.0,37.0,25.0,73.0,-7.0,11.0,-1003.0,97.0
-1.0,-264.0,41.0,27.0,74.0,-6.0,17.0,-1007.0,93.0
-1.0,-263.0,37.0,30.0,74.0,-6.0,13.0,-1000.0,93.0
-5.0,-262.0,40.0,33.0,75.0,-7.0,14.0,-1000.0,94.0
0.0,-263.0,37.0,34.0,77.0,-5.0,22.0,-1000.0,95.0
-2.0,-262.0,38.0,36.0,79.0,-6.0,25.0,-999.0,95.0
0.0,-263.0,40.0,39.0,79.0,-4.0,22.0,-1003.0,96.0
1.0,-262.0,35.0,40.0,79.0,-1.0,28.0,-1000.0,99.0
0.0,-260.0,38.0,39.0,78.0,-1.0,26.0,-1002.0,103.0
0.0,-262.0,38.0,36.0,76.0,-2.0,24.0,-1001.0,97.0
-3.0,-263.0,38.0,32.0,73.0,-2.0,28.0,-1002.0,101.0
0.0,-266.0,37.0,26.0,68.0,-4.0,21.0,-1009.0,103.0
1.0,-262.0,36.0,20.0,61.0,-4.0,17.0,-1008.0,94.0
-1.0,-260.0,40.0,14.0,55.0,-6.0,20.0,-1009.0,94.0
0.0,-264.0,38.0,10.0,48.0,-9.0,16.0,-1004.0,93.0
1.0,-266.0,39.0,8.0,43.0,-9.0,14.0,-1011.0,91.0
2.0,-266.0,38.0,8.0,43.0,-10.0,19.0,-1002.0,93.0
2.0,-264.0,37.0,11.0,41.0,-13.0,15.0,-1006.0,93.0
-1.0,-263.0,38.0,14.0,42.0,-13.0,22.0,-995.0,94.0
0.0,-263.0,37.0,18.0,42.0,-13.0,16.0,-997.0,92.0
1.0,-262.0,40.0,21.0,44.0,-11.0,24.0,-999.0,94.0
1.0,-266.0,42.0,24.0,45.0,-12.0,28.0,-1001.0,103.0
2.0,-262.0,40.0,27.0,47.0,-11.0,24.0,-998.0,110.0
3.0,-265.0,44.0,28.0,47.0,-12.0,33.0,-1010.0,110.0
3.0,-263.0,44.0,31.0,46.0,-11.0,27.0,-1006.0,112.0
1.0,-264.0,44.0,32.0,48.0,-10.0,29.0,-1016.0,115.0
4.0,-267.0,42.0,33.0,49.0,-12.0,28.0,-1008.0,114.0
3.0,-267.0,43.0,34.0,51.0,-14.0,26.0,-1017.0,107.0
1.0,-263.0,44.0,35.0,53.0,-17.0,21.0,-1016.0,109.0
1.0,-264.0,41.0,36.0,56.0,-16.0,26.0,-1003.0,105.0
0.0,-264.0,45.0,37.0,58.0,-19.0,22.0,-1000.0,108.0
1.0,-262.0,40.0,36.0,61.0,-21.0,18.0,-1000.0,108.0
0.0,-259.0,42.0,35.0,64.0,-21.0,18.0,-997.0,108.0
0.0,-263.0,43.0,32.0,65.0,-22.0,23.0,-994.0,104.0
0.0,-260.0,42.0,30.0,63.0,-23.0,23.0,-995.0,109.0
2.0,-261.0,42.0,27.0,62.0,-24.0,22.0,-997.0,107.0
0.0,-260.0,45.0,26.0,59.0,-24.0,27.0,-991.0,109.0
0.0,-262.0,39.0,26.0,56.0,-25.0,25.0,-997.0,115.0
0.0,-262.0,46.0,26.0,54.0,-26.0,21.0,-992.0,112.0
0.0,-260.0,40.0,25.0,53.0,-26.0,24.0,-995.0,111.0
0.0,-262.0,42.0,24.0,51.0,-26.0,21.0,-994.0,111.0
1.0,-262.0,42.0,23.0,50.0,-25.0,23.0,-996.0,108.0
0.0,-261.0,42.0,20.0,50.0,-25.0,25.0,-999.0,113.0
0.0,-263.0,36.0,16.0,49.0,-25.0,21.0,-999.0,110.0
-2.0,-265.0,46.0,12.0,47.0,-24.0,22.0,-1000.0,113.0
1.0,-263.0,45.0,9.0,48.0,-23.0,24.0,-1009.0,114.0
0.0,-263.0,42.0,8.0,45.0,-22.0,21.0,-1012.0,110.0
0.0,-264.0,42.0,7.0,45.0,-21.0,23.0,-1011.0,110.0
1.0,-261.0,43.0,7.0,43.0,-20.0,22.0,-1006.0,106.0
-1.0,-263.0,42.0,6.0,42.0,-19.0,19.0,-1009.0,109.0
0.0,-261.0,41.0,7.0,41.0,-17.0,18.0,-1016.0,101.0
0.0,-260.0,43.0,9.0,40.0,-18.0,19.0,-1000.0,108.0
0.0,-259.0,36.0,12.0,43.0,-16.0,19.0,-1001.0,105.0
0.0,-264.0,41.0,16.0,45.0,-16.0,23.0,-1002.0,106.0
0.0,-265.0,41.0,19.0,48.0,-18.0,25.0,-995.0,107.0
0.0,-261.0,43.0,19.0,48.0,-17.0,26.0,-996.0,105.0
0.0,-261.0,42.0,20.0,53.0,-17.0,26.0,-998.0,100.0
1.0,-261.0,37.0,17.0,56.0,-16.0,32.0,-992.0,101.0
1.0,-262.0,38.0,14.0,57.0,-17.0,33.0,-994.0,100.0
2.0,-263.0,39.0,13.0,59.0,-17.0,31.0,-1002.0,104.0
0.0,-262.0,41.0,12.0,63.0,-17.0,34.0,-999.0,107.0
2.0,-265.0,42.0,11.0,65.0,-19.0,33.0,-1000.0,102.0
3.0,-264.0,42.0,11.0,65.0,-19.0,32.0,-1006.0,110.0
5.0,-265.0,44.0,10.0,65.0,-18.0,36.0,-1000.0,109.0
0.0,-264.0,40.0,9.0,63.0,-20.0,32.0,-1009.0,106.0
3.0,-265.0,43.0,6.0,63.0,-21.0,31.0,-1003.0,106.0
3.0,-265.0,38.0,4.0,60.0,-23.0,31.0,-1012.0,103.0
3.0,-263.0,35.0,3.0,57.0,-24.0,31.0,-1011.0,105.0
3.0,-263.0,41.0,0.0,56.0,-26.0,34.0,-1011.0,105.0
1.0,-264.0,43.0,0.0,53.0,-24.0,32.0,-1004.0,106.0
0.0,-261.0,40.0,0.0,51.0,-25.0,33.0,-1000.0,97.0
2.0,-262.0,43.0,-1.0,49.0,-24.0,32.0,-1000.0,103.0
1.0,-260.0,40.0,-3.0,46.0,-23.0,32.0,-1001.0,99.0
2.0,-264.0,38.0,-3.0,45.0,-22.0,26.0,-1007.0,103.0
-1.0,-263.0,37.0,-3.0,44.0,-18.0,33.0,-999.0,102.0
3.0,-262.0,42.0,-2.0,43.0,-16.0,31.0,-999.0,106.0
1.0,-262.0,42.0,-1.0,42.0,-13.0,35.0,-999.0,104.0
1.0,-265.0,43.0,0.0,44.0,-12.0,38.0,-1001.0,105.0
1.0,-265.0,40.0,0.0,43.0,-10.0,36.0,-1000.0,113.0
2.0,-263.0,45.0,0.0,43.0,-8.0,35.0,-1001.0,117.0
3.0,-263.0,43.0,1.0,42.0,-8.0,39.0,-1007.0,114.0
3.0,-265.0,47.0,3.0,44.0,-8.0,37.0,-1002.0,116.0
3.0,-264.0,47.0,4.0,44.0,-9.0,35.0,-1011.0,118.0
3.0,-264.0,47.0,5.0,45.0,-12.0,40.0,-1012.0,118.0
1.0,-264.0,43.0,6.0,47.0,-14.0,40.0,-1011.0,119.0
2.0,-264.0,44.0,8.0,49.0,-15.0,39.0,-1017.0,121.0
1.0,-267.0,47.0,11.0,51.0,-18.0,39.0,-1019.0,122.0
4.0,-264.0,47.0,15.0,55.0,-19.0,41.0,-1011.0,118.0
4.0,-265.0,40.0,18.0,57.0,-21.0,36.0,-1011.0,116.0
1.0,-262.0,41.0,21.0,60.0,-22.0,47.0,-1001.0,115.0
3.0,-264.0,45.0,24.0,64.0,-24.0,38.0,-999.0,115.0
5.0,-261.0,40.0,27.0,67.0,-24.0,37.0,-1002.0,122.0
2.0,-264.0,45.0,29.0,70.0,-25.0,41.0,-1001.0,121.0
2.0,-264.0,47.0,31.0,72.0,-27.0,38.0,-1006.0,124.0
2.0,-260.0,45.0,32.0,71.0,-28.0,41.0,-998.0,123.0
5.0,-263.0,47.0,33.0,71.0,-30.0,38.0,-998.0,127.0
4.0,-262.0,44.0,34.0,73.0,-30.0,35.0,-998.0,121.0
3.0,-258.0,43.0,33.0,74.0,-32.0,38.0,-997.0,122.0
1.0,-261.0,48.0,31.0,75.0,-32.0,36.0,-996.0,124.0
3.0,-262.0,41.0,29.0,75.0,-32.0,35.0,-997.0,122.0
1.0,-260.0,41.0,25.0,75.0,-33.0,35.0,-990.0,120.0
0.0,-261.0,48.0,24.0,76.0,-32.0,37.0,-994.0,124.0
2.0,-261.0,43.0,23.0,78.0,-33.0,36.0,-989.0,116.0
2.0,-262.0,46.0,22.0,78.0,-35.0,32.0,-998.0,124.0
0.0,-260.0,45.0,22.0,78.0,-35.0,34.0,-993.0,120.0
0.0,-262.0,42.0,24.0,80.0,-34.0,36.0,-997.0,127.0
3.0,-262.0,45.0,24.0,82.0,-35.0,32.0,-999.0,123.0
0.0,-262.0,47.0,25.0,84.0,-34.0,33.0,-1004.0,120.0
1.0,-265.0,43.0,26.0,85.0,-33.0,34.0,-1005.0,121.0
4.0,-261.0,44.0,26.0,87.0,-36.0,38.0,-1004.0,122.0
2.0,-266.0,44.0,27.0,89.0,-36.0,41.0,-1020.0,124.0
2.0,-265.0,44.0,30.0,93.0,-39.0,37.0,-1023.0,127.0
4.0,-265.0,43.0,32.0,95.0,-38.0,38.0,-1017.0,119.0
3.0,-267.0,44.0,33.0,95.0,-40.0,38.0,-1023.0,121.0
3.0,-267.0,43.0,37.0,98.0,-41.0,38.0,-1021.0,119.0
2.0,-265.0,40.0,35.0,100.0,-42.0,33.0,-1019.0,111.0
3.0,-264.0,41.0,37.0,100.0,-41.0,42.0,-1015.0,113.0
1.0,-263.0,40.0,38.0,102.0,-40.0,31.0,-1006.0,113.0
4.0,-261.0,45.0,39.0,101.0,-42.0,33.0,-1000.0,111.0
2.0,-261.0,44.0,39.0,100.0,-40.0,28.0,-992.0,114.0
0.0,-261.0,43.0,39.0,95.0,-41.0,27.0,-987.0,110.0
0.0,-262.0,42.0,38.0,95.0,-42.0,22.0,-992.0,116.0
2.0,-261.0,43.0,37.0,94.0,-43.0,27.0,-984.0,118.0
0.0,-258.0,45.0,35.0,92.0,-43.0,27.0,-996.0,122.0
2.0,-261.0,46.0,34.0,92.0,-44.0,33.0,-996.0,124.0
1.0,-260.0,48.0,31.0,93.0,-47.0,31.0,-1000.0,131.0
1.0,-263.0,45.0,29.0,93.0,-46.0,34.0,-1002.0,127.0
1.0,-262.0,46.0,27.0,95.0,-44.0,38.0,-1001.0,122.0
2.0,-264.0,43.0,26.0,96.0,-46.0,40.0,-999.0,125.0
3.0,-261.0,47.0,23.0,98.0,-44.0,38.0,-1002.0,125.0
0.0,-263.0,47.0,22.0,100.0,-43.0,38.0,-1009.0,130.0
3.0,-262.0,45.0,23.0,100.0,-42.0,43.0,-998.0,126.0
5.0,-263.0,46.0,23.0,99.0,-42.0,40.0,-997.0,124.0
5.0,-264.0,50.0,27.0,100.0,-42.0,43.0,-996.0,129.0
4.0,-262.0,46.0,31.0,104.0,-39.0,45.0,-994.0,123.0
7.0,-262.0,46.0,34.0,105.0,-39.0,45.0,-993.0,130.0
6.0,-262.0,45.0,34.0,105.0,-39.0,48.0,-993.0,130.0
7.0,-261.0,47.0,35.0,105.0,-37.0,46.0,-986.0,127.0
3.0,-260.0,47.0,36.0,107.0,-35.0,47.0,-989.0,130.0
8.0,-258.0,51.0,34.0,107.0,-36.0,50.0,-990.0,129.0
6.0,-259.0,48.0,31.0,105.0,-36.0,49.0,-989.0,126.0
6.0,-259.0,47.0,27.0,103.0,-37.0,54.0,-986.0,131.0
6.0,-260.0,49.0,23.0,100.0,-37.0,45.0,-989.0,130.0
3.0,-256.0,46.0,19.0,98.0,-36.0,51.0,-986.0,135.0
7.0,-260.0,49.0,14.0,95.0,-36.0,46.0,-992.0,129.0
7.0,-259.0,48.0,10.0,92.0,-35.0,50.0,-989.0,133.0
6.0,-264.0,45.0,8.0,89.0,-32.0,45.0,-986.0,131.0
5.0,-261.0,49.0,6.0,83.0,-30.0,45.0,-992.0,131.0
4.0,-258.0,47.0,6.0,79.0,-29.0,47.0,-993.0,129.0
4.0,-262.0,47.0,6.0,74.0,-26.0,41.0,-992.0,132.0
5.0,-259.0,49.0,8.0,69.0,-21.0,43.0,-989.0,127.0
2.0,-258.0,45.0,10.0,65.0,-20.0,45.0,-988.0,133.0
3.0,-259.0,47.0,12.0,61.0,-15.0,46.0,-991.0,135.0
6.0,-258.0,47.0,13.0,58.0,-9.0,47.0,-983.0,131.0
4.0,-258.0,51.0,13.0,55.0,-7.0,47.0,-987.0,134.0
6.0,-260.0,49.0,13.0,51.0,-4.0,45.0,-980.0,134.0
6.0,-259.0,49.0,12.0,47.0,1.0,50.0,-984.0,134.0
5.0,-258.0,49.0,10.0,45.0,5.0,47.0,-987.0,135.0
7.0,-260.0,52.0,9.0,43.0,9.0,49.0,-980.0,135.0
6.0,-259.0,50.0,7.0,38.0,15.0,49.0,-981.0,132.0
5.0,-257.0,48.0,7.0,36.0,19.0,53.0,-986.0,132.0
5.0,-257.0,47.0,5.0,32.0,24.0,51.0,-986.0,133.0
9.0,-258.0,50.0,7.0,29.0,26.0,50.0,-982.0,135.0
8.0,-259.0,50.0,7.0,27.0,31.0,53.0,-982.0,135.0
8.0,-259.0,50.0,9.0,26.0,32.0,50.0,-982.0,131.0
8.0,-260.0,53.0,8.0,24.0,34.0,50.0,-985.0,142.0
6.0,-259.0,51.0,9.0,23.0,33.0,55.0,-988.0,142.0
6.0,-261.0,51.0,7.0,24.0,32.0,60.0,-987.0,148.0
10.0,-261.0,50.0,5.0,26.0,29.0,58.0,-991.0,153.0
8.0,-262.0,56.0,4.0,28.0,26.0,59.0,-1013.0,156.0
9.0,-268.0,56.0,-3.0,30.0,20.0,61.0,-1014.0,158.0
9.0,-264.0,51.0,-9.0,35.0,11.0,63.0,-1026.0,157.0
7.0,-268.0,54.0,-14.0,38.0,2.0,57.0,-1025.0,157.0
7.0,-270.0,55.0,-16.0,45.0,-6.0,54.0,-1032.0,148.0
5.0,-270.0,48.0,-16.0,52.0,-14.0,52.0,-1034.0,136.0
5.0,-269.0,50.0,-10.0,58.0,-24.0,49.0,-1030.0,134.0
3.0,-268.0,46.0,-2.0,62.0,-32.0,44.0,-1033.0,130.0
3.0,-267.0,47.0,7.0,66.0,-39.0,44.0,-1029.0,127.0
3.0,-263.0,50.0,16.0,66.0,-44.0,42.0,-1021.0,119.0
1.0,-263.0,44.0,24.0,66.0,-48.0,32.0,-1006.0,120.0
1.0,-261.0,42.0,30.0,65.0,-50.0,28.0,-1001.0,119.0
2.0,-261.0,46.0,31.0,63.0,-54.0,27.0,-996.0,114.0
0.0,-260.0,39.0,29.0,59.0,-54.0,24.0,-987.0,117.0
0.0,-260.0,44.0,20.0,54.0,-58.0,19.0,-984.0,110.0
-1.0,-258.0,45.0,8.0,50.0,-58.0,17.0,-982.0,117.0
0.0,-259.0,40.0,-3.0,43.0,-58.0,11.0,-981.0,121.0
0.0,-257.0,45.0,-11.0,39.0,-55.0,19.0,-980.0,120.0
-2.0,-258.0,41.0,-15.0,37.0,-49.0,19.0,-978.0,118.0
-4.0,-256.0,45.0,-20.0,34.0,-40.0,18.0,-975.0,122.0
0.0,-260.0,49.0,-27.0,36.0,-35.0,18.0,-978.0,115.0
0.0,-257.0,47.0,-36.0,34.0,-27.0,25.0,-979.0,122.0
1.0,-259.0,44.0,-48.0,34.0,-22.0,27.0,-981.0,121.0
-1.0,-257.0,46.0,-62.0,32.0,-20.0,27.0,-984.0,128.0
0.0,-262.0,48.0,-73.0,27.0,-19.0,25.0,-992.0,128.0
2.0,-260.0,46.0,-81.0,27.0,-20.0,29.0,-996.0,128.0
3.0,-262.0,50.0,-85.0,25.0,-19.0,38.0,-1002.0,122.0
4.0,-262.0,47.0,-84.0,23.0,-20.0,40.0,-997.0,122.0
0.0,-262.0,44.0,-82.0,21.0,-20.0,39.0,-997.0,123.0
2.0,-263.0,45.0,-79.0,21.0,-22.0,39.0,-1000.0,125.0
4.0,-262.0,45.0,-75.0,20.0,-25.0,41.0,-1000.0,124.0
2.0,-263.0,48.0,-72.0,18.0,-26.0,41.0,-1012.0,120.0
4.0,-265.0,47.0,-66.0,17.0,-29.0,45.0,-1012.0,114.0
6.0,-264.0,46.0,-62.0,18.0,-32.0,49.0,-1023.0,118.0
10.0,-265.0,45.0,-55.0,20.0,-32.0,47.0,-1016.0,117.0
9.0,-266.0,45.0,-49.0,25.0,-31.0,53.0,-1013.0,118.0
11.0,-267.0,43.0,-41.0,31.0,-30.0,50.0,-1010.0,115.0
10.0,-267.0,44.0,-32.0,38.0,-28.0,57.0,-1012.0,116.0
8.0,-266.0,45.0,-25.0,46.0,-24.0,65.0,-1012.0,117.0
12.0,-267.0,46.0,-16.0,54.0,-22.0,64.0,-1012.0,124.0
12.0,-263.0,46.0,-9.0,60.0,-18.0,69.0,-1002.0,125.0
14.0,-264.0,46.0,-4.0,66.0,-17.0,74.0,-1002.0,124.0
11.0,-264.0,45.0,1.0,71.0,-21.0,66.0,-998.0,127.0
8.0,-261.0,47.0,6.0,73.0,-22.0,65.0,-998.0,127.0
11.0,-263.0,47.0,13.0,76.0,-22.0,60.0,-996.0,131.0
12.0,-261.0,46.0,18.0,77.0,-26.0,58.0,-1000.0,127.0
9.0,-260.0,48.0,19.0,79.0,-30.0,51.0,-994.0,131.0
7.0,-258.0,49.0,18.0,78.0,-33.0,51.0,-992.0,131.0
6.0,-260.0,51.0,17.0,79.0,-36.0,51.0,-997.0,138.0
8.0,-262.0,48.0,14.0,79.0,-38.0,51.0,-994.0,134.0
6.0,-259.0,51.0,11.0,80.0,-38.0,50.0,-986.0,136.0
8.0,-259.0,51.0,11.0,81.0,-38.0,57.0,-987.0,134.0
7.0,-257.0,48.0,9.0,82.0,-34.0,55.0,-985.0,141.0
9.0,-260.0,50.0,9.0,84.0,-31.0,55.0,-986.0,144.0
10.0,-261.0,50.0,8.0,88.0,-29.0,62.0,-988.0,144.0
8.0,-261.0,53.0,10.0,92.0,-28.0,70.0,-986.0,145.0
8.0,-260.0,49.0,10.0,97.0,-27.0,69.0,-984.0,147.0
10.0,-260.0,48.0,9.0,102.0,-26.0,70.0,-991.0,140.0
12.0,-260.0,49.0,9.0,107.0,-26.0,68.0,-992.0,138.0
10.0,-263.0,51.0,5.0,112.0,-24.0,71.0,-990.0,138.0
7.0,-260.0,49.0,2.0,114.0,-22.0,64.0,-992.0,143.0
9.0,-260.0,50.0,0.0,114.0,-19.0,64.0,-994.0,139.0
10.0,-265.0,54.0,-2.0,111.0,-14.0,61.0,-1004.0,139.0
8.0,-261.0,49.0,-2.0,106.0,-13.0,65.0,-1005.0,146.0
9.0,-262.0,51.0,-1.0,100.0,-12.0,51.0,-1008.0,138.0
8.0,-264.0,50.0,-1.0,93.0,-13.0,50.0,-1003.0,134.0
7.0,-267.0,49.0,-1.0,86.0,-13.0,50.0,-1009.0,135.0
5.0,-263.0,53.0,1.0,82.0,-15.0,39.0,-1008.0,133.0
3.0,-264.0,46.0,3.0,79.0,-13.0,41.0,-1000.0,134.0
2.0,-259.0,50.0,7.0,80.0,-12.0,40.0,-994.0,136.0
4.0,-262.0,47.0,12.0,79.0,-10.0,36.0,-994.0,130.0
3.0,-260.0,46.0,17.0,79.0,-6.0,42.0,-993.0,133.0
2.0,-261.0,51.0,20.0,79.0,-3.0,40.0,-990.0,137.0
2.0,-258.0,47.0,22.0,79.0,0.0,47.0,-989.0,139.0
6.0,-261.0,50.0,21.0,78.0,3.0,46.0,-993.0,139.0
5.0,-260.0,49.0,18.0,77.0,3.0,39.0,-988.0,140.0
4.0,-259.0,46.0,15.0,74.0,5.0,49.0,-986.0,141.0
5.0,-263.0,48.0,13.0,73.0,6.0,42.0,-993.0,143.0
3.0,-260.0,49.0,7.0,73.0,8.0,45.0,-992.0,139.0
4.0,-261.0,50.0,1.0,73.0,8.0,44.0,-995.0,136.0
5.0,-259.0,46.0,-6.0,73.0,7.0,41.0,-996.0,137.0
4.0,-262.0,48.0,-13.0,71.0,6.0,38.0,-995.0,139.0
3.0,-260.0,46.0,-20.0,69.0,7.0,37.0,-993.0,132.0
2.0,-259.0,45.0,-26.0,68.0,6.0,40.0,-1003.0,132.0
4.0,-266.0,47.0,-31.0,66.0,6.0,41.0,-1001.0,131.0
5.0,-263.0,50.0,-32.0,65.0,8.0,38.0,-1002.0,132.0
4.0,-262.0,46.0,-30.0,64.0,7.0,40.0,-1002.0,131.0
4.0,-264.0,46.0,-27.0,65.0,8.0,40.0,-1004.0,128.0
3.0,-264.0,44.0,-23.0,64.0,9.0,42.0,-1000.0,133.0
5.0,-263.0,48.0,-17.0,63.0,11.0,43.0,-1003.0,127.0
4.0,-261.0,44.0,-13.0,63.0,13.0,44.0,-1000.0,136.0
6.0,-264.0,49.0,-8.0,63.0,16.0,46.0,-999.0,129.0
7.0,-265.0,45.0,-6.0,64.0,18.0,48.0,-998.0,131.0
5.0,-266.0,45.0,-2.0,64.0,20.0,54.0,-1001.0,134.0
10.0,-263.0,48.0,0.0,65.0,20.0,51.0,-999.0,132.0
6.0,-261.0,47.0,4.0,67.0,19.0,50.0,-996.0,125.0
6.0,-261.0,45.0,7.0,67.0,19.0,47.0,-997.0,127.0
5.0,-262.0,49.0,9.0,69.0,17.0,53.0,-1002.0,124.0
4.0,-264.0,49.0,10.0,70.0,18.0,49.0,-1000.0,129.0
8.0,-264.0,48.0,11.0,72.0,13.0,46.0,-1004.0,132.0
6.0,-267.0,49.0,12.0,73.0,12.0,49.0,-1002.0,129.0
9.0,-264.0,47.0,14.0,75.0,11.0,49.0,-1006.0,131.0
8.0,-264.0,46.0,16.0,76.0,11.0,50.0,-1009.0,133.0
5.0,-262.0,49.0,18.0,79.0,13.0,53.0,-1002.0,137.0
7.0,-262.0,46.0,20.0,79.0,12.0,62.0,-1009.0,135.0
8.0,-261.0,48.0,21.0,81.0,12.0,51.0,-1003.0,133.0
8.0,-264.0,51.0,21.0,82.0,15.0,53.0,-996.0,135.0
5.0,-264.0,51.0,21.0,81.0,17.0,58.0,-1001.0,138.0
7.0,-262.0,50.0,21.0,81.0,20.0,54.0,-1001.0,133.0
10.0,-265.0,49.0,22.0,81.0,22.0,56.0,-997.0,142.0
10.0,-260.0,52.0,21.0,79.0,25.0,53.0,-997.0,135.0
6.0,-263.0,52.0,22.0,77.0,26.0,56.0,-999.0,135.0
5.0,-261.0,48.0,18.0,75.0,23.0,54.0,-997.0,132.0
9.0,-261.0,48.0,18.0,70.0,22.0,46.0,-1002.0,133.0
1.0,-259.0,48.0,15.0,67.0,18.0,52.0,-992.0,127.0
6.0,-263.0,45.0,13.0,64.0,16.0,48.0,-998.0,132.0
7.0,-264.0,49.0,14.0,62.0,14.0,50.0,-1000.0,134.0
5.0,-261.0,49.0,11.0,62.0,10.0,48.0,-1002.0,130.0
5.0,-265.0,49.0,12.0,64.0,7.0,47.0,-1002.0,134.0
5.0,-262.0,45.0,13.0,66.0,8.0,49.0,-996.0,130.0
8.0,-265.0,49.0,15.0,68.0,7.0,45.0,-998.0,129.0
5.0,-259.0,48.0,17.0,72.0,7.0,51.0,-997.0,124.0
5.0,-259.0,45.0,18.0,74.0,8.0,49.0,-995.0,132.0
7.0,-260.0,49.0,15.0,77.0,8.0,54.0,-999.0,124.0
8.0,-259.0,44.0,12.0,76.0,8.0,53.0,-998.0,132.0
9.0,-261.0,46.0,8.0,77.0,6.0,57.0,-998.0,132.0
8.0,-262.0,50.0,6.0,78.0,3.0,55.0,-995.0,135.0
6.0,-262.0,48.0,3.0,78.0,3.0,55.0,-995.0,135.0
8.0,-261.0,47.0,1.0,78.0,1.0,55.0,-995.0,137.0
8.0,-261.0,50.0,-3.0,77.0,-2.0,52.0,-991.0,142.0
8.0,-264.0,47.0,-6.0,76.0,-7.0,48.0,-992.0,141.0
6.0,-260.0,49.0,-11.0,75.0,-9.0,48.0,-995.0,137.0
7.0,-261.0,47.0,-12.0,76.0,-11.0,49.0,-993.0,139.0
4.0,-263.0,54.0,-10.0,77.0,-9.0,49.0,-991.0,133.0
7.0,-260.0,50.0,-8.0,78.0,-7.0,46.0,-990.0,134.0
8.0,-259.0,48.0,-5.0,78.0,-5.0,50.0,-991.0,133.0
5.0,-263.0,51.0,-4.0,79.0,-2.0,50.0,-994.0,139.0
8.0,-261.0,49.0,-4.0,79.0,1.0,49.0,-992.0,138.0
4.0,-261.0,48.0,-6.0,78.0,5.0,50.0,-996.0,135.0
7.0,-262.0,49.0,-9.0,78.0,6.0,48.0,-997.0,140.0
6.0,-258.0,47.0,-11.0,75.0,9.0,49.0,-994.0,136.0
4.0,-262.0,45.0,-14.0,72.0,9.0,47.0,-998.0,137.0
4.0,-263.0,54.0,-17.0,71.0,8.0,47.0,-994.0,130.0
2.0,-261.0,51.0,-18.0,70.0,7.0,43.0,-999.0,139.0
4.0,-262.0,49.0,-17.0,70.0,5.0,47.0,-1001.0,138.0
6.0,-263.0,50.0,-17.0,70.0,4.0,46.0,-998.0,134.0
3.0,-259.0,50.0,-14.0,69.0,3.0,42.0,-999.0,140.0
7.0,-260.0,50.0,-10.0,69.0,-1.0,42.0,-994.0,136.0
5.0,-259.0,48.0,-8.0,71.0,-3.0,41.0,-990.0,143.0
3.0,-262.0,52.0,-7.0,74.0,-5.0,41.0,-991.0,140.0
3.0,-259.0,49.0,-6.0,78.0,-4.0,43.0,-990.0,137.0
3.0,-258.0,47.0,-7.0,81.0,-4.0,47.0,-987.0,133.0
5.0,-261.0,47.0,-12.0,84.0,-3.0,46.0,-986.0,136.0
4.0,-259.0,47.0,-18.0,86.0,-1.0,49.0,-990.0,135.0
3.0,-259.0,50.0,-25.0,88.0,0.0,46.0,-986.0,140.0
5.0,-258.0,49.0,-32.0,87.0,2.0,47.0,-987.0,130.0
5.0,-259.0,48.0,-40.0,85.0,4.0,56.0,-992.0,131.0
7.0,-262.0,48.0,-45.0,84.0,7.0,49.0,-991.0,134.0
7.0,-259.0,47.0,-50.0,85.0,10.0,52.0,-991.0,132.0
5.0,-259.0,49.0,-53.0,83.0,11.0,56.0,-995.0,126.0
5.0,-261.0,46.0,-55.0,85.0,14.0,53.0,-995.0,127.0
10.0,-261.0,45.0,-57.0,82.0,13.0,57.0,-990.0,127.0
8.0,-260.0,47.0,-58.0,82.0,13.0,60.0,-990.0,126.0
9.0,-259.0,46.0,-61.0,81.0,12.0,56.0,-992.0,128.0
8.0,-258.0,45.0,-65.0,78.0,10.0,54.0,-990.0,134.0
7.0,-261.0,47.0,-69.0,75.0,7.0,55.0,-986.0,132.0
6.0,-259.0,49.0,-72.0,74.0,7.0,57.0,-990.0,131.0
8.0,-261.0,48.0,-76.0,72.0,4.0,50.0,-987.0,133.0
4.0,-262.0,45.0,-78.0,71.0,2.0,51.0,-987.0,131.0
3.0,-260.0,47.0,-85.0,67.0,1.0,46.0,-988.0,129.0
4.0,-259.0,48.0,-92.0,67.0,1.0,43.0,-993.0,123.0
5.0,-262.0,49.0,-101.0,67.0,1.0,43.0,-989.0,119.0
3.0,-261.0,45.0,-112.0,68.0,3.0,38.0,-1000.0,118.0
2.0,-260.0,41.0,-124.0,70.0,6.0,33.0,-989.0,121.0
1.0,-258.0,46.0,-134.0,72.0,9.0,26.0,-994.0,119.0
1.0,-260.0,45.0,-147.0,76.0,12.0,28.0,-987.0,119.0
1.0,-260.0,47.0,-160.0,78.0,13.0,20.0,-991.0,120.0
1.0,-258.0,46.0,-171.0,79.0,19.0,24.0,-988.0,121.0
-1.0,-259.0,43.0,-181.0,78.0,24.0,14.0,-990.0,119.0
0.0,-261.0,42.0,-190.0,75.0,29.0,15.0,-994.0,123.0
0.0,-261.0,46.0,-197.0,73.0,36.0,14.0,-992.0,123.0
-2.0,-258.0,42.0,-202.0,71.0,41.0,10.0,-994.0,118.0
1.0,-259.0,44.0,-207.0,69.0,48.0,9.0,-996.0,114.0
-1.0,-259.0,42.0,-210.0,65.0,55.0,15.0,-989.0,104.0
1.0,-264.0,42.0,-213.0,61.0,60.0,16.0,-991.0,102.0
0.0,-259.0,38.0,-213.0,58.0,64.0,20.0,-989.0,97.0
1.0,-261.0,40.0,-216.0,56.0,68.0,30.0,-987.0,99.0
0.0,-260.0,38.0,-221.0,52.0,70.0,29.0,-993.0,100.0
2.0,-261.0,38.0,-226.0,47.0,72.0,34.0,-993.0,98.0
1.0,-260.0,40.0,-236.0,43.0,74.0,37.0,-996.0,98.0
2.0,-259.0,37.0,-246.0,38.0,75.0,43.0,-994.0,102.0
6.0,-261.0,40.0,-257.0,33.0,75.0,42.0,-993.0,101.0
5.0,-262.0,44.0,-265.0,31.0,75.0,45.0,-994.0,104.0
7.0,-262.0,42.0,-268.0,31.0,73.0,49.0,-994.0,101.0
3.0,-262.0,39.0,-270.0,28.0,73.0,49.0,-999.0,101.0
5.0,-265.0,43.0,-272.0,28.0,72.0,51.0,-997.0,101.0
8.0,-261.0,41.0,-277.0,28.0,72.0,50.0,-994.0,102.0
8.0,-263.0,40.0,-281.0,27.0,72.0,51.0,-991.0,103.0
7.0,-257.0,42.0,-285.0,25.0,69.0,53.0,-988.0,106.0
10.0,-259.0,44.0,-286.0,25.0,68.0,59.0,-988.0,106.0
7.0,-259.0,37.0,-287.0,24.0,66.0,49.0,-984.0,103.0
5.0,-260.0,37.0,-290.0,19.0,62.0,44.0,-984.0,100.0
2.0,-258.0,41.0,-295.0,18.0,59.0,42.0,-987.0,98.0
2.0,-257.0,35.0,-304.0,18.0,56.0,41.0,-983.0,91.0
3.0,-261.0,38.0,-316.0,19.0,53.0,36.0,-987.0,91.0
1.0,-258.0,37.0,-333.0,19.0,48.0,29.0,-988.0,93.0
0.0,-257.0,38.0,-349.0,18.0,45.0,22.0,-992.0,90.0
0.0,-259.0,34.0,-368.0,18.0,44.0,16.0,-987.0,89.0
-4.0,-260.0,36.0,-389.0,20.0,45.0,12.0,-984.0,88.0
-1.0,-260.0,35.0,-403.0,23.0,48.0,15.0,-994.0,86.0
-1.0,-259.0,36.0,-415.0,27.0,56.0,14.0,-993.0,83.0
0.0,-260.0,35.0,-420.0,30.0,61.0,8.0,-987.0,87.0
0.0,-263.0,35.0,-425.0,32.0,66.0,14.0,-995.0,84.0
-1.0,-262.0,32.0,-428.0,31.0,72.0,15.0,-992.0,83.0
-1.0,-264.0,33.0,-428.0,27.0,77.0,14.0,-993.0,79.0
-1.0,-262.0,33.0,-427.0,21.0,81.0,19.0,-998.0,78.0
-2.0,-262.0,28.0,-425.0,13.0,84.0,20.0,-985.0,70.0
0.0,-259.0,30.0,-426.0,5.0,85.0,19.0,-989.0,65.0
-2.0,-259.0,28.0,-426.0,-3.0,89.0,18.0,-990.0,65.0
0.0,-258.0,30.0,-426.0,-7.0,90.0,16.0,-992.0,66.0
-2.0,-260.0,31.0,-428.0,-13.0,94.0,12.0,-994.0,64.0
-4.0,-259.0,32.0,-429.0,-20.0,98.0,12.0,-995.0,68.0
-2.0,-259.0,31.0,-430.0,-29.0,104.0,15.0,-994.0,69.0
0.0,-263.0,31.0,-433.0,-35.0,111.0,19.0,-997.0,68.0
-2.0,-261.0,32.0,-433.0,-39.0,116.0,23.0,-995.0,72.0
-2.0,-261.0,32.0,-431.0,-41.0,120.0,17.0,-999.0,69.0
-3.0,-262.0,32.0,-428.0,-41.0,126.0,23.0,-999.0,70.0
1.0,-262.0,31.0,-426.0,-41.0,128.0,24.0,-1004.0,69.0
1.0,-264.0,28.0,-422.0,-36.0,130.0,29.0,-1009.0,66.0
1.0,-262.0,31.0,-418.0,-29.0,132.0,34.0,-1005.0,67.0
2.0,-265.0,32.0,-410.0,-24.0,134.0,28.0,-1002.0,64.0
3.0,-262.0,33.0,-403.0,-19.0,134.0,33.0,-996.0,63.0
3.0,-261.0,29.0,-398.0,-15.0,134.0,40.0,-993.0,62.0
2.0,-264.0,27.0,-393.0,-9.0,136.0,41.0,-991.0,62.0
2.0,-259.0,28.0,-390.0,-4.0,139.0,37.0,-989.0,62.0
5.0,-259.0,29.0,-390.0,0.0,141.0,46.0,-986.0,62.0
2.0,-263.0,28.0,-399.0,1.0,141.0,45.0,-990.0,66.0
2.0,-257.0,34.0,-407.0,0.0,141.0,40.0,-999.0,66.0
5.0,-261.0,23.0,-413.0,-1.0,139.0,42.0,-992.0,62.0
7.0,-261.0,32.0,-418.0,-3.0,135.0,39.0,-991.0,61.0
4.0,-261.0,29.0,-424.0,-4.0,131.0,41.0,-986.0,54.0
1.0,-260.0,31.0,-430.0,-4.0,128.0,32.0,-984.0,57.0
1.0,-256.0,25.0,-437.0,-3.0,123.0,29.0,-984.0,51.0
0.0,-260.0,26.0,-443.0,-2.0,121.0,29.0,-986.0,49.0
1.0,-258.0,28.0,-447.0,1.0,122.0,23.0,-983.0,56.0
0.0,-258.0,25.0,-452.0,0.0,123.0,26.0,-986.0,45.0
0.0,-260.0,27.0,-455.0,-2.0,125.0,28.0,-991.0,51.0
0.0,-259.0,26.0,-458.0,0.0,128.0,25.0,-997.0,52.0
1.0,-264.0,24.0,-459.0,0.0,132.0,17.0,-996.0,46.0
1.0,-265.0,24.0,-459.0,0.0,133.0,26.0,-1012.0,47.0
3.0,-267.0,22.0,-460.0,-1.0,137.0,20.0,-1007.0,39.0
1.0,-264.0,17.0,-460.0,-1.0,139.0,23.0,-1011.0,23.0
-1.0,-266.0,16.0,-464.0,2.0,141.0,25.0,-1016.0,17.0
0.0,-269.0,17.0,-467.0,6.0,142.0,28.0,-1020.0,4.0
1.0,-270.0,12.0,-466.0,9.0,143.0,28.0,-1024.0,2.0
0.0,-271.0,12.0,-460.0,9.0,138.0,29.0,-1031.0,-1.0
1.0,-272.0,9.0,-450.0,9.0,133.0,34.0,-1035.0,-3.0
0.0,-268.0,9.0,-439.0,8.0,124.0,34.0,-1029.0,-2.0
1.0,-269.0,13.0,-432.0,7.0,116.0,21.0,-1034.0,-4.0
-1.0,-270.0,9.0,-427.0,6.0,110.0,15.0,-1030.0,-6.0
0.0,-268.0,12.0,-430.0,9.0,106.0,15.0,-1016.0,-2.0
-2.0,-267.0,15.0,-434.0,17.0,107.0,10.0,-1022.0,1.0
-7.0,-269.0,16.0,-432.0,28.0,108.0,3.0,-1029.0,4.0
-5.0,-266.0,16.0,-424.0,41.0,107.0,-1.0,-1031.0,6.0
-4.0,-269.0,15.0,-414.0,53.0,103.0,-4.0,-1026.0,3.0
-6.0,-264.0,16.0,-410.0,59.0,98.0,-7.0,-1022.0,4.0
-4.0,-265.0,12.0,-410.0,66.0,96.0,-3.0,-1016.0,3.0
-4.0,-265.0,15.0,-414.0,68.0,93.0,-3.0,-1011.0,2.0
-8.0,-262.0,13.0,-416.0,65.0,93.0,0.0,-1001.0,2.0
-8.0,-266.0,17.0,-417.0,59.0,95.0,-9.0,-1016.0,-1.0
-9.0,-262.0,16.0,-418.0,48.0,101.0,-1.0,-1013.0,-2.0
-11.0,-262.0,13.0,-421.0,33.0,109.0,-10.0,-1010.0,-10.0
-7.0,-263.0,11.0,-426.0,12.0,116.0,-12.0,-1011.0,-17.0
-12.0,-262.0,4.0,-435.0,-11.0,124.0,-27.0,-1005.0,-30.0
-14.0,-263.0,1.0,-451.0,-34.0,130.0,-32.0,-1001.0,-47.0
-15.0,-259.0,1.0,-463.0,-53.0,132.0,-37.0,-994.0,-62.0
-15.0,-263.0,0.0,-474.0,-62.0,133.0,-39.0,-996.0,-70.0
-16.0,-264.0,-5.0,-481.0,-63.0,129.0,-41.0,-1003.0,-80.0
-14.0,-268.0,-6.0,-486.0,-58.0,124.0,-37.0,-1024.0,-87.0
-12.0,-268.0,-12.0,-488.0,-49.0,114.0,-37.0,-1025.0,-103.0
-14.0,-270.0,-13.0,-491.0,-37.0,105.0,-38.0,-1034.0,-111.0
-10.0,-270.0,-13.0,-495.0,-25.0,94.0,-26.0,-1037.0,-122.0
-12.0,-269.0,-19.0,-496.0,-19.0,86.0,-29.0,-1035.0,-132.0
-14.0,-271.0,-21.0,-498.0,-18.0,82.0,-27.0,-1042.0,-144.0
-7.0,-278.0,-20.0,-506.0,-21.0,79.0,-15.0,-1040.0,-160.0
-8.0,-276.0,-24.0,-515.0,-24.0,81.0,-15.0,-1056.0,-157.0
-11.0,-276.0,-25.0,-530.0,-32.0,84.0,-14.0,-1068.0,-154.0
-12.0,-286.0,-25.0,-543.0,-42.0,89.0,-25.0,-1087.0,-161.0
-13.0,-293.0,-24.0,-553.0,-55.0,97.0,-29.0,-1105.0,-160.0
-18.0,-295.0,-24.0,-557.0,-74.0,106.0,-38.0,-1126.0,-164.0
-22.0,-298.0,-25.0,-559.0,-98.0,113.0,-62.0,-1134.0,-174.0
-31.0,-298.0,-34.0,-561.0,-129.0,118.0,-87.0,-1141.0,-197.0
-32.0,-300.0,-40.0,-565.0,-162.0,117.0,-106.0,-1148.0,-215.0
-39.0,-299.0,-39.0,-577.0,-187.0,112.0,-119.0,-1149.0,-220.0
-34.0,-303.0,-46.0,-594.0,-202.0,105.0,-117.0,-1151.0,-239.0
-30.0,-296.0,-40.0,-617.0,-197.0,98.0,-116.0,-1139.0,-236.0
-27.0,-293.0,-41.0,-645.0,-183.0,93.0,-90.0,-1125.0,-237.0
-22.0,-291.0,-40.0,-671.0,-161.0,91.0,-61.0,-1119.0,-226.0
-16.0,-293.0,-37.0,-694.0,-143.0,88.0,-36.0,-1114.0,-215.0
-9.0,-291.0,-39.0,-717.0,-134.0,90.0,-9.0,-1119.0,-215.0
-1.0,-293.0,-40.0,-740.0,-137.0,90.0,5.0,-1116.0,-217.0
-2.0,-295.0,-39.0,-762.0,-145.0,88.0,6.0,-1118.0,-213.0
-4.0,-291.0,-33.0,-778.0,-155.0,84.0,14.0,-1117.0,-209.0
0.0,-292.0,-37.0,-791.0,-164.0,84.0,13.0,-1110.0,-211.0
1.0,-290.0,-36.0,-803.0,-174.0,86.0,24.0,-1103.0,-206.0
-1.0,-288.0,-36.0,-810.0,-182.0,90.0,26.0,-1098.0,-211.0
0.0,-286.0,-40.0,-814.0,-193.0,98.0,18.0,-1105.0,-211.0
-5.0,-289.0,-39.0,-816.0,-203.0,107.0,3.0,-1102.0,-213.0
-9.0,-289.0,-40.0,-824.0,-207.0,117.0,-11.0,-1104.0,-227.0
-13.0,-288.0,-52.0,-841.0,-209.0,121.0,-28.0,-1108.0,-251.0
-21.0,-290.0,-55.0,-863.0,-212.0,124.0,-53.0,-1107.0,-279.0
-22.0,-296.0,-68.0,-893.0,-226.0,125.0,-63.0,-1126.0,-339.0
-28.0,-303.0,-80.0,-927.0,-241.0,122.0,-84.0,-1155.0,-390.0
-29.0,-310.0,-92.0,-957.0,-257.0,110.0,-94.0,-1182.0,-438.0
-30.0,-316.0,-98.0,-978.0,-270.0,100.0,-100.0,-1191.0,-455.0
-33.0,-316.0,-98.0,-983.0,-273.0,90.0,-101.0,-1205.0,-469.0
-30.0,-319.0,-96.0,-973.0,-270.0,85.0,-95.0,-1216.0,-448.0
-30.0,-320.0,-89.0,-953.0,-260.0,89.0,-88.0,-1221.0,-419.0
-24.0,-321.0,-76.0,-930.0,-248.0,92.0,-81.0,-1217.0,-393.0
-24.0,-320.0,-72.0,-910.0,-232.0,95.0,-73.0,-1218.0,-364.0
-24.0,-323.0,-67.0,-887.0,-218.0,95.0,-66.0,-1226.0,-344.0
-27.0,-322.0,-70.0,-851.0,-207.0,93.0,-79.0,-1233.0,-349.0
-30.0,-322.0,-74.0,-819.0,-197.0,88.0,-94.0,-1233.0,-360.0
-37.0,-317.0,-77.0,-807.0,-190.0,87.0,-115.0,-1216.0,-381.0
-38.0,-308.0,-85.0,-822.0,-186.0,86.0,-122.0,-1186.0,-401.0
-39.0,-300.0,-90.0,-861.0,-182.0,92.0,-134.0,-1157.0,-424.0
-40.0,-295.0,-94.0,-911.0,-181.0,97.0,-135.0,-1132.0,-450.0
-38.0,-289.0,-95.0,-966.0,-182.0,103.0,-128.0,-1110.0,-470.0
-37.0,-285.0,-102.0,-1019.0,-186.0,108.0,-128.0,-1102.0,-477.0
-35.0,-285.0,-100.0,-1060.0,-190.0,112.0,-119.0,-1089.0,-487.0
-34.0,-280.0,-105.0,-1108.0,-201.0,117.0,-105.0,-1069.0,-489.0
-31.0,-276.0,-103.0,-1148.0,-205.0,120.0,-104.0,-1059.0,-492.0
-31.0,-277.0,-101.0,-1178.0,-209.0,123.0,-108.0,-1046.0,-488.0
-34.0,-271.0,-102.0,-1198.0,-210.0,129.0,-106.0,-1046.0,-478.0
-35.0,-274.0,-101.0,-1215.0,-210.0,135.0,-113.0,-1046.0,-477.0
-33.0,-272.0,-100.0,-1226.0,-210.0,139.0,-114.0,-1049.0,-473.0
-35.0,-278.0,-103.0,-1235.0,-212.0,145.0,-113.0,-1055.0,-481.0
-35.0,-278.0,-105.0,-1238.0,-213.0,150.0,-117.0,-1062.0,-491.0
-36.0,-276.0,-107.0,-1245.0,-215.0,154.0,-118.0,-1066.0,-488.0
-37.0,-276.0,-103.0,-1252.0,-216.0,161.0,-114.0,-1060.0,-495.0
-36.0,-275.0,-107.0,-1256.0,-218.0,167.0,-115.0,-1055.0,-498.0
-34.0,-274.0,-111.0,-1261.0,-216.0,172.0,-108.0,-1040.0,-503.0
-33.0,-270.0,-104.0,-1264.0,-210.0,175.0,-107.0,-1035.0,-493.0
-32.0,-269.0,-102.0,-1263.0,-198.0,179.0,-104.0,-1026.0,-488.0
-32.0,-264.0,-103.0,-1261.0,-181.0,180.0,-110.0,-1010.0,-488.0
-34.0,-264.0,-102.0,-1260.0,-162.0,178.0,-107.0,-995.0,-486.0
-34.0,-260.0,-99.0,-1259.0,-142.0,174.0,-113.0,-988.0,-480.0
-37.0,-256.0,-98.0,-1255.0,-123.0,168.0,-120.0,-971.0,-468.0
-39.0,-256.0,-101.0,-1250.0,-107.0,164.0,-120.0,-970.0,-479.0
-40.0,-254.0,-97.0,-1251.0,-96.0,160.0,-132.0,-969.0,-466.0
-37.0,-258.0,-100.0,-1253.0,-91.0,156.0,-138.0,-961.0,-460.0
-43.0,-253.0,-99.0,-1253.0,-91.0,156.0,-148.0,-959.0,-468.0
-46.0,-254.0,-99.0,-1250.0,-93.0,158.0,-153.0,-948.0,-474.0
-45.0,-252.0,-104.0,-1242.0,-97.0,163.0,-149.0,-945.0,-484.0
-44.0,-249.0,-104.0,-1233.0,-99.0,168.0,-153.0,-937.0,-489.0
-37.0,-251.0,-105.0,-1224.0,-97.0,177.0,-150.0,-935.0,-500.0
-36.0,-246.0,-108.0,-1212.0,-90.0,180.0,-147.0,-925.0,-493.0
-37.0,-243.0,-105.0,-1200.0,-77.0,184.0,-144.0,-910.0,-489.0
-40.0,-242.0,-110.0,-1184.0,-63.0,189.0,-144.0,-913.0,-502.0
-45.0,-237.0,-108.0,-1165.0,-41.0,190.0,-143.0,-903.0,-497.0
-39.0,-236.0,-109.0,-1147.0,-22.0,195.0,-127.0,-887.0,-497.0
-35.0,-234.0,-108.0,-1138.0,-3.0,199.0,-127.0,-886.0,-497.0
-39.0,-229.0,-111.0,-1128.0,14.0,203.0,-133.0,-878.0,-512.0
-38.0,-229.0,-115.0,-1124.0,28.0,206.0,-143.0,-862.0,-512.0
-40.0,-228.0,-113.0,-1124.0,40.0,208.0,-135.0,-857.0,-515.0
-38.0,-226.0,-113.0,-1124.0,50.0,208.0,-131.0,-852.0,-529.0
-38.0,-227.0,-123.0,-1126.0,57.0,209.0,-140.0,-859.0,-529.0
-38.0,-228.0,-119.0,-1125.0,61.0,211.0,-134.0,-864.0,-549.0
-40.0,-236.0,-114.0,-1121.0,65.0,210.0,-141.0,-869.0,-553.0
-37.0,-223.0,-118.0,-1113.0,68.0,207.0,-139.0,-869.0,-558.0
-35.0,-233.0,-123.0,-1102.0,72.0,205.0,-138.0,-863.0,-566.0
-37.0,-228.0,-128.0,-1087.0,74.0,199.0,-133.0,-864.0,-572.0
-39.0,-226.0,-125.0,-1068.0,78.0,196.0,-141.0,-854.0,-576.0
-37.0,-226.0,-129.0,-1045.0,87.0,193.0,-140.0,-852.0,-578.0
-40.0,-221.0,-129.0,-1023.0,93.0,188.0,-139.0,-844.0,-581.0
-36.0,-223.0,-129.0,-997.0,100.0,188.0,-137.0,-836.0,-588.0
-42.0,-221.0,-130.0,-976.0,105.0,186.0,-129.0,-836.0,-601.0
-38.0,-217.0,-132.0,-961.0,108.0,189.0,-140.0,-825.0,-602.0
-39.0,-217.0,-134.0,-950.0,109.0,194.0,-140.0,-821.0,-613.0
-39.0,-211.0,-137.0,-938.0,107.0,199.0,-138.0,-807.0,-615.0
-40.0,-210.0,-136.0,-933.0,107.0,204.0,-137.0,-799.0,-630.0
-39.0,-210.0,-142.0,-936.0,104.0,204.0,-134.0,-797.0,-637.0
-40.0,-209.0,-144.0,-941.0,100.0,202.0,-137.0,-787.0,-645.0
-39.0,-207.0,-140.0,-947.0,92.0,197.0,-131.0,-787.0,-644.0
-40.0,-207.0,-143.0,-947.0,88.0,194.0,-142.0,-780.0,-649.0
-40.0,-204.0,-143.0,-941.0,88.0,193.0,-142.0,-776.0,-650.0
-40.0,-207.0,-145.0,-930.0,90.0,189.0,-136.0,-771.0,-654.0
-38.0,-205.0,-141.0,-916.0,94.0,186.0,-133.0,-769.0,-655.0
-33.0,-212.0,-146.0,-898.0,96.0,186.0,-127.0,-776.0,-657.0
-31.0,-209.0,-143.0,-874.0,102.0,185.0,-114.0,-779.0,-665.0
-32.0,-212.0,-146.0,-845.0,112.0,182.0,-121.0,-779.0,-661.0
-30.0,-207.0,-144.0,-810.0,122.0,181.0,-117.0,-773.0,-666.0
-36.0,-209.0,-151.0,-772.0,136.0,178.0,-117.0,-776.0,-663.0
-33.0,-208.0,-148.0,-735.0,156.0,174.0,-114.0,-778.0,-669.0
-32.0,-207.0,-149.0,-701.0,185.0,171.0,-112.0,-781.0,-665.0
-32.0,-210.0,-144.0,-675.0,218.0,166.0,-121.0,-778.0,-658.0
-33.0,-210.0,-143.0,-651.0,247.0,161.0,-115.0,-789.0,-657.0
-35.0,-214.0,-144.0,-627.0,272.0,153.0,-121.0,-799.0,-654.0
-35.0,-216.0,-145.0,-607.0,296.0,144.0,-128.0,-806.0,-649.0
-38.0,-215.0,-144.0,-583.0,314.0,136.0,-133.0,-808.0,-645.0
-36.0,-223.0,-142.0,-560.0,319.0,127.0,-141.0,-831.0,-653.0
-39.0,-223.0,-150.0,-524.0,322.0,107.0,-137.0,-840.0,-660.0
-39.0,-227.0,-149.0,-481.0,326.0,94.0,-153.0,-832.0,-665.0
-40.0,-226.0,-151.0,-433.0,328.0,89.0,-151.0,-841.0,-687.0
-43.0,-225.0,-157.0,-380.0,333.0,86.0,-154.0,-833.0,-695.0
-40.0,-223.0,-161.0,-330.0,342.0,80.0,-148.0,-832.0,-712.0
-36.0,-223.0,-165.0,-282.0,350.0,75.0,-135.0,-831.0,-731.0
-35.0,-221.0,-162.0,-238.0,363.0,70.0,-137.0,-834.0,-738.0
-36.0,-222.0,-169.0,-186.0,379.0,64.0,-130.0,-823.0,-751.0
-37.0,-215.0,-177.0,-140.0,393.0,62.0,-135.0,-816.0,-772.0
-33.0,-211.0,-178.0,-105.0,411.0,59.0,-127.0,-802.0,-789.0
-32.0,-208.0,-186.0,-75.0,433.0,61.0,-125.0,-788.0,-811.0
-34.0,-210.0,-182.0,-57.0,452.0,58.0,-130.0,-774.0,-809.0
-31.0,-208.0,-184.0,-39.0,468.0,54.0,-123.0,-784.0,-817.0
-34.0,-209.0,-181.0,-19.0,487.0,49.0,-129.0,-772.0,-806.0
-33.0,-208.0,-182.0,-9.0,499.0,49.0,-119.0,-783.0,-796.0
-33.0,-211.0,-180.0,-5.0,505.0,47.0,-116.0,-790.0,-788.0
-32.0,-208.0,-174.0,-4.0,505.0,46.0,-115.0,-786.0,-777.0
-33.0,-208.0,-171.0,-5.0,493.0,41.0,-109.0,-773.0,-759.0
-32.0,-206.0,-165.0,-1.0,481.0,32.0,-112.0,-770.0,-741.0
-26.0,-204.0,-164.0,2.0,466.0,14.0,-99.0,-764.0,-737.0
-31.0,-202.0,-164.0,4.0,455.0,-12.0,-93.0,-764.0,-723.0
-28.0,-201.0,-164.0,6.0,448.0,-34.0,-104.0,-757.0,-725.0
-29.0,-200.0,-158.0,6.0,435.0,-54.0,-105.0,-749.0,-716.0
-29.0,-199.0,-159.0,6.0,421.0,-75.0,-99.0,-750.0,-722.0
-33.0,-199.0,-163.0,3.0,405.0,-96.0,-111.0,-743.0,-727.0
-35.0,-199.0,-164.0,-5.0,385.0,-115.0,-114.0,-743.0,-733.0
-34.0,-198.0,-165.0,-13.0,367.0,-130.0,-116.0,-740.0,-745.0
-35.0,-198.0,-168.0,-18.0,353.0,-139.0,-119.0,-742.0,-752.0
-31.0,-199.0,-168.0,-21.0,335.0,-151.0,-113.0,-740.0,-756.0
-35.0,-201.0,-172.0,-19.0,318.0,-164.0,-117.0,-748.0,-755.0
-38.0,-199.0,-171.0,-6.0,302.0,-174.0,-128.0,-749.0,-754.0
-33.0,-200.0,-172.0,21.0,286.0,-178.0,-117.0,-750.0,-746.0
-33.0,-202.0,-163.0,53.0,270.0,-185.0,-111.0,-752.0,-737.0
-28.0,-202.0,-161.0,80.0,253.0,-193.0,-100.0,-748.0,-722.0
-27.0,-198.0,-159.0,113.0,245.0,-200.0,-87.0,-749.0,-717.0
-25.0,-197.0,-156.0,137.0,246.0,-200.0,-81.0,-738.0,-693.0
-26.0,-198.0,-151.0,154.0,249.0,-205.0,-87.0,-728.0,-688.0
-24.0,-194.0,-152.0,169.0,247.0,-210.0,-78.0,-722.0,-672.0
-23.0,-193.0,-148.0,184.0,239.0,-220.0,-80.0,-720.0,-672.0
-18.0,-192.0,-143.0,198.0,231.0,-232.0,-72.0,-713.0,-655.0
-19.0,-187.0,-147.0,205.0,222.0,-250.0,-68.0,-699.0,-657.0
-21.0,-183.0,-144.0,200.0,213.0,-265.0,-71.0,-689.0,-652.0
-24.0,-182.0,-142.0,185.0,207.0,-273.0,-74.0,-682.0,-652.0
-22.0,-180.0,-145.0,171.0,203.0,-276.0,-75.0,-676.0,-650.0
-24.0,-176.0,-147.0,157.0,202.0,-274.0,-84.0,-667.0,-657.0
-26.0,-180.0,-147.0,144.0,202.0,-266.0,-88.0,-666.0,-661.0
-29.0,-182.0,-147.0,133.0,204.0,-251.0,-95.0,-664.0,-652.0
-29.0,-180.0,-144.0,124.0,203.0,-233.0,-94.0,-665.0,-657.0
-25.0,-178.0,-145.0,117.0,207.0,-210.0,-85.0,-664.0,-660.0
-26.0,-179.0,-149.0,113.0,208.0,-188.0,-87.0,-667.0,-661.0
-27.0,-181.0,-146.0,113.0,211.0,-168.0,-93.0,-669.0,-660.0
-23.0,-184.0,-151.0,119.0,212.0,-151.0,-89.0,-671.0,-664.0
-24.0,-182.0,-150.0,127.0,216.0,-139.0,-82.0,-685.0,-672.0
-25.0,-184.0,-147.0,139.0,228.0,-137.0,-87.0,-691.0,-675.0
-24.0,-188.0,-152.0,155.0,241.0,-133.0,-90.0,-699.0,-680.0
-25.0,-193.0,-149.0,180.0,258.0,-128.0,-85.0,-707.0,-684.0
-19.0,-195.0,-154.0,206.0,280.0,-125.0,-74.0,-718.0,-692.0
-21.0,-195.0,-153.0,231.0,302.0,-127.0,-66.0,-737.0,-689.0
-15.0,-196.0,-153.0,253.0,323.0,-128.0,-52.0,-740.0,-691.0
-16.0,-200.0,-154.0,276.0,344.0,-136.0,-50.0,-747.0,-688.0
-13.0,-203.0,-148.0,294.0,363.0,-142.0,-48.0,-758.0,-687.0
-16.0,-201.0,-152.0,308.0,379.0,-148.0,-46.0,-762.0,-686.0
-15.0,-203.0,-154.0,314.0,389.0,-158.0,-59.0,-765.0,-692.0
-14.0,-200.0,-154.0,313.0,393.0,-167.0,-61.0,-764.0,-694.0
-20.0,-200.0,-155.0,308.0,391.0,-174.0,-69.0,-765.0,-693.0
-22.0,-205.0,-156.0,300.0,382.0,-181.0,-73.0,-771.0,-702.0
-22.0,-205.0,-157.0,290.0,376.0,-193.0,-69.0,-770.0,-694.0
-21.0,-206.0,-153.0,280.0,371.0,-211.0,-78.0,-767.0,-687.0
-22.0,-208.0,-148.0,271.0,363.0,-228.0,-75.0,-770.0,-669.0
-23.0,-209.0,-146.0,268.0,350.0,-248.0,-76.0,-773.0,-661.0
-25.0,-205.0,-143.0,268.0,335.0,-272.0,-82.0,-762.0,-643.0
-22.0,-201.0,-136.0,274.0,316.0,-288.0,-81.0,-760.0,-629.0
-24.0,-200.0,-134.0,285.0,293.0,-294.0,-81.0,-743.0,-621.0
-21.0,-199.0,-136.0,299.0,272.0,-298.0,-69.0,-736.0,-605.0
-19.0,-192.0,-127.0,317.0,257.0,-297.0,-66.0,-719.0,-587.0
-19.0,-188.0,-126.0,331.0,238.0,-291.0,-57.0,-705.0,-579.0
-15.0,-187.0,-122.0,341.0,219.0,-281.0,-44.0,-686.0,-556.0
-12.0,-180.0,-120.0,351.0,195.0,-274.0,-37.0,-678.0,-546.0
-15.0,-177.0,-113.0,359.0,168.0,-271.0,-39.0,-653.0,-525.0
-9.0,-172.0,-113.0,366.0,148.0,-266.0,-23.0,-627.0,-518.0
-7.0,-165.0,-113.0,362.0,126.0,-261.0,-20.0,-618.0,-512.0
-10.0,-160.0,-107.0,348.0,99.0,-257.0,-22.0,-606.0,-508.0
-9.0,-163.0,-106.0,336.0,68.0,-248.0,-19.0,-594.0,-490.0
-11.0,-160.0,-102.0,334.0,34.0,-235.0,-18.0,-589.0,-489.0
-5.0,-161.0,-96.0,344.0,7.0,-227.0,-12.0,-586.0,-481.0
-10.0,-158.0,-102.0,362.0,-14.0,-218.0,-27.0,-584.0,-476.0
-9.0,-157.0,-98.0,382.0,-32.0,-206.0,-14.0,-576.0,-465.0
-4.0,-160.0,-100.0,405.0,-55.0,-198.0,-12.0,-578.0,-459.0
-8.0,-157.0,-100.0,429.0,-76.0,-197.0,-15.0,-571.0,-478.0
-6.0,-154.0,-100.0,464.0,-87.0,-197.0,-12.0,-566.0,-475.0
-5.0,-151.0,-106.0,502.0,-92.0,-195.0,-11.0,-558.0,-483.0
-3.0,-152.0,-100.0,534.0,-88.0,-195.0,-19.0,-550.0,-482.0
-7.0,-148.0,-96.0,563.0,-77.0,-191.0,-17.0,-542.0,-474.0
0.0,-146.0,-100.0,587.0,-69.0,-183.0,0.0,-530.0,-459.0
-2.0,-145.0,-97.0,610.0,-61.0,-174.0,2.0,-524.0,-451.0
0.0,-144.0,-96.0,629.0,-52.0,-166.0,1.0,-517.0,-444.0
2.0,-137.0,-94.0,641.0,-48.0,-154.0,14.0,-499.0,-442.0
-1.0,-134.0,-95.0,649.0,-45.0,-151.0,14.0,-500.0,-450.0
2.0,-134.0,-96.0,646.0,-51.0,-146.0,14.0,-493.0,-443.0
1.0,-130.0,-96.0,640.0,-60.0,-141.0,11.0,-495.0,-448.0
2.0,-133.0,-97.0,627.0,-73.0,-130.0,23.0,-492.0,-451.0
1.0,-132.0,-99.0,617.0,-77.0,-129.0,17.0,-489.0,-457.0
1.0,-134.0,-106.0,605.0,-80.0,-130.0,11.0,-487.0,-463.0
0.0,-132.0,-104.0,594.0,-78.0,-135.0,7.0,-488.0,-481.0
2.0,-132.0,-106.0,582.0,-73.0,-141.0,8.0,-490.0,-487.0
1.0,-134.0,-104.0,572.0,-68.0,-145.0,16.0,-499.0,-488.0
3.0,-138.0,-105.0,568.0,-63.0,-152.0,21.0,-506.0,-500.0
-1.0,-142.0,-110.0,568.0,-54.0,-173.0,-4.0,-518.0,-506.0
-2.0,-143.0,-113.0,561.0,-47.0,-187.0,-6.0,-515.0,-517.0
-2.0,-142.0,-116.0,549.0,-44.0,-195.0,-6.0,-523.0,-521.0
-3.0,-141.0,-115.0,537.0,-38.0,-208.0,-9.0,-525.0,-527.0
-2.0,-146.0,-116.0,523.0,-34.0,-216.0,-7.0,-535.0,-531.0
-8.0,-146.0,-116.0,511.0,-37.0,-217.0,-14.0,-542.0,-530.0
-7.0,-151.0,-121.0,504.0,-40.0,-218.0,-14.0,-547.0,-536.0
-8.0,-154.0,-120.0,496.0,-45.0,-214.0,-16.0,-559.0,-545.0
-7.0,-157.0,-124.0,487.0,-54.0,-205.0,-16.0,-570.0,-554.0
-10.0,-159.0,-127.0,477.0,-64.0,-200.0,-31.0,-583.0,-562.0
-9.0,-161.0,-126.0,466.0,-76.0,-190.0,-35.0,-599.0,-574.0
-8.0,-167.0,-127.0,453.0,-92.0,-180.0,-35.0,-613.0,-585.0
-15.0,-172.0,-130.0,444.0,-107.0,-166.0,-37.0,-643.0,-597.0
-15.0,-177.0,-132.0,438.0,-123.0,-153.0,-44.0,-662.0,-608.0
-16.0,-187.0,-135.0,431.0,-137.0,-136.0,-53.0,-686.0,-619.0
-13.0,-191.0,-135.0,426.0,-145.0,-119.0,-40.0,-698.0,-616.0
-13.0,-194.0,-134.0,424.0,-151.0,-105.0,-44.0,-725.0,-621.0
-8.0,-203.0,-138.0,431.0,-152.0,-93.0,-30.0,-738.0,-639.0
-9.0,-202.0,-141.0,425.0,-147.0,-81.0,-20.0,-768.0,-643.0
-6.0,-208.0,-140.0,417.0,-150.0,-65.0,-22.0,-783.0,-648.0
-9.0,-212.0,-142.0,408.0,-148.0,-52.0,-19.0,-786.0,-647.0
-5.0,-217.0,-148.0,399.0,-140.0,-43.0,-11.0,-807.0,-652.0
-2.0,-219.0,-145.0,389.0,-126.0,-34.0,-10.0,-826.0,-653.0
-1.0,-225.0,-143.0,381.0,-109.0,-28.0,2.0,-843.0,-644.0
-2.0,-228.0,-137.0,378.0,-90.0,-26.0,10.0,-856.0,-643.0
1.0,-232.0,-144.0,381.0,-73.0,-30.0,17.0,-868.0,-635.0
0.0,-235.0,-139.0,387.0,-61.0,-36.0,10.0,-873.0,-637.0
2.0,-234.0,-142.0,395.0,-50.0,-37.0,23.0,-883.0,-635.0
1.0,-234.0,-141.0,404.0,-40.0,-42.0,25.0,-884.0,-630.0
2.0,-234.0,-134.0,422.0,-32.0,-50.0,31.0,-888.0,-629.0
2.0,-234.0,-134.0,444.0,-25.0,-59.0,22.0,-888.0,-620.0
-2.0,-235.0,-131.0,467.0,-21.0,-68.0,13.0,-879.0,-620.0
-2.0,-232.0,-134.0,487.0,-18.0,-75.0,11.0,-874.0,-618.0
0.0,-229.0,-134.0,500.0,-17.0,-79.0,9.0,-855.0,-608.0
0.0,-222.0,-129.0,514.0,-17.0,-85.0,14.0,-840.0,-603.0
0.0,-212.0,-135.0,530.0,-13.0,-95.0,3.0,-812.0,-602.0
-3.0,-210.0,-134.0,543.0,-10.0,-103.0,0.0,-783.0,-617.0
-2.0,-207.0,-139.0,545.0,-5.0,-113.0,-9.0,-762.0,-621.0
-10.0,-197.0,-135.0,537.0,2.0,-121.0,-27.0,-744.0,-626.0
-11.0,-193.0,-138.0,516.0,11.0,-125.0,-29.0,-734.0,-632.0
-15.0,-192.0,-138.0,490.0,22.0,-127.0,-38.0,-729.0,-633.0
-11.0,-192.0,-137.0,462.0,32.0,-131.0,-29.0,-724.0,-621.0
-16.0,-192.0,-132.0,428.0,35.0,-136.0,-49.0,-734.0,-600.0
-16.0,-194.0,-131.0,402.0,30.0,-128.0,-56.0,-739.0,-599.0
-13.0,-199.0,-127.0,377.0,22.0,-119.0,-38.0,-749.0,-587.0
-12.0,-202.0,-129.0,353.0,17.0,-109.0,-31.0,-758.0,-586.0
-14.0,-205.0,-126.0,332.0,17.0,-104.0,-34.0,-770.0,-572.0
-10.0,-210.0,-121.0,314.0,17.0,-96.0,-34.0,-792.0,-569.0
-8.0,-215.0,-119.0,302.0,18.0,-84.0,-25.0,-806.0,-551.0
-6.0,-220.0,-118.0,294.0,19.0,-73.0,-10.0,-826.0,-542.0
-5.0,-224.0,-121.0,295.0,20.0,-64.0,-4.0,-845.0,-531.0
-3.0,-227.0,-113.0,302.0,22.0,-54.0,3.0,-855.0,-523.0
-1.0,-229.0,-115.0,314.0,23.0,-44.0,5.0,-861.0,-521.0
1.0,-232.0,-115.0,330.0,25.0,-37.0,9.0,-865.0,-511.0
0.0,-235.0,-111.0,351.0,28.0,-31.0,12.0,-868.0,-514.0
1.0,-233.0,-109.0,374.0,34.0,-26.0,13.0,-871.0,-513.0
-2.0,-232.0,-112.0,398.0,41.0,-25.0,11.0,-879.0,-510.0
1.0,-238.0,-108.0,423.0,47.0,-24.0,13.0,-882.0,-504.0
0.0,-234.0,-114.0,452.0,49.0,-27.0,14.0,-877.0,-507.0
0.0,-232.0,-112.0,484.0,50.0,-32.0,14.0,-876.0,-520.0
-2.0,-234.0,-114.0,512.0,50.0,-37.0,15.0,-873.0,-516.0
-1.0,-233.0,-115.0,533.0,49.0,-42.0,12.0,-865.0,-528.0
2.0,-227.0,-118.0,548.0,48.0,-45.0,11.0,-859.0,-533.0
1.0,-227.0,-119.0,557.0,46.0,-46.0,13.0,-856.0,-542.0
1.0,-220.0,-117.0,558.0,44.0,-50.0,15.0,-838.0,-549.0
1.0,-218.0,-121.0,551.0,43.0,-53.0,16.0,-826.0,-549.0
1.0,-215.0,-122.0,532.0,41.0,-55.0,20.0,-815.0,-554.0
1.0,-212.0,-121.0,505.0,37.0,-58.0,22.0,-812.0,-557.0
1.0,-211.0,-122.0,471.0,36.0,-58.0,20.0,-802.0,-554.0
0.0,-209.0,-122.0,429.0,39.0,-54.0,23.0,-799.0,-554.0
1.0,-209.0,-121.0,381.0,45.0,-47.0,26.0,-782.0,-547.0
2.0,-207.0,-122.0,330.0,52.0,-41.0,22.0,-788.0,-550.0
1.0,-210.0,-119.0,278.0,61.0,-33.0,22.0,-791.0,-540.0
-1.0,-212.0,-116.0,231.0,66.0,-25.0,14.0,-802.0,-537.0
0.0,-213.0,-113.0,189.0,71.0,-18.0,9.0,-812.0,-532.0
-1.0,-221.0,-111.0,153.0,75.0,-12.0,13.0,-825.0,-523.0
-1.0,-221.0,-111.0,122.0,75.0,-6.0,11.0,-833.0,-515.0
-1.0,-224.0,-108.0,96.0,75.0,2.0,9.0,-841.0,-513.0
0.0,-224.0,-111.0,78.0,75.0,8.0,6.0,-854.0,-507.0
-1.0,-228.0,-108.0,66.0,76.0,15.0,4.0,-859.0,-499.0
0.0,-231.0,-108.0,58.0,75.0,19.0,7.0,-864.0,-499.0
-1.0,-232.0,-101.0,56.0,77.0,23.0,7.0,-866.0,-502.0
0.0,-234.0,-106.0,55.0,78.0,25.0,3.0,-880.0,-498.0
-3.0,-231.0,-103.0,56.0,78.0,25.0,5.0,-879.0,-491.0
-5.0,-233.0,-103.0,57.0,77.0,23.0,4.0,-883.0,-488.0
-2.0,-237.0,-104.0,58.0,74.0,19.0,-2.0,-882.0,-489.0
-2.0,-235.0,-106.0,56.0,74.0,14.0,0.0,-884.0,-484.0
-7.0,-232.0,-100.0,50.0,74.0,8.0,0.0,-886.0,-485.0
-2.0,-233.0,-102.0,42.0,72.0,3.0,-6.0,-885.0,-485.0
-3.0,-234.0,-103.0,29.0,71.0,-2.0,-2.0,-881.0,-481.0
-4.0,-232.0,-104.0,14.0,72.0,-3.0,0.0,-881.0,-485.0
-1.0,-234.0,-108.0,-2.0,71.0,-5.0,4.0,-876.0,-480.0
-1.0,-232.0,-101.0,-21.0,69.0,-5.0,1.0,-877.0,-481.0
-3.0,-233.0,-104.0,-39.0,66.0,-7.0,5.0,-871.0,-483.0
-1.0,-234.0,-103.0,-58.0,62.0,-9.0,4.0,-871.0,-489.0
-4.0,-227.0,-108.0,-72.0,57.0,-11.0,7.0,-870.0,-485.0
-1.0,-231.0,-105.0,-81.0,51.0,-12.0,8.0,-866.0,-484.0
-2.0,-228.0,-103.0,-92.0,46.0,-13.0,5.0,-863.0,-484.0
-1.0,-228.0,-102.0,-100.0,43.0,-13.0,6.0,-861.0,-480.0
0.0,-224.0,-101.0,-110.0,42.0,-15.0,8.0,-849.0,-481.0
-3.0,-223.0,-100.0,-123.0,39.0,-14.0,1.0,-837.0,-481.0
-3.0,-221.0,-99.0,-140.0,40.0,-14.0,-6.0,-839.0,-474.0
-3.0,-221.0,-98.0,-159.0,39.0,-12.0,0.0,-832.0,-468.0
-4.0,-222.0,-95.0,-178.0,40.0,-8.0,-10.0,-834.0,-460.0
-8.0,-219.0,-96.0,-198.0,42.0,-6.0,-10.0,-832.0,-450.0
-5.0,-220.0,-96.0,-220.0,43.0,2.0,-19.0,-830.0,-455.0
-8.0,-221.0,-96.0,-242.0,43.0,8.0,-17.0,-838.0,-447.0
-7.0,-226.0,-97.0,-263.0,44.0,15.0,-7.0,-848.0,-451.0
-6.0,-229.0,-94.0,-281.0,46.0,24.0,-9.0,-861.0,-456.0
-7.0,-232.0,-95.0,-296.0,49.0,30.0,-8.0,-873.0,-456.0
-4.0,-236.0,-99.0,-304.0,53.0,34.0,-5.0,-890.0,-459.0
-3.0,-242.0,-101.0,-307.0,56.0,37.0,-5.0,-909.0,-468.0
-2.0,-247.0,-97.0,-302.0,60.0,37.0,5.0,-926.0,-476.0
-3.0,-251.0,-101.0,-290.0,62.0,35.0,9.0,-937.0,-474.0
-1.0,-250.0,-104.0,-274.0,64.0,32.0,5.0,-942.0,-483.0
-1.0,-256.0,-103.0,-257.0,66.0,29.0,15.0,-946.0,-481.0
-1.0,-254.0,-105.0,-243.0,68.0,26.0,15.0,-950.0,-485.0
0.0,-255.0,-101.0,-229.0,72.0,24.0,10.0,-945.0,-482.0
0.0,-254.0,-101.0,-219.0,74.0,21.0,12.0,-944.0,-482.0
0.0,-248.0,-102.0,-209.0,76.0,20.0,16.0,-938.0,-478.0
0.0,-251.0,-101.0,-203.0,76.0,21.0,16.0,-934.0,-467.0
1.0,-248.0,-98.0,-200.0,76.0,21.0,16.0,-928.0,-464.0
1.0,-244.0,-100.0,-200.0,78.0,20.0,14.0,-924.0,-465.0
-1.0,-241.0,-97.0,-200.0,78.0,20.0,10.0,-917.0,-459.0
0.0,-242.0,-102.0,-201.0,79.0,18.0,7.0,-905.0,-456.0
0.0,-240.0,-96.0,-201.0,76.0,17.0,9.0,-904.0,-454.0
-2.0,-235.0,-96.0,-203.0,73.0,15.0,2.0,-890.0,-453.0
-3.0,-236.0,-98.0,-203.0,67.0,14.0,-10.0,-881.0,-453.0
-7.0,-230.0,-97.0,-206.0,58.0,11.0,-6.0,-873.0,-449.0
-4.0,-225.0,-97.0,-211.0,50.0,6.0,-2.0,-859.0,-461.0
-6.0,-223.0,-97.0,-218.0,42.0,0.0,-3.0,-850.0,-459.0
-2.0,-225.0,-99.0,-229.0,39.0,-8.0,3.0,-841.0,-461.0
0.0,-219.0,-101.0,-247.0,39.0,-18.0,16.0,-831.0,-474.0
3.0,-217.0,-104.0,-270.0,41.0,-30.0,24.0,-817.0,-475.0
5.0,-213.0,-103.0,-301.0,49.0,-44.0,36.0,-810.0,-491.0
8.0,-211.0,-106.0,-336.0,58.0,-59.0,47.0,-804.0,-490.0
9.0,-212.0,-106.0,-371.0,71.0,-73.0,51.0,-805.0,-497.0
12.0,-213.0,-109.0,-406.0,85.0,-87.0,58.0,-809.0,-494.0
10.0,-216.0,-102.0,-439.0,101.0,-102.0,72.0,-814.0,-490.0
15.0,-222.0,-102.0,-467.0,117.0,-113.0,80.0,-834.0,-485.0
19.0,-227.0,-102.0,-485.0,132.0,-122.0,86.0,-845.0,-482.0
19.0,-229.0,-102.0,-497.0,147.0,-129.0,87.0,-863.0,-475.0
16.0,-236.0,-101.0,-502.0,159.0,-135.0,87.0,-880.0,-471.0
17.0,-241.0,-100.0,-500.0,169.0,-137.0,82.0,-904.0,-462.0
18.0,-247.0,-100.0,-486.0,173.0,-133.0,97.0,-922.0,-463.0
21.0,-253.0,-100.0,-464.0,175.0,-128.0,90.0,-939.0,-455.0
16.0,-259.0,-100.0,-430.0,174.0,-120.0,96.0,-970.0,-461.0
19.0,-265.0,-97.0,-386.0,171.0,-110.0,90.0,-990.0,-450.0
16.0,-270.0,-96.0,-334.0,162.0,-99.0,79.0,-1012.0,-451.0
12.0,-273.0,-97.0,-280.0,147.0,-88.0,71.0,-1022.0,-448.0
7.0,-271.0,-96.0,-237.0,125.0,-80.0,54.0,-1031.0,-453.0
7.0,-272.0,-97.0,-188.0,97.0,-74.0,49.0,-1027.0,-456.0
5.0,-271.0,-100.0,-150.0,69.0,-73.0,42.0,-1029.0,-462.0
3.0,-273.0,-97.0,-123.0,47.0,-72.0,33.0,-1026.0,-472.0
1.0,-269.0,-102.0,-102.0,23.0,-73.0,32.0,-1010.0,-468.0
2.0,-261.0,-90.0,-83.0,4.0,-75.0,29.0,-1001.0,-471.0
0.0,-262.0,-93.0,-62.0,-10.0,-77.0,22.0,-994.0,-463.0
0.0,-258.0,-98.0,-37.0,-22.0,-75.0,19.0,-979.0,-454.0
-1.0,-256.0,-94.0,-11.0,-33.0,-73.0,9.0,-957.0,-457.0
-4.0,-254.0,-100.0,17.0,-42.0,-71.0,4.0,-937.0,-460.0
-3.0,-247.0,-102.0,39.0,-52.0,-66.0,4.0,-925.0,-461.0
0.0,-242.0,-103.0,53.0,-58.0,-58.0,1.0,-901.0,-477.0
-4.0,-235.0,-98.0,58.0,-61.0,-47.0,-3.0,-888.0,-471.0
0.0,-230.0,-99.0,56.0,-61.0,-35.0,-5.0,-872.0,-477.0
0.0,-227.0,-98.0,48.0,-59.0,-19.0,4.0,-861.0,-469.0
0.0,-224.0,-102.0,34.0,-57.0,-4.0,19.0,-841.0,-469.0
3.0,-221.0,-102.0,17.0,-54.0,11.0,29.0,-838.0,-470.0
6.0,-220.0,-104.0,-2.0,-50.0,26.0,33.0,-830.0,-485.0
6.0,-223.0,-106.0,-27.0,-40.0,43.0,48.0,-826.0,-492.0
9.0,-215.0,-108.0,-51.0,-23.0,56.0,54.0,-833.0,-497.0
14.0,-222.0,-106.0,-75.0,-5.0,71.0,75.0,-834.0,-496.0
14.0,-222.0,-107.0,-92.0,15.0,82.0,79.0,-844.0,-499.0
19.0,-227.0,-105.0,-102.0,32.0,90.0,87.0,-858.0,-488.0
16.0,-233.0,-108.0,-105.0,44.0,98.0,86.0,-869.0,-489.0
16.0,-234.0,-105.0,-106.0,52.0,106.0,88.0,-880.0,-486.0
18.0,-236.0,-105.0,-104.0,60.0,109.0,94.0,-888.0,-485.0
18.0,-238.0,-105.0,-98.0,66.0,110.0,88.0,-898.0,-482.0
18.0,-246.0,-101.0,-87.0,76.0,109.0,85.0,-912.0,-484.0
17.0,-244.0,-103.0,-76.0,86.0,104.0,82.0,-920.0,-480.0
12.0,-244.0,-99.0,-60.0,96.0,101.0,71.0,-927.0,-480.0
10.0,-246.0,-105.0,-45.0,106.0,95.0,57.0,-930.0,-486.0
4.0,-250.0,-100.0,-27.0,113.0,89.0,49.0,-929.0,-482.0
7.0,-251.0,-102.0,-9.0,124.0,84.0,34.0,-933.0,-479.0
1.0,-251.0,-101.0,8.0,132.0,81.0,22.0,-934.0,-481.0
2.0,-248.0,-101.0,25.0,138.0,78.0,17.0,-933.0,-484.0
0.0,-247.0,-103.0,42.0,144.0,78.0,7.0,-929.0,-486.0
-2.0,-251.0,-102.0,58.0,149.0,78.0,0.0,-926.0,-484.0
-6.0,-246.0,-104.0,71.0,153.0,79.0,-9.0,-924.0,-483.0
-9.0,-246.0,-107.0,85.0,153.0,77.0,-17.0,-925.0,-488.0
-11.0,-243.0,-105.0,97.0,151.0,78.0,-27.0,-920.0,-490.0
-11.0,-244.0,-102.0,111.0,148.0,78.0,-26.0,-915.0,-488.0
-13.0,-243.0,-107.0,123.0,140.0,76.0,-33.0,-909.0,-488.0
-12.0,-237.0,-107.0,133.0,137.0,74.0,-29.0,-906.0,-489.0
-12.0,-236.0,-103.0,139.0,134.0,72.0,-32.0,-890.0,-494.0
-15.0,-235.0,-105.0,143.0,129.0,69.0,-33.0,-889.0,-494.0
-12.0,-233.0,-104.0,146.0,124.0,66.0,-36.0,-879.0,-495.0
-12.0,-234.0,-103.0,145.0,120.0,63.0,-33.0,-874.0,-496.0
-11.0,-230.0,-105.0,145.0,115.0,60.0,-32.0,-868.0,-495.0
-10.0,-227.0,-109.0,143.0,113.0,58.0,-27.0,-866.0,-501.0
-8.0,-228.0,-110.0,140.0,108.0,56.0,-27.0,-861.0,-502.0
-9.0,-226.0,-106.0,136.0,103.0,53.0,-29.0,-856.0,-500.0
-10.0,-227.0,-110.0,131.0,101.0,51.0,-28.0,-855.0,-506.0
-11.0,-226.0,-107.0,124.0,98.0,47.0,-21.0,-861.0,-511.0
-6.0,-228.0,-107.0,118.0,94.0,45.0,-25.0,-860.0,-499.0
-9.0,-225.0,-109.0,113.0,91.0,42.0,-21.0,-862.0,-501.0
-7.0,-229.0,-108.0,106.0,87.0,38.0,-20.0,-861.0,-499.0
-5.0,-232.0,-109.0,100.0,83.0,34.0,-14.0,-864.0,-510.0
-6.0,-227.0,-106.0,95.0,80.0,31.0,-15.0,-863.0,-507.0
-6.0,-232.0,-112.0,91.0,75.0,26.0,-11.0,-865.0,-505.0
-6.0,-231.0,-114.0,86.0,72.0,22.0,-12.0,-869.0,-511.0
-6.0,-228.0,-111.0,82.0,71.0,18.0,-3.0,-870.0,-510.0
-3.0,-230.0,-107.0,79.0,71.0,14.0,-2.0,-874.0,-502.0
0.0,-229.0,-108.0,75.0,70.0,11.0,-2.0,-866.0,-501.0
-3.0,-229.0,-110.0,72.0,69.0,8.0,6.0,-873.0,-503.0
-2.0,-233.0,-110.0,69.0,68.0,4.0,11.0,-877.0,-500.0
0.0,-232.0,-106.0,66.0,69.0,0.0,11.0,-878.0,-498.0
1.0,-233.0,-106.0,63.0,72.0,-4.0,12.0,-879.0,-498.0
-1.0,-232.0,-107.0,63.0,74.0,-7.0,14.0,-879.0,-498.0
1.0,-233.0,-108.0,65.0,78.0,-7.0,14.0,-880.0,-491.0
2.0,-237.0,-106.0,68.0,83.0,-6.0,14.0,-888.0,-493.0
1.0,-236.0,-106.0,75.0,87.0,-6.0,12.0,-886.0,-488.0
0.0,-238.0,-101.0,83.0,93.0,-5.0,13.0,-885.0,-485.0
1.0,-240.0,-100.0,90.0,99.0,-3.0,11.0,-886.0,-484.0
-2.0,-235.0,-106.0,97.0,101.0,-2.0,10.0,-890.0,-489.0
0.0,-238.0,-102.0,103.0,105.0,2.0,11.0,-885.0,-490.0
-1.0,-235.0,-107.0,109.0,109.0,6.0,3.0,-889.0,-487.0
-1.0,-237.0,-103.0,116.0,111.0,8.0,8.0,-889.0,-491.0
-4.0,-237.0,-109.0,122.0,113.0,10.0,1.0,-890.0,-491.0
-2.0,-237.0,-105.0,126.0,116.0,12.0,9.0,-891.0,-493.0
-1.0,-236.0,-105.0,129.0,117.0,14.0,8.0,-888.0,-493.0
-3.0,-235.0,-105.0,130.0,117.0,16.0,6.0,-889.0,-495.0
0.0,-233.0,-107.0,129.0,118.0,16.0,9.0,-883.0,-495.0
-2.0,-231.0,-109.0,125.0,120.0,17.0,7.0,-874.0,-499.0
-2.0,-230.0,-107.0,121.0,122.0,18.0,5.0,-879.0,-495.0
-3.0,-235.0,-108.0,118.0,124.0,20.0,4.0,-876.0,-496.0
-4.0,-230.0,-105.0,113.0,124.0,20.0,5.0,-862.0,-493.0
-1.0,-233.0,-107.0,108.0,123.0,22.0,4.0,-875.0,-495.0
0.0,-233.0,-106.0,104.0,124.0,21.0,10.0,-867.0,-491.0
-1.0,-230.0,-107.0,101.0,127.0,22.0,6.0,-873.0,-489.0
0.0,-236.0,-104.0,97.0,127.0,22.0,2.0,-872.0,-492.0
-1.0,-233.0,-104.0,96.0,128.0,22.0,6.0,-875.0,-490.0
-4.0,-231.0,-104.0,96.0,130.0,22.0,5.0,-882.0,-487.0
-4.0,-234.0,-105.0,96.0,131.0,21.0,5.0,-883.0,-488.0
-1.0,-232.0,-100.0,98.0,131.0,22.0,6.0,-877.0,-490.0
-1.0,-238.0,-103.0,101.0,131.0,21.0,5.0,-881.0,-492.0
0.0,-236.0,-105.0,105.0,132.0,21.0,2.0,-884.0,-492.0
-2.0,-236.0,-105.0,108.0,131.0,20.0,2.0,-884.0,-490.0
-3.0,-234.0,-109.0,111.0,132.0,17.0,0.0,-885.0,-497.0
-6.0,-235.0,-109.0,112.0,131.0,16.0,-3.0,-886.0,-496.0
-9.0,-231.0,-104.0,112.0,127.0,14.0,-11.0,-882.0,-499.0
0.0,-232.0,-106.0,111.0,126.0,14.0,-7.0,-881.0,-495.0
-6.0,-233.0,-105.0,110.0,123.0,13.0,-8.0,-878.0,-494.0
-8.0,-234.0,-104.0,109.0,119.0,12.0,-14.0,-877.0,-492.0
-4.0,-232.0,-110.0,104.0,117.0,11.0,-10.0,-869.0,-495.0
-4.0,-232.0,-105.0,98.0,112.0,12.0,-12.0,-873.0,-496.0
-9.0,-229.0,-108.0,91.0,108.0,12.0,-7.0,-874.0,-492.0
-6.0,-234.0,-103.0,82.0,107.0,10.0,-12.0,-869.0,-490.0
-7.0,-229.0,-102.0,75.0,107.0,10.0,-11.0,-870.0,-489.0
-9.0,-233.0,-102.0,67.0,105.0,10.0,-8.0,-878.0,-488.0
-4.0,-233.0,-103.0,60.0,103.0,9.0,-7.0,-877.0,-487.0
-3.0,-232.0,-104.0,57.0,99.0,11.0,-6.0,-874.0,-484.0
-5.0,-235.0,-105.0,54.0,98.0,10.0,-1.0,-878.0,-486.0
-7.0,-235.0,-104.0,55.0,97.0,10.0,-6.0,-881.0,-486.0
-2.0,-236.0,-100.0,56.0,95.0,9.0,0.0,-884.0,-479.0
-4.0,-236.0,-102.0,60.0,93.0,9.0,0.0,-882.0,-482.0
-2.0,-237.0,-99.0,65.0,91.0,6.0,1.0,-882.0,-482.0
-4.0,-238.0,-97.0,70.0,90.0,6.0,-2.0,-891.0,-483.0
-3.0,-240.0,-102.0,74.0,90.0,5.0,-7.0,-890.0,-477.0
-4.0,-237.0,-103.0,77.0,87.0,4.0,-2.0,-892.0,-477.0
-2.0,-238.0,-106.0,79.0,83.0,4.0,2.0,-891.0,-482.0
-5.0,-239.0,-103.0,80.0,81.0,2.0,-3.0,-893.0,-481.0
-3.0,-235.0,-102.0,78.0,76.0,2.0,-1.0,-893.0,-479.0
-5.0,-238.0,-98.0,78.0,74.0,-2.0,4.0,-882.0,-481.0
-5.0,-237.0,-99.0,78.0,72.0,-2.0,-5.0,-889.0,-481.0
-8.0,-232.0,-98.0,75.0,68.0,-4.0,0.0,-885.0,-479.0
-3.0,-235.0,-102.0,72.0,66.0,-5.0,-2.0,-885.0,-477.0
-2.0,-234.0,-100.0,69.0,59.0,-8.0,-4.0,-885.0,-471.0
-2.0,-234.0,-101.0,65.0,54.0,-9.0,-7.0,-875.0,-470.0
-7.0,-233.0,-101.0,60.0,52.0,-11.0,-4.0,-877.0,-478.0
-4.0,-232.0,-100.0,54.0,50.0,-12.0,-5.0,-872.0,-470.0
-3.0,-234.0,-106.0,44.0,49.0,-12.0,-6.0,-874.0,-472.0
-4.0,-226.0,-98.0,36.0,46.0,-14.0,-4.0,-877.0,-474.0
-7.0,-232.0,-100.0,27.0,46.0,-13.0,-4.0,-872.0,-472.0
-3.0,-234.0,-102.0,19.0,45.0,-13.0,-8.0,-877.0,-477.0
-5.0,-231.0,-101.0,12.0,45.0,-13.0,-5.0,-884.0,-478.0
-3.0,-234.0,-99.0,6.0,45.0,-11.0,0.0,-879.0,-482.0
0.0,-235.0,-101.0,1.0,45.0,-11.0,-3.0,-885.0,-480.0
-1.0,-238.0,-100.0,1.0,46.0,-10.0,1.0,-887.0,-482.0
-3.0,-236.0,-103.0,0.0,46.0,-10.0,-1.0,-891.0,-481.0
-1.0,-241.0,-101.0,2.0,47.0,-9.0,4.0,-890.0,-485.0
-1.0,-237.0,-100.0,4.0,48.0,-9.0,-1.0,-895.0,-475.0
-4.0,-238.0,-97.0,3.0,48.0,-8.0,6.0,-887.0,-477.0
-1.0,-241.0,-103.0,3.0,48.0,-9.0,0.0,-894.0,-476.0
-2.0,-239.0,-104.0,3.0,46.0,-8.0,-3.0,-893.0,-473.0
0.0,-238.0,-99.0,2.0,45.0,-7.0,0.0,-892.0,-472.0
0.0,-238.0,-105.0,2.0,44.0,-6.0,6.0,-891.0,-475.0
-2.0,-235.0,-99.0,-1.0,43.0,-7.0,6.0,-891.0,-470.0
-3.0,-237.0,-98.0,-3.0,41.0,-8.0,3.0,-893.0,-463.0
-3.0,-239.0,-98.0,-6.0,41.0,-7.0,5.0,-890.0,-471.0
-2.0,-237.0,-102.0,-9.0,44.0,-7.0,6.0,-889.0,-470.0
-4.0,-237.0,-103.0,-12.0,44.0,-8.0,2.0,-890.0,-470.0
-3.0,-241.0,-102.0,-14.0,45.0,-9.0,-2.0,-894.0,-471.0
-6.0,-240.0,-99.0,-15.0,45.0,-11.0,-6.0,-894.0,-469.0
-2.0,-238.0,-99.0,-15.0,47.0,-13.0,-6.0,-898.0,-475.0
-7.0,-240.0,-99.0,-14.0,47.0,-13.0,-4.0,-894.0,-468.0
-4.0,-235.0,-99.0,-13.0,49.0,-13.0,-5.0,-893.0,-469.0
-3.0,-238.0,-98.0,-13.0,49.0,-14.0,-7.0,-895.0,-466.0
-1.0,-235.0,-100.0,-15.0,50.0,-15.0,-6.0,-888.0,-466.0
-7.0,-236.0,-102.0,-17.0,52.0,-13.0,-7.0,-892.0,-465.0
-8.0,-237.0,-100.0,-19.0,52.0,-13.0,-12.0,-892.0,-462.0
-7.0,-237.0,-100.0,-23.0,51.0,-13.0,-13.0,-892.0,-464.0
-9.0,-236.0,-100.0,-25.0,52.0,-13.0,-11.0,-895.0,-466.0
-6.0,-238.0,-101.0,-27.0,50.0,-13.0,-13.0,-894.0,-464.0
-4.0,-239.0,-98.0,-28.0,49.0,-15.0,-15.0,-892.0,-465.0
-7.0,-238.0,-100.0,-29.0,48.0,-15.0,-9.0,-903.0,-461.0
-9.0,-242.0,-104.0,-29.0,48.0,-16.0,-11.0,-894.0,-467.0
-6.0,-243.0,-99.0,-27.0,45.0,-15.0,-13.0,-898.0,-463.0
-6.0,-240.0,-100.0,-23.0,46.0,-15.0,-14.0,-899.0,-463.0
-5.0,-238.0,-97.0,-19.0,43.0,-14.0,-11.0,-902.0,-467.0
-8.0,-235.0,-101.0,-14.0,45.0,-17.0,-16.0,-898.0,-466.0
-7.0,-240.0,-99.0,-8.0,44.0,-17.0,-8.0,-900.0,-462.0
-4.0,-235.0,-97.0,-3.0,43.0,-18.0,-13.0,-891.0,-466.0
-7.0,-235.0,-95.0,-2.0,42.0,-18.0,-11.0,-891.0,-464.0
-7.0,-237.0,-99.0,-1.0,41.0,-19.0,-15.0,-893.0,-453.0
-8.0,-239.0,-100.0,-4.0,39.0,-19.0,-18.0,-888.0,-469.0
-8.0,-238.0,-99.0,-9.0,36.0,-17.0,-11.0,-892.0,-458.0
-8.0,-232.0,-96.0,-14.0,36.0,-17.0,-12.0,-890.0,-458.0
-10.0,-237.0,-97.0,-19.0,34.0,-18.0,-11.0,-891.0,-460.0
-9.0,-232.0,-97.0,-24.0,33.0,-19.0,-15.0,-887.0,-462.0
-6.0,-239.0,-97.0,-30.0,32.0,-19.0,-12.0,-897.0,-462.0
-7.0,-236.0,-97.0,-36.0,30.0,-17.0,-8.0,-888.0,-462.0
-7.0,-242.0,-100.0,-39.0,30.0,-19.0,-12.0,-896.0,-460.0
-7.0,-239.0,-98.0,-42.0,27.0,-19.0,-11.0,-896.0,-458.0
-8.0,-241.0,-98.0,-44.0,27.0,-19.0,-10.0,-900.0,-460.0
-1.0,-239.0,-98.0,-41.0,26.0,-20.0,0.0,-896.0,-454.0
-5.0,-240.0,-95.0,-39.0,25.0,-19.0,-4.0,-906.0,-460.0
-4.0,-241.0,-96.0,-36.0,26.0,-19.0,-4.0,-898.0,-461.0
-4.0,-240.0,-97.0,-34.0,28.0,-20.0,-1.0,-901.0,-461.0
-4.0,-237.0,-95.0,-30.0,27.0,-20.0,-4.0,-899.0,-458.0
-2.0,-242.0,-98.0,-26.0,27.0,-18.0,-4.0,-896.0,-457.0
-5.0,-237.0,-96.0,-22.0,26.0,-20.0,-3.0,-894.0,-457.0
-2.0,-236.0,-97.0,-19.0,27.0,-19.0,0.0,-893.0,-456.0
-2.0,-237.0,-99.0,-17.0,26.0,-19.0,-2.0,-892.0,-458.0
-2.0,-238.0,-99.0,-16.0,27.0,-20.0,-2.0,-885.0,-453.0
-2.0,-234.0,-94.0,-17.0,25.0,-20.0,0.0,-890.0,-460.0
-6.0,-235.0,-98.0,-18.0,25.0,-21.0,-5.0,-895.0,-464.0
-4.0,-240.0,-100.0,-20.0,27.0,-21.0,0.0,-889.0,-459.0
0.0,-239.0,-95.0,-21.0,29.0,-21.0,0.0,-891.0,-461.0
0.0,-236.0,-103.0,-20.0,31.0,-21.0,7.0,-895.0,-469.0
0.0,-240.0,-102.0,-20.0,33.0,-21.0,10.0,-895.0,-460.0
-1.0,-240.0,-97.0,-18.0,34.0,-20.0,8.0,-895.0,-466.0
-2.0,-241.0,-98.0,-17.0,36.0,-18.0,9.0,-904.0,-461.0
-1.0,-242.0,-97.0,-13.0,38.0,-20.0,8.0,-903.0,-463.0
-1.0,-239.0,-99.0,-9.0,39.0,-18.0,6.0,-902.0,-465.0
-3.0,-239.0,-99.0,-5.0,39.0,-19.0,7.0,-907.0,-467.0
-2.0,-239.0,-99.0,1.0,40.0,-19.0,10.0,-903.0,-461.0
-4.0,-241.0,-97.0,4.0,42.0,-19.0,9.0,-904.0,-466.0
-5.0,-239.0,-97.0,6.0,45.0,-19.0,7.0,-906.0,-459.0
0.0,-237.0,-101.0,8.0,45.0,-18.0,4.0,-901.0,-461.0
-1.0,-239.0,-102.0,9.0,46.0,-19.0,1.0,-902.0,-460.0
0.0,-241.0,-98.0,11.0,49.0,-17.0,4.0,-897.0,-462.0
-2.0,-238.0,-101.0,10.0,50.0,-15.0,4.0,-896.0,-463.0
-2.0,-238.0,-95.0,11.0,54.0,-15.0,4.0,-897.0,-462.0
-1.0,-240.0,-97.0,10.0,55.0,-14.0,7.0,-898.0,-461.0
-4.0,-238.0,-98.0,9.0,56.0,-13.0,3.0,-889.0,-458.0
-2.0,-239.0,-98.0,8.0,56.0,-12.0,4.0,-886.0,-462.0
-2.0,-235.0,-102.0,6.0,57.0,-10.0,4.0,-892.0,-463.0
-1.0,-236.0,-100.0,4.0,57.0,-9.0,5.0,-891.0,-474.0
-2.0,-237.0,-97.0,3.0,58.0,-9.0,7.0,-888.0,-467.0
-1.0,-237.0,-98.0,1.0,56.0,-9.0,2.0,-890.0,-457.0
-2.0,-237.0,-100.0,1.0,56.0,-6.0,6.0,-887.0,-463.0
1.0,-234.0,-94.0,-1.0,55.0,-7.0,5.0,-886.0,-465.0
-1.0,-238.0,-100.0,-2.0,57.0,-5.0,4.0,-890.0,-468.0
-2.0,-236.0,-97.0,-3.0,55.0,-5.0,6.0,-893.0,-465.0
-2.0,-237.0,-99.0,-4.0,55.0,-6.0,7.0,-900.0,-459.0
0.0,-239.0,-98.0,-5.0,55.0,-4.0,2.0,-891.0,-457.0
-3.0,-239.0,-96.0,-8.0,54.0,-5.0,3.0,-899.0,-463.0
0.0,-239.0,-100.0,-8.0,54.0,-5.0,1.0,-902.0,-473.0
-4.0,-239.0,-100.0,-9.0,54.0,-4.0,1.0,-903.0,-459.0
-1.0,-238.0,-99.0,-10.0,55.0,-4.0,4.0,-903.0,-466.0
-3.0,-239.0,-96.0,-7.0,57.0,-5.0,2.0,-907.0,-467.0
-3.0,-241.0,-97.0,-6.0,56.0,-6.0,0.0,-908.0,-471.0
-2.0,-241.0,-99.0,-3.0,57.0,-6.0,6.0,-906.0,-464.0
-3.0,-240.0,-97.0,-1.0,56.0,-5.0,3.0,-903.0,-470.0
-2.0,-241.0,-98.0,2.0,56.0,-6.0,1.0,-899.0,-468.0
-2.0,-239.0,-101.0,6.0,58.0,-8.0,2.0,-904.0,-466.0
-3.0,-240.0,-101.0,9.0,59.0,-9.0,6.0,-898.0,-464.0
-5.0,-240.0,-98.0,10.0,58.0,-10.0,5.0,-900.0,-470.0
-1.0,-238.0,-99.0,10.0,59.0,-10.0,4.0,-895.0,-468.0
-2.0,-239.0,-99.0,9.0,59.0,-11.0,4.0,-891.0,-470.0
-1.0,-237.0,-102.0,10.0,59.0,-12.0,4.0,-893.0,-468.0
-1.0,-235.0,-103.0,8.0,58.0,-11.0,3.0,-891.0,-475.0
-2.0,-235.0,-100.0,7.0,58.0,-11.0,0.0,-893.0,-470.0
-1.0,-238.0,-101.0,4.0,59.0,-10.0,0.0,-888.0,-469.0
-4.0,-237.0,-102.0,3.0,61.0,-11.0,3.0,-888.0,-462.0
-3.0,-235.0,-104.0,2.0,60.0,-11.0,2.0,-888.0,-467.0
0.0,-235.0,-100.0,2.0,60.0,-11.0,0.0,-883.0,-464.0
-3.0,-236.0,-100.0,2.0,59.0,-10.0,7.0,-888.0,-467.0
-2.0,-234.0,-103.0,1.0,59.0,-12.0,5.0,-888.0,-467.0
0.0,-232.0,-99.0,-2.0,60.0,-11.0,2.0,-891.0,-467.0
-3.0,-232.0,-97.0,-2.0,59.0,-9.0,-2.0,-888.0,-467.0
0.0,-237.0,-99.0,-3.0,60.0,-9.0,3.0,-883.0,-466.0
-2.0,-237.0,-96.0,-5.0,60.0,-9.0,3.0,-886.0,-459.0
-4.0,-236.0,-95.0,-7.0,58.0,-9.0,6.0,-884.0,-464.0
0.0,-237.0,-99.0,-7.0,58.0,-11.0,6.0,-886.0,-464.0
-2.0,-235.0,-99.0,-7.0,56.0,-12.0,6.0,-892.0,-457.0
-1.0,-235.0,-97.0,-8.0,58.0,-11.0,6.0,-897.0,-464.0
-2.0,-236.0,-99.0,-7.0,58.0,-11.0,4.0,-894.0,-463.0
0.0,-241.0,-99.0,-7.0,61.0,-11.0,7.0,-896.0,-457.0
0.0,-238.0,-96.0,-6.0,62.0,-12.0,8.0,-893.0,-463.0
-1.0,-238.0,-98.0,-3.0,64.0,-12.0,9.0,-897.0,-466.0
-3.0,-238.0,-100.0,0.0,65.0,-11.0,9.0,-902.0,-470.0
-3.0,-239.0,-100.0,2.0,65.0,-9.0,7.0,-900.0,-465.0
-3.0,-239.0,-98.0,5.0,68.0,-11.0,7.0,-904.0,-467.0
1.0,-240.0,-102.0,7.0,68.0,-10.0,12.0,-905.0,-471.0
-3.0,-238.0,-100.0,9.0,69.0,-8.0,9.0,-901.0,-466.0
-1.0,-241.0,-99.0,12.0,69.0,-6.0,10.0,-903.0,-471.0
-2.0,-239.0,-98.0,13.0,70.0,-7.0,3.0,-897.0,-465.0
-1.0,-240.0,-99.0,16.0,71.0,-6.0,8.0,-905.0,-467.0
-3.0,-240.0,-95.0,17.0,71.0,-5.0,2.0,-904.0,-465.0
-2.0,-235.0,-100.0,19.0,72.0,-4.0,10.0,-901.0,-467.0
-1.0,-240.0,-96.0,19.0,73.0,-4.0,3.0,-900.0,-472.0
-2.0,-238.0,-99.0,20.0,73.0,-3.0,6.0,-891.0,-468.0
-3.0,-237.0,-99.0,20.0,75.0,-2.0,7.0,-892.0,-469.0
-3.0,-236.0,-99.0,18.0,76.0,-3.0,3.0,-886.0,-469.0
-3.0,-234.0,-98.0,16.0,75.0,-4.0,0.0,-888.0,-464.0
-2.0,-235.0,-96.0,14.0,78.0,-4.0,2.0,-885.0,-478.0
-1.0,-235.0,-101.0,12.0,78.0,-4.0,6.0,-886.0,-465.0
-4.0,-235.0,-98.0,8.0,80.0,-2.0,4.0,-887.0,-464.0
0.0,-237.0,-98.0,5.0,82.0,-3.0,2.0,-889.0,-463.0
-3.0,-232.0,-98.0,4.0,82.0,-3.0,-3.0,-885.0,-457.0
-3.0,-234.0,-97.0,1.0,81.0,-3.0,7.0,-885.0,-473.0
-1.0,-235.0,-100.0,0.0,83.0,-2.0,1.0,-886.0,-469.0
-1.0,-238.0,-100.0,-1.0,84.0,-4.0,-1.0,-892.0,-463.0
-3.0,-238.0,-97.0,-2.0,83.0,-5.0,2.0,-891.0,-467.0
0.0,-240.0,-102.0,-2.0,83.0,-4.0,4.0,-901.0,-468.0
-3.0,-239.0,-100.0,-2.0,84.0,-5.0,3.0,-895.0,-467.0
-4.0,-240.0,-96.0,-1.0,84.0,-3.0,3.0,-894.0,-462.0
-1.0,-238.0,-101.0,-2.0,84.0,-1.0,3.0,-893.0,-466.0
-4.0,-236.0,-98.0,-2.0,84.0,-2.0,5.0,-898.0,-466.0
-2.0,-240.0,-98.0,-3.0,84.0,-1.0,4.0,-893.0,-461.0
-3.0,-237.0,-99.0,-2.0,84.0,0.0,-3.0,-887.0,-461.0
-5.0,-237.0,-99.0,-1.0,86.0,2.0,3.0,-891.0,-459.0
-1.0,-236.0,-97.0,-3.0,87.0,2.0,5.0,-890.0,-462.0
-2.0,-238.0,-101.0,-4.0,88.0,2.0,3.0,-892.0,-463.0
0.0,-236.0,-98.0,-6.0,87.0,4.0,7.0,-891.0,-464.0
-3.0,-236.0,-97.0,-7.0,86.0,5.0,7.0,-889.0,-463.0
-4.0,-236.0,-100.0,-8.0,88.0,5.0,1.0,-889.0,-469.0
-2.0,-236.0,-100.0,-10.0,88.0,5.0,0.0,-889.0,-463.0
-4.0,-237.0,-103.0,-10.0,88.0,5.0,6.0,-891.0,-468.0
-3.0,-237.0,-98.0,-10.0,89.0,6.0,4.0,-889.0,-461.0
-1.0,-238.0,-101.0,-9.0,90.0,6.0,6.0,-892.0,-469.0
-2.0,-238.0,-97.0,-10.0,91.0,8.0,5.0,-892.0,-470.0
-2.0,-237.0,-100.0,-10.0,91.0,7.0,6.0,-893.0,-463.0
-2.0,-237.0,-97.0,-12.0,92.0,7.0,2.0,-888.0,-459.0
-1.0,-239.0,-96.0,-14.0,92.0,7.0,2.0,-889.0,-458.0
-2.0,-237.0,-99.0,-15.0,92.0,8.0,2.0,-893.0,-458.0
-3.0,-237.0,-99.0,-17.0,93.0,7.0,6.0,-897.0,-461.0
-4.0,-238.0,-96.0,-19.0,92.0,7.0,4.0,-894.0,-458.0
-2.0,-236.0,-97.0,-21.0,94.0,8.0,-1.0,-892.0,-457.0
-2.0,-238.0,-97.0,-21.0,95.0,7.0,3.0,-890.0,-458.0
-4.0,-239.0,-96.0,-22.0,96.0,7.0,7.0,-895.0,-458.0
-1.0,-240.0,-96.0,-22.0,96.0,7.0,2.0,-896.0,-459.0
-1.0,-239.0,-95.0,-20.0,97.0,8.0,4.0,-902.0,-460.0
-1.0,-241.0,-96.0,-19.0,98.0,8.0,6.0,-897.0,-457.0
0.0,-237.0,-99.0,-18.0,98.0,9.0,7.0,-902.0,-459.0
-2.0,-241.0,-99.0,-15.0,98.0,10.0,3.0,-900.0,-459.0
-4.0,-237.0,-101.0,-12.0,98.0,8.0,12.0,-896.0,-454.0
-1.0,-237.0,-99.0,-13.0,99.0,9.0,4.0,-902.0,-457.0
-3.0,-240.0,-97.0,-13.0,99.0,10.0,3.0,-895.0,-452.0
-3.0,-241.0,-98.0,-14.0,98.0,11.0,4.0,-901.0,-459.0
0.0,-240.0,-96.0,-16.0,99.0,11.0,2.0,-904.0,-460.0
-1.0,-240.0,-94.0,-18.0,99.0,12.0,5.0,-905.0,-462.0
-3.0,-240.0,-97.0,-20.0,97.0,12.0,7.0,-907.0,-460.0
-2.0,-239.0,-97.0,-21.0,97.0,11.0,5.0,-910.0,-453.0
-2.0,-241.0,-96.0,-21.0,97.0,12.0,6.0,-910.0,-454.0
-3.0,-240.0,-99.0,-19.0,97.0,13.0,5.0,-909.0,-456.0
