acc1_x,acc1_y,acc1_z,gyro_x,gyro_y,gyro_z,acc2_x,acc2_y,acc2_z
8.0,-258.0,55.0,-13.0,58.0,-1.0,61.0,-999.0,158.0
8.0,-262.0,56.0,-15.0,57.0,-1.0,63.0,-986.0,158.0
13.0,-259.0,54.0,-16.0,57.0,1.0,61.0,-995.0,152.0
4.0,-259.0,55.0,-15.0,57.0,2.0,60.0,-992.0,155.0
12.0,-261.0,51.0,-14.0,57.0,2.0,59.0,-994.0,156.0
10.0,-262.0,59.0,-12.0,57.0,3.0,68.0,-992.0,154.0
8.0,-262.0,54.0,-12.0,59.0,3.0,64.0,-996.0,155.0
11.0,-262.0,50.0,-11.0,59.0,2.0,60.0,-995.0,153.0
11.0,-263.0,54.0,-10.0,58.0,3.0,63.0,-996.0,152.0
10.0,-259.0,55.0,-9.0,59.0,3.0,64.0,-994.0,151.0
14.0,-260.0,53.0,-8.0,60.0,3.0,69.0,-994.0,149.0
10.0,-262.0,52.0,-6.0,61.0,2.0,66.0,-992.0,152.0
9.0,-260.0,50.0,-4.0,63.0,2.0,61.0,-989.0,151.0
8.0,-262.0,52.0,-4.0,62.0,1.0,67.0,-991.0,154.0
8.0,-259.0,55.0,-1.0,64.0,1.0,66.0,-991.0,153.0
9.0,-260.0,53.0,-1.0,64.0,0.0,65.0,-990.0,154.0
9.0,-259.0,55.0,1.0,65.0,1.0,64.0,-994.0,154.0
10.0,-261.0,55.0,1.0,63.0,0.0,70.0,-992.0,150.0
11.0,-262.0,51.0,-3.0,63.0,0.0,58.0,-989.0,155.0
10.0,-258.0,53.0,-4.0,64.0,-1.0,63.0,-988.0,149.0
11.0,-262.0,51.0,-7.0,64.0,0.0,66.0,-989.0,153.0
9.0,-261.0,54.0,-8.0,66.0,0.0,70.0,-993.0,151.0
10.0,-259.0,50.0,-10.0,66.0,0.0,63.0,-994.0,150.0
9.0,-261.0,53.0,-12.0,65.0,1.0,62.0,-988.0,152.0
8.0,-259.0,52.0,-14.0,65.0,1.0,63.0,-991.0,151.0
10.0,-258.0,54.0,-15.0,66.0,1.0,67.0,-996.0,152.0
10.0,-260.0,53.0,-16.0,67.0,1.0,59.0,-986.0,155.0
11.0,-261.0,53.0,-16.0,66.0,2.0,59.0,-994.0,157.0
11.0,-260.0,57.0,-16.0,67.0,2.0,59.0,-996.0,147.0
10.0,-261.0,51.0,-14.0,68.0,1.0,64.0,-998.0,155.0
7.0,-261.0,54.0,-14.0,66.0,0.0,66.0,-994.0,153.0
8.0,-265.0,57.0,-14.0,64.0,1.0,62.0,-994.0,154.0
7.0,-260.0,54.0,-13.0,66.0,1.0,62.0,-1000.0,154.0
11.0,-262.0,53.0,-11.0,66.0,1.0,59.0,-995.0,154.0
9.0,-261.0,52.0,-11.0,64.0,2.0,65.0,-996.0,152.0
11.0,-263.0,54.0,-10.0,65.0,3.0,62.0,-992.0,157.0
6.0,-261.0,52.0,-10.0,65.0,2.0,64.0,-993.0,151.0
7.0,-258.0,53.0,-8.0,66.0,2.0,54.0,-993.0,154.0
8.0,-260.0,53.0,-8.0,67.0,2.0,59.0,-994.0,160.0
9.0,-260.0,51.0,-6.0,66.0,2.0,58.0,-992.0,157.0
7.0,-262.0,52.0,-5.0,66.0,3.0,63.0,-990.0,159.0
8.0,-260.0,53.0,-4.0,67.0,2.0,59.0,-993.0,158.0
8.0,-260.0,53.0,-3.0,69.0,1.0,58.0,-995.0,159.0
9.0,-261.0,55.0,-1.0,71.0,0.0,61.0,-992.0,162.0
8.0,-263.0,55.0,0.0,70.0,2.0,63.0,-992.0,160.0
12.0,-261.0,50.0,0.0,72.0,1.0,61.0,-995.0,159.0
7.0,-262.0,58.0,0.0,74.0,0.0,60.0,-994.0,159.0
8.0,-261.0,54.0,-1.0,76.0,0.0,59.0,-991.0,162.0
5.0,-258.0,56.0,0.0,74.0,0.0,65.0,-993.0,159.0
11.0,-260.0,55.0,0.0,74.0,2.0,59.0,-998.0,154.0
10.0,-261.0,52.0,0.0,74.0,2.0,64.0,-993.0,154.0
8.0,-260.0,53.0,-1.0,74.0,1.0,61.0,-998.0,155.0
10.0,-263.0,54.0,-2.0,72.0,0.0,64.0,-991.0,159.0
10.0,-262.0,55.0,-3.0,72.0,0.0,60.0,-992.0,152.0
10.0,-261.0,53.0,-3.0,71.0,-2.0,60.0,-994.0,159.0
9.0,-259.0,49.0,-4.0,71.0,0.0,66.0,-995.0,157.0
9.0,-261.0,57.0,-5.0,70.0,-1.0,58.0,-993.0,155.0
8.0,-262.0,59.0,-6.0,68.0,-1.0,65.0,-994.0,158.0
9.0,-262.0,56.0,-6.0,69.0,-1.0,62.0,-995.0,160.0
11.0,-261.0,52.0,-6.0,69.0,-2.0,62.0,-990.0,159.0
10.0,-259.0,56.0,-4.0,68.0,-1.0,56.0,-986.0,159.0
5.0,-259.0,59.0,-3.0,69.0,-1.0,60.0,-992.0,158.0
10.0,-262.0,54.0,-3.0,69.0,-1.0,60.0,-994.0,163.0
7.0,-265.0,54.0,-1.0,69.0,-1.0,57.0,-986.0,158.0
7.0,-260.0,55.0,-1.0,70.0,-1.0,63.0,-991.0,157.0
8.0,-259.0,55.0,-1.0,70.0,-1.0,61.0,-994.0,163.0
10.0,-260.0,59.0,-2.0,71.0,-2.0,61.0,-991.0,161.0
9.0,-262.0,51.0,-2.0,71.0,-2.0,61.0,-993.0,155.0
10.0,-263.0,56.0,-2.0,73.0,-2.0,61.0,-991.0,158.0
6.0,-258.0,58.0,-3.0,74.0,-2.0,60.0,-992.0,161.0
6.0,-260.0,55.0,-4.0,73.0,-5.0,59.0,-989.0,159.0
9.0,-264.0,57.0,-6.0,72.0,-5.0,62.0,-991.0,160.0
8.0,-262.0,58.0,-7.0,72.0,-3.0,56.0,-994.0,154.0
8.0,-261.0,56.0,-9.0,72.0,-4.0,60.0,-996.0,160.0
10.0,-261.0,56.0,-9.0,74.0,-3.0,55.0,-993.0,159.0
6.0,-260.0,52.0,-11.0,73.0,-5.0,60.0,-992.0,156.0
9.0,-262.0,56.0,-11.0,72.0,-4.0,58.0,-990.0,158.0
8.0,-259.0,54.0,-11.0,72.0,-5.0,58.0,-992.0,159.0
7.0,-262.0,54.0,-10.0,72.0,-3.0,56.0,-995.0,158.0
9.0,-260.0,56.0,-9.0,71.0,-4.0,56.0,-992.0,159.0
7.0,-260.0,54.0,-9.0,71.0,-5.0,56.0,-993.0,156.0
9.0,-258.0,39.0,-8.0,71.0,-5.0,52.0,-995.0,160.0
0.0,-257.0,71.0,-8.0,70.0,-6.0,56.0,-989.0,158.0
15.0,-262.0,50.0,-8.0,70.0,-6.0,58.0,-991.0,160.0
4.0,-258.0,63.0,-8.0,70.0,-6.0,58.0,-992.0,154.0
6.0,-263.0,66.0,-8.0,69.0,-5.0,55.0,-993.0,155.0
13.0,-262.0,59.0,-8.0,69.0,-5.0,53.0,-996.0,158.0
2.0,-253.0,72.0,-8.0,69.0,-4.0,53.0,-995.0,158.0
12.0,-264.0,52.0,-6.0,71.0,-4.0,53.0,-989.0,158.0
10.0,-258.0,50.0,-5.0,71.0,-4.0,58.0,-990.0,161.0
7.0,-259.0,57.0,-6.0,72.0,-4.0,55.0,-994.0,160.0
7.0,-260.0,57.0,-5.0,71.0,-4.0,58.0,-988.0,163.0
9.0,-262.0,56.0,-4.0,70.0,-4.0,58.0,-987.0,158.0
8.0,-259.0,55.0,-3.0,71.0,-5.0,57.0,-991.0,161.0
7.0,-260.0,57.0,-4.0,71.0,-4.0,59.0,-986.0,159.0
7.0,-257.0,57.0,-6.0,71.0,-4.0,54.0,-994.0,159.0
8.0,-259.0,59.0,-6.0,71.0,-5.0,53.0,-993.0,162.0
7.0,-262.0,56.0,-7.0,69.0,-4.0,61.0,-992.0,163.0
9.0,-260.0,57.0,-8.0,68.0,-4.0,60.0,-987.0,155.0
8.0,-264.0,57.0,-9.0,69.0,-4.0,57.0,-989.0,158.0
8.0,-260.0,56.0,-11.0,68.0,-5.0,53.0,-990.0,161.0
9.0,-258.0,52.0,-11.0,67.0,-4.0,60.0,-990.0,155.0
10.0,-261.0,52.0,-13.0,69.0,-6.0,62.0,-991.0,161.0
12.0,-262.0,54.0,-14.0,69.0,-6.0,58.0,-992.0,156.0
7.0,-263.0,54.0,-14.0,68.0,-7.0,54.0,-994.0,156.0
8.0,-260.0,57.0,-15.0,68.0,-7.0,56.0,-994.0,160.0
7.0,-262.0,53.0,-14.0,69.0,-7.0,56.0,-994.0,160.0
8.0,-259.0,58.0,-14.0,69.0,-7.0,55.0,-999.0,156.0
7.0,-259.0,53.0,-12.0,69.0,-7.0,59.0,-995.0,159.0
9.0,-262.0,59.0,-12.0,69.0,-7.0,57.0,-988.0,157.0
5.0,-259.0,56.0,-11.0,68.0,-7.0,58.0,-991.0,159.0
8.0,-260.0,55.0,-10.0,69.0,-7.0,62.0,-997.0,163.0
9.0,-261.0,54.0,-9.0,68.0,-7.0,57.0,-996.0,160.0
11.0,-260.0,54.0,-7.0,67.0,-7.0,56.0,-994.0,160.0
10.0,-258.0,57.0,-7.0,68.0,-7.0,69.0,-993.0,160.0
6.0,-261.0,56.0,-7.0,68.0,-5.0,55.0,-993.0,162.0
7.0,-256.0,56.0,-8.0,68.0,-5.0,62.0,-994.0,162.0
11.0,-262.0,57.0,-9.0,68.0,-5.0,64.0,-992.0,160.0
9.0,-261.0,58.0,-9.0,68.0,-4.0,62.0,-992.0,160.0
7.0,-260.0,56.0,-8.0,66.0,-6.0,60.0,-989.0,161.0
11.0,-260.0,54.0,-8.0,68.0,-5.0,61.0,-991.0,159.0
10.0,-261.0,60.0,-9.0,69.0,-3.0,62.0,-995.0,160.0
4.0,-263.0,56.0,-10.0,68.0,-3.0,60.0,-991.0,159.0
9.0,-263.0,56.0,-11.0,69.0,-4.0,58.0,-994.0,158.0
9.0,-260.0,52.0,-11.0,68.0,-4.0,66.0,-1003.0,154.0
11.0,-261.0,56.0,-11.0,69.0,-5.0,61.0,-995.0,156.0
9.0,-260.0,54.0,-12.0,69.0,-6.0,63.0,-996.0,155.0
8.0,-262.0,58.0,-12.0,69.0,-4.0,60.0,-993.0,159.0
11.0,-262.0,53.0,-12.0,69.0,-5.0,59.0,-999.0,154.0
9.0,-261.0,54.0,-11.0,68.0,-4.0,59.0,-997.0,161.0
9.0,-263.0,54.0,-9.0,67.0,-5.0,64.0,-992.0,154.0
12.0,-260.0,54.0,-8.0,66.0,-5.0,66.0,-991.0,158.0
7.0,-257.0,55.0,-6.0,64.0,-7.0,58.0,-991.0,159.0
10.0,-259.0,56.0,-6.0,66.0,-7.0,61.0,-997.0,160.0
9.0,-260.0,51.0,-6.0,65.0,-6.0,63.0,-990.0,155.0
7.0,-258.0,52.0,-4.0,67.0,-6.0,63.0,-988.0,161.0
7.0,-257.0,56.0,-3.0,65.0,-5.0,62.0,-983.0,160.0
8.0,-258.0,54.0,-4.0,66.0,-5.0,58.0,-989.0,161.0
8.0,-259.0,56.0,-6.0,65.0,-5.0,59.0,-994.0,162.0
9.0,-261.0,55.0,-7.0,67.0,-4.0,63.0,-989.0,162.0
8.0,-257.0,54.0,-8.0,67.0,-3.0,58.0,-990.0,166.0
9.0,-263.0,56.0,-9.0,67.0,-3.0,63.0,-990.0,165.0
6.0,-260.0,53.0,-9.0,67.0,-3.0,64.0,-987.0,164.0
9.0,-259.0,59.0,-10.0,67.0,-2.0,63.0,-990.0,162.0
6.0,-260.0,54.0,-11.0,66.0,-3.0,60.0,-995.0,160.0
9.0,-262.0,56.0,-11.0,68.0,-3.0,66.0,-990.0,162.0
8.0,-260.0,58.0,-12.0,67.0,-4.0,68.0,-995.0,162.0
11.0,-261.0,56.0,-15.0,67.0,-4.0,66.0,-997.0,161.0
10.0,-261.0,57.0,-14.0,66.0,-3.0,60.0,-994.0,158.0
10.0,-262.0,53.0,-13.0,68.0,-5.0,66.0,-992.0,160.0
10.0,-264.0,52.0,-12.0,68.0,-3.0,58.0,-994.0,162.0
10.0,-261.0,56.0,-10.0,66.0,-5.0,59.0,-990.0,158.0
10.0,-260.0,52.0,-9.0,66.0,-5.0,68.0,-995.0,160.0
9.0,-260.0,54.0,-10.0,66.0,-5.0,65.0,-993.0,156.0
9.0,-259.0,56.0,-7.0,67.0,-4.0,69.0,-991.0,159.0
6.0,-260.0,54.0,-8.0,65.0,-4.0,69.0,-991.0,152.0
9.0,-261.0,54.0,-7.0,67.0,-6.0,64.0,-993.0,156.0
8.0,-260.0,54.0,-6.0,68.0,-6.0,60.0,-990.0,152.0
11.0,-259.0,53.0,-4.0,67.0,-5.0,57.0,-994.0,157.0
9.0,-260.0,57.0,-5.0,68.0,-3.0,59.0,-988.0,155.0
9.0,-260.0,55.0,-3.0,69.0,-3.0,57.0,-990.0,155.0
9.0,-260.0,53.0,-5.0,68.0,-4.0,61.0,-990.0,160.0
7.0,-259.0,56.0,-5.0,69.0,-3.0,57.0,-987.0,160.0
7.0,-259.0,57.0,-5.0,69.0,-3.0,64.0,-990.0,160.0
8.0,-262.0,57.0,-6.0,69.0,-4.0,66.0,-988.0,158.0
8.0,-261.0,55.0,-9.0,69.0,-3.0,65.0,-993.0,160.0
9.0,-261.0,51.0,-10.0,69.0,-4.0,61.0,-993.0,158.0
7.0,-258.0,55.0,-12.0,69.0,-4.0,69.0,-993.0,159.0
8.0,-259.0,54.0,-13.0,68.0,-5.0,55.0,-991.0,162.0
7.0,-259.0,54.0,-15.0,69.0,-5.0,59.0,-990.0,162.0
7.0,-262.0,55.0,-15.0,68.0,-4.0,61.0,-991.0,157.0
8.0,-261.0,53.0,-16.0,66.0,-5.0,58.0,-991.0,162.0
8.0,-257.0,53.0,-15.0,68.0,-6.0,60.0,-996.0,162.0
9.0,-261.0,55.0,-15.0,67.0,-5.0,60.0,-998.0,160.0
7.0,-257.0,55.0,-14.0,68.0,-5.0,55.0,-994.0,157.0
9.0,-263.0,56.0,-14.0,69.0,-5.0,58.0,-993.0,160.0
9.0,-263.0,54.0,-15.0,69.0,-5.0,59.0,-994.0,160.0
8.0,-262.0,55.0,-14.0,70.0,-4.0,59.0,-998.0,160.0
11.0,-259.0,55.0,-12.0,70.0,-5.0,61.0,-993.0,159.0
9.0,-262.0,56.0,-11.0,72.0,-5.0,59.0,-993.0,163.0
11.0,-262.0,55.0,-10.0,70.0,-4.0,63.0,-995.0,163.0
9.0,-259.0,57.0,-10.0,71.0,-5.0,55.0,-991.0,160.0
7.0,-260.0,55.0,-9.0,70.0,-6.0,67.0,-995.0,161.0
8.0,-259.0,56.0,-8.0,69.0,-8.0,60.0,-992.0,161.0
7.0,-257.0,56.0,-8.0,68.0,-8.0,57.0,-990.0,160.0
7.0,-259.0,57.0,-8.0,68.0,-8.0,58.0,-990.0,161.0
8.0,-259.0,57.0,-10.0,68.0,-8.0,64.0,-991.0,165.0
8.0,-258.0,57.0,-11.0,68.0,-8.0,56.0,-997.0,160.0
6.0,-260.0,54.0,-12.0,67.0,-9.0,56.0,-993.0,166.0
9.0,-260.0,55.0,-13.0,68.0,-9.0,56.0,-991.0,164.0
7.0,-263.0,55.0,-12.0,68.0,-9.0,59.0,-992.0,166.0
6.0,-262.0,56.0,-12.0,69.0,-8.0,59.0,-987.0,160.0
6.0,-260.0,61.0,-12.0,68.0,-8.0,56.0,-988.0,160.0
7.0,-261.0,56.0,-13.0,68.0,-8.0,61.0,-991.0,163.0
7.0,-261.0,54.0,-13.0,69.0,-8.0,65.0,-997.0,160.0
11.0,-260.0,53.0,-14.0,69.0,-9.0,56.0,-999.0,162.0
7.0,-260.0,57.0,-14.0,69.0,-8.0,60.0,-992.0,164.0
9.0,-261.0,54.0,-14.0,69.0,-9.0,57.0,-992.0,162.0
11.0,-257.0,55.0,-15.0,69.0,-9.0,62.0,-993.0,164.0
7.0,-260.0,55.0,-15.0,70.0,-9.0,56.0,-992.0,160.0
8.0,-258.0,57.0,-15.0,69.0,-9.0,57.0,-994.0,162.0
10.0,-263.0,56.0,-13.0,68.0,-9.0,58.0,-990.0,159.0
10.0,-262.0,54.0,-15.0,67.0,-9.0,56.0,-995.0,160.0
8.0,-257.0,55.0,-13.0,66.0,-10.0,60.0,-993.0,161.0
8.0,-260.0,57.0,-14.0,65.0,-9.0,61.0,-993.0,162.0
10.0,-262.0,54.0,-14.0,65.0,-8.0,66.0,-991.0,158.0
9.0,-259.0,54.0,-15.0,65.0,-9.0,68.0,-991.0,161.0
8.0,-263.0,56.0,-15.0,66.0,-9.0,57.0,-994.0,158.0
6.0,-262.0,57.0,-16.0,66.0,-9.0,63.0,-990.0,161.0
9.0,-260.0,55.0,-16.0,67.0,-9.0,59.0,-991.0,161.0
11.0,-261.0,54.0,-15.0,67.0,-8.0,61.0,-990.0,159.0
12.0,-264.0,60.0,-14.0,67.0,-7.0,59.0,-991.0,154.0
7.0,-261.0,57.0,-14.0,66.0,-8.0,59.0,-997.0,160.0
9.0,-262.0,57.0,-12.0,67.0,-8.0,58.0,-991.0,161.0
10.0,-262.0,54.0,-12.0,68.0,-7.0,66.0,-996.0,158.0
9.0,-262.0,55.0,-10.0,69.0,-8.0,66.0,-993.0,158.0
12.0,-261.0,51.0,-12.0,69.0,-10.0,62.0,-993.0,162.0
8.0,-259.0,54.0,-11.0,69.0,-10.0,61.0,-994.0,160.0
9.0,-259.0,57.0,-11.0,69.0,-12.0,63.0,-991.0,159.0
8.0,-260.0,56.0,-12.0,68.0,-13.0,71.0,-989.0,159.0
10.0,-259.0,56.0,-11.0,67.0,-13.0,62.0,-991.0,161.0
9.0,-264.0,57.0,-11.0,68.0,-14.0,64.0,-994.0,158.0
8.0,-259.0,55.0,-10.0,67.0,-14.0,66.0,-993.0,158.0
10.0,-262.0,55.0,-9.0,65.0,-14.0,62.0,-991.0,162.0
9.0,-262.0,56.0,-10.0,67.0,-13.0,61.0,-992.0,158.0
10.0,-262.0,55.0,-9.0,65.0,-12.0,66.0,-989.0,158.0
9.0,-263.0,57.0,-8.0,64.0,-11.0,68.0,-992.0,160.0
11.0,-260.0,52.0,-8.0,63.0,-11.0,63.0,-998.0,161.0
12.0,-259.0,55.0,-9.0,63.0,-11.0,66.0,-992.0,165.0
10.0,-259.0,54.0,-8.0,64.0,-10.0,62.0,-989.0,159.0
11.0,-263.0,54.0,-9.0,64.0,-11.0,67.0,-992.0,158.0
10.0,-260.0,58.0,-10.0,66.0,-9.0,64.0,-993.0,162.0
12.0,-260.0,56.0,-10.0,64.0,-8.0,67.0,-989.0,157.0
9.0,-259.0,55.0,-11.0,63.0,-8.0,69.0,-992.0,161.0
11.0,-261.0,55.0,-10.0,63.0,-7.0,72.0,-992.0,162.0
8.0,-258.0,56.0,-11.0,63.0,-8.0,71.0,-984.0,160.0
8.0,-258.0,53.0,-11.0,64.0,-6.0,66.0,-993.0,159.0
10.0,-262.0,57.0,-10.0,64.0,-6.0,69.0,-995.0,159.0
12.0,-264.0,56.0,-10.0,63.0,-6.0,69.0,-989.0,160.0
10.0,-258.0,52.0,-9.0,61.0,-7.0,73.0,-994.0,157.0
8.0,-260.0,53.0,-10.0,61.0,-7.0,68.0,-996.0,162.0
10.0,-262.0,53.0,-11.0,62.0,-9.0,66.0,-988.0,161.0
8.0,-260.0,56.0,-12.0,61.0,-8.0,68.0,-992.0,161.0
13.0,-259.0,58.0,-12.0,61.0,-9.0,59.0,-989.0,161.0
11.0,-259.0,59.0,-11.0,61.0,-10.0,67.0,-994.0,164.0
12.0,-261.0,57.0,-12.0,62.0,-11.0,68.0,-992.0,160.0
10.0,-260.0,60.0,-12.0,60.0,-12.0,62.0,-991.0,164.0
10.0,-260.0,58.0,-12.0,61.0,-11.0,64.0,-988.0,155.0
10.0,-260.0,53.0,-14.0,60.0,-13.0,64.0,-992.0,160.0
10.0,-261.0,57.0,-13.0,61.0,-13.0,70.0,-995.0,160.0
11.0,-260.0,53.0,-12.0,63.0,-12.0,67.0,-992.0,161.0
12.0,-259.0,53.0,-12.0,63.0,-11.0,68.0,-993.0,160.0
10.0,-263.0,53.0,-12.0,65.0,-10.0,61.0,-996.0,160.0
10.0,-259.0,56.0,-13.0,66.0,-10.0,64.0,-997.0,157.0
8.0,-260.0,54.0,-16.0,67.0,-10.0,67.0,-989.0,154.0
7.0,-258.0,55.0,-15.0,67.0,-9.0,67.0,-992.0,159.0
8.0,-263.0,53.0,-15.0,66.0,-7.0,62.0,-987.0,160.0
9.0,-258.0,54.0,-15.0,67.0,-8.0,66.0,-989.0,161.0
12.0,-261.0,56.0,-16.0,66.0,-8.0,67.0,-993.0,162.0
7.0,-259.0,52.0,-16.0,64.0,-7.0,61.0,-993.0,161.0
9.0,-262.0,53.0,-16.0,62.0,-9.0,64.0,-995.0,159.0
12.0,-260.0,54.0,-16.0,60.0,-10.0,64.0,-991.0,161.0
10.0,-261.0,57.0,-14.0,58.0,-10.0,67.0,-991.0,159.0
12.0,-262.0,51.0,-12.0,57.0,-11.0,61.0,-994.0,158.0
12.0,-259.0,60.0,-11.0,57.0,-12.0,65.0,-993.0,162.0
12.0,-260.0,60.0,-10.0,56.0,-12.0,68.0,-997.0,160.0
11.0,-261.0,53.0,-10.0,56.0,-12.0,56.0,-994.0,162.0
7.0,-260.0,57.0,-10.0,57.0,-13.0,66.0,-993.0,159.0
13.0,-263.0,58.0,-10.0,58.0,-12.0,63.0,-1001.0,162.0
11.0,-264.0,53.0,-12.0,59.0,-11.0,58.0,-992.0,160.0
9.0,-263.0,60.0,-14.0,60.0,-12.0,66.0,-991.0,153.0
9.0,-261.0,57.0,-16.0,61.0,-13.0,63.0,-1001.0,156.0
9.0,-261.0,57.0,-18.0,62.0,-13.0,64.0,-994.0,162.0
8.0,-262.0,52.0,-19.0,61.0,-15.0,69.0,-996.0,157.0
8.0,-261.0,53.0,-20.0,63.0,-14.0,66.0,-995.0,157.0
10.0,-263.0,57.0,-22.0,62.0,-15.0,61.0,-995.0,160.0
9.0,-262.0,56.0,-20.0,61.0,-16.0,59.0,-996.0,159.0
8.0,-258.0,56.0,-19.0,58.0,-18.0,62.0,-989.0,161.0
9.0,-260.0,55.0,-18.0,57.0,-19.0,63.0,-986.0,164.0
10.0,-260.0,57.0,-18.0,56.0,-20.0,64.0,-990.0,164.0
11.0,-261.0,51.0,-17.0,57.0,-21.0,70.0,-993.0,161.0
9.0,-262.0,55.0,-16.0,54.0,-24.0,73.0,-992.0,158.0
11.0,-261.0,59.0,-17.0,54.0,-26.0,69.0,-993.0,164.0
10.0,-260.0,55.0,-19.0,53.0,-29.0,73.0,-992.0,155.0
11.0,-261.0,58.0,-22.0,50.0,-28.0,73.0,-994.0,160.0
11.0,-260.0,56.0,-27.0,48.0,-32.0,71.0,-994.0,157.0
11.0,-261.0,59.0,-30.0,47.0,-32.0,68.0,-993.0,158.0
11.0,-258.0,52.0,-35.0,45.0,-32.0,68.0,-986.0,154.0
9.0,-260.0,51.0,-40.0,42.0,-34.0,72.0,-988.0,153.0
13.0,-261.0,49.0,-44.0,41.0,-34.0,70.0,-988.0,157.0
13.0,-260.0,58.0,-49.0,39.0,-35.0,73.0,-988.0,157.0
12.0,-260.0,56.0,-52.0,38.0,-35.0,66.0,-984.0,158.0
12.0,-260.0,53.0,-54.0,36.0,-36.0,68.0,-990.0,161.0
12.0,-260.0,54.0,-56.0,34.0,-38.0,75.0,-986.0,159.0
13.0,-262.0,55.0,-59.0,33.0,-39.0,68.0,-990.0,157.0
10.0,-260.0,55.0,-59.0,31.0,-40.0,74.0,-988.0,155.0
9.0,-258.0,56.0,-59.0,29.0,-40.0,75.0,-994.0,155.0
11.0,-261.0,51.0,-61.0,26.0,-41.0,79.0,-990.0,154.0
11.0,-258.0,53.0,-61.0,25.0,-43.0,71.0,-1001.0,147.0
10.0,-260.0,52.0,-61.0,28.0,-41.0,79.0,-990.0,153.0
12.0,-262.0,51.0,-61.0,30.0,-39.0,79.0,-994.0,153.0
11.0,-264.0,52.0,-61.0,32.0,-41.0,81.0,-995.0,152.0
16.0,-262.0,52.0,-59.0,30.0,-42.0,76.0,-994.0,150.0
10.0,-261.0,54.0,-56.0,26.0,-43.0,77.0,-996.0,154.0
13.0,-261.0,55.0,-56.0,25.0,-45.0,75.0,-992.0,145.0
11.0,-263.0,52.0,-57.0,26.0,-46.0,70.0,-992.0,147.0
10.0,-261.0,49.0,-59.0,21.0,-49.0,72.0,-990.0,151.0
11.0,-261.0,54.0,-61.0,20.0,-53.0,71.0,-992.0,146.0
13.0,-259.0,51.0,-62.0,19.0,-57.0,63.0,-990.0,149.0
8.0,-260.0,54.0,-64.0,17.0,-60.0,69.0,-993.0,154.0
10.0,-261.0,54.0,-63.0,15.0,-64.0,64.0,-987.0,155.0
12.0,-256.0,48.0,-64.0,13.0,-70.0,66.0,-991.0,156.0
8.0,-259.0,52.0,-62.0,12.0,-73.0,69.0,-988.0,157.0
8.0,-261.0,54.0,-61.0,10.0,-75.0,68.0,-987.0,155.0
8.0,-262.0,55.0,-61.0,7.0,-78.0,68.0,-989.0,152.0
12.0,-260.0,55.0,-63.0,8.0,-79.0,66.0,-988.0,149.0
9.0,-259.0,49.0,-67.0,9.0,-82.0,68.0,-987.0,153.0
11.0,-261.0,50.0,-72.0,8.0,-84.0,67.0,-984.0,151.0
9.0,-257.0,53.0,-74.0,10.0,-87.0,64.0,-986.0,146.0
9.0,-259.0,55.0,-79.0,12.0,-88.0,66.0,-989.0,152.0
11.0,-263.0,52.0,-83.0,13.0,-90.0,62.0,-987.0,148.0
12.0,-260.0,52.0,-85.0,15.0,-90.0,57.0,-986.0,151.0
12.0,-260.0,53.0,-87.0,17.0,-91.0,63.0,-991.0,151.0
12.0,-260.0,51.0,-88.0,17.0,-93.0,72.0,-989.0,151.0
11.0,-261.0,51.0,-86.0,18.0,-95.0,79.0,-989.0,150.0
11.0,-261.0,52.0,-84.0,17.0,-95.0,76.0,-988.0,155.0
11.0,-260.0,52.0,-83.0,17.0,-97.0,76.0,-992.0,150.0
13.0,-259.0,52.0,-82.0,16.0,-99.0,81.0,-992.0,151.0
12.0,-261.0,54.0,-80.0,14.0,-103.0,73.0,-992.0,148.0
13.0,-258.0,55.0,-79.0,14.0,-106.0,79.0,-992.0,151.0
9.0,-260.0,55.0,-78.0,14.0,-108.0,73.0,-992.0,154.0
12.0,-262.0,53.0,-79.0,10.0,-111.0,76.0,-992.0,153.0
12.0,-263.0,54.0,-79.0,9.0,-116.0,72.0,-992.0,149.0
11.0,-261.0,51.0,-82.0,7.0,-122.0,71.0,-997.0,154.0
14.0,-262.0,54.0,-83.0,4.0,-126.0,75.0,-992.0,150.0
12.0,-262.0,52.0,-84.0,4.0,-132.0,74.0,-991.0,151.0
11.0,-260.0,51.0,-84.0,3.0,-136.0,76.0,-995.0,146.0
12.0,-262.0,53.0,-86.0,3.0,-140.0,72.0,-997.0,149.0
12.0,-262.0,53.0,-86.0,4.0,-144.0,74.0,-992.0,151.0
12.0,-260.0,57.0,-84.0,4.0,-147.0,75.0,-997.0,152.0
12.0,-262.0,53.0,-82.0,7.0,-148.0,79.0,-993.0,142.0
12.0,-261.0,51.0,-81.0,9.0,-152.0,74.0,-994.0,157.0
13.0,-259.0,51.0,-79.0,7.0,-151.0,82.0,-992.0,153.0
14.0,-260.0,57.0,-76.0,7.0,-154.0,81.0,-994.0,147.0
13.0,-261.0,53.0,-77.0,8.0,-153.0,81.0,-996.0,146.0
13.0,-260.0,51.0,-78.0,8.0,-152.0,82.0,-998.0,148.0
18.0,-262.0,47.0,-80.0,8.0,-153.0,82.0,-994.0,146.0
15.0,-263.0,53.0,-81.0,8.0,-152.0,84.0,-996.0,150.0
14.0,-263.0,47.0,-81.0,8.0,-153.0,87.0,-997.0,152.0
14.0,-261.0,54.0,-82.0,6.0,-155.0,87.0,-990.0,151.0
14.0,-261.0,50.0,-83.0,2.0,-162.0,85.0,-989.0,148.0
17.0,-259.0,51.0,-81.0,-3.0,-171.0,92.0,-984.0,145.0
14.0,-258.0,52.0,-82.0,-4.0,-179.0,90.0,-985.0,145.0
15.0,-262.0,52.0,-86.0,-4.0,-188.0,91.0,-986.0,146.0
17.0,-263.0,52.0,-90.0,-3.0,-197.0,96.0,-992.0,144.0
14.0,-262.0,50.0,-96.0,1.0,-203.0,90.0,-990.0,144.0
14.0,-260.0,52.0,-102.0,7.0,-206.0,98.0,-1002.0,144.0
17.0,-263.0,54.0,-109.0,15.0,-209.0,94.0,-994.0,150.0
17.0,-260.0,52.0,-113.0,15.0,-213.0,91.0,-998.0,149.0
18.0,-261.0,53.0,-116.0,16.0,-214.0,94.0,-1000.0,150.0
18.0,-260.0,51.0,-119.0,17.0,-217.0,98.0,-995.0,156.0
19.0,-262.0,56.0,-117.0,16.0,-218.0,100.0,-1000.0,153.0
20.0,-261.0,53.0,-116.0,15.0,-216.0,97.0,-1001.0,149.0
19.0,-260.0,54.0,-115.0,16.0,-212.0,103.0,-1000.0,149.0
23.0,-261.0,56.0,-112.0,17.0,-212.0,109.0,-998.0,148.0
25.0,-262.0,50.0,-109.0,15.0,-211.0,111.0,-1000.0,150.0
25.0,-261.0,51.0,-102.0,12.0,-211.0,118.0,-993.0,150.0
22.0,-258.0,52.0,-93.0,11.0,-211.0,117.0,-995.0,153.0
19.0,-261.0,54.0,-85.0,13.0,-212.0,112.0,-983.0,155.0
23.0,-264.0,52.0,-83.0,14.0,-216.0,111.0,-983.0,148.0
21.0,-259.0,52.0,-89.0,13.0,-227.0,102.0,-990.0,137.0
17.0,-259.0,44.0,-100.0,16.0,-242.0,91.0,-997.0,125.0
20.0,-257.0,39.0,-117.0,21.0,-255.0,98.0,-994.0,110.0
15.0,-261.0,39.0,-134.0,37.0,-265.0,89.0,-990.0,94.0
10.0,-260.0,37.0,-153.0,52.0,-273.0,74.0,-989.0,96.0
14.0,-259.0,35.0,-173.0,66.0,-274.0,69.0,-993.0,89.0
10.0,-259.0,34.0,-190.0,85.0,-265.0,71.0,-992.0,84.0
14.0,-261.0,36.0,-200.0,98.0,-255.0,76.0,-993.0,80.0
11.0,-259.0,37.0,-209.0,112.0,-242.0,70.0,-992.0,93.0
14.0,-259.0,37.0,-212.0,115.0,-231.0,87.0,-992.0,96.0
17.0,-260.0,42.0,-209.0,113.0,-222.0,86.0,-996.0,109.0
16.0,-259.0,44.0,-201.0,108.0,-210.0,99.0,-992.0,113.0
19.0,-261.0,47.0,-189.0,104.0,-198.0,104.0,-997.0,120.0
21.0,-263.0,48.0,-173.0,101.0,-191.0,109.0,-993.0,133.0
24.0,-264.0,51.0,-153.0,93.0,-185.0,115.0,-997.0,139.0
24.0,-260.0,51.0,-134.0,85.0,-178.0,125.0,-992.0,138.0
28.0,-261.0,50.0,-116.0,77.0,-177.0,131.0,-991.0,134.0
27.0,-260.0,52.0,-102.0,67.0,-179.0,135.0,-987.0,132.0
31.0,-261.0,50.0,-93.0,62.0,-180.0,140.0,-983.0,137.0
30.0,-260.0,46.0,-88.0,55.0,-181.0,145.0,-980.0,128.0
32.0,-259.0,48.0,-90.0,47.0,-184.0,145.0,-990.0,122.0
32.0,-259.0,45.0,-97.0,42.0,-186.0,156.0,-982.0,115.0
35.0,-260.0,46.0,-109.0,39.0,-186.0,155.0,-986.0,109.0
34.0,-259.0,42.0,-126.0,35.0,-184.0,161.0,-984.0,105.0
34.0,-257.0,40.0,-143.0,33.0,-180.0,158.0,-979.0,107.0
33.0,-261.0,43.0,-159.0,21.0,-180.0,154.0,-982.0,105.0
35.0,-261.0,45.0,-173.0,6.0,-172.0,163.0,-983.0,106.0
35.0,-261.0,44.0,-183.0,-3.0,-163.0,161.0,-987.0,109.0
38.0,-261.0,40.0,-189.0,-11.0,-152.0,163.0,-987.0,102.0
34.0,-257.0,40.0,-190.0,-19.0,-141.0,161.0,-982.0,103.0
36.0,-259.0,39.0,-188.0,-23.0,-131.0,162.0,-987.0,101.0
36.0,-260.0,40.0,-182.0,-24.0,-125.0,168.0,-991.0,105.0
34.0,-262.0,40.0,-171.0,-28.0,-118.0,167.0,-984.0,106.0
37.0,-260.0,42.0,-158.0,-29.0,-110.0,173.0,-992.0,107.0
38.0,-262.0,45.0,-143.0,-31.0,-105.0,174.0,-984.0,108.0
43.0,-262.0,38.0,-125.0,-34.0,-100.0,180.0,-989.0,104.0
40.0,-259.0,36.0,-108.0,-36.0,-97.0,185.0,-988.0,104.0
40.0,-259.0,40.0,-93.0,-36.0,-99.0,191.0,-995.0,99.0
42.0,-262.0,40.0,-82.0,-34.0,-101.0,191.0,-991.0,95.0
42.0,-260.0,38.0,-77.0,-32.0,-105.0,194.0,-993.0,95.0
42.0,-257.0,35.0,-75.0,-27.0,-109.0,199.0,-988.0,87.0
45.0,-261.0,38.0,-76.0,-22.0,-115.0,195.0,-1003.0,87.0
44.0,-261.0,34.0,-80.0,-16.0,-117.0,201.0,-988.0,83.0
47.0,-263.0,35.0,-85.0,-11.0,-119.0,203.0,-995.0,79.0
44.0,-260.0,34.0,-90.0,-8.0,-119.0,208.0,-991.0,78.0
46.0,-263.0,34.0,-94.0,-2.0,-117.0,210.0,-996.0,81.0
47.0,-262.0,34.0,-99.0,2.0,-113.0,208.0,-995.0,73.0
48.0,-263.0,31.0,-104.0,2.0,-109.0,211.0,-999.0,77.0
50.0,-261.0,28.0,-108.0,1.0,-105.0,215.0,-993.0,76.0
48.0,-261.0,35.0,-109.0,4.0,-100.0,218.0,-995.0,76.0
49.0,-262.0,33.0,-107.0,4.0,-98.0,222.0,-994.0,76.0
47.0,-260.0,35.0,-104.0,5.0,-97.0,219.0,-990.0,78.0
50.0,-261.0,35.0,-95.0,7.0,-92.0,227.0,-995.0,82.0
49.0,-261.0,36.0,-84.0,12.0,-88.0,226.0,-991.0,85.0
54.0,-261.0,36.0,-68.0,6.0,-90.0,233.0,-998.0,82.0
53.0,-261.0,36.0,-53.0,-1.0,-90.0,235.0,-997.0,80.0
55.0,-260.0,36.0,-41.0,-4.0,-91.0,241.0,-993.0,83.0
57.0,-262.0,34.0,-27.0,-8.0,-92.0,240.0,-986.0,82.0
56.0,-263.0,35.0,-15.0,-16.0,-97.0,250.0,-991.0,79.0
56.0,-263.0,35.0,-3.0,-28.0,-101.0,244.0,-993.0,73.0
56.0,-260.0,32.0,2.0,-39.0,-108.0,250.0,-993.0,73.0
57.0,-261.0,33.0,7.0,-52.0,-115.0,248.0,-988.0,76.0
55.0,-259.0,30.0,8.0,-61.0,-121.0,253.0,-990.0,71.0
56.0,-261.0,32.0,2.0,-67.0,-127.0,244.0,-983.0,70.0
60.0,-255.0,30.0,-8.0,-70.0,-133.0,247.0,-982.0,64.0
59.0,-258.0,28.0,-20.0,-72.0,-137.0,248.0,-979.0,71.0
58.0,-261.0,32.0,-32.0,-72.0,-143.0,247.0,-980.0,67.0
57.0,-258.0,29.0,-39.0,-69.0,-148.0,249.0,-982.0,64.0
56.0,-257.0,32.0,-40.0,-69.0,-153.0,248.0,-978.0,71.0
58.0,-260.0,30.0,-37.0,-66.0,-158.0,254.0,-978.0,60.0
60.0,-259.0,31.0,-34.0,-62.0,-160.0,262.0,-980.0,63.0
60.0,-260.0,28.0,-25.0,-57.0,-161.0,260.0,-976.0,68.0
60.0,-260.0,29.0,-10.0,-54.0,-163.0,259.0,-982.0,68.0
62.0,-261.0,30.0,12.0,-53.0,-163.0,261.0,-988.0,69.0
60.0,-262.0,32.0,35.0,-56.0,-162.0,263.0,-991.0,65.0
61.0,-262.0,31.0,57.0,-58.0,-158.0,261.0,-994.0,65.0
58.0,-264.0,29.0,73.0,-67.0,-160.0,259.0,-997.0,63.0
61.0,-265.0,25.0,80.0,-77.0,-164.0,251.0,-991.0,55.0
59.0,-261.0,27.0,77.0,-89.0,-165.0,256.0,-998.0,49.0
57.0,-264.0,28.0,69.0,-105.0,-167.0,248.0,-997.0,45.0
56.0,-263.0,29.0,55.0,-120.0,-171.0,240.0,-997.0,46.0
54.0,-265.0,26.0,40.0,-132.0,-173.0,239.0,-998.0,45.0
53.0,-262.0,24.0,26.0,-143.0,-177.0,226.0,-987.0,45.0
52.0,-263.0,24.0,10.0,-157.0,-186.0,232.0,-986.0,40.0
54.0,-261.0,23.0,-3.0,-167.0,-196.0,228.0,-988.0,37.0
52.0,-259.0,23.0,-8.0,-175.0,-204.0,231.0,-981.0,37.0
54.0,-262.0,22.0,-8.0,-179.0,-210.0,240.0,-984.0,41.0
57.0,-259.0,24.0,-6.0,-182.0,-213.0,247.0,-988.0,42.0
62.0,-263.0,28.0,-5.0,-182.0,-213.0,253.0,-987.0,39.0
57.0,-260.0,22.0,-4.0,-181.0,-213.0,256.0,-989.0,39.0
58.0,-262.0,21.0,-7.0,-182.0,-213.0,260.0,-993.0,42.0
61.0,-262.0,25.0,-13.0,-178.0,-213.0,265.0,-997.0,37.0
62.0,-266.0,23.0,-22.0,-170.0,-211.0,269.0,-1001.0,39.0
62.0,-267.0,27.0,-24.0,-152.0,-204.0,266.0,-998.0,39.0
59.0,-266.0,26.0,-33.0,-147.0,-214.0,255.0,-984.0,40.0
57.0,-260.0,24.0,-43.0,-145.0,-223.0,256.0,-987.0,44.0
60.0,-261.0,26.0,-53.0,-141.0,-227.0,255.0,-982.0,48.0
57.0,-256.0,25.0,-59.0,-133.0,-227.0,253.0,-972.0,53.0
58.0,-255.0,28.0,-63.0,-125.0,-228.0,240.0,-965.0,59.0
55.0,-252.0,27.0,-69.0,-123.0,-227.0,240.0,-961.0,56.0
52.0,-255.0,31.0,-77.0,-119.0,-219.0,229.0,-959.0,57.0
51.0,-254.0,25.0,-90.0,-121.0,-217.0,223.0,-961.0,58.0
51.0,-258.0,30.0,-110.0,-123.0,-218.0,220.0,-970.0,57.0
48.0,-257.0,28.0,-132.0,-127.0,-215.0,214.0,-974.0,76.0
46.0,-260.0,35.0,-154.0,-128.0,-212.0,216.0,-981.0,79.0
43.0,-258.0,35.0,-179.0,-136.0,-221.0,208.0,-978.0,82.0
46.0,-258.0,33.0,-198.0,-145.0,-233.0,206.0,-974.0,86.0
47.0,-256.0,36.0,-220.0,-152.0,-243.0,204.0,-976.0,84.0
46.0,-257.0,40.0,-236.0,-156.0,-245.0,199.0,-969.0,93.0
47.0,-259.0,34.0,-243.0,-153.0,-242.0,202.0,-973.0,92.0
41.0,-259.0,39.0,-244.0,-146.0,-237.0,191.0,-969.0,98.0
45.0,-255.0,36.0,-248.0,-143.0,-238.0,195.0,-964.0,98.0
39.0,-255.0,43.0,-253.0,-141.0,-238.0,178.0,-969.0,111.0
39.0,-256.0,44.0,-263.0,-153.0,-242.0,180.0,-967.0,107.0
38.0,-252.0,41.0,-270.0,-163.0,-244.0,187.0,-971.0,109.0
41.0,-256.0,41.0,-273.0,-167.0,-242.0,176.0,-962.0,110.0
39.0,-255.0,40.0,-280.0,-172.0,-239.0,181.0,-966.0,105.0
39.0,-256.0,39.0,-288.0,-177.0,-234.0,178.0,-972.0,110.0
37.0,-258.0,39.0,-294.0,-180.0,-228.0,181.0,-977.0,106.0
37.0,-259.0,42.0,-295.0,-181.0,-222.0,177.0,-983.0,109.0
37.0,-258.0,41.0,-299.0,-193.0,-224.0,173.0,-986.0,111.0
37.0,-260.0,43.0,-304.0,-212.0,-227.0,170.0,-990.0,109.0
36.0,-262.0,38.0,-310.0,-232.0,-232.0,172.0,-993.0,105.0
36.0,-263.0,42.0,-316.0,-246.0,-233.0,167.0,-992.0,104.0
37.0,-260.0,38.0,-321.0,-259.0,-234.0,172.0,-999.0,101.0
37.0,-261.0,36.0,-327.0,-266.0,-234.0,176.0,-992.0,94.0
39.0,-260.0,36.0,-339.0,-275.0,-237.0,168.0,-999.0,91.0
36.0,-263.0,35.0,-351.0,-280.0,-241.0,169.0,-991.0,82.0
36.0,-262.0,38.0,-364.0,-290.0,-254.0,172.0,-991.0,88.0
37.0,-260.0,36.0,-375.0,-304.0,-260.0,170.0,-995.0,85.0
36.0,-263.0,36.0,-383.0,-319.0,-270.0,172.0,-1008.0,85.0
38.0,-261.0,34.0,-391.0,-337.0,-280.0,172.0,-1001.0,82.0
38.0,-264.0,32.0,-395.0,-355.0,-285.0,179.0,-1001.0,79.0
41.0,-264.0,31.0,-399.0,-370.0,-295.0,188.0,-1001.0,78.0
40.0,-260.0,34.0,-402.0,-380.0,-295.0,193.0,-998.0,76.0
45.0,-266.0,30.0,-404.0,-384.0,-298.0,190.0,-996.0,73.0
46.0,-260.0,30.0,-409.0,-392.0,-307.0,203.0,-993.0,74.0
47.0,-261.0,30.0,-414.0,-399.0,-316.0,207.0,-997.0,66.0
47.0,-260.0,27.0,-417.0,-399.0,-324.0,212.0,-996.0,58.0
49.0,-263.0,31.0,-416.0,-401.0,-336.0,220.0,-996.0,60.0
49.0,-263.0,28.0,-417.0,-415.0,-354.0,227.0,-997.0,60.0
58.0,-266.0,21.0,-415.0,-423.0,-364.0,246.0,-987.0,48.0
55.0,-263.0,24.0,-408.0,-417.0,-362.0,230.0,-993.0,37.0
50.0,-264.0,24.0,-409.0,-419.0,-370.0,237.0,-997.0,35.0
55.0,-259.0,18.0,-413.0,-423.0,-375.0,243.0,-987.0,26.0
53.0,-262.0,24.0,-421.0,-426.0,-381.0,236.0,-988.0,26.0
52.0,-264.0,18.0,-431.0,-441.0,-396.0,238.0,-997.0,17.0
58.0,-264.0,16.0,-446.0,-457.0,-414.0,241.0,-992.0,8.0
60.0,-261.0,8.0,-454.0,-465.0,-424.0,258.0,-986.0,-7.0
59.0,-260.0,10.0,-457.0,-457.0,-430.0,256.0,-987.0,-16.0
60.0,-261.0,9.0,-465.0,-457.0,-448.0,255.0,-989.0,-10.0
61.0,-259.0,11.0,-464.0,-463.0,-465.0,267.0,-976.0,-15.0
63.0,-259.0,9.0,-456.0,-467.0,-479.0,271.0,-964.0,-23.0
60.0,-257.0,7.0,-440.0,-458.0,-476.0,265.0,-968.0,-18.0
63.0,-256.0,9.0,-425.0,-457.0,-471.0,272.0,-957.0,-19.0
62.0,-255.0,9.0,-425.0,-465.0,-471.0,278.0,-952.0,-25.0
61.0,-254.0,5.0,-426.0,-469.0,-476.0,272.0,-950.0,-20.0
65.0,-255.0,7.0,-437.0,-485.0,-492.0,278.0,-948.0,-29.0
67.0,-253.0,1.0,-450.0,-499.0,-500.0,286.0,-950.0,-48.0
70.0,-254.0,-3.0,-466.0,-499.0,-499.0,286.0,-955.0,-53.0
66.0,-256.0,0.0,-491.0,-501.0,-504.0,289.0,-968.0,-59.0
67.0,-257.0,1.0,-513.0,-517.0,-521.0,287.0,-966.0,-68.0
70.0,-256.0,-8.0,-527.0,-530.0,-532.0,302.0,-956.0,-90.0
72.0,-253.0,-9.0,-536.0,-526.0,-524.0,302.0,-960.0,-98.0
63.0,-257.0,-9.0,-556.0,-538.0,-525.0,278.0,-974.0,-86.0
65.0,-260.0,-7.0,-571.0,-563.0,-558.0,275.0,-973.0,-90.0
71.0,-256.0,-10.0,-582.0,-583.0,-584.0,299.0,-961.0,-108.0
68.0,-254.0,-12.0,-587.0,-589.0,-597.0,298.0,-962.0,-96.0
70.0,-253.0,-9.0,-588.0,-584.0,-597.0,300.0,-957.0,-106.0
73.0,-254.0,-10.0,-598.0,-573.0,-567.0,321.0,-947.0,-118.0
70.0,-260.0,-13.0,-595.0,-557.0,-574.0,291.0,-969.0,-113.0
64.0,-261.0,-13.0,-585.0,-549.0,-609.0,284.0,-983.0,-123.0
68.0,-264.0,-19.0,-572.0,-543.0,-635.0,289.0,-990.0,-132.0
74.0,-260.0,-22.0,-554.0,-538.0,-639.0,325.0,-973.0,-146.0
63.0,-263.0,-29.0,-543.0,-527.0,-609.0,276.0,-993.0,-165.0
63.0,-265.0,-22.0,-537.0,-528.0,-644.0,273.0,-1006.0,-159.0
70.0,-264.0,-28.0,-537.0,-541.0,-692.0,312.0,-1008.0,-179.0
74.0,-259.0,-30.0,-538.0,-550.0,-721.0,308.0,-972.0,-191.0
75.0,-255.0,-30.0,-535.0,-554.0,-733.0,317.0,-955.0,-187.0
76.0,-256.0,-34.0,-533.0,-551.0,-742.0,319.0,-957.0,-202.0
79.0,-256.0,-31.0,-543.0,-556.0,-756.0,330.0,-951.0,-204.0
85.0,-249.0,-32.0,-557.0,-555.0,-778.0,348.0,-935.0,-203.0
91.0,-245.0,-34.0,-566.0,-558.0,-784.0,378.0,-919.0,-188.0
89.0,-244.0,-31.0,-573.0,-566.0,-744.0,382.0,-907.0,-202.0
82.0,-249.0,-36.0,-579.0,-561.0,-735.0,344.0,-936.0,-203.0
90.0,-252.0,-36.0,-576.0,-562.0,-775.0,364.0,-932.0,-205.0
94.0,-248.0,-34.0,-562.0,-561.0,-802.0,382.0,-931.0,-202.0
97.0,-247.0,-40.0,-556.0,-568.0,-821.0,397.0,-928.0,-233.0
104.0,-247.0,-47.0,-554.0,-568.0,-838.0,409.0,-912.0,-247.0
105.0,-241.0,-48.0,-551.0,-561.0,-848.0,422.0,-907.0,-254.0
106.0,-241.0,-45.0,-541.0,-548.0,-858.0,439.0,-912.0,-260.0
108.0,-234.0,-52.0,-542.0,-543.0,-873.0,438.0,-886.0,-266.0
112.0,-235.0,-53.0,-549.0,-534.0,-881.0,443.0,-890.0,-268.0
115.0,-237.0,-47.0,-561.0,-529.0,-890.0,452.0,-888.0,-257.0
116.0,-238.0,-46.0,-570.0,-519.0,-899.0,460.0,-893.0,-266.0
121.0,-236.0,-52.0,-579.0,-505.0,-912.0,476.0,-888.0,-267.0
119.0,-230.0,-50.0,-592.0,-492.0,-931.0,468.0,-868.0,-265.0
121.0,-232.0,-53.0,-601.0,-477.0,-947.0,493.0,-874.0,-272.0
125.0,-232.0,-48.0,-608.0,-458.0,-962.0,500.0,-870.0,-272.0
124.0,-233.0,-53.0,-611.0,-443.0,-976.0,500.0,-868.0,-274.0
124.0,-231.0,-55.0,-611.0,-424.0,-993.0,503.0,-868.0,-281.0
121.0,-225.0,-50.0,-608.0,-401.0,-1016.0,503.0,-871.0,-280.0
125.0,-232.0,-44.0,-603.0,-380.0,-1037.0,504.0,-854.0,-276.0
127.0,-226.0,-55.0,-592.0,-357.0,-1052.0,512.0,-846.0,-283.0
136.0,-210.0,-55.0,-577.0,-336.0,-1067.0,515.0,-831.0,-287.0
130.0,-224.0,-62.0,-562.0,-319.0,-1079.0,520.0,-830.0,-302.0
124.0,-211.0,-57.0,-555.0,-304.0,-1095.0,505.0,-807.0,-301.0
127.0,-222.0,-60.0,-545.0,-296.0,-1099.0,516.0,-800.0,-309.0
130.0,-220.0,-58.0,-540.0,-288.0,-1103.0,517.0,-796.0,-312.0
127.0,-205.0,-56.0,-541.0,-279.0,-1099.0,524.0,-792.0,-299.0
130.0,-212.0,-55.0,-547.0,-275.0,-1085.0,532.0,-777.0,-287.0
131.0,-211.0,-63.0,-551.0,-274.0,-1090.0,512.0,-802.0,-317.0
131.0,-208.0,-58.0,-561.0,-259.0,-1113.0,529.0,-785.0,-312.0
130.0,-205.0,-62.0,-566.0,-247.0,-1128.0,528.0,-782.0,-315.0
134.0,-208.0,-64.0,-576.0,-243.0,-1142.0,536.0,-772.0,-317.0
133.0,-208.0,-64.0,-590.0,-241.0,-1150.0,532.0,-773.0,-326.0
135.0,-205.0,-65.0,-611.0,-241.0,-1160.0,538.0,-764.0,-343.0
137.0,-206.0,-66.0,-633.0,-239.0,-1164.0,552.0,-766.0,-356.0
136.0,-203.0,-71.0,-659.0,-236.0,-1174.0,554.0,-762.0,-357.0
136.0,-198.0,-71.0,-686.0,-238.0,-1182.0,549.0,-747.0,-367.0
139.0,-197.0,-74.0,-713.0,-248.0,-1190.0,544.0,-729.0,-374.0
136.0,-191.0,-77.0,-747.0,-254.0,-1196.0,537.0,-717.0,-385.0
138.0,-184.0,-74.0,-795.0,-256.0,-1190.0,590.0,-717.0,-396.0
132.0,-188.0,-88.0,-848.0,-264.0,-1181.0,528.0,-694.0,-404.0
139.0,-184.0,-87.0,-882.0,-260.0,-1204.0,545.0,-684.0,-426.0
141.0,-180.0,-88.0,-915.0,-253.0,-1222.0,557.0,-665.0,-426.0
142.0,-170.0,-89.0,-953.0,-254.0,-1233.0,567.0,-631.0,-432.0
139.0,-170.0,-91.0,-997.0,-259.0,-1239.0,556.0,-633.0,-446.0
136.0,-167.0,-93.0,-1041.0,-271.0,-1245.0,553.0,-625.0,-448.0
139.0,-163.0,-95.0,-1087.0,-286.0,-1252.0,553.0,-596.0,-456.0
140.0,-162.0,-99.0,-1120.0,-302.0,-1246.0,563.0,-590.0,-477.0
141.0,-161.0,-104.0,-1149.0,-314.0,-1238.0,571.0,-584.0,-493.0
144.0,-155.0,-112.0,-1174.0,-324.0,-1230.0,591.0,-573.0,-508.0
139.0,-155.0,-110.0,-1224.0,-337.0,-1182.0,578.0,-560.0,-502.0
141.0,-163.0,-116.0,-1254.0,-343.0,-1175.0,569.0,-583.0,-531.0
151.0,-154.0,-111.0,-1260.0,-327.0,-1200.0,596.0,-559.0,-528.0
158.0,-153.0,-114.0,-1264.0,-306.0,-1213.0,610.0,-545.0,-535.0
161.0,-151.0,-113.0,-1258.0,-276.0,-1201.0,634.0,-550.0,-540.0
163.0,-156.0,-116.0,-1251.0,-243.0,-1181.0,650.0,-553.0,-541.0
170.0,-156.0,-116.0,-1238.0,-205.0,-1160.0,664.0,-557.0,-541.0
173.0,-158.0,-115.0,-1216.0,-165.0,-1140.0,676.0,-553.0,-539.0
173.0,-158.0,-114.0,-1187.0,-121.0,-1115.0,679.0,-566.0,-546.0
172.0,-159.0,-116.0,-1149.0,-71.0,-1088.0,684.0,-560.0,-534.0
173.0,-159.0,-116.0,-1106.0,-22.0,-1062.0,680.0,-565.0,-530.0
171.0,-156.0,-115.0,-1059.0,29.0,-1034.0,673.0,-563.0,-531.0
168.0,-156.0,-110.0,-1015.0,88.0,-1008.0,665.0,-562.0,-540.0
169.0,-160.0,-115.0,-981.0,148.0,-977.0,653.0,-565.0,-540.0
163.0,-156.0,-121.0,-957.0,206.0,-949.0,644.0,-562.0,-553.0
161.0,-155.0,-121.0,-933.0,268.0,-922.0,642.0,-548.0,-566.0
167.0,-151.0,-121.0,-909.0,329.0,-894.0,655.0,-542.0,-572.0
169.0,-147.0,-123.0,-883.0,386.0,-863.0,670.0,-537.0,-573.0
169.0,-144.0,-127.0,-851.0,438.0,-835.0,679.0,-516.0,-572.0
174.0,-141.0,-122.0,-813.0,487.0,-802.0,691.0,-503.0,-566.0
177.0,-137.0,-121.0,-777.0,527.0,-766.0,701.0,-488.0,-561.0
176.0,-135.0,-121.0,-741.0,560.0,-732.0,707.0,-479.0,-555.0
178.0,-132.0,-118.0,-709.0,585.0,-703.0,708.0,-466.0,-547.0
181.0,-127.0,-119.0,-679.0,609.0,-680.0,714.0,-454.0,-550.0
182.0,-131.0,-117.0,-658.0,627.0,-659.0,712.0,-451.0,-548.0
183.0,-130.0,-119.0,-638.0,639.0,-648.0,715.0,-446.0,-542.0
179.0,-125.0,-119.0,-623.0,652.0,-638.0,713.0,-445.0,-544.0
177.0,-128.0,-109.0,-614.0,661.0,-631.0,713.0,-453.0,-527.0
176.0,-126.0,-116.0,-613.0,659.0,-628.0,694.0,-448.0,-547.0
174.0,-126.0,-113.0,-604.0,664.0,-625.0,691.0,-444.0,-544.0
169.0,-124.0,-119.0,-587.0,669.0,-622.0,677.0,-438.0,-542.0
174.0,-126.0,-122.0,-568.0,674.0,-618.0,676.0,-438.0,-558.0
168.0,-126.0,-120.0,-554.0,678.0,-612.0,673.0,-440.0,-559.0
167.0,-125.0,-119.0,-539.0,682.0,-607.0,667.0,-439.0,-560.0
169.0,-126.0,-122.0,-526.0,683.0,-600.0,679.0,-447.0,-564.0
174.0,-126.0,-121.0,-513.0,690.0,-595.0,688.0,-448.0,-559.0
180.0,-128.0,-117.0,-498.0,703.0,-593.0,701.0,-442.0,-553.0
180.0,-124.0,-117.0,-479.0,717.0,-593.0,715.0,-431.0,-544.0
186.0,-125.0,-114.0,-459.0,729.0,-593.0,730.0,-431.0,-537.0
187.0,-122.0,-115.0,-439.0,740.0,-593.0,739.0,-422.0,-525.0
188.0,-115.0,-110.0,-424.0,749.0,-590.0,747.0,-409.0,-522.0
190.0,-118.0,-107.0,-408.0,759.0,-586.0,756.0,-398.0,-515.0
192.0,-117.0,-109.0,-395.0,776.0,-578.0,759.0,-392.0,-515.0
193.0,-111.0,-113.0,-379.0,791.0,-569.0,774.0,-386.0,-512.0
195.0,-111.0,-113.0,-359.0,803.0,-558.0,781.0,-389.0,-511.0
201.0,-113.0,-110.0,-335.0,814.0,-546.0,793.0,-385.0,-518.0
199.0,-108.0,-108.0,-311.0,823.0,-530.0,801.0,-375.0,-519.0
206.0,-106.0,-108.0,-287.0,834.0,-510.0,813.0,-370.0,-510.0
207.0,-105.0,-104.0,-263.0,847.0,-493.0,820.0,-363.0,-504.0
209.0,-105.0,-105.0,-237.0,860.0,-470.0,833.0,-364.0,-495.0
209.0,-106.0,-101.0,-215.0,873.0,-449.0,833.0,-359.0,-488.0
209.0,-102.0,-101.0,-192.0,891.0,-429.0,841.0,-353.0,-478.0
213.0,-104.0,-100.0,-169.0,900.0,-409.0,848.0,-350.0,-479.0
214.0,-106.0,-95.0,-149.0,907.0,-394.0,855.0,-347.0,-471.0
213.0,-99.0,-102.0,-129.0,917.0,-379.0,858.0,-349.0,-476.0
218.0,-102.0,-96.0,-118.0,925.0,-371.0,863.0,-345.0,-456.0
220.0,-102.0,-97.0,-109.0,933.0,-366.0,876.0,-339.0,-454.0
219.0,-103.0,-90.0,-104.0,944.0,-362.0,870.0,-346.0,-452.0
223.0,-101.0,-91.0,-94.0,952.0,-365.0,876.0,-346.0,-447.0
223.0,-103.0,-92.0,-84.0,958.0,-368.0,882.0,-344.0,-436.0
221.0,-100.0,-87.0,-70.0,960.0,-374.0,886.0,-343.0,-424.0
219.0,-99.0,-89.0,-58.0,959.0,-380.0,878.0,-330.0,-421.0
219.0,-98.0,-81.0,-48.0,958.0,-389.0,878.0,-339.0,-400.0
220.0,-99.0,-80.0,-40.0,952.0,-405.0,875.0,-337.0,-400.0
220.0,-99.0,-83.0,-35.0,946.0,-417.0,873.0,-340.0,-395.0
222.0,-99.0,-80.0,-26.0,939.0,-429.0,884.0,-335.0,-393.0
219.0,-97.0,-82.0,-16.0,939.0,-434.0,864.0,-326.0,-397.0
216.0,-95.0,-77.0,-13.0,943.0,-445.0,866.0,-321.0,-388.0
220.0,-92.0,-76.0,-10.0,940.0,-463.0,873.0,-323.0,-383.0
220.0,-93.0,-74.0,-6.0,936.0,-479.0,880.0,-311.0,-380.0
225.0,-90.0,-75.0,-4.0,929.0,-491.0,885.0,-307.0,-376.0
226.0,-90.0,-74.0,-1.0,928.0,-495.0,891.0,-311.0,-373.0
226.0,-90.0,-71.0,-2.0,925.0,-507.0,903.0,-311.0,-357.0
231.0,-92.0,-67.0,-4.0,919.0,-522.0,909.0,-302.0,-353.0
229.0,-89.0,-66.0,-7.0,916.0,-532.0,904.0,-304.0,-342.0
230.0,-89.0,-62.0,-12.0,915.0,-540.0,912.0,-307.0,-327.0
229.0,-83.0,-62.0,-18.0,906.0,-551.0,914.0,-300.0,-322.0
233.0,-86.0,-61.0,-21.0,904.0,-555.0,929.0,-290.0,-321.0
228.0,-87.0,-64.0,-16.0,907.0,-549.0,912.0,-302.0,-322.0
234.0,-90.0,-62.0,-15.0,901.0,-560.0,919.0,-305.0,-316.0
231.0,-91.0,-64.0,-8.0,898.0,-568.0,920.0,-306.0,-322.0
235.0,-90.0,-65.0,3.0,899.0,-573.0,932.0,-307.0,-327.0
232.0,-90.0,-61.0,20.0,903.0,-572.0,925.0,-305.0,-303.0
230.0,-93.0,-56.0,38.0,902.0,-578.0,915.0,-304.0,-293.0
229.0,-87.0,-55.0,48.0,893.0,-584.0,914.0,-302.0,-284.0
230.0,-91.0,-53.0,60.0,883.0,-590.0,918.0,-310.0,-280.0
234.0,-92.0,-49.0,74.0,874.0,-597.0,920.0,-305.0,-277.0
230.0,-87.0,-53.0,84.0,864.0,-607.0,923.0,-306.0,-273.0
233.0,-85.0,-49.0,91.0,857.0,-613.0,920.0,-297.0,-271.0
230.0,-88.0,-50.0,99.0,856.0,-614.0,918.0,-296.0,-271.0
227.0,-83.0,-47.0,107.0,858.0,-616.0,914.0,-287.0,-260.0
226.0,-84.0,-46.0,114.0,855.0,-620.0,905.0,-266.0,-257.0
226.0,-76.0,-45.0,122.0,851.0,-619.0,910.0,-256.0,-251.0
232.0,-78.0,-43.0,135.0,849.0,-605.0,915.0,-253.0,-247.0
229.0,-77.0,-43.0,154.0,847.0,-588.0,911.0,-259.0,-244.0
234.0,-79.0,-37.0,174.0,844.0,-567.0,917.0,-263.0,-235.0
236.0,-76.0,-40.0,191.0,840.0,-551.0,926.0,-260.0,-228.0
234.0,-78.0,-36.0,206.0,837.0,-537.0,935.0,-257.0,-213.0
240.0,-80.0,-33.0,223.0,836.0,-523.0,941.0,-255.0,-207.0
238.0,-82.0,-33.0,234.0,840.0,-512.0,955.0,-270.0,-199.0
241.0,-79.0,-27.0,241.0,838.0,-515.0,959.0,-274.0,-190.0
242.0,-84.0,-31.0,239.0,832.0,-525.0,971.0,-280.0,-181.0
246.0,-82.0,-32.0,235.0,826.0,-543.0,978.0,-284.0,-193.0
249.0,-83.0,-33.0,233.0,829.0,-560.0,989.0,-275.0,-193.0
250.0,-81.0,-30.0,236.0,841.0,-576.0,1001.0,-270.0,-186.0
254.0,-80.0,-30.0,243.0,859.0,-589.0,1000.0,-264.0,-183.0
250.0,-78.0,-29.0,248.0,871.0,-611.0,996.0,-254.0,-171.0
252.0,-74.0,-26.0,257.0,877.0,-637.0,992.0,-245.0,-176.0
253.0,-71.0,-27.0,263.0,883.0,-654.0,999.0,-234.0,-183.0
250.0,-68.0,-29.0,268.0,890.0,-663.0,995.0,-222.0,-183.0
248.0,-65.0,-27.0,273.0,901.0,-667.0,985.0,-214.0,-178.0
246.0,-66.0,-26.0,271.0,912.0,-670.0,983.0,-209.0,-164.0
244.0,-65.0,-22.0,266.0,914.0,-672.0,984.0,-212.0,-156.0
244.0,-68.0,-21.0,259.0,904.0,-678.0,984.0,-219.0,-151.0
247.0,-65.0,-14.0,256.0,892.0,-684.0,983.0,-215.0,-149.0
243.0,-67.0,-20.0,254.0,883.0,-688.0,976.0,-213.0,-150.0
242.0,-66.0,-19.0,253.0,876.0,-693.0,973.0,-217.0,-144.0
242.0,-63.0,-20.0,247.0,871.0,-696.0,965.0,-207.0,-146.0
243.0,-66.0,-17.0,239.0,859.0,-698.0,964.0,-201.0,-142.0
241.0,-64.0,-22.0,233.0,848.0,-698.0,957.0,-200.0,-140.0
238.0,-60.0,-13.0,229.0,837.0,-694.0,954.0,-194.0,-139.0
243.0,-59.0,-17.0,227.0,834.0,-686.0,959.0,-184.0,-130.0
242.0,-55.0,-9.0,227.0,830.0,-679.0,963.0,-177.0,-110.0
249.0,-60.0,0.0,229.0,826.0,-677.0,987.0,-175.0,-89.0
251.0,-61.0,0.0,228.0,825.0,-675.0,992.0,-177.0,-71.0
253.0,-56.0,1.0,225.0,823.0,-673.0,1009.0,-179.0,-52.0
256.0,-59.0,6.0,224.0,818.0,-674.0,1019.0,-179.0,-37.0
257.0,-58.0,5.0,218.0,814.0,-680.0,1028.0,-180.0,-33.0
259.0,-58.0,10.0,217.0,810.0,-688.0,1025.0,-172.0,-29.0
258.0,-52.0,6.0,216.0,804.0,-700.0,1019.0,-160.0,-33.0
255.0,-56.0,9.0,210.0,802.0,-710.0,1016.0,-154.0,-32.0
252.0,-48.0,7.0,207.0,792.0,-722.0,1016.0,-147.0,-36.0
253.0,-43.0,4.0,204.0,781.0,-734.0,1004.0,-129.0,-43.0
252.0,-37.0,3.0,200.0,776.0,-737.0,1007.0,-104.0,-47.0
253.0,-35.0,6.0,193.0,773.0,-737.0,997.0,-91.0,-45.0
249.0,-30.0,4.0,186.0,773.0,-733.0,998.0,-68.0,-45.0
253.0,-30.0,4.0,183.0,773.0,-722.0,999.0,-63.0,-48.0
253.0,-27.0,3.0,187.0,772.0,-710.0,1000.0,-59.0,-43.0
254.0,-26.0,2.0,196.0,768.0,-693.0,1012.0,-62.0,-51.0
257.0,-24.0,0.0,209.0,763.0,-671.0,1020.0,-56.0,-64.0
260.0,-26.0,-2.0,221.0,752.0,-658.0,1026.0,-44.0,-78.0
264.0,-20.0,-1.0,230.0,734.0,-650.0,1043.0,-40.0,-87.0
260.0,-18.0,-4.0,230.0,715.0,-641.0,1043.0,-33.0,-88.0
265.0,-17.0,-2.0,216.0,697.0,-637.0,1055.0,-28.0,-83.0
266.0,-17.0,-5.0,192.0,676.0,-637.0,1067.0,-29.0,-77.0
267.0,-19.0,-3.0,162.0,654.0,-640.0,1063.0,-31.0,-71.0
266.0,-20.0,1.0,130.0,629.0,-647.0,1062.0,-43.0,-68.0
269.0,-19.0,1.0,93.0,597.0,-658.0,1066.0,-42.0,-70.0
268.0,-24.0,0.0,53.0,561.0,-672.0,1056.0,-37.0,-75.0
261.0,-19.0,-1.0,13.0,525.0,-685.0,1052.0,-40.0,-69.0
260.0,-19.0,-1.0,-26.0,493.0,-694.0,1047.0,-27.0,-64.0
256.0,-16.0,2.0,-59.0,462.0,-697.0,1036.0,-21.0,-66.0
259.0,-19.0,2.0,-86.0,434.0,-688.0,1032.0,-25.0,-58.0
258.0,-19.0,1.0,-109.0,408.0,-675.0,1030.0,-34.0,-52.0
260.0,-23.0,3.0,-128.0,384.0,-652.0,1030.0,-38.0,-47.0
258.0,-24.0,4.0,-142.0,363.0,-626.0,1036.0,-50.0,-45.0
260.0,-28.0,6.0,-150.0,346.0,-591.0,1036.0,-52.0,-40.0
260.0,-30.0,8.0,-155.0,335.0,-555.0,1030.0,-67.0,-32.0
260.0,-31.0,5.0,-157.0,333.0,-516.0,1031.0,-72.0,-28.0
259.0,-35.0,10.0,-152.0,340.0,-478.0,1030.0,-84.0,-16.0
256.0,-36.0,14.0,-131.0,353.0,-439.0,1017.0,-87.0,-5.0
256.0,-37.0,19.0,-102.0,373.0,-401.0,1016.0,-94.0,12.0
257.0,-39.0,24.0,-63.0,394.0,-367.0,1012.0,-95.0,32.0
250.0,-31.0,30.0,-20.0,416.0,-339.0,996.0,-71.0,60.0
249.0,-35.0,39.0,30.0,440.0,-311.0,991.0,-89.0,77.0
250.0,-32.0,44.0,76.0,454.0,-292.0,986.0,-79.0,100.0
242.0,-28.0,50.0,125.0,461.0,-277.0,977.0,-61.0,120.0
241.0,-27.0,53.0,171.0,464.0,-264.0,972.0,-48.0,137.0
243.0,-22.0,55.0,208.0,452.0,-252.0,967.0,-38.0,149.0
243.0,-17.0,58.0,234.0,435.0,-241.0,974.0,-19.0,162.0
244.0,-13.0,62.0,248.0,414.0,-227.0,977.0,2.0,169.0
244.0,-8.0,60.0,253.0,393.0,-214.0,966.0,6.0,173.0
239.0,-2.0,65.0,252.0,369.0,-199.0,964.0,31.0,186.0
242.0,0.0,60.0,243.0,342.0,-187.0,965.0,38.0,185.0
240.0,3.0,66.0,230.0,311.0,-175.0,959.0,41.0,194.0
243.0,3.0,66.0,212.0,275.0,-164.0,973.0,54.0,191.0
243.0,3.0,64.0,193.0,243.0,-155.0,964.0,53.0,192.0
241.0,3.0,62.0,174.0,211.0,-149.0,965.0,54.0,195.0
244.0,2.0,65.0,155.0,182.0,-141.0,955.0,59.0,189.0
242.0,1.0,62.0,148.0,154.0,-125.0,965.0,50.0,181.0
242.0,2.0,63.0,142.0,134.0,-122.0,972.0,54.0,186.0
241.0,4.0,61.0,136.0,110.0,-124.0,976.0,63.0,175.0
244.0,4.0,61.0,138.0,90.0,-121.0,977.0,55.0,173.0
248.0,1.0,62.0,138.0,67.0,-122.0,983.0,53.0,159.0
248.0,1.0,53.0,137.0,46.0,-126.0,990.0,53.0,151.0
247.0,4.0,56.0,134.0,27.0,-131.0,993.0,57.0,146.0
248.0,4.0,49.0,129.0,13.0,-136.0,995.0,59.0,132.0
251.0,-2.0,46.0,126.0,4.0,-137.0,996.0,53.0,112.0
248.0,1.0,45.0,123.0,-2.0,-135.0,992.0,41.0,106.0
250.0,0.0,41.0,117.0,-8.0,-130.0,986.0,46.0,101.0
248.0,1.0,39.0,110.0,-18.0,-124.0,987.0,44.0,97.0
243.0,1.0,40.0,106.0,-28.0,-113.0,983.0,42.0,91.0
245.0,-2.0,38.0,104.0,-36.0,-96.0,977.0,35.0,92.0
244.0,-2.0,35.0,103.0,-46.0,-76.0,980.0,38.0,86.0
246.0,-5.0,37.0,108.0,-54.0,-52.0,982.0,28.0,78.0
243.0,-1.0,38.0,117.0,-59.0,-23.0,979.0,27.0,78.0
248.0,-7.0,32.0,125.0,-67.0,2.0,980.0,24.0,80.0
243.0,-5.0,35.0,134.0,-73.0,26.0,980.0,13.0,83.0
245.0,-6.0,37.0,147.0,-78.0,43.0,976.0,18.0,84.0
247.0,-12.0,39.0,164.0,-84.0,60.0,975.0,1.0,97.0
244.0,-12.0,41.0,184.0,-89.0,77.0,968.0,-6.0,102.0
240.0,-10.0,43.0,202.0,-96.0,91.0,950.0,-3.0,110.0
239.0,-13.0,48.0,220.0,-106.0,101.0,949.0,-6.0,118.0
241.0,-11.0,47.0,231.0,-119.0,103.0,952.0,1.0,125.0
242.0,-13.0,45.0,239.0,-137.0,99.0,964.0,-6.0,126.0
239.0,-10.0,47.0,248.0,-159.0,90.0,967.0,-3.0,121.0
246.0,-11.0,47.0,252.0,-182.0,75.0,978.0,0.0,121.0
242.0,-6.0,43.0,254.0,-200.0,60.0,968.0,23.0,112.0
244.0,-4.0,40.0,249.0,-218.0,43.0,976.0,32.0,103.0
252.0,0.0,38.0,241.0,-227.0,26.0,985.0,47.0,91.0
248.0,6.0,33.0,225.0,-231.0,7.0,984.0,72.0,71.0
248.0,11.0,27.0,195.0,-233.0,-9.0,986.0,87.0,52.0
254.0,18.0,23.0,155.0,-234.0,-21.0,991.0,118.0,38.0
254.0,25.0,24.0,112.0,-231.0,-28.0,1001.0,139.0,23.0
252.0,27.0,22.0,76.0,-222.0,-31.0,1007.0,158.0,25.0
258.0,30.0,22.0,50.0,-215.0,-28.0,1007.0,160.0,23.0
257.0,30.0,19.0,31.0,-212.0,-24.0,1010.0,167.0,22.0
259.0,32.0,21.0,21.0,-211.0,-15.0,1018.0,176.0,24.0
258.0,32.0,21.0,11.0,-216.0,-3.0,1027.0,174.0,30.0
259.0,34.0,22.0,5.0,-224.0,10.0,1033.0,170.0,31.0
261.0,29.0,24.0,2.0,-234.0,28.0,1037.0,165.0,34.0
262.0,29.0,25.0,-3.0,-251.0,48.0,1042.0,157.0,35.0
260.0,29.0,26.0,-9.0,-268.0,65.0,1039.0,158.0,46.0
261.0,30.0,27.0,-21.0,-289.0,85.0,1039.0,152.0,41.0
264.0,24.0,23.0,-36.0,-311.0,99.0,1041.0,150.0,37.0
263.0,28.0,22.0,-57.0,-336.0,111.0,1040.0,153.0,22.0
261.0,27.0,17.0,-88.0,-357.0,120.0,1033.0,154.0,15.0
260.0,28.0,17.0,-124.0,-373.0,126.0,1036.0,160.0,5.0
262.0,32.0,14.0,-165.0,-382.0,128.0,1042.0,160.0,-2.0
261.0,23.0,4.0,-201.0,-387.0,132.0,1054.0,156.0,-18.0
270.0,24.0,2.0,-234.0,-386.0,131.0,1075.0,149.0,-44.0
277.0,20.0,-1.0,-259.0,-379.0,124.0,1099.0,122.0,-68.0
282.0,11.0,0.0,-276.0,-364.0,117.0,1114.0,94.0,-68.0
280.0,6.0,0.0,-288.0,-349.0,106.0,1117.0,69.0,-80.0
276.0,0.0,-3.0,-299.0,-335.0,86.0,1094.0,43.0,-76.0
268.0,-8.0,0.0,-308.0,-326.0,64.0,1074.0,20.0,-57.0
262.0,-12.0,3.0,-318.0,-326.0,41.0,1043.0,-2.0,-40.0
255.0,-15.0,8.0,-320.0,-340.0,13.0,1018.0,-16.0,-29.0
253.0,-24.0,13.0,-325.0,-363.0,-9.0,1004.0,-40.0,-17.0
248.0,-25.0,14.0,-327.0,-386.0,-22.0,1000.0,-62.0,-11.0
250.0,-35.0,15.0,-330.0,-410.0,-30.0,990.0,-92.0,-8.0
250.0,-46.0,12.0,-329.0,-432.0,-31.0,996.0,-132.0,-11.0
250.0,-52.0,6.0,-320.0,-449.0,-29.0,995.0,-162.0,-28.0
252.0,-57.0,5.0,-308.0,-469.0,-25.0,1009.0,-176.0,-36.0
257.0,-56.0,4.0,-293.0,-485.0,-27.0,1019.0,-176.0,-43.0
259.0,-57.0,2.0,-285.0,-498.0,-39.0,1030.0,-177.0,-59.0
261.0,-58.0,0.0,-268.0,-507.0,-54.0,1039.0,-173.0,-62.0
265.0,-55.0,-1.0,-231.0,-506.0,-66.0,1046.0,-168.0,-72.0
265.0,-51.0,0.0,-182.0,-493.0,-81.0,1053.0,-151.0,-74.0
266.0,-49.0,-1.0,-127.0,-471.0,-95.0,1052.0,-139.0,-70.0
266.0,-43.0,2.0,-78.0,-438.0,-120.0,1050.0,-123.0,-63.0
262.0,-38.0,-4.0,-39.0,-408.0,-145.0,1038.0,-97.0,-67.0
261.0,-34.0,1.0,-5.0,-383.0,-172.0,1039.0,-79.0,-73.0
261.0,-27.0,-5.0,13.0,-358.0,-202.0,1038.0,-67.0,-87.0
259.0,-23.0,-7.0,17.0,-334.0,-228.0,1027.0,-49.0,-92.0
256.0,-14.0,-11.0,0.0,-318.0,-256.0,1015.0,-21.0,-96.0
250.0,-10.0,-9.0,-32.0,-308.0,-286.0,996.0,0.0,-109.0
246.0,-2.0,-9.0,-69.0,-300.0,-309.0,971.0,27.0,-119.0
243.0,1.0,-15.0,-111.0,-302.0,-326.0,951.0,44.0,-125.0
238.0,3.0,-19.0,-153.0,-305.0,-335.0,953.0,55.0,-137.0
243.0,1.0,-18.0,-197.0,-306.0,-333.0,959.0,61.0,-145.0
241.0,5.0,-21.0,-238.0,-307.0,-331.0,960.0,65.0,-156.0
249.0,9.0,-22.0,-277.0,-304.0,-318.0,975.0,67.0,-158.0
251.0,6.0,-25.0,-308.0,-299.0,-300.0,986.0,64.0,-156.0
253.0,4.0,-23.0,-334.0,-296.0,-279.0,1003.0,58.0,-162.0
258.0,3.0,-24.0,-354.0,-294.0,-255.0,1021.0,57.0,-156.0
257.0,1.0,-23.0,-368.0,-294.0,-233.0,1028.0,55.0,-156.0
262.0,1.0,-28.0,-375.0,-294.0,-209.0,1049.0,47.0,-163.0
267.0,-1.0,-29.0,-369.0,-292.0,-184.0,1058.0,42.0,-180.0
268.0,-2.0,-29.0,-355.0,-288.0,-166.0,1062.0,42.0,-188.0
271.0,-5.0,-33.0,-335.0,-282.0,-150.0,1081.0,37.0,-211.0
272.0,-4.0,-37.0,-310.0,-268.0,-142.0,1079.0,40.0,-222.0
272.0,-1.0,-45.0,-287.0,-251.0,-128.0,1070.0,39.0,-242.0
272.0,0.0,-44.0,-265.0,-232.0,-121.0,1061.0,40.0,-248.0
269.0,0.0,-43.0,-248.0,-214.0,-111.0,1055.0,46.0,-248.0
260.0,0.0,-48.0,-236.0,-196.0,-100.0,1038.0,48.0,-248.0
260.0,-1.0,-44.0,-223.0,-178.0,-85.0,1027.0,40.0,-242.0
259.0,-2.0,-40.0,-208.0,-157.0,-65.0,1024.0,38.0,-222.0
256.0,-4.0,-37.0,-185.0,-134.0,-46.0,1011.0,27.0,-213.0
252.0,-3.0,-27.0,-157.0,-111.0,-21.0,1006.0,23.0,-203.0
255.0,-10.0,-29.0,-121.0,-88.0,3.0,1003.0,18.0,-181.0
252.0,-7.0,-31.0,-81.0,-61.0,25.0,1006.0,11.0,-180.0
254.0,-14.0,-27.0,-41.0,-33.0,45.0,1003.0,0.0,-169.0
255.0,-13.0,-24.0,-5.0,-2.0,63.0,1002.0,-2.0,-157.0
255.0,-13.0,-20.0,25.0,27.0,77.0,1010.0,-5.0,-158.0
256.0,-13.0,-20.0,48.0,53.0,86.0,1006.0,-6.0,-145.0
255.0,-14.0,-21.0,66.0,74.0,92.0,1012.0,-10.0,-145.0
256.0,-12.0,-15.0,78.0,91.0,94.0,1017.0,-2.0,-142.0
257.0,-13.0,-20.0,85.0,107.0,91.0,1014.0,2.0,-143.0
257.0,-9.0,-20.0,87.0,118.0,87.0,1018.0,5.0,-147.0
258.0,-11.0,-19.0,84.0,131.0,76.0,1015.0,13.0,-144.0
257.0,-5.0,-23.0,79.0,140.0,67.0,1018.0,20.0,-150.0
256.0,-3.0,-20.0,70.0,149.0,57.0,1018.0,22.0,-156.0
257.0,-4.0,-25.0,61.0,158.0,46.0,1014.0,23.0,-158.0
256.0,-5.0,-22.0,53.0,162.0,34.0,1013.0,26.0,-155.0
254.0,-6.0,-22.0,43.0,165.0,22.0,1013.0,25.0,-152.0
256.0,-7.0,-22.0,35.0,165.0,9.0,1009.0,26.0,-148.0
254.0,-6.0,-22.0,27.0,165.0,-1.0,1005.0,17.0,-153.0
254.0,-9.0,-21.0,17.0,162.0,-12.0,1006.0,10.0,-149.0
255.0,-12.0,-22.0,11.0,159.0,-22.0,1010.0,10.0,-154.0
257.0,-10.0,-20.0,1.0,156.0,-30.0,1006.0,2.0,-144.0
256.0,-12.0,-17.0,-8.0,152.0,-37.0,1008.0,-2.0,-144.0
256.0,-12.0,-21.0,-17.0,146.0,-43.0,1009.0,-7.0,-138.0
256.0,-14.0,-16.0,-28.0,139.0,-49.0,1010.0,-5.0,-134.0
256.0,-12.0,-17.0,-39.0,132.0,-52.0,1009.0,-10.0,-130.0
255.0,-13.0,-12.0,-49.0,125.0,-52.0,1010.0,-8.0,-127.0
254.0,-13.0,-10.0,-57.0,115.0,-53.0,1005.0,-3.0,-120.0
253.0,-13.0,-10.0,-65.0,108.0,-53.0,1010.0,2.0,-116.0
255.0,-11.0,-10.0,-73.0,99.0,-54.0,1003.0,7.0,-112.0
253.0,-8.0,-9.0,-82.0,91.0,-52.0,1002.0,14.0,-109.0
253.0,-8.0,-7.0,-90.0,83.0,-50.0,1000.0,17.0,-110.0
256.0,-5.0,-10.0,-93.0,75.0,-46.0,1005.0,22.0,-109.0
254.0,-5.0,-13.0,-96.0,71.0,-46.0,1002.0,22.0,-107.0
256.0,-2.0,-13.0,-100.0,66.0,-40.0,1006.0,29.0,-111.0
254.0,-1.0,-11.0,-103.0,63.0,-36.0,1007.0,34.0,-112.0
255.0,-2.0,-11.0,-104.0,58.0,-32.0,1004.0,37.0,-116.0
256.0,0.0,-12.0,-104.0,56.0,-27.0,1008.0,39.0,-112.0
255.0,0.0,-12.0,-103.0,54.0,-24.0,1005.0,46.0,-111.0
253.0,1.0,-9.0,-99.0,55.0,-24.0,1008.0,48.0,-108.0
256.0,1.0,-11.0,-89.0,54.0,-22.0,1008.0,60.0,-113.0
256.0,1.0,-10.0,-80.0,57.0,-21.0,1004.0,51.0,-112.0
252.0,2.0,-12.0,-69.0,59.0,-23.0,1005.0,55.0,-112.0
253.0,1.0,-13.0,-60.0,62.0,-24.0,1004.0,54.0,-113.0
254.0,3.0,-12.0,-51.0,65.0,-23.0,1002.0,59.0,-113.0
255.0,0.0,-15.0,-46.0,68.0,-24.0,998.0,56.0,-115.0
253.0,4.0,-9.0,-41.0,70.0,-26.0,1003.0,59.0,-119.0
253.0,4.0,-13.0,-38.0,72.0,-26.0,1006.0,66.0,-112.0
252.0,4.0,-13.0,-34.0,74.0,-24.0,998.0,61.0,-119.0
252.0,1.0,-13.0,-34.0,74.0,-25.0,1001.0,61.0,-120.0
254.0,2.0,-12.0,-33.0,75.0,-24.0,1001.0,56.0,-116.0
253.0,2.0,-14.0,-33.0,75.0,-23.0,1004.0,55.0,-122.0
254.0,1.0,-8.0,-32.0,76.0,-23.0,1002.0,55.0,-124.0
256.0,1.0,-13.0,-32.0,76.0,-24.0,1004.0,55.0,-125.0
255.0,1.0,-14.0,-31.0,76.0,-25.0,1005.0,45.0,-124.0
254.0,0.0,-11.0,-30.0,78.0,-25.0,1003.0,46.0,-124.0
255.0,2.0,-12.0,-31.0,76.0,-27.0,1007.0,44.0,-127.0
254.0,0.0,-12.0,-32.0,76.0,-29.0,1007.0,40.0,-125.0
254.0,-1.0,-16.0,-33.0,75.0,-32.0,1014.0,38.0,-124.0
255.0,0.0,-15.0,-34.0,72.0,-34.0,1012.0,37.0,-126.0
256.0,0.0,-16.0,-35.0,71.0,-37.0,1013.0,35.0,-132.0
256.0,0.0,-16.0,-41.0,71.0,-38.0,1020.0,34.0,-135.0
257.0,0.0,-18.0,-43.0,70.0,-38.0,1018.0,32.0,-141.0
257.0,-1.0,-21.0,-47.0,69.0,-41.0,1018.0,30.0,-141.0
257.0,-2.0,-17.0,-49.0,69.0,-42.0,1017.0,31.0,-143.0
255.0,-2.0,-14.0,-50.0,70.0,-41.0,1021.0,31.0,-141.0
260.0,-3.0,-17.0,-51.0,71.0,-40.0,1018.0,37.0,-141.0
257.0,-3.0,-18.0,-51.0,72.0,-39.0,1016.0,38.0,-146.0
255.0,-2.0,-19.0,-50.0,73.0,-37.0,1015.0,43.0,-136.0
258.0,-3.0,-18.0,-48.0,73.0,-34.0,1016.0,39.0,-137.0
259.0,-2.0,-16.0,-46.0,73.0,-33.0,1015.0,43.0,-138.0
255.0,1.0,-14.0,-45.0,73.0,-30.0,1014.0,39.0,-139.0
255.0,0.0,-17.0,-46.0,73.0,-27.0,1014.0,44.0,-137.0
256.0,0.0,-16.0,-45.0,75.0,-24.0,1020.0,42.0,-139.0
256.0,0.0,-18.0,-43.0,77.0,-22.0,1016.0,45.0,-142.0
256.0,0.0,-21.0,-42.0,76.0,-17.0,1016.0,45.0,-141.0
255.0,2.0,-17.0,-40.0,78.0,-16.0,1016.0,46.0,-144.0
259.0,-1.0,-20.0,-38.0,80.0,-13.0,1013.0,50.0,-143.0
254.0,1.0,-21.0,-39.0,83.0,-9.0,1013.0,53.0,-150.0
254.0,2.0,-17.0,-38.0,87.0,-8.0,1011.0,50.0,-146.0
255.0,1.0,-22.0,-38.0,88.0,-6.0,1011.0,48.0,-146.0
255.0,1.0,-16.0,-36.0,91.0,-5.0,1014.0,51.0,-146.0
255.0,-1.0,-19.0,-37.0,97.0,-3.0,1008.0,47.0,-140.0
256.0,0.0,-20.0,-35.0,101.0,-2.0,1001.0,45.0,-140.0
254.0,0.0,-17.0,-35.0,105.0,-2.0,1008.0,46.0,-135.0
255.0,0.0,-15.0,-34.0,108.0,-1.0,1003.0,44.0,-130.0
255.0,1.0,-14.0,-33.0,112.0,-2.0,1005.0,44.0,-128.0
255.0,1.0,-10.0,-31.0,113.0,1.0,1009.0,48.0,-123.0
256.0,1.0,-13.0,-30.0,115.0,2.0,1013.0,51.0,-126.0
256.0,1.0,-12.0,-31.0,117.0,2.0,1013.0,49.0,-122.0
256.0,2.0,-14.0,-30.0,116.0,1.0,1011.0,50.0,-120.0
257.0,2.0,-11.0,-30.0,113.0,2.0,1018.0,56.0,-121.0
255.0,3.0,-13.0,-30.0,112.0,1.0,1016.0,58.0,-121.0
254.0,3.0,-12.0,-31.0,111.0,-1.0,1015.0,58.0,-119.0
256.0,2.0,-12.0,-29.0,110.0,0.0,1010.0,61.0,-119.0
255.0,2.0,-14.0,-30.0,109.0,-1.0,1012.0,59.0,-117.0
255.0,2.0,-11.0,-30.0,107.0,-3.0,1009.0,61.0,-119.0
257.0,2.0,-14.0,-29.0,104.0,-3.0,1008.0,65.0,-117.0
256.0,1.0,-13.0,-29.0,103.0,-2.0,1011.0,62.0,-115.0
254.0,2.0,-11.0,-28.0,101.0,0.0,1007.0,58.0,-122.0
255.0,2.0,-10.0,-29.0,100.0,-1.0,1008.0,60.0,-117.0
255.0,2.0,-11.0,-29.0,95.0,-1.0,1007.0,61.0,-116.0
252.0,1.0,-11.0,-31.0,91.0,1.0,1010.0,59.0,-116.0
254.0,4.0,-13.0,-34.0,87.0,1.0,1011.0,59.0,-117.0
254.0,4.0,-6.0,-37.0,82.0,4.0,1011.0,55.0,-121.0
254.0,1.0,-10.0,-39.0,80.0,5.0,1009.0,56.0,-115.0
255.0,2.0,-7.0,-43.0,76.0,5.0,1007.0,54.0,-112.0
257.0,1.0,-13.0,-44.0,75.0,5.0,1003.0,57.0,-107.0
254.0,0.0,-12.0,-46.0,71.0,4.0,1009.0,59.0,-110.0
254.0,2.0,-6.0,-49.0,69.0,3.0,1008.0,54.0,-107.0
255.0,1.0,-10.0,-51.0,66.0,4.0,1006.0,53.0,-111.0
256.0,0.0,-7.0,-53.0,62.0,2.0,1006.0,55.0,-101.0
255.0,1.0,-9.0,-55.0,56.0,0.0,1007.0,51.0,-104.0
254.0,0.0,-7.0,-55.0,50.0,0.0,1009.0,48.0,-108.0
253.0,1.0,-10.0,-56.0,42.0,-2.0,1009.0,45.0,-98.0
254.0,1.0,-5.0,-56.0,36.0,-3.0,1007.0,48.0,-103.0
255.0,-1.0,-13.0,-55.0,29.0,-5.0,1006.0,42.0,-110.0
254.0,-1.0,-8.0,-56.0,19.0,-6.0,1003.0,34.0,-110.0
255.0,0.0,-7.0,-57.0,11.0,-7.0,1007.0,41.0,-110.0
254.0,-3.0,-10.0,-58.0,5.0,-8.0,1012.0,37.0,-104.0
256.0,0.0,-9.0,-61.0,-2.0,-10.0,1011.0,34.0,-115.0
253.0,0.0,-8.0,-64.0,-9.0,-13.0,1005.0,33.0,-113.0
255.0,-4.0,-10.0,-66.0,-15.0,-16.0,1004.0,35.0,-114.0
256.0,-4.0,-8.0,-69.0,-21.0,-19.0,1006.0,35.0,-114.0
254.0,0.0,-11.0,-73.0,-25.0,-23.0,1006.0,37.0,-108.0
255.0,-1.0,-8.0,-77.0,-32.0,-27.0,1006.0,33.0,-107.0
256.0,-1.0,-15.0,-79.0,-36.0,-30.0,1006.0,32.0,-115.0
253.0,-2.0,-9.0,-82.0,-40.0,-33.0,1002.0,37.0,-111.0
254.0,-3.0,-12.0,-85.0,-48.0,-38.0,1006.0,33.0,-116.0
253.0,-2.0,-12.0,-86.0,-54.0,-43.0,1005.0,33.0,-115.0
254.0,-1.0,-13.0,-88.0,-61.0,-49.0,1007.0,37.0,-118.0
255.0,-1.0,-11.0,-92.0,-69.0,-55.0,1005.0,36.0,-119.0
254.0,-4.0,-10.0,-96.0,-73.0,-63.0,1009.0,41.0,-121.0
255.0,1.0,-12.0,-103.0,-78.0,-68.0,1002.0,38.0,-120.0
255.0,-1.0,-14.0,-110.0,-85.0,-74.0,1010.0,45.0,-122.0
255.0,1.0,-16.0,-115.0,-90.0,-79.0,1008.0,44.0,-122.0
253.0,0.0,-14.0,-124.0,-94.0,-84.0,1006.0,43.0,-129.0
254.0,1.0,-18.0,-132.0,-100.0,-90.0,1007.0,48.0,-134.0
254.0,1.0,-16.0,-140.0,-104.0,-92.0,1005.0,50.0,-129.0
255.0,2.0,-15.0,-146.0,-109.0,-95.0,1011.0,54.0,-132.0
253.0,0.0,-16.0,-152.0,-114.0,-100.0,1007.0,48.0,-129.0
256.0,2.0,-18.0,-156.0,-121.0,-103.0,1006.0,51.0,-130.0
254.0,2.0,-18.0,-160.0,-128.0,-104.0,1008.0,57.0,-131.0
255.0,1.0,-14.0,-163.0,-132.0,-107.0,1007.0,58.0,-139.0
254.0,2.0,-18.0,-165.0,-136.0,-107.0,1004.0,58.0,-139.0
253.0,3.0,-16.0,-168.0,-142.0,-108.0,1004.0,61.0,-137.0
254.0,2.0,-18.0,-169.0,-145.0,-107.0,1004.0,66.0,-141.0
255.0,3.0,-15.0,-169.0,-145.0,-104.0,1007.0,63.0,-144.0
255.0,4.0,-22.0,-172.0,-146.0,-104.0,1006.0,65.0,-146.0
254.0,3.0,-21.0,-174.0,-149.0,-104.0,1006.0,66.0,-152.0
255.0,5.0,-22.0,-173.0,-150.0,-102.0,1008.0,71.0,-152.0
251.0,6.0,-22.0,-171.0,-151.0,-102.0,1006.0,74.0,-158.0
254.0,4.0,-26.0,-169.0,-153.0,-100.0,1004.0,71.0,-154.0
251.0,9.0,-25.0,-170.0,-151.0,-98.0,1008.0,76.0,-161.0
255.0,8.0,-24.0,-168.0,-151.0,-94.0,1002.0,73.0,-163.0
254.0,8.0,-24.0,-167.0,-150.0,-89.0,1001.0,74.0,-166.0
254.0,10.0,-22.0,-165.0,-146.0,-83.0,1004.0,76.0,-166.0
253.0,8.0,-25.0,-164.0,-141.0,-79.0,1005.0,75.0,-171.0
252.0,8.0,-27.0,-161.0,-137.0,-75.0,1006.0,74.0,-170.0
251.0,9.0,-24.0,-160.0,-132.0,-71.0,1002.0,77.0,-170.0
255.0,5.0,-27.0,-158.0,-128.0,-67.0,1002.0,79.0,-175.0
253.0,10.0,-27.0,-153.0,-124.0,-62.0,1012.0,76.0,-178.0
250.0,8.0,-28.0,-147.0,-119.0,-56.0,1007.0,75.0,-176.0
254.0,7.0,-31.0,-142.0,-114.0,-51.0,1004.0,77.0,-179.0
253.0,7.0,-29.0,-137.0,-110.0,-47.0,1006.0,77.0,-179.0
253.0,6.0,-28.0,-133.0,-107.0,-43.0,1004.0,73.0,-179.0
255.0,4.0,-26.0,-130.0,-103.0,-40.0,1006.0,80.0,-183.0
255.0,7.0,-27.0,-126.0,-100.0,-37.0,1006.0,77.0,-180.0
255.0,8.0,-29.0,-123.0,-95.0,-33.0,1005.0,77.0,-187.0
255.0,6.0,-34.0,-120.0,-90.0,-29.0,1007.0,75.0,-183.0
253.0,5.0,-31.0,-117.0,-87.0,-24.0,1007.0,73.0,-189.0
254.0,5.0,-31.0,-115.0,-82.0,-22.0,1009.0,77.0,-192.0
252.0,6.0,-29.0,-113.0,-79.0,-19.0,1004.0,75.0,-188.0
255.0,6.0,-32.0,-111.0,-74.0,-16.0,1007.0,69.0,-196.0
255.0,7.0,-31.0,-109.0,-69.0,-14.0,1009.0,71.0,-195.0
257.0,6.0,-32.0,-109.0,-65.0,-14.0,1008.0,71.0,-197.0
254.0,4.0,-31.0,-106.0,-60.0,-12.0,1002.0,73.0,-201.0
254.0,4.0,-31.0,-102.0,-54.0,-10.0,1004.0,73.0,-196.0
251.0,6.0,-47.0,-97.0,-47.0,-7.0,1001.0,66.0,-200.0
256.0,5.0,-42.0,-91.0,-40.0,-6.0,1007.0,68.0,-202.0
256.0,2.0,-34.0,-85.0,-32.0,-4.0,1003.0,66.0,-200.0
247.0,7.0,-23.0,-79.0,-24.0,-2.0,1006.0,70.0,-204.0
252.0,6.0,-22.0,-72.0,-16.0,-1.0,1002.0,67.0,-197.0
254.0,3.0,-27.0,-65.0,-7.0,1.0,1002.0,65.0,-202.0
250.0,7.0,-34.0,-57.0,1.0,4.0,1005.0,66.0,-200.0
259.0,13.0,-39.0,-51.0,8.0,4.0,1003.0,70.0,-198.0
254.0,7.0,-33.0,-44.0,17.0,6.0,1006.0,69.0,-199.0
254.0,6.0,-31.0,-40.0,27.0,9.0,1005.0,69.0,-202.0
253.0,7.0,-33.0,-33.0,32.0,10.0,1002.0,71.0,-200.0
256.0,4.0,-34.0,-30.0,38.0,11.0,1004.0,74.0,-199.0
254.0,6.0,-32.0,-27.0,45.0,12.0,1000.0,77.0,-197.0
253.0,9.0,-36.0,-23.0,51.0,15.0,1001.0,74.0,-199.0
254.0,9.0,-34.0,-20.0,54.0,18.0,1004.0,77.0,-200.0
253.0,9.0,-29.0,-19.0,59.0,19.0,1005.0,82.0,-202.0
254.0,7.0,-32.0,-18.0,61.0,22.0,1004.0,79.0,-198.0
255.0,8.0,-30.0,-15.0,65.0,24.0,999.0,78.0,-200.0
253.0,11.0,-31.0,-14.0,69.0,26.0,998.0,86.0,-199.0
253.0,6.0,-31.0,-14.0,70.0,30.0,1001.0,82.0,-191.0
254.0,4.0,-31.0,-13.0,71.0,33.0,1002.0,78.0,-190.0
252.0,6.0,-31.0,-13.0,72.0,35.0,1003.0,76.0,-191.0
253.0,6.0,-32.0,-12.0,75.0,38.0,1001.0,78.0,-194.0
255.0,8.0,-31.0,-14.0,74.0,39.0,1001.0,78.0,-190.0
252.0,6.0,-30.0,-16.0,75.0,40.0,1007.0,76.0,-188.0
254.0,8.0,-31.0,-17.0,76.0,43.0,1000.0,74.0,-190.0
255.0,4.0,-32.0,-17.0,76.0,44.0,1001.0,67.0,-193.0
254.0,4.0,-32.0,-17.0,77.0,45.0,996.0,67.0,-189.0
252.0,4.0,-29.0,-16.0,79.0,45.0,998.0,65.0,-189.0
253.0,7.0,-30.0,-17.0,80.0,45.0,999.0,63.0,-189.0
254.0,2.0,-28.0,-16.0,82.0,42.0,1002.0,67.0,-199.0
252.0,3.0,-31.0,-14.0,84.0,43.0,1002.0,61.0,-189.0
253.0,5.0,-31.0,-13.0,87.0,41.0,1003.0,60.0,-189.0
254.0,2.0,-30.0,-11.0,91.0,39.0,1002.0,62.0,-190.0
254.0,0.0,-32.0,-8.0,94.0,38.0,1001.0,53.0,-187.0
252.0,2.0,-30.0,-5.0,96.0,37.0,994.0,60.0,-186.0
252.0,1.0,-33.0,-4.0,99.0,35.0,1001.0,53.0,-193.0
252.0,4.0,-28.0,-1.0,102.0,34.0,1001.0,61.0,-190.0
254.0,3.0,-31.0,-1.0,105.0,33.0,1000.0,58.0,-193.0
251.0,2.0,-30.0,0.0,108.0,30.0,999.0,59.0,-188.0
251.0,4.0,-28.0,1.0,111.0,29.0,998.0,62.0,-184.0
252.0,1.0,-28.0,3.0,112.0,27.0,998.0,60.0,-183.0
253.0,1.0,-28.0,3.0,112.0,25.0,998.0,57.0,-180.0
253.0,3.0,-28.0,2.0,113.0,23.0,1002.0,63.0,-182.0
252.0,0.0,-30.0,2.0,113.0,22.0,995.0,59.0,-182.0
255.0,1.0,-30.0,3.0,110.0,21.0,1002.0,58.0,-181.0
252.0,3.0,-27.0,0.0,110.0,21.0,998.0,53.0,-182.0
255.0,1.0,-27.0,-2.0,106.0,17.0,999.0,60.0,-179.0
255.0,2.0,-28.0,-4.0,104.0,17.0,998.0,59.0,-181.0
253.0,1.0,-27.0,-5.0,103.0,16.0,1000.0,62.0,-181.0
252.0,4.0,-29.0,-8.0,101.0,15.0,1000.0,61.0,-181.0
253.0,3.0,-31.0,-11.0,99.0,12.0,1007.0,63.0,-181.0
255.0,6.0,-30.0,-12.0,97.0,11.0,1000.0,60.0,-184.0
253.0,1.0,-28.0,-14.0,98.0,12.0,1001.0,63.0,-182.0
252.0,4.0,-29.0,-16.0,96.0,11.0,1003.0,64.0,-183.0
252.0,6.0,-29.0,-16.0,94.0,10.0,999.0,61.0,-180.0
252.0,3.0,-30.0,-16.0,94.0,12.0,1000.0,62.0,-183.0
253.0,3.0,-25.0,-15.0,93.0,11.0,1002.0,62.0,-183.0
254.0,1.0,-27.0,-14.0,91.0,10.0,1002.0,62.0,-178.0
253.0,2.0,-30.0,-14.0,90.0,10.0,1007.0,63.0,-181.0
254.0,1.0,-27.0,-14.0,90.0,9.0,1002.0,65.0,-178.0
250.0,5.0,-31.0,-14.0,90.0,10.0,999.0,60.0,-179.0
252.0,4.0,-27.0,-13.0,89.0,10.0,1006.0,61.0,-177.0
255.0,2.0,-30.0,-14.0,87.0,8.0,1002.0,63.0,-180.0
252.0,3.0,-29.0,-12.0,88.0,9.0,1004.0,61.0,-178.0
252.0,3.0,-27.0,-12.0,86.0,10.0,1000.0,60.0,-176.0
255.0,1.0,-30.0,-13.0,84.0,10.0,1001.0,63.0,-177.0
253.0,4.0,-28.0,-14.0,84.0,10.0,1004.0,65.0,-176.0
255.0,2.0,-26.0,-13.0,81.0,10.0,1001.0,67.0,-178.0
252.0,5.0,-28.0,-12.0,78.0,10.0,1001.0,64.0,-177.0
254.0,4.0,-29.0,-13.0,77.0,9.0,1002.0,64.0,-176.0
251.0,6.0,-28.0,-12.0,77.0,9.0,1003.0,61.0,-176.0
253.0,5.0,-27.0,-12.0,76.0,9.0,1001.0,63.0,-171.0
255.0,4.0,-26.0,-13.0,76.0,9.0,996.0,63.0,-175.0
253.0,5.0,-24.0,-14.0,74.0,10.0,1000.0,67.0,-174.0
251.0,4.0,-27.0,-14.0,73.0,8.0,1000.0,66.0,-183.0
252.0,1.0,-26.0,-15.0,74.0,8.0,1007.0,61.0,-176.0
255.0,1.0,-25.0,-16.0,74.0,8.0,1002.0,69.0,-170.0
254.0,5.0,-26.0,-16.0,72.0,5.0,999.0,69.0,-170.0
251.0,5.0,-29.0,-18.0,71.0,4.0,999.0,69.0,-169.0
253.0,4.0,-31.0,-18.0,71.0,1.0,1004.0,66.0,-176.0
255.0,6.0,-28.0,-19.0,71.0,1.0,1001.0,68.0,-180.0
254.0,4.0,-29.0,-21.0,70.0,2.0,1002.0,62.0,-183.0
253.0,4.0,-28.0,-22.0,71.0,2.0,1005.0,64.0,-176.0
252.0,4.0,-23.0,-21.0,70.0,1.0,999.0,64.0,-178.0
252.0,2.0,-26.0,-21.0,69.0,1.0,1001.0,67.0,-180.0
253.0,3.0,-26.0,-21.0,69.0,0.0,1006.0,61.0,-179.0
253.0,4.0,-30.0,-22.0,69.0,0.0,1002.0,64.0,-180.0
254.0,2.0,-24.0,-20.0,70.0,0.0,1003.0,66.0,-183.0
253.0,4.0,-30.0,-20.0,69.0,0.0,1002.0,64.0,-178.0
251.0,2.0,-25.0,-20.0,69.0,2.0,1002.0,61.0,-175.0
254.0,1.0,-26.0,-21.0,68.0,1.0,1001.0,60.0,-175.0
253.0,2.0,-28.0,-20.0,67.0,2.0,1004.0,59.0,-177.0
254.0,4.0,-22.0,-16.0,68.0,1.0,1004.0,59.0,-179.0
257.0,2.0,-28.0,-15.0,67.0,1.0,1000.0,58.0,-172.0
255.0,1.0,-26.0,-15.0,66.0,1.0,1005.0,59.0,-177.0
254.0,2.0,-29.0,-14.0,64.0,1.0,1003.0,58.0,-176.0
255.0,2.0,-29.0,-16.0,62.0,0.0,1000.0,62.0,-181.0
255.0,3.0,-27.0,-18.0,60.0,-2.0,1004.0,62.0,-176.0
255.0,4.0,-26.0,-21.0,58.0,-2.0,1003.0,59.0,-184.0
252.0,4.0,-30.0,-21.0,55.0,-4.0,1006.0,59.0,-182.0
254.0,1.0,-25.0,-24.0,53.0,-6.0,1000.0,60.0,-177.0
254.0,2.0,-28.0,-25.0,53.0,-6.0,1002.0,60.0,-183.0
253.0,4.0,-32.0,-26.0,53.0,-6.0,1002.0,63.0,-182.0
253.0,4.0,-29.0,-28.0,53.0,-6.0,1003.0,61.0,-181.0
252.0,4.0,-28.0,-29.0,55.0,-5.0,1000.0,64.0,-184.0
252.0,4.0,-31.0,-29.0,55.0,-4.0,1000.0,61.0,-185.0
254.0,2.0,-29.0,-28.0,57.0,-4.0,998.0,60.0,-183.0
252.0,3.0,-29.0,-28.0,59.0,-4.0,1002.0,64.0,-183.0
253.0,3.0,-30.0,-28.0,62.0,-4.0,1001.0,59.0,-186.0
255.0,1.0,-30.0,-26.0,64.0,-5.0,1003.0,61.0,-183.0
254.0,3.0,-30.0,-25.0,67.0,-4.0,1000.0,62.0,-187.0
253.0,3.0,-28.0,-22.0,70.0,-4.0,1001.0,61.0,-182.0
254.0,1.0,-30.0,-19.0,73.0,-3.0,1001.0,62.0,-185.0
255.0,6.0,-25.0,-18.0,78.0,-4.0,1001.0,60.0,-188.0
253.0,2.0,-29.0,-16.0,82.0,-5.0,1000.0,62.0,-181.0
255.0,3.0,-30.0,-15.0,84.0,-5.0,1004.0,64.0,-179.0
256.0,1.0,-28.0,-13.0,87.0,-6.0,997.0,65.0,-185.0
255.0,2.0,-29.0,-13.0,88.0,-7.0,1002.0,63.0,-182.0
253.0,4.0,-28.0,-12.0,89.0,-7.0,1003.0,65.0,-182.0
254.0,1.0,-27.0,-11.0,91.0,-4.0,1000.0,64.0,-184.0
253.0,2.0,-29.0,-11.0,90.0,-5.0,1003.0,60.0,-176.0
253.0,4.0,-28.0,-12.0,90.0,-6.0,1003.0,65.0,-178.0
254.0,5.0,-30.0,-11.0,89.0,-7.0,1001.0,57.0,-178.0
256.0,3.0,-27.0,-11.0,87.0,-7.0,1000.0,71.0,-174.0
255.0,4.0,-30.0,-9.0,86.0,-8.0,1004.0,65.0,-181.0
257.0,2.0,-29.0,-8.0,86.0,-8.0,1001.0,70.0,-177.0
254.0,5.0,-26.0,-6.0,84.0,-7.0,1005.0,60.0,-182.0
253.0,3.0,-30.0,-6.0,83.0,-5.0,1003.0,64.0,-180.0
254.0,1.0,-30.0,-6.0,83.0,-4.0,1001.0,61.0,-183.0
255.0,2.0,-27.0,-4.0,83.0,-4.0,1002.0,64.0,-179.0
252.0,4.0,-30.0,-3.0,82.0,-5.0,1004.0,62.0,-175.0
254.0,3.0,-24.0,-4.0,82.0,-3.0,1002.0,60.0,-179.0
254.0,1.0,-27.0,-5.0,81.0,-5.0,1002.0,62.0,-180.0
253.0,4.0,-30.0,-8.0,81.0,-5.0,1001.0,58.0,-179.0
253.0,2.0,-28.0,-9.0,81.0,-7.0,1004.0,56.0,-180.0
253.0,3.0,-25.0,-8.0,80.0,-6.0,1001.0,59.0,-180.0
253.0,3.0,-31.0,-9.0,83.0,-8.0,1000.0,64.0,-185.0
252.0,3.0,-29.0,-9.0,85.0,-7.0,1001.0,58.0,-183.0
252.0,6.0,-31.0,-6.0,85.0,-9.0,998.0,60.0,-180.0
253.0,3.0,-28.0,-6.0,87.0,-9.0,1002.0,58.0,-179.0
253.0,3.0,-30.0,-4.0,88.0,-8.0,1003.0,62.0,-180.0
254.0,2.0,-26.0,-2.0,90.0,-8.0,1002.0,65.0,-180.0
255.0,3.0,-27.0,0.0,92.0,-7.0,1000.0,59.0,-179.0
251.0,2.0,-24.0,1.0,93.0,-6.0,1005.0,59.0,-176.0
252.0,4.0,-28.0,4.0,95.0,-6.0,1002.0,63.0,-179.0
254.0,2.0,-27.0,6.0,96.0,-8.0,1000.0,61.0,-176.0
254.0,2.0,-26.0,7.0,96.0,-7.0,1001.0,60.0,-174.0
254.0,1.0,-24.0,7.0,96.0,-7.0,1006.0,63.0,-181.0
251.0,3.0,-26.0,4.0,98.0,-7.0,1002.0,61.0,-177.0
254.0,2.0,-25.0,4.0,98.0,-8.0,1002.0,62.0,-180.0
254.0,3.0,-26.0,3.0,98.0,-7.0,1001.0,63.0,-179.0
253.0,4.0,-31.0,3.0,97.0,-8.0,1003.0,60.0,-176.0
254.0,3.0,-25.0,2.0,94.0,-7.0,1002.0,59.0,-171.0
251.0,2.0,-23.0,2.0,94.0,-6.0,999.0,65.0,-172.0
252.0,4.0,-26.0,2.0,90.0,-7.0,1002.0,66.0,-174.0
256.0,5.0,-24.0,3.0,89.0,-6.0,1004.0,69.0,-170.0
253.0,2.0,-24.0,2.0,88.0,-7.0,1003.0,60.0,-171.0
253.0,5.0,-27.0,0.0,87.0,-5.0,1002.0,61.0,-177.0
253.0,2.0,-28.0,0.0,86.0,-4.0,1003.0,59.0,-175.0
255.0,2.0,-24.0,-3.0,84.0,-6.0,1001.0,66.0,-173.0
253.0,5.0,-27.0,-2.0,84.0,-6.0,1003.0,63.0,-175.0
254.0,2.0,-27.0,-3.0,83.0,-5.0,1003.0,56.0,-176.0
254.0,4.0,-25.0,-5.0,83.0,-5.0,999.0,58.0,-174.0
254.0,2.0,-25.0,-5.0,84.0,-5.0,1002.0,62.0,-174.0
254.0,4.0,-26.0,-5.0,83.0,-4.0,1000.0,66.0,-172.0
253.0,2.0,-31.0,-3.0,82.0,-4.0,1001.0,59.0,-174.0
254.0,4.0,-26.0,-2.0,81.0,-5.0,998.0,67.0,-172.0
252.0,6.0,-26.0,-1.0,81.0,-6.0,1006.0,63.0,-171.0
253.0,2.0,-26.0,0.0,83.0,-6.0,1001.0,64.0,-171.0
252.0,2.0,-23.0,1.0,81.0,-7.0,999.0,62.0,-175.0
249.0,5.0,-25.0,-1.0,82.0,-8.0,1003.0,65.0,-173.0
256.0,5.0,-23.0,-2.0,82.0,-8.0,1003.0,60.0,-168.0
254.0,1.0,-24.0,-4.0,81.0,-9.0,1003.0,60.0,-171.0
255.0,3.0,-30.0,-7.0,82.0,-10.0,1003.0,64.0,-169.0
254.0,2.0,-25.0,-9.0,82.0,-11.0,1003.0,68.0,-167.0
255.0,6.0,-28.0,-11.0,80.0,-12.0,1004.0,66.0,-170.0
254.0,5.0,-24.0,-12.0,80.0,-9.0,999.0,68.0,-166.0
254.0,3.0,-26.0,-11.0,78.0,-10.0,1002.0,64.0,-167.0
249.0,6.0,-25.0,-12.0,78.0,-9.0,1001.0,64.0,-169.0
255.0,4.0,-27.0,-11.0,77.0,-12.0,1005.0,64.0,-168.0
255.0,4.0,-26.0,-10.0,75.0,-11.0,1006.0,65.0,-165.0
255.0,2.0,-24.0,-8.0,75.0,-9.0,1003.0,66.0,-169.0
254.0,8.0,-24.0,-7.0,75.0,-9.0,1003.0,64.0,-170.0
252.0,5.0,-25.0,-6.0,74.0,-10.0,1005.0,72.0,-174.0
253.0,5.0,-28.0,-5.0,74.0,-9.0,1006.0,68.0,-180.0
252.0,7.0,-27.0,-8.0,74.0,-8.0,1000.0,66.0,-177.0
253.0,5.0,-26.0,-10.0,75.0,-8.0,1003.0,64.0,-174.0
251.0,4.0,-25.0,-11.0,74.0,-9.0,1000.0,62.0,-176.0
253.0,4.0,-22.0,-14.0,75.0,-9.0,1002.0,68.0,-176.0
254.0,7.0,-26.0,-14.0,74.0,-8.0,1001.0,69.0,-170.0
252.0,5.0,-23.0,-14.0,75.0,-7.0,1001.0,68.0,-174.0
252.0,5.0,-23.0,-15.0,74.0,-6.0,1002.0,67.0,-178.0
252.0,6.0,-26.0,-16.0,75.0,-6.0,1002.0,63.0,-173.0
252.0,4.0,-25.0,-17.0,73.0,-5.0,1001.0,64.0,-171.0
255.0,4.0,-27.0,-17.0,73.0,-5.0,1006.0,62.0,-171.0
255.0,1.0,-27.0,-16.0,71.0,-3.0,1000.0,63.0,-172.0
255.0,4.0,-25.0,-17.0,70.0,-3.0,1006.0,61.0,-173.0
255.0,3.0,-27.0,-18.0,68.0,-4.0,1009.0,65.0,-175.0
255.0,2.0,-25.0,-18.0,68.0,-5.0,1003.0,63.0,-175.0
255.0,1.0,-24.0,-16.0,67.0,-4.0,1003.0,58.0,-172.0
256.0,3.0,-26.0,-15.0,67.0,-5.0,1002.0,61.0,-171.0
254.0,0.0,-24.0,-13.0,65.0,-4.0,1003.0,56.0,-177.0
254.0,1.0,-26.0,-15.0,66.0,-5.0,1002.0,61.0,-176.0
255.0,4.0,-27.0,-13.0,68.0,-6.0,1003.0,60.0,-173.0
253.0,0.0,-25.0,-12.0,67.0,-8.0,1005.0,61.0,-174.0
255.0,2.0,-26.0,-12.0,69.0,-9.0,1002.0,59.0,-174.0
254.0,1.0,-26.0,-12.0,70.0,-9.0,1003.0,56.0,-170.0
256.0,1.0,-27.0,-12.0,71.0,-10.0,1001.0,59.0,-175.0
254.0,4.0,-27.0,-11.0,71.0,-11.0,1001.0,65.0,-177.0
254.0,2.0,-27.0,-10.0,71.0,-11.0,1006.0,62.0,-179.0
253.0,3.0,-29.0,-9.0,73.0,-11.0,1001.0,65.0,-169.0
255.0,1.0,-21.0,-6.0,75.0,-10.0,1002.0,66.0,-175.0
251.0,4.0,-28.0,-4.0,78.0,-8.0,1001.0,67.0,-180.0
255.0,5.0,-24.0,-3.0,79.0,-8.0,1005.0,68.0,-177.0
252.0,4.0,-29.0,0.0,82.0,-8.0,1007.0,64.0,-180.0
254.0,5.0,-27.0,1.0,84.0,-5.0,1005.0,72.0,-176.0
255.0,4.0,-27.0,3.0,85.0,-5.0,1006.0,72.0,-177.0
256.0,6.0,-27.0,5.0,87.0,-4.0,1011.0,72.0,-176.0
255.0,6.0,-28.0,10.0,89.0,-2.0,1003.0,72.0,-178.0
254.0,6.0,-29.0,15.0,91.0,1.0,1004.0,71.0,-176.0
253.0,8.0,-29.0,21.0,94.0,4.0,1009.0,70.0,-186.0
255.0,3.0,-27.0,25.0,99.0,9.0,1007.0,70.0,-187.0
255.0,4.0,-28.0,30.0,102.0,13.0,1006.0,68.0,-180.0
256.0,4.0,-30.0,36.0,105.0,16.0,1008.0,58.0,-180.0
254.0,2.0,-28.0,41.0,110.0,20.0,1003.0,54.0,-179.0
254.0,1.0,-26.0,49.0,114.0,24.0,1007.0,55.0,-175.0
255.0,2.0,-24.0,54.0,118.0,23.0,1004.0,49.0,-171.0
254.0,1.0,-27.0,60.0,121.0,24.0,1008.0,49.0,-176.0
255.0,0.0,-26.0,66.0,125.0,24.0,1004.0,49.0,-178.0
256.0,-2.0,-26.0,71.0,126.0,23.0,1006.0,53.0,-171.0
256.0,0.0,-30.0,74.0,128.0,23.0,1004.0,46.0,-176.0
254.0,1.0,-25.0,76.0,128.0,24.0,1007.0,48.0,-170.0
253.0,0.0,-27.0,77.0,131.0,24.0,1007.0,51.0,-174.0
254.0,1.0,-25.0,78.0,136.0,23.0,1005.0,47.0,-176.0
256.0,1.0,-28.0,82.0,139.0,23.0,1010.0,48.0,-178.0
255.0,1.0,-24.0,87.0,143.0,26.0,1006.0,50.0,-166.0
255.0,0.0,-27.0,92.0,146.0,25.0,1005.0,45.0,-169.0
254.0,1.0,-26.0,97.0,149.0,28.0,1005.0,45.0,-171.0
255.0,0.0,-23.0,105.0,150.0,28.0,1010.0,49.0,-166.0
254.0,0.0,-24.0,116.0,151.0,28.0,1013.0,49.0,-162.0
254.0,1.0,-24.0,128.0,153.0,30.0,1015.0,48.0,-165.0
258.0,0.0,-22.0,140.0,157.0,32.0,1018.0,46.0,-159.0
257.0,0.0,-24.0,151.0,155.0,31.0,1017.0,47.0,-155.0
255.0,1.0,-20.0,163.0,156.0,27.0,1018.0,50.0,-155.0
256.0,0.0,-20.0,173.0,155.0,25.0,1018.0,51.0,-153.0
256.0,-1.0,-22.0,185.0,155.0,22.0,1013.0,49.0,-150.0
256.0,0.0,-18.0,195.0,154.0,16.0,1017.0,41.0,-156.0
255.0,-2.0,-22.0,200.0,151.0,10.0,1024.0,36.0,-157.0
257.0,-1.0,-19.0,201.0,145.0,-2.0,1021.0,34.0,-158.0
257.0,-1.0,-23.0,196.0,143.0,-17.0,1012.0,30.0,-155.0
256.0,-3.0,-18.0,186.0,139.0,-33.0,1014.0,25.0,-150.0
253.0,-5.0,-19.0,171.0,135.0,-46.0,1007.0,27.0,-141.0
254.0,-5.0,-19.0,161.0,132.0,-64.0,1005.0,28.0,-144.0
254.0,-3.0,-19.0,161.0,133.0,-80.0,993.0,32.0,-149.0
246.0,-6.0,-20.0,168.0,138.0,-95.0,989.0,26.0,-152.0
248.0,-4.0,-22.0,175.0,148.0,-107.0,985.0,28.0,-146.0
247.0,-4.0,-20.0,182.0,161.0,-115.0,977.0,25.0,-143.0
247.0,-7.0,-19.0,192.0,175.0,-119.0,978.0,26.0,-142.0
248.0,-4.0,-19.0,203.0,188.0,-125.0,983.0,28.0,-137.0
247.0,-6.0,-19.0,220.0,199.0,-127.0,980.0,33.0,-139.0
245.0,-2.0,-13.0,239.0,211.0,-133.0,977.0,37.0,-134.0
244.0,0.0,-15.0,254.0,224.0,-132.0,970.0,48.0,-130.0
243.0,0.0,-14.0,267.0,232.0,-129.0,967.0,56.0,-130.0
244.0,2.0,-15.0,275.0,238.0,-120.0,960.0,62.0,-134.0
243.0,4.0,-16.0,276.0,241.0,-113.0,970.0,68.0,-139.0
248.0,6.0,-19.0,270.0,241.0,-102.0,968.0,78.0,-153.0
245.0,9.0,-24.0,252.0,243.0,-91.0,971.0,78.0,-150.0
247.0,11.0,-20.0,229.0,246.0,-80.0,982.0,72.0,-157.0
248.0,4.0,-23.0,202.0,247.0,-67.0,985.0,66.0,-154.0
254.0,1.0,-18.0,174.0,247.0,-58.0,994.0,67.0,-154.0
254.0,6.0,-20.0,150.0,241.0,-57.0,1002.0,68.0,-149.0
255.0,3.0,-22.0,128.0,233.0,-58.0,1010.0,67.0,-149.0
256.0,3.0,-18.0,110.0,222.0,-62.0,1016.0,60.0,-145.0
257.0,4.0,-19.0,95.0,208.0,-66.0,1020.0,61.0,-149.0
257.0,2.0,-18.0,82.0,193.0,-69.0,1021.0,62.0,-149.0
258.0,3.0,-16.0,69.0,177.0,-70.0,1021.0,61.0,-150.0
256.0,4.0,-19.0,57.0,165.0,-66.0,1020.0,64.0,-150.0
257.0,5.0,-15.0,46.0,157.0,-67.0,1014.0,63.0,-143.0
255.0,5.0,-18.0,37.0,151.0,-68.0,1013.0,72.0,-144.0
254.0,6.0,-15.0,32.0,143.0,-69.0,1012.0,75.0,-136.0
258.0,9.0,-16.0,26.0,135.0,-70.0,1020.0,76.0,-141.0
259.0,6.0,-16.0,19.0,124.0,-68.0,1018.0,82.0,-133.0
259.0,9.0,-20.0,6.0,108.0,-68.0,1025.0,82.0,-134.0
261.0,8.0,-18.0,-9.0,91.0,-69.0,1030.0,81.0,-129.0
258.0,11.0,-15.0,-18.0,77.0,-73.0,1019.0,85.0,-128.0
257.0,7.0,-11.0,-25.0,58.0,-78.0,1020.0,75.0,-123.0
257.0,5.0,-13.0,-28.0,41.0,-81.0,1011.0,70.0,-119.0
256.0,5.0,-10.0,-31.0,24.0,-82.0,1011.0,73.0,-122.0
254.0,4.0,-10.0,-40.0,9.0,-86.0,1001.0,73.0,-114.0
250.0,5.0,-12.0,-45.0,-4.0,-89.0,995.0,70.0,-114.0
249.0,6.0,-10.0,-49.0,-14.0,-90.0,991.0,67.0,-114.0
250.0,7.0,-11.0,-51.0,-26.0,-89.0,995.0,72.0,-119.0
246.0,9.0,-15.0,-55.0,-35.0,-90.0,992.0,69.0,-125.0
250.0,6.0,-20.0,-59.0,-46.0,-90.0,994.0,64.0,-132.0
251.0,4.0,-15.0,-65.0,-55.0,-95.0,996.0,61.0,-130.0
252.0,3.0,-19.0,-70.0,-57.0,-98.0,995.0,64.0,-133.0
254.0,3.0,-15.0,-70.0,-55.0,-104.0,998.0,55.0,-132.0
254.0,2.0,-19.0,-67.0,-53.0,-111.0,1002.0,61.0,-137.0
254.0,4.0,-14.0,-62.0,-51.0,-121.0,1005.0,65.0,-140.0
251.0,6.0,-15.0,-54.0,-46.0,-132.0,1007.0,66.0,-136.0
254.0,8.0,-15.0,-49.0,-39.0,-143.0,1004.0,74.0,-133.0
254.0,7.0,-20.0,-41.0,-29.0,-155.0,1006.0,79.0,-143.0
255.0,9.0,-22.0,-32.0,-18.0,-163.0,1006.0,96.0,-149.0
252.0,14.0,-21.0,-19.0,-3.0,-168.0,1001.0,97.0,-154.0
257.0,13.0,-20.0,-4.0,9.0,-168.0,1010.0,97.0,-151.0
257.0,9.0,-19.0,10.0,16.0,-166.0,1007.0,99.0,-150.0
256.0,9.0,-17.0,24.0,24.0,-162.0,1007.0,95.0,-144.0
253.0,10.0,-15.0,38.0,26.0,-158.0,1008.0,93.0,-141.0
253.0,13.0,-16.0,50.0,25.0,-155.0,1006.0,95.0,-141.0
255.0,6.0,-16.0,63.0,20.0,-152.0,1005.0,92.0,-136.0
252.0,15.0,-16.0,72.0,16.0,-148.0,999.0,99.0,-133.0
253.0,13.0,-18.0,78.0,12.0,-146.0,999.0,96.0,-134.0
249.0,14.0,-17.0,79.0,5.0,-144.0,996.0,98.0,-131.0
249.0,14.0,-15.0,75.0,0.0,-139.0,1001.0,103.0,-129.0
250.0,15.0,-13.0,71.0,-9.0,-139.0,999.0,113.0,-128.0
251.0,14.0,-15.0,61.0,-20.0,-135.0,998.0,106.0,-125.0
250.0,15.0,-17.0,53.0,-32.0,-129.0,1000.0,109.0,-126.0
253.0,15.0,-17.0,42.0,-44.0,-127.0,1000.0,109.0,-129.0
253.0,15.0,-12.0,31.0,-54.0,-122.0,1005.0,111.0,-136.0
256.0,16.0,-19.0,20.0,-66.0,-120.0,1001.0,112.0,-131.0
252.0,15.0,-15.0,12.0,-77.0,-119.0,1009.0,115.0,-137.0
255.0,16.0,-16.0,2.0,-87.0,-117.0,1008.0,110.0,-143.0
255.0,15.0,-19.0,-8.0,-98.0,-116.0,1014.0,115.0,-146.0
254.0,13.0,-22.0,-17.0,-110.0,-115.0,1015.0,110.0,-156.0
256.0,16.0,-21.0,-30.0,-121.0,-113.0,1015.0,115.0,-154.0
255.0,19.0,-21.0,-45.0,-134.0,-114.0,1017.0,119.0,-154.0
255.0,17.0,-23.0,-60.0,-147.0,-114.0,1008.0,123.0,-160.0
255.0,21.0,-23.0,-70.0,-160.0,-111.0,1009.0,133.0,-166.0
255.0,20.0,-30.0,-80.0,-174.0,-108.0,1007.0,133.0,-176.0
256.0,25.0,-26.0,-89.0,-186.0,-105.0,1004.0,135.0,-179.0
254.0,26.0,-27.0,-96.0,-197.0,-100.0,1005.0,142.0,-181.0
256.0,23.0,-30.0,-103.0,-205.0,-92.0,1011.0,154.0,-182.0
255.0,25.0,-32.0,-103.0,-211.0,-82.0,1001.0,153.0,-191.0
255.0,26.0,-32.0,-101.0,-213.0,-68.0,1004.0,158.0,-195.0
251.0,25.0,-31.0,-98.0,-213.0,-56.0,999.0,157.0,-192.0
256.0,26.0,-31.0,-96.0,-215.0,-39.0,1009.0,150.0,-201.0
258.0,28.0,-33.0,-95.0,-216.0,-23.0,1010.0,156.0,-204.0
257.0,29.0,-31.0,-94.0,-215.0,-4.0,1010.0,157.0,-204.0
255.0,28.0,-33.0,-93.0,-210.0,15.0,1009.0,168.0,-200.0
257.0,29.0,-30.0,-92.0,-203.0,36.0,1011.0,169.0,-202.0
257.0,31.0,-34.0,-90.0,-194.0,51.0,1017.0,167.0,-199.0
258.0,32.0,-34.0,-86.0,-189.0,67.0,1019.0,170.0,-204.0
256.0,31.0,-32.0,-86.0,-189.0,80.0,1024.0,168.0,-197.0
257.0,29.0,-33.0,-86.0,-195.0,92.0,1021.0,164.0,-200.0
259.0,27.0,-32.0,-85.0,-203.0,100.0,1015.0,167.0,-198.0
253.0,29.0,-36.0,-84.0,-212.0,103.0,1006.0,168.0,-192.0
254.0,34.0,-32.0,-84.0,-216.0,108.0,1007.0,177.0,-197.0
254.0,32.0,-36.0,-82.0,-221.0,110.0,1003.0,182.0,-205.0
255.0,31.0,-38.0,-81.0,-228.0,114.0,1002.0,174.0,-208.0
255.0,32.0,-34.0,-85.0,-235.0,119.0,1005.0,177.0,-209.0
256.0,32.0,-33.0,-94.0,-244.0,124.0,1007.0,168.0,-207.0
254.0,34.0,-28.0,-106.0,-256.0,130.0,1007.0,168.0,-198.0
256.0,27.0,-29.0,-118.0,-271.0,135.0,1008.0,160.0,-201.0
254.0,28.0,-35.0,-130.0,-291.0,139.0,1007.0,159.0,-192.0
255.0,27.0,-31.0,-141.0,-314.0,140.0,1005.0,152.0,-197.0
252.0,25.0,-31.0,-148.0,-339.0,140.0,1002.0,149.0,-193.0
249.0,23.0,-32.0,-154.0,-357.0,140.0,996.0,153.0,-197.0
249.0,26.0,-32.0,-155.0,-378.0,139.0,990.0,145.0,-197.0
250.0,21.0,-34.0,-152.0,-395.0,139.0,994.0,132.0,-193.0
250.0,17.0,-33.0,-146.0,-412.0,139.0,992.0,119.0,-195.0
249.0,15.0,-30.0,-143.0,-429.0,136.0,989.0,105.0,-202.0
248.0,15.0,-30.0,-142.0,-448.0,136.0,983.0,103.0,-202.0
245.0,12.0,-36.0,-140.0,-468.0,132.0,985.0,97.0,-202.0
247.0,9.0,-33.0,-133.0,-487.0,127.0,974.0,84.0,-204.0
247.0,3.0,-35.0,-121.0,-509.0,125.0,972.0,82.0,-210.0
247.0,3.0,-37.0,-109.0,-529.0,121.0,973.0,68.0,-214.0
247.0,2.0,-38.0,-97.0,-549.0,119.0,978.0,67.0,-215.0
248.0,1.0,-41.0,-82.0,-571.0,112.0,979.0,59.0,-217.0
246.0,0.0,-41.0,-65.0,-596.0,102.0,981.0,64.0,-231.0
242.0,2.0,-41.0,-40.0,-620.0,91.0,964.0,67.0,-236.0
243.0,6.0,-38.0,-13.0,-640.0,81.0,962.0,70.0,-238.0
243.0,6.0,-46.0,17.0,-651.0,74.0,955.0,63.0,-236.0
243.0,3.0,-39.0,49.0,-653.0,66.0,965.0,68.0,-237.0
243.0,1.0,-42.0,80.0,-651.0,55.0,973.0,58.0,-247.0
248.0,-1.0,-41.0,109.0,-649.0,43.0,973.0,48.0,-256.0
245.0,0.0,-51.0,133.0,-649.0,31.0,977.0,53.0,-267.0
247.0,0.0,-52.0,152.0,-647.0,21.0,979.0,55.0,-268.0
246.0,3.0,-52.0,162.0,-647.0,16.0,972.0,64.0,-271.0
246.0,4.0,-53.0,167.0,-641.0,19.0,973.0,73.0,-273.0
245.0,7.0,-50.0,163.0,-634.0,27.0,971.0,79.0,-268.0
247.0,8.0,-51.0,154.0,-625.0,36.0,977.0,92.0,-265.0
248.0,14.0,-52.0,147.0,-622.0,50.0,981.0,95.0,-265.0
249.0,16.0,-50.0,139.0,-622.0,66.0,982.0,109.0,-266.0
249.0,18.0,-53.0,135.0,-624.0,84.0,981.0,120.0,-270.0
252.0,20.0,-53.0,130.0,-626.0,102.0,983.0,131.0,-280.0
251.0,21.0,-58.0,125.0,-624.0,122.0,990.0,136.0,-300.0
252.0,19.0,-63.0,118.0,-620.0,140.0,987.0,137.0,-316.0
252.0,21.0,-59.0,111.0,-617.0,162.0,992.0,138.0,-327.0
251.0,22.0,-65.0,104.0,-613.0,184.0,996.0,140.0,-329.0
251.0,21.0,-67.0,96.0,-608.0,204.0,987.0,142.0,-336.0
255.0,25.0,-67.0,95.0,-606.0,228.0,1005.0,152.0,-338.0
244.0,25.0,-69.0,97.0,-603.0,262.0,973.0,157.0,-349.0
245.0,25.0,-70.0,107.0,-598.0,286.0,975.0,154.0,-364.0
246.0,27.0,-79.0,124.0,-591.0,312.0,978.0,155.0,-373.0
243.0,23.0,-82.0,138.0,-589.0,348.0,955.0,150.0,-394.0
242.0,23.0,-79.0,152.0,-585.0,377.0,954.0,146.0,-402.0
246.0,20.0,-89.0,161.0,-582.0,405.0,955.0,138.0,-406.0
235.0,17.0,-91.0,166.0,-583.0,439.0,923.0,118.0,-427.0
232.0,14.0,-92.0,174.0,-576.0,455.0,904.0,107.0,-434.0
234.0,14.0,-91.0,179.0,-569.0,470.0,919.0,101.0,-429.0
236.0,10.0,-93.0,176.0,-565.0,487.0,924.0,94.0,-426.0
233.0,7.0,-88.0,168.0,-564.0,503.0,926.0,81.0,-430.0
243.0,11.0,-85.0,154.0,-561.0,515.0,971.0,75.0,-423.0
230.0,3.0,-88.0,132.0,-563.0,537.0,899.0,70.0,-432.0
233.0,-1.0,-88.0,132.0,-554.0,529.0,916.0,51.0,-430.0
238.0,1.0,-93.0,141.0,-542.0,517.0,931.0,57.0,-430.0
240.0,0.0,-92.0,146.0,-532.0,518.0,937.0,55.0,-440.0
234.0,0.0,-89.0,151.0,-521.0,524.0,933.0,52.0,-443.0
235.0,-2.0,-95.0,156.0,-508.0,539.0,927.0,48.0,-451.0
229.0,-4.0,-94.0,163.0,-491.0,557.0,917.0,35.0,-462.0
226.0,-6.0,-94.0,171.0,-473.0,575.0,897.0,18.0,-460.0
227.0,-9.0,-91.0,177.0,-459.0,600.0,923.0,24.0,-462.0
220.0,-17.0,-99.0,179.0,-456.0,615.0,871.0,-11.0,-455.0
223.0,-16.0,-96.0,189.0,-442.0,621.0,874.0,-13.0,-448.0
223.0,-21.0,-92.0,196.0,-434.0,623.0,881.0,-26.0,-454.0
223.0,-22.0,-94.0,195.0,-422.0,626.0,881.0,-29.0,-448.0
224.0,-24.0,-90.0,189.0,-412.0,630.0,889.0,-42.0,-440.0
227.0,-26.0,-89.0,183.0,-404.0,632.0,896.0,-43.0,-426.0
227.0,-24.0,-85.0,172.0,-398.0,634.0,894.0,-52.0,-416.0
228.0,-26.0,-84.0,162.0,-392.0,634.0,897.0,-58.0,-411.0
230.0,-23.0,-81.0,156.0,-389.0,633.0,907.0,-47.0,-403.0
221.0,-30.0,-82.0,144.0,-392.0,639.0,882.0,-61.0,-405.0
225.0,-30.0,-83.0,141.0,-393.0,634.0,880.0,-68.0,-421.0
227.0,-30.0,-87.0,135.0,-387.0,631.0,895.0,-72.0,-422.0
225.0,-32.0,-87.0,128.0,-378.0,626.0,896.0,-76.0,-424.0
230.0,-35.0,-86.0,116.0,-370.0,621.0,901.0,-82.0,-421.0
226.0,-35.0,-88.0,107.0,-362.0,613.0,900.0,-87.0,-429.0
227.0,-33.0,-88.0,100.0,-354.0,608.0,899.0,-82.0,-433.0
228.0,-33.0,-93.0,91.0,-347.0,603.0,903.0,-79.0,-448.0
232.0,-34.0,-96.0,77.0,-345.0,599.0,905.0,-82.0,-458.0
232.0,-31.0,-95.0,61.0,-342.0,609.0,922.0,-72.0,-457.0
226.0,-36.0,-98.0,44.0,-344.0,606.0,888.0,-75.0,-479.0
230.0,-31.0,-101.0,37.0,-333.0,587.0,898.0,-70.0,-485.0
227.0,-31.0,-103.0,21.0,-320.0,571.0,905.0,-66.0,-485.0
229.0,-29.0,-99.0,1.0,-305.0,562.0,906.0,-59.0,-479.0
228.0,-25.0,-98.0,-23.0,-294.0,558.0,903.0,-56.0,-475.0
229.0,-25.0,-101.0,-49.0,-281.0,556.0,913.0,-54.0,-477.0
233.0,-24.0,-102.0,-76.0,-274.0,554.0,921.0,-48.0,-488.0
230.0,-22.0,-102.0,-103.0,-268.0,550.0,916.0,-38.0,-485.0
227.0,-21.0,-106.0,-127.0,-267.0,548.0,909.0,-39.0,-491.0
234.0,-23.0,-104.0,-146.0,-267.0,547.0,915.0,-31.0,-492.0
239.0,-15.0,-105.0,-165.0,-263.0,555.0,932.0,-19.0,-497.0
221.0,-24.0,-103.0,-197.0,-260.0,582.0,881.0,-29.0,-486.0
224.0,-23.0,-105.0,-206.0,-249.0,581.0,881.0,-49.0,-490.0
220.0,-24.0,-107.0,-205.0,-234.0,581.0,879.0,-51.0,-499.0
219.0,-31.0,-105.0,-212.0,-227.0,585.0,872.0,-59.0,-500.0
216.0,-29.0,-111.0,-216.0,-227.0,590.0,865.0,-58.0,-510.0
214.0,-29.0,-109.0,-227.0,-226.0,596.0,852.0,-67.0,-507.0
213.0,-34.0,-105.0,-238.0,-229.0,602.0,856.0,-80.0,-507.0
213.0,-37.0,-108.0,-248.0,-233.0,604.0,842.0,-86.0,-514.0
212.0,-38.0,-112.0,-261.0,-234.0,603.0,841.0,-92.0,-518.0
212.0,-41.0,-112.0,-279.0,-231.0,597.0,843.0,-98.0,-523.0
210.0,-41.0,-115.0,-296.0,-227.0,591.0,842.0,-121.0,-535.0
213.0,-42.0,-117.0,-309.0,-227.0,580.0,843.0,-115.0,-532.0
213.0,-45.0,-119.0,-316.0,-227.0,573.0,840.0,-117.0,-546.0
211.0,-44.0,-121.0,-312.0,-227.0,574.0,854.0,-125.0,-553.0
206.0,-47.0,-123.0,-305.0,-230.0,567.0,815.0,-131.0,-564.0
208.0,-47.0,-125.0,-280.0,-229.0,555.0,826.0,-122.0,-579.0
207.0,-47.0,-126.0,-251.0,-230.0,536.0,822.0,-125.0,-580.0
210.0,-46.0,-128.0,-225.0,-233.0,523.0,823.0,-123.0,-578.0
208.0,-48.0,-125.0,-203.0,-232.0,512.0,819.0,-130.0,-583.0
205.0,-47.0,-124.0,-185.0,-234.0,500.0,814.0,-135.0,-578.0
204.0,-45.0,-126.0,-171.0,-234.0,486.0,819.0,-131.0,-571.0
207.0,-50.0,-124.0,-154.0,-231.0,482.0,818.0,-136.0,-577.0
210.0,-52.0,-127.0,-137.0,-223.0,478.0,830.0,-141.0,-582.0
212.0,-50.0,-125.0,-126.0,-212.0,474.0,827.0,-142.0,-579.0
212.0,-49.0,-123.0,-113.0,-201.0,471.0,838.0,-140.0,-574.0
211.0,-50.0,-122.0,-99.0,-189.0,471.0,837.0,-142.0,-565.0
214.0,-49.0,-119.0,-85.0,-178.0,474.0,841.0,-148.0,-558.0
210.0,-50.0,-121.0,-74.0,-167.0,480.0,833.0,-148.0,-553.0
220.0,-77.0,-127.0,-63.0,-155.0,489.0,854.0,-208.0,-567.0
208.0,-52.0,-122.0,-65.0,-151.0,482.0,827.0,-134.0,-563.0
209.0,-50.0,-124.0,-51.0,-143.0,498.0,830.0,-156.0,-564.0
208.0,-54.0,-123.0,-38.0,-128.0,518.0,823.0,-165.0,-567.0
207.0,-59.0,-123.0,-24.0,-112.0,533.0,821.0,-173.0,-570.0
206.0,-57.0,-126.0,-9.0,-98.0,545.0,816.0,-178.0,-568.0
204.0,-61.0,-123.0,3.0,-85.0,558.0,813.0,-184.0,-570.0
205.0,-60.0,-119.0,11.0,-71.0,571.0,809.0,-185.0,-555.0
204.0,-59.0,-124.0,19.0,-63.0,582.0,812.0,-180.0,-567.0
204.0,-60.0,-122.0,32.0,-59.0,592.0,815.0,-175.0,-563.0
204.0,-55.0,-127.0,55.0,-61.0,604.0,813.0,-162.0,-568.0
207.0,-55.0,-127.0,78.0,-64.0,619.0,819.0,-152.0,-578.0
200.0,-52.0,-126.0,100.0,-59.0,635.0,797.0,-164.0,-575.0
201.0,-53.0,-128.0,128.0,-49.0,646.0,798.0,-152.0,-574.0
204.0,-52.0,-125.0,152.0,-36.0,661.0,800.0,-152.0,-572.0
198.0,-53.0,-128.0,171.0,-23.0,679.0,790.0,-161.0,-571.0
198.0,-58.0,-129.0,190.0,-12.0,699.0,786.0,-163.0,-577.0
198.0,-57.0,-125.0,201.0,3.0,719.0,781.0,-166.0,-590.0
204.0,-54.0,-127.0,206.0,22.0,747.0,811.0,-174.0,-580.0
202.0,-65.0,-121.0,199.0,40.0,780.0,796.0,-194.0,-553.0
197.0,-58.0,-110.0,196.0,34.0,781.0,788.0,-198.0,-541.0
204.0,-59.0,-114.0,216.0,18.0,798.0,828.0,-154.0,-559.0
207.0,-69.0,-120.0,243.0,10.0,839.0,809.0,-206.0,-570.0
195.0,-70.0,-119.0,287.0,5.0,854.0,812.0,-210.0,-568.0
209.0,-67.0,-127.0,335.0,2.0,864.0,814.0,-213.0,-571.0
213.0,-66.0,-127.0,368.0,2.0,876.0,825.0,-221.0,-578.0
202.0,-60.0,-124.0,387.0,7.0,888.0,802.0,-236.0,-570.0
205.0,-79.0,-122.0,406.0,9.0,888.0,799.0,-247.0,-576.0
197.0,-78.0,-122.0,423.0,19.0,890.0,791.0,-248.0,-562.0
198.0,-77.0,-123.0,431.0,36.0,895.0,793.0,-258.0,-564.0
195.0,-87.0,-113.0,427.0,50.0,913.0,776.0,-272.0,-527.0
195.0,-84.0,-115.0,431.0,46.0,917.0,780.0,-293.0,-531.0
200.0,-89.0,-116.0,449.0,41.0,918.0,787.0,-294.0,-528.0
196.0,-90.0,-112.0,472.0,33.0,922.0,782.0,-299.0,-526.0
198.0,-90.0,-114.0,496.0,23.0,931.0,783.0,-302.0,-532.0
193.0,-95.0,-110.0,506.0,18.0,955.0,776.0,-310.0,-524.0
194.0,-100.0,-110.0,523.0,12.0,961.0,775.0,-327.0,-523.0
198.0,-97.0,-109.0,544.0,7.0,963.0,780.0,-336.0,-516.0
196.0,-102.0,-108.0,563.0,3.0,964.0,784.0,-344.0,-518.0
198.0,-105.0,-107.0,581.0,4.0,969.0,782.0,-360.0,-521.0
196.0,-105.0,-108.0,589.0,6.0,972.0,785.0,-366.0,-510.0
203.0,-106.0,-112.0,592.0,5.0,974.0,814.0,-367.0,-517.0
197.0,-113.0,-108.0,589.0,5.0,988.0,796.0,-399.0,-507.0
200.0,-117.0,-108.0,603.0,-8.0,981.0,806.0,-410.0,-509.0
206.0,-128.0,-110.0,631.0,-19.0,974.0,814.0,-437.0,-538.0
203.0,-120.0,-122.0,656.0,-28.0,957.0,801.0,-397.0,-554.0
207.0,-123.0,-124.0,690.0,-19.0,958.0,810.0,-414.0,-563.0
208.0,-126.0,-120.0,718.0,0.0,956.0,814.0,-436.0,-565.0
201.0,-123.0,-119.0,752.0,27.0,957.0,805.0,-427.0,-552.0
201.0,-122.0,-119.0,781.0,56.0,951.0,805.0,-434.0,-547.0
199.0,-125.0,-116.0,798.0,95.0,944.0,787.0,-438.0,-545.0
196.0,-122.0,-113.0,799.0,134.0,944.0,786.0,-432.0,-526.0
193.0,-125.0,-113.0,797.0,166.0,938.0,770.0,-439.0,-515.0
192.0,-126.0,-112.0,804.0,182.0,927.0,765.0,-442.0,-516.0
193.0,-123.0,-107.0,812.0,191.0,919.0,763.0,-439.0,-511.0
191.0,-127.0,-108.0,820.0,197.0,911.0,766.0,-448.0,-507.0
192.0,-131.0,-102.0,820.0,204.0,910.0,762.0,-459.0,-492.0
196.0,-133.0,-101.0,817.0,206.0,913.0,778.0,-466.0,-488.0
194.0,-133.0,-99.0,815.0,205.0,914.0,786.0,-474.0,-471.0
197.0,-138.0,-99.0,817.0,197.0,912.0,790.0,-488.0,-471.0
194.0,-142.0,-99.0,825.0,193.0,909.0,783.0,-497.0,-479.0
195.0,-140.0,-104.0,836.0,190.0,904.0,766.0,-501.0,-489.0
190.0,-139.0,-104.0,842.0,197.0,897.0,752.0,-501.0,-494.0
185.0,-144.0,-103.0,842.0,214.0,891.0,739.0,-507.0,-494.0
186.0,-141.0,-106.0,843.0,232.0,888.0,731.0,-514.0,-494.0
179.0,-142.0,-105.0,847.0,246.0,886.0,714.0,-513.0,-498.0
177.0,-142.0,-107.0,848.0,251.0,887.0,705.0,-509.0,-495.0
175.0,-141.0,-101.0,849.0,253.0,887.0,696.0,-518.0,-488.0
171.0,-142.0,-102.0,848.0,249.0,886.0,688.0,-532.0,-485.0
170.0,-147.0,-99.0,841.0,247.0,885.0,685.0,-537.0,-473.0
169.0,-152.0,-102.0,828.0,246.0,886.0,679.0,-546.0,-475.0
174.0,-159.0,-101.0,817.0,247.0,880.0,678.0,-564.0,-481.0
170.0,-160.0,-101.0,804.0,250.0,873.0,674.0,-590.0,-482.0
168.0,-164.0,-96.0,794.0,259.0,863.0,662.0,-596.0,-476.0
172.0,-170.0,-94.0,788.0,265.0,854.0,678.0,-608.0,-457.0
168.0,-167.0,-96.0,787.0,266.0,845.0,665.0,-610.0,-461.0
170.0,-172.0,-94.0,785.0,273.0,840.0,672.0,-615.0,-444.0
170.0,-168.0,-87.0,783.0,283.0,833.0,673.0,-618.0,-436.0
166.0,-168.0,-90.0,785.0,294.0,830.0,668.0,-621.0,-429.0
165.0,-171.0,-86.0,785.0,299.0,825.0,664.0,-624.0,-413.0
161.0,-172.0,-80.0,782.0,298.0,824.0,656.0,-629.0,-404.0
169.0,-174.0,-85.0,782.0,286.0,823.0,661.0,-623.0,-410.0
162.0,-176.0,-85.0,774.0,278.0,820.0,648.0,-629.0,-410.0
164.0,-174.0,-79.0,767.0,272.0,818.0,648.0,-645.0,-399.0
162.0,-175.0,-82.0,760.0,268.0,812.0,648.0,-644.0,-401.0
158.0,-180.0,-81.0,751.0,272.0,810.0,644.0,-651.0,-399.0
161.0,-178.0,-78.0,738.0,277.0,806.0,633.0,-650.0,-392.0
157.0,-179.0,-76.0,722.0,288.0,805.0,633.0,-665.0,-385.0
155.0,-183.0,-79.0,702.0,296.0,806.0,624.0,-669.0,-383.0
156.0,-186.0,-76.0,688.0,298.0,805.0,624.0,-680.0,-379.0
153.0,-185.0,-77.0,676.0,296.0,805.0,621.0,-682.0,-383.0
155.0,-189.0,-79.0,669.0,294.0,804.0,617.0,-690.0,-385.0
151.0,-188.0,-70.0,652.0,302.0,805.0,628.0,-694.0,-378.0
148.0,-188.0,-75.0,656.0,295.0,799.0,601.0,-695.0,-378.0
149.0,-191.0,-75.0,655.0,291.0,790.0,591.0,-696.0,-375.0
143.0,-191.0,-75.0,651.0,290.0,788.0,576.0,-707.0,-377.0
142.0,-195.0,-68.0,635.0,294.0,791.0,572.0,-724.0,-362.0
143.0,-197.0,-70.0,615.0,294.0,788.0,571.0,-736.0,-359.0
141.0,-201.0,-67.0,598.0,287.0,779.0,565.0,-749.0,-339.0
138.0,-203.0,-66.0,585.0,276.0,769.0,567.0,-752.0,-334.0
142.0,-206.0,-66.0,577.0,264.0,756.0,575.0,-761.0,-347.0
142.0,-207.0,-69.0,571.0,251.0,741.0,577.0,-754.0,-361.0
140.0,-199.0,-71.0,564.0,248.0,724.0,563.0,-752.0,-354.0
143.0,-204.0,-74.0,569.0,249.0,714.0,556.0,-747.0,-370.0
137.0,-203.0,-76.0,572.0,254.0,708.0,553.0,-754.0,-366.0
133.0,-203.0,-71.0,568.0,252.0,695.0,542.0,-755.0,-359.0
134.0,-202.0,-67.0,569.0,247.0,688.0,538.0,-757.0,-364.0
131.0,-201.0,-72.0,563.0,242.0,682.0,535.0,-758.0,-361.0
132.0,-203.0,-68.0,554.0,238.0,676.0,533.0,-760.0,-354.0
132.0,-206.0,-67.0,540.0,230.0,673.0,525.0,-757.0,-346.0
132.0,-204.0,-67.0,530.0,224.0,673.0,526.0,-753.0,-349.0
132.0,-203.0,-67.0,517.0,218.0,670.0,533.0,-752.0,-352.0
129.0,-201.0,-67.0,498.0,210.0,664.0,522.0,-757.0,-341.0
130.0,-204.0,-65.0,482.0,207.0,659.0,517.0,-758.0,-330.0
132.0,-204.0,-66.0,468.0,208.0,660.0,537.0,-762.0,-331.0
137.0,-206.0,-64.0,456.0,211.0,663.0,549.0,-765.0,-326.0
136.0,-204.0,-63.0,442.0,210.0,663.0,556.0,-762.0,-320.0
139.0,-207.0,-60.0,431.0,209.0,665.0,555.0,-761.0,-313.0
140.0,-205.0,-62.0,418.0,207.0,666.0,557.0,-759.0,-312.0
141.0,-204.0,-58.0,403.0,209.0,665.0,557.0,-757.0,-310.0
143.0,-203.0,-59.0,392.0,213.0,667.0,566.0,-763.0,-305.0
139.0,-206.0,-61.0,379.0,215.0,671.0,557.0,-765.0,-298.0
136.0,-204.0,-59.0,362.0,218.0,670.0,558.0,-759.0,-301.0
135.0,-205.0,-59.0,340.0,217.0,668.0,548.0,-764.0,-290.0
134.0,-206.0,-52.0,318.0,216.0,670.0,539.0,-764.0,-288.0
132.0,-204.0,-57.0,298.0,213.0,669.0,538.0,-769.0,-289.0
129.0,-205.0,-52.0,273.0,210.0,672.0,528.0,-776.0,-277.0
129.0,-207.0,-49.0,252.0,208.0,676.0,522.0,-781.0,-273.0
127.0,-212.0,-48.0,238.0,205.0,681.0,512.0,-791.0,-268.0
127.0,-211.0,-42.0,226.0,203.0,684.0,513.0,-805.0,-266.0
128.0,-213.0,-47.0,217.0,200.0,687.0,509.0,-811.0,-261.0
127.0,-218.0,-45.0,204.0,193.0,688.0,511.0,-818.0,-265.0
123.0,-217.0,-48.0,186.0,184.0,688.0,504.0,-813.0,-261.0
125.0,-219.0,-48.0,171.0,178.0,689.0,502.0,-818.0,-269.0
122.0,-217.0,-51.0,150.0,178.0,688.0,495.0,-816.0,-270.0
125.0,-218.0,-52.0,130.0,179.0,688.0,492.0,-819.0,-273.0
126.0,-220.0,-50.0,110.0,184.0,689.0,500.0,-820.0,-270.0
123.0,-221.0,-52.0,92.0,190.0,690.0,498.0,-830.0,-269.0
124.0,-224.0,-53.0,78.0,195.0,687.0,497.0,-836.0,-274.0
123.0,-226.0,-53.0,63.0,198.0,682.0,487.0,-842.0,-273.0
119.0,-223.0,-54.0,52.0,205.0,680.0,487.0,-842.0,-275.0
120.0,-230.0,-56.0,45.0,212.0,682.0,481.0,-852.0,-282.0
121.0,-229.0,-57.0,40.0,224.0,683.0,472.0,-856.0,-284.0
119.0,-232.0,-55.0,37.0,237.0,684.0,471.0,-861.0,-282.0
119.0,-229.0,-55.0,35.0,250.0,683.0,470.0,-864.0,-301.0
117.0,-232.0,-60.0,31.0,270.0,682.0,464.0,-866.0,-289.0
114.0,-229.0,-56.0,27.0,287.0,678.0,457.0,-866.0,-287.0
117.0,-234.0,-56.0,22.0,300.0,674.0,461.0,-871.0,-285.0
116.0,-236.0,-53.0,19.0,313.0,672.0,464.0,-867.0,-281.0
116.0,-230.0,-52.0,16.0,327.0,673.0,459.0,-874.0,-271.0
117.0,-234.0,-52.0,12.0,339.0,667.0,462.0,-872.0,-268.0
118.0,-233.0,-47.0,2.0,346.0,659.0,459.0,-869.0,-263.0
107.0,-231.0,-43.0,-5.0,355.0,656.0,456.0,-868.0,-248.0
113.0,-232.0,-44.0,-13.0,360.0,652.0,455.0,-870.0,-243.0
116.0,-235.0,-45.0,-14.0,365.0,649.0,463.0,-873.0,-235.0
117.0,-238.0,-40.0,-16.0,366.0,641.0,463.0,-881.0,-232.0
113.0,-236.0,-37.0,-15.0,365.0,634.0,463.0,-884.0,-229.0
112.0,-235.0,-38.0,-11.0,364.0,628.0,467.0,-882.0,-217.0
117.0,-236.0,-37.0,-4.0,363.0,622.0,458.0,-878.0,-214.0
112.0,-235.0,-36.0,5.0,366.0,618.0,457.0,-884.0,-216.0
112.0,-239.0,-34.0,17.0,373.0,614.0,448.0,-887.0,-212.0
110.0,-237.0,-36.0,34.0,380.0,610.0,445.0,-894.0,-199.0
108.0,-241.0,-35.0,56.0,386.0,601.0,438.0,-891.0,-193.0
108.0,-241.0,-27.0,79.0,391.0,593.0,431.0,-902.0,-188.0
105.0,-239.0,-30.0,102.0,393.0,586.0,425.0,-893.0,-185.0
105.0,-241.0,-28.0,122.0,392.0,577.0,427.0,-911.0,-178.0
102.0,-244.0,-30.0,138.0,392.0,565.0,416.0,-907.0,-181.0
102.0,-241.0,-30.0,152.0,393.0,551.0,411.0,-905.0,-185.0
98.0,-245.0,-27.0,163.0,397.0,543.0,405.0,-916.0,-179.0
97.0,-244.0,-25.0,168.0,400.0,533.0,402.0,-912.0,-175.0
98.0,-242.0,-31.0,175.0,399.0,528.0,395.0,-919.0,-180.0
97.0,-247.0,-30.0,184.0,400.0,529.0,391.0,-928.0,-181.0
93.0,-247.0,-28.0,191.0,394.0,524.0,390.0,-930.0,-182.0
92.0,-247.0,-30.0,195.0,386.0,521.0,382.0,-925.0,-190.0
93.0,-253.0,-33.0,200.0,379.0,519.0,384.0,-935.0,-190.0
88.0,-252.0,-34.0,206.0,367.0,518.0,373.0,-929.0,-202.0
92.0,-250.0,-34.0,214.0,358.0,518.0,370.0,-932.0,-199.0
88.0,-244.0,-37.0,219.0,350.0,517.0,367.0,-925.0,-207.0
86.0,-244.0,-36.0,221.0,344.0,518.0,358.0,-920.0,-210.0
87.0,-247.0,-35.0,218.0,339.0,516.0,364.0,-923.0,-205.0
85.0,-247.0,-35.0,213.0,332.0,509.0,357.0,-916.0,-211.0
85.0,-242.0,-40.0,208.0,329.0,511.0,351.0,-917.0,-216.0
86.0,-250.0,-36.0,207.0,334.0,512.0,354.0,-923.0,-215.0
81.0,-242.0,-40.0,189.0,330.0,494.0,337.0,-909.0,-228.0
73.0,-241.0,-44.0,172.0,329.0,482.0,320.0,-910.0,-224.0
72.0,-241.0,-42.0,158.0,330.0,473.0,306.0,-911.0,-227.0
71.0,-247.0,-39.0,149.0,333.0,469.0,307.0,-921.0,-228.0
71.0,-245.0,-43.0,146.0,335.0,465.0,306.0,-923.0,-235.0
72.0,-251.0,-41.0,143.0,337.0,462.0,308.0,-933.0,-230.0
72.0,-253.0,-35.0,143.0,334.0,460.0,309.0,-944.0,-226.0
78.0,-252.0,-39.0,146.0,333.0,456.0,322.0,-936.0,-227.0
78.0,-252.0,-37.0,152.0,337.0,451.0,325.0,-941.0,-217.0
76.0,-248.0,-39.0,151.0,338.0,441.0,329.0,-929.0,-209.0
80.0,-249.0,-33.0,141.0,346.0,439.0,324.0,-928.0,-205.0
78.0,-248.0,-31.0,131.0,350.0,437.0,332.0,-931.0,-200.0
83.0,-247.0,-33.0,118.0,350.0,431.0,336.0,-925.0,-188.0
80.0,-248.0,-26.0,105.0,350.0,426.0,341.0,-931.0,-175.0
77.0,-247.0,-25.0,90.0,341.0,422.0,329.0,-918.0,-168.0
80.0,-245.0,-20.0,78.0,334.0,422.0,346.0,-927.0,-162.0
80.0,-245.0,-23.0,68.0,318.0,419.0,335.0,-922.0,-149.0
81.0,-247.0,-25.0,62.0,297.0,422.0,326.0,-895.0,-154.0
84.0,-251.0,-20.0,61.0,288.0,425.0,350.0,-938.0,-155.0
81.0,-249.0,-25.0,52.0,272.0,414.0,340.0,-924.0,-157.0
82.0,-247.0,-26.0,48.0,259.0,407.0,345.0,-928.0,-174.0
81.0,-247.0,-27.0,44.0,252.0,404.0,338.0,-924.0,-175.0
79.0,-245.0,-30.0,41.0,244.0,403.0,338.0,-917.0,-174.0
76.0,-244.0,-31.0,42.0,239.0,401.0,336.0,-921.0,-173.0
83.0,-244.0,-26.0,42.0,238.0,401.0,333.0,-922.0,-181.0
82.0,-247.0,-27.0,39.0,235.0,398.0,346.0,-921.0,-179.0
82.0,-244.0,-26.0,32.0,228.0,393.0,339.0,-914.0,-177.0
79.0,-246.0,-27.0,30.0,223.0,389.0,333.0,-914.0,-177.0
78.0,-246.0,-24.0,35.0,218.0,389.0,332.0,-920.0,-168.0
77.0,-243.0,-27.0,43.0,215.0,388.0,329.0,-914.0,-164.0
74.0,-249.0,-24.0,50.0,207.0,385.0,329.0,-930.0,-155.0
78.0,-244.0,-26.0,57.0,196.0,379.0,330.0,-927.0,-156.0
77.0,-246.0,-25.0,67.0,189.0,381.0,334.0,-916.0,-155.0
81.0,-249.0,-25.0,79.0,189.0,387.0,335.0,-923.0,-152.0
80.0,-250.0,-21.0,94.0,187.0,388.0,338.0,-935.0,-147.0
83.0,-248.0,-19.0,111.0,182.0,384.0,340.0,-933.0,-147.0
79.0,-252.0,-20.0,128.0,179.0,388.0,336.0,-930.0,-134.0
83.0,-252.0,-26.0,152.0,177.0,389.0,354.0,-940.0,-151.0
83.0,-248.0,-24.0,156.0,173.0,378.0,355.0,-929.0,-158.0
81.0,-244.0,-25.0,155.0,176.0,366.0,347.0,-929.0,-150.0
85.0,-246.0,-25.0,155.0,176.0,358.0,352.0,-924.0,-158.0
83.0,-244.0,-24.0,147.0,179.0,354.0,342.0,-915.0,-152.0
81.0,-245.0,-20.0,141.0,183.0,351.0,340.0,-920.0,-145.0
80.0,-247.0,-19.0,129.0,179.0,345.0,331.0,-923.0,-144.0
78.0,-245.0,-20.0,114.0,170.0,336.0,336.0,-920.0,-143.0
81.0,-248.0,-15.0,101.0,164.0,335.0,330.0,-925.0,-135.0
77.0,-250.0,-17.0,91.0,155.0,332.0,327.0,-935.0,-136.0
76.0,-250.0,-17.0,81.0,144.0,323.0,327.0,-940.0,-135.0
78.0,-254.0,-19.0,65.0,132.0,312.0,321.0,-949.0,-134.0
78.0,-254.0,-20.0,51.0,121.0,302.0,318.0,-945.0,-138.0
72.0,-254.0,-17.0,38.0,118.0,297.0,317.0,-958.0,-133.0
72.0,-254.0,-16.0,23.0,119.0,292.0,310.0,-964.0,-139.0
74.0,-256.0,-18.0,7.0,123.0,288.0,309.0,-969.0,-135.0
70.0,-260.0,-15.0,-11.0,123.0,283.0,301.0,-979.0,-128.0
67.0,-260.0,-13.0,-27.0,119.0,275.0,294.0,-984.0,-125.0
66.0,-263.0,-13.0,-37.0,119.0,274.0,298.0,-992.0,-122.0
68.0,-261.0,-16.0,-38.0,121.0,270.0,288.0,-987.0,-122.0
68.0,-260.0,-16.0,-36.0,121.0,270.0,284.0,-972.0,-123.0
66.0,-259.0,-12.0,-27.0,123.0,274.0,280.0,-983.0,-120.0
65.0,-261.0,-13.0,-11.0,124.0,279.0,278.0,-987.0,-116.0
65.0,-262.0,-13.0,7.0,124.0,284.0,276.0,-979.0,-116.0
62.0,-261.0,-12.0,28.0,123.0,286.0,274.0,-986.0,-111.0
61.0,-259.0,-7.0,47.0,119.0,289.0,269.0,-980.0,-109.0
63.0,-257.0,-11.0,69.0,113.0,291.0,265.0,-971.0,-111.0
62.0,-258.0,-13.0,98.0,111.0,307.0,260.0,-973.0,-107.0
61.0,-259.0,-10.0,133.0,112.0,321.0,264.0,-981.0,-113.0
61.0,-259.0,-14.0,157.0,104.0,319.0,264.0,-972.0,-111.0
63.0,-263.0,-15.0,175.0,98.0,323.0,261.0,-980.0,-114.0
63.0,-255.0,-18.0,195.0,96.0,330.0,259.0,-955.0,-127.0
60.0,-255.0,-17.0,218.0,102.0,343.0,257.0,-976.0,-124.0
62.0,-259.0,-16.0,240.0,103.0,349.0,253.0,-963.0,-130.0
61.0,-257.0,-18.0,260.0,102.0,353.0,257.0,-972.0,-136.0
59.0,-256.0,-21.0,278.0,102.0,355.0,259.0,-961.0,-146.0
59.0,-255.0,-20.0,289.0,102.0,354.0,259.0,-963.0,-138.0
61.0,-256.0,-16.0,297.0,96.0,345.0,252.0,-961.0,-145.0
60.0,-254.0,-20.0,299.0,91.0,342.0,254.0,-956.0,-142.0
60.0,-254.0,-19.0,297.0,88.0,346.0,250.0,-961.0,-145.0
60.0,-253.0,-22.0,289.0,83.0,347.0,249.0,-948.0,-155.0
58.0,-256.0,-25.0,272.0,82.0,356.0,250.0,-964.0,-158.0
56.0,-255.0,-23.0,256.0,80.0,360.0,249.0,-964.0,-156.0
58.0,-257.0,-19.0,244.0,74.0,362.0,257.0,-973.0,-162.0
61.0,-255.0,-20.0,236.0,74.0,368.0,256.0,-968.0,-160.0
56.0,-263.0,-20.0,231.0,81.0,377.0,247.0,-993.0,-147.0
57.0,-262.0,-23.0,237.0,83.0,380.0,245.0,-996.0,-155.0
57.0,-266.0,-22.0,246.0,93.0,384.0,238.0,-997.0,-145.0
53.0,-266.0,-20.0,264.0,106.0,389.0,233.0,-1003.0,-146.0
50.0,-268.0,-19.0,289.0,125.0,392.0,223.0,-1016.0,-138.0
49.0,-272.0,-13.0,322.0,143.0,394.0,209.0,-1034.0,-125.0
47.0,-269.0,-14.0,363.0,157.0,389.0,204.0,-1024.0,-126.0
46.0,-269.0,-11.0,400.0,176.0,387.0,206.0,-1014.0,-118.0
44.0,-265.0,-9.0,443.0,198.0,383.0,199.0,-1018.0,-113.0
44.0,-268.0,-9.0,483.0,216.0,372.0,189.0,-1005.0,-107.0
43.0,-264.0,-9.0,517.0,231.0,360.0,184.0,-989.0,-105.0
41.0,-262.0,-5.0,540.0,244.0,346.0,179.0,-992.0,-82.0
37.0,-260.0,-4.0,556.0,249.0,331.0,171.0,-984.0,-83.0
34.0,-255.0,-6.0,562.0,254.0,316.0,138.0,-927.0,-63.0
42.0,-253.0,-7.0,569.0,253.0,320.0,176.0,-971.0,-82.0
38.0,-255.0,-5.0,558.0,260.0,312.0,170.0,-960.0,-78.0
38.0,-255.0,0.0,536.0,263.0,302.0,171.0,-960.0,-66.0
37.0,-251.0,0.0,510.0,261.0,294.0,172.0,-954.0,-64.0
32.0,-254.0,2.0,477.0,256.0,291.0,166.0,-959.0,-61.0
38.0,-256.0,3.0,443.0,246.0,287.0,164.0,-974.0,-57.0
35.0,-253.0,1.0,408.0,231.0,285.0,161.0,-980.0,-45.0
35.0,-255.0,4.0,374.0,213.0,285.0,165.0,-970.0,-50.0
32.0,-254.0,-2.0,341.0,200.0,292.0,163.0,-960.0,-57.0
36.0,-257.0,1.0,317.0,191.0,303.0,171.0,-962.0,-62.0
36.0,-259.0,0.0,295.0,189.0,321.0,167.0,-982.0,-53.0
34.0,-261.0,2.0,273.0,187.0,333.0,166.0,-1007.0,-47.0
35.0,-265.0,0.0,254.0,173.0,338.0,170.0,-1008.0,-56.0
33.0,-265.0,5.0,238.0,160.0,347.0,152.0,-1003.0,-29.0
35.0,-267.0,3.0,232.0,138.0,350.0,166.0,-1038.0,-57.0
34.0,-269.0,-1.0,213.0,117.0,342.0,164.0,-1037.0,-53.0
37.0,-269.0,-1.0,198.0,101.0,333.0,164.0,-1033.0,-51.0
35.0,-269.0,2.0,186.0,92.0,327.0,166.0,-1035.0,-57.0
38.0,-271.0,5.0,177.0,88.0,328.0,170.0,-1034.0,-61.0
37.0,-272.0,2.0,169.0,88.0,328.0,172.0,-1035.0,-59.0
38.0,-272.0,1.0,161.0,89.0,322.0,167.0,-1032.0,-49.0
37.0,-269.0,2.0,152.0,87.0,314.0,168.0,-1031.0,-47.0
32.0,-268.0,2.0,145.0,83.0,302.0,164.0,-1028.0,-35.0
38.0,-267.0,4.0,141.0,80.0,292.0,167.0,-1025.0,-35.0
36.0,-269.0,6.0,135.0,83.0,286.0,156.0,-1024.0,-35.0
33.0,-266.0,4.0,133.0,85.0,284.0,154.0,-1005.0,-24.0
35.0,-268.0,11.0,132.0,89.0,284.0,154.0,-1003.0,-24.0
35.0,-265.0,10.0,136.0,94.0,284.0,157.0,-1015.0,-23.0
30.0,-265.0,11.0,142.0,96.0,283.0,154.0,-1015.0,-16.0
30.0,-268.0,11.0,146.0,99.0,284.0,150.0,-1011.0,-19.0
33.0,-264.0,11.0,152.0,102.0,285.0,153.0,-1018.0,-14.0
31.0,-271.0,9.0,153.0,104.0,289.0,156.0,-1036.0,-9.0
33.0,-267.0,13.0,153.0,101.0,284.0,146.0,-1028.0,-12.0
31.0,-270.0,9.0,152.0,100.0,283.0,156.0,-1029.0,-12.0
29.0,-268.0,8.0,150.0,107.0,278.0,151.0,-1029.0,-16.0
32.0,-269.0,7.0,146.0,112.0,267.0,155.0,-1032.0,-17.0
31.0,-269.0,7.0,138.0,118.0,255.0,146.0,-1030.0,-22.0
30.0,-268.0,5.0,125.0,125.0,240.0,145.0,-1018.0,-28.0
28.0,-261.0,8.0,108.0,132.0,219.0,131.0,-998.0,-33.0
23.0,-259.0,5.0,90.0,139.0,200.0,127.0,-991.0,-34.0
22.0,-257.0,7.0,70.0,147.0,183.0,115.0,-975.0,-34.0
24.0,-256.0,6.0,48.0,156.0,171.0,112.0,-963.0,-36.0
20.0,-253.0,6.0,27.0,168.0,162.0,103.0,-950.0,-35.0
16.0,-254.0,5.0,10.0,179.0,159.0,98.0,-953.0,-30.0
15.0,-253.0,7.0,-5.0,185.0,157.0,94.0,-962.0,-26.0
19.0,-252.0,5.0,-17.0,184.0,159.0,96.0,-952.0,-24.0
15.0,-255.0,10.0,-22.0,189.0,170.0,85.0,-961.0,-14.0
14.0,-256.0,8.0,-22.0,189.0,185.0,92.0,-973.0,-14.0
17.0,-262.0,12.0,-19.0,187.0,203.0,82.0,-983.0,-13.0
14.0,-263.0,11.0,-9.0,182.0,219.0,81.0,-994.0,-7.0
14.0,-267.0,10.0,-1.0,172.0,238.0,78.0,-1015.0,-3.0
13.0,-265.0,15.0,6.0,160.0,254.0,77.0,-1025.0,-3.0
12.0,-271.0,16.0,14.0,151.0,270.0,73.0,-1036.0,-3.0
12.0,-274.0,15.0,25.0,146.0,281.0,74.0,-1048.0,-5.0
14.0,-277.0,15.0,39.0,139.0,286.0,73.0,-1060.0,-1.0
11.0,-279.0,14.0,53.0,137.0,288.0,71.0,-1063.0,-5.0
11.0,-279.0,12.0,69.0,135.0,287.0,78.0,-1062.0,-8.0
12.0,-280.0,10.0,83.0,137.0,278.0,70.0,-1064.0,-12.0
11.0,-277.0,10.0,95.0,137.0,268.0,68.0,-1060.0,-20.0
11.0,-278.0,5.0,104.0,135.0,254.0,68.0,-1057.0,-16.0
9.0,-272.0,5.0,110.0,134.0,240.0,68.0,-1052.0,-24.0
9.0,-269.0,8.0,110.0,132.0,222.0,61.0,-1047.0,-24.0
8.0,-265.0,3.0,107.0,131.0,205.0,60.0,-1027.0,-23.0
8.0,-264.0,7.0,103.0,127.0,185.0,51.0,-1016.0,-27.0
5.0,-263.0,6.0,97.0,127.0,168.0,53.0,-1002.0,-20.0
7.0,-259.0,7.0,94.0,127.0,152.0,49.0,-986.0,-21.0
5.0,-257.0,11.0,92.0,127.0,141.0,48.0,-986.0,-18.0
5.0,-256.0,13.0,93.0,131.0,130.0,44.0,-981.0,-14.0
8.0,-259.0,10.0,93.0,130.0,123.0,43.0,-975.0,-7.0
3.0,-256.0,10.0,96.0,130.0,118.0,41.0,-968.0,-13.0
5.0,-257.0,10.0,97.0,130.0,116.0,49.0,-968.0,-8.0
3.0,-256.0,10.0,98.0,133.0,123.0,43.0,-976.0,-13.0
1.0,-258.0,9.0,95.0,135.0,129.0,51.0,-974.0,-9.0
5.0,-262.0,10.0,91.0,136.0,132.0,42.0,-982.0,-19.0
3.0,-260.0,10.0,83.0,133.0,134.0,47.0,-991.0,-18.0
3.0,-260.0,10.0,74.0,128.0,141.0,40.0,-995.0,-16.0
2.0,-265.0,11.0,66.0,123.0,145.0,38.0,-1000.0,-12.0
3.0,-266.0,13.0,63.0,117.0,148.0,30.0,-1010.0,-18.0
3.0,-269.0,7.0,59.0,107.0,148.0,37.0,-1018.0,-13.0
2.0,-267.0,8.0,56.0,98.0,149.0,34.0,-1021.0,-21.0
0.0,-267.0,6.0,56.0,90.0,148.0,29.0,-1027.0,-20.0
0.0,-267.0,5.0,57.0,80.0,149.0,31.0,-1031.0,-19.0
0.0,-268.0,10.0,61.0,72.0,149.0,33.0,-1028.0,-13.0
0.0,-269.0,8.0,64.0,64.0,146.0,32.0,-1029.0,-18.0
3.0,-269.0,11.0,68.0,58.0,145.0,28.0,-1029.0,-11.0
3.0,-271.0,10.0,72.0,51.0,140.0,34.0,-1029.0,-16.0
1.0,-264.0,12.0,77.0,47.0,138.0,33.0,-1029.0,-7.0
3.0,-268.0,14.0,80.0,41.0,134.0,33.0,-1025.0,-9.0
4.0,-266.0,13.0,84.0,37.0,128.0,37.0,-1018.0,-4.0
3.0,-265.0,13.0,87.0,38.0,124.0,42.0,-1019.0,0.0
3.0,-264.0,17.0,91.0,38.0,118.0,40.0,-1021.0,-3.0
3.0,-265.0,13.0,92.0,38.0,110.0,44.0,-1019.0,2.0
5.0,-263.0,16.0,93.0,35.0,101.0,46.0,-1012.0,1.0
-1.0,-256.0,19.0,91.0,36.0,100.0,42.0,-990.0,0.0
9.0,-268.0,13.0,98.0,39.0,111.0,63.0,-1023.0,-8.0
7.0,-263.0,14.0,92.0,49.0,102.0,57.0,-1002.0,1.0
8.0,-265.0,18.0,83.0,55.0,94.0,58.0,-1001.0,11.0
8.0,-264.0,14.0,79.0,59.0,88.0,60.0,-1001.0,15.0
10.0,-263.0,18.0,77.0,62.0,82.0,63.0,-996.0,15.0
7.0,-261.0,20.0,74.0,69.0,78.0,69.0,-997.0,16.0
12.0,-264.0,19.0,72.0,74.0,75.0,70.0,-997.0,21.0
13.0,-262.0,17.0,72.0,80.0,71.0,76.0,-1002.0,21.0
16.0,-265.0,18.0,69.0,84.0,67.0,79.0,-997.0,25.0
14.0,-263.0,19.0,70.0,87.0,63.0,74.0,-1001.0,24.0
12.0,-267.0,22.0,74.0,94.0,60.0,76.0,-1005.0,24.0
12.0,-262.0,20.0,79.0,98.0,56.0,72.0,-1006.0,28.0
15.0,-262.0,18.0,84.0,101.0,52.0,72.0,-1002.0,32.0
11.0,-265.0,27.0,91.0,103.0,49.0,77.0,-1005.0,31.0
12.0,-262.0,21.0,98.0,104.0,44.0,73.0,-1020.0,31.0
11.0,-264.0,22.0,104.0,105.0,42.0,72.0,-1017.0,26.0
13.0,-266.0,21.0,110.0,106.0,39.0,77.0,-1013.0,27.0
9.0,-265.0,21.0,116.0,109.0,33.0,70.0,-1010.0,31.0
11.0,-263.0,22.0,119.0,107.0,25.0,74.0,-1025.0,36.0
13.0,-262.0,20.0,119.0,106.0,17.0,77.0,-1002.0,27.0
13.0,-262.0,20.0,116.0,113.0,17.0,78.0,-1002.0,33.0
11.0,-262.0,21.0,112.0,118.0,17.0,69.0,-999.0,27.0
14.0,-262.0,22.0,103.0,123.0,19.0,74.0,-999.0,30.0
15.0,-264.0,19.0,91.0,126.0,19.0,64.0,-997.0,32.0
10.0,-261.0,25.0,81.0,133.0,23.0,66.0,-991.0,30.0
10.0,-262.0,24.0,69.0,135.0,23.0,56.0,-999.0,37.0
9.0,-262.0,22.0,59.0,138.0,25.0,58.0,-995.0,37.0
5.0,-264.0,24.0,52.0,140.0,26.0,54.0,-1002.0,37.0
6.0,-263.0,24.0,47.0,142.0,26.0,52.0,-1010.0,40.0
6.0,-263.0,24.0,44.0,143.0,26.0,51.0,-1014.0,50.0
6.0,-266.0,27.0,44.0,143.0,26.0,49.0,-1010.0,44.0
7.0,-268.0,24.0,49.0,140.0,23.0,44.0,-1018.0,49.0
6.0,-266.0,27.0,54.0,140.0,22.0,47.0,-1021.0,53.0
3.0,-264.0,23.0,61.0,138.0,21.0,45.0,-1025.0,56.0
3.0,-267.0,27.0,67.0,137.0,18.0,39.0,-1006.0,55.0
3.0,-269.0,28.0,76.0,136.0,15.0,42.0,-1018.0,51.0
1.0,-264.0,28.0,84.0,135.0,14.0,36.0,-1012.0,54.0
2.0,-264.0,27.0,90.0,134.0,14.0,33.0,-1014.0,58.0
1.0,-265.0,27.0,94.0,132.0,10.0,36.0,-1012.0,52.0
2.0,-264.0,30.0,95.0,128.0,6.0,34.0,-999.0,56.0
3.0,-259.0,28.0,97.0,127.0,10.0,37.0,-990.0,50.0
3.0,-260.0,25.0,97.0,131.0,14.0,25.0,-996.0,57.0
2.0,-258.0,22.0,96.0,132.0,17.0,34.0,-994.0,53.0
2.0,-261.0,25.0,93.0,136.0,18.0,34.0,-992.0,53.0
3.0,-260.0,25.0,89.0,136.0,19.0,35.0,-991.0,50.0
2.0,-262.0,26.0,87.0,138.0,19.0,34.0,-993.0,50.0
12.0,-267.0,21.0,92.0,136.0,25.0,46.0,-1021.0,42.0
4.0,-265.0,28.0,97.0,137.0,24.0,42.0,-1019.0,46.0
1.0,-264.0,24.0,90.0,139.0,13.0,41.0,-1003.0,42.0
2.0,-265.0,27.0,89.0,136.0,7.0,40.0,-1018.0,42.0
5.0,-267.0,22.0,91.0,134.0,2.0,38.0,-1015.0,43.0
4.0,-267.0,19.0,92.0,130.0,-2.0,46.0,-1023.0,39.0
6.0,-266.0,25.0,92.0,126.0,-8.0,47.0,-1019.0,37.0
4.0,-266.0,23.0,90.0,123.0,-11.0,46.0,-1022.0,38.0
5.0,-266.0,21.0,87.0,118.0,-14.0,50.0,-1016.0,39.0
8.0,-266.0,20.0,83.0,114.0,-17.0,52.0,-1018.0,39.0
10.0,-264.0,22.0,76.0,111.0,-22.0,61.0,-1024.0,41.0
8.0,-267.0,26.0,70.0,108.0,-24.0,68.0,-1016.0,39.0
8.0,-266.0,25.0,64.0,104.0,-28.0,70.0,-1022.0,45.0
10.0,-265.0,26.0,59.0,100.0,-31.0,73.0,-1012.0,53.0
10.0,-266.0,22.0,52.0,98.0,-32.0,68.0,-1020.0,50.0
9.0,-263.0,28.0,49.0,94.0,-37.0,73.0,-1006.0,55.0
9.0,-265.0,29.0,47.0,92.0,-42.0,72.0,-1018.0,57.0
9.0,-263.0,30.0,45.0,88.0,-46.0,73.0,-1014.0,57.0
14.0,-266.0,30.0,45.0,85.0,-49.0,67.0,-1003.0,64.0
9.0,-263.0,33.0,45.0,82.0,-51.0,70.0,-1012.0,59.0
8.0,-265.0,27.0,46.0,76.0,-58.0,64.0,-1011.0,64.0
9.0,-262.0,30.0,48.0,73.0,-63.0,67.0,-1002.0,62.0
10.0,-264.0,27.0,48.0,67.0,-68.0,64.0,-1001.0,63.0
9.0,-264.0,24.0,49.0,62.0,-71.0,67.0,-996.0,60.0
10.0,-262.0,25.0,48.0,57.0,-75.0,57.0,-997.0,59.0
10.0,-264.0,26.0,45.0,53.0,-78.0,61.0,-1000.0,54.0
9.0,-263.0,28.0,43.0,49.0,-82.0,66.0,-997.0,58.0
10.0,-265.0,30.0,40.0,46.0,-84.0,56.0,-1000.0,56.0
8.0,-262.0,28.0,37.0,42.0,-87.0,56.0,-995.0,55.0
6.0,-261.0,28.0,36.0,38.0,-90.0,54.0,-1004.0,61.0
7.0,-262.0,31.0,37.0,33.0,-91.0,57.0,-1001.0,62.0
7.0,-265.0,27.0,39.0,30.0,-90.0,53.0,-1000.0,61.0
5.0,-262.0,33.0,41.0,27.0,-90.0,53.0,-1005.0,61.0
5.0,-262.0,32.0,41.0,25.0,-89.0,50.0,-1001.0,59.0
6.0,-264.0,31.0,40.0,24.0,-89.0,53.0,-1012.0,61.0
6.0,-264.0,29.0,35.0,24.0,-89.0,50.0,-1011.0,70.0
8.0,-268.0,30.0,32.0,25.0,-88.0,50.0,-1021.0,56.0
10.0,-265.0,29.0,28.0,27.0,-89.0,50.0,-1011.0,62.0
6.0,-265.0,30.0,27.0,32.0,-90.0,57.0,-1017.0,60.0
7.0,-266.0,30.0,25.0,35.0,-89.0,57.0,-1029.0,60.0
11.0,-267.0,27.0,26.0,37.0,-89.0,62.0,-1024.0,61.0
9.0,-268.0,29.0,29.0,38.0,-90.0,64.0,-1026.0,58.0
11.0,-267.0,28.0,32.0,44.0,-90.0,61.0,-1021.0,62.0
9.0,-266.0,30.0,37.0,47.0,-91.0,62.0,-1018.0,59.0
7.0,-265.0,28.0,42.0,51.0,-91.0,68.0,-1019.0,59.0
11.0,-267.0,26.0,49.0,57.0,-91.0,71.0,-1016.0,58.0
10.0,-266.0,28.0,54.0,63.0,-90.0,66.0,-1008.0,52.0
10.0,-264.0,25.0,58.0,67.0,-89.0,71.0,-1003.0,53.0
12.0,-264.0,26.0,58.0,72.0,-87.0,73.0,-1004.0,52.0
14.0,-266.0,27.0,58.0,77.0,-85.0,77.0,-1000.0,53.0
15.0,-264.0,25.0,54.0,82.0,-83.0,79.0,-1017.0,47.0
9.0,-264.0,22.0,49.0,82.0,-85.0,76.0,-994.0,52.0
12.0,-265.0,27.0,46.0,86.0,-87.0,82.0,-1008.0,45.0
14.0,-264.0,25.0,42.0,88.0,-85.0,86.0,-1007.0,43.0
13.0,-261.0,21.0,38.0,91.0,-86.0,85.0,-998.0,45.0
12.0,-265.0,23.0,33.0,97.0,-86.0,84.0,-1002.0,47.0
15.0,-264.0,26.0,31.0,106.0,-87.0,83.0,-1000.0,47.0
16.0,-262.0,26.0,29.0,113.0,-85.0,91.0,-998.0,54.0
15.0,-261.0,26.0,28.0,120.0,-85.0,89.0,-999.0,52.0
17.0,-262.0,28.0,27.0,128.0,-85.0,85.0,-994.0,57.0
14.0,-263.0,30.0,27.0,136.0,-84.0,85.0,-994.0,65.0
14.0,-262.0,35.0,31.0,142.0,-84.0,86.0,-994.0,63.0
17.0,-263.0,30.0,35.0,144.0,-83.0,85.0,-998.0,67.0
14.0,-262.0,29.0,40.0,147.0,-82.0,83.0,-999.0,73.0
13.0,-260.0,30.0,45.0,146.0,-81.0,83.0,-995.0,68.0
16.0,-266.0,29.0,49.0,147.0,-78.0,80.0,-1000.0,62.0
12.0,-263.0,31.0,51.0,146.0,-74.0,83.0,-995.0,67.0
14.0,-261.0,30.0,53.0,144.0,-72.0,81.0,-998.0,65.0
13.0,-262.0,26.0,56.0,143.0,-68.0,76.0,-1000.0,63.0
10.0,-260.0,31.0,54.0,139.0,-66.0,79.0,-1000.0,67.0
12.0,-262.0,33.0,52.0,134.0,-61.0,77.0,-999.0,60.0
12.0,-262.0,30.0,48.0,130.0,-58.0,73.0,-995.0,70.0
10.0,-263.0,29.0,44.0,123.0,-56.0,71.0,-1002.0,72.0
13.0,-263.0,29.0,39.0,115.0,-53.0,74.0,-992.0,65.0
7.0,-260.0,34.0,35.0,112.0,-51.0,64.0,-995.0,69.0
9.0,-261.0,34.0,30.0,104.0,-47.0,62.0,-994.0,73.0
8.0,-258.0,34.0,26.0,98.0,-44.0,64.0,-990.0,75.0
10.0,-259.0,31.0,23.0,94.0,-39.0,62.0,-990.0,75.0
8.0,-258.0,35.0,18.0,89.0,-37.0,68.0,-993.0,77.0
11.0,-263.0,30.0,12.0,84.0,-33.0,62.0,-990.0,77.0
11.0,-262.0,34.0,9.0,81.0,-33.0,76.0,-993.0,81.0
13.0,-264.0,31.0,6.0,79.0,-32.0,78.0,-1001.0,82.0
13.0,-265.0,31.0,5.0,77.0,-33.0,80.0,-1005.0,85.0
16.0,-266.0,37.0,8.0,76.0,-36.0,85.0,-1008.0,79.0
16.0,-267.0,35.0,12.0,74.0,-39.0,85.0,-1018.0,80.0
13.0,-268.0,31.0,19.0,74.0,-41.0,91.0,-1017.0,81.0
17.0,-265.0,36.0,25.0,73.0,-43.0,93.0,-1015.0,80.0
8.0,-263.0,32.0,32.0,75.0,-42.0,97.0,-1007.0,82.0
18.0,-257.0,33.0,42.0,75.0,-43.0,97.0,-1011.0,82.0
23.0,-262.0,28.0,50.0,75.0,-42.0,103.0,-1005.0,80.0
19.0,-261.0,33.0,56.0,78.0,-42.0,104.0,-999.0,78.0
14.0,-266.0,26.0,61.0,79.0,-40.0,103.0,-1001.0,74.0
13.0,-271.0,25.0,62.0,80.0,-36.0,105.0,-997.0,72.0
19.0,-266.0,25.0,62.0,79.0,-35.0,104.0,-998.0,76.0
27.0,-250.0,38.0,59.0,80.0,-35.0,104.0,-1002.0,73.0
22.0,-261.0,29.0,53.0,81.0,-38.0,107.0,-1002.0,77.0
20.0,-263.0,30.0,45.0,81.0,-40.0,105.0,-992.0,69.0
18.0,-261.0,32.0,36.0,82.0,-44.0,103.0,-1014.0,75.0
17.0,-265.0,32.0,28.0,82.0,-48.0,97.0,-1010.0,77.0
16.0,-265.0,37.0,22.0,85.0,-52.0,95.0,-1010.0,80.0
18.0,-263.0,34.0,18.0,86.0,-57.0,93.0,-1018.0,82.0
15.0,-266.0,35.0,18.0,89.0,-60.0,89.0,-1022.0,81.0
12.0,-266.0,34.0,22.0,89.0,-64.0,84.0,-1015.0,91.0
15.0,-266.0,37.0,32.0,91.0,-65.0,83.0,-1021.0,90.0
15.0,-266.0,33.0,47.0,92.0,-67.0,83.0,-1019.0,88.0
16.0,-267.0,37.0,61.0,90.0,-68.0,82.0,-1021.0,87.0
11.0,-262.0,38.0,77.0,89.0,-67.0,77.0,-1016.0,93.0
12.0,-261.0,36.0,88.0,84.0,-66.0,76.0,-1009.0,92.0
11.0,-261.0,36.0,98.0,80.0,-62.0,74.0,-1002.0,84.0
14.0,-260.0,34.0,102.0,78.0,-57.0,73.0,-996.0,82.0
12.0,-262.0,38.0,99.0,74.0,-52.0,77.0,-995.0,87.0
14.0,-260.0,34.0,92.0,70.0,-47.0,79.0,-993.0,87.0
9.0,-259.0,35.0,78.0,64.0,-42.0,85.0,-993.0,87.0
17.0,-262.0,34.0,62.0,60.0,-38.0,76.0,-985.0,81.0
15.0,-260.0,37.0,45.0,55.0,-34.0,83.0,-984.0,89.0
13.0,-260.0,36.0,26.0,49.0,-32.0,86.0,-980.0,92.0
15.0,-258.0,37.0,10.0,44.0,-28.0,83.0,-986.0,93.0
15.0,-261.0,40.0,-3.0,40.0,-26.0,91.0,-987.0,98.0
19.0,-260.0,38.0,-9.0,37.0,-25.0,94.0,-986.0,97.0
18.0,-264.0,36.0,-11.0,32.0,-26.0,91.0,-995.0,95.0
14.0,-261.0,41.0,-9.0,28.0,-29.0,97.0,-993.0,101.0
19.0,-262.0,38.0,-1.0,25.0,-30.0,98.0,-996.0,97.0
21.0,-261.0,37.0,9.0,24.0,-31.0,99.0,-1010.0,98.0
18.0,-262.0,38.0,20.0,21.0,-30.0,101.0,-999.0,101.0
20.0,-261.0,38.0,30.0,21.0,-27.0,104.0,-1002.0,97.0
20.0,-263.0,39.0,37.0,21.0,-22.0,103.0,-1000.0,99.0
22.0,-263.0,38.0,43.0,22.0,-17.0,112.0,-1001.0,95.0
19.0,-266.0,36.0,46.0,23.0,-15.0,106.0,-1003.0,95.0
21.0,-259.0,36.0,48.0,22.0,-12.0,110.0,-1002.0,88.0
20.0,-261.0,35.0,46.0,22.0,-12.0,108.0,-998.0,82.0
22.0,-262.0,35.0,43.0,21.0,-11.0,110.0,-991.0,81.0
19.0,-261.0,36.0,38.0,20.0,-10.0,107.0,-991.0,78.0
22.0,-261.0,29.0,29.0,20.0,-10.0,108.0,-986.0,79.0
21.0,-259.0,31.0,18.0,19.0,-11.0,106.0,-992.0,74.0
20.0,-259.0,31.0,9.0,21.0,-12.0,106.0,-986.0,72.0
23.0,-260.0,33.0,0.0,23.0,-12.0,107.0,-990.0,68.0
22.0,-261.0,30.0,-9.0,26.0,-13.0,105.0,-990.0,68.0
21.0,-261.0,34.0,-18.0,28.0,-13.0,100.0,-981.0,73.0
18.0,-260.0,33.0,-25.0,31.0,-14.0,103.0,-984.0,76.0
19.0,-261.0,31.0,-29.0,33.0,-14.0,103.0,-991.0,78.0
19.0,-262.0,35.0,-34.0,38.0,-13.0,98.0,-987.0,79.0
23.0,-259.0,38.0,-37.0,41.0,-14.0,103.0,-988.0,82.0
21.0,-259.0,34.0,-38.0,45.0,-15.0,101.0,-989.0,84.0
18.0,-263.0,36.0,-37.0,48.0,-12.0,105.0,-997.0,83.0
19.0,-261.0,38.0,-34.0,51.0,-12.0,102.0,-1002.0,88.0
18.0,-265.0,36.0,-29.0,54.0,-13.0,102.0,-999.0,86.0
20.0,-262.0,37.0,-21.0,55.0,-14.0,107.0,-996.0,90.0
21.0,-264.0,38.0,-15.0,55.0,-16.0,101.0,-1004.0,87.0
18.0,-263.0,38.0,-9.0,54.0,-16.0,99.0,-1002.0,89.0
19.0,-263.0,35.0,-5.0,55.0,-17.0,101.0,-1008.0,87.0
16.0,-264.0,34.0,-2.0,52.0,-18.0,96.0,-997.0,88.0
15.0,-263.0,37.0,1.0,51.0,-20.0,96.0,-992.0,89.0
19.0,-263.0,36.0,-1.0,49.0,-20.0,99.0,-999.0,81.0
18.0,-260.0,38.0,0.0,46.0,-21.0,97.0,-992.0,90.0
17.0,-262.0,39.0,-1.0,45.0,-22.0,99.0,-993.0,85.0
16.0,-261.0,37.0,-1.0,42.0,-23.0,97.0,-995.0,91.0
17.0,-263.0,36.0,0.0,42.0,-23.0,98.0,-999.0,90.0
15.0,-262.0,34.0,-1.0,42.0,-24.0,98.0,-997.0,97.0
17.0,-262.0,39.0,2.0,40.0,-23.0,91.0,-996.0,87.0
17.0,-261.0,35.0,4.0,43.0,-22.0,95.0,-987.0,93.0
19.0,-262.0,37.0,7.0,42.0,-22.0,104.0,-998.0,91.0
19.0,-259.0,38.0,10.0,43.0,-20.0,97.0,-999.0,92.0
18.0,-261.0,36.0,10.0,43.0,-18.0,96.0,-992.0,88.0
18.0,-263.0,39.0,12.0,45.0,-16.0,101.0,-1002.0,89.0
18.0,-263.0,35.0,12.0,44.0,-14.0,97.0,-993.0,87.0
16.0,-261.0,35.0,12.0,46.0,-13.0,101.0,-992.0,91.0
18.0,-261.0,36.0,12.0,46.0,-12.0,98.0,-997.0,86.0
19.0,-262.0,36.0,12.0,45.0,-10.0,104.0,-994.0,83.0
20.0,-264.0,39.0,14.0,46.0,-8.0,102.0,-997.0,87.0
19.0,-265.0,37.0,16.0,46.0,-8.0,103.0,-996.0,85.0
20.0,-265.0,35.0,17.0,46.0,-7.0,106.0,-1001.0,85.0
26.0,-264.0,39.0,16.0,49.0,-6.0,111.0,-997.0,87.0
22.0,-263.0,34.0,13.0,49.0,-6.0,112.0,-992.0,80.0
18.0,-258.0,34.0,10.0,50.0,-5.0,114.0,-991.0,87.0
22.0,-260.0,31.0,5.0,49.0,-4.0,117.0,-989.0,84.0
25.0,-261.0,37.0,-1.0,51.0,-5.0,117.0,-987.0,83.0
21.0,-261.0,36.0,-8.0,51.0,-5.0,119.0,-989.0,82.0
25.0,-262.0,36.0,-15.0,49.0,-7.0,119.0,-990.0,83.0
23.0,-260.0,34.0,-21.0,49.0,-9.0,118.0,-986.0,85.0
23.0,-260.0,40.0,-27.0,50.0,-11.0,118.0,-992.0,86.0
23.0,-259.0,40.0,-29.0,51.0,-12.0,120.0,-993.0,94.0
22.0,-259.0,35.0,-29.0,50.0,-13.0,114.0,-993.0,85.0
22.0,-260.0,33.0,-31.0,51.0,-15.0,118.0,-990.0,84.0
26.0,-264.0,36.0,-28.0,54.0,-16.0,115.0,-993.0,84.0
23.0,-262.0,38.0,-28.0,57.0,-17.0,114.0,-991.0,84.0
25.0,-258.0,38.0,-28.0,57.0,-17.0,116.0,-992.0,91.0
22.0,-263.0,38.0,-26.0,60.0,-19.0,114.0,-998.0,90.0
21.0,-261.0,38.0,-24.0,61.0,-19.0,112.0,-991.0,86.0
22.0,-265.0,36.0,-22.0,60.0,-20.0,108.0,-998.0,88.0
22.0,-260.0,39.0,-22.0,60.0,-20.0,108.0,-994.0,91.0
21.0,-261.0,32.0,-22.0,58.0,-18.0,106.0,-1000.0,86.0
22.0,-263.0,36.0,-23.0,58.0,-18.0,105.0,-1001.0,92.0
21.0,-265.0,37.0,-25.0,58.0,-17.0,104.0,-999.0,91.0
18.0,-260.0,37.0,-27.0,59.0,-16.0,103.0,-997.0,84.0
19.0,-266.0,36.0,-27.0,61.0,-16.0,106.0,-996.0,89.0
20.0,-265.0,36.0,-28.0,62.0,-15.0,106.0,-1001.0,86.0
16.0,-259.0,35.0,-29.0,63.0,-15.0,99.0,-1001.0,88.0
18.0,-261.0,35.0,-29.0,66.0,-15.0,101.0,-996.0,83.0
17.0,-261.0,35.0,-27.0,68.0,-14.0,101.0,-999.0,87.0
20.0,-262.0,34.0,-22.0,70.0,-11.0,97.0,-998.0,85.0
19.0,-261.0,34.0,-21.0,73.0,-11.0,102.0,-994.0,86.0
24.0,-262.0,35.0,-18.0,75.0,-8.0,102.0,-994.0,81.0
19.0,-260.0,36.0,-15.0,77.0,-7.0,105.0,-993.0,82.0
21.0,-262.0,33.0,-15.0,79.0,-6.0,102.0,-996.0,79.0
20.0,-261.0,33.0,-14.0,83.0,-6.0,102.0,-995.0,80.0
21.0,-264.0,31.0,-15.0,83.0,-4.0,108.0,-1000.0,79.0
22.0,-261.0,28.0,-19.0,84.0,-5.0,109.0,-999.0,82.0
21.0,-264.0,32.0,-21.0,86.0,-7.0,110.0,-1003.0,82.0
20.0,-265.0,35.0,-23.0,85.0,-7.0,108.0,-1000.0,84.0
20.0,-261.0,28.0,-23.0,84.0,-7.0,110.0,-1000.0,79.0
22.0,-263.0,33.0,-23.0,85.0,-8.0,109.0,-1004.0,80.0
22.0,-265.0,36.0,-23.0,83.0,-7.0,107.0,-1010.0,78.0
22.0,-264.0,32.0,-24.0,84.0,-5.0,111.0,-1004.0,82.0
21.0,-262.0,36.0,-23.0,85.0,-5.0,111.0,-997.0,82.0
21.0,-261.0,37.0,-21.0,84.0,-5.0,111.0,-1002.0,80.0
19.0,-265.0,39.0,-20.0,85.0,-6.0,105.0,-1002.0,84.0
19.0,-261.0,36.0,-15.0,83.0,-6.0,107.0,-994.0,88.0
21.0,-264.0,34.0,-11.0,82.0,-4.0,108.0,-998.0,85.0
23.0,-262.0,33.0,-5.0,81.0,-5.0,107.0,-996.0,88.0
23.0,-266.0,36.0,0.0,81.0,-6.0,106.0,-992.0,91.0
20.0,-264.0,38.0,4.0,82.0,-4.0,106.0,-995.0,91.0
21.0,-262.0,35.0,3.0,81.0,-4.0,105.0,-995.0,84.0
21.0,-259.0,33.0,2.0,80.0,-4.0,105.0,-995.0,91.0
19.0,-262.0,37.0,0.0,81.0,-4.0,102.0,-993.0,87.0
22.0,-261.0,35.0,-4.0,80.0,-5.0,111.0,-992.0,90.0
19.0,-262.0,34.0,-9.0,77.0,-6.0,105.0,-992.0,92.0
20.0,-260.0,32.0,-13.0,79.0,-8.0,108.0,-990.0,88.0
20.0,-261.0,37.0,-15.0,79.0,-8.0,110.0,-992.0,94.0
20.0,-264.0,36.0,-17.0,78.0,-9.0,109.0,-993.0,89.0
20.0,-260.0,32.0,-19.0,77.0,-7.0,112.0,-988.0,88.0
23.0,-261.0,36.0,-23.0,77.0,-7.0,108.0,-986.0,81.0
25.0,-262.0,32.0,-28.0,76.0,-8.0,113.0,-991.0,83.0
24.0,-259.0,35.0,-32.0,77.0,-7.0,110.0,-992.0,79.0
22.0,-262.0,35.0,-38.0,77.0,-7.0,114.0,-986.0,85.0
24.0,-260.0,32.0,-44.0,78.0,-9.0,109.0,-995.0,79.0
21.0,-260.0,34.0,-51.0,78.0,-10.0,118.0,-993.0,79.0
22.0,-263.0,32.0,-56.0,80.0,-12.0,109.0,-998.0,75.0
24.0,-261.0,32.0,-61.0,82.0,-14.0,111.0,-1001.0,84.0
22.0,-262.0,33.0,-63.0,85.0,-17.0,110.0,-1011.0,80.0
20.0,-265.0,34.0,-65.0,88.0,-21.0,110.0,-1005.0,83.0
18.0,-262.0,39.0,-61.0,92.0,-24.0,103.0,-1012.0,80.0
20.0,-266.0,32.0,-56.0,95.0,-27.0,103.0,-1018.0,89.0
21.0,-268.0,33.0,-47.0,98.0,-27.0,100.0,-1010.0,83.0
16.0,-265.0,32.0,-38.0,100.0,-28.0,103.0,-1010.0,78.0
17.0,-267.0,36.0,-27.0,102.0,-27.0,99.0,-1003.0,83.0
17.0,-265.0,35.0,-17.0,104.0,-24.0,97.0,-1010.0,81.0
17.0,-263.0,35.0,-7.0,105.0,-21.0,96.0,-1004.0,89.0
16.0,-263.0,34.0,0.0,104.0,-17.0,93.0,-1001.0,83.0
14.0,-261.0,35.0,5.0,103.0,-14.0,91.0,-996.0,82.0
15.0,-261.0,30.0,6.0,102.0,-10.0,95.0,-992.0,80.0
14.0,-261.0,35.0,6.0,99.0,-8.0,96.0,-991.0,76.0
14.0,-260.0,34.0,3.0,96.0,-5.0,97.0,-993.0,74.0
19.0,-262.0,30.0,-3.0,93.0,-1.0,97.0,-992.0,77.0
17.0,-263.0,33.0,-11.0,90.0,2.0,95.0,-987.0,73.0
18.0,-259.0,31.0,-21.0,86.0,6.0,101.0,-993.0,75.0
21.0,-262.0,30.0,-30.0,82.0,8.0,105.0,-984.0,80.0
17.0,-261.0,33.0,-38.0,80.0,9.0,108.0,-993.0,73.0
21.0,-264.0,32.0,-44.0,78.0,10.0,109.0,-997.0,76.0
21.0,-261.0,35.0,-48.0,76.0,9.0,107.0,-995.0,78.0
19.0,-262.0,34.0,-50.0,75.0,8.0,108.0,-1001.0,77.0
24.0,-262.0,33.0,-48.0,74.0,7.0,107.0,-1001.0,82.0
22.0,-265.0,35.0,-45.0,75.0,9.0,106.0,-1004.0,80.0
23.0,-265.0,38.0,-39.0,77.0,9.0,108.0,-1001.0,78.0
22.0,-264.0,32.0,-33.0,76.0,9.0,111.0,-1003.0,79.0
19.0,-264.0,34.0,-31.0,78.0,12.0,107.0,-1003.0,82.0
20.0,-262.0,35.0,-28.0,81.0,12.0,109.0,-1000.0,86.0
21.0,-266.0,33.0,-25.0,81.0,15.0,104.0,-993.0,84.0
20.0,-260.0,34.0,-25.0,83.0,16.0,107.0,-1000.0,79.0
23.0,-263.0,34.0,-25.0,85.0,15.0,106.0,-1000.0,78.0
22.0,-261.0,36.0,-27.0,85.0,18.0,110.0,-1000.0,82.0
20.0,-263.0,37.0,-28.0,87.0,19.0,106.0,-1002.0,80.0
21.0,-263.0,36.0,-33.0,89.0,19.0,111.0,-997.0,79.0
21.0,-262.0,36.0,-35.0,90.0,19.0,110.0,-1002.0,84.0
24.0,-263.0,31.0,-36.0,91.0,17.0,112.0,-1000.0,82.0
21.0,-261.0,32.0,-37.0,90.0,19.0,110.0,-1001.0,84.0
22.0,-262.0,34.0,-36.0,91.0,18.0,111.0,-999.0,85.0
22.0,-265.0,35.0,-33.0,90.0,17.0,109.0,-1001.0,85.0
21.0,-264.0,37.0,-30.0,91.0,17.0,104.0,-1003.0,80.0
20.0,-265.0,30.0,-25.0,90.0,17.0,109.0,-1006.0,82.0
18.0,-264.0,33.0,-19.0,89.0,16.0,103.0,-1006.0,83.0
22.0,-264.0,34.0,-15.0,88.0,16.0,102.0,-1011.0,80.0
22.0,-263.0,34.0,-10.0,87.0,15.0,101.0,-1011.0,85.0
22.0,-267.0,37.0,-6.0,85.0,18.0,102.0,-1011.0,85.0
18.0,-262.0,36.0,-4.0,85.0,19.0,102.0,-1004.0,85.0
16.0,-263.0,34.0,-1.0,84.0,21.0,98.0,-1003.0,82.0
21.0,-262.0,34.0,0.0,84.0,22.0,97.0,-1011.0,79.0
20.0,-267.0,34.0,1.0,83.0,23.0,102.0,-1013.0,81.0
19.0,-263.0,34.0,1.0,79.0,24.0,102.0,-1015.0,83.0
18.0,-262.0,31.0,2.0,78.0,24.0,95.0,-1002.0,80.0
17.0,-264.0,33.0,2.0,77.0,25.0,104.0,-1010.0,88.0
16.0,-263.0,32.0,3.0,75.0,24.0,98.0,-998.0,81.0
19.0,-263.0,35.0,6.0,74.0,25.0,97.0,-1001.0,83.0
19.0,-266.0,32.0,6.0,73.0,26.0,99.0,-996.0,82.0
18.0,-260.0,38.0,6.0,72.0,27.0,101.0,-1001.0,82.0
20.0,-264.0,33.0,8.0,69.0,28.0,98.0,-1002.0,85.0
19.0,-265.0,34.0,6.0,69.0,27.0,99.0,-998.0,85.0
20.0,-263.0,35.0,5.0,64.0,25.0,101.0,-997.0,83.0
16.0,-263.0,34.0,3.0,60.0,24.0,102.0,-1000.0,82.0
17.0,-260.0,33.0,2.0,58.0,24.0,97.0,-1003.0,80.0
18.0,-265.0,36.0,3.0,55.0,24.0,99.0,-1009.0,81.0
17.0,-263.0,32.0,0.0,54.0,23.0,97.0,-999.0,78.0
18.0,-263.0,34.0,-5.0,52.0,22.0,99.0,-997.0,76.0
20.0,-263.0,29.0,-6.0,53.0,21.0,98.0,-1002.0,77.0
19.0,-263.0,31.0,-9.0,53.0,20.0,94.0,-993.0,77.0
17.0,-263.0,34.0,-13.0,53.0,20.0,94.0,-996.0,81.0
21.0,-264.0,36.0,-14.0,53.0,19.0,98.0,-998.0,86.0
