acc1_x,acc1_y,acc1_z,gyro_x,gyro_y,gyro_z,acc2_x,acc2_y,acc2_z
12.0,-262.0,38.0,-7.0,68.0,1.0,67.0,-999.0,99.0
9.0,-260.0,39.0,-6.0,68.0,1.0,66.0,-995.0,100.0
12.0,-263.0,42.0,-6.0,70.0,1.0,64.0,-997.0,98.0
8.0,-262.0,42.0,-6.0,70.0,2.0,67.0,-995.0,99.0
9.0,-260.0,39.0,-6.0,70.0,2.0,64.0,-1000.0,102.0
7.0,-263.0,36.0,-8.0,68.0,2.0,64.0,-1002.0,102.0
8.0,-263.0,41.0,-8.0,69.0,-1.0,64.0,-998.0,99.0
12.0,-261.0,41.0,-9.0,69.0,0.0,56.0,-998.0,103.0
7.0,-263.0,42.0,-8.0,69.0,-2.0,63.0,-1000.0,100.0
9.0,-264.0,38.0,-10.0,69.0,-1.0,58.0,-1001.0,101.0
7.0,-262.0,34.0,-10.0,69.0,0.0,61.0,-999.0,97.0
13.0,-267.0,39.0,-11.0,69.0,0.0,61.0,-998.0,100.0
12.0,-264.0,37.0,-12.0,70.0,0.0,65.0,-1000.0,100.0
9.0,-262.0,40.0,-13.0,69.0,1.0,57.0,-1000.0,100.0
9.0,-263.0,41.0,-14.0,69.0,1.0,64.0,-1006.0,98.0
13.0,-257.0,39.0,-14.0,68.0,2.0,65.0,-1003.0,100.0
15.0,-262.0,37.0,-13.0,70.0,2.0,63.0,-1000.0,99.0
9.0,-261.0,39.0,-10.0,70.0,1.0,61.0,-1008.0,100.0
10.0,-265.0,39.0,-7.0,72.0,2.0,57.0,-1001.0,100.0
6.0,-263.0,39.0,-7.0,72.0,1.0,63.0,-1000.0,100.0
8.0,-261.0,42.0,-4.0,73.0,0.0,64.0,-999.0,101.0
10.0,-262.0,39.0,-3.0,74.0,0.0,58.0,-1007.0,100.0
10.0,-264.0,42.0,-3.0,74.0,0.0,57.0,-1003.0,101.0
11.0,-261.0,38.0,-2.0,75.0,-1.0,60.0,-1001.0,101.0
10.0,-264.0,41.0,-2.0,74.0,-2.0,62.0,-1004.0,102.0
7.0,-262.0,37.0,-3.0,74.0,-1.0,60.0,-999.0,100.0
7.0,-263.0,40.0,-2.0,74.0,-1.0,68.0,-1000.0,97.0
5.0,-260.0,36.0,-3.0,74.0,-3.0,59.0,-1001.0,101.0
12.0,-263.0,39.0,-3.0,76.0,-3.0,59.0,-996.0,97.0
10.0,-263.0,42.0,-5.0,76.0,-3.0,62.0,-994.0,105.0
7.0,-262.0,40.0,-5.0,75.0,-2.0,62.0,-992.0,105.0
7.0,-263.0,40.0,-5.0,74.0,-2.0,59.0,-1010.0,101.0
9.0,-266.0,37.0,-5.0,75.0,-1.0,62.0,-1000.0,99.0
10.0,-261.0,37.0,-5.0,74.0,-2.0,60.0,-1009.0,107.0
7.0,-263.0,38.0,-5.0,75.0,-2.0,66.0,-996.0,102.0
9.0,-263.0,41.0,-4.0,76.0,-2.0,68.0,-1001.0,108.0
10.0,-263.0,42.0,-6.0,77.0,-3.0,59.0,-1002.0,106.0
7.0,-265.0,40.0,-4.0,76.0,-2.0,63.0,-999.0,104.0
8.0,-263.0,41.0,-5.0,77.0,-1.0,70.0,-1001.0,101.0
9.0,-266.0,44.0,-5.0,77.0,-1.0,65.0,-1002.0,101.0
9.0,-264.0,40.0,-6.0,75.0,-1.0,64.0,-1000.0,106.0
7.0,-264.0,40.0,-6.0,74.0,-1.0,66.0,-996.0,104.0
12.0,-262.0,41.0,-5.0,73.0,-2.0,64.0,-1001.0,106.0
9.0,-261.0,40.0,-7.0,73.0,-2.0,62.0,-1001.0,105.0
7.0,-262.0,44.0,-7.0,73.0,-1.0,67.0,-1000.0,100.0
12.0,-262.0,42.0,-7.0,74.0,-2.0,69.0,-996.0,107.0
8.0,-262.0,43.0,-8.0,72.0,-1.0,69.0,-996.0,103.0
9.0,-262.0,39.0,-9.0,72.0,-3.0,68.0,-1001.0,104.0
9.0,-263.0,40.0,-10.0,73.0,-3.0,65.0,-1000.0,108.0
12.0,-262.0,40.0,-10.0,72.0,-3.0,61.0,-1000.0,103.0
8.0,-264.0,42.0,-10.0,74.0,-3.0,63.0,-993.0,107.0
9.0,-262.0,40.0,-10.0,73.0,-5.0,69.0,-1003.0,104.0
9.0,-261.0,41.0,-11.0,72.0,-5.0,58.0,-1007.0,101.0
8.0,-263.0,42.0,-10.0,73.0,-4.0,65.0,-1002.0,104.0
10.0,-262.0,39.0,-8.0,74.0,-5.0,60.0,-998.0,105.0
8.0,-265.0,40.0,-7.0,75.0,-3.0,65.0,-997.0,105.0
8.0,-262.0,41.0,-8.0,75.0,-2.0,63.0,-1004.0,105.0
10.0,-263.0,42.0,-7.0,74.0,-2.0,62.0,-1001.0,107.0
6.0,-261.0,42.0,-7.0,73.0,-2.0,63.0,-1001.0,102.0
12.0,-265.0,39.0,-8.0,71.0,-3.0,66.0,-1002.0,102.0
9.0,-262.0,40.0,-7.0,70.0,-1.0,61.0,-996.0,102.0
7.0,-259.0,41.0,-9.0,69.0,-1.0,60.0,-1000.0,104.0
9.0,-264.0,42.0,-10.0,70.0,-1.0,61.0,-1001.0,104.0
8.0,-263.0,39.0,-12.0,70.0,-2.0,61.0,-999.0,99.0
11.0,-263.0,41.0,-13.0,69.0,0.0,68.0,-997.0,105.0
10.0,-261.0,41.0,-13.0,69.0,2.0,66.0,-993.0,101.0
8.0,-262.0,43.0,-14.0,69.0,2.0,64.0,-1009.0,102.0
11.0,-260.0,40.0,-15.0,66.0,1.0,58.0,-1002.0,104.0
8.0,-260.0,39.0,-15.0,67.0,2.0,66.0,-995.0,100.0
8.0,-263.0,42.0,-15.0,69.0,3.0,69.0,-1001.0,104.0
11.0,-262.0,42.0,-15.0,68.0,2.0,59.0,-1000.0,103.0
8.0,-261.0,36.0,-15.0,66.0,5.0,67.0,-1005.0,102.0
8.0,-262.0,39.0,-15.0,68.0,5.0,65.0,-997.0,103.0
9.0,-261.0,40.0,-14.0,68.0,4.0,68.0,-1001.0,103.0
10.0,-262.0,38.0,-14.0,68.0,3.0,61.0,-1005.0,103.0
9.0,-265.0,44.0,-13.0,66.0,2.0,56.0,-1000.0,103.0
9.0,-262.0,39.0,-12.0,66.0,3.0,59.0,-998.0,105.0
11.0,-262.0,42.0,-12.0,67.0,3.0,64.0,-1000.0,102.0
8.0,-261.0,38.0,-12.0,67.0,2.0,68.0,-998.0,101.0
11.0,-262.0,38.0,-12.0,67.0,2.0,63.0,-994.0,100.0
9.0,-262.0,40.0,-13.0,68.0,1.0,66.0,-1001.0,102.0
9.0,-262.0,40.0,-12.0,67.0,0.0,60.0,-1002.0,99.0
9.0,-262.0,42.0,-11.0,68.0,1.0,56.0,-997.0,107.0
7.0,-265.0,37.0,-11.0,67.0,0.0,58.0,-1003.0,98.0
9.0,-263.0,39.0,-11.0,68.0,1.0,61.0,-996.0,99.0
8.0,-261.0,38.0,-9.0,66.0,1.0,59.0,-1002.0,100.0
10.0,-263.0,38.0,-8.0,67.0,2.0,62.0,-1001.0,100.0
10.0,-263.0,39.0,-8.0,65.0,0.0,61.0,-1000.0,101.0
7.0,-261.0,40.0,-9.0,65.0,0.0,64.0,-1002.0,101.0
9.0,-264.0,38.0,-10.0,65.0,0.0,57.0,-996.0,99.0
8.0,-264.0,43.0,-11.0,64.0,0.0,56.0,-998.0,100.0
9.0,-263.0,40.0,-13.0,64.0,0.0,60.0,-999.0,97.0
10.0,-262.0,39.0,-16.0,63.0,0.0,56.0,-1003.0,99.0
7.0,-262.0,42.0,-16.0,65.0,1.0,62.0,-996.0,101.0
11.0,-263.0,43.0,-16.0,66.0,1.0,57.0,-1003.0,100.0
10.0,-264.0,42.0,-17.0,68.0,0.0,56.0,-998.0,100.0
10.0,-263.0,42.0,-16.0,68.0,0.0,61.0,-1004.0,103.0
11.0,-263.0,38.0,-15.0,68.0,0.0,61.0,-1003.0,102.0
7.0,-264.0,38.0,-14.0,69.0,0.0,62.0,-1007.0,104.0
9.0,-263.0,41.0,-11.0,69.0,-1.0,60.0,-1005.0,101.0
11.0,-266.0,42.0,-9.0,69.0,1.0,59.0,-1003.0,104.0
7.0,-262.0,40.0,-8.0,69.0,1.0,62.0,-997.0,105.0
7.0,-260.0,43.0,-7.0,70.0,0.0,57.0,-1005.0,108.0
9.0,-263.0,39.0,-9.0,70.0,1.0,62.0,-999.0,103.0
7.0,-260.0,41.0,-7.0,69.0,2.0,55.0,-1000.0,102.0
12.0,-262.0,40.0,-8.0,69.0,-1.0,63.0,-998.0,107.0
7.0,-262.0,43.0,-10.0,70.0,-1.0,60.0,-995.0,106.0
9.0,-262.0,40.0,-11.0,70.0,-2.0,61.0,-999.0,105.0
9.0,-262.0,43.0,-12.0,69.0,-1.0,60.0,-1000.0,104.0
6.0,-266.0,38.0,-16.0,69.0,0.0,57.0,-996.0,103.0
7.0,-263.0,47.0,-16.0,70.0,-2.0,60.0,-1003.0,104.0
8.0,-265.0,44.0,-18.0,71.0,-1.0,63.0,-1005.0,102.0
8.0,-263.0,40.0,-19.0,70.0,-2.0,59.0,-1002.0,107.0
11.0,-264.0,42.0,-19.0,70.0,-2.0,59.0,-1001.0,99.0
6.0,-262.0,39.0,-17.0,71.0,-3.0,57.0,-1004.0,100.0
9.0,-263.0,43.0,-17.0,69.0,-2.0,60.0,-1017.0,102.0
8.0,-262.0,40.0,-16.0,70.0,-2.0,55.0,-1001.0,102.0
8.0,-263.0,42.0,-14.0,70.0,-3.0,60.0,-1003.0,102.0
7.0,-261.0,39.0,-11.0,68.0,-4.0,55.0,-1001.0,101.0
9.0,-262.0,40.0,-10.0,69.0,-3.0,63.0,-996.0,105.0
9.0,-264.0,43.0,-10.0,71.0,-5.0,56.0,-996.0,104.0
8.0,-261.0,44.0,-8.0,71.0,-4.0,62.0,-996.0,105.0
9.0,-262.0,44.0,-9.0,70.0,-5.0,60.0,-996.0,107.0
8.0,-261.0,38.0,-11.0,70.0,-5.0,61.0,-999.0,103.0
11.0,-261.0,40.0,-9.0,71.0,-4.0,57.0,-992.0,105.0
11.0,-263.0,40.0,-13.0,70.0,-5.0,57.0,-1004.0,104.0
6.0,-261.0,40.0,-15.0,69.0,-5.0,60.0,-997.0,102.0
7.0,-260.0,43.0,-15.0,68.0,-5.0,62.0,-998.0,101.0
8.0,-265.0,42.0,-17.0,68.0,-4.0,58.0,-995.0,106.0
10.0,-264.0,41.0,-17.0,69.0,-3.0,60.0,-1000.0,106.0
9.0,-263.0,41.0,-18.0,68.0,-5.0,61.0,-999.0,107.0
11.0,-262.0,42.0,-18.0,69.0,-5.0,56.0,-1002.0,101.0
9.0,-265.0,38.0,-17.0,69.0,-5.0,67.0,-997.0,104.0
10.0,-265.0,41.0,-17.0,68.0,-3.0,62.0,-1001.0,100.0
8.0,-263.0,39.0,-17.0,68.0,-3.0,63.0,-1002.0,103.0
14.0,-263.0,31.0,-16.0,69.0,-2.0,59.0,-1008.0,99.0
10.0,-254.0,33.0,-14.0,69.0,-2.0,63.0,-1004.0,101.0
9.0,-269.0,36.0,-15.0,68.0,-2.0,61.0,-1000.0,98.0
10.0,-265.0,44.0,-13.0,69.0,-2.0,56.0,-1000.0,99.0
5.0,-258.0,51.0,-15.0,69.0,-2.0,60.0,-998.0,98.0
5.0,-262.0,39.0,-13.0,68.0,-3.0,54.0,-996.0,100.0
4.0,-257.0,26.0,-12.0,68.0,-4.0,61.0,-1002.0,96.0
8.0,-262.0,43.0,-13.0,68.0,-3.0,68.0,-998.0,101.0
10.0,-262.0,40.0,-13.0,68.0,-4.0,59.0,-997.0,98.0
8.0,-263.0,39.0,-14.0,67.0,-4.0,63.0,-1005.0,99.0
11.0,-261.0,38.0,-13.0,68.0,-4.0,65.0,-1000.0,102.0
11.0,-264.0,40.0,-12.0,68.0,-4.0,60.0,-997.0,105.0
9.0,-264.0,41.0,-12.0,67.0,-4.0,64.0,-996.0,98.0
10.0,-264.0,39.0,-10.0,68.0,-5.0,61.0,-1005.0,104.0
11.0,-264.0,40.0,-10.0,68.0,-4.0,67.0,-1012.0,101.0
9.0,-264.0,39.0,-9.0,68.0,-6.0,56.0,-1001.0,99.0
9.0,-262.0,37.0,-10.0,68.0,-4.0,63.0,-995.0,99.0
13.0,-263.0,42.0,-9.0,69.0,-5.0,60.0,-998.0,99.0
6.0,-262.0,36.0,-9.0,69.0,-4.0,68.0,-999.0,101.0
9.0,-262.0,41.0,-10.0,70.0,-4.0,60.0,-998.0,102.0
8.0,-261.0,44.0,-11.0,71.0,-4.0,58.0,-993.0,102.0
10.0,-264.0,42.0,-10.0,72.0,-4.0,62.0,-995.0,99.0
10.0,-262.0,41.0,-11.0,71.0,-3.0,66.0,-999.0,102.0
10.0,-259.0,40.0,-11.0,72.0,-4.0,64.0,-999.0,98.0
8.0,-260.0,42.0,-11.0,71.0,-4.0,58.0,-997.0,103.0
11.0,-263.0,40.0,-11.0,72.0,-4.0,64.0,-998.0,103.0
9.0,-262.0,42.0,-11.0,71.0,-4.0,59.0,-998.0,104.0
11.0,-262.0,38.0,-12.0,70.0,-3.0,62.0,-1002.0,103.0
8.0,-263.0,41.0,-11.0,70.0,-3.0,64.0,-1010.0,105.0
8.0,-263.0,39.0,-11.0,70.0,-4.0,57.0,-999.0,101.0
8.0,-261.0,36.0,-10.0,70.0,-3.0,68.0,-999.0,103.0
8.0,-262.0,42.0,-11.0,70.0,-5.0,61.0,-1004.0,101.0
9.0,-261.0,38.0,-10.0,69.0,-4.0,63.0,-996.0,100.0
12.0,-262.0,43.0,-11.0,69.0,-4.0,63.0,-999.0,96.0
11.0,-265.0,39.0,-10.0,69.0,-4.0,58.0,-999.0,101.0
9.0,-264.0,39.0,-8.0,69.0,-5.0,59.0,-1000.0,102.0
8.0,-264.0,42.0,-9.0,69.0,-4.0,66.0,-1000.0,104.0
9.0,-264.0,37.0,-9.0,69.0,-5.0,66.0,-996.0,104.0
8.0,-261.0,39.0,-9.0,69.0,-4.0,66.0,-1002.0,104.0
13.0,-263.0,39.0,-9.0,71.0,-3.0,67.0,-999.0,101.0
11.0,-265.0,39.0,-8.0,72.0,-4.0,62.0,-1003.0,104.0
11.0,-263.0,43.0,-7.0,71.0,-4.0,63.0,-996.0,106.0
7.0,-262.0,41.0,-5.0,70.0,-4.0,64.0,-1005.0,104.0
6.0,-260.0,42.0,-4.0,70.0,-5.0,63.0,-1010.0,99.0
6.0,-264.0,41.0,-4.0,71.0,-3.0,57.0,-1002.0,101.0
9.0,-263.0,42.0,-4.0,71.0,-4.0,66.0,-1004.0,105.0
10.0,-264.0,39.0,-3.0,70.0,-2.0,61.0,-1004.0,104.0
8.0,-263.0,44.0,-3.0,70.0,-2.0,62.0,-999.0,100.0
9.0,-262.0,40.0,-4.0,69.0,0.0,61.0,-998.0,102.0
10.0,-262.0,43.0,-4.0,68.0,0.0,61.0,-1000.0,101.0
9.0,-264.0,39.0,-5.0,68.0,0.0,66.0,-1000.0,107.0
10.0,-262.0,40.0,-4.0,69.0,-2.0,59.0,-998.0,103.0
8.0,-262.0,42.0,-5.0,67.0,-2.0,60.0,-1001.0,104.0
7.0,-263.0,41.0,-6.0,68.0,-3.0,62.0,-1000.0,106.0
8.0,-262.0,40.0,-6.0,67.0,-4.0,64.0,-1002.0,103.0
10.0,-261.0,40.0,-6.0,67.0,-4.0,67.0,-999.0,106.0
7.0,-264.0,43.0,-7.0,66.0,-5.0,57.0,-1001.0,103.0
9.0,-260.0,44.0,-9.0,66.0,-5.0,57.0,-996.0,103.0
10.0,-260.0,40.0,-8.0,66.0,-4.0,58.0,-992.0,107.0
10.0,-261.0,39.0,-9.0,67.0,-5.0,57.0,-999.0,107.0
9.0,-265.0,38.0,-10.0,66.0,-5.0,57.0,-996.0,106.0
11.0,-263.0,39.0,-10.0,66.0,-5.0,57.0,-997.0,106.0
7.0,-259.0,40.0,-10.0,68.0,-5.0,52.0,-997.0,106.0
8.0,-261.0,38.0,-12.0,66.0,-5.0,58.0,-996.0,107.0
9.0,-260.0,39.0,-14.0,66.0,-5.0,64.0,-995.0,104.0
10.0,-266.0,42.0,-14.0,67.0,-6.0,59.0,-997.0,103.0
8.0,-263.0,41.0,-15.0,67.0,-6.0,61.0,-999.0,107.0
10.0,-264.0,42.0,-17.0,66.0,-8.0,64.0,-997.0,105.0
8.0,-264.0,39.0,-17.0,66.0,-7.0,64.0,-1002.0,102.0
9.0,-265.0,41.0,-17.0,66.0,-8.0,66.0,-1003.0,105.0
9.0,-265.0,44.0,-17.0,66.0,-9.0,62.0,-999.0,105.0
9.0,-262.0,37.0,-16.0,66.0,-10.0,62.0,-999.0,104.0
9.0,-261.0,43.0,-15.0,67.0,-9.0,66.0,-996.0,102.0
8.0,-265.0,40.0,-15.0,67.0,-9.0,61.0,-1002.0,105.0
9.0,-263.0,42.0,-13.0,67.0,-9.0,61.0,-999.0,104.0
8.0,-263.0,41.0,-11.0,68.0,-8.0,57.0,-1002.0,102.0
7.0,-258.0,37.0,-11.0,69.0,-8.0,62.0,-996.0,100.0
8.0,-261.0,41.0,-11.0,70.0,-9.0,59.0,-1003.0,104.0
8.0,-262.0,39.0,-12.0,72.0,-7.0,62.0,-1003.0,102.0
9.0,-262.0,41.0,-12.0,72.0,-6.0,63.0,-999.0,102.0
8.0,-261.0,43.0,-11.0,74.0,-6.0,64.0,-1001.0,104.0
7.0,-262.0,41.0,-13.0,75.0,-5.0,66.0,-995.0,101.0
11.0,-263.0,39.0,-14.0,75.0,-5.0,61.0,-994.0,108.0
9.0,-262.0,38.0,-15.0,73.0,-4.0,59.0,-1005.0,101.0
8.0,-265.0,38.0,-16.0,75.0,-4.0,56.0,-997.0,100.0
8.0,-263.0,38.0,-17.0,75.0,-5.0,60.0,-999.0,103.0
9.0,-262.0,43.0,-17.0,74.0,-6.0,59.0,-1001.0,100.0
5.0,-260.0,37.0,-15.0,71.0,-6.0,61.0,-996.0,101.0
9.0,-263.0,42.0,-17.0,73.0,-5.0,62.0,-1003.0,103.0
8.0,-261.0,39.0,-17.0,71.0,-6.0,58.0,-1001.0,100.0
10.0,-262.0,39.0,-15.0,71.0,-6.0,62.0,-997.0,103.0
11.0,-263.0,35.0,-15.0,70.0,-7.0,68.0,-1000.0,101.0
10.0,-262.0,40.0,-14.0,68.0,-9.0,68.0,-1001.0,97.0
7.0,-261.0,38.0,-14.0,68.0,-7.0,66.0,-995.0,101.0
9.0,-261.0,37.0,-13.0,68.0,-7.0,68.0,-999.0,102.0
8.0,-262.0,42.0,-15.0,68.0,-7.0,63.0,-998.0,102.0
10.0,-259.0,40.0,-15.0,67.0,-5.0,62.0,-1000.0,102.0
10.0,-262.0,39.0,-17.0,69.0,-5.0,71.0,-998.0,105.0
8.0,-261.0,43.0,-18.0,69.0,-5.0,68.0,-997.0,103.0
8.0,-260.0,43.0,-19.0,69.0,-5.0,72.0,-996.0,102.0
10.0,-259.0,44.0,-20.0,69.0,-4.0,68.0,-998.0,104.0
9.0,-264.0,41.0,-21.0,70.0,-3.0,66.0,-1001.0,104.0
9.0,-261.0,39.0,-23.0,68.0,-2.0,68.0,-1000.0,99.0
8.0,-264.0,44.0,-24.0,69.0,-4.0,61.0,-996.0,103.0
10.0,-263.0,46.0,-24.0,68.0,-5.0,66.0,-1000.0,104.0
10.0,-263.0,39.0,-23.0,67.0,-4.0,66.0,-1003.0,100.0
7.0,-262.0,40.0,-22.0,67.0,-4.0,66.0,-1005.0,102.0
9.0,-265.0,40.0,-19.0,65.0,-6.0,66.0,-1014.0,106.0
9.0,-265.0,41.0,-19.0,65.0,-6.0,63.0,-1003.0,103.0
9.0,-264.0,40.0,-17.0,65.0,-4.0,64.0,-1003.0,101.0
12.0,-265.0,37.0,-14.0,65.0,-4.0,63.0,-1010.0,102.0
11.0,-264.0,41.0,-11.0,66.0,-2.0,69.0,-1005.0,102.0
10.0,-263.0,39.0,-11.0,67.0,-1.0,62.0,-1000.0,106.0
9.0,-261.0,37.0,-10.0,68.0,-1.0,64.0,-997.0,105.0
10.0,-265.0,41.0,-10.0,68.0,-1.0,60.0,-996.0,101.0
10.0,-262.0,40.0,-9.0,68.0,0.0,63.0,-998.0,102.0
10.0,-264.0,41.0,-11.0,69.0,0.0,61.0,-999.0,102.0
11.0,-262.0,39.0,-11.0,70.0,-1.0,67.0,-994.0,99.0
10.0,-261.0,39.0,-13.0,71.0,-1.0,59.0,-995.0,105.0
10.0,-259.0,46.0,-13.0,71.0,-3.0,67.0,-997.0,104.0
9.0,-261.0,43.0,-14.0,70.0,-3.0,64.0,-994.0,101.0
11.0,-263.0,38.0,-16.0,71.0,-3.0,69.0,-997.0,101.0
7.0,-262.0,40.0,-18.0,73.0,-3.0,62.0,-995.0,100.0
8.0,-262.0,41.0,-21.0,71.0,-2.0,62.0,-1002.0,100.0
10.0,-260.0,38.0,-23.0,72.0,-2.0,63.0,-999.0,101.0
12.0,-264.0,38.0,-24.0,71.0,-2.0,64.0,-998.0,102.0
9.0,-264.0,42.0,-26.0,70.0,-3.0,66.0,-995.0,105.0
10.0,-266.0,40.0,-25.0,71.0,-2.0,68.0,-1004.0,103.0
8.0,-262.0,39.0,-26.0,70.0,-1.0,68.0,-1003.0,101.0
9.0,-265.0,35.0,-24.0,70.0,-2.0,58.0,-1001.0,101.0
9.0,-263.0,38.0,-23.0,70.0,0.0,58.0,-1001.0,104.0
10.0,-259.0,37.0,-21.0,70.0,-1.0,58.0,-999.0,105.0
9.0,-260.0,43.0,-19.0,70.0,0.0,64.0,-999.0,106.0
7.0,-260.0,38.0,-17.0,70.0,0.0,69.0,-993.0,104.0
8.0,-261.0,40.0,-16.0,70.0,0.0,66.0,-1002.0,107.0
7.0,-266.0,36.0,-14.0,70.0,0.0,62.0,-997.0,106.0
10.0,-259.0,43.0,-15.0,69.0,-1.0,58.0,-994.0,107.0
9.0,-259.0,43.0,-15.0,69.0,-1.0,63.0,-996.0,106.0
6.0,-262.0,40.0,-16.0,69.0,0.0,63.0,-998.0,102.0
7.0,-261.0,41.0,-18.0,69.0,1.0,64.0,-995.0,104.0
12.0,-266.0,40.0,-20.0,69.0,1.0,63.0,-1000.0,102.0
10.0,-261.0,42.0,-22.0,69.0,2.0,62.0,-1004.0,104.0
7.0,-261.0,38.0,-25.0,69.0,2.0,59.0,-1010.0,103.0
10.0,-266.0,37.0,-25.0,69.0,3.0,57.0,-994.0,101.0
9.0,-264.0,43.0,-24.0,69.0,4.0,61.0,-1001.0,103.0
11.0,-265.0,43.0,-24.0,69.0,5.0,63.0,-999.0,103.0
9.0,-264.0,39.0,-22.0,70.0,6.0,62.0,-1002.0,103.0
6.0,-261.0,44.0,-20.0,71.0,4.0,70.0,-996.0,99.0
6.0,-261.0,40.0,-20.0,72.0,4.0,64.0,-999.0,100.0
12.0,-262.0,40.0,-18.0,71.0,4.0,66.0,-997.0,99.0
13.0,-265.0,39.0,-17.0,72.0,4.0,61.0,-1003.0,101.0
8.0,-263.0,39.0,-16.0,71.0,4.0,62.0,-1002.0,99.0
10.0,-262.0,38.0,-16.0,71.0,5.0,68.0,-1002.0,98.0
11.0,-264.0,36.0,-14.0,71.0,4.0,67.0,-1001.0,99.0
9.0,-262.0,36.0,-14.0,72.0,5.0,66.0,-1002.0,93.0
10.0,-264.0,37.0,-13.0,74.0,3.0,68.0,-996.0,97.0
11.0,-260.0,40.0,-14.0,73.0,1.0,65.0,-996.0,94.0
8.0,-261.0,37.0,-15.0,73.0,1.0,58.0,-999.0,98.0
9.0,-264.0,40.0,-14.0,72.0,2.0,66.0,-998.0,100.0
10.0,-264.0,36.0,-13.0,72.0,1.0,66.0,-1002.0,95.0
7.0,-264.0,40.0,-14.0,71.0,0.0,60.0,-997.0,99.0
9.0,-260.0,38.0,-15.0,72.0,0.0,62.0,-993.0,99.0
8.0,-261.0,39.0,-15.0,71.0,1.0,64.0,-1002.0,98.0
9.0,-260.0,38.0,-16.0,71.0,3.0,59.0,-995.0,100.0
8.0,-262.0,37.0,-16.0,73.0,4.0,56.0,-995.0,99.0
9.0,-262.0,37.0,-16.0,73.0,3.0,61.0,-995.0,100.0
9.0,-263.0,41.0,-18.0,72.0,5.0,54.0,-998.0,103.0
7.0,-260.0,42.0,-19.0,72.0,4.0,60.0,-997.0,102.0
12.0,-263.0,42.0,-20.0,73.0,6.0,68.0,-998.0,105.0
8.0,-263.0,40.0,-20.0,71.0,6.0,55.0,-1001.0,102.0
8.0,-262.0,42.0,-21.0,72.0,6.0,61.0,-1003.0,105.0
6.0,-264.0,39.0,-24.0,71.0,5.0,59.0,-1000.0,108.0
9.0,-259.0,38.0,-25.0,70.0,6.0,64.0,-1001.0,103.0
9.0,-263.0,43.0,-25.0,70.0,5.0,65.0,-999.0,102.0
9.0,-264.0,38.0,-24.0,72.0,5.0,64.0,-997.0,101.0
9.0,-262.0,40.0,-25.0,71.0,5.0,58.0,-1009.0,104.0
6.0,-262.0,39.0,-25.0,72.0,4.0,58.0,-997.0,101.0
11.0,-267.0,38.0,-24.0,72.0,3.0,57.0,-1002.0,99.0
9.0,-266.0,41.0,-22.0,71.0,4.0,66.0,-1008.0,102.0
7.0,-261.0,40.0,-21.0,72.0,3.0,57.0,-996.0,101.0
12.0,-262.0,41.0,-20.0,70.0,4.0,62.0,-999.0,100.0
9.0,-260.0,41.0,-20.0,69.0,1.0,60.0,-1002.0,106.0
9.0,-263.0,36.0,-19.0,70.0,1.0,58.0,-998.0,102.0
8.0,-264.0,45.0,-18.0,72.0,3.0,61.0,-1002.0,103.0
6.0,-261.0,38.0,-18.0,72.0,1.0,61.0,-999.0,104.0
9.0,-263.0,42.0,-19.0,73.0,1.0,54.0,-1002.0,103.0
8.0,-262.0,37.0,-18.0,73.0,1.0,61.0,-1009.0,100.0
9.0,-262.0,40.0,-18.0,73.0,1.0,64.0,-996.0,103.0
9.0,-264.0,40.0,-19.0,73.0,2.0,53.0,-1002.0,101.0
10.0,-264.0,42.0,-19.0,73.0,3.0,55.0,-1001.0,102.0
10.0,-263.0,39.0,-20.0,74.0,2.0,57.0,-1003.0,103.0
11.0,-261.0,40.0,-20.0,75.0,1.0,59.0,-999.0,105.0
10.0,-265.0,40.0,-20.0,75.0,3.0,58.0,-999.0,98.0
8.0,-261.0,40.0,-19.0,75.0,1.0,56.0,-1005.0,101.0
7.0,-263.0,41.0,-19.0,75.0,3.0,60.0,-1004.0,99.0
8.0,-263.0,40.0,-18.0,75.0,2.0,59.0,-998.0,99.0
8.0,-264.0,36.0,-17.0,76.0,0.0,58.0,-1008.0,100.0
7.0,-263.0,37.0,-16.0,76.0,1.0,55.0,-1001.0,100.0
7.0,-262.0,41.0,-15.0,74.0,2.0,58.0,-1000.0,100.0
10.0,-263.0,38.0,-15.0,72.0,1.0,58.0,-1004.0,96.0
7.0,-262.0,39.0,-14.0,70.0,1.0,54.0,-996.0,91.0
8.0,-263.0,39.0,-15.0,71.0,1.0,61.0,-1004.0,95.0
8.0,-264.0,40.0,-17.0,70.0,2.0,66.0,-1007.0,93.0
9.0,-264.0,37.0,-17.0,70.0,0.0,58.0,-1001.0,97.0
7.0,-259.0,39.0,-20.0,71.0,0.0,60.0,-995.0,97.0
4.0,-261.0,37.0,-20.0,70.0,0.0,58.0,-996.0,98.0
9.0,-262.0,36.0,-20.0,70.0,2.0,56.0,-1001.0,98.0
9.0,-264.0,38.0,-20.0,69.0,1.0,56.0,-998.0,100.0
8.0,-263.0,38.0,-20.0,68.0,2.0,55.0,-1006.0,100.0
9.0,-264.0,39.0,-17.0,69.0,2.0,55.0,-1003.0,96.0
8.0,-263.0,38.0,-15.0,71.0,0.0,57.0,-1003.0,96.0
8.0,-264.0,42.0,-13.0,69.0,1.0,54.0,-1002.0,98.0
9.0,-264.0,38.0,-12.0,68.0,1.0,58.0,-1013.0,94.0
11.0,-262.0,39.0,-11.0,68.0,-1.0,54.0,-1001.0,96.0
10.0,-262.0,41.0,-10.0,69.0,-1.0,53.0,-1004.0,94.0
8.0,-261.0,38.0,-10.0,69.0,-1.0,60.0,-998.0,101.0
7.0,-264.0,38.0,-10.0,68.0,-2.0,56.0,-1001.0,97.0
10.0,-261.0,36.0,-10.0,68.0,-2.0,56.0,-1002.0,96.0
10.0,-264.0,39.0,-10.0,68.0,-2.0,62.0,-1004.0,98.0
9.0,-262.0,42.0,-11.0,69.0,-1.0,56.0,-1001.0,94.0
10.0,-265.0,37.0,-10.0,67.0,-1.0,56.0,-997.0,97.0
6.0,-261.0,35.0,-8.0,66.0,-2.0,56.0,-1004.0,102.0
5.0,-262.0,41.0,-9.0,67.0,-1.0,56.0,-998.0,96.0
7.0,-263.0,44.0,-10.0,67.0,-2.0,54.0,-992.0,95.0
8.0,-261.0,38.0,-10.0,66.0,-1.0,54.0,-998.0,99.0
6.0,-260.0,39.0,-10.0,66.0,-2.0,57.0,-1002.0,101.0
8.0,-264.0,39.0,-8.0,65.0,-1.0,57.0,-994.0,101.0
8.0,-260.0,38.0,-7.0,64.0,-2.0,55.0,-999.0,98.0
8.0,-264.0,39.0,-6.0,65.0,-1.0,54.0,-1001.0,96.0
8.0,-264.0,36.0,-6.0,66.0,-2.0,55.0,-998.0,103.0
7.0,-264.0,40.0,-4.0,66.0,-2.0,60.0,-1000.0,97.0
8.0,-263.0,38.0,-5.0,64.0,-1.0,58.0,-1004.0,95.0
10.0,-264.0,35.0,-5.0,65.0,0.0,56.0,-1002.0,99.0
9.0,-264.0,38.0,-4.0,67.0,0.0,51.0,-1000.0,98.0
7.0,-263.0,38.0,-4.0,68.0,-2.0,57.0,-1002.0,101.0
9.0,-264.0,36.0,-4.0,67.0,-1.0,59.0,-1000.0,97.0
9.0,-264.0,43.0,-3.0,68.0,-1.0,55.0,-997.0,95.0
9.0,-261.0,39.0,-4.0,68.0,-3.0,56.0,-995.0,92.0
8.0,-262.0,39.0,-4.0,67.0,-3.0,59.0,-997.0,99.0
9.0,-261.0,37.0,-4.0,68.0,-4.0,59.0,-995.0,102.0
8.0,-261.0,41.0,-5.0,67.0,-2.0,62.0,-997.0,101.0
10.0,-262.0,39.0,-4.0,67.0,-2.0,60.0,-1001.0,99.0
10.0,-264.0,41.0,-3.0,68.0,-3.0,60.0,-994.0,101.0
6.0,-261.0,40.0,-3.0,67.0,-4.0,62.0,-1002.0,102.0
7.0,-263.0,37.0,-3.0,68.0,-4.0,63.0,-996.0,99.0
8.0,-259.0,40.0,-5.0,68.0,-3.0,58.0,-1002.0,99.0
7.0,-262.0,39.0,-6.0,69.0,-4.0,59.0,-998.0,102.0
9.0,-265.0,42.0,-7.0,70.0,-5.0,62.0,-1001.0,99.0
9.0,-263.0,39.0,-9.0,71.0,-5.0,56.0,-1001.0,101.0
10.0,-259.0,42.0,-9.0,72.0,-4.0,60.0,-999.0,102.0
9.0,-262.0,38.0,-11.0,70.0,-3.0,65.0,-1005.0,101.0
9.0,-262.0,38.0,-11.0,72.0,-3.0,55.0,-999.0,102.0
8.0,-265.0,38.0,-11.0,73.0,-2.0,66.0,-1000.0,104.0
7.0,-262.0,40.0,-12.0,73.0,-2.0,62.0,-998.0,104.0
11.0,-265.0,40.0,-11.0,75.0,-3.0,63.0,-1000.0,97.0
9.0,-265.0,40.0,-10.0,75.0,-2.0,56.0,-999.0,102.0
5.0,-260.0,43.0,-9.0,75.0,-3.0,61.0,-1009.0,101.0
8.0,-263.0,40.0,-8.0,75.0,-3.0,58.0,-1007.0,101.0
7.0,-265.0,43.0,-6.0,74.0,-2.0,57.0,-1007.0,103.0
11.0,-260.0,40.0,-6.0,73.0,-2.0,56.0,-999.0,104.0
7.0,-264.0,39.0,-3.0,74.0,-2.0,55.0,-997.0,102.0
7.0,-261.0,35.0,-5.0,75.0,-2.0,63.0,-996.0,105.0
9.0,-262.0,39.0,-6.0,74.0,-2.0,64.0,-999.0,101.0
10.0,-265.0,42.0,-5.0,75.0,-3.0,57.0,-999.0,100.0
7.0,-260.0,40.0,-5.0,74.0,-4.0,62.0,-1001.0,102.0
10.0,-263.0,41.0,-6.0,73.0,-4.0,57.0,-997.0,101.0
9.0,-263.0,45.0,-6.0,72.0,-3.0,61.0,-997.0,102.0
8.0,-262.0,47.0,-8.0,73.0,-2.0,59.0,-994.0,100.0
9.0,-264.0,42.0,-8.0,71.0,-2.0,61.0,-997.0,95.0
6.0,-262.0,44.0,-11.0,72.0,-2.0,66.0,-999.0,101.0
11.0,-263.0,38.0,-12.0,72.0,-2.0,65.0,-1007.0,99.0
7.0,-262.0,37.0,-12.0,72.0,-3.0,58.0,-994.0,101.0
6.0,-262.0,39.0,-13.0,71.0,-3.0,55.0,-998.0,100.0
8.0,-264.0,42.0,-13.0,71.0,-4.0,59.0,-1005.0,99.0
7.0,-264.0,39.0,-11.0,71.0,-4.0,57.0,-1005.0,100.0
8.0,-266.0,42.0,-10.0,71.0,-5.0,53.0,-999.0,100.0
9.0,-266.0,39.0,-9.0,71.0,-6.0,60.0,-1005.0,99.0
11.0,-264.0,43.0,-9.0,70.0,-5.0,55.0,-1001.0,98.0
9.0,-262.0,40.0,-8.0,70.0,-6.0,62.0,-1000.0,101.0
7.0,-260.0,38.0,-8.0,70.0,-6.0,58.0,-995.0,97.0
11.0,-264.0,39.0,-8.0,70.0,-5.0,63.0,-999.0,100.0
9.0,-261.0,41.0,-7.0,70.0,-5.0,60.0,-995.0,104.0
4.0,-260.0,43.0,-8.0,71.0,-6.0,61.0,-996.0,101.0
9.0,-261.0,41.0,-8.0,70.0,-5.0,60.0,-999.0,106.0
6.0,-259.0,40.0,-8.0,70.0,-4.0,57.0,-1009.0,105.0
6.0,-263.0,40.0,-8.0,70.0,-4.0,62.0,-996.0,108.0
10.0,-264.0,42.0,-8.0,69.0,-4.0,57.0,-994.0,106.0
12.0,-262.0,41.0,-9.0,68.0,-3.0,59.0,-992.0,106.0
8.0,-262.0,43.0,-9.0,68.0,-2.0,57.0,-997.0,105.0
8.0,-259.0,45.0,-10.0,67.0,-4.0,59.0,-1000.0,106.0
11.0,-266.0,42.0,-11.0,68.0,-2.0,58.0,-1001.0,104.0
9.0,-259.0,44.0,-11.0,69.0,-3.0,56.0,-998.0,106.0
5.0,-263.0,38.0,-12.0,68.0,-3.0,55.0,-1001.0,103.0
9.0,-262.0,43.0,-11.0,68.0,-2.0,56.0,-996.0,104.0
7.0,-261.0,42.0,-12.0,69.0,-1.0,56.0,-999.0,103.0
10.0,-265.0,38.0,-11.0,68.0,-1.0,64.0,-999.0,101.0
6.0,-265.0,37.0,-11.0,68.0,1.0,56.0,-1002.0,101.0
9.0,-265.0,39.0,-11.0,70.0,0.0,66.0,-1003.0,100.0
7.0,-265.0,40.0,-11.0,70.0,-2.0,61.0,-1000.0,100.0
10.0,-265.0,39.0,-11.0,70.0,-2.0,58.0,-1002.0,97.0
7.0,-261.0,40.0,-9.0,69.0,-2.0,62.0,-1001.0,98.0
10.0,-262.0,38.0,-10.0,69.0,-4.0,54.0,-998.0,92.0
9.0,-261.0,36.0,-9.0,68.0,-3.0,58.0,-999.0,96.0
10.0,-260.0,39.0,-8.0,70.0,-3.0,57.0,-1000.0,99.0
7.0,-264.0,41.0,-8.0,69.0,-3.0,56.0,-998.0,97.0
10.0,-262.0,43.0,-9.0,69.0,-4.0,57.0,-998.0,100.0
8.0,-264.0,39.0,-8.0,69.0,-4.0,56.0,-997.0,98.0
7.0,-260.0,39.0,-8.0,67.0,-3.0,57.0,-997.0,98.0
9.0,-267.0,41.0,-6.0,68.0,-3.0,63.0,-1005.0,96.0
9.0,-262.0,38.0,-7.0,69.0,-2.0,56.0,-999.0,102.0
7.0,-261.0,40.0,-7.0,68.0,-2.0,55.0,-999.0,101.0
6.0,-262.0,40.0,-9.0,69.0,-3.0,56.0,-999.0,102.0
6.0,-260.0,36.0,-10.0,69.0,-3.0,56.0,-1002.0,97.0
4.0,-262.0,40.0,-10.0,68.0,-2.0,55.0,-999.0,100.0
7.0,-263.0,39.0,-11.0,67.0,-4.0,55.0,-995.0,100.0
10.0,-264.0,40.0,-12.0,67.0,-4.0,57.0,-998.0,106.0
8.0,-261.0,37.0,-14.0,67.0,-6.0,50.0,-1001.0,103.0
7.0,-262.0,43.0,-13.0,67.0,-5.0,61.0,-994.0,102.0
9.0,-263.0,42.0,-15.0,67.0,-3.0,49.0,-1002.0,100.0
8.0,-264.0,38.0,-14.0,67.0,-5.0,57.0,-1002.0,98.0
9.0,-262.0,42.0,-14.0,68.0,-3.0,53.0,-1005.0,101.0
8.0,-263.0,39.0,-13.0,69.0,-4.0,56.0,-1001.0,102.0
8.0,-263.0,36.0,-11.0,68.0,-3.0,61.0,-1000.0,104.0
6.0,-261.0,38.0,-10.0,68.0,-4.0,63.0,-1003.0,98.0
8.0,-264.0,40.0,-9.0,68.0,-5.0,57.0,-996.0,104.0
8.0,-260.0,39.0,-8.0,68.0,-4.0,58.0,-999.0,98.0
9.0,-260.0,42.0,-8.0,69.0,-5.0,59.0,-1000.0,101.0
9.0,-263.0,42.0,-8.0,69.0,-3.0,66.0,-1004.0,97.0
10.0,-262.0,37.0,-8.0,70.0,-4.0,60.0,-1005.0,101.0
8.0,-265.0,39.0,-7.0,70.0,-3.0,58.0,-1004.0,104.0
11.0,-263.0,39.0,-8.0,71.0,-4.0,62.0,-1007.0,103.0
9.0,-263.0,39.0,-7.0,71.0,-4.0,57.0,-997.0,104.0
10.0,-264.0,39.0,-9.0,71.0,-4.0,59.0,-998.0,100.0
7.0,-260.0,41.0,-9.0,71.0,-4.0,61.0,-999.0,105.0
7.0,-264.0,40.0,-8.0,69.0,-7.0,60.0,-1000.0,104.0
9.0,-263.0,43.0,-7.0,70.0,-5.0,56.0,-1000.0,103.0
10.0,-262.0,42.0,-7.0,69.0,-4.0,54.0,-1003.0,101.0
7.0,-262.0,37.0,-6.0,69.0,-5.0,58.0,-998.0,101.0
9.0,-263.0,37.0,-7.0,68.0,-5.0,61.0,-998.0,104.0
8.0,-265.0,39.0,-7.0,69.0,-5.0,64.0,-1004.0,102.0
11.0,-263.0,37.0,-8.0,70.0,-6.0,66.0,-1002.0,102.0
7.0,-262.0,41.0,-9.0,69.0,-6.0,59.0,-1000.0,106.0
9.0,-264.0,38.0,-8.0,69.0,-6.0,62.0,-999.0,103.0
10.0,-261.0,42.0,-9.0,70.0,-6.0,59.0,-994.0,103.0
11.0,-263.0,40.0,-9.0,70.0,-6.0,56.0,-995.0,100.0
10.0,-263.0,42.0,-11.0,70.0,-5.0,58.0,-1000.0,102.0
11.0,-263.0,41.0,-11.0,71.0,-5.0,62.0,-1002.0,101.0
7.0,-262.0,41.0,-9.0,71.0,-4.0,55.0,-997.0,103.0
7.0,-264.0,42.0,-10.0,70.0,-5.0,68.0,-1009.0,102.0
9.0,-259.0,40.0,-11.0,69.0,-4.0,62.0,-1000.0,102.0
11.0,-264.0,39.0,-9.0,71.0,-4.0,58.0,-998.0,102.0
7.0,-265.0,38.0,-9.0,72.0,-2.0,67.0,-1000.0,103.0
9.0,-264.0,38.0,-8.0,72.0,-2.0,59.0,-1001.0,102.0
9.0,-264.0,43.0,-7.0,68.0,-3.0,66.0,-997.0,102.0
8.0,-263.0,42.0,-8.0,71.0,-4.0,62.0,-1000.0,106.0
11.0,-263.0,40.0,-7.0,72.0,-3.0,59.0,-1002.0,101.0
8.0,-265.0,39.0,-8.0,73.0,-4.0,57.0,-999.0,105.0
8.0,-265.0,40.0,-7.0,72.0,-6.0,57.0,-1000.0,103.0
7.0,-261.0,37.0,-8.0,72.0,-5.0,55.0,-999.0,101.0
11.0,-261.0,40.0,-9.0,72.0,-5.0,56.0,-1000.0,105.0
8.0,-262.0,38.0,-10.0,71.0,-6.0,56.0,-998.0,100.0
9.0,-259.0,42.0,-10.0,70.0,-4.0,62.0,-998.0,103.0
9.0,-263.0,41.0,-10.0,72.0,-5.0,64.0,-999.0,101.0
8.0,-260.0,40.0,-11.0,72.0,-4.0,64.0,-1003.0,102.0
7.0,-264.0,39.0,-11.0,71.0,-5.0,60.0,-1000.0,100.0
7.0,-263.0,41.0,-11.0,71.0,-6.0,62.0,-996.0,101.0
9.0,-261.0,43.0,-13.0,71.0,-4.0,59.0,-999.0,102.0
12.0,-264.0,42.0,-11.0,71.0,-5.0,57.0,-999.0,104.0
7.0,-262.0,41.0,-11.0,71.0,-5.0,57.0,-1001.0,97.0
10.0,-265.0,39.0,-11.0,71.0,-3.0,55.0,-1001.0,102.0
8.0,-263.0,38.0,-12.0,70.0,-4.0,67.0,-1006.0,99.0
9.0,-265.0,41.0,-12.0,71.0,-3.0,58.0,-997.0,102.0
9.0,-262.0,40.0,-11.0,72.0,-4.0,60.0,-1011.0,101.0
11.0,-262.0,41.0,-11.0,71.0,-3.0,57.0,-1002.0,102.0
7.0,-263.0,38.0,-11.0,69.0,-3.0,54.0,-1002.0,102.0
8.0,-265.0,40.0,-10.0,68.0,-3.0,54.0,-1003.0,105.0
11.0,-262.0,43.0,-10.0,67.0,-4.0,60.0,-1000.0,104.0
9.0,-262.0,41.0,-9.0,69.0,-6.0,56.0,-1001.0,104.0
8.0,-263.0,39.0,-9.0,69.0,-5.0,58.0,-1000.0,100.0
8.0,-261.0,43.0,-10.0,69.0,-5.0,58.0,-1009.0,103.0
10.0,-262.0,39.0,-8.0,67.0,-5.0,60.0,-1011.0,101.0
7.0,-266.0,44.0,-9.0,67.0,-4.0,60.0,-999.0,104.0
11.0,-261.0,43.0,-7.0,69.0,-4.0,57.0,-999.0,100.0
7.0,-264.0,38.0,-6.0,71.0,-5.0,60.0,-1007.0,103.0
11.0,-262.0,39.0,-8.0,70.0,-4.0,56.0,-1002.0,100.0
9.0,-261.0,41.0,-7.0,70.0,-3.0,56.0,-994.0,107.0
11.0,-260.0,42.0,-7.0,69.0,-4.0,55.0,-995.0,101.0
10.0,-263.0,42.0,-6.0,69.0,-4.0,59.0,-1002.0,102.0
8.0,-264.0,38.0,-7.0,70.0,-3.0,54.0,-1002.0,99.0
7.0,-264.0,40.0,-7.0,69.0,-5.0,55.0,-994.0,104.0
7.0,-262.0,41.0,-9.0,70.0,-4.0,61.0,-998.0,102.0
8.0,-262.0,39.0,-9.0,70.0,-2.0,61.0,-1003.0,106.0
7.0,-261.0,39.0,-9.0,70.0,-2.0,57.0,-999.0,102.0
8.0,-261.0,37.0,-12.0,68.0,-2.0,63.0,-998.0,105.0
9.0,-261.0,42.0,-12.0,69.0,-2.0,66.0,-1001.0,103.0
12.0,-265.0,42.0,-12.0,71.0,-3.0,66.0,-1002.0,104.0
8.0,-262.0,41.0,-13.0,70.0,-2.0,57.0,-998.0,102.0
8.0,-264.0,42.0,-14.0,71.0,-4.0,62.0,-1000.0,107.0
8.0,-265.0,41.0,-15.0,71.0,-3.0,62.0,-1008.0,103.0
5.0,-262.0,40.0,-14.0,73.0,-4.0,62.0,-1002.0,105.0
7.0,-262.0,39.0,-15.0,72.0,-3.0,62.0,-998.0,101.0
11.0,-263.0,40.0,-15.0,72.0,-4.0,66.0,-1002.0,106.0
11.0,-265.0,36.0,-15.0,72.0,-3.0,61.0,-1002.0,101.0
8.0,-262.0,43.0,-16.0,72.0,-2.0,68.0,-1002.0,104.0
8.0,-260.0,41.0,-12.0,72.0,-3.0,57.0,-999.0,106.0
8.0,-265.0,40.0,-12.0,71.0,-1.0,59.0,-994.0,100.0
8.0,-265.0,39.0,-11.0,71.0,-2.0,59.0,-1000.0,103.0
11.0,-263.0,41.0,-10.0,70.0,-2.0,59.0,-992.0,102.0
8.0,-264.0,41.0,-10.0,69.0,-2.0,62.0,-995.0,105.0
9.0,-260.0,42.0,-8.0,70.0,-2.0,62.0,-996.0,108.0
10.0,-263.0,44.0,-8.0,71.0,-3.0,57.0,-997.0,103.0
8.0,-261.0,42.0,-8.0,70.0,-2.0,63.0,-997.0,103.0
8.0,-262.0,38.0,-10.0,70.0,-3.0,57.0,-999.0,105.0
9.0,-265.0,38.0,-11.0,71.0,-4.0,59.0,-999.0,103.0
9.0,-264.0,40.0,-12.0,70.0,-5.0,57.0,-1002.0,100.0
9.0,-259.0,39.0,-14.0,70.0,-4.0,69.0,-1001.0,100.0
10.0,-263.0,37.0,-16.0,70.0,-5.0,53.0,-1000.0,101.0
7.0,-263.0,41.0,-16.0,70.0,-6.0,57.0,-1008.0,98.0
7.0,-264.0,41.0,-17.0,71.0,-6.0,52.0,-1001.0,97.0
11.0,-265.0,42.0,-18.0,72.0,-5.0,54.0,-1010.0,102.0
8.0,-262.0,40.0,-17.0,70.0,-4.0,59.0,-1000.0,101.0
9.0,-265.0,42.0,-15.0,70.0,-5.0,58.0,-1004.0,99.0
6.0,-262.0,40.0,-14.0,70.0,-5.0,56.0,-1010.0,101.0
9.0,-265.0,40.0,-12.0,69.0,-6.0,60.0,-997.0,101.0
8.0,-262.0,40.0,-10.0,71.0,-5.0,60.0,-995.0,105.0
11.0,-263.0,43.0,-9.0,70.0,-5.0,64.0,-999.0,101.0
8.0,-260.0,41.0,-7.0,68.0,-6.0,56.0,-1001.0,103.0
10.0,-259.0,43.0,-6.0,69.0,-5.0,64.0,-1001.0,102.0
9.0,-263.0,41.0,-6.0,68.0,-5.0,61.0,-998.0,104.0
10.0,-263.0,42.0,-6.0,69.0,-6.0,53.0,-990.0,106.0
8.0,-262.0,40.0,-7.0,69.0,-4.0,62.0,-997.0,111.0
11.0,-264.0,42.0,-7.0,70.0,-4.0,63.0,-998.0,108.0
10.0,-263.0,42.0,-10.0,71.0,-2.0,56.0,-997.0,104.0
10.0,-264.0,40.0,-10.0,71.0,-2.0,60.0,-996.0,108.0
8.0,-260.0,40.0,-11.0,71.0,-2.0,57.0,-1001.0,108.0
6.0,-263.0,39.0,-12.0,71.0,-2.0,59.0,-994.0,110.0
9.0,-261.0,42.0,-13.0,71.0,-3.0,63.0,-1001.0,106.0
7.0,-261.0,39.0,-13.0,72.0,-2.0,59.0,-1001.0,102.0
10.0,-266.0,40.0,-14.0,71.0,-4.0,63.0,-1008.0,99.0
11.0,-264.0,39.0,-13.0,71.0,-4.0,69.0,-1013.0,105.0
10.0,-265.0,45.0,-12.0,71.0,-6.0,61.0,-1001.0,103.0
11.0,-264.0,39.0,-10.0,71.0,-5.0,61.0,-1003.0,104.0
8.0,-262.0,42.0,-11.0,70.0,-7.0,59.0,-1000.0,105.0
10.0,-263.0,35.0,-9.0,70.0,-7.0,66.0,-1000.0,104.0
9.0,-262.0,37.0,-8.0,70.0,-6.0,62.0,-1002.0,101.0
9.0,-264.0,41.0,-7.0,70.0,-7.0,62.0,-1003.0,104.0
9.0,-264.0,41.0,-8.0,69.0,-7.0,61.0,-999.0,100.0
6.0,-261.0,38.0,-7.0,70.0,-7.0,63.0,-1000.0,99.0
8.0,-265.0,37.0,-7.0,70.0,-6.0,58.0,-1004.0,104.0
7.0,-262.0,39.0,-5.0,68.0,-6.0,52.0,-1004.0,100.0
11.0,-261.0,38.0,-6.0,69.0,-5.0,60.0,-996.0,98.0
9.0,-261.0,38.0,-7.0,68.0,-4.0,57.0,-994.0,100.0
8.0,-262.0,41.0,-7.0,68.0,-5.0,64.0,-1001.0,97.0
8.0,-262.0,37.0,-7.0,68.0,-6.0,58.0,-993.0,100.0
11.0,-261.0,38.0,-8.0,69.0,-4.0,57.0,-1001.0,107.0
8.0,-263.0,40.0,-9.0,69.0,-4.0,56.0,-998.0,100.0
6.0,-262.0,41.0,-9.0,69.0,-3.0,57.0,-995.0,100.0
11.0,-263.0,38.0,-10.0,69.0,-4.0,65.0,-1000.0,99.0
8.0,-264.0,43.0,-11.0,69.0,-4.0,60.0,-999.0,103.0
8.0,-262.0,35.0,-11.0,69.0,-3.0,62.0,-999.0,105.0
8.0,-264.0,41.0,-9.0,68.0,-4.0,54.0,-1003.0,100.0
11.0,-261.0,41.0,-9.0,69.0,-4.0,55.0,-999.0,105.0
9.0,-261.0,42.0,-10.0,67.0,-4.0,63.0,-1003.0,99.0
11.0,-264.0,45.0,-10.0,67.0,-3.0,58.0,-1000.0,103.0
9.0,-264.0,43.0,-10.0,68.0,-5.0,56.0,-1002.0,101.0
9.0,-263.0,39.0,-11.0,67.0,-5.0,64.0,-995.0,100.0
8.0,-263.0,39.0,-13.0,68.0,-5.0,59.0,-999.0,100.0
10.0,-262.0,42.0,-12.0,67.0,-6.0,61.0,-1001.0,101.0
8.0,-265.0,38.0,-12.0,66.0,-6.0,57.0,-1004.0,101.0
10.0,-265.0,37.0,-12.0,67.0,-4.0,58.0,-997.0,100.0
7.0,-263.0,39.0,-11.0,68.0,-4.0,63.0,-1001.0,106.0
8.0,-264.0,42.0,-8.0,69.0,-4.0,58.0,-1005.0,99.0
8.0,-264.0,39.0,-7.0,68.0,-5.0,69.0,-998.0,104.0
17.0,-259.0,46.0,-6.0,68.0,-5.0,64.0,-999.0,104.0
5.0,-266.0,40.0,-6.0,69.0,-3.0,59.0,-1002.0,102.0
4.0,-259.0,46.0,-5.0,69.0,-4.0,58.0,-1009.0,105.0
3.0,-260.0,35.0,-5.0,69.0,-5.0,64.0,-995.0,106.0
12.0,-261.0,39.0,-6.0,69.0,-4.0,58.0,-995.0,107.0
5.0,-266.0,49.0,-8.0,70.0,-5.0,59.0,-993.0,106.0
15.0,-263.0,43.0,-10.0,69.0,-5.0,62.0,-996.0,110.0
8.0,-259.0,45.0,-10.0,68.0,-4.0,60.0,-1007.0,107.0
8.0,-270.0,39.0,-11.0,70.0,-6.0,58.0,-996.0,107.0
10.0,-260.0,43.0,-12.0,69.0,-4.0,56.0,-1000.0,100.0
8.0,-262.0,41.0,-11.0,71.0,-3.0,56.0,-1004.0,102.0
9.0,-261.0,43.0,-11.0,72.0,-1.0,62.0,-1005.0,104.0
11.0,-265.0,42.0,-12.0,70.0,-3.0,59.0,-1002.0,106.0
12.0,-258.0,33.0,-10.0,72.0,-4.0,60.0,-1007.0,109.0
9.0,-263.0,43.0,-10.0,72.0,-3.0,66.0,-1002.0,103.0
8.0,-262.0,39.0,-9.0,71.0,-5.0,57.0,-1000.0,110.0
10.0,-261.0,45.0,-8.0,71.0,-4.0,62.0,-1002.0,104.0
8.0,-263.0,40.0,-8.0,71.0,-3.0,64.0,-1000.0,108.0
10.0,-264.0,40.0,-9.0,71.0,-5.0,60.0,-1001.0,100.0
6.0,-265.0,41.0,-8.0,70.0,-5.0,62.0,-999.0,103.0
11.0,-265.0,39.0,-8.0,69.0,-5.0,62.0,-1002.0,99.0
10.0,-261.0,39.0,-8.0,71.0,-5.0,66.0,-1004.0,105.0
13.0,-263.0,40.0,-8.0,70.0,-5.0,56.0,-1000.0,105.0
9.0,-264.0,38.0,-9.0,70.0,-5.0,67.0,-997.0,102.0
11.0,-263.0,43.0,-10.0,69.0,-4.0,63.0,-999.0,105.0
9.0,-263.0,44.0,-10.0,69.0,-4.0,58.0,-997.0,106.0
10.0,-261.0,41.0,-9.0,69.0,-3.0,64.0,-1001.0,103.0
8.0,-264.0,41.0,-10.0,70.0,-3.0,59.0,-998.0,106.0
10.0,-264.0,37.0,-10.0,71.0,-3.0,57.0,-1008.0,110.0
6.0,-262.0,42.0,-10.0,72.0,-3.0,65.0,-996.0,104.0
8.0,-260.0,40.0,-10.0,72.0,-4.0,59.0,-1001.0,102.0
11.0,-261.0,35.0,-10.0,72.0,-4.0,60.0,-993.0,104.0
10.0,-262.0,40.0,-9.0,72.0,-4.0,61.0,-998.0,104.0
7.0,-259.0,35.0,-8.0,71.0,-3.0,53.0,-1001.0,106.0
9.0,-264.0,42.0,-9.0,71.0,-4.0,62.0,-1002.0,100.0
7.0,-262.0,38.0,-8.0,72.0,-3.0,62.0,-1002.0,112.0
9.0,-263.0,39.0,-9.0,71.0,-2.0,55.0,-997.0,104.0
10.0,-263.0,41.0,-9.0,71.0,-4.0,59.0,-997.0,110.0
9.0,-262.0,42.0,-9.0,72.0,-3.0,63.0,-998.0,102.0
11.0,-263.0,37.0,-10.0,70.0,-4.0,60.0,-1000.0,106.0
8.0,-263.0,38.0,-10.0,70.0,-5.0,56.0,-998.0,102.0
10.0,-260.0,41.0,-10.0,71.0,-3.0,63.0,-994.0,103.0
8.0,-265.0,38.0,-12.0,69.0,-4.0,61.0,-999.0,105.0
12.0,-264.0,41.0,-12.0,69.0,-2.0,58.0,-999.0,107.0
12.0,-263.0,38.0,-11.0,70.0,-2.0,61.0,-995.0,100.0
5.0,-261.0,39.0,-12.0,70.0,-3.0,59.0,-999.0,105.0
10.0,-267.0,39.0,-12.0,70.0,-2.0,58.0,-1000.0,102.0
9.0,-261.0,44.0,-11.0,69.0,-2.0,58.0,-995.0,99.0
7.0,-261.0,37.0,-12.0,70.0,-1.0,57.0,-999.0,102.0
7.0,-262.0,41.0,-11.0,69.0,-1.0,65.0,-1008.0,108.0
7.0,-261.0,42.0,-10.0,70.0,-1.0,58.0,-1000.0,103.0
7.0,-264.0,41.0,-10.0,70.0,-2.0,58.0,-998.0,105.0
8.0,-262.0,41.0,-9.0,69.0,-2.0,57.0,-999.0,106.0
9.0,-262.0,40.0,-8.0,68.0,-1.0,59.0,-999.0,108.0
6.0,-260.0,37.0,-10.0,69.0,-3.0,60.0,-998.0,104.0
9.0,-264.0,39.0,-10.0,69.0,-2.0,62.0,-999.0,104.0
7.0,-262.0,40.0,-10.0,69.0,-2.0,58.0,-1000.0,108.0
7.0,-262.0,39.0,-8.0,69.0,-2.0,57.0,-1000.0,107.0
9.0,-264.0,41.0,-8.0,69.0,-2.0,54.0,-996.0,107.0
9.0,-263.0,40.0,-8.0,69.0,-2.0,66.0,-1001.0,108.0
11.0,-260.0,42.0,-7.0,67.0,-2.0,57.0,-995.0,99.0
9.0,-259.0,40.0,-8.0,68.0,0.0,67.0,-1002.0,105.0
9.0,-263.0,41.0,-8.0,68.0,-1.0,63.0,-998.0,104.0
9.0,-261.0,40.0,-9.0,68.0,-3.0,57.0,-996.0,108.0
7.0,-258.0,39.0,-9.0,69.0,-2.0,62.0,-996.0,102.0
8.0,-259.0,42.0,-10.0,68.0,-2.0,62.0,-996.0,108.0
8.0,-263.0,39.0,-11.0,68.0,-2.0,63.0,-999.0,107.0
8.0,-265.0,41.0,-11.0,68.0,-1.0,61.0,-997.0,104.0
10.0,-262.0,42.0,-11.0,67.0,0.0,61.0,-998.0,103.0
8.0,-262.0,41.0,-12.0,67.0,-1.0,60.0,-1002.0,109.0
10.0,-262.0,42.0,-12.0,68.0,-1.0,60.0,-1002.0,103.0
7.0,-262.0,42.0,-12.0,68.0,-2.0,64.0,-1007.0,104.0
7.0,-261.0,40.0,-12.0,69.0,-1.0,59.0,-997.0,102.0
10.0,-264.0,41.0,-11.0,67.0,-1.0,68.0,-1002.0,99.0
11.0,-261.0,41.0,-11.0,68.0,1.0,66.0,-1002.0,102.0
8.0,-259.0,43.0,-11.0,68.0,-2.0,59.0,-1005.0,102.0
8.0,-263.0,41.0,-12.0,69.0,-1.0,66.0,-997.0,104.0
10.0,-263.0,39.0,-12.0,68.0,0.0,68.0,-999.0,104.0
9.0,-263.0,41.0,-12.0,68.0,0.0,68.0,-1000.0,105.0
8.0,-263.0,39.0,-11.0,69.0,2.0,68.0,-997.0,103.0
11.0,-264.0,41.0,-10.0,69.0,2.0,71.0,-1008.0,107.0
8.0,-261.0,39.0,-7.0,69.0,3.0,74.0,-999.0,105.0
10.0,-264.0,42.0,-3.0,68.0,4.0,74.0,-1001.0,105.0
10.0,-261.0,41.0,0.0,67.0,3.0,77.0,-1000.0,101.0
13.0,-262.0,38.0,1.0,68.0,6.0,80.0,-1009.0,101.0
11.0,-262.0,40.0,4.0,65.0,6.0,75.0,-1008.0,103.0
14.0,-260.0,40.0,4.0,62.0,4.0,80.0,-1003.0,108.0
12.0,-263.0,42.0,6.0,61.0,0.0,72.0,-1009.0,105.0
10.0,-262.0,39.0,5.0,56.0,-2.0,72.0,-1003.0,102.0
12.0,-264.0,39.0,2.0,55.0,-4.0,72.0,-1011.0,104.0
13.0,-264.0,40.0,-1.0,52.0,-9.0,72.0,-1010.0,99.0
14.0,-266.0,40.0,-8.0,48.0,-13.0,68.0,-1011.0,104.0
10.0,-262.0,44.0,-12.0,46.0,-17.0,64.0,-999.0,104.0
11.0,-261.0,41.0,-15.0,41.0,-19.0,69.0,-1000.0,105.0
8.0,-264.0,42.0,-14.0,37.0,-22.0,64.0,-1007.0,106.0
12.0,-264.0,43.0,-9.0,32.0,-23.0,70.0,-1001.0,107.0
11.0,-264.0,44.0,-3.0,28.0,-26.0,66.0,-1005.0,110.0
11.0,-265.0,40.0,3.0,26.0,-28.0,74.0,-1010.0,107.0
9.0,-262.0,42.0,6.0,22.0,-30.0,62.0,-1004.0,108.0
11.0,-265.0,46.0,8.0,21.0,-34.0,65.0,-1010.0,113.0
8.0,-265.0,43.0,7.0,22.0,-37.0,63.0,-1017.0,113.0
9.0,-264.0,40.0,5.0,23.0,-39.0,64.0,-1000.0,114.0
11.0,-264.0,44.0,1.0,22.0,-40.0,68.0,-1006.0,112.0
9.0,-265.0,43.0,-4.0,23.0,-42.0,66.0,-1001.0,112.0
11.0,-263.0,47.0,-7.0,23.0,-45.0,63.0,-1011.0,108.0
12.0,-263.0,44.0,-7.0,23.0,-47.0,69.0,-1003.0,114.0
17.0,-262.0,43.0,-9.0,23.0,-50.0,75.0,-1012.0,114.0
13.0,-264.0,42.0,-9.0,18.0,-54.0,78.0,-1016.0,115.0
14.0,-263.0,43.0,-12.0,16.0,-60.0,78.0,-1011.0,113.0
14.0,-268.0,42.0,-16.0,13.0,-66.0,79.0,-1011.0,109.0
13.0,-264.0,42.0,-21.0,8.0,-70.0,80.0,-1011.0,109.0
14.0,-265.0,41.0,-26.0,3.0,-75.0,80.0,-1006.0,106.0
9.0,-264.0,45.0,-35.0,-1.0,-81.0,82.0,-1002.0,109.0
9.0,-264.0,43.0,-42.0,-8.0,-84.0,76.0,-999.0,109.0
10.0,-260.0,43.0,-47.0,-19.0,-89.0,77.0,-995.0,105.0
15.0,-265.0,43.0,-52.0,-27.0,-93.0,82.0,-999.0,106.0
13.0,-263.0,44.0,-54.0,-38.0,-96.0,83.0,-1005.0,107.0
13.0,-263.0,39.0,-56.0,-49.0,-98.0,80.0,-1006.0,106.0
12.0,-263.0,41.0,-56.0,-58.0,-100.0,85.0,-1004.0,99.0
15.0,-266.0,41.0,-55.0,-69.0,-103.0,83.0,-1016.0,96.0
13.0,-264.0,38.0,-56.0,-76.0,-108.0,81.0,-1011.0,101.0
11.0,-265.0,39.0,-56.0,-80.0,-112.0,77.0,-1009.0,102.0
10.0,-263.0,41.0,-57.0,-84.0,-116.0,76.0,-1009.0,103.0
14.0,-263.0,45.0,-61.0,-82.0,-122.0,76.0,-998.0,106.0
12.0,-262.0,44.0,-66.0,-79.0,-126.0,75.0,-1002.0,108.0
13.0,-263.0,42.0,-73.0,-70.0,-129.0,76.0,-1011.0,110.0
12.0,-264.0,42.0,-79.0,-61.0,-129.0,69.0,-1002.0,112.0
12.0,-266.0,44.0,-81.0,-51.0,-131.0,69.0,-1016.0,117.0
11.0,-268.0,44.0,-85.0,-45.0,-133.0,68.0,-1007.0,118.0
9.0,-265.0,39.0,-88.0,-42.0,-135.0,67.0,-1001.0,115.0
14.0,-264.0,39.0,-90.0,-40.0,-140.0,69.0,-1009.0,110.0
10.0,-263.0,43.0,-89.0,-39.0,-145.0,64.0,-1005.0,105.0
10.0,-263.0,42.0,-92.0,-40.0,-150.0,68.0,-1000.0,103.0
8.0,-257.0,38.0,-93.0,-41.0,-157.0,67.0,-996.0,100.0
9.0,-264.0,43.0,-97.0,-42.0,-161.0,60.0,-1003.0,98.0
9.0,-263.0,42.0,-101.0,-42.0,-161.0,60.0,-998.0,100.0
10.0,-262.0,37.0,-105.0,-45.0,-163.0,63.0,-1003.0,103.0
11.0,-265.0,37.0,-104.0,-47.0,-166.0,62.0,-1004.0,98.0
7.0,-263.0,42.0,-103.0,-50.0,-166.0,59.0,-993.0,93.0
7.0,-262.0,33.0,-105.0,-50.0,-166.0,57.0,-996.0,94.0
8.0,-262.0,32.0,-109.0,-54.0,-168.0,56.0,-1006.0,90.0
7.0,-267.0,34.0,-116.0,-59.0,-168.0,53.0,-1004.0,86.0
5.0,-262.0,34.0,-122.0,-62.0,-170.0,55.0,-1008.0,84.0
6.0,-265.0,35.0,-125.0,-66.0,-175.0,52.0,-1016.0,86.0
7.0,-265.0,36.0,-127.0,-72.0,-179.0,54.0,-1023.0,80.0
5.0,-268.0,31.0,-127.0,-77.0,-185.0,54.0,-1026.0,85.0
5.0,-267.0,32.0,-128.0,-79.0,-190.0,49.0,-1027.0,79.0
4.0,-268.0,35.0,-130.0,-81.0,-192.0,46.0,-1031.0,79.0
6.0,-271.0,38.0,-133.0,-81.0,-196.0,51.0,-1032.0,78.0
6.0,-270.0,33.0,-139.0,-81.0,-198.0,47.0,-1033.0,79.0
6.0,-267.0,39.0,-146.0,-79.0,-199.0,49.0,-1032.0,88.0
8.0,-269.0,38.0,-148.0,-75.0,-199.0,56.0,-1033.0,93.0
10.0,-269.0,38.0,-145.0,-69.0,-201.0,67.0,-1032.0,100.0
13.0,-269.0,40.0,-141.0,-60.0,-204.0,82.0,-1029.0,99.0
12.0,-269.0,40.0,-129.0,-53.0,-212.0,84.0,-1028.0,100.0
16.0,-267.0,38.0,-117.0,-47.0,-218.0,87.0,-1019.0,103.0
19.0,-266.0,40.0,-103.0,-43.0,-227.0,96.0,-1010.0,102.0
21.0,-262.0,39.0,-96.0,-42.0,-237.0,102.0,-993.0,98.0
20.0,-259.0,34.0,-92.0,-41.0,-248.0,109.0,-983.0,90.0
23.0,-257.0,36.0,-91.0,-41.0,-258.0,108.0,-979.0,87.0
19.0,-258.0,35.0,-94.0,-41.0,-267.0,111.0,-976.0,87.0
20.0,-256.0,35.0,-102.0,-43.0,-276.0,110.0,-977.0,87.0
19.0,-257.0,35.0,-112.0,-48.0,-288.0,102.0,-967.0,80.0
15.0,-256.0,35.0,-126.0,-53.0,-300.0,89.0,-975.0,81.0
17.0,-258.0,36.0,-142.0,-60.0,-307.0,83.0,-976.0,90.0
15.0,-257.0,36.0,-157.0,-68.0,-317.0,90.0,-974.0,89.0
10.0,-256.0,37.0,-171.0,-76.0,-326.0,80.0,-972.0,87.0
12.0,-255.0,34.0,-182.0,-85.0,-333.0,76.0,-974.0,89.0
10.0,-254.0,38.0,-195.0,-95.0,-340.0,60.0,-972.0,95.0
9.0,-258.0,35.0,-205.0,-103.0,-339.0,57.0,-980.0,98.0
9.0,-258.0,37.0,-209.0,-113.0,-339.0,61.0,-973.0,94.0
10.0,-258.0,38.0,-210.0,-118.0,-338.0,67.0,-985.0,84.0
12.0,-265.0,37.0,-212.0,-125.0,-338.0,64.0,-993.0,90.0
13.0,-263.0,33.0,-211.0,-131.0,-340.0,70.0,-999.0,85.0
14.0,-266.0,34.0,-208.0,-136.0,-341.0,83.0,-1001.0,88.0
13.0,-265.0,34.0,-201.0,-138.0,-345.0,79.0,-1009.0,82.0
13.0,-262.0,33.0,-194.0,-142.0,-347.0,84.0,-1006.0,74.0
18.0,-265.0,31.0,-190.0,-143.0,-351.0,85.0,-1001.0,74.0
14.0,-264.0,31.0,-186.0,-145.0,-354.0,82.0,-996.0,70.0
16.0,-262.0,31.0,-185.0,-147.0,-359.0,90.0,-994.0,71.0
18.0,-262.0,32.0,-184.0,-149.0,-364.0,86.0,-995.0,69.0
14.0,-260.0,32.0,-187.0,-155.0,-370.0,83.0,-992.0,73.0
13.0,-262.0,30.0,-192.0,-161.0,-377.0,83.0,-987.0,67.0
12.0,-260.0,29.0,-198.0,-168.0,-383.0,86.0,-992.0,67.0
14.0,-261.0,32.0,-202.0,-174.0,-388.0,88.0,-991.0,71.0
14.0,-262.0,31.0,-208.0,-182.0,-397.0,91.0,-1009.0,65.0
20.0,-267.0,29.0,-213.0,-191.0,-403.0,92.0,-1017.0,61.0
19.0,-263.0,25.0,-219.0,-199.0,-411.0,100.0,-1018.0,61.0
20.0,-266.0,25.0,-225.0,-205.0,-421.0,107.0,-1015.0,58.0
22.0,-263.0,29.0,-228.0,-207.0,-425.0,110.0,-1013.0,53.0
25.0,-264.0,22.0,-231.0,-211.0,-431.0,121.0,-1011.0,46.0
24.0,-266.0,26.0,-233.0,-212.0,-436.0,125.0,-1012.0,49.0
26.0,-260.0,23.0,-236.0,-210.0,-436.0,130.0,-1007.0,45.0
30.0,-262.0,24.0,-238.0,-213.0,-436.0,133.0,-1005.0,43.0
29.0,-266.0,23.0,-241.0,-217.0,-439.0,138.0,-1012.0,31.0
30.0,-263.0,23.0,-243.0,-220.0,-441.0,146.0,-1023.0,33.0
34.0,-268.0,22.0,-248.0,-220.0,-444.0,152.0,-1017.0,25.0
34.0,-264.0,19.0,-251.0,-221.0,-448.0,159.0,-1026.0,20.0
34.0,-267.0,19.0,-254.0,-220.0,-453.0,167.0,-1021.0,20.0
41.0,-268.0,17.0,-256.0,-223.0,-459.0,177.0,-1016.0,19.0
40.0,-266.0,16.0,-257.0,-223.0,-466.0,179.0,-1012.0,16.0
41.0,-265.0,13.0,-262.0,-226.0,-475.0,187.0,-1012.0,15.0
43.0,-266.0,20.0,-268.0,-227.0,-481.0,195.0,-1011.0,20.0
45.0,-265.0,16.0,-275.0,-229.0,-489.0,197.0,-1008.0,28.0
46.0,-267.0,15.0,-279.0,-231.0,-495.0,203.0,-1012.0,26.0
45.0,-266.0,24.0,-277.0,-235.0,-499.0,202.0,-1006.0,39.0
45.0,-264.0,23.0,-275.0,-242.0,-503.0,206.0,-1023.0,44.0
45.0,-266.0,26.0,-269.0,-249.0,-506.0,207.0,-1018.0,46.0
45.0,-266.0,24.0,-260.0,-258.0,-514.0,205.0,-1020.0,39.0
49.0,-265.0,27.0,-254.0,-264.0,-521.0,208.0,-1023.0,42.0
49.0,-265.0,26.0,-245.0,-265.0,-526.0,206.0,-1025.0,30.0
47.0,-269.0,20.0,-234.0,-262.0,-528.0,212.0,-1020.0,26.0
44.0,-267.0,25.0,-225.0,-253.0,-531.0,203.0,-1029.0,36.0
43.0,-269.0,21.0,-219.0,-249.0,-539.0,206.0,-1034.0,26.0
46.0,-267.0,18.0,-214.0,-246.0,-545.0,199.0,-1031.0,22.0
46.0,-270.0,21.0,-205.0,-238.0,-548.0,205.0,-1025.0,21.0
48.0,-269.0,17.0,-193.0,-230.0,-550.0,202.0,-1023.0,15.0
48.0,-272.0,18.0,-172.0,-217.0,-543.0,211.0,-1030.0,12.0
46.0,-269.0,17.0,-150.0,-205.0,-534.0,216.0,-1029.0,17.0
52.0,-267.0,18.0,-129.0,-203.0,-531.0,209.0,-1013.0,8.0
48.0,-268.0,18.0,-112.0,-207.0,-529.0,218.0,-1027.0,10.0
52.0,-260.0,15.0,-97.0,-216.0,-530.0,232.0,-1003.0,3.0
58.0,-261.0,14.0,-83.0,-217.0,-524.0,238.0,-991.0,3.0
51.0,-263.0,19.0,-71.0,-211.0,-514.0,234.0,-1011.0,5.0
54.0,-261.0,12.0,-63.0,-224.0,-516.0,232.0,-988.0,4.0
52.0,-261.0,12.0,-70.0,-248.0,-524.0,238.0,-998.0,1.0
58.0,-262.0,12.0,-85.0,-274.0,-536.0,251.0,-988.0,-9.0
59.0,-261.0,10.0,-107.0,-290.0,-546.0,247.0,-991.0,-14.0
61.0,-258.0,5.0,-134.0,-309.0,-563.0,261.0,-982.0,-24.0
60.0,-257.0,10.0,-158.0,-314.0,-575.0,267.0,-975.0,-25.0
64.0,-260.0,11.0,-177.0,-317.0,-588.0,281.0,-977.0,-22.0
66.0,-261.0,8.0,-190.0,-322.0,-602.0,285.0,-979.0,-23.0
70.0,-257.0,2.0,-197.0,-321.0,-611.0,289.0,-967.0,-24.0
70.0,-255.0,4.0,-196.0,-320.0,-619.0,288.0,-962.0,-34.0
75.0,-249.0,2.0,-198.0,-319.0,-630.0,300.0,-960.0,-34.0
74.0,-252.0,8.0,-196.0,-309.0,-628.0,303.0,-957.0,-32.0
69.0,-255.0,2.0,-190.0,-305.0,-631.0,308.0,-957.0,-29.0
73.0,-254.0,5.0,-189.0,-308.0,-637.0,314.0,-941.0,-36.0
75.0,-253.0,7.0,-192.0,-310.0,-638.0,325.0,-947.0,-48.0
80.0,-253.0,4.0,-197.0,-311.0,-640.0,324.0,-958.0,-52.0
78.0,-255.0,-1.0,-207.0,-319.0,-648.0,331.0,-941.0,-50.0
78.0,-253.0,0.0,-216.0,-322.0,-660.0,333.0,-952.0,-55.0
83.0,-250.0,-1.0,-230.0,-324.0,-670.0,352.0,-941.0,-65.0
79.0,-253.0,2.0,-237.0,-316.0,-672.0,342.0,-946.0,-58.0
86.0,-255.0,3.0,-238.0,-316.0,-675.0,352.0,-955.0,-51.0
89.0,-251.0,1.0,-239.0,-319.0,-686.0,352.0,-939.0,-53.0
80.0,-249.0,1.0,-234.0,-319.0,-690.0,352.0,-941.0,-54.0
82.0,-258.0,1.0,-227.0,-314.0,-690.0,356.0,-942.0,-57.0
83.0,-252.0,1.0,-218.0,-317.0,-699.0,361.0,-937.0,-57.0
87.0,-255.0,1.0,-219.0,-330.0,-715.0,366.0,-945.0,-60.0
85.0,-256.0,0.0,-220.0,-342.0,-726.0,366.0,-949.0,-58.0
88.0,-254.0,2.0,-225.0,-361.0,-738.0,361.0,-945.0,-60.0
94.0,-252.0,0.0,-228.0,-373.0,-752.0,380.0,-932.0,-54.0
86.0,-249.0,3.0,-233.0,-383.0,-767.0,374.0,-939.0,-43.0
95.0,-249.0,5.0,-240.0,-397.0,-782.0,381.0,-935.0,-52.0
92.0,-246.0,1.0,-247.0,-409.0,-799.0,382.0,-933.0,-41.0
93.0,-242.0,1.0,-254.0,-422.0,-817.0,388.0,-926.0,-43.0
93.0,-248.0,5.0,-254.0,-425.0,-826.0,393.0,-926.0,-42.0
99.0,-247.0,1.0,-250.0,-429.0,-843.0,398.0,-921.0,-39.0
104.0,-246.0,1.0,-245.0,-431.0,-860.0,411.0,-910.0,-47.0
101.0,-244.0,2.0,-238.0,-422.0,-868.0,410.0,-913.0,-52.0
104.0,-243.0,2.0,-230.0,-415.0,-878.0,415.0,-922.0,-52.0
106.0,-246.0,3.0,-227.0,-412.0,-891.0,423.0,-914.0,-52.0
105.0,-241.0,0.0,-227.0,-408.0,-903.0,432.0,-912.0,-64.0
110.0,-243.0,2.0,-231.0,-395.0,-908.0,442.0,-906.0,-67.0
108.0,-241.0,0.0,-227.0,-387.0,-918.0,435.0,-910.0,-59.0
110.0,-240.0,-1.0,-222.0,-389.0,-933.0,435.0,-907.0,-66.0
110.0,-241.0,-1.0,-216.0,-392.0,-942.0,453.0,-898.0,-74.0
111.0,-233.0,-4.0,-207.0,-394.0,-950.0,448.0,-887.0,-82.0
113.0,-233.0,-6.0,-198.0,-397.0,-955.0,449.0,-876.0,-92.0
110.0,-232.0,-7.0,-197.0,-400.0,-957.0,451.0,-881.0,-84.0
113.0,-235.0,-6.0,-197.0,-399.0,-956.0,461.0,-876.0,-95.0
114.0,-232.0,-6.0,-202.0,-393.0,-954.0,458.0,-879.0,-91.0
113.0,-235.0,-5.0,-218.0,-390.0,-955.0,464.0,-883.0,-94.0
115.0,-229.0,-8.0,-239.0,-388.0,-959.0,460.0,-877.0,-91.0
119.0,-239.0,-3.0,-262.0,-384.0,-965.0,468.0,-888.0,-80.0
116.0,-234.0,-4.0,-277.0,-385.0,-981.0,470.0,-885.0,-88.0
114.0,-233.0,-6.0,-291.0,-388.0,-999.0,487.0,-891.0,-110.0
117.0,-234.0,-11.0,-300.0,-392.0,-1017.0,466.0,-868.0,-111.0
118.0,-229.0,-12.0,-302.0,-396.0,-1025.0,476.0,-862.0,-121.0
121.0,-225.0,-26.0,-307.0,-403.0,-1033.0,483.0,-849.0,-148.0
122.0,-224.0,-30.0,-317.0,-405.0,-1036.0,493.0,-843.0,-176.0
126.0,-223.0,-31.0,-330.0,-399.0,-1036.0,512.0,-863.0,-186.0
128.0,-214.0,-33.0,-351.0,-399.0,-1041.0,509.0,-803.0,-190.0
128.0,-212.0,-32.0,-364.0,-394.0,-1030.0,519.0,-806.0,-194.0
133.0,-211.0,-28.0,-380.0,-389.0,-1016.0,536.0,-792.0,-186.0
138.0,-211.0,-31.0,-398.0,-385.0,-1003.0,550.0,-790.0,-193.0
138.0,-209.0,-30.0,-413.0,-379.0,-994.0,556.0,-788.0,-183.0
140.0,-208.0,-31.0,-427.0,-374.0,-992.0,570.0,-780.0,-193.0
143.0,-204.0,-35.0,-436.0,-372.0,-990.0,579.0,-765.0,-202.0
146.0,-206.0,-34.0,-440.0,-367.0,-986.0,587.0,-763.0,-209.0
151.0,-206.0,-36.0,-447.0,-363.0,-988.0,604.0,-756.0,-214.0
154.0,-201.0,-41.0,-452.0,-358.0,-991.0,615.0,-756.0,-238.0
155.0,-201.0,-44.0,-466.0,-353.0,-1004.0,609.0,-735.0,-250.0
157.0,-196.0,-50.0,-489.0,-348.0,-1010.0,622.0,-739.0,-258.0
157.0,-196.0,-50.0,-512.0,-337.0,-1005.0,630.0,-738.0,-268.0
157.0,-196.0,-49.0,-539.0,-328.0,-1005.0,630.0,-739.0,-260.0
158.0,-195.0,-51.0,-571.0,-321.0,-1005.0,631.0,-729.0,-264.0
158.0,-195.0,-51.0,-606.0,-312.0,-1006.0,632.0,-732.0,-261.0
156.0,-197.0,-47.0,-637.0,-305.0,-1005.0,635.0,-734.0,-268.0
162.0,-201.0,-54.0,-664.0,-296.0,-1006.0,640.0,-750.0,-272.0
161.0,-201.0,-49.0,-686.0,-283.0,-1011.0,637.0,-743.0,-262.0
159.0,-203.0,-51.0,-702.0,-266.0,-1014.0,645.0,-751.0,-275.0
160.0,-202.0,-55.0,-712.0,-254.0,-1021.0,638.0,-763.0,-271.0
157.0,-201.0,-54.0,-725.0,-244.0,-1031.0,639.0,-756.0,-283.0
157.0,-203.0,-57.0,-739.0,-233.0,-1044.0,634.0,-761.0,-283.0
158.0,-210.0,-59.0,-761.0,-225.0,-1056.0,639.0,-788.0,-300.0
154.0,-202.0,-56.0,-794.0,-220.0,-1076.0,622.0,-745.0,-301.0
157.0,-200.0,-60.0,-816.0,-213.0,-1088.0,624.0,-751.0,-298.0
155.0,-198.0,-61.0,-840.0,-206.0,-1106.0,621.0,-747.0,-301.0
154.0,-198.0,-59.0,-868.0,-200.0,-1124.0,623.0,-741.0,-298.0
158.0,-198.0,-63.0,-893.0,-191.0,-1138.0,625.0,-736.0,-307.0
156.0,-195.0,-60.0,-918.0,-182.0,-1149.0,628.0,-733.0,-310.0
157.0,-191.0,-59.0,-940.0,-167.0,-1163.0,634.0,-716.0,-308.0
160.0,-192.0,-59.0,-953.0,-152.0,-1177.0,636.0,-704.0,-305.0
158.0,-191.0,-62.0,-965.0,-137.0,-1188.0,639.0,-706.0,-314.0
159.0,-187.0,-62.0,-976.0,-124.0,-1207.0,638.0,-687.0,-308.0
165.0,-186.0,-64.0,-978.0,-109.0,-1213.0,650.0,-685.0,-327.0
164.0,-182.0,-67.0,-978.0,-90.0,-1217.0,653.0,-673.0,-343.0
165.0,-183.0,-69.0,-982.0,-70.0,-1222.0,655.0,-670.0,-346.0
167.0,-176.0,-67.0,-982.0,-54.0,-1223.0,662.0,-660.0,-354.0
170.0,-175.0,-69.0,-978.0,-40.0,-1224.0,665.0,-639.0,-356.0
167.0,-175.0,-74.0,-973.0,-32.0,-1224.0,669.0,-628.0,-370.0
164.0,-169.0,-71.0,-972.0,-21.0,-1225.0,655.0,-617.0,-376.0
167.0,-168.0,-77.0,-971.0,-11.0,-1216.0,673.0,-611.0,-387.0
170.0,-168.0,-81.0,-967.0,5.0,-1202.0,677.0,-615.0,-393.0
172.0,-171.0,-82.0,-964.0,18.0,-1188.0,674.0,-615.0,-390.0
170.0,-170.0,-80.0,-952.0,33.0,-1174.0,681.0,-613.0,-401.0
169.0,-166.0,-77.0,-935.0,54.0,-1155.0,683.0,-603.0,-395.0
172.0,-163.0,-87.0,-919.0,73.0,-1135.0,691.0,-595.0,-400.0
171.0,-163.0,-80.0,-899.0,95.0,-1117.0,686.0,-582.0,-397.0
172.0,-160.0,-75.0,-880.0,115.0,-1098.0,693.0,-581.0,-396.0
173.0,-155.0,-83.0,-863.0,134.0,-1079.0,691.0,-569.0,-404.0
175.0,-160.0,-83.0,-849.0,155.0,-1061.0,698.0,-569.0,-408.0
176.0,-158.0,-85.0,-838.0,176.0,-1044.0,696.0,-566.0,-412.0
179.0,-151.0,-85.0,-823.0,197.0,-1024.0,703.0,-553.0,-425.0
178.0,-154.0,-85.0,-811.0,216.0,-1003.0,714.0,-563.0,-416.0
184.0,-160.0,-87.0,-796.0,236.0,-984.0,729.0,-562.0,-434.0
185.0,-155.0,-88.0,-767.0,268.0,-966.0,745.0,-592.0,-435.0
188.0,-156.0,-90.0,-734.0,301.0,-957.0,742.0,-548.0,-435.0
189.0,-152.0,-89.0,-697.0,344.0,-936.0,747.0,-539.0,-435.0
190.0,-153.0,-87.0,-662.0,392.0,-916.0,745.0,-546.0,-430.0
191.0,-151.0,-87.0,-626.0,439.0,-899.0,763.0,-538.0,-420.0
193.0,-151.0,-82.0,-591.0,486.0,-882.0,769.0,-540.0,-409.0
198.0,-148.0,-81.0,-555.0,529.0,-868.0,780.0,-531.0,-404.0
199.0,-149.0,-81.0,-521.0,572.0,-855.0,790.0,-525.0,-396.0
198.0,-144.0,-82.0,-495.0,609.0,-841.0,794.0,-512.0,-394.0
201.0,-142.0,-79.0,-471.0,644.0,-828.0,799.0,-503.0,-397.0
202.0,-137.0,-77.0,-450.0,681.0,-812.0,797.0,-491.0,-387.0
204.0,-136.0,-73.0,-430.0,719.0,-796.0,808.0,-485.0,-380.0
206.0,-136.0,-74.0,-412.0,754.0,-778.0,811.0,-477.0,-370.0
206.0,-129.0,-75.0,-396.0,787.0,-760.0,817.0,-468.0,-361.0
209.0,-130.0,-69.0,-382.0,819.0,-739.0,825.0,-462.0,-354.0
208.0,-128.0,-64.0,-368.0,850.0,-720.0,832.0,-458.0,-339.0
209.0,-129.0,-63.0,-355.0,873.0,-708.0,835.0,-460.0,-325.0
210.0,-129.0,-64.0,-338.0,895.0,-703.0,840.0,-460.0,-329.0
213.0,-129.0,-66.0,-321.0,916.0,-702.0,844.0,-458.0,-335.0
213.0,-127.0,-66.0,-308.0,941.0,-701.0,838.0,-454.0,-332.0
214.0,-128.0,-62.0,-296.0,963.0,-704.0,843.0,-448.0,-329.0
211.0,-124.0,-61.0,-281.0,978.0,-709.0,849.0,-444.0,-323.0
213.0,-124.0,-64.0,-266.0,990.0,-715.0,849.0,-441.0,-327.0
213.0,-121.0,-67.0,-244.0,993.0,-724.0,852.0,-431.0,-331.0
211.0,-119.0,-63.0,-222.0,994.0,-731.0,848.0,-421.0,-333.0
214.0,-122.0,-63.0,-198.0,994.0,-732.0,857.0,-410.0,-333.0
214.0,-118.0,-62.0,-176.0,993.0,-736.0,854.0,-412.0,-317.0
216.0,-116.0,-56.0,-155.0,994.0,-744.0,861.0,-399.0,-319.0
213.0,-116.0,-60.0,-136.0,998.0,-748.0,849.0,-397.0,-299.0
209.0,-113.0,-57.0,-115.0,1005.0,-751.0,854.0,-385.0,-294.0
214.0,-112.0,-55.0,-95.0,1008.0,-755.0,846.0,-380.0,-281.0
211.0,-108.0,-53.0,-76.0,1004.0,-760.0,850.0,-373.0,-276.0
215.0,-107.0,-51.0,-56.0,999.0,-759.0,858.0,-371.0,-275.0
216.0,-107.0,-49.0,-36.0,993.0,-756.0,865.0,-360.0,-276.0
217.0,-106.0,-51.0,-15.0,983.0,-754.0,874.0,-358.0,-274.0
220.0,-102.0,-53.0,13.0,967.0,-754.0,885.0,-350.0,-283.0
223.0,-100.0,-54.0,41.0,953.0,-755.0,892.0,-341.0,-283.0
227.0,-97.0,-56.0,73.0,942.0,-755.0,902.0,-326.0,-269.0
228.0,-93.0,-51.0,106.0,934.0,-753.0,920.0,-317.0,-265.0
233.0,-90.0,-44.0,134.0,917.0,-756.0,929.0,-309.0,-252.0
231.0,-87.0,-42.0,157.0,895.0,-763.0,926.0,-300.0,-243.0
232.0,-86.0,-45.0,167.0,869.0,-772.0,932.0,-293.0,-243.0
236.0,-85.0,-39.0,165.0,846.0,-779.0,933.0,-289.0,-237.0
234.0,-84.0,-38.0,152.0,829.0,-785.0,937.0,-279.0,-230.0
238.0,-82.0,-40.0,131.0,815.0,-794.0,938.0,-289.0,-237.0
236.0,-82.0,-41.0,103.0,805.0,-800.0,936.0,-275.0,-229.0
237.0,-82.0,-40.0,75.0,797.0,-803.0,942.0,-271.0,-218.0
237.0,-76.0,-36.0,49.0,784.0,-809.0,945.0,-259.0,-217.0
240.0,-73.0,-39.0,31.0,768.0,-811.0,945.0,-251.0,-218.0
242.0,-76.0,-35.0,20.0,751.0,-809.0,952.0,-239.0,-214.0
242.0,-69.0,-33.0,12.0,735.0,-805.0,960.0,-230.0,-208.0
244.0,-67.0,-31.0,1.0,722.0,-797.0,970.0,-223.0,-197.0
244.0,-66.0,-33.0,-10.0,706.0,-790.0,978.0,-209.0,-198.0
241.0,-63.0,-37.0,-21.0,694.0,-783.0,975.0,-201.0,-205.0
244.0,-65.0,-36.0,-30.0,687.0,-773.0,982.0,-210.0,-204.0
245.0,-65.0,-35.0,-35.0,684.0,-768.0,979.0,-211.0,-204.0
248.0,-66.0,-35.0,-37.0,689.0,-766.0,979.0,-205.0,-208.0
247.0,-61.0,-31.0,-40.0,703.0,-767.0,977.0,-197.0,-204.0
246.0,-62.0,-31.0,-41.0,718.0,-768.0,981.0,-192.0,-200.0
249.0,-61.0,-35.0,-40.0,735.0,-767.0,984.0,-193.0,-196.0
249.0,-62.0,-32.0,-37.0,750.0,-764.0,984.0,-190.0,-190.0
249.0,-59.0,-33.0,-34.0,758.0,-763.0,993.0,-188.0,-193.0
249.0,-56.0,-29.0,-36.0,763.0,-764.0,990.0,-179.0,-187.0
252.0,-56.0,-28.0,-39.0,769.0,-762.0,996.0,-171.0,-189.0
252.0,-51.0,-27.0,-51.0,770.0,-759.0,992.0,-163.0,-177.0
253.0,-56.0,-24.0,-65.0,775.0,-757.0,1001.0,-168.0,-161.0
253.0,-55.0,-21.0,-79.0,780.0,-758.0,1000.0,-166.0,-156.0
252.0,-52.0,-24.0,-90.0,785.0,-759.0,1003.0,-160.0,-157.0
256.0,-54.0,-19.0,-104.0,789.0,-761.0,1005.0,-163.0,-156.0
255.0,-55.0,-22.0,-124.0,797.0,-769.0,1010.0,-160.0,-153.0
253.0,-55.0,-23.0,-140.0,807.0,-778.0,1003.0,-165.0,-152.0
252.0,-53.0,-24.0,-150.0,816.0,-789.0,1004.0,-169.0,-154.0
250.0,-54.0,-22.0,-154.0,823.0,-796.0,1003.0,-158.0,-146.0
249.0,-52.0,-18.0,-149.0,822.0,-799.0,1001.0,-165.0,-142.0
253.0,-53.0,-20.0,-146.0,819.0,-804.0,1001.0,-163.0,-139.0
253.0,-57.0,-18.0,-143.0,813.0,-807.0,1007.0,-166.0,-131.0
254.0,-56.0,-16.0,-138.0,813.0,-813.0,1000.0,-170.0,-131.0
249.0,-56.0,-12.0,-136.0,815.0,-822.0,992.0,-171.0,-125.0
245.0,-56.0,-10.0,-135.0,817.0,-831.0,984.0,-175.0,-119.0
247.0,-58.0,-12.0,-135.0,814.0,-842.0,981.0,-174.0,-113.0
246.0,-57.0,-8.0,-132.0,812.0,-855.0,983.0,-170.0,-98.0
250.0,-56.0,-4.0,-125.0,812.0,-869.0,991.0,-169.0,-79.0
252.0,-53.0,2.0,-122.0,818.0,-881.0,1011.0,-161.0,-51.0
260.0,-52.0,4.0,-125.0,828.0,-891.0,1028.0,-156.0,-33.0
261.0,-52.0,9.0,-133.0,838.0,-905.0,1039.0,-149.0,-30.0
264.0,-46.0,7.0,-144.0,847.0,-919.0,1054.0,-134.0,-32.0
269.0,-43.0,5.0,-154.0,853.0,-933.0,1066.0,-123.0,-39.0
268.0,-42.0,4.0,-168.0,860.0,-946.0,1067.0,-106.0,-53.0
270.0,-37.0,-1.0,-182.0,865.0,-953.0,1072.0,-93.0,-58.0
269.0,-35.0,0.0,-199.0,867.0,-956.0,1070.0,-95.0,-74.0
268.0,-33.0,-4.0,-219.0,863.0,-951.0,1070.0,-93.0,-86.0
269.0,-35.0,-13.0,-237.0,857.0,-946.0,1071.0,-84.0,-108.0
270.0,-34.0,-13.0,-252.0,850.0,-935.0,1063.0,-81.0,-126.0
266.0,-34.0,-16.0,-260.0,847.0,-923.0,1061.0,-78.0,-135.0
270.0,-33.0,-14.0,-261.0,848.0,-908.0,1068.0,-76.0,-128.0
272.0,-33.0,-14.0,-253.0,856.0,-894.0,1074.0,-78.0,-119.0
272.0,-36.0,-12.0,-239.0,868.0,-879.0,1089.0,-85.0,-112.0
274.0,-34.0,-5.0,-219.0,884.0,-869.0,1087.0,-86.0,-92.0
272.0,-35.0,-4.0,-193.0,903.0,-863.0,1082.0,-85.0,-76.0
272.0,-34.0,1.0,-164.0,920.0,-861.0,1087.0,-76.0,-56.0
271.0,-31.0,0.0,-137.0,936.0,-859.0,1080.0,-70.0,-36.0
271.0,-33.0,15.0,-114.0,948.0,-854.0,1079.0,-73.0,-16.0
274.0,-28.0,16.0,-93.0,955.0,-850.0,1069.0,-42.0,20.0
270.0,-27.0,27.0,-71.0,957.0,-841.0,1092.0,-63.0,13.0
277.0,-22.0,21.0,-56.0,959.0,-850.0,1092.0,-46.0,31.0
276.0,-20.0,23.0,-50.0,960.0,-860.0,1096.0,-29.0,30.0
277.0,-14.0,23.0,-50.0,963.0,-868.0,1099.0,-11.0,26.0
277.0,-10.0,21.0,-54.0,963.0,-879.0,1106.0,3.0,28.0
279.0,-7.0,20.0,-60.0,962.0,-882.0,1096.0,24.0,18.0
277.0,-1.0,15.0,-66.0,960.0,-879.0,1101.0,36.0,4.0
276.0,3.0,10.0,-74.0,955.0,-870.0,1104.0,59.0,-4.0
279.0,5.0,10.0,-88.0,946.0,-855.0,1108.0,67.0,-10.0
277.0,8.0,9.0,-112.0,935.0,-835.0,1106.0,76.0,-21.0
273.0,9.0,10.0,-144.0,923.0,-810.0,1097.0,82.0,-23.0
274.0,8.0,9.0,-173.0,910.0,-766.0,1087.0,73.0,-17.0
267.0,9.0,13.0,-205.0,895.0,-735.0,1070.0,75.0,-2.0
268.0,9.0,14.0,-232.0,873.0,-701.0,1064.0,71.0,0.0
265.0,3.0,23.0,-247.0,854.0,-662.0,1055.0,61.0,17.0
262.0,3.0,25.0,-250.0,837.0,-616.0,1049.0,58.0,37.0
262.0,0.0,30.0,-244.0,824.0,-566.0,1041.0,47.0,55.0
259.0,0.0,41.0,-229.0,819.0,-512.0,1028.0,41.0,83.0
257.0,-5.0,41.0,-201.0,816.0,-461.0,1016.0,32.0,111.0
253.0,0.0,50.0,-160.0,817.0,-412.0,1008.0,30.0,131.0
251.0,-5.0,56.0,-113.0,818.0,-366.0,996.0,30.0,152.0
249.0,-6.0,61.0,-67.0,815.0,-326.0,989.0,25.0,174.0
247.0,-11.0,64.0,-21.0,813.0,-290.0,982.0,14.0,194.0
236.0,-9.0,72.0,23.0,808.0,-254.0,965.0,6.0,205.0
236.0,-14.0,68.0,59.0,803.0,-223.0,948.0,8.0,211.0
231.0,-4.0,67.0,88.0,791.0,-194.0,936.0,9.0,220.0
238.0,-4.0,66.0,107.0,779.0,-168.0,930.0,12.0,235.0
232.0,-22.0,80.0,117.0,770.0,-149.0,914.0,10.0,251.0
229.0,-9.0,86.0,120.0,763.0,-128.0,904.0,15.0,274.0
233.0,-1.0,95.0,123.0,755.0,-113.0,893.0,29.0,294.0
213.0,-6.0,96.0,133.0,745.0,-96.0,881.0,32.0,315.0
221.0,0.0,89.0,144.0,736.0,-77.0,873.0,42.0,332.0
218.0,3.0,105.0,158.0,727.0,-62.0,873.0,53.0,344.0
222.0,1.0,106.0,174.0,719.0,-46.0,877.0,54.0,354.0
216.0,6.0,104.0,195.0,717.0,-33.0,875.0,58.0,348.0
216.0,4.0,101.0,217.0,711.0,-23.0,867.0,61.0,353.0
211.0,10.0,89.0,235.0,700.0,-16.0,861.0,67.0,352.0
212.0,9.0,104.0,248.0,683.0,-11.0,858.0,66.0,349.0
212.0,6.0,108.0,252.0,660.0,-9.0,847.0,73.0,364.0
207.0,13.0,106.0,255.0,625.0,-11.0,832.0,85.0,365.0
209.0,14.0,107.0,256.0,586.0,3.0,824.0,104.0,377.0
211.0,16.0,108.0,251.0,542.0,14.0,847.0,93.0,368.0
216.0,18.0,106.0,228.0,488.0,15.0,847.0,102.0,364.0
212.0,12.0,107.0,210.0,448.0,21.0,851.0,101.0,362.0
208.0,14.0,105.0,202.0,412.0,32.0,826.0,96.0,359.0
208.0,10.0,108.0,197.0,373.0,45.0,830.0,83.0,357.0
209.0,6.0,105.0,193.0,337.0,59.0,842.0,83.0,365.0
210.0,12.0,108.0,189.0,305.0,70.0,845.0,86.0,367.0
210.0,11.0,110.0,188.0,277.0,79.0,853.0,78.0,373.0
213.0,10.0,112.0,191.0,256.0,86.0,857.0,74.0,389.0
217.0,7.0,115.0,201.0,232.0,92.0,868.0,72.0,391.0
220.0,8.0,117.0,216.0,206.0,95.0,895.0,71.0,391.0
226.0,10.0,114.0,231.0,182.0,94.0,907.0,73.0,381.0
231.0,13.0,107.0,240.0,155.0,89.0,922.0,84.0,370.0
232.0,19.0,109.0,244.0,131.0,80.0,926.0,103.0,363.0
234.0,21.0,109.0,248.0,110.0,72.0,932.0,120.0,354.0
236.0,24.0,105.0,253.0,89.0,64.0,935.0,131.0,349.0
237.0,28.0,104.0,260.0,70.0,59.0,939.0,153.0,343.0
238.0,33.0,98.0,259.0,47.0,52.0,952.0,168.0,331.0
243.0,37.0,96.0,249.0,21.0,45.0,954.0,180.0,315.0
243.0,40.0,91.0,231.0,-9.0,45.0,964.0,196.0,299.0
243.0,43.0,84.0,212.0,-42.0,48.0,970.0,199.0,282.0
243.0,45.0,86.0,181.0,-73.0,51.0,973.0,200.0,266.0
244.0,39.0,78.0,147.0,-104.0,55.0,972.0,187.0,263.0
239.0,38.0,83.0,110.0,-134.0,60.0,951.0,182.0,260.0
236.0,37.0,78.0,79.0,-163.0,61.0,945.0,175.0,264.0
235.0,28.0,81.0,49.0,-183.0,64.0,940.0,163.0,266.0
237.0,26.0,86.0,28.0,-206.0,68.0,939.0,151.0,265.0
238.0,28.0,83.0,17.0,-224.0,71.0,942.0,145.0,276.0
237.0,27.0,86.0,12.0,-236.0,73.0,934.0,131.0,280.0
236.0,21.0,83.0,15.0,-243.0,73.0,935.0,129.0,272.0
236.0,16.0,83.0,29.0,-244.0,76.0,938.0,119.0,265.0
240.0,18.0,81.0,53.0,-239.0,79.0,941.0,118.0,262.0
238.0,15.0,83.0,89.0,-227.0,85.0,954.0,118.0,259.0
239.0,14.0,82.0,136.0,-209.0,88.0,962.0,107.0,259.0
242.0,14.0,80.0,183.0,-194.0,92.0,971.0,99.0,251.0
245.0,7.0,79.0,222.0,-185.0,93.0,979.0,86.0,250.0
252.0,8.0,82.0,257.0,-183.0,91.0,992.0,74.0,242.0
250.0,7.0,73.0,280.0,-186.0,89.0,1000.0,73.0,235.0
253.0,6.0,74.0,291.0,-196.0,84.0,1007.0,67.0,229.0
256.0,3.0,74.0,288.0,-208.0,79.0,1016.0,64.0,223.0
257.0,1.0,69.0,275.0,-225.0,72.0,1019.0,55.0,230.0
255.0,2.0,79.0,261.0,-244.0,59.0,1016.0,41.0,233.0
254.0,-1.0,77.0,251.0,-267.0,41.0,1021.0,24.0,244.0
261.0,-14.0,78.0,255.0,-297.0,18.0,1032.0,12.0,247.0
260.0,-14.0,77.0,265.0,-321.0,-7.0,1044.0,-3.0,246.0
258.0,-17.0,81.0,282.0,-335.0,-27.0,1029.0,-13.0,248.0
256.0,-15.0,83.0,304.0,-338.0,-48.0,1018.0,-20.0,265.0
248.0,-20.0,89.0,332.0,-330.0,-65.0,996.0,-35.0,291.0
240.0,-20.0,94.0,368.0,-319.0,-84.0,953.0,-42.0,309.0
233.0,-23.0,98.0,404.0,-310.0,-114.0,926.0,-52.0,318.0
224.0,-22.0,96.0,437.0,-299.0,-150.0,886.0,-43.0,328.0
222.0,-21.0,95.0,462.0,-295.0,-184.0,876.0,-45.0,326.0
216.0,-17.0,94.0,487.0,-290.0,-213.0,859.0,-34.0,305.0
215.0,-9.0,87.0,499.0,-288.0,-233.0,855.0,-4.0,280.0
220.0,-4.0,82.0,507.0,-278.0,-238.0,861.0,21.0,263.0
222.0,4.0,77.0,523.0,-269.0,-237.0,887.0,55.0,258.0
224.0,21.0,68.0,543.0,-259.0,-225.0,900.0,110.0,208.0
233.0,33.0,62.0,545.0,-249.0,-189.0,912.0,167.0,170.0
239.0,40.0,48.0,538.0,-243.0,-147.0,950.0,212.0,136.0
249.0,46.0,36.0,522.0,-249.0,-114.0,992.0,238.0,86.0
251.0,57.0,26.0,478.0,-255.0,-95.0,991.0,250.0,48.0
255.0,54.0,14.0,408.0,-270.0,-86.0,1021.0,242.0,8.0
257.0,56.0,10.0,321.0,-282.0,-92.0,1017.0,257.0,-12.0
266.0,51.0,6.0,226.0,-295.0,-98.0,1038.0,235.0,-25.0
259.0,49.0,11.0,143.0,-295.0,-106.0,1027.0,232.0,-19.0
268.0,43.0,19.0,80.0,-294.0,-101.0,1053.0,211.0,15.0
270.0,35.0,27.0,35.0,-301.0,-87.0,1068.0,193.0,46.0
274.0,26.0,36.0,7.0,-315.0,-78.0,1086.0,158.0,73.0
275.0,20.0,41.0,1.0,-338.0,-73.0,1081.0,118.0,102.0
275.0,9.0,45.0,7.0,-367.0,-69.0,1096.0,111.0,108.0
284.0,0.0,49.0,18.0,-391.0,-70.0,1124.0,64.0,127.0
279.0,-4.0,56.0,47.0,-405.0,-82.0,1113.0,27.0,151.0
271.0,-1.0,50.0,86.0,-413.0,-93.0,1072.0,27.0,131.0
272.0,-11.0,56.0,103.0,-410.0,-93.0,1097.0,4.0,148.0
267.0,-16.0,51.0,116.0,-397.0,-96.0,1060.0,-7.0,138.0
261.0,-15.0,46.0,122.0,-387.0,-95.0,1051.0,-11.0,131.0
259.0,-8.0,43.0,117.0,-376.0,-95.0,1031.0,5.0,110.0
252.0,4.0,42.0,101.0,-364.0,-93.0,1011.0,37.0,91.0
257.0,11.0,28.0,71.0,-354.0,-82.0,1017.0,68.0,65.0
253.0,19.0,19.0,37.0,-341.0,-79.0,1018.0,125.0,15.0
260.0,27.0,16.0,1.0,-335.0,-78.0,1027.0,152.0,-4.0
264.0,25.0,10.0,-26.0,-330.0,-86.0,1060.0,157.0,-14.0
275.0,22.0,15.0,-27.0,-329.0,-111.0,1089.0,149.0,-8.0
276.0,18.0,17.0,16.0,-330.0,-150.0,1102.0,124.0,5.0
278.0,14.0,17.0,89.0,-328.0,-184.0,1107.0,117.0,17.0
282.0,16.0,19.0,175.0,-316.0,-202.0,1115.0,115.0,19.0
280.0,17.0,22.0,250.0,-294.0,-202.0,1114.0,110.0,27.0
281.0,17.0,26.0,305.0,-268.0,-191.0,1111.0,121.0,38.0
276.0,22.0,23.0,338.0,-248.0,-176.0,1107.0,128.0,37.0
282.0,20.0,24.0,346.0,-234.0,-165.0,1110.0,127.0,28.0
276.0,19.0,20.0,333.0,-224.0,-156.0,1095.0,132.0,22.0
276.0,23.0,21.0,304.0,-216.0,-151.0,1087.0,135.0,14.0
269.0,26.0,20.0,262.0,-213.0,-151.0,1067.0,129.0,8.0
261.0,25.0,18.0,211.0,-210.0,-151.0,1050.0,137.0,8.0
258.0,26.0,19.0,152.0,-206.0,-154.0,1021.0,132.0,9.0
255.0,22.0,19.0,87.0,-205.0,-155.0,1007.0,122.0,8.0
250.0,16.0,17.0,24.0,-205.0,-159.0,997.0,113.0,11.0
248.0,19.0,21.0,-42.0,-203.0,-159.0,979.0,109.0,23.0
249.0,18.0,25.0,-105.0,-200.0,-159.0,973.0,103.0,31.0
242.0,14.0,28.0,-168.0,-198.0,-160.0,961.0,96.0,47.0
243.0,13.0,28.0,-225.0,-197.0,-159.0,961.0,83.0,49.0
242.0,11.0,31.0,-274.0,-196.0,-159.0,970.0,76.0,56.0
242.0,9.0,27.0,-315.0,-192.0,-154.0,959.0,74.0,58.0
243.0,6.0,27.0,-347.0,-185.0,-146.0,962.0,72.0,53.0
243.0,6.0,28.0,-372.0,-178.0,-136.0,969.0,63.0,55.0
247.0,9.0,24.0,-392.0,-173.0,-122.0,982.0,70.0,45.0
251.0,4.0,28.0,-410.0,-171.0,-111.0,988.0,57.0,46.0
251.0,7.0,25.0,-426.0,-170.0,-101.0,1000.0,64.0,43.0
256.0,4.0,25.0,-442.0,-172.0,-93.0,1010.0,69.0,40.0
256.0,6.0,28.0,-461.0,-178.0,-90.0,1017.0,73.0,41.0
259.0,10.0,30.0,-479.0,-185.0,-85.0,1027.0,81.0,47.0
261.0,11.0,28.0,-496.0,-196.0,-84.0,1036.0,90.0,40.0
261.0,11.0,23.0,-509.0,-209.0,-82.0,1036.0,100.0,36.0
263.0,14.0,19.0,-520.0,-225.0,-84.0,1044.0,104.0,36.0
261.0,14.0,22.0,-521.0,-239.0,-88.0,1040.0,113.0,30.0
262.0,15.0,17.0,-518.0,-252.0,-87.0,1045.0,107.0,30.0
260.0,16.0,19.0,-510.0,-266.0,-90.0,1038.0,114.0,28.0
263.0,15.0,24.0,-498.0,-282.0,-94.0,1045.0,111.0,36.0
263.0,13.0,28.0,-479.0,-298.0,-99.0,1043.0,105.0,32.0
265.0,12.0,25.0,-456.0,-311.0,-101.0,1040.0,104.0,40.0
260.0,12.0,27.0,-427.0,-321.0,-105.0,1034.0,99.0,49.0
256.0,7.0,30.0,-397.0,-329.0,-108.0,1026.0,94.0,54.0
257.0,12.0,33.0,-376.0,-333.0,-110.0,1021.0,101.0,59.0
258.0,6.0,35.0,-353.0,-335.0,-113.0,1008.0,98.0,65.0
254.0,12.0,30.0,-334.0,-337.0,-114.0,1007.0,94.0,62.0
254.0,14.0,32.0,-318.0,-338.0,-116.0,1004.0,100.0,58.0
250.0,14.0,26.0,-308.0,-342.0,-121.0,1003.0,109.0,53.0
253.0,14.0,27.0,-300.0,-343.0,-125.0,996.0,104.0,53.0
252.0,18.0,27.0,-295.0,-345.0,-129.0,995.0,113.0,40.0
250.0,18.0,24.0,-295.0,-348.0,-136.0,997.0,115.0,41.0
248.0,20.0,26.0,-296.0,-351.0,-139.0,994.0,126.0,30.0
250.0,22.0,23.0,-301.0,-354.0,-142.0,993.0,128.0,33.0
255.0,18.0,24.0,-310.0,-358.0,-147.0,988.0,131.0,22.0
251.0,25.0,17.0,-322.0,-362.0,-150.0,999.0,134.0,22.0
248.0,25.0,20.0,-334.0,-367.0,-151.0,1000.0,133.0,17.0
253.0,21.0,17.0,-347.0,-371.0,-156.0,999.0,137.0,17.0
252.0,24.0,16.0,-357.0,-375.0,-160.0,1000.0,135.0,16.0
252.0,21.0,17.0,-370.0,-380.0,-162.0,999.0,139.0,10.0
252.0,27.0,16.0,-383.0,-384.0,-164.0,997.0,143.0,3.0
253.0,26.0,12.0,-393.0,-390.0,-165.0,1001.0,146.0,-1.0
255.0,21.0,12.0,-401.0,-393.0,-169.0,999.0,136.0,-5.0
254.0,23.0,10.0,-406.0,-396.0,-174.0,1002.0,133.0,-10.0
252.0,21.0,10.0,-409.0,-397.0,-178.0,1004.0,137.0,-16.0
254.0,22.0,11.0,-411.0,-396.0,-181.0,1002.0,142.0,-21.0
256.0,24.0,10.0,-413.0,-398.0,-184.0,1004.0,143.0,-22.0
252.0,25.0,11.0,-417.0,-401.0,-185.0,1005.0,142.0,-22.0
253.0,28.0,7.0,-420.0,-402.0,-186.0,1011.0,152.0,-30.0
254.0,24.0,6.0,-423.0,-402.0,-187.0,1011.0,151.0,-24.0
255.0,29.0,9.0,-426.0,-402.0,-188.0,1007.0,159.0,-34.0
254.0,30.0,8.0,-431.0,-403.0,-186.0,1008.0,162.0,-36.0
254.0,28.0,5.0,-433.0,-406.0,-184.0,1007.0,158.0,-43.0
259.0,30.0,2.0,-431.0,-409.0,-182.0,1010.0,165.0,-44.0
257.0,26.0,3.0,-428.0,-411.0,-180.0,1016.0,161.0,-50.0
257.0,28.0,4.0,-420.0,-409.0,-177.0,1022.0,161.0,-60.0
256.0,34.0,0.0,-414.0,-406.0,-177.0,1016.0,166.0,-62.0
257.0,32.0,1.0,-408.0,-404.0,-172.0,1011.0,160.0,-64.0
259.0,29.0,1.0,-401.0,-400.0,-168.0,1017.0,167.0,-66.0
258.0,28.0,0.0,-395.0,-396.0,-164.0,1014.0,165.0,-70.0
254.0,32.0,0.0,-386.0,-393.0,-162.0,1008.0,164.0,-72.0
256.0,27.0,0.0,-375.0,-388.0,-161.0,1013.0,166.0,-81.0
256.0,30.0,-4.0,-366.0,-383.0,-157.0,1016.0,169.0,-82.0
258.0,26.0,-4.0,-352.0,-375.0,-155.0,1013.0,165.0,-86.0
255.0,26.0,-7.0,-340.0,-366.0,-155.0,1008.0,162.0,-93.0
258.0,29.0,-7.0,-327.0,-354.0,-152.0,1011.0,167.0,-96.0
256.0,27.0,-10.0,-312.0,-341.0,-150.0,1013.0,160.0,-98.0
253.0,31.0,-7.0,-299.0,-329.0,-148.0,1011.0,173.0,-87.0
256.0,34.0,-8.0,-291.0,-317.0,-144.0,1012.0,181.0,-96.0
256.0,32.0,-5.0,-285.0,-304.0,-141.0,1008.0,174.0,-92.0
255.0,34.0,-9.0,-279.0,-293.0,-139.0,1007.0,183.0,-103.0
253.0,38.0,-11.0,-274.0,-281.0,-137.0,998.0,185.0,-110.0
256.0,35.0,-11.0,-273.0,-274.0,-136.0,1007.0,178.0,-114.0
255.0,37.0,-10.0,-272.0,-267.0,-136.0,1009.0,186.0,-119.0
256.0,38.0,-9.0,-274.0,-259.0,-136.0,1011.0,194.0,-112.0
255.0,40.0,-10.0,-279.0,-253.0,-137.0,1005.0,203.0,-109.0
255.0,43.0,-7.0,-286.0,-249.0,-135.0,1005.0,207.0,-98.0
254.0,44.0,-7.0,-294.0,-247.0,-135.0,1004.0,220.0,-97.0
253.0,42.0,-11.0,-301.0,-248.0,-138.0,1002.0,220.0,-109.0
253.0,44.0,-14.0,-309.0,-249.0,-137.0,1000.0,221.0,-110.0
254.0,43.0,-8.0,-312.0,-249.0,-136.0,1001.0,219.0,-119.0
258.0,44.0,-12.0,-313.0,-248.0,-138.0,1005.0,219.0,-122.0
255.0,43.0,-18.0,-315.0,-246.0,-143.0,998.0,216.0,-123.0
252.0,40.0,-14.0,-317.0,-243.0,-147.0,1003.0,216.0,-123.0
255.0,42.0,-16.0,-320.0,-238.0,-152.0,1004.0,217.0,-126.0
250.0,44.0,-16.0,-323.0,-232.0,-154.0,1005.0,224.0,-126.0
255.0,45.0,-13.0,-325.0,-228.0,-154.0,1002.0,215.0,-125.0
257.0,41.0,-15.0,-324.0,-223.0,-149.0,1003.0,201.0,-121.0
254.0,37.0,-13.0,-319.0,-217.0,-147.0,1003.0,199.0,-121.0
255.0,42.0,-16.0,-314.0,-214.0,-148.0,1001.0,198.0,-125.0
255.0,38.0,-17.0,-307.0,-206.0,-146.0,1001.0,198.0,-122.0
252.0,36.0,-14.0,-300.0,-199.0,-145.0,997.0,194.0,-126.0
254.0,40.0,-14.0,-291.0,-191.0,-147.0,994.0,197.0,-128.0
251.0,40.0,-11.0,-281.0,-186.0,-149.0,997.0,194.0,-121.0
254.0,36.0,-16.0,-274.0,-184.0,-153.0,988.0,188.0,-123.0
252.0,37.0,-13.0,-268.0,-183.0,-152.0,1000.0,192.0,-113.0
254.0,34.0,-17.0,-261.0,-182.0,-153.0,1003.0,193.0,-121.0
252.0,40.0,-12.0,-257.0,-182.0,-156.0,997.0,191.0,-122.0
252.0,37.0,-14.0,-252.0,-187.0,-156.0,1003.0,192.0,-129.0
254.0,36.0,-17.0,-249.0,-192.0,-157.0,1000.0,195.0,-123.0
255.0,36.0,-16.0,-246.0,-200.0,-153.0,1000.0,191.0,-123.0
250.0,38.0,-17.0,-241.0,-203.0,-153.0,998.0,190.0,-123.0
253.0,36.0,-13.0,-235.0,-208.0,-154.0,998.0,194.0,-125.0
254.0,39.0,-15.0,-230.0,-213.0,-153.0,993.0,194.0,-127.0
253.0,39.0,-19.0,-225.0,-217.0,-152.0,994.0,197.0,-129.0
249.0,38.0,-17.0,-220.0,-217.0,-150.0,992.0,203.0,-131.0
250.0,38.0,-13.0,-214.0,-216.0,-147.0,991.0,210.0,-137.0
252.0,40.0,-21.0,-207.0,-214.0,-144.0,990.0,207.0,-139.0
252.0,40.0,-20.0,-200.0,-212.0,-139.0,994.0,204.0,-137.0
249.0,39.0,-22.0,-192.0,-210.0,-134.0,988.0,209.0,-146.0
254.0,41.0,-19.0,-187.0,-209.0,-130.0,990.0,213.0,-144.0
250.0,39.0,-22.0,-184.0,-206.0,-125.0,987.0,217.0,-150.0
247.0,44.0,-16.0,-180.0,-204.0,-122.0,987.0,212.0,-149.0
247.0,41.0,-18.0,-178.0,-204.0,-119.0,988.0,214.0,-147.0
252.0,44.0,-20.0,-176.0,-201.0,-114.0,988.0,216.0,-156.0
248.0,45.0,-22.0,-175.0,-200.0,-109.0,990.0,219.0,-156.0
250.0,45.0,-20.0,-175.0,-197.0,-108.0,988.0,218.0,-154.0
251.0,47.0,-23.0,-173.0,-194.0,-106.0,989.0,215.0,-162.0
252.0,44.0,-21.0,-172.0,-191.0,-103.0,987.0,221.0,-159.0
252.0,44.0,-23.0,-172.0,-187.0,-101.0,986.0,220.0,-163.0
253.0,44.0,-24.0,-172.0,-183.0,-99.0,989.0,226.0,-169.0
249.0,43.0,-27.0,-172.0,-176.0,-97.0,986.0,223.0,-170.0
249.0,46.0,-24.0,-172.0,-172.0,-95.0,986.0,226.0,-169.0
252.0,45.0,-27.0,-172.0,-166.0,-89.0,989.0,221.0,-173.0
250.0,46.0,-26.0,-170.0,-157.0,-84.0,989.0,232.0,-181.0
255.0,45.0,-26.0,-165.0,-148.0,-80.0,989.0,231.0,-181.0
250.0,49.0,-30.0,-157.0,-140.0,-74.0,992.0,238.0,-188.0
249.0,51.0,-30.0,-150.0,-129.0,-66.0,991.0,234.0,-184.0
250.0,49.0,-29.0,-143.0,-121.0,-58.0,991.0,237.0,-186.0
252.0,50.0,-26.0,-135.0,-111.0,-47.0,991.0,237.0,-184.0
253.0,47.0,-26.0,-125.0,-104.0,-37.0,990.0,237.0,-182.0
253.0,46.0,-31.0,-115.0,-96.0,-28.0,988.0,235.0,-185.0
252.0,47.0,-26.0,-108.0,-89.0,-20.0,995.0,233.0,-192.0
251.0,49.0,-37.0,-101.0,-84.0,-14.0,993.0,231.0,-198.0
251.0,45.0,-30.0,-96.0,-79.0,-8.0,998.0,225.0,-197.0
250.0,43.0,-32.0,-90.0,-73.0,-5.0,991.0,222.0,-199.0
254.0,43.0,-31.0,-88.0,-69.0,-3.0,995.0,221.0,-200.0
251.0,44.0,-32.0,-86.0,-62.0,-3.0,991.0,218.0,-202.0
250.0,43.0,-33.0,-86.0,-55.0,-4.0,990.0,222.0,-200.0
253.0,44.0,-33.0,-86.0,-49.0,-3.0,988.0,218.0,-201.0
249.0,42.0,-31.0,-87.0,-41.0,-4.0,987.0,215.0,-193.0
252.0,43.0,-34.0,-85.0,-33.0,-7.0,989.0,219.0,-201.0
250.0,41.0,-28.0,-82.0,-24.0,-8.0,990.0,216.0,-184.0
252.0,40.0,-33.0,-81.0,-15.0,-8.0,986.0,221.0,-188.0
247.0,44.0,-30.0,-77.0,-7.0,-11.0,986.0,214.0,-196.0
249.0,43.0,-30.0,-74.0,2.0,-11.0,988.0,214.0,-193.0
247.0,47.0,-28.0,-69.0,10.0,-12.0,986.0,218.0,-188.0
252.0,42.0,-32.0,-64.0,20.0,-12.0,985.0,225.0,-185.0
250.0,41.0,-28.0,-59.0,28.0,-11.0,981.0,222.0,-186.0
247.0,44.0,-28.0,-55.0,36.0,-9.0,987.0,218.0,-179.0
249.0,44.0,-29.0,-50.0,42.0,-10.0,983.0,221.0,-183.0
249.0,48.0,-30.0,-47.0,45.0,-9.0,984.0,224.0,-181.0
251.0,49.0,-26.0,-44.0,48.0,-10.0,986.0,226.0,-175.0
249.0,47.0,-24.0,-41.0,51.0,-10.0,983.0,231.0,-178.0
247.0,48.0,-27.0,-41.0,51.0,-10.0,984.0,233.0,-179.0
251.0,49.0,-31.0,-41.0,52.0,-12.0,985.0,233.0,-182.0
248.0,45.0,-30.0,-42.0,53.0,-12.0,985.0,239.0,-181.0
248.0,52.0,-28.0,-45.0,54.0,-12.0,987.0,239.0,-180.0
248.0,48.0,-32.0,-46.0,54.0,-13.0,983.0,236.0,-180.0
249.0,45.0,-26.0,-48.0,53.0,-15.0,985.0,237.0,-173.0
250.0,51.0,-30.0,-47.0,52.0,-16.0,979.0,240.0,-177.0
247.0,48.0,-30.0,-47.0,50.0,-15.0,984.0,234.0,-182.0
246.0,50.0,-26.0,-47.0,49.0,-15.0,978.0,238.0,-179.0
252.0,50.0,-29.0,-46.0,47.0,-15.0,988.0,242.0,-180.0
249.0,52.0,-32.0,-48.0,45.0,-16.0,982.0,239.0,-178.0
245.0,54.0,-28.0,-49.0,43.0,-15.0,983.0,241.0,-177.0
250.0,48.0,-29.0,-48.0,43.0,-17.0,978.0,243.0,-178.0
247.0,50.0,-28.0,-48.0,42.0,-16.0,982.0,241.0,-174.0
247.0,50.0,-26.0,-46.0,42.0,-17.0,980.0,236.0,-175.0
247.0,48.0,-24.0,-44.0,40.0,-17.0,980.0,233.0,-174.0
248.0,48.0,-28.0,-42.0,38.0,-16.0,974.0,230.0,-174.0
246.0,46.0,-28.0,-45.0,39.0,-19.0,980.0,231.0,-174.0
248.0,47.0,-28.0,-46.0,39.0,-24.0,979.0,228.0,-175.0
245.0,48.0,-29.0,-45.0,37.0,-29.0,978.0,231.0,-173.0
248.0,45.0,-25.0,-49.0,34.0,-33.0,982.0,230.0,-179.0
248.0,48.0,-26.0,-51.0,32.0,-36.0,978.0,231.0,-171.0
250.0,47.0,-29.0,-55.0,30.0,-41.0,979.0,230.0,-169.0
247.0,47.0,-24.0,-61.0,27.0,-48.0,975.0,232.0,-170.0
245.0,46.0,-26.0,-66.0,23.0,-51.0,975.0,232.0,-179.0
248.0,48.0,-26.0,-69.0,18.0,-53.0,978.0,230.0,-176.0
249.0,50.0,-25.0,-72.0,14.0,-54.0,977.0,239.0,-178.0
246.0,49.0,-26.0,-74.0,11.0,-57.0,979.0,235.0,-178.0
246.0,45.0,-27.0,-74.0,6.0,-57.0,976.0,235.0,-173.0
247.0,48.0,-30.0,-76.0,2.0,-58.0,978.0,230.0,-174.0
247.0,49.0,-29.0,-76.0,-3.0,-59.0,978.0,230.0,-177.0
249.0,44.0,-26.0,-78.0,-7.0,-60.0,974.0,229.0,-178.0
247.0,47.0,-29.0,-80.0,-12.0,-63.0,981.0,233.0,-180.0
249.0,47.0,-27.0,-82.0,-16.0,-68.0,975.0,241.0,-175.0
246.0,46.0,-27.0,-86.0,-20.0,-73.0,976.0,238.0,-177.0
246.0,50.0,-30.0,-91.0,-22.0,-75.0,977.0,236.0,-178.0
246.0,52.0,-27.0,-94.0,-23.0,-77.0,973.0,238.0,-179.0
248.0,50.0,-31.0,-94.0,-25.0,-78.0,975.0,242.0,-179.0
249.0,46.0,-30.0,-94.0,-23.0,-78.0,975.0,241.0,-183.0
246.0,49.0,-31.0,-92.0,-23.0,-77.0,978.0,243.0,-181.0
248.0,52.0,-30.0,-88.0,-20.0,-75.0,974.0,247.0,-182.0
247.0,51.0,-31.0,-83.0,-23.0,-73.0,981.0,245.0,-186.0
249.0,52.0,-27.0,-80.0,-24.0,-73.0,976.0,246.0,-184.0
247.0,52.0,-30.0,-76.0,-25.0,-73.0,979.0,248.0,-187.0
246.0,50.0,-28.0,-75.0,-26.0,-71.0,980.0,247.0,-186.0
247.0,51.0,-29.0,-74.0,-28.0,-69.0,978.0,246.0,-192.0
248.0,52.0,-33.0,-73.0,-28.0,-67.0,974.0,246.0,-192.0
246.0,51.0,-31.0,-70.0,-28.0,-65.0,970.0,252.0,-188.0
245.0,54.0,-30.0,-72.0,-28.0,-66.0,978.0,249.0,-188.0
248.0,51.0,-27.0,-74.0,-28.0,-63.0,975.0,251.0,-184.0
249.0,51.0,-33.0,-73.0,-26.0,-60.0,972.0,251.0,-189.0
247.0,51.0,-34.0,-71.0,-26.0,-58.0,976.0,256.0,-199.0
249.0,53.0,-36.0,-65.0,-24.0,-52.0,980.0,251.0,-200.0
249.0,52.0,-31.0,-61.0,-23.0,-48.0,976.0,257.0,-201.0
246.0,53.0,-33.0,-56.0,-19.0,-41.0,978.0,254.0,-204.0
247.0,54.0,-33.0,-52.0,-15.0,-37.0,978.0,259.0,-206.0
251.0,51.0,-36.0,-46.0,-10.0,-32.0,979.0,262.0,-204.0
249.0,55.0,-37.0,-40.0,-6.0,-27.0,983.0,258.0,-205.0
248.0,54.0,-34.0,-34.0,-2.0,-21.0,979.0,260.0,-206.0
247.0,54.0,-37.0,-29.0,4.0,-16.0,975.0,262.0,-209.0
251.0,54.0,-33.0,-27.0,8.0,-11.0,975.0,261.0,-212.0
249.0,56.0,-38.0,-26.0,12.0,-5.0,980.0,257.0,-213.0
247.0,55.0,-33.0,-26.0,14.0,-2.0,982.0,259.0,-213.0
247.0,54.0,-39.0,-28.0,19.0,1.0,980.0,250.0,-216.0
247.0,52.0,-36.0,-30.0,24.0,5.0,975.0,255.0,-209.0
246.0,52.0,-37.0,-31.0,26.0,5.0,970.0,257.0,-217.0
245.0,52.0,-36.0,-32.0,31.0,6.0,976.0,254.0,-212.0
249.0,50.0,-36.0,-34.0,35.0,8.0,979.0,250.0,-214.0
246.0,51.0,-36.0,-35.0,38.0,12.0,979.0,249.0,-208.0
248.0,51.0,-37.0,-34.0,43.0,14.0,974.0,248.0,-212.0
248.0,50.0,-34.0,-30.0,48.0,16.0,973.0,243.0,-213.0
247.0,49.0,-35.0,-28.0,54.0,20.0,974.0,246.0,-213.0
247.0,50.0,-37.0,-22.0,59.0,23.0,976.0,242.0,-208.0
247.0,47.0,-36.0,-20.0,65.0,26.0,977.0,239.0,-210.0
248.0,47.0,-34.0,-16.0,71.0,27.0,976.0,241.0,-215.0
249.0,48.0,-39.0,-15.0,75.0,28.0,977.0,243.0,-216.0
248.0,49.0,-39.0,-13.0,79.0,29.0,976.0,246.0,-212.0
246.0,50.0,-34.0,-12.0,85.0,30.0,977.0,246.0,-217.0
247.0,50.0,-36.0,-11.0,91.0,31.0,974.0,242.0,-213.0
248.0,48.0,-38.0,-10.0,100.0,32.0,979.0,243.0,-213.0
249.0,48.0,-34.0,-8.0,106.0,33.0,971.0,248.0,-212.0
245.0,50.0,-34.0,-9.0,113.0,33.0,977.0,243.0,-205.0
246.0,51.0,-37.0,-9.0,119.0,32.0,977.0,247.0,-204.0
246.0,52.0,-34.0,-9.0,122.0,31.0,977.0,247.0,-202.0
247.0,51.0,-34.0,-11.0,123.0,31.0,975.0,242.0,-205.0
246.0,52.0,-32.0,-11.0,125.0,31.0,974.0,245.0,-198.0
245.0,48.0,-33.0,-12.0,125.0,29.0,980.0,247.0,-203.0
246.0,50.0,-32.0,-13.0,124.0,28.0,980.0,247.0,-199.0
247.0,45.0,-31.0,-15.0,125.0,24.0,976.0,246.0,-199.0
249.0,49.0,-31.0,-15.0,123.0,23.0,979.0,240.0,-196.0
246.0,53.0,-31.0,-14.0,125.0,21.0,976.0,244.0,-194.0
246.0,49.0,-31.0,-14.0,122.0,20.0,971.0,245.0,-192.0
248.0,51.0,-28.0,-14.0,121.0,18.0,972.0,238.0,-187.0
245.0,49.0,-31.0,-11.0,119.0,17.0,976.0,243.0,-190.0
246.0,50.0,-31.0,-11.0,118.0,16.0,978.0,244.0,-189.0
245.0,51.0,-31.0,-9.0,118.0,14.0,976.0,239.0,-190.0
249.0,53.0,-27.0,-7.0,118.0,15.0,976.0,243.0,-186.0
249.0,48.0,-31.0,-8.0,114.0,14.0,978.0,241.0,-189.0
248.0,47.0,-32.0,-8.0,111.0,11.0,977.0,238.0,-185.0
247.0,51.0,-30.0,-7.0,107.0,10.0,975.0,240.0,-184.0
243.0,51.0,-27.0,-7.0,105.0,8.0,977.0,238.0,-189.0
248.0,47.0,-26.0,-7.0,101.0,7.0,979.0,236.0,-181.0
246.0,50.0,-29.0,-8.0,98.0,5.0,979.0,242.0,-186.0
247.0,52.0,-26.0,-9.0,94.0,4.0,978.0,240.0,-189.0
246.0,48.0,-28.0,-11.0,92.0,1.0,980.0,238.0,-186.0
244.0,49.0,-27.0,-13.0,88.0,-1.0,973.0,236.0,-186.0
246.0,49.0,-29.0,-16.0,87.0,-2.0,971.0,241.0,-189.0
250.0,51.0,-30.0,-18.0,84.0,-3.0,975.0,237.0,-186.0
246.0,50.0,-31.0,-20.0,83.0,-5.0,976.0,239.0,-185.0
247.0,48.0,-33.0,-21.0,81.0,-6.0,975.0,245.0,-187.0
246.0,47.0,-31.0,-21.0,82.0,-5.0,979.0,242.0,-194.0
246.0,51.0,-32.0,-23.0,80.0,-3.0,974.0,244.0,-191.0
247.0,50.0,-33.0,-24.0,81.0,-2.0,976.0,242.0,-189.0
247.0,51.0,-30.0,-23.0,78.0,-2.0,972.0,238.0,-188.0
247.0,51.0,-29.0,-22.0,77.0,0.0,972.0,248.0,-189.0
251.0,49.0,-35.0,-19.0,75.0,0.0,976.0,245.0,-189.0
244.0,50.0,-33.0,-16.0,73.0,1.0,975.0,246.0,-187.0
246.0,50.0,-31.0,-15.0,72.0,2.0,979.0,239.0,-188.0
250.0,48.0,-32.0,-13.0,71.0,3.0,978.0,243.0,-191.0
250.0,47.0,-33.0,-13.0,69.0,3.0,979.0,238.0,-193.0
248.0,49.0,-28.0,-14.0,68.0,3.0,982.0,237.0,-192.0
249.0,52.0,-33.0,-15.0,66.0,4.0,982.0,241.0,-197.0
248.0,49.0,-32.0,-15.0,65.0,3.0,981.0,241.0,-194.0
245.0,49.0,-32.0,-16.0,65.0,5.0,978.0,243.0,-195.0
249.0,48.0,-33.0,-18.0,65.0,6.0,972.0,242.0,-200.0
245.0,49.0,-40.0,-17.0,66.0,6.0,978.0,245.0,-198.0
246.0,49.0,-33.0,-17.0,70.0,9.0,981.0,240.0,-201.0
249.0,49.0,-33.0,-15.0,73.0,11.0,975.0,239.0,-202.0
247.0,50.0,-35.0,-13.0,77.0,13.0,971.0,243.0,-200.0
246.0,50.0,-30.0,-11.0,79.0,15.0,977.0,238.0,-203.0
248.0,51.0,-32.0,-8.0,84.0,16.0,975.0,244.0,-195.0
247.0,49.0,-33.0,-4.0,87.0,20.0,978.0,241.0,-197.0
248.0,49.0,-33.0,0.0,91.0,20.0,977.0,238.0,-198.0
248.0,46.0,-31.0,3.0,93.0,21.0,976.0,233.0,-191.0
247.0,47.0,-29.0,6.0,96.0,22.0,978.0,236.0,-196.0
247.0,49.0,-32.0,5.0,99.0,20.0,983.0,235.0,-195.0
245.0,50.0,-32.0,5.0,99.0,17.0,977.0,229.0,-195.0
248.0,47.0,-30.0,0.0,99.0,13.0,976.0,242.0,-201.0
247.0,49.0,-32.0,-4.0,101.0,9.0,976.0,234.0,-201.0
248.0,52.0,-34.0,-10.0,102.0,7.0,980.0,248.0,-193.0
250.0,48.0,-31.0,-14.0,104.0,3.0,978.0,245.0,-193.0
247.0,50.0,-31.0,-17.0,107.0,1.0,979.0,248.0,-192.0
247.0,54.0,-31.0,-21.0,108.0,0.0,981.0,246.0,-196.0
248.0,53.0,-29.0,-24.0,108.0,-1.0,977.0,244.0,-192.0
247.0,56.0,-30.0,-24.0,109.0,-3.0,976.0,251.0,-188.0
247.0,53.0,-27.0,-23.0,110.0,-3.0,977.0,248.0,-190.0
245.0,52.0,-27.0,-22.0,110.0,-3.0,979.0,251.0,-183.0
246.0,53.0,-27.0,-18.0,109.0,-3.0,982.0,249.0,-184.0
249.0,50.0,-28.0,-17.0,108.0,-3.0,979.0,247.0,-184.0
248.0,53.0,-27.0,-16.0,107.0,0.0,974.0,248.0,-182.0
248.0,49.0,-28.0,-13.0,106.0,-1.0,977.0,248.0,-179.0
248.0,49.0,-27.0,-11.0,106.0,-1.0,980.0,245.0,-179.0
248.0,51.0,-26.0,-8.0,104.0,0.0,977.0,242.0,-176.0
247.0,48.0,-24.0,-6.0,105.0,0.0,975.0,239.0,-184.0
251.0,50.0,-30.0,-5.0,105.0,1.0,980.0,239.0,-182.0
250.0,49.0,-29.0,-5.0,103.0,2.0,974.0,238.0,-183.0
246.0,51.0,-28.0,-4.0,103.0,1.0,979.0,238.0,-187.0
249.0,50.0,-29.0,-2.0,101.0,3.0,977.0,235.0,-185.0
252.0,46.0,-30.0,-2.0,101.0,1.0,979.0,240.0,-180.0
249.0,49.0,-27.0,-4.0,99.0,0.0,984.0,243.0,-184.0
248.0,48.0,-27.0,-5.0,99.0,1.0,981.0,241.0,-183.0
247.0,51.0,-31.0,-6.0,100.0,0.0,979.0,238.0,-185.0
250.0,48.0,-28.0,-7.0,97.0,1.0,982.0,243.0,-183.0
247.0,49.0,-29.0,-9.0,95.0,1.0,984.0,249.0,-187.0
248.0,51.0,-29.0,-8.0,95.0,-1.0,980.0,243.0,-186.0
248.0,53.0,-30.0,-9.0,94.0,0.0,980.0,244.0,-180.0
250.0,50.0,-28.0,-9.0,92.0,0.0,979.0,246.0,-181.0
247.0,50.0,-29.0,-8.0,90.0,2.0,977.0,249.0,-183.0
248.0,51.0,-29.0,-9.0,87.0,4.0,974.0,245.0,-182.0
248.0,50.0,-28.0,-8.0,88.0,6.0,981.0,248.0,-182.0
249.0,48.0,-26.0,-8.0,86.0,9.0,979.0,246.0,-181.0
246.0,51.0,-28.0,-7.0,84.0,9.0,980.0,246.0,-183.0
248.0,50.0,-30.0,-6.0,81.0,10.0,981.0,246.0,-177.0
247.0,52.0,-29.0,-8.0,79.0,11.0,977.0,241.0,-186.0
249.0,52.0,-34.0,-8.0,78.0,11.0,985.0,242.0,-178.0
248.0,52.0,-27.0,-9.0,78.0,10.0,981.0,239.0,-180.0
246.0,50.0,-31.0,-10.0,76.0,11.0,982.0,241.0,-181.0
247.0,46.0,-38.0,-13.0,74.0,9.0,981.0,239.0,-180.0
245.0,44.0,-29.0,-14.0,75.0,7.0,980.0,236.0,-187.0
251.0,45.0,-24.0,-16.0,76.0,7.0,979.0,242.0,-182.0
246.0,38.0,-20.0,-20.0,75.0,7.0,977.0,240.0,-184.0
252.0,53.0,-30.0,-20.0,75.0,5.0,982.0,247.0,-181.0
227.0,56.0,-29.0,-18.0,75.0,5.0,979.0,245.0,-185.0
245.0,54.0,-23.0,-17.0,77.0,5.0,981.0,244.0,-183.0
244.0,53.0,-30.0,-16.0,78.0,7.0,985.0,243.0,-180.0
248.0,44.0,-36.0,-14.0,79.0,9.0,977.0,245.0,-180.0
249.0,47.0,-28.0,-12.0,80.0,10.0,977.0,242.0,-184.0
252.0,52.0,-23.0,-10.0,80.0,11.0,977.0,239.0,-185.0
244.0,53.0,-28.0,-10.0,79.0,11.0,978.0,238.0,-182.0
250.0,48.0,-26.0,-9.0,77.0,13.0,983.0,240.0,-181.0
248.0,51.0,-30.0,-9.0,76.0,14.0,983.0,241.0,-180.0
246.0,50.0,-27.0,-11.0,75.0,15.0,977.0,242.0,-185.0
248.0,51.0,-28.0,-10.0,73.0,15.0,982.0,242.0,-185.0
249.0,49.0,-28.0,-12.0,73.0,16.0,981.0,245.0,-179.0
244.0,51.0,-29.0,-12.0,73.0,17.0,977.0,236.0,-179.0
249.0,52.0,-27.0,-10.0,73.0,16.0,980.0,236.0,-179.0
246.0,48.0,-30.0,-10.0,72.0,15.0,977.0,236.0,-178.0
251.0,45.0,-28.0,-12.0,72.0,14.0,979.0,234.0,-180.0
243.0,45.0,-22.0,-14.0,71.0,13.0,983.0,243.0,-178.0
249.0,49.0,-29.0,-14.0,68.0,12.0,983.0,240.0,-175.0
250.0,48.0,-29.0,-15.0,68.0,12.0,976.0,241.0,-180.0
248.0,53.0,-29.0,-16.0,69.0,12.0,978.0,240.0,-182.0
249.0,48.0,-26.0,-16.0,70.0,11.0,981.0,238.0,-183.0
246.0,49.0,-26.0,-16.0,70.0,11.0,982.0,238.0,-184.0
250.0,47.0,-27.0,-17.0,69.0,9.0,981.0,241.0,-183.0
247.0,49.0,-26.0,-17.0,69.0,7.0,986.0,236.0,-183.0
248.0,50.0,-27.0,-18.0,67.0,7.0,980.0,238.0,-185.0
249.0,49.0,-28.0,-20.0,64.0,6.0,980.0,239.0,-177.0
247.0,51.0,-28.0,-18.0,64.0,5.0,978.0,242.0,-182.0
246.0,51.0,-29.0,-18.0,63.0,5.0,978.0,238.0,-181.0
249.0,48.0,-30.0,-17.0,62.0,3.0,979.0,236.0,-181.0
248.0,49.0,-27.0,-17.0,62.0,2.0,980.0,238.0,-179.0
248.0,48.0,-30.0,-18.0,61.0,1.0,977.0,239.0,-179.0
248.0,49.0,-28.0,-20.0,61.0,0.0,975.0,243.0,-177.0
251.0,52.0,-27.0,-18.0,61.0,2.0,982.0,240.0,-179.0
246.0,50.0,-29.0,-18.0,59.0,0.0,978.0,242.0,-179.0
250.0,47.0,-33.0,-19.0,58.0,-1.0,981.0,235.0,-181.0
250.0,47.0,-26.0,-19.0,56.0,1.0,980.0,243.0,-180.0
248.0,49.0,-31.0,-20.0,55.0,0.0,980.0,235.0,-182.0
248.0,45.0,-31.0,-20.0,52.0,2.0,979.0,236.0,-184.0
247.0,48.0,-29.0,-19.0,53.0,3.0,978.0,240.0,-177.0
251.0,48.0,-26.0,-19.0,51.0,3.0,974.0,237.0,-182.0
247.0,50.0,-28.0,-19.0,49.0,3.0,979.0,231.0,-179.0
245.0,48.0,-26.0,-18.0,48.0,4.0,980.0,237.0,-178.0
247.0,45.0,-27.0,-18.0,47.0,3.0,980.0,233.0,-182.0
247.0,46.0,-31.0,-20.0,47.0,4.0,976.0,237.0,-181.0
250.0,49.0,-30.0,-21.0,46.0,3.0,975.0,234.0,-180.0
249.0,51.0,-30.0,-21.0,45.0,3.0,983.0,233.0,-175.0
248.0,46.0,-28.0,-22.0,46.0,4.0,981.0,236.0,-180.0
247.0,52.0,-34.0,-23.0,44.0,3.0,981.0,238.0,-183.0
246.0,49.0,-27.0,-22.0,46.0,3.0,981.0,239.0,-183.0
247.0,48.0,-28.0,-22.0,47.0,1.0,978.0,234.0,-181.0
248.0,49.0,-29.0,-19.0,47.0,1.0,980.0,234.0,-181.0
248.0,51.0,-31.0,-18.0,49.0,0.0,981.0,242.0,-185.0
249.0,48.0,-32.0,-18.0,49.0,1.0,983.0,238.0,-184.0
247.0,49.0,-30.0,-18.0,50.0,1.0,985.0,235.0,-185.0
248.0,49.0,-29.0,-18.0,48.0,-1.0,983.0,245.0,-182.0
249.0,49.0,-28.0,-16.0,48.0,-1.0,978.0,240.0,-182.0
245.0,51.0,-31.0,-14.0,49.0,-1.0,980.0,240.0,-182.0
246.0,51.0,-28.0,-14.0,48.0,0.0,976.0,244.0,-185.0
248.0,52.0,-26.0,-12.0,50.0,1.0,977.0,244.0,-182.0
247.0,50.0,-30.0,-11.0,50.0,1.0,981.0,246.0,-184.0
247.0,50.0,-30.0,-10.0,48.0,2.0,976.0,245.0,-183.0
247.0,51.0,-28.0,-11.0,48.0,1.0,977.0,246.0,-190.0
247.0,51.0,-32.0,-12.0,46.0,2.0,980.0,244.0,-184.0
246.0,50.0,-29.0,-15.0,45.0,2.0,978.0,239.0,-187.0
250.0,49.0,-30.0,-18.0,44.0,2.0,981.0,239.0,-182.0
249.0,52.0,-31.0,-21.0,42.0,2.0,982.0,244.0,-182.0
248.0,48.0,-27.0,-22.0,41.0,3.0,983.0,239.0,-180.0
249.0,52.0,-30.0,-22.0,40.0,2.0,981.0,239.0,-182.0
246.0,49.0,-25.0,-21.0,39.0,2.0,976.0,236.0,-183.0
247.0,49.0,-32.0,-20.0,37.0,2.0,979.0,236.0,-180.0
247.0,47.0,-29.0,-18.0,36.0,3.0,982.0,239.0,-183.0
249.0,49.0,-30.0,-19.0,36.0,4.0,976.0,241.0,-180.0
248.0,48.0,-24.0,-19.0,34.0,4.0,979.0,239.0,-180.0
249.0,47.0,-27.0,-20.0,33.0,5.0,979.0,236.0,-186.0
248.0,49.0,-29.0,-22.0,32.0,5.0,984.0,232.0,-191.0
248.0,48.0,-33.0,-24.0,30.0,5.0,983.0,238.0,-188.0
248.0,50.0,-31.0,-26.0,28.0,5.0,978.0,237.0,-184.0
248.0,49.0,-32.0,-27.0,27.0,7.0,978.0,240.0,-190.0
251.0,50.0,-27.0,-29.0,25.0,6.0,982.0,243.0,-190.0
250.0,48.0,-30.0,-29.0,25.0,6.0,980.0,239.0,-191.0
246.0,50.0,-30.0,-29.0,25.0,7.0,980.0,239.0,-188.0
247.0,48.0,-29.0,-28.0,24.0,7.0,979.0,240.0,-193.0
247.0,50.0,-29.0,-27.0,24.0,6.0,977.0,242.0,-192.0
247.0,50.0,-30.0,-26.0,25.0,8.0,975.0,236.0,-186.0
247.0,48.0,-30.0,-24.0,24.0,9.0,977.0,236.0,-191.0
247.0,48.0,-33.0,-24.0,24.0,11.0,977.0,236.0,-182.0
247.0,48.0,-29.0,-25.0,22.0,12.0,975.0,238.0,-183.0
246.0,50.0,-32.0,-25.0,21.0,12.0,980.0,240.0,-191.0
245.0,50.0,-31.0,-27.0,22.0,14.0,975.0,238.0,-194.0
245.0,48.0,-32.0,-28.0,20.0,15.0,981.0,236.0,-196.0
249.0,50.0,-29.0,-29.0,19.0,15.0,983.0,237.0,-189.0
248.0,49.0,-33.0,-31.0,18.0,15.0,980.0,235.0,-192.0
249.0,48.0,-31.0,-32.0,19.0,14.0,979.0,234.0,-192.0
247.0,46.0,-32.0,-33.0,18.0,13.0,977.0,238.0,-193.0
250.0,50.0,-32.0,-33.0,15.0,11.0,979.0,236.0,-192.0
247.0,48.0,-34.0,-34.0,15.0,11.0,981.0,235.0,-194.0
247.0,50.0,-31.0,-32.0,17.0,11.0,978.0,235.0,-194.0
248.0,49.0,-33.0,-31.0,17.0,9.0,979.0,236.0,-192.0
247.0,49.0,-28.0,-31.0,16.0,9.0,974.0,231.0,-196.0
246.0,52.0,-29.0,-29.0,18.0,11.0,977.0,235.0,-196.0
248.0,46.0,-34.0,-29.0,21.0,11.0,977.0,236.0,-195.0
243.0,47.0,-32.0,-26.0,24.0,9.0,979.0,236.0,-203.0
249.0,48.0,-36.0,-24.0,25.0,11.0,979.0,238.0,-205.0
250.0,48.0,-31.0,-23.0,29.0,10.0,978.0,233.0,-201.0
248.0,49.0,-34.0,-23.0,31.0,11.0,976.0,232.0,-204.0
249.0,50.0,-36.0,-23.0,33.0,7.0,976.0,238.0,-202.0
246.0,46.0,-36.0,-24.0,34.0,6.0,974.0,236.0,-201.0
248.0,46.0,-34.0,-25.0,35.0,7.0,982.0,234.0,-205.0
248.0,46.0,-35.0,-25.0,37.0,6.0,980.0,232.0,-205.0
247.0,49.0,-32.0,-27.0,38.0,5.0,978.0,233.0,-201.0
248.0,46.0,-36.0,-27.0,40.0,5.0,978.0,232.0,-205.0
246.0,48.0,-35.0,-27.0,43.0,5.0,976.0,230.0,-202.0
247.0,47.0,-36.0,-26.0,45.0,4.0,968.0,230.0,-205.0
248.0,49.0,-33.0,-25.0,48.0,3.0,978.0,230.0,-203.0
248.0,47.0,-36.0,-22.0,51.0,4.0,973.0,233.0,-203.0
247.0,48.0,-33.0,-18.0,54.0,4.0,981.0,231.0,-199.0
246.0,47.0,-33.0,-15.0,56.0,5.0,978.0,222.0,-204.0
248.0,46.0,-33.0,-15.0,56.0,3.0,981.0,227.0,-201.0
249.0,46.0,-35.0,-16.0,58.0,3.0,981.0,231.0,-204.0
247.0,48.0,-37.0,-15.0,59.0,2.0,979.0,226.0,-203.0
248.0,49.0,-32.0,-14.0,61.0,1.0,980.0,229.0,-206.0
250.0,46.0,-36.0,-17.0,62.0,1.0,978.0,236.0,-206.0
248.0,49.0,-32.0,-16.0,64.0,1.0,978.0,232.0,-211.0
249.0,48.0,-36.0,-15.0,68.0,-2.0,983.0,235.0,-200.0
249.0,48.0,-35.0,-15.0,71.0,0.0,979.0,236.0,-206.0
251.0,46.0,-36.0,-13.0,72.0,-1.0,977.0,235.0,-204.0
246.0,49.0,-33.0,-13.0,75.0,0.0,974.0,237.0,-204.0
245.0,49.0,-34.0,-12.0,78.0,-2.0,975.0,234.0,-204.0
246.0,50.0,-35.0,-12.0,81.0,0.0,981.0,235.0,-204.0
246.0,49.0,-35.0,-12.0,84.0,0.0,981.0,233.0,-206.0
248.0,44.0,-34.0,-10.0,87.0,1.0,978.0,233.0,-203.0
248.0,44.0,-32.0,-10.0,89.0,1.0,976.0,234.0,-204.0
247.0,47.0,-33.0,-9.0,90.0,1.0,980.0,234.0,-200.0
249.0,46.0,-31.0,-9.0,90.0,1.0,978.0,232.0,-203.0
247.0,46.0,-35.0,-8.0,92.0,2.0,981.0,234.0,-199.0
247.0,47.0,-30.0,-9.0,93.0,2.0,979.0,224.0,-203.0
247.0,46.0,-37.0,-9.0,93.0,1.0,983.0,234.0,-203.0
245.0,44.0,-35.0,-10.0,93.0,1.0,982.0,231.0,-200.0
248.0,48.0,-32.0,-10.0,95.0,0.0,979.0,233.0,-202.0
248.0,49.0,-35.0,-9.0,94.0,-2.0,983.0,230.0,-199.0
251.0,46.0,-35.0,-10.0,96.0,-4.0,975.0,234.0,-201.0
250.0,47.0,-35.0,-10.0,96.0,-3.0,980.0,233.0,-196.0
248.0,48.0,-35.0,-11.0,98.0,-4.0,982.0,234.0,-193.0
248.0,49.0,-30.0,-12.0,98.0,-5.0,977.0,233.0,-203.0
252.0,49.0,-33.0,-11.0,98.0,-5.0,979.0,236.0,-194.0
248.0,46.0,-33.0,-11.0,97.0,-6.0,981.0,234.0,-194.0
248.0,46.0,-31.0,-8.0,98.0,-5.0,979.0,232.0,-193.0
250.0,48.0,-33.0,-8.0,97.0,-5.0,979.0,235.0,-195.0
247.0,48.0,-32.0,-9.0,96.0,-6.0,980.0,233.0,-192.0
249.0,48.0,-34.0,-8.0,95.0,-7.0,976.0,234.0,-190.0
246.0,46.0,-32.0,-8.0,94.0,-5.0,983.0,237.0,-197.0
247.0,48.0,-31.0,-9.0,94.0,-6.0,978.0,236.0,-192.0
248.0,48.0,-32.0,-8.0,94.0,-5.0,976.0,236.0,-198.0
245.0,49.0,-30.0,-10.0,92.0,-4.0,982.0,236.0,-183.0
246.0,51.0,-34.0,-9.0,93.0,-3.0,976.0,236.0,-194.0
250.0,46.0,-34.0,-9.0,93.0,-2.0,979.0,235.0,-193.0
247.0,48.0,-32.0,-10.0,94.0,-2.0,981.0,240.0,-193.0
250.0,48.0,-30.0,-9.0,93.0,-1.0,978.0,242.0,-192.0
248.0,49.0,-34.0,-10.0,92.0,-1.0,978.0,232.0,-190.0
246.0,48.0,-29.0,-10.0,92.0,1.0,977.0,235.0,-190.0
248.0,49.0,-29.0,-10.0,92.0,1.0,983.0,234.0,-193.0
248.0,48.0,-29.0,-10.0,90.0,0.0,978.0,234.0,-193.0
247.0,53.0,-33.0,-11.0,90.0,1.0,977.0,237.0,-189.0
248.0,49.0,-35.0,-11.0,90.0,0.0,978.0,229.0,-189.0
247.0,52.0,-33.0,-10.0,89.0,0.0,979.0,230.0,-196.0
248.0,47.0,-30.0,-11.0,90.0,-1.0,978.0,234.0,-191.0
247.0,48.0,-29.0,-10.0,88.0,-3.0,975.0,235.0,-192.0
249.0,43.0,-32.0,-10.0,89.0,-2.0,975.0,230.0,-191.0
248.0,48.0,-28.0,-11.0,89.0,-2.0,982.0,235.0,-188.0
247.0,47.0,-28.0,-10.0,90.0,-1.0,979.0,234.0,-191.0
247.0,49.0,-28.0,-11.0,90.0,-1.0,980.0,229.0,-192.0
247.0,48.0,-29.0,-11.0,90.0,0.0,983.0,237.0,-201.0
250.0,50.0,-29.0,-11.0,89.0,2.0,984.0,233.0,-193.0
248.0,49.0,-29.0,-12.0,90.0,1.0,982.0,232.0,-192.0
246.0,47.0,-28.0,-12.0,90.0,0.0,984.0,236.0,-186.0
247.0,47.0,-28.0,-10.0,90.0,1.0,979.0,235.0,-195.0
248.0,49.0,-29.0,-9.0,90.0,1.0,976.0,234.0,-190.0
248.0,50.0,-33.0,-8.0,90.0,0.0,980.0,245.0,-192.0
247.0,48.0,-29.0,-7.0,90.0,-1.0,980.0,242.0,-189.0
248.0,48.0,-29.0,-5.0,90.0,0.0,977.0,237.0,-186.0
247.0,47.0,-30.0,-7.0,89.0,1.0,981.0,234.0,-187.0
247.0,47.0,-31.0,-8.0,89.0,1.0,976.0,229.0,-183.0
246.0,48.0,-29.0,-7.0,88.0,1.0,976.0,233.0,-187.0
250.0,49.0,-29.0,-10.0,85.0,0.0,981.0,233.0,-186.0
250.0,45.0,-28.0,-12.0,82.0,0.0,981.0,230.0,-187.0
250.0,45.0,-29.0,-13.0,82.0,0.0,978.0,234.0,-190.0
248.0,49.0,-29.0,-12.0,80.0,-1.0,978.0,231.0,-192.0
249.0,48.0,-35.0,-12.0,81.0,-1.0,984.0,233.0,-191.0
248.0,47.0,-30.0,-12.0,79.0,-1.0,983.0,231.0,-195.0
250.0,46.0,-30.0,-10.0,79.0,-1.0,982.0,228.0,-197.0
249.0,47.0,-29.0,-10.0,81.0,-3.0,983.0,234.0,-196.0
249.0,48.0,-30.0,-11.0,83.0,-3.0,979.0,235.0,-193.0
248.0,48.0,-34.0,-9.0,85.0,-3.0,979.0,237.0,-191.0
248.0,47.0,-31.0,-8.0,87.0,-5.0,979.0,231.0,-187.0
247.0,47.0,-27.0,-8.0,88.0,-6.0,981.0,232.0,-188.0
249.0,46.0,-29.0,-7.0,89.0,-6.0,981.0,234.0,-193.0
247.0,49.0,-30.0,-7.0,89.0,-5.0,977.0,232.0,-191.0
247.0,47.0,-32.0,-9.0,88.0,-5.0,976.0,228.0,-186.0
250.0,47.0,-28.0,-8.0,86.0,-8.0,977.0,233.0,-183.0
249.0,47.0,-28.0,-7.0,87.0,-8.0,977.0,235.0,-184.0
250.0,47.0,-31.0,-10.0,87.0,-7.0,982.0,232.0,-185.0
247.0,48.0,-34.0,-10.0,86.0,-7.0,981.0,227.0,-193.0
247.0,48.0,-34.0,-11.0,86.0,-7.0,980.0,229.0,-190.0
252.0,46.0,-33.0,-12.0,84.0,-8.0,983.0,227.0,-188.0
250.0,46.0,-32.0,-13.0,84.0,-7.0,979.0,233.0,-188.0
247.0,46.0,-33.0,-12.0,84.0,-7.0,983.0,234.0,-191.0
247.0,50.0,-29.0,-12.0,85.0,-7.0,981.0,232.0,-190.0
247.0,48.0,-31.0,-11.0,85.0,-8.0,978.0,232.0,-191.0
250.0,46.0,-30.0,-11.0,85.0,-7.0,982.0,235.0,-186.0
246.0,50.0,-34.0,-12.0,87.0,-8.0,981.0,231.0,-187.0
249.0,46.0,-30.0,-11.0,89.0,-9.0,979.0,234.0,-193.0
248.0,51.0,-27.0,-11.0,90.0,-10.0,980.0,237.0,-192.0
247.0,47.0,-27.0,-11.0,93.0,-10.0,981.0,232.0,-190.0
249.0,50.0,-33.0,-10.0,93.0,-11.0,976.0,236.0,-185.0
247.0,48.0,-31.0,-11.0,96.0,-11.0,977.0,232.0,-189.0
250.0,47.0,-31.0,-11.0,97.0,-13.0,980.0,238.0,-191.0
248.0,48.0,-29.0,-12.0,97.0,-12.0,982.0,240.0,-186.0
248.0,47.0,-32.0,-11.0,98.0,-13.0,978.0,238.0,-185.0
248.0,49.0,-30.0,-11.0,99.0,-13.0,982.0,235.0,-192.0
246.0,48.0,-29.0,-9.0,99.0,-11.0,975.0,239.0,-183.0
251.0,49.0,-31.0,-8.0,101.0,-9.0,981.0,241.0,-183.0
249.0,51.0,-26.0,-7.0,101.0,-8.0,975.0,235.0,-183.0
247.0,49.0,-29.0,-6.0,98.0,-6.0,983.0,236.0,-184.0
247.0,47.0,-31.0,-5.0,99.0,-5.0,980.0,235.0,-183.0
248.0,48.0,-29.0,-4.0,97.0,-5.0,980.0,237.0,-183.0
247.0,51.0,-28.0,-2.0,96.0,-4.0,984.0,235.0,-186.0
248.0,46.0,-30.0,0.0,94.0,-2.0,979.0,229.0,-182.0
249.0,47.0,-29.0,0.0,95.0,-2.0,977.0,234.0,-184.0
250.0,47.0,-31.0,0.0,95.0,-2.0,980.0,238.0,-189.0
250.0,49.0,-29.0,-1.0,95.0,-3.0,981.0,235.0,-181.0
246.0,52.0,-30.0,-3.0,96.0,-2.0,982.0,237.0,-182.0
249.0,48.0,-28.0,-3.0,95.0,-4.0,980.0,243.0,-180.0
248.0,51.0,-27.0,-4.0,94.0,-3.0,978.0,236.0,-177.0
247.0,50.0,-29.0,-4.0,94.0,-4.0,976.0,237.0,-184.0
250.0,47.0,-26.0,-4.0,94.0,-6.0,979.0,238.0,-178.0
248.0,48.0,-30.0,-6.0,94.0,-5.0,983.0,237.0,-175.0
247.0,48.0,-29.0,-8.0,95.0,-4.0,982.0,243.0,-184.0
248.0,47.0,-31.0,-8.0,95.0,-3.0,977.0,244.0,-181.0
248.0,51.0,-29.0,-8.0,95.0,1.0,982.0,240.0,-185.0
249.0,50.0,-33.0,-8.0,95.0,2.0,984.0,243.0,-183.0
247.0,49.0,-31.0,-5.0,96.0,4.0,984.0,237.0,-186.0
249.0,48.0,-27.0,-1.0,99.0,7.0,982.0,242.0,-183.0
251.0,49.0,-31.0,4.0,99.0,9.0,985.0,237.0,-186.0
247.0,47.0,-34.0,11.0,102.0,11.0,983.0,235.0,-194.0
247.0,48.0,-29.0,17.0,105.0,11.0,985.0,235.0,-189.0
252.0,46.0,-32.0,23.0,109.0,14.0,983.0,233.0,-192.0
252.0,48.0,-32.0,32.0,116.0,17.0,986.0,230.0,-197.0
248.0,47.0,-28.0,38.0,122.0,20.0,985.0,228.0,-193.0
252.0,47.0,-31.0,43.0,129.0,23.0,983.0,230.0,-192.0
251.0,45.0,-32.0,47.0,138.0,24.0,983.0,221.0,-184.0
248.0,47.0,-31.0,51.0,143.0,24.0,987.0,224.0,-182.0
250.0,43.0,-30.0,55.0,149.0,24.0,983.0,224.0,-182.0
250.0,43.0,-29.0,60.0,153.0,24.0,983.0,223.0,-185.0
251.0,43.0,-31.0,68.0,157.0,25.0,981.0,216.0,-179.0
251.0,41.0,-28.0,76.0,162.0,26.0,984.0,217.0,-178.0
247.0,44.0,-28.0,85.0,164.0,27.0,982.0,219.0,-181.0
251.0,40.0,-29.0,95.0,170.0,28.0,983.0,220.0,-178.0
249.0,42.0,-31.0,107.0,175.0,27.0,987.0,224.0,-188.0
250.0,41.0,-32.0,122.0,180.0,31.0,988.0,219.0,-196.0
254.0,44.0,-30.0,140.0,186.0,35.0,990.0,219.0,-187.0
250.0,44.0,-32.0,162.0,193.0,39.0,992.0,211.0,-196.0
252.0,40.0,-33.0,180.0,204.0,44.0,994.0,209.0,-191.0
252.0,40.0,-28.0,196.0,214.0,44.0,992.0,205.0,-191.0
251.0,40.0,-26.0,212.0,226.0,46.0,992.0,213.0,-184.0
251.0,42.0,-28.0,231.0,238.0,49.0,989.0,213.0,-183.0
253.0,38.0,-29.0,250.0,251.0,55.0,987.0,214.0,-189.0
253.0,40.0,-30.0,271.0,266.0,63.0,988.0,213.0,-188.0
248.0,43.0,-31.0,294.0,283.0,71.0,982.0,218.0,-190.0
250.0,38.0,-30.0,317.0,302.0,80.0,990.0,212.0,-187.0
252.0,39.0,-29.0,342.0,323.0,88.0,983.0,214.0,-196.0
247.0,36.0,-31.0,368.0,342.0,99.0,989.0,201.0,-188.0
253.0,36.0,-28.0,394.0,358.0,109.0,992.0,193.0,-191.0
252.0,34.0,-32.0,418.0,369.0,113.0,992.0,184.0,-179.0
253.0,34.0,-27.0,432.0,377.0,115.0,996.0,176.0,-180.0
253.0,31.0,-30.0,440.0,381.0,113.0,994.0,176.0,-177.0
251.0,33.0,-27.0,444.0,384.0,113.0,990.0,173.0,-178.0
250.0,30.0,-25.0,445.0,390.0,109.0,985.0,179.0,-173.0
249.0,31.0,-25.0,448.0,394.0,105.0,989.0,181.0,-166.0
251.0,32.0,-23.0,451.0,398.0,102.0,985.0,183.0,-165.0
250.0,35.0,-26.0,459.0,402.0,100.0,976.0,188.0,-165.0
245.0,39.0,-26.0,470.0,407.0,100.0,981.0,192.0,-169.0
246.0,38.0,-24.0,481.0,412.0,106.0,972.0,193.0,-166.0
247.0,38.0,-22.0,489.0,422.0,107.0,975.0,195.0,-161.0
244.0,42.0,-22.0,488.0,435.0,107.0,975.0,203.0,-150.0
245.0,44.0,-16.0,481.0,447.0,109.0,971.0,202.0,-138.0
246.0,39.0,-19.0,468.0,452.0,108.0,974.0,204.0,-126.0
249.0,41.0,-15.0,450.0,457.0,108.0,977.0,214.0,-128.0
245.0,42.0,-15.0,429.0,458.0,106.0,974.0,213.0,-120.0
253.0,38.0,-13.0,406.0,458.0,101.0,988.0,202.0,-116.0
249.0,42.0,-13.0,384.0,450.0,95.0,983.0,214.0,-112.0
246.0,43.0,-11.0,364.0,438.0,93.0,983.0,215.0,-112.0
248.0,44.0,-10.0,344.0,424.0,86.0,984.0,213.0,-109.0
249.0,46.0,-7.0,328.0,409.0,79.0,988.0,207.0,-98.0
250.0,48.0,-12.0,308.0,395.0,73.0,979.0,224.0,-97.0
251.0,43.0,-5.0,288.0,381.0,67.0,985.0,215.0,-95.0
250.0,46.0,-4.0,273.0,373.0,55.0,985.0,210.0,-92.0
247.0,48.0,-3.0,263.0,371.0,41.0,972.0,220.0,-89.0
246.0,45.0,-4.0,259.0,376.0,29.0,956.0,224.0,-94.0
245.0,49.0,-10.0,254.0,377.0,19.0,975.0,234.0,-105.0
253.0,47.0,-10.0,240.0,370.0,16.0,992.0,236.0,-114.0
254.0,51.0,-12.0,211.0,352.0,14.0,1003.0,246.0,-117.0
255.0,55.0,-14.0,175.0,324.0,13.0,1015.0,249.0,-112.0
256.0,52.0,-14.0,139.0,300.0,12.0,1018.0,251.0,-117.0
255.0,51.0,-14.0,110.0,270.0,9.0,1014.0,241.0,-117.0
253.0,48.0,-10.0,102.0,249.0,2.0,1002.0,235.0,-118.0
253.0,48.0,-9.0,102.0,233.0,-8.0,985.0,233.0,-115.0
248.0,48.0,-10.0,109.0,224.0,-7.0,982.0,234.0,-111.0
248.0,51.0,-7.0,113.0,220.0,-2.0,980.0,235.0,-112.0
248.0,45.0,-9.0,113.0,216.0,3.0,985.0,232.0,-115.0
249.0,47.0,-8.0,113.0,216.0,14.0,988.0,218.0,-108.0
253.0,38.0,-10.0,111.0,214.0,26.0,994.0,205.0,-111.0
249.0,41.0,-6.0,114.0,212.0,33.0,985.0,200.0,-106.0
248.0,36.0,-1.0,119.0,208.0,42.0,995.0,186.0,-95.0
252.0,35.0,-5.0,125.0,203.0,47.0,997.0,181.0,-96.0
252.0,34.0,-2.0,127.0,195.0,50.0,995.0,184.0,-83.0
252.0,33.0,-2.0,122.0,181.0,52.0,998.0,177.0,-83.0
253.0,35.0,-2.0,120.0,167.0,54.0,1005.0,173.0,-81.0
252.0,34.0,-4.0,114.0,153.0,51.0,1004.0,171.0,-76.0
256.0,29.0,-2.0,108.0,140.0,43.0,1010.0,164.0,-80.0
254.0,30.0,-2.0,103.0,125.0,33.0,1014.0,160.0,-82.0
254.0,29.0,-6.0,96.0,108.0,22.0,1009.0,163.0,-86.0
253.0,29.0,-7.0,89.0,94.0,13.0,1006.0,156.0,-92.0
252.0,30.0,-7.0,86.0,82.0,5.0,994.0,164.0,-91.0
249.0,30.0,-4.0,87.0,70.0,3.0,997.0,162.0,-86.0
255.0,29.0,-7.0,88.0,61.0,-7.0,1004.0,163.0,-88.0
253.0,32.0,0.0,86.0,50.0,-22.0,993.0,162.0,-86.0
249.0,28.0,-1.0,83.0,41.0,-39.0,985.0,167.0,-78.0
249.0,31.0,-4.0,79.0,29.0,-52.0,990.0,167.0,-76.0
251.0,29.0,-4.0,74.0,15.0,-68.0,984.0,175.0,-79.0
253.0,33.0,-3.0,63.0,-2.0,-82.0,998.0,178.0,-82.0
255.0,32.0,-3.0,50.0,-24.0,-96.0,1003.0,176.0,-83.0
256.0,35.0,-3.0,41.0,-45.0,-110.0,1002.0,181.0,-81.0
257.0,36.0,-3.0,32.0,-70.0,-118.0,1011.0,187.0,-87.0
255.0,39.0,-2.0,23.0,-96.0,-126.0,1010.0,194.0,-81.0
255.0,37.0,-6.0,17.0,-119.0,-132.0,1015.0,197.0,-91.0
252.0,40.0,-5.0,11.0,-137.0,-138.0,1006.0,206.0,-97.0
255.0,43.0,-12.0,6.0,-153.0,-142.0,1005.0,217.0,-109.0
251.0,51.0,-4.0,0.0,-168.0,-140.0,998.0,231.0,-102.0
252.0,48.0,-7.0,-2.0,-179.0,-132.0,991.0,236.0,-103.0
251.0,48.0,-8.0,-1.0,-190.0,-123.0,991.0,237.0,-105.0
250.0,51.0,-6.0,6.0,-198.0,-109.0,988.0,244.0,-101.0
251.0,50.0,-4.0,15.0,-205.0,-97.0,998.0,237.0,-97.0
255.0,50.0,-10.0,18.0,-215.0,-82.0,998.0,242.0,-108.0
253.0,50.0,-13.0,8.0,-229.0,-72.0,1004.0,234.0,-108.0
252.0,52.0,-8.0,-15.0,-251.0,-64.0,1004.0,241.0,-111.0
253.0,53.0,-16.0,-41.0,-277.0,-61.0,1003.0,256.0,-121.0
254.0,59.0,-14.0,-71.0,-299.0,-55.0,1004.0,268.0,-127.0
254.0,60.0,-16.0,-92.0,-317.0,-47.0,1004.0,268.0,-126.0
256.0,57.0,-16.0,-100.0,-328.0,-32.0,1010.0,272.0,-129.0
257.0,56.0,-14.0,-100.0,-336.0,-14.0,1012.0,272.0,-130.0
257.0,56.0,-17.0,-93.0,-342.0,8.0,1014.0,265.0,-137.0
258.0,58.0,-20.0,-86.0,-346.0,31.0,1021.0,265.0,-139.0
258.0,55.0,-22.0,-75.0,-353.0,53.0,1023.0,261.0,-134.0
258.0,54.0,-14.0,-62.0,-366.0,75.0,1023.0,262.0,-130.0
257.0,59.0,-13.0,-46.0,-382.0,90.0,1018.0,260.0,-122.0
256.0,58.0,-10.0,-35.0,-401.0,106.0,1014.0,266.0,-114.0
253.0,57.0,-9.0,-25.0,-420.0,116.0,1012.0,268.0,-109.0
254.0,57.0,-12.0,-13.0,-443.0,125.0,1006.0,268.0,-105.0
252.0,56.0,-8.0,-4.0,-468.0,134.0,1003.0,264.0,-111.0
252.0,54.0,-13.0,0.0,-497.0,140.0,1004.0,266.0,-120.0
253.0,56.0,-18.0,1.0,-528.0,145.0,999.0,263.0,-125.0
255.0,55.0,-20.0,-2.0,-567.0,146.0,1002.0,262.0,-139.0
253.0,55.0,-21.0,-8.0,-604.0,148.0,998.0,264.0,-156.0
245.0,57.0,-21.0,-19.0,-640.0,149.0,987.0,258.0,-155.0
245.0,55.0,-25.0,-26.0,-674.0,154.0,972.0,255.0,-166.0
243.0,54.0,-24.0,-31.0,-700.0,159.0,966.0,258.0,-173.0
244.0,53.0,-31.0,-31.0,-722.0,166.0,957.0,257.0,-183.0
242.0,55.0,-30.0,-26.0,-734.0,177.0,950.0,251.0,-183.0
243.0,54.0,-33.0,-15.0,-744.0,190.0,953.0,247.0,-191.0
239.0,50.0,-30.0,-1.0,-751.0,203.0,940.0,243.0,-190.0
243.0,46.0,-29.0,16.0,-751.0,218.0,944.0,236.0,-183.0
240.0,45.0,-27.0,33.0,-748.0,231.0,947.0,226.0,-171.0
246.0,45.0,-29.0,57.0,-744.0,240.0,973.0,226.0,-168.0
247.0,45.0,-27.0,72.0,-746.0,247.0,981.0,213.0,-182.0
250.0,41.0,-30.0,82.0,-754.0,247.0,987.0,210.0,-194.0
246.0,40.0,-31.0,87.0,-772.0,243.0,981.0,210.0,-203.0
244.0,44.0,-36.0,97.0,-797.0,231.0,976.0,215.0,-218.0
243.0,43.0,-46.0,112.0,-821.0,218.0,961.0,221.0,-234.0
244.0,44.0,-44.0,129.0,-838.0,212.0,964.0,225.0,-247.0
241.0,45.0,-41.0,145.0,-845.0,211.0,946.0,227.0,-249.0
245.0,44.0,-51.0,152.0,-844.0,221.0,946.0,221.0,-255.0
245.0,45.0,-49.0,150.0,-833.0,237.0,970.0,215.0,-254.0
244.0,41.0,-46.0,144.0,-822.0,247.0,965.0,209.0,-251.0
243.0,40.0,-51.0,141.0,-820.0,262.0,966.0,204.0,-265.0
248.0,38.0,-50.0,142.0,-819.0,268.0,975.0,194.0,-272.0
244.0,38.0,-51.0,148.0,-820.0,271.0,972.0,196.0,-267.0
244.0,33.0,-57.0,155.0,-821.0,276.0,965.0,197.0,-276.0
247.0,36.0,-54.0,156.0,-823.0,281.0,972.0,197.0,-284.0
243.0,40.0,-56.0,158.0,-822.0,288.0,961.0,199.0,-278.0
244.0,40.0,-53.0,161.0,-822.0,299.0,953.0,214.0,-275.0
239.0,43.0,-48.0,166.0,-818.0,314.0,948.0,217.0,-256.0
240.0,40.0,-52.0,176.0,-816.0,332.0,957.0,216.0,-255.0
244.0,43.0,-55.0,183.0,-812.0,348.0,962.0,220.0,-276.0
247.0,46.0,-55.0,173.0,-802.0,360.0,979.0,219.0,-270.0
244.0,40.0,-52.0,154.0,-790.0,370.0,954.0,214.0,-273.0
244.0,39.0,-53.0,136.0,-780.0,372.0,972.0,205.0,-275.0
246.0,42.0,-58.0,126.0,-772.0,372.0,977.0,204.0,-301.0
245.0,43.0,-62.0,115.0,-759.0,374.0,979.0,206.0,-318.0
247.0,48.0,-67.0,103.0,-744.0,379.0,984.0,219.0,-349.0
248.0,50.0,-68.0,87.0,-726.0,385.0,979.0,225.0,-350.0
247.0,49.0,-68.0,72.0,-705.0,395.0,960.0,242.0,-350.0
246.0,52.0,-75.0,65.0,-690.0,416.0,963.0,249.0,-368.0
248.0,48.0,-77.0,56.0,-675.0,436.0,986.0,241.0,-391.0
242.0,43.0,-75.0,37.0,-662.0,456.0,952.0,222.0,-377.0
234.0,42.0,-80.0,37.0,-673.0,483.0,927.0,220.0,-389.0
230.0,37.0,-82.0,48.0,-684.0,505.0,907.0,196.0,-404.0
234.0,33.0,-89.0,60.0,-684.0,521.0,920.0,178.0,-431.0
235.0,28.0,-91.0,55.0,-682.0,537.0,929.0,160.0,-431.0
233.0,21.0,-96.0,39.0,-683.0,556.0,910.0,139.0,-452.0
250.0,20.0,-101.0,23.0,-680.0,573.0,969.0,130.0,-454.0
227.0,11.0,-106.0,-2.0,-677.0,594.0,893.0,105.0,-499.0
236.0,12.0,-111.0,-5.0,-640.0,579.0,909.0,92.0,-523.0
243.0,9.0,-115.0,-7.0,-591.0,564.0,949.0,94.0,-522.0
254.0,13.0,-114.0,-6.0,-528.0,550.0,988.0,116.0,-520.0
245.0,15.0,-109.0,9.0,-458.0,548.0,962.0,119.0,-511.0
236.0,14.0,-115.0,37.0,-402.0,553.0,924.0,103.0,-523.0
224.0,11.0,-117.0,81.0,-366.0,569.0,884.0,108.0,-541.0
213.0,7.0,-120.0,132.0,-332.0,591.0,841.0,86.0,-565.0
204.0,4.0,-121.0,180.0,-305.0,620.0,817.0,67.0,-567.0
200.0,0.0,-125.0,217.0,-281.0,648.0,801.0,48.0,-585.0
202.0,-5.0,-122.0,235.0,-259.0,666.0,785.0,29.0,-570.0
202.0,-8.0,-121.0,239.0,-235.0,686.0,800.0,7.0,-557.0
206.0,-13.0,-114.0,226.0,-219.0,702.0,816.0,-14.0,-533.0
211.0,-16.0,-105.0,205.0,-209.0,715.0,838.0,-29.0,-501.0
217.0,-20.0,-103.0,188.0,-202.0,724.0,860.0,-43.0,-490.0
218.0,-22.0,-101.0,176.0,-200.0,729.0,874.0,-47.0,-484.0
224.0,-20.0,-101.0,173.0,-200.0,736.0,890.0,-30.0,-476.0
221.0,-25.0,-99.0,173.0,-202.0,746.0,871.0,-44.0,-460.0
221.0,-20.0,-95.0,184.0,-201.0,748.0,877.0,-41.0,-462.0
221.0,-23.0,-99.0,194.0,-197.0,753.0,879.0,-42.0,-463.0
229.0,-20.0,-94.0,197.0,-192.0,762.0,884.0,-51.0,-461.0
215.0,-32.0,-101.0,196.0,-191.0,771.0,887.0,-52.0,-462.0
218.0,-26.0,-93.0,195.0,-196.0,775.0,886.0,-53.0,-457.0
227.0,-27.0,-101.0,197.0,-209.0,777.0,887.0,-39.0,-481.0
216.0,-12.0,-89.0,193.0,-223.0,787.0,872.0,-30.0,-465.0
218.0,-19.0,-98.0,186.0,-243.0,789.0,872.0,-44.0,-490.0
213.0,-14.0,-93.0,183.0,-259.0,781.0,871.0,-30.0,-483.0
213.0,-10.0,-95.0,178.0,-270.0,780.0,888.0,-23.0,-489.0
219.0,-17.0,-98.0,160.0,-275.0,798.0,878.0,-34.0,-468.0
211.0,-26.0,-98.0,135.0,-275.0,806.0,863.0,-34.0,-465.0
223.0,-18.0,-93.0,113.0,-268.0,802.0,875.0,-37.0,-467.0
223.0,-20.0,-97.0,94.0,-262.0,805.0,887.0,-30.0,-471.0
226.0,-20.0,-99.0,72.0,-260.0,819.0,888.0,-36.0,-471.0
225.0,-22.0,-101.0,52.0,-262.0,829.0,886.0,-47.0,-473.0
228.0,-23.0,-100.0,39.0,-257.0,831.0,891.0,-52.0,-481.0
229.0,-24.0,-100.0,29.0,-248.0,831.0,913.0,-53.0,-488.0
223.0,-33.0,-97.0,10.0,-235.0,843.0,880.0,-70.0,-483.0
223.0,-36.0,-103.0,-1.0,-222.0,844.0,885.0,-88.0,-490.0
215.0,-37.0,-95.0,-8.0,-211.0,845.0,866.0,-64.0,-463.0
222.0,-34.0,-106.0,-14.0,-208.0,846.0,874.0,-75.0,-494.0
226.0,-33.0,-107.0,-16.0,-204.0,854.0,893.0,-82.0,-502.0
225.0,-40.0,-109.0,-20.0,-204.0,866.0,882.0,-103.0,-504.0
214.0,-44.0,-105.0,-20.0,-201.0,862.0,844.0,-125.0,-505.0
218.0,-45.0,-109.0,-7.0,-191.0,833.0,860.0,-128.0,-513.0
218.0,-46.0,-112.0,0.0,-178.0,813.0,868.0,-131.0,-516.0
229.0,-42.0,-108.0,-5.0,-172.0,796.0,884.0,-111.0,-509.0
221.0,-46.0,-109.0,-17.0,-177.0,806.0,880.0,-123.0,-502.0
210.0,-51.0,-112.0,-37.0,-186.0,814.0,837.0,-139.0,-512.0
207.0,-59.0,-108.0,-43.0,-183.0,788.0,820.0,-166.0,-516.0
217.0,-52.0,-113.0,-20.0,-178.0,738.0,852.0,-149.0,-529.0
221.0,-55.0,-114.0,4.0,-168.0,703.0,865.0,-138.0,-534.0
219.0,-47.0,-114.0,20.0,-159.0,676.0,860.0,-138.0,-531.0
220.0,-48.0,-112.0,32.0,-147.0,654.0,875.0,-123.0,-531.0
224.0,-46.0,-117.0,39.0,-137.0,638.0,870.0,-131.0,-528.0
224.0,-42.0,-117.0,30.0,-136.0,607.0,873.0,-97.0,-516.0
223.0,-41.0,-110.0,37.0,-130.0,602.0,876.0,-96.0,-519.0
221.0,-45.0,-113.0,45.0,-128.0,608.0,877.0,-117.0,-530.0
217.0,-43.0,-114.0,58.0,-124.0,607.0,873.0,-117.0,-527.0
219.0,-42.0,-115.0,77.0,-115.0,599.0,876.0,-111.0,-531.0
220.0,-45.0,-117.0,91.0,-101.0,593.0,875.0,-121.0,-531.0
222.0,-45.0,-114.0,96.0,-83.0,588.0,872.0,-124.0,-525.0
219.0,-46.0,-113.0,95.0,-66.0,588.0,867.0,-125.0,-532.0
216.0,-44.0,-117.0,92.0,-51.0,589.0,866.0,-127.0,-533.0
216.0,-51.0,-119.0,91.0,-40.0,594.0,860.0,-134.0,-539.0
216.0,-51.0,-117.0,95.0,-28.0,600.0,851.0,-141.0,-544.0
210.0,-53.0,-116.0,101.0,-20.0,610.0,844.0,-163.0,-544.0
208.0,-52.0,-110.0,102.0,-8.0,611.0,830.0,-175.0,-521.0
214.0,-50.0,-107.0,109.0,-6.0,620.0,838.0,-155.0,-506.0
212.0,-54.0,-113.0,126.0,-13.0,640.0,840.0,-160.0,-527.0
212.0,-53.0,-115.0,142.0,-22.0,657.0,839.0,-152.0,-530.0
209.0,-55.0,-117.0,160.0,-30.0,671.0,833.0,-167.0,-531.0
211.0,-55.0,-114.0,175.0,-32.0,689.0,830.0,-168.0,-529.0
209.0,-56.0,-107.0,186.0,-28.0,708.0,836.0,-173.0,-524.0
209.0,-60.0,-109.0,198.0,-24.0,726.0,842.0,-173.0,-515.0
211.0,-57.0,-114.0,216.0,-22.0,746.0,842.0,-173.0,-507.0
221.0,-76.0,-118.0,236.0,-24.0,766.0,840.0,-200.0,-512.0
206.0,-53.0,-107.0,248.0,-24.0,769.0,817.0,-150.0,-518.0
208.0,-61.0,-111.0,271.0,-22.0,796.0,825.0,-169.0,-512.0
204.0,-66.0,-108.0,278.0,-18.0,832.0,811.0,-205.0,-516.0
205.0,-67.0,-110.0,287.0,-16.0,848.0,825.0,-209.0,-511.0
210.0,-67.0,-107.0,311.0,-15.0,857.0,829.0,-214.0,-504.0
212.0,-69.0,-107.0,337.0,-14.0,867.0,835.0,-213.0,-506.0
212.0,-76.0,-106.0,360.0,-12.0,879.0,840.0,-222.0,-510.0
211.0,-75.0,-113.0,378.0,-8.0,896.0,837.0,-231.0,-513.0
213.0,-78.0,-111.0,394.0,4.0,911.0,841.0,-243.0,-532.0
210.0,-80.0,-115.0,408.0,21.0,924.0,841.0,-256.0,-530.0
211.0,-84.0,-114.0,422.0,41.0,935.0,831.0,-272.0,-536.0
209.0,-84.0,-116.0,438.0,61.0,943.0,823.0,-291.0,-529.0
205.0,-86.0,-110.0,461.0,82.0,950.0,822.0,-292.0,-526.0
208.0,-91.0,-114.0,481.0,101.0,959.0,818.0,-305.0,-525.0
205.0,-92.0,-110.0,500.0,119.0,968.0,820.0,-306.0,-516.0
206.0,-92.0,-107.0,521.0,132.0,974.0,817.0,-311.0,-511.0
206.0,-97.0,-108.0,542.0,142.0,985.0,821.0,-322.0,-506.0
208.0,-98.0,-110.0,563.0,152.0,993.0,826.0,-331.0,-503.0
211.0,-100.0,-104.0,580.0,167.0,1001.0,844.0,-336.0,-496.0
207.0,-106.0,-102.0,599.0,179.0,1004.0,814.0,-346.0,-481.0
213.0,-109.0,-103.0,622.0,187.0,1011.0,839.0,-368.0,-492.0
213.0,-113.0,-103.0,645.0,192.0,1016.0,841.0,-382.0,-495.0
208.0,-112.0,-108.0,665.0,195.0,1018.0,828.0,-379.0,-502.0
208.0,-113.0,-109.0,688.0,199.0,1019.0,819.0,-380.0,-506.0
204.0,-115.0,-109.0,706.0,209.0,1023.0,824.0,-395.0,-509.0
208.0,-117.0,-108.0,721.0,223.0,1023.0,824.0,-398.0,-504.0
207.0,-116.0,-104.0,730.0,236.0,1021.0,827.0,-396.0,-497.0
205.0,-118.0,-101.0,737.0,245.0,1019.0,822.0,-399.0,-490.0
205.0,-119.0,-101.0,745.0,250.0,1014.0,826.0,-404.0,-482.0
208.0,-120.0,-98.0,753.0,250.0,1005.0,821.0,-410.0,-477.0
205.0,-117.0,-99.0,757.0,249.0,995.0,823.0,-408.0,-482.0
207.0,-119.0,-106.0,756.0,247.0,984.0,817.0,-412.0,-490.0
197.0,-122.0,-103.0,754.0,244.0,973.0,811.0,-424.0,-496.0
201.0,-118.0,-101.0,754.0,246.0,965.0,805.0,-415.0,-497.0
198.0,-126.0,-98.0,754.0,250.0,961.0,788.0,-442.0,-480.0
196.0,-126.0,-103.0,760.0,250.0,951.0,781.0,-436.0,-482.0
192.0,-128.0,-97.0,764.0,248.0,947.0,774.0,-454.0,-478.0
196.0,-129.0,-104.0,766.0,243.0,940.0,767.0,-458.0,-491.0
194.0,-130.0,-103.0,773.0,247.0,938.0,765.0,-457.0,-495.0
192.0,-128.0,-101.0,775.0,250.0,937.0,764.0,-462.0,-487.0
190.0,-133.0,-96.0,775.0,256.0,937.0,759.0,-463.0,-456.0
193.0,-131.0,-94.0,769.0,257.0,934.0,762.0,-461.0,-458.0
186.0,-133.0,-99.0,761.0,257.0,954.0,748.0,-469.0,-479.0
190.0,-138.0,-87.0,748.0,268.0,930.0,755.0,-493.0,-422.0
190.0,-135.0,-91.0,736.0,254.0,903.0,757.0,-492.0,-436.0
189.0,-135.0,-93.0,723.0,243.0,885.0,761.0,-486.0,-446.0
193.0,-135.0,-90.0,708.0,234.0,875.0,769.0,-486.0,-438.0
192.0,-136.0,-92.0,703.0,231.0,874.0,758.0,-488.0,-447.0
188.0,-138.0,-89.0,694.0,232.0,872.0,746.0,-502.0,-440.0
186.0,-141.0,-94.0,687.0,228.0,867.0,737.0,-508.0,-438.0
185.0,-143.0,-93.0,681.0,226.0,868.0,737.0,-512.0,-446.0
183.0,-145.0,-94.0,675.0,230.0,876.0,728.0,-528.0,-442.0
181.0,-151.0,-89.0,669.0,242.0,883.0,716.0,-538.0,-442.0
176.0,-153.0,-90.0,658.0,256.0,889.0,708.0,-544.0,-430.0
177.0,-154.0,-91.0,649.0,266.0,889.0,707.0,-549.0,-435.0
179.0,-154.0,-91.0,639.0,273.0,890.0,708.0,-548.0,-434.0
175.0,-154.0,-86.0,633.0,282.0,894.0,704.0,-556.0,-432.0
176.0,-155.0,-88.0,630.0,291.0,900.0,704.0,-563.0,-419.0
177.0,-154.0,-83.0,627.0,303.0,902.0,695.0,-572.0,-408.0
178.0,-159.0,-83.0,621.0,310.0,900.0,702.0,-568.0,-403.0
176.0,-161.0,-76.0,616.0,315.0,900.0,700.0,-583.0,-390.0
173.0,-163.0,-76.0,609.0,318.0,898.0,695.0,-590.0,-383.0
173.0,-163.0,-71.0,599.0,321.0,896.0,690.0,-589.0,-378.0
170.0,-168.0,-73.0,586.0,322.0,901.0,682.0,-611.0,-365.0
170.0,-174.0,-69.0,567.0,318.0,902.0,674.0,-621.0,-357.0
168.0,-172.0,-67.0,547.0,309.0,897.0,670.0,-638.0,-345.0
165.0,-177.0,-67.0,531.0,294.0,899.0,662.0,-643.0,-345.0
165.0,-177.0,-69.0,522.0,279.0,905.0,658.0,-654.0,-342.0
162.0,-179.0,-65.0,518.0,266.0,909.0,648.0,-660.0,-341.0
160.0,-180.0,-70.0,514.0,256.0,914.0,637.0,-669.0,-340.0
159.0,-179.0,-65.0,511.0,246.0,922.0,632.0,-674.0,-339.0
158.0,-187.0,-64.0,501.0,239.0,929.0,626.0,-688.0,-328.0
153.0,-189.0,-62.0,493.0,226.0,930.0,623.0,-684.0,-321.0
151.0,-190.0,-65.0,481.0,221.0,933.0,615.0,-701.0,-317.0
153.0,-188.0,-61.0,471.0,213.0,934.0,609.0,-702.0,-318.0
148.0,-192.0,-61.0,458.0,206.0,931.0,607.0,-705.0,-317.0
149.0,-190.0,-62.0,443.0,202.0,929.0,596.0,-711.0,-318.0
147.0,-192.0,-65.0,434.0,202.0,926.0,593.0,-714.0,-327.0
145.0,-193.0,-57.0,427.0,203.0,921.0,586.0,-724.0,-320.0
144.0,-195.0,-59.0,420.0,208.0,918.0,578.0,-721.0,-308.0
143.0,-195.0,-55.0,420.0,215.0,918.0,581.0,-723.0,-298.0
144.0,-198.0,-58.0,423.0,218.0,919.0,579.0,-722.0,-295.0
142.0,-196.0,-54.0,424.0,221.0,921.0,578.0,-727.0,-282.0
145.0,-199.0,-54.0,426.0,225.0,927.0,577.0,-735.0,-281.0
143.0,-197.0,-52.0,429.0,227.0,933.0,578.0,-741.0,-284.0
145.0,-200.0,-50.0,425.0,229.0,935.0,581.0,-738.0,-284.0
145.0,-197.0,-54.0,422.0,229.0,934.0,592.0,-733.0,-284.0
144.0,-198.0,-59.0,412.0,232.0,930.0,581.0,-738.0,-287.0
146.0,-203.0,-56.0,407.0,233.0,928.0,579.0,-744.0,-281.0
144.0,-203.0,-54.0,404.0,238.0,925.0,574.0,-747.0,-284.0
143.0,-204.0,-58.0,400.0,241.0,925.0,570.0,-756.0,-291.0
139.0,-201.0,-60.0,401.0,243.0,927.0,574.0,-761.0,-294.0
141.0,-204.0,-60.0,403.0,241.0,929.0,573.0,-765.0,-306.0
133.0,-201.0,-63.0,399.0,238.0,929.0,572.0,-746.0,-314.0
138.0,-205.0,-57.0,382.0,228.0,927.0,558.0,-764.0,-298.0
138.0,-204.0,-57.0,375.0,220.0,934.0,552.0,-766.0,-287.0
137.0,-208.0,-53.0,371.0,210.0,937.0,554.0,-763.0,-293.0
134.0,-207.0,-58.0,368.0,200.0,939.0,539.0,-774.0,-284.0
133.0,-211.0,-60.0,363.0,190.0,940.0,535.0,-782.0,-278.0
130.0,-212.0,-57.0,358.0,182.0,941.0,533.0,-802.0,-288.0
132.0,-217.0,-54.0,349.0,174.0,942.0,521.0,-801.0,-289.0
130.0,-213.0,-59.0,335.0,169.0,942.0,522.0,-812.0,-290.0
127.0,-217.0,-53.0,316.0,167.0,940.0,516.0,-822.0,-288.0
126.0,-216.0,-53.0,301.0,161.0,938.0,517.0,-817.0,-294.0
129.0,-220.0,-56.0,283.0,157.0,931.0,520.0,-831.0,-298.0
124.0,-223.0,-55.0,264.0,157.0,923.0,504.0,-830.0,-290.0
126.0,-225.0,-53.0,251.0,162.0,917.0,504.0,-842.0,-295.0
128.0,-223.0,-59.0,237.0,169.0,903.0,503.0,-842.0,-290.0
124.0,-227.0,-59.0,213.0,173.0,883.0,509.0,-837.0,-307.0
126.0,-224.0,-59.0,191.0,186.0,860.0,502.0,-848.0,-294.0
127.0,-229.0,-57.0,169.0,196.0,835.0,512.0,-864.0,-293.0
123.0,-226.0,-58.0,150.0,209.0,810.0,499.0,-857.0,-287.0
128.0,-228.0,-60.0,128.0,221.0,785.0,511.0,-850.0,-306.0
124.0,-228.0,-52.0,100.0,233.0,760.0,491.0,-861.0,-282.0
120.0,-230.0,-49.0,89.0,248.0,742.0,481.0,-862.0,-270.0
118.0,-233.0,-53.0,96.0,265.0,735.0,470.0,-868.0,-268.0
124.0,-232.0,-53.0,107.0,282.0,723.0,474.0,-863.0,-263.0
120.0,-231.0,-50.0,120.0,302.0,713.0,466.0,-867.0,-266.0
118.0,-234.0,-49.0,132.0,324.0,702.0,471.0,-867.0,-268.0
117.0,-235.0,-45.0,137.0,343.0,684.0,461.0,-874.0,-258.0
117.0,-235.0,-50.0,146.0,360.0,675.0,461.0,-881.0,-253.0
114.0,-238.0,-47.0,160.0,379.0,667.0,462.0,-880.0,-245.0
112.0,-238.0,-46.0,174.0,395.0,656.0,455.0,-887.0,-248.0
111.0,-240.0,-45.0,184.0,404.0,646.0,449.0,-892.0,-244.0
109.0,-238.0,-44.0,190.0,414.0,635.0,446.0,-886.0,-244.0
111.0,-239.0,-43.0,188.0,421.0,621.0,438.0,-889.0,-245.0
106.0,-238.0,-44.0,181.0,424.0,607.0,431.0,-890.0,-240.0
105.0,-235.0,-42.0,164.0,422.0,592.0,427.0,-884.0,-240.0
105.0,-239.0,-43.0,141.0,423.0,581.0,427.0,-886.0,-232.0
101.0,-237.0,-39.0,117.0,416.0,571.0,423.0,-888.0,-234.0
104.0,-237.0,-35.0,93.0,409.0,558.0,414.0,-898.0,-219.0
99.0,-236.0,-38.0,75.0,401.0,547.0,413.0,-889.0,-223.0
100.0,-238.0,-38.0,59.0,392.0,539.0,410.0,-892.0,-219.0
99.0,-236.0,-36.0,44.0,388.0,535.0,409.0,-893.0,-209.0
99.0,-240.0,-35.0,33.0,382.0,533.0,399.0,-893.0,-218.0
99.0,-237.0,-38.0,23.0,371.0,528.0,405.0,-886.0,-218.0
98.0,-234.0,-39.0,15.0,360.0,530.0,401.0,-883.0,-219.0
101.0,-235.0,-43.0,9.0,353.0,539.0,402.0,-871.0,-226.0
99.0,-231.0,-40.0,4.0,347.0,545.0,408.0,-873.0,-218.0
103.0,-234.0,-38.0,-1.0,340.0,554.0,413.0,-880.0,-217.0
105.0,-236.0,-37.0,3.0,333.0,568.0,422.0,-878.0,-222.0
106.0,-232.0,-39.0,8.0,326.0,573.0,428.0,-875.0,-214.0
104.0,-229.0,-35.0,12.0,317.0,579.0,425.0,-868.0,-209.0
110.0,-236.0,-34.0,18.0,315.0,592.0,434.0,-884.0,-213.0
109.0,-233.0,-35.0,20.0,311.0,590.0,436.0,-881.0,-211.0
104.0,-232.0,-37.0,12.0,304.0,581.0,426.0,-875.0,-207.0
107.0,-235.0,-36.0,5.0,295.0,573.0,426.0,-878.0,-207.0
103.0,-235.0,-35.0,-7.0,283.0,563.0,422.0,-884.0,-203.0
106.0,-236.0,-39.0,-22.0,273.0,548.0,427.0,-882.0,-204.0
100.0,-234.0,-33.0,-37.0,267.0,537.0,422.0,-879.0,-205.0
102.0,-239.0,-32.0,-48.0,262.0,525.0,421.0,-891.0,-200.0
102.0,-236.0,-33.0,-54.0,257.0,506.0,399.0,-886.0,-203.0
98.0,-239.0,-36.0,-53.0,256.0,496.0,403.0,-897.0,-198.0
95.0,-240.0,-32.0,-46.0,256.0,479.0,398.0,-901.0,-194.0
94.0,-240.0,-31.0,-37.0,255.0,464.0,394.0,-909.0,-190.0
95.0,-241.0,-28.0,-19.0,253.0,456.0,388.0,-909.0,-187.0
96.0,-241.0,-32.0,2.0,252.0,441.0,391.0,-906.0,-183.0
96.0,-245.0,-28.0,23.0,258.0,428.0,391.0,-916.0,-177.0
92.0,-248.0,-29.0,41.0,258.0,411.0,382.0,-918.0,-177.0
92.0,-245.0,-27.0,56.0,258.0,391.0,378.0,-912.0,-187.0
91.0,-245.0,-32.0,71.0,262.0,375.0,373.0,-918.0,-180.0
89.0,-236.0,-36.0,87.0,267.0,359.0,373.0,-917.0,-183.0
92.0,-245.0,-25.0,99.0,274.0,347.0,377.0,-923.0,-178.0
91.0,-248.0,-27.0,113.0,278.0,334.0,376.0,-929.0,-165.0
88.0,-246.0,-29.0,125.0,278.0,324.0,378.0,-926.0,-179.0
91.0,-244.0,-30.0,129.0,275.0,314.0,376.0,-919.0,-185.0
89.0,-247.0,-27.0,131.0,270.0,310.0,376.0,-916.0,-171.0
93.0,-244.0,-30.0,141.0,263.0,313.0,384.0,-918.0,-181.0
90.0,-246.0,-29.0,154.0,256.0,318.0,370.0,-911.0,-183.0
94.0,-241.0,-29.0,163.0,244.0,323.0,382.0,-905.0,-191.0
88.0,-238.0,-31.0,170.0,234.0,335.0,379.0,-898.0,-199.0
92.0,-238.0,-36.0,173.0,221.0,345.0,378.0,-899.0,-205.0
91.0,-241.0,-34.0,169.0,207.0,354.0,386.0,-899.0,-206.0
100.0,-239.0,-39.0,164.0,197.0,362.0,396.0,-885.0,-219.0
93.0,-239.0,-41.0,156.0,197.0,372.0,398.0,-903.0,-229.0
99.0,-238.0,-43.0,152.0,197.0,374.0,405.0,-897.0,-234.0
98.0,-239.0,-39.0,135.0,200.0,372.0,402.0,-889.0,-235.0
95.0,-237.0,-37.0,119.0,200.0,370.0,394.0,-884.0,-221.0
95.0,-236.0,-41.0,106.0,193.0,363.0,390.0,-879.0,-213.0
96.0,-227.0,-36.0,94.0,186.0,366.0,391.0,-868.0,-212.0
93.0,-233.0,-33.0,84.0,189.0,379.0,376.0,-869.0,-195.0
95.0,-237.0,-34.0,84.0,191.0,392.0,380.0,-881.0,-191.0
95.0,-239.0,-29.0,82.0,197.0,401.0,385.0,-887.0,-181.0
91.0,-238.0,-31.0,82.0,201.0,408.0,378.0,-892.0,-175.0
89.0,-242.0,-28.0,91.0,210.0,413.0,372.0,-900.0,-175.0
85.0,-243.0,-27.0,101.0,217.0,413.0,355.0,-905.0,-171.0
84.0,-240.0,-28.0,113.0,222.0,415.0,351.0,-895.0,-181.0
86.0,-251.0,-29.0,131.0,234.0,427.0,355.0,-933.0,-181.0
83.0,-245.0,-31.0,148.0,243.0,427.0,352.0,-929.0,-183.0
81.0,-246.0,-29.0,148.0,251.0,422.0,348.0,-928.0,-188.0
85.0,-249.0,-35.0,145.0,255.0,419.0,345.0,-930.0,-181.0
81.0,-253.0,-27.0,137.0,255.0,416.0,339.0,-941.0,-179.0
82.0,-254.0,-28.0,129.0,251.0,410.0,344.0,-943.0,-171.0
81.0,-256.0,-21.0,119.0,242.0,405.0,335.0,-954.0,-169.0
79.0,-251.0,-27.0,109.0,230.0,392.0,340.0,-947.0,-166.0
79.0,-257.0,-23.0,104.0,222.0,388.0,331.0,-961.0,-156.0
83.0,-258.0,-27.0,108.0,214.0,389.0,339.0,-967.0,-176.0
79.0,-257.0,-25.0,108.0,217.0,390.0,340.0,-977.0,-160.0
78.0,-258.0,-21.0,111.0,216.0,385.0,334.0,-975.0,-150.0
79.0,-257.0,-22.0,119.0,214.0,380.0,330.0,-971.0,-148.0
78.0,-261.0,-18.0,129.0,213.0,382.0,327.0,-964.0,-139.0
77.0,-256.0,-20.0,137.0,216.0,388.0,319.0,-962.0,-146.0
74.0,-257.0,-16.0,140.0,220.0,395.0,322.0,-972.0,-131.0
73.0,-257.0,-17.0,143.0,218.0,403.0,314.0,-968.0,-134.0
75.0,-257.0,-14.0,147.0,218.0,410.0,315.0,-974.0,-128.0
73.0,-259.0,-16.0,153.0,215.0,414.0,311.0,-975.0,-123.0
72.0,-263.0,-18.0,161.0,214.0,422.0,310.0,-978.0,-127.0
71.0,-260.0,-13.0,172.0,210.0,420.0,306.0,-975.0,-131.0
69.0,-262.0,-16.0,186.0,208.0,422.0,301.0,-981.0,-122.0
70.0,-257.0,-14.0,203.0,204.0,418.0,294.0,-974.0,-135.0
68.0,-256.0,-14.0,217.0,206.0,415.0,300.0,-968.0,-131.0
66.0,-257.0,-14.0,232.0,209.0,415.0,286.0,-967.0,-129.0
70.0,-255.0,-18.0,249.0,214.0,411.0,289.0,-964.0,-134.0
66.0,-255.0,-15.0,260.0,220.0,404.0,283.0,-959.0,-132.0
66.0,-254.0,-15.0,276.0,228.0,400.0,283.0,-957.0,-125.0
68.0,-253.0,-15.0,292.0,239.0,395.0,279.0,-956.0,-125.0
67.0,-254.0,-15.0,308.0,247.0,389.0,281.0,-947.0,-121.0
65.0,-251.0,-18.0,320.0,257.0,382.0,278.0,-944.0,-131.0
67.0,-250.0,-12.0,326.0,266.0,375.0,277.0,-940.0,-115.0
66.0,-249.0,-13.0,330.0,277.0,368.0,280.0,-930.0,-125.0
65.0,-251.0,-16.0,332.0,289.0,365.0,274.0,-934.0,-115.0
66.0,-250.0,-13.0,328.0,294.0,361.0,273.0,-925.0,-117.0
62.0,-246.0,-12.0,320.0,302.0,362.0,267.0,-930.0,-117.0
60.0,-249.0,-15.0,312.0,305.0,367.0,261.0,-930.0,-118.0
61.0,-250.0,-11.0,303.0,304.0,368.0,263.0,-928.0,-118.0
59.0,-250.0,-14.0,295.0,301.0,372.0,263.0,-929.0,-116.0
60.0,-249.0,-13.0,287.0,300.0,377.0,265.0,-939.0,-111.0
60.0,-253.0,-9.0,283.0,294.0,379.0,259.0,-938.0,-108.0
62.0,-251.0,-9.0,278.0,288.0,386.0,263.0,-942.0,-118.0
59.0,-254.0,-9.0,276.0,285.0,393.0,259.0,-941.0,-102.0
59.0,-254.0,-8.0,278.0,282.0,398.0,260.0,-965.0,-104.0
57.0,-253.0,-8.0,281.0,274.0,402.0,252.0,-950.0,-84.0
65.0,-261.0,-6.0,297.0,267.0,418.0,270.0,-976.0,-103.0
64.0,-261.0,-6.0,306.0,265.0,417.0,271.0,-977.0,-95.0
61.0,-257.0,-8.0,312.0,259.0,408.0,264.0,-965.0,-98.0
64.0,-259.0,-4.0,319.0,255.0,406.0,261.0,-975.0,-90.0
60.0,-261.0,-5.0,327.0,256.0,408.0,261.0,-976.0,-80.0
61.0,-257.0,-7.0,336.0,251.0,404.0,258.0,-971.0,-82.0
59.0,-258.0,-2.0,341.0,251.0,405.0,258.0,-984.0,-74.0
58.0,-260.0,-3.0,344.0,249.0,401.0,251.0,-986.0,-79.0
57.0,-258.0,-5.0,342.0,242.0,398.0,249.0,-986.0,-78.0
55.0,-260.0,-4.0,336.0,240.0,394.0,241.0,-984.0,-71.0
56.0,-261.0,3.0,330.0,232.0,389.0,239.0,-989.0,-71.0
55.0,-260.0,1.0,320.0,226.0,386.0,239.0,-979.0,-72.0
52.0,-260.0,-1.0,307.0,220.0,384.0,230.0,-973.0,-76.0
50.0,-259.0,-2.0,292.0,211.0,381.0,223.0,-983.0,-76.0
51.0,-258.0,-3.0,274.0,204.0,373.0,219.0,-985.0,-72.0
50.0,-257.0,-3.0,252.0,193.0,364.0,210.0,-985.0,-74.0
48.0,-259.0,-2.0,230.0,182.0,355.0,211.0,-983.0,-67.0
44.0,-259.0,-5.0,209.0,175.0,347.0,208.0,-984.0,-77.0
46.0,-260.0,-9.0,190.0,169.0,336.0,205.0,-1000.0,-84.0
