acc1_x,acc1_y,acc1_z,gyro_x,gyro_y,gyro_z,acc2_x,acc2_y,acc2_z
9.0,-252.0,-39.0,-4.0,87.0,-1.0,28.0,-952.0,-43.0
12.0,-249.0,-39.0,-4.0,86.0,0.0,27.0,-952.0,-44.0
10.0,-249.0,-32.0,-6.0,86.0,0.0,17.0,-951.0,-41.0
9.0,-245.0,-35.0,-9.0,86.0,-1.0,20.0,-946.0,-37.0
8.0,-249.0,-32.0,-12.0,87.0,0.0,17.0,-950.0,-42.0
8.0,-254.0,-31.0,-17.0,86.0,-1.0,21.0,-949.0,-42.0
13.0,-252.0,-36.0,-23.0,85.0,-1.0,18.0,-951.0,-46.0
8.0,-247.0,-40.0,-27.0,85.0,0.0,18.0,-952.0,-47.0
3.0,-252.0,-38.0,-31.0,84.0,0.0,21.0,-960.0,-48.0
6.0,-253.0,-43.0,-33.0,81.0,-2.0,16.0,-962.0,-48.0
11.0,-254.0,-40.0,-34.0,77.0,-2.0,16.0,-963.0,-53.0
11.0,-256.0,-38.0,-33.0,73.0,0.0,14.0,-967.0,-49.0
8.0,-252.0,-37.0,-30.0,71.0,-1.0,19.0,-972.0,-52.0
6.0,-254.0,-37.0,-27.0,66.0,-1.0,15.0,-972.0,-49.0
6.0,-253.0,-37.0,-21.0,61.0,0.0,13.0,-973.0,-55.0
13.0,-253.0,-38.0,-12.0,57.0,0.0,17.0,-970.0,-56.0
9.0,-254.0,-47.0,-7.0,55.0,-2.0,18.0,-966.0,-52.0
7.0,-250.0,-41.0,-3.0,53.0,-2.0,20.0,-959.0,-50.0
7.0,-247.0,-42.0,1.0,52.0,-1.0,17.0,-950.0,-52.0
10.0,-252.0,-37.0,2.0,51.0,-2.0,20.0,-961.0,-49.0
9.0,-249.0,-38.0,0.0,51.0,-2.0,21.0,-953.0,-49.0
8.0,-250.0,-36.0,-4.0,49.0,-2.0,26.0,-955.0,-48.0
6.0,-254.0,-32.0,-9.0,48.0,-2.0,20.0,-956.0,-44.0
9.0,-246.0,-33.0,-14.0,46.0,0.0,20.0,-958.0,-44.0
10.0,-250.0,-36.0,-17.0,45.0,-1.0,15.0,-966.0,-43.0
10.0,-252.0,-37.0,-14.0,42.0,-1.0,20.0,-972.0,-43.0
-2.0,-249.0,-43.0,-10.0,41.0,0.0,18.0,-965.0,-35.0
7.0,-251.0,-38.0,-7.0,40.0,-2.0,11.0,-958.0,-39.0
10.0,-254.0,-37.0,-3.0,41.0,-2.0,25.0,-967.0,-36.0
8.0,-249.0,-33.0,-2.0,42.0,-4.0,22.0,-957.0,-40.0
11.0,-252.0,-36.0,-3.0,41.0,-3.0,26.0,-950.0,-44.0
12.0,-251.0,-39.0,-6.0,41.0,-5.0,31.0,-953.0,-45.0
12.0,-250.0,-35.0,-10.0,40.0,-5.0,31.0,-952.0,-45.0
12.0,-248.0,-36.0,-11.0,39.0,-4.0,25.0,-954.0,-52.0
12.0,-251.0,-38.0,-11.0,38.0,-5.0,30.0,-952.0,-52.0
9.0,-252.0,-42.0,-12.0,35.0,-5.0,28.0,-951.0,-56.0
10.0,-250.0,-35.0,-11.0,36.0,-4.0,26.0,-964.0,-59.0
14.0,-250.0,-48.0,-14.0,35.0,-3.0,33.0,-962.0,-55.0
11.0,-250.0,-39.0,-14.0,37.0,-2.0,26.0,-959.0,-56.0
12.0,-253.0,-38.0,-12.0,37.0,-3.0,36.0,-975.0,-52.0
13.0,-254.0,-38.0,-8.0,39.0,-3.0,31.0,-972.0,-50.0
12.0,-252.0,-41.0,-4.0,41.0,-4.0,27.0,-966.0,-48.0
13.0,-254.0,-38.0,2.0,44.0,-4.0,31.0,-974.0,-45.0
10.0,-250.0,-37.0,7.0,45.0,-2.0,29.0,-952.0,-42.0
14.0,-252.0,-38.0,11.0,48.0,-1.0,28.0,-966.0,-44.0
11.0,-254.0,-36.0,10.0,50.0,-2.0,27.0,-958.0,-45.0
8.0,-253.0,-35.0,8.0,49.0,0.0,35.0,-952.0,-47.0
9.0,-251.0,-33.0,3.0,49.0,1.0,29.0,-957.0,-45.0
7.0,-240.0,-44.0,-2.0,50.0,1.0,31.0,-958.0,-44.0
11.0,-249.0,-39.0,-6.0,51.0,-1.0,32.0,-953.0,-46.0
13.0,-254.0,-31.0,-10.0,52.0,-1.0,30.0,-957.0,-51.0
13.0,-254.0,-33.0,-11.0,53.0,-4.0,22.0,-956.0,-47.0
10.0,-251.0,-38.0,-8.0,54.0,-4.0,28.0,-963.0,-49.0
10.0,-252.0,-36.0,-8.0,56.0,-4.0,29.0,-953.0,-50.0
10.0,-251.0,-36.0,-5.0,57.0,-5.0,28.0,-953.0,-50.0
13.0,-251.0,-38.0,-3.0,60.0,-7.0,30.0,-957.0,-52.0
13.0,-250.0,-39.0,-2.0,63.0,-6.0,23.0,-956.0,-53.0
13.0,-252.0,-37.0,0.0,67.0,-8.0,23.0,-959.0,-50.0
13.0,-250.0,-38.0,1.0,69.0,-6.0,28.0,-956.0,-50.0
7.0,-254.0,-32.0,1.0,71.0,-8.0,29.0,-955.0,-55.0
11.0,-249.0,-41.0,2.0,71.0,-7.0,27.0,-966.0,-57.0
10.0,-251.0,-40.0,2.0,74.0,-8.0,25.0,-961.0,-58.0
12.0,-252.0,-36.0,2.0,75.0,-8.0,29.0,-957.0,-53.0
9.0,-247.0,-43.0,2.0,76.0,-7.0,23.0,-964.0,-55.0
10.0,-251.0,-42.0,4.0,78.0,-7.0,28.0,-963.0,-57.0
7.0,-252.0,-41.0,4.0,77.0,-8.0,25.0,-958.0,-55.0
14.0,-247.0,-42.0,4.0,78.0,-8.0,27.0,-951.0,-55.0
11.0,-249.0,-39.0,3.0,78.0,-8.0,25.0,-958.0,-56.0
12.0,-252.0,-37.0,4.0,78.0,-7.0,21.0,-956.0,-51.0
15.0,-249.0,-36.0,4.0,78.0,-9.0,22.0,-966.0,-49.0
16.0,-243.0,-57.0,3.0,79.0,-8.0,24.0,-960.0,-50.0
9.0,-249.0,-39.0,1.0,78.0,-8.0,23.0,-952.0,-50.0
13.0,-253.0,-36.0,0.0,77.0,-8.0,23.0,-949.0,-44.0
12.0,-249.0,-37.0,1.0,77.0,-10.0,26.0,-951.0,-45.0
10.0,-251.0,-38.0,-1.0,76.0,-10.0,27.0,-950.0,-46.0
11.0,-246.0,-36.0,-4.0,77.0,-10.0,23.0,-948.0,-43.0
13.0,-251.0,-37.0,-7.0,76.0,-9.0,16.0,-952.0,-50.0
10.0,-250.0,-39.0,-12.0,76.0,-11.0,24.0,-953.0,-54.0
9.0,-251.0,-37.0,-18.0,76.0,-8.0,21.0,-953.0,-47.0
9.0,-250.0,-40.0,-23.0,78.0,-8.0,20.0,-952.0,-52.0
10.0,-249.0,-34.0,-28.0,77.0,-8.0,21.0,-955.0,-49.0
5.0,-246.0,-35.0,-29.0,79.0,-7.0,17.0,-955.0,-48.0
10.0,-253.0,-34.0,-30.0,78.0,-7.0,20.0,-966.0,-49.0
9.0,-251.0,-36.0,-28.0,78.0,-9.0,23.0,-957.0,-45.0
8.0,-255.0,-36.0,-26.0,76.0,-9.0,25.0,-977.0,-49.0
12.0,-251.0,-37.0,-24.0,76.0,-8.0,25.0,-965.0,-52.0
12.0,-250.0,-36.0,-20.0,75.0,-6.0,30.0,-972.0,-49.0
12.0,-249.0,-38.0,-14.0,75.0,-8.0,27.0,-957.0,-46.0
14.0,-252.0,-37.0,-12.0,73.0,-8.0,23.0,-959.0,-45.0
10.0,-248.0,-38.0,-7.0,72.0,-7.0,24.0,-955.0,-46.0
12.0,-250.0,-35.0,-6.0,73.0,-6.0,27.0,-959.0,-41.0
8.0,-247.0,-41.0,-3.0,73.0,-7.0,26.0,-952.0,-50.0
17.0,-258.0,-24.0,-5.0,72.0,-8.0,22.0,-953.0,-43.0
10.0,-250.0,-42.0,-7.0,73.0,-8.0,29.0,-950.0,-43.0
10.0,-250.0,-35.0,-9.0,71.0,-8.0,23.0,-951.0,-42.0
10.0,-249.0,-34.0,-11.0,72.0,-8.0,24.0,-952.0,-44.0
11.0,-248.0,-37.0,-18.0,70.0,-7.0,20.0,-954.0,-42.0
9.0,-252.0,-34.0,-22.0,70.0,-9.0,26.0,-953.0,-44.0
9.0,-250.0,-34.0,-23.0,71.0,-8.0,23.0,-951.0,-44.0
7.0,-251.0,-37.0,-25.0,73.0,-9.0,27.0,-956.0,-42.0
14.0,-252.0,-38.0,-24.0,72.0,-8.0,23.0,-964.0,-42.0
12.0,-251.0,-42.0,-22.0,73.0,-10.0,23.0,-963.0,-40.0
13.0,-251.0,-31.0,-20.0,73.0,-10.0,26.0,-959.0,-43.0
12.0,-244.0,-26.0,-17.0,75.0,-10.0,25.0,-964.0,-42.0
11.0,-252.0,-35.0,-16.0,77.0,-9.0,25.0,-959.0,-42.0
10.0,-249.0,-36.0,-16.0,77.0,-10.0,25.0,-962.0,-43.0
9.0,-251.0,-35.0,-18.0,76.0,-8.0,25.0,-961.0,-44.0
12.0,-251.0,-36.0,-18.0,75.0,-9.0,28.0,-959.0,-43.0
12.0,-252.0,-38.0,-16.0,73.0,-8.0,27.0,-962.0,-43.0
9.0,-254.0,-39.0,-15.0,74.0,-9.0,31.0,-962.0,-48.0
10.0,-254.0,-36.0,-14.0,73.0,-9.0,30.0,-958.0,-42.0
9.0,-253.0,-35.0,-9.0,72.0,-7.0,23.0,-962.0,-43.0
11.0,-250.0,-33.0,-5.0,71.0,-7.0,25.0,-958.0,-44.0
24.0,-244.0,-48.0,-5.0,70.0,-9.0,22.0,-953.0,-47.0
12.0,-246.0,-33.0,-3.0,69.0,-8.0,22.0,-972.0,-43.0
12.0,-250.0,-37.0,-3.0,69.0,-8.0,21.0,-953.0,-44.0
7.0,-249.0,-39.0,-3.0,67.0,-7.0,20.0,-954.0,-43.0
12.0,-253.0,-40.0,-6.0,67.0,-9.0,22.0,-956.0,-41.0
12.0,-251.0,-37.0,-5.0,69.0,-9.0,27.0,-956.0,-43.0
9.0,-252.0,-37.0,-4.0,69.0,-8.0,24.0,-954.0,-43.0
9.0,-250.0,-34.0,-4.0,69.0,-8.0,24.0,-950.0,-42.0
13.0,-250.0,-33.0,-4.0,70.0,-10.0,26.0,-950.0,-42.0
10.0,-252.0,-31.0,-4.0,72.0,-8.0,25.0,-952.0,-44.0
12.0,-249.0,-35.0,-4.0,71.0,-9.0,17.0,-950.0,-39.0
9.0,-245.0,-44.0,-6.0,69.0,-8.0,28.0,-950.0,-39.0
10.0,-250.0,-37.0,-9.0,69.0,-7.0,18.0,-955.0,-38.0
10.0,-250.0,-38.0,-12.0,66.0,-5.0,22.0,-953.0,-41.0
11.0,-251.0,-33.0,-19.0,63.0,-8.0,22.0,-956.0,-37.0
10.0,-252.0,-34.0,-23.0,60.0,-7.0,20.0,-963.0,-42.0
9.0,-250.0,-36.0,-22.0,57.0,-6.0,22.0,-975.0,-44.0
8.0,-250.0,-38.0,-22.0,54.0,-5.0,18.0,-961.0,-42.0
12.0,-251.0,-45.0,-19.0,54.0,-6.0,22.0,-966.0,-43.0
7.0,-250.0,-36.0,-15.0,53.0,-6.0,24.0,-960.0,-42.0
11.0,-252.0,-33.0,-13.0,54.0,-6.0,19.0,-968.0,-41.0
8.0,-251.0,-38.0,-10.0,54.0,-5.0,22.0,-957.0,-43.0
2.0,-254.0,-32.0,-7.0,53.0,-5.0,22.0,-963.0,-46.0
12.0,-249.0,-36.0,-4.0,56.0,-3.0,22.0,-954.0,-43.0
11.0,-252.0,-43.0,-4.0,55.0,-5.0,26.0,-951.0,-45.0
12.0,-252.0,-39.0,-3.0,53.0,-4.0,27.0,-959.0,-50.0
13.0,-252.0,-34.0,-2.0,50.0,-6.0,22.0,-955.0,-54.0
12.0,-251.0,-39.0,-3.0,48.0,-4.0,24.0,-953.0,-52.0
12.0,-253.0,-46.0,-5.0,45.0,-3.0,25.0,-954.0,-55.0
11.0,-249.0,-40.0,-7.0,42.0,-1.0,24.0,-956.0,-56.0
11.0,-251.0,-42.0,-7.0,43.0,0.0,24.0,-957.0,-54.0
14.0,-251.0,-36.0,-5.0,45.0,-2.0,25.0,-962.0,-44.0
9.0,-251.0,-38.0,-4.0,48.0,-3.0,24.0,-966.0,-46.0
14.0,-252.0,-37.0,-1.0,50.0,-4.0,28.0,-976.0,-45.0
11.0,-252.0,-36.0,1.0,52.0,-5.0,27.0,-963.0,-38.0
10.0,-252.0,-34.0,2.0,55.0,-5.0,23.0,-961.0,-44.0
11.0,-249.0,-38.0,3.0,54.0,-5.0,26.0,-952.0,-44.0
9.0,-251.0,-38.0,2.0,56.0,-5.0,22.0,-958.0,-42.0
12.0,-251.0,-37.0,1.0,56.0,-5.0,30.0,-952.0,-42.0
17.0,-253.0,-39.0,-1.0,54.0,-4.0,25.0,-953.0,-43.0
9.0,-254.0,-32.0,-1.0,52.0,-4.0,24.0,-953.0,-44.0
13.0,-251.0,-37.0,-2.0,52.0,-4.0,23.0,-955.0,-45.0
11.0,-256.0,-36.0,-2.0,52.0,-6.0,28.0,-955.0,-47.0
7.0,-251.0,-35.0,-3.0,52.0,-5.0,25.0,-961.0,-46.0
13.0,-242.0,-44.0,-3.0,51.0,-5.0,19.0,-950.0,-48.0
9.0,-251.0,-42.0,-2.0,53.0,-5.0,24.0,-962.0,-49.0
9.0,-252.0,-34.0,-4.0,53.0,-7.0,25.0,-966.0,-45.0
11.0,-252.0,-36.0,-4.0,52.0,-4.0,24.0,-957.0,-45.0
9.0,-250.0,-37.0,-4.0,53.0,-6.0,22.0,-957.0,-46.0
9.0,-253.0,-40.0,-4.0,53.0,-5.0,22.0,-951.0,-47.0
12.0,-254.0,-35.0,-3.0,54.0,-6.0,21.0,-964.0,-46.0
10.0,-254.0,-38.0,-2.0,53.0,-4.0,20.0,-960.0,-37.0
11.0,-252.0,-34.0,0.0,54.0,-6.0,25.0,-954.0,-43.0
10.0,-250.0,-32.0,1.0,54.0,-5.0,23.0,-949.0,-46.0
12.0,-249.0,-37.0,2.0,55.0,-5.0,27.0,-959.0,-43.0
0.0,-248.0,-46.0,3.0,56.0,-5.0,26.0,-953.0,-47.0
13.0,-252.0,-40.0,2.0,58.0,-6.0,27.0,-954.0,-47.0
13.0,-249.0,-34.0,-1.0,58.0,-6.0,27.0,-951.0,-46.0
10.0,-253.0,-37.0,-4.0,59.0,-7.0,31.0,-962.0,-49.0
10.0,-253.0,-34.0,-10.0,58.0,-5.0,28.0,-953.0,-47.0
9.0,-253.0,-36.0,-14.0,56.0,-6.0,27.0,-954.0,-42.0
10.0,-252.0,-35.0,-16.0,56.0,-5.0,24.0,-955.0,-45.0
9.0,-251.0,-33.0,-17.0,53.0,-5.0,21.0,-964.0,-42.0
13.0,-254.0,-42.0,-16.0,52.0,-3.0,24.0,-957.0,-42.0
13.0,-254.0,-36.0,-14.0,52.0,-4.0,23.0,-954.0,-42.0
11.0,-251.0,-39.0,-12.0,50.0,-2.0,21.0,-956.0,-43.0
1.0,-239.0,-44.0,-11.0,50.0,-3.0,24.0,-952.0,-45.0
9.0,-249.0,-33.0,-11.0,50.0,-1.0,27.0,-952.0,-44.0
11.0,-251.0,-35.0,-10.0,51.0,-2.0,20.0,-954.0,-47.0
8.0,-251.0,-39.0,-11.0,52.0,-3.0,18.0,-953.0,-51.0
11.0,-251.0,-38.0,-12.0,52.0,-5.0,17.0,-956.0,-43.0
10.0,-251.0,-41.0,-13.0,54.0,-3.0,21.0,-956.0,-48.0
9.0,-250.0,-34.0,-13.0,53.0,-4.0,26.0,-956.0,-46.0
9.0,-249.0,-39.0,-14.0,55.0,-2.0,21.0,-954.0,-48.0
15.0,-252.0,-39.0,-15.0,55.0,-4.0,23.0,-962.0,-44.0
10.0,-251.0,-35.0,-14.0,54.0,-4.0,25.0,-971.0,-45.0
14.0,-250.0,-31.0,-12.0,53.0,-7.0,24.0,-954.0,-50.0
15.0,-256.0,-31.0,-10.0,54.0,-4.0,27.0,-959.0,-43.0
10.0,-250.0,-39.0,-10.0,53.0,-6.0,26.0,-956.0,-44.0
11.0,-252.0,-37.0,-7.0,52.0,-4.0,30.0,-952.0,-42.0
12.0,-251.0,-38.0,-6.0,54.0,-5.0,29.0,-961.0,-44.0
11.0,-251.0,-38.0,-6.0,56.0,-2.0,26.0,-960.0,-43.0
10.0,-253.0,-34.0,-7.0,56.0,-4.0,26.0,-956.0,-42.0
13.0,-250.0,-37.0,-6.0,56.0,-3.0,30.0,-955.0,-41.0
11.0,-252.0,-38.0,-7.0,56.0,-5.0,29.0,-961.0,-42.0
12.0,-251.0,-39.0,-8.0,56.0,-3.0,30.0,-957.0,-43.0
10.0,-250.0,-35.0,-8.0,58.0,-4.0,22.0,-962.0,-43.0
9.0,-249.0,-41.0,-10.0,57.0,-3.0,20.0,-956.0,-41.0
16.0,-241.0,-46.0,-12.0,57.0,-6.0,26.0,-953.0,-43.0
11.0,-252.0,-36.0,-14.0,56.0,-3.0,27.0,-949.0,-43.0
11.0,-250.0,-38.0,-16.0,57.0,-5.0,24.0,-964.0,-45.0
8.0,-250.0,-35.0,-17.0,57.0,-4.0,24.0,-955.0,-37.0
12.0,-251.0,-33.0,-17.0,58.0,-3.0,24.0,-955.0,-44.0
9.0,-250.0,-35.0,-18.0,59.0,-2.0,23.0,-958.0,-40.0
10.0,-249.0,-36.0,-17.0,62.0,-5.0,28.0,-954.0,-41.0
11.0,-252.0,-32.0,-17.0,64.0,-3.0,28.0,-964.0,-37.0
12.0,-253.0,-40.0,-18.0,63.0,-6.0,29.0,-958.0,-34.0
10.0,-253.0,-37.0,-17.0,64.0,-5.0,24.0,-958.0,-38.0
7.0,-256.0,-28.0,-15.0,65.0,-8.0,26.0,-955.0,-42.0
11.0,-253.0,-33.0,-12.0,65.0,-6.0,25.0,-959.0,-36.0
10.0,-252.0,-33.0,-11.0,65.0,-8.0,26.0,-959.0,-39.0
13.0,-252.0,-36.0,-11.0,65.0,-8.0,27.0,-956.0,-40.0
8.0,-250.0,-35.0,-12.0,65.0,-9.0,27.0,-960.0,-42.0
10.0,-247.0,-42.0,-12.0,65.0,-8.0,31.0,-967.0,-41.0
13.0,-252.0,-35.0,-12.0,64.0,-9.0,30.0,-953.0,-41.0
8.0,-250.0,-35.0,-12.0,65.0,-7.0,30.0,-961.0,-43.0
9.0,-253.0,-37.0,-11.0,65.0,-8.0,19.0,-969.0,-43.0
10.0,-249.0,-33.0,-12.0,63.0,-6.0,26.0,-963.0,-39.0
10.0,-252.0,-35.0,-11.0,62.0,-7.0,25.0,-951.0,-40.0
3.0,-244.0,-37.0,-13.0,64.0,-6.0,24.0,-966.0,-42.0
10.0,-251.0,-36.0,-13.0,63.0,-7.0,24.0,-968.0,-40.0
9.0,-252.0,-32.0,-12.0,62.0,-6.0,25.0,-959.0,-42.0
10.0,-252.0,-36.0,-11.0,61.0,-7.0,21.0,-967.0,-36.0
12.0,-254.0,-39.0,-11.0,62.0,-3.0,18.0,-956.0,-40.0
12.0,-254.0,-32.0,-10.0,61.0,-6.0,21.0,-968.0,-43.0
10.0,-252.0,-39.0,-4.0,62.0,-4.0,23.0,-972.0,-45.0
11.0,-250.0,-32.0,-1.0,63.0,-6.0,24.0,-954.0,-35.0
10.0,-250.0,-37.0,1.0,66.0,-5.0,25.0,-953.0,-33.0
12.0,-252.0,-39.0,4.0,66.0,-7.0,30.0,-952.0,-31.0
14.0,-248.0,-35.0,3.0,67.0,-6.0,30.0,-953.0,-37.0
5.0,-253.0,-30.0,1.0,68.0,-6.0,32.0,-960.0,-34.0
12.0,-251.0,-37.0,-1.0,69.0,-4.0,27.0,-953.0,-42.0
12.0,-248.0,-34.0,-4.0,67.0,-5.0,25.0,-956.0,-38.0
9.0,-251.0,-33.0,-7.0,65.0,-4.0,26.0,-955.0,-40.0
11.0,-249.0,-36.0,-10.0,66.0,-7.0,26.0,-957.0,-38.0
12.0,-253.0,-37.0,-11.0,66.0,-5.0,21.0,-963.0,-34.0
8.0,-248.0,-32.0,-11.0,63.0,-7.0,16.0,-955.0,-40.0
5.0,-250.0,-38.0,-13.0,65.0,-6.0,21.0,-954.0,-37.0
10.0,-250.0,-34.0,-14.0,67.0,-8.0,26.0,-950.0,-38.0
13.0,-247.0,-33.0,-17.0,68.0,-8.0,26.0,-951.0,-36.0
12.0,-246.0,-36.0,-20.0,68.0,-11.0,25.0,-951.0,-41.0
14.0,-252.0,-25.0,-22.0,66.0,-9.0,25.0,-952.0,-41.0
10.0,-252.0,-37.0,-24.0,66.0,-11.0,22.0,-956.0,-42.0
8.0,-249.0,-35.0,-22.0,65.0,-8.0,24.0,-955.0,-41.0
14.0,-252.0,-37.0,-19.0,61.0,-10.0,25.0,-963.0,-43.0
11.0,-248.0,-33.0,-14.0,60.0,-7.0,27.0,-958.0,-46.0
11.0,-251.0,-42.0,-12.0,57.0,-8.0,26.0,-952.0,-46.0
12.0,-251.0,-39.0,-11.0,57.0,-6.0,26.0,-953.0,-46.0
15.0,-248.0,-36.0,-13.0,59.0,-8.0,30.0,-957.0,-45.0
8.0,-251.0,-37.0,-16.0,59.0,-6.0,29.0,-957.0,-43.0
11.0,-250.0,-38.0,-19.0,61.0,-8.0,28.0,-956.0,-42.0
10.0,-253.0,-35.0,-18.0,62.0,-7.0,25.0,-960.0,-42.0
16.0,-241.0,-37.0,-18.0,62.0,-8.0,21.0,-958.0,-37.0
12.0,-251.0,-32.0,-17.0,61.0,-6.0,20.0,-963.0,-39.0
12.0,-250.0,-37.0,-15.0,59.0,-6.0,22.0,-953.0,-38.0
7.0,-251.0,-33.0,-14.0,56.0,-3.0,19.0,-961.0,-34.0
13.0,-250.0,-36.0,-12.0,54.0,-3.0,24.0,-954.0,-40.0
12.0,-252.0,-32.0,-13.0,52.0,-3.0,24.0,-953.0,-40.0
12.0,-252.0,-34.0,-16.0,49.0,-4.0,21.0,-953.0,-41.0
13.0,-252.0,-35.0,-17.0,48.0,-3.0,27.0,-957.0,-43.0
9.0,-252.0,-33.0,-20.0,50.0,-4.0,26.0,-952.0,-43.0
10.0,-251.0,-35.0,-22.0,51.0,-4.0,29.0,-954.0,-40.0
11.0,-251.0,-38.0,-23.0,52.0,-6.0,25.0,-958.0,-44.0
14.0,-253.0,-47.0,-26.0,54.0,-3.0,29.0,-958.0,-44.0
13.0,-251.0,-34.0,-26.0,55.0,-4.0,28.0,-960.0,-44.0
12.0,-252.0,-41.0,-28.0,55.0,-3.0,30.0,-958.0,-42.0
11.0,-252.0,-36.0,-27.0,55.0,-3.0,24.0,-959.0,-42.0
10.0,-251.0,-36.0,-25.0,56.0,-1.0,29.0,-960.0,-44.0
13.0,-251.0,-43.0,-24.0,54.0,-2.0,25.0,-967.0,-46.0
12.0,-252.0,-34.0,-21.0,55.0,0.0,28.0,-962.0,-46.0
12.0,-248.0,-43.0,-18.0,55.0,-1.0,26.0,-970.0,-46.0
11.0,-249.0,-36.0,-16.0,55.0,1.0,21.0,-947.0,-48.0
11.0,-250.0,-35.0,-14.0,55.0,-3.0,22.0,-962.0,-48.0
8.0,-249.0,-39.0,-14.0,54.0,-1.0,24.0,-954.0,-45.0
9.0,-249.0,-47.0,-16.0,54.0,-4.0,22.0,-955.0,-51.0
11.0,-252.0,-41.0,-19.0,52.0,-3.0,24.0,-950.0,-47.0
9.0,-249.0,-38.0,-21.0,52.0,-6.0,23.0,-956.0,-48.0
10.0,-250.0,-37.0,-22.0,50.0,-5.0,19.0,-957.0,-47.0
10.0,-255.0,-37.0,-24.0,53.0,-6.0,20.0,-952.0,-52.0
10.0,-250.0,-40.0,-23.0,51.0,-5.0,22.0,-968.0,-42.0
10.0,-251.0,-35.0,-23.0,51.0,-7.0,22.0,-966.0,-45.0
8.0,-252.0,-36.0,-22.0,51.0,-6.0,20.0,-962.0,-48.0
9.0,-253.0,-38.0,-20.0,48.0,-7.0,28.0,-956.0,-45.0
10.0,-251.0,-38.0,-20.0,48.0,-4.0,22.0,-962.0,-43.0
9.0,-249.0,-40.0,-19.0,48.0,-5.0,25.0,-962.0,-48.0
9.0,-252.0,-38.0,-17.0,46.0,-3.0,18.0,-969.0,-43.0
9.0,-249.0,-42.0,-18.0,47.0,-4.0,27.0,-961.0,-47.0
11.0,-251.0,-32.0,-19.0,48.0,-4.0,22.0,-957.0,-44.0
9.0,-249.0,-37.0,-19.0,49.0,-6.0,30.0,-962.0,-47.0
9.0,-250.0,-40.0,-19.0,48.0,-3.0,22.0,-961.0,-43.0
11.0,-251.0,-37.0,-20.0,48.0,-7.0,22.0,-962.0,-44.0
11.0,-252.0,-39.0,-19.0,49.0,-5.0,24.0,-956.0,-49.0
13.0,-249.0,-37.0,-19.0,48.0,-6.0,27.0,-961.0,-40.0
6.0,-250.0,-37.0,-19.0,48.0,-6.0,23.0,-951.0,-44.0
8.0,-249.0,-38.0,-20.0,46.0,-6.0,23.0,-951.0,-42.0
9.0,-252.0,-34.0,-19.0,45.0,-5.0,20.0,-950.0,-41.0
5.0,-245.0,-31.0,-19.0,44.0,-8.0,22.0,-950.0,-45.0
9.0,-250.0,-33.0,-20.0,44.0,-5.0,27.0,-958.0,-46.0
9.0,-249.0,-34.0,-24.0,43.0,-8.0,26.0,-951.0,-44.0
11.0,-250.0,-37.0,-26.0,44.0,-5.0,26.0,-955.0,-46.0
10.0,-250.0,-39.0,-28.0,44.0,-8.0,22.0,-953.0,-45.0
10.0,-253.0,-37.0,-29.0,44.0,-7.0,24.0,-962.0,-47.0
11.0,-256.0,-38.0,-30.0,45.0,-7.0,20.0,-958.0,-42.0
13.0,-250.0,-35.0,-29.0,44.0,-5.0,25.0,-955.0,-46.0
10.0,-253.0,-38.0,-28.0,45.0,-8.0,28.0,-964.0,-47.0
14.0,-253.0,-36.0,-25.0,44.0,-5.0,24.0,-962.0,-49.0
14.0,-254.0,-46.0,-22.0,44.0,-6.0,24.0,-958.0,-48.0
15.0,-249.0,-36.0,-20.0,45.0,-5.0,25.0,-957.0,-47.0
14.0,-251.0,-37.0,-19.0,44.0,-7.0,24.0,-967.0,-52.0
13.0,-252.0,-40.0,-18.0,45.0,-5.0,27.0,-964.0,-44.0
10.0,-251.0,-40.0,-18.0,44.0,-7.0,31.0,-964.0,-51.0
10.0,-252.0,-33.0,-18.0,46.0,-5.0,25.0,-964.0,-47.0
12.0,-253.0,-40.0,-19.0,46.0,-6.0,23.0,-953.0,-47.0
13.0,-254.0,-38.0,-20.0,47.0,-5.0,27.0,-958.0,-46.0
11.0,-251.0,-40.0,-23.0,49.0,-8.0,22.0,-963.0,-48.0
12.0,-249.0,-37.0,-24.0,49.0,-5.0,26.0,-963.0,-49.0
9.0,-251.0,-31.0,-24.0,52.0,-8.0,28.0,-955.0,-47.0
22.0,-251.0,-30.0,-23.0,52.0,-5.0,25.0,-960.0,-49.0
12.0,-252.0,-32.0,-22.0,53.0,-8.0,28.0,-958.0,-45.0
11.0,-252.0,-37.0,-20.0,55.0,-6.0,26.0,-958.0,-45.0
10.0,-249.0,-36.0,-18.0,56.0,-9.0,25.0,-963.0,-46.0
10.0,-250.0,-40.0,-17.0,57.0,-6.0,23.0,-957.0,-45.0
8.0,-248.0,-37.0,-16.0,57.0,-9.0,21.0,-955.0,-45.0
12.0,-249.0,-41.0,-18.0,56.0,-6.0,27.0,-957.0,-44.0
10.0,-251.0,-35.0,-21.0,57.0,-7.0,24.0,-951.0,-42.0
10.0,-250.0,-37.0,-23.0,56.0,-6.0,26.0,-955.0,-46.0
11.0,-251.0,-39.0,-26.0,58.0,-8.0,32.0,-957.0,-38.0
15.0,-252.0,-31.0,-27.0,57.0,-6.0,25.0,-958.0,-48.0
1.0,-232.0,-47.0,-29.0,59.0,-7.0,26.0,-959.0,-42.0
13.0,-252.0,-33.0,-32.0,59.0,-5.0,26.0,-959.0,-43.0
6.0,-248.0,-37.0,-33.0,59.0,-7.0,26.0,-968.0,-43.0
10.0,-252.0,-38.0,-34.0,57.0,-3.0,23.0,-968.0,-42.0
11.0,-251.0,-38.0,-37.0,53.0,-5.0,25.0,-970.0,-45.0
8.0,-248.0,-38.0,-38.0,52.0,-5.0,22.0,-962.0,-49.0
12.0,-253.0,-39.0,-37.0,53.0,-7.0,23.0,-966.0,-49.0
11.0,-253.0,-34.0,-35.0,53.0,-6.0,23.0,-950.0,-52.0
11.0,-249.0,-38.0,-32.0,54.0,-8.0,19.0,-961.0,-47.0
9.0,-251.0,-37.0,-29.0,51.0,-7.0,26.0,-962.0,-46.0
10.0,-249.0,-37.0,-26.0,50.0,-10.0,20.0,-952.0,-46.0
9.0,-251.0,-25.0,-22.0,50.0,-7.0,25.0,-954.0,-43.0
11.0,-250.0,-35.0,-18.0,53.0,-9.0,23.0,-954.0,-44.0
10.0,-253.0,-36.0,-18.0,53.0,-6.0,22.0,-961.0,-44.0
12.0,-251.0,-36.0,-21.0,51.0,-9.0,16.0,-958.0,-50.0
9.0,-252.0,-36.0,-22.0,51.0,-7.0,27.0,-966.0,-47.0
9.0,-254.0,-38.0,-20.0,50.0,-8.0,21.0,-969.0,-45.0
11.0,-254.0,-37.0,-17.0,49.0,-5.0,17.0,-969.0,-47.0
11.0,-253.0,-40.0,-10.0,50.0,-5.0,25.0,-962.0,-44.0
10.0,-254.0,-34.0,-5.0,50.0,-4.0,20.0,-976.0,-47.0
10.0,-253.0,-37.0,-2.0,50.0,-7.0,25.0,-978.0,-50.0
9.0,-254.0,-30.0,4.0,50.0,-4.0,30.0,-977.0,-48.0
13.0,-256.0,-36.0,11.0,53.0,-8.0,23.0,-978.0,-45.0
9.0,-255.0,-38.0,19.0,53.0,-7.0,28.0,-969.0,-46.0
13.0,-253.0,-35.0,29.0,53.0,-9.0,29.0,-976.0,-46.0
11.0,-253.0,-36.0,40.0,54.0,-5.0,28.0,-973.0,-51.0
11.0,-254.0,-42.0,51.0,53.0,-7.0,26.0,-969.0,-47.0
10.0,-252.0,-36.0,62.0,54.0,-5.0,27.0,-958.0,-52.0
9.0,-250.0,-42.0,69.0,53.0,-8.0,26.0,-952.0,-55.0
16.0,-248.0,-40.0,70.0,53.0,-6.0,22.0,-953.0,-54.0
12.0,-251.0,-38.0,66.0,54.0,-6.0,24.0,-950.0,-50.0
11.0,-250.0,-35.0,59.0,56.0,-5.0,24.0,-955.0,-50.0
11.0,-250.0,-36.0,52.0,60.0,-6.0,23.0,-947.0,-47.0
11.0,-254.0,-23.0,45.0,61.0,-5.0,25.0,-950.0,-41.0
13.0,-253.0,-43.0,39.0,63.0,-7.0,19.0,-954.0,-39.0
11.0,-250.0,-36.0,34.0,61.0,-3.0,22.0,-950.0,-30.0
8.0,-249.0,-34.0,30.0,59.0,-5.0,23.0,-963.0,-35.0
9.0,-251.0,-33.0,23.0,57.0,0.0,24.0,-954.0,-32.0
10.0,-249.0,-33.0,20.0,55.0,-2.0,21.0,-953.0,-31.0
10.0,-251.0,-38.0,14.0,52.0,1.0,20.0,-960.0,-33.0
11.0,-248.0,-37.0,8.0,49.0,0.0,23.0,-956.0,-29.0
15.0,-251.0,-38.0,3.0,48.0,4.0,29.0,-953.0,-31.0
13.0,-250.0,-35.0,0.0,49.0,0.0,26.0,-951.0,-37.0
10.0,-249.0,-35.0,-5.0,51.0,1.0,24.0,-956.0,-37.0
10.0,-252.0,-37.0,-6.0,54.0,0.0,27.0,-952.0,-35.0
8.0,-246.0,-37.0,-10.0,56.0,1.0,26.0,-959.0,-41.0
11.0,-251.0,-38.0,-11.0,59.0,-2.0,26.0,-952.0,-38.0
10.0,-249.0,-33.0,-11.0,62.0,0.0,22.0,-948.0,-36.0
10.0,-249.0,-37.0,-10.0,63.0,-3.0,23.0,-963.0,-41.0
9.0,-250.0,-34.0,-15.0,64.0,-1.0,24.0,-955.0,-41.0
10.0,-251.0,-33.0,-16.0,64.0,-3.0,23.0,-954.0,-39.0
12.0,-252.0,-37.0,-15.0,65.0,-2.0,22.0,-956.0,-39.0
11.0,-250.0,-34.0,-14.0,67.0,-6.0,23.0,-962.0,-40.0
11.0,-252.0,-37.0,-15.0,66.0,-5.0,25.0,-958.0,-41.0
12.0,-250.0,-38.0,-19.0,67.0,-6.0,22.0,-958.0,-40.0
1.0,-251.0,-48.0,-23.0,66.0,-4.0,28.0,-958.0,-37.0
13.0,-250.0,-37.0,-30.0,64.0,-9.0,27.0,-960.0,-43.0
11.0,-252.0,-35.0,-35.0,62.0,-6.0,25.0,-961.0,-46.0
9.0,-248.0,-34.0,-40.0,61.0,-6.0,30.0,-961.0,-44.0
10.0,-252.0,-36.0,-40.0,60.0,-4.0,27.0,-968.0,-44.0
11.0,-253.0,-34.0,-40.0,58.0,-4.0,21.0,-958.0,-38.0
10.0,-252.0,-36.0,-36.0,57.0,-1.0,24.0,-960.0,-45.0
9.0,-254.0,-34.0,-32.0,56.0,-4.0,23.0,-956.0,-44.0
8.0,-251.0,-37.0,-28.0,56.0,-1.0,21.0,-964.0,-48.0
12.0,-248.0,-42.0,-23.0,54.0,-3.0,23.0,-966.0,-46.0
11.0,-252.0,-32.0,-16.0,54.0,-2.0,23.0,-958.0,-46.0
18.0,-243.0,-48.0,-9.0,54.0,-4.0,29.0,-967.0,-48.0
10.0,-251.0,-38.0,-1.0,55.0,-1.0,32.0,-954.0,-44.0
10.0,-251.0,-40.0,5.0,55.0,-2.0,26.0,-955.0,-47.0
10.0,-252.0,-35.0,7.0,54.0,0.0,21.0,-951.0,-42.0
10.0,-247.0,-37.0,8.0,54.0,-2.0,26.0,-954.0,-38.0
10.0,-252.0,-37.0,7.0,54.0,1.0,26.0,-957.0,-44.0
13.0,-253.0,-35.0,4.0,54.0,-2.0,21.0,-952.0,-38.0
9.0,-252.0,-34.0,0.0,53.0,1.0,24.0,-953.0,-41.0
9.0,-251.0,-33.0,-2.0,51.0,-1.0,20.0,-963.0,-42.0
11.0,-251.0,-37.0,-7.0,53.0,1.0,23.0,-950.0,-36.0
11.0,-250.0,-33.0,-7.0,52.0,-3.0,22.0,-951.0,-36.0
6.0,-255.0,-15.0,-8.0,53.0,0.0,18.0,-962.0,-42.0
10.0,-250.0,-36.0,-5.0,53.0,-2.0,18.0,-956.0,-36.0
11.0,-251.0,-33.0,-6.0,54.0,0.0,27.0,-954.0,-38.0
9.0,-249.0,-31.0,-7.0,51.0,-3.0,22.0,-954.0,-35.0
12.0,-254.0,-35.0,-8.0,51.0,-1.0,24.0,-953.0,-37.0
10.0,-250.0,-36.0,-11.0,49.0,-4.0,29.0,-956.0,-33.0
11.0,-252.0,-32.0,-15.0,48.0,-2.0,25.0,-950.0,-39.0
10.0,-253.0,-32.0,-17.0,48.0,-5.0,24.0,-954.0,-43.0
10.0,-251.0,-35.0,-22.0,45.0,-3.0,26.0,-950.0,-43.0
8.0,-250.0,-37.0,-24.0,42.0,-3.0,26.0,-955.0,-44.0
9.0,-250.0,-34.0,-26.0,40.0,-1.0,30.0,-949.0,-46.0
10.0,-248.0,-38.0,-28.0,38.0,-4.0,26.0,-950.0,-44.0
12.0,-248.0,-39.0,-31.0,37.0,-2.0,30.0,-952.0,-43.0
8.0,-249.0,-40.0,-32.0,34.0,-4.0,25.0,-956.0,-43.0
6.0,-250.0,-38.0,-34.0,34.0,-2.0,27.0,-959.0,-46.0
10.0,-252.0,-36.0,-37.0,33.0,-6.0,25.0,-961.0,-44.0
9.0,-251.0,-39.0,-38.0,35.0,-3.0,23.0,-963.0,-47.0
14.0,-253.0,-39.0,-38.0,36.0,-4.0,28.0,-969.0,-42.0
12.0,-252.0,-34.0,-36.0,37.0,-2.0,28.0,-965.0,-43.0
10.0,-250.0,-37.0,-31.0,40.0,-3.0,31.0,-963.0,-40.0
15.0,-254.0,-37.0,-26.0,42.0,-2.0,27.0,-959.0,-44.0
4.0,-255.0,-37.0,-21.0,43.0,-4.0,27.0,-963.0,-43.0
11.0,-250.0,-37.0,-19.0,44.0,0.0,25.0,-956.0,-44.0
11.0,-250.0,-35.0,-18.0,44.0,-4.0,28.0,-954.0,-42.0
13.0,-251.0,-38.0,-19.0,43.0,-2.0,28.0,-953.0,-44.0
11.0,-249.0,-35.0,-24.0,45.0,-5.0,36.0,-953.0,-46.0
11.0,-249.0,-36.0,-28.0,44.0,-3.0,32.0,-953.0,-44.0
13.0,-252.0,-39.0,-34.0,45.0,-4.0,30.0,-951.0,-43.0
15.0,-251.0,-38.0,-38.0,45.0,-3.0,23.0,-957.0,-40.0
11.0,-252.0,-38.0,-40.0,44.0,-5.0,28.0,-954.0,-43.0
13.0,-252.0,-36.0,-38.0,43.0,-1.0,28.0,-955.0,-43.0
8.0,-251.0,-38.0,-38.0,41.0,-4.0,25.0,-951.0,-47.0
3.0,-249.0,-35.0,-37.0,41.0,-1.0,25.0,-956.0,-49.0
10.0,-251.0,-38.0,-36.0,42.0,-4.0,22.0,-953.0,-47.0
11.0,-250.0,-40.0,-34.0,44.0,-4.0,22.0,-955.0,-47.0
10.0,-251.0,-31.0,-35.0,42.0,-5.0,21.0,-961.0,-43.0
7.0,-249.0,-35.0,-35.0,42.0,-1.0,17.0,-964.0,-47.0
9.0,-252.0,-41.0,-36.0,42.0,-4.0,15.0,-959.0,-45.0
9.0,-249.0,-32.0,-40.0,43.0,-3.0,17.0,-968.0,-46.0
10.0,-254.0,-40.0,-43.0,41.0,-4.0,16.0,-967.0,-50.0
11.0,-255.0,-36.0,-43.0,43.0,-3.0,19.0,-965.0,-44.0
13.0,-249.0,-38.0,-40.0,42.0,-5.0,20.0,-974.0,-48.0
15.0,-251.0,-38.0,-35.0,42.0,-3.0,24.0,-971.0,-50.0
21.0,-259.0,-37.0,-28.0,41.0,-5.0,21.0,-958.0,-53.0
13.0,-251.0,-38.0,-25.0,40.0,-3.0,28.0,-963.0,-49.0
12.0,-250.0,-36.0,-21.0,42.0,-6.0,23.0,-952.0,-48.0
12.0,-252.0,-38.0,-20.0,43.0,-3.0,26.0,-953.0,-54.0
10.0,-252.0,-41.0,-20.0,47.0,-8.0,29.0,-952.0,-48.0
12.0,-248.0,-41.0,-27.0,50.0,-5.0,27.0,-954.0,-52.0
11.0,-252.0,-39.0,-33.0,50.0,-6.0,22.0,-954.0,-49.0
10.0,-252.0,-39.0,-37.0,49.0,-5.0,24.0,-961.0,-56.0
9.0,-251.0,-40.0,-38.0,49.0,-5.0,24.0,-953.0,-55.0
11.0,-251.0,-37.0,-40.0,48.0,-2.0,26.0,-957.0,-59.0
9.0,-252.0,-37.0,-39.0,49.0,-6.0,20.0,-954.0,-55.0
7.0,-246.0,-46.0,-38.0,51.0,-2.0,21.0,-964.0,-54.0
10.0,-252.0,-39.0,-40.0,49.0,-5.0,25.0,-949.0,-53.0
9.0,-249.0,-40.0,-42.0,49.0,-2.0,21.0,-952.0,-55.0
9.0,-252.0,-38.0,-47.0,49.0,-4.0,23.0,-955.0,-56.0
10.0,-250.0,-38.0,-51.0,48.0,-1.0,23.0,-956.0,-55.0
15.0,-253.0,-40.0,-52.0,44.0,-3.0,25.0,-956.0,-50.0
13.0,-253.0,-42.0,-51.0,45.0,-1.0,28.0,-967.0,-53.0
12.0,-252.0,-40.0,-51.0,47.0,-4.0,27.0,-963.0,-56.0
12.0,-251.0,-40.0,-49.0,49.0,-2.0,27.0,-958.0,-60.0
10.0,-249.0,-43.0,-50.0,50.0,-5.0,19.0,-953.0,-60.0
8.0,-252.0,-41.0,-53.0,52.0,-3.0,21.0,-957.0,-65.0
-3.0,-253.0,-36.0,-58.0,57.0,-5.0,23.0,-950.0,-63.0
12.0,-251.0,-43.0,-60.0,61.0,-3.0,25.0,-956.0,-62.0
9.0,-249.0,-42.0,-63.0,64.0,-5.0,20.0,-957.0,-61.0
10.0,-251.0,-43.0,-63.0,65.0,-1.0,22.0,-960.0,-70.0
9.0,-253.0,-40.0,-61.0,63.0,-4.0,17.0,-955.0,-60.0
9.0,-250.0,-44.0,-57.0,62.0,-1.0,21.0,-957.0,-59.0
12.0,-253.0,-42.0,-55.0,59.0,-1.0,24.0,-963.0,-68.0
12.0,-246.0,-43.0,-52.0,55.0,2.0,22.0,-972.0,-63.0
11.0,-255.0,-47.0,-46.0,52.0,3.0,22.0,-972.0,-66.0
8.0,-254.0,-42.0,-44.0,49.0,4.0,26.0,-964.0,-64.0
16.0,-247.0,-45.0,-41.0,45.0,4.0,19.0,-961.0,-68.0
23.0,-245.0,-46.0,-42.0,42.0,7.0,25.0,-959.0,-69.0
11.0,-253.0,-44.0,-45.0,39.0,4.0,22.0,-959.0,-75.0
10.0,-253.0,-47.0,-48.0,37.0,9.0,20.0,-969.0,-79.0
12.0,-251.0,-48.0,-49.0,34.0,9.0,26.0,-972.0,-73.0
10.0,-252.0,-46.0,-47.0,32.0,13.0,26.0,-966.0,-78.0
10.0,-253.0,-45.0,-45.0,29.0,15.0,26.0,-972.0,-84.0
13.0,-252.0,-48.0,-43.0,24.0,17.0,21.0,-970.0,-85.0
12.0,-256.0,-45.0,-42.0,22.0,17.0,28.0,-976.0,-88.0
11.0,-256.0,-46.0,-40.0,21.0,20.0,26.0,-966.0,-93.0
19.0,-249.0,-54.0,-43.0,19.0,19.0,29.0,-979.0,-98.0
11.0,-252.0,-50.0,-48.0,21.0,22.0,33.0,-979.0,-104.0
12.0,-256.0,-58.0,-59.0,24.0,20.0,28.0,-979.0,-97.0
12.0,-252.0,-51.0,-70.0,27.0,22.0,26.0,-977.0,-100.0
9.0,-251.0,-52.0,-84.0,30.0,22.0,25.0,-977.0,-96.0
11.0,-250.0,-50.0,-102.0,25.0,24.0,21.0,-963.0,-92.0
13.0,-250.0,-50.0,-131.0,21.0,23.0,27.0,-968.0,-93.0
9.0,-243.0,-50.0,-178.0,14.0,24.0,23.0,-948.0,-99.0
9.0,-237.0,-50.0,-248.0,5.0,20.0,26.0,-933.0,-106.0
6.0,-238.0,-58.0,-339.0,-11.0,17.0,24.0,-926.0,-126.0
9.0,-235.0,-61.0,-446.0,-31.0,13.0,14.0,-905.0,-144.0
8.0,-230.0,-71.0,-569.0,-52.0,15.0,2.0,-890.0,-164.0
0.0,-227.0,-67.0,-693.0,-80.0,12.0,-4.0,-875.0,-181.0
3.0,-222.0,-65.0,-832.0,-100.0,12.0,-18.0,-863.0,-204.0
-1.0,-224.0,-82.0,-932.0,-125.0,6.0,-24.0,-857.0,-223.0
-4.0,-220.0,-84.0,-1012.0,-152.0,3.0,-37.0,-859.0,-239.0
-10.0,-223.0,-94.0,-1074.0,-180.0,0.0,-50.0,-862.0,-277.0
-11.0,-225.0,-104.0,-1121.0,-221.0,2.0,-54.0,-866.0,-300.0
-10.0,-225.0,-118.0,-1157.0,-263.0,0.0,-60.0,-878.0,-358.0
-12.0,-231.0,-135.0,-1189.0,-296.0,1.0,-76.0,-884.0,-443.0
-7.0,-222.0,-163.0,-1240.0,-296.0,-1.0,-66.0,-873.0,-541.0
-6.0,-220.0,-176.0,-1312.0,-265.0,6.0,-63.0,-857.0,-594.0
-6.0,-218.0,-177.0,-1377.0,-222.0,20.0,-62.0,-839.0,-597.0
-1.0,-222.0,-176.0,-1395.0,-194.0,43.0,-40.0,-835.0,-601.0
11.0,-220.0,-174.0,-1369.0,-163.0,57.0,-9.0,-840.0,-649.0
9.0,-216.0,-190.0,-1318.0,-125.0,53.0,42.0,-856.0,-653.0
33.0,-225.0,-184.0,-1246.0,-79.0,29.0,82.0,-865.0,-652.0
39.0,-229.0,-175.0,-1157.0,-38.0,3.0,121.0,-876.0,-607.0
46.0,-229.0,-172.0,-1051.0,-10.0,-24.0,145.0,-863.0,-600.0
51.0,-218.0,-177.0,-948.0,20.0,-39.0,168.0,-838.0,-625.0
51.0,-204.0,-185.0,-878.0,54.0,-44.0,169.0,-795.0,-652.0
52.0,-189.0,-190.0,-855.0,79.0,-32.0,161.0,-761.0,-661.0
45.0,-176.0,-191.0,-867.0,96.0,-9.0,142.0,-702.0,-662.0
35.0,-176.0,-182.0,-877.0,102.0,20.0,111.0,-681.0,-650.0
30.0,-151.0,-197.0,-886.0,105.0,54.0,82.0,-650.0,-607.0
16.0,-153.0,-161.0,-878.0,104.0,98.0,41.0,-602.0,-563.0
6.0,-135.0,-154.0,-847.0,90.0,151.0,-3.0,-527.0,-522.0
-6.0,-119.0,-152.0,-814.0,65.0,211.0,-38.0,-440.0,-501.0
-14.0,-98.0,-143.0,-796.0,31.0,264.0,-87.0,-383.0,-479.0
-25.0,-78.0,-135.0,-805.0,-4.0,311.0,-120.0,-323.0,-451.0
-37.0,-63.0,-131.0,-844.0,-42.0,343.0,-148.0,-250.0,-436.0
-46.0,-47.0,-132.0,-912.0,-91.0,380.0,-184.0,-206.0,-422.0
-45.0,-40.0,-129.0,-1041.0,-165.0,398.0,-190.0,-177.0,-414.0
-50.0,-28.0,-121.0,-1176.0,-239.0,397.0,-199.0,-125.0,-387.0
-51.0,-27.0,-119.0,-1304.0,-324.0,377.0,-202.0,-103.0,-366.0
-47.0,-29.0,-101.0,-1422.0,-410.0,346.0,-209.0,-89.0,-342.0
-52.0,-14.0,-102.0,-1524.0,-495.0,302.0,-216.0,-60.0,-311.0
-47.0,-14.0,-101.0,-1587.0,-573.0,265.0,-193.0,-64.0,-305.0
-39.0,-22.0,-95.0,-1643.0,-639.0,218.0,-164.0,-91.0,-296.0
-34.0,-26.0,-88.0,-1687.0,-694.0,160.0,-142.0,-104.0,-255.0
-31.0,-49.0,-80.0,-1689.0,-731.0,86.0,-136.0,-180.0,-189.0
-33.0,-63.0,-68.0,-1661.0,-751.0,16.0,-142.0,-255.0,-164.0
-29.0,-95.0,-63.0,-1593.0,-755.0,-10.0,-128.0,-362.0,-146.0
-20.0,-127.0,-62.0,-1520.0,-733.0,-21.0,-111.0,-473.0,-139.0
-11.0,-161.0,-66.0,-1442.0,-687.0,-29.0,-73.0,-594.0,-154.0
-1.0,-190.0,-77.0,-1368.0,-611.0,-36.0,-39.0,-697.0,-195.0
9.0,-201.0,-79.0,-1313.0,-515.0,-40.0,15.0,-780.0,-235.0
30.0,-222.0,-99.0,-1265.0,-408.0,-32.0,66.0,-856.0,-297.0
51.0,-235.0,-117.0,-1244.0,-282.0,-10.0,155.0,-899.0,-369.0
75.0,-237.0,-136.0,-1244.0,-137.0,26.0,229.0,-911.0,-451.0
94.0,-232.0,-167.0,-1269.0,14.0,45.0,294.0,-916.0,-551.0
105.0,-221.0,-186.0,-1340.0,149.0,54.0,348.0,-878.0,-655.0
110.0,-199.0,-205.0,-1491.0,263.0,60.0,361.0,-810.0,-718.0
92.0,-175.0,-200.0,-1628.0,306.0,79.0,338.0,-714.0,-721.0
73.0,-160.0,-186.0,-1718.0,288.0,112.0,238.0,-618.0,-644.0
41.0,-146.0,-159.0,-1722.0,223.0,162.0,121.0,-549.0,-538.0
-5.0,-155.0,-117.0,-1634.0,130.0,225.0,16.0,-520.0,-421.0
-15.0,-136.0,-102.0,-1488.0,35.0,295.0,-72.0,-507.0,-331.0
-39.0,-139.0,-84.0,-1315.0,-40.0,348.0,-155.0,-507.0,-245.0
-52.0,-136.0,-64.0,-1127.0,-92.0,389.0,-213.0,-484.0,-158.0
-60.0,-129.0,-59.0,-921.0,-135.0,406.0,-244.0,-481.0,-123.0
-59.0,-127.0,-52.0,-746.0,-194.0,405.0,-245.0,-471.0,-95.0
-50.0,-125.0,-49.0,-639.0,-246.0,373.0,-211.0,-476.0,-94.0
-36.0,-117.0,-47.0,-648.0,-285.0,318.0,-148.0,-444.0,-99.0
-10.0,-110.0,-54.0,-724.0,-295.0,246.0,-72.0,-429.0,-98.0
10.0,-104.0,-58.0,-849.0,-261.0,151.0,-3.0,-415.0,-112.0
19.0,-92.0,-43.0,-1020.0,-194.0,51.0,49.0,-361.0,-69.0
23.0,-87.0,-42.0,-1179.0,-103.0,-17.0,81.0,-349.0,-59.0
26.0,-82.0,-29.0,-1326.0,-5.0,-64.0,80.0,-310.0,-24.0
17.0,-78.0,-33.0,-1441.0,74.0,-80.0,69.0,-309.0,-13.0
10.0,-73.0,-31.0,-1522.0,121.0,-85.0,22.0,-292.0,-30.0
-4.0,-76.0,-34.0,-1591.0,130.0,-83.0,-22.0,-290.0,-42.0
-17.0,-83.0,-47.0,-1665.0,95.0,-71.0,-69.0,-333.0,-72.0
-32.0,-97.0,-61.0,-1739.0,37.0,-58.0,-120.0,-388.0,-137.0
-41.0,-116.0,-68.0,-1833.0,-36.0,-29.0,-168.0,-447.0,-172.0
-54.0,-139.0,-84.0,-1907.0,-122.0,18.0,-224.0,-522.0,-218.0
-54.0,-163.0,-95.0,-1973.0,-189.0,70.0,-226.0,-610.0,-268.0
-52.0,-176.0,-99.0,-2033.0,-234.0,126.0,-237.0,-677.0,-291.0
-56.0,-192.0,-119.0,-2062.0,-256.0,183.0,-239.0,-758.0,-334.0
-47.0,-222.0,-118.0,-2066.0,-255.0,243.0,-205.0,-861.0,-367.0
-40.0,-241.0,-116.0,-2071.0,-238.0,287.0,-191.0,-923.0,-361.0
-27.0,-264.0,-118.0,-2073.0,-195.0,308.0,-147.0,-1019.0,-369.0
-16.0,-287.0,-118.0,-2061.0,-159.0,308.0,-108.0,-1083.0,-358.0
-1.0,-290.0,-112.0,-2007.0,-125.0,286.0,-36.0,-1101.0,-347.0
8.0,-297.0,-127.0,-1888.0,-99.0,251.0,-6.0,-1112.0,-391.0
21.0,-291.0,-123.0,-1742.0,-80.0,222.0,63.0,-1100.0,-395.0
30.0,-288.0,-128.0,-1561.0,-80.0,151.0,79.0,-1080.0,-423.0
28.0,-287.0,-134.0,-1367.0,-84.0,74.0,80.0,-1089.0,-438.0
40.0,-301.0,-135.0,-1209.0,-89.0,1.0,74.0,-1141.0,-455.0
22.0,-303.0,-113.0,-1099.0,-101.0,-53.0,54.0,-1138.0,-355.0
9.0,-278.0,-119.0,-939.0,-104.0,-131.0,31.0,-1089.0,-388.0
1.0,-248.0,-117.0,-769.0,-118.0,-181.0,-14.0,-939.0,-369.0
-10.0,-224.0,-116.0,-663.0,-122.0,-194.0,-66.0,-824.0,-381.0
-21.0,-186.0,-125.0,-582.0,-135.0,-180.0,-122.0,-690.0,-402.0
-35.0,-151.0,-131.0,-556.0,-155.0,-135.0,-160.0,-590.0,-428.0
-60.0,-138.0,-144.0,-596.0,-183.0,-83.0,-225.0,-520.0,-466.0
37.0,-120.0,-136.0,-697.0,-215.0,-30.0,-270.0,-506.0,-497.0
-68.0,-148.0,-141.0,-841.0,-253.0,45.0,-259.0,-581.0,-472.0
-66.0,-141.0,-130.0,-924.0,-296.0,111.0,-295.0,-578.0,-459.0
-59.0,-208.0,-161.0,-965.0,-359.0,191.0,-290.0,-759.0,-560.0
-50.0,-224.0,-183.0,-1078.0,-439.0,286.0,-241.0,-892.0,-638.0
-44.0,-238.0,-216.0,-1289.0,-517.0,326.0,-191.0,-961.0,-744.0
-19.0,-264.0,-240.0,-1469.0,-572.0,334.0,-133.0,-1027.0,-853.0
-18.0,-264.0,-250.0,-1631.0,-619.0,262.0,-131.0,-1039.0,-912.0
-6.0,-280.0,-252.0,-1723.0,-627.0,178.0,-78.0,-1089.0,-906.0
14.0,-289.0,-234.0,-1715.0,-578.0,77.0,-4.0,-1093.0,-864.0
31.0,-285.0,-220.0,-1584.0,-503.0,-9.0,51.0,-1067.0,-805.0
30.0,-278.0,-222.0,-1371.0,-408.0,-78.0,71.0,-1043.0,-782.0
29.0,-249.0,-225.0,-1146.0,-320.0,-160.0,68.0,-946.0,-806.0
33.0,-242.0,-228.0,-984.0,-261.0,-191.0,67.0,-901.0,-850.0
3.0,-200.0,-249.0,-906.0,-216.0,-208.0,-24.0,-811.0,-855.0
-20.0,-195.0,-245.0,-880.0,-201.0,-185.0,-111.0,-787.0,-894.0
-32.0,-192.0,-260.0,-898.0,-190.0,-150.0,-178.0,-734.0,-932.0
-56.0,-175.0,-259.0,-965.0,-167.0,-110.0,-245.0,-703.0,-935.0
-58.0,-199.0,-269.0,-1037.0,-149.0,-42.0,-290.0,-729.0,-975.0
-76.0,-196.0,-271.0,-1077.0,-123.0,-1.0,-337.0,-760.0,-995.0
-66.0,-225.0,-281.0,-1069.0,-121.0,35.0,-321.0,-869.0,-1044.0
-62.0,-225.0,-305.0,-1044.0,-126.0,20.0,-320.0,-865.0,-1101.0
-47.0,-222.0,-316.0,-1011.0,-131.0,-6.0,-254.0,-864.0,-1175.0
-26.0,-228.0,-329.0,-956.0,-113.0,-38.0,-183.0,-880.0,-1240.0
-19.0,-239.0,-330.0,-872.0,-63.0,-106.0,-180.0,-921.0,-1240.0
-10.0,-223.0,-331.0,-734.0,-13.0,-197.0,-126.0,-858.0,-1237.0
10.0,-229.0,-332.0,-561.0,57.0,-194.0,-56.0,-864.0,-1243.0
-4.0,-231.0,-321.0,-350.0,157.0,-166.0,-62.0,-878.0,-1211.0
-6.0,-237.0,-316.0,-134.0,240.0,-144.0,-79.0,-895.0,-1170.0
-17.0,-232.0,-308.0,47.0,308.0,-123.0,-117.0,-887.0,-1143.0
-29.0,-230.0,-300.0,192.0,335.0,-119.0,-169.0,-898.0,-1126.0
-32.0,-206.0,-310.0,303.0,332.0,-103.0,-188.0,-804.0,-1139.0
-40.0,-199.0,-307.0,394.0,330.0,-47.0,-188.0,-786.0,-1135.0
-48.0,-205.0,-297.0,457.0,332.0,-24.0,-230.0,-780.0,-1126.0
-48.0,-210.0,-301.0,494.0,313.0,-4.0,-228.0,-834.0,-1113.0
-53.0,-205.0,-291.0,514.0,287.0,-6.0,-236.0,-787.0,-1080.0
-46.0,-201.0,-292.0,536.0,267.0,9.0,-220.0,-791.0,-1081.0
-39.0,-209.0,-294.0,537.0,250.0,35.0,-216.0,-820.0,-1086.0
-41.0,-216.0,-292.0,507.0,236.0,50.0,-209.0,-839.0,-1084.0
-45.0,-187.0,-293.0,466.0,215.0,-37.0,-242.0,-747.0,-1067.0
-24.0,-197.0,-304.0,482.0,201.0,-32.0,-152.0,-762.0,-1109.0
-22.0,-204.0,-306.0,516.0,209.0,18.0,-144.0,-818.0,-1134.0
-27.0,-195.0,-310.0,528.0,232.0,54.0,-169.0,-757.0,-1131.0
-31.0,-205.0,-310.0,574.0,254.0,25.0,-182.0,-774.0,-1143.0
-25.0,-202.0,-309.0,632.0,258.0,1.0,-157.0,-784.0,-1136.0
-17.0,-202.0,-304.0,700.0,254.0,-10.0,-155.0,-797.0,-1131.0
-37.0,-206.0,-293.0,757.0,250.0,-20.0,-151.0,-806.0,-1108.0
-27.0,-208.0,-292.0,792.0,248.0,-29.0,-154.0,-796.0,-1074.0
-29.0,-206.0,-286.0,815.0,244.0,-38.0,-155.0,-801.0,-1070.0
-26.0,-207.0,-288.0,841.0,247.0,-36.0,-154.0,-804.0,-1063.0
-26.0,-209.0,-290.0,890.0,258.0,-37.0,-152.0,-816.0,-1073.0
-29.0,-212.0,-285.0,950.0,285.0,-41.0,-167.0,-821.0,-1060.0
-30.0,-209.0,-278.0,1003.0,305.0,-48.0,-171.0,-813.0,-1044.0
-31.0,-203.0,-280.0,1035.0,314.0,-53.0,-175.0,-800.0,-1027.0
-26.0,-201.0,-281.0,1041.0,307.0,-55.0,-158.0,-801.0,-1026.0
-21.0,-202.0,-278.0,1023.0,300.0,-55.0,-149.0,-796.0,-1030.0
-28.0,-206.0,-274.0,994.0,296.0,-53.0,-142.0,-805.0,-1041.0
-24.0,-210.0,-282.0,968.0,290.0,-52.0,-147.0,-812.0,-1039.0
-21.0,-208.0,-283.0,952.0,285.0,-54.0,-146.0,-820.0,-1044.0
-24.0,-208.0,-282.0,952.0,288.0,-64.0,-144.0,-819.0,-1036.0
-25.0,-210.0,-277.0,967.0,300.0,-80.0,-152.0,-811.0,-1042.0
-31.0,-208.0,-277.0,986.0,311.0,-93.0,-169.0,-814.0,-1035.0
-34.0,-205.0,-277.0,996.0,319.0,-100.0,-187.0,-808.0,-1032.0
-41.0,-207.0,-274.0,1007.0,322.0,-99.0,-196.0,-813.0,-1027.0
-39.0,-208.0,-275.0,1016.0,321.0,-99.0,-202.0,-812.0,-1009.0
-39.0,-209.0,-275.0,1037.0,323.0,-101.0,-213.0,-816.0,-1007.0
-46.0,-207.0,-265.0,1056.0,320.0,-105.0,-217.0,-818.0,-1001.0
-42.0,-215.0,-260.0,1073.0,309.0,-105.0,-210.0,-823.0,-997.0
-37.0,-213.0,-264.0,1090.0,293.0,-106.0,-198.0,-825.0,-979.0
-42.0,-207.0,-261.0,1113.0,276.0,-110.0,-203.0,-815.0,-962.0
-43.0,-205.0,-255.0,1131.0,257.0,-115.0,-210.0,-805.0,-944.0
-42.0,-202.0,-256.0,1147.0,239.0,-118.0,-201.0,-798.0,-923.0
-41.0,-203.0,-252.0,1161.0,226.0,-124.0,-207.0,-789.0,-894.0
-38.0,-200.0,-247.0,1169.0,215.0,-123.0,-188.0,-784.0,-892.0
-32.0,-196.0,-245.0,1172.0,209.0,-116.0,-174.0,-770.0,-878.0
-26.0,-193.0,-241.0,1170.0,203.0,-109.0,-152.0,-761.0,-875.0
-16.0,-192.0,-242.0,1167.0,210.0,-97.0,-131.0,-754.0,-872.0
-19.0,-188.0,-236.0,1164.0,219.0,-81.0,-122.0,-741.0,-866.0
-14.0,-182.0,-255.0,1158.0,229.0,-57.0,-110.0,-733.0,-862.0
-16.0,-192.0,-234.0,1153.0,241.0,-38.0,-119.0,-745.0,-856.0
-19.0,-191.0,-239.0,1147.0,252.0,-27.0,-121.0,-752.0,-854.0
-25.0,-193.0,-232.0,1143.0,262.0,-15.0,-132.0,-754.0,-839.0
-25.0,-191.0,-230.0,1141.0,269.0,-5.0,-140.0,-757.0,-823.0
-26.0,-192.0,-225.0,1137.0,271.0,7.0,-141.0,-753.0,-814.0
-26.0,-193.0,-219.0,1129.0,268.0,18.0,-134.0,-759.0,-797.0
-25.0,-191.0,-216.0,1116.0,264.0,23.0,-129.0,-755.0,-789.0
-16.0,-190.0,-218.0,1099.0,257.0,31.0,-121.0,-753.0,-783.0
-17.0,-190.0,-218.0,1075.0,253.0,38.0,-111.0,-748.0,-769.0
-12.0,-188.0,-214.0,1045.0,253.0,43.0,-96.0,-733.0,-762.0
-9.0,-186.0,-210.0,1013.0,255.0,50.0,-89.0,-728.0,-750.0
-14.0,-188.0,-210.0,982.0,257.0,53.0,-88.0,-727.0,-737.0
-14.0,-188.0,-204.0,960.0,259.0,60.0,-85.0,-734.0,-725.0
-16.0,-191.0,-202.0,942.0,263.0,64.0,-93.0,-735.0,-717.0
-16.0,-191.0,-196.0,923.0,265.0,68.0,-93.0,-756.0,-697.0
-18.0,-197.0,-194.0,906.0,266.0,72.0,-113.0,-765.0,-678.0
-17.0,-200.0,-192.0,887.0,255.0,72.0,-120.0,-778.0,-661.0
-21.0,-205.0,-187.0,874.0,237.0,75.0,-122.0,-799.0,-651.0
-20.0,-210.0,-183.0,854.0,217.0,69.0,-118.0,-811.0,-643.0
-14.0,-212.0,-184.0,829.0,201.0,60.0,-97.0,-826.0,-648.0
-10.0,-219.0,-187.0,800.0,192.0,47.0,-65.0,-849.0,-645.0
-3.0,-223.0,-187.0,772.0,189.0,34.0,-48.0,-871.0,-643.0
-1.0,-227.0,-186.0,746.0,189.0,17.0,-29.0,-888.0,-634.0
3.0,-235.0,-185.0,728.0,191.0,0.0,-15.0,-908.0,-635.0
6.0,-239.0,-180.0,714.0,193.0,-18.0,-9.0,-915.0,-624.0
6.0,-245.0,-178.0,701.0,199.0,-35.0,-12.0,-929.0,-616.0
2.0,-248.0,-172.0,696.0,204.0,-46.0,-12.0,-954.0,-599.0
3.0,-256.0,-171.0,699.0,206.0,-56.0,-25.0,-976.0,-580.0
-3.0,-257.0,-165.0,713.0,203.0,-65.0,-32.0,-994.0,-569.0
0.0,-262.0,-160.0,729.0,197.0,-75.0,-36.0,-1015.0,-553.0
-5.0,-265.0,-160.0,752.0,187.0,-88.0,-41.0,-1015.0,-540.0
1.0,-265.0,-153.0,778.0,176.0,-102.0,-38.0,-1022.0,-530.0
7.0,-262.0,-153.0,799.0,168.0,-117.0,-39.0,-1004.0,-510.0
-2.0,-254.0,-147.0,819.0,161.0,-129.0,-32.0,-984.0,-509.0
-2.0,-247.0,-146.0,837.0,156.0,-142.0,-31.0,-941.0,-489.0
2.0,-234.0,-146.0,855.0,151.0,-154.0,-28.0,-901.0,-480.0
-2.0,-223.0,-140.0,865.0,151.0,-162.0,-30.0,-871.0,-463.0
2.0,-214.0,-137.0,860.0,144.0,-161.0,-26.0,-839.0,-444.0
-1.0,-205.0,-130.0,846.0,132.0,-158.0,-26.0,-811.0,-420.0
1.0,-203.0,-123.0,819.0,119.0,-150.0,-19.0,-787.0,-401.0
1.0,-202.0,-120.0,788.0,102.0,-143.0,-16.0,-779.0,-375.0
2.0,-204.0,-113.0,758.0,87.0,-136.0,-19.0,-785.0,-355.0
14.0,-208.0,-113.0,740.0,73.0,-131.0,-19.0,-789.0,-342.0
6.0,-209.0,-112.0,725.0,57.0,-126.0,-3.0,-811.0,-342.0
9.0,-214.0,-110.0,718.0,47.0,-122.0,-3.0,-828.0,-333.0
7.0,-221.0,-113.0,717.0,43.0,-117.0,10.0,-841.0,-345.0
11.0,-225.0,-110.0,723.0,46.0,-115.0,21.0,-861.0,-337.0
13.0,-229.0,-113.0,738.0,48.0,-111.0,26.0,-866.0,-344.0
12.0,-229.0,-114.0,758.0,49.0,-109.0,25.0,-877.0,-350.0
13.0,-232.0,-111.0,784.0,47.0,-105.0,31.0,-886.0,-356.0
14.0,-230.0,-116.0,815.0,47.0,-103.0,29.0,-891.0,-363.0
13.0,-239.0,-120.0,846.0,53.0,-94.0,29.0,-908.0,-374.0
6.0,-238.0,-121.0,880.0,63.0,-83.0,10.0,-917.0,-361.0
12.0,-247.0,-118.0,911.0,66.0,-75.0,9.0,-930.0,-360.0
5.0,-243.0,-113.0,944.0,70.0,-73.0,6.0,-939.0,-358.0
1.0,-247.0,-117.0,974.0,71.0,-70.0,-11.0,-943.0,-352.0
1.0,-247.0,-116.0,993.0,65.0,-73.0,-18.0,-946.0,-355.0
-1.0,-249.0,-113.0,1005.0,58.0,-68.0,-27.0,-946.0,-358.0
0.0,-249.0,-115.0,1007.0,51.0,-63.0,-28.0,-964.0,-363.0
-1.0,-252.0,-117.0,1007.0,46.0,-58.0,-30.0,-970.0,-364.0
-7.0,-255.0,-121.0,1011.0,36.0,-59.0,-39.0,-965.0,-364.0
-2.0,-248.0,-121.0,1016.0,27.0,-61.0,-43.0,-971.0,-375.0
-3.0,-249.0,-122.0,1018.0,25.0,-65.0,-41.0,-945.0,-377.0
-5.0,-245.0,-113.0,1023.0,28.0,-64.0,-43.0,-932.0,-375.0
-1.0,-228.0,-130.0,1028.0,35.0,-63.0,-50.0,-922.0,-372.0
-6.0,-238.0,-119.0,1031.0,47.0,-56.0,-42.0,-907.0,-369.0
-6.0,-232.0,-118.0,1030.0,57.0,-52.0,-51.0,-894.0,-370.0
-6.0,-227.0,-115.0,1028.0,72.0,-46.0,-44.0,-880.0,-357.0
-8.0,-230.0,-110.0,1019.0,84.0,-42.0,-50.0,-877.0,-349.0
-6.0,-225.0,-112.0,1007.0,98.0,-33.0,-44.0,-867.0,-337.0
-4.0,-223.0,-107.0,990.0,108.0,-23.0,-38.0,-865.0,-328.0
0.0,-221.0,-110.0,964.0,113.0,-10.0,-30.0,-866.0,-324.0
-4.0,-223.0,-104.0,936.0,112.0,-6.0,-28.0,-862.0,-320.0
4.0,-227.0,-105.0,908.0,107.0,0.0,-17.0,-872.0,-320.0
-4.0,-231.0,-105.0,884.0,100.0,5.0,-21.0,-877.0,-312.0
-8.0,-240.0,-100.0,862.0,98.0,9.0,-28.0,-883.0,-304.0
-4.0,-232.0,-101.0,848.0,96.0,10.0,-30.0,-889.0,-297.0
-2.0,-238.0,-97.0,839.0,94.0,11.0,-36.0,-897.0,-284.0
-4.0,-238.0,-93.0,837.0,97.0,1.0,-32.0,-909.0,-279.0
-3.0,-242.0,-91.0,835.0,102.0,-5.0,-31.0,-919.0,-268.0
-3.0,-242.0,-93.0,832.0,114.0,-14.0,-29.0,-922.0,-270.0
-2.0,-239.0,-86.0,821.0,122.0,-20.0,-33.0,-926.0,-267.0
-1.0,-242.0,-86.0,803.0,129.0,-23.0,-38.0,-928.0,-261.0
2.0,-244.0,-87.0,778.0,138.0,-22.0,-29.0,-930.0,-249.0
-4.0,-240.0,-85.0,753.0,148.0,-23.0,-30.0,-937.0,-234.0
-4.0,-249.0,-81.0,718.0,153.0,-17.0,-35.0,-935.0,-224.0
4.0,-245.0,-97.0,694.0,157.0,-14.0,-32.0,-936.0,-221.0
-2.0,-245.0,-80.0,675.0,160.0,-5.0,-37.0,-933.0,-220.0
-3.0,-244.0,-79.0,659.0,162.0,1.0,-33.0,-930.0,-215.0
-7.0,-242.0,-79.0,649.0,165.0,9.0,-33.0,-933.0,-209.0
-6.0,-245.0,-77.0,647.0,162.0,14.0,-42.0,-929.0,-200.0
-7.0,-245.0,-73.0,650.0,158.0,17.0,-39.0,-929.0,-196.0
-6.0,-245.0,-74.0,657.0,153.0,12.0,-40.0,-921.0,-193.0
-11.0,-242.0,-74.0,662.0,148.0,10.0,-46.0,-924.0,-185.0
-10.0,-240.0,-72.0,670.0,141.0,3.0,-55.0,-925.0,-178.0
-11.0,-240.0,-69.0,671.0,134.0,1.0,-56.0,-923.0,-174.0
-9.0,-245.0,-66.0,668.0,130.0,-5.0,-52.0,-917.0,-168.0
10.0,-240.0,-84.0,665.0,129.0,-9.0,-53.0,-919.0,-165.0
-9.0,-242.0,-65.0,655.0,132.0,-16.0,-42.0,-922.0,-159.0
-6.0,-243.0,-62.0,642.0,136.0,-20.0,-45.0,-930.0,-153.0
-6.0,-243.0,-65.0,628.0,141.0,-27.0,-44.0,-926.0,-153.0
-6.0,-243.0,-62.0,613.0,142.0,-28.0,-41.0,-931.0,-152.0
-5.0,-242.0,-63.0,595.0,145.0,-35.0,-34.0,-932.0,-152.0
-3.0,-244.0,-62.0,576.0,147.0,-41.0,-33.0,-931.0,-146.0
0.0,-245.0,-63.0,552.0,151.0,-44.0,-18.0,-929.0,-144.0
0.0,-246.0,-56.0,531.0,152.0,-44.0,-18.0,-931.0,-139.0
1.0,-240.0,-62.0,511.0,150.0,-49.0,-16.0,-931.0,-140.0
0.0,-244.0,-60.0,491.0,148.0,-50.0,-12.0,-931.0,-133.0
1.0,-243.0,-63.0,473.0,140.0,-51.0,-15.0,-934.0,-131.0
2.0,-244.0,-54.0,456.0,131.0,-48.0,-12.0,-927.0,-120.0
2.0,-248.0,-55.0,444.0,123.0,-46.0,-6.0,-938.0,-119.0
1.0,-247.0,-56.0,432.0,120.0,-41.0,-4.0,-942.0,-119.0
3.0,-245.0,-55.0,424.0,122.0,-40.0,-7.0,-941.0,-112.0
4.0,-248.0,-57.0,419.0,122.0,-37.0,0.0,-944.0,-112.0
3.0,-248.0,-52.0,413.0,122.0,-41.0,-3.0,-946.0,-112.0
3.0,-246.0,-61.0,407.0,125.0,-44.0,-4.0,-941.0,-111.0
4.0,-247.0,-60.0,397.0,129.0,-53.0,-3.0,-934.0,-112.0
4.0,-239.0,-55.0,385.0,136.0,-57.0,-4.0,-930.0,-112.0
0.0,-241.0,-48.0,370.0,141.0,-61.0,-5.0,-922.0,-107.0
7.0,-248.0,-45.0,356.0,145.0,-60.0,-11.0,-916.0,-108.0
1.0,-239.0,-49.0,337.0,144.0,-57.0,-7.0,-910.0,-103.0
2.0,-238.0,-49.0,311.0,141.0,-52.0,-3.0,-911.0,-99.0
4.0,-237.0,-49.0,280.0,137.0,-47.0,-7.0,-906.0,-102.0
1.0,-239.0,-52.0,249.0,130.0,-39.0,-7.0,-916.0,-97.0
1.0,-242.0,-47.0,214.0,122.0,-35.0,-10.0,-917.0,-97.0
0.0,-240.0,-48.0,185.0,108.0,-27.0,-13.0,-919.0,-94.0
0.0,-238.0,-52.0,161.0,92.0,-24.0,-11.0,-931.0,-98.0
1.0,-246.0,-53.0,141.0,80.0,-19.0,-5.0,-935.0,-107.0
4.0,-248.0,-54.0,122.0,66.0,-18.0,0.0,-947.0,-101.0
5.0,-249.0,-56.0,107.0,53.0,-17.0,-2.0,-950.0,-109.0
13.0,-246.0,-53.0,96.0,42.0,-25.0,0.0,-961.0,-99.0
5.0,-252.0,-47.0,88.0,33.0,-30.0,-5.0,-970.0,-92.0
5.0,-255.0,-47.0,86.0,26.0,-38.0,-5.0,-979.0,-81.0
2.0,-255.0,-49.0,90.0,20.0,-41.0,-6.0,-977.0,-77.0
1.0,-253.0,-41.0,97.0,17.0,-45.0,-8.0,-975.0,-66.0
0.0,-255.0,-41.0,109.0,15.0,-42.0,-19.0,-978.0,-56.0
1.0,-255.0,-41.0,117.0,13.0,-46.0,-24.0,-969.0,-61.0
2.0,-253.0,-45.0,127.0,10.0,-48.0,-20.0,-955.0,-62.0
-2.0,-252.0,-44.0,131.0,7.0,-53.0,-18.0,-958.0,-70.0
1.0,-251.0,-44.0,131.0,6.0,-54.0,-19.0,-949.0,-69.0
8.0,-257.0,-32.0,130.0,6.0,-58.0,-10.0,-954.0,-74.0
2.0,-251.0,-46.0,132.0,6.0,-58.0,-9.0,-953.0,-74.0
4.0,-250.0,-47.0,137.0,9.0,-58.0,-4.0,-957.0,-77.0
6.0,-251.0,-45.0,144.0,13.0,-50.0,5.0,-966.0,-85.0
10.0,-253.0,-49.0,151.0,21.0,-47.0,13.0,-972.0,-89.0
10.0,-249.0,-47.0,156.0,27.0,-40.0,17.0,-956.0,-85.0
10.0,-248.0,-48.0,163.0,30.0,-37.0,26.0,-963.0,-89.0
11.0,-250.0,-45.0,169.0,33.0,-31.0,28.0,-960.0,-85.0
13.0,-252.0,-46.0,170.0,36.0,-30.0,27.0,-952.0,-85.0
12.0,-252.0,-43.0,172.0,38.0,-26.0,21.0,-948.0,-81.0
8.0,-248.0,-45.0,168.0,41.0,-26.0,22.0,-952.0,-84.0
9.0,-244.0,-49.0,162.0,44.0,-23.0,19.0,-946.0,-80.0
9.0,-249.0,-47.0,153.0,44.0,-27.0,12.0,-947.0,-81.0
5.0,-245.0,-42.0,142.0,45.0,-28.0,6.0,-945.0,-82.0
5.0,-244.0,-45.0,131.0,44.0,-33.0,-2.0,-937.0,-81.0
0.0,-247.0,-48.0,120.0,45.0,-33.0,-8.0,-933.0,-80.0
2.0,-244.0,-49.0,110.0,46.0,-36.0,-9.0,-942.0,-78.0
4.0,-246.0,-48.0,101.0,46.0,-36.0,-8.0,-941.0,-80.0
0.0,-246.0,-47.0,94.0,47.0,-38.0,-13.0,-943.0,-77.0
1.0,-247.0,-49.0,91.0,47.0,-36.0,-17.0,-945.0,-85.0
1.0,-249.0,-47.0,89.0,49.0,-39.0,-13.0,-950.0,-86.0
-2.0,-251.0,-50.0,89.0,50.0,-38.0,-16.0,-951.0,-93.0
-5.0,-252.0,-42.0,88.0,49.0,-37.0,-10.0,-955.0,-89.0
0.0,-252.0,-50.0,90.0,49.0,-34.0,-13.0,-969.0,-95.0
2.0,-253.0,-50.0,88.0,52.0,-35.0,-11.0,-972.0,-88.0
2.0,-255.0,-43.0,90.0,53.0,-29.0,-18.0,-977.0,-82.0
-2.0,-253.0,-47.0,95.0,54.0,-28.0,-9.0,-979.0,-84.0
0.0,-253.0,-47.0,101.0,53.0,-23.0,-16.0,-977.0,-77.0
0.0,-255.0,-47.0,108.0,51.0,-25.0,-14.0,-978.0,-79.0
-3.0,-253.0,-43.0,112.0,48.0,-24.0,-15.0,-975.0,-71.0
-1.0,-252.0,-43.0,117.0,43.0,-28.0,-17.0,-979.0,-72.0
-3.0,-251.0,-42.0,121.0,40.0,-27.0,-16.0,-980.0,-73.0
-3.0,-251.0,-44.0,125.0,35.0,-30.0,-19.0,-972.0,-68.0
8.0,-249.0,-45.0,127.0,30.0,-29.0,-16.0,-977.0,-73.0
0.0,-253.0,-44.0,127.0,24.0,-31.0,-16.0,-955.0,-67.0
1.0,-252.0,-43.0,126.0,21.0,-29.0,-14.0,-956.0,-64.0
-3.0,-250.0,-46.0,124.0,17.0,-32.0,-11.0,-950.0,-64.0
1.0,-252.0,-42.0,122.0,13.0,-30.0,-11.0,-953.0,-65.0
3.0,-250.0,-44.0,119.0,11.0,-31.0,-8.0,-951.0,-63.0
4.0,-247.0,-41.0,113.0,11.0,-29.0,-3.0,-960.0,-72.0
3.0,-249.0,-45.0,109.0,11.0,-29.0,-2.0,-947.0,-61.0
3.0,-249.0,-44.0,104.0,12.0,-26.0,-3.0,-944.0,-67.0
6.0,-250.0,-43.0,97.0,11.0,-26.0,-1.0,-945.0,-59.0
2.0,-249.0,-51.0,89.0,14.0,-22.0,2.0,-951.0,-59.0
4.0,-243.0,-57.0,85.0,14.0,-25.0,-4.0,-949.0,-61.0
5.0,-249.0,-44.0,78.0,15.0,-20.0,1.0,-954.0,-57.0
4.0,-248.0,-42.0,75.0,18.0,-21.0,3.0,-948.0,-61.0
6.0,-249.0,-42.0,71.0,24.0,-17.0,6.0,-951.0,-64.0
5.0,-248.0,-42.0,63.0,31.0,-14.0,5.0,-952.0,-60.0
5.0,-249.0,-42.0,54.0,37.0,-9.0,9.0,-954.0,-60.0
5.0,-250.0,-40.0,48.0,43.0,-6.0,5.0,-957.0,-59.0
8.0,-251.0,-44.0,42.0,47.0,0.0,10.0,-966.0,-60.0
5.0,-252.0,-44.0,38.0,50.0,1.0,8.0,-962.0,-60.0
5.0,-252.0,-44.0,36.0,53.0,4.0,6.0,-969.0,-59.0
14.0,-253.0,-37.0,42.0,54.0,1.0,6.0,-966.0,-61.0
-4.0,-258.0,-37.0,48.0,54.0,3.0,6.0,-962.0,-58.0
8.0,-252.0,-39.0,54.0,55.0,-3.0,5.0,-959.0,-55.0
7.0,-249.0,-44.0,60.0,57.0,-3.0,4.0,-958.0,-56.0
7.0,-251.0,-37.0,63.0,55.0,-7.0,4.0,-959.0,-52.0
9.0,-251.0,-42.0,64.0,52.0,-6.0,7.0,-949.0,-53.0
8.0,-251.0,-43.0,61.0,52.0,-9.0,7.0,-953.0,-51.0
5.0,-249.0,-39.0,57.0,51.0,-8.0,11.0,-950.0,-49.0
1.0,-246.0,-42.0,46.0,51.0,-10.0,3.0,-951.0,-53.0
5.0,-249.0,-39.0,36.0,51.0,-9.0,3.0,-948.0,-52.0
7.0,-249.0,-38.0,30.0,50.0,-12.0,3.0,-949.0,-49.0
4.0,-248.0,-38.0,21.0,51.0,-9.0,1.0,-949.0,-51.0
-4.0,-249.0,-32.0,16.0,50.0,-11.0,3.0,-949.0,-52.0
6.0,-249.0,-38.0,10.0,51.0,-9.0,5.0,-947.0,-52.0
4.0,-250.0,-36.0,6.0,54.0,-9.0,0.0,-954.0,-53.0
4.0,-247.0,-40.0,4.0,54.0,-6.0,1.0,-949.0,-47.0
5.0,-252.0,-38.0,1.0,57.0,-6.0,0.0,-951.0,-50.0
3.0,-249.0,-38.0,-2.0,60.0,-1.0,2.0,-952.0,-44.0
1.0,-252.0,-36.0,-5.0,63.0,-3.0,-6.0,-955.0,-44.0
6.0,-248.0,-37.0,-6.0,65.0,-1.0,1.0,-954.0,-48.0
5.0,-252.0,-38.0,-7.0,67.0,-3.0,-3.0,-973.0,-45.0
3.0,-248.0,-36.0,-7.0,68.0,-1.0,-3.0,-967.0,-48.0
5.0,-251.0,-44.0,-6.0,70.0,-3.0,-1.0,-954.0,-46.0
10.0,-270.0,-29.0,-4.0,69.0,-1.0,1.0,-970.0,-47.0
4.0,-253.0,-41.0,-4.0,71.0,-3.0,-1.0,-975.0,-50.0
6.0,-254.0,-39.0,-3.0,69.0,-1.0,-3.0,-975.0,-51.0
6.0,-254.0,-34.0,-2.0,68.0,-2.0,2.0,-959.0,-52.0
4.0,-249.0,-36.0,1.0,66.0,-2.0,0.0,-971.0,-51.0
4.0,-252.0,-42.0,3.0,68.0,-2.0,-3.0,-974.0,-45.0
4.0,-253.0,-39.0,5.0,68.0,-1.0,2.0,-971.0,-47.0
0.0,-251.0,-37.0,7.0,69.0,-4.0,0.0,-951.0,-49.0
3.0,-254.0,-38.0,8.0,67.0,-2.0,3.0,-970.0,-50.0
4.0,-251.0,-38.0,7.0,68.0,-4.0,-1.0,-966.0,-50.0
3.0,-250.0,-36.0,5.0,68.0,-3.0,1.0,-955.0,-44.0
-7.0,-249.0,-48.0,4.0,67.0,-5.0,-6.0,-957.0,-43.0
2.0,-252.0,-37.0,1.0,66.0,-1.0,-4.0,-959.0,-44.0
4.0,-253.0,-38.0,-2.0,65.0,-2.0,-4.0,-954.0,-44.0
4.0,-251.0,-39.0,-3.0,65.0,-1.0,-5.0,-971.0,-51.0
5.0,-251.0,-38.0,-2.0,63.0,-3.0,-6.0,-963.0,-45.0
3.0,-253.0,-40.0,-2.0,61.0,-2.0,-4.0,-964.0,-50.0
2.0,-252.0,-40.0,-3.0,61.0,-4.0,-9.0,-957.0,-50.0
2.0,-252.0,-37.0,-4.0,60.0,-1.0,-9.0,-953.0,-51.0
1.0,-252.0,-39.0,-7.0,60.0,-5.0,-4.0,-956.0,-49.0
0.0,-252.0,-43.0,-10.0,60.0,-3.0,-1.0,-953.0,-56.0
-2.0,-251.0,-33.0,-13.0,62.0,-4.0,-3.0,-961.0,-51.0
6.0,-250.0,-42.0,-16.0,64.0,-3.0,-6.0,-954.0,-53.0
5.0,-246.0,-40.0,-18.0,65.0,-4.0,-5.0,-956.0,-57.0
4.0,-249.0,-41.0,-20.0,66.0,-1.0,-6.0,-947.0,-56.0
3.0,-248.0,-36.0,-23.0,65.0,-2.0,-4.0,-953.0,-58.0
5.0,-251.0,-41.0,-25.0,65.0,0.0,-3.0,-948.0,-59.0
5.0,-248.0,-35.0,-29.0,65.0,-3.0,-3.0,-948.0,-55.0
7.0,-252.0,-41.0,-31.0,65.0,1.0,-4.0,-955.0,-57.0
6.0,-252.0,-44.0,-32.0,66.0,-1.0,2.0,-950.0,-54.0
4.0,-251.0,-37.0,-34.0,67.0,0.0,-3.0,-953.0,-60.0
1.0,-252.0,-42.0,-34.0,67.0,-1.0,-4.0,-972.0,-59.0
2.0,-254.0,-46.0,-32.0,65.0,0.0,-3.0,-974.0,-58.0
2.0,-254.0,-41.0,-28.0,68.0,-3.0,-5.0,-978.0,-62.0
2.0,-253.0,-42.0,-20.0,67.0,-1.0,-3.0,-976.0,-59.0
4.0,-252.0,-45.0,-13.0,66.0,-4.0,-4.0,-973.0,-59.0
5.0,-255.0,-42.0,-6.0,65.0,-2.0,1.0,-979.0,-62.0
5.0,-255.0,-39.0,3.0,66.0,-4.0,0.0,-964.0,-60.0
5.0,-252.0,-46.0,9.0,66.0,-2.0,2.0,-963.0,-61.0
7.0,-253.0,-42.0,13.0,66.0,-4.0,4.0,-961.0,-59.0
5.0,-252.0,-42.0,16.0,65.0,-3.0,2.0,-955.0,-61.0
8.0,-254.0,-42.0,15.0,64.0,-5.0,1.0,-952.0,-57.0
4.0,-248.0,-42.0,14.0,63.0,-2.0,2.0,-955.0,-61.0
0.0,-245.0,-53.0,13.0,62.0,-4.0,-1.0,-959.0,-61.0
5.0,-250.0,-40.0,11.0,60.0,-3.0,0.0,-955.0,-64.0
5.0,-251.0,-44.0,7.0,60.0,-5.0,3.0,-955.0,-66.0
3.0,-253.0,-42.0,6.0,58.0,-4.0,-2.0,-955.0,-62.0
4.0,-251.0,-41.0,3.0,59.0,-8.0,-6.0,-950.0,-62.0
2.0,-250.0,-41.0,1.0,57.0,-5.0,-6.0,-952.0,-60.0
3.0,-251.0,-38.0,1.0,56.0,-9.0,-4.0,-955.0,-56.0
1.0,-250.0,-41.0,0.0,54.0,-7.0,-5.0,-958.0,-55.0
1.0,-253.0,-37.0,-1.0,51.0,-9.0,-7.0,-950.0,-55.0
3.0,-251.0,-40.0,-2.0,52.0,-7.0,-5.0,-952.0,-55.0
2.0,-249.0,-37.0,-5.0,49.0,-8.0,-7.0,-950.0,-55.0
3.0,-244.0,-46.0,-7.0,48.0,-4.0,-7.0,-953.0,-50.0
4.0,-249.0,-43.0,-10.0,49.0,-6.0,-9.0,-950.0,-55.0
3.0,-250.0,-40.0,-13.0,49.0,-2.0,-5.0,-951.0,-58.0
2.0,-248.0,-39.0,-18.0,49.0,-2.0,-7.0,-955.0,-54.0
3.0,-253.0,-38.0,-21.0,49.0,2.0,-2.0,-961.0,-57.0
5.0,-255.0,-35.0,-22.0,50.0,-2.0,-3.0,-961.0,-50.0
4.0,-254.0,-38.0,-22.0,49.0,2.0,-1.0,-963.0,-56.0
1.0,-255.0,-40.0,-21.0,50.0,0.0,-1.0,-958.0,-57.0
6.0,-252.0,-44.0,-19.0,51.0,0.0,2.0,-958.0,-52.0
9.0,-251.0,-40.0,-16.0,54.0,-3.0,0.0,-960.0,-55.0
5.0,-254.0,-38.0,-15.0,57.0,-2.0,3.0,-959.0,-50.0
5.0,-244.0,-44.0,-17.0,59.0,-7.0,0.0,-964.0,-54.0
7.0,-251.0,-40.0,-18.0,61.0,-5.0,-4.0,-956.0,-51.0
6.0,-251.0,-36.0,-21.0,62.0,-8.0,3.0,-955.0,-51.0
3.0,-249.0,-40.0,-22.0,61.0,-5.0,-1.0,-953.0,-54.0
1.0,-250.0,-39.0,-25.0,63.0,-7.0,-1.0,-962.0,-52.0
6.0,-251.0,-39.0,-29.0,64.0,-5.0,2.0,-954.0,-53.0
4.0,-249.0,-39.0,-31.0,66.0,-5.0,0.0,-949.0,-50.0
2.0,-252.0,-37.0,-34.0,65.0,-3.0,-2.0,-963.0,-53.0
3.0,-249.0,-37.0,-34.0,63.0,-5.0,-4.0,-964.0,-57.0
4.0,-249.0,-32.0,-33.0,63.0,-2.0,-6.0,-963.0,-51.0
1.0,-253.0,-40.0,-32.0,62.0,-6.0,-9.0,-957.0,-49.0
-6.0,-257.0,-37.0,-27.0,62.0,-4.0,-6.0,-960.0,-53.0
3.0,-254.0,-42.0,-23.0,63.0,-7.0,-2.0,-963.0,-54.0
2.0,-254.0,-37.0,-20.0,62.0,-7.0,-6.0,-975.0,-54.0
2.0,-250.0,-42.0,-14.0,61.0,-10.0,-5.0,-974.0,-53.0
6.0,-252.0,-39.0,-12.0,61.0,-7.0,-3.0,-976.0,-58.0
6.0,-251.0,-38.0,-11.0,59.0,-12.0,-5.0,-968.0,-57.0
3.0,-254.0,-42.0,-7.0,56.0,-11.0,-1.0,-967.0,-59.0
4.0,-252.0,-39.0,-5.0,57.0,-13.0,-2.0,-956.0,-57.0
5.0,-249.0,-39.0,-5.0,56.0,-10.0,-3.0,-956.0,-50.0
1.0,-252.0,-43.0,-5.0,56.0,-11.0,-3.0,-956.0,-53.0
4.0,-251.0,-38.0,-7.0,57.0,-9.0,-4.0,-953.0,-49.0
2.0,-252.0,-31.0,-8.0,58.0,-11.0,-3.0,-952.0,-54.0
4.0,-251.0,-40.0,-11.0,59.0,-7.0,-3.0,-947.0,-47.0
2.0,-249.0,-36.0,-13.0,57.0,-8.0,-3.0,-950.0,-51.0
4.0,-249.0,-37.0,-16.0,56.0,-5.0,-3.0,-946.0,-51.0
4.0,-252.0,-35.0,-19.0,57.0,-5.0,-6.0,-958.0,-55.0
4.0,-251.0,-42.0,-23.0,56.0,-2.0,-1.0,-954.0,-50.0
6.0,-251.0,-39.0,-25.0,56.0,-4.0,-2.0,-954.0,-52.0
3.0,-247.0,-42.0,-29.0,56.0,-2.0,-1.0,-952.0,-58.0
5.0,-254.0,-38.0,-32.0,56.0,-3.0,-3.0,-955.0,-54.0
2.0,-251.0,-41.0,-33.0,55.0,-2.0,-3.0,-958.0,-51.0
2.0,-252.0,-37.0,-32.0,52.0,-4.0,-2.0,-956.0,-48.0
11.0,-254.0,-30.0,-31.0,51.0,-3.0,-1.0,-971.0,-57.0
4.0,-251.0,-39.0,-31.0,52.0,-6.0,-2.0,-956.0,-52.0
7.0,-254.0,-40.0,-31.0,52.0,-4.0,-1.0,-955.0,-54.0
2.0,-252.0,-42.0,-32.0,54.0,-7.0,-1.0,-963.0,-58.0
2.0,-251.0,-39.0,-37.0,54.0,-6.0,-5.0,-952.0,-54.0
4.0,-253.0,-41.0,-44.0,54.0,-9.0,-6.0,-968.0,-49.0
4.0,-254.0,-38.0,-44.0,51.0,-7.0,-6.0,-969.0,-57.0
3.0,-252.0,-44.0,-46.0,50.0,-8.0,-8.0,-970.0,-58.0
5.0,-254.0,-43.0,-44.0,50.0,-7.0,-5.0,-974.0,-59.0
3.0,-255.0,-43.0,-38.0,50.0,-10.0,-5.0,-976.0,-57.0
1.0,-255.0,-37.0,-32.0,50.0,-8.0,-6.0,-967.0,-54.0
8.0,-243.0,-36.0,-25.0,52.0,-10.0,-1.0,-971.0,-59.0
-1.0,-253.0,-39.0,-17.0,52.0,-8.0,-2.0,-962.0,-58.0
5.0,-251.0,-41.0,-9.0,49.0,-11.0,-4.0,-956.0,-59.0
3.0,-251.0,-39.0,-4.0,49.0,-9.0,-2.0,-953.0,-59.0
4.0,-252.0,-42.0,1.0,48.0,-9.0,-1.0,-949.0,-58.0
4.0,-252.0,-42.0,0.0,47.0,-7.0,-2.0,-954.0,-57.0
3.0,-249.0,-40.0,0.0,47.0,-9.0,-4.0,-954.0,-58.0
2.0,-245.0,-37.0,-3.0,45.0,-7.0,-3.0,-946.0,-54.0
5.0,-251.0,-41.0,-5.0,43.0,-7.0,1.0,-952.0,-54.0
3.0,-248.0,-40.0,-10.0,41.0,-5.0,-6.0,-952.0,-57.0
9.0,-242.0,-51.0,-14.0,38.0,-6.0,-2.0,-952.0,-53.0
4.0,-251.0,-40.0,-15.0,38.0,-4.0,-3.0,-955.0,-55.0
4.0,-252.0,-35.0,-16.0,36.0,-5.0,-4.0,-961.0,-49.0
3.0,-255.0,-38.0,-16.0,34.0,-4.0,0.0,-962.0,-53.0
3.0,-250.0,-39.0,-17.0,31.0,-5.0,-2.0,-962.0,-58.0
2.0,-250.0,-41.0,-17.0,30.0,-5.0,-6.0,-958.0,-59.0
3.0,-248.0,-40.0,-18.0,31.0,-6.0,-6.0,-953.0,-58.0
1.0,-249.0,-37.0,-22.0,31.0,-5.0,-2.0,-952.0,-54.0
2.0,-253.0,-40.0,-25.0,32.0,-9.0,-4.0,-948.0,-58.0
4.0,-250.0,-42.0,-30.0,34.0,-4.0,-9.0,-948.0,-55.0
5.0,-251.0,-39.0,-34.0,35.0,-4.0,-3.0,-955.0,-52.0
6.0,-256.0,-38.0,-36.0,36.0,-3.0,-5.0,-950.0,-55.0
2.0,-252.0,-41.0,-39.0,37.0,-2.0,1.0,-964.0,-59.0
3.0,-252.0,-41.0,-37.0,37.0,-1.0,-4.0,-964.0,-59.0
4.0,-253.0,-43.0,-35.0,37.0,-3.0,2.0,-971.0,-60.0
4.0,-254.0,-43.0,-29.0,37.0,-4.0,-4.0,-973.0,-62.0
5.0,-256.0,-41.0,-22.0,36.0,-7.0,1.0,-976.0,-59.0
3.0,-253.0,-40.0,-16.0,37.0,-8.0,0.0,-972.0,-53.0
2.0,-254.0,-36.0,-8.0,37.0,-11.0,2.0,-972.0,-63.0
2.0,-249.0,-34.0,-2.0,36.0,-10.0,-1.0,-963.0,-59.0
8.0,-250.0,-46.0,2.0,34.0,-13.0,-4.0,-967.0,-61.0
6.0,-248.0,-41.0,2.0,36.0,-12.0,-1.0,-962.0,-59.0
15.0,-250.0,-51.0,0.0,36.0,-12.0,-3.0,-963.0,-60.0
3.0,-250.0,-41.0,-1.0,35.0,-12.0,0.0,-954.0,-55.0
6.0,-253.0,-43.0,-4.0,36.0,-14.0,-2.0,-959.0,-59.0
4.0,-250.0,-40.0,-5.0,35.0,-13.0,-3.0,-955.0,-58.0
5.0,-251.0,-40.0,-8.0,38.0,-14.0,1.0,-955.0,-62.0
3.0,-251.0,-43.0,-7.0,41.0,-12.0,2.0,-953.0,-59.0
5.0,-251.0,-40.0,-7.0,43.0,-13.0,-3.0,-953.0,-57.0
4.0,-251.0,-43.0,-7.0,46.0,-11.0,-4.0,-950.0,-59.0
5.0,-250.0,-37.0,-8.0,46.0,-11.0,-3.0,-955.0,-54.0
3.0,-246.0,-42.0,-9.0,46.0,-9.0,-2.0,-954.0,-60.0
6.0,-252.0,-42.0,-12.0,48.0,-9.0,-6.0,-957.0,-58.0
-3.0,-242.0,-51.0,-13.0,48.0,-7.0,-1.0,-956.0,-56.0
2.0,-252.0,-42.0,-14.0,49.0,-8.0,-4.0,-955.0,-59.0
3.0,-247.0,-43.0,-17.0,46.0,-7.0,-3.0,-951.0,-58.0
4.0,-249.0,-41.0,-18.0,44.0,-8.0,-4.0,-955.0,-60.0
3.0,-249.0,-40.0,-19.0,44.0,-9.0,-4.0,-957.0,-58.0
3.0,-251.0,-40.0,-19.0,44.0,-9.0,-1.0,-954.0,-59.0
4.0,-250.0,-40.0,-19.0,43.0,-8.0,-4.0,-962.0,-59.0
2.0,-250.0,-39.0,-20.0,44.0,-9.0,-2.0,-956.0,-56.0
4.0,-252.0,-36.0,-17.0,41.0,-9.0,-1.0,-963.0,-60.0
3.0,-250.0,-42.0,-16.0,41.0,-9.0,0.0,-963.0,-58.0
1.0,-251.0,-39.0,-14.0,42.0,-8.0,1.0,-963.0,-58.0
2.0,-252.0,-37.0,-13.0,42.0,-7.0,-2.0,-973.0,-56.0
10.0,-259.0,-22.0,-11.0,43.0,-6.0,-4.0,-971.0,-56.0
4.0,-253.0,-40.0,-10.0,44.0,-6.0,-3.0,-964.0,-56.0
4.0,-254.0,-42.0,-6.0,45.0,-4.0,-2.0,-957.0,-61.0
5.0,-254.0,-37.0,-5.0,46.0,-5.0,1.0,-972.0,-58.0
7.0,-252.0,-42.0,-3.0,47.0,-4.0,0.0,-957.0,-57.0
6.0,-253.0,-39.0,-1.0,50.0,-6.0,-1.0,-958.0,-55.0
5.0,-247.0,-38.0,1.0,51.0,-6.0,3.0,-953.0,-54.0
7.0,-250.0,-42.0,-1.0,54.0,-6.0,5.0,-950.0,-48.0
4.0,-248.0,-36.0,-3.0,54.0,-6.0,0.0,-947.0,-57.0
4.0,-247.0,-41.0,-5.0,55.0,-7.0,1.0,-951.0,-51.0
3.0,-256.0,-35.0,-10.0,55.0,-7.0,3.0,-947.0,-55.0
8.0,-251.0,-38.0,-13.0,54.0,-7.0,0.0,-953.0,-51.0
6.0,-251.0,-40.0,-18.0,52.0,-5.0,3.0,-958.0,-53.0
5.0,-253.0,-37.0,-20.0,51.0,-8.0,-1.0,-956.0,-54.0
7.0,-251.0,-36.0,-22.0,49.0,-7.0,0.0,-956.0,-53.0
4.0,-250.0,-44.0,-24.0,50.0,-8.0,-1.0,-950.0,-53.0
5.0,-251.0,-42.0,-23.0,51.0,-8.0,-3.0,-964.0,-53.0
6.0,-251.0,-39.0,-22.0,50.0,-8.0,-2.0,-967.0,-54.0
4.0,-254.0,-36.0,-21.0,51.0,-7.0,-5.0,-969.0,-57.0
5.0,-251.0,-42.0,-19.0,51.0,-9.0,-3.0,-972.0,-59.0
7.0,-255.0,-41.0,-16.0,49.0,-8.0,-2.0,-960.0,-55.0
1.0,-238.0,-49.0,-14.0,48.0,-10.0,-3.0,-962.0,-57.0
4.0,-252.0,-38.0,-14.0,49.0,-9.0,-2.0,-967.0,-56.0
3.0,-253.0,-39.0,-13.0,51.0,-10.0,-7.0,-959.0,-56.0
6.0,-254.0,-39.0,-12.0,50.0,-10.0,-2.0,-953.0,-54.0
5.0,-253.0,-41.0,-11.0,52.0,-11.0,-2.0,-956.0,-56.0
3.0,-250.0,-44.0,-12.0,53.0,-11.0,-3.0,-966.0,-58.0
3.0,-254.0,-43.0,-12.0,53.0,-10.0,-1.0,-958.0,-55.0
4.0,-250.0,-40.0,-12.0,54.0,-8.0,-1.0,-965.0,-58.0
8.0,-250.0,-43.0,-11.0,55.0,-9.0,-3.0,-956.0,-59.0
5.0,-252.0,-42.0,-9.0,53.0,-9.0,-2.0,-959.0,-57.0
3.0,-251.0,-43.0,-8.0,53.0,-9.0,-3.0,-968.0,-58.0
3.0,-258.0,-36.0,-7.0,53.0,-10.0,3.0,-969.0,-58.0
7.0,-254.0,-42.0,-5.0,55.0,-10.0,-1.0,-962.0,-60.0
4.0,-252.0,-39.0,-3.0,56.0,-8.0,-2.0,-956.0,-63.0
5.0,-250.0,-42.0,-1.0,59.0,-8.0,-3.0,-957.0,-59.0
2.0,-249.0,-40.0,2.0,59.0,-6.0,-1.0,-957.0,-57.0
3.0,-248.0,-42.0,2.0,60.0,-6.0,-3.0,-955.0,-61.0
4.0,-250.0,-35.0,3.0,60.0,-6.0,-3.0,-953.0,-61.0
4.0,-252.0,-43.0,1.0,58.0,-6.0,1.0,-954.0,-60.0
5.0,-248.0,-40.0,1.0,57.0,-6.0,-2.0,-953.0,-57.0
2.0,-252.0,-39.0,1.0,57.0,-6.0,0.0,-955.0,-57.0
4.0,-253.0,-45.0,-1.0,57.0,-5.0,-2.0,-951.0,-56.0
14.0,-241.0,-44.0,0.0,58.0,-4.0,0.0,-962.0,-59.0
5.0,-253.0,-42.0,1.0,59.0,-6.0,-1.0,-963.0,-60.0
3.0,-250.0,-37.0,1.0,59.0,-7.0,2.0,-963.0,-58.0
5.0,-251.0,-40.0,2.0,60.0,-8.0,1.0,-953.0,-56.0
4.0,-250.0,-37.0,3.0,61.0,-9.0,3.0,-953.0,-57.0
6.0,-250.0,-37.0,5.0,61.0,-10.0,6.0,-952.0,-58.0
5.0,-248.0,-37.0,4.0,59.0,-10.0,6.0,-951.0,-60.0
7.0,-251.0,-38.0,3.0,59.0,-7.0,3.0,-953.0,-56.0
5.0,-255.0,-37.0,2.0,59.0,-7.0,1.0,-951.0,-57.0
4.0,-248.0,-42.0,1.0,59.0,-6.0,-2.0,-955.0,-55.0
-1.0,-249.0,-44.0,0.0,59.0,-7.0,5.0,-956.0,-55.0
19.0,-242.0,-44.0,0.0,59.0,-6.0,-3.0,-958.0,-54.0
4.0,-252.0,-38.0,-1.0,58.0,-3.0,-3.0,-955.0,-54.0
5.0,-251.0,-39.0,0.0,58.0,-3.0,2.0,-957.0,-48.0
1.0,-248.0,-39.0,-2.0,59.0,-2.0,-4.0,-960.0,-53.0
4.0,-252.0,-37.0,-5.0,56.0,-1.0,-5.0,-952.0,-49.0
0.0,-251.0,-37.0,-10.0,56.0,0.0,-2.0,-952.0,-51.0
5.0,-255.0,-37.0,-13.0,57.0,-1.0,-3.0,-957.0,-52.0
4.0,-251.0,-36.0,-16.0,56.0,0.0,-5.0,-954.0,-53.0
5.0,-251.0,-39.0,-16.0,56.0,-1.0,-2.0,-970.0,-54.0
4.0,-249.0,-37.0,-17.0,58.0,-3.0,-4.0,-953.0,-54.0
8.0,-264.0,-32.0,-17.0,59.0,-5.0,0.0,-949.0,-52.0
6.0,-250.0,-43.0,-18.0,60.0,-5.0,2.0,-950.0,-52.0
5.0,-249.0,-40.0,-19.0,61.0,-5.0,4.0,-950.0,-53.0
3.0,-252.0,-39.0,-21.0,61.0,-5.0,-1.0,-954.0,-50.0
3.0,-252.0,-35.0,-23.0,62.0,-6.0,3.0,-953.0,-56.0
5.0,-253.0,-40.0,-23.0,62.0,-4.0,4.0,-961.0,-55.0
5.0,-252.0,-43.0,-24.0,62.0,-5.0,-3.0,-954.0,-58.0
5.0,-250.0,-42.0,-22.0,62.0,-5.0,-1.0,-970.0,-58.0
5.0,-252.0,-46.0,-17.0,62.0,-6.0,3.0,-963.0,-60.0
3.0,-252.0,-38.0,-11.0,64.0,-5.0,-4.0,-972.0,-59.0
0.0,-254.0,-38.0,-5.0,64.0,-5.0,-2.0,-964.0,-56.0
4.0,-241.0,-45.0,0.0,63.0,-5.0,-1.0,-964.0,-56.0
2.0,-254.0,-39.0,3.0,62.0,-4.0,-2.0,-956.0,-59.0
3.0,-250.0,-43.0,6.0,62.0,-3.0,-4.0,-952.0,-56.0
3.0,-252.0,-41.0,7.0,60.0,-4.0,4.0,-956.0,-55.0
4.0,-250.0,-38.0,7.0,61.0,-3.0,-2.0,-952.0,-56.0
5.0,-251.0,-39.0,6.0,60.0,-3.0,-1.0,-950.0,-58.0
3.0,-249.0,-36.0,4.0,59.0,-1.0,-5.0,-961.0,-59.0
3.0,-250.0,-41.0,1.0,60.0,-2.0,0.0,-957.0,-58.0
4.0,-254.0,-40.0,-2.0,61.0,-1.0,-4.0,-953.0,-57.0
5.0,-249.0,-40.0,-2.0,62.0,-2.0,-8.0,-955.0,-57.0
3.0,-253.0,-37.0,-2.0,63.0,-1.0,-3.0,-954.0,-53.0
4.0,-254.0,-41.0,-3.0,62.0,-3.0,-3.0,-953.0,-53.0
-3.0,-255.0,-37.0,-3.0,63.0,-2.0,-2.0,-953.0,-56.0
4.0,-240.0,-51.0,-4.0,62.0,-2.0,-4.0,-962.0,-57.0
6.0,-251.0,-37.0,-7.0,64.0,-1.0,-4.0,-956.0,-53.0
4.0,-250.0,-38.0,-9.0,63.0,-3.0,-3.0,-955.0,-55.0
3.0,-251.0,-40.0,-11.0,63.0,-2.0,1.0,-960.0,-52.0
4.0,-250.0,-38.0,-14.0,61.0,-3.0,4.0,-954.0,-55.0
5.0,-248.0,-41.0,-14.0,62.0,-1.0,-4.0,-954.0,-55.0
8.0,-247.0,-42.0,-15.0,61.0,-2.0,-3.0,-957.0,-57.0
1.0,-250.0,-44.0,-16.0,62.0,0.0,-5.0,-954.0,-58.0
3.0,-249.0,-39.0,-16.0,62.0,-2.0,-3.0,-953.0,-56.0
0.0,-241.0,-41.0,-15.0,62.0,0.0,-1.0,-955.0,-59.0
3.0,-249.0,-40.0,-14.0,62.0,-1.0,-4.0,-958.0,-51.0
3.0,-251.0,-36.0,-12.0,63.0,1.0,-3.0,-954.0,-48.0
4.0,-251.0,-38.0,-10.0,62.0,-1.0,-1.0,-957.0,-54.0
3.0,-253.0,-40.0,-10.0,63.0,-1.0,-3.0,-971.0,-55.0
3.0,-253.0,-39.0,-8.0,64.0,-1.0,0.0,-957.0,-55.0
4.0,-254.0,-35.0,-7.0,63.0,1.0,-1.0,-970.0,-56.0
3.0,-246.0,-36.0,-5.0,65.0,-2.0,-1.0,-966.0,-51.0
0.0,-252.0,-36.0,-1.0,66.0,0.0,-1.0,-970.0,-51.0
4.0,-254.0,-39.0,3.0,68.0,-2.0,0.0,-972.0,-51.0
2.0,-252.0,-38.0,5.0,67.0,-3.0,-3.0,-972.0,-50.0
6.0,-249.0,-42.0,9.0,67.0,-4.0,-3.0,-967.0,-48.0
6.0,-251.0,-37.0,12.0,69.0,-4.0,-3.0,-964.0,-53.0
3.0,-251.0,-40.0,11.0,69.0,-5.0,5.0,-957.0,-50.0
5.0,-252.0,-37.0,10.0,68.0,-2.0,-1.0,-951.0,-50.0
4.0,-249.0,-34.0,5.0,68.0,-5.0,-1.0,-952.0,-50.0
3.0,-251.0,-35.0,2.0,67.0,-2.0,3.0,-951.0,-50.0
6.0,-250.0,-40.0,-3.0,67.0,-1.0,3.0,-949.0,-49.0
3.0,-248.0,-37.0,-5.0,65.0,-1.0,4.0,-949.0,-49.0
7.0,-250.0,-37.0,-9.0,64.0,-3.0,1.0,-953.0,-53.0
4.0,-247.0,-39.0,-9.0,67.0,1.0,3.0,-962.0,-54.0
2.0,-253.0,-41.0,-8.0,68.0,-2.0,1.0,-960.0,-49.0
-6.0,-248.0,-25.0,-8.0,68.0,-1.0,-5.0,-967.0,-53.0
4.0,-252.0,-41.0,-5.0,67.0,-1.0,0.0,-971.0,-54.0
6.0,-251.0,-37.0,-2.0,65.0,0.0,1.0,-966.0,-55.0
5.0,-253.0,-38.0,0.0,65.0,-2.0,-4.0,-972.0,-52.0
6.0,-253.0,-40.0,2.0,64.0,-1.0,-4.0,-968.0,-49.0
3.0,-253.0,-42.0,4.0,66.0,-2.0,1.0,-956.0,-52.0
6.0,-252.0,-37.0,3.0,67.0,-2.0,-5.0,-956.0,-56.0
6.0,-244.0,-34.0,1.0,65.0,-1.0,-3.0,-947.0,-49.0
7.0,-246.0,-34.0,-2.0,66.0,2.0,3.0,-951.0,-47.0
6.0,-252.0,-33.0,-8.0,66.0,3.0,-1.0,-951.0,-47.0
5.0,-250.0,-39.0,-12.0,65.0,4.0,3.0,-953.0,-50.0
-6.0,-254.0,-41.0,-15.0,63.0,3.0,-2.0,-955.0,-52.0
5.0,-253.0,-40.0,-17.0,60.0,4.0,-6.0,-975.0,-55.0
6.0,-255.0,-39.0,-16.0,59.0,0.0,-5.0,-975.0,-57.0
4.0,-254.0,-40.0,-11.0,59.0,-1.0,-3.0,-978.0,-53.0
2.0,-253.0,-40.0,-6.0,60.0,-6.0,-4.0,-976.0,-59.0
3.0,-254.0,-42.0,-2.0,59.0,-6.0,0.0,-969.0,-59.0
2.0,-249.0,-41.0,2.0,58.0,-12.0,0.0,-972.0,-54.0
4.0,-253.0,-40.0,6.0,60.0,-10.0,0.0,-975.0,-58.0
2.0,-252.0,-42.0,10.0,59.0,-12.0,2.0,-955.0,-57.0
3.0,-251.0,-38.0,13.0,59.0,-12.0,-3.0,-950.0,-52.0
6.0,-246.0,-44.0,11.0,58.0,-14.0,1.0,-945.0,-59.0
17.0,-249.0,-46.0,7.0,58.0,-12.0,-2.0,-946.0,-56.0
4.0,-246.0,-39.0,1.0,57.0,-13.0,-1.0,-947.0,-55.0
4.0,-248.0,-38.0,-6.0,54.0,-12.0,-6.0,-943.0,-56.0
4.0,-248.0,-36.0,-14.0,54.0,-13.0,-8.0,-950.0,-51.0
3.0,-249.0,-42.0,-20.0,54.0,-13.0,-6.0,-946.0,-51.0
3.0,-251.0,-41.0,-26.0,54.0,-16.0,-6.0,-954.0,-56.0
2.0,-251.0,-38.0,-33.0,55.0,-15.0,-7.0,-952.0,-52.0
3.0,-253.0,-39.0,-34.0,55.0,-18.0,-7.0,-963.0,-54.0
2.0,-255.0,-40.0,-33.0,55.0,-18.0,-7.0,-971.0,-45.0
0.0,-250.0,-38.0,-31.0,53.0,-20.0,-9.0,-977.0,-48.0
1.0,-255.0,-36.0,-28.0,52.0,-18.0,-6.0,-976.0,-44.0
-1.0,-253.0,-45.0,-24.0,52.0,-20.0,-4.0,-978.0,-47.0
5.0,-254.0,-37.0,-19.0,51.0,-17.0,-4.0,-981.0,-45.0
4.0,-255.0,-34.0,-15.0,49.0,-18.0,-6.0,-974.0,-49.0
3.0,-252.0,-39.0,-9.0,49.0,-17.0,-5.0,-978.0,-49.0
5.0,-253.0,-39.0,-5.0,49.0,-18.0,-7.0,-975.0,-52.0
4.0,-254.0,-40.0,0.0,49.0,-16.0,-5.0,-959.0,-58.0
3.0,-255.0,-38.0,3.0,49.0,-17.0,-5.0,-962.0,-55.0
1.0,-251.0,-38.0,3.0,53.0,-14.0,-7.0,-969.0,-54.0
2.0,-251.0,-41.0,7.0,57.0,-15.0,-7.0,-958.0,-53.0
2.0,-253.0,-42.0,10.0,60.0,-12.0,-8.0,-957.0,-53.0
-1.0,-259.0,-19.0,11.0,61.0,-14.0,-3.0,-954.0,-52.0
4.0,-251.0,-38.0,14.0,62.0,-9.0,-4.0,-958.0,-46.0
3.0,-252.0,-42.0,19.0,61.0,-11.0,-4.0,-954.0,-47.0
3.0,-252.0,-40.0,21.0,61.0,-9.0,-3.0,-956.0,-51.0
1.0,-250.0,-39.0,24.0,59.0,-11.0,-4.0,-961.0,-49.0
1.0,-248.0,-34.0,27.0,58.0,-9.0,-4.0,-950.0,-45.0
3.0,-250.0,-38.0,27.0,57.0,-10.0,-2.0,-959.0,-47.0
2.0,-253.0,-43.0,30.0,55.0,-7.0,-3.0,-958.0,-46.0
3.0,-250.0,-42.0,28.0,56.0,-11.0,-1.0,-950.0,-51.0
1.0,-250.0,-33.0,26.0,54.0,-8.0,-3.0,-953.0,-47.0
13.0,-250.0,-34.0,24.0,55.0,-11.0,1.0,-959.0,-52.0
-1.0,-248.0,-32.0,22.0,55.0,-8.0,0.0,-953.0,-49.0
3.0,-253.0,-36.0,22.0,57.0,-10.0,-1.0,-954.0,-44.0
4.0,-249.0,-36.0,19.0,57.0,-8.0,-3.0,-956.0,-51.0
6.0,-253.0,-42.0,19.0,57.0,-10.0,3.0,-957.0,-49.0
6.0,-253.0,-37.0,17.0,57.0,-8.0,-2.0,-955.0,-50.0
4.0,-251.0,-40.0,13.0,57.0,-10.0,0.0,-956.0,-46.0
3.0,-246.0,-41.0,11.0,57.0,-9.0,6.0,-961.0,-50.0
7.0,-246.0,-39.0,9.0,56.0,-11.0,4.0,-953.0,-53.0
5.0,-249.0,-40.0,5.0,57.0,-10.0,2.0,-960.0,-49.0
6.0,-252.0,-39.0,2.0,56.0,-13.0,-1.0,-964.0,-48.0
6.0,-252.0,-40.0,-1.0,57.0,-11.0,3.0,-967.0,-43.0
5.0,-251.0,-44.0,-3.0,55.0,-15.0,5.0,-959.0,-46.0
5.0,-253.0,-34.0,-1.0,54.0,-14.0,2.0,-968.0,-43.0
6.0,-255.0,-36.0,2.0,55.0,-16.0,7.0,-971.0,-48.0
3.0,-250.0,-37.0,7.0,55.0,-14.0,2.0,-965.0,-45.0
5.0,-250.0,-38.0,9.0,55.0,-15.0,5.0,-963.0,-47.0
4.0,-251.0,-38.0,11.0,54.0,-12.0,4.0,-952.0,-47.0
7.0,-253.0,-38.0,11.0,53.0,-14.0,4.0,-955.0,-44.0
0.0,-251.0,-38.0,10.0,54.0,-10.0,0.0,-954.0,-41.0
6.0,-251.0,-39.0,8.0,52.0,-11.0,4.0,-953.0,-49.0
5.0,-246.0,-38.0,6.0,53.0,-6.0,3.0,-957.0,-48.0
8.0,-248.0,-41.0,5.0,55.0,-7.0,-2.0,-957.0,-47.0
12.0,-253.0,-31.0,3.0,57.0,-3.0,1.0,-954.0,-44.0
5.0,-252.0,-38.0,2.0,54.0,-5.0,1.0,-961.0,-43.0
4.0,-250.0,-39.0,2.0,54.0,-4.0,-3.0,-957.0,-43.0
4.0,-253.0,-36.0,3.0,54.0,-5.0,-3.0,-958.0,-43.0
5.0,-252.0,-36.0,4.0,55.0,-3.0,3.0,-959.0,-44.0
3.0,-252.0,-37.0,7.0,52.0,-4.0,0.0,-953.0,-42.0
6.0,-254.0,-35.0,9.0,51.0,-3.0,2.0,-963.0,-41.0
4.0,-251.0,-36.0,11.0,50.0,-7.0,2.0,-963.0,-40.0
5.0,-252.0,-44.0,14.0,50.0,-4.0,3.0,-962.0,-42.0
5.0,-249.0,-41.0,16.0,47.0,-7.0,-3.0,-957.0,-44.0
3.0,-252.0,-34.0,17.0,46.0,-4.0,-4.0,-958.0,-46.0
8.0,-238.0,-60.0,16.0,46.0,-4.0,4.0,-962.0,-42.0
5.0,-250.0,-38.0,17.0,46.0,-3.0,3.0,-966.0,-43.0
5.0,-250.0,-39.0,19.0,45.0,-5.0,-3.0,-961.0,-45.0
7.0,-254.0,-40.0,19.0,46.0,-3.0,1.0,-965.0,-52.0
5.0,-253.0,-37.0,22.0,48.0,-6.0,6.0,-975.0,-45.0
7.0,-254.0,-44.0,25.0,48.0,-3.0,2.0,-971.0,-46.0
6.0,-252.0,-38.0,27.0,49.0,-6.0,1.0,-970.0,-46.0
6.0,-250.0,-37.0,33.0,51.0,-4.0,0.0,-975.0,-49.0
6.0,-253.0,-36.0,37.0,52.0,-7.0,0.0,-957.0,-51.0
5.0,-250.0,-37.0,43.0,54.0,-5.0,4.0,-966.0,-43.0
6.0,-251.0,-40.0,46.0,54.0,-7.0,3.0,-961.0,-46.0
-6.0,-252.0,-34.0,49.0,55.0,-3.0,2.0,-950.0,-43.0
3.0,-250.0,-41.0,48.0,56.0,-6.0,5.0,-951.0,-46.0
7.0,-249.0,-35.0,46.0,55.0,-3.0,0.0,-951.0,-42.0
8.0,-252.0,-36.0,43.0,56.0,-5.0,3.0,-955.0,-42.0
4.0,-252.0,-35.0,39.0,57.0,-2.0,-2.0,-951.0,-41.0
4.0,-246.0,-38.0,34.0,55.0,-7.0,2.0,-958.0,-42.0
6.0,-251.0,-34.0,33.0,54.0,-2.0,3.0,-954.0,-37.0
4.0,-252.0,-36.0,30.0,55.0,-4.0,-1.0,-956.0,-37.0
6.0,-250.0,-36.0,29.0,54.0,-3.0,0.0,-959.0,-39.0
6.0,-249.0,-38.0,27.0,53.0,-5.0,2.0,-950.0,-37.0
5.0,-252.0,-32.0,26.0,54.0,-3.0,2.0,-961.0,-36.0
0.0,-262.0,-16.0,24.0,53.0,-4.0,1.0,-967.0,-39.0
5.0,-253.0,-40.0,22.0,52.0,-3.0,1.0,-955.0,-43.0
5.0,-251.0,-34.0,20.0,52.0,-7.0,3.0,-951.0,-40.0
5.0,-249.0,-34.0,17.0,52.0,-5.0,2.0,-953.0,-35.0
2.0,-248.0,-34.0,14.0,53.0,-7.0,0.0,-953.0,-34.0
5.0,-250.0,-32.0,12.0,52.0,-5.0,1.0,-954.0,-35.0
3.0,-250.0,-33.0,9.0,52.0,-6.0,0.0,-954.0,-30.0
5.0,-250.0,-38.0,9.0,52.0,-5.0,2.0,-956.0,-32.0
4.0,-254.0,-36.0,9.0,55.0,-7.0,0.0,-959.0,-35.0
4.0,-254.0,-35.0,8.0,57.0,-4.0,4.0,-951.0,-35.0
-2.0,-251.0,-35.0,8.0,57.0,-7.0,-1.0,-963.0,-33.0
5.0,-261.0,-13.0,9.0,57.0,-3.0,-4.0,-949.0,-31.0
3.0,-250.0,-34.0,11.0,57.0,-5.0,2.0,-960.0,-36.0
7.0,-252.0,-35.0,9.0,59.0,-2.0,3.0,-964.0,-32.0
2.0,-246.0,-34.0,7.0,60.0,-3.0,6.0,-952.0,-31.0
6.0,-250.0,-30.0,6.0,60.0,0.0,6.0,-959.0,-34.0
7.0,-254.0,-32.0,5.0,61.0,-2.0,6.0,-957.0,-37.0
6.0,-249.0,-34.0,2.0,60.0,1.0,5.0,-955.0,-36.0
6.0,-251.0,-33.0,-2.0,60.0,-2.0,7.0,-954.0,-38.0
7.0,-251.0,-35.0,-3.0,59.0,-1.0,6.0,-967.0,-31.0
5.0,-247.0,-38.0,-5.0,58.0,-2.0,5.0,-963.0,-36.0
7.0,-251.0,-33.0,-6.0,60.0,-1.0,5.0,-972.0,-36.0
7.0,-258.0,-21.0,-7.0,60.0,-3.0,3.0,-963.0,-36.0
6.0,-254.0,-34.0,-7.0,61.0,-3.0,2.0,-966.0,-33.0
7.0,-254.0,-37.0,-4.0,60.0,-6.0,1.0,-976.0,-35.0
5.0,-254.0,-34.0,-2.0,62.0,-5.0,5.0,-975.0,-34.0
4.0,-252.0,-33.0,4.0,63.0,-8.0,-3.0,-974.0,-35.0
6.0,-254.0,-36.0,8.0,64.0,-8.0,-2.0,-964.0,-37.0
2.0,-251.0,-34.0,12.0,65.0,-11.0,-3.0,-976.0,-41.0
4.0,-250.0,-36.0,15.0,65.0,-8.0,-4.0,-974.0,-39.0
4.0,-253.0,-30.0,20.0,65.0,-10.0,-3.0,-963.0,-36.0
5.0,-249.0,-42.0,22.0,65.0,-8.0,-6.0,-964.0,-43.0
2.0,-251.0,-37.0,25.0,65.0,-10.0,-8.0,-958.0,-41.0
9.0,-255.0,-21.0,26.0,65.0,-7.0,0.0,-952.0,-42.0
2.0,-250.0,-35.0,29.0,69.0,-10.0,-5.0,-962.0,-41.0
1.0,-250.0,-34.0,28.0,70.0,-8.0,-2.0,-962.0,-38.0
0.0,-249.0,-35.0,26.0,72.0,-10.0,-6.0,-966.0,-36.0
4.0,-253.0,-35.0,26.0,72.0,-8.0,-4.0,-958.0,-36.0
6.0,-254.0,-30.0,24.0,74.0,-10.0,-4.0,-969.0,-34.0
1.0,-255.0,-33.0,26.0,78.0,-8.0,-4.0,-964.0,-29.0
3.0,-252.0,-33.0,28.0,79.0,-11.0,-1.0,-961.0,-34.0
2.0,-251.0,-31.0,27.0,80.0,-9.0,0.0,-954.0,-28.0
4.0,-254.0,-26.0,28.0,81.0,-12.0,-5.0,-951.0,-27.0
5.0,-249.0,-32.0,26.0,81.0,-11.0,-1.0,-952.0,-23.0
4.0,-250.0,-33.0,22.0,83.0,-13.0,-1.0,-947.0,-26.0
6.0,-250.0,-35.0,20.0,81.0,-11.0,5.0,-948.0,-27.0
4.0,-249.0,-30.0,17.0,81.0,-12.0,5.0,-951.0,-26.0
5.0,-252.0,-34.0,14.0,79.0,-9.0,7.0,-950.0,-28.0
7.0,-251.0,-37.0,10.0,79.0,-12.0,6.0,-957.0,-31.0
4.0,-255.0,-32.0,7.0,80.0,-11.0,8.0,-965.0,-26.0
9.0,-254.0,-32.0,4.0,81.0,-14.0,3.0,-969.0,-22.0
4.0,-255.0,-31.0,2.0,81.0,-10.0,7.0,-965.0,-25.0
4.0,-254.0,-30.0,4.0,80.0,-13.0,-1.0,-974.0,-23.0
4.0,-250.0,-35.0,7.0,79.0,-10.0,5.0,-979.0,-25.0
2.0,-265.0,-24.0,10.0,77.0,-12.0,3.0,-979.0,-25.0
3.0,-254.0,-34.0,15.0,74.0,-10.0,0.0,-978.0,-28.0
5.0,-251.0,-32.0,22.0,72.0,-13.0,3.0,-960.0,-29.0
4.0,-248.0,-31.0,26.0,71.0,-12.0,4.0,-954.0,-28.0
2.0,-247.0,-30.0,26.0,68.0,-16.0,3.0,-950.0,-25.0
3.0,-249.0,-30.0,21.0,66.0,-15.0,2.0,-937.0,-31.0
6.0,-246.0,-35.0,11.0,66.0,-17.0,1.0,-939.0,-28.0
7.0,-247.0,-31.0,1.0,65.0,-14.0,-1.0,-942.0,-26.0
-1.0,-251.0,-32.0,-8.0,65.0,-16.0,-2.0,-944.0,-23.0
3.0,-247.0,-30.0,-14.0,66.0,-13.0,2.0,-954.0,-24.0
9.0,-254.0,-28.0,-19.0,67.0,-15.0,5.0,-955.0,-18.0
4.0,-253.0,-32.0,-19.0,69.0,-13.0,3.0,-955.0,-26.0
2.0,-254.0,-32.0,-14.0,66.0,-13.0,1.0,-964.0,-19.0
4.0,-252.0,-29.0,-8.0,65.0,-12.0,-3.0,-975.0,-25.0
6.0,-253.0,-32.0,0.0,64.0,-13.0,2.0,-972.0,-28.0
2.0,-255.0,-34.0,6.0,63.0,-11.0,-1.0,-968.0,-32.0
2.0,-251.0,-33.0,11.0,62.0,-13.0,2.0,-972.0,-28.0
4.0,-254.0,-34.0,15.0,62.0,-9.0,-3.0,-966.0,-30.0
3.0,-254.0,-36.0,17.0,60.0,-11.0,0.0,-973.0,-30.0
7.0,-251.0,-37.0,17.0,59.0,-7.0,6.0,-973.0,-32.0
1.0,-253.0,-40.0,16.0,59.0,-11.0,1.0,-963.0,-32.0
4.0,-249.0,-33.0,17.0,61.0,-9.0,1.0,-962.0,-32.0
18.0,-258.0,-29.0,18.0,61.0,-11.0,6.0,-963.0,-29.0
8.0,-253.0,-37.0,18.0,60.0,-9.0,6.0,-954.0,-33.0
5.0,-249.0,-33.0,18.0,61.0,-12.0,7.0,-951.0,-32.0
6.0,-252.0,-34.0,18.0,64.0,-9.0,7.0,-952.0,-32.0
2.0,-249.0,-34.0,16.0,64.0,-10.0,2.0,-953.0,-31.0
5.0,-250.0,-35.0,15.0,62.0,-8.0,7.0,-956.0,-32.0
4.0,-251.0,-29.0,13.0,64.0,-9.0,0.0,-954.0,-30.0
8.0,-251.0,-30.0,7.0,62.0,-8.0,5.0,-949.0,-32.0
1.0,-248.0,-39.0,2.0,63.0,-8.0,0.0,-949.0,-29.0
4.0,-250.0,-38.0,-3.0,63.0,-6.0,0.0,-946.0,-33.0
7.0,-248.0,-23.0,-11.0,63.0,-8.0,-3.0,-947.0,-35.0
4.0,-252.0,-36.0,-20.0,59.0,-5.0,4.0,-949.0,-36.0
4.0,-249.0,-35.0,-28.0,59.0,-5.0,-1.0,-950.0,-31.0
5.0,-250.0,-30.0,-34.0,61.0,-2.0,2.0,-955.0,-29.0
4.0,-251.0,-37.0,-37.0,62.0,-2.0,-1.0,-961.0,-31.0
3.0,-250.0,-33.0,-42.0,61.0,3.0,2.0,-951.0,-26.0
3.0,-250.0,-33.0,-47.0,61.0,3.0,-1.0,-954.0,-30.0
3.0,-250.0,-32.0,-53.0,59.0,10.0,0.0,-956.0,-29.0
3.0,-253.0,-35.0,-58.0,59.0,9.0,3.0,-956.0,-30.0
6.0,-253.0,-34.0,-64.0,59.0,14.0,1.0,-957.0,-36.0
6.0,-251.0,-32.0,-71.0,57.0,14.0,-4.0,-963.0,-37.0
3.0,-255.0,-33.0,-80.0,53.0,19.0,-1.0,-955.0,-39.0
2.0,-266.0,-19.0,-89.0,51.0,20.0,0.0,-971.0,-38.0
5.0,-254.0,-36.0,-99.0,51.0,25.0,-3.0,-969.0,-35.0
3.0,-253.0,-36.0,-111.0,56.0,29.0,0.0,-975.0,-33.0
5.0,-257.0,-31.0,-123.0,59.0,38.0,0.0,-984.0,-31.0
3.0,-256.0,-37.0,-131.0,61.0,42.0,-1.0,-992.0,-26.0
2.0,-255.0,-30.0,-134.0,60.0,51.0,2.0,-997.0,-19.0
5.0,-260.0,-28.0,-132.0,54.0,51.0,-4.0,-1001.0,-15.0
5.0,-261.0,-28.0,-125.0,45.0,53.0,2.0,-1013.0,-17.0
5.0,-260.0,-29.0,-110.0,38.0,48.0,7.0,-1008.0,-12.0
7.0,-262.0,-31.0,-92.0,32.0,42.0,7.0,-1006.0,-21.0
6.0,-260.0,-29.0,-76.0,25.0,34.0,7.0,-1004.0,-25.0
5.0,-260.0,-32.0,-69.0,18.0,31.0,8.0,-999.0,-29.0
5.0,-261.0,-38.0,-66.0,9.0,21.0,4.0,-992.0,-40.0
4.0,-254.0,-39.0,-71.0,2.0,19.0,4.0,-986.0,-40.0
6.0,-255.0,-35.0,-81.0,-5.0,12.0,10.0,-985.0,-42.0
11.0,-255.0,-38.0,-95.0,-11.0,12.0,22.0,-988.0,-38.0
7.0,-258.0,-37.0,-107.0,-16.0,8.0,16.0,-996.0,-43.0
5.0,-265.0,-37.0,-119.0,-22.0,9.0,0.0,-1011.0,-44.0
3.0,-269.0,-35.0,-120.0,-22.0,10.0,-13.0,-1021.0,-46.0
-3.0,-268.0,-40.0,-115.0,-18.0,10.0,-28.0,-1034.0,-54.0
-9.0,-271.0,-43.0,-111.0,-13.0,3.0,-51.0,-1032.0,-61.0
-12.0,-268.0,-48.0,-114.0,-8.0,-9.0,-59.0,-1028.0,-74.0
-1.0,-246.0,-61.0,-121.0,1.0,-32.0,-69.0,-1008.0,-76.0
-3.0,-258.0,-50.0,-136.0,19.0,-57.0,-78.0,-990.0,-95.0
-12.0,-247.0,-56.0,-164.0,51.0,-85.0,-80.0,-954.0,-103.0
-17.0,-238.0,-55.0,-198.0,98.0,-114.0,-91.0,-919.0,-116.0
-18.0,-229.0,-62.0,-251.0,150.0,-135.0,-104.0,-894.0,-143.0
-22.0,-216.0,-63.0,-331.0,202.0,-130.0,-106.0,-864.0,-160.0
-16.0,-209.0,-69.0,-457.0,245.0,-108.0,-91.0,-822.0,-176.0
-14.0,-198.0,-67.0,-571.0,258.0,-79.0,-70.0,-779.0,-175.0
-9.0,-186.0,-67.0,-678.0,244.0,-53.0,-49.0,-727.0,-172.0
-4.0,-172.0,-65.0,-774.0,207.0,-25.0,-30.0,-687.0,-159.0
12.0,-177.0,-54.0,-853.0,152.0,1.0,-3.0,-671.0,-131.0
12.0,-179.0,-53.0,-917.0,89.0,33.0,28.0,-689.0,-109.0
17.0,-191.0,-48.0,-976.0,25.0,60.0,56.0,-725.0,-90.0
18.0,-198.0,-45.0,-1028.0,-32.0,88.0,62.0,-784.0,-65.0
20.0,-217.0,-38.0,-1072.0,-80.0,102.0,66.0,-849.0,-59.0
22.0,-235.0,-37.0,-1110.0,-109.0,110.0,66.0,-903.0,-51.0
24.0,-251.0,-35.0,-1157.0,-125.0,109.0,71.0,-973.0,-45.0
24.0,-261.0,-34.0,-1195.0,-119.0,104.0,73.0,-1020.0,-28.0
21.0,-273.0,-34.0,-1224.0,-99.0,92.0,79.0,-1054.0,-29.0
27.0,-282.0,-34.0,-1244.0,-69.0,81.0,83.0,-1074.0,-26.0
29.0,-282.0,-32.0,-1258.0,-36.0,68.0,87.0,-1094.0,-26.0
21.0,-286.0,-21.0,-1264.0,3.0,61.0,107.0,-1101.0,-16.0
41.0,-284.0,-28.0,-1258.0,51.0,53.0,128.0,-1085.0,-6.0
44.0,-276.0,-26.0,-1243.0,102.0,50.0,147.0,-1049.0,-7.0
47.0,-260.0,-27.0,-1228.0,145.0,48.0,156.0,-997.0,-11.0
43.0,-241.0,-19.0,-1226.0,179.0,55.0,152.0,-937.0,-5.0
38.0,-229.0,-19.0,-1248.0,184.0,67.0,139.0,-884.0,9.0
34.0,-210.0,-18.0,-1300.0,168.0,84.0,112.0,-826.0,22.0
22.0,-200.0,-14.0,-1382.0,143.0,98.0,82.0,-778.0,35.0
16.0,-191.0,-10.0,-1496.0,119.0,108.0,50.0,-744.0,59.0
5.0,-183.0,-2.0,-1630.0,91.0,109.0,21.0,-725.0,89.0
-3.0,-187.0,6.0,-1773.0,58.0,112.0,-4.0,-731.0,142.0
5.0,-203.0,27.0,-1915.0,5.0,115.0,-21.0,-763.0,178.0
-12.0,-206.0,29.0,-2033.0,-62.0,126.0,-33.0,-808.0,212.0
-9.0,-225.0,30.0,-2120.0,-142.0,141.0,-34.0,-849.0,216.0
-8.0,-235.0,32.0,-2208.0,-225.0,155.0,-17.0,-895.0,221.0
2.0,-244.0,30.0,-2257.0,-294.0,168.0,4.0,-948.0,233.0
3.0,-257.0,33.0,-2275.0,-366.0,178.0,20.0,-988.0,225.0
7.0,-264.0,35.0,-2268.0,-437.0,181.0,29.0,-1025.0,216.0
16.0,-277.0,30.0,-2248.0,-494.0,178.0,49.0,-1066.0,219.0
25.0,-290.0,30.0,-2212.0,-527.0,168.0,85.0,-1108.0,229.0
35.0,-302.0,34.0,-2163.0,-535.0,152.0,107.0,-1144.0,219.0
37.0,-329.0,43.0,-2109.0,-516.0,133.0,135.0,-1192.0,209.0
43.0,-322.0,21.0,-2068.0,-494.0,113.0,155.0,-1225.0,189.0
41.0,-324.0,13.0,-2056.0,-495.0,82.0,153.0,-1254.0,145.0
36.0,-322.0,-5.0,-2110.0,-536.0,52.0,126.0,-1255.0,74.0
22.0,-324.0,-29.0,-2219.0,-596.0,24.0,84.0,-1254.0,-1.0
0.0,-316.0,-59.0,-2362.0,-666.0,10.0,5.0,-1243.0,-98.0
-15.0,-304.0,-89.0,-2519.0,-751.0,5.0,-64.0,-1204.0,-255.0
-42.0,-291.0,-123.0,-2658.0,-831.0,10.0,-184.0,-1128.0,-376.0
-62.0,-281.0,-141.0,-2736.0,-890.0,37.0,-276.0,-1087.0,-483.0
-68.0,-289.0,-167.0,-2723.0,-910.0,73.0,-285.0,-1093.0,-557.0
-55.0,-313.0,-172.0,-2609.0,-887.0,102.0,-254.0,-1176.0,-580.0
-40.0,-339.0,-180.0,-2396.0,-832.0,120.0,-176.0,-1278.0,-649.0
-14.0,-367.0,-212.0,-2125.0,-755.0,125.0,-112.0,-1376.0,-743.0
-5.0,-384.0,-245.0,-1799.0,-694.0,129.0,-69.0,-1442.0,-868.0
-4.0,-406.0,-282.0,-1571.0,-617.0,105.0,-91.0,-1532.0,-1009.0
2.0,-426.0,-316.0,-1407.0,-523.0,81.0,-84.0,-1615.0,-1142.0
8.0,-437.0,-333.0,-1292.0,-402.0,76.0,-59.0,-1664.0,-1239.0
-3.0,-437.0,-335.0,-1152.0,-251.0,69.0,-78.0,-1642.0,-1250.0
-8.0,-429.0,-322.0,-926.0,-97.0,40.0,-100.0,-1628.0,-1219.0
-18.0,-421.0,-306.0,-630.0,50.0,-7.0,-142.0,-1588.0,-1138.0
-24.0,-417.0,-296.0,-291.0,180.0,-68.0,-170.0,-1547.0,-1102.0
-30.0,-401.0,-291.0,37.0,277.0,-131.0,-185.0,-1507.0,-1064.0
-35.0,-385.0,-276.0,320.0,341.0,-202.0,-190.0,-1462.0,-1028.0
-40.0,-374.0,-270.0,585.0,352.0,-254.0,-195.0,-1418.0,-1003.0
-48.0,-354.0,-272.0,735.0,334.0,-296.0,-229.0,-1366.0,-1012.0
-47.0,-343.0,-280.0,816.0,296.0,-307.0,-235.0,-1337.0,-1026.0
-46.0,-339.0,-285.0,852.0,252.0,-291.0,-219.0,-1318.0,-1048.0
-38.0,-330.0,-294.0,869.0,216.0,-265.0,-189.0,-1298.0,-1078.0
-26.0,-325.0,-299.0,882.0,196.0,-245.0,-184.0,-1265.0,-1106.0
-32.0,-328.0,-314.0,891.0,188.0,-232.0,-195.0,-1271.0,-1132.0
-35.0,-329.0,-315.0,893.0,183.0,-214.0,-184.0,-1268.0,-1158.0
-28.0,-332.0,-314.0,887.0,174.0,-193.0,-190.0,-1300.0,-1158.0
-30.0,-346.0,-310.0,889.0,153.0,-161.0,-195.0,-1349.0,-1148.0
-31.0,-357.0,-309.0,896.0,122.0,-129.0,-185.0,-1388.0,-1133.0
-28.0,-370.0,-299.0,900.0,89.0,-103.0,-167.0,-1434.0,-1118.0
-20.0,-380.0,-290.0,907.0,61.0,-81.0,-144.0,-1467.0,-1084.0
-11.0,-389.0,-279.0,921.0,36.0,-63.0,-115.0,-1495.0,-1042.0
-1.0,-393.0,-269.0,956.0,31.0,-48.0,-69.0,-1507.0,-1008.0
7.0,-394.0,-260.0,1014.0,52.0,-40.0,-36.0,-1514.0,-949.0
11.0,-393.0,-248.0,1083.0,83.0,-28.0,-17.0,-1502.0,-907.0
13.0,-386.0,-232.0,1154.0,113.0,-12.0,-6.0,-1483.0,-850.0
12.0,-378.0,-219.0,1219.0,145.0,3.0,-3.0,-1469.0,-785.0
-4.0,-378.0,-193.0,1285.0,173.0,10.0,-14.0,-1422.0,-736.0
5.0,-356.0,-197.0,1318.0,182.0,17.0,-18.0,-1394.0,-697.0
-3.0,-348.0,-190.0,1322.0,186.0,30.0,-44.0,-1361.0,-665.0
-2.0,-342.0,-181.0,1298.0,192.0,44.0,-58.0,-1323.0,-623.0
-11.0,-333.0,-171.0,1255.0,194.0,53.0,-73.0,-1306.0,-585.0
-10.0,-330.0,-165.0,1198.0,199.0,62.0,-81.0,-1293.0,-550.0
-14.0,-329.0,-159.0,1128.0,199.0,76.0,-93.0,-1275.0,-527.0
-18.0,-329.0,-157.0,1042.0,204.0,92.0,-105.0,-1292.0,-511.0
-13.0,-333.0,-148.0,936.0,209.0,103.0,-96.0,-1296.0,-494.0
-13.0,-333.0,-140.0,821.0,209.0,101.0,-94.0,-1309.0,-459.0
-10.0,-351.0,-118.0,694.0,211.0,92.0,-88.0,-1324.0,-430.0
5.0,-353.0,-124.0,617.0,223.0,77.0,-64.0,-1343.0,-406.0
-7.0,-351.0,-120.0,559.0,236.0,64.0,-66.0,-1359.0,-375.0
-9.0,-355.0,-114.0,528.0,251.0,56.0,-60.0,-1371.0,-355.0
-7.0,-361.0,-116.0,516.0,259.0,56.0,-57.0,-1386.0,-354.0
-7.0,-361.0,-120.0,504.0,255.0,62.0,-59.0,-1383.0,-364.0
-12.0,-357.0,-123.0,494.0,245.0,78.0,-79.0,-1384.0,-393.0
-10.0,-354.0,-135.0,483.0,243.0,106.0,-78.0,-1374.0,-410.0
-9.0,-356.0,-136.0,470.0,257.0,144.0,-66.0,-1374.0,-441.0
-8.0,-351.0,-141.0,454.0,289.0,179.0,-56.0,-1372.0,-470.0
-7.0,-359.0,-142.0,456.0,321.0,200.0,-53.0,-1387.0,-481.0
-10.0,-363.0,-141.0,476.0,336.0,187.0,-59.0,-1390.0,-485.0
-5.0,-364.0,-136.0,530.0,344.0,164.0,-49.0,-1381.0,-452.0
-1.0,-355.0,-129.0,637.0,355.0,136.0,-44.0,-1359.0,-427.0
-3.0,-348.0,-124.0,790.0,379.0,108.0,-40.0,-1325.0,-408.0
-3.0,-334.0,-122.0,959.0,418.0,88.0,-37.0,-1286.0,-393.0
1.0,-323.0,-117.0,1120.0,459.0,70.0,-34.0,-1228.0,-369.0
-1.0,-304.0,-119.0,1264.0,500.0,45.0,-31.0,-1162.0,-369.0
1.0,-290.0,-118.0,1362.0,544.0,25.0,-19.0,-1115.0,-365.0
1.0,-267.0,-111.0,1385.0,559.0,-6.0,-15.0,-1026.0,-353.0
4.0,-251.0,-110.0,1350.0,563.0,-37.0,1.0,-969.0,-335.0
7.0,-230.0,-99.0,1292.0,561.0,-64.0,3.0,-891.0,-298.0
14.0,-202.0,-114.0,1229.0,558.0,-73.0,12.0,-838.0,-321.0
9.0,-198.0,-105.0,1119.0,554.0,-72.0,14.0,-790.0,-309.0
7.0,-191.0,-93.0,989.0,555.0,-65.0,-4.0,-743.0,-283.0
4.0,-181.0,-87.0,878.0,547.0,-57.0,-16.0,-694.0,-262.0
-6.0,-168.0,-81.0,785.0,536.0,-38.0,-35.0,-644.0,-232.0
-10.0,-158.0,-79.0,716.0,531.0,-14.0,-43.0,-636.0,-230.0
-16.0,-147.0,-78.0,638.0,519.0,25.0,-80.0,-581.0,-207.0
-14.0,-138.0,-66.0,598.0,522.0,49.0,-60.0,-544.0,-182.0
-19.0,-125.0,-59.0,595.0,503.0,49.0,-96.0,-475.0,-128.0
-26.0,-119.0,-59.0,627.0,466.0,58.0,-109.0,-445.0,-157.0
-24.0,-107.0,-65.0,632.0,431.0,74.0,-120.0,-395.0,-154.0
-28.0,-96.0,-63.0,619.0,408.0,71.0,-113.0,-357.0,-157.0
-23.0,-84.0,-62.0,593.0,394.0,57.0,-113.0,-308.0,-149.0
-26.0,-68.0,-63.0,580.0,398.0,31.0,-118.0,-262.0,-141.0
-23.0,-59.0,-57.0,563.0,413.0,5.0,-111.0,-232.0,-128.0
-23.0,-47.0,-52.0,535.0,428.0,-22.0,-104.0,-189.0,-109.0
-23.0,-30.0,-46.0,502.0,438.0,-38.0,-122.0,-115.0,-87.0
-16.0,-32.0,-46.0,496.0,453.0,-50.0,-84.0,-120.0,-78.0
-16.0,-19.0,-41.0,494.0,460.0,-91.0,-87.0,-76.0,-61.0
-18.0,-7.0,-40.0,497.0,464.0,-132.0,-80.0,-36.0,-50.0
-12.0,6.0,-37.0,506.0,467.0,-164.0,-63.0,22.0,-51.0
-13.0,13.0,-31.0,525.0,471.0,-190.0,-47.0,69.0,-35.0
-8.0,21.0,-26.0,550.0,472.0,-207.0,-31.0,85.0,-59.0
0.0,27.0,-48.0,556.0,477.0,-220.0,-7.0,111.0,-82.0
2.0,41.0,-38.0,540.0,491.0,-231.0,-2.0,159.0,-65.0
3.0,45.0,-45.0,534.0,510.0,-229.0,5.0,191.0,-74.0
1.0,55.0,-47.0,515.0,511.0,-209.0,-8.0,214.0,-96.0
-1.0,60.0,-52.0,475.0,518.0,-184.0,-7.0,230.0,-93.0
2.0,63.0,-56.0,418.0,517.0,-155.0,-2.0,227.0,-114.0
1.0,62.0,-53.0,337.0,514.0,-127.0,-5.0,224.0,-128.0
2.0,62.0,-52.0,237.0,508.0,-96.0,4.0,221.0,-101.0
5.0,47.0,-56.0,123.0,496.0,-67.0,16.0,160.0,-133.0
-1.0,30.0,-54.0,-27.0,478.0,-42.0,-1.0,99.0,-113.0
6.0,21.0,-51.0,-179.0,444.0,-14.0,6.0,44.0,-99.0
-7.0,-1.0,-49.0,-304.0,389.0,7.0,-15.0,1.0,-93.0
-16.0,-15.0,-45.0,-392.0,293.0,-2.0,-42.0,-47.0,-90.0
-20.0,-23.0,-49.0,-425.0,195.0,-18.0,-76.0,-85.0,-98.0
-27.0,-32.0,-53.0,-428.0,94.0,-33.0,-97.0,-115.0,-115.0
-26.0,-37.0,-59.0,-398.0,6.0,-52.0,-123.0,-127.0,-134.0
-26.0,-43.0,-66.0,-352.0,-64.0,-76.0,-117.0,-152.0,-161.0
-29.0,-44.0,-68.0,-306.0,-119.0,-88.0,-123.0,-162.0,-175.0
-27.0,-45.0,-69.0,-263.0,-160.0,-103.0,-126.0,-162.0,-189.0
-29.0,-44.0,-81.0,-235.0,-193.0,-112.0,-118.0,-181.0,-226.0
-17.0,-55.0,-92.0,-241.0,-213.0,-118.0,-101.0,-190.0,-270.0
-13.0,-61.0,-78.0,-279.0,-218.0,-121.0,-70.0,-207.0,-270.0
-9.0,-35.0,-79.0,-295.0,-207.0,-121.0,-43.0,-130.0,-227.0
-1.0,-39.0,-88.0,-232.0,-201.0,-123.0,-15.0,-120.0,-228.0
-2.0,-47.0,-100.0,-152.0,-197.0,-151.0,-33.0,-175.0,-294.0
-11.0,-55.0,-117.0,-156.0,-187.0,-181.0,-46.0,-229.0,-376.0
-6.0,-60.0,-116.0,-224.0,-182.0,-194.0,-36.0,-242.0,-375.0
-3.0,-72.0,-125.0,-290.0,-202.0,-172.0,-19.0,-299.0,-384.0
-3.0,-85.0,-116.0,-356.0,-242.0,-145.0,-26.0,-340.0,-356.0
1.0,-112.0,-117.0,-409.0,-277.0,-121.0,-14.0,-439.0,-372.0
3.0,-119.0,-126.0,-486.0,-299.0,-110.0,-13.0,-498.0,-400.0
8.0,-142.0,-129.0,-583.0,-294.0,-117.0,-15.0,-557.0,-443.0
4.0,-163.0,-141.0,-654.0,-261.0,-129.0,-14.0,-641.0,-469.0
7.0,-186.0,-130.0,-699.0,-210.0,-143.0,-14.0,-710.0,-428.0
9.0,-216.0,-131.0,-673.0,-147.0,-158.0,-2.0,-814.0,-423.0
14.0,-244.0,-123.0,-609.0,-81.0,-163.0,6.0,-912.0,-405.0
17.0,-263.0,-125.0,-512.0,-20.0,-164.0,30.0,-990.0,-391.0
23.0,-286.0,-136.0,-398.0,36.0,-173.0,47.0,-1078.0,-436.0
27.0,-303.0,-156.0,-321.0,84.0,-192.0,60.0,-1155.0,-511.0
32.0,-316.0,-171.0,-288.0,119.0,-213.0,84.0,-1215.0,-591.0
32.0,-323.0,-187.0,-313.0,142.0,-253.0,88.0,-1253.0,-666.0
34.0,-326.0,-194.0,-397.0,157.0,-281.0,84.0,-1247.0,-692.0
24.0,-322.0,-203.0,-449.0,166.0,-294.0,76.0,-1252.0,-700.0
30.0,-330.0,-195.0,-455.0,173.0,-284.0,69.0,-1258.0,-690.0
25.0,-328.0,-181.0,-404.0,176.0,-267.0,51.0,-1242.0,-646.0
19.0,-321.0,-167.0,-287.0,174.0,-238.0,43.0,-1223.0,-586.0
16.0,-314.0,-161.0,-124.0,154.0,-204.0,30.0,-1183.0,-538.0
14.0,-303.0,-147.0,60.0,120.0,-157.0,27.0,-1142.0,-486.0
9.0,-288.0,-132.0,232.0,79.0,-101.0,21.0,-1096.0,-452.0
14.0,-269.0,-132.0,358.0,42.0,-39.0,21.0,-1046.0,-428.0
12.0,-254.0,-130.0,418.0,10.0,28.0,30.0,-1003.0,-423.0
15.0,-239.0,-131.0,405.0,-11.0,83.0,25.0,-943.0,-433.0
11.0,-230.0,-133.0,336.0,-29.0,127.0,25.0,-903.0,-431.0
10.0,-233.0,-125.0,231.0,-47.0,166.0,24.0,-887.0,-439.0
12.0,-225.0,-131.0,108.0,-65.0,192.0,28.0,-880.0,-436.0
14.0,-225.0,-129.0,-9.0,-84.0,214.0,32.0,-892.0,-425.0
19.0,-238.0,-128.0,-109.0,-98.0,218.0,44.0,-910.0,-427.0
22.0,-241.0,-133.0,-189.0,-94.0,208.0,55.0,-941.0,-431.0
26.0,-248.0,-129.0,-247.0,-73.0,171.0,62.0,-952.0,-421.0
27.0,-255.0,-126.0,-273.0,-35.0,123.0,66.0,-975.0,-412.0
27.0,-256.0,-119.0,-261.0,21.0,57.0,73.0,-978.0,-390.0
25.0,-252.0,-115.0,-216.0,74.0,9.0,68.0,-972.0,-368.0
25.0,-251.0,-110.0,-141.0,127.0,-39.0,61.0,-954.0,-339.0
16.0,-247.0,-102.0,-47.0,179.0,-73.0,42.0,-938.0,-301.0
8.0,-247.0,-82.0,56.0,223.0,-101.0,16.0,-911.0,-277.0
1.0,-238.0,-85.0,156.0,255.0,-116.0,-10.0,-889.0,-249.0
-4.0,-230.0,-81.0,237.0,271.0,-127.0,-33.0,-873.0,-217.0
-13.0,-219.0,-74.0,294.0,273.0,-127.0,-56.0,-853.0,-196.0
-14.0,-219.0,-68.0,327.0,262.0,-126.0,-76.0,-839.0,-182.0
-16.0,-215.0,-69.0,335.0,245.0,-115.0,-90.0,-825.0,-168.0
-19.0,-211.0,-66.0,316.0,220.0,-109.0,-100.0,-824.0,-160.0
-25.0,-211.0,-64.0,288.0,196.0,-93.0,-103.0,-815.0,-149.0
-23.0,-209.0,-59.0,258.0,164.0,-76.0,-117.0,-807.0,-141.0
-27.0,-206.0,-59.0,230.0,120.0,-50.0,-121.0,-800.0,-144.0
-33.0,-208.0,-61.0,206.0,64.0,-26.0,-130.0,-804.0,-147.0
-36.0,-209.0,-71.0,181.0,-1.0,6.0,-128.0,-815.0,-147.0
-27.0,-214.0,-64.0,151.0,-69.0,29.0,-121.0,-825.0,-164.0
-21.0,-219.0,-70.0,116.0,-131.0,50.0,-94.0,-846.0,-180.0
-16.0,-224.0,-74.0,73.0,-182.0,58.0,-74.0,-866.0,-200.0
-8.0,-228.0,-81.0,21.0,-225.0,58.0,-42.0,-883.0,-230.0
-1.0,-231.0,-84.0,-50.0,-245.0,43.0,-22.0,-897.0,-243.0
6.0,-237.0,-91.0,-106.0,-256.0,27.0,-1.0,-906.0,-264.0
13.0,-240.0,-89.0,-150.0,-261.0,5.0,2.0,-923.0,-269.0
9.0,-249.0,-91.0,-172.0,-259.0,-11.0,6.0,-937.0,-273.0
10.0,-247.0,-93.0,-173.0,-258.0,-28.0,20.0,-942.0,-285.0
15.0,-247.0,-98.0,-163.0,-254.0,-34.0,22.0,-953.0,-288.0
8.0,-246.0,-107.0,-146.0,-248.0,-39.0,27.0,-969.0,-304.0
16.0,-251.0,-102.0,-129.0,-234.0,-37.0,30.0,-967.0,-313.0
20.0,-254.0,-108.0,-110.0,-214.0,-38.0,43.0,-975.0,-317.0
17.0,-255.0,-105.0,-93.0,-183.0,-35.0,45.0,-980.0,-321.0
20.0,-256.0,-107.0,-75.0,-151.0,-37.0,53.0,-985.0,-313.0
19.0,-254.0,-103.0,-58.0,-117.0,-32.0,55.0,-986.0,-314.0
20.0,-255.0,-102.0,-42.0,-86.0,-31.0,48.0,-988.0,-305.0
19.0,-255.0,-106.0,-27.0,-61.0,-23.0,44.0,-987.0,-317.0
15.0,-255.0,-110.0,-14.0,-45.0,-17.0,37.0,-980.0,-321.0
17.0,-254.0,-109.0,-10.0,-35.0,-8.0,39.0,-983.0,-333.0
17.0,-255.0,-112.0,-13.0,-24.0,-4.0,35.0,-986.0,-343.0
24.0,-266.0,-103.0,-21.0,-8.0,-2.0,41.0,-983.0,-362.0
17.0,-251.0,-118.0,-35.0,12.0,-10.0,41.0,-979.0,-369.0
20.0,-253.0,-118.0,-51.0,37.0,-17.0,45.0,-975.0,-376.0
18.0,-251.0,-115.0,-54.0,57.0,-31.0,39.0,-968.0,-366.0
15.0,-250.0,-108.0,-44.0,67.0,-42.0,36.0,-954.0,-342.0
14.0,-255.0,-107.0,-14.0,65.0,-53.0,25.0,-946.0,-312.0
11.0,-246.0,-94.0,29.0,59.0,-57.0,17.0,-942.0,-292.0
10.0,-245.0,-98.0,80.0,43.0,-64.0,4.0,-935.0,-275.0
1.0,-244.0,-89.0,123.0,30.0,-62.0,0.0,-919.0,-266.0
2.0,-236.0,-90.0,157.0,15.0,-64.0,-4.0,-907.0,-254.0
10.0,-239.0,-89.0,172.0,3.0,-61.0,-10.0,-901.0,-251.0
0.0,-231.0,-85.0,175.0,-8.0,-58.0,-16.0,-900.0,-237.0
1.0,-233.0,-81.0,166.0,-13.0,-53.0,-13.0,-902.0,-229.0
-1.0,-234.0,-82.0,151.0,-15.0,-52.0,-18.0,-894.0,-224.0
1.0,-234.0,-78.0,137.0,-18.0,-45.0,-17.0,-897.0,-219.0
0.0,-238.0,-76.0,125.0,-19.0,-43.0,-18.0,-898.0,-213.0
-4.0,-235.0,-78.0,117.0,-24.0,-37.0,-25.0,-895.0,-220.0
1.0,-238.0,-77.0,114.0,-30.0,-35.0,-28.0,-904.0,-213.0
-3.0,-235.0,-75.0,112.0,-37.0,-30.0,-28.0,-919.0,-215.0
-2.0,-242.0,-78.0,109.0,-47.0,-32.0,-19.0,-914.0,-223.0
5.0,-239.0,-78.0,101.0,-53.0,-31.0,-14.0,-915.0,-236.0
13.0,-248.0,-93.0,90.0,-49.0,-37.0,-7.0,-919.0,-241.0
7.0,-241.0,-84.0,70.0,-42.0,-37.0,7.0,-922.0,-256.0
10.0,-238.0,-88.0,50.0,-30.0,-44.0,11.0,-923.0,-252.0
11.0,-239.0,-86.0,34.0,-20.0,-44.0,24.0,-918.0,-245.0
15.0,-240.0,-84.0,24.0,-8.0,-49.0,35.0,-915.0,-235.0
16.0,-240.0,-82.0,20.0,2.0,-47.0,43.0,-912.0,-225.0
19.0,-239.0,-81.0,21.0,9.0,-45.0,47.0,-911.0,-219.0
19.0,-239.0,-78.0,24.0,16.0,-37.0,53.0,-903.0,-215.0
21.0,-236.0,-78.0,23.0,19.0,-32.0,56.0,-899.0,-212.0
16.0,-231.0,-76.0,14.0,22.0,-20.0,56.0,-900.0,-216.0
18.0,-234.0,-78.0,-5.0,23.0,-14.0,54.0,-897.0,-217.0
15.0,-230.0,-95.0,-25.0,23.0,-3.0,50.0,-897.0,-215.0
18.0,-235.0,-80.0,-43.0,23.0,3.0,43.0,-902.0,-212.0
19.0,-237.0,-76.0,-57.0,26.0,14.0,49.0,-902.0,-209.0
16.0,-237.0,-80.0,-72.0,29.0,19.0,44.0,-907.0,-210.0
15.0,-239.0,-76.0,-85.0,30.0,26.0,40.0,-912.0,-211.0
16.0,-242.0,-79.0,-97.0,30.0,28.0,38.0,-920.0,-213.0
13.0,-245.0,-82.0,-103.0,29.0,31.0,41.0,-930.0,-224.0
16.0,-246.0,-80.0,-110.0,32.0,27.0,33.0,-936.0,-235.0
15.0,-247.0,-89.0,-109.0,35.0,26.0,28.0,-943.0,-243.0
13.0,-249.0,-92.0,-107.0,40.0,19.0,29.0,-950.0,-242.0
10.0,-252.0,-89.0,-106.0,46.0,13.0,20.0,-955.0,-261.0
17.0,-239.0,-106.0,-102.0,56.0,3.0,14.0,-973.0,-265.0
11.0,-253.0,-91.0,-93.0,63.0,-2.0,10.0,-980.0,-276.0
8.0,-253.0,-90.0,-84.0,75.0,-13.0,6.0,-975.0,-271.0
9.0,-254.0,-91.0,-73.0,87.0,-18.0,9.0,-970.0,-270.0
7.0,-252.0,-91.0,-59.0,99.0,-25.0,-3.0,-976.0,-271.0
8.0,-252.0,-90.0,-41.0,110.0,-24.0,3.0,-957.0,-269.0
5.0,-254.0,-91.0,-24.0,117.0,-27.0,-4.0,-969.0,-255.0
8.0,-253.0,-92.0,-5.0,122.0,-22.0,-3.0,-956.0,-254.0
5.0,-253.0,-87.0,21.0,125.0,-23.0,0.0,-953.0,-259.0
8.0,-251.0,-85.0,35.0,130.0,-19.0,-2.0,-951.0,-253.0
7.0,-248.0,-97.0,43.0,131.0,-19.0,3.0,-951.0,-253.0
9.0,-248.0,-80.0,46.0,132.0,-15.0,4.0,-944.0,-255.0
6.0,-244.0,-85.0,44.0,134.0,-16.0,2.0,-946.0,-251.0
4.0,-244.0,-86.0,41.0,135.0,-15.0,-1.0,-946.0,-238.0
4.0,-247.0,-87.0,39.0,135.0,-18.0,-3.0,-943.0,-234.0
4.0,-248.0,-84.0,41.0,132.0,-17.0,-4.0,-938.0,-229.0
5.0,-245.0,-81.0,48.0,129.0,-20.0,-2.0,-931.0,-229.0
4.0,-244.0,-81.0,60.0,123.0,-19.0,-3.0,-934.0,-223.0
8.0,-244.0,-80.0,69.0,117.0,-23.0,-8.0,-930.0,-226.0
3.0,-242.0,-81.0,79.0,108.0,-23.0,-9.0,-928.0,-217.0
2.0,-243.0,-77.0,87.0,97.0,-27.0,-13.0,-928.0,-210.0
2.0,-245.0,-78.0,94.0,83.0,-27.0,-14.0,-929.0,-206.0
9.0,-237.0,-82.0,101.0,69.0,-32.0,-23.0,-927.0,-210.0
-2.0,-244.0,-74.0,105.0,55.0,-29.0,-20.0,-927.0,-215.0
-2.0,-243.0,-73.0,107.0,43.0,-30.0,-27.0,-927.0,-215.0
-2.0,-244.0,-80.0,107.0,29.0,-28.0,-30.0,-928.0,-216.0
-3.0,-244.0,-78.0,108.0,13.0,-29.0,-31.0,-930.0,-217.0
-4.0,-241.0,-77.0,106.0,-6.0,-25.0,-30.0,-930.0,-205.0
-2.0,-245.0,-77.0,105.0,-24.0,-25.0,-29.0,-930.0,-213.0
-1.0,-245.0,-75.0,104.0,-39.0,-21.0,-32.0,-937.0,-210.0
-4.0,-246.0,-78.0,101.0,-55.0,-21.0,-30.0,-934.0,-212.0
-6.0,-247.0,-80.0,99.0,-72.0,-15.0,-21.0,-936.0,-217.0
2.0,-245.0,-76.0,94.0,-85.0,-13.0,-18.0,-940.0,-215.0
-2.0,-256.0,-63.0,92.0,-98.0,-7.0,-17.0,-936.0,-220.0
2.0,-246.0,-77.0,92.0,-109.0,-6.0,-19.0,-942.0,-217.0
1.0,-244.0,-77.0,91.0,-116.0,0.0,-11.0,-940.0,-220.0
6.0,-246.0,-80.0,91.0,-123.0,0.0,0.0,-940.0,-224.0
4.0,-244.0,-84.0,88.0,-123.0,2.0,3.0,-931.0,-227.0
6.0,-241.0,-85.0,85.0,-123.0,0.0,3.0,-929.0,-232.0
9.0,-243.0,-84.0,84.0,-122.0,4.0,4.0,-928.0,-234.0
10.0,-242.0,-77.0,81.0,-118.0,1.0,13.0,-929.0,-227.0
13.0,-244.0,-86.0,80.0,-113.0,1.0,20.0,-925.0,-226.0
14.0,-241.0,-81.0,80.0,-109.0,-2.0,25.0,-925.0,-229.0
16.0,-244.0,-80.0,81.0,-102.0,-4.0,29.0,-926.0,-220.0
18.0,-247.0,-94.0,82.0,-93.0,-9.0,40.0,-921.0,-217.0
15.0,-242.0,-81.0,83.0,-82.0,-8.0,42.0,-921.0,-217.0
19.0,-244.0,-76.0,83.0,-66.0,-13.0,41.0,-924.0,-213.0
15.0,-243.0,-76.0,78.0,-53.0,-15.0,48.0,-930.0,-211.0
15.0,-243.0,-75.0,70.0,-41.0,-19.0,45.0,-930.0,-210.0
16.0,-245.0,-78.0,62.0,-31.0,-17.0,42.0,-938.0,-219.0
12.0,-245.0,-78.0,49.0,-23.0,-19.0,40.0,-940.0,-221.0
15.0,-244.0,-81.0,36.0,-18.0,-15.0,30.0,-936.0,-226.0
9.0,-241.0,-83.0,27.0,-13.0,-16.0,24.0,-938.0,-226.0
13.0,-246.0,-82.0,20.0,-10.0,-11.0,23.0,-935.0,-229.0
14.0,-246.0,-83.0,20.0,-7.0,-10.0,15.0,-938.0,-218.0
10.0,-245.0,-82.0,28.0,-4.0,-7.0,16.0,-944.0,-221.0
8.0,-245.0,-82.0,42.0,4.0,-6.0,16.0,-936.0,-222.0
13.0,-246.0,-81.0,58.0,14.0,-6.0,18.0,-930.0,-217.0
12.0,-242.0,-79.0,73.0,21.0,-10.0,25.0,-935.0,-215.0
12.0,-243.0,-80.0,86.0,30.0,-9.0,20.0,-935.0,-222.0
12.0,-242.0,-81.0,96.0,37.0,-15.0,21.0,-930.0,-220.0
9.0,-239.0,-78.0,98.0,44.0,-16.0,19.0,-931.0,-216.0
11.0,-241.0,-79.0,96.0,51.0,-20.0,19.0,-923.0,-222.0
8.0,-240.0,-81.0,91.0,56.0,-19.0,18.0,-924.0,-219.0
7.0,-243.0,-82.0,83.0,61.0,-20.0,15.0,-925.0,-219.0
2.0,-226.0,-85.0,75.0,65.0,-17.0,19.0,-937.0,-209.0
17.0,-247.0,-78.0,63.0,72.0,-20.0,17.0,-930.0,-210.0
13.0,-246.0,-81.0,57.0,81.0,-17.0,29.0,-935.0,-213.0
14.0,-248.0,-75.0,53.0,92.0,-18.0,23.0,-941.0,-213.0
13.0,-247.0,-76.0,52.0,102.0,-16.0,20.0,-944.0,-215.0
12.0,-245.0,-84.0,54.0,106.0,-14.0,17.0,-946.0,-222.0
8.0,-250.0,-81.0,56.0,105.0,-9.0,11.0,-948.0,-229.0
9.0,-246.0,-88.0,61.0,102.0,-6.0,8.0,-949.0,-232.0
6.0,-249.0,-88.0,66.0,96.0,-1.0,7.0,-946.0,-237.0
7.0,-251.0,-83.0,73.0,91.0,-1.0,2.0,-948.0,-239.0
11.0,-247.0,-81.0,78.0,87.0,5.0,-3.0,-945.0,-237.0
-7.0,-253.0,-72.0,90.0,86.0,4.0,2.0,-947.0,-231.0
6.0,-246.0,-82.0,99.0,87.0,6.0,3.0,-946.0,-233.0
8.0,-247.0,-80.0,108.0,90.0,3.0,1.0,-948.0,-230.0
5.0,-246.0,-82.0,114.0,93.0,4.0,1.0,-943.0,-234.0
8.0,-248.0,-81.0,119.0,100.0,-1.0,3.0,-941.0,-232.0
10.0,-248.0,-83.0,119.0,107.0,-1.0,8.0,-942.0,-232.0
9.0,-247.0,-80.0,122.0,112.0,-5.0,7.0,-944.0,-231.0
9.0,-246.0,-81.0,121.0,118.0,-4.0,7.0,-944.0,-229.0
8.0,-247.0,-78.0,122.0,121.0,-7.0,6.0,-942.0,-228.0
6.0,-244.0,-77.0,126.0,121.0,-7.0,7.0,-945.0,-224.0
9.0,-248.0,-77.0,130.0,119.0,-9.0,0.0,-941.0,-220.0
6.0,-248.0,-79.0,135.0,113.0,-8.0,2.0,-940.0,-219.0
-9.0,-234.0,-65.0,137.0,104.0,-10.0,4.0,-936.0,-223.0
3.0,-246.0,-68.0,135.0,91.0,-9.0,1.0,-930.0,-222.0
4.0,-244.0,-81.0,131.0,82.0,-9.0,-2.0,-930.0,-217.0
6.0,-243.0,-78.0,127.0,73.0,-7.0,-6.0,-924.0,-215.0
2.0,-241.0,-73.0,125.0,65.0,-7.0,-8.0,-927.0,-212.0
3.0,-243.0,-79.0,123.0,59.0,-4.0,-9.0,-925.0,-202.0
1.0,-243.0,-75.0,120.0,50.0,-5.0,-12.0,-928.0,-204.0
2.0,-243.0,-75.0,115.0,39.0,-1.0,-14.0,-928.0,-209.0
1.0,-242.0,-75.0,111.0,30.0,1.0,-15.0,-927.0,-211.0
1.0,-245.0,-79.0,104.0,23.0,3.0,-14.0,-928.0,-214.0
6.0,-253.0,-76.0,98.0,15.0,3.0,-9.0,-932.0,-215.0
3.0,-242.0,-78.0,94.0,9.0,5.0,-7.0,-930.0,-219.0
1.0,-247.0,-79.0,93.0,6.0,6.0,-5.0,-933.0,-216.0
3.0,-246.0,-78.0,98.0,1.0,8.0,2.0,-939.0,-213.0
9.0,-246.0,-79.0,101.0,-5.0,7.0,1.0,-938.0,-218.0
7.0,-249.0,-76.0,102.0,-11.0,10.0,7.0,-946.0,-215.0
8.0,-247.0,-76.0,103.0,-17.0,7.0,11.0,-943.0,-211.0
9.0,-246.0,-77.0,103.0,-21.0,8.0,10.0,-950.0,-216.0
7.0,-244.0,-78.0,101.0,-23.0,7.0,11.0,-943.0,-215.0
11.0,-247.0,-75.0,103.0,-27.0,9.0,7.0,-940.0,-215.0
19.0,-238.0,-79.0,104.0,-27.0,9.0,8.0,-938.0,-211.0
0.0,-245.0,-73.0,105.0,-27.0,9.0,3.0,-929.0,-208.0
8.0,-243.0,-75.0,103.0,-29.0,6.0,5.0,-930.0,-203.0
5.0,-241.0,-74.0,98.0,-30.0,6.0,1.0,-929.0,-200.0
4.0,-244.0,-74.0,91.0,-32.0,4.0,-1.0,-926.0,-209.0
7.0,-244.0,-75.0,82.0,-32.0,6.0,4.0,-927.0,-200.0
5.0,-242.0,-77.0,71.0,-38.0,7.0,1.0,-931.0,-205.0
3.0,-244.0,-78.0,64.0,-41.0,7.0,-1.0,-930.0,-198.0
9.0,-246.0,-75.0,60.0,-47.0,8.0,4.0,-930.0,-196.0
6.0,-243.0,-72.0,57.0,-52.0,8.0,4.0,-936.0,-192.0
8.0,-241.0,-78.0,54.0,-54.0,7.0,5.0,-942.0,-196.0
9.0,-243.0,-74.0,50.0,-55.0,9.0,8.0,-942.0,-188.0
14.0,-255.0,-55.0,48.0,-52.0,7.0,12.0,-939.0,-181.0
6.0,-244.0,-71.0,44.0,-50.0,8.0,9.0,-940.0,-182.0
10.0,-248.0,-71.0,45.0,-48.0,6.0,16.0,-948.0,-189.0
13.0,-250.0,-73.0,39.0,-49.0,7.0,15.0,-953.0,-196.0
11.0,-253.0,-72.0,33.0,-50.0,4.0,22.0,-950.0,-193.0
12.0,-248.0,-73.0,38.0,-51.0,6.0,17.0,-949.0,-187.0
11.0,-247.0,-71.0,47.0,-54.0,6.0,14.0,-940.0,-194.0
10.0,-243.0,-75.0,60.0,-55.0,7.0,13.0,-933.0,-197.0
14.0,-241.0,-78.0,68.0,-58.0,8.0,17.0,-933.0,-213.0
8.0,-246.0,-76.0,66.0,-59.0,9.0,5.0,-931.0,-208.0
12.0,-244.0,-74.0,59.0,-56.0,7.0,8.0,-930.0,-203.0
-8.0,-250.0,-65.0,52.0,-53.0,8.0,8.0,-935.0,-198.0
8.0,-248.0,-76.0,46.0,-48.0,6.0,9.0,-937.0,-190.0
11.0,-248.0,-71.0,42.0,-46.0,5.0,8.0,-948.0,-182.0
10.0,-246.0,-73.0,42.0,-41.0,4.0,9.0,-945.0,-180.0
9.0,-249.0,-67.0,45.0,-39.0,5.0,12.0,-945.0,-179.0
10.0,-250.0,-70.0,50.0,-39.0,6.0,13.0,-950.0,-178.0
9.0,-247.0,-67.0,55.0,-39.0,6.0,17.0,-947.0,-176.0
10.0,-250.0,-71.0,60.0,-43.0,3.0,18.0,-945.0,-176.0
7.0,-248.0,-70.0,65.0,-45.0,6.0,18.0,-943.0,-179.0
14.0,-243.0,-66.0,65.0,-48.0,5.0,19.0,-943.0,-184.0
13.0,-248.0,-69.0,64.0,-50.0,8.0,17.0,-940.0,-190.0
9.0,-235.0,-74.0,60.0,-50.0,7.0,17.0,-940.0,-191.0
13.0,-247.0,-69.0,55.0,-47.0,6.0,29.0,-938.0,-187.0
10.0,-247.0,-72.0,51.0,-44.0,4.0,25.0,-941.0,-194.0
14.0,-248.0,-72.0,50.0,-37.0,4.0,30.0,-944.0,-188.0
12.0,-248.0,-72.0,47.0,-31.0,3.0,33.0,-944.0,-185.0
13.0,-248.0,-71.0,47.0,-23.0,2.0,25.0,-944.0,-183.0
10.0,-248.0,-70.0,48.0,-16.0,1.0,31.0,-944.0,-180.0
10.0,-249.0,-72.0,49.0,-8.0,2.0,27.0,-947.0,-177.0
11.0,-252.0,-71.0,51.0,-2.0,1.0,31.0,-950.0,-177.0
13.0,-251.0,-67.0,52.0,6.0,1.0,23.0,-947.0,-179.0
9.0,-247.0,-68.0,54.0,13.0,-1.0,25.0,-949.0,-177.0
5.0,-248.0,-81.0,57.0,20.0,-1.0,22.0,-949.0,-179.0
12.0,-251.0,-69.0,60.0,27.0,-2.0,24.0,-948.0,-176.0
11.0,-250.0,-67.0,63.0,33.0,-3.0,25.0,-949.0,-180.0
10.0,-247.0,-70.0,67.0,38.0,-3.0,21.0,-942.0,-180.0
9.0,-247.0,-72.0,69.0,45.0,-2.0,25.0,-942.0,-175.0
8.0,-246.0,-71.0,70.0,48.0,-2.0,14.0,-936.0,-179.0
12.0,-241.0,-73.0,70.0,51.0,0.0,14.0,-936.0,-175.0
7.0,-246.0,-70.0,69.0,55.0,-1.0,12.0,-943.0,-172.0
3.0,-246.0,-65.0,67.0,58.0,-2.0,10.0,-941.0,-169.0
12.0,-245.0,-66.0,63.0,60.0,0.0,10.0,-937.0,-168.0
7.0,-245.0,-55.0,60.0,64.0,-2.0,5.0,-940.0,-169.0
6.0,-245.0,-67.0,55.0,69.0,-1.0,8.0,-944.0,-168.0
7.0,-249.0,-64.0,52.0,72.0,-3.0,4.0,-944.0,-163.0
6.0,-248.0,-66.0,47.0,75.0,-6.0,2.0,-952.0,-164.0
7.0,-249.0,-65.0,45.0,76.0,-7.0,2.0,-947.0,-158.0
6.0,-249.0,-66.0,43.0,79.0,-9.0,0.0,-953.0,-159.0
4.0,-247.0,-65.0,44.0,80.0,-11.0,-1.0,-947.0,-157.0
2.0,-248.0,-66.0,47.0,82.0,-14.0,-6.0,-948.0,-159.0
3.0,-247.0,-65.0,50.0,80.0,-14.0,-4.0,-945.0,-160.0
6.0,-247.0,-65.0,53.0,80.0,-13.0,-11.0,-938.0,-155.0
5.0,-246.0,-64.0,55.0,80.0,-12.0,-9.0,-939.0,-159.0
6.0,-234.0,-74.0,55.0,81.0,-12.0,-6.0,-937.0,-159.0
-1.0,-244.0,-62.0,52.0,80.0,-12.0,-14.0,-937.0,-157.0
4.0,-245.0,-63.0,47.0,79.0,-14.0,-12.0,-934.0,-158.0
2.0,-245.0,-68.0,40.0,81.0,-13.0,-9.0,-938.0,-160.0
2.0,-247.0,-66.0,33.0,80.0,-13.0,-8.0,-944.0,-156.0
2.0,-249.0,-64.0,26.0,80.0,-12.0,-13.0,-942.0,-157.0
2.0,-247.0,-63.0,20.0,79.0,-12.0,-6.0,-948.0,-151.0
2.0,-249.0,-65.0,20.0,74.0,-10.0,-6.0,-948.0,-153.0
3.0,-248.0,-65.0,23.0,72.0,-8.0,-4.0,-958.0,-150.0
5.0,-250.0,-64.0,27.0,71.0,-7.0,-4.0,-953.0,-152.0
1.0,-248.0,-64.0,33.0,69.0,-6.0,-5.0,-953.0,-151.0
2.0,-251.0,-62.0,39.0,67.0,-5.0,-1.0,-949.0,-156.0
3.0,-250.0,-63.0,42.0,63.0,-4.0,-3.0,-948.0,-155.0
6.0,-249.0,-66.0,44.0,59.0,-2.0,-7.0,-945.0,-153.0
3.0,-248.0,-64.0,44.0,57.0,-2.0,-5.0,-945.0,-160.0
3.0,-248.0,-67.0,41.0,54.0,-2.0,-6.0,-947.0,-156.0
2.0,-245.0,-63.0,37.0,52.0,-2.0,-5.0,-946.0,-155.0
-1.0,-246.0,-64.0,35.0,53.0,-3.0,-8.0,-944.0,-152.0
3.0,-244.0,-67.0,30.0,55.0,-4.0,-7.0,-945.0,-156.0
6.0,-248.0,-64.0,28.0,55.0,-5.0,-12.0,-945.0,-153.0
1.0,-247.0,-66.0,25.0,57.0,-4.0,-14.0,-944.0,-152.0
1.0,-250.0,-66.0,24.0,58.0,-4.0,-15.0,-947.0,-155.0
-4.0,-252.0,-61.0,22.0,59.0,-4.0,-8.0,-943.0,-148.0
3.0,-245.0,-66.0,22.0,59.0,-5.0,-4.0,-947.0,-151.0
5.0,-249.0,-61.0,23.0,61.0,-3.0,1.0,-942.0,-153.0
3.0,-246.0,-66.0,25.0,62.0,-1.0,-4.0,-947.0,-156.0
5.0,-250.0,-63.0,25.0,63.0,1.0,-1.0,-950.0,-151.0
7.0,-249.0,-65.0,26.0,61.0,0.0,1.0,-943.0,-147.0
3.0,-249.0,-60.0,26.0,60.0,2.0,-3.0,-946.0,-150.0
10.0,-250.0,-60.0,30.0,62.0,2.0,4.0,-947.0,-150.0
7.0,-247.0,-65.0,33.0,63.0,3.0,-3.0,-945.0,-149.0
4.0,-247.0,-64.0,35.0,66.0,2.0,3.0,-945.0,-148.0
9.0,-249.0,-67.0,36.0,70.0,2.0,6.0,-947.0,-150.0
5.0,-242.0,-66.0,36.0,72.0,2.0,5.0,-947.0,-145.0
5.0,-248.0,-63.0,37.0,74.0,1.0,4.0,-950.0,-142.0
5.0,-247.0,-62.0,38.0,76.0,-1.0,7.0,-943.0,-142.0
7.0,-251.0,-61.0,39.0,79.0,0.0,2.0,-947.0,-148.0
9.0,-249.0,-63.0,40.0,80.0,0.0,5.0,-949.0,-146.0
6.0,-246.0,-61.0,40.0,81.0,1.0,5.0,-946.0,-148.0
7.0,-248.0,-62.0,37.0,83.0,2.0,3.0,-945.0,-150.0
11.0,-248.0,-63.0,33.0,85.0,2.0,4.0,-947.0,-149.0
10.0,-249.0,-64.0,30.0,88.0,2.0,6.0,-941.0,-148.0
5.0,-249.0,-61.0,28.0,90.0,4.0,1.0,-939.0,-149.0
10.0,-248.0,-64.0,23.0,93.0,4.0,6.0,-940.0,-151.0
9.0,-247.0,-62.0,21.0,96.0,5.0,5.0,-948.0,-152.0
7.0,-246.0,-66.0,18.0,102.0,3.0,5.0,-951.0,-150.0
10.0,-248.0,-59.0,19.0,106.0,5.0,5.0,-947.0,-144.0
10.0,-251.0,-63.0,20.0,109.0,2.0,6.0,-946.0,-146.0
8.0,-250.0,-64.0,19.0,114.0,4.0,7.0,-954.0,-151.0
7.0,-250.0,-61.0,22.0,118.0,2.0,6.0,-956.0,-152.0
7.0,-250.0,-64.0,22.0,122.0,3.0,8.0,-953.0,-152.0
5.0,-251.0,-61.0,23.0,124.0,1.0,7.0,-950.0,-149.0
10.0,-250.0,-63.0,25.0,131.0,2.0,5.0,-953.0,-151.0
6.0,-248.0,-65.0,25.0,133.0,0.0,8.0,-952.0,-149.0
7.0,-245.0,-64.0,25.0,134.0,2.0,7.0,-948.0,-147.0
-6.0,-245.0,-66.0,22.0,134.0,0.0,5.0,-954.0,-147.0
8.0,-251.0,-64.0,18.0,133.0,2.0,5.0,-949.0,-149.0
7.0,-251.0,-60.0,15.0,134.0,1.0,7.0,-951.0,-146.0
8.0,-249.0,-59.0,9.0,133.0,1.0,7.0,-948.0,-148.0
8.0,-250.0,-64.0,5.0,133.0,0.0,5.0,-951.0,-149.0
8.0,-251.0,-62.0,4.0,134.0,1.0,6.0,-954.0,-147.0
7.0,-250.0,-63.0,5.0,134.0,0.0,4.0,-961.0,-144.0
4.0,-248.0,-60.0,7.0,134.0,2.0,6.0,-953.0,-145.0
8.0,-253.0,-63.0,9.0,133.0,-1.0,5.0,-950.0,-144.0
8.0,-250.0,-58.0,11.0,134.0,0.0,0.0,-944.0,-146.0
4.0,-249.0,-63.0,9.0,135.0,-1.0,2.0,-950.0,-148.0
10.0,-241.0,-76.0,5.0,136.0,-1.0,5.0,-947.0,-146.0
7.0,-246.0,-63.0,4.0,139.0,-4.0,4.0,-948.0,-151.0
7.0,-248.0,-66.0,4.0,141.0,-3.0,7.0,-948.0,-153.0
7.0,-250.0,-65.0,7.0,141.0,-4.0,5.0,-948.0,-151.0
7.0,-248.0,-65.0,12.0,139.0,-3.0,3.0,-949.0,-153.0
7.0,-247.0,-63.0,18.0,141.0,-5.0,7.0,-952.0,-163.0
6.0,-246.0,-64.0,22.0,140.0,-3.0,6.0,-944.0,-159.0
4.0,-249.0,-67.0,21.0,141.0,-5.0,2.0,-944.0,-164.0
11.0,-251.0,-63.0,17.0,145.0,-3.0,6.0,-947.0,-156.0
8.0,-250.0,-65.0,15.0,150.0,-6.0,5.0,-950.0,-155.0
7.0,-249.0,-72.0,13.0,155.0,-4.0,4.0,-946.0,-147.0
10.0,-253.0,-45.0,12.0,158.0,-7.0,1.0,-951.0,-139.0
6.0,-248.0,-54.0,12.0,157.0,-6.0,7.0,-948.0,-130.0
7.0,-251.0,-58.0,12.0,156.0,-7.0,5.0,-953.0,-132.0
6.0,-252.0,-59.0,12.0,153.0,-6.0,8.0,-948.0,-130.0
8.0,-250.0,-62.0,13.0,147.0,-7.0,6.0,-948.0,-128.0
4.0,-249.0,-63.0,12.0,142.0,-6.0,2.0,-948.0,-130.0
8.0,-251.0,-58.0,9.0,137.0,-7.0,4.0,-947.0,-130.0
1.0,-249.0,-58.0,7.0,131.0,-4.0,4.0,-945.0,-129.0
6.0,-249.0,-60.0,2.0,126.0,-7.0,3.0,-943.0,-134.0
10.0,-249.0,-59.0,-2.0,122.0,-6.0,7.0,-945.0,-142.0
5.0,-251.0,-59.0,-6.0,120.0,-7.0,11.0,-944.0,-144.0
8.0,-239.0,-76.0,-12.0,119.0,-5.0,2.0,-946.0,-151.0
5.0,-249.0,-63.0,-18.0,118.0,-7.0,3.0,-948.0,-154.0
7.0,-251.0,-66.0,-22.0,118.0,-6.0,3.0,-953.0,-150.0
5.0,-252.0,-65.0,-23.0,119.0,-5.0,5.0,-965.0,-155.0
7.0,-249.0,-61.0,-23.0,116.0,-5.0,5.0,-952.0,-151.0
8.0,-252.0,-62.0,-18.0,110.0,-5.0,5.0,-952.0,-158.0
4.0,-253.0,-64.0,-13.0,107.0,-4.0,6.0,-953.0,-150.0
5.0,-249.0,-63.0,-12.0,108.0,-5.0,7.0,-954.0,-150.0
7.0,-248.0,-63.0,-13.0,102.0,-4.0,8.0,-952.0,-146.0
5.0,-245.0,-63.0,-22.0,98.0,-5.0,9.0,-936.0,-145.0
8.0,-256.0,-55.0,-37.0,94.0,-2.0,7.0,-938.0,-148.0
8.0,-242.0,-61.0,-59.0,89.0,-4.0,6.0,-935.0,-145.0
8.0,-243.0,-62.0,-83.0,84.0,-2.0,12.0,-928.0,-145.0
9.0,-240.0,-64.0,-111.0,82.0,-3.0,5.0,-924.0,-143.0
3.0,-240.0,-59.0,-136.0,81.0,0.0,7.0,-924.0,-144.0
5.0,-244.0,-63.0,-165.0,82.0,-2.0,5.0,-924.0,-144.0
8.0,-244.0,-62.0,-182.0,82.0,2.0,1.0,-925.0,-146.0
0.0,-244.0,-59.0,-195.0,82.0,-1.0,-1.0,-927.0,-148.0
5.0,-244.0,-59.0,-203.0,82.0,-2.0,1.0,-935.0,-148.0
5.0,-245.0,-61.0,-207.0,78.0,-6.0,2.0,-934.0,-155.0
4.0,-242.0,-65.0,-206.0,72.0,-6.0,0.0,-930.0,-153.0
-2.0,-242.0,-71.0,-207.0,67.0,-9.0,-2.0,-935.0,-163.0
5.0,-247.0,-66.0,-208.0,64.0,-7.0,0.0,-938.0,-160.0
4.0,-247.0,-71.0,-215.0,57.0,-9.0,-2.0,-943.0,-171.0
5.0,-245.0,-66.0,-227.0,46.0,-5.0,-3.0,-938.0,-172.0
6.0,-245.0,-67.0,-244.0,35.0,-8.0,4.0,-940.0,-170.0
2.0,-245.0,-69.0,-258.0,26.0,-5.0,-1.0,-946.0,-175.0
4.0,-247.0,-70.0,-269.0,16.0,-6.0,-2.0,-947.0,-168.0
6.0,-250.0,-66.0,-279.0,9.0,-3.0,-1.0,-949.0,-170.0
7.0,-248.0,-65.0,-285.0,4.0,-6.0,2.0,-950.0,-167.0
6.0,-252.0,-67.0,-290.0,2.0,-5.0,5.0,-948.0,-169.0
9.0,-252.0,-65.0,-291.0,4.0,-8.0,2.0,-959.0,-165.0
7.0,-254.0,-67.0,-285.0,7.0,-9.0,0.0,-972.0,-169.0
8.0,-256.0,-69.0,-278.0,10.0,-15.0,-2.0,-974.0,-171.0
8.0,-254.0,-67.0,-254.0,15.0,-15.0,0.0,-972.0,-173.0
6.0,-256.0,-70.0,-226.0,19.0,-20.0,6.0,-976.0,-165.0
7.0,-256.0,-68.0,-193.0,20.0,-19.0,0.0,-975.0,-180.0
6.0,-255.0,-68.0,-160.0,22.0,-23.0,5.0,-975.0,-184.0
7.0,-255.0,-74.0,-126.0,26.0,-23.0,4.0,-975.0,-180.0
4.0,-255.0,-71.0,-93.0,25.0,-25.0,2.0,-969.0,-186.0
8.0,-253.0,-74.0,-65.0,22.0,-24.0,8.0,-971.0,-196.0
5.0,-247.0,-73.0,-41.0,18.0,-27.0,4.0,-949.0,-198.0
6.0,-251.0,-71.0,-23.0,12.0,-26.0,1.0,-949.0,-205.0
3.0,-249.0,-77.0,-13.0,5.0,-29.0,2.0,-944.0,-207.0
4.0,-246.0,-77.0,-7.0,2.0,-26.0,10.0,-940.0,-202.0
8.0,-249.0,-73.0,-7.0,0.0,-29.0,3.0,-939.0,-197.0
9.0,-246.0,-74.0,-10.0,-1.0,-25.0,9.0,-943.0,-197.0
11.0,-249.0,-74.0,-13.0,-2.0,-25.0,6.0,-941.0,-187.0
6.0,-247.0,-70.0,-18.0,-2.0,-21.0,8.0,-944.0,-183.0
6.0,-249.0,-68.0,-19.0,2.0,-23.0,11.0,-945.0,-180.0
9.0,-248.0,-74.0,-18.0,4.0,-20.0,6.0,-944.0,-177.0
12.0,-246.0,-69.0,-16.0,9.0,-21.0,5.0,-935.0,-171.0
5.0,-249.0,-68.0,-12.0,12.0,-21.0,4.0,-945.0,-169.0
8.0,-246.0,-70.0,-9.0,19.0,-22.0,4.0,-942.0,-170.0
0.0,-253.0,-72.0,-6.0,20.0,-19.0,5.0,-944.0,-170.0
10.0,-249.0,-69.0,-4.0,23.0,-21.0,8.0,-948.0,-167.0
7.0,-248.0,-68.0,2.0,24.0,-20.0,5.0,-946.0,-166.0
6.0,-246.0,-67.0,8.0,27.0,-22.0,5.0,-945.0,-171.0
5.0,-249.0,-68.0,15.0,27.0,-19.0,6.0,-946.0,-176.0
6.0,-247.0,-66.0,23.0,27.0,-22.0,2.0,-948.0,-171.0
10.0,-249.0,-69.0,32.0,26.0,-18.0,8.0,-946.0,-172.0
8.0,-243.0,-67.0,42.0,27.0,-21.0,7.0,-943.0,-178.0
2.0,-245.0,-72.0,50.0,29.0,-17.0,6.0,-943.0,-174.0
7.0,-246.0,-66.0,55.0,32.0,-18.0,9.0,-942.0,-178.0
10.0,-248.0,-67.0,55.0,36.0,-15.0,10.0,-932.0,-177.0
6.0,-243.0,-76.0,52.0,39.0,-18.0,7.0,-936.0,-178.0
11.0,-248.0,-70.0,47.0,43.0,-15.0,8.0,-936.0,-173.0
7.0,-244.0,-67.0,39.0,46.0,-17.0,9.0,-933.0,-168.0
7.0,-244.0,-68.0,31.0,51.0,-15.0,8.0,-931.0,-168.0
8.0,-244.0,-68.0,25.0,55.0,-17.0,10.0,-939.0,-169.0
9.0,-247.0,-68.0,20.0,58.0,-14.0,15.0,-936.0,-169.0
9.0,-247.0,-66.0,18.0,59.0,-16.0,18.0,-943.0,-169.0
11.0,-242.0,-69.0,18.0,64.0,-15.0,14.0,-942.0,-166.0
9.0,-248.0,-65.0,19.0,68.0,-15.0,9.0,-939.0,-171.0
7.0,-250.0,-69.0,21.0,70.0,-12.0,13.0,-948.0,-168.0
11.0,-250.0,-68.0,24.0,71.0,-13.0,9.0,-948.0,-169.0
1.0,-255.0,-58.0,27.0,72.0,-10.0,9.0,-950.0,-161.0
8.0,-247.0,-67.0,28.0,71.0,-11.0,8.0,-950.0,-160.0
8.0,-249.0,-64.0,29.0,70.0,-8.0,10.0,-953.0,-164.0
11.0,-248.0,-66.0,30.0,71.0,-9.0,9.0,-950.0,-163.0
5.0,-247.0,-71.0,30.0,73.0,-5.0,11.0,-945.0,-162.0
12.0,-249.0,-64.0,28.0,75.0,-6.0,8.0,-946.0,-161.0
9.0,-248.0,-65.0,26.0,77.0,-3.0,10.0,-944.0,-159.0
9.0,-246.0,-65.0,25.0,79.0,-5.0,6.0,-941.0,-157.0
7.0,-245.0,-64.0,22.0,81.0,-3.0,14.0,-932.0,-154.0
5.0,-248.0,-65.0,19.0,83.0,-5.0,10.0,-940.0,-159.0
8.0,-250.0,-69.0,12.0,84.0,-2.0,11.0,-956.0,-158.0
3.0,-249.0,-65.0,9.0,85.0,-2.0,10.0,-941.0,-158.0
11.0,-249.0,-66.0,5.0,86.0,0.0,8.0,-944.0,-163.0
7.0,-249.0,-66.0,0.0,86.0,-4.0,6.0,-946.0,-165.0
7.0,-247.0,-69.0,-1.0,88.0,-2.0,4.0,-946.0,-170.0
5.0,-248.0,-67.0,-3.0,89.0,-5.0,4.0,-947.0,-168.0
7.0,-245.0,-66.0,-5.0,90.0,-3.0,4.0,-946.0,-164.0
5.0,-247.0,-62.0,-6.0,92.0,-5.0,7.0,-942.0,-159.0
6.0,-241.0,-64.0,-9.0,92.0,-3.0,3.0,-946.0,-160.0
7.0,-245.0,-66.0,-11.0,92.0,-5.0,6.0,-944.0,-158.0
7.0,-248.0,-63.0,-10.0,92.0,-3.0,5.0,-943.0,-166.0
10.0,-248.0,-66.0,-6.0,92.0,-6.0,6.0,-946.0,-162.0
-1.0,-244.0,-64.0,2.0,91.0,-4.0,8.0,-948.0,-166.0
8.0,-247.0,-67.0,10.0,93.0,-7.0,5.0,-940.0,-173.0
7.0,-249.0,-68.0,20.0,91.0,-5.0,4.0,-940.0,-176.0
5.0,-246.0,-71.0,26.0,85.0,-7.0,0.0,-950.0,-176.0
5.0,-249.0,-67.0,23.0,84.0,-4.0,1.0,-943.0,-173.0
5.0,-247.0,-67.0,19.0,84.0,-7.0,-3.0,-949.0,-175.0
7.0,-246.0,-68.0,12.0,83.0,-4.0,-4.0,-945.0,-167.0
7.0,-249.0,-66.0,7.0,84.0,-6.0,0.0,-950.0,-161.0
6.0,-248.0,-66.0,4.0,83.0,-4.0,0.0,-947.0,-157.0
5.0,-253.0,-63.0,2.0,84.0,-7.0,-1.0,-944.0,-148.0
16.0,-255.0,-60.0,3.0,82.0,-4.0,2.0,-944.0,-151.0
9.0,-244.0,-64.0,4.0,79.0,-5.0,-1.0,-942.0,-149.0
6.0,-246.0,-63.0,4.0,73.0,-3.0,3.0,-943.0,-148.0
6.0,-247.0,-65.0,6.0,67.0,-4.0,3.0,-939.0,-147.0
7.0,-246.0,-59.0,5.0,63.0,-4.0,5.0,-941.0,-147.0
9.0,-248.0,-64.0,3.0,58.0,-6.0,2.0,-934.0,-150.0
8.0,-246.0,-63.0,-3.0,54.0,-3.0,3.0,-935.0,-156.0
4.0,-242.0,-66.0,-10.0,49.0,-5.0,4.0,-943.0,-150.0
7.0,-244.0,-61.0,-15.0,45.0,-3.0,5.0,-943.0,-156.0
5.0,-249.0,-64.0,-19.0,42.0,-6.0,5.0,-939.0,-159.0
7.0,-248.0,-63.0,-22.0,39.0,-2.0,3.0,-948.0,-159.0
18.0,-254.0,-57.0,-23.0,37.0,-4.0,7.0,-947.0,-163.0
7.0,-249.0,-66.0,-21.0,36.0,-1.0,5.0,-952.0,-161.0
8.0,-250.0,-66.0,-17.0,36.0,-3.0,6.0,-950.0,-160.0
5.0,-249.0,-64.0,-12.0,39.0,0.0,6.0,-949.0,-158.0
5.0,-246.0,-67.0,-9.0,40.0,-1.0,8.0,-949.0,-161.0
3.0,-247.0,-66.0,-4.0,39.0,1.0,6.0,-950.0,-165.0
6.0,-250.0,-67.0,-1.0,41.0,-1.0,9.0,-950.0,-162.0
10.0,-249.0,-69.0,2.0,43.0,1.0,6.0,-949.0,-166.0
8.0,-250.0,-64.0,3.0,45.0,-4.0,10.0,-947.0,-162.0
9.0,-246.0,-62.0,5.0,46.0,-3.0,8.0,-946.0,-159.0
8.0,-251.0,-69.0,7.0,48.0,-6.0,10.0,-944.0,-166.0
4.0,-248.0,-72.0,8.0,49.0,-5.0,7.0,-943.0,-162.0
7.0,-247.0,-67.0,7.0,50.0,-7.0,7.0,-946.0,-159.0
8.0,-249.0,-68.0,6.0,49.0,-5.0,7.0,-943.0,-163.0
7.0,-246.0,-65.0,4.0,49.0,-6.0,5.0,-941.0,-159.0
11.0,-249.0,-64.0,1.0,47.0,-4.0,3.0,-950.0,-159.0
6.0,-247.0,-64.0,1.0,46.0,-5.0,10.0,-947.0,-162.0
8.0,-248.0,-66.0,-1.0,42.0,-1.0,11.0,-944.0,-155.0
8.0,-247.0,-64.0,-1.0,40.0,-2.0,7.0,-941.0,-155.0
8.0,-247.0,-70.0,-4.0,41.0,2.0,10.0,-942.0,-161.0
6.0,-248.0,-63.0,-5.0,38.0,-1.0,7.0,-939.0,-162.0
6.0,-246.0,-65.0,-7.0,37.0,2.0,8.0,-947.0,-164.0
25.0,-249.0,-77.0,-9.0,38.0,1.0,8.0,-948.0,-161.0
7.0,-247.0,-65.0,-11.0,39.0,1.0,10.0,-948.0,-164.0
9.0,-249.0,-65.0,-11.0,39.0,0.0,5.0,-947.0,-163.0
7.0,-248.0,-69.0,-10.0,42.0,2.0,6.0,-949.0,-159.0
7.0,-250.0,-64.0,-8.0,46.0,-1.0,5.0,-952.0,-161.0
1.0,-250.0,-64.0,-8.0,49.0,1.0,4.0,-950.0,-161.0
8.0,-251.0,-65.0,-3.0,52.0,-1.0,10.0,-949.0,-167.0
7.0,-249.0,-68.0,1.0,55.0,-1.0,7.0,-944.0,-165.0
7.0,-251.0,-64.0,4.0,55.0,-2.0,3.0,-948.0,-165.0
6.0,-249.0,-65.0,5.0,54.0,-1.0,1.0,-948.0,-170.0
7.0,-246.0,-69.0,7.0,54.0,-2.0,-2.0,-939.0,-166.0
8.0,-246.0,-65.0,6.0,53.0,-1.0,4.0,-941.0,-163.0
3.0,-238.0,-66.0,5.0,53.0,-3.0,-2.0,-942.0,-170.0
3.0,-242.0,-75.0,4.0,55.0,-2.0,-1.0,-940.0,-167.0
6.0,-248.0,-65.0,1.0,55.0,-2.0,2.0,-937.0,-166.0
3.0,-248.0,-68.0,0.0,56.0,0.0,0.0,-943.0,-170.0
7.0,-247.0,-67.0,-2.0,56.0,-1.0,2.0,-944.0,-164.0
3.0,-247.0,-66.0,-1.0,57.0,2.0,1.0,-949.0,-171.0
5.0,-249.0,-66.0,1.0,56.0,2.0,-6.0,-946.0,-166.0
13.0,-249.0,-64.0,4.0,57.0,2.0,2.0,-949.0,-167.0
5.0,-245.0,-65.0,5.0,56.0,2.0,-1.0,-951.0,-160.0
4.0,-250.0,-66.0,6.0,54.0,3.0,1.0,-949.0,-168.0
-6.0,-255.0,-67.0,9.0,55.0,2.0,-1.0,-957.0,-166.0
5.0,-248.0,-66.0,10.0,56.0,3.0,2.0,-949.0,-169.0
7.0,-247.0,-66.0,9.0,56.0,1.0,3.0,-949.0,-167.0
9.0,-246.0,-69.0,7.0,58.0,3.0,6.0,-949.0,-170.0
8.0,-250.0,-69.0,5.0,59.0,1.0,5.0,-947.0,-168.0
2.0,-247.0,-67.0,1.0,62.0,3.0,4.0,-950.0,-168.0
6.0,-250.0,-66.0,-2.0,62.0,1.0,5.0,-949.0,-166.0
13.0,-250.0,-66.0,-3.0,63.0,2.0,5.0,-947.0,-167.0
6.0,-254.0,-66.0,-3.0,63.0,0.0,5.0,-949.0,-166.0
6.0,-249.0,-66.0,-3.0,63.0,1.0,6.0,-952.0,-164.0
7.0,-250.0,-70.0,0.0,64.0,-1.0,4.0,-953.0,-163.0
-4.0,-257.0,-55.0,4.0,65.0,1.0,6.0,-951.0,-163.0
10.0,-251.0,-66.0,10.0,66.0,-2.0,-2.0,-948.0,-161.0
6.0,-250.0,-66.0,16.0,68.0,-1.0,2.0,-951.0,-165.0
8.0,-247.0,-65.0,19.0,68.0,-2.0,4.0,-943.0,-163.0
5.0,-246.0,-67.0,21.0,69.0,-2.0,1.0,-939.0,-166.0
3.0,-246.0,-64.0,19.0,71.0,-3.0,3.0,-940.0,-165.0
6.0,-246.0,-65.0,19.0,74.0,-1.0,4.0,-939.0,-168.0
11.0,-244.0,-68.0,15.0,75.0,-3.0,3.0,-936.0,-162.0
7.0,-250.0,-67.0,11.0,76.0,0.0,4.0,-939.0,-165.0
2.0,-244.0,-65.0,7.0,75.0,-2.0,7.0,-942.0,-164.0
6.0,-251.0,-66.0,2.0,77.0,0.0,5.0,-944.0,-160.0
7.0,-261.0,-53.0,-1.0,76.0,-1.0,0.0,-944.0,-158.0
6.0,-246.0,-64.0,-3.0,78.0,0.0,7.0,-946.0,-162.0
9.0,-247.0,-65.0,-5.0,76.0,0.0,8.0,-944.0,-158.0
8.0,-249.0,-63.0,-9.0,77.0,2.0,3.0,-944.0,-161.0
7.0,-249.0,-67.0,-11.0,75.0,0.0,4.0,-964.0,-161.0
6.0,-248.0,-64.0,-12.0,72.0,1.0,1.0,-950.0,-155.0
4.0,-247.0,-64.0,-15.0,69.0,1.0,3.0,-944.0,-162.0
6.0,-247.0,-67.0,-16.0,66.0,1.0,4.0,-946.0,-162.0
5.0,-247.0,-64.0,-17.0,65.0,0.0,0.0,-939.0,-163.0
4.0,-246.0,-67.0,-19.0,63.0,0.0,-1.0,-942.0,-169.0
5.0,-247.0,-67.0,-18.0,64.0,-2.0,2.0,-945.0,-168.0
13.0,-225.0,-84.0,-16.0,66.0,-1.0,-2.0,-945.0,-168.0
4.0,-245.0,-65.0,-12.0,69.0,-4.0,3.0,-945.0,-166.0
5.0,-249.0,-66.0,-8.0,70.0,-2.0,5.0,-940.0,-163.0
5.0,-246.0,-65.0,-5.0,72.0,-4.0,6.0,-941.0,-163.0
4.0,-245.0,-64.0,-5.0,72.0,-3.0,10.0,-942.0,-164.0
9.0,-246.0,-67.0,-7.0,70.0,-3.0,10.0,-939.0,-157.0
7.0,-247.0,-68.0,-14.0,68.0,-2.0,8.0,-942.0,-160.0
5.0,-248.0,-62.0,-20.0,67.0,-3.0,10.0,-941.0,-166.0
8.0,-246.0,-68.0,-27.0,65.0,-2.0,10.0,-945.0,-171.0
7.0,-251.0,-67.0,-32.0,63.0,-3.0,12.0,-947.0,-170.0
4.0,-249.0,-66.0,-35.0,63.0,-2.0,7.0,-949.0,-167.0
11.0,-247.0,-63.0,-36.0,63.0,-3.0,10.0,-950.0,-168.0
7.0,-250.0,-66.0,-36.0,62.0,-2.0,9.0,-959.0,-165.0
11.0,-251.0,-66.0,-37.0,61.0,-2.0,9.0,-953.0,-163.0
10.0,-247.0,-64.0,-36.0,59.0,-1.0,7.0,-953.0,-159.0
9.0,-249.0,-66.0,-34.0,56.0,-3.0,11.0,-947.0,-160.0
11.0,-250.0,-68.0,-30.0,54.0,-2.0,6.0,-949.0,-164.0
7.0,-248.0,-65.0,-25.0,54.0,-3.0,11.0,-944.0,-167.0
9.0,-248.0,-63.0,-17.0,55.0,-4.0,6.0,-941.0,-164.0
7.0,-247.0,-65.0,-11.0,56.0,-5.0,4.0,-940.0,-178.0
8.0,-246.0,-70.0,-8.0,58.0,-7.0,8.0,-940.0,-182.0
13.0,-244.0,-63.0,-9.0,56.0,-8.0,0.0,-942.0,-182.0
7.0,-248.0,-72.0,-12.0,59.0,-8.0,7.0,-940.0,-175.0
9.0,-250.0,-66.0,-15.0,59.0,-9.0,8.0,-944.0,-175.0
9.0,-247.0,-68.0,-17.0,60.0,-9.0,10.0,-950.0,-169.0
7.0,-248.0,-64.0,-17.0,62.0,-9.0,7.0,-947.0,-161.0
8.0,-250.0,-62.0,-13.0,62.0,-9.0,10.0,-953.0,-159.0
6.0,-248.0,-66.0,-7.0,63.0,-9.0,8.0,-952.0,-158.0
5.0,-250.0,-62.0,-4.0,65.0,-7.0,8.0,-952.0,-155.0
8.0,-249.0,-66.0,0.0,67.0,-8.0,11.0,-952.0,-155.0
7.0,-248.0,-64.0,2.0,64.0,-8.0,10.0,-948.0,-156.0
7.0,-244.0,-63.0,1.0,62.0,-8.0,9.0,-947.0,-161.0
8.0,-238.0,-76.0,-2.0,60.0,-9.0,8.0,-948.0,-158.0
10.0,-248.0,-65.0,-8.0,57.0,-10.0,10.0,-941.0,-157.0
7.0,-247.0,-64.0,-15.0,54.0,-9.0,5.0,-944.0,-155.0
8.0,-245.0,-63.0,-21.0,52.0,-10.0,8.0,-941.0,-158.0
5.0,-247.0,-64.0,-25.0,49.0,-10.0,6.0,-945.0,-160.0
9.0,-249.0,-65.0,-27.0,49.0,-11.0,7.0,-945.0,-166.0
6.0,-248.0,-67.0,-26.0,49.0,-10.0,7.0,-945.0,-167.0
9.0,-249.0,-65.0,-26.0,47.0,-11.0,3.0,-944.0,-165.0
10.0,-251.0,-66.0,-25.0,49.0,-10.0,9.0,-943.0,-162.0
7.0,-246.0,-66.0,-23.0,50.0,-10.0,5.0,-948.0,-168.0
8.0,-250.0,-67.0,-20.0,49.0,-11.0,8.0,-947.0,-163.0
17.0,-252.0,-51.0,-17.0,48.0,-10.0,5.0,-952.0,-166.0
10.0,-250.0,-67.0,-13.0,46.0,-9.0,8.0,-948.0,-163.0
10.0,-250.0,-65.0,-12.0,49.0,-8.0,7.0,-949.0,-165.0
7.0,-250.0,-64.0,-10.0,48.0,-7.0,10.0,-949.0,-161.0
6.0,-249.0,-66.0,-10.0,51.0,-8.0,12.0,-948.0,-165.0
8.0,-247.0,-68.0,-10.0,50.0,-7.0,8.0,-945.0,-157.0
8.0,-250.0,-65.0,-10.0,49.0,-5.0,8.0,-948.0,-155.0
12.0,-248.0,-65.0,-9.0,49.0,-7.0,11.0,-944.0,-163.0
6.0,-250.0,-64.0,-9.0,50.0,-7.0,14.0,-944.0,-163.0
8.0,-248.0,-65.0,-10.0,48.0,-7.0,9.0,-948.0,-159.0
9.0,-247.0,-67.0,-11.0,47.0,-6.0,7.0,-942.0,-158.0
13.0,-232.0,-79.0,-12.0,48.0,-7.0,6.0,-945.0,-159.0
9.0,-247.0,-66.0,-16.0,48.0,-7.0,6.0,-943.0,-159.0
9.0,-245.0,-67.0,-21.0,49.0,-7.0,10.0,-937.0,-158.0
7.0,-248.0,-67.0,-24.0,48.0,-7.0,10.0,-943.0,-160.0
9.0,-247.0,-64.0,-27.0,50.0,-6.0,11.0,-950.0,-159.0
6.0,-246.0,-65.0,-32.0,51.0,-5.0,10.0,-947.0,-155.0
8.0,-251.0,-64.0,-34.0,52.0,-6.0,9.0,-948.0,-158.0
6.0,-248.0,-69.0,-33.0,52.0,-4.0,9.0,-953.0,-162.0
5.0,-247.0,-66.0,-31.0,52.0,-5.0,13.0,-946.0,-161.0
7.0,-249.0,-65.0,-27.0,51.0,-3.0,8.0,-949.0,-161.0
6.0,-243.0,-65.0,-23.0,52.0,-3.0,7.0,-946.0,-167.0
6.0,-259.0,-63.0,-18.0,51.0,-3.0,3.0,-948.0,-163.0
8.0,-247.0,-68.0,-16.0,50.0,-3.0,6.0,-949.0,-166.0
6.0,-246.0,-66.0,-15.0,49.0,-2.0,3.0,-945.0,-164.0
7.0,-247.0,-66.0,-14.0,49.0,-4.0,6.0,-944.0,-165.0
6.0,-250.0,-64.0,-16.0,48.0,-3.0,5.0,-947.0,-164.0
5.0,-245.0,-63.0,-16.0,49.0,-5.0,1.0,-946.0,-163.0
6.0,-251.0,-67.0,-16.0,50.0,-5.0,3.0,-945.0,-158.0
5.0,-246.0,-65.0,-16.0,52.0,-6.0,5.0,-944.0,-163.0
7.0,-248.0,-60.0,-15.0,53.0,-6.0,5.0,-944.0,-160.0
9.0,-248.0,-64.0,-16.0,56.0,-5.0,1.0,-945.0,-159.0
8.0,-247.0,-67.0,-17.0,55.0,-4.0,5.0,-946.0,-159.0
3.0,-243.0,-80.0,-16.0,54.0,-6.0,4.0,-943.0,-157.0
4.0,-247.0,-65.0,-16.0,55.0,-4.0,5.0,-945.0,-160.0
6.0,-248.0,-65.0,-15.0,53.0,-5.0,6.0,-946.0,-156.0
5.0,-248.0,-68.0,-15.0,50.0,-5.0,7.0,-945.0,-165.0
5.0,-247.0,-67.0,-14.0,52.0,-5.0,1.0,-944.0,-161.0
8.0,-248.0,-66.0,-12.0,51.0,-3.0,4.0,-947.0,-164.0
5.0,-249.0,-67.0,-12.0,53.0,-6.0,3.0,-948.0,-165.0
7.0,-249.0,-68.0,-10.0,51.0,-5.0,2.0,-958.0,-163.0
5.0,-252.0,-69.0,-10.0,52.0,-5.0,6.0,-952.0,-165.0
5.0,-251.0,-68.0,-9.0,53.0,-5.0,7.0,-948.0,-170.0
5.0,-251.0,-65.0,-6.0,55.0,-6.0,8.0,-951.0,-168.0
2.0,-250.0,-65.0,-3.0,57.0,-6.0,5.0,-947.0,-163.0
6.0,-252.0,-64.0,0.0,57.0,-7.0,4.0,-950.0,-173.0
9.0,-251.0,-68.0,7.0,57.0,-5.0,4.0,-953.0,-167.0
5.0,-249.0,-66.0,14.0,57.0,-4.0,5.0,-949.0,-165.0
8.0,-251.0,-65.0,18.0,57.0,-2.0,2.0,-954.0,-171.0
4.0,-248.0,-69.0,26.0,57.0,-4.0,6.0,-952.0,-167.0
8.0,-252.0,-65.0,34.0,58.0,-2.0,2.0,-954.0,-164.0
9.0,-251.0,-67.0,45.0,59.0,-3.0,4.0,-968.0,-174.0
7.0,-249.0,-70.0,56.0,57.0,-1.0,3.0,-955.0,-172.0
10.0,-250.0,-69.0,64.0,55.0,1.0,5.0,-952.0,-176.0
8.0,-247.0,-71.0,74.0,54.0,3.0,2.0,-954.0,-166.0
17.0,-253.0,-67.0,82.0,54.0,1.0,-3.0,-948.0,-168.0
5.0,-249.0,-68.0,87.0,56.0,4.0,2.0,-953.0,-165.0
6.0,-248.0,-65.0,91.0,56.0,3.0,1.0,-947.0,-162.0
6.0,-248.0,-66.0,92.0,55.0,6.0,1.0,-946.0,-161.0
4.0,-248.0,-64.0,90.0,53.0,4.0,0.0,-949.0,-157.0
10.0,-250.0,-66.0,85.0,54.0,6.0,0.0,-943.0,-155.0
3.0,-247.0,-64.0,75.0,52.0,5.0,-3.0,-946.0,-157.0
7.0,-248.0,-58.0,63.0,50.0,5.0,1.0,-943.0,-151.0
3.0,-248.0,-64.0,51.0,51.0,4.0,-5.0,-946.0,-146.0
5.0,-248.0,-62.0,40.0,51.0,5.0,6.0,-948.0,-148.0
8.0,-249.0,-63.0,31.0,52.0,2.0,4.0,-944.0,-144.0
3.0,-249.0,-55.0,26.0,53.0,3.0,-3.0,-944.0,-153.0
4.0,-248.0,-62.0,23.0,51.0,1.0,4.0,-943.0,-156.0
7.0,-249.0,-61.0,20.0,51.0,2.0,2.0,-948.0,-155.0
5.0,-248.0,-64.0,18.0,50.0,1.0,2.0,-941.0,-157.0
7.0,-248.0,-62.0,16.0,48.0,1.0,-1.0,-944.0,-152.0
5.0,-247.0,-64.0,18.0,46.0,0.0,0.0,-944.0,-151.0
3.0,-249.0,-63.0,22.0,45.0,1.0,-1.0,-938.0,-146.0
7.0,-246.0,-60.0,25.0,41.0,0.0,1.0,-942.0,-147.0
6.0,-247.0,-57.0,26.0,39.0,1.0,-3.0,-934.0,-145.0
5.0,-249.0,-61.0,26.0,39.0,0.0,1.0,-936.0,-147.0
14.0,-254.0,-56.0,21.0,38.0,1.0,0.0,-940.0,-143.0
7.0,-249.0,-63.0,16.0,38.0,0.0,-2.0,-942.0,-145.0
3.0,-247.0,-63.0,9.0,37.0,2.0,2.0,-943.0,-142.0
4.0,-247.0,-61.0,4.0,38.0,0.0,1.0,-948.0,-147.0
6.0,-251.0,-64.0,-2.0,38.0,0.0,3.0,-948.0,-144.0
3.0,-247.0,-63.0,-5.0,35.0,-1.0,2.0,-949.0,-146.0
8.0,-248.0,-63.0,-9.0,36.0,0.0,5.0,-955.0,-140.0
6.0,-249.0,-58.0,-15.0,36.0,-1.0,5.0,-949.0,-139.0
11.0,-251.0,-63.0,-17.0,35.0,1.0,6.0,-946.0,-145.0
8.0,-249.0,-63.0,-19.0,36.0,-2.0,8.0,-948.0,-144.0
15.0,-245.0,-64.0,-19.0,39.0,0.0,7.0,-946.0,-146.0
3.0,-249.0,-67.0,-17.0,40.0,-3.0,9.0,-942.0,-149.0
9.0,-247.0,-61.0,-14.0,42.0,-2.0,17.0,-939.0,-150.0
8.0,-248.0,-63.0,-13.0,43.0,-2.0,8.0,-941.0,-159.0
7.0,-245.0,-66.0,-16.0,42.0,-2.0,12.0,-940.0,-158.0
9.0,-248.0,-64.0,-20.0,44.0,-4.0,9.0,-944.0,-170.0
8.0,-249.0,-68.0,-27.0,48.0,-2.0,9.0,-947.0,-160.0
8.0,-249.0,-66.0,-28.0,52.0,-4.0,17.0,-947.0,-165.0
8.0,-254.0,-66.0,-27.0,57.0,-4.0,15.0,-950.0,-158.0
12.0,-252.0,-66.0,-24.0,62.0,-7.0,13.0,-953.0,-160.0
9.0,-249.0,-64.0,-20.0,67.0,-7.0,10.0,-955.0,-150.0
7.0,-253.0,-62.0,-13.0,70.0,-8.0,12.0,-956.0,-150.0
