acc1_x,acc1_y,acc1_z,gyro_x,gyro_y,gyro_z,acc2_x,acc2_y,acc2_z
24.0,-250.0,12.0,-13.0,62.0,-7.0,67.0,-934.0,161.0
21.0,-247.0,15.0,-12.0,63.0,-10.0,69.0,-940.0,160.0
23.0,-246.0,20.0,-10.0,64.0,-8.0,78.0,-938.0,158.0
22.0,-247.0,15.0,-9.0,63.0,-9.0,77.0,-942.0,160.0
24.0,-248.0,15.0,-6.0,65.0,-9.0,74.0,-937.0,156.0
25.0,-244.0,14.0,-5.0,66.0,-11.0,80.0,-937.0,158.0
24.0,-248.0,16.0,0.0,63.0,-9.0,80.0,-936.0,155.0
23.0,-249.0,14.0,1.0,64.0,-11.0,81.0,-937.0,154.0
26.0,-247.0,11.0,1.0,64.0,-8.0,77.0,-940.0,158.0
21.0,-244.0,17.0,3.0,64.0,-8.0,81.0,-938.0,159.0
24.0,-247.0,17.0,5.0,63.0,-5.0,79.0,-939.0,162.0
25.0,-245.0,18.0,8.0,60.0,-6.0,79.0,-944.0,162.0
26.0,-244.0,14.0,9.0,61.0,-4.0,80.0,-938.0,164.0
26.0,-246.0,19.0,11.0,61.0,-4.0,81.0,-942.0,164.0
19.0,-247.0,11.0,14.0,61.0,-1.0,80.0,-939.0,164.0
27.0,-250.0,27.0,16.0,61.0,-3.0,80.0,-938.0,162.0
13.0,-253.0,23.0,18.0,61.0,-1.0,80.0,-937.0,164.0
22.0,-246.0,15.0,20.0,62.0,-2.0,78.0,-939.0,160.0
22.0,-248.0,18.0,21.0,62.0,0.0,79.0,-938.0,166.0
22.0,-247.0,17.0,22.0,62.0,-2.0,79.0,-939.0,164.0
23.0,-250.0,15.0,20.0,62.0,1.0,77.0,-935.0,163.0
20.0,-246.0,21.0,19.0,62.0,-1.0,78.0,-935.0,165.0
18.0,-248.0,14.0,20.0,62.0,1.0,74.0,-939.0,166.0
21.0,-244.0,18.0,20.0,65.0,-2.0,76.0,-937.0,162.0
23.0,-248.0,19.0,23.0,66.0,0.0,79.0,-936.0,165.0
23.0,-244.0,14.0,22.0,68.0,-2.0,73.0,-931.0,164.0
23.0,-260.0,30.0,23.0,69.0,1.0,75.0,-932.0,165.0
20.0,-243.0,19.0,24.0,68.0,-2.0,79.0,-931.0,167.0
19.0,-247.0,17.0,22.0,67.0,2.0,79.0,-939.0,164.0
21.0,-245.0,17.0,17.0,67.0,-1.0,74.0,-933.0,168.0
21.0,-245.0,17.0,11.0,64.0,2.0,74.0,-940.0,165.0
19.0,-248.0,19.0,7.0,60.0,-1.0,66.0,-937.0,169.0
22.0,-248.0,19.0,5.0,58.0,1.0,72.0,-934.0,169.0
20.0,-243.0,14.0,5.0,57.0,1.0,72.0,-936.0,169.0
20.0,-246.0,17.0,8.0,56.0,2.0,76.0,-946.0,166.0
21.0,-248.0,18.0,11.0,56.0,2.0,72.0,-944.0,169.0
26.0,-246.0,18.0,15.0,54.0,3.0,79.0,-947.0,169.0
10.0,-233.0,11.0,21.0,54.0,1.0,77.0,-950.0,166.0
21.0,-252.0,21.0,28.0,54.0,6.0,79.0,-950.0,168.0
21.0,-250.0,19.0,34.0,53.0,4.0,77.0,-947.0,170.0
23.0,-253.0,18.0,40.0,52.0,7.0,76.0,-945.0,168.0
20.0,-248.0,17.0,45.0,53.0,5.0,78.0,-947.0,166.0
25.0,-246.0,22.0,50.0,55.0,8.0,76.0,-943.0,168.0
23.0,-246.0,19.0,54.0,56.0,3.0,79.0,-930.0,163.0
20.0,-241.0,18.0,54.0,61.0,3.0,79.0,-925.0,161.0
20.0,-241.0,13.0,51.0,64.0,1.0,67.0,-923.0,162.0
21.0,-240.0,15.0,45.0,66.0,2.0,65.0,-919.0,164.0
20.0,-241.0,16.0,36.0,67.0,-1.0,67.0,-914.0,165.0
10.0,-237.0,14.0,26.0,69.0,1.0,77.0,-912.0,173.0
21.0,-243.0,20.0,17.0,72.0,-1.0,73.0,-922.0,171.0
21.0,-244.0,18.0,10.0,75.0,1.0,79.0,-928.0,169.0
25.0,-246.0,20.0,6.0,76.0,-1.0,79.0,-935.0,176.0
21.0,-247.0,21.0,4.0,76.0,0.0,79.0,-939.0,178.0
21.0,-247.0,19.0,6.0,75.0,-4.0,78.0,-943.0,181.0
22.0,-250.0,22.0,10.0,71.0,-3.0,78.0,-944.0,181.0
26.0,-245.0,23.0,16.0,68.0,-6.0,80.0,-943.0,184.0
21.0,-246.0,18.0,18.0,65.0,-6.0,79.0,-938.0,184.0
18.0,-248.0,21.0,19.0,61.0,-9.0,77.0,-939.0,181.0
23.0,-240.0,24.0,21.0,56.0,-8.0,74.0,-932.0,184.0
24.0,-223.0,6.0,18.0,50.0,-12.0,73.0,-931.0,182.0
24.0,-246.0,21.0,11.0,45.0,-11.0,70.0,-933.0,185.0
22.0,-244.0,23.0,5.0,42.0,-13.0,69.0,-927.0,182.0
21.0,-244.0,25.0,-2.0,37.0,-11.0,73.0,-932.0,184.0
19.0,-245.0,25.0,-9.0,38.0,-13.0,72.0,-933.0,184.0
21.0,-248.0,21.0,-15.0,38.0,-9.0,64.0,-939.0,180.0
18.0,-246.0,24.0,-17.0,38.0,-11.0,65.0,-928.0,179.0
18.0,-246.0,22.0,-17.0,39.0,-8.0,67.0,-937.0,182.0
17.0,-246.0,19.0,-17.0,40.0,-10.0,66.0,-939.0,181.0
21.0,-250.0,21.0,-14.0,46.0,-7.0,70.0,-942.0,180.0
23.0,-248.0,21.0,-12.0,49.0,-8.0,67.0,-943.0,182.0
17.0,-250.0,31.0,-8.0,54.0,-3.0,72.0,-941.0,179.0
20.0,-249.0,16.0,-6.0,58.0,-3.0,67.0,-944.0,179.0
21.0,-250.0,18.0,-4.0,63.0,0.0,64.0,-942.0,178.0
20.0,-247.0,19.0,-1.0,67.0,-2.0,66.0,-944.0,177.0
22.0,-245.0,19.0,1.0,69.0,0.0,67.0,-935.0,174.0
21.0,-246.0,19.0,2.0,75.0,-4.0,69.0,-941.0,181.0
17.0,-244.0,22.0,1.0,77.0,-3.0,66.0,-940.0,178.0
22.0,-246.0,23.0,3.0,80.0,-6.0,71.0,-939.0,177.0
21.0,-246.0,25.0,3.0,80.0,-6.0,77.0,-940.0,178.0
24.0,-248.0,20.0,2.0,78.0,-9.0,76.0,-937.0,183.0
24.0,-243.0,18.0,2.0,75.0,-8.0,80.0,-938.0,179.0
14.0,-236.0,16.0,4.0,74.0,-10.0,80.0,-944.0,180.0
22.0,-248.0,16.0,5.0,71.0,-8.0,83.0,-937.0,179.0
23.0,-248.0,22.0,4.0,65.0,-11.0,84.0,-934.0,177.0
25.0,-246.0,20.0,5.0,61.0,-8.0,82.0,-935.0,175.0
26.0,-249.0,18.0,5.0,58.0,-10.0,82.0,-941.0,177.0
21.0,-246.0,19.0,6.0,54.0,-6.0,84.0,-934.0,173.0
23.0,-246.0,17.0,6.0,51.0,-6.0,84.0,-937.0,169.0
24.0,-245.0,22.0,7.0,51.0,-4.0,83.0,-936.0,168.0
22.0,-246.0,16.0,6.0,50.0,-5.0,83.0,-934.0,172.0
21.0,-248.0,20.0,6.0,48.0,-3.0,81.0,-937.0,177.0
23.0,-246.0,19.0,5.0,49.0,-4.0,83.0,-937.0,167.0
20.0,-239.0,16.0,4.0,49.0,-2.0,83.0,-941.0,172.0
23.0,-251.0,22.0,5.0,49.0,-5.0,80.0,-933.0,176.0
22.0,-244.0,17.0,7.0,51.0,-4.0,83.0,-935.0,167.0
21.0,-246.0,21.0,8.0,53.0,-6.0,80.0,-937.0,167.0
23.0,-247.0,21.0,11.0,55.0,-4.0,81.0,-937.0,173.0
23.0,-246.0,17.0,11.0,56.0,-7.0,81.0,-937.0,173.0
22.0,-248.0,20.0,12.0,57.0,-6.0,81.0,-937.0,178.0
22.0,-248.0,20.0,13.0,58.0,-6.0,77.0,-936.0,179.0
21.0,-245.0,21.0,15.0,57.0,-6.0,82.0,-939.0,176.0
23.0,-249.0,21.0,18.0,60.0,-9.0,78.0,-941.0,178.0
21.0,-243.0,18.0,19.0,61.0,-6.0,79.0,-937.0,176.0
18.0,-242.0,12.0,18.0,60.0,-9.0,74.0,-937.0,181.0
21.0,-245.0,20.0,21.0,58.0,-6.0,79.0,-929.0,177.0
21.0,-247.0,19.0,21.0,59.0,-9.0,75.0,-937.0,177.0
21.0,-247.0,21.0,20.0,56.0,-5.0,79.0,-938.0,179.0
21.0,-245.0,20.0,20.0,53.0,-8.0,81.0,-935.0,184.0
22.0,-245.0,23.0,20.0,54.0,-6.0,75.0,-937.0,185.0
20.0,-244.0,18.0,21.0,52.0,-6.0,74.0,-937.0,184.0
21.0,-245.0,22.0,23.0,51.0,-4.0,76.0,-935.0,184.0
23.0,-249.0,17.0,24.0,51.0,-5.0,67.0,-934.0,181.0
24.0,-249.0,21.0,23.0,49.0,-3.0,69.0,-937.0,181.0
6.0,-231.0,24.0,23.0,48.0,-5.0,78.0,-931.0,182.0
23.0,-247.0,22.0,26.0,49.0,-1.0,76.0,-933.0,186.0
20.0,-246.0,24.0,24.0,51.0,-4.0,76.0,-938.0,185.0
21.0,-246.0,20.0,22.0,52.0,-2.0,75.0,-934.0,181.0
20.0,-245.0,20.0,23.0,54.0,-4.0,76.0,-928.0,185.0
22.0,-246.0,22.0,22.0,55.0,-2.0,70.0,-928.0,188.0
21.0,-246.0,21.0,18.0,57.0,-4.0,77.0,-938.0,185.0
19.0,-245.0,20.0,18.0,59.0,-1.0,77.0,-931.0,185.0
19.0,-245.0,24.0,18.0,60.0,-5.0,75.0,-940.0,183.0
20.0,-246.0,22.0,20.0,63.0,-4.0,78.0,-930.0,186.0
21.0,-247.0,22.0,20.0,64.0,-6.0,76.0,-931.0,194.0
15.0,-242.0,27.0,21.0,63.0,-5.0,69.0,-932.0,190.0
21.0,-246.0,22.0,22.0,64.0,-8.0,75.0,-931.0,186.0
19.0,-247.0,27.0,22.0,67.0,-7.0,77.0,-932.0,189.0
22.0,-247.0,22.0,22.0,65.0,-9.0,79.0,-929.0,191.0
22.0,-246.0,22.0,23.0,64.0,-5.0,70.0,-933.0,186.0
20.0,-244.0,26.0,23.0,63.0,-8.0,67.0,-937.0,184.0
20.0,-246.0,21.0,22.0,59.0,-5.0,78.0,-928.0,189.0
19.0,-243.0,21.0,22.0,57.0,-7.0,74.0,-935.0,187.0
20.0,-244.0,21.0,23.0,55.0,-4.0,77.0,-934.0,186.0
24.0,-243.0,20.0,23.0,55.0,-7.0,79.0,-929.0,183.0
21.0,-245.0,35.0,24.0,56.0,-4.0,68.0,-929.0,191.0
24.0,-243.0,25.0,26.0,56.0,-5.0,77.0,-929.0,191.0
20.0,-243.0,22.0,25.0,55.0,-3.0,80.0,-930.0,186.0
18.0,-246.0,27.0,23.0,54.0,-4.0,78.0,-929.0,189.0
21.0,-246.0,22.0,22.0,53.0,-4.0,67.0,-932.0,183.0
23.0,-247.0,21.0,19.0,54.0,-5.0,79.0,-936.0,189.0
21.0,-246.0,21.0,15.0,51.0,-2.0,69.0,-933.0,192.0
21.0,-242.0,21.0,11.0,51.0,-5.0,67.0,-929.0,190.0
20.0,-245.0,21.0,7.0,50.0,-4.0,72.0,-928.0,196.0
22.0,-251.0,27.0,3.0,51.0,-6.0,67.0,-931.0,191.0
17.0,-241.0,24.0,-3.0,52.0,-5.0,72.0,-926.0,195.0
18.0,-246.0,27.0,-8.0,53.0,-8.0,78.0,-930.0,192.0
20.0,-234.0,7.0,-12.0,51.0,-6.0,72.0,-940.0,195.0
18.0,-246.0,24.0,-13.0,49.0,-7.0,70.0,-943.0,195.0
23.0,-249.0,27.0,-10.0,48.0,-3.0,78.0,-944.0,192.0
22.0,-252.0,26.0,-4.0,46.0,-5.0,77.0,-944.0,190.0
23.0,-249.0,23.0,5.0,46.0,0.0,78.0,-942.0,192.0
24.0,-251.0,24.0,15.0,43.0,-2.0,77.0,-943.0,186.0
22.0,-250.0,23.0,25.0,41.0,0.0,74.0,-942.0,185.0
21.0,-243.0,22.0,33.0,41.0,-2.0,74.0,-936.0,183.0
21.0,-247.0,22.0,34.0,42.0,-1.0,78.0,-928.0,181.0
19.0,-245.0,18.0,30.0,44.0,-3.0,74.0,-926.0,181.0
22.0,-241.0,22.0,23.0,45.0,-3.0,73.0,-925.0,181.0
18.0,-243.0,16.0,14.0,46.0,-5.0,74.0,-923.0,190.0
32.0,-244.0,41.0,6.0,48.0,-3.0,76.0,-925.0,185.0
28.0,-249.0,19.0,-1.0,52.0,-6.0,75.0,-924.0,193.0
20.0,-245.0,22.0,-6.0,56.0,-5.0,72.0,-925.0,193.0
21.0,-244.0,24.0,-8.0,57.0,-9.0,80.0,-929.0,194.0
20.0,-245.0,27.0,-8.0,59.0,-6.0,78.0,-931.0,193.0
20.0,-246.0,23.0,-5.0,59.0,-8.0,73.0,-928.0,198.0
20.0,-246.0,25.0,-4.0,60.0,-6.0,75.0,-935.0,199.0
20.0,-248.0,27.0,0.0,60.0,-8.0,78.0,-931.0,197.0
24.0,-246.0,23.0,3.0,58.0,-4.0,78.0,-936.0,197.0
26.0,-247.0,26.0,4.0,55.0,-7.0,78.0,-936.0,200.0
18.0,-248.0,22.0,3.0,54.0,-5.0,83.0,-934.0,195.0
26.0,-248.0,26.0,1.0,52.0,-7.0,80.0,-939.0,194.0
24.0,-248.0,24.0,1.0,51.0,-5.0,78.0,-933.0,194.0
21.0,-249.0,21.0,-1.0,49.0,-8.0,81.0,-941.0,188.0
22.0,-248.0,20.0,-3.0,48.0,-2.0,80.0,-933.0,193.0
24.0,-246.0,26.0,-5.0,47.0,-5.0,79.0,-939.0,184.0
25.0,-249.0,21.0,-8.0,46.0,-4.0,76.0,-933.0,191.0
22.0,-247.0,25.0,-10.0,47.0,-6.0,80.0,-933.0,187.0
18.0,-241.0,23.0,-11.0,46.0,-4.0,77.0,-931.0,188.0
21.0,-247.0,20.0,-12.0,48.0,-7.0,75.0,-928.0,190.0
19.0,-246.0,23.0,-15.0,49.0,-3.0,74.0,-930.0,187.0
19.0,-239.0,24.0,-17.0,51.0,-6.0,69.0,-931.0,188.0
23.0,-247.0,25.0,-19.0,51.0,-3.0,78.0,-930.0,189.0
22.0,-245.0,21.0,-20.0,54.0,-6.0,79.0,-929.0,187.0
21.0,-245.0,21.0,-21.0,54.0,-4.0,78.0,-928.0,195.0
20.0,-246.0,25.0,-22.0,56.0,-7.0,73.0,-927.0,186.0
23.0,-245.0,24.0,-21.0,58.0,-5.0,78.0,-932.0,187.0
23.0,-245.0,22.0,-20.0,58.0,-8.0,78.0,-934.0,188.0
23.0,-249.0,26.0,-21.0,60.0,-6.0,75.0,-933.0,187.0
23.0,-247.0,25.0,-19.0,60.0,-10.0,77.0,-937.0,192.0
23.0,-249.0,22.0,-19.0,61.0,-7.0,78.0,-939.0,188.0
23.0,-248.0,24.0,-17.0,59.0,-9.0,77.0,-937.0,187.0
27.0,-243.0,19.0,-15.0,58.0,-6.0,77.0,-942.0,189.0
23.0,-250.0,24.0,-12.0,56.0,-8.0,74.0,-942.0,187.0
22.0,-246.0,23.0,-10.0,55.0,-5.0,74.0,-941.0,190.0
23.0,-248.0,22.0,-5.0,56.0,-9.0,79.0,-945.0,190.0
20.0,-246.0,24.0,-3.0,55.0,-6.0,80.0,-937.0,192.0
22.0,-245.0,24.0,1.0,54.0,-7.0,80.0,-934.0,188.0
22.0,-244.0,22.0,2.0,55.0,-5.0,77.0,-930.0,192.0
22.0,-247.0,26.0,1.0,55.0,-7.0,75.0,-929.0,189.0
22.0,-242.0,19.0,0.0,54.0,-4.0,74.0,-924.0,189.0
22.0,-246.0,24.0,-4.0,56.0,-7.0,74.0,-929.0,193.0
19.0,-239.0,27.0,-7.0,57.0,-4.0,77.0,-925.0,192.0
11.0,-237.0,24.0,-9.0,60.0,-7.0,67.0,-923.0,189.0
20.0,-246.0,29.0,-12.0,60.0,-5.0,74.0,-928.0,192.0
19.0,-243.0,26.0,-14.0,61.0,-7.0,72.0,-927.0,192.0
21.0,-243.0,27.0,-14.0,63.0,-6.0,74.0,-933.0,192.0
24.0,-245.0,24.0,-15.0,61.0,-7.0,73.0,-933.0,188.0
23.0,-248.0,27.0,-14.0,62.0,-4.0,78.0,-928.0,190.0
21.0,-248.0,24.0,-13.0,60.0,-8.0,74.0,-936.0,193.0
19.0,-250.0,26.0,-11.0,58.0,-6.0,73.0,-937.0,194.0
22.0,-249.0,24.0,-9.0,56.0,-8.0,80.0,-943.0,197.0
22.0,-247.0,24.0,-5.0,56.0,-6.0,79.0,-943.0,199.0
17.0,-251.0,27.0,-3.0,56.0,-8.0,77.0,-938.0,189.0
23.0,-248.0,26.0,0.0,53.0,-5.0,78.0,-937.0,191.0
22.0,-248.0,22.0,2.0,53.0,-8.0,79.0,-937.0,188.0
20.0,-245.0,22.0,4.0,54.0,-5.0,70.0,-933.0,192.0
22.0,-244.0,23.0,6.0,53.0,-9.0,77.0,-936.0,185.0
22.0,-244.0,24.0,5.0,54.0,-6.0,68.0,-935.0,192.0
20.0,-243.0,22.0,5.0,56.0,-8.0,68.0,-933.0,191.0
18.0,-242.0,26.0,6.0,56.0,-5.0,72.0,-929.0,187.0
25.0,-247.0,28.0,5.0,57.0,-7.0,74.0,-927.0,189.0
23.0,-245.0,23.0,3.0,56.0,-5.0,76.0,-928.0,187.0
19.0,-245.0,24.0,3.0,56.0,-7.0,79.0,-930.0,193.0
27.0,-240.0,25.0,1.0,55.0,-4.0,80.0,-931.0,193.0
19.0,-244.0,21.0,1.0,56.0,-6.0,78.0,-930.0,191.0
23.0,-244.0,25.0,-2.0,56.0,-4.0,75.0,-931.0,194.0
21.0,-246.0,21.0,-4.0,54.0,-6.0,74.0,-930.0,194.0
22.0,-245.0,28.0,-5.0,54.0,-4.0,72.0,-931.0,187.0
22.0,-246.0,24.0,-8.0,55.0,-5.0,77.0,-935.0,194.0
21.0,-245.0,25.0,-10.0,55.0,-4.0,72.0,-939.0,191.0
19.0,-244.0,27.0,-10.0,55.0,-7.0,73.0,-937.0,196.0
22.0,-246.0,23.0,-10.0,54.0,-4.0,82.0,-934.0,195.0
21.0,-243.0,25.0,-8.0,55.0,-7.0,75.0,-940.0,194.0
19.0,-244.0,27.0,-5.0,54.0,-3.0,78.0,-937.0,195.0
20.0,-242.0,19.0,-2.0,53.0,-5.0,70.0,-934.0,192.0
24.0,-247.0,26.0,2.0,51.0,-4.0,74.0,-937.0,194.0
21.0,-247.0,24.0,4.0,51.0,-5.0,73.0,-933.0,189.0
19.0,-246.0,23.0,3.0,51.0,-3.0,75.0,-932.0,193.0
23.0,-249.0,23.0,3.0,50.0,-5.0,80.0,-934.0,192.0
22.0,-247.0,24.0,6.0,52.0,-3.0,76.0,-934.0,187.0
21.0,-243.0,23.0,6.0,52.0,-6.0,79.0,-933.0,189.0
23.0,-248.0,22.0,6.0,53.0,-4.0,72.0,-928.0,190.0
21.0,-246.0,23.0,6.0,55.0,-8.0,74.0,-929.0,191.0
22.0,-243.0,28.0,6.0,56.0,-5.0,77.0,-926.0,192.0
22.0,-244.0,22.0,6.0,54.0,-7.0,79.0,-929.0,188.0
33.0,-246.0,33.0,7.0,55.0,-3.0,77.0,-928.0,196.0
23.0,-244.0,22.0,6.0,55.0,-6.0,78.0,-930.0,195.0
23.0,-249.0,27.0,5.0,54.0,-3.0,79.0,-927.0,195.0
20.0,-242.0,26.0,1.0,56.0,-5.0,77.0,-927.0,193.0
24.0,-244.0,26.0,-3.0,55.0,-3.0,79.0,-927.0,196.0
22.0,-244.0,26.0,-7.0,57.0,-7.0,74.0,-927.0,200.0
20.0,-245.0,27.0,-13.0,57.0,-5.0,76.0,-923.0,201.0
19.0,-242.0,28.0,-17.0,59.0,-8.0,70.0,-925.0,201.0
23.0,-245.0,28.0,-23.0,59.0,-6.0,78.0,-929.0,201.0
24.0,-246.0,27.0,-26.0,60.0,-10.0,79.0,-935.0,199.0
22.0,-244.0,18.0,-26.0,60.0,-8.0,75.0,-939.0,201.0
22.0,-261.0,43.0,-23.0,57.0,-8.0,81.0,-948.0,198.0
22.0,-247.0,25.0,-16.0,55.0,-4.0,81.0,-949.0,196.0
21.0,-249.0,25.0,-5.0,54.0,-6.0,80.0,-947.0,198.0
24.0,-251.0,23.0,7.0,53.0,-3.0,80.0,-947.0,193.0
24.0,-251.0,22.0,17.0,52.0,-6.0,80.0,-939.0,191.0
20.0,-245.0,22.0,25.0,52.0,-3.0,79.0,-930.0,190.0
21.0,-245.0,22.0,27.0,51.0,-4.0,78.0,-929.0,186.0
21.0,-239.0,19.0,23.0,51.0,-2.0,79.0,-919.0,186.0
17.0,-241.0,24.0,17.0,50.0,-6.0,70.0,-920.0,187.0
22.0,-242.0,27.0,7.0,53.0,-4.0,77.0,-916.0,196.0
18.0,-246.0,25.0,-4.0,54.0,-5.0,75.0,-912.0,196.0
8.0,-237.0,16.0,-13.0,55.0,-5.0,72.0,-923.0,197.0
21.0,-244.0,28.0,-19.0,56.0,-6.0,72.0,-924.0,196.0
22.0,-242.0,26.0,-21.0,58.0,-4.0,74.0,-924.0,193.0
18.0,-243.0,23.0,-22.0,60.0,-6.0,72.0,-927.0,196.0
17.0,-247.0,26.0,-19.0,62.0,-4.0,78.0,-930.0,198.0
21.0,-245.0,26.0,-16.0,62.0,-6.0,79.0,-935.0,199.0
23.0,-247.0,26.0,-11.0,60.0,-4.0,78.0,-934.0,200.0
21.0,-248.0,26.0,-9.0,60.0,-7.0,80.0,-936.0,204.0
18.0,-249.0,26.0,-7.0,61.0,-3.0,79.0,-934.0,203.0
25.0,-246.0,22.0,-5.0,57.0,-6.0,77.0,-934.0,202.0
19.0,-247.0,27.0,-4.0,54.0,-3.0,79.0,-937.0,192.0
29.0,-253.0,37.0,-4.0,51.0,-5.0,76.0,-932.0,193.0
21.0,-246.0,26.0,-5.0,50.0,-3.0,77.0,-940.0,194.0
23.0,-251.0,26.0,-7.0,49.0,-5.0,80.0,-935.0,198.0
20.0,-246.0,26.0,-7.0,48.0,-2.0,74.0,-933.0,196.0
20.0,-247.0,26.0,-8.0,47.0,-3.0,77.0,-932.0,194.0
23.0,-244.0,23.0,-10.0,48.0,-2.0,77.0,-930.0,187.0
22.0,-245.0,28.0,-10.0,48.0,-6.0,76.0,-929.0,191.0
24.0,-247.0,23.0,-10.0,51.0,-4.0,77.0,-927.0,189.0
21.0,-244.0,25.0,-9.0,52.0,-5.0,80.0,-928.0,189.0
25.0,-244.0,20.0,-11.0,55.0,-3.0,80.0,-930.0,194.0
19.0,-243.0,25.0,-13.0,57.0,-4.0,73.0,-926.0,193.0
23.0,-260.0,30.0,-14.0,58.0,-3.0,76.0,-927.0,194.0
21.0,-243.0,28.0,-15.0,59.0,-6.0,78.0,-933.0,194.0
22.0,-245.0,25.0,-15.0,59.0,-4.0,75.0,-934.0,194.0
22.0,-246.0,22.0,-13.0,58.0,-7.0,75.0,-931.0,197.0
24.0,-245.0,25.0,-13.0,58.0,-5.0,77.0,-936.0,196.0
19.0,-244.0,24.0,-13.0,58.0,-8.0,77.0,-933.0,197.0
21.0,-247.0,24.0,-12.0,56.0,-6.0,77.0,-931.0,197.0
20.0,-245.0,24.0,-12.0,55.0,-7.0,77.0,-934.0,191.0
20.0,-247.0,24.0,-13.0,53.0,-5.0,78.0,-937.0,195.0
22.0,-247.0,21.0,-12.0,54.0,-8.0,81.0,-938.0,191.0
21.0,-247.0,29.0,-11.0,54.0,-5.0,80.0,-934.0,194.0
22.0,-232.0,12.0,-10.0,53.0,-9.0,80.0,-934.0,192.0
24.0,-248.0,27.0,-9.0,52.0,-6.0,77.0,-932.0,194.0
22.0,-248.0,25.0,-6.0,54.0,-8.0,79.0,-933.0,193.0
21.0,-247.0,23.0,-5.0,54.0,-5.0,78.0,-927.0,197.0
20.0,-244.0,24.0,-5.0,55.0,-8.0,75.0,-933.0,195.0
22.0,-245.0,25.0,-4.0,55.0,-5.0,80.0,-933.0,196.0
23.0,-247.0,21.0,-3.0,55.0,-6.0,79.0,-930.0,200.0
25.0,-245.0,26.0,-4.0,56.0,-2.0,79.0,-931.0,196.0
22.0,-242.0,24.0,-8.0,57.0,-6.0,77.0,-929.0,198.0
21.0,-244.0,24.0,-12.0,58.0,-3.0,75.0,-930.0,198.0
22.0,-245.0,24.0,-17.0,60.0,-6.0,79.0,-928.0,199.0
11.0,-242.0,23.0,-21.0,61.0,-6.0,77.0,-932.0,194.0
22.0,-244.0,25.0,-23.0,62.0,-9.0,79.0,-936.0,191.0
22.0,-248.0,22.0,-24.0,63.0,-8.0,74.0,-931.0,197.0
22.0,-250.0,26.0,-22.0,65.0,-10.0,81.0,-937.0,198.0
22.0,-247.0,28.0,-16.0,63.0,-9.0,78.0,-938.0,199.0
26.0,-250.0,24.0,-8.0,62.0,-10.0,79.0,-942.0,196.0
23.0,-246.0,26.0,0.0,61.0,-8.0,77.0,-941.0,197.0
24.0,-246.0,21.0,8.0,59.0,-9.0,75.0,-942.0,195.0
21.0,-248.0,26.0,14.0,59.0,-8.0,78.0,-938.0,194.0
21.0,-248.0,23.0,20.0,58.0,-9.0,79.0,-937.0,193.0
24.0,-247.0,26.0,25.0,58.0,-7.0,83.0,-938.0,190.0
21.0,-243.0,26.0,24.0,56.0,-9.0,76.0,-933.0,191.0
23.0,-245.0,23.0,23.0,55.0,-7.0,78.0,-934.0,193.0
22.0,-244.0,24.0,21.0,53.0,-9.0,73.0,-932.0,189.0
22.0,-243.0,25.0,19.0,52.0,-8.0,75.0,-929.0,198.0
21.0,-244.0,24.0,15.0,51.0,-9.0,77.0,-926.0,196.0
19.0,-241.0,25.0,12.0,51.0,-6.0,72.0,-923.0,193.0
21.0,-242.0,22.0,9.0,49.0,-9.0,74.0,-925.0,195.0
20.0,-240.0,22.0,7.0,50.0,-8.0,67.0,-925.0,196.0
20.0,-244.0,31.0,3.0,50.0,-9.0,72.0,-926.0,197.0
25.0,-241.0,27.0,1.0,49.0,-6.0,79.0,-925.0,204.0
35.0,-239.0,24.0,-1.0,49.0,-9.0,78.0,-924.0,206.0
21.0,-246.0,27.0,-3.0,49.0,-5.0,74.0,-927.0,202.0
22.0,-242.0,25.0,-4.0,50.0,-8.0,71.0,-927.0,200.0
21.0,-247.0,30.0,-5.0,50.0,-6.0,77.0,-930.0,205.0
23.0,-245.0,25.0,-5.0,48.0,-7.0,69.0,-931.0,205.0
19.0,-248.0,28.0,-7.0,48.0,-6.0,74.0,-937.0,203.0
18.0,-246.0,28.0,-6.0,49.0,-7.0,70.0,-931.0,203.0
20.0,-247.0,26.0,-6.0,51.0,-6.0,71.0,-932.0,201.0
22.0,-242.0,27.0,-4.0,51.0,-7.0,70.0,-932.0,202.0
18.0,-240.0,28.0,-3.0,50.0,-5.0,74.0,-937.0,201.0
22.0,-247.0,26.0,-3.0,51.0,-8.0,71.0,-939.0,204.0
27.0,-241.0,26.0,-1.0,53.0,-6.0,74.0,-936.0,200.0
22.0,-246.0,28.0,-2.0,54.0,-7.0,72.0,-933.0,204.0
20.0,-246.0,28.0,-1.0,52.0,-6.0,73.0,-933.0,203.0
22.0,-246.0,29.0,3.0,54.0,-7.0,78.0,-934.0,199.0
19.0,-243.0,25.0,4.0,53.0,-6.0,80.0,-938.0,198.0
20.0,-245.0,26.0,5.0,55.0,-6.0,69.0,-928.0,200.0
22.0,-245.0,28.0,6.0,55.0,-7.0,78.0,-926.0,199.0
22.0,-242.0,26.0,6.0,57.0,-7.0,78.0,-926.0,199.0
23.0,-243.0,27.0,7.0,58.0,-5.0,80.0,-932.0,200.0
23.0,-245.0,24.0,5.0,59.0,-6.0,82.0,-927.0,199.0
25.0,-250.0,34.0,2.0,58.0,-3.0,85.0,-920.0,200.0
25.0,-243.0,27.0,-3.0,55.0,-4.0,82.0,-925.0,202.0
22.0,-244.0,27.0,-8.0,54.0,-1.0,81.0,-925.0,201.0
23.0,-243.0,26.0,-13.0,53.0,0.0,83.0,-924.0,200.0
22.0,-243.0,28.0,-20.0,54.0,0.0,81.0,-922.0,201.0
22.0,-245.0,28.0,-28.0,54.0,-3.0,80.0,-925.0,204.0
23.0,-244.0,31.0,-32.0,54.0,-4.0,76.0,-929.0,204.0
21.0,-248.0,27.0,-34.0,55.0,-6.0,83.0,-929.0,205.0
23.0,-249.0,29.0,-35.0,57.0,-4.0,80.0,-937.0,204.0
22.0,-250.0,29.0,-33.0,60.0,-5.0,81.0,-939.0,202.0
23.0,-251.0,31.0,-28.0,58.0,-2.0,84.0,-945.0,200.0
21.0,-253.0,31.0,-21.0,56.0,-4.0,87.0,-954.0,199.0
33.0,-245.0,21.0,-10.0,54.0,-1.0,82.0,-945.0,200.0
18.0,-235.0,17.0,3.0,52.0,-2.0,84.0,-942.0,198.0
24.0,-245.0,24.0,14.0,50.0,2.0,86.0,-934.0,192.0
26.0,-246.0,21.0,21.0,49.0,1.0,80.0,-927.0,194.0
22.0,-242.0,23.0,21.0,49.0,2.0,82.0,-922.0,190.0
22.0,-240.0,26.0,19.0,48.0,0.0,82.0,-916.0,190.0
26.0,-245.0,24.0,11.0,47.0,2.0,77.0,-909.0,195.0
21.0,-239.0,24.0,1.0,49.0,1.0,81.0,-914.0,196.0
22.0,-241.0,22.0,-8.0,51.0,1.0,81.0,-913.0,197.0
22.0,-244.0,26.0,-18.0,50.0,0.0,77.0,-913.0,201.0
23.0,-242.0,28.0,-26.0,53.0,0.0,80.0,-920.0,206.0
34.0,-246.0,30.0,-29.0,55.0,-2.0,79.0,-922.0,208.0
24.0,-243.0,28.0,-28.0,56.0,-1.0,75.0,-924.0,211.0
19.0,-243.0,30.0,-27.0,57.0,-2.0,78.0,-937.0,211.0
20.0,-245.0,28.0,-24.0,56.0,0.0,77.0,-934.0,209.0
22.0,-246.0,29.0,-22.0,58.0,0.0,75.0,-939.0,206.0
21.0,-245.0,23.0,-22.0,58.0,3.0,74.0,-936.0,208.0
21.0,-246.0,25.0,-22.0,57.0,1.0,75.0,-937.0,205.0
22.0,-243.0,25.0,-22.0,55.0,4.0,78.0,-938.0,206.0
22.0,-249.0,25.0,-23.0,52.0,3.0,72.0,-937.0,203.0
21.0,-249.0,25.0,-21.0,50.0,7.0,71.0,-933.0,202.0
20.0,-247.0,22.0,-17.0,49.0,6.0,73.0,-934.0,199.0
11.0,-244.0,24.0,-13.0,48.0,7.0,71.0,-936.0,199.0
22.0,-249.0,24.0,-10.0,47.0,6.0,80.0,-934.0,198.0
23.0,-243.0,24.0,-6.0,47.0,7.0,77.0,-930.0,192.0
21.0,-245.0,26.0,-4.0,48.0,5.0,77.0,-932.0,197.0
22.0,-242.0,26.0,-2.0,49.0,7.0,77.0,-930.0,195.0
21.0,-244.0,24.0,0.0,50.0,5.0,78.0,-929.0,190.0
20.0,-244.0,23.0,-1.0,49.0,6.0,73.0,-927.0,198.0
25.0,-242.0,27.0,-2.0,50.0,4.0,72.0,-927.0,195.0
25.0,-244.0,23.0,-5.0,53.0,4.0,75.0,-928.0,190.0
22.0,-246.0,23.0,-8.0,54.0,5.0,79.0,-929.0,193.0
17.0,-245.0,26.0,-8.0,56.0,5.0,69.0,-933.0,189.0
29.0,-254.0,36.0,-9.0,56.0,2.0,73.0,-935.0,193.0
22.0,-247.0,23.0,-9.0,58.0,4.0,73.0,-930.0,198.0
22.0,-248.0,25.0,-10.0,58.0,1.0,77.0,-941.0,201.0
20.0,-243.0,28.0,-8.0,59.0,1.0,70.0,-932.0,200.0
21.0,-247.0,23.0,-7.0,60.0,0.0,70.0,-934.0,199.0
21.0,-249.0,27.0,-4.0,60.0,2.0,73.0,-930.0,197.0
22.0,-246.0,25.0,-3.0,59.0,1.0,78.0,-932.0,201.0
22.0,-249.0,28.0,1.0,57.0,1.0,74.0,-931.0,199.0
20.0,-245.0,28.0,1.0,56.0,0.0,78.0,-933.0,200.0
21.0,-243.0,25.0,2.0,55.0,1.0,78.0,-934.0,197.0
19.0,-247.0,27.0,1.0,52.0,0.0,78.0,-929.0,195.0
22.0,-238.0,18.0,-1.0,52.0,3.0,79.0,-932.0,199.0
22.0,-246.0,26.0,-2.0,49.0,2.0,78.0,-930.0,201.0
22.0,-245.0,25.0,-6.0,47.0,3.0,73.0,-929.0,196.0
18.0,-246.0,28.0,-7.0,48.0,3.0,80.0,-927.0,200.0
21.0,-246.0,25.0,-7.0,44.0,4.0,76.0,-933.0,201.0
21.0,-244.0,28.0,-10.0,43.0,3.0,79.0,-931.0,200.0
20.0,-240.0,21.0,-10.0,43.0,3.0,74.0,-929.0,201.0
22.0,-241.0,24.0,-11.0,41.0,3.0,74.0,-923.0,200.0
22.0,-243.0,32.0,-9.0,41.0,3.0,73.0,-936.0,202.0
19.0,-248.0,25.0,-6.0,41.0,0.0,74.0,-925.0,203.0
30.0,-243.0,15.0,-5.0,39.0,-2.0,78.0,-931.0,203.0
20.0,-243.0,25.0,-5.0,42.0,-4.0,70.0,-928.0,203.0
20.0,-245.0,30.0,-3.0,42.0,-3.0,71.0,-926.0,203.0
20.0,-247.0,27.0,-4.0,43.0,-5.0,65.0,-937.0,203.0
19.0,-242.0,29.0,-2.0,45.0,-5.0,70.0,-929.0,201.0
21.0,-249.0,26.0,-1.0,47.0,-5.0,71.0,-932.0,202.0
20.0,-248.0,28.0,0.0,51.0,-6.0,66.0,-941.0,203.0
22.0,-246.0,29.0,2.0,53.0,-8.0,66.0,-931.0,205.0
19.0,-244.0,25.0,3.0,56.0,-7.0,69.0,-934.0,203.0
18.0,-247.0,27.0,3.0,56.0,-8.0,71.0,-930.0,200.0
17.0,-248.0,35.0,3.0,58.0,-8.0,67.0,-926.0,200.0
34.0,-239.0,20.0,4.0,61.0,-11.0,71.0,-930.0,202.0
20.0,-246.0,25.0,4.0,61.0,-11.0,67.0,-928.0,203.0
19.0,-242.0,25.0,4.0,61.0,-12.0,73.0,-929.0,200.0
22.0,-245.0,24.0,4.0,59.0,-11.0,68.0,-930.0,200.0
18.0,-243.0,28.0,3.0,59.0,-10.0,73.0,-929.0,199.0
19.0,-246.0,27.0,2.0,58.0,-11.0,68.0,-926.0,201.0
19.0,-243.0,25.0,2.0,57.0,-12.0,77.0,-930.0,201.0
21.0,-247.0,25.0,2.0,56.0,-11.0,74.0,-928.0,200.0
19.0,-243.0,25.0,1.0,57.0,-12.0,67.0,-931.0,206.0
20.0,-242.0,28.0,1.0,58.0,-13.0,68.0,-931.0,201.0
21.0,-244.0,25.0,1.0,57.0,-13.0,71.0,-929.0,201.0
11.0,-240.0,17.0,-1.0,59.0,-13.0,66.0,-924.0,203.0
22.0,-246.0,27.0,-2.0,60.0,-14.0,77.0,-935.0,200.0
20.0,-244.0,25.0,-5.0,62.0,-15.0,74.0,-933.0,196.0
20.0,-246.0,28.0,-7.0,64.0,-15.0,77.0,-938.0,202.0
23.0,-247.0,28.0,-7.0,67.0,-14.0,75.0,-933.0,198.0
21.0,-245.0,27.0,-6.0,67.0,-14.0,79.0,-934.0,198.0
24.0,-247.0,30.0,-4.0,70.0,-14.0,76.0,-938.0,199.0
22.0,-248.0,27.0,-2.0,68.0,-14.0,80.0,-936.0,199.0
20.0,-247.0,24.0,4.0,69.0,-12.0,77.0,-931.0,207.0
25.0,-247.0,26.0,9.0,68.0,-12.0,79.0,-928.0,199.0
21.0,-243.0,21.0,11.0,67.0,-9.0,81.0,-927.0,202.0
33.0,-235.0,17.0,11.0,66.0,-9.0,81.0,-927.0,200.0
24.0,-245.0,29.0,10.0,63.0,-6.0,86.0,-929.0,199.0
19.0,-241.0,25.0,8.0,61.0,-6.0,80.0,-933.0,200.0
23.0,-243.0,28.0,6.0,58.0,-5.0,82.0,-931.0,200.0
22.0,-245.0,27.0,5.0,58.0,-6.0,83.0,-925.0,201.0
23.0,-246.0,27.0,4.0,56.0,-6.0,84.0,-925.0,203.0
25.0,-244.0,30.0,1.0,57.0,-7.0,84.0,-926.0,205.0
26.0,-245.0,27.0,1.0,57.0,-6.0,81.0,-925.0,207.0
21.0,-246.0,28.0,1.0,58.0,-5.0,81.0,-925.0,206.0
24.0,-243.0,30.0,1.0,57.0,-4.0,83.0,-925.0,206.0
22.0,-244.0,27.0,0.0,54.0,-2.0,85.0,-927.0,206.0
19.0,-239.0,22.0,-1.0,53.0,-1.0,79.0,-932.0,206.0
20.0,-242.0,29.0,-3.0,51.0,1.0,81.0,-924.0,210.0
21.0,-242.0,27.0,-4.0,51.0,1.0,80.0,-927.0,207.0
23.0,-246.0,32.0,-5.0,51.0,1.0,79.0,-929.0,209.0
22.0,-244.0,25.0,-8.0,51.0,0.0,75.0,-928.0,209.0
20.0,-244.0,28.0,-11.0,51.0,-1.0,69.0,-930.0,209.0
26.0,-246.0,29.0,-10.0,51.0,-2.0,78.0,-934.0,211.0
23.0,-249.0,30.0,-11.0,51.0,-3.0,79.0,-939.0,213.0
24.0,-248.0,31.0,-8.0,51.0,-3.0,81.0,-941.0,208.0
21.0,-249.0,34.0,-3.0,49.0,-4.0,76.0,-941.0,212.0
23.0,-246.0,27.0,4.0,47.0,-2.0,79.0,-940.0,207.0
28.0,-240.0,19.0,13.0,42.0,-2.0,81.0,-945.0,209.0
22.0,-248.0,29.0,20.0,38.0,-2.0,80.0,-937.0,209.0
22.0,-246.0,31.0,26.0,36.0,0.0,77.0,-932.0,200.0
26.0,-248.0,26.0,30.0,34.0,-2.0,78.0,-929.0,197.0
20.0,-243.0,23.0,29.0,33.0,0.0,73.0,-924.0,199.0
20.0,-240.0,25.0,24.0,34.0,0.0,73.0,-918.0,202.0
22.0,-243.0,27.0,17.0,36.0,-1.0,70.0,-913.0,199.0
21.0,-239.0,28.0,7.0,37.0,-1.0,70.0,-910.0,206.0
19.0,-240.0,33.0,-5.0,41.0,-2.0,66.0,-915.0,206.0
19.0,-243.0,28.0,-14.0,44.0,-1.0,69.0,-921.0,208.0
17.0,-243.0,30.0,-22.0,50.0,-1.0,66.0,-920.0,208.0
17.0,-238.0,32.0,-26.0,53.0,-2.0,66.0,-925.0,217.0
17.0,-241.0,30.0,-29.0,57.0,0.0,68.0,-922.0,212.0
18.0,-245.0,31.0,-29.0,61.0,0.0,66.0,-931.0,210.0
20.0,-246.0,33.0,-27.0,63.0,0.0,67.0,-929.0,211.0
23.0,-247.0,27.0,-26.0,66.0,1.0,72.0,-933.0,213.0
17.0,-246.0,32.0,-25.0,66.0,2.0,66.0,-932.0,214.0
20.0,-249.0,30.0,-23.0,67.0,2.0,75.0,-934.0,213.0
22.0,-248.0,33.0,-21.0,65.0,3.0,69.0,-934.0,211.0
21.0,-247.0,27.0,-20.0,65.0,3.0,78.0,-931.0,210.0
20.0,-247.0,35.0,-16.0,65.0,4.0,77.0,-936.0,215.0
20.0,-247.0,30.0,-14.0,64.0,4.0,79.0,-930.0,207.0
10.0,-243.0,28.0,-11.0,63.0,3.0,79.0,-928.0,208.0
20.0,-245.0,31.0,-11.0,61.0,4.0,81.0,-930.0,206.0
23.0,-245.0,29.0,-11.0,59.0,4.0,77.0,-927.0,205.0
21.0,-245.0,29.0,-11.0,58.0,4.0,78.0,-929.0,210.0
23.0,-244.0,28.0,-12.0,56.0,4.0,80.0,-927.0,203.0
23.0,-244.0,26.0,-14.0,56.0,4.0,79.0,-928.0,205.0
21.0,-242.0,29.0,-16.0,55.0,4.0,78.0,-925.0,207.0
22.0,-242.0,24.0,-17.0,55.0,3.0,77.0,-924.0,202.0
21.0,-242.0,25.0,-21.0,54.0,4.0,71.0,-923.0,204.0
21.0,-245.0,25.0,-25.0,54.0,3.0,74.0,-927.0,202.0
23.0,-244.0,26.0,-26.0,54.0,5.0,78.0,-921.0,202.0
26.0,-233.0,17.0,-29.0,53.0,4.0,75.0,-924.0,205.0
20.0,-244.0,28.0,-33.0,53.0,4.0,80.0,-925.0,203.0
20.0,-244.0,28.0,-34.0,52.0,3.0,76.0,-927.0,202.0
21.0,-246.0,28.0,-35.0,54.0,4.0,79.0,-928.0,206.0
24.0,-246.0,29.0,-37.0,54.0,6.0,80.0,-925.0,203.0
22.0,-244.0,24.0,-38.0,56.0,4.0,75.0,-928.0,205.0
25.0,-247.0,30.0,-39.0,56.0,3.0,81.0,-939.0,204.0
25.0,-245.0,25.0,-39.0,56.0,4.0,78.0,-931.0,204.0
22.0,-247.0,24.0,-38.0,56.0,2.0,81.0,-937.0,207.0
24.0,-249.0,30.0,-35.0,54.0,4.0,79.0,-937.0,205.0
23.0,-245.0,28.0,-35.0,53.0,4.0,75.0,-936.0,206.0
26.0,-240.0,16.0,-32.0,50.0,5.0,79.0,-933.0,204.0
19.0,-245.0,25.0,-32.0,48.0,4.0,80.0,-933.0,204.0
22.0,-248.0,25.0,-31.0,49.0,4.0,79.0,-930.0,200.0
20.0,-244.0,27.0,-32.0,50.0,3.0,80.0,-929.0,201.0
22.0,-245.0,28.0,-33.0,51.0,3.0,77.0,-928.0,200.0
20.0,-245.0,29.0,-36.0,52.0,2.0,72.0,-927.0,199.0
18.0,-241.0,27.0,-40.0,53.0,2.0,69.0,-925.0,201.0
21.0,-245.0,26.0,-41.0,52.0,-1.0,76.0,-927.0,202.0
24.0,-243.0,29.0,-43.0,54.0,1.0,78.0,-928.0,203.0
23.0,-251.0,20.0,-44.0,54.0,-1.0,68.0,-930.0,203.0
18.0,-237.0,19.0,-43.0,54.0,0.0,76.0,-927.0,204.0
22.0,-244.0,27.0,-41.0,56.0,-2.0,77.0,-928.0,203.0
20.0,-245.0,24.0,-40.0,57.0,-1.0,70.0,-929.0,202.0
21.0,-245.0,24.0,-37.0,58.0,-3.0,67.0,-928.0,204.0
24.0,-244.0,26.0,-37.0,59.0,-3.0,70.0,-929.0,200.0
21.0,-245.0,23.0,-36.0,61.0,-3.0,73.0,-933.0,198.0
17.0,-244.0,26.0,-36.0,60.0,0.0,72.0,-931.0,201.0
23.0,-245.0,29.0,-35.0,60.0,-2.0,77.0,-928.0,200.0
21.0,-249.0,22.0,-36.0,60.0,-2.0,71.0,-934.0,199.0
17.0,-246.0,26.0,-36.0,60.0,-1.0,69.0,-929.0,198.0
19.0,-244.0,26.0,-36.0,60.0,0.0,66.0,-931.0,206.0
1.0,-248.0,40.0,-34.0,61.0,-2.0,69.0,-934.0,200.0
21.0,-248.0,27.0,-34.0,61.0,-2.0,71.0,-928.0,202.0
19.0,-244.0,25.0,-34.0,59.0,-3.0,68.0,-928.0,199.0
21.0,-245.0,29.0,-34.0,57.0,-4.0,69.0,-937.0,197.0
21.0,-247.0,26.0,-35.0,55.0,-4.0,67.0,-934.0,200.0
20.0,-249.0,26.0,-34.0,54.0,-3.0,73.0,-937.0,200.0
21.0,-248.0,26.0,-34.0,52.0,-5.0,70.0,-932.0,197.0
22.0,-245.0,31.0,-33.0,51.0,-5.0,67.0,-933.0,198.0
20.0,-246.0,28.0,-32.0,51.0,-7.0,69.0,-941.0,196.0
21.0,-245.0,26.0,-33.0,51.0,-6.0,73.0,-933.0,200.0
17.0,-244.0,24.0,-31.0,53.0,-6.0,66.0,-931.0,198.0
21.0,-238.0,21.0,-30.0,52.0,-5.0,71.0,-935.0,198.0
22.0,-247.0,23.0,-29.0,53.0,-5.0,67.0,-933.0,198.0
21.0,-246.0,25.0,-28.0,53.0,-6.0,67.0,-932.0,196.0
20.0,-247.0,28.0,-27.0,52.0,-7.0,69.0,-933.0,203.0
18.0,-243.0,26.0,-28.0,52.0,-6.0,74.0,-933.0,200.0
21.0,-245.0,27.0,-29.0,53.0,-8.0,73.0,-929.0,199.0
21.0,-245.0,26.0,-28.0,53.0,-6.0,71.0,-927.0,200.0
21.0,-247.0,30.0,-28.0,52.0,-6.0,67.0,-926.0,199.0
20.0,-244.0,27.0,-30.0,51.0,-4.0,72.0,-927.0,200.0
20.0,-243.0,27.0,-33.0,52.0,-6.0,69.0,-927.0,203.0
21.0,-245.0,26.0,-32.0,51.0,-4.0,66.0,-928.0,202.0
26.0,-234.0,16.0,-33.0,51.0,-5.0,66.0,-927.0,197.0
18.0,-241.0,28.0,-36.0,51.0,-4.0,66.0,-927.0,197.0
24.0,-247.0,26.0,-41.0,49.0,-5.0,76.0,-930.0,200.0
21.0,-247.0,26.0,-43.0,47.0,-4.0,71.0,-931.0,197.0
20.0,-243.0,28.0,-46.0,47.0,-5.0,67.0,-929.0,198.0
20.0,-247.0,26.0,-47.0,49.0,-3.0,71.0,-931.0,201.0
20.0,-243.0,26.0,-44.0,49.0,-5.0,73.0,-935.0,199.0
19.0,-250.0,33.0,-41.0,49.0,-3.0,69.0,-931.0,199.0
20.0,-247.0,25.0,-39.0,51.0,-5.0,71.0,-931.0,198.0
22.0,-245.0,23.0,-35.0,51.0,-4.0,79.0,-929.0,199.0
24.0,-244.0,21.0,-32.0,52.0,-4.0,79.0,-931.0,200.0
19.0,-239.0,14.0,-31.0,52.0,-3.0,74.0,-928.0,199.0
24.0,-247.0,23.0,-33.0,53.0,-2.0,75.0,-927.0,201.0
22.0,-244.0,27.0,-38.0,52.0,-3.0,78.0,-929.0,201.0
20.0,-244.0,24.0,-42.0,54.0,-4.0,77.0,-925.0,201.0
16.0,-244.0,24.0,-45.0,57.0,-2.0,78.0,-930.0,205.0
21.0,-249.0,29.0,-46.0,53.0,-6.0,71.0,-935.0,207.0
23.0,-246.0,25.0,-49.0,52.0,-4.0,79.0,-934.0,207.0
21.0,-247.0,25.0,-50.0,50.0,-6.0,76.0,-935.0,200.0
21.0,-248.0,29.0,-47.0,47.0,-4.0,77.0,-935.0,204.0
21.0,-248.0,22.0,-43.0,46.0,-7.0,72.0,-938.0,204.0
18.0,-245.0,26.0,-41.0,44.0,-6.0,72.0,-938.0,207.0
27.0,-255.0,36.0,-39.0,39.0,-7.0,72.0,-939.0,204.0
18.0,-248.0,23.0,-36.0,35.0,-5.0,73.0,-942.0,194.0
19.0,-246.0,27.0,-37.0,36.0,-8.0,71.0,-932.0,198.0
19.0,-245.0,27.0,-38.0,37.0,-7.0,72.0,-931.0,194.0
20.0,-243.0,25.0,-41.0,38.0,-10.0,68.0,-927.0,193.0
21.0,-244.0,23.0,-45.0,40.0,-10.0,65.0,-924.0,190.0
21.0,-243.0,22.0,-48.0,42.0,-12.0,63.0,-919.0,189.0
20.0,-242.0,24.0,-52.0,47.0,-10.0,65.0,-920.0,190.0
21.0,-243.0,25.0,-60.0,54.0,-14.0,67.0,-924.0,189.0
20.0,-248.0,22.0,-64.0,57.0,-11.0,65.0,-923.0,188.0
17.0,-247.0,26.0,-65.0,63.0,-12.0,68.0,-930.0,191.0
32.0,-236.0,18.0,-62.0,66.0,-9.0,73.0,-934.0,185.0
22.0,-250.0,25.0,-57.0,70.0,-12.0,70.0,-941.0,193.0
20.0,-250.0,24.0,-47.0,69.0,-10.0,70.0,-941.0,190.0
22.0,-253.0,23.0,-37.0,66.0,-11.0,79.0,-947.0,189.0
21.0,-250.0,23.0,-27.0,64.0,-8.0,74.0,-946.0,185.0
21.0,-248.0,23.0,-18.0,61.0,-12.0,69.0,-942.0,186.0
22.0,-248.0,20.0,-13.0,60.0,-11.0,69.0,-942.0,183.0
21.0,-251.0,22.0,-9.0,58.0,-13.0,76.0,-938.0,183.0
22.0,-247.0,20.0,-8.0,56.0,-12.0,77.0,-937.0,180.0
20.0,-246.0,20.0,-8.0,54.0,-15.0,77.0,-937.0,187.0
20.0,-246.0,23.0,-9.0,53.0,-12.0,75.0,-931.0,184.0
11.0,-230.0,18.0,-11.0,52.0,-13.0,76.0,-930.0,180.0
20.0,-245.0,22.0,-14.0,52.0,-11.0,71.0,-927.0,183.0
20.0,-245.0,25.0,-16.0,49.0,-12.0,76.0,-927.0,183.0
23.0,-243.0,20.0,-18.0,48.0,-8.0,77.0,-929.0,183.0
22.0,-244.0,25.0,-19.0,48.0,-9.0,79.0,-926.0,185.0
25.0,-246.0,21.0,-21.0,48.0,-6.0,76.0,-927.0,186.0
21.0,-244.0,23.0,-21.0,49.0,-7.0,74.0,-932.0,184.0
19.0,-246.0,23.0,-23.0,51.0,-5.0,80.0,-930.0,180.0
18.0,-244.0,29.0,-23.0,54.0,-6.0,77.0,-929.0,185.0
19.0,-247.0,23.0,-23.0,54.0,-4.0,72.0,-935.0,185.0
21.0,-245.0,21.0,-22.0,53.0,-6.0,76.0,-929.0,186.0
28.0,-242.0,19.0,-22.0,54.0,-5.0,74.0,-931.0,183.0
23.0,-246.0,25.0,-20.0,54.0,-6.0,78.0,-930.0,188.0
21.0,-246.0,24.0,-20.0,53.0,-6.0,79.0,-931.0,189.0
19.0,-246.0,23.0,-17.0,53.0,-7.0,71.0,-932.0,189.0
22.0,-246.0,23.0,-16.0,54.0,-5.0,78.0,-937.0,191.0
22.0,-247.0,24.0,-12.0,54.0,-7.0,72.0,-937.0,192.0
23.0,-247.0,27.0,-12.0,53.0,-6.0,76.0,-942.0,195.0
19.0,-245.0,32.0,-8.0,52.0,-9.0,72.0,-944.0,197.0
21.0,-248.0,22.0,-6.0,52.0,-6.0,74.0,-939.0,197.0
24.0,-242.0,22.0,-3.0,52.0,-8.0,75.0,-936.0,194.0
19.0,-254.0,43.0,-2.0,53.0,-6.0,70.0,-934.0,195.0
22.0,-244.0,24.0,0.0,52.0,-8.0,69.0,-936.0,194.0
20.0,-244.0,24.0,0.0,53.0,-5.0,77.0,-932.0,195.0
20.0,-246.0,27.0,0.0,53.0,-6.0,76.0,-928.0,200.0
20.0,-245.0,22.0,-1.0,52.0,-4.0,74.0,-929.0,200.0
22.0,-246.0,24.0,-3.0,53.0,-5.0,72.0,-928.0,199.0
19.0,-242.0,26.0,-5.0,53.0,-3.0,71.0,-927.0,192.0
18.0,-244.0,25.0,-11.0,53.0,-5.0,67.0,-928.0,199.0
20.0,-246.0,26.0,-15.0,54.0,-4.0,69.0,-927.0,199.0
21.0,-247.0,27.0,-17.0,55.0,-7.0,70.0,-929.0,198.0
23.0,-247.0,25.0,-20.0,54.0,-4.0,70.0,-923.0,197.0
28.0,-236.0,14.0,-21.0,55.0,-6.0,76.0,-927.0,198.0
19.0,-245.0,30.0,-21.0,54.0,-5.0,68.0,-931.0,195.0
23.0,-247.0,28.0,-21.0,54.0,-7.0,74.0,-930.0,197.0
21.0,-247.0,22.0,-21.0,55.0,-6.0,77.0,-933.0,195.0
20.0,-245.0,26.0,-20.0,56.0,-8.0,72.0,-931.0,197.0
21.0,-247.0,25.0,-18.0,56.0,-8.0,73.0,-933.0,198.0
25.0,-247.0,24.0,-16.0,58.0,-10.0,75.0,-936.0,196.0
19.0,-249.0,24.0,-13.0,57.0,-7.0,77.0,-939.0,194.0
21.0,-248.0,26.0,-11.0,58.0,-10.0,75.0,-933.0,194.0
22.0,-246.0,26.0,-8.0,60.0,-7.0,69.0,-938.0,192.0
17.0,-245.0,17.0,-9.0,60.0,-10.0,79.0,-940.0,193.0
28.0,-249.0,39.0,-8.0,59.0,-7.0,72.0,-945.0,191.0
23.0,-245.0,22.0,-6.0,60.0,-9.0,66.0,-927.0,191.0
19.0,-247.0,24.0,-5.0,61.0,-7.0,66.0,-934.0,186.0
21.0,-244.0,21.0,-4.0,60.0,-9.0,73.0,-937.0,191.0
20.0,-246.0,23.0,-3.0,61.0,-6.0,69.0,-931.0,186.0
23.0,-247.0,22.0,-5.0,61.0,-9.0,76.0,-929.0,189.0
21.0,-243.0,24.0,-7.0,61.0,-7.0,69.0,-927.0,189.0
20.0,-247.0,23.0,-9.0,61.0,-10.0,74.0,-930.0,194.0
22.0,-243.0,23.0,-12.0,61.0,-8.0,71.0,-931.0,192.0
19.0,-243.0,22.0,-13.0,61.0,-9.0,73.0,-928.0,191.0
21.0,-245.0,28.0,-15.0,59.0,-7.0,69.0,-927.0,189.0
18.0,-240.0,11.0,-16.0,58.0,-9.0,70.0,-926.0,192.0
22.0,-246.0,24.0,-17.0,57.0,-6.0,72.0,-928.0,194.0
21.0,-243.0,25.0,-18.0,58.0,-8.0,77.0,-935.0,194.0
20.0,-243.0,23.0,-19.0,58.0,-7.0,79.0,-936.0,195.0
20.0,-244.0,19.0,-18.0,59.0,-8.0,77.0,-935.0,193.0
21.0,-244.0,24.0,-17.0,59.0,-5.0,79.0,-931.0,197.0
18.0,-245.0,22.0,-17.0,58.0,-8.0,72.0,-935.0,193.0
23.0,-247.0,24.0,-15.0,58.0,-6.0,74.0,-935.0,197.0
23.0,-247.0,27.0,-14.0,59.0,-8.0,80.0,-931.0,199.0
18.0,-245.0,21.0,-12.0,59.0,-8.0,77.0,-937.0,194.0
24.0,-244.0,22.0,-12.0,61.0,-8.0,69.0,-932.0,186.0
10.0,-239.0,31.0,-11.0,61.0,-6.0,76.0,-932.0,192.0
19.0,-246.0,23.0,-10.0,59.0,-9.0,71.0,-928.0,190.0
20.0,-245.0,24.0,-10.0,59.0,-5.0,67.0,-930.0,187.0
21.0,-245.0,24.0,-12.0,59.0,-8.0,72.0,-927.0,190.0
20.0,-244.0,20.0,-15.0,57.0,-4.0,77.0,-927.0,191.0
21.0,-246.0,27.0,-16.0,57.0,-7.0,72.0,-927.0,196.0
21.0,-245.0,24.0,-16.0,56.0,-5.0,76.0,-931.0,190.0
21.0,-248.0,23.0,-16.0,56.0,-7.0,79.0,-931.0,191.0
22.0,-246.0,28.0,-15.0,54.0,-5.0,73.0,-929.0,194.0
20.0,-246.0,20.0,-13.0,56.0,-9.0,74.0,-932.0,192.0
21.0,-247.0,20.0,-11.0,57.0,-8.0,76.0,-931.0,191.0
27.0,-236.0,19.0,-8.0,57.0,-9.0,79.0,-929.0,193.0
20.0,-245.0,24.0,-5.0,59.0,-6.0,78.0,-929.0,189.0
20.0,-248.0,21.0,-4.0,60.0,-8.0,80.0,-930.0,190.0
22.0,-242.0,21.0,-5.0,59.0,-7.0,74.0,-931.0,186.0
24.0,-243.0,23.0,-9.0,61.0,-8.0,72.0,-928.0,187.0
21.0,-245.0,22.0,-11.0,60.0,-5.0,72.0,-929.0,195.0
19.0,-244.0,25.0,-13.0,60.0,-7.0,78.0,-930.0,196.0
20.0,-246.0,19.0,-15.0,61.0,-5.0,78.0,-936.0,188.0
22.0,-246.0,22.0,-14.0,59.0,-7.0,79.0,-936.0,194.0
22.0,-248.0,22.0,-14.0,59.0,-5.0,74.0,-936.0,197.0
21.0,-246.0,23.0,-13.0,59.0,-7.0,71.0,-940.0,191.0
16.0,-252.0,30.0,-8.0,58.0,-4.0,75.0,-940.0,192.0
23.0,-248.0,25.0,-6.0,57.0,-4.0,72.0,-941.0,190.0
20.0,-247.0,23.0,-4.0,54.0,-2.0,70.0,-942.0,192.0
20.0,-247.0,24.0,-2.0,53.0,-4.0,79.0,-938.0,190.0
22.0,-244.0,24.0,-2.0,52.0,-2.0,75.0,-933.0,190.0
21.0,-242.0,24.0,-3.0,53.0,-5.0,75.0,-926.0,190.0
21.0,-245.0,25.0,-1.0,53.0,-3.0,66.0,-924.0,184.0
23.0,-245.0,26.0,-3.0,54.0,-6.0,72.0,-922.0,191.0
22.0,-242.0,20.0,-7.0,58.0,-6.0,76.0,-921.0,191.0
19.0,-244.0,21.0,-12.0,58.0,-10.0,73.0,-933.0,192.0
19.0,-243.0,22.0,-19.0,64.0,-7.0,77.0,-928.0,189.0
12.0,-246.0,26.0,-22.0,66.0,-9.0,70.0,-929.0,191.0
24.0,-244.0,24.0,-25.0,67.0,-4.0,77.0,-932.0,192.0
20.0,-247.0,24.0,-21.0,69.0,-5.0,78.0,-935.0,197.0
22.0,-250.0,25.0,-13.0,68.0,-3.0,77.0,-939.0,195.0
24.0,-249.0,26.0,-6.0,68.0,-5.0,82.0,-942.0,191.0
21.0,-248.0,25.0,2.0,68.0,-4.0,70.0,-945.0,191.0
20.0,-249.0,25.0,11.0,66.0,-5.0,80.0,-940.0,195.0
21.0,-247.0,26.0,16.0,65.0,-2.0,80.0,-940.0,190.0
23.0,-248.0,21.0,21.0,64.0,-5.0,73.0,-937.0,192.0
17.0,-245.0,22.0,24.0,62.0,-3.0,76.0,-931.0,195.0
20.0,-246.0,26.0,23.0,58.0,-6.0,73.0,-930.0,195.0
21.0,-241.0,24.0,23.0,57.0,-4.0,77.0,-926.0,196.0
25.0,-244.0,25.0,20.0,54.0,-7.0,79.0,-933.0,197.0
19.0,-244.0,22.0,19.0,53.0,-4.0,77.0,-923.0,193.0
22.0,-245.0,26.0,15.0,50.0,-6.0,74.0,-927.0,190.0
23.0,-244.0,24.0,10.0,51.0,-2.0,73.0,-928.0,193.0
21.0,-242.0,26.0,8.0,53.0,-6.0,80.0,-927.0,193.0
19.0,-244.0,20.0,5.0,51.0,-3.0,72.0,-928.0,192.0
21.0,-245.0,27.0,4.0,54.0,-6.0,71.0,-930.0,191.0
21.0,-241.0,25.0,1.0,57.0,-4.0,76.0,-928.0,192.0
17.0,-244.0,25.0,1.0,59.0,-6.0,76.0,-929.0,195.0
23.0,-252.0,42.0,-1.0,60.0,-3.0,71.0,-930.0,188.0
21.0,-246.0,22.0,-3.0,62.0,-6.0,72.0,-934.0,190.0
21.0,-247.0,25.0,-3.0,63.0,-3.0,69.0,-935.0,197.0
21.0,-246.0,26.0,-4.0,64.0,-5.0,71.0,-927.0,197.0
22.0,-247.0,28.0,-3.0,64.0,-4.0,76.0,-935.0,195.0
19.0,-244.0,25.0,-3.0,64.0,-7.0,77.0,-932.0,193.0
23.0,-247.0,24.0,-3.0,65.0,-6.0,69.0,-930.0,198.0
24.0,-245.0,24.0,-2.0,66.0,-8.0,76.0,-933.0,196.0
20.0,-248.0,24.0,0.0,64.0,-6.0,67.0,-937.0,199.0
20.0,-246.0,27.0,0.0,64.0,-9.0,70.0,-935.0,196.0
25.0,-245.0,24.0,2.0,63.0,-6.0,74.0,-933.0,200.0
24.0,-250.0,23.0,5.0,62.0,-9.0,72.0,-935.0,200.0
22.0,-247.0,27.0,6.0,59.0,-6.0,68.0,-936.0,201.0
19.0,-243.0,25.0,7.0,58.0,-8.0,73.0,-933.0,199.0
19.0,-248.0,25.0,11.0,58.0,-6.0,72.0,-932.0,199.0
20.0,-243.0,25.0,13.0,57.0,-9.0,73.0,-934.0,201.0
20.0,-247.0,27.0,13.0,58.0,-7.0,72.0,-929.0,197.0
20.0,-243.0,25.0,12.0,59.0,-8.0,77.0,-927.0,200.0
20.0,-245.0,25.0,12.0,58.0,-6.0,71.0,-927.0,200.0
18.0,-245.0,29.0,9.0,58.0,-8.0,68.0,-925.0,200.0
23.0,-244.0,28.0,7.0,59.0,-5.0,73.0,-925.0,200.0
20.0,-244.0,17.0,1.0,60.0,-6.0,77.0,-928.0,199.0
16.0,-248.0,36.0,-4.0,61.0,-3.0,69.0,-918.0,198.0
19.0,-243.0,25.0,-10.0,58.0,-5.0,71.0,-922.0,197.0
20.0,-244.0,22.0,-14.0,58.0,-2.0,71.0,-927.0,199.0
20.0,-244.0,29.0,-17.0,59.0,-4.0,75.0,-929.0,199.0
19.0,-243.0,26.0,-19.0,59.0,-2.0,69.0,-930.0,200.0
22.0,-246.0,30.0,-20.0,58.0,-5.0,76.0,-930.0,200.0
21.0,-247.0,26.0,-18.0,59.0,-5.0,70.0,-932.0,200.0
24.0,-247.0,23.0,-15.0,59.0,-7.0,73.0,-936.0,198.0
19.0,-247.0,23.0,-12.0,59.0,-4.0,75.0,-933.0,200.0
20.0,-247.0,25.0,-7.0,58.0,-5.0,78.0,-936.0,197.0
16.0,-245.0,24.0,-5.0,58.0,-4.0,78.0,-940.0,200.0
22.0,-252.0,27.0,-3.0,56.0,-7.0,79.0,-933.0,197.0
22.0,-248.0,27.0,-2.0,56.0,-5.0,77.0,-937.0,199.0
22.0,-247.0,25.0,2.0,56.0,-7.0,75.0,-938.0,198.0
21.0,-246.0,26.0,3.0,57.0,-5.0,68.0,-937.0,197.0
21.0,-243.0,23.0,3.0,55.0,-5.0,78.0,-931.0,194.0
19.0,-248.0,25.0,4.0,56.0,-5.0,72.0,-935.0,191.0
22.0,-246.0,25.0,3.0,57.0,-8.0,76.0,-938.0,195.0
20.0,-243.0,25.0,5.0,54.0,-4.0,78.0,-931.0,196.0
22.0,-244.0,20.0,7.0,54.0,-7.0,77.0,-932.0,197.0
18.0,-244.0,22.0,7.0,54.0,-4.0,78.0,-929.0,193.0
22.0,-245.0,24.0,5.0,55.0,-6.0,75.0,-931.0,196.0
9.0,-243.0,28.0,5.0,57.0,-3.0,71.0,-929.0,194.0
19.0,-243.0,25.0,3.0,56.0,-5.0,77.0,-925.0,194.0
20.0,-246.0,27.0,3.0,57.0,-2.0,79.0,-929.0,193.0
19.0,-247.0,25.0,2.0,57.0,-5.0,76.0,-933.0,200.0
23.0,-245.0,20.0,1.0,56.0,-2.0,78.0,-931.0,197.0
20.0,-244.0,24.0,2.0,58.0,-6.0,77.0,-929.0,197.0
22.0,-247.0,23.0,3.0,58.0,-5.0,77.0,-934.0,197.0
21.0,-247.0,25.0,5.0,58.0,-6.0,81.0,-936.0,196.0
23.0,-249.0,25.0,6.0,59.0,-5.0,77.0,-932.0,200.0
20.0,-242.0,25.0,9.0,60.0,-6.0,79.0,-934.0,197.0
25.0,-245.0,22.0,9.0,58.0,-4.0,78.0,-931.0,201.0
18.0,-249.0,35.0,11.0,57.0,-7.0,73.0,-930.0,195.0
21.0,-247.0,27.0,11.0,57.0,-4.0,77.0,-929.0,200.0
21.0,-245.0,28.0,11.0,57.0,-7.0,76.0,-931.0,200.0
23.0,-248.0,28.0,13.0,56.0,-5.0,68.0,-931.0,203.0
19.0,-245.0,23.0,14.0,57.0,-7.0,79.0,-929.0,202.0
19.0,-245.0,26.0,13.0,58.0,-5.0,76.0,-931.0,199.0
22.0,-246.0,28.0,14.0,57.0,-6.0,73.0,-929.0,200.0
18.0,-244.0,27.0,14.0,59.0,-5.0,69.0,-930.0,196.0
22.0,-248.0,31.0,17.0,57.0,-6.0,72.0,-933.0,199.0
21.0,-243.0,30.0,18.0,58.0,-4.0,76.0,-930.0,194.0
20.0,-246.0,24.0,20.0,59.0,-5.0,70.0,-929.0,195.0
22.0,-246.0,23.0,23.0,59.0,-4.0,74.0,-933.0,201.0
21.0,-233.0,22.0,26.0,57.0,-6.0,78.0,-928.0,196.0
8.0,-245.0,25.0,27.0,57.0,-3.0,73.0,-930.0,200.0
22.0,-245.0,28.0,27.0,57.0,-6.0,72.0,-930.0,201.0
20.0,-245.0,29.0,27.0,58.0,-3.0,72.0,-928.0,200.0
21.0,-244.0,27.0,28.0,59.0,-5.0,76.0,-924.0,201.0
22.0,-244.0,26.0,27.0,58.0,-4.0,79.0,-928.0,202.0
22.0,-242.0,25.0,28.0,59.0,-6.0,79.0,-929.0,204.0
19.0,-243.0,31.0,25.0,60.0,-3.0,68.0,-930.0,200.0
17.0,-244.0,31.0,27.0,61.0,-7.0,76.0,-931.0,202.0
20.0,-246.0,28.0,26.0,60.0,-7.0,73.0,-933.0,203.0
19.0,-238.0,16.0,27.0,60.0,-10.0,77.0,-925.0,209.0
22.0,-247.0,26.0,26.0,62.0,-7.0,76.0,-927.0,207.0
22.0,-247.0,26.0,26.0,61.0,-8.0,78.0,-926.0,204.0
22.0,-245.0,28.0,25.0,63.0,-6.0,77.0,-930.0,204.0
18.0,-245.0,25.0,23.0,60.0,-7.0,79.0,-930.0,208.0
23.0,-246.0,29.0,21.0,59.0,-4.0,78.0,-930.0,206.0
20.0,-244.0,27.0,22.0,59.0,-7.0,71.0,-931.0,209.0
19.0,-243.0,33.0,22.0,59.0,-5.0,75.0,-931.0,205.0
23.0,-246.0,32.0,20.0,59.0,-7.0,73.0,-934.0,208.0
20.0,-246.0,26.0,18.0,58.0,-5.0,75.0,-933.0,208.0
23.0,-249.0,25.0,19.0,58.0,-5.0,72.0,-938.0,208.0
24.0,-243.0,21.0,21.0,57.0,-4.0,72.0,-939.0,207.0
20.0,-249.0,29.0,24.0,56.0,-6.0,75.0,-938.0,206.0
21.0,-249.0,28.0,29.0,53.0,-4.0,78.0,-940.0,207.0
20.0,-246.0,27.0,32.0,51.0,-4.0,77.0,-936.0,208.0
22.0,-246.0,24.0,40.0,49.0,-3.0,77.0,-930.0,208.0
24.0,-243.0,32.0,44.0,49.0,-4.0,70.0,-933.0,204.0
20.0,-241.0,26.0,45.0,49.0,-3.0,75.0,-921.0,202.0
23.0,-241.0,25.0,44.0,51.0,-6.0,68.0,-911.0,199.0
16.0,-241.0,25.0,40.0,51.0,-6.0,67.0,-910.0,202.0
17.0,-239.0,32.0,31.0,54.0,-7.0,68.0,-907.0,205.0
20.0,-238.0,27.0,21.0,57.0,-4.0,79.0,-910.0,208.0
16.0,-241.0,17.0,15.0,58.0,-6.0,75.0,-915.0,207.0
21.0,-244.0,30.0,10.0,60.0,-4.0,79.0,-918.0,211.0
24.0,-243.0,30.0,9.0,60.0,-6.0,78.0,-928.0,214.0
24.0,-246.0,30.0,11.0,58.0,-3.0,68.0,-929.0,211.0
22.0,-244.0,28.0,14.0,59.0,-5.0,80.0,-932.0,216.0
22.0,-247.0,25.0,23.0,60.0,0.0,74.0,-934.0,214.0
21.0,-248.0,26.0,28.0,60.0,2.0,79.0,-932.0,213.0
19.0,-244.0,30.0,31.0,65.0,6.0,71.0,-934.0,207.0
20.0,-245.0,31.0,32.0,69.0,5.0,79.0,-931.0,207.0
22.0,-245.0,27.0,30.0,71.0,6.0,75.0,-926.0,209.0
23.0,-243.0,29.0,25.0,68.0,4.0,83.0,-935.0,208.0
21.0,-245.0,32.0,22.0,67.0,4.0,71.0,-931.0,211.0
22.0,-246.0,27.0,18.0,63.0,2.0,78.0,-930.0,209.0
22.0,-246.0,30.0,16.0,60.0,3.0,73.0,-931.0,215.0
20.0,-244.0,30.0,16.0,55.0,0.0,80.0,-931.0,217.0
19.0,-242.0,35.0,18.0,52.0,-1.0,79.0,-927.0,213.0
20.0,-242.0,28.0,19.0,49.0,-3.0,75.0,-927.0,217.0
22.0,-244.0,31.0,19.0,45.0,0.0,73.0,-928.0,214.0
21.0,-244.0,32.0,19.0,46.0,1.0,78.0,-925.0,217.0
25.0,-242.0,27.0,16.0,45.0,3.0,77.0,-923.0,212.0
16.0,-246.0,39.0,13.0,48.0,1.0,80.0,-928.0,212.0
27.0,-241.0,32.0,7.0,51.0,4.0,68.0,-924.0,213.0
19.0,-240.0,31.0,0.0,55.0,1.0,72.0,-921.0,208.0
19.0,-244.0,32.0,-7.0,58.0,3.0,73.0,-924.0,215.0
18.0,-242.0,30.0,-15.0,60.0,0.0,73.0,-920.0,217.0
21.0,-242.0,29.0,-21.0,62.0,0.0,68.0,-921.0,214.0
20.0,-241.0,28.0,-26.0,62.0,-2.0,77.0,-920.0,216.0
21.0,-241.0,34.0,-31.0,62.0,-1.0,73.0,-919.0,222.0
24.0,-244.0,32.0,-35.0,60.0,-3.0,78.0,-922.0,220.0
20.0,-242.0,37.0,-39.0,57.0,0.0,75.0,-924.0,217.0
22.0,-243.0,33.0,-42.0,53.0,-1.0,73.0,-921.0,218.0
20.0,-243.0,29.0,-44.0,49.0,3.0,77.0,-927.0,224.0
33.0,-235.0,17.0,-47.0,48.0,3.0,66.0,-925.0,219.0
23.0,-246.0,29.0,-47.0,48.0,5.0,80.0,-928.0,217.0
22.0,-245.0,34.0,-50.0,48.0,5.0,78.0,-931.0,214.0
21.0,-244.0,30.0,-52.0,45.0,7.0,73.0,-932.0,218.0
21.0,-244.0,30.0,-55.0,44.0,4.0,74.0,-929.0,214.0
23.0,-245.0,33.0,-57.0,43.0,6.0,68.0,-925.0,215.0
23.0,-245.0,28.0,-64.0,44.0,4.0,69.0,-923.0,213.0
20.0,-244.0,30.0,-69.0,43.0,4.0,71.0,-923.0,214.0
18.0,-240.0,31.0,-74.0,42.0,2.0,70.0,-923.0,217.0
21.0,-243.0,30.0,-80.0,42.0,3.0,65.0,-922.0,216.0
20.0,-242.0,31.0,-87.0,42.0,2.0,66.0,-922.0,216.0
8.0,-247.0,49.0,-93.0,43.0,4.0,75.0,-918.0,221.0
23.0,-245.0,35.0,-99.0,43.0,1.0,66.0,-918.0,222.0
19.0,-239.0,34.0,-105.0,45.0,1.0,68.0,-915.0,223.0
18.0,-240.0,31.0,-110.0,46.0,-3.0,66.0,-915.0,228.0
20.0,-242.0,32.0,-116.0,50.0,-6.0,66.0,-915.0,218.0
20.0,-241.0,30.0,-123.0,52.0,-8.0,64.0,-916.0,218.0
19.0,-243.0,26.0,-135.0,53.0,-8.0,63.0,-910.0,219.0
19.0,-238.0,31.0,-145.0,55.0,-10.0,65.0,-915.0,217.0
18.0,-240.0,29.0,-155.0,58.0,-11.0,64.0,-915.0,218.0
19.0,-241.0,25.0,-165.0,59.0,-14.0,62.0,-917.0,218.0
17.0,-237.0,33.0,-175.0,59.0,-13.0,62.0,-919.0,215.0
24.0,-236.0,22.0,-188.0,60.0,-16.0,67.0,-917.0,218.0
20.0,-244.0,32.0,-204.0,61.0,-13.0,71.0,-917.0,218.0
20.0,-243.0,28.0,-221.0,61.0,-15.0,72.0,-919.0,218.0
21.0,-243.0,33.0,-238.0,62.0,-17.0,76.0,-916.0,217.0
20.0,-239.0,31.0,-263.0,60.0,-21.0,73.0,-917.0,218.0
21.0,-239.0,31.0,-284.0,61.0,-23.0,74.0,-914.0,217.0
21.0,-241.0,29.0,-307.0,64.0,-27.0,77.0,-921.0,214.0
20.0,-242.0,28.0,-330.0,67.0,-27.0,79.0,-911.0,208.0
23.0,-242.0,29.0,-355.0,69.0,-31.0,76.0,-909.0,209.0
18.0,-238.0,28.0,-376.0,72.0,-31.0,71.0,-903.0,214.0
20.0,-235.0,30.0,-390.0,70.0,-30.0,73.0,-898.0,209.0
19.0,-225.0,18.0,-401.0,69.0,-26.0,67.0,-895.0,211.0
20.0,-235.0,27.0,-411.0,68.0,-24.0,73.0,-895.0,204.0
23.0,-237.0,24.0,-421.0,66.0,-18.0,78.0,-893.0,204.0
22.0,-236.0,28.0,-436.0,65.0,-18.0,69.0,-897.0,200.0
18.0,-234.0,24.0,-448.0,65.0,-16.0,80.0,-891.0,196.0
21.0,-237.0,24.0,-461.0,66.0,-17.0,77.0,-890.0,194.0
21.0,-235.0,22.0,-474.0,64.0,-16.0,80.0,-898.0,193.0
22.0,-238.0,20.0,-487.0,59.0,-16.0,75.0,-896.0,183.0
20.0,-238.0,17.0,-500.0,51.0,-12.0,80.0,-904.0,181.0
20.0,-240.0,21.0,-513.0,41.0,-11.0,74.0,-909.0,179.0
19.0,-239.0,18.0,-524.0,31.0,-6.0,74.0,-908.0,169.0
21.0,-239.0,24.0,-536.0,20.0,-2.0,76.0,-914.0,167.0
20.0,-243.0,16.0,-545.0,7.0,3.0,74.0,-924.0,162.0
21.0,-245.0,12.0,-556.0,-1.0,6.0,78.0,-928.0,154.0
23.0,-246.0,11.0,-564.0,-8.0,9.0,76.0,-936.0,152.0
23.0,-250.0,13.0,-571.0,-14.0,11.0,73.0,-941.0,147.0
19.0,-249.0,8.0,-575.0,-17.0,12.0,78.0,-949.0,139.0
23.0,-248.0,8.0,-577.0,-17.0,8.0,79.0,-950.0,131.0
22.0,-250.0,5.0,-579.0,-18.0,5.0,76.0,-953.0,122.0
17.0,-254.0,-2.0,-584.0,-14.0,1.0,73.0,-962.0,107.0
22.0,-252.0,0.0,-595.0,-8.0,-1.0,67.0,-962.0,94.0
21.0,-255.0,-5.0,-606.0,0.0,-7.0,63.0,-959.0,86.0
16.0,-252.0,-14.0,-614.0,9.0,-13.0,61.0,-949.0,79.0
16.0,-246.0,-7.0,-621.0,15.0,-19.0,56.0,-950.0,73.0
15.0,-249.0,-7.0,-622.0,19.0,-21.0,44.0,-942.0,67.0
14.0,-247.0,-11.0,-620.0,21.0,-22.0,42.0,-946.0,61.0
12.0,-246.0,-12.0,-613.0,21.0,-24.0,39.0,-938.0,61.0
12.0,-247.0,-12.0,-604.0,19.0,-26.0,36.0,-929.0,51.0
13.0,-245.0,-8.0,-598.0,18.0,-27.0,33.0,-929.0,52.0
11.0,-241.0,-15.0,-592.0,16.0,-28.0,38.0,-920.0,52.0
15.0,-239.0,-14.0,-591.0,16.0,-24.0,38.0,-909.0,49.0
16.0,-243.0,-11.0,-600.0,19.0,-21.0,38.0,-902.0,57.0
15.0,-230.0,-14.0,-618.0,24.0,-12.0,38.0,-890.0,59.0
8.0,-218.0,-13.0,-652.0,27.0,-3.0,41.0,-871.0,60.0
14.0,-223.0,-8.0,-697.0,27.0,7.0,42.0,-864.0,61.0
14.0,-220.0,-10.0,-759.0,21.0,18.0,46.0,-855.0,69.0
13.0,-217.0,-5.0,-832.0,9.0,32.0,45.0,-845.0,76.0
16.0,-217.0,-4.0,-914.0,-8.0,44.0,57.0,-842.0,84.0
19.0,-218.0,2.0,-999.0,-26.0,54.0,66.0,-838.0,91.0
20.0,-219.0,0.0,-1076.0,-44.0,63.0,78.0,-843.0,96.0
29.0,-223.0,7.0,-1142.0,-60.0,70.0,89.0,-855.0,104.0
25.0,-224.0,1.0,-1201.0,-72.0,75.0,97.0,-859.0,111.0
29.0,-227.0,2.0,-1248.0,-79.0,80.0,104.0,-876.0,103.0
40.0,-230.0,-11.0,-1286.0,-81.0,84.0,107.0,-879.0,104.0
28.0,-234.0,-2.0,-1308.0,-81.0,87.0,109.0,-890.0,95.0
29.0,-235.0,0.0,-1328.0,-74.0,90.0,115.0,-898.0,85.0
35.0,-240.0,-3.0,-1349.0,-67.0,94.0,108.0,-915.0,76.0
30.0,-238.0,-6.0,-1368.0,-57.0,100.0,105.0,-926.0,77.0
29.0,-245.0,-2.0,-1386.0,-46.0,105.0,99.0,-935.0,79.0
27.0,-247.0,0.0,-1401.0,-42.0,110.0,92.0,-942.0,79.0
28.0,-246.0,-5.0,-1416.0,-43.0,114.0,84.0,-947.0,84.0
21.0,-249.0,1.0,-1430.0,-51.0,116.0,79.0,-961.0,100.0
20.0,-253.0,9.0,-1438.0,-62.0,115.0,79.0,-953.0,125.0
24.0,-254.0,10.0,-1444.0,-68.0,115.0,73.0,-953.0,143.0
16.0,-248.0,15.0,-1447.0,-70.0,114.0,86.0,-945.0,158.0
28.0,-247.0,23.0,-1454.0,-62.0,111.0,98.0,-942.0,182.0
29.0,-246.0,28.0,-1464.0,-54.0,104.0,100.0,-929.0,203.0
29.0,-241.0,34.0,-1475.0,-44.0,103.0,96.0,-923.0,231.0
29.0,-240.0,39.0,-1489.0,-44.0,105.0,101.0,-916.0,241.0
28.0,-242.0,34.0,-1513.0,-51.0,111.0,107.0,-926.0,236.0
27.0,-248.0,30.0,-1551.0,-60.0,121.0,102.0,-947.0,224.0
26.0,-256.0,26.0,-1607.0,-71.0,133.0,102.0,-983.0,203.0
25.0,-258.0,14.0,-1685.0,-84.0,151.0,114.0,-1032.0,156.0
36.0,-276.0,2.0,-1818.0,-96.0,169.0,124.0,-1084.0,95.0
44.0,-292.0,-17.0,-1962.0,-100.0,184.0,152.0,-1143.0,35.0
41.0,-313.0,-45.0,-2123.0,-100.0,190.0,174.0,-1221.0,-26.0
57.0,-333.0,-43.0,-2290.0,-93.0,191.0,201.0,-1304.0,-74.0
64.0,-359.0,-53.0,-2437.0,-78.0,191.0,223.0,-1380.0,-111.0
69.0,-384.0,-61.0,-2546.0,-65.0,188.0,232.0,-1457.0,-129.0
64.0,-408.0,-60.0,-2587.0,-62.0,194.0,219.0,-1518.0,-135.0
61.0,-420.0,-60.0,-2548.0,-78.0,201.0,220.0,-1584.0,-139.0
53.0,-430.0,-63.0,-2429.0,-111.0,199.0,195.0,-1624.0,-170.0
48.0,-433.0,-72.0,-2247.0,-150.0,196.0,163.0,-1627.0,-216.0
44.0,-417.0,-95.0,-1961.0,-171.0,193.0,124.0,-1570.0,-285.0
32.0,-405.0,-118.0,-1692.0,-157.0,187.0,79.0,-1516.0,-354.0
11.0,-384.0,-137.0,-1415.0,-118.0,180.0,32.0,-1462.0,-419.0
11.0,-371.0,-140.0,-1155.0,-60.0,176.0,-4.0,-1404.0,-461.0
7.0,-359.0,-147.0,-930.0,3.0,168.0,-15.0,-1364.0,-479.0
7.0,-347.0,-144.0,-746.0,73.0,154.0,-22.0,-1321.0,-478.0
7.0,-329.0,-137.0,-597.0,144.0,132.0,-16.0,-1261.0,-451.0
6.0,-322.0,-125.0,-477.0,205.0,107.0,-14.0,-1216.0,-411.0
3.0,-308.0,-119.0,-377.0,253.0,85.0,-15.0,-1174.0,-383.0
1.0,-287.0,-115.0,-300.0,274.0,67.0,-13.0,-1127.0,-359.0
3.0,-281.0,-116.0,-245.0,268.0,62.0,-13.0,-1095.0,-361.0
7.0,-272.0,-123.0,-239.0,242.0,57.0,-2.0,-1060.0,-393.0
8.0,-262.0,-128.0,-270.0,199.0,57.0,7.0,-1024.0,-413.0
11.0,-260.0,-125.0,-338.0,146.0,57.0,28.0,-1001.0,-440.0
20.0,-253.0,-140.0,-431.0,98.0,54.0,44.0,-986.0,-462.0
22.0,-248.0,-146.0,-532.0,59.0,51.0,55.0,-974.0,-479.0
21.0,-247.0,-144.0,-625.0,36.0,49.0,56.0,-957.0,-495.0
20.0,-251.0,-146.0,-697.0,33.0,46.0,53.0,-963.0,-487.0
21.0,-254.0,-145.0,-736.0,41.0,43.0,45.0,-971.0,-478.0
17.0,-255.0,-140.0,-739.0,55.0,41.0,35.0,-972.0,-477.0
17.0,-254.0,-147.0,-703.0,72.0,45.0,23.0,-977.0,-472.0
10.0,-255.0,-146.0,-648.0,84.0,45.0,13.0,-978.0,-476.0
17.0,-253.0,-143.0,-585.0,89.0,46.0,8.0,-971.0,-493.0
10.0,-251.0,-145.0,-520.0,97.0,46.0,8.0,-955.0,-498.0
5.0,-250.0,-134.0,-456.0,104.0,45.0,9.0,-943.0,-508.0
11.0,-242.0,-145.0,-399.0,113.0,42.0,9.0,-931.0,-498.0
11.0,-239.0,-143.0,-350.0,127.0,38.0,21.0,-922.0,-488.0
14.0,-237.0,-143.0,-306.0,143.0,34.0,19.0,-903.0,-474.0
12.0,-234.0,-137.0,-265.0,159.0,32.0,13.0,-892.0,-461.0
12.0,-230.0,-134.0,-225.0,169.0,28.0,6.0,-882.0,-443.0
5.0,-223.0,-129.0,-183.0,174.0,26.0,-3.0,-872.0,-428.0
6.0,-225.0,-131.0,-147.0,169.0,18.0,-6.0,-859.0,-422.0
0.0,-221.0,-131.0,-118.0,157.0,12.0,-15.0,-843.0,-418.0
10.0,-213.0,-126.0,-96.0,142.0,0.0,-16.0,-829.0,-414.0
-2.0,-207.0,-129.0,-81.0,124.0,-9.0,-20.0,-822.0,-416.0
-3.0,-210.0,-128.0,-75.0,106.0,-21.0,-32.0,-813.0,-412.0
-4.0,-206.0,-131.0,-77.0,91.0,-30.0,-36.0,-799.0,-420.0
-3.0,-202.0,-127.0,-86.0,78.0,-37.0,-46.0,-790.0,-422.0
-7.0,-202.0,-131.0,-98.0,65.0,-43.0,-49.0,-781.0,-429.0
-7.0,-200.0,-128.0,-112.0,52.0,-47.0,-54.0,-779.0,-430.0
-9.0,-197.0,-134.0,-126.0,32.0,-47.0,-58.0,-777.0,-436.0
-6.0,-200.0,-133.0,-140.0,17.0,-46.0,-51.0,-777.0,-445.0
-2.0,-202.0,-140.0,-154.0,2.0,-40.0,-42.0,-782.0,-452.0
0.0,-202.0,-136.0,-172.0,-14.0,-36.0,-40.0,-792.0,-459.0
0.0,-207.0,-141.0,-190.0,-28.0,-32.0,-31.0,-800.0,-465.0
-8.0,-215.0,-126.0,-207.0,-42.0,-28.0,-21.0,-801.0,-469.0
2.0,-206.0,-144.0,-221.0,-58.0,-24.0,-11.0,-816.0,-475.0
8.0,-214.0,-141.0,-229.0,-74.0,-22.0,-5.0,-825.0,-479.0
8.0,-216.0,-143.0,-230.0,-86.0,-20.0,2.0,-826.0,-474.0
7.0,-215.0,-144.0,-224.0,-96.0,-23.0,1.0,-834.0,-478.0
8.0,-219.0,-144.0,-207.0,-103.0,-21.0,5.0,-839.0,-477.0
7.0,-219.0,-145.0,-186.0,-106.0,-24.0,-7.0,-841.0,-485.0
6.0,-220.0,-143.0,-160.0,-106.0,-25.0,-5.0,-850.0,-486.0
4.0,-223.0,-147.0,-131.0,-102.0,-30.0,-7.0,-844.0,-476.0
8.0,-216.0,-142.0,-101.0,-93.0,-34.0,-6.0,-847.0,-483.0
-1.0,-217.0,-144.0,-75.0,-87.0,-41.0,-18.0,-843.0,-484.0
7.0,-217.0,-148.0,-50.0,-79.0,-50.0,-17.0,-841.0,-479.0
1.0,-218.0,-144.0,-25.0,-70.0,-59.0,-22.0,-836.0,-476.0
-2.0,-217.0,-148.0,-5.0,-65.0,-67.0,-29.0,-828.0,-488.0
-3.0,-213.0,-143.0,10.0,-62.0,-77.0,-36.0,-826.0,-494.0
-3.0,-213.0,-146.0,22.0,-66.0,-81.0,-46.0,-822.0,-494.0
-5.0,-211.0,-147.0,23.0,-74.0,-86.0,-46.0,-812.0,-489.0
-4.0,-208.0,-144.0,19.0,-82.0,-87.0,-46.0,-809.0,-495.0
-5.0,-208.0,-145.0,16.0,-90.0,-91.0,-40.0,-801.0,-489.0
0.0,-205.0,-147.0,17.0,-100.0,-89.0,-36.0,-806.0,-480.0
-4.0,-207.0,-145.0,16.0,-108.0,-92.0,-34.0,-804.0,-481.0
-1.0,-208.0,-147.0,13.0,-114.0,-90.0,-30.0,-803.0,-476.0
10.0,-195.0,-157.0,14.0,-120.0,-91.0,-23.0,-801.0,-480.0
3.0,-204.0,-146.0,15.0,-122.0,-93.0,-17.0,-797.0,-488.0
4.0,-205.0,-148.0,18.0,-123.0,-93.0,-9.0,-800.0,-481.0
5.0,-207.0,-144.0,22.0,-126.0,-91.0,-4.0,-797.0,-477.0
8.0,-204.0,-141.0,29.0,-127.0,-90.0,-3.0,-795.0,-479.0
8.0,-202.0,-143.0,42.0,-130.0,-83.0,-2.0,-790.0,-470.0
9.0,-207.0,-141.0,60.0,-131.0,-78.0,1.0,-800.0,-472.0
9.0,-207.0,-142.0,79.0,-131.0,-71.0,4.0,-801.0,-472.0
8.0,-208.0,-140.0,100.0,-128.0,-68.0,9.0,-804.0,-475.0
14.0,-211.0,-148.0,125.0,-121.0,-64.0,7.0,-806.0,-474.0
8.0,-208.0,-149.0,153.0,-115.0,-62.0,2.0,-807.0,-477.0
6.0,-219.0,-125.0,181.0,-108.0,-57.0,-1.0,-807.0,-479.0
6.0,-209.0,-142.0,212.0,-105.0,-55.0,-7.0,-800.0,-465.0
5.0,-208.0,-139.0,253.0,-104.0,-50.0,-11.0,-798.0,-470.0
2.0,-205.0,-140.0,285.0,-102.0,-52.0,-14.0,-795.0,-465.0
2.0,-204.0,-140.0,309.0,-98.0,-53.0,-17.0,-796.0,-459.0
-1.0,-202.0,-132.0,329.0,-93.0,-63.0,-28.0,-781.0,-446.0
-1.0,-200.0,-132.0,344.0,-86.0,-68.0,-34.0,-780.0,-439.0
-6.0,-196.0,-129.0,349.0,-80.0,-76.0,-39.0,-772.0,-422.0
-6.0,-196.0,-130.0,351.0,-76.0,-77.0,-41.0,-757.0,-415.0
-5.0,-191.0,-126.0,351.0,-70.0,-78.0,-43.0,-752.0,-409.0
-8.0,-192.0,-129.0,349.0,-66.0,-79.0,-45.0,-744.0,-408.0
7.0,-191.0,-123.0,338.0,-59.0,-82.0,-48.0,-744.0,-413.0
-6.0,-191.0,-129.0,315.0,-51.0,-87.0,-45.0,-739.0,-410.0
-4.0,-189.0,-131.0,294.0,-41.0,-93.0,-44.0,-736.0,-420.0
-1.0,-191.0,-130.0,271.0,-29.0,-90.0,-40.0,-732.0,-419.0
-6.0,-188.0,-130.0,259.0,-21.0,-86.0,-37.0,-726.0,-418.0
-1.0,-183.0,-128.0,253.0,-15.0,-78.0,-31.0,-727.0,-420.0
-2.0,-189.0,-129.0,244.0,-13.0,-68.0,-31.0,-729.0,-426.0
-1.0,-192.0,-129.0,229.0,-10.0,-62.0,-27.0,-733.0,-432.0
2.0,-193.0,-123.0,210.0,-5.0,-61.0,-19.0,-745.0,-422.0
5.0,-193.0,-129.0,193.0,2.0,-60.0,-13.0,-752.0,-417.0
3.0,-194.0,-129.0,185.0,10.0,-63.0,-12.0,-758.0,-412.0
0.0,-195.0,-130.0,173.0,18.0,-61.0,-16.0,-763.0,-410.0
7.0,-200.0,-124.0,166.0,22.0,-62.0,-15.0,-766.0,-400.0
4.0,-199.0,-125.0,170.0,23.0,-54.0,-19.0,-770.0,-392.0
4.0,-199.0,-121.0,177.0,20.0,-53.0,-18.0,-769.0,-394.0
1.0,-197.0,-123.0,182.0,16.0,-51.0,-23.0,-774.0,-400.0
-1.0,-195.0,-125.0,183.0,11.0,-54.0,-28.0,-768.0,-396.0
-2.0,-198.0,-128.0,184.0,4.0,-52.0,-30.0,-772.0,-398.0
-2.0,-199.0,-124.0,180.0,-5.0,-55.0,-29.0,-774.0,-402.0
-1.0,-199.0,-124.0,168.0,-13.0,-52.0,-26.0,-774.0,-405.0
-2.0,-200.0,-128.0,153.0,-15.0,-55.0,-26.0,-779.0,-410.0
2.0,-199.0,-125.0,132.0,-15.0,-54.0,-21.0,-776.0,-409.0
-6.0,-197.0,-141.0,126.0,-11.0,-56.0,-22.0,-778.0,-413.0
3.0,-203.0,-130.0,121.0,-3.0,-50.0,-20.0,-790.0,-421.0
4.0,-208.0,-129.0,116.0,6.0,-52.0,-22.0,-799.0,-423.0
1.0,-207.0,-132.0,114.0,15.0,-50.0,-17.0,-807.0,-424.0
3.0,-211.0,-133.0,117.0,21.0,-54.0,-15.0,-815.0,-424.0
4.0,-211.0,-135.0,121.0,25.0,-52.0,-13.0,-818.0,-423.0
3.0,-210.0,-131.0,130.0,28.0,-52.0,-13.0,-814.0,-429.0
5.0,-212.0,-131.0,139.0,30.0,-50.0,-6.0,-818.0,-436.0
5.0,-208.0,-136.0,146.0,34.0,-51.0,-10.0,-810.0,-431.0
7.0,-210.0,-132.0,151.0,34.0,-45.0,-12.0,-815.0,-432.0
6.0,-210.0,-131.0,151.0,37.0,-42.0,-6.0,-810.0,-434.0
3.0,-212.0,-107.0,148.0,40.0,-37.0,-10.0,-811.0,-431.0
6.0,-211.0,-130.0,150.0,43.0,-38.0,-6.0,-818.0,-425.0
4.0,-212.0,-131.0,147.0,46.0,-38.0,-7.0,-813.0,-421.0
4.0,-212.0,-131.0,150.0,50.0,-43.0,-8.0,-828.0,-424.0
6.0,-217.0,-127.0,153.0,55.0,-41.0,-9.0,-821.0,-410.0
6.0,-213.0,-129.0,164.0,59.0,-41.0,-9.0,-822.0,-413.0
4.0,-215.0,-126.0,176.0,60.0,-36.0,-4.0,-826.0,-411.0
4.0,-212.0,-128.0,190.0,65.0,-36.0,-4.0,-828.0,-412.0
8.0,-212.0,-128.0,200.0,68.0,-33.0,-6.0,-825.0,-418.0
8.0,-213.0,-129.0,208.0,76.0,-36.0,-5.0,-820.0,-419.0
5.0,-214.0,-126.0,214.0,87.0,-38.0,-3.0,-827.0,-425.0
17.0,-217.0,-132.0,216.0,102.0,-42.0,0.0,-824.0,-430.0
8.0,-214.0,-136.0,216.0,112.0,-40.0,2.0,-830.0,-439.0
9.0,-215.0,-135.0,217.0,121.0,-45.0,8.0,-831.0,-443.0
12.0,-218.0,-137.0,218.0,132.0,-48.0,8.0,-831.0,-445.0
8.0,-217.0,-135.0,223.0,138.0,-57.0,8.0,-837.0,-447.0
11.0,-223.0,-138.0,230.0,143.0,-64.0,9.0,-845.0,-451.0
8.0,-220.0,-135.0,242.0,141.0,-68.0,6.0,-843.0,-444.0
13.0,-223.0,-135.0,255.0,134.0,-66.0,7.0,-849.0,-440.0
7.0,-222.0,-133.0,271.0,123.0,-68.0,7.0,-847.0,-435.0
11.0,-222.0,-134.0,291.0,114.0,-66.0,5.0,-845.0,-435.0
3.0,-214.0,-131.0,305.0,106.0,-67.0,3.0,-837.0,-421.0
5.0,-214.0,-130.0,322.0,100.0,-65.0,-9.0,-832.0,-416.0
7.0,-216.0,-128.0,334.0,96.0,-65.0,-9.0,-824.0,-417.0
3.0,-210.0,-127.0,339.0,89.0,-60.0,-14.0,-820.0,-411.0
2.0,-211.0,-128.0,338.0,85.0,-62.0,-15.0,-813.0,-410.0
3.0,-207.0,-127.0,332.0,83.0,-62.0,-18.0,-803.0,-405.0
2.0,-205.0,-126.0,318.0,82.0,-65.0,-17.0,-797.0,-408.0
6.0,-205.0,-130.0,304.0,87.0,-63.0,-12.0,-800.0,-408.0
3.0,-202.0,-120.0,288.0,92.0,-65.0,-14.0,-789.0,-400.0
6.0,-202.0,-123.0,274.0,101.0,-64.0,-6.0,-791.0,-397.0
5.0,-204.0,-121.0,261.0,111.0,-67.0,-3.0,-789.0,-391.0
5.0,-204.0,-117.0,249.0,122.0,-65.0,-4.0,-793.0,-386.0
6.0,-202.0,-120.0,242.0,128.0,-66.0,3.0,-788.0,-376.0
9.0,-204.0,-120.0,236.0,132.0,-60.0,6.0,-794.0,-377.0
7.0,-205.0,-118.0,235.0,130.0,-57.0,3.0,-793.0,-376.0
7.0,-202.0,-120.0,236.0,123.0,-49.0,5.0,-787.0,-373.0
8.0,-203.0,-117.0,243.0,117.0,-44.0,5.0,-792.0,-369.0
9.0,-206.0,-117.0,248.0,114.0,-35.0,8.0,-784.0,-379.0
6.0,-203.0,-120.0,253.0,115.0,-33.0,9.0,-785.0,-372.0
8.0,-202.0,-117.0,259.0,121.0,-27.0,10.0,-783.0,-376.0
7.0,-197.0,-116.0,263.0,125.0,-27.0,9.0,-781.0,-379.0
10.0,-201.0,-120.0,265.0,130.0,-20.0,10.0,-776.0,-382.0
14.0,-206.0,-116.0,260.0,134.0,-19.0,20.0,-776.0,-388.0
14.0,-196.0,-123.0,253.0,134.0,-14.0,17.0,-775.0,-398.0
14.0,-199.0,-126.0,236.0,133.0,-14.0,24.0,-771.0,-391.0
14.0,-196.0,-121.0,219.0,135.0,-11.0,29.0,-770.0,-391.0
15.0,-201.0,-121.0,199.0,135.0,-14.0,33.0,-776.0,-391.0
18.0,-201.0,-119.0,186.0,139.0,-13.0,38.0,-780.0,-386.0
15.0,-200.0,-119.0,179.0,147.0,-19.0,38.0,-781.0,-383.0
18.0,-204.0,-121.0,173.0,157.0,-21.0,43.0,-782.0,-375.0
16.0,-204.0,-116.0,175.0,165.0,-25.0,42.0,-784.0,-370.0
19.0,-203.0,-117.0,178.0,174.0,-27.0,43.0,-785.0,-371.0
16.0,-202.0,-111.0,180.0,180.0,-30.0,40.0,-781.0,-366.0
7.0,-200.0,-110.0,180.0,180.0,-29.0,39.0,-783.0,-358.0
16.0,-201.0,-120.0,179.0,183.0,-31.0,32.0,-786.0,-365.0
14.0,-203.0,-117.0,174.0,186.0,-29.0,36.0,-783.0,-365.0
13.0,-202.0,-117.0,167.0,193.0,-32.0,32.0,-796.0,-369.0
15.0,-208.0,-113.0,162.0,198.0,-30.0,26.0,-795.0,-372.0
14.0,-207.0,-119.0,157.0,205.0,-34.0,22.0,-803.0,-371.0
13.0,-209.0,-120.0,154.0,210.0,-33.0,23.0,-807.0,-373.0
13.0,-214.0,-117.0,153.0,216.0,-36.0,24.0,-812.0,-372.0
11.0,-212.0,-120.0,155.0,221.0,-33.0,26.0,-812.0,-373.0
14.0,-211.0,-117.0,163.0,227.0,-35.0,31.0,-812.0,-372.0
14.0,-213.0,-116.0,172.0,237.0,-35.0,33.0,-819.0,-374.0
7.0,-209.0,-133.0,185.0,249.0,-40.0,38.0,-819.0,-373.0
17.0,-215.0,-115.0,199.0,264.0,-45.0,42.0,-820.0,-377.0
19.0,-213.0,-122.0,211.0,272.0,-53.0,40.0,-820.0,-379.0
16.0,-209.0,-118.0,218.0,273.0,-56.0,38.0,-817.0,-376.0
15.0,-208.0,-116.0,224.0,268.0,-64.0,37.0,-806.0,-379.0
14.0,-209.0,-118.0,229.0,258.0,-64.0,32.0,-804.0,-370.0
15.0,-206.0,-115.0,232.0,248.0,-67.0,24.0,-798.0,-361.0
8.0,-204.0,-115.0,234.0,231.0,-62.0,10.0,-784.0,-363.0
5.0,-201.0,-118.0,239.0,212.0,-62.0,-1.0,-774.0,-358.0
1.0,-196.0,-113.0,240.0,190.0,-53.0,-12.0,-764.0,-350.0
0.0,-193.0,-119.0,241.0,166.0,-48.0,-23.0,-751.0,-354.0
7.0,-188.0,-120.0,235.0,134.0,-37.0,-29.0,-741.0,-355.0
-3.0,-190.0,-112.0,224.0,110.0,-32.0,-40.0,-727.0,-353.0
-4.0,-188.0,-111.0,209.0,91.0,-22.0,-36.0,-715.0,-348.0
-4.0,-188.0,-110.0,193.0,78.0,-16.0,-39.0,-715.0,-344.0
-4.0,-184.0,-110.0,180.0,69.0,-5.0,-36.0,-721.0,-340.0
1.0,-186.0,-111.0,171.0,66.0,-1.0,-28.0,-715.0,-335.0
0.0,-186.0,-110.0,165.0,66.0,4.0,-14.0,-719.0,-330.0
4.0,-188.0,-100.0,166.0,69.0,2.0,-3.0,-719.0,-323.0
7.0,-187.0,-106.0,171.0,78.0,0.0,14.0,-719.0,-315.0
16.0,-190.0,-102.0,182.0,88.0,-13.0,31.0,-719.0,-311.0
20.0,-187.0,-99.0,195.0,102.0,-22.0,46.0,-722.0,-303.0
20.0,-190.0,-106.0,210.0,111.0,-36.0,57.0,-717.0,-302.0
28.0,-191.0,-100.0,228.0,118.0,-45.0,75.0,-719.0,-297.0
27.0,-187.0,-100.0,245.0,128.0,-60.0,80.0,-709.0,-299.0
26.0,-182.0,-100.0,265.0,135.0,-68.0,87.0,-711.0,-293.0
29.0,-183.0,-101.0,286.0,148.0,-77.0,88.0,-699.0,-281.0
28.0,-181.0,-93.0,310.0,157.0,-81.0,81.0,-691.0,-278.0
24.0,-178.0,-93.0,337.0,163.0,-85.0,79.0,-675.0,-267.0
21.0,-177.0,-89.0,365.0,169.0,-79.0,65.0,-663.0,-251.0
17.0,-170.0,-83.0,395.0,171.0,-70.0,45.0,-655.0,-236.0
13.0,-166.0,-80.0,438.0,163.0,-54.0,33.0,-639.0,-219.0
6.0,-165.0,-79.0,474.0,152.0,-37.0,15.0,-628.0,-207.0
11.0,-147.0,-78.0,506.0,137.0,-16.0,2.0,-619.0,-192.0
4.0,-159.0,-69.0,536.0,125.0,0.0,-3.0,-613.0,-189.0
1.0,-161.0,-70.0,562.0,116.0,19.0,-11.0,-612.0,-181.0
4.0,-160.0,-74.0,579.0,110.0,31.0,-6.0,-618.0,-184.0
4.0,-162.0,-71.0,592.0,107.0,43.0,2.0,-618.0,-186.0
9.0,-163.0,-69.0,597.0,115.0,43.0,12.0,-629.0,-186.0
12.0,-164.0,-74.0,599.0,132.0,42.0,22.0,-640.0,-188.0
21.0,-171.0,-72.0,600.0,157.0,26.0,45.0,-648.0,-196.0
18.0,-174.0,-75.0,601.0,187.0,9.0,56.0,-669.0,-197.0
24.0,-181.0,-76.0,598.0,208.0,-15.0,67.0,-693.0,-199.0
25.0,-188.0,-76.0,599.0,228.0,-34.0,75.0,-710.0,-205.0
28.0,-197.0,-62.0,603.0,243.0,-52.0,82.0,-737.0,-215.0
28.0,-196.0,-79.0,617.0,255.0,-60.0,88.0,-761.0,-209.0
30.0,-203.0,-80.0,641.0,264.0,-66.0,91.0,-777.0,-218.0
25.0,-206.0,-76.0,676.0,271.0,-60.0,85.0,-787.0,-210.0
28.0,-213.0,-79.0,722.0,274.0,-51.0,79.0,-804.0,-214.0
23.0,-216.0,-78.0,777.0,271.0,-28.0,66.0,-811.0,-212.0
15.0,-215.0,-77.0,837.0,259.0,8.0,54.0,-818.0,-204.0
12.0,-217.0,-76.0,917.0,228.0,49.0,35.0,-833.0,-203.0
14.0,-225.0,-75.0,986.0,194.0,89.0,31.0,-846.0,-196.0
8.0,-225.0,-73.0,1053.0,157.0,128.0,21.0,-867.0,-199.0
0.0,-236.0,-78.0,1115.0,116.0,154.0,16.0,-889.0,-215.0
8.0,-243.0,-86.0,1170.0,80.0,170.0,19.0,-918.0,-239.0
14.0,-250.0,-92.0,1210.0,53.0,172.0,26.0,-950.0,-264.0
18.0,-262.0,-98.0,1237.0,37.0,165.0,43.0,-997.0,-289.0
18.0,-274.0,-107.0,1250.0,22.0,141.0,46.0,-1059.0,-335.0
22.0,-288.0,-120.0,1251.0,13.0,116.0,50.0,-1114.0,-378.0
24.0,-310.0,-126.0,1252.0,23.0,88.0,57.0,-1189.0,-422.0
33.0,-332.0,-128.0,1245.0,78.0,77.0,66.0,-1263.0,-412.0
32.0,-358.0,-108.0,1283.0,159.0,60.0,91.0,-1377.0,-356.0
48.0,-397.0,-72.0,1376.0,266.0,37.0,122.0,-1481.0,-226.0
46.0,-441.0,-22.0,1565.0,384.0,5.0,146.0,-1617.0,-21.0
42.0,-489.0,48.0,1851.0,486.0,-15.0,171.0,-1796.0,199.0
53.0,-536.0,97.0,2220.0,557.0,-43.0,202.0,-1995.0,476.0
53.0,-596.0,176.0,2641.0,580.0,-69.0,208.0,-2217.0,782.0
53.0,-654.0,216.0,3058.0,567.0,-93.0,208.0,-2444.0,967.0
43.0,-693.0,225.0,3372.0,508.0,-118.0,190.0,-2608.0,1003.0
33.0,-704.0,198.0,3483.0,368.0,-163.0,158.0,-2714.0,888.0
30.0,-697.0,171.0,3274.0,226.0,-217.0,110.0,-2727.0,790.0
2.0,-651.0,66.0,2845.0,99.0,-260.0,3.0,-2600.0,421.0
26.0,-637.0,-96.0,2115.0,15.0,-269.0,52.0,-2613.0,-189.0
47.0,-614.0,-152.0,1101.0,-10.0,-281.0,127.0,-2471.0,-515.0
45.0,-560.0,-92.0,198.0,62.0,-307.0,106.0,-2159.0,-263.0
16.0,-515.0,-2.0,-159.0,192.0,-293.0,50.0,-1935.0,105.0
16.0,-479.0,77.0,29.0,289.0,-206.0,63.0,-1764.0,379.0
13.0,-425.0,91.0,518.0,274.0,-117.0,80.0,-1576.0,464.0
10.0,-350.0,70.0,1044.0,157.0,-38.0,59.0,-1336.0,389.0
0.0,-272.0,50.0,1434.0,-24.0,52.0,25.0,-1079.0,308.0
-2.0,-211.0,46.0,1657.0,-175.0,125.0,-1.0,-826.0,267.0
-8.0,-137.0,58.0,1661.0,-293.0,158.0,-22.0,-553.0,304.0
-5.0,-66.0,92.0,1529.0,-381.0,131.0,-8.0,-294.0,489.0
4.0,20.0,158.0,1288.0,-426.0,40.0,42.0,58.0,731.0
12.0,100.0,226.0,926.0,-436.0,-69.0,81.0,338.0,973.0
7.0,167.0,263.0,442.0,-435.0,-175.0,81.0,571.0,1140.0
4.0,213.0,261.0,-133.0,-449.0,-239.0,92.0,718.0,1140.0
16.0,204.0,194.0,-738.0,-493.0,-256.0,100.0,730.0,933.0
16.0,171.0,127.0,-1346.0,-551.0,-224.0,83.0,568.0,605.0
18.0,100.0,43.0,-1939.0,-604.0,-152.0,78.0,307.0,263.0
19.0,5.0,-19.0,-2593.0,-617.0,-92.0,71.0,-18.0,47.0
20.0,-99.0,-37.0,-2992.0,-600.0,-53.0,64.0,-362.0,-35.0
31.0,-219.0,-14.0,-3178.0,-552.0,-33.0,93.0,-748.0,31.0
33.0,-331.0,40.0,-3098.0,-522.0,-52.0,120.0,-1134.0,199.0
50.0,-427.0,71.0,-2752.0,-535.0,-85.0,153.0,-1478.0,365.0
60.0,-483.0,91.0,-2206.0,-554.0,-114.0,206.0,-1742.0,450.0
89.0,-526.0,77.0,-1533.0,-523.0,-128.0,262.0,-1937.0,438.0
80.0,-542.0,69.0,-790.0,-407.0,-128.0,259.0,-1979.0,359.0
74.0,-522.0,32.0,-59.0,-232.0,-95.0,237.0,-1922.0,229.0
63.0,-479.0,-1.0,588.0,-8.0,-76.0,206.0,-1789.0,98.0
56.0,-425.0,-26.0,1176.0,157.0,-93.0,188.0,-1610.0,2.0
46.0,-363.0,-37.0,1496.0,282.0,-140.0,157.0,-1403.0,-46.0
32.0,-305.0,-35.0,1682.0,361.0,-188.0,114.0,-1201.0,-43.0
25.0,-264.0,-23.0,1760.0,398.0,-226.0,87.0,-1015.0,13.0
14.0,-217.0,-2.0,1763.0,401.0,-239.0,50.0,-845.0,80.0
10.0,-181.0,10.0,1725.0,381.0,-231.0,43.0,-709.0,136.0
6.0,-155.0,16.0,1662.0,342.0,-207.0,24.0,-620.0,182.0
-4.0,-136.0,40.0,1573.0,294.0,-180.0,26.0,-546.0,206.0
4.0,-125.0,30.0,1460.0,237.0,-144.0,25.0,-492.0,219.0
8.0,-126.0,33.0,1326.0,160.0,-104.0,34.0,-494.0,230.0
8.0,-133.0,33.0,1159.0,102.0,-60.0,50.0,-520.0,227.0
14.0,-142.0,37.0,1027.0,54.0,-18.0,51.0,-567.0,237.0
15.0,-160.0,41.0,922.0,14.0,23.0,68.0,-628.0,240.0
20.0,-183.0,43.0,846.0,-17.0,50.0,76.0,-699.0,239.0
23.0,-204.0,36.0,788.0,-39.0,61.0,83.0,-776.0,232.0
26.0,-222.0,30.0,735.0,-50.0,49.0,91.0,-833.0,218.0
30.0,-232.0,29.0,679.0,-49.0,28.0,108.0,-895.0,219.0
40.0,-248.0,33.0,613.0,-33.0,-5.0,118.0,-940.0,219.0
39.0,-264.0,43.0,544.0,-5.0,-39.0,134.0,-995.0,231.0
47.0,-267.0,38.0,480.0,31.0,-85.0,159.0,-1028.0,236.0
48.0,-277.0,38.0,416.0,61.0,-121.0,175.0,-1062.0,233.0
51.0,-283.0,39.0,375.0,87.0,-153.0,187.0,-1084.0,229.0
48.0,-284.0,35.0,349.0,101.0,-176.0,187.0,-1098.0,221.0
50.0,-286.0,32.0,338.0,100.0,-190.0,186.0,-1107.0,217.0
48.0,-290.0,31.0,344.0,88.0,-191.0,191.0,-1102.0,214.0
49.0,-284.0,32.0,364.0,71.0,-186.0,185.0,-1079.0,209.0
51.0,-277.0,26.0,394.0,53.0,-170.0,185.0,-1056.0,200.0
51.0,-263.0,26.0,424.0,41.0,-153.0,183.0,-1019.0,181.0
46.0,-253.0,21.0,440.0,28.0,-137.0,169.0,-977.0,158.0
39.0,-246.0,22.0,429.0,18.0,-117.0,162.0,-927.0,136.0
39.0,-228.0,11.0,394.0,12.0,-101.0,153.0,-876.0,132.0
43.0,-218.0,10.0,355.0,7.0,-88.0,145.0,-843.0,141.0
42.0,-211.0,11.0,315.0,2.0,-74.0,150.0,-820.0,143.0
42.0,-208.0,13.0,277.0,-2.0,-67.0,150.0,-802.0,145.0
41.0,-202.0,14.0,243.0,2.0,-60.0,147.0,-796.0,161.0
39.0,-205.0,19.0,214.0,14.0,-58.0,144.0,-792.0,174.0
41.0,-209.0,30.0,178.0,35.0,-56.0,144.0,-804.0,199.0
36.0,-210.0,31.0,144.0,57.0,-60.0,136.0,-813.0,211.0
33.0,-219.0,29.0,107.0,78.0,-61.0,126.0,-828.0,225.0
36.0,-220.0,36.0,68.0,102.0,-64.0,123.0,-842.0,223.0
42.0,-228.0,35.0,26.0,115.0,-60.0,116.0,-861.0,229.0
34.0,-233.0,37.0,1.0,126.0,-55.0,113.0,-872.0,232.0
32.0,-236.0,38.0,-13.0,132.0,-49.0,112.0,-887.0,235.0
30.0,-236.0,39.0,-15.0,136.0,-45.0,113.0,-898.0,235.0
31.0,-241.0,36.0,-16.0,136.0,-39.0,110.0,-914.0,234.0
32.0,-242.0,36.0,-14.0,136.0,-36.0,118.0,-922.0,236.0
39.0,-246.0,37.0,-7.0,133.0,-30.0,115.0,-927.0,234.0
36.0,-247.0,40.0,0.0,128.0,-27.0,122.0,-932.0,241.0
40.0,-251.0,38.0,13.0,123.0,-24.0,133.0,-941.0,254.0
39.0,-246.0,46.0,27.0,123.0,-25.0,145.0,-937.0,268.0
35.0,-250.0,54.0,48.0,126.0,-25.0,151.0,-932.0,287.0
39.0,-244.0,53.0,65.0,128.0,-25.0,149.0,-928.0,304.0
41.0,-242.0,58.0,76.0,126.0,-24.0,151.0,-922.0,313.0
40.0,-239.0,59.0,81.0,122.0,-25.0,151.0,-900.0,312.0
41.0,-236.0,55.0,78.0,119.0,-23.0,148.0,-892.0,309.0
42.0,-229.0,53.0,71.0,116.0,-24.0,146.0,-880.0,314.0
38.0,-227.0,56.0,62.0,117.0,-22.0,145.0,-860.0,314.0
36.0,-221.0,57.0,51.0,122.0,-21.0,144.0,-852.0,324.0
39.0,-223.0,58.0,41.0,127.0,-21.0,140.0,-844.0,324.0
38.0,-218.0,59.0,35.0,133.0,-18.0,139.0,-843.0,319.0
33.0,-222.0,56.0,28.0,136.0,-15.0,139.0,-845.0,316.0
26.0,-211.0,49.0,22.0,137.0,-13.0,134.0,-849.0,312.0
38.0,-226.0,55.0,18.0,138.0,-10.0,131.0,-863.0,306.0
37.0,-229.0,56.0,17.0,140.0,-8.0,131.0,-873.0,309.0
37.0,-234.0,55.0,22.0,139.0,-5.0,137.0,-890.0,308.0
38.0,-239.0,56.0,28.0,137.0,-4.0,135.0,-902.0,314.0
35.0,-241.0,58.0,36.0,136.0,0.0,140.0,-916.0,308.0
36.0,-243.0,56.0,47.0,137.0,1.0,136.0,-919.0,308.0
35.0,-245.0,53.0,58.0,136.0,5.0,133.0,-925.0,309.0
33.0,-240.0,55.0,64.0,134.0,6.0,131.0,-925.0,306.0
37.0,-244.0,52.0,68.0,135.0,10.0,126.0,-926.0,305.0
40.0,-245.0,48.0,71.0,137.0,12.0,134.0,-927.0,301.0
41.0,-241.0,44.0,75.0,141.0,12.0,140.0,-922.0,295.0
37.0,-240.0,48.0,76.0,151.0,15.0,138.0,-920.0,280.0
39.0,-242.0,48.0,78.0,160.0,14.0,132.0,-916.0,269.0
35.0,-241.0,46.0,74.0,170.0,12.0,133.0,-905.0,268.0
36.0,-239.0,47.0,73.0,175.0,12.0,132.0,-907.0,266.0
39.0,-240.0,44.0,72.0,184.0,9.0,138.0,-916.0,258.0
37.0,-241.0,43.0,71.0,195.0,7.0,140.0,-921.0,260.0
41.0,-238.0,38.0,70.0,208.0,4.0,143.0,-914.0,261.0
38.0,-237.0,42.0,75.0,217.0,-1.0,156.0,-906.0,253.0
39.0,-236.0,36.0,80.0,221.0,-9.0,151.0,-900.0,230.0
31.0,-235.0,30.0,83.0,219.0,-14.0,136.0,-883.0,208.0
13.0,-230.0,29.0,77.0,214.0,-17.0,110.0,-883.0,198.0
24.0,-236.0,25.0,63.0,206.0,-11.0,87.0,-888.0,194.0
20.0,-241.0,31.0,42.0,189.0,-6.0,67.0,-898.0,208.0
17.0,-242.0,34.0,25.0,168.0,-2.0,68.0,-931.0,240.0
19.0,-246.0,44.0,14.0,145.0,-2.0,72.0,-938.0,260.0
22.0,-253.0,48.0,17.0,127.0,-5.0,83.0,-951.0,285.0
24.0,-252.0,50.0,38.0,108.0,-7.0,95.0,-954.0,282.0
26.0,-244.0,47.0,59.0,99.0,-10.0,103.0,-946.0,273.0
28.0,-243.0,42.0,79.0,94.0,-12.0,107.0,-929.0,255.0
32.0,-240.0,35.0,91.0,96.0,-10.0,106.0,-909.0,235.0
34.0,-240.0,34.0,91.0,105.0,-7.0,113.0,-892.0,222.0
37.0,-242.0,35.0,82.0,116.0,-1.0,120.0,-888.0,218.0
35.0,-233.0,28.0,67.0,122.0,4.0,128.0,-885.0,212.0
35.0,-233.0,28.0,41.0,125.0,11.0,125.0,-888.0,204.0
36.0,-235.0,30.0,9.0,123.0,19.0,126.0,-892.0,208.0
33.0,-238.0,34.0,-19.0,122.0,28.0,122.0,-900.0,223.0
32.0,-240.0,37.0,-37.0,122.0,35.0,113.0,-906.0,238.0
32.0,-242.0,40.0,-42.0,122.0,39.0,107.0,-909.0,249.0
27.0,-239.0,40.0,-41.0,128.0,38.0,100.0,-909.0,252.0
28.0,-238.0,44.0,-37.0,136.0,34.0,89.0,-908.0,250.0
23.0,-242.0,41.0,-32.0,142.0,27.0,80.0,-905.0,249.0
24.0,-237.0,37.0,-32.0,145.0,21.0,72.0,-903.0,247.0
22.0,-229.0,27.0,-36.0,145.0,15.0,64.0,-894.0,239.0
19.0,-236.0,36.0,-44.0,143.0,8.0,62.0,-893.0,232.0
18.0,-234.0,35.0,-57.0,140.0,0.0,59.0,-900.0,233.0
20.0,-240.0,32.0,-70.0,132.0,-9.0,60.0,-897.0,231.0
18.0,-238.0,38.0,-85.0,120.0,-13.0,66.0,-897.0,237.0
21.0,-239.0,38.0,-93.0,103.0,-18.0,73.0,-903.0,241.0
25.0,-239.0,41.0,-98.0,83.0,-20.0,86.0,-905.0,245.0
29.0,-241.0,38.0,-104.0,63.0,-22.0,99.0,-907.0,247.0
33.0,-240.0,35.0,-111.0,44.0,-25.0,114.0,-915.0,237.0
31.0,-242.0,37.0,-121.0,27.0,-26.0,123.0,-909.0,233.0
43.0,-234.0,45.0,-131.0,13.0,-26.0,129.0,-909.0,237.0
34.0,-247.0,44.0,-137.0,2.0,-24.0,134.0,-911.0,237.0
42.0,-241.0,34.0,-139.0,-4.0,-21.0,143.0,-910.0,236.0
40.0,-240.0,39.0,-139.0,-7.0,-16.0,148.0,-909.0,236.0
42.0,-240.0,31.0,-138.0,-3.0,-9.0,155.0,-917.0,229.0
43.0,-243.0,32.0,-135.0,3.0,-4.0,159.0,-921.0,227.0
42.0,-241.0,35.0,-137.0,14.0,4.0,153.0,-920.0,223.0
42.0,-243.0,32.0,-139.0,26.0,9.0,148.0,-923.0,218.0
37.0,-242.0,30.0,-142.0,40.0,15.0,128.0,-923.0,209.0
36.0,-238.0,24.0,-142.0,52.0,21.0,117.0,-927.0,205.0
29.0,-243.0,29.0,-141.0,64.0,24.0,101.0,-925.0,200.0
26.0,-245.0,27.0,-143.0,74.0,28.0,85.0,-923.0,197.0
8.0,-250.0,28.0,-143.0,82.0,30.0,80.0,-919.0,201.0
21.0,-240.0,23.0,-148.0,87.0,30.0,66.0,-921.0,192.0
20.0,-243.0,23.0,-151.0,92.0,30.0,59.0,-921.0,197.0
16.0,-246.0,28.0,-154.0,93.0,29.0,55.0,-921.0,200.0
15.0,-242.0,24.0,-155.0,91.0,29.0,51.0,-922.0,201.0
18.0,-242.0,26.0,-156.0,87.0,24.0,54.0,-926.0,205.0
20.0,-247.0,27.0,-157.0,81.0,21.0,56.0,-926.0,205.0
12.0,-248.0,28.0,-159.0,75.0,16.0,59.0,-927.0,206.0
18.0,-246.0,33.0,-161.0,65.0,13.0,67.0,-936.0,206.0
22.0,-245.0,30.0,-162.0,59.0,7.0,78.0,-941.0,212.0
24.0,-249.0,30.0,-156.0,53.0,4.0,85.0,-942.0,216.0
36.0,-249.0,25.0,-149.0,46.0,1.0,96.0,-936.0,218.0
30.0,-248.0,27.0,-139.0,40.0,-2.0,108.0,-935.0,217.0
32.0,-245.0,28.0,-122.0,39.0,-2.0,116.0,-931.0,214.0
37.0,-245.0,29.0,-106.0,38.0,1.0,120.0,-932.0,216.0
38.0,-245.0,31.0,-92.0,40.0,1.0,132.0,-930.0,213.0
32.0,-244.0,28.0,-80.0,42.0,5.0,135.0,-927.0,217.0
40.0,-245.0,28.0,-66.0,45.0,10.0,140.0,-925.0,215.0
39.0,-245.0,30.0,-57.0,49.0,12.0,143.0,-927.0,216.0
39.0,-241.0,31.0,-48.0,55.0,14.0,140.0,-924.0,215.0
40.0,-244.0,36.0,-40.0,58.0,14.0,142.0,-926.0,214.0
39.0,-249.0,32.0,-32.0,65.0,16.0,135.0,-930.0,217.0
36.0,-243.0,29.0,-27.0,72.0,19.0,131.0,-935.0,219.0
35.0,-244.0,35.0,-22.0,75.0,19.0,124.0,-933.0,224.0
34.0,-246.0,36.0,-22.0,78.0,21.0,124.0,-937.0,224.0
34.0,-249.0,33.0,-22.0,78.0,20.0,120.0,-931.0,230.0
34.0,-249.0,39.0,-21.0,76.0,20.0,119.0,-936.0,225.0
35.0,-248.0,34.0,-19.0,74.0,17.0,115.0,-935.0,233.0
34.0,-246.0,37.0,-15.0,71.0,15.0,108.0,-928.0,229.0
31.0,-247.0,35.0,-9.0,70.0,12.0,107.0,-931.0,226.0
28.0,-243.0,37.0,-3.0,71.0,9.0,103.0,-931.0,230.0
30.0,-246.0,34.0,5.0,73.0,6.0,103.0,-925.0,231.0
26.0,-244.0,37.0,13.0,76.0,4.0,103.0,-922.0,224.0
23.0,-235.0,27.0,23.0,82.0,-2.0,98.0,-928.0,228.0
28.0,-244.0,38.0,30.0,87.0,-3.0,94.0,-921.0,227.0
27.0,-244.0,33.0,36.0,91.0,-8.0,95.0,-920.0,232.0
27.0,-242.0,35.0,39.0,93.0,-7.0,102.0,-924.0,235.0
26.0,-244.0,36.0,39.0,91.0,-9.0,97.0,-923.0,238.0
27.0,-244.0,36.0,39.0,88.0,-8.0,91.0,-918.0,236.0
27.0,-243.0,39.0,38.0,82.0,-8.0,97.0,-921.0,239.0
31.0,-238.0,38.0,36.0,77.0,-6.0,96.0,-916.0,245.0
30.0,-241.0,41.0,35.0,70.0,-6.0,102.0,-916.0,236.0
32.0,-239.0,35.0,35.0,62.0,-3.0,100.0,-916.0,239.0
26.0,-241.0,37.0,33.0,53.0,-3.0,102.0,-908.0,236.0
17.0,-238.0,66.0,30.0,46.0,0.0,106.0,-918.0,237.0
27.0,-246.0,44.0,30.0,39.0,0.0,106.0,-913.0,237.0
30.0,-241.0,35.0,32.0,36.0,3.0,114.0,-915.0,235.0
29.0,-241.0,35.0,34.0,32.0,3.0,114.0,-920.0,236.0
32.0,-244.0,37.0,38.0,31.0,5.0,112.0,-918.0,240.0
32.0,-241.0,34.0,43.0,28.0,6.0,109.0,-919.0,241.0
32.0,-241.0,36.0,44.0,25.0,7.0,108.0,-920.0,238.0
32.0,-240.0,36.0,44.0,26.0,8.0,111.0,-915.0,234.0
30.0,-243.0,33.0,42.0,28.0,10.0,111.0,-924.0,234.0
28.0,-244.0,36.0,36.0,31.0,7.0,108.0,-927.0,234.0
37.0,-243.0,36.0,30.0,34.0,9.0,110.0,-924.0,231.0
32.0,-243.0,35.0,22.0,38.0,7.0,109.0,-924.0,230.0
30.0,-243.0,36.0,13.0,41.0,9.0,110.0,-924.0,233.0
32.0,-243.0,34.0,10.0,45.0,8.0,110.0,-922.0,233.0
32.0,-246.0,36.0,7.0,47.0,9.0,113.0,-925.0,224.0
30.0,-242.0,38.0,5.0,50.0,6.0,113.0,-919.0,229.0
31.0,-243.0,35.0,7.0,53.0,7.0,116.0,-920.0,230.0
29.0,-238.0,39.0,12.0,53.0,6.0,111.0,-915.0,226.0
30.0,-245.0,34.0,17.0,52.0,7.0,104.0,-919.0,224.0
31.0,-239.0,36.0,20.0,46.0,7.0,111.0,-922.0,229.0
30.0,-238.0,29.0,21.0,42.0,9.0,109.0,-917.0,228.0
25.0,-224.0,30.0,19.0,38.0,6.0,102.0,-916.0,229.0
32.0,-239.0,33.0,17.0,34.0,7.0,107.0,-910.0,227.0
27.0,-240.0,34.0,14.0,33.0,5.0,109.0,-915.0,224.0
31.0,-239.0,33.0,8.0,32.0,5.0,107.0,-919.0,223.0
33.0,-242.0,31.0,4.0,33.0,2.0,111.0,-909.0,228.0
31.0,-242.0,35.0,-1.0,34.0,2.0,110.0,-911.0,224.0
29.0,-242.0,31.0,-5.0,36.0,0.0,110.0,-919.0,221.0
29.0,-241.0,34.0,-11.0,35.0,1.0,111.0,-918.0,219.0
28.0,-242.0,32.0,-19.0,35.0,0.0,108.0,-921.0,222.0
27.0,-242.0,29.0,-25.0,36.0,-1.0,112.0,-925.0,221.0
28.0,-243.0,34.0,-32.0,38.0,-3.0,106.0,-930.0,219.0
23.0,-238.0,29.0,-38.0,41.0,-2.0,107.0,-926.0,217.0
29.0,-243.0,34.0,-44.0,43.0,-7.0,113.0,-926.0,210.0
29.0,-247.0,30.0,-45.0,46.0,-8.0,105.0,-923.0,214.0
30.0,-246.0,28.0,-44.0,48.0,-11.0,104.0,-923.0,214.0
27.0,-244.0,31.0,-40.0,50.0,-12.0,102.0,-920.0,213.0
29.0,-241.0,27.0,-37.0,51.0,-16.0,102.0,-920.0,205.0
28.0,-241.0,30.0,-31.0,55.0,-19.0,101.0,-919.0,209.0
33.0,-240.0,30.0,-30.0,58.0,-26.0,96.0,-920.0,210.0
26.0,-240.0,31.0,-30.0,60.0,-28.0,98.0,-918.0,209.0
26.0,-240.0,28.0,-36.0,61.0,-33.0,96.0,-923.0,206.0
28.0,-242.0,22.0,-45.0,61.0,-32.0,99.0,-920.0,211.0
28.0,-248.0,39.0,-55.0,61.0,-35.0,98.0,-924.0,211.0
28.0,-241.0,30.0,-67.0,61.0,-35.0,99.0,-919.0,217.0
26.0,-243.0,30.0,-78.0,65.0,-37.0,105.0,-920.0,220.0
29.0,-242.0,33.0,-82.0,72.0,-39.0,100.0,-919.0,228.0
28.0,-242.0,35.0,-81.0,82.0,-42.0,106.0,-923.0,231.0
31.0,-244.0,35.0,-72.0,102.0,-41.0,109.0,-924.0,233.0
26.0,-243.0,35.0,-59.0,116.0,-43.0,111.0,-929.0,230.0
28.0,-244.0,35.0,-43.0,127.0,-40.0,107.0,-928.0,232.0
30.0,-248.0,36.0,-26.0,132.0,-39.0,110.0,-930.0,234.0
31.0,-247.0,36.0,-14.0,128.0,-33.0,112.0,-932.0,226.0
30.0,-245.0,31.0,-10.0,119.0,-28.0,110.0,-933.0,220.0
32.0,-237.0,33.0,-14.0,107.0,-21.0,108.0,-929.0,213.0
31.0,-245.0,32.0,-27.0,97.0,-15.0,106.0,-933.0,207.0
31.0,-245.0,32.0,-43.0,88.0,-7.0,103.0,-930.0,213.0
29.0,-243.0,32.0,-59.0,81.0,-5.0,101.0,-927.0,215.0
29.0,-242.0,31.0,-72.0,73.0,0.0,99.0,-927.0,218.0
29.0,-245.0,31.0,-77.0,67.0,1.0,98.0,-923.0,222.0
25.0,-245.0,34.0,-76.0,62.0,6.0,93.0,-921.0,230.0
25.0,-248.0,35.0,-70.0,57.0,6.0,93.0,-927.0,230.0
26.0,-245.0,37.0,-64.0,52.0,8.0,94.0,-927.0,234.0
27.0,-243.0,38.0,-56.0,45.0,5.0,93.0,-928.0,233.0
30.0,-246.0,38.0,-46.0,38.0,5.0,92.0,-927.0,237.0
30.0,-242.0,36.0,-38.0,35.0,2.0,97.0,-923.0,233.0
29.0,-243.0,32.0,-31.0,31.0,2.0,103.0,-922.0,230.0
29.0,-244.0,38.0,-24.0,29.0,-3.0,108.0,-922.0,229.0
34.0,-242.0,34.0,-22.0,26.0,-4.0,110.0,-916.0,226.0
33.0,-240.0,30.0,-20.0,27.0,-8.0,116.0,-920.0,223.0
31.0,-237.0,34.0,-24.0,25.0,-9.0,113.0,-918.0,219.0
35.0,-241.0,32.0,-30.0,23.0,-13.0,123.0,-912.0,217.0
35.0,-236.0,32.0,-41.0,19.0,-15.0,124.0,-911.0,216.0
37.0,-237.0,34.0,-50.0,16.0,-21.0,126.0,-910.0,219.0
37.0,-238.0,32.0,-60.0,12.0,-23.0,126.0,-909.0,220.0
39.0,-233.0,13.0,-68.0,11.0,-29.0,132.0,-914.0,227.0
36.0,-244.0,31.0,-71.0,10.0,-30.0,136.0,-916.0,226.0
38.0,-244.0,34.0,-74.0,11.0,-37.0,136.0,-920.0,226.0
34.0,-244.0,34.0,-74.0,14.0,-39.0,128.0,-927.0,227.0
35.0,-240.0,34.0,-76.0,15.0,-46.0,125.0,-926.0,224.0
35.0,-242.0,31.0,-79.0,18.0,-46.0,122.0,-926.0,219.0
33.0,-241.0,35.0,-82.0,24.0,-49.0,123.0,-920.0,218.0
30.0,-245.0,35.0,-86.0,29.0,-48.0,118.0,-921.0,214.0
32.0,-242.0,30.0,-89.0,37.0,-50.0,119.0,-909.0,218.0
34.0,-244.0,30.0,-93.0,44.0,-47.0,115.0,-916.0,214.0
33.0,-242.0,28.0,-97.0,51.0,-48.0,119.0,-913.0,214.0
28.0,-245.0,30.0,-100.0,59.0,-43.0,119.0,-911.0,217.0
31.0,-241.0,31.0,-104.0,65.0,-39.0,117.0,-910.0,215.0
34.0,-242.0,31.0,-108.0,73.0,-30.0,120.0,-915.0,217.0
32.0,-239.0,33.0,-113.0,80.0,-26.0,116.0,-921.0,223.0
29.0,-242.0,34.0,-114.0,85.0,-18.0,114.0,-919.0,219.0
29.0,-242.0,32.0,-114.0,87.0,-14.0,110.0,-923.0,220.0
31.0,-245.0,29.0,-112.0,90.0,-8.0,105.0,-923.0,217.0
28.0,-245.0,32.0,-109.0,90.0,-6.0,106.0,-930.0,220.0
30.0,-247.0,31.0,-106.0,90.0,2.0,102.0,-927.0,220.0
29.0,-246.0,33.0,-105.0,92.0,4.0,99.0,-924.0,217.0
23.0,-243.0,30.0,-103.0,93.0,8.0,101.0,-927.0,222.0
36.0,-237.0,31.0,-102.0,93.0,9.0,95.0,-921.0,217.0
26.0,-243.0,32.0,-99.0,94.0,12.0,95.0,-927.0,218.0
26.0,-241.0,30.0,-99.0,94.0,12.0,95.0,-926.0,222.0
26.0,-243.0,29.0,-101.0,90.0,16.0,94.0,-919.0,216.0
27.0,-241.0,30.0,-100.0,86.0,13.0,92.0,-928.0,217.0
26.0,-243.0,32.0,-101.0,80.0,16.0,98.0,-929.0,213.0
29.0,-245.0,31.0,-104.0,77.0,13.0,100.0,-926.0,207.0
30.0,-244.0,27.0,-105.0,73.0,13.0,100.0,-927.0,207.0
29.0,-247.0,29.0,-103.0,72.0,12.0,102.0,-933.0,204.0
28.0,-237.0,32.0,-100.0,71.0,14.0,107.0,-930.0,204.0
32.0,-246.0,25.0,-100.0,70.0,13.0,110.0,-928.0,199.0
17.0,-248.0,36.0,-98.0,68.0,14.0,114.0,-927.0,197.0
28.0,-245.0,30.0,-101.0,65.0,12.0,113.0,-935.0,199.0
30.0,-243.0,26.0,-103.0,61.0,15.0,113.0,-930.0,198.0
33.0,-247.0,25.0,-101.0,56.0,12.0,113.0,-938.0,199.0
31.0,-246.0,27.0,-99.0,51.0,13.0,117.0,-948.0,200.0
34.0,-254.0,25.0,-90.0,45.0,8.0,124.0,-960.0,196.0
34.0,-255.0,27.0,-74.0,40.0,7.0,126.0,-969.0,198.0
36.0,-255.0,25.0,-55.0,35.0,1.0,125.0,-979.0,191.0
35.0,-256.0,18.0,-31.0,33.0,0.0,129.0,-986.0,190.0
34.0,-256.0,25.0,-5.0,35.0,-3.0,129.0,-988.0,184.0
36.0,-261.0,22.0,25.0,42.0,-4.0,128.0,-981.0,182.0
39.0,-239.0,4.0,46.0,54.0,-7.0,124.0,-964.0,182.0
35.0,-249.0,20.0,62.0,70.0,-6.0,114.0,-942.0,180.0
31.0,-243.0,25.0,68.0,84.0,-10.0,107.0,-922.0,189.0
27.0,-237.0,26.0,65.0,93.0,-6.0,89.0,-897.0,202.0
23.0,-232.0,25.0,47.0,100.0,-6.0,80.0,-883.0,205.0
21.0,-226.0,30.0,14.0,103.0,-2.0,79.0,-872.0,208.0
19.0,-218.0,32.0,-31.0,101.0,-1.0,66.0,-855.0,207.0
17.0,-220.0,31.0,-86.0,99.0,1.0,55.0,-850.0,212.0
13.0,-218.0,34.0,-148.0,94.0,-3.0,54.0,-839.0,213.0
14.0,-220.0,29.0,-221.0,87.0,-1.0,56.0,-837.0,210.0
17.0,-224.0,36.0,-275.0,81.0,-9.0,60.0,-851.0,211.0
3.0,-236.0,38.0,-323.0,74.0,-13.0,66.0,-859.0,210.0
21.0,-228.0,29.0,-363.0,70.0,-21.0,71.0,-869.0,209.0
21.0,-231.0,26.0,-397.0,67.0,-24.0,85.0,-882.0,210.0
26.0,-238.0,24.0,-423.0,65.0,-31.0,92.0,-902.0,200.0
25.0,-241.0,26.0,-439.0,62.0,-33.0,99.0,-921.0,200.0
27.0,-244.0,25.0,-447.0,62.0,-36.0,101.0,-943.0,198.0
29.0,-251.0,24.0,-444.0,62.0,-31.0,107.0,-961.0,193.0
31.0,-254.0,24.0,-434.0,62.0,-28.0,111.0,-969.0,199.0
34.0,-257.0,25.0,-407.0,61.0,-17.0,114.0,-980.0,197.0
31.0,-259.0,28.0,-376.0,58.0,-10.0,118.0,-987.0,190.0
35.0,-258.0,24.0,-346.0,59.0,0.0,118.0,-989.0,184.0
37.0,-252.0,30.0,-317.0,62.0,3.0,114.0,-986.0,180.0
32.0,-256.0,22.0,-293.0,62.0,6.0,114.0,-977.0,180.0
32.0,-253.0,22.0,-276.0,59.0,4.0,112.0,-959.0,180.0
31.0,-247.0,25.0,-264.0,57.0,7.0,106.0,-946.0,181.0
30.0,-243.0,18.0,-256.0,53.0,4.0,108.0,-927.0,181.0
27.0,-239.0,20.0,-250.0,47.0,6.0,105.0,-920.0,174.0
28.0,-240.0,21.0,-255.0,40.0,3.0,100.0,-912.0,167.0
27.0,-239.0,14.0,-268.0,37.0,4.0,101.0,-915.0,161.0
29.0,-241.0,17.0,-280.0,37.0,-3.0,101.0,-906.0,168.0
33.0,-240.0,19.0,-292.0,38.0,-4.0,101.0,-906.0,162.0
31.0,-237.0,17.0,-299.0,41.0,-11.0,105.0,-902.0,161.0
26.0,-241.0,10.0,-302.0,43.0,-9.0,108.0,-903.0,171.0
29.0,-238.0,22.0,-304.0,41.0,-10.0,109.0,-908.0,165.0
34.0,-239.0,19.0,-303.0,42.0,-8.0,113.0,-917.0,163.0
34.0,-241.0,19.0,-305.0,42.0,-9.0,117.0,-922.0,159.0
34.0,-246.0,15.0,-309.0,43.0,-3.0,116.0,-930.0,157.0
35.0,-246.0,15.0,-312.0,44.0,-1.0,120.0,-938.0,152.0
36.0,-250.0,15.0,-311.0,43.0,5.0,126.0,-944.0,150.0
38.0,-252.0,13.0,-307.0,42.0,3.0,135.0,-950.0,146.0
37.0,-252.0,12.0,-298.0,39.0,7.0,131.0,-950.0,143.0
38.0,-252.0,7.0,-282.0,37.0,8.0,125.0,-948.0,149.0
41.0,-248.0,14.0,-260.0,35.0,13.0,129.0,-948.0,145.0
33.0,-253.0,16.0,-238.0,35.0,13.0,121.0,-946.0,140.0
35.0,-248.0,11.0,-223.0,34.0,16.0,125.0,-946.0,139.0
35.0,-247.0,11.0,-214.0,33.0,14.0,122.0,-953.0,139.0
33.0,-251.0,11.0,-216.0,34.0,14.0,122.0,-946.0,140.0
35.0,-251.0,10.0,-219.0,32.0,12.0,116.0,-952.0,141.0
33.0,-251.0,8.0,-223.0,32.0,13.0,120.0,-958.0,136.0
34.0,-251.0,10.0,-226.0,30.0,9.0,117.0,-956.0,128.0
31.0,-252.0,9.0,-218.0,28.0,7.0,122.0,-966.0,115.0
34.0,-252.0,4.0,-208.0,26.0,2.0,117.0,-969.0,111.0
35.0,-253.0,0.0,-193.0,26.0,3.0,119.0,-971.0,107.0
34.0,-253.0,0.0,-171.0,24.0,5.0,122.0,-967.0,100.0
33.0,-258.0,3.0,-140.0,22.0,15.0,119.0,-964.0,103.0
34.0,-255.0,5.0,-98.0,21.0,26.0,124.0,-976.0,98.0
35.0,-253.0,1.0,-60.0,20.0,40.0,124.0,-967.0,97.0
37.0,-254.0,-1.0,-25.0,21.0,52.0,117.0,-956.0,93.0
33.0,-249.0,1.0,17.0,26.0,67.0,116.0,-955.0,94.0
31.0,-245.0,1.0,44.0,37.0,75.0,114.0,-939.0,94.0
35.0,-243.0,-1.0,64.0,52.0,85.0,114.0,-931.0,89.0
30.0,-242.0,-2.0,65.0,72.0,89.0,108.0,-921.0,93.0
27.0,-239.0,4.0,52.0,82.0,93.0,101.0,-918.0,97.0
29.0,-238.0,-1.0,20.0,85.0,89.0,100.0,-916.0,102.0
19.0,-251.0,21.0,-19.0,82.0,88.0,96.0,-918.0,114.0
27.0,-240.0,10.0,-59.0,72.0,84.0,95.0,-919.0,127.0
26.0,-239.0,8.0,-92.0,66.0,84.0,92.0,-920.0,133.0
25.0,-243.0,9.0,-116.0,61.0,74.0,85.0,-931.0,137.0
27.0,-251.0,8.0,-140.0,60.0,70.0,90.0,-942.0,128.0
23.0,-249.0,7.0,-156.0,65.0,61.0,90.0,-942.0,132.0
24.0,-251.0,5.0,-158.0,67.0,55.0,91.0,-957.0,126.0
30.0,-254.0,13.0,-160.0,71.0,49.0,91.0,-949.0,133.0
28.0,-252.0,7.0,-149.0,73.0,48.0,93.0,-954.0,128.0
27.0,-253.0,6.0,-135.0,72.0,45.0,97.0,-958.0,126.0
30.0,-248.0,8.0,-124.0,71.0,44.0,99.0,-951.0,130.0
27.0,-236.0,-1.0,-108.0,69.0,42.0,102.0,-947.0,128.0
30.0,-250.0,4.0,-94.0,65.0,46.0,98.0,-946.0,125.0
31.0,-249.0,6.0,-86.0,62.0,45.0,100.0,-946.0,122.0
31.0,-247.0,6.0,-90.0,58.0,48.0,104.0,-948.0,124.0
28.0,-248.0,10.0,-96.0,52.0,47.0,100.0,-935.0,132.0
27.0,-246.0,9.0,-105.0,51.0,51.0,101.0,-937.0,130.0
28.0,-245.0,7.0,-113.0,53.0,49.0,97.0,-935.0,133.0
30.0,-244.0,8.0,-120.0,56.0,51.0,92.0,-940.0,130.0
33.0,-248.0,6.0,-126.0,57.0,50.0,91.0,-941.0,133.0
29.0,-250.0,7.0,-130.0,59.0,54.0,89.0,-944.0,132.0
25.0,-253.0,2.0,-133.0,59.0,51.0,91.0,-951.0,124.0
31.0,-253.0,10.0,-139.0,58.0,51.0,90.0,-956.0,120.0
24.0,-253.0,5.0,-138.0,59.0,47.0,86.0,-968.0,112.0
24.0,-252.0,1.0,-136.0,57.0,45.0,86.0,-958.0,111.0
24.0,-250.0,4.0,-130.0,55.0,43.0,86.0,-956.0,112.0
26.0,-252.0,3.0,-123.0,52.0,43.0,80.0,-952.0,115.0
23.0,-249.0,1.0,-114.0,47.0,41.0,80.0,-950.0,115.0
23.0,-249.0,4.0,-104.0,43.0,44.0,80.0,-953.0,113.0
20.0,-247.0,2.0,-100.0,42.0,42.0,82.0,-946.0,118.0
27.0,-246.0,4.0,-94.0,43.0,44.0,77.0,-948.0,117.0
22.0,-250.0,4.0,-90.0,46.0,39.0,83.0,-948.0,111.0
34.0,-244.0,1.0,-87.0,46.0,39.0,86.0,-951.0,116.0
19.0,-251.0,6.0,-81.0,45.0,36.0,83.0,-951.0,115.0
25.0,-253.0,6.0,-75.0,41.0,34.0,88.0,-950.0,120.0
25.0,-251.0,2.0,-65.0,36.0,32.0,86.0,-957.0,114.0
25.0,-254.0,4.0,-53.0,32.0,30.0,87.0,-967.0,115.0
25.0,-253.0,7.0,-39.0,27.0,24.0,87.0,-955.0,114.0
24.0,-251.0,1.0,-25.0,23.0,23.0,89.0,-963.0,118.0
23.0,-251.0,6.0,-11.0,19.0,17.0,87.0,-956.0,113.0
25.0,-254.0,4.0,-7.0,16.0,17.0,84.0,-953.0,113.0
27.0,-248.0,1.0,0.0,12.0,14.0,84.0,-945.0,114.0
23.0,-247.0,1.0,4.0,11.0,15.0,76.0,-940.0,118.0
21.0,-248.0,4.0,7.0,10.0,11.0,72.0,-929.0,119.0
14.0,-235.0,3.0,5.0,8.0,11.0,69.0,-923.0,119.0
21.0,-241.0,5.0,-4.0,5.0,10.0,65.0,-925.0,114.0
20.0,-238.0,5.0,-22.0,2.0,10.0,60.0,-912.0,109.0
20.0,-241.0,2.0,-45.0,0.0,7.0,63.0,-915.0,111.0
16.0,-241.0,3.0,-72.0,-1.0,9.0,63.0,-919.0,114.0
18.0,-241.0,2.0,-99.0,-4.0,7.0,59.0,-924.0,110.0
19.0,-246.0,6.0,-123.0,-5.0,7.0,56.0,-933.0,114.0
14.0,-243.0,5.0,-141.0,-8.0,5.0,58.0,-939.0,113.0
19.0,-248.0,4.0,-154.0,-10.0,8.0,60.0,-941.0,115.0
19.0,-252.0,3.0,-161.0,-10.0,6.0,64.0,-953.0,110.0
23.0,-254.0,4.0,-162.0,-7.0,8.0,70.0,-975.0,122.0
22.0,-253.0,-1.0,-157.0,-2.0,6.0,77.0,-975.0,120.0
25.0,-256.0,3.0,-149.0,8.0,5.0,81.0,-978.0,112.0
23.0,-253.0,2.0,-142.0,19.0,3.0,87.0,-979.0,104.0
27.0,-252.0,1.0,-141.0,27.0,-1.0,88.0,-973.0,105.0
25.0,-251.0,2.0,-140.0,34.0,-4.0,89.0,-961.0,98.0
30.0,-251.0,-3.0,-138.0,40.0,-4.0,90.0,-952.0,99.0
27.0,-251.0,-2.0,-133.0,44.0,-6.0,91.0,-955.0,96.0
28.0,-248.0,2.0,-127.0,51.0,-3.0,92.0,-944.0,96.0
26.0,-245.0,-4.0,-117.0,57.0,-5.0,92.0,-940.0,96.0
26.0,-244.0,1.0,-108.0,63.0,-4.0,94.0,-938.0,94.0
25.0,-248.0,-1.0,-101.0,65.0,-4.0,92.0,-930.0,99.0
24.0,-254.0,10.0,-98.0,67.0,-3.0,89.0,-932.0,106.0
29.0,-247.0,-2.0,-101.0,67.0,-5.0,88.0,-930.0,95.0
25.0,-246.0,0.0,-104.0,69.0,-3.0,89.0,-936.0,100.0
25.0,-250.0,1.0,-110.0,70.0,-7.0,88.0,-938.0,94.0
26.0,-247.0,-1.0,-114.0,68.0,-7.0,88.0,-947.0,90.0
26.0,-248.0,0.0,-120.0,67.0,-11.0,90.0,-949.0,87.0
25.0,-253.0,-1.0,-126.0,65.0,-11.0,88.0,-955.0,81.0
26.0,-254.0,-6.0,-129.0,60.0,-15.0,88.0,-955.0,88.0
24.0,-254.0,-5.0,-130.0,55.0,-15.0,89.0,-959.0,88.0
29.0,-250.0,-1.0,-125.0,53.0,-16.0,89.0,-968.0,90.0
28.0,-251.0,2.0,-120.0,55.0,-17.0,92.0,-957.0,89.0
31.0,-258.0,18.0,-115.0,56.0,-21.0,86.0,-968.0,90.0
26.0,-254.0,0.0,-114.0,56.0,-20.0,83.0,-953.0,87.0
25.0,-250.0,0.0,-113.0,57.0,-22.0,84.0,-955.0,92.0
25.0,-252.0,-2.0,-112.0,56.0,-21.0,86.0,-959.0,93.0
24.0,-250.0,-1.0,-109.0,55.0,-22.0,84.0,-952.0,93.0
27.0,-253.0,-2.0,-104.0,53.0,-19.0,88.0,-954.0,91.0
26.0,-252.0,0.0,-95.0,51.0,-20.0,84.0,-955.0,96.0
24.0,-255.0,1.0,-78.0,48.0,-18.0,88.0,-951.0,86.0
24.0,-252.0,1.0,-64.0,45.0,-17.0,89.0,-949.0,91.0
27.0,-253.0,-2.0,-45.0,40.0,-15.0,89.0,-952.0,89.0
29.0,-252.0,-4.0,-25.0,38.0,-15.0,94.0,-952.0,84.0
28.0,-257.0,2.0,-1.0,37.0,-11.0,94.0,-958.0,80.0
29.0,-249.0,-1.0,21.0,40.0,-11.0,99.0,-946.0,77.0
27.0,-248.0,-4.0,43.0,47.0,-8.0,92.0,-951.0,80.0
29.0,-249.0,-2.0,64.0,54.0,-7.0,95.0,-953.0,80.0
30.0,-252.0,-2.0,84.0,62.0,-1.0,92.0,-950.0,88.0
27.0,-251.0,0.0,103.0,75.0,2.0,91.0,-949.0,95.0
30.0,-247.0,0.0,125.0,85.0,7.0,96.0,-948.0,106.0
29.0,-247.0,2.0,142.0,91.0,11.0,97.0,-948.0,120.0
29.0,-251.0,8.0,157.0,89.0,19.0,103.0,-948.0,128.0
31.0,-248.0,2.0,163.0,89.0,27.0,102.0,-956.0,117.0
40.0,-245.0,-2.0,156.0,85.0,36.0,109.0,-958.0,105.0
34.0,-251.0,0.0,138.0,79.0,40.0,118.0,-964.0,96.0
37.0,-254.0,2.0,118.0,72.0,46.0,121.0,-972.0,92.0
34.0,-254.0,1.0,101.0,63.0,52.0,122.0,-967.0,90.0
36.0,-254.0,-2.0,96.0,58.0,61.0,123.0,-978.0,82.0
35.0,-256.0,-6.0,101.0,61.0,66.0,118.0,-979.0,72.0
31.0,-255.0,-7.0,109.0,67.0,68.0,113.0,-978.0,61.0
33.0,-256.0,-13.0,109.0,75.0,70.0,106.0,-978.0,52.0
27.0,-253.0,-15.0,102.0,84.0,69.0,93.0,-961.0,53.0
26.0,-247.0,-12.0,91.0,85.0,67.0,87.0,-944.0,56.0
22.0,-247.0,-11.0,81.0,80.0,65.0,81.0,-937.0,64.0
30.0,-241.0,-13.0,72.0,72.0,61.0,79.0,-931.0,75.0
22.0,-245.0,0.0,64.0,65.0,57.0,74.0,-926.0,79.0
18.0,-245.0,-3.0,61.0,59.0,52.0,66.0,-927.0,89.0
20.0,-245.0,-2.0,62.0,54.0,45.0,65.0,-924.0,91.0
20.0,-247.0,1.0,68.0,53.0,38.0,62.0,-930.0,96.0
20.0,-247.0,2.0,78.0,54.0,32.0,56.0,-933.0,102.0
17.0,-245.0,0.0,91.0,55.0,29.0,61.0,-935.0,101.0
19.0,-248.0,-1.0,104.0,54.0,27.0,59.0,-940.0,95.0
18.0,-247.0,0.0,114.0,48.0,29.0,66.0,-941.0,93.0
14.0,-240.0,-1.0,119.0,33.0,33.0,64.0,-940.0,96.0
20.0,-246.0,1.0,119.0,15.0,37.0,75.0,-938.0,90.0
19.0,-241.0,-21.0,115.0,-6.0,43.0,79.0,-941.0,95.0
22.0,-249.0,0.0,106.0,-22.0,46.0,84.0,-943.0,92.0
27.0,-247.0,-7.0,88.0,-34.0,48.0,89.0,-953.0,79.0
26.0,-255.0,-4.0,60.0,-37.0,47.0,85.0,-959.0,80.0
26.0,-255.0,-5.0,35.0,-32.0,43.0,83.0,-976.0,72.0
27.0,-256.0,-8.0,15.0,-23.0,36.0,81.0,-979.0,72.0
26.0,-256.0,-9.0,2.0,-13.0,35.0,78.0,-989.0,79.0
26.0,-258.0,0.0,1.0,-3.0,32.0,80.0,-989.0,77.0
24.0,-256.0,-1.0,12.0,11.0,31.0,79.0,-987.0,86.0
18.0,-256.0,-1.0,36.0,25.0,29.0,68.0,-986.0,86.0
23.0,-255.0,-3.0,65.0,37.0,26.0,68.0,-988.0,92.0
9.0,-271.0,0.0,98.0,51.0,21.0,60.0,-984.0,88.0
19.0,-255.0,-1.0,129.0,62.0,18.0,63.0,-978.0,91.0
19.0,-253.0,2.0,162.0,70.0,17.0,56.0,-960.0,91.0
15.0,-253.0,-1.0,183.0,73.0,15.0,53.0,-950.0,93.0
17.0,-246.0,0.0,195.0,76.0,14.0,54.0,-942.0,94.0
16.0,-243.0,0.0,203.0,77.0,15.0,51.0,-932.0,99.0
14.0,-242.0,4.0,203.0,77.0,17.0,49.0,-923.0,114.0
13.0,-239.0,4.0,193.0,77.0,21.0,58.0,-910.0,108.0
14.0,-238.0,4.0,176.0,71.0,26.0,56.0,-909.0,115.0
20.0,-238.0,2.0,157.0,66.0,31.0,61.0,-905.0,128.0
15.0,-238.0,8.0,139.0,57.0,37.0,62.0,-913.0,124.0
24.0,-236.0,2.0,123.0,48.0,43.0,63.0,-914.0,127.0
22.0,-243.0,7.0,104.0,38.0,47.0,76.0,-914.0,125.0
20.0,-245.0,4.0,86.0,32.0,52.0,74.0,-928.0,118.0
21.0,-244.0,4.0,70.0,30.0,55.0,74.0,-929.0,119.0
23.0,-242.0,2.0,55.0,29.0,55.0,76.0,-929.0,112.0
21.0,-243.0,3.0,42.0,30.0,56.0,80.0,-931.0,109.0
23.0,-245.0,5.0,31.0,31.0,53.0,79.0,-931.0,109.0
23.0,-245.0,2.0,19.0,32.0,51.0,72.0,-928.0,107.0
22.0,-247.0,2.0,6.0,36.0,48.0,74.0,-939.0,110.0
19.0,-246.0,3.0,-6.0,44.0,45.0,67.0,-938.0,104.0
17.0,-246.0,-1.0,-18.0,57.0,42.0,66.0,-940.0,104.0
30.0,-252.0,6.0,-32.0,67.0,42.0,62.0,-947.0,100.0
20.0,-252.0,4.0,-43.0,77.0,40.0,63.0,-954.0,103.0
23.0,-256.0,1.0,-54.0,84.0,39.0,64.0,-969.0,107.0
19.0,-256.0,-1.0,-63.0,86.0,38.0,71.0,-980.0,106.0
23.0,-257.0,5.0,-69.0,83.0,37.0,74.0,-986.0,109.0
24.0,-258.0,5.0,-67.0,74.0,35.0,78.0,-989.0,122.0
26.0,-259.0,5.0,-56.0,59.0,33.0,83.0,-991.0,125.0
25.0,-260.0,4.0,-35.0,45.0,33.0,88.0,-999.0,120.0
27.0,-264.0,7.0,-11.0,33.0,29.0,94.0,-1006.0,127.0
23.0,-262.0,9.0,22.0,21.0,23.0,93.0,-1014.0,126.0
27.0,-267.0,5.0,71.0,19.0,15.0,89.0,-1020.0,125.0
15.0,-273.0,15.0,118.0,22.0,4.0,90.0,-1026.0,124.0
29.0,-268.0,8.0,166.0,28.0,-3.0,87.0,-1026.0,127.0
27.0,-265.0,4.0,213.0,38.0,-10.0,82.0,-1015.0,127.0
21.0,-260.0,7.0,254.0,48.0,-14.0,75.0,-1008.0,123.0
22.0,-257.0,8.0,284.0,60.0,-20.0,73.0,-992.0,130.0
18.0,-253.0,6.0,303.0,71.0,-24.0,67.0,-978.0,129.0
20.0,-251.0,5.0,307.0,82.0,-27.0,64.0,-952.0,130.0
19.0,-241.0,13.0,295.0,95.0,-29.0,57.0,-925.0,135.0
14.0,-239.0,9.0,272.0,106.0,-30.0,52.0,-913.0,136.0
15.0,-232.0,11.0,227.0,114.0,-28.0,49.0,-894.0,146.0
14.0,-232.0,10.0,181.0,121.0,-26.0,49.0,-883.0,147.0
-1.0,-230.0,16.0,133.0,120.0,-24.0,48.0,-883.0,153.0
15.0,-228.0,15.0,86.0,119.0,-22.0,51.0,-872.0,154.0
16.0,-225.0,14.0,42.0,116.0,-20.0,54.0,-872.0,158.0
17.0,-229.0,16.0,3.0,112.0,-19.0,55.0,-873.0,164.0
19.0,-228.0,15.0,-32.0,105.0,-16.0,59.0,-876.0,164.0
15.0,-230.0,19.0,-61.0,95.0,-14.0,65.0,-881.0,162.0
16.0,-233.0,15.0,-87.0,85.0,-11.0,65.0,-888.0,161.0
22.0,-239.0,17.0,-114.0,75.0,-11.0,69.0,-902.0,153.0
20.0,-241.0,14.0,-130.0,69.0,-7.0,65.0,-911.0,157.0
19.0,-247.0,10.0,-140.0,60.0,-8.0,71.0,-927.0,157.0
19.0,-232.0,6.0,-147.0,53.0,-5.0,72.0,-940.0,152.0
22.0,-251.0,16.0,-152.0,47.0,-4.0,75.0,-949.0,151.0
18.0,-250.0,11.0,-151.0,43.0,-2.0,75.0,-959.0,153.0
23.0,-254.0,11.0,-147.0,40.0,-4.0,74.0,-969.0,153.0
23.0,-256.0,17.0,-139.0,37.0,-2.0,78.0,-973.0,154.0
23.0,-256.0,18.0,-127.0,35.0,-3.0,80.0,-978.0,155.0
24.0,-255.0,16.0,-111.0,36.0,-2.0,74.0,-980.0,159.0
24.0,-255.0,15.0,-89.0,37.0,-3.0,70.0,-978.0,156.0
20.0,-254.0,13.0,-65.0,39.0,-3.0,76.0,-979.0,159.0
21.0,-256.0,15.0,-43.0,43.0,-5.0,73.0,-975.0,161.0
18.0,-252.0,14.0,-22.0,48.0,-7.0,76.0,-973.0,156.0
24.0,-248.0,10.0,-5.0,55.0,-9.0,79.0,-952.0,155.0
21.0,-251.0,14.0,8.0,58.0,-11.0,73.0,-950.0,150.0
21.0,-249.0,13.0,16.0,63.0,-14.0,73.0,-946.0,151.0
22.0,-250.0,16.0,20.0,66.0,-15.0,69.0,-944.0,149.0
21.0,-245.0,8.0,21.0,65.0,-16.0,68.0,-940.0,151.0
20.0,-246.0,12.0,21.0,64.0,-14.0,70.0,-933.0,146.0
20.0,-242.0,11.0,19.0,64.0,-15.0,72.0,-927.0,147.0
23.0,-244.0,10.0,15.0,66.0,-14.0,69.0,-927.0,142.0
20.0,-239.0,11.0,11.0,69.0,-15.0,70.0,-918.0,135.0
18.0,-239.0,10.0,4.0,70.0,-15.0,74.0,-920.0,140.0
25.0,-242.0,10.0,-7.0,68.0,-15.0,74.0,-919.0,135.0
23.0,-232.0,0.0,-18.0,66.0,-12.0,80.0,-925.0,129.0
20.0,-241.0,5.0,-30.0,65.0,-13.0,74.0,-927.0,129.0
23.0,-244.0,7.0,-40.0,64.0,-10.0,76.0,-930.0,126.0
23.0,-245.0,5.0,-47.0,63.0,-10.0,70.0,-930.0,125.0
20.0,-247.0,6.0,-49.0,60.0,-9.0,66.0,-932.0,119.0
21.0,-248.0,6.0,-47.0,55.0,-10.0,65.0,-941.0,108.0
17.0,-248.0,1.0,-42.0,50.0,-7.0,59.0,-939.0,108.0
16.0,-249.0,1.0,-33.0,49.0,-8.0,56.0,-940.0,107.0
19.0,-250.0,1.0,-24.0,47.0,-7.0,54.0,-943.0,105.0
14.0,-247.0,3.0,-16.0,48.0,-9.0,53.0,-946.0,101.0
15.0,-247.0,0.0,-9.0,50.0,-9.0,52.0,-947.0,107.0
24.0,-255.0,4.0,-3.0,53.0,-8.0,49.0,-946.0,102.0
21.0,-249.0,1.0,2.0,56.0,-7.0,56.0,-955.0,101.0
17.0,-249.0,5.0,6.0,59.0,-9.0,57.0,-948.0,108.0
19.0,-249.0,4.0,17.0,60.0,-9.0,63.0,-949.0,112.0
18.0,-250.0,1.0,30.0,63.0,-9.0,64.0,-945.0,110.0
21.0,-249.0,2.0,43.0,62.0,-6.0,71.0,-946.0,114.0
21.0,-250.0,7.0,56.0,62.0,-5.0,69.0,-947.0,117.0
24.0,-251.0,9.0,67.0,62.0,-1.0,78.0,-946.0,124.0
23.0,-249.0,7.0,77.0,63.0,-1.0,74.0,-948.0,132.0
23.0,-249.0,9.0,82.0,65.0,2.0,82.0,-947.0,138.0
20.0,-248.0,7.0,85.0,62.0,2.0,80.0,-942.0,145.0
23.0,-231.0,8.0,84.0,56.0,4.0,86.0,-936.0,150.0
25.0,-248.0,15.0,82.0,50.0,5.0,83.0,-937.0,154.0
25.0,-245.0,18.0,77.0,40.0,9.0,91.0,-930.0,159.0
27.0,-245.0,15.0,71.0,33.0,10.0,89.0,-925.0,167.0
24.0,-243.0,18.0,65.0,27.0,15.0,87.0,-928.0,166.0
27.0,-241.0,17.0,61.0,20.0,14.0,88.0,-925.0,166.0
22.0,-244.0,18.0,57.0,15.0,19.0,92.0,-925.0,163.0
23.0,-246.0,16.0,52.0,10.0,17.0,86.0,-932.0,156.0
26.0,-245.0,18.0,49.0,8.0,18.0,86.0,-939.0,161.0
28.0,-249.0,13.0,45.0,6.0,15.0,86.0,-946.0,159.0
28.0,-251.0,14.0,43.0,7.0,16.0,89.0,-945.0,154.0
20.0,-255.0,16.0,41.0,8.0,13.0,85.0,-950.0,158.0
23.0,-249.0,13.0,34.0,13.0,13.0,86.0,-951.0,153.0
26.0,-249.0,14.0,29.0,15.0,8.0,84.0,-954.0,147.0
23.0,-250.0,16.0,22.0,18.0,10.0,79.0,-943.0,149.0
22.0,-250.0,12.0,16.0,20.0,6.0,76.0,-943.0,147.0
24.0,-249.0,12.0,11.0,22.0,8.0,77.0,-944.0,146.0
23.0,-245.0,11.0,8.0,26.0,7.0,71.0,-944.0,145.0
19.0,-250.0,11.0,5.0,31.0,9.0,81.0,-946.0,140.0
24.0,-250.0,15.0,5.0,37.0,7.0,82.0,-939.0,149.0
23.0,-251.0,10.0,8.0,40.0,9.0,79.0,-947.0,148.0
24.0,-251.0,13.0,11.0,41.0,8.0,82.0,-950.0,142.0
8.0,-256.0,20.0,18.0,42.0,9.0,81.0,-954.0,147.0
25.0,-252.0,11.0,24.0,41.0,7.0,81.0,-952.0,145.0
22.0,-252.0,11.0,31.0,39.0,8.0,78.0,-954.0,144.0
23.0,-253.0,11.0,38.0,38.0,4.0,78.0,-950.0,141.0
22.0,-249.0,6.0,48.0,34.0,5.0,82.0,-951.0,138.0
24.0,-248.0,6.0,57.0,32.0,3.0,78.0,-944.0,136.0
23.0,-248.0,9.0,65.0,33.0,5.0,78.0,-942.0,137.0
22.0,-247.0,7.0,67.0,35.0,4.0,80.0,-939.0,139.0
24.0,-246.0,9.0,69.0,40.0,4.0,79.0,-929.0,136.0
20.0,-245.0,8.0,66.0,42.0,2.0,79.0,-927.0,138.0
18.0,-243.0,9.0,55.0,49.0,4.0,74.0,-936.0,142.0
10.0,-250.0,15.0,48.0,55.0,1.0,74.0,-932.0,139.0
21.0,-245.0,12.0,39.0,61.0,3.0,72.0,-934.0,142.0
18.0,-244.0,13.0,30.0,65.0,3.0,67.0,-938.0,139.0
22.0,-249.0,10.0,23.0,69.0,4.0,65.0,-937.0,140.0
18.0,-249.0,14.0,16.0,71.0,2.0,66.0,-948.0,143.0
19.0,-252.0,12.0,9.0,75.0,3.0,63.0,-945.0,142.0
19.0,-251.0,13.0,7.0,77.0,-1.0,63.0,-952.0,147.0
16.0,-251.0,13.0,5.0,76.0,0.0,60.0,-951.0,152.0
19.0,-254.0,11.0,5.0,76.0,-3.0,62.0,-960.0,149.0
22.0,-257.0,11.0,8.0,73.0,-4.0,62.0,-960.0,146.0
21.0,-250.0,15.0,14.0,73.0,-7.0,67.0,-963.0,148.0
15.0,-257.0,21.0,23.0,74.0,-5.0,60.0,-974.0,148.0
16.0,-253.0,12.0,33.0,72.0,-8.0,58.0,-969.0,145.0
18.0,-250.0,10.0,47.0,70.0,-6.0,60.0,-962.0,143.0
16.0,-254.0,7.0,58.0,70.0,-9.0,55.0,-961.0,144.0
18.0,-251.0,8.0,68.0,68.0,-8.0,55.0,-953.0,141.0
16.0,-250.0,12.0,75.0,67.0,-11.0,54.0,-944.0,146.0
16.0,-247.0,11.0,81.0,66.0,-8.0,55.0,-946.0,140.0
16.0,-247.0,12.0,85.0,64.0,-10.0,57.0,-938.0,144.0
18.0,-247.0,11.0,86.0,59.0,-6.0,59.0,-938.0,151.0
21.0,-247.0,14.0,87.0,58.0,-7.0,57.0,-937.0,149.0
17.0,-246.0,15.0,82.0,55.0,-6.0,64.0,-940.0,144.0
24.0,-248.0,18.0,79.0,51.0,-8.0,67.0,-932.0,155.0
18.0,-244.0,13.0,75.0,49.0,-5.0,66.0,-930.0,159.0
21.0,-247.0,13.0,69.0,46.0,-7.0,66.0,-941.0,154.0
22.0,-249.0,15.0,64.0,43.0,-2.0,74.0,-933.0,156.0
22.0,-248.0,17.0,59.0,40.0,-4.0,67.0,-936.0,152.0
19.0,-248.0,17.0,54.0,38.0,-1.0,75.0,-942.0,151.0
18.0,-248.0,12.0,50.0,35.0,-2.0,67.0,-941.0,151.0
20.0,-246.0,16.0,48.0,33.0,1.0,63.0,-943.0,155.0
20.0,-249.0,13.0,46.0,33.0,-1.0,64.0,-941.0,154.0
19.0,-250.0,13.0,46.0,32.0,0.0,63.0,-943.0,154.0
29.0,-242.0,11.0,48.0,34.0,-2.0,59.0,-948.0,154.0
19.0,-247.0,10.0,50.0,33.0,-2.0,62.0,-953.0,156.0
17.0,-251.0,14.0,52.0,38.0,-7.0,60.0,-950.0,155.0
19.0,-250.0,14.0,53.0,44.0,-6.0,60.0,-952.0,153.0
16.0,-249.0,13.0,53.0,51.0,-11.0,63.0,-954.0,151.0
20.0,-251.0,13.0,55.0,57.0,-11.0,65.0,-948.0,154.0
18.0,-249.0,17.0,58.0,63.0,-15.0,65.0,-948.0,153.0
17.0,-251.0,18.0,61.0,64.0,-16.0,69.0,-946.0,157.0
21.0,-248.0,12.0,65.0,67.0,-18.0,77.0,-945.0,153.0
22.0,-250.0,14.0,67.0,63.0,-14.0,76.0,-943.0,155.0
25.0,-247.0,12.0,68.0,62.0,-15.0,78.0,-939.0,153.0
17.0,-254.0,17.0,68.0,59.0,-10.0,82.0,-937.0,156.0
24.0,-248.0,15.0,71.0,57.0,-11.0,81.0,-936.0,155.0
23.0,-247.0,13.0,70.0,54.0,-6.0,83.0,-935.0,157.0
24.0,-244.0,16.0,71.0,51.0,-6.0,80.0,-933.0,164.0
22.0,-245.0,16.0,70.0,49.0,-1.0,80.0,-931.0,166.0
21.0,-240.0,16.0,69.0,43.0,1.0,78.0,-931.0,164.0
21.0,-241.0,21.0,66.0,38.0,6.0,76.0,-926.0,167.0
21.0,-247.0,20.0,60.0,35.0,5.0,77.0,-926.0,171.0
23.0,-240.0,21.0,55.0,31.0,10.0,74.0,-927.0,169.0
20.0,-246.0,16.0,51.0,29.0,8.0,67.0,-931.0,170.0
22.0,-248.0,18.0,44.0,29.0,12.0,67.0,-932.0,171.0
22.0,-243.0,16.0,39.0,28.0,11.0,74.0,-933.0,169.0
23.0,-247.0,20.0,33.0,31.0,12.0,78.0,-933.0,173.0
20.0,-246.0,18.0,29.0,36.0,8.0,77.0,-940.0,169.0
21.0,-248.0,14.0,23.0,42.0,10.0,80.0,-939.0,172.0
23.0,-247.0,20.0,21.0,46.0,7.0,79.0,-942.0,173.0
22.0,-248.0,21.0,20.0,51.0,6.0,81.0,-941.0,172.0
24.0,-248.0,17.0,22.0,54.0,4.0,77.0,-943.0,168.0
24.0,-248.0,24.0,22.0,58.0,5.0,83.0,-940.0,170.0
20.0,-246.0,22.0,24.0,59.0,2.0,85.0,-936.0,168.0
23.0,-249.0,22.0,25.0,62.0,4.0,81.0,-937.0,167.0
21.0,-246.0,18.0,24.0,65.0,-1.0,80.0,-940.0,173.0
18.0,-249.0,27.0,24.0,64.0,3.0,80.0,-935.0,176.0
26.0,-247.0,21.0,23.0,64.0,0.0,82.0,-935.0,177.0
24.0,-245.0,19.0,22.0,62.0,3.0,80.0,-927.0,177.0
25.0,-245.0,17.0,18.0,61.0,1.0,80.0,-930.0,170.0
22.0,-243.0,18.0,15.0,58.0,3.0,80.0,-932.0,173.0
21.0,-243.0,17.0,12.0,57.0,2.0,74.0,-933.0,172.0
23.0,-244.0,18.0,11.0,54.0,4.0,78.0,-933.0,177.0
24.0,-245.0,22.0,9.0,52.0,2.0,69.0,-934.0,176.0
21.0,-245.0,16.0,7.0,50.0,3.0,79.0,-934.0,177.0
21.0,-245.0,22.0,6.0,49.0,2.0,69.0,-936.0,178.0
22.0,-248.0,20.0,7.0,48.0,5.0,77.0,-942.0,173.0
19.0,-246.0,27.0,6.0,50.0,2.0,79.0,-946.0,168.0
19.0,-248.0,17.0,10.0,50.0,5.0,76.0,-943.0,173.0
22.0,-248.0,18.0,12.0,54.0,1.0,72.0,-939.0,172.0
20.0,-249.0,16.0,16.0,57.0,3.0,68.0,-934.0,167.0
21.0,-247.0,18.0,22.0,59.0,1.0,69.0,-933.0,167.0
19.0,-248.0,17.0,23.0,63.0,2.0,64.0,-935.0,165.0
21.0,-244.0,20.0,21.0,66.0,0.0,68.0,-933.0,172.0
19.0,-245.0,13.0,19.0,68.0,2.0,68.0,-930.0,166.0
20.0,-247.0,21.0,11.0,70.0,2.0,68.0,-936.0,170.0
21.0,-247.0,20.0,4.0,70.0,4.0,71.0,-930.0,172.0
20.0,-247.0,19.0,-4.0,69.0,3.0,72.0,-939.0,177.0
25.0,-259.0,22.0,-10.0,69.0,4.0,68.0,-940.0,179.0
20.0,-248.0,21.0,-13.0,71.0,1.0,64.0,-945.0,182.0
19.0,-248.0,24.0,-13.0,71.0,3.0,69.0,-950.0,176.0
20.0,-250.0,17.0,-9.0,71.0,1.0,73.0,-949.0,174.0
19.0,-252.0,21.0,0.0,71.0,3.0,73.0,-953.0,176.0
18.0,-250.0,21.0,10.0,74.0,0.0,68.0,-950.0,174.0
20.0,-248.0,20.0,23.0,74.0,2.0,66.0,-949.0,166.0
20.0,-249.0,19.0,36.0,75.0,-1.0,69.0,-947.0,166.0
22.0,-246.0,15.0,47.0,75.0,-1.0,68.0,-941.0,165.0
18.0,-248.0,17.0,56.0,75.0,-5.0,67.0,-935.0,162.0
18.0,-246.0,13.0,57.0,75.0,-4.0,67.0,-930.0,162.0
13.0,-247.0,19.0,54.0,74.0,-4.0,66.0,-926.0,163.0
19.0,-243.0,13.0,47.0,74.0,-3.0,65.0,-927.0,157.0
19.0,-243.0,20.0,38.0,72.0,-5.0,66.0,-925.0,169.0
20.0,-242.0,20.0,27.0,68.0,-3.0,70.0,-924.0,171.0
18.0,-242.0,21.0,21.0,66.0,-4.0,66.0,-927.0,173.0
21.0,-244.0,20.0,16.0,65.0,0.0,70.0,-925.0,180.0
22.0,-247.0,24.0,13.0,62.0,-2.0,66.0,-932.0,185.0
22.0,-249.0,20.0,14.0,62.0,2.0,67.0,-935.0,187.0
15.0,-246.0,20.0,18.0,63.0,-1.0,67.0,-937.0,188.0
16.0,-249.0,23.0,21.0,63.0,0.0,63.0,-937.0,187.0
17.0,-245.0,21.0,26.0,64.0,-1.0,64.0,-939.0,186.0
32.0,-240.0,9.0,29.0,65.0,-1.0,65.0,-936.0,182.0
19.0,-247.0,24.0,29.0,66.0,-3.0,64.0,-941.0,180.0
21.0,-250.0,22.0,25.0,68.0,-4.0,65.0,-940.0,177.0
19.0,-249.0,21.0,24.0,69.0,-6.0,64.0,-941.0,179.0
20.0,-248.0,17.0,22.0,71.0,-4.0,65.0,-942.0,180.0
19.0,-248.0,19.0,20.0,75.0,-7.0,62.0,-936.0,178.0
19.0,-247.0,22.0,22.0,75.0,-5.0,61.0,-937.0,182.0
19.0,-248.0,20.0,21.0,76.0,-7.0,62.0,-940.0,182.0
17.0,-247.0,20.0,24.0,75.0,-4.0,63.0,-936.0,179.0
20.0,-245.0,20.0,27.0,75.0,-6.0,61.0,-938.0,183.0
16.0,-245.0,21.0,30.0,76.0,-5.0,66.0,-935.0,181.0
23.0,-240.0,17.0,31.0,73.0,-5.0,62.0,-935.0,183.0
18.0,-243.0,19.0,31.0,72.0,-2.0,63.0,-932.0,178.0
20.0,-245.0,22.0,31.0,71.0,-3.0,62.0,-931.0,175.0
19.0,-245.0,20.0,28.0,71.0,-1.0,63.0,-928.0,181.0
19.0,-245.0,21.0,23.0,70.0,-3.0,64.0,-930.0,181.0
20.0,-245.0,22.0,20.0,71.0,-2.0,63.0,-931.0,181.0
17.0,-249.0,19.0,14.0,71.0,-3.0,64.0,-931.0,178.0
21.0,-244.0,20.0,9.0,70.0,-3.0,62.0,-926.0,179.0
22.0,-247.0,18.0,5.0,71.0,-5.0,64.0,-930.0,183.0
18.0,-242.0,27.0,1.0,71.0,-3.0,64.0,-932.0,182.0
20.0,-241.0,8.0,-1.0,72.0,-5.0,65.0,-933.0,185.0
17.0,-244.0,22.0,-2.0,73.0,-3.0,71.0,-930.0,185.0
18.0,-245.0,21.0,-2.0,71.0,-6.0,66.0,-933.0,185.0
21.0,-246.0,25.0,-3.0,71.0,-2.0,64.0,-932.0,187.0
21.0,-244.0,22.0,-5.0,71.0,-5.0,69.0,-934.0,184.0
19.0,-249.0,25.0,-4.0,70.0,-3.0,64.0,-935.0,186.0
19.0,-246.0,22.0,-4.0,70.0,-4.0,65.0,-937.0,185.0
21.0,-248.0,28.0,-4.0,68.0,-4.0,66.0,-941.0,189.0
19.0,-247.0,22.0,-1.0,67.0,-4.0,68.0,-943.0,184.0
19.0,-248.0,27.0,-1.0,67.0,-4.0,72.0,-934.0,185.0
20.0,-247.0,19.0,3.0,66.0,-6.0,72.0,-933.0,191.0
16.0,-231.0,15.0,5.0,67.0,-4.0,73.0,-936.0,186.0
20.0,-246.0,25.0,6.0,67.0,-5.0,73.0,-932.0,183.0
17.0,-245.0,21.0,7.0,67.0,-3.0,66.0,-932.0,185.0
21.0,-245.0,21.0,7.0,67.0,-5.0,74.0,-928.0,184.0
20.0,-243.0,24.0,6.0,67.0,-2.0,75.0,-932.0,185.0
18.0,-243.0,24.0,6.0,67.0,-2.0,77.0,-927.0,184.0
21.0,-244.0,20.0,3.0,66.0,-1.0,71.0,-923.0,183.0
21.0,-245.0,21.0,-4.0,65.0,0.0,68.0,-925.0,186.0
20.0,-245.0,24.0,-8.0,64.0,1.0,68.0,-928.0,185.0
20.0,-245.0,21.0,-11.0,65.0,0.0,72.0,-927.0,190.0
21.0,-243.0,20.0,-13.0,63.0,0.0,73.0,-927.0,191.0
25.0,-249.0,34.0,-14.0,62.0,-2.0,75.0,-936.0,185.0
23.0,-247.0,21.0,-13.0,61.0,0.0,74.0,-931.0,187.0
21.0,-244.0,26.0,-12.0,60.0,0.0,73.0,-940.0,189.0
22.0,-246.0,21.0,-11.0,58.0,1.0,67.0,-935.0,186.0
23.0,-244.0,19.0,-13.0,57.0,-1.0,71.0,-933.0,186.0
18.0,-248.0,24.0,-12.0,56.0,1.0,67.0,-932.0,185.0
20.0,-244.0,21.0,-14.0,55.0,-1.0,75.0,-937.0,188.0
19.0,-248.0,25.0,-16.0,55.0,1.0,69.0,-935.0,185.0
22.0,-247.0,17.0,-20.0,55.0,1.0,67.0,-931.0,189.0
19.0,-248.0,24.0,-24.0,56.0,2.0,70.0,-933.0,184.0
20.0,-246.0,18.0,-27.0,55.0,1.0,72.0,-939.0,183.0
13.0,-251.0,28.0,-32.0,57.0,1.0,67.0,-937.0,189.0
21.0,-247.0,26.0,-34.0,58.0,-2.0,70.0,-931.0,183.0
20.0,-248.0,20.0,-36.0,59.0,0.0,65.0,-936.0,183.0
19.0,-245.0,23.0,-39.0,57.0,-1.0,68.0,-930.0,184.0
18.0,-245.0,22.0,-40.0,59.0,-1.0,66.0,-931.0,185.0
19.0,-246.0,22.0,-41.0,60.0,-2.0,64.0,-939.0,182.0
19.0,-249.0,23.0,-42.0,62.0,-2.0,65.0,-936.0,183.0
20.0,-247.0,20.0,-43.0,64.0,-2.0,63.0,-937.0,184.0
15.0,-247.0,21.0,-46.0,64.0,-2.0,63.0,-941.0,183.0
17.0,-247.0,20.0,-47.0,65.0,-3.0,65.0,-938.0,184.0
20.0,-245.0,18.0,-49.0,66.0,-2.0,68.0,-941.0,183.0
15.0,-246.0,18.0,-50.0,67.0,-4.0,66.0,-942.0,188.0
18.0,-246.0,21.0,-49.0,70.0,0.0,63.0,-937.0,183.0
21.0,-249.0,20.0,-47.0,71.0,-2.0,67.0,-937.0,180.0
19.0,-247.0,21.0,-45.0,73.0,-3.0,64.0,-939.0,184.0
20.0,-246.0,19.0,-45.0,74.0,-5.0,65.0,-937.0,175.0
19.0,-244.0,18.0,-45.0,74.0,-4.0,62.0,-939.0,177.0
19.0,-248.0,18.0,-46.0,74.0,-6.0,65.0,-933.0,176.0
16.0,-244.0,21.0,-47.0,73.0,-6.0,63.0,-934.0,175.0
17.0,-250.0,22.0,-46.0,72.0,-9.0,67.0,-933.0,176.0
17.0,-247.0,25.0,-43.0,72.0,-7.0,66.0,-934.0,176.0
17.0,-243.0,21.0,-40.0,71.0,-8.0,64.0,-942.0,179.0
21.0,-247.0,26.0,-36.0,72.0,-7.0,67.0,-939.0,175.0
15.0,-245.0,9.0,-34.0,72.0,-8.0,67.0,-938.0,180.0
2.0,-255.0,40.0,-30.0,73.0,-8.0,66.0,-930.0,178.0
22.0,-246.0,21.0,-28.0,75.0,-8.0,66.0,-933.0,173.0
19.0,-245.0,16.0,-27.0,74.0,-9.0,61.0,-937.0,178.0
21.0,-247.0,21.0,-27.0,74.0,-10.0,66.0,-936.0,177.0
20.0,-248.0,21.0,-27.0,72.0,-10.0,63.0,-934.0,180.0
23.0,-246.0,21.0,-28.0,73.0,-8.0,66.0,-938.0,175.0
20.0,-247.0,17.0,-28.0,72.0,-8.0,69.0,-936.0,183.0
21.0,-250.0,20.0,-31.0,68.0,-10.0,64.0,-944.0,181.0
27.0,-247.0,14.0,-30.0,66.0,-9.0,68.0,-943.0,179.0
22.0,-251.0,20.0,-29.0,65.0,-9.0,67.0,-940.0,179.0
22.0,-248.0,25.0,-21.0,65.0,-8.0,65.0,-941.0,179.0
21.0,-247.0,25.0,-13.0,64.0,-8.0,67.0,-931.0,180.0
22.0,-248.0,25.0,-4.0,63.0,-6.0,73.0,-929.0,180.0
17.0,-243.0,19.0,2.0,63.0,-7.0,66.0,-929.0,178.0
20.0,-244.0,20.0,6.0,63.0,-5.0,66.0,-925.0,182.0
17.0,-245.0,20.0,3.0,61.0,-5.0,65.0,-929.0,183.0
20.0,-245.0,20.0,-3.0,61.0,-5.0,63.0,-924.0,180.0
18.0,-245.0,19.0,-12.0,61.0,-6.0,62.0,-932.0,181.0
18.0,-242.0,15.0,-24.0,63.0,-6.0,64.0,-931.0,181.0
18.0,-244.0,22.0,-31.0,68.0,-6.0,62.0,-940.0,183.0
27.0,-246.0,18.0,-39.0,69.0,-7.0,65.0,-937.0,186.0
21.0,-249.0,20.0,-39.0,69.0,-8.0,62.0,-938.0,187.0
17.0,-252.0,23.0,-35.0,70.0,-7.0,65.0,-945.0,191.0
19.0,-250.0,19.0,-24.0,68.0,-7.0,62.0,-950.0,190.0
18.0,-252.0,23.0,-12.0,63.0,-8.0,62.0,-956.0,185.0
17.0,-252.0,20.0,2.0,61.0,-10.0,66.0,-950.0,183.0
20.0,-251.0,22.0,17.0,60.0,-12.0,67.0,-947.0,179.0
19.0,-249.0,14.0,29.0,59.0,-11.0,66.0,-943.0,175.0
19.0,-242.0,18.0,34.0,59.0,-12.0,64.0,-941.0,172.0
19.0,-247.0,17.0,35.0,59.0,-10.0,66.0,-928.0,166.0
15.0,-240.0,19.0,30.0,59.0,-12.0,64.0,-927.0,165.0
16.0,-241.0,24.0,21.0,60.0,-11.0,60.0,-928.0,167.0
20.0,-242.0,20.0,8.0,61.0,-10.0,66.0,-925.0,167.0
16.0,-242.0,19.0,-7.0,60.0,-9.0,64.0,-922.0,171.0
20.0,-242.0,20.0,-17.0,61.0,-8.0,63.0,-927.0,183.0
18.0,-246.0,22.0,-22.0,60.0,-6.0,66.0,-926.0,191.0
22.0,-245.0,22.0,-24.0,60.0,-6.0,68.0,-929.0,186.0
18.0,-248.0,22.0,-21.0,59.0,-6.0,63.0,-932.0,194.0
15.0,-245.0,21.0,-17.0,57.0,-5.0,63.0,-935.0,191.0
19.0,-246.0,25.0,-11.0,57.0,-5.0,65.0,-933.0,190.0
20.0,-246.0,23.0,-5.0,57.0,-9.0,63.0,-936.0,190.0
15.0,-237.0,12.0,-3.0,59.0,-8.0,67.0,-937.0,188.0
21.0,-249.0,20.0,-5.0,57.0,-9.0,66.0,-936.0,190.0
23.0,-246.0,20.0,-7.0,55.0,-10.0,70.0,-941.0,190.0
21.0,-244.0,24.0,-11.0,54.0,-11.0,67.0,-940.0,187.0
18.0,-244.0,20.0,-14.0,53.0,-12.0,67.0,-935.0,186.0
21.0,-246.0,22.0,-15.0,53.0,-12.0,64.0,-937.0,182.0
19.0,-246.0,20.0,-16.0,53.0,-12.0,67.0,-935.0,182.0
20.0,-250.0,21.0,-15.0,51.0,-10.0,72.0,-940.0,182.0
18.0,-248.0,21.0,-15.0,53.0,-11.0,67.0,-938.0,182.0
21.0,-245.0,17.0,-11.0,54.0,-11.0,67.0,-931.0,179.0
18.0,-247.0,20.0,-8.0,55.0,-10.0,66.0,-932.0,178.0
22.0,-247.0,18.0,-7.0,55.0,-10.0,66.0,-934.0,178.0
29.0,-249.0,20.0,-6.0,55.0,-8.0,68.0,-932.0,182.0
18.0,-243.0,20.0,-4.0,56.0,-7.0,64.0,-935.0,180.0
19.0,-248.0,18.0,-5.0,57.0,-8.0,66.0,-935.0,177.0
19.0,-243.0,18.0,-8.0,56.0,-8.0,62.0,-930.0,178.0
17.0,-244.0,23.0,-9.0,55.0,-8.0,68.0,-933.0,180.0
19.0,-244.0,20.0,-12.0,52.0,-10.0,63.0,-933.0,179.0
17.0,-249.0,20.0,-13.0,50.0,-9.0,65.0,-934.0,177.0
24.0,-246.0,19.0,-12.0,50.0,-9.0,67.0,-940.0,177.0
15.0,-245.0,21.0,-13.0,48.0,-10.0,68.0,-938.0,181.0
22.0,-246.0,20.0,-12.0,46.0,-11.0,62.0,-938.0,178.0
14.0,-265.0,29.0,-11.0,45.0,-10.0,70.0,-937.0,178.0
20.0,-246.0,17.0,-12.0,46.0,-10.0,67.0,-938.0,180.0
20.0,-246.0,19.0,-11.0,45.0,-9.0,69.0,-933.0,178.0
19.0,-247.0,16.0,-11.0,45.0,-9.0,66.0,-937.0,180.0
20.0,-250.0,21.0,-9.0,44.0,-9.0,68.0,-943.0,174.0
20.0,-246.0,20.0,-6.0,45.0,-9.0,67.0,-944.0,184.0
21.0,-246.0,22.0,-1.0,46.0,-8.0,66.0,-940.0,181.0
19.0,-249.0,18.0,-2.0,46.0,-9.0,66.0,-939.0,181.0
19.0,-249.0,22.0,0.0,47.0,-7.0,66.0,-941.0,180.0
17.0,-245.0,22.0,0.0,49.0,-8.0,65.0,-932.0,182.0
20.0,-246.0,21.0,-1.0,49.0,-7.0,66.0,-932.0,174.0
22.0,-248.0,13.0,-3.0,51.0,-9.0,65.0,-929.0,178.0
18.0,-246.0,19.0,-6.0,52.0,-7.0,66.0,-932.0,179.0
19.0,-244.0,19.0,-10.0,51.0,-8.0,68.0,-934.0,178.0
20.0,-243.0,18.0,-13.0,52.0,-8.0,66.0,-932.0,181.0
20.0,-242.0,21.0,-15.0,54.0,-10.0,69.0,-930.0,181.0
21.0,-248.0,22.0,-16.0,54.0,-10.0,68.0,-936.0,183.0
21.0,-245.0,21.0,-17.0,55.0,-12.0,73.0,-932.0,186.0
23.0,-248.0,20.0,-16.0,54.0,-10.0,76.0,-936.0,182.0
20.0,-248.0,23.0,-15.0,53.0,-10.0,75.0,-933.0,185.0
23.0,-245.0,21.0,-12.0,53.0,-8.0,74.0,-935.0,182.0
20.0,-245.0,19.0,-10.0,53.0,-10.0,72.0,-940.0,188.0
18.0,-243.0,14.0,-9.0,51.0,-9.0,70.0,-933.0,182.0
23.0,-245.0,23.0,-5.0,49.0,-9.0,72.0,-941.0,183.0
18.0,-246.0,18.0,-4.0,49.0,-8.0,70.0,-934.0,180.0
21.0,-248.0,23.0,-1.0,49.0,-10.0,72.0,-938.0,181.0
20.0,-250.0,21.0,-2.0,50.0,-9.0,70.0,-942.0,182.0
21.0,-246.0,22.0,0.0,52.0,-10.0,65.0,-935.0,180.0
20.0,-247.0,18.0,0.0,52.0,-9.0,73.0,-936.0,181.0
23.0,-248.0,23.0,-2.0,52.0,-11.0,67.0,-937.0,180.0
19.0,-248.0,19.0,1.0,52.0,-9.0,66.0,-936.0,182.0
23.0,-247.0,20.0,4.0,52.0,-10.0,68.0,-934.0,183.0
18.0,-246.0,24.0,5.0,52.0,-7.0,71.0,-936.0,179.0
30.0,-245.0,10.0,4.0,53.0,-9.0,78.0,-938.0,184.0
21.0,-245.0,22.0,5.0,54.0,-9.0,67.0,-931.0,178.0
18.0,-244.0,21.0,4.0,57.0,-8.0,72.0,-934.0,180.0
21.0,-244.0,20.0,5.0,58.0,-8.0,72.0,-932.0,182.0
18.0,-245.0,20.0,2.0,59.0,-9.0,71.0,-934.0,180.0
20.0,-246.0,21.0,3.0,58.0,-8.0,67.0,-930.0,182.0
20.0,-243.0,24.0,-1.0,58.0,-9.0,77.0,-930.0,183.0
17.0,-249.0,21.0,-1.0,56.0,-6.0,71.0,-930.0,183.0
19.0,-244.0,24.0,-2.0,56.0,-8.0,72.0,-932.0,184.0
17.0,-249.0,21.0,-3.0,55.0,-6.0,70.0,-938.0,186.0
27.0,-241.0,23.0,-4.0,55.0,-8.0,69.0,-939.0,182.0
9.0,-260.0,36.0,-6.0,54.0,-7.0,68.0,-938.0,185.0
23.0,-249.0,23.0,-6.0,54.0,-7.0,73.0,-940.0,187.0
22.0,-251.0,22.0,-6.0,52.0,-6.0,74.0,-937.0,184.0
21.0,-248.0,22.0,-8.0,54.0,-6.0,73.0,-932.0,184.0
22.0,-245.0,20.0,-6.0,53.0,-5.0,69.0,-937.0,184.0
16.0,-244.0,18.0,-3.0,54.0,-8.0,72.0,-938.0,184.0
22.0,-247.0,20.0,0.0,54.0,-6.0,69.0,-941.0,180.0
19.0,-248.0,23.0,3.0,54.0,-6.0,64.0,-934.0,181.0
21.0,-248.0,22.0,4.0,55.0,-6.0,66.0,-939.0,182.0
21.0,-245.0,24.0,5.0,57.0,-7.0,65.0,-935.0,184.0
18.0,-245.0,17.0,4.0,60.0,-7.0,72.0,-931.0,182.0
24.0,-248.0,22.0,3.0,60.0,-8.0,66.0,-937.0,181.0
20.0,-247.0,23.0,5.0,59.0,-7.0,67.0,-936.0,182.0
21.0,-244.0,22.0,5.0,59.0,-8.0,65.0,-934.0,183.0
22.0,-248.0,23.0,5.0,62.0,-7.0,66.0,-933.0,186.0
20.0,-248.0,23.0,5.0,60.0,-10.0,67.0,-937.0,184.0
19.0,-246.0,28.0,5.0,61.0,-8.0,65.0,-934.0,182.0
20.0,-247.0,25.0,6.0,60.0,-8.0,75.0,-933.0,185.0
17.0,-247.0,23.0,5.0,59.0,-4.0,65.0,-940.0,187.0
18.0,-247.0,19.0,2.0,59.0,-6.0,67.0,-934.0,181.0
24.0,-247.0,23.0,1.0,58.0,-5.0,66.0,-938.0,185.0
17.0,-247.0,25.0,1.0,57.0,-6.0,72.0,-932.0,182.0
29.0,-237.0,9.0,1.0,58.0,-5.0,69.0,-937.0,183.0
20.0,-247.0,21.0,2.0,56.0,-7.0,75.0,-928.0,185.0
19.0,-241.0,19.0,6.0,56.0,-5.0,71.0,-927.0,188.0
20.0,-244.0,19.0,8.0,56.0,-7.0,68.0,-928.0,190.0
20.0,-243.0,23.0,9.0,56.0,-3.0,76.0,-924.0,183.0
21.0,-245.0,23.0,7.0,57.0,-5.0,72.0,-925.0,184.0
19.0,-243.0,24.0,3.0,57.0,-3.0,70.0,-927.0,183.0
18.0,-249.0,23.0,-7.0,54.0,-4.0,68.0,-936.0,185.0
16.0,-245.0,23.0,-16.0,56.0,-4.0,67.0,-935.0,186.0
21.0,-246.0,21.0,-27.0,57.0,-6.0,67.0,-939.0,188.0
19.0,-250.0,23.0,-31.0,59.0,-4.0,72.0,-942.0,199.0
22.0,-249.0,26.0,-28.0,60.0,-8.0,72.0,-946.0,195.0
21.0,-249.0,22.0,-23.0,63.0,-6.0,69.0,-946.0,198.0
24.0,-252.0,23.0,-13.0,64.0,-8.0,73.0,-947.0,190.0
23.0,-250.0,23.0,2.0,61.0,-8.0,68.0,-945.0,192.0
22.0,-250.0,24.0,15.0,59.0,-9.0,68.0,-946.0,189.0
20.0,-247.0,19.0,26.0,59.0,-7.0,73.0,-945.0,184.0
19.0,-246.0,23.0,34.0,58.0,-9.0,68.0,-941.0,182.0
21.0,-241.0,22.0,40.0,59.0,-7.0,68.0,-933.0,179.0
21.0,-245.0,18.0,39.0,57.0,-10.0,77.0,-934.0,175.0
21.0,-244.0,21.0,36.0,57.0,-8.0,67.0,-929.0,172.0
23.0,-248.0,33.0,29.0,58.0,-8.0,67.0,-927.0,169.0
21.0,-243.0,17.0,21.0,58.0,-7.0,71.0,-929.0,173.0
21.0,-247.0,19.0,12.0,58.0,-7.0,67.0,-927.0,176.0
22.0,-246.0,22.0,7.0,57.0,-5.0,72.0,-927.0,181.0
18.0,-244.0,21.0,4.0,59.0,-6.0,68.0,-928.0,189.0
19.0,-246.0,24.0,6.0,59.0,-5.0,67.0,-931.0,191.0
21.0,-246.0,24.0,9.0,60.0,-4.0,68.0,-930.0,192.0
19.0,-245.0,24.0,13.0,60.0,-2.0,66.0,-931.0,198.0
17.0,-247.0,27.0,19.0,60.0,-3.0,76.0,-936.0,198.0
17.0,-243.0,28.0,22.0,60.0,-2.0,67.0,-935.0,199.0
19.0,-246.0,20.0,23.0,59.0,-5.0,66.0,-929.0,197.0
18.0,-235.0,17.0,22.0,59.0,-2.0,67.0,-935.0,197.0
19.0,-243.0,27.0,18.0,59.0,-4.0,65.0,-930.0,199.0
20.0,-249.0,23.0,13.0,57.0,-3.0,66.0,-930.0,195.0
21.0,-245.0,23.0,6.0,55.0,-5.0,69.0,-931.0,199.0
19.0,-243.0,27.0,1.0,55.0,-4.0,72.0,-936.0,193.0
21.0,-245.0,19.0,-2.0,55.0,-6.0,74.0,-933.0,192.0
23.0,-246.0,26.0,-4.0,55.0,-3.0,67.0,-931.0,196.0
17.0,-244.0,25.0,-5.0,55.0,-5.0,69.0,-935.0,191.0
21.0,-245.0,27.0,-3.0,55.0,-3.0,67.0,-933.0,190.0
22.0,-249.0,21.0,-2.0,55.0,-5.0,70.0,-932.0,186.0
21.0,-246.0,18.0,1.0,55.0,-3.0,72.0,-932.0,191.0
28.0,-252.0,18.0,0.0,56.0,-4.0,66.0,-934.0,191.0
20.0,-244.0,23.0,1.0,59.0,-2.0,65.0,-937.0,184.0
20.0,-243.0,22.0,-1.0,60.0,-5.0,71.0,-935.0,184.0
17.0,-244.0,18.0,-4.0,61.0,-3.0,65.0,-935.0,187.0
20.0,-246.0,22.0,-4.0,60.0,-5.0,65.0,-931.0,188.0
21.0,-243.0,24.0,-4.0,60.0,-3.0,72.0,-931.0,187.0
19.0,-246.0,27.0,-4.0,61.0,-6.0,71.0,-934.0,192.0
17.0,-244.0,24.0,-5.0,60.0,-4.0,66.0,-932.0,190.0
18.0,-248.0,28.0,-2.0,61.0,-5.0,69.0,-938.0,190.0
15.0,-246.0,17.0,-3.0,62.0,-4.0,74.0,-933.0,191.0
20.0,-247.0,17.0,-4.0,61.0,-7.0,74.0,-933.0,187.0
15.0,-244.0,24.0,-6.0,61.0,-3.0,71.0,-933.0,191.0
21.0,-248.0,21.0,-5.0,61.0,-4.0,77.0,-930.0,192.0
19.0,-246.0,21.0,-7.0,59.0,-4.0,74.0,-937.0,186.0
22.0,-246.0,23.0,-5.0,58.0,-7.0,73.0,-935.0,195.0
23.0,-247.0,24.0,-4.0,58.0,-5.0,69.0,-930.0,187.0
20.0,-244.0,24.0,-2.0,59.0,-6.0,71.0,-938.0,188.0
18.0,-246.0,22.0,-3.0,59.0,-4.0,68.0,-934.0,186.0
20.0,-247.0,24.0,-2.0,62.0,-7.0,67.0,-931.0,186.0
16.0,-245.0,20.0,-4.0,63.0,-5.0,69.0,-935.0,188.0
17.0,-248.0,25.0,-4.0,63.0,-6.0,67.0,-931.0,193.0
19.0,-243.0,24.0,-3.0,61.0,-3.0,66.0,-930.0,189.0
27.0,-247.0,26.0,-2.0,58.0,-4.0,64.0,-931.0,195.0
20.0,-246.0,25.0,0.0,55.0,-1.0,65.0,-928.0,196.0
19.0,-247.0,25.0,2.0,54.0,-2.0,68.0,-931.0,189.0
18.0,-243.0,23.0,2.0,52.0,0.0,71.0,-933.0,193.0
23.0,-247.0,25.0,4.0,51.0,-2.0,67.0,-927.0,200.0
20.0,-246.0,24.0,6.0,51.0,0.0,71.0,-929.0,193.0
22.0,-247.0,25.0,5.0,51.0,-4.0,65.0,-933.0,199.0
18.0,-247.0,26.0,4.0,52.0,-4.0,65.0,-930.0,200.0
19.0,-247.0,26.0,3.0,54.0,-6.0,69.0,-934.0,196.0
20.0,-247.0,25.0,1.0,56.0,-3.0,69.0,-934.0,193.0
24.0,-247.0,20.0,0.0,56.0,-7.0,71.0,-933.0,194.0
27.0,-253.0,41.0,-1.0,57.0,-6.0,67.0,-940.0,195.0
20.0,-246.0,24.0,-4.0,58.0,-8.0,67.0,-933.0,192.0
21.0,-248.0,22.0,-5.0,59.0,-6.0,75.0,-933.0,193.0
21.0,-246.0,24.0,-5.0,60.0,-8.0,77.0,-937.0,195.0
23.0,-248.0,25.0,-3.0,62.0,-6.0,72.0,-932.0,192.0
19.0,-247.0,23.0,-1.0,63.0,-8.0,70.0,-934.0,192.0
19.0,-244.0,24.0,0.0,63.0,-6.0,68.0,-931.0,193.0
21.0,-247.0,19.0,2.0,63.0,-8.0,65.0,-931.0,195.0
19.0,-246.0,20.0,1.0,63.0,-5.0,68.0,-935.0,190.0
21.0,-246.0,27.0,0.0,63.0,-7.0,67.0,-931.0,192.0
22.0,-244.0,22.0,-1.0,64.0,-5.0,73.0,-928.0,195.0
7.0,-256.0,46.0,-1.0,63.0,-7.0,65.0,-930.0,191.0
20.0,-244.0,26.0,-2.0,63.0,-5.0,65.0,-935.0,191.0
21.0,-245.0,25.0,-2.0,60.0,-9.0,74.0,-930.0,196.0
23.0,-247.0,21.0,0.0,59.0,-6.0,70.0,-930.0,193.0
22.0,-248.0,22.0,2.0,57.0,-8.0,70.0,-931.0,189.0
22.0,-249.0,23.0,3.0,57.0,-5.0,68.0,-932.0,191.0
20.0,-245.0,24.0,1.0,57.0,-6.0,70.0,-940.0,192.0
20.0,-251.0,22.0,0.0,56.0,-4.0,69.0,-935.0,193.0
23.0,-245.0,22.0,1.0,55.0,-8.0,67.0,-934.0,196.0
20.0,-245.0,26.0,3.0,57.0,-5.0,72.0,-933.0,193.0
20.0,-249.0,26.0,4.0,55.0,-7.0,68.0,-933.0,197.0
23.0,-240.0,21.0,3.0,54.0,-5.0,70.0,-931.0,194.0
22.0,-246.0,24.0,3.0,55.0,-8.0,68.0,-931.0,196.0
20.0,-244.0,24.0,0.0,53.0,-5.0,74.0,-933.0,195.0
16.0,-244.0,28.0,-2.0,53.0,-8.0,72.0,-929.0,197.0
21.0,-247.0,26.0,-4.0,54.0,-7.0,73.0,-931.0,199.0
23.0,-244.0,26.0,-7.0,54.0,-7.0,68.0,-927.0,195.0
20.0,-244.0,22.0,-7.0,54.0,-4.0,69.0,-935.0,197.0
22.0,-246.0,26.0,-8.0,57.0,-8.0,72.0,-932.0,199.0
20.0,-245.0,25.0,-8.0,56.0,-5.0,72.0,-936.0,197.0
17.0,-246.0,25.0,-6.0,59.0,-8.0,67.0,-927.0,197.0
24.0,-250.0,27.0,-5.0,60.0,-6.0,70.0,-932.0,194.0
16.0,-243.0,32.0,-1.0,60.0,-8.0,67.0,-934.0,197.0
19.0,-243.0,26.0,-1.0,62.0,-6.0,67.0,-929.0,197.0
18.0,-244.0,24.0,0.0,63.0,-10.0,69.0,-928.0,190.0
22.0,-247.0,26.0,0.0,63.0,-6.0,67.0,-930.0,197.0
19.0,-244.0,26.0,-3.0,62.0,-9.0,63.0,-931.0,194.0
20.0,-246.0,24.0,-6.0,61.0,-6.0,66.0,-928.0,193.0
19.0,-248.0,27.0,-7.0,62.0,-9.0,63.0,-936.0,193.0
20.0,-245.0,28.0,-11.0,61.0,-6.0,62.0,-934.0,195.0
24.0,-251.0,27.0,-16.0,61.0,-10.0,67.0,-933.0,196.0
18.0,-245.0,28.0,-19.0,61.0,-8.0,65.0,-930.0,195.0
13.0,-243.0,39.0,-20.0,59.0,-10.0,64.0,-932.0,196.0
22.0,-247.0,23.0,-21.0,61.0,-9.0,66.0,-932.0,198.0
19.0,-244.0,24.0,-16.0,60.0,-11.0,67.0,-925.0,200.0
19.0,-242.0,24.0,-12.0,59.0,-10.0,66.0,-927.0,199.0
21.0,-245.0,26.0,-9.0,61.0,-12.0,65.0,-927.0,194.0
19.0,-244.0,22.0,-11.0,62.0,-10.0,66.0,-925.0,192.0
19.0,-245.0,23.0,-17.0,63.0,-12.0,64.0,-925.0,193.0
18.0,-245.0,25.0,-25.0,65.0,-10.0,67.0,-932.0,192.0
19.0,-246.0,23.0,-34.0,65.0,-12.0,64.0,-939.0,192.0
17.0,-249.0,24.0,-40.0,66.0,-10.0,68.0,-940.0,200.0
19.0,-253.0,25.0,-42.0,66.0,-12.0,66.0,-939.0,200.0
14.0,-236.0,13.0,-40.0,66.0,-9.0,74.0,-949.0,200.0
21.0,-250.0,26.0,-33.0,67.0,-10.0,67.0,-946.0,203.0
21.0,-247.0,24.0,-23.0,66.0,-9.0,72.0,-945.0,201.0
21.0,-251.0,25.0,-14.0,66.0,-11.0,66.0,-944.0,195.0
19.0,-247.0,24.0,-5.0,66.0,-8.0,67.0,-940.0,194.0
21.0,-250.0,22.0,2.0,64.0,-10.0,67.0,-938.0,191.0
21.0,-246.0,25.0,7.0,64.0,-7.0,65.0,-931.0,185.0
24.0,-248.0,22.0,8.0,63.0,-10.0,79.0,-927.0,186.0
19.0,-244.0,22.0,9.0,61.0,-7.0,68.0,-928.0,183.0
21.0,-242.0,23.0,6.0,60.0,-8.0,64.0,-927.0,189.0
20.0,-242.0,24.0,0.0,59.0,-7.0,65.0,-921.0,189.0
17.0,-242.0,29.0,-7.0,59.0,-8.0,66.0,-922.0,191.0
20.0,-241.0,24.0,-14.0,59.0,-5.0,75.0,-919.0,192.0
20.0,-245.0,27.0,-21.0,58.0,-5.0,66.0,-924.0,193.0
22.0,-243.0,23.0,-28.0,57.0,-1.0,69.0,-924.0,198.0
23.0,-244.0,26.0,-31.0,56.0,-4.0,70.0,-931.0,193.0
20.0,-245.0,27.0,-32.0,56.0,-2.0,68.0,-929.0,197.0
22.0,-244.0,26.0,-32.0,55.0,-5.0,69.0,-935.0,201.0
18.0,-243.0,27.0,-28.0,55.0,-3.0,75.0,-940.0,201.0
23.0,-248.0,27.0,-22.0,57.0,-6.0,78.0,-944.0,202.0
19.0,-245.0,26.0,-16.0,56.0,-3.0,71.0,-940.0,198.0
27.0,-247.0,30.0,-10.0,56.0,-6.0,69.0,-939.0,200.0
18.0,-238.0,22.0,-4.0,57.0,-5.0,72.0,-936.0,196.0
19.0,-247.0,24.0,0.0,57.0,-8.0,72.0,-938.0,196.0
22.0,-245.0,23.0,2.0,55.0,-7.0,78.0,-935.0,197.0
19.0,-248.0,23.0,1.0,54.0,-9.0,73.0,-929.0,194.0
20.0,-245.0,25.0,-1.0,55.0,-8.0,71.0,-927.0,198.0
23.0,-243.0,26.0,-3.0,55.0,-9.0,74.0,-929.0,193.0
22.0,-243.0,25.0,-6.0,56.0,-7.0,72.0,-927.0,191.0
20.0,-242.0,22.0,-8.0,55.0,-9.0,74.0,-928.0,198.0
17.0,-242.0,25.0,-10.0,55.0,-7.0,74.0,-928.0,194.0
23.0,-247.0,28.0,-11.0,54.0,-7.0,72.0,-926.0,188.0
