acc1_x,acc1_y,acc1_z,gyro_x,gyro_y,gyro_z,acc2_x,acc2_y,acc2_z
12.0,-251.0,-39.0,51.0,17.0,-11.0,43.0,-1021.0,-126.0
15.0,-252.0,-39.0,52.0,16.0,-11.0,40.0,-1021.0,-127.0
13.0,-248.0,-43.0,52.0,12.0,-9.0,44.0,-1018.0,-123.0
12.0,-249.0,-36.0,51.0,10.0,-11.0,46.0,-1013.0,-124.0
13.0,-247.0,-39.0,51.0,8.0,-11.0,46.0,-1014.0,-127.0
13.0,-250.0,-43.0,52.0,5.0,-12.0,44.0,-1015.0,-125.0
12.0,-248.0,-37.0,51.0,2.0,-12.0,47.0,-1018.0,-122.0
9.0,-248.0,-36.0,49.0,-1.0,-12.0,42.0,-1011.0,-125.0
13.0,-247.0,-38.0,47.0,-5.0,-11.0,41.0,-1014.0,-119.0
11.0,-248.0,-37.0,45.0,-11.0,-9.0,43.0,-1015.0,-118.0
8.0,-248.0,-38.0,42.0,-15.0,-6.0,35.0,-1016.0,-113.0
9.0,-248.0,-38.0,38.0,-20.0,-5.0,31.0,-1017.0,-112.0
8.0,-252.0,-39.0,34.0,-25.0,-1.0,27.0,-1022.0,-120.0
7.0,-247.0,-37.0,29.0,-30.0,1.0,26.0,-1025.0,-119.0
6.0,-251.0,-37.0,26.0,-34.0,3.0,29.0,-1027.0,-118.0
5.0,-255.0,-38.0,24.0,-38.0,7.0,31.0,-1034.0,-118.0
9.0,-254.0,-35.0,24.0,-44.0,8.0,32.0,-1030.0,-112.0
7.0,-250.0,-36.0,25.0,-50.0,10.0,20.0,-1029.0,-114.0
5.0,-252.0,-35.0,25.0,-56.0,15.0,20.0,-1031.0,-118.0
4.0,-250.0,-38.0,25.0,-64.0,19.0,19.0,-1032.0,-114.0
3.0,-247.0,-35.0,23.0,-68.0,22.0,21.0,-1028.0,-115.0
7.0,-252.0,-37.0,24.0,-70.0,25.0,18.0,-1028.0,-121.0
5.0,-250.0,-38.0,22.0,-74.0,26.0,17.0,-1023.0,-119.0
3.0,-251.0,-38.0,20.0,-77.0,28.0,12.0,-1034.0,-119.0
5.0,-253.0,-42.0,19.0,-79.0,29.0,11.0,-1028.0,-122.0
6.0,-253.0,-36.0,13.0,-83.0,32.0,15.0,-1027.0,-121.0
4.0,-257.0,-41.0,8.0,-87.0,32.0,9.0,-1034.0,-129.0
2.0,-251.0,-42.0,5.0,-92.0,29.0,9.0,-1029.0,-133.0
3.0,-251.0,-45.0,4.0,-95.0,27.0,7.0,-1029.0,-137.0
0.0,-251.0,-39.0,4.0,-97.0,23.0,3.0,-1026.0,-134.0
0.0,-249.0,-45.0,4.0,-99.0,21.0,6.0,-1022.0,-138.0
0.0,-250.0,-40.0,6.0,-100.0,19.0,-6.0,-1028.0,-141.0
0.0,-252.0,-42.0,7.0,-101.0,16.0,-2.0,-1034.0,-140.0
-1.0,-251.0,-46.0,8.0,-102.0,15.0,-5.0,-1034.0,-136.0
-3.0,-250.0,-47.0,8.0,-101.0,14.0,-9.0,-1035.0,-146.0
0.0,-254.0,-48.0,10.0,-98.0,12.0,-6.0,-1045.0,-147.0
0.0,-255.0,-43.0,13.0,-92.0,10.0,-8.0,-1040.0,-152.0
0.0,-257.0,-47.0,15.0,-85.0,6.0,-6.0,-1048.0,-141.0
0.0,-257.0,-44.0,18.0,-75.0,2.0,-14.0,-1056.0,-148.0
-3.0,-258.0,-44.0,23.0,-67.0,-1.0,-9.0,-1049.0,-144.0
0.0,-257.0,-46.0,28.0,-59.0,-4.0,-14.0,-1044.0,-140.0
-3.0,-253.0,-42.0,34.0,-50.0,-5.0,-8.0,-1045.0,-132.0
-1.0,-251.0,-41.0,41.0,-42.0,-6.0,-12.0,-1037.0,-126.0
-1.0,-252.0,-41.0,49.0,-34.0,-9.0,-13.0,-1040.0,-129.0
-3.0,-250.0,-35.0,54.0,-26.0,-11.0,-12.0,-1029.0,-125.0
0.0,-252.0,-40.0,63.0,-15.0,-13.0,-10.0,-1018.0,-121.0
0.0,-252.0,-34.0,69.0,-8.0,-15.0,-13.0,-1011.0,-115.0
-8.0,-252.0,-33.0,75.0,3.0,-17.0,-18.0,-1011.0,-108.0
-1.0,-247.0,-36.0,80.0,12.0,-20.0,-16.0,-1005.0,-108.0
-1.0,-244.0,-36.0,84.0,23.0,-21.0,-20.0,-1005.0,-112.0
-3.0,-247.0,-35.0,89.0,34.0,-23.0,-15.0,-1009.0,-107.0
-1.0,-250.0,-37.0,94.0,42.0,-25.0,-24.0,-1008.0,-106.0
-2.0,-246.0,-32.0,97.0,49.0,-25.0,-28.0,-1006.0,-99.0
-2.0,-243.0,-31.0,100.0,55.0,-26.0,-27.0,-1005.0,-104.0
-1.0,-247.0,-31.0,100.0,59.0,-26.0,-30.0,-1003.0,-99.0
-6.0,-244.0,-31.0,98.0,62.0,-29.0,-34.0,-1006.0,-90.0
-9.0,-241.0,-29.0,99.0,68.0,-32.0,-31.0,-1005.0,-87.0
-5.0,-244.0,-31.0,96.0,72.0,-32.0,-34.0,-1007.0,-96.0
-6.0,-245.0,-29.0,95.0,73.0,-34.0,-36.0,-1011.0,-96.0
-5.0,-247.0,-32.0,93.0,77.0,-35.0,-36.0,-1009.0,-100.0
-9.0,-245.0,-33.0,91.0,80.0,-37.0,-38.0,-1010.0,-101.0
-7.0,-248.0,-32.0,91.0,80.0,-37.0,-38.0,-1016.0,-103.0
-8.0,-247.0,-35.0,89.0,83.0,-38.0,-40.0,-1016.0,-108.0
-8.0,-248.0,-34.0,87.0,84.0,-39.0,-42.0,-1013.0,-110.0
-10.0,-244.0,-34.0,83.0,85.0,-41.0,-34.0,-1009.0,-103.0
-7.0,-247.0,-32.0,80.0,86.0,-42.0,-34.0,-1015.0,-103.0
-3.0,-248.0,-33.0,78.0,86.0,-44.0,-31.0,-1016.0,-106.0
-6.0,-246.0,-36.0,74.0,88.0,-45.0,-30.0,-1013.0,-105.0
-5.0,-244.0,-37.0,71.0,89.0,-47.0,-25.0,-1011.0,-117.0
-1.0,-243.0,-37.0,63.0,90.0,-48.0,-23.0,-1012.0,-114.0
-5.0,-246.0,-38.0,54.0,93.0,-52.0,-15.0,-1012.0,-119.0
0.0,-249.0,-37.0,44.0,94.0,-53.0,-14.0,-1014.0,-115.0
0.0,-248.0,-40.0,35.0,95.0,-56.0,-15.0,-1019.0,-113.0
0.0,-248.0,-31.0,27.0,99.0,-57.0,-13.0,-1019.0,-111.0
-1.0,-249.0,-36.0,22.0,100.0,-57.0,-9.0,-1024.0,-111.0
-3.0,-251.0,-29.0,19.0,101.0,-58.0,-17.0,-1036.0,-111.0
1.0,-252.0,-36.0,16.0,106.0,-61.0,-9.0,-1033.0,-103.0
2.0,-253.0,-32.0,14.0,111.0,-63.0,-17.0,-1035.0,-105.0
1.0,-255.0,-34.0,13.0,115.0,-63.0,-2.0,-1032.0,-105.0
0.0,-254.0,-37.0,14.0,120.0,-64.0,-8.0,-1033.0,-106.0
3.0,-248.0,-31.0,19.0,127.0,-65.0,0.0,-1029.0,-108.0
0.0,-251.0,-37.0,23.0,131.0,-67.0,5.0,-1023.0,-112.0
2.0,-247.0,-34.0,29.0,135.0,-68.0,6.0,-1018.0,-105.0
3.0,-244.0,-37.0,36.0,137.0,-69.0,7.0,-1010.0,-112.0
4.0,-243.0,-39.0,42.0,139.0,-71.0,10.0,-1007.0,-115.0
3.0,-239.0,-38.0,46.0,140.0,-71.0,12.0,-994.0,-121.0
4.0,-237.0,-38.0,50.0,144.0,-72.0,16.0,-981.0,-114.0
4.0,-237.0,-37.0,51.0,150.0,-73.0,20.0,-974.0,-115.0
3.0,-236.0,-36.0,50.0,154.0,-72.0,19.0,-976.0,-122.0
6.0,-237.0,-37.0,47.0,160.0,-70.0,20.0,-974.0,-119.0
7.0,-238.0,-45.0,42.0,167.0,-69.0,16.0,-973.0,-124.0
6.0,-238.0,-35.0,37.0,175.0,-66.0,20.0,-979.0,-127.0
6.0,-236.0,-40.0,33.0,182.0,-66.0,21.0,-979.0,-129.0
7.0,-240.0,-42.0,28.0,189.0,-65.0,18.0,-988.0,-133.0
8.0,-241.0,-39.0,24.0,194.0,-66.0,18.0,-990.0,-130.0
11.0,-243.0,-43.0,20.0,196.0,-67.0,19.0,-997.0,-131.0
3.0,-241.0,-38.0,17.0,195.0,-69.0,18.0,-991.0,-133.0
5.0,-245.0,-44.0,14.0,193.0,-70.0,17.0,-997.0,-128.0
5.0,-244.0,-42.0,14.0,187.0,-72.0,13.0,-1003.0,-126.0
5.0,-246.0,-42.0,12.0,180.0,-75.0,13.0,-1002.0,-134.0
2.0,-244.0,-44.0,10.0,173.0,-76.0,13.0,-1005.0,-141.0
2.0,-243.0,-43.0,9.0,165.0,-75.0,11.0,-1004.0,-137.0
1.0,-242.0,-43.0,7.0,153.0,-75.0,7.0,-995.0,-137.0
2.0,-241.0,-41.0,6.0,140.0,-74.0,2.0,-996.0,-141.0
0.0,-243.0,-44.0,4.0,129.0,-74.0,8.0,-990.0,-144.0
1.0,-242.0,-48.0,4.0,114.0,-72.0,5.0,-990.0,-140.0
2.0,-243.0,-43.0,-1.0,102.0,-70.0,16.0,-998.0,-136.0
9.0,-245.0,-41.0,-4.0,92.0,-70.0,26.0,-1005.0,-139.0
8.0,-245.0,-43.0,-6.0,81.0,-70.0,28.0,-1013.0,-139.0
6.0,-253.0,-41.0,-7.0,72.0,-72.0,33.0,-1029.0,-132.0
12.0,-254.0,-46.0,-7.0,63.0,-71.0,42.0,-1052.0,-137.0
13.0,-257.0,-44.0,-7.0,53.0,-73.0,56.0,-1064.0,-149.0
13.0,-261.0,-46.0,-5.0,39.0,-79.0,59.0,-1070.0,-148.0
17.0,-260.0,-45.0,1.0,23.0,-84.0,58.0,-1071.0,-151.0
17.0,-261.0,-47.0,8.0,9.0,-92.0,61.0,-1074.0,-160.0
17.0,-261.0,-45.0,16.0,-3.0,-99.0,68.0,-1079.0,-155.0
19.0,-259.0,-48.0,25.0,-13.0,-108.0,63.0,-1080.0,-160.0
17.0,-260.0,-43.0,34.0,-22.0,-116.0,66.0,-1073.0,-159.0
17.0,-260.0,-46.0,43.0,-33.0,-121.0,71.0,-1070.0,-160.0
22.0,-260.0,-50.0,51.0,-43.0,-129.0,78.0,-1071.0,-153.0
24.0,-259.0,-45.0,56.0,-53.0,-129.0,85.0,-1066.0,-154.0
25.0,-258.0,-42.0,63.0,-63.0,-130.0,97.0,-1058.0,-158.0
28.0,-255.0,-48.0,74.0,-70.0,-126.0,102.0,-1048.0,-147.0
36.0,-258.0,-45.0,87.0,-72.0,-121.0,117.0,-1047.0,-159.0
33.0,-252.0,-43.0,99.0,-72.0,-110.0,136.0,-1036.0,-144.0
43.0,-254.0,-49.0,108.0,-63.0,-96.0,147.0,-1033.0,-155.0
47.0,-252.0,-46.0,119.0,-47.0,-80.0,174.0,-1030.0,-157.0
48.0,-250.0,-50.0,128.0,-25.0,-66.0,187.0,-1028.0,-155.0
53.0,-250.0,-46.0,140.0,2.0,-55.0,199.0,-1035.0,-145.0
58.0,-254.0,-42.0,157.0,32.0,-47.0,218.0,-1034.0,-137.0
64.0,-255.0,-40.0,177.0,62.0,-40.0,236.0,-1031.0,-135.0
64.0,-252.0,-35.0,197.0,93.0,-33.0,243.0,-1031.0,-121.0
67.0,-246.0,-34.0,216.0,123.0,-33.0,256.0,-1038.0,-107.0
76.0,-252.0,-34.0,234.0,146.0,-36.0,265.0,-1034.0,-100.0
74.0,-253.0,-28.0,245.0,165.0,-42.0,270.0,-1029.0,-81.0
71.0,-250.0,-22.0,255.0,166.0,-47.0,271.0,-1021.0,-62.0
68.0,-252.0,-19.0,262.0,158.0,-53.0,258.0,-1024.0,-42.0
66.0,-248.0,-12.0,270.0,146.0,-60.0,248.0,-1019.0,-25.0
63.0,-246.0,-11.0,272.0,134.0,-64.0,232.0,-1018.0,-16.0
58.0,-244.0,-5.0,261.0,118.0,-69.0,214.0,-1011.0,8.0
52.0,-248.0,0.0,241.0,102.0,-72.0,187.0,-1012.0,21.0
45.0,-245.0,1.0,221.0,85.0,-81.0,166.0,-1009.0,24.0
37.0,-246.0,2.0,201.0,70.0,-86.0,142.0,-1015.0,33.0
31.0,-245.0,1.0,180.0,56.0,-92.0,112.0,-1017.0,30.0
27.0,-251.0,-1.0,159.0,42.0,-100.0,96.0,-1029.0,21.0
21.0,-248.0,-3.0,140.0,31.0,-107.0,77.0,-1037.0,11.0
15.0,-251.0,-4.0,125.0,18.0,-110.0,66.0,-1033.0,1.0
15.0,-252.0,-12.0,108.0,1.0,-113.0,48.0,-1032.0,-3.0
14.0,-255.0,-9.0,96.0,-14.0,-117.0,50.0,-1038.0,-16.0
15.0,-256.0,-10.0,86.0,-27.0,-123.0,56.0,-1034.0,-15.0
18.0,-255.0,-11.0,81.0,-39.0,-130.0,66.0,-1040.0,-28.0
22.0,-254.0,-18.0,76.0,-47.0,-136.0,81.0,-1030.0,-36.0
25.0,-250.0,-16.0,75.0,-53.0,-141.0,93.0,-1020.0,-41.0
31.0,-249.0,-15.0,75.0,-56.0,-150.0,106.0,-1011.0,-44.0
36.0,-242.0,-13.0,74.0,-61.0,-156.0,124.0,-1005.0,-42.0
37.0,-240.0,-15.0,73.0,-69.0,-160.0,142.0,-992.0,-37.0
38.0,-239.0,-17.0,71.0,-79.0,-163.0,149.0,-993.0,-42.0
42.0,-244.0,-17.0,69.0,-90.0,-166.0,141.0,-994.0,-32.0
41.0,-244.0,-13.0,64.0,-102.0,-164.0,157.0,-992.0,-33.0
44.0,-245.0,-16.0,60.0,-114.0,-161.0,156.0,-995.0,-29.0
41.0,-242.0,-16.0,56.0,-124.0,-159.0,153.0,-992.0,-33.0
40.0,-243.0,-17.0,52.0,-133.0,-156.0,145.0,-998.0,-33.0
39.0,-242.0,-19.0,45.0,-144.0,-152.0,143.0,-1000.0,-34.0
35.0,-242.0,-16.0,38.0,-152.0,-146.0,135.0,-1003.0,-30.0
33.0,-246.0,-11.0,35.0,-160.0,-140.0,118.0,-1004.0,-31.0
30.0,-246.0,-18.0,33.0,-167.0,-136.0,125.0,-1011.0,-32.0
32.0,-247.0,-12.0,34.0,-173.0,-133.0,118.0,-1009.0,-34.0
29.0,-245.0,-15.0,35.0,-180.0,-125.0,104.0,-1002.0,-33.0
31.0,-247.0,-17.0,34.0,-195.0,-117.0,105.0,-1008.0,-39.0
27.0,-245.0,-17.0,35.0,-209.0,-111.0,99.0,-1005.0,-31.0
26.0,-245.0,-15.0,40.0,-221.0,-105.0,99.0,-998.0,-27.0
28.0,-243.0,-17.0,43.0,-236.0,-100.0,101.0,-998.0,-27.0
28.0,-241.0,-13.0,48.0,-253.0,-95.0,105.0,-997.0,-29.0
28.0,-241.0,-14.0,49.0,-271.0,-91.0,107.0,-992.0,-29.0
33.0,-246.0,-17.0,49.0,-281.0,-87.0,115.0,-988.0,-40.0
31.0,-239.0,-13.0,51.0,-287.0,-80.0,123.0,-981.0,-44.0
35.0,-243.0,-18.0,51.0,-293.0,-76.0,128.0,-979.0,-41.0
37.0,-241.0,-18.0,52.0,-296.0,-74.0,128.0,-988.0,-39.0
36.0,-239.0,-18.0,53.0,-298.0,-68.0,121.0,-981.0,-43.0
32.0,-236.0,-17.0,52.0,-298.0,-60.0,127.0,-990.0,-48.0
38.0,-238.0,-18.0,51.0,-297.0,-52.0,126.0,-990.0,-43.0
36.0,-244.0,-12.0,51.0,-295.0,-45.0,127.0,-998.0,-32.0
37.0,-244.0,-16.0,53.0,-295.0,-38.0,129.0,-1004.0,-32.0
34.0,-242.0,-11.0,59.0,-294.0,-30.0,117.0,-1001.0,-25.0
32.0,-244.0,-9.0,65.0,-297.0,-16.0,117.0,-1004.0,-24.0
32.0,-243.0,-11.0,70.0,-297.0,-8.0,112.0,-1007.0,-20.0
33.0,-240.0,-19.0,75.0,-297.0,0.0,106.0,-999.0,-23.0
28.0,-242.0,-10.0,77.0,-303.0,7.0,97.0,-993.0,-26.0
29.0,-244.0,-11.0,74.0,-311.0,15.0,93.0,-989.0,-20.0
22.0,-240.0,-10.0,73.0,-324.0,20.0,85.0,-992.0,-20.0
22.0,-238.0,-12.0,68.0,-337.0,22.0,80.0,-989.0,-23.0
23.0,-239.0,-13.0,65.0,-349.0,25.0,75.0,-991.0,-20.0
18.0,-237.0,-12.0,58.0,-360.0,27.0,76.0,-992.0,-24.0
22.0,-242.0,-7.0,49.0,-373.0,34.0,86.0,-993.0,-14.0
24.0,-243.0,-11.0,40.0,-384.0,36.0,79.0,-996.0,-16.0
22.0,-246.0,-4.0,36.0,-390.0,36.0,76.0,-1000.0,-8.0
25.0,-243.0,-10.0,30.0,-393.0,41.0,84.0,-1007.0,-10.0
30.0,-245.0,-8.0,20.0,-395.0,45.0,90.0,-1007.0,-16.0
28.0,-248.0,-14.0,12.0,-392.0,49.0,97.0,-1025.0,-18.0
28.0,-249.0,-9.0,5.0,-384.0,52.0,98.0,-1034.0,-15.0
31.0,-254.0,-10.0,10.0,-376.0,54.0,100.0,-1033.0,-17.0
30.0,-255.0,-11.0,13.0,-370.0,58.0,107.0,-1037.0,-14.0
34.0,-256.0,-8.0,17.0,-369.0,68.0,116.0,-1050.0,-15.0
32.0,-253.0,-12.0,24.0,-370.0,72.0,119.0,-1052.0,-14.0
29.0,-257.0,-9.0,34.0,-368.0,77.0,117.0,-1051.0,-9.0
34.0,-256.0,-8.0,39.0,-372.0,84.0,118.0,-1049.0,-11.0
34.0,-254.0,-9.0,43.0,-379.0,90.0,126.0,-1053.0,-16.0
31.0,-252.0,-9.0,48.0,-385.0,90.0,115.0,-1045.0,-20.0
31.0,-250.0,-15.0,50.0,-388.0,93.0,110.0,-1033.0,-17.0
30.0,-251.0,-8.0,47.0,-393.0,94.0,114.0,-1029.0,-16.0
29.0,-245.0,-11.0,45.0,-393.0,95.0,108.0,-1022.0,-17.0
29.0,-246.0,-15.0,45.0,-390.0,96.0,105.0,-1010.0,-20.0
30.0,-246.0,-16.0,44.0,-385.0,95.0,100.0,-1007.0,-23.0
31.0,-245.0,-10.0,41.0,-382.0,96.0,108.0,-1005.0,-21.0
30.0,-240.0,-13.0,32.0,-382.0,94.0,106.0,-995.0,-18.0
30.0,-246.0,-12.0,22.0,-386.0,96.0,100.0,-1006.0,-21.0
25.0,-246.0,-9.0,12.0,-393.0,96.0,98.0,-1009.0,-11.0
27.0,-249.0,-8.0,3.0,-397.0,99.0,97.0,-1009.0,-11.0
25.0,-249.0,-7.0,0.0,-401.0,102.0,92.0,-1015.0,-11.0
29.0,-253.0,-6.0,-2.0,-403.0,105.0,90.0,-1033.0,-9.0
25.0,-252.0,-11.0,1.0,-402.0,106.0,87.0,-1034.0,-3.0
26.0,-255.0,-5.0,3.0,-399.0,111.0,82.0,-1036.0,-3.0
24.0,-257.0,-8.0,5.0,-396.0,114.0,85.0,-1040.0,0.0
23.0,-256.0,-1.0,5.0,-397.0,122.0,86.0,-1038.0,8.0
25.0,-254.0,0.0,5.0,-398.0,128.0,86.0,-1041.0,10.0
27.0,-252.0,-1.0,5.0,-401.0,132.0,99.0,-1031.0,15.0
31.0,-255.0,-4.0,6.0,-406.0,136.0,94.0,-1037.0,20.0
29.0,-249.0,-1.0,7.0,-414.0,141.0,105.0,-1026.0,30.0
31.0,-250.0,1.0,9.0,-421.0,145.0,105.0,-1024.0,33.0
32.0,-247.0,1.0,8.0,-427.0,148.0,111.0,-1022.0,32.0
31.0,-248.0,2.0,5.0,-434.0,152.0,111.0,-1020.0,41.0
27.0,-252.0,4.0,-1.0,-444.0,152.0,105.0,-1022.0,44.0
28.0,-252.0,5.0,-7.0,-453.0,153.0,92.0,-1028.0,52.0
27.0,-250.0,7.0,-16.0,-462.0,158.0,94.0,-1029.0,50.0
23.0,-252.0,3.0,-32.0,-468.0,158.0,80.0,-1019.0,46.0
20.0,-248.0,1.0,-58.0,-469.0,160.0,68.0,-1015.0,34.0
22.0,-248.0,-3.0,-90.0,-467.0,167.0,73.0,-1023.0,23.0
20.0,-253.0,1.0,-122.0,-461.0,171.0,67.0,-1035.0,23.0
20.0,-255.0,-2.0,-146.0,-457.0,174.0,71.0,-1046.0,19.0
22.0,-255.0,0.0,-161.0,-457.0,179.0,75.0,-1059.0,14.0
15.0,-261.0,5.0,-168.0,-459.0,184.0,81.0,-1068.0,15.0
22.0,-260.0,-3.0,-167.0,-463.0,186.0,92.0,-1072.0,12.0
25.0,-263.0,-7.0,-165.0,-472.0,186.0,106.0,-1093.0,13.0
32.0,-268.0,-4.0,-160.0,-478.0,188.0,117.0,-1111.0,8.0
36.0,-274.0,-3.0,-152.0,-483.0,190.0,130.0,-1119.0,10.0
39.0,-273.0,-7.0,-145.0,-484.0,191.0,141.0,-1126.0,10.0
45.0,-277.0,-8.0,-134.0,-481.0,190.0,157.0,-1139.0,10.0
51.0,-276.0,-8.0,-128.0,-474.0,189.0,163.0,-1142.0,-2.0
49.0,-282.0,-6.0,-119.0,-461.0,188.0,170.0,-1157.0,-3.0
51.0,-284.0,-6.0,-114.0,-444.0,188.0,180.0,-1154.0,-10.0
54.0,-282.0,-11.0,-110.0,-427.0,185.0,188.0,-1155.0,-16.0
52.0,-282.0,-7.0,-108.0,-406.0,184.0,189.0,-1171.0,-19.0
54.0,-285.0,-13.0,-109.0,-381.0,181.0,198.0,-1178.0,-24.0
55.0,-290.0,-16.0,-113.0,-359.0,179.0,196.0,-1188.0,-26.0
59.0,-292.0,-20.0,-118.0,-332.0,173.0,203.0,-1202.0,-47.0
58.0,-294.0,-22.0,-128.0,-299.0,166.0,203.0,-1211.0,-56.0
59.0,-298.0,-28.0,-139.0,-259.0,157.0,204.0,-1224.0,-67.0
57.0,-299.0,-28.0,-150.0,-209.0,147.0,205.0,-1230.0,-72.0
58.0,-303.0,-30.0,-160.0,-157.0,137.0,204.0,-1240.0,-89.0
57.0,-307.0,-29.0,-168.0,-100.0,130.0,205.0,-1244.0,-93.0
58.0,-305.0,-31.0,-170.0,-44.0,123.0,208.0,-1240.0,-86.0
50.0,-302.0,-25.0,-163.0,13.0,119.0,204.0,-1236.0,-81.0
62.0,-302.0,-26.0,-149.0,67.0,115.0,212.0,-1220.0,-72.0
59.0,-293.0,-19.0,-131.0,115.0,111.0,212.0,-1197.0,-49.0
61.0,-289.0,-16.0,-107.0,157.0,113.0,220.0,-1178.0,-29.0
64.0,-283.0,-6.0,-80.0,196.0,117.0,225.0,-1156.0,-6.0
64.0,-279.0,-2.0,-55.0,229.0,124.0,223.0,-1141.0,14.0
59.0,-272.0,-1.0,-33.0,256.0,134.0,220.0,-1122.0,24.0
61.0,-264.0,3.0,-25.0,272.0,148.0,218.0,-1099.0,41.0
60.0,-262.0,1.0,-26.0,277.0,160.0,220.0,-1089.0,46.0
59.0,-260.0,2.0,-32.0,277.0,172.0,218.0,-1070.0,44.0
55.0,-256.0,3.0,-47.0,266.0,178.0,203.0,-1054.0,32.0
50.0,-252.0,0.0,-67.0,248.0,184.0,183.0,-1053.0,22.0
48.0,-253.0,-4.0,-88.0,227.0,187.0,169.0,-1044.0,16.0
44.0,-252.0,-10.0,-107.0,206.0,190.0,151.0,-1033.0,-10.0
38.0,-251.0,-16.0,-127.0,187.0,195.0,137.0,-1024.0,-35.0
30.0,-251.0,-20.0,-145.0,170.0,199.0,110.0,-1027.0,-66.0
24.0,-250.0,-28.0,-165.0,153.0,208.0,89.0,-1023.0,-90.0
16.0,-249.0,-42.0,-182.0,134.0,212.0,64.0,-1018.0,-127.0
11.0,-248.0,-48.0,-189.0,113.0,216.0,45.0,-1023.0,-171.0
7.0,-249.0,-59.0,-185.0,88.0,221.0,28.0,-1034.0,-198.0
3.0,-254.0,-67.0,-170.0,66.0,224.0,14.0,-1041.0,-238.0
2.0,-256.0,-74.0,-146.0,45.0,228.0,3.0,-1048.0,-270.0
-2.0,-256.0,-83.0,-112.0,27.0,229.0,-8.0,-1041.0,-304.0
-7.0,-255.0,-89.0,-70.0,15.0,223.0,-16.0,-1029.0,-324.0
-6.0,-249.0,-92.0,-22.0,3.0,214.0,-24.0,-1018.0,-342.0
-9.0,-240.0,-96.0,25.0,-11.0,203.0,-35.0,-977.0,-353.0
-9.0,-227.0,-98.0,71.0,-28.0,190.0,-44.0,-935.0,-370.0
-14.0,-220.0,-98.0,110.0,-43.0,178.0,-45.0,-905.0,-376.0
-12.0,-212.0,-103.0,140.0,-57.0,162.0,-52.0,-877.0,-387.0
-12.0,-206.0,-104.0,159.0,-64.0,149.0,-49.0,-857.0,-393.0
-13.0,-205.0,-106.0,161.0,-63.0,142.0,-49.0,-849.0,-396.0
-9.0,-210.0,-102.0,152.0,-54.0,140.0,-44.0,-856.0,-400.0
-17.0,-210.0,-110.0,133.0,-37.0,138.0,-42.0,-859.0,-387.0
-9.0,-207.0,-98.0,109.0,-8.0,136.0,-35.0,-864.0,-385.0
-2.0,-213.0,-100.0,85.0,29.0,132.0,-18.0,-884.0,-380.0
-1.0,-220.0,-94.0,63.0,78.0,124.0,-21.0,-915.0,-354.0
3.0,-229.0,-89.0,44.0,132.0,119.0,3.0,-943.0,-340.0
6.0,-239.0,-83.0,26.0,186.0,116.0,18.0,-977.0,-313.0
10.0,-245.0,-81.0,18.0,233.0,114.0,31.0,-993.0,-291.0
8.0,-246.0,-75.0,19.0,269.0,113.0,38.0,-1010.0,-276.0
9.0,-249.0,-69.0,27.0,297.0,114.0,39.0,-1021.0,-262.0
13.0,-252.0,-68.0,38.0,315.0,120.0,36.0,-1027.0,-251.0
6.0,-247.0,-65.0,51.0,331.0,128.0,24.0,-1021.0,-246.0
10.0,-244.0,-76.0,63.0,345.0,141.0,27.0,-1013.0,-245.0
4.0,-246.0,-72.0,70.0,363.0,155.0,15.0,-1010.0,-248.0
3.0,-246.0,-67.0,74.0,380.0,168.0,11.0,-1005.0,-247.0
0.0,-248.0,-64.0,77.0,399.0,182.0,0.0,-1013.0,-246.0
-2.0,-245.0,-68.0,79.0,424.0,198.0,-8.0,-1007.0,-244.0
-4.0,-248.0,-64.0,79.0,448.0,216.0,-28.0,-1008.0,-246.0
-7.0,-248.0,-65.0,79.0,473.0,233.0,-32.0,-1006.0,-244.0
-8.0,-240.0,-66.0,71.0,496.0,250.0,-46.0,-1000.0,-253.0
-9.0,-242.0,-68.0,61.0,514.0,264.0,-43.0,-994.0,-247.0
-6.0,-237.0,-69.0,50.0,527.0,270.0,-54.0,-976.0,-253.0
-13.0,-233.0,-67.0,37.0,535.0,276.0,-60.0,-961.0,-242.0
-18.0,-229.0,-68.0,31.0,536.0,279.0,-69.0,-943.0,-249.0
-15.0,-221.0,-66.0,15.0,538.0,282.0,-71.0,-921.0,-248.0
-20.0,-214.0,-65.0,1.0,539.0,279.0,-80.0,-898.0,-228.0
-24.0,-217.0,-62.0,-8.0,540.0,274.0,-85.0,-881.0,-222.0
-22.0,-207.0,-60.0,-20.0,536.0,274.0,-91.0,-851.0,-221.0
-20.0,-200.0,-60.0,-37.0,533.0,271.0,-96.0,-843.0,-216.0
-20.0,-201.0,-63.0,-67.0,522.0,271.0,-83.0,-844.0,-210.0
-21.0,-203.0,-56.0,-101.0,514.0,267.0,-84.0,-838.0,-204.0
-23.0,-200.0,-55.0,-128.0,511.0,265.0,-96.0,-835.0,-189.0
-17.0,-211.0,-57.0,-143.0,510.0,260.0,-86.0,-845.0,-185.0
-24.0,-201.0,-54.0,-155.0,510.0,256.0,-104.0,-839.0,-184.0
-22.0,-205.0,-54.0,-164.0,504.0,250.0,-81.0,-852.0,-186.0
-20.0,-211.0,-49.0,-174.0,497.0,243.0,-84.0,-869.0,-178.0
-23.0,-212.0,-50.0,-181.0,496.0,233.0,-90.0,-874.0,-171.0
-23.0,-208.0,-54.0,-184.0,491.0,225.0,-92.0,-865.0,-182.0
-29.0,-214.0,-52.0,-196.0,477.0,224.0,-105.0,-893.0,-182.0
-29.0,-222.0,-54.0,-200.0,460.0,218.0,-115.0,-908.0,-183.0
-34.0,-226.0,-56.0,-199.0,440.0,210.0,-117.0,-933.0,-187.0
-35.0,-228.0,-53.0,-188.0,423.0,198.0,-136.0,-941.0,-186.0
-37.0,-228.0,-58.0,-173.0,404.0,185.0,-152.0,-952.0,-190.0
-40.0,-234.0,-54.0,-159.0,377.0,172.0,-164.0,-959.0,-194.0
-45.0,-237.0,-53.0,-142.0,351.0,160.0,-185.0,-962.0,-198.0
-46.0,-238.0,-58.0,-127.0,326.0,150.0,-178.0,-975.0,-197.0
-46.0,-237.0,-55.0,-114.0,302.0,135.0,-181.0,-970.0,-197.0
-44.0,-239.0,-57.0,-98.0,280.0,120.0,-174.0,-971.0,-192.0
-43.0,-235.0,-55.0,-80.0,260.0,103.0,-177.0,-969.0,-191.0
-42.0,-241.0,-49.0,-62.0,241.0,87.0,-167.0,-990.0,-179.0
-36.0,-244.0,-52.0,-47.0,222.0,75.0,-155.0,-990.0,-171.0
-36.0,-240.0,-48.0,-31.0,203.0,61.0,-142.0,-991.0,-166.0
-34.0,-240.0,-50.0,-13.0,188.0,49.0,-139.0,-988.0,-164.0
-30.0,-238.0,-45.0,0.0,176.0,36.0,-131.0,-980.0,-159.0
-29.0,-241.0,-46.0,12.0,165.0,28.0,-128.0,-983.0,-147.0
-27.0,-242.0,-41.0,28.0,157.0,21.0,-114.0,-990.0,-136.0
-23.0,-247.0,-44.0,44.0,152.0,11.0,-105.0,-1002.0,-125.0
-25.0,-243.0,-38.0,59.0,152.0,1.0,-104.0,-1007.0,-123.0
-22.0,-247.0,-33.0,74.0,156.0,-9.0,-98.0,-1016.0,-116.0
-25.0,-249.0,-37.0,86.0,163.0,-16.0,-99.0,-1014.0,-112.0
-22.0,-250.0,-35.0,97.0,167.0,-20.0,-90.0,-1021.0,-113.0
-18.0,-253.0,-35.0,109.0,173.0,-26.0,-84.0,-1022.0,-107.0
-17.0,-252.0,-32.0,120.0,178.0,-34.0,-81.0,-1025.0,-101.0
-16.0,-246.0,-34.0,134.0,180.0,-43.0,-76.0,-1016.0,-107.0
-15.0,-247.0,-34.0,148.0,182.0,-54.0,-70.0,-1010.0,-105.0
-14.0,-242.0,-33.0,165.0,181.0,-64.0,-63.0,-999.0,-100.0
-13.0,-238.0,-32.0,182.0,182.0,-72.0,-57.0,-980.0,-96.0
-7.0,-237.0,-27.0,197.0,184.0,-76.0,-40.0,-975.0,-82.0
-6.0,-235.0,-27.0,209.0,190.0,-82.0,-33.0,-967.0,-77.0
0.0,-230.0,-28.0,220.0,200.0,-86.0,-21.0,-958.0,-77.0
2.0,-231.0,-27.0,229.0,219.0,-89.0,-4.0,-948.0,-68.0
4.0,-229.0,-21.0,237.0,244.0,-90.0,4.0,-949.0,-56.0
7.0,-229.0,-22.0,240.0,275.0,-89.0,23.0,-941.0,-59.0
13.0,-228.0,-14.0,244.0,318.0,-93.0,28.0,-937.0,-36.0
11.0,-231.0,-9.0,246.0,363.0,-94.0,35.0,-947.0,-24.0
14.0,-231.0,-9.0,246.0,407.0,-96.0,50.0,-952.0,-21.0
15.0,-231.0,-10.0,238.0,447.0,-97.0,46.0,-956.0,-17.0
13.0,-234.0,-14.0,228.0,475.0,-95.0,44.0,-952.0,-25.0
6.0,-235.0,-20.0,204.0,492.0,-91.0,31.0,-972.0,-41.0
5.0,-244.0,-20.0,169.0,508.0,-84.0,18.0,-992.0,-49.0
0.0,-245.0,-18.0,136.0,530.0,-79.0,-2.0,-1007.0,-49.0
-4.0,-251.0,-19.0,112.0,553.0,-73.0,-24.0,-1025.0,-49.0
-9.0,-256.0,-19.0,96.0,570.0,-65.0,-42.0,-1033.0,-57.0
-18.0,-254.0,-28.0,84.0,579.0,-60.0,-73.0,-1048.0,-78.0
-25.0,-250.0,-33.0,72.0,580.0,-54.0,-98.0,-1034.0,-94.0
-25.0,-248.0,-34.0,54.0,582.0,-49.0,-110.0,-1027.0,-117.0
-30.0,-253.0,-37.0,31.0,591.0,-42.0,-123.0,-1028.0,-125.0
-33.0,-254.0,-38.0,5.0,607.0,-33.0,-125.0,-1034.0,-129.0
-30.0,-259.0,-38.0,-13.0,633.0,-30.0,-128.0,-1070.0,-130.0
-28.0,-265.0,-37.0,-18.0,660.0,-26.0,-115.0,-1095.0,-122.0
-30.0,-271.0,-40.0,-19.0,680.0,-31.0,-125.0,-1119.0,-114.0
-24.0,-279.0,-37.0,-16.0,693.0,-33.0,-109.0,-1150.0,-114.0
-19.0,-285.0,-30.0,-16.0,696.0,-40.0,-90.0,-1169.0,-106.0
-22.0,-291.0,-34.0,-11.0,694.0,-46.0,-93.0,-1188.0,-104.0
-23.0,-290.0,-35.0,-4.0,690.0,-52.0,-98.0,-1203.0,-109.0
-15.0,-299.0,-35.0,3.0,682.0,-52.0,-76.0,-1215.0,-102.0
-21.0,-296.0,-33.0,16.0,671.0,-59.0,-87.0,-1205.0,-105.0
-20.0,-299.0,-30.0,32.0,656.0,-59.0,-73.0,-1212.0,-100.0
-8.0,-296.0,-22.0,53.0,644.0,-61.0,-87.0,-1200.0,-98.0
-16.0,-292.0,-34.0,72.0,640.0,-58.0,-72.0,-1169.0,-86.0
-13.0,-279.0,-24.0,87.0,644.0,-56.0,-52.0,-1144.0,-69.0
-13.0,-271.0,-14.0,100.0,654.0,-58.0,-52.0,-1126.0,-55.0
0.0,-266.0,-13.0,106.0,666.0,-57.0,-20.0,-1107.0,-31.0
3.0,-264.0,-4.0,109.0,691.0,-59.0,-7.0,-1091.0,-14.0
3.0,-262.0,-8.0,111.0,725.0,-55.0,4.0,-1086.0,2.0
13.0,-264.0,-11.0,105.0,766.0,-45.0,37.0,-1100.0,-5.0
16.0,-265.0,-12.0,85.0,817.0,-33.0,59.0,-1122.0,-14.0
19.0,-280.0,-17.0,50.0,876.0,-18.0,58.0,-1161.0,-53.0
17.0,-296.0,-31.0,-5.0,923.0,1.0,62.0,-1215.0,-88.0
13.0,-309.0,-41.0,-75.0,954.0,22.0,56.0,-1268.0,-143.0
8.0,-325.0,-58.0,-161.0,963.0,50.0,21.0,-1343.0,-194.0
-8.0,-340.0,-62.0,-232.0,940.0,70.0,-25.0,-1401.0,-223.0
-26.0,-354.0,-65.0,-265.0,885.0,86.0,-77.0,-1437.0,-232.0
-42.0,-359.0,-61.0,-251.0,793.0,95.0,-141.0,-1455.0,-221.0
-58.0,-343.0,-64.0,-186.0,674.0,96.0,-203.0,-1420.0,-215.0
-68.0,-326.0,-61.0,-77.0,541.0,80.0,-253.0,-1336.0,-206.0
-77.0,-297.0,-62.0,42.0,412.0,63.0,-290.0,-1225.0,-210.0
-86.0,-271.0,-65.0,144.0,296.0,50.0,-314.0,-1123.0,-228.0
-85.0,-247.0,-71.0,206.0,200.0,47.0,-337.0,-1036.0,-262.0
-84.0,-232.0,-74.0,225.0,124.0,51.0,-339.0,-964.0,-281.0
-90.0,-216.0,-95.0,214.0,82.0,58.0,-329.0,-921.0,-314.0
-69.0,-219.0,-85.0,180.0,79.0,71.0,-293.0,-897.0,-338.0
-56.0,-220.0,-92.0,138.0,115.0,86.0,-239.0,-912.0,-349.0
-32.0,-231.0,-92.0,95.0,179.0,100.0,-173.0,-944.0,-347.0
-19.0,-232.0,-94.0,59.0,258.0,111.0,-70.0,-965.0,-348.0
4.0,-239.0,-91.0,34.0,342.0,119.0,18.0,-994.0,-338.0
28.0,-243.0,-90.0,24.0,427.0,127.0,97.0,-997.0,-331.0
49.0,-246.0,-85.0,36.0,514.0,134.0,168.0,-992.0,-316.0
61.0,-242.0,-83.0,68.0,598.0,138.0,232.0,-974.0,-318.0
70.0,-237.0,-80.0,117.0,675.0,137.0,279.0,-955.0,-322.0
80.0,-227.0,-89.0,167.0,737.0,132.0,302.0,-930.0,-328.0
81.0,-217.0,-87.0,215.0,781.0,123.0,316.0,-896.0,-330.0
79.0,-215.0,-92.0,252.0,810.0,113.0,306.0,-887.0,-345.0
76.0,-214.0,-91.0,277.0,832.0,97.0,297.0,-887.0,-345.0
71.0,-217.0,-92.0,288.0,849.0,84.0,272.0,-891.0,-344.0
61.0,-225.0,-91.0,288.0,865.0,72.0,237.0,-924.0,-345.0
48.0,-232.0,-93.0,273.0,877.0,60.0,187.0,-961.0,-342.0
36.0,-241.0,-96.0,247.0,875.0,49.0,137.0,-988.0,-354.0
21.0,-248.0,-93.0,213.0,856.0,43.0,80.0,-1012.0,-358.0
7.0,-255.0,-97.0,186.0,819.0,43.0,33.0,-1053.0,-352.0
-4.0,-258.0,-91.0,165.0,775.0,48.0,-1.0,-1068.0,-353.0
-18.0,-260.0,-89.0,150.0,728.0,55.0,-41.0,-1074.0,-348.0
-22.0,-263.0,-90.0,149.0,678.0,58.0,-75.0,-1085.0,-337.0
-25.0,-261.0,-82.0,162.0,625.0,57.0,-87.0,-1077.0,-321.0
-23.0,-260.0,-86.0,181.0,572.0,50.0,-88.0,-1058.0,-311.0
-22.0,-253.0,-79.0,208.0,514.0,41.0,-86.0,-1031.0,-287.0
-22.0,-251.0,-75.0,239.0,456.0,26.0,-86.0,-1011.0,-287.0
-21.0,-242.0,-77.0,270.0,401.0,8.0,-80.0,-986.0,-285.0
-17.0,-239.0,-75.0,297.0,354.0,-12.0,-73.0,-977.0,-287.0
-18.0,-236.0,-75.0,316.0,315.0,-30.0,-72.0,-964.0,-283.0
-15.0,-237.0,-76.0,327.0,285.0,-44.0,-58.0,-977.0,-283.0
-11.0,-239.0,-76.0,336.0,264.0,-59.0,-38.0,-988.0,-279.0
-3.0,-246.0,-75.0,343.0,253.0,-70.0,-22.0,-993.0,-276.0
0.0,-248.0,-68.0,346.0,246.0,-77.0,3.0,-1009.0,-264.0
5.0,-246.0,-72.0,354.0,242.0,-87.0,22.0,-1018.0,-265.0
10.0,-247.0,-68.0,361.0,237.0,-96.0,34.0,-1016.0,-265.0
16.0,-247.0,-66.0,365.0,233.0,-102.0,55.0,-1003.0,-260.0
19.0,-243.0,-69.0,370.0,226.0,-110.0,63.0,-992.0,-241.0
21.0,-240.0,-63.0,376.0,213.0,-110.0,83.0,-981.0,-235.0
25.0,-233.0,-67.0,377.0,196.0,-110.0,95.0,-965.0,-234.0
26.0,-231.0,-66.0,376.0,183.0,-107.0,100.0,-948.0,-238.0
29.0,-223.0,-64.0,374.0,165.0,-104.0,109.0,-919.0,-234.0
31.0,-218.0,-61.0,374.0,148.0,-105.0,104.0,-895.0,-227.0
32.0,-213.0,-69.0,374.0,134.0,-105.0,125.0,-884.0,-220.0
32.0,-209.0,-60.0,370.0,119.0,-112.0,121.0,-865.0,-208.0
30.0,-206.0,-55.0,361.0,105.0,-115.0,110.0,-854.0,-200.0
29.0,-202.0,-53.0,352.0,87.0,-118.0,115.0,-847.0,-193.0
33.0,-201.0,-55.0,339.0,69.0,-122.0,103.0,-830.0,-186.0
30.0,-201.0,-55.0,323.0,50.0,-120.0,98.0,-824.0,-194.0
28.0,-199.0,-52.0,298.0,33.0,-118.0,105.0,-822.0,-187.0
26.0,-198.0,-56.0,274.0,21.0,-112.0,100.0,-831.0,-196.0
23.0,-199.0,-59.0,247.0,12.0,-106.0,86.0,-835.0,-193.0
24.0,-203.0,-54.0,220.0,-5.0,-94.0,90.0,-837.0,-190.0
29.0,-205.0,-51.0,196.0,-21.0,-82.0,99.0,-850.0,-189.0
26.0,-205.0,-52.0,173.0,-35.0,-78.0,91.0,-864.0,-188.0
31.0,-212.0,-50.0,156.0,-42.0,-69.0,113.0,-870.0,-182.0
34.0,-211.0,-54.0,137.0,-42.0,-63.0,114.0,-880.0,-178.0
31.0,-213.0,-51.0,121.0,-44.0,-62.0,115.0,-888.0,-180.0
33.0,-218.0,-50.0,109.0,-49.0,-57.0,115.0,-891.0,-174.0
34.0,-220.0,-47.0,103.0,-54.0,-54.0,126.0,-895.0,-168.0
32.0,-222.0,-47.0,102.0,-68.0,-55.0,121.0,-915.0,-155.0
30.0,-225.0,-46.0,104.0,-81.0,-54.0,111.0,-925.0,-154.0
25.0,-230.0,-46.0,107.0,-95.0,-50.0,98.0,-937.0,-150.0
28.0,-231.0,-44.0,113.0,-109.0,-42.0,98.0,-947.0,-147.0
23.0,-235.0,-42.0,121.0,-123.0,-38.0,78.0,-959.0,-140.0
8.0,-236.0,-53.0,131.0,-139.0,-33.0,74.0,-976.0,-138.0
19.0,-237.0,-41.0,143.0,-152.0,-29.0,68.0,-976.0,-135.0
11.0,-240.0,-43.0,153.0,-166.0,-24.0,47.0,-987.0,-138.0
15.0,-240.0,-41.0,163.0,-181.0,-13.0,43.0,-977.0,-138.0
10.0,-231.0,-41.0,170.0,-195.0,-4.0,35.0,-965.0,-133.0
7.0,-233.0,-38.0,185.0,-212.0,-1.0,25.0,-959.0,-128.0
7.0,-233.0,-37.0,198.0,-232.0,4.0,22.0,-954.0,-126.0
5.0,-232.0,-35.0,205.0,-254.0,13.0,15.0,-942.0,-112.0
5.0,-225.0,-35.0,211.0,-276.0,22.0,17.0,-937.0,-112.0
4.0,-227.0,-34.0,216.0,-294.0,26.0,20.0,-935.0,-97.0
5.0,-226.0,-28.0,220.0,-306.0,28.0,22.0,-934.0,-100.0
6.0,-225.0,-30.0,219.0,-317.0,31.0,18.0,-932.0,-86.0
2.0,-228.0,-30.0,218.0,-330.0,37.0,11.0,-942.0,-85.0
4.0,-230.0,-24.0,217.0,-345.0,45.0,15.0,-946.0,-76.0
5.0,-231.0,-22.0,210.0,-359.0,57.0,15.0,-956.0,-61.0
5.0,-234.0,-20.0,209.0,-373.0,67.0,10.0,-959.0,-48.0
6.0,-227.0,-13.0,212.0,-383.0,77.0,15.0,-969.0,-40.0
2.0,-234.0,-13.0,216.0,-388.0,86.0,13.0,-967.0,-32.0
4.0,-233.0,-11.0,217.0,-393.0,95.0,8.0,-962.0,-20.0
2.0,-233.0,-3.0,219.0,-404.0,106.0,5.0,-957.0,-7.0
3.0,-229.0,-4.0,217.0,-418.0,113.0,7.0,-955.0,6.0
2.0,-230.0,1.0,213.0,-433.0,122.0,4.0,-941.0,15.0
-4.0,-223.0,-4.0,208.0,-448.0,129.0,9.0,-938.0,22.0
6.0,-220.0,-1.0,195.0,-460.0,129.0,14.0,-923.0,30.0
5.0,-224.0,1.0,181.0,-465.0,124.0,23.0,-922.0,30.0
13.0,-219.0,1.0,165.0,-466.0,119.0,40.0,-916.0,24.0
14.0,-221.0,0.0,138.0,-467.0,108.0,50.0,-917.0,27.0
21.0,-222.0,-4.0,107.0,-471.0,98.0,72.0,-927.0,21.0
23.0,-225.0,2.0,71.0,-474.0,88.0,75.0,-942.0,18.0
22.0,-229.0,-2.0,40.0,-477.0,82.0,87.0,-956.0,19.0
30.0,-237.0,0.0,13.0,-484.0,76.0,98.0,-988.0,12.0
24.0,-245.0,-4.0,-11.0,-489.0,70.0,88.0,-1004.0,13.0
27.0,-252.0,-5.0,-30.0,-499.0,66.0,99.0,-1024.0,4.0
22.0,-259.0,-5.0,-44.0,-512.0,63.0,89.0,-1067.0,9.0
18.0,-265.0,-7.0,-47.0,-533.0,62.0,65.0,-1097.0,1.0
12.0,-273.0,-8.0,-42.0,-555.0,65.0,56.0,-1126.0,2.0
15.0,-280.0,-8.0,-34.0,-575.0,65.0,46.0,-1150.0,-5.0
11.0,-283.0,-11.0,-22.0,-588.0,64.0,33.0,-1166.0,-11.0
4.0,-288.0,-6.0,-15.0,-594.0,66.0,-2.0,-1182.0,-3.0
1.0,-293.0,-6.0,-2.0,-599.0,71.0,-9.0,-1190.0,-12.0
-4.0,-300.0,-9.0,8.0,-596.0,78.0,-13.0,-1193.0,-16.0
-1.0,-291.0,-17.0,9.0,-581.0,82.0,-17.0,-1197.0,-17.0
8.0,-285.0,-16.0,7.0,-556.0,84.0,-9.0,-1208.0,-17.0
6.0,-291.0,-19.0,5.0,-521.0,87.0,14.0,-1215.0,-10.0
10.0,-306.0,-17.0,4.0,-488.0,82.0,26.0,-1217.0,-5.0
31.0,-298.0,-1.0,8.0,-460.0,74.0,49.0,-1207.0,13.0
13.0,-300.0,-3.0,21.0,-442.0,64.0,50.0,-1199.0,39.0
14.0,-286.0,30.0,37.0,-431.0,52.0,64.0,-1196.0,51.0
15.0,-291.0,7.0,54.0,-425.0,43.0,52.0,-1202.0,73.0
16.0,-280.0,10.0,69.0,-417.0,37.0,51.0,-1198.0,80.0
15.0,-284.0,15.0,81.0,-410.0,28.0,44.0,-1184.0,105.0
17.0,-292.0,11.0,90.0,-403.0,20.0,41.0,-1182.0,109.0
23.0,-284.0,16.0,96.0,-395.0,9.0,31.0,-1185.0,126.0
10.0,-286.0,21.0,99.0,-390.0,4.0,29.0,-1171.0,141.0
12.0,-287.0,31.0,101.0,-392.0,-5.0,28.0,-1180.0,155.0
12.0,-292.0,33.0,102.0,-400.0,-11.0,34.0,-1187.0,158.0
13.0,-294.0,34.0,102.0,-417.0,-19.0,26.0,-1196.0,168.0
9.0,-302.0,29.0,101.0,-440.0,-29.0,31.0,-1221.0,155.0
8.0,-309.0,21.0,89.0,-460.0,-40.0,28.0,-1258.0,118.0
11.0,-320.0,9.0,63.0,-474.0,-47.0,33.0,-1292.0,78.0
11.0,-321.0,2.0,22.0,-477.0,-55.0,40.0,-1322.0,37.0
13.0,-328.0,-10.0,-27.0,-472.0,-58.0,45.0,-1345.0,-22.0
20.0,-330.0,-22.0,-76.0,-454.0,-57.0,62.0,-1355.0,-64.0
31.0,-328.0,-29.0,-118.0,-418.0,-50.0,100.0,-1339.0,-87.0
41.0,-322.0,-23.0,-136.0,-355.0,-42.0,135.0,-1319.0,-97.0
43.0,-313.0,-35.0,-129.0,-272.0,-30.0,173.0,-1283.0,-105.0
61.0,-299.0,-36.0,-100.0,-177.0,-18.0,223.0,-1217.0,-110.0
73.0,-285.0,-39.0,-59.0,-82.0,-4.0,274.0,-1157.0,-141.0
86.0,-275.0,-46.0,-20.0,12.0,4.0,319.0,-1114.0,-167.0
98.0,-262.0,-59.0,7.0,98.0,2.0,358.0,-1077.0,-201.0
99.0,-253.0,-64.0,16.0,167.0,-4.0,386.0,-1024.0,-238.0
101.0,-243.0,-73.0,15.0,212.0,-16.0,391.0,-997.0,-255.0
95.0,-237.0,-77.0,5.0,229.0,-30.0,376.0,-977.0,-275.0
84.0,-236.0,-77.0,-9.0,219.0,-41.0,343.0,-977.0,-281.0
65.0,-237.0,-76.0,-18.0,192.0,-49.0,278.0,-973.0,-283.0
50.0,-234.0,-75.0,-18.0,159.0,-56.0,196.0,-962.0,-285.0
29.0,-235.0,-71.0,-7.0,120.0,-62.0,110.0,-964.0,-283.0
4.0,-228.0,-73.0,13.0,80.0,-61.0,37.0,-945.0,-279.0
-12.0,-225.0,-73.0,40.0,45.0,-61.0,-29.0,-932.0,-275.0
-31.0,-224.0,-74.0,76.0,22.0,-60.0,-106.0,-921.0,-276.0
-43.0,-221.0,-75.0,107.0,7.0,-55.0,-164.0,-916.0,-282.0
-50.0,-225.0,-79.0,131.0,-8.0,-49.0,-205.0,-924.0,-291.0
-60.0,-235.0,-79.0,148.0,-35.0,-36.0,-228.0,-952.0,-299.0
-62.0,-238.0,-80.0,153.0,-71.0,-18.0,-244.0,-969.0,-312.0
-57.0,-246.0,-79.0,150.0,-110.0,7.0,-231.0,-1004.0,-313.0
-54.0,-249.0,-88.0,138.0,-148.0,25.0,-217.0,-1024.0,-332.0
-53.0,-245.0,-79.0,119.0,-177.0,45.0,-189.0,-1034.0,-342.0
-39.0,-257.0,-83.0,100.0,-192.0,58.0,-160.0,-1045.0,-330.0
-27.0,-256.0,-88.0,86.0,-200.0,67.0,-113.0,-1045.0,-330.0
-15.0,-252.0,-78.0,76.0,-201.0,68.0,-67.0,-1043.0,-309.0
-1.0,-249.0,-80.0,81.0,-189.0,69.0,-23.0,-1026.0,-301.0
1.0,-246.0,-77.0,98.0,-165.0,62.0,5.0,-1003.0,-288.0
11.0,-241.0,-77.0,113.0,-140.0,55.0,39.0,-978.0,-279.0
17.0,-236.0,-75.0,120.0,-118.0,49.0,59.0,-956.0,-281.0
29.0,-227.0,-76.0,115.0,-99.0,47.0,102.0,-942.0,-274.0
31.0,-225.0,-72.0,110.0,-76.0,42.0,110.0,-931.0,-269.0
35.0,-222.0,-67.0,99.0,-49.0,48.0,130.0,-924.0,-259.0
33.0,-225.0,-66.0,92.0,-12.0,56.0,132.0,-927.0,-245.0
40.0,-226.0,-66.0,89.0,33.0,67.0,140.0,-936.0,-230.0
38.0,-228.0,-62.0,87.0,80.0,76.0,134.0,-934.0,-221.0
30.0,-232.0,-61.0,87.0,120.0,89.0,116.0,-949.0,-205.0
26.0,-233.0,-57.0,85.0,152.0,105.0,103.0,-963.0,-199.0
17.0,-233.0,-55.0,85.0,177.0,120.0,75.0,-970.0,-190.0
10.0,-237.0,-57.0,84.0,193.0,137.0,49.0,-967.0,-186.0
3.0,-233.0,-58.0,85.0,210.0,156.0,11.0,-969.0,-186.0
-1.0,-239.0,-54.0,85.0,225.0,171.0,-13.0,-976.0,-194.0
-11.0,-235.0,-55.0,81.0,240.0,189.0,-42.0,-963.0,-180.0
-13.0,-236.0,-53.0,78.0,249.0,204.0,-61.0,-961.0,-185.0
-22.0,-231.0,-52.0,80.0,257.0,211.0,-86.0,-946.0,-181.0
-20.0,-224.0,-51.0,80.0,258.0,216.0,-92.0,-933.0,-181.0
-28.0,-223.0,-52.0,73.0,256.0,220.0,-108.0,-924.0,-185.0
-29.0,-215.0,-52.0,64.0,261.0,220.0,-118.0,-903.0,-180.0
-33.0,-207.0,-54.0,59.0,272.0,215.0,-122.0,-871.0,-178.0
-28.0,-205.0,-49.0,48.0,283.0,210.0,-112.0,-863.0,-174.0
-24.0,-206.0,-48.0,31.0,292.0,207.0,-119.0,-842.0,-174.0
-24.0,-203.0,-45.0,9.0,305.0,205.0,-102.0,-844.0,-152.0
-22.0,-199.0,-44.0,-9.0,321.0,204.0,-86.0,-838.0,-150.0
-17.0,-204.0,-44.0,-24.0,339.0,202.0,-77.0,-838.0,-143.0
-18.0,-197.0,-47.0,-37.0,357.0,198.0,-75.0,-839.0,-147.0
-20.0,-203.0,-45.0,-55.0,371.0,199.0,-82.0,-842.0,-135.0
-7.0,-207.0,-42.0,-70.0,372.0,205.0,-44.0,-853.0,-133.0
-4.0,-203.0,-44.0,-82.0,389.0,202.0,-22.0,-853.0,-154.0
-3.0,-212.0,-43.0,-103.0,419.0,201.0,-26.0,-857.0,-145.0
-6.0,-208.0,-49.0,-113.0,444.0,194.0,-32.0,-872.0,-159.0
-7.0,-211.0,-45.0,-120.0,464.0,188.0,-33.0,-881.0,-154.0
-1.0,-216.0,-45.0,-129.0,483.0,183.0,-27.0,-872.0,-145.0
-10.0,-218.0,-46.0,-124.0,504.0,167.0,-45.0,-886.0,-146.0
-11.0,-221.0,-41.0,-115.0,519.0,156.0,-56.0,-896.0,-131.0
-14.0,-220.0,-42.0,-106.0,526.0,142.0,-72.0,-903.0,-133.0
-15.0,-219.0,-39.0,-100.0,534.0,130.0,-87.0,-907.0,-124.0
-18.0,-225.0,-49.0,-93.0,537.0,120.0,-83.0,-917.0,-118.0
-23.0,-226.0,-37.0,-85.0,536.0,105.0,-99.0,-918.0,-111.0
-30.0,-226.0,-39.0,-73.0,531.0,87.0,-110.0,-932.0,-106.0
-22.0,-233.0,-30.0,-62.0,525.0,72.0,-109.0,-961.0,-98.0
-26.0,-233.0,-32.0,-46.0,519.0,53.0,-107.0,-959.0,-94.0
-24.0,-229.0,-29.0,-29.0,513.0,35.0,-100.0,-954.0,-97.0
-26.0,-225.0,-33.0,-9.0,507.0,18.0,-102.0,-932.0,-96.0
-22.0,-225.0,-29.0,10.0,500.0,3.0,-106.0,-924.0,-91.0
-22.0,-223.0,-26.0,30.0,491.0,-11.0,-85.0,-919.0,-86.0
-23.0,-220.0,-24.0,50.0,482.0,-27.0,-87.0,-908.0,-71.0
-19.0,-224.0,-23.0,66.0,470.0,-43.0,-86.0,-917.0,-58.0
-18.0,-223.0,-17.0,83.0,459.0,-64.0,-87.0,-926.0,-50.0
-25.0,-226.0,-16.0,98.0,451.0,-79.0,-99.0,-930.0,-28.0
-23.0,-227.0,-12.0,115.0,441.0,-94.0,-98.0,-941.0,-24.0
-24.0,-229.0,-6.0,128.0,436.0,-106.0,-102.0,-948.0,-17.0
-23.0,-234.0,-8.0,142.0,438.0,-123.0,-110.0,-959.0,5.0
-26.0,-236.0,-2.0,154.0,441.0,-138.0,-114.0,-978.0,4.0
-24.0,-241.0,-2.0,168.0,447.0,-153.0,-109.0,-985.0,19.0
-24.0,-240.0,1.0,185.0,451.0,-168.0,-102.0,-991.0,24.0
-22.0,-239.0,-2.0,201.0,458.0,-182.0,-90.0,-990.0,31.0
-15.0,-240.0,1.0,213.0,467.0,-195.0,-77.0,-981.0,39.0
-11.0,-240.0,6.0,221.0,476.0,-204.0,-54.0,-985.0,45.0
-7.0,-240.0,11.0,227.0,491.0,-211.0,-35.0,-981.0,58.0
-4.0,-240.0,14.0,230.0,511.0,-213.0,-25.0,-979.0,66.0
0.0,-237.0,14.0,232.0,531.0,-213.0,-17.0,-973.0,78.0
1.0,-233.0,14.0,233.0,553.0,-208.0,-11.0,-957.0,86.0
1.0,-232.0,14.0,231.0,570.0,-200.0,-5.0,-960.0,80.0
1.0,-230.0,12.0,220.0,583.0,-190.0,-14.0,-950.0,73.0
-3.0,-230.0,7.0,197.0,590.0,-176.0,-13.0,-958.0,57.0
-1.0,-233.0,7.0,166.0,588.0,-161.0,-25.0,-962.0,44.0
-12.0,-238.0,-2.0,127.0,584.0,-142.0,-48.0,-986.0,24.0
-13.0,-250.0,-2.0,87.0,582.0,-119.0,-64.0,-1029.0,11.0
-14.0,-255.0,-4.0,48.0,585.0,-97.0,-81.0,-1078.0,-4.0
-23.0,-268.0,-12.0,13.0,593.0,-76.0,-91.0,-1117.0,-19.0
-25.0,-278.0,-13.0,-14.0,601.0,-61.0,-98.0,-1145.0,-31.0
-23.0,-287.0,-17.0,-35.0,607.0,-46.0,-99.0,-1180.0,-40.0
-25.0,-296.0,-18.0,-49.0,607.0,-36.0,-117.0,-1209.0,-52.0
-25.0,-304.0,-17.0,-53.0,606.0,-25.0,-114.0,-1237.0,-43.0
-28.0,-309.0,-19.0,-46.0,600.0,-17.0,-132.0,-1259.0,-34.0
-33.0,-313.0,-16.0,-30.0,593.0,-11.0,-122.0,-1283.0,-27.0
-32.0,-314.0,-13.0,-9.0,580.0,-4.0,-136.0,-1285.0,-24.0
-37.0,-316.0,-7.0,12.0,563.0,0.0,-148.0,-1288.0,-9.0
-38.0,-311.0,5.0,36.0,547.0,8.0,-161.0,-1288.0,3.0
-52.0,-325.0,-2.0,65.0,528.0,16.0,-181.0,-1282.0,18.0
-43.0,-309.0,5.0,93.0,514.0,24.0,-185.0,-1253.0,39.0
-44.0,-304.0,11.0,118.0,503.0,29.0,-192.0,-1235.0,52.0
-48.0,-302.0,14.0,138.0,496.0,36.0,-202.0,-1229.0,78.0
-46.0,-295.0,17.0,148.0,492.0,42.0,-188.0,-1212.0,108.0
-44.0,-293.0,25.0,155.0,494.0,49.0,-188.0,-1196.0,137.0
-37.0,-290.0,32.0,159.0,504.0,52.0,-173.0,-1181.0,154.0
-32.0,-288.0,37.0,160.0,526.0,54.0,-155.0,-1179.0,173.0
-27.0,-288.0,38.0,156.0,561.0,59.0,-124.0,-1188.0,175.0
-24.0,-296.0,33.0,140.0,608.0,68.0,-106.0,-1204.0,168.0
-15.0,-301.0,27.0,109.0,654.0,77.0,-84.0,-1241.0,137.0
-10.0,-321.0,10.0,59.0,688.0,91.0,-59.0,-1298.0,79.0
-13.0,-331.0,-2.0,-6.0,705.0,107.0,-46.0,-1367.0,3.0
-14.0,-351.0,-22.0,-81.0,708.0,123.0,-54.0,-1430.0,-51.0
-22.0,-363.0,-30.0,-141.0,690.0,141.0,-99.0,-1494.0,-89.0
-32.0,-375.0,-41.0,-167.0,646.0,156.0,-136.0,-1524.0,-134.0
-43.0,-373.0,-49.0,-161.0,578.0,165.0,-174.0,-1514.0,-151.0
-49.0,-361.0,-49.0,-106.0,495.0,157.0,-187.0,-1457.0,-166.0
-55.0,-334.0,-49.0,-12.0,409.0,134.0,-200.0,-1371.0,-176.0
-55.0,-314.0,-58.0,101.0,334.0,99.0,-205.0,-1246.0,-197.0
-57.0,-276.0,-64.0,200.0,270.0,61.0,-228.0,-1125.0,-235.0
-58.0,-239.0,-78.0,257.0,215.0,37.0,-224.0,-996.0,-306.0
-50.0,-213.0,-102.0,259.0,172.0,29.0,-199.0,-899.0,-366.0
-41.0,-196.0,-108.0,212.0,145.0,30.0,-165.0,-822.0,-428.0
-31.0,-192.0,-120.0,133.0,143.0,45.0,-127.0,-798.0,-460.0
-15.0,-193.0,-124.0,42.0,167.0,66.0,-69.0,-806.0,-473.0
2.0,-202.0,-121.0,-41.0,213.0,93.0,-8.0,-841.0,-464.0
19.0,-221.0,-114.0,-99.0,270.0,119.0,65.0,-894.0,-437.0
39.0,-235.0,-102.0,-131.0,331.0,145.0,131.0,-961.0,-396.0
54.0,-246.0,-99.0,-134.0,391.0,162.0,191.0,-1001.0,-369.0
63.0,-256.0,-95.0,-113.0,439.0,171.0,249.0,-1028.0,-341.0
76.0,-253.0,-87.0,-69.0,469.0,172.0,292.0,-1041.0,-329.0
81.0,-253.0,-85.0,-19.0,474.0,167.0,319.0,-1026.0,-323.0
81.0,-248.0,-88.0,30.0,457.0,154.0,327.0,-1010.0,-324.0
79.0,-248.0,-85.0,65.0,434.0,135.0,301.0,-1006.0,-317.0
67.0,-248.0,-78.0,94.0,416.0,118.0,272.0,-1021.0,-289.0
58.0,-254.0,-70.0,115.0,408.0,95.0,224.0,-1023.0,-268.0
41.0,-253.0,-71.0,135.0,403.0,74.0,164.0,-1029.0,-233.0
28.0,-256.0,-60.0,153.0,397.0,52.0,107.0,-1034.0,-215.0
12.0,-255.0,-59.0,163.0,387.0,37.0,47.0,-1035.0,-203.0
1.0,-252.0,-60.0,165.0,374.0,27.0,-2.0,-1030.0,-203.0
-13.0,-248.0,-60.0,155.0,358.0,23.0,-51.0,-1033.0,-217.0
-23.0,-250.0,-60.0,136.0,341.0,19.0,-82.0,-1030.0,-221.0
-21.0,-249.0,-69.0,114.0,325.0,14.0,-96.0,-1032.0,-229.0
-21.0,-252.0,-64.0,95.0,309.0,7.0,-83.0,-1030.0,-222.0
-19.0,-255.0,-59.0,88.0,291.0,-8.0,-62.0,-1043.0,-214.0
-8.0,-253.0,-57.0,95.0,264.0,-27.0,-39.0,-1042.0,-199.0
-1.0,-254.0,-55.0,111.0,229.0,-51.0,-3.0,-1034.0,-192.0
2.0,-255.0,-51.0,132.0,190.0,-78.0,10.0,-1023.0,-186.0
6.0,-245.0,-55.0,150.0,153.0,-101.0,26.0,-1008.0,-190.0
8.0,-242.0,-56.0,160.0,120.0,-121.0,32.0,-989.0,-204.0
9.0,-230.0,-63.0,158.0,99.0,-136.0,39.0,-964.0,-214.0
14.0,-225.0,-64.0,142.0,90.0,-146.0,56.0,-941.0,-212.0
17.0,-223.0,-60.0,118.0,94.0,-147.0,65.0,-924.0,-217.0
18.0,-220.0,-60.0,92.0,106.0,-142.0,70.0,-917.0,-204.0
24.0,-221.0,-55.0,72.0,125.0,-135.0,86.0,-918.0,-193.0
23.0,-220.0,-51.0,63.0,145.0,-127.0,92.0,-916.0,-185.0
27.0,-223.0,-53.0,61.0,161.0,-121.0,94.0,-918.0,-174.0
23.0,-219.0,-48.0,66.0,174.0,-111.0,96.0,-903.0,-175.0
27.0,-220.0,-52.0,72.0,181.0,-103.0,100.0,-896.0,-165.0
28.0,-214.0,-49.0,80.0,184.0,-95.0,99.0,-895.0,-160.0
24.0,-213.0,-45.0,87.0,183.0,-87.0,93.0,-885.0,-155.0
19.0,-210.0,-44.0,88.0,179.0,-85.0,79.0,-870.0,-153.0
21.0,-209.0,-45.0,86.0,173.0,-86.0,86.0,-861.0,-157.0
19.0,-207.0,-44.0,76.0,164.0,-89.0,76.0,-854.0,-141.0
19.0,-211.0,-49.0,65.0,153.0,-97.0,83.0,-855.0,-162.0
21.0,-205.0,-49.0,47.0,145.0,-103.0,79.0,-855.0,-161.0
19.0,-204.0,-48.0,30.0,131.0,-108.0,78.0,-854.0,-156.0
22.0,-207.0,-49.0,12.0,113.0,-114.0,73.0,-858.0,-150.0
24.0,-208.0,-43.0,-3.0,96.0,-116.0,81.0,-856.0,-150.0
18.0,-208.0,-41.0,-13.0,79.0,-116.0,51.0,-850.0,-145.0
14.0,-206.0,-40.0,-19.0,61.0,-108.0,54.0,-852.0,-129.0
14.0,-206.0,-48.0,-24.0,37.0,-99.0,52.0,-859.0,-131.0
13.0,-210.0,-39.0,-27.0,12.0,-84.0,49.0,-867.0,-129.0
16.0,-211.0,-40.0,-29.0,-13.0,-68.0,63.0,-873.0,-128.0
20.0,-212.0,-46.0,-31.0,-33.0,-56.0,75.0,-878.0,-132.0
20.0,-216.0,-41.0,-31.0,-49.0,-44.0,73.0,-885.0,-122.0
21.0,-215.0,-40.0,-29.0,-67.0,-30.0,90.0,-894.0,-127.0
24.0,-217.0,-33.0,-25.0,-79.0,-17.0,82.0,-897.0,-118.0
30.0,-222.0,-39.0,-19.0,-90.0,-4.0,101.0,-913.0,-122.0
24.0,-220.0,-37.0,-10.0,-96.0,0.0,94.0,-899.0,-112.0
23.0,-216.0,-37.0,0.0,-102.0,5.0,96.0,-902.0,-118.0
22.0,-222.0,-39.0,7.0,-107.0,12.0,86.0,-917.0,-114.0
26.0,-219.0,-36.0,9.0,-109.0,18.0,90.0,-911.0,-124.0
25.0,-220.0,-36.0,7.0,-113.0,27.0,89.0,-922.0,-117.0
22.0,-222.0,-32.0,7.0,-116.0,32.0,86.0,-925.0,-115.0
21.0,-223.0,-33.0,10.0,-120.0,36.0,75.0,-934.0,-105.0
20.0,-224.0,-32.0,11.0,-125.0,46.0,71.0,-934.0,-99.0
16.0,-226.0,-30.0,12.0,-132.0,54.0,57.0,-931.0,-101.0
11.0,-223.0,-32.0,14.0,-139.0,59.0,52.0,-935.0,-91.0
14.0,-225.0,-27.0,15.0,-150.0,65.0,51.0,-943.0,-87.0
14.0,-232.0,-28.0,15.0,-158.0,72.0,46.0,-946.0,-84.0
14.0,-232.0,-25.0,18.0,-166.0,75.0,46.0,-955.0,-77.0
11.0,-234.0,-24.0,22.0,-167.0,85.0,45.0,-974.0,-79.0
11.0,-236.0,-23.0,23.0,-170.0,92.0,41.0,-972.0,-66.0
17.0,-244.0,-18.0,30.0,-172.0,98.0,39.0,-989.0,-49.0
11.0,-223.0,-19.0,41.0,-175.0,105.0,38.0,-994.0,-37.0
12.0,-247.0,-8.0,57.0,-174.0,110.0,32.0,-1005.0,-18.0
8.0,-243.0,-9.0,75.0,-176.0,114.0,34.0,-1004.0,-11.0
7.0,-245.0,-4.0,92.0,-183.0,113.0,30.0,-1000.0,-4.0
8.0,-243.0,-1.0,108.0,-189.0,115.0,22.0,-995.0,25.0
4.0,-244.0,0.0,121.0,-200.0,114.0,20.0,-991.0,26.0
8.0,-241.0,1.0,131.0,-213.0,115.0,25.0,-983.0,32.0
5.0,-240.0,1.0,135.0,-223.0,111.0,10.0,-980.0,32.0
7.0,-236.0,2.0,134.0,-232.0,110.0,17.0,-986.0,31.0
5.0,-240.0,5.0,127.0,-238.0,108.0,19.0,-996.0,32.0
1.0,-242.0,-3.0,115.0,-240.0,100.0,11.0,-1001.0,20.0
4.0,-242.0,-4.0,97.0,-242.0,97.0,14.0,-1009.0,0.0
-2.0,-241.0,-11.0,76.0,-241.0,91.0,25.0,-1014.0,-4.0
9.0,-246.0,-10.0,53.0,-237.0,84.0,37.0,-1017.0,-10.0
5.0,-248.0,-7.0,33.0,-235.0,76.0,28.0,-1022.0,-9.0
8.0,-251.0,-9.0,21.0,-230.0,70.0,25.0,-1032.0,-10.0
9.0,-256.0,-12.0,14.0,-227.0,65.0,29.0,-1035.0,-13.0
12.0,-256.0,-13.0,14.0,-226.0,58.0,32.0,-1037.0,-31.0
13.0,-258.0,-14.0,13.0,-227.0,53.0,43.0,-1048.0,-41.0
9.0,-258.0,-14.0,7.0,-226.0,44.0,38.0,-1052.0,-43.0
13.0,-259.0,-19.0,2.0,-236.0,37.0,49.0,-1082.0,-52.0
12.0,-264.0,-19.0,-3.0,-253.0,30.0,55.0,-1105.0,-45.0
11.0,-271.0,-18.0,-4.0,-274.0,21.0,54.0,-1123.0,-38.0
14.0,-278.0,-13.0,-2.0,-296.0,18.0,49.0,-1141.0,-32.0
14.0,-284.0,-11.0,4.0,-309.0,18.0,44.0,-1168.0,-20.0
15.0,-290.0,-9.0,12.0,-315.0,16.0,40.0,-1187.0,-15.0
10.0,-292.0,-5.0,20.0,-313.0,15.0,40.0,-1201.0,-2.0
10.0,-296.0,0.0,27.0,-305.0,14.0,35.0,-1207.0,7.0
12.0,-303.0,0.0,35.0,-295.0,13.0,30.0,-1229.0,19.0
5.0,-302.0,4.0,48.0,-282.0,10.0,15.0,-1235.0,34.0
2.0,-303.0,5.0,64.0,-276.0,8.0,4.0,-1226.0,53.0
3.0,-303.0,11.0,86.0,-275.0,5.0,-1.0,-1209.0,80.0
0.0,-296.0,19.0,110.0,-283.0,3.0,-11.0,-1206.0,104.0
-6.0,-289.0,27.0,136.0,-299.0,1.0,-27.0,-1188.0,139.0
-7.0,-286.0,37.0,162.0,-320.0,1.0,-43.0,-1169.0,172.0
-10.0,-277.0,41.0,191.0,-349.0,-3.0,-53.0,-1145.0,198.0
-16.0,-271.0,47.0,212.0,-382.0,-9.0,-74.0,-1129.0,222.0
-16.0,-274.0,51.0,225.0,-417.0,-21.0,-86.0,-1127.0,235.0
-19.0,-277.0,48.0,221.0,-454.0,-37.0,-88.0,-1140.0,231.0
-15.0,-283.0,31.0,194.0,-488.0,-54.0,-88.0,-1173.0,182.0
-22.0,-292.0,11.0,139.0,-514.0,-75.0,-101.0,-1212.0,74.0
-25.0,-313.0,3.0,56.0,-528.0,-98.0,-105.0,-1294.0,-26.0
-35.0,-323.0,-48.0,-53.0,-529.0,-120.0,-82.0,-1363.0,-126.0
-3.0,-334.0,-63.0,-169.0,-514.0,-140.0,-46.0,-1407.0,-233.0
10.0,-347.0,-89.0,-268.0,-478.0,-155.0,8.0,-1429.0,-289.0
19.0,-356.0,-93.0,-317.0,-417.0,-171.0,66.0,-1434.0,-312.0
18.0,-344.0,-92.0,-299.0,-333.0,-186.0,124.0,-1410.0,-320.0
64.0,-348.0,-83.0,-224.0,-237.0,-195.0,186.0,-1337.0,-344.0
61.0,-294.0,-93.0,-122.0,-140.0,-198.0,254.0,-1246.0,-356.0
96.0,-275.0,-109.0,-28.0,-51.0,-195.0,303.0,-1153.0,-388.0
100.0,-257.0,-105.0,36.0,21.0,-195.0,344.0,-1057.0,-419.0
95.0,-232.0,-106.0,62.0,70.0,-203.0,375.0,-976.0,-446.0
90.0,-224.0,-110.0,53.0,92.0,-220.0,360.0,-931.0,-445.0
71.0,-231.0,-108.0,22.0,79.0,-237.0,341.0,-923.0,-430.0
61.0,-220.0,-102.0,-15.0,39.0,-257.0,279.0,-923.0,-388.0
41.0,-229.0,-80.0,-45.0,-25.0,-281.0,208.0,-936.0,-338.0
14.0,-240.0,-80.0,-53.0,-96.0,-290.0,103.0,-962.0,-297.0
14.0,-240.0,-46.0,-41.0,-152.0,-287.0,9.0,-991.0,-266.0
-28.0,-250.0,-66.0,-16.0,-187.0,-274.0,-86.0,-1030.0,-248.0
-40.0,-259.0,-75.0,5.0,-213.0,-250.0,-154.0,-1041.0,-261.0
-57.0,-262.0,-77.0,15.0,-232.0,-223.0,-202.0,-1058.0,-282.0
-52.0,-260.0,-89.0,11.0,-258.0,-192.0,-230.0,-1064.0,-314.0
-65.0,-265.0,-87.0,-3.0,-290.0,-153.0,-240.0,-1078.0,-341.0
-52.0,-250.0,-96.0,-32.0,-324.0,-115.0,-238.0,-1075.0,-369.0
-54.0,-248.0,-110.0,-58.0,-352.0,-79.0,-212.0,-1071.0,-383.0
-43.0,-254.0,-93.0,-72.0,-368.0,-49.0,-187.0,-1065.0,-378.0
-19.0,-250.0,-97.0,-73.0,-372.0,-24.0,-126.0,-1055.0,-374.0
-30.0,-254.0,-100.0,-66.0,-357.0,-11.0,-82.0,-1029.0,-357.0
-2.0,-243.0,-99.0,-54.0,-329.0,0.0,-37.0,-1003.0,-339.0
1.0,-243.0,-88.0,-36.0,-295.0,6.0,15.0,-993.0,-331.0
11.0,-242.0,-91.0,-23.0,-249.0,6.0,44.0,-972.0,-310.0
23.0,-234.0,-77.0,-11.0,-197.0,5.0,91.0,-966.0,-284.0
26.0,-228.0,-73.0,-4.0,-141.0,8.0,109.0,-957.0,-272.0
33.0,-232.0,-105.0,-5.0,-76.0,12.0,127.0,-941.0,-267.0
42.0,-226.0,-70.0,-17.0,-6.0,17.0,142.0,-932.0,-248.0
38.0,-224.0,-71.0,-31.0,61.0,22.0,143.0,-929.0,-245.0
34.0,-224.0,-63.0,-46.0,120.0,25.0,131.0,-924.0,-222.0
33.0,-224.0,-62.0,-61.0,167.0,35.0,122.0,-929.0,-223.0
27.0,-225.0,-61.0,-78.0,200.0,48.0,101.0,-934.0,-211.0
25.0,-229.0,-61.0,-96.0,216.0,68.0,93.0,-945.0,-207.0
16.0,-226.0,-61.0,-104.0,227.0,75.0,71.0,-937.0,-210.0
12.0,-225.0,-55.0,-115.0,227.0,89.0,41.0,-929.0,-200.0
2.0,-217.0,-60.0,-125.0,219.0,104.0,13.0,-912.0,-205.0
-3.0,-216.0,-61.0,-134.0,202.0,122.0,-18.0,-892.0,-202.0
-4.0,-216.0,-58.0,-152.0,180.0,144.0,-21.0,-890.0,-209.0
-10.0,-213.0,-56.0,-166.0,160.0,154.0,-41.0,-869.0,-200.0
-17.0,-210.0,-58.0,-175.0,148.0,158.0,-66.0,-856.0,-201.0
-22.0,-204.0,-64.0,-183.0,143.0,163.0,-84.0,-853.0,-191.0
-18.0,-207.0,-55.0,-191.0,141.0,170.0,-85.0,-855.0,-191.0
-21.0,-205.0,-57.0,-195.0,140.0,174.0,-92.0,-848.0,-202.0
-21.0,-205.0,-55.0,-197.0,147.0,177.0,-93.0,-837.0,-193.0
-23.0,-206.0,-55.0,-195.0,158.0,178.0,-95.0,-839.0,-174.0
-19.0,-201.0,-60.0,-185.0,169.0,175.0,-82.0,-834.0,-203.0
-15.0,-206.0,-58.0,-183.0,184.0,171.0,-68.0,-832.0,-201.0
-13.0,-203.0,-55.0,-188.0,201.0,166.0,-61.0,-836.0,-207.0
-12.0,-203.0,-61.0,-192.0,221.0,164.0,-57.0,-835.0,-206.0
-7.0,-204.0,-62.0,-195.0,240.0,163.0,-45.0,-836.0,-210.0
-6.0,-202.0,-61.0,-200.0,259.0,159.0,-28.0,-838.0,-209.0
-4.0,-202.0,-58.0,-204.0,284.0,149.0,-24.0,-847.0,-202.0
-3.0,-206.0,-55.0,-207.0,310.0,143.0,-33.0,-852.0,-200.0
-1.0,-210.0,-58.0,-207.0,335.0,136.0,-33.0,-858.0,-204.0
-10.0,-202.0,-58.0,-211.0,368.0,128.0,-42.0,-844.0,-198.0
-11.0,-203.0,-54.0,-210.0,402.0,120.0,-49.0,-842.0,-196.0
-16.0,-197.0,-54.0,-207.0,433.0,114.0,-57.0,-826.0,-197.0
-13.0,-200.0,-50.0,-206.0,462.0,112.0,-61.0,-823.0,-181.0
-16.0,-199.0,-53.0,-199.0,481.0,107.0,-76.0,-829.0,-190.0
-17.0,-203.0,-55.0,-193.0,494.0,99.0,-81.0,-828.0,-197.0
-22.0,-202.0,-57.0,-196.0,503.0,93.0,-88.0,-832.0,-193.0
-21.0,-205.0,-51.0,-199.0,503.0,87.0,-86.0,-856.0,-198.0
-19.0,-212.0,-51.0,-203.0,494.0,84.0,-78.0,-874.0,-185.0
-13.0,-218.0,-50.0,-204.0,482.0,76.0,-76.0,-908.0,-181.0
-14.0,-226.0,-47.0,-203.0,467.0,69.0,-68.0,-931.0,-165.0
-12.0,-231.0,-46.0,-195.0,452.0,62.0,-56.0,-949.0,-169.0
-12.0,-233.0,-47.0,-188.0,438.0,51.0,-46.0,-960.0,-163.0
-10.0,-234.0,-46.0,-180.0,430.0,42.0,-38.0,-968.0,-160.0
-9.0,-242.0,-46.0,-166.0,424.0,32.0,-37.0,-980.0,-147.0
-9.0,-236.0,-43.0,-150.0,416.0,23.0,-39.0,-972.0,-142.0
-11.0,-237.0,-46.0,-133.0,412.0,13.0,-45.0,-968.0,-145.0
-12.0,-234.0,-44.0,-119.0,407.0,3.0,-47.0,-960.0,-134.0
-13.0,-231.0,-40.0,-105.0,405.0,-7.0,-51.0,-958.0,-129.0
-16.0,-233.0,-42.0,-90.0,405.0,-14.0,-68.0,-960.0,-124.0
-15.0,-234.0,-42.0,-76.0,407.0,-19.0,-71.0,-962.0,-123.0
-17.0,-233.0,-35.0,-67.0,411.0,-25.0,-74.0,-960.0,-117.0
-15.0,-234.0,-39.0,-60.0,421.0,-30.0,-71.0,-964.0,-122.0
-13.0,-237.0,-41.0,-56.0,439.0,-34.0,-59.0,-972.0,-120.0
-8.0,-240.0,-35.0,-49.0,463.0,-40.0,-44.0,-993.0,-106.0
-4.0,-248.0,-31.0,-39.0,494.0,-49.0,-32.0,-1006.0,-86.0
-3.0,-248.0,-30.0,-26.0,519.0,-55.0,-22.0,-1014.0,-91.0
-2.0,-251.0,-30.0,-15.0,540.0,-64.0,-7.0,-1024.0,-90.0
0.0,-252.0,-33.0,-7.0,550.0,-72.0,0.0,-1032.0,-92.0
4.0,-250.0,-38.0,-4.0,552.0,-81.0,5.0,-1030.0,-111.0
1.0,-250.0,-31.0,-10.0,558.0,-90.0,0.0,-1026.0,-113.0
2.0,-248.0,-33.0,-17.0,572.0,-99.0,5.0,-1028.0,-95.0
2.0,-253.0,-30.0,-13.0,588.0,-109.0,6.0,-1026.0,-85.0
0.0,-252.0,-27.0,-5.0,602.0,-116.0,1.0,-1026.0,-84.0
2.0,-249.0,-28.0,10.0,614.0,-125.0,-5.0,-1023.0,-82.0
-3.0,-249.0,-31.0,20.0,623.0,-129.0,-18.0,-1025.0,-93.0
-3.0,-252.0,-36.0,22.0,630.0,-127.0,-24.0,-1037.0,-108.0
-7.0,-254.0,-40.0,16.0,629.0,-122.0,-38.0,-1044.0,-129.0
-9.0,-255.0,-42.0,5.0,632.0,-117.0,-51.0,-1057.0,-132.0
-16.0,-262.0,-42.0,-7.0,634.0,-110.0,-68.0,-1083.0,-137.0
-18.0,-269.0,-40.0,-15.0,633.0,-106.0,-82.0,-1109.0,-131.0
-26.0,-275.0,-40.0,-16.0,626.0,-103.0,-100.0,-1129.0,-126.0
-30.0,-277.0,-39.0,-11.0,612.0,-100.0,-109.0,-1147.0,-137.0
-32.0,-286.0,-42.0,-4.0,591.0,-98.0,-122.0,-1172.0,-130.0
-36.0,-289.0,-44.0,4.0,565.0,-93.0,-146.0,-1179.0,-140.0
-40.0,-289.0,-43.0,11.0,541.0,-90.0,-154.0,-1183.0,-145.0
-40.0,-291.0,-44.0,22.0,518.0,-86.0,-160.0,-1192.0,-142.0
-42.0,-289.0,-42.0,36.0,497.0,-77.0,-177.0,-1191.0,-137.0
-36.0,-294.0,-40.0,54.0,477.0,-73.0,-166.0,-1196.0,-128.0
-38.0,-296.0,-39.0,73.0,460.0,-66.0,-157.0,-1196.0,-111.0
-33.0,-291.0,-31.0,93.0,446.0,-60.0,-138.0,-1202.0,-93.0
-28.0,-292.0,-22.0,117.0,434.0,-53.0,-118.0,-1191.0,-73.0
-22.0,-290.0,-17.0,145.0,427.0,-48.0,-92.0,-1178.0,-44.0
-9.0,-287.0,-12.0,176.0,424.0,-44.0,-53.0,-1173.0,-20.0
-7.0,-283.0,-4.0,209.0,423.0,-42.0,-26.0,-1160.0,6.0
3.0,-280.0,1.0,247.0,428.0,-35.0,-2.0,-1152.0,32.0
5.0,-279.0,8.0,276.0,439.0,-31.0,24.0,-1142.0,47.0
13.0,-279.0,6.0,300.0,461.0,-23.0,45.0,-1137.0,57.0
23.0,-281.0,6.0,321.0,497.0,-15.0,79.0,-1154.0,59.0
31.0,-291.0,2.0,331.0,550.0,-5.0,97.0,-1178.0,50.0
29.0,-297.0,1.0,329.0,610.0,8.0,96.0,-1217.0,29.0
22.0,-310.0,-8.0,310.0,657.0,27.0,78.0,-1266.0,-14.0
15.0,-320.0,-27.0,276.0,681.0,47.0,49.0,-1316.0,-77.0
0.0,-328.0,-44.0,232.0,681.0,70.0,3.0,-1353.0,-156.0
-14.0,-339.0,-62.0,174.0,653.0,103.0,-46.0,-1386.0,-212.0
-32.0,-342.0,-73.0,121.0,595.0,140.0,-113.0,-1399.0,-256.0
-46.0,-339.0,-76.0,89.0,516.0,178.0,-168.0,-1383.0,-276.0
-52.0,-332.0,-78.0,93.0,421.0,207.0,-192.0,-1357.0,-289.0
-56.0,-316.0,-80.0,140.0,332.0,225.0,-209.0,-1285.0,-304.0
-55.0,-292.0,-86.0,206.0,250.0,230.0,-220.0,-1190.0,-331.0
-56.0,-265.0,-96.0,276.0,179.0,228.0,-215.0,-1089.0,-367.0
-50.0,-243.0,-103.0,331.0,124.0,222.0,-193.0,-978.0,-406.0
-41.0,-215.0,-113.0,354.0,89.0,219.0,-155.0,-888.0,-446.0
-32.0,-196.0,-124.0,344.0,76.0,218.0,-121.0,-817.0,-481.0
-17.0,-187.0,-125.0,310.0,80.0,220.0,-82.0,-775.0,-489.0
0.0,-182.0,-121.0,271.0,100.0,230.0,-27.0,-754.0,-475.0
9.0,-183.0,-117.0,238.0,129.0,246.0,36.0,-755.0,-439.0
30.0,-194.0,-103.0,217.0,163.0,263.0,105.0,-801.0,-399.0
50.0,-205.0,-98.0,207.0,196.0,278.0,172.0,-843.0,-364.0
62.0,-218.0,-89.0,205.0,239.0,289.0,227.0,-891.0,-338.0
74.0,-239.0,-93.0,212.0,293.0,291.0,277.0,-959.0,-329.0
79.0,-251.0,-93.0,216.0,359.0,286.0,295.0,-1015.0,-338.0
80.0,-264.0,-97.0,212.0,435.0,269.0,295.0,-1060.0,-360.0
71.0,-267.0,-101.0,204.0,508.0,238.0,285.0,-1089.0,-378.0
64.0,-270.0,-100.0,194.0,564.0,200.0,266.0,-1101.0,-372.0
56.0,-269.0,-97.0,188.0,596.0,163.0,206.0,-1109.0,-353.0
46.0,-266.0,-90.0,187.0,603.0,130.0,169.0,-1106.0,-345.0
32.0,-267.0,-88.0,193.0,595.0,104.0,120.0,-1094.0,-328.0
22.0,-264.0,-86.0,206.0,578.0,83.0,85.0,-1072.0,-315.0
6.0,-254.0,-79.0,223.0,560.0,65.0,41.0,-1042.0,-305.0
0.0,-254.0,-80.0,235.0,536.0,56.0,2.0,-1029.0,-275.0
-11.0,-252.0,-74.0,250.0,504.0,48.0,-29.0,-1032.0,-264.0
-16.0,-252.0,-70.0,264.0,460.0,45.0,-63.0,-1023.0,-244.0
-23.0,-251.0,-63.0,282.0,399.0,40.0,-88.0,-1021.0,-222.0
-22.0,-248.0,-61.0,302.0,330.0,35.0,-88.0,-1017.0,-216.0
-26.0,-252.0,-54.0,319.0,257.0,25.0,-93.0,-1024.0,-202.0
-22.0,-257.0,-54.0,334.0,184.0,10.0,-87.0,-1031.0,-192.0
-24.0,-257.0,-57.0,346.0,117.0,-6.0,-94.0,-1042.0,-191.0
-20.0,-257.0,-57.0,350.0,56.0,-20.0,-70.0,-1062.0,-192.0
-14.0,-258.0,-61.0,346.0,9.0,-32.0,-48.0,-1061.0,-202.0
-10.0,-257.0,-62.0,338.0,-23.0,-47.0,-36.0,-1057.0,-218.0
-1.0,-256.0,-63.0,319.0,-39.0,-53.0,-11.0,-1045.0,-230.0
2.0,-254.0,-68.0,304.0,-43.0,-59.0,3.0,-1030.0,-239.0
8.0,-247.0,-67.0,292.0,-37.0,-60.0,28.0,-1013.0,-249.0
23.0,-238.0,-65.0,290.0,-26.0,-62.0,52.0,-995.0,-243.0
13.0,-242.0,-69.0,289.0,-11.0,-61.0,76.0,-969.0,-246.0
27.0,-228.0,-66.0,292.0,4.0,-57.0,106.0,-947.0,-237.0
30.0,-219.0,-65.0,294.0,20.0,-53.0,127.0,-919.0,-234.0
39.0,-220.0,-66.0,295.0,31.0,-51.0,148.0,-892.0,-223.0
39.0,-210.0,-62.0,298.0,40.0,-58.0,154.0,-877.0,-227.0
41.0,-205.0,-65.0,295.0,50.0,-64.0,146.0,-851.0,-219.0
42.0,-197.0,-63.0,281.0,63.0,-59.0,157.0,-830.0,-219.0
45.0,-201.0,-60.0,259.0,73.0,-52.0,167.0,-825.0,-225.0
43.0,-197.0,-61.0,234.0,78.0,-53.0,153.0,-821.0,-211.0
41.0,-197.0,-56.0,205.0,80.0,-57.0,148.0,-812.0,-209.0
37.0,-194.0,-60.0,174.0,82.0,-60.0,139.0,-803.0,-193.0
37.0,-194.0,-54.0,147.0,78.0,-62.0,131.0,-809.0,-191.0
36.0,-194.0,-51.0,119.0,73.0,-63.0,129.0,-801.0,-178.0
32.0,-196.0,-47.0,93.0,67.0,-63.0,126.0,-815.0,-156.0
27.0,-197.0,-43.0,71.0,56.0,-68.0,107.0,-830.0,-156.0
27.0,-200.0,-44.0,55.0,45.0,-70.0,98.0,-827.0,-150.0
25.0,-205.0,-48.0,41.0,33.0,-68.0,91.0,-837.0,-143.0
22.0,-210.0,-45.0,32.0,18.0,-68.0,78.0,-856.0,-138.0
17.0,-210.0,-43.0,24.0,4.0,-57.0,75.0,-879.0,-133.0
20.0,-209.0,-41.0,17.0,-10.0,-49.0,80.0,-862.0,-136.0
22.0,-213.0,-41.0,8.0,-27.0,-40.0,82.0,-878.0,-138.0
21.0,-220.0,-44.0,3.0,-45.0,-29.0,71.0,-892.0,-132.0
23.0,-216.0,-43.0,0.0,-66.0,-16.0,78.0,-894.0,-137.0
23.0,-211.0,-42.0,-4.0,-83.0,-7.0,85.0,-876.0,-135.0
22.0,-216.0,-37.0,-2.0,-99.0,-1.0,73.0,-887.0,-120.0
22.0,-218.0,-35.0,10.0,-113.0,6.0,77.0,-900.0,-122.0
18.0,-215.0,-38.0,19.0,-121.0,8.0,57.0,-887.0,-130.0
14.0,-218.0,-37.0,20.0,-127.0,14.0,56.0,-905.0,-118.0
12.0,-216.0,-33.0,22.0,-132.0,19.0,51.0,-892.0,-110.0
13.0,-218.0,-37.0,26.0,-136.0,30.0,34.0,-902.0,-110.0
11.0,-222.0,-32.0,29.0,-143.0,41.0,29.0,-925.0,-104.0
12.0,-226.0,-33.0,29.0,-152.0,48.0,36.0,-934.0,-103.0
6.0,-227.0,-32.0,27.0,-162.0,53.0,27.0,-930.0,-93.0
10.0,-228.0,-31.0,30.0,-171.0,56.0,30.0,-935.0,-86.0
10.0,-230.0,-22.0,36.0,-182.0,58.0,28.0,-948.0,-85.0
12.0,-234.0,-26.0,42.0,-190.0,59.0,35.0,-954.0,-78.0
10.0,-235.0,-23.0,47.0,-196.0,55.0,39.0,-960.0,-74.0
10.0,-233.0,-22.0,52.0,-200.0,55.0,38.0,-965.0,-64.0
12.0,-240.0,-21.0,56.0,-205.0,54.0,34.0,-978.0,-60.0
9.0,-244.0,-16.0,65.0,-215.0,57.0,29.0,-997.0,-40.0
4.0,-248.0,-12.0,78.0,-228.0,58.0,18.0,-1008.0,-28.0
1.0,-250.0,-9.0,98.0,-247.0,61.0,15.0,-1018.0,-21.0
0.0,-252.0,-6.0,120.0,-264.0,67.0,1.0,-1016.0,-11.0
-2.0,-246.0,-9.0,145.0,-285.0,71.0,-12.0,-1008.0,0.0
-4.0,-248.0,-4.0,170.0,-301.0,75.0,-21.0,-1020.0,-6.0
-2.0,-249.0,-3.0,189.0,-313.0,80.0,-26.0,-1011.0,19.0
-5.0,-247.0,3.0,204.0,-323.0,87.0,-37.0,-997.0,28.0
-5.0,-240.0,1.0,213.0,-332.0,91.0,-36.0,-986.0,37.0
-8.0,-238.0,7.0,214.0,-338.0,92.0,-44.0,-980.0,52.0
-9.0,-237.0,9.0,214.0,-349.0,92.0,-42.0,-967.0,53.0
-6.0,-233.0,11.0,216.0,-359.0,91.0,-36.0,-967.0,64.0
-7.0,-233.0,8.0,221.0,-368.0,87.0,-36.0,-959.0,62.0
-3.0,-231.0,6.0,230.0,-375.0,80.0,-25.0,-961.0,60.0
-1.0,-240.0,11.0,242.0,-384.0,69.0,-12.0,-973.0,63.0
2.0,-242.0,4.0,253.0,-391.0,52.0,4.0,-992.0,43.0
10.0,-254.0,1.0,253.0,-403.0,39.0,11.0,-1028.0,48.0
3.0,-258.0,0.0,246.0,-425.0,24.0,11.0,-1051.0,16.0
0.0,-260.0,-7.0,232.0,-451.0,14.0,17.0,-1084.0,4.0
1.0,-266.0,-7.0,216.0,-477.0,7.0,11.0,-1100.0,-9.0
8.0,-272.0,-12.0,203.0,-499.0,3.0,18.0,-1126.0,-14.0
8.0,-277.0,-12.0,195.0,-514.0,-1.0,19.0,-1140.0,-18.0
9.0,-280.0,-11.0,192.0,-526.0,-4.0,26.0,-1160.0,-25.0
4.0,-286.0,-12.0,192.0,-533.0,-8.0,20.0,-1167.0,-25.0
7.0,-284.0,-19.0,193.0,-542.0,-4.0,20.0,-1174.0,-27.0
9.0,-289.0,-15.0,196.0,-549.0,5.0,32.0,-1189.0,-29.0
16.0,-287.0,-10.0,197.0,-547.0,8.0,46.0,-1188.0,-25.0
13.0,-290.0,-13.0,196.0,-534.0,10.0,46.0,-1191.0,-17.0
11.0,-294.0,-6.0,197.0,-521.0,10.0,47.0,-1193.0,-8.0
13.0,-290.0,-4.0,201.0,-512.0,11.0,53.0,-1191.0,21.0
21.0,-292.0,4.0,211.0,-502.0,10.0,55.0,-1196.0,43.0
13.0,-290.0,12.0,225.0,-495.0,6.0,45.0,-1185.0,75.0
10.0,-286.0,18.0,240.0,-490.0,4.0,34.0,-1184.0,104.0
9.0,-284.0,27.0,257.0,-490.0,2.0,22.0,-1171.0,130.0
5.0,-282.0,33.0,275.0,-492.0,3.0,16.0,-1152.0,160.0
3.0,-274.0,37.0,287.0,-497.0,4.0,0.0,-1139.0,181.0
-3.0,-272.0,41.0,295.0,-509.0,6.0,-21.0,-1117.0,191.0
-7.0,-265.0,42.0,295.0,-526.0,5.0,-36.0,-1108.0,205.0
-12.0,-267.0,44.0,284.0,-554.0,0.0,-58.0,-1103.0,213.0
-15.0,-270.0,45.0,263.0,-590.0,-13.0,-62.0,-1116.0,194.0
-15.0,-282.0,33.0,236.0,-635.0,-37.0,-63.0,-1163.0,163.0
-15.0,-297.0,18.0,195.0,-674.0,-67.0,-60.0,-1214.0,110.0
-11.0,-316.0,0.0,134.0,-703.0,-107.0,-45.0,-1295.0,42.0
-7.0,-328.0,-22.0,43.0,-717.0,-151.0,-26.0,-1363.0,-82.0
2.0,-346.0,-51.0,-69.0,-716.0,-186.0,8.0,-1430.0,-185.0
18.0,-356.0,-74.0,-179.0,-691.0,-216.0,68.0,-1455.0,-268.0
33.0,-355.0,-86.0,-260.0,-627.0,-235.0,124.0,-1446.0,-323.0
56.0,-346.0,-90.0,-281.0,-522.0,-247.0,186.0,-1415.0,-332.0
72.0,-338.0,-90.0,-239.0,-383.0,-260.0,266.0,-1361.0,-346.0
88.0,-318.0,-93.0,-157.0,-229.0,-264.0,341.0,-1278.0,-349.0
106.0,-291.0,-99.0,-62.0,-73.0,-262.0,386.0,-1173.0,-365.0
110.0,-261.0,-107.0,22.0,68.0,-254.0,414.0,-1069.0,-387.0
112.0,-240.0,-104.0,84.0,181.0,-249.0,424.0,-992.0,-389.0
111.0,-231.0,-105.0,126.0,252.0,-251.0,434.0,-940.0,-391.0
97.0,-219.0,-99.0,137.0,280.0,-254.0,394.0,-907.0,-368.0
84.0,-220.0,-89.0,129.0,262.0,-251.0,337.0,-919.0,-333.0
61.0,-230.0,-81.0,114.0,214.0,-243.0,251.0,-936.0,-300.0
32.0,-236.0,-74.0,111.0,151.0,-231.0,146.0,-962.0,-278.0
14.0,-244.0,-68.0,118.0,92.0,-213.0,59.0,-993.0,-250.0
-10.0,-250.0,-65.0,128.0,43.0,-189.0,-26.0,-1029.0,-231.0
-31.0,-258.0,-65.0,134.0,2.0,-163.0,-112.0,-1054.0,-228.0
-49.0,-260.0,-69.0,132.0,-43.0,-133.0,-173.0,-1082.0,-250.0
-59.0,-264.0,-69.0,126.0,-91.0,-103.0,-210.0,-1081.0,-263.0
-61.0,-263.0,-77.0,120.0,-144.0,-72.0,-235.0,-1087.0,-283.0
-61.0,-260.0,-80.0,117.0,-196.0,-45.0,-240.0,-1078.0,-301.0
-60.0,-262.0,-81.0,112.0,-243.0,-20.0,-229.0,-1083.0,-305.0
-51.0,-257.0,-83.0,104.0,-275.0,4.0,-210.0,-1069.0,-301.0
-46.0,-256.0,-77.0,93.0,-297.0,25.0,-180.0,-1058.0,-287.0
-35.0,-251.0,-74.0,88.0,-306.0,43.0,-144.0,-1031.0,-268.0
-28.0,-250.0,-68.0,86.0,-302.0,56.0,-112.0,-1022.0,-248.0
-19.0,-248.0,-67.0,93.0,-286.0,66.0,-86.0,-1010.0,-245.0
-10.0,-244.0,-64.0,107.0,-260.0,71.0,-48.0,-1007.0,-228.0
0.0,-249.0,-62.0,123.0,-222.0,72.0,-11.0,-1010.0,-221.0
4.0,-244.0,-63.0,136.0,-166.0,73.0,9.0,-1000.0,-219.0
15.0,-241.0,-62.0,141.0,-96.0,77.0,47.0,-993.0,-214.0
27.0,-242.0,-55.0,139.0,-16.0,77.0,76.0,-983.0,-211.0
29.0,-238.0,-59.0,132.0,72.0,78.0,101.0,-972.0,-203.0
33.0,-238.0,-59.0,122.0,150.0,80.0,118.0,-974.0,-196.0
41.0,-234.0,-53.0,108.0,215.0,88.0,148.0,-957.0,-190.0
43.0,-225.0,-58.0,93.0,268.0,96.0,148.0,-944.0,-172.0
44.0,-228.0,-50.0,80.0,306.0,109.0,157.0,-928.0,-175.0
41.0,-222.0,-48.0,67.0,330.0,121.0,145.0,-919.0,-153.0
37.0,-216.0,-49.0,61.0,337.0,131.0,139.0,-887.0,-161.0
39.0,-212.0,-49.0,56.0,328.0,142.0,134.0,-877.0,-150.0
30.0,-213.0,-41.0,49.0,318.0,152.0,116.0,-882.0,-144.0
26.0,-216.0,-47.0,46.0,311.0,160.0,81.0,-886.0,-147.0
13.0,-215.0,-47.0,37.0,301.0,175.0,38.0,-889.0,-155.0
5.0,-217.0,-44.0,27.0,291.0,189.0,38.0,-896.0,-158.0
1.0,-220.0,-48.0,18.0,286.0,195.0,1.0,-907.0,-155.0
-2.0,-223.0,-46.0,9.0,285.0,199.0,-21.0,-924.0,-157.0
-13.0,-218.0,-53.0,-2.0,286.0,202.0,-55.0,-922.0,-171.0
-13.0,-225.0,-51.0,-15.0,290.0,207.0,-65.0,-921.0,-171.0
-17.0,-224.0,-48.0,-22.0,296.0,206.0,-84.0,-925.0,-163.0
-22.0,-224.0,-51.0,-27.0,299.0,206.0,-101.0,-925.0,-174.0
-24.0,-220.0,-51.0,-30.0,304.0,204.0,-92.0,-918.0,-174.0
-24.0,-218.0,-50.0,-33.0,313.0,202.0,-104.0,-892.0,-173.0
-27.0,-211.0,-55.0,-35.0,321.0,196.0,-107.0,-875.0,-182.0
-28.0,-209.0,-46.0,-41.0,329.0,196.0,-113.0,-859.0,-169.0
-24.0,-208.0,-45.0,-46.0,337.0,194.0,-106.0,-865.0,-158.0
-22.0,-212.0,-44.0,-49.0,347.0,187.0,-105.0,-863.0,-160.0
-21.0,-205.0,-48.0,-58.0,358.0,183.0,-96.0,-849.0,-161.0
-20.0,-203.0,-47.0,-70.0,368.0,182.0,-99.0,-837.0,-150.0
-12.0,-206.0,-47.0,-79.0,376.0,178.0,-81.0,-837.0,-147.0
-17.0,-201.0,-43.0,-87.0,384.0,171.0,-78.0,-833.0,-147.0
-9.0,-202.0,-43.0,-100.0,387.0,167.0,-56.0,-833.0,-148.0
-13.0,-202.0,-45.0,-111.0,390.0,155.0,-43.0,-836.0,-138.0
-10.0,-206.0,-43.0,-118.0,391.0,142.0,-61.0,-842.0,-139.0
-15.0,-204.0,-41.0,-127.0,390.0,133.0,-59.0,-847.0,-135.0
-7.0,-210.0,-41.0,-137.0,386.0,126.0,-49.0,-865.0,-129.0
-14.0,-211.0,-42.0,-144.0,386.0,116.0,-60.0,-872.0,-129.0
-15.0,-212.0,-38.0,-145.0,387.0,106.0,-66.0,-891.0,-121.0
-18.0,-221.0,-36.0,-145.0,387.0,99.0,-63.0,-914.0,-116.0
-17.0,-223.0,-36.0,-141.0,390.0,92.0,-71.0,-934.0,-102.0
-18.0,-231.0,-27.0,-133.0,389.0,81.0,-67.0,-951.0,-96.0
-14.0,-234.0,-28.0,-123.0,385.0,70.0,-72.0,-959.0,-87.0
-14.0,-241.0,-21.0,-107.0,378.0,57.0,-74.0,-972.0,-93.0
-16.0,-240.0,-25.0,-86.0,368.0,41.0,-72.0,-987.0,-75.0
-17.0,-241.0,-24.0,-62.0,355.0,26.0,-78.0,-980.0,-74.0
-21.0,-239.0,-22.0,-37.0,340.0,10.0,-85.0,-987.0,-65.0
-20.0,-241.0,-21.0,-17.0,324.0,-4.0,-97.0,-995.0,-68.0
-26.0,-244.0,-17.0,-4.0,311.0,-19.0,-105.0,-994.0,-57.0
-22.0,-238.0,-22.0,8.0,297.0,-34.0,-104.0,-981.0,-53.0
-24.0,-236.0,-20.0,20.0,286.0,-46.0,-100.0,-971.0,-44.0
-25.0,-234.0,-17.0,27.0,278.0,-56.0,-105.0,-967.0,-41.0
-24.0,-233.0,-14.0,33.0,271.0,-66.0,-107.0,-962.0,-36.0
-25.0,-233.0,-5.0,40.0,265.0,-75.0,-105.0,-959.0,-21.0
-24.0,-235.0,-8.0,44.0,262.0,-82.0,-107.0,-970.0,-1.0
-25.0,-235.0,-4.0,50.0,256.0,-87.0,-96.0,-962.0,14.0
-19.0,-231.0,-1.0,55.0,252.0,-94.0,-95.0,-959.0,17.0
-24.0,-230.0,0.0,58.0,248.0,-101.0,-100.0,-947.0,18.0
-16.0,-229.0,-2.0,60.0,249.0,-108.0,-75.0,-952.0,23.0
-10.0,-228.0,0.0,60.0,247.0,-116.0,-61.0,-944.0,21.0
-9.0,-234.0,-2.0,58.0,253.0,-123.0,-50.0,-949.0,25.0
-3.0,-231.0,0.0,53.0,261.0,-130.0,-26.0,-957.0,22.0
-2.0,-229.0,1.0,43.0,282.0,-138.0,-9.0,-956.0,20.0
6.0,-235.0,0.0,35.0,309.0,-146.0,5.0,-961.0,21.0
8.0,-237.0,-1.0,31.0,337.0,-151.0,18.0,-977.0,23.0
12.0,-239.0,-1.0,30.0,368.0,-157.0,27.0,-988.0,27.0
13.0,-241.0,0.0,30.0,402.0,-158.0,38.0,-992.0,24.0
16.0,-242.0,-2.0,34.0,435.0,-160.0,48.0,-996.0,27.0
20.0,-249.0,-4.0,41.0,463.0,-157.0,58.0,-1002.0,21.0
17.0,-245.0,-5.0,45.0,493.0,-154.0,60.0,-1014.0,2.0
16.0,-245.0,-9.0,45.0,524.0,-153.0,44.0,-1018.0,-3.0
11.0,-251.0,-10.0,42.0,554.0,-150.0,37.0,-1020.0,-14.0
4.0,-252.0,-17.0,37.0,584.0,-145.0,25.0,-1037.0,-28.0
7.0,-257.0,-17.0,29.0,613.0,-138.0,12.0,-1063.0,-34.0
1.0,-262.0,-20.0,18.0,641.0,-130.0,-6.0,-1082.0,-41.0
0.0,-264.0,-18.0,5.0,670.0,-123.0,-16.0,-1101.0,-57.0
-4.0,-274.0,-20.0,-6.0,695.0,-119.0,-40.0,-1128.0,-50.0
-6.0,-280.0,-21.0,-11.0,718.0,-118.0,-48.0,-1149.0,-54.0
-14.0,-287.0,-19.0,-10.0,737.0,-118.0,-66.0,-1181.0,-54.0
-19.0,-294.0,-21.0,-4.0,752.0,-118.0,-75.0,-1200.0,-53.0
-23.0,-301.0,-17.0,6.0,757.0,-121.0,-88.0,-1225.0,-53.0
-24.0,-310.0,-18.0,20.0,755.0,-122.0,-102.0,-1250.0,-43.0
-24.0,-314.0,-9.0,35.0,746.0,-116.0,-116.0,-1279.0,-36.0
-28.0,-316.0,-16.0,50.0,727.0,-106.0,-127.0,-1293.0,-26.0
-32.0,-319.0,-11.0,67.0,708.0,-97.0,-134.0,-1299.0,-19.0
-33.0,-321.0,-6.0,87.0,685.0,-87.0,-138.0,-1301.0,-7.0
-31.0,-316.0,-2.0,110.0,666.0,-76.0,-128.0,-1295.0,15.0
-29.0,-311.0,5.0,133.0,651.0,-69.0,-130.0,-1268.0,39.0
-26.0,-304.0,10.0,157.0,637.0,-63.0,-109.0,-1245.0,54.0
-22.0,-296.0,16.0,177.0,621.0,-59.0,-106.0,-1208.0,82.0
-21.0,-288.0,19.0,197.0,604.0,-57.0,-88.0,-1183.0,108.0
-21.0,-281.0,27.0,213.0,587.0,-55.0,-85.0,-1153.0,130.0
-14.0,-276.0,32.0,223.0,573.0,-52.0,-83.0,-1136.0,152.0
-14.0,-272.0,35.0,228.0,565.0,-48.0,-70.0,-1124.0,169.0
-6.0,-273.0,35.0,229.0,569.0,-41.0,-48.0,-1124.0,167.0
0.0,-278.0,34.0,224.0,591.0,-31.0,-19.0,-1137.0,152.0
2.0,-289.0,24.0,206.0,636.0,-18.0,-1.0,-1185.0,128.0
6.0,-298.0,10.0,175.0,690.0,-3.0,13.0,-1220.0,75.0
4.0,-307.0,0.0,129.0,735.0,18.0,1.0,-1274.0,7.0
-10.0,-322.0,-25.0,63.0,757.0,47.0,-46.0,-1333.0,-80.0
-26.0,-331.0,-47.0,-14.0,753.0,85.0,-100.0,-1384.0,-169.0
-45.0,-340.0,-62.0,-92.0,715.0,128.0,-165.0,-1401.0,-224.0
-61.0,-341.0,-69.0,-135.0,636.0,173.0,-217.0,-1402.0,-255.0
-68.0,-336.0,-69.0,-122.0,527.0,211.0,-255.0,-1366.0,-262.0
-70.0,-320.0,-68.0,-51.0,405.0,236.0,-265.0,-1304.0,-261.0
-65.0,-295.0,-76.0,63.0,291.0,243.0,-246.0,-1188.0,-276.0
-55.0,-259.0,-89.0,185.0,192.0,237.0,-213.0,-1076.0,-325.0
-41.0,-227.0,-98.0,270.0,111.0,215.0,-165.0,-962.0,-373.0
-29.0,-211.0,-104.0,304.0,56.0,181.0,-109.0,-860.0,-402.0
-13.0,-197.0,-110.0,290.0,30.0,151.0,-51.0,-822.0,-426.0
5.0,-200.0,-113.0,248.0,32.0,132.0,17.0,-829.0,-427.0
25.0,-212.0,-106.0,195.0,52.0,124.0,73.0,-869.0,-414.0
33.0,-224.0,-111.0,145.0,83.0,132.0,114.0,-934.0,-423.0
42.0,-244.0,-108.0,96.0,123.0,149.0,150.0,-1002.0,-419.0
56.0,-263.0,-104.0,53.0,171.0,174.0,196.0,-1082.0,-395.0
65.0,-285.0,-103.0,29.0,224.0,197.0,235.0,-1150.0,-373.0
70.0,-299.0,-95.0,26.0,274.0,216.0,264.0,-1202.0,-344.0
72.0,-306.0,-89.0,44.0,319.0,222.0,284.0,-1246.0,-328.0
73.0,-307.0,-83.0,72.0,358.0,218.0,271.0,-1242.0,-304.0
62.0,-294.0,-78.0,112.0,387.0,197.0,245.0,-1199.0,-292.0
51.0,-283.0,-78.0,151.0,403.0,165.0,189.0,-1156.0,-277.0
35.0,-274.0,-73.0,181.0,413.0,130.0,127.0,-1121.0,-268.0
20.0,-266.0,-69.0,207.0,414.0,95.0,68.0,-1081.0,-248.0
3.0,-256.0,-63.0,223.0,405.0,61.0,16.0,-1040.0,-222.0
-9.0,-246.0,-55.0,239.0,392.0,35.0,-25.0,-1006.0,-195.0
-16.0,-242.0,-50.0,252.0,374.0,15.0,-68.0,-995.0,-166.0
-25.0,-240.0,-40.0,262.0,349.0,-1.0,-96.0,-991.0,-143.0
-27.0,-242.0,-36.0,265.0,307.0,-18.0,-113.0,-989.0,-116.0
-28.0,-244.0,-33.0,263.0,263.0,-32.0,-129.0,-998.0,-118.0
-29.0,-248.0,-36.0,254.0,212.0,-45.0,-121.0,-1017.0,-118.0
-26.0,-251.0,-36.0,239.0,166.0,-60.0,-109.0,-1034.0,-123.0
-21.0,-255.0,-42.0,209.0,123.0,-77.0,-90.0,-1041.0,-136.0
-16.0,-254.0,-38.0,183.0,86.0,-92.0,-65.0,-1041.0,-135.0
-9.0,-251.0,-43.0,163.0,55.0,-112.0,-40.0,-1039.0,-138.0
0.0,-248.0,-43.0,145.0,27.0,-130.0,-5.0,-1019.0,-145.0
7.0,-243.0,-46.0,125.0,1.0,-146.0,18.0,-1002.0,-144.0
11.0,-238.0,-32.0,109.0,-27.0,-158.0,40.0,-972.0,-134.0
13.0,-230.0,-43.0,99.0,-51.0,-164.0,54.0,-942.0,-143.0
22.0,-224.0,-45.0,88.0,-71.0,-164.0,78.0,-918.0,-149.0
23.0,-219.0,-44.0,81.0,-79.0,-160.0,80.0,-899.0,-156.0
25.0,-214.0,-47.0,78.0,-79.0,-154.0,94.0,-877.0,-154.0
28.0,-211.0,-51.0,76.0,-72.0,-146.0,96.0,-869.0,-165.0
28.0,-209.0,-54.0,74.0,-57.0,-136.0,105.0,-868.0,-174.0
32.0,-207.0,-51.0,72.0,-40.0,-126.0,107.0,-853.0,-177.0
36.0,-203.0,-50.0,67.0,-22.0,-120.0,122.0,-842.0,-170.0
34.0,-202.0,-47.0,52.0,0.0,-114.0,124.0,-846.0,-164.0
33.0,-206.0,-48.0,36.0,16.0,-116.0,119.0,-853.0,-161.0
27.0,-206.0,-46.0,21.0,24.0,-119.0,108.0,-857.0,-159.0
31.0,-208.0,-48.0,6.0,30.0,-119.0,115.0,-865.0,-159.0
26.0,-208.0,-45.0,-4.0,36.0,-121.0,101.0,-860.0,-158.0
30.0,-211.0,-46.0,-14.0,35.0,-125.0,107.0,-865.0,-159.0
25.0,-210.0,-46.0,-29.0,29.0,-129.0,96.0,-868.0,-162.0
31.0,-207.0,-47.0,-43.0,15.0,-130.0,114.0,-863.0,-141.0
27.0,-209.0,-44.0,-52.0,2.0,-134.0,100.0,-859.0,-142.0
31.0,-209.0,-38.0,-67.0,-11.0,-134.0,113.0,-867.0,-142.0
29.0,-209.0,-37.0,-78.0,-21.0,-137.0,102.0,-860.0,-128.0
35.0,-211.0,-41.0,-90.0,-27.0,-134.0,125.0,-869.0,-123.0
32.0,-213.0,-34.0,-93.0,-32.0,-136.0,109.0,-872.0,-112.0
35.0,-214.0,-33.0,-94.0,-40.0,-134.0,127.0,-868.0,-106.0
36.0,-215.0,-35.0,-89.0,-44.0,-128.0,130.0,-900.0,-114.0
41.0,-222.0,-32.0,-82.0,-45.0,-116.0,137.0,-912.0,-107.0
37.0,-224.0,-35.0,-74.0,-52.0,-102.0,139.0,-914.0,-105.0
38.0,-228.0,-29.0,-58.0,-60.0,-86.0,134.0,-936.0,-102.0
44.0,-221.0,-33.0,-39.0,-66.0,-72.0,148.0,-915.0,-114.0
43.0,-223.0,-31.0,-24.0,-67.0,-59.0,147.0,-915.0,-94.0
36.0,-229.0,-30.0,-5.0,-63.0,-43.0,141.0,-947.0,-100.0
40.0,-229.0,-33.0,10.0,-58.0,-24.0,139.0,-941.0,-98.0
35.0,-227.0,-32.0,25.0,-52.0,-7.0,143.0,-940.0,-91.0
35.0,-224.0,-24.0,40.0,-44.0,5.0,126.0,-927.0,-79.0
34.0,-224.0,-25.0,52.0,-42.0,17.0,120.0,-933.0,-77.0
32.0,-225.0,-26.0,64.0,-35.0,24.0,104.0,-929.0,-68.0
25.0,-219.0,-28.0,70.0,-27.0,34.0,86.0,-906.0,-73.0
23.0,-219.0,-26.0,66.0,-19.0,49.0,84.0,-911.0,-70.0
22.0,-213.0,-22.0,56.0,-8.0,58.0,85.0,-893.0,-72.0
18.0,-215.0,-23.0,41.0,5.0,67.0,70.0,-903.0,-63.0
19.0,-219.0,-20.0,27.0,13.0,77.0,69.0,-909.0,-57.0
15.0,-222.0,-21.0,14.0,16.0,88.0,56.0,-914.0,-56.0
15.0,-224.0,-17.0,3.0,14.0,101.0,56.0,-923.0,-54.0
16.0,-224.0,-15.0,-7.0,14.0,111.0,47.0,-927.0,-46.0
7.0,-226.0,-8.0,-16.0,14.0,122.0,24.0,-934.0,-40.0
4.0,-226.0,-17.0,-25.0,12.0,132.0,14.0,-945.0,-24.0
3.0,-230.0,-11.0,-35.0,6.0,141.0,10.0,-949.0,-23.0
3.0,-233.0,-8.0,-43.0,-2.0,147.0,1.0,-960.0,-9.0
0.0,-233.0,-8.0,-45.0,-18.0,147.0,-16.0,-959.0,-9.0
0.0,-232.0,-9.0,-45.0,-37.0,146.0,-12.0,-963.0,-6.0
-5.0,-234.0,-10.0,-42.0,-53.0,142.0,-20.0,-965.0,-8.0
-5.0,-237.0,-8.0,-44.0,-71.0,132.0,-27.0,-967.0,-19.0
-7.0,-233.0,-9.0,-48.0,-90.0,121.0,-35.0,-971.0,-15.0
-7.0,-238.0,-8.0,-47.0,-111.0,110.0,-40.0,-980.0,-20.0
-9.0,-244.0,-11.0,-48.0,-132.0,95.0,-50.0,-994.0,-27.0
-14.0,-244.0,-15.0,-51.0,-161.0,87.0,-74.0,-992.0,-51.0
-17.0,-240.0,-18.0,-56.0,-195.0,84.0,-83.0,-990.0,-51.0
-16.0,-242.0,-19.0,-61.0,-221.0,81.0,-69.0,-1003.0,-54.0
-12.0,-248.0,-18.0,-67.0,-239.0,75.0,-53.0,-1020.0,-55.0
-14.0,-253.0,-18.0,-73.0,-245.0,62.0,-59.0,-1026.0,-53.0
-13.0,-255.0,-17.0,-80.0,-256.0,49.0,-57.0,-1043.0,-36.0
-10.0,-260.0,-8.0,-88.0,-280.0,42.0,-67.0,-1064.0,-21.0
-15.0,-263.0,-4.0,-90.0,-320.0,35.0,-70.0,-1079.0,-2.0
-20.0,-262.0,-3.0,-83.0,-365.0,31.0,-78.0,-1081.0,11.0
-16.0,-261.0,-2.0,-71.0,-412.0,28.0,-72.0,-1081.0,12.0
-11.0,-264.0,-2.0,-61.0,-455.0,23.0,-52.0,-1092.0,13.0
-4.0,-265.0,-2.0,-54.0,-489.0,15.0,-27.0,-1111.0,5.0
0.0,-272.0,-5.0,-59.0,-514.0,8.0,-1.0,-1125.0,2.0
4.0,-279.0,-2.0,-66.0,-524.0,-3.0,14.0,-1157.0,4.0
15.0,-290.0,-3.0,-75.0,-525.0,-14.0,35.0,-1186.0,15.0
17.0,-298.0,1.0,-83.0,-519.0,-22.0,58.0,-1223.0,32.0
24.0,-304.0,5.0,-89.0,-510.0,-31.0,82.0,-1247.0,45.0
32.0,-312.0,3.0,-85.0,-495.0,-34.0,110.0,-1283.0,49.0
34.0,-321.0,7.0,-75.0,-477.0,-35.0,119.0,-1305.0,59.0
37.0,-321.0,4.0,-61.0,-450.0,-33.0,136.0,-1319.0,48.0
41.0,-320.0,9.0,-46.0,-419.0,-24.0,147.0,-1315.0,50.0
41.0,-316.0,1.0,-34.0,-383.0,-12.0,157.0,-1306.0,44.0
43.0,-314.0,1.0,-27.0,-338.0,-4.0,165.0,-1296.0,34.0
51.0,-310.0,3.0,-21.0,-289.0,1.0,171.0,-1263.0,39.0
54.0,-307.0,3.0,-14.0,-239.0,3.0,179.0,-1246.0,54.0
50.0,-300.0,6.0,-6.0,-184.0,-3.0,183.0,-1235.0,57.0
51.0,-298.0,10.0,-3.0,-143.0,-14.0,183.0,-1225.0,64.0
50.0,-300.0,13.0,-6.0,-109.0,-27.0,173.0,-1232.0,73.0
45.0,-307.0,11.0,-19.0,-81.0,-39.0,167.0,-1246.0,69.0
42.0,-308.0,10.0,-42.0,-58.0,-55.0,156.0,-1271.0,63.0
36.0,-318.0,6.0,-69.0,-44.0,-71.0,137.0,-1319.0,48.0
33.0,-333.0,1.0,-105.0,-38.0,-88.0,108.0,-1364.0,26.0
20.0,-340.0,-10.0,-144.0,-40.0,-100.0,79.0,-1400.0,-9.0
6.0,-347.0,-18.0,-177.0,-43.0,-112.0,40.0,-1428.0,-28.0
1.0,-353.0,-17.0,-198.0,-45.0,-119.0,4.0,-1455.0,-63.0
-9.0,-359.0,-26.0,-202.0,-45.0,-121.0,-43.0,-1468.0,-79.0
-19.0,-363.0,-37.0,-182.0,-44.0,-117.0,-80.0,-1472.0,-114.0
-18.0,-358.0,-47.0,-153.0,-33.0,-106.0,-90.0,-1456.0,-148.0
-14.0,-342.0,-56.0,-111.0,-5.0,-94.0,-70.0,-1422.0,-188.0
-5.0,-337.0,-59.0,-59.0,48.0,-88.0,-34.0,-1369.0,-207.0
4.0,-316.0,-66.0,-2.0,120.0,-83.0,14.0,-1290.0,-227.0
20.0,-296.0,-67.0,51.0,200.0,-80.0,57.0,-1192.0,-235.0
29.0,-266.0,-64.0,100.0,274.0,-76.0,99.0,-1109.0,-228.0
39.0,-249.0,-62.0,134.0,330.0,-76.0,130.0,-1022.0,-227.0
53.0,-247.0,-59.0,148.0,373.0,-73.0,155.0,-978.0,-216.0
46.0,-230.0,-63.0,148.0,406.0,-75.0,169.0,-948.0,-216.0
46.0,-221.0,-61.0,130.0,422.0,-77.0,165.0,-921.0,-213.0
39.0,-219.0,-60.0,100.0,412.0,-74.0,155.0,-901.0,-207.0
35.0,-218.0,-62.0,67.0,380.0,-65.0,142.0,-901.0,-214.0
25.0,-219.0,-64.0,33.0,329.0,-47.0,111.0,-909.0,-230.0
19.0,-220.0,-69.0,-6.0,269.0,-22.0,81.0,-927.0,-255.0
7.0,-229.0,-77.0,-45.0,211.0,6.0,40.0,-944.0,-279.0
3.0,-229.0,-81.0,-78.0,154.0,33.0,19.0,-946.0,-315.0
1.0,-230.0,-89.0,-105.0,100.0,60.0,12.0,-950.0,-344.0
1.0,-231.0,-95.0,-125.0,45.0,80.0,-6.0,-945.0,-371.0
-8.0,-227.0,-101.0,-138.0,-8.0,91.0,-7.0,-935.0,-397.0
-4.0,-223.0,-109.0,-147.0,-55.0,99.0,-17.0,-923.0,-415.0
-6.0,-219.0,-114.0,-151.0,-98.0,102.0,-27.0,-901.0,-436.0
-7.0,-219.0,-116.0,-147.0,-133.0,101.0,-29.0,-896.0,-433.0
-12.0,-219.0,-113.0,-135.0,-167.0,102.0,-32.0,-894.0,-434.0
-12.0,-217.0,-114.0,-120.0,-192.0,108.0,-51.0,-891.0,-434.0
-20.0,-216.0,-114.0,-102.0,-206.0,112.0,-66.0,-894.0,-437.0
-21.0,-217.0,-114.0,-78.0,-211.0,115.0,-86.0,-891.0,-428.0
-23.0,-218.0,-109.0,-51.0,-209.0,119.0,-97.0,-891.0,-428.0
-26.0,-215.0,-114.0,-26.0,-199.0,121.0,-98.0,-891.0,-431.0
-28.0,-216.0,-108.0,-6.0,-181.0,125.0,-102.0,-896.0,-426.0
-23.0,-220.0,-107.0,9.0,-157.0,125.0,-98.0,-899.0,-419.0
-21.0,-221.0,-106.0,15.0,-123.0,128.0,-81.0,-918.0,-396.0
-13.0,-225.0,-101.0,18.0,-82.0,133.0,-66.0,-931.0,-389.0
0.0,-229.0,-98.0,18.0,-39.0,138.0,-20.0,-947.0,-367.0
6.0,-231.0,-92.0,10.0,7.0,142.0,18.0,-960.0,-351.0
18.0,-237.0,-91.0,-6.0,50.0,145.0,57.0,-970.0,-335.0
26.0,-239.0,-85.0,-21.0,94.0,147.0,95.0,-981.0,-323.0
32.0,-240.0,-85.0,-33.0,132.0,149.0,129.0,-990.0,-312.0
39.0,-242.0,-84.0,-42.0,163.0,150.0,153.0,-990.0,-305.0
45.0,-242.0,-81.0,-46.0,190.0,151.0,170.0,-998.0,-281.0
41.0,-240.0,-76.0,-41.0,207.0,155.0,159.0,-997.0,-282.0
44.0,-242.0,-74.0,-30.0,216.0,161.0,162.0,-996.0,-279.0
38.0,-239.0,-76.0,-17.0,214.0,173.0,145.0,-996.0,-271.0
32.0,-242.0,-74.0,-7.0,205.0,187.0,121.0,-993.0,-277.0
19.0,-239.0,-74.0,1.0,194.0,208.0,79.0,-993.0,-270.0
13.0,-243.0,-77.0,4.0,184.0,227.0,52.0,-992.0,-286.0
4.0,-237.0,-76.0,9.0,174.0,240.0,16.0,-976.0,-284.0
0.0,-235.0,-80.0,10.0,169.0,254.0,-14.0,-960.0,-293.0
-9.0,-231.0,-76.0,9.0,163.0,271.0,-44.0,-953.0,-293.0
-19.0,-228.0,-76.0,9.0,160.0,281.0,-77.0,-946.0,-288.0
-24.0,-229.0,-72.0,11.0,156.0,291.0,-100.0,-936.0,-277.0
-31.0,-233.0,-74.0,16.0,152.0,301.0,-116.0,-953.0,-280.0
-30.0,-230.0,-75.0,21.0,148.0,306.0,-130.0,-933.0,-271.0
-37.0,-226.0,-69.0,31.0,142.0,310.0,-145.0,-932.0,-254.0
-34.0,-225.0,-64.0,44.0,127.0,323.0,-151.0,-939.0,-245.0
-33.0,-222.0,-65.0,55.0,113.0,324.0,-131.0,-930.0,-234.0
-32.0,-224.0,-66.0,58.0,109.0,309.0,-132.0,-911.0,-241.0
-38.0,-217.0,-66.0,56.0,110.0,296.0,-145.0,-889.0,-243.0
-38.0,-207.0,-63.0,49.0,105.0,287.0,-146.0,-863.0,-234.0
-28.0,-205.0,-66.0,39.0,97.0,283.0,-114.0,-850.0,-238.0
-31.0,-199.0,-65.0,26.0,97.0,273.0,-127.0,-827.0,-238.0
-27.0,-199.0,-63.0,3.0,100.0,265.0,-119.0,-814.0,-240.0
-22.0,-194.0,-63.0,-19.0,100.0,260.0,-102.0,-811.0,-232.0
-19.0,-197.0,-62.0,-44.0,107.0,262.0,-95.0,-810.0,-220.0
-24.0,-196.0,-62.0,-60.0,122.0,250.0,-94.0,-811.0,-212.0
-27.0,-198.0,-58.0,-81.0,144.0,238.0,-111.0,-821.0,-210.0
-23.0,-200.0,-59.0,-105.0,155.0,233.0,-93.0,-830.0,-203.0
-20.0,-200.0,-49.0,-126.0,165.0,230.0,-87.0,-830.0,-191.0
-16.0,-209.0,-50.0,-142.0,173.0,223.0,-77.0,-863.0,-187.0
-18.0,-218.0,-50.0,-150.0,175.0,211.0,-85.0,-890.0,-173.0
-15.0,-218.0,-56.0,-151.0,167.0,200.0,-77.0,-899.0,-186.0
-19.0,-221.0,-53.0,-158.0,166.0,196.0,-71.0,-910.0,-187.0
-16.0,-221.0,-52.0,-161.0,161.0,190.0,-74.0,-921.0,-189.0
-20.0,-221.0,-55.0,-163.0,151.0,183.0,-76.0,-919.0,-188.0
-17.0,-223.0,-53.0,-158.0,138.0,178.0,-81.0,-919.0,-181.0
-17.0,-228.0,-50.0,-145.0,123.0,173.0,-73.0,-934.0,-173.0
-16.0,-229.0,-48.0,-130.0,106.0,165.0,-78.0,-947.0,-171.0
-21.0,-234.0,-47.0,-112.0,94.0,155.0,-79.0,-958.0,-166.0
-22.0,-228.0,-48.0,-98.0,85.0,147.0,-93.0,-942.0,-159.0
-27.0,-218.0,-47.0,-85.0,82.0,140.0,-107.0,-899.0,-169.0
-21.0,-223.0,-44.0,-72.0,77.0,135.0,-91.0,-924.0,-152.0
-25.0,-224.0,-46.0,-59.0,64.0,126.0,-102.0,-932.0,-149.0
-27.0,-227.0,-38.0,-46.0,52.0,112.0,-107.0,-941.0,-142.0
-22.0,-228.0,-42.0,-32.0,45.0,97.0,-107.0,-933.0,-141.0
-25.0,-227.0,-43.0,-19.0,42.0,81.0,-111.0,-935.0,-132.0
-27.0,-223.0,-36.0,-8.0,47.0,61.0,-122.0,-927.0,-125.0
-32.0,-223.0,-32.0,1.0,51.0,45.0,-126.0,-925.0,-108.0
-31.0,-222.0,-35.0,8.0,48.0,33.0,-128.0,-930.0,-111.0
-31.0,-226.0,-32.0,8.0,47.0,24.0,-129.0,-940.0,-100.0
-33.0,-233.0,-29.0,5.0,43.0,13.0,-134.0,-953.0,-98.0
-30.0,-235.0,-30.0,2.0,35.0,4.0,-130.0,-969.0,-94.0
-26.0,-238.0,-25.0,3.0,25.0,-4.0,-114.0,-976.0,-98.0
-29.0,-239.0,-32.0,5.0,16.0,-15.0,-110.0,-983.0,-96.0
-26.0,-241.0,-36.0,8.0,11.0,-26.0,-104.0,-981.0,-101.0
-21.0,-240.0,-33.0,14.0,8.0,-39.0,-99.0,-983.0,-99.0
-20.0,-241.0,-31.0,24.0,7.0,-53.0,-95.0,-978.0,-95.0
-15.0,-241.0,-28.0,35.0,13.0,-61.0,-78.0,-985.0,-91.0
-14.0,-232.0,-28.0,48.0,18.0,-73.0,-60.0,-965.0,-88.0
-5.0,-230.0,-29.0,62.0,28.0,-85.0,-45.0,-949.0,-85.0
-1.0,-228.0,-24.0,75.0,41.0,-98.0,-13.0,-950.0,-73.0
0.0,-231.0,-21.0,84.0,58.0,-110.0,-21.0,-943.0,-67.0
2.0,-226.0,-23.0,89.0,75.0,-121.0,-1.0,-939.0,-57.0
4.0,-230.0,-20.0,95.0,97.0,-137.0,-4.0,-941.0,-44.0
4.0,-230.0,-20.0,95.0,122.0,-149.0,6.0,-947.0,-48.0
6.0,-230.0,-13.0,90.0,154.0,-162.0,10.0,-947.0,-45.0
1.0,-229.0,-17.0,83.0,184.0,-169.0,-7.0,-947.0,-34.0
1.0,-231.0,-16.0,77.0,211.0,-173.0,-8.0,-961.0,-31.0
2.0,-237.0,-12.0,75.0,238.0,-173.0,-11.0,-969.0,-28.0
0.0,-236.0,-17.0,73.0,266.0,-172.0,-19.0,-982.0,-34.0
0.0,-243.0,-16.0,71.0,296.0,-168.0,-18.0,-992.0,-36.0
-1.0,-245.0,-15.0,67.0,332.0,-163.0,-24.0,-1001.0,-43.0
-1.0,-244.0,-15.0,62.0,370.0,-157.0,-21.0,-1006.0,-46.0
-3.0,-244.0,-17.0,56.0,411.0,-149.0,-28.0,-1009.0,-44.0
-2.0,-246.0,-21.0,51.0,451.0,-140.0,-22.0,-1008.0,-50.0
1.0,-251.0,-26.0,47.0,491.0,-133.0,-13.0,-1017.0,-57.0
0.0,-247.0,-20.0,40.0,533.0,-128.0,-8.0,-1008.0,-55.0
2.0,-243.0,-19.0,35.0,575.0,-125.0,-5.0,-1013.0,-56.0
1.0,-246.0,-19.0,36.0,615.0,-123.0,5.0,-1011.0,-60.0
7.0,-250.0,-19.0,37.0,653.0,-125.0,21.0,-1030.0,-59.0
6.0,-252.0,-23.0,32.0,690.0,-126.0,22.0,-1040.0,-58.0
7.0,-254.0,-28.0,26.0,726.0,-128.0,22.0,-1037.0,-73.0
5.0,-256.0,-26.0,18.0,764.0,-134.0,14.0,-1054.0,-64.0
10.0,-261.0,-17.0,14.0,797.0,-139.0,18.0,-1072.0,-67.0
2.0,-262.0,-26.0,11.0,821.0,-145.0,1.0,-1089.0,-61.0
-5.0,-266.0,-26.0,5.0,832.0,-147.0,-26.0,-1100.0,-62.0
-10.0,-270.0,-25.0,2.0,831.0,-147.0,-50.0,-1108.0,-74.0
-17.0,-276.0,-23.0,-4.0,816.0,-140.0,-74.0,-1130.0,-72.0
-23.0,-276.0,-26.0,-8.0,794.0,-133.0,-94.0,-1142.0,-75.0
-27.0,-285.0,-25.0,-12.0,769.0,-122.0,-107.0,-1157.0,-78.0
-30.0,-285.0,-26.0,-16.0,748.0,-111.0,-134.0,-1170.0,-71.0
-38.0,-289.0,-22.0,-18.0,730.0,-99.0,-148.0,-1189.0,-68.0
-41.0,-296.0,-16.0,-18.0,714.0,-89.0,-160.0,-1206.0,-54.0
-45.0,-303.0,-18.0,-13.0,701.0,-84.0,-184.0,-1233.0,-32.0
-49.0,-305.0,-14.0,-6.0,689.0,-77.0,-191.0,-1243.0,-23.0
-49.0,-309.0,-8.0,8.0,682.0,-77.0,-204.0,-1255.0,-8.0
-50.0,-312.0,-3.0,26.0,674.0,-78.0,-211.0,-1273.0,8.0
-51.0,-316.0,1.0,47.0,666.0,-80.0,-211.0,-1290.0,24.0
-51.0,-313.0,2.0,67.0,660.0,-84.0,-207.0,-1289.0,27.0
-47.0,-315.0,5.0,90.0,656.0,-91.0,-200.0,-1291.0,41.0
-44.0,-312.0,5.0,114.0,653.0,-98.0,-191.0,-1272.0,42.0
-42.0,-310.0,1.0,132.0,654.0,-102.0,-175.0,-1258.0,44.0
-42.0,-303.0,4.0,141.0,654.0,-104.0,-172.0,-1251.0,48.0
-43.0,-306.0,0.0,144.0,649.0,-101.0,-167.0,-1249.0,29.0
-47.0,-306.0,-5.0,140.0,635.0,-96.0,-183.0,-1255.0,6.0
-49.0,-311.0,-11.0,124.0,609.0,-88.0,-188.0,-1276.0,-22.0
-55.0,-315.0,-23.0,95.0,569.0,-77.0,-206.0,-1302.0,-56.0
-60.0,-322.0,-32.0,53.0,521.0,-61.0,-223.0,-1325.0,-96.0
-60.0,-328.0,-40.0,0.0,473.0,-46.0,-239.0,-1338.0,-121.0
-70.0,-322.0,-45.0,-43.0,426.0,-32.0,-270.0,-1337.0,-134.0
-74.0,-319.0,-44.0,-67.0,364.0,-21.0,-283.0,-1309.0,-151.0
-76.0,-308.0,-51.0,-69.0,283.0,-17.0,-291.0,-1257.0,-170.0
-77.0,-290.0,-55.0,-50.0,184.0,-18.0,-308.0,-1194.0,-191.0
-76.0,-271.0,-62.0,-29.0,77.0,-18.0,-301.0,-1122.0,-211.0
-70.0,-260.0,-64.0,-13.0,-26.0,-22.0,-284.0,-1065.0,-230.0
-66.0,-245.0,-68.0,-2.0,-135.0,-28.0,-261.0,-1007.0,-254.0
-58.0,-233.0,-73.0,1.0,-202.0,-33.0,-230.0,-963.0,-275.0
-51.0,-227.0,-79.0,-2.0,-249.0,-38.0,-206.0,-941.0,-300.0
-40.0,-227.0,-87.0,-5.0,-271.0,-37.0,-165.0,-943.0,-313.0
-30.0,-232.0,-82.0,1.0,-271.0,-33.0,-119.0,-957.0,-310.0
-14.0,-240.0,-86.0,15.0,-249.0,-27.0,-74.0,-990.0,-315.0
3.0,-253.0,-82.0,36.0,-216.0,-21.0,5.0,-1027.0,-326.0
19.0,-260.0,-93.0,59.0,-175.0,-12.0,65.0,-1071.0,-347.0
36.0,-269.0,-98.0,79.0,-124.0,-7.0,134.0,-1106.0,-373.0
45.0,-273.0,-109.0,100.0,-64.0,-7.0,183.0,-1120.0,-407.0
63.0,-274.0,-117.0,124.0,7.0,-12.0,235.0,-1116.0,-434.0
69.0,-269.0,-120.0,153.0,79.0,-26.0,280.0,-1094.0,-449.0
80.0,-259.0,-123.0,190.0,152.0,-44.0,306.0,-1065.0,-464.0
83.0,-248.0,-127.0,232.0,218.0,-62.0,322.0,-1011.0,-486.0
80.0,-232.0,-135.0,274.0,276.0,-88.0,319.0,-950.0,-499.0
74.0,-212.0,-128.0,311.0,325.0,-113.0,296.0,-868.0,-511.0
68.0,-199.0,-133.0,334.0,360.0,-134.0,276.0,-818.0,-515.0
61.0,-196.0,-131.0,340.0,388.0,-148.0,238.0,-796.0,-503.0
50.0,-194.0,-127.0,331.0,402.0,-153.0,200.0,-800.0,-490.0
42.0,-198.0,-121.0,309.0,401.0,-151.0,158.0,-820.0,-468.0
31.0,-205.0,-114.0,281.0,387.0,-145.0,127.0,-841.0,-447.0
20.0,-211.0,-109.0,252.0,357.0,-135.0,86.0,-858.0,-429.0
7.0,-213.0,-106.0,224.0,311.0,-120.0,53.0,-884.0,-418.0
1.0,-219.0,-103.0,196.0,255.0,-105.0,26.0,-903.0,-408.0
-1.0,-219.0,-105.0,169.0,186.0,-89.0,-2.0,-910.0,-392.0
-5.0,-225.0,-102.0,146.0,110.0,-74.0,-16.0,-930.0,-373.0
-12.0,-232.0,-93.0,132.0,30.0,-62.0,-31.0,-951.0,-355.0
-13.0,-243.0,-100.0,124.0,-52.0,-56.0,-31.0,-968.0,-347.0
-13.0,-244.0,-84.0,125.0,-130.0,-59.0,-43.0,-988.0,-319.0
-9.0,-243.0,-80.0,134.0,-205.0,-69.0,-22.0,-1002.0,-314.0
-4.0,-248.0,-82.0,144.0,-272.0,-83.0,-24.0,-1016.0,-298.0
-8.0,-255.0,-82.0,155.0,-330.0,-98.0,-25.0,-1036.0,-299.0
0.0,-251.0,-84.0,162.0,-377.0,-113.0,-14.0,-1043.0,-300.0
0.0,-258.0,-81.0,166.0,-410.0,-133.0,-4.0,-1056.0,-305.0
2.0,-256.0,-87.0,169.0,-429.0,-148.0,14.0,-1054.0,-317.0
8.0,-257.0,-83.0,169.0,-436.0,-165.0,28.0,-1062.0,-325.0
9.0,-257.0,-87.0,171.0,-436.0,-181.0,44.0,-1062.0,-328.0
23.0,-260.0,-78.0,172.0,-427.0,-192.0,74.0,-1053.0,-333.0
24.0,-252.0,-87.0,177.0,-410.0,-209.0,87.0,-1041.0,-317.0
27.0,-255.0,-80.0,189.0,-391.0,-227.0,98.0,-1039.0,-308.0
29.0,-250.0,-80.0,206.0,-372.0,-239.0,103.0,-1016.0,-308.0
30.0,-239.0,-74.0,224.0,-355.0,-250.0,108.0,-993.0,-289.0
29.0,-235.0,-73.0,244.0,-340.0,-257.0,117.0,-971.0,-286.0
34.0,-233.0,-72.0,261.0,-330.0,-259.0,128.0,-958.0,-273.0
35.0,-226.0,-73.0,275.0,-327.0,-261.0,130.0,-936.0,-268.0
34.0,-222.0,-70.0,281.0,-323.0,-262.0,133.0,-925.0,-265.0
32.0,-216.0,-73.0,276.0,-321.0,-267.0,113.0,-892.0,-259.0
28.0,-210.0,-69.0,270.0,-316.0,-269.0,109.0,-877.0,-248.0
27.0,-212.0,-65.0,266.0,-319.0,-268.0,100.0,-874.0,-237.0
27.0,-206.0,-65.0,264.0,-325.0,-267.0,102.0,-856.0,-232.0
27.0,-207.0,-61.0,252.0,-330.0,-266.0,99.0,-851.0,-212.0
24.0,-205.0,-59.0,240.0,-335.0,-270.0,93.0,-852.0,-201.0
23.0,-208.0,-48.0,235.0,-343.0,-271.0,90.0,-858.0,-175.0
22.0,-207.0,-50.0,235.0,-353.0,-275.0,81.0,-855.0,-166.0
17.0,-207.0,-47.0,234.0,-370.0,-277.0,67.0,-854.0,-159.0
19.0,-204.0,-49.0,234.0,-392.0,-273.0,65.0,-855.0,-160.0
12.0,-205.0,-48.0,226.0,-412.0,-273.0,49.0,-852.0,-156.0
14.0,-204.0,-49.0,217.0,-427.0,-269.0,52.0,-836.0,-151.0
14.0,-200.0,-43.0,207.0,-435.0,-263.0,41.0,-835.0,-144.0
11.0,-201.0,-39.0,198.0,-444.0,-259.0,37.0,-828.0,-136.0
12.0,-198.0,-38.0,186.0,-449.0,-259.0,35.0,-811.0,-128.0
14.0,-194.0,-36.0,175.0,-452.0,-256.0,40.0,-804.0,-119.0
13.0,-195.0,-40.0,162.0,-455.0,-251.0,53.0,-808.0,-121.0
15.0,-192.0,-36.0,149.0,-457.0,-254.0,51.0,-801.0,-121.0
17.0,-189.0,-39.0,127.0,-452.0,-258.0,53.0,-788.0,-119.0
19.0,-189.0,-35.0,96.0,-443.0,-257.0,62.0,-786.0,-122.0
23.0,-193.0,-36.0,62.0,-429.0,-257.0,70.0,-796.0,-107.0
21.0,-194.0,-35.0,30.0,-409.0,-259.0,67.0,-810.0,-104.0
20.0,-198.0,-32.0,5.0,-390.0,-260.0,80.0,-834.0,-100.0
24.0,-205.0,-34.0,-20.0,-371.0,-258.0,91.0,-855.0,-107.0
29.0,-214.0,-29.0,-40.0,-356.0,-254.0,97.0,-875.0,-102.0
26.0,-223.0,-35.0,-52.0,-346.0,-251.0,91.0,-908.0,-107.0
29.0,-225.0,-35.0,-59.0,-339.0,-245.0,102.0,-936.0,-106.0
29.0,-227.0,-40.0,-64.0,-335.0,-236.0,101.0,-949.0,-113.0
25.0,-237.0,-38.0,-68.0,-333.0,-223.0,97.0,-968.0,-117.0
24.0,-244.0,-41.0,-68.0,-335.0,-207.0,87.0,-1002.0,-118.0
23.0,-252.0,-36.0,-65.0,-338.0,-191.0,81.0,-1015.0,-106.0
16.0,-248.0,-35.0,-54.0,-338.0,-174.0,70.0,-1021.0,-107.0
18.0,-248.0,-27.0,-40.0,-341.0,-159.0,76.0,-1017.0,-106.0
19.0,-247.0,-32.0,-19.0,-344.0,-142.0,60.0,-1014.0,-91.0
15.0,-245.0,-29.0,0.0,-345.0,-126.0,53.0,-1004.0,-89.0
20.0,-247.0,-28.0,20.0,-349.0,-109.0,54.0,-997.0,-77.0
16.0,-241.0,-27.0,38.0,-346.0,-103.0,54.0,-985.0,-75.0
13.0,-237.0,-25.0,58.0,-336.0,-100.0,49.0,-968.0,-76.0
14.0,-229.0,-25.0,72.0,-324.0,-99.0,45.0,-961.0,-79.0
11.0,-226.0,-29.0,79.0,-311.0,-101.0,45.0,-944.0,-80.0
15.0,-227.0,-32.0,73.0,-297.0,-100.0,43.0,-939.0,-83.0
14.0,-226.0,-26.0,68.0,-283.0,-102.0,47.0,-937.0,-77.0
15.0,-227.0,-27.0,59.0,-271.0,-104.0,49.0,-939.0,-79.0
17.0,-227.0,-28.0,50.0,-259.0,-106.0,58.0,-947.0,-72.0
18.0,-232.0,-22.0,40.0,-247.0,-108.0,67.0,-953.0,-72.0
14.0,-232.0,-32.0,34.0,-233.0,-112.0,76.0,-971.0,-73.0
23.0,-238.0,-22.0,28.0,-220.0,-113.0,87.0,-980.0,-67.0
26.0,-244.0,-19.0,22.0,-207.0,-112.0,93.0,-986.0,-59.0
24.0,-243.0,-23.0,21.0,-191.0,-108.0,96.0,-1005.0,-48.0
29.0,-242.0,-14.0,25.0,-179.0,-104.0,97.0,-999.0,-36.0
23.0,-242.0,-14.0,31.0,-170.0,-97.0,97.0,-1005.0,-23.0
25.0,-241.0,-11.0,42.0,-165.0,-92.0,96.0,-1004.0,-15.0
29.0,-243.0,-9.0,53.0,-162.0,-82.0,104.0,-998.0,2.0
28.0,-241.0,-4.0,63.0,-159.0,-74.0,103.0,-990.0,8.0
31.0,-237.0,0.0,68.0,-156.0,-67.0,102.0,-978.0,17.0
29.0,-235.0,-4.0,60.0,-151.0,-59.0,117.0,-967.0,3.0
31.0,-228.0,-6.0,42.0,-141.0,-53.0,105.0,-952.0,0.0
26.0,-223.0,-10.0,12.0,-130.0,-47.0,94.0,-932.0,-1.0
26.0,-218.0,-8.0,-23.0,-122.0,-37.0,90.0,-910.0,-8.0
22.0,-212.0,-10.0,-62.0,-112.0,-31.0,93.0,-882.0,-12.0
22.0,-201.0,-11.0,-99.0,-104.0,-28.0,76.0,-855.0,-17.0
19.0,-200.0,-9.0,-137.0,-99.0,-22.0,69.0,-831.0,-25.0
16.0,-194.0,-10.0,-183.0,-96.0,-16.0,57.0,-811.0,-25.0
16.0,-196.0,-13.0,-231.0,-96.0,-7.0,48.0,-803.0,-26.0
14.0,-195.0,-9.0,-283.0,-96.0,2.0,46.0,-800.0,-25.0
7.0,-192.0,-11.0,-332.0,-96.0,4.0,34.0,-804.0,-22.0
8.0,-196.0,-13.0,-381.0,-95.0,16.0,31.0,-815.0,-26.0
9.0,-198.0,-11.0,-432.0,-87.0,24.0,32.0,-819.0,-27.0
9.0,-199.0,-10.0,-482.0,-83.0,34.0,32.0,-817.0,-31.0
12.0,-197.0,-17.0,-527.0,-81.0,45.0,36.0,-819.0,-27.0
10.0,-196.0,-21.0,-569.0,-82.0,61.0,40.0,-814.0,-43.0
13.0,-190.0,-28.0,-610.0,-84.0,79.0,54.0,-803.0,-74.0
18.0,-189.0,-34.0,-666.0,-82.0,98.0,58.0,-787.0,-117.0
25.0,-184.0,-48.0,-738.0,-75.0,114.0,80.0,-773.0,-150.0
27.0,-185.0,-54.0,-824.0,-64.0,126.0,97.0,-775.0,-179.0
32.0,-184.0,-57.0,-911.0,-51.0,133.0,121.0,-780.0,-198.0
39.0,-191.0,-60.0,-996.0,-38.0,130.0,136.0,-791.0,-206.0
40.0,-198.0,-65.0,-1071.0,-25.0,119.0,150.0,-805.0,-226.0
39.0,-198.0,-63.0,-1137.0,-8.0,107.0,157.0,-829.0,-226.0
38.0,-209.0,-64.0,-1188.0,9.0,93.0,150.0,-861.0,-227.0
41.0,-217.0,-66.0,-1221.0,22.0,80.0,138.0,-885.0,-246.0
33.0,-219.0,-73.0,-1233.0,30.0,68.0,122.0,-893.0,-260.0
29.0,-226.0,-77.0,-1233.0,34.0,61.0,100.0,-917.0,-275.0
26.0,-226.0,-79.0,-1225.0,39.0,61.0,100.0,-925.0,-286.0
27.0,-226.0,-80.0,-1211.0,45.0,63.0,93.0,-934.0,-284.0
28.0,-229.0,-76.0,-1198.0,48.0,65.0,97.0,-934.0,-282.0
24.0,-228.0,-77.0,-1183.0,45.0,64.0,86.0,-935.0,-289.0
24.0,-227.0,-77.0,-1163.0,43.0,64.0,88.0,-929.0,-302.0
17.0,-219.0,-83.0,-1148.0,37.0,60.0,79.0,-918.0,-308.0
16.0,-218.0,-87.0,-1148.0,30.0,58.0,58.0,-897.0,-322.0
11.0,-219.0,-87.0,-1147.0,20.0,59.0,41.0,-885.0,-323.0
5.0,-215.0,-89.0,-1148.0,5.0,64.0,22.0,-881.0,-329.0
3.0,-212.0,-86.0,-1145.0,-9.0,67.0,10.0,-881.0,-334.0
1.0,-211.0,-86.0,-1140.0,-23.0,70.0,2.0,-881.0,-336.0
1.0,-215.0,-87.0,-1129.0,-31.0,76.0,4.0,-872.0,-333.0
0.0,-213.0,-90.0,-1117.0,-37.0,78.0,2.0,-869.0,-341.0
-1.0,-211.0,-91.0,-1106.0,-39.0,86.0,-6.0,-869.0,-349.0
0.0,-209.0,-95.0,-1097.0,-36.0,92.0,8.0,-865.0,-360.0
7.0,-211.0,-99.0,-1091.0,-31.0,98.0,22.0,-865.0,-370.0
9.0,-212.0,-103.0,-1090.0,-22.0,103.0,37.0,-861.0,-372.0
13.0,-208.0,-95.0,-1091.0,-16.0,105.0,47.0,-856.0,-363.0
15.0,-205.0,-94.0,-1093.0,-9.0,107.0,52.0,-847.0,-364.0
16.0,-203.0,-96.0,-1097.0,-2.0,111.0,59.0,-837.0,-359.0
15.0,-202.0,-93.0,-1103.0,8.0,112.0,62.0,-836.0,-351.0
18.0,-206.0,-90.0,-1105.0,21.0,116.0,57.0,-845.0,-340.0
13.0,-202.0,-84.0,-1108.0,33.0,122.0,47.0,-840.0,-321.0
10.0,-206.0,-85.0,-1107.0,44.0,130.0,33.0,-840.0,-324.0
4.0,-205.0,-87.0,-1105.0,53.0,136.0,17.0,-841.0,-313.0
3.0,-201.0,-84.0,-1105.0,56.0,142.0,7.0,-840.0,-316.0
-1.0,-204.0,-83.0,-1109.0,54.0,145.0,-4.0,-839.0,-311.0
-5.0,-203.0,-83.0,-1115.0,50.0,144.0,-19.0,-841.0,-302.0
-12.0,-203.0,-82.0,-1122.0,41.0,142.0,-43.0,-840.0,-293.0
-14.0,-206.0,-76.0,-1129.0,29.0,137.0,-73.0,-837.0,-281.0
-24.0,-203.0,-69.0,-1135.0,9.0,130.0,-94.0,-834.0,-268.0
-29.0,-201.0,-68.0,-1134.0,-19.0,120.0,-113.0,-831.0,-238.0
-36.0,-201.0,-58.0,-1126.0,-55.0,106.0,-133.0,-825.0,-211.0
-39.0,-197.0,-54.0,-1114.0,-97.0,94.0,-147.0,-818.0,-194.0
-41.0,-196.0,-52.0,-1095.0,-144.0,83.0,-167.0,-803.0,-175.0
-47.0,-193.0,-44.0,-1080.0,-189.0,74.0,-187.0,-794.0,-150.0
-48.0,-188.0,-39.0,-1074.0,-242.0,67.0,-181.0,-776.0,-131.0
-40.0,-184.0,-37.0,-1077.0,-282.0,63.0,-174.0,-760.0,-115.0
-34.0,-174.0,-30.0,-1091.0,-322.0,60.0,-151.0,-728.0,-104.0
-34.0,-169.0,-30.0,-1118.0,-360.0,56.0,-132.0,-706.0,-98.0
-28.0,-160.0,-27.0,-1165.0,-394.0,53.0,-116.0,-683.0,-83.0
-25.0,-155.0,-23.0,-1209.0,-428.0,48.0,-104.0,-649.0,-77.0
-20.0,-149.0,-22.0,-1253.0,-462.0,40.0,-83.0,-631.0,-63.0
-12.0,-149.0,-18.0,-1294.0,-496.0,34.0,-43.0,-617.0,-48.0
-3.0,-146.0,-20.0,-1333.0,-535.0,19.0,-28.0,-612.0,-50.0
-1.0,-143.0,-13.0,-1374.0,-579.0,7.0,-10.0,-616.0,-39.0
1.0,-145.0,-14.0,-1412.0,-621.0,-7.0,-7.0,-607.0,-31.0
1.0,-140.0,-13.0,-1450.0,-661.0,-22.0,-2.0,-580.0,-30.0
-4.0,-132.0,-14.0,-1484.0,-702.0,-37.0,-20.0,-559.0,-29.0
-2.0,-130.0,-17.0,-1513.0,-749.0,-50.0,-19.0,-526.0,-38.0
-10.0,-120.0,-18.0,-1544.0,-796.0,-61.0,-51.0,-503.0,-41.0
-23.0,-117.0,-18.0,-1576.0,-851.0,-68.0,-77.0,-482.0,-43.0
-25.0,-109.0,-13.0,-1607.0,-915.0,-73.0,-109.0,-470.0,-39.0
-34.0,-107.0,-16.0,-1641.0,-981.0,-75.0,-117.0,-456.0,-50.0
-33.0,-101.0,-26.0,-1671.0,-1041.0,-69.0,-142.0,-434.0,-63.0
-38.0,-94.0,-27.0,-1702.0,-1088.0,-56.0,-154.0,-401.0,-71.0
-36.0,-87.0,-25.0,-1748.0,-1129.0,-42.0,-152.0,-372.0,-77.0
-41.0,-79.0,-28.0,-1798.0,-1158.0,-32.0,-154.0,-343.0,-82.0
-35.0,-72.0,-34.0,-1851.0,-1180.0,-22.0,-134.0,-323.0,-89.0
-32.0,-65.0,-43.0,-1913.0,-1199.0,-11.0,-140.0,-287.0,-102.0
-26.0,-63.0,-37.0,-1970.0,-1215.0,5.0,-112.0,-261.0,-128.0
-26.0,-71.0,-43.0,-2018.0,-1234.0,17.0,-97.0,-304.0,-147.0
-15.0,-78.0,-44.0,-2041.0,-1254.0,32.0,-78.0,-341.0,-145.0
-22.0,-82.0,-42.0,-2052.0,-1271.0,42.0,-91.0,-346.0,-127.0
-10.0,-83.0,-38.0,-2041.0,-1280.0,52.0,-78.0,-348.0,-138.0
-2.0,-81.0,-40.0,-2013.0,-1270.0,60.0,-31.0,-333.0,-149.0
-7.0,-71.0,-50.0,-1982.0,-1230.0,53.0,-43.0,-304.0,-169.0
1.0,-66.0,-58.0,-1955.0,-1180.0,56.0,3.0,-279.0,-203.0
12.0,-56.0,-64.0,-1959.0,-1113.0,58.0,36.0,-239.0,-226.0
19.0,-43.0,-72.0,-1994.0,-1045.0,62.0,80.0,-198.0,-255.0
23.0,-31.0,-59.0,-2042.0,-995.0,71.0,103.0,-157.0,-282.0
57.0,-25.0,-95.0,-2076.0,-955.0,81.0,199.0,-117.0,-358.0
63.0,-11.0,-115.0,-2120.0,-910.0,75.0,238.0,-81.0,-433.0
65.0,-10.0,-128.0,-2188.0,-885.0,70.0,262.0,-56.0,-497.0
71.0,-10.0,-140.0,-2275.0,-902.0,68.0,281.0,-54.0,-545.0
65.0,-11.0,-142.0,-2363.0,-963.0,72.0,262.0,-67.0,-570.0
66.0,-20.0,-139.0,-2440.0,-1052.0,86.0,278.0,-103.0,-565.0
75.0,-36.0,-138.0,-2502.0,-1133.0,93.0,294.0,-142.0,-540.0
53.0,-49.0,-132.0,-2518.0,-1183.0,85.0,255.0,-184.0,-506.0
81.0,-54.0,-131.0,-2489.0,-1217.0,80.0,308.0,-227.0,-504.0
68.0,-59.0,-126.0,-2422.0,-1204.0,30.0,267.0,-224.0,-504.0
49.0,-53.0,-138.0,-2341.0,-1174.0,9.0,201.0,-219.0,-534.0
25.0,-44.0,-142.0,-2299.0,-1158.0,12.0,127.0,-187.0,-564.0
10.0,-33.0,-148.0,-2280.0,-1168.0,25.0,49.0,-133.0,-583.0
1.0,-26.0,-150.0,-2277.0,-1183.0,48.0,0.0,-104.0,-593.0
-11.0,-9.0,-149.0,-2292.0,-1204.0,66.0,-42.0,-58.0,-595.0
-15.0,-3.0,-148.0,-2322.0,-1237.0,79.0,-52.0,-23.0,-585.0
-21.0,10.0,-145.0,-2365.0,-1271.0,86.0,-88.0,23.0,-571.0
-28.0,22.0,-147.0,-2410.0,-1307.0,82.0,-104.0,59.0,-570.0
-35.0,26.0,-145.0,-2463.0,-1352.0,74.0,-141.0,81.0,-572.0
-48.0,25.0,-139.0,-2525.0,-1405.0,75.0,-181.0,74.0,-556.0
-56.0,19.0,-136.0,-2586.0,-1475.0,72.0,-211.0,56.0,-539.0
-65.0,5.0,-131.0,-2649.0,-1555.0,66.0,-242.0,19.0,-511.0
-79.0,4.0,-118.0,-2715.0,-1639.0,60.0,-291.0,-4.0,-470.0
-86.0,-5.0,-114.0,-2777.0,-1727.0,46.0,-334.0,-46.0,-440.0
-80.0,-9.0,-117.0,-2830.0,-1831.0,8.0,-320.0,-57.0,-438.0
-64.0,-35.0,-123.0,-2830.0,-1876.0,35.0,-256.0,-148.0,-464.0
-66.0,-39.0,-122.0,-2827.0,-1894.0,69.0,-264.0,-172.0,-459.0
-69.0,-38.0,-114.0,-2833.0,-1966.0,77.0,-246.0,-156.0,-455.0
-61.0,-40.0,-110.0,-2839.0,-2093.0,77.0,-218.0,-173.0,-429.0
-48.0,-49.0,-100.0,-2826.0,-2238.0,83.0,-166.0,-197.0,-393.0
-34.0,-53.0,-94.0,-2792.0,-2374.0,92.0,-106.0,-235.0,-368.0
-15.0,-50.0,-68.0,-2788.0,-2501.0,44.0,-74.0,-218.0,-240.0
32.0,-74.0,-53.0,-2736.0,-2561.0,61.0,74.0,-308.0,-168.0
38.0,-93.0,-18.0,-2670.0,-2556.0,108.0,137.0,-380.0,-15.0
63.0,-110.0,9.0,-2589.0,-2561.0,138.0,222.0,-451.0,75.0
83.0,-106.0,25.0,-2508.0,-2586.0,163.0,326.0,-441.0,139.0
111.0,-120.0,56.0,-2480.0,-2629.0,152.0,389.0,-470.0,256.0
138.0,-127.0,60.0,-2309.0,-2578.0,210.0,526.0,-505.0,288.0
138.0,-116.0,77.0,-2171.0,-2466.0,233.0,504.0,-476.0,354.0
144.0,-115.0,98.0,-2111.0,-2342.0,291.0,529.0,-477.0,421.0
149.0,-115.0,103.0,-2067.0,-2243.0,349.0,573.0,-475.0,440.0
125.0,-125.0,131.0,-2022.0,-2132.0,328.0,496.0,-491.0,569.0
129.0,-131.0,122.0,-1854.0,-1979.0,360.0,494.0,-538.0,534.0
132.0,-122.0,102.0,-1707.0,-1878.0,422.0,505.0,-502.0,460.0
119.0,-103.0,72.0,-1600.0,-1811.0,462.0,466.0,-420.0,333.0
54.0,-68.0,26.0,-1491.0,-1734.0,497.0,223.0,-312.0,171.0
5.0,5.0,-1.0,-1458.0,-1685.0,606.0,38.0,-66.0,-24.0
-74.0,101.0,-30.0,-1509.0,-1678.0,778.0,-315.0,352.0,-98.0
-4095.0,3319.0,-2106.0,-1382.0,2595.0,1999.0,-8192.0,8191.0,-8175.0
2427.0,842.0,-15.0,113.0,5879.0,303.0,8191.0,3526.0,938.0
-448.0,-172.0,-1761.0,1296.0,3986.0,-616.0,155.0,-92.0,-5577.0
-469.0,-246.0,-1538.0,-1186.0,1486.0,715.0,-1586.0,-2157.0,-7352.0
-567.0,641.0,-1559.0,-4469.0,-333.0,1988.0,-1865.0,2186.0,-6721.0
-1131.0,1205.0,-1741.0,-5010.0,-603.0,2433.0,-4533.0,4982.0,-7484.0
-1007.0,944.0,-1595.0,-4627.0,-443.0,2053.0,-3701.0,3933.0,-6838.0
-857.0,724.0,-1666.0,-3654.0,-976.0,1774.0,-3135.0,3031.0,-7131.0
-714.0,547.0,-1604.0,-2898.0,-2026.0,1565.0,-2661.0,2393.0,-6898.0
-618.0,337.0,-1513.0,-2384.0,-2850.0,1228.0,-2250.0,1270.0,-6441.0
-561.0,150.0,-1288.0,-2337.0,-3384.0,913.0,-2038.0,579.0,-5395.0
-375.0,84.0,-938.0,-2343.0,-3886.0,757.0,-1407.0,367.0,-3960.0
-102.0,67.0,-540.0,-2252.0,-3855.0,559.0,-810.0,410.0,-2369.0
-67.0,36.0,-345.0,-1788.0,-2715.0,733.0,-436.0,-5.0,-1437.0
-101.0,74.0,-323.0,-1457.0,-1252.0,959.0,-472.0,229.0,-1350.0
-51.0,114.0,-325.0,-1458.0,-438.0,1100.0,-109.0,354.0,-1345.0
114.0,24.0,-232.0,-1637.0,-245.0,1154.0,368.0,166.0,-966.0
-15.0,28.0,-201.0,-1726.0,-266.0,1254.0,68.0,58.0,-824.0
-152.0,82.0,-166.0,-1979.0,-637.0,1383.0,-628.0,299.0,-660.0
-157.0,-10.0,-27.0,-2013.0,-999.0,1426.0,-651.0,-2.0,-78.0
-174.0,-31.0,-45.0,-1598.0,-848.0,1486.0,-774.0,-82.0,-119.0
-237.0,46.0,-56.0,-1264.0,-682.0,1491.0,-1006.0,168.0,-227.0
-154.0,-20.0,4.0,-1114.0,-669.0,1404.0,-727.0,54.0,-37.0
-94.0,-99.0,46.0,-690.0,-523.0,1199.0,-416.0,-293.0,183.0
-317.0,105.0,17.0,-323.0,-580.0,1094.0,-1155.0,294.0,106.0
-260.0,98.0,9.0,-448.0,-853.0,1167.0,-1190.0,350.0,25.0
-228.0,84.0,25.0,-648.0,-895.0,1216.0,-948.0,318.0,98.0
-227.0,121.0,15.0,-716.0,-874.0,1274.0,-899.0,422.0,91.0
-208.0,136.0,13.0,-719.0,-891.0,1364.0,-767.0,507.0,54.0
-167.0,194.0,18.0,-693.0,-917.0,1385.0,-630.0,767.0,76.0
-111.0,219.0,33.0,-778.0,-980.0,1326.0,-437.0,859.0,138.0
-39.0,203.0,56.0,-931.0,-920.0,1182.0,-214.0,830.0,222.0
0.0,149.0,54.0,-985.0,-767.0,981.0,13.0,640.0,264.0
20.0,85.0,33.0,-802.0,-607.0,733.0,48.0,374.0,158.0
12.0,23.0,-7.0,-445.0,-514.0,478.0,-13.0,112.0,-36.0
-84.0,18.0,-76.0,-135.0,-459.0,334.0,-314.0,70.0,-271.0
-139.0,11.0,-130.0,19.0,-382.0,382.0,-507.0,-17.0,-480.0
-155.0,32.0,-167.0,21.0,-283.0,572.0,-658.0,100.0,-666.0
-192.0,47.0,-174.0,-124.0,-160.0,812.0,-765.0,134.0,-706.0
-204.0,77.0,-186.0,-321.0,-76.0,1073.0,-851.0,301.0,-756.0
-204.0,95.0,-153.0,-497.0,-74.0,1323.0,-821.0,316.0,-633.0
-253.0,183.0,-153.0,-598.0,-165.0,1537.0,-995.0,654.0,-641.0
-257.0,222.0,-131.0,-673.0,-207.0,1704.0,-1080.0,867.0,-544.0
-250.0,245.0,-113.0,-760.0,-158.0,1812.0,-1026.0,982.0,-465.0
-249.0,256.0,-107.0,-850.0,-79.0,1793.0,-1019.0,1020.0,-421.0
-266.0,282.0,-92.0,-910.0,2.0,1702.0,-1063.0,1126.0,-374.0
-237.0,267.0,-89.0,-921.0,68.0,1587.0,-1010.0,1063.0,-370.0
-194.0,178.0,-105.0,-880.0,91.0,1418.0,-806.0,719.0,-407.0
-197.0,138.0,-107.0,-686.0,222.0,1215.0,-820.0,550.0,-424.0
-198.0,94.0,-99.0,-499.0,337.0,1061.0,-806.0,366.0,-378.0
-194.0,62.0,-79.0,-297.0,413.0,935.0,-791.0,247.0,-329.0
-183.0,53.0,-91.0,-80.0,450.0,833.0,-741.0,208.0,-349.0
-173.0,64.0,-90.0,120.0,475.0,752.0,-713.0,279.0,-366.0
-154.0,88.0,-93.0,287.0,515.0,715.0,-625.0,373.0,-368.0
-136.0,125.0,-93.0,414.0,609.0,707.0,-570.0,500.0,-352.0
-92.0,160.0,-109.0,528.0,742.0,723.0,-384.0,618.0,-441.0
-75.0,206.0,-106.0,588.0,909.0,728.0,-373.0,806.0,-405.0
-36.0,228.0,-126.0,647.0,1055.0,759.0,-153.0,888.0,-508.0
-46.0,233.0,-100.0,631.0,1150.0,732.0,-201.0,938.0,-410.0
-47.0,201.0,-99.0,608.0,1224.0,667.0,-165.0,782.0,-414.0
-64.0,241.0,-98.0,559.0,1303.0,597.0,-289.0,943.0,-360.0
-16.0,209.0,-113.0,530.0,1411.0,659.0,-108.0,852.0,-443.0
-37.0,188.0,-95.0,458.0,1554.0,673.0,-163.0,752.0,-365.0
-57.0,156.0,-73.0,435.0,1653.0,660.0,-230.0,623.0,-288.0
-85.0,190.0,-77.0,477.0,1684.0,619.0,-371.0,691.0,-242.0
-55.0,172.0,-82.0,578.0,1782.0,705.0,-226.0,748.0,-332.0
-43.0,125.0,-83.0,668.0,1914.0,766.0,-169.0,536.0,-320.0
-56.0,126.0,-93.0,760.0,2002.0,751.0,-279.0,498.0,-357.0
-63.0,126.0,-99.0,815.0,2119.0,766.0,-317.0,503.0,-393.0
-73.0,127.0,-100.0,850.0,2292.0,788.0,-337.0,494.0,-393.0
-68.0,128.0,-119.0,924.0,2472.0,803.0,-311.0,472.0,-455.0
-91.0,87.0,-92.0,930.0,2701.0,800.0,-385.0,379.0,-380.0
-79.0,134.0,-67.0,978.0,2934.0,704.0,-189.0,618.0,-255.0
-21.0,98.0,-131.0,1604.0,2680.0,697.0,-54.0,429.0,-516.0
-68.0,124.0,-173.0,2093.0,2253.0,739.0,-257.0,497.0,-681.0
-36.0,135.0,-195.0,2286.0,2043.0,656.0,-129.0,492.0,-797.0
-81.0,146.0,-162.0,2309.0,2033.0,533.0,-328.0,608.0,-690.0
-42.0,113.0,-162.0,2193.0,1868.0,552.0,-154.0,375.0,-651.0
-51.0,118.0,-139.0,1964.0,1778.0,568.0,-229.0,431.0,-562.0
-34.0,162.0,-180.0,1860.0,1859.0,621.0,-169.0,631.0,-670.0
-70.0,139.0,-267.0,2003.0,1908.0,703.0,-242.0,603.0,-1013.0
-94.0,97.0,-346.0,2168.0,1879.0,738.0,-335.0,393.0,-1372.0
-79.0,76.0,-361.0,2039.0,1830.0,771.0,-264.0,271.0,-1475.0
-63.0,58.0,-350.0,1848.0,1678.0,779.0,-182.0,201.0,-1435.0
-101.0,78.0,-336.0,1717.0,1460.0,747.0,-350.0,275.0,-1359.0
-96.0,92.0,-330.0,1653.0,1281.0,717.0,-359.0,321.0,-1350.0
-100.0,102.0,-307.0,1591.0,1175.0,706.0,-391.0,387.0,-1262.0
-96.0,110.0,-296.0,1573.0,1165.0,711.0,-359.0,435.0,-1225.0
-93.0,120.0,-285.0,1578.0,1191.0,738.0,-338.0,478.0,-1170.0
-65.0,108.0,-283.0,1644.0,1195.0,785.0,-253.0,428.0,-1159.0
-37.0,153.0,-282.0,1689.0,1166.0,801.0,-98.0,609.0,-1145.0
-29.0,131.0,-288.0,1743.0,1116.0,807.0,-176.0,498.0,-1121.0
-7.0,125.0,-296.0,1747.0,1038.0,789.0,20.0,466.0,-1201.0
16.0,116.0,-287.0,1635.0,973.0,729.0,99.0,438.0,-1158.0
42.0,124.0,-291.0,1549.0,910.0,664.0,213.0,435.0,-1187.0
52.0,152.0,-327.0,1476.0,836.0,532.0,250.0,593.0,-1320.0
37.0,143.0,-345.0,1355.0,773.0,394.0,161.0,540.0,-1426.0
68.0,127.0,-339.0,1189.0,741.0,320.0,308.0,483.0,-1370.0
56.0,111.0,-349.0,1043.0,693.0,273.0,260.0,417.0,-1413.0
41.0,99.0,-366.0,928.0,623.0,244.0,205.0,371.0,-1495.0
21.0,79.0,-359.0,830.0,568.0,227.0,143.0,319.0,-1492.0
0.0,57.0,-322.0,688.0,556.0,212.0,2.0,189.0,-1307.0
0.0,41.0,-267.0,525.0,612.0,206.0,-1.0,147.0,-1098.0
5.0,49.0,-224.0,364.0,693.0,196.0,19.0,158.0,-925.0
11.0,53.0,-202.0,249.0,747.0,174.0,52.0,201.0,-823.0
16.0,54.0,-218.0,204.0,759.0,145.0,92.0,145.0,-840.0
17.0,63.0,-226.0,183.0,722.0,120.0,86.0,242.0,-905.0
23.0,71.0,-249.0,185.0,647.0,94.0,110.0,223.0,-1000.0
14.0,86.0,-249.0,181.0,549.0,77.0,83.0,336.0,-995.0
3.0,95.0,-251.0,186.0,435.0,53.0,38.0,346.0,-1013.0
-4.0,94.0,-232.0,195.0,342.0,38.0,0.0,368.0,-955.0
-5.0,66.0,-225.0,200.0,261.0,29.0,-13.0,269.0,-902.0
-20.0,102.0,-219.0,213.0,210.0,15.0,-74.0,382.0,-903.0
-21.0,65.0,-206.0,204.0,175.0,17.0,-64.0,246.0,-827.0
-26.0,66.0,-214.0,206.0,149.0,9.0,-90.0,254.0,-876.0
-22.0,66.0,-216.0,210.0,133.0,5.0,-70.0,247.0,-877.0
-18.0,55.0,-219.0,195.0,108.0,7.0,-46.0,199.0,-888.0
-17.0,59.0,-227.0,188.0,84.0,5.0,-46.0,220.0,-920.0
-16.0,46.0,-228.0,193.0,64.0,8.0,-38.0,177.0,-920.0
-8.0,49.0,-235.0,217.0,36.0,13.0,-37.0,168.0,-937.0
-1.0,60.0,-242.0,240.0,14.0,14.0,19.0,242.0,-981.0
6.0,67.0,-238.0,237.0,8.0,15.0,16.0,239.0,-964.0
4.0,65.0,-235.0,223.0,-2.0,12.0,22.0,245.0,-959.0
5.0,68.0,-240.0,210.0,-14.0,11.0,27.0,262.0,-953.0
5.0,72.0,-236.0,200.0,-28.0,8.0,27.0,255.0,-955.0
5.0,68.0,-237.0,186.0,-42.0,3.0,34.0,261.0,-953.0
2.0,71.0,-241.0,165.0,-52.0,-8.0,39.0,271.0,-966.0
6.0,69.0,-233.0,127.0,-63.0,-17.0,33.0,263.0,-961.0
5.0,71.0,-237.0,87.0,-78.0,-32.0,40.0,268.0,-948.0
6.0,74.0,-235.0,50.0,-93.0,-48.0,40.0,274.0,-949.0
7.0,76.0,-235.0,13.0,-115.0,-64.0,41.0,293.0,-953.0
3.0,78.0,-237.0,-31.0,-139.0,-75.0,38.0,302.0,-952.0
4.0,80.0,-236.0,-74.0,-163.0,-88.0,31.0,308.0,-943.0
1.0,82.0,-232.0,-107.0,-187.0,-100.0,21.0,309.0,-939.0
-1.0,79.0,-229.0,-133.0,-210.0,-109.0,0.0,314.0,-929.0
-5.0,80.0,-229.0,-151.0,-231.0,-120.0,-4.0,303.0,-933.0
-5.0,75.0,-232.0,-160.0,-244.0,-129.0,-12.0,302.0,-931.0
-7.0,80.0,-230.0,-160.0,-256.0,-137.0,-26.0,306.0,-928.0
-12.0,79.0,-233.0,-153.0,-265.0,-146.0,-27.0,305.0,-939.0
-15.0,81.0,-228.0,-143.0,-271.0,-153.0,-39.0,318.0,-947.0
-13.0,76.0,-235.0,-125.0,-271.0,-160.0,-48.0,321.0,-949.0
-14.0,83.0,-236.0,-104.0,-270.0,-166.0,-47.0,321.0,-958.0
-15.0,83.0,-238.0,-84.0,-266.0,-166.0,-51.0,313.0,-969.0
-17.0,82.0,-242.0,-68.0,-260.0,-170.0,-59.0,315.0,-976.0
-18.0,81.0,-237.0,-56.0,-249.0,-171.0,-59.0,325.0,-970.0
-16.0,86.0,-241.0,-48.0,-237.0,-167.0,-53.0,339.0,-969.0
-18.0,89.0,-242.0,-47.0,-225.0,-162.0,-60.0,343.0,-975.0
-18.0,86.0,-241.0,-47.0,-214.0,-158.0,-62.0,345.0,-971.0
-16.0,90.0,-241.0,-43.0,-206.0,-153.0,-61.0,345.0,-979.0
-18.0,90.0,-240.0,-41.0,-203.0,-151.0,-69.0,349.0,-977.0
-22.0,90.0,-243.0,-43.0,-205.0,-148.0,-85.0,349.0,-983.0
-26.0,90.0,-240.0,-48.0,-209.0,-144.0,-95.0,350.0,-974.0
-28.0,90.0,-237.0,-49.0,-212.0,-140.0,-96.0,356.0,-969.0
-28.0,111.0,-241.0,-43.0,-212.0,-137.0,-104.0,351.0,-961.0
-30.0,87.0,-235.0,-33.0,-210.0,-133.0,-104.0,344.0,-952.0
-29.0,85.0,-238.0,-19.0,-204.0,-125.0,-101.0,342.0,-945.0
-28.0,83.0,-232.0,1.0,-198.0,-119.0,-103.0,339.0,-939.0
-27.0,84.0,-233.0,21.0,-189.0,-112.0,-100.0,328.0,-940.0
-27.0,81.0,-235.0,38.0,-184.0,-106.0,-101.0,326.0,-945.0
-29.0,82.0,-235.0,53.0,-173.0,-101.0,-98.0,322.0,-950.0
-24.0,78.0,-233.0,63.0,-163.0,-93.0,-92.0,321.0,-950.0
-25.0,80.0,-234.0,70.0,-150.0,-87.0,-97.0,318.0,-946.0
-24.0,84.0,-239.0,78.0,-137.0,-82.0,-89.0,330.0,-953.0
-23.0,82.0,-234.0,84.0,-124.0,-76.0,-89.0,316.0,-944.0
-22.0,72.0,-234.0,93.0,-112.0,-75.0,-85.0,282.0,-942.0
-22.0,88.0,-239.0,106.0,-96.0,-72.0,-76.0,351.0,-958.0
-22.0,80.0,-231.0,101.0,-88.0,-71.0,-79.0,305.0,-942.0
-23.0,83.0,-235.0,106.0,-83.0,-71.0,-76.0,319.0,-947.0
-19.0,81.0,-240.0,113.0,-79.0,-69.0,-77.0,309.0,-960.0
-22.0,78.0,-236.0,112.0,-75.0,-69.0,-76.0,314.0,-965.0
-24.0,77.0,-239.0,117.0,-74.0,-68.0,-77.0,302.0,-966.0
-26.0,79.0,-243.0,120.0,-74.0,-67.0,-81.0,299.0,-976.0
-24.0,82.0,-233.0,123.0,-74.0,-67.0,-91.0,317.0,-977.0
-28.0,81.0,-237.0,122.0,-75.0,-67.0,-98.0,321.0,-968.0
-29.0,81.0,-236.0,122.0,-76.0,-67.0,-96.0,308.0,-955.0
-23.0,79.0,-235.0,123.0,-75.0,-66.0,-92.0,315.0,-963.0
-26.0,81.0,-235.0,124.0,-71.0,-64.0,-93.0,308.0,-956.0
-27.0,80.0,-234.0,130.0,-69.0,-62.0,-95.0,305.0,-945.0
-29.0,80.0,-238.0,133.0,-69.0,-61.0,-96.0,307.0,-952.0
-27.0,78.0,-236.0,131.0,-64.0,-58.0,-96.0,298.0,-953.0
-25.0,71.0,-237.0,131.0,-61.0,-56.0,-93.0,275.0,-945.0
-24.0,68.0,-236.0,130.0,-59.0,-52.0,-83.0,258.0,-940.0
-27.0,79.0,-234.0,128.0,-56.0,-51.0,-98.0,305.0,-944.0
-31.0,78.0,-235.0,128.0,-55.0,-49.0,-98.0,297.0,-942.0
-27.0,77.0,-229.0,124.0,-48.0,-49.0,-91.0,306.0,-927.0
-26.0,77.0,-227.0,122.0,-38.0,-52.0,-93.0,297.0,-930.0
-22.0,76.0,-231.0,120.0,-29.0,-50.0,-82.0,295.0,-929.0
-25.0,76.0,-231.0,124.0,-23.0,-51.0,-85.0,290.0,-939.0
-28.0,76.0,-234.0,124.0,-21.0,-52.0,-93.0,293.0,-940.0
-25.0,75.0,-230.0,125.0,-21.0,-52.0,-87.0,290.0,-948.0
-28.0,75.0,-234.0,123.0,-20.0,-50.0,-88.0,292.0,-953.0
-27.0,74.0,-235.0,119.0,-22.0,-47.0,-94.0,285.0,-951.0
-25.0,71.0,-240.0,114.0,-19.0,-44.0,-84.0,267.0,-955.0
-25.0,71.0,-233.0,110.0,-17.0,-41.0,-85.0,277.0,-960.0
-28.0,83.0,-238.0,103.0,-14.0,-40.0,-98.0,312.0,-958.0
-28.0,77.0,-237.0,96.0,-12.0,-39.0,-96.0,304.0,-949.0
-25.0,74.0,-233.0,90.0,-11.0,-38.0,-101.0,303.0,-943.0
-28.0,75.0,-234.0,83.0,-10.0,-35.0,-89.0,297.0,-952.0
-28.0,78.0,-236.0,78.0,-9.0,-32.0,-93.0,304.0,-954.0
-25.0,77.0,-238.0,72.0,-10.0,-31.0,-91.0,293.0,-960.0
-27.0,76.0,-238.0,66.0,-12.0,-29.0,-94.0,292.0,-970.0
-24.0,76.0,-238.0,58.0,-13.0,-27.0,-94.0,289.0,-954.0
-26.0,75.0,-238.0,51.0,-11.0,-25.0,-94.0,292.0,-958.0
-26.0,75.0,-234.0,44.0,-8.0,-23.0,-98.0,292.0,-945.0
-27.0,76.0,-233.0,43.0,-6.0,-20.0,-97.0,295.0,-948.0
-27.0,75.0,-233.0,45.0,-4.0,-17.0,-91.0,293.0,-950.0
-27.0,78.0,-230.0,47.0,0.0,-18.0,-91.0,296.0,-951.0
-28.0,76.0,-241.0,49.0,2.0,-15.0,-97.0,296.0,-949.0
-25.0,76.0,-233.0,51.0,3.0,-12.0,-87.0,297.0,-947.0
-21.0,72.0,-236.0,52.0,3.0,-14.0,-79.0,284.0,-960.0
-22.0,74.0,-233.0,51.0,4.0,-16.0,-92.0,291.0,-955.0
-26.0,73.0,-235.0,51.0,5.0,-17.0,-92.0,295.0,-957.0
-25.0,75.0,-238.0,52.0,6.0,-16.0,-89.0,291.0,-957.0
-23.0,75.0,-233.0,51.0,7.0,-14.0,-87.0,299.0,-949.0
-25.0,80.0,-234.0,49.0,7.0,-13.0,-99.0,296.0,-948.0
-26.0,77.0,-234.0,49.0,6.0,-13.0,-97.0,298.0,-954.0
-26.0,77.0,-234.0,47.0,5.0,-12.0,-95.0,296.0,-945.0
-28.0,78.0,-235.0,45.0,5.0,-12.0,-96.0,295.0,-953.0
-27.0,79.0,-237.0,43.0,6.0,-12.0,-96.0,297.0,-946.0
-26.0,78.0,-236.0,42.0,7.0,-10.0,-99.0,299.0,-944.0
-28.0,78.0,-235.0,44.0,9.0,-11.0,-95.0,294.0,-945.0
-31.0,78.0,-233.0,47.0,10.0,-11.0,-90.0,296.0,-939.0
-27.0,76.0,-233.0,46.0,11.0,-10.0,-86.0,295.0,-944.0
-26.0,76.0,-236.0,45.0,12.0,-10.0,-85.0,294.0,-947.0
-25.0,77.0,-233.0,45.0,12.0,-6.0,-93.0,292.0,-949.0
-26.0,77.0,-232.0,42.0,12.0,-6.0,-94.0,300.0,-951.0
-26.0,73.0,-236.0,40.0,12.0,-6.0,-100.0,295.0,-950.0
-26.0,77.0,-231.0,42.0,14.0,-5.0,-92.0,300.0,-954.0
-27.0,77.0,-235.0,42.0,15.0,-5.0,-100.0,301.0,-953.0
-26.0,78.0,-235.0,44.0,16.0,-6.0,-96.0,305.0,-958.0
-28.0,78.0,-237.0,45.0,16.0,-6.0,-98.0,300.0,-948.0
-29.0,75.0,-235.0,48.0,17.0,-6.0,-101.0,302.0,-958.0
-27.0,77.0,-237.0,50.0,18.0,-7.0,-95.0,303.0,-953.0
-26.0,77.0,-233.0,52.0,20.0,-7.0,-95.0,297.0,-954.0
-25.0,76.0,-234.0,55.0,21.0,-5.0,-92.0,299.0,-956.0
-28.0,77.0,-236.0,55.0,23.0,-6.0,-96.0,297.0,-951.0
-26.0,74.0,-235.0,57.0,23.0,-6.0,-97.0,296.0,-953.0
-28.0,77.0,-237.0,58.0,25.0,-6.0,-92.0,296.0,-958.0
-24.0,77.0,-235.0,59.0,23.0,-6.0,-88.0,297.0,-962.0
-23.0,76.0,-235.0,58.0,21.0,-6.0,-93.0,296.0,-958.0
-26.0,77.0,-238.0,55.0,18.0,-8.0,-93.0,288.0,-953.0
-27.0,77.0,-237.0,54.0,15.0,-7.0,-96.0,293.0,-958.0
-23.0,76.0,-233.0,51.0,13.0,-8.0,-91.0,297.0,-953.0
-30.0,77.0,-234.0,51.0,15.0,-7.0,-92.0,297.0,-957.0
-25.0,76.0,-236.0,53.0,14.0,-7.0,-93.0,296.0,-958.0
-29.0,75.0,-237.0,53.0,13.0,-8.0,-92.0,289.0,-962.0
-27.0,76.0,-235.0,53.0,13.0,-8.0,-94.0,298.0,-956.0
-25.0,74.0,-238.0,55.0,14.0,-8.0,-95.0,292.0,-957.0
-28.0,76.0,-235.0,56.0,13.0,-9.0,-89.0,297.0,-959.0
-22.0,74.0,-233.0,56.0,14.0,-10.0,-93.0,292.0,-958.0
-28.0,79.0,-237.0,55.0,12.0,-8.0,-95.0,298.0,-954.0
-26.0,77.0,-241.0,54.0,10.0,-9.0,-93.0,292.0,-962.0
-27.0,80.0,-238.0,54.0,9.0,-9.0,-96.0,297.0,-964.0
-27.0,78.0,-237.0,51.0,8.0,-8.0,-99.0,300.0,-959.0
-23.0,76.0,-235.0,49.0,8.0,-9.0,-92.0,297.0,-964.0
-22.0,75.0,-238.0,49.0,10.0,-8.0,-90.0,301.0,-961.0
-26.0,79.0,-237.0,48.0,10.0,-7.0,-97.0,296.0,-965.0
-27.0,76.0,-237.0,48.0,11.0,-7.0,-89.0,297.0,-964.0
-25.0,75.0,-230.0,45.0,10.0,-9.0,-89.0,294.0,-948.0
-27.0,75.0,-234.0,43.0,8.0,-9.0,-94.0,291.0,-951.0
-28.0,76.0,-233.0,43.0,8.0,-9.0,-94.0,294.0,-952.0
-25.0,75.0,-236.0,44.0,7.0,-9.0,-94.0,295.0,-953.0
-25.0,76.0,-236.0,45.0,7.0,-9.0,-99.0,300.0,-952.0
-25.0,77.0,-236.0,47.0,8.0,-10.0,-94.0,295.0,-949.0
-26.0,76.0,-235.0,49.0,8.0,-10.0,-95.0,299.0,-958.0
-26.0,80.0,-237.0,50.0,8.0,-11.0,-100.0,293.0,-955.0
-28.0,80.0,-237.0,50.0,7.0,-8.0,-99.0,292.0,-959.0
-28.0,77.0,-237.0,47.0,8.0,-9.0,-98.0,298.0,-949.0
-25.0,79.0,-234.0,45.0,10.0,-9.0,-99.0,296.0,-946.0
-26.0,78.0,-234.0,46.0,11.0,-9.0,-95.0,299.0,-947.0
-28.0,77.0,-239.0,53.0,12.0,-8.0,-93.0,300.0,-949.0
-26.0,77.0,-239.0,58.0,12.0,-10.0,-96.0,294.0,-960.0
-25.0,76.0,-234.0,63.0,12.0,-10.0,-93.0,300.0,-965.0
-27.0,77.0,-237.0,62.0,12.0,-10.0,-92.0,295.0,-969.0
-29.0,78.0,-237.0,63.0,11.0,-9.0,-97.0,297.0,-963.0
-28.0,77.0,-233.0,61.0,11.0,-10.0,-96.0,298.0,-961.0
-26.0,77.0,-238.0,59.0,11.0,-8.0,-97.0,296.0,-945.0
-25.0,77.0,-237.0,54.0,10.0,-9.0,-86.0,293.0,-951.0
-30.0,76.0,-233.0,50.0,9.0,-11.0,-90.0,298.0,-940.0
-25.0,75.0,-237.0,50.0,8.0,-12.0,-91.0,296.0,-946.0
-24.0,75.0,-228.0,51.0,6.0,-13.0,-90.0,293.0,-951.0
-27.0,74.0,-231.0,55.0,3.0,-12.0,-94.0,295.0,-951.0
-29.0,77.0,-239.0,62.0,0.0,-13.0,-97.0,297.0,-960.0
-30.0,76.0,-240.0,66.0,2.0,-10.0,-100.0,295.0,-971.0
-13.0,82.0,-242.0,65.0,2.0,-11.0,-97.0,294.0,-962.0
-27.0,79.0,-238.0,63.0,4.0,-10.0,-94.0,299.0,-957.0
-25.0,75.0,-237.0,60.0,3.0,-12.0,-91.0,293.0,-962.0
-28.0,77.0,-236.0,56.0,4.0,-13.0,-92.0,301.0,-961.0
-29.0,77.0,-235.0,52.0,4.0,-12.0,-96.0,295.0,-958.0
-26.0,76.0,-234.0,46.0,2.0,-10.0,-96.0,297.0,-953.0
-29.0,79.0,-236.0,42.0,2.0,-10.0,-89.0,289.0,-960.0
-23.0,78.0,-232.0,38.0,-2.0,-9.0,-98.0,289.0,-951.0
-28.0,75.0,-234.0,37.0,-4.0,-9.0,-95.0,300.0,-947.0
-28.0,79.0,-233.0,38.0,-6.0,-11.0,-98.0,295.0,-957.0
-24.0,77.0,-232.0,38.0,-7.0,-8.0,-94.0,297.0,-946.0
-27.0,74.0,-235.0,40.0,-5.0,-10.0,-98.0,298.0,-955.0
-31.0,71.0,-232.0,42.0,-4.0,-10.0,-91.0,296.0,-944.0
-25.0,76.0,-234.0,44.0,-1.0,-9.0,-94.0,297.0,-948.0
-26.0,76.0,-234.0,45.0,2.0,-10.0,-97.0,298.0,-953.0
-25.0,77.0,-239.0,47.0,2.0,-7.0,-97.0,294.0,-953.0
-23.0,74.0,-233.0,49.0,3.0,-9.0,-98.0,296.0,-951.0
-25.0,74.0,-236.0,49.0,4.0,-10.0,-94.0,294.0,-946.0
-27.0,77.0,-230.0,51.0,5.0,-10.0,-93.0,298.0,-948.0
-27.0,76.0,-234.0,53.0,5.0,-11.0,-97.0,301.0,-957.0
-29.0,77.0,-235.0,54.0,3.0,-11.0,-98.0,298.0,-955.0
-26.0,77.0,-235.0,55.0,4.0,-10.0,-101.0,301.0,-951.0
-26.0,79.0,-240.0,53.0,5.0,-11.0,-95.0,298.0,-960.0
-28.0,76.0,-237.0,53.0,5.0,-10.0,-100.0,299.0,-955.0
-30.0,76.0,-236.0,51.0,4.0,-10.0,-97.0,300.0,-960.0
-27.0,78.0,-238.0,50.0,7.0,-9.0,-100.0,306.0,-960.0
-29.0,79.0,-236.0,48.0,9.0,-10.0,-97.0,300.0,-952.0
-28.0,80.0,-234.0,46.0,11.0,-11.0,-96.0,299.0,-960.0
-25.0,77.0,-239.0,45.0,11.0,-11.0,-95.0,297.0,-955.0
-25.0,77.0,-238.0,44.0,10.0,-9.0,-98.0,298.0,-956.0
-26.0,75.0,-235.0,44.0,10.0,-11.0,-90.0,295.0,-963.0
-25.0,75.0,-237.0,44.0,9.0,-10.0,-89.0,298.0,-951.0
-25.0,80.0,-238.0,44.0,7.0,-9.0,-94.0,300.0,-951.0
-26.0,81.0,-235.0,44.0,6.0,-9.0,-91.0,297.0,-960.0
-26.0,78.0,-238.0,43.0,8.0,-8.0,-96.0,299.0,-953.0
-29.0,79.0,-234.0,44.0,7.0,-7.0,-96.0,296.0,-953.0
-26.0,76.0,-234.0,43.0,6.0,-7.0,-90.0,295.0,-959.0
-27.0,80.0,-235.0,46.0,5.0,-6.0,-94.0,295.0,-955.0
-26.0,76.0,-239.0,48.0,3.0,-7.0,-95.0,299.0,-959.0
-26.0,79.0,-233.0,50.0,3.0,-7.0,-99.0,298.0,-957.0
-23.0,76.0,-234.0,51.0,2.0,-8.0,-96.0,298.0,-950.0
-25.0,79.0,-238.0,52.0,3.0,-10.0,-97.0,298.0,-947.0
-26.0,75.0,-232.0,52.0,3.0,-8.0,-98.0,295.0,-949.0
-26.0,79.0,-229.0,53.0,5.0,-9.0,-91.0,292.0,-943.0
-27.0,78.0,-231.0,53.0,6.0,-9.0,-90.0,292.0,-945.0
-25.0,76.0,-234.0,53.0,5.0,-12.0,-93.0,292.0,-951.0
-31.0,79.0,-234.0,55.0,6.0,-10.0,-93.0,290.0,-946.0
-28.0,78.0,-234.0,57.0,5.0,-10.0,-100.0,294.0,-948.0
-26.0,76.0,-233.0,58.0,6.0,-10.0,-98.0,296.0,-955.0
-26.0,76.0,-231.0,56.0,8.0,-11.0,-98.0,298.0,-946.0
-28.0,76.0,-234.0,54.0,7.0,-11.0,-100.0,295.0,-945.0
-28.0,78.0,-236.0,52.0,8.0,-10.0,-101.0,292.0,-956.0
-26.0,79.0,-234.0,51.0,8.0,-10.0,-98.0,293.0,-957.0
-28.0,78.0,-237.0,50.0,7.0,-9.0,-94.0,295.0,-955.0
-28.0,79.0,-236.0,50.0,8.0,-9.0,-97.0,290.0,-960.0
-29.0,78.0,-239.0,48.0,7.0,-10.0,-97.0,296.0,-959.0
-28.0,81.0,-234.0,48.0,6.0,-10.0,-96.0,298.0,-957.0
-28.0,77.0,-234.0,46.0,7.0,-12.0,-95.0,297.0,-954.0
-26.0,72.0,-233.0,46.0,5.0,-11.0,-103.0,296.0,-959.0
-28.0,79.0,-236.0,47.0,4.0,-9.0,-103.0,293.0,-950.0
-26.0,75.0,-235.0,48.0,3.0,-11.0,-99.0,296.0,-956.0
-29.0,79.0,-237.0,50.0,3.0,-11.0,-99.0,299.0,-954.0
-29.0,79.0,-238.0,55.0,2.0,-13.0,-98.0,292.0,-957.0
-28.0,78.0,-235.0,60.0,1.0,-12.0,-98.0,295.0,-955.0
-27.0,78.0,-237.0,64.0,2.0,-12.0,-94.0,303.0,-957.0
-26.0,80.0,-236.0,67.0,1.0,-13.0,-93.0,299.0,-952.0
-27.0,78.0,-239.0,66.0,1.0,-14.0,-92.0,296.0,-951.0
-27.0,75.0,-236.0,65.0,3.0,-14.0,-96.0,298.0,-954.0
-27.0,75.0,-235.0,63.0,4.0,-14.0,-94.0,301.0,-951.0
-26.0,78.0,-232.0,62.0,5.0,-11.0,-95.0,299.0,-951.0
-25.0,74.0,-236.0,60.0,5.0,-10.0,-102.0,298.0,-956.0
-28.0,79.0,-239.0,59.0,5.0,-10.0,-105.0,303.0,-963.0
-28.0,78.0,-235.0,56.0,6.0,-11.0,-96.0,297.0,-954.0
-29.0,78.0,-239.0,55.0,6.0,-9.0,-99.0,300.0,-961.0
-27.0,77.0,-231.0,54.0,7.0,-8.0,-93.0,299.0,-957.0
-27.0,76.0,-236.0,52.0,9.0,-8.0,-102.0,298.0,-961.0
-30.0,78.0,-234.0,50.0,9.0,-8.0,-96.0,295.0,-961.0
-27.0,76.0,-236.0,50.0,11.0,-8.0,-96.0,304.0,-953.0
-27.0,77.0,-237.0,50.0,11.0,-9.0,-95.0,299.0,-951.0
-29.0,80.0,-233.0,51.0,12.0,-8.0,-102.0,296.0,-960.0
-27.0,79.0,-234.0,51.0,12.0,-7.0,-98.0,298.0,-958.0
-27.0,77.0,-237.0,50.0,14.0,-8.0,-97.0,295.0,-957.0
-26.0,78.0,-234.0,51.0,16.0,-7.0,-97.0,299.0,-960.0
-29.0,76.0,-238.0,50.0,17.0,-7.0,-94.0,298.0,-954.0
-26.0,77.0,-238.0,49.0,17.0,-6.0,-96.0,302.0,-961.0
-27.0,77.0,-239.0,47.0,15.0,-6.0,-98.0,298.0,-958.0
-27.0,78.0,-235.0,46.0,14.0,-6.0,-97.0,293.0,-960.0
-28.0,77.0,-238.0,45.0,14.0,-6.0,-98.0,301.0,-963.0
-27.0,77.0,-235.0,46.0,13.0,-6.0,-99.0,298.0,-959.0
-30.0,79.0,-238.0,44.0,11.0,-5.0,-97.0,298.0,-954.0
-28.0,81.0,-238.0,44.0,10.0,-5.0,-97.0,296.0,-959.0
-27.0,78.0,-238.0,45.0,10.0,-3.0,-94.0,298.0,-957.0
-27.0,80.0,-239.0,44.0,11.0,-4.0,-96.0,300.0,-954.0
-27.0,78.0,-236.0,43.0,11.0,-3.0,-97.0,295.0,-955.0
-27.0,75.0,-236.0,45.0,10.0,-4.0,-97.0,295.0,-954.0
-29.0,79.0,-232.0,46.0,9.0,-4.0,-98.0,294.0,-953.0
-27.0,74.0,-237.0,46.0,9.0,-2.0,-98.0,299.0,-955.0
-28.0,76.0,-236.0,49.0,8.0,-3.0,-97.0,300.0,-953.0
-27.0,74.0,-232.0,48.0,7.0,-3.0,-99.0,297.0,-949.0
-28.0,77.0,-234.0,50.0,8.0,-4.0,-96.0,296.0,-955.0
-26.0,73.0,-234.0,50.0,6.0,-5.0,-93.0,295.0,-956.0
-26.0,76.0,-236.0,52.0,7.0,-5.0,-98.0,299.0,-957.0
-26.0,77.0,-234.0,51.0,7.0,-6.0,-95.0,293.0,-950.0
-25.0,75.0,-234.0,53.0,8.0,-6.0,-95.0,298.0,-948.0
-28.0,75.0,-234.0,54.0,8.0,-6.0,-98.0,298.0,-949.0
-29.0,74.0,-237.0,56.0,8.0,-7.0,-98.0,295.0,-948.0
-26.0,73.0,-235.0,58.0,8.0,-8.0,-101.0,286.0,-956.0
-25.0,75.0,-233.0,59.0,7.0,-9.0,-92.0,295.0,-955.0
-28.0,78.0,-232.0,57.0,7.0,-8.0,-96.0,298.0,-954.0
-30.0,80.0,-234.0,59.0,7.0,-8.0,-96.0,298.0,-955.0
-30.0,77.0,-235.0,55.0,8.0,-8.0,-97.0,300.0,-954.0
-27.0,76.0,-234.0,52.0,6.0,-7.0,-90.0,299.0,-958.0
-27.0,78.0,-239.0,51.0,5.0,-8.0,-97.0,297.0,-948.0
-28.0,75.0,-234.0,49.0,4.0,-7.0,-97.0,297.0,-958.0
-27.0,77.0,-239.0,47.0,2.0,-7.0,-92.0,291.0,-950.0
-23.0,78.0,-235.0,46.0,3.0,-7.0,-96.0,297.0,-951.0
-26.0,77.0,-236.0,46.0,3.0,-8.0,-96.0,299.0,-957.0
-30.0,79.0,-235.0,47.0,3.0,-7.0,-95.0,300.0,-956.0
-28.0,76.0,-238.0,48.0,3.0,-6.0,-96.0,300.0,-950.0
-26.0,75.0,-232.0,49.0,3.0,-7.0,-100.0,295.0,-957.0
-26.0,76.0,-236.0,50.0,4.0,-6.0,-96.0,299.0,-950.0
-26.0,75.0,-236.0,49.0,4.0,-7.0,-95.0,291.0,-945.0
-26.0,75.0,-235.0,47.0,4.0,-7.0,-97.0,296.0,-949.0
-25.0,78.0,-236.0,46.0,4.0,-7.0,-89.0,303.0,-951.0
-26.0,77.0,-236.0,46.0,4.0,-6.0,-96.0,304.0,-944.0
-26.0,78.0,-229.0,47.0,4.0,-7.0,-96.0,299.0,-951.0
-29.0,81.0,-237.0,49.0,5.0,-7.0,-102.0,299.0,-947.0
-29.0,75.0,-235.0,52.0,5.0,-8.0,-105.0,296.0,-945.0
-27.0,77.0,-233.0,53.0,6.0,-7.0,-98.0,296.0,-946.0
-26.0,74.0,-235.0,54.0,8.0,-8.0,-100.0,295.0,-948.0
-30.0,79.0,-232.0,55.0,10.0,-8.0,-97.0,296.0,-946.0
-31.0,76.0,-234.0,53.0,11.0,-9.0,-99.0,301.0,-948.0
-28.0,80.0,-232.0,53.0,11.0,-8.0,-103.0,295.0,-945.0
-28.0,79.0,-234.0,54.0,13.0,-8.0,-95.0,299.0,-952.0
-28.0,75.0,-235.0,53.0,12.0,-8.0,-100.0,299.0,-949.0
-30.0,79.0,-237.0,53.0,12.0,-9.0,-98.0,299.0,-953.0
-28.0,76.0,-234.0,54.0,12.0,-8.0,-94.0,293.0,-954.0
-24.0,80.0,-242.0,55.0,15.0,-9.0,-99.0,294.0,-959.0
-28.0,78.0,-236.0,55.0,15.0,-8.0,-98.0,297.0,-962.0
-27.0,79.0,-234.0,54.0,14.0,-7.0,-97.0,300.0,-960.0
-24.0,75.0,-235.0,53.0,14.0,-9.0,-95.0,298.0,-955.0
-31.0,80.0,-242.0,54.0,12.0,-9.0,-91.0,300.0,-956.0
-24.0,75.0,-235.0,53.0,12.0,-9.0,-98.0,297.0,-957.0
-27.0,77.0,-236.0,55.0,12.0,-9.0,-95.0,295.0,-957.0
-27.0,77.0,-236.0,54.0,12.0,-8.0,-100.0,299.0,-963.0
-31.0,77.0,-236.0,52.0,12.0,-8.0,-100.0,297.0,-956.0
-28.0,77.0,-237.0,51.0,12.0,-8.0,-99.0,296.0,-957.0
-29.0,80.0,-237.0,49.0,11.0,-9.0,-96.0,298.0,-950.0
-28.0,76.0,-237.0,47.0,10.0,-7.0,-99.0,298.0,-961.0
-27.0,78.0,-235.0,45.0,11.0,-9.0,-92.0,294.0,-956.0
-30.0,78.0,-235.0,43.0,11.0,-8.0,-101.0,296.0,-956.0
-30.0,78.0,-235.0,43.0,11.0,-8.0,-100.0,299.0,-954.0
-27.0,79.0,-235.0,43.0,11.0,-7.0,-102.0,299.0,-949.0
-25.0,80.0,-231.0,43.0,13.0,-7.0,-93.0,299.0,-949.0
-23.0,77.0,-234.0,42.0,14.0,-7.0,-96.0,299.0,-944.0
-29.0,79.0,-233.0,43.0,13.0,-7.0,-98.0,296.0,-952.0
-27.0,76.0,-236.0,44.0,14.0,-6.0,-97.0,297.0,-952.0
-28.0,78.0,-235.0,45.0,13.0,-7.0,-100.0,297.0,-957.0
-30.0,81.0,-234.0,45.0,12.0,-7.0,-99.0,301.0,-946.0
-27.0,78.0,-239.0,46.0,12.0,-8.0,-98.0,304.0,-956.0
-26.0,77.0,-236.0,51.0,13.0,-8.0,-95.0,299.0,-955.0
-27.0,76.0,-237.0,50.0,11.0,-9.0,-102.0,302.0,-953.0
-26.0,75.0,-233.0,48.0,13.0,-10.0,-102.0,297.0,-952.0
-27.0,77.0,-234.0,48.0,14.0,-9.0,-97.0,301.0,-950.0
-26.0,77.0,-232.0,49.0,15.0,-8.0,-96.0,302.0,-956.0
-28.0,77.0,-237.0,52.0,16.0,-10.0,-92.0,299.0,-958.0
-26.0,77.0,-239.0,54.0,13.0,-11.0,-102.0,299.0,-956.0
-30.0,77.0,-236.0,56.0,14.0,-11.0,-98.0,298.0,-957.0
-26.0,78.0,-239.0,55.0,13.0,-10.0,-99.0,298.0,-957.0
-29.0,78.0,-234.0,54.0,12.0,-9.0,-100.0,299.0,-954.0
-27.0,76.0,-236.0,53.0,10.0,-9.0,-94.0,296.0,-954.0
-29.0,76.0,-235.0,50.0,10.0,-9.0,-97.0,294.0,-945.0
-27.0,78.0,-228.0,46.0,9.0,-9.0,-101.0,298.0,-952.0
-26.0,77.0,-234.0,42.0,7.0,-9.0,-95.0,293.0,-943.0
-27.0,76.0,-234.0,39.0,7.0,-11.0,-97.0,297.0,-942.0
-30.0,76.0,-234.0,39.0,6.0,-10.0,-104.0,294.0,-945.0
-29.0,77.0,-235.0,41.0,6.0,-11.0,-97.0,298.0,-948.0
-28.0,76.0,-237.0,45.0,7.0,-10.0,-100.0,301.0,-944.0
-28.0,79.0,-234.0,49.0,8.0,-10.0,-99.0,293.0,-958.0
-29.0,79.0,-236.0,53.0,10.0,-11.0,-103.0,296.0,-960.0
-26.0,77.0,-240.0,55.0,12.0,-10.0,-105.0,307.0,-967.0
-27.0,78.0,-235.0,56.0,14.0,-8.0,-98.0,306.0,-958.0
-28.0,78.0,-239.0,55.0,14.0,-9.0,-102.0,299.0,-963.0
-30.0,78.0,-238.0,54.0,15.0,-9.0,-98.0,298.0,-962.0
-29.0,78.0,-237.0,50.0,15.0,-10.0,-96.0,302.0,-962.0
-27.0,80.0,-236.0,46.0,14.0,-10.0,-99.0,302.0,-961.0
-31.0,83.0,-240.0,41.0,12.0,-8.0,-98.0,299.0,-962.0
-25.0,79.0,-235.0,39.0,10.0,-8.0,-93.0,300.0,-958.0
-30.0,76.0,-235.0,38.0,7.0,-9.0,-96.0,306.0,-949.0
-27.0,79.0,-233.0,41.0,6.0,-8.0,-98.0,297.0,-959.0
-28.0,79.0,-234.0,44.0,8.0,-8.0,-97.0,305.0,-954.0
-26.0,76.0,-237.0,46.0,9.0,-8.0,-96.0,299.0,-950.0
-29.0,79.0,-237.0,48.0,10.0,-10.0,-100.0,302.0,-958.0
-25.0,76.0,-235.0,50.0,10.0,-9.0,-102.0,305.0,-953.0
-27.0,76.0,-235.0,48.0,9.0,-7.0,-96.0,301.0,-956.0
-28.0,79.0,-236.0,48.0,10.0,-9.0,-97.0,300.0,-948.0
-28.0,77.0,-236.0,48.0,10.0,-9.0,-101.0,297.0,-947.0
-28.0,78.0,-234.0,48.0,11.0,-9.0,-96.0,298.0,-949.0
-29.0,78.0,-234.0,47.0,11.0,-9.0,-102.0,301.0,-951.0
-27.0,79.0,-237.0,49.0,15.0,-7.0,-101.0,301.0,-952.0
