acc1_x,acc1_y,acc1_z,gyro_x,gyro_y,gyro_z,acc2_x,acc2_y,acc2_z
14.0,-239.0,-65.0,62.0,4.0,-21.0,53.0,-992.0,-230.0
14.0,-243.0,-64.0,60.0,4.0,-19.0,56.0,-998.0,-232.0
15.0,-244.0,-65.0,59.0,1.0,-20.0,55.0,-998.0,-237.0
16.0,-244.0,-67.0,58.0,0.0,-22.0,56.0,-1001.0,-236.0
15.0,-245.0,-67.0,58.0,-2.0,-23.0,56.0,-1005.0,-242.0
15.0,-244.0,-67.0,58.0,-3.0,-24.0,58.0,-1003.0,-244.0
13.0,-244.0,-65.0,58.0,-4.0,-26.0,54.0,-1004.0,-238.0
15.0,-246.0,-68.0,62.0,-5.0,-27.0,58.0,-1005.0,-237.0
16.0,-246.0,-65.0,63.0,-6.0,-29.0,57.0,-1004.0,-235.0
16.0,-246.0,-64.0,65.0,-7.0,-30.0,60.0,-1004.0,-240.0
14.0,-246.0,-66.0,67.0,-7.0,-30.0,56.0,-1006.0,-233.0
16.0,-246.0,-66.0,70.0,-5.0,-32.0,61.0,-1009.0,-237.0
15.0,-243.0,-64.0,75.0,-3.0,-31.0,59.0,-1003.0,-239.0
18.0,-245.0,-68.0,80.0,0.0,-35.0,61.0,-1005.0,-227.0
14.0,-244.0,-49.0,87.0,0.0,-34.0,70.0,-1005.0,-236.0
18.0,-247.0,-66.0,91.0,1.0,-33.0,67.0,-1007.0,-233.0
21.0,-245.0,-62.0,94.0,1.0,-31.0,64.0,-1005.0,-228.0
17.0,-242.0,-67.0,96.0,0.0,-31.0,67.0,-1000.0,-227.0
19.0,-242.0,-63.0,100.0,-1.0,-31.0,67.0,-997.0,-231.0
19.0,-243.0,-63.0,103.0,-1.0,-29.0,66.0,-995.0,-227.0
17.0,-242.0,-63.0,105.0,0.0,-27.0,67.0,-995.0,-226.0
19.0,-242.0,-63.0,105.0,0.0,-26.0,66.0,-995.0,-222.0
19.0,-244.0,-63.0,104.0,0.0,-24.0,66.0,-992.0,-217.0
17.0,-242.0,-59.0,101.0,-1.0,-23.0,63.0,-992.0,-215.0
15.0,-242.0,-62.0,95.0,1.0,-22.0,66.0,-998.0,-212.0
17.0,-244.0,-57.0,90.0,2.0,-21.0,65.0,-988.0,-209.0
18.0,-245.0,-62.0,84.0,1.0,-19.0,66.0,-987.0,-208.0
17.0,-240.0,-62.0,78.0,2.0,-18.0,70.0,-990.0,-217.0
19.0,-243.0,-58.0,72.0,4.0,-17.0,63.0,-991.0,-208.0
17.0,-239.0,-61.0,67.0,6.0,-16.0,66.0,-988.0,-213.0
16.0,-241.0,-63.0,59.0,6.0,-16.0,70.0,-996.0,-212.0
16.0,-243.0,-60.0,54.0,7.0,-14.0,64.0,-992.0,-215.0
19.0,-241.0,-60.0,52.0,7.0,-10.0,71.0,-1000.0,-216.0
17.0,-242.0,-63.0,51.0,9.0,-10.0,63.0,-997.0,-217.0
17.0,-241.0,-62.0,50.0,11.0,-8.0,70.0,-995.0,-216.0
21.0,-243.0,-59.0,49.0,13.0,-9.0,69.0,-991.0,-223.0
19.0,-242.0,-59.0,49.0,15.0,-8.0,74.0,-990.0,-218.0
17.0,-241.0,-61.0,50.0,16.0,-7.0,69.0,-984.0,-221.0
19.0,-241.0,-62.0,49.0,17.0,-5.0,69.0,-983.0,-216.0
18.0,-241.0,-62.0,47.0,17.0,-5.0,65.0,-988.0,-214.0
20.0,-244.0,-61.0,44.0,17.0,-6.0,64.0,-982.0,-224.0
16.0,-241.0,-61.0,37.0,18.0,-6.0,62.0,-991.0,-215.0
16.0,-242.0,-57.0,30.0,16.0,-8.0,57.0,-990.0,-215.0
15.0,-240.0,-62.0,23.0,17.0,-9.0,61.0,-994.0,-208.0
17.0,-243.0,-62.0,19.0,18.0,-7.0,62.0,-1001.0,-213.0
19.0,-247.0,-59.0,16.0,18.0,-7.0,60.0,-1004.0,-212.0
16.0,-247.0,-60.0,19.0,18.0,-4.0,63.0,-1011.0,-224.0
18.0,-254.0,-58.0,26.0,17.0,-5.0,62.0,-1006.0,-229.0
16.0,-249.0,-63.0,32.0,17.0,-6.0,62.0,-1012.0,-236.0
19.0,-246.0,-63.0,38.0,16.0,-5.0,70.0,-1007.0,-235.0
16.0,-246.0,-67.0,43.0,16.0,-7.0,72.0,-1008.0,-249.0
20.0,-245.0,-68.0,45.0,16.0,-7.0,72.0,-1003.0,-232.0
19.0,-242.0,-68.0,44.0,17.0,-6.0,75.0,-1002.0,-238.0
19.0,-242.0,-65.0,44.0,18.0,-7.0,71.0,-995.0,-232.0
19.0,-244.0,-63.0,44.0,20.0,-5.0,67.0,-996.0,-228.0
18.0,-244.0,-64.0,43.0,22.0,-6.0,63.0,-998.0,-227.0
16.0,-244.0,-64.0,43.0,25.0,-6.0,63.0,-995.0,-223.0
20.0,-246.0,-63.0,44.0,25.0,-7.0,61.0,-997.0,-223.0
17.0,-242.0,-60.0,43.0,25.0,-5.0,61.0,-994.0,-228.0
14.0,-239.0,-63.0,43.0,25.0,-4.0,58.0,-995.0,-223.0
17.0,-245.0,-63.0,42.0,24.0,-4.0,62.0,-992.0,-227.0
16.0,-244.0,-64.0,43.0,23.0,-7.0,62.0,-994.0,-225.0
15.0,-241.0,-63.0,42.0,22.0,-7.0,57.0,-997.0,-225.0
14.0,-244.0,-62.0,42.0,21.0,-6.0,60.0,-996.0,-227.0
15.0,-245.0,-65.0,42.0,21.0,-5.0,57.0,-999.0,-227.0
18.0,-242.0,-64.0,42.0,20.0,-5.0,59.0,-998.0,-230.0
16.0,-244.0,-64.0,43.0,19.0,-4.0,58.0,-998.0,-224.0
16.0,-246.0,-64.0,43.0,17.0,-6.0,58.0,-998.0,-232.0
21.0,-247.0,-61.0,43.0,17.0,-7.0,57.0,-1001.0,-229.0
15.0,-241.0,-62.0,44.0,15.0,-9.0,54.0,-1005.0,-229.0
16.0,-242.0,-61.0,44.0,16.0,-8.0,60.0,-1003.0,-230.0
16.0,-246.0,-64.0,47.0,15.0,-10.0,57.0,-1002.0,-224.0
17.0,-243.0,-64.0,46.0,17.0,-9.0,57.0,-1003.0,-227.0
15.0,-247.0,-63.0,48.0,17.0,-11.0,61.0,-1000.0,-226.0
16.0,-243.0,-64.0,48.0,15.0,-9.0,54.0,-1002.0,-226.0
14.0,-245.0,-64.0,49.0,14.0,-9.0,58.0,-1001.0,-225.0
19.0,-247.0,-64.0,51.0,13.0,-10.0,62.0,-996.0,-223.0
13.0,-244.0,-61.0,52.0,13.0,-9.0,61.0,-999.0,-224.0
13.0,-243.0,-63.0,54.0,10.0,-9.0,59.0,-998.0,-227.0
17.0,-244.0,-64.0,54.0,8.0,-10.0,55.0,-993.0,-226.0
17.0,-241.0,-63.0,55.0,8.0,-12.0,58.0,-992.0,-226.0
14.0,-242.0,-64.0,53.0,6.0,-13.0,54.0,-998.0,-225.0
16.0,-243.0,-66.0,51.0,6.0,-13.0,56.0,-996.0,-227.0
12.0,-244.0,-63.0,50.0,4.0,-13.0,54.0,-1003.0,-232.0
14.0,-245.0,-64.0,48.0,3.0,-15.0,56.0,-996.0,-229.0
17.0,-244.0,-64.0,48.0,1.0,-13.0,60.0,-1000.0,-227.0
16.0,-244.0,-64.0,50.0,0.0,-14.0,55.0,-1000.0,-228.0
17.0,-246.0,-62.0,51.0,-2.0,-15.0,58.0,-1000.0,-230.0
16.0,-244.0,-63.0,52.0,-4.0,-15.0,58.0,-995.0,-226.0
15.0,-242.0,-63.0,53.0,-4.0,-15.0,59.0,-997.0,-231.0
16.0,-243.0,-68.0,54.0,-4.0,-13.0,59.0,-995.0,-230.0
18.0,-242.0,-62.0,53.0,-4.0,-13.0,55.0,-1004.0,-230.0
15.0,-241.0,-66.0,52.0,-3.0,-14.0,61.0,-995.0,-230.0
18.0,-245.0,-67.0,50.0,-3.0,-13.0,59.0,-1000.0,-232.0
16.0,-241.0,-64.0,50.0,-4.0,-14.0,62.0,-1002.0,-228.0
19.0,-244.0,-65.0,49.0,-3.0,-14.0,60.0,-996.0,-225.0
18.0,-242.0,-65.0,49.0,-3.0,-14.0,61.0,-995.0,-233.0
17.0,-242.0,-64.0,51.0,-4.0,-14.0,64.0,-997.0,-224.0
17.0,-244.0,-67.0,50.0,-3.0,-13.0,64.0,-999.0,-229.0
18.0,-241.0,-64.0,51.0,-3.0,-13.0,61.0,-995.0,-226.0
19.0,-245.0,-64.0,52.0,0.0,-13.0,62.0,-996.0,-226.0
17.0,-244.0,-61.0,53.0,1.0,-13.0,64.0,-995.0,-225.0
16.0,-246.0,-64.0,54.0,2.0,-13.0,67.0,-996.0,-230.0
20.0,-244.0,-64.0,54.0,2.0,-14.0,66.0,-1000.0,-229.0
16.0,-243.0,-62.0,54.0,5.0,-13.0,61.0,-995.0,-227.0
18.0,-245.0,-62.0,54.0,5.0,-13.0,62.0,-1001.0,-227.0
20.0,-246.0,-62.0,55.0,8.0,-12.0,70.0,-1001.0,-232.0
20.0,-244.0,-64.0,55.0,10.0,-12.0,68.0,-998.0,-231.0
17.0,-245.0,-65.0,56.0,11.0,-11.0,60.0,-998.0,-230.0
18.0,-243.0,-66.0,56.0,13.0,-10.0,63.0,-997.0,-227.0
21.0,-244.0,-64.0,56.0,15.0,-9.0,64.0,-1006.0,-239.0
18.0,-243.0,-63.0,55.0,16.0,-8.0,59.0,-1000.0,-227.0
17.0,-246.0,-64.0,55.0,16.0,-10.0,59.0,-996.0,-236.0
16.0,-241.0,-65.0,54.0,16.0,-10.0,64.0,-1004.0,-237.0
17.0,-244.0,-65.0,54.0,17.0,-8.0,59.0,-1003.0,-229.0
16.0,-242.0,-67.0,54.0,18.0,-7.0,61.0,-997.0,-228.0
17.0,-245.0,-64.0,54.0,19.0,-7.0,67.0,-1004.0,-234.0
17.0,-244.0,-64.0,55.0,19.0,-6.0,67.0,-998.0,-228.0
17.0,-245.0,-65.0,55.0,18.0,-6.0,61.0,-998.0,-237.0
18.0,-246.0,-63.0,55.0,18.0,-7.0,58.0,-997.0,-236.0
17.0,-244.0,-67.0,56.0,16.0,-5.0,61.0,-1000.0,-240.0
17.0,-244.0,-68.0,58.0,17.0,-5.0,62.0,-1002.0,-233.0
15.0,-247.0,-61.0,57.0,19.0,-5.0,63.0,-1001.0,-237.0
19.0,-246.0,-65.0,57.0,19.0,-4.0,60.0,-996.0,-237.0
19.0,-246.0,-65.0,57.0,20.0,-3.0,62.0,-999.0,-233.0
18.0,-243.0,-68.0,56.0,20.0,-4.0,63.0,-1001.0,-242.0
16.0,-242.0,-67.0,56.0,21.0,-3.0,59.0,-997.0,-243.0
17.0,-242.0,-68.0,53.0,21.0,-4.0,67.0,-996.0,-242.0
18.0,-243.0,-67.0,50.0,22.0,-3.0,67.0,-1001.0,-240.0
18.0,-246.0,-70.0,49.0,23.0,-2.0,66.0,-998.0,-244.0
18.0,-242.0,-68.0,48.0,24.0,0.0,63.0,-996.0,-243.0
18.0,-243.0,-64.0,48.0,24.0,0.0,71.0,-997.0,-246.0
18.0,-243.0,-67.0,46.0,22.0,0.0,67.0,-1001.0,-240.0
19.0,-243.0,-64.0,47.0,20.0,0.0,58.0,-999.0,-245.0
17.0,-244.0,-69.0,47.0,18.0,-2.0,56.0,-995.0,-241.0
16.0,-246.0,-66.0,47.0,16.0,-4.0,61.0,-1000.0,-236.0
16.0,-248.0,-65.0,48.0,12.0,-3.0,57.0,-1004.0,-240.0
11.0,-244.0,-65.0,49.0,10.0,-5.0,48.0,-1004.0,-246.0
14.0,-245.0,-69.0,51.0,6.0,-7.0,49.0,-1005.0,-248.0
12.0,-247.0,-69.0,54.0,1.0,-7.0,48.0,-1004.0,-250.0
13.0,-242.0,-68.0,56.0,-3.0,-8.0,44.0,-1000.0,-245.0
12.0,-248.0,-66.0,58.0,-7.0,-9.0,50.0,-1002.0,-245.0
12.0,-247.0,-73.0,62.0,-12.0,-10.0,48.0,-1001.0,-249.0
16.0,-249.0,-67.0,66.0,-15.0,-12.0,48.0,-998.0,-253.0
15.0,-246.0,-70.0,67.0,-18.0,-14.0,51.0,-993.0,-251.0
13.0,-241.0,-68.0,69.0,-21.0,-17.0,51.0,-997.0,-253.0
12.0,-241.0,-67.0,71.0,-23.0,-17.0,55.0,-998.0,-261.0
12.0,-240.0,-70.0,73.0,-27.0,-17.0,55.0,-993.0,-254.0
15.0,-242.0,-71.0,71.0,-27.0,-19.0,58.0,-995.0,-257.0
19.0,-240.0,-72.0,70.0,-29.0,-20.0,59.0,-996.0,-260.0
16.0,-241.0,-72.0,67.0,-32.0,-21.0,60.0,-988.0,-261.0
16.0,-243.0,-71.0,63.0,-33.0,-21.0,63.0,-993.0,-259.0
16.0,-243.0,-71.0,56.0,-34.0,-24.0,64.0,-990.0,-266.0
17.0,-243.0,-68.0,51.0,-35.0,-28.0,62.0,-989.0,-265.0
18.0,-241.0,-72.0,44.0,-37.0,-29.0,70.0,-990.0,-260.0
13.0,-245.0,-71.0,36.0,-37.0,-28.0,71.0,-993.0,-250.0
16.0,-241.0,-66.0,31.0,-37.0,-29.0,69.0,-995.0,-256.0
21.0,-242.0,-68.0,26.0,-38.0,-30.0,69.0,-995.0,-250.0
18.0,-241.0,-71.0,22.0,-38.0,-30.0,72.0,-996.0,-244.0
19.0,-245.0,-67.0,19.0,-40.0,-27.0,69.0,-992.0,-240.0
16.0,-244.0,-65.0,18.0,-41.0,-26.0,64.0,-997.0,-237.0
18.0,-241.0,-66.0,16.0,-43.0,-26.0,64.0,-1001.0,-232.0
17.0,-242.0,-62.0,14.0,-44.0,-24.0,65.0,-994.0,-233.0
17.0,-242.0,-64.0,15.0,-44.0,-21.0,61.0,-992.0,-227.0
19.0,-241.0,-63.0,15.0,-45.0,-21.0,69.0,-991.0,-237.0
14.0,-238.0,-67.0,15.0,-46.0,-17.0,56.0,-992.0,-230.0
16.0,-241.0,-64.0,17.0,-49.0,-16.0,55.0,-994.0,-223.0
14.0,-239.0,-62.0,18.0,-49.0,-12.0,58.0,-983.0,-228.0
17.0,-240.0,-63.0,18.0,-49.0,-9.0,64.0,-993.0,-226.0
21.0,-242.0,-62.0,18.0,-49.0,-6.0,63.0,-988.0,-217.0
20.0,-240.0,-64.0,16.0,-48.0,-5.0,70.0,-979.0,-226.0
19.0,-237.0,-61.0,14.0,-48.0,-6.0,67.0,-976.0,-228.0
20.0,-238.0,-64.0,10.0,-45.0,-7.0,71.0,-979.0,-228.0
19.0,-239.0,-63.0,6.0,-44.0,-5.0,74.0,-976.0,-223.0
21.0,-240.0,-63.0,2.0,-43.0,-4.0,76.0,-978.0,-227.0
21.0,-240.0,-62.0,-4.0,-38.0,-5.0,71.0,-988.0,-225.0
19.0,-239.0,-62.0,-7.0,-34.0,-1.0,66.0,-989.0,-222.0
18.0,-239.0,-62.0,-12.0,-32.0,3.0,76.0,-985.0,-215.0
18.0,-240.0,-63.0,-16.0,-31.0,8.0,72.0,-986.0,-222.0
20.0,-240.0,-65.0,-20.0,-30.0,9.0,71.0,-985.0,-222.0
21.0,-237.0,-64.0,-25.0,-28.0,12.0,72.0,-983.0,-226.0
17.0,-239.0,-62.0,-29.0,-25.0,12.0,74.0,-978.0,-227.0
22.0,-237.0,-64.0,-33.0,-23.0,12.0,76.0,-978.0,-234.0
20.0,-243.0,-63.0,-36.0,-22.0,16.0,72.0,-981.0,-235.0
19.0,-241.0,-64.0,-47.0,-19.0,17.0,75.0,-994.0,-232.0
21.0,-243.0,-62.0,-55.0,-20.0,19.0,67.0,-994.0,-228.0
18.0,-242.0,-64.0,-56.0,-19.0,13.0,70.0,-993.0,-235.0
19.0,-248.0,-58.0,-61.0,-19.0,9.0,72.0,-1007.0,-229.0
16.0,-244.0,-61.0,-67.0,-16.0,8.0,73.0,-1008.0,-230.0
19.0,-246.0,-63.0,-69.0,-13.0,4.0,67.0,-1003.0,-228.0
18.0,-242.0,-65.0,-66.0,-10.0,4.0,71.0,-996.0,-229.0
17.0,-240.0,-67.0,-59.0,-7.0,1.0,63.0,-991.0,-231.0
14.0,-238.0,-66.0,-52.0,-6.0,3.0,58.0,-981.0,-240.0
11.0,-240.0,-64.0,-45.0,-5.0,7.0,51.0,-993.0,-226.0
15.0,-249.0,-65.0,-37.0,-6.0,6.0,57.0,-1010.0,-223.0
16.0,-248.0,-60.0,-33.0,-6.0,-2.0,60.0,-1015.0,-220.0
19.0,-250.0,-64.0,-29.0,-1.0,1.0,66.0,-1020.0,-216.0
15.0,-247.0,-61.0,-20.0,6.0,5.0,68.0,-1015.0,-222.0
20.0,-246.0,-62.0,-8.0,14.0,6.0,64.0,-1000.0,-218.0
15.0,-246.0,-62.0,0.0,20.0,8.0,63.0,-1009.0,-212.0
15.0,-242.0,-59.0,8.0,22.0,7.0,59.0,-1003.0,-210.0
16.0,-242.0,-61.0,13.0,21.0,6.0,67.0,-997.0,-207.0
18.0,-245.0,-61.0,21.0,19.0,3.0,66.0,-1015.0,-203.0
15.0,-248.0,-60.0,26.0,17.0,-4.0,62.0,-1017.0,-208.0
18.0,-247.0,-59.0,28.0,17.0,-14.0,62.0,-1016.0,-205.0
17.0,-248.0,-65.0,30.0,17.0,-21.0,60.0,-1015.0,-211.0
16.0,-248.0,-57.0,31.0,19.0,-29.0,57.0,-1015.0,-212.0
12.0,-244.0,-62.0,30.0,21.0,-35.0,46.0,-1009.0,-214.0
12.0,-247.0,-61.0,31.0,25.0,-41.0,52.0,-1010.0,-222.0
10.0,-244.0,-63.0,28.0,29.0,-43.0,38.0,-1000.0,-218.0
7.0,-243.0,-61.0,26.0,34.0,-47.0,33.0,-996.0,-219.0
8.0,-241.0,-65.0,22.0,37.0,-45.0,30.0,-998.0,-216.0
6.0,-243.0,-62.0,18.0,40.0,-41.0,34.0,-997.0,-223.0
8.0,-241.0,-64.0,13.0,44.0,-42.0,35.0,-992.0,-226.0
9.0,-240.0,-66.0,6.0,51.0,-38.0,38.0,-995.0,-223.0
11.0,-239.0,-63.0,-2.0,56.0,-33.0,37.0,-985.0,-223.0
11.0,-240.0,-62.0,-12.0,62.0,-29.0,39.0,-989.0,-215.0
9.0,-242.0,-61.0,-20.0,69.0,-22.0,34.0,-982.0,-220.0
15.0,-245.0,-62.0,-27.0,76.0,-17.0,46.0,-1002.0,-212.0
13.0,-246.0,-55.0,-31.0,80.0,-13.0,49.0,-1006.0,-210.0
15.0,-240.0,-74.0,-31.0,87.0,-10.0,49.0,-1005.0,-224.0
17.0,-245.0,-62.0,-28.0,91.0,-5.0,54.0,-1008.0,-227.0
15.0,-247.0,-66.0,-24.0,96.0,-5.0,61.0,-1009.0,-225.0
17.0,-247.0,-67.0,-23.0,101.0,-5.0,62.0,-1011.0,-230.0
17.0,-241.0,-69.0,-27.0,106.0,-3.0,57.0,-1004.0,-246.0
17.0,-245.0,-69.0,-33.0,112.0,-5.0,54.0,-998.0,-249.0
10.0,-238.0,-69.0,-41.0,120.0,-4.0,46.0,-994.0,-255.0
8.0,-242.0,-66.0,-48.0,131.0,-4.0,39.0,-994.0,-252.0
8.0,-238.0,-71.0,-56.0,142.0,-7.0,38.0,-995.0,-259.0
9.0,-240.0,-74.0,-64.0,154.0,-8.0,35.0,-994.0,-266.0
12.0,-247.0,-74.0,-68.0,162.0,-10.0,33.0,-1007.0,-265.0
9.0,-247.0,-68.0,-70.0,172.0,-16.0,33.0,-1006.0,-269.0
4.0,-242.0,-68.0,-63.0,182.0,-23.0,36.0,-1006.0,-266.0
7.0,-246.0,-70.0,-53.0,190.0,-32.0,37.0,-1009.0,-266.0
10.0,-252.0,-74.0,-43.0,199.0,-37.0,39.0,-1025.0,-266.0
11.0,-252.0,-71.0,-37.0,208.0,-43.0,39.0,-1030.0,-267.0
10.0,-250.0,-72.0,-28.0,215.0,-50.0,37.0,-1020.0,-266.0
10.0,-253.0,-71.0,-22.0,219.0,-56.0,42.0,-1025.0,-268.0
11.0,-251.0,-72.0,-14.0,222.0,-61.0,41.0,-1026.0,-265.0
10.0,-248.0,-73.0,-4.0,224.0,-60.0,37.0,-1023.0,-271.0
9.0,-253.0,-69.0,1.0,226.0,-63.0,37.0,-1025.0,-258.0
8.0,-250.0,-69.0,6.0,224.0,-62.0,35.0,-1022.0,-259.0
8.0,-245.0,-72.0,9.0,221.0,-62.0,37.0,-1006.0,-266.0
7.0,-242.0,-71.0,10.0,213.0,-67.0,35.0,-997.0,-261.0
5.0,-246.0,-66.0,9.0,202.0,-71.0,27.0,-1006.0,-258.0
4.0,-241.0,-68.0,8.0,191.0,-76.0,20.0,-999.0,-259.0
7.0,-237.0,-72.0,5.0,184.0,-76.0,26.0,-980.0,-263.0
9.0,-240.0,-71.0,1.0,177.0,-77.0,29.0,-974.0,-260.0
9.0,-235.0,-71.0,6.0,170.0,-80.0,35.0,-967.0,-259.0
10.0,-235.0,-71.0,5.0,161.0,-82.0,40.0,-970.0,-264.0
11.0,-232.0,-71.0,3.0,154.0,-83.0,46.0,-961.0,-269.0
12.0,-235.0,-74.0,-2.0,149.0,-82.0,53.0,-967.0,-273.0
15.0,-237.0,-73.0,-3.0,146.0,-82.0,56.0,-977.0,-273.0
17.0,-240.0,-74.0,-3.0,143.0,-84.0,59.0,-979.0,-275.0
15.0,-240.0,-74.0,1.0,139.0,-88.0,63.0,-977.0,-276.0
22.0,-241.0,-75.0,6.0,133.0,-89.0,71.0,-985.0,-277.0
23.0,-243.0,-72.0,7.0,129.0,-91.0,84.0,-984.0,-276.0
24.0,-241.0,-71.0,12.0,124.0,-92.0,87.0,-982.0,-272.0
26.0,-242.0,-72.0,19.0,119.0,-94.0,89.0,-987.0,-270.0
22.0,-240.0,-71.0,24.0,115.0,-95.0,96.0,-979.0,-276.0
22.0,-233.0,-73.0,22.0,110.0,-94.0,93.0,-975.0,-275.0
29.0,-237.0,-72.0,17.0,106.0,-90.0,96.0,-961.0,-269.0
28.0,-236.0,-69.0,14.0,99.0,-86.0,97.0,-963.0,-248.0
26.0,-239.0,-69.0,13.0,88.0,-82.0,96.0,-974.0,-244.0
25.0,-240.0,-65.0,14.0,73.0,-80.0,98.0,-972.0,-240.0
24.0,-235.0,-64.0,16.0,62.0,-75.0,92.0,-969.0,-235.0
21.0,-236.0,-69.0,16.0,53.0,-73.0,88.0,-984.0,-238.0
21.0,-238.0,-64.0,13.0,47.0,-70.0,80.0,-989.0,-236.0
24.0,-237.0,-66.0,9.0,44.0,-65.0,90.0,-977.0,-248.0
27.0,-237.0,-69.0,4.0,41.0,-60.0,97.0,-969.0,-252.0
27.0,-236.0,-70.0,2.0,42.0,-56.0,103.0,-968.0,-257.0
27.0,-232.0,-69.0,0.0,42.0,-52.0,107.0,-971.0,-253.0
30.0,-234.0,-73.0,-4.0,41.0,-52.0,121.0,-966.0,-265.0
33.0,-235.0,-73.0,-7.0,40.0,-48.0,133.0,-972.0,-268.0
40.0,-239.0,-74.0,-13.0,38.0,-47.0,145.0,-973.0,-269.0
40.0,-235.0,-77.0,-15.0,35.0,-46.0,142.0,-977.0,-271.0
41.0,-235.0,-79.0,-11.0,33.0,-42.0,147.0,-964.0,-285.0
38.0,-235.0,-78.0,-15.0,35.0,-37.0,157.0,-964.0,-285.0
42.0,-233.0,-78.0,-15.0,38.0,-29.0,150.0,-964.0,-301.0
43.0,-235.0,-80.0,-15.0,47.0,-25.0,151.0,-965.0,-299.0
40.0,-234.0,-80.0,-15.0,55.0,-19.0,153.0,-963.0,-292.0
38.0,-233.0,-72.0,-13.0,64.0,-12.0,145.0,-957.0,-302.0
39.0,-234.0,-84.0,-14.0,74.0,-5.0,140.0,-950.0,-302.0
38.0,-233.0,-78.0,-14.0,83.0,3.0,134.0,-957.0,-292.0
35.0,-229.0,-76.0,-13.0,90.0,11.0,138.0,-945.0,-310.0
33.0,-228.0,-76.0,-11.0,96.0,21.0,123.0,-935.0,-295.0
32.0,-224.0,-78.0,-10.0,100.0,30.0,120.0,-932.0,-293.0
32.0,-223.0,-76.0,-6.0,104.0,42.0,113.0,-924.0,-298.0
32.0,-224.0,-78.0,-4.0,106.0,50.0,114.0,-927.0,-293.0
35.0,-223.0,-84.0,-3.0,107.0,55.0,118.0,-922.0,-304.0
35.0,-225.0,-80.0,-4.0,109.0,59.0,117.0,-917.0,-293.0
32.0,-226.0,-83.0,-1.0,111.0,63.0,121.0,-918.0,-294.0
35.0,-223.0,-80.0,1.0,113.0,65.0,128.0,-920.0,-297.0
30.0,-218.0,-79.0,3.0,115.0,67.0,130.0,-914.0,-289.0
31.0,-218.0,-75.0,4.0,116.0,67.0,122.0,-906.0,-305.0
42.0,-212.0,-69.0,6.0,118.0,66.0,143.0,-917.0,-289.0
34.0,-220.0,-76.0,5.0,120.0,66.0,134.0,-913.0,-290.0
31.0,-219.0,-79.0,6.0,121.0,69.0,117.0,-909.0,-288.0
32.0,-219.0,-75.0,6.0,116.0,71.0,112.0,-919.0,-280.0
24.0,-222.0,-73.0,6.0,107.0,76.0,105.0,-920.0,-272.0
29.0,-224.0,-71.0,6.0,96.0,85.0,101.0,-920.0,-265.0
21.0,-223.0,-71.0,3.0,83.0,96.0,91.0,-929.0,-266.0
20.0,-225.0,-72.0,1.0,68.0,109.0,84.0,-930.0,-276.0
20.0,-230.0,-73.0,-3.0,50.0,119.0,70.0,-946.0,-268.0
12.0,-229.0,-69.0,-10.0,29.0,133.0,59.0,-944.0,-269.0
16.0,-232.0,-72.0,-18.0,7.0,145.0,51.0,-956.0,-280.0
12.0,-233.0,-79.0,-33.0,-19.0,155.0,48.0,-961.0,-287.0
11.0,-234.0,-77.0,-51.0,-45.0,162.0,53.0,-963.0,-290.0
14.0,-234.0,-82.0,-71.0,-67.0,168.0,47.0,-975.0,-299.0
11.0,-239.0,-85.0,-90.0,-90.0,169.0,47.0,-975.0,-313.0
8.0,-237.0,-84.0,-115.0,-109.0,168.0,44.0,-981.0,-323.0
9.0,-238.0,-89.0,-139.0,-130.0,167.0,36.0,-990.0,-333.0
7.0,-244.0,-90.0,-161.0,-146.0,162.0,43.0,-1002.0,-332.0
12.0,-247.0,-90.0,-181.0,-157.0,158.0,42.0,-1009.0,-342.0
11.0,-249.0,-93.0,-197.0,-167.0,151.0,34.0,-1013.0,-340.0
7.0,-249.0,-92.0,-206.0,-172.0,141.0,44.0,-1018.0,-350.0
10.0,-249.0,-94.0,-212.0,-176.0,132.0,38.0,-1018.0,-349.0
8.0,-249.0,-94.0,-213.0,-176.0,120.0,36.0,-1016.0,-352.0
8.0,-247.0,-98.0,-211.0,-169.0,107.0,36.0,-1016.0,-363.0
11.0,-248.0,-100.0,-207.0,-160.0,91.0,39.0,-1009.0,-376.0
14.0,-249.0,-99.0,-202.0,-148.0,79.0,45.0,-1002.0,-375.0
10.0,-244.0,-95.0,-194.0,-133.0,61.0,43.0,-1003.0,-365.0
13.0,-244.0,-97.0,-184.0,-117.0,45.0,47.0,-990.0,-371.0
14.0,-240.0,-95.0,-177.0,-100.0,29.0,48.0,-981.0,-365.0
18.0,-238.0,-98.0,-170.0,-82.0,13.0,59.0,-972.0,-353.0
18.0,-236.0,-91.0,-163.0,-61.0,0.0,71.0,-963.0,-348.0
19.0,-235.0,-91.0,-156.0,-38.0,-13.0,73.0,-959.0,-340.0
21.0,-231.0,-87.0,-153.0,-14.0,-24.0,83.0,-951.0,-335.0
27.0,-231.0,-100.0,-151.0,8.0,-34.0,96.0,-940.0,-336.0
28.0,-228.0,-89.0,-149.0,31.0,-43.0,101.0,-935.0,-329.0
25.0,-221.0,-83.0,-151.0,52.0,-50.0,108.0,-931.0,-326.0
27.0,-226.0,-83.0,-152.0,70.0,-52.0,105.0,-929.0,-317.0
31.0,-224.0,-80.0,-154.0,85.0,-55.0,107.0,-927.0,-314.0
31.0,-222.0,-82.0,-155.0,97.0,-55.0,113.0,-931.0,-317.0
28.0,-225.0,-87.0,-156.0,108.0,-50.0,117.0,-932.0,-314.0
30.0,-226.0,-85.0,-158.0,114.0,-48.0,116.0,-937.0,-313.0
30.0,-226.0,-84.0,-161.0,121.0,-42.0,114.0,-936.0,-313.0
27.0,-225.0,-90.0,-162.0,123.0,-35.0,108.0,-946.0,-320.0
28.0,-232.0,-86.0,-164.0,126.0,-29.0,102.0,-952.0,-326.0
26.0,-234.0,-91.0,-167.0,126.0,-21.0,95.0,-952.0,-333.0
20.0,-234.0,-84.0,-168.0,123.0,-11.0,84.0,-965.0,-335.0
21.0,-233.0,-89.0,-166.0,117.0,-7.0,83.0,-964.0,-331.0
15.0,-237.0,-90.0,-166.0,108.0,-1.0,79.0,-974.0,-330.0
18.0,-237.0,-90.0,-166.0,99.0,7.0,56.0,-971.0,-332.0
13.0,-240.0,-85.0,-165.0,86.0,11.0,56.0,-977.0,-332.0
9.0,-238.0,-86.0,-162.0,73.0,15.0,44.0,-977.0,-334.0
9.0,-240.0,-89.0,-160.0,57.0,20.0,40.0,-980.0,-334.0
8.0,-237.0,-90.0,-157.0,43.0,22.0,40.0,-980.0,-337.0
6.0,-239.0,-91.0,-154.0,32.0,25.0,34.0,-970.0,-344.0
7.0,-236.0,-87.0,-151.0,20.0,29.0,28.0,-973.0,-335.0
5.0,-234.0,-89.0,-147.0,10.0,29.0,27.0,-966.0,-343.0
6.0,-233.0,-95.0,-143.0,0.0,29.0,27.0,-960.0,-349.0
9.0,-234.0,-92.0,-140.0,-7.0,28.0,31.0,-961.0,-358.0
8.0,-231.0,-96.0,-139.0,-13.0,24.0,39.0,-960.0,-365.0
8.0,-233.0,-96.0,-140.0,-21.0,23.0,42.0,-962.0,-363.0
12.0,-232.0,-97.0,-143.0,-24.0,19.0,43.0,-955.0,-366.0
11.0,-231.0,-99.0,-147.0,-28.0,14.0,48.0,-956.0,-369.0
14.0,-231.0,-101.0,-154.0,-31.0,12.0,52.0,-956.0,-369.0
14.0,-230.0,-102.0,-161.0,-35.0,9.0,57.0,-953.0,-370.0
11.0,-230.0,-100.0,-168.0,-36.0,7.0,60.0,-956.0,-370.0
18.0,-233.0,-99.0,-170.0,-38.0,6.0,66.0,-951.0,-368.0
18.0,-236.0,-100.0,-170.0,-39.0,8.0,64.0,-955.0,-365.0
18.0,-231.0,-97.0,-165.0,-38.0,9.0,75.0,-950.0,-367.0
20.0,-232.0,-99.0,-161.0,-38.0,8.0,74.0,-935.0,-369.0
21.0,-225.0,-98.0,-158.0,-40.0,7.0,76.0,-927.0,-369.0
19.0,-218.0,-101.0,-160.0,-40.0,6.0,72.0,-922.0,-367.0
19.0,-219.0,-99.0,-167.0,-41.0,6.0,78.0,-917.0,-368.0
20.0,-222.0,-97.0,-175.0,-39.0,5.0,76.0,-911.0,-363.0
18.0,-222.0,-96.0,-187.0,-34.0,5.0,74.0,-899.0,-361.0
19.0,-222.0,-98.0,-199.0,-30.0,5.0,80.0,-917.0,-367.0
17.0,-220.0,-100.0,-212.0,-25.0,6.0,76.0,-915.0,-376.0
20.0,-223.0,-98.0,-224.0,-14.0,9.0,72.0,-925.0,-374.0
19.0,-226.0,-102.0,-233.0,-6.0,12.0,76.0,-931.0,-378.0
19.0,-227.0,-100.0,-240.0,1.0,15.0,76.0,-937.0,-382.0
21.0,-230.0,-104.0,-245.0,9.0,16.0,84.0,-944.0,-390.0
22.0,-229.0,-105.0,-247.0,16.0,23.0,87.0,-944.0,-400.0
23.0,-226.0,-110.0,-250.0,22.0,24.0,90.0,-943.0,-402.0
25.0,-229.0,-109.0,-253.0,25.0,28.0,97.0,-938.0,-410.0
23.0,-222.0,-107.0,-256.0,25.0,31.0,97.0,-929.0,-421.0
25.0,-225.0,-109.0,-258.0,25.0,34.0,101.0,-928.0,-422.0
26.0,-226.0,-108.0,-262.0,25.0,36.0,100.0,-925.0,-422.0
24.0,-222.0,-107.0,-264.0,23.0,39.0,93.0,-910.0,-415.0
19.0,-221.0,-110.0,-269.0,19.0,41.0,86.0,-895.0,-414.0
20.0,-220.0,-105.0,-274.0,14.0,42.0,77.0,-908.0,-404.0
19.0,-218.0,-107.0,-275.0,10.0,44.0,71.0,-912.0,-409.0
14.0,-216.0,-104.0,-280.0,5.0,45.0,64.0,-901.0,-402.0
13.0,-218.0,-110.0,-283.0,0.0,50.0,55.0,-902.0,-410.0
15.0,-223.0,-109.0,-285.0,-4.0,56.0,51.0,-907.0,-415.0
9.0,-219.0,-108.0,-287.0,-8.0,61.0,46.0,-910.0,-405.0
11.0,-221.0,-105.0,-288.0,-9.0,67.0,41.0,-906.0,-409.0
13.0,-221.0,-110.0,-289.0,-7.0,72.0,47.0,-916.0,-407.0
13.0,-221.0,-103.0,-289.0,-3.0,74.0,49.0,-916.0,-404.0
14.0,-224.0,-107.0,-288.0,1.0,79.0,65.0,-913.0,-407.0
21.0,-226.0,-103.0,-287.0,5.0,78.0,67.0,-921.0,-415.0
19.0,-220.0,-108.0,-283.0,8.0,78.0,80.0,-913.0,-409.0
22.0,-220.0,-105.0,-280.0,11.0,78.0,86.0,-911.0,-408.0
27.0,-222.0,-107.0,-278.0,16.0,76.0,92.0,-907.0,-405.0
27.0,-222.0,-110.0,-278.0,18.0,74.0,94.0,-913.0,-418.0
23.0,-218.0,-112.0,-280.0,20.0,74.0,91.0,-909.0,-416.0
23.0,-219.0,-109.0,-286.0,21.0,75.0,91.0,-910.0,-427.0
21.0,-217.0,-113.0,-294.0,20.0,76.0,84.0,-905.0,-432.0
19.0,-220.0,-111.0,-301.0,18.0,78.0,73.0,-903.0,-433.0
16.0,-217.0,-118.0,-307.0,16.0,79.0,66.0,-897.0,-437.0
15.0,-220.0,-115.0,-312.0,12.0,80.0,58.0,-896.0,-436.0
11.0,-216.0,-114.0,-316.0,8.0,83.0,47.0,-891.0,-433.0
8.0,-218.0,-116.0,-323.0,2.0,84.0,39.0,-891.0,-440.0
8.0,-214.0,-115.0,-327.0,-5.0,82.0,30.0,-888.0,-438.0
3.0,-216.0,-112.0,-332.0,-13.0,80.0,23.0,-894.0,-440.0
5.0,-217.0,-113.0,-335.0,-25.0,76.0,27.0,-889.0,-435.0
3.0,-216.0,-114.0,-336.0,-35.0,72.0,23.0,-895.0,-433.0
4.0,-217.0,-111.0,-336.0,-44.0,66.0,24.0,-893.0,-434.0
4.0,-218.0,-111.0,-336.0,-51.0,61.0,25.0,-898.0,-438.0
8.0,-221.0,-110.0,-337.0,-58.0,55.0,26.0,-891.0,-434.0
6.0,-217.0,-111.0,-334.0,-63.0,48.0,28.0,-893.0,-434.0
7.0,-221.0,-114.0,-333.0,-68.0,41.0,30.0,-893.0,-442.0
5.0,-218.0,-111.0,-332.0,-71.0,33.0,31.0,-892.0,-437.0
9.0,-219.0,-116.0,-331.0,-74.0,28.0,31.0,-896.0,-439.0
9.0,-217.0,-119.0,-327.0,-74.0,22.0,30.0,-896.0,-437.0
6.0,-218.0,-117.0,-324.0,-74.0,16.0,27.0,-889.0,-446.0
8.0,-218.0,-116.0,-321.0,-71.0,16.0,33.0,-894.0,-447.0
7.0,-218.0,-114.0,-318.0,-66.0,12.0,31.0,-902.0,-454.0
10.0,-220.0,-121.0,-315.0,-61.0,13.0,35.0,-909.0,-448.0
10.0,-225.0,-122.0,-312.0,-55.0,12.0,43.0,-919.0,-451.0
11.0,-224.0,-118.0,-308.0,-48.0,12.0,41.0,-920.0,-456.0
11.0,-225.0,-119.0,-307.0,-40.0,12.0,47.0,-924.0,-461.0
11.0,-223.0,-118.0,-307.0,-34.0,12.0,52.0,-925.0,-463.0
10.0,-220.0,-124.0,-306.0,-29.0,11.0,54.0,-924.0,-466.0
14.0,-225.0,-124.0,-306.0,-27.0,9.0,48.0,-921.0,-467.0
14.0,-225.0,-123.0,-306.0,-25.0,4.0,47.0,-923.0,-469.0
14.0,-225.0,-124.0,-306.0,-25.0,-2.0,47.0,-919.0,-472.0
9.0,-221.0,-123.0,-305.0,-26.0,-8.0,46.0,-915.0,-470.0
10.0,-221.0,-123.0,-303.0,-27.0,-13.0,41.0,-918.0,-473.0
10.0,-219.0,-127.0,-300.0,-31.0,-21.0,46.0,-913.0,-475.0
11.0,-222.0,-124.0,-301.0,-32.0,-27.0,36.0,-902.0,-472.0
6.0,-218.0,-126.0,-301.0,-34.0,-33.0,36.0,-904.0,-472.0
9.0,-221.0,-123.0,-301.0,-36.0,-37.0,36.0,-898.0,-483.0
6.0,-223.0,-123.0,-299.0,-39.0,-38.0,40.0,-905.0,-474.0
8.0,-223.0,-124.0,-296.0,-42.0,-38.0,41.0,-909.0,-478.0
8.0,-219.0,-125.0,-295.0,-41.0,-39.0,42.0,-907.0,-478.0
9.0,-223.0,-125.0,-294.0,-41.0,-38.0,41.0,-916.0,-495.0
10.0,-221.0,-126.0,-292.0,-40.0,-36.0,46.0,-920.0,-491.0
14.0,-222.0,-126.0,-287.0,-41.0,-34.0,52.0,-915.0,-485.0
13.0,-224.0,-125.0,-285.0,-41.0,-32.0,48.0,-917.0,-475.0
11.0,-224.0,-121.0,-280.0,-43.0,-27.0,47.0,-917.0,-480.0
12.0,-222.0,-127.0,-271.0,-46.0,-22.0,51.0,-911.0,-487.0
14.0,-223.0,-124.0,-265.0,-47.0,-18.0,55.0,-920.0,-489.0
16.0,-222.0,-128.0,-258.0,-46.0,-16.0,49.0,-917.0,-500.0
13.0,-219.0,-131.0,-252.0,-43.0,-14.0,50.0,-914.0,-505.0
14.0,-223.0,-129.0,-246.0,-40.0,-15.0,52.0,-903.0,-513.0
11.0,-217.0,-132.0,-243.0,-36.0,-13.0,52.0,-907.0,-525.0
10.0,-220.0,-135.0,-241.0,-34.0,-15.0,47.0,-903.0,-527.0
12.0,-220.0,-134.0,-237.0,-32.0,-17.0,49.0,-907.0,-537.0
10.0,-217.0,-136.0,-233.0,-32.0,-21.0,42.0,-910.0,-531.0
7.0,-219.0,-137.0,-226.0,-36.0,-23.0,35.0,-898.0,-535.0
8.0,-221.0,-135.0,-217.0,-42.0,-27.0,37.0,-895.0,-527.0
3.0,-214.0,-136.0,-207.0,-47.0,-32.0,25.0,-890.0,-521.0
3.0,-215.0,-133.0,-196.0,-53.0,-33.0,28.0,-886.0,-523.0
6.0,-216.0,-134.0,-184.0,-59.0,-36.0,24.0,-881.0,-521.0
3.0,-214.0,-131.0,-174.0,-62.0,-36.0,26.0,-870.0,-516.0
6.0,-211.0,-132.0,-162.0,-63.0,-38.0,17.0,-868.0,-520.0
6.0,-211.0,-133.0,-151.0,-65.0,-39.0,23.0,-867.0,-506.0
7.0,-207.0,-129.0,-142.0,-66.0,-37.0,24.0,-856.0,-498.0
7.0,-208.0,-131.0,-134.0,-64.0,-36.0,29.0,-859.0,-504.0
10.0,-208.0,-127.0,-127.0,-65.0,-36.0,38.0,-856.0,-493.0
8.0,-206.0,-127.0,-124.0,-61.0,-35.0,39.0,-855.0,-497.0
11.0,-208.0,-126.0,-122.0,-60.0,-34.0,47.0,-851.0,-489.0
10.0,-207.0,-127.0,-123.0,-56.0,-34.0,51.0,-848.0,-500.0
12.0,-206.0,-129.0,-126.0,-50.0,-35.0,52.0,-838.0,-507.0
15.0,-205.0,-133.0,-133.0,-43.0,-35.0,52.0,-849.0,-514.0
14.0,-207.0,-130.0,-143.0,-38.0,-36.0,55.0,-842.0,-513.0
14.0,-204.0,-128.0,-153.0,-33.0,-38.0,55.0,-840.0,-512.0
14.0,-201.0,-133.0,-161.0,-29.0,-39.0,53.0,-840.0,-528.0
10.0,-201.0,-135.0,-169.0,-26.0,-39.0,49.0,-835.0,-528.0
13.0,-203.0,-134.0,-174.0,-23.0,-38.0,49.0,-828.0,-521.0
15.0,-198.0,-134.0,-180.0,-15.0,-39.0,44.0,-827.0,-519.0
12.0,-197.0,-131.0,-185.0,-7.0,-38.0,47.0,-828.0,-517.0
11.0,-198.0,-131.0,-188.0,2.0,-36.0,51.0,-824.0,-511.0
12.0,-197.0,-131.0,-190.0,13.0,-32.0,51.0,-821.0,-505.0
14.0,-203.0,-127.0,-190.0,23.0,-28.0,50.0,-825.0,-498.0
13.0,-200.0,-126.0,-187.0,35.0,-23.0,56.0,-820.0,-503.0
17.0,-199.0,-129.0,-185.0,45.0,-17.0,62.0,-816.0,-494.0
15.0,-197.0,-130.0,-182.0,54.0,-11.0,66.0,-818.0,-506.0
16.0,-198.0,-128.0,-186.0,63.0,-4.0,70.0,-813.0,-505.0
15.0,-199.0,-130.0,-192.0,65.0,2.0,68.0,-815.0,-498.0
12.0,-197.0,-131.0,-199.0,64.0,13.0,57.0,-822.0,-507.0
12.0,-199.0,-132.0,-206.0,62.0,24.0,55.0,-825.0,-515.0
12.0,-199.0,-132.0,-213.0,62.0,35.0,55.0,-825.0,-514.0
14.0,-206.0,-134.0,-219.0,63.0,44.0,51.0,-832.0,-526.0
9.0,-202.0,-139.0,-230.0,63.0,54.0,44.0,-831.0,-538.0
9.0,-204.0,-140.0,-242.0,65.0,63.0,38.0,-832.0,-546.0
6.0,-203.0,-142.0,-254.0,62.0,70.0,31.0,-841.0,-550.0
-1.0,-202.0,-143.0,-263.0,58.0,77.0,30.0,-852.0,-563.0
3.0,-211.0,-147.0,-268.0,53.0,80.0,27.0,-858.0,-571.0
2.0,-210.0,-146.0,-266.0,46.0,85.0,17.0,-861.0,-580.0
1.0,-210.0,-147.0,-261.0,40.0,90.0,17.0,-869.0,-593.0
1.0,-214.0,-152.0,-252.0,33.0,91.0,12.0,-875.0,-596.0
1.0,-213.0,-145.0,-245.0,28.0,91.0,10.0,-872.0,-599.0
2.0,-212.0,-151.0,-237.0,22.0,92.0,16.0,-861.0,-603.0
1.0,-214.0,-150.0,-229.0,23.0,90.0,13.0,-869.0,-588.0
3.0,-207.0,-148.0,-222.0,25.0,86.0,13.0,-861.0,-590.0
3.0,-207.0,-147.0,-214.0,29.0,83.0,20.0,-847.0,-578.0
1.0,-205.0,-146.0,-205.0,34.0,78.0,23.0,-847.0,-573.0
4.0,-204.0,-145.0,-197.0,40.0,75.0,24.0,-840.0,-561.0
6.0,-205.0,-140.0,-189.0,47.0,70.0,27.0,-836.0,-557.0
7.0,-202.0,-144.0,-181.0,54.0,66.0,25.0,-838.0,-554.0
6.0,-204.0,-141.0,-174.0,60.0,62.0,33.0,-835.0,-558.0
7.0,-205.0,-142.0,-170.0,65.0,58.0,31.0,-839.0,-565.0
6.0,-206.0,-146.0,-168.0,69.0,53.0,30.0,-838.0,-563.0
6.0,-202.0,-141.0,-171.0,71.0,48.0,36.0,-838.0,-573.0
9.0,-201.0,-144.0,-178.0,74.0,45.0,36.0,-829.0,-586.0
6.0,-202.0,-148.0,-187.0,74.0,43.0,33.0,-832.0,-584.0
8.0,-202.0,-147.0,-197.0,74.0,41.0,31.0,-833.0,-585.0
6.0,-201.0,-148.0,-206.0,73.0,41.0,36.0,-831.0,-589.0
9.0,-201.0,-151.0,-213.0,72.0,37.0,38.0,-826.0,-580.0
12.0,-201.0,-150.0,-218.0,69.0,37.0,36.0,-827.0,-590.0
7.0,-198.0,-152.0,-222.0,67.0,37.0,40.0,-818.0,-589.0
8.0,-200.0,-149.0,-224.0,66.0,34.0,43.0,-826.0,-587.0
7.0,-201.0,-150.0,-225.0,62.0,30.0,42.0,-823.0,-582.0
11.0,-198.0,-146.0,-224.0,58.0,27.0,36.0,-820.0,-582.0
7.0,-202.0,-147.0,-222.0,54.0,23.0,35.0,-823.0,-588.0
8.0,-201.0,-144.0,-219.0,49.0,20.0,36.0,-826.0,-587.0
5.0,-198.0,-148.0,-216.0,44.0,17.0,31.0,-831.0,-587.0
10.0,-203.0,-146.0,-210.0,39.0,16.0,34.0,-829.0,-582.0
6.0,-201.0,-147.0,-205.0,34.0,13.0,32.0,-832.0,-588.0
6.0,-203.0,-148.0,-199.0,29.0,10.0,23.0,-832.0,-581.0
2.0,-199.0,-147.0,-193.0,26.0,6.0,24.0,-831.0,-580.0
4.0,-200.0,-149.0,-186.0,20.0,5.0,17.0,-828.0,-584.0
1.0,-200.0,-147.0,-182.0,18.0,4.0,22.0,-829.0,-588.0
1.0,-201.0,-155.0,-177.0,14.0,-1.0,18.0,-824.0,-593.0
6.0,-190.0,-141.0,-177.0,13.0,-2.0,20.0,-818.0,-592.0
4.0,-199.0,-153.0,-178.0,11.0,-7.0,23.0,-818.0,-603.0
3.0,-197.0,-156.0,-183.0,11.0,-14.0,26.0,-823.0,-607.0
3.0,-200.0,-155.0,-190.0,10.0,-20.0,19.0,-823.0,-612.0
2.0,-200.0,-160.0,-197.0,11.0,-26.0,21.0,-824.0,-613.0
5.0,-204.0,-159.0,-200.0,16.0,-31.0,23.0,-826.0,-616.0
6.0,-201.0,-156.0,-201.0,20.0,-38.0,27.0,-827.0,-630.0
8.0,-200.0,-159.0,-201.0,25.0,-45.0,37.0,-830.0,-631.0
12.0,-203.0,-137.0,-197.0,31.0,-54.0,47.0,-826.0,-628.0
11.0,-203.0,-161.0,-194.0,37.0,-59.0,46.0,-833.0,-634.0
12.0,-203.0,-161.0,-187.0,45.0,-65.0,54.0,-832.0,-629.0
15.0,-204.0,-161.0,-177.0,54.0,-69.0,63.0,-830.0,-631.0
16.0,-202.0,-160.0,-168.0,64.0,-75.0,70.0,-834.0,-632.0
23.0,-207.0,-159.0,-155.0,75.0,-77.0,77.0,-828.0,-627.0
20.0,-202.0,-156.0,-143.0,88.0,-77.0,78.0,-830.0,-624.0
16.0,-200.0,-158.0,-129.0,103.0,-77.0,83.0,-828.0,-617.0
20.0,-200.0,-157.0,-118.0,115.0,-76.0,84.0,-821.0,-613.0
20.0,-201.0,-154.0,-109.0,123.0,-75.0,83.0,-822.0,-616.0
20.0,-198.0,-162.0,-102.0,124.0,-71.0,84.0,-813.0,-623.0
17.0,-199.0,-162.0,-98.0,121.0,-66.0,79.0,-813.0,-623.0
15.0,-197.0,-162.0,-95.0,116.0,-61.0,72.0,-807.0,-631.0
10.0,-202.0,-156.0,-96.0,110.0,-57.0,57.0,-807.0,-633.0
11.0,-197.0,-162.0,-99.0,103.0,-54.0,50.0,-798.0,-636.0
9.0,-196.0,-168.0,-102.0,94.0,-48.0,44.0,-803.0,-634.0
8.0,-195.0,-164.0,-105.0,85.0,-45.0,38.0,-801.0,-632.0
4.0,-196.0,-163.0,-108.0,76.0,-37.0,34.0,-799.0,-636.0
6.0,-194.0,-166.0,-111.0,68.0,-30.0,32.0,-795.0,-637.0
7.0,-196.0,-163.0,-114.0,61.0,-25.0,31.0,-799.0,-637.0
5.0,-193.0,-162.0,-115.0,55.0,-21.0,35.0,-801.0,-643.0
7.0,-194.0,-161.0,-118.0,53.0,-17.0,38.0,-805.0,-648.0
8.0,-198.0,-162.0,-120.0,53.0,-15.0,38.0,-803.0,-648.0
8.0,-195.0,-156.0,-122.0,54.0,-13.0,47.0,-802.0,-639.0
11.0,-194.0,-165.0,-124.0,53.0,-13.0,47.0,-801.0,-635.0
12.0,-196.0,-162.0,-122.0,54.0,-14.0,52.0,-802.0,-641.0
12.0,-194.0,-167.0,-122.0,54.0,-13.0,52.0,-797.0,-638.0
7.0,-194.0,-162.0,-120.0,54.0,-15.0,46.0,-793.0,-642.0
9.0,-196.0,-163.0,-119.0,51.0,-13.0,51.0,-792.0,-644.0
10.0,-195.0,-162.0,-115.0,47.0,-13.0,48.0,-792.0,-648.0
7.0,-194.0,-164.0,-111.0,42.0,-13.0,45.0,-797.0,-643.0
7.0,-192.0,-165.0,-111.0,39.0,-16.0,47.0,-782.0,-668.0
7.0,-191.0,-167.0,-116.0,36.0,-16.0,49.0,-777.0,-660.0
8.0,-192.0,-163.0,-121.0,32.0,-15.0,37.0,-784.0,-662.0
8.0,-192.0,-169.0,-128.0,30.0,-16.0,36.0,-784.0,-672.0
9.0,-192.0,-166.0,-134.0,28.0,-15.0,35.0,-781.0,-654.0
7.0,-194.0,-169.0,-140.0,27.0,-16.0,35.0,-783.0,-664.0
9.0,-193.0,-167.0,-141.0,29.0,-19.0,39.0,-777.0,-670.0
7.0,-190.0,-172.0,-142.0,30.0,-21.0,32.0,-786.0,-659.0
9.0,-191.0,-167.0,-142.0,31.0,-23.0,44.0,-786.0,-669.0
9.0,-190.0,-164.0,-142.0,30.0,-23.0,42.0,-786.0,-657.0
11.0,-193.0,-169.0,-143.0,30.0,-26.0,48.0,-782.0,-664.0
12.0,-192.0,-167.0,-144.0,30.0,-28.0,52.0,-781.0,-657.0
10.0,-189.0,-168.0,-146.0,30.0,-31.0,56.0,-779.0,-653.0
15.0,-190.0,-164.0,-145.0,29.0,-33.0,61.0,-772.0,-659.0
13.0,-190.0,-164.0,-144.0,28.0,-32.0,60.0,-774.0,-661.0
17.0,-189.0,-165.0,-141.0,27.0,-33.0,63.0,-768.0,-648.0
16.0,-186.0,-166.0,-138.0,27.0,-33.0,73.0,-767.0,-649.0
17.0,-186.0,-163.0,-137.0,25.0,-33.0,73.0,-765.0,-654.0
16.0,-187.0,-166.0,-136.0,23.0,-33.0,71.0,-759.0,-647.0
18.0,-188.0,-166.0,-135.0,23.0,-34.0,70.0,-766.0,-650.0
15.0,-184.0,-162.0,-135.0,22.0,-34.0,71.0,-763.0,-656.0
13.0,-187.0,-165.0,-135.0,22.0,-33.0,54.0,-758.0,-646.0
14.0,-188.0,-166.0,-134.0,20.0,-35.0,57.0,-756.0,-650.0
10.0,-184.0,-166.0,-132.0,19.0,-35.0,52.0,-757.0,-646.0
8.0,-183.0,-165.0,-132.0,14.0,-36.0,44.0,-756.0,-644.0
9.0,-184.0,-164.0,-134.0,12.0,-37.0,38.0,-741.0,-655.0
6.0,-182.0,-167.0,-136.0,9.0,-37.0,37.0,-745.0,-653.0
6.0,-185.0,-168.0,-138.0,8.0,-38.0,36.0,-751.0,-665.0
5.0,-181.0,-168.0,-144.0,8.0,-40.0,36.0,-749.0,-659.0
10.0,-184.0,-169.0,-146.0,8.0,-40.0,43.0,-746.0,-657.0
8.0,-183.0,-166.0,-149.0,8.0,-42.0,42.0,-745.0,-658.0
10.0,-181.0,-166.0,-152.0,9.0,-43.0,47.0,-748.0,-665.0
12.0,-182.0,-168.0,-155.0,10.0,-44.0,51.0,-739.0,-661.0
12.0,-183.0,-168.0,-158.0,12.0,-46.0,57.0,-749.0,-656.0
13.0,-183.0,-169.0,-158.0,14.0,-45.0,56.0,-744.0,-659.0
13.0,-184.0,-170.0,-159.0,16.0,-47.0,60.0,-752.0,-662.0
13.0,-186.0,-166.0,-158.0,18.0,-48.0,63.0,-755.0,-672.0
15.0,-183.0,-173.0,-158.0,20.0,-51.0,67.0,-747.0,-668.0
14.0,-184.0,-168.0,-159.0,22.0,-50.0,67.0,-742.0,-678.0
13.0,-180.0,-170.0,-160.0,22.0,-48.0,70.0,-740.0,-671.0
16.0,-181.0,-170.0,-160.0,21.0,-47.0,74.0,-744.0,-669.0
15.0,-183.0,-171.0,-159.0,17.0,-48.0,62.0,-741.0,-672.0
13.0,-181.0,-168.0,-158.0,13.0,-49.0,64.0,-743.0,-677.0
14.0,-182.0,-173.0,-158.0,12.0,-50.0,60.0,-731.0,-682.0
13.0,-182.0,-177.0,-158.0,9.0,-50.0,60.0,-734.0,-681.0
11.0,-176.0,-172.0,-158.0,8.0,-49.0,56.0,-736.0,-681.0
12.0,-182.0,-170.0,-158.0,9.0,-47.0,56.0,-738.0,-682.0
11.0,-181.0,-175.0,-156.0,10.0,-49.0,54.0,-738.0,-682.0
21.0,-184.0,-158.0,-154.0,10.0,-50.0,55.0,-749.0,-684.0
12.0,-179.0,-174.0,-153.0,8.0,-50.0,55.0,-736.0,-690.0
13.0,-182.0,-174.0,-153.0,7.0,-50.0,53.0,-745.0,-690.0
12.0,-180.0,-175.0,-156.0,7.0,-52.0,52.0,-734.0,-690.0
12.0,-178.0,-173.0,-160.0,3.0,-50.0,55.0,-727.0,-685.0
10.0,-173.0,-176.0,-167.0,0.0,-51.0,46.0,-727.0,-692.0
8.0,-178.0,-172.0,-176.0,-4.0,-53.0,47.0,-720.0,-681.0
10.0,-175.0,-174.0,-183.0,-7.0,-52.0,38.0,-721.0,-682.0
2.0,-168.0,-181.0,-188.0,-14.0,-52.0,42.0,-726.0,-686.0
7.0,-177.0,-173.0,-191.0,-17.0,-50.0,41.0,-731.0,-688.0
10.0,-180.0,-176.0,-191.0,-19.0,-50.0,47.0,-733.0,-688.0
6.0,-181.0,-176.0,-187.0,-18.0,-49.0,45.0,-736.0,-694.0
13.0,-181.0,-177.0,-182.0,-17.0,-48.0,46.0,-740.0,-698.0
17.0,-181.0,-181.0,-177.0,-15.0,-47.0,54.0,-747.0,-705.0
11.0,-183.0,-178.0,-170.0,-12.0,-45.0,59.0,-737.0,-706.0
15.0,-182.0,-176.0,-163.0,-6.0,-43.0,65.0,-735.0,-707.0
19.0,-178.0,-179.0,-158.0,0.0,-42.0,76.0,-734.0,-706.0
20.0,-174.0,-177.0,-153.0,6.0,-43.0,73.0,-729.0,-710.0
22.0,-180.0,-182.0,-148.0,10.0,-43.0,88.0,-730.0,-705.0
21.0,-176.0,-178.0,-144.0,15.0,-44.0,86.0,-729.0,-704.0
21.0,-177.0,-181.0,-140.0,18.0,-46.0,90.0,-724.0,-709.0
23.0,-178.0,-177.0,-137.0,19.0,-47.0,87.0,-724.0,-706.0
20.0,-177.0,-179.0,-137.0,22.0,-48.0,86.0,-728.0,-710.0
17.0,-176.0,-182.0,-137.0,22.0,-50.0,85.0,-722.0,-709.0
17.0,-174.0,-179.0,-139.0,23.0,-48.0,79.0,-721.0,-710.0
18.0,-176.0,-179.0,-141.0,25.0,-44.0,77.0,-721.0,-713.0
16.0,-175.0,-182.0,-143.0,25.0,-45.0,73.0,-725.0,-715.0
15.0,-176.0,-184.0,-144.0,27.0,-40.0,60.0,-722.0,-715.0
12.0,-174.0,-180.0,-144.0,28.0,-38.0,57.0,-727.0,-713.0
13.0,-177.0,-180.0,-145.0,27.0,-35.0,59.0,-725.0,-716.0
11.0,-177.0,-181.0,-146.0,30.0,-31.0,48.0,-730.0,-728.0
14.0,-177.0,-183.0,-148.0,29.0,-30.0,44.0,-723.0,-724.0
10.0,-177.0,-181.0,-146.0,26.0,-27.0,49.0,-721.0,-733.0
4.0,-174.0,-184.0,-148.0,24.0,-27.0,47.0,-728.0,-733.0
6.0,-174.0,-188.0,-148.0,19.0,-26.0,42.0,-730.0,-736.0
9.0,-177.0,-185.0,-145.0,15.0,-25.0,47.0,-721.0,-732.0
10.0,-178.0,-184.0,-144.0,9.0,-24.0,50.0,-718.0,-720.0
9.0,-174.0,-180.0,-141.0,6.0,-24.0,51.0,-716.0,-724.0
12.0,-176.0,-184.0,-138.0,2.0,-24.0,54.0,-717.0,-728.0
14.0,-173.0,-185.0,-138.0,1.0,-22.0,63.0,-716.0,-731.0
13.0,-173.0,-179.0,-134.0,1.0,-22.0,65.0,-720.0,-730.0
15.0,-175.0,-180.0,-134.0,1.0,-24.0,73.0,-712.0,-727.0
19.0,-177.0,-185.0,-132.0,-1.0,-25.0,75.0,-715.0,-735.0
21.0,-172.0,-185.0,-132.0,-2.0,-24.0,79.0,-719.0,-733.0
18.0,-173.0,-184.0,-130.0,-2.0,-24.0,88.0,-715.0,-731.0
20.0,-174.0,-185.0,-130.0,2.0,-24.0,87.0,-713.0,-739.0
21.0,-173.0,-182.0,-130.0,6.0,-26.0,85.0,-709.0,-729.0
19.0,-174.0,-180.0,-129.0,9.0,-27.0,80.0,-711.0,-729.0
15.0,-168.0,-185.0,-128.0,13.0,-27.0,75.0,-708.0,-729.0
19.0,-172.0,-184.0,-128.0,16.0,-26.0,76.0,-707.0,-724.0
18.0,-172.0,-180.0,-129.0,18.0,-26.0,74.0,-707.0,-730.0
15.0,-172.0,-181.0,-128.0,21.0,-25.0,73.0,-709.0,-730.0
16.0,-171.0,-182.0,-127.0,25.0,-26.0,73.0,-706.0,-723.0
15.0,-172.0,-180.0,-127.0,26.0,-23.0,67.0,-705.0,-733.0
12.0,-173.0,-183.0,-125.0,26.0,-22.0,58.0,-702.0,-729.0
14.0,-168.0,-182.0,-124.0,25.0,-22.0,60.0,-704.0,-722.0
11.0,-169.0,-184.0,-123.0,25.0,-21.0,58.0,-696.0,-723.0
14.0,-168.0,-187.0,-122.0,25.0,-18.0,63.0,-695.0,-730.0
12.0,-166.0,-182.0,-120.0,24.0,-17.0,65.0,-690.0,-723.0
13.0,-170.0,-187.0,-120.0,23.0,-15.0,66.0,-690.0,-724.0
11.0,-169.0,-185.0,-118.0,21.0,-13.0,62.0,-687.0,-733.0
16.0,-173.0,-190.0,-119.0,19.0,-10.0,72.0,-690.0,-733.0
17.0,-167.0,-187.0,-116.0,17.0,-9.0,68.0,-685.0,-730.0
14.0,-168.0,-186.0,-115.0,15.0,-7.0,71.0,-688.0,-734.0
16.0,-167.0,-184.0,-115.0,15.0,-6.0,80.0,-691.0,-736.0
19.0,-169.0,-186.0,-114.0,14.0,-6.0,80.0,-695.0,-734.0
17.0,-169.0,-185.0,-113.0,13.0,-7.0,81.0,-685.0,-728.0
17.0,-167.0,-187.0,-113.0,13.0,-5.0,78.0,-682.0,-733.0
18.0,-164.0,-189.0,-114.0,13.0,-5.0,77.0,-678.0,-734.0
19.0,-167.0,-186.0,-117.0,14.0,-6.0,83.0,-668.0,-730.0
18.0,-163.0,-185.0,-120.0,16.0,-6.0,83.0,-671.0,-730.0
17.0,-160.0,-185.0,-126.0,20.0,-9.0,74.0,-663.0,-729.0
16.0,-165.0,-181.0,-130.0,23.0,-11.0,78.0,-671.0,-736.0
14.0,-163.0,-183.0,-135.0,26.0,-12.0,69.0,-673.0,-721.0
18.0,-166.0,-187.0,-138.0,28.0,-14.0,68.0,-677.0,-726.0
17.0,-166.0,-185.0,-140.0,29.0,-13.0,66.0,-675.0,-736.0
14.0,-166.0,-185.0,-142.0,29.0,-15.0,67.0,-686.0,-735.0
15.0,-168.0,-186.0,-141.0,31.0,-17.0,60.0,-685.0,-735.0
13.0,-168.0,-187.0,-138.0,32.0,-15.0,56.0,-684.0,-735.0
16.0,-166.0,-188.0,-136.0,34.0,-15.0,66.0,-682.0,-739.0
15.0,-164.0,-190.0,-132.0,37.0,-15.0,68.0,-673.0,-739.0
14.0,-164.0,-189.0,-131.0,39.0,-16.0,75.0,-674.0,-745.0
15.0,-163.0,-191.0,-129.0,45.0,-18.0,78.0,-670.0,-746.0
19.0,-162.0,-191.0,-127.0,50.0,-17.0,82.0,-668.0,-748.0
19.0,-162.0,-186.0,-128.0,53.0,-20.0,85.0,-672.0,-745.0
19.0,-162.0,-189.0,-129.0,55.0,-22.0,87.0,-664.0,-749.0
23.0,-164.0,-190.0,-128.0,58.0,-24.0,88.0,-672.0,-749.0
21.0,-163.0,-188.0,-129.0,60.0,-27.0,96.0,-664.0,-749.0
20.0,-160.0,-192.0,-130.0,63.0,-26.0,90.0,-669.0,-750.0
21.0,-165.0,-192.0,-129.0,65.0,-27.0,89.0,-667.0,-750.0
22.0,-165.0,-189.0,-130.0,67.0,-29.0,91.0,-665.0,-752.0
20.0,-164.0,-189.0,-132.0,70.0,-27.0,89.0,-664.0,-754.0
22.0,-165.0,-190.0,-133.0,72.0,-25.0,87.0,-664.0,-753.0
21.0,-166.0,-193.0,-136.0,72.0,-25.0,84.0,-667.0,-757.0
18.0,-161.0,-193.0,-136.0,70.0,-26.0,78.0,-664.0,-754.0
16.0,-162.0,-190.0,-138.0,66.0,-25.0,80.0,-663.0,-759.0
17.0,-161.0,-192.0,-141.0,61.0,-27.0,71.0,-662.0,-758.0
12.0,-160.0,-193.0,-143.0,56.0,-28.0,67.0,-660.0,-772.0
14.0,-161.0,-192.0,-147.0,52.0,-28.0,62.0,-664.0,-764.0
12.0,-160.0,-192.0,-149.0,47.0,-27.0,58.0,-658.0,-771.0
12.0,-161.0,-194.0,-152.0,42.0,-27.0,55.0,-659.0,-761.0
10.0,-159.0,-194.0,-153.0,37.0,-28.0,54.0,-657.0,-774.0
11.0,-162.0,-195.0,-157.0,33.0,-27.0,56.0,-652.0,-776.0
11.0,-160.0,-196.0,-159.0,28.0,-25.0,58.0,-654.0,-783.0
13.0,-159.0,-193.0,-163.0,24.0,-25.0,62.0,-648.0,-775.0
17.0,-161.0,-193.0,-165.0,22.0,-25.0,69.0,-650.0,-774.0
18.0,-156.0,-194.0,-168.0,23.0,-26.0,78.0,-656.0,-771.0
17.0,-155.0,-195.0,-171.0,22.0,-28.0,82.0,-651.0,-776.0
20.0,-158.0,-194.0,-176.0,24.0,-30.0,89.0,-649.0,-780.0
18.0,-154.0,-196.0,-180.0,25.0,-30.0,89.0,-646.0,-775.0
24.0,-155.0,-194.0,-185.0,27.0,-30.0,97.0,-647.0,-768.0
23.0,-155.0,-194.0,-186.0,28.0,-30.0,92.0,-651.0,-777.0
21.0,-159.0,-195.0,-186.0,29.0,-30.0,98.0,-649.0,-778.0
23.0,-154.0,-193.0,-186.0,29.0,-30.0,95.0,-644.0,-777.0
17.0,-156.0,-196.0,-187.0,29.0,-29.0,94.0,-644.0,-782.0
23.0,-156.0,-196.0,-191.0,27.0,-30.0,86.0,-638.0,-778.0
20.0,-155.0,-194.0,-192.0,22.0,-27.0,85.0,-646.0,-774.0
18.0,-153.0,-196.0,-192.0,18.0,-25.0,75.0,-636.0,-767.0
16.0,-155.0,-194.0,-193.0,15.0,-22.0,76.0,-640.0,-765.0
17.0,-157.0,-193.0,-192.0,13.0,-21.0,76.0,-648.0,-767.0
17.0,-158.0,-197.0,-190.0,11.0,-19.0,71.0,-652.0,-782.0
16.0,-159.0,-198.0,-186.0,9.0,-18.0,72.0,-651.0,-781.0
16.0,-163.0,-199.0,-179.0,5.0,-17.0,68.0,-654.0,-780.0
16.0,-159.0,-197.0,-174.0,6.0,-20.0,63.0,-655.0,-786.0
17.0,-158.0,-196.0,-171.0,5.0,-18.0,70.0,-653.0,-787.0
18.0,-158.0,-196.0,-167.0,7.0,-18.0,71.0,-659.0,-791.0
30.0,-154.0,-195.0,-162.0,2.0,-18.0,75.0,-649.0,-788.0
19.0,-152.0,-201.0,-160.0,0.0,-18.0,84.0,-637.0,-787.0
18.0,-154.0,-197.0,-160.0,0.0,-21.0,86.0,-632.0,-791.0
20.0,-152.0,-194.0,-163.0,2.0,-24.0,94.0,-624.0,-781.0
21.0,-153.0,-195.0,-170.0,5.0,-23.0,91.0,-621.0,-771.0
21.0,-151.0,-192.0,-175.0,10.0,-23.0,99.0,-619.0,-766.0
25.0,-155.0,-194.0,-177.0,15.0,-24.0,97.0,-625.0,-764.0
23.0,-152.0,-193.0,-179.0,22.0,-21.0,98.0,-617.0,-773.0
23.0,-149.0,-194.0,-180.0,28.0,-20.0,98.0,-620.0,-774.0
24.0,-151.0,-192.0,-182.0,32.0,-18.0,93.0,-621.0,-774.0
21.0,-151.0,-195.0,-183.0,34.0,-17.0,92.0,-632.0,-776.0
23.0,-155.0,-195.0,-183.0,37.0,-16.0,84.0,-628.0,-776.0
17.0,-154.0,-194.0,-182.0,36.0,-15.0,83.0,-631.0,-788.0
19.0,-152.0,-198.0,-179.0,35.0,-15.0,79.0,-628.0,-784.0
15.0,-149.0,-195.0,-178.0,33.0,-16.0,75.0,-616.0,-785.0
17.0,-151.0,-198.0,-177.0,31.0,-15.0,76.0,-625.0,-789.0
16.0,-149.0,-199.0,-177.0,29.0,-14.0,77.0,-617.0,-790.0
14.0,-150.0,-200.0,-177.0,25.0,-13.0,67.0,-618.0,-789.0
14.0,-146.0,-199.0,-177.0,22.0,-12.0,72.0,-614.0,-798.0
19.0,-150.0,-200.0,-177.0,20.0,-10.0,76.0,-618.0,-791.0
16.0,-146.0,-203.0,-177.0,19.0,-10.0,67.0,-610.0,-790.0
18.0,-149.0,-199.0,-179.0,18.0,-12.0,78.0,-615.0,-796.0
21.0,-152.0,-201.0,-178.0,17.0,-12.0,77.0,-614.0,-795.0
14.0,-144.0,-198.0,-180.0,17.0,-13.0,77.0,-609.0,-799.0
17.0,-149.0,-200.0,-182.0,17.0,-16.0,82.0,-608.0,-791.0
18.0,-146.0,-199.0,-184.0,17.0,-15.0,87.0,-602.0,-792.0
18.0,-144.0,-203.0,-183.0,20.0,-19.0,86.0,-601.0,-795.0
21.0,-147.0,-198.0,-184.0,23.0,-19.0,90.0,-608.0,-801.0
22.0,-146.0,-198.0,-185.0,24.0,-22.0,89.0,-600.0,-805.0
19.0,-146.0,-201.0,-187.0,26.0,-21.0,91.0,-601.0,-800.0
21.0,-148.0,-202.0,-189.0,28.0,-23.0,87.0,-601.0,-801.0
20.0,-145.0,-200.0,-192.0,31.0,-25.0,87.0,-600.0,-791.0
18.0,-143.0,-198.0,-193.0,33.0,-25.0,89.0,-599.0,-806.0
13.0,-143.0,-202.0,-195.0,34.0,-25.0,82.0,-595.0,-810.0
20.0,-144.0,-199.0,-197.0,35.0,-26.0,82.0,-596.0,-806.0
14.0,-143.0,-198.0,-198.0,36.0,-26.0,72.0,-593.0,-799.0
17.0,-142.0,-202.0,-201.0,35.0,-26.0,72.0,-596.0,-811.0
15.0,-144.0,-199.0,-202.0,34.0,-25.0,75.0,-587.0,-802.0
15.0,-143.0,-197.0,-202.0,33.0,-24.0,71.0,-591.0,-809.0
12.0,-140.0,-201.0,-204.0,32.0,-23.0,71.0,-591.0,-810.0
16.0,-144.0,-200.0,-205.0,31.0,-22.0,70.0,-589.0,-808.0
12.0,-142.0,-201.0,-204.0,28.0,-20.0,70.0,-596.0,-815.0
17.0,-141.0,-201.0,-203.0,27.0,-19.0,65.0,-590.0,-811.0
15.0,-142.0,-201.0,-202.0,24.0,-16.0,70.0,-593.0,-813.0
17.0,-138.0,-206.0,-200.0,21.0,-13.0,76.0,-594.0,-814.0
18.0,-143.0,-204.0,-202.0,19.0,-11.0,79.0,-587.0,-815.0
15.0,-140.0,-202.0,-203.0,19.0,-10.0,79.0,-583.0,-812.0
20.0,-141.0,-204.0,-203.0,20.0,-10.0,81.0,-581.0,-815.0
17.0,-139.0,-201.0,-204.0,22.0,-10.0,83.0,-579.0,-819.0
18.0,-141.0,-202.0,-205.0,24.0,-9.0,82.0,-578.0,-822.0
19.0,-140.0,-207.0,-205.0,26.0,-11.0,86.0,-574.0,-815.0
17.0,-136.0,-204.0,-208.0,28.0,-10.0,78.0,-571.0,-817.0
18.0,-137.0,-203.0,-207.0,33.0,-10.0,84.0,-573.0,-818.0
18.0,-138.0,-201.0,-209.0,38.0,-10.0,85.0,-572.0,-813.0
21.0,-138.0,-203.0,-210.0,42.0,-9.0,88.0,-574.0,-816.0
19.0,-140.0,-203.0,-212.0,46.0,-8.0,87.0,-574.0,-815.0
20.0,-137.0,-208.0,-212.0,49.0,-6.0,85.0,-573.0,-822.0
22.0,-140.0,-203.0,-213.0,51.0,-6.0,87.0,-570.0,-819.0
19.0,-136.0,-205.0,-213.0,54.0,-5.0,81.0,-571.0,-825.0
16.0,-135.0,-204.0,-214.0,55.0,-3.0,87.0,-568.0,-828.0
18.0,-133.0,-209.0,-218.0,57.0,-2.0,78.0,-562.0,-831.0
18.0,-134.0,-210.0,-221.0,60.0,-1.0,77.0,-554.0,-829.0
18.0,-134.0,-209.0,-224.0,62.0,1.0,77.0,-561.0,-831.0
16.0,-139.0,-208.0,-228.0,63.0,5.0,76.0,-561.0,-838.0
14.0,-133.0,-208.0,-231.0,64.0,8.0,73.0,-556.0,-840.0
20.0,-134.0,-212.0,-233.0,64.0,13.0,74.0,-550.0,-839.0
15.0,-133.0,-209.0,-236.0,63.0,12.0,69.0,-548.0,-840.0
15.0,-132.0,-212.0,-241.0,62.0,15.0,72.0,-544.0,-842.0
15.0,-137.0,-213.0,-242.0,63.0,17.0,78.0,-549.0,-849.0
16.0,-133.0,-206.0,-245.0,65.0,19.0,72.0,-546.0,-842.0
16.0,-133.0,-211.0,-245.0,67.0,20.0,79.0,-544.0,-836.0
17.0,-134.0,-211.0,-248.0,69.0,21.0,79.0,-546.0,-856.0
19.0,-133.0,-211.0,-250.0,74.0,24.0,80.0,-543.0,-849.0
21.0,-133.0,-208.0,-251.0,78.0,27.0,86.0,-548.0,-842.0
17.0,-132.0,-214.0,-253.0,79.0,26.0,86.0,-539.0,-842.0
18.0,-131.0,-214.0,-251.0,83.0,28.0,88.0,-536.0,-846.0
18.0,-132.0,-212.0,-254.0,87.0,28.0,79.0,-535.0,-838.0
19.0,-131.0,-211.0,-257.0,90.0,30.0,83.0,-537.0,-846.0
17.0,-131.0,-208.0,-259.0,91.0,29.0,86.0,-530.0,-841.0
15.0,-130.0,-209.0,-258.0,94.0,31.0,83.0,-533.0,-851.0
17.0,-129.0,-207.0,-259.0,97.0,32.0,81.0,-533.0,-840.0
17.0,-128.0,-211.0,-259.0,100.0,32.0,79.0,-540.0,-842.0
18.0,-132.0,-211.0,-258.0,103.0,33.0,82.0,-537.0,-853.0
21.0,-132.0,-213.0,-257.0,105.0,33.0,80.0,-536.0,-849.0
21.0,-131.0,-211.0,-256.0,105.0,36.0,83.0,-534.0,-842.0
21.0,-131.0,-212.0,-254.0,107.0,38.0,89.0,-522.0,-843.0
19.0,-128.0,-212.0,-254.0,106.0,41.0,85.0,-518.0,-847.0
21.0,-126.0,-210.0,-254.0,107.0,41.0,90.0,-514.0,-846.0
21.0,-128.0,-209.0,-257.0,107.0,40.0,90.0,-512.0,-849.0
22.0,-122.0,-211.0,-260.0,105.0,40.0,89.0,-510.0,-851.0
19.0,-121.0,-209.0,-265.0,103.0,41.0,92.0,-509.0,-845.0
19.0,-122.0,-213.0,-271.0,101.0,43.0,85.0,-504.0,-840.0
20.0,-125.0,-213.0,-276.0,98.0,41.0,87.0,-510.0,-840.0
19.0,-125.0,-210.0,-282.0,96.0,41.0,82.0,-502.0,-842.0
19.0,-124.0,-208.0,-286.0,94.0,40.0,83.0,-504.0,-843.0
19.0,-124.0,-211.0,-291.0,90.0,42.0,85.0,-502.0,-842.0
18.0,-122.0,-213.0,-296.0,89.0,41.0,82.0,-505.0,-850.0
18.0,-123.0,-213.0,-299.0,87.0,42.0,86.0,-497.0,-847.0
29.0,-123.0,-210.0,-302.0,88.0,41.0,81.0,-504.0,-859.0
20.0,-126.0,-209.0,-305.0,86.0,38.0,81.0,-502.0,-858.0
16.0,-120.0,-217.0,-307.0,88.0,39.0,92.0,-509.0,-861.0
19.0,-122.0,-214.0,-308.0,90.0,39.0,98.0,-497.0,-864.0
20.0,-119.0,-212.0,-309.0,94.0,39.0,97.0,-500.0,-866.0
24.0,-122.0,-214.0,-309.0,99.0,39.0,106.0,-498.0,-870.0
25.0,-122.0,-217.0,-309.0,105.0,37.0,111.0,-504.0,-863.0
25.0,-120.0,-217.0,-307.0,109.0,37.0,107.0,-499.0,-864.0
28.0,-124.0,-215.0,-307.0,113.0,36.0,110.0,-491.0,-863.0
22.0,-119.0,-216.0,-308.0,117.0,35.0,110.0,-488.0,-864.0
27.0,-124.0,-212.0,-310.0,119.0,32.0,109.0,-494.0,-863.0
24.0,-117.0,-212.0,-312.0,123.0,33.0,109.0,-487.0,-865.0
26.0,-118.0,-215.0,-315.0,126.0,32.0,105.0,-487.0,-867.0
25.0,-116.0,-213.0,-319.0,130.0,30.0,104.0,-484.0,-864.0
26.0,-118.0,-215.0,-323.0,133.0,31.0,103.0,-479.0,-873.0
26.0,-118.0,-218.0,-326.0,135.0,31.0,107.0,-483.0,-869.0
24.0,-117.0,-216.0,-328.0,137.0,29.0,104.0,-481.0,-869.0
27.0,-118.0,-215.0,-329.0,138.0,29.0,107.0,-478.0,-866.0
24.0,-117.0,-217.0,-331.0,137.0,29.0,104.0,-479.0,-879.0
22.0,-119.0,-219.0,-331.0,137.0,28.0,108.0,-477.0,-883.0
22.0,-116.0,-217.0,-334.0,134.0,29.0,105.0,-473.0,-882.0
23.0,-116.0,-220.0,-334.0,133.0,29.0,102.0,-472.0,-880.0
22.0,-112.0,-219.0,-337.0,130.0,26.0,104.0,-464.0,-885.0
22.0,-112.0,-216.0,-339.0,129.0,25.0,96.0,-463.0,-875.0
24.0,-112.0,-221.0,-344.0,128.0,23.0,97.0,-466.0,-878.0
20.0,-113.0,-214.0,-351.0,131.0,21.0,94.0,-466.0,-870.0
22.0,-111.0,-218.0,-358.0,129.0,22.0,96.0,-464.0,-874.0
22.0,-114.0,-217.0,-366.0,128.0,20.0,97.0,-459.0,-865.0
23.0,-111.0,-217.0,-375.0,125.0,20.0,94.0,-452.0,-871.0
24.0,-105.0,-213.0,-383.0,123.0,21.0,97.0,-457.0,-873.0
24.0,-115.0,-214.0,-390.0,117.0,21.0,99.0,-460.0,-872.0
20.0,-113.0,-218.0,-396.0,112.0,19.0,95.0,-464.0,-874.0
23.0,-110.0,-215.0,-401.0,108.0,15.0,96.0,-455.0,-872.0
21.0,-110.0,-218.0,-405.0,103.0,14.0,95.0,-450.0,-876.0
23.0,-109.0,-215.0,-409.0,100.0,13.0,97.0,-440.0,-863.0
26.0,-107.0,-217.0,-415.0,96.0,12.0,104.0,-434.0,-868.0
24.0,-103.0,-213.0,-420.0,94.0,9.0,105.0,-439.0,-861.0
23.0,-106.0,-214.0,-426.0,90.0,9.0,103.0,-441.0,-859.0
26.0,-107.0,-212.0,-429.0,86.0,7.0,100.0,-451.0,-860.0
24.0,-110.0,-214.0,-430.0,81.0,6.0,104.0,-457.0,-862.0
24.0,-107.0,-216.0,-429.0,76.0,7.0,97.0,-457.0,-863.0
20.0,-108.0,-218.0,-427.0,73.0,6.0,100.0,-451.0,-877.0
21.0,-109.0,-220.0,-428.0,68.0,4.0,97.0,-449.0,-873.0
23.0,-110.0,-216.0,-431.0,60.0,4.0,95.0,-450.0,-873.0
25.0,-111.0,-216.0,-432.0,53.0,3.0,95.0,-452.0,-868.0
22.0,-105.0,-217.0,-436.0,46.0,3.0,93.0,-442.0,-873.0
20.0,-105.0,-218.0,-440.0,38.0,5.0,95.0,-444.0,-870.0
21.0,-101.0,-220.0,-445.0,33.0,2.0,96.0,-428.0,-869.0
25.0,-103.0,-215.0,-451.0,30.0,2.0,97.0,-423.0,-870.0
21.0,-99.0,-216.0,-460.0,27.0,0.0,99.0,-422.0,-870.0
26.0,-103.0,-216.0,-470.0,27.0,-2.0,98.0,-423.0,-865.0
23.0,-105.0,-214.0,-479.0,29.0,-2.0,99.0,-425.0,-870.0
25.0,-106.0,-216.0,-486.0,31.0,-3.0,102.0,-428.0,-868.0
23.0,-105.0,-216.0,-491.0,36.0,-2.0,103.0,-425.0,-865.0
27.0,-105.0,-219.0,-495.0,43.0,-3.0,104.0,-437.0,-869.0
25.0,-104.0,-217.0,-495.0,49.0,-3.0,104.0,-427.0,-867.0
22.0,-103.0,-215.0,-496.0,54.0,-2.0,110.0,-433.0,-862.0
25.0,-104.0,-211.0,-496.0,58.0,-1.0,112.0,-430.0,-860.0
25.0,-103.0,-211.0,-497.0,60.0,1.0,113.0,-430.0,-856.0
26.0,-102.0,-212.0,-496.0,59.0,2.0,107.0,-423.0,-849.0
26.0,-101.0,-210.0,-496.0,59.0,4.0,110.0,-420.0,-851.0
25.0,-101.0,-215.0,-499.0,60.0,4.0,111.0,-413.0,-855.0
25.0,-101.0,-215.0,-500.0,61.0,6.0,107.0,-409.0,-857.0
27.0,-99.0,-211.0,-501.0,59.0,8.0,104.0,-411.0,-855.0
24.0,-98.0,-210.0,-505.0,58.0,9.0,109.0,-410.0,-856.0
25.0,-91.0,-208.0,-511.0,55.0,11.0,108.0,-408.0,-851.0
23.0,-99.0,-212.0,-519.0,55.0,14.0,103.0,-409.0,-855.0
26.0,-99.0,-210.0,-527.0,55.0,14.0,104.0,-407.0,-858.0
26.0,-98.0,-212.0,-534.0,56.0,12.0,106.0,-413.0,-849.0
24.0,-98.0,-211.0,-541.0,56.0,12.0,107.0,-408.0,-858.0
25.0,-99.0,-215.0,-550.0,59.0,13.0,109.0,-407.0,-855.0
25.0,-97.0,-213.0,-559.0,63.0,10.0,110.0,-411.0,-857.0
26.0,-99.0,-218.0,-566.0,66.0,11.0,105.0,-412.0,-862.0
27.0,-100.0,-215.0,-573.0,68.0,8.0,113.0,-414.0,-862.0
29.0,-100.0,-217.0,-576.0,70.0,5.0,118.0,-416.0,-859.0
26.0,-99.0,-217.0,-578.0,71.0,2.0,112.0,-418.0,-861.0
26.0,-99.0,-215.0,-577.0,73.0,-2.0,114.0,-415.0,-857.0
26.0,-98.0,-215.0,-578.0,71.0,-5.0,116.0,-410.0,-857.0
27.0,-99.0,-211.0,-580.0,71.0,-8.0,120.0,-408.0,-842.0
29.0,-97.0,-212.0,-583.0,68.0,-13.0,117.0,-408.0,-838.0
29.0,-100.0,-205.0,-587.0,65.0,-18.0,114.0,-404.0,-837.0
28.0,-95.0,-207.0,-589.0,60.0,-21.0,110.0,-399.0,-829.0
29.0,-91.0,-208.0,-593.0,56.0,-24.0,111.0,-393.0,-833.0
25.0,-97.0,-207.0,-600.0,52.0,-26.0,107.0,-388.0,-833.0
23.0,-93.0,-206.0,-607.0,47.0,-31.0,102.0,-395.0,-830.0
23.0,-95.0,-206.0,-616.0,40.0,-37.0,104.0,-399.0,-828.0
23.0,-97.0,-204.0,-624.0,35.0,-38.0,96.0,-401.0,-824.0
24.0,-96.0,-205.0,-628.0,26.0,-43.0,100.0,-401.0,-832.0
23.0,-91.0,-206.0,-632.0,18.0,-44.0,99.0,-397.0,-831.0
25.0,-92.0,-208.0,-638.0,11.0,-47.0,105.0,-393.0,-832.0
23.0,-94.0,-206.0,-644.0,5.0,-47.0,98.0,-392.0,-833.0
22.0,-94.0,-204.0,-650.0,1.0,-47.0,105.0,-398.0,-831.0
22.0,-95.0,-205.0,-661.0,-2.0,-50.0,96.0,-404.0,-832.0
23.0,-99.0,-208.0,-667.0,-4.0,-50.0,96.0,-399.0,-821.0
20.0,-97.0,-209.0,-673.0,-7.0,-53.0,94.0,-397.0,-829.0
18.0,-97.0,-205.0,-681.0,-7.0,-55.0,94.0,-404.0,-824.0
23.0,-99.0,-208.0,-688.0,-7.0,-59.0,95.0,-402.0,-823.0
22.0,-97.0,-202.0,-693.0,-8.0,-63.0,97.0,-396.0,-819.0
24.0,-97.0,-204.0,-697.0,-9.0,-67.0,99.0,-399.0,-818.0
24.0,-94.0,-202.0,-699.0,-10.0,-74.0,99.0,-392.0,-817.0
24.0,-95.0,-202.0,-703.0,-11.0,-80.0,99.0,-390.0,-806.0
21.0,-91.0,-197.0,-704.0,-13.0,-87.0,99.0,-383.0,-810.0
24.0,-92.0,-202.0,-704.0,-16.0,-94.0,103.0,-380.0,-800.0
22.0,-90.0,-193.0,-704.0,-19.0,-103.0,106.0,-377.0,-787.0
27.0,-90.0,-196.0,-706.0,-20.0,-109.0,107.0,-372.0,-792.0
26.0,-87.0,-198.0,-709.0,-18.0,-116.0,111.0,-364.0,-785.0
25.0,-87.0,-192.0,-713.0,-19.0,-124.0,105.0,-362.0,-780.0
26.0,-85.0,-197.0,-720.0,-20.0,-128.0,104.0,-356.0,-776.0
23.0,-83.0,-195.0,-728.0,-24.0,-131.0,103.0,-357.0,-772.0
22.0,-83.0,-192.0,-740.0,-28.0,-134.0,103.0,-356.0,-771.0
22.0,-85.0,-192.0,-752.0,-34.0,-138.0,97.0,-354.0,-768.0
23.0,-85.0,-194.0,-763.0,-39.0,-139.0,95.0,-355.0,-763.0
22.0,-87.0,-191.0,-775.0,-44.0,-143.0,95.0,-358.0,-757.0
20.0,-89.0,-193.0,-787.0,-48.0,-145.0,89.0,-371.0,-756.0
20.0,-87.0,-186.0,-796.0,-52.0,-150.0,85.0,-374.0,-751.0
20.0,-90.0,-186.0,-800.0,-55.0,-154.0,80.0,-371.0,-744.0
19.0,-92.0,-187.0,-801.0,-59.0,-158.0,80.0,-367.0,-747.0
21.0,-91.0,-184.0,-799.0,-63.0,-160.0,81.0,-363.0,-732.0
18.0,-86.0,-184.0,-798.0,-70.0,-162.0,82.0,-359.0,-731.0
21.0,-88.0,-181.0,-797.0,-78.0,-166.0,87.0,-360.0,-720.0
17.0,-85.0,-177.0,-795.0,-87.0,-170.0,83.0,-353.0,-717.0
21.0,-82.0,-176.0,-795.0,-94.0,-175.0,85.0,-356.0,-715.0
19.0,-82.0,-178.0,-795.0,-98.0,-181.0,84.0,-352.0,-707.0
21.0,-85.0,-174.0,-795.0,-99.0,-190.0,84.0,-344.0,-700.0
19.0,-81.0,-170.0,-795.0,-100.0,-195.0,83.0,-342.0,-688.0
19.0,-81.0,-172.0,-798.0,-99.0,-203.0,79.0,-339.0,-681.0
17.0,-79.0,-174.0,-799.0,-98.0,-206.0,82.0,-337.0,-675.0
17.0,-80.0,-169.0,-800.0,-100.0,-209.0,79.0,-337.0,-670.0
21.0,-82.0,-165.0,-801.0,-102.0,-212.0,80.0,-338.0,-659.0
16.0,-78.0,-164.0,-804.0,-107.0,-219.0,75.0,-336.0,-646.0
16.0,-76.0,-165.0,-806.0,-115.0,-218.0,71.0,-325.0,-649.0
14.0,-77.0,-158.0,-809.0,-127.0,-220.0,66.0,-324.0,-637.0
11.0,-74.0,-159.0,-814.0,-141.0,-219.0,62.0,-318.0,-637.0
13.0,-73.0,-160.0,-821.0,-156.0,-222.0,56.0,-317.0,-626.0
12.0,-72.0,-158.0,-831.0,-176.0,-224.0,47.0,-304.0,-622.0
11.0,-69.0,-155.0,-839.0,-195.0,-226.0,44.0,-300.0,-616.0
10.0,-71.0,-155.0,-850.0,-212.0,-227.0,43.0,-295.0,-599.0
11.0,-68.0,-149.0,-862.0,-227.0,-227.0,40.0,-287.0,-598.0
10.0,-68.0,-148.0,-874.0,-237.0,-227.0,40.0,-281.0,-590.0
6.0,-61.0,-153.0,-887.0,-241.0,-226.0,43.0,-276.0,-589.0
10.0,-69.0,-149.0,-894.0,-246.0,-228.0,42.0,-282.0,-580.0
9.0,-68.0,-139.0,-899.0,-250.0,-228.0,46.0,-280.0,-573.0
10.0,-68.0,-142.0,-902.0,-254.0,-231.0,46.0,-284.0,-565.0
10.0,-68.0,-142.0,-904.0,-256.0,-231.0,52.0,-281.0,-559.0
10.0,-67.0,-136.0,-909.0,-257.0,-229.0,46.0,-281.0,-540.0
12.0,-70.0,-137.0,-914.0,-256.0,-229.0,46.0,-288.0,-523.0
11.0,-70.0,-130.0,-922.0,-251.0,-229.0,42.0,-292.0,-506.0
11.0,-70.0,-127.0,-926.0,-245.0,-227.0,42.0,-300.0,-496.0
8.0,-70.0,-125.0,-926.0,-240.0,-228.0,36.0,-297.0,-487.0
8.0,-75.0,-124.0,-926.0,-236.0,-227.0,25.0,-307.0,-473.0
5.0,-75.0,-118.0,-922.0,-234.0,-226.0,22.0,-309.0,-469.0
5.0,-76.0,-117.0,-920.0,-232.0,-225.0,9.0,-318.0,-452.0
0.0,-75.0,-115.0,-917.0,-234.0,-226.0,-2.0,-319.0,-435.0
-2.0,-73.0,-109.0,-914.0,-239.0,-227.0,-10.0,-318.0,-428.0
-7.0,-76.0,-105.0,-912.0,-240.0,-227.0,-19.0,-320.0,-400.0
-5.0,-80.0,-98.0,-908.0,-243.0,-225.0,-28.0,-330.0,-388.0
-11.0,-83.0,-90.0,-905.0,-246.0,-224.0,-32.0,-345.0,-350.0
-11.0,-86.0,-80.0,-900.0,-245.0,-226.0,-46.0,-353.0,-323.0
-11.0,-88.0,-78.0,-888.0,-240.0,-227.0,-48.0,-367.0,-296.0
-11.0,-92.0,-71.0,-872.0,-225.0,-222.0,-47.0,-372.0,-269.0
-8.0,-95.0,-70.0,-854.0,-206.0,-220.0,-47.0,-383.0,-246.0
-8.0,-95.0,-61.0,-839.0,-183.0,-223.0,-48.0,-400.0,-212.0
-5.0,-100.0,-52.0,-825.0,-157.0,-232.0,-29.0,-407.0,-195.0
-3.0,-98.0,-50.0,-817.0,-125.0,-232.0,-34.0,-406.0,-163.0
-7.0,-99.0,-42.0,-814.0,-97.0,-234.0,-40.0,-420.0,-131.0
-5.0,-102.0,-30.0,-805.0,-67.0,-240.0,-36.0,-427.0,-100.0
-5.0,-102.0,-19.0,-789.0,-35.0,-245.0,-32.0,-426.0,-71.0
-7.0,-99.0,-13.0,-762.0,-4.0,-249.0,-36.0,-418.0,-43.0
-6.0,-95.0,-7.0,-731.0,19.0,-253.0,-39.0,-409.0,-8.0
-8.0,-92.0,4.0,-714.0,36.0,-254.0,-58.0,-394.0,22.0
-12.0,-85.0,14.0,-710.0,53.0,-251.0,-69.0,-360.0,70.0
-14.0,-71.0,37.0,-731.0,72.0,-246.0,-72.0,-325.0,140.0
-17.0,-64.0,52.0,-765.0,93.0,-242.0,-87.0,-279.0,216.0
-19.0,-49.0,60.0,-813.0,120.0,-237.0,-85.0,-221.0,264.0
-16.0,-31.0,66.0,-892.0,143.0,-220.0,-81.0,-167.0,288.0
-16.0,-22.0,61.0,-1024.0,140.0,-185.0,-68.0,-131.0,241.0
-14.0,-31.0,59.0,-1207.0,98.0,-143.0,-80.0,-151.0,255.0
-8.0,-50.0,59.0,-1368.0,42.0,-97.0,-39.0,-237.0,274.0
0.0,-82.0,54.0,-1420.0,13.0,-64.0,-12.0,-352.0,233.0
8.0,-104.0,29.0,-1377.0,17.0,-49.0,8.0,-432.0,115.0
16.0,-117.0,-19.0,-1296.0,62.0,-43.0,32.0,-474.0,-29.0
11.0,-124.0,-39.0,-1195.0,132.0,-33.0,44.0,-487.0,-133.0
7.0,-118.0,-46.0,-1054.0,188.0,-17.0,29.0,-451.0,-149.0
1.0,-91.0,-75.0,-897.0,214.0,23.0,10.0,-370.0,-270.0
-3.0,-52.0,-113.0,-831.0,213.0,71.0,-11.0,-238.0,-425.0
-13.0,-6.0,-138.0,-860.0,198.0,130.0,-43.0,-78.0,-541.0
-16.0,35.0,-140.0,-946.0,172.0,188.0,-73.0,136.0,-562.0
-23.0,112.0,-152.0,-1005.0,168.0,227.0,-101.0,417.0,-585.0
-18.0,180.0,-144.0,-1028.0,237.0,262.0,-93.0,695.0,-594.0
3.0,226.0,-150.0,-991.0,352.0,311.0,0.0,886.0,-601.0
37.0,246.0,-141.0,-904.0,475.0,363.0,97.0,995.0,-596.0
61.0,238.0,-150.0,-755.0,589.0,416.0,227.0,975.0,-601.0
69.0,464.0,-232.0,-517.0,625.0,384.0,742.0,1990.0,-621.0
153.0,723.0,-433.0,553.0,114.0,241.0,801.0,2887.0,-1457.0
241.0,1790.0,-766.0,1398.0,315.0,235.0,881.0,6825.0,-2922.0
-154.0,1697.0,-727.0,2464.0,682.0,-240.0,-702.0,6671.0,-2817.0
153.0,660.0,-9.0,1165.0,1414.0,147.0,641.0,2509.0,-321.0
229.0,74.0,65.0,-555.0,1531.0,351.0,852.0,379.0,110.0
102.0,203.0,-630.0,-514.0,1507.0,637.0,463.0,771.0,-2499.0
169.0,568.0,-797.0,-592.0,1206.0,410.0,784.0,2195.0,-3498.0
77.0,584.0,-871.0,-938.0,662.0,-119.0,543.0,2416.0,-3580.0
187.0,568.0,-835.0,-751.0,335.0,-52.0,755.0,2464.0,-3525.0
-104.0,285.0,-771.0,-478.0,133.0,-146.0,-286.0,1165.0,-3138.0
-88.0,787.0,-1127.0,-283.0,4.0,-53.0,-32.0,1937.0,-4437.0
-25.0,399.0,-942.0,-1153.0,-428.0,-246.0,106.0,1387.0,-3557.0
235.0,-275.0,-1090.0,-885.0,-766.0,353.0,1075.0,-826.0,-4497.0
200.0,-424.0,-1127.0,-40.0,-1099.0,605.0,828.0,-1237.0,-4571.0
132.0,698.0,-1249.0,851.0,-1437.0,727.0,1253.0,3219.0,-5995.0
106.0,988.0,-1269.0,1101.0,-1643.0,838.0,1422.0,1540.0,-5427.0
73.0,49.0,-969.0,841.0,-1367.0,583.0,292.0,432.0,-3968.0
79.0,244.0,-797.0,786.0,-869.0,285.0,476.0,2088.0,-3666.0
38.0,1038.0,-877.0,876.0,-399.0,186.0,165.0,4225.0,-3883.0
-48.0,609.0,-742.0,593.0,52.0,128.0,-106.0,1320.0,-2883.0
-55.0,47.0,-489.0,570.0,334.0,171.0,278.0,487.0,-2324.0
61.0,235.0,-561.0,723.0,641.0,252.0,112.0,1135.0,-2284.0
-86.0,359.0,-429.0,685.0,1030.0,236.0,-177.0,841.0,-1661.0
-102.0,374.0,-327.0,691.0,1170.0,314.0,-343.0,1471.0,-1430.0
50.0,350.0,-392.0,557.0,1213.0,411.0,198.0,1083.0,-1563.0
74.0,27.0,-334.0,484.0,1259.0,377.0,179.0,-1052.0,-706.0
-97.0,-342.0,-96.0,545.0,1109.0,424.0,-160.0,-1664.0,-347.0
-137.0,-321.0,-107.0,732.0,832.0,462.0,-324.0,-1142.0,-558.0
-50.0,-323.0,-146.0,757.0,494.0,453.0,-324.0,-1031.0,-612.0
21.0,-30.0,-294.0,768.0,189.0,419.0,-61.0,-715.0,-796.0
69.0,78.0,-248.0,712.0,-28.0,282.0,225.0,339.0,-1005.0
-23.0,132.0,-127.0,585.0,-197.0,124.0,-118.0,615.0,-586.0
-63.0,237.0,-167.0,595.0,-282.0,0.0,-274.0,797.0,-475.0
36.0,233.0,-109.0,561.0,-360.0,-111.0,38.0,819.0,-471.0
32.0,370.0,-150.0,462.0,-476.0,-204.0,165.0,962.0,-445.0
-8.0,325.0,-102.0,369.0,-502.0,-213.0,2.0,1188.0,-405.0
4.0,297.0,-117.0,204.0,-485.0,-192.0,-62.0,958.0,-254.0
86.0,243.0,-107.0,16.0,-469.0,-177.0,65.0,845.0,-206.0
81.0,124.0,-60.0,-113.0,-414.0,-149.0,137.0,334.0,-128.0
40.0,91.0,-59.0,-141.0,-315.0,-63.0,442.0,85.0,-63.0
80.0,76.0,-102.0,20.0,-308.0,-136.0,292.0,146.0,-390.0
35.0,116.0,-98.0,139.0,-282.0,-205.0,185.0,433.0,-426.0
20.0,118.0,-116.0,145.0,-300.0,-241.0,71.0,418.0,-414.0
47.0,111.0,-82.0,53.0,-328.0,-211.0,131.0,395.0,-308.0
64.0,93.0,-62.0,-105.0,-321.0,-122.0,257.0,237.0,-227.0
66.0,118.0,-71.0,-112.0,-337.0,-119.0,266.0,499.0,-261.0
62.0,95.0,-57.0,-13.0,-335.0,-79.0,234.0,356.0,-204.0
90.0,112.0,-68.0,80.0,-306.0,-59.0,288.0,536.0,-288.0
118.0,416.0,-154.0,1.0,-262.0,-83.0,319.0,1499.0,-587.0
69.0,212.0,-90.0,-312.0,-194.0,-24.0,181.0,827.0,-329.0
59.0,138.0,-75.0,-163.0,-104.0,-62.0,195.0,553.0,-313.0
65.0,112.0,-111.0,-9.0,-73.0,-77.0,227.0,499.0,-420.0
7.0,111.0,-106.0,85.0,6.0,-133.0,63.0,485.0,-431.0
43.0,86.0,-124.0,159.0,-7.0,-75.0,162.0,308.0,-473.0
31.0,133.0,-124.0,59.0,63.0,-128.0,83.0,559.0,-550.0
45.0,117.0,-155.0,18.0,58.0,-52.0,181.0,396.0,-598.0
45.0,192.0,-182.0,-61.0,69.0,-59.0,152.0,692.0,-706.0
11.0,-30.0,-113.0,-185.0,99.0,-21.0,67.0,101.0,-484.0
20.0,81.0,-158.0,56.0,106.0,1.0,87.0,262.0,-608.0
36.0,168.0,-176.0,97.0,140.0,-11.0,133.0,683.0,-748.0
25.0,160.0,-184.0,48.0,189.0,10.0,137.0,610.0,-744.0
6.0,36.0,-133.0,175.0,205.0,-45.0,29.0,190.0,-534.0
29.0,239.0,-200.0,489.0,182.0,-48.0,163.0,916.0,-796.0
21.0,261.0,-206.0,491.0,136.0,-17.0,71.0,1018.0,-833.0
29.0,215.0,-203.0,452.0,67.0,25.0,75.0,865.0,-819.0
15.0,167.0,-194.0,494.0,45.0,-37.0,49.0,686.0,-755.0
-3.0,116.0,-180.0,621.0,14.0,-93.0,29.0,487.0,-719.0
11.0,180.0,-218.0,810.0,-93.0,-134.0,101.0,733.0,-926.0
67.0,282.0,-293.0,822.0,-135.0,-149.0,266.0,1115.0,-1195.0
64.0,229.0,-286.0,727.0,-87.0,-95.0,258.0,919.0,-1181.0
98.0,198.0,-319.0,635.0,-63.0,-36.0,394.0,770.0,-1262.0
107.0,156.0,-325.0,574.0,1.0,0.0,424.0,618.0,-1303.0
104.0,174.0,-346.0,531.0,84.0,29.0,422.0,678.0,-1415.0
102.0,174.0,-361.0,479.0,175.0,66.0,419.0,683.0,-1486.0
71.0,169.0,-357.0,433.0,263.0,91.0,318.0,652.0,-1470.0
53.0,167.0,-339.0,391.0,321.0,114.0,227.0,645.0,-1411.0
40.0,161.0,-335.0,356.0,339.0,114.0,175.0,640.0,-1367.0
36.0,151.0,-330.0,348.0,331.0,98.0,150.0,609.0,-1353.0
24.0,119.0,-322.0,334.0,316.0,85.0,128.0,478.0,-1335.0
8.0,81.0,-313.0,305.0,304.0,74.0,78.0,338.0,-1279.0
2.0,53.0,-300.0,272.0,280.0,64.0,37.0,187.0,-1230.0
4.0,43.0,-290.0,236.0,233.0,54.0,52.0,145.0,-1184.0
22.0,45.0,-280.0,192.0,175.0,45.0,100.0,166.0,-1146.0
30.0,54.0,-270.0,149.0,112.0,42.0,141.0,191.0,-1102.0
46.0,58.0,-261.0,115.0,52.0,40.0,186.0,215.0,-1061.0
42.0,57.0,-251.0,96.0,0.0,37.0,179.0,215.0,-1029.0
40.0,57.0,-246.0,96.0,-32.0,35.0,161.0,216.0,-997.0
35.0,55.0,-241.0,109.0,-42.0,32.0,147.0,207.0,-985.0
35.0,58.0,-240.0,135.0,-31.0,34.0,141.0,213.0,-975.0
35.0,61.0,-235.0,170.0,1.0,38.0,141.0,224.0,-943.0
34.0,58.0,-225.0,209.0,44.0,41.0,138.0,230.0,-923.0
40.0,57.0,-220.0,248.0,84.0,47.0,139.0,219.0,-903.0
36.0,50.0,-217.0,287.0,116.0,49.0,145.0,189.0,-863.0
32.0,44.0,-210.0,323.0,130.0,51.0,131.0,161.0,-852.0
32.0,40.0,-206.0,351.0,128.0,49.0,139.0,147.0,-834.0
26.0,43.0,-206.0,371.0,115.0,44.0,129.0,142.0,-845.0
32.0,38.0,-206.0,384.0,101.0,41.0,125.0,136.0,-837.0
28.0,36.0,-200.0,390.0,80.0,35.0,126.0,141.0,-839.0
30.0,39.0,-211.0,399.0,56.0,31.0,127.0,121.0,-841.0
31.0,35.0,-214.0,405.0,37.0,27.0,128.0,124.0,-857.0
40.0,37.0,-218.0,402.0,17.0,23.0,139.0,134.0,-866.0
33.0,46.0,-210.0,389.0,12.0,18.0,141.0,152.0,-857.0
36.0,45.0,-215.0,391.0,-8.0,15.0,143.0,158.0,-867.0
38.0,42.0,-212.0,387.0,-27.0,11.0,145.0,154.0,-870.0
34.0,48.0,-214.0,385.0,-44.0,6.0,147.0,172.0,-879.0
33.0,44.0,-215.0,383.0,-64.0,5.0,141.0,159.0,-880.0
33.0,41.0,-222.0,385.0,-82.0,1.0,134.0,160.0,-900.0
34.0,48.0,-226.0,385.0,-98.0,-1.0,142.0,172.0,-919.0
32.0,46.0,-231.0,380.0,-111.0,-5.0,140.0,158.0,-929.0
31.0,38.0,-234.0,369.0,-122.0,-6.0,137.0,138.0,-940.0
34.0,42.0,-237.0,356.0,-136.0,-7.0,148.0,143.0,-957.0
31.0,44.0,-247.0,348.0,-150.0,-12.0,135.0,150.0,-979.0
33.0,39.0,-245.0,313.0,-155.0,-13.0,139.0,137.0,-990.0
34.0,36.0,-250.0,281.0,-164.0,-13.0,141.0,122.0,-1016.0
32.0,36.0,-250.0,253.0,-171.0,-16.0,146.0,127.0,-1024.0
32.0,41.0,-257.0,236.0,-185.0,-20.0,151.0,142.0,-1045.0
35.0,40.0,-262.0,225.0,-201.0,-26.0,138.0,141.0,-1067.0
34.0,35.0,-261.0,206.0,-208.0,-26.0,148.0,129.0,-1075.0
33.0,35.0,-265.0,180.0,-211.0,-30.0,145.0,131.0,-1077.0
34.0,39.0,-266.0,155.0,-217.0,-31.0,140.0,143.0,-1078.0
32.0,36.0,-263.0,130.0,-221.0,-34.0,140.0,128.0,-1087.0
30.0,41.0,-268.0,105.0,-223.0,-36.0,133.0,136.0,-1084.0
29.0,40.0,-269.0,82.0,-221.0,-36.0,134.0,141.0,-1102.0
11.0,46.0,-270.0,63.0,-214.0,-34.0,73.0,163.0,-1101.0
27.0,41.0,-260.0,47.0,-196.0,-36.0,121.0,143.0,-1081.0
27.0,37.0,-260.0,32.0,-188.0,-39.0,112.0,135.0,-1070.0
25.0,37.0,-260.0,19.0,-178.0,-40.0,110.0,138.0,-1065.0
20.0,35.0,-255.0,8.0,-171.0,-43.0,97.0,127.0,-1050.0
23.0,33.0,-255.0,-4.0,-167.0,-44.0,108.0,123.0,-1047.0
23.0,30.0,-254.0,-14.0,-163.0,-47.0,90.0,121.0,-1032.0
24.0,35.0,-251.0,-22.0,-155.0,-45.0,105.0,141.0,-1024.0
20.0,41.0,-246.0,-31.0,-146.0,-46.0,104.0,164.0,-1008.0
21.0,49.0,-248.0,-39.0,-138.0,-47.0,105.0,176.0,-993.0
19.0,53.0,-247.0,-46.0,-135.0,-49.0,92.0,194.0,-986.0
21.0,50.0,-242.0,-50.0,-130.0,-51.0,107.0,191.0,-987.0
24.0,49.0,-242.0,-53.0,-125.0,-51.0,123.0,177.0,-982.0
26.0,51.0,-241.0,-54.0,-118.0,-52.0,97.0,167.0,-972.0
22.0,47.0,-236.0,-54.0,-112.0,-52.0,90.0,176.0,-961.0
19.0,48.0,-235.0,-53.0,-109.0,-51.0,91.0,180.0,-945.0
21.0,49.0,-237.0,-52.0,-103.0,-53.0,92.0,180.0,-945.0
20.0,49.0,-233.0,-50.0,-102.0,-50.0,91.0,183.0,-940.0
22.0,47.0,-234.0,-46.0,-101.0,-50.0,87.0,177.0,-941.0
18.0,48.0,-230.0,-41.0,-101.0,-49.0,77.0,175.0,-938.0
16.0,48.0,-232.0,-38.0,-102.0,-50.0,82.0,183.0,-937.0
21.0,53.0,-234.0,-31.0,-104.0,-48.0,88.0,188.0,-945.0
20.0,53.0,-233.0,-25.0,-104.0,-49.0,84.0,198.0,-940.0
19.0,55.0,-234.0,-19.0,-102.0,-47.0,89.0,194.0,-950.0
20.0,53.0,-239.0,-13.0,-98.0,-46.0,86.0,199.0,-943.0
18.0,57.0,-237.0,-7.0,-96.0,-45.0,91.0,195.0,-949.0
18.0,56.0,-238.0,-3.0,-96.0,-44.0,92.0,201.0,-963.0
16.0,53.0,-241.0,1.0,-99.0,-42.0,85.0,202.0,-958.0
20.0,54.0,-239.0,6.0,-98.0,-40.0,91.0,197.0,-975.0
21.0,52.0,-243.0,10.0,-97.0,-38.0,83.0,197.0,-969.0
17.0,55.0,-239.0,15.0,-97.0,-35.0,77.0,200.0,-978.0
17.0,55.0,-240.0,20.0,-93.0,-33.0,82.0,201.0,-984.0
18.0,54.0,-242.0,24.0,-90.0,-32.0,82.0,202.0,-987.0
17.0,56.0,-242.0,29.0,-87.0,-28.0,80.0,199.0,-987.0
16.0,57.0,-245.0,31.0,-84.0,-26.0,80.0,203.0,-991.0
17.0,59.0,-245.0,34.0,-81.0,-27.0,81.0,210.0,-994.0
17.0,56.0,-249.0,37.0,-76.0,-25.0,81.0,204.0,-1001.0
15.0,57.0,-246.0,41.0,-72.0,-26.0,76.0,209.0,-1005.0
18.0,57.0,-253.0,43.0,-66.0,-24.0,76.0,202.0,-1008.0
17.0,54.0,-247.0,46.0,-60.0,-23.0,76.0,209.0,-1010.0
15.0,57.0,-246.0,49.0,-54.0,-23.0,78.0,210.0,-1003.0
21.0,58.0,-249.0,50.0,-48.0,-22.0,82.0,217.0,-1008.0
14.0,58.0,-250.0,54.0,-43.0,-21.0,78.0,216.0,-1006.0
15.0,58.0,-249.0,55.0,-39.0,-21.0,79.0,210.0,-1002.0
19.0,57.0,-248.0,56.0,-35.0,-18.0,78.0,207.0,-1000.0
15.0,56.0,-246.0,59.0,-32.0,-19.0,84.0,203.0,-1008.0
19.0,58.0,-245.0,62.0,-27.0,-19.0,83.0,204.0,-996.0
17.0,57.0,-245.0,64.0,-22.0,-17.0,82.0,210.0,-996.0
20.0,57.0,-247.0,67.0,-18.0,-15.0,82.0,205.0,-999.0
19.0,52.0,-249.0,70.0,-12.0,-13.0,78.0,196.0,-998.0
14.0,53.0,-248.0,72.0,-5.0,-13.0,84.0,194.0,-992.0
18.0,52.0,-243.0,74.0,0.0,-10.0,80.0,189.0,-993.0
19.0,55.0,-249.0,76.0,6.0,-8.0,83.0,192.0,-993.0
17.0,52.0,-244.0,78.0,13.0,-9.0,83.0,190.0,-993.0
18.0,53.0,-248.0,79.0,18.0,-5.0,85.0,186.0,-993.0
17.0,51.0,-242.0,80.0,21.0,-6.0,81.0,181.0,-985.0
14.0,50.0,-248.0,80.0,25.0,-5.0,82.0,186.0,-992.0
17.0,51.0,-243.0,80.0,27.0,-3.0,86.0,181.0,-990.0
18.0,49.0,-241.0,81.0,29.0,-3.0,88.0,183.0,-984.0
17.0,50.0,-246.0,82.0,31.0,-3.0,84.0,183.0,-985.0
17.0,47.0,-244.0,81.0,32.0,-1.0,90.0,181.0,-987.0
18.0,49.0,-243.0,80.0,33.0,-2.0,85.0,170.0,-981.0
19.0,51.0,-247.0,80.0,33.0,0.0,84.0,176.0,-979.0
20.0,49.0,-240.0,78.0,31.0,-2.0,84.0,173.0,-982.0
19.0,48.0,-243.0,77.0,32.0,-2.0,85.0,173.0,-979.0
17.0,46.0,-243.0,78.0,31.0,-3.0,86.0,172.0,-980.0
17.0,48.0,-246.0,76.0,29.0,-2.0,83.0,174.0,-987.0
22.0,45.0,-242.0,75.0,28.0,-2.0,82.0,172.0,-979.0
17.0,48.0,-242.0,74.0,27.0,-2.0,84.0,173.0,-982.0
18.0,49.0,-242.0,74.0,26.0,-3.0,80.0,171.0,-980.0
17.0,49.0,-241.0,73.0,25.0,-2.0,82.0,171.0,-980.0
18.0,47.0,-243.0,72.0,24.0,-2.0,83.0,167.0,-986.0
16.0,48.0,-246.0,70.0,24.0,-2.0,79.0,170.0,-981.0
15.0,46.0,-243.0,68.0,23.0,-2.0,82.0,167.0,-983.0
20.0,44.0,-241.0,65.0,23.0,-3.0,83.0,174.0,-980.0
18.0,48.0,-243.0,64.0,23.0,-4.0,81.0,169.0,-987.0
18.0,44.0,-241.0,60.0,22.0,-5.0,85.0,166.0,-984.0
17.0,47.0,-245.0,59.0,21.0,-5.0,82.0,166.0,-985.0
18.0,48.0,-244.0,56.0,20.0,-6.0,86.0,166.0,-986.0
20.0,48.0,-242.0,54.0,19.0,-4.0,87.0,165.0,-979.0
15.0,50.0,-243.0,52.0,17.0,-6.0,86.0,170.0,-994.0
19.0,44.0,-248.0,51.0,16.0,-6.0,85.0,174.0,-988.0
15.0,50.0,-246.0,48.0,16.0,-8.0,83.0,173.0,-990.0
20.0,50.0,-241.0,47.0,14.0,-9.0,82.0,174.0,-983.0
20.0,48.0,-246.0,45.0,13.0,-10.0,86.0,175.0,-989.0
17.0,49.0,-246.0,43.0,11.0,-10.0,89.0,181.0,-982.0
20.0,49.0,-246.0,42.0,10.0,-10.0,87.0,181.0,-992.0
19.0,49.0,-245.0,41.0,8.0,-11.0,87.0,176.0,-994.0
22.0,50.0,-245.0,38.0,9.0,-11.0,89.0,178.0,-991.0
20.0,53.0,-246.0,37.0,8.0,-12.0,83.0,180.0,-992.0
18.0,49.0,-242.0,34.0,7.0,-12.0,86.0,186.0,-994.0
19.0,51.0,-243.0,33.0,6.0,-13.0,89.0,181.0,-993.0
17.0,52.0,-245.0,33.0,5.0,-13.0,87.0,190.0,-993.0
18.0,50.0,-245.0,31.0,2.0,-14.0,91.0,187.0,-985.0
18.0,51.0,-247.0,31.0,2.0,-14.0,87.0,190.0,-990.0
18.0,52.0,-242.0,31.0,0.0,-11.0,85.0,187.0,-985.0
21.0,51.0,-244.0,31.0,-2.0,-14.0,89.0,190.0,-982.0
16.0,54.0,-244.0,30.0,-3.0,-15.0,87.0,193.0,-987.0
20.0,50.0,-243.0,31.0,-3.0,-14.0,93.0,189.0,-984.0
21.0,51.0,-241.0,33.0,-6.0,-14.0,85.0,189.0,-982.0
19.0,52.0,-245.0,34.0,-7.0,-15.0,89.0,185.0,-980.0
22.0,51.0,-241.0,35.0,-9.0,-16.0,86.0,187.0,-981.0
18.0,53.0,-241.0,35.0,-10.0,-15.0,86.0,189.0,-984.0
19.0,52.0,-243.0,36.0,-13.0,-16.0,81.0,189.0,-980.0
17.0,50.0,-241.0,37.0,-14.0,-16.0,88.0,188.0,-985.0
18.0,51.0,-240.0,40.0,-16.0,-16.0,86.0,189.0,-981.0
23.0,50.0,-246.0,42.0,-16.0,-16.0,89.0,189.0,-983.0
18.0,54.0,-247.0,44.0,-18.0,-18.0,87.0,191.0,-986.0
21.0,49.0,-243.0,46.0,-18.0,-17.0,83.0,193.0,-984.0
17.0,53.0,-243.0,46.0,-19.0,-18.0,84.0,188.0,-986.0
17.0,53.0,-241.0,47.0,-21.0,-18.0,85.0,186.0,-985.0
17.0,48.0,-237.0,49.0,-21.0,-17.0,84.0,185.0,-978.0
17.0,53.0,-246.0,50.0,-21.0,-16.0,80.0,192.0,-986.0
18.0,51.0,-241.0,50.0,-23.0,-16.0,78.0,194.0,-987.0
19.0,52.0,-244.0,51.0,-24.0,-16.0,79.0,193.0,-981.0
17.0,51.0,-245.0,52.0,-24.0,-17.0,78.0,188.0,-982.0
18.0,48.0,-248.0,53.0,-23.0,-17.0,78.0,196.0,-979.0
18.0,52.0,-241.0,54.0,-23.0,-15.0,76.0,186.0,-979.0
16.0,55.0,-237.0,54.0,-22.0,-15.0,79.0,187.0,-983.0
15.0,52.0,-247.0,54.0,-23.0,-15.0,76.0,190.0,-994.0
18.0,50.0,-243.0,54.0,-22.0,-15.0,77.0,187.0,-984.0
16.0,50.0,-241.0,55.0,-21.0,-15.0,76.0,181.0,-987.0
16.0,50.0,-241.0,57.0,-20.0,-15.0,79.0,184.0,-984.0
16.0,48.0,-241.0,56.0,-20.0,-14.0,80.0,184.0,-990.0
15.0,53.0,-245.0,57.0,-19.0,-13.0,76.0,183.0,-987.0
18.0,51.0,-248.0,57.0,-18.0,-14.0,76.0,183.0,-987.0
15.0,49.0,-245.0,57.0,-18.0,-15.0,79.0,181.0,-995.0
16.0,51.0,-244.0,59.0,-17.0,-13.0,72.0,181.0,-984.0
15.0,52.0,-245.0,58.0,-14.0,-14.0,76.0,183.0,-989.0
20.0,49.0,-240.0,57.0,-13.0,-13.0,71.0,181.0,-984.0
17.0,50.0,-245.0,58.0,-11.0,-12.0,77.0,182.0,-997.0
15.0,49.0,-242.0,58.0,-10.0,-11.0,77.0,181.0,-991.0
16.0,52.0,-245.0,57.0,-8.0,-11.0,78.0,180.0,-994.0
16.0,52.0,-247.0,57.0,-6.0,-12.0,73.0,180.0,-989.0
16.0,52.0,-246.0,56.0,-5.0,-11.0,78.0,185.0,-997.0
12.0,54.0,-244.0,54.0,-5.0,-11.0,77.0,180.0,-989.0
16.0,49.0,-244.0,56.0,-2.0,-10.0,75.0,183.0,-992.0
14.0,48.0,-243.0,54.0,-1.0,-10.0,78.0,177.0,-990.0
18.0,47.0,-245.0,53.0,2.0,-10.0,73.0,182.0,-987.0
16.0,50.0,-243.0,52.0,4.0,-12.0,74.0,183.0,-989.0
14.0,50.0,-241.0,52.0,5.0,-10.0,74.0,178.0,-981.0
15.0,50.0,-247.0,51.0,6.0,-9.0,77.0,182.0,-988.0
17.0,49.0,-242.0,50.0,9.0,-8.0,74.0,185.0,-983.0
17.0,48.0,-242.0,49.0,9.0,-9.0,74.0,179.0,-989.0
16.0,50.0,-243.0,48.0,11.0,-9.0,80.0,179.0,-984.0
16.0,52.0,-243.0,47.0,11.0,-8.0,75.0,180.0,-993.0
16.0,49.0,-242.0,47.0,12.0,-9.0,76.0,180.0,-990.0
17.0,52.0,-244.0,47.0,14.0,-8.0,73.0,183.0,-983.0
15.0,51.0,-244.0,48.0,14.0,-7.0,73.0,185.0,-992.0
16.0,49.0,-248.0,47.0,14.0,-7.0,76.0,179.0,-992.0
14.0,52.0,-243.0,46.0,14.0,-7.0,74.0,187.0,-981.0
18.0,51.0,-246.0,44.0,14.0,-8.0,80.0,185.0,-991.0
15.0,52.0,-244.0,45.0,15.0,-9.0,77.0,182.0,-989.0
16.0,53.0,-242.0,45.0,14.0,-9.0,78.0,182.0,-982.0
17.0,51.0,-245.0,44.0,15.0,-9.0,77.0,185.0,-985.0
16.0,49.0,-241.0,44.0,14.0,-8.0,77.0,182.0,-988.0
16.0,48.0,-246.0,44.0,13.0,-9.0,78.0,188.0,-985.0
17.0,52.0,-243.0,44.0,14.0,-9.0,82.0,187.0,-991.0
18.0,51.0,-241.0,46.0,15.0,-10.0,78.0,188.0,-985.0
17.0,50.0,-241.0,45.0,16.0,-9.0,78.0,183.0,-983.0
15.0,51.0,-242.0,44.0,15.0,-9.0,78.0,187.0,-986.0
19.0,48.0,-243.0,44.0,15.0,-9.0,76.0,186.0,-984.0
15.0,50.0,-244.0,45.0,14.0,-11.0,78.0,186.0,-984.0
15.0,50.0,-242.0,45.0,13.0,-10.0,78.0,186.0,-982.0
15.0,51.0,-242.0,46.0,13.0,-9.0,78.0,181.0,-983.0
16.0,51.0,-243.0,45.0,11.0,-11.0,77.0,190.0,-987.0
17.0,53.0,-244.0,46.0,11.0,-10.0,78.0,185.0,-981.0
16.0,50.0,-242.0,47.0,10.0,-10.0,78.0,184.0,-987.0
13.0,54.0,-242.0,50.0,11.0,-11.0,78.0,187.0,-983.0
18.0,49.0,-242.0,48.0,12.0,-11.0,81.0,184.0,-981.0
16.0,52.0,-242.0,48.0,11.0,-10.0,79.0,193.0,-981.0
17.0,54.0,-240.0,47.0,11.0,-9.0,78.0,184.0,-984.0
17.0,52.0,-240.0,46.0,12.0,-11.0,78.0,186.0,-982.0
15.0,52.0,-242.0,46.0,12.0,-10.0,77.0,188.0,-978.0
14.0,51.0,-244.0,49.0,11.0,-10.0,78.0,194.0,-986.0
15.0,53.0,-243.0,52.0,9.0,-10.0,78.0,183.0,-995.0
17.0,47.0,-247.0,56.0,9.0,-11.0,77.0,181.0,-986.0
16.0,49.0,-242.0,58.0,9.0,-10.0,76.0,183.0,-993.0
15.0,51.0,-245.0,59.0,7.0,-11.0,82.0,186.0,-989.0
17.0,50.0,-247.0,59.0,6.0,-12.0,75.0,186.0,-985.0
17.0,49.0,-239.0,55.0,6.0,-10.0,78.0,181.0,-989.0
19.0,51.0,-241.0,53.0,8.0,-10.0,79.0,176.0,-981.0
16.0,49.0,-239.0,48.0,7.0,-10.0,75.0,182.0,-977.0
15.0,49.0,-244.0,45.0,7.0,-10.0,82.0,183.0,-977.0
20.0,50.0,-243.0,44.0,8.0,-9.0,82.0,180.0,-979.0
17.0,53.0,-247.0,46.0,7.0,-9.0,80.0,180.0,-981.0
20.0,50.0,-241.0,54.0,5.0,-10.0,75.0,182.0,-986.0
19.0,49.0,-248.0,61.0,3.0,-11.0,76.0,179.0,-995.0
15.0,45.0,-241.0,66.0,1.0,-10.0,80.0,184.0,-992.0
16.0,49.0,-245.0,66.0,0.0,-11.0,75.0,178.0,-988.0
17.0,49.0,-243.0,62.0,-2.0,-13.0,78.0,184.0,-987.0
17.0,49.0,-247.0,55.0,-3.0,-13.0,73.0,179.0,-984.0
14.0,48.0,-245.0,51.0,-3.0,-13.0,73.0,183.0,-985.0
17.0,52.0,-246.0,48.0,-2.0,-13.0,77.0,181.0,-984.0
21.0,54.0,-242.0,48.0,-2.0,-11.0,75.0,186.0,-994.0
15.0,50.0,-241.0,48.0,1.0,-11.0,76.0,183.0,-989.0
18.0,46.0,-245.0,49.0,1.0,-11.0,78.0,182.0,-987.0
20.0,49.0,-248.0,50.0,1.0,-12.0,77.0,187.0,-985.0
17.0,53.0,-243.0,50.0,2.0,-13.0,79.0,180.0,-984.0
19.0,49.0,-245.0,50.0,0.0,-13.0,79.0,184.0,-986.0
14.0,51.0,-244.0,51.0,1.0,-12.0,75.0,192.0,-980.0
17.0,50.0,-245.0,51.0,0.0,-13.0,75.0,183.0,-986.0
15.0,49.0,-245.0,50.0,-1.0,-11.0,76.0,185.0,-985.0
15.0,49.0,-245.0,51.0,1.0,-12.0,77.0,192.0,-987.0
14.0,49.0,-244.0,50.0,2.0,-11.0,75.0,185.0,-988.0
15.0,51.0,-246.0,50.0,3.0,-11.0,72.0,189.0,-986.0
14.0,52.0,-241.0,49.0,1.0,-11.0,79.0,183.0,-986.0
15.0,49.0,-240.0,51.0,1.0,-10.0,72.0,188.0,-990.0
16.0,50.0,-242.0,51.0,2.0,-10.0,76.0,190.0,-983.0
16.0,51.0,-246.0,51.0,1.0,-11.0,80.0,183.0,-983.0
13.0,51.0,-240.0,50.0,1.0,-11.0,77.0,184.0,-981.0
13.0,53.0,-247.0,49.0,2.0,-10.0,71.0,181.0,-989.0
18.0,51.0,-247.0,49.0,2.0,-10.0,75.0,181.0,-992.0
15.0,48.0,-244.0,48.0,3.0,-12.0,71.0,188.0,-983.0
14.0,51.0,-242.0,48.0,4.0,-12.0,73.0,184.0,-984.0
17.0,53.0,-244.0,47.0,5.0,-12.0,74.0,188.0,-985.0
13.0,51.0,-245.0,46.0,5.0,-11.0,76.0,180.0,-983.0
16.0,49.0,-244.0,48.0,5.0,-12.0,70.0,184.0,-993.0
13.0,51.0,-247.0,48.0,5.0,-12.0,72.0,178.0,-989.0
16.0,51.0,-244.0,49.0,6.0,-10.0,76.0,182.0,-981.0
16.0,52.0,-244.0,49.0,7.0,-10.0,78.0,187.0,-986.0
14.0,51.0,-244.0,48.0,9.0,-10.0,76.0,183.0,-982.0
17.0,53.0,-243.0,47.0,8.0,-11.0,77.0,180.0,-985.0
14.0,52.0,-247.0,47.0,9.0,-10.0,74.0,188.0,-986.0
19.0,48.0,-242.0,46.0,9.0,-9.0,70.0,181.0,-988.0
13.0,50.0,-243.0,48.0,10.0,-10.0,75.0,180.0,-981.0
14.0,49.0,-245.0,47.0,9.0,-10.0,73.0,185.0,-979.0
16.0,51.0,-248.0,49.0,9.0,-11.0,73.0,183.0,-984.0
13.0,50.0,-242.0,49.0,10.0,-9.0,74.0,179.0,-983.0
17.0,49.0,-241.0,49.0,9.0,-10.0,71.0,181.0,-986.0
16.0,48.0,-243.0,48.0,10.0,-9.0,77.0,187.0,-985.0
14.0,50.0,-242.0,47.0,12.0,-9.0,74.0,184.0,-985.0
13.0,52.0,-241.0,48.0,11.0,-10.0,74.0,180.0,-982.0
15.0,51.0,-245.0,49.0,10.0,-10.0,68.0,185.0,-986.0
15.0,49.0,-245.0,48.0,11.0,-10.0,77.0,182.0,-990.0
13.0,52.0,-241.0,49.0,9.0,-9.0,75.0,185.0,-982.0
15.0,48.0,-245.0,49.0,10.0,-9.0,70.0,181.0,-986.0
15.0,49.0,-242.0,50.0,10.0,-8.0,77.0,180.0,-991.0
17.0,51.0,-246.0,50.0,10.0,-10.0,76.0,180.0,-987.0
12.0,53.0,-241.0,52.0,11.0,-10.0,77.0,183.0,-985.0
17.0,48.0,-245.0,51.0,10.0,-10.0,72.0,178.0,-986.0
14.0,52.0,-243.0,52.0,9.0,-11.0,72.0,184.0,-983.0
17.0,50.0,-248.0,51.0,9.0,-10.0,71.0,185.0,-988.0
16.0,49.0,-245.0,51.0,10.0,-9.0,71.0,180.0,-987.0
14.0,53.0,-242.0,50.0,10.0,-9.0,73.0,182.0,-985.0
13.0,51.0,-245.0,48.0,10.0,-10.0,73.0,183.0,-994.0
17.0,51.0,-246.0,50.0,11.0,-9.0,74.0,186.0,-982.0
13.0,48.0,-245.0,50.0,10.0,-10.0,72.0,188.0,-987.0
17.0,50.0,-244.0,49.0,11.0,-10.0,76.0,180.0,-981.0
18.0,49.0,-245.0,49.0,11.0,-9.0,67.0,186.0,-984.0
17.0,54.0,-247.0,50.0,10.0,-8.0,76.0,188.0,-979.0
18.0,49.0,-244.0,49.0,10.0,-8.0,77.0,185.0,-987.0
13.0,49.0,-244.0,50.0,8.0,-9.0,74.0,186.0,-981.0
19.0,51.0,-246.0,50.0,8.0,-11.0,74.0,183.0,-990.0
13.0,50.0,-245.0,50.0,9.0,-9.0,75.0,184.0,-984.0
15.0,52.0,-244.0,49.0,9.0,-11.0,69.0,188.0,-985.0
15.0,53.0,-243.0,49.0,9.0,-9.0,72.0,182.0,-991.0
12.0,49.0,-247.0,49.0,9.0,-10.0,78.0,188.0,-986.0
15.0,51.0,-245.0,49.0,9.0,-10.0,73.0,186.0,-990.0
21.0,49.0,-246.0,48.0,9.0,-9.0,75.0,189.0,-980.0
15.0,51.0,-244.0,48.0,11.0,-10.0,76.0,181.0,-983.0
18.0,49.0,-243.0,49.0,10.0,-9.0,72.0,183.0,-988.0
16.0,52.0,-244.0,48.0,10.0,-11.0,78.0,179.0,-987.0
18.0,53.0,-244.0,49.0,9.0,-10.0,75.0,189.0,-986.0
16.0,51.0,-244.0,48.0,10.0,-11.0,75.0,181.0,-986.0
19.0,52.0,-243.0,47.0,9.0,-11.0,77.0,184.0,-985.0
18.0,51.0,-244.0,48.0,8.0,-12.0,73.0,182.0,-986.0
16.0,52.0,-245.0,48.0,10.0,-11.0,74.0,188.0,-989.0
13.0,50.0,-244.0,48.0,9.0,-10.0,73.0,187.0,-989.0
14.0,52.0,-245.0,49.0,9.0,-9.0,73.0,187.0,-984.0
12.0,51.0,-244.0,49.0,8.0,-10.0,76.0,189.0,-989.0
12.0,51.0,-243.0,49.0,8.0,-10.0,71.0,183.0,-985.0
16.0,51.0,-243.0,48.0,9.0,-10.0,77.0,188.0,-986.0
14.0,52.0,-242.0,49.0,8.0,-11.0,76.0,184.0,-985.0
14.0,50.0,-242.0,50.0,7.0,-10.0,71.0,182.0,-991.0
16.0,51.0,-246.0,49.0,8.0,-9.0,72.0,183.0,-985.0
17.0,49.0,-243.0,49.0,8.0,-11.0,74.0,187.0,-983.0
15.0,50.0,-244.0,49.0,7.0,-10.0,76.0,185.0,-980.0
18.0,49.0,-244.0,50.0,8.0,-10.0,74.0,185.0,-983.0
14.0,49.0,-245.0,50.0,8.0,-10.0,73.0,185.0,-988.0
15.0,51.0,-242.0,48.0,8.0,-11.0,73.0,185.0,-981.0
16.0,51.0,-244.0,49.0,9.0,-11.0,74.0,178.0,-985.0
15.0,54.0,-245.0,50.0,8.0,-12.0,74.0,183.0,-989.0
16.0,49.0,-245.0,50.0,8.0,-9.0,66.0,178.0,-983.0
14.0,50.0,-244.0,50.0,7.0,-10.0,73.0,189.0,-981.0
14.0,51.0,-242.0,49.0,8.0,-11.0,69.0,190.0,-984.0
13.0,51.0,-243.0,50.0,8.0,-10.0,72.0,184.0,-986.0
14.0,51.0,-241.0,49.0,8.0,-10.0,69.0,189.0,-982.0
17.0,51.0,-244.0,49.0,8.0,-9.0,69.0,186.0,-983.0
12.0,51.0,-244.0,50.0,8.0,-10.0,75.0,184.0,-983.0
16.0,49.0,-245.0,50.0,9.0,-10.0,70.0,180.0,-989.0
14.0,50.0,-239.0,51.0,9.0,-11.0,74.0,187.0,-983.0
15.0,50.0,-241.0,50.0,9.0,-11.0,70.0,183.0,-982.0
14.0,51.0,-243.0,50.0,7.0,-10.0,74.0,181.0,-989.0
16.0,51.0,-245.0,50.0,8.0,-9.0,74.0,184.0,-985.0
15.0,51.0,-244.0,50.0,8.0,-11.0,74.0,178.0,-988.0
15.0,50.0,-246.0,50.0,9.0,-10.0,67.0,183.0,-985.0
16.0,50.0,-241.0,50.0,8.0,-10.0,73.0,188.0,-983.0
14.0,50.0,-246.0,49.0,7.0,-9.0,70.0,179.0,-986.0
16.0,51.0,-243.0,50.0,8.0,-11.0,73.0,187.0,-987.0
16.0,49.0,-244.0,49.0,10.0,-10.0,71.0,187.0,-989.0
16.0,48.0,-240.0,48.0,9.0,-9.0,68.0,185.0,-988.0
16.0,48.0,-242.0,48.0,9.0,-10.0,70.0,184.0,-985.0
15.0,53.0,-245.0,49.0,10.0,-12.0,76.0,181.0,-983.0
13.0,52.0,-243.0,48.0,10.0,-11.0,76.0,181.0,-987.0
16.0,52.0,-247.0,49.0,9.0,-11.0,71.0,183.0,-988.0
14.0,49.0,-243.0,49.0,9.0,-10.0,70.0,191.0,-981.0
17.0,52.0,-239.0,47.0,9.0,-9.0,71.0,187.0,-985.0
14.0,48.0,-245.0,47.0,10.0,-12.0,77.0,184.0,-983.0
15.0,50.0,-242.0,49.0,11.0,-9.0,72.0,188.0,-983.0
14.0,50.0,-242.0,48.0,10.0,-9.0,74.0,182.0,-984.0
14.0,52.0,-245.0,49.0,11.0,-10.0,72.0,190.0,-990.0
14.0,46.0,-244.0,49.0,12.0,-9.0,74.0,189.0,-984.0
13.0,49.0,-247.0,48.0,11.0,-10.0,73.0,187.0,-990.0
15.0,48.0,-244.0,49.0,11.0,-8.0,72.0,186.0,-987.0
16.0,51.0,-242.0,50.0,10.0,-8.0,72.0,184.0,-987.0
15.0,52.0,-243.0,50.0,10.0,-10.0,68.0,182.0,-994.0
17.0,50.0,-242.0,49.0,11.0,-8.0,75.0,179.0,-986.0
13.0,48.0,-243.0,48.0,11.0,-9.0,69.0,185.0,-986.0
14.0,48.0,-241.0,48.0,11.0,-8.0,71.0,181.0,-987.0
14.0,51.0,-246.0,48.0,11.0,-10.0,63.0,182.0,-980.0
15.0,49.0,-242.0,48.0,11.0,-9.0,76.0,184.0,-983.0
18.0,51.0,-243.0,49.0,11.0,-8.0,72.0,183.0,-992.0
15.0,51.0,-242.0,50.0,11.0,-9.0,71.0,189.0,-988.0
15.0,50.0,-243.0,50.0,11.0,-10.0,70.0,182.0,-991.0
18.0,51.0,-242.0,48.0,12.0,-9.0,72.0,187.0,-991.0
14.0,53.0,-243.0,49.0,11.0,-8.0,73.0,183.0,-984.0
12.0,50.0,-242.0,50.0,10.0,-9.0,75.0,183.0,-988.0
14.0,47.0,-244.0,48.0,10.0,-11.0,74.0,183.0,-983.0
13.0,52.0,-241.0,50.0,11.0,-11.0,75.0,179.0,-982.0
15.0,52.0,-243.0,48.0,11.0,-12.0,67.0,187.0,-991.0
16.0,53.0,-243.0,48.0,10.0,-10.0,72.0,189.0,-982.0
16.0,51.0,-245.0,47.0,9.0,-10.0,67.0,183.0,-986.0
17.0,48.0,-242.0,49.0,9.0,-11.0,75.0,183.0,-979.0
14.0,50.0,-245.0,50.0,8.0,-10.0,69.0,189.0,-985.0
15.0,50.0,-245.0,49.0,9.0,-12.0,72.0,191.0,-986.0
15.0,51.0,-243.0,48.0,9.0,-10.0,70.0,185.0,-985.0
17.0,50.0,-244.0,49.0,10.0,-10.0,68.0,187.0,-985.0
17.0,49.0,-244.0,49.0,10.0,-9.0,73.0,188.0,-981.0
16.0,50.0,-245.0,49.0,9.0,-10.0,70.0,190.0,-985.0
16.0,50.0,-242.0,50.0,10.0,-12.0,71.0,181.0,-992.0
16.0,51.0,-243.0,50.0,11.0,-10.0,71.0,189.0,-988.0
15.0,52.0,-247.0,49.0,10.0,-10.0,71.0,184.0,-980.0
15.0,53.0,-242.0,49.0,11.0,-8.0,70.0,188.0,-989.0
15.0,51.0,-242.0,49.0,10.0,-9.0,70.0,184.0,-984.0
14.0,49.0,-241.0,47.0,11.0,-10.0,74.0,185.0,-984.0
13.0,52.0,-246.0,45.0,12.0,-9.0,70.0,186.0,-984.0
14.0,51.0,-241.0,49.0,12.0,-10.0,72.0,187.0,-984.0
13.0,51.0,-246.0,54.0,11.0,-9.0,70.0,183.0,-991.0
17.0,54.0,-243.0,56.0,11.0,-11.0,70.0,185.0,-995.0
14.0,49.0,-245.0,57.0,12.0,-11.0,72.0,180.0,-993.0
14.0,51.0,-245.0,60.0,11.0,-9.0,70.0,182.0,-993.0
13.0,53.0,-242.0,59.0,12.0,-9.0,70.0,185.0,-989.0
11.0,49.0,-246.0,58.0,13.0,-10.0,71.0,183.0,-989.0
17.0,50.0,-241.0,55.0,14.0,-11.0,71.0,182.0,-982.0
14.0,50.0,-241.0,50.0,15.0,-11.0,74.0,185.0,-977.0
16.0,48.0,-243.0,47.0,15.0,-8.0,71.0,187.0,-980.0
13.0,52.0,-243.0,45.0,16.0,-7.0,74.0,179.0,-977.0
16.0,50.0,-243.0,47.0,16.0,-8.0,70.0,184.0,-980.0
17.0,47.0,-242.0,51.0,16.0,-8.0,67.0,182.0,-984.0
17.0,53.0,-246.0,58.0,14.0,-9.0,73.0,179.0,-995.0
16.0,51.0,-242.0,65.0,12.0,-10.0,70.0,180.0,-993.0
13.0,50.0,-242.0,67.0,11.0,-10.0,74.0,182.0,-984.0
11.0,51.0,-248.0,62.0,9.0,-10.0,70.0,181.0,-987.0
16.0,52.0,-249.0,56.0,8.0,-9.0,70.0,184.0,-983.0
13.0,50.0,-242.0,52.0,8.0,-8.0,66.0,182.0,-986.0
15.0,48.0,-248.0,47.0,8.0,-9.0,65.0,182.0,-983.0
14.0,52.0,-242.0,47.0,10.0,-10.0,70.0,185.0,-992.0
15.0,52.0,-242.0,47.0,11.0,-9.0,72.0,182.0,-986.0
15.0,49.0,-241.0,47.0,10.0,-9.0,72.0,184.0,-990.0
15.0,52.0,-244.0,48.0,11.0,-8.0,63.0,181.0,-980.0
14.0,52.0,-240.0,51.0,10.0,-9.0,68.0,192.0,-986.0
14.0,53.0,-245.0,50.0,10.0,-10.0,68.0,182.0,-982.0
15.0,50.0,-241.0,50.0,10.0,-10.0,73.0,184.0,-987.0
13.0,53.0,-247.0,51.0,9.0,-11.0,74.0,185.0,-984.0
14.0,54.0,-245.0,50.0,8.0,-10.0,71.0,185.0,-988.0
13.0,52.0,-242.0,50.0,9.0,-11.0,67.0,190.0,-984.0
13.0,50.0,-243.0,51.0,9.0,-9.0,70.0,189.0,-988.0
17.0,50.0,-243.0,50.0,10.0,-10.0,76.0,187.0,-993.0
15.0,51.0,-242.0,50.0,8.0,-10.0,73.0,190.0,-990.0
15.0,50.0,-241.0,52.0,9.0,-10.0,68.0,187.0,-986.0
14.0,50.0,-243.0,50.0,9.0,-9.0,75.0,187.0,-990.0
15.0,49.0,-245.0,50.0,9.0,-10.0,72.0,185.0,-986.0
16.0,52.0,-243.0,49.0,7.0,-11.0,71.0,185.0,-985.0
11.0,52.0,-243.0,49.0,7.0,-10.0,71.0,182.0,-988.0
17.0,50.0,-244.0,49.0,7.0,-11.0,69.0,184.0,-983.0
17.0,50.0,-242.0,48.0,7.0,-10.0,65.0,181.0,-988.0
15.0,48.0,-242.0,48.0,7.0,-10.0,72.0,182.0,-988.0
15.0,49.0,-245.0,48.0,7.0,-10.0,75.0,185.0,-986.0
14.0,52.0,-243.0,48.0,8.0,-11.0,66.0,185.0,-987.0
15.0,51.0,-241.0,50.0,9.0,-11.0,69.0,181.0,-990.0
12.0,49.0,-242.0,50.0,10.0,-11.0,73.0,187.0,-986.0
14.0,52.0,-245.0,49.0,10.0,-10.0,71.0,191.0,-989.0
16.0,49.0,-246.0,50.0,11.0,-10.0,72.0,181.0,-993.0
16.0,50.0,-243.0,51.0,10.0,-11.0,63.0,186.0,-995.0
15.0,51.0,-243.0,50.0,11.0,-9.0,72.0,182.0,-989.0
15.0,51.0,-245.0,50.0,11.0,-9.0,71.0,179.0,-990.0
14.0,49.0,-246.0,48.0,11.0,-10.0,72.0,179.0,-983.0
11.0,51.0,-247.0,49.0,11.0,-10.0,74.0,181.0,-987.0
13.0,52.0,-243.0,50.0,10.0,-10.0,73.0,178.0,-988.0
13.0,51.0,-245.0,50.0,11.0,-9.0,71.0,182.0,-981.0
15.0,49.0,-242.0,49.0,11.0,-9.0,77.0,181.0,-989.0
15.0,50.0,-244.0,50.0,11.0,-10.0,66.0,180.0,-987.0
18.0,49.0,-241.0,50.0,11.0,-10.0,69.0,178.0,-984.0
14.0,50.0,-246.0,50.0,12.0,-10.0,71.0,178.0,-981.0
14.0,51.0,-242.0,49.0,11.0,-9.0,74.0,185.0,-982.0
14.0,50.0,-243.0,48.0,11.0,-9.0,72.0,181.0,-984.0
15.0,50.0,-241.0,47.0,11.0,-9.0,74.0,182.0,-987.0
13.0,49.0,-242.0,48.0,10.0,-9.0,71.0,183.0,-984.0
18.0,48.0,-242.0,48.0,11.0,-9.0,69.0,186.0,-981.0
16.0,48.0,-245.0,49.0,11.0,-10.0,70.0,181.0,-985.0
13.0,49.0,-245.0,51.0,9.0,-11.0,73.0,187.0,-989.0
9.0,58.0,-249.0,50.0,10.0,-11.0,65.0,187.0,-985.0
15.0,51.0,-244.0,50.0,9.0,-11.0,70.0,181.0,-987.0
15.0,50.0,-240.0,49.0,10.0,-9.0,69.0,183.0,-987.0
14.0,53.0,-247.0,49.0,9.0,-10.0,70.0,182.0,-987.0
13.0,50.0,-245.0,49.0,10.0,-11.0,73.0,182.0,-990.0
13.0,51.0,-244.0,49.0,8.0,-10.0,73.0,179.0,-987.0
15.0,51.0,-243.0,49.0,9.0,-10.0,70.0,189.0,-983.0
15.0,50.0,-245.0,48.0,9.0,-10.0,70.0,186.0,-992.0
11.0,49.0,-245.0,48.0,10.0,-9.0,72.0,185.0,-986.0
14.0,52.0,-245.0,49.0,10.0,-9.0,68.0,185.0,-989.0
14.0,53.0,-241.0,49.0,10.0,-9.0,66.0,185.0,-989.0
13.0,54.0,-246.0,49.0,11.0,-10.0,69.0,186.0,-986.0
15.0,51.0,-243.0,48.0,11.0,-9.0,74.0,188.0,-982.0
10.0,51.0,-239.0,49.0,11.0,-10.0,70.0,185.0,-984.0
16.0,49.0,-246.0,50.0,11.0,-10.0,72.0,179.0,-983.0
14.0,50.0,-245.0,49.0,10.0,-10.0,69.0,186.0,-982.0
17.0,52.0,-239.0,49.0,11.0,-10.0,64.0,184.0,-986.0
13.0,50.0,-243.0,49.0,12.0,-8.0,74.0,188.0,-987.0
13.0,48.0,-246.0,49.0,12.0,-8.0,64.0,188.0,-987.0
11.0,52.0,-246.0,49.0,11.0,-10.0,66.0,183.0,-985.0
12.0,52.0,-243.0,48.0,11.0,-10.0,67.0,188.0,-987.0
15.0,50.0,-243.0,49.0,9.0,-11.0,71.0,184.0,-981.0
13.0,49.0,-242.0,50.0,9.0,-10.0,70.0,189.0,-987.0
14.0,48.0,-244.0,48.0,10.0,-12.0,68.0,186.0,-980.0
13.0,52.0,-238.0,49.0,11.0,-10.0,67.0,184.0,-986.0
14.0,52.0,-245.0,50.0,11.0,-10.0,73.0,184.0,-985.0
11.0,51.0,-245.0,51.0,11.0,-8.0,66.0,191.0,-982.0
14.0,53.0,-246.0,51.0,11.0,-8.0,71.0,190.0,-986.0
14.0,50.0,-246.0,51.0,11.0,-10.0,67.0,187.0,-985.0
15.0,51.0,-243.0,49.0,9.0,-9.0,72.0,189.0,-991.0
14.0,51.0,-246.0,51.0,10.0,-11.0,67.0,182.0,-987.0
11.0,52.0,-246.0,51.0,11.0,-10.0,67.0,190.0,-986.0
16.0,53.0,-245.0,51.0,11.0,-9.0,74.0,185.0,-984.0
11.0,53.0,-246.0,50.0,11.0,-10.0,64.0,185.0,-987.0
15.0,48.0,-246.0,50.0,11.0,-11.0,67.0,185.0,-988.0
16.0,49.0,-243.0,51.0,12.0,-8.0,72.0,183.0,-983.0
16.0,50.0,-242.0,50.0,12.0,-11.0,74.0,182.0,-987.0
12.0,48.0,-246.0,50.0,11.0,-10.0,71.0,187.0,-989.0
14.0,52.0,-246.0,49.0,11.0,-11.0,68.0,191.0,-986.0
15.0,48.0,-243.0,50.0,11.0,-10.0,72.0,184.0,-984.0
13.0,49.0,-243.0,51.0,11.0,-9.0,67.0,183.0,-990.0
12.0,49.0,-241.0,51.0,10.0,-11.0,69.0,180.0,-985.0
14.0,50.0,-240.0,50.0,11.0,-11.0,66.0,182.0,-983.0
14.0,50.0,-246.0,50.0,11.0,-10.0,69.0,188.0,-989.0
12.0,53.0,-245.0,50.0,10.0,-9.0,61.0,183.0,-984.0
16.0,49.0,-243.0,50.0,10.0,-9.0,71.0,182.0,-987.0
14.0,48.0,-243.0,51.0,10.0,-9.0,67.0,189.0,-983.0
16.0,51.0,-243.0,50.0,10.0,-10.0,70.0,181.0,-985.0
16.0,51.0,-240.0,49.0,10.0,-9.0,60.0,188.0,-984.0
17.0,49.0,-242.0,49.0,10.0,-9.0,74.0,191.0,-985.0
12.0,51.0,-243.0,51.0,11.0,-10.0,67.0,178.0,-987.0
14.0,51.0,-243.0,50.0,11.0,-9.0,66.0,181.0,-995.0
13.0,49.0,-246.0,49.0,11.0,-9.0,70.0,180.0,-984.0
14.0,51.0,-241.0,48.0,10.0,-9.0,68.0,184.0,-988.0
17.0,46.0,-243.0,48.0,11.0,-10.0,66.0,186.0,-985.0
15.0,51.0,-240.0,46.0,11.0,-11.0,74.0,180.0,-984.0
11.0,52.0,-248.0,48.0,9.0,-9.0,68.0,181.0,-983.0
15.0,51.0,-246.0,47.0,11.0,-10.0,72.0,183.0,-980.0
13.0,53.0,-245.0,48.0,10.0,-9.0,70.0,183.0,-983.0
17.0,51.0,-241.0,47.0,11.0,-9.0,68.0,187.0,-980.0
15.0,50.0,-246.0,47.0,11.0,-9.0,62.0,189.0,-988.0
15.0,51.0,-244.0,47.0,9.0,-9.0,72.0,181.0,-987.0
12.0,50.0,-244.0,47.0,9.0,-9.0,65.0,187.0,-987.0
14.0,50.0,-241.0,48.0,7.0,-11.0,67.0,180.0,-986.0
10.0,51.0,-244.0,47.0,7.0,-10.0,70.0,186.0,-985.0
34.0,52.0,-236.0,47.0,8.0,-10.0,63.0,185.0,-983.0
17.0,51.0,-243.0,48.0,7.0,-11.0,69.0,185.0,-987.0
16.0,50.0,-244.0,48.0,8.0,-12.0,66.0,184.0,-985.0
15.0,50.0,-247.0,47.0,8.0,-11.0,71.0,185.0,-986.0
14.0,49.0,-244.0,47.0,9.0,-10.0,71.0,187.0,-992.0
12.0,51.0,-244.0,47.0,8.0,-11.0,67.0,186.0,-992.0
15.0,48.0,-245.0,48.0,8.0,-10.0,66.0,185.0,-980.0
17.0,53.0,-246.0,49.0,9.0,-10.0,65.0,183.0,-980.0
15.0,50.0,-245.0,48.0,9.0,-11.0,67.0,186.0,-988.0
15.0,51.0,-243.0,48.0,9.0,-13.0,66.0,187.0,-990.0
13.0,53.0,-245.0,47.0,10.0,-11.0,68.0,188.0,-986.0
18.0,49.0,-244.0,48.0,9.0,-9.0,68.0,183.0,-991.0
13.0,50.0,-245.0,49.0,9.0,-9.0,66.0,187.0,-979.0
13.0,50.0,-243.0,48.0,9.0,-10.0,64.0,186.0,-991.0
14.0,53.0,-243.0,49.0,10.0,-10.0,69.0,191.0,-990.0
15.0,49.0,-246.0,49.0,11.0,-9.0,67.0,184.0,-984.0
11.0,49.0,-244.0,50.0,10.0,-9.0,64.0,184.0,-995.0
14.0,50.0,-242.0,50.0,10.0,-9.0,64.0,190.0,-991.0
17.0,50.0,-244.0,49.0,10.0,-10.0,62.0,188.0,-988.0
15.0,51.0,-242.0,50.0,10.0,-9.0,70.0,187.0,-990.0
9.0,55.0,-244.0,50.0,10.0,-10.0,66.0,184.0,-985.0
14.0,51.0,-246.0,52.0,11.0,-11.0,70.0,186.0,-983.0
15.0,49.0,-243.0,49.0,11.0,-10.0,66.0,189.0,-985.0
13.0,53.0,-243.0,48.0,11.0,-9.0,59.0,190.0,-984.0
16.0,50.0,-246.0,50.0,12.0,-9.0,74.0,183.0,-991.0
13.0,51.0,-246.0,49.0,11.0,-9.0,73.0,188.0,-984.0
14.0,53.0,-245.0,48.0,10.0,-10.0,65.0,182.0,-987.0
14.0,50.0,-245.0,49.0,10.0,-10.0,73.0,189.0,-987.0
13.0,50.0,-243.0,51.0,12.0,-9.0,64.0,184.0,-989.0
12.0,51.0,-246.0,52.0,11.0,-10.0,66.0,181.0,-988.0
13.0,48.0,-243.0,50.0,12.0,-8.0,63.0,192.0,-978.0
13.0,50.0,-242.0,49.0,13.0,-8.0,71.0,184.0,-987.0
14.0,50.0,-245.0,49.0,12.0,-8.0,65.0,182.0,-983.0
13.0,53.0,-245.0,47.0,12.0,-8.0,63.0,186.0,-988.0
15.0,53.0,-241.0,46.0,14.0,-9.0,68.0,189.0,-987.0
14.0,49.0,-244.0,48.0,12.0,-9.0,65.0,185.0,-988.0
12.0,51.0,-245.0,50.0,12.0,-9.0,66.0,181.0,-993.0
15.0,49.0,-244.0,53.0,13.0,-10.0,68.0,183.0,-990.0
13.0,50.0,-246.0,54.0,13.0,-9.0,68.0,184.0,-998.0
12.0,52.0,-247.0,57.0,13.0,-9.0,67.0,180.0,-995.0
12.0,52.0,-245.0,58.0,11.0,-8.0,70.0,182.0,-988.0
12.0,50.0,-243.0,55.0,13.0,-9.0,64.0,183.0,-994.0
14.0,51.0,-247.0,51.0,13.0,-8.0,67.0,181.0,-987.0
12.0,50.0,-244.0,47.0,14.0,-10.0,64.0,186.0,-985.0
14.0,51.0,-241.0,43.0,14.0,-9.0,68.0,181.0,-981.0
14.0,48.0,-240.0,42.0,15.0,-9.0,68.0,186.0,-979.0
16.0,51.0,-246.0,45.0,15.0,-8.0,69.0,179.0,-981.0
14.0,49.0,-246.0,49.0,15.0,-10.0,71.0,187.0,-984.0
12.0,49.0,-244.0,55.0,12.0,-9.0,71.0,181.0,-994.0
13.0,50.0,-244.0,62.0,12.0,-11.0,71.0,187.0,-987.0
15.0,51.0,-244.0,64.0,11.0,-11.0,67.0,184.0,-991.0
13.0,52.0,-244.0,61.0,10.0,-11.0,63.0,181.0,-989.0
12.0,50.0,-241.0,57.0,8.0,-10.0,69.0,186.0,-995.0
13.0,50.0,-245.0,52.0,7.0,-10.0,65.0,187.0,-992.0
15.0,50.0,-244.0,49.0,7.0,-11.0,63.0,182.0,-987.0
11.0,53.0,-244.0,47.0,9.0,-12.0,59.0,183.0,-984.0
15.0,49.0,-243.0,46.0,10.0,-10.0,58.0,184.0,-980.0
15.0,52.0,-248.0,48.0,11.0,-10.0,69.0,184.0,-982.0
14.0,48.0,-243.0,49.0,11.0,-9.0,70.0,187.0,-985.0
13.0,50.0,-244.0,49.0,11.0,-11.0,67.0,185.0,-991.0
15.0,49.0,-239.0,50.0,10.0,-12.0,67.0,186.0,-985.0
14.0,51.0,-243.0,52.0,9.0,-10.0,70.0,181.0,-985.0
14.0,53.0,-243.0,51.0,9.0,-12.0,66.0,186.0,-986.0
10.0,51.0,-245.0,51.0,9.0,-10.0,67.0,184.0,-989.0
15.0,49.0,-241.0,52.0,10.0,-10.0,62.0,185.0,-987.0
22.0,53.0,-248.0,52.0,9.0,-10.0,70.0,187.0,-989.0
12.0,49.0,-246.0,52.0,11.0,-9.0,66.0,190.0,-990.0
12.0,57.0,-242.0,52.0,11.0,-11.0,66.0,193.0,-986.0
13.0,52.0,-243.0,52.0,12.0,-12.0,60.0,188.0,-986.0
16.0,52.0,-244.0,52.0,11.0,-10.0,67.0,182.0,-992.0
13.0,52.0,-244.0,52.0,10.0,-11.0,72.0,183.0,-987.0
13.0,51.0,-244.0,51.0,10.0,-9.0,69.0,189.0,-984.0
16.0,49.0,-248.0,51.0,10.0,-11.0,63.0,185.0,-988.0
12.0,49.0,-245.0,50.0,10.0,-12.0,65.0,188.0,-991.0
10.0,49.0,-240.0,50.0,10.0,-11.0,69.0,186.0,-987.0
15.0,46.0,-243.0,49.0,10.0,-11.0,67.0,181.0,-994.0
14.0,50.0,-243.0,47.0,10.0,-11.0,67.0,188.0,-984.0
18.0,49.0,-248.0,48.0,10.0,-10.0,68.0,188.0,-982.0
14.0,51.0,-245.0,48.0,10.0,-9.0,65.0,183.0,-988.0
13.0,51.0,-244.0,48.0,10.0,-9.0,69.0,186.0,-989.0
15.0,50.0,-243.0,48.0,11.0,-10.0,74.0,184.0,-983.0
13.0,52.0,-246.0,50.0,12.0,-10.0,67.0,185.0,-981.0
13.0,50.0,-241.0,48.0,13.0,-11.0,69.0,185.0,-975.0
10.0,53.0,-240.0,49.0,11.0,-10.0,69.0,184.0,-994.0
16.0,48.0,-242.0,48.0,11.0,-10.0,64.0,183.0,-988.0
14.0,49.0,-245.0,48.0,11.0,-10.0,60.0,181.0,-980.0
11.0,52.0,-244.0,47.0,12.0,-9.0,69.0,180.0,-988.0
13.0,49.0,-237.0,48.0,11.0,-9.0,66.0,180.0,-984.0
14.0,49.0,-246.0,49.0,12.0,-8.0,67.0,179.0,-988.0
12.0,55.0,-243.0,49.0,12.0,-9.0,66.0,188.0,-991.0
12.0,50.0,-242.0,49.0,12.0,-9.0,65.0,182.0,-990.0
14.0,50.0,-243.0,49.0,14.0,-9.0,66.0,184.0,-991.0
15.0,49.0,-246.0,50.0,13.0,-10.0,63.0,179.0,-983.0
17.0,50.0,-242.0,51.0,12.0,-10.0,65.0,180.0,-983.0
15.0,51.0,-241.0,50.0,13.0,-9.0,68.0,186.0,-985.0
14.0,48.0,-243.0,49.0,12.0,-10.0,62.0,183.0,-984.0
10.0,49.0,-243.0,48.0,13.0,-9.0,64.0,181.0,-986.0
15.0,52.0,-245.0,49.0,12.0,-10.0,67.0,181.0,-983.0
16.0,50.0,-251.0,50.0,13.0,-9.0,66.0,182.0,-987.0
14.0,49.0,-245.0,50.0,14.0,-9.0,67.0,188.0,-985.0
12.0,52.0,-245.0,50.0,14.0,-9.0,65.0,187.0,-989.0
14.0,51.0,-246.0,50.0,12.0,-9.0,60.0,183.0,-980.0
13.0,53.0,-246.0,50.0,11.0,-9.0,66.0,183.0,-989.0
15.0,53.0,-245.0,51.0,13.0,-9.0,65.0,191.0,-992.0
11.0,50.0,-243.0,49.0,12.0,-9.0,64.0,181.0,-989.0
16.0,51.0,-247.0,48.0,11.0,-10.0,71.0,188.0,-985.0
14.0,47.0,-241.0,48.0,11.0,-9.0,66.0,184.0,-989.0
14.0,50.0,-243.0,49.0,12.0,-10.0,65.0,182.0,-985.0
12.0,51.0,-245.0,47.0,12.0,-10.0,69.0,183.0,-976.0
12.0,49.0,-243.0,48.0,11.0,-8.0,70.0,181.0,-988.0
14.0,49.0,-241.0,48.0,12.0,-8.0,66.0,185.0,-987.0
13.0,48.0,-243.0,48.0,13.0,-10.0,67.0,184.0,-982.0
12.0,52.0,-247.0,48.0,13.0,-10.0,64.0,185.0,-985.0
13.0,52.0,-240.0,48.0,12.0,-9.0,68.0,183.0,-984.0
17.0,52.0,-244.0,47.0,11.0,-9.0,66.0,190.0,-977.0
15.0,53.0,-242.0,47.0,11.0,-9.0,72.0,184.0,-989.0
14.0,51.0,-244.0,48.0,11.0,-9.0,68.0,186.0,-986.0
18.0,51.0,-242.0,49.0,11.0,-10.0,65.0,189.0,-988.0
14.0,48.0,-249.0,50.0,12.0,-10.0,63.0,190.0,-990.0
15.0,51.0,-244.0,50.0,13.0,-10.0,62.0,189.0,-994.0
12.0,52.0,-246.0,49.0,12.0,-8.0,65.0,181.0,-992.0
14.0,53.0,-243.0,48.0,11.0,-11.0,66.0,181.0,-987.0
12.0,51.0,-247.0,48.0,11.0,-11.0,72.0,184.0,-985.0
16.0,52.0,-244.0,50.0,10.0,-11.0,67.0,186.0,-993.0
15.0,53.0,-241.0,50.0,12.0,-11.0,63.0,187.0,-982.0
14.0,53.0,-241.0,49.0,11.0,-11.0,68.0,185.0,-992.0
16.0,51.0,-242.0,50.0,11.0,-10.0,63.0,190.0,-992.0
12.0,55.0,-244.0,51.0,13.0,-11.0,71.0,189.0,-992.0
14.0,51.0,-244.0,50.0,13.0,-9.0,69.0,187.0,-987.0
12.0,49.0,-243.0,49.0,13.0,-8.0,72.0,189.0,-981.0
16.0,50.0,-240.0,49.0,13.0,-8.0,66.0,187.0,-984.0
13.0,52.0,-246.0,50.0,13.0,-9.0,61.0,190.0,-987.0
15.0,50.0,-242.0,50.0,13.0,-9.0,64.0,186.0,-982.0
13.0,50.0,-247.0,49.0,13.0,-9.0,70.0,186.0,-992.0
15.0,52.0,-246.0,49.0,13.0,-9.0,62.0,184.0,-984.0
12.0,52.0,-237.0,50.0,12.0,-9.0,66.0,185.0,-988.0
14.0,50.0,-241.0,50.0,12.0,-8.0,67.0,182.0,-982.0
13.0,50.0,-244.0,50.0,12.0,-7.0,70.0,189.0,-984.0
12.0,52.0,-245.0,50.0,11.0,-8.0,65.0,189.0,-980.0
14.0,50.0,-244.0,50.0,11.0,-9.0,67.0,188.0,-981.0
14.0,48.0,-241.0,51.0,11.0,-8.0,71.0,190.0,-984.0
14.0,50.0,-249.0,51.0,11.0,-9.0,64.0,183.0,-983.0
15.0,51.0,-243.0,51.0,11.0,-9.0,70.0,187.0,-991.0
12.0,48.0,-246.0,51.0,11.0,-10.0,61.0,180.0,-983.0
13.0,49.0,-241.0,50.0,10.0,-11.0,65.0,188.0,-994.0
16.0,49.0,-246.0,50.0,11.0,-12.0,66.0,181.0,-987.0
12.0,53.0,-246.0,49.0,11.0,-10.0,61.0,189.0,-983.0
16.0,51.0,-243.0,51.0,10.0,-9.0,67.0,182.0,-987.0
11.0,53.0,-247.0,51.0,10.0,-9.0,65.0,184.0,-982.0
12.0,52.0,-244.0,50.0,11.0,-9.0,66.0,184.0,-983.0
11.0,50.0,-241.0,51.0,12.0,-9.0,64.0,183.0,-985.0
16.0,52.0,-240.0,51.0,12.0,-8.0,63.0,181.0,-988.0
13.0,53.0,-243.0,51.0,12.0,-10.0,63.0,187.0,-990.0
34.0,52.0,-231.0,51.0,13.0,-10.0,61.0,184.0,-984.0
13.0,52.0,-241.0,51.0,13.0,-10.0,63.0,180.0,-990.0
14.0,47.0,-242.0,50.0,14.0,-10.0,73.0,184.0,-989.0
13.0,49.0,-242.0,51.0,14.0,-10.0,66.0,181.0,-984.0
13.0,53.0,-242.0,51.0,13.0,-9.0,66.0,192.0,-983.0
14.0,54.0,-244.0,50.0,13.0,-10.0,67.0,189.0,-983.0
16.0,50.0,-242.0,50.0,13.0,-9.0,61.0,186.0,-986.0
16.0,53.0,-242.0,49.0,14.0,-9.0,59.0,187.0,-986.0
14.0,52.0,-246.0,49.0,14.0,-7.0,64.0,183.0,-992.0
15.0,50.0,-242.0,51.0,14.0,-10.0,69.0,184.0,-991.0
12.0,47.0,-243.0,52.0,13.0,-8.0,60.0,183.0,-986.0
9.0,53.0,-247.0,50.0,13.0,-9.0,67.0,183.0,-990.0
14.0,51.0,-245.0,50.0,13.0,-11.0,64.0,187.0,-989.0
13.0,48.0,-246.0,50.0,12.0,-10.0,69.0,189.0,-985.0
14.0,51.0,-244.0,47.0,13.0,-10.0,62.0,182.0,-988.0
12.0,51.0,-245.0,46.0,12.0,-9.0,65.0,185.0,-980.0
17.0,50.0,-243.0,48.0,12.0,-9.0,69.0,187.0,-994.0
15.0,53.0,-243.0,52.0,11.0,-10.0,65.0,185.0,-985.0
14.0,50.0,-247.0,54.0,10.0,-11.0,61.0,188.0,-987.0
8.0,51.0,-245.0,56.0,11.0,-11.0,61.0,189.0,-994.0
15.0,50.0,-247.0,58.0,11.0,-9.0,68.0,183.0,-988.0
14.0,51.0,-242.0,59.0,12.0,-10.0,59.0,187.0,-994.0
11.0,52.0,-246.0,57.0,11.0,-12.0,63.0,183.0,-985.0
13.0,52.0,-244.0,53.0,12.0,-11.0,58.0,181.0,-984.0
12.0,52.0,-240.0,49.0,12.0,-10.0,67.0,184.0,-984.0
10.0,51.0,-242.0,46.0,12.0,-11.0,69.0,181.0,-980.0
15.0,54.0,-245.0,43.0,13.0,-11.0,66.0,187.0,-985.0
14.0,50.0,-240.0,43.0,13.0,-11.0,66.0,180.0,-977.0
13.0,51.0,-242.0,48.0,13.0,-10.0,67.0,189.0,-984.0
14.0,50.0,-245.0,54.0,13.0,-10.0,66.0,183.0,-991.0
14.0,52.0,-247.0,60.0,13.0,-10.0,64.0,185.0,-985.0
13.0,52.0,-241.0,62.0,10.0,-10.0,60.0,179.0,-985.0
13.0,51.0,-243.0,58.0,9.0,-11.0,65.0,183.0,-980.0
14.0,53.0,-243.0,55.0,9.0,-11.0,63.0,185.0,-989.0
13.0,53.0,-243.0,52.0,9.0,-12.0,66.0,182.0,-982.0
12.0,50.0,-244.0,49.0,8.0,-12.0,59.0,184.0,-989.0
12.0,48.0,-245.0,47.0,11.0,-10.0,63.0,187.0,-982.0
11.0,53.0,-239.0,47.0,10.0,-10.0,62.0,189.0,-982.0
14.0,50.0,-243.0,46.0,10.0,-10.0,70.0,185.0,-985.0
12.0,51.0,-244.0,49.0,12.0,-10.0,66.0,184.0,-976.0
11.0,52.0,-246.0,50.0,10.0,-10.0,66.0,185.0,-983.0
14.0,49.0,-245.0,49.0,8.0,-8.0,69.0,181.0,-990.0
15.0,51.0,-244.0,51.0,8.0,-10.0,66.0,187.0,-981.0
13.0,49.0,-241.0,52.0,8.0,-10.0,59.0,193.0,-984.0
13.0,50.0,-244.0,52.0,7.0,-10.0,69.0,190.0,-980.0
12.0,53.0,-240.0,52.0,8.0,-11.0,59.0,188.0,-981.0
13.0,51.0,-245.0,52.0,7.0,-12.0,62.0,189.0,-988.0
14.0,51.0,-241.0,52.0,9.0,-11.0,70.0,185.0,-997.0
12.0,49.0,-241.0,52.0,9.0,-11.0,63.0,190.0,-985.0
13.0,53.0,-243.0,52.0,10.0,-10.0,66.0,187.0,-992.0
11.0,53.0,-242.0,52.0,11.0,-10.0,60.0,186.0,-980.0
14.0,50.0,-242.0,51.0,10.0,-10.0,64.0,187.0,-992.0
12.0,50.0,-244.0,51.0,10.0,-10.0,66.0,184.0,-989.0
12.0,51.0,-246.0,50.0,9.0,-10.0,62.0,190.0,-991.0
12.0,51.0,-247.0,50.0,10.0,-10.0,63.0,184.0,-991.0
11.0,49.0,-239.0,50.0,10.0,-9.0,62.0,189.0,-983.0
13.0,51.0,-245.0,49.0,9.0,-9.0,66.0,188.0,-983.0
15.0,49.0,-244.0,50.0,9.0,-10.0,67.0,188.0,-991.0
13.0,50.0,-243.0,49.0,10.0,-10.0,70.0,186.0,-985.0
16.0,53.0,-245.0,50.0,10.0,-10.0,71.0,188.0,-980.0
12.0,51.0,-243.0,50.0,11.0,-10.0,62.0,185.0,-986.0
15.0,50.0,-247.0,51.0,11.0,-8.0,58.0,189.0,-986.0
13.0,53.0,-245.0,51.0,11.0,-10.0,60.0,187.0,-977.0
12.0,55.0,-246.0,50.0,13.0,-9.0,67.0,185.0,-984.0
13.0,53.0,-243.0,51.0,12.0,-10.0,66.0,181.0,-986.0
13.0,60.0,-250.0,49.0,13.0,-9.0,62.0,186.0,-986.0
12.0,51.0,-241.0,50.0,12.0,-9.0,60.0,187.0,-985.0
9.0,52.0,-246.0,49.0,13.0,-9.0,57.0,188.0,-987.0
13.0,52.0,-244.0,51.0,12.0,-9.0,59.0,183.0,-986.0
14.0,51.0,-243.0,51.0,12.0,-9.0,64.0,188.0,-987.0
14.0,50.0,-246.0,51.0,13.0,-8.0,62.0,187.0,-990.0
11.0,53.0,-242.0,51.0,12.0,-9.0,61.0,184.0,-992.0
13.0,52.0,-245.0,49.0,13.0,-9.0,66.0,189.0,-982.0
12.0,46.0,-240.0,49.0,13.0,-8.0,62.0,185.0,-989.0
14.0,48.0,-243.0,49.0,13.0,-10.0,64.0,184.0,-989.0
13.0,50.0,-244.0,48.0,11.0,-8.0,61.0,181.0,-986.0
15.0,49.0,-242.0,50.0,10.0,-10.0,60.0,185.0,-982.0
15.0,48.0,-242.0,50.0,12.0,-10.0,62.0,184.0,-986.0
13.0,52.0,-245.0,50.0,12.0,-9.0,64.0,186.0,-989.0
14.0,49.0,-245.0,51.0,13.0,-8.0,65.0,182.0,-988.0
12.0,50.0,-243.0,52.0,13.0,-9.0,63.0,184.0,-982.0
12.0,51.0,-242.0,51.0,13.0,-9.0,62.0,188.0,-981.0
14.0,49.0,-245.0,51.0,14.0,-9.0,61.0,186.0,-985.0
13.0,49.0,-240.0,51.0,13.0,-8.0,65.0,184.0,-998.0
13.0,51.0,-241.0,49.0,13.0,-8.0,61.0,185.0,-993.0
14.0,52.0,-246.0,50.0,13.0,-10.0,63.0,187.0,-990.0
12.0,53.0,-247.0,49.0,13.0,-9.0,63.0,194.0,-982.0
13.0,52.0,-245.0,49.0,13.0,-9.0,59.0,190.0,-986.0
12.0,53.0,-242.0,49.0,13.0,-10.0,57.0,185.0,-984.0
14.0,54.0,-244.0,49.0,12.0,-9.0,65.0,183.0,-982.0
13.0,52.0,-241.0,48.0,12.0,-9.0,64.0,187.0,-985.0
15.0,48.0,-239.0,49.0,11.0,-9.0,66.0,187.0,-989.0
14.0,50.0,-243.0,49.0,14.0,-9.0,58.0,184.0,-984.0
15.0,49.0,-246.0,47.0,13.0,-9.0,65.0,187.0,-985.0
13.0,51.0,-244.0,48.0,13.0,-10.0,62.0,186.0,-987.0
16.0,52.0,-245.0,50.0,14.0,-9.0,63.0,181.0,-987.0
13.0,49.0,-242.0,49.0,13.0,-8.0,65.0,183.0,-983.0
11.0,52.0,-242.0,49.0,13.0,-10.0,62.0,184.0,-990.0
14.0,54.0,-237.0,49.0,13.0,-10.0,62.0,183.0,-991.0
12.0,51.0,-241.0,50.0,13.0,-9.0,60.0,188.0,-982.0
14.0,51.0,-247.0,51.0,12.0,-9.0,63.0,185.0,-990.0
14.0,51.0,-240.0,50.0,12.0,-10.0,65.0,188.0,-981.0
14.0,53.0,-244.0,50.0,12.0,-9.0,64.0,187.0,-988.0
13.0,52.0,-247.0,51.0,13.0,-10.0,64.0,192.0,-987.0
11.0,52.0,-243.0,51.0,12.0,-9.0,67.0,187.0,-987.0
15.0,50.0,-245.0,51.0,13.0,-9.0,58.0,181.0,-987.0
14.0,52.0,-246.0,51.0,14.0,-7.0,65.0,191.0,-987.0
15.0,52.0,-240.0,50.0,15.0,-10.0,61.0,180.0,-985.0
13.0,46.0,-247.0,50.0,16.0,-10.0,66.0,183.0,-989.0
12.0,50.0,-245.0,50.0,15.0,-10.0,60.0,185.0,-988.0
14.0,52.0,-245.0,50.0,13.0,-9.0,62.0,182.0,-988.0
11.0,53.0,-244.0,50.0,14.0,-9.0,65.0,186.0,-986.0
18.0,51.0,-243.0,50.0,13.0,-9.0,60.0,181.0,-984.0
12.0,55.0,-244.0,49.0,14.0,-10.0,59.0,184.0,-991.0
15.0,51.0,-243.0,49.0,12.0,-11.0,63.0,189.0,-988.0
11.0,53.0,-241.0,49.0,13.0,-9.0,62.0,186.0,-980.0
14.0,53.0,-243.0,51.0,12.0,-9.0,63.0,189.0,-983.0
10.0,53.0,-241.0,49.0,11.0,-8.0,63.0,179.0,-977.0
11.0,50.0,-245.0,49.0,11.0,-8.0,64.0,184.0,-987.0
15.0,51.0,-244.0,50.0,12.0,-10.0,61.0,190.0,-982.0
12.0,51.0,-243.0,50.0,11.0,-9.0,61.0,183.0,-990.0
14.0,50.0,-241.0,50.0,12.0,-9.0,61.0,187.0,-985.0
15.0,51.0,-244.0,51.0,12.0,-9.0,65.0,185.0,-985.0
14.0,52.0,-240.0,52.0,11.0,-8.0,71.0,186.0,-990.0
15.0,51.0,-245.0,51.0,10.0,-10.0,61.0,184.0,-992.0
11.0,51.0,-248.0,53.0,7.0,-10.0,72.0,188.0,-991.0
15.0,52.0,-244.0,55.0,5.0,-9.0,63.0,186.0,-994.0
16.0,50.0,-244.0,57.0,2.0,-9.0,67.0,191.0,-992.0
12.0,51.0,-247.0,60.0,0.0,-10.0,64.0,191.0,-995.0
12.0,55.0,-243.0,62.0,0.0,-10.0,64.0,184.0,-991.0
15.0,52.0,-252.0,60.0,1.0,-10.0,61.0,181.0,-995.0
13.0,50.0,-246.0,60.0,3.0,-10.0,67.0,185.0,-988.0
12.0,51.0,-244.0,59.0,3.0,-11.0,67.0,191.0,-983.0
13.0,50.0,-246.0,57.0,3.0,-9.0,60.0,181.0,-986.0
13.0,53.0,-244.0,56.0,4.0,-9.0,65.0,177.0,-986.0
13.0,49.0,-243.0,56.0,4.0,-10.0,64.0,181.0,-991.0
15.0,50.0,-245.0,56.0,2.0,-12.0,65.0,186.0,-984.0
10.0,50.0,-244.0,56.0,-1.0,-9.0,63.0,182.0,-984.0
14.0,51.0,-239.0,55.0,-5.0,-10.0,61.0,180.0,-981.0
11.0,52.0,-240.0,54.0,-5.0,-12.0,59.0,188.0,-986.0
13.0,53.0,-242.0,52.0,-5.0,-11.0,58.0,179.0,-976.0
14.0,50.0,-241.0,50.0,-6.0,-10.0,69.0,190.0,-983.0
13.0,51.0,-246.0,48.0,-6.0,-12.0,66.0,189.0,-982.0
8.0,52.0,-245.0,51.0,-6.0,-12.0,62.0,182.0,-982.0
12.0,51.0,-244.0,53.0,-6.0,-10.0,71.0,182.0,-983.0
13.0,49.0,-243.0,56.0,-6.0,-12.0,59.0,180.0,-992.0
12.0,48.0,-245.0,58.0,-6.0,-12.0,63.0,183.0,-980.0
11.0,47.0,-247.0,59.0,-7.0,-11.0,64.0,180.0,-991.0
14.0,53.0,-246.0,57.0,-7.0,-10.0,66.0,183.0,-987.0
14.0,49.0,-242.0,55.0,-6.0,-13.0,59.0,181.0,-987.0
11.0,50.0,-243.0,51.0,-6.0,-12.0,62.0,187.0,-980.0
13.0,52.0,-241.0,46.0,-5.0,-11.0,59.0,183.0,-989.0
15.0,51.0,-241.0,44.0,-5.0,-12.0,63.0,188.0,-986.0
13.0,50.0,-242.0,46.0,-5.0,-12.0,61.0,188.0,-981.0
13.0,50.0,-240.0,49.0,-5.0,-12.0,64.0,183.0,-993.0
13.0,52.0,-247.0,54.0,-5.0,-12.0,62.0,186.0,-995.0
9.0,52.0,-247.0,58.0,-4.0,-12.0,57.0,183.0,-995.0
13.0,52.0,-246.0,59.0,-4.0,-12.0,63.0,182.0,-994.0
14.0,50.0,-247.0,56.0,-4.0,-12.0,65.0,184.0,-993.0
11.0,50.0,-245.0,53.0,-3.0,-13.0,56.0,184.0,-984.0
10.0,52.0,-245.0,49.0,-3.0,-12.0,56.0,181.0,-990.0
12.0,51.0,-243.0,44.0,-3.0,-13.0,62.0,181.0,-981.0
14.0,51.0,-239.0,43.0,-1.0,-12.0,57.0,188.0,-985.0
11.0,56.0,-242.0,44.0,1.0,-12.0,58.0,186.0,-986.0
12.0,52.0,-244.0,45.0,1.0,-11.0,58.0,181.0,-991.0
12.0,51.0,-246.0,45.0,3.0,-12.0,66.0,186.0,-984.0
16.0,49.0,-244.0,48.0,2.0,-12.0,59.0,187.0,-984.0
13.0,50.0,-244.0,50.0,1.0,-11.0,57.0,181.0,-986.0
11.0,50.0,-244.0,50.0,3.0,-11.0,57.0,181.0,-984.0
11.0,51.0,-246.0,51.0,3.0,-10.0,57.0,181.0,-987.0
14.0,47.0,-245.0,52.0,3.0,-12.0,57.0,182.0,-987.0
11.0,53.0,-245.0,50.0,3.0,-11.0,58.0,187.0,-990.0
10.0,51.0,-246.0,50.0,3.0,-12.0,61.0,185.0,-985.0
13.0,51.0,-243.0,50.0,3.0,-12.0,56.0,189.0,-985.0
15.0,50.0,-247.0,50.0,3.0,-12.0,57.0,186.0,-983.0
11.0,52.0,-244.0,49.0,3.0,-10.0,57.0,186.0,-987.0
12.0,49.0,-245.0,49.0,4.0,-11.0,58.0,184.0,-981.0
12.0,49.0,-245.0,50.0,4.0,-11.0,59.0,182.0,-983.0
13.0,51.0,-243.0,50.0,4.0,-11.0,58.0,180.0,-989.0
12.0,50.0,-249.0,49.0,6.0,-12.0,57.0,185.0,-983.0
7.0,53.0,-244.0,47.0,5.0,-10.0,60.0,185.0,-984.0
13.0,52.0,-243.0,47.0,6.0,-10.0,60.0,182.0,-990.0
15.0,49.0,-241.0,45.0,6.0,-9.0,57.0,186.0,-986.0
12.0,50.0,-240.0,46.0,7.0,-9.0,61.0,187.0,-988.0
8.0,50.0,-242.0,46.0,8.0,-9.0,57.0,181.0,-987.0
10.0,52.0,-243.0,46.0,9.0,-9.0,58.0,184.0,-988.0
11.0,51.0,-239.0,47.0,10.0,-9.0,54.0,185.0,-990.0
10.0,56.0,-242.0,48.0,12.0,-9.0,57.0,181.0,-987.0
12.0,53.0,-245.0,47.0,13.0,-10.0,54.0,187.0,-990.0
11.0,51.0,-244.0,48.0,14.0,-8.0,56.0,184.0,-987.0
15.0,51.0,-247.0,48.0,14.0,-7.0,60.0,182.0,-993.0
10.0,51.0,-244.0,47.0,13.0,-7.0,61.0,186.0,-988.0
11.0,54.0,-250.0,48.0,14.0,-8.0,56.0,188.0,-988.0
12.0,51.0,-243.0,48.0,14.0,-9.0,59.0,189.0,-990.0
11.0,51.0,-249.0,48.0,13.0,-9.0,55.0,190.0,-991.0
12.0,50.0,-246.0,49.0,14.0,-8.0,58.0,186.0,-993.0
10.0,51.0,-243.0,49.0,15.0,-9.0,58.0,188.0,-987.0
12.0,53.0,-243.0,49.0,15.0,-10.0,56.0,185.0,-983.0
11.0,52.0,-243.0,47.0,15.0,-9.0,58.0,183.0,-987.0
11.0,52.0,-243.0,47.0,15.0,-9.0,61.0,192.0,-988.0
11.0,49.0,-243.0,47.0,15.0,-8.0,60.0,185.0,-987.0
12.0,49.0,-245.0,49.0,16.0,-10.0,60.0,183.0,-987.0
12.0,50.0,-243.0,51.0,16.0,-11.0,58.0,181.0,-986.0
12.0,49.0,-245.0,51.0,17.0,-11.0,59.0,184.0,-989.0
14.0,49.0,-244.0,52.0,16.0,-9.0,60.0,177.0,-991.0
14.0,50.0,-246.0,54.0,16.0,-9.0,59.0,181.0,-989.0
13.0,49.0,-245.0,53.0,17.0,-10.0,59.0,181.0,-993.0
14.0,51.0,-244.0,53.0,15.0,-10.0,57.0,186.0,-984.0
10.0,52.0,-245.0,54.0,15.0,-10.0,58.0,186.0,-986.0
14.0,50.0,-245.0,54.0,14.0,-9.0,60.0,186.0,-992.0
9.0,52.0,-243.0,53.0,13.0,-10.0,59.0,182.0,-985.0
13.0,48.0,-243.0,52.0,14.0,-10.0,62.0,184.0,-988.0
12.0,52.0,-245.0,52.0,13.0,-10.0,62.0,186.0,-984.0
12.0,50.0,-244.0,52.0,12.0,-9.0,56.0,180.0,-983.0
11.0,49.0,-242.0,52.0,12.0,-9.0,59.0,185.0,-986.0
9.0,51.0,-241.0,52.0,13.0,-12.0,56.0,181.0,-985.0
13.0,51.0,-246.0,52.0,12.0,-9.0,60.0,188.0,-988.0
10.0,52.0,-243.0,53.0,12.0,-9.0,56.0,183.0,-982.0
13.0,48.0,-242.0,53.0,12.0,-9.0,60.0,181.0,-990.0
14.0,51.0,-244.0,53.0,11.0,-9.0,58.0,179.0,-988.0
10.0,52.0,-243.0,53.0,11.0,-10.0,61.0,189.0,-991.0
9.0,52.0,-246.0,54.0,11.0,-10.0,58.0,192.0,-991.0
13.0,51.0,-240.0,54.0,10.0,-11.0,55.0,180.0,-984.0
14.0,53.0,-244.0,56.0,10.0,-10.0,57.0,184.0,-987.0
11.0,50.0,-249.0,56.0,10.0,-10.0,58.0,182.0,-991.0
13.0,49.0,-244.0,54.0,9.0,-10.0,57.0,184.0,-983.0
11.0,51.0,-246.0,53.0,10.0,-9.0,56.0,185.0,-993.0
11.0,52.0,-242.0,53.0,10.0,-11.0,63.0,184.0,-985.0
9.0,49.0,-243.0,53.0,9.0,-11.0,60.0,189.0,-989.0
11.0,53.0,-243.0,53.0,10.0,-11.0,60.0,188.0,-993.0
12.0,52.0,-248.0,53.0,10.0,-11.0,59.0,194.0,-991.0
11.0,47.0,-241.0,52.0,11.0,-11.0,60.0,186.0,-986.0
11.0,51.0,-243.0,51.0,11.0,-9.0,62.0,181.0,-987.0
11.0,52.0,-243.0,52.0,10.0,-10.0,57.0,188.0,-983.0
11.0,51.0,-249.0,51.0,11.0,-11.0,60.0,189.0,-987.0
15.0,48.0,-242.0,51.0,11.0,-9.0,57.0,186.0,-987.0
10.0,52.0,-244.0,52.0,10.0,-10.0,59.0,191.0,-990.0
10.0,53.0,-248.0,53.0,11.0,-9.0,58.0,181.0,-997.0
8.0,53.0,-243.0,52.0,11.0,-9.0,57.0,181.0,-988.0
13.0,51.0,-244.0,52.0,10.0,-10.0,63.0,182.0,-987.0
12.0,51.0,-243.0,52.0,10.0,-10.0,60.0,189.0,-990.0
12.0,51.0,-244.0,52.0,12.0,-11.0,54.0,188.0,-985.0
12.0,49.0,-246.0,53.0,10.0,-10.0,58.0,185.0,-982.0
10.0,48.0,-240.0,52.0,10.0,-9.0,57.0,185.0,-987.0
13.0,50.0,-244.0,51.0,10.0,-8.0,54.0,181.0,-986.0
10.0,50.0,-240.0,50.0,9.0,-10.0,54.0,178.0,-983.0
12.0,49.0,-241.0,50.0,8.0,-10.0,59.0,184.0,-977.0
12.0,48.0,-245.0,50.0,8.0,-9.0,57.0,181.0,-988.0
12.0,52.0,-241.0,49.0,9.0,-10.0,59.0,181.0,-984.0
14.0,48.0,-243.0,49.0,8.0,-9.0,56.0,188.0,-988.0
12.0,50.0,-242.0,50.0,10.0,-8.0,58.0,188.0,-990.0
11.0,51.0,-242.0,49.0,9.0,-10.0,61.0,185.0,-981.0
10.0,52.0,-244.0,50.0,9.0,-10.0,60.0,185.0,-985.0
12.0,50.0,-245.0,50.0,10.0,-10.0,58.0,182.0,-983.0
15.0,50.0,-246.0,50.0,10.0,-11.0,57.0,182.0,-992.0
13.0,51.0,-242.0,51.0,10.0,-9.0,54.0,182.0,-985.0
14.0,50.0,-244.0,50.0,9.0,-9.0,60.0,185.0,-991.0
14.0,48.0,-241.0,50.0,9.0,-9.0,58.0,184.0,-992.0
10.0,51.0,-244.0,50.0,9.0,-10.0,61.0,187.0,-985.0
8.0,51.0,-242.0,48.0,12.0,-9.0,56.0,188.0,-990.0
11.0,52.0,-242.0,48.0,13.0,-8.0,61.0,189.0,-986.0
11.0,54.0,-244.0,49.0,14.0,-8.0,53.0,186.0,-985.0
11.0,52.0,-244.0,49.0,15.0,-9.0,59.0,183.0,-991.0
12.0,49.0,-241.0,49.0,15.0,-9.0,57.0,181.0,-983.0
10.0,52.0,-241.0,48.0,15.0,-10.0,55.0,183.0,-981.0
10.0,51.0,-243.0,46.0,16.0,-8.0,56.0,178.0,-984.0
11.0,52.0,-243.0,46.0,14.0,-6.0,59.0,177.0,-984.0
10.0,51.0,-245.0,44.0,14.0,-8.0,56.0,187.0,-976.0
10.0,51.0,-243.0,42.0,11.0,-6.0,54.0,181.0,-984.0
10.0,49.0,-242.0,41.0,10.0,-6.0,57.0,183.0,-981.0
13.0,51.0,-243.0,38.0,10.0,-7.0,56.0,178.0,-978.0
13.0,51.0,-243.0,38.0,8.0,-7.0,59.0,186.0,-982.0
11.0,50.0,-241.0,40.0,8.0,-8.0,60.0,181.0,-976.0
8.0,53.0,-244.0,43.0,8.0,-7.0,55.0,185.0,-977.0
13.0,49.0,-248.0,46.0,8.0,-8.0,54.0,187.0,-1004.0
9.0,50.0,-249.0,50.0,7.0,-9.0,56.0,188.0,-997.0
11.0,53.0,-248.0,51.0,8.0,-10.0,56.0,182.0,-996.0
10.0,50.0,-245.0,50.0,8.0,-10.0,56.0,183.0,-992.0
9.0,53.0,-245.0,47.0,9.0,-11.0,56.0,192.0,-994.0
13.0,51.0,-245.0,44.0,11.0,-12.0,54.0,185.0,-990.0
9.0,51.0,-245.0,41.0,11.0,-9.0,58.0,192.0,-993.0
8.0,55.0,-243.0,40.0,13.0,-11.0,57.0,191.0,-993.0
11.0,49.0,-244.0,39.0,14.0,-9.0,54.0,193.0,-988.0
10.0,51.0,-247.0,40.0,14.0,-8.0,57.0,192.0,-990.0
12.0,49.0,-248.0,41.0,14.0,-10.0,59.0,184.0,-984.0
11.0,53.0,-246.0,42.0,14.0,-10.0,58.0,184.0,-983.0
11.0,50.0,-244.0,43.0,13.0,-10.0,58.0,188.0,-988.0
12.0,53.0,-243.0,44.0,12.0,-9.0,65.0,191.0,-982.0
11.0,50.0,-242.0,44.0,11.0,-9.0,57.0,187.0,-984.0
11.0,53.0,-242.0,43.0,10.0,-9.0,56.0,183.0,-981.0
11.0,51.0,-243.0,43.0,7.0,-8.0,59.0,183.0,-981.0
11.0,53.0,-243.0,43.0,7.0,-12.0,63.0,183.0,-984.0
9.0,51.0,-245.0,46.0,8.0,-11.0,59.0,185.0,-991.0
10.0,50.0,-244.0,48.0,8.0,-10.0,61.0,185.0,-992.0
12.0,51.0,-244.0,50.0,8.0,-9.0,55.0,188.0,-980.0
12.0,50.0,-240.0,50.0,7.0,-10.0,56.0,188.0,-996.0
15.0,48.0,-248.0,52.0,7.0,-9.0,62.0,182.0,-993.0
12.0,49.0,-241.0,51.0,7.0,-8.0,57.0,183.0,-991.0
11.0,51.0,-244.0,52.0,7.0,-10.0,56.0,181.0,-986.0
10.0,51.0,-246.0,49.0,7.0,-10.0,54.0,185.0,-989.0
12.0,51.0,-244.0,49.0,8.0,-10.0,53.0,185.0,-990.0
7.0,53.0,-243.0,48.0,8.0,-9.0,57.0,184.0,-983.0
13.0,51.0,-245.0,49.0,8.0,-10.0,55.0,185.0,-994.0
10.0,51.0,-246.0,50.0,9.0,-10.0,53.0,186.0,-989.0
10.0,53.0,-244.0,48.0,9.0,-9.0,56.0,188.0,-984.0
8.0,52.0,-242.0,48.0,9.0,-7.0,54.0,182.0,-989.0
14.0,49.0,-243.0,47.0,9.0,-8.0,57.0,181.0,-991.0
11.0,51.0,-243.0,48.0,10.0,-8.0,56.0,186.0,-990.0
12.0,52.0,-243.0,49.0,10.0,-8.0,51.0,187.0,-987.0
9.0,52.0,-248.0,50.0,10.0,-9.0,57.0,188.0,-985.0
9.0,50.0,-243.0,52.0,9.0,-8.0,57.0,188.0,-989.0
8.0,49.0,-244.0,53.0,9.0,-7.0,54.0,186.0,-988.0
11.0,49.0,-244.0,53.0,8.0,-8.0,48.0,188.0,-987.0
12.0,49.0,-245.0,53.0,9.0,-9.0,54.0,181.0,-988.0
12.0,46.0,-244.0,52.0,12.0,-8.0,54.0,187.0,-992.0
9.0,50.0,-246.0,51.0,13.0,-9.0,56.0,180.0,-990.0
11.0,52.0,-244.0,50.0,14.0,-8.0,55.0,188.0,-987.0
13.0,48.0,-243.0,48.0,13.0,-9.0,54.0,186.0,-996.0
11.0,51.0,-245.0,49.0,14.0,-9.0,59.0,184.0,-994.0
12.0,51.0,-245.0,47.0,14.0,-8.0,56.0,184.0,-982.0
12.0,49.0,-242.0,49.0,15.0,-8.0,57.0,182.0,-986.0
13.0,49.0,-242.0,49.0,15.0,-8.0,55.0,190.0,-980.0
9.0,49.0,-246.0,50.0,16.0,-9.0,61.0,185.0,-989.0
10.0,50.0,-243.0,49.0,14.0,-9.0,58.0,184.0,-981.0
10.0,50.0,-244.0,49.0,15.0,-9.0,57.0,184.0,-992.0
9.0,53.0,-244.0,49.0,15.0,-9.0,58.0,184.0,-987.0
13.0,48.0,-244.0,50.0,14.0,-9.0,59.0,184.0,-981.0
10.0,50.0,-245.0,47.0,14.0,-8.0,57.0,185.0,-993.0
9.0,51.0,-246.0,48.0,15.0,-8.0,54.0,186.0,-982.0
10.0,52.0,-245.0,47.0,16.0,-7.0,57.0,191.0,-992.0
13.0,49.0,-246.0,47.0,16.0,-9.0,59.0,189.0,-984.0
7.0,52.0,-243.0,47.0,16.0,-7.0,59.0,187.0,-992.0
12.0,53.0,-245.0,48.0,16.0,-8.0,55.0,186.0,-991.0
10.0,54.0,-241.0,49.0,16.0,-8.0,58.0,182.0,-980.0
9.0,52.0,-242.0,50.0,16.0,-8.0,60.0,184.0,-986.0
10.0,49.0,-243.0,50.0,16.0,-8.0,53.0,191.0,-982.0
14.0,49.0,-246.0,50.0,16.0,-9.0,58.0,189.0,-986.0
11.0,52.0,-246.0,49.0,16.0,-7.0,55.0,188.0,-982.0
11.0,54.0,-244.0,48.0,16.0,-9.0,57.0,189.0,-985.0
16.0,50.0,-244.0,47.0,15.0,-9.0,59.0,186.0,-992.0
9.0,50.0,-242.0,47.0,14.0,-9.0,56.0,190.0,-989.0
10.0,52.0,-241.0,47.0,13.0,-9.0,58.0,191.0,-991.0
14.0,54.0,-241.0,47.0,14.0,-8.0,60.0,185.0,-992.0
12.0,49.0,-243.0,48.0,13.0,-8.0,57.0,191.0,-987.0
13.0,49.0,-244.0,49.0,13.0,-9.0,56.0,185.0,-981.0
10.0,51.0,-246.0,51.0,13.0,-10.0,58.0,190.0,-987.0
13.0,51.0,-246.0,52.0,12.0,-11.0,58.0,188.0,-988.0
9.0,53.0,-244.0,54.0,14.0,-10.0,58.0,191.0,-987.0
17.0,55.0,-236.0,53.0,13.0,-9.0,61.0,183.0,-987.0
14.0,51.0,-246.0,53.0,13.0,-11.0,55.0,187.0,-994.0
11.0,53.0,-247.0,54.0,14.0,-9.0,55.0,190.0,-988.0
10.0,52.0,-245.0,54.0,14.0,-9.0,57.0,186.0,-998.0
11.0,49.0,-245.0,55.0,14.0,-9.0,54.0,188.0,-991.0
11.0,53.0,-245.0,55.0,15.0,-11.0,56.0,188.0,-989.0
9.0,51.0,-245.0,56.0,15.0,-9.0,55.0,188.0,-996.0
12.0,50.0,-248.0,55.0,13.0,-9.0,57.0,183.0,-992.0
11.0,51.0,-244.0,57.0,12.0,-11.0,52.0,190.0,-991.0
10.0,55.0,-242.0,57.0,11.0,-11.0,56.0,184.0,-981.0
13.0,48.0,-243.0,56.0,10.0,-11.0,56.0,180.0,-977.0
11.0,48.0,-240.0,55.0,10.0,-11.0,57.0,182.0,-981.0
12.0,51.0,-242.0,53.0,9.0,-11.0,59.0,183.0,-985.0
10.0,52.0,-238.0,53.0,8.0,-11.0,54.0,184.0,-979.0
11.0,52.0,-243.0,52.0,6.0,-10.0,57.0,182.0,-977.0
12.0,51.0,-241.0,50.0,6.0,-11.0,59.0,181.0,-979.0
10.0,48.0,-239.0,51.0,6.0,-12.0,53.0,186.0,-979.0
9.0,52.0,-240.0,52.0,4.0,-10.0,55.0,183.0,-979.0
13.0,48.0,-245.0,54.0,3.0,-11.0,56.0,184.0,-987.0
10.0,51.0,-247.0,55.0,1.0,-11.0,56.0,182.0,-983.0
11.0,48.0,-245.0,55.0,1.0,-12.0,57.0,181.0,-977.0
12.0,52.0,-246.0,57.0,2.0,-12.0,54.0,183.0,-991.0
15.0,50.0,-246.0,59.0,2.0,-11.0,52.0,183.0,-992.0
12.0,52.0,-246.0,60.0,4.0,-12.0,54.0,185.0,-986.0
12.0,51.0,-246.0,59.0,6.0,-12.0,57.0,189.0,-991.0
9.0,51.0,-245.0,60.0,7.0,-11.0,58.0,184.0,-992.0
9.0,52.0,-246.0,60.0,9.0,-11.0,51.0,184.0,-989.0
11.0,53.0,-246.0,60.0,9.0,-10.0,56.0,185.0,-988.0
9.0,51.0,-243.0,59.0,11.0,-10.0,58.0,189.0,-983.0
11.0,47.0,-244.0,56.0,10.0,-13.0,60.0,185.0,-984.0
11.0,51.0,-243.0,55.0,9.0,-12.0,54.0,180.0,-987.0
11.0,50.0,-244.0,54.0,10.0,-12.0,54.0,185.0,-986.0
10.0,46.0,-241.0,51.0,11.0,-12.0,54.0,181.0,-985.0
11.0,50.0,-243.0,50.0,10.0,-11.0,56.0,180.0,-981.0
10.0,53.0,-242.0,46.0,11.0,-10.0,55.0,181.0,-982.0
10.0,49.0,-242.0,46.0,10.0,-11.0,52.0,185.0,-983.0
10.0,49.0,-243.0,47.0,11.0,-11.0,55.0,182.0,-986.0
9.0,51.0,-242.0,49.0,10.0,-11.0,56.0,186.0,-987.0
11.0,51.0,-244.0,55.0,11.0,-9.0,56.0,185.0,-986.0
9.0,53.0,-244.0,58.0,11.0,-13.0,54.0,190.0,-995.0
10.0,49.0,-244.0,61.0,11.0,-12.0,55.0,187.0,-999.0
10.0,52.0,-244.0,64.0,12.0,-12.0,52.0,190.0,-989.0
10.0,53.0,-246.0,64.0,14.0,-10.0,55.0,194.0,-994.0
11.0,47.0,-241.0,61.0,13.0,-12.0,53.0,191.0,-988.0
11.0,55.0,-247.0,61.0,13.0,-12.0,53.0,189.0,-994.0
14.0,49.0,-240.0,59.0,14.0,-11.0,59.0,192.0,-993.0
11.0,52.0,-248.0,58.0,13.0,-11.0,55.0,190.0,-986.0
12.0,50.0,-244.0,57.0,13.0,-11.0,51.0,192.0,-987.0
10.0,50.0,-246.0,56.0,13.0,-10.0,57.0,187.0,-989.0
10.0,54.0,-245.0,56.0,12.0,-12.0,50.0,187.0,-982.0
9.0,51.0,-247.0,58.0,11.0,-11.0,56.0,184.0,-987.0
8.0,50.0,-244.0,59.0,11.0,-11.0,56.0,186.0,-983.0
11.0,53.0,-241.0,61.0,11.0,-10.0,55.0,186.0,-980.0
10.0,49.0,-244.0,61.0,12.0,-10.0,54.0,188.0,-989.0
11.0,48.0,-245.0,62.0,11.0,-10.0,53.0,185.0,-987.0
12.0,51.0,-243.0,64.0,13.0,-10.0,55.0,189.0,-984.0
14.0,51.0,-243.0,65.0,12.0,-11.0,56.0,193.0,-990.0
9.0,52.0,-244.0,67.0,11.0,-10.0,50.0,179.0,-985.0
9.0,51.0,-242.0,68.0,13.0,-10.0,52.0,187.0,-988.0
12.0,54.0,-243.0,69.0,14.0,-9.0,55.0,182.0,-990.0
13.0,49.0,-245.0,70.0,15.0,-10.0,55.0,180.0,-991.0
12.0,50.0,-245.0,70.0,15.0,-11.0,55.0,191.0,-982.0
13.0,56.0,-243.0,72.0,13.0,-12.0,65.0,192.0,-988.0
9.0,50.0,-245.0,75.0,6.0,-11.0,48.0,178.0,-993.0
9.0,50.0,-243.0,69.0,9.0,-10.0,52.0,175.0,-989.0
11.0,48.0,-243.0,65.0,14.0,-10.0,51.0,180.0,-981.0
11.0,50.0,-241.0,63.0,14.0,-12.0,55.0,177.0,-987.0
11.0,50.0,-242.0,61.0,15.0,-10.0,52.0,173.0,-986.0
12.0,51.0,-240.0,61.0,15.0,-10.0,57.0,177.0,-979.0
10.0,48.0,-242.0,60.0,14.0,-12.0,55.0,183.0,-986.0
9.0,52.0,-246.0,59.0,14.0,-11.0,51.0,181.0,-990.0
10.0,50.0,-244.0,57.0,15.0,-11.0,58.0,180.0,-987.0
10.0,49.0,-243.0,59.0,14.0,-10.0,51.0,188.0,-986.0
10.0,50.0,-246.0,60.0,15.0,-10.0,53.0,180.0,-994.0
11.0,52.0,-245.0,61.0,14.0,-11.0,54.0,181.0,-990.0
11.0,50.0,-246.0,61.0,14.0,-10.0,52.0,182.0,-996.0
10.0,51.0,-248.0,61.0,16.0,-10.0,55.0,177.0,-990.0
9.0,51.0,-246.0,62.0,15.0,-11.0,58.0,183.0,-996.0
15.0,50.0,-244.0,68.0,11.0,-12.0,80.0,200.0,-989.0
10.0,48.0,-247.0,71.0,8.0,-11.0,47.0,177.0,-990.0
10.0,51.0,-245.0,65.0,13.0,-10.0,54.0,183.0,-988.0
13.0,50.0,-245.0,62.0,16.0,-12.0,54.0,177.0,-991.0
12.0,48.0,-247.0,60.0,17.0,-11.0,50.0,183.0,-993.0
8.0,52.0,-243.0,58.0,17.0,-10.0,55.0,190.0,-986.0
8.0,49.0,-244.0,54.0,15.0,-12.0,47.0,186.0,-980.0
9.0,49.0,-245.0,56.0,17.0,-11.0,58.0,179.0,-991.0
10.0,48.0,-241.0,55.0,16.0,-11.0,57.0,178.0,-986.0
13.0,52.0,-244.0,53.0,17.0,-9.0,61.0,182.0,-985.0
10.0,47.0,-246.0,53.0,16.0,-10.0,55.0,179.0,-981.0
8.0,51.0,-242.0,53.0,16.0,-10.0,58.0,179.0,-983.0
8.0,51.0,-244.0,53.0,15.0,-10.0,60.0,187.0,-983.0
10.0,48.0,-241.0,53.0,16.0,-9.0,60.0,180.0,-980.0
11.0,51.0,-244.0,54.0,15.0,-10.0,58.0,184.0,-985.0
10.0,53.0,-249.0,56.0,15.0,-10.0,55.0,177.0,-988.0
9.0,53.0,-245.0,57.0,16.0,-10.0,55.0,178.0,-989.0
7.0,48.0,-244.0,57.0,16.0,-11.0,54.0,186.0,-993.0
8.0,49.0,-239.0,58.0,18.0,-11.0,55.0,184.0,-992.0
11.0,50.0,-245.0,61.0,17.0,-11.0,60.0,186.0,-986.0
9.0,52.0,-246.0,62.0,15.0,-10.0,59.0,189.0,-983.0
11.0,48.0,-245.0,70.0,8.0,-12.0,65.0,178.0,-997.0
8.0,48.0,-245.0,68.0,7.0,-12.0,51.0,180.0,-996.0
9.0,49.0,-242.0,65.0,10.0,-11.0,58.0,179.0,-987.0
11.0,51.0,-245.0,64.0,14.0,-12.0,53.0,184.0,-992.0
8.0,49.0,-246.0,64.0,15.0,-12.0,51.0,181.0,-992.0
12.0,49.0,-244.0,62.0,15.0,-13.0,65.0,181.0,-989.0
16.0,50.0,-242.0,63.0,14.0,-12.0,61.0,179.0,-994.0
8.0,52.0,-241.0,60.0,10.0,-13.0,53.0,177.0,-979.0
12.0,47.0,-243.0,60.0,12.0,-12.0,52.0,178.0,-983.0
14.0,52.0,-241.0,59.0,13.0,-11.0,60.0,180.0,-986.0
9.0,51.0,-243.0,61.0,9.0,-11.0,61.0,180.0,-982.0
9.0,46.0,-245.0,72.0,-3.0,-13.0,71.0,162.0,-994.0
9.0,50.0,-243.0,64.0,0.0,-13.0,55.0,180.0,-990.0
8.0,49.0,-242.0,61.0,2.0,-13.0,49.0,181.0,-992.0
11.0,56.0,-243.0,62.0,3.0,-12.0,54.0,179.0,-986.0
12.0,47.0,-244.0,63.0,4.0,-13.0,51.0,182.0,-983.0
10.0,50.0,-243.0,63.0,6.0,-13.0,56.0,181.0,-988.0
10.0,50.0,-243.0,63.0,10.0,-11.0,53.0,181.0,-989.0
14.0,47.0,-242.0,61.0,12.0,-12.0,53.0,180.0,-986.0
10.0,54.0,-245.0,63.0,11.0,-11.0,56.0,185.0,-993.0
13.0,48.0,-242.0,64.0,11.0,-12.0,55.0,180.0,-989.0
12.0,46.0,-245.0,63.0,10.0,-11.0,58.0,180.0,-983.0
13.0,50.0,-242.0,62.0,9.0,-11.0,57.0,179.0,-991.0
9.0,51.0,-246.0,61.0,9.0,-11.0,57.0,182.0,-989.0
14.0,49.0,-243.0,66.0,2.0,-11.0,68.0,181.0,-989.0
9.0,48.0,-241.0,67.0,-2.0,-13.0,52.0,171.0,-981.0
9.0,51.0,-249.0,61.0,3.0,-12.0,51.0,177.0,-987.0
7.0,50.0,-245.0,58.0,3.0,-11.0,51.0,177.0,-988.0
11.0,47.0,-246.0,58.0,5.0,-12.0,50.0,179.0,-986.0
9.0,53.0,-246.0,57.0,7.0,-11.0,54.0,181.0,-987.0
9.0,47.0,-243.0,59.0,11.0,-12.0,49.0,176.0,-992.0
9.0,51.0,-243.0,59.0,13.0,-12.0,51.0,176.0,-993.0
9.0,50.0,-246.0,60.0,13.0,-10.0,54.0,176.0,-996.0
11.0,49.0,-243.0,61.0,13.0,-12.0,50.0,180.0,-1000.0
9.0,49.0,-244.0,63.0,13.0,-11.0,50.0,180.0,-1000.0
10.0,49.0,-243.0,66.0,12.0,-11.0,54.0,182.0,-994.0
13.0,48.0,-246.0,68.0,14.0,-10.0,54.0,181.0,-996.0
9.0,51.0,-242.0,70.0,15.0,-11.0,55.0,179.0,-995.0
14.0,47.0,-245.0,70.0,16.0,-12.0,56.0,183.0,-989.0
12.0,50.0,-247.0,70.0,17.0,-12.0,52.0,182.0,-993.0
15.0,53.0,-248.0,70.0,15.0,-13.0,59.0,192.0,-990.0
