acc1_x,acc1_y,acc1_z,gyro_x,gyro_y,gyro_z,acc2_x,acc2_y,acc2_z
21.0,-251.0,-24.0,47.0,43.0,-17.0,61.0,-1023.0,-76.0
19.0,-250.0,-30.0,46.0,41.0,-15.0,65.0,-1024.0,-74.0
21.0,-249.0,-22.0,44.0,39.0,-12.0,66.0,-1020.0,-77.0
20.0,-251.0,-20.0,44.0,39.0,-11.0,63.0,-1025.0,-74.0
21.0,-249.0,-25.0,43.0,37.0,-12.0,66.0,-1021.0,-74.0
20.0,-251.0,-27.0,44.0,35.0,-10.0,66.0,-1020.0,-74.0
18.0,-251.0,-30.0,45.0,32.0,-8.0,74.0,-1030.0,-78.0
22.0,-252.0,-27.0,47.0,32.0,-11.0,71.0,-1024.0,-75.0
23.0,-251.0,-27.0,48.0,28.0,-12.0,76.0,-1027.0,-80.0
21.0,-254.0,-30.0,49.0,25.0,-10.0,74.0,-1027.0,-79.0
20.0,-252.0,-30.0,49.0,26.0,-10.0,77.0,-1024.0,-85.0
21.0,-249.0,-28.0,49.0,25.0,-12.0,79.0,-1029.0,-79.0
20.0,-251.0,-26.0,51.0,24.0,-12.0,79.0,-1025.0,-83.0
22.0,-252.0,-25.0,51.0,24.0,-15.0,77.0,-1032.0,-82.0
21.0,-253.0,-28.0,50.0,25.0,-16.0,77.0,-1024.0,-83.0
16.0,-250.0,-30.0,50.0,25.0,-15.0,79.0,-1028.0,-82.0
24.0,-250.0,-20.0,49.0,23.0,-16.0,76.0,-1026.0,-88.0
18.0,-249.0,-28.0,49.0,22.0,-15.0,77.0,-1026.0,-81.0
20.0,-252.0,-31.0,49.0,21.0,-13.0,77.0,-1024.0,-79.0
19.0,-250.0,-28.0,49.0,20.0,-14.0,76.0,-1023.0,-85.0
21.0,-252.0,-27.0,48.0,19.0,-13.0,75.0,-1027.0,-85.0
18.0,-254.0,-27.0,48.0,16.0,-13.0,76.0,-1031.0,-86.0
20.0,-253.0,-28.0,48.0,15.0,-14.0,72.0,-1029.0,-85.0
19.0,-255.0,-30.0,49.0,13.0,-13.0,71.0,-1032.0,-83.0
20.0,-251.0,-29.0,49.0,11.0,-13.0,74.0,-1028.0,-86.0
20.0,-257.0,-27.0,49.0,8.0,-9.0,74.0,-1029.0,-83.0
21.0,-249.0,-23.0,49.0,4.0,-10.0,71.0,-1025.0,-84.0
21.0,-251.0,-30.0,51.0,2.0,-8.0,73.0,-1028.0,-86.0
21.0,-249.0,-29.0,49.0,0.0,-7.0,68.0,-1030.0,-91.0
20.0,-249.0,-27.0,49.0,-2.0,-6.0,73.0,-1024.0,-84.0
20.0,-251.0,-30.0,47.0,-5.0,-5.0,74.0,-1021.0,-83.0
22.0,-251.0,-29.0,47.0,-6.0,-5.0,74.0,-1027.0,-86.0
20.0,-252.0,-29.0,45.0,-8.0,-5.0,68.0,-1024.0,-83.0
20.0,-250.0,-25.0,47.0,-8.0,-6.0,74.0,-1025.0,-83.0
21.0,-250.0,-32.0,48.0,-11.0,-6.0,71.0,-1031.0,-84.0
23.0,-249.0,-29.0,47.0,-12.0,-6.0,78.0,-1026.0,-84.0
19.0,-252.0,-24.0,47.0,-15.0,-6.0,71.0,-1029.0,-79.0
13.0,-253.0,-32.0,49.0,-15.0,-6.0,75.0,-1027.0,-78.0
21.0,-252.0,-26.0,50.0,-17.0,-6.0,74.0,-1030.0,-80.0
20.0,-247.0,-29.0,50.0,-20.0,-7.0,77.0,-1022.0,-86.0
20.0,-250.0,-23.0,51.0,-22.0,-7.0,77.0,-1018.0,-81.0
22.0,-249.0,-24.0,52.0,-25.0,-6.0,72.0,-1019.0,-82.0
21.0,-248.0,-28.0,53.0,-26.0,-6.0,72.0,-1019.0,-79.0
19.0,-249.0,-27.0,54.0,-29.0,-4.0,66.0,-1022.0,-79.0
18.0,-249.0,-24.0,54.0,-33.0,-5.0,67.0,-1021.0,-77.0
20.0,-247.0,-23.0,54.0,-37.0,-3.0,69.0,-1030.0,-80.0
18.0,-250.0,-27.0,54.0,-42.0,-4.0,55.0,-1027.0,-76.0
19.0,-251.0,-29.0,52.0,-44.0,-4.0,63.0,-1029.0,-79.0
19.0,-251.0,-27.0,51.0,-44.0,-2.0,64.0,-1030.0,-82.0
21.0,-251.0,-29.0,49.0,-44.0,-3.0,63.0,-1035.0,-79.0
20.0,-253.0,-29.0,48.0,-41.0,-4.0,69.0,-1036.0,-81.0
21.0,-252.0,-27.0,48.0,-39.0,-4.0,76.0,-1031.0,-82.0
22.0,-255.0,-28.0,48.0,-36.0,-6.0,77.0,-1034.0,-79.0
21.0,-250.0,-30.0,46.0,-34.0,-6.0,73.0,-1023.0,-79.0
19.0,-251.0,-25.0,47.0,-30.0,-4.0,80.0,-1025.0,-82.0
21.0,-249.0,-26.0,49.0,-26.0,-4.0,75.0,-1020.0,-77.0
19.0,-250.0,-27.0,50.0,-24.0,-2.0,75.0,-1030.0,-76.0
21.0,-252.0,-26.0,51.0,-20.0,-3.0,72.0,-1033.0,-76.0
20.0,-255.0,-24.0,52.0,-19.0,0.0,73.0,-1035.0,-69.0
19.0,-255.0,-23.0,55.0,-17.0,2.0,76.0,-1036.0,-65.0
23.0,-254.0,-27.0,58.0,-16.0,5.0,76.0,-1036.0,-71.0
22.0,-256.0,-22.0,62.0,-14.0,6.0,76.0,-1046.0,-65.0
20.0,-254.0,-22.0,63.0,-11.0,9.0,73.0,-1044.0,-61.0
22.0,-257.0,-20.0,66.0,-11.0,12.0,75.0,-1039.0,-61.0
20.0,-254.0,-24.0,68.0,-10.0,10.0,69.0,-1036.0,-58.0
24.0,-254.0,-21.0,71.0,-9.0,12.0,71.0,-1039.0,-56.0
17.0,-252.0,-17.0,75.0,-10.0,13.0,61.0,-1035.0,-56.0
17.0,-250.0,-21.0,78.0,-11.0,15.0,63.0,-1033.0,-50.0
20.0,-251.0,-19.0,83.0,-11.0,16.0,58.0,-1032.0,-56.0
14.0,-250.0,-20.0,86.0,-9.0,18.0,51.0,-1024.0,-52.0
17.0,-247.0,-23.0,86.0,-7.0,17.0,52.0,-1019.0,-62.0
18.0,-247.0,-20.0,82.0,-4.0,15.0,51.0,-1016.0,-59.0
17.0,-246.0,-21.0,79.0,-3.0,15.0,52.0,-1014.0,-61.0
15.0,-247.0,-21.0,75.0,0.0,15.0,47.0,-1016.0,-61.0
15.0,-249.0,-20.0,70.0,3.0,14.0,51.0,-1013.0,-57.0
17.0,-247.0,-19.0,67.0,6.0,12.0,54.0,-1016.0,-54.0
14.0,-244.0,-24.0,66.0,8.0,10.0,54.0,-1020.0,-47.0
17.0,-249.0,-20.0,65.0,10.0,9.0,56.0,-1026.0,-57.0
14.0,-250.0,-20.0,65.0,13.0,6.0,64.0,-1027.0,-55.0
10.0,-249.0,-24.0,66.0,15.0,7.0,60.0,-1024.0,-55.0
16.0,-249.0,-23.0,67.0,16.0,6.0,64.0,-1028.0,-49.0
20.0,-251.0,-22.0,69.0,16.0,5.0,62.0,-1019.0,-52.0
19.0,-248.0,-18.0,70.0,17.0,4.0,63.0,-1022.0,-56.0
19.0,-249.0,-23.0,71.0,17.0,4.0,65.0,-1024.0,-49.0
19.0,-252.0,-20.0,72.0,14.0,6.0,69.0,-1025.0,-56.0
18.0,-250.0,-20.0,71.0,13.0,7.0,62.0,-1023.0,-56.0
19.0,-251.0,-17.0,71.0,12.0,7.0,66.0,-1023.0,-49.0
16.0,-247.0,-20.0,72.0,11.0,7.0,59.0,-1027.0,-59.0
16.0,-250.0,-20.0,73.0,8.0,10.0,66.0,-1029.0,-57.0
18.0,-253.0,-22.0,73.0,4.0,10.0,59.0,-1020.0,-63.0
19.0,-249.0,-24.0,73.0,3.0,12.0,56.0,-1024.0,-67.0
15.0,-248.0,-26.0,73.0,0.0,13.0,57.0,-1028.0,-62.0
16.0,-252.0,-22.0,72.0,-2.0,14.0,56.0,-1023.0,-67.0
16.0,-254.0,-23.0,73.0,-3.0,13.0,50.0,-1031.0,-72.0
17.0,-250.0,-23.0,72.0,-4.0,14.0,54.0,-1026.0,-70.0
15.0,-250.0,-20.0,71.0,-7.0,15.0,50.0,-1029.0,-75.0
16.0,-253.0,-21.0,69.0,-9.0,16.0,51.0,-1026.0,-71.0
19.0,-253.0,-21.0,68.0,-9.0,16.0,57.0,-1032.0,-78.0
16.0,-252.0,-25.0,65.0,-11.0,15.0,55.0,-1033.0,-75.0
17.0,-254.0,-29.0,61.0,-14.0,14.0,57.0,-1028.0,-79.0
14.0,-248.0,-25.0,58.0,-17.0,14.0,57.0,-1032.0,-80.0
18.0,-253.0,-32.0,56.0,-20.0,14.0,60.0,-1024.0,-87.0
18.0,-252.0,-30.0,54.0,-23.0,14.0,59.0,-1023.0,-82.0
15.0,-250.0,-30.0,50.0,-26.0,13.0,55.0,-1024.0,-91.0
16.0,-249.0,-30.0,45.0,-29.0,12.0,58.0,-1029.0,-86.0
16.0,-252.0,-32.0,41.0,-32.0,12.0,58.0,-1024.0,-98.0
15.0,-250.0,-31.0,38.0,-34.0,12.0,57.0,-1028.0,-101.0
20.0,-254.0,-35.0,36.0,-35.0,10.0,60.0,-1028.0,-92.0
17.0,-255.0,-34.0,33.0,-37.0,11.0,66.0,-1034.0,-95.0
19.0,-253.0,-31.0,31.0,-38.0,10.0,62.0,-1035.0,-95.0
25.0,-247.0,-35.0,27.0,-39.0,9.0,62.0,-1037.0,-101.0
17.0,-251.0,-32.0,25.0,-43.0,9.0,59.0,-1030.0,-101.0
18.0,-254.0,-38.0,26.0,-47.0,9.0,58.0,-1037.0,-102.0
16.0,-253.0,-31.0,27.0,-52.0,7.0,63.0,-1036.0,-104.0
18.0,-254.0,-32.0,26.0,-56.0,5.0,60.0,-1036.0,-105.0
15.0,-252.0,-35.0,26.0,-61.0,5.0,61.0,-1035.0,-102.0
14.0,-252.0,-33.0,25.0,-65.0,5.0,59.0,-1034.0,-101.0
17.0,-253.0,-36.0,25.0,-68.0,5.0,52.0,-1029.0,-101.0
16.0,-253.0,-31.0,28.0,-72.0,5.0,53.0,-1025.0,-97.0
14.0,-247.0,-30.0,29.0,-77.0,7.0,58.0,-1019.0,-95.0
16.0,-247.0,-31.0,27.0,-81.0,9.0,53.0,-1017.0,-96.0
14.0,-245.0,-33.0,27.0,-83.0,8.0,46.0,-1011.0,-100.0
13.0,-245.0,-30.0,25.0,-86.0,11.0,50.0,-1010.0,-103.0
15.0,-246.0,-33.0,20.0,-92.0,11.0,47.0,-1013.0,-96.0
11.0,-245.0,-35.0,12.0,-98.0,13.0,47.0,-1006.0,-95.0
13.0,-244.0,-32.0,4.0,-105.0,16.0,47.0,-1005.0,-98.0
12.0,-246.0,-30.0,-4.0,-112.0,17.0,43.0,-1009.0,-93.0
15.0,-245.0,-31.0,-10.0,-117.0,18.0,39.0,-1007.0,-93.0
14.0,-247.0,-30.0,-17.0,-123.0,18.0,46.0,-1002.0,-95.0
19.0,-244.0,-28.0,-24.0,-128.0,16.0,50.0,-1002.0,-97.0
18.0,-242.0,-32.0,-33.0,-132.0,14.0,50.0,-999.0,-90.0
13.0,-243.0,-30.0,-41.0,-137.0,14.0,48.0,-998.0,-92.0
13.0,-239.0,-31.0,-48.0,-141.0,13.0,51.0,-994.0,-91.0
17.0,-240.0,-29.0,-54.0,-145.0,13.0,47.0,-991.0,-86.0
15.0,-241.0,-29.0,-61.0,-149.0,13.0,47.0,-995.0,-94.0
15.0,-242.0,-32.0,-68.0,-149.0,15.0,50.0,-989.0,-95.0
16.0,-244.0,-31.0,-73.0,-150.0,19.0,47.0,-989.0,-81.0
15.0,-242.0,-29.0,-77.0,-149.0,19.0,56.0,-994.0,-85.0
17.0,-247.0,-29.0,-79.0,-145.0,23.0,57.0,-1004.0,-79.0
22.0,-243.0,-26.0,-82.0,-139.0,20.0,75.0,-1002.0,-83.0
23.0,-240.0,-28.0,-84.0,-133.0,13.0,78.0,-994.0,-73.0
22.0,-245.0,-25.0,-82.0,-125.0,7.0,81.0,-1003.0,-76.0
24.0,-244.0,-26.0,-84.0,-120.0,-3.0,96.0,-1005.0,-72.0
23.0,-247.0,-30.0,-90.0,-114.0,-12.0,93.0,-1009.0,-82.0
24.0,-248.0,-25.0,-99.0,-106.0,-18.0,91.0,-1009.0,-83.0
23.0,-249.0,-28.0,-105.0,-100.0,-24.0,83.0,-1017.0,-83.0
25.0,-248.0,-28.0,-107.0,-91.0,-31.0,90.0,-1022.0,-79.0
27.0,-252.0,-25.0,-107.0,-83.0,-36.0,93.0,-1037.0,-84.0
27.0,-251.0,-30.0,-106.0,-72.0,-40.0,93.0,-1025.0,-82.0
26.0,-247.0,-30.0,-108.0,-60.0,-43.0,92.0,-1021.0,-85.0
29.0,-244.0,-32.0,-107.0,-46.0,-45.0,95.0,-1014.0,-94.0
27.0,-245.0,-34.0,-109.0,-33.0,-47.0,99.0,-1006.0,-102.0
26.0,-244.0,-32.0,-112.0,-20.0,-45.0,102.0,-1007.0,-104.0
28.0,-248.0,-34.0,-116.0,-6.0,-40.0,102.0,-1010.0,-103.0
32.0,-248.0,-32.0,-123.0,9.0,-32.0,105.0,-1015.0,-104.0
31.0,-248.0,-34.0,-132.0,20.0,-23.0,107.0,-1019.0,-107.0
32.0,-249.0,-36.0,-141.0,30.0,-16.0,112.0,-1022.0,-102.0
31.0,-250.0,-32.0,-146.0,40.0,-10.0,112.0,-1031.0,-107.0
31.0,-252.0,-36.0,-149.0,48.0,-6.0,107.0,-1021.0,-107.0
31.0,-247.0,-37.0,-151.0,55.0,-6.0,111.0,-1015.0,-112.0
30.0,-248.0,-36.0,-148.0,59.0,-6.0,108.0,-1009.0,-121.0
26.0,-246.0,-39.0,-149.0,60.0,-6.0,100.0,-1003.0,-125.0
25.0,-247.0,-42.0,-150.0,59.0,-7.0,90.0,-1004.0,-140.0
22.0,-245.0,-42.0,-153.0,59.0,-11.0,84.0,-1004.0,-134.0
19.0,-241.0,-40.0,-158.0,58.0,-11.0,78.0,-1008.0,-141.0
16.0,-246.0,-43.0,-163.0,56.0,-10.0,73.0,-1005.0,-145.0
17.0,-243.0,-43.0,-170.0,55.0,-13.0,58.0,-1001.0,-144.0
14.0,-245.0,-43.0,-176.0,54.0,-11.0,48.0,-1006.0,-143.0
15.0,-244.0,-42.0,-180.0,53.0,-10.0,43.0,-998.0,-144.0
13.0,-241.0,-43.0,-183.0,48.0,-11.0,41.0,-1000.0,-149.0
12.0,-244.0,-49.0,-179.0,45.0,-10.0,38.0,-992.0,-151.0
12.0,-242.0,-48.0,-180.0,42.0,-9.0,43.0,-1001.0,-153.0
12.0,-245.0,-48.0,-183.0,39.0,-8.0,42.0,-995.0,-156.0
13.0,-242.0,-49.0,-185.0,35.0,-6.0,42.0,-993.0,-160.0
11.0,-244.0,-52.0,-190.0,33.0,-5.0,33.0,-993.0,-165.0
12.0,-242.0,-51.0,-196.0,33.0,-6.0,38.0,-992.0,-166.0
12.0,-238.0,-51.0,-202.0,33.0,-7.0,38.0,-991.0,-174.0
11.0,-240.0,-52.0,-208.0,32.0,-9.0,45.0,-995.0,-166.0
11.0,-241.0,-50.0,-213.0,33.0,-12.0,39.0,-993.0,-177.0
11.0,-243.0,-54.0,-220.0,33.0,-15.0,37.0,-986.0,-183.0
12.0,-243.0,-49.0,-225.0,32.0,-20.0,44.0,-990.0,-183.0
10.0,-238.0,-53.0,-233.0,30.0,-25.0,44.0,-981.0,-187.0
11.0,-238.0,-54.0,-241.0,30.0,-30.0,45.0,-985.0,-186.0
11.0,-240.0,-51.0,-251.0,28.0,-35.0,46.0,-980.0,-171.0
12.0,-242.0,-53.0,-259.0,24.0,-36.0,36.0,-984.0,-184.0
9.0,-232.0,-56.0,-264.0,18.0,-38.0,41.0,-974.0,-171.0
2.0,-234.0,-56.0,-268.0,11.0,-39.0,45.0,-977.0,-186.0
12.0,-237.0,-53.0,-270.0,4.0,-39.0,42.0,-971.0,-180.0
12.0,-236.0,-53.0,-273.0,-2.0,-38.0,36.0,-961.0,-188.0
8.0,-229.0,-55.0,-280.0,-10.0,-40.0,36.0,-954.0,-194.0
10.0,-230.0,-55.0,-288.0,-17.0,-38.0,42.0,-949.0,-194.0
10.0,-230.0,-59.0,-298.0,-25.0,-36.0,37.0,-945.0,-192.0
9.0,-230.0,-51.0,-307.0,-30.0,-32.0,44.0,-944.0,-191.0
12.0,-230.0,-49.0,-315.0,-37.0,-29.0,38.0,-944.0,-187.0
15.0,-229.0,-54.0,-322.0,-41.0,-28.0,44.0,-950.0,-193.0
10.0,-232.0,-51.0,-324.0,-44.0,-25.0,40.0,-952.0,-189.0
16.0,-237.0,-50.0,-323.0,-52.0,-24.0,37.0,-965.0,-185.0
11.0,-239.0,-52.0,-318.0,-60.0,-22.0,37.0,-971.0,-181.0
11.0,-240.0,-54.0,-310.0,-68.0,-19.0,41.0,-984.0,-179.0
12.0,-243.0,-53.0,-304.0,-78.0,-15.0,34.0,-988.0,-184.0
12.0,-250.0,-53.0,-300.0,-91.0,-13.0,35.0,-987.0,-180.0
8.0,-245.0,-53.0,-298.0,-102.0,-7.0,18.0,-995.0,-186.0
4.0,-245.0,-52.0,-296.0,-116.0,-2.0,17.0,-1003.0,-183.0
5.0,-242.0,-53.0,-297.0,-131.0,4.0,22.0,-996.0,-187.0
6.0,-243.0,-58.0,-297.0,-143.0,8.0,20.0,-994.0,-189.0
5.0,-240.0,-57.0,-298.0,-153.0,13.0,11.0,-990.0,-201.0
2.0,-242.0,-57.0,-301.0,-165.0,18.0,13.0,-989.0,-201.0
4.0,-242.0,-58.0,-309.0,-177.0,21.0,15.0,-991.0,-209.0
0.0,-244.0,-59.0,-318.0,-190.0,26.0,18.0,-991.0,-209.0
5.0,-242.0,-59.0,-328.0,-202.0,31.0,23.0,-993.0,-206.0
7.0,-245.0,-58.0,-338.0,-214.0,31.0,24.0,-998.0,-201.0
5.0,-243.0,-56.0,-347.0,-223.0,35.0,20.0,-1001.0,-197.0
6.0,-244.0,-60.0,-351.0,-233.0,36.0,24.0,-1003.0,-198.0
9.0,-243.0,-53.0,-351.0,-239.0,38.0,27.0,-1004.0,-191.0
8.0,-242.0,-58.0,-349.0,-243.0,38.0,32.0,-994.0,-200.0
12.0,-242.0,-54.0,-347.0,-241.0,37.0,27.0,-990.0,-200.0
12.0,-240.0,-58.0,-345.0,-236.0,36.0,43.0,-994.0,-209.0
10.0,-242.0,-59.0,-343.0,-228.0,37.0,42.0,-999.0,-208.0
16.0,-244.0,-51.0,-343.0,-220.0,35.0,52.0,-1006.0,-216.0
17.0,-244.0,-64.0,-341.0,-210.0,36.0,56.0,-999.0,-217.0
20.0,-245.0,-65.0,-337.0,-202.0,34.0,65.0,-1005.0,-228.0
19.0,-242.0,-66.0,-330.0,-197.0,33.0,77.0,-993.0,-239.0
22.0,-240.0,-72.0,-323.0,-192.0,29.0,77.0,-985.0,-246.0
23.0,-237.0,-68.0,-317.0,-187.0,29.0,86.0,-977.0,-256.0
23.0,-236.0,-67.0,-313.0,-186.0,28.0,89.0,-974.0,-268.0
22.0,-233.0,-70.0,-309.0,-188.0,27.0,89.0,-961.0,-267.0
19.0,-231.0,-74.0,-305.0,-189.0,25.0,82.0,-947.0,-262.0
22.0,-225.0,-70.0,-302.0,-193.0,25.0,78.0,-937.0,-263.0
19.0,-224.0,-71.0,-298.0,-197.0,24.0,80.0,-926.0,-261.0
18.0,-221.0,-71.0,-298.0,-203.0,23.0,67.0,-914.0,-253.0
15.0,-218.0,-67.0,-300.0,-210.0,26.0,56.0,-897.0,-258.0
11.0,-213.0,-67.0,-303.0,-218.0,26.0,47.0,-884.0,-257.0
13.0,-210.0,-66.0,-310.0,-224.0,29.0,45.0,-875.0,-253.0
10.0,-213.0,-66.0,-320.0,-227.0,29.0,42.0,-871.0,-243.0
11.0,-216.0,-67.0,-328.0,-232.0,30.0,29.0,-882.0,-230.0
13.0,-215.0,-65.0,-331.0,-237.0,32.0,45.0,-884.0,-225.0
14.0,-217.0,-62.0,-342.0,-238.0,29.0,50.0,-887.0,-226.0
17.0,-222.0,-62.0,-363.0,-235.0,26.0,55.0,-903.0,-226.0
17.0,-220.0,-64.0,-377.0,-229.0,25.0,59.0,-930.0,-232.0
17.0,-231.0,-66.0,-392.0,-222.0,25.0,69.0,-946.0,-245.0
22.0,-230.0,-68.0,-410.0,-214.0,25.0,77.0,-961.0,-244.0
22.0,-235.0,-71.0,-428.0,-207.0,22.0,90.0,-975.0,-260.0
24.0,-241.0,-74.0,-440.0,-196.0,22.0,93.0,-981.0,-261.0
27.0,-237.0,-73.0,-446.0,-187.0,20.0,92.0,-991.0,-262.0
26.0,-242.0,-75.0,-448.0,-179.0,18.0,99.0,-995.0,-267.0
24.0,-246.0,-71.0,-444.0,-175.0,16.0,97.0,-989.0,-271.0
22.0,-235.0,-76.0,-435.0,-172.0,14.0,95.0,-991.0,-274.0
29.0,-242.0,-74.0,-428.0,-168.0,12.0,104.0,-989.0,-286.0
24.0,-236.0,-75.0,-424.0,-164.0,7.0,92.0,-986.0,-299.0
26.0,-238.0,-81.0,-423.0,-160.0,5.0,92.0,-981.0,-310.0
21.0,-236.0,-83.0,-423.0,-159.0,1.0,86.0,-977.0,-312.0
14.0,-229.0,-83.0,-422.0,-159.0,-2.0,76.0,-973.0,-313.0
24.0,-231.0,-77.0,-419.0,-159.0,-5.0,73.0,-970.0,-313.0
14.0,-236.0,-85.0,-417.0,-161.0,-6.0,59.0,-974.0,-314.0
12.0,-238.0,-86.0,-414.0,-164.0,-4.0,54.0,-979.0,-317.0
9.0,-240.0,-85.0,-413.0,-166.0,-1.0,45.0,-991.0,-321.0
8.0,-244.0,-86.0,-414.0,-165.0,0.0,37.0,-1001.0,-324.0
11.0,-248.0,-87.0,-414.0,-162.0,2.0,33.0,-1009.0,-326.0
10.0,-249.0,-88.0,-414.0,-156.0,1.0,29.0,-1011.0,-327.0
9.0,-248.0,-89.0,-416.0,-150.0,0.0,34.0,-1015.0,-334.0
11.0,-248.0,-90.0,-417.0,-141.0,0.0,37.0,-1014.0,-336.0
7.0,-248.0,-93.0,-415.0,-132.0,1.0,41.0,-1019.0,-337.0
11.0,-251.0,-92.0,-410.0,-127.0,-1.0,47.0,-1014.0,-340.0
11.0,-248.0,-91.0,-402.0,-125.0,-3.0,49.0,-1015.0,-352.0
11.0,-244.0,-93.0,-391.0,-125.0,-3.0,54.0,-1010.0,-355.0
14.0,-246.0,-97.0,-380.0,-127.0,-3.0,55.0,-1001.0,-355.0
13.0,-245.0,-95.0,-366.0,-129.0,-6.0,51.0,-993.0,-359.0
13.0,-243.0,-97.0,-353.0,-132.0,-8.0,53.0,-992.0,-363.0
12.0,-242.0,-96.0,-341.0,-129.0,-7.0,53.0,-983.0,-366.0
9.0,-240.0,-95.0,-332.0,-128.0,-10.0,46.0,-987.0,-371.0
10.0,-238.0,-100.0,-326.0,-127.0,-11.0,40.0,-973.0,-362.0
10.0,-236.0,-97.0,-321.0,-127.0,-12.0,40.0,-977.0,-367.0
9.0,-237.0,-96.0,-317.0,-126.0,-13.0,37.0,-975.0,-365.0
12.0,-235.0,-100.0,-312.0,-124.0,-17.0,38.0,-971.0,-367.0
10.0,-236.0,-100.0,-308.0,-124.0,-17.0,35.0,-964.0,-362.0
8.0,-234.0,-100.0,-304.0,-118.0,-21.0,33.0,-963.0,-369.0
9.0,-230.0,-101.0,-303.0,-113.0,-21.0,42.0,-961.0,-372.0
13.0,-232.0,-97.0,-302.0,-104.0,-23.0,43.0,-955.0,-374.0
15.0,-232.0,-97.0,-302.0,-94.0,-23.0,51.0,-946.0,-369.0
17.0,-227.0,-99.0,-299.0,-88.0,-22.0,60.0,-932.0,-366.0
18.0,-228.0,-99.0,-296.0,-81.0,-20.0,66.0,-925.0,-357.0
16.0,-223.0,-94.0,-291.0,-77.0,-18.0,61.0,-916.0,-360.0
17.0,-222.0,-96.0,-290.0,-74.0,-16.0,71.0,-912.0,-360.0
16.0,-221.0,-98.0,-291.0,-73.0,-16.0,63.0,-896.0,-365.0
16.0,-217.0,-94.0,-291.0,-75.0,-14.0,60.0,-896.0,-360.0
14.0,-218.0,-96.0,-292.0,-79.0,-13.0,56.0,-894.0,-353.0
13.0,-218.0,-94.0,-292.0,-79.0,-13.0,46.0,-895.0,-358.0
12.0,-217.0,-93.0,-293.0,-81.0,-15.0,40.0,-893.0,-359.0
4.0,-218.0,-97.0,-297.0,-79.0,-18.0,33.0,-906.0,-366.0
4.0,-220.0,-102.0,-304.0,-79.0,-22.0,28.0,-908.0,-362.0
4.0,-219.0,-98.0,-315.0,-78.0,-25.0,15.0,-906.0,-371.0
2.0,-221.0,-98.0,-325.0,-78.0,-27.0,7.0,-910.0,-372.0
2.0,-219.0,-99.0,-335.0,-76.0,-30.0,3.0,-901.0,-375.0
1.0,-216.0,-100.0,-346.0,-70.0,-30.0,3.0,-909.0,-375.0
1.0,-222.0,-103.0,-356.0,-61.0,-31.0,3.0,-914.0,-390.0
1.0,-233.0,-115.0,-365.0,-52.0,-29.0,5.0,-919.0,-393.0
4.0,-227.0,-104.0,-371.0,-43.0,-29.0,13.0,-925.0,-396.0
2.0,-225.0,-104.0,-371.0,-32.0,-27.0,16.0,-934.0,-399.0
7.0,-229.0,-105.0,-366.0,-20.0,-21.0,27.0,-934.0,-399.0
10.0,-229.0,-102.0,-352.0,-14.0,-14.0,42.0,-944.0,-393.0
14.0,-228.0,-107.0,-334.0,-10.0,-9.0,55.0,-942.0,-392.0
15.0,-229.0,-105.0,-312.0,-12.0,-7.0,59.0,-941.0,-372.0
17.0,-231.0,-97.0,-286.0,-15.0,-10.0,66.0,-936.0,-370.0
16.0,-225.0,-97.0,-246.0,-24.0,-14.0,72.0,-933.0,-358.0
21.0,-222.0,-95.0,-213.0,-30.0,-17.0,73.0,-916.0,-354.0
20.0,-219.0,-94.0,-184.0,-35.0,-22.0,69.0,-893.0,-364.0
13.0,-213.0,-96.0,-173.0,-42.0,-25.0,57.0,-875.0,-365.0
13.0,-208.0,-98.0,-179.0,-46.0,-26.0,51.0,-856.0,-376.0
15.0,-209.0,-99.0,-198.0,-47.0,-26.0,40.0,-852.0,-379.0
7.0,-206.0,-102.0,-223.0,-43.0,-24.0,40.0,-855.0,-396.0
8.0,-208.0,-103.0,-250.0,-33.0,-24.0,36.0,-855.0,-399.0
7.0,-210.0,-105.0,-285.0,-22.0,-22.0,34.0,-865.0,-406.0
9.0,-209.0,-103.0,-316.0,-7.0,-19.0,39.0,-864.0,-413.0
11.0,-211.0,-111.0,-346.0,5.0,-13.0,40.0,-874.0,-428.0
15.0,-217.0,-115.0,-380.0,25.0,-6.0,44.0,-893.0,-433.0
17.0,-221.0,-114.0,-410.0,47.0,-5.0,55.0,-908.0,-427.0
19.0,-225.0,-117.0,-421.0,62.0,-3.0,73.0,-932.0,-446.0
18.0,-231.0,-117.0,-430.0,71.0,-1.0,59.0,-958.0,-448.0
17.0,-237.0,-114.0,-437.0,78.0,3.0,71.0,-956.0,-437.0
19.0,-231.0,-115.0,-414.0,76.0,-2.0,81.0,-963.0,-437.0
16.0,-241.0,-114.0,-389.0,68.0,-4.0,55.0,-990.0,-434.0
14.0,-236.0,-108.0,-369.0,70.0,-3.0,53.0,-977.0,-418.0
15.0,-236.0,-108.0,-337.0,67.0,-9.0,50.0,-962.0,-414.0
11.0,-236.0,-108.0,-301.0,70.0,-13.0,40.0,-956.0,-415.0
7.0,-231.0,-111.0,-273.0,71.0,-17.0,45.0,-950.0,-415.0
14.0,-221.0,-112.0,-244.0,67.0,-24.0,54.0,-905.0,-414.0
1.0,-232.0,-116.0,-232.0,56.0,-28.0,-1.0,-968.0,-441.0
5.0,-227.0,-114.0,-246.0,60.0,-21.0,26.0,-936.0,-430.0
8.0,-226.0,-113.0,-241.0,62.0,-26.0,34.0,-929.0,-436.0
6.0,-223.0,-115.0,-234.0,64.0,-29.0,35.0,-924.0,-437.0
8.0,-224.0,-117.0,-234.0,67.0,-31.0,37.0,-920.0,-452.0
10.0,-219.0,-121.0,-237.0,74.0,-33.0,42.0,-908.0,-457.0
8.0,-219.0,-120.0,-243.0,79.0,-33.0,47.0,-904.0,-464.0
27.0,-202.0,-104.0,-248.0,83.0,-34.0,80.0,-815.0,-412.0
8.0,-231.0,-129.0,-240.0,75.0,-42.0,30.0,-951.0,-506.0
14.0,-226.0,-126.0,-279.0,87.0,-28.0,45.0,-935.0,-472.0
12.0,-224.0,-121.0,-292.0,92.0,-27.0,55.0,-909.0,-465.0
14.0,-231.0,-130.0,-275.0,89.0,-28.0,50.0,-956.0,-505.0
10.0,-240.0,-130.0,-278.0,87.0,-25.0,37.0,-957.0,-495.0
10.0,-231.0,-125.0,-278.0,85.0,-21.0,47.0,-943.0,-474.0
5.0,-235.0,-128.0,-259.0,71.0,-24.0,26.0,-965.0,-480.0
3.0,-235.0,-120.0,-249.0,56.0,-27.0,16.0,-959.0,-465.0
1.0,-231.0,-116.0,-229.0,39.0,-32.0,6.0,-940.0,-454.0
0.0,-226.0,-115.0,-197.0,19.0,-38.0,7.0,-933.0,-438.0
-1.0,-223.0,-116.0,-168.0,4.0,-42.0,0.0,-916.0,-436.0
1.0,-218.0,-111.0,-154.0,-4.0,-43.0,0.0,-890.0,-435.0
0.0,-213.0,-114.0,-146.0,-9.0,-45.0,3.0,-867.0,-433.0
3.0,-205.0,-106.0,-142.0,-8.0,-45.0,8.0,-845.0,-437.0
6.0,-203.0,-115.0,-149.0,-4.0,-44.0,22.0,-838.0,-436.0
13.0,-197.0,-118.0,-166.0,0.0,-43.0,36.0,-816.0,-441.0
9.0,-194.0,-115.0,-191.0,3.0,-41.0,46.0,-810.0,-451.0
12.0,-194.0,-117.0,-224.0,6.0,-38.0,58.0,-804.0,-456.0
19.0,-194.0,-120.0,-268.0,6.0,-37.0,72.0,-804.0,-460.0
20.0,-196.0,-120.0,-311.0,8.0,-33.0,78.0,-810.0,-469.0
25.0,-201.0,-120.0,-349.0,8.0,-30.0,87.0,-824.0,-465.0
20.0,-205.0,-124.0,-379.0,10.0,-30.0,74.0,-852.0,-473.0
19.0,-208.0,-121.0,-404.0,10.0,-28.0,76.0,-852.0,-473.0
19.0,-213.0,-120.0,-420.0,7.0,-27.0,67.0,-867.0,-468.0
14.0,-215.0,-120.0,-427.0,1.0,-26.0,57.0,-874.0,-467.0
9.0,-199.0,-122.0,-425.0,-6.0,-24.0,49.0,-872.0,-466.0
15.0,-212.0,-123.0,-418.0,-12.0,-21.0,38.0,-875.0,-462.0
7.0,-211.0,-119.0,-410.0,-14.0,-20.0,35.0,-870.0,-467.0
4.0,-210.0,-122.0,-399.0,-17.0,-17.0,31.0,-871.0,-471.0
7.0,-209.0,-125.0,-393.0,-20.0,-15.0,32.0,-870.0,-483.0
6.0,-209.0,-122.0,-394.0,-20.0,-10.0,31.0,-866.0,-494.0
6.0,-206.0,-127.0,-400.0,-23.0,-7.0,38.0,-853.0,-503.0
12.0,-207.0,-129.0,-404.0,-27.0,-5.0,47.0,-857.0,-510.0
15.0,-212.0,-131.0,-413.0,-24.0,-4.0,55.0,-868.0,-509.0
15.0,-215.0,-132.0,-421.0,-19.0,-4.0,62.0,-883.0,-513.0
16.0,-210.0,-131.0,-430.0,-10.0,-1.0,75.0,-869.0,-518.0
21.0,-210.0,-137.0,-437.0,-1.0,5.0,85.0,-875.0,-523.0
23.0,-211.0,-135.0,-446.0,3.0,11.0,87.0,-871.0,-519.0
23.0,-203.0,-135.0,-461.0,8.0,26.0,97.0,-850.0,-533.0
26.0,-217.0,-129.0,-484.0,9.0,39.0,106.0,-888.0,-519.0
23.0,-220.0,-132.0,-481.0,9.0,37.0,93.0,-894.0,-514.0
23.0,-219.0,-131.0,-455.0,1.0,34.0,89.0,-894.0,-512.0
19.0,-214.0,-130.0,-416.0,-8.0,31.0,77.0,-891.0,-510.0
13.0,-213.0,-135.0,-375.0,-20.0,27.0,73.0,-882.0,-524.0
15.0,-211.0,-136.0,-340.0,-31.0,29.0,67.0,-871.0,-529.0
13.0,-212.0,-134.0,-320.0,-42.0,34.0,54.0,-867.0,-535.0
11.0,-211.0,-141.0,-307.0,-55.0,41.0,46.0,-854.0,-540.0
7.0,-208.0,-137.0,-305.0,-66.0,52.0,33.0,-843.0,-548.0
6.0,-202.0,-142.0,-311.0,-74.0,62.0,32.0,-836.0,-549.0
3.0,-198.0,-138.0,-321.0,-80.0,72.0,30.0,-834.0,-557.0
6.0,-201.0,-145.0,-329.0,-85.0,77.0,31.0,-828.0,-562.0
7.0,-199.0,-145.0,-341.0,-86.0,85.0,29.0,-824.0,-571.0
8.0,-200.0,-147.0,-354.0,-85.0,93.0,35.0,-822.0,-580.0
11.0,-203.0,-147.0,-372.0,-83.0,97.0,50.0,-830.0,-576.0
14.0,-201.0,-149.0,-387.0,-79.0,98.0,51.0,-829.0,-578.0
16.0,-201.0,-152.0,-397.0,-80.0,98.0,66.0,-824.0,-582.0
19.0,-202.0,-146.0,-409.0,-81.0,99.0,72.0,-829.0,-578.0
21.0,-203.0,-149.0,-419.0,-84.0,99.0,82.0,-836.0,-580.0
16.0,-184.0,-151.0,-422.0,-92.0,94.0,72.0,-821.0,-601.0
24.0,-205.0,-146.0,-458.0,-105.0,108.0,93.0,-831.0,-576.0
17.0,-211.0,-144.0,-468.0,-111.0,109.0,75.0,-863.0,-568.0
10.0,-209.0,-147.0,-447.0,-124.0,97.0,57.0,-856.0,-585.0
14.0,-212.0,-146.0,-420.0,-136.0,89.0,53.0,-865.0,-574.0
11.0,-214.0,-147.0,-392.0,-149.0,90.0,39.0,-869.0,-585.0
10.0,-210.0,-150.0,-364.0,-157.0,90.0,35.0,-859.0,-589.0
8.0,-205.0,-153.0,-345.0,-165.0,95.0,29.0,-846.0,-604.0
3.0,-202.0,-151.0,-336.0,-167.0,102.0,30.0,-828.0,-594.0
7.0,-202.0,-155.0,-330.0,-172.0,110.0,27.0,-833.0,-605.0
7.0,-204.0,-155.0,-326.0,-177.0,109.0,28.0,-831.0,-608.0
7.0,-202.0,-161.0,-315.0,-179.0,105.0,37.0,-831.0,-618.0
5.0,-202.0,-163.0,-302.0,-177.0,105.0,42.0,-831.0,-629.0
11.0,-206.0,-160.0,-287.0,-177.0,105.0,51.0,-843.0,-627.0
15.0,-208.0,-167.0,-267.0,-175.0,99.0,57.0,-851.0,-630.0
13.0,-206.0,-158.0,-245.0,-170.0,91.0,69.0,-853.0,-633.0
18.0,-204.0,-159.0,-221.0,-165.0,82.0,74.0,-840.0,-627.0
18.0,-201.0,-159.0,-199.0,-161.0,79.0,79.0,-822.0,-621.0
21.0,-200.0,-158.0,-181.0,-159.0,73.0,93.0,-814.0,-617.0
22.0,-196.0,-160.0,-176.0,-156.0,67.0,89.0,-805.0,-616.0
21.0,-193.0,-152.0,-179.0,-155.0,65.0,89.0,-796.0,-610.0
18.0,-191.0,-153.0,-184.0,-154.0,62.0,81.0,-784.0,-610.0
18.0,-190.0,-155.0,-191.0,-151.0,63.0,76.0,-781.0,-603.0
15.0,-189.0,-153.0,-197.0,-148.0,65.0,61.0,-782.0,-611.0
15.0,-189.0,-152.0,-202.0,-145.0,68.0,63.0,-776.0,-618.0
11.0,-187.0,-156.0,-206.0,-142.0,73.0,55.0,-772.0,-620.0
11.0,-189.0,-156.0,-209.0,-136.0,78.0,47.0,-771.0,-623.0
10.0,-184.0,-161.0,-212.0,-129.0,86.0,42.0,-766.0,-632.0
7.0,-187.0,-159.0,-216.0,-123.0,92.0,39.0,-767.0,-629.0
8.0,-186.0,-164.0,-217.0,-117.0,100.0,33.0,-766.0,-638.0
4.0,-188.0,-160.0,-218.0,-113.0,107.0,30.0,-772.0,-636.0
7.0,-190.0,-160.0,-219.0,-110.0,112.0,31.0,-770.0,-633.0
10.0,-193.0,-164.0,-217.0,-109.0,118.0,36.0,-771.0,-640.0
8.0,-190.0,-163.0,-219.0,-106.0,123.0,38.0,-769.0,-641.0
8.0,-191.0,-159.0,-218.0,-104.0,127.0,47.0,-772.0,-646.0
12.0,-189.0,-165.0,-218.0,-98.0,128.0,50.0,-777.0,-645.0
15.0,-191.0,-166.0,-222.0,-94.0,127.0,55.0,-778.0,-637.0
17.0,-192.0,-164.0,-220.0,-85.0,126.0,70.0,-779.0,-651.0
16.0,-190.0,-163.0,-222.0,-74.0,123.0,68.0,-779.0,-641.0
19.0,-193.0,-166.0,-222.0,-63.0,124.0,78.0,-786.0,-649.0
17.0,-192.0,-168.0,-219.0,-53.0,120.0,71.0,-782.0,-655.0
19.0,-195.0,-164.0,-217.0,-42.0,120.0,79.0,-791.0,-648.0
18.0,-196.0,-165.0,-210.0,-29.0,119.0,78.0,-801.0,-647.0
17.0,-195.0,-160.0,-192.0,-15.0,114.0,77.0,-802.0,-648.0
20.0,-195.0,-163.0,-164.0,-1.0,111.0,74.0,-796.0,-641.0
16.0,-195.0,-162.0,-142.0,13.0,111.0,71.0,-794.0,-642.0
15.0,-191.0,-161.0,-124.0,25.0,109.0,67.0,-790.0,-640.0
13.0,-191.0,-158.0,-113.0,33.0,111.0,57.0,-776.0,-636.0
15.0,-188.0,-165.0,-106.0,41.0,114.0,61.0,-766.0,-642.0
12.0,-186.0,-162.0,-110.0,47.0,122.0,53.0,-756.0,-642.0
9.0,-185.0,-163.0,-119.0,57.0,127.0,48.0,-750.0,-648.0
11.0,-182.0,-164.0,-125.0,66.0,132.0,47.0,-756.0,-648.0
10.0,-186.0,-163.0,-130.0,74.0,137.0,51.0,-753.0,-662.0
15.0,-186.0,-166.0,-138.0,81.0,142.0,49.0,-759.0,-661.0
12.0,-186.0,-171.0,-147.0,89.0,148.0,54.0,-749.0,-672.0
15.0,-188.0,-166.0,-165.0,92.0,156.0,69.0,-772.0,-665.0
17.0,-186.0,-169.0,-159.0,99.0,159.0,73.0,-766.0,-666.0
21.0,-188.0,-169.0,-155.0,105.0,160.0,76.0,-766.0,-660.0
20.0,-193.0,-170.0,-154.0,114.0,160.0,82.0,-789.0,-667.0
19.0,-197.0,-168.0,-148.0,117.0,158.0,81.0,-807.0,-662.0
18.0,-197.0,-168.0,-136.0,119.0,155.0,78.0,-815.0,-667.0
18.0,-203.0,-165.0,-123.0,120.0,153.0,71.0,-830.0,-649.0
16.0,-199.0,-166.0,-96.0,122.0,149.0,63.0,-821.0,-658.0
7.0,-198.0,-168.0,-67.0,122.0,147.0,51.0,-812.0,-662.0
8.0,-200.0,-167.0,-43.0,123.0,144.0,38.0,-818.0,-662.0
7.0,-198.0,-159.0,-11.0,124.0,145.0,29.0,-815.0,-670.0
4.0,-197.0,-171.0,27.0,122.0,147.0,20.0,-816.0,-667.0
2.0,-196.0,-170.0,62.0,117.0,146.0,14.0,-807.0,-673.0
-3.0,-193.0,-171.0,88.0,107.0,149.0,6.0,-798.0,-683.0
1.0,-193.0,-172.0,108.0,98.0,151.0,8.0,-794.0,-683.0
1.0,-187.0,-173.0,126.0,85.0,153.0,8.0,-775.0,-694.0
0.0,-185.0,-171.0,141.0,74.0,152.0,7.0,-766.0,-681.0
1.0,-187.0,-171.0,155.0,62.0,150.0,16.0,-757.0,-690.0
2.0,-187.0,-171.0,164.0,52.0,147.0,16.0,-761.0,-686.0
2.0,-186.0,-175.0,170.0,40.0,146.0,21.0,-757.0,-684.0
6.0,-187.0,-174.0,171.0,29.0,141.0,32.0,-760.0,-689.0
8.0,-184.0,-178.0,178.0,17.0,135.0,39.0,-755.0,-695.0
15.0,-187.0,-175.0,176.0,8.0,128.0,49.0,-758.0,-696.0
13.0,-182.0,-178.0,174.0,4.0,118.0,55.0,-738.0,-697.0
13.0,-184.0,-178.0,164.0,-1.0,109.0,57.0,-753.0,-694.0
10.0,-186.0,-174.0,165.0,-7.0,101.0,54.0,-758.0,-702.0
11.0,-183.0,-177.0,178.0,-14.0,95.0,55.0,-741.0,-700.0
11.0,-183.0,-177.0,183.0,-25.0,86.0,51.0,-749.0,-692.0
6.0,-180.0,-175.0,183.0,-33.0,80.0,40.0,-746.0,-691.0
8.0,-181.0,-176.0,185.0,-43.0,72.0,37.0,-734.0,-693.0
4.0,-181.0,-173.0,182.0,-51.0,65.0,33.0,-743.0,-687.0
2.0,-182.0,-172.0,180.0,-59.0,62.0,28.0,-746.0,-680.0
3.0,-183.0,-170.0,184.0,-70.0,59.0,21.0,-753.0,-677.0
1.0,-182.0,-170.0,196.0,-83.0,57.0,18.0,-747.0,-675.0
0.0,-182.0,-168.0,207.0,-99.0,55.0,20.0,-741.0,-669.0
0.0,-179.0,-165.0,211.0,-114.0,53.0,17.0,-746.0,-664.0
2.0,-180.0,-168.0,219.0,-126.0,52.0,18.0,-744.0,-667.0
4.0,-182.0,-168.0,227.0,-140.0,52.0,24.0,-733.0,-669.0
5.0,-175.0,-163.0,233.0,-152.0,52.0,33.0,-728.0,-664.0
7.0,-174.0,-172.0,235.0,-161.0,55.0,41.0,-724.0,-670.0
9.0,-175.0,-167.0,236.0,-171.0,56.0,36.0,-719.0,-673.0
7.0,-177.0,-165.0,235.0,-182.0,56.0,45.0,-721.0,-663.0
11.0,-178.0,-167.0,237.0,-192.0,58.0,51.0,-719.0,-664.0
9.0,-168.0,-176.0,242.0,-200.0,58.0,54.0,-711.0,-655.0
4.0,-170.0,-168.0,242.0,-207.0,57.0,56.0,-703.0,-668.0
15.0,-172.0,-164.0,238.0,-210.0,57.0,60.0,-697.0,-658.0
17.0,-172.0,-164.0,232.0,-210.0,60.0,59.0,-690.0,-653.0
15.0,-169.0,-161.0,224.0,-207.0,65.0,60.0,-689.0,-649.0
18.0,-171.0,-162.0,214.0,-205.0,70.0,67.0,-686.0,-641.0
13.0,-168.0,-158.0,205.0,-205.0,75.0,64.0,-685.0,-626.0
11.0,-165.0,-159.0,195.0,-202.0,80.0,51.0,-678.0,-623.0
14.0,-167.0,-154.0,189.0,-203.0,83.0,51.0,-679.0,-625.0
9.0,-167.0,-154.0,182.0,-207.0,88.0,47.0,-678.0,-619.0
10.0,-165.0,-155.0,178.0,-214.0,92.0,42.0,-684.0,-614.0
5.0,-165.0,-156.0,169.0,-221.0,101.0,40.0,-677.0,-619.0
5.0,-165.0,-151.0,160.0,-228.0,106.0,38.0,-684.0,-610.0
6.0,-166.0,-154.0,151.0,-240.0,114.0,33.0,-685.0,-613.0
5.0,-164.0,-151.0,149.0,-251.0,126.0,44.0,-683.0,-620.0
4.0,-163.0,-155.0,145.0,-268.0,137.0,31.0,-687.0,-600.0
7.0,-172.0,-155.0,147.0,-285.0,148.0,29.0,-695.0,-609.0
5.0,-176.0,-157.0,155.0,-303.0,161.0,22.0,-708.0,-613.0
6.0,-177.0,-157.0,171.0,-324.0,173.0,24.0,-724.0,-613.0
4.0,-178.0,-159.0,190.0,-346.0,178.0,24.0,-732.0,-612.0
3.0,-175.0,-151.0,219.0,-363.0,183.0,27.0,-734.0,-612.0
6.0,-176.0,-152.0,247.0,-379.0,186.0,31.0,-720.0,-615.0
7.0,-171.0,-159.0,270.0,-394.0,188.0,35.0,-705.0,-607.0
8.0,-171.0,-153.0,291.0,-409.0,192.0,46.0,-707.0,-607.0
8.0,-168.0,-158.0,306.0,-423.0,198.0,36.0,-708.0,-601.0
11.0,-174.0,-154.0,327.0,-431.0,202.0,52.0,-707.0,-600.0
14.0,-172.0,-154.0,347.0,-440.0,207.0,57.0,-694.0,-607.0
12.0,-169.0,-152.0,359.0,-448.0,212.0,57.0,-700.0,-596.0
14.0,-170.0,-148.0,368.0,-457.0,216.0,60.0,-703.0,-590.0
19.0,-165.0,-153.0,371.0,-465.0,224.0,64.0,-697.0,-603.0
10.0,-167.0,-152.0,370.0,-473.0,227.0,53.0,-685.0,-577.0
11.0,-165.0,-150.0,368.0,-481.0,230.0,48.0,-683.0,-577.0
8.0,-164.0,-146.0,363.0,-490.0,235.0,43.0,-675.0,-580.0
11.0,-165.0,-150.0,357.0,-504.0,236.0,55.0,-679.0,-595.0
9.0,-168.0,-146.0,349.0,-516.0,237.0,33.0,-692.0,-581.0
3.0,-167.0,-147.0,348.0,-529.0,238.0,30.0,-694.0,-577.0
5.0,-167.0,-146.0,348.0,-542.0,240.0,29.0,-702.0,-575.0
5.0,-171.0,-144.0,350.0,-557.0,239.0,25.0,-709.0,-570.0
8.0,-175.0,-144.0,366.0,-570.0,242.0,32.0,-711.0,-585.0
8.0,-172.0,-145.0,382.0,-582.0,246.0,36.0,-713.0,-570.0
10.0,-174.0,-142.0,394.0,-593.0,249.0,53.0,-705.0,-561.0
14.0,-168.0,-147.0,402.0,-603.0,253.0,50.0,-703.0,-568.0
9.0,-169.0,-140.0,412.0,-611.0,259.0,50.0,-690.0,-567.0
10.0,-168.0,-142.0,419.0,-622.0,261.0,46.0,-683.0,-564.0
12.0,-163.0,-141.0,423.0,-632.0,265.0,50.0,-672.0,-559.0
15.0,-164.0,-144.0,421.0,-648.0,268.0,53.0,-660.0,-567.0
13.0,-154.0,-144.0,414.0,-660.0,271.0,63.0,-642.0,-561.0
14.0,-153.0,-138.0,402.0,-673.0,273.0,55.0,-632.0,-553.0
11.0,-153.0,-141.0,384.0,-686.0,279.0,46.0,-632.0,-552.0
9.0,-151.0,-140.0,369.0,-697.0,287.0,42.0,-624.0,-553.0
6.0,-149.0,-137.0,354.0,-716.0,295.0,45.0,-619.0,-541.0
11.0,-151.0,-133.0,340.0,-735.0,303.0,44.0,-626.0,-533.0
7.0,-154.0,-139.0,328.0,-753.0,310.0,40.0,-639.0,-530.0
10.0,-156.0,-135.0,318.0,-766.0,315.0,43.0,-648.0,-526.0
7.0,-163.0,-135.0,317.0,-775.0,318.0,36.0,-660.0,-511.0
7.0,-162.0,-128.0,324.0,-780.0,321.0,31.0,-676.0,-501.0
8.0,-164.0,-128.0,342.0,-784.0,322.0,39.0,-674.0,-493.0
5.0,-165.0,-126.0,365.0,-792.0,325.0,37.0,-684.0,-493.0
9.0,-166.0,-127.0,393.0,-804.0,328.0,42.0,-688.0,-494.0
11.0,-166.0,-129.0,425.0,-821.0,334.0,39.0,-690.0,-494.0
8.0,-163.0,-128.0,463.0,-839.0,334.0,51.0,-675.0,-486.0
13.0,-165.0,-125.0,503.0,-854.0,333.0,54.0,-658.0,-478.0
9.0,-159.0,-121.0,542.0,-868.0,327.0,51.0,-654.0,-468.0
10.0,-155.0,-114.0,577.0,-882.0,325.0,47.0,-644.0,-450.0
6.0,-155.0,-116.0,609.0,-896.0,326.0,41.0,-631.0,-441.0
8.0,-151.0,-113.0,638.0,-910.0,326.0,37.0,-612.0,-434.0
15.0,-148.0,-117.0,663.0,-925.0,326.0,24.0,-600.0,-429.0
7.0,-148.0,-110.0,684.0,-946.0,325.0,26.0,-599.0,-422.0
8.0,-148.0,-111.0,701.0,-973.0,322.0,23.0,-603.0,-427.0
3.0,-146.0,-106.0,719.0,-995.0,324.0,25.0,-603.0,-423.0
5.0,-146.0,-103.0,738.0,-1012.0,321.0,21.0,-599.0,-400.0
4.0,-145.0,-104.0,762.0,-1026.0,320.0,14.0,-603.0,-388.0
6.0,-143.0,-100.0,786.0,-1039.0,319.0,16.0,-594.0,-383.0
3.0,-145.0,-96.0,816.0,-1056.0,315.0,17.0,-596.0,-370.0
4.0,-143.0,-92.0,849.0,-1071.0,311.0,21.0,-590.0,-356.0
5.0,-141.0,-91.0,883.0,-1087.0,302.0,21.0,-585.0,-351.0
3.0,-137.0,-91.0,917.0,-1104.0,293.0,26.0,-576.0,-341.0
3.0,-134.0,-90.0,950.0,-1120.0,285.0,24.0,-568.0,-338.0
10.0,-136.0,-88.0,978.0,-1137.0,277.0,28.0,-561.0,-322.0
9.0,-135.0,-81.0,1004.0,-1152.0,267.0,26.0,-546.0,-309.0
3.0,-134.0,-78.0,1032.0,-1166.0,259.0,26.0,-549.0,-297.0
3.0,-134.0,-77.0,1064.0,-1183.0,252.0,23.0,-551.0,-285.0
7.0,-135.0,-73.0,1096.0,-1200.0,245.0,19.0,-549.0,-281.0
4.0,-132.0,-76.0,1136.0,-1211.0,240.0,18.0,-541.0,-275.0
2.0,-133.0,-69.0,1174.0,-1223.0,237.0,15.0,-531.0,-263.0
4.0,-131.0,-70.0,1210.0,-1235.0,232.0,10.0,-532.0,-260.0
1.0,-131.0,-64.0,1245.0,-1248.0,226.0,-1.0,-529.0,-252.0
0.0,-123.0,-63.0,1266.0,-1279.0,201.0,-7.0,-514.0,-230.0
-5.0,-130.0,-59.0,1302.0,-1288.0,201.0,-7.0,-527.0,-204.0
-8.0,-129.0,-50.0,1341.0,-1296.0,211.0,-31.0,-526.0,-187.0
-7.0,-129.0,-47.0,1378.0,-1304.0,220.0,-47.0,-534.0,-162.0
-10.0,-131.0,-41.0,1415.0,-1315.0,229.0,-55.0,-529.0,-130.0
-14.0,-130.0,-33.0,1455.0,-1332.0,244.0,-60.0,-524.0,-138.0
-21.0,-130.0,-31.0,1493.0,-1356.0,260.0,-85.0,-530.0,-107.0
-17.0,-132.0,-28.0,1536.0,-1385.0,275.0,-88.0,-539.0,-90.0
-20.0,-132.0,-30.0,1575.0,-1414.0,293.0,-94.0,-539.0,-82.0
-17.0,-135.0,-22.0,1611.0,-1435.0,316.0,-90.0,-547.0,-72.0
-21.0,-137.0,-22.0,1641.0,-1439.0,350.0,-87.0,-559.0,-84.0
-23.0,-141.0,-24.0,1669.0,-1439.0,384.0,-96.0,-581.0,-72.0
-23.0,-140.0,-31.0,1708.0,-1435.0,419.0,-101.0,-592.0,-87.0
-19.0,-148.0,-29.0,1756.0,-1428.0,459.0,-89.0,-615.0,-98.0
-24.0,-152.0,-32.0,1820.0,-1425.0,505.0,-88.0,-627.0,-105.0
-22.0,-153.0,-32.0,1895.0,-1437.0,551.0,-88.0,-625.0,-104.0
-20.0,-153.0,-32.0,1982.0,-1468.0,598.0,-86.0,-616.0,-103.0
-25.0,-151.0,-37.0,2079.0,-1510.0,652.0,-90.0,-608.0,-102.0
-26.0,-149.0,-30.0,2170.0,-1561.0,708.0,-105.0,-595.0,-92.0
-28.0,-135.0,-20.0,2257.0,-1614.0,764.0,-112.0,-570.0,-73.0
-34.0,-126.0,-15.0,2334.0,-1664.0,816.0,-124.0,-521.0,-44.0
-36.0,-113.0,-12.0,2395.0,-1713.0,871.0,-131.0,-471.0,-17.0
-43.0,-104.0,-1.0,2429.0,-1759.0,930.0,-151.0,-433.0,-1.0
-41.0,-93.0,1.0,2439.0,-1803.0,993.0,-167.0,-399.0,17.0
-48.0,-83.0,-4.0,2425.0,-1846.0,1056.0,-199.0,-359.0,16.0
-55.0,-76.0,0.0,2380.0,-1892.0,1119.0,-218.0,-333.0,23.0
-59.0,-73.0,0.0,2308.0,-1936.0,1183.0,-244.0,-319.0,36.0
-61.0,-76.0,10.0,2214.0,-1977.0,1253.0,-255.0,-311.0,49.0
-56.0,-82.0,19.0,2121.0,-2017.0,1321.0,-237.0,-348.0,79.0
-52.0,-102.0,11.0,2035.0,-2054.0,1371.0,-217.0,-411.0,89.0
-64.0,-127.0,20.0,1947.0,-2095.0,1412.0,-268.0,-526.0,90.0
-69.0,-166.0,35.0,1869.0,-2156.0,1448.0,-290.0,-710.0,163.0
-89.0,-210.0,43.0,1841.0,-2230.0,1473.0,-370.0,-877.0,209.0
-107.0,-256.0,53.0,1834.0,-2298.0,1496.0,-438.0,-1052.0,243.0
-156.0,-297.0,59.0,1854.0,-2379.0,1505.0,-623.0,-1200.0,275.0
-180.0,-331.0,60.0,1932.0,-2479.0,1533.0,-755.0,-1371.0,275.0
-252.0,-383.0,60.0,2072.0,-2588.0,1587.0,-1025.0,-1561.0,271.0
-336.0,-424.0,54.0,2249.0,-2700.0,1686.0,-1363.0,-1716.0,244.0
-398.0,-456.0,56.0,2431.0,-2791.0,1809.0,-1602.0,-1836.0,255.0
-495.0,-499.0,67.0,2580.0,-2816.0,1937.0,-1938.0,-1986.0,306.0
-581.0,-538.0,87.0,2685.0,-2774.0,2015.0,-2386.0,-2195.0,381.0
-667.0,-621.0,132.0,2776.0,-2734.0,2098.0,-2689.0,-2511.0,552.0
-851.0,-734.0,218.0,2912.0,-2785.0,2171.0,-3362.0,-2910.0,887.0
-1044.0,-840.0,263.0,3149.0,-2939.0,2327.0,-4112.0,-3349.0,1116.0
-1130.0,-869.0,258.0,3405.0,-3045.0,2619.0,-4597.0,-3538.0,1097.0
-1275.0,-852.0,278.0,3555.0,-2983.0,3071.0,-5165.0,-3495.0,1162.0
-1255.0,-773.0,239.0,3554.0,-2757.0,3662.0,-5168.0,-3213.0,1041.0
-1022.0,-666.0,232.0,3511.0,-2440.0,4205.0,-4415.0,-2782.0,971.0
-713.0,-546.0,248.0,3628.0,-2232.0,4501.0,-3196.0,-2311.0,1067.0
-512.0,-440.0,238.0,3911.0,-2059.0,4558.0,-2192.0,-1805.0,971.0
-363.0,-282.0,234.0,4093.0,-1798.0,4469.0,-1598.0,-1113.0,1019.0
-223.0,-140.0,272.0,4000.0,-1550.0,4293.0,-960.0,-608.0,1152.0
-121.0,-22.0,328.0,3668.0,-1289.0,4130.0,-570.0,-167.0,1350.0
-46.0,31.0,373.0,3225.0,-1016.0,4035.0,-293.0,40.0,1532.0
-62.0,29.0,399.0,2823.0,-762.0,4020.0,-297.0,53.0,1627.0
-63.0,-13.0,318.0,2582.0,-672.0,4060.0,-286.0,-85.0,1304.0
-93.0,-72.0,150.0,2481.0,-795.0,4080.0,-357.0,-321.0,677.0
-137.0,-146.0,21.0,2406.0,-1065.0,4054.0,-522.0,-589.0,135.0
-199.0,-199.0,-3.0,2346.0,-1368.0,3971.0,-786.0,-850.0,-1.0
-211.0,-277.0,-9.0,2399.0,-1708.0,3803.0,-844.0,-1107.0,-43.0
-244.0,-314.0,-8.0,2561.0,-1958.0,3580.0,-908.0,-1249.0,-19.0
-191.0,-332.0,6.0,2746.0,-2188.0,3332.0,-844.0,-1347.0,80.0
-160.0,-310.0,3.0,2976.0,-2255.0,3117.0,-715.0,-1267.0,113.0
-95.0,-278.0,11.0,3167.0,-2196.0,2968.0,-405.0,-1144.0,69.0
-65.0,-217.0,23.0,3213.0,-2194.0,2724.0,-302.0,-889.0,155.0
-131.0,-136.0,77.0,3158.0,-2072.0,2537.0,-460.0,-616.0,290.0
-79.0,-71.0,59.0,3011.0,-2079.0,2418.0,-195.0,-403.0,117.0
-12.0,14.0,74.0,2802.0,-2051.0,2292.0,-63.0,-93.0,173.0
60.0,78.0,64.0,2587.0,-2000.0,2097.0,159.0,231.0,300.0
-91.0,162.0,105.0,2366.0,-1874.0,1814.0,-335.0,549.0,475.0
51.0,200.0,167.0,2153.0,-1638.0,1671.0,220.0,793.0,699.0
6.0,241.0,247.0,2017.0,-1255.0,1355.0,-51.0,959.0,967.0
-42.0,274.0,253.0,1963.0,-825.0,988.0,-293.0,1084.0,1086.0
-127.0,275.0,276.0,1906.0,-377.0,681.0,-595.0,1084.0,1133.0
-196.0,262.0,283.0,1837.0,-6.0,470.0,-882.0,1031.0,1147.0
-263.0,194.0,277.0,1726.0,299.0,281.0,-1160.0,766.0,1153.0
-365.0,156.0,273.0,1665.0,577.0,148.0,-1455.0,558.0,1118.0
-377.0,117.0,293.0,1496.0,697.0,-37.0,-1537.0,401.0,1206.0
-373.0,65.0,300.0,1363.0,777.0,-166.0,-1514.0,221.0,1228.0
-332.0,24.0,290.0,1279.0,786.0,-264.0,-1357.0,74.0,1188.0
-320.0,22.0,268.0,1252.0,741.0,-323.0,-1281.0,29.0,1084.0
-290.0,33.0,268.0,1170.0,577.0,-353.0,-1171.0,92.0,1056.0
-247.0,45.0,255.0,1091.0,362.0,-326.0,-1018.0,142.0,1062.0
-211.0,58.0,250.0,1026.0,157.0,-255.0,-864.0,185.0,1041.0
-186.0,88.0,217.0,968.0,-43.0,-191.0,-782.0,300.0,906.0
-149.0,116.0,198.0,866.0,-235.0,-107.0,-650.0,416.0,823.0
-138.0,121.0,193.0,747.0,-394.0,13.0,-577.0,453.0,806.0
-77.0,134.0,192.0,656.0,-474.0,144.0,-346.0,506.0,785.0
-53.0,141.0,167.0,592.0,-511.0,255.0,-250.0,537.0,690.0
-44.0,148.0,151.0,534.0,-496.0,348.0,-229.0,582.0,630.0
-41.0,156.0,146.0,484.0,-469.0,427.0,-199.0,598.0,597.0
-35.0,161.0,138.0,451.0,-437.0,486.0,-186.0,627.0,577.0
-54.0,162.0,143.0,414.0,-396.0,531.0,-234.0,633.0,586.0
-50.0,161.0,136.0,378.0,-350.0,565.0,-245.0,620.0,557.0
-59.0,155.0,136.0,337.0,-305.0,588.0,-269.0,589.0,554.0
-65.0,142.0,139.0,305.0,-262.0,603.0,-278.0,545.0,585.0
-67.0,134.0,148.0,290.0,-228.0,598.0,-286.0,503.0,616.0
-76.0,128.0,153.0,273.0,-196.0,583.0,-321.0,482.0,645.0
-73.0,125.0,159.0,251.0,-169.0,556.0,-334.0,478.0,666.0
-78.0,125.0,162.0,223.0,-131.0,529.0,-341.0,472.0,673.0
-87.0,127.0,163.0,197.0,-100.0,491.0,-396.0,483.0,688.0
-89.0,129.0,176.0,174.0,-59.0,460.0,-400.0,489.0,721.0
-126.0,132.0,183.0,135.0,-21.0,428.0,-514.0,508.0,751.0
-102.0,127.0,183.0,101.0,4.0,408.0,-432.0,491.0,746.0
-110.0,125.0,185.0,64.0,-46.0,369.0,-481.0,499.0,748.0
-117.0,125.0,190.0,46.0,-68.0,359.0,-495.0,473.0,779.0
-110.0,118.0,184.0,35.0,-59.0,357.0,-499.0,447.0,773.0
-109.0,114.0,188.0,16.0,-46.0,344.0,-442.0,406.0,792.0
-112.0,105.0,190.0,5.0,-72.0,314.0,-472.0,385.0,787.0
-112.0,99.0,193.0,4.0,-104.0,277.0,-476.0,370.0,789.0
-112.0,95.0,194.0,12.0,-117.0,243.0,-486.0,359.0,806.0
-106.0,92.0,199.0,17.0,-127.0,212.0,-464.0,357.0,830.0
-115.0,102.0,211.0,28.0,-136.0,171.0,-497.0,384.0,869.0
-115.0,107.0,211.0,43.0,-144.0,133.0,-494.0,407.0,891.0
-118.0,121.0,213.0,54.0,-139.0,100.0,-505.0,456.0,881.0
-125.0,123.0,214.0,46.0,-133.0,74.0,-528.0,469.0,880.0
-129.0,126.0,214.0,33.0,-142.0,45.0,-553.0,481.0,883.0
-129.0,126.0,214.0,28.0,-164.0,28.0,-550.0,493.0,879.0
-126.0,129.0,215.0,25.0,-179.0,20.0,-550.0,504.0,873.0
-128.0,130.0,211.0,15.0,-176.0,14.0,-562.0,506.0,876.0
-126.0,134.0,212.0,2.0,-176.0,-3.0,-541.0,510.0,874.0
-132.0,135.0,217.0,7.0,-173.0,-15.0,-569.0,518.0,893.0
-146.0,140.0,222.0,13.0,-176.0,-21.0,-615.0,538.0,914.0
-147.0,143.0,222.0,1.0,-188.0,-35.0,-632.0,554.0,898.0
-148.0,145.0,216.0,-16.0,-190.0,-50.0,-630.0,549.0,887.0
-142.0,139.0,209.0,-42.0,-180.0,-69.0,-616.0,538.0,875.0
-138.0,125.0,215.0,-78.0,-163.0,-86.0,-589.0,481.0,878.0
-129.0,106.0,214.0,-104.0,-144.0,-108.0,-563.0,406.0,884.0
-125.0,94.0,218.0,-122.0,-121.0,-131.0,-534.0,316.0,893.0
-128.0,77.0,228.0,-137.0,-98.0,-154.0,-533.0,261.0,900.0
-124.0,60.0,215.0,-149.0,-74.0,-173.0,-535.0,204.0,887.0
-131.0,49.0,207.0,-159.0,-51.0,-192.0,-551.0,161.0,870.0
-133.0,40.0,204.0,-166.0,-28.0,-205.0,-574.0,134.0,853.0
-135.0,37.0,203.0,-169.0,-7.0,-222.0,-592.0,121.0,835.0
-144.0,36.0,195.0,-166.0,15.0,-241.0,-605.0,111.0,815.0
-147.0,36.0,191.0,-159.0,32.0,-258.0,-624.0,120.0,793.0
-150.0,35.0,194.0,-155.0,44.0,-277.0,-643.0,123.0,792.0
-157.0,43.0,193.0,-152.0,58.0,-292.0,-661.0,128.0,816.0
-161.0,41.0,195.0,-152.0,73.0,-304.0,-679.0,135.0,813.0
-160.0,41.0,189.0,-162.0,89.0,-316.0,-692.0,144.0,799.0
-162.0,42.0,190.0,-183.0,105.0,-330.0,-692.0,139.0,778.0
-162.0,37.0,189.0,-204.0,120.0,-345.0,-673.0,113.0,772.0
-161.0,29.0,183.0,-214.0,137.0,-360.0,-679.0,92.0,773.0
-159.0,21.0,188.0,-217.0,146.0,-374.0,-676.0,69.0,780.0
-163.0,18.0,190.0,-216.0,154.0,-388.0,-678.0,56.0,778.0
-164.0,15.0,185.0,-213.0,159.0,-400.0,-693.0,32.0,779.0
-169.0,14.0,185.0,-211.0,161.0,-409.0,-696.0,33.0,756.0
-168.0,9.0,183.0,-211.0,164.0,-419.0,-701.0,24.0,756.0
-166.0,12.0,187.0,-207.0,166.0,-429.0,-710.0,27.0,768.0
-164.0,7.0,188.0,-202.0,168.0,-442.0,-706.0,16.0,784.0
-166.0,7.0,191.0,-191.0,172.0,-458.0,-708.0,4.0,787.0
-166.0,5.0,191.0,-181.0,176.0,-472.0,-699.0,8.0,785.0
-160.0,4.0,188.0,-170.0,184.0,-484.0,-676.0,-1.0,789.0
-152.0,3.0,190.0,-154.0,199.0,-490.0,-659.0,-5.0,790.0
-164.0,5.0,193.0,-143.0,217.0,-495.0,-686.0,-2.0,801.0
-155.0,4.0,193.0,-141.0,220.0,-493.0,-649.0,-1.0,789.0
-152.0,0.0,194.0,-138.0,230.0,-492.0,-645.0,-15.0,811.0
-145.0,-1.0,193.0,-135.0,238.0,-484.0,-622.0,-23.0,802.0
-153.0,-3.0,201.0,-135.0,250.0,-476.0,-637.0,-31.0,827.0
-154.0,-3.0,201.0,-120.0,261.0,-471.0,-637.0,-37.0,832.0
-156.0,-9.0,201.0,-103.0,262.0,-464.0,-673.0,-49.0,852.0
-151.0,-6.0,201.0,-85.0,263.0,-464.0,-645.0,-54.0,853.0
-162.0,-10.0,205.0,-74.0,271.0,-473.0,-700.0,-65.0,870.0
-167.0,-9.0,206.0,-59.0,283.0,-482.0,-700.0,-54.0,865.0
-161.0,-4.0,207.0,-37.0,305.0,-488.0,-686.0,-42.0,862.0
-138.0,-1.0,196.0,-24.0,339.0,-500.0,-624.0,-22.0,825.0
-128.0,5.0,191.0,-25.0,398.0,-515.0,-560.0,2.0,790.0
-125.0,8.0,184.0,-23.0,466.0,-529.0,-557.0,12.0,777.0
-127.0,4.0,186.0,-26.0,524.0,-540.0,-552.0,-4.0,771.0
-127.0,-1.0,187.0,-38.0,577.0,-552.0,-534.0,-19.0,771.0
-124.0,-12.0,195.0,-45.0,622.0,-567.0,-540.0,-58.0,814.0
-126.0,-17.0,202.0,-26.0,654.0,-576.0,-537.0,-93.0,846.0
-132.0,-21.0,198.0,1.0,678.0,-583.0,-541.0,-113.0,860.0
-130.0,-31.0,205.0,18.0,692.0,-592.0,-566.0,-128.0,856.0
-137.0,-32.0,203.0,23.0,695.0,-606.0,-583.0,-154.0,840.0
-146.0,-36.0,198.0,29.0,698.0,-626.0,-616.0,-179.0,831.0
-152.0,-48.0,193.0,36.0,705.0,-652.0,-642.0,-212.0,815.0
-156.0,-54.0,187.0,49.0,717.0,-681.0,-664.0,-230.0,781.0
-159.0,-60.0,181.0,67.0,739.0,-706.0,-675.0,-240.0,762.0
-162.0,-58.0,178.0,87.0,763.0,-725.0,-676.0,-245.0,734.0
-162.0,-62.0,172.0,114.0,781.0,-733.0,-687.0,-252.0,724.0
-158.0,-55.0,164.0,145.0,795.0,-729.0,-669.0,-240.0,700.0
-157.0,-49.0,164.0,167.0,810.0,-726.0,-668.0,-214.0,671.0
-153.0,-45.0,156.0,172.0,826.0,-723.0,-651.0,-198.0,667.0
-148.0,-40.0,154.0,180.0,845.0,-722.0,-636.0,-188.0,656.0
-155.0,-32.0,161.0,188.0,863.0,-720.0,-645.0,-151.0,670.0
-153.0,-29.0,160.0,186.0,879.0,-720.0,-641.0,-126.0,676.0
-158.0,-29.0,163.0,187.0,896.0,-725.0,-666.0,-123.0,672.0
-165.0,-24.0,159.0,194.0,900.0,-727.0,-688.0,-115.0,672.0
-167.0,-27.0,156.0,198.0,900.0,-724.0,-707.0,-113.0,664.0
-186.0,-24.0,159.0,190.0,900.0,-716.0,-780.0,-105.0,676.0
-189.0,-21.0,158.0,183.0,890.0,-708.0,-786.0,-119.0,658.0
-195.0,-23.0,157.0,179.0,893.0,-702.0,-816.0,-115.0,663.0
-199.0,-25.0,154.0,173.0,903.0,-701.0,-842.0,-125.0,668.0
-209.0,-30.0,141.0,173.0,923.0,-704.0,-869.0,-120.0,656.0
-220.0,-21.0,159.0,174.0,943.0,-702.0,-933.0,-111.0,670.0
-223.0,-14.0,154.0,180.0,948.0,-693.0,-924.0,-83.0,644.0
-241.0,-11.0,159.0,166.0,967.0,-682.0,-989.0,-66.0,654.0
-243.0,-8.0,153.0,143.0,969.0,-664.0,-999.0,-68.0,644.0
-245.0,-8.0,141.0,114.0,972.0,-649.0,-996.0,-63.0,594.0
-248.0,-13.0,138.0,86.0,969.0,-631.0,-1018.0,-70.0,584.0
-250.0,-18.0,128.0,65.0,951.0,-606.0,-1024.0,-90.0,555.0
-258.0,-17.0,127.0,55.0,924.0,-575.0,-1044.0,-95.0,527.0
-259.0,-19.0,124.0,39.0,886.0,-541.0,-1066.0,-105.0,518.0
-255.0,-19.0,115.0,28.0,846.0,-506.0,-1044.0,-112.0,488.0
-267.0,-24.0,114.0,10.0,809.0,-472.0,-1084.0,-115.0,477.0
-261.0,-29.0,116.0,-18.0,763.0,-440.0,-1084.0,-118.0,471.0
-270.0,-29.0,116.0,-42.0,728.0,-409.0,-1113.0,-121.0,475.0
-275.0,-21.0,116.0,-54.0,683.0,-368.0,-1132.0,-135.0,480.0
-265.0,-29.0,114.0,-64.0,631.0,-325.0,-1098.0,-139.0,478.0
-273.0,-29.0,115.0,-71.0,594.0,-277.0,-1133.0,-128.0,477.0
-276.0,-30.0,109.0,-87.0,551.0,-231.0,-1139.0,-137.0,471.0
-267.0,-33.0,115.0,-107.0,514.0,-192.0,-1093.0,-156.0,479.0
-263.0,-34.0,110.0,-120.0,493.0,-159.0,-1094.0,-154.0,464.0
-270.0,-38.0,112.0,-128.0,472.0,-123.0,-1100.0,-168.0,461.0
-261.0,-40.0,113.0,-133.0,437.0,-91.0,-1080.0,-187.0,467.0
-252.0,-42.0,106.0,-133.0,407.0,-67.0,-1042.0,-194.0,460.0
-248.0,-44.0,106.0,-136.0,383.0,-48.0,-1004.0,-195.0,451.0
-244.0,-46.0,106.0,-139.0,366.0,-34.0,-1001.0,-213.0,459.0
-252.0,-55.0,117.0,-137.0,341.0,-22.0,-1026.0,-229.0,473.0
-238.0,-57.0,111.0,-128.0,298.0,-5.0,-983.0,-243.0,463.0
-227.0,-59.0,112.0,-123.0,266.0,3.0,-931.0,-249.0,467.0
-230.0,-58.0,112.0,-116.0,246.0,8.0,-935.0,-248.0,470.0
-223.0,-63.0,116.0,-109.0,217.0,14.0,-928.0,-256.0,472.0
-223.0,-59.0,113.0,-101.0,189.0,26.0,-921.0,-260.0,475.0
-214.0,-61.0,111.0,-91.0,161.0,37.0,-898.0,-252.0,473.0
-215.0,-60.0,109.0,-82.0,132.0,40.0,-888.0,-243.0,475.0
-213.0,-56.0,109.0,-80.0,98.0,41.0,-892.0,-241.0,472.0
-212.0,-51.0,109.0,-77.0,72.0,42.0,-878.0,-234.0,472.0
-211.0,-51.0,111.0,-76.0,46.0,40.0,-876.0,-223.0,477.0
-214.0,-46.0,114.0,-82.0,23.0,37.0,-876.0,-222.0,481.0
-213.0,-46.0,117.0,-92.0,0.0,30.0,-870.0,-215.0,489.0
-215.0,-48.0,118.0,-97.0,-21.0,25.0,-882.0,-211.0,486.0
-214.0,-51.0,112.0,-104.0,-42.0,22.0,-881.0,-224.0,481.0
-218.0,-53.0,115.0,-106.0,-62.0,22.0,-895.0,-227.0,487.0
-216.0,-55.0,115.0,-103.0,-82.0,22.0,-899.0,-235.0,486.0
-219.0,-59.0,116.0,-96.0,-101.0,22.0,-909.0,-249.0,488.0
-225.0,-59.0,114.0,-88.0,-118.0,26.0,-916.0,-250.0,487.0
-229.0,-58.0,123.0,-78.0,-138.0,30.0,-923.0,-252.0,494.0
-225.0,-60.0,121.0,-67.0,-155.0,32.0,-937.0,-249.0,505.0
-221.0,-63.0,116.0,-57.0,-172.0,40.0,-928.0,-241.0,514.0
-224.0,-53.0,125.0,-47.0,-188.0,47.0,-933.0,-239.0,512.0
-224.0,-51.0,124.0,-37.0,-198.0,51.0,-929.0,-222.0,525.0
-221.0,-52.0,122.0,-27.0,-209.0,54.0,-928.0,-211.0,524.0
-218.0,-49.0,122.0,-21.0,-217.0,57.0,-916.0,-206.0,534.0
-220.0,-44.0,128.0,-18.0,-223.0,59.0,-913.0,-202.0,533.0
-214.0,-41.0,127.0,-17.0,-231.0,58.0,-929.0,-177.0,522.0
-213.0,-49.0,128.0,-22.0,-236.0,53.0,-884.0,-209.0,541.0
-211.0,-44.0,129.0,1.0,-232.0,59.0,-875.0,-201.0,547.0
-206.0,-42.0,129.0,8.0,-235.0,64.0,-874.0,-195.0,558.0
-210.0,-44.0,131.0,10.0,-238.0,61.0,-871.0,-195.0,550.0
-207.0,-41.0,132.0,15.0,-240.0,55.0,-863.0,-192.0,555.0
-205.0,-39.0,133.0,19.0,-238.0,53.0,-865.0,-184.0,556.0
-203.0,-39.0,137.0,22.0,-233.0,49.0,-849.0,-176.0,563.0
-202.0,-37.0,136.0,26.0,-226.0,48.0,-846.0,-168.0,574.0
-200.0,-39.0,140.0,30.0,-219.0,47.0,-836.0,-169.0,580.0
-198.0,-36.0,145.0,36.0,-213.0,44.0,-843.0,-161.0,590.0
-199.0,-35.0,144.0,42.0,-207.0,40.0,-837.0,-160.0,608.0
-197.0,-35.0,150.0,45.0,-203.0,33.0,-836.0,-162.0,609.0
-201.0,-26.0,140.0,49.0,-198.0,30.0,-834.0,-159.0,617.0
-200.0,-33.0,147.0,53.0,-193.0,29.0,-832.0,-156.0,627.0
-199.0,-29.0,149.0,57.0,-184.0,27.0,-824.0,-143.0,629.0
-194.0,-28.0,149.0,60.0,-178.0,28.0,-813.0,-137.0,633.0
-193.0,-25.0,151.0,62.0,-170.0,28.0,-811.0,-132.0,639.0
-195.0,-26.0,154.0,63.0,-164.0,26.0,-807.0,-120.0,642.0
-190.0,-26.0,153.0,63.0,-157.0,24.0,-806.0,-111.0,652.0
-192.0,-26.0,157.0,64.0,-149.0,20.0,-802.0,-113.0,651.0
-194.0,-19.0,154.0,66.0,-142.0,15.0,-805.0,-112.0,649.0
-195.0,-18.0,155.0,70.0,-135.0,12.0,-797.0,-105.0,658.0
-192.0,-18.0,155.0,71.0,-128.0,8.0,-796.0,-106.0,655.0
-190.0,-22.0,159.0,72.0,-120.0,3.0,-802.0,-105.0,654.0
-190.0,-19.0,160.0,71.0,-110.0,0.0,-802.0,-107.0,659.0
-192.0,-22.0,157.0,73.0,-104.0,-1.0,-796.0,-110.0,657.0
-186.0,-24.0,153.0,74.0,-94.0,-3.0,-766.0,-114.0,648.0
-188.0,-26.0,158.0,70.0,-81.0,-6.0,-780.0,-114.0,657.0
-187.0,-25.0,158.0,70.0,-66.0,-11.0,-791.0,-119.0,672.0
-192.0,-25.0,164.0,73.0,-52.0,-17.0,-802.0,-116.0,682.0
-194.0,-22.0,163.0,76.0,-40.0,-21.0,-808.0,-115.0,681.0
-196.0,-24.0,155.0,80.0,-27.0,-25.0,-822.0,-111.0,667.0
-197.0,-21.0,161.0,81.0,-11.0,-28.0,-822.0,-104.0,659.0
-199.0,-21.0,157.0,80.0,1.0,-32.0,-826.0,-110.0,648.0
-197.0,-23.0,151.0,78.0,16.0,-35.0,-827.0,-104.0,648.0
-197.0,-26.0,157.0,80.0,25.0,-37.0,-830.0,-113.0,650.0
-199.0,-27.0,154.0,80.0,31.0,-38.0,-839.0,-123.0,649.0
-203.0,-23.0,152.0,81.0,40.0,-39.0,-843.0,-123.0,638.0
-205.0,-25.0,150.0,84.0,48.0,-38.0,-849.0,-123.0,632.0
-204.0,-27.0,152.0,84.0,55.0,-41.0,-850.0,-121.0,629.0
-201.0,-25.0,147.0,86.0,62.0,-42.0,-851.0,-124.0,622.0
-206.0,-27.0,148.0,85.0,68.0,-44.0,-860.0,-126.0,621.0
-205.0,-24.0,145.0,84.0,71.0,-44.0,-856.0,-122.0,612.0
-208.0,-24.0,147.0,82.0,74.0,-43.0,-857.0,-124.0,604.0
-207.0,-28.0,141.0,81.0,74.0,-41.0,-859.0,-125.0,597.0
-209.0,-28.0,145.0,79.0,72.0,-41.0,-866.0,-122.0,606.0
-207.0,-26.0,143.0,78.0,70.0,-38.0,-864.0,-122.0,593.0
-209.0,-27.0,142.0,74.0,68.0,-38.0,-865.0,-126.0,595.0
-209.0,-30.0,144.0,72.0,68.0,-35.0,-867.0,-134.0,591.0
-207.0,-30.0,139.0,72.0,67.0,-35.0,-867.0,-135.0,596.0
-207.0,-29.0,137.0,70.0,67.0,-34.0,-863.0,-139.0,590.0
-206.0,-27.0,142.0,68.0,67.0,-36.0,-861.0,-140.0,588.0
-209.0,-31.0,141.0,67.0,63.0,-34.0,-870.0,-145.0,584.0
-209.0,-29.0,141.0,67.0,61.0,-31.0,-859.0,-143.0,577.0
-209.0,-34.0,138.0,68.0,59.0,-29.0,-863.0,-151.0,582.0
-206.0,-33.0,134.0,69.0,57.0,-29.0,-863.0,-150.0,575.0
-214.0,-32.0,137.0,69.0,54.0,-29.0,-865.0,-151.0,572.0
-207.0,-29.0,136.0,66.0,51.0,-30.0,-873.0,-143.0,566.0
-206.0,-31.0,137.0,60.0,47.0,-31.0,-869.0,-140.0,577.0
-209.0,-29.0,135.0,54.0,44.0,-32.0,-867.0,-137.0,580.0
-207.0,-32.0,135.0,46.0,43.0,-36.0,-866.0,-142.0,582.0
-211.0,-32.0,134.0,44.0,41.0,-38.0,-869.0,-148.0,577.0
-212.0,-28.0,135.0,44.0,37.0,-39.0,-863.0,-150.0,574.0
-206.0,-35.0,134.0,46.0,33.0,-38.0,-870.0,-159.0,566.0
-207.0,-37.0,135.0,50.0,25.0,-39.0,-867.0,-167.0,566.0
-213.0,-34.0,137.0,54.0,17.0,-37.0,-868.0,-174.0,571.0
-210.0,-37.0,134.0,58.0,10.0,-38.0,-872.0,-175.0,574.0
-210.0,-41.0,134.0,63.0,1.0,-37.0,-871.0,-175.0,576.0
-209.0,-36.0,137.0,67.0,-5.0,-38.0,-870.0,-169.0,577.0
-209.0,-35.0,137.0,67.0,-10.0,-39.0,-868.0,-161.0,576.0
-206.0,-33.0,140.0,65.0,-13.0,-37.0,-868.0,-157.0,581.0
-209.0,-31.0,137.0,61.0,-15.0,-37.0,-868.0,-158.0,584.0
-208.0,-37.0,139.0,58.0,-19.0,-36.0,-867.0,-165.0,582.0
-205.0,-38.0,140.0,54.0,-21.0,-37.0,-860.0,-161.0,587.0
-208.0,-33.0,141.0,53.0,-21.0,-34.0,-861.0,-173.0,584.0
-206.0,-38.0,141.0,53.0,-20.0,-34.0,-857.0,-167.0,585.0
-203.0,-37.0,141.0,51.0,-19.0,-34.0,-858.0,-161.0,589.0
-203.0,-37.0,140.0,48.0,-21.0,-32.0,-858.0,-159.0,589.0
-203.0,-47.0,136.0,45.0,-24.0,-30.0,-861.0,-167.0,590.0
-208.0,-33.0,143.0,42.0,-26.0,-28.0,-856.0,-164.0,596.0
-202.0,-36.0,142.0,39.0,-25.0,-24.0,-851.0,-165.0,598.0
-204.0,-37.0,146.0,36.0,-24.0,-22.0,-847.0,-165.0,598.0
-202.0,-37.0,145.0,36.0,-23.0,-19.0,-846.0,-167.0,599.0
-202.0,-40.0,143.0,36.0,-21.0,-17.0,-847.0,-172.0,597.0
-201.0,-34.0,143.0,37.0,-19.0,-14.0,-845.0,-174.0,602.0
-200.0,-38.0,144.0,37.0,-19.0,-14.0,-842.0,-169.0,601.0
-201.0,-38.0,144.0,39.0,-17.0,-11.0,-842.0,-172.0,602.0
-201.0,-36.0,144.0,41.0,-17.0,-9.0,-845.0,-167.0,610.0
-200.0,-37.0,147.0,43.0,-14.0,-7.0,-839.0,-165.0,612.0
-202.0,-37.0,143.0,46.0,-13.0,-4.0,-836.0,-165.0,615.0
-200.0,-35.0,145.0,48.0,-10.0,-3.0,-839.0,-162.0,606.0
-203.0,-35.0,145.0,48.0,-9.0,-3.0,-840.0,-164.0,599.0
-205.0,-33.0,147.0,48.0,-6.0,-1.0,-838.0,-153.0,605.0
-202.0,-35.0,144.0,49.0,-2.0,-1.0,-842.0,-153.0,607.0
-201.0,-34.0,144.0,49.0,0.0,-1.0,-839.0,-155.0,609.0
-201.0,-35.0,144.0,48.0,3.0,1.0,-838.0,-152.0,598.0
-201.0,-31.0,146.0,49.0,6.0,0.0,-841.0,-155.0,603.0
-203.0,-30.0,148.0,48.0,7.0,1.0,-846.0,-151.0,604.0
-201.0,-32.0,143.0,48.0,7.0,3.0,-849.0,-154.0,606.0
-203.0,-33.0,140.0,49.0,9.0,2.0,-845.0,-154.0,607.0
-205.0,-32.0,146.0,49.0,11.0,2.0,-848.0,-160.0,610.0
-201.0,-35.0,140.0,51.0,15.0,1.0,-850.0,-155.0,605.0
-203.0,-32.0,144.0,53.0,16.0,5.0,-852.0,-148.0,607.0
-205.0,-35.0,142.0,55.0,18.0,5.0,-859.0,-153.0,607.0
-208.0,-35.0,147.0,58.0,19.0,4.0,-850.0,-150.0,595.0
-206.0,-31.0,151.0,58.0,21.0,6.0,-854.0,-151.0,606.0
-206.0,-32.0,143.0,59.0,22.0,5.0,-857.0,-140.0,598.0
-209.0,-28.0,143.0,58.0,23.0,4.0,-859.0,-137.0,598.0
-202.0,-31.0,144.0,57.0,24.0,3.0,-863.0,-137.0,602.0
-187.0,-30.0,164.0,54.0,25.0,1.0,-856.0,-131.0,592.0
-204.0,-29.0,141.0,54.0,24.0,-1.0,-852.0,-132.0,594.0
-206.0,-32.0,144.0,52.0,23.0,-1.0,-853.0,-135.0,595.0
-202.0,-30.0,142.0,50.0,23.0,-1.0,-852.0,-134.0,598.0
-204.0,-32.0,142.0,50.0,24.0,0.0,-846.0,-138.0,594.0
-206.0,-32.0,144.0,52.0,24.0,-1.0,-849.0,-147.0,596.0
-204.0,-33.0,142.0,52.0,24.0,-3.0,-843.0,-148.0,592.0
-204.0,-34.0,141.0,49.0,24.0,-3.0,-846.0,-149.0,595.0
-202.0,-33.0,144.0,47.0,24.0,-2.0,-847.0,-150.0,596.0
-205.0,-31.0,145.0,45.0,23.0,-2.0,-848.0,-138.0,598.0
-201.0,-29.0,143.0,43.0,23.0,-2.0,-841.0,-136.0,597.0
-203.0,-29.0,142.0,42.0,22.0,-1.0,-846.0,-140.0,607.0
-209.0,-24.0,137.0,41.0,22.0,-3.0,-848.0,-141.0,602.0
-202.0,-33.0,145.0,40.0,22.0,-5.0,-844.0,-152.0,602.0
-205.0,-31.0,145.0,39.0,22.0,-6.0,-840.0,-153.0,598.0
-200.0,-35.0,145.0,40.0,24.0,-5.0,-843.0,-155.0,604.0
-205.0,-32.0,144.0,42.0,27.0,-3.0,-859.0,-149.0,599.0
-202.0,-32.0,142.0,41.0,25.0,-15.0,-849.0,-135.0,594.0
-202.0,-32.0,143.0,41.0,29.0,-20.0,-850.0,-148.0,597.0
-205.0,-35.0,144.0,44.0,28.0,-19.0,-847.0,-156.0,593.0
-205.0,-33.0,141.0,39.0,30.0,-15.0,-853.0,-153.0,593.0
-200.0,-34.0,145.0,28.0,33.0,-11.0,-842.0,-152.0,597.0
-204.0,-32.0,138.0,22.0,36.0,-6.0,-848.0,-154.0,601.0
-203.0,-35.0,145.0,21.0,38.0,-4.0,-845.0,-165.0,600.0
-203.0,-34.0,141.0,22.0,41.0,-5.0,-844.0,-153.0,588.0
-200.0,-36.0,142.0,26.0,43.0,-4.0,-854.0,-155.0,592.0
-204.0,-34.0,140.0,28.0,45.0,-5.0,-851.0,-153.0,601.0
-206.0,-33.0,142.0,30.0,44.0,-5.0,-853.0,-150.0,597.0
-206.0,-33.0,143.0,32.0,41.0,-6.0,-855.0,-147.0,589.0
-206.0,-30.0,143.0,30.0,42.0,-8.0,-855.0,-146.0,593.0
-204.0,-32.0,142.0,28.0,43.0,-7.0,-850.0,-140.0,596.0
-204.0,-32.0,141.0,26.0,42.0,-8.0,-848.0,-141.0,587.0
-203.0,-29.0,142.0,25.0,41.0,-7.0,-849.0,-140.0,596.0
-199.0,-33.0,142.0,24.0,42.0,-10.0,-850.0,-144.0,597.0
-210.0,-42.0,136.0,24.0,42.0,-12.0,-856.0,-138.0,587.0
-209.0,-30.0,142.0,24.0,40.0,-12.0,-850.0,-148.0,591.0
-205.0,-33.0,139.0,25.0,41.0,-14.0,-853.0,-153.0,590.0
-208.0,-35.0,141.0,24.0,40.0,-16.0,-860.0,-153.0,591.0
-205.0,-35.0,141.0,26.0,42.0,-16.0,-862.0,-153.0,593.0
-202.0,-35.0,142.0,27.0,41.0,-16.0,-859.0,-157.0,594.0
-209.0,-33.0,141.0,28.0,41.0,-18.0,-858.0,-152.0,596.0
-206.0,-34.0,140.0,29.0,42.0,-18.0,-860.0,-156.0,599.0
-207.0,-37.0,140.0,32.0,41.0,-19.0,-859.0,-149.0,597.0
-205.0,-32.0,137.0,36.0,40.0,-18.0,-868.0,-150.0,593.0
-206.0,-32.0,141.0,39.0,41.0,-18.0,-860.0,-158.0,595.0
-205.0,-32.0,143.0,40.0,38.0,-20.0,-858.0,-151.0,587.0
-206.0,-32.0,146.0,42.0,36.0,-19.0,-860.0,-154.0,588.0
-206.0,-33.0,143.0,43.0,35.0,-19.0,-862.0,-153.0,593.0
-205.0,-33.0,146.0,46.0,32.0,-19.0,-859.0,-150.0,591.0
-204.0,-34.0,139.0,47.0,31.0,-18.0,-850.0,-152.0,589.0
-203.0,-31.0,137.0,48.0,28.0,-19.0,-851.0,-154.0,585.0
-207.0,-33.0,142.0,48.0,25.0,-20.0,-852.0,-155.0,592.0
-205.0,-34.0,139.0,47.0,23.0,-25.0,-855.0,-155.0,594.0
-206.0,-34.0,145.0,48.0,21.0,-23.0,-858.0,-153.0,594.0
-206.0,-36.0,139.0,51.0,19.0,-23.0,-855.0,-158.0,593.0
-205.0,-33.0,143.0,53.0,19.0,-24.0,-853.0,-159.0,587.0
-203.0,-37.0,141.0,56.0,19.0,-24.0,-851.0,-166.0,591.0
-207.0,-32.0,141.0,60.0,17.0,-22.0,-850.0,-162.0,583.0
-204.0,-36.0,137.0,60.0,16.0,-21.0,-854.0,-165.0,584.0
-205.0,-36.0,140.0,61.0,15.0,-18.0,-857.0,-158.0,592.0
-203.0,-36.0,142.0,61.0,11.0,-16.0,-855.0,-156.0,588.0
-207.0,-34.0,143.0,61.0,10.0,-14.0,-855.0,-162.0,587.0
-206.0,-35.0,140.0,58.0,10.0,-12.0,-856.0,-162.0,588.0
-206.0,-34.0,138.0,59.0,11.0,-8.0,-855.0,-163.0,591.0
-205.0,-38.0,141.0,59.0,11.0,-8.0,-860.0,-163.0,590.0
-203.0,-34.0,143.0,60.0,13.0,-4.0,-847.0,-161.0,585.0
-206.0,-37.0,145.0,62.0,11.0,-2.0,-855.0,-166.0,590.0
-206.0,-37.0,140.0,61.0,10.0,-2.0,-863.0,-165.0,582.0
-206.0,-34.0,139.0,60.0,9.0,1.0,-859.0,-159.0,585.0
-209.0,-32.0,139.0,55.0,7.0,0.0,-861.0,-150.0,587.0
-209.0,-30.0,141.0,50.0,9.0,-1.0,-861.0,-145.0,590.0
-208.0,-31.0,141.0,45.0,10.0,-3.0,-868.0,-145.0,591.0
-207.0,-32.0,140.0,44.0,13.0,-5.0,-860.0,-157.0,592.0
-207.0,-37.0,140.0,46.0,18.0,-7.0,-862.0,-160.0,590.0
-208.0,-38.0,138.0,51.0,19.0,-9.0,-861.0,-168.0,581.0
-208.0,-39.0,139.0,55.0,19.0,-11.0,-865.0,-170.0,582.0
-208.0,-40.0,139.0,59.0,16.0,-11.0,-866.0,-174.0,579.0
-205.0,-39.0,135.0,66.0,11.0,-8.0,-862.0,-171.0,576.0
-208.0,-39.0,134.0,73.0,7.0,-6.0,-860.0,-171.0,574.0
-209.0,-31.0,137.0,77.0,2.0,-5.0,-855.0,-165.0,582.0
-206.0,-34.0,142.0,78.0,-2.0,-4.0,-855.0,-153.0,586.0
-204.0,-30.0,143.0,75.0,-4.0,-3.0,-847.0,-148.0,589.0
-204.0,-30.0,145.0,70.0,-5.0,-2.0,-848.0,-145.0,598.0
-202.0,-31.0,144.0,63.0,-5.0,-5.0,-842.0,-143.0,593.0
-200.0,-33.0,140.0,58.0,-4.0,-5.0,-842.0,-146.0,588.0
-200.0,-32.0,140.0,52.0,-4.0,-6.0,-845.0,-151.0,596.0
-201.0,-35.0,139.0,48.0,-4.0,-5.0,-846.0,-147.0,588.0
-205.0,-30.0,141.0,45.0,-6.0,-5.0,-846.0,-139.0,584.0
-203.0,-29.0,142.0,41.0,-8.0,-5.0,-848.0,-151.0,585.0
-205.0,-33.0,143.0,36.0,-7.0,-5.0,-846.0,-149.0,590.0
-204.0,-34.0,142.0,33.0,-8.0,-5.0,-851.0,-152.0,596.0
-202.0,-35.0,142.0,32.0,-9.0,-9.0,-847.0,-158.0,598.0
-206.0,-38.0,145.0,33.0,-5.0,-10.0,-844.0,-160.0,597.0
-201.0,-39.0,145.0,34.0,-1.0,-8.0,-849.0,-160.0,594.0
-202.0,-36.0,145.0,37.0,1.0,-10.0,-847.0,-158.0,599.0
-202.0,-36.0,144.0,39.0,4.0,-9.0,-853.0,-160.0,596.0
-205.0,-35.0,144.0,42.0,6.0,-8.0,-852.0,-156.0,595.0
-207.0,-35.0,142.0,44.0,7.0,-6.0,-852.0,-155.0,601.0
-200.0,-21.0,137.0,47.0,7.0,-3.0,-856.0,-154.0,596.0
-197.0,-35.0,141.0,49.0,8.0,-2.0,-858.0,-147.0,603.0
-206.0,-34.0,142.0,50.0,9.0,-2.0,-863.0,-145.0,599.0
-203.0,-29.0,142.0,52.0,11.0,-3.0,-860.0,-148.0,595.0
-204.0,-29.0,143.0,50.0,11.0,-3.0,-860.0,-145.0,593.0
-202.0,-32.0,140.0,51.0,12.0,-2.0,-858.0,-135.0,593.0
-202.0,-30.0,144.0,48.0,14.0,-4.0,-854.0,-137.0,595.0
-205.0,-30.0,143.0,46.0,16.0,-7.0,-852.0,-136.0,594.0
-205.0,-31.0,142.0,43.0,15.0,-5.0,-847.0,-142.0,595.0
-207.0,-27.0,144.0,41.0,14.0,-6.0,-852.0,-139.0,597.0
-205.0,-31.0,144.0,40.0,14.0,-7.0,-854.0,-137.0,591.0
-203.0,-31.0,146.0,41.0,15.0,-7.0,-847.0,-140.0,595.0
-205.0,-31.0,143.0,40.0,17.0,-7.0,-851.0,-142.0,594.0
-205.0,-29.0,143.0,41.0,18.0,-9.0,-852.0,-147.0,587.0
-202.0,-30.0,143.0,42.0,18.0,-10.0,-851.0,-150.0,588.0
-204.0,-31.0,140.0,44.0,18.0,-11.0,-857.0,-149.0,593.0
-205.0,-35.0,141.0,46.0,18.0,-14.0,-858.0,-149.0,593.0
-206.0,-32.0,144.0,49.0,19.0,-15.0,-857.0,-150.0,591.0
-203.0,-33.0,143.0,49.0,17.0,-17.0,-854.0,-152.0,592.0
-204.0,-34.0,144.0,49.0,18.0,-18.0,-854.0,-145.0,589.0
-206.0,-34.0,145.0,48.0,20.0,-18.0,-859.0,-152.0,585.0
-206.0,-31.0,142.0,48.0,21.0,-20.0,-861.0,-153.0,592.0
-203.0,-32.0,141.0,46.0,23.0,-21.0,-859.0,-142.0,602.0
-204.0,-37.0,140.0,45.0,24.0,-20.0,-859.0,-148.0,589.0
-207.0,-33.0,141.0,42.0,28.0,-23.0,-852.0,-150.0,594.0
-203.0,-36.0,146.0,40.0,31.0,-23.0,-856.0,-155.0,594.0
-207.0,-34.0,139.0,39.0,35.0,-22.0,-855.0,-158.0,588.0
-205.0,-33.0,144.0,40.0,36.0,-24.0,-849.0,-159.0,599.0
-205.0,-36.0,144.0,43.0,35.0,-25.0,-853.0,-159.0,594.0
-201.0,-34.0,143.0,44.0,35.0,-24.0,-856.0,-163.0,588.0
-204.0,-34.0,144.0,46.0,35.0,-24.0,-852.0,-162.0,593.0
-206.0,-33.0,139.0,45.0,35.0,-23.0,-855.0,-163.0,588.0
-203.0,-35.0,138.0,49.0,33.0,-22.0,-849.0,-156.0,584.0
-203.0,-44.0,146.0,52.0,32.0,-22.0,-846.0,-165.0,587.0
-202.0,-38.0,141.0,56.0,31.0,-21.0,-848.0,-168.0,587.0
-207.0,-36.0,138.0,60.0,28.0,-20.0,-854.0,-166.0,582.0
-204.0,-35.0,141.0,63.0,25.0,-20.0,-851.0,-166.0,589.0
-207.0,-34.0,141.0,64.0,24.0,-22.0,-849.0,-164.0,588.0
-205.0,-37.0,139.0,65.0,20.0,-21.0,-855.0,-157.0,588.0
-204.0,-33.0,140.0,65.0,20.0,-19.0,-846.0,-153.0,590.0
-205.0,-34.0,140.0,62.0,21.0,-18.0,-848.0,-152.0,589.0
-205.0,-32.0,139.0,57.0,21.0,-19.0,-853.0,-150.0,592.0
-204.0,-30.0,140.0,50.0,22.0,-19.0,-848.0,-149.0,590.0
-204.0,-33.0,140.0,43.0,23.0,-18.0,-852.0,-144.0,583.0
-204.0,-34.0,140.0,37.0,23.0,-14.0,-850.0,-151.0,587.0
-210.0,-29.0,141.0,33.0,23.0,-13.0,-856.0,-157.0,593.0
-207.0,-34.0,140.0,30.0,23.0,-13.0,-857.0,-165.0,585.0
-203.0,-35.0,142.0,28.0,23.0,-12.0,-859.0,-161.0,590.0
-207.0,-34.0,141.0,29.0,22.0,-9.0,-860.0,-164.0,592.0
-206.0,-36.0,138.0,30.0,22.0,-8.0,-861.0,-165.0,587.0
-208.0,-36.0,144.0,32.0,23.0,-8.0,-860.0,-163.0,589.0
-206.0,-36.0,140.0,33.0,22.0,-7.0,-859.0,-165.0,590.0
-206.0,-38.0,138.0,34.0,20.0,-5.0,-859.0,-165.0,593.0
-209.0,-36.0,142.0,36.0,18.0,-3.0,-863.0,-163.0,594.0
-206.0,-37.0,142.0,38.0,17.0,-4.0,-857.0,-165.0,593.0
-206.0,-34.0,139.0,41.0,16.0,-3.0,-855.0,-167.0,587.0
-206.0,-33.0,141.0,43.0,14.0,0.0,-859.0,-166.0,586.0
-208.0,-35.0,140.0,43.0,12.0,1.0,-862.0,-158.0,595.0
-206.0,-39.0,140.0,44.0,13.0,-2.0,-854.0,-166.0,590.0
-205.0,-35.0,141.0,44.0,12.0,-2.0,-851.0,-164.0,589.0
-205.0,-34.0,141.0,46.0,12.0,-3.0,-851.0,-155.0,592.0
-205.0,-35.0,140.0,46.0,13.0,-1.0,-851.0,-152.0,585.0
-203.0,-36.0,143.0,46.0,13.0,-3.0,-858.0,-153.0,587.0
-204.0,-34.0,139.0,46.0,13.0,-4.0,-844.0,-152.0,592.0
-205.0,-32.0,141.0,45.0,14.0,-5.0,-846.0,-155.0,586.0
-205.0,-34.0,140.0,45.0,15.0,-6.0,-850.0,-150.0,591.0
-203.0,-34.0,141.0,43.0,13.0,-6.0,-848.0,-154.0,591.0
-211.0,-47.0,133.0,43.0,11.0,-7.0,-851.0,-152.0,594.0
-206.0,-35.0,142.0,42.0,9.0,-7.0,-853.0,-158.0,592.0
-204.0,-34.0,140.0,41.0,8.0,-8.0,-855.0,-156.0,588.0
-203.0,-35.0,142.0,42.0,10.0,-10.0,-855.0,-157.0,593.0
-204.0,-36.0,142.0,43.0,10.0,-9.0,-854.0,-154.0,594.0
-203.0,-33.0,142.0,44.0,9.0,-11.0,-857.0,-153.0,591.0
-205.0,-35.0,141.0,46.0,9.0,-11.0,-855.0,-152.0,597.0
-205.0,-33.0,137.0,47.0,10.0,-11.0,-853.0,-158.0,592.0
-206.0,-35.0,142.0,48.0,12.0,-11.0,-851.0,-159.0,588.0
-205.0,-34.0,143.0,51.0,12.0,-10.0,-859.0,-154.0,588.0
-204.0,-36.0,141.0,52.0,11.0,-11.0,-851.0,-153.0,586.0
-207.0,-31.0,140.0,55.0,9.0,-11.0,-850.0,-151.0,591.0
-205.0,-33.0,139.0,55.0,8.0,-10.0,-860.0,-152.0,592.0
-208.0,-32.0,142.0,57.0,7.0,-11.0,-862.0,-151.0,588.0
-209.0,-32.0,138.0,56.0,5.0,-12.0,-865.0,-146.0,590.0
-206.0,-33.0,140.0,56.0,3.0,-14.0,-859.0,-149.0,587.0
-208.0,-32.0,140.0,56.0,4.0,-17.0,-860.0,-140.0,592.0
-206.0,-30.0,141.0,53.0,5.0,-15.0,-858.0,-149.0,585.0
-209.0,-30.0,141.0,51.0,4.0,-17.0,-860.0,-148.0,593.0
-204.0,-34.0,138.0,48.0,5.0,-17.0,-851.0,-138.0,589.0
-206.0,-32.0,139.0,45.0,7.0,-18.0,-857.0,-152.0,583.0
-204.0,-35.0,142.0,45.0,10.0,-20.0,-851.0,-142.0,594.0
-204.0,-34.0,141.0,42.0,9.0,-18.0,-858.0,-144.0,595.0
-206.0,-35.0,140.0,41.0,9.0,-16.0,-857.0,-145.0,591.0
-208.0,-32.0,139.0,38.0,9.0,-16.0,-854.0,-149.0,589.0
-204.0,-35.0,140.0,37.0,10.0,-18.0,-853.0,-150.0,593.0
-205.0,-35.0,140.0,36.0,10.0,-17.0,-856.0,-160.0,587.0
-206.0,-33.0,142.0,37.0,11.0,-17.0,-859.0,-165.0,584.0
-206.0,-33.0,140.0,40.0,11.0,-16.0,-855.0,-159.0,589.0
-206.0,-33.0,142.0,42.0,10.0,-14.0,-858.0,-155.0,589.0
-207.0,-31.0,142.0,42.0,7.0,-16.0,-859.0,-155.0,581.0
-206.0,-35.0,147.0,40.0,5.0,-14.0,-858.0,-151.0,580.0
-207.0,-29.0,143.0,34.0,2.0,-14.0,-857.0,-142.0,589.0
-210.0,-29.0,142.0,27.0,-1.0,-13.0,-857.0,-137.0,591.0
-203.0,-31.0,141.0,22.0,0.0,-12.0,-851.0,-143.0,594.0
-207.0,-32.0,143.0,20.0,2.0,-13.0,-849.0,-151.0,590.0
-205.0,-34.0,141.0,20.0,3.0,-11.0,-844.0,-153.0,591.0
-201.0,-37.0,140.0,22.0,3.0,-12.0,-851.0,-158.0,582.0
-206.0,-39.0,137.0,25.0,2.0,-10.0,-856.0,-168.0,589.0
-203.0,-42.0,137.0,31.0,1.0,-11.0,-855.0,-179.0,588.0
-206.0,-40.0,140.0,39.0,1.0,-9.0,-853.0,-179.0,582.0
-206.0,-41.0,139.0,49.0,-2.0,-10.0,-858.0,-179.0,585.0
-208.0,-38.0,136.0,57.0,-5.0,-8.0,-857.0,-178.0,584.0
-207.0,-36.0,138.0,63.0,-8.0,-9.0,-858.0,-169.0,589.0
-206.0,-34.0,141.0,66.0,-12.0,-8.0,-857.0,-163.0,594.0
-203.0,-31.0,141.0,67.0,-15.0,-8.0,-859.0,-151.0,602.0
-203.0,-34.0,148.0,66.0,-14.0,-9.0,-856.0,-150.0,598.0
-202.0,-33.0,142.0,64.0,-12.0,-11.0,-849.0,-149.0,596.0
-204.0,-32.0,141.0,59.0,-9.0,-12.0,-858.0,-149.0,596.0
-205.0,-32.0,140.0,55.0,-8.0,-12.0,-852.0,-150.0,590.0
-205.0,-32.0,138.0,50.0,-8.0,-11.0,-848.0,-149.0,592.0
-206.0,-31.0,140.0,46.0,-8.0,-10.0,-848.0,-154.0,591.0
-204.0,-37.0,140.0,44.0,-8.0,-12.0,-847.0,-161.0,591.0
-205.0,-38.0,142.0,40.0,-8.0,-10.0,-850.0,-161.0,595.0
-204.0,-35.0,142.0,38.0,-7.0,-10.0,-845.0,-166.0,600.0
-202.0,-38.0,142.0,38.0,-5.0,-10.0,-848.0,-162.0,595.0
-202.0,-35.0,146.0,38.0,0.0,-9.0,-847.0,-163.0,603.0
-203.0,-37.0,146.0,37.0,5.0,-8.0,-848.0,-159.0,597.0
-204.0,-37.0,146.0,38.0,9.0,-7.0,-843.0,-167.0,602.0
-202.0,-37.0,144.0,40.0,12.0,-8.0,-847.0,-166.0,610.0
-202.0,-42.0,147.0,42.0,15.0,-6.0,-841.0,-171.0,607.0
-199.0,-36.0,142.0,45.0,17.0,-6.0,-844.0,-170.0,600.0
-201.0,-37.0,142.0,48.0,18.0,-5.0,-844.0,-167.0,606.0
-204.0,-35.0,140.0,48.0,22.0,-5.0,-846.0,-171.0,603.0
-202.0,-42.0,152.0,51.0,21.0,-2.0,-849.0,-168.0,601.0
-196.0,-36.0,138.0,53.0,22.0,-4.0,-847.0,-166.0,599.0
-201.0,-36.0,141.0,54.0,23.0,-4.0,-854.0,-158.0,598.0
-201.0,-38.0,141.0,56.0,24.0,-6.0,-848.0,-161.0,598.0
-207.0,-34.0,144.0,56.0,26.0,-7.0,-856.0,-155.0,599.0
-203.0,-36.0,143.0,57.0,27.0,-8.0,-846.0,-159.0,592.0
-202.0,-39.0,141.0,57.0,28.0,-7.0,-843.0,-161.0,593.0
-204.0,-35.0,143.0,59.0,28.0,-9.0,-853.0,-164.0,598.0
-205.0,-35.0,141.0,61.0,28.0,-7.0,-850.0,-160.0,602.0
-204.0,-36.0,143.0,62.0,25.0,-10.0,-854.0,-155.0,599.0
-204.0,-36.0,142.0,62.0,25.0,-11.0,-852.0,-154.0,590.0
-203.0,-33.0,142.0,64.0,26.0,-12.0,-857.0,-158.0,593.0
-204.0,-37.0,142.0,64.0,26.0,-14.0,-850.0,-161.0,592.0
-202.0,-35.0,142.0,64.0,25.0,-14.0,-852.0,-156.0,586.0
-202.0,-32.0,145.0,62.0,24.0,-13.0,-851.0,-157.0,598.0
-204.0,-34.0,144.0,62.0,23.0,-13.0,-855.0,-159.0,593.0
-208.0,-31.0,142.0,62.0,23.0,-12.0,-862.0,-154.0,586.0
-207.0,-35.0,141.0,64.0,23.0,-12.0,-857.0,-155.0,589.0
-206.0,-35.0,142.0,64.0,21.0,-14.0,-855.0,-156.0,587.0
-210.0,-32.0,143.0,64.0,20.0,-15.0,-860.0,-150.0,591.0
-209.0,-30.0,140.0,64.0,18.0,-14.0,-855.0,-150.0,587.0
-208.0,-35.0,143.0,63.0,17.0,-14.0,-862.0,-152.0,584.0
-205.0,-34.0,140.0,63.0,13.0,-14.0,-859.0,-158.0,585.0
-207.0,-35.0,137.0,65.0,12.0,-15.0,-860.0,-154.0,581.0
-207.0,-37.0,138.0,65.0,8.0,-14.0,-860.0,-151.0,586.0
-208.0,-32.0,139.0,67.0,3.0,-14.0,-863.0,-160.0,587.0
-211.0,-33.0,141.0,67.0,-1.0,-16.0,-863.0,-154.0,587.0
-207.0,-33.0,135.0,67.0,-4.0,-15.0,-856.0,-156.0,587.0
-208.0,-32.0,141.0,65.0,-4.0,-19.0,-865.0,-151.0,592.0
-208.0,-33.0,143.0,64.0,-4.0,-20.0,-862.0,-150.0,593.0
-209.0,-30.0,142.0,63.0,-5.0,-19.0,-858.0,-153.0,595.0
-208.0,-31.0,140.0,63.0,-7.0,-18.0,-861.0,-154.0,591.0
-206.0,-36.0,141.0,61.0,-6.0,-17.0,-859.0,-156.0,589.0
-205.0,-34.0,141.0,58.0,-4.0,-17.0,-856.0,-157.0,588.0
-203.0,-38.0,141.0,56.0,-3.0,-17.0,-855.0,-158.0,593.0
-209.0,-32.0,138.0,55.0,-2.0,-16.0,-861.0,-152.0,592.0
-206.0,-33.0,139.0,52.0,-4.0,-16.0,-857.0,-156.0,591.0
-207.0,-32.0,140.0,52.0,-7.0,-14.0,-858.0,-153.0,591.0
-206.0,-34.0,140.0,51.0,-8.0,-13.0,-858.0,-151.0,586.0
-205.0,-33.0,143.0,51.0,-9.0,-15.0,-863.0,-157.0,583.0
-205.0,-32.0,145.0,49.0,-13.0,-13.0,-855.0,-150.0,586.0
-206.0,-32.0,148.0,49.0,-15.0,-14.0,-857.0,-155.0,590.0
-207.0,-38.0,145.0,50.0,-17.0,-14.0,-857.0,-154.0,590.0
-206.0,-33.0,141.0,51.0,-20.0,-13.0,-858.0,-161.0,587.0
-203.0,-35.0,139.0,53.0,-23.0,-16.0,-857.0,-156.0,589.0
-205.0,-30.0,141.0,51.0,-26.0,-14.0,-855.0,-149.0,592.0
-208.0,-34.0,142.0,50.0,-28.0,-14.0,-855.0,-151.0,589.0
-206.0,-34.0,137.0,48.0,-28.0,-13.0,-850.0,-154.0,587.0
-200.0,-36.0,141.0,47.0,-31.0,-13.0,-850.0,-157.0,586.0
-204.0,-35.0,143.0,45.0,-33.0,-16.0,-852.0,-154.0,592.0
-206.0,-36.0,141.0,45.0,-34.0,-15.0,-851.0,-157.0,592.0
-204.0,-35.0,144.0,45.0,-34.0,-16.0,-846.0,-156.0,593.0
-204.0,-34.0,141.0,44.0,-33.0,-15.0,-849.0,-160.0,593.0
-204.0,-36.0,145.0,45.0,-33.0,-13.0,-846.0,-159.0,599.0
-202.0,-36.0,145.0,46.0,-32.0,-15.0,-845.0,-159.0,601.0
-204.0,-35.0,143.0,45.0,-31.0,-14.0,-849.0,-157.0,602.0
-205.0,-34.0,145.0,45.0,-28.0,-13.0,-845.0,-158.0,603.0
-203.0,-34.0,145.0,43.0,-26.0,-14.0,-847.0,-153.0,602.0
-204.0,-35.0,141.0,44.0,-24.0,-14.0,-846.0,-156.0,598.0
-205.0,-37.0,142.0,45.0,-22.0,-12.0,-846.0,-162.0,597.0
-202.0,-34.0,143.0,45.0,-21.0,-11.0,-848.0,-167.0,606.0
-206.0,-33.0,146.0,47.0,-20.0,-13.0,-843.0,-164.0,608.0
-204.0,-33.0,144.0,47.0,-17.0,-13.0,-840.0,-160.0,604.0
-203.0,-33.0,143.0,49.0,-16.0,-13.0,-845.0,-160.0,605.0
-205.0,-35.0,142.0,51.0,-16.0,-14.0,-844.0,-152.0,598.0
-200.0,-25.0,140.0,52.0,-16.0,-15.0,-843.0,-159.0,604.0
-200.0,-34.0,142.0,52.0,-16.0,-15.0,-845.0,-158.0,598.0
-204.0,-36.0,147.0,53.0,-14.0,-15.0,-842.0,-156.0,605.0
-202.0,-34.0,143.0,53.0,-13.0,-15.0,-840.0,-157.0,602.0
-201.0,-35.0,143.0,55.0,-12.0,-15.0,-843.0,-155.0,608.0
-203.0,-34.0,139.0,55.0,-10.0,-18.0,-839.0,-157.0,606.0
-203.0,-35.0,143.0,54.0,-9.0,-18.0,-843.0,-158.0,602.0
-200.0,-39.0,143.0,54.0,-7.0,-16.0,-841.0,-163.0,606.0
-203.0,-37.0,147.0,54.0,-6.0,-15.0,-840.0,-158.0,607.0
-200.0,-38.0,146.0,55.0,-7.0,-16.0,-838.0,-164.0,606.0
-203.0,-36.0,144.0,54.0,-5.0,-17.0,-843.0,-157.0,604.0
-201.0,-40.0,143.0,57.0,-3.0,-18.0,-835.0,-163.0,606.0
-204.0,-35.0,144.0,56.0,-1.0,-18.0,-841.0,-159.0,598.0
-204.0,-34.0,144.0,56.0,2.0,-17.0,-841.0,-161.0,603.0
-202.0,-34.0,145.0,55.0,5.0,-16.0,-841.0,-164.0,606.0
-202.0,-36.0,145.0,56.0,5.0,-17.0,-843.0,-156.0,606.0
-204.0,-33.0,144.0,56.0,8.0,-19.0,-844.0,-161.0,605.0
-202.0,-36.0,143.0,55.0,10.0,-19.0,-846.0,-161.0,607.0
-203.0,-34.0,142.0,56.0,8.0,-19.0,-841.0,-159.0,600.0
-202.0,-36.0,145.0,56.0,9.0,-17.0,-840.0,-166.0,606.0
-205.0,-34.0,141.0,56.0,10.0,-19.0,-842.0,-163.0,604.0
-204.0,-34.0,146.0,59.0,11.0,-19.0,-850.0,-166.0,603.0
-203.0,-36.0,147.0,60.0,11.0,-18.0,-846.0,-160.0,596.0
-205.0,-36.0,142.0,60.0,12.0,-17.0,-849.0,-163.0,603.0
-200.0,-37.0,144.0,61.0,12.0,-15.0,-849.0,-166.0,600.0
-203.0,-36.0,143.0,61.0,11.0,-18.0,-852.0,-167.0,595.0
-205.0,-37.0,142.0,63.0,13.0,-17.0,-851.0,-165.0,595.0
-204.0,-37.0,143.0,64.0,15.0,-16.0,-846.0,-165.0,599.0
-203.0,-34.0,144.0,65.0,14.0,-16.0,-844.0,-158.0,596.0
-203.0,-35.0,142.0,67.0,13.0,-17.0,-846.0,-164.0,598.0
-206.0,-34.0,145.0,66.0,12.0,-16.0,-850.0,-155.0,601.0
-205.0,-33.0,147.0,65.0,13.0,-16.0,-844.0,-162.0,607.0
-200.0,-37.0,145.0,64.0,13.0,-14.0,-844.0,-157.0,604.0
-214.0,-30.0,146.0,63.0,13.0,-13.0,-848.0,-157.0,602.0
-201.0,-34.0,143.0,63.0,15.0,-15.0,-843.0,-153.0,606.0
-201.0,-34.0,145.0,62.0,17.0,-14.0,-839.0,-159.0,607.0
-201.0,-33.0,143.0,63.0,19.0,-12.0,-842.0,-159.0,593.0
-202.0,-37.0,142.0,63.0,21.0,-14.0,-844.0,-167.0,597.0
-204.0,-35.0,143.0,64.0,22.0,-10.0,-844.0,-163.0,591.0
-204.0,-37.0,144.0,65.0,21.0,-9.0,-846.0,-167.0,601.0
-202.0,-35.0,138.0,65.0,20.0,-8.0,-849.0,-170.0,594.0
-204.0,-34.0,142.0,64.0,18.0,-6.0,-857.0,-158.0,599.0
-204.0,-30.0,142.0,62.0,13.0,-7.0,-854.0,-155.0,604.0
-204.0,-34.0,143.0,60.0,12.0,-8.0,-854.0,-151.0,597.0
-203.0,-31.0,144.0,56.0,13.0,-9.0,-850.0,-151.0,602.0
-208.0,-35.0,144.0,57.0,15.0,-9.0,-846.0,-152.0,597.0
-204.0,-34.0,143.0,57.0,17.0,-10.0,-854.0,-151.0,593.0
-203.0,-34.0,141.0,58.0,17.0,-12.0,-848.0,-155.0,593.0
-206.0,-33.0,140.0,61.0,16.0,-11.0,-852.0,-161.0,592.0
-204.0,-38.0,142.0,65.0,15.0,-12.0,-853.0,-168.0,589.0
-205.0,-36.0,140.0,71.0,14.0,-12.0,-855.0,-168.0,592.0
-204.0,-39.0,142.0,73.0,13.0,-12.0,-856.0,-165.0,592.0
-206.0,-35.0,142.0,76.0,9.0,-9.0,-847.0,-158.0,597.0
-201.0,-38.0,145.0,74.0,5.0,-11.0,-847.0,-156.0,602.0
-204.0,-35.0,143.0,72.0,3.0,-11.0,-850.0,-158.0,605.0
-199.0,-34.0,147.0,68.0,2.0,-9.0,-845.0,-152.0,606.0
-204.0,-36.0,144.0,66.0,2.0,-9.0,-845.0,-158.0,605.0
-204.0,-37.0,143.0,65.0,3.0,-7.0,-845.0,-158.0,597.0
-205.0,-34.0,150.0,64.0,3.0,-8.0,-851.0,-157.0,599.0
-201.0,-32.0,144.0,64.0,4.0,-8.0,-847.0,-153.0,596.0
-204.0,-34.0,143.0,63.0,6.0,-9.0,-846.0,-156.0,590.0
-202.0,-36.0,137.0,61.0,6.0,-9.0,-848.0,-161.0,588.0
-204.0,-36.0,144.0,59.0,5.0,-10.0,-850.0,-156.0,597.0
-206.0,-34.0,147.0,57.0,3.0,-10.0,-854.0,-158.0,598.0
-203.0,-36.0,144.0,55.0,1.0,-8.0,-848.0,-154.0,606.0
-201.0,-34.0,144.0,55.0,1.0,-7.0,-845.0,-156.0,597.0
-201.0,-32.0,148.0,54.0,0.0,-8.0,-845.0,-156.0,606.0
-213.0,-33.0,148.0,54.0,-2.0,-6.0,-846.0,-156.0,609.0
-204.0,-35.0,147.0,54.0,-3.0,-5.0,-843.0,-160.0,603.0
-203.0,-35.0,143.0,55.0,-2.0,-6.0,-845.0,-160.0,609.0
-201.0,-32.0,144.0,57.0,-2.0,-7.0,-841.0,-160.0,606.0
-201.0,-34.0,145.0,58.0,0.0,-9.0,-848.0,-163.0,605.0
-202.0,-37.0,144.0,59.0,0.0,-8.0,-853.0,-158.0,607.0
-202.0,-33.0,144.0,62.0,1.0,-7.0,-847.0,-151.0,600.0
-201.0,-35.0,147.0,63.0,2.0,-9.0,-844.0,-156.0,594.0
-206.0,-33.0,144.0,64.0,1.0,-7.0,-847.0,-155.0,592.0
-203.0,-35.0,143.0,64.0,2.0,-7.0,-841.0,-153.0,598.0
-204.0,-34.0,143.0,66.0,1.0,-9.0,-846.0,-150.0,599.0
-204.0,-34.0,143.0,65.0,-1.0,-8.0,-847.0,-149.0,607.0
-206.0,-32.0,143.0,64.0,-2.0,-9.0,-847.0,-150.0,600.0
-207.0,-33.0,145.0,65.0,-4.0,-10.0,-850.0,-149.0,598.0
-205.0,-33.0,145.0,65.0,-5.0,-13.0,-845.0,-149.0,604.0
-201.0,-35.0,144.0,66.0,-7.0,-14.0,-847.0,-145.0,599.0
-205.0,-35.0,141.0,65.0,-8.0,-15.0,-849.0,-150.0,594.0
-204.0,-31.0,142.0,65.0,-6.0,-15.0,-846.0,-150.0,595.0
-206.0,-33.0,147.0,65.0,-6.0,-15.0,-847.0,-151.0,596.0
-202.0,-34.0,142.0,63.0,-7.0,-17.0,-847.0,-154.0,603.0
-204.0,-34.0,143.0,62.0,-5.0,-16.0,-850.0,-151.0,609.0
-204.0,-29.0,139.0,60.0,-5.0,-16.0,-854.0,-149.0,600.0
-203.0,-30.0,145.0,58.0,-4.0,-16.0,-843.0,-145.0,599.0
-204.0,-33.0,145.0,57.0,-4.0,-17.0,-851.0,-149.0,602.0
-206.0,-32.0,145.0,57.0,-3.0,-16.0,-847.0,-155.0,605.0
-203.0,-35.0,142.0,56.0,-3.0,-16.0,-849.0,-152.0,606.0
-204.0,-33.0,141.0,55.0,-3.0,-17.0,-850.0,-153.0,606.0
-205.0,-35.0,147.0,54.0,-4.0,-16.0,-845.0,-154.0,611.0
-205.0,-32.0,143.0,55.0,-5.0,-16.0,-845.0,-158.0,602.0
-200.0,-35.0,144.0,54.0,-5.0,-15.0,-839.0,-162.0,603.0
-202.0,-35.0,142.0,55.0,-4.0,-13.0,-844.0,-161.0,598.0
-200.0,-42.0,154.0,56.0,-4.0,-15.0,-844.0,-164.0,599.0
-202.0,-39.0,144.0,57.0,-5.0,-16.0,-838.0,-165.0,603.0
-201.0,-37.0,141.0,59.0,-4.0,-14.0,-844.0,-165.0,601.0
-202.0,-36.0,144.0,60.0,-1.0,-15.0,-842.0,-166.0,601.0
-205.0,-37.0,146.0,60.0,1.0,-15.0,-841.0,-168.0,602.0
-201.0,-35.0,146.0,61.0,0.0,-13.0,-843.0,-164.0,599.0
-208.0,-32.0,143.0,61.0,0.0,-14.0,-844.0,-162.0,603.0
-201.0,-36.0,144.0,62.0,-2.0,-13.0,-842.0,-158.0,603.0
-203.0,-33.0,143.0,62.0,-2.0,-12.0,-842.0,-161.0,600.0
-202.0,-37.0,144.0,62.0,-2.0,-14.0,-845.0,-156.0,603.0
-203.0,-36.0,143.0,61.0,-3.0,-13.0,-846.0,-160.0,607.0
-203.0,-35.0,145.0,62.0,-4.0,-12.0,-843.0,-157.0,610.0
-206.0,-39.0,138.0,60.0,-5.0,-11.0,-834.0,-158.0,607.0
-201.0,-35.0,142.0,58.0,-3.0,-10.0,-833.0,-154.0,605.0
-201.0,-33.0,143.0,57.0,-2.0,-11.0,-843.0,-157.0,607.0
-201.0,-33.0,142.0,56.0,-3.0,-11.0,-843.0,-163.0,611.0
-201.0,-36.0,142.0,55.0,-3.0,-12.0,-842.0,-155.0,609.0
-201.0,-34.0,140.0,54.0,-3.0,-9.0,-846.0,-159.0,607.0
-202.0,-31.0,148.0,54.0,-3.0,-10.0,-839.0,-160.0,609.0
-204.0,-35.0,148.0,54.0,-1.0,-9.0,-839.0,-161.0,607.0
-200.0,-35.0,144.0,55.0,0.0,-9.0,-840.0,-158.0,606.0
-200.0,-34.0,143.0,55.0,2.0,-11.0,-841.0,-157.0,603.0
-204.0,-33.0,146.0,57.0,1.0,-10.0,-839.0,-158.0,605.0
-204.0,-33.0,143.0,59.0,1.0,-9.0,-847.0,-162.0,605.0
-206.0,-34.0,144.0,58.0,2.0,-7.0,-846.0,-154.0,605.0
-204.0,-36.0,145.0,57.0,2.0,-8.0,-843.0,-157.0,606.0
-204.0,-33.0,148.0,60.0,2.0,-8.0,-840.0,-152.0,604.0
-200.0,-35.0,145.0,60.0,2.0,-8.0,-841.0,-156.0,618.0
-201.0,-34.0,145.0,60.0,3.0,-7.0,-843.0,-155.0,613.0
-202.0,-32.0,142.0,59.0,4.0,-7.0,-841.0,-155.0,604.0
-204.0,-33.0,146.0,57.0,6.0,-7.0,-838.0,-151.0,608.0
-201.0,-34.0,145.0,56.0,8.0,-9.0,-838.0,-153.0,612.0
-201.0,-34.0,142.0,55.0,7.0,-8.0,-842.0,-153.0,609.0
-206.0,-31.0,137.0,56.0,10.0,-6.0,-839.0,-153.0,605.0
-206.0,-40.0,158.0,54.0,11.0,-8.0,-837.0,-153.0,608.0
-200.0,-36.0,143.0,55.0,11.0,-9.0,-844.0,-153.0,607.0
-201.0,-33.0,142.0,55.0,13.0,-8.0,-846.0,-154.0,605.0
-201.0,-36.0,144.0,56.0,13.0,-9.0,-845.0,-151.0,608.0
-204.0,-30.0,147.0,56.0,13.0,-8.0,-850.0,-151.0,600.0
-201.0,-36.0,148.0,57.0,11.0,-9.0,-843.0,-153.0,605.0
-202.0,-32.0,143.0,58.0,11.0,-8.0,-839.0,-152.0,608.0
-202.0,-33.0,145.0,57.0,11.0,-9.0,-843.0,-153.0,617.0
-201.0,-31.0,145.0,58.0,9.0,-11.0,-845.0,-149.0,610.0
-202.0,-32.0,143.0,57.0,10.0,-12.0,-844.0,-148.0,612.0
-203.0,-33.0,146.0,57.0,10.0,-12.0,-843.0,-150.0,607.0
-199.0,-31.0,144.0,56.0,11.0,-11.0,-841.0,-152.0,606.0
-203.0,-33.0,149.0,56.0,13.0,-12.0,-841.0,-151.0,608.0
-204.0,-32.0,142.0,54.0,12.0,-11.0,-842.0,-150.0,601.0
-201.0,-31.0,145.0,54.0,14.0,-10.0,-842.0,-146.0,604.0
-203.0,-36.0,143.0,55.0,15.0,-11.0,-843.0,-151.0,605.0
-205.0,-31.0,149.0,54.0,15.0,-10.0,-843.0,-151.0,623.0
-199.0,-34.0,146.0,53.0,14.0,-12.0,-846.0,-151.0,608.0
-199.0,-36.0,148.0,53.0,15.0,-14.0,-839.0,-153.0,608.0
-201.0,-34.0,144.0,50.0,15.0,-13.0,-838.0,-155.0,609.0
-200.0,-32.0,146.0,50.0,15.0,-14.0,-838.0,-154.0,605.0
-202.0,-33.0,147.0,48.0,16.0,-14.0,-841.0,-151.0,610.0
-205.0,-31.0,148.0,47.0,17.0,-15.0,-842.0,-152.0,613.0
-202.0,-33.0,147.0,46.0,19.0,-15.0,-842.0,-155.0,613.0
-202.0,-34.0,143.0,46.0,22.0,-14.0,-840.0,-151.0,613.0
-201.0,-35.0,140.0,46.0,22.0,-14.0,-836.0,-157.0,608.0
-203.0,-35.0,145.0,45.0,22.0,-14.0,-840.0,-156.0,606.0
-199.0,-35.0,145.0,46.0,21.0,-13.0,-840.0,-153.0,607.0
-202.0,-34.0,145.0,46.0,21.0,-11.0,-846.0,-161.0,606.0
-200.0,-33.0,150.0,47.0,19.0,-10.0,-841.0,-150.0,610.0
-204.0,-33.0,145.0,48.0,17.0,-10.0,-847.0,-157.0,606.0
-203.0,-35.0,141.0,49.0,17.0,-12.0,-844.0,-163.0,607.0
-202.0,-35.0,144.0,49.0,18.0,-13.0,-837.0,-153.0,607.0
-202.0,-33.0,141.0,49.0,19.0,-13.0,-840.0,-152.0,603.0
-202.0,-31.0,146.0,50.0,18.0,-12.0,-842.0,-155.0,608.0
-203.0,-33.0,147.0,49.0,19.0,-10.0,-840.0,-156.0,596.0
-202.0,-31.0,141.0,46.0,19.0,-9.0,-840.0,-157.0,605.0
-201.0,-36.0,146.0,45.0,20.0,-10.0,-843.0,-156.0,604.0
-205.0,-30.0,141.0,45.0,20.0,-10.0,-840.0,-151.0,606.0
-201.0,-33.0,145.0,44.0,20.0,-9.0,-843.0,-152.0,606.0
-199.0,-37.0,146.0,44.0,20.0,-10.0,-844.0,-164.0,608.0
-204.0,-40.0,145.0,46.0,21.0,-11.0,-845.0,-165.0,603.0
-205.0,-33.0,143.0,48.0,21.0,-11.0,-848.0,-155.0,605.0
-201.0,-36.0,142.0,49.0,20.0,-11.0,-844.0,-155.0,601.0
-214.0,-35.0,141.0,51.0,19.0,-11.0,-840.0,-154.0,598.0
-203.0,-32.0,145.0,50.0,19.0,-10.0,-846.0,-155.0,601.0
-206.0,-33.0,145.0,50.0,18.0,-9.0,-845.0,-154.0,611.0
-200.0,-34.0,145.0,48.0,16.0,-10.0,-842.0,-159.0,603.0
-202.0,-31.0,147.0,47.0,16.0,-12.0,-845.0,-156.0,602.0
-202.0,-31.0,146.0,47.0,16.0,-9.0,-846.0,-155.0,605.0
-203.0,-36.0,146.0,47.0,16.0,-9.0,-843.0,-153.0,607.0
-205.0,-34.0,141.0,47.0,15.0,-10.0,-842.0,-157.0,607.0
-203.0,-33.0,140.0,46.0,14.0,-10.0,-850.0,-155.0,616.0
-204.0,-35.0,144.0,48.0,14.0,-10.0,-848.0,-153.0,610.0
-205.0,-34.0,141.0,49.0,13.0,-12.0,-844.0,-157.0,600.0
-202.0,-35.0,145.0,47.0,15.0,-12.0,-837.0,-162.0,606.0
-199.0,-34.0,143.0,48.0,15.0,-11.0,-842.0,-165.0,602.0
-204.0,-37.0,143.0,52.0,17.0,-10.0,-843.0,-168.0,608.0
-202.0,-38.0,147.0,56.0,16.0,-10.0,-842.0,-169.0,597.0
-203.0,-37.0,142.0,57.0,13.0,-10.0,-850.0,-164.0,591.0
-206.0,-33.0,144.0,60.0,10.0,-12.0,-859.0,-153.0,600.0
-202.0,-34.0,146.0,60.0,8.0,-12.0,-849.0,-145.0,598.0
-206.0,-29.0,142.0,59.0,6.0,-13.0,-857.0,-141.0,605.0
-206.0,-28.0,144.0,57.0,5.0,-12.0,-848.0,-140.0,604.0
-195.0,-33.0,144.0,54.0,5.0,-14.0,-845.0,-139.0,606.0
-204.0,-39.0,143.0,54.0,5.0,-15.0,-840.0,-149.0,602.0
-202.0,-34.0,143.0,55.0,4.0,-15.0,-838.0,-158.0,598.0
-199.0,-41.0,144.0,54.0,2.0,-18.0,-835.0,-168.0,598.0
-198.0,-36.0,141.0,59.0,2.0,-18.0,-838.0,-179.0,589.0
-202.0,-35.0,145.0,62.0,1.0,-16.0,-835.0,-175.0,591.0
-202.0,-36.0,144.0,65.0,0.0,-15.0,-839.0,-174.0,605.0
-201.0,-36.0,146.0,68.0,-2.0,-12.0,-833.0,-166.0,602.0
-200.0,-37.0,149.0,66.0,-4.0,-11.0,-841.0,-167.0,614.0
-202.0,-37.0,145.0,66.0,-5.0,-9.0,-845.0,-161.0,614.0
-202.0,-35.0,146.0,66.0,-5.0,-9.0,-846.0,-159.0,623.0
-205.0,-35.0,147.0,66.0,-2.0,-6.0,-841.0,-160.0,612.0
-203.0,-38.0,145.0,65.0,2.0,-8.0,-846.0,-163.0,607.0
-205.0,-36.0,147.0,67.0,4.0,-9.0,-849.0,-162.0,604.0
-203.0,-34.0,141.0,68.0,4.0,-9.0,-853.0,-155.0,599.0
-203.0,-33.0,145.0,67.0,4.0,-11.0,-850.0,-152.0,594.0
-205.0,-32.0,141.0,66.0,3.0,-11.0,-851.0,-147.0,591.0
-205.0,-31.0,143.0,64.0,2.0,-11.0,-852.0,-153.0,603.0
-203.0,-33.0,145.0,62.0,-1.0,-10.0,-839.0,-151.0,604.0
-203.0,-33.0,144.0,62.0,-2.0,-9.0,-845.0,-153.0,619.0
-201.0,-34.0,145.0,60.0,-1.0,-10.0,-837.0,-158.0,606.0
-202.0,-36.0,145.0,58.0,-2.0,-9.0,-833.0,-157.0,618.0
-202.0,-33.0,149.0,58.0,0.0,-6.0,-839.0,-154.0,612.0
-199.0,-36.0,146.0,59.0,1.0,-7.0,-832.0,-153.0,608.0
-198.0,-34.0,145.0,61.0,3.0,-7.0,-837.0,-155.0,610.0
-200.0,-33.0,142.0,61.0,4.0,-6.0,-837.0,-156.0,608.0
-202.0,-33.0,149.0,61.0,6.0,-7.0,-836.0,-155.0,610.0
-202.0,-32.0,148.0,61.0,10.0,-4.0,-845.0,-157.0,614.0
-202.0,-35.0,148.0,61.0,10.0,-5.0,-842.0,-153.0,610.0
-204.0,-32.0,149.0,59.0,12.0,-5.0,-844.0,-151.0,608.0
-204.0,-32.0,147.0,58.0,16.0,-5.0,-839.0,-152.0,615.0
-202.0,-29.0,147.0,57.0,17.0,-5.0,-838.0,-149.0,622.0
-203.0,-32.0,148.0,54.0,19.0,-5.0,-838.0,-146.0,609.0
-210.0,-30.0,145.0,53.0,19.0,-5.0,-841.0,-151.0,607.0
-202.0,-31.0,146.0,51.0,17.0,-5.0,-842.0,-147.0,615.0
-204.0,-32.0,145.0,49.0,17.0,-5.0,-838.0,-150.0,608.0
-202.0,-34.0,145.0,49.0,16.0,-7.0,-849.0,-153.0,607.0
-201.0,-34.0,144.0,49.0,15.0,-8.0,-844.0,-147.0,601.0
-201.0,-33.0,148.0,49.0,13.0,-8.0,-845.0,-151.0,602.0
-201.0,-32.0,144.0,51.0,13.0,-11.0,-841.0,-152.0,616.0
-202.0,-32.0,147.0,51.0,12.0,-11.0,-842.0,-150.0,604.0
-200.0,-32.0,147.0,51.0,12.0,-11.0,-842.0,-145.0,601.0
-202.0,-32.0,146.0,51.0,14.0,-12.0,-846.0,-150.0,606.0
-203.0,-33.0,149.0,50.0,15.0,-11.0,-834.0,-151.0,607.0
-205.0,-32.0,147.0,49.0,18.0,-12.0,-834.0,-151.0,606.0
-201.0,-41.0,140.0,47.0,19.0,-13.0,-835.0,-153.0,609.0
-202.0,-32.0,145.0,45.0,21.0,-12.0,-836.0,-151.0,607.0
-203.0,-29.0,143.0,43.0,21.0,-12.0,-845.0,-150.0,605.0
-204.0,-34.0,146.0,41.0,20.0,-11.0,-845.0,-149.0,608.0
-201.0,-34.0,145.0,42.0,18.0,-11.0,-844.0,-153.0,602.0
-202.0,-31.0,145.0,44.0,18.0,-11.0,-843.0,-157.0,609.0
-203.0,-35.0,144.0,45.0,18.0,-11.0,-844.0,-158.0,610.0
-202.0,-36.0,146.0,47.0,15.0,-11.0,-844.0,-164.0,605.0
-206.0,-36.0,143.0,49.0,12.0,-12.0,-846.0,-159.0,605.0
-203.0,-33.0,146.0,51.0,11.0,-14.0,-850.0,-162.0,601.0
-208.0,-35.0,144.0,54.0,9.0,-16.0,-848.0,-158.0,605.0
-205.0,-36.0,144.0,56.0,9.0,-16.0,-843.0,-160.0,602.0
-205.0,-34.0,142.0,60.0,7.0,-16.0,-845.0,-158.0,603.0
-203.0,-37.0,142.0,62.0,5.0,-18.0,-853.0,-160.0,595.0
-202.0,-35.0,141.0,62.0,2.0,-20.0,-850.0,-156.0,606.0
-205.0,-35.0,143.0,62.0,1.0,-19.0,-847.0,-155.0,601.0
-203.0,-33.0,147.0,61.0,1.0,-20.0,-845.0,-155.0,604.0
-204.0,-32.0,143.0,59.0,-1.0,-22.0,-848.0,-160.0,605.0
-202.0,-34.0,144.0,57.0,-1.0,-21.0,-839.0,-154.0,599.0
-201.0,-36.0,146.0,55.0,-3.0,-18.0,-843.0,-153.0,601.0
-201.0,-37.0,145.0,52.0,-4.0,-19.0,-845.0,-155.0,606.0
-199.0,-35.0,146.0,51.0,-3.0,-17.0,-839.0,-158.0,603.0
-205.0,-32.0,142.0,49.0,-1.0,-17.0,-841.0,-160.0,602.0
-203.0,-32.0,142.0,48.0,-2.0,-17.0,-844.0,-156.0,608.0
-200.0,-36.0,145.0,48.0,-4.0,-17.0,-843.0,-161.0,607.0
-201.0,-35.0,150.0,50.0,-6.0,-16.0,-844.0,-159.0,605.0
-202.0,-36.0,142.0,50.0,-7.0,-13.0,-843.0,-158.0,603.0
-202.0,-38.0,147.0,53.0,-10.0,-14.0,-846.0,-156.0,605.0
-202.0,-34.0,146.0,55.0,-12.0,-11.0,-844.0,-160.0,604.0
-204.0,-34.0,146.0,59.0,-17.0,-13.0,-845.0,-160.0,604.0
-197.0,-35.0,145.0,61.0,-20.0,-14.0,-841.0,-154.0,607.0
-200.0,-35.0,150.0,63.0,-22.0,-14.0,-842.0,-158.0,609.0
-200.0,-35.0,143.0,65.0,-21.0,-15.0,-835.0,-154.0,612.0
-202.0,-33.0,146.0,64.0,-20.0,-16.0,-840.0,-158.0,617.0
-201.0,-33.0,150.0,63.0,-18.0,-15.0,-838.0,-149.0,618.0
-200.0,-36.0,147.0,63.0,-16.0,-15.0,-833.0,-154.0,617.0
-200.0,-35.0,148.0,62.0,-13.0,-13.0,-837.0,-155.0,618.0
-202.0,-33.0,148.0,60.0,-9.0,-14.0,-835.0,-155.0,628.0
-200.0,-35.0,146.0,57.0,-4.0,-11.0,-834.0,-162.0,627.0
-199.0,-35.0,147.0,54.0,0.0,-11.0,-830.0,-159.0,618.0
-200.0,-34.0,154.0,52.0,2.0,-10.0,-828.0,-157.0,614.0
-199.0,-37.0,147.0,52.0,2.0,-10.0,-837.0,-164.0,619.0
-202.0,-36.0,146.0,52.0,3.0,-11.0,-837.0,-160.0,625.0
-199.0,-38.0,144.0,54.0,3.0,-11.0,-837.0,-162.0,620.0
-201.0,-40.0,137.0,55.0,5.0,-7.0,-831.0,-164.0,620.0
-201.0,-39.0,147.0,56.0,6.0,-5.0,-831.0,-161.0,611.0
-202.0,-35.0,146.0,57.0,7.0,-6.0,-838.0,-161.0,607.0
-202.0,-37.0,143.0,60.0,4.0,-6.0,-842.0,-163.0,607.0
-203.0,-34.0,145.0,61.0,2.0,-2.0,-845.0,-156.0,603.0
-199.0,-34.0,143.0,62.0,0.0,-3.0,-840.0,-154.0,599.0
-203.0,-33.0,143.0,62.0,0.0,-2.0,-842.0,-154.0,604.0
-204.0,-29.0,141.0,63.0,0.0,0.0,-840.0,-149.0,604.0
-199.0,-35.0,145.0,63.0,-2.0,-1.0,-833.0,-149.0,598.0
-205.0,-31.0,143.0,63.0,-5.0,-1.0,-843.0,-146.0,597.0
-203.0,-32.0,144.0,62.0,-6.0,1.0,-837.0,-149.0,601.0
-198.0,-33.0,145.0,60.0,-8.0,0.0,-837.0,-147.0,605.0
-202.0,-33.0,146.0,59.0,-9.0,1.0,-836.0,-145.0,603.0
-204.0,-31.0,145.0,56.0,-10.0,0.0,-844.0,-150.0,609.0
-201.0,-33.0,145.0,55.0,-13.0,2.0,-839.0,-144.0,614.0
-201.0,-31.0,148.0,52.0,-15.0,2.0,-844.0,-149.0,609.0
-201.0,-34.0,144.0,50.0,-18.0,1.0,-839.0,-146.0,615.0
-203.0,-32.0,151.0,49.0,-20.0,-1.0,-838.0,-144.0,616.0
-200.0,-35.0,149.0,47.0,-23.0,-4.0,-836.0,-141.0,613.0
-201.0,-28.0,148.0,46.0,-24.0,-6.0,-843.0,-152.0,625.0
-200.0,-33.0,148.0,46.0,-20.0,-7.0,-839.0,-152.0,619.0
-199.0,-35.0,143.0,44.0,-17.0,-6.0,-848.0,-151.0,623.0
-204.0,-32.0,148.0,44.0,-13.0,-6.0,-836.0,-154.0,620.0
-201.0,-33.0,148.0,42.0,-11.0,-6.0,-843.0,-151.0,625.0
-199.0,-30.0,145.0,41.0,-8.0,-9.0,-842.0,-154.0,623.0
-202.0,-32.0,145.0,38.0,-4.0,-9.0,-841.0,-147.0,626.0
-202.0,-33.0,152.0,37.0,1.0,-10.0,-837.0,-150.0,618.0
-200.0,-32.0,144.0,36.0,4.0,-10.0,-839.0,-146.0,628.0
-200.0,-34.0,149.0,36.0,7.0,-8.0,-832.0,-147.0,632.0
-196.0,-35.0,150.0,35.0,10.0,-9.0,-830.0,-150.0,633.0
-202.0,-36.0,150.0,34.0,10.0,-12.0,-845.0,-154.0,628.0
-192.0,-29.0,140.0,17.0,-16.0,-32.0,-807.0,-140.0,598.0
-197.0,-34.0,150.0,32.0,-4.0,-27.0,-828.0,-163.0,629.0
-197.0,-31.0,152.0,42.0,-3.0,-20.0,-825.0,-150.0,633.0
-194.0,-37.0,152.0,32.0,1.0,-15.0,-825.0,-157.0,630.0
-196.0,-37.0,148.0,29.0,8.0,-8.0,-826.0,-151.0,627.0
-198.0,-36.0,148.0,28.0,15.0,-5.0,-828.0,-164.0,628.0
-200.0,-34.0,148.0,30.0,19.0,-3.0,-836.0,-167.0,626.0
-202.0,-38.0,150.0,34.0,23.0,-5.0,-841.0,-168.0,620.0
-201.0,-35.0,148.0,40.0,25.0,-3.0,-841.0,-161.0,614.0
-204.0,-34.0,145.0,42.0,26.0,-4.0,-849.0,-153.0,610.0
-204.0,-32.0,150.0,44.0,28.0,-8.0,-849.0,-143.0,612.0
-204.0,-28.0,148.0,42.0,29.0,-9.0,-846.0,-147.0,612.0
-210.0,-28.0,149.0,40.0,30.0,-11.0,-845.0,-138.0,610.0
-201.0,-33.0,148.0,39.0,31.0,-13.0,-845.0,-148.0,614.0
-200.0,-32.0,141.0,37.0,30.0,-14.0,-843.0,-144.0,609.0
-201.0,-32.0,142.0,38.0,29.0,-13.0,-834.0,-160.0,614.0
-199.0,-37.0,144.0,40.0,27.0,-15.0,-836.0,-161.0,623.0
-200.0,-40.0,146.0,42.0,27.0,-14.0,-838.0,-172.0,613.0
-202.0,-39.0,149.0,45.0,26.0,-14.0,-836.0,-173.0,608.0
-199.0,-39.0,147.0,46.0,25.0,-15.0,-839.0,-175.0,607.0
-203.0,-37.0,146.0,47.0,24.0,-14.0,-834.0,-171.0,609.0
-201.0,-38.0,146.0,48.0,25.0,-13.0,-838.0,-164.0,619.0
-200.0,-35.0,146.0,47.0,22.0,-13.0,-837.0,-164.0,622.0
-200.0,-36.0,151.0,45.0,24.0,-11.0,-835.0,-161.0,616.0
-199.0,-37.0,149.0,45.0,26.0,-11.0,-833.0,-165.0,625.0
-202.0,-35.0,145.0,43.0,27.0,-10.0,-834.0,-165.0,611.0
-204.0,-38.0,147.0,43.0,30.0,-8.0,-837.0,-160.0,607.0
-203.0,-37.0,151.0,40.0,32.0,-7.0,-842.0,-163.0,607.0
-202.0,-37.0,145.0,39.0,34.0,-4.0,-843.0,-166.0,609.0
-199.0,-35.0,147.0,38.0,34.0,-3.0,-837.0,-156.0,613.0
-202.0,-33.0,143.0,38.0,33.0,0.0,-842.0,-153.0,607.0
-204.0,-33.0,148.0,35.0,35.0,2.0,-845.0,-158.0,607.0
-201.0,-35.0,144.0,34.0,35.0,3.0,-836.0,-164.0,613.0
-201.0,-29.0,145.0,32.0,34.0,4.0,-839.0,-158.0,610.0
-200.0,-39.0,141.0,31.0,34.0,5.0,-840.0,-161.0,605.0
-200.0,-37.0,146.0,33.0,33.0,8.0,-836.0,-160.0,610.0
-201.0,-36.0,149.0,34.0,31.0,5.0,-837.0,-157.0,607.0
-201.0,-37.0,147.0,36.0,30.0,6.0,-841.0,-163.0,615.0
-204.0,-37.0,146.0,39.0,29.0,6.0,-837.0,-160.0,623.0
-200.0,-35.0,144.0,42.0,29.0,6.0,-848.0,-153.0,608.0
-202.0,-34.0,142.0,43.0,27.0,4.0,-844.0,-153.0,606.0
-204.0,-35.0,148.0,43.0,26.0,2.0,-846.0,-153.0,606.0
-204.0,-30.0,147.0,43.0,27.0,1.0,-848.0,-152.0,612.0
-202.0,-32.0,145.0,42.0,28.0,0.0,-841.0,-151.0,613.0
-200.0,-35.0,146.0,39.0,29.0,-1.0,-838.0,-150.0,610.0
-203.0,-35.0,144.0,37.0,28.0,-1.0,-840.0,-140.0,608.0
-203.0,-31.0,144.0,32.0,26.0,-1.0,-838.0,-151.0,610.0
-201.0,-32.0,148.0,29.0,24.0,2.0,-837.0,-148.0,614.0
-202.0,-35.0,147.0,25.0,21.0,1.0,-841.0,-152.0,619.0
-200.0,-32.0,145.0,20.0,19.0,1.0,-837.0,-151.0,614.0
-202.0,-33.0,144.0,17.0,19.0,3.0,-846.0,-159.0,610.0
-200.0,-35.0,149.0,15.0,20.0,5.0,-835.0,-157.0,614.0
-204.0,-32.0,145.0,13.0,23.0,8.0,-846.0,-155.0,607.0
-200.0,-33.0,145.0,11.0,24.0,10.0,-835.0,-153.0,607.0
-201.0,-35.0,146.0,9.0,25.0,11.0,-838.0,-150.0,607.0
-204.0,-30.0,144.0,5.0,27.0,12.0,-842.0,-151.0,617.0
-201.0,-32.0,144.0,4.0,30.0,15.0,-840.0,-152.0,624.0
-202.0,-36.0,148.0,4.0,32.0,17.0,-835.0,-146.0,622.0
-199.0,-33.0,148.0,5.0,34.0,19.0,-839.0,-151.0,626.0
-202.0,-32.0,145.0,6.0,36.0,18.0,-842.0,-154.0,618.0
-201.0,-35.0,151.0,8.0,36.0,17.0,-844.0,-150.0,607.0
-203.0,-34.0,145.0,10.0,38.0,15.0,-846.0,-150.0,610.0
-202.0,-33.0,142.0,9.0,39.0,14.0,-851.0,-151.0,605.0
-202.0,-32.0,145.0,9.0,38.0,13.0,-852.0,-152.0,603.0
-203.0,-32.0,145.0,10.0,39.0,13.0,-846.0,-154.0,604.0
-202.0,-34.0,142.0,10.0,37.0,14.0,-839.0,-154.0,609.0
-198.0,-38.0,147.0,12.0,36.0,14.0,-838.0,-156.0,605.0
-200.0,-35.0,146.0,12.0,36.0,13.0,-835.0,-156.0,603.0
-200.0,-36.0,148.0,15.0,38.0,9.0,-836.0,-154.0,610.0
-200.0,-35.0,147.0,16.0,41.0,10.0,-839.0,-157.0,613.0
-200.0,-32.0,144.0,17.0,40.0,8.0,-835.0,-157.0,608.0
-202.0,-35.0,145.0,17.0,43.0,7.0,-833.0,-153.0,615.0
-200.0,-33.0,142.0,16.0,45.0,8.0,-835.0,-157.0,607.0
-199.0,-32.0,146.0,14.0,48.0,6.0,-840.0,-153.0,617.0
-201.0,-36.0,148.0,12.0,50.0,5.0,-836.0,-150.0,625.0
-202.0,-33.0,144.0,10.0,52.0,4.0,-839.0,-157.0,619.0
-202.0,-36.0,148.0,8.0,55.0,2.0,-834.0,-156.0,619.0
-202.0,-36.0,145.0,8.0,59.0,2.0,-837.0,-159.0,615.0
-204.0,-39.0,149.0,8.0,63.0,1.0,-835.0,-157.0,617.0
-201.0,-33.0,147.0,9.0,65.0,1.0,-844.0,-159.0,623.0
-202.0,-36.0,147.0,11.0,67.0,0.0,-845.0,-157.0,616.0
-202.0,-35.0,145.0,11.0,68.0,0.0,-839.0,-160.0,606.0
-203.0,-31.0,146.0,12.0,69.0,0.0,-839.0,-150.0,606.0
-199.0,-36.0,145.0,11.0,71.0,0.0,-838.0,-156.0,614.0
-205.0,-32.0,143.0,11.0,69.0,2.0,-841.0,-152.0,605.0
-204.0,-34.0,143.0,10.0,70.0,2.0,-839.0,-150.0,604.0
-199.0,-34.0,147.0,10.0,72.0,0.0,-840.0,-154.0,603.0
-204.0,-30.0,151.0,9.0,72.0,0.0,-845.0,-155.0,609.0
-200.0,-32.0,145.0,7.0,73.0,-2.0,-838.0,-157.0,605.0
-200.0,-35.0,148.0,7.0,75.0,-3.0,-841.0,-160.0,606.0
-204.0,-35.0,147.0,9.0,76.0,-6.0,-845.0,-159.0,606.0
-205.0,-34.0,142.0,11.0,78.0,-7.0,-845.0,-165.0,603.0
-205.0,-35.0,144.0,14.0,78.0,-8.0,-846.0,-163.0,604.0
-205.0,-34.0,142.0,17.0,79.0,-9.0,-847.0,-165.0,602.0
-202.0,-36.0,144.0,19.0,81.0,-11.0,-849.0,-160.0,601.0
-202.0,-33.0,139.0,22.0,81.0,-12.0,-854.0,-166.0,602.0
-206.0,-36.0,144.0,24.0,80.0,-13.0,-852.0,-161.0,598.0
-206.0,-32.0,144.0,24.0,80.0,-12.0,-850.0,-158.0,596.0
-204.0,-33.0,145.0,25.0,80.0,-13.0,-850.0,-158.0,600.0
-205.0,-36.0,141.0,26.0,79.0,-15.0,-851.0,-162.0,599.0
-206.0,-35.0,144.0,26.0,80.0,-17.0,-851.0,-158.0,594.0
-205.0,-31.0,141.0,28.0,80.0,-16.0,-846.0,-161.0,597.0
-205.0,-34.0,142.0,27.0,80.0,-16.0,-847.0,-154.0,605.0
-202.0,-38.0,142.0,27.0,79.0,-15.0,-841.0,-161.0,598.0
-198.0,-39.0,146.0,26.0,77.0,-15.0,-840.0,-159.0,594.0
-203.0,-37.0,143.0,24.0,73.0,-11.0,-841.0,-169.0,588.0
-203.0,-38.0,140.0,25.0,71.0,-9.0,-837.0,-173.0,597.0
-201.0,-41.0,140.0,27.0,72.0,-8.0,-837.0,-174.0,591.0
-205.0,-41.0,138.0,29.0,70.0,-8.0,-842.0,-176.0,588.0
-204.0,-41.0,139.0,33.0,70.0,-7.0,-847.0,-176.0,589.0
-207.0,-38.0,138.0,41.0,66.0,-8.0,-859.0,-174.0,577.0
-205.0,-40.0,139.0,47.0,63.0,-9.0,-863.0,-174.0,576.0
-209.0,-38.0,134.0,53.0,60.0,-11.0,-861.0,-170.0,576.0
-208.0,-36.0,133.0,58.0,55.0,-11.0,-862.0,-170.0,582.0
-208.0,-37.0,133.0,60.0,50.0,-11.0,-859.0,-162.0,573.0
-210.0,-35.0,136.0,62.0,45.0,-12.0,-865.0,-158.0,578.0
-211.0,-33.0,136.0,61.0,41.0,-12.0,-868.0,-155.0,579.0
-207.0,-35.0,136.0,59.0,37.0,-12.0,-864.0,-148.0,583.0
-207.0,-36.0,140.0,55.0,33.0,-12.0,-862.0,-152.0,583.0
-205.0,-37.0,141.0,52.0,29.0,-13.0,-865.0,-154.0,585.0
-205.0,-36.0,140.0,50.0,26.0,-13.0,-865.0,-155.0,584.0
-209.0,-37.0,139.0,50.0,23.0,-12.0,-858.0,-166.0,585.0
-206.0,-36.0,143.0,51.0,21.0,-12.0,-860.0,-164.0,584.0
-206.0,-34.0,139.0,53.0,19.0,-10.0,-860.0,-169.0,586.0
-208.0,-36.0,137.0,53.0,15.0,-10.0,-862.0,-168.0,580.0
-206.0,-37.0,141.0,53.0,14.0,-9.0,-859.0,-167.0,584.0
-207.0,-35.0,141.0,53.0,11.0,-6.0,-860.0,-167.0,588.0
-206.0,-36.0,138.0,54.0,8.0,-5.0,-859.0,-164.0,585.0
-206.0,-33.0,138.0,54.0,4.0,-3.0,-852.0,-167.0,590.0
-206.0,-37.0,137.0,57.0,2.0,-3.0,-855.0,-167.0,594.0
-207.0,-37.0,140.0,59.0,-1.0,-4.0,-863.0,-168.0,585.0
-206.0,-36.0,139.0,61.0,-3.0,-6.0,-858.0,-167.0,586.0
-208.0,-36.0,141.0,64.0,-4.0,-6.0,-858.0,-159.0,586.0
-205.0,-35.0,143.0,65.0,-4.0,-7.0,-855.0,-154.0,585.0
-206.0,-34.0,142.0,63.0,-6.0,-8.0,-856.0,-153.0,583.0
-205.0,-35.0,141.0,59.0,-5.0,-8.0,-851.0,-152.0,583.0
-206.0,-34.0,138.0,56.0,-4.0,-7.0,-857.0,-154.0,592.0
-206.0,-30.0,140.0,52.0,-2.0,-9.0,-850.0,-152.0,590.0
-206.0,-31.0,144.0,49.0,-1.0,-9.0,-846.0,-153.0,602.0
-204.0,-33.0,144.0,46.0,0.0,-10.0,-847.0,-151.0,597.0
-203.0,-35.0,145.0,43.0,3.0,-10.0,-851.0,-162.0,603.0
-204.0,-36.0,140.0,41.0,3.0,-8.0,-848.0,-163.0,594.0
-204.0,-38.0,143.0,41.0,3.0,-6.0,-848.0,-167.0,597.0
-207.0,-32.0,139.0,41.0,3.0,-5.0,-849.0,-164.0,603.0
-203.0,-36.0,143.0,41.0,2.0,-4.0,-849.0,-167.0,603.0
-201.0,-34.0,143.0,39.0,1.0,-3.0,-844.0,-160.0,607.0
-204.0,-33.0,142.0,38.0,4.0,-6.0,-850.0,-158.0,617.0
-202.0,-32.0,148.0,34.0,5.0,-6.0,-845.0,-156.0,603.0
-203.0,-35.0,143.0,33.0,10.0,-7.0,-844.0,-155.0,607.0
-203.0,-34.0,147.0,30.0,14.0,-5.0,-847.0,-159.0,598.0
-202.0,-35.0,145.0,28.0,18.0,-4.0,-843.0,-159.0,602.0
-203.0,-34.0,144.0,26.0,20.0,-2.0,-841.0,-157.0,598.0
-203.0,-35.0,144.0,26.0,22.0,1.0,-847.0,-162.0,594.0
-202.0,-39.0,146.0,25.0,24.0,1.0,-843.0,-163.0,591.0
-205.0,-36.0,140.0,24.0,23.0,3.0,-846.0,-158.0,593.0
-205.0,-35.0,139.0,25.0,23.0,5.0,-848.0,-167.0,592.0
-208.0,-38.0,145.0,25.0,23.0,4.0,-854.0,-158.0,593.0
-204.0,-37.0,142.0,27.0,22.0,7.0,-846.0,-160.0,590.0
-204.0,-35.0,142.0,31.0,21.0,6.0,-848.0,-162.0,588.0
-203.0,-34.0,141.0,33.0,20.0,5.0,-851.0,-155.0,594.0
-205.0,-34.0,142.0,37.0,19.0,4.0,-849.0,-156.0,597.0
-202.0,-35.0,140.0,40.0,19.0,1.0,-858.0,-157.0,594.0
-205.0,-34.0,144.0,41.0,20.0,-3.0,-856.0,-155.0,595.0
-207.0,-32.0,140.0,43.0,22.0,-4.0,-859.0,-154.0,586.0
-207.0,-33.0,144.0,43.0,22.0,-6.0,-857.0,-159.0,597.0
-200.0,-36.0,146.0,42.0,23.0,-7.0,-855.0,-152.0,592.0
-205.0,-35.0,140.0,39.0,23.0,-9.0,-852.0,-153.0,599.0
-207.0,-36.0,142.0,37.0,25.0,-9.0,-852.0,-154.0,596.0
-203.0,-36.0,143.0,36.0,25.0,-9.0,-852.0,-151.0,593.0
-205.0,-32.0,139.0,35.0,27.0,-10.0,-857.0,-155.0,595.0
-207.0,-32.0,143.0,33.0,28.0,-11.0,-850.0,-155.0,587.0
-205.0,-34.0,142.0,29.0,29.0,-12.0,-853.0,-156.0,598.0
-206.0,-33.0,144.0,28.0,29.0,-13.0,-850.0,-158.0,592.0
-202.0,-33.0,141.0,28.0,30.0,-11.0,-852.0,-158.0,593.0
-205.0,-35.0,140.0,27.0,30.0,-10.0,-849.0,-161.0,596.0
-205.0,-39.0,142.0,26.0,31.0,-9.0,-850.0,-164.0,595.0
-203.0,-38.0,145.0,27.0,30.0,-11.0,-840.0,-165.0,590.0
-204.0,-39.0,141.0,29.0,31.0,-9.0,-847.0,-166.0,590.0
-206.0,-33.0,144.0,30.0,31.0,-11.0,-843.0,-167.0,597.0
-202.0,-37.0,141.0,30.0,32.0,-11.0,-848.0,-168.0,591.0
-206.0,-39.0,147.0,32.0,34.0,-11.0,-847.0,-170.0,597.0
-208.0,-36.0,139.0,33.0,34.0,-11.0,-849.0,-171.0,598.0
-204.0,-36.0,139.0,35.0,35.0,-10.0,-849.0,-170.0,589.0
-203.0,-38.0,138.0,36.0,35.0,-11.0,-852.0,-164.0,588.0
-206.0,-35.0,141.0,37.0,36.0,-13.0,-854.0,-161.0,588.0
-206.0,-36.0,140.0,36.0,37.0,-14.0,-861.0,-151.0,590.0
-215.0,-36.0,138.0,34.0,37.0,-16.0,-857.0,-154.0,592.0
-205.0,-32.0,144.0,32.0,35.0,-16.0,-851.0,-159.0,583.0
-206.0,-30.0,142.0,30.0,33.0,-16.0,-859.0,-164.0,586.0
-206.0,-36.0,140.0,28.0,31.0,-18.0,-848.0,-168.0,584.0
-206.0,-36.0,139.0,30.0,28.0,-17.0,-854.0,-165.0,585.0
-204.0,-38.0,140.0,31.0,26.0,-20.0,-858.0,-168.0,592.0
-205.0,-37.0,143.0,34.0,24.0,-22.0,-851.0,-169.0,589.0
-207.0,-36.0,141.0,38.0,23.0,-22.0,-854.0,-176.0,594.0
-204.0,-40.0,143.0,41.0,22.0,-22.0,-850.0,-166.0,593.0
-205.0,-39.0,139.0,42.0,22.0,-25.0,-850.0,-175.0,586.0
-207.0,-38.0,144.0,42.0,22.0,-24.0,-856.0,-175.0,591.0
-204.0,-39.0,140.0,42.0,23.0,-23.0,-853.0,-170.0,591.0
-204.0,-38.0,141.0,41.0,25.0,-18.0,-842.0,-171.0,596.0
-205.0,-37.0,141.0,40.0,27.0,-16.0,-849.0,-173.0,589.0
-204.0,-36.0,138.0,39.0,27.0,-15.0,-844.0,-168.0,583.0
-203.0,-38.0,137.0,40.0,31.0,-13.0,-846.0,-174.0,581.0
-203.0,-40.0,137.0,41.0,31.0,-11.0,-850.0,-171.0,583.0
-206.0,-39.0,138.0,41.0,32.0,-10.0,-854.0,-171.0,581.0
-208.0,-37.0,139.0,42.0,30.0,-9.0,-857.0,-173.0,577.0
-207.0,-37.0,140.0,43.0,27.0,-8.0,-861.0,-166.0,577.0
-207.0,-38.0,143.0,45.0,26.0,-5.0,-859.0,-163.0,579.0
-206.0,-36.0,137.0,47.0,22.0,-4.0,-861.0,-163.0,581.0
-210.0,-34.0,133.0,50.0,17.0,-5.0,-863.0,-165.0,579.0
-211.0,-35.0,134.0,51.0,12.0,-4.0,-863.0,-161.0,582.0
-209.0,-31.0,136.0,53.0,8.0,-4.0,-868.0,-163.0,580.0
-208.0,-36.0,138.0,53.0,5.0,-4.0,-863.0,-152.0,589.0
-211.0,-37.0,142.0,51.0,3.0,-4.0,-859.0,-163.0,580.0
-210.0,-35.0,137.0,51.0,1.0,-7.0,-861.0,-153.0,583.0
-204.0,-36.0,142.0,48.0,0.0,-7.0,-857.0,-161.0,587.0
-210.0,-33.0,139.0,48.0,0.0,-8.0,-860.0,-158.0,587.0
-208.0,-34.0,144.0,47.0,1.0,-8.0,-864.0,-163.0,585.0
-207.0,-35.0,142.0,46.0,0.0,-9.0,-861.0,-162.0,591.0
-207.0,-39.0,139.0,46.0,1.0,-10.0,-858.0,-166.0,586.0
-206.0,-40.0,137.0,47.0,3.0,-9.0,-851.0,-169.0,587.0
-204.0,-39.0,140.0,47.0,4.0,-8.0,-853.0,-172.0,591.0
-202.0,-38.0,141.0,49.0,3.0,-8.0,-852.0,-170.0,587.0
-206.0,-39.0,145.0,53.0,2.0,-8.0,-855.0,-170.0,590.0
-206.0,-35.0,149.0,55.0,3.0,-8.0,-854.0,-175.0,593.0
-204.0,-38.0,139.0,57.0,2.0,-7.0,-848.0,-166.0,588.0
-208.0,-35.0,140.0,59.0,-1.0,-9.0,-857.0,-166.0,588.0
-205.0,-35.0,142.0,61.0,-4.0,-10.0,-856.0,-169.0,591.0
-200.0,-36.0,138.0,63.0,-5.0,-10.0,-848.0,-164.0,585.0
-206.0,-36.0,139.0,64.0,-7.0,-10.0,-849.0,-163.0,594.0
-204.0,-37.0,143.0,66.0,-9.0,-13.0,-849.0,-168.0,591.0
-204.0,-34.0,143.0,67.0,-8.0,-13.0,-849.0,-165.0,592.0
-203.0,-36.0,139.0,67.0,-7.0,-14.0,-852.0,-161.0,588.0
-201.0,-37.0,141.0,67.0,-7.0,-11.0,-850.0,-163.0,587.0
-202.0,-35.0,140.0,66.0,-6.0,-12.0,-853.0,-161.0,594.0
-203.0,-36.0,142.0,66.0,-7.0,-13.0,-851.0,-165.0,595.0
-206.0,-36.0,144.0,65.0,-6.0,-14.0,-844.0,-163.0,593.0
-203.0,-34.0,141.0,65.0,-6.0,-15.0,-846.0,-162.0,592.0
-202.0,-37.0,141.0,63.0,-6.0,-15.0,-843.0,-158.0,593.0
-203.0,-36.0,140.0,62.0,-6.0,-15.0,-847.0,-159.0,602.0
-201.0,-37.0,143.0,61.0,-6.0,-15.0,-843.0,-165.0,598.0
-205.0,-38.0,141.0,61.0,-5.0,-15.0,-845.0,-165.0,595.0
-205.0,-35.0,143.0,61.0,-4.0,-14.0,-843.0,-167.0,590.0
-204.0,-36.0,138.0,62.0,-3.0,-15.0,-845.0,-175.0,597.0
-203.0,-36.0,142.0,63.0,-2.0,-14.0,-846.0,-166.0,588.0
-201.0,-38.0,144.0,64.0,-2.0,-14.0,-847.0,-169.0,595.0
-203.0,-38.0,137.0,64.0,-1.0,-13.0,-850.0,-166.0,589.0
-205.0,-36.0,140.0,62.0,-2.0,-13.0,-849.0,-166.0,596.0
-205.0,-37.0,140.0,63.0,-1.0,-13.0,-846.0,-170.0,588.0
-204.0,-39.0,138.0,66.0,0.0,-12.0,-848.0,-174.0,596.0
-205.0,-38.0,142.0,69.0,0.0,-12.0,-854.0,-173.0,589.0
-206.0,-41.0,143.0,75.0,1.0,-10.0,-857.0,-176.0,585.0
-208.0,-32.0,136.0,77.0,-1.0,-12.0,-858.0,-169.0,583.0
-206.0,-36.0,134.0,80.0,-3.0,-12.0,-859.0,-160.0,583.0
-209.0,-35.0,138.0,80.0,-3.0,-13.0,-859.0,-152.0,583.0
-207.0,-33.0,138.0,78.0,-4.0,-14.0,-860.0,-151.0,585.0
-206.0,-32.0,140.0,74.0,-4.0,-15.0,-856.0,-142.0,591.0
-205.0,-30.0,141.0,69.0,-3.0,-15.0,-856.0,-148.0,597.0
-203.0,-35.0,146.0,65.0,-5.0,-16.0,-850.0,-148.0,592.0
-203.0,-38.0,138.0,61.0,-3.0,-16.0,-849.0,-160.0,601.0
-207.0,-37.0,144.0,58.0,-2.0,-19.0,-846.0,-165.0,597.0
-204.0,-41.0,142.0,58.0,-2.0,-17.0,-845.0,-172.0,596.0
-201.0,-40.0,138.0,60.0,-2.0,-14.0,-843.0,-175.0,592.0
-204.0,-40.0,140.0,64.0,-1.0,-14.0,-847.0,-179.0,591.0
-202.0,-38.0,143.0,66.0,0.0,-10.0,-849.0,-175.0,595.0
-204.0,-39.0,148.0,67.0,-1.0,-9.0,-845.0,-177.0,596.0
-206.0,-39.0,145.0,65.0,-1.0,-9.0,-848.0,-168.0,614.0
-204.0,-37.0,147.0,65.0,1.0,-10.0,-850.0,-164.0,608.0
-203.0,-35.0,147.0,63.0,4.0,-10.0,-845.0,-162.0,606.0
-204.0,-37.0,144.0,61.0,9.0,-8.0,-855.0,-160.0,601.0
-205.0,-37.0,140.0,60.0,13.0,-10.0,-851.0,-158.0,596.0
-201.0,-34.0,140.0,59.0,16.0,-9.0,-851.0,-157.0,592.0
-207.0,-35.0,137.0,58.0,17.0,-8.0,-853.0,-160.0,595.0
-205.0,-36.0,138.0,57.0,17.0,-8.0,-847.0,-165.0,596.0
-202.0,-35.0,141.0,57.0,16.0,-4.0,-854.0,-166.0,592.0
-207.0,-38.0,147.0,59.0,13.0,-3.0,-850.0,-167.0,589.0
-202.0,-38.0,145.0,60.0,10.0,-1.0,-851.0,-169.0,589.0
-206.0,-36.0,142.0,63.0,8.0,0.0,-848.0,-163.0,596.0
-208.0,-35.0,141.0,65.0,4.0,0.0,-858.0,-162.0,592.0
-207.0,-37.0,138.0,68.0,2.0,-1.0,-855.0,-156.0,593.0
-204.0,-38.0,141.0,72.0,1.0,-4.0,-854.0,-158.0,593.0
-208.0,-35.0,136.0,76.0,0.0,-5.0,-855.0,-153.0,596.0
-208.0,-36.0,142.0,78.0,-2.0,-7.0,-859.0,-154.0,586.0
-205.0,-36.0,141.0,80.0,-4.0,-9.0,-854.0,-158.0,593.0
-203.0,-35.0,141.0,80.0,-5.0,-11.0,-857.0,-154.0,588.0
-204.0,-31.0,144.0,80.0,-6.0,-12.0,-857.0,-153.0,597.0
-205.0,-34.0,139.0,78.0,-7.0,-14.0,-857.0,-155.0,593.0
-206.0,-32.0,141.0,76.0,-7.0,-14.0,-847.0,-155.0,592.0
-205.0,-33.0,142.0,73.0,-6.0,-17.0,-856.0,-157.0,598.0
-205.0,-33.0,142.0,72.0,-6.0,-16.0,-845.0,-154.0,600.0
-205.0,-32.0,142.0,69.0,-6.0,-16.0,-845.0,-152.0,597.0
-207.0,-31.0,143.0,66.0,-6.0,-16.0,-846.0,-154.0,600.0
-201.0,-37.0,144.0,64.0,-5.0,-18.0,-857.0,-157.0,598.0
-203.0,-38.0,143.0,62.0,-3.0,-17.0,-847.0,-161.0,596.0
-204.0,-36.0,143.0,63.0,-1.0,-17.0,-849.0,-164.0,597.0
-205.0,-37.0,142.0,63.0,2.0,-17.0,-849.0,-160.0,598.0
-207.0,-33.0,141.0,64.0,3.0,-18.0,-854.0,-164.0,592.0
-202.0,-37.0,143.0,64.0,3.0,-16.0,-853.0,-164.0,597.0
-206.0,-35.0,140.0,64.0,3.0,-16.0,-855.0,-156.0,593.0
-204.0,-35.0,140.0,65.0,4.0,-15.0,-848.0,-163.0,594.0
-204.0,-36.0,141.0,63.0,3.0,-13.0,-848.0,-157.0,598.0
-203.0,-34.0,140.0,63.0,2.0,-13.0,-846.0,-159.0,596.0
-203.0,-36.0,138.0,61.0,0.0,-14.0,-850.0,-165.0,589.0
-204.0,-36.0,143.0,60.0,0.0,-12.0,-849.0,-157.0,591.0
-203.0,-36.0,145.0,59.0,-1.0,-11.0,-844.0,-159.0,592.0
-205.0,-34.0,143.0,59.0,-1.0,-12.0,-850.0,-164.0,597.0
-204.0,-33.0,143.0,59.0,-1.0,-12.0,-852.0,-163.0,600.0
-203.0,-37.0,145.0,59.0,-2.0,-15.0,-854.0,-159.0,594.0
-206.0,-36.0,143.0,58.0,-3.0,-15.0,-853.0,-154.0,589.0
-203.0,-33.0,142.0,55.0,-1.0,-14.0,-857.0,-161.0,595.0
-204.0,-37.0,142.0,55.0,-3.0,-14.0,-846.0,-153.0,593.0
-203.0,-36.0,141.0,53.0,-3.0,-15.0,-850.0,-157.0,593.0
-204.0,-36.0,139.0,53.0,-3.0,-13.0,-849.0,-166.0,595.0
-203.0,-35.0,144.0,56.0,-1.0,-15.0,-846.0,-174.0,595.0
-204.0,-38.0,144.0,59.0,-2.0,-17.0,-846.0,-168.0,592.0
-200.0,-39.0,141.0,60.0,-4.0,-16.0,-845.0,-166.0,595.0
-203.0,-35.0,141.0,63.0,-7.0,-16.0,-850.0,-167.0,600.0
-206.0,-33.0,143.0,63.0,-8.0,-15.0,-850.0,-158.0,598.0
-201.0,-37.0,147.0,63.0,-10.0,-16.0,-840.0,-166.0,591.0
-204.0,-35.0,142.0,63.0,-10.0,-15.0,-843.0,-160.0,598.0
-202.0,-36.0,144.0,62.0,-9.0,-17.0,-848.0,-167.0,593.0
-204.0,-34.0,144.0,62.0,-7.0,-15.0,-846.0,-158.0,600.0
-201.0,-36.0,141.0,61.0,-5.0,-14.0,-844.0,-159.0,601.0
-205.0,-34.0,147.0,60.0,-1.0,-13.0,-847.0,-161.0,599.0
-202.0,-33.0,145.0,57.0,0.0,-14.0,-846.0,-157.0,598.0
-205.0,-34.0,144.0,55.0,1.0,-13.0,-842.0,-164.0,597.0
-203.0,-37.0,143.0,55.0,1.0,-12.0,-849.0,-165.0,602.0
-204.0,-39.0,144.0,54.0,2.0,-9.0,-848.0,-168.0,593.0
-204.0,-38.0,142.0,54.0,2.0,-7.0,-846.0,-164.0,600.0
-203.0,-37.0,144.0,56.0,1.0,-7.0,-845.0,-168.0,595.0
-203.0,-38.0,142.0,57.0,-2.0,-5.0,-851.0,-165.0,596.0
-202.0,-34.0,139.0,60.0,-5.0,-5.0,-843.0,-168.0,600.0
-205.0,-33.0,145.0,62.0,-7.0,-5.0,-854.0,-158.0,601.0
-205.0,-35.0,145.0,62.0,-8.0,-6.0,-851.0,-159.0,596.0
-205.0,-31.0,144.0,64.0,-7.0,-8.0,-856.0,-153.0,596.0
-203.0,-37.0,146.0,63.0,-7.0,-9.0,-846.0,-154.0,599.0
-205.0,-33.0,143.0,62.0,-5.0,-9.0,-847.0,-146.0,591.0
-203.0,-35.0,140.0,63.0,-3.0,-10.0,-847.0,-152.0,592.0
-202.0,-35.0,142.0,62.0,-2.0,-9.0,-846.0,-153.0,598.0
-205.0,-32.0,144.0,61.0,0.0,-7.0,-842.0,-154.0,599.0
-211.0,-31.0,145.0,61.0,1.0,-5.0,-845.0,-153.0,601.0
-204.0,-37.0,142.0,61.0,1.0,-3.0,-841.0,-152.0,604.0
-204.0,-38.0,145.0,61.0,1.0,-3.0,-844.0,-165.0,606.0
-205.0,-36.0,146.0,63.0,0.0,-3.0,-854.0,-162.0,601.0
-205.0,-35.0,144.0,64.0,-2.0,-1.0,-850.0,-163.0,596.0
-205.0,-36.0,143.0,65.0,-4.0,-1.0,-849.0,-157.0,607.0
-205.0,-35.0,143.0,67.0,-4.0,-2.0,-849.0,-155.0,605.0
-206.0,-35.0,144.0,67.0,-3.0,-2.0,-846.0,-161.0,598.0
-204.0,-33.0,145.0,70.0,-4.0,-4.0,-851.0,-155.0,601.0
-201.0,-35.0,146.0,70.0,-5.0,-5.0,-848.0,-158.0,598.0
-203.0,-34.0,144.0,69.0,-7.0,-6.0,-843.0,-157.0,593.0
-201.0,-38.0,142.0,70.0,-7.0,-5.0,-847.0,-157.0,593.0
-204.0,-33.0,141.0,70.0,-9.0,-5.0,-848.0,-164.0,595.0
-203.0,-37.0,141.0,73.0,-10.0,-7.0,-841.0,-159.0,596.0
-201.0,-41.0,144.0,72.0,-12.0,-8.0,-848.0,-155.0,599.0
-203.0,-34.0,143.0,75.0,-15.0,-6.0,-845.0,-156.0,598.0
-200.0,-36.0,142.0,76.0,-15.0,-6.0,-847.0,-160.0,598.0
-203.0,-33.0,143.0,76.0,-16.0,-7.0,-844.0,-160.0,604.0
-202.0,-36.0,144.0,78.0,-15.0,-7.0,-845.0,-164.0,600.0
-205.0,-35.0,145.0,78.0,-17.0,-7.0,-846.0,-160.0,604.0
-203.0,-35.0,143.0,79.0,-18.0,-7.0,-844.0,-158.0,602.0
-204.0,-28.0,141.0,80.0,-19.0,-8.0,-844.0,-158.0,600.0
-209.0,-29.0,160.0,79.0,-20.0,-8.0,-840.0,-154.0,596.0
-201.0,-32.0,143.0,78.0,-20.0,-9.0,-842.0,-156.0,598.0
-200.0,-35.0,143.0,79.0,-20.0,-9.0,-844.0,-159.0,597.0
-201.0,-39.0,141.0,78.0,-20.0,-9.0,-843.0,-160.0,597.0
-197.0,-36.0,143.0,77.0,-20.0,-10.0,-845.0,-157.0,603.0
-203.0,-33.0,144.0,75.0,-21.0,-10.0,-842.0,-161.0,605.0
-202.0,-32.0,143.0,73.0,-22.0,-10.0,-842.0,-156.0,606.0
-202.0,-33.0,149.0,72.0,-21.0,-10.0,-844.0,-161.0,613.0
-205.0,-36.0,144.0,70.0,-22.0,-10.0,-839.0,-165.0,612.0
-202.0,-37.0,147.0,73.0,-20.0,-9.0,-846.0,-164.0,607.0
-204.0,-36.0,144.0,74.0,-17.0,-8.0,-843.0,-162.0,607.0
-203.0,-35.0,144.0,75.0,-17.0,-9.0,-846.0,-160.0,603.0
-203.0,-34.0,141.0,77.0,-16.0,-10.0,-849.0,-154.0,602.0
-203.0,-35.0,143.0,74.0,-18.0,-10.0,-849.0,-145.0,600.0
-202.0,-36.0,145.0,71.0,-16.0,-11.0,-848.0,-142.0,598.0
-204.0,-30.0,145.0,69.0,-17.0,-14.0,-842.0,-138.0,591.0
-204.0,-32.0,144.0,65.0,-18.0,-13.0,-842.0,-143.0,604.0
-202.0,-31.0,147.0,62.0,-16.0,-16.0,-842.0,-141.0,604.0
-202.0,-35.0,144.0,59.0,-17.0,-17.0,-837.0,-152.0,611.0
-199.0,-34.0,149.0,57.0,-18.0,-18.0,-837.0,-158.0,616.0
-200.0,-35.0,144.0,57.0,-16.0,-21.0,-838.0,-167.0,620.0
-202.0,-36.0,147.0,60.0,-17.0,-21.0,-837.0,-167.0,607.0
-202.0,-39.0,148.0,61.0,-17.0,-22.0,-838.0,-172.0,619.0
-200.0,-38.0,150.0,65.0,-14.0,-20.0,-836.0,-171.0,618.0
-199.0,-38.0,147.0,66.0,-14.0,-16.0,-837.0,-163.0,620.0
-200.0,-33.0,143.0,65.0,-13.0,-15.0,-835.0,-163.0,614.0
-203.0,-32.0,148.0,65.0,-13.0,-15.0,-836.0,-158.0,624.0
-201.0,-35.0,146.0,63.0,-11.0,-12.0,-837.0,-159.0,609.0
-202.0,-35.0,144.0,61.0,-9.0,-13.0,-841.0,-160.0,611.0
-200.0,-36.0,147.0,62.0,-6.0,-12.0,-841.0,-157.0,613.0
-204.0,-34.0,144.0,63.0,-4.0,-14.0,-843.0,-152.0,607.0
-203.0,-32.0,145.0,65.0,-2.0,-14.0,-840.0,-155.0,604.0
-201.0,-34.0,144.0,65.0,-4.0,-19.0,-846.0,-155.0,602.0
-204.0,-33.0,140.0,66.0,-5.0,-19.0,-844.0,-154.0,604.0
-202.0,-36.0,143.0,67.0,-6.0,-20.0,-847.0,-156.0,593.0
-202.0,-34.0,142.0,69.0,-7.0,-22.0,-844.0,-156.0,601.0
-203.0,-35.0,141.0,71.0,-8.0,-23.0,-842.0,-156.0,599.0
-205.0,-33.0,142.0,73.0,-10.0,-24.0,-844.0,-156.0,599.0
-202.0,-33.0,147.0,74.0,-10.0,-24.0,-847.0,-151.0,606.0
-203.0,-33.0,143.0,75.0,-10.0,-24.0,-843.0,-154.0,605.0
-201.0,-31.0,143.0,73.0,-10.0,-26.0,-847.0,-155.0,611.0
-202.0,-34.0,146.0,75.0,-10.0,-27.0,-839.0,-153.0,617.0
-199.0,-34.0,150.0,74.0,-10.0,-30.0,-839.0,-153.0,614.0
-199.0,-31.0,140.0,72.0,-9.0,-31.0,-838.0,-152.0,615.0
-203.0,-35.0,147.0,71.0,-8.0,-35.0,-845.0,-156.0,618.0
-204.0,-35.0,148.0,71.0,-6.0,-34.0,-847.0,-151.0,610.0
-202.0,-33.0,147.0,69.0,-4.0,-33.0,-840.0,-153.0,618.0
-203.0,-34.0,148.0,66.0,-2.0,-31.0,-848.0,-156.0,611.0
-200.0,-34.0,149.0,65.0,0.0,-30.0,-842.0,-157.0,611.0
-203.0,-33.0,143.0,64.0,2.0,-28.0,-843.0,-159.0,611.0
-203.0,-35.0,147.0,62.0,1.0,-26.0,-839.0,-156.0,605.0
-204.0,-36.0,143.0,63.0,1.0,-23.0,-845.0,-158.0,598.0
-203.0,-37.0,144.0,66.0,-2.0,-20.0,-838.0,-158.0,603.0
-202.0,-35.0,146.0,67.0,-4.0,-18.0,-838.0,-159.0,609.0
-202.0,-33.0,144.0,70.0,-6.0,-16.0,-843.0,-158.0,606.0
-204.0,-35.0,143.0,72.0,-9.0,-14.0,-844.0,-161.0,607.0
-200.0,-37.0,143.0,74.0,-12.0,-15.0,-842.0,-154.0,609.0
-204.0,-31.0,146.0,73.0,-15.0,-14.0,-848.0,-151.0,603.0
-201.0,-36.0,146.0,72.0,-16.0,-14.0,-846.0,-147.0,606.0
-202.0,-32.0,148.0,71.0,-17.0,-16.0,-843.0,-152.0,607.0
-201.0,-32.0,144.0,70.0,-19.0,-17.0,-843.0,-142.0,607.0
-201.0,-29.0,150.0,68.0,-20.0,-16.0,-843.0,-145.0,609.0
-203.0,-33.0,144.0,65.0,-20.0,-17.0,-838.0,-152.0,607.0
-203.0,-34.0,144.0,62.0,-22.0,-17.0,-837.0,-152.0,613.0
-200.0,-35.0,146.0,60.0,-24.0,-19.0,-839.0,-150.0,613.0
-206.0,-36.0,144.0,58.0,-25.0,-20.0,-837.0,-161.0,618.0
-200.0,-34.0,149.0,57.0,-25.0,-20.0,-837.0,-152.0,615.0
-202.0,-32.0,146.0,58.0,-27.0,-19.0,-841.0,-153.0,620.0
-199.0,-33.0,150.0,57.0,-26.0,-20.0,-837.0,-156.0,617.0
-200.0,-34.0,146.0,56.0,-26.0,-19.0,-834.0,-153.0,616.0
-201.0,-33.0,144.0,57.0,-27.0,-19.0,-832.0,-159.0,613.0
-198.0,-37.0,149.0,58.0,-26.0,-20.0,-832.0,-164.0,625.0
-201.0,-35.0,149.0,59.0,-26.0,-19.0,-839.0,-165.0,621.0
-198.0,-36.0,146.0,61.0,-27.0,-19.0,-833.0,-162.0,617.0
-200.0,-38.0,148.0,62.0,-26.0,-20.0,-836.0,-165.0,623.0
-200.0,-37.0,149.0,66.0,-23.0,-19.0,-840.0,-161.0,617.0
-202.0,-34.0,149.0,69.0,-21.0,-19.0,-831.0,-163.0,618.0
-200.0,-34.0,144.0,71.0,-21.0,-21.0,-829.0,-161.0,617.0
-200.0,-35.0,145.0,73.0,-21.0,-20.0,-833.0,-156.0,629.0
-197.0,-36.0,148.0,71.0,-20.0,-20.0,-832.0,-156.0,621.0
-202.0,-33.0,149.0,70.0,-19.0,-20.0,-833.0,-153.0,628.0
-198.0,-36.0,150.0,70.0,-19.0,-19.0,-828.0,-151.0,626.0
-199.0,-36.0,150.0,70.0,-17.0,-21.0,-828.0,-159.0,628.0
-199.0,-30.0,153.0,68.0,-15.0,-20.0,-829.0,-155.0,632.0
-198.0,-36.0,148.0,67.0,-12.0,-20.0,-826.0,-155.0,628.0
-197.0,-33.0,148.0,64.0,-9.0,-20.0,-829.0,-165.0,629.0
-200.0,-34.0,149.0,62.0,-5.0,-20.0,-827.0,-159.0,636.0
-203.0,-37.0,148.0,60.0,-3.0,-19.0,-833.0,-156.0,631.0
-199.0,-33.0,150.0,59.0,2.0,-17.0,-828.0,-153.0,633.0
-198.0,-35.0,151.0,57.0,5.0,-16.0,-825.0,-157.0,630.0
-197.0,-34.0,150.0,58.0,9.0,-13.0,-830.0,-159.0,633.0
-201.0,-32.0,153.0,57.0,13.0,-11.0,-829.0,-158.0,628.0
-201.0,-34.0,149.0,58.0,15.0,-11.0,-835.0,-161.0,627.0
-201.0,-35.0,147.0,60.0,18.0,-11.0,-835.0,-161.0,629.0
-200.0,-35.0,148.0,60.0,20.0,-9.0,-831.0,-162.0,627.0
-201.0,-34.0,145.0,61.0,23.0,-10.0,-830.0,-162.0,627.0
-202.0,-34.0,148.0,62.0,27.0,-11.0,-827.0,-160.0,628.0
-203.0,-34.0,148.0,64.0,29.0,-10.0,-834.0,-162.0,630.0
-202.0,-32.0,151.0,65.0,31.0,-7.0,-830.0,-158.0,628.0
-198.0,-38.0,152.0,65.0,33.0,-7.0,-835.0,-159.0,625.0
-201.0,-34.0,147.0,67.0,37.0,-7.0,-836.0,-156.0,630.0
-199.0,-34.0,149.0,67.0,39.0,-7.0,-838.0,-158.0,627.0
-200.0,-34.0,144.0,68.0,41.0,-5.0,-833.0,-157.0,627.0
-202.0,-36.0,146.0,69.0,41.0,-7.0,-833.0,-162.0,620.0
-201.0,-33.0,146.0,69.0,42.0,-6.0,-837.0,-159.0,612.0
-198.0,-38.0,145.0,68.0,42.0,-5.0,-834.0,-160.0,608.0
-201.0,-34.0,144.0,71.0,37.0,-6.0,-836.0,-156.0,604.0
-204.0,-34.0,143.0,74.0,34.0,-6.0,-835.0,-159.0,604.0
-203.0,-34.0,146.0,77.0,29.0,-5.0,-841.0,-161.0,600.0
-198.0,-38.0,146.0,81.0,23.0,-5.0,-837.0,-157.0,601.0
-202.0,-32.0,145.0,83.0,18.0,-6.0,-839.0,-151.0,607.0
-200.0,-31.0,148.0,84.0,13.0,-5.0,-839.0,-148.0,610.0
-200.0,-27.0,145.0,86.0,9.0,-8.0,-842.0,-151.0,602.0
-205.0,-32.0,142.0,85.0,8.0,-7.0,-837.0,-146.0,610.0
-202.0,-32.0,147.0,82.0,8.0,-10.0,-840.0,-144.0,609.0
-203.0,-29.0,147.0,78.0,5.0,-12.0,-837.0,-145.0,610.0
-200.0,-32.0,147.0,77.0,5.0,-12.0,-843.0,-149.0,614.0
-203.0,-33.0,144.0,74.0,6.0,-13.0,-838.0,-143.0,616.0
-202.0,-34.0,150.0,70.0,6.0,-14.0,-835.0,-152.0,613.0
-202.0,-33.0,149.0,68.0,6.0,-15.0,-837.0,-152.0,625.0
-197.0,-37.0,146.0,66.0,8.0,-15.0,-837.0,-152.0,617.0
-200.0,-35.0,145.0,64.0,8.0,-15.0,-835.0,-158.0,624.0
-198.0,-35.0,144.0,64.0,7.0,-14.0,-834.0,-154.0,626.0
-203.0,-34.0,144.0,66.0,6.0,-12.0,-833.0,-160.0,618.0
-202.0,-33.0,146.0,66.0,4.0,-12.0,-831.0,-153.0,607.0
-203.0,-31.0,148.0,67.0,4.0,-11.0,-843.0,-152.0,621.0
-202.0,-32.0,144.0,68.0,2.0,-11.0,-836.0,-152.0,627.0
-198.0,-34.0,147.0,69.0,1.0,-11.0,-837.0,-155.0,623.0
-201.0,-33.0,149.0,70.0,0.0,-12.0,-843.0,-149.0,620.0
-201.0,-30.0,145.0,69.0,-2.0,-11.0,-838.0,-148.0,627.0
-201.0,-24.0,146.0,69.0,-3.0,-10.0,-839.0,-154.0,625.0
-205.0,-37.0,154.0,71.0,-3.0,-12.0,-832.0,-150.0,611.0
-200.0,-34.0,148.0,70.0,-2.0,-12.0,-835.0,-153.0,620.0
-200.0,-35.0,147.0,70.0,-1.0,-14.0,-837.0,-151.0,626.0
-198.0,-37.0,148.0,69.0,0.0,-13.0,-828.0,-161.0,625.0
-206.0,-32.0,149.0,77.0,8.0,-11.0,-824.0,-167.0,627.0
-202.0,-26.0,147.0,79.0,3.0,-17.0,-849.0,-128.0,620.0
-201.0,-34.0,147.0,59.0,0.0,-21.0,-831.0,-148.0,623.0
-202.0,-31.0,146.0,67.0,1.0,-29.0,-831.0,-156.0,609.0
-198.0,-33.0,149.0,70.0,0.0,-29.0,-826.0,-152.0,633.0
-197.0,-33.0,151.0,63.0,-3.0,-23.0,-822.0,-161.0,637.0
-198.0,-32.0,148.0,57.0,-3.0,-16.0,-822.0,-160.0,631.0
-198.0,-33.0,151.0,61.0,0.0,-14.0,-828.0,-153.0,628.0
-198.0,-29.0,152.0,62.0,-1.0,-9.0,-826.0,-147.0,620.0
-199.0,-35.0,149.0,59.0,0.0,-9.0,-834.0,-152.0,627.0
-202.0,-34.0,151.0,55.0,2.0,-12.0,-833.0,-154.0,631.0
-199.0,-32.0,147.0,55.0,2.0,-17.0,-832.0,-151.0,630.0
-200.0,-31.0,152.0,57.0,1.0,-18.0,-830.0,-155.0,618.0
-198.0,-33.0,147.0,59.0,1.0,-17.0,-834.0,-152.0,620.0
-198.0,-35.0,150.0,59.0,3.0,-17.0,-831.0,-155.0,617.0
-201.0,-34.0,148.0,60.0,3.0,-15.0,-833.0,-153.0,624.0
-200.0,-33.0,146.0,62.0,4.0,-15.0,-829.0,-156.0,620.0
-201.0,-34.0,148.0,62.0,3.0,-15.0,-842.0,-150.0,618.0
-198.0,-33.0,145.0,61.0,4.0,-15.0,-829.0,-154.0,618.0
-198.0,-31.0,150.0,62.0,5.0,-15.0,-834.0,-153.0,624.0
-202.0,-33.0,146.0,63.0,6.0,-14.0,-833.0,-153.0,624.0
-201.0,-32.0,147.0,63.0,6.0,-14.0,-834.0,-152.0,615.0
-200.0,-33.0,155.0,62.0,8.0,-14.0,-832.0,-163.0,627.0
-198.0,-32.0,152.0,64.0,10.0,-15.0,-832.0,-154.0,626.0
-201.0,-35.0,149.0,63.0,13.0,-14.0,-836.0,-156.0,621.0
-202.0,-34.0,147.0,65.0,14.0,-13.0,-834.0,-149.0,621.0
-203.0,-33.0,147.0,64.0,14.0,-15.0,-840.0,-154.0,625.0
-199.0,-33.0,148.0,65.0,14.0,-14.0,-832.0,-152.0,627.0
-200.0,-32.0,147.0,64.0,14.0,-14.0,-839.0,-149.0,625.0
-201.0,-31.0,144.0,64.0,14.0,-13.0,-831.0,-152.0,630.0
-197.0,-34.0,146.0,63.0,14.0,-13.0,-834.0,-152.0,626.0
-201.0,-32.0,148.0,63.0,13.0,-13.0,-831.0,-153.0,626.0
-202.0,-32.0,149.0,62.0,12.0,-12.0,-832.0,-151.0,629.0
-201.0,-32.0,146.0,60.0,11.0,-14.0,-835.0,-152.0,626.0
-202.0,-30.0,148.0,60.0,12.0,-14.0,-842.0,-150.0,619.0
-202.0,-30.0,148.0,59.0,11.0,-13.0,-832.0,-150.0,626.0
-202.0,-32.0,145.0,56.0,12.0,-13.0,-833.0,-151.0,624.0
-198.0,-34.0,151.0,55.0,10.0,-14.0,-840.0,-151.0,628.0
-199.0,-33.0,149.0,54.0,11.0,-14.0,-832.0,-151.0,620.0
-206.0,-37.0,149.0,52.0,12.0,-13.0,-834.0,-149.0,621.0
-199.0,-33.0,149.0,50.0,11.0,-11.0,-837.0,-153.0,626.0
-202.0,-32.0,146.0,51.0,12.0,-11.0,-833.0,-153.0,623.0
-200.0,-36.0,145.0,51.0,12.0,-9.0,-832.0,-155.0,619.0
-202.0,-34.0,150.0,52.0,11.0,-10.0,-832.0,-158.0,624.0
-202.0,-35.0,152.0,54.0,11.0,-8.0,-827.0,-158.0,625.0
-200.0,-34.0,147.0,55.0,11.0,-8.0,-829.0,-156.0,621.0
-198.0,-33.0,148.0,56.0,10.0,-7.0,-829.0,-156.0,624.0
-201.0,-32.0,151.0,57.0,10.0,-8.0,-839.0,-152.0,626.0
-199.0,-31.0,152.0,58.0,10.0,-7.0,-834.0,-156.0,625.0
-201.0,-33.0,147.0,60.0,9.0,-7.0,-840.0,-155.0,626.0
-202.0,-33.0,149.0,61.0,9.0,-7.0,-834.0,-153.0,628.0
-200.0,-35.0,149.0,61.0,9.0,-8.0,-835.0,-148.0,629.0
-200.0,-35.0,150.0,60.0,10.0,-8.0,-840.0,-152.0,628.0
-202.0,-36.0,151.0,59.0,11.0,-7.0,-832.0,-151.0,629.0
-199.0,-35.0,151.0,58.0,14.0,-7.0,-838.0,-151.0,627.0
-200.0,-34.0,148.0,57.0,15.0,-7.0,-835.0,-156.0,627.0
-203.0,-31.0,150.0,56.0,15.0,-7.0,-838.0,-156.0,629.0
-199.0,-32.0,147.0,55.0,16.0,-8.0,-833.0,-152.0,624.0
-202.0,-31.0,148.0,55.0,16.0,-7.0,-835.0,-154.0,625.0
-199.0,-35.0,144.0,55.0,16.0,-9.0,-834.0,-152.0,627.0
-199.0,-37.0,150.0,55.0,15.0,-7.0,-832.0,-150.0,623.0
-199.0,-30.0,153.0,56.0,17.0,-8.0,-834.0,-153.0,628.0
-199.0,-32.0,147.0,55.0,16.0,-8.0,-828.0,-151.0,619.0
-199.0,-34.0,148.0,54.0,16.0,-9.0,-831.0,-154.0,622.0
-199.0,-32.0,147.0,53.0,15.0,-9.0,-825.0,-153.0,618.0
-200.0,-34.0,151.0,52.0,14.0,-9.0,-836.0,-157.0,617.0
-198.0,-34.0,145.0,54.0,13.0,-11.0,-830.0,-154.0,619.0
-200.0,-32.0,148.0,53.0,13.0,-9.0,-831.0,-150.0,613.0
-200.0,-35.0,147.0,56.0,11.0,-8.0,-837.0,-150.0,625.0
-201.0,-32.0,146.0,57.0,10.0,-10.0,-832.0,-152.0,627.0
-201.0,-32.0,149.0,56.0,10.0,-9.0,-840.0,-152.0,611.0
-200.0,-35.0,146.0,56.0,9.0,-9.0,-830.0,-151.0,619.0
-202.0,-34.0,147.0,57.0,8.0,-11.0,-835.0,-153.0,619.0
-201.0,-30.0,146.0,55.0,6.0,-11.0,-831.0,-154.0,618.0
-202.0,-33.0,145.0,55.0,7.0,-12.0,-831.0,-152.0,622.0
-202.0,-33.0,147.0,54.0,6.0,-11.0,-840.0,-151.0,617.0
-198.0,-34.0,150.0,52.0,5.0,-11.0,-836.0,-151.0,617.0
-201.0,-30.0,147.0,51.0,5.0,-12.0,-833.0,-148.0,627.0
-199.0,-35.0,148.0,49.0,5.0,-11.0,-838.0,-149.0,625.0
-198.0,-31.0,150.0,48.0,4.0,-12.0,-828.0,-153.0,630.0
-198.0,-33.0,150.0,48.0,3.0,-13.0,-831.0,-149.0,627.0
-201.0,-37.0,144.0,47.0,3.0,-13.0,-834.0,-148.0,624.0
-202.0,-33.0,150.0,46.0,3.0,-13.0,-831.0,-156.0,628.0
-202.0,-34.0,146.0,48.0,3.0,-12.0,-830.0,-153.0,628.0
-200.0,-34.0,147.0,48.0,2.0,-14.0,-831.0,-157.0,630.0
-199.0,-35.0,147.0,49.0,4.0,-12.0,-831.0,-154.0,627.0
-199.0,-34.0,149.0,49.0,6.0,-11.0,-831.0,-153.0,627.0
-199.0,-36.0,152.0,49.0,7.0,-9.0,-827.0,-159.0,628.0
-199.0,-36.0,149.0,52.0,7.0,-7.0,-829.0,-161.0,631.0
-200.0,-33.0,149.0,53.0,7.0,-7.0,-834.0,-154.0,619.0
-202.0,-33.0,149.0,53.0,7.0,-7.0,-839.0,-149.0,626.0
-200.0,-32.0,151.0,54.0,6.0,-9.0,-843.0,-146.0,627.0
-199.0,-31.0,148.0,53.0,6.0,-12.0,-838.0,-138.0,625.0
-204.0,-33.0,151.0,50.0,6.0,-12.0,-838.0,-137.0,626.0
-200.0,-28.0,147.0,48.0,9.0,-12.0,-837.0,-134.0,626.0
-200.0,-33.0,146.0,48.0,10.0,-14.0,-835.0,-141.0,626.0
-201.0,-32.0,149.0,45.0,11.0,-16.0,-834.0,-153.0,621.0
-200.0,-36.0,149.0,46.0,12.0,-17.0,-827.0,-156.0,624.0
-198.0,-34.0,148.0,48.0,13.0,-15.0,-830.0,-165.0,618.0
-202.0,-35.0,148.0,51.0,13.0,-14.0,-830.0,-170.0,622.0
-199.0,-38.0,148.0,54.0,12.0,-13.0,-834.0,-169.0,624.0
-197.0,-35.0,147.0,57.0,12.0,-9.0,-829.0,-164.0,629.0
-202.0,-35.0,147.0,58.0,10.0,-6.0,-831.0,-161.0,628.0
-203.0,-32.0,150.0,60.0,9.0,-6.0,-829.0,-158.0,629.0
-197.0,-33.0,151.0,58.0,10.0,-5.0,-835.0,-154.0,628.0
-202.0,-29.0,140.0,57.0,13.0,-4.0,-831.0,-154.0,629.0
-203.0,-35.0,148.0,54.0,15.0,-2.0,-827.0,-158.0,634.0
-206.0,-37.0,143.0,54.0,18.0,-1.0,-831.0,-155.0,627.0
-202.0,-33.0,147.0,56.0,20.0,-1.0,-833.0,-161.0,623.0
-198.0,-32.0,148.0,56.0,23.0,-1.0,-833.0,-154.0,622.0
-199.0,-31.0,144.0,54.0,22.0,1.0,-831.0,-151.0,614.0
-200.0,-32.0,147.0,52.0,22.0,1.0,-828.0,-152.0,625.0
-201.0,-33.0,146.0,49.0,23.0,0.0,-833.0,-153.0,628.0
-201.0,-35.0,144.0,46.0,23.0,4.0,-829.0,-161.0,618.0
-197.0,-35.0,148.0,43.0,24.0,6.0,-836.0,-157.0,629.0
-199.0,-37.0,150.0,44.0,25.0,7.0,-828.0,-161.0,632.0
-199.0,-37.0,150.0,45.0,24.0,8.0,-827.0,-160.0,634.0
-197.0,-34.0,153.0,48.0,25.0,8.0,-829.0,-158.0,635.0
-200.0,-35.0,149.0,53.0,26.0,9.0,-831.0,-153.0,630.0
-201.0,-34.0,151.0,55.0,26.0,12.0,-828.0,-155.0,632.0
-197.0,-36.0,146.0,59.0,27.0,11.0,-832.0,-158.0,628.0
-202.0,-36.0,149.0,63.0,27.0,10.0,-833.0,-160.0,632.0
-197.0,-35.0,148.0,65.0,28.0,8.0,-831.0,-157.0,628.0
-198.0,-36.0,149.0,67.0,31.0,8.0,-830.0,-160.0,626.0
-198.0,-34.0,150.0,67.0,32.0,9.0,-829.0,-152.0,629.0
-202.0,-34.0,151.0,67.0,33.0,8.0,-828.0,-148.0,625.0
-200.0,-29.0,150.0,64.0,36.0,9.0,-833.0,-143.0,632.0
-200.0,-28.0,152.0,62.0,36.0,11.0,-826.0,-142.0,626.0
-200.0,-32.0,149.0,59.0,38.0,11.0,-834.0,-138.0,625.0
-202.0,-32.0,146.0,55.0,40.0,13.0,-831.0,-136.0,628.0
-198.0,-34.0,147.0,54.0,40.0,13.0,-828.0,-145.0,629.0
-200.0,-32.0,148.0,51.0,40.0,14.0,-830.0,-150.0,626.0
-200.0,-31.0,147.0,52.0,39.0,13.0,-836.0,-150.0,626.0
-200.0,-31.0,148.0,53.0,37.0,13.0,-837.0,-151.0,628.0
-201.0,-33.0,149.0,54.0,36.0,13.0,-840.0,-148.0,623.0
-205.0,-34.0,148.0,55.0,34.0,13.0,-845.0,-152.0,615.0
-205.0,-35.0,148.0,55.0,33.0,11.0,-850.0,-146.0,619.0
-199.0,-31.0,150.0,56.0,33.0,8.0,-843.0,-145.0,611.0
-203.0,-27.0,149.0,55.0,35.0,5.0,-847.0,-134.0,632.0
-204.0,-29.0,149.0,54.0,39.0,4.0,-843.0,-132.0,622.0
-199.0,-30.0,148.0,52.0,41.0,1.0,-845.0,-134.0,621.0
-203.0,-27.0,147.0,49.0,41.0,0.0,-841.0,-130.0,623.0
