acc1_x,acc1_y,acc1_z,gyro_x,gyro_y,gyro_z,acc2_x,acc2_y,acc2_z
-2.0,-254.0,-27.0,7.0,69.0,-8.0,15.0,-983.0,-141.0
-4.0,-254.0,-23.0,6.0,67.0,-8.0,16.0,-982.0,-142.0
-3.0,-253.0,-25.0,4.0,67.0,-7.0,13.0,-986.0,-138.0
-4.0,-251.0,-28.0,0.0,65.0,-6.0,16.0,-981.0,-142.0
-5.0,-255.0,-27.0,-3.0,64.0,-6.0,13.0,-982.0,-140.0
-1.0,-255.0,-31.0,-6.0,63.0,-3.0,8.0,-981.0,-140.0
-4.0,-255.0,-26.0,-10.0,65.0,-4.0,20.0,-985.0,-142.0
-4.0,-257.0,-28.0,-11.0,66.0,-1.0,12.0,-995.0,-144.0
-4.0,-255.0,-26.0,-12.0,67.0,-2.0,15.0,-983.0,-140.0
-5.0,-255.0,-28.0,-13.0,68.0,-3.0,12.0,-993.0,-141.0
-7.0,-253.0,-27.0,-13.0,69.0,-3.0,11.0,-992.0,-142.0
-7.0,-254.0,-26.0,-13.0,69.0,-3.0,9.0,-989.0,-141.0
-5.0,-251.0,-28.0,-13.0,69.0,-4.0,11.0,-985.0,-143.0
-6.0,-257.0,-28.0,-15.0,69.0,-4.0,11.0,-991.0,-142.0
-11.0,-258.0,-22.0,-17.0,69.0,-5.0,8.0,-979.0,-144.0
-5.0,-256.0,-25.0,-19.0,67.0,-5.0,7.0,-982.0,-138.0
-3.0,-253.0,-29.0,-20.0,66.0,-4.0,9.0,-984.0,-140.0
-6.0,-254.0,-29.0,-21.0,67.0,-6.0,6.0,-982.0,-141.0
-14.0,-254.0,-23.0,-22.0,68.0,-6.0,8.0,-979.0,-140.0
-3.0,-256.0,-22.0,-22.0,67.0,-4.0,8.0,-985.0,-138.0
-5.0,-256.0,-26.0,-21.0,68.0,-4.0,14.0,-978.0,-137.0
-5.0,-254.0,-24.0,-20.0,68.0,-4.0,12.0,-984.0,-132.0
-6.0,-254.0,-23.0,-19.0,68.0,-3.0,14.0,-992.0,-136.0
0.0,-257.0,-23.0,-20.0,68.0,-4.0,17.0,-985.0,-129.0
-5.0,-256.0,-27.0,-18.0,67.0,-4.0,14.0,-993.0,-138.0
-2.0,-255.0,-26.0,-18.0,67.0,-5.0,15.0,-984.0,-135.0
-1.0,-255.0,-22.0,-19.0,64.0,-5.0,17.0,-993.0,-137.0
-7.0,-253.0,-21.0,-20.0,64.0,-3.0,16.0,-1005.0,-139.0
-5.0,-255.0,-25.0,-19.0,64.0,-4.0,14.0,-981.0,-138.0
-5.0,-253.0,-23.0,-20.0,65.0,-3.0,18.0,-984.0,-136.0
-4.0,-255.0,-29.0,-18.0,62.0,-2.0,14.0,-988.0,-134.0
-4.0,-257.0,-25.0,-19.0,62.0,-2.0,13.0,-986.0,-136.0
-3.0,-257.0,-21.0,-16.0,63.0,-3.0,11.0,-992.0,-129.0
-3.0,-255.0,-28.0,-16.0,62.0,-3.0,13.0,-991.0,-138.0
-7.0,-253.0,-27.0,-13.0,64.0,-4.0,16.0,-985.0,-141.0
-3.0,-255.0,-23.0,-12.0,66.0,-2.0,14.0,-986.0,-140.0
0.0,-256.0,-27.0,-11.0,67.0,-6.0,14.0,-983.0,-136.0
-5.0,-254.0,-26.0,-11.0,68.0,-6.0,16.0,-983.0,-136.0
-6.0,-253.0,-22.0,-15.0,69.0,-7.0,16.0,-983.0,-134.0
-3.0,-256.0,-25.0,-15.0,70.0,-7.0,16.0,-983.0,-140.0
-4.0,-257.0,-22.0,-17.0,70.0,-4.0,14.0,-980.0,-135.0
-2.0,-255.0,-26.0,-19.0,68.0,-4.0,14.0,-982.0,-133.0
-5.0,-256.0,-22.0,-21.0,68.0,-3.0,16.0,-975.0,-136.0
-4.0,-255.0,-23.0,-23.0,66.0,-3.0,18.0,-984.0,-141.0
-3.0,-255.0,-23.0,-24.0,66.0,-2.0,13.0,-986.0,-137.0
-6.0,-256.0,-28.0,-25.0,65.0,0.0,9.0,-984.0,-139.0
-7.0,-255.0,-28.0,-24.0,67.0,-2.0,11.0,-987.0,-143.0
-4.0,-255.0,-22.0,-23.0,65.0,0.0,10.0,-986.0,-133.0
-4.0,-258.0,-29.0,-19.0,67.0,-1.0,16.0,-1000.0,-142.0
-2.0,-256.0,-26.0,-16.0,68.0,-1.0,12.0,-988.0,-141.0
-4.0,-255.0,-23.0,-13.0,68.0,-2.0,12.0,-991.0,-133.0
-4.0,-256.0,-24.0,-10.0,67.0,-2.0,15.0,-985.0,-135.0
-5.0,-255.0,-25.0,-8.0,69.0,-1.0,13.0,-994.0,-137.0
-6.0,-257.0,-27.0,-6.0,68.0,-1.0,12.0,-987.0,-140.0
-6.0,-257.0,-26.0,-6.0,68.0,-1.0,17.0,-986.0,-136.0
-4.0,-251.0,-22.0,-6.0,69.0,-1.0,16.0,-980.0,-143.0
-1.0,-253.0,-32.0,-8.0,67.0,0.0,12.0,-980.0,-139.0
-4.0,-256.0,-25.0,-10.0,68.0,2.0,10.0,-989.0,-140.0
-2.0,-253.0,-26.0,-12.0,68.0,-1.0,9.0,-985.0,-139.0
-3.0,-254.0,-28.0,-14.0,68.0,1.0,11.0,-981.0,-146.0
-4.0,-256.0,-26.0,-16.0,69.0,0.0,13.0,-981.0,-143.0
-5.0,-254.0,-27.0,-17.0,70.0,-1.0,15.0,-981.0,-142.0
-5.0,-255.0,-27.0,-17.0,72.0,0.0,13.0,-984.0,-148.0
-4.0,-253.0,-25.0,-18.0,74.0,0.0,12.0,-983.0,-142.0
-2.0,-258.0,-29.0,-17.0,74.0,-1.0,17.0,-985.0,-143.0
-7.0,-255.0,-30.0,-17.0,75.0,1.0,14.0,-981.0,-138.0
-5.0,-257.0,-27.0,-16.0,76.0,0.0,14.0,-985.0,-143.0
-3.0,-254.0,-26.0,-14.0,75.0,0.0,12.0,-992.0,-142.0
-6.0,-254.0,-27.0,-14.0,75.0,1.0,11.0,-984.0,-139.0
-5.0,-253.0,-29.0,-14.0,74.0,1.0,15.0,-986.0,-141.0
-5.0,-255.0,-33.0,-14.0,73.0,0.0,14.0,-984.0,-138.0
-3.0,-257.0,-25.0,-14.0,73.0,1.0,12.0,-991.0,-141.0
-6.0,-254.0,-26.0,-15.0,71.0,1.0,14.0,-986.0,-136.0
-5.0,-257.0,-28.0,-14.0,71.0,1.0,14.0,-989.0,-143.0
-4.0,-253.0,-24.0,-14.0,70.0,0.0,16.0,-980.0,-138.0
-2.0,-253.0,-25.0,-15.0,69.0,0.0,11.0,-981.0,-137.0
-4.0,-252.0,-24.0,-15.0,70.0,0.0,14.0,-985.0,-136.0
-7.0,-252.0,-27.0,-12.0,71.0,-1.0,7.0,-982.0,-135.0
-3.0,-252.0,-26.0,-11.0,72.0,-1.0,11.0,-986.0,-135.0
-5.0,-256.0,-26.0,-9.0,71.0,-1.0,13.0,-989.0,-141.0
-3.0,-256.0,-24.0,-10.0,72.0,-1.0,14.0,-992.0,-141.0
-6.0,-254.0,-24.0,-12.0,71.0,-1.0,11.0,-984.0,-141.0
-6.0,-255.0,-26.0,-14.0,70.0,0.0,11.0,-979.0,-138.0
-4.0,-253.0,-28.0,-16.0,70.0,1.0,16.0,-981.0,-137.0
-4.0,-258.0,-23.0,-17.0,72.0,0.0,14.0,-982.0,-137.0
-4.0,-254.0,-22.0,-17.0,72.0,0.0,12.0,-992.0,-140.0
-1.0,-254.0,-25.0,-17.0,72.0,0.0,13.0,-985.0,-139.0
-3.0,-256.0,-29.0,-18.0,71.0,-1.0,14.0,-990.0,-139.0
0.0,-258.0,-24.0,-18.0,71.0,-1.0,14.0,-984.0,-140.0
-4.0,-253.0,-25.0,-18.0,71.0,-3.0,12.0,-986.0,-138.0
-4.0,-253.0,-24.0,-18.0,70.0,-2.0,12.0,-986.0,-142.0
-5.0,-253.0,-27.0,-19.0,70.0,-2.0,10.0,-992.0,-137.0
0.0,-254.0,-19.0,-18.0,69.0,-2.0,11.0,-985.0,-136.0
-6.0,-255.0,-23.0,-18.0,69.0,-3.0,8.0,-982.0,-140.0
-3.0,-259.0,-27.0,-20.0,69.0,-2.0,9.0,-987.0,-137.0
-6.0,-255.0,-29.0,-19.0,69.0,-1.0,9.0,-979.0,-134.0
-2.0,-255.0,-29.0,-18.0,69.0,-3.0,11.0,-990.0,-140.0
-2.0,-257.0,-27.0,-17.0,71.0,-1.0,10.0,-998.0,-143.0
-9.0,-258.0,-29.0,-16.0,70.0,-3.0,13.0,-1002.0,-139.0
-3.0,-258.0,-22.0,-14.0,71.0,-2.0,14.0,-992.0,-142.0
-3.0,-257.0,-26.0,-13.0,72.0,-3.0,18.0,-993.0,-142.0
-1.0,-255.0,-27.0,-11.0,72.0,-3.0,14.0,-990.0,-139.0
-3.0,-253.0,-24.0,-8.0,72.0,-4.0,15.0,-984.0,-142.0
-5.0,-256.0,-28.0,-6.0,70.0,-3.0,17.0,-983.0,-134.0
-4.0,-252.0,-26.0,-7.0,71.0,-2.0,13.0,-988.0,-136.0
-5.0,-251.0,-21.0,-6.0,72.0,-4.0,11.0,-985.0,-139.0
-7.0,-255.0,-23.0,-8.0,68.0,-2.0,17.0,-979.0,-136.0
-5.0,-253.0,-26.0,-11.0,69.0,-3.0,16.0,-991.0,-141.0
-4.0,-253.0,-24.0,-14.0,69.0,-5.0,10.0,-984.0,-134.0
-5.0,-255.0,-21.0,-16.0,68.0,-4.0,8.0,-982.0,-137.0
-5.0,-254.0,-23.0,-18.0,68.0,-3.0,12.0,-984.0,-138.0
-3.0,-255.0,-29.0,-18.0,69.0,-5.0,10.0,-985.0,-141.0
-4.0,-254.0,-25.0,-16.0,69.0,-4.0,13.0,-987.0,-140.0
-4.0,-256.0,-28.0,-15.0,71.0,-5.0,11.0,-985.0,-141.0
-7.0,-252.0,-22.0,-13.0,73.0,-6.0,11.0,-986.0,-141.0
-5.0,-256.0,-24.0,-12.0,74.0,-5.0,14.0,-995.0,-142.0
-8.0,-255.0,-23.0,-12.0,76.0,-5.0,8.0,-992.0,-140.0
-4.0,-255.0,-24.0,-9.0,75.0,-4.0,9.0,-1001.0,-138.0
-4.0,-257.0,-28.0,-6.0,75.0,-5.0,11.0,-990.0,-135.0
-5.0,-257.0,-26.0,-3.0,71.0,-5.0,13.0,-986.0,-140.0
-3.0,-254.0,-24.0,-3.0,70.0,-4.0,16.0,-995.0,-142.0
-5.0,-253.0,-28.0,0.0,69.0,-3.0,13.0,-993.0,-140.0
-4.0,-254.0,-28.0,0.0,69.0,-3.0,11.0,-982.0,-143.0
-3.0,-258.0,-28.0,1.0,68.0,-1.0,10.0,-981.0,-138.0
-5.0,-252.0,-23.0,-1.0,69.0,-2.0,16.0,-982.0,-134.0
-5.0,-254.0,-24.0,-3.0,68.0,-3.0,13.0,-980.0,-141.0
-1.0,-255.0,-24.0,-6.0,67.0,-2.0,12.0,-998.0,-133.0
-4.0,-253.0,-23.0,-8.0,65.0,-2.0,14.0,-986.0,-133.0
-4.0,-253.0,-27.0,-9.0,64.0,-4.0,14.0,-996.0,-135.0
-3.0,-257.0,-23.0,-9.0,65.0,-4.0,17.0,-990.0,-134.0
-1.0,-252.0,-26.0,-9.0,67.0,-4.0,13.0,-990.0,-137.0
-2.0,-257.0,-24.0,-9.0,69.0,-5.0,13.0,-990.0,-135.0
-2.0,-259.0,-26.0,-7.0,73.0,-5.0,12.0,-986.0,-139.0
-1.0,-256.0,-25.0,-4.0,75.0,-3.0,17.0,-987.0,-134.0
-7.0,-257.0,-24.0,-3.0,74.0,-5.0,16.0,-998.0,-138.0
-2.0,-256.0,-20.0,-1.0,74.0,-5.0,13.0,-987.0,-136.0
-1.0,-257.0,-25.0,1.0,75.0,-6.0,15.0,-985.0,-138.0
-2.0,-254.0,-27.0,2.0,74.0,-6.0,17.0,-996.0,-141.0
-4.0,-253.0,-26.0,2.0,72.0,-5.0,9.0,-984.0,-140.0
-3.0,-257.0,-27.0,4.0,72.0,-5.0,16.0,-982.0,-142.0
-2.0,-256.0,-24.0,3.0,70.0,-3.0,15.0,-990.0,-145.0
-4.0,-255.0,-24.0,2.0,68.0,-4.0,14.0,-987.0,-140.0
-5.0,-255.0,-23.0,3.0,68.0,-3.0,13.0,-986.0,-143.0
-1.0,-255.0,-23.0,3.0,66.0,-2.0,13.0,-986.0,-136.0
0.0,-257.0,-24.0,3.0,66.0,-2.0,18.0,-986.0,-136.0
-6.0,-252.0,-23.0,1.0,66.0,-3.0,15.0,-984.0,-138.0
-4.0,-253.0,-22.0,1.0,67.0,-1.0,18.0,-979.0,-141.0
-4.0,-256.0,-26.0,-1.0,67.0,-3.0,15.0,-983.0,-142.0
-4.0,-254.0,-25.0,-2.0,66.0,-4.0,11.0,-979.0,-142.0
-7.0,-256.0,-27.0,-3.0,68.0,-4.0,11.0,-991.0,-142.0
-4.0,-254.0,-29.0,-1.0,68.0,-4.0,17.0,-984.0,-143.0
-4.0,-256.0,-24.0,0.0,70.0,-3.0,13.0,-991.0,-145.0
-6.0,-254.0,-27.0,0.0,70.0,-3.0,9.0,-979.0,-140.0
-1.0,-257.0,-25.0,1.0,70.0,-4.0,13.0,-981.0,-140.0
-5.0,-253.0,-27.0,1.0,70.0,-4.0,12.0,-983.0,-137.0
-2.0,-255.0,-28.0,-1.0,70.0,-3.0,16.0,-984.0,-141.0
2.0,-256.0,-35.0,0.0,70.0,-5.0,18.0,-986.0,-138.0
-5.0,-255.0,-25.0,1.0,71.0,-5.0,12.0,-985.0,-139.0
-4.0,-256.0,-25.0,3.0,71.0,-6.0,12.0,-993.0,-135.0
-3.0,-254.0,-24.0,5.0,71.0,-5.0,16.0,-993.0,-136.0
-4.0,-259.0,-21.0,7.0,70.0,-6.0,13.0,-997.0,-132.0
-5.0,-256.0,-23.0,8.0,69.0,-4.0,17.0,-992.0,-133.0
-6.0,-257.0,-20.0,10.0,68.0,-6.0,14.0,-987.0,-132.0
-3.0,-255.0,-24.0,9.0,67.0,-6.0,10.0,-995.0,-130.0
-5.0,-255.0,-21.0,7.0,67.0,-5.0,14.0,-988.0,-129.0
-1.0,-258.0,-21.0,8.0,69.0,-7.0,13.0,-986.0,-123.0
-4.0,-254.0,-23.0,7.0,68.0,-4.0,9.0,-992.0,-133.0
-4.0,-256.0,-21.0,7.0,69.0,-5.0,12.0,-987.0,-130.0
-3.0,-256.0,-22.0,8.0,69.0,-6.0,11.0,-989.0,-134.0
-4.0,-255.0,-28.0,10.0,72.0,-5.0,11.0,-998.0,-139.0
-5.0,-258.0,-25.0,11.0,72.0,-6.0,13.0,-992.0,-137.0
-6.0,-254.0,-22.0,13.0,73.0,-7.0,9.0,-987.0,-136.0
-5.0,-257.0,-24.0,14.0,73.0,-7.0,13.0,-994.0,-137.0
-4.0,-254.0,-24.0,13.0,74.0,-6.0,11.0,-991.0,-135.0
-5.0,-255.0,-22.0,12.0,76.0,-6.0,12.0,-986.0,-136.0
-4.0,-258.0,-26.0,12.0,74.0,-6.0,13.0,-985.0,-134.0
-4.0,-254.0,-24.0,10.0,73.0,-6.0,11.0,-986.0,-134.0
-4.0,-255.0,-23.0,11.0,70.0,-3.0,13.0,-983.0,-134.0
-7.0,-254.0,-22.0,8.0,69.0,-3.0,12.0,-987.0,-133.0
-3.0,-258.0,-20.0,8.0,66.0,-4.0,14.0,-977.0,-135.0
-1.0,-256.0,-25.0,7.0,66.0,-4.0,13.0,-986.0,-129.0
-3.0,-254.0,-23.0,6.0,67.0,-4.0,16.0,-985.0,-127.0
-4.0,-255.0,-24.0,7.0,66.0,-4.0,12.0,-986.0,-134.0
-5.0,-254.0,-21.0,8.0,67.0,-3.0,14.0,-987.0,-135.0
-7.0,-256.0,-25.0,9.0,68.0,-5.0,12.0,-988.0,-127.0
-5.0,-254.0,-25.0,11.0,69.0,-6.0,12.0,-985.0,-121.0
-4.0,-257.0,-24.0,13.0,68.0,-7.0,13.0,-998.0,-127.0
-5.0,-255.0,-24.0,15.0,69.0,-7.0,9.0,-992.0,-130.0
-3.0,-253.0,-20.0,18.0,66.0,-9.0,13.0,-994.0,-127.0
-6.0,-252.0,-24.0,20.0,66.0,-9.0,12.0,-1001.0,-127.0
-8.0,-256.0,-23.0,20.0,67.0,-10.0,10.0,-984.0,-129.0
-4.0,-253.0,-23.0,20.0,72.0,-7.0,10.0,-987.0,-132.0
-5.0,-254.0,-25.0,19.0,72.0,-9.0,7.0,-986.0,-131.0
-5.0,-253.0,-24.0,19.0,72.0,-8.0,11.0,-989.0,-130.0
-3.0,-254.0,-22.0,17.0,73.0,-7.0,11.0,-985.0,-131.0
-3.0,-258.0,-22.0,15.0,73.0,-8.0,18.0,-985.0,-132.0
-5.0,-256.0,-27.0,15.0,73.0,-8.0,10.0,-992.0,-129.0
-2.0,-256.0,-27.0,14.0,72.0,-8.0,17.0,-982.0,-129.0
-2.0,-256.0,-25.0,12.0,70.0,-9.0,13.0,-986.0,-130.0
0.0,-255.0,-24.0,13.0,71.0,-7.0,18.0,-991.0,-125.0
-3.0,-247.0,-19.0,13.0,69.0,-7.0,16.0,-980.0,-129.0
-2.0,-255.0,-22.0,14.0,71.0,-5.0,15.0,-984.0,-125.0
-2.0,-255.0,-22.0,13.0,68.0,-5.0,16.0,-997.0,-130.0
0.0,-252.0,-24.0,12.0,65.0,-4.0,13.0,-984.0,-128.0
-1.0,-256.0,-21.0,9.0,67.0,-3.0,13.0,-982.0,-123.0
-4.0,-256.0,-24.0,6.0,66.0,-1.0,16.0,-979.0,-126.0
-1.0,-259.0,-24.0,5.0,65.0,-2.0,14.0,-989.0,-125.0
-4.0,-255.0,-23.0,4.0,64.0,-2.0,17.0,-987.0,-129.0
-5.0,-255.0,-21.0,2.0,63.0,-1.0,14.0,-983.0,-129.0
-3.0,-257.0,-24.0,1.0,65.0,0.0,14.0,-985.0,-125.0
-3.0,-257.0,-20.0,2.0,66.0,0.0,16.0,-989.0,-134.0
0.0,-257.0,-23.0,3.0,67.0,-1.0,20.0,-993.0,-123.0
-5.0,-260.0,-19.0,3.0,69.0,-2.0,17.0,-999.0,-126.0
-2.0,-257.0,-21.0,3.0,70.0,-2.0,17.0,-986.0,-125.0
-1.0,-257.0,-21.0,6.0,69.0,-2.0,17.0,-999.0,-127.0
-2.0,-255.0,-22.0,7.0,69.0,-1.0,21.0,-994.0,-125.0
-3.0,-253.0,-20.0,9.0,70.0,0.0,18.0,-986.0,-129.0
-5.0,-255.0,-20.0,11.0,69.0,1.0,14.0,-986.0,-125.0
-3.0,-254.0,-21.0,12.0,70.0,1.0,12.0,-987.0,-128.0
-5.0,-257.0,-21.0,12.0,69.0,2.0,12.0,-987.0,-127.0
0.0,-258.0,-21.0,11.0,67.0,2.0,13.0,-984.0,-121.0
-2.0,-253.0,-23.0,10.0,66.0,2.0,16.0,-984.0,-124.0
-3.0,-257.0,-25.0,9.0,63.0,2.0,16.0,-984.0,-122.0
-2.0,-255.0,-23.0,9.0,64.0,3.0,16.0,-981.0,-122.0
0.0,-254.0,-22.0,5.0,66.0,2.0,19.0,-982.0,-127.0
-5.0,-253.0,-22.0,4.0,65.0,3.0,16.0,-986.0,-123.0
-6.0,-253.0,-21.0,1.0,67.0,2.0,13.0,-982.0,-124.0
-2.0,-256.0,-20.0,0.0,68.0,2.0,18.0,-993.0,-123.0
0.0,-255.0,-20.0,1.0,66.0,2.0,18.0,-981.0,-123.0
-3.0,-255.0,-23.0,0.0,66.0,2.0,12.0,-982.0,-125.0
-6.0,-252.0,-23.0,2.0,64.0,4.0,16.0,-988.0,-127.0
-5.0,-254.0,-24.0,2.0,63.0,5.0,14.0,-994.0,-121.0
-8.0,-259.0,-21.0,3.0,64.0,5.0,15.0,-984.0,-124.0
-4.0,-255.0,-22.0,3.0,65.0,5.0,13.0,-983.0,-124.0
-5.0,-255.0,-22.0,3.0,65.0,5.0,10.0,-1003.0,-122.0
-1.0,-253.0,-22.0,3.0,66.0,4.0,10.0,-988.0,-119.0
-6.0,-254.0,-20.0,4.0,68.0,5.0,14.0,-997.0,-124.0
-7.0,-255.0,-23.0,3.0,69.0,3.0,14.0,-991.0,-121.0
-5.0,-256.0,-20.0,2.0,67.0,4.0,13.0,-1001.0,-124.0
-4.0,-255.0,-22.0,2.0,67.0,4.0,12.0,-983.0,-123.0
-3.0,-256.0,-20.0,4.0,66.0,4.0,14.0,-987.0,-127.0
-2.0,-258.0,-21.0,5.0,63.0,4.0,16.0,-993.0,-126.0
-6.0,-258.0,-25.0,5.0,64.0,4.0,17.0,-984.0,-127.0
-3.0,-255.0,-23.0,5.0,62.0,3.0,12.0,-987.0,-122.0
-6.0,-254.0,-24.0,7.0,63.0,6.0,10.0,-980.0,-127.0
-4.0,-255.0,-19.0,7.0,61.0,4.0,13.0,-981.0,-126.0
-5.0,-255.0,-24.0,9.0,62.0,4.0,10.0,-983.0,-121.0
-5.0,-253.0,-22.0,8.0,64.0,5.0,9.0,-988.0,-124.0
-6.0,-255.0,-24.0,9.0,65.0,4.0,12.0,-983.0,-128.0
-4.0,-255.0,-22.0,7.0,64.0,3.0,10.0,-981.0,-131.0
-7.0,-253.0,-20.0,5.0,64.0,2.0,8.0,-993.0,-122.0
-5.0,-256.0,-23.0,4.0,66.0,0.0,5.0,-987.0,-122.0
-5.0,-255.0,-21.0,2.0,67.0,-1.0,11.0,-991.0,-122.0
-7.0,-256.0,-22.0,1.0,69.0,-2.0,8.0,-985.0,-129.0
-7.0,-260.0,-22.0,1.0,70.0,-2.0,8.0,-988.0,-126.0
-6.0,-256.0,-21.0,0.0,70.0,-2.0,11.0,-993.0,-123.0
-3.0,-257.0,-19.0,-1.0,71.0,-3.0,10.0,-993.0,-125.0
-4.0,-256.0,-20.0,-2.0,69.0,-3.0,12.0,-990.0,-124.0
-3.0,-257.0,-20.0,-3.0,68.0,-3.0,10.0,-992.0,-123.0
-6.0,-256.0,-20.0,-3.0,65.0,-2.0,12.0,-993.0,-119.0
-3.0,-254.0,-19.0,-1.0,64.0,-1.0,11.0,-986.0,-121.0
-3.0,-257.0,-21.0,0.0,67.0,-2.0,10.0,-994.0,-124.0
-3.0,-258.0,-22.0,2.0,67.0,-1.0,11.0,-994.0,-121.0
-5.0,-256.0,-19.0,4.0,69.0,-1.0,10.0,-986.0,-123.0
-4.0,-255.0,-20.0,5.0,69.0,-3.0,8.0,-981.0,-118.0
-3.0,-253.0,-20.0,6.0,68.0,-3.0,11.0,-985.0,-121.0
-4.0,-255.0,-20.0,6.0,67.0,-2.0,10.0,-978.0,-117.0
-4.0,-254.0,-21.0,6.0,64.0,-3.0,11.0,-980.0,-118.0
-5.0,-253.0,-19.0,5.0,64.0,-2.0,9.0,-982.0,-116.0
-3.0,-253.0,-20.0,3.0,66.0,-2.0,11.0,-985.0,-112.0
-2.0,-256.0,-20.0,1.0,67.0,-3.0,5.0,-992.0,-117.0
-4.0,-256.0,-18.0,-3.0,68.0,-3.0,13.0,-984.0,-115.0
-4.0,-257.0,-20.0,-5.0,68.0,-2.0,11.0,-986.0,-116.0
-1.0,-260.0,-19.0,-7.0,70.0,-2.0,17.0,-992.0,-116.0
-4.0,-257.0,-20.0,-8.0,72.0,-2.0,15.0,-998.0,-124.0
-7.0,-255.0,-20.0,-8.0,74.0,-3.0,19.0,-1003.0,-122.0
-4.0,-257.0,-19.0,-8.0,75.0,-4.0,15.0,-998.0,-123.0
-5.0,-256.0,-20.0,-6.0,75.0,-4.0,20.0,-999.0,-119.0
-2.0,-256.0,-20.0,-3.0,75.0,-3.0,11.0,-998.0,-124.0
-4.0,-259.0,-19.0,3.0,74.0,-3.0,11.0,-1005.0,-121.0
-4.0,-259.0,-20.0,10.0,72.0,-4.0,9.0,-997.0,-124.0
-2.0,-257.0,-26.0,17.0,69.0,-2.0,16.0,-995.0,-125.0
-7.0,-255.0,-26.0,23.0,68.0,-3.0,14.0,-991.0,-135.0
-1.0,-256.0,-22.0,26.0,68.0,-3.0,12.0,-979.0,-133.0
-4.0,-257.0,-25.0,27.0,69.0,-2.0,10.0,-984.0,-128.0
-8.0,-254.0,-20.0,25.0,68.0,-3.0,16.0,-978.0,-124.0
-4.0,-255.0,-20.0,25.0,69.0,-3.0,9.0,-978.0,-122.0
-3.0,-256.0,-19.0,23.0,68.0,-5.0,13.0,-989.0,-118.0
-7.0,-252.0,-18.0,20.0,67.0,-4.0,13.0,-996.0,-116.0
-3.0,-255.0,-21.0,17.0,64.0,-4.0,11.0,-984.0,-116.0
-1.0,-257.0,-19.0,17.0,62.0,-3.0,11.0,-997.0,-116.0
-2.0,-256.0,-20.0,15.0,60.0,-4.0,10.0,-999.0,-112.0
-6.0,-257.0,-20.0,12.0,54.0,-6.0,14.0,-987.0,-117.0
-2.0,-258.0,-19.0,12.0,50.0,-7.0,13.0,-998.0,-119.0
-4.0,-255.0,-21.0,13.0,48.0,-8.0,10.0,-997.0,-118.0
-3.0,-257.0,-23.0,15.0,52.0,-8.0,14.0,-992.0,-121.0
-6.0,-256.0,-21.0,19.0,59.0,-9.0,12.0,-988.0,-121.0
-7.0,-253.0,-21.0,23.0,67.0,-9.0,8.0,-994.0,-117.0
-6.0,-256.0,-18.0,28.0,76.0,-9.0,9.0,-987.0,-123.0
-6.0,-252.0,-20.0,30.0,82.0,-9.0,10.0,-985.0,-114.0
-4.0,-258.0,-20.0,32.0,84.0,-7.0,9.0,-986.0,-119.0
-6.0,-255.0,-19.0,29.0,84.0,-8.0,13.0,-988.0,-117.0
-6.0,-255.0,-22.0,26.0,81.0,-8.0,14.0,-982.0,-114.0
-3.0,-254.0,-18.0,21.0,79.0,-5.0,13.0,-984.0,-120.0
-1.0,-251.0,-20.0,18.0,75.0,-3.0,14.0,-983.0,-121.0
0.0,-255.0,-22.0,14.0,71.0,0.0,16.0,-982.0,-116.0
-6.0,-254.0,-20.0,10.0,66.0,4.0,15.0,-981.0,-119.0
-2.0,-253.0,-20.0,6.0,59.0,8.0,15.0,-990.0,-120.0
-3.0,-257.0,-20.0,6.0,56.0,11.0,15.0,-986.0,-118.0
-3.0,-253.0,-22.0,6.0,55.0,14.0,18.0,-993.0,-120.0
-2.0,-258.0,-22.0,6.0,57.0,18.0,17.0,-985.0,-118.0
-2.0,-255.0,-20.0,6.0,59.0,20.0,18.0,-991.0,-118.0
2.0,-259.0,-21.0,5.0,61.0,22.0,17.0,-1001.0,-112.0
-1.0,-256.0,-20.0,3.0,58.0,24.0,18.0,-994.0,-114.0
-4.0,-258.0,-19.0,4.0,56.0,24.0,19.0,-1000.0,-116.0
-1.0,-256.0,-20.0,4.0,50.0,25.0,22.0,-998.0,-115.0
-1.0,-257.0,-20.0,4.0,49.0,23.0,19.0,-1002.0,-119.0
-1.0,-259.0,-20.0,6.0,48.0,23.0,23.0,-998.0,-121.0
-1.0,-257.0,-23.0,8.0,48.0,23.0,18.0,-988.0,-117.0
-1.0,-260.0,-16.0,14.0,50.0,22.0,23.0,-995.0,-118.0
-3.0,-255.0,-19.0,20.0,51.0,22.0,17.0,-1005.0,-118.0
0.0,-262.0,-18.0,28.0,53.0,22.0,17.0,-1002.0,-107.0
-6.0,-257.0,-20.0,36.0,56.0,22.0,12.0,-1000.0,-101.0
-5.0,-254.0,-19.0,42.0,56.0,21.0,11.0,-991.0,-104.0
0.0,-256.0,-20.0,44.0,62.0,21.0,13.0,-985.0,-101.0
-3.0,-254.0,-18.0,43.0,63.0,21.0,15.0,-989.0,-96.0
-7.0,-254.0,-13.0,41.0,63.0,23.0,15.0,-984.0,-97.0
-1.0,-256.0,-18.0,34.0,63.0,24.0,11.0,-986.0,-97.0
-4.0,-254.0,-17.0,27.0,59.0,25.0,12.0,-984.0,-94.0
-4.0,-257.0,-18.0,20.0,55.0,24.0,15.0,-993.0,-98.0
-3.0,-256.0,-20.0,14.0,50.0,24.0,12.0,-987.0,-100.0
-5.0,-257.0,-20.0,8.0,49.0,24.0,13.0,-994.0,-103.0
-4.0,-257.0,-20.0,4.0,49.0,25.0,10.0,-992.0,-107.0
-3.0,-259.0,-16.0,8.0,50.0,25.0,5.0,-997.0,-104.0
-9.0,-257.0,-20.0,13.0,51.0,25.0,2.0,-1002.0,-109.0
-7.0,-257.0,-20.0,21.0,54.0,26.0,5.0,-993.0,-117.0
-9.0,-257.0,-18.0,28.0,57.0,25.0,-5.0,-1003.0,-113.0
-7.0,-258.0,-17.0,32.0,58.0,25.0,4.0,-986.0,-108.0
-6.0,-257.0,-22.0,36.0,63.0,22.0,-3.0,-998.0,-109.0
-8.0,-256.0,-19.0,36.0,66.0,21.0,1.0,-989.0,-113.0
-5.0,-257.0,-17.0,34.0,67.0,20.0,-1.0,-983.0,-104.0
-9.0,-253.0,-20.0,28.0,68.0,17.0,4.0,-979.0,-109.0
-4.0,-252.0,-19.0,21.0,69.0,16.0,0.0,-983.0,-104.0
-8.0,-252.0,-18.0,13.0,68.0,16.0,4.0,-982.0,-105.0
-9.0,-252.0,-14.0,7.0,67.0,14.0,2.0,-980.0,-100.0
-4.0,-255.0,-16.0,-1.0,65.0,15.0,8.0,-978.0,-103.0
-4.0,-257.0,-21.0,-5.0,62.0,14.0,7.0,-981.0,-101.0
-6.0,-254.0,-18.0,-5.0,59.0,12.0,0.0,-986.0,-102.0
-9.0,-257.0,-20.0,-3.0,55.0,8.0,1.0,-992.0,-110.0
-6.0,-257.0,-22.0,3.0,52.0,6.0,-1.0,-987.0,-108.0
-7.0,-254.0,-20.0,10.0,55.0,1.0,-1.0,-992.0,-103.0
-8.0,-258.0,-16.0,16.0,58.0,-2.0,-5.0,-991.0,-107.0
-5.0,-255.0,-20.0,22.0,67.0,-3.0,-6.0,-998.0,-109.0
-6.0,-259.0,-20.0,25.0,77.0,-6.0,-7.0,-995.0,-102.0
-10.0,-253.0,-20.0,26.0,83.0,-8.0,-5.0,-993.0,-111.0
-8.0,-257.0,-18.0,25.0,90.0,-8.0,3.0,-982.0,-108.0
-7.0,-257.0,-17.0,19.0,93.0,-6.0,-4.0,-984.0,-102.0
-10.0,-255.0,-20.0,15.0,88.0,-4.0,1.0,-994.0,-101.0
-4.0,-257.0,-18.0,12.0,84.0,-3.0,7.0,-998.0,-103.0
-7.0,-257.0,-20.0,9.0,79.0,1.0,11.0,-987.0,-104.0
-7.0,-254.0,-17.0,8.0,74.0,3.0,7.0,-987.0,-107.0
-7.0,-253.0,-18.0,7.0,66.0,6.0,2.0,-981.0,-102.0
-4.0,-254.0,-19.0,9.0,59.0,6.0,10.0,-988.0,-103.0
-6.0,-255.0,-18.0,11.0,51.0,7.0,5.0,-991.0,-112.0
-2.0,-255.0,-21.0,13.0,47.0,7.0,8.0,-981.0,-102.0
-6.0,-254.0,-18.0,15.0,45.0,5.0,10.0,-982.0,-114.0
-7.0,-255.0,-20.0,16.0,47.0,1.0,6.0,-996.0,-106.0
-11.0,-255.0,-18.0,17.0,48.0,-3.0,-3.0,-983.0,-105.0
-7.0,-253.0,-17.0,17.0,51.0,-6.0,-4.0,-981.0,-109.0
-11.0,-252.0,-21.0,15.0,57.0,-11.0,-3.0,-987.0,-105.0
-10.0,-256.0,-17.0,11.0,63.0,-13.0,1.0,-984.0,-110.0
-10.0,-256.0,-15.0,6.0,66.0,-16.0,-2.0,-981.0,-96.0
-10.0,-256.0,-18.0,3.0,58.0,-17.0,-2.0,-993.0,-91.0
-12.0,-259.0,-14.0,2.0,37.0,-21.0,-6.0,-1007.0,-81.0
-11.0,-256.0,-13.0,4.0,0.0,-23.0,-14.0,-1009.0,-83.0
-15.0,-257.0,-11.0,7.0,-37.0,-25.0,-24.0,-1005.0,-94.0
-15.0,-254.0,-18.0,9.0,-57.0,-24.0,-24.0,-996.0,-96.0
-14.0,-253.0,-20.0,9.0,-49.0,-25.0,-29.0,-985.0,-107.0
-10.0,-258.0,-20.0,7.0,-12.0,-23.0,-27.0,-985.0,-115.0
-11.0,-256.0,-23.0,2.0,38.0,-19.0,-18.0,-1002.0,-121.0
-14.0,-259.0,-21.0,0.0,82.0,-13.0,-15.0,-1013.0,-125.0
-13.0,-264.0,-24.0,-1.0,109.0,-7.0,-18.0,-1020.0,-127.0
-10.0,-269.0,-24.0,-4.0,116.0,-2.0,-19.0,-1025.0,-130.0
-12.0,-265.0,-22.0,-6.0,108.0,6.0,-14.0,-1029.0,-127.0
-8.0,-269.0,-20.0,-5.0,93.0,17.0,-3.0,-1026.0,-107.0
-11.0,-264.0,-17.0,4.0,81.0,28.0,-3.0,-1020.0,-98.0
-10.0,-260.0,-13.0,17.0,67.0,43.0,-4.0,-1010.0,-82.0
-11.0,-258.0,-10.0,32.0,49.0,61.0,-9.0,-1004.0,-73.0
-10.0,-256.0,-10.0,39.0,28.0,84.0,-10.0,-999.0,-59.0
-12.0,-256.0,-7.0,37.0,10.0,111.0,-14.0,-984.0,-64.0
-12.0,-256.0,-11.0,26.0,-5.0,141.0,-22.0,-992.0,-67.0
-13.0,-254.0,-10.0,3.0,-15.0,169.0,-24.0,-986.0,-76.0
-15.0,-254.0,-17.0,-27.0,-20.0,197.0,-27.0,-999.0,-81.0
-15.0,-255.0,-16.0,-57.0,-21.0,222.0,-31.0,-994.0,-86.0
-18.0,-256.0,-20.0,-82.0,-23.0,245.0,-34.0,-1003.0,-103.0
-17.0,-256.0,-19.0,-102.0,-32.0,268.0,-33.0,-1007.0,-110.0
-21.0,-257.0,-21.0,-111.0,-46.0,295.0,-45.0,-997.0,-122.0
-22.0,-254.0,-20.0,-121.0,-64.0,324.0,-41.0,-987.0,-127.0
-22.0,-258.0,-18.0,-128.0,-86.0,350.0,-43.0,-997.0,-120.0
-21.0,-255.0,-15.0,-127.0,-108.0,372.0,-37.0,-996.0,-95.0
-19.0,-255.0,-10.0,-115.0,-127.0,390.0,-37.0,-989.0,-81.0
-18.0,-255.0,-7.0,-90.0,-145.0,406.0,-46.0,-987.0,-73.0
-17.0,-255.0,-8.0,-59.0,-154.0,419.0,-50.0,-984.0,-69.0
-16.0,-253.0,-11.0,-31.0,-153.0,428.0,-25.0,-987.0,-72.0
-13.0,-252.0,-10.0,-17.0,-147.0,429.0,-23.0,-982.0,-86.0
-15.0,-249.0,-19.0,-19.0,-129.0,434.0,-36.0,-972.0,-101.0
-20.0,-249.0,-26.0,-35.0,-106.0,449.0,-42.0,-961.0,-106.0
-18.0,-248.0,-21.0,-58.0,-90.0,467.0,-33.0,-961.0,-115.0
-17.0,-248.0,-19.0,-84.0,-85.0,477.0,-30.0,-954.0,-117.0
-16.0,-247.0,-21.0,-102.0,-93.0,484.0,-32.0,-954.0,-117.0
-14.0,-250.0,-20.0,-114.0,-112.0,487.0,-27.0,-971.0,-118.0
-11.0,-247.0,-19.0,-121.0,-137.0,491.0,-18.0,-968.0,-119.0
-9.0,-256.0,-20.0,-126.0,-158.0,497.0,-13.0,-975.0,-124.0
-10.0,-255.0,-22.0,-130.0,-172.0,506.0,-8.0,-985.0,-122.0
-9.0,-261.0,-21.0,-130.0,-173.0,521.0,-7.0,-1008.0,-126.0
-7.0,-264.0,-22.0,-124.0,-161.0,538.0,1.0,-1018.0,-134.0
-8.0,-266.0,-22.0,-111.0,-144.0,555.0,5.0,-1026.0,-125.0
-7.0,-266.0,-18.0,-88.0,-119.0,573.0,-2.0,-1028.0,-134.0
-11.0,-263.0,-22.0,-65.0,-96.0,593.0,-6.0,-1030.0,-128.0
-11.0,-263.0,-30.0,-48.0,-77.0,614.0,-5.0,-1026.0,-139.0
-9.0,-263.0,-24.0,-34.0,-62.0,632.0,-14.0,-1020.0,-139.0
-10.0,-263.0,-21.0,-25.0,-51.0,646.0,-21.0,-1012.0,-134.0
-11.0,-259.0,-26.0,-16.0,-46.0,658.0,-21.0,-1009.0,-132.0
-14.0,-259.0,-23.0,-7.0,-47.0,670.0,-33.0,-998.0,-133.0
-18.0,-257.0,-26.0,-3.0,-51.0,680.0,-40.0,-995.0,-139.0
-19.0,-260.0,-22.0,0.0,-55.0,698.0,-45.0,-993.0,-129.0
-22.0,-256.0,-24.0,0.0,-60.0,715.0,-48.0,-1000.0,-124.0
-24.0,-258.0,-18.0,1.0,-60.0,733.0,-57.0,-1001.0,-121.0
-22.0,-258.0,-20.0,2.0,-56.0,752.0,-64.0,-1009.0,-114.0
-23.0,-259.0,-20.0,2.0,-49.0,774.0,-59.0,-1012.0,-116.0
-20.0,-260.0,-23.0,2.0,-41.0,796.0,-67.0,-1012.0,-117.0
-19.0,-263.0,-18.0,-3.0,-32.0,813.0,-61.0,-1015.0,-116.0
-20.0,-262.0,-19.0,-13.0,-26.0,832.0,-54.0,-1019.0,-114.0
-22.0,-260.0,-19.0,-28.0,-26.0,849.0,-48.0,-1020.0,-110.0
-22.0,-265.0,-20.0,-48.0,-36.0,865.0,-41.0,-1012.0,-125.0
-16.0,-260.0,-25.0,-71.0,-49.0,883.0,-41.0,-1010.0,-128.0
-13.0,-261.0,-28.0,-93.0,-57.0,897.0,-32.0,-1017.0,-139.0
-14.0,-260.0,-27.0,-110.0,-56.0,909.0,-24.0,-1003.0,-138.0
-11.0,-259.0,-23.0,-118.0,-47.0,918.0,-13.0,-1007.0,-137.0
-14.0,-260.0,-21.0,-118.0,-33.0,923.0,-9.0,-1013.0,-126.0
-8.0,-263.0,-21.0,-110.0,-25.0,931.0,-3.0,-1015.0,-125.0
-7.0,-260.0,-20.0,-103.0,-25.0,941.0,-1.0,-1009.0,-127.0
-9.0,-257.0,-20.0,-101.0,-33.0,958.0,-5.0,-1012.0,-122.0
-12.0,-261.0,-20.0,-106.0,-46.0,975.0,-5.0,-1011.0,-119.0
-10.0,-261.0,-20.0,-124.0,-65.0,995.0,-9.0,-1014.0,-122.0
-16.0,-254.0,-24.0,-158.0,-89.0,1013.0,-19.0,-1009.0,-137.0
-14.0,-253.0,-33.0,-223.0,-124.0,1033.0,-28.0,-984.0,-170.0
-13.0,-249.0,-40.0,-323.0,-157.0,1058.0,-20.0,-976.0,-189.0
-14.0,-248.0,-39.0,-450.0,-181.0,1076.0,-22.0,-973.0,-201.0
-13.0,-250.0,-37.0,-568.0,-192.0,1096.0,-23.0,-965.0,-198.0
-13.0,-254.0,-40.0,-649.0,-183.0,1114.0,-38.0,-983.0,-193.0
-17.0,-262.0,-32.0,-673.0,-152.0,1134.0,-37.0,-1009.0,-176.0
-17.0,-269.0,-32.0,-642.0,-108.0,1159.0,-44.0,-1028.0,-157.0
-22.0,-281.0,-27.0,-566.0,-64.0,1186.0,-61.0,-1073.0,-142.0
-27.0,-290.0,-29.0,-460.0,-29.0,1210.0,-82.0,-1104.0,-143.0
-35.0,-291.0,-27.0,-341.0,-7.0,1234.0,-108.0,-1116.0,-135.0
-46.0,-291.0,-20.0,-223.0,-6.0,1256.0,-148.0,-1118.0,-137.0
-53.0,-290.0,-30.0,-126.0,-28.0,1278.0,-183.0,-1111.0,-150.0
-62.0,-281.0,-40.0,-60.0,-83.0,1296.0,-193.0,-1105.0,-187.0
-64.0,-277.0,-48.0,-37.0,-161.0,1310.0,-200.0,-1090.0,-231.0
-64.0,-274.0,-53.0,-46.0,-241.0,1311.0,-214.0,-1056.0,-259.0
-56.0,-264.0,-61.0,-71.0,-304.0,1307.0,-205.0,-1025.0,-276.0
-53.0,-259.0,-63.0,-97.0,-338.0,1304.0,-195.0,-1007.0,-280.0
-52.0,-257.0,-52.0,-112.0,-346.0,1303.0,-186.0,-993.0,-261.0
-55.0,-259.0,-46.0,-92.0,-328.0,1300.0,-185.0,-986.0,-213.0
-53.0,-259.0,-38.0,-34.0,-296.0,1303.0,-191.0,-1003.0,-188.0
-63.0,-263.0,-31.0,46.0,-260.0,1307.0,-223.0,-1012.0,-166.0
-77.0,-261.0,-24.0,135.0,-223.0,1314.0,-280.0,-1016.0,-130.0
-86.0,-263.0,-17.0,229.0,-201.0,1335.0,-320.0,-1018.0,-104.0
-97.0,-258.0,-16.0,320.0,-195.0,1348.0,-348.0,-1010.0,-100.0
-106.0,-254.0,-25.0,386.0,-203.0,1349.0,-373.0,-984.0,-122.0
-107.0,-243.0,-31.0,414.0,-215.0,1338.0,-392.0,-958.0,-148.0
-107.0,-234.0,-33.0,402.0,-237.0,1327.0,-399.0,-923.0,-176.0
-110.0,-231.0,-41.0,356.0,-269.0,1310.0,-402.0,-899.0,-191.0
-104.0,-221.0,-43.0,295.0,-307.0,1294.0,-393.0,-873.0,-209.0
-106.0,-219.0,-43.0,239.0,-344.0,1279.0,-382.0,-855.0,-203.0
-102.0,-223.0,-35.0,211.0,-370.0,1271.0,-382.0,-867.0,-181.0
-107.0,-232.0,-30.0,221.0,-383.0,1271.0,-395.0,-879.0,-145.0
-109.0,-235.0,-23.0,270.0,-392.0,1287.0,-406.0,-902.0,-121.0
-115.0,-239.0,-18.0,343.0,-404.0,1306.0,-422.0,-918.0,-113.0
-118.0,-242.0,-18.0,415.0,-418.0,1332.0,-424.0,-921.0,-113.0
-116.0,-241.0,-25.0,465.0,-424.0,1353.0,-428.0,-920.0,-122.0
-116.0,-236.0,-17.0,488.0,-414.0,1370.0,-429.0,-917.0,-133.0
-119.0,-232.0,-27.0,482.0,-392.0,1389.0,-446.0,-906.0,-136.0
-125.0,-230.0,-24.0,458.0,-362.0,1408.0,-454.0,-896.0,-124.0
-129.0,-232.0,-20.0,429.0,-337.0,1423.0,-477.0,-894.0,-107.0
-136.0,-231.0,-20.0,405.0,-325.0,1435.0,-510.0,-896.0,-96.0
-141.0,-229.0,-18.0,392.0,-324.0,1442.0,-535.0,-899.0,-97.0
-149.0,-231.0,-18.0,390.0,-331.0,1445.0,-554.0,-901.0,-100.0
-149.0,-231.0,-19.0,392.0,-343.0,1446.0,-563.0,-891.0,-101.0
-152.0,-229.0,-19.0,404.0,-349.0,1450.0,-572.0,-888.0,-100.0
-153.0,-226.0,-18.0,426.0,-352.0,1452.0,-575.0,-882.0,-93.0
-155.0,-227.0,-17.0,458.0,-360.0,1455.0,-577.0,-878.0,-85.0
-150.0,-227.0,-12.0,506.0,-366.0,1456.0,-571.0,-879.0,-68.0
-145.0,-225.0,-5.0,561.0,-372.0,1452.0,-550.0,-879.0,-49.0
-136.0,-223.0,-3.0,612.0,-376.0,1443.0,-530.0,-870.0,-50.0
-131.0,-219.0,-7.0,645.0,-376.0,1428.0,-508.0,-856.0,-68.0
-130.0,-214.0,-12.0,671.0,-370.0,1413.0,-494.0,-827.0,-70.0
-128.0,-205.0,-13.0,677.0,-357.0,1397.0,-495.0,-806.0,-80.0
-129.0,-199.0,-14.0,667.0,-331.0,1389.0,-503.0,-788.0,-75.0
-137.0,-193.0,-9.0,655.0,-290.0,1391.0,-521.0,-762.0,-64.0
-144.0,-189.0,-1.0,645.0,-249.0,1402.0,-548.0,-746.0,-47.0
-148.0,-187.0,-4.0,640.0,-198.0,1417.0,-581.0,-730.0,-30.0
-165.0,-182.0,7.0,635.0,-156.0,1434.0,-622.0,-710.0,-10.0
-168.0,-177.0,7.0,624.0,-127.0,1450.0,-645.0,-694.0,8.0
-177.0,-174.0,14.0,607.0,-101.0,1463.0,-669.0,-690.0,19.0
-177.0,-176.0,13.0,586.0,-81.0,1464.0,-691.0,-690.0,30.0
-183.0,-176.0,12.0,558.0,-74.0,1457.0,-696.0,-699.0,27.0
-182.0,-178.0,12.0,522.0,-78.0,1437.0,-697.0,-712.0,15.0
-182.0,-183.0,6.0,481.0,-93.0,1413.0,-698.0,-723.0,8.0
-182.0,-188.0,9.0,442.0,-118.0,1389.0,-691.0,-732.0,-1.0
-181.0,-188.0,4.0,408.0,-148.0,1364.0,-687.0,-748.0,-4.0
-181.0,-193.0,6.0,390.0,-178.0,1353.0,-687.0,-751.0,-3.0
-186.0,-196.0,15.0,394.0,-209.0,1359.0,-701.0,-767.0,15.0
-188.0,-196.0,19.0,420.0,-243.0,1375.0,-709.0,-782.0,35.0
-191.0,-199.0,20.0,463.0,-294.0,1402.0,-724.0,-776.0,52.0
-195.0,-192.0,23.0,507.0,-360.0,1429.0,-741.0,-770.0,64.0
-194.0,-188.0,29.0,548.0,-430.0,1452.0,-743.0,-749.0,75.0
-193.0,-182.0,25.0,580.0,-485.0,1472.0,-740.0,-721.0,85.0
-189.0,-175.0,28.0,600.0,-526.0,1482.0,-727.0,-682.0,80.0
-187.0,-164.0,25.0,598.0,-559.0,1471.0,-715.0,-644.0,68.0
-189.0,-146.0,23.0,583.0,-587.0,1447.0,-720.0,-572.0,60.0
-192.0,-129.0,20.0,566.0,-604.0,1430.0,-731.0,-518.0,50.0
-194.0,-118.0,23.0,553.0,-617.0,1430.0,-749.0,-474.0,55.0
-197.0,-108.0,21.0,540.0,-629.0,1443.0,-769.0,-423.0,54.0
-210.0,-97.0,23.0,527.0,-642.0,1466.0,-809.0,-384.0,63.0
-205.0,-92.0,23.0,510.0,-657.0,1501.0,-829.0,-360.0,59.0
-219.0,-86.0,22.0,474.0,-675.0,1536.0,-845.0,-343.0,61.0
-221.0,-81.0,20.0,422.0,-701.0,1562.0,-857.0,-332.0,63.0
-222.0,-83.0,23.0,361.0,-728.0,1576.0,-852.0,-354.0,64.0
-214.0,-93.0,23.0,295.0,-744.0,1582.0,-843.0,-366.0,68.0
-213.0,-97.0,21.0,230.0,-749.0,1579.0,-820.0,-407.0,66.0
-210.0,-107.0,23.0,163.0,-743.0,1569.0,-809.0,-440.0,61.0
-204.0,-123.0,27.0,100.0,-730.0,1551.0,-792.0,-486.0,64.0
-201.0,-135.0,24.0,49.0,-708.0,1532.0,-786.0,-529.0,65.0
-198.0,-145.0,29.0,25.0,-677.0,1513.0,-774.0,-579.0,74.0
-193.0,-160.0,23.0,29.0,-641.0,1499.0,-751.0,-628.0,72.0
-192.0,-173.0,23.0,52.0,-609.0,1485.0,-734.0,-664.0,67.0
-189.0,-179.0,18.0,90.0,-592.0,1477.0,-727.0,-687.0,56.0
-192.0,-176.0,15.0,129.0,-594.0,1479.0,-732.0,-690.0,36.0
-196.0,-171.0,13.0,157.0,-609.0,1500.0,-754.0,-667.0,27.0
-207.0,-155.0,12.0,172.0,-636.0,1537.0,-779.0,-634.0,32.0
-212.0,-142.0,21.0,174.0,-664.0,1587.0,-814.0,-569.0,55.0
-221.0,-128.0,28.0,173.0,-695.0,1646.0,-844.0,-520.0,78.0
-227.0,-119.0,36.0,174.0,-728.0,1705.0,-869.0,-471.0,101.0
-232.0,-106.0,37.0,174.0,-760.0,1752.0,-896.0,-422.0,118.0
-236.0,-94.0,38.0,164.0,-783.0,1778.0,-914.0,-379.0,124.0
-237.0,-85.0,41.0,140.0,-789.0,1780.0,-923.0,-350.0,125.0
-235.0,-79.0,39.0,104.0,-773.0,1766.0,-921.0,-330.0,138.0
-230.0,-82.0,46.0,72.0,-732.0,1733.0,-908.0,-332.0,149.0
-222.0,-89.0,46.0,50.0,-675.0,1690.0,-880.0,-357.0,161.0
-213.0,-98.0,49.0,40.0,-612.0,1644.0,-842.0,-383.0,169.0
-210.0,-103.0,51.0,41.0,-561.0,1597.0,-817.0,-403.0,172.0
-207.0,-107.0,51.0,45.0,-532.0,1560.0,-807.0,-415.0,176.0
-204.0,-104.0,56.0,56.0,-522.0,1540.0,-797.0,-422.0,181.0
-203.0,-103.0,54.0,70.0,-523.0,1536.0,-789.0,-422.0,191.0
-207.0,-100.0,59.0,88.0,-528.0,1543.0,-809.0,-393.0,213.0
-211.0,-94.0,64.0,103.0,-536.0,1557.0,-832.0,-368.0,230.0
-219.0,-86.0,66.0,112.0,-545.0,1571.0,-853.0,-338.0,241.0
-228.0,-73.0,69.0,105.0,-548.0,1588.0,-884.0,-302.0,251.0
-232.0,-61.0,75.0,78.0,-546.0,1600.0,-907.0,-277.0,263.0
-233.0,-59.0,74.0,38.0,-539.0,1606.0,-924.0,-243.0,261.0
-241.0,-54.0,79.0,-8.0,-531.0,1606.0,-936.0,-226.0,271.0
-244.0,-55.0,76.0,-45.0,-521.0,1594.0,-945.0,-228.0,274.0
-240.0,-57.0,78.0,-61.0,-495.0,1575.0,-944.0,-234.0,285.0
-238.0,-65.0,81.0,-53.0,-443.0,1556.0,-939.0,-252.0,299.0
-235.0,-70.0,86.0,-28.0,-377.0,1540.0,-924.0,-280.0,311.0
-228.0,-74.0,82.0,7.0,-306.0,1524.0,-907.0,-301.0,313.0
-223.0,-79.0,82.0,34.0,-239.0,1506.0,-885.0,-309.0,298.0
-221.0,-77.0,73.0,47.0,-182.0,1488.0,-862.0,-324.0,292.0
-214.0,-81.0,79.0,50.0,-127.0,1478.0,-842.0,-331.0,279.0
-207.0,-83.0,75.0,55.0,-77.0,1473.0,-823.0,-328.0,279.0
-210.0,-78.0,77.0,66.0,-35.0,1476.0,-819.0,-314.0,264.0
-214.0,-75.0,74.0,85.0,-4.0,1489.0,-829.0,-305.0,270.0
-222.0,-66.0,83.0,107.0,20.0,1505.0,-861.0,-279.0,299.0
-236.0,-57.0,101.0,122.0,29.0,1519.0,-918.0,-243.0,362.0
-252.0,-46.0,113.0,120.0,16.0,1531.0,-979.0,-199.0,426.0
-266.0,-34.0,122.0,98.0,-7.0,1537.0,-1044.0,-149.0,456.0
-281.0,-19.0,102.0,51.0,-22.0,1520.0,-1110.0,-98.0,403.0
-294.0,10.0,79.0,-42.0,-33.0,1468.0,-1155.0,-10.0,298.0
-294.0,24.0,47.0,-192.0,-11.0,1363.0,-1176.0,65.0,174.0
-274.0,26.0,30.0,-348.0,79.0,1189.0,-1129.0,84.0,93.0
-247.0,6.0,36.0,-439.0,292.0,927.0,-1048.0,38.0,101.0
-233.0,-26.0,57.0,-394.0,630.0,593.0,-975.0,-85.0,230.0
-231.0,-55.0,97.0,-210.0,1001.0,228.0,-936.0,-193.0,379.0
-239.0,-76.0,128.0,47.0,1279.0,-131.0,-944.0,-282.0,493.0
-254.0,-87.0,138.0,293.0,1378.0,-445.0,-970.0,-325.0,531.0
-260.0,-85.0,139.0,464.0,1272.0,-699.0,-954.0,-346.0,528.0
-256.0,-76.0,145.0,541.0,1002.0,-877.0,-950.0,-308.0,540.0
-242.0,-50.0,158.0,555.0,680.0,-972.0,-927.0,-232.0,590.0
-240.0,-22.0,174.0,523.0,393.0,-965.0,-910.0,-125.0,660.0
-239.0,26.0,178.0,450.0,179.0,-869.0,-908.0,14.0,707.0
-236.0,68.0,163.0,308.0,11.0,-708.0,-910.0,171.0,660.0
-237.0,101.0,150.0,101.0,-129.0,-521.0,-921.0,313.0,594.0
-232.0,118.0,130.0,-130.0,-268.0,-331.0,-900.0,416.0,515.0
-222.0,117.0,114.0,-322.0,-395.0,-165.0,-872.0,428.0,442.0
-206.0,95.0,105.0,-418.0,-471.0,-35.0,-832.0,380.0,395.0
-197.0,71.0,102.0,-383.0,-480.0,64.0,-801.0,300.0,361.0
-192.0,34.0,96.0,-229.0,-418.0,125.0,-771.0,177.0,352.0
-188.0,5.0,101.0,-6.0,-299.0,137.0,-766.0,55.0,361.0
-201.0,-16.0,107.0,226.0,-151.0,95.0,-811.0,-50.0,402.0
-221.0,-28.0,115.0,381.0,-21.0,29.0,-871.0,-106.0,440.0
-235.0,-33.0,116.0,502.0,56.0,-52.0,-919.0,-152.0,439.0
-259.0,-27.0,121.0,505.0,76.0,-148.0,-1004.0,-131.0,458.0
-283.0,-17.0,120.0,424.0,46.0,-228.0,-1097.0,-103.0,457.0
-293.0,-7.0,116.0,313.0,-24.0,-285.0,-1146.0,-58.0,432.0
-293.0,-2.0,105.0,217.0,-88.0,-327.0,-1142.0,-33.0,400.0
-284.0,6.0,97.0,157.0,-155.0,-363.0,-1105.0,-10.0,342.0
-262.0,8.0,85.0,127.0,-190.0,-398.0,-1044.0,13.0,313.0
-247.0,8.0,80.0,117.0,-195.0,-427.0,-971.0,33.0,296.0
-230.0,11.0,79.0,124.0,-171.0,-443.0,-903.0,32.0,274.0
-210.0,8.0,76.0,152.0,-118.0,-458.0,-840.0,35.0,265.0
-194.0,3.0,75.0,201.0,-45.0,-464.0,-780.0,18.0,273.0
-191.0,5.0,67.0,272.0,42.0,-448.0,-760.0,4.0,268.0
-195.0,0.0,81.0,356.0,141.0,-414.0,-772.0,-3.0,276.0
-205.0,8.0,76.0,436.0,236.0,-358.0,-815.0,6.0,281.0
-225.0,14.0,74.0,493.0,322.0,-285.0,-889.0,49.0,272.0
-242.0,27.0,75.0,506.0,388.0,-205.0,-940.0,87.0,266.0
-254.0,34.0,64.0,472.0,420.0,-128.0,-983.0,119.0,241.0
-253.0,36.0,56.0,410.0,421.0,-60.0,-998.0,129.0,205.0
-255.0,37.0,47.0,342.0,399.0,-11.0,-1000.0,121.0,171.0
-255.0,28.0,47.0,290.0,367.0,14.0,-997.0,99.0,161.0
-259.0,19.0,46.0,261.0,335.0,25.0,-1011.0,69.0,151.0
-269.0,9.0,46.0,261.0,311.0,24.0,-1056.0,23.0,151.0
-273.0,-11.0,42.0,278.0,301.0,19.0,-1087.0,-46.0,148.0
-279.0,-33.0,44.0,304.0,303.0,3.0,-1097.0,-123.0,148.0
-279.0,-48.0,49.0,330.0,318.0,-27.0,-1104.0,-193.0,161.0
-276.0,-59.0,49.0,347.0,338.0,-66.0,-1095.0,-248.0,177.0
-272.0,-65.0,56.0,357.0,368.0,-110.0,-1078.0,-281.0,198.0
-267.0,-65.0,56.0,363.0,391.0,-152.0,-1044.0,-281.0,201.0
-257.0,-62.0,56.0,362.0,404.0,-187.0,-997.0,-254.0,205.0
-248.0,-52.0,56.0,354.0,404.0,-200.0,-953.0,-221.0,200.0
-238.0,-41.0,60.0,339.0,402.0,-198.0,-922.0,-174.0,199.0
-234.0,-26.0,59.0,324.0,396.0,-175.0,-912.0,-111.0,214.0
-230.0,-15.0,63.0,315.0,394.0,-131.0,-925.0,-66.0,217.0
-242.0,-2.0,59.0,305.0,389.0,-71.0,-938.0,-34.0,210.0
-250.0,3.0,57.0,286.0,376.0,-1.0,-972.0,-7.0,201.0
-257.0,7.0,55.0,257.0,355.0,65.0,-1007.0,1.0,191.0
-268.0,4.0,49.0,219.0,335.0,113.0,-1051.0,-15.0,176.0
-270.0,-5.0,47.0,174.0,316.0,136.0,-1074.0,-36.0,162.0
-276.0,-7.0,44.0,125.0,294.0,131.0,-1084.0,-59.0,144.0
-273.0,-20.0,43.0,78.0,270.0,102.0,-1078.0,-97.0,122.0
-268.0,-33.0,34.0,38.0,241.0,55.0,-1056.0,-143.0,108.0
-258.0,-46.0,31.0,3.0,213.0,1.0,-1026.0,-177.0,101.0
-251.0,-55.0,29.0,-17.0,190.0,-51.0,-984.0,-216.0,91.0
-246.0,-58.0,31.0,-22.0,170.0,-89.0,-947.0,-242.0,99.0
-241.0,-67.0,31.0,-11.0,146.0,-111.0,-942.0,-270.0,94.0
-245.0,-67.0,27.0,2.0,116.0,-115.0,-948.0,-258.0,88.0
-245.0,-62.0,27.0,9.0,77.0,-100.0,-953.0,-252.0,83.0
-247.0,-58.0,32.0,5.0,31.0,-78.0,-956.0,-240.0,95.0
-247.0,-53.0,34.0,-13.0,-19.0,-61.0,-966.0,-231.0,108.0
-252.0,-54.0,42.0,-33.0,-71.0,-51.0,-974.0,-214.0,128.0
-255.0,-48.0,45.0,-50.0,-119.0,-45.0,-996.0,-202.0,147.0
-262.0,-44.0,48.0,-58.0,-155.0,-41.0,-1025.0,-189.0,155.0
-265.0,-43.0,45.0,-57.0,-178.0,-42.0,-1043.0,-188.0,167.0
-267.0,-45.0,48.0,-51.0,-188.0,-43.0,-1051.0,-186.0,163.0
-267.0,-43.0,49.0,-43.0,-191.0,-45.0,-1055.0,-185.0,160.0
-263.0,-45.0,45.0,-32.0,-188.0,-47.0,-1051.0,-181.0,160.0
-262.0,-46.0,45.0,-22.0,-178.0,-50.0,-1030.0,-189.0,152.0
-257.0,-47.0,46.0,-18.0,-167.0,-56.0,-1000.0,-193.0,156.0
-253.0,-43.0,44.0,-25.0,-161.0,-69.0,-981.0,-188.0,158.0
-246.0,-42.0,47.0,-41.0,-156.0,-86.0,-956.0,-185.0,154.0
-240.0,-42.0,43.0,-73.0,-161.0,-107.0,-938.0,-173.0,148.0
-235.0,-44.0,44.0,-115.0,-163.0,-129.0,-920.0,-181.0,144.0
-238.0,-44.0,46.0,-158.0,-159.0,-151.0,-923.0,-188.0,147.0
-238.0,-52.0,44.0,-183.0,-151.0,-172.0,-927.0,-198.0,144.0
-240.0,-55.0,42.0,-192.0,-141.0,-187.0,-931.0,-223.0,146.0
-244.0,-56.0,42.0,-183.0,-132.0,-203.0,-938.0,-239.0,141.0
-242.0,-59.0,43.0,-164.0,-122.0,-219.0,-943.0,-240.0,128.0
-248.0,-62.0,38.0,-131.0,-115.0,-233.0,-942.0,-247.0,144.0
-257.0,-56.0,45.0,-98.0,-124.0,-236.0,-1002.0,-228.0,151.0
-264.0,-58.0,54.0,-42.0,-129.0,-197.0,-1034.0,-233.0,180.0
-265.0,-58.0,52.0,20.0,-140.0,-133.0,-1039.0,-227.0,184.0
-262.0,-51.0,51.0,69.0,-159.0,-75.0,-1031.0,-216.0,182.0
-256.0,-48.0,59.0,94.0,-181.0,-28.0,-996.0,-194.0,186.0
-248.0,-43.0,54.0,93.0,-203.0,1.0,-963.0,-185.0,193.0
-239.0,-39.0,57.0,66.0,-226.0,13.0,-947.0,-171.0,194.0
-230.0,-41.0,52.0,19.0,-244.0,14.0,-911.0,-174.0,185.0
-221.0,-42.0,52.0,-40.0,-252.0,-8.0,-879.0,-178.0,189.0
-220.0,-46.0,56.0,-96.0,-244.0,-50.0,-869.0,-184.0,191.0
-222.0,-50.0,57.0,-139.0,-224.0,-90.0,-865.0,-202.0,202.0
-227.0,-53.0,61.0,-165.0,-204.0,-127.0,-878.0,-226.0,215.0
-229.0,-61.0,65.0,-169.0,-189.0,-156.0,-895.0,-238.0,235.0
-237.0,-63.0,72.0,-156.0,-187.0,-174.0,-921.0,-249.0,253.0
-241.0,-59.0,75.0,-129.0,-201.0,-185.0,-937.0,-254.0,265.0
-250.0,-58.0,78.0,-95.0,-231.0,-178.0,-955.0,-237.0,277.0
-252.0,-54.0,81.0,-58.0,-272.0,-158.0,-973.0,-222.0,291.0
-256.0,-50.0,83.0,-26.0,-319.0,-132.0,-986.0,-206.0,297.0
-255.0,-45.0,84.0,-2.0,-364.0,-105.0,-994.0,-183.0,294.0
-257.0,-37.0,79.0,11.0,-402.0,-85.0,-1002.0,-170.0,293.0
-258.0,-35.0,81.0,12.0,-427.0,-70.0,-1005.0,-154.0,291.0
-255.0,-36.0,76.0,4.0,-440.0,-64.0,-1006.0,-153.0,283.0
-253.0,-35.0,77.0,-15.0,-438.0,-74.0,-982.0,-155.0,280.0
-249.0,-40.0,77.0,-42.0,-423.0,-94.0,-955.0,-162.0,281.0
-235.0,-45.0,77.0,-70.0,-394.0,-122.0,-932.0,-187.0,284.0
-227.0,-47.0,79.0,-90.0,-354.0,-156.0,-900.0,-210.0,295.0
-227.0,-57.0,85.0,-98.0,-307.0,-189.0,-886.0,-234.0,307.0
-224.0,-62.0,89.0,-93.0,-260.0,-207.0,-884.0,-262.0,326.0
-228.0,-71.0,95.0,-78.0,-221.0,-211.0,-882.0,-287.0,343.0
-228.0,-75.0,98.0,-59.0,-200.0,-205.0,-885.0,-293.0,357.0
-227.0,-74.0,99.0,-31.0,-192.0,-194.0,-883.0,-307.0,367.0
-230.0,-74.0,97.0,-1.0,-195.0,-183.0,-889.0,-310.0,361.0
-233.0,-74.0,96.0,21.0,-202.0,-173.0,-896.0,-306.0,353.0
-233.0,-77.0,97.0,36.0,-206.0,-164.0,-907.0,-306.0,341.0
-234.0,-73.0,90.0,44.0,-210.0,-160.0,-904.0,-303.0,336.0
-232.0,-71.0,86.0,48.0,-212.0,-159.0,-904.0,-301.0,319.0
-232.0,-69.0,90.0,52.0,-208.0,-156.0,-905.0,-287.0,316.0
-231.0,-68.0,83.0,57.0,-201.0,-154.0,-907.0,-283.0,306.0
-232.0,-64.0,83.0,67.0,-191.0,-151.0,-903.0,-281.0,303.0
-232.0,-65.0,81.0,78.0,-184.0,-151.0,-907.0,-274.0,297.0
-230.0,-62.0,82.0,97.0,-177.0,-153.0,-912.0,-259.0,298.0
-234.0,-62.0,78.0,115.0,-170.0,-156.0,-915.0,-251.0,297.0
-232.0,-57.0,78.0,135.0,-162.0,-158.0,-912.0,-244.0,301.0
-234.0,-56.0,82.0,151.0,-151.0,-164.0,-911.0,-228.0,300.0
-233.0,-56.0,86.0,163.0,-137.0,-171.0,-911.0,-228.0,302.0
-231.0,-54.0,90.0,170.0,-122.0,-178.0,-913.0,-218.0,317.0
-232.0,-54.0,87.0,174.0,-108.0,-183.0,-915.0,-222.0,328.0
-233.0,-52.0,92.0,177.0,-95.0,-183.0,-919.0,-219.0,336.0
-235.0,-54.0,95.0,181.0,-83.0,-182.0,-916.0,-219.0,345.0
-233.0,-56.0,97.0,180.0,-72.0,-178.0,-912.0,-223.0,347.0
-235.0,-53.0,96.0,179.0,-67.0,-171.0,-909.0,-223.0,350.0
-233.0,-56.0,100.0,176.0,-67.0,-164.0,-897.0,-229.0,357.0
-229.0,-56.0,95.0,171.0,-76.0,-154.0,-895.0,-218.0,354.0
-227.0,-55.0,96.0,164.0,-89.0,-144.0,-893.0,-225.0,354.0
-226.0,-54.0,95.0,153.0,-106.0,-133.0,-889.0,-227.0,348.0
-226.0,-57.0,94.0,147.0,-123.0,-123.0,-891.0,-219.0,350.0
-226.0,-54.0,98.0,143.0,-134.0,-116.0,-883.0,-223.0,350.0
-225.0,-57.0,95.0,145.0,-139.0,-112.0,-883.0,-220.0,352.0
-225.0,-57.0,95.0,150.0,-141.0,-111.0,-879.0,-217.0,353.0
-226.0,-54.0,97.0,158.0,-142.0,-112.0,-874.0,-217.0,347.0
-225.0,-56.0,93.0,168.0,-139.0,-115.0,-873.0,-218.0,348.0
-223.0,-55.0,94.0,175.0,-134.0,-121.0,-872.0,-217.0,348.0
-222.0,-55.0,92.0,178.0,-128.0,-124.0,-873.0,-224.0,342.0
-225.0,-54.0,93.0,180.0,-122.0,-124.0,-875.0,-225.0,346.0
-222.0,-55.0,92.0,179.0,-116.0,-120.0,-869.0,-225.0,341.0
-220.0,-57.0,91.0,174.0,-110.0,-115.0,-865.0,-228.0,343.0
-220.0,-56.0,88.0,165.0,-104.0,-106.0,-867.0,-230.0,339.0
-223.0,-55.0,95.0,157.0,-102.0,-97.0,-866.0,-231.0,344.0
-223.0,-57.0,90.0,152.0,-99.0,-89.0,-870.0,-233.0,344.0
-220.0,-60.0,95.0,148.0,-99.0,-81.0,-873.0,-240.0,347.0
-223.0,-59.0,96.0,149.0,-103.0,-70.0,-877.0,-237.0,348.0
-226.0,-57.0,92.0,153.0,-111.0,-64.0,-880.0,-240.0,350.0
-221.0,-61.0,96.0,158.0,-119.0,-59.0,-884.0,-239.0,346.0
-220.0,-58.0,92.0,165.0,-125.0,-57.0,-884.0,-238.0,349.0
-228.0,-56.0,98.0,172.0,-127.0,-59.0,-889.0,-236.0,346.0
-228.0,-56.0,92.0,177.0,-124.0,-62.0,-887.0,-240.0,338.0
-229.0,-57.0,95.0,178.0,-112.0,-65.0,-894.0,-239.0,340.0
-232.0,-55.0,95.0,179.0,-100.0,-67.0,-901.0,-231.0,341.0
-228.0,-57.0,97.0,181.0,-86.0,-66.0,-898.0,-239.0,348.0
-230.0,-59.0,95.0,181.0,-74.0,-69.0,-896.0,-235.0,348.0
-231.0,-57.0,90.0,181.0,-66.0,-73.0,-896.0,-246.0,349.0
-228.0,-58.0,97.0,182.0,-56.0,-74.0,-894.0,-250.0,356.0
-230.0,-58.0,98.0,184.0,-47.0,-75.0,-895.0,-252.0,366.0
-231.0,-64.0,105.0,184.0,-37.0,-74.0,-901.0,-256.0,369.0
-231.0,-59.0,106.0,188.0,-27.0,-74.0,-900.0,-255.0,379.0
-225.0,-64.0,103.0,185.0,-19.0,-72.0,-896.0,-253.0,382.0
-226.0,-59.0,103.0,179.0,-9.0,-69.0,-896.0,-244.0,385.0
-228.0,-56.0,103.0,172.0,-3.0,-66.0,-889.0,-236.0,382.0
-225.0,-55.0,106.0,162.0,4.0,-59.0,-882.0,-228.0,382.0
-226.0,-54.0,100.0,153.0,10.0,-51.0,-878.0,-223.0,381.0
-225.0,-51.0,101.0,141.0,18.0,-42.0,-882.0,-215.0,370.0
-226.0,-52.0,101.0,131.0,25.0,-34.0,-879.0,-209.0,375.0
-223.0,-51.0,102.0,126.0,31.0,-24.0,-874.0,-212.0,378.0
-225.0,-50.0,101.0,122.0,35.0,-20.0,-878.0,-210.0,381.0
-226.0,-54.0,104.0,121.0,37.0,-14.0,-877.0,-215.0,386.0
-211.0,-52.0,102.0,121.0,38.0,-11.0,-863.0,-223.0,387.0
-221.0,-56.0,102.0,123.0,37.0,-16.0,-868.0,-236.0,385.0
-220.0,-59.0,104.0,122.0,39.0,-23.0,-872.0,-238.0,387.0
-221.0,-59.0,106.0,118.0,43.0,-27.0,-880.0,-247.0,383.0
-227.0,-61.0,102.0,116.0,47.0,-27.0,-885.0,-249.0,377.0
-227.0,-61.0,101.0,112.0,51.0,-29.0,-880.0,-248.0,369.0
-227.0,-60.0,100.0,110.0,56.0,-35.0,-887.0,-256.0,370.0
-229.0,-56.0,98.0,110.0,62.0,-38.0,-885.0,-247.0,371.0
-227.0,-58.0,100.0,111.0,68.0,-39.0,-886.0,-241.0,381.0
-229.0,-57.0,105.0,114.0,75.0,-38.0,-882.0,-241.0,384.0
-226.0,-57.0,103.0,119.0,81.0,-37.0,-876.0,-232.0,386.0
-225.0,-57.0,101.0,123.0,85.0,-36.0,-875.0,-230.0,390.0
-223.0,-56.0,98.0,121.0,86.0,-32.0,-870.0,-227.0,390.0
-224.0,-54.0,104.0,117.0,87.0,-25.0,-872.0,-221.0,385.0
-222.0,-53.0,100.0,111.0,88.0,-17.0,-873.0,-223.0,383.0
-221.0,-55.0,101.0,108.0,89.0,-14.0,-867.0,-221.0,370.0
-224.0,-53.0,102.0,107.0,87.0,-11.0,-869.0,-229.0,376.0
-226.0,-56.0,101.0,111.0,86.0,-15.0,-874.0,-233.0,370.0
-223.0,-60.0,100.0,120.0,86.0,-17.0,-877.0,-239.0,367.0
-226.0,-63.0,101.0,135.0,87.0,-21.0,-879.0,-240.0,374.0
-229.0,-58.0,102.0,153.0,84.0,-25.0,-885.0,-244.0,370.0
-233.0,-58.0,102.0,168.0,80.0,-30.0,-896.0,-238.0,372.0
-231.0,-56.0,104.0,178.0,73.0,-33.0,-894.0,-231.0,378.0
-232.0,-54.0,106.0,177.0,69.0,-33.0,-901.0,-225.0,389.0
-228.0,-51.0,102.0,171.0,67.0,-35.0,-896.0,-213.0,393.0
-228.0,-52.0,104.0,158.0,75.0,-37.0,-892.0,-205.0,394.0
-228.0,-49.0,107.0,140.0,89.0,-36.0,-885.0,-196.0,394.0
-227.0,-49.0,105.0,118.0,103.0,-31.0,-884.0,-200.0,392.0
-228.0,-48.0,101.0,97.0,112.0,-26.0,-884.0,-202.0,388.0
-226.0,-49.0,104.0,76.0,116.0,-18.0,-882.0,-199.0,385.0
-226.0,-49.0,99.0,57.0,110.0,-9.0,-882.0,-208.0,387.0
-226.0,-52.0,102.0,45.0,100.0,-3.0,-881.0,-205.0,385.0
-227.0,-52.0,100.0,38.0,88.0,2.0,-887.0,-213.0,379.0
-228.0,-52.0,104.0,36.0,75.0,4.0,-890.0,-220.0,386.0
-229.0,-56.0,103.0,39.0,63.0,2.0,-893.0,-228.0,385.0
-228.0,-54.0,103.0,43.0,52.0,0.0,-893.0,-225.0,391.0
-229.0,-56.0,102.0,47.0,44.0,0.0,-896.0,-229.0,388.0
-230.0,-54.0,102.0,50.0,39.0,-2.0,-895.0,-230.0,387.0
-228.0,-54.0,103.0,53.0,36.0,-2.0,-888.0,-224.0,387.0
-226.0,-52.0,103.0,50.0,35.0,-1.0,-893.0,-214.0,376.0
-231.0,-51.0,102.0,45.0,35.0,1.0,-888.0,-209.0,377.0
-224.0,-49.0,101.0,37.0,34.0,1.0,-884.0,-205.0,377.0
-228.0,-47.0,104.0,28.0,31.0,2.0,-889.0,-202.0,374.0
-230.0,-49.0,106.0,20.0,25.0,3.0,-881.0,-200.0,372.0
-227.0,-51.0,99.0,13.0,18.0,1.0,-886.0,-199.0,372.0
-227.0,-52.0,100.0,11.0,11.0,-1.0,-880.0,-208.0,376.0
-222.0,-53.0,103.0,9.0,4.0,-6.0,-880.0,-207.0,381.0
-228.0,-53.0,104.0,10.0,-2.0,-9.0,-879.0,-218.0,379.0
-227.0,-55.0,102.0,13.0,-5.0,-13.0,-886.0,-224.0,382.0
-225.0,-59.0,101.0,18.0,-7.0,-19.0,-880.0,-233.0,383.0
-227.0,-59.0,104.0,24.0,-11.0,-23.0,-889.0,-236.0,388.0
-228.0,-60.0,104.0,33.0,-16.0,-27.0,-885.0,-240.0,385.0
-227.0,-60.0,104.0,38.0,-21.0,-29.0,-890.0,-236.0,380.0
-228.0,-56.0,106.0,41.0,-27.0,-33.0,-884.0,-231.0,385.0
-226.0,-56.0,100.0,44.0,-33.0,-35.0,-887.0,-233.0,383.0
-229.0,-56.0,103.0,42.0,-37.0,-31.0,-907.0,-228.0,379.0
-226.0,-56.0,105.0,41.0,-34.0,-24.0,-885.0,-223.0,389.0
-229.0,-53.0,106.0,39.0,-34.0,-30.0,-884.0,-224.0,392.0
-225.0,-56.0,106.0,40.0,-35.0,-41.0,-878.0,-227.0,394.0
-225.0,-58.0,105.0,43.0,-33.0,-52.0,-868.0,-230.0,391.0
-224.0,-57.0,106.0,43.0,-27.0,-60.0,-878.0,-230.0,393.0
-224.0,-55.0,102.0,39.0,-21.0,-68.0,-869.0,-232.0,393.0
-223.0,-56.0,105.0,34.0,-15.0,-75.0,-868.0,-231.0,390.0
-223.0,-58.0,105.0,30.0,-13.0,-81.0,-868.0,-230.0,392.0
-223.0,-56.0,99.0,28.0,-14.0,-85.0,-874.0,-234.0,391.0
-224.0,-57.0,103.0,31.0,-13.0,-88.0,-876.0,-235.0,387.0
-225.0,-60.0,106.0,41.0,-12.0,-90.0,-881.0,-232.0,390.0
-225.0,-60.0,102.0,52.0,-7.0,-91.0,-883.0,-243.0,387.0
-230.0,-58.0,103.0,63.0,-3.0,-94.0,-889.0,-242.0,386.0
-225.0,-60.0,105.0,74.0,1.0,-96.0,-888.0,-242.0,390.0
-227.0,-56.0,106.0,83.0,5.0,-98.0,-892.0,-241.0,387.0
-227.0,-57.0,102.0,87.0,9.0,-97.0,-891.0,-234.0,392.0
-227.0,-54.0,107.0,89.0,13.0,-95.0,-884.0,-227.0,392.0
-227.0,-52.0,103.0,86.0,16.0,-91.0,-882.0,-215.0,389.0
-225.0,-47.0,105.0,77.0,17.0,-82.0,-878.0,-193.0,390.0
-224.0,-45.0,105.0,66.0,15.0,-72.0,-880.0,-192.0,385.0
-225.0,-39.0,102.0,53.0,12.0,-59.0,-876.0,-178.0,386.0
-226.0,-40.0,106.0,42.0,9.0,-49.0,-879.0,-177.0,386.0
-223.0,-42.0,105.0,34.0,8.0,-41.0,-875.0,-175.0,387.0
-223.0,-44.0,100.0,29.0,8.0,-33.0,-876.0,-185.0,388.0
-225.0,-46.0,103.0,26.0,4.0,-28.0,-876.0,-195.0,386.0
-224.0,-49.0,106.0,25.0,5.0,-23.0,-877.0,-203.0,396.0
-226.0,-53.0,107.0,25.0,5.0,-17.0,-880.0,-215.0,395.0
-228.0,-55.0,106.0,24.0,6.0,-11.0,-889.0,-220.0,390.0
-229.0,-53.0,104.0,22.0,9.0,-2.0,-889.0,-218.0,384.0
-226.0,-55.0,106.0,20.0,11.0,9.0,-877.0,-225.0,381.0
-230.0,-53.0,100.0,20.0,12.0,13.0,-879.0,-219.0,387.0
-228.0,-52.0,105.0,23.0,11.0,13.0,-882.0,-216.0,388.0
-229.0,-53.0,107.0,28.0,9.0,13.0,-883.0,-217.0,390.0
-228.0,-53.0,102.0,30.0,7.0,11.0,-889.0,-215.0,393.0
-228.0,-52.0,103.0,33.0,8.0,7.0,-880.0,-215.0,390.0
-226.0,-51.0,107.0,34.0,10.0,1.0,-882.0,-212.0,397.0
-223.0,-53.0,107.0,31.0,13.0,-4.0,-875.0,-217.0,393.0
-225.0,-52.0,106.0,25.0,14.0,-10.0,-874.0,-216.0,395.0
-225.0,-51.0,106.0,19.0,15.0,-16.0,-875.0,-218.0,403.0
-223.0,-52.0,108.0,15.0,10.0,-18.0,-875.0,-216.0,404.0
-221.0,-53.0,108.0,14.0,4.0,-20.0,-877.0,-218.0,404.0
-219.0,-55.0,105.0,13.0,-4.0,-23.0,-874.0,-220.0,408.0
-221.0,-54.0,108.0,14.0,-11.0,-27.0,-867.0,-217.0,413.0
-221.0,-54.0,110.0,10.0,-15.0,-32.0,-869.0,-222.0,412.0
-223.0,-50.0,107.0,6.0,-17.0,-34.0,-871.0,-212.0,406.0
-223.0,-52.0,111.0,-2.0,-19.0,-36.0,-870.0,-217.0,404.0
-219.0,-53.0,110.0,-9.0,-21.0,-38.0,-871.0,-214.0,403.0
-222.0,-54.0,109.0,-18.0,-24.0,-42.0,-869.0,-220.0,407.0
-220.0,-55.0,109.0,-18.0,-27.0,-46.0,-865.0,-216.0,406.0
-221.0,-53.0,112.0,-19.0,-25.0,-46.0,-864.0,-221.0,408.0
-220.0,-53.0,109.0,-19.0,-23.0,-46.0,-862.0,-220.0,410.0
-220.0,-54.0,106.0,-19.0,-18.0,-43.0,-867.0,-220.0,407.0
-219.0,-54.0,113.0,-19.0,-15.0,-41.0,-867.0,-217.0,412.0
-219.0,-57.0,109.0,-18.0,-14.0,-38.0,-867.0,-221.0,413.0
-223.0,-50.0,110.0,-16.0,-12.0,-38.0,-871.0,-218.0,418.0
-222.0,-55.0,109.0,-17.0,-11.0,-32.0,-876.0,-221.0,422.0
-224.0,-54.0,111.0,-15.0,-9.0,-28.0,-876.0,-217.0,420.0
-224.0,-53.0,108.0,-13.0,-6.0,-26.0,-878.0,-226.0,415.0
-221.0,-56.0,109.0,-14.0,-7.0,-25.0,-879.0,-228.0,424.0
-223.0,-56.0,111.0,-17.0,-10.0,-26.0,-877.0,-227.0,414.0
-229.0,-52.0,108.0,-23.0,-10.0,-27.0,-876.0,-223.0,407.0
-224.0,-52.0,104.0,-29.0,-10.0,-26.0,-873.0,-220.0,406.0
-227.0,-53.0,109.0,-37.0,-7.0,-26.0,-875.0,-220.0,406.0
-222.0,-55.0,109.0,-43.0,-2.0,-28.0,-873.0,-217.0,409.0
-223.0,-54.0,110.0,-44.0,4.0,-28.0,-874.0,-215.0,409.0
-223.0,-53.0,109.0,-43.0,11.0,-25.0,-877.0,-216.0,414.0
-224.0,-54.0,109.0,-39.0,14.0,-24.0,-869.0,-219.0,420.0
-223.0,-55.0,112.0,-36.0,18.0,-21.0,-871.0,-215.0,416.0
-224.0,-53.0,109.0,-35.0,20.0,-16.0,-867.0,-213.0,418.0
-222.0,-53.0,109.0,-36.0,21.0,-11.0,-863.0,-221.0,421.0
-222.0,-54.0,110.0,-36.0,21.0,-12.0,-865.0,-228.0,422.0
-222.0,-54.0,112.0,-38.0,20.0,-11.0,-866.0,-228.0,419.0
-221.0,-54.0,112.0,-40.0,17.0,-11.0,-869.0,-228.0,419.0
-219.0,-55.0,111.0,-44.0,13.0,-12.0,-863.0,-231.0,426.0
-225.0,-53.0,112.0,-50.0,9.0,-15.0,-866.0,-235.0,421.0
-223.0,-57.0,115.0,-52.0,11.0,-18.0,-864.0,-232.0,426.0
-222.0,-57.0,113.0,-56.0,16.0,-22.0,-865.0,-234.0,424.0
-225.0,-55.0,110.0,-60.0,22.0,-24.0,-866.0,-235.0,425.0
-217.0,-60.0,113.0,-63.0,30.0,-24.0,-867.0,-231.0,421.0
-218.0,-58.0,113.0,-62.0,36.0,-22.0,-864.0,-228.0,417.0
-220.0,-56.0,109.0,-60.0,40.0,-20.0,-865.0,-230.0,407.0
-219.0,-56.0,109.0,-59.0,45.0,-19.0,-869.0,-227.0,406.0
-218.0,-58.0,108.0,-56.0,47.0,-18.0,-859.0,-225.0,407.0
-219.0,-56.0,109.0,-56.0,47.0,-15.0,-857.0,-230.0,409.0
-210.0,-57.0,113.0,-52.0,45.0,-14.0,-855.0,-231.0,421.0
-219.0,-57.0,114.0,-46.0,43.0,-12.0,-853.0,-235.0,431.0
-218.0,-62.0,113.0,-40.0,41.0,-12.0,-854.0,-237.0,432.0
-218.0,-58.0,111.0,-36.0,43.0,-9.0,-851.0,-240.0,429.0
-217.0,-57.0,112.0,-36.0,43.0,-6.0,-855.0,-243.0,433.0
-219.0,-55.0,114.0,-38.0,41.0,-5.0,-852.0,-244.0,424.0
-217.0,-57.0,112.0,-43.0,37.0,-1.0,-852.0,-236.0,426.0
-218.0,-57.0,114.0,-48.0,32.0,3.0,-859.0,-235.0,423.0
-219.0,-57.0,110.0,-50.0,28.0,6.0,-857.0,-233.0,421.0
-220.0,-56.0,112.0,-49.0,23.0,5.0,-857.0,-237.0,426.0
-219.0,-56.0,110.0,-46.0,22.0,2.0,-861.0,-228.0,423.0
-219.0,-59.0,110.0,-37.0,24.0,0.0,-863.0,-233.0,423.0
-217.0,-57.0,114.0,-28.0,25.0,-3.0,-863.0,-238.0,420.0
-220.0,-57.0,110.0,-17.0,28.0,-7.0,-863.0,-236.0,422.0
-218.0,-58.0,109.0,-8.0,30.0,-11.0,-862.0,-245.0,426.0
-219.0,-57.0,111.0,1.0,28.0,-13.0,-859.0,-241.0,424.0
-221.0,-56.0,110.0,5.0,26.0,-14.0,-858.0,-234.0,422.0
-219.0,-57.0,110.0,7.0,23.0,-15.0,-855.0,-235.0,419.0
-220.0,-55.0,113.0,8.0,20.0,-13.0,-850.0,-231.0,419.0
-217.0,-55.0,108.0,7.0,18.0,-12.0,-853.0,-234.0,414.0
-219.0,-56.0,108.0,8.0,18.0,-10.0,-857.0,-231.0,419.0
-223.0,-58.0,110.0,7.0,18.0,-12.0,-857.0,-229.0,422.0
-222.0,-56.0,111.0,6.0,18.0,-13.0,-861.0,-233.0,421.0
-222.0,-53.0,110.0,7.0,20.0,-14.0,-866.0,-229.0,424.0
-221.0,-55.0,113.0,6.0,22.0,-13.0,-862.0,-228.0,424.0
-222.0,-54.0,110.0,4.0,25.0,-14.0,-862.0,-225.0,420.0
-220.0,-56.0,111.0,0.0,30.0,-14.0,-856.0,-223.0,426.0
-219.0,-56.0,112.0,-5.0,37.0,-15.0,-859.0,-227.0,425.0
-214.0,-55.0,112.0,-11.0,42.0,-15.0,-848.0,-228.0,427.0
-215.0,-55.0,113.0,-15.0,50.0,-16.0,-855.0,-229.0,423.0
-220.0,-54.0,116.0,-21.0,55.0,-16.0,-855.0,-229.0,420.0
-216.0,-58.0,111.0,-26.0,60.0,-16.0,-855.0,-232.0,415.0
-217.0,-62.0,113.0,-28.0,62.0,-14.0,-859.0,-235.0,417.0
-219.0,-60.0,111.0,-27.0,60.0,-11.0,-861.0,-235.0,422.0
-221.0,-58.0,108.0,-23.0,55.0,-10.0,-863.0,-239.0,420.0
-222.0,-58.0,109.0,-18.0,51.0,-8.0,-869.0,-240.0,421.0
-221.0,-58.0,113.0,-12.0,47.0,-9.0,-866.0,-240.0,422.0
-223.0,-55.0,110.0,-5.0,45.0,-10.0,-869.0,-237.0,424.0
-223.0,-56.0,110.0,-1.0,42.0,-11.0,-868.0,-234.0,415.0
-223.0,-55.0,109.0,2.0,39.0,-10.0,-868.0,-229.0,419.0
-220.0,-55.0,113.0,3.0,36.0,-9.0,-869.0,-231.0,413.0
-217.0,-55.0,110.0,1.0,32.0,-8.0,-862.0,-223.0,413.0
-218.0,-55.0,109.0,-1.0,31.0,-8.0,-860.0,-223.0,412.0
-219.0,-56.0,114.0,-4.0,32.0,-9.0,-858.0,-224.0,420.0
-216.0,-57.0,109.0,-7.0,34.0,-9.0,-857.0,-224.0,412.0
-220.0,-55.0,111.0,-8.0,37.0,-10.0,-859.0,-229.0,420.0
-217.0,-59.0,110.0,-8.0,44.0,-11.0,-856.0,-233.0,424.0
-216.0,-58.0,113.0,-5.0,50.0,-11.0,-856.0,-240.0,427.0
-221.0,-58.0,110.0,-1.0,54.0,-13.0,-853.0,-243.0,424.0
-217.0,-59.0,112.0,4.0,55.0,-12.0,-854.0,-243.0,424.0
-220.0,-58.0,110.0,7.0,58.0,-12.0,-861.0,-246.0,420.0
-220.0,-54.0,113.0,8.0,58.0,-10.0,-862.0,-235.0,429.0
-222.0,-55.0,117.0,8.0,60.0,-9.0,-862.0,-236.0,425.0
-220.0,-57.0,111.0,7.0,60.0,-6.0,-863.0,-231.0,427.0
-226.0,-56.0,111.0,4.0,60.0,-5.0,-872.0,-229.0,423.0
-220.0,-59.0,111.0,3.0,59.0,4.0,-867.0,-231.0,419.0
-221.0,-57.0,113.0,1.0,58.0,7.0,-861.0,-233.0,421.0
-220.0,-56.0,111.0,2.0,56.0,3.0,-861.0,-231.0,425.0
-221.0,-56.0,105.0,4.0,53.0,-3.0,-860.0,-234.0,423.0
-219.0,-56.0,111.0,5.0,51.0,-4.0,-862.0,-231.0,424.0
-221.0,-55.0,111.0,8.0,52.0,-3.0,-864.0,-230.0,432.0
-219.0,-55.0,113.0,9.0,51.0,-4.0,-864.0,-227.0,428.0
-219.0,-56.0,112.0,10.0,50.0,-4.0,-861.0,-232.0,430.0
-218.0,-58.0,110.0,8.0,49.0,-6.0,-861.0,-229.0,431.0
-220.0,-54.0,113.0,3.0,48.0,-4.0,-856.0,-228.0,429.0
-218.0,-57.0,113.0,-2.0,51.0,-3.0,-856.0,-230.0,426.0
-218.0,-56.0,116.0,-9.0,51.0,-3.0,-854.0,-236.0,423.0
-216.0,-60.0,112.0,-12.0,51.0,-2.0,-855.0,-239.0,421.0
-216.0,-56.0,113.0,-14.0,51.0,-2.0,-856.0,-239.0,422.0
-218.0,-57.0,111.0,-14.0,51.0,-1.0,-855.0,-239.0,422.0
-219.0,-59.0,112.0,-10.0,50.0,0.0,-861.0,-236.0,422.0
-220.0,-60.0,113.0,-6.0,48.0,1.0,-855.0,-238.0,425.0
-219.0,-56.0,111.0,-1.0,47.0,0.0,-854.0,-239.0,426.0
-217.0,-58.0,111.0,4.0,47.0,1.0,-859.0,-231.0,430.0
-217.0,-56.0,114.0,7.0,48.0,3.0,-857.0,-230.0,433.0
-218.0,-54.0,114.0,9.0,48.0,5.0,-857.0,-228.0,429.0
-216.0,-56.0,112.0,9.0,47.0,6.0,-857.0,-226.0,436.0
-222.0,-52.0,113.0,7.0,47.0,7.0,-856.0,-231.0,432.0
-216.0,-56.0,115.0,4.0,45.0,8.0,-853.0,-226.0,435.0
-218.0,-55.0,116.0,2.0,45.0,11.0,-852.0,-225.0,430.0
-217.0,-56.0,113.0,-3.0,43.0,11.0,-855.0,-229.0,429.0
-221.0,-55.0,113.0,-8.0,44.0,11.0,-859.0,-229.0,428.0
-218.0,-58.0,109.0,-12.0,45.0,12.0,-856.0,-233.0,427.0
-218.0,-58.0,113.0,-13.0,45.0,9.0,-862.0,-231.0,428.0
-216.0,-58.0,112.0,-13.0,45.0,7.0,-856.0,-230.0,429.0
-217.0,-56.0,112.0,-9.0,44.0,3.0,-857.0,-235.0,428.0
-221.0,-57.0,110.0,-6.0,47.0,-1.0,-858.0,-230.0,427.0
-219.0,-58.0,113.0,-3.0,49.0,-4.0,-860.0,-232.0,429.0
-218.0,-55.0,118.0,1.0,48.0,-6.0,-861.0,-226.0,433.0
-222.0,-55.0,115.0,5.0,48.0,-8.0,-860.0,-222.0,437.0
-219.0,-55.0,118.0,9.0,45.0,-8.0,-855.0,-223.0,441.0
-219.0,-50.0,112.0,10.0,41.0,-7.0,-859.0,-224.0,439.0
-219.0,-55.0,115.0,10.0,38.0,-7.0,-855.0,-225.0,436.0
-220.0,-55.0,113.0,4.0,34.0,-5.0,-860.0,-224.0,435.0
-218.0,-53.0,118.0,-1.0,31.0,-3.0,-859.0,-216.0,432.0
-221.0,-52.0,113.0,-7.0,28.0,-1.0,-861.0,-219.0,432.0
-217.0,-54.0,115.0,-10.0,27.0,-2.0,-859.0,-219.0,434.0
-220.0,-56.0,111.0,-12.0,26.0,-4.0,-857.0,-224.0,427.0
-219.0,-55.0,111.0,-12.0,28.0,-8.0,-861.0,-222.0,431.0
-211.0,-52.0,115.0,-10.0,30.0,-7.0,-849.0,-225.0,429.0
-220.0,-55.0,115.0,-7.0,35.0,-8.0,-856.0,-231.0,429.0
-218.0,-56.0,111.0,-4.0,38.0,-9.0,-856.0,-228.0,430.0
-218.0,-56.0,109.0,-3.0,41.0,-9.0,-860.0,-233.0,433.0
-217.0,-57.0,114.0,-2.0,41.0,-9.0,-860.0,-227.0,427.0
-222.0,-56.0,113.0,-2.0,43.0,-10.0,-858.0,-231.0,426.0
-221.0,-55.0,115.0,-3.0,43.0,-9.0,-866.0,-229.0,429.0
-223.0,-54.0,114.0,-5.0,45.0,-8.0,-861.0,-226.0,431.0
-220.0,-53.0,115.0,-4.0,46.0,-7.0,-865.0,-227.0,433.0
-219.0,-55.0,114.0,-4.0,46.0,-9.0,-859.0,-226.0,434.0
-222.0,-55.0,120.0,-2.0,47.0,-11.0,-864.0,-226.0,432.0
-220.0,-56.0,112.0,0.0,47.0,-15.0,-866.0,-227.0,433.0
-220.0,-56.0,111.0,4.0,46.0,-17.0,-864.0,-228.0,430.0
-219.0,-53.0,111.0,6.0,46.0,-18.0,-863.0,-227.0,430.0
-220.0,-53.0,115.0,6.0,45.0,-18.0,-860.0,-217.0,437.0
-220.0,-54.0,117.0,4.0,41.0,-18.0,-855.0,-223.0,432.0
-215.0,-55.0,112.0,1.0,40.0,-16.0,-852.0,-220.0,432.0
-219.0,-53.0,112.0,-3.0,38.0,-15.0,-854.0,-219.0,427.0
-216.0,-55.0,112.0,-8.0,38.0,-14.0,-853.0,-226.0,434.0
-219.0,-54.0,111.0,-10.0,35.0,-15.0,-853.0,-225.0,434.0
-216.0,-56.0,114.0,-14.0,35.0,-15.0,-850.0,-227.0,432.0
-219.0,-56.0,113.0,-18.0,34.0,-18.0,-851.0,-229.0,431.0
-208.0,-53.0,112.0,-22.0,33.0,-20.0,-852.0,-228.0,430.0
-217.0,-58.0,115.0,-26.0,37.0,-25.0,-855.0,-230.0,425.0
-220.0,-55.0,113.0,-30.0,39.0,-29.0,-856.0,-231.0,428.0
-214.0,-59.0,116.0,-35.0,42.0,-31.0,-858.0,-229.0,427.0
-217.0,-56.0,113.0,-37.0,47.0,-32.0,-855.0,-230.0,433.0
-218.0,-55.0,116.0,-37.0,48.0,-32.0,-860.0,-234.0,436.0
-219.0,-55.0,112.0,-38.0,53.0,-32.0,-861.0,-233.0,433.0
-218.0,-56.0,114.0,-37.0,56.0,-33.0,-860.0,-231.0,434.0
-222.0,-55.0,117.0,-35.0,57.0,-32.0,-862.0,-229.0,436.0
-219.0,-57.0,111.0,-30.0,56.0,-29.0,-863.0,-231.0,435.0
-217.0,-57.0,114.0,-26.0,54.0,-28.0,-861.0,-224.0,431.0
-220.0,-57.0,114.0,-22.0,51.0,-26.0,-860.0,-227.0,432.0
-219.0,-54.0,112.0,-22.0,49.0,-25.0,-856.0,-231.0,435.0
-219.0,-56.0,114.0,-20.0,47.0,-23.0,-854.0,-231.0,433.0
-217.0,-58.0,112.0,-21.0,46.0,-23.0,-851.0,-231.0,433.0
-215.0,-57.0,119.0,-19.0,45.0,-22.0,-842.0,-237.0,433.0
-215.0,-58.0,118.0,-18.0,45.0,-21.0,-843.0,-237.0,434.0
-213.0,-56.0,115.0,-15.0,46.0,-19.0,-844.0,-240.0,433.0
-215.0,-59.0,115.0,-13.0,48.0,-19.0,-841.0,-237.0,439.0
-214.0,-59.0,114.0,-11.0,47.0,-17.0,-842.0,-236.0,442.0
-216.0,-56.0,121.0,-9.0,47.0,-16.0,-850.0,-240.0,447.0
-218.0,-57.0,115.0,-8.0,46.0,-14.0,-849.0,-243.0,445.0
-219.0,-60.0,116.0,-7.0,45.0,-9.0,-850.0,-238.0,439.0
-219.0,-57.0,116.0,-4.0,46.0,-9.0,-850.0,-239.0,434.0
-215.0,-58.0,116.0,-1.0,47.0,-8.0,-850.0,-236.0,434.0
-218.0,-57.0,113.0,0.0,50.0,-7.0,-854.0,-234.0,433.0
-218.0,-55.0,116.0,-1.0,52.0,-7.0,-853.0,-227.0,432.0
-217.0,-57.0,112.0,-2.0,53.0,-7.0,-852.0,-232.0,430.0
-216.0,-55.0,113.0,-4.0,53.0,-6.0,-849.0,-230.0,432.0
-215.0,-56.0,114.0,-5.0,53.0,-5.0,-843.0,-230.0,435.0
-214.0,-56.0,113.0,-3.0,53.0,-3.0,-843.0,-229.0,440.0
-215.0,-59.0,112.0,-5.0,51.0,-2.0,-845.0,-233.0,438.0
-217.0,-56.0,118.0,-7.0,46.0,0.0,-852.0,-231.0,438.0
-216.0,-55.0,116.0,-8.0,45.0,3.0,-842.0,-232.0,442.0
-218.0,-58.0,116.0,-10.0,45.0,3.0,-843.0,-233.0,438.0
-220.0,-57.0,118.0,-14.0,47.0,3.0,-843.0,-236.0,439.0
-218.0,-55.0,118.0,-18.0,51.0,5.0,-849.0,-233.0,442.0
-216.0,-58.0,114.0,-19.0,55.0,6.0,-855.0,-237.0,444.0
-216.0,-58.0,115.0,-22.0,59.0,6.0,-852.0,-240.0,445.0
-216.0,-62.0,115.0,-25.0,61.0,4.0,-853.0,-244.0,441.0
-217.0,-58.0,121.0,-25.0,64.0,3.0,-849.0,-245.0,442.0
-218.0,-58.0,117.0,-22.0,67.0,1.0,-848.0,-243.0,444.0
-216.0,-58.0,119.0,-18.0,71.0,1.0,-843.0,-237.0,444.0
-213.0,-57.0,109.0,-15.0,72.0,-1.0,-846.0,-243.0,437.0
-216.0,-57.0,114.0,-9.0,75.0,-1.0,-843.0,-238.0,439.0
-215.0,-58.0,114.0,-6.0,76.0,0.0,-846.0,-235.0,434.0
-215.0,-56.0,114.0,-2.0,75.0,0.0,-850.0,-238.0,438.0
-215.0,-56.0,114.0,1.0,75.0,-2.0,-850.0,-234.0,434.0
-217.0,-61.0,115.0,6.0,76.0,-2.0,-847.0,-232.0,443.0
-217.0,-56.0,117.0,9.0,78.0,-3.0,-848.0,-230.0,438.0
-214.0,-57.0,116.0,13.0,80.0,-7.0,-850.0,-237.0,433.0
-216.0,-56.0,116.0,16.0,87.0,-9.0,-846.0,-234.0,434.0
-216.0,-59.0,114.0,20.0,94.0,-12.0,-847.0,-234.0,435.0
-218.0,-58.0,116.0,22.0,103.0,-12.0,-853.0,-232.0,435.0
-217.0,-56.0,116.0,26.0,114.0,-10.0,-844.0,-237.0,439.0
-217.0,-55.0,115.0,29.0,126.0,-8.0,-849.0,-235.0,439.0
-213.0,-54.0,111.0,33.0,137.0,-4.0,-845.0,-234.0,434.0
-216.0,-57.0,113.0,35.0,147.0,0.0,-844.0,-230.0,432.0
-218.0,-56.0,115.0,36.0,153.0,3.0,-853.0,-231.0,435.0
-215.0,-56.0,119.0,39.0,158.0,6.0,-850.0,-232.0,440.0
-221.0,-55.0,113.0,40.0,159.0,6.0,-857.0,-229.0,441.0
-219.0,-55.0,117.0,40.0,156.0,6.0,-854.0,-229.0,440.0
-219.0,-55.0,115.0,40.0,151.0,5.0,-853.0,-228.0,438.0
-220.0,-56.0,117.0,37.0,144.0,6.0,-862.0,-223.0,440.0
-222.0,-53.0,113.0,32.0,140.0,5.0,-862.0,-224.0,437.0
-227.0,-55.0,107.0,27.0,134.0,2.0,-859.0,-227.0,431.0
-222.0,-52.0,117.0,23.0,126.0,3.0,-863.0,-212.0,429.0
-221.0,-52.0,113.0,20.0,119.0,5.0,-851.0,-219.0,425.0
-221.0,-51.0,113.0,18.0,110.0,2.0,-856.0,-217.0,428.0
-220.0,-54.0,111.0,18.0,102.0,-1.0,-854.0,-219.0,426.0
-217.0,-56.0,110.0,20.0,92.0,-6.0,-857.0,-223.0,426.0
-218.0,-56.0,113.0,22.0,85.0,-9.0,-859.0,-227.0,423.0
-218.0,-57.0,116.0,26.0,80.0,-12.0,-862.0,-229.0,427.0
-218.0,-56.0,111.0,30.0,74.0,-14.0,-857.0,-232.0,426.0
-218.0,-57.0,114.0,33.0,73.0,-17.0,-862.0,-231.0,426.0
-219.0,-56.0,116.0,34.0,70.0,-17.0,-859.0,-231.0,434.0
-219.0,-57.0,113.0,34.0,69.0,-17.0,-860.0,-231.0,429.0
-219.0,-56.0,112.0,35.0,67.0,-18.0,-856.0,-230.0,430.0
-219.0,-56.0,112.0,35.0,68.0,-17.0,-860.0,-229.0,427.0
-220.0,-56.0,114.0,34.0,67.0,-16.0,-854.0,-227.0,430.0
-221.0,-55.0,113.0,33.0,64.0,-16.0,-859.0,-229.0,426.0
-220.0,-54.0,116.0,34.0,62.0,-17.0,-857.0,-229.0,431.0
-220.0,-56.0,111.0,34.0,60.0,-18.0,-855.0,-229.0,429.0
-220.0,-55.0,114.0,35.0,58.0,-19.0,-860.0,-225.0,429.0
-220.0,-57.0,113.0,35.0,54.0,-20.0,-857.0,-230.0,431.0
-219.0,-56.0,115.0,35.0,52.0,-21.0,-858.0,-226.0,427.0
-219.0,-56.0,114.0,37.0,50.0,-24.0,-862.0,-229.0,428.0
-222.0,-54.0,109.0,39.0,46.0,-25.0,-857.0,-223.0,430.0
-221.0,-55.0,115.0,42.0,43.0,-27.0,-856.0,-226.0,435.0
-217.0,-55.0,113.0,42.0,39.0,-28.0,-849.0,-227.0,434.0
-219.0,-55.0,117.0,39.0,37.0,-26.0,-857.0,-228.0,440.0
-217.0,-53.0,113.0,35.0,35.0,-23.0,-857.0,-221.0,438.0
-218.0,-53.0,113.0,28.0,34.0,-21.0,-860.0,-228.0,435.0
-219.0,-53.0,116.0,20.0,34.0,-21.0,-857.0,-222.0,434.0
-216.0,-54.0,119.0,15.0,33.0,-19.0,-849.0,-225.0,434.0
-216.0,-55.0,118.0,8.0,33.0,-16.0,-855.0,-228.0,438.0
-217.0,-58.0,114.0,4.0,37.0,-14.0,-852.0,-226.0,434.0
-217.0,-55.0,118.0,0.0,38.0,-12.0,-852.0,-228.0,436.0
-219.0,-57.0,115.0,1.0,41.0,-12.0,-853.0,-233.0,432.0
-219.0,-61.0,115.0,2.0,43.0,-11.0,-855.0,-232.0,436.0
-216.0,-59.0,117.0,7.0,43.0,-11.0,-853.0,-231.0,434.0
-216.0,-58.0,115.0,11.0,45.0,-12.0,-848.0,-233.0,436.0
-215.0,-59.0,116.0,16.0,44.0,-10.0,-848.0,-230.0,440.0
-217.0,-56.0,117.0,21.0,42.0,-9.0,-852.0,-232.0,437.0
-215.0,-55.0,113.0,23.0,41.0,-9.0,-849.0,-235.0,438.0
-216.0,-55.0,114.0,24.0,40.0,-10.0,-851.0,-227.0,439.0
-215.0,-58.0,114.0,22.0,40.0,-10.0,-850.0,-226.0,435.0
-217.0,-53.0,117.0,22.0,40.0,-11.0,-851.0,-228.0,435.0
-218.0,-55.0,117.0,20.0,37.0,-13.0,-849.0,-231.0,439.0
-216.0,-54.0,118.0,17.0,38.0,-14.0,-852.0,-228.0,440.0
-219.0,-53.0,116.0,18.0,37.0,-14.0,-853.0,-228.0,437.0
-219.0,-57.0,114.0,18.0,39.0,-16.0,-855.0,-229.0,441.0
-218.0,-54.0,118.0,21.0,39.0,-18.0,-846.0,-228.0,442.0
-215.0,-58.0,114.0,21.0,38.0,-17.0,-844.0,-227.0,440.0
-217.0,-55.0,118.0,23.0,38.0,-17.0,-847.0,-229.0,438.0
-217.0,-56.0,116.0,24.0,37.0,-16.0,-852.0,-233.0,442.0
-217.0,-55.0,120.0,24.0,37.0,-17.0,-847.0,-233.0,444.0
-215.0,-57.0,115.0,24.0,37.0,-17.0,-849.0,-228.0,444.0
-216.0,-56.0,121.0,25.0,38.0,-19.0,-850.0,-223.0,443.0
-217.0,-56.0,116.0,23.0,40.0,-20.0,-854.0,-230.0,440.0
-218.0,-55.0,114.0,23.0,41.0,-20.0,-848.0,-229.0,443.0
-216.0,-54.0,119.0,23.0,43.0,-19.0,-845.0,-225.0,450.0
-216.0,-55.0,117.0,25.0,44.0,-19.0,-850.0,-226.0,449.0
-216.0,-57.0,116.0,25.0,47.0,-19.0,-849.0,-227.0,443.0
-213.0,-55.0,115.0,29.0,50.0,-20.0,-850.0,-227.0,444.0
-218.0,-53.0,116.0,30.0,53.0,-20.0,-848.0,-231.0,451.0
-217.0,-56.0,118.0,34.0,55.0,-19.0,-851.0,-233.0,448.0
-218.0,-56.0,118.0,34.0,57.0,-21.0,-847.0,-228.0,450.0
-218.0,-57.0,119.0,34.0,63.0,-21.0,-845.0,-232.0,444.0
-218.0,-56.0,120.0,33.0,68.0,-20.0,-846.0,-232.0,449.0
-217.0,-56.0,116.0,30.0,78.0,-19.0,-847.0,-233.0,442.0
-209.0,-58.0,116.0,26.0,90.0,-16.0,-851.0,-235.0,438.0
-215.0,-56.0,113.0,21.0,101.0,-13.0,-845.0,-234.0,435.0
-216.0,-57.0,114.0,16.0,114.0,-10.0,-847.0,-227.0,438.0
-219.0,-54.0,116.0,11.0,127.0,-7.0,-846.0,-224.0,439.0
-218.0,-54.0,119.0,8.0,139.0,-2.0,-846.0,-228.0,442.0
-218.0,-56.0,115.0,5.0,148.0,2.0,-855.0,-213.0,441.0
-219.0,-54.0,116.0,2.0,152.0,4.0,-856.0,-218.0,443.0
-218.0,-53.0,116.0,-2.0,153.0,6.0,-857.0,-216.0,438.0
-221.0,-51.0,116.0,-8.0,151.0,5.0,-859.0,-216.0,438.0
-222.0,-53.0,117.0,-14.0,147.0,4.0,-861.0,-218.0,437.0
-220.0,-55.0,114.0,-22.0,141.0,5.0,-860.0,-219.0,440.0
-220.0,-55.0,110.0,-23.0,136.0,4.0,-862.0,-224.0,433.0
-218.0,-56.0,112.0,-24.0,135.0,4.0,-855.0,-227.0,428.0
-219.0,-56.0,112.0,-26.0,136.0,6.0,-855.0,-221.0,427.0
-217.0,-56.0,113.0,-25.0,137.0,9.0,-855.0,-228.0,428.0
-219.0,-55.0,112.0,-23.0,139.0,13.0,-858.0,-231.0,427.0
-219.0,-57.0,111.0,-20.0,141.0,16.0,-854.0,-230.0,431.0
-218.0,-56.0,116.0,-14.0,140.0,18.0,-855.0,-235.0,432.0
-218.0,-57.0,119.0,-9.0,137.0,20.0,-857.0,-234.0,435.0
-221.0,-57.0,115.0,-3.0,135.0,19.0,-855.0,-235.0,435.0
-217.0,-59.0,115.0,0.0,136.0,16.0,-855.0,-232.0,430.0
-217.0,-60.0,116.0,0.0,137.0,13.0,-856.0,-235.0,434.0
-216.0,-55.0,110.0,-2.0,140.0,8.0,-857.0,-227.0,427.0
-218.0,-55.0,112.0,-6.0,143.0,8.0,-852.0,-227.0,434.0
-219.0,-54.0,117.0,-7.0,144.0,5.0,-854.0,-221.0,436.0
-218.0,-56.0,116.0,-5.0,141.0,5.0,-857.0,-222.0,438.0
-219.0,-54.0,115.0,-2.0,135.0,4.0,-856.0,-216.0,440.0
-219.0,-53.0,112.0,5.0,126.0,1.0,-855.0,-214.0,440.0
-221.0,-51.0,117.0,11.0,115.0,-2.0,-860.0,-209.0,441.0
-219.0,-50.0,117.0,14.0,106.0,-6.0,-859.0,-213.0,435.0
-219.0,-53.0,116.0,15.0,95.0,-6.0,-857.0,-214.0,443.0
-219.0,-51.0,116.0,12.0,84.0,-8.0,-852.0,-214.0,434.0
-215.0,-54.0,115.0,7.0,74.0,-10.0,-856.0,-219.0,435.0
-218.0,-54.0,119.0,5.0,70.0,-10.0,-860.0,-226.0,433.0
-219.0,-55.0,115.0,1.0,70.0,-13.0,-859.0,-229.0,431.0
-217.0,-55.0,119.0,0.0,72.0,-10.0,-856.0,-224.0,437.0
-218.0,-56.0,115.0,1.0,75.0,-9.0,-853.0,-228.0,436.0
-218.0,-57.0,118.0,4.0,76.0,-9.0,-856.0,-225.0,435.0
-216.0,-56.0,115.0,10.0,77.0,-11.0,-852.0,-227.0,435.0
-218.0,-55.0,115.0,17.0,75.0,-12.0,-856.0,-221.0,440.0
-218.0,-54.0,117.0,23.0,77.0,-14.0,-857.0,-221.0,440.0
-218.0,-55.0,117.0,26.0,78.0,-15.0,-852.0,-224.0,440.0
-216.0,-54.0,118.0,27.0,80.0,-15.0,-851.0,-222.0,441.0
-225.0,-56.0,113.0,28.0,80.0,-15.0,-850.0,-229.0,441.0
-216.0,-54.0,113.0,27.0,81.0,-16.0,-849.0,-226.0,439.0
-216.0,-54.0,118.0,26.0,80.0,-17.0,-848.0,-230.0,437.0
-214.0,-58.0,115.0,26.0,79.0,-17.0,-851.0,-229.0,436.0
-217.0,-57.0,119.0,26.0,81.0,-19.0,-843.0,-230.0,442.0
-218.0,-57.0,117.0,26.0,80.0,-20.0,-846.0,-232.0,445.0
-217.0,-56.0,114.0,27.0,83.0,-19.0,-854.0,-237.0,450.0
-217.0,-56.0,118.0,30.0,86.0,-19.0,-848.0,-238.0,444.0
-219.0,-56.0,115.0,32.0,90.0,-18.0,-851.0,-238.0,441.0
-220.0,-56.0,115.0,33.0,94.0,-15.0,-853.0,-234.0,437.0
-220.0,-56.0,111.0,30.0,97.0,-15.0,-854.0,-230.0,432.0
-219.0,-56.0,112.0,28.0,101.0,-14.0,-851.0,-232.0,431.0
-218.0,-53.0,111.0,26.0,102.0,-14.0,-852.0,-220.0,431.0
-216.0,-55.0,111.0,26.0,101.0,-14.0,-851.0,-225.0,434.0
-217.0,-57.0,117.0,27.0,97.0,-16.0,-852.0,-221.0,432.0
-216.0,-56.0,115.0,31.0,94.0,-14.0,-858.0,-221.0,434.0
-218.0,-57.0,116.0,34.0,88.0,-17.0,-857.0,-221.0,435.0
-219.0,-55.0,113.0,36.0,85.0,-17.0,-862.0,-226.0,433.0
-218.0,-55.0,114.0,37.0,82.0,-18.0,-861.0,-225.0,429.0
-219.0,-54.0,114.0,36.0,79.0,-19.0,-852.0,-227.0,428.0
-219.0,-56.0,112.0,33.0,78.0,-21.0,-852.0,-227.0,426.0
-219.0,-55.0,115.0,29.0,79.0,-22.0,-851.0,-235.0,425.0
-224.0,-61.0,110.0,30.0,81.0,-23.0,-851.0,-234.0,431.0
-215.0,-57.0,114.0,29.0,82.0,-23.0,-855.0,-239.0,429.0
-216.0,-58.0,110.0,32.0,83.0,-24.0,-858.0,-236.0,430.0
-219.0,-57.0,114.0,35.0,83.0,-26.0,-853.0,-230.0,432.0
-218.0,-56.0,115.0,40.0,81.0,-27.0,-854.0,-227.0,436.0
-221.0,-53.0,114.0,43.0,76.0,-25.0,-858.0,-222.0,435.0
-217.0,-53.0,117.0,45.0,73.0,-23.0,-856.0,-218.0,435.0
-219.0,-50.0,114.0,44.0,68.0,-21.0,-852.0,-210.0,440.0
-220.0,-50.0,119.0,43.0,65.0,-18.0,-853.0,-206.0,436.0
-218.0,-48.0,115.0,40.0,62.0,-15.0,-860.0,-205.0,441.0
-218.0,-53.0,115.0,34.0,60.0,-12.0,-855.0,-203.0,441.0
-220.0,-50.0,113.0,29.0,56.0,-6.0,-863.0,-200.0,439.0
-219.0,-50.0,114.0,26.0,55.0,-4.0,-861.0,-201.0,434.0
-218.0,-50.0,114.0,22.0,54.0,-4.0,-860.0,-211.0,437.0
-219.0,-51.0,113.0,17.0,56.0,-2.0,-855.0,-205.0,435.0
-220.0,-51.0,112.0,13.0,61.0,-3.0,-864.0,-212.0,430.0
-222.0,-52.0,116.0,7.0,69.0,-5.0,-864.0,-217.0,436.0
-223.0,-53.0,120.0,4.0,76.0,-2.0,-863.0,-216.0,435.0
-221.0,-51.0,114.0,1.0,79.0,-3.0,-863.0,-215.0,438.0
-224.0,-54.0,117.0,-1.0,81.0,-2.0,-866.0,-224.0,444.0
-221.0,-54.0,116.0,-2.0,83.0,1.0,-863.0,-225.0,441.0
-220.0,-56.0,113.0,-3.0,85.0,4.0,-862.0,-222.0,436.0
-218.0,-59.0,116.0,-8.0,85.0,4.0,-856.0,-222.0,434.0
-220.0,-54.0,112.0,-13.0,88.0,6.0,-860.0,-225.0,436.0
-215.0,-54.0,115.0,-17.0,91.0,7.0,-858.0,-226.0,434.0
-216.0,-54.0,115.0,-21.0,94.0,6.0,-859.0,-218.0,432.0
-219.0,-56.0,112.0,-22.0,96.0,7.0,-863.0,-216.0,435.0
-220.0,-55.0,112.0,-23.0,97.0,10.0,-863.0,-222.0,433.0
-221.0,-52.0,112.0,-25.0,97.0,12.0,-862.0,-213.0,429.0
-219.0,-52.0,117.0,-26.0,94.0,13.0,-865.0,-215.0,431.0
-220.0,-50.0,118.0,-26.0,91.0,11.0,-864.0,-212.0,428.0
-218.0,-53.0,115.0,-27.0,85.0,10.0,-863.0,-211.0,434.0
-221.0,-52.0,113.0,-26.0,81.0,10.0,-863.0,-215.0,433.0
-219.0,-50.0,114.0,-27.0,80.0,9.0,-861.0,-217.0,433.0
-221.0,-56.0,113.0,-28.0,78.0,8.0,-862.0,-222.0,434.0
-221.0,-56.0,114.0,-32.0,78.0,8.0,-857.0,-227.0,438.0
-219.0,-56.0,116.0,-36.0,79.0,6.0,-863.0,-224.0,440.0
-219.0,-56.0,114.0,-38.0,80.0,5.0,-864.0,-227.0,441.0
-220.0,-56.0,114.0,-39.0,81.0,5.0,-864.0,-230.0,434.0
-218.0,-56.0,114.0,-43.0,82.0,5.0,-861.0,-229.0,431.0
-218.0,-56.0,114.0,-44.0,85.0,4.0,-860.0,-228.0,429.0
-218.0,-56.0,109.0,-45.0,88.0,2.0,-863.0,-226.0,430.0
-219.0,-54.0,113.0,-46.0,91.0,1.0,-859.0,-224.0,429.0
-220.0,-54.0,113.0,-46.0,94.0,1.0,-861.0,-223.0,423.0
-218.0,-52.0,109.0,-45.0,97.0,-1.0,-858.0,-224.0,428.0
-221.0,-56.0,114.0,-44.0,96.0,-2.0,-860.0,-220.0,428.0
-219.0,-55.0,113.0,-45.0,95.0,-2.0,-861.0,-217.0,428.0
-220.0,-55.0,113.0,-47.0,92.0,-3.0,-862.0,-218.0,433.0
-218.0,-54.0,114.0,-47.0,89.0,-3.0,-862.0,-222.0,435.0
-218.0,-54.0,115.0,-51.0,88.0,-2.0,-862.0,-216.0,432.0
-220.0,-54.0,114.0,-55.0,85.0,-2.0,-856.0,-218.0,435.0
-219.0,-54.0,113.0,-59.0,82.0,0.0,-858.0,-217.0,429.0
-220.0,-54.0,113.0,-64.0,79.0,0.0,-857.0,-223.0,429.0
-218.0,-55.0,115.0,-70.0,73.0,0.0,-858.0,-222.0,429.0
-218.0,-56.0,115.0,-73.0,71.0,-1.0,-854.0,-224.0,431.0
-218.0,-56.0,114.0,-76.0,71.0,-3.0,-852.0,-229.0,429.0
-221.0,-55.0,113.0,-78.0,74.0,-4.0,-854.0,-227.0,433.0
-219.0,-56.0,110.0,-81.0,78.0,-2.0,-856.0,-232.0,431.0
-220.0,-55.0,116.0,-81.0,81.0,-2.0,-856.0,-230.0,431.0
-221.0,-55.0,114.0,-81.0,84.0,-2.0,-858.0,-228.0,433.0
-217.0,-54.0,114.0,-80.0,87.0,-1.0,-858.0,-227.0,432.0
-218.0,-55.0,116.0,-80.0,90.0,3.0,-855.0,-229.0,432.0
-219.0,-57.0,115.0,-78.0,93.0,6.0,-851.0,-226.0,432.0
-220.0,-53.0,114.0,-75.0,96.0,9.0,-858.0,-224.0,432.0
-215.0,-54.0,119.0,-72.0,98.0,13.0,-861.0,-223.0,433.0
-220.0,-52.0,115.0,-68.0,97.0,13.0,-861.0,-228.0,433.0
-219.0,-57.0,115.0,-62.0,96.0,15.0,-861.0,-224.0,438.0
-217.0,-53.0,113.0,-57.0,95.0,13.0,-864.0,-229.0,438.0
-218.0,-57.0,115.0,-53.0,94.0,11.0,-860.0,-232.0,429.0
-220.0,-56.0,112.0,-49.0,94.0,10.0,-858.0,-229.0,432.0
-218.0,-56.0,113.0,-47.0,96.0,7.0,-855.0,-228.0,427.0
-217.0,-57.0,114.0,-46.0,99.0,6.0,-857.0,-229.0,432.0
-218.0,-56.0,111.0,-48.0,103.0,6.0,-855.0,-229.0,422.0
-216.0,-60.0,114.0,-47.0,108.0,4.0,-857.0,-228.0,425.0
-219.0,-55.0,115.0,-48.0,115.0,7.0,-857.0,-232.0,428.0
-220.0,-56.0,111.0,-48.0,124.0,8.0,-854.0,-226.0,419.0
-217.0,-57.0,114.0,-46.0,130.0,10.0,-857.0,-232.0,424.0
-222.0,-55.0,112.0,-40.0,137.0,12.0,-861.0,-232.0,433.0
-223.0,-56.0,110.0,-33.0,144.0,13.0,-862.0,-232.0,425.0
-222.0,-55.0,111.0,-27.0,152.0,16.0,-868.0,-228.0,425.0
-222.0,-58.0,109.0,-25.0,157.0,15.0,-868.0,-233.0,422.0
-222.0,-55.0,115.0,-20.0,162.0,9.0,-873.0,-234.0,423.0
-220.0,-57.0,112.0,-15.0,165.0,3.0,-868.0,-237.0,428.0
-224.0,-58.0,117.0,-6.0,169.0,0.0,-870.0,-234.0,429.0
-219.0,-58.0,116.0,0.0,171.0,-3.0,-868.0,-231.0,431.0
-222.0,-57.0,115.0,5.0,175.0,-3.0,-869.0,-241.0,436.0
-224.0,-58.0,121.0,9.0,180.0,-4.0,-870.0,-243.0,442.0
-218.0,-58.0,125.0,14.0,187.0,-5.0,-863.0,-251.0,453.0
-215.0,-65.0,119.0,24.0,207.0,-2.0,-862.0,-268.0,455.0
-217.0,-70.0,120.0,37.0,245.0,1.0,-854.0,-281.0,448.0
-222.0,-68.0,113.0,53.0,299.0,4.0,-857.0,-294.0,433.0
-218.0,-76.0,110.0,74.0,353.0,1.0,-863.0,-304.0,426.0
-221.0,-77.0,106.0,91.0,397.0,-8.0,-869.0,-308.0,410.0
-222.0,-71.0,98.0,91.0,432.0,-17.0,-874.0,-300.0,376.0
-234.0,-66.0,98.0,75.0,466.0,-17.0,-946.0,-278.0,354.0
-218.0,-67.0,93.0,43.0,516.0,21.0,-868.0,-285.0,339.0
-223.0,-63.0,89.0,5.0,565.0,31.0,-878.0,-258.0,346.0
-216.0,-61.0,96.0,-25.0,607.0,45.0,-840.0,-252.0,353.0
-212.0,-59.0,95.0,-36.0,624.0,34.0,-829.0,-242.0,357.0
-206.0,-58.0,97.0,-26.0,617.0,0.0,-804.0,-241.0,361.0
-213.0,-56.0,101.0,0.0,584.0,-46.0,-831.0,-220.0,360.0
-223.0,-53.0,98.0,36.0,544.0,-70.0,-865.0,-208.0,359.0
-230.0,-51.0,98.0,71.0,504.0,-72.0,-891.0,-197.0,362.0
-232.0,-46.0,104.0,104.0,466.0,-68.0,-905.0,-185.0,379.0
-240.0,-40.0,102.0,137.0,427.0,-66.0,-915.0,-180.0,378.0
-240.0,-43.0,100.0,162.0,390.0,-63.0,-927.0,-175.0,379.0
-241.0,-41.0,100.0,173.0,354.0,-58.0,-933.0,-171.0,372.0
-243.0,-38.0,96.0,166.0,321.0,-52.0,-938.0,-177.0,358.0
-242.0,-37.0,99.0,136.0,291.0,-42.0,-930.0,-172.0,352.0
-235.0,-41.0,92.0,90.0,268.0,-32.0,-921.0,-181.0,360.0
-233.0,-43.0,100.0,40.0,255.0,-22.0,-906.0,-186.0,366.0
-227.0,-46.0,102.0,-4.0,257.0,-12.0,-888.0,-196.0,379.0
-223.0,-51.0,103.0,-31.0,265.0,-2.0,-877.0,-204.0,394.0
-222.0,-54.0,107.0,-47.0,280.0,10.0,-872.0,-211.0,394.0
-221.0,-56.0,106.0,-55.0,299.0,22.0,-867.0,-229.0,403.0
-221.0,-55.0,106.0,-58.0,320.0,32.0,-864.0,-223.0,397.0
-220.0,-58.0,108.0,-64.0,334.0,41.0,-869.0,-229.0,395.0
-227.0,-57.0,106.0,-71.0,341.0,49.0,-879.0,-232.0,393.0
-227.0,-57.0,108.0,-76.0,346.0,57.0,-879.0,-235.0,398.0
-228.0,-61.0,112.0,-76.0,347.0,65.0,-890.0,-240.0,399.0
-230.0,-63.0,104.0,-76.0,351.0,76.0,-891.0,-244.0,401.0
-230.0,-60.0,104.0,-77.0,355.0,82.0,-891.0,-244.0,391.0
-230.0,-59.0,103.0,-82.0,350.0,92.0,-891.0,-241.0,377.0
-226.0,-56.0,99.0,-95.0,329.0,99.0,-885.0,-238.0,366.0
-227.0,-54.0,96.0,-115.0,300.0,107.0,-884.0,-231.0,356.0
-226.0,-55.0,97.0,-134.0,270.0,113.0,-881.0,-224.0,346.0
-227.0,-53.0,96.0,-146.0,252.0,120.0,-880.0,-213.0,345.0
-226.0,-50.0,89.0,-142.0,243.0,123.0,-880.0,-204.0,344.0
-223.0,-49.0,92.0,-124.0,238.0,120.0,-885.0,-197.0,346.0
-229.0,-46.0,98.0,-97.0,234.0,109.0,-887.0,-185.0,353.0
-228.0,-43.0,95.0,-67.0,219.0,91.0,-891.0,-170.0,351.0
-233.0,-46.0,103.0,-49.0,197.0,71.0,-904.0,-166.0,348.0
-234.0,-37.0,92.0,-48.0,168.0,51.0,-914.0,-162.0,342.0
-235.0,-41.0,95.0,-63.0,138.0,33.0,-920.0,-164.0,340.0
-238.0,-42.0,93.0,-88.0,121.0,18.0,-927.0,-179.0,341.0
-238.0,-47.0,93.0,-120.0,119.0,9.0,-929.0,-195.0,342.0
-238.0,-53.0,97.0,-145.0,127.0,6.0,-933.0,-217.0,352.0
-241.0,-55.0,101.0,-161.0,135.0,0.0,-928.0,-230.0,368.0
-237.0,-62.0,105.0,-165.0,135.0,-4.0,-925.0,-245.0,393.0
-237.0,-63.0,111.0,-163.0,126.0,-7.0,-923.0,-255.0,403.0
-234.0,-67.0,108.0,-157.0,112.0,-8.0,-913.0,-261.0,405.0
-231.0,-64.0,108.0,-152.0,107.0,-7.0,-903.0,-260.0,397.0
-229.0,-60.0,101.0,-155.0,112.0,-1.0,-890.0,-260.0,377.0
-227.0,-59.0,100.0,-166.0,124.0,5.0,-882.0,-238.0,369.0
-227.0,-54.0,94.0,-182.0,136.0,12.0,-882.0,-231.0,359.0
-226.0,-49.0,95.0,-199.0,145.0,20.0,-879.0,-219.0,353.0
-222.0,-51.0,94.0,-223.0,146.0,29.0,-872.0,-215.0,348.0
-224.0,-49.0,98.0,-245.0,145.0,34.0,-871.0,-206.0,356.0
-219.0,-49.0,103.0,-266.0,131.0,41.0,-869.0,-200.0,368.0
-220.0,-47.0,105.0,-280.0,111.0,46.0,-873.0,-196.0,393.0
-220.0,-48.0,111.0,-286.0,87.0,49.0,-862.0,-197.0,411.0
-221.0,-46.0,115.0,-285.0,66.0,55.0,-857.0,-192.0,430.0
-219.0,-46.0,119.0,-277.0,58.0,65.0,-864.0,-187.0,451.0
-229.0,-50.0,121.0,-267.0,53.0,76.0,-867.0,-173.0,460.0
-224.0,-37.0,118.0,-263.0,51.0,89.0,-880.0,-155.0,453.0
-229.0,-28.0,118.0,-272.0,45.0,98.0,-894.0,-138.0,446.0
-236.0,-29.0,119.0,-292.0,37.0,104.0,-913.0,-130.0,440.0
-238.0,-26.0,112.0,-319.0,36.0,105.0,-926.0,-116.0,423.0
-240.0,-23.0,106.0,-354.0,43.0,106.0,-937.0,-118.0,403.0
-240.0,-28.0,97.0,-393.0,63.0,103.0,-940.0,-128.0,374.0
-238.0,-34.0,91.0,-430.0,89.0,96.0,-938.0,-142.0,343.0
-244.0,-34.0,90.0,-459.0,110.0,81.0,-940.0,-174.0,331.0
-239.0,-45.0,94.0,-469.0,122.0,62.0,-936.0,-185.0,336.0
-234.0,-50.0,94.0,-458.0,127.0,38.0,-923.0,-205.0,337.0
-234.0,-55.0,96.0,-431.0,124.0,12.0,-917.0,-215.0,346.0
-232.0,-58.0,91.0,-390.0,126.0,-10.0,-911.0,-223.0,340.0
-228.0,-54.0,86.0,-341.0,139.0,-24.0,-896.0,-209.0,329.0
-227.0,-50.0,87.0,-292.0,164.0,-33.0,-891.0,-195.0,316.0
-226.0,-42.0,84.0,-257.0,199.0,-37.0,-895.0,-162.0,314.0
-226.0,-32.0,89.0,-235.0,235.0,-35.0,-895.0,-130.0,313.0
-226.0,-20.0,87.0,-229.0,270.0,-25.0,-895.0,-98.0,323.0
-224.0,-15.0,89.0,-224.0,307.0,-13.0,-888.0,-67.0,332.0
-220.0,-11.0,93.0,-208.0,347.0,4.0,-880.0,-55.0,334.0
-218.0,-12.0,97.0,-185.0,395.0,25.0,-865.0,-55.0,345.0
-214.0,-16.0,99.0,-159.0,446.0,45.0,-855.0,-62.0,364.0
-212.0,-22.0,99.0,-132.0,487.0,58.0,-846.0,-83.0,373.0
-211.0,-29.0,105.0,-116.0,513.0,67.0,-831.0,-117.0,377.0
-211.0,-35.0,103.0,-118.0,532.0,73.0,-826.0,-152.0,378.0
-206.0,-41.0,101.0,-139.0,555.0,77.0,-811.0,-173.0,374.0
-201.0,-49.0,97.0,-174.0,590.0,82.0,-787.0,-205.0,346.0
-195.0,-58.0,93.0,-215.0,632.0,79.0,-762.0,-230.0,342.0
-193.0,-68.0,90.0,-240.0,676.0,72.0,-758.0,-264.0,331.0
-191.0,-68.0,87.0,-236.0,717.0,60.0,-753.0,-278.0,316.0
-194.0,-68.0,88.0,-208.0,766.0,50.0,-758.0,-264.0,309.0
-196.0,-60.0,83.0,-159.0,833.0,50.0,-780.0,-238.0,290.0
-202.0,-53.0,81.0,-109.0,919.0,64.0,-811.0,-205.0,295.0
-214.0,-42.0,82.0,-74.0,1015.0,90.0,-847.0,-173.0,302.0
-223.0,-31.0,90.0,-66.0,1104.0,124.0,-883.0,-125.0,321.0
-232.0,-19.0,95.0,-83.0,1166.0,164.0,-911.0,-87.0,343.0
-241.0,-7.0,92.0,-118.0,1183.0,197.0,-938.0,-52.0,345.0
-247.0,-2.0,86.0,-152.0,1155.0,206.0,-950.0,-27.0,318.0
-246.0,-4.0,77.0,-165.0,1095.0,187.0,-957.0,-20.0,287.0
-246.0,-3.0,71.0,-144.0,1036.0,139.0,-967.0,-23.0,268.0
-249.0,-9.0,69.0,-82.0,1007.0,73.0,-968.0,-35.0,253.0
-245.0,-16.0,73.0,8.0,1023.0,5.0,-976.0,-51.0,252.0
-252.0,-17.0,74.0,97.0,1074.0,-51.0,-995.0,-69.0,267.0
-256.0,-22.0,78.0,162.0,1142.0,-92.0,-1005.0,-81.0,297.0
-259.0,-20.0,85.0,191.0,1210.0,-116.0,-1038.0,-100.0,315.0
-266.0,-23.0,94.0,192.0,1255.0,-129.0,-1043.0,-105.0,350.0
-270.0,-23.0,106.0,169.0,1261.0,-133.0,-1058.0,-110.0,382.0
-275.0,-20.0,106.0,135.0,1239.0,-128.0,-1065.0,-104.0,399.0
-279.0,-20.0,110.0,93.0,1192.0,-130.0,-1079.0,-105.0,399.0
-277.0,-20.0,107.0,44.0,1136.0,-139.0,-1085.0,-98.0,393.0
-276.0,-20.0,104.0,5.0,1086.0,-167.0,-1086.0,-104.0,390.0
-276.0,-26.0,98.0,-13.0,1043.0,-208.0,-1078.0,-109.0,353.0
-274.0,-26.0,88.0,-17.0,1001.0,-253.0,-1074.0,-127.0,314.0
-267.0,-31.0,76.0,-8.0,958.0,-303.0,-1051.0,-134.0,277.0
-258.0,-34.0,64.0,8.0,919.0,-349.0,-1008.0,-152.0,227.0
-248.0,-48.0,52.0,40.0,902.0,-396.0,-977.0,-181.0,172.0
-243.0,-56.0,38.0,98.0,902.0,-434.0,-948.0,-211.0,123.0
-233.0,-63.0,33.0,171.0,908.0,-463.0,-911.0,-248.0,96.0
-226.0,-78.0,30.0,250.0,927.0,-484.0,-887.0,-289.0,94.0
-218.0,-86.0,37.0,333.0,975.0,-504.0,-864.0,-327.0,106.0
-210.0,-85.0,45.0,402.0,1044.0,-523.0,-838.0,-345.0,129.0
-225.0,-82.0,49.0,441.0,1103.0,-552.0,-872.0,-327.0,161.0
-239.0,-69.0,38.0,436.0,1133.0,-542.0,-935.0,-303.0,133.0
-249.0,-59.0,39.0,359.0,1148.0,-495.0,-972.0,-256.0,122.0
-260.0,-52.0,33.0,262.0,1152.0,-454.0,-1024.0,-214.0,95.0
-256.0,-44.0,13.0,183.0,1164.0,-420.0,-1040.0,-186.0,36.0
-264.0,-38.0,8.0,122.0,1183.0,-404.0,-1046.0,-158.0,12.0
-261.0,-36.0,6.0,97.0,1195.0,-417.0,-1041.0,-143.0,-3.0
-260.0,-37.0,7.0,124.0,1191.0,-448.0,-1025.0,-137.0,-6.0
-256.0,-38.0,1.0,197.0,1176.0,-480.0,-1007.0,-145.0,-24.0
-252.0,-44.0,-3.0,290.0,1177.0,-504.0,-996.0,-169.0,-45.0
-249.0,-52.0,-5.0,383.0,1216.0,-515.0,-979.0,-199.0,-58.0
-245.0,-65.0,-10.0,461.0,1285.0,-523.0,-956.0,-244.0,-57.0
-241.0,-77.0,-9.0,502.0,1372.0,-533.0,-945.0,-307.0,-64.0
-240.0,-80.0,-14.0,503.0,1452.0,-548.0,-936.0,-335.0,-58.0
-243.0,-94.0,-7.0,472.0,1496.0,-564.0,-940.0,-379.0,-62.0
-245.0,-101.0,-17.0,420.0,1513.0,-592.0,-944.0,-412.0,-80.0
-247.0,-100.0,-22.0,361.0,1523.0,-638.0,-948.0,-406.0,-102.0
-247.0,-100.0,-23.0,301.0,1533.0,-682.0,-950.0,-402.0,-129.0
-245.0,-103.0,-26.0,249.0,1555.0,-719.0,-951.0,-414.0,-151.0
-245.0,-101.0,-27.0,216.0,1590.0,-752.0,-954.0,-398.0,-130.0
-242.0,-99.0,-26.0,208.0,1622.0,-782.0,-938.0,-384.0,-129.0
-246.0,-93.0,-20.0,216.0,1632.0,-809.0,-942.0,-366.0,-118.0
-243.0,-81.0,-21.0,227.0,1618.0,-831.0,-949.0,-332.0,-120.0
-250.0,-73.0,-20.0,232.0,1600.0,-851.0,-972.0,-297.0,-107.0
-254.0,-70.0,-18.0,240.0,1585.0,-872.0,-996.0,-282.0,-83.0
-258.0,-71.0,-9.0,268.0,1572.0,-889.0,-1025.0,-286.0,-75.0
-265.0,-79.0,-17.0,312.0,1559.0,-914.0,-1046.0,-305.0,-99.0
-273.0,-78.0,-15.0,342.0,1548.0,-965.0,-1062.0,-316.0,-86.0
-301.0,-78.0,-9.0,347.0,1520.0,-1040.0,-1170.0,-320.0,-62.0
-304.0,-89.0,-3.0,346.0,1476.0,-1088.0,-1188.0,-351.0,-37.0
-302.0,-94.0,-8.0,343.0,1418.0,-1127.0,-1174.0,-383.0,-43.0
-290.0,-102.0,-13.0,330.0,1359.0,-1168.0,-1136.0,-396.0,-65.0
-277.0,-108.0,-10.0,315.0,1311.0,-1200.0,-1087.0,-418.0,-65.0
-265.0,-111.0,-4.0,312.0,1264.0,-1213.0,-1024.0,-424.0,-57.0
-248.0,-112.0,-7.0,327.0,1209.0,-1208.0,-936.0,-436.0,-47.0
-237.0,-109.0,-3.0,349.0,1131.0,-1188.0,-889.0,-423.0,-42.0
-224.0,-102.0,-5.0,360.0,1028.0,-1169.0,-840.0,-395.0,-47.0
-199.0,-92.0,-13.0,348.0,905.0,-1190.0,-767.0,-360.0,-77.0
-232.0,-71.0,-14.0,303.0,800.0,-1266.0,-889.0,-298.0,-86.0
-252.0,-64.0,-24.0,262.0,742.0,-1307.0,-975.0,-278.0,-120.0
-279.0,-59.0,-35.0,234.0,722.0,-1322.0,-1054.0,-255.0,-159.0
-282.0,-61.0,-36.0,216.0,713.0,-1339.0,-1098.0,-249.0,-183.0
-275.0,-64.0,-38.0,217.0,691.0,-1373.0,-1085.0,-257.0,-186.0
-282.0,-60.0,-31.0,226.0,642.0,-1446.0,-1080.0,-247.0,-176.0
-288.0,-57.0,-28.0,247.0,588.0,-1516.0,-1149.0,-225.0,-136.0
-272.0,-58.0,-26.0,275.0,538.0,-1544.0,-1063.0,-244.0,-128.0
-253.0,-63.0,-30.0,290.0,480.0,-1577.0,-982.0,-264.0,-142.0
-236.0,-75.0,-37.0,271.0,424.0,-1617.0,-929.0,-288.0,-152.0
-226.0,-80.0,-31.0,234.0,378.0,-1656.0,-883.0,-327.0,-147.0
-214.0,-97.0,-31.0,197.0,339.0,-1685.0,-841.0,-378.0,-153.0
-207.0,-112.0,-29.0,169.0,295.0,-1709.0,-805.0,-435.0,-165.0
-199.0,-124.0,-35.0,152.0,260.0,-1725.0,-779.0,-487.0,-174.0
-201.0,-135.0,-35.0,146.0,231.0,-1738.0,-774.0,-516.0,-184.0
-207.0,-135.0,-44.0,152.0,216.0,-1749.0,-799.0,-527.0,-202.0
-211.0,-138.0,-44.0,170.0,215.0,-1761.0,-820.0,-531.0,-218.0
-212.0,-134.0,-50.0,200.0,219.0,-1778.0,-832.0,-515.0,-232.0
-218.0,-123.0,-51.0,231.0,210.0,-1788.0,-836.0,-494.0,-243.0
-215.0,-115.0,-56.0,240.0,192.0,-1802.0,-829.0,-469.0,-255.0
-216.0,-112.0,-52.0,222.0,165.0,-1848.0,-854.0,-425.0,-257.0
-227.0,-106.0,-50.0,195.0,157.0,-1906.0,-898.0,-404.0,-224.0
-231.0,-101.0,-45.0,190.0,175.0,-1904.0,-901.0,-406.0,-201.0
-210.0,-115.0,-44.0,202.0,209.0,-1888.0,-825.0,-446.0,-202.0
-198.0,-126.0,-44.0,210.0,241.0,-1913.0,-773.0,-490.0,-206.0
-192.0,-136.0,-47.0,213.0,276.0,-1964.0,-747.0,-532.0,-211.0
-185.0,-147.0,-48.0,212.0,312.0,-2010.0,-714.0,-585.0,-217.0
-174.0,-162.0,-50.0,206.0,345.0,-2036.0,-688.0,-638.0,-234.0
-166.0,-182.0,-55.0,196.0,364.0,-2045.0,-645.0,-701.0,-247.0
-158.0,-189.0,-63.0,185.0,371.0,-2048.0,-596.0,-746.0,-278.0
-150.0,-204.0,-69.0,173.0,367.0,-2057.0,-570.0,-784.0,-308.0
-145.0,-203.0,-70.0,163.0,357.0,-2066.0,-547.0,-803.0,-327.0
-139.0,-209.0,-70.0,154.0,340.0,-2071.0,-528.0,-814.0,-327.0
-146.0,-210.0,-64.0,150.0,316.0,-2073.0,-545.0,-823.0,-293.0
-154.0,-214.0,-57.0,171.0,285.0,-2055.0,-569.0,-833.0,-266.0
-162.0,-219.0,-55.0,209.0,249.0,-2030.0,-604.0,-844.0,-252.0
-179.0,-213.0,-48.0,245.0,211.0,-2010.0,-668.0,-842.0,-240.0
-193.0,-208.0,-47.0,275.0,169.0,-1970.0,-717.0,-824.0,-215.0
-193.0,-209.0,-44.0,302.0,125.0,-1906.0,-751.0,-813.0,-199.0
-190.0,-204.0,-41.0,322.0,73.0,-1844.0,-717.0,-802.0,-191.0
-183.0,-198.0,-55.0,332.0,17.0,-1801.0,-696.0,-776.0,-248.0
-175.0,-198.0,-37.0,321.0,-37.0,-1764.0,-670.0,-770.0,-196.0
-168.0,-195.0,-42.0,309.0,-98.0,-1728.0,-625.0,-772.0,-217.0
-161.0,-190.0,-51.0,291.0,-187.0,-1695.0,-584.0,-766.0,-233.0
-144.0,-193.0,-54.0,272.0,-295.0,-1666.0,-539.0,-770.0,-251.0
-133.0,-196.0,-63.0,252.0,-404.0,-1643.0,-497.0,-764.0,-278.0
-125.0,-195.0,-71.0,229.0,-503.0,-1629.0,-454.0,-781.0,-311.0
-113.0,-200.0,-73.0,198.0,-576.0,-1617.0,-419.0,-793.0,-324.0
-103.0,-210.0,-77.0,168.0,-628.0,-1604.0,-383.0,-810.0,-333.0
-100.0,-209.0,-78.0,135.0,-664.0,-1589.0,-356.0,-824.0,-332.0
-95.0,-209.0,-76.0,96.0,-688.0,-1566.0,-349.0,-837.0,-333.0
-94.0,-218.0,-69.0,51.0,-714.0,-1535.0,-340.0,-848.0,-326.0
-89.0,-219.0,-67.0,-1.0,-751.0,-1505.0,-326.0,-855.0,-314.0
-92.0,-221.0,-66.0,-49.0,-795.0,-1480.0,-325.0,-866.0,-308.0
-91.0,-221.0,-65.0,-85.0,-836.0,-1459.0,-323.0,-871.0,-304.0
-94.0,-225.0,-69.0,-126.0,-869.0,-1446.0,-332.0,-882.0,-291.0
-92.0,-226.0,-65.0,-160.0,-891.0,-1436.0,-337.0,-889.0,-290.0
-93.0,-230.0,-65.0,-193.0,-901.0,-1426.0,-350.0,-894.0,-288.0
-97.0,-230.0,-62.0,-228.0,-901.0,-1412.0,-363.0,-906.0,-288.0
-101.0,-235.0,-62.0,-264.0,-892.0,-1395.0,-374.0,-913.0,-275.0
-104.0,-242.0,-58.0,-301.0,-877.0,-1380.0,-379.0,-934.0,-266.0
-101.0,-246.0,-58.0,-339.0,-861.0,-1365.0,-370.0,-964.0,-257.0
-98.0,-249.0,-54.0,-382.0,-845.0,-1356.0,-356.0,-979.0,-243.0
-91.0,-253.0,-48.0,-424.0,-842.0,-1351.0,-342.0,-990.0,-236.0
-92.0,-251.0,-53.0,-463.0,-859.0,-1341.0,-322.0,-991.0,-244.0
-85.0,-250.0,-49.0,-501.0,-894.0,-1327.0,-306.0,-996.0,-248.0
-83.0,-250.0,-49.0,-534.0,-941.0,-1310.0,-287.0,-978.0,-246.0
-77.0,-250.0,-50.0,-550.0,-993.0,-1280.0,-279.0,-962.0,-246.0
-77.0,-247.0,-48.0,-549.0,-1042.0,-1241.0,-275.0,-946.0,-224.0
-79.0,-247.0,-43.0,-519.0,-1080.0,-1191.0,-277.0,-939.0,-210.0
-80.0,-245.0,-37.0,-469.0,-1102.0,-1133.0,-286.0,-933.0,-192.0
-80.0,-243.0,-34.0,-403.0,-1111.0,-1079.0,-292.0,-928.0,-171.0
-85.0,-243.0,-24.0,-332.0,-1110.0,-1031.0,-312.0,-925.0,-148.0
-88.0,-243.0,-25.0,-268.0,-1107.0,-993.0,-312.0,-929.0,-134.0
-84.0,-246.0,-23.0,-221.0,-1103.0,-966.0,-310.0,-933.0,-120.0
-84.0,-240.0,-17.0,-187.0,-1104.0,-949.0,-308.0,-932.0,-106.0
-82.0,-241.0,-17.0,-173.0,-1106.0,-942.0,-290.0,-929.0,-100.0
-76.0,-241.0,-18.0,-178.0,-1109.0,-940.0,-270.0,-935.0,-101.0
-75.0,-238.0,-22.0,-198.0,-1117.0,-942.0,-258.0,-924.0,-115.0
-75.0,-238.0,-19.0,-231.0,-1126.0,-944.0,-262.0,-920.0,-109.0
-72.0,-244.0,-16.0,-265.0,-1139.0,-938.0,-265.0,-928.0,-99.0
-82.0,-245.0,-15.0,-285.0,-1158.0,-924.0,-276.0,-941.0,-80.0
-77.0,-255.0,-9.0,-285.0,-1178.0,-904.0,-293.0,-956.0,-58.0
-86.0,-251.0,-5.0,-265.0,-1200.0,-882.0,-312.0,-973.0,-47.0
-87.0,-252.0,-4.0,-238.0,-1219.0,-858.0,-324.0,-979.0,-47.0
-88.0,-251.0,-5.0,-208.0,-1228.0,-835.0,-325.0,-982.0,-37.0
-88.0,-252.0,-2.0,-185.0,-1233.0,-816.0,-322.0,-974.0,-36.0
-85.0,-249.0,-4.0,-173.0,-1235.0,-800.0,-308.0,-969.0,-42.0
-78.0,-248.0,-7.0,-178.0,-1238.0,-791.0,-285.0,-967.0,-48.0
-73.0,-246.0,-8.0,-195.0,-1239.0,-792.0,-257.0,-959.0,-60.0
-63.0,-244.0,-7.0,-217.0,-1230.0,-801.0,-233.0,-947.0,-56.0
-60.0,-242.0,-4.0,-240.0,-1213.0,-816.0,-207.0,-940.0,-58.0
-51.0,-243.0,-10.0,-262.0,-1184.0,-828.0,-186.0,-930.0,-60.0
-49.0,-244.0,-3.0,-280.0,-1150.0,-839.0,-166.0,-931.0,-45.0
-47.0,-243.0,4.0,-285.0,-1119.0,-843.0,-153.0,-935.0,-20.0
-47.0,-243.0,7.0,-274.0,-1093.0,-844.0,-160.0,-943.0,-12.0
-47.0,-247.0,9.0,-245.0,-1070.0,-841.0,-163.0,-941.0,5.0
-54.0,-244.0,10.0,-203.0,-1048.0,-837.0,-182.0,-943.0,8.0
-55.0,-243.0,10.0,-159.0,-1028.0,-836.0,-196.0,-941.0,14.0
-61.0,-245.0,10.0,-117.0,-1007.0,-836.0,-204.0,-940.0,14.0
-63.0,-245.0,14.0,-84.0,-981.0,-841.0,-217.0,-933.0,16.0
-62.0,-243.0,14.0,-60.0,-950.0,-852.0,-223.0,-942.0,23.0
-65.0,-246.0,15.0,-43.0,-919.0,-868.0,-230.0,-946.0,31.0
-66.0,-245.0,18.0,-30.0,-892.0,-888.0,-233.0,-947.0,38.0
-64.0,-247.0,17.0,-22.0,-875.0,-908.0,-227.0,-950.0,41.0
-64.0,-249.0,17.0,-10.0,-861.0,-927.0,-227.0,-958.0,42.0
-64.0,-248.0,18.0,3.0,-850.0,-944.0,-220.0,-963.0,47.0
-59.0,-250.0,23.0,17.0,-837.0,-956.0,-212.0,-966.0,46.0
-57.0,-247.0,19.0,32.0,-825.0,-961.0,-193.0,-962.0,53.0
-51.0,-251.0,23.0,52.0,-810.0,-961.0,-177.0,-970.0,66.0
-44.0,-256.0,29.0,77.0,-791.0,-957.0,-147.0,-980.0,83.0
-37.0,-256.0,33.0,107.0,-769.0,-952.0,-128.0,-994.0,96.0
-32.0,-259.0,40.0,140.0,-742.0,-944.0,-108.0,-1013.0,110.0
-31.0,-263.0,40.0,177.0,-710.0,-932.0,-93.0,-1018.0,116.0
-27.0,-268.0,38.0,214.0,-673.0,-921.0,-84.0,-1033.0,123.0
-26.0,-272.0,37.0,249.0,-626.0,-909.0,-71.0,-1055.0,121.0
-23.0,-273.0,40.0,279.0,-575.0,-895.0,-68.0,-1063.0,120.0
-23.0,-275.0,38.0,301.0,-519.0,-876.0,-69.0,-1073.0,118.0
-24.0,-272.0,36.0,314.0,-457.0,-849.0,-75.0,-1070.0,110.0
-25.0,-276.0,35.0,320.0,-392.0,-817.0,-76.0,-1061.0,97.0
-22.0,-272.0,33.0,321.0,-326.0,-780.0,-74.0,-1058.0,90.0
-21.0,-266.0,30.0,318.0,-263.0,-742.0,-76.0,-1050.0,82.0
-22.0,-265.0,23.0,310.0,-203.0,-705.0,-65.0,-1031.0,68.0
-24.0,-262.0,24.0,302.0,-149.0,-666.0,-64.0,-1020.0,66.0
-19.0,-259.0,20.0,300.0,-98.0,-630.0,-60.0,-1014.0,61.0
-20.0,-258.0,26.0,303.0,-53.0,-596.0,-57.0,-1004.0,69.0
-19.0,-257.0,25.0,313.0,-12.0,-563.0,-50.0,-982.0,67.0
-15.0,-254.0,26.0,325.0,31.0,-532.0,-42.0,-977.0,65.0
-16.0,-250.0,25.0,341.0,74.0,-506.0,-37.0,-977.0,67.0
-15.0,-249.0,27.0,353.0,123.0,-480.0,-30.0,-967.0,64.0
-11.0,-248.0,26.0,359.0,169.0,-455.0,-23.0,-974.0,67.0
-10.0,-248.0,28.0,357.0,215.0,-433.0,-17.0,-972.0,60.0
-8.0,-253.0,21.0,347.0,260.0,-414.0,-8.0,-971.0,59.0
-4.0,-252.0,19.0,329.0,300.0,-397.0,-5.0,-979.0,51.0
-5.0,-251.0,20.0,302.0,338.0,-385.0,4.0,-974.0,47.0
-2.0,-254.0,19.0,269.0,368.0,-373.0,5.0,-980.0,43.0
2.0,-256.0,17.0,234.0,396.0,-366.0,8.0,-996.0,38.0
-7.0,-256.0,16.0,203.0,420.0,-361.0,2.0,-998.0,32.0
-8.0,-257.0,14.0,179.0,440.0,-358.0,0.0,-1003.0,29.0
-6.0,-260.0,14.0,160.0,457.0,-355.0,-7.0,-1016.0,24.0
-9.0,-260.0,10.0,147.0,473.0,-355.0,-14.0,-1022.0,16.0
-10.0,-263.0,8.0,139.0,487.0,-359.0,-18.0,-1028.0,11.0
-12.0,-265.0,11.0,133.0,504.0,-365.0,-13.0,-1040.0,0.0
-9.0,-270.0,7.0,130.0,522.0,-372.0,-8.0,-1046.0,1.0
-8.0,-268.0,6.0,132.0,541.0,-384.0,1.0,-1048.0,1.0
-5.0,-267.0,7.0,130.0,557.0,-394.0,15.0,-1051.0,-2.0
-4.0,-269.0,1.0,128.0,563.0,-402.0,25.0,-1045.0,3.0
1.0,-270.0,2.0,125.0,564.0,-409.0,37.0,-1051.0,-6.0
1.0,-272.0,6.0,122.0,561.0,-414.0,43.0,-1040.0,-1.0
3.0,-268.0,3.0,119.0,555.0,-414.0,59.0,-1043.0,-8.0
5.0,-268.0,4.0,116.0,553.0,-409.0,70.0,-1042.0,-16.0
8.0,-267.0,5.0,108.0,551.0,-404.0,84.0,-1041.0,-15.0
14.0,-268.0,4.0,101.0,555.0,-394.0,87.0,-1044.0,-17.0
15.0,-272.0,1.0,93.0,562.0,-382.0,101.0,-1047.0,-12.0
15.0,-268.0,8.0,88.0,572.0,-371.0,109.0,-1045.0,-15.0
18.0,-270.0,3.0,81.0,584.0,-358.0,117.0,-1046.0,-12.0
20.0,-269.0,4.0,72.0,593.0,-350.0,118.0,-1047.0,-6.0
25.0,-268.0,2.0,58.0,596.0,-343.0,130.0,-1041.0,-11.0
32.0,-264.0,8.0,42.0,594.0,-338.0,137.0,-1032.0,-12.0
27.0,-263.0,4.0,17.0,590.0,-336.0,141.0,-1024.0,-18.0
28.0,-259.0,0.0,-8.0,586.0,-337.0,146.0,-1016.0,-20.0
27.0,-260.0,-2.0,-35.0,585.0,-343.0,144.0,-1012.0,-23.0
31.0,-258.0,-1.0,-57.0,593.0,-349.0,143.0,-997.0,-47.0
24.0,-254.0,0.0,-79.0,608.0,-357.0,130.0,-976.0,-22.0
22.0,-252.0,-3.0,-86.0,621.0,-364.0,125.0,-968.0,-21.0
17.0,-249.0,2.0,-83.0,631.0,-370.0,107.0,-960.0,-22.0
9.0,-248.0,-1.0,-79.0,637.0,-373.0,88.0,-956.0,-30.0
8.0,-246.0,-4.0,-79.0,637.0,-375.0,75.0,-950.0,-27.0
5.0,-240.0,-5.0,-81.0,632.0,-373.0,58.0,-941.0,-35.0
3.0,-245.0,-7.0,-91.0,625.0,-365.0,49.0,-933.0,-49.0
3.0,-241.0,-6.0,-108.0,617.0,-350.0,43.0,-930.0,-53.0
1.0,-241.0,-4.0,-130.0,611.0,-333.0,44.0,-922.0,-59.0
1.0,-241.0,-8.0,-155.0,602.0,-321.0,39.0,-925.0,-60.0
4.0,-241.0,-9.0,-182.0,593.0,-305.0,47.0,-925.0,-64.0
2.0,-241.0,-12.0,-211.0,579.0,-292.0,53.0,-923.0,-72.0
6.0,-241.0,-13.0,-247.0,562.0,-284.0,53.0,-926.0,-84.0
4.0,-242.0,-14.0,-289.0,546.0,-274.0,51.0,-929.0,-86.0
6.0,-244.0,-15.0,-331.0,532.0,-263.0,57.0,-935.0,-73.0
7.0,-247.0,-9.0,-358.0,518.0,-251.0,65.0,-950.0,-60.0
6.0,-251.0,1.0,-371.0,506.0,-242.0,68.0,-960.0,-47.0
5.0,-254.0,3.0,-365.0,493.0,-235.0,84.0,-975.0,-17.0
15.0,-258.0,9.0,-343.0,482.0,-230.0,94.0,-993.0,6.0
17.0,-260.0,9.0,-304.0,472.0,-229.0,95.0,-996.0,31.0
14.0,-257.0,15.0,-254.0,464.0,-230.0,97.0,-1002.0,40.0
15.0,-259.0,21.0,-199.0,449.0,-233.0,88.0,-1008.0,45.0
6.0,-258.0,21.0,-151.0,429.0,-231.0,82.0,-1005.0,47.0
8.0,-260.0,20.0,-120.0,401.0,-227.0,78.0,-1013.0,40.0
8.0,-264.0,17.0,-108.0,371.0,-221.0,68.0,-1014.0,39.0
6.0,-261.0,14.0,-112.0,347.0,-211.0,65.0,-1019.0,31.0
6.0,-264.0,14.0,-121.0,331.0,-199.0,54.0,-1025.0,33.0
5.0,-267.0,18.0,-127.0,322.0,-188.0,44.0,-1025.0,31.0
1.0,-268.0,14.0,-125.0,324.0,-178.0,37.0,-1039.0,27.0
0.0,-272.0,14.0,-115.0,329.0,-173.0,28.0,-1028.0,22.0
-3.0,-264.0,10.0,-101.0,338.0,-173.0,18.0,-1021.0,21.0
-7.0,-257.0,10.0,-82.0,343.0,-174.0,6.0,-1013.0,17.0
-8.0,-254.0,9.0,-62.0,342.0,-175.0,-6.0,-988.0,16.0
-9.0,-251.0,13.0,-43.0,333.0,-177.0,-7.0,-969.0,15.0
-7.0,-250.0,11.0,-23.0,317.0,-176.0,-12.0,-951.0,15.0
-10.0,-244.0,14.0,-7.0,300.0,-170.0,-14.0,-940.0,16.0
-13.0,-241.0,12.0,4.0,278.0,-157.0,-16.0,-930.0,19.0
-13.0,-243.0,14.0,9.0,249.0,-136.0,-16.0,-926.0,23.0
-13.0,-244.0,19.0,6.0,218.0,-109.0,-18.0,-926.0,35.0
-9.0,-245.0,16.0,-4.0,183.0,-77.0,-13.0,-934.0,36.0
-8.0,-246.0,17.0,-18.0,153.0,-47.0,-1.0,-943.0,38.0
-5.0,-248.0,18.0,-35.0,132.0,-18.0,12.0,-959.0,33.0
-1.0,-249.0,11.0,-55.0,121.0,3.0,23.0,-968.0,21.0
2.0,-251.0,9.0,-79.0,117.0,20.0,32.0,-966.0,13.0
2.0,-251.0,9.0,-105.0,120.0,30.0,39.0,-971.0,0.0
2.0,-251.0,3.0,-134.0,128.0,35.0,41.0,-973.0,-14.0
5.0,-253.0,-2.0,-162.0,135.0,41.0,47.0,-983.0,-24.0
2.0,-255.0,-2.0,-180.0,137.0,44.0,46.0,-993.0,-30.0
2.0,-258.0,-1.0,-189.0,134.0,47.0,52.0,-1007.0,-32.0
2.0,-263.0,6.0,-181.0,123.0,53.0,39.0,-1019.0,-29.0
0.0,-266.0,5.0,-160.0,108.0,64.0,33.0,-1034.0,-18.0
-5.0,-268.0,3.0,-126.0,91.0,79.0,26.0,-1044.0,-15.0
0.0,-271.0,2.0,-84.0,74.0,89.0,12.0,-1049.0,-8.0
-4.0,-273.0,5.0,-39.0,61.0,91.0,4.0,-1039.0,-7.0
-9.0,-270.0,6.0,-3.0,51.0,86.0,-4.0,-1038.0,-13.0
-12.0,-266.0,3.0,24.0,46.0,77.0,-19.0,-1029.0,-16.0
-15.0,-261.0,3.0,41.0,47.0,69.0,-33.0,-1018.0,-17.0
-21.0,-258.0,2.0,49.0,52.0,63.0,-45.0,-1010.0,-18.0
-23.0,-256.0,4.0,49.0,64.0,63.0,-49.0,-1010.0,-12.0
-21.0,-260.0,12.0,39.0,75.0,65.0,-54.0,-1016.0,-8.0
-20.0,-262.0,6.0,23.0,80.0,70.0,-51.0,-1018.0,-3.0
-19.0,-260.0,4.0,6.0,77.0,75.0,-50.0,-1017.0,-8.0
-24.0,-260.0,6.0,-8.0,63.0,77.0,-44.0,-1018.0,-10.0
-20.0,-260.0,1.0,-22.0,38.0,77.0,-44.0,-1020.0,-18.0
-20.0,-261.0,1.0,-29.0,8.0,74.0,-44.0,-1022.0,-19.0
-14.0,-262.0,-2.0,-28.0,-18.0,68.0,-40.0,-1019.0,-35.0
-16.0,-262.0,-6.0,-21.0,-39.0,61.0,-38.0,-1017.0,-47.0
-19.0,-262.0,-9.0,-11.0,-49.0,52.0,-43.0,-1013.0,-56.0
-21.0,-257.0,-14.0,3.0,-50.0,41.0,-46.0,-1005.0,-65.0
-22.0,-253.0,-9.0,15.0,-41.0,33.0,-53.0,-983.0,-71.0
-22.0,-255.0,-11.0,25.0,-28.0,25.0,-61.0,-979.0,-74.0
-23.0,-251.0,-9.0,28.0,-13.0,20.0,-63.0,-977.0,-69.0
-22.0,-253.0,-9.0,22.0,0.0,17.0,-67.0,-973.0,-71.0
-24.0,-251.0,-12.0,10.0,9.0,18.0,-67.0,-979.0,-63.0
-23.0,-254.0,-5.0,-7.0,12.0,24.0,-53.0,-982.0,-60.0
-22.0,-256.0,-3.0,-25.0,6.0,33.0,-53.0,-998.0,-57.0
-21.0,-258.0,-6.0,-44.0,-6.0,43.0,-47.0,-1006.0,-47.0
-16.0,-258.0,-10.0,-58.0,-18.0,53.0,-33.0,-1009.0,-57.0
-14.0,-262.0,-7.0,-66.0,-30.0,58.0,-19.0,-1018.0,-64.0
-12.0,-262.0,-7.0,-74.0,-39.0,56.0,-12.0,-1024.0,-61.0
-14.0,-263.0,-11.0,-74.0,-44.0,53.0,-19.0,-1033.0,-75.0
-11.0,-262.0,-9.0,-74.0,-42.0,50.0,-14.0,-1021.0,-87.0
-12.0,-259.0,-17.0,-73.0,-33.0,45.0,-16.0,-1014.0,-99.0
-11.0,-261.0,-20.0,-70.0,-20.0,40.0,-17.0,-1009.0,-102.0
-9.0,-259.0,-18.0,-69.0,-6.0,37.0,-6.0,-999.0,-99.0
-13.0,-257.0,-17.0,-66.0,2.0,37.0,-13.0,-1006.0,-101.0
-9.0,-260.0,-17.0,-64.0,8.0,42.0,-22.0,-1002.0,-94.0
-13.0,-257.0,-13.0,-64.0,6.0,49.0,-31.0,-999.0,-87.0
-17.0,-258.0,-11.0,-63.0,0.0,56.0,-37.0,-1006.0,-78.0
-19.0,-259.0,-7.0,-57.0,-11.0,65.0,-43.0,-1008.0,-70.0
-18.0,-259.0,-9.0,-48.0,-22.0,75.0,-48.0,-1004.0,-72.0
-20.0,-261.0,-11.0,-39.0,-34.0,83.0,-42.0,-1007.0,-66.0
-19.0,-259.0,-9.0,-35.0,-44.0,89.0,-47.0,-1011.0,-67.0
-21.0,-261.0,-9.0,-39.0,-53.0,96.0,-53.0,-1008.0,-68.0
-20.0,-258.0,-11.0,-46.0,-68.0,101.0,-54.0,-1009.0,-70.0
-23.0,-260.0,-11.0,-56.0,-85.0,106.0,-59.0,-1017.0,-70.0
-24.0,-258.0,-10.0,-69.0,-104.0,110.0,-49.0,-1018.0,-76.0
-21.0,-262.0,-12.0,-81.0,-120.0,112.0,-48.0,-1015.0,-82.0
-18.0,-264.0,-13.0,-89.0,-136.0,113.0,-43.0,-1014.0,-84.0
-18.0,-261.0,-12.0,-89.0,-149.0,112.0,-41.0,-1016.0,-76.0
-13.0,-260.0,-12.0,-82.0,-161.0,112.0,-30.0,-1009.0,-79.0
-13.0,-258.0,-13.0,-67.0,-168.0,110.0,-21.0,-999.0,-75.0
-11.0,-256.0,-10.0,-48.0,-170.0,104.0,-16.0,-986.0,-73.0
-10.0,-251.0,-6.0,-22.0,-165.0,97.0,-3.0,-979.0,-65.0
-4.0,-251.0,-7.0,4.0,-154.0,90.0,12.0,-964.0,-55.0
0.0,-249.0,0.0,29.0,-135.0,83.0,24.0,-963.0,-39.0
0.0,-248.0,4.0,47.0,-108.0,73.0,28.0,-950.0,-27.0
-10.0,-245.0,3.0,64.0,-76.0,64.0,6.0,-946.0,-19.0
-5.0,-247.0,4.0,67.0,-50.0,65.0,-6.0,-945.0,-13.0
-10.0,-246.0,2.0,51.0,-32.0,62.0,-8.0,-948.0,-14.0
-12.0,-245.0,2.0,21.0,-25.0,54.0,-10.0,-957.0,-13.0
-8.0,-252.0,1.0,-18.0,-20.0,46.0,-4.0,-955.0,-24.0
-10.0,-247.0,0.0,-55.0,-15.0,35.0,-15.0,-968.0,-32.0
-13.0,-258.0,5.0,-84.0,-9.0,26.0,-10.0,-976.0,-28.0
-8.0,-255.0,0.0,-103.0,-4.0,20.0,-4.0,-999.0,-30.0
-5.0,-261.0,2.0,-108.0,0.0,11.0,11.0,-999.0,-29.0
-7.0,-262.0,-3.0,-101.0,5.0,0.0,7.0,-1011.0,-26.0
-6.0,-262.0,2.0,-83.0,7.0,-9.0,12.0,-1020.0,-22.0
-3.0,-262.0,4.0,-63.0,6.0,-13.0,15.0,-1021.0,-19.0
0.0,-262.0,0.0,-42.0,6.0,-14.0,16.0,-1018.0,-18.0
-3.0,-264.0,4.0,-25.0,7.0,-14.0,12.0,-1021.0,-14.0
-8.0,-262.0,6.0,-14.0,9.0,-11.0,11.0,-1023.0,-8.0
-4.0,-261.0,7.0,-11.0,10.0,-7.0,8.0,-1020.0,-14.0
-4.0,-262.0,4.0,-12.0,9.0,2.0,15.0,-1014.0,-11.0
-2.0,-259.0,2.0,-17.0,4.0,10.0,21.0,-1014.0,-18.0
-1.0,-255.0,4.0,-24.0,-2.0,17.0,27.0,-1004.0,-16.0
-3.0,-257.0,2.0,-31.0,-12.0,28.0,23.0,-990.0,-18.0
0.0,-256.0,7.0,-40.0,-24.0,38.0,33.0,-993.0,-21.0
-1.0,-257.0,3.0,-47.0,-33.0,48.0,30.0,-1003.0,-23.0
-1.0,-255.0,2.0,-50.0,-40.0,51.0,22.0,-993.0,-16.0
-1.0,-256.0,9.0,-49.0,-41.0,54.0,21.0,-1003.0,-19.0
-3.0,-258.0,3.0,-44.0,-42.0,53.0,9.0,-1005.0,-20.0
-3.0,-262.0,4.0,-41.0,-44.0,46.0,12.0,-1017.0,-21.0
-6.0,-262.0,1.0,-43.0,-46.0,36.0,14.0,-1016.0,-29.0
-4.0,-257.0,-5.0,-46.0,-44.0,26.0,24.0,-1009.0,-44.0
-3.0,-250.0,-4.0,-49.0,-36.0,24.0,23.0,-985.0,-44.0
0.0,-253.0,-3.0,-47.0,-24.0,26.0,28.0,-972.0,-44.0
0.0,-250.0,-5.0,-43.0,-10.0,31.0,29.0,-958.0,-50.0
-1.0,-248.0,-7.0,-41.0,7.0,37.0,19.0,-955.0,-44.0
-1.0,-248.0,-4.0,-42.0,24.0,42.0,25.0,-961.0,-36.0
0.0,-250.0,-1.0,-48.0,35.0,44.0,22.0,-965.0,-33.0
2.0,-252.0,0.0,-58.0,37.0,40.0,35.0,-968.0,-29.0
1.0,-251.0,0.0,-69.0,32.0,32.0,41.0,-971.0,-23.0
0.0,-252.0,-1.0,-74.0,26.0,22.0,33.0,-975.0,-22.0
0.0,-251.0,1.0,-69.0,28.0,15.0,21.0,-966.0,-23.0
-6.0,-251.0,-1.0,-54.0,37.0,11.0,10.0,-972.0,-21.0
-9.0,-250.0,-2.0,-32.0,54.0,4.0,-2.0,-976.0,-32.0
-8.0,-251.0,-1.0,-8.0,78.0,-3.0,-8.0,-973.0,-37.0
-8.0,-252.0,-2.0,6.0,100.0,-14.0,-6.0,-968.0,-43.0
-8.0,-251.0,-1.0,9.0,112.0,-28.0,-1.0,-964.0,-36.0
-4.0,-249.0,-2.0,4.0,119.0,-40.0,0.0,-970.0,-29.0
-7.0,-253.0,1.0,-3.0,121.0,-51.0,3.0,-974.0,-24.0
-6.0,-254.0,-1.0,-15.0,119.0,-55.0,6.0,-978.0,-26.0
-7.0,-254.0,4.0,-30.0,113.0,-57.0,9.0,-986.0,-24.0
-4.0,-256.0,-1.0,-47.0,108.0,-54.0,10.0,-998.0,-32.0
-5.0,-256.0,-6.0,-64.0,105.0,-50.0,16.0,-1004.0,-30.0
-7.0,-257.0,-4.0,-82.0,105.0,-45.0,14.0,-1012.0,-39.0
-1.0,-262.0,-2.0,-97.0,105.0,-40.0,13.0,-1019.0,-40.0
-5.0,-260.0,-2.0,-109.0,109.0,-35.0,9.0,-1011.0,-46.0
-5.0,-260.0,-3.0,-113.0,112.0,-33.0,8.0,-1013.0,-50.0
-4.0,-264.0,-4.0,-117.0,118.0,-34.0,3.0,-1016.0,-50.0
-3.0,-261.0,-5.0,-118.0,124.0,-38.0,6.0,-1015.0,-50.0
-3.0,-263.0,-2.0,-116.0,131.0,-42.0,5.0,-1016.0,-41.0
-8.0,-258.0,-2.0,-111.0,134.0,-46.0,0.0,-1011.0,-40.0
-9.0,-258.0,-2.0,-106.0,137.0,-49.0,-3.0,-1009.0,-39.0
-8.0,-255.0,-6.0,-103.0,135.0,-47.0,0.0,-1008.0,-39.0
-11.0,-259.0,-4.0,-105.0,133.0,-44.0,-8.0,-1003.0,-49.0
-11.0,-258.0,-5.0,-112.0,133.0,-40.0,-17.0,-1006.0,-53.0
-12.0,-255.0,-5.0,-123.0,130.0,-34.0,-28.0,-1006.0,-52.0
-15.0,-257.0,-7.0,-139.0,129.0,-28.0,-27.0,-995.0,-56.0
-15.0,-256.0,-9.0,-155.0,131.0,-24.0,-31.0,-1009.0,-51.0
-15.0,-253.0,-2.0,-170.0,131.0,-22.0,-33.0,-1011.0,-46.0
-14.0,-260.0,-4.0,-177.0,137.0,-22.0,-36.0,-1008.0,-52.0
-18.0,-261.0,-6.0,-178.0,144.0,-21.0,-35.0,-1009.0,-49.0
-15.0,-259.0,3.0,-172.0,152.0,-20.0,-37.0,-1003.0,-44.0
-21.0,-255.0,-1.0,-160.0,161.0,-15.0,-51.0,-993.0,-36.0
-23.0,-256.0,3.0,-140.0,163.0,-3.0,-46.0,-983.0,-33.0
-22.0,-254.0,-2.0,-114.0,157.0,9.0,-68.0,-974.0,-31.0
-21.0,-252.0,-2.0,-90.0,143.0,24.0,-52.0,-970.0,-33.0
-20.0,-251.0,-1.0,-70.0,128.0,31.0,-42.0,-972.0,-37.0
-18.0,-251.0,-1.0,-60.0,114.0,35.0,-48.0,-971.0,-42.0
-19.0,-250.0,-3.0,-65.0,100.0,44.0,-37.0,-968.0,-47.0
-15.0,-249.0,-3.0,-76.0,91.0,50.0,-32.0,-970.0,-53.0
-14.0,-250.0,-4.0,-95.0,83.0,52.0,-31.0,-969.0,-60.0
-13.0,-253.0,-7.0,-114.0,77.0,56.0,-23.0,-979.0,-65.0
-13.0,-253.0,-9.0,-135.0,74.0,60.0,-23.0,-981.0,-75.0
-12.0,-255.0,-12.0,-156.0,79.0,63.0,-17.0,-1004.0,-77.0
-14.0,-257.0,-10.0,-174.0,90.0,63.0,-18.0,-1015.0,-86.0
-9.0,-258.0,-17.0,-195.0,101.0,61.0,-5.0,-1014.0,-85.0
-6.0,-260.0,-12.0,-211.0,112.0,58.0,-2.0,-1020.0,-91.0
-5.0,-262.0,-17.0,-220.0,125.0,56.0,14.0,-1024.0,-92.0
-2.0,-266.0,-16.0,-220.0,139.0,50.0,27.0,-1027.0,-99.0
0.0,-259.0,-19.0,-212.0,154.0,44.0,30.0,-1020.0,-93.0
0.0,-266.0,-14.0,-197.0,167.0,37.0,33.0,-1021.0,-93.0
2.0,-263.0,-15.0,-176.0,179.0,31.0,38.0,-1021.0,-90.0
0.0,-262.0,-18.0,-150.0,186.0,28.0,33.0,-1018.0,-88.0
1.0,-258.0,-12.0,-122.0,190.0,24.0,36.0,-1015.0,-88.0
2.0,-259.0,-16.0,-100.0,191.0,23.0,41.0,-1008.0,-87.0
-2.0,-255.0,-15.0,-79.0,186.0,23.0,20.0,-982.0,-85.0
-9.0,-253.0,-8.0,-65.0,175.0,24.0,14.0,-968.0,-78.0
-4.0,-250.0,-12.0,-57.0,159.0,26.0,18.0,-963.0,-77.0
0.0,-247.0,-10.0,-59.0,140.0,23.0,15.0,-954.0,-74.0
-1.0,-246.0,-10.0,-69.0,125.0,20.0,20.0,-949.0,-68.0
-5.0,-244.0,-11.0,-86.0,114.0,20.0,7.0,-948.0,-70.0
-13.0,-246.0,-11.0,-107.0,109.0,30.0,-12.0,-942.0,-71.0
-8.0,-250.0,-10.0,-126.0,104.0,44.0,4.0,-962.0,-66.0
-5.0,-251.0,-11.0,-149.0,97.0,38.0,3.0,-969.0,-70.0
-9.0,-252.0,-13.0,-174.0,89.0,31.0,-3.0,-974.0,-71.0
-14.0,-254.0,-9.0,-190.0,84.0,31.0,-16.0,-968.0,-63.0
-10.0,-254.0,-7.0,-189.0,77.0,36.0,-11.0,-974.0,-60.0
-15.0,-251.0,-3.0,-169.0,66.0,41.0,-18.0,-972.0,-52.0
-11.0,-257.0,-3.0,-136.0,52.0,43.0,-14.0,-974.0,-51.0
-9.0,-252.0,-6.0,-100.0,39.0,43.0,-11.0,-968.0,-50.0
-11.0,-252.0,-2.0,-64.0,30.0,43.0,-17.0,-969.0,-43.0
-15.0,-253.0,-5.0,-32.0,24.0,49.0,-20.0,-970.0,-40.0
-16.0,-254.0,-5.0,-6.0,20.0,56.0,-31.0,-976.0,-44.0
-17.0,-253.0,-5.0,9.0,17.0,62.0,-35.0,-974.0,-40.0
-18.0,-253.0,-5.0,16.0,15.0,64.0,-40.0,-979.0,-46.0
-17.0,-254.0,-5.0,18.0,8.0,64.0,-39.0,-991.0,-54.0
-18.0,-256.0,-5.0,16.0,5.0,63.0,-40.0,-1000.0,-52.0
-22.0,-256.0,-4.0,14.0,3.0,58.0,-39.0,-1007.0,-49.0
-16.0,-258.0,-7.0,15.0,4.0,55.0,-41.0,-1013.0,-58.0
-15.0,-260.0,-11.0,17.0,10.0,48.0,-38.0,-1013.0,-60.0
-19.0,-259.0,-9.0,21.0,19.0,42.0,-45.0,-1013.0,-61.0
-20.0,-260.0,-8.0,26.0,28.0,35.0,-41.0,-1015.0,-65.0
-19.0,-258.0,-9.0,30.0,38.0,27.0,-46.0,-1017.0,-68.0
-19.0,-259.0,-8.0,30.0,46.0,19.0,-49.0,-1015.0,-66.0
-20.0,-259.0,-8.0,28.0,53.0,10.0,-46.0,-1012.0,-58.0
-20.0,-262.0,-8.0,27.0,60.0,3.0,-43.0,-1015.0,-62.0
-19.0,-259.0,-8.0,27.0,63.0,-2.0,-44.0,-1005.0,-62.0
-20.0,-256.0,-10.0,25.0,66.0,-5.0,-43.0,-1002.0,-61.0
-19.0,-255.0,-8.0,24.0,69.0,-7.0,-48.0,-988.0,-60.0
-22.0,-254.0,-10.0,21.0,69.0,-5.0,-42.0,-981.0,-67.0
-17.0,-254.0,-8.0,17.0,66.0,-5.0,-38.0,-985.0,-68.0
-19.0,-249.0,-11.0,12.0,67.0,-8.0,-39.0,-969.0,-65.0
-17.0,-249.0,-12.0,3.0,67.0,-9.0,-31.0,-972.0,-72.0
-14.0,-252.0,-14.0,-6.0,67.0,-12.0,-21.0,-974.0,-75.0
-19.0,-248.0,-12.0,-19.0,75.0,-15.0,-29.0,-968.0,-65.0
-16.0,-250.0,-14.0,-34.0,77.0,-15.0,-26.0,-975.0,-66.0
-14.0,-251.0,-8.0,-55.0,80.0,-15.0,-11.0,-982.0,-67.0
-15.0,-250.0,-11.0,-75.0,80.0,-12.0,-22.0,-965.0,-68.0
-8.0,-255.0,-9.0,-99.0,70.0,-3.0,-4.0,-993.0,-68.0
-12.0,-253.0,-13.0,-127.0,68.0,-4.0,-13.0,-992.0,-82.0
-11.0,-254.0,-12.0,-147.0,76.0,-6.0,-2.0,-1004.0,-79.0
-9.0,-257.0,-13.0,-154.0,85.0,-9.0,-8.0,-1002.0,-82.0
-9.0,-256.0,-17.0,-155.0,85.0,-3.0,-9.0,-1003.0,-89.0
-10.0,-265.0,-15.0,-156.0,86.0,-6.0,-3.0,-1018.0,-96.0
-7.0,-261.0,-16.0,-144.0,93.0,-19.0,-9.0,-1021.0,-101.0
-6.0,-267.0,-19.0,-127.0,106.0,-25.0,4.0,-1038.0,-108.0
-15.0,-260.0,-19.0,-107.0,123.0,-32.0,-15.0,-1018.0,-102.0
-10.0,-267.0,-19.0,-90.0,125.0,-27.0,-7.0,-1026.0,-103.0
-9.0,-267.0,-18.0,-82.0,124.0,-32.0,5.0,-1028.0,-115.0
-17.0,-263.0,-18.0,-81.0,124.0,-40.0,-31.0,-1015.0,-98.0
-13.0,-263.0,-20.0,-79.0,112.0,-36.0,-31.0,-1020.0,-102.0
-17.0,-257.0,-17.0,-80.0,101.0,-38.0,-32.0,-1011.0,-102.0
-17.0,-257.0,-16.0,-88.0,92.0,-38.0,-34.0,-1002.0,-102.0
-17.0,-257.0,-15.0,-101.0,84.0,-41.0,-37.0,-1003.0,-99.0
-12.0,-257.0,-21.0,-113.0,76.0,-45.0,-33.0,-994.0,-95.0
-15.0,-254.0,-12.0,-118.0,73.0,-50.0,-32.0,-984.0,-94.0
-15.0,-255.0,-17.0,-117.0,72.0,-51.0,-36.0,-979.0,-98.0
-15.0,-255.0,-17.0,-113.0,74.0,-50.0,-26.0,-978.0,-98.0
-13.0,-253.0,-14.0,-111.0,78.0,-50.0,-28.0,-977.0,-97.0
-15.0,-254.0,-19.0,-108.0,79.0,-45.0,-28.0,-981.0,-94.0
-12.0,-256.0,-14.0,-108.0,80.0,-43.0,-25.0,-975.0,-91.0
-10.0,-254.0,-16.0,-109.0,78.0,-40.0,-20.0,-980.0,-89.0
-13.0,-257.0,-15.0,-109.0,75.0,-38.0,-12.0,-979.0,-90.0
-11.0,-255.0,-14.0,-109.0,70.0,-36.0,-14.0,-990.0,-93.0
-11.0,-254.0,-16.0,-108.0,63.0,-35.0,-9.0,-994.0,-91.0
-10.0,-258.0,-15.0,-110.0,58.0,-34.0,-10.0,-998.0,-89.0
-10.0,-258.0,-18.0,-112.0,53.0,-34.0,-6.0,-1003.0,-94.0
-9.0,-258.0,-16.0,-110.0,47.0,-38.0,-8.0,-1009.0,-94.0
-9.0,-257.0,-17.0,-105.0,47.0,-39.0,-2.0,-1007.0,-94.0
-8.0,-259.0,-14.0,-97.0,49.0,-41.0,-1.0,-1002.0,-92.0
-11.0,-261.0,-14.0,-89.0,53.0,-41.0,-8.0,-1003.0,-92.0
-11.0,-253.0,-15.0,-83.0,57.0,-42.0,-7.0,-994.0,-95.0
-8.0,-256.0,-14.0,-78.0,61.0,-43.0,-4.0,-999.0,-94.0
-9.0,-253.0,-16.0,-76.0,65.0,-41.0,-2.0,-984.0,-92.0
-7.0,-255.0,-15.0,-75.0,69.0,-39.0,-6.0,-998.0,-91.0
-7.0,-256.0,-18.0,-80.0,70.0,-37.0,4.0,-993.0,-95.0
-5.0,-256.0,-15.0,-86.0,70.0,-37.0,7.0,-992.0,-91.0
-6.0,-256.0,-19.0,-92.0,72.0,-40.0,7.0,-1000.0,-95.0
-5.0,-254.0,-17.0,-98.0,73.0,-41.0,12.0,-994.0,-96.0
-5.0,-255.0,-17.0,-103.0,73.0,-39.0,8.0,-985.0,-99.0
-8.0,-252.0,-18.0,-104.0,74.0,-37.0,1.0,-981.0,-93.0
-9.0,-254.0,-15.0,-101.0,74.0,-34.0,-4.0,-992.0,-97.0
-7.0,-255.0,-22.0,-94.0,74.0,-31.0,-4.0,-996.0,-99.0
-8.0,-256.0,-20.0,-84.0,75.0,-28.0,-7.0,-999.0,-99.0
-13.0,-255.0,-18.0,-73.0,74.0,-26.0,-13.0,-983.0,-102.0
-10.0,-255.0,-19.0,-62.0,73.0,-23.0,-12.0,-980.0,-102.0
-12.0,-251.0,-18.0,-56.0,72.0,-24.0,-11.0,-988.0,-101.0
-11.0,-252.0,-20.0,-52.0,75.0,-24.0,-11.0,-980.0,-102.0
-10.0,-252.0,-20.0,-52.0,76.0,-22.0,-11.0,-982.0,-98.0
-11.0,-255.0,-16.0,-54.0,75.0,-22.0,-12.0,-981.0,-92.0
-11.0,-254.0,-18.0,-55.0,71.0,-23.0,-11.0,-981.0,-92.0
-8.0,-260.0,-16.0,-57.0,67.0,-22.0,-13.0,-992.0,-94.0
-9.0,-257.0,-15.0,-59.0,63.0,-24.0,-7.0,-987.0,-94.0
-11.0,-258.0,-17.0,-57.0,58.0,-25.0,-9.0,-993.0,-101.0
-6.0,-262.0,-12.0,-59.0,54.0,-25.0,-13.0,-997.0,-99.0
-12.0,-252.0,-17.0,-60.0,51.0,-24.0,-10.0,-993.0,-100.0
-9.0,-256.0,-19.0,-57.0,48.0,-22.0,-6.0,-985.0,-102.0
-9.0,-258.0,-20.0,-55.0,47.0,-21.0,-5.0,-997.0,-101.0
-9.0,-258.0,-19.0,-51.0,45.0,-19.0,-9.0,-999.0,-101.0
-9.0,-256.0,-19.0,-45.0,48.0,-21.0,-11.0,-1002.0,-100.0
-9.0,-255.0,-18.0,-41.0,50.0,-20.0,-10.0,-998.0,-102.0
-5.0,-259.0,-19.0,-34.0,52.0,-19.0,-7.0,-998.0,-103.0
-11.0,-256.0,-20.0,-33.0,53.0,-19.0,-7.0,-1000.0,-103.0
-9.0,-255.0,-18.0,-33.0,53.0,-16.0,-5.0,-1003.0,-107.0
-10.0,-256.0,-20.0,-34.0,56.0,-16.0,-7.0,-986.0,-107.0
-8.0,-257.0,-19.0,-33.0,60.0,-17.0,-2.0,-1003.0,-113.0
-7.0,-254.0,-18.0,-33.0,59.0,-17.0,1.0,-1003.0,-112.0
-5.0,-259.0,-16.0,-30.0,61.0,-16.0,6.0,-998.0,-110.0
-8.0,-257.0,-20.0,-27.0,59.0,-13.0,5.0,-987.0,-112.0
-6.0,-258.0,-20.0,-25.0,60.0,-10.0,3.0,-987.0,-116.0
-4.0,-253.0,-19.0,-23.0,58.0,-6.0,10.0,-991.0,-114.0
-5.0,-255.0,-19.0,-25.0,57.0,-6.0,13.0,-998.0,-118.0
-6.0,-255.0,-18.0,-27.0,57.0,-7.0,12.0,-1001.0,-110.0
-5.0,-257.0,-19.0,-29.0,58.0,-4.0,1.0,-1002.0,-115.0
-8.0,-259.0,-20.0,-32.0,59.0,1.0,6.0,-1010.0,-116.0
-10.0,-257.0,-20.0,-35.0,54.0,4.0,2.0,-1011.0,-116.0
-8.0,-259.0,-21.0,-34.0,47.0,7.0,-2.0,-1012.0,-115.0
-5.0,-261.0,-19.0,-28.0,44.0,8.0,4.0,-1003.0,-112.0
-8.0,-256.0,-23.0,-18.0,46.0,8.0,2.0,-999.0,-122.0
-7.0,-257.0,-19.0,-7.0,48.0,7.0,-3.0,-993.0,-120.0
-7.0,-257.0,-21.0,1.0,51.0,8.0,1.0,-993.0,-118.0
-9.0,-255.0,-19.0,10.0,50.0,5.0,-3.0,-996.0,-121.0
-7.0,-254.0,-20.0,14.0,49.0,4.0,5.0,-987.0,-119.0
-9.0,-252.0,-19.0,17.0,51.0,5.0,-3.0,-994.0,-121.0
-9.0,-255.0,-20.0,16.0,56.0,6.0,0.0,-984.0,-119.0
-5.0,-253.0,-22.0,11.0,62.0,5.0,7.0,-985.0,-120.0
-11.0,-254.0,-21.0,5.0,68.0,8.0,-1.0,-990.0,-124.0
-7.0,-256.0,-20.0,0.0,69.0,10.0,1.0,-990.0,-116.0
-9.0,-255.0,-20.0,-4.0,70.0,11.0,4.0,-993.0,-116.0
-6.0,-258.0,-20.0,-8.0,66.0,11.0,-1.0,-1006.0,-120.0
-7.0,-254.0,-23.0,-7.0,63.0,9.0,-2.0,-1005.0,-117.0
-8.0,-260.0,-20.0,-4.0,57.0,7.0,4.0,-1008.0,-115.0
-9.0,-254.0,-21.0,-1.0,52.0,6.0,2.0,-1006.0,-116.0
-9.0,-258.0,-21.0,5.0,50.0,5.0,4.0,-995.0,-114.0
-12.0,-258.0,-17.0,10.0,50.0,2.0,-4.0,-999.0,-114.0
-11.0,-256.0,-20.0,14.0,51.0,2.0,0.0,-992.0,-115.0
-10.0,-254.0,-19.0,19.0,52.0,3.0,-1.0,-994.0,-115.0
-6.0,-257.0,-20.0,22.0,55.0,3.0,-2.0,-1002.0,-119.0
-9.0,-255.0,-17.0,25.0,59.0,4.0,-4.0,-1000.0,-115.0
-10.0,-256.0,-20.0,26.0,59.0,5.0,-7.0,-996.0,-115.0
-12.0,-252.0,-19.0,26.0,61.0,6.0,-5.0,-996.0,-120.0
-7.0,-254.0,-20.0,26.0,61.0,6.0,-1.0,-999.0,-112.0
-10.0,-259.0,-21.0,25.0,64.0,5.0,-4.0,-999.0,-114.0
-10.0,-254.0,-21.0,27.0,64.0,5.0,-6.0,-995.0,-103.0
-10.0,-254.0,-16.0,25.0,66.0,7.0,-6.0,-986.0,-102.0
-7.0,-256.0,-17.0,27.0,68.0,7.0,-4.0,-986.0,-105.0
-8.0,-254.0,-19.0,24.0,69.0,8.0,-8.0,-985.0,-101.0
-9.0,-255.0,-17.0,23.0,70.0,8.0,-5.0,-983.0,-98.0
-8.0,-257.0,-17.0,23.0,73.0,9.0,-6.0,-985.0,-98.0
-9.0,-253.0,-13.0,22.0,73.0,7.0,-11.0,-988.0,-97.0
-13.0,-254.0,-16.0,20.0,73.0,7.0,-17.0,-987.0,-90.0
-10.0,-256.0,-18.0,17.0,74.0,5.0,-17.0,-985.0,-98.0
-11.0,-255.0,-18.0,16.0,77.0,2.0,-17.0,-994.0,-93.0
-12.0,-255.0,-15.0,15.0,79.0,1.0,-22.0,-983.0,-93.0
-13.0,-254.0,-15.0,14.0,83.0,-3.0,-18.0,-990.0,-89.0
-12.0,-259.0,-14.0,15.0,84.0,-6.0,-24.0,-1001.0,-92.0
-12.0,-255.0,-16.0,17.0,84.0,-9.0,-24.0,-981.0,-91.0
-11.0,-257.0,-18.0,18.0,87.0,-9.0,-16.0,-988.0,-87.0
-13.0,-254.0,-18.0,22.0,85.0,-9.0,-23.0,-982.0,-85.0
-10.0,-254.0,-14.0,25.0,85.0,-8.0,-19.0,-986.0,-85.0
-11.0,-253.0,-12.0,26.0,86.0,-7.0,-19.0,-979.0,-84.0
-10.0,-253.0,-12.0,27.0,85.0,-5.0,-18.0,-985.0,-89.0
-15.0,-256.0,-14.0,28.0,85.0,-4.0,-25.0,-985.0,-86.0
-13.0,-251.0,-12.0,29.0,82.0,-1.0,-18.0,-983.0,-85.0
-13.0,-255.0,-13.0,27.0,81.0,1.0,-16.0,-981.0,-88.0
-11.0,-255.0,-18.0,25.0,80.0,2.0,-24.0,-984.0,-91.0
-14.0,-253.0,-16.0,21.0,79.0,2.0,-17.0,-978.0,-88.0
-12.0,-255.0,-11.0,16.0,75.0,2.0,-16.0,-991.0,-85.0
-10.0,-255.0,-15.0,9.0,70.0,4.0,-18.0,-991.0,-92.0
-13.0,-255.0,-15.0,4.0,67.0,3.0,-25.0,-982.0,-90.0
-14.0,-257.0,-18.0,-2.0,64.0,3.0,-17.0,-991.0,-88.0
-11.0,-257.0,-17.0,-6.0,58.0,2.0,-18.0,-996.0,-94.0
-13.0,-257.0,-13.0,-10.0,55.0,1.0,-19.0,-1004.0,-91.0
-13.0,-258.0,-17.0,-11.0,52.0,-2.0,-12.0,-998.0,-93.0
-10.0,-257.0,-13.0,-10.0,51.0,-5.0,-10.0,-993.0,-96.0
-11.0,-257.0,-15.0,-9.0,52.0,-8.0,-14.0,-1002.0,-97.0
-12.0,-253.0,-18.0,-8.0,55.0,-10.0,-17.0,-987.0,-100.0
-8.0,-258.0,-15.0,-6.0,55.0,-10.0,-8.0,-989.0,-98.0
-9.0,-258.0,-17.0,-3.0,56.0,-10.0,-6.0,-999.0,-102.0
-8.0,-257.0,-20.0,-2.0,56.0,-11.0,-6.0,-988.0,-100.0
-7.0,-259.0,-19.0,-1.0,54.0,-10.0,-7.0,-998.0,-94.0
-15.0,-253.0,-13.0,0.0,50.0,-9.0,-14.0,-990.0,-97.0
-11.0,-255.0,-16.0,2.0,47.0,-9.0,-7.0,-987.0,-98.0
-8.0,-255.0,-17.0,1.0,43.0,-7.0,-6.0,-994.0,-100.0
-8.0,-253.0,-16.0,1.0,41.0,-6.0,-7.0,-980.0,-100.0
-12.0,-254.0,-17.0,1.0,42.0,-4.0,-5.0,-985.0,-95.0
-12.0,-255.0,-19.0,3.0,44.0,-5.0,-5.0,-990.0,-99.0
-7.0,-255.0,-20.0,6.0,46.0,-4.0,-8.0,-987.0,-101.0
-9.0,-257.0,-16.0,9.0,46.0,-6.0,-3.0,-992.0,-100.0
-5.0,-255.0,-18.0,12.0,48.0,-5.0,2.0,-986.0,-102.0
-8.0,-257.0,-19.0,14.0,48.0,-6.0,1.0,-994.0,-101.0
-5.0,-256.0,-20.0,13.0,49.0,-7.0,-8.0,-986.0,-103.0
-8.0,-255.0,-20.0,11.0,49.0,-7.0,-5.0,-987.0,-108.0
-9.0,-254.0,-18.0,6.0,48.0,-9.0,-2.0,-979.0,-108.0
-9.0,-256.0,-19.0,1.0,48.0,-10.0,-7.0,-987.0,-103.0
-12.0,-255.0,-20.0,-3.0,49.0,-11.0,-7.0,-988.0,-103.0
-12.0,-256.0,-19.0,-8.0,48.0,-12.0,-10.0,-987.0,-101.0
-11.0,-257.0,-19.0,-12.0,50.0,-11.0,-3.0,-992.0,-103.0
-8.0,-253.0,-17.0,-13.0,50.0,-14.0,-8.0,-987.0,-100.0
-7.0,-257.0,-16.0,-11.0,50.0,-16.0,-14.0,-992.0,-100.0
-8.0,-256.0,-14.0,-9.0,51.0,-18.0,-5.0,-998.0,-97.0
-6.0,-258.0,-18.0,-6.0,54.0,-19.0,-7.0,-993.0,-92.0
-8.0,-257.0,-17.0,-2.0,57.0,-21.0,-7.0,-999.0,-89.0
-9.0,-256.0,-15.0,0.0,60.0,-21.0,2.0,-1003.0,-91.0
-7.0,-256.0,-16.0,2.0,60.0,-21.0,-4.0,-1002.0,-85.0
-7.0,-254.0,-13.0,3.0,60.0,-21.0,-4.0,-988.0,-86.0
-9.0,-256.0,-16.0,6.0,62.0,-18.0,0.0,-993.0,-87.0
-5.0,-254.0,-11.0,9.0,59.0,-18.0,-6.0,-993.0,-84.0
-9.0,-258.0,-15.0,10.0,57.0,-17.0,-4.0,-993.0,-84.0
-8.0,-255.0,-14.0,11.0,56.0,-13.0,-7.0,-999.0,-86.0
-7.0,-257.0,-14.0,9.0,56.0,-12.0,-2.0,-1002.0,-89.0
-9.0,-256.0,-14.0,5.0,58.0,-11.0,-2.0,-1000.0,-93.0
-8.0,-256.0,-14.0,2.0,57.0,-9.0,0.0,-1001.0,-92.0
-6.0,-259.0,-17.0,1.0,59.0,-7.0,-3.0,-997.0,-86.0
-7.0,-258.0,-14.0,3.0,62.0,-7.0,-7.0,-1004.0,-86.0
-11.0,-256.0,-17.0,8.0,65.0,-7.0,-4.0,-1007.0,-86.0
-11.0,-258.0,-15.0,16.0,66.0,-8.0,-5.0,-1010.0,-92.0
-9.0,-257.0,-17.0,26.0,67.0,-8.0,-1.0,-1006.0,-88.0
-8.0,-257.0,-11.0,35.0,68.0,-7.0,-3.0,-1006.0,-92.0
-8.0,-256.0,-16.0,43.0,69.0,-7.0,1.0,-994.0,-93.0
-7.0,-256.0,-17.0,48.0,70.0,-6.0,6.0,-985.0,-90.0
-9.0,-255.0,-17.0,50.0,72.0,-7.0,1.0,-984.0,-88.0
-9.0,-257.0,-19.0,49.0,73.0,-6.0,0.0,-981.0,-90.0
-9.0,-254.0,-12.0,45.0,73.0,-5.0,-4.0,-980.0,-82.0
-12.0,-251.0,-15.0,41.0,71.0,-5.0,-2.0,-974.0,-81.0
-8.0,-251.0,-13.0,32.0,69.0,-6.0,2.0,-974.0,-83.0
-9.0,-252.0,-13.0,21.0,68.0,-5.0,-2.0,-986.0,-87.0
-8.0,-256.0,-14.0,11.0,68.0,-4.0,1.0,-990.0,-86.0
-6.0,-258.0,-13.0,5.0,67.0,-7.0,-2.0,-1002.0,-86.0
-10.0,-257.0,-15.0,3.0,70.0,-9.0,4.0,-1001.0,-86.0
-9.0,-256.0,-9.0,4.0,70.0,-10.0,-9.0,-994.0,-94.0
-8.0,-256.0,-15.0,8.0,69.0,-10.0,-3.0,-992.0,-87.0
-11.0,-256.0,-17.0,12.0,67.0,-11.0,-7.0,-992.0,-92.0
-10.0,-254.0,-14.0,16.0,66.0,-10.0,-8.0,-989.0,-87.0
-12.0,-256.0,-15.0,20.0,66.0,-10.0,-15.0,-982.0,-90.0
-9.0,-252.0,-17.0,24.0,65.0,-10.0,-8.0,-987.0,-94.0
-14.0,-255.0,-15.0,28.0,68.0,-10.0,-9.0,-994.0,-91.0
-12.0,-252.0,-18.0,31.0,72.0,-11.0,-6.0,-989.0,-95.0
-11.0,-252.0,-16.0,29.0,76.0,-10.0,-5.0,-985.0,-91.0
-8.0,-253.0,-17.0,27.0,79.0,-10.0,-8.0,-982.0,-90.0
-9.0,-253.0,-19.0,21.0,79.0,-9.0,-10.0,-984.0,-88.0
-12.0,-254.0,-16.0,16.0,77.0,-9.0,-9.0,-993.0,-93.0
-10.0,-253.0,-13.0,10.0,76.0,-8.0,-10.0,-987.0,-92.0
-10.0,-252.0,-14.0,7.0,74.0,-9.0,-7.0,-992.0,-87.0
-9.0,-255.0,-14.0,7.0,72.0,-9.0,-6.0,-997.0,-85.0
-9.0,-256.0,-10.0,7.0,70.0,-9.0,-9.0,-996.0,-87.0
-7.0,-259.0,-12.0,9.0,70.0,-9.0,-12.0,-984.0,-84.0
-9.0,-256.0,-15.0,10.0,71.0,-8.0,-10.0,-993.0,-85.0
-9.0,-258.0,-13.0,10.0,70.0,-10.0,-7.0,-994.0,-85.0
-7.0,-257.0,-17.0,9.0,68.0,-9.0,-6.0,-996.0,-87.0
-10.0,-255.0,-15.0,8.0,67.0,-7.0,-6.0,-999.0,-87.0
-9.0,-255.0,-16.0,6.0,65.0,-7.0,-4.0,-992.0,-90.0
-8.0,-254.0,-16.0,5.0,63.0,-6.0,-4.0,-995.0,-87.0
-7.0,-256.0,-13.0,3.0,62.0,-5.0,-4.0,-993.0,-91.0
-9.0,-257.0,-17.0,2.0,60.0,-3.0,-8.0,-999.0,-93.0
-13.0,-255.0,-14.0,0.0,61.0,-5.0,-8.0,-999.0,-88.0
-8.0,-256.0,-16.0,-2.0,60.0,-6.0,-5.0,-992.0,-90.0
-8.0,-257.0,-16.0,-3.0,62.0,-6.0,-4.0,-992.0,-88.0
-9.0,-259.0,-13.0,-3.0,63.0,-6.0,-6.0,-1003.0,-84.0
-8.0,-260.0,-14.0,0.0,63.0,-6.0,-4.0,-1003.0,-88.0
-9.0,-257.0,-14.0,4.0,63.0,-7.0,3.0,-997.0,-85.0
-6.0,-256.0,-15.0,9.0,62.0,-10.0,-2.0,-1001.0,-88.0
-9.0,-255.0,-14.0,12.0,60.0,-11.0,-5.0,-984.0,-82.0
-10.0,-253.0,-11.0,14.0,58.0,-9.0,-5.0,-991.0,-83.0
-8.0,-253.0,-17.0,15.0,57.0,-9.0,-6.0,-992.0,-83.0
-9.0,-254.0,-13.0,15.0,58.0,-8.0,-6.0,-986.0,-81.0
-8.0,-254.0,-14.0,14.0,58.0,-7.0,-7.0,-992.0,-83.0
-7.0,-254.0,-14.0,14.0,60.0,-6.0,-4.0,-985.0,-73.0
-11.0,-258.0,-6.0,14.0,60.0,-6.0,-6.0,-993.0,-82.0
-6.0,-256.0,-17.0,13.0,60.0,-6.0,-4.0,-985.0,-81.0
-9.0,-258.0,-11.0,13.0,61.0,-6.0,-6.0,-995.0,-82.0
-10.0,-256.0,-12.0,14.0,62.0,-7.0,-10.0,-987.0,-86.0
-10.0,-256.0,-15.0,15.0,61.0,-8.0,-8.0,-993.0,-84.0
-7.0,-255.0,-13.0,18.0,65.0,-10.0,-8.0,-1003.0,-90.0
-8.0,-256.0,-13.0,20.0,67.0,-11.0,-9.0,-996.0,-87.0
-10.0,-255.0,-15.0,21.0,70.0,-12.0,-4.0,-997.0,-91.0
-9.0,-257.0,-12.0,23.0,72.0,-11.0,-3.0,-1004.0,-86.0
-10.0,-257.0,-15.0,28.0,74.0,-13.0,-12.0,-996.0,-90.0
-14.0,-257.0,-12.0,29.0,75.0,-13.0,-6.0,-1006.0,-86.0
-8.0,-257.0,-13.0,31.0,75.0,-14.0,-3.0,-988.0,-83.0
-8.0,-256.0,-13.0,33.0,75.0,-14.0,0.0,-998.0,-85.0
-10.0,-254.0,-13.0,33.0,74.0,-13.0,1.0,-997.0,-85.0
-5.0,-259.0,-11.0,34.0,72.0,-11.0,-5.0,-994.0,-83.0
-9.0,-257.0,-13.0,34.0,72.0,-11.0,0.0,-996.0,-85.0
-7.0,-254.0,-17.0,33.0,70.0,-11.0,-5.0,-988.0,-81.0
-7.0,-258.0,-14.0,33.0,71.0,-10.0,0.0,-1002.0,-80.0
-7.0,-255.0,-16.0,34.0,73.0,-12.0,0.0,-1003.0,-86.0
-8.0,-259.0,-13.0,35.0,76.0,-12.0,-2.0,-1007.0,-88.0
-8.0,-257.0,-14.0,35.0,80.0,-12.0,1.0,-1000.0,-83.0
-9.0,-254.0,-10.0,38.0,84.0,-14.0,-2.0,-999.0,-80.0
-9.0,-257.0,-16.0,40.0,89.0,-15.0,-2.0,-997.0,-78.0
-7.0,-257.0,-12.0,43.0,93.0,-16.0,-2.0,-994.0,-82.0
-6.0,-254.0,-13.0,45.0,95.0,-18.0,6.0,-992.0,-77.0
-8.0,-252.0,-18.0,47.0,99.0,-17.0,5.0,-989.0,-75.0
-6.0,-252.0,-12.0,45.0,100.0,-18.0,6.0,-981.0,-72.0
-9.0,-254.0,-11.0,43.0,99.0,-20.0,4.0,-989.0,-79.0
-9.0,-253.0,-9.0,37.0,95.0,-20.0,3.0,-985.0,-73.0
-7.0,-254.0,-6.0,30.0,90.0,-19.0,7.0,-985.0,-73.0
-9.0,-254.0,-14.0,23.0,85.0,-18.0,1.0,-991.0,-73.0
-7.0,-255.0,-10.0,17.0,79.0,-16.0,0.0,-998.0,-77.0
-4.0,-259.0,-13.0,10.0,74.0,-15.0,6.0,-1001.0,-77.0
-8.0,-254.0,-10.0,6.0,69.0,-15.0,3.0,-1000.0,-75.0
-6.0,-256.0,-14.0,3.0,67.0,-11.0,4.0,-997.0,-76.0
-7.0,-258.0,-9.0,2.0,64.0,-12.0,-4.0,-1007.0,-79.0
-6.0,-259.0,-11.0,5.0,65.0,-11.0,4.0,-1006.0,-76.0
-7.0,-259.0,-13.0,8.0,66.0,-12.0,-3.0,-1003.0,-70.0
-6.0,-258.0,-10.0,14.0,68.0,-12.0,-4.0,-1003.0,-78.0
-8.0,-256.0,-15.0,19.0,69.0,-13.0,0.0,-1008.0,-77.0
-8.0,-259.0,-12.0,22.0,71.0,-12.0,-1.0,-986.0,-73.0
-8.0,-255.0,-14.0,25.0,74.0,-14.0,1.0,-994.0,-76.0
-7.0,-256.0,-11.0,29.0,76.0,-13.0,2.0,-986.0,-73.0
-8.0,-256.0,-9.0,28.0,77.0,-13.0,7.0,-984.0,-76.0
-7.0,-255.0,-9.0,27.0,78.0,-12.0,-1.0,-983.0,-70.0
-8.0,-256.0,-11.0,26.0,77.0,-12.0,7.0,-984.0,-74.0
-7.0,-257.0,-12.0,24.0,74.0,-12.0,8.0,-986.0,-73.0
-7.0,-257.0,-9.0,24.0,73.0,-13.0,4.0,-992.0,-77.0
-7.0,-255.0,-10.0,25.0,69.0,-12.0,2.0,-1003.0,-73.0
-4.0,-257.0,-11.0,29.0,67.0,-13.0,-2.0,-993.0,-72.0
-8.0,-255.0,-11.0,37.0,67.0,-13.0,-4.0,-998.0,-69.0
-4.0,-258.0,-6.0,45.0,68.0,-14.0,-3.0,-999.0,-71.0
-9.0,-256.0,-10.0,50.0,71.0,-16.0,5.0,-987.0,-68.0
-7.0,-258.0,-9.0,55.0,74.0,-17.0,0.0,-994.0,-70.0
-9.0,-255.0,-9.0,56.0,77.0,-18.0,1.0,-985.0,-70.0
-8.0,-253.0,-13.0,55.0,79.0,-17.0,-4.0,-997.0,-72.0
-7.0,-255.0,-12.0,52.0,82.0,-16.0,-1.0,-995.0,-76.0
-5.0,-258.0,-12.0,47.0,85.0,-14.0,0.0,-993.0,-75.0
-11.0,-254.0,-10.0,41.0,88.0,-14.0,2.0,-993.0,-75.0
-9.0,-254.0,-10.0,35.0,90.0,-14.0,-7.0,-998.0,-72.0
-8.0,-258.0,-11.0,29.0,92.0,-12.0,-4.0,-1003.0,-72.0
-10.0,-254.0,-11.0,29.0,90.0,-14.0,-1.0,-1003.0,-71.0
-11.0,-255.0,-11.0,30.0,86.0,-15.0,0.0,-1008.0,-69.0
-9.0,-258.0,-12.0,33.0,82.0,-16.0,-2.0,-1002.0,-70.0
-6.0,-256.0,-14.0,36.0,78.0,-16.0,0.0,-998.0,-73.0
-8.0,-257.0,-7.0,38.0,77.0,-16.0,-3.0,-995.0,-71.0
-9.0,-255.0,-10.0,42.0,79.0,-15.0,4.0,-998.0,-70.0
-7.0,-258.0,-9.0,44.0,80.0,-14.0,-5.0,-1000.0,-76.0
-8.0,-256.0,-11.0,39.0,79.0,-9.0,4.0,-1004.0,-77.0
-11.0,-256.0,-14.0,36.0,77.0,-6.0,2.0,-1000.0,-70.0
-4.0,-257.0,-9.0,35.0,73.0,-4.0,2.0,-997.0,-75.0
-5.0,-256.0,-4.0,37.0,69.0,-6.0,-2.0,-991.0,-69.0
-6.0,-253.0,-8.0,42.0,67.0,-6.0,-2.0,-982.0,-61.0
-8.0,-253.0,-9.0,47.0,66.0,-8.0,-2.0,-979.0,-66.0
-7.0,-251.0,-9.0,51.0,62.0,-10.0,-5.0,-979.0,-62.0
-9.0,-256.0,-8.0,56.0,61.0,-10.0,-1.0,-975.0,-60.0
-8.0,-255.0,-6.0,58.0,61.0,-8.0,-5.0,-978.0,-52.0
-11.0,-255.0,-8.0,61.0,61.0,-7.0,0.0,-993.0,-52.0
-9.0,-257.0,-7.0,59.0,62.0,-7.0,-8.0,-999.0,-52.0
-11.0,-257.0,-8.0,58.0,63.0,-6.0,-4.0,-996.0,-51.0
-6.0,-259.0,-3.0,53.0,61.0,-7.0,-3.0,-999.0,-52.0
-7.0,-257.0,-6.0,48.0,59.0,-10.0,-2.0,-997.0,-54.0
-8.0,-256.0,-5.0,46.0,59.0,-9.0,3.0,-1010.0,-52.0
-10.0,-257.0,-8.0,45.0,59.0,-8.0,6.0,-1011.0,-51.0
-10.0,-256.0,-7.0,48.0,62.0,-8.0,0.0,-1007.0,-57.0
-6.0,-259.0,-7.0,49.0,67.0,-6.0,4.0,-1010.0,-54.0
-14.0,-260.0,-9.0,53.0,75.0,-6.0,5.0,-1014.0,-56.0
-5.0,-260.0,-9.0,61.0,82.0,-4.0,2.0,-1009.0,-64.0
-9.0,-255.0,-8.0,69.0,86.0,-2.0,0.0,-985.0,-58.0
