acc1_x,acc1_y,acc1_z,gyro_x,gyro_y,gyro_z,acc2_x,acc2_y,acc2_z
-18.0,-254.0,-39.0,-16.0,-134.0,-17.0,-44.0,-979.0,-206.0
-18.0,-255.0,-41.0,-18.0,-138.0,-17.0,-42.0,-992.0,-205.0
-17.0,-256.0,-42.0,-20.0,-144.0,-16.0,-36.0,-983.0,-209.0
-19.0,-255.0,-44.0,-23.0,-148.0,-19.0,-42.0,-985.0,-209.0
-16.0,-256.0,-43.0,-26.0,-157.0,-22.0,-42.0,-978.0,-218.0
-13.0,-255.0,-37.0,-26.0,-165.0,-21.0,-41.0,-979.0,-221.0
-22.0,-255.0,-48.0,-25.0,-171.0,-24.0,-43.0,-977.0,-223.0
-15.0,-253.0,-46.0,-30.0,-180.0,-22.0,-34.0,-973.0,-226.0
-15.0,-254.0,-44.0,-30.0,-180.0,-24.0,-35.0,-971.0,-222.0
-17.0,-256.0,-47.0,-22.0,-178.0,-24.0,-35.0,-978.0,-222.0
-17.0,-256.0,-47.0,-12.0,-175.0,-18.0,-29.0,-981.0,-225.0
-16.0,-252.0,-48.0,-7.0,-172.0,-16.0,-31.0,-977.0,-224.0
-15.0,-253.0,-46.0,-8.0,-169.0,-17.0,-30.0,-992.0,-218.0
-13.0,-254.0,-46.0,-11.0,-169.0,-16.0,-32.0,-983.0,-219.0
-12.0,-254.0,-48.0,-19.0,-169.0,-17.0,-25.0,-979.0,-223.0
-18.0,-250.0,-50.0,-28.0,-168.0,-18.0,-22.0,-978.0,-223.0
-9.0,-253.0,-48.0,-37.0,-169.0,-19.0,-18.0,-977.0,-225.0
-10.0,-253.0,-45.0,-43.0,-169.0,-21.0,-17.0,-973.0,-228.0
-12.0,-252.0,-48.0,-44.0,-168.0,-22.0,-19.0,-971.0,-224.0
-14.0,-253.0,-50.0,-42.0,-166.0,-22.0,-21.0,-972.0,-226.0
-15.0,-253.0,-48.0,-38.0,-163.0,-20.0,-21.0,-975.0,-225.0
-12.0,-254.0,-45.0,-33.0,-158.0,-20.0,-23.0,-979.0,-223.0
-15.0,-255.0,-46.0,-29.0,-151.0,-20.0,-24.0,-979.0,-217.0
-16.0,-252.0,-45.0,-27.0,-144.0,-20.0,-23.0,-978.0,-217.0
-14.0,-253.0,-49.0,-26.0,-136.0,-19.0,-31.0,-982.0,-220.0
-13.0,-254.0,-49.0,-27.0,-131.0,-20.0,-28.0,-978.0,-224.0
-11.0,-254.0,-56.0,-30.0,-125.0,-20.0,-26.0,-978.0,-230.0
-13.0,-253.0,-50.0,-33.0,-119.0,-19.0,-23.0,-980.0,-225.0
-11.0,-253.0,-48.0,-38.0,-118.0,-17.0,-31.0,-983.0,-227.0
-18.0,-254.0,-44.0,-39.0,-116.0,-18.0,-25.0,-984.0,-226.0
-15.0,-257.0,-46.0,-37.0,-117.0,-16.0,-24.0,-973.0,-224.0
-16.0,-254.0,-49.0,-33.0,-118.0,-15.0,-24.0,-974.0,-224.0
-14.0,-255.0,-45.0,-28.0,-119.0,-15.0,-27.0,-970.0,-224.0
-12.0,-255.0,-47.0,-25.0,-117.0,-13.0,-27.0,-974.0,-220.0
-12.0,-250.0,-48.0,-19.0,-115.0,-11.0,-19.0,-968.0,-219.0
-17.0,-252.0,-44.0,-13.0,-110.0,-8.0,-21.0,-969.0,-216.0
-11.0,-251.0,-44.0,-10.0,-105.0,-7.0,-19.0,-968.0,-213.0
-12.0,-250.0,-46.0,-9.0,-99.0,-6.0,-16.0,-968.0,-219.0
-13.0,-252.0,-42.0,-14.0,-91.0,-5.0,-25.0,-965.0,-215.0
-13.0,-249.0,-42.0,-18.0,-84.0,-5.0,-22.0,-968.0,-221.0
-12.0,-250.0,-48.0,-21.0,-77.0,-5.0,-30.0,-973.0,-218.0
-14.0,-251.0,-42.0,-28.0,-73.0,-5.0,-26.0,-973.0,-219.0
-16.0,-250.0,-46.0,-32.0,-68.0,-5.0,-29.0,-974.0,-214.0
-15.0,-250.0,-44.0,-34.0,-66.0,-3.0,-24.0,-971.0,-214.0
-15.0,-251.0,-44.0,-34.0,-62.0,-4.0,-29.0,-972.0,-215.0
-14.0,-251.0,-42.0,-32.0,-58.0,-3.0,-21.0,-974.0,-209.0
-15.0,-251.0,-43.0,-29.0,-57.0,-1.0,-19.0,-972.0,-204.0
-11.0,-252.0,-43.0,-25.0,-56.0,1.0,-22.0,-979.0,-205.0
-23.0,-260.0,-38.0,-20.0,-54.0,3.0,-21.0,-972.0,-205.0
-11.0,-253.0,-42.0,-19.0,-51.0,5.0,-18.0,-979.0,-202.0
-12.0,-251.0,-41.0,-19.0,-49.0,6.0,-12.0,-975.0,-205.0
-11.0,-254.0,-44.0,-21.0,-44.0,8.0,-18.0,-977.0,-206.0
-14.0,-252.0,-42.0,-22.0,-39.0,9.0,-17.0,-974.0,-205.0
-13.0,-251.0,-42.0,-25.0,-34.0,12.0,-17.0,-975.0,-211.0
-11.0,-254.0,-42.0,-26.0,-27.0,13.0,-17.0,-975.0,-214.0
-10.0,-254.0,-44.0,-26.0,-19.0,13.0,-14.0,-977.0,-216.0
-12.0,-254.0,-42.0,-24.0,-13.0,14.0,-19.0,-976.0,-221.0
-14.0,-253.0,-45.0,-21.0,-7.0,16.0,-15.0,-977.0,-213.0
-10.0,-255.0,-44.0,-18.0,-1.0,15.0,-17.0,-981.0,-217.0
-12.0,-251.0,-48.0,-15.0,5.0,16.0,-18.0,-985.0,-218.0
-13.0,-254.0,-42.0,-10.0,9.0,15.0,-17.0,-982.0,-218.0
-12.0,-254.0,-43.0,-9.0,13.0,15.0,-18.0,-983.0,-216.0
-12.0,-257.0,-42.0,-7.0,16.0,14.0,-17.0,-977.0,-218.0
-15.0,-251.0,-45.0,-8.0,19.0,15.0,-22.0,-981.0,-218.0
-14.0,-254.0,-47.0,-9.0,23.0,12.0,-22.0,-987.0,-223.0
-13.0,-255.0,-46.0,-12.0,26.0,13.0,-28.0,-977.0,-219.0
-14.0,-254.0,-43.0,-13.0,29.0,12.0,-25.0,-974.0,-220.0
-12.0,-254.0,-46.0,-11.0,32.0,14.0,-25.0,-981.0,-217.0
-16.0,-253.0,-45.0,-11.0,35.0,14.0,-26.0,-989.0,-215.0
-15.0,-253.0,-45.0,-4.0,38.0,14.0,-29.0,-981.0,-209.0
-14.0,-250.0,-41.0,-1.0,40.0,13.0,-32.0,-979.0,-215.0
-13.0,-256.0,-42.0,3.0,42.0,12.0,-34.0,-981.0,-212.0
-14.0,-255.0,-42.0,5.0,43.0,12.0,-30.0,-983.0,-207.0
-15.0,-254.0,-42.0,4.0,43.0,13.0,-30.0,-984.0,-211.0
-15.0,-254.0,-42.0,1.0,42.0,13.0,-33.0,-980.0,-208.0
-16.0,-252.0,-46.0,-1.0,44.0,13.0,-38.0,-983.0,-212.0
-19.0,-253.0,-43.0,-4.0,44.0,17.0,-35.0,-979.0,-214.0
-16.0,-253.0,-44.0,-1.0,46.0,18.0,-35.0,-979.0,-206.0
-15.0,-255.0,-39.0,2.0,49.0,20.0,-37.0,-973.0,-207.0
-17.0,-252.0,-42.0,6.0,54.0,23.0,-32.0,-975.0,-201.0
-12.0,-254.0,-44.0,13.0,59.0,25.0,-30.0,-973.0,-208.0
-14.0,-255.0,-42.0,18.0,65.0,28.0,-29.0,-972.0,-200.0
-10.0,-251.0,-40.0,20.0,70.0,28.0,-25.0,-976.0,-198.0
-14.0,-255.0,-36.0,21.0,74.0,29.0,-14.0,-974.0,-199.0
-13.0,-254.0,-41.0,22.0,78.0,31.0,-19.0,-981.0,-196.0
-13.0,-255.0,-38.0,21.0,81.0,30.0,-17.0,-980.0,-196.0
-13.0,-253.0,-39.0,19.0,83.0,28.0,-21.0,-979.0,-196.0
-12.0,-256.0,-38.0,17.0,87.0,28.0,-21.0,-980.0,-197.0
-15.0,-254.0,-39.0,16.0,90.0,27.0,-27.0,-980.0,-199.0
-13.0,-251.0,-42.0,16.0,97.0,25.0,-27.0,-978.0,-196.0
-18.0,-252.0,-41.0,16.0,103.0,25.0,-29.0,-977.0,-196.0
-13.0,-251.0,-38.0,16.0,110.0,25.0,-35.0,-981.0,-199.0
-7.0,-246.0,-33.0,19.0,115.0,24.0,-36.0,-977.0,-193.0
-13.0,-255.0,-36.0,21.0,120.0,24.0,-32.0,-976.0,-194.0
-18.0,-252.0,-40.0,23.0,125.0,22.0,-37.0,-976.0,-192.0
-17.0,-253.0,-39.0,26.0,128.0,22.0,-32.0,-977.0,-194.0
-16.0,-252.0,-37.0,27.0,130.0,22.0,-37.0,-974.0,-190.0
-16.0,-252.0,-36.0,24.0,133.0,20.0,-37.0,-973.0,-187.0
-14.0,-254.0,-37.0,21.0,133.0,19.0,-34.0,-981.0,-190.0
-20.0,-252.0,-37.0,16.0,135.0,16.0,-37.0,-970.0,-192.0
-16.0,-252.0,-42.0,12.0,139.0,15.0,-37.0,-978.0,-192.0
-16.0,-252.0,-36.0,7.0,141.0,13.0,-40.0,-974.0,-193.0
-18.0,-252.0,-38.0,5.0,146.0,13.0,-41.0,-978.0,-188.0
-17.0,-253.0,-40.0,4.0,152.0,12.0,-39.0,-977.0,-187.0
-16.0,-254.0,-37.0,2.0,158.0,11.0,-43.0,-979.0,-189.0
-19.0,-253.0,-37.0,1.0,164.0,9.0,-40.0,-980.0,-186.0
-18.0,-252.0,-38.0,0.0,169.0,9.0,-41.0,-984.0,-184.0
-20.0,-257.0,-35.0,-3.0,175.0,8.0,-44.0,-982.0,-187.0
-19.0,-255.0,-35.0,-2.0,176.0,8.0,-42.0,-984.0,-187.0
-19.0,-252.0,-37.0,-3.0,176.0,9.0,-40.0,-981.0,-191.0
-16.0,-254.0,-38.0,-3.0,178.0,9.0,-39.0,-977.0,-193.0
-17.0,-253.0,-37.0,-1.0,177.0,9.0,-39.0,-979.0,-193.0
-20.0,-251.0,-37.0,-1.0,175.0,9.0,-39.0,-979.0,-190.0
-27.0,-257.0,-37.0,1.0,176.0,10.0,-42.0,-982.0,-191.0
-18.0,-252.0,-36.0,2.0,177.0,10.0,-42.0,-973.0,-188.0
-18.0,-253.0,-36.0,4.0,179.0,10.0,-47.0,-971.0,-185.0
-19.0,-253.0,-39.0,4.0,182.0,11.0,-46.0,-977.0,-186.0
-21.0,-250.0,-34.0,4.0,183.0,11.0,-46.0,-979.0,-184.0
-20.0,-254.0,-36.0,4.0,184.0,11.0,-48.0,-980.0,-186.0
-18.0,-254.0,-36.0,5.0,185.0,11.0,-41.0,-978.0,-186.0
-18.0,-255.0,-37.0,3.0,184.0,11.0,-46.0,-980.0,-185.0
-20.0,-253.0,-38.0,-1.0,185.0,12.0,-42.0,-978.0,-186.0
-19.0,-255.0,-33.0,-2.0,188.0,11.0,-47.0,-981.0,-190.0
-19.0,-255.0,-35.0,-3.0,190.0,12.0,-40.0,-982.0,-189.0
-18.0,-257.0,-37.0,-3.0,192.0,12.0,-43.0,-991.0,-185.0
-18.0,-252.0,-38.0,-3.0,193.0,11.0,-40.0,-983.0,-188.0
-20.0,-253.0,-36.0,-1.0,194.0,12.0,-47.0,-988.0,-185.0
-22.0,-252.0,-35.0,2.0,194.0,12.0,-47.0,-983.0,-188.0
-21.0,-255.0,-35.0,2.0,194.0,12.0,-48.0,-986.0,-188.0
-17.0,-256.0,-37.0,6.0,194.0,11.0,-52.0,-985.0,-184.0
-21.0,-254.0,-37.0,8.0,194.0,11.0,-54.0,-983.0,-184.0
-22.0,-251.0,-36.0,10.0,193.0,13.0,-53.0,-983.0,-193.0
-21.0,-254.0,-42.0,9.0,191.0,13.0,-53.0,-978.0,-188.0
-21.0,-252.0,-39.0,8.0,186.0,13.0,-51.0,-971.0,-191.0
-20.0,-252.0,-39.0,7.0,185.0,13.0,-53.0,-979.0,-191.0
-27.0,-249.0,-32.0,5.0,184.0,14.0,-47.0,-973.0,-195.0
-19.0,-250.0,-35.0,4.0,183.0,15.0,-48.0,-969.0,-191.0
-18.0,-254.0,-37.0,4.0,182.0,15.0,-44.0,-965.0,-194.0
-18.0,-251.0,-38.0,5.0,182.0,15.0,-47.0,-966.0,-197.0
-17.0,-253.0,-39.0,6.0,182.0,16.0,-44.0,-975.0,-187.0
-18.0,-253.0,-37.0,7.0,182.0,15.0,-46.0,-975.0,-191.0
-17.0,-253.0,-38.0,8.0,182.0,14.0,-39.0,-977.0,-191.0
-20.0,-250.0,-33.0,9.0,183.0,14.0,-41.0,-975.0,-192.0
-16.0,-250.0,-42.0,8.0,183.0,14.0,-43.0,-975.0,-185.0
-18.0,-254.0,-33.0,6.0,182.0,12.0,-38.0,-980.0,-191.0
-21.0,-251.0,-37.0,6.0,179.0,10.0,-37.0,-974.0,-191.0
-18.0,-255.0,-35.0,3.0,180.0,10.0,-38.0,-980.0,-193.0
-21.0,-254.0,-38.0,2.0,179.0,11.0,-43.0,-981.0,-190.0
-20.0,-254.0,-36.0,0.0,181.0,11.0,-46.0,-986.0,-191.0
-18.0,-255.0,-36.0,-1.0,181.0,10.0,-45.0,-978.0,-195.0
-20.0,-256.0,-39.0,-3.0,181.0,10.0,-42.0,-981.0,-195.0
-21.0,-254.0,-37.0,-2.0,181.0,11.0,-41.0,-977.0,-192.0
-20.0,-254.0,-41.0,-2.0,180.0,11.0,-41.0,-981.0,-194.0
-19.0,-257.0,-44.0,0.0,177.0,11.0,-45.0,-976.0,-198.0
-18.0,-252.0,-40.0,2.0,173.0,11.0,-44.0,-974.0,-195.0
-20.0,-249.0,-39.0,3.0,170.0,9.0,-44.0,-974.0,-190.0
-18.0,-254.0,-39.0,3.0,168.0,8.0,-44.0,-966.0,-192.0
-29.0,-258.0,-40.0,1.0,166.0,5.0,-46.0,-969.0,-189.0
-21.0,-251.0,-41.0,-5.0,164.0,5.0,-52.0,-970.0,-194.0
-21.0,-251.0,-40.0,-10.0,164.0,5.0,-47.0,-967.0,-192.0
-19.0,-255.0,-38.0,-17.0,166.0,5.0,-54.0,-968.0,-191.0
-18.0,-250.0,-39.0,-22.0,165.0,5.0,-49.0,-972.0,-190.0
-18.0,-250.0,-38.0,-26.0,167.0,4.0,-50.0,-977.0,-192.0
-19.0,-252.0,-40.0,-26.0,167.0,5.0,-43.0,-977.0,-190.0
-21.0,-249.0,-36.0,-25.0,167.0,7.0,-46.0,-982.0,-191.0
-18.0,-254.0,-38.0,-23.0,166.0,7.0,-45.0,-977.0,-192.0
-17.0,-256.0,-39.0,-21.0,165.0,9.0,-45.0,-984.0,-195.0
-19.0,-252.0,-43.0,-22.0,161.0,9.0,-46.0,-983.0,-195.0
-23.0,-254.0,-41.0,-25.0,156.0,8.0,-42.0,-975.0,-198.0
-20.0,-251.0,-45.0,-31.0,149.0,8.0,-46.0,-975.0,-201.0
-18.0,-253.0,-41.0,-35.0,142.0,6.0,-49.0,-979.0,-200.0
-23.0,-254.0,-39.0,-38.0,136.0,5.0,-55.0,-977.0,-199.0
-21.0,-255.0,-41.0,-38.0,131.0,5.0,-53.0,-976.0,-198.0
-24.0,-252.0,-39.0,-37.0,122.0,5.0,-60.0,-979.0,-197.0
-22.0,-253.0,-39.0,-35.0,117.0,4.0,-54.0,-976.0,-197.0
-22.0,-255.0,-38.0,-35.0,115.0,1.0,-49.0,-971.0,-199.0
-19.0,-252.0,-39.0,-32.0,113.0,0.0,-53.0,-975.0,-196.0
-22.0,-251.0,-37.0,-29.0,111.0,0.0,-48.0,-973.0,-195.0
-19.0,-252.0,-39.0,-27.0,109.0,0.0,-47.0,-971.0,-195.0
-18.0,-249.0,-43.0,-28.0,105.0,-1.0,-51.0,-969.0,-196.0
-21.0,-252.0,-40.0,-29.0,100.0,-1.0,-50.0,-970.0,-199.0
-22.0,-253.0,-43.0,-32.0,98.0,1.0,-56.0,-970.0,-201.0
-22.0,-255.0,-39.0,-36.0,93.0,0.0,-54.0,-974.0,-203.0
-23.0,-252.0,-38.0,-42.0,90.0,-2.0,-59.0,-977.0,-200.0
-23.0,-253.0,-39.0,-48.0,86.0,-1.0,-62.0,-981.0,-202.0
-22.0,-253.0,-38.0,-54.0,83.0,0.0,-55.0,-983.0,-203.0
-21.0,-253.0,-39.0,-56.0,82.0,-2.0,-60.0,-986.0,-202.0
-22.0,-252.0,-40.0,-58.0,79.0,-2.0,-56.0,-982.0,-207.0
-24.0,-255.0,-38.0,-59.0,75.0,-4.0,-53.0,-983.0,-203.0
-22.0,-252.0,-41.0,-56.0,69.0,-5.0,-65.0,-979.0,-199.0
-23.0,-253.0,-42.0,-55.0,63.0,-7.0,-58.0,-977.0,-209.0
-24.0,-254.0,-41.0,-55.0,56.0,-7.0,-55.0,-978.0,-206.0
-25.0,-251.0,-43.0,-54.0,52.0,-9.0,-53.0,-973.0,-209.0
-21.0,-252.0,-43.0,-54.0,47.0,-10.0,-56.0,-977.0,-206.0
-20.0,-252.0,-45.0,-57.0,43.0,-9.0,-58.0,-975.0,-211.0
-19.0,-251.0,-41.0,-59.0,39.0,-8.0,-52.0,-979.0,-206.0
-22.0,-252.0,-47.0,-60.0,35.0,-9.0,-51.0,-979.0,-205.0
-22.0,-250.0,-45.0,-63.0,33.0,-9.0,-58.0,-975.0,-211.0
-20.0,-252.0,-42.0,-66.0,31.0,-9.0,-48.0,-976.0,-211.0
-21.0,-252.0,-39.0,-68.0,29.0,-8.0,-50.0,-975.0,-206.0
-21.0,-251.0,-40.0,-70.0,27.0,-6.0,-57.0,-971.0,-209.0
-18.0,-252.0,-41.0,-74.0,26.0,-6.0,-46.0,-976.0,-207.0
-18.0,-256.0,-41.0,-76.0,23.0,-6.0,-49.0,-982.0,-208.0
-19.0,-252.0,-42.0,-79.0,21.0,-6.0,-49.0,-975.0,-215.0
-17.0,-252.0,-42.0,-79.0,20.0,-7.0,-52.0,-981.0,-205.0
-17.0,-253.0,-41.0,-79.0,16.0,-8.0,-50.0,-979.0,-210.0
-19.0,-252.0,-43.0,-79.0,12.0,-8.0,-51.0,-978.0,-215.0
-20.0,-253.0,-42.0,-79.0,7.0,-9.0,-48.0,-978.0,-211.0
-19.0,-254.0,-41.0,-80.0,5.0,-10.0,-49.0,-977.0,-210.0
-20.0,-256.0,-42.0,-79.0,0.0,-10.0,-49.0,-980.0,-212.0
-19.0,-254.0,-44.0,-80.0,-4.0,-12.0,-48.0,-972.0,-211.0
-22.0,-252.0,-43.0,-81.0,-8.0,-12.0,-50.0,-980.0,-210.0
-18.0,-253.0,-43.0,-83.0,-10.0,-12.0,-42.0,-977.0,-216.0
-20.0,-252.0,-45.0,-85.0,-14.0,-13.0,-47.0,-976.0,-219.0
-20.0,-253.0,-46.0,-90.0,-17.0,-13.0,-47.0,-981.0,-217.0
-18.0,-253.0,-46.0,-95.0,-19.0,-12.0,-45.0,-975.0,-220.0
-21.0,-250.0,-47.0,-98.0,-19.0,-14.0,-44.0,-969.0,-217.0
-20.0,-253.0,-42.0,-99.0,-19.0,-11.0,-41.0,-977.0,-223.0
-18.0,-253.0,-47.0,-99.0,-19.0,-13.0,-49.0,-976.0,-224.0
-19.0,-254.0,-48.0,-97.0,-19.0,-13.0,-46.0,-976.0,-211.0
-17.0,-253.0,-43.0,-92.0,-19.0,-12.0,-45.0,-972.0,-219.0
-17.0,-250.0,-45.0,-88.0,-19.0,-12.0,-40.0,-974.0,-219.0
-18.0,-251.0,-36.0,-87.0,-18.0,-15.0,-45.0,-973.0,-217.0
-18.0,-254.0,-43.0,-87.0,-18.0,-14.0,-40.0,-974.0,-216.0
-20.0,-250.0,-47.0,-90.0,-18.0,-14.0,-35.0,-972.0,-220.0
-19.0,-251.0,-44.0,-94.0,-19.0,-15.0,-37.0,-972.0,-216.0
-16.0,-252.0,-46.0,-99.0,-22.0,-14.0,-36.0,-968.0,-216.0
-17.0,-253.0,-44.0,-103.0,-25.0,-15.0,-35.0,-973.0,-217.0
-21.0,-249.0,-45.0,-108.0,-27.0,-16.0,-39.0,-972.0,-221.0
-18.0,-254.0,-42.0,-112.0,-26.0,-17.0,-44.0,-972.0,-221.0
-17.0,-251.0,-44.0,-112.0,-27.0,-17.0,-39.0,-968.0,-216.0
-17.0,-255.0,-46.0,-111.0,-24.0,-15.0,-44.0,-966.0,-219.0
-17.0,-252.0,-47.0,-106.0,-23.0,-16.0,-42.0,-969.0,-223.0
-19.0,-254.0,-50.0,-97.0,-22.0,-15.0,-41.0,-978.0,-223.0
-17.0,-255.0,-46.0,-87.0,-23.0,-17.0,-37.0,-978.0,-224.0
-16.0,-254.0,-47.0,-77.0,-24.0,-17.0,-35.0,-971.0,-225.0
-19.0,-254.0,-45.0,-69.0,-24.0,-17.0,-37.0,-978.0,-224.0
-15.0,-254.0,-45.0,-65.0,-22.0,-17.0,-34.0,-971.0,-226.0
-16.0,-251.0,-44.0,-63.0,-23.0,-17.0,-35.0,-971.0,-225.0
-14.0,-252.0,-45.0,-64.0,-22.0,-18.0,-34.0,-976.0,-223.0
-16.0,-251.0,-47.0,-66.0,-23.0,-17.0,-37.0,-974.0,-224.0
-17.0,-249.0,-47.0,-66.0,-24.0,-16.0,-36.0,-970.0,-226.0
-17.0,-251.0,-47.0,-65.0,-23.0,-17.0,-37.0,-973.0,-222.0
-15.0,-250.0,-49.0,-63.0,-20.0,-15.0,-31.0,-968.0,-227.0
-12.0,-243.0,-42.0,-62.0,-19.0,-14.0,-33.0,-975.0,-227.0
-15.0,-253.0,-49.0,-62.0,-15.0,-13.0,-34.0,-972.0,-226.0
-15.0,-252.0,-46.0,-63.0,-12.0,-13.0,-37.0,-975.0,-230.0
-17.0,-252.0,-46.0,-64.0,-11.0,-15.0,-33.0,-976.0,-225.0
-16.0,-252.0,-47.0,-64.0,-7.0,-16.0,-32.0,-971.0,-226.0
-14.0,-254.0,-47.0,-63.0,-5.0,-16.0,-34.0,-975.0,-224.0
-14.0,-253.0,-46.0,-63.0,-2.0,-15.0,-34.0,-974.0,-226.0
-15.0,-252.0,-49.0,-60.0,-2.0,-16.0,-31.0,-974.0,-223.0
-17.0,-252.0,-45.0,-59.0,0.0,-16.0,-30.0,-982.0,-224.0
-16.0,-258.0,-43.0,-52.0,0.0,-16.0,-36.0,-978.0,-226.0
-14.0,-257.0,-46.0,-45.0,-1.0,-15.0,-30.0,-977.0,-227.0
-19.0,-256.0,-42.0,-39.0,0.0,-15.0,-31.0,-976.0,-224.0
-20.0,-252.0,-46.0,-37.0,0.0,-15.0,-33.0,-977.0,-228.0
-18.0,-250.0,-48.0,-38.0,1.0,-12.0,-32.0,-970.0,-230.0
-14.0,-252.0,-47.0,-39.0,1.0,-12.0,-33.0,-976.0,-223.0
-12.0,-256.0,-50.0,-39.0,5.0,-11.0,-31.0,-972.0,-233.0
-14.0,-253.0,-45.0,-39.0,5.0,-9.0,-25.0,-974.0,-226.0
-13.0,-253.0,-47.0,-37.0,8.0,-9.0,-31.0,-967.0,-226.0
-16.0,-252.0,-50.0,-33.0,11.0,-7.0,-30.0,-975.0,-227.0
-15.0,-253.0,-43.0,-32.0,13.0,-6.0,-30.0,-972.0,-224.0
-14.0,-254.0,-45.0,-31.0,16.0,-7.0,-30.0,-973.0,-225.0
-11.0,-254.0,-44.0,-33.0,18.0,-6.0,-30.0,-976.0,-225.0
-22.0,-250.0,-51.0,-34.0,22.0,-7.0,-33.0,-977.0,-223.0
-17.0,-249.0,-44.0,-33.0,24.0,-6.0,-27.0,-971.0,-221.0
-12.0,-252.0,-45.0,-36.0,28.0,-7.0,-30.0,-971.0,-222.0
-13.0,-252.0,-44.0,-37.0,32.0,-6.0,-27.0,-974.0,-229.0
-17.0,-251.0,-44.0,-39.0,35.0,-7.0,-33.0,-974.0,-222.0
-15.0,-251.0,-47.0,-41.0,39.0,-7.0,-29.0,-972.0,-223.0
-12.0,-251.0,-50.0,-42.0,41.0,-7.0,-32.0,-973.0,-222.0
-14.0,-252.0,-44.0,-42.0,43.0,-6.0,-27.0,-976.0,-224.0
-15.0,-250.0,-45.0,-42.0,47.0,-5.0,-32.0,-978.0,-220.0
-14.0,-252.0,-46.0,-41.0,51.0,-4.0,-30.0,-973.0,-224.0
-13.0,-253.0,-46.0,-40.0,55.0,-4.0,-29.0,-974.0,-220.0
-14.0,-254.0,-44.0,-37.0,57.0,-4.0,-25.0,-974.0,-222.0
-16.0,-251.0,-43.0,-37.0,59.0,-3.0,-32.0,-974.0,-221.0
-16.0,-254.0,-44.0,-39.0,62.0,-2.0,-33.0,-970.0,-224.0
-17.0,-250.0,-49.0,-40.0,65.0,-2.0,-32.0,-971.0,-224.0
-14.0,-250.0,-44.0,-41.0,67.0,-1.0,-32.0,-978.0,-221.0
-14.0,-252.0,-44.0,-42.0,69.0,2.0,-34.0,-975.0,-225.0
-15.0,-251.0,-45.0,-43.0,72.0,0.0,-32.0,-972.0,-224.0
-14.0,-252.0,-45.0,-42.0,73.0,1.0,-33.0,-972.0,-223.0
-16.0,-253.0,-46.0,-43.0,74.0,1.0,-32.0,-972.0,-226.0
-15.0,-253.0,-46.0,-42.0,79.0,0.0,-30.0,-973.0,-226.0
-15.0,-256.0,-48.0,-43.0,82.0,2.0,-32.0,-976.0,-230.0
-12.0,-255.0,-59.0,-43.0,84.0,2.0,-35.0,-971.0,-224.0
-14.0,-253.0,-48.0,-42.0,87.0,3.0,-33.0,-973.0,-225.0
-15.0,-255.0,-48.0,-40.0,89.0,3.0,-32.0,-974.0,-226.0
-17.0,-252.0,-48.0,-36.0,91.0,3.0,-34.0,-975.0,-229.0
-16.0,-253.0,-45.0,-34.0,94.0,2.0,-33.0,-972.0,-227.0
-16.0,-253.0,-47.0,-34.0,96.0,1.0,-37.0,-973.0,-226.0
-18.0,-251.0,-46.0,-36.0,99.0,1.0,-33.0,-970.0,-225.0
-16.0,-250.0,-42.0,-36.0,102.0,2.0,-36.0,-971.0,-228.0
-15.0,-250.0,-45.0,-33.0,104.0,0.0,-36.0,-972.0,-226.0
-16.0,-253.0,-48.0,-30.0,106.0,1.0,-35.0,-971.0,-228.0
-13.0,-256.0,-45.0,-26.0,108.0,1.0,-38.0,-970.0,-221.0
-15.0,-254.0,-49.0,-24.0,109.0,-1.0,-39.0,-980.0,-224.0
-16.0,-255.0,-47.0,-22.0,108.0,-3.0,-41.0,-977.0,-225.0
-16.0,-251.0,-49.0,-20.0,108.0,-1.0,-34.0,-978.0,-223.0
-17.0,-254.0,-48.0,-20.0,109.0,0.0,-35.0,-979.0,-227.0
-16.0,-255.0,-46.0,-18.0,109.0,0.0,-37.0,-974.0,-227.0
-16.0,-250.0,-48.0,-21.0,110.0,0.0,-36.0,-973.0,-226.0
-15.0,-250.0,-46.0,-26.0,112.0,2.0,-40.0,-972.0,-227.0
-15.0,-256.0,-46.0,-28.0,114.0,1.0,-40.0,-968.0,-225.0
-18.0,-248.0,-47.0,-30.0,117.0,2.0,-36.0,-970.0,-217.0
-15.0,-252.0,-49.0,-29.0,119.0,0.0,-38.0,-963.0,-220.0
-18.0,-250.0,-47.0,-28.0,123.0,-2.0,-35.0,-965.0,-225.0
-13.0,-249.0,-53.0,-29.0,126.0,0.0,-37.0,-972.0,-224.0
-18.0,-251.0,-47.0,-29.0,130.0,2.0,-35.0,-972.0,-225.0
-17.0,-248.0,-50.0,-28.0,131.0,3.0,-34.0,-973.0,-228.0
-16.0,-252.0,-46.0,-25.0,134.0,5.0,-35.0,-974.0,-221.0
-17.0,-252.0,-45.0,-20.0,135.0,4.0,-32.0,-980.0,-221.0
-16.0,-254.0,-46.0,-17.0,137.0,4.0,-31.0,-971.0,-224.0
-15.0,-252.0,-47.0,-13.0,137.0,3.0,-35.0,-978.0,-223.0
-14.0,-253.0,-46.0,-14.0,140.0,2.0,-38.0,-973.0,-226.0
-16.0,-253.0,-49.0,-20.0,141.0,0.0,-36.0,-971.0,-226.0
-16.0,-250.0,-44.0,-28.0,142.0,-1.0,-41.0,-971.0,-225.0
-21.0,-251.0,-47.0,-36.0,141.0,-2.0,-41.0,-970.0,-231.0
-19.0,-249.0,-46.0,-41.0,140.0,-3.0,-44.0,-966.0,-226.0
-20.0,-251.0,-45.0,-42.0,137.0,-1.0,-43.0,-967.0,-227.0
-19.0,-254.0,-47.0,-38.0,134.0,-1.0,-40.0,-972.0,-225.0
-18.0,-249.0,-45.0,-33.0,134.0,-3.0,-35.0,-975.0,-230.0
-17.0,-253.0,-46.0,-23.0,132.0,-4.0,-45.0,-975.0,-224.0
-18.0,-252.0,-48.0,-13.0,132.0,-4.0,-33.0,-974.0,-224.0
-20.0,-252.0,-42.0,-5.0,135.0,-5.0,-37.0,-975.0,-220.0
-19.0,-251.0,-44.0,2.0,136.0,-5.0,-39.0,-976.0,-220.0
-15.0,-250.0,-43.0,7.0,137.0,-6.0,-32.0,-973.0,-223.0
-15.0,-254.0,-46.0,7.0,136.0,-4.0,-35.0,-980.0,-226.0
-14.0,-245.0,-45.0,7.0,138.0,-6.0,-35.0,-983.0,-230.0
-18.0,-252.0,-48.0,4.0,137.0,-4.0,-42.0,-978.0,-228.0
-18.0,-253.0,-51.0,3.0,138.0,-4.0,-40.0,-974.0,-226.0
-18.0,-254.0,-47.0,3.0,140.0,-4.0,-44.0,-973.0,-234.0
-18.0,-251.0,-48.0,5.0,141.0,-2.0,-37.0,-970.0,-231.0
-18.0,-250.0,-49.0,7.0,143.0,-1.0,-39.0,-967.0,-230.0
-16.0,-253.0,-51.0,7.0,143.0,1.0,-37.0,-968.0,-225.0
-16.0,-251.0,-48.0,8.0,144.0,1.0,-37.0,-966.0,-232.0
-16.0,-252.0,-46.0,8.0,143.0,1.0,-38.0,-971.0,-225.0
-17.0,-251.0,-46.0,6.0,144.0,-1.0,-39.0,-968.0,-226.0
-21.0,-251.0,-50.0,3.0,142.0,0.0,-35.0,-969.0,-225.0
-17.0,-250.0,-52.0,2.0,140.0,1.0,-40.0,-968.0,-227.0
-16.0,-252.0,-48.0,-1.0,139.0,0.0,-39.0,-968.0,-232.0
-16.0,-253.0,-50.0,-5.0,136.0,1.0,-40.0,-970.0,-226.0
-14.0,-253.0,-48.0,-8.0,136.0,1.0,-40.0,-970.0,-234.0
-16.0,-251.0,-46.0,-9.0,135.0,2.0,-42.0,-975.0,-232.0
-19.0,-254.0,-49.0,-12.0,134.0,2.0,-41.0,-971.0,-229.0
-17.0,-253.0,-51.0,-13.0,135.0,4.0,-41.0,-975.0,-236.0
-18.0,-252.0,-52.0,-13.0,136.0,3.0,-40.0,-974.0,-235.0
-18.0,-251.0,-48.0,-12.0,133.0,3.0,-44.0,-973.0,-236.0
-19.0,-252.0,-49.0,-10.0,134.0,4.0,-36.0,-974.0,-234.0
-20.0,-255.0,-47.0,-8.0,136.0,3.0,-41.0,-977.0,-235.0
-20.0,-252.0,-47.0,-6.0,134.0,4.0,-41.0,-978.0,-236.0
-17.0,-254.0,-49.0,-5.0,134.0,4.0,-43.0,-974.0,-235.0
-19.0,-253.0,-53.0,-6.0,134.0,2.0,-41.0,-975.0,-235.0
-17.0,-253.0,-47.0,-6.0,134.0,3.0,-41.0,-968.0,-238.0
-18.0,-253.0,-48.0,-7.0,130.0,3.0,-37.0,-976.0,-232.0
-18.0,-252.0,-48.0,-6.0,128.0,3.0,-37.0,-970.0,-231.0
-17.0,-251.0,-50.0,-4.0,126.0,3.0,-39.0,-971.0,-231.0
-15.0,-252.0,-47.0,-2.0,124.0,4.0,-42.0,-969.0,-235.0
-16.0,-251.0,-49.0,1.0,123.0,4.0,-33.0,-966.0,-231.0
-14.0,-253.0,-51.0,2.0,120.0,4.0,-35.0,-971.0,-228.0
-16.0,-250.0,-48.0,3.0,119.0,3.0,-36.0,-969.0,-225.0
-16.0,-251.0,-47.0,1.0,118.0,4.0,-39.0,-965.0,-231.0
-17.0,-249.0,-49.0,1.0,116.0,4.0,-38.0,-972.0,-228.0
-17.0,-252.0,-48.0,1.0,116.0,4.0,-34.0,-965.0,-232.0
-19.0,-250.0,-45.0,0.0,113.0,3.0,-40.0,-974.0,-235.0
-14.0,-252.0,-49.0,-3.0,112.0,2.0,-37.0,-969.0,-235.0
-20.0,-250.0,-50.0,-5.0,112.0,2.0,-40.0,-966.0,-236.0
-19.0,-251.0,-48.0,-5.0,110.0,3.0,-39.0,-966.0,-231.0
-16.0,-253.0,-49.0,-5.0,109.0,3.0,-38.0,-965.0,-237.0
-17.0,-251.0,-51.0,-5.0,110.0,2.0,-32.0,-968.0,-230.0
-18.0,-248.0,-48.0,-3.0,110.0,1.0,-38.0,-970.0,-237.0
-14.0,-248.0,-46.0,-3.0,108.0,0.0,-36.0,-963.0,-229.0
-14.0,-251.0,-53.0,-3.0,106.0,1.0,-35.0,-964.0,-225.0
-18.0,-251.0,-48.0,-3.0,104.0,0.0,-38.0,-970.0,-233.0
-16.0,-254.0,-50.0,-2.0,101.0,-1.0,-38.0,-969.0,-231.0
-15.0,-249.0,-49.0,-2.0,98.0,-1.0,-38.0,-968.0,-232.0
-18.0,-252.0,-49.0,-3.0,98.0,-1.0,-34.0,-966.0,-234.0
-17.0,-252.0,-47.0,-2.0,93.0,0.0,-34.0,-967.0,-239.0
-18.0,-251.0,-48.0,-1.0,92.0,1.0,-35.0,-966.0,-236.0
-19.0,-251.0,-51.0,-2.0,92.0,1.0,-42.0,-971.0,-238.0
-18.0,-252.0,-55.0,-3.0,93.0,0.0,-41.0,-970.0,-232.0
-16.0,-252.0,-49.0,-3.0,93.0,0.0,-41.0,-968.0,-234.0
-19.0,-246.0,-50.0,-2.0,93.0,0.0,-42.0,-969.0,-231.0
-17.0,-252.0,-50.0,0.0,93.0,-1.0,-32.0,-969.0,-237.0
-19.0,-252.0,-51.0,0.0,93.0,0.0,-34.0,-975.0,-231.0
-17.0,-252.0,-48.0,2.0,93.0,0.0,-35.0,-973.0,-232.0
-18.0,-252.0,-50.0,3.0,93.0,-1.0,-37.0,-975.0,-233.0
-18.0,-251.0,-48.0,4.0,94.0,-1.0,-35.0,-971.0,-236.0
-16.0,-253.0,-46.0,3.0,95.0,-3.0,-38.0,-974.0,-237.0
-15.0,-254.0,-51.0,3.0,95.0,-4.0,-30.0,-979.0,-234.0
-18.0,-253.0,-49.0,2.0,92.0,-3.0,-34.0,-977.0,-231.0
-16.0,-252.0,-49.0,3.0,92.0,-4.0,-38.0,-975.0,-236.0
-18.0,-253.0,-47.0,4.0,90.0,-3.0,-36.0,-969.0,-235.0
-17.0,-250.0,-48.0,4.0,90.0,-4.0,-37.0,-972.0,-240.0
-19.0,-252.0,-47.0,5.0,91.0,-4.0,-34.0,-972.0,-238.0
-17.0,-252.0,-50.0,6.0,90.0,-6.0,-42.0,-969.0,-240.0
-19.0,-248.0,-50.0,8.0,90.0,-6.0,-33.0,-975.0,-234.0
-18.0,-252.0,-46.0,10.0,89.0,-5.0,-33.0,-966.0,-233.0
-13.0,-254.0,-49.0,10.0,89.0,-5.0,-34.0,-972.0,-233.0
-15.0,-250.0,-49.0,10.0,88.0,-4.0,-40.0,-974.0,-230.0
-18.0,-252.0,-46.0,11.0,85.0,-2.0,-35.0,-974.0,-237.0
-19.0,-253.0,-46.0,12.0,83.0,-3.0,-39.0,-968.0,-228.0
-20.0,-250.0,-50.0,10.0,80.0,-2.0,-39.0,-975.0,-226.0
-16.0,-251.0,-48.0,9.0,79.0,-2.0,-37.0,-978.0,-234.0
-19.0,-252.0,-43.0,8.0,76.0,-2.0,-32.0,-977.0,-231.0
-20.0,-251.0,-51.0,6.0,74.0,-3.0,-35.0,-977.0,-226.0
-19.0,-252.0,-51.0,6.0,72.0,-1.0,-37.0,-976.0,-229.0
-18.0,-251.0,-48.0,6.0,71.0,-1.0,-35.0,-974.0,-225.0
-17.0,-253.0,-46.0,7.0,67.0,-1.0,-34.0,-973.0,-223.0
-16.0,-252.0,-46.0,8.0,65.0,-2.0,-39.0,-977.0,-226.0
-17.0,-252.0,-48.0,11.0,63.0,0.0,-33.0,-966.0,-226.0
-18.0,-252.0,-45.0,11.0,61.0,0.0,-34.0,-972.0,-221.0
-15.0,-249.0,-43.0,10.0,62.0,1.0,-35.0,-971.0,-226.0
-19.0,-249.0,-47.0,11.0,62.0,3.0,-33.0,-972.0,-231.0
-18.0,-251.0,-44.0,11.0,63.0,3.0,-34.0,-967.0,-229.0
-19.0,-251.0,-44.0,10.0,65.0,3.0,-27.0,-970.0,-227.0
-16.0,-253.0,-45.0,9.0,64.0,4.0,-33.0,-965.0,-225.0
-14.0,-252.0,-49.0,6.0,64.0,4.0,-31.0,-965.0,-232.0
-15.0,-254.0,-47.0,6.0,64.0,3.0,-30.0,-969.0,-228.0
-17.0,-252.0,-49.0,5.0,62.0,3.0,-32.0,-971.0,-225.0
-14.0,-254.0,-47.0,6.0,61.0,3.0,-29.0,-970.0,-225.0
-13.0,-251.0,-49.0,6.0,60.0,2.0,-32.0,-968.0,-226.0
-15.0,-255.0,-46.0,6.0,60.0,2.0,-33.0,-972.0,-225.0
-14.0,-253.0,-44.0,6.0,59.0,3.0,-34.0,-970.0,-224.0
-17.0,-251.0,-49.0,7.0,60.0,1.0,-34.0,-966.0,-226.0
-17.0,-254.0,-46.0,7.0,59.0,3.0,-38.0,-974.0,-225.0
-16.0,-254.0,-46.0,6.0,62.0,2.0,-36.0,-969.0,-225.0
-15.0,-255.0,-43.0,5.0,62.0,0.0,-37.0,-972.0,-220.0
-15.0,-251.0,-43.0,7.0,63.0,0.0,-35.0,-975.0,-225.0
-16.0,-252.0,-46.0,8.0,64.0,0.0,-32.0,-971.0,-220.0
-14.0,-250.0,-47.0,8.0,65.0,-1.0,-37.0,-971.0,-224.0
-13.0,-255.0,-48.0,7.0,66.0,-2.0,-33.0,-973.0,-225.0
-17.0,-253.0,-47.0,7.0,65.0,1.0,-33.0,-976.0,-223.0
-13.0,-253.0,-46.0,6.0,65.0,0.0,-33.0,-977.0,-223.0
-14.0,-253.0,-50.0,8.0,65.0,-1.0,-35.0,-977.0,-226.0
-17.0,-254.0,-47.0,8.0,65.0,1.0,-32.0,-980.0,-228.0
-14.0,-253.0,-48.0,5.0,65.0,2.0,-33.0,-976.0,-226.0
-15.0,-247.0,-38.0,3.0,65.0,1.0,-33.0,-976.0,-226.0
-16.0,-254.0,-48.0,0.0,62.0,0.0,-33.0,-970.0,-225.0
-13.0,-252.0,-45.0,-1.0,60.0,-1.0,-32.0,-977.0,-224.0
-14.0,-250.0,-45.0,-3.0,59.0,-2.0,-32.0,-973.0,-223.0
-13.0,-251.0,-43.0,-3.0,58.0,-1.0,-33.0,-970.0,-222.0
-16.0,-251.0,-46.0,-3.0,57.0,-1.0,-33.0,-974.0,-222.0
-16.0,-250.0,-48.0,-4.0,55.0,-1.0,-32.0,-968.0,-223.0
-14.0,-253.0,-46.0,-2.0,54.0,-1.0,-33.0,-967.0,-216.0
-15.0,-255.0,-47.0,-1.0,50.0,-1.0,-35.0,-975.0,-225.0
-18.0,-252.0,-43.0,2.0,49.0,2.0,-33.0,-978.0,-225.0
-15.0,-251.0,-44.0,5.0,47.0,4.0,-39.0,-978.0,-218.0
-16.0,-252.0,-45.0,7.0,45.0,4.0,-35.0,-978.0,-224.0
-18.0,-255.0,-43.0,8.0,45.0,3.0,-32.0,-978.0,-223.0
-16.0,-254.0,-46.0,8.0,46.0,4.0,-38.0,-974.0,-225.0
-21.0,-250.0,-47.0,6.0,47.0,4.0,-36.0,-976.0,-223.0
-17.0,-251.0,-46.0,5.0,48.0,4.0,-40.0,-970.0,-225.0
-16.0,-251.0,-44.0,3.0,48.0,5.0,-43.0,-978.0,-228.0
-19.0,-252.0,-44.0,2.0,49.0,7.0,-39.0,-972.0,-222.0
-17.0,-251.0,-48.0,0.0,47.0,7.0,-38.0,-972.0,-213.0
-18.0,-253.0,-49.0,0.0,43.0,6.0,-41.0,-971.0,-223.0
-17.0,-252.0,-47.0,0.0,41.0,6.0,-38.0,-972.0,-216.0
-16.0,-252.0,-44.0,1.0,39.0,5.0,-35.0,-971.0,-220.0
-18.0,-249.0,-40.0,4.0,37.0,3.0,-33.0,-971.0,-220.0
-15.0,-249.0,-43.0,6.0,35.0,0.0,-35.0,-969.0,-220.0
-15.0,-250.0,-45.0,8.0,36.0,-1.0,-34.0,-966.0,-217.0
-18.0,-250.0,-45.0,11.0,35.0,0.0,-35.0,-970.0,-210.0
-17.0,-254.0,-44.0,13.0,35.0,-1.0,-35.0,-974.0,-212.0
-19.0,-249.0,-46.0,16.0,34.0,-1.0,-40.0,-967.0,-215.0
-17.0,-250.0,-44.0,15.0,33.0,-3.0,-37.0,-970.0,-221.0
-15.0,-253.0,-43.0,15.0,34.0,-1.0,-38.0,-975.0,-216.0
-16.0,-255.0,-45.0,15.0,33.0,-2.0,-40.0,-974.0,-214.0
-14.0,-255.0,-46.0,13.0,34.0,-2.0,-31.0,-978.0,-213.0
-16.0,-255.0,-46.0,10.0,33.0,-2.0,-34.0,-979.0,-215.0
-16.0,-254.0,-45.0,11.0,31.0,-2.0,-40.0,-975.0,-219.0
-17.0,-255.0,-44.0,11.0,28.0,-4.0,-33.0,-978.0,-215.0
-15.0,-254.0,-47.0,8.0,25.0,-3.0,-35.0,-976.0,-212.0
-18.0,-251.0,-44.0,6.0,25.0,-3.0,-32.0,-973.0,-220.0
-15.0,-250.0,-43.0,4.0,21.0,-3.0,-32.0,-976.0,-219.0
-14.0,-250.0,-43.0,4.0,18.0,-4.0,-30.0,-974.0,-215.0
-17.0,-250.0,-44.0,6.0,17.0,-5.0,-32.0,-968.0,-218.0
-15.0,-250.0,-43.0,7.0,15.0,-5.0,-26.0,-968.0,-220.0
-17.0,-251.0,-44.0,8.0,17.0,-5.0,-35.0,-971.0,-217.0
-17.0,-249.0,-50.0,6.0,19.0,-4.0,-39.0,-970.0,-220.0
-18.0,-254.0,-47.0,6.0,20.0,-4.0,-35.0,-972.0,-219.0
-18.0,-250.0,-46.0,5.0,23.0,-4.0,-39.0,-973.0,-221.0
-16.0,-251.0,-48.0,4.0,25.0,-5.0,-33.0,-974.0,-222.0
-16.0,-252.0,-48.0,0.0,27.0,-5.0,-35.0,-979.0,-220.0
-20.0,-252.0,-46.0,0.0,27.0,-5.0,-32.0,-979.0,-219.0
-16.0,-255.0,-46.0,-4.0,28.0,-5.0,-34.0,-978.0,-221.0
-17.0,-252.0,-47.0,-6.0,28.0,-6.0,-35.0,-978.0,-221.0
-16.0,-257.0,-51.0,-6.0,28.0,-7.0,-40.0,-980.0,-221.0
-17.0,-254.0,-46.0,-5.0,26.0,-8.0,-42.0,-977.0,-218.0
-14.0,-256.0,-47.0,-5.0,25.0,-9.0,-40.0,-977.0,-216.0
-19.0,-253.0,-46.0,-4.0,24.0,-9.0,-38.0,-977.0,-216.0
-18.0,-255.0,-45.0,0.0,21.0,-10.0,-36.0,-970.0,-215.0
-16.0,-251.0,-47.0,4.0,18.0,-9.0,-38.0,-969.0,-210.0
-21.0,-251.0,-42.0,8.0,18.0,-9.0,-39.0,-973.0,-215.0
-19.0,-249.0,-47.0,11.0,16.0,-8.0,-39.0,-972.0,-215.0
-20.0,-252.0,-42.0,15.0,18.0,-7.0,-37.0,-975.0,-216.0
-18.0,-251.0,-43.0,15.0,18.0,-6.0,-37.0,-974.0,-214.0
-16.0,-254.0,-43.0,13.0,19.0,-6.0,-38.0,-971.0,-212.0
-19.0,-252.0,-45.0,10.0,19.0,-6.0,-38.0,-979.0,-210.0
-19.0,-251.0,-40.0,7.0,20.0,-7.0,-38.0,-978.0,-213.0
-19.0,-253.0,-43.0,3.0,18.0,-9.0,-42.0,-977.0,-218.0
-17.0,-253.0,-45.0,3.0,18.0,-8.0,-43.0,-978.0,-213.0
-15.0,-252.0,-45.0,3.0,16.0,-8.0,-43.0,-977.0,-217.0
-15.0,-253.0,-41.0,7.0,16.0,-8.0,-42.0,-973.0,-219.0
-17.0,-253.0,-44.0,11.0,16.0,-8.0,-40.0,-977.0,-213.0
-22.0,-253.0,-46.0,14.0,17.0,-6.0,-36.0,-975.0,-213.0
-14.0,-252.0,-45.0,17.0,18.0,-5.0,-37.0,-978.0,-215.0
-16.0,-251.0,-45.0,19.0,20.0,-4.0,-37.0,-975.0,-210.0
-15.0,-252.0,-45.0,20.0,19.0,-2.0,-40.0,-971.0,-216.0
-17.0,-253.0,-44.0,19.0,19.0,0.0,-36.0,-975.0,-216.0
-14.0,-252.0,-43.0,19.0,19.0,1.0,-34.0,-977.0,-214.0
-19.0,-252.0,-43.0,15.0,19.0,2.0,-37.0,-972.0,-219.0
-19.0,-251.0,-45.0,13.0,17.0,2.0,-34.0,-977.0,-216.0
-16.0,-255.0,-46.0,12.0,15.0,3.0,-37.0,-973.0,-218.0
-17.0,-252.0,-46.0,12.0,12.0,3.0,-41.0,-970.0,-219.0
-20.0,-252.0,-46.0,13.0,11.0,3.0,-36.0,-974.0,-216.0
-12.0,-255.0,-42.0,17.0,11.0,4.0,-37.0,-974.0,-219.0
-19.0,-250.0,-46.0,20.0,13.0,6.0,-37.0,-972.0,-221.0
-18.0,-253.0,-45.0,22.0,16.0,9.0,-37.0,-972.0,-218.0
-17.0,-252.0,-48.0,22.0,17.0,9.0,-41.0,-972.0,-216.0
-16.0,-252.0,-42.0,23.0,21.0,9.0,-32.0,-977.0,-216.0
-16.0,-255.0,-44.0,23.0,24.0,9.0,-40.0,-974.0,-215.0
-17.0,-253.0,-41.0,22.0,29.0,9.0,-38.0,-977.0,-215.0
-19.0,-252.0,-44.0,19.0,30.0,9.0,-36.0,-980.0,-211.0
-8.0,-253.0,-33.0,18.0,33.0,10.0,-34.0,-973.0,-212.0
-17.0,-252.0,-45.0,19.0,33.0,8.0,-32.0,-979.0,-215.0
-17.0,-250.0,-42.0,19.0,33.0,8.0,-35.0,-975.0,-216.0
-17.0,-253.0,-46.0,19.0,34.0,8.0,-36.0,-969.0,-218.0
-16.0,-250.0,-43.0,17.0,35.0,8.0,-35.0,-971.0,-218.0
-17.0,-252.0,-43.0,18.0,34.0,8.0,-38.0,-974.0,-222.0
-16.0,-254.0,-43.0,19.0,36.0,5.0,-37.0,-969.0,-215.0
-16.0,-254.0,-45.0,21.0,39.0,5.0,-37.0,-964.0,-219.0
-16.0,-251.0,-45.0,20.0,43.0,6.0,-40.0,-970.0,-218.0
-15.0,-253.0,-45.0,20.0,46.0,7.0,-34.0,-973.0,-215.0
-17.0,-252.0,-44.0,19.0,49.0,7.0,-40.0,-968.0,-212.0
-17.0,-255.0,-39.0,17.0,51.0,7.0,-36.0,-972.0,-211.0
-19.0,-251.0,-44.0,16.0,54.0,6.0,-33.0,-977.0,-208.0
-17.0,-252.0,-43.0,14.0,53.0,6.0,-38.0,-975.0,-212.0
-15.0,-254.0,-44.0,13.0,53.0,5.0,-40.0,-979.0,-213.0
-16.0,-253.0,-39.0,10.0,53.0,5.0,-37.0,-980.0,-210.0
-18.0,-251.0,-46.0,9.0,54.0,3.0,-36.0,-977.0,-216.0
-18.0,-254.0,-47.0,9.0,53.0,3.0,-37.0,-978.0,-212.0
-19.0,-252.0,-44.0,10.0,53.0,0.0,-36.0,-972.0,-213.0
-21.0,-253.0,-42.0,12.0,54.0,0.0,-41.0,-977.0,-212.0
-16.0,-251.0,-42.0,13.0,55.0,-1.0,-38.0,-975.0,-214.0
-14.0,-252.0,-40.0,14.0,58.0,-3.0,-40.0,-972.0,-213.0
-15.0,-252.0,-41.0,16.0,60.0,-3.0,-37.0,-974.0,-210.0
-15.0,-251.0,-39.0,16.0,62.0,-3.0,-39.0,-978.0,-208.0
-19.0,-252.0,-43.0,12.0,65.0,-4.0,-43.0,-969.0,-209.0
-17.0,-253.0,-42.0,10.0,67.0,-5.0,-40.0,-971.0,-204.0
-18.0,-251.0,-40.0,4.0,69.0,-4.0,-42.0,-976.0,-208.0
-16.0,-253.0,-43.0,4.0,70.0,-5.0,-40.0,-972.0,-213.0
-19.0,-253.0,-47.0,0.0,70.0,-4.0,-43.0,-974.0,-212.0
-17.0,-252.0,-41.0,-3.0,68.0,-4.0,-43.0,-980.0,-212.0
-16.0,-254.0,-46.0,-4.0,68.0,-5.0,-44.0,-971.0,-206.0
-17.0,-253.0,-44.0,-5.0,67.0,-5.0,-45.0,-970.0,-212.0
-18.0,-252.0,-43.0,-6.0,69.0,-5.0,-45.0,-979.0,-215.0
-20.0,-253.0,-43.0,-6.0,68.0,-6.0,-41.0,-975.0,-210.0
-19.0,-252.0,-45.0,-4.0,69.0,-6.0,-47.0,-974.0,-210.0
-18.0,-253.0,-41.0,-2.0,68.0,-6.0,-45.0,-971.0,-212.0
-22.0,-250.0,-43.0,1.0,68.0,-5.0,-42.0,-974.0,-205.0
-20.0,-253.0,-45.0,1.0,68.0,-6.0,-42.0,-976.0,-207.0
-17.0,-252.0,-45.0,2.0,68.0,-5.0,-40.0,-977.0,-204.0
-17.0,-252.0,-40.0,1.0,67.0,-5.0,-42.0,-978.0,-210.0
-18.0,-255.0,-41.0,0.0,65.0,-6.0,-41.0,-986.0,-212.0
-19.0,-254.0,-43.0,-3.0,63.0,-4.0,-43.0,-981.0,-213.0
-18.0,-251.0,-42.0,-6.0,63.0,-4.0,-40.0,-985.0,-214.0
-18.0,-251.0,-41.0,-7.0,61.0,-3.0,-44.0,-981.0,-216.0
-19.0,-257.0,-57.0,-8.0,62.0,-3.0,-41.0,-974.0,-214.0
-20.0,-252.0,-42.0,-5.0,60.0,-2.0,-44.0,-975.0,-214.0
-21.0,-255.0,-46.0,-3.0,59.0,-3.0,-45.0,-977.0,-210.0
-21.0,-253.0,-43.0,1.0,61.0,-4.0,-43.0,-976.0,-214.0
-23.0,-254.0,-45.0,5.0,60.0,-4.0,-48.0,-977.0,-211.0
-20.0,-253.0,-41.0,8.0,61.0,-5.0,-46.0,-977.0,-211.0
-20.0,-254.0,-44.0,11.0,60.0,-4.0,-48.0,-973.0,-212.0
-21.0,-253.0,-41.0,11.0,62.0,-2.0,-45.0,-972.0,-210.0
-21.0,-251.0,-41.0,11.0,61.0,-3.0,-43.0,-978.0,-211.0
-21.0,-256.0,-40.0,9.0,62.0,0.0,-52.0,-978.0,-204.0
-19.0,-252.0,-43.0,8.0,62.0,0.0,-45.0,-978.0,-210.0
-20.0,-255.0,-44.0,6.0,62.0,0.0,-37.0,-981.0,-210.0
-17.0,-251.0,-44.0,2.0,60.0,0.0,-45.0,-979.0,-208.0
-18.0,-251.0,-41.0,0.0,57.0,0.0,-38.0,-977.0,-208.0
-16.0,-253.0,-45.0,-2.0,57.0,-1.0,-41.0,-983.0,-214.0
-20.0,-250.0,-44.0,-2.0,54.0,-2.0,-41.0,-976.0,-208.0
-18.0,-250.0,-43.0,-2.0,53.0,-1.0,-43.0,-975.0,-212.0
-21.0,-251.0,-44.0,0.0,53.0,-3.0,-44.0,-973.0,-212.0
-21.0,-250.0,-45.0,2.0,52.0,-4.0,-44.0,-977.0,-208.0
-19.0,-253.0,-39.0,4.0,53.0,-3.0,-47.0,-975.0,-209.0
-18.0,-252.0,-43.0,7.0,57.0,-2.0,-50.0,-980.0,-204.0
-20.0,-252.0,-40.0,9.0,59.0,-2.0,-45.0,-978.0,-209.0
-19.0,-248.0,-42.0,11.0,61.0,-2.0,-43.0,-984.0,-202.0
-18.0,-253.0,-43.0,12.0,64.0,0.0,-38.0,-986.0,-203.0
-16.0,-256.0,-42.0,12.0,64.0,-1.0,-44.0,-982.0,-200.0
-16.0,-256.0,-42.0,11.0,65.0,-1.0,-44.0,-984.0,-206.0
-18.0,-253.0,-42.0,7.0,65.0,0.0,-42.0,-984.0,-211.0
-19.0,-256.0,-44.0,5.0,63.0,0.0,-43.0,-983.0,-209.0
-16.0,-253.0,-44.0,4.0,63.0,1.0,-42.0,-987.0,-212.0
-19.0,-255.0,-41.0,4.0,59.0,0.0,-38.0,-982.0,-212.0
-18.0,-252.0,-45.0,7.0,58.0,1.0,-42.0,-980.0,-206.0
-19.0,-254.0,-44.0,11.0,58.0,-1.0,-47.0,-976.0,-204.0
-18.0,-252.0,-45.0,14.0,57.0,-2.0,-39.0,-973.0,-206.0
-19.0,-251.0,-43.0,17.0,58.0,-1.0,-41.0,-976.0,-203.0
-16.0,-252.0,-40.0,20.0,60.0,-2.0,-40.0,-968.0,-201.0
-17.0,-252.0,-41.0,22.0,61.0,-2.0,-38.0,-971.0,-201.0
-18.0,-250.0,-41.0,20.0,64.0,-2.0,-33.0,-971.0,-203.0
-14.0,-251.0,-43.0,16.0,61.0,-3.0,-39.0,-965.0,-203.0
-19.0,-250.0,-43.0,16.0,61.0,-3.0,-36.0,-969.0,-204.0
-20.0,-253.0,-42.0,14.0,63.0,-4.0,-41.0,-969.0,-207.0
-18.0,-253.0,-40.0,12.0,61.0,-4.0,-43.0,-971.0,-203.0
-20.0,-253.0,-40.0,10.0,62.0,-2.0,-46.0,-974.0,-202.0
-18.0,-254.0,-39.0,8.0,64.0,-2.0,-48.0,-976.0,-203.0
-19.0,-252.0,-39.0,8.0,66.0,-3.0,-43.0,-975.0,-205.0
-19.0,-252.0,-43.0,7.0,68.0,-1.0,-46.0,-974.0,-200.0
-18.0,-255.0,-37.0,5.0,71.0,-1.0,-49.0,-981.0,-201.0
-20.0,-253.0,-38.0,6.0,72.0,-2.0,-41.0,-982.0,-198.0
-19.0,-257.0,-38.0,1.0,74.0,0.0,-46.0,-976.0,-198.0
-21.0,-253.0,-38.0,-1.0,73.0,-1.0,-45.0,-976.0,-196.0
-21.0,-255.0,-38.0,-4.0,72.0,0.0,-42.0,-979.0,-199.0
-18.0,-254.0,-43.0,-4.0,71.0,-2.0,-40.0,-985.0,-195.0
-19.0,-258.0,-41.0,-4.0,72.0,-1.0,-37.0,-977.0,-200.0
-18.0,-256.0,-38.0,-4.0,69.0,0.0,-43.0,-977.0,-204.0
-20.0,-250.0,-41.0,-5.0,69.0,0.0,-40.0,-976.0,-200.0
-17.0,-252.0,-40.0,-4.0,70.0,1.0,-38.0,-971.0,-203.0
-19.0,-251.0,-43.0,-2.0,73.0,1.0,-36.0,-968.0,-200.0
-17.0,-252.0,-42.0,-1.0,76.0,4.0,-37.0,-968.0,-193.0
-17.0,-251.0,-41.0,1.0,79.0,4.0,-38.0,-969.0,-201.0
-18.0,-248.0,-41.0,1.0,83.0,2.0,-38.0,-971.0,-204.0
-16.0,-251.0,-41.0,2.0,86.0,4.0,-38.0,-972.0,-199.0
-17.0,-252.0,-39.0,1.0,87.0,4.0,-41.0,-974.0,-200.0
-18.0,-252.0,-40.0,-2.0,90.0,5.0,-42.0,-972.0,-204.0
-15.0,-255.0,-39.0,-4.0,91.0,3.0,-41.0,-971.0,-193.0
-21.0,-249.0,-39.0,-8.0,91.0,3.0,-42.0,-972.0,-199.0
-21.0,-254.0,-41.0,-13.0,91.0,2.0,-48.0,-978.0,-202.0
-20.0,-251.0,-35.0,-16.0,91.0,1.0,-44.0,-982.0,-199.0
-19.0,-253.0,-39.0,-18.0,89.0,1.0,-44.0,-980.0,-205.0
-21.0,-251.0,-43.0,-19.0,87.0,2.0,-46.0,-981.0,-201.0
-21.0,-254.0,-42.0,-15.0,85.0,2.0,-46.0,-978.0,-202.0
-18.0,-252.0,-41.0,-12.0,85.0,3.0,-44.0,-977.0,-200.0
-19.0,-250.0,-40.0,-8.0,84.0,3.0,-50.0,-976.0,-204.0
-19.0,-255.0,-42.0,-6.0,84.0,4.0,-51.0,-979.0,-201.0
-17.0,-254.0,-41.0,-7.0,85.0,3.0,-45.0,-980.0,-204.0
-19.0,-252.0,-40.0,-8.0,86.0,4.0,-46.0,-976.0,-203.0
-18.0,-254.0,-42.0,-9.0,85.0,5.0,-45.0,-975.0,-202.0
-19.0,-258.0,-41.0,-13.0,85.0,6.0,-45.0,-974.0,-204.0
-16.0,-256.0,-43.0,-14.0,85.0,5.0,-47.0,-977.0,-205.0
-16.0,-255.0,-46.0,-15.0,83.0,4.0,-41.0,-974.0,-207.0
-19.0,-251.0,-43.0,-14.0,82.0,4.0,-44.0,-976.0,-205.0
-16.0,-253.0,-39.0,-15.0,81.0,4.0,-42.0,-969.0,-206.0
-18.0,-251.0,-42.0,-16.0,80.0,4.0,-44.0,-972.0,-207.0
-21.0,-250.0,-45.0,-17.0,81.0,3.0,-45.0,-971.0,-203.0
-17.0,-254.0,-43.0,-18.0,83.0,4.0,-44.0,-974.0,-207.0
-19.0,-249.0,-46.0,-19.0,83.0,4.0,-45.0,-977.0,-211.0
-20.0,-250.0,-43.0,-21.0,85.0,2.0,-46.0,-975.0,-204.0
-23.0,-253.0,-44.0,-20.0,87.0,1.0,-46.0,-976.0,-202.0
-18.0,-256.0,-40.0,-20.0,88.0,1.0,-46.0,-980.0,-203.0
-10.0,-251.0,-35.0,-20.0,89.0,0.0,-46.0,-979.0,-202.0
-19.0,-253.0,-40.0,-21.0,89.0,-1.0,-43.0,-980.0,-199.0
-20.0,-254.0,-42.0,-21.0,89.0,0.0,-45.0,-978.0,-200.0
-18.0,-255.0,-43.0,-20.0,89.0,1.0,-48.0,-978.0,-200.0
-19.0,-257.0,-40.0,-21.0,87.0,0.0,-58.0,-981.0,-200.0
-17.0,-255.0,-41.0,-21.0,86.0,1.0,-53.0,-980.0,-202.0
-21.0,-253.0,-42.0,-21.0,80.0,3.0,-49.0,-978.0,-205.0
-21.0,-256.0,-39.0,-20.0,78.0,4.0,-47.0,-977.0,-207.0
-17.0,-252.0,-38.0,-19.0,75.0,3.0,-45.0,-978.0,-201.0
-21.0,-251.0,-41.0,-18.0,74.0,2.0,-49.0,-975.0,-205.0
-18.0,-251.0,-40.0,-17.0,73.0,1.0,-51.0,-973.0,-201.0
-18.0,-254.0,-39.0,-14.0,71.0,2.0,-49.0,-973.0,-203.0
-19.0,-254.0,-39.0,-16.0,72.0,0.0,-38.0,-979.0,-205.0
-16.0,-252.0,-42.0,-16.0,73.0,-2.0,-41.0,-977.0,-201.0
-17.0,-255.0,-38.0,-18.0,73.0,-3.0,-44.0,-984.0,-200.0
-18.0,-256.0,-40.0,-20.0,74.0,-3.0,-42.0,-993.0,-200.0
-15.0,-257.0,-38.0,-20.0,75.0,-5.0,-42.0,-986.0,-200.0
-18.0,-256.0,-42.0,-22.0,77.0,-6.0,-39.0,-999.0,-197.0
-18.0,-256.0,-40.0,-24.0,78.0,-9.0,-39.0,-995.0,-202.0
-20.0,-255.0,-43.0,-23.0,79.0,-10.0,-43.0,-992.0,-203.0
-18.0,-254.0,-43.0,-25.0,78.0,-13.0,-39.0,-982.0,-203.0
-20.0,-253.0,-43.0,-24.0,73.0,-12.0,-43.0,-982.0,-208.0
-16.0,-251.0,-36.0,-24.0,69.0,-11.0,-48.0,-983.0,-206.0
-18.0,-252.0,-42.0,-21.0,66.0,-13.0,-48.0,-983.0,-203.0
-22.0,-253.0,-43.0,-20.0,63.0,-12.0,-54.0,-978.0,-206.0
-20.0,-256.0,-38.0,-17.0,60.0,-11.0,-54.0,-975.0,-208.0
-24.0,-254.0,-39.0,-15.0,59.0,-7.0,-60.0,-978.0,-205.0
-20.0,-256.0,-43.0,-11.0,57.0,-7.0,-58.0,-979.0,-204.0
-23.0,-252.0,-41.0,-7.0,55.0,-5.0,-58.0,-973.0,-200.0
-17.0,-254.0,-43.0,-5.0,52.0,-5.0,-49.0,-978.0,-196.0
-20.0,-254.0,-40.0,-4.0,48.0,-7.0,-44.0,-976.0,-198.0
-19.0,-250.0,-37.0,-6.0,44.0,-6.0,-45.0,-973.0,-204.0
-21.0,-251.0,-36.0,-9.0,42.0,-9.0,-44.0,-976.0,-202.0
-20.0,-250.0,-44.0,-14.0,42.0,-9.0,-39.0,-971.0,-203.0
-20.0,-249.0,-37.0,-19.0,44.0,-10.0,-42.0,-975.0,-203.0
-19.0,-251.0,-40.0,-24.0,47.0,-9.0,-41.0,-974.0,-197.0
-19.0,-253.0,-39.0,-27.0,50.0,-7.0,-40.0,-976.0,-198.0
-18.0,-255.0,-38.0,-30.0,55.0,-7.0,-35.0,-975.0,-197.0
-17.0,-252.0,-37.0,-32.0,56.0,-8.0,-42.0,-981.0,-196.0
-18.0,-252.0,-37.0,-35.0,56.0,-9.0,-39.0,-972.0,-197.0
-17.0,-250.0,-42.0,-37.0,57.0,-9.0,-36.0,-970.0,-196.0
-19.0,-251.0,-40.0,-41.0,57.0,-11.0,-35.0,-968.0,-196.0
-16.0,-252.0,-41.0,-46.0,56.0,-12.0,-37.0,-968.0,-200.0
-17.0,-251.0,-40.0,-52.0,56.0,-13.0,-38.0,-970.0,-196.0
-13.0,-250.0,-41.0,-58.0,54.0,-14.0,-35.0,-965.0,-196.0
-16.0,-253.0,-39.0,-60.0,57.0,-15.0,-34.0,-966.0,-196.0
-16.0,-251.0,-39.0,-59.0,59.0,-13.0,-39.0,-970.0,-196.0
-17.0,-252.0,-38.0,-54.0,61.0,-15.0,-36.0,-970.0,-192.0
-16.0,-250.0,-43.0,-50.0,61.0,-14.0,-32.0,-971.0,-194.0
-14.0,-253.0,-41.0,-48.0,62.0,-15.0,-36.0,-969.0,-198.0
-16.0,-250.0,-41.0,-49.0,64.0,-16.0,-33.0,-973.0,-201.0
-17.0,-251.0,-39.0,-53.0,63.0,-16.0,-35.0,-972.0,-200.0
-18.0,-254.0,-38.0,-59.0,64.0,-15.0,-37.0,-973.0,-200.0
-14.0,-252.0,-38.0,-64.0,67.0,-15.0,-34.0,-975.0,-198.0
-16.0,-252.0,-39.0,-66.0,66.0,-14.0,-36.0,-981.0,-201.0
-16.0,-255.0,-43.0,-68.0,66.0,-13.0,-43.0,-978.0,-197.0
-14.0,-254.0,-41.0,-69.0,66.0,-14.0,-35.0,-977.0,-201.0
-20.0,-252.0,-41.0,-69.0,67.0,-16.0,-34.0,-978.0,-200.0
-18.0,-252.0,-43.0,-69.0,68.0,-17.0,-35.0,-978.0,-200.0
-16.0,-253.0,-44.0,-70.0,70.0,-19.0,-38.0,-975.0,-197.0
-13.0,-252.0,-39.0,-73.0,70.0,-19.0,-35.0,-971.0,-201.0
-16.0,-253.0,-40.0,-77.0,73.0,-20.0,-35.0,-974.0,-202.0
-16.0,-249.0,-42.0,-76.0,75.0,-20.0,-33.0,-976.0,-202.0
-16.0,-254.0,-42.0,-73.0,74.0,-19.0,-31.0,-978.0,-204.0
-15.0,-254.0,-41.0,-71.0,74.0,-20.0,-32.0,-975.0,-199.0
-12.0,-259.0,-39.0,-72.0,76.0,-19.0,-30.0,-974.0,-197.0
-15.0,-251.0,-38.0,-69.0,79.0,-17.0,-33.0,-979.0,-194.0
-16.0,-256.0,-39.0,-66.0,80.0,-15.0,-25.0,-976.0,-200.0
-16.0,-251.0,-41.0,-66.0,82.0,-16.0,-31.0,-973.0,-204.0
-15.0,-254.0,-41.0,-68.0,83.0,-19.0,-28.0,-970.0,-203.0
-16.0,-252.0,-41.0,-68.0,84.0,-18.0,-29.0,-974.0,-203.0
-14.0,-253.0,-40.0,-67.0,87.0,-18.0,-31.0,-969.0,-202.0
-14.0,-251.0,-44.0,-66.0,88.0,-18.0,-32.0,-965.0,-207.0
-15.0,-251.0,-45.0,-66.0,90.0,-19.0,-32.0,-971.0,-211.0
-17.0,-249.0,-45.0,-66.0,96.0,-17.0,-31.0,-968.0,-214.0
-16.0,-251.0,-43.0,-65.0,97.0,-14.0,-35.0,-969.0,-217.0
-17.0,-250.0,-45.0,-63.0,102.0,-12.0,-36.0,-969.0,-217.0
-18.0,-249.0,-42.0,-64.0,105.0,-8.0,-35.0,-968.0,-221.0
-15.0,-251.0,-45.0,-69.0,108.0,-6.0,-38.0,-966.0,-219.0
-17.0,-250.0,-44.0,-78.0,111.0,-6.0,-40.0,-964.0,-221.0
-20.0,-249.0,-41.0,-85.0,111.0,-3.0,-39.0,-966.0,-217.0
-17.0,-251.0,-48.0,-94.0,111.0,-4.0,-41.0,-961.0,-219.0
-19.0,-249.0,-45.0,-99.0,112.0,-3.0,-41.0,-967.0,-216.0
-20.0,-251.0,-47.0,-103.0,112.0,-4.0,-45.0,-969.0,-224.0
-21.0,-250.0,-47.0,-107.0,113.0,-4.0,-42.0,-964.0,-228.0
-19.0,-252.0,-49.0,-111.0,116.0,-4.0,-43.0,-972.0,-231.0
-17.0,-253.0,-44.0,-116.0,119.0,0.0,-41.0,-966.0,-227.0
-12.0,-259.0,-44.0,-118.0,121.0,3.0,-38.0,-966.0,-223.0
-17.0,-254.0,-43.0,-116.0,125.0,5.0,-35.0,-975.0,-224.0
-18.0,-256.0,-41.0,-110.0,127.0,8.0,-32.0,-974.0,-220.0
-16.0,-253.0,-45.0,-106.0,129.0,8.0,-33.0,-978.0,-224.0
-18.0,-251.0,-45.0,-107.0,132.0,9.0,-29.0,-979.0,-220.0
-13.0,-254.0,-43.0,-113.0,131.0,8.0,-28.0,-977.0,-220.0
-18.0,-251.0,-46.0,-120.0,130.0,8.0,-30.0,-975.0,-222.0
-16.0,-253.0,-47.0,-128.0,125.0,7.0,-32.0,-971.0,-221.0
-14.0,-252.0,-43.0,-133.0,119.0,5.0,-33.0,-969.0,-220.0
-15.0,-251.0,-49.0,-137.0,112.0,4.0,-33.0,-969.0,-223.0
-15.0,-252.0,-49.0,-136.0,106.0,0.0,-38.0,-963.0,-224.0
-15.0,-251.0,-47.0,-134.0,102.0,1.0,-39.0,-965.0,-226.0
-18.0,-251.0,-46.0,-130.0,105.0,-1.0,-44.0,-965.0,-231.0
-17.0,-250.0,-49.0,-127.0,106.0,0.0,-41.0,-964.0,-233.0
-17.0,-250.0,-46.0,-126.0,109.0,-2.0,-40.0,-963.0,-227.0
-18.0,-250.0,-50.0,-127.0,115.0,-1.0,-39.0,-969.0,-225.0
-16.0,-250.0,-49.0,-127.0,117.0,0.0,-43.0,-971.0,-223.0
-18.0,-253.0,-44.0,-127.0,118.0,0.0,-41.0,-970.0,-229.0
-18.0,-250.0,-47.0,-126.0,119.0,0.0,-41.0,-974.0,-224.0
-18.0,-253.0,-47.0,-128.0,117.0,2.0,-39.0,-977.0,-230.0
-18.0,-255.0,-48.0,-129.0,117.0,3.0,-39.0,-972.0,-234.0
-15.0,-252.0,-47.0,-130.0,115.0,1.0,-39.0,-978.0,-226.0
-23.0,-250.0,-49.0,-130.0,114.0,1.0,-33.0,-979.0,-233.0
-18.0,-253.0,-48.0,-129.0,113.0,1.0,-35.0,-981.0,-224.0
-15.0,-251.0,-45.0,-127.0,111.0,1.0,-34.0,-974.0,-226.0
-15.0,-254.0,-44.0,-127.0,111.0,1.0,-30.0,-977.0,-225.0
-13.0,-254.0,-45.0,-125.0,109.0,1.0,-32.0,-972.0,-229.0
-15.0,-254.0,-49.0,-119.0,107.0,0.0,-34.0,-972.0,-236.0
-12.0,-254.0,-51.0,-116.0,106.0,-1.0,-32.0,-968.0,-232.0
-15.0,-253.0,-48.0,-113.0,107.0,0.0,-32.0,-964.0,-239.0
-16.0,-249.0,-51.0,-116.0,108.0,0.0,-34.0,-967.0,-238.0
-15.0,-251.0,-49.0,-120.0,108.0,0.0,-35.0,-965.0,-242.0
-18.0,-251.0,-50.0,-121.0,110.0,2.0,-39.0,-965.0,-250.0
-14.0,-251.0,-52.0,-123.0,110.0,2.0,-36.0,-963.0,-251.0
-15.0,-248.0,-51.0,-125.0,112.0,1.0,-35.0,-961.0,-250.0
-14.0,-252.0,-51.0,-124.0,114.0,0.0,-32.0,-976.0,-244.0
-14.0,-253.0,-51.0,-120.0,113.0,3.0,-34.0,-976.0,-246.0
-17.0,-254.0,-52.0,-114.0,114.0,1.0,-33.0,-979.0,-241.0
-16.0,-254.0,-50.0,-111.0,113.0,2.0,-33.0,-983.0,-239.0
-14.0,-256.0,-49.0,-109.0,114.0,3.0,-38.0,-984.0,-238.0
-17.0,-256.0,-47.0,-105.0,115.0,1.0,-35.0,-987.0,-232.0
-14.0,-254.0,-50.0,-98.0,117.0,-1.0,-35.0,-992.0,-244.0
-15.0,-255.0,-55.0,-91.0,119.0,-2.0,-39.0,-987.0,-243.0
-13.0,-254.0,-49.0,-87.0,121.0,-1.0,-34.0,-982.0,-244.0
-12.0,-253.0,-61.0,-84.0,124.0,-1.0,-38.0,-981.0,-241.0
-17.0,-251.0,-51.0,-84.0,125.0,-1.0,-34.0,-976.0,-246.0
-17.0,-253.0,-53.0,-83.0,127.0,1.0,-37.0,-975.0,-246.0
-17.0,-252.0,-53.0,-84.0,129.0,4.0,-36.0,-974.0,-249.0
-18.0,-251.0,-54.0,-85.0,130.0,5.0,-40.0,-968.0,-252.0
-20.0,-251.0,-53.0,-83.0,129.0,6.0,-37.0,-972.0,-251.0
-15.0,-252.0,-54.0,-84.0,129.0,7.0,-37.0,-964.0,-250.0
-17.0,-251.0,-52.0,-83.0,129.0,7.0,-35.0,-972.0,-250.0
-17.0,-250.0,-54.0,-83.0,126.0,9.0,-41.0,-969.0,-248.0
-16.0,-252.0,-50.0,-84.0,127.0,9.0,-34.0,-974.0,-249.0
-18.0,-251.0,-52.0,-85.0,124.0,9.0,-35.0,-973.0,-252.0
-19.0,-254.0,-51.0,-88.0,125.0,8.0,-36.0,-976.0,-246.0
-16.0,-252.0,-55.0,-89.0,124.0,7.0,-38.0,-971.0,-244.0
-14.0,-256.0,-50.0,-92.0,125.0,9.0,-38.0,-976.0,-250.0
-16.0,-252.0,-54.0,-93.0,124.0,9.0,-35.0,-971.0,-253.0
-14.0,-251.0,-53.0,-92.0,124.0,6.0,-33.0,-982.0,-247.0
-16.0,-254.0,-50.0,-88.0,126.0,4.0,-36.0,-975.0,-247.0
-17.0,-254.0,-56.0,-83.0,129.0,4.0,-33.0,-977.0,-247.0
-14.0,-253.0,-51.0,-80.0,132.0,3.0,-31.0,-979.0,-252.0
-17.0,-251.0,-51.0,-76.0,134.0,2.0,-33.0,-977.0,-247.0
-18.0,-251.0,-55.0,-72.0,136.0,1.0,-34.0,-973.0,-254.0
-18.0,-253.0,-52.0,-69.0,136.0,1.0,-36.0,-974.0,-250.0
-23.0,-249.0,-44.0,-64.0,136.0,2.0,-39.0,-974.0,-248.0
-17.0,-250.0,-52.0,-58.0,133.0,3.0,-36.0,-974.0,-248.0
-21.0,-250.0,-52.0,-55.0,133.0,3.0,-36.0,-974.0,-253.0
-18.0,-252.0,-55.0,-52.0,133.0,5.0,-42.0,-969.0,-256.0
-17.0,-250.0,-55.0,-50.0,131.0,7.0,-42.0,-969.0,-253.0
-18.0,-250.0,-60.0,-50.0,131.0,8.0,-47.0,-964.0,-261.0
-20.0,-253.0,-52.0,-48.0,129.0,8.0,-41.0,-970.0,-256.0
-18.0,-250.0,-54.0,-48.0,131.0,10.0,-42.0,-972.0,-254.0
-18.0,-253.0,-54.0,-48.0,131.0,10.0,-40.0,-966.0,-262.0
-18.0,-250.0,-55.0,-48.0,133.0,10.0,-44.0,-975.0,-259.0
-18.0,-251.0,-53.0,-49.0,134.0,14.0,-36.0,-973.0,-252.0
-17.0,-253.0,-57.0,-49.0,136.0,13.0,-38.0,-974.0,-259.0
-15.0,-252.0,-52.0,-50.0,138.0,13.0,-40.0,-974.0,-260.0
-18.0,-248.0,-55.0,-50.0,138.0,12.0,-34.0,-973.0,-263.0
-15.0,-254.0,-55.0,-50.0,139.0,11.0,-32.0,-974.0,-262.0
-14.0,-253.0,-52.0,-47.0,140.0,9.0,-35.0,-967.0,-263.0
-17.0,-250.0,-52.0,-47.0,141.0,8.0,-31.0,-969.0,-264.0
-16.0,-248.0,-57.0,-47.0,140.0,9.0,-29.0,-972.0,-267.0
-13.0,-254.0,-60.0,-46.0,140.0,7.0,-34.0,-969.0,-267.0
-16.0,-249.0,-56.0,-45.0,140.0,7.0,-34.0,-960.0,-265.0
-20.0,-249.0,-58.0,-43.0,139.0,6.0,-38.0,-963.0,-269.0
-19.0,-246.0,-59.0,-44.0,137.0,7.0,-38.0,-966.0,-273.0
-15.0,-250.0,-58.0,-46.0,138.0,7.0,-40.0,-962.0,-278.0
-17.0,-251.0,-57.0,-50.0,138.0,7.0,-38.0,-960.0,-280.0
-20.0,-253.0,-59.0,-55.0,139.0,9.0,-40.0,-965.0,-288.0
-20.0,-252.0,-61.0,-61.0,137.0,10.0,-40.0,-966.0,-290.0
-24.0,-250.0,-64.0,-68.0,138.0,8.0,-44.0,-974.0,-296.0
-15.0,-253.0,-64.0,-74.0,139.0,3.0,-40.0,-967.0,-300.0
-16.0,-253.0,-67.0,-81.0,138.0,0.0,-41.0,-973.0,-306.0
-15.0,-253.0,-68.0,-86.0,135.0,-4.0,-41.0,-967.0,-309.0
-18.0,-251.0,-66.0,-92.0,135.0,-9.0,-37.0,-967.0,-309.0
-16.0,-248.0,-66.0,-99.0,133.0,-15.0,-39.0,-965.0,-315.0
-14.0,-252.0,-71.0,-107.0,128.0,-20.0,-36.0,-960.0,-324.0
-14.0,-249.0,-69.0,-111.0,124.0,-24.0,-34.0,-954.0,-319.0
-18.0,-248.0,-75.0,-113.0,118.0,-28.0,-45.0,-944.0,-321.0
-21.0,-244.0,-71.0,-116.0,109.0,-32.0,-43.0,-935.0,-330.0
-21.0,-245.0,-73.0,-114.0,102.0,-33.0,-49.0,-937.0,-336.0
-22.0,-242.0,-74.0,-118.0,94.0,-33.0,-47.0,-928.0,-339.0
-20.0,-246.0,-73.0,-123.0,88.0,-33.0,-50.0,-933.0,-343.0
-20.0,-245.0,-80.0,-129.0,81.0,-33.0,-44.0,-931.0,-345.0
-18.0,-247.0,-74.0,-131.0,79.0,-31.0,-47.0,-937.0,-347.0
-15.0,-245.0,-73.0,-133.0,80.0,-33.0,-46.0,-936.0,-347.0
-17.0,-245.0,-77.0,-135.0,81.0,-34.0,-41.0,-940.0,-341.0
-16.0,-240.0,-77.0,-133.0,82.0,-37.0,-47.0,-925.0,-337.0
-17.0,-242.0,-74.0,-133.0,84.0,-43.0,-42.0,-922.0,-334.0
-18.0,-239.0,-72.0,-132.0,86.0,-47.0,-43.0,-918.0,-324.0
-16.0,-239.0,-67.0,-126.0,87.0,-50.0,-38.0,-913.0,-311.0
-15.0,-236.0,-63.0,-120.0,88.0,-53.0,-33.0,-908.0,-300.0
-16.0,-234.0,-58.0,-111.0,89.0,-54.0,-32.0,-907.0,-295.0
-18.0,-235.0,-56.0,-98.0,89.0,-53.0,-26.0,-907.0,-288.0
-11.0,-236.0,-60.0,-86.0,89.0,-51.0,-24.0,-906.0,-270.0
-12.0,-237.0,-55.0,-72.0,88.0,-48.0,-23.0,-905.0,-268.0
-13.0,-237.0,-56.0,-59.0,88.0,-44.0,-25.0,-907.0,-266.0
-15.0,-237.0,-61.0,-46.0,87.0,-41.0,-26.0,-908.0,-265.0
-14.0,-237.0,-57.0,-37.0,88.0,-35.0,-27.0,-913.0,-275.0
-14.0,-238.0,-57.0,-31.0,88.0,-30.0,-26.0,-912.0,-279.0
-18.0,-238.0,-63.0,-27.0,91.0,-24.0,-24.0,-917.0,-279.0
-12.0,-242.0,-61.0,-28.0,96.0,-18.0,-26.0,-921.0,-283.0
-14.0,-240.0,-66.0,-30.0,102.0,-16.0,-26.0,-920.0,-281.0
-14.0,-239.0,-62.0,-31.0,107.0,-11.0,-29.0,-922.0,-292.0
-13.0,-239.0,-59.0,-32.0,111.0,-8.0,-25.0,-924.0,-288.0
-14.0,-243.0,-61.0,-33.0,112.0,-4.0,-30.0,-925.0,-286.0
-13.0,-245.0,-65.0,-36.0,113.0,1.0,-31.0,-928.0,-281.0
-14.0,-244.0,-59.0,-38.0,117.0,5.0,-32.0,-936.0,-293.0
-15.0,-244.0,-65.0,-42.0,120.0,10.0,-32.0,-931.0,-283.0
-17.0,-247.0,-68.0,-44.0,121.0,15.0,-35.0,-931.0,-293.0
-15.0,-246.0,-63.0,-48.0,122.0,23.0,-33.0,-937.0,-293.0
-14.0,-246.0,-64.0,-55.0,123.0,30.0,-39.0,-939.0,-306.0
-18.0,-246.0,-64.0,-64.0,121.0,38.0,-44.0,-932.0,-302.0
-21.0,-245.0,-62.0,-73.0,121.0,45.0,-46.0,-936.0,-302.0
-20.0,-244.0,-66.0,-80.0,121.0,52.0,-47.0,-925.0,-308.0
-17.0,-243.0,-66.0,-83.0,121.0,56.0,-52.0,-922.0,-304.0
-18.0,-239.0,-66.0,-83.0,118.0,60.0,-60.0,-916.0,-295.0
-21.0,-238.0,-63.0,-79.0,116.0,64.0,-62.0,-913.0,-292.0
-21.0,-237.0,-62.0,-74.0,116.0,67.0,-63.0,-908.0,-298.0
-19.0,-237.0,-64.0,-66.0,117.0,69.0,-56.0,-916.0,-293.0
-21.0,-238.0,-63.0,-58.0,121.0,72.0,-50.0,-906.0,-283.0
-18.0,-238.0,-63.0,-53.0,121.0,76.0,-45.0,-906.0,-289.0
-18.0,-238.0,-67.0,-50.0,121.0,79.0,-40.0,-911.0,-290.0
-15.0,-237.0,-65.0,-51.0,120.0,83.0,-33.0,-908.0,-299.0
-16.0,-236.0,-68.0,-57.0,114.0,86.0,-23.0,-909.0,-306.0
-10.0,-236.0,-68.0,-66.0,106.0,87.0,-15.0,-910.0,-309.0
-12.0,-236.0,-69.0,-78.0,96.0,87.0,-11.0,-914.0,-310.0
-11.0,-236.0,-68.0,-89.0,88.0,86.0,-7.0,-912.0,-314.0
-12.0,-238.0,-71.0,-101.0,82.0,85.0,-13.0,-910.0,-310.0
-11.0,-239.0,-64.0,-115.0,72.0,84.0,-18.0,-911.0,-309.0
-10.0,-240.0,-66.0,-125.0,65.0,87.0,-14.0,-912.0,-309.0
-14.0,-237.0,-51.0,-136.0,60.0,87.0,-22.0,-914.0,-303.0
-14.0,-238.0,-63.0,-143.0,56.0,89.0,-24.0,-912.0,-301.0
-15.0,-238.0,-61.0,-150.0,48.0,92.0,-26.0,-918.0,-299.0
-19.0,-237.0,-65.0,-156.0,45.0,95.0,-31.0,-916.0,-294.0
-17.0,-241.0,-68.0,-164.0,39.0,96.0,-40.0,-917.0,-292.0
-19.0,-240.0,-61.0,-172.0,34.0,100.0,-44.0,-919.0,-304.0
-20.0,-240.0,-69.0,-179.0,34.0,105.0,-58.0,-917.0,-309.0
-20.0,-241.0,-70.0,-187.0,36.0,111.0,-64.0,-918.0,-321.0
-19.0,-242.0,-75.0,-199.0,36.0,120.0,-62.0,-914.0,-331.0
-19.0,-243.0,-71.0,-204.0,46.0,136.0,-51.0,-920.0,-333.0
-17.0,-239.0,-74.0,-204.0,64.0,150.0,-47.0,-916.0,-327.0
-14.0,-241.0,-70.0,-202.0,85.0,164.0,-35.0,-917.0,-331.0
-11.0,-240.0,-72.0,-193.0,105.0,174.0,-21.0,-913.0,-311.0
-4.0,-241.0,-65.0,-181.0,123.0,179.0,13.0,-913.0,-307.0
-1.0,-241.0,-66.0,-174.0,144.0,178.0,21.0,-917.0,-300.0
1.0,-237.0,-62.0,-170.0,159.0,172.0,28.0,-918.0,-278.0
0.0,-238.0,-58.0,-165.0,164.0,162.0,25.0,-924.0,-269.0
0.0,-241.0,-60.0,-160.0,163.0,150.0,31.0,-926.0,-270.0
-2.0,-242.0,-61.0,-163.0,159.0,139.0,18.0,-932.0,-266.0
-7.0,-246.0,-62.0,-172.0,154.0,129.0,-4.0,-945.0,-279.0
-13.0,-246.0,-65.0,-183.0,148.0,123.0,-22.0,-952.0,-291.0
-18.0,-248.0,-69.0,-199.0,139.0,118.0,-51.0,-956.0,-307.0
-22.0,-249.0,-57.0,-215.0,132.0,111.0,-67.0,-968.0,-329.0
-23.0,-252.0,-74.0,-225.0,128.0,108.0,-88.0,-975.0,-345.0
-34.0,-253.0,-79.0,-230.0,120.0,104.0,-95.0,-967.0,-366.0
-35.0,-249.0,-80.0,-235.0,111.0,101.0,-108.0,-960.0,-369.0
-38.0,-249.0,-83.0,-233.0,99.0,97.0,-116.0,-957.0,-360.0
-39.0,-249.0,-78.0,-226.0,84.0,91.0,-117.0,-954.0,-348.0
-42.0,-246.0,-73.0,-212.0,62.0,86.0,-129.0,-943.0,-333.0
-44.0,-246.0,-71.0,-197.0,34.0,81.0,-132.0,-943.0,-324.0
-40.0,-243.0,-68.0,-182.0,9.0,79.0,-133.0,-937.0,-317.0
-38.0,-243.0,-63.0,-168.0,-10.0,78.0,-128.0,-930.0,-305.0
-40.0,-238.0,-66.0,-162.0,-21.0,78.0,-123.0,-915.0,-308.0
-36.0,-234.0,-65.0,-164.0,-26.0,78.0,-114.0,-911.0,-300.0
-34.0,-232.0,-64.0,-175.0,-31.0,75.0,-104.0,-899.0,-297.0
-33.0,-232.0,-61.0,-188.0,-33.0,65.0,-100.0,-895.0,-300.0
-32.0,-229.0,-70.0,-205.0,-35.0,57.0,-102.0,-885.0,-304.0
-31.0,-228.0,-68.0,-222.0,-37.0,46.0,-99.0,-873.0,-311.0
-32.0,-226.0,-70.0,-241.0,-36.0,37.0,-97.0,-872.0,-316.0
-33.0,-227.0,-73.0,-258.0,-30.0,29.0,-101.0,-875.0,-321.0
-34.0,-230.0,-70.0,-278.0,-23.0,23.0,-100.0,-877.0,-325.0
-36.0,-232.0,-71.0,-298.0,-14.0,18.0,-101.0,-889.0,-328.0
-33.0,-234.0,-76.0,-321.0,-11.0,16.0,-99.0,-902.0,-322.0
-36.0,-237.0,-79.0,-342.0,-9.0,13.0,-98.0,-917.0,-329.0
-32.0,-240.0,-75.0,-362.0,-8.0,8.0,-98.0,-935.0,-333.0
-31.0,-248.0,-76.0,-381.0,-10.0,1.0,-95.0,-945.0,-342.0
-31.0,-251.0,-77.0,-393.0,-16.0,-6.0,-93.0,-956.0,-338.0
-28.0,-250.0,-80.0,-405.0,-21.0,-12.0,-84.0,-965.0,-347.0
-27.0,-253.0,-82.0,-416.0,-24.0,-20.0,-77.0,-962.0,-351.0
-21.0,-249.0,-83.0,-428.0,-28.0,-29.0,-58.0,-961.0,-369.0
-20.0,-249.0,-77.0,-436.0,-30.0,-37.0,-48.0,-943.0,-368.0
-14.0,-241.0,-81.0,-440.0,-28.0,-46.0,-30.0,-937.0,-373.0
-8.0,-241.0,-83.0,-440.0,-22.0,-54.0,-7.0,-921.0,-373.0
-8.0,-238.0,-81.0,-434.0,-11.0,-64.0,-2.0,-901.0,-369.0
-6.0,-232.0,-81.0,-428.0,-1.0,-66.0,7.0,-892.0,-371.0
-2.0,-230.0,-79.0,-420.0,11.0,-69.0,21.0,-885.0,-360.0
-2.0,-228.0,-78.0,-408.0,24.0,-75.0,21.0,-874.0,-348.0
-2.0,-225.0,-79.0,-403.0,36.0,-78.0,20.0,-875.0,-342.0
-2.0,-231.0,-72.0,-401.0,46.0,-81.0,13.0,-891.0,-341.0
-4.0,-235.0,-76.0,-413.0,55.0,-81.0,4.0,-895.0,-338.0
-9.0,-238.0,-77.0,-432.0,65.0,-79.0,-5.0,-913.0,-342.0
-12.0,-240.0,-80.0,-458.0,73.0,-73.0,-22.0,-918.0,-344.0
-15.0,-245.0,-82.0,-491.0,83.0,-65.0,-38.0,-936.0,-358.0
-19.0,-248.0,-83.0,-522.0,86.0,-62.0,-43.0,-947.0,-370.0
-25.0,-248.0,-89.0,-547.0,87.0,-57.0,-63.0,-952.0,-383.0
-23.0,-248.0,-86.0,-567.0,89.0,-48.0,-62.0,-952.0,-390.0
-27.0,-247.0,-88.0,-577.0,89.0,-43.0,-75.0,-943.0,-400.0
-27.0,-245.0,-87.0,-568.0,89.0,-34.0,-77.0,-930.0,-387.0
-29.0,-240.0,-84.0,-543.0,89.0,-21.0,-80.0,-926.0,-383.0
-26.0,-240.0,-84.0,-500.0,91.0,-6.0,-78.0,-916.0,-383.0
-24.0,-237.0,-82.0,-449.0,94.0,9.0,-71.0,-901.0,-375.0
-25.0,-231.0,-82.0,-396.0,98.0,24.0,-73.0,-883.0,-370.0
-24.0,-229.0,-84.0,-355.0,100.0,38.0,-71.0,-870.0,-372.0
-21.0,-226.0,-83.0,-316.0,100.0,48.0,-64.0,-861.0,-374.0
-22.0,-220.0,-85.0,-290.0,103.0,56.0,-61.0,-852.0,-383.0
-18.0,-219.0,-86.0,-278.0,107.0,60.0,-57.0,-839.0,-385.0
-21.0,-214.0,-87.0,-279.0,110.0,62.0,-50.0,-824.0,-396.0
-19.0,-212.0,-88.0,-294.0,113.0,60.0,-44.0,-832.0,-392.0
-20.0,-212.0,-87.0,-321.0,116.0,57.0,-50.0,-831.0,-395.0
-19.0,-214.0,-83.0,-354.0,117.0,51.0,-49.0,-833.0,-396.0
-22.0,-217.0,-84.0,-386.0,117.0,48.0,-49.0,-837.0,-389.0
-19.0,-217.0,-85.0,-416.0,119.0,45.0,-48.0,-842.0,-382.0
-17.0,-222.0,-84.0,-442.0,118.0,45.0,-50.0,-852.0,-379.0
-16.0,-223.0,-82.0,-462.0,117.0,46.0,-42.0,-860.0,-383.0
-15.0,-224.0,-84.0,-475.0,121.0,48.0,-40.0,-867.0,-377.0
-15.0,-226.0,-91.0,-481.0,120.0,45.0,-37.0,-861.0,-384.0
-14.0,-223.0,-90.0,-480.0,123.0,51.0,-34.0,-865.0,-390.0
-11.0,-221.0,-89.0,-471.0,127.0,54.0,-33.0,-853.0,-405.0
-15.0,-219.0,-91.0,-460.0,133.0,55.0,-33.0,-846.0,-418.0
-16.0,-221.0,-97.0,-444.0,142.0,59.0,-35.0,-834.0,-431.0
-12.0,-218.0,-91.0,-427.0,157.0,65.0,-25.0,-834.0,-434.0
-8.0,-216.0,-95.0,-414.0,176.0,72.0,-19.0,-828.0,-432.0
-8.0,-216.0,-93.0,-402.0,195.0,77.0,-19.0,-824.0,-432.0
-5.0,-217.0,-97.0,-394.0,211.0,83.0,-8.0,-828.0,-429.0
-7.0,-217.0,-96.0,-392.0,225.0,83.0,4.0,-837.0,-432.0
-6.0,-218.0,-94.0,-396.0,235.0,81.0,9.0,-842.0,-427.0
-4.0,-222.0,-98.0,-404.0,239.0,80.0,13.0,-848.0,-426.0
-2.0,-224.0,-96.0,-416.0,235.0,78.0,7.0,-858.0,-426.0
-7.0,-226.0,-96.0,-431.0,232.0,74.0,1.0,-861.0,-428.0
-11.0,-226.0,-96.0,-440.0,228.0,72.0,-14.0,-867.0,-433.0
-15.0,-229.0,-100.0,-444.0,223.0,71.0,-29.0,-876.0,-458.0
-13.0,-226.0,-103.0,-445.0,220.0,71.0,-27.0,-863.0,-468.0
-17.0,-228.0,-108.0,-444.0,228.0,78.0,-40.0,-871.0,-480.0
-22.0,-227.0,-117.0,-428.0,237.0,90.0,-54.0,-864.0,-498.0
-19.0,-229.0,-115.0,-411.0,247.0,104.0,-59.0,-869.0,-516.0
-22.0,-230.0,-119.0,-392.0,262.0,117.0,-63.0,-873.0,-538.0
-27.0,-229.0,-122.0,-381.0,275.0,127.0,-73.0,-871.0,-546.0
-27.0,-228.0,-124.0,-386.0,283.0,140.0,-78.0,-874.0,-551.0
-28.0,-229.0,-133.0,-405.0,285.0,149.0,-80.0,-875.0,-562.0
-24.0,-228.0,-138.0,-437.0,286.0,157.0,-83.0,-876.0,-572.0
-28.0,-230.0,-133.0,-479.0,288.0,163.0,-86.0,-885.0,-579.0
-28.0,-229.0,-133.0,-529.0,291.0,169.0,-83.0,-887.0,-584.0
-26.0,-232.0,-135.0,-580.0,296.0,171.0,-76.0,-897.0,-586.0
-22.0,-233.0,-136.0,-632.0,306.0,175.0,-60.0,-901.0,-590.0
-17.0,-234.0,-135.0,-683.0,320.0,176.0,-43.0,-903.0,-583.0
-18.0,-236.0,-134.0,-727.0,335.0,174.0,-37.0,-914.0,-586.0
-14.0,-240.0,-133.0,-765.0,353.0,165.0,-30.0,-915.0,-584.0
-12.0,-244.0,-134.0,-793.0,373.0,159.0,-20.0,-922.0,-582.0
-13.0,-244.0,-135.0,-811.0,394.0,153.0,-21.0,-935.0,-597.0
-13.0,-245.0,-136.0,-822.0,411.0,146.0,-22.0,-937.0,-598.0
-14.0,-247.0,-142.0,-818.0,429.0,133.0,-29.0,-939.0,-612.0
-15.0,-248.0,-144.0,-801.0,445.0,121.0,-33.0,-942.0,-622.0
-17.0,-248.0,-147.0,-778.0,458.0,110.0,-44.0,-946.0,-628.0
-22.0,-248.0,-143.0,-754.0,466.0,102.0,-54.0,-943.0,-636.0
-22.0,-246.0,-146.0,-733.0,462.0,93.0,-64.0,-932.0,-639.0
-25.0,-244.0,-149.0,-721.0,455.0,88.0,-74.0,-920.0,-629.0
-30.0,-237.0,-141.0,-712.0,444.0,87.0,-86.0,-906.0,-617.0
-33.0,-234.0,-139.0,-703.0,429.0,85.0,-88.0,-892.0,-601.0
-38.0,-225.0,-136.0,-694.0,410.0,81.0,-101.0,-875.0,-586.0
-36.0,-225.0,-131.0,-688.0,388.0,80.0,-105.0,-863.0,-569.0
-34.0,-226.0,-130.0,-686.0,367.0,79.0,-114.0,-866.0,-564.0
-27.0,-222.0,-123.0,-692.0,347.0,78.0,-114.0,-867.0,-568.0
-35.0,-225.0,-129.0,-708.0,333.0,76.0,-114.0,-869.0,-569.0
-33.0,-232.0,-130.0,-734.0,322.0,75.0,-107.0,-877.0,-574.0
-34.0,-231.0,-134.0,-766.0,312.0,71.0,-109.0,-890.0,-582.0
-33.0,-233.0,-138.0,-803.0,300.0,65.0,-102.0,-898.0,-603.0
-33.0,-232.0,-145.0,-847.0,290.0,57.0,-92.0,-899.0,-621.0
-26.0,-237.0,-144.0,-893.0,286.0,52.0,-87.0,-899.0,-632.0
-28.0,-233.0,-146.0,-936.0,287.0,43.0,-79.0,-896.0,-635.0
-26.0,-234.0,-145.0,-967.0,292.0,42.0,-75.0,-894.0,-634.0
-25.0,-234.0,-142.0,-980.0,294.0,34.0,-78.0,-892.0,-604.0
-26.0,-231.0,-136.0,-966.0,294.0,25.0,-82.0,-877.0,-586.0
-27.0,-229.0,-127.0,-928.0,294.0,17.0,-87.0,-870.0,-571.0
-31.0,-231.0,-127.0,-876.0,289.0,10.0,-92.0,-869.0,-558.0
-32.0,-231.0,-122.0,-818.0,280.0,2.0,-97.0,-867.0,-548.0
-34.0,-228.0,-126.0,-759.0,268.0,-1.0,-102.0,-864.0,-546.0
-32.0,-223.0,-125.0,-705.0,251.0,-3.0,-103.0,-865.0,-550.0
-36.0,-223.0,-129.0,-657.0,228.0,-5.0,-103.0,-859.0,-564.0
-37.0,-217.0,-132.0,-626.0,203.0,-10.0,-108.0,-843.0,-584.0
-34.0,-217.0,-139.0,-612.0,176.0,-19.0,-114.0,-831.0,-595.0
-36.0,-211.0,-143.0,-615.0,151.0,-27.0,-108.0,-821.0,-613.0
-38.0,-212.0,-145.0,-628.0,133.0,-37.0,-116.0,-816.0,-627.0
-36.0,-211.0,-149.0,-650.0,117.0,-46.0,-114.0,-820.0,-633.0
-35.0,-214.0,-148.0,-680.0,111.0,-50.0,-115.0,-824.0,-644.0
-35.0,-218.0,-146.0,-713.0,108.0,-50.0,-120.0,-840.0,-639.0
-37.0,-221.0,-150.0,-741.0,106.0,-52.0,-114.0,-849.0,-641.0
-37.0,-225.0,-151.0,-761.0,104.0,-58.0,-118.0,-859.0,-651.0
-36.0,-226.0,-151.0,-775.0,102.0,-62.0,-108.0,-867.0,-658.0
-32.0,-230.0,-155.0,-781.0,97.0,-66.0,-109.0,-874.0,-667.0
-35.0,-229.0,-156.0,-786.0,83.0,-67.0,-108.0,-874.0,-679.0
-29.0,-227.0,-157.0,-772.0,72.0,-76.0,-94.0,-871.0,-680.0
-31.0,-226.0,-150.0,-738.0,64.0,-75.0,-95.0,-868.0,-675.0
-30.0,-231.0,-153.0,-690.0,51.0,-74.0,-95.0,-866.0,-679.0
-31.0,-229.0,-149.0,-635.0,33.0,-72.0,-94.0,-866.0,-662.0
-28.0,-227.0,-149.0,-582.0,25.0,-65.0,-94.0,-864.0,-656.0
-31.0,-224.0,-148.0,-531.0,19.0,-58.0,-94.0,-853.0,-645.0
-29.0,-222.0,-147.0,-485.0,16.0,-53.0,-88.0,-844.0,-635.0
-31.0,-217.0,-146.0,-449.0,16.0,-51.0,-86.0,-829.0,-633.0
-29.0,-209.0,-147.0,-427.0,19.0,-48.0,-84.0,-817.0,-632.0
-25.0,-210.0,-148.0,-418.0,25.0,-47.0,-82.0,-807.0,-633.0
-24.0,-202.0,-146.0,-420.0,33.0,-48.0,-78.0,-794.0,-633.0
-20.0,-205.0,-149.0,-432.0,43.0,-47.0,-69.0,-794.0,-640.0
-20.0,-206.0,-147.0,-454.0,54.0,-48.0,-62.0,-790.0,-649.0
-18.0,-202.0,-151.0,-481.0,69.0,-49.0,-52.0,-793.0,-658.0
-17.0,-213.0,-151.0,-512.0,83.0,-54.0,-47.0,-797.0,-666.0
-15.0,-208.0,-157.0,-538.0,96.0,-61.0,-39.0,-805.0,-689.0
-13.0,-211.0,-162.0,-561.0,110.0,-69.0,-25.0,-813.0,-707.0
-11.0,-217.0,-167.0,-577.0,128.0,-74.0,-28.0,-826.0,-707.0
-14.0,-222.0,-165.0,-581.0,141.0,-77.0,-29.0,-840.0,-717.0
-16.0,-219.0,-168.0,-573.0,145.0,-84.0,-30.0,-842.0,-716.0
-13.0,-222.0,-164.0,-550.0,145.0,-81.0,-38.0,-840.0,-715.0
-18.0,-221.0,-167.0,-515.0,138.0,-82.0,-45.0,-841.0,-718.0
-18.0,-218.0,-169.0,-471.0,133.0,-82.0,-49.0,-834.0,-717.0
-24.0,-219.0,-166.0,-435.0,133.0,-73.0,-66.0,-834.0,-721.0
-26.0,-221.0,-169.0,-405.0,132.0,-65.0,-72.0,-832.0,-721.0
-28.0,-214.0,-169.0,-379.0,131.0,-54.0,-83.0,-823.0,-717.0
-30.0,-215.0,-166.0,-360.0,126.0,-44.0,-89.0,-824.0,-720.0
-30.0,-214.0,-170.0,-349.0,121.0,-39.0,-97.0,-820.0,-722.0
-30.0,-211.0,-168.0,-346.0,115.0,-37.0,-101.0,-819.0,-735.0
-32.0,-211.0,-175.0,-348.0,113.0,-35.0,-100.0,-807.0,-736.0
-33.0,-210.0,-173.0,-356.0,113.0,-34.0,-104.0,-813.0,-748.0
-31.0,-206.0,-175.0,-365.0,114.0,-36.0,-93.0,-804.0,-758.0
-29.0,-206.0,-177.0,-372.0,116.0,-35.0,-87.0,-794.0,-763.0
-26.0,-205.0,-178.0,-381.0,120.0,-31.0,-78.0,-782.0,-761.0
-26.0,-199.0,-175.0,-383.0,119.0,-28.0,-70.0,-778.0,-757.0
-21.0,-203.0,-173.0,-378.0,115.0,-29.0,-65.0,-769.0,-753.0
-27.0,-206.0,-171.0,-365.0,110.0,-30.0,-65.0,-774.0,-748.0
-21.0,-203.0,-171.0,-348.0,103.0,-31.0,-58.0,-770.0,-746.0
-19.0,-202.0,-172.0,-326.0,98.0,-33.0,-56.0,-770.0,-746.0
-21.0,-204.0,-172.0,-310.0,94.0,-36.0,-57.0,-770.0,-747.0
-20.0,-201.0,-175.0,-303.0,92.0,-40.0,-56.0,-776.0,-754.0
-22.0,-202.0,-174.0,-303.0,93.0,-44.0,-62.0,-771.0,-754.0
-23.0,-201.0,-174.0,-309.0,99.0,-46.0,-63.0,-767.0,-753.0
-24.0,-200.0,-173.0,-319.0,106.0,-51.0,-67.0,-759.0,-753.0
-21.0,-200.0,-174.0,-332.0,112.0,-53.0,-70.0,-749.0,-750.0
-23.0,-192.0,-175.0,-350.0,119.0,-59.0,-68.0,-735.0,-754.0
-21.0,-190.0,-174.0,-367.0,125.0,-64.0,-64.0,-726.0,-752.0
-22.0,-188.0,-175.0,-378.0,132.0,-70.0,-69.0,-716.0,-750.0
-24.0,-186.0,-175.0,-378.0,137.0,-75.0,-64.0,-711.0,-750.0
-23.0,-185.0,-171.0,-370.0,141.0,-79.0,-62.0,-704.0,-743.0
-24.0,-183.0,-173.0,-356.0,143.0,-82.0,-64.0,-697.0,-740.0
-21.0,-180.0,-172.0,-341.0,143.0,-91.0,-63.0,-682.0,-742.0
-18.0,-180.0,-175.0,-326.0,142.0,-92.0,-69.0,-675.0,-737.0
-21.0,-178.0,-173.0,-314.0,137.0,-95.0,-68.0,-674.0,-742.0
-22.0,-178.0,-173.0,-307.0,133.0,-99.0,-69.0,-665.0,-746.0
-22.0,-177.0,-178.0,-309.0,129.0,-105.0,-70.0,-671.0,-753.0
-24.0,-172.0,-177.0,-315.0,122.0,-111.0,-74.0,-669.0,-761.0
-22.0,-177.0,-173.0,-327.0,114.0,-119.0,-67.0,-672.0,-766.0
-20.0,-178.0,-177.0,-341.0,104.0,-123.0,-66.0,-673.0,-767.0
-23.0,-177.0,-181.0,-358.0,97.0,-125.0,-67.0,-674.0,-775.0
-22.0,-180.0,-182.0,-373.0,92.0,-125.0,-63.0,-678.0,-778.0
-23.0,-178.0,-181.0,-385.0,86.0,-125.0,-60.0,-683.0,-775.0
-20.0,-181.0,-178.0,-392.0,81.0,-121.0,-57.0,-690.0,-778.0
-19.0,-183.0,-179.0,-394.0,78.0,-119.0,-50.0,-693.0,-779.0
-20.0,-184.0,-181.0,-390.0,74.0,-117.0,-58.0,-696.0,-779.0
-18.0,-184.0,-183.0,-382.0,72.0,-114.0,-48.0,-700.0,-791.0
-18.0,-187.0,-184.0,-371.0,71.0,-112.0,-50.0,-701.0,-784.0
-16.0,-184.0,-184.0,-362.0,73.0,-108.0,-47.0,-701.0,-792.0
-14.0,-186.0,-183.0,-354.0,76.0,-104.0,-43.0,-704.0,-796.0
-17.0,-182.0,-183.0,-350.0,83.0,-100.0,-42.0,-702.0,-798.0
-17.0,-183.0,-186.0,-354.0,92.0,-97.0,-38.0,-699.0,-804.0
-14.0,-183.0,-183.0,-357.0,101.0,-91.0,-35.0,-696.0,-800.0
-13.0,-181.0,-188.0,-364.0,112.0,-87.0,-30.0,-688.0,-802.0
-13.0,-182.0,-188.0,-375.0,125.0,-79.0,-31.0,-692.0,-805.0
-9.0,-181.0,-191.0,-384.0,137.0,-75.0,-25.0,-684.0,-808.0
-11.0,-179.0,-187.0,-395.0,149.0,-72.0,-22.0,-681.0,-808.0
-12.0,-179.0,-192.0,-406.0,158.0,-69.0,-19.0,-687.0,-813.0
-14.0,-179.0,-189.0,-413.0,165.0,-67.0,-19.0,-679.0,-815.0
-12.0,-182.0,-191.0,-416.0,170.0,-66.0,-24.0,-684.0,-817.0
-12.0,-181.0,-190.0,-415.0,174.0,-68.0,-29.0,-681.0,-827.0
-10.0,-184.0,-197.0,-413.0,180.0,-63.0,-32.0,-681.0,-832.0
-15.0,-179.0,-192.0,-406.0,185.0,-66.0,-34.0,-678.0,-829.0
-15.0,-177.0,-195.0,-396.0,188.0,-66.0,-37.0,-674.0,-830.0
-16.0,-178.0,-195.0,-388.0,191.0,-65.0,-36.0,-674.0,-839.0
-16.0,-175.0,-196.0,-385.0,196.0,-62.0,-44.0,-674.0,-833.0
-16.0,-174.0,-195.0,-387.0,202.0,-58.0,-45.0,-664.0,-826.0
-20.0,-171.0,-193.0,-395.0,208.0,-55.0,-47.0,-656.0,-819.0
-17.0,-170.0,-195.0,-408.0,214.0,-51.0,-44.0,-647.0,-825.0
-20.0,-166.0,-195.0,-426.0,219.0,-48.0,-43.0,-637.0,-831.0
-16.0,-170.0,-192.0,-448.0,223.0,-46.0,-47.0,-632.0,-829.0
-16.0,-163.0,-197.0,-473.0,230.0,-39.0,-44.0,-630.0,-830.0
-18.0,-165.0,-192.0,-503.0,238.0,-40.0,-52.0,-619.0,-824.0
-15.0,-165.0,-192.0,-510.0,238.0,-42.0,-37.0,-634.0,-828.0
-15.0,-165.0,-191.0,-511.0,241.0,-43.0,-36.0,-628.0,-823.0
-15.0,-168.0,-195.0,-507.0,246.0,-43.0,-36.0,-635.0,-816.0
-14.0,-167.0,-194.0,-500.0,249.0,-44.0,-34.0,-628.0,-817.0
-13.0,-170.0,-191.0,-487.0,253.0,-43.0,-32.0,-631.0,-817.0
-12.0,-171.0,-189.0,-475.0,254.0,-42.0,-38.0,-644.0,-807.0
-18.0,-169.0,-188.0,-460.0,255.0,-43.0,-45.0,-647.0,-802.0
-19.0,-172.0,-185.0,-442.0,254.0,-46.0,-48.0,-648.0,-798.0
-20.0,-173.0,-187.0,-414.0,251.0,-51.0,-54.0,-646.0,-791.0
-18.0,-169.0,-181.0,-378.0,247.0,-59.0,-54.0,-650.0,-790.0
-18.0,-171.0,-181.0,-336.0,239.0,-63.0,-40.0,-643.0,-783.0
-15.0,-171.0,-178.0,-302.0,226.0,-66.0,-35.0,-636.0,-773.0
-16.0,-164.0,-177.0,-274.0,209.0,-73.0,-42.0,-618.0,-769.0
-12.0,-161.0,-174.0,-254.0,193.0,-80.0,-37.0,-609.0,-763.0
-15.0,-158.0,-176.0,-245.0,186.0,-83.0,-43.0,-596.0,-765.0
-19.0,-156.0,-178.0,-245.0,190.0,-87.0,-45.0,-593.0,-756.0
-17.0,-154.0,-177.0,-246.0,201.0,-93.0,-45.0,-575.0,-763.0
-17.0,-152.0,-173.0,-250.0,213.0,-99.0,-55.0,-570.0,-747.0
-18.0,-149.0,-172.0,-254.0,219.0,-105.0,-60.0,-569.0,-742.0
-16.0,-146.0,-177.0,-261.0,225.0,-110.0,-54.0,-553.0,-765.0
-19.0,-146.0,-172.0,-284.0,250.0,-92.0,-54.0,-545.0,-758.0
-25.0,-142.0,-180.0,-311.0,254.0,-122.0,-81.0,-540.0,-772.0
-22.0,-144.0,-185.0,-331.0,255.0,-131.0,-62.0,-542.0,-779.0
-21.0,-138.0,-186.0,-355.0,258.0,-138.0,-70.0,-530.0,-786.0
-17.0,-141.0,-182.0,-382.0,258.0,-144.0,-61.0,-530.0,-786.0
-17.0,-139.0,-182.0,-414.0,256.0,-146.0,-52.0,-532.0,-787.0
-16.0,-140.0,-187.0,-451.0,252.0,-150.0,-46.0,-532.0,-792.0
-17.0,-140.0,-182.0,-488.0,247.0,-155.0,-34.0,-532.0,-793.0
-6.0,-140.0,-186.0,-524.0,245.0,-157.0,-21.0,-540.0,-794.0
-7.0,-142.0,-179.0,-566.0,254.0,-139.0,0.0,-548.0,-778.0
-7.0,-144.0,-180.0,-604.0,256.0,-159.0,-18.0,-545.0,-771.0
-4.0,-146.0,-177.0,-624.0,256.0,-166.0,1.0,-562.0,-772.0
-3.0,-152.0,-172.0,-639.0,262.0,-171.0,4.0,-575.0,-757.0
-2.0,-148.0,-172.0,-651.0,272.0,-173.0,1.0,-567.0,-751.0
-3.0,-152.0,-172.0,-652.0,279.0,-162.0,-1.0,-566.0,-746.0
-5.0,-154.0,-174.0,-643.0,287.0,-153.0,-4.0,-566.0,-743.0
-7.0,-152.0,-172.0,-632.0,295.0,-145.0,-4.0,-564.0,-738.0
-7.0,-150.0,-172.0,-620.0,300.0,-140.0,-16.0,-559.0,-737.0
-6.0,-146.0,-175.0,-606.0,303.0,-127.0,0.0,-556.0,-747.0
-11.0,-143.0,-164.0,-608.0,315.0,-107.0,-24.0,-543.0,-714.0
-11.0,-145.0,-167.0,-589.0,306.0,-119.0,-26.0,-540.0,-723.0
-10.0,-143.0,-164.0,-559.0,293.0,-119.0,-22.0,-534.0,-720.0
-8.0,-142.0,-165.0,-534.0,289.0,-123.0,-17.0,-529.0,-712.0
-7.0,-138.0,-163.0,-523.0,289.0,-123.0,-12.0,-535.0,-704.0
-5.0,-140.0,-161.0,-520.0,288.0,-123.0,-7.0,-528.0,-704.0
-8.0,-138.0,-162.0,-519.0,286.0,-123.0,-3.0,-529.0,-705.0
-7.0,-139.0,-157.0,-511.0,283.0,-124.0,-2.0,-524.0,-696.0
-6.0,-141.0,-160.0,-499.0,281.0,-120.0,-3.0,-525.0,-688.0
-3.0,-144.0,-161.0,-479.0,286.0,-116.0,-3.0,-539.0,-687.0
0.0,-144.0,-159.0,-461.0,294.0,-115.0,1.0,-546.0,-694.0
0.0,-151.0,-159.0,-453.0,305.0,-112.0,6.0,-560.0,-696.0
0.0,-156.0,-161.0,-450.0,320.0,-109.0,13.0,-577.0,-704.0
2.0,-157.0,-161.0,-450.0,336.0,-106.0,20.0,-587.0,-698.0
7.0,-158.0,-157.0,-448.0,351.0,-103.0,26.0,-602.0,-697.0
0.0,-162.0,-159.0,-437.0,357.0,-99.0,28.0,-610.0,-697.0
0.0,-168.0,-157.0,-417.0,358.0,-96.0,21.0,-626.0,-693.0
0.0,-167.0,-160.0,-388.0,354.0,-96.0,19.0,-627.0,-694.0
0.0,-168.0,-159.0,-355.0,353.0,-93.0,17.0,-628.0,-689.0
0.0,-166.0,-162.0,-317.0,355.0,-90.0,14.0,-620.0,-688.0
-1.0,-164.0,-166.0,-280.0,359.0,-85.0,13.0,-616.0,-692.0
2.0,-164.0,-159.0,-245.0,370.0,-62.0,21.0,-623.0,-701.0
-5.0,-160.0,-162.0,-237.0,384.0,-49.0,15.0,-596.0,-691.0
0.0,-163.0,-164.0,-204.0,375.0,-52.0,27.0,-605.0,-706.0
3.0,-163.0,-169.0,-164.0,359.0,-38.0,31.0,-606.0,-724.0
3.0,-161.0,-171.0,-132.0,342.0,-27.0,18.0,-623.0,-733.0
3.0,-162.0,-178.0,-113.0,331.0,-6.0,50.0,-604.0,-762.0
1.0,-161.0,-181.0,-91.0,311.0,-11.0,28.0,-598.0,-786.0
1.0,-161.0,-188.0,-63.0,283.0,-14.0,35.0,-604.0,-806.0
1.0,-159.0,-190.0,-31.0,248.0,-30.0,34.0,-599.0,-806.0
-1.0,-154.0,-191.0,2.0,206.0,-58.0,25.0,-583.0,-833.0
-5.0,-154.0,-187.0,27.0,176.0,-92.0,-3.0,-573.0,-816.0
-1.0,-142.0,-188.0,35.0,156.0,-115.0,15.0,-528.0,-802.0
-9.0,-136.0,-181.0,31.0,126.0,-174.0,-15.0,-503.0,-785.0
-8.0,-128.0,-180.0,28.0,91.0,-235.0,-18.0,-479.0,-772.0
-10.0,-120.0,-180.0,11.0,68.0,-288.0,-17.0,-465.0,-753.0
-3.0,-111.0,-167.0,-29.0,57.0,-343.0,-26.0,-430.0,-750.0
-12.0,-112.0,-172.0,-81.0,55.0,-381.0,-30.0,-427.0,-752.0
-12.0,-112.0,-178.0,-138.0,57.0,-417.0,-31.0,-427.0,-757.0
-11.0,-114.0,-179.0,-197.0,62.0,-447.0,-29.0,-424.0,-768.0
-8.0,-115.0,-190.0,-255.0,73.0,-468.0,-24.0,-431.0,-785.0
-8.0,-118.0,-191.0,-313.0,87.0,-483.0,-13.0,-442.0,-819.0
-3.0,-119.0,-197.0,-372.0,108.0,-493.0,-7.0,-456.0,-842.0
1.0,-120.0,-208.0,-437.0,137.0,-502.0,17.0,-461.0,-867.0
7.0,-121.0,-214.0,-507.0,172.0,-508.0,43.0,-464.0,-906.0
15.0,-121.0,-220.0,-585.0,211.0,-518.0,78.0,-462.0,-932.0
23.0,-121.0,-222.0,-676.0,250.0,-533.0,103.0,-466.0,-957.0
30.0,-119.0,-225.0,-775.0,283.0,-554.0,133.0,-447.0,-974.0
33.0,-119.0,-228.0,-880.0,314.0,-580.0,155.0,-450.0,-978.0
41.0,-118.0,-230.0,-981.0,344.0,-612.0,174.0,-455.0,-975.0
45.0,-120.0,-226.0,-1073.0,374.0,-644.0,192.0,-451.0,-972.0
50.0,-121.0,-230.0,-1156.0,403.0,-679.0,197.0,-463.0,-980.0
48.0,-122.0,-235.0,-1234.0,431.0,-716.0,204.0,-455.0,-989.0
49.0,-123.0,-238.0,-1306.0,462.0,-750.0,204.0,-463.0,-1001.0
52.0,-127.0,-238.0,-1373.0,499.0,-782.0,206.0,-474.0,-1018.0
51.0,-130.0,-245.0,-1430.0,539.0,-809.0,217.0,-480.0,-1046.0
51.0,-132.0,-253.0,-1478.0,581.0,-833.0,220.0,-492.0,-1065.0
58.0,-138.0,-261.0,-1518.0,614.0,-857.0,235.0,-500.0,-1082.0
56.0,-136.0,-261.0,-1548.0,635.0,-878.0,242.0,-511.0,-1104.0
56.0,-140.0,-267.0,-1572.0,646.0,-898.0,249.0,-518.0,-1122.0
64.0,-143.0,-269.0,-1592.0,644.0,-911.0,254.0,-528.0,-1143.0
63.0,-149.0,-273.0,-1609.0,640.0,-918.0,258.0,-537.0,-1150.0
57.0,-151.0,-275.0,-1615.0,632.0,-922.0,255.0,-557.0,-1163.0
60.0,-158.0,-281.0,-1607.0,608.0,-922.0,253.0,-566.0,-1184.0
52.0,-159.0,-285.0,-1591.0,581.0,-927.0,245.0,-585.0,-1204.0
50.0,-164.0,-285.0,-1563.0,549.0,-936.0,222.0,-601.0,-1213.0
41.0,-168.0,-286.0,-1523.0,510.0,-945.0,196.0,-612.0,-1222.0
34.0,-171.0,-284.0,-1478.0,472.0,-953.0,169.0,-627.0,-1207.0
30.0,-172.0,-279.0,-1426.0,430.0,-958.0,145.0,-628.0,-1185.0
24.0,-172.0,-275.0,-1373.0,391.0,-962.0,132.0,-636.0,-1164.0
21.0,-166.0,-267.0,-1332.0,357.0,-976.0,125.0,-622.0,-1135.0
20.0,-163.0,-257.0,-1303.0,326.0,-989.0,111.0,-610.0,-1111.0
22.0,-158.0,-253.0,-1292.0,292.0,-993.0,125.0,-593.0,-1077.0
31.0,-150.0,-240.0,-1301.0,255.0,-1001.0,137.0,-563.0,-1016.0
33.0,-146.0,-229.0,-1325.0,224.0,-1011.0,152.0,-547.0,-976.0
37.0,-147.0,-218.0,-1351.0,191.0,-1019.0,169.0,-532.0,-935.0
37.0,-137.0,-211.0,-1381.0,158.0,-1029.0,165.0,-524.0,-902.0
41.0,-132.0,-205.0,-1412.0,130.0,-1030.0,180.0,-502.0,-867.0
40.0,-132.0,-197.0,-1437.0,114.0,-1017.0,194.0,-487.0,-827.0
43.0,-124.0,-185.0,-1445.0,94.0,-977.0,198.0,-465.0,-805.0
36.0,-123.0,-183.0,-1431.0,57.0,-925.0,187.0,-455.0,-793.0
38.0,-124.0,-180.0,-1391.0,5.0,-882.0,177.0,-445.0,-777.0
44.0,-119.0,-172.0,-1326.0,-50.0,-847.0,195.0,-426.0,-749.0
42.0,-124.0,-159.0,-1223.0,-93.0,-827.0,195.0,-430.0,-682.0
38.0,-124.0,-146.0,-1073.0,-144.0,-815.0,181.0,-444.0,-610.0
41.0,-133.0,-119.0,-879.0,-215.0,-801.0,174.0,-461.0,-516.0
32.0,-138.0,-103.0,-648.0,-308.0,-775.0,176.0,-477.0,-461.0
28.0,-153.0,-53.0,-379.0,-445.0,-752.0,159.0,-522.0,-290.0
45.0,-167.0,-36.0,-41.0,-642.0,-746.0,221.0,-586.0,-202.0
43.0,-161.0,-37.0,269.0,-873.0,-782.0,235.0,-600.0,-176.0
45.0,-128.0,-81.0,423.0,-1167.0,-838.0,245.0,-551.0,-299.0
40.0,-81.0,-134.0,288.0,-1464.0,-890.0,210.0,-408.0,-534.0
24.0,-31.0,-148.0,-147.0,-1693.0,-900.0,147.0,-239.0,-634.0
19.0,9.0,-148.0,-689.0,-1855.0,-854.0,106.0,-42.0,-631.0
13.0,42.0,-144.0,-1159.0,-1965.0,-798.0,73.0,134.0,-615.0
7.0,54.0,-147.0,-1445.0,-2026.0,-767.0,43.0,253.0,-610.0
-4.0,60.0,-165.0,-1522.0,-2046.0,-779.0,-14.0,262.0,-686.0
-7.0,48.0,-176.0,-1475.0,-2061.0,-828.0,-34.0,241.0,-768.0
-11.0,35.0,-183.0,-1375.0,-2073.0,-895.0,-42.0,189.0,-786.0
0.0,19.0,-178.0,-1235.0,-2092.0,-932.0,3.0,142.0,-766.0
4.0,-13.0,-146.0,-1031.0,-2153.0,-931.0,55.0,36.0,-666.0
16.0,-28.0,-133.0,-666.0,-2301.0,-921.0,106.0,-19.0,-580.0
21.0,-21.0,-123.0,-244.0,-2509.0,-953.0,138.0,-21.0,-544.0
21.0,-2.0,-121.0,92.0,-2724.0,-1004.0,119.0,20.0,-514.0
12.0,15.0,-112.0,274.0,-2917.0,-1035.0,87.0,65.0,-487.0
-9.0,31.0,-109.0,295.0,-3103.0,-1034.0,-8.0,120.0,-469.0
-34.0,43.0,-106.0,193.0,-3275.0,-1021.0,-114.0,154.0,-479.0
-66.0,53.0,-112.0,23.0,-3410.0,-1002.0,-246.0,173.0,-473.0
-93.0,45.0,-116.0,-153.0,-3486.0,-957.0,-361.0,178.0,-499.0
-119.0,35.0,-135.0,-263.0,-3506.0,-842.0,-472.0,143.0,-564.0
-132.0,21.0,-159.0,-284.0,-3512.0,-757.0,-546.0,96.0,-666.0
-153.0,9.0,-177.0,-249.0,-3507.0,-736.0,-598.0,59.0,-741.0
-164.0,7.0,-192.0,-205.0,-3520.0,-743.0,-632.0,22.0,-804.0
-166.0,-1.0,-209.0,-182.0,-3575.0,-760.0,-645.0,9.0,-856.0
-167.0,-6.0,-221.0,-178.0,-3679.0,-769.0,-633.0,-23.0,-921.0
-157.0,-14.0,-238.0,-186.0,-3831.0,-773.0,-596.0,-40.0,-997.0
-144.0,-12.0,-250.0,-190.0,-4013.0,-788.0,-533.0,-42.0,-1070.0
-129.0,-9.0,-271.0,-197.0,-4201.0,-806.0,-474.0,-18.0,-1128.0
-115.0,3.0,-271.0,-213.0,-4366.0,-817.0,-432.0,16.0,-1122.0
-106.0,11.0,-243.0,-222.0,-4530.0,-822.0,-398.0,64.0,-1052.0
-100.0,29.0,-228.0,-213.0,-4675.0,-819.0,-382.0,123.0,-981.0
-102.0,53.0,-219.0,-205.0,-4813.0,-807.0,-380.0,190.0,-923.0
-102.0,67.0,-210.0,-210.0,-4943.0,-795.0,-388.0,259.0,-891.0
-113.0,84.0,-200.0,-224.0,-5072.0,-800.0,-425.0,318.0,-848.0
-122.0,93.0,-189.0,-239.0,-5209.0,-822.0,-465.0,362.0,-794.0
-135.0,105.0,-191.0,-244.0,-5334.0,-872.0,-523.0,408.0,-783.0
-146.0,120.0,-197.0,-241.0,-5412.0,-886.0,-555.0,455.0,-803.0
-153.0,129.0,-224.0,-250.0,-5428.0,-886.0,-619.0,485.0,-922.0
-162.0,133.0,-263.0,-274.0,-5372.0,-877.0,-669.0,504.0,-1066.0
-167.0,134.0,-281.0,-328.0,-5256.0,-863.0,-695.0,507.0,-1163.0
-168.0,135.0,-286.0,-393.0,-5107.0,-845.0,-690.0,510.0,-1187.0
-163.0,130.0,-282.0,-461.0,-4973.0,-867.0,-675.0,493.0,-1167.0
-163.0,129.0,-271.0,-533.0,-4881.0,-942.0,-667.0,497.0,-1127.0
-174.0,134.0,-265.0,-611.0,-4833.0,-1053.0,-690.0,508.0,-1110.0
-199.0,138.0,-264.0,-708.0,-4835.0,-1153.0,-756.0,509.0,-1087.0
-212.0,135.0,-268.0,-831.0,-4885.0,-1198.0,-830.0,486.0,-1109.0
-252.0,125.0,-256.0,-1000.0,-4926.0,-1181.0,-957.0,457.0,-1071.0
-312.0,115.0,-242.0,-1183.0,-4967.0,-1124.0,-1250.0,408.0,-997.0
-351.0,104.0,-240.0,-1299.0,-5007.0,-1002.0,-1413.0,391.0,-986.0
-413.0,130.0,-252.0,-1333.0,-4974.0,-841.0,-1673.0,463.0,-1050.0
-462.0,132.0,-262.0,-1348.0,-4842.0,-733.0,-1878.0,509.0,-1084.0
-510.0,157.0,-281.0,-1274.0,-4632.0,-662.0,-2076.0,611.0,-1159.0
-555.0,186.0,-313.0,-1141.0,-4363.0,-523.0,-2181.0,532.0,-1327.0
-525.0,183.0,-339.0,-843.0,-4031.0,-321.0,-2132.0,738.0,-1443.0
-539.0,230.0,-366.0,-591.0,-3731.0,-25.0,-2163.0,849.0,-1511.0
-496.0,261.0,-392.0,-577.0,-3518.0,343.0,-2018.0,926.0,-1621.0
-428.0,275.0,-401.0,-869.0,-3296.0,621.0,-1761.0,964.0,-1663.0
-391.0,285.0,-367.0,-1341.0,-3008.0,736.0,-1634.0,1040.0,-1512.0
-385.0,272.0,-321.0,-1718.0,-2710.0,794.0,-1586.0,1032.0,-1326.0
-384.0,236.0,-306.0,-1861.0,-2454.0,838.0,-1585.0,915.0,-1265.0
-404.0,202.0,-282.0,-1781.0,-2184.0,905.0,-1656.0,791.0,-1186.0
-425.0,162.0,-268.0,-1547.0,-1926.0,1003.0,-1708.0,651.0,-1123.0
-431.0,149.0,-254.0,-1310.0,-1702.0,1112.0,-1755.0,605.0,-1068.0
-406.0,112.0,-252.0,-1135.0,-1426.0,1246.0,-1684.0,458.0,-1073.0
-410.0,90.0,-228.0,-968.0,-1040.0,1334.0,-1694.0,380.0,-982.0
-389.0,74.0,-236.0,-836.0,-672.0,1374.0,-1620.0,289.0,-974.0
-353.0,71.0,-254.0,-817.0,-300.0,1347.0,-1506.0,241.0,-1035.0
-314.0,57.0,-239.0,-990.0,101.0,1290.0,-1325.0,182.0,-1049.0
-306.0,56.0,-200.0,-1237.0,470.0,1189.0,-1249.0,192.0,-841.0
-307.0,52.0,-156.0,-1415.0,694.0,1113.0,-1218.0,200.0,-669.0
-281.0,40.0,-130.0,-1476.0,811.0,1066.0,-1140.0,170.0,-555.0
-264.0,36.0,-91.0,-1457.0,903.0,988.0,-1057.0,147.0,-431.0
-250.0,25.0,-40.0,-1391.0,981.0,866.0,-1029.0,126.0,-280.0
-250.0,19.0,-44.0,-1279.0,1043.0,729.0,-975.0,96.0,-187.0
-243.0,19.0,-29.0,-1119.0,1124.0,576.0,-975.0,91.0,-146.0
-241.0,7.0,-19.0,-916.0,1249.0,444.0,-977.0,50.0,-100.0
-240.0,11.0,-29.0,-676.0,1413.0,346.0,-976.0,72.0,-139.0
-236.0,22.0,-45.0,-506.0,1591.0,264.0,-952.0,84.0,-197.0
-244.0,32.0,-46.0,-433.0,1772.0,216.0,-964.0,103.0,-212.0
-246.0,38.0,-42.0,-435.0,1902.0,213.0,-962.0,139.0,-197.0
-234.0,43.0,-49.0,-475.0,1974.0,236.0,-917.0,143.0,-213.0
-210.0,38.0,-58.0,-540.0,2020.0,267.0,-839.0,133.0,-249.0
-206.0,48.0,-55.0,-637.0,2064.0,301.0,-807.0,144.0,-273.0
-211.0,39.0,-42.0,-754.0,2049.0,348.0,-826.0,144.0,-200.0
-229.0,37.0,-22.0,-834.0,1934.0,396.0,-869.0,143.0,-144.0
-242.0,31.0,-18.0,-854.0,1752.0,445.0,-915.0,127.0,-99.0
-252.0,23.0,-16.0,-815.0,1548.0,484.0,-964.0,102.0,-88.0
-265.0,20.0,-17.0,-738.0,1348.0,499.0,-1026.0,89.0,-98.0
-271.0,19.0,-35.0,-641.0,1180.0,504.0,-1059.0,85.0,-168.0
-280.0,21.0,-50.0,-560.0,1057.0,486.0,-1102.0,85.0,-256.0
-291.0,26.0,-66.0,-508.0,968.0,450.0,-1156.0,112.0,-309.0
-304.0,33.0,-76.0,-473.0,892.0,410.0,-1206.0,136.0,-331.0
-307.0,45.0,-76.0,-440.0,821.0,381.0,-1201.0,163.0,-339.0
-303.0,58.0,-77.0,-415.0,768.0,353.0,-1209.0,198.0,-333.0
-300.0,66.0,-72.0,-402.0,712.0,331.0,-1178.0,221.0,-326.0
-287.0,68.0,-73.0,-411.0,653.0,301.0,-1145.0,252.0,-327.0
-274.0,71.0,-78.0,-443.0,591.0,269.0,-1099.0,268.0,-326.0
-262.0,72.0,-71.0,-495.0,528.0,228.0,-1054.0,273.0,-325.0
-249.0,70.0,-71.0,-553.0,457.0,184.0,-984.0,259.0,-326.0
-240.0,63.0,-67.0,-599.0,379.0,146.0,-946.0,253.0,-305.0
-234.0,57.0,-66.0,-614.0,282.0,122.0,-915.0,238.0,-292.0
-232.0,53.0,-59.0,-592.0,177.0,117.0,-909.0,231.0,-283.0
-231.0,57.0,-65.0,-540.0,84.0,128.0,-897.0,222.0,-298.0
-232.0,58.0,-70.0,-474.0,21.0,136.0,-918.0,234.0,-308.0
-237.0,53.0,-82.0,-404.0,-3.0,145.0,-930.0,246.0,-339.0
-236.0,71.0,-84.0,-343.0,8.0,158.0,-936.0,269.0,-367.0
-234.0,75.0,-83.0,-294.0,56.0,171.0,-938.0,291.0,-383.0
-235.0,83.0,-87.0,-261.0,125.0,185.0,-935.0,318.0,-392.0
-228.0,89.0,-97.0,-245.0,195.0,192.0,-909.0,341.0,-411.0
-224.0,94.0,-96.0,-234.0,248.0,185.0,-896.0,359.0,-425.0
-218.0,95.0,-105.0,-217.0,276.0,168.0,-878.0,369.0,-455.0
-216.0,98.0,-108.0,-191.0,289.0,154.0,-854.0,376.0,-484.0
-213.0,98.0,-113.0,-151.0,293.0,137.0,-852.0,379.0,-489.0
-215.0,96.0,-115.0,-94.0,301.0,129.0,-860.0,381.0,-502.0
-217.0,94.0,-118.0,-27.0,317.0,129.0,-875.0,382.0,-502.0
-211.0,113.0,-120.0,41.0,348.0,135.0,-893.0,391.0,-505.0
-223.0,105.0,-122.0,103.0,397.0,144.0,-911.0,393.0,-509.0
-237.0,106.0,-108.0,158.0,462.0,149.0,-934.0,400.0,-506.0
-238.0,112.0,-115.0,205.0,539.0,155.0,-934.0,406.0,-511.0
-232.0,116.0,-126.0,238.0,616.0,155.0,-934.0,417.0,-510.0
-236.0,103.0,-110.0,266.0,679.0,147.0,-923.0,416.0,-492.0
-222.0,103.0,-126.0,300.0,731.0,144.0,-911.0,422.0,-487.0
-204.0,101.0,-110.0,344.0,779.0,152.0,-859.0,418.0,-466.0
-211.0,117.0,-88.0,395.0,823.0,162.0,-837.0,418.0,-450.0
-207.0,114.0,-102.0,444.0,858.0,174.0,-811.0,413.0,-440.0
-194.0,112.0,-86.0,482.0,889.0,180.0,-776.0,398.0,-428.0
-192.0,104.0,-98.0,508.0,912.0,180.0,-764.0,399.0,-420.0
-192.0,104.0,-90.0,526.0,924.0,186.0,-758.0,398.0,-414.0
-190.0,102.0,-92.0,534.0,926.0,195.0,-752.0,394.0,-397.0
-189.0,101.0,-90.0,539.0,915.0,200.0,-740.0,391.0,-399.0
-191.0,91.0,-93.0,543.0,893.0,203.0,-749.0,390.0,-396.0
-200.0,106.0,-98.0,544.0,864.0,211.0,-769.0,394.0,-416.0
-197.0,102.0,-103.0,549.0,832.0,225.0,-807.0,397.0,-429.0
-203.0,100.0,-102.0,556.0,812.0,254.0,-823.0,404.0,-441.0
-212.0,110.0,-104.0,559.0,790.0,266.0,-855.0,417.0,-453.0
-215.0,116.0,-95.0,552.0,768.0,280.0,-865.0,443.0,-455.0
-222.0,109.0,-105.0,537.0,740.0,290.0,-874.0,436.0,-454.0
-223.0,110.0,-105.0,535.0,716.0,300.0,-882.0,438.0,-466.0
-222.0,111.0,-108.0,533.0,681.0,309.0,-874.0,432.0,-483.0
-209.0,114.0,-116.0,522.0,632.0,313.0,-851.0,422.0,-504.0
-211.0,106.0,-114.0,484.0,553.0,295.0,-831.0,401.0,-527.0
-204.0,97.0,-125.0,447.0,463.0,269.0,-815.0,384.0,-538.0
-207.0,100.0,-135.0,437.0,383.0,261.0,-818.0,378.0,-569.0
-201.0,97.0,-139.0,430.0,319.0,269.0,-804.0,374.0,-599.0
-200.0,96.0,-143.0,429.0,282.0,259.0,-791.0,383.0,-634.0
-191.0,94.0,-160.0,452.0,280.0,227.0,-786.0,393.0,-664.0
-194.0,93.0,-154.0,500.0,300.0,206.0,-784.0,386.0,-690.0
-182.0,96.0,-161.0,594.0,342.0,214.0,-743.0,366.0,-712.0
-169.0,98.0,-176.0,685.0,370.0,196.0,-715.0,376.0,-729.0
-176.0,103.0,-180.0,728.0,386.0,171.0,-693.0,382.0,-743.0
-164.0,102.0,-171.0,738.0,406.0,142.0,-676.0,385.0,-740.0
-170.0,89.0,-171.0,744.0,436.0,115.0,-654.0,378.0,-735.0
-147.0,90.0,-167.0,750.0,465.0,80.0,-631.0,360.0,-730.0
-148.0,84.0,-173.0,756.0,486.0,44.0,-624.0,335.0,-732.0
-163.0,72.0,-179.0,769.0,498.0,9.0,-616.0,304.0,-733.0
-171.0,68.0,-182.0,790.0,504.0,-18.0,-630.0,277.0,-749.0
-154.0,53.0,-195.0,813.0,505.0,-36.0,-652.0,250.0,-776.0
-164.0,55.0,-184.0,828.0,505.0,-47.0,-668.0,228.0,-795.0
-173.0,50.0,-191.0,838.0,512.0,-55.0,-686.0,213.0,-810.0
-177.0,51.0,-194.0,834.0,510.0,-57.0,-703.0,202.0,-825.0
-183.0,47.0,-200.0,827.0,506.0,-62.0,-714.0,190.0,-844.0
-182.0,38.0,-202.0,819.0,505.0,-61.0,-729.0,185.0,-838.0
-188.0,49.0,-199.0,805.0,505.0,-57.0,-733.0,173.0,-844.0
-190.0,36.0,-204.0,792.0,508.0,-61.0,-749.0,170.0,-849.0
-190.0,39.0,-205.0,794.0,518.0,-79.0,-753.0,175.0,-852.0
-192.0,45.0,-198.0,818.0,544.0,-101.0,-753.0,173.0,-846.0
-187.0,38.0,-197.0,854.0,561.0,-124.0,-743.0,165.0,-849.0
-185.0,38.0,-202.0,885.0,571.0,-154.0,-738.0,164.0,-856.0
-180.0,37.0,-200.0,889.0,562.0,-181.0,-722.0,150.0,-866.0
-184.0,35.0,-204.0,862.0,540.0,-213.0,-714.0,144.0,-866.0
-188.0,30.0,-204.0,813.0,508.0,-233.0,-715.0,134.0,-860.0
-195.0,32.0,-194.0,756.0,472.0,-247.0,-716.0,113.0,-848.0
-187.0,25.0,-194.0,707.0,435.0,-247.0,-723.0,109.0,-837.0
-182.0,23.0,-194.0,651.0,395.0,-233.0,-731.0,107.0,-831.0
-187.0,29.0,-194.0,592.0,366.0,-214.0,-733.0,92.0,-836.0
-191.0,24.0,-202.0,537.0,351.0,-195.0,-758.0,96.0,-842.0
-208.0,17.0,-193.0,489.0,343.0,-176.0,-749.0,88.0,-833.0
-193.0,30.0,-190.0,450.0,331.0,-154.0,-755.0,101.0,-845.0
-188.0,34.0,-190.0,409.0,320.0,-136.0,-747.0,104.0,-854.0
-183.0,25.0,-183.0,357.0,302.0,-121.0,-735.0,86.0,-859.0
-198.0,31.0,-209.0,320.0,286.0,-119.0,-733.0,90.0,-871.0
-185.0,24.0,-195.0,294.0,265.0,-112.0,-716.0,85.0,-862.0
-182.0,21.0,-195.0,271.0,239.0,-111.0,-703.0,80.0,-871.0
-170.0,23.0,-201.0,250.0,216.0,-112.0,-690.0,66.0,-876.0
-177.0,-1.0,-205.0,229.0,196.0,-114.0,-690.0,52.0,-872.0
-178.0,10.0,-203.0,210.0,179.0,-116.0,-689.0,33.0,-867.0
-174.0,9.0,-205.0,194.0,169.0,-109.0,-698.0,33.0,-865.0
-172.0,10.0,-197.0,173.0,163.0,-89.0,-695.0,28.0,-856.0
-175.0,6.0,-199.0,153.0,172.0,-69.0,-687.0,31.0,-854.0
-185.0,11.0,-201.0,134.0,191.0,-51.0,-712.0,44.0,-857.0
-184.0,18.0,-202.0,96.0,198.0,-27.0,-729.0,64.0,-852.0
-184.0,19.0,-199.0,48.0,195.0,-11.0,-721.0,76.0,-845.0
-186.0,19.0,-202.0,16.0,186.0,2.0,-725.0,88.0,-849.0
-182.0,27.0,-198.0,-11.0,172.0,10.0,-717.0,91.0,-837.0
-182.0,26.0,-186.0,-23.0,147.0,13.0,-714.0,94.0,-843.0
-170.0,18.0,-196.0,-30.0,115.0,13.0,-706.0,91.0,-841.0
-182.0,23.0,-199.0,-32.0,80.0,11.0,-711.0,90.0,-838.0
-181.0,24.0,-200.0,-35.0,43.0,9.0,-713.0,90.0,-846.0
-182.0,22.0,-201.0,-37.0,7.0,9.0,-710.0,91.0,-846.0
-179.0,13.0,-197.0,-43.0,-25.0,13.0,-716.0,85.0,-841.0
-188.0,20.0,-195.0,-53.0,-56.0,19.0,-714.0,90.0,-830.0
-166.0,10.0,-192.0,-64.0,-84.0,27.0,-711.0,87.0,-822.0
-184.0,21.0,-190.0,-78.0,-106.0,35.0,-706.0,89.0,-810.0
-181.0,24.0,-191.0,-96.0,-122.0,44.0,-711.0,95.0,-801.0
-180.0,24.0,-183.0,-112.0,-134.0,53.0,-710.0,95.0,-790.0
-179.0,27.0,-179.0,-128.0,-142.0,64.0,-707.0,100.0,-780.0
-179.0,30.0,-174.0,-141.0,-147.0,70.0,-706.0,110.0,-777.0
-173.0,35.0,-181.0,-153.0,-149.0,77.0,-711.0,116.0,-767.0
-181.0,35.0,-179.0,-161.0,-148.0,80.0,-708.0,119.0,-762.0
-179.0,31.0,-175.0,-168.0,-146.0,81.0,-704.0,129.0,-765.0
-183.0,30.0,-182.0,-174.0,-140.0,80.0,-710.0,121.0,-763.0
-180.0,22.0,-170.0,-176.0,-136.0,78.0,-714.0,128.0,-755.0
-181.0,38.0,-184.0,-174.0,-132.0,76.0,-716.0,123.0,-764.0
-179.0,30.0,-174.0,-171.0,-128.0,75.0,-718.0,126.0,-758.0
-180.0,30.0,-176.0,-167.0,-123.0,73.0,-716.0,130.0,-763.0
-185.0,33.0,-175.0,-164.0,-117.0,71.0,-729.0,130.0,-756.0
-184.0,32.0,-175.0,-160.0,-111.0,72.0,-728.0,126.0,-753.0
-186.0,29.0,-176.0,-154.0,-104.0,72.0,-731.0,130.0,-758.0
-181.0,31.0,-175.0,-149.0,-96.0,74.0,-738.0,130.0,-746.0
-185.0,33.0,-172.0,-139.0,-85.0,78.0,-737.0,132.0,-742.0
-189.0,34.0,-172.0,-129.0,-73.0,80.0,-735.0,131.0,-742.0
-188.0,29.0,-171.0,-123.0,-60.0,81.0,-736.0,139.0,-746.0
-185.0,32.0,-173.0,-115.0,-50.0,81.0,-744.0,137.0,-746.0
-186.0,32.0,-176.0,-103.0,-39.0,85.0,-741.0,143.0,-753.0
-182.0,35.0,-173.0,-94.0,-28.0,82.0,-736.0,147.0,-755.0
-186.0,36.0,-177.0,-89.0,-15.0,74.0,-740.0,148.0,-754.0
-185.0,32.0,-175.0,-85.0,-4.0,66.0,-744.0,152.0,-742.0
-192.0,39.0,-175.0,-75.0,7.0,58.0,-750.0,155.0,-740.0
-190.0,38.0,-173.0,-61.0,18.0,49.0,-753.0,153.0,-743.0
-189.0,38.0,-174.0,-48.0,32.0,40.0,-757.0,157.0,-741.0
-191.0,36.0,-175.0,-37.0,43.0,32.0,-757.0,149.0,-748.0
-186.0,39.0,-176.0,-22.0,55.0,25.0,-748.0,151.0,-740.0
-190.0,40.0,-171.0,-8.0,71.0,18.0,-745.0,157.0,-746.0
-188.0,37.0,-174.0,1.0,86.0,9.0,-744.0,157.0,-736.0
-189.0,39.0,-174.0,10.0,101.0,-2.0,-743.0,153.0,-741.0
-186.0,34.0,-172.0,17.0,113.0,-8.0,-746.0,143.0,-739.0
-190.0,35.0,-178.0,26.0,123.0,-13.0,-747.0,144.0,-748.0
-188.0,33.0,-176.0,30.0,128.0,-15.0,-742.0,143.0,-749.0
-187.0,32.0,-175.0,35.0,134.0,-18.0,-743.0,136.0,-757.0
-190.0,32.0,-177.0,39.0,138.0,-17.0,-746.0,137.0,-757.0
-189.0,34.0,-177.0,37.0,141.0,-17.0,-744.0,133.0,-753.0
-187.0,34.0,-173.0,35.0,145.0,-16.0,-744.0,137.0,-752.0
-188.0,33.0,-179.0,34.0,152.0,-16.0,-745.0,133.0,-756.0
-190.0,34.0,-176.0,35.0,160.0,-17.0,-745.0,140.0,-756.0
-184.0,32.0,-180.0,35.0,167.0,-17.0,-745.0,132.0,-768.0
-189.0,31.0,-180.0,35.0,171.0,-15.0,-744.0,131.0,-762.0
-190.0,33.0,-178.0,35.0,174.0,-12.0,-742.0,130.0,-771.0
-189.0,35.0,-176.0,38.0,174.0,-10.0,-740.0,133.0,-765.0
-183.0,34.0,-181.0,45.0,170.0,-8.0,-736.0,134.0,-776.0
-186.0,33.0,-181.0,45.0,170.0,-10.0,-731.0,129.0,-777.0
-186.0,32.0,-182.0,37.0,167.0,-13.0,-735.0,132.0,-774.0
-186.0,34.0,-181.0,33.0,165.0,-15.0,-730.0,131.0,-774.0
-182.0,26.0,-182.0,32.0,160.0,-15.0,-729.0,131.0,-773.0
-184.0,30.0,-181.0,29.0,157.0,-15.0,-732.0,130.0,-778.0
-184.0,31.0,-184.0,26.0,155.0,-15.0,-727.0,128.0,-774.0
-185.0,29.0,-180.0,23.0,156.0,-12.0,-730.0,128.0,-767.0
-185.0,31.0,-180.0,22.0,158.0,-14.0,-725.0,129.0,-773.0
-178.0,29.0,-182.0,17.0,160.0,-15.0,-721.0,133.0,-774.0
-181.0,32.0,-179.0,9.0,168.0,-25.0,-721.0,138.0,-773.0
-183.0,26.0,-180.0,7.0,174.0,-36.0,-718.0,127.0,-770.0
-184.0,30.0,-181.0,13.0,170.0,-35.0,-719.0,119.0,-780.0
-181.0,27.0,-179.0,12.0,163.0,-27.0,-716.0,110.0,-766.0
-184.0,23.0,-178.0,12.0,157.0,-11.0,-727.0,102.0,-768.0
-182.0,25.0,-177.0,4.0,160.0,3.0,-722.0,115.0,-776.0
-183.0,32.0,-182.0,-7.0,170.0,13.0,-722.0,129.0,-777.0
-183.0,32.0,-180.0,-14.0,178.0,13.0,-715.0,127.0,-779.0
-184.0,33.0,-182.0,-14.0,182.0,14.0,-719.0,132.0,-779.0
-183.0,35.0,-185.0,-10.0,180.0,17.0,-720.0,117.0,-773.0
-181.0,25.0,-181.0,-9.0,178.0,22.0,-721.0,122.0,-782.0
-181.0,30.0,-182.0,-11.0,177.0,24.0,-720.0,126.0,-774.0
-181.0,30.0,-179.0,-14.0,179.0,25.0,-718.0,124.0,-774.0
-180.0,29.0,-178.0,-13.0,179.0,26.0,-713.0,130.0,-771.0
-180.0,33.0,-181.0,-9.0,179.0,29.0,-710.0,126.0,-769.0
-180.0,32.0,-177.0,-9.0,181.0,26.0,-706.0,129.0,-774.0
-179.0,29.0,-179.0,-13.0,183.0,27.0,-707.0,130.0,-772.0
-179.0,30.0,-180.0,-21.0,188.0,22.0,-708.0,134.0,-770.0
-181.0,31.0,-181.0,-23.0,193.0,20.0,-713.0,125.0,-777.0
-182.0,32.0,-178.0,-24.0,196.0,19.0,-718.0,133.0,-772.0
-181.0,34.0,-175.0,-25.0,203.0,20.0,-722.0,130.0,-776.0
-181.0,31.0,-178.0,-23.0,208.0,18.0,-715.0,130.0,-777.0
-181.0,31.0,-183.0,-24.0,214.0,17.0,-720.0,134.0,-774.0
-181.0,31.0,-183.0,-25.0,223.0,12.0,-716.0,131.0,-774.0
-181.0,33.0,-184.0,-25.0,230.0,9.0,-721.0,138.0,-778.0
-179.0,35.0,-185.0,-22.0,236.0,6.0,-719.0,137.0,-785.0
-184.0,31.0,-185.0,-21.0,240.0,4.0,-716.0,134.0,-789.0
-179.0,32.0,-186.0,-21.0,241.0,4.0,-712.0,135.0,-790.0
-183.0,31.0,-187.0,-23.0,234.0,5.0,-711.0,133.0,-795.0
-178.0,29.0,-191.0,-24.0,225.0,8.0,-713.0,129.0,-805.0
-179.0,31.0,-190.0,-26.0,211.0,12.0,-711.0,130.0,-809.0
-179.0,32.0,-200.0,-30.0,194.0,17.0,-712.0,131.0,-811.0
-180.0,32.0,-188.0,-35.0,178.0,22.0,-708.0,133.0,-813.0
-177.0,31.0,-190.0,-40.0,162.0,27.0,-712.0,133.0,-814.0
-182.0,33.0,-190.0,-44.0,145.0,30.0,-707.0,138.0,-809.0
-177.0,30.0,-189.0,-47.0,131.0,31.0,-709.0,141.0,-806.0
-176.0,30.0,-187.0,-46.0,120.0,32.0,-707.0,134.0,-801.0
-181.0,32.0,-188.0,-46.0,110.0,29.0,-705.0,140.0,-802.0
-179.0,35.0,-188.0,-43.0,100.0,26.0,-709.0,146.0,-800.0
-179.0,34.0,-186.0,-38.0,93.0,24.0,-702.0,143.0,-803.0
-180.0,37.0,-189.0,-34.0,87.0,20.0,-707.0,145.0,-801.0
-176.0,33.0,-187.0,-29.0,82.0,14.0,-706.0,142.0,-803.0
-180.0,34.0,-191.0,-24.0,75.0,11.0,-707.0,143.0,-801.0
-182.0,35.0,-191.0,-21.0,68.0,6.0,-707.0,135.0,-802.0
-180.0,33.0,-186.0,-19.0,62.0,4.0,-704.0,137.0,-795.0
-179.0,34.0,-188.0,-16.0,58.0,2.0,-706.0,142.0,-792.0
-178.0,33.0,-185.0,-15.0,56.0,0.0,-707.0,137.0,-792.0
-177.0,34.0,-184.0,-13.0,56.0,-1.0,-705.0,138.0,-781.0
-178.0,36.0,-183.0,-11.0,60.0,-1.0,-708.0,144.0,-781.0
-181.0,36.0,-181.0,-9.0,66.0,-4.0,-706.0,136.0,-776.0
-178.0,32.0,-180.0,-6.0,75.0,-3.0,-704.0,138.0,-777.0
-177.0,33.0,-180.0,-3.0,83.0,-5.0,-707.0,142.0,-776.0
-179.0,30.0,-180.0,1.0,91.0,-6.0,-703.0,137.0,-774.0
-181.0,41.0,-182.0,3.0,97.0,-6.0,-703.0,137.0,-778.0
-180.0,32.0,-183.0,5.0,105.0,-9.0,-708.0,136.0,-779.0
-178.0,34.0,-179.0,10.0,111.0,-10.0,-704.0,134.0,-781.0
-177.0,34.0,-182.0,13.0,117.0,-11.0,-703.0,137.0,-784.0
-177.0,33.0,-182.0,14.0,122.0,-12.0,-706.0,135.0,-785.0
-178.0,32.0,-183.0,16.0,129.0,-12.0,-705.0,130.0,-785.0
-177.0,33.0,-181.0,19.0,134.0,-15.0,-705.0,134.0,-780.0
-180.0,33.0,-182.0,21.0,144.0,-16.0,-707.0,133.0,-780.0
-178.0,31.0,-185.0,22.0,151.0,-17.0,-704.0,132.0,-784.0
-179.0,31.0,-183.0,24.0,155.0,-15.0,-706.0,135.0,-784.0
-176.0,30.0,-183.0,25.0,162.0,-15.0,-706.0,130.0,-788.0
-178.0,32.0,-182.0,27.0,167.0,-14.0,-702.0,134.0,-791.0
-179.0,33.0,-186.0,27.0,169.0,-15.0,-702.0,129.0,-793.0
-176.0,31.0,-182.0,27.0,171.0,-15.0,-702.0,128.0,-792.0
-174.0,30.0,-185.0,27.0,172.0,-14.0,-704.0,127.0,-795.0
-177.0,32.0,-183.0,26.0,174.0,-13.0,-704.0,131.0,-794.0
-180.0,31.0,-184.0,26.0,175.0,-11.0,-705.0,130.0,-793.0
-177.0,31.0,-183.0,24.0,179.0,-10.0,-707.0,128.0,-792.0
-178.0,29.0,-189.0,21.0,183.0,-9.0,-710.0,130.0,-794.0
-178.0,31.0,-188.0,19.0,188.0,-8.0,-703.0,128.0,-794.0
-175.0,31.0,-183.0,18.0,196.0,-8.0,-706.0,126.0,-792.0
-179.0,32.0,-184.0,19.0,202.0,-9.0,-703.0,129.0,-796.0
-168.0,35.0,-188.0,17.0,209.0,-8.0,-702.0,133.0,-797.0
-176.0,32.0,-187.0,18.0,214.0,-9.0,-705.0,128.0,-800.0
-177.0,31.0,-187.0,18.0,217.0,-10.0,-701.0,135.0,-797.0
-175.0,32.0,-188.0,20.0,219.0,-10.0,-698.0,130.0,-804.0
-178.0,30.0,-189.0,21.0,216.0,-11.0,-701.0,123.0,-802.0
-176.0,29.0,-193.0,21.0,213.0,-9.0,-697.0,122.0,-822.0
-175.0,28.0,-193.0,21.0,206.0,-5.0,-700.0,117.0,-818.0
-175.0,31.0,-196.0,17.0,197.0,-2.0,-698.0,128.0,-822.0
-176.0,28.0,-191.0,10.0,187.0,4.0,-695.0,126.0,-821.0
-174.0,30.0,-194.0,1.0,177.0,9.0,-698.0,123.0,-815.0
-179.0,35.0,-193.0,-5.0,168.0,11.0,-699.0,123.0,-815.0
-175.0,29.0,-189.0,-10.0,162.0,16.0,-696.0,123.0,-805.0
-177.0,32.0,-189.0,-14.0,159.0,19.0,-697.0,122.0,-803.0
-177.0,31.0,-189.0,-18.0,159.0,23.0,-697.0,136.0,-804.0
-174.0,31.0,-188.0,-21.0,162.0,26.0,-694.0,134.0,-798.0
-175.0,29.0,-188.0,-22.0,166.0,27.0,-692.0,134.0,-803.0
-174.0,29.0,-188.0,-22.0,169.0,26.0,-693.0,133.0,-800.0
-173.0,34.0,-190.0,-22.0,173.0,26.0,-688.0,127.0,-801.0
-174.0,30.0,-187.0,-20.0,175.0,28.0,-688.0,132.0,-800.0
-175.0,30.0,-191.0,-19.0,178.0,28.0,-693.0,136.0,-808.0
-185.0,30.0,-187.0,-18.0,182.0,27.0,-750.0,126.0,-794.0
-166.0,33.0,-188.0,-12.0,202.0,30.0,-669.0,126.0,-801.0
-168.0,34.0,-190.0,-17.0,209.0,32.0,-665.0,133.0,-807.0
-169.0,28.0,-189.0,-23.0,199.0,28.0,-677.0,132.0,-813.0
-170.0,30.0,-190.0,-18.0,189.0,31.0,-681.0,138.0,-816.0
-172.0,35.0,-190.0,-17.0,181.0,29.0,-678.0,132.0,-813.0
-171.0,30.0,-191.0,-16.0,175.0,29.0,-676.0,134.0,-808.0
-171.0,29.0,-191.0,-12.0,171.0,27.0,-684.0,135.0,-811.0
-173.0,32.0,-193.0,-13.0,171.0,29.0,-688.0,131.0,-810.0
-171.0,30.0,-190.0,-13.0,173.0,29.0,-685.0,129.0,-814.0
-172.0,34.0,-190.0,-12.0,174.0,28.0,-685.0,132.0,-809.0
-173.0,32.0,-194.0,-13.0,178.0,30.0,-682.0,137.0,-809.0
-171.0,29.0,-187.0,-13.0,177.0,30.0,-682.0,129.0,-810.0
-171.0,32.0,-192.0,-13.0,177.0,32.0,-682.0,137.0,-813.0
-171.0,30.0,-189.0,-11.0,177.0,31.0,-684.0,133.0,-808.0
-171.0,34.0,-192.0,-8.0,177.0,28.0,-683.0,133.0,-811.0
-170.0,31.0,-191.0,-5.0,176.0,29.0,-680.0,135.0,-816.0
-169.0,33.0,-194.0,-6.0,175.0,28.0,-681.0,134.0,-817.0
-171.0,35.0,-192.0,-3.0,175.0,27.0,-681.0,141.0,-816.0
-175.0,33.0,-189.0,-4.0,174.0,26.0,-676.0,140.0,-811.0
-174.0,33.0,-190.0,-4.0,173.0,25.0,-677.0,134.0,-816.0
-172.0,35.0,-191.0,-3.0,170.0,22.0,-677.0,133.0,-822.0
-170.0,29.0,-191.0,-3.0,169.0,21.0,-677.0,135.0,-816.0
-169.0,26.0,-202.0,-1.0,169.0,18.0,-682.0,136.0,-821.0
-173.0,32.0,-192.0,-1.0,170.0,19.0,-676.0,134.0,-827.0
-172.0,34.0,-197.0,0.0,168.0,17.0,-679.0,130.0,-824.0
-170.0,33.0,-193.0,-1.0,170.0,16.0,-678.0,139.0,-815.0
-170.0,33.0,-193.0,-3.0,169.0,15.0,-675.0,132.0,-816.0
-174.0,34.0,-193.0,-3.0,169.0,12.0,-679.0,133.0,-821.0
-170.0,34.0,-191.0,-2.0,168.0,12.0,-675.0,135.0,-821.0
-168.0,32.0,-189.0,-4.0,169.0,13.0,-672.0,135.0,-820.0
-167.0,32.0,-191.0,-3.0,168.0,12.0,-677.0,132.0,-820.0
-172.0,32.0,-194.0,-4.0,173.0,13.0,-674.0,138.0,-819.0
-174.0,32.0,-193.0,-7.0,176.0,12.0,-680.0,135.0,-822.0
-167.0,28.0,-193.0,-1.0,190.0,14.0,-697.0,138.0,-810.0
-165.0,32.0,-191.0,0.0,211.0,15.0,-651.0,138.0,-816.0
-170.0,37.0,-190.0,-8.0,211.0,15.0,-669.0,141.0,-819.0
-172.0,33.0,-195.0,-7.0,203.0,14.0,-674.0,137.0,-830.0
-169.0,32.0,-192.0,-8.0,201.0,14.0,-668.0,137.0,-828.0
-165.0,32.0,-196.0,-10.0,195.0,11.0,-662.0,129.0,-829.0
-168.0,31.0,-193.0,-8.0,188.0,8.0,-666.0,133.0,-831.0
-169.0,32.0,-196.0,-9.0,184.0,10.0,-675.0,136.0,-832.0
-172.0,32.0,-194.0,-11.0,184.0,11.0,-670.0,131.0,-823.0
-169.0,32.0,-192.0,-12.0,188.0,12.0,-671.0,132.0,-828.0
-167.0,31.0,-192.0,-14.0,189.0,13.0,-672.0,133.0,-824.0
-167.0,24.0,-195.0,-13.0,192.0,15.0,-667.0,134.0,-833.0
-168.0,31.0,-193.0,-14.0,191.0,16.0,-671.0,132.0,-833.0
-166.0,30.0,-194.0,-14.0,192.0,16.0,-672.0,134.0,-832.0
-166.0,29.0,-192.0,-13.0,194.0,18.0,-665.0,126.0,-832.0
-166.0,33.0,-192.0,-13.0,194.0,20.0,-660.0,137.0,-834.0
-163.0,33.0,-198.0,-15.0,192.0,22.0,-658.0,139.0,-833.0
-166.0,32.0,-196.0,-19.0,188.0,24.0,-657.0,140.0,-831.0
-164.0,32.0,-192.0,-19.0,185.0,24.0,-665.0,141.0,-841.0
-166.0,30.0,-196.0,-16.0,182.0,24.0,-659.0,139.0,-834.0
-163.0,29.0,-192.0,-14.0,178.0,23.0,-654.0,133.0,-834.0
-168.0,31.0,-195.0,-12.0,176.0,22.0,-663.0,135.0,-838.0
-164.0,29.0,-200.0,-14.0,175.0,23.0,-662.0,132.0,-838.0
-167.0,33.0,-195.0,-13.0,175.0,23.0,-656.0,140.0,-834.0
-164.0,31.0,-197.0,-13.0,177.0,23.0,-662.0,131.0,-839.0
-167.0,31.0,-194.0,-14.0,179.0,24.0,-658.0,135.0,-835.0
-164.0,32.0,-197.0,-14.0,178.0,24.0,-658.0,135.0,-835.0
-164.0,31.0,-193.0,-12.0,180.0,23.0,-658.0,134.0,-837.0
-167.0,35.0,-197.0,-11.0,182.0,23.0,-658.0,140.0,-835.0
-165.0,31.0,-195.0,-10.0,183.0,23.0,-661.0,134.0,-834.0
-166.0,32.0,-196.0,-10.0,186.0,23.0,-656.0,137.0,-834.0
-165.0,33.0,-197.0,-9.0,188.0,23.0,-657.0,139.0,-844.0
-164.0,33.0,-199.0,-6.0,187.0,22.0,-660.0,137.0,-838.0
-167.0,30.0,-191.0,-4.0,189.0,22.0,-653.0,133.0,-841.0
-167.0,30.0,-196.0,-4.0,187.0,24.0,-648.0,135.0,-844.0
-163.0,30.0,-201.0,-5.0,188.0,23.0,-645.0,134.0,-847.0
-162.0,30.0,-195.0,-10.0,186.0,24.0,-653.0,136.0,-846.0
-165.0,32.0,-202.0,-13.0,185.0,24.0,-669.0,151.0,-850.0
-163.0,32.0,-194.0,-11.0,198.0,24.0,-654.0,139.0,-838.0
-158.0,32.0,-198.0,-9.0,216.0,29.0,-623.0,133.0,-837.0
-160.0,33.0,-202.0,-19.0,210.0,26.0,-635.0,139.0,-846.0
-163.0,33.0,-201.0,-19.0,197.0,25.0,-646.0,144.0,-857.0
-163.0,34.0,-202.0,-17.0,187.0,21.0,-645.0,141.0,-853.0
-161.0,34.0,-198.0,-16.0,177.0,18.0,-645.0,138.0,-857.0
-163.0,34.0,-198.0,-13.0,167.0,17.0,-651.0,144.0,-851.0
-164.0,31.0,-203.0,-13.0,157.0,14.0,-642.0,139.0,-855.0
-163.0,35.0,-198.0,-11.0,149.0,12.0,-650.0,135.0,-859.0
-164.0,33.0,-199.0,-11.0,140.0,10.0,-649.0,139.0,-858.0
-159.0,33.0,-201.0,-13.0,133.0,9.0,-637.0,139.0,-862.0
-160.0,37.0,-203.0,-19.0,125.0,12.0,-642.0,146.0,-858.0
-163.0,34.0,-200.0,-22.0,117.0,13.0,-638.0,147.0,-858.0
-163.0,35.0,-204.0,-23.0,108.0,9.0,-650.0,148.0,-860.0
-167.0,33.0,-202.0,-20.0,103.0,7.0,-663.0,151.0,-858.0
-160.0,27.0,-198.0,-12.0,109.0,6.0,-642.0,127.0,-851.0
-155.0,33.0,-198.0,-9.0,113.0,8.0,-628.0,146.0,-854.0
-164.0,32.0,-208.0,-13.0,104.0,4.0,-635.0,144.0,-859.0
-160.0,34.0,-200.0,-11.0,92.0,1.0,-635.0,140.0,-860.0
-158.0,29.0,-208.0,-10.0,81.0,-2.0,-635.0,141.0,-857.0
-161.0,32.0,-201.0,-10.0,70.0,-4.0,-635.0,142.0,-855.0
-160.0,32.0,-201.0,-10.0,57.0,-6.0,-644.0,135.0,-855.0
-162.0,30.0,-203.0,-9.0,49.0,-7.0,-636.0,134.0,-862.0
-160.0,31.0,-202.0,-11.0,41.0,-7.0,-640.0,139.0,-863.0
-161.0,31.0,-199.0,-13.0,34.0,-5.0,-644.0,143.0,-859.0
-159.0,35.0,-203.0,-16.0,29.0,-5.0,-643.0,143.0,-858.0
-161.0,31.0,-201.0,-19.0,26.0,-4.0,-643.0,138.0,-862.0
-162.0,34.0,-203.0,-19.0,24.0,-3.0,-637.0,141.0,-851.0
-162.0,34.0,-198.0,-18.0,23.0,-6.0,-639.0,138.0,-851.0
-161.0,32.0,-199.0,-19.0,23.0,-6.0,-637.0,139.0,-854.0
-160.0,34.0,-199.0,-19.0,25.0,-7.0,-642.0,136.0,-849.0
-162.0,32.0,-200.0,-18.0,24.0,-6.0,-640.0,138.0,-846.0
-162.0,32.0,-198.0,-15.0,24.0,-7.0,-637.0,137.0,-853.0
-161.0,34.0,-201.0,-16.0,22.0,-9.0,-636.0,140.0,-848.0
-161.0,34.0,-197.0,-14.0,19.0,-9.0,-634.0,139.0,-843.0
-159.0,29.0,-199.0,-14.0,17.0,-8.0,-635.0,143.0,-848.0
-158.0,31.0,-200.0,-14.0,13.0,-9.0,-631.0,142.0,-844.0
-161.0,32.0,-195.0,-13.0,12.0,-10.0,-638.0,140.0,-847.0
-162.0,31.0,-198.0,-11.0,13.0,-11.0,-635.0,140.0,-841.0
-162.0,38.0,-197.0,-10.0,13.0,-9.0,-636.0,143.0,-838.0
-161.0,33.0,-199.0,-11.0,16.0,-10.0,-644.0,138.0,-834.0
-160.0,31.0,-197.0,-12.0,20.0,-9.0,-635.0,137.0,-834.0
-161.0,31.0,-195.0,-11.0,24.0,-8.0,-647.0,138.0,-836.0
-161.0,30.0,-195.0,-9.0,28.0,-9.0,-642.0,134.0,-834.0
-160.0,31.0,-198.0,-8.0,34.0,-9.0,-639.0,139.0,-831.0
-164.0,30.0,-200.0,-7.0,40.0,-9.0,-643.0,144.0,-834.0
-161.0,31.0,-195.0,-6.0,46.0,-10.0,-644.0,139.0,-838.0
-163.0,33.0,-196.0,-4.0,51.0,-10.0,-644.0,137.0,-835.0
-162.0,30.0,-196.0,-4.0,53.0,-10.0,-645.0,138.0,-840.0
-162.0,32.0,-197.0,-2.0,56.0,-11.0,-643.0,142.0,-834.0
-162.0,31.0,-199.0,-2.0,57.0,-12.0,-649.0,138.0,-842.0
-165.0,34.0,-196.0,-1.0,59.0,-11.0,-650.0,140.0,-841.0
-165.0,34.0,-196.0,-2.0,60.0,-12.0,-649.0,136.0,-841.0
-160.0,30.0,-193.0,-2.0,62.0,-11.0,-646.0,139.0,-837.0
-160.0,32.0,-196.0,-3.0,67.0,-10.0,-654.0,138.0,-834.0
-163.0,32.0,-194.0,-3.0,73.0,-9.0,-651.0,139.0,-835.0
-165.0,33.0,-197.0,-4.0,80.0,-6.0,-653.0,135.0,-833.0
-165.0,33.0,-198.0,-5.0,88.0,-5.0,-656.0,141.0,-834.0
-164.0,31.0,-198.0,-7.0,94.0,-4.0,-651.0,134.0,-834.0
-164.0,29.0,-200.0,-8.0,99.0,-2.0,-657.0,131.0,-838.0
-168.0,29.0,-207.0,-10.0,101.0,-2.0,-649.0,134.0,-841.0
-164.0,34.0,-198.0,-12.0,103.0,-1.0,-649.0,138.0,-848.0
-163.0,33.0,-200.0,-13.0,102.0,1.0,-652.0,136.0,-851.0
-165.0,31.0,-199.0,-14.0,101.0,0.0,-656.0,137.0,-847.0
-162.0,32.0,-201.0,-13.0,100.0,1.0,-657.0,139.0,-848.0
-163.0,31.0,-197.0,-14.0,101.0,2.0,-652.0,141.0,-843.0
-165.0,32.0,-198.0,-15.0,101.0,1.0,-653.0,137.0,-846.0
-165.0,32.0,-198.0,-18.0,101.0,2.0,-659.0,137.0,-844.0
-161.0,32.0,-199.0,-19.0,104.0,3.0,-655.0,139.0,-845.0
-160.0,29.0,-197.0,-19.0,107.0,5.0,-650.0,135.0,-849.0
-166.0,31.0,-197.0,-19.0,110.0,5.0,-651.0,134.0,-847.0
-165.0,31.0,-201.0,-18.0,112.0,4.0,-654.0,135.0,-849.0
-164.0,30.0,-198.0,-17.0,116.0,5.0,-654.0,132.0,-844.0
-164.0,35.0,-197.0,-18.0,119.0,4.0,-654.0,132.0,-845.0
-162.0,31.0,-194.0,-19.0,121.0,6.0,-644.0,137.0,-846.0
-162.0,33.0,-199.0,-23.0,123.0,9.0,-638.0,141.0,-848.0
-164.0,33.0,-199.0,-25.0,124.0,10.0,-642.0,140.0,-846.0
-161.0,34.0,-200.0,-26.0,123.0,10.0,-644.0,136.0,-849.0
-161.0,31.0,-196.0,-24.0,121.0,9.0,-643.0,133.0,-841.0
-163.0,34.0,-193.0,-24.0,121.0,9.0,-645.0,133.0,-848.0
-162.0,31.0,-199.0,-24.0,126.0,9.0,-640.0,133.0,-839.0
-161.0,33.0,-194.0,-27.0,129.0,11.0,-650.0,136.0,-841.0
-161.0,35.0,-196.0,-31.0,135.0,13.0,-637.0,139.0,-830.0
-162.0,33.0,-199.0,-32.0,140.0,15.0,-640.0,142.0,-838.0
-161.0,29.0,-193.0,-32.0,147.0,17.0,-644.0,138.0,-841.0
-163.0,32.0,-201.0,-30.0,150.0,16.0,-645.0,134.0,-844.0
-159.0,30.0,-197.0,-29.0,154.0,14.0,-639.0,134.0,-844.0
-166.0,34.0,-196.0,-30.0,160.0,18.0,-668.0,140.0,-849.0
-177.0,32.0,-195.0,-33.0,177.0,20.0,-716.0,128.0,-836.0
-152.0,32.0,-197.0,-33.0,206.0,31.0,-601.0,132.0,-836.0
-158.0,35.0,-199.0,-44.0,214.0,36.0,-621.0,149.0,-840.0
-159.0,30.0,-198.0,-46.0,212.0,31.0,-627.0,146.0,-847.0
-158.0,31.0,-200.0,-41.0,206.0,30.0,-626.0,140.0,-852.0
-157.0,34.0,-199.0,-40.0,199.0,28.0,-626.0,140.0,-846.0
-163.0,36.0,-198.0,-41.0,190.0,25.0,-631.0,141.0,-841.0
-148.0,26.0,-191.0,-45.0,182.0,29.0,-573.0,110.0,-830.0
-163.0,38.0,-201.0,-53.0,181.0,30.0,-666.0,146.0,-853.0
-158.0,35.0,-201.0,-44.0,190.0,34.0,-626.0,151.0,-852.0
-162.0,36.0,-199.0,-44.0,192.0,31.0,-642.0,148.0,-844.0
-158.0,33.0,-200.0,-37.0,194.0,33.0,-626.0,145.0,-851.0
-155.0,31.0,-202.0,-32.0,202.0,30.0,-625.0,143.0,-854.0
-160.0,32.0,-200.0,-27.0,209.0,31.0,-627.0,141.0,-857.0
-157.0,33.0,-203.0,-26.0,213.0,32.0,-622.0,144.0,-853.0
-157.0,33.0,-199.0,-25.0,215.0,31.0,-623.0,143.0,-854.0
-149.0,37.0,-197.0,-23.0,216.0,31.0,-629.0,142.0,-858.0
-155.0,33.0,-202.0,-22.0,216.0,31.0,-622.0,142.0,-859.0
-158.0,32.0,-198.0,-20.0,214.0,31.0,-626.0,145.0,-855.0
-154.0,32.0,-201.0,-19.0,214.0,32.0,-622.0,146.0,-862.0
-158.0,34.0,-205.0,-18.0,212.0,33.0,-625.0,141.0,-863.0
-158.0,36.0,-204.0,-19.0,210.0,35.0,-622.0,143.0,-860.0
-159.0,36.0,-201.0,-22.0,210.0,38.0,-620.0,147.0,-861.0
-156.0,34.0,-205.0,-23.0,208.0,39.0,-617.0,146.0,-857.0
-154.0,34.0,-205.0,-24.0,206.0,39.0,-612.0,147.0,-864.0
-157.0,36.0,-204.0,-24.0,203.0,38.0,-616.0,153.0,-868.0
-153.0,36.0,-205.0,-23.0,198.0,37.0,-616.0,149.0,-870.0
-156.0,34.0,-205.0,-22.0,192.0,34.0,-610.0,150.0,-873.0
-155.0,36.0,-206.0,-23.0,186.0,31.0,-607.0,152.0,-868.0
-155.0,35.0,-202.0,-20.0,177.0,30.0,-618.0,151.0,-871.0
-157.0,37.0,-208.0,-19.0,169.0,26.0,-610.0,150.0,-882.0
-153.0,33.0,-206.0,-16.0,159.0,24.0,-613.0,150.0,-873.0
-153.0,32.0,-206.0,-14.0,152.0,20.0,-616.0,151.0,-873.0
-155.0,33.0,-206.0,-12.0,147.0,18.0,-620.0,149.0,-870.0
-156.0,35.0,-207.0,-10.0,142.0,17.0,-617.0,146.0,-880.0
-153.0,33.0,-204.0,-12.0,138.0,15.0,-605.0,156.0,-865.0
-152.0,35.0,-208.0,-15.0,134.0,17.0,-606.0,154.0,-869.0
-151.0,37.0,-206.0,-18.0,132.0,17.0,-610.0,151.0,-871.0
-155.0,34.0,-201.0,-17.0,127.0,12.0,-610.0,150.0,-873.0
-154.0,34.0,-203.0,-12.0,123.0,8.0,-613.0,151.0,-872.0
-151.0,35.0,-207.0,-10.0,119.0,7.0,-606.0,147.0,-872.0
-154.0,34.0,-204.0,-10.0,115.0,9.0,-613.0,149.0,-871.0
-156.0,38.0,-207.0,-9.0,112.0,8.0,-608.0,156.0,-874.0
-154.0,33.0,-203.0,-10.0,111.0,8.0,-611.0,150.0,-873.0
-157.0,33.0,-205.0,-8.0,110.0,7.0,-617.0,150.0,-872.0
-155.0,36.0,-204.0,-8.0,108.0,6.0,-614.0,151.0,-870.0
-156.0,35.0,-204.0,-8.0,106.0,4.0,-611.0,151.0,-873.0
-153.0,37.0,-207.0,-9.0,107.0,2.0,-609.0,155.0,-872.0
-152.0,35.0,-204.0,-8.0,108.0,3.0,-610.0,152.0,-873.0
-156.0,34.0,-203.0,-8.0,108.0,2.0,-607.0,149.0,-872.0
-154.0,35.0,-204.0,-7.0,105.0,1.0,-611.0,144.0,-872.0
-156.0,33.0,-203.0,-4.0,102.0,0.0,-612.0,145.0,-874.0
-152.0,35.0,-208.0,-3.0,100.0,1.0,-609.0,143.0,-871.0
-155.0,36.0,-207.0,-6.0,96.0,2.0,-610.0,148.0,-871.0
-156.0,37.0,-208.0,-7.0,94.0,3.0,-611.0,147.0,-881.0
-155.0,35.0,-207.0,-7.0,92.0,3.0,-608.0,154.0,-876.0
-153.0,35.0,-206.0,-10.0,89.0,2.0,-611.0,147.0,-871.0
-154.0,37.0,-205.0,-10.0,87.0,2.0,-612.0,149.0,-868.0
-155.0,36.0,-208.0,-10.0,87.0,1.0,-610.0,151.0,-871.0
-158.0,34.0,-206.0,-8.0,89.0,0.0,-613.0,152.0,-868.0
-157.0,36.0,-207.0,-7.0,90.0,0.0,-617.0,149.0,-866.0
-154.0,36.0,-206.0,-7.0,91.0,-1.0,-612.0,147.0,-870.0
-152.0,37.0,-206.0,-6.0,91.0,-2.0,-607.0,154.0,-868.0
-150.0,34.0,-204.0,-5.0,91.0,-3.0,-609.0,154.0,-869.0
-155.0,36.0,-199.0,-3.0,90.0,-4.0,-612.0,150.0,-867.0
-154.0,35.0,-204.0,-4.0,89.0,-4.0,-604.0,150.0,-864.0
-150.0,33.0,-202.0,-4.0,92.0,-5.0,-608.0,149.0,-878.0
-153.0,34.0,-207.0,-5.0,95.0,-6.0,-610.0,148.0,-870.0
-157.0,38.0,-206.0,-6.0,99.0,-5.0,-612.0,148.0,-868.0
-152.0,34.0,-204.0,-3.0,103.0,-6.0,-612.0,149.0,-868.0
-154.0,37.0,-206.0,-5.0,104.0,-4.0,-610.0,149.0,-873.0
-156.0,35.0,-202.0,-5.0,106.0,-5.0,-619.0,152.0,-871.0
-154.0,33.0,-202.0,-2.0,103.0,-8.0,-614.0,146.0,-874.0
-156.0,35.0,-205.0,-3.0,101.0,-8.0,-613.0,148.0,-883.0
-153.0,37.0,-206.0,-4.0,99.0,-7.0,-609.0,151.0,-873.0
-152.0,33.0,-203.0,-3.0,97.0,-12.0,-606.0,141.0,-870.0
-157.0,34.0,-203.0,-2.0,95.0,-12.0,-624.0,148.0,-868.0
-152.0,32.0,-207.0,-2.0,99.0,-11.0,-611.0,139.0,-878.0
-163.0,34.0,-206.0,-10.0,109.0,-8.0,-669.0,138.0,-876.0
-151.0,33.0,-204.0,-17.0,139.0,-5.0,-602.0,141.0,-871.0
-150.0,34.0,-205.0,-23.0,154.0,-1.0,-598.0,156.0,-876.0
-158.0,38.0,-210.0,-22.0,151.0,-3.0,-606.0,147.0,-886.0
-153.0,34.0,-208.0,-18.0,139.0,-5.0,-601.0,152.0,-886.0
-153.0,35.0,-210.0,-17.0,128.0,-9.0,-608.0,148.0,-884.0
-155.0,31.0,-209.0,-16.0,123.0,-12.0,-603.0,140.0,-887.0
-154.0,34.0,-211.0,-18.0,123.0,-15.0,-611.0,151.0,-889.0
-154.0,33.0,-202.0,-24.0,128.0,-14.0,-616.0,156.0,-889.0
-155.0,36.0,-206.0,-26.0,130.0,-15.0,-607.0,149.0,-879.0
-153.0,33.0,-208.0,-24.0,130.0,-16.0,-608.0,149.0,-880.0
-153.0,36.0,-204.0,-24.0,128.0,-16.0,-599.0,142.0,-867.0
-154.0,34.0,-206.0,-18.0,124.0,-19.0,-603.0,147.0,-870.0
-148.0,33.0,-208.0,-16.0,119.0,-18.0,-602.0,144.0,-869.0
-152.0,34.0,-206.0,-14.0,113.0,-20.0,-602.0,144.0,-865.0
-151.0,34.0,-206.0,-14.0,113.0,-18.0,-611.0,143.0,-866.0
-155.0,35.0,-205.0,-15.0,117.0,-16.0,-610.0,140.0,-859.0
-152.0,35.0,-208.0,-16.0,122.0,-13.0,-611.0,142.0,-866.0
-153.0,35.0,-207.0,-20.0,130.0,-11.0,-611.0,141.0,-872.0
-153.0,34.0,-206.0,-24.0,141.0,-8.0,-611.0,147.0,-881.0
-153.0,35.0,-209.0,-29.0,152.0,-7.0,-608.0,149.0,-890.0
-152.0,35.0,-210.0,-32.0,162.0,-10.0,-605.0,151.0,-890.0
-151.0,35.0,-206.0,-33.0,165.0,-15.0,-600.0,153.0,-889.0
-151.0,38.0,-209.0,-32.0,164.0,-19.0,-596.0,157.0,-889.0
-152.0,37.0,-208.0,-32.0,161.0,-24.0,-590.0,155.0,-888.0
-154.0,35.0,-210.0,-30.0,156.0,-32.0,-592.0,152.0,-884.0
-150.0,37.0,-209.0,-28.0,151.0,-35.0,-596.0,151.0,-890.0
-152.0,35.0,-207.0,-25.0,148.0,-39.0,-599.0,148.0,-885.0
-151.0,38.0,-204.0,-24.0,147.0,-39.0,-600.0,154.0,-887.0
-150.0,35.0,-203.0,-22.0,150.0,-40.0,-598.0,149.0,-873.0
-149.0,35.0,-206.0,-19.0,151.0,-40.0,-601.0,147.0,-874.0
-150.0,34.0,-205.0,-16.0,153.0,-40.0,-593.0,146.0,-873.0
-150.0,35.0,-207.0,-13.0,155.0,-37.0,-593.0,147.0,-874.0
-150.0,37.0,-208.0,-14.0,156.0,-36.0,-591.0,142.0,-886.0
-147.0,35.0,-209.0,-17.0,155.0,-37.0,-584.0,147.0,-886.0
-147.0,35.0,-208.0,-18.0,152.0,-34.0,-585.0,153.0,-886.0
-145.0,38.0,-208.0,-16.0,147.0,-35.0,-580.0,146.0,-881.0
-150.0,34.0,-209.0,-15.0,138.0,-34.0,-585.0,149.0,-884.0
-151.0,35.0,-207.0,-12.0,131.0,-34.0,-582.0,151.0,-881.0
-150.0,34.0,-209.0,-10.0,125.0,-35.0,-582.0,148.0,-880.0
-147.0,33.0,-209.0,-7.0,120.0,-32.0,-585.0,148.0,-870.0
-147.0,34.0,-205.0,-5.0,118.0,-30.0,-589.0,141.0,-880.0
-145.0,32.0,-206.0,-4.0,116.0,-29.0,-582.0,140.0,-877.0
-151.0,37.0,-208.0,-3.0,112.0,-26.0,-581.0,140.0,-882.0
-146.0,31.0,-210.0,-2.0,107.0,-23.0,-579.0,144.0,-881.0
-145.0,31.0,-210.0,-1.0,102.0,-19.0,-579.0,142.0,-889.0
-145.0,34.0,-207.0,1.0,94.0,-19.0,-580.0,141.0,-886.0
-146.0,42.0,-211.0,2.0,89.0,-16.0,-581.0,142.0,-887.0
-152.0,33.0,-210.0,2.0,84.0,-15.0,-590.0,139.0,-890.0
-148.0,34.0,-207.0,1.0,78.0,-14.0,-585.0,149.0,-882.0
-146.0,33.0,-209.0,1.0,76.0,-14.0,-587.0,146.0,-886.0
-151.0,33.0,-207.0,3.0,72.0,-15.0,-583.0,141.0,-874.0
-150.0,33.0,-206.0,5.0,69.0,-16.0,-593.0,144.0,-873.0
-147.0,32.0,-205.0,6.0,68.0,-17.0,-586.0,142.0,-875.0
-151.0,33.0,-208.0,6.0,68.0,-17.0,-589.0,147.0,-880.0
-148.0,35.0,-205.0,8.0,68.0,-17.0,-590.0,137.0,-876.0
-145.0,33.0,-208.0,6.0,67.0,-14.0,-588.0,143.0,-887.0
-149.0,34.0,-208.0,4.0,65.0,-13.0,-587.0,143.0,-888.0
-147.0,33.0,-210.0,3.0,61.0,-10.0,-586.0,140.0,-890.0
-149.0,34.0,-211.0,0.0,58.0,-10.0,-582.0,149.0,-892.0
-144.0,34.0,-210.0,-2.0,55.0,-8.0,-588.0,139.0,-885.0
-151.0,33.0,-205.0,-4.0,54.0,-6.0,-589.0,144.0,-895.0
-149.0,33.0,-208.0,-5.0,53.0,-5.0,-588.0,141.0,-880.0
-148.0,34.0,-205.0,-6.0,52.0,-6.0,-592.0,140.0,-889.0
-150.0,33.0,-208.0,-5.0,51.0,-5.0,-593.0,141.0,-895.0
-150.0,35.0,-207.0,-5.0,49.0,-7.0,-594.0,145.0,-891.0
-149.0,31.0,-209.0,-6.0,47.0,-7.0,-592.0,138.0,-893.0
-152.0,34.0,-208.0,-6.0,44.0,-8.0,-589.0,140.0,-889.0
-149.0,33.0,-209.0,-6.0,46.0,-7.0,-597.0,146.0,-895.0
-151.0,37.0,-215.0,-7.0,45.0,-8.0,-595.0,142.0,-891.0
-150.0,35.0,-207.0,-9.0,45.0,-7.0,-597.0,139.0,-882.0
-151.0,35.0,-208.0,-10.0,48.0,-7.0,-593.0,143.0,-887.0
-151.0,35.0,-210.0,-9.0,54.0,-4.0,-598.0,144.0,-877.0
-151.0,32.0,-206.0,-9.0,59.0,-4.0,-600.0,142.0,-886.0
-152.0,34.0,-208.0,-10.0,63.0,-5.0,-598.0,141.0,-875.0
-150.0,32.0,-208.0,-12.0,69.0,-5.0,-599.0,139.0,-875.0
-153.0,36.0,-209.0,-10.0,75.0,-4.0,-596.0,142.0,-880.0
-151.0,32.0,-208.0,-10.0,80.0,-4.0,-596.0,141.0,-888.0
-150.0,29.0,-210.0,-11.0,82.0,-5.0,-597.0,144.0,-887.0
-149.0,33.0,-205.0,-12.0,84.0,-4.0,-593.0,143.0,-886.0
-149.0,32.0,-206.0,-12.0,86.0,-4.0,-597.0,139.0,-888.0
-155.0,34.0,-206.0,-11.0,87.0,-3.0,-600.0,142.0,-887.0
-148.0,37.0,-206.0,-12.0,88.0,-3.0,-593.0,141.0,-886.0
-150.0,33.0,-206.0,-13.0,89.0,-1.0,-599.0,144.0,-883.0
-150.0,33.0,-210.0,-15.0,90.0,0.0,-600.0,141.0,-887.0
-148.0,33.0,-210.0,-18.0,91.0,0.0,-592.0,143.0,-886.0
-148.0,34.0,-206.0,-18.0,93.0,2.0,-595.0,142.0,-880.0
-147.0,30.0,-207.0,-19.0,98.0,2.0,-594.0,141.0,-881.0
-149.0,33.0,-202.0,-19.0,100.0,4.0,-587.0,142.0,-881.0
-150.0,31.0,-210.0,-18.0,105.0,4.0,-585.0,143.0,-884.0
-153.0,27.0,-209.0,-17.0,107.0,4.0,-592.0,139.0,-886.0
-147.0,31.0,-203.0,-17.0,110.0,3.0,-591.0,136.0,-887.0
-149.0,34.0,-209.0,-16.0,114.0,5.0,-587.0,140.0,-887.0
-147.0,32.0,-205.0,-17.0,115.0,6.0,-587.0,140.0,-880.0
-149.0,30.0,-206.0,-20.0,119.0,6.0,-589.0,137.0,-876.0
-149.0,33.0,-208.0,-21.0,120.0,7.0,-596.0,136.0,-889.0
-149.0,34.0,-208.0,-25.0,121.0,8.0,-589.0,139.0,-889.0
-149.0,33.0,-208.0,-25.0,121.0,8.0,-596.0,143.0,-894.0
-146.0,32.0,-212.0,-26.0,119.0,7.0,-588.0,144.0,-891.0
-154.0,30.0,-212.0,-25.0,117.0,8.0,-615.0,139.0,-897.0
-147.0,34.0,-204.0,-27.0,126.0,8.0,-587.0,144.0,-884.0
-148.0,32.0,-209.0,-27.0,128.0,12.0,-586.0,146.0,-889.0
-148.0,36.0,-210.0,-23.0,126.0,16.0,-581.0,146.0,-898.0
-147.0,35.0,-209.0,-25.0,124.0,16.0,-584.0,147.0,-894.0
-146.0,35.0,-208.0,-26.0,120.0,16.0,-584.0,149.0,-893.0
-149.0,35.0,-208.0,-24.0,118.0,15.0,-585.0,150.0,-888.0
-146.0,34.0,-208.0,-23.0,117.0,14.0,-582.0,149.0,-889.0
-148.0,33.0,-207.0,-21.0,115.0,11.0,-578.0,144.0,-881.0
-145.0,33.0,-210.0,-19.0,113.0,10.0,-585.0,141.0,-882.0
-146.0,36.0,-209.0,-20.0,113.0,11.0,-587.0,144.0,-888.0
-145.0,35.0,-206.0,-20.0,111.0,10.0,-583.0,136.0,-891.0
-148.0,36.0,-208.0,-20.0,111.0,9.0,-581.0,144.0,-896.0
-143.0,29.0,-210.0,-19.0,113.0,9.0,-586.0,141.0,-891.0
-148.0,34.0,-208.0,-19.0,112.0,8.0,-579.0,142.0,-888.0
-145.0,30.0,-208.0,-19.0,109.0,9.0,-584.0,139.0,-884.0
-144.0,33.0,-207.0,-20.0,108.0,10.0,-580.0,145.0,-887.0
-144.0,36.0,-210.0,-20.0,105.0,10.0,-580.0,149.0,-891.0
-147.0,35.0,-211.0,-20.0,104.0,11.0,-586.0,142.0,-897.0
-148.0,32.0,-205.0,-20.0,103.0,12.0,-588.0,147.0,-895.0
-148.0,36.0,-212.0,-18.0,104.0,14.0,-580.0,148.0,-898.0
-146.0,39.0,-209.0,-19.0,105.0,15.0,-583.0,147.0,-888.0
-146.0,34.0,-208.0,-18.0,104.0,15.0,-581.0,148.0,-897.0
-146.0,34.0,-210.0,-20.0,101.0,12.0,-575.0,148.0,-901.0
-144.0,34.0,-208.0,-20.0,98.0,9.0,-579.0,148.0,-901.0
-147.0,35.0,-209.0,-19.0,94.0,8.0,-578.0,148.0,-897.0
-145.0,30.0,-209.0,-18.0,88.0,7.0,-577.0,150.0,-899.0
-148.0,35.0,-212.0,-18.0,85.0,7.0,-576.0,149.0,-899.0
-145.0,36.0,-208.0,-18.0,81.0,5.0,-579.0,150.0,-894.0
-147.0,34.0,-211.0,-18.0,78.0,4.0,-586.0,150.0,-900.0
-148.0,36.0,-210.0,-18.0,75.0,3.0,-577.0,146.0,-897.0
-147.0,36.0,-207.0,-15.0,76.0,1.0,-581.0,150.0,-895.0
-149.0,36.0,-209.0,-14.0,76.0,0.0,-582.0,151.0,-890.0
-148.0,36.0,-207.0,-12.0,78.0,0.0,-581.0,151.0,-893.0
-148.0,32.0,-207.0,-9.0,79.0,-1.0,-577.0,150.0,-893.0
-153.0,34.0,-211.0,-9.0,80.0,-3.0,-586.0,143.0,-889.0
-149.0,35.0,-209.0,-8.0,81.0,-4.0,-586.0,148.0,-892.0
-147.0,34.0,-210.0,-9.0,81.0,-4.0,-581.0,149.0,-898.0
-148.0,34.0,-210.0,-10.0,81.0,-6.0,-586.0,151.0,-895.0
-147.0,34.0,-208.0,-10.0,82.0,-3.0,-582.0,140.0,-897.0
-147.0,38.0,-210.0,-9.0,83.0,-3.0,-584.0,148.0,-897.0
-147.0,32.0,-210.0,-9.0,85.0,-2.0,-581.0,141.0,-892.0
-150.0,36.0,-209.0,-9.0,84.0,-2.0,-576.0,146.0,-897.0
-146.0,35.0,-208.0,-9.0,85.0,-2.0,-581.0,151.0,-893.0
-145.0,35.0,-208.0,-9.0,86.0,-3.0,-579.0,149.0,-897.0
-145.0,33.0,-208.0,-9.0,88.0,-3.0,-583.0,147.0,-894.0
-148.0,32.0,-208.0,-9.0,91.0,-4.0,-582.0,148.0,-893.0
-150.0,34.0,-210.0,-9.0,93.0,-4.0,-585.0,143.0,-887.0
-146.0,33.0,-205.0,-10.0,97.0,-2.0,-584.0,143.0,-896.0
-146.0,32.0,-210.0,-10.0,103.0,-2.0,-583.0,144.0,-894.0
-148.0,31.0,-208.0,-11.0,106.0,-2.0,-584.0,148.0,-901.0
-147.0,32.0,-209.0,-13.0,108.0,0.0,-585.0,139.0,-893.0
-144.0,34.0,-211.0,-13.0,111.0,0.0,-583.0,143.0,-891.0
-146.0,35.0,-210.0,-13.0,113.0,0.0,-573.0,150.0,-895.0
-149.0,35.0,-209.0,-12.0,115.0,0.0,-578.0,153.0,-893.0
-146.0,36.0,-212.0,-12.0,115.0,1.0,-580.0,147.0,-893.0
-148.0,31.0,-211.0,-10.0,115.0,1.0,-588.0,151.0,-901.0
-151.0,34.0,-206.0,-10.0,120.0,2.0,-575.0,145.0,-891.0
-146.0,36.0,-208.0,-10.0,125.0,1.0,-579.0,149.0,-897.0
-145.0,36.0,-207.0,-12.0,122.0,-3.0,-568.0,145.0,-897.0
-148.0,33.0,-213.0,-13.0,117.0,-3.0,-580.0,150.0,-898.0
-144.0,36.0,-210.0,-11.0,111.0,-2.0,-580.0,146.0,-904.0
-147.0,35.0,-207.0,-12.0,107.0,-1.0,-577.0,148.0,-902.0
-144.0,32.0,-210.0,-12.0,108.0,0.0,-579.0,152.0,-889.0
-146.0,35.0,-208.0,-11.0,111.0,-3.0,-578.0,147.0,-888.0
-145.0,34.0,-209.0,-10.0,117.0,-3.0,-575.0,143.0,-890.0
-147.0,35.0,-210.0,-10.0,123.0,-1.0,-577.0,143.0,-888.0
-146.0,32.0,-210.0,-12.0,132.0,2.0,-577.0,147.0,-889.0
-146.0,36.0,-209.0,-10.0,141.0,1.0,-581.0,143.0,-889.0
-142.0,33.0,-206.0,-9.0,153.0,1.0,-577.0,146.0,-879.0
-144.0,34.0,-209.0,-8.0,161.0,0.0,-578.0,148.0,-899.0
-146.0,35.0,-210.0,-8.0,168.0,0.0,-576.0,149.0,-900.0
-144.0,34.0,-209.0,-8.0,168.0,0.0,-573.0,143.0,-901.0
-143.0,34.0,-210.0,-7.0,171.0,1.0,-572.0,147.0,-898.0
-145.0,33.0,-209.0,-6.0,173.0,1.0,-578.0,147.0,-898.0
-148.0,34.0,-209.0,-6.0,174.0,1.0,-569.0,141.0,-897.0
-146.0,34.0,-209.0,-6.0,175.0,2.0,-577.0,144.0,-898.0
-146.0,35.0,-208.0,-5.0,180.0,1.0,-571.0,145.0,-903.0
-143.0,34.0,-208.0,-5.0,186.0,3.0,-571.0,140.0,-893.0
-138.0,29.0,-212.0,-7.0,189.0,4.0,-570.0,138.0,-901.0
-145.0,33.0,-213.0,-7.0,195.0,6.0,-572.0,140.0,-901.0
-145.0,32.0,-211.0,-8.0,197.0,8.0,-572.0,140.0,-898.0
-145.0,35.0,-210.0,-9.0,197.0,9.0,-571.0,149.0,-906.0
-143.0,32.0,-212.0,-10.0,198.0,13.0,-566.0,139.0,-907.0
-142.0,33.0,-210.0,-10.0,196.0,15.0,-567.0,139.0,-906.0
-142.0,35.0,-213.0,-9.0,192.0,20.0,-567.0,149.0,-905.0
-144.0,34.0,-213.0,-8.0,189.0,21.0,-563.0,145.0,-910.0
-143.0,31.0,-214.0,-9.0,186.0,23.0,-566.0,143.0,-906.0
-141.0,35.0,-214.0,-11.0,182.0,24.0,-565.0,147.0,-915.0
-142.0,36.0,-214.0,-12.0,177.0,24.0,-560.0,145.0,-910.0
-140.0,34.0,-211.0,-10.0,171.0,25.0,-565.0,148.0,-911.0
-140.0,33.0,-212.0,-10.0,166.0,23.0,-560.0,149.0,-908.0
-141.0,37.0,-209.0,-8.0,162.0,23.0,-559.0,150.0,-910.0
-140.0,34.0,-213.0,-8.0,161.0,23.0,-565.0,148.0,-907.0
-141.0,36.0,-213.0,-8.0,161.0,22.0,-562.0,145.0,-907.0
-141.0,34.0,-214.0,-8.0,159.0,21.0,-563.0,143.0,-916.0
-141.0,35.0,-211.0,-8.0,158.0,23.0,-558.0,147.0,-913.0
-142.0,34.0,-214.0,-6.0,156.0,26.0,-561.0,141.0,-910.0
-142.0,33.0,-213.0,-6.0,154.0,31.0,-567.0,143.0,-914.0
-140.0,33.0,-213.0,-7.0,151.0,34.0,-562.0,147.0,-919.0
-143.0,24.0,-213.0,-9.0,144.0,37.0,-551.0,146.0,-914.0
-139.0,32.0,-213.0,-10.0,135.0,37.0,-547.0,147.0,-923.0
-138.0,33.0,-213.0,-12.0,127.0,33.0,-551.0,148.0,-921.0
-139.0,35.0,-211.0,-16.0,120.0,29.0,-554.0,150.0,-917.0
-138.0,36.0,-215.0,-16.0,112.0,27.0,-550.0,152.0,-919.0
-140.0,36.0,-213.0,-17.0,105.0,24.0,-556.0,155.0,-915.0
-138.0,37.0,-214.0,-16.0,100.0,19.0,-556.0,154.0,-915.0
-140.0,36.0,-214.0,-16.0,96.0,15.0,-553.0,152.0,-914.0
-138.0,35.0,-214.0,-17.0,93.0,13.0,-553.0,152.0,-918.0
-142.0,36.0,-214.0,-16.0,89.0,11.0,-552.0,151.0,-913.0
-137.0,33.0,-215.0,-16.0,89.0,9.0,-552.0,152.0,-914.0
-138.0,36.0,-213.0,-16.0,84.0,7.0,-555.0,161.0,-907.0
-140.0,38.0,-213.0,-16.0,81.0,5.0,-550.0,155.0,-911.0
-141.0,35.0,-208.0,-15.0,78.0,4.0,-554.0,153.0,-913.0
-140.0,39.0,-211.0,-14.0,77.0,3.0,-557.0,151.0,-911.0
-134.0,35.0,-211.0,-11.0,75.0,3.0,-553.0,149.0,-914.0
-137.0,34.0,-213.0,-12.0,74.0,2.0,-551.0,151.0,-913.0
-139.0,36.0,-211.0,-10.0,75.0,1.0,-561.0,154.0,-906.0
-141.0,34.0,-212.0,-10.0,74.0,1.0,-557.0,152.0,-910.0
-138.0,35.0,-211.0,-10.0,76.0,1.0,-554.0,154.0,-909.0
-136.0,34.0,-211.0,-9.0,74.0,0.0,-558.0,150.0,-908.0
-141.0,35.0,-214.0,-8.0,73.0,0.0,-554.0,152.0,-908.0
-148.0,31.0,-215.0,-7.0,72.0,-1.0,-550.0,150.0,-909.0
-138.0,36.0,-211.0,-6.0,73.0,-3.0,-556.0,153.0,-910.0
-139.0,37.0,-214.0,-6.0,75.0,-3.0,-551.0,149.0,-899.0
-141.0,34.0,-209.0,-7.0,78.0,-4.0,-558.0,145.0,-911.0
-140.0,36.0,-213.0,-5.0,79.0,-4.0,-558.0,144.0,-911.0
-139.0,35.0,-211.0,-4.0,83.0,-5.0,-562.0,140.0,-907.0
-141.0,34.0,-213.0,-4.0,87.0,-3.0,-562.0,151.0,-911.0
-139.0,38.0,-213.0,-7.0,92.0,-2.0,-556.0,147.0,-908.0
-139.0,37.0,-213.0,-5.0,96.0,-1.0,-555.0,147.0,-907.0
-140.0,35.0,-210.0,-5.0,101.0,0.0,-559.0,153.0,-907.0
-142.0,36.0,-215.0,-6.0,103.0,0.0,-554.0,150.0,-905.0
-139.0,32.0,-211.0,-3.0,108.0,0.0,-560.0,151.0,-910.0
-140.0,36.0,-210.0,-4.0,110.0,1.0,-554.0,152.0,-906.0
-139.0,34.0,-212.0,-5.0,113.0,0.0,-557.0,150.0,-906.0
-139.0,31.0,-216.0,-5.0,114.0,1.0,-552.0,144.0,-907.0
-141.0,34.0,-212.0,-5.0,116.0,1.0,-561.0,143.0,-917.0
-141.0,38.0,-212.0,-7.0,117.0,3.0,-556.0,146.0,-913.0
-140.0,32.0,-213.0,-8.0,117.0,3.0,-557.0,143.0,-913.0
-141.0,35.0,-215.0,-7.0,117.0,5.0,-559.0,148.0,-912.0
-139.0,29.0,-214.0,-7.0,117.0,4.0,-551.0,142.0,-915.0
-137.0,34.0,-212.0,-7.0,118.0,4.0,-559.0,153.0,-915.0
-140.0,36.0,-213.0,-10.0,116.0,5.0,-556.0,148.0,-915.0
-139.0,32.0,-212.0,-11.0,116.0,7.0,-554.0,153.0,-914.0
-139.0,35.0,-214.0,-10.0,116.0,8.0,-556.0,146.0,-915.0
-141.0,33.0,-214.0,-10.0,119.0,9.0,-555.0,145.0,-913.0
-138.0,33.0,-213.0,-11.0,121.0,8.0,-552.0,148.0,-914.0
-137.0,35.0,-214.0,-10.0,122.0,8.0,-553.0,147.0,-918.0
-139.0,35.0,-212.0,-12.0,122.0,9.0,-552.0,146.0,-918.0
-139.0,34.0,-210.0,-14.0,120.0,9.0,-550.0,153.0,-917.0
-138.0,35.0,-215.0,-16.0,116.0,10.0,-552.0,147.0,-916.0
-141.0,37.0,-213.0,-17.0,112.0,8.0,-551.0,147.0,-917.0
-140.0,33.0,-216.0,-16.0,107.0,8.0,-553.0,148.0,-918.0
-139.0,36.0,-214.0,-16.0,106.0,9.0,-552.0,155.0,-916.0
-137.0,33.0,-215.0,-16.0,103.0,10.0,-552.0,152.0,-922.0
-137.0,33.0,-216.0,-16.0,99.0,8.0,-550.0,152.0,-921.0
-138.0,34.0,-216.0,-16.0,97.0,6.0,-550.0,150.0,-922.0
-139.0,35.0,-216.0,-15.0,96.0,7.0,-549.0,149.0,-922.0
-139.0,35.0,-213.0,-15.0,95.0,8.0,-548.0,155.0,-916.0
-138.0,36.0,-214.0,-15.0,95.0,7.0,-551.0,151.0,-915.0
-139.0,37.0,-212.0,-15.0,97.0,7.0,-552.0,148.0,-911.0
-136.0,33.0,-210.0,-16.0,99.0,8.0,-544.0,147.0,-913.0
-135.0,36.0,-210.0,-15.0,101.0,8.0,-549.0,149.0,-909.0
-136.0,36.0,-215.0,-14.0,103.0,7.0,-546.0,150.0,-911.0
-134.0,35.0,-209.0,-14.0,106.0,10.0,-544.0,146.0,-909.0
-143.0,34.0,-211.0,-12.0,108.0,7.0,-540.0,137.0,-908.0
-138.0,35.0,-214.0,-12.0,107.0,8.0,-550.0,156.0,-911.0
-137.0,33.0,-212.0,-15.0,107.0,9.0,-544.0,152.0,-914.0
-136.0,34.0,-213.0,-15.0,107.0,7.0,-548.0,155.0,-909.0
-138.0,35.0,-212.0,-13.0,104.0,8.0,-551.0,152.0,-911.0
-137.0,34.0,-211.0,-14.0,106.0,11.0,-548.0,147.0,-906.0
-138.0,36.0,-216.0,-10.0,110.0,10.0,-548.0,146.0,-907.0
-134.0,31.0,-214.0,-10.0,114.0,12.0,-551.0,156.0,-915.0
-138.0,34.0,-216.0,-11.0,120.0,11.0,-550.0,154.0,-915.0
-139.0,34.0,-212.0,-9.0,126.0,11.0,-545.0,147.0,-913.0
-137.0,36.0,-214.0,-7.0,131.0,11.0,-547.0,153.0,-915.0
