acc1_x,acc1_y,acc1_z,gyro_x,gyro_y,gyro_z,acc2_x,acc2_y,acc2_z
-15.0,-252.0,13.0,-28.0,48.0,-2.0,-30.0,-983.0,15.0
-14.0,-255.0,12.0,-21.0,48.0,-4.0,-24.0,-979.0,16.0
-16.0,-253.0,11.0,-14.0,47.0,-4.0,-30.0,-983.0,11.0
-14.0,-254.0,11.0,-8.0,46.0,-5.0,-31.0,-978.0,14.0
-15.0,-253.0,12.0,-3.0,45.0,-6.0,-30.0,-981.0,12.0
-19.0,-261.0,4.0,-2.0,45.0,-2.0,-29.0,-987.0,13.0
-16.0,-256.0,9.0,-2.0,45.0,-3.0,-30.0,-991.0,8.0
-12.0,-257.0,12.0,-4.0,45.0,0.0,-30.0,-993.0,11.0
-15.0,-253.0,12.0,-7.0,48.0,2.0,-25.0,-993.0,15.0
-12.0,-257.0,10.0,-9.0,50.0,3.0,-28.0,-999.0,13.0
-11.0,-254.0,15.0,-11.0,51.0,5.0,-18.0,-985.0,12.0
-13.0,-254.0,11.0,-14.0,53.0,8.0,-22.0,-987.0,15.0
-13.0,-257.0,9.0,-14.0,53.0,10.0,-17.0,-984.0,19.0
-13.0,-258.0,12.0,-13.0,54.0,11.0,-20.0,-984.0,14.0
-12.0,-254.0,11.0,-9.0,54.0,10.0,-21.0,-994.0,11.0
-15.0,-256.0,14.0,-5.0,54.0,12.0,-19.0,-999.0,13.0
-11.0,-254.0,13.0,-1.0,54.0,12.0,-24.0,-995.0,8.0
-13.0,-254.0,10.0,2.0,53.0,13.0,-23.0,-988.0,12.0
-20.0,-263.0,20.0,5.0,54.0,12.0,-25.0,-1000.0,11.0
-12.0,-258.0,11.0,8.0,54.0,13.0,-29.0,-1002.0,16.0
-12.0,-257.0,12.0,10.0,54.0,14.0,-26.0,-1005.0,11.0
-16.0,-258.0,10.0,10.0,55.0,16.0,-27.0,-1007.0,13.0
-14.0,-257.0,16.0,10.0,56.0,17.0,-30.0,-1015.0,11.0
-12.0,-258.0,13.0,9.0,59.0,18.0,-23.0,-1008.0,10.0
-15.0,-258.0,10.0,9.0,61.0,21.0,-23.0,-1002.0,14.0
-14.0,-255.0,9.0,9.0,60.0,21.0,-27.0,-999.0,12.0
-16.0,-257.0,12.0,7.0,62.0,20.0,-30.0,-994.0,10.0
-16.0,-256.0,9.0,8.0,64.0,18.0,-26.0,-988.0,9.0
-15.0,-255.0,11.0,9.0,64.0,18.0,-27.0,-987.0,9.0
-15.0,-254.0,9.0,10.0,65.0,18.0,-26.0,-991.0,14.0
-16.0,-253.0,10.0,11.0,66.0,18.0,-28.0,-989.0,12.0
-14.0,-255.0,10.0,11.0,65.0,19.0,-31.0,-994.0,13.0
-15.0,-254.0,10.0,12.0,64.0,18.0,-33.0,-985.0,12.0
-14.0,-255.0,14.0,11.0,66.0,18.0,-32.0,-984.0,15.0
-13.0,-255.0,13.0,8.0,67.0,17.0,-33.0,-983.0,14.0
-15.0,-255.0,10.0,6.0,65.0,16.0,-33.0,-987.0,18.0
-16.0,-257.0,12.0,8.0,65.0,14.0,-38.0,-982.0,14.0
-19.0,-254.0,10.0,10.0,65.0,13.0,-31.0,-987.0,18.0
-16.0,-254.0,11.0,15.0,65.0,12.0,-27.0,-988.0,18.0
-13.0,-256.0,14.0,20.0,64.0,11.0,-31.0,-994.0,18.0
-14.0,-258.0,13.0,23.0,65.0,12.0,-33.0,-990.0,16.0
-14.0,-257.0,12.0,26.0,65.0,10.0,-32.0,-994.0,14.0
-16.0,-253.0,11.0,24.0,67.0,11.0,-29.0,-988.0,15.0
-14.0,-258.0,10.0,20.0,70.0,11.0,-31.0,-985.0,15.0
-14.0,-254.0,12.0,12.0,69.0,10.0,-31.0,-985.0,21.0
-11.0,-257.0,10.0,5.0,69.0,8.0,-33.0,-980.0,20.0
-16.0,-254.0,11.0,-2.0,68.0,6.0,-38.0,-975.0,21.0
-14.0,-253.0,15.0,-5.0,66.0,6.0,-34.0,-977.0,17.0
-13.0,-257.0,11.0,-7.0,66.0,3.0,-32.0,-979.0,20.0
-16.0,-255.0,13.0,-5.0,65.0,0.0,-33.0,-979.0,23.0
-17.0,-251.0,14.0,-2.0,66.0,1.0,-37.0,-979.0,28.0
-16.0,-256.0,18.0,5.0,67.0,1.0,-34.0,-983.0,25.0
-16.0,-255.0,16.0,13.0,70.0,0.0,-30.0,-994.0,31.0
-16.0,-255.0,16.0,23.0,69.0,1.0,-36.0,-993.0,31.0
-14.0,-255.0,14.0,31.0,70.0,0.0,-30.0,-998.0,26.0
-17.0,-257.0,16.0,37.0,71.0,0.0,-37.0,-1004.0,28.0
-18.0,-259.0,11.0,40.0,70.0,0.0,-33.0,-1005.0,25.0
-16.0,-255.0,17.0,41.0,70.0,1.0,-40.0,-1008.0,26.0
-16.0,-254.0,16.0,38.0,72.0,0.0,-33.0,-1006.0,24.0
-15.0,-258.0,15.0,32.0,73.0,0.0,-35.0,-995.0,28.0
-18.0,-254.0,16.0,28.0,73.0,2.0,-35.0,-1003.0,26.0
-16.0,-257.0,14.0,22.0,75.0,2.0,-35.0,-994.0,23.0
-17.0,-255.0,17.0,18.0,76.0,3.0,-36.0,-992.0,23.0
-19.0,-254.0,16.0,17.0,77.0,6.0,-35.0,-982.0,25.0
-17.0,-253.0,16.0,19.0,78.0,8.0,-35.0,-984.0,23.0
-16.0,-250.0,12.0,20.0,77.0,7.0,-38.0,-978.0,25.0
-20.0,-251.0,12.0,23.0,76.0,7.0,-33.0,-981.0,25.0
-17.0,-253.0,12.0,27.0,74.0,7.0,-33.0,-984.0,23.0
-17.0,-257.0,15.0,30.0,75.0,4.0,-36.0,-975.0,28.0
-19.0,-252.0,17.0,35.0,74.0,4.0,-38.0,-983.0,30.0
-18.0,-253.0,15.0,40.0,72.0,4.0,-35.0,-979.0,36.0
-18.0,-255.0,18.0,41.0,72.0,1.0,-40.0,-986.0,35.0
-17.0,-255.0,18.0,41.0,71.0,1.0,-38.0,-980.0,32.0
-15.0,-256.0,23.0,38.0,72.0,0.0,-36.0,-985.0,33.0
-18.0,-255.0,14.0,36.0,70.0,1.0,-39.0,-986.0,31.0
-16.0,-256.0,16.0,36.0,68.0,0.0,-38.0,-985.0,29.0
-15.0,-258.0,20.0,35.0,64.0,1.0,-37.0,-999.0,38.0
-15.0,-256.0,17.0,33.0,64.0,2.0,-38.0,-987.0,31.0
-15.0,-256.0,18.0,31.0,63.0,3.0,-35.0,-994.0,29.0
-15.0,-257.0,16.0,27.0,62.0,3.0,-34.0,-991.0,34.0
-15.0,-253.0,16.0,27.0,62.0,5.0,-30.0,-986.0,31.0
-17.0,-255.0,16.0,27.0,61.0,4.0,-34.0,-986.0,32.0
-18.0,-254.0,16.0,28.0,61.0,4.0,-32.0,-984.0,31.0
-17.0,-252.0,19.0,29.0,59.0,5.0,-32.0,-991.0,34.0
-17.0,-251.0,18.0,29.0,59.0,4.0,-34.0,-984.0,34.0
-13.0,-253.0,18.0,30.0,55.0,4.0,-36.0,-974.0,33.0
-14.0,-252.0,17.0,28.0,56.0,5.0,-30.0,-971.0,31.0
-16.0,-253.0,13.0,25.0,55.0,5.0,-31.0,-973.0,35.0
-17.0,-252.0,17.0,20.0,53.0,7.0,-34.0,-969.0,35.0
-17.0,-249.0,18.0,16.0,53.0,8.0,-39.0,-969.0,33.0
-18.0,-252.0,17.0,12.0,53.0,8.0,-36.0,-973.0,37.0
-15.0,-246.0,18.0,10.0,54.0,8.0,-35.0,-976.0,38.0
-17.0,-253.0,23.0,8.0,53.0,10.0,-34.0,-980.0,39.0
-14.0,-254.0,13.0,7.0,54.0,11.0,-33.0,-979.0,37.0
-16.0,-253.0,17.0,7.0,55.0,10.0,-30.0,-991.0,35.0
-16.0,-255.0,17.0,8.0,54.0,9.0,-31.0,-988.0,31.0
-12.0,-257.0,15.0,11.0,54.0,9.0,-30.0,-1001.0,30.0
-14.0,-255.0,16.0,13.0,54.0,9.0,-27.0,-993.0,24.0
-14.0,-256.0,14.0,14.0,55.0,8.0,-27.0,-1002.0,24.0
-12.0,-258.0,14.0,15.0,56.0,7.0,-26.0,-994.0,29.0
-15.0,-257.0,15.0,14.0,57.0,7.0,-25.0,-998.0,31.0
-13.0,-256.0,17.0,12.0,57.0,7.0,-27.0,-998.0,31.0
-16.0,-253.0,17.0,12.0,60.0,7.0,-29.0,-993.0,29.0
-13.0,-257.0,15.0,10.0,61.0,8.0,-23.0,-1002.0,28.0
-15.0,-257.0,16.0,8.0,57.0,6.0,-23.0,-992.0,30.0
-14.0,-255.0,15.0,8.0,57.0,5.0,-31.0,-993.0,36.0
-14.0,-257.0,14.0,10.0,60.0,5.0,-26.0,-992.0,30.0
-16.0,-255.0,15.0,12.0,62.0,4.0,-32.0,-1003.0,31.0
-16.0,-252.0,17.0,11.0,64.0,2.0,-35.0,-993.0,36.0
-15.0,-254.0,18.0,9.0,66.0,4.0,-33.0,-984.0,28.0
-14.0,-253.0,16.0,8.0,69.0,4.0,-30.0,-985.0,29.0
-16.0,-254.0,14.0,7.0,70.0,4.0,-34.0,-985.0,27.0
-15.0,-253.0,18.0,6.0,71.0,4.0,-32.0,-982.0,31.0
-16.0,-252.0,17.0,5.0,72.0,3.0,-32.0,-981.0,30.0
-14.0,-254.0,19.0,4.0,70.0,5.0,-31.0,-981.0,31.0
-17.0,-255.0,16.0,4.0,68.0,5.0,-34.0,-985.0,31.0
-17.0,-256.0,17.0,5.0,67.0,5.0,-35.0,-983.0,32.0
-18.0,-257.0,16.0,7.0,65.0,5.0,-38.0,-976.0,30.0
-17.0,-253.0,18.0,9.0,65.0,5.0,-34.0,-984.0,30.0
-17.0,-252.0,16.0,9.0,65.0,4.0,-37.0,-988.0,29.0
-18.0,-253.0,14.0,8.0,64.0,2.0,-34.0,-984.0,33.0
-18.0,-258.0,16.0,8.0,65.0,1.0,-35.0,-987.0,36.0
-18.0,-252.0,20.0,7.0,66.0,0.0,-31.0,-984.0,36.0
-17.0,-252.0,21.0,3.0,68.0,1.0,-34.0,-984.0,36.0
-17.0,-252.0,17.0,-2.0,67.0,2.0,-33.0,-976.0,39.0
-16.0,-251.0,17.0,-9.0,67.0,2.0,-31.0,-978.0,37.0
-17.0,-252.0,19.0,-17.0,67.0,3.0,-33.0,-978.0,31.0
-13.0,-253.0,19.0,-23.0,66.0,4.0,-25.0,-975.0,34.0
-17.0,-251.0,16.0,-28.0,64.0,5.0,-31.0,-974.0,41.0
-15.0,-251.0,21.0,-26.0,64.0,5.0,-31.0,-982.0,41.0
-15.0,-254.0,19.0,-19.0,66.0,5.0,-31.0,-980.0,44.0
-17.0,-252.0,22.0,-12.0,66.0,4.0,-33.0,-982.0,41.0
-12.0,-256.0,21.0,-4.0,65.0,3.0,-34.0,-985.0,38.0
-14.0,-256.0,17.0,1.0,64.0,0.0,-28.0,-995.0,37.0
-14.0,-256.0,21.0,7.0,64.0,0.0,-33.0,-984.0,40.0
-13.0,-257.0,19.0,8.0,63.0,1.0,-31.0,-988.0,41.0
-15.0,-255.0,20.0,10.0,62.0,0.0,-31.0,-993.0,38.0
-17.0,-257.0,17.0,9.0,62.0,1.0,-30.0,-992.0,36.0
-13.0,-257.0,21.0,7.0,61.0,2.0,-32.0,-993.0,40.0
-16.0,-255.0,21.0,3.0,60.0,3.0,-32.0,-998.0,38.0
-16.0,-253.0,16.0,0.0,58.0,4.0,-29.0,-983.0,39.0
-15.0,-253.0,18.0,-1.0,59.0,4.0,-33.0,-981.0,39.0
-12.0,-254.0,17.0,0.0,59.0,3.0,-34.0,-984.0,38.0
-16.0,-252.0,19.0,5.0,61.0,3.0,-37.0,-982.0,42.0
-17.0,-251.0,20.0,9.0,62.0,3.0,-34.0,-987.0,42.0
-15.0,-253.0,20.0,14.0,64.0,3.0,-32.0,-974.0,39.0
-16.0,-254.0,17.0,20.0,64.0,2.0,-34.0,-990.0,40.0
-18.0,-254.0,21.0,24.0,64.0,1.0,-36.0,-981.0,38.0
-18.0,-251.0,18.0,25.0,66.0,0.0,-36.0,-982.0,37.0
-17.0,-254.0,20.0,27.0,64.0,3.0,-33.0,-979.0,35.0
-16.0,-253.0,17.0,26.0,63.0,4.0,-35.0,-982.0,36.0
-18.0,-253.0,19.0,25.0,62.0,5.0,-36.0,-981.0,40.0
-18.0,-255.0,17.0,22.0,59.0,4.0,-32.0,-987.0,40.0
-16.0,-255.0,15.0,21.0,57.0,5.0,-34.0,-986.0,41.0
-18.0,-257.0,18.0,19.0,57.0,6.0,-35.0,-992.0,41.0
-16.0,-253.0,21.0,18.0,59.0,7.0,-40.0,-994.0,42.0
-18.0,-258.0,19.0,19.0,60.0,8.0,-35.0,-988.0,42.0
-17.0,-257.0,18.0,22.0,60.0,9.0,-36.0,-1000.0,43.0
-16.0,-254.0,18.0,23.0,63.0,9.0,-39.0,-999.0,40.0
-17.0,-257.0,22.0,24.0,65.0,11.0,-39.0,-989.0,40.0
-17.0,-255.0,22.0,23.0,67.0,10.0,-38.0,-994.0,44.0
-17.0,-255.0,17.0,22.0,69.0,12.0,-41.0,-983.0,41.0
-17.0,-254.0,21.0,21.0,70.0,11.0,-41.0,-985.0,38.0
-20.0,-253.0,17.0,19.0,72.0,13.0,-39.0,-983.0,43.0
-13.0,-257.0,17.0,19.0,72.0,12.0,-40.0,-978.0,42.0
-20.0,-253.0,20.0,19.0,73.0,13.0,-45.0,-983.0,43.0
-17.0,-254.0,19.0,19.0,73.0,12.0,-39.0,-972.0,37.0
-20.0,-250.0,17.0,20.0,73.0,11.0,-41.0,-984.0,42.0
-22.0,-255.0,18.0,20.0,72.0,13.0,-42.0,-981.0,39.0
-20.0,-254.0,17.0,18.0,72.0,12.0,-44.0,-977.0,40.0
-18.0,-250.0,16.0,16.0,72.0,11.0,-41.0,-976.0,41.0
-18.0,-253.0,19.0,16.0,73.0,9.0,-45.0,-982.0,38.0
-21.0,-254.0,20.0,13.0,71.0,6.0,-46.0,-977.0,39.0
-17.0,-255.0,20.0,13.0,71.0,5.0,-42.0,-980.0,43.0
-17.0,-257.0,18.0,14.0,69.0,4.0,-39.0,-980.0,37.0
-18.0,-254.0,20.0,13.0,70.0,3.0,-41.0,-986.0,44.0
-15.0,-255.0,23.0,11.0,69.0,2.0,-36.0,-993.0,44.0
-18.0,-254.0,20.0,11.0,69.0,1.0,-37.0,-987.0,47.0
-17.0,-253.0,24.0,13.0,68.0,2.0,-42.0,-994.0,46.0
-17.0,-256.0,21.0,16.0,68.0,3.0,-36.0,-993.0,40.0
-15.0,-256.0,21.0,17.0,69.0,2.0,-37.0,-987.0,41.0
-20.0,-256.0,17.0,18.0,68.0,2.0,-36.0,-993.0,45.0
-16.0,-250.0,22.0,16.0,69.0,2.0,-35.0,-981.0,44.0
-18.0,-251.0,19.0,12.0,70.0,2.0,-37.0,-984.0,42.0
-16.0,-255.0,18.0,4.0,71.0,1.0,-37.0,-980.0,44.0
-22.0,-254.0,22.0,-3.0,71.0,-1.0,-36.0,-974.0,49.0
-16.0,-251.0,17.0,-7.0,72.0,-1.0,-37.0,-980.0,48.0
-18.0,-252.0,19.0,-11.0,71.0,-4.0,-37.0,-975.0,45.0
-18.0,-251.0,19.0,-12.0,72.0,-5.0,-39.0,-979.0,46.0
-17.0,-251.0,20.0,-11.0,71.0,-5.0,-38.0,-973.0,47.0
-16.0,-253.0,22.0,-9.0,71.0,-4.0,-35.0,-978.0,47.0
-17.0,-255.0,17.0,-4.0,71.0,-6.0,-37.0,-979.0,43.0
-15.0,-258.0,20.0,0.0,70.0,-6.0,-38.0,-992.0,46.0
-17.0,-254.0,21.0,4.0,71.0,-5.0,-33.0,-982.0,50.0
-16.0,-255.0,23.0,7.0,72.0,-3.0,-38.0,-990.0,47.0
-17.0,-254.0,21.0,6.0,72.0,-3.0,-35.0,-1004.0,50.0
-16.0,-258.0,24.0,3.0,72.0,-1.0,-36.0,-1000.0,46.0
-16.0,-255.0,19.0,-3.0,71.0,-2.0,-35.0,-999.0,51.0
-15.0,-257.0,24.0,-10.0,71.0,-1.0,-36.0,-997.0,49.0
-17.0,-256.0,24.0,-14.0,71.0,0.0,-35.0,-1004.0,48.0
-13.0,-253.0,25.0,-20.0,70.0,1.0,-36.0,-994.0,47.0
-20.0,-254.0,20.0,-22.0,70.0,2.0,-33.0,-986.0,48.0
-16.0,-258.0,18.0,-22.0,71.0,1.0,-39.0,-987.0,40.0
-13.0,-254.0,19.0,-20.0,71.0,2.0,-33.0,-977.0,43.0
-15.0,-251.0,18.0,-19.0,71.0,1.0,-34.0,-975.0,41.0
-17.0,-254.0,21.0,-18.0,70.0,2.0,-34.0,-976.0,39.0
-18.0,-252.0,19.0,-19.0,71.0,0.0,-37.0,-978.0,39.0
-15.0,-253.0,18.0,-18.0,70.0,-1.0,-35.0,-973.0,42.0
-18.0,-253.0,19.0,-18.0,71.0,-1.0,-38.0,-978.0,38.0
-18.0,-252.0,18.0,-17.0,71.0,-3.0,-33.0,-982.0,45.0
-18.0,-247.0,15.0,-17.0,70.0,-3.0,-34.0,-981.0,45.0
-18.0,-257.0,24.0,-18.0,71.0,-3.0,-34.0,-992.0,49.0
-14.0,-257.0,21.0,-18.0,71.0,-3.0,-34.0,-989.0,43.0
-18.0,-256.0,19.0,-19.0,70.0,-5.0,-36.0,-998.0,46.0
-17.0,-256.0,19.0,-20.0,67.0,-3.0,-35.0,-981.0,42.0
-13.0,-257.0,21.0,-21.0,69.0,-3.0,-32.0,-993.0,44.0
-18.0,-253.0,19.0,-23.0,68.0,0.0,-35.0,-985.0,48.0
-20.0,-254.0,20.0,-24.0,67.0,0.0,-34.0,-986.0,43.0
-18.0,-252.0,17.0,-24.0,69.0,-1.0,-36.0,-988.0,45.0
-16.0,-255.0,17.0,-24.0,68.0,-1.0,-35.0,-981.0,45.0
-15.0,-256.0,19.0,-24.0,69.0,-1.0,-38.0,-983.0,42.0
-17.0,-254.0,20.0,-25.0,68.0,-1.0,-39.0,-975.0,45.0
-19.0,-254.0,21.0,-25.0,67.0,0.0,-39.0,-980.0,42.0
-18.0,-250.0,18.0,-28.0,67.0,-1.0,-35.0,-980.0,43.0
-17.0,-253.0,19.0,-31.0,67.0,-3.0,-33.0,-978.0,46.0
-16.0,-255.0,19.0,-34.0,70.0,-3.0,-36.0,-978.0,45.0
-19.0,-251.0,19.0,-36.0,70.0,-2.0,-38.0,-977.0,41.0
-19.0,-254.0,19.0,-36.0,72.0,-3.0,-37.0,-977.0,41.0
-19.0,-254.0,21.0,-37.0,73.0,-1.0,-32.0,-972.0,44.0
-17.0,-254.0,20.0,-38.0,74.0,-2.0,-38.0,-980.0,50.0
-20.0,-251.0,21.0,-38.0,74.0,-2.0,-33.0,-981.0,48.0
-17.0,-256.0,24.0,-40.0,76.0,-2.0,-33.0,-981.0,48.0
-15.0,-255.0,20.0,-44.0,76.0,-2.0,-34.0,-978.0,46.0
-19.0,-254.0,23.0,-47.0,77.0,-2.0,-42.0,-984.0,51.0
-16.0,-255.0,17.0,-47.0,79.0,0.0,-39.0,-984.0,50.0
-20.0,-252.0,19.0,-48.0,79.0,-1.0,-39.0,-994.0,42.0
-17.0,-255.0,20.0,-47.0,77.0,-1.0,-40.0,-985.0,46.0
-18.0,-255.0,20.0,-47.0,76.0,-1.0,-42.0,-992.0,42.0
-18.0,-253.0,20.0,-46.0,73.0,-1.0,-38.0,-986.0,45.0
-17.0,-257.0,21.0,-45.0,70.0,0.0,-35.0,-990.0,43.0
-18.0,-256.0,21.0,-45.0,70.0,-1.0,-37.0,-994.0,44.0
-17.0,-256.0,18.0,-41.0,68.0,0.0,-35.0,-992.0,47.0
-16.0,-257.0,20.0,-38.0,66.0,1.0,-34.0,-986.0,49.0
-16.0,-253.0,17.0,-33.0,64.0,0.0,-35.0,-998.0,46.0
-16.0,-254.0,18.0,-32.0,63.0,0.0,-35.0,-988.0,47.0
-17.0,-253.0,20.0,-32.0,63.0,2.0,-38.0,-987.0,44.0
-15.0,-254.0,19.0,-34.0,63.0,0.0,-37.0,-992.0,46.0
-19.0,-253.0,18.0,-38.0,64.0,-1.0,-34.0,-987.0,42.0
-16.0,-256.0,20.0,-42.0,65.0,-2.0,-34.0,-985.0,40.0
-16.0,-254.0,21.0,-44.0,66.0,0.0,-37.0,-983.0,45.0
-16.0,-256.0,21.0,-47.0,66.0,0.0,-37.0,-987.0,42.0
-17.0,-256.0,20.0,-49.0,67.0,1.0,-37.0,-981.0,44.0
-15.0,-258.0,17.0,-49.0,66.0,0.0,-38.0,-982.0,38.0
-16.0,-255.0,17.0,-49.0,67.0,2.0,-38.0,-991.0,41.0
-17.0,-254.0,19.0,-50.0,67.0,1.0,-35.0,-984.0,40.0
-17.0,-253.0,17.0,-49.0,68.0,0.0,-37.0,-982.0,40.0
-17.0,-254.0,18.0,-48.0,69.0,-2.0,-38.0,-982.0,43.0
-20.0,-253.0,17.0,-50.0,70.0,-1.0,-41.0,-983.0,41.0
-18.0,-253.0,15.0,-52.0,70.0,-2.0,-37.0,-981.0,41.0
-15.0,-254.0,17.0,-54.0,70.0,-1.0,-42.0,-977.0,40.0
-16.0,-255.0,18.0,-55.0,70.0,1.0,-39.0,-983.0,39.0
-17.0,-252.0,20.0,-57.0,69.0,1.0,-39.0,-983.0,35.0
-19.0,-255.0,17.0,-59.0,68.0,3.0,-38.0,-984.0,37.0
-18.0,-256.0,17.0,-59.0,67.0,3.0,-36.0,-988.0,38.0
-17.0,-254.0,17.0,-59.0,64.0,5.0,-35.0,-990.0,35.0
-19.0,-255.0,17.0,-58.0,63.0,5.0,-41.0,-992.0,33.0
-19.0,-254.0,20.0,-57.0,61.0,5.0,-46.0,-993.0,35.0
-18.0,-255.0,18.0,-56.0,60.0,6.0,-38.0,-984.0,37.0
-18.0,-255.0,15.0,-55.0,58.0,5.0,-35.0,-989.0,36.0
-18.0,-255.0,18.0,-55.0,59.0,4.0,-38.0,-985.0,34.0
-18.0,-257.0,19.0,-55.0,59.0,5.0,-37.0,-988.0,38.0
-16.0,-256.0,18.0,-55.0,60.0,4.0,-40.0,-980.0,33.0
-19.0,-251.0,18.0,-56.0,60.0,3.0,-40.0,-981.0,35.0
-15.0,-252.0,18.0,-57.0,61.0,3.0,-35.0,-990.0,36.0
-17.0,-256.0,20.0,-58.0,63.0,1.0,-40.0,-980.0,30.0
-18.0,-254.0,14.0,-59.0,65.0,1.0,-39.0,-981.0,35.0
-18.0,-253.0,14.0,-60.0,65.0,1.0,-39.0,-982.0,32.0
-15.0,-251.0,19.0,-58.0,66.0,2.0,-37.0,-987.0,30.0
-19.0,-257.0,15.0,-57.0,67.0,2.0,-39.0,-984.0,29.0
-17.0,-256.0,14.0,-57.0,68.0,2.0,-41.0,-981.0,29.0
-18.0,-255.0,14.0,-57.0,70.0,2.0,-38.0,-981.0,32.0
-17.0,-255.0,14.0,-58.0,71.0,2.0,-38.0,-977.0,27.0
-16.0,-256.0,17.0,-58.0,72.0,1.0,-35.0,-985.0,28.0
-18.0,-256.0,17.0,-59.0,73.0,1.0,-37.0,-980.0,21.0
-15.0,-255.0,16.0,-58.0,73.0,-1.0,-37.0,-991.0,25.0
-17.0,-254.0,17.0,-55.0,71.0,1.0,-36.0,-984.0,25.0
-18.0,-254.0,15.0,-52.0,70.0,1.0,-35.0,-986.0,30.0
-19.0,-259.0,16.0,-50.0,69.0,1.0,-37.0,-1001.0,31.0
-16.0,-254.0,14.0,-48.0,69.0,1.0,-36.0,-987.0,27.0
-18.0,-253.0,15.0,-46.0,68.0,1.0,-39.0,-987.0,24.0
-19.0,-254.0,16.0,-47.0,68.0,0.0,-41.0,-989.0,24.0
-15.0,-254.0,14.0,-47.0,67.0,0.0,-36.0,-999.0,26.0
-18.0,-254.0,12.0,-46.0,67.0,0.0,-35.0,-997.0,27.0
-17.0,-254.0,13.0,-47.0,67.0,0.0,-37.0,-992.0,27.0
-17.0,-253.0,12.0,-48.0,68.0,0.0,-39.0,-993.0,23.0
-19.0,-251.0,14.0,-49.0,69.0,-2.0,-38.0,-992.0,24.0
-16.0,-252.0,12.0,-50.0,71.0,-3.0,-34.0,-986.0,24.0
-18.0,-256.0,16.0,-51.0,71.0,-5.0,-32.0,-987.0,26.0
-16.0,-254.0,14.0,-53.0,72.0,-8.0,-37.0,-985.0,28.0
-18.0,-254.0,14.0,-51.0,75.0,-8.0,-40.0,-982.0,23.0
-14.0,-255.0,14.0,-51.0,76.0,-8.0,-28.0,-986.0,24.0
-16.0,-258.0,15.0,-48.0,76.0,-8.0,-32.0,-981.0,29.0
-19.0,-254.0,15.0,-45.0,76.0,-5.0,-32.0,-986.0,24.0
-15.0,-254.0,10.0,-46.0,75.0,-5.0,-35.0,-993.0,27.0
-17.0,-257.0,14.0,-45.0,75.0,-4.0,-31.0,-987.0,23.0
-18.0,-255.0,14.0,-45.0,76.0,-3.0,-31.0,-984.0,22.0
-13.0,-254.0,11.0,-44.0,75.0,-4.0,-36.0,-994.0,25.0
-14.0,-258.0,11.0,-44.0,76.0,-3.0,-35.0,-995.0,22.0
-21.0,-258.0,16.0,-45.0,77.0,-2.0,-32.0,-998.0,26.0
-20.0,-252.0,11.0,-48.0,76.0,-2.0,-33.0,-986.0,25.0
-17.0,-256.0,14.0,-51.0,75.0,-1.0,-34.0,-983.0,25.0
-15.0,-252.0,14.0,-51.0,76.0,-1.0,-39.0,-987.0,26.0
-18.0,-254.0,18.0,-52.0,78.0,0.0,-33.0,-983.0,24.0
-17.0,-252.0,12.0,-50.0,77.0,0.0,-34.0,-988.0,20.0
-14.0,-254.0,15.0,-50.0,77.0,2.0,-36.0,-983.0,22.0
-18.0,-252.0,14.0,-49.0,78.0,2.0,-35.0,-979.0,20.0
-14.0,-252.0,14.0,-49.0,78.0,1.0,-35.0,-981.0,21.0
-16.0,-254.0,13.0,-49.0,79.0,1.0,-38.0,-981.0,17.0
-18.0,-252.0,8.0,-49.0,79.0,0.0,-38.0,-981.0,21.0
-20.0,-252.0,15.0,-50.0,80.0,0.0,-39.0,-977.0,24.0
-17.0,-254.0,15.0,-51.0,80.0,-1.0,-35.0,-983.0,21.0
-17.0,-254.0,15.0,-51.0,79.0,-2.0,-37.0,-978.0,27.0
-19.0,-255.0,14.0,-51.0,78.0,-3.0,-39.0,-986.0,24.0
-20.0,-256.0,14.0,-51.0,79.0,-4.0,-43.0,-985.0,26.0
-18.0,-257.0,13.0,-52.0,79.0,-2.0,-42.0,-987.0,31.0
-17.0,-256.0,16.0,-53.0,80.0,0.0,-37.0,-993.0,29.0
-20.0,-255.0,17.0,-54.0,78.0,2.0,-37.0,-995.0,28.0
-16.0,-255.0,12.0,-59.0,80.0,3.0,-35.0,-988.0,23.0
-16.0,-256.0,17.0,-62.0,81.0,1.0,-35.0,-982.0,21.0
-18.0,-253.0,11.0,-68.0,84.0,1.0,-35.0,-983.0,21.0
-20.0,-252.0,12.0,-73.0,85.0,-1.0,-36.0,-981.0,21.0
-19.0,-255.0,14.0,-76.0,85.0,-2.0,-41.0,-977.0,22.0
-17.0,-253.0,14.0,-75.0,84.0,-3.0,-35.0,-976.0,17.0
-18.0,-253.0,11.0,-73.0,86.0,-4.0,-36.0,-975.0,23.0
-17.0,-251.0,12.0,-68.0,85.0,-4.0,-34.0,-970.0,28.0
-16.0,-252.0,14.0,-63.0,85.0,-3.0,-41.0,-983.0,21.0
-16.0,-253.0,16.0,-57.0,84.0,-2.0,-38.0,-977.0,28.0
-16.0,-253.0,15.0,-52.0,86.0,-2.0,-36.0,-982.0,23.0
-17.0,-258.0,14.0,-45.0,86.0,1.0,-38.0,-986.0,28.0
-17.0,-255.0,17.0,-40.0,85.0,2.0,-33.0,-997.0,26.0
-17.0,-257.0,17.0,-37.0,87.0,4.0,-37.0,-1007.0,28.0
-21.0,-255.0,14.0,-36.0,87.0,4.0,-42.0,-998.0,21.0
-17.0,-260.0,17.0,-38.0,89.0,2.0,-42.0,-998.0,27.0
-20.0,-257.0,12.0,-43.0,89.0,3.0,-44.0,-997.0,20.0
-17.0,-254.0,14.0,-51.0,88.0,4.0,-40.0,-998.0,27.0
-20.0,-254.0,14.0,-57.0,85.0,5.0,-38.0,-993.0,28.0
-16.0,-258.0,15.0,-64.0,84.0,7.0,-37.0,-981.0,24.0
-17.0,-256.0,17.0,-71.0,82.0,7.0,-43.0,-991.0,22.0
-18.0,-255.0,15.0,-74.0,77.0,7.0,-39.0,-989.0,20.0
-17.0,-257.0,9.0,-76.0,74.0,7.0,-44.0,-985.0,18.0
-22.0,-254.0,15.0,-73.0,72.0,7.0,-40.0,-985.0,19.0
-21.0,-255.0,14.0,-70.0,70.0,5.0,-43.0,-980.0,16.0
-24.0,-255.0,21.0,-64.0,71.0,3.0,-42.0,-975.0,19.0
-18.0,-255.0,11.0,-60.0,71.0,2.0,-47.0,-984.0,14.0
-21.0,-252.0,9.0,-58.0,73.0,1.0,-45.0,-992.0,22.0
-19.0,-255.0,12.0,-58.0,74.0,0.0,-48.0,-983.0,16.0
-22.0,-252.0,17.0,-58.0,77.0,0.0,-44.0,-983.0,18.0
-19.0,-253.0,11.0,-60.0,79.0,0.0,-45.0,-988.0,20.0
-17.0,-254.0,12.0,-59.0,80.0,1.0,-42.0,-992.0,20.0
-18.0,-256.0,12.0,-59.0,82.0,2.0,-40.0,-982.0,19.0
-17.0,-259.0,13.0,-56.0,81.0,3.0,-40.0,-991.0,18.0
-15.0,-256.0,13.0,-53.0,78.0,3.0,-35.0,-983.0,19.0
-19.0,-252.0,10.0,-50.0,75.0,2.0,-33.0,-978.0,11.0
-17.0,-252.0,10.0,-48.0,72.0,3.0,-38.0,-981.0,14.0
-22.0,-252.0,11.0,-49.0,70.0,4.0,-35.0,-982.0,12.0
-18.0,-253.0,11.0,-51.0,67.0,3.0,-36.0,-980.0,9.0
-20.0,-251.0,11.0,-52.0,67.0,4.0,-40.0,-980.0,10.0
-18.0,-254.0,13.0,-54.0,66.0,3.0,-38.0,-976.0,9.0
-19.0,-253.0,9.0,-57.0,63.0,3.0,-43.0,-978.0,5.0
-21.0,-251.0,10.0,-61.0,61.0,5.0,-42.0,-985.0,9.0
-17.0,-255.0,6.0,-62.0,63.0,6.0,-45.0,-977.0,11.0
-21.0,-251.0,7.0,-64.0,62.0,5.0,-39.0,-981.0,10.0
-23.0,-253.0,14.0,-67.0,61.0,4.0,-45.0,-978.0,9.0
-19.0,-254.0,8.0,-65.0,62.0,5.0,-43.0,-981.0,12.0
-18.0,-255.0,10.0,-65.0,62.0,3.0,-44.0,-980.0,13.0
-21.0,-253.0,18.0,-65.0,62.0,3.0,-49.0,-984.0,12.0
-18.0,-255.0,11.0,-65.0,61.0,2.0,-43.0,-986.0,13.0
-20.0,-256.0,11.0,-65.0,60.0,3.0,-43.0,-992.0,12.0
-21.0,-254.0,11.0,-64.0,59.0,2.0,-45.0,-991.0,8.0
-20.0,-256.0,15.0,-62.0,60.0,3.0,-41.0,-984.0,13.0
-17.0,-258.0,8.0,-61.0,59.0,3.0,-41.0,-994.0,7.0
-18.0,-255.0,8.0,-59.0,59.0,4.0,-41.0,-993.0,8.0
-18.0,-257.0,9.0,-59.0,60.0,4.0,-40.0,-997.0,5.0
-19.0,-254.0,8.0,-59.0,62.0,4.0,-40.0,-1000.0,3.0
-14.0,-252.0,6.0,-59.0,62.0,4.0,-43.0,-987.0,3.0
-18.0,-257.0,10.0,-58.0,64.0,6.0,-44.0,-992.0,3.0
-19.0,-257.0,10.0,-56.0,64.0,6.0,-43.0,-991.0,8.0
-19.0,-256.0,9.0,-54.0,64.0,7.0,-38.0,-988.0,10.0
-18.0,-256.0,7.0,-50.0,63.0,8.0,-50.0,-993.0,11.0
-19.0,-256.0,10.0,-45.0,62.0,9.0,-43.0,-994.0,9.0
-18.0,-255.0,10.0,-39.0,61.0,7.0,-40.0,-997.0,11.0
-19.0,-256.0,8.0,-36.0,59.0,7.0,-41.0,-991.0,10.0
-18.0,-254.0,11.0,-35.0,56.0,6.0,-37.0,-988.0,11.0
-20.0,-257.0,14.0,-32.0,57.0,6.0,-40.0,-999.0,15.0
-17.0,-256.0,10.0,-33.0,56.0,5.0,-41.0,-998.0,8.0
-18.0,-257.0,13.0,-31.0,56.0,6.0,-38.0,-991.0,13.0
-21.0,-255.0,9.0,-33.0,55.0,6.0,-41.0,-993.0,14.0
-19.0,-252.0,11.0,-34.0,54.0,6.0,-45.0,-981.0,10.0
-17.0,-254.0,8.0,-37.0,55.0,6.0,-45.0,-979.0,1.0
-21.0,-256.0,9.0,-40.0,56.0,5.0,-44.0,-984.0,5.0
-18.0,-255.0,5.0,-43.0,59.0,7.0,-43.0,-982.0,3.0
-19.0,-252.0,11.0,-47.0,61.0,6.0,-42.0,-982.0,1.0
-17.0,-255.0,11.0,-48.0,62.0,6.0,-45.0,-981.0,3.0
-20.0,-254.0,8.0,-51.0,63.0,5.0,-37.0,-989.0,4.0
-19.0,-255.0,7.0,-51.0,63.0,5.0,-41.0,-986.0,1.0
-15.0,-256.0,10.0,-51.0,63.0,4.0,-41.0,-985.0,4.0
-15.0,-257.0,10.0,-52.0,62.0,5.0,-37.0,-993.0,-2.0
-20.0,-254.0,10.0,-54.0,62.0,4.0,-42.0,-986.0,-1.0
-17.0,-257.0,6.0,-56.0,59.0,2.0,-42.0,-984.0,1.0
-20.0,-256.0,10.0,-58.0,59.0,2.0,-48.0,-996.0,-1.0
-19.0,-254.0,7.0,-57.0,57.0,3.0,-45.0,-984.0,-4.0
-21.0,-255.0,5.0,-54.0,56.0,4.0,-43.0,-993.0,-4.0
-19.0,-255.0,8.0,-53.0,56.0,3.0,-40.0,-984.0,-1.0
-20.0,-255.0,12.0,-52.0,56.0,4.0,-50.0,-983.0,-4.0
-20.0,-254.0,5.0,-54.0,56.0,5.0,-47.0,-982.0,-1.0
-20.0,-253.0,7.0,-56.0,53.0,4.0,-48.0,-980.0,-4.0
-20.0,-252.0,6.0,-57.0,53.0,3.0,-42.0,-985.0,-2.0
-18.0,-256.0,10.0,-58.0,53.0,6.0,-41.0,-981.0,-6.0
-20.0,-252.0,10.0,-58.0,54.0,6.0,-45.0,-982.0,-3.0
-20.0,-255.0,9.0,-59.0,54.0,6.0,-50.0,-980.0,-6.0
-19.0,-252.0,6.0,-59.0,53.0,4.0,-47.0,-982.0,-3.0
-18.0,-251.0,5.0,-60.0,53.0,4.0,-44.0,-985.0,-1.0
-19.0,-255.0,5.0,-59.0,53.0,4.0,-40.0,-983.0,-3.0
-21.0,-254.0,9.0,-58.0,51.0,3.0,-47.0,-984.0,-3.0
-20.0,-256.0,11.0,-55.0,50.0,2.0,-39.0,-988.0,2.0
-16.0,-257.0,4.0,-53.0,49.0,2.0,-40.0,-983.0,-1.0
-16.0,-255.0,8.0,-51.0,48.0,1.0,-41.0,-992.0,2.0
-16.0,-254.0,4.0,-48.0,48.0,1.0,-38.0,-984.0,-1.0
-18.0,-253.0,3.0,-49.0,48.0,-2.0,-34.0,-986.0,-1.0
-18.0,-255.0,4.0,-49.0,47.0,-1.0,-39.0,-997.0,-4.0
-19.0,-254.0,5.0,-48.0,45.0,0.0,-43.0,-986.0,-1.0
-22.0,-252.0,5.0,-48.0,44.0,0.0,-48.0,-990.0,-4.0
-19.0,-256.0,7.0,-50.0,44.0,3.0,-42.0,-988.0,-7.0
-17.0,-255.0,5.0,-52.0,46.0,3.0,-36.0,-994.0,-13.0
-19.0,-254.0,3.0,-53.0,45.0,3.0,-37.0,-985.0,-4.0
-18.0,-258.0,7.0,-53.0,45.0,3.0,-39.0,-998.0,-5.0
-19.0,-259.0,4.0,-53.0,46.0,3.0,-42.0,-999.0,-4.0
-20.0,-258.0,8.0,-52.0,46.0,3.0,-46.0,-995.0,-2.0
-19.0,-255.0,9.0,-48.0,46.0,3.0,-39.0,-1007.0,-3.0
-15.0,-260.0,6.0,-44.0,46.0,3.0,-45.0,-1000.0,3.0
-17.0,-258.0,6.0,-41.0,43.0,3.0,-41.0,-1006.0,-7.0
-21.0,-257.0,7.0,-38.0,45.0,1.0,-44.0,-993.0,-12.0
-16.0,-254.0,6.0,-36.0,45.0,1.0,-44.0,-983.0,-6.0
-16.0,-255.0,6.0,-35.0,46.0,2.0,-47.0,-991.0,-10.0
-21.0,-254.0,4.0,-36.0,46.0,2.0,-48.0,-985.0,-12.0
-20.0,-253.0,5.0,-37.0,46.0,2.0,-45.0,-981.0,-18.0
-16.0,-254.0,6.0,-40.0,46.0,4.0,-46.0,-984.0,-11.0
-18.0,-256.0,4.0,-41.0,46.0,4.0,-47.0,-981.0,-15.0
-17.0,-256.0,7.0,-41.0,47.0,4.0,-38.0,-987.0,-12.0
-18.0,-256.0,6.0,-41.0,47.0,3.0,-35.0,-993.0,-12.0
-16.0,-256.0,9.0,-40.0,49.0,5.0,-36.0,-993.0,-17.0
-17.0,-258.0,6.0,-38.0,50.0,4.0,-38.0,-1006.0,-13.0
-20.0,-256.0,5.0,-38.0,50.0,3.0,-33.0,-994.0,-14.0
-17.0,-254.0,6.0,-38.0,49.0,3.0,-37.0,-1001.0,-15.0
-15.0,-256.0,4.0,-38.0,48.0,3.0,-41.0,-991.0,-10.0
-18.0,-256.0,6.0,-39.0,50.0,1.0,-44.0,-989.0,-18.0
-20.0,-255.0,3.0,-39.0,48.0,-1.0,-42.0,-992.0,-14.0
-18.0,-257.0,4.0,-37.0,48.0,-1.0,-49.0,-999.0,-17.0
-20.0,-256.0,6.0,-34.0,46.0,1.0,-43.0,-986.0,-16.0
-19.0,-255.0,2.0,-33.0,45.0,3.0,-40.0,-1001.0,-18.0
-24.0,-252.0,0.0,-32.0,45.0,5.0,-42.0,-986.0,-16.0
-18.0,-257.0,4.0,-34.0,47.0,6.0,-39.0,-997.0,-13.0
-18.0,-252.0,2.0,-36.0,50.0,6.0,-38.0,-983.0,-17.0
-16.0,-255.0,4.0,-40.0,52.0,5.0,-43.0,-992.0,-18.0
-17.0,-255.0,7.0,-42.0,53.0,5.0,-43.0,-993.0,-11.0
-19.0,-253.0,5.0,-45.0,54.0,3.0,-40.0,-982.0,-17.0
-15.0,-255.0,5.0,-46.0,54.0,2.0,-42.0,-977.0,-18.0
-19.0,-251.0,4.0,-47.0,54.0,1.0,-37.0,-978.0,-18.0
-18.0,-254.0,5.0,-46.0,56.0,1.0,-43.0,-980.0,-19.0
-18.0,-254.0,7.0,-46.0,56.0,1.0,-39.0,-980.0,-19.0
-17.0,-253.0,-1.0,-41.0,57.0,1.0,-44.0,-986.0,-18.0
-19.0,-254.0,1.0,-37.0,59.0,0.0,-37.0,-983.0,-21.0
-18.0,-253.0,3.0,-36.0,61.0,1.0,-46.0,-984.0,-20.0
-19.0,-256.0,-1.0,-36.0,63.0,2.0,-41.0,-992.0,-23.0
-20.0,-256.0,5.0,-35.0,64.0,3.0,-45.0,-1003.0,-23.0
-19.0,-256.0,4.0,-34.0,64.0,4.0,-39.0,-1001.0,-17.0
-18.0,-258.0,4.0,-34.0,65.0,5.0,-37.0,-998.0,-20.0
-18.0,-259.0,1.0,-34.0,65.0,6.0,-43.0,-1008.0,-18.0
-19.0,-257.0,6.0,-32.0,65.0,7.0,-41.0,-996.0,-12.0
-18.0,-254.0,5.0,-34.0,64.0,5.0,-47.0,-1001.0,-16.0
-19.0,-254.0,3.0,-40.0,63.0,5.0,-42.0,-994.0,-10.0
-21.0,-253.0,2.0,-46.0,62.0,6.0,-41.0,-998.0,-13.0
-21.0,-251.0,4.0,-51.0,64.0,5.0,-45.0,-994.0,-17.0
-24.0,-249.0,4.0,-56.0,63.0,4.0,-43.0,-988.0,-16.0
-18.0,-257.0,6.0,-59.0,63.0,5.0,-42.0,-1002.0,-16.0
-17.0,-257.0,5.0,-59.0,62.0,4.0,-45.0,-992.0,-12.0
-17.0,-255.0,4.0,-58.0,62.0,4.0,-42.0,-987.0,-16.0
-20.0,-256.0,4.0,-52.0,65.0,3.0,-39.0,-992.0,-10.0
-18.0,-257.0,5.0,-49.0,66.0,2.0,-44.0,-986.0,-11.0
-21.0,-255.0,4.0,-45.0,65.0,0.0,-44.0,-992.0,-13.0
-18.0,-254.0,8.0,-42.0,67.0,-2.0,-41.0,-997.0,-8.0
-18.0,-257.0,7.0,-38.0,66.0,-4.0,-46.0,-1002.0,-8.0
-20.0,-257.0,5.0,-35.0,67.0,-3.0,-46.0,-994.0,-10.0
-19.0,-259.0,8.0,-33.0,67.0,-2.0,-40.0,-995.0,-6.0
-20.0,-255.0,4.0,-32.0,66.0,-1.0,-41.0,-1004.0,-9.0
-19.0,-256.0,4.0,-32.0,67.0,-1.0,-44.0,-998.0,-11.0
-21.0,-256.0,4.0,-31.0,68.0,0.0,-41.0,-1002.0,-18.0
-16.0,-257.0,4.0,-30.0,65.0,1.0,-41.0,-994.0,-16.0
-21.0,-253.0,3.0,-29.0,67.0,2.0,-36.0,-992.0,-19.0
-19.0,-256.0,2.0,-30.0,66.0,2.0,-38.0,-991.0,-18.0
-18.0,-255.0,5.0,-30.0,67.0,2.0,-37.0,-988.0,-16.0
-19.0,-251.0,5.0,-30.0,66.0,3.0,-39.0,-981.0,-16.0
-15.0,-255.0,4.0,-27.0,67.0,2.0,-38.0,-979.0,-9.0
-16.0,-254.0,9.0,-25.0,66.0,2.0,-37.0,-981.0,-13.0
-18.0,-254.0,7.0,-24.0,65.0,1.0,-37.0,-980.0,-15.0
-20.0,-255.0,4.0,-21.0,63.0,0.0,-36.0,-976.0,-14.0
-18.0,-254.0,3.0,-19.0,63.0,0.0,-43.0,-977.0,-15.0
-16.0,-254.0,7.0,-18.0,63.0,-1.0,-39.0,-979.0,-12.0
-19.0,-254.0,6.0,-18.0,62.0,-2.0,-43.0,-983.0,-13.0
-19.0,-253.0,5.0,-19.0,63.0,-1.0,-45.0,-987.0,-13.0
-20.0,-254.0,1.0,-20.0,62.0,-1.0,-47.0,-994.0,-20.0
-19.0,-255.0,2.0,-20.0,64.0,-3.0,-48.0,-992.0,-16.0
-20.0,-255.0,5.0,-21.0,66.0,-3.0,-47.0,-987.0,-17.0
-19.0,-258.0,6.0,-22.0,67.0,-3.0,-42.0,-1001.0,-19.0
-20.0,-254.0,4.0,-23.0,67.0,-3.0,-44.0,-996.0,-13.0
-23.0,-254.0,10.0,-24.0,68.0,-5.0,-49.0,-986.0,-16.0
-26.0,-258.0,5.0,-23.0,68.0,-6.0,-49.0,-994.0,-14.0
-23.0,-259.0,4.0,-23.0,68.0,-6.0,-47.0,-998.0,-15.0
-20.0,-256.0,0.0,-20.0,67.0,-6.0,-45.0,-998.0,-23.0
-20.0,-253.0,3.0,-18.0,66.0,-9.0,-45.0,-993.0,-19.0
-20.0,-254.0,5.0,-16.0,66.0,-8.0,-46.0,-989.0,-21.0
-19.0,-255.0,4.0,-17.0,66.0,-6.0,-44.0,-1001.0,-20.0
-18.0,-254.0,2.0,-17.0,65.0,-5.0,-40.0,-992.0,-24.0
-22.0,-254.0,4.0,-19.0,63.0,-4.0,-49.0,-994.0,-16.0
-21.0,-255.0,5.0,-19.0,63.0,-4.0,-45.0,-987.0,-20.0
-18.0,-257.0,2.0,-19.0,63.0,-5.0,-45.0,-993.0,-20.0
-16.0,-257.0,5.0,-19.0,63.0,-5.0,-42.0,-993.0,-18.0
-26.0,-256.0,11.0,-19.0,61.0,-5.0,-41.0,-988.0,-20.0
-18.0,-256.0,4.0,-19.0,60.0,-7.0,-45.0,-994.0,-20.0
-20.0,-258.0,3.0,-18.0,60.0,-8.0,-43.0,-989.0,-19.0
-19.0,-254.0,1.0,-18.0,60.0,-7.0,-46.0,-992.0,-20.0
-18.0,-259.0,4.0,-17.0,60.0,-6.0,-47.0,-998.0,-22.0
-18.0,-257.0,3.0,-15.0,62.0,-6.0,-49.0,-997.0,-18.0
-18.0,-254.0,2.0,-13.0,63.0,-7.0,-44.0,-994.0,-20.0
-21.0,-255.0,3.0,-14.0,62.0,-6.0,-41.0,-986.0,-19.0
-20.0,-254.0,2.0,-14.0,63.0,-4.0,-45.0,-995.0,-21.0
-20.0,-255.0,3.0,-14.0,64.0,-5.0,-48.0,-993.0,-21.0
-18.0,-256.0,3.0,-15.0,65.0,-3.0,-48.0,-983.0,-17.0
-20.0,-255.0,3.0,-17.0,66.0,-3.0,-47.0,-988.0,-21.0
-19.0,-257.0,2.0,-18.0,65.0,-3.0,-46.0,-985.0,-25.0
-21.0,-254.0,-1.0,-17.0,65.0,-5.0,-48.0,-997.0,-23.0
-20.0,-259.0,4.0,-18.0,64.0,-5.0,-48.0,-993.0,-23.0
-20.0,-254.0,0.0,-19.0,63.0,-5.0,-51.0,-998.0,-25.0
-21.0,-257.0,2.0,-21.0,63.0,-6.0,-45.0,-984.0,-23.0
-25.0,-254.0,6.0,-22.0,63.0,-5.0,-61.0,-987.0,-21.0
-22.0,-255.0,0.0,-24.0,60.0,-2.0,-55.0,-994.0,-20.0
-17.0,-256.0,2.0,-26.0,59.0,-3.0,-45.0,-989.0,-25.0
-18.0,-256.0,1.0,-26.0,58.0,-6.0,-44.0,-999.0,-23.0
-21.0,-256.0,7.0,-25.0,56.0,-6.0,-43.0,-998.0,-22.0
-17.0,-256.0,4.0,-24.0,56.0,-7.0,-43.0,-999.0,-21.0
-18.0,-257.0,2.0,-23.0,56.0,-8.0,-40.0,-993.0,-27.0
-19.0,-258.0,1.0,-21.0,54.0,-8.0,-38.0,-1005.0,-24.0
-16.0,-257.0,2.0,-21.0,52.0,-9.0,-41.0,-1002.0,-18.0
-21.0,-257.0,1.0,-20.0,49.0,-11.0,-45.0,-998.0,-25.0
-19.0,-255.0,1.0,-21.0,49.0,-12.0,-42.0,-1002.0,-19.0
-19.0,-257.0,2.0,-22.0,49.0,-11.0,-42.0,-993.0,-27.0
-19.0,-256.0,-1.0,-22.0,48.0,-12.0,-45.0,-998.0,-30.0
-20.0,-254.0,0.0,-21.0,47.0,-10.0,-55.0,-985.0,-25.0
-22.0,-255.0,4.0,-23.0,48.0,-10.0,-52.0,-988.0,-26.0
-16.0,-253.0,4.0,-23.0,48.0,-13.0,-39.0,-992.0,-21.0
-20.0,-256.0,3.0,-23.0,51.0,-14.0,-44.0,-982.0,-22.0
-20.0,-255.0,1.0,-21.0,53.0,-17.0,-46.0,-986.0,-26.0
-18.0,-253.0,0.0,-21.0,54.0,-18.0,-42.0,-993.0,-17.0
-17.0,-257.0,2.0,-18.0,55.0,-19.0,-43.0,-993.0,-23.0
-16.0,-255.0,2.0,-17.0,57.0,-19.0,-43.0,-983.0,-22.0
-18.0,-257.0,1.0,-17.0,59.0,-21.0,-38.0,-986.0,-21.0
-17.0,-252.0,-3.0,-16.0,60.0,-21.0,-40.0,-984.0,-24.0
-20.0,-256.0,3.0,-19.0,62.0,-21.0,-40.0,-989.0,-24.0
-16.0,-256.0,3.0,-20.0,63.0,-23.0,-38.0,-982.0,-26.0
-17.0,-256.0,5.0,-20.0,63.0,-23.0,-45.0,-985.0,-26.0
-17.0,-253.0,0.0,-22.0,64.0,-23.0,-38.0,-983.0,-23.0
-17.0,-257.0,5.0,-24.0,65.0,-22.0,-41.0,-985.0,-19.0
-18.0,-255.0,1.0,-23.0,66.0,-22.0,-47.0,-991.0,-19.0
-19.0,-256.0,5.0,-24.0,66.0,-23.0,-43.0,-991.0,-21.0
-19.0,-252.0,3.0,-24.0,65.0,-22.0,-44.0,-992.0,-19.0
-19.0,-257.0,2.0,-24.0,64.0,-21.0,-41.0,-992.0,-23.0
-19.0,-257.0,0.0,-25.0,62.0,-21.0,-47.0,-983.0,-21.0
-17.0,-255.0,2.0,-27.0,62.0,-19.0,-49.0,-995.0,-23.0
-17.0,-255.0,0.0,-25.0,61.0,-18.0,-41.0,-988.0,-26.0
-19.0,-256.0,4.0,-27.0,60.0,-17.0,-49.0,-984.0,-23.0
-20.0,-257.0,4.0,-27.0,58.0,-16.0,-44.0,-989.0,-24.0
-18.0,-257.0,6.0,-27.0,57.0,-16.0,-47.0,-997.0,-25.0
-23.0,-256.0,5.0,-28.0,57.0,-16.0,-50.0,-995.0,-29.0
-20.0,-255.0,5.0,-29.0,60.0,-15.0,-44.0,-997.0,-23.0
-22.0,-255.0,1.0,-30.0,61.0,-14.0,-42.0,-986.0,-22.0
-18.0,-253.0,1.0,-30.0,62.0,-13.0,-42.0,-994.0,-28.0
-17.0,-256.0,1.0,-28.0,65.0,-14.0,-45.0,-992.0,-21.0
-16.0,-253.0,2.0,-30.0,67.0,-13.0,-44.0,-994.0,-28.0
-17.0,-255.0,0.0,-28.0,68.0,-13.0,-42.0,-992.0,-21.0
-18.0,-255.0,3.0,-28.0,69.0,-14.0,-38.0,-992.0,-22.0
-15.0,-258.0,4.0,-29.0,68.0,-15.0,-39.0,-995.0,-22.0
-17.0,-257.0,1.0,-26.0,67.0,-14.0,-39.0,-1002.0,-21.0
-13.0,-256.0,2.0,-24.0,69.0,-14.0,-40.0,-994.0,-18.0
-18.0,-255.0,3.0,-24.0,69.0,-16.0,-40.0,-985.0,-20.0
-17.0,-257.0,4.0,-24.0,69.0,-17.0,-36.0,-990.0,-22.0
-18.0,-255.0,2.0,-26.0,68.0,-17.0,-41.0,-993.0,-21.0
-17.0,-255.0,4.0,-26.0,68.0,-19.0,-40.0,-990.0,-21.0
-18.0,-254.0,2.0,-26.0,67.0,-20.0,-39.0,-985.0,-22.0
-16.0,-256.0,4.0,-23.0,65.0,-20.0,-36.0,-994.0,-23.0
-17.0,-257.0,2.0,-18.0,63.0,-20.0,-36.0,-994.0,-25.0
-18.0,-257.0,7.0,-14.0,62.0,-18.0,-35.0,-987.0,-22.0
-13.0,-256.0,7.0,-15.0,63.0,-17.0,-32.0,-987.0,-19.0
-14.0,-257.0,6.0,-16.0,62.0,-15.0,-38.0,-989.0,-17.0
-16.0,-257.0,1.0,-21.0,63.0,-16.0,-34.0,-990.0,-22.0
-16.0,-256.0,7.0,-25.0,64.0,-17.0,-37.0,-983.0,-21.0
-21.0,-252.0,0.0,-31.0,64.0,-19.0,-35.0,-983.0,-22.0
-16.0,-254.0,0.0,-35.0,64.0,-19.0,-36.0,-985.0,-20.0
-17.0,-252.0,2.0,-37.0,65.0,-21.0,-40.0,-980.0,-22.0
-17.0,-254.0,-2.0,-37.0,65.0,-22.0,-39.0,-986.0,-20.0
-18.0,-257.0,-1.0,-34.0,64.0,-23.0,-33.0,-992.0,-20.0
-18.0,-253.0,5.0,-32.0,64.0,-23.0,-35.0,-994.0,-22.0
-19.0,-255.0,4.0,-28.0,65.0,-25.0,-35.0,-1002.0,-19.0
-17.0,-256.0,0.0,-26.0,65.0,-22.0,-36.0,-993.0,-18.0
-18.0,-255.0,1.0,-22.0,67.0,-23.0,-36.0,-985.0,-16.0
-14.0,-256.0,2.0,-16.0,66.0,-21.0,-35.0,-1009.0,-19.0
-16.0,-257.0,4.0,-12.0,65.0,-20.0,-34.0,-1005.0,-26.0
-18.0,-257.0,5.0,-7.0,64.0,-20.0,-35.0,-1006.0,-20.0
-14.0,-257.0,4.0,-4.0,65.0,-19.0,-39.0,-996.0,-21.0
-16.0,-256.0,1.0,-6.0,68.0,-18.0,-39.0,-1002.0,-22.0
-17.0,-253.0,6.0,-9.0,69.0,-20.0,-34.0,-988.0,-21.0
-19.0,-255.0,0.0,-18.0,72.0,-20.0,-35.0,-998.0,-21.0
-17.0,-256.0,4.0,-27.0,73.0,-18.0,-37.0,-982.0,-23.0
-17.0,-253.0,2.0,-33.0,76.0,-19.0,-36.0,-978.0,-25.0
-17.0,-255.0,5.0,-38.0,76.0,-17.0,-39.0,-991.0,-27.0
-13.0,-255.0,1.0,-40.0,78.0,-17.0,-31.0,-982.0,-21.0
-13.0,-257.0,5.0,-42.0,77.0,-17.0,-34.0,-979.0,-27.0
-15.0,-252.0,6.0,-41.0,77.0,-15.0,-35.0,-979.0,-27.0
-14.0,-255.0,0.0,-39.0,77.0,-14.0,-32.0,-982.0,-23.0
-14.0,-252.0,2.0,-35.0,76.0,-16.0,-32.0,-979.0,-23.0
-15.0,-254.0,1.0,-35.0,75.0,-16.0,-35.0,-976.0,-25.0
-16.0,-254.0,5.0,-33.0,77.0,-18.0,-30.0,-983.0,-21.0
-16.0,-257.0,3.0,-32.0,76.0,-16.0,-36.0,-985.0,-25.0
-20.0,-253.0,2.0,-31.0,75.0,-15.0,-32.0,-987.0,-20.0
-19.0,-256.0,4.0,-32.0,76.0,-16.0,-35.0,-999.0,-20.0
-15.0,-259.0,6.0,-31.0,74.0,-16.0,-33.0,-999.0,-21.0
-16.0,-255.0,-1.0,-32.0,73.0,-14.0,-35.0,-997.0,-22.0
-16.0,-257.0,3.0,-30.0,77.0,-13.0,-35.0,-986.0,-25.0
-15.0,-254.0,3.0,-29.0,77.0,-10.0,-34.0,-997.0,-28.0
-15.0,-254.0,3.0,-30.0,79.0,-11.0,-35.0,-993.0,-25.0
-16.0,-256.0,2.0,-29.0,80.0,-8.0,-30.0,-993.0,-21.0
-17.0,-255.0,0.0,-29.0,80.0,-7.0,-30.0,-999.0,-26.0
-19.0,-253.0,2.0,-29.0,79.0,-8.0,-31.0,-992.0,-27.0
-13.0,-259.0,3.0,-28.0,79.0,-6.0,-32.0,-985.0,-25.0
-13.0,-256.0,0.0,-27.0,78.0,-4.0,-33.0,-984.0,-22.0
-13.0,-255.0,2.0,-27.0,79.0,-4.0,-32.0,-984.0,-23.0
-18.0,-256.0,7.0,-27.0,77.0,-4.0,-32.0,-979.0,-24.0
-16.0,-253.0,3.0,-27.0,77.0,-2.0,-30.0,-981.0,-25.0
-14.0,-258.0,0.0,-27.0,78.0,0.0,-30.0,-986.0,-26.0
-18.0,-253.0,4.0,-25.0,76.0,0.0,-33.0,-986.0,-23.0
-14.0,-255.0,2.0,-22.0,76.0,1.0,-32.0,-987.0,-22.0
-19.0,-253.0,4.0,-20.0,77.0,2.0,-31.0,-992.0,-23.0
-16.0,-255.0,0.0,-18.0,78.0,3.0,-33.0,-991.0,-21.0
-17.0,-257.0,4.0,-19.0,79.0,4.0,-33.0,-998.0,-32.0
-14.0,-257.0,1.0,-22.0,79.0,1.0,-31.0,-994.0,-29.0
-16.0,-254.0,-1.0,-27.0,81.0,2.0,-38.0,-1001.0,-25.0
-15.0,-258.0,3.0,-30.0,82.0,2.0,-38.0,-999.0,-23.0
-20.0,-253.0,2.0,-32.0,83.0,2.0,-32.0,-997.0,-24.0
-14.0,-259.0,-5.0,-35.0,82.0,0.0,-34.0,-985.0,-24.0
-18.0,-255.0,2.0,-37.0,82.0,0.0,-36.0,-985.0,-24.0
-16.0,-255.0,2.0,-40.0,82.0,-1.0,-32.0,-990.0,-31.0
-15.0,-255.0,1.0,-43.0,83.0,-2.0,-40.0,-977.0,-26.0
-15.0,-255.0,5.0,-47.0,83.0,0.0,-33.0,-977.0,-22.0
-13.0,-253.0,4.0,-50.0,83.0,1.0,-31.0,-987.0,-22.0
-14.0,-255.0,0.0,-52.0,83.0,-1.0,-30.0,-980.0,-23.0
-18.0,-255.0,1.0,-54.0,81.0,0.0,-32.0,-982.0,-23.0
-14.0,-254.0,-1.0,-56.0,81.0,3.0,-34.0,-985.0,-20.0
-13.0,-254.0,5.0,-54.0,80.0,2.0,-35.0,-986.0,-20.0
-18.0,-256.0,-1.0,-54.0,79.0,1.0,-34.0,-979.0,-21.0
-17.0,-252.0,-1.0,-55.0,77.0,2.0,-33.0,-986.0,-29.0
-19.0,-254.0,0.0,-57.0,77.0,3.0,-33.0,-984.0,-28.0
-17.0,-257.0,-1.0,-58.0,77.0,0.0,-37.0,-984.0,-34.0
-18.0,-253.0,1.0,-62.0,76.0,0.0,-38.0,-985.0,-31.0
-21.0,-255.0,4.0,-65.0,79.0,-1.0,-38.0,-980.0,-28.0
-18.0,-255.0,3.0,-66.0,78.0,1.0,-41.0,-986.0,-26.0
-18.0,-253.0,2.0,-68.0,80.0,0.0,-39.0,-992.0,-30.0
-16.0,-256.0,5.0,-71.0,81.0,0.0,-38.0,-982.0,-26.0
-18.0,-252.0,-2.0,-73.0,82.0,1.0,-36.0,-984.0,-27.0
-17.0,-256.0,-1.0,-76.0,83.0,1.0,-37.0,-981.0,-24.0
-18.0,-255.0,-1.0,-77.0,85.0,0.0,-39.0,-981.0,-29.0
-18.0,-254.0,-1.0,-80.0,85.0,-1.0,-35.0,-983.0,-32.0
-16.0,-254.0,0.0,-86.0,84.0,-1.0,-35.0,-985.0,-27.0
-16.0,-255.0,1.0,-90.0,85.0,-1.0,-36.0,-990.0,-30.0
-17.0,-254.0,-1.0,-91.0,84.0,-2.0,-33.0,-982.0,-32.0
-18.0,-253.0,-3.0,-91.0,82.0,-3.0,-35.0,-980.0,-32.0
-15.0,-258.0,-3.0,-95.0,78.0,-1.0,-35.0,-980.0,-31.0
-16.0,-254.0,0.0,-98.0,78.0,-1.0,-33.0,-985.0,-32.0
-17.0,-256.0,2.0,-101.0,78.0,1.0,-41.0,-988.0,-29.0
-17.0,-254.0,-1.0,-100.0,80.0,1.0,-36.0,-988.0,-26.0
-17.0,-255.0,-2.0,-99.0,80.0,0.0,-39.0,-986.0,-33.0
-20.0,-252.0,-1.0,-98.0,79.0,1.0,-34.0,-985.0,-33.0
-16.0,-256.0,1.0,-95.0,81.0,2.0,-39.0,-992.0,-26.0
-17.0,-257.0,0.0,-94.0,82.0,3.0,-36.0,-983.0,-38.0
-17.0,-254.0,-1.0,-94.0,84.0,4.0,-37.0,-988.0,-29.0
-18.0,-255.0,0.0,-93.0,84.0,4.0,-35.0,-994.0,-36.0
-15.0,-257.0,3.0,-94.0,85.0,5.0,-36.0,-986.0,-33.0
-16.0,-257.0,1.0,-95.0,85.0,5.0,-42.0,-991.0,-30.0
-18.0,-256.0,2.0,-95.0,85.0,6.0,-34.0,-1003.0,-32.0
-18.0,-255.0,0.0,-96.0,83.0,7.0,-35.0,-985.0,-29.0
-18.0,-255.0,-2.0,-97.0,81.0,9.0,-36.0,-994.0,-37.0
-17.0,-255.0,-3.0,-97.0,80.0,11.0,-40.0,-985.0,-36.0
-17.0,-257.0,0.0,-98.0,77.0,13.0,-36.0,-990.0,-37.0
-18.0,-252.0,-2.0,-98.0,75.0,14.0,-38.0,-990.0,-39.0
-17.0,-255.0,1.0,-97.0,75.0,15.0,-40.0,-980.0,-40.0
-17.0,-256.0,-3.0,-95.0,73.0,14.0,-39.0,-990.0,-39.0
-15.0,-253.0,-5.0,-95.0,73.0,13.0,-34.0,-986.0,-46.0
-19.0,-254.0,-4.0,-93.0,75.0,14.0,-35.0,-976.0,-44.0
-15.0,-253.0,-5.0,-90.0,75.0,14.0,-38.0,-983.0,-45.0
-17.0,-255.0,-3.0,-91.0,76.0,11.0,-38.0,-981.0,-43.0
-18.0,-257.0,-2.0,-95.0,78.0,8.0,-36.0,-979.0,-45.0
-16.0,-253.0,-6.0,-97.0,80.0,7.0,-31.0,-987.0,-46.0
-18.0,-252.0,0.0,-100.0,80.0,6.0,-35.0,-983.0,-48.0
-20.0,-251.0,-3.0,-103.0,81.0,4.0,-37.0,-979.0,-49.0
-18.0,-254.0,-7.0,-107.0,81.0,4.0,-40.0,-990.0,-47.0
-21.0,-250.0,-3.0,-112.0,80.0,4.0,-37.0,-983.0,-48.0
-20.0,-252.0,-6.0,-117.0,77.0,3.0,-46.0,-983.0,-49.0
-18.0,-254.0,-3.0,-122.0,76.0,3.0,-43.0,-981.0,-52.0
-18.0,-255.0,-4.0,-127.0,75.0,2.0,-43.0,-981.0,-52.0
-18.0,-251.0,-4.0,-129.0,75.0,1.0,-38.0,-976.0,-57.0
-19.0,-254.0,-4.0,-131.0,72.0,-3.0,-41.0,-982.0,-59.0
-18.0,-255.0,-4.0,-134.0,72.0,-5.0,-37.0,-977.0,-54.0
-16.0,-251.0,-5.0,-136.0,72.0,-5.0,-43.0,-978.0,-54.0
-18.0,-255.0,-7.0,-140.0,71.0,-5.0,-35.0,-979.0,-59.0
-15.0,-251.0,-9.0,-140.0,70.0,-6.0,-39.0,-980.0,-48.0
-17.0,-253.0,-5.0,-138.0,67.0,-7.0,-35.0,-979.0,-62.0
-18.0,-253.0,-4.0,-136.0,63.0,-8.0,-33.0,-978.0,-56.0
-13.0,-256.0,-9.0,-137.0,61.0,-8.0,-44.0,-983.0,-52.0
-18.0,-256.0,-6.0,-136.0,58.0,-7.0,-40.0,-986.0,-53.0
-17.0,-255.0,-5.0,-136.0,54.0,-7.0,-41.0,-986.0,-55.0
-17.0,-255.0,-3.0,-140.0,53.0,-6.0,-50.0,-985.0,-56.0
-23.0,-252.0,-5.0,-143.0,52.0,-5.0,-38.0,-1003.0,-57.0
-20.0,-255.0,-7.0,-150.0,54.0,-5.0,-44.0,-987.0,-58.0
-19.0,-254.0,-5.0,-151.0,54.0,-5.0,-38.0,-998.0,-57.0
-18.0,-253.0,-8.0,-151.0,54.0,-8.0,-40.0,-985.0,-56.0
-20.0,-256.0,-5.0,-157.0,57.0,-11.0,-41.0,-989.0,-57.0
-16.0,-256.0,-8.0,-159.0,61.0,-7.0,-42.0,-987.0,-58.0
-20.0,-252.0,-7.0,-164.0,62.0,-6.0,-42.0,-989.0,-62.0
-17.0,-257.0,-5.0,-168.0,65.0,-9.0,-37.0,-991.0,-60.0
-19.0,-254.0,-10.0,-171.0,68.0,-8.0,-41.0,-987.0,-56.0
-18.0,-257.0,-6.0,-171.0,70.0,-8.0,-41.0,-997.0,-61.0
-18.0,-256.0,-6.0,-173.0,72.0,-9.0,-45.0,-985.0,-59.0
-21.0,-256.0,-5.0,-176.0,73.0,-6.0,-46.0,-992.0,-59.0
-19.0,-256.0,-9.0,-177.0,70.0,-3.0,-41.0,-985.0,-59.0
-19.0,-255.0,-11.0,-178.0,71.0,-2.0,-45.0,-985.0,-57.0
-20.0,-252.0,-10.0,-176.0,69.0,-1.0,-49.0,-998.0,-59.0
-19.0,-252.0,-13.0,-176.0,70.0,0.0,-45.0,-985.0,-63.0
-15.0,-256.0,-2.0,-176.0,72.0,1.0,-41.0,-992.0,-62.0
-19.0,-255.0,-8.0,-177.0,73.0,1.0,-44.0,-993.0,-60.0
-17.0,-258.0,-7.0,-179.0,75.0,0.0,-36.0,-992.0,-63.0
-16.0,-257.0,-8.0,-182.0,80.0,0.0,-37.0,-1003.0,-65.0
-15.0,-258.0,-11.0,-180.0,87.0,-2.0,-32.0,-1010.0,-68.0
-16.0,-255.0,-8.0,-181.0,92.0,-3.0,-32.0,-1004.0,-69.0
-14.0,-256.0,-10.0,-178.0,96.0,-3.0,-30.0,-988.0,-64.0
-16.0,-257.0,-9.0,-176.0,99.0,-2.0,-29.0,-995.0,-69.0
-15.0,-258.0,-9.0,-173.0,100.0,-2.0,-33.0,-1005.0,-69.0
-14.0,-261.0,-8.0,-166.0,100.0,1.0,-27.0,-1003.0,-70.0
-13.0,-257.0,-10.0,-158.0,100.0,2.0,-25.0,-1006.0,-73.0
-12.0,-259.0,-6.0,-152.0,101.0,2.0,-22.0,-1007.0,-71.0
-13.0,-257.0,-13.0,-147.0,103.0,3.0,-20.0,-994.0,-73.0
-11.0,-259.0,-10.0,-142.0,108.0,3.0,-25.0,-997.0,-72.0
-13.0,-255.0,-11.0,-140.0,114.0,5.0,-24.0,-999.0,-74.0
-14.0,-256.0,-12.0,-140.0,117.0,3.0,-19.0,-986.0,-75.0
-11.0,-254.0,-14.0,-141.0,124.0,1.0,-13.0,-991.0,-75.0
-13.0,-254.0,-14.0,-138.0,131.0,-3.0,-11.0,-976.0,-80.0
-12.0,-251.0,-13.0,-139.0,137.0,-6.0,-11.0,-976.0,-89.0
-10.0,-253.0,-13.0,-140.0,143.0,-8.0,-11.0,-981.0,-85.0
-13.0,-253.0,-11.0,-141.0,151.0,-10.0,-18.0,-980.0,-92.0
-10.0,-261.0,-15.0,-140.0,156.0,-12.0,-12.0,-979.0,-90.0
-11.0,-255.0,-14.0,-136.0,161.0,-13.0,-10.0,-978.0,-91.0
-9.0,-253.0,-15.0,-130.0,164.0,-13.0,-17.0,-987.0,-89.0
-13.0,-253.0,-18.0,-123.0,167.0,-14.0,-15.0,-983.0,-90.0
-11.0,-257.0,-15.0,-119.0,170.0,-12.0,-18.0,-985.0,-92.0
-13.0,-259.0,-15.0,-116.0,174.0,-13.0,-17.0,-986.0,-98.0
-10.0,-254.0,-17.0,-114.0,177.0,-12.0,-14.0,-986.0,-95.0
-8.0,-254.0,-19.0,-115.0,181.0,-14.0,-9.0,-994.0,-96.0
-11.0,-253.0,-16.0,-120.0,187.0,-14.0,-17.0,-992.0,-99.0
-8.0,-254.0,-18.0,-126.0,194.0,-12.0,-14.0,-980.0,-102.0
-12.0,-256.0,-19.0,-129.0,199.0,-11.0,-22.0,-988.0,-107.0
-12.0,-254.0,-18.0,-131.0,205.0,-8.0,-17.0,-990.0,-106.0
-10.0,-255.0,-18.0,-129.0,210.0,-6.0,-11.0,-985.0,-104.0
-10.0,-256.0,-19.0,-128.0,217.0,-4.0,-12.0,-987.0,-108.0
-9.0,-256.0,-20.0,-125.0,222.0,0.0,-14.0,-990.0,-107.0
-7.0,-258.0,-19.0,-121.0,224.0,4.0,-9.0,-992.0,-109.0
-10.0,-261.0,-17.0,-119.0,228.0,5.0,-10.0,-997.0,-104.0
-11.0,-256.0,-18.0,-116.0,231.0,6.0,-9.0,-992.0,-104.0
-12.0,-257.0,-12.0,-114.0,233.0,7.0,-17.0,-997.0,-102.0
-16.0,-253.0,-20.0,-112.0,235.0,6.0,-18.0,-986.0,-103.0
-10.0,-256.0,-19.0,-111.0,235.0,6.0,-17.0,-988.0,-105.0
-15.0,-254.0,-19.0,-111.0,237.0,6.0,-15.0,-981.0,-110.0
-15.0,-252.0,-19.0,-111.0,239.0,4.0,-21.0,-986.0,-117.0
-11.0,-259.0,-20.0,-113.0,241.0,4.0,-24.0,-984.0,-118.0
-14.0,-256.0,-21.0,-117.0,244.0,3.0,-26.0,-992.0,-123.0
-17.0,-253.0,-23.0,-120.0,245.0,2.0,-26.0,-993.0,-125.0
-14.0,-256.0,-24.0,-123.0,246.0,2.0,-29.0,-987.0,-129.0
-18.0,-253.0,-25.0,-128.0,248.0,4.0,-35.0,-985.0,-125.0
-15.0,-253.0,-22.0,-132.0,248.0,5.0,-37.0,-984.0,-124.0
-19.0,-255.0,-23.0,-136.0,247.0,6.0,-37.0,-986.0,-130.0
-19.0,-255.0,-19.0,-138.0,248.0,9.0,-39.0,-980.0,-126.0
-18.0,-256.0,-21.0,-139.0,249.0,11.0,-43.0,-995.0,-130.0
-19.0,-255.0,-20.0,-139.0,250.0,13.0,-42.0,-988.0,-123.0
-17.0,-253.0,-22.0,-140.0,253.0,12.0,-39.0,-990.0,-126.0
-18.0,-259.0,-20.0,-140.0,255.0,12.0,-39.0,-991.0,-125.0
-17.0,-259.0,-21.0,-142.0,256.0,8.0,-39.0,-985.0,-132.0
-15.0,-255.0,-22.0,-144.0,258.0,7.0,-35.0,-987.0,-124.0
-15.0,-254.0,-22.0,-148.0,258.0,5.0,-32.0,-987.0,-132.0
-15.0,-254.0,-20.0,-150.0,256.0,5.0,-34.0,-977.0,-134.0
-15.0,-253.0,-20.0,-153.0,256.0,3.0,-33.0,-978.0,-132.0
-14.0,-252.0,-24.0,-153.0,255.0,1.0,-35.0,-983.0,-135.0
-15.0,-256.0,-23.0,-152.0,253.0,-1.0,-35.0,-979.0,-133.0
-17.0,-254.0,-23.0,-151.0,257.0,0.0,-36.0,-981.0,-135.0
-20.0,-251.0,-32.0,-151.0,261.0,1.0,-37.0,-981.0,-137.0
-20.0,-256.0,-23.0,-150.0,264.0,2.0,-40.0,-982.0,-135.0
-17.0,-255.0,-24.0,-151.0,268.0,3.0,-40.0,-982.0,-139.0
-17.0,-255.0,-27.0,-152.0,271.0,6.0,-44.0,-985.0,-138.0
-18.0,-253.0,-25.0,-157.0,272.0,7.0,-44.0,-983.0,-141.0
-17.0,-253.0,-27.0,-162.0,276.0,8.0,-49.0,-981.0,-148.0
-18.0,-255.0,-28.0,-167.0,276.0,10.0,-40.0,-982.0,-148.0
-19.0,-253.0,-23.0,-170.0,275.0,12.0,-46.0,-971.0,-144.0
-20.0,-249.0,-28.0,-173.0,274.0,15.0,-43.0,-975.0,-141.0
-20.0,-250.0,-31.0,-176.0,272.0,16.0,-36.0,-974.0,-145.0
-20.0,-254.0,-25.0,-178.0,271.0,18.0,-41.0,-977.0,-144.0
-16.0,-254.0,-25.0,-176.0,270.0,19.0,-41.0,-980.0,-142.0
-15.0,-254.0,-27.0,-174.0,269.0,19.0,-34.0,-977.0,-146.0
-19.0,-253.0,-26.0,-171.0,267.0,19.0,-36.0,-982.0,-141.0
-16.0,-256.0,-28.0,-167.0,264.0,20.0,-34.0,-985.0,-154.0
-20.0,-254.0,-31.0,-164.0,263.0,20.0,-39.0,-992.0,-152.0
-17.0,-253.0,-28.0,-163.0,262.0,18.0,-38.0,-982.0,-150.0
-18.0,-255.0,-30.0,-168.0,264.0,18.0,-39.0,-975.0,-157.0
-19.0,-254.0,-29.0,-175.0,264.0,17.0,-43.0,-979.0,-156.0
-21.0,-252.0,-31.0,-181.0,263.0,15.0,-46.0,-975.0,-157.0
-19.0,-252.0,-32.0,-184.0,262.0,16.0,-43.0,-977.0,-163.0
-20.0,-249.0,-29.0,-183.0,261.0,17.0,-45.0,-978.0,-157.0
-21.0,-254.0,-33.0,-184.0,261.0,17.0,-41.0,-981.0,-166.0
-18.0,-252.0,-29.0,-183.0,263.0,15.0,-45.0,-979.0,-162.0
-19.0,-254.0,-31.0,-182.0,263.0,15.0,-44.0,-979.0,-159.0
-18.0,-255.0,-31.0,-178.0,262.0,14.0,-49.0,-985.0,-158.0
-22.0,-254.0,-30.0,-176.0,259.0,11.0,-47.0,-992.0,-160.0
-20.0,-255.0,-30.0,-173.0,257.0,7.0,-47.0,-988.0,-166.0
-20.0,-254.0,-30.0,-171.0,253.0,5.0,-50.0,-998.0,-165.0
-20.0,-259.0,-32.0,-170.0,248.0,2.0,-48.0,-994.0,-160.0
-19.0,-252.0,-30.0,-171.0,245.0,-2.0,-47.0,-986.0,-167.0
-20.0,-255.0,-31.0,-169.0,240.0,-5.0,-46.0,-992.0,-166.0
-19.0,-254.0,-28.0,-166.0,233.0,-7.0,-41.0,-988.0,-173.0
-16.0,-256.0,-31.0,-164.0,228.0,-8.0,-36.0,-979.0,-175.0
-16.0,-254.0,-33.0,-164.0,223.0,-10.0,-38.0,-983.0,-172.0
-15.0,-257.0,-35.0,-164.0,220.0,-13.0,-36.0,-989.0,-176.0
-17.0,-255.0,-32.0,-163.0,217.0,-13.0,-41.0,-986.0,-174.0
-16.0,-255.0,-33.0,-161.0,215.0,-14.0,-34.0,-980.0,-178.0
-16.0,-252.0,-32.0,-159.0,212.0,-15.0,-33.0,-982.0,-178.0
-16.0,-255.0,-37.0,-158.0,210.0,-16.0,-36.0,-978.0,-178.0
-16.0,-255.0,-36.0,-155.0,211.0,-15.0,-37.0,-976.0,-177.0
-16.0,-254.0,-32.0,-155.0,210.0,-17.0,-34.0,-977.0,-173.0
-16.0,-252.0,-31.0,-153.0,210.0,-17.0,-33.0,-981.0,-175.0
-17.0,-251.0,-33.0,-153.0,211.0,-16.0,-34.0,-983.0,-175.0
-17.0,-253.0,-35.0,-153.0,211.0,-15.0,-41.0,-983.0,-173.0
-21.0,-254.0,-31.0,-155.0,211.0,-16.0,-35.0,-984.0,-175.0
-18.0,-254.0,-34.0,-156.0,209.0,-13.0,-35.0,-984.0,-181.0
-18.0,-254.0,-34.0,-158.0,208.0,-14.0,-39.0,-982.0,-179.0
-17.0,-253.0,-33.0,-158.0,204.0,-14.0,-40.0,-977.0,-179.0
-19.0,-255.0,-34.0,-157.0,202.0,-11.0,-42.0,-981.0,-175.0
-18.0,-255.0,-33.0,-156.0,199.0,-11.0,-41.0,-982.0,-178.0
-19.0,-252.0,-34.0,-154.0,196.0,-11.0,-41.0,-978.0,-181.0
-21.0,-253.0,-36.0,-154.0,190.0,-8.0,-37.0,-984.0,-182.0
-19.0,-253.0,-35.0,-152.0,184.0,-8.0,-44.0,-980.0,-180.0
-19.0,-254.0,-40.0,-149.0,179.0,-6.0,-47.0,-974.0,-185.0
-20.0,-250.0,-38.0,-145.0,175.0,-8.0,-49.0,-975.0,-193.0
-18.0,-252.0,-39.0,-143.0,173.0,-7.0,-45.0,-980.0,-194.0
-20.0,-254.0,-36.0,-144.0,172.0,-7.0,-47.0,-975.0,-195.0
-19.0,-255.0,-37.0,-143.0,172.0,-8.0,-50.0,-977.0,-195.0
-19.0,-255.0,-40.0,-144.0,173.0,-9.0,-46.0,-974.0,-197.0
-17.0,-253.0,-40.0,-146.0,173.0,-8.0,-48.0,-974.0,-196.0
-18.0,-253.0,-40.0,-147.0,173.0,-9.0,-46.0,-981.0,-197.0
-17.0,-253.0,-37.0,-148.0,172.0,-9.0,-47.0,-976.0,-193.0
-19.0,-252.0,-38.0,-148.0,171.0,-9.0,-46.0,-977.0,-188.0
-17.0,-257.0,-38.0,-147.0,170.0,-10.0,-45.0,-979.0,-192.0
-20.0,-254.0,-36.0,-148.0,168.0,-10.0,-43.0,-983.0,-195.0
-18.0,-254.0,-35.0,-150.0,168.0,-12.0,-47.0,-977.0,-196.0
-19.0,-254.0,-38.0,-151.0,170.0,-13.0,-46.0,-978.0,-196.0
-20.0,-252.0,-38.0,-149.0,168.0,-12.0,-48.0,-977.0,-197.0
-21.0,-256.0,-44.0,-147.0,169.0,-13.0,-47.0,-976.0,-197.0
-19.0,-255.0,-42.0,-148.0,167.0,-14.0,-48.0,-975.0,-200.0
-17.0,-256.0,-44.0,-149.0,166.0,-14.0,-47.0,-975.0,-206.0
-18.0,-252.0,-42.0,-150.0,164.0,-15.0,-49.0,-973.0,-205.0
-21.0,-251.0,-38.0,-148.0,162.0,-16.0,-49.0,-974.0,-203.0
-20.0,-251.0,-43.0,-149.0,158.0,-14.0,-45.0,-975.0,-207.0
-19.0,-251.0,-44.0,-149.0,154.0,-13.0,-54.0,-974.0,-207.0
-20.0,-249.0,-37.0,-147.0,149.0,-13.0,-47.0,-971.0,-204.0
-20.0,-253.0,-39.0,-144.0,148.0,-13.0,-52.0,-972.0,-208.0
-21.0,-252.0,-43.0,-141.0,144.0,-14.0,-47.0,-967.0,-207.0
-16.0,-254.0,-39.0,-139.0,139.0,-16.0,-47.0,-967.0,-207.0
-19.0,-253.0,-44.0,-139.0,138.0,-17.0,-39.0,-970.0,-209.0
-18.0,-251.0,-45.0,-139.0,136.0,-20.0,-38.0,-974.0,-212.0
-16.0,-249.0,-42.0,-142.0,136.0,-24.0,-33.0,-974.0,-213.0
-17.0,-250.0,-39.0,-142.0,137.0,-26.0,-35.0,-973.0,-208.0
-16.0,-254.0,-42.0,-147.0,137.0,-31.0,-40.0,-972.0,-205.0
-16.0,-252.0,-41.0,-146.0,136.0,-33.0,-34.0,-974.0,-207.0
-15.0,-253.0,-45.0,-143.0,133.0,-34.0,-34.0,-974.0,-209.0
-16.0,-252.0,-42.0,-139.0,131.0,-34.0,-32.0,-978.0,-214.0
-17.0,-254.0,-39.0,-135.0,128.0,-33.0,-30.0,-970.0,-208.0
-17.0,-256.0,-42.0,-131.0,126.0,-33.0,-30.0,-979.0,-214.0
-15.0,-253.0,-43.0,-127.0,125.0,-34.0,-31.0,-980.0,-219.0
-11.0,-255.0,-41.0,-126.0,125.0,-35.0,-31.0,-979.0,-218.0
-15.0,-253.0,-48.0,-124.0,126.0,-37.0,-33.0,-980.0,-213.0
-17.0,-257.0,-44.0,-124.0,124.0,-37.0,-34.0,-980.0,-217.0
-13.0,-255.0,-46.0,-121.0,125.0,-40.0,-29.0,-980.0,-220.0
-15.0,-254.0,-42.0,-118.0,125.0,-41.0,-27.0,-980.0,-218.0
-14.0,-253.0,-47.0,-115.0,128.0,-42.0,-24.0,-983.0,-216.0
-12.0,-253.0,-45.0,-112.0,130.0,-41.0,-21.0,-974.0,-218.0
-15.0,-254.0,-44.0,-113.0,129.0,-47.0,-18.0,-976.0,-217.0
-12.0,-254.0,-45.0,-116.0,129.0,-49.0,-19.0,-980.0,-224.0
-11.0,-254.0,-43.0,-118.0,129.0,-52.0,-19.0,-974.0,-229.0
-9.0,-253.0,-49.0,-121.0,128.0,-55.0,-8.0,-977.0,-222.0
-9.0,-255.0,-46.0,-120.0,124.0,-59.0,-7.0,-990.0,-225.0
-7.0,-257.0,-52.0,-117.0,120.0,-61.0,-5.0,-986.0,-232.0
-8.0,-255.0,-45.0,-114.0,121.0,-63.0,4.0,-985.0,-227.0
-6.0,-257.0,-49.0,-112.0,124.0,-67.0,10.0,-987.0,-234.0
-4.0,-258.0,-47.0,-107.0,128.0,-70.0,11.0,-986.0,-222.0
-7.0,-257.0,-48.0,-103.0,135.0,-76.0,8.0,-993.0,-226.0
-3.0,-258.0,-45.0,-99.0,139.0,-80.0,11.0,-992.0,-226.0
-8.0,-258.0,-41.0,-91.0,143.0,-84.0,8.0,-1000.0,-221.0
-8.0,-255.0,-45.0,-84.0,149.0,-87.0,4.0,-986.0,-222.0
-6.0,-256.0,-45.0,-76.0,154.0,-90.0,9.0,-986.0,-220.0
-7.0,-255.0,-48.0,-67.0,158.0,-94.0,3.0,-988.0,-216.0
-6.0,-255.0,-47.0,-58.0,163.0,-96.0,3.0,-983.0,-217.0
-8.0,-254.0,-45.0,-50.0,167.0,-96.0,-6.0,-979.0,-222.0
-13.0,-254.0,-47.0,-43.0,171.0,-95.0,-11.0,-980.0,-219.0
-12.0,-253.0,-46.0,-37.0,172.0,-90.0,-21.0,-975.0,-225.0
-14.0,-255.0,-44.0,-30.0,171.0,-87.0,-25.0,-975.0,-225.0
-15.0,-252.0,-46.0,-26.0,165.0,-83.0,-28.0,-966.0,-230.0
-19.0,-250.0,-49.0,-22.0,160.0,-79.0,-34.0,-964.0,-229.0
-16.0,-251.0,-49.0,-21.0,153.0,-74.0,-39.0,-970.0,-235.0
-18.0,-249.0,-49.0,-24.0,144.0,-69.0,-48.0,-965.0,-241.0
-19.0,-251.0,-52.0,-33.0,134.0,-64.0,-52.0,-965.0,-235.0
-22.0,-252.0,-47.0,-46.0,119.0,-60.0,-50.0,-964.0,-234.0
-20.0,-252.0,-48.0,-58.0,107.0,-55.0,-59.0,-968.0,-226.0
-21.0,-253.0,-53.0,-68.0,96.0,-51.0,-50.0,-976.0,-229.0
-22.0,-252.0,-51.0,-81.0,89.0,-44.0,-57.0,-976.0,-234.0
-16.0,-255.0,-44.0,-87.0,81.0,-41.0,-42.0,-982.0,-229.0
-18.0,-252.0,-48.0,-93.0,76.0,-40.0,-42.0,-986.0,-229.0
-15.0,-256.0,-47.0,-95.0,71.0,-39.0,-41.0,-981.0,-226.0
-15.0,-254.0,-47.0,-93.0,68.0,-39.0,-30.0,-985.0,-231.0
-20.0,-255.0,-54.0,-91.0,63.0,-40.0,-28.0,-984.0,-234.0
-13.0,-253.0,-48.0,-85.0,61.0,-42.0,-24.0,-977.0,-235.0
-12.0,-250.0,-46.0,-79.0,60.0,-48.0,-18.0,-973.0,-235.0
-9.0,-251.0,-52.0,-76.0,62.0,-50.0,-7.0,-968.0,-237.0
-13.0,-250.0,-48.0,-71.0,63.0,-53.0,-15.0,-966.0,-236.0
-8.0,-248.0,-50.0,-67.0,65.0,-56.0,-10.0,-969.0,-230.0
-10.0,-252.0,-50.0,-65.0,67.0,-60.0,-17.0,-972.0,-238.0
-8.0,-249.0,-46.0,-63.0,70.0,-61.0,-13.0,-970.0,-235.0
-13.0,-252.0,-48.0,-58.0,71.0,-62.0,-18.0,-973.0,-233.0
-12.0,-250.0,-50.0,-55.0,72.0,-62.0,-17.0,-972.0,-231.0
-12.0,-252.0,-47.0,-50.0,72.0,-62.0,-24.0,-969.0,-233.0
-12.0,-252.0,-46.0,-44.0,69.0,-61.0,-17.0,-968.0,-230.0
-15.0,-254.0,-50.0,-37.0,67.0,-60.0,-22.0,-972.0,-231.0
-14.0,-251.0,-50.0,-32.0,60.0,-59.0,-22.0,-971.0,-235.0
-14.0,-252.0,-49.0,-29.0,52.0,-56.0,-28.0,-973.0,-232.0
-14.0,-253.0,-51.0,-24.0,43.0,-54.0,-24.0,-966.0,-233.0
-15.0,-250.0,-50.0,-22.0,33.0,-55.0,-24.0,-964.0,-231.0
-15.0,-250.0,-48.0,-22.0,23.0,-52.0,-28.0,-965.0,-227.0
-14.0,-251.0,-44.0,-21.0,15.0,-51.0,-23.0,-966.0,-231.0
-15.0,-248.0,-49.0,-20.0,9.0,-52.0,-25.0,-962.0,-237.0
-12.0,-250.0,-49.0,-20.0,3.0,-52.0,-19.0,-959.0,-237.0
-15.0,-246.0,-50.0,-21.0,-2.0,-52.0,-20.0,-962.0,-237.0
-13.0,-248.0,-50.0,-23.0,-5.0,-51.0,-18.0,-958.0,-239.0
-12.0,-249.0,-50.0,-23.0,-7.0,-52.0,-10.0,-963.0,-236.0
-9.0,-249.0,-48.0,-22.0,-9.0,-51.0,-15.0,-960.0,-237.0
-11.0,-249.0,-50.0,-19.0,-11.0,-49.0,-6.0,-970.0,-238.0
-12.0,-249.0,-51.0,-18.0,-13.0,-49.0,-9.0,-964.0,-239.0
-10.0,-250.0,-46.0,-16.0,-14.0,-49.0,-4.0,-962.0,-240.0
-9.0,-251.0,-46.0,-14.0,-16.0,-50.0,-2.0,-963.0,-238.0
-9.0,-251.0,-51.0,-12.0,-16.0,-53.0,-3.0,-966.0,-239.0
-11.0,-251.0,-50.0,-15.0,-18.0,-53.0,-1.0,-970.0,-238.0
-7.0,-250.0,-52.0,-17.0,-21.0,-55.0,-5.0,-970.0,-239.0
-10.0,-253.0,-48.0,-20.0,-23.0,-56.0,0.0,-967.0,-240.0
-6.0,-252.0,-49.0,-19.0,-25.0,-58.0,-1.0,-971.0,-236.0
-6.0,-251.0,-47.0,-21.0,-27.0,-58.0,-6.0,-970.0,-240.0
-7.0,-250.0,-50.0,-22.0,-30.0,-58.0,-5.0,-968.0,-239.0
-9.0,-251.0,-53.0,-25.0,-34.0,-57.0,-7.0,-969.0,-243.0
-9.0,-254.0,-51.0,-28.0,-34.0,-57.0,-7.0,-962.0,-235.0
-8.0,-249.0,-50.0,-29.0,-38.0,-53.0,-5.0,-972.0,-234.0
-9.0,-252.0,-47.0,-27.0,-43.0,-52.0,-9.0,-972.0,-232.0
-8.0,-251.0,-49.0,-26.0,-48.0,-52.0,-7.0,-971.0,-225.0
-7.0,-251.0,-48.0,-24.0,-56.0,-54.0,-1.0,-974.0,-232.0
-9.0,-250.0,-50.0,-23.0,-63.0,-58.0,-5.0,-973.0,-227.0
-7.0,-251.0,-51.0,-23.0,-69.0,-61.0,-4.0,-973.0,-234.0
-4.0,-255.0,-55.0,-26.0,-71.0,-65.0,7.0,-973.0,-234.0
-5.0,-252.0,-52.0,-28.0,-72.0,-69.0,10.0,-985.0,-241.0
-7.0,-253.0,-49.0,-32.0,-73.0,-74.0,13.0,-978.0,-235.0
0.0,-251.0,-50.0,-37.0,-71.0,-77.0,16.0,-970.0,-240.0
-5.0,-251.0,-50.0,-42.0,-70.0,-81.0,10.0,-968.0,-240.0
0.0,-252.0,-51.0,-47.0,-69.0,-84.0,12.0,-966.0,-238.0
-8.0,-252.0,-52.0,-51.0,-68.0,-87.0,7.0,-968.0,-232.0
-9.0,-250.0,-45.0,-52.0,-68.0,-90.0,3.0,-965.0,-226.0
-7.0,-251.0,-48.0,-50.0,-69.0,-91.0,-1.0,-966.0,-228.0
-8.0,-252.0,-48.0,-49.0,-69.0,-94.0,-2.0,-967.0,-233.0
-8.0,-248.0,-48.0,-47.0,-70.0,-96.0,-2.0,-964.0,-233.0
-8.0,-250.0,-46.0,-49.0,-72.0,-94.0,-12.0,-961.0,-226.0
-11.0,-252.0,-49.0,-50.0,-73.0,-90.0,-13.0,-963.0,-224.0
-13.0,-250.0,-43.0,-54.0,-76.0,-89.0,-13.0,-964.0,-226.0
-7.0,-251.0,-46.0,-58.0,-78.0,-87.0,-13.0,-963.0,-222.0
-10.0,-251.0,-47.0,-61.0,-82.0,-85.0,-5.0,-959.0,-226.0
-9.0,-251.0,-46.0,-66.0,-87.0,-84.0,-12.0,-966.0,-224.0
-6.0,-253.0,-46.0,-68.0,-93.0,-83.0,-9.0,-969.0,-222.0
-6.0,-253.0,-48.0,-71.0,-99.0,-81.0,-3.0,-971.0,-222.0
-9.0,-251.0,-45.0,-71.0,-105.0,-80.0,-2.0,-970.0,-217.0
-10.0,-252.0,-43.0,-70.0,-110.0,-79.0,-1.0,-970.0,-216.0
-8.0,-253.0,-42.0,-68.0,-118.0,-76.0,2.0,-969.0,-216.0
-8.0,-252.0,-45.0,-66.0,-123.0,-76.0,-5.0,-965.0,-215.0
-9.0,-247.0,-43.0,-63.0,-128.0,-74.0,-6.0,-958.0,-213.0
-12.0,-249.0,-42.0,-60.0,-134.0,-72.0,-10.0,-956.0,-213.0
-10.0,-249.0,-42.0,-59.0,-140.0,-71.0,-10.0,-953.0,-216.0
-9.0,-249.0,-48.0,-59.0,-145.0,-66.0,-13.0,-955.0,-214.0
-10.0,-249.0,-46.0,-63.0,-150.0,-64.0,-15.0,-952.0,-217.0
-12.0,-248.0,-45.0,-67.0,-154.0,-61.0,-16.0,-947.0,-212.0
-14.0,-249.0,-46.0,-71.0,-160.0,-58.0,-18.0,-950.0,-217.0
-12.0,-248.0,-45.0,-75.0,-165.0,-54.0,-20.0,-955.0,-214.0
-12.0,-249.0,-43.0,-80.0,-170.0,-52.0,-18.0,-954.0,-221.0
-10.0,-248.0,-49.0,-82.0,-174.0,-51.0,-14.0,-958.0,-213.0
-14.0,-247.0,-43.0,-81.0,-178.0,-52.0,-13.0,-957.0,-212.0
-12.0,-250.0,-42.0,-81.0,-181.0,-51.0,-8.0,-960.0,-211.0
-8.0,-248.0,-42.0,-80.0,-185.0,-52.0,-10.0,-959.0,-213.0
-11.0,-247.0,-44.0,-80.0,-187.0,-54.0,-6.0,-957.0,-214.0
-8.0,-249.0,-42.0,-80.0,-188.0,-55.0,-3.0,-958.0,-212.0
-7.0,-250.0,-40.0,-80.0,-189.0,-56.0,4.0,-959.0,-215.0
-6.0,-249.0,-44.0,-82.0,-193.0,-58.0,3.0,-960.0,-215.0
-6.0,-248.0,-41.0,-83.0,-196.0,-64.0,0.0,-960.0,-211.0
-8.0,-248.0,-47.0,-84.0,-199.0,-67.0,6.0,-955.0,-205.0
-6.0,-249.0,-42.0,-83.0,-203.0,-71.0,8.0,-956.0,-210.0
-3.0,-247.0,-42.0,-82.0,-204.0,-73.0,10.0,-957.0,-210.0
-6.0,-252.0,-47.0,-81.0,-204.0,-76.0,14.0,-957.0,-211.0
-2.0,-248.0,-44.0,-79.0,-204.0,-77.0,11.0,-957.0,-213.0
-5.0,-248.0,-45.0,-78.0,-202.0,-80.0,9.0,-954.0,-215.0
-1.0,-251.0,-40.0,-80.0,-199.0,-83.0,14.0,-959.0,-213.0
-2.0,-248.0,-41.0,-81.0,-196.0,-86.0,16.0,-957.0,-215.0
0.0,-249.0,-44.0,-81.0,-195.0,-89.0,20.0,-958.0,-209.0
0.0,-249.0,-44.0,-80.0,-189.0,-92.0,25.0,-959.0,-211.0
0.0,-252.0,-45.0,-80.0,-183.0,-95.0,26.0,-957.0,-204.0
0.0,-249.0,-45.0,-82.0,-182.0,-99.0,21.0,-957.0,-204.0
1.0,-248.0,-40.0,-84.0,-177.0,-101.0,33.0,-958.0,-201.0
0.0,-248.0,-39.0,-87.0,-175.0,-103.0,33.0,-953.0,-204.0
1.0,-247.0,-43.0,-92.0,-169.0,-105.0,34.0,-953.0,-206.0
3.0,-248.0,-44.0,-97.0,-162.0,-108.0,32.0,-952.0,-209.0
1.0,-245.0,-45.0,-104.0,-160.0,-112.0,36.0,-947.0,-212.0
1.0,-248.0,-42.0,-110.0,-155.0,-111.0,42.0,-953.0,-208.0
1.0,-244.0,-47.0,-113.0,-151.0,-114.0,34.0,-942.0,-206.0
3.0,-248.0,-44.0,-116.0,-145.0,-111.0,37.0,-949.0,-208.0
0.0,-248.0,-42.0,-120.0,-139.0,-110.0,35.0,-940.0,-205.0
0.0,-244.0,-43.0,-122.0,-133.0,-110.0,35.0,-944.0,-205.0
2.0,-245.0,-44.0,-130.0,-128.0,-108.0,33.0,-929.0,-204.0
1.0,-243.0,-42.0,-136.0,-121.0,-106.0,32.0,-925.0,-201.0
0.0,-241.0,-39.0,-142.0,-115.0,-103.0,29.0,-918.0,-199.0
0.0,-235.0,-40.0,-148.0,-111.0,-97.0,29.0,-915.0,-199.0
0.0,-239.0,-42.0,-153.0,-108.0,-89.0,31.0,-911.0,-200.0
0.0,-236.0,-41.0,-158.0,-109.0,-82.0,20.0,-905.0,-197.0
-1.0,-235.0,-39.0,-167.0,-110.0,-74.0,18.0,-906.0,-195.0
-3.0,-236.0,-36.0,-179.0,-115.0,-67.0,13.0,-904.0,-194.0
-5.0,-238.0,-38.0,-191.0,-120.0,-61.0,15.0,-909.0,-191.0
-2.0,-240.0,-38.0,-202.0,-129.0,-53.0,8.0,-920.0,-190.0
-1.0,-243.0,-41.0,-210.0,-139.0,-49.0,6.0,-923.0,-192.0
-8.0,-242.0,-39.0,-219.0,-150.0,-39.0,-2.0,-931.0,-190.0
-12.0,-241.0,-36.0,-226.0,-163.0,-30.0,-16.0,-929.0,-190.0
-14.0,-241.0,-40.0,-235.0,-177.0,-20.0,-23.0,-930.0,-190.0
-15.0,-243.0,-38.0,-244.0,-192.0,-7.0,-32.0,-935.0,-192.0
-15.0,-243.0,-40.0,-249.0,-207.0,7.0,-33.0,-922.0,-197.0
-18.0,-241.0,-41.0,-253.0,-222.0,20.0,-34.0,-918.0,-196.0
-20.0,-231.0,-40.0,-258.0,-239.0,33.0,-39.0,-908.0,-196.0
-21.0,-236.0,-40.0,-264.0,-256.0,45.0,-37.0,-900.0,-194.0
-19.0,-234.0,-37.0,-269.0,-273.0,57.0,-42.0,-900.0,-194.0
-17.0,-229.0,-41.0,-275.0,-292.0,71.0,-35.0,-892.0,-197.0
-18.0,-230.0,-40.0,-283.0,-306.0,79.0,-37.0,-883.0,-193.0
-12.0,-229.0,-38.0,-289.0,-322.0,86.0,-27.0,-874.0,-189.0
-11.0,-226.0,-36.0,-299.0,-337.0,90.0,-21.0,-877.0,-193.0
-13.0,-222.0,-43.0,-310.0,-346.0,93.0,-18.0,-865.0,-202.0
-12.0,-223.0,-39.0,-323.0,-352.0,94.0,-16.0,-862.0,-193.0
-11.0,-225.0,-39.0,-338.0,-357.0,96.0,-5.0,-866.0,-196.0
-7.0,-225.0,-39.0,-354.0,-360.0,93.0,-6.0,-864.0,-198.0
-3.0,-226.0,-39.0,-371.0,-360.0,91.0,-5.0,-862.0,-200.0
-5.0,-220.0,-43.0,-390.0,-357.0,89.0,5.0,-858.0,-199.0
-6.0,-221.0,-42.0,-408.0,-353.0,86.0,8.0,-858.0,-194.0
-4.0,-221.0,-41.0,-426.0,-349.0,83.0,10.0,-850.0,-205.0
-5.0,-219.0,-43.0,-444.0,-346.0,79.0,10.0,-852.0,-204.0
-1.0,-219.0,-42.0,-460.0,-342.0,74.0,12.0,-844.0,-208.0
-1.0,-221.0,-43.0,-475.0,-340.0,70.0,19.0,-843.0,-212.0
-2.0,-216.0,-48.0,-490.0,-337.0,63.0,19.0,-837.0,-220.0
0.0,-216.0,-48.0,-508.0,-337.0,56.0,20.0,-834.0,-221.0
0.0,-215.0,-48.0,-528.0,-336.0,52.0,21.0,-832.0,-221.0
-1.0,-213.0,-44.0,-546.0,-332.0,48.0,29.0,-833.0,-222.0
1.0,-216.0,-49.0,-564.0,-329.0,43.0,33.0,-834.0,-222.0
1.0,-213.0,-50.0,-582.0,-321.0,40.0,40.0,-833.0,-224.0
4.0,-214.0,-51.0,-603.0,-314.0,38.0,45.0,-824.0,-224.0
5.0,-208.0,-51.0,-623.0,-305.0,37.0,51.0,-810.0,-239.0
7.0,-205.0,-52.0,-649.0,-295.0,36.0,58.0,-787.0,-254.0
8.0,-197.0,-57.0,-678.0,-287.0,37.0,60.0,-761.0,-272.0
9.0,-190.0,-64.0,-715.0,-278.0,36.0,70.0,-731.0,-298.0
13.0,-182.0,-62.0,-757.0,-267.0,34.0,84.0,-708.0,-318.0
16.0,-179.0,-79.0,-801.0,-254.0,32.0,91.0,-679.0,-342.0
20.0,-176.0,-84.0,-849.0,-234.0,30.0,105.0,-662.0,-368.0
24.0,-167.0,-89.0,-899.0,-209.0,28.0,113.0,-647.0,-393.0
27.0,-167.0,-100.0,-951.0,-178.0,30.0,130.0,-641.0,-428.0
34.0,-164.0,-103.0,-1006.0,-135.0,33.0,145.0,-639.0,-458.0
43.0,-170.0,-119.0,-1064.0,-83.0,33.0,168.0,-646.0,-494.0
46.0,-173.0,-127.0,-1127.0,-23.0,29.0,188.0,-666.0,-547.0
52.0,-183.0,-136.0,-1193.0,45.0,20.0,204.0,-694.0,-573.0
46.0,-195.0,-137.0,-1261.0,118.0,4.0,212.0,-740.0,-586.0
52.0,-212.0,-137.0,-1328.0,191.0,-16.0,215.0,-802.0,-595.0
49.0,-231.0,-137.0,-1387.0,263.0,-35.0,209.0,-869.0,-590.0
44.0,-247.0,-135.0,-1435.0,341.0,-55.0,204.0,-936.0,-586.0
41.0,-264.0,-132.0,-1471.0,420.0,-80.0,183.0,-1012.0,-578.0
36.0,-280.0,-128.0,-1493.0,505.0,-104.0,167.0,-1063.0,-561.0
30.0,-292.0,-125.0,-1495.0,592.0,-120.0,144.0,-1103.0,-553.0
22.0,-295.0,-130.0,-1491.0,671.0,-138.0,117.0,-1131.0,-559.0
17.0,-294.0,-126.0,-1488.0,736.0,-165.0,96.0,-1133.0,-548.0
10.0,-297.0,-124.0,-1481.0,786.0,-201.0,75.0,-1125.0,-535.0
6.0,-290.0,-112.0,-1453.0,823.0,-226.0,63.0,-1105.0,-509.0
5.0,-281.0,-110.0,-1404.0,853.0,-224.0,65.0,-1076.0,-486.0
-2.0,-274.0,-100.0,-1358.0,852.0,-239.0,34.0,-1056.0,-450.0
-6.0,-262.0,-97.0,-1323.0,823.0,-281.0,15.0,-1015.0,-428.0
-5.0,-248.0,-93.0,-1297.0,790.0,-308.0,10.0,-952.0,-418.0
-13.0,-233.0,-90.0,-1286.0,770.0,-316.0,-11.0,-901.0,-411.0
-11.0,-218.0,-94.0,-1289.0,743.0,-338.0,-22.0,-850.0,-431.0
-15.0,-211.0,-103.0,-1308.0,716.0,-377.0,-38.0,-804.0,-450.0
-18.0,-209.0,-103.0,-1330.0,702.0,-405.0,-53.0,-809.0,-458.0
-14.0,-213.0,-112.0,-1338.0,705.0,-401.0,-32.0,-831.0,-495.0
-16.0,-221.0,-121.0,-1363.0,700.0,-396.0,-32.0,-855.0,-533.0
-17.0,-230.0,-129.0,-1421.0,682.0,-395.0,-42.0,-888.0,-572.0
-15.0,-240.0,-144.0,-1507.0,655.0,-389.0,-34.0,-934.0,-602.0
-15.0,-253.0,-147.0,-1617.0,623.0,-379.0,-27.0,-992.0,-627.0
-13.0,-268.0,-147.0,-1738.0,590.0,-371.0,-17.0,-1056.0,-640.0
-11.0,-289.0,-150.0,-1858.0,545.0,-361.0,-4.0,-1128.0,-647.0
-9.0,-307.0,-149.0,-1968.0,480.0,-359.0,10.0,-1178.0,-637.0
-5.0,-319.0,-146.0,-2045.0,398.0,-362.0,19.0,-1220.0,-625.0
-12.0,-327.0,-140.0,-2066.0,298.0,-370.0,2.0,-1244.0,-611.0
-17.0,-328.0,-137.0,-2020.0,185.0,-369.0,-7.0,-1259.0,-592.0
-15.0,-329.0,-135.0,-1907.0,74.0,-354.0,-12.0,-1245.0,-596.0
-21.0,-326.0,-132.0,-1745.0,-2.0,-327.0,-36.0,-1213.0,-576.0
-24.0,-312.0,-131.0,-1528.0,-69.0,-289.0,-43.0,-1170.0,-585.0
-19.0,-295.0,-137.0,-1301.0,-126.0,-245.0,-41.0,-1124.0,-595.0
-18.0,-270.0,-155.0,-1088.0,-164.0,-201.0,-60.0,-1050.0,-636.0
-23.0,-252.0,-155.0,-925.0,-187.0,-154.0,-58.0,-972.0,-681.0
-19.0,-232.0,-160.0,-834.0,-186.0,-103.0,-54.0,-905.0,-705.0
-24.0,-218.0,-166.0,-810.0,-171.0,-67.0,-67.0,-852.0,-714.0
-16.0,-209.0,-170.0,-847.0,-152.0,-52.0,-43.0,-812.0,-707.0
-19.0,-198.0,-163.0,-922.0,-121.0,-53.0,-58.0,-780.0,-712.0
-14.0,-193.0,-169.0,-1025.0,-88.0,-57.0,-47.0,-749.0,-723.0
-15.0,-189.0,-168.0,-1156.0,-53.0,-70.0,-53.0,-739.0,-731.0
-15.0,-192.0,-168.0,-1278.0,-21.0,-84.0,-42.0,-752.0,-733.0
-14.0,-209.0,-168.0,-1354.0,10.0,-96.0,-35.0,-789.0,-714.0
-7.0,-222.0,-166.0,-1346.0,24.0,-111.0,-2.0,-830.0,-721.0
5.0,-235.0,-178.0,-1264.0,17.0,-125.0,43.0,-870.0,-763.0
24.0,-238.0,-200.0,-1150.0,-1.0,-153.0,110.0,-887.0,-844.0
27.0,-231.0,-223.0,-1058.0,-22.0,-205.0,144.0,-878.0,-922.0
42.0,-231.0,-241.0,-1013.0,-36.0,-247.0,179.0,-871.0,-1018.0
51.0,-232.0,-262.0,-1016.0,-24.0,-263.0,222.0,-886.0,-1103.0
58.0,-232.0,-275.0,-1063.0,2.0,-273.0,245.0,-888.0,-1153.0
57.0,-228.0,-286.0,-1143.0,29.0,-283.0,247.0,-874.0,-1194.0
56.0,-224.0,-281.0,-1232.0,56.0,-287.0,240.0,-864.0,-1200.0
55.0,-227.0,-280.0,-1309.0,89.0,-284.0,238.0,-855.0,-1187.0
54.0,-230.0,-276.0,-1355.0,124.0,-279.0,230.0,-841.0,-1173.0
48.0,-217.0,-272.0,-1372.0,165.0,-266.0,219.0,-823.0,-1143.0
44.0,-214.0,-261.0,-1362.0,196.0,-257.0,191.0,-806.0,-1108.0
34.0,-213.0,-254.0,-1327.0,210.0,-252.0,166.0,-800.0,-1082.0
28.0,-211.0,-249.0,-1277.0,207.0,-255.0,144.0,-795.0,-1072.0
19.0,-209.0,-247.0,-1222.0,180.0,-267.0,121.0,-789.0,-1060.0
16.0,-207.0,-245.0,-1173.0,138.0,-289.0,100.0,-775.0,-1060.0
15.0,-197.0,-247.0,-1132.0,91.0,-308.0,90.0,-752.0,-1060.0
14.0,-192.0,-245.0,-1109.0,48.0,-323.0,91.0,-724.0,-1048.0
15.0,-187.0,-248.0,-1099.0,9.0,-331.0,94.0,-710.0,-1048.0
21.0,-182.0,-242.0,-1099.0,-22.0,-333.0,97.0,-689.0,-1036.0
19.0,-180.0,-239.0,-1102.0,-45.0,-327.0,103.0,-670.0,-1021.0
18.0,-173.0,-239.0,-1105.0,-61.0,-317.0,106.0,-653.0,-1004.0
23.0,-172.0,-230.0,-1102.0,-73.0,-303.0,107.0,-647.0,-984.0
21.0,-169.0,-226.0,-1095.0,-81.0,-286.0,111.0,-635.0,-975.0
17.0,-165.0,-222.0,-1084.0,-86.0,-277.0,93.0,-632.0,-947.0
18.0,-169.0,-215.0,-1074.0,-97.0,-276.0,91.0,-634.0,-929.0
11.0,-168.0,-210.0,-1063.0,-111.0,-285.0,76.0,-634.0,-906.0
11.0,-168.0,-206.0,-1054.0,-125.0,-299.0,72.0,-629.0,-881.0
8.0,-165.0,-201.0,-1050.0,-139.0,-313.0,55.0,-633.0,-860.0
4.0,-165.0,-197.0,-1051.0,-151.0,-325.0,50.0,-634.0,-836.0
9.0,-164.0,-193.0,-1054.0,-162.0,-337.0,53.0,-620.0,-817.0
10.0,-161.0,-188.0,-1061.0,-170.0,-348.0,57.0,-609.0,-807.0
14.0,-158.0,-185.0,-1065.0,-172.0,-357.0,65.0,-597.0,-792.0
18.0,-153.0,-184.0,-1066.0,-169.0,-364.0,88.0,-581.0,-788.0
22.0,-151.0,-178.0,-1061.0,-161.0,-368.0,106.0,-552.0,-778.0
27.0,-139.0,-181.0,-1050.0,-150.0,-373.0,131.0,-537.0,-777.0
35.0,-137.0,-185.0,-1033.0,-135.0,-372.0,146.0,-509.0,-781.0
37.0,-131.0,-180.0,-1018.0,-116.0,-370.0,165.0,-488.0,-775.0
44.0,-124.0,-179.0,-1008.0,-90.0,-371.0,181.0,-456.0,-776.0
43.0,-119.0,-178.0,-1003.0,-62.0,-375.0,191.0,-438.0,-779.0
44.0,-117.0,-179.0,-1008.0,-35.0,-384.0,194.0,-426.0,-769.0
46.0,-116.0,-179.0,-1021.0,-10.0,-395.0,196.0,-427.0,-776.0
46.0,-117.0,-180.0,-1037.0,8.0,-410.0,188.0,-430.0,-775.0
43.0,-119.0,-179.0,-1052.0,20.0,-422.0,188.0,-437.0,-777.0
40.0,-120.0,-185.0,-1069.0,30.0,-430.0,175.0,-450.0,-785.0
38.0,-124.0,-185.0,-1086.0,33.0,-439.0,171.0,-458.0,-795.0
37.0,-127.0,-188.0,-1104.0,32.0,-449.0,167.0,-477.0,-804.0
33.0,-131.0,-187.0,-1120.0,27.0,-453.0,156.0,-491.0,-803.0
35.0,-137.0,-188.0,-1128.0,18.0,-453.0,150.0,-508.0,-812.0
28.0,-138.0,-191.0,-1127.0,6.0,-449.0,140.0,-518.0,-817.0
29.0,-141.0,-196.0,-1119.0,-4.0,-435.0,131.0,-518.0,-825.0
26.0,-141.0,-192.0,-1107.0,-12.0,-417.0,133.0,-511.0,-830.0
27.0,-142.0,-192.0,-1089.0,-21.0,-395.0,122.0,-518.0,-815.0
19.0,-134.0,-190.0,-1060.0,-38.0,-367.0,115.0,-508.0,-810.0
25.0,-137.0,-186.0,-1026.0,-61.0,-337.0,115.0,-505.0,-805.0
22.0,-130.0,-190.0,-996.0,-75.0,-306.0,111.0,-496.0,-801.0
24.0,-129.0,-186.0,-978.0,-83.0,-274.0,122.0,-479.0,-795.0
25.0,-125.0,-182.0,-969.0,-87.0,-243.0,116.0,-472.0,-784.0
27.0,-125.0,-178.0,-962.0,-87.0,-215.0,121.0,-462.0,-772.0
29.0,-122.0,-181.0,-962.0,-83.0,-188.0,129.0,-454.0,-770.0
28.0,-119.0,-177.0,-963.0,-77.0,-165.0,137.0,-456.0,-764.0
36.0,-120.0,-183.0,-964.0,-70.0,-145.0,147.0,-450.0,-775.0
35.0,-121.0,-185.0,-969.0,-63.0,-135.0,159.0,-452.0,-783.0
35.0,-123.0,-181.0,-969.0,-57.0,-126.0,163.0,-456.0,-786.0
37.0,-123.0,-185.0,-961.0,-54.0,-117.0,167.0,-460.0,-786.0
37.0,-124.0,-188.0,-949.0,-53.0,-108.0,166.0,-463.0,-801.0
38.0,-125.0,-189.0,-938.0,-50.0,-98.0,173.0,-462.0,-804.0
35.0,-122.0,-191.0,-927.0,-44.0,-87.0,160.0,-463.0,-805.0
32.0,-125.0,-191.0,-915.0,-39.0,-72.0,155.0,-463.0,-804.0
35.0,-122.0,-192.0,-903.0,-33.0,-58.0,149.0,-455.0,-811.0
33.0,-120.0,-191.0,-897.0,-25.0,-45.0,145.0,-446.0,-814.0
33.0,-118.0,-194.0,-899.0,-18.0,-29.0,139.0,-436.0,-820.0
32.0,-117.0,-192.0,-912.0,-11.0,-20.0,140.0,-430.0,-833.0
28.0,-116.0,-198.0,-928.0,-1.0,-9.0,139.0,-423.0,-840.0
34.0,-115.0,-201.0,-949.0,12.0,2.0,136.0,-409.0,-852.0
35.0,-109.0,-201.0,-977.0,24.0,8.0,149.0,-407.0,-854.0
36.0,-109.0,-200.0,-1009.0,43.0,4.0,152.0,-393.0,-863.0
35.0,-105.0,-204.0,-1037.0,65.0,-5.0,158.0,-391.0,-857.0
34.0,-105.0,-199.0,-1061.0,80.0,-20.0,158.0,-385.0,-856.0
46.0,-105.0,-204.0,-1076.0,91.0,-39.0,181.0,-391.0,-874.0
46.0,-106.0,-211.0,-1098.0,115.0,-64.0,197.0,-382.0,-891.0
48.0,-102.0,-211.0,-1121.0,143.0,-90.0,213.0,-375.0,-895.0
52.0,-102.0,-203.0,-1133.0,170.0,-119.0,204.0,-373.0,-873.0
49.0,-104.0,-202.0,-1129.0,173.0,-144.0,212.0,-367.0,-866.0
50.0,-100.0,-206.0,-1109.0,164.0,-170.0,222.0,-361.0,-871.0
53.0,-102.0,-205.0,-1082.0,166.0,-196.0,231.0,-363.0,-873.0
59.0,-98.0,-207.0,-1049.0,177.0,-221.0,244.0,-354.0,-878.0
61.0,-99.0,-205.0,-1019.0,190.0,-242.0,246.0,-350.0,-870.0
54.0,-95.0,-205.0,-990.0,206.0,-260.0,236.0,-340.0,-865.0
58.0,-90.0,-204.0,-959.0,203.0,-275.0,240.0,-331.0,-871.0
56.0,-92.0,-201.0,-933.0,195.0,-290.0,238.0,-323.0,-862.0
56.0,-87.0,-206.0,-910.0,185.0,-304.0,239.0,-313.0,-869.0
47.0,-85.0,-201.0,-888.0,171.0,-315.0,210.0,-314.0,-843.0
50.0,-81.0,-201.0,-866.0,143.0,-322.0,197.0,-308.0,-848.0
32.0,-84.0,-196.0,-845.0,103.0,-324.0,161.0,-304.0,-823.0
37.0,-79.0,-196.0,-829.0,58.0,-319.0,148.0,-293.0,-834.0
20.0,-78.0,-184.0,-841.0,23.0,-309.0,115.0,-287.0,-809.0
21.0,-75.0,-183.0,-865.0,-39.0,-289.0,102.0,-275.0,-804.0
10.0,-71.0,-182.0,-925.0,-115.0,-273.0,82.0,-283.0,-777.0
2.0,-79.0,-165.0,-994.0,-222.0,-256.0,52.0,-279.0,-739.0
5.0,-72.0,-174.0,-1033.0,-376.0,-245.0,65.0,-276.0,-753.0
-2.0,-71.0,-167.0,-1095.0,-507.0,-239.0,31.0,-273.0,-703.0
-6.0,-70.0,-155.0,-1152.0,-642.0,-224.0,0.0,-245.0,-691.0
-9.0,-66.0,-165.0,-1189.0,-789.0,-205.0,2.0,-237.0,-692.0
-4.0,-62.0,-159.0,-1210.0,-916.0,-182.0,4.0,-225.0,-688.0
-2.0,-60.0,-160.0,-1229.0,-1013.0,-157.0,11.0,-213.0,-691.0
0.0,-59.0,-156.0,-1246.0,-1093.0,-130.0,15.0,-205.0,-679.0
0.0,-63.0,-157.0,-1233.0,-1191.0,-111.0,27.0,-222.0,-671.0
3.0,-69.0,-160.0,-1182.0,-1307.0,-98.0,34.0,-229.0,-692.0
12.0,-71.0,-174.0,-1092.0,-1428.0,-86.0,78.0,-233.0,-750.0
9.0,-73.0,-186.0,-989.0,-1533.0,-87.0,75.0,-243.0,-777.0
15.0,-77.0,-195.0,-868.0,-1635.0,-98.0,84.0,-248.0,-808.0
14.0,-73.0,-209.0,-747.0,-1730.0,-122.0,76.0,-248.0,-905.0
4.0,-73.0,-222.0,-658.0,-1784.0,-160.0,38.0,-236.0,-952.0
-1.0,-69.0,-233.0,-602.0,-1787.0,-205.0,-16.0,-237.0,-980.0
-16.0,-65.0,-233.0,-556.0,-1752.0,-250.0,-67.0,-234.0,-991.0
-24.0,-77.0,-227.0,-519.0,-1691.0,-288.0,-102.0,-237.0,-976.0
-33.0,-70.0,-214.0,-487.0,-1622.0,-324.0,-143.0,-244.0,-935.0
-46.0,-65.0,-216.0,-435.0,-1563.0,-357.0,-170.0,-237.0,-924.0
-54.0,-64.0,-209.0,-368.0,-1521.0,-367.0,-195.0,-223.0,-904.0
-52.0,-58.0,-210.0,-268.0,-1510.0,-355.0,-193.0,-203.0,-901.0
-60.0,-64.0,-204.0,-156.0,-1523.0,-332.0,-212.0,-214.0,-862.0
-65.0,-57.0,-200.0,-36.0,-1576.0,-330.0,-224.0,-197.0,-862.0
-66.0,-47.0,-203.0,74.0,-1667.0,-344.0,-234.0,-142.0,-871.0
-67.0,-31.0,-205.0,159.0,-1790.0,-357.0,-232.0,-89.0,-870.0
-70.0,-13.0,-210.0,204.0,-1951.0,-365.0,-249.0,-25.0,-885.0
-75.0,10.0,-212.0,203.0,-2133.0,-369.0,-268.0,46.0,-913.0
-81.0,22.0,-221.0,163.0,-2311.0,-374.0,-307.0,97.0,-925.0
-90.0,33.0,-218.0,97.0,-2472.0,-387.0,-347.0,148.0,-932.0
-103.0,50.0,-216.0,14.0,-2612.0,-408.0,-391.0,190.0,-922.0
-116.0,64.0,-208.0,-84.0,-2731.0,-424.0,-438.0,237.0,-894.0
-127.0,69.0,-204.0,-192.0,-2825.0,-438.0,-477.0,260.0,-858.0
-134.0,71.0,-198.0,-298.0,-2896.0,-449.0,-517.0,280.0,-830.0
-139.0,70.0,-191.0,-392.0,-2954.0,-452.0,-537.0,274.0,-803.0
-138.0,60.0,-190.0,-460.0,-3010.0,-438.0,-550.0,256.0,-800.0
-145.0,49.0,-191.0,-481.0,-3068.0,-416.0,-552.0,210.0,-807.0
-140.0,35.0,-197.0,-449.0,-3133.0,-386.0,-551.0,171.0,-820.0
-141.0,32.0,-200.0,-381.0,-3213.0,-355.0,-537.0,133.0,-836.0
-133.0,11.0,-196.0,-302.0,-3310.0,-328.0,-523.0,107.0,-848.0
-132.0,17.0,-202.0,-228.0,-3422.0,-312.0,-512.0,87.0,-847.0
-135.0,17.0,-196.0,-169.0,-3547.0,-311.0,-513.0,84.0,-835.0
-137.0,20.0,-196.0,-123.0,-3682.0,-324.0,-517.0,93.0,-833.0
-141.0,28.0,-201.0,-90.0,-3829.0,-340.0,-533.0,120.0,-838.0
-140.0,39.0,-206.0,-78.0,-3982.0,-349.0,-542.0,153.0,-846.0
-138.0,51.0,-207.0,-92.0,-4127.0,-347.0,-542.0,193.0,-864.0
-140.0,56.0,-209.0,-133.0,-4263.0,-330.0,-535.0,209.0,-879.0
-133.0,54.0,-212.0,-193.0,-4384.0,-304.0,-515.0,218.0,-889.0
-126.0,53.0,-213.0,-248.0,-4479.0,-277.0,-494.0,213.0,-889.0
-125.0,50.0,-211.0,-279.0,-4565.0,-252.0,-480.0,202.0,-884.0
-120.0,42.0,-211.0,-271.0,-4637.0,-228.0,-465.0,185.0,-892.0
-119.0,36.0,-215.0,-234.0,-4694.0,-208.0,-459.0,165.0,-897.0
-124.0,28.0,-210.0,-174.0,-4742.0,-202.0,-473.0,150.0,-887.0
-127.0,23.0,-208.0,-86.0,-4792.0,-194.0,-490.0,125.0,-869.0
-134.0,25.0,-206.0,21.0,-4850.0,-178.0,-516.0,118.0,-855.0
-143.0,25.0,-204.0,122.0,-4922.0,-160.0,-543.0,116.0,-848.0
-159.0,26.0,-204.0,196.0,-5017.0,-155.0,-623.0,119.0,-864.0
-180.0,25.0,-214.0,234.0,-5124.0,-167.0,-708.0,112.0,-888.0
-199.0,23.0,-220.0,231.0,-5228.0,-176.0,-789.0,108.0,-921.0
-231.0,35.0,-221.0,212.0,-5314.0,-167.0,-909.0,143.0,-937.0
-255.0,34.0,-224.0,187.0,-5388.0,-131.0,-1000.0,155.0,-954.0
-287.0,43.0,-223.0,191.0,-5441.0,-79.0,-1137.0,193.0,-927.0
-336.0,83.0,-243.0,256.0,-5503.0,-7.0,-1332.0,307.0,-976.0
-395.0,132.0,-296.0,206.0,-5475.0,144.0,-1581.0,449.0,-1174.0
-464.0,179.0,-330.0,-25.0,-5329.0,386.0,-1838.0,620.0,-1339.0
-530.0,187.0,-348.0,-317.0,-5168.0,654.0,-2126.0,665.0,-1422.0
-595.0,155.0,-424.0,-487.0,-4968.0,893.0,-2314.0,610.0,-1722.0
-591.0,136.0,-463.0,-567.0,-4640.0,1125.0,-2420.0,480.0,-1900.0
-634.0,111.0,-482.0,-629.0,-4249.0,1354.0,-2475.0,410.0,-2023.0
-674.0,99.0,-490.0,-645.0,-3976.0,1435.0,-2690.0,384.0,-2044.0
-694.0,119.0,-444.0,-566.0,-3878.0,1530.0,-2760.0,458.0,-1876.0
-672.0,155.0,-409.0,-430.0,-3859.0,1646.0,-2700.0,547.0,-1736.0
-652.0,210.0,-350.0,-399.0,-3780.0,1719.0,-2643.0,744.0,-1498.0
-679.0,259.0,-284.0,-477.0,-3695.0,1766.0,-2645.0,937.0,-1219.0
-654.0,258.0,-243.0,-532.0,-3631.0,1812.0,-2640.0,998.0,-1060.0
-639.0,236.0,-220.0,-509.0,-3562.0,1698.0,-2554.0,931.0,-945.0
-638.0,190.0,-216.0,-382.0,-3451.0,1457.0,-2617.0,779.0,-905.0
-635.0,136.0,-204.0,-198.0,-3306.0,1206.0,-2540.0,501.0,-847.0
-608.0,94.0,-165.0,-25.0,-3128.0,1007.0,-2453.0,360.0,-718.0
-546.0,69.0,-125.0,90.0,-2912.0,895.0,-2195.0,243.0,-551.0
-468.0,57.0,-76.0,153.0,-2639.0,792.0,-1917.0,192.0,-358.0
-392.0,41.0,-34.0,163.0,-2344.0,678.0,-1612.0,157.0,-166.0
-330.0,60.0,14.0,106.0,-2067.0,503.0,-1364.0,186.0,22.0
-265.0,78.0,45.0,-53.0,-1855.0,298.0,-1094.0,251.0,146.0
-182.0,97.0,75.0,-317.0,-1692.0,114.0,-791.0,314.0,262.0
-111.0,106.0,106.0,-626.0,-1580.0,-44.0,-479.0,379.0,383.0
-47.0,109.0,128.0,-888.0,-1547.0,-184.0,-211.0,416.0,478.0
11.0,97.0,136.0,-1025.0,-1595.0,-318.0,19.0,412.0,530.0
58.0,78.0,139.0,-997.0,-1667.0,-447.0,242.0,350.0,509.0
88.0,57.0,116.0,-826.0,-1706.0,-561.0,351.0,272.0,434.0
115.0,35.0,84.0,-585.0,-1677.0,-645.0,423.0,185.0,309.0
114.0,17.0,49.0,-348.0,-1550.0,-692.0,416.0,113.0,161.0
85.0,12.0,20.0,-165.0,-1327.0,-686.0,307.0,81.0,65.0
46.0,13.0,16.0,-47.0,-1053.0,-601.0,158.0,74.0,37.0
2.0,19.0,16.0,24.0,-792.0,-442.0,-15.0,80.0,38.0
-46.0,30.0,24.0,59.0,-580.0,-248.0,-185.0,103.0,62.0
-95.0,37.0,36.0,52.0,-442.0,-48.0,-361.0,137.0,107.0
-137.0,47.0,47.0,-2.0,-388.0,147.0,-525.0,161.0,163.0
-172.0,50.0,67.0,-100.0,-410.0,325.0,-659.0,172.0,245.0
-199.0,50.0,85.0,-229.0,-496.0,466.0,-774.0,162.0,309.0
-218.0,43.0,101.0,-368.0,-628.0,552.0,-839.0,137.0,369.0
-228.0,28.0,110.0,-498.0,-785.0,567.0,-877.0,88.0,417.0
-233.0,12.0,119.0,-602.0,-950.0,519.0,-885.0,37.0,448.0
-222.0,-5.0,127.0,-661.0,-1098.0,412.0,-862.0,-14.0,469.0
-204.0,-18.0,130.0,-667.0,-1216.0,262.0,-830.0,-56.0,483.0
-192.0,-33.0,121.0,-613.0,-1304.0,92.0,-759.0,-104.0,478.0
-180.0,-36.0,123.0,-508.0,-1372.0,-77.0,-712.0,-120.0,462.0
-177.0,-32.0,118.0,-374.0,-1432.0,-214.0,-688.0,-124.0,448.0
-173.0,-31.0,108.0,-236.0,-1494.0,-291.0,-687.0,-120.0,424.0
-150.0,-29.0,108.0,-118.0,-1561.0,-309.0,-576.0,-117.0,398.0
-130.0,-23.0,99.0,-30.0,-1606.0,-283.0,-507.0,-92.0,366.0
-125.0,-16.0,96.0,27.0,-1614.0,-221.0,-487.0,-56.0,354.0
-127.0,-4.0,93.0,59.0,-1598.0,-125.0,-504.0,-31.0,349.0
-133.0,3.0,94.0,73.0,-1562.0,-7.0,-519.0,5.0,355.0
-133.0,5.0,98.0,77.0,-1514.0,108.0,-535.0,20.0,349.0
-138.0,10.0,102.0,73.0,-1465.0,190.0,-541.0,20.0,367.0
-145.0,9.0,103.0,60.0,-1419.0,227.0,-558.0,30.0,398.0
-153.0,9.0,113.0,44.0,-1381.0,231.0,-602.0,31.0,418.0
-166.0,12.0,118.0,30.0,-1350.0,206.0,-651.0,39.0,447.0
-176.0,14.0,127.0,20.0,-1317.0,164.0,-700.0,52.0,480.0
-191.0,18.0,129.0,15.0,-1279.0,110.0,-763.0,71.0,496.0
-209.0,21.0,135.0,18.0,-1232.0,42.0,-827.0,77.0,514.0
-226.0,25.0,138.0,29.0,-1174.0,-35.0,-902.0,88.0,523.0
-250.0,34.0,136.0,50.0,-1112.0,-108.0,-980.0,97.0,529.0
-270.0,30.0,142.0,82.0,-1045.0,-165.0,-1077.0,109.0,537.0
-293.0,32.0,138.0,122.0,-979.0,-208.0,-1166.0,112.0,529.0
-312.0,32.0,137.0,168.0,-907.0,-232.0,-1236.0,116.0,511.0
-323.0,33.0,125.0,215.0,-833.0,-240.0,-1288.0,110.0,481.0
-324.0,27.0,119.0,261.0,-757.0,-249.0,-1295.0,85.0,452.0
-329.0,13.0,112.0,321.0,-683.0,-270.0,-1300.0,54.0,426.0
-328.0,8.0,108.0,397.0,-617.0,-294.0,-1288.0,8.0,400.0
-318.0,-3.0,104.0,500.0,-574.0,-316.0,-1239.0,-25.0,374.0
-300.0,1.0,89.0,603.0,-548.0,-335.0,-1171.0,-20.0,337.0
-274.0,7.0,84.0,658.0,-527.0,-346.0,-1075.0,-7.0,302.0
-254.0,6.0,80.0,659.0,-512.0,-354.0,-993.0,13.0,304.0
-243.0,20.0,88.0,622.0,-493.0,-375.0,-949.0,57.0,310.0
-244.0,36.0,86.0,560.0,-473.0,-409.0,-957.0,131.0,312.0
-250.0,49.0,98.0,513.0,-438.0,-403.0,-982.0,167.0,354.0
-247.0,45.0,100.0,493.0,-407.0,-366.0,-984.0,175.0,374.0
-261.0,47.0,108.0,482.0,-378.0,-344.0,-1041.0,180.0,386.0
-279.0,49.0,112.0,489.0,-321.0,-338.0,-1095.0,179.0,409.0
-295.0,49.0,110.0,502.0,-262.0,-326.0,-1168.0,171.0,409.0
-301.0,46.0,105.0,493.0,-214.0,-297.0,-1183.0,160.0,398.0
-300.0,42.0,100.0,460.0,-165.0,-260.0,-1194.0,139.0,369.0
-301.0,38.0,96.0,423.0,-117.0,-219.0,-1192.0,128.0,353.0
-287.0,32.0,90.0,395.0,-62.0,-181.0,-1148.0,95.0,338.0
-261.0,20.0,91.0,373.0,-11.0,-143.0,-1056.0,73.0,327.0
-242.0,16.0,95.0,359.0,42.0,-116.0,-970.0,54.0,345.0
-213.0,9.0,100.0,348.0,89.0,-101.0,-870.0,37.0,356.0
-196.0,12.0,101.0,335.0,138.0,-107.0,-791.0,26.0,367.0
-191.0,13.0,107.0,327.0,196.0,-116.0,-761.0,43.0,404.0
-179.0,8.0,115.0,327.0,246.0,-118.0,-715.0,25.0,437.0
-187.0,19.0,117.0,340.0,302.0,-142.0,-730.0,65.0,446.0
-184.0,25.0,121.0,368.0,358.0,-139.0,-733.0,89.0,455.0
-183.0,27.0,124.0,396.0,408.0,-117.0,-727.0,100.0,465.0
-184.0,28.0,120.0,422.0,457.0,-121.0,-730.0,112.0,453.0
-190.0,34.0,117.0,448.0,500.0,-139.0,-747.0,131.0,437.0
-188.0,39.0,110.0,460.0,542.0,-150.0,-752.0,153.0,418.0
-190.0,46.0,106.0,455.0,582.0,-153.0,-742.0,161.0,395.0
-188.0,48.0,101.0,433.0,618.0,-154.0,-747.0,164.0,379.0
-186.0,46.0,97.0,400.0,646.0,-157.0,-740.0,170.0,362.0
-188.0,50.0,96.0,357.0,663.0,-159.0,-740.0,172.0,339.0
-188.0,41.0,93.0,308.0,675.0,-161.0,-743.0,161.0,338.0
-188.0,41.0,89.0,265.0,682.0,-164.0,-743.0,146.0,331.0
-190.0,35.0,90.0,233.0,691.0,-172.0,-748.0,129.0,324.0
-190.0,30.0,85.0,206.0,705.0,-181.0,-753.0,116.0,313.0
-186.0,31.0,81.0,188.0,722.0,-185.0,-772.0,103.0,309.0
-196.0,27.0,82.0,173.0,742.0,-190.0,-784.0,89.0,292.0
-202.0,23.0,78.0,157.0,760.0,-196.0,-801.0,84.0,277.0
-206.0,19.0,77.0,137.0,774.0,-199.0,-822.0,74.0,259.0
-213.0,21.0,68.0,111.0,779.0,-202.0,-840.0,69.0,238.0
-221.0,22.0,58.0,78.0,780.0,-202.0,-871.0,76.0,215.0
-229.0,22.0,54.0,35.0,777.0,-197.0,-900.0,80.0,196.0
-239.0,26.0,52.0,-14.0,774.0,-189.0,-932.0,88.0,179.0
-243.0,31.0,48.0,-67.0,773.0,-174.0,-949.0,91.0,167.0
-249.0,28.0,50.0,-119.0,776.0,-157.0,-979.0,93.0,166.0
-252.0,23.0,51.0,-163.0,777.0,-141.0,-988.0,87.0,163.0
-257.0,22.0,43.0,-198.0,780.0,-131.0,-1024.0,84.0,160.0
-271.0,25.0,47.0,-227.0,778.0,-119.0,-1057.0,87.0,166.0
-267.0,27.0,45.0,-241.0,760.0,-104.0,-1060.0,88.0,158.0
-268.0,24.0,40.0,-257.0,748.0,-92.0,-1074.0,89.0,139.0
-280.0,25.0,42.0,-282.0,739.0,-85.0,-1091.0,89.0,137.0
-279.0,28.0,39.0,-301.0,721.0,-79.0,-1110.0,91.0,139.0
-287.0,29.0,40.0,-322.0,699.0,-73.0,-1123.0,98.0,134.0
-289.0,28.0,43.0,-342.0,675.0,-61.0,-1135.0,97.0,131.0
-287.0,25.0,37.0,-352.0,649.0,-50.0,-1125.0,86.0,117.0
-288.0,24.0,32.0,-361.0,635.0,-45.0,-1131.0,80.0,109.0
-288.0,20.0,35.0,-358.0,626.0,-45.0,-1136.0,75.0,103.0
-286.0,23.0,26.0,-352.0,615.0,-42.0,-1121.0,69.0,82.0
-281.0,20.0,30.0,-360.0,612.0,-33.0,-1120.0,71.0,89.0
-283.0,17.0,29.0,-372.0,606.0,-20.0,-1119.0,63.0,86.0
-279.0,14.0,24.0,-387.0,596.0,-3.0,-1100.0,53.0,79.0
-274.0,10.0,25.0,-397.0,587.0,9.0,-1089.0,43.0,73.0
-269.0,8.0,21.0,-402.0,583.0,16.0,-1074.0,29.0,51.0
-263.0,7.0,18.0,-400.0,582.0,18.0,-1046.0,13.0,38.0
-258.0,0.0,10.0,-395.0,591.0,21.0,-1025.0,4.0,16.0
-254.0,0.0,6.0,-386.0,602.0,20.0,-990.0,-6.0,12.0
-252.0,0.0,7.0,-373.0,610.0,17.0,-983.0,-20.0,2.0
-250.0,-7.0,3.0,-365.0,611.0,11.0,-971.0,-29.0,-1.0
-247.0,-3.0,5.0,-361.0,606.0,4.0,-964.0,-32.0,-4.0
-248.0,-6.0,6.0,-360.0,598.0,-8.0,-958.0,-37.0,2.0
-247.0,-7.0,7.0,-357.0,590.0,-22.0,-968.0,-39.0,5.0
-247.0,-7.0,10.0,-351.0,590.0,-36.0,-955.0,-32.0,9.0
-251.0,-5.0,8.0,-343.0,595.0,-51.0,-975.0,-33.0,19.0
-253.0,-2.0,11.0,-329.0,604.0,-58.0,-985.0,-33.0,28.0
-255.0,-6.0,16.0,-309.0,611.0,-55.0,-1002.0,-31.0,30.0
-256.0,-5.0,13.0,-283.0,618.0,-43.0,-1008.0,-28.0,34.0
-257.0,-6.0,14.0,-250.0,624.0,-25.0,-1019.0,-30.0,37.0
-257.0,-6.0,13.0,-211.0,628.0,-7.0,-1025.0,-29.0,32.0
-256.0,-8.0,15.0,-176.0,635.0,10.0,-1022.0,-32.0,28.0
-256.0,-9.0,4.0,-142.0,643.0,23.0,-1023.0,-28.0,24.0
-257.0,-4.0,12.0,-111.0,652.0,33.0,-1012.0,-30.0,27.0
-259.0,-6.0,13.0,-83.0,657.0,40.0,-1025.0,-26.0,21.0
-261.0,-2.0,14.0,-60.0,663.0,48.0,-1033.0,-20.0,24.0
-258.0,-3.0,8.0,-42.0,664.0,55.0,-1038.0,-12.0,16.0
-262.0,-7.0,9.0,-30.0,658.0,58.0,-1035.0,-12.0,13.0
-261.0,-1.0,11.0,-22.0,652.0,52.0,-1040.0,-18.0,13.0
-262.0,0.0,10.0,-17.0,637.0,49.0,-1047.0,-15.0,5.0
-264.0,-1.0,7.0,-17.0,620.0,44.0,-1046.0,-15.0,9.0
-265.0,0.0,3.0,-18.0,599.0,38.0,-1044.0,-6.0,-7.0
-265.0,2.0,5.0,-26.0,578.0,28.0,-1048.0,-5.0,-4.0
-266.0,2.0,8.0,-34.0,558.0,19.0,-1051.0,-1.0,-12.0
-266.0,3.0,0.0,-41.0,537.0,11.0,-1057.0,2.0,-15.0
-268.0,4.0,1.0,-52.0,515.0,4.0,-1054.0,5.0,-20.0
-270.0,8.0,0.0,-62.0,495.0,-4.0,-1057.0,6.0,-21.0
-269.0,10.0,2.0,-77.0,474.0,-8.0,-1053.0,19.0,-24.0
-267.0,10.0,-1.0,-90.0,452.0,-15.0,-1053.0,26.0,-21.0
-265.0,10.0,-1.0,-101.0,426.0,-21.0,-1049.0,32.0,-25.0
-266.0,10.0,1.0,-114.0,398.0,-23.0,-1050.0,37.0,-23.0
-264.0,11.0,-1.0,-129.0,370.0,-24.0,-1046.0,42.0,-24.0
-263.0,14.0,1.0,-145.0,339.0,-27.0,-1046.0,42.0,-25.0
-263.0,13.0,5.0,-162.0,311.0,-32.0,-1044.0,44.0,-15.0
-265.0,16.0,1.0,-176.0,287.0,-42.0,-1047.0,46.0,-14.0
-263.0,13.0,4.0,-191.0,268.0,-54.0,-1046.0,49.0,-14.0
-263.0,12.0,5.0,-207.0,252.0,-63.0,-1044.0,44.0,-5.0
-264.0,13.0,5.0,-221.0,242.0,-73.0,-1049.0,46.0,-7.0
-265.0,13.0,6.0,-235.0,234.0,-82.0,-1053.0,47.0,-3.0
-266.0,10.0,7.0,-248.0,229.0,-85.0,-1047.0,44.0,-3.0
-264.0,14.0,6.0,-262.0,222.0,-83.0,-1048.0,43.0,-4.0
-263.0,15.0,7.0,-277.0,213.0,-81.0,-1044.0,47.0,2.0
-266.0,14.0,7.0,-295.0,203.0,-79.0,-1049.0,47.0,2.0
-270.0,11.0,3.0,-315.0,189.0,-78.0,-1056.0,49.0,-6.0
-270.0,17.0,2.0,-338.0,178.0,-74.0,-1068.0,46.0,-16.0
-270.0,11.0,3.0,-362.0,170.0,-73.0,-1068.0,38.0,-19.0
-272.0,9.0,0.0,-381.0,168.0,-75.0,-1072.0,34.0,-28.0
-271.0,9.0,-1.0,-397.0,174.0,-80.0,-1070.0,28.0,-30.0
-269.0,8.0,0.0,-408.0,182.0,-86.0,-1073.0,16.0,-37.0
-270.0,7.0,-6.0,-406.0,191.0,-93.0,-1072.0,9.0,-48.0
-267.0,6.0,-4.0,-402.0,204.0,-96.0,-1066.0,11.0,-57.0
-269.0,5.0,-8.0,-398.0,219.0,-98.0,-1071.0,-6.0,-65.0
-273.0,3.0,-13.0,-393.0,231.0,-100.0,-1068.0,-6.0,-72.0
-272.0,-2.0,-14.0,-394.0,243.0,-104.0,-1074.0,-19.0,-66.0
-274.0,-4.0,-3.0,-396.0,244.0,-112.0,-1076.0,-25.0,-51.0
-274.0,-6.0,-4.0,-387.0,225.0,-120.0,-1079.0,-34.0,-39.0
-270.0,-9.0,-4.0,-365.0,192.0,-132.0,-1066.0,-36.0,-30.0
-271.0,-8.0,2.0,-340.0,156.0,-138.0,-1063.0,-38.0,-29.0
-268.0,-6.0,-2.0,-311.0,127.0,-141.0,-1058.0,-33.0,-24.0
-267.0,-6.0,-1.0,-274.0,104.0,-138.0,-1054.0,-26.0,-18.0
-264.0,-7.0,1.0,-229.0,86.0,-131.0,-1048.0,-25.0,-21.0
-263.0,-6.0,-2.0,-179.0,81.0,-118.0,-1045.0,-26.0,-21.0
-260.0,-4.0,1.0,-129.0,85.0,-102.0,-1034.0,-25.0,-24.0
-261.0,-6.0,-3.0,-82.0,94.0,-81.0,-1031.0,-25.0,-36.0
-259.0,-5.0,-1.0,-43.0,104.0,-58.0,-1030.0,-23.0,-34.0
-259.0,-3.0,-5.0,-15.0,111.0,-38.0,-1026.0,-24.0,-35.0
-259.0,-5.0,-3.0,0.0,114.0,-22.0,-1030.0,-29.0,-37.0
-261.0,0.0,-4.0,4.0,110.0,-15.0,-1025.0,-26.0,-29.0
-259.0,-2.0,1.0,-3.0,99.0,-9.0,-1026.0,-23.0,-25.0
-260.0,-3.0,-2.0,-11.0,79.0,-6.0,-1030.0,-25.0,-14.0
-258.0,-2.0,3.0,-19.0,54.0,-6.0,-1031.0,-12.0,-14.0
-259.0,0.0,2.0,-26.0,34.0,-3.0,-1031.0,-6.0,-8.0
-260.0,2.0,3.0,-30.0,17.0,-4.0,-1033.0,2.0,1.0
-260.0,5.0,8.0,-28.0,4.0,-4.0,-1029.0,-4.0,0.0
-258.0,6.0,5.0,-21.0,-3.0,-6.0,-1031.0,5.0,1.0
-257.0,2.0,1.0,-13.0,-7.0,-4.0,-1026.0,7.0,1.0
-264.0,6.0,12.0,-9.0,-9.0,-4.0,-1030.0,9.0,-6.0
-258.0,6.0,4.0,-7.0,-10.0,-1.0,-1005.0,7.0,-7.0
-254.0,3.0,3.0,-10.0,-11.0,3.0,-1002.0,8.0,-5.0
-255.0,5.0,6.0,-16.0,-13.0,4.0,-993.0,1.0,0.0
-255.0,4.0,6.0,-22.0,-17.0,4.0,-994.0,-1.0,2.0
-254.0,6.0,7.0,-29.0,-23.0,3.0,-996.0,-6.0,7.0
-256.0,5.0,10.0,-35.0,-28.0,2.0,-992.0,-2.0,9.0
-255.0,1.0,7.0,-42.0,-31.0,0.0,-995.0,-7.0,15.0
-255.0,1.0,5.0,-46.0,-32.0,-1.0,-1001.0,-4.0,13.0
-255.0,5.0,7.0,-49.0,-31.0,-5.0,-998.0,-5.0,14.0
-254.0,1.0,9.0,-50.0,-28.0,-5.0,-1004.0,-3.0,11.0
-256.0,2.0,15.0,-48.0,-21.0,-5.0,-1011.0,2.0,12.0
-256.0,1.0,9.0,-45.0,-12.0,-3.0,-1006.0,-4.0,12.0
-258.0,2.0,9.0,-41.0,-1.0,0.0,-1009.0,-4.0,10.0
-260.0,5.0,9.0,-35.0,7.0,4.0,-1019.0,-7.0,16.0
-257.0,0.0,10.0,-30.0,13.0,6.0,-1019.0,-3.0,10.0
-258.0,2.0,7.0,-23.0,15.0,10.0,-1021.0,-3.0,9.0
-257.0,0.0,10.0,-19.0,14.0,11.0,-1023.0,-2.0,-5.0
-260.0,0.0,10.0,-14.0,13.0,10.0,-1029.0,-4.0,-2.0
-262.0,4.0,7.0,-10.0,8.0,8.0,-1032.0,-5.0,-2.0
-263.0,3.0,7.0,-8.0,5.0,8.0,-1041.0,-5.0,-7.0
-260.0,5.0,6.0,-10.0,-1.0,6.0,-1039.0,-4.0,-1.0
-261.0,4.0,6.0,-14.0,-5.0,4.0,-1036.0,3.0,-4.0
-259.0,7.0,2.0,-21.0,-9.0,3.0,-1042.0,3.0,-2.0
-262.0,5.0,6.0,-31.0,-13.0,3.0,-1042.0,11.0,0.0
-264.0,7.0,11.0,-40.0,-15.0,1.0,-1038.0,9.0,14.0
-263.0,8.0,9.0,-47.0,-16.0,0.0,-1043.0,15.0,8.0
-263.0,7.0,8.0,-49.0,-15.0,-7.0,-1040.0,14.0,11.0
-262.0,7.0,10.0,-45.0,-13.0,-11.0,-1043.0,13.0,5.0
-262.0,9.0,8.0,-38.0,-9.0,-16.0,-1044.0,10.0,0.0
-259.0,7.0,4.0,-32.0,-5.0,-18.0,-1037.0,15.0,4.0
-263.0,6.0,9.0,-26.0,-2.0,-21.0,-1036.0,9.0,0.0
-259.0,7.0,7.0,-22.0,-2.0,-20.0,-1034.0,10.0,6.0
-259.0,8.0,9.0,-20.0,-1.0,-19.0,-1032.0,11.0,8.0
-263.0,8.0,7.0,-23.0,-2.0,-17.0,-1034.0,12.0,8.0
-259.0,8.0,12.0,-27.0,-2.0,-16.0,-1034.0,11.0,11.0
-257.0,8.0,17.0,-35.0,0.0,-16.0,-1028.0,13.0,24.0
-260.0,8.0,13.0,-44.0,4.0,-17.0,-1025.0,13.0,28.0
-255.0,8.0,14.0,-54.0,6.0,-20.0,-1023.0,13.0,30.0
-255.0,8.0,17.0,-65.0,9.0,-21.0,-1010.0,12.0,33.0
-256.0,5.0,13.0,-75.0,12.0,-23.0,-1007.0,16.0,38.0
-257.0,9.0,13.0,-87.0,19.0,-26.0,-1006.0,7.0,32.0
-247.0,6.0,18.0,-97.0,25.0,-30.0,-1004.0,13.0,39.0
-256.0,7.0,12.0,-107.0,31.0,-35.0,-1003.0,6.0,34.0
-254.0,8.0,16.0,-112.0,41.0,-39.0,-1006.0,5.0,31.0
-256.0,5.0,14.0,-118.0,49.0,-40.0,-996.0,3.0,30.0
-254.0,6.0,16.0,-123.0,59.0,-41.0,-991.0,-1.0,32.0
-253.0,5.0,15.0,-126.0,70.0,-40.0,-984.0,4.0,38.0
-247.0,5.0,19.0,-126.0,78.0,-38.0,-979.0,2.0,37.0
-247.0,3.0,18.0,-127.0,85.0,-37.0,-976.0,5.0,39.0
-246.0,3.0,17.0,-131.0,90.0,-35.0,-968.0,5.0,38.0
-249.0,8.0,16.0,-135.0,95.0,-31.0,-972.0,8.0,44.0
-250.0,7.0,17.0,-138.0,95.0,-29.0,-978.0,7.0,44.0
-250.0,3.0,19.0,-131.0,94.0,-28.0,-979.0,12.0,42.0
-254.0,5.0,15.0,-116.0,90.0,-26.0,-990.0,8.0,37.0
-255.0,5.0,14.0,-104.0,86.0,-27.0,-993.0,3.0,28.0
-257.0,7.0,12.0,-97.0,85.0,-30.0,-999.0,6.0,27.0
-254.0,5.0,12.0,-90.0,93.0,-32.0,-1006.0,7.0,26.0
-258.0,5.0,13.0,-81.0,102.0,-35.0,-1011.0,5.0,23.0
-257.0,6.0,13.0,-71.0,111.0,-36.0,-1010.0,5.0,19.0
-254.0,2.0,13.0,-58.0,124.0,-32.0,-1011.0,1.0,15.0
-256.0,3.0,6.0,-44.0,138.0,-26.0,-1017.0,3.0,15.0
-256.0,2.0,8.0,-33.0,149.0,-20.0,-1005.0,-1.0,13.0
-257.0,3.0,11.0,-28.0,156.0,-14.0,-1008.0,0.0,14.0
-255.0,6.0,21.0,-27.0,157.0,-8.0,-1025.0,0.0,17.0
-257.0,6.0,10.0,-33.0,151.0,-3.0,-1013.0,8.0,15.0
-258.0,3.0,12.0,-44.0,146.0,-1.0,-1012.0,4.0,19.0
-258.0,7.0,13.0,-57.0,141.0,0.0,-1015.0,8.0,18.0
-258.0,6.0,10.0,-69.0,141.0,-5.0,-1022.0,8.0,23.0
-259.0,6.0,13.0,-79.0,142.0,-9.0,-1027.0,7.0,23.0
-256.0,5.0,8.0,-87.0,146.0,-16.0,-1023.0,10.0,22.0
-256.0,5.0,10.0,-94.0,152.0,-23.0,-1032.0,2.0,16.0
-259.0,8.0,12.0,-98.0,159.0,-30.0,-1025.0,3.0,8.0
-257.0,2.0,9.0,-98.0,171.0,-33.0,-1021.0,4.0,6.0
-257.0,5.0,4.0,-101.0,176.0,-36.0,-1023.0,5.0,3.0
-256.0,5.0,4.0,-100.0,182.0,-38.0,-1026.0,9.0,1.0
-258.0,6.0,10.0,-99.0,182.0,-36.0,-1020.0,5.0,0.0
-258.0,2.0,9.0,-103.0,179.0,-35.0,-1026.0,5.0,-3.0
-260.0,8.0,3.0,-111.0,173.0,-37.0,-1026.0,5.0,-1.0
-258.0,7.0,3.0,-120.0,166.0,-35.0,-1031.0,5.0,1.0
-258.0,4.0,8.0,-132.0,159.0,-35.0,-1033.0,7.0,0.0
-262.0,7.0,5.0,-141.0,153.0,-39.0,-1034.0,7.0,-5.0
-262.0,6.0,6.0,-145.0,155.0,-38.0,-1039.0,5.0,-3.0
-262.0,1.0,7.0,-140.0,161.0,-37.0,-1044.0,5.0,3.0
-263.0,5.0,3.0,-135.0,164.0,-36.0,-1047.0,7.0,-7.0
-264.0,1.0,1.0,-133.0,169.0,-38.0,-1042.0,4.0,-19.0
-263.0,2.0,4.0,-137.0,175.0,-41.0,-1044.0,3.0,-14.0
-262.0,7.0,4.0,-138.0,179.0,-41.0,-1036.0,5.0,-18.0
-261.0,4.0,6.0,-140.0,180.0,-39.0,-1039.0,4.0,-25.0
-260.0,2.0,2.0,-141.0,179.0,-38.0,-1038.0,3.0,-23.0
-262.0,4.0,2.0,-143.0,177.0,-39.0,-1034.0,-5.0,-31.0
-261.0,4.0,-3.0,-146.0,168.0,-37.0,-1029.0,-1.0,-32.0
-259.0,3.0,0.0,-149.0,160.0,-39.0,-1024.0,-3.0,-26.0
-261.0,2.0,-1.0,-153.0,151.0,-39.0,-1019.0,-8.0,-23.0
-255.0,-2.0,-4.0,-159.0,139.0,-39.0,-1012.0,-7.0,-28.0
-257.0,2.0,0.0,-163.0,131.0,-41.0,-1008.0,-7.0,-28.0
-256.0,4.0,1.0,-161.0,125.0,-42.0,-1009.0,-8.0,-21.0
-258.0,4.0,4.0,-156.0,122.0,-37.0,-1009.0,-2.0,-18.0
-258.0,1.0,-1.0,-145.0,118.0,-33.0,-1005.0,-5.0,-16.0
-256.0,6.0,3.0,-134.0,112.0,-30.0,-1009.0,-4.0,-16.0
-257.0,2.0,0.0,-127.0,104.0,-27.0,-1005.0,-3.0,-18.0
-256.0,2.0,4.0,-125.0,98.0,-24.0,-1011.0,-3.0,-12.0
-260.0,5.0,2.0,-124.0,90.0,-23.0,-1020.0,-8.0,-15.0
-260.0,2.0,3.0,-123.0,85.0,-23.0,-1024.0,-3.0,-16.0
-257.0,-1.0,2.0,-124.0,83.0,-22.0,-1019.0,-10.0,-16.0
-261.0,1.0,7.0,-129.0,84.0,-21.0,-1024.0,-10.0,-13.0
-257.0,-3.0,1.0,-135.0,85.0,-23.0,-1021.0,-19.0,-12.0
-260.0,0.0,0.0,-141.0,88.0,-21.0,-1027.0,-22.0,-10.0
-259.0,-3.0,1.0,-146.0,93.0,-23.0,-1026.0,-25.0,-9.0
-258.0,-2.0,6.0,-144.0,103.0,-23.0,-1027.0,-20.0,-14.0
-257.0,-2.0,4.0,-136.0,113.0,-21.0,-1034.0,-21.0,-8.0
-257.0,1.0,4.0,-130.0,122.0,-21.0,-1026.0,-27.0,-12.0
-259.0,-5.0,6.0,-126.0,127.0,-21.0,-1029.0,-23.0,-7.0
-260.0,1.0,5.0,-124.0,127.0,-19.0,-1026.0,-25.0,-6.0
-257.0,-6.0,2.0,-125.0,124.0,-20.0,-1026.0,-23.0,-6.0
-257.0,-1.0,5.0,-131.0,118.0,-24.0,-1023.0,-26.0,-8.0
-255.0,-9.0,4.0,-139.0,109.0,-26.0,-1024.0,-29.0,-6.0
-257.0,-6.0,6.0,-140.0,108.0,-29.0,-1025.0,-17.0,-1.0
-257.0,-4.0,3.0,-125.0,116.0,-28.0,-1025.0,-30.0,-4.0
-259.0,-4.0,5.0,-100.0,124.0,-29.0,-1025.0,-28.0,-6.0
-256.0,-1.0,2.0,-76.0,127.0,-27.0,-1027.0,-22.0,-13.0
-263.0,0.0,3.0,-60.0,126.0,-27.0,-1036.0,-13.0,-7.0
-259.0,-5.0,-2.0,-48.0,112.0,-19.0,-1034.0,-8.0,-21.0
-258.0,1.0,-4.0,-44.0,106.0,-13.0,-1009.0,-8.0,-28.0
-256.0,-2.0,-6.0,-47.0,114.0,-13.0,-1007.0,-10.0,-35.0
-258.0,-1.0,-1.0,-53.0,119.0,-15.0,-1019.0,-11.0,-31.0
-259.0,0.0,-3.0,-59.0,117.0,-16.0,-1025.0,-17.0,-29.0
-259.0,-1.0,-1.0,-68.0,109.0,-20.0,-1029.0,-17.0,-20.0
-257.0,-4.0,1.0,-78.0,98.0,-23.0,-1028.0,-18.0,-20.0
-256.0,-3.0,-1.0,-90.0,90.0,-26.0,-1027.0,-19.0,-19.0
-258.0,-2.0,4.0,-90.0,90.0,-28.0,-1023.0,-18.0,-18.0
-258.0,-1.0,0.0,-83.0,97.0,-28.0,-1021.0,-25.0,-11.0
-260.0,-1.0,1.0,-70.0,103.0,-28.0,-1027.0,-21.0,-14.0
-259.0,-3.0,1.0,-58.0,107.0,-27.0,-1026.0,-22.0,-19.0
-260.0,-1.0,-2.0,-50.0,107.0,-24.0,-1026.0,-23.0,-22.0
-258.0,-5.0,3.0,-45.0,104.0,-24.0,-1027.0,-14.0,-24.0
-258.0,-2.0,1.0,-42.0,102.0,-20.0,-1025.0,-18.0,-24.0
-261.0,-1.0,-3.0,-38.0,98.0,-17.0,-1027.0,-19.0,-26.0
-256.0,-5.0,-2.0,-36.0,94.0,-13.0,-1021.0,-19.0,-23.0
-260.0,-3.0,2.0,-38.0,87.0,-11.0,-1027.0,-25.0,-29.0
-259.0,-1.0,2.0,-41.0,80.0,-10.0,-1029.0,-11.0,-26.0
-257.0,-1.0,1.0,-45.0,78.0,-9.0,-1019.0,-11.0,-24.0
-259.0,0.0,0.0,-49.0,77.0,-8.0,-1026.0,-15.0,-22.0
-256.0,1.0,1.0,-54.0,76.0,-4.0,-1028.0,-13.0,-20.0
-259.0,4.0,3.0,-59.0,74.0,-2.0,-1022.0,-12.0,-21.0
-258.0,2.0,1.0,-69.0,71.0,-2.0,-1019.0,-10.0,-21.0
-257.0,0.0,0.0,-78.0,71.0,0.0,-1019.0,-4.0,-23.0
-260.0,4.0,-1.0,-82.0,72.0,2.0,-1018.0,-3.0,-21.0
-258.0,1.0,4.0,-78.0,76.0,3.0,-1011.0,-8.0,-22.0
-256.0,-3.0,-4.0,-76.0,78.0,3.0,-1020.0,-8.0,-18.0
-260.0,2.0,-1.0,-77.0,76.0,1.0,-1026.0,-6.0,-22.0
-257.0,0.0,-2.0,-83.0,69.0,0.0,-1025.0,-4.0,-20.0
-259.0,1.0,0.0,-87.0,66.0,3.0,-1018.0,-7.0,-22.0
-259.0,-6.0,2.0,-84.0,67.0,5.0,-1027.0,-9.0,-22.0
-258.0,-3.0,-1.0,-82.0,67.0,6.0,-1026.0,-9.0,-27.0
-260.0,-1.0,-2.0,-85.0,65.0,5.0,-1011.0,-17.0,-28.0
-258.0,-1.0,-4.0,-88.0,64.0,5.0,-1022.0,-14.0,-33.0
-257.0,0.0,-1.0,-93.0,63.0,2.0,-1022.0,-17.0,-33.0
-257.0,-2.0,-1.0,-97.0,61.0,0.0,-1017.0,-22.0,-33.0
-258.0,-1.0,-3.0,-101.0,58.0,0.0,-1021.0,-21.0,-33.0
-256.0,-3.0,2.0,-103.0,54.0,-2.0,-1007.0,-12.0,-30.0
-257.0,-6.0,0.0,-104.0,49.0,-2.0,-1015.0,-19.0,-21.0
-257.0,-1.0,2.0,-104.0,42.0,-3.0,-1007.0,-23.0,-24.0
-258.0,-2.0,3.0,-102.0,38.0,-4.0,-1015.0,-13.0,-20.0
-259.0,0.0,2.0,-101.0,35.0,-4.0,-1025.0,-19.0,-19.0
-260.0,-2.0,4.0,-99.0,31.0,-5.0,-1026.0,-16.0,-21.0
-258.0,-4.0,1.0,-95.0,31.0,-4.0,-1029.0,-17.0,-21.0
-260.0,-2.0,0.0,-86.0,38.0,-4.0,-1038.0,-17.0,-21.0
-259.0,-2.0,1.0,-74.0,45.0,-1.0,-1034.0,-21.0,-24.0
-263.0,-2.0,-2.0,-61.0,50.0,-1.0,-1039.0,-28.0,-24.0
-262.0,-4.0,-2.0,-52.0,54.0,0.0,-1036.0,-25.0,-31.0
-264.0,-1.0,-4.0,-47.0,57.0,1.0,-1038.0,-23.0,-28.0
-262.0,0.0,-3.0,-44.0,59.0,2.0,-1038.0,-13.0,-22.0
-261.0,1.0,0.0,-44.0,58.0,5.0,-1042.0,-15.0,-25.0
-264.0,0.0,-1.0,-46.0,56.0,7.0,-1040.0,-12.0,-23.0
-264.0,4.0,2.0,-47.0,54.0,9.0,-1041.0,-8.0,-25.0
-261.0,-3.0,2.0,-50.0,55.0,10.0,-1033.0,-15.0,-26.0
-261.0,0.0,1.0,-55.0,55.0,11.0,-1037.0,-6.0,-19.0
-262.0,0.0,1.0,-57.0,53.0,11.0,-1036.0,-8.0,-21.0
-258.0,0.0,3.0,-55.0,53.0,10.0,-1033.0,-11.0,-21.0
-261.0,2.0,2.0,-50.0,54.0,9.0,-1035.0,-7.0,-21.0
-260.0,3.0,6.0,-46.0,53.0,9.0,-1028.0,-8.0,-16.0
-258.0,5.0,-1.0,-39.0,54.0,6.0,-1026.0,-5.0,-18.0
-259.0,0.0,2.0,-31.0,53.0,4.0,-1028.0,-2.0,-20.0
-259.0,2.0,2.0,-20.0,51.0,1.0,-1028.0,1.0,-18.0
-258.0,3.0,1.0,-10.0,45.0,-2.0,-1023.0,3.0,-20.0
-259.0,5.0,2.0,-2.0,40.0,-4.0,-1026.0,4.0,-20.0
-257.0,4.0,4.0,2.0,36.0,-5.0,-1022.0,5.0,-20.0
-256.0,5.0,2.0,4.0,33.0,-5.0,-1005.0,3.0,-16.0
-257.0,6.0,0.0,1.0,29.0,-5.0,-1012.0,-3.0,-20.0
-256.0,-1.0,1.0,-2.0,27.0,-6.0,-1008.0,-6.0,-18.0
-258.0,0.0,2.0,-5.0,28.0,-5.0,-1000.0,-5.0,-16.0
-254.0,-1.0,1.0,-10.0,31.0,-5.0,-1007.0,-7.0,-11.0
-257.0,-1.0,6.0,-15.0,33.0,-3.0,-1002.0,-9.0,-7.0
-257.0,2.0,3.0,-22.0,37.0,-3.0,-1006.0,-10.0,-7.0
-255.0,1.0,5.0,-28.0,39.0,-2.0,-1009.0,-15.0,-1.0
-256.0,-1.0,6.0,-35.0,45.0,0.0,-1004.0,-21.0,6.0
-253.0,-3.0,9.0,-42.0,51.0,1.0,-1001.0,-25.0,7.0
-257.0,-2.0,9.0,-44.0,56.0,1.0,-1009.0,-21.0,8.0
-256.0,-3.0,12.0,-46.0,61.0,3.0,-1000.0,-25.0,11.0
-255.0,-4.0,11.0,-45.0,65.0,2.0,-1006.0,-29.0,8.0
-256.0,-4.0,11.0,-41.0,69.0,3.0,-1001.0,-29.0,9.0
-255.0,-7.0,8.0,-39.0,75.0,1.0,-1009.0,-25.0,7.0
-255.0,0.0,4.0,-39.0,82.0,-1.0,-1005.0,-26.0,1.0
-255.0,-2.0,3.0,-35.0,88.0,-2.0,-1006.0,-14.0,-1.0
-256.0,-1.0,1.0,-31.0,96.0,-3.0,-1020.0,-19.0,-8.0
-256.0,-2.0,3.0,-27.0,106.0,-2.0,-1007.0,-13.0,-17.0
-254.0,-2.0,1.0,-21.0,115.0,-3.0,-1014.0,-10.0,-16.0
-257.0,1.0,1.0,-14.0,119.0,-3.0,-1012.0,-6.0,-21.0
-257.0,-1.0,0.0,-7.0,122.0,0.0,-1015.0,-8.0,-19.0
-258.0,4.0,-1.0,-2.0,123.0,1.0,-1022.0,-3.0,-24.0
-258.0,1.0,-2.0,-2.0,123.0,3.0,-1011.0,-8.0,-25.0
-259.0,0.0,4.0,-2.0,118.0,5.0,-1018.0,-3.0,-26.0
-257.0,1.0,2.0,-2.0,113.0,6.0,-1009.0,-7.0,-24.0
-257.0,3.0,-1.0,-3.0,111.0,8.0,-1026.0,-9.0,-22.0
-257.0,6.0,2.0,-7.0,105.0,10.0,-1018.0,-7.0,-20.0
-258.0,0.0,-1.0,-10.0,101.0,9.0,-1018.0,-10.0,-22.0
-257.0,-1.0,3.0,-12.0,98.0,7.0,-1031.0,-12.0,-16.0
-259.0,4.0,4.0,-14.0,96.0,6.0,-1030.0,-13.0,-22.0
-260.0,1.0,1.0,-11.0,93.0,6.0,-1029.0,-8.0,-21.0
-258.0,0.0,1.0,-11.0,91.0,3.0,-1017.0,-11.0,-23.0
-259.0,-1.0,1.0,-9.0,89.0,0.0,-1027.0,-8.0,-22.0
-257.0,0.0,0.0,-4.0,88.0,0.0,-1029.0,-13.0,-24.0
-257.0,3.0,-6.0,-1.0,84.0,-2.0,-1027.0,-7.0,-21.0
-258.0,-2.0,-1.0,1.0,81.0,-2.0,-1026.0,-9.0,-26.0
-262.0,0.0,-1.0,1.0,78.0,-1.0,-1027.0,-9.0,-31.0
-259.0,3.0,-4.0,3.0,75.0,-2.0,-1026.0,-12.0,-28.0
-258.0,0.0,-2.0,5.0,72.0,-2.0,-1027.0,-12.0,-27.0
-258.0,-3.0,0.0,7.0,67.0,-2.0,-1023.0,-11.0,-25.0
-262.0,3.0,0.0,9.0,63.0,-1.0,-1028.0,-13.0,-34.0
-259.0,1.0,-1.0,9.0,57.0,1.0,-1025.0,-8.0,-30.0
-261.0,-1.0,2.0,11.0,51.0,2.0,-1028.0,-8.0,-28.0
-261.0,-1.0,-1.0,11.0,48.0,2.0,-1026.0,-9.0,-32.0
-259.0,2.0,0.0,12.0,44.0,4.0,-1025.0,-12.0,-27.0
-257.0,1.0,2.0,15.0,41.0,4.0,-1022.0,-12.0,-24.0
-260.0,2.0,0.0,15.0,37.0,5.0,-1026.0,-7.0,-28.0
-259.0,0.0,-2.0,14.0,34.0,3.0,-1030.0,-9.0,-29.0
-260.0,0.0,-3.0,13.0,33.0,1.0,-1031.0,-9.0,-28.0
-258.0,0.0,-1.0,12.0,31.0,1.0,-1030.0,-7.0,-23.0
-258.0,1.0,1.0,9.0,28.0,0.0,-1032.0,-11.0,-30.0
-259.0,-2.0,0.0,9.0,25.0,1.0,-1031.0,-11.0,-29.0
-259.0,0.0,0.0,10.0,22.0,0.0,-1028.0,-16.0,-30.0
-257.0,2.0,-1.0,10.0,19.0,-1.0,-1028.0,-7.0,-25.0
-262.0,6.0,1.0,12.0,16.0,1.0,-1028.0,-4.0,-23.0
-259.0,-4.0,2.0,12.0,11.0,3.0,-1025.0,-9.0,-22.0
-259.0,1.0,2.0,11.0,8.0,3.0,-1030.0,-11.0,-21.0
-254.0,3.0,2.0,12.0,4.0,6.0,-1030.0,-8.0,-21.0
-274.0,-3.0,-2.0,13.0,2.0,7.0,-1033.0,-12.0,-24.0
-254.0,4.0,3.0,13.0,-1.0,7.0,-1032.0,-14.0,-20.0
-267.0,1.0,13.0,16.0,-2.0,9.0,-1032.0,-8.0,-20.0
-254.0,-6.0,-9.0,18.0,-2.0,11.0,-1036.0,-12.0,-29.0
-260.0,-6.0,-8.0,18.0,-3.0,13.0,-1032.0,-13.0,-28.0
-271.0,5.0,6.0,18.0,-3.0,16.0,-1035.0,-11.0,-19.0
-257.0,12.0,15.0,18.0,-6.0,17.0,-1038.0,-10.0,-19.0
-260.0,5.0,-14.0,16.0,-6.0,19.0,-1034.0,-12.0,-22.0
-260.0,5.0,13.0,15.0,-8.0,20.0,-1036.0,-12.0,-19.0
-261.0,4.0,1.0,13.0,-10.0,23.0,-1032.0,-8.0,-17.0
-261.0,6.0,1.0,9.0,-11.0,22.0,-1028.0,-5.0,-16.0
-257.0,-1.0,4.0,5.0,-14.0,23.0,-1032.0,-8.0,-15.0
-261.0,7.0,1.0,0.0,-17.0,20.0,-1026.0,-4.0,-15.0
-265.0,10.0,-1.0,-2.0,-17.0,17.0,-1022.0,-5.0,-12.0
-262.0,4.0,-5.0,-5.0,-15.0,13.0,-1024.0,-4.0,-9.0
-268.0,4.0,1.0,-3.0,-11.0,10.0,-1016.0,-6.0,-6.0
-262.0,7.0,0.0,-2.0,-10.0,5.0,-1007.0,-7.0,-1.0
-260.0,3.0,14.0,-1.0,-8.0,3.0,-1006.0,-11.0,4.0
-252.0,7.0,7.0,2.0,-6.0,1.0,-1004.0,-11.0,3.0
-251.0,7.0,13.0,6.0,-3.0,-1.0,-1007.0,-15.0,-1.0
-259.0,5.0,4.0,9.0,-1.0,-4.0,-1016.0,-15.0,2.0
-264.0,7.0,-14.0,9.0,1.0,-6.0,-1014.0,-12.0,0.0
-266.0,5.0,7.0,9.0,7.0,-6.0,-1028.0,-7.0,5.0
-265.0,-3.0,3.0,7.0,12.0,-4.0,-1021.0,-7.0,-2.0
-255.0,-3.0,3.0,5.0,17.0,-3.0,-1030.0,-4.0,1.0
-260.0,1.0,5.0,3.0,20.0,-2.0,-1021.0,-5.0,4.0
-260.0,3.0,7.0,0.0,24.0,-3.0,-1027.0,-8.0,-2.0
-259.0,3.0,6.0,-4.0,27.0,-4.0,-1016.0,-1.0,1.0
-255.0,2.0,16.0,-5.0,28.0,-2.0,-1024.0,-2.0,1.0
-262.0,-3.0,9.0,-10.0,30.0,0.0,-1015.0,-4.0,0.0
-259.0,5.0,0.0,-10.0,30.0,1.0,-1017.0,-5.0,4.0
-255.0,2.0,8.0,-8.0,33.0,0.0,-1007.0,-8.0,0.0
-268.0,0.0,7.0,-5.0,36.0,1.0,-1015.0,-7.0,10.0
-255.0,-5.0,15.0,-1.0,37.0,0.0,-1012.0,-11.0,5.0
-255.0,0.0,8.0,1.0,38.0,2.0,-1015.0,-4.0,7.0
-253.0,1.0,6.0,4.0,39.0,4.0,-1014.0,-9.0,-2.0
-250.0,3.0,4.0,6.0,41.0,5.0,-1014.0,-11.0,4.0
-256.0,1.0,0.0,7.0,41.0,5.0,-1016.0,-18.0,6.0
-265.0,-1.0,5.0,8.0,39.0,6.0,-1019.0,-12.0,2.0
-263.0,0.0,5.0,6.0,37.0,6.0,-1023.0,-10.0,3.0
-258.0,5.0,3.0,4.0,35.0,7.0,-1015.0,-9.0,7.0
-257.0,-3.0,5.0,2.0,35.0,5.0,-1007.0,-10.0,4.0
-259.0,4.0,7.0,1.0,35.0,4.0,-1018.0,-8.0,1.0
-257.0,4.0,4.0,0.0,32.0,3.0,-1008.0,-9.0,3.0
-258.0,1.0,12.0,0.0,34.0,4.0,-1026.0,-14.0,11.0
-256.0,4.0,5.0,3.0,33.0,2.0,-1020.0,-6.0,4.0
-261.0,-4.0,1.0,4.0,34.0,2.0,-1018.0,-8.0,6.0
-261.0,6.0,-2.0,5.0,37.0,0.0,-1019.0,-6.0,1.0
-263.0,4.0,5.0,7.0,38.0,0.0,-1025.0,-4.0,1.0
-240.0,3.0,13.0,5.0,38.0,0.0,-1026.0,-6.0,0.0
-258.0,2.0,14.0,4.0,39.0,0.0,-1025.0,-5.0,5.0
-257.0,1.0,16.0,4.0,42.0,3.0,-1027.0,-8.0,7.0
-264.0,-1.0,-3.0,4.0,45.0,4.0,-1025.0,-15.0,2.0
-258.0,1.0,4.0,5.0,48.0,5.0,-1028.0,-8.0,3.0
-259.0,3.0,15.0,5.0,50.0,6.0,-1026.0,-13.0,1.0
-263.0,-7.0,14.0,6.0,50.0,6.0,-1023.0,-6.0,2.0
-256.0,1.0,8.0,4.0,53.0,4.0,-1020.0,-9.0,5.0
-257.0,2.0,7.0,5.0,54.0,3.0,-1020.0,-12.0,4.0
-258.0,-1.0,5.0,5.0,53.0,4.0,-1033.0,-8.0,1.0
-259.0,0.0,7.0,2.0,54.0,3.0,-1025.0,-10.0,5.0
-259.0,0.0,2.0,2.0,52.0,2.0,-1022.0,-10.0,2.0
-259.0,1.0,14.0,-1.0,50.0,3.0,-1028.0,-6.0,2.0
-260.0,6.0,5.0,-2.0,49.0,1.0,-1026.0,-1.0,6.0
-258.0,3.0,9.0,-5.0,49.0,1.0,-1024.0,-5.0,4.0
-254.0,6.0,3.0,-6.0,50.0,1.0,-1024.0,-9.0,5.0
-259.0,-1.0,8.0,-4.0,52.0,1.0,-1026.0,-10.0,-3.0
-254.0,6.0,2.0,-1.0,52.0,3.0,-1015.0,-7.0,0.0
-259.0,-3.0,10.0,4.0,55.0,3.0,-1025.0,-18.0,-1.0
-256.0,5.0,-4.0,9.0,54.0,3.0,-1018.0,-14.0,1.0
-260.0,4.0,16.0,14.0,51.0,2.0,-1026.0,-16.0,6.0
-253.0,0.0,12.0,19.0,49.0,2.0,-1027.0,-11.0,5.0
-259.0,1.0,13.0,24.0,48.0,3.0,-1024.0,-17.0,5.0
-259.0,0.0,5.0,30.0,48.0,5.0,-1027.0,-10.0,4.0
-255.0,-1.0,6.0,35.0,48.0,6.0,-1029.0,-11.0,4.0
-257.0,1.0,7.0,39.0,48.0,6.0,-1019.0,-12.0,6.0
-256.0,-3.0,7.0,37.0,47.0,6.0,-1029.0,-9.0,6.0
-258.0,3.0,8.0,36.0,47.0,6.0,-1030.0,-7.0,7.0
-256.0,2.0,7.0,34.0,45.0,5.0,-1027.0,-7.0,6.0
-258.0,4.0,9.0,31.0,47.0,5.0,-1026.0,-9.0,0.0
-259.0,-1.0,6.0,29.0,47.0,3.0,-1027.0,-7.0,9.0
-256.0,3.0,11.0,30.0,48.0,2.0,-1028.0,-3.0,2.0
-272.0,7.0,10.0,33.0,50.0,0.0,-1029.0,-5.0,3.0
-254.0,7.0,11.0,37.0,52.0,-2.0,-1019.0,-4.0,0.0
-256.0,0.0,15.0,44.0,53.0,-3.0,-1022.0,0.0,1.0
-254.0,2.0,20.0,49.0,52.0,0.0,-1028.0,-2.0,4.0
-263.0,5.0,-4.0,53.0,51.0,0.0,-1026.0,2.0,0.0
-258.0,7.0,-6.0,58.0,50.0,0.0,-1024.0,2.0,2.0
-260.0,1.0,11.0,60.0,48.0,3.0,-1024.0,0.0,1.0
-257.0,0.0,8.0,60.0,48.0,3.0,-1025.0,-7.0,1.0
-256.0,4.0,6.0,58.0,47.0,6.0,-1015.0,-4.0,7.0
-260.0,-1.0,10.0,56.0,44.0,5.0,-1027.0,-7.0,2.0
-252.0,11.0,2.0,51.0,43.0,6.0,-1026.0,-2.0,-2.0
-260.0,0.0,7.0,48.0,40.0,7.0,-1017.0,-5.0,5.0
-257.0,0.0,7.0,42.0,39.0,9.0,-1026.0,-5.0,12.0
-264.0,3.0,12.0,34.0,39.0,8.0,-1016.0,-8.0,11.0
-254.0,11.0,13.0,27.0,38.0,7.0,-1016.0,-10.0,11.0
-257.0,-1.0,7.0,24.0,37.0,7.0,-1015.0,-9.0,11.0
-255.0,-2.0,7.0,22.0,36.0,8.0,-1019.0,-14.0,9.0
-259.0,1.0,7.0,21.0,37.0,8.0,-1019.0,-9.0,8.0
-256.0,-1.0,7.0,21.0,35.0,8.0,-1019.0,-14.0,10.0
-278.0,14.0,14.0,21.0,33.0,8.0,-1015.0,-11.0,10.0
-258.0,1.0,10.0,21.0,34.0,6.0,-1021.0,-11.0,15.0
-257.0,0.0,12.0,19.0,34.0,5.0,-1015.0,-10.0,9.0
-258.0,0.0,6.0,15.0,33.0,4.0,-1008.0,-6.0,13.0
-258.0,1.0,11.0,13.0,33.0,3.0,-1019.0,-4.0,14.0
-257.0,2.0,11.0,11.0,32.0,1.0,-1014.0,-9.0,13.0
-259.0,5.0,11.0,10.0,31.0,0.0,-1022.0,-7.0,11.0
-259.0,1.0,10.0,8.0,31.0,1.0,-1019.0,-8.0,13.0
-256.0,1.0,11.0,9.0,29.0,3.0,-1024.0,-5.0,11.0
-261.0,-7.0,11.0,11.0,30.0,2.0,-1017.0,-6.0,16.0
-258.0,2.0,9.0,10.0,30.0,2.0,-1022.0,-6.0,12.0
-259.0,4.0,10.0,11.0,31.0,2.0,-1023.0,-8.0,7.0
-258.0,0.0,8.0,12.0,32.0,4.0,-1030.0,-12.0,15.0
-258.0,-1.0,6.0,14.0,34.0,3.0,-1023.0,-8.0,6.0
-264.0,3.0,-2.0,16.0,34.0,5.0,-1016.0,-9.0,11.0
-258.0,2.0,10.0,20.0,35.0,8.0,-1021.0,-5.0,13.0
-257.0,2.0,6.0,20.0,34.0,11.0,-1016.0,-3.0,13.0
-256.0,-1.0,9.0,21.0,34.0,14.0,-1020.0,-5.0,13.0
-256.0,4.0,13.0,23.0,30.0,15.0,-1020.0,-2.0,18.0
-258.0,-3.0,4.0,22.0,29.0,18.0,-1026.0,0.0,16.0
-258.0,4.0,10.0,21.0,27.0,21.0,-1026.0,-5.0,13.0
-257.0,2.0,11.0,20.0,26.0,21.0,-1022.0,-1.0,17.0
-257.0,2.0,12.0,19.0,24.0,22.0,-1025.0,-2.0,13.0
-258.0,4.0,8.0,18.0,25.0,23.0,-1018.0,-1.0,13.0
-259.0,7.0,10.0,17.0,24.0,23.0,-1023.0,0.0,12.0
-257.0,2.0,10.0,18.0,25.0,24.0,-1025.0,-3.0,17.0
-257.0,3.0,11.0,17.0,28.0,25.0,-1015.0,2.0,14.0
-256.0,5.0,9.0,15.0,27.0,25.0,-1019.0,3.0,19.0
-258.0,5.0,10.0,14.0,25.0,25.0,-1021.0,4.0,19.0
-259.0,3.0,12.0,13.0,24.0,22.0,-1023.0,2.0,17.0
-257.0,3.0,8.0,11.0,21.0,24.0,-1020.0,6.0,19.0
-259.0,4.0,14.0,7.0,21.0,18.0,-1018.0,8.0,19.0
-257.0,1.0,11.0,7.0,21.0,16.0,-1025.0,3.0,22.0
-256.0,3.0,8.0,6.0,21.0,14.0,-1024.0,2.0,19.0
-257.0,7.0,15.0,8.0,23.0,13.0,-1024.0,4.0,19.0
-260.0,7.0,14.0,11.0,24.0,11.0,-1024.0,-1.0,19.0
-259.0,5.0,13.0,12.0,29.0,12.0,-1027.0,0.0,20.0
-254.0,6.0,19.0,14.0,33.0,11.0,-1029.0,0.0,20.0
-257.0,5.0,11.0,16.0,36.0,12.0,-1024.0,-1.0,23.0
-257.0,2.0,15.0,19.0,40.0,12.0,-1012.0,3.0,17.0
-257.0,6.0,9.0,21.0,42.0,14.0,-1023.0,-2.0,18.0
-259.0,7.0,9.0,21.0,45.0,15.0,-1017.0,0.0,16.0
-255.0,4.0,9.0,21.0,45.0,17.0,-1027.0,6.0,18.0
-257.0,7.0,12.0,19.0,46.0,19.0,-1027.0,1.0,16.0
-262.0,8.0,10.0,15.0,45.0,19.0,-1031.0,12.0,19.0
-259.0,6.0,13.0,12.0,43.0,18.0,-1025.0,12.0,17.0
-261.0,8.0,11.0,8.0,41.0,16.0,-1018.0,3.0,21.0
-258.0,7.0,13.0,6.0,39.0,13.0,-1023.0,5.0,18.0
-257.0,2.0,13.0,7.0,36.0,12.0,-1025.0,10.0,22.0
-258.0,2.0,13.0,7.0,36.0,9.0,-1019.0,-1.0,24.0
-259.0,6.0,9.0,9.0,36.0,7.0,-1027.0,3.0,16.0
-260.0,5.0,10.0,12.0,37.0,6.0,-1024.0,2.0,17.0
-258.0,2.0,11.0,14.0,39.0,7.0,-1026.0,2.0,18.0
-257.0,3.0,11.0,17.0,42.0,8.0,-1019.0,2.0,16.0
-258.0,4.0,10.0,20.0,43.0,9.0,-1024.0,-3.0,18.0
-257.0,5.0,7.0,21.0,43.0,12.0,-1025.0,-2.0,16.0
-261.0,5.0,12.0,22.0,42.0,13.0,-1021.0,-1.0,15.0
-258.0,3.0,12.0,23.0,42.0,15.0,-1023.0,4.0,20.0
-257.0,4.0,11.0,21.0,42.0,14.0,-1011.0,2.0,20.0
-257.0,6.0,15.0,18.0,42.0,16.0,-1019.0,1.0,20.0
-258.0,6.0,10.0,15.0,41.0,15.0,-1014.0,5.0,22.0
-258.0,8.0,14.0,13.0,42.0,16.0,-1015.0,1.0,20.0
-258.0,6.0,14.0,10.0,41.0,15.0,-1018.0,6.0,26.0
-256.0,4.0,11.0,5.0,40.0,12.0,-1027.0,4.0,18.0
-257.0,3.0,13.0,1.0,39.0,11.0,-1015.0,1.0,23.0
-258.0,4.0,11.0,-2.0,39.0,8.0,-1020.0,3.0,26.0
-259.0,3.0,13.0,-5.0,39.0,6.0,-1028.0,-2.0,26.0
-257.0,5.0,12.0,-5.0,40.0,4.0,-1028.0,2.0,30.0
-259.0,1.0,16.0,-4.0,41.0,2.0,-1024.0,3.0,25.0
-258.0,1.0,13.0,-5.0,44.0,-1.0,-1026.0,-1.0,22.0
-257.0,1.0,14.0,-2.0,47.0,-1.0,-1031.0,0.0,32.0
-258.0,5.0,16.0,1.0,50.0,-1.0,-1026.0,-3.0,27.0
-259.0,4.0,12.0,4.0,52.0,-1.0,-1024.0,-2.0,25.0
-259.0,3.0,15.0,6.0,53.0,-1.0,-1027.0,-3.0,23.0
-261.0,3.0,14.0,8.0,55.0,-1.0,-1027.0,-8.0,26.0
-257.0,1.0,12.0,7.0,57.0,-1.0,-1026.0,-5.0,27.0
-258.0,3.0,13.0,9.0,59.0,-2.0,-1021.0,-11.0,24.0
-256.0,0.0,14.0,8.0,62.0,-1.0,-1024.0,-5.0,26.0
-258.0,2.0,12.0,10.0,62.0,-2.0,-1011.0,-4.0,22.0
-257.0,2.0,12.0,13.0,63.0,-2.0,-1017.0,-9.0,25.0
-252.0,0.0,10.0,15.0,63.0,-4.0,-1021.0,-6.0,25.0
-258.0,3.0,15.0,19.0,62.0,-2.0,-1025.0,-4.0,24.0
-257.0,1.0,16.0,23.0,59.0,0.0,-1015.0,-3.0,25.0
-257.0,3.0,14.0,28.0,58.0,1.0,-1027.0,-2.0,25.0
-259.0,3.0,10.0,30.0,53.0,2.0,-1018.0,0.0,25.0
-259.0,4.0,9.0,30.0,49.0,4.0,-1022.0,0.0,26.0
-261.0,4.0,12.0,30.0,47.0,4.0,-1021.0,1.0,24.0
-258.0,6.0,12.0,30.0,45.0,5.0,-1017.0,3.0,22.0
-258.0,2.0,15.0,25.0,44.0,5.0,-1029.0,0.0,22.0
-257.0,5.0,22.0,24.0,43.0,5.0,-1030.0,4.0,32.0
-256.0,4.0,13.0,21.0,43.0,5.0,-1026.0,4.0,24.0
-257.0,5.0,12.0,19.0,44.0,5.0,-1026.0,7.0,25.0
-259.0,3.0,15.0,13.0,44.0,5.0,-1020.0,0.0,28.0
-257.0,4.0,15.0,9.0,44.0,3.0,-1019.0,6.0,29.0
-257.0,2.0,13.0,6.0,45.0,3.0,-1025.0,2.0,33.0
-257.0,7.0,13.0,5.0,49.0,2.0,-1023.0,4.0,27.0
-256.0,3.0,11.0,5.0,53.0,2.0,-1022.0,1.0,30.0
-257.0,1.0,14.0,2.0,56.0,2.0,-1017.0,5.0,26.0
-256.0,3.0,11.0,2.0,61.0,3.0,-1011.0,6.0,25.0
-257.0,3.0,15.0,3.0,63.0,3.0,-1027.0,5.0,29.0
-258.0,2.0,16.0,4.0,64.0,4.0,-1012.0,7.0,31.0
-259.0,-3.0,10.0,5.0,66.0,4.0,-1022.0,6.0,23.0
-257.0,0.0,16.0,4.0,67.0,4.0,-1015.0,6.0,27.0
-255.0,4.0,9.0,3.0,64.0,3.0,-1015.0,2.0,29.0
-257.0,5.0,9.0,2.0,63.0,3.0,-1014.0,2.0,27.0
-257.0,5.0,11.0,3.0,62.0,1.0,-1013.0,5.0,26.0
-256.0,3.0,14.0,2.0,62.0,2.0,-1017.0,5.0,22.0
-260.0,5.0,12.0,2.0,62.0,3.0,-1017.0,2.0,29.0
-258.0,5.0,12.0,3.0,63.0,2.0,-1024.0,4.0,24.0
-258.0,3.0,12.0,3.0,62.0,2.0,-1026.0,2.0,22.0
-257.0,1.0,11.0,2.0,63.0,3.0,-1027.0,2.0,21.0
-259.0,5.0,13.0,1.0,62.0,3.0,-1026.0,2.0,29.0
-258.0,2.0,15.0,3.0,62.0,4.0,-1027.0,3.0,25.0
-260.0,3.0,12.0,3.0,61.0,2.0,-1022.0,3.0,23.0
-260.0,8.0,17.0,4.0,62.0,2.0,-1029.0,1.0,21.0
-257.0,2.0,15.0,4.0,63.0,2.0,-1019.0,1.0,25.0
-257.0,4.0,11.0,4.0,62.0,3.0,-1028.0,2.0,25.0
-258.0,6.0,15.0,6.0,62.0,2.0,-1026.0,4.0,25.0
-258.0,6.0,15.0,7.0,62.0,2.0,-1018.0,6.0,25.0
-257.0,5.0,16.0,8.0,62.0,3.0,-1015.0,2.0,22.0
-256.0,8.0,13.0,9.0,62.0,1.0,-1017.0,5.0,26.0
-257.0,5.0,10.0,7.0,58.0,2.0,-1019.0,6.0,27.0
-259.0,7.0,12.0,8.0,57.0,2.0,-1008.0,5.0,30.0
-256.0,6.0,14.0,9.0,55.0,1.0,-1019.0,6.0,28.0
-258.0,3.0,13.0,7.0,54.0,0.0,-1020.0,7.0,23.0
-257.0,3.0,12.0,5.0,54.0,0.0,-1022.0,9.0,23.0
-259.0,7.0,14.0,4.0,55.0,1.0,-1026.0,3.0,30.0
-256.0,6.0,14.0,4.0,55.0,1.0,-1026.0,3.0,26.0
-258.0,5.0,13.0,4.0,57.0,3.0,-1022.0,2.0,27.0
-260.0,6.0,11.0,6.0,58.0,2.0,-1019.0,5.0,25.0
-258.0,4.0,12.0,8.0,59.0,2.0,-1030.0,4.0,24.0
-257.0,7.0,13.0,9.0,59.0,3.0,-1027.0,3.0,24.0
-259.0,6.0,13.0,12.0,60.0,3.0,-1022.0,1.0,25.0
-257.0,4.0,15.0,13.0,58.0,3.0,-1025.0,4.0,32.0
-256.0,4.0,13.0,12.0,60.0,2.0,-1016.0,3.0,29.0
-256.0,4.0,15.0,13.0,59.0,1.0,-1007.0,1.0,30.0
-257.0,2.0,12.0,13.0,60.0,0.0,-1017.0,3.0,32.0
-258.0,7.0,13.0,14.0,59.0,2.0,-1019.0,4.0,35.0
-256.0,4.0,15.0,13.0,60.0,1.0,-1014.0,3.0,33.0
-260.0,8.0,14.0,12.0,59.0,1.0,-1023.0,7.0,31.0
-258.0,4.0,14.0,11.0,59.0,2.0,-1016.0,4.0,31.0
-257.0,6.0,18.0,9.0,59.0,3.0,-1023.0,-1.0,30.0
-258.0,8.0,12.0,9.0,59.0,3.0,-1017.0,3.0,28.0
-257.0,7.0,13.0,8.0,60.0,4.0,-1016.0,7.0,26.0
-258.0,-1.0,21.0,9.0,60.0,4.0,-1017.0,1.0,28.0
-259.0,6.0,13.0,8.0,59.0,3.0,-1025.0,3.0,26.0
-261.0,6.0,14.0,8.0,59.0,3.0,-1027.0,5.0,27.0
-257.0,8.0,15.0,9.0,59.0,3.0,-1017.0,2.0,28.0
-258.0,6.0,15.0,7.0,59.0,4.0,-1016.0,3.0,25.0
-256.0,1.0,13.0,5.0,59.0,4.0,-1016.0,9.0,28.0
-257.0,8.0,15.0,4.0,60.0,4.0,-1017.0,10.0,28.0
-260.0,7.0,9.0,2.0,59.0,5.0,-1020.0,11.0,24.0
-259.0,7.0,13.0,2.0,58.0,4.0,-1019.0,4.0,24.0
-257.0,7.0,15.0,4.0,57.0,0.0,-1017.0,6.0,26.0
-256.0,0.0,13.0,6.0,58.0,0.0,-1023.0,7.0,26.0
-255.0,4.0,12.0,9.0,58.0,0.0,-1015.0,7.0,27.0
-257.0,3.0,12.0,12.0,62.0,-4.0,-1008.0,0.0,27.0
-257.0,4.0,18.0,20.0,63.0,-4.0,-1010.0,3.0,28.0
-259.0,1.0,13.0,26.0,66.0,-3.0,-1021.0,3.0,30.0
-257.0,3.0,16.0,27.0,67.0,-4.0,-1011.0,-1.0,32.0
-260.0,1.0,16.0,32.0,69.0,-3.0,-1011.0,-1.0,28.0
-257.0,1.0,13.0,35.0,67.0,-3.0,-1018.0,0.0,31.0
-260.0,5.0,15.0,36.0,66.0,-2.0,-1018.0,-4.0,28.0
-257.0,1.0,14.0,39.0,65.0,0.0,-1008.0,-1.0,32.0
-256.0,0.0,18.0,42.0,63.0,2.0,-1026.0,1.0,33.0
-254.0,2.0,13.0,43.0,65.0,6.0,-1015.0,-1.0,37.0
-258.0,-2.0,17.0,45.0,64.0,8.0,-1020.0,-6.0,36.0
-256.0,0.0,16.0,46.0,62.0,9.0,-1019.0,-1.0,32.0
-253.0,1.0,15.0,45.0,62.0,10.0,-1014.0,2.0,35.0
-257.0,2.0,18.0,46.0,63.0,11.0,-1018.0,-7.0,33.0
-257.0,2.0,16.0,46.0,63.0,12.0,-1025.0,5.0,32.0
-257.0,5.0,14.0,42.0,62.0,14.0,-1018.0,4.0,28.0
-258.0,4.0,14.0,37.0,63.0,16.0,-1013.0,4.0,28.0
-257.0,6.0,20.0,32.0,65.0,16.0,-1014.0,5.0,31.0
-258.0,8.0,15.0,28.0,70.0,12.0,-1016.0,6.0,31.0
-260.0,6.0,14.0,22.0,73.0,10.0,-1015.0,9.0,30.0
-257.0,7.0,16.0,17.0,72.0,10.0,-1021.0,10.0,35.0
-256.0,8.0,14.0,13.0,69.0,9.0,-1029.0,8.0,36.0
-258.0,8.0,15.0,5.0,66.0,9.0,-1024.0,10.0,32.0
-256.0,7.0,18.0,0.0,64.0,9.0,-1015.0,12.0,39.0
-257.0,9.0,18.0,-4.0,64.0,7.0,-1020.0,11.0,38.0
-256.0,7.0,15.0,-6.0,65.0,2.0,-1018.0,9.0,36.0
-257.0,8.0,17.0,-9.0,66.0,-1.0,-1015.0,9.0,30.0
-258.0,6.0,15.0,-10.0,69.0,-1.0,-1020.0,7.0,33.0
-257.0,8.0,16.0,-13.0,72.0,-3.0,-1020.0,11.0,38.0
-257.0,6.0,14.0,-17.0,74.0,0.0,-1018.0,9.0,33.0
-258.0,-4.0,7.0,-19.0,78.0,1.0,-1010.0,13.0,36.0
-256.0,4.0,15.0,-20.0,82.0,2.0,-1022.0,8.0,36.0
-256.0,7.0,14.0,-22.0,85.0,3.0,-1025.0,7.0,28.0
-257.0,1.0,16.0,-24.0,90.0,4.0,-1031.0,6.0,30.0
-257.0,4.0,14.0,-25.0,92.0,2.0,-1027.0,8.0,31.0
-258.0,7.0,16.0,-26.0,94.0,0.0,-1031.0,13.0,30.0
-257.0,5.0,13.0,-27.0,94.0,-1.0,-1029.0,9.0,26.0
-259.0,6.0,14.0,-27.0,94.0,-1.0,-1028.0,2.0,21.0
-258.0,3.0,11.0,-28.0,93.0,-3.0,-1030.0,7.0,23.0
-258.0,4.0,13.0,-27.0,91.0,-5.0,-1029.0,6.0,24.0
-259.0,13.0,13.0,-25.0,90.0,-5.0,-1025.0,6.0,27.0
-258.0,6.0,14.0,-26.0,88.0,-6.0,-1026.0,7.0,25.0
-263.0,7.0,14.0,-24.0,89.0,-4.0,-1029.0,12.0,29.0
-262.0,6.0,12.0,-24.0,90.0,-6.0,-1019.0,7.0,26.0
-259.0,7.0,16.0,-24.0,90.0,-5.0,-1021.0,6.0,30.0
-257.0,8.0,14.0,-25.0,91.0,-3.0,-1025.0,11.0,27.0
-258.0,8.0,13.0,-26.0,94.0,-3.0,-1028.0,11.0,33.0
-257.0,8.0,11.0,-28.0,94.0,-3.0,-1023.0,10.0,27.0
-258.0,7.0,11.0,-31.0,94.0,-2.0,-1021.0,14.0,30.0
-261.0,8.0,9.0,-34.0,93.0,-2.0,-1018.0,9.0,25.0
-257.0,8.0,15.0,-38.0,93.0,-3.0,-1021.0,10.0,27.0
-259.0,6.0,13.0,-39.0,92.0,-4.0,-1022.0,10.0,24.0
-256.0,5.0,16.0,-43.0,91.0,-5.0,-1023.0,9.0,29.0
-257.0,3.0,12.0,-45.0,92.0,-7.0,-1029.0,10.0,22.0
-260.0,3.0,13.0,-47.0,93.0,-9.0,-1032.0,3.0,24.0
-259.0,5.0,13.0,-54.0,93.0,-13.0,-1026.0,4.0,25.0
-257.0,4.0,9.0,-61.0,93.0,-16.0,-1021.0,8.0,23.0
-257.0,8.0,13.0,-63.0,97.0,-16.0,-1025.0,3.0,27.0
-258.0,4.0,11.0,-62.0,100.0,-16.0,-1026.0,9.0,27.0
-258.0,6.0,14.0,-62.0,102.0,-16.0,-1016.0,2.0,26.0
-258.0,5.0,11.0,-66.0,102.0,-18.0,-1022.0,3.0,27.0
-256.0,6.0,12.0,-75.0,99.0,-20.0,-1023.0,1.0,27.0
-259.0,6.0,15.0,-82.0,100.0,-21.0,-1025.0,4.0,23.0
-258.0,3.0,15.0,-81.0,101.0,-20.0,-1024.0,2.0,25.0
-259.0,6.0,10.0,-77.0,102.0,-20.0,-1021.0,6.0,25.0
-260.0,8.0,11.0,-71.0,105.0,-19.0,-1029.0,1.0,23.0
-258.0,4.0,12.0,-64.0,108.0,-18.0,-1025.0,1.0,18.0
-257.0,3.0,12.0,-57.0,110.0,-17.0,-1024.0,0.0,23.0
-257.0,5.0,11.0,-53.0,111.0,-16.0,-1023.0,3.0,20.0
-256.0,5.0,10.0,-50.0,110.0,-13.0,-1006.0,0.0,21.0
-257.0,3.0,12.0,-50.0,108.0,-11.0,-1014.0,-4.0,26.0
-256.0,2.0,10.0,-50.0,105.0,-11.0,-1015.0,2.0,19.0
-256.0,3.0,13.0,-51.0,101.0,-11.0,-1022.0,-2.0,24.0
-257.0,4.0,9.0,-57.0,96.0,-12.0,-1014.0,-3.0,22.0
-256.0,1.0,11.0,-62.0,94.0,-13.0,-1020.0,1.0,22.0
-258.0,2.0,14.0,-62.0,92.0,-13.0,-1019.0,-2.0,24.0
-256.0,2.0,12.0,-59.0,91.0,-14.0,-1018.0,3.0,26.0
-258.0,6.0,13.0,-57.0,90.0,-13.0,-1021.0,1.0,29.0
-257.0,7.0,16.0,-58.0,87.0,-14.0,-1024.0,3.0,28.0
-258.0,7.0,12.0,-63.0,86.0,-16.0,-1021.0,8.0,29.0
-257.0,4.0,10.0,-60.0,85.0,-18.0,-1024.0,5.0,28.0
-259.0,3.0,14.0,-61.0,85.0,-19.0,-1012.0,5.0,32.0
-259.0,4.0,16.0,-58.0,87.0,-19.0,-1007.0,1.0,25.0
-258.0,2.0,12.0,-56.0,90.0,-20.0,-1022.0,-2.0,29.0
-259.0,6.0,14.0,-48.0,98.0,-20.0,-1023.0,1.0,32.0
-258.0,5.0,11.0,-40.0,106.0,-19.0,-1027.0,0.0,27.0
-258.0,2.0,16.0,-32.0,112.0,-18.0,-1019.0,-7.0,29.0
-257.0,2.0,14.0,-28.0,113.0,-17.0,-1023.0,-2.0,25.0
-258.0,2.0,18.0,-22.0,117.0,-14.0,-1023.0,0.0,26.0
-258.0,2.0,11.0,-19.0,119.0,-14.0,-1019.0,2.0,18.0
-257.0,4.0,12.0,-16.0,119.0,-13.0,-1017.0,2.0,16.0
-255.0,6.0,13.0,-14.0,119.0,-12.0,-1028.0,-3.0,18.0
-261.0,7.0,9.0,-12.0,121.0,-11.0,-1016.0,1.0,19.0
-258.0,5.0,11.0,-10.0,121.0,-11.0,-1024.0,1.0,16.0
-262.0,5.0,8.0,-10.0,117.0,-10.0,-1019.0,2.0,18.0
-256.0,7.0,10.0,-12.0,114.0,-11.0,-1014.0,5.0,17.0
-260.0,5.0,14.0,-15.0,112.0,-12.0,-1015.0,7.0,18.0
-258.0,5.0,12.0,-21.0,108.0,-14.0,-1006.0,7.0,16.0
-256.0,8.0,9.0,-26.0,105.0,-15.0,-1010.0,8.0,15.0
-260.0,7.0,12.0,-28.0,107.0,-13.0,-1013.0,9.0,14.0
-258.0,6.0,13.0,-27.0,108.0,-11.0,-1015.0,12.0,15.0
-257.0,3.0,10.0,-24.0,108.0,-13.0,-1019.0,7.0,18.0
-257.0,7.0,8.0,-19.0,109.0,-13.0,-1015.0,9.0,19.0
-259.0,7.0,12.0,-14.0,111.0,-16.0,-1018.0,5.0,20.0
-258.0,5.0,15.0,-14.0,111.0,-17.0,-1025.0,8.0,18.0
-258.0,6.0,10.0,-15.0,112.0,-18.0,-1019.0,8.0,15.0
-257.0,7.0,11.0,-18.0,110.0,-20.0,-1024.0,7.0,17.0
-257.0,1.0,9.0,-24.0,109.0,-21.0,-1026.0,1.0,19.0
-259.0,7.0,10.0,-27.0,110.0,-23.0,-1028.0,5.0,10.0
-261.0,5.0,9.0,-28.0,114.0,-24.0,-1019.0,1.0,15.0
-259.0,6.0,9.0,-30.0,115.0,-25.0,-1027.0,4.0,16.0
-260.0,3.0,8.0,-26.0,116.0,-24.0,-1024.0,-1.0,13.0
-259.0,3.0,10.0,-21.0,120.0,-20.0,-1022.0,3.0,10.0
-258.0,3.0,10.0,-15.0,121.0,-19.0,-1030.0,-2.0,10.0
-259.0,4.0,6.0,-13.0,120.0,-19.0,-1026.0,-3.0,7.0
-260.0,6.0,5.0,-11.0,121.0,-18.0,-1028.0,8.0,5.0
-259.0,3.0,5.0,-8.0,122.0,-18.0,-1026.0,2.0,11.0
-258.0,3.0,6.0,-8.0,120.0,-17.0,-1023.0,-2.0,3.0
-262.0,7.0,11.0,-10.0,117.0,-16.0,-1026.0,-1.0,7.0
-259.0,5.0,5.0,-7.0,115.0,-15.0,-1029.0,4.0,6.0
-260.0,2.0,11.0,-5.0,113.0,-16.0,-1028.0,1.0,6.0
-260.0,5.0,7.0,-4.0,110.0,-17.0,-1028.0,-1.0,2.0
-260.0,6.0,7.0,-6.0,107.0,-16.0,-1029.0,-5.0,1.0
-257.0,6.0,4.0,-8.0,105.0,-14.0,-1027.0,1.0,3.0
-262.0,7.0,8.0,-11.0,105.0,-14.0,-1027.0,2.0,5.0
-260.0,3.0,8.0,-12.0,102.0,-15.0,-1034.0,4.0,0.0
-259.0,2.0,8.0,-15.0,98.0,-16.0,-1033.0,-1.0,1.0
-261.0,4.0,6.0,-17.0,95.0,-16.0,-1031.0,0.0,0.0
-262.0,8.0,4.0,-20.0,94.0,-18.0,-1036.0,5.0,-4.0
-260.0,3.0,5.0,-23.0,94.0,-20.0,-1034.0,1.0,-4.0
-258.0,4.0,7.0,-22.0,97.0,-20.0,-1033.0,0.0,0.0
-258.0,3.0,7.0,-21.0,98.0,-23.0,-1033.0,0.0,0.0
-260.0,5.0,9.0,-18.0,102.0,-26.0,-1036.0,-4.0,-6.0
-259.0,0.0,7.0,-17.0,105.0,-28.0,-1033.0,-6.0,-1.0
-257.0,0.0,3.0,-17.0,104.0,-29.0,-1035.0,-8.0,6.0
-258.0,2.0,5.0,-19.0,104.0,-27.0,-1019.0,-5.0,5.0
-258.0,0.0,8.0,-19.0,104.0,-26.0,-1022.0,-8.0,2.0
-253.0,5.0,18.0,-23.0,101.0,-25.0,-1026.0,-9.0,8.0
-258.0,1.0,7.0,-23.0,100.0,-24.0,-1018.0,-5.0,5.0
-256.0,1.0,9.0,-24.0,97.0,-21.0,-1020.0,-9.0,10.0
-256.0,2.0,5.0,-26.0,96.0,-22.0,-1023.0,-7.0,12.0
-259.0,1.0,11.0,-28.0,95.0,-21.0,-1009.0,-8.0,9.0
-259.0,1.0,8.0,-30.0,95.0,-22.0,-1017.0,-12.0,9.0
-257.0,1.0,6.0,-33.0,94.0,-21.0,-1016.0,-8.0,6.0
-255.0,1.0,8.0,-35.0,95.0,-19.0,-1019.0,-3.0,6.0
-257.0,4.0,7.0,-37.0,95.0,-19.0,-1010.0,-2.0,11.0
-257.0,3.0,11.0,-40.0,93.0,-19.0,-1006.0,-2.0,8.0
-257.0,5.0,8.0,-44.0,93.0,-17.0,-1015.0,0.0,7.0
-257.0,2.0,10.0,-45.0,93.0,-16.0,-1021.0,2.0,11.0
-256.0,1.0,8.0,-44.0,96.0,-14.0,-1014.0,2.0,16.0
-255.0,2.0,10.0,-43.0,98.0,-13.0,-1018.0,-1.0,11.0
-256.0,4.0,7.0,-45.0,96.0,-11.0,-1014.0,2.0,17.0
-257.0,5.0,9.0,-46.0,97.0,-10.0,-1004.0,-4.0,16.0
-258.0,1.0,9.0,-46.0,97.0,-6.0,-1009.0,-7.0,14.0
-270.0,5.0,21.0,-46.0,90.0,-2.0,-1059.0,2.0,48.0
-275.0,7.0,24.0,-27.0,51.0,13.0,-1079.0,8.0,60.0
-255.0,7.0,11.0,-14.0,15.0,28.0,-1015.0,4.0,19.0
-253.0,2.0,6.0,-24.0,31.0,26.0,-987.0,-6.0,-5.0
-253.0,2.0,6.0,-37.0,59.0,20.0,-984.0,-10.0,-7.0
-249.0,-1.0,3.0,-43.0,75.0,12.0,-981.0,-4.0,-5.0
-250.0,-1.0,2.0,-52.0,85.0,9.0,-983.0,-8.0,-5.0
-253.0,5.0,8.0,-64.0,90.0,2.0,-981.0,-5.0,2.0
-254.0,-2.0,7.0,-72.0,90.0,-5.0,-985.0,-5.0,15.0
-255.0,2.0,14.0,-78.0,87.0,-11.0,-994.0,-6.0,20.0
-256.0,2.0,10.0,-81.0,83.0,-14.0,-997.0,-2.0,20.0
-256.0,3.0,10.0,-79.0,83.0,-16.0,-1004.0,0.0,18.0
-259.0,0.0,8.0,-71.0,87.0,-14.0,-1014.0,-9.0,12.0
-258.0,0.0,7.0,-57.0,93.0,-14.0,-1023.0,-5.0,0.0
-259.0,5.0,7.0,-39.0,103.0,-10.0,-1027.0,-2.0,-1.0
-260.0,0.0,3.0,-19.0,115.0,-8.0,-1030.0,0.0,-5.0
-261.0,3.0,3.0,1.0,122.0,-6.0,-1034.0,2.0,-5.0
-263.0,5.0,3.0,12.0,126.0,-6.0,-1037.0,4.0,-16.0
-262.0,8.0,7.0,18.0,122.0,-4.0,-1032.0,7.0,-9.0
-260.0,3.0,2.0,17.0,114.0,-4.0,-1032.0,4.0,-15.0
-260.0,7.0,4.0,13.0,105.0,-3.0,-1033.0,7.0,-10.0
-261.0,5.0,7.0,6.0,95.0,-3.0,-1034.0,4.0,-5.0
-259.0,5.0,7.0,-1.0,88.0,-2.0,-1035.0,4.0,-3.0
-259.0,3.0,8.0,-6.0,84.0,-3.0,-1031.0,0.0,-7.0
-261.0,3.0,9.0,-12.0,82.0,-5.0,-1032.0,-1.0,-6.0
-260.0,3.0,6.0,-16.0,86.0,-5.0,-1034.0,1.0,0.0
-258.0,1.0,9.0,-22.0,88.0,-8.0,-1031.0,-2.0,1.0
-259.0,3.0,7.0,-26.0,91.0,-10.0,-1028.0,-5.0,5.0
-259.0,-1.0,6.0,-34.0,94.0,-12.0,-1027.0,-12.0,8.0
-258.0,0.0,8.0,-40.0,95.0,-13.0,-1028.0,-7.0,13.0
-258.0,0.0,6.0,-42.0,97.0,-13.0,-1026.0,-12.0,15.0
-259.0,0.0,12.0,-37.0,102.0,-14.0,-1030.0,-12.0,10.0
-257.0,-4.0,8.0,-31.0,106.0,-15.0,-1027.0,-17.0,13.0
-257.0,1.0,8.0,-23.0,110.0,-14.0,-1028.0,-21.0,7.0
-258.0,1.0,9.0,-14.0,114.0,-15.0,-1030.0,-14.0,10.0
-258.0,1.0,4.0,-9.0,115.0,-15.0,-1005.0,-22.0,9.0
-258.0,1.0,8.0,-6.0,119.0,-16.0,-1027.0,-17.0,3.0
-260.0,0.0,9.0,-3.0,119.0,-18.0,-1031.0,-16.0,1.0
-256.0,0.0,5.0,3.0,121.0,-17.0,-1025.0,-17.0,-2.0
-257.0,-2.0,7.0,10.0,122.0,-17.0,-1018.0,-8.0,3.0
-260.0,2.0,5.0,16.0,123.0,-15.0,-1017.0,-8.0,-3.0
-258.0,3.0,10.0,22.0,121.0,-15.0,-1025.0,-7.0,1.0
-257.0,0.0,8.0,23.0,115.0,-15.0,-1023.0,-4.0,-3.0
-260.0,3.0,5.0,25.0,109.0,-14.0,-1026.0,-3.0,-5.0
-257.0,2.0,8.0,27.0,101.0,-13.0,-1022.0,-8.0,-2.0
-256.0,5.0,3.0,30.0,95.0,-13.0,-1026.0,1.0,-9.0
-257.0,1.0,2.0,31.0,88.0,-13.0,-1017.0,-3.0,-9.0
-256.0,1.0,4.0,30.0,83.0,-14.0,-1023.0,-3.0,-8.0
-259.0,3.0,4.0,30.0,83.0,-12.0,-1023.0,0.0,-7.0
-260.0,4.0,-1.0,30.0,82.0,-13.0,-1026.0,1.0,-8.0
-256.0,3.0,4.0,27.0,80.0,-12.0,-1019.0,0.0,-12.0
-257.0,4.0,6.0,24.0,79.0,-11.0,-1025.0,-3.0,-9.0
-257.0,7.0,2.0,22.0,75.0,-11.0,-1019.0,0.0,-12.0
-255.0,2.0,2.0,20.0,74.0,-10.0,-1024.0,0.0,-9.0
-260.0,7.0,5.0,23.0,72.0,-8.0,-1028.0,-2.0,-9.0
-258.0,5.0,5.0,26.0,73.0,-8.0,-1027.0,-1.0,-8.0
-259.0,1.0,3.0,28.0,74.0,-8.0,-1026.0,0.0,-8.0
-258.0,5.0,10.0,28.0,74.0,-9.0,-1026.0,-1.0,-5.0
-259.0,3.0,5.0,26.0,73.0,-8.0,-1026.0,3.0,-7.0
-258.0,3.0,3.0,22.0,71.0,-6.0,-1026.0,1.0,-16.0
-258.0,3.0,3.0,17.0,70.0,-6.0,-1020.0,-1.0,-6.0
-257.0,0.0,5.0,10.0,69.0,-4.0,-1029.0,1.0,-6.0
-259.0,2.0,5.0,6.0,65.0,-4.0,-1029.0,-1.0,-9.0
-260.0,1.0,4.0,2.0,63.0,-4.0,-1027.0,-7.0,-10.0
-257.0,1.0,3.0,-1.0,63.0,-5.0,-1023.0,-1.0,-5.0
-259.0,1.0,7.0,-5.0,64.0,-4.0,-1026.0,-3.0,-4.0
-257.0,0.0,2.0,-6.0,67.0,-4.0,-1026.0,-2.0,-7.0
-256.0,0.0,2.0,-5.0,69.0,-3.0,-1026.0,-4.0,-6.0
-258.0,4.0,5.0,-5.0,69.0,-2.0,-1027.0,-7.0,-9.0
-257.0,-2.0,9.0,-5.0,69.0,-3.0,-1027.0,-2.0,4.0
-259.0,2.0,7.0,-7.0,70.0,-5.0,-1022.0,-1.0,-2.0
-259.0,3.0,7.0,-6.0,71.0,-6.0,-1021.0,-7.0,1.0
-258.0,5.0,5.0,-7.0,73.0,-5.0,-1025.0,-6.0,-1.0
-260.0,5.0,6.0,-8.0,74.0,-6.0,-1018.0,-4.0,-4.0
-257.0,1.0,6.0,-10.0,75.0,-6.0,-1027.0,-3.0,-4.0
-259.0,3.0,6.0,-14.0,77.0,-5.0,-1023.0,0.0,-3.0
-258.0,3.0,4.0,-18.0,76.0,-4.0,-1029.0,-2.0,0.0
-257.0,3.0,5.0,-21.0,80.0,-3.0,-1022.0,-2.0,3.0
-259.0,0.0,6.0,-24.0,78.0,-3.0,-1024.0,-4.0,-5.0
-258.0,1.0,6.0,-26.0,78.0,-3.0,-1008.0,-9.0,5.0
-257.0,5.0,6.0,-28.0,76.0,-3.0,-1023.0,-1.0,-1.0
-259.0,3.0,6.0,-28.0,74.0,-2.0,-1021.0,-4.0,1.0
-256.0,-1.0,6.0,-28.0,72.0,-1.0,-1017.0,-12.0,0.0
-257.0,0.0,8.0,-22.0,72.0,-1.0,-1018.0,-12.0,1.0
-260.0,2.0,4.0,-18.0,72.0,0.0,-1023.0,-10.0,-5.0
-257.0,0.0,4.0,-16.0,76.0,-1.0,-1028.0,-8.0,-5.0
-256.0,4.0,5.0,-13.0,77.0,0.0,-1017.0,-9.0,-6.0
-258.0,0.0,6.0,-12.0,78.0,-1.0,-1031.0,-11.0,-5.0
-257.0,0.0,5.0,-10.0,80.0,-1.0,-1012.0,-7.0,-4.0
-257.0,0.0,3.0,-10.0,81.0,-2.0,-1016.0,-6.0,-5.0
-256.0,5.0,8.0,-11.0,80.0,-1.0,-1022.0,-9.0,-3.0
-258.0,4.0,5.0,-12.0,81.0,-3.0,-1020.0,1.0,-1.0
-258.0,0.0,5.0,-14.0,80.0,-1.0,-1024.0,-5.0,-3.0
-257.0,2.0,0.0,-17.0,79.0,-3.0,-1014.0,-6.0,-5.0
-260.0,3.0,8.0,-22.0,79.0,-3.0,-1016.0,-2.0,1.0
-258.0,6.0,8.0,-27.0,79.0,-4.0,-1026.0,-3.0,-2.0
-260.0,4.0,4.0,-31.0,78.0,-3.0,-1024.0,-8.0,-1.0
-259.0,2.0,5.0,-33.0,77.0,-4.0,-1030.0,-8.0,0.0
-261.0,5.0,5.0,-34.0,77.0,-6.0,-1026.0,-6.0,2.0
-258.0,3.0,6.0,-34.0,78.0,-5.0,-1019.0,-10.0,0.0
-259.0,0.0,6.0,-32.0,82.0,-5.0,-1028.0,-10.0,-3.0
-259.0,0.0,7.0,-28.0,85.0,-5.0,-1026.0,-8.0,-3.0
-258.0,-2.0,4.0,-23.0,86.0,-4.0,-1029.0,-8.0,-6.0
-282.0,5.0,18.0,-17.0,87.0,-5.0,-1088.0,2.0,34.0
-280.0,4.0,13.0,-2.0,49.0,6.0,-1104.0,6.0,44.0
-255.0,7.0,1.0,11.0,7.0,20.0,-1005.0,0.0,-23.0
-263.0,-3.0,-1.0,2.0,38.0,19.0,-1033.0,-8.0,-19.0
-255.0,2.0,0.0,6.0,54.0,18.0,-1007.0,-9.0,-24.0
