acc1_x,acc1_y,acc1_z,gyro_x,gyro_y,gyro_z,acc2_x,acc2_y,acc2_z
-8.0,-256.0,-6.0,-1.0,42.0,-7.0,-21.0,-993.0,-56.0
-12.0,-254.0,-5.0,1.0,44.0,-10.0,-18.0,-998.0,-58.0
-10.0,-256.0,-9.0,0.0,46.0,-11.0,-20.0,-992.0,-56.0
-13.0,-255.0,-5.0,-1.0,46.0,-11.0,-18.0,-991.0,-53.0
-11.0,-256.0,-3.0,-2.0,49.0,-12.0,-22.0,-1004.0,-52.0
-8.0,-259.0,-11.0,-4.0,52.0,-12.0,-19.0,-1002.0,-54.0
-11.0,-257.0,-4.0,-4.0,56.0,-12.0,-18.0,-1000.0,-56.0
-12.0,-258.0,-5.0,-6.0,60.0,-12.0,-19.0,-1000.0,-58.0
-14.0,-255.0,-7.0,-7.0,65.0,-11.0,-11.0,-999.0,-52.0
-14.0,-258.0,1.0,-8.0,67.0,-9.0,-18.0,-999.0,-55.0
-11.0,-258.0,-5.0,-8.0,70.0,-7.0,-16.0,-1006.0,-51.0
-14.0,-258.0,-5.0,-7.0,71.0,-7.0,-22.0,-1006.0,-52.0
-15.0,-258.0,-5.0,-7.0,71.0,-5.0,-21.0,-1003.0,-50.0
-14.0,-261.0,-4.0,-5.0,72.0,-5.0,-22.0,-1005.0,-57.0
-16.0,-257.0,-6.0,-5.0,74.0,-4.0,-24.0,-1006.0,-57.0
-13.0,-258.0,-4.0,-3.0,73.0,-3.0,-26.0,-1006.0,-56.0
-13.0,-256.0,-2.0,-3.0,73.0,-2.0,-29.0,-997.0,-56.0
-14.0,-258.0,-6.0,-5.0,72.0,-1.0,-22.0,-999.0,-54.0
-2.0,-257.0,-14.0,-6.0,72.0,-3.0,-23.0,-998.0,-56.0
-13.0,-258.0,-3.0,-6.0,71.0,-3.0,-25.0,-997.0,-62.0
-14.0,-260.0,-4.0,-3.0,70.0,-1.0,-25.0,-996.0,-53.0
-13.0,-258.0,-3.0,-1.0,68.0,-2.0,-20.0,-994.0,-51.0
-12.0,-255.0,-4.0,1.0,66.0,0.0,-24.0,-993.0,-56.0
-13.0,-258.0,-6.0,2.0,66.0,2.0,-23.0,-993.0,-54.0
-12.0,-253.0,-5.0,0.0,65.0,2.0,-20.0,-987.0,-56.0
-13.0,-255.0,-9.0,-3.0,64.0,3.0,-22.0,-999.0,-51.0
-14.0,-256.0,-2.0,-8.0,63.0,2.0,-20.0,-992.0,-54.0
-14.0,-252.0,-4.0,-14.0,63.0,1.0,-27.0,-981.0,-53.0
-12.0,-253.0,-3.0,-20.0,63.0,0.0,-28.0,-979.0,-51.0
-14.0,-254.0,-3.0,-23.0,63.0,-2.0,-18.0,-982.0,-49.0
-13.0,-256.0,-4.0,-25.0,62.0,-4.0,-19.0,-980.0,-46.0
-14.0,-254.0,-3.0,-25.0,61.0,-6.0,-22.0,-979.0,-47.0
-15.0,-254.0,-3.0,-22.0,63.0,-5.0,-21.0,-984.0,-46.0
-15.0,-256.0,-1.0,-18.0,64.0,-6.0,-23.0,-986.0,-51.0
-12.0,-257.0,-6.0,-13.0,65.0,-9.0,-21.0,-985.0,-50.0
-14.0,-257.0,-3.0,-6.0,66.0,-9.0,-22.0,-997.0,-51.0
-17.0,-253.0,-2.0,0.0,68.0,-8.0,-27.0,-999.0,-50.0
-14.0,-257.0,-3.0,3.0,71.0,-6.0,-24.0,-1004.0,-57.0
-15.0,-257.0,-3.0,6.0,72.0,-7.0,-22.0,-1007.0,-52.0
-14.0,-260.0,-9.0,5.0,73.0,-4.0,-22.0,-1006.0,-51.0
-11.0,-258.0,-6.0,2.0,73.0,-3.0,-26.0,-1006.0,-57.0
-16.0,-254.0,-6.0,-1.0,73.0,-3.0,-22.0,-1007.0,-54.0
-14.0,-260.0,-6.0,-5.0,72.0,-3.0,-22.0,-1005.0,-50.0
-14.0,-259.0,-6.0,-6.0,71.0,-2.0,-19.0,-1005.0,-54.0
-15.0,-256.0,-8.0,-6.0,71.0,-2.0,-24.0,-999.0,-54.0
-13.0,-257.0,-3.0,-5.0,71.0,-1.0,-25.0,-985.0,-58.0
-13.0,-257.0,-3.0,-1.0,71.0,-2.0,-17.0,-986.0,-63.0
-11.0,-254.0,-7.0,4.0,72.0,-4.0,-23.0,-992.0,-61.0
-6.0,-256.0,-5.0,9.0,70.0,-4.0,-23.0,-983.0,-58.0
-12.0,-254.0,-8.0,15.0,71.0,-6.0,-20.0,-985.0,-56.0
-14.0,-253.0,-6.0,21.0,69.0,-8.0,-28.0,-983.0,-58.0
-14.0,-255.0,-7.0,27.0,70.0,-10.0,-26.0,-984.0,-59.0
-15.0,-255.0,-3.0,34.0,70.0,-12.0,-28.0,-986.0,-51.0
-14.0,-254.0,-6.0,37.0,71.0,-14.0,-26.0,-1001.0,-57.0
-16.0,-257.0,-7.0,39.0,69.0,-13.0,-29.0,-994.0,-57.0
-15.0,-256.0,-6.0,39.0,69.0,-13.0,-27.0,-998.0,-55.0
-15.0,-256.0,-5.0,38.0,69.0,-13.0,-26.0,-1007.0,-60.0
-15.0,-258.0,-3.0,35.0,70.0,-10.0,-22.0,-1003.0,-58.0
-14.0,-256.0,-8.0,34.0,68.0,-9.0,-22.0,-1003.0,-58.0
-9.0,-258.0,-5.0,30.0,67.0,-8.0,-21.0,-1008.0,-58.0
-13.0,-258.0,-7.0,29.0,67.0,-7.0,-24.0,-999.0,-54.0
-13.0,-259.0,-6.0,31.0,64.0,-5.0,-22.0,-1003.0,-57.0
-14.0,-256.0,-6.0,33.0,63.0,-4.0,-23.0,-1007.0,-56.0
-16.0,-254.0,-7.0,36.0,64.0,-3.0,-28.0,-983.0,-54.0
-14.0,-257.0,-1.0,37.0,62.0,-4.0,-24.0,-996.0,-56.0
-15.0,-253.0,-7.0,37.0,62.0,-5.0,-27.0,-984.0,-57.0
-12.0,-255.0,-5.0,36.0,63.0,-5.0,-26.0,-994.0,-53.0
-13.0,-255.0,-2.0,37.0,61.0,-5.0,-22.0,-991.0,-47.0
-16.0,-253.0,-3.0,35.0,62.0,-7.0,-25.0,-980.0,-51.0
-14.0,-254.0,-8.0,31.0,62.0,-6.0,-28.0,-980.0,-48.0
-13.0,-254.0,-1.0,28.0,65.0,-6.0,-24.0,-987.0,-47.0
-15.0,-252.0,-6.0,28.0,66.0,-7.0,-21.0,-981.0,-51.0
-12.0,-254.0,-5.0,27.0,66.0,-5.0,-30.0,-979.0,-48.0
-13.0,-257.0,-5.0,28.0,66.0,-7.0,-29.0,-991.0,-46.0
-12.0,-254.0,-6.0,29.0,65.0,-6.0,-25.0,-993.0,-47.0
-12.0,-257.0,-4.0,28.0,64.0,-5.0,-24.0,-992.0,-47.0
-14.0,-257.0,-3.0,28.0,65.0,-5.0,-27.0,-997.0,-45.0
-12.0,-255.0,-5.0,26.0,64.0,-5.0,-20.0,-1003.0,-44.0
-15.0,-255.0,-2.0,23.0,63.0,-6.0,-21.0,-993.0,-39.0
-13.0,-255.0,0.0,20.0,63.0,-6.0,-31.0,-1002.0,-40.0
-15.0,-255.0,-1.0,17.0,63.0,-6.0,-24.0,-995.0,-39.0
-15.0,-256.0,-2.0,13.0,63.0,-8.0,-27.0,-1000.0,-37.0
-15.0,-257.0,-3.0,11.0,64.0,-7.0,-26.0,-996.0,-39.0
-14.0,-257.0,0.0,11.0,64.0,-6.0,-29.0,-995.0,-43.0
-16.0,-255.0,1.0,13.0,65.0,-7.0,-27.0,-993.0,-39.0
-16.0,-255.0,-4.0,17.0,64.0,-6.0,-27.0,-993.0,-38.0
-12.0,-256.0,-4.0,22.0,64.0,-7.0,-27.0,-1002.0,-41.0
-15.0,-254.0,-1.0,29.0,62.0,-6.0,-22.0,-993.0,-42.0
-16.0,-256.0,-3.0,33.0,63.0,-8.0,-23.0,-999.0,-37.0
-15.0,-256.0,-3.0,37.0,65.0,-8.0,-27.0,-988.0,-41.0
-15.0,-254.0,0.0,40.0,63.0,-9.0,-24.0,-993.0,-35.0
-13.0,-255.0,-2.0,41.0,64.0,-9.0,-30.0,-992.0,-36.0
-15.0,-256.0,-1.0,42.0,65.0,-9.0,-25.0,-997.0,-39.0
-10.0,-257.0,-1.0,44.0,65.0,-11.0,-30.0,-990.0,-35.0
-14.0,-257.0,0.0,44.0,66.0,-11.0,-27.0,-995.0,-32.0
-13.0,-257.0,1.0,44.0,66.0,-10.0,-26.0,-998.0,-30.0
-13.0,-257.0,-1.0,43.0,66.0,-10.0,-23.0,-993.0,-33.0
-14.0,-255.0,2.0,42.0,67.0,-11.0,-23.0,-998.0,-33.0
-17.0,-256.0,-2.0,41.0,66.0,-11.0,-28.0,-991.0,-24.0
-10.0,-258.0,1.0,39.0,67.0,-11.0,-24.0,-991.0,-28.0
-13.0,-259.0,1.0,38.0,66.0,-10.0,-22.0,-996.0,-29.0
-10.0,-253.0,-2.0,38.0,65.0,-10.0,-25.0,-998.0,-28.0
-9.0,-252.0,1.0,37.0,64.0,-11.0,-24.0,-992.0,-33.0
-16.0,-254.0,4.0,37.0,63.0,-10.0,-21.0,-993.0,-33.0
-16.0,-255.0,-4.0,37.0,64.0,-11.0,-26.0,-985.0,-33.0
-14.0,-254.0,-2.0,36.0,65.0,-12.0,-23.0,-985.0,-27.0
-14.0,-255.0,-2.0,36.0,65.0,-11.0,-24.0,-983.0,-34.0
-9.0,-253.0,3.0,36.0,66.0,-11.0,-17.0,-984.0,-29.0
-12.0,-253.0,1.0,36.0,66.0,-12.0,-26.0,-987.0,-35.0
-17.0,-255.0,2.0,33.0,64.0,-14.0,-27.0,-987.0,-24.0
-13.0,-253.0,-1.0,34.0,67.0,-14.0,-20.0,-988.0,-34.0
-13.0,-256.0,0.0,38.0,68.0,-12.0,-27.0,-983.0,-33.0
-16.0,-257.0,4.0,40.0,68.0,-13.0,-23.0,-997.0,-30.0
-12.0,-259.0,3.0,40.0,67.0,-13.0,-23.0,-993.0,-33.0
-11.0,-255.0,1.0,37.0,67.0,-12.0,-26.0,-1002.0,-32.0
-12.0,-257.0,2.0,37.0,68.0,-14.0,-30.0,-999.0,-26.0
-13.0,-258.0,-1.0,34.0,68.0,-14.0,-22.0,-987.0,-30.0
-12.0,-256.0,2.0,33.0,68.0,-13.0,-21.0,-989.0,-29.0
-12.0,-256.0,4.0,31.0,68.0,-12.0,-22.0,-989.0,-30.0
-11.0,-256.0,2.0,31.0,68.0,-14.0,-20.0,-997.0,-25.0
-10.0,-258.0,2.0,31.0,68.0,-13.0,-18.0,-1002.0,-25.0
-13.0,-255.0,2.0,33.0,68.0,-14.0,-21.0,-986.0,-25.0
-11.0,-257.0,0.0,35.0,68.0,-14.0,-18.0,-993.0,-29.0
-12.0,-257.0,1.0,37.0,66.0,-13.0,-21.0,-987.0,-25.0
-13.0,-255.0,2.0,38.0,68.0,-12.0,-21.0,-1003.0,-29.0
-12.0,-256.0,1.0,39.0,68.0,-11.0,-14.0,-997.0,-28.0
-11.0,-257.0,-1.0,39.0,67.0,-11.0,-16.0,-991.0,-30.0
-10.0,-256.0,0.0,39.0,67.0,-11.0,-14.0,-990.0,-28.0
-12.0,-256.0,3.0,39.0,67.0,-11.0,-16.0,-988.0,-25.0
-14.0,-255.0,4.0,38.0,67.0,-11.0,-18.0,-989.0,-31.0
-12.0,-256.0,2.0,38.0,67.0,-11.0,-20.0,-991.0,-26.0
-12.0,-256.0,0.0,39.0,66.0,-12.0,-23.0,-999.0,-22.0
-12.0,-257.0,0.0,38.0,65.0,-10.0,-19.0,-992.0,-19.0
-12.0,-257.0,2.0,38.0,64.0,-10.0,-19.0,-998.0,-25.0
-12.0,-257.0,1.0,37.0,64.0,-10.0,-23.0,-987.0,-24.0
-11.0,-257.0,5.0,36.0,63.0,-9.0,-18.0,-993.0,-27.0
-12.0,-256.0,3.0,34.0,64.0,-9.0,-17.0,-993.0,-24.0
-13.0,-259.0,6.0,32.0,63.0,-7.0,-17.0,-993.0,-22.0
-12.0,-255.0,0.0,30.0,63.0,-7.0,-18.0,-985.0,-26.0
-14.0,-256.0,4.0,30.0,63.0,-8.0,-22.0,-992.0,-27.0
-11.0,-254.0,3.0,30.0,63.0,-9.0,-19.0,-984.0,-24.0
-12.0,-254.0,2.0,31.0,62.0,-9.0,-16.0,-995.0,-24.0
-10.0,-255.0,2.0,31.0,62.0,-10.0,-19.0,-993.0,-19.0
-9.0,-257.0,2.0,30.0,62.0,-9.0,-18.0,-987.0,-17.0
-11.0,-257.0,-1.0,32.0,62.0,-9.0,-16.0,-984.0,-23.0
-13.0,-255.0,4.0,31.0,61.0,-10.0,-19.0,-989.0,-21.0
-12.0,-254.0,3.0,32.0,62.0,-10.0,-20.0,-988.0,-22.0
-11.0,-255.0,0.0,30.0,61.0,-10.0,-19.0,-991.0,-21.0
-10.0,-253.0,2.0,27.0,62.0,-11.0,-22.0,-989.0,-21.0
-13.0,-251.0,5.0,26.0,63.0,-9.0,-18.0,-992.0,-20.0
-12.0,-253.0,3.0,25.0,62.0,-9.0,-17.0,-983.0,-19.0
-9.0,-253.0,2.0,23.0,62.0,-8.0,-14.0,-999.0,-15.0
-8.0,-258.0,3.0,20.0,61.0,-7.0,-20.0,-993.0,-19.0
-14.0,-256.0,7.0,19.0,62.0,-7.0,-15.0,-988.0,-19.0
-12.0,-254.0,5.0,18.0,63.0,-5.0,-20.0,-988.0,-15.0
-11.0,-255.0,5.0,15.0,64.0,-2.0,-15.0,-985.0,-26.0
-16.0,-254.0,2.0,12.0,63.0,-2.0,-18.0,-999.0,-21.0
-9.0,-255.0,2.0,11.0,63.0,-1.0,-20.0,-991.0,-23.0
-11.0,-255.0,4.0,11.0,62.0,-1.0,-21.0,-991.0,-19.0
-12.0,-257.0,7.0,10.0,62.0,0.0,-17.0,-992.0,-19.0
-12.0,-258.0,2.0,10.0,60.0,-3.0,-17.0,-988.0,-18.0
-13.0,-257.0,4.0,10.0,61.0,-2.0,-17.0,-993.0,-22.0
-13.0,-253.0,3.0,11.0,62.0,-2.0,-23.0,-993.0,-18.0
-12.0,-257.0,3.0,11.0,65.0,-4.0,-17.0,-993.0,-20.0
-11.0,-258.0,2.0,12.0,67.0,-3.0,-19.0,-996.0,-22.0
-13.0,-257.0,4.0,13.0,67.0,-3.0,-16.0,-998.0,-21.0
-12.0,-256.0,2.0,13.0,69.0,-3.0,-18.0,-996.0,-23.0
-10.0,-252.0,9.0,13.0,68.0,-1.0,-20.0,-994.0,-20.0
-13.0,-254.0,3.0,11.0,68.0,1.0,-18.0,-987.0,-17.0
-13.0,-253.0,8.0,8.0,66.0,1.0,-23.0,-986.0,-15.0
-13.0,-255.0,5.0,6.0,66.0,-1.0,-19.0,-985.0,-19.0
-13.0,-255.0,0.0,3.0,65.0,-1.0,-17.0,-982.0,-11.0
-13.0,-255.0,-3.0,1.0,65.0,-3.0,-22.0,-985.0,-16.0
-12.0,-254.0,3.0,-1.0,64.0,-6.0,-23.0,-990.0,-17.0
-11.0,-253.0,3.0,-2.0,64.0,-7.0,-25.0,-992.0,-20.0
-13.0,-256.0,4.0,-1.0,66.0,-8.0,-20.0,-992.0,-21.0
-9.0,-257.0,3.0,-2.0,68.0,-8.0,-20.0,-992.0,-19.0
-12.0,-254.0,1.0,-2.0,69.0,-6.0,-18.0,-986.0,-18.0
-13.0,-254.0,5.0,0.0,73.0,-5.0,-23.0,-994.0,-19.0
-14.0,-255.0,3.0,2.0,74.0,-5.0,-17.0,-1004.0,-17.0
-11.0,-258.0,5.0,3.0,74.0,-3.0,-17.0,-998.0,-17.0
-12.0,-256.0,4.0,1.0,73.0,-2.0,-17.0,-1005.0,-14.0
-13.0,-257.0,4.0,-2.0,72.0,-1.0,-13.0,-1005.0,-18.0
-12.0,-259.0,4.0,-7.0,70.0,0.0,-19.0,-1005.0,-13.0
-13.0,-258.0,5.0,-12.0,70.0,1.0,-16.0,-995.0,-18.0
-13.0,-261.0,4.0,-16.0,73.0,0.0,-18.0,-1003.0,-9.0
-14.0,-255.0,5.0,-18.0,70.0,2.0,-20.0,-1004.0,-16.0
-15.0,-255.0,5.0,-19.0,71.0,1.0,-18.0,-993.0,-13.0
-12.0,-256.0,7.0,-19.0,71.0,-1.0,-17.0,-988.0,-17.0
-15.0,-258.0,11.0,-18.0,70.0,1.0,-21.0,-983.0,-18.0
-11.0,-255.0,3.0,-16.0,71.0,0.0,-29.0,-981.0,-19.0
-13.0,-251.0,3.0,-14.0,72.0,0.0,-15.0,-983.0,-22.0
-12.0,-254.0,2.0,-11.0,73.0,-3.0,-17.0,-981.0,-19.0
-13.0,-255.0,6.0,-9.0,73.0,-4.0,-18.0,-989.0,-22.0
-10.0,-254.0,5.0,-6.0,74.0,-3.0,-20.0,-985.0,-19.0
-11.0,-255.0,6.0,-5.0,73.0,-6.0,-16.0,-984.0,-13.0
-14.0,-256.0,-1.0,-3.0,74.0,-5.0,-26.0,-982.0,-10.0
-13.0,-254.0,6.0,-4.0,74.0,-5.0,-21.0,-988.0,-15.0
-11.0,-256.0,7.0,-7.0,73.0,-5.0,-18.0,-989.0,-14.0
-14.0,-256.0,2.0,-12.0,72.0,-4.0,-20.0,-995.0,-9.0
-14.0,-256.0,7.0,-15.0,72.0,-3.0,-22.0,-999.0,-12.0
-14.0,-255.0,7.0,-18.0,72.0,-1.0,-20.0,-1002.0,-16.0
-13.0,-256.0,5.0,-19.0,71.0,-2.0,-22.0,-993.0,-14.0
-15.0,-253.0,4.0,-19.0,70.0,0.0,-17.0,-993.0,-14.0
-13.0,-255.0,5.0,-19.0,69.0,-1.0,-14.0,-984.0,-16.0
-12.0,-255.0,6.0,-17.0,66.0,-1.0,-23.0,-995.0,-10.0
-14.0,-253.0,5.0,-16.0,66.0,-1.0,-22.0,-984.0,-16.0
-11.0,-254.0,6.0,-18.0,66.0,-1.0,-20.0,-990.0,-8.0
-11.0,-256.0,5.0,-19.0,68.0,-1.0,-21.0,-984.0,-11.0
-14.0,-251.0,2.0,-22.0,69.0,-1.0,-21.0,-983.0,-13.0
-5.0,-257.0,-1.0,-24.0,70.0,-1.0,-16.0,-991.0,-18.0
-12.0,-254.0,6.0,-27.0,70.0,-2.0,-21.0,-981.0,-17.0
-11.0,-255.0,1.0,-31.0,72.0,0.0,-18.0,-982.0,-20.0
-13.0,-255.0,4.0,-34.0,73.0,-1.0,-20.0,-984.0,-20.0
-13.0,-252.0,5.0,-36.0,74.0,0.0,-18.0,-991.0,-17.0
-14.0,-255.0,6.0,-39.0,75.0,1.0,-15.0,-992.0,-16.0
-13.0,-254.0,3.0,-42.0,75.0,1.0,-20.0,-997.0,-16.0
-10.0,-257.0,3.0,-43.0,75.0,2.0,-16.0,-989.0,-18.0
-12.0,-255.0,3.0,-46.0,74.0,4.0,-19.0,-992.0,-17.0
-13.0,-256.0,6.0,-47.0,73.0,3.0,-18.0,-987.0,-22.0
-14.0,-255.0,4.0,-50.0,73.0,4.0,-17.0,-984.0,-18.0
-14.0,-253.0,3.0,-52.0,73.0,2.0,-21.0,-997.0,-18.0
-14.0,-257.0,2.0,-54.0,72.0,2.0,-17.0,-986.0,-19.0
-11.0,-256.0,5.0,-56.0,72.0,4.0,-20.0,-992.0,-20.0
-13.0,-254.0,-1.0,-57.0,72.0,6.0,-19.0,-992.0,-22.0
-14.0,-256.0,3.0,-58.0,71.0,8.0,-21.0,-986.0,-22.0
-13.0,-257.0,1.0,-58.0,71.0,9.0,-16.0,-1001.0,-21.0
-11.0,-258.0,2.0,-58.0,72.0,10.0,-18.0,-997.0,-23.0
-14.0,-256.0,2.0,-57.0,72.0,8.0,-20.0,-999.0,-25.0
-12.0,-256.0,1.0,-56.0,74.0,10.0,-19.0,-1000.0,-23.0
-12.0,-255.0,8.0,-58.0,75.0,10.0,-18.0,-997.0,-19.0
-12.0,-257.0,3.0,-61.0,75.0,11.0,-25.0,-996.0,-21.0
-8.0,-253.0,3.0,-64.0,74.0,10.0,-21.0,-988.0,-26.0
-14.0,-257.0,3.0,-68.0,74.0,9.0,-18.0,-993.0,-19.0
-11.0,-253.0,3.0,-71.0,73.0,10.0,-19.0,-990.0,-26.0
-13.0,-257.0,3.0,-73.0,72.0,9.0,-18.0,-1000.0,-20.0
-15.0,-254.0,2.0,-73.0,71.0,8.0,-21.0,-997.0,-21.0
-13.0,-255.0,1.0,-72.0,71.0,9.0,-19.0,-985.0,-22.0
-10.0,-256.0,2.0,-72.0,71.0,9.0,-19.0,-987.0,-24.0
-14.0,-257.0,-2.0,-71.0,70.0,9.0,-24.0,-983.0,-22.0
-11.0,-257.0,6.0,-71.0,72.0,9.0,-27.0,-989.0,-27.0
-12.0,-256.0,0.0,-72.0,72.0,8.0,-26.0,-997.0,-26.0
-15.0,-255.0,2.0,-75.0,72.0,9.0,-25.0,-993.0,-21.0
-11.0,-256.0,2.0,-79.0,74.0,7.0,-20.0,-981.0,-26.0
-16.0,-256.0,4.0,-85.0,75.0,9.0,-23.0,-988.0,-24.0
-11.0,-254.0,2.0,-92.0,75.0,7.0,-23.0,-987.0,-26.0
-13.0,-256.0,-1.0,-97.0,75.0,7.0,-23.0,-988.0,-23.0
-15.0,-253.0,2.0,-101.0,77.0,7.0,-18.0,-994.0,-29.0
-14.0,-255.0,-1.0,-105.0,77.0,8.0,-23.0,-985.0,-24.0
-11.0,-254.0,1.0,-108.0,76.0,8.0,-20.0,-991.0,-22.0
-12.0,-254.0,4.0,-108.0,75.0,9.0,-19.0,-998.0,-28.0
-14.0,-257.0,2.0,-106.0,74.0,9.0,-23.0,-993.0,-31.0
-13.0,-253.0,-1.0,-105.0,73.0,9.0,-25.0,-982.0,-31.0
-13.0,-255.0,0.0,-101.0,72.0,9.0,-24.0,-985.0,-26.0
-14.0,-257.0,3.0,-99.0,71.0,9.0,-21.0,-986.0,-24.0
-13.0,-252.0,-2.0,-96.0,73.0,11.0,-22.0,-982.0,-29.0
-13.0,-256.0,-2.0,-92.0,73.0,11.0,-18.0,-1000.0,-25.0
-12.0,-255.0,-2.0,-85.0,73.0,11.0,-26.0,-992.0,-29.0
-13.0,-256.0,-3.0,-78.0,74.0,11.0,-29.0,-994.0,-31.0
-14.0,-255.0,0.0,-72.0,75.0,10.0,-25.0,-998.0,-37.0
-13.0,-257.0,-1.0,-65.0,74.0,11.0,-28.0,-994.0,-39.0
-13.0,-253.0,0.0,-64.0,74.0,12.0,-27.0,-993.0,-39.0
-13.0,-254.0,-3.0,-64.0,74.0,12.0,-27.0,-993.0,-37.0
-15.0,-254.0,-1.0,-64.0,75.0,13.0,-20.0,-986.0,-38.0
-14.0,-257.0,1.0,-65.0,77.0,13.0,-21.0,-992.0,-36.0
-12.0,-256.0,-2.0,-65.0,77.0,13.0,-22.0,-993.0,-37.0
-11.0,-259.0,-3.0,-64.0,76.0,12.0,-24.0,-999.0,-34.0
-14.0,-254.0,0.0,-63.0,76.0,12.0,-23.0,-993.0,-36.0
-12.0,-254.0,0.0,-60.0,74.0,12.0,-28.0,-988.0,-37.0
-15.0,-256.0,-4.0,-56.0,73.0,9.0,-29.0,-994.0,-41.0
-14.0,-255.0,-6.0,-52.0,70.0,11.0,-28.0,-1000.0,-45.0
-13.0,-255.0,-2.0,-48.0,70.0,10.0,-23.0,-995.0,-40.0
-12.0,-259.0,-4.0,-45.0,71.0,9.0,-25.0,-987.0,-43.0
-13.0,-260.0,-3.0,-42.0,69.0,9.0,-28.0,-988.0,-39.0
-15.0,-254.0,-6.0,-40.0,66.0,8.0,-29.0,-998.0,-44.0
-17.0,-259.0,-7.0,-38.0,65.0,7.0,-32.0,-993.0,-41.0
-14.0,-256.0,2.0,-37.0,65.0,8.0,-27.0,-998.0,-46.0
-15.0,-258.0,-2.0,-36.0,64.0,9.0,-25.0,-998.0,-47.0
-14.0,-255.0,-4.0,-37.0,65.0,7.0,-29.0,-997.0,-45.0
-16.0,-251.0,-1.0,-38.0,65.0,7.0,-22.0,-1001.0,-41.0
-14.0,-255.0,-2.0,-40.0,66.0,4.0,-29.0,-997.0,-48.0
-13.0,-256.0,-3.0,-42.0,66.0,5.0,-23.0,-986.0,-36.0
-15.0,-256.0,-5.0,-45.0,66.0,5.0,-26.0,-992.0,-38.0
-14.0,-255.0,-2.0,-49.0,66.0,4.0,-28.0,-992.0,-41.0
-17.0,-257.0,-1.0,-51.0,67.0,4.0,-27.0,-992.0,-36.0
-14.0,-256.0,-3.0,-51.0,67.0,3.0,-33.0,-998.0,-41.0
-14.0,-253.0,-1.0,-52.0,65.0,4.0,-29.0,-982.0,-36.0
-15.0,-255.0,-1.0,-53.0,63.0,5.0,-27.0,-998.0,-39.0
-15.0,-255.0,-4.0,-53.0,64.0,6.0,-27.0,-994.0,-45.0
-14.0,-256.0,-3.0,-51.0,64.0,5.0,-29.0,-999.0,-47.0
-16.0,-257.0,-3.0,-48.0,64.0,3.0,-31.0,-997.0,-42.0
-15.0,-258.0,-1.0,-47.0,63.0,3.0,-25.0,-988.0,-41.0
-13.0,-256.0,-3.0,-46.0,65.0,4.0,-28.0,-992.0,-44.0
-13.0,-255.0,-2.0,-46.0,64.0,3.0,-24.0,-986.0,-43.0
-14.0,-253.0,-2.0,-45.0,66.0,3.0,-28.0,-984.0,-44.0
-15.0,-257.0,-2.0,-44.0,65.0,3.0,-28.0,-993.0,-38.0
-12.0,-255.0,-1.0,-43.0,67.0,0.0,-31.0,-996.0,-38.0
-15.0,-259.0,0.0,-42.0,69.0,0.0,-28.0,-993.0,-42.0
-13.0,-260.0,-6.0,-40.0,70.0,0.0,-26.0,-994.0,-40.0
-14.0,-255.0,-2.0,-41.0,71.0,1.0,-25.0,-992.0,-43.0
-17.0,-257.0,-3.0,-41.0,70.0,1.0,-29.0,-999.0,-41.0
-15.0,-257.0,-1.0,-40.0,72.0,2.0,-26.0,-983.0,-39.0
-15.0,-256.0,-5.0,-39.0,70.0,4.0,-27.0,-1000.0,-42.0
-15.0,-257.0,-1.0,-39.0,68.0,3.0,-31.0,-1002.0,-42.0
-14.0,-255.0,4.0,-36.0,67.0,4.0,-23.0,-999.0,-49.0
-14.0,-257.0,-4.0,-31.0,65.0,3.0,-29.0,-993.0,-43.0
-14.0,-258.0,-1.0,-28.0,63.0,2.0,-32.0,-998.0,-46.0
-15.0,-255.0,-2.0,-28.0,64.0,2.0,-31.0,-993.0,-43.0
-11.0,-253.0,-6.0,-29.0,65.0,1.0,-32.0,-986.0,-41.0
-15.0,-256.0,0.0,-30.0,66.0,0.0,-33.0,-997.0,-37.0
-14.0,-257.0,-2.0,-31.0,67.0,-1.0,-32.0,-986.0,-37.0
-15.0,-256.0,0.0,-30.0,69.0,-1.0,-32.0,-980.0,-45.0
-16.0,-255.0,-3.0,-27.0,69.0,-1.0,-30.0,-995.0,-48.0
-13.0,-260.0,-3.0,-23.0,70.0,0.0,-24.0,-999.0,-45.0
-14.0,-257.0,-4.0,-21.0,71.0,3.0,-26.0,-994.0,-46.0
-12.0,-259.0,-5.0,-19.0,71.0,3.0,-30.0,-993.0,-49.0
-16.0,-255.0,-1.0,-21.0,71.0,1.0,-29.0,-993.0,-47.0
-14.0,-256.0,-4.0,-25.0,71.0,1.0,-23.0,-989.0,-46.0
-12.0,-255.0,0.0,-29.0,71.0,0.0,-28.0,-985.0,-49.0
-13.0,-255.0,-3.0,-31.0,70.0,-3.0,-27.0,-983.0,-46.0
-14.0,-252.0,2.0,-31.0,69.0,-3.0,-25.0,-980.0,-50.0
-12.0,-253.0,-3.0,-30.0,70.0,-2.0,-23.0,-981.0,-48.0
-16.0,-255.0,-4.0,-27.0,70.0,-3.0,-22.0,-982.0,-52.0
-14.0,-254.0,-2.0,-22.0,70.0,-4.0,-28.0,-982.0,-52.0
-12.0,-256.0,-7.0,-16.0,73.0,-4.0,-19.0,-1003.0,-51.0
-15.0,-256.0,-2.0,-9.0,73.0,-2.0,-25.0,-985.0,-48.0
-12.0,-254.0,-3.0,-5.0,75.0,-3.0,-21.0,-1000.0,-52.0
-16.0,-257.0,-6.0,-2.0,75.0,1.0,-21.0,-1005.0,-51.0
-13.0,-257.0,-3.0,-1.0,74.0,0.0,-26.0,-1001.0,-47.0
-15.0,-257.0,-2.0,-2.0,73.0,-1.0,-24.0,-997.0,-51.0
-13.0,-256.0,-2.0,-9.0,74.0,0.0,-29.0,-1008.0,-49.0
-14.0,-259.0,-5.0,-17.0,73.0,0.0,-31.0,-1002.0,-44.0
-15.0,-258.0,-2.0,-26.0,73.0,-1.0,-27.0,-1007.0,-48.0
-13.0,-259.0,-5.0,-35.0,72.0,-3.0,-26.0,-999.0,-41.0
-13.0,-261.0,-5.0,-42.0,73.0,-3.0,-28.0,-1000.0,-42.0
-11.0,-258.0,-5.0,-46.0,73.0,-2.0,-27.0,-993.0,-48.0
-14.0,-257.0,-2.0,-46.0,72.0,-4.0,-23.0,-994.0,-47.0
-16.0,-255.0,-3.0,-43.0,72.0,-4.0,-27.0,-987.0,-44.0
-15.0,-254.0,-3.0,-38.0,73.0,-4.0,-23.0,-981.0,-48.0
-14.0,-254.0,-5.0,-34.0,72.0,-5.0,-27.0,-980.0,-51.0
-11.0,-252.0,-1.0,-28.0,72.0,-7.0,-18.0,-984.0,-47.0
-14.0,-253.0,-1.0,-23.0,73.0,-8.0,-27.0,-986.0,-43.0
-14.0,-259.0,-1.0,-20.0,74.0,-9.0,-25.0,-997.0,-51.0
-13.0,-255.0,-3.0,-18.0,73.0,-10.0,-21.0,-989.0,-50.0
-12.0,-256.0,-4.0,-18.0,75.0,-10.0,-20.0,-988.0,-47.0
-12.0,-258.0,-3.0,-18.0,76.0,-10.0,-19.0,-989.0,-49.0
-11.0,-258.0,-3.0,-19.0,78.0,-8.0,-21.0,-997.0,-46.0
-13.0,-259.0,-6.0,-19.0,78.0,-7.0,-25.0,-1004.0,-53.0
-13.0,-257.0,-6.0,-19.0,80.0,-6.0,-20.0,-992.0,-47.0
-13.0,-258.0,-5.0,-18.0,78.0,-5.0,-24.0,-996.0,-50.0
-15.0,-254.0,-2.0,-17.0,77.0,-3.0,-21.0,-988.0,-47.0
-16.0,-254.0,-4.0,-17.0,77.0,-1.0,-24.0,-992.0,-46.0
-13.0,-254.0,-6.0,-17.0,75.0,0.0,-21.0,-998.0,-49.0
-12.0,-256.0,-3.0,-16.0,74.0,-1.0,-23.0,-985.0,-56.0
-14.0,-256.0,-6.0,-16.0,73.0,0.0,-22.0,-988.0,-51.0
-17.0,-255.0,-7.0,-15.0,71.0,0.0,-21.0,-991.0,-51.0
-14.0,-256.0,-3.0,-16.0,71.0,-1.0,-28.0,-981.0,-48.0
-12.0,-256.0,-3.0,-17.0,72.0,-1.0,-31.0,-983.0,-52.0
-15.0,-254.0,-4.0,-17.0,72.0,-1.0,-32.0,-980.0,-54.0
-17.0,-253.0,-5.0,-16.0,71.0,-2.0,-26.0,-984.0,-47.0
-14.0,-257.0,-6.0,-16.0,69.0,-2.0,-26.0,-980.0,-47.0
-13.0,-255.0,-5.0,-15.0,71.0,-3.0,-26.0,-981.0,-49.0
-13.0,-256.0,-5.0,-15.0,70.0,-4.0,-25.0,-980.0,-53.0
-10.0,-252.0,-8.0,-15.0,70.0,-4.0,-23.0,-987.0,-46.0
-14.0,-256.0,-6.0,-14.0,71.0,-2.0,-28.0,-992.0,-48.0
-16.0,-253.0,-7.0,-14.0,70.0,-2.0,-25.0,-989.0,-51.0
-13.0,-257.0,-7.0,-13.0,71.0,-2.0,-25.0,-990.0,-52.0
-16.0,-255.0,-4.0,-14.0,70.0,-4.0,-29.0,-1002.0,-55.0
-12.0,-254.0,-6.0,-14.0,69.0,-3.0,-26.0,-1003.0,-48.0
-14.0,-257.0,-3.0,-13.0,70.0,-2.0,-28.0,-992.0,-54.0
-11.0,-257.0,-7.0,-13.0,69.0,-3.0,-28.0,-992.0,-55.0
-12.0,-257.0,-4.0,-15.0,68.0,-2.0,-22.0,-995.0,-56.0
-13.0,-257.0,-4.0,-16.0,68.0,-1.0,-26.0,-991.0,-57.0
-16.0,-256.0,-6.0,-18.0,67.0,-1.0,-22.0,-983.0,-56.0
-15.0,-253.0,-3.0,-19.0,65.0,0.0,-26.0,-986.0,-48.0
-12.0,-257.0,-4.0,-19.0,65.0,1.0,-24.0,-992.0,-50.0
-17.0,-255.0,-6.0,-17.0,65.0,2.0,-20.0,-984.0,-51.0
-14.0,-254.0,-1.0,-15.0,64.0,1.0,-24.0,-1003.0,-54.0
-14.0,-255.0,-4.0,-12.0,64.0,1.0,-21.0,-986.0,-49.0
-10.0,-257.0,-4.0,-9.0,62.0,0.0,-25.0,-993.0,-48.0
-14.0,-257.0,-3.0,-6.0,64.0,1.0,-29.0,-989.0,-50.0
-11.0,-256.0,-7.0,-5.0,64.0,1.0,-24.0,-1002.0,-53.0
-13.0,-257.0,-2.0,-7.0,65.0,1.0,-24.0,-998.0,-55.0
-14.0,-257.0,-10.0,-9.0,63.0,1.0,-26.0,-994.0,-49.0
-15.0,-258.0,2.0,-12.0,63.0,1.0,-30.0,-993.0,-51.0
-13.0,-254.0,-3.0,-17.0,64.0,0.0,-27.0,-998.0,-53.0
-15.0,-256.0,-4.0,-21.0,66.0,1.0,-28.0,-994.0,-48.0
-16.0,-256.0,-4.0,-20.0,65.0,3.0,-30.0,-996.0,-46.0
-11.0,-257.0,-3.0,-21.0,65.0,2.0,-31.0,-994.0,-44.0
-15.0,-258.0,-5.0,-19.0,67.0,2.0,-25.0,-998.0,-47.0
-14.0,-254.0,-5.0,-20.0,67.0,3.0,-27.0,-987.0,-49.0
-15.0,-257.0,0.0,-18.0,67.0,1.0,-24.0,-993.0,-49.0
-14.0,-255.0,-1.0,-19.0,68.0,0.0,-32.0,-987.0,-50.0
-14.0,-257.0,-6.0,-19.0,67.0,2.0,-28.0,-986.0,-53.0
-15.0,-255.0,-4.0,-17.0,67.0,2.0,-28.0,-985.0,-52.0
-16.0,-258.0,-2.0,-16.0,68.0,2.0,-25.0,-986.0,-55.0
-16.0,-255.0,-1.0,-16.0,68.0,2.0,-22.0,-979.0,-47.0
-15.0,-255.0,-7.0,-15.0,69.0,1.0,-25.0,-989.0,-56.0
-17.0,-255.0,-4.0,-14.0,70.0,2.0,-24.0,-991.0,-48.0
-14.0,-255.0,-3.0,-14.0,70.0,3.0,-27.0,-984.0,-46.0
-11.0,-258.0,-4.0,-14.0,70.0,4.0,-25.0,-993.0,-49.0
-14.0,-253.0,-3.0,-11.0,70.0,5.0,-24.0,-993.0,-51.0
-14.0,-253.0,-2.0,-12.0,71.0,6.0,-25.0,-985.0,-46.0
-16.0,-256.0,-3.0,-9.0,70.0,6.0,-26.0,-989.0,-44.0
-13.0,-257.0,-5.0,-7.0,70.0,6.0,-22.0,-995.0,-49.0
-14.0,-260.0,-7.0,-5.0,69.0,6.0,-20.0,-987.0,-46.0
-12.0,-255.0,-3.0,-4.0,69.0,7.0,-25.0,-983.0,-48.0
-14.0,-255.0,-5.0,-4.0,70.0,7.0,-22.0,-984.0,-51.0
-11.0,-257.0,-7.0,-5.0,71.0,7.0,-25.0,-984.0,-53.0
-15.0,-253.0,-6.0,-6.0,71.0,8.0,-22.0,-992.0,-51.0
-15.0,-253.0,1.0,-7.0,70.0,7.0,-24.0,-981.0,-48.0
-15.0,-253.0,-5.0,-8.0,70.0,8.0,-26.0,-977.0,-45.0
-9.0,-254.0,-5.0,-9.0,71.0,8.0,-26.0,-985.0,-46.0
-13.0,-256.0,0.0,-11.0,69.0,8.0,-27.0,-985.0,-47.0
-14.0,-255.0,-1.0,-9.0,69.0,7.0,-25.0,-983.0,-48.0
-13.0,-252.0,-4.0,-11.0,68.0,7.0,-27.0,-982.0,-46.0
-13.0,-252.0,-3.0,-11.0,69.0,5.0,-19.0,-993.0,-45.0
-15.0,-256.0,-2.0,-12.0,68.0,6.0,-28.0,-995.0,-44.0
-14.0,-257.0,-6.0,-14.0,68.0,6.0,-25.0,-996.0,-52.0
-13.0,-259.0,-4.0,-14.0,68.0,7.0,-29.0,-999.0,-48.0
-13.0,-257.0,-4.0,-14.0,68.0,5.0,-28.0,-998.0,-49.0
-16.0,-257.0,-4.0,-13.0,68.0,6.0,-28.0,-998.0,-48.0
-16.0,-259.0,-4.0,-13.0,69.0,5.0,-26.0,-999.0,-47.0
-16.0,-257.0,-8.0,-13.0,69.0,5.0,-28.0,-1004.0,-51.0
-16.0,-257.0,-1.0,-12.0,69.0,5.0,-19.0,-999.0,-53.0
-14.0,-255.0,-3.0,-11.0,69.0,4.0,-28.0,-1000.0,-54.0
-15.0,-256.0,-5.0,-8.0,69.0,4.0,-25.0,-991.0,-52.0
-13.0,-252.0,-4.0,-7.0,68.0,4.0,-28.0,-998.0,-46.0
-14.0,-254.0,-5.0,-6.0,68.0,5.0,-26.0,-984.0,-47.0
-16.0,-254.0,-5.0,-4.0,69.0,5.0,-27.0,-996.0,-50.0
-13.0,-257.0,-5.0,-5.0,69.0,4.0,-30.0,-993.0,-50.0
-15.0,-256.0,-4.0,-6.0,67.0,5.0,-28.0,-986.0,-51.0
-14.0,-255.0,-3.0,-6.0,68.0,6.0,-33.0,-987.0,-48.0
-15.0,-256.0,-5.0,-7.0,70.0,8.0,-32.0,-989.0,-53.0
-15.0,-255.0,-6.0,-10.0,67.0,7.0,-27.0,-987.0,-50.0
-13.0,-254.0,-7.0,-13.0,69.0,7.0,-26.0,-983.0,-48.0
-15.0,-255.0,-1.0,-15.0,70.0,7.0,-27.0,-983.0,-48.0
-13.0,-252.0,-2.0,-20.0,69.0,7.0,-27.0,-982.0,-47.0
-13.0,-254.0,-6.0,-22.0,68.0,6.0,-24.0,-985.0,-46.0
-15.0,-254.0,-3.0,-22.0,69.0,6.0,-32.0,-983.0,-48.0
-14.0,-258.0,-2.0,-19.0,69.0,4.0,-29.0,-986.0,-49.0
-16.0,-254.0,-3.0,-16.0,68.0,4.0,-35.0,-987.0,-50.0
-16.0,-258.0,-4.0,-12.0,67.0,6.0,-31.0,-992.0,-46.0
-13.0,-256.0,-7.0,-7.0,67.0,5.0,-22.0,-999.0,-47.0
-16.0,-258.0,-4.0,-6.0,68.0,6.0,-29.0,-995.0,-54.0
-16.0,-256.0,-5.0,-9.0,69.0,8.0,-31.0,-983.0,-45.0
-15.0,-257.0,-3.0,-13.0,69.0,8.0,-33.0,-997.0,-51.0
-15.0,-254.0,-7.0,-16.0,71.0,7.0,-30.0,-1000.0,-53.0
-15.0,-259.0,-4.0,-18.0,71.0,6.0,-33.0,-994.0,-51.0
-15.0,-258.0,-4.0,-20.0,72.0,5.0,-28.0,-987.0,-52.0
-10.0,-255.0,6.0,-19.0,72.0,6.0,-27.0,-986.0,-54.0
-15.0,-258.0,-3.0,-17.0,71.0,4.0,-25.0,-987.0,-54.0
-13.0,-255.0,-5.0,-15.0,71.0,3.0,-25.0,-980.0,-50.0
-17.0,-253.0,-7.0,-14.0,72.0,3.0,-32.0,-984.0,-46.0
-15.0,-254.0,-5.0,-11.0,73.0,3.0,-30.0,-983.0,-52.0
-14.0,-253.0,-1.0,-7.0,73.0,2.0,-29.0,-996.0,-49.0
-14.0,-256.0,-4.0,-4.0,72.0,3.0,-29.0,-988.0,-45.0
-15.0,-253.0,-4.0,1.0,72.0,4.0,-28.0,-986.0,-49.0
-14.0,-256.0,-4.0,2.0,73.0,3.0,-31.0,-999.0,-51.0
-17.0,-254.0,-3.0,4.0,74.0,4.0,-30.0,-998.0,-52.0
-16.0,-259.0,-9.0,3.0,74.0,5.0,-28.0,-997.0,-47.0
-14.0,-259.0,0.0,2.0,72.0,5.0,-32.0,-1008.0,-48.0
-16.0,-259.0,-3.0,-1.0,72.0,6.0,-33.0,-1009.0,-46.0
-15.0,-258.0,-3.0,-7.0,72.0,5.0,-35.0,-1004.0,-51.0
-14.0,-258.0,-4.0,-14.0,73.0,4.0,-30.0,-1002.0,-45.0
-16.0,-257.0,-10.0,-21.0,71.0,4.0,-31.0,-998.0,-42.0
-16.0,-255.0,-4.0,-27.0,72.0,5.0,-30.0,-1000.0,-51.0
-15.0,-257.0,-6.0,-31.0,70.0,4.0,-29.0,-989.0,-45.0
-15.0,-254.0,-7.0,-33.0,70.0,4.0,-33.0,-985.0,-53.0
-15.0,-251.0,-1.0,-33.0,70.0,2.0,-31.0,-982.0,-53.0
-16.0,-255.0,-5.0,-33.0,70.0,2.0,-30.0,-993.0,-46.0
-12.0,-256.0,-9.0,-29.0,70.0,0.0,-36.0,-982.0,-54.0
-13.0,-253.0,-5.0,-23.0,69.0,0.0,-32.0,-986.0,-47.0
-15.0,-254.0,-3.0,-17.0,70.0,-1.0,-32.0,-986.0,-49.0
-17.0,-254.0,-5.0,-13.0,69.0,-1.0,-29.0,-986.0,-48.0
-17.0,-255.0,-1.0,-7.0,70.0,-3.0,-32.0,-993.0,-48.0
-15.0,-255.0,-1.0,-5.0,70.0,-3.0,-33.0,-998.0,-51.0
-16.0,-259.0,-4.0,-4.0,70.0,-2.0,-31.0,-1000.0,-52.0
-12.0,-259.0,-5.0,-4.0,71.0,-2.0,-27.0,-1004.0,-49.0
-16.0,-259.0,-2.0,-5.0,73.0,-1.0,-28.0,-994.0,-52.0
-17.0,-255.0,-1.0,-6.0,72.0,1.0,-32.0,-996.0,-53.0
-15.0,-255.0,-5.0,-6.0,72.0,2.0,-26.0,-988.0,-54.0
-16.0,-257.0,-5.0,-6.0,72.0,3.0,-29.0,-995.0,-54.0
-17.0,-255.0,-6.0,-8.0,71.0,4.0,-28.0,-991.0,-49.0
-16.0,-256.0,-3.0,-6.0,69.0,5.0,-27.0,-987.0,-55.0
-16.0,-253.0,-7.0,-6.0,68.0,5.0,-28.0,-985.0,-48.0
-15.0,-257.0,-5.0,-4.0,67.0,5.0,-26.0,-986.0,-50.0
-15.0,-255.0,-4.0,-3.0,65.0,4.0,-32.0,-985.0,-50.0
-14.0,-255.0,-3.0,-3.0,65.0,5.0,-34.0,-983.0,-48.0
-15.0,-255.0,-7.0,-2.0,66.0,6.0,-30.0,-993.0,-49.0
-15.0,-257.0,-5.0,-1.0,66.0,3.0,-33.0,-987.0,-56.0
-17.0,-250.0,-2.0,0.0,67.0,4.0,-33.0,-983.0,-55.0
-13.0,-258.0,-7.0,1.0,66.0,4.0,-34.0,-982.0,-52.0
-15.0,-253.0,-6.0,1.0,66.0,3.0,-31.0,-990.0,-50.0
-13.0,-256.0,-3.0,0.0,66.0,4.0,-32.0,-982.0,-51.0
-16.0,-258.0,-1.0,0.0,67.0,2.0,-30.0,-994.0,-47.0
-16.0,-252.0,-4.0,1.0,65.0,3.0,-30.0,-1003.0,-50.0
-17.0,-259.0,-3.0,1.0,66.0,3.0,-31.0,-998.0,-51.0
-16.0,-260.0,-4.0,0.0,67.0,4.0,-31.0,-985.0,-53.0
-16.0,-258.0,-5.0,-1.0,67.0,2.0,-34.0,-998.0,-50.0
-16.0,-256.0,-7.0,0.0,66.0,1.0,-31.0,-996.0,-50.0
-18.0,-252.0,-5.0,-2.0,67.0,1.0,-33.0,-998.0,-49.0
-13.0,-255.0,-4.0,-3.0,66.0,1.0,-31.0,-986.0,-50.0
-16.0,-256.0,-1.0,-4.0,66.0,0.0,-31.0,-986.0,-48.0
-17.0,-256.0,-6.0,-4.0,66.0,1.0,-28.0,-993.0,-49.0
-16.0,-253.0,-3.0,-4.0,66.0,1.0,-32.0,-993.0,-53.0
-16.0,-256.0,-5.0,-4.0,66.0,2.0,-31.0,-995.0,-49.0
-15.0,-255.0,-2.0,-2.0,65.0,3.0,-27.0,-998.0,-48.0
-14.0,-252.0,0.0,0.0,64.0,2.0,-26.0,-994.0,-48.0
-15.0,-256.0,-5.0,1.0,64.0,3.0,-32.0,-990.0,-49.0
-15.0,-256.0,-3.0,3.0,64.0,3.0,-30.0,-1002.0,-50.0
-16.0,-258.0,-4.0,5.0,65.0,2.0,-31.0,-995.0,-48.0
-16.0,-258.0,-5.0,6.0,64.0,0.0,-30.0,-994.0,-48.0
-16.0,-255.0,-5.0,9.0,63.0,1.0,-29.0,-1005.0,-49.0
-15.0,-257.0,-4.0,7.0,63.0,0.0,-30.0,-995.0,-50.0
-10.0,-258.0,-5.0,7.0,63.0,-1.0,-30.0,-998.0,-45.0
-16.0,-255.0,-4.0,7.0,62.0,0.0,-32.0,-999.0,-48.0
-16.0,-252.0,-4.0,4.0,62.0,2.0,-29.0,-999.0,-43.0
-14.0,-257.0,0.0,1.0,64.0,2.0,-30.0,-1002.0,-46.0
-17.0,-254.0,0.0,-1.0,64.0,1.0,-34.0,-998.0,-45.0
-13.0,-259.0,-4.0,-2.0,64.0,2.0,-28.0,-992.0,-52.0
-17.0,-255.0,-5.0,-1.0,66.0,2.0,-30.0,-990.0,-45.0
-15.0,-253.0,-5.0,-2.0,66.0,1.0,-34.0,-983.0,-44.0
-14.0,-256.0,-2.0,-2.0,66.0,-1.0,-31.0,-979.0,-44.0
-17.0,-254.0,-3.0,-3.0,68.0,-1.0,-33.0,-985.0,-43.0
-17.0,-252.0,-2.0,-3.0,68.0,0.0,-30.0,-984.0,-47.0
-15.0,-256.0,-4.0,-4.0,67.0,-2.0,-30.0,-983.0,-46.0
-15.0,-255.0,-6.0,-5.0,67.0,-2.0,-32.0,-983.0,-43.0
-18.0,-253.0,-5.0,-5.0,67.0,-3.0,-32.0,-985.0,-42.0
-14.0,-258.0,-2.0,-6.0,67.0,-4.0,-30.0,-994.0,-40.0
-17.0,-253.0,-6.0,-5.0,68.0,-4.0,-33.0,-988.0,-48.0
-15.0,-256.0,-2.0,-4.0,69.0,-3.0,-34.0,-993.0,-43.0
-15.0,-256.0,-4.0,-2.0,70.0,-1.0,-34.0,-997.0,-44.0
-14.0,-255.0,-2.0,-1.0,69.0,-2.0,-34.0,-995.0,-45.0
-16.0,-258.0,-3.0,1.0,69.0,-1.0,-34.0,-1001.0,-43.0
-15.0,-255.0,-3.0,0.0,68.0,-3.0,-26.0,-997.0,-43.0
-15.0,-256.0,-1.0,0.0,69.0,-2.0,-30.0,-1002.0,-44.0
-17.0,-261.0,2.0,1.0,69.0,-3.0,-33.0,-994.0,-45.0
-16.0,-256.0,-3.0,1.0,69.0,-3.0,-33.0,-999.0,-41.0
-16.0,-256.0,-1.0,0.0,67.0,-3.0,-28.0,-997.0,-44.0
-16.0,-255.0,0.0,0.0,66.0,-3.0,-32.0,-991.0,-46.0
-16.0,-256.0,-7.0,0.0,65.0,-2.0,-32.0,-985.0,-39.0
-15.0,-256.0,-4.0,0.0,65.0,-3.0,-29.0,-982.0,-47.0
-15.0,-253.0,-1.0,1.0,65.0,-4.0,-34.0,-988.0,-43.0
-15.0,-255.0,-3.0,0.0,65.0,-4.0,-29.0,-987.0,-39.0
-16.0,-256.0,-3.0,1.0,66.0,-5.0,-32.0,-993.0,-40.0
-17.0,-256.0,-2.0,2.0,65.0,-5.0,-31.0,-993.0,-39.0
-17.0,-256.0,0.0,4.0,66.0,-5.0,-32.0,-994.0,-46.0
-16.0,-256.0,0.0,4.0,67.0,-6.0,-32.0,-993.0,-44.0
-17.0,-259.0,-3.0,4.0,65.0,-5.0,-31.0,-997.0,-46.0
-16.0,-255.0,-1.0,4.0,67.0,-7.0,-33.0,-996.0,-43.0
-15.0,-256.0,-4.0,3.0,67.0,-7.0,-28.0,-1002.0,-50.0
-18.0,-256.0,-7.0,1.0,68.0,-5.0,-32.0,-1000.0,-43.0
-12.0,-259.0,-3.0,0.0,69.0,-6.0,-30.0,-993.0,-48.0
-15.0,-255.0,-5.0,-2.0,68.0,-6.0,-33.0,-999.0,-46.0
-14.0,-257.0,-2.0,0.0,69.0,-5.0,-29.0,-998.0,-44.0
-16.0,-256.0,-6.0,-4.0,70.0,-6.0,-27.0,-997.0,-43.0
-16.0,-253.0,-9.0,-2.0,68.0,-8.0,-29.0,-985.0,-45.0
-16.0,-255.0,-3.0,-2.0,68.0,-8.0,-34.0,-984.0,-44.0
-13.0,-254.0,-3.0,-1.0,69.0,-7.0,-30.0,-987.0,-44.0
-16.0,-255.0,-2.0,2.0,67.0,-6.0,-30.0,-990.0,-45.0
-15.0,-258.0,-3.0,4.0,66.0,-7.0,-32.0,-992.0,-42.0
-14.0,-255.0,-7.0,6.0,67.0,-7.0,-34.0,-1004.0,-44.0
-14.0,-256.0,-1.0,6.0,67.0,-6.0,-32.0,-993.0,-44.0
-15.0,-257.0,0.0,4.0,65.0,-6.0,-34.0,-998.0,-40.0
-17.0,-256.0,-4.0,5.0,65.0,-5.0,-29.0,-998.0,-46.0
-17.0,-258.0,-1.0,4.0,63.0,-5.0,-34.0,-993.0,-47.0
-16.0,-258.0,-4.0,3.0,64.0,-6.0,-34.0,-993.0,-44.0
-12.0,-254.0,-5.0,2.0,62.0,-5.0,-31.0,-993.0,-45.0
-17.0,-255.0,0.0,0.0,64.0,-6.0,-33.0,-995.0,-41.0
-16.0,-257.0,0.0,-1.0,63.0,-5.0,-37.0,-986.0,-39.0
-15.0,-255.0,-2.0,-2.0,64.0,-6.0,-32.0,-996.0,-39.0
-13.0,-255.0,-3.0,-3.0,64.0,-6.0,-33.0,-986.0,-41.0
-14.0,-257.0,-2.0,-2.0,64.0,-5.0,-28.0,-985.0,-38.0
-15.0,-256.0,-5.0,0.0,65.0,-5.0,-31.0,-985.0,-45.0
-15.0,-257.0,-2.0,1.0,65.0,-4.0,-31.0,-992.0,-41.0
-17.0,-256.0,-2.0,4.0,63.0,-6.0,-33.0,-983.0,-40.0
-16.0,-256.0,-4.0,5.0,62.0,-7.0,-30.0,-989.0,-48.0
-16.0,-254.0,-1.0,7.0,64.0,-8.0,-31.0,-991.0,-50.0
-14.0,-257.0,-4.0,4.0,64.0,-8.0,-33.0,-986.0,-41.0
-19.0,-261.0,-1.0,2.0,63.0,-8.0,-34.0,-984.0,-48.0
-17.0,-257.0,-2.0,1.0,64.0,-8.0,-27.0,-997.0,-41.0
-12.0,-259.0,-2.0,2.0,64.0,-8.0,-33.0,-992.0,-43.0
-16.0,-258.0,-5.0,6.0,64.0,-8.0,-27.0,-994.0,-51.0
-15.0,-258.0,-1.0,7.0,66.0,-8.0,-29.0,-1002.0,-42.0
-12.0,-258.0,-2.0,8.0,64.0,-7.0,-28.0,-992.0,-45.0
-11.0,-260.0,-2.0,8.0,63.0,-6.0,-29.0,-998.0,-43.0
-15.0,-256.0,-2.0,6.0,63.0,-5.0,-32.0,-993.0,-41.0
-18.0,-253.0,-2.0,2.0,64.0,-4.0,-29.0,-983.0,-38.0
-15.0,-255.0,-2.0,-3.0,64.0,-5.0,-33.0,-992.0,-42.0
-17.0,-255.0,-2.0,-5.0,63.0,-6.0,-26.0,-987.0,-44.0
-14.0,-254.0,-1.0,-4.0,62.0,-9.0,-28.0,-990.0,-43.0
-14.0,-257.0,-2.0,-2.0,62.0,-10.0,-27.0,-981.0,-42.0
-15.0,-256.0,-3.0,1.0,61.0,-11.0,-29.0,-993.0,-38.0
-15.0,-253.0,-1.0,2.0,60.0,-13.0,-32.0,-997.0,-35.0
-16.0,-256.0,-5.0,4.0,60.0,-13.0,-30.0,-994.0,-40.0
-15.0,-257.0,-2.0,8.0,62.0,-12.0,-28.0,-1002.0,-45.0
-15.0,-258.0,-5.0,13.0,62.0,-10.0,-31.0,-998.0,-36.0
-17.0,-255.0,-2.0,18.0,64.0,-9.0,-28.0,-1006.0,-38.0
-15.0,-259.0,-2.0,23.0,65.0,-10.0,-30.0,-1001.0,-37.0
-14.0,-257.0,-1.0,26.0,66.0,-9.0,-30.0,-1010.0,-34.0
-15.0,-259.0,4.0,24.0,68.0,-8.0,-27.0,-1006.0,-34.0
-12.0,-260.0,-1.0,20.0,68.0,-8.0,-28.0,-995.0,-33.0
-11.0,-258.0,-2.0,15.0,70.0,-6.0,-24.0,-994.0,-32.0
-13.0,-259.0,2.0,9.0,69.0,-7.0,-32.0,-1003.0,-34.0
-13.0,-256.0,1.0,6.0,70.0,-6.0,-25.0,-992.0,-35.0
-15.0,-255.0,4.0,3.0,69.0,-6.0,-30.0,-983.0,-35.0
-14.0,-257.0,1.0,3.0,68.0,-5.0,-28.0,-991.0,-32.0
-14.0,-254.0,1.0,4.0,67.0,-5.0,-32.0,-993.0,-35.0
-14.0,-253.0,-3.0,5.0,66.0,-6.0,-29.0,-982.0,-42.0
-15.0,-256.0,0.0,8.0,66.0,-7.0,-31.0,-979.0,-37.0
-13.0,-256.0,0.0,10.0,63.0,-9.0,-29.0,-982.0,-36.0
-16.0,-255.0,-2.0,14.0,63.0,-9.0,-27.0,-979.0,-35.0
-14.0,-253.0,-1.0,18.0,63.0,-9.0,-30.0,-994.0,-36.0
-15.0,-257.0,0.0,21.0,63.0,-9.0,-30.0,-994.0,-35.0
-15.0,-255.0,-2.0,23.0,64.0,-11.0,-32.0,-983.0,-36.0
-13.0,-255.0,-3.0,26.0,64.0,-13.0,-30.0,-999.0,-33.0
-18.0,-255.0,0.0,28.0,64.0,-12.0,-32.0,-1002.0,-30.0
-13.0,-254.0,-3.0,28.0,65.0,-10.0,-25.0,-993.0,-39.0
-16.0,-254.0,-5.0,26.0,65.0,-8.0,-28.0,-988.0,-32.0
-13.0,-257.0,0.0,24.0,64.0,-7.0,-21.0,-993.0,-37.0
-13.0,-258.0,1.0,21.0,64.0,-6.0,-30.0,-991.0,-33.0
-15.0,-254.0,0.0,19.0,65.0,-4.0,-29.0,-992.0,-26.0
-15.0,-253.0,0.0,19.0,66.0,-4.0,-29.0,-992.0,-29.0
-10.0,-254.0,0.0,19.0,63.0,-2.0,-25.0,-987.0,-28.0
-12.0,-253.0,0.0,20.0,64.0,-2.0,-30.0,-988.0,-25.0
-16.0,-256.0,1.0,21.0,65.0,-3.0,-29.0,-987.0,-30.0
-17.0,-253.0,1.0,21.0,64.0,-1.0,-30.0,-984.0,-27.0
-17.0,-252.0,2.0,20.0,66.0,-2.0,-28.0,-991.0,-29.0
-15.0,-255.0,1.0,18.0,64.0,-3.0,-28.0,-982.0,-32.0
-14.0,-253.0,-2.0,17.0,64.0,-2.0,-29.0,-980.0,-31.0
-15.0,-254.0,0.0,15.0,64.0,-3.0,-33.0,-981.0,-26.0
-14.0,-256.0,0.0,12.0,63.0,-4.0,-27.0,-984.0,-38.0
-17.0,-252.0,0.0,11.0,62.0,-4.0,-25.0,-988.0,-35.0
-14.0,-259.0,-2.0,11.0,62.0,-4.0,-29.0,-997.0,-38.0
-15.0,-255.0,2.0,11.0,63.0,-4.0,-31.0,-988.0,-32.0
-15.0,-258.0,-3.0,13.0,65.0,-4.0,-27.0,-990.0,-34.0
-15.0,-253.0,-1.0,13.0,64.0,-5.0,-33.0,-989.0,-33.0
-14.0,-258.0,1.0,15.0,64.0,-5.0,-26.0,-989.0,-34.0
-12.0,-255.0,4.0,15.0,63.0,-3.0,-30.0,-991.0,-35.0
-13.0,-253.0,-3.0,13.0,64.0,-4.0,-29.0,-991.0,-33.0
-15.0,-255.0,-5.0,11.0,64.0,-5.0,-30.0,-994.0,-27.0
-14.0,-255.0,0.0,10.0,65.0,-6.0,-28.0,-992.0,-40.0
-17.0,-256.0,-4.0,8.0,66.0,-6.0,-25.0,-993.0,-38.0
-12.0,-258.0,0.0,8.0,67.0,-4.0,-29.0,-993.0,-37.0
-14.0,-248.0,0.0,7.0,67.0,-5.0,-29.0,-990.0,-37.0
-16.0,-255.0,1.0,6.0,67.0,-4.0,-32.0,-990.0,-28.0
-14.0,-257.0,1.0,8.0,68.0,-3.0,-32.0,-991.0,-32.0
-16.0,-253.0,2.0,8.0,67.0,-1.0,-27.0,-992.0,-27.0
-13.0,-253.0,1.0,9.0,68.0,-2.0,-32.0,-993.0,-34.0
-11.0,-257.0,2.0,11.0,69.0,-1.0,-29.0,-995.0,-30.0
-16.0,-256.0,2.0,12.0,67.0,-1.0,-28.0,-994.0,-28.0
-13.0,-258.0,4.0,13.0,66.0,0.0,-24.0,-1001.0,-26.0
-15.0,-254.0,2.0,13.0,66.0,-2.0,-30.0,-1002.0,-27.0
-18.0,-258.0,-1.0,13.0,66.0,0.0,-29.0,-993.0,-30.0
-14.0,-256.0,1.0,13.0,65.0,1.0,-30.0,-989.0,-32.0
-17.0,-256.0,3.0,13.0,65.0,-2.0,-31.0,-1007.0,-26.0
-17.0,-259.0,1.0,16.0,65.0,-3.0,-31.0,-997.0,-32.0
-17.0,-256.0,3.0,16.0,66.0,-1.0,-27.0,-992.0,-28.0
-13.0,-256.0,2.0,17.0,66.0,-3.0,-31.0,-989.0,-24.0
-14.0,-253.0,-2.0,17.0,68.0,-1.0,-28.0,-989.0,-22.0
-15.0,-255.0,2.0,17.0,68.0,-2.0,-28.0,-997.0,-21.0
-17.0,-254.0,4.0,17.0,69.0,-2.0,-30.0,-991.0,-23.0
-14.0,-255.0,7.0,17.0,69.0,-2.0,-28.0,-987.0,-26.0
-15.0,-253.0,0.0,18.0,69.0,-3.0,-34.0,-985.0,-22.0
-16.0,-253.0,2.0,18.0,69.0,-2.0,-28.0,-981.0,-25.0
-16.0,-253.0,4.0,18.0,69.0,-2.0,-26.0,-985.0,-24.0
-15.0,-254.0,1.0,19.0,69.0,-4.0,-26.0,-982.0,-22.0
-18.0,-253.0,2.0,20.0,67.0,-4.0,-31.0,-999.0,-19.0
-16.0,-253.0,2.0,21.0,68.0,-4.0,-28.0,-991.0,-29.0
-16.0,-256.0,2.0,21.0,67.0,-4.0,-31.0,-988.0,-24.0
-11.0,-257.0,2.0,21.0,66.0,-4.0,-26.0,-987.0,-23.0
-16.0,-259.0,1.0,21.0,65.0,-4.0,-27.0,-995.0,-22.0
-14.0,-256.0,2.0,22.0,65.0,-3.0,-30.0,-994.0,-19.0
-14.0,-254.0,2.0,22.0,65.0,-2.0,-28.0,-994.0,-22.0
-15.0,-256.0,3.0,22.0,64.0,-2.0,-24.0,-998.0,-19.0
-12.0,-254.0,4.0,24.0,63.0,-2.0,-24.0,-994.0,-23.0
-12.0,-255.0,2.0,24.0,62.0,0.0,-26.0,-997.0,-21.0
-15.0,-254.0,2.0,26.0,63.0,0.0,-27.0,-987.0,-17.0
-14.0,-258.0,3.0,26.0,64.0,-1.0,-28.0,-987.0,-23.0
-13.0,-256.0,1.0,25.0,64.0,1.0,-25.0,-991.0,-19.0
-15.0,-255.0,0.0,25.0,64.0,0.0,-24.0,-993.0,-20.0
-14.0,-256.0,1.0,25.0,65.0,-1.0,-31.0,-994.0,-19.0
-14.0,-257.0,-1.0,26.0,66.0,-1.0,-33.0,-994.0,-21.0
-17.0,-253.0,-1.0,25.0,69.0,-1.0,-25.0,-992.0,-20.0
-17.0,-254.0,5.0,26.0,69.0,1.0,-30.0,-991.0,-19.0
-14.0,-256.0,2.0,26.0,68.0,0.0,-28.0,-1002.0,-21.0
-13.0,-256.0,2.0,27.0,68.0,-1.0,-32.0,-995.0,-19.0
-15.0,-254.0,4.0,28.0,67.0,-1.0,-31.0,-1000.0,-19.0
-19.0,-253.0,4.0,29.0,67.0,0.0,-26.0,-996.0,-17.0
-17.0,-253.0,4.0,31.0,67.0,1.0,-25.0,-997.0,-22.0
-12.0,-256.0,0.0,31.0,66.0,-1.0,-21.0,-991.0,-21.0
-13.0,-256.0,4.0,29.0,64.0,-2.0,-30.0,-983.0,-18.0
-12.0,-256.0,5.0,28.0,66.0,-1.0,-28.0,-985.0,-21.0
-17.0,-253.0,1.0,26.0,66.0,0.0,-30.0,-987.0,-22.0
-14.0,-258.0,3.0,23.0,65.0,-1.0,-30.0,-985.0,-22.0
-14.0,-256.0,2.0,22.0,66.0,0.0,-25.0,-994.0,-22.0
-13.0,-254.0,4.0,20.0,66.0,-1.0,-30.0,-990.0,-24.0
-17.0,-255.0,2.0,19.0,67.0,-1.0,-28.0,-999.0,-24.0
-13.0,-257.0,2.0,17.0,67.0,-1.0,-30.0,-983.0,-18.0
-13.0,-257.0,0.0,18.0,67.0,-2.0,-30.0,-998.0,-20.0
-16.0,-255.0,4.0,18.0,67.0,-2.0,-27.0,-988.0,-25.0
-14.0,-256.0,8.0,18.0,67.0,1.0,-27.0,-995.0,-18.0
-16.0,-256.0,1.0,19.0,67.0,1.0,-31.0,-999.0,-20.0
-16.0,-255.0,4.0,19.0,67.0,-1.0,-27.0,-984.0,-22.0
-14.0,-254.0,6.0,19.0,67.0,-1.0,-30.0,-994.0,-18.0
-17.0,-256.0,5.0,20.0,67.0,0.0,-26.0,-986.0,-17.0
-15.0,-256.0,5.0,19.0,68.0,-1.0,-26.0,-1001.0,-20.0
-14.0,-256.0,5.0,20.0,68.0,-2.0,-24.0,-984.0,-16.0
-16.0,-254.0,4.0,20.0,66.0,-1.0,-32.0,-986.0,-17.0
-19.0,-258.0,3.0,20.0,66.0,-2.0,-31.0,-993.0,-15.0
-13.0,-253.0,10.0,20.0,67.0,-2.0,-30.0,-997.0,-18.0
-16.0,-255.0,5.0,20.0,66.0,-2.0,-22.0,-1002.0,-14.0
-14.0,-257.0,4.0,19.0,67.0,-2.0,-31.0,-996.0,-10.0
-16.0,-255.0,8.0,19.0,65.0,-2.0,-31.0,-994.0,-9.0
-13.0,-259.0,8.0,18.0,66.0,-2.0,-30.0,-993.0,-12.0
-14.0,-253.0,9.0,19.0,66.0,-2.0,-34.0,-1000.0,-14.0
-17.0,-254.0,6.0,19.0,67.0,-2.0,-31.0,-991.0,-10.0
-15.0,-255.0,3.0,20.0,68.0,-3.0,-32.0,-993.0,-15.0
-16.0,-256.0,3.0,20.0,68.0,-1.0,-27.0,-982.0,-14.0
-11.0,-253.0,6.0,21.0,67.0,-1.0,-26.0,-1000.0,-15.0
-16.0,-254.0,8.0,21.0,66.0,-2.0,-22.0,-986.0,-9.0
-18.0,-254.0,7.0,22.0,65.0,-2.0,-27.0,-991.0,-12.0
-13.0,-256.0,6.0,22.0,64.0,-2.0,-26.0,-984.0,-15.0
-14.0,-257.0,4.0,23.0,65.0,-2.0,-28.0,-998.0,-9.0
-17.0,-253.0,6.0,21.0,64.0,-2.0,-31.0,-985.0,-12.0
-14.0,-253.0,4.0,21.0,64.0,-2.0,-28.0,-994.0,-9.0
-13.0,-255.0,5.0,21.0,64.0,-1.0,-30.0,-994.0,-9.0
-15.0,-253.0,5.0,20.0,65.0,-1.0,-28.0,-987.0,-9.0
-14.0,-254.0,10.0,23.0,63.0,-1.0,-28.0,-986.0,-9.0
-15.0,-254.0,6.0,24.0,64.0,0.0,-29.0,-986.0,-13.0
-14.0,-257.0,8.0,24.0,63.0,0.0,-30.0,-986.0,-9.0
-14.0,-257.0,8.0,24.0,63.0,-1.0,-30.0,-987.0,-6.0
-17.0,-253.0,6.0,26.0,66.0,-1.0,-27.0,-994.0,-11.0
-15.0,-257.0,4.0,26.0,66.0,-4.0,-31.0,-986.0,-7.0
-15.0,-257.0,7.0,26.0,66.0,-5.0,-30.0,-993.0,-12.0
-16.0,-252.0,6.0,25.0,68.0,-6.0,-28.0,-985.0,-8.0
-15.0,-258.0,10.0,26.0,68.0,-5.0,-28.0,-988.0,-17.0
-16.0,-255.0,6.0,26.0,70.0,-4.0,-29.0,-999.0,-7.0
-12.0,-256.0,1.0,27.0,70.0,-3.0,-26.0,-999.0,-7.0
-13.0,-258.0,9.0,26.0,70.0,-2.0,-33.0,-995.0,-11.0
-16.0,-256.0,8.0,26.0,70.0,-1.0,-30.0,-991.0,-10.0
-14.0,-256.0,6.0,23.0,69.0,1.0,-30.0,-990.0,-5.0
-15.0,-251.0,6.0,17.0,69.0,0.0,-30.0,-992.0,-9.0
-14.0,-254.0,9.0,12.0,66.0,0.0,-31.0,-982.0,-7.0
-20.0,-252.0,6.0,9.0,66.0,0.0,-33.0,-985.0,-5.0
-14.0,-257.0,5.0,6.0,65.0,-2.0,-31.0,-987.0,-4.0
-15.0,-255.0,7.0,3.0,63.0,-3.0,-27.0,-980.0,-11.0
-16.0,-257.0,4.0,1.0,63.0,-1.0,-27.0,-983.0,-11.0
-15.0,-255.0,6.0,-1.0,66.0,-2.0,-29.0,-984.0,-10.0
-16.0,-253.0,7.0,-1.0,66.0,-2.0,-29.0,-982.0,-13.0
-16.0,-256.0,4.0,2.0,69.0,-4.0,-32.0,-993.0,-3.0
-13.0,-258.0,7.0,4.0,72.0,-3.0,-30.0,-993.0,-12.0
-12.0,-257.0,8.0,7.0,73.0,-3.0,-30.0,-997.0,-8.0
-17.0,-258.0,2.0,9.0,74.0,-2.0,-30.0,-1012.0,-10.0
-16.0,-258.0,5.0,8.0,75.0,-2.0,-31.0,-1000.0,-2.0
-14.0,-262.0,5.0,7.0,76.0,-1.0,-32.0,-1005.0,-4.0
-15.0,-258.0,7.0,2.0,76.0,1.0,-30.0,-1003.0,-6.0
-15.0,-258.0,6.0,0.0,76.0,0.0,-27.0,-1001.0,-5.0
-16.0,-259.0,7.0,-3.0,76.0,1.0,-30.0,-994.0,-6.0
-17.0,-256.0,4.0,-3.0,76.0,1.0,-27.0,-994.0,-10.0
-16.0,-256.0,8.0,-3.0,75.0,0.0,-32.0,-984.0,-8.0
-16.0,-255.0,6.0,-3.0,72.0,0.0,-27.0,-985.0,-11.0
-16.0,-257.0,3.0,-2.0,71.0,0.0,-30.0,-982.0,-7.0
-14.0,-259.0,5.0,2.0,71.0,-1.0,-24.0,-979.0,-8.0
-14.0,-253.0,8.0,6.0,70.0,-1.0,-33.0,-980.0,-6.0
-13.0,-256.0,7.0,10.0,69.0,-2.0,-25.0,-986.0,-4.0
-15.0,-254.0,7.0,15.0,69.0,-5.0,-33.0,-977.0,-4.0
-14.0,-254.0,6.0,18.0,69.0,-5.0,-30.0,-982.0,-5.0
-15.0,-254.0,7.0,21.0,68.0,-5.0,-29.0,-979.0,-3.0
-15.0,-254.0,6.0,23.0,67.0,-7.0,-33.0,-982.0,0.0
-17.0,-255.0,6.0,24.0,68.0,-5.0,-32.0,-994.0,-3.0
-16.0,-257.0,10.0,22.0,68.0,-5.0,-32.0,-993.0,-3.0
-16.0,-256.0,6.0,19.0,67.0,-5.0,-30.0,-988.0,-1.0
-14.0,-254.0,5.0,15.0,68.0,-3.0,-28.0,-993.0,-3.0
-17.0,-255.0,8.0,13.0,67.0,-3.0,-24.0,-999.0,1.0
-16.0,-254.0,8.0,11.0,67.0,-1.0,-29.0,-987.0,-2.0
-15.0,-255.0,9.0,12.0,67.0,1.0,-29.0,-985.0,-3.0
-16.0,-257.0,7.0,14.0,67.0,-2.0,-27.0,-991.0,-5.0
-15.0,-253.0,6.0,16.0,66.0,-2.0,-31.0,-982.0,-3.0
-15.0,-254.0,6.0,17.0,66.0,-1.0,-28.0,-982.0,-3.0
-16.0,-257.0,6.0,17.0,65.0,-1.0,-31.0,-980.0,-1.0
-14.0,-254.0,10.0,15.0,67.0,0.0,-31.0,-985.0,-3.0
-14.0,-255.0,4.0,13.0,66.0,-2.0,-26.0,-987.0,-2.0
-17.0,-254.0,8.0,11.0,66.0,-1.0,-30.0,-987.0,-2.0
-15.0,-253.0,7.0,8.0,67.0,-2.0,-30.0,-981.0,-5.0
-13.0,-254.0,11.0,6.0,66.0,-2.0,-32.0,-983.0,-6.0
-13.0,-253.0,8.0,4.0,67.0,-2.0,-25.0,-993.0,-2.0
-14.0,-254.0,7.0,3.0,66.0,-2.0,-30.0,-985.0,-8.0
-14.0,-255.0,6.0,2.0,67.0,-2.0,-30.0,-992.0,0.0
-13.0,-256.0,9.0,2.0,67.0,-2.0,-29.0,-983.0,-5.0
-15.0,-255.0,8.0,1.0,67.0,-2.0,-28.0,-987.0,-7.0
-14.0,-256.0,9.0,0.0,66.0,-1.0,-28.0,-985.0,-1.0
-16.0,-257.0,3.0,-1.0,67.0,0.0,-33.0,-992.0,-1.0
-13.0,-254.0,4.0,-4.0,67.0,-1.0,-29.0,-993.0,-3.0
-18.0,-257.0,8.0,-6.0,66.0,-2.0,-30.0,-997.0,-5.0
-18.0,-251.0,8.0,-9.0,67.0,-1.0,-32.0,-987.0,-1.0
-19.0,-255.0,11.0,-10.0,67.0,-1.0,-28.0,-986.0,-6.0
-15.0,-257.0,9.0,-10.0,66.0,-2.0,-29.0,-991.0,-1.0
-14.0,-254.0,7.0,-13.0,64.0,-1.0,-27.0,-990.0,-3.0
-12.0,-257.0,6.0,-13.0,65.0,1.0,-29.0,-994.0,-3.0
-16.0,-253.0,6.0,-13.0,67.0,0.0,-28.0,-994.0,-4.0
-14.0,-254.0,4.0,-13.0,66.0,1.0,-29.0,-1000.0,-4.0
-17.0,-257.0,8.0,-13.0,66.0,1.0,-29.0,-985.0,-8.0
-13.0,-258.0,3.0,-13.0,67.0,-1.0,-28.0,-1002.0,1.0
-13.0,-255.0,6.0,-14.0,66.0,1.0,-28.0,-988.0,-6.0
-16.0,-256.0,4.0,-16.0,67.0,0.0,-28.0,-988.0,-3.0
-15.0,-256.0,5.0,-17.0,66.0,-1.0,-27.0,-1004.0,-3.0
-14.0,-255.0,5.0,-18.0,67.0,1.0,-27.0,-998.0,-1.0
-13.0,-257.0,8.0,-19.0,67.0,0.0,-27.0,-999.0,-2.0
-15.0,-253.0,9.0,-20.0,66.0,1.0,-27.0,-994.0,-4.0
-17.0,-256.0,7.0,-20.0,67.0,1.0,-32.0,-985.0,-5.0
-15.0,-258.0,7.0,-20.0,67.0,2.0,-26.0,-987.0,-1.0
-15.0,-254.0,7.0,-20.0,68.0,2.0,-30.0,-984.0,1.0
-16.0,-255.0,7.0,-21.0,68.0,2.0,-30.0,-991.0,-1.0
-13.0,-256.0,8.0,-22.0,69.0,4.0,-27.0,-993.0,1.0
-16.0,-255.0,10.0,-23.0,68.0,2.0,-28.0,-980.0,-4.0
-13.0,-255.0,13.0,-24.0,69.0,2.0,-28.0,-987.0,0.0
-13.0,-258.0,9.0,-26.0,70.0,0.0,-30.0,-991.0,-1.0
-16.0,-254.0,5.0,-27.0,69.0,-1.0,-30.0,-983.0,-2.0
-16.0,-256.0,5.0,-26.0,71.0,-1.0,-29.0,-982.0,1.0
-16.0,-253.0,8.0,-28.0,70.0,-1.0,-29.0,-996.0,-1.0
-16.0,-255.0,7.0,-30.0,71.0,0.0,-31.0,-985.0,-2.0
-17.0,-255.0,7.0,-31.0,71.0,1.0,-30.0,-993.0,-2.0
-13.0,-257.0,9.0,-32.0,71.0,0.0,-29.0,-994.0,3.0
-14.0,-256.0,7.0,-33.0,71.0,0.0,-30.0,-983.0,3.0
-16.0,-255.0,9.0,-37.0,72.0,2.0,-27.0,-984.0,0.0
-15.0,-255.0,8.0,-39.0,70.0,2.0,-32.0,-992.0,-3.0
-13.0,-255.0,9.0,-42.0,71.0,2.0,-31.0,-984.0,4.0
-16.0,-254.0,5.0,-43.0,71.0,2.0,-27.0,-996.0,-1.0
-16.0,-255.0,4.0,-46.0,70.0,1.0,-32.0,-997.0,-4.0
-13.0,-256.0,9.0,-47.0,70.0,1.0,-30.0,-986.0,-3.0
-17.0,-252.0,7.0,-48.0,70.0,1.0,-31.0,-993.0,-7.0
-14.0,-253.0,11.0,-48.0,69.0,2.0,-34.0,-986.0,0.0
-10.0,-258.0,8.0,-49.0,69.0,1.0,-30.0,-987.0,-4.0
-15.0,-255.0,7.0,-51.0,67.0,-2.0,-28.0,-988.0,-2.0
-14.0,-254.0,11.0,-51.0,67.0,-1.0,-33.0,-997.0,-1.0
-14.0,-254.0,8.0,-54.0,69.0,1.0,-29.0,-986.0,-6.0
-14.0,-253.0,5.0,-56.0,69.0,0.0,-32.0,-989.0,-1.0
-13.0,-254.0,5.0,-58.0,71.0,0.0,-33.0,-991.0,-4.0
-15.0,-253.0,8.0,-60.0,72.0,0.0,-24.0,-988.0,-3.0
-13.0,-254.0,5.0,-62.0,72.0,1.0,-28.0,-982.0,-5.0
-14.0,-256.0,7.0,-64.0,72.0,0.0,-27.0,-982.0,-5.0
-13.0,-257.0,6.0,-69.0,73.0,0.0,-33.0,-988.0,-5.0
-16.0,-253.0,5.0,-71.0,74.0,1.0,-31.0,-985.0,-5.0
-15.0,-257.0,7.0,-74.0,74.0,1.0,-28.0,-997.0,-7.0
-16.0,-256.0,10.0,-76.0,74.0,0.0,-31.0,-987.0,-6.0
-15.0,-258.0,6.0,-80.0,74.0,0.0,-33.0,-979.0,-6.0
-14.0,-256.0,4.0,-84.0,73.0,2.0,-29.0,-993.0,-11.0
-14.0,-257.0,6.0,-84.0,74.0,1.0,-30.0,-987.0,-5.0
-15.0,-257.0,5.0,-86.0,73.0,1.0,-34.0,-1001.0,-11.0
-18.0,-257.0,4.0,-89.0,72.0,3.0,-33.0,-1000.0,-8.0
-18.0,-254.0,4.0,-92.0,74.0,5.0,-30.0,-997.0,-17.0
-15.0,-257.0,7.0,-94.0,74.0,6.0,-32.0,-994.0,-12.0
-17.0,-256.0,7.0,-100.0,73.0,6.0,-33.0,-992.0,-14.0
-17.0,-253.0,6.0,-104.0,72.0,5.0,-28.0,-986.0,-9.0
-15.0,-255.0,5.0,-104.0,72.0,6.0,-30.0,-984.0,-14.0
-15.0,-255.0,6.0,-106.0,72.0,5.0,-32.0,-987.0,-12.0
-15.0,-255.0,4.0,-106.0,73.0,5.0,-31.0,-988.0,-4.0
-15.0,-253.0,5.0,-107.0,70.0,6.0,-33.0,-992.0,-12.0
-14.0,-256.0,5.0,-106.0,69.0,6.0,-31.0,-986.0,-18.0
-16.0,-255.0,7.0,-107.0,70.0,5.0,-32.0,-981.0,-11.0
-23.0,-251.0,6.0,-108.0,70.0,3.0,-33.0,-985.0,-12.0
-16.0,-258.0,8.0,-111.0,69.0,5.0,-32.0,-985.0,-14.0
-17.0,-252.0,1.0,-115.0,69.0,3.0,-32.0,-985.0,-16.0
-17.0,-255.0,5.0,-117.0,69.0,2.0,-30.0,-994.0,-13.0
-14.0,-252.0,3.0,-121.0,67.0,2.0,-35.0,-1001.0,-15.0
-16.0,-253.0,2.0,-124.0,68.0,2.0,-30.0,-991.0,-15.0
-14.0,-255.0,1.0,-126.0,68.0,2.0,-29.0,-981.0,-19.0
-16.0,-257.0,1.0,-127.0,69.0,0.0,-32.0,-993.0,-18.0
-15.0,-256.0,4.0,-126.0,67.0,1.0,-32.0,-993.0,-20.0
-15.0,-255.0,5.0,-124.0,66.0,0.0,-34.0,-987.0,-22.0
-15.0,-256.0,3.0,-122.0,66.0,0.0,-26.0,-994.0,-22.0
-17.0,-252.0,6.0,-118.0,68.0,1.0,-29.0,-984.0,-21.0
-14.0,-257.0,-1.0,-112.0,68.0,1.0,-29.0,-984.0,-23.0
-16.0,-254.0,2.0,-103.0,70.0,1.0,-32.0,-988.0,-25.0
-15.0,-254.0,4.0,-93.0,70.0,3.0,-32.0,-989.0,-25.0
-16.0,-254.0,1.0,-84.0,69.0,3.0,-27.0,-998.0,-27.0
-15.0,-256.0,1.0,-78.0,69.0,1.0,-33.0,-994.0,-30.0
-15.0,-256.0,3.0,-76.0,67.0,1.0,-30.0,-984.0,-23.0
-17.0,-256.0,2.0,-76.0,66.0,2.0,-34.0,-986.0,-22.0
-14.0,-256.0,-3.0,-79.0,66.0,2.0,-32.0,-985.0,-25.0
-14.0,-255.0,1.0,-81.0,67.0,2.0,-31.0,-985.0,-27.0
-17.0,-254.0,0.0,-80.0,66.0,2.0,-33.0,-985.0,-24.0
-19.0,-257.0,1.0,-78.0,65.0,2.0,-31.0,-986.0,-28.0
-18.0,-256.0,3.0,-77.0,66.0,2.0,-32.0,-995.0,-32.0
-12.0,-259.0,-2.0,-75.0,66.0,1.0,-32.0,-993.0,-29.0
-19.0,-252.0,3.0,-73.0,66.0,1.0,-32.0,-986.0,-30.0
-16.0,-254.0,1.0,-73.0,65.0,2.0,-34.0,-988.0,-30.0
-14.0,-257.0,1.0,-70.0,65.0,4.0,-32.0,-982.0,-30.0
-14.0,-256.0,2.0,-68.0,64.0,3.0,-30.0,-986.0,-34.0
-16.0,-257.0,1.0,-68.0,65.0,3.0,-30.0,-1001.0,-34.0
-14.0,-254.0,-6.0,-66.0,65.0,4.0,-29.0,-992.0,-32.0
-17.0,-256.0,3.0,-64.0,66.0,1.0,-31.0,-993.0,-37.0
-17.0,-259.0,-1.0,-62.0,65.0,2.0,-34.0,-1000.0,-32.0
-15.0,-255.0,-1.0,-61.0,66.0,1.0,-32.0,-999.0,-37.0
-15.0,-259.0,-3.0,-59.0,66.0,2.0,-32.0,-1002.0,-35.0
-17.0,-257.0,-5.0,-58.0,64.0,2.0,-32.0,-993.0,-38.0
-13.0,-258.0,-2.0,-56.0,64.0,1.0,-32.0,-1000.0,-34.0
-17.0,-253.0,-5.0,-57.0,62.0,2.0,-32.0,-996.0,-29.0
-15.0,-257.0,-1.0,-58.0,61.0,3.0,-33.0,-998.0,-36.0
-14.0,-260.0,0.0,-59.0,59.0,0.0,-32.0,-987.0,-35.0
-16.0,-256.0,0.0,-59.0,58.0,-1.0,-34.0,-992.0,-36.0
-17.0,-254.0,1.0,-59.0,57.0,-3.0,-34.0,-993.0,-33.0
-17.0,-253.0,1.0,-59.0,56.0,-3.0,-32.0,-994.0,-35.0
-16.0,-255.0,-1.0,-58.0,56.0,-4.0,-27.0,-994.0,-39.0
-14.0,-258.0,-5.0,-57.0,57.0,-3.0,-33.0,-988.0,-36.0
-15.0,-254.0,-5.0,-57.0,58.0,-2.0,-32.0,-997.0,-35.0
-17.0,-256.0,-3.0,-58.0,58.0,-2.0,-33.0,-994.0,-40.0
-16.0,-255.0,-4.0,-61.0,59.0,-4.0,-32.0,-983.0,-35.0
-14.0,-253.0,1.0,-65.0,59.0,-3.0,-33.0,-1001.0,-37.0
-15.0,-255.0,-2.0,-67.0,62.0,-4.0,-30.0,-994.0,-35.0
-15.0,-255.0,2.0,-67.0,63.0,-5.0,-26.0,-982.0,-37.0
-16.0,-255.0,-1.0,-68.0,63.0,-5.0,-34.0,-983.0,-33.0
-14.0,-254.0,-3.0,-66.0,64.0,-8.0,-26.0,-981.0,-42.0
-14.0,-253.0,2.0,-64.0,63.0,-8.0,-32.0,-983.0,-41.0
-15.0,-254.0,-1.0,-62.0,63.0,-7.0,-31.0,-984.0,-45.0
-15.0,-256.0,-2.0,-59.0,63.0,-6.0,-29.0,-983.0,-45.0
-13.0,-254.0,-2.0,-57.0,65.0,-3.0,-29.0,-983.0,-49.0
-14.0,-257.0,-2.0,-54.0,65.0,-1.0,-29.0,-987.0,-43.0
-15.0,-258.0,0.0,-52.0,64.0,0.0,-32.0,-994.0,-51.0
-14.0,-258.0,-5.0,-52.0,64.0,1.0,-31.0,-994.0,-41.0
-18.0,-255.0,-2.0,-55.0,63.0,0.0,-32.0,-1000.0,-39.0
-18.0,-255.0,-1.0,-62.0,64.0,1.0,-35.0,-993.0,-41.0
-14.0,-256.0,-2.0,-66.0,64.0,1.0,-32.0,-999.0,-37.0
-17.0,-253.0,-1.0,-70.0,63.0,1.0,-34.0,-995.0,-36.0
-16.0,-255.0,-1.0,-77.0,65.0,1.0,-33.0,-994.0,-37.0
-15.0,-254.0,-1.0,-79.0,64.0,2.0,-33.0,-998.0,-31.0
-26.0,-242.0,-2.0,-80.0,64.0,3.0,-33.0,-991.0,-36.0
-16.0,-256.0,-6.0,-80.0,63.0,4.0,-34.0,-987.0,-43.0
-15.0,-255.0,-6.0,-79.0,64.0,2.0,-34.0,-990.0,-46.0
-15.0,-255.0,-5.0,-77.0,65.0,2.0,-32.0,-978.0,-45.0
-14.0,-254.0,-4.0,-76.0,64.0,0.0,-32.0,-985.0,-48.0
-17.0,-255.0,-4.0,-73.0,65.0,-1.0,-33.0,-985.0,-39.0
-16.0,-255.0,-4.0,-69.0,65.0,-2.0,-35.0,-983.0,-46.0
-17.0,-256.0,-2.0,-65.0,64.0,-3.0,-32.0,-983.0,-47.0
-15.0,-253.0,-3.0,-62.0,65.0,-4.0,-34.0,-993.0,-44.0
-17.0,-256.0,0.0,-59.0,66.0,-6.0,-32.0,-1001.0,-44.0
-16.0,-254.0,-5.0,-59.0,67.0,-6.0,-32.0,-995.0,-45.0
-15.0,-256.0,-4.0,-56.0,67.0,-4.0,-35.0,-993.0,-49.0
-15.0,-256.0,-2.0,-56.0,66.0,-1.0,-32.0,-987.0,-43.0
-16.0,-254.0,-1.0,-56.0,65.0,0.0,-31.0,-991.0,-42.0
-17.0,-256.0,-3.0,-58.0,65.0,1.0,-31.0,-984.0,-47.0
-15.0,-256.0,-4.0,-57.0,64.0,2.0,-28.0,-992.0,-48.0
-13.0,-256.0,-3.0,-56.0,63.0,4.0,-31.0,-983.0,-47.0
-16.0,-254.0,-4.0,-53.0,62.0,6.0,-30.0,-986.0,-52.0
-14.0,-255.0,-1.0,-51.0,60.0,6.0,-26.0,-983.0,-53.0
-14.0,-253.0,-8.0,-51.0,58.0,7.0,-29.0,-984.0,-58.0
-17.0,-255.0,-3.0,-52.0,57.0,7.0,-29.0,-977.0,-55.0
-16.0,-255.0,-5.0,-53.0,58.0,7.0,-30.0,-985.0,-56.0
-19.0,-251.0,-7.0,-54.0,57.0,8.0,-30.0,-980.0,-57.0
-14.0,-253.0,-6.0,-54.0,56.0,7.0,-31.0,-978.0,-57.0
-14.0,-255.0,-7.0,-54.0,57.0,7.0,-29.0,-981.0,-55.0
-16.0,-252.0,-6.0,-53.0,56.0,6.0,-29.0,-982.0,-59.0
-17.0,-254.0,-5.0,-53.0,56.0,7.0,-31.0,-981.0,-54.0
-13.0,-251.0,-6.0,-53.0,57.0,8.0,-32.0,-983.0,-54.0
-16.0,-257.0,-7.0,-53.0,59.0,8.0,-31.0,-985.0,-57.0
-16.0,-253.0,-6.0,-55.0,58.0,8.0,-32.0,-987.0,-53.0
-16.0,-256.0,-8.0,-57.0,62.0,8.0,-31.0,-995.0,-59.0
-18.0,-258.0,-7.0,-59.0,64.0,10.0,-28.0,-985.0,-62.0
-17.0,-254.0,-9.0,-61.0,65.0,11.0,-33.0,-999.0,-59.0
-18.0,-254.0,-8.0,-65.0,67.0,11.0,-35.0,-986.0,-58.0
-17.0,-256.0,-9.0,-66.0,67.0,10.0,-30.0,-987.0,-56.0
-17.0,-253.0,-8.0,-68.0,69.0,12.0,-31.0,-997.0,-63.0
-18.0,-257.0,-8.0,-69.0,70.0,12.0,-32.0,-991.0,-61.0
-15.0,-257.0,-8.0,-70.0,71.0,11.0,-27.0,-995.0,-63.0
-13.0,-262.0,-7.0,-72.0,71.0,11.0,-36.0,-999.0,-60.0
-14.0,-258.0,-6.0,-74.0,71.0,15.0,-31.0,-998.0,-59.0
-13.0,-256.0,-5.0,-75.0,70.0,15.0,-32.0,-988.0,-59.0
-15.0,-254.0,-7.0,-75.0,71.0,16.0,-32.0,-997.0,-58.0
-15.0,-255.0,-4.0,-75.0,72.0,17.0,-30.0,-994.0,-55.0
-17.0,-256.0,-6.0,-74.0,71.0,17.0,-26.0,-992.0,-58.0
-17.0,-255.0,-8.0,-69.0,71.0,18.0,-30.0,-992.0,-58.0
-16.0,-253.0,-8.0,-64.0,69.0,17.0,-32.0,-984.0,-57.0
-15.0,-257.0,-10.0,-61.0,71.0,17.0,-33.0,-996.0,-57.0
-17.0,-257.0,-8.0,-60.0,69.0,18.0,-34.0,-995.0,-63.0
-14.0,-255.0,-7.0,-63.0,70.0,16.0,-28.0,-984.0,-64.0
-19.0,-254.0,-7.0,-65.0,71.0,16.0,-35.0,-989.0,-64.0
-17.0,-255.0,-8.0,-70.0,71.0,16.0,-36.0,-981.0,-63.0
-15.0,-254.0,-5.0,-76.0,72.0,18.0,-32.0,-981.0,-65.0
-18.0,-252.0,-7.0,-83.0,73.0,18.0,-36.0,-979.0,-65.0
-17.0,-257.0,-4.0,-88.0,74.0,17.0,-36.0,-985.0,-59.0
-17.0,-254.0,-6.0,-91.0,75.0,17.0,-32.0,-985.0,-56.0
-20.0,-252.0,-4.0,-94.0,77.0,16.0,-39.0,-982.0,-60.0
-18.0,-257.0,-5.0,-93.0,78.0,17.0,-35.0,-983.0,-55.0
-17.0,-254.0,-4.0,-92.0,79.0,17.0,-39.0,-983.0,-54.0
-15.0,-252.0,-3.0,-93.0,79.0,17.0,-31.0,-981.0,-56.0
-17.0,-252.0,-9.0,-94.0,80.0,16.0,-34.0,-982.0,-60.0
-18.0,-253.0,-8.0,-97.0,80.0,17.0,-39.0,-984.0,-63.0
-18.0,-254.0,-7.0,-99.0,80.0,17.0,-36.0,-984.0,-62.0
-15.0,-253.0,-8.0,-102.0,80.0,18.0,-37.0,-985.0,-67.0
-17.0,-255.0,-9.0,-104.0,81.0,18.0,-35.0,-984.0,-64.0
-16.0,-255.0,-6.0,-106.0,81.0,18.0,-35.0,-982.0,-62.0
-16.0,-255.0,-5.0,-108.0,80.0,18.0,-36.0,-987.0,-62.0
-15.0,-255.0,-13.0,-108.0,81.0,18.0,-37.0,-985.0,-67.0
-19.0,-255.0,-6.0,-107.0,81.0,19.0,-34.0,-981.0,-61.0
-16.0,-254.0,-11.0,-108.0,80.0,18.0,-38.0,-985.0,-62.0
-18.0,-255.0,-9.0,-110.0,81.0,19.0,-42.0,-984.0,-63.0
-17.0,-254.0,-7.0,-109.0,80.0,21.0,-36.0,-1002.0,-66.0
-17.0,-253.0,-11.0,-109.0,77.0,20.0,-40.0,-980.0,-64.0
-18.0,-254.0,-9.0,-110.0,78.0,19.0,-40.0,-979.0,-65.0
-18.0,-253.0,-6.0,-111.0,76.0,19.0,-43.0,-984.0,-72.0
-18.0,-254.0,-10.0,-111.0,76.0,18.0,-39.0,-985.0,-68.0
-19.0,-255.0,-8.0,-112.0,75.0,20.0,-36.0,-985.0,-72.0
-18.0,-253.0,-9.0,-113.0,74.0,19.0,-39.0,-987.0,-71.0
-16.0,-258.0,-6.0,-114.0,75.0,20.0,-37.0,-983.0,-72.0
-16.0,-257.0,-10.0,-116.0,74.0,21.0,-38.0,-988.0,-72.0
-16.0,-256.0,-12.0,-116.0,75.0,21.0,-36.0,-997.0,-73.0
-16.0,-256.0,-12.0,-117.0,74.0,20.0,-39.0,-992.0,-77.0
-16.0,-254.0,-11.0,-119.0,74.0,22.0,-43.0,-993.0,-71.0
-16.0,-257.0,-11.0,-120.0,75.0,22.0,-38.0,-979.0,-82.0
-17.0,-254.0,-13.0,-124.0,75.0,22.0,-37.0,-989.0,-81.0
-19.0,-254.0,-12.0,-127.0,76.0,22.0,-38.0,-982.0,-87.0
-19.0,-254.0,-11.0,-128.0,76.0,21.0,-39.0,-981.0,-78.0
-17.0,-252.0,-14.0,-128.0,77.0,20.0,-39.0,-985.0,-82.0
-16.0,-258.0,-13.0,-127.0,76.0,21.0,-38.0,-985.0,-80.0
-20.0,-253.0,-14.0,-127.0,78.0,20.0,-43.0,-983.0,-81.0
-15.0,-254.0,-11.0,-125.0,77.0,19.0,-42.0,-986.0,-82.0
-18.0,-254.0,-15.0,-125.0,78.0,20.0,-38.0,-983.0,-81.0
-19.0,-254.0,-11.0,-123.0,78.0,21.0,-41.0,-984.0,-85.0
-16.0,-254.0,-14.0,-125.0,77.0,21.0,-40.0,-977.0,-85.0
-21.0,-252.0,-14.0,-126.0,78.0,20.0,-43.0,-985.0,-87.0
-17.0,-252.0,-13.0,-129.0,78.0,21.0,-40.0,-986.0,-89.0
-16.0,-253.0,-13.0,-131.0,78.0,21.0,-40.0,-994.0,-90.0
-19.0,-251.0,-18.0,-134.0,80.0,21.0,-41.0,-982.0,-85.0
-18.0,-253.0,-17.0,-136.0,80.0,24.0,-40.0,-975.0,-94.0
-17.0,-251.0,-14.0,-138.0,79.0,24.0,-39.0,-981.0,-92.0
-18.0,-251.0,-17.0,-140.0,80.0,21.0,-39.0,-978.0,-87.0
-16.0,-255.0,-14.0,-144.0,80.0,22.0,-39.0,-977.0,-94.0
-16.0,-253.0,-18.0,-145.0,79.0,23.0,-41.0,-979.0,-92.0
-15.0,-252.0,-15.0,-145.0,78.0,22.0,-40.0,-976.0,-93.0
-18.0,-254.0,-12.0,-148.0,78.0,20.0,-40.0,-973.0,-92.0
-18.0,-254.0,-15.0,-150.0,76.0,21.0,-40.0,-976.0,-91.0
-19.0,-253.0,-16.0,-152.0,76.0,20.0,-40.0,-975.0,-94.0
-18.0,-253.0,-15.0,-155.0,74.0,19.0,-43.0,-972.0,-92.0
-16.0,-253.0,-13.0,-157.0,74.0,19.0,-46.0,-973.0,-94.0
-22.0,-251.0,-14.0,-161.0,75.0,19.0,-42.0,-976.0,-93.0
-19.0,-254.0,-9.0,-166.0,75.0,19.0,-45.0,-974.0,-97.0
-19.0,-251.0,-14.0,-171.0,75.0,19.0,-47.0,-973.0,-93.0
-21.0,-253.0,-15.0,-175.0,74.0,19.0,-50.0,-973.0,-90.0
-20.0,-252.0,-15.0,-179.0,71.0,18.0,-43.0,-975.0,-89.0
-20.0,-253.0,-15.0,-182.0,71.0,17.0,-45.0,-977.0,-90.0
-20.0,-250.0,-16.0,-185.0,69.0,17.0,-41.0,-975.0,-100.0
-19.0,-254.0,-18.0,-187.0,68.0,18.0,-45.0,-976.0,-99.0
-21.0,-254.0,-15.0,-190.0,66.0,16.0,-42.0,-981.0,-100.0
-19.0,-254.0,-14.0,-191.0,65.0,16.0,-44.0,-983.0,-101.0
-21.0,-255.0,-18.0,-196.0,63.0,17.0,-49.0,-982.0,-102.0
-17.0,-252.0,-18.0,-199.0,61.0,17.0,-50.0,-984.0,-100.0
-20.0,-253.0,-16.0,-203.0,62.0,16.0,-49.0,-983.0,-98.0
-18.0,-252.0,-17.0,-209.0,62.0,17.0,-50.0,-977.0,-100.0
-19.0,-255.0,-19.0,-213.0,62.0,18.0,-54.0,-984.0,-100.0
-24.0,-257.0,-16.0,-214.0,62.0,19.0,-47.0,-990.0,-101.0
-22.0,-257.0,-19.0,-214.0,60.0,22.0,-53.0,-990.0,-104.0
-20.0,-257.0,-16.0,-213.0,61.0,25.0,-44.0,-1004.0,-105.0
-18.0,-256.0,-15.0,-214.0,62.0,26.0,-45.0,-994.0,-103.0
-18.0,-254.0,-18.0,-214.0,61.0,27.0,-45.0,-986.0,-109.0
-19.0,-253.0,-20.0,-220.0,61.0,28.0,-41.0,-982.0,-109.0
-20.0,-254.0,-20.0,-227.0,62.0,28.0,-43.0,-983.0,-118.0
-19.0,-252.0,-20.0,-232.0,62.0,27.0,-44.0,-978.0,-113.0
-24.0,-246.0,-24.0,-236.0,62.0,27.0,-46.0,-978.0,-119.0
-19.0,-252.0,-20.0,-239.0,62.0,25.0,-50.0,-978.0,-116.0
-21.0,-252.0,-20.0,-236.0,62.0,23.0,-54.0,-978.0,-121.0
-22.0,-251.0,-20.0,-235.0,61.0,22.0,-51.0,-967.0,-121.0
-20.0,-254.0,-22.0,-235.0,62.0,23.0,-48.0,-970.0,-121.0
-21.0,-250.0,-22.0,-237.0,63.0,20.0,-55.0,-969.0,-129.0
-20.0,-251.0,-24.0,-239.0,64.0,21.0,-47.0,-971.0,-124.0
-19.0,-251.0,-22.0,-242.0,65.0,18.0,-51.0,-967.0,-130.0
-20.0,-249.0,-23.0,-244.0,66.0,18.0,-53.0,-975.0,-134.0
-19.0,-252.0,-22.0,-246.0,66.0,18.0,-45.0,-976.0,-136.0
-22.0,-253.0,-24.0,-250.0,67.0,18.0,-56.0,-966.0,-131.0
-22.0,-251.0,-22.0,-253.0,66.0,20.0,-47.0,-974.0,-133.0
-19.0,-251.0,-25.0,-254.0,68.0,20.0,-46.0,-977.0,-127.0
-19.0,-252.0,-20.0,-257.0,67.0,19.0,-45.0,-976.0,-133.0
-23.0,-250.0,-21.0,-260.0,65.0,19.0,-50.0,-980.0,-137.0
-20.0,-255.0,-27.0,-267.0,64.0,19.0,-51.0,-978.0,-132.0
-19.0,-254.0,-26.0,-273.0,63.0,20.0,-50.0,-978.0,-134.0
-22.0,-249.0,-26.0,-283.0,61.0,22.0,-53.0,-972.0,-139.0
-21.0,-250.0,-26.0,-291.0,58.0,21.0,-51.0,-971.0,-140.0
-20.0,-251.0,-28.0,-296.0,57.0,22.0,-51.0,-974.0,-144.0
-22.0,-250.0,-26.0,-302.0,55.0,20.0,-49.0,-967.0,-144.0
-21.0,-248.0,-26.0,-308.0,57.0,18.0,-59.0,-971.0,-154.0
-22.0,-252.0,-28.0,-312.0,57.0,16.0,-49.0,-960.0,-154.0
-20.0,-249.0,-29.0,-313.0,54.0,14.0,-54.0,-962.0,-146.0
-20.0,-251.0,-27.0,-316.0,54.0,14.0,-57.0,-963.0,-151.0
-21.0,-250.0,-25.0,-317.0,57.0,12.0,-49.0,-965.0,-151.0
-20.0,-253.0,-28.0,-317.0,55.0,11.0,-55.0,-970.0,-144.0
-24.0,-250.0,-30.0,-317.0,54.0,9.0,-50.0,-966.0,-155.0
-22.0,-252.0,-27.0,-316.0,54.0,9.0,-53.0,-973.0,-155.0
-22.0,-252.0,-31.0,-318.0,53.0,8.0,-49.0,-977.0,-158.0
-20.0,-251.0,-31.0,-319.0,52.0,6.0,-53.0,-985.0,-165.0
-18.0,-254.0,-31.0,-321.0,51.0,6.0,-49.0,-976.0,-165.0
-21.0,-256.0,-31.0,-321.0,51.0,4.0,-58.0,-982.0,-166.0
-20.0,-255.0,-32.0,-322.0,46.0,5.0,-58.0,-992.0,-166.0
-22.0,-253.0,-32.0,-324.0,43.0,5.0,-52.0,-982.0,-172.0
-21.0,-252.0,-34.0,-322.0,40.0,4.0,-54.0,-981.0,-172.0
-23.0,-253.0,-34.0,-326.0,37.0,4.0,-50.0,-976.0,-171.0
-22.0,-254.0,-35.0,-331.0,34.0,5.0,-60.0,-977.0,-176.0
-22.0,-252.0,-37.0,-335.0,32.0,4.0,-54.0,-972.0,-177.0
-21.0,-250.0,-35.0,-341.0,33.0,2.0,-58.0,-969.0,-177.0
-22.0,-253.0,-32.0,-344.0,34.0,-1.0,-64.0,-962.0,-176.0
-24.0,-248.0,-34.0,-346.0,34.0,-1.0,-58.0,-965.0,-182.0
-20.0,-249.0,-35.0,-347.0,33.0,-4.0,-61.0,-954.0,-180.0
-19.0,-246.0,-33.0,-346.0,33.0,-8.0,-61.0,-958.0,-182.0
-23.0,-247.0,-38.0,-348.0,38.0,-10.0,-55.0,-955.0,-183.0
-21.0,-247.0,-37.0,-356.0,40.0,-8.0,-52.0,-952.0,-186.0
-18.0,-248.0,-39.0,-364.0,47.0,-12.0,-49.0,-959.0,-190.0
-19.0,-248.0,-41.0,-372.0,52.0,-15.0,-52.0,-959.0,-186.0
-16.0,-253.0,-41.0,-372.0,54.0,-16.0,-45.0,-964.0,-196.0
-18.0,-251.0,-40.0,-374.0,56.0,-17.0,-53.0,-965.0,-199.0
-21.0,-253.0,-39.0,-375.0,57.0,-17.0,-48.0,-970.0,-190.0
-20.0,-253.0,-38.0,-377.0,57.0,-18.0,-53.0,-971.0,-191.0
-19.0,-254.0,-36.0,-379.0,56.0,-18.0,-49.0,-973.0,-193.0
-18.0,-254.0,-37.0,-382.0,53.0,-19.0,-53.0,-974.0,-196.0
-21.0,-251.0,-42.0,-383.0,50.0,-19.0,-52.0,-970.0,-195.0
-21.0,-253.0,-43.0,-384.0,51.0,-23.0,-49.0,-970.0,-197.0
-21.0,-250.0,-42.0,-388.0,52.0,-24.0,-58.0,-964.0,-208.0
-18.0,-250.0,-41.0,-393.0,52.0,-25.0,-49.0,-967.0,-212.0
-18.0,-250.0,-44.0,-397.0,59.0,-26.0,-42.0,-964.0,-206.0
-18.0,-248.0,-46.0,-396.0,61.0,-27.0,-47.0,-964.0,-211.0
-21.0,-249.0,-43.0,-389.0,61.0,-28.0,-41.0,-961.0,-210.0
-20.0,-248.0,-42.0,-381.0,59.0,-30.0,-49.0,-958.0,-207.0
-19.0,-251.0,-40.0,-368.0,55.0,-33.0,-51.0,-961.0,-203.0
-19.0,-248.0,-43.0,-352.0,50.0,-36.0,-55.0,-959.0,-214.0
-18.0,-246.0,-47.0,-344.0,48.0,-34.0,-47.0,-955.0,-221.0
-18.0,-248.0,-46.0,-353.0,54.0,-27.0,-46.0,-950.0,-219.0
-20.0,-249.0,-46.0,-372.0,57.0,-22.0,-61.0,-954.0,-219.0
-22.0,-247.0,-43.0,-389.0,54.0,-18.0,-55.0,-955.0,-222.0
-20.0,-250.0,-49.0,-400.0,51.0,-13.0,-55.0,-953.0,-220.0
-21.0,-248.0,-50.0,-408.0,51.0,-9.0,-48.0,-964.0,-223.0
-20.0,-251.0,-45.0,-412.0,52.0,-6.0,-51.0,-975.0,-230.0
-17.0,-253.0,-50.0,-416.0,51.0,-3.0,-45.0,-977.0,-227.0
-17.0,-251.0,-47.0,-422.0,51.0,0.0,-43.0,-974.0,-233.0
-18.0,-251.0,-47.0,-429.0,52.0,-1.0,-37.0,-979.0,-231.0
-17.0,-253.0,-50.0,-433.0,51.0,1.0,-35.0,-977.0,-236.0
-18.0,-252.0,-50.0,-437.0,49.0,1.0,-36.0,-965.0,-237.0
-17.0,-252.0,-49.0,-438.0,46.0,-2.0,-36.0,-967.0,-242.0
-14.0,-250.0,-52.0,-436.0,45.0,-5.0,-35.0,-964.0,-242.0
-18.0,-250.0,-54.0,-433.0,45.0,-8.0,-38.0,-959.0,-251.0
-15.0,-249.0,-57.0,-428.0,44.0,-11.0,-36.0,-953.0,-255.0
-17.0,-251.0,-54.0,-424.0,47.0,-13.0,-39.0,-954.0,-262.0
-13.0,-248.0,-55.0,-419.0,51.0,-19.0,-35.0,-947.0,-267.0
-14.0,-246.0,-57.0,-420.0,56.0,-21.0,-35.0,-951.0,-273.0
-14.0,-250.0,-58.0,-422.0,62.0,-19.0,-34.0,-946.0,-271.0
-14.0,-248.0,-58.0,-425.0,65.0,-19.0,-32.0,-952.0,-271.0
-12.0,-251.0,-60.0,-427.0,67.0,-19.0,-31.0,-956.0,-276.0
-10.0,-248.0,-57.0,-427.0,69.0,-20.0,-27.0,-955.0,-275.0
-13.0,-248.0,-63.0,-428.0,75.0,-23.0,-29.0,-950.0,-279.0
-14.0,-249.0,-61.0,-432.0,76.0,-24.0,-25.0,-947.0,-276.0
-12.0,-248.0,-61.0,-435.0,81.0,-28.0,-32.0,-953.0,-287.0
-13.0,-248.0,-67.0,-437.0,85.0,-29.0,-28.0,-947.0,-290.0
-15.0,-248.0,-65.0,-438.0,88.0,-30.0,-30.0,-951.0,-289.0
-11.0,-247.0,-63.0,-437.0,92.0,-31.0,-27.0,-953.0,-301.0
-16.0,-248.0,-64.0,-436.0,96.0,-32.0,-29.0,-951.0,-304.0
-15.0,-248.0,-67.0,-435.0,100.0,-35.0,-29.0,-954.0,-305.0
-13.0,-248.0,-68.0,-434.0,104.0,-37.0,-26.0,-949.0,-308.0
-14.0,-246.0,-75.0,-436.0,109.0,-37.0,-32.0,-948.0,-312.0
-16.0,-245.0,-71.0,-437.0,110.0,-36.0,-33.0,-943.0,-314.0
-15.0,-245.0,-71.0,-439.0,112.0,-36.0,-34.0,-943.0,-320.0
-16.0,-247.0,-72.0,-442.0,112.0,-37.0,-39.0,-934.0,-323.0
-19.0,-244.0,-72.0,-440.0,113.0,-38.0,-36.0,-936.0,-327.0
-16.0,-247.0,-75.0,-439.0,114.0,-40.0,-33.0,-937.0,-334.0
-16.0,-246.0,-73.0,-436.0,117.0,-44.0,-34.0,-936.0,-333.0
-15.0,-242.0,-73.0,-434.0,117.0,-46.0,-33.0,-933.0,-336.0
-14.0,-246.0,-72.0,-432.0,118.0,-44.0,-38.0,-931.0,-337.0
-15.0,-243.0,-74.0,-428.0,119.0,-42.0,-38.0,-933.0,-337.0
-18.0,-245.0,-76.0,-428.0,118.0,-38.0,-43.0,-933.0,-337.0
-19.0,-244.0,-80.0,-433.0,118.0,-34.0,-45.0,-938.0,-347.0
-16.0,-247.0,-77.0,-433.0,115.0,-30.0,-38.0,-936.0,-346.0
-18.0,-246.0,-81.0,-434.0,114.0,-26.0,-41.0,-936.0,-353.0
-17.0,-245.0,-80.0,-436.0,115.0,-23.0,-41.0,-936.0,-361.0
-16.0,-245.0,-81.0,-442.0,119.0,-20.0,-46.0,-932.0,-362.0
-22.0,-241.0,-78.0,-446.0,123.0,-19.0,-50.0,-927.0,-363.0
-20.0,-244.0,-83.0,-450.0,128.0,-20.0,-50.0,-930.0,-362.0
-19.0,-241.0,-82.0,-450.0,131.0,-19.0,-47.0,-928.0,-367.0
-20.0,-243.0,-80.0,-451.0,135.0,-16.0,-54.0,-932.0,-369.0
-21.0,-242.0,-82.0,-449.0,138.0,-15.0,-51.0,-929.0,-375.0
-22.0,-244.0,-84.0,-450.0,140.0,-12.0,-60.0,-929.0,-372.0
-21.0,-246.0,-84.0,-449.0,141.0,-8.0,-60.0,-929.0,-379.0
-24.0,-239.0,-84.0,-446.0,142.0,-6.0,-62.0,-923.0,-387.0
-21.0,-242.0,-87.0,-446.0,144.0,-4.0,-66.0,-924.0,-390.0
-26.0,-243.0,-87.0,-451.0,147.0,-2.0,-65.0,-923.0,-394.0
-21.0,-245.0,-89.0,-458.0,149.0,3.0,-68.0,-926.0,-396.0
-25.0,-243.0,-90.0,-462.0,146.0,4.0,-73.0,-932.0,-396.0
-27.0,-242.0,-87.0,-466.0,146.0,6.0,-75.0,-933.0,-398.0
-27.0,-241.0,-86.0,-468.0,143.0,11.0,-72.0,-936.0,-392.0
-25.0,-244.0,-86.0,-465.0,140.0,14.0,-74.0,-932.0,-391.0
-28.0,-244.0,-86.0,-458.0,135.0,18.0,-75.0,-934.0,-394.0
-29.0,-244.0,-87.0,-448.0,130.0,21.0,-77.0,-938.0,-398.0
-28.0,-245.0,-87.0,-434.0,124.0,24.0,-77.0,-930.0,-393.0
-25.0,-242.0,-84.0,-423.0,116.0,26.0,-73.0,-922.0,-395.0
-23.0,-242.0,-86.0,-414.0,109.0,28.0,-69.0,-924.0,-402.0
-26.0,-240.0,-84.0,-410.0,103.0,28.0,-72.0,-919.0,-399.0
-23.0,-240.0,-89.0,-405.0,98.0,28.0,-71.0,-918.0,-400.0
-22.0,-242.0,-88.0,-402.0,94.0,26.0,-65.0,-912.0,-402.0
-24.0,-237.0,-90.0,-402.0,91.0,24.0,-62.0,-917.0,-411.0
-23.0,-243.0,-89.0,-401.0,89.0,21.0,-63.0,-918.0,-402.0
-22.0,-245.0,-86.0,-399.0,87.0,16.0,-60.0,-918.0,-405.0
-20.0,-242.0,-91.0,-396.0,84.0,12.0,-62.0,-921.0,-404.0
-21.0,-241.0,-88.0,-397.0,84.0,11.0,-59.0,-921.0,-406.0
-19.0,-242.0,-88.0,-395.0,82.0,9.0,-58.0,-919.0,-410.0
-21.0,-242.0,-89.0,-391.0,77.0,5.0,-58.0,-918.0,-411.0
-25.0,-239.0,-90.0,-386.0,72.0,1.0,-59.0,-915.0,-410.0
-24.0,-237.0,-90.0,-376.0,67.0,0.0,-62.0,-910.0,-417.0
-23.0,-237.0,-95.0,-370.0,61.0,-3.0,-64.0,-911.0,-425.0
-25.0,-238.0,-93.0,-365.0,58.0,-4.0,-66.0,-907.0,-424.0
-23.0,-236.0,-96.0,-363.0,54.0,-5.0,-67.0,-907.0,-425.0
-25.0,-235.0,-92.0,-363.0,52.0,-11.0,-69.0,-906.0,-427.0
-28.0,-238.0,-96.0,-366.0,46.0,-14.0,-70.0,-906.0,-425.0
-23.0,-239.0,-97.0,-367.0,40.0,-16.0,-71.0,-914.0,-426.0
-24.0,-242.0,-93.0,-366.0,33.0,-19.0,-69.0,-915.0,-421.0
-24.0,-239.0,-93.0,-361.0,27.0,-20.0,-69.0,-918.0,-419.0
-22.0,-241.0,-96.0,-356.0,20.0,-20.0,-71.0,-918.0,-422.0
-24.0,-242.0,-92.0,-351.0,11.0,-22.0,-68.0,-916.0,-424.0
-24.0,-239.0,-90.0,-343.0,0.0,-22.0,-64.0,-918.0,-417.0
-25.0,-237.0,-92.0,-333.0,-9.0,-23.0,-66.0,-918.0,-418.0
-22.0,-240.0,-93.0,-320.0,-19.0,-24.0,-63.0,-917.0,-420.0
-20.0,-236.0,-95.0,-311.0,-27.0,-26.0,-54.0,-914.0,-427.0
-23.0,-239.0,-95.0,-305.0,-32.0,-27.0,-54.0,-913.0,-427.0
-22.0,-237.0,-95.0,-304.0,-35.0,-29.0,-49.0,-909.0,-432.0
-21.0,-238.0,-99.0,-303.0,-37.0,-33.0,-47.0,-911.0,-438.0
-17.0,-239.0,-96.0,-299.0,-38.0,-35.0,-41.0,-912.0,-435.0
-18.0,-235.0,-91.0,-298.0,-38.0,-37.0,-41.0,-912.0,-427.0
-18.0,-240.0,-97.0,-296.0,-41.0,-40.0,-37.0,-913.0,-425.0
-14.0,-239.0,-95.0,-290.0,-42.0,-45.0,-37.0,-911.0,-426.0
-15.0,-237.0,-94.0,-282.0,-43.0,-46.0,-36.0,-909.0,-423.0
-16.0,-240.0,-90.0,-274.0,-46.0,-50.0,-39.0,-908.0,-424.0
-14.0,-238.0,-93.0,-268.0,-49.0,-51.0,-34.0,-906.0,-427.0
-15.0,-233.0,-99.0,-265.0,-50.0,-53.0,-37.0,-906.0,-428.0
-14.0,-233.0,-95.0,-262.0,-47.0,-54.0,-28.0,-905.0,-424.0
-18.0,-235.0,-96.0,-258.0,-45.0,-53.0,-32.0,-898.0,-426.0
-18.0,-234.0,-95.0,-256.0,-44.0,-52.0,-31.0,-899.0,-428.0
-18.0,-232.0,-92.0,-252.0,-47.0,-49.0,-36.0,-900.0,-431.0
-18.0,-238.0,-96.0,-250.0,-52.0,-45.0,-41.0,-904.0,-429.0
-25.0,-237.0,-99.0,-244.0,-59.0,-41.0,-47.0,-908.0,-433.0
-20.0,-240.0,-96.0,-242.0,-68.0,-37.0,-49.0,-911.0,-432.0
-19.0,-239.0,-97.0,-237.0,-76.0,-34.0,-57.0,-916.0,-435.0
-23.0,-240.0,-97.0,-227.0,-88.0,-33.0,-60.0,-918.0,-442.0
-24.0,-242.0,-96.0,-220.0,-97.0,-34.0,-67.0,-927.0,-433.0
-23.0,-246.0,-97.0,-212.0,-106.0,-34.0,-67.0,-931.0,-430.0
-26.0,-242.0,-97.0,-202.0,-116.0,-37.0,-72.0,-928.0,-429.0
-27.0,-243.0,-98.0,-191.0,-126.0,-40.0,-74.0,-937.0,-433.0
-25.0,-245.0,-97.0,-179.0,-137.0,-42.0,-73.0,-937.0,-429.0
-24.0,-246.0,-94.0,-164.0,-147.0,-46.0,-72.0,-934.0,-425.0
-22.0,-244.0,-94.0,-147.0,-156.0,-48.0,-68.0,-930.0,-423.0
-21.0,-243.0,-90.0,-129.0,-163.0,-54.0,-59.0,-924.0,-425.0
-19.0,-242.0,-91.0,-111.0,-167.0,-63.0,-55.0,-913.0,-420.0
-14.0,-240.0,-95.0,-96.0,-168.0,-69.0,-39.0,-911.0,-418.0
-13.0,-235.0,-95.0,-87.0,-167.0,-80.0,-34.0,-901.0,-426.0
-12.0,-231.0,-90.0,-82.0,-162.0,-88.0,-13.0,-894.0,-423.0
-5.0,-233.0,-95.0,-80.0,-153.0,-97.0,1.0,-882.0,-421.0
-1.0,-230.0,-93.0,-81.0,-141.0,-104.0,10.0,-881.0,-422.0
-1.0,-228.0,-90.0,-83.0,-131.0,-113.0,18.0,-875.0,-420.0
-1.0,-229.0,-89.0,-87.0,-120.0,-116.0,16.0,-873.0,-415.0
2.0,-231.0,-90.0,-87.0,-111.0,-113.0,26.0,-873.0,-401.0
-2.0,-235.0,-85.0,-83.0,-105.0,-112.0,27.0,-879.0,-395.0
0.0,-227.0,-86.0,-77.0,-102.0,-110.0,26.0,-873.0,-392.0
0.0,-228.0,-84.0,-70.0,-103.0,-106.0,20.0,-869.0,-386.0
0.0,-230.0,-84.0,-61.0,-108.0,-101.0,17.0,-869.0,-383.0
-3.0,-226.0,-84.0,-51.0,-116.0,-94.0,9.0,-869.0,-381.0
-11.0,-225.0,-84.0,-42.0,-129.0,-87.0,5.0,-867.0,-378.0
-13.0,-219.0,-86.0,-33.0,-146.0,-77.0,-26.0,-850.0,-388.0
-14.0,-221.0,-85.0,-29.0,-159.0,-61.0,-38.0,-845.0,-387.0
-23.0,-215.0,-86.0,-26.0,-170.0,-44.0,-42.0,-831.0,-379.0
-20.0,-217.0,-86.0,-21.0,-177.0,-24.0,-56.0,-828.0,-384.0
-26.0,-212.0,-80.0,-17.0,-184.0,-6.0,-67.0,-823.0,-368.0
-27.0,-210.0,-79.0,-11.0,-196.0,13.0,-71.0,-826.0,-361.0
-29.0,-210.0,-81.0,-6.0,-215.0,32.0,-87.0,-813.0,-358.0
-33.0,-207.0,-76.0,-5.0,-233.0,54.0,-100.0,-799.0,-353.0
-34.0,-201.0,-80.0,-3.0,-250.0,78.0,-106.0,-786.0,-360.0
-38.0,-200.0,-80.0,-8.0,-264.0,100.0,-112.0,-763.0,-361.0
-37.0,-194.0,-81.0,-16.0,-274.0,121.0,-113.0,-745.0,-364.0
-35.0,-185.0,-79.0,-26.0,-285.0,136.0,-106.0,-731.0,-367.0
-24.0,-190.0,-79.0,-40.0,-286.0,145.0,-86.0,-724.0,-367.0
-24.0,-190.0,-84.0,-58.0,-282.0,146.0,-69.0,-723.0,-363.0
-21.0,-186.0,-81.0,-89.0,-278.0,137.0,-68.0,-719.0,-351.0
-27.0,-185.0,-71.0,-126.0,-281.0,124.0,-78.0,-711.0,-325.0
-28.0,-184.0,-69.0,-161.0,-297.0,123.0,-76.0,-715.0,-314.0
-23.0,-190.0,-59.0,-188.0,-316.0,124.0,-73.0,-715.0,-305.0
-27.0,-184.0,-65.0,-214.0,-334.0,130.0,-83.0,-708.0,-303.0
-30.0,-184.0,-65.0,-240.0,-357.0,144.0,-80.0,-706.0,-308.0
-29.0,-181.0,-63.0,-264.0,-380.0,155.0,-88.0,-701.0,-306.0
-28.0,-181.0,-66.0,-288.0,-402.0,164.0,-97.0,-692.0,-309.0
-30.0,-182.0,-71.0,-314.0,-422.0,173.0,-99.0,-691.0,-310.0
-37.0,-180.0,-68.0,-341.0,-437.0,184.0,-104.0,-690.0,-301.0
-37.0,-180.0,-68.0,-364.0,-453.0,193.0,-107.0,-687.0,-306.0
-35.0,-182.0,-64.0,-385.0,-472.0,201.0,-107.0,-690.0,-298.0
-34.0,-181.0,-71.0,-403.0,-494.0,205.0,-110.0,-690.0,-307.0
-36.0,-183.0,-65.0,-420.0,-516.0,208.0,-117.0,-684.0,-316.0
-43.0,-177.0,-79.0,-437.0,-542.0,208.0,-136.0,-681.0,-336.0
-47.0,-173.0,-81.0,-455.0,-572.0,208.0,-140.0,-675.0,-362.0
-44.0,-174.0,-86.0,-475.0,-598.0,200.0,-151.0,-662.0,-385.0
-40.0,-170.0,-95.0,-496.0,-621.0,196.0,-142.0,-648.0,-420.0
-42.0,-163.0,-97.0,-523.0,-632.0,186.0,-139.0,-629.0,-439.0
-35.0,-162.0,-105.0,-556.0,-633.0,180.0,-123.0,-623.0,-453.0
-33.0,-160.0,-106.0,-598.0,-623.0,175.0,-95.0,-628.0,-473.0
-22.0,-160.0,-111.0,-656.0,-600.0,162.0,-67.0,-623.0,-488.0
-12.0,-163.0,-115.0,-726.0,-563.0,146.0,-30.0,-631.0,-503.0
2.0,-168.0,-128.0,-809.0,-521.0,131.0,14.0,-648.0,-547.0
11.0,-166.0,-138.0,-918.0,-464.0,112.0,41.0,-658.0,-566.0
17.0,-174.0,-145.0,-1028.0,-404.0,90.0,91.0,-672.0,-611.0
28.0,-178.0,-153.0,-1128.0,-340.0,67.0,128.0,-687.0,-647.0
35.0,-185.0,-155.0,-1213.0,-270.0,35.0,155.0,-715.0,-675.0
51.0,-193.0,-162.0,-1273.0,-185.0,-6.0,200.0,-729.0,-700.0
61.0,-208.0,-164.0,-1304.0,-74.0,-70.0,238.0,-790.0,-711.0
68.0,-222.0,-171.0,-1317.0,53.0,-145.0,265.0,-835.0,-727.0
78.0,-234.0,-175.0,-1316.0,192.0,-217.0,292.0,-882.0,-741.0
74.0,-247.0,-184.0,-1311.0,350.0,-290.0,296.0,-932.0,-779.0
68.0,-261.0,-184.0,-1312.0,521.0,-353.0,288.0,-982.0,-783.0
65.0,-264.0,-180.0,-1305.0,688.0,-401.0,282.0,-1002.0,-779.0
65.0,-268.0,-178.0,-1272.0,828.0,-435.0,277.0,-1017.0,-758.0
61.0,-271.0,-172.0,-1214.0,940.0,-462.0,252.0,-1009.0,-750.0
48.0,-259.0,-178.0,-1134.0,1029.0,-481.0,214.0,-973.0,-763.0
35.0,-247.0,-177.0,-1049.0,1094.0,-493.0,154.0,-916.0,-765.0
16.0,-222.0,-179.0,-967.0,1147.0,-500.0,83.0,-831.0,-771.0
-6.0,-195.0,-176.0,-887.0,1178.0,-494.0,-21.0,-732.0,-759.0
-35.0,-173.0,-165.0,-815.0,1184.0,-464.0,-120.0,-653.0,-726.0
-68.0,-154.0,-160.0,-748.0,1155.0,-403.0,-237.0,-581.0,-699.0
-84.0,-142.0,-164.0,-712.0,1066.0,-337.0,-309.0,-544.0,-722.0
-102.0,-133.0,-186.0,-736.0,950.0,-291.0,-365.0,-526.0,-776.0
-114.0,-139.0,-196.0,-831.0,850.0,-265.0,-411.0,-528.0,-828.0
-113.0,-160.0,-216.0,-990.0,775.0,-236.0,-420.0,-631.0,-928.0
-93.0,-185.0,-247.0,-1193.0,716.0,-232.0,-354.0,-729.0,-1029.0
-71.0,-214.0,-279.0,-1419.0,696.0,-257.0,-273.0,-846.0,-1166.0
-33.0,-241.0,-304.0,-1672.0,723.0,-315.0,-131.0,-938.0,-1254.0
13.0,-267.0,-318.0,-1909.0,771.0,-419.0,45.0,-1024.0,-1316.0
30.0,-286.0,-328.0,-2063.0,828.0,-555.0,133.0,-1082.0,-1364.0
40.0,-301.0,-333.0,-2120.0,881.0,-666.0,172.0,-1114.0,-1397.0
50.0,-309.0,-345.0,-2088.0,911.0,-726.0,213.0,-1153.0,-1438.0
58.0,-306.0,-345.0,-2029.0,942.0,-773.0,247.0,-1158.0,-1460.0
55.0,-296.0,-344.0,-1959.0,964.0,-797.0,249.0,-1127.0,-1458.0
46.0,-287.0,-336.0,-1882.0,984.0,-781.0,230.0,-1084.0,-1444.0
31.0,-269.0,-325.0,-1836.0,1007.0,-748.0,160.0,-1020.0,-1386.0
21.0,-254.0,-314.0,-1811.0,1005.0,-708.0,113.0,-952.0,-1333.0
7.0,-244.0,-306.0,-1818.0,983.0,-673.0,72.0,-922.0,-1294.0
0.0,-239.0,-297.0,-1859.0,925.0,-628.0,38.0,-902.0,-1251.0
-13.0,-230.0,-290.0,-1917.0,827.0,-577.0,-4.0,-876.0,-1220.0
-28.0,-228.0,-277.0,-1966.0,709.0,-535.0,-60.0,-865.0,-1182.0
-37.0,-226.0,-273.0,-1998.0,589.0,-506.0,-101.0,-856.0,-1163.0
-43.0,-225.0,-267.0,-2012.0,492.0,-490.0,-140.0,-843.0,-1123.0
-51.0,-216.0,-253.0,-1994.0,421.0,-483.0,-173.0,-822.0,-1085.0
-62.0,-211.0,-251.0,-1939.0,362.0,-480.0,-201.0,-797.0,-1064.0
-64.0,-215.0,-256.0,-1873.0,306.0,-456.0,-220.0,-797.0,-1045.0
-61.0,-210.0,-245.0,-1809.0,233.0,-414.0,-211.0,-793.0,-1049.0
-56.0,-196.0,-248.0,-1770.0,149.0,-387.0,-186.0,-765.0,-1053.0
-49.0,-190.0,-243.0,-1791.0,72.0,-379.0,-167.0,-715.0,-1036.0
-43.0,-177.0,-245.0,-1827.0,-19.0,-380.0,-135.0,-676.0,-1038.0
-38.0,-175.0,-237.0,-1858.0,-122.0,-389.0,-106.0,-657.0,-1015.0
-29.0,-172.0,-233.0,-1853.0,-226.0,-397.0,-76.0,-643.0,-994.0
-16.0,-170.0,-226.0,-1818.0,-323.0,-404.0,-37.0,-631.0,-964.0
-8.0,-167.0,-216.0,-1748.0,-413.0,-412.0,-6.0,-624.0,-941.0
2.0,-166.0,-211.0,-1663.0,-494.0,-424.0,38.0,-610.0,-905.0
12.0,-164.0,-205.0,-1589.0,-560.0,-439.0,75.0,-616.0,-870.0
24.0,-167.0,-194.0,-1543.0,-611.0,-448.0,120.0,-625.0,-821.0
30.0,-167.0,-185.0,-1518.0,-650.0,-457.0,147.0,-642.0,-798.0
37.0,-174.0,-180.0,-1513.0,-669.0,-461.0,172.0,-649.0,-786.0
45.0,-170.0,-187.0,-1523.0,-669.0,-461.0,179.0,-648.0,-789.0
48.0,-167.0,-188.0,-1558.0,-642.0,-456.0,200.0,-642.0,-796.0
47.0,-162.0,-190.0,-1598.0,-593.0,-444.0,202.0,-610.0,-808.0
51.0,-153.0,-197.0,-1612.0,-550.0,-427.0,208.0,-579.0,-827.0
48.0,-145.0,-201.0,-1616.0,-492.0,-406.0,201.0,-545.0,-852.0
44.0,-144.0,-200.0,-1600.0,-446.0,-388.0,193.0,-525.0,-863.0
43.0,-133.0,-208.0,-1562.0,-409.0,-379.0,186.0,-503.0,-872.0
37.0,-140.0,-202.0,-1519.0,-379.0,-375.0,173.0,-503.0,-863.0
31.0,-134.0,-204.0,-1476.0,-362.0,-377.0,176.0,-513.0,-858.0
40.0,-140.0,-201.0,-1420.0,-355.0,-388.0,174.0,-520.0,-852.0
40.0,-144.0,-201.0,-1367.0,-345.0,-396.0,174.0,-530.0,-846.0
38.0,-146.0,-205.0,-1307.0,-346.0,-403.0,173.0,-534.0,-858.0
39.0,-141.0,-202.0,-1257.0,-344.0,-406.0,169.0,-539.0,-864.0
36.0,-144.0,-204.0,-1227.0,-348.0,-406.0,162.0,-529.0,-862.0
34.0,-138.0,-202.0,-1193.0,-360.0,-405.0,162.0,-524.0,-874.0
28.0,-134.0,-205.0,-1161.0,-371.0,-401.0,150.0,-495.0,-874.0
28.0,-133.0,-209.0,-1125.0,-397.0,-385.0,145.0,-488.0,-892.0
29.0,-129.0,-206.0,-1080.0,-434.0,-371.0,142.0,-474.0,-889.0
28.0,-123.0,-213.0,-1037.0,-474.0,-353.0,135.0,-466.0,-908.0
27.0,-127.0,-211.0,-1011.0,-512.0,-335.0,141.0,-467.0,-899.0
26.0,-126.0,-209.0,-989.0,-561.0,-316.0,133.0,-469.0,-889.0
27.0,-128.0,-208.0,-964.0,-609.0,-299.0,129.0,-469.0,-892.0
26.0,-135.0,-194.0,-933.0,-660.0,-292.0,130.0,-481.0,-844.0
24.0,-145.0,-193.0,-861.0,-721.0,-290.0,134.0,-518.0,-821.0
20.0,-140.0,-201.0,-750.0,-778.0,-296.0,95.0,-515.0,-849.0
15.0,-144.0,-205.0,-630.0,-829.0,-279.0,99.0,-515.0,-882.0
17.0,-132.0,-208.0,-524.0,-875.0,-269.0,87.0,-503.0,-903.0
15.0,-137.0,-206.0,-428.0,-922.0,-264.0,90.0,-506.0,-884.0
25.0,-130.0,-201.0,-347.0,-953.0,-252.0,75.0,-472.0,-927.0
12.0,-115.0,-227.0,-293.0,-977.0,-242.0,59.0,-436.0,-955.0
12.0,-117.0,-221.0,-283.0,-988.0,-227.0,62.0,-416.0,-949.0
15.0,-110.0,-215.0,-291.0,-992.0,-217.0,64.0,-398.0,-933.0
5.0,-96.0,-225.0,-314.0,-986.0,-201.0,44.0,-362.0,-958.0
12.0,-99.0,-221.0,-354.0,-977.0,-183.0,45.0,-362.0,-947.0
11.0,-98.0,-213.0,-388.0,-978.0,-183.0,60.0,-360.0,-921.0
6.0,-96.0,-216.0,-411.0,-993.0,-193.0,43.0,-347.0,-938.0
7.0,-91.0,-211.0,-442.0,-1006.0,-199.0,46.0,-350.0,-921.0
11.0,-97.0,-212.0,-465.0,-1021.0,-202.0,57.0,-349.0,-914.0
4.0,-95.0,-211.0,-481.0,-1039.0,-206.0,35.0,-341.0,-912.0
4.0,-99.0,-212.0,-496.0,-1056.0,-204.0,26.0,-348.0,-899.0
-2.0,-93.0,-210.0,-513.0,-1076.0,-207.0,18.0,-348.0,-900.0
-4.0,-91.0,-212.0,-539.0,-1093.0,-212.0,8.0,-341.0,-907.0
-6.0,-90.0,-211.0,-579.0,-1108.0,-217.0,-12.0,-333.0,-906.0
-5.0,-88.0,-216.0,-634.0,-1122.0,-227.0,-17.0,-326.0,-906.0
-11.0,-82.0,-218.0,-705.0,-1135.0,-238.0,-24.0,-320.0,-910.0
-7.0,-86.0,-214.0,-794.0,-1138.0,-258.0,-24.0,-323.0,-911.0
-11.0,-80.0,-212.0,-894.0,-1140.0,-280.0,-32.0,-314.0,-904.0
-9.0,-76.0,-209.0,-1004.0,-1140.0,-299.0,-27.0,-298.0,-897.0
-14.0,-70.0,-207.0,-1126.0,-1147.0,-316.0,-40.0,-260.0,-889.0
-16.0,-57.0,-205.0,-1245.0,-1159.0,-328.0,-54.0,-229.0,-874.0
-16.0,-63.0,-203.0,-1360.0,-1178.0,-341.0,-62.0,-210.0,-880.0
-21.0,-55.0,-204.0,-1457.0,-1198.0,-364.0,-74.0,-223.0,-869.0
-23.0,-63.0,-199.0,-1533.0,-1216.0,-389.0,-77.0,-228.0,-841.0
-22.0,-68.0,-189.0,-1568.0,-1236.0,-419.0,-78.0,-251.0,-809.0
-18.0,-84.0,-185.0,-1552.0,-1259.0,-448.0,-67.0,-296.0,-796.0
-22.0,-99.0,-188.0,-1477.0,-1281.0,-470.0,-75.0,-347.0,-806.0
-22.0,-120.0,-186.0,-1338.0,-1300.0,-485.0,-75.0,-406.0,-802.0
-26.0,-132.0,-184.0,-1140.0,-1315.0,-501.0,-84.0,-460.0,-797.0
-30.0,-140.0,-181.0,-926.0,-1335.0,-514.0,-96.0,-500.0,-788.0
-38.0,-142.0,-184.0,-719.0,-1363.0,-527.0,-122.0,-511.0,-784.0
-44.0,-138.0,-183.0,-542.0,-1393.0,-534.0,-148.0,-503.0,-777.0
-50.0,-126.0,-181.0,-402.0,-1425.0,-534.0,-172.0,-464.0,-784.0
-51.0,-119.0,-182.0,-302.0,-1462.0,-530.0,-184.0,-430.0,-786.0
-51.0,-107.0,-178.0,-237.0,-1498.0,-526.0,-186.0,-378.0,-771.0
-56.0,-91.0,-177.0,-191.0,-1532.0,-538.0,-199.0,-319.0,-755.0
-54.0,-79.0,-169.0,-152.0,-1568.0,-559.0,-205.0,-274.0,-734.0
-59.0,-59.0,-166.0,-111.0,-1604.0,-590.0,-216.0,-222.0,-720.0
-61.0,-47.0,-165.0,-70.0,-1637.0,-621.0,-231.0,-171.0,-710.0
-63.0,-35.0,-165.0,-31.0,-1664.0,-644.0,-246.0,-115.0,-711.0
-69.0,-19.0,-174.0,1.0,-1685.0,-662.0,-265.0,-74.0,-718.0
-75.0,-8.0,-174.0,16.0,-1704.0,-663.0,-279.0,-32.0,-758.0
-77.0,-4.0,-183.0,9.0,-1720.0,-655.0,-284.0,-13.0,-778.0
-83.0,0.0,-186.0,-16.0,-1736.0,-643.0,-324.0,5.0,-796.0
-87.0,0.0,-182.0,-52.0,-1750.0,-626.0,-342.0,-3.0,-782.0
-99.0,-1.0,-170.0,-92.0,-1761.0,-621.0,-374.0,-9.0,-741.0
-113.0,-5.0,-158.0,-141.0,-1777.0,-623.0,-421.0,-23.0,-690.0
-120.0,-7.0,-151.0,-199.0,-1794.0,-633.0,-460.0,-31.0,-635.0
-130.0,-12.0,-138.0,-253.0,-1806.0,-652.0,-506.0,-38.0,-590.0
-137.0,-14.0,-130.0,-291.0,-1821.0,-678.0,-533.0,-46.0,-573.0
-147.0,-14.0,-131.0,-307.0,-1844.0,-699.0,-561.0,-53.0,-564.0
-146.0,-16.0,-133.0,-307.0,-1894.0,-702.0,-570.0,-56.0,-575.0
-145.0,-20.0,-136.0,-299.0,-1969.0,-687.0,-563.0,-64.0,-590.0
-140.0,-18.0,-144.0,-281.0,-2060.0,-664.0,-533.0,-69.0,-611.0
-134.0,-25.0,-141.0,-257.0,-2164.0,-635.0,-516.0,-82.0,-603.0
-134.0,-29.0,-141.0,-223.0,-2279.0,-603.0,-498.0,-103.0,-607.0
-130.0,-34.0,-150.0,-179.0,-2390.0,-580.0,-495.0,-116.0,-631.0
-132.0,-38.0,-152.0,-142.0,-2484.0,-569.0,-510.0,-136.0,-652.0
-141.0,-44.0,-157.0,-115.0,-2557.0,-575.0,-545.0,-158.0,-665.0
-151.0,-51.0,-162.0,-91.0,-2612.0,-589.0,-572.0,-173.0,-688.0
-153.0,-55.0,-165.0,-73.0,-2653.0,-612.0,-602.0,-196.0,-706.0
-169.0,-55.0,-168.0,-58.0,-2691.0,-633.0,-643.0,-208.0,-712.0
-182.0,-58.0,-170.0,-39.0,-2747.0,-644.0,-689.0,-216.0,-733.0
-181.0,-62.0,-181.0,-12.0,-2825.0,-641.0,-704.0,-231.0,-757.0
-183.0,-64.0,-182.0,25.0,-2920.0,-629.0,-704.0,-242.0,-785.0
-189.0,-69.0,-186.0,64.0,-3027.0,-611.0,-715.0,-255.0,-796.0
-191.0,-69.0,-191.0,96.0,-3149.0,-588.0,-743.0,-252.0,-794.0
-198.0,-67.0,-190.0,116.0,-3281.0,-553.0,-761.0,-242.0,-798.0
-209.0,-57.0,-189.0,118.0,-3411.0,-512.0,-812.0,-225.0,-788.0
-221.0,-45.0,-188.0,95.0,-3533.0,-464.0,-861.0,-186.0,-781.0
-240.0,-31.0,-186.0,33.0,-3645.0,-414.0,-932.0,-122.0,-765.0
-253.0,-11.0,-186.0,-55.0,-3743.0,-365.0,-980.0,-55.0,-772.0
-263.0,8.0,-195.0,-153.0,-3820.0,-328.0,-1031.0,-2.0,-793.0
-274.0,21.0,-204.0,-257.0,-3870.0,-311.0,-1071.0,54.0,-847.0
-284.0,34.0,-216.0,-364.0,-3903.0,-289.0,-1113.0,116.0,-906.0
-301.0,40.0,-216.0,-455.0,-3923.0,-250.0,-1179.0,137.0,-922.0
-319.0,39.0,-217.0,-520.0,-3947.0,-177.0,-1237.0,140.0,-913.0
-323.0,33.0,-213.0,-555.0,-3991.0,-66.0,-1265.0,124.0,-909.0
-333.0,30.0,-216.0,-566.0,-4052.0,70.0,-1290.0,90.0,-916.0
-337.0,21.0,-218.0,-564.0,-4112.0,216.0,-1305.0,81.0,-921.0
-342.0,10.0,-222.0,-543.0,-4156.0,371.0,-1340.0,52.0,-924.0
-362.0,12.0,-223.0,-502.0,-4172.0,534.0,-1420.0,42.0,-931.0
-374.0,11.0,-228.0,-465.0,-4153.0,735.0,-1483.0,61.0,-952.0
-382.0,24.0,-245.0,-452.0,-4077.0,961.0,-1508.0,86.0,-1002.0
-388.0,40.0,-248.0,-493.0,-3964.0,1194.0,-1542.0,137.0,-1041.0
-362.0,43.0,-265.0,-573.0,-3850.0,1414.0,-1449.0,160.0,-1097.0
-359.0,41.0,-256.0,-640.0,-3663.0,1597.0,-1455.0,160.0,-1066.0
-354.0,49.0,-238.0,-657.0,-3445.0,1753.0,-1427.0,189.0,-1004.0
-360.0,60.0,-216.0,-692.0,-3277.0,1890.0,-1422.0,206.0,-919.0
-331.0,45.0,-186.0,-760.0,-3203.0,2018.0,-1310.0,180.0,-790.0
-323.0,38.0,-141.0,-750.0,-3140.0,2120.0,-1273.0,170.0,-603.0
-336.0,26.0,-88.0,-633.0,-3090.0,2218.0,-1327.0,137.0,-407.0
-326.0,18.0,-50.0,-441.0,-3086.0,2328.0,-1297.0,103.0,-254.0
-335.0,-11.0,-20.0,-219.0,-3068.0,2397.0,-1308.0,2.0,-138.0
-339.0,-7.0,-37.0,25.0,-3011.0,2458.0,-1354.0,-34.0,-147.0
-372.0,-8.0,-28.0,181.0,-2951.0,2531.0,-1447.0,-43.0,-120.0
-362.0,-8.0,-31.0,266.0,-2895.0,2609.0,-1458.0,-34.0,-131.0
-360.0,-6.0,-35.0,279.0,-2814.0,2647.0,-1428.0,-42.0,-150.0
-367.0,12.0,-49.0,238.0,-2740.0,2645.0,-1455.0,14.0,-224.0
-362.0,21.0,-73.0,139.0,-2657.0,2610.0,-1447.0,46.0,-304.0
-356.0,12.0,-71.0,1.0,-2529.0,2559.0,-1433.0,27.0,-309.0
-356.0,25.0,-67.0,-107.0,-2370.0,2541.0,-1405.0,78.0,-282.0
-338.0,35.0,-45.0,-201.0,-2236.0,2538.0,-1346.0,121.0,-214.0
-326.0,50.0,-22.0,-258.0,-2168.0,2511.0,-1293.0,191.0,-118.0
-326.0,69.0,-5.0,-251.0,-2158.0,2438.0,-1294.0,261.0,-51.0
-318.0,80.0,-13.0,-166.0,-2159.0,2309.0,-1288.0,327.0,-74.0
-328.0,91.0,-8.0,-38.0,-2113.0,2084.0,-1298.0,363.0,-53.0
-341.0,108.0,-6.0,105.0,-2009.0,1777.0,-1398.0,425.0,-23.0
-352.0,133.0,-4.0,210.0,-1865.0,1439.0,-1417.0,487.0,-31.0
-352.0,150.0,-5.0,232.0,-1695.0,1090.0,-1438.0,543.0,-35.0
-356.0,174.0,-3.0,181.0,-1517.0,759.0,-1457.0,624.0,-25.0
-348.0,189.0,9.0,75.0,-1376.0,482.0,-1411.0,688.0,11.0
-349.0,195.0,4.0,-45.0,-1267.0,262.0,-1413.0,719.0,-1.0
-345.0,181.0,2.0,-185.0,-1180.0,141.0,-1405.0,669.0,-13.0
-303.0,157.0,1.0,-315.0,-1134.0,125.0,-1260.0,597.0,-10.0
-256.0,143.0,8.0,-412.0,-1132.0,105.0,-1059.0,538.0,1.0
-213.0,129.0,0.0,-468.0,-1121.0,63.0,-891.0,481.0,-4.0
-181.0,113.0,13.0,-523.0,-1080.0,6.0,-726.0,431.0,29.0
-161.0,108.0,22.0,-561.0,-1040.0,-55.0,-648.0,419.0,61.0
-155.0,111.0,33.0,-579.0,-1018.0,-117.0,-615.0,419.0,100.0
-156.0,109.0,43.0,-588.0,-1021.0,-154.0,-614.0,414.0,139.0
-159.0,107.0,53.0,-594.0,-1044.0,-168.0,-630.0,411.0,174.0
-165.0,102.0,68.0,-594.0,-1083.0,-177.0,-650.0,408.0,223.0
-172.0,110.0,68.0,-583.0,-1132.0,-195.0,-673.0,415.0,238.0
-171.0,115.0,69.0,-592.0,-1184.0,-214.0,-688.0,424.0,241.0
-171.0,113.0,68.0,-643.0,-1215.0,-245.0,-684.0,424.0,225.0
-190.0,110.0,68.0,-723.0,-1217.0,-285.0,-724.0,414.0,239.0
-192.0,98.0,69.0,-797.0,-1201.0,-280.0,-767.0,358.0,247.0
-176.0,76.0,76.0,-849.0,-1168.0,-237.0,-703.0,291.0,277.0
-172.0,70.0,83.0,-834.0,-1098.0,-206.0,-690.0,279.0,300.0
-174.0,71.0,79.0,-778.0,-1051.0,-189.0,-690.0,269.0,280.0
-171.0,65.0,69.0,-742.0,-1046.0,-172.0,-680.0,246.0,266.0
-175.0,62.0,71.0,-720.0,-1053.0,-173.0,-674.0,223.0,254.0
-169.0,51.0,68.0,-697.0,-1066.0,-186.0,-672.0,205.0,245.0
-168.0,49.0,66.0,-665.0,-1073.0,-200.0,-670.0,188.0,242.0
-171.0,46.0,80.0,-631.0,-1074.0,-212.0,-668.0,178.0,269.0
-172.0,45.0,79.0,-592.0,-1067.0,-215.0,-675.0,175.0,294.0
-174.0,41.0,85.0,-551.0,-1055.0,-209.0,-690.0,168.0,306.0
-169.0,38.0,91.0,-509.0,-1025.0,-206.0,-669.0,156.0,343.0
-165.0,37.0,98.0,-453.0,-973.0,-209.0,-659.0,156.0,362.0
-169.0,35.0,102.0,-386.0,-920.0,-211.0,-666.0,151.0,376.0
-157.0,29.0,108.0,-306.0,-873.0,-196.0,-633.0,131.0,393.0
-154.0,27.0,106.0,-211.0,-830.0,-178.0,-623.0,117.0,410.0
-148.0,19.0,115.0,-106.0,-782.0,-158.0,-597.0,93.0,422.0
-145.0,14.0,119.0,6.0,-731.0,-148.0,-583.0,85.0,436.0
-153.0,14.0,119.0,120.0,-684.0,-149.0,-583.0,69.0,443.0
-164.0,15.0,117.0,229.0,-648.0,-158.0,-634.0,60.0,442.0
-177.0,14.0,117.0,329.0,-620.0,-161.0,-689.0,61.0,441.0
-192.0,20.0,112.0,413.0,-587.0,-151.0,-748.0,64.0,424.0
-208.0,18.0,109.0,469.0,-547.0,-133.0,-819.0,69.0,408.0
-223.0,23.0,101.0,498.0,-501.0,-115.0,-879.0,83.0,396.0
-236.0,30.0,101.0,499.0,-452.0,-104.0,-929.0,98.0,372.0
-251.0,32.0,99.0,481.0,-398.0,-102.0,-986.0,116.0,354.0
-261.0,41.0,93.0,450.0,-339.0,-101.0,-1037.0,130.0,335.0
-267.0,47.0,90.0,413.0,-279.0,-106.0,-1064.0,151.0,318.0
-276.0,49.0,85.0,378.0,-220.0,-116.0,-1095.0,178.0,307.0
-275.0,55.0,81.0,346.0,-164.0,-130.0,-1104.0,189.0,295.0
-280.0,60.0,81.0,317.0,-113.0,-146.0,-1116.0,208.0,285.0
-279.0,60.0,77.0,291.0,-74.0,-163.0,-1119.0,217.0,286.0
-284.0,63.0,76.0,267.0,-44.0,-178.0,-1120.0,232.0,278.0
-278.0,65.0,73.0,243.0,-25.0,-194.0,-1117.0,239.0,259.0
-277.0,65.0,68.0,217.0,-8.0,-212.0,-1107.0,235.0,244.0
-276.0,61.0,65.0,189.0,5.0,-232.0,-1100.0,216.0,223.0
-275.0,52.0,65.0,156.0,13.0,-248.0,-1105.0,200.0,229.0
-274.0,45.0,67.0,128.0,18.0,-259.0,-1089.0,163.0,231.0
-274.0,35.0,68.0,108.0,24.0,-265.0,-1066.0,117.0,241.0
-266.0,22.0,73.0,97.0,28.0,-267.0,-1047.0,77.0,265.0
-251.0,11.0,79.0,94.0,26.0,-268.0,-997.0,35.0,290.0
-248.0,8.0,87.0,97.0,24.0,-271.0,-986.0,23.0,308.0
-245.0,2.0,91.0,122.0,27.0,-267.0,-938.0,2.0,334.0
-238.0,6.0,96.0,160.0,44.0,-263.0,-935.0,10.0,349.0
-229.0,8.0,97.0,188.0,69.0,-242.0,-912.0,22.0,363.0
-216.0,28.0,85.0,207.0,102.0,-242.0,-864.0,101.0,328.0
-225.0,46.0,93.0,168.0,144.0,-283.0,-884.0,157.0,355.0
-225.0,45.0,104.0,126.0,186.0,-295.0,-891.0,169.0,373.0
-223.0,38.0,102.0,128.0,242.0,-295.0,-895.0,147.0,392.0
-221.0,34.0,103.0,177.0,313.0,-299.0,-876.0,135.0,366.0
-219.0,34.0,100.0,241.0,382.0,-305.0,-873.0,133.0,368.0
-214.0,33.0,98.0,313.0,431.0,-310.0,-868.0,134.0,362.0
-223.0,36.0,97.0,386.0,462.0,-309.0,-876.0,139.0,344.0
-220.0,37.0,85.0,438.0,471.0,-302.0,-865.0,141.0,311.0
-220.0,34.0,77.0,466.0,474.0,-296.0,-870.0,130.0,285.0
-224.0,36.0,69.0,478.0,478.0,-286.0,-881.0,130.0,252.0
-227.0,37.0,66.0,478.0,486.0,-274.0,-892.0,136.0,247.0
-225.0,33.0,71.0,474.0,500.0,-253.0,-881.0,117.0,250.0
-225.0,27.0,69.0,482.0,526.0,-239.0,-883.0,96.0,252.0
-225.0,23.0,73.0,504.0,557.0,-239.0,-884.0,81.0,251.0
-235.0,27.0,73.0,524.0,585.0,-243.0,-921.0,87.0,267.0
-234.0,31.0,67.0,540.0,602.0,-231.0,-922.0,90.0,246.0
-221.0,22.0,72.0,533.0,626.0,-218.0,-884.0,86.0,243.0
-196.0,32.0,62.0,520.0,664.0,-213.0,-810.0,103.0,211.0
-194.0,30.0,56.0,477.0,717.0,-252.0,-780.0,116.0,188.0
-204.0,40.0,51.0,413.0,766.0,-313.0,-815.0,133.0,177.0
-210.0,33.0,50.0,357.0,791.0,-346.0,-839.0,133.0,175.0
-215.0,29.0,45.0,341.0,787.0,-347.0,-841.0,112.0,151.0
-221.0,23.0,38.0,352.0,768.0,-348.0,-870.0,97.0,121.0
-235.0,20.0,30.0,367.0,749.0,-345.0,-918.0,89.0,101.0
-244.0,24.0,27.0,391.0,727.0,-317.0,-954.0,86.0,80.0
-252.0,21.0,22.0,413.0,711.0,-275.0,-989.0,80.0,53.0
-261.0,23.0,24.0,414.0,704.0,-232.0,-1018.0,76.0,46.0
-267.0,24.0,16.0,402.0,695.0,-196.0,-1051.0,71.0,44.0
-277.0,23.0,21.0,377.0,679.0,-161.0,-1081.0,66.0,45.0
-287.0,20.0,21.0,345.0,647.0,-129.0,-1128.0,64.0,49.0
-294.0,22.0,19.0,295.0,589.0,-95.0,-1158.0,67.0,46.0
-300.0,21.0,15.0,227.0,530.0,-62.0,-1178.0,70.0,44.0
-304.0,21.0,17.0,167.0,472.0,-39.0,-1188.0,68.0,39.0
-300.0,18.0,17.0,115.0,422.0,-28.0,-1197.0,69.0,41.0
-307.0,22.0,17.0,84.0,381.0,-5.0,-1204.0,65.0,42.0
-310.0,21.0,15.0,72.0,346.0,4.0,-1214.0,67.0,40.0
-303.0,22.0,20.0,70.0,329.0,7.0,-1194.0,77.0,40.0
-296.0,22.0,22.0,90.0,321.0,13.0,-1169.0,80.0,59.0
-292.0,24.0,25.0,134.0,315.0,18.0,-1155.0,82.0,58.0
-290.0,29.0,21.0,181.0,310.0,6.0,-1142.0,85.0,62.0
-283.0,24.0,22.0,222.0,293.0,-6.0,-1111.0,80.0,53.0
-271.0,21.0,16.0,257.0,276.0,-12.0,-1075.0,67.0,36.0
-262.0,19.0,12.0,267.0,270.0,-18.0,-1047.0,73.0,20.0
-258.0,20.0,12.0,263.0,260.0,-24.0,-1031.0,72.0,21.0
-254.0,20.0,10.0,259.0,240.0,-23.0,-1004.0,66.0,10.0
-250.0,20.0,4.0,256.0,214.0,-24.0,-988.0,74.0,-11.0
-250.0,18.0,3.0,242.0,197.0,-19.0,-985.0,78.0,-9.0
-251.0,29.0,-2.0,224.0,182.0,-11.0,-982.0,89.0,-28.0
-253.0,31.0,-4.0,191.0,175.0,-1.0,-999.0,101.0,-35.0
-252.0,35.0,-7.0,145.0,183.0,3.0,-993.0,116.0,-43.0
-253.0,34.0,-5.0,85.0,199.0,-10.0,-991.0,121.0,-57.0
-252.0,34.0,-8.0,10.0,219.0,-38.0,-998.0,126.0,-50.0
-256.0,32.0,-2.0,-55.0,234.0,-75.0,-1022.0,116.0,-25.0
-266.0,32.0,3.0,-93.0,230.0,-100.0,-1048.0,110.0,-12.0
-266.0,26.0,5.0,-99.0,216.0,-114.0,-1069.0,106.0,-9.0
-269.0,26.0,5.0,-83.0,200.0,-122.0,-1065.0,99.0,-18.0
-265.0,22.0,3.0,-56.0,186.0,-126.0,-1058.0,89.0,-21.0
-266.0,25.0,-3.0,-35.0,172.0,-125.0,-1054.0,84.0,-28.0
-263.0,21.0,-1.0,-16.0,157.0,-112.0,-1044.0,82.0,-33.0
-263.0,19.0,1.0,-5.0,134.0,-90.0,-1043.0,68.0,-30.0
-262.0,15.0,1.0,12.0,106.0,-57.0,-1037.0,55.0,-18.0
-266.0,2.0,5.0,32.0,75.0,-21.0,-1034.0,38.0,-10.0
-263.0,9.0,8.0,54.0,37.0,16.0,-1033.0,31.0,3.0
-260.0,8.0,13.0,78.0,4.0,55.0,-1033.0,22.0,16.0
-262.0,8.0,17.0,91.0,-25.0,91.0,-1034.0,14.0,36.0
-260.0,9.0,22.0,106.0,-48.0,126.0,-1036.0,17.0,54.0
-259.0,11.0,26.0,124.0,-62.0,160.0,-1038.0,29.0,64.0
-258.0,10.0,23.0,142.0,-64.0,190.0,-1036.0,41.0,74.0
-258.0,16.0,30.0,156.0,-54.0,211.0,-1028.0,48.0,88.0
-257.0,14.0,34.0,172.0,-33.0,220.0,-1023.0,60.0,100.0
-257.0,21.0,34.0,185.0,-9.0,219.0,-1024.0,73.0,107.0
-256.0,24.0,33.0,191.0,22.0,210.0,-1003.0,88.0,108.0
-256.0,29.0,39.0,188.0,57.0,193.0,-1007.0,95.0,113.0
-258.0,34.0,36.0,183.0,95.0,176.0,-1027.0,114.0,112.0
-259.0,33.0,39.0,169.0,133.0,166.0,-1033.0,120.0,119.0
-260.0,33.0,40.0,157.0,157.0,154.0,-1032.0,121.0,122.0
-263.0,31.0,39.0,141.0,169.0,143.0,-1046.0,127.0,119.0
-263.0,35.0,40.0,121.0,172.0,135.0,-1044.0,131.0,121.0
-267.0,40.0,41.0,96.0,167.0,125.0,-1045.0,129.0,118.0
-266.0,32.0,36.0,66.0,154.0,115.0,-1055.0,126.0,122.0
-269.0,30.0,39.0,42.0,137.0,105.0,-1070.0,116.0,130.0
-265.0,35.0,40.0,21.0,114.0,97.0,-1048.0,115.0,123.0
-269.0,25.0,43.0,-2.0,102.0,80.0,-1050.0,108.0,126.0
-264.0,29.0,41.0,-18.0,89.0,63.0,-1045.0,91.0,134.0
-258.0,21.0,41.0,-19.0,69.0,50.0,-1028.0,89.0,131.0
-255.0,25.0,38.0,-12.0,50.0,36.0,-995.0,83.0,124.0
-249.0,25.0,38.0,-8.0,39.0,22.0,-977.0,79.0,111.0
-248.0,22.0,33.0,-10.0,34.0,10.0,-961.0,81.0,104.0
-243.0,25.0,35.0,-18.0,30.0,4.0,-956.0,95.0,101.0
-242.0,28.0,31.0,-34.0,26.0,4.0,-950.0,94.0,95.0
-241.0,30.0,33.0,-53.0,17.0,8.0,-947.0,96.0,91.0
-242.0,28.0,29.0,-71.0,8.0,18.0,-947.0,98.0,96.0
-245.0,30.0,30.0,-87.0,1.0,30.0,-951.0,108.0,91.0
-244.0,29.0,30.0,-102.0,-5.0,42.0,-961.0,111.0,91.0
-247.0,25.0,24.0,-114.0,-12.0,53.0,-971.0,110.0,88.0
-253.0,31.0,28.0,-122.0,-20.0,57.0,-982.0,106.0,86.0
-251.0,32.0,25.0,-133.0,-25.0,57.0,-992.0,108.0,82.0
-256.0,32.0,33.0,-142.0,-27.0,57.0,-1005.0,104.0,78.0
-253.0,30.0,26.0,-143.0,-22.0,59.0,-1004.0,109.0,89.0
-254.0,31.0,29.0,-139.0,-17.0,59.0,-1006.0,110.0,89.0
-259.0,28.0,30.0,-131.0,-14.0,59.0,-1017.0,110.0,90.0
-254.0,30.0,32.0,-112.0,-13.0,58.0,-1007.0,113.0,92.0
-256.0,30.0,33.0,-95.0,-9.0,55.0,-1014.0,114.0,94.0
-256.0,32.0,29.0,-76.0,-9.0,47.0,-1012.0,117.0,97.0
-258.0,39.0,29.0,-61.0,-9.0,40.0,-1021.0,128.0,95.0
-259.0,39.0,29.0,-49.0,-9.0,31.0,-1021.0,133.0,83.0
-257.0,35.0,32.0,-51.0,-8.0,29.0,-1032.0,137.0,92.0
-258.0,37.0,30.0,-46.0,-5.0,33.0,-1028.0,137.0,101.0
-259.0,39.0,28.0,-37.0,1.0,31.0,-1037.0,146.0,88.0
-261.0,36.0,28.0,-35.0,4.0,33.0,-1039.0,141.0,91.0
-263.0,38.0,28.0,-26.0,11.0,42.0,-1042.0,139.0,86.0
-258.0,35.0,31.0,-11.0,21.0,51.0,-1040.0,137.0,85.0
-261.0,35.0,26.0,1.0,31.0,59.0,-1038.0,132.0,82.0
-262.0,34.0,29.0,5.0,40.0,60.0,-1041.0,135.0,81.0
-264.0,35.0,29.0,10.0,46.0,60.0,-1043.0,128.0,91.0
-262.0,34.0,30.0,17.0,48.0,59.0,-1038.0,126.0,88.0
-258.0,30.0,31.0,25.0,50.0,59.0,-1037.0,125.0,91.0
-259.0,29.0,30.0,33.0,54.0,60.0,-1027.0,116.0,94.0
-259.0,29.0,32.0,38.0,55.0,58.0,-1030.0,114.0,97.0
-257.0,31.0,34.0,45.0,55.0,58.0,-1024.0,113.0,96.0
-255.0,31.0,31.0,49.0,54.0,61.0,-1014.0,110.0,97.0
-256.0,29.0,32.0,54.0,57.0,65.0,-1012.0,110.0,98.0
-253.0,28.0,35.0,61.0,54.0,68.0,-997.0,110.0,101.0
-252.0,29.0,34.0,65.0,53.0,63.0,-990.0,107.0,99.0
-254.0,31.0,32.0,68.0,48.0,56.0,-989.0,110.0,107.0
-253.0,30.0,37.0,73.0,45.0,50.0,-988.0,106.0,115.0
-252.0,33.0,35.0,80.0,43.0,44.0,-983.0,116.0,106.0
-249.0,32.0,36.0,81.0,46.0,39.0,-982.0,120.0,106.0
-249.0,36.0,34.0,82.0,51.0,35.0,-979.0,130.0,111.0
-249.0,37.0,38.0,82.0,58.0,30.0,-982.0,132.0,108.0
-251.0,36.0,40.0,81.0,60.0,25.0,-979.0,136.0,108.0
-251.0,36.0,38.0,87.0,62.0,18.0,-980.0,131.0,111.0
-249.0,40.0,35.0,95.0,63.0,9.0,-978.0,147.0,103.0
-247.0,38.0,30.0,92.0,62.0,4.0,-970.0,141.0,99.0
-243.0,40.0,31.0,81.0,68.0,-6.0,-953.0,148.0,91.0
-246.0,39.0,32.0,64.0,77.0,-15.0,-973.0,153.0,93.0
-255.0,45.0,36.0,46.0,86.0,-16.0,-988.0,162.0,99.0
-254.0,41.0,34.0,34.0,89.0,-13.0,-997.0,153.0,102.0
-251.0,42.0,40.0,29.0,87.0,-14.0,-989.0,148.0,114.0
-255.0,41.0,36.0,33.0,84.0,-20.0,-1002.0,156.0,107.0
-255.0,43.0,36.0,36.0,80.0,-22.0,-1001.0,156.0,107.0
-256.0,42.0,35.0,41.0,75.0,-21.0,-1025.0,160.0,106.0
-260.0,41.0,33.0,46.0,69.0,-15.0,-1033.0,153.0,94.0
-259.0,40.0,35.0,48.0,65.0,-10.0,-1033.0,149.0,100.0
-257.0,37.0,33.0,49.0,63.0,-9.0,-1028.0,147.0,101.0
-254.0,33.0,28.0,53.0,62.0,-13.0,-997.0,123.0,86.0
-251.0,36.0,24.0,51.0,65.0,-25.0,-986.0,122.0,76.0
-251.0,35.0,26.0,37.0,74.0,-35.0,-986.0,123.0,78.0
-254.0,35.0,28.0,20.0,90.0,-42.0,-998.0,119.0,78.0
-259.0,38.0,29.0,6.0,102.0,-45.0,-1020.0,137.0,85.0
-256.0,41.0,29.0,-6.0,110.0,-42.0,-1020.0,144.0,75.0
-253.0,43.0,27.0,-17.0,118.0,-35.0,-1005.0,149.0,74.0
-248.0,42.0,25.0,-28.0,128.0,-34.0,-979.0,151.0,69.0
-243.0,40.0,23.0,-39.0,144.0,-33.0,-964.0,148.0,64.0
-246.0,40.0,23.0,-46.0,160.0,-34.0,-970.0,149.0,59.0
-248.0,36.0,24.0,-44.0,170.0,-30.0,-970.0,137.0,63.0
-250.0,32.0,25.0,-35.0,171.0,-23.0,-972.0,126.0,65.0
-250.0,34.0,23.0,-23.0,167.0,-20.0,-964.0,129.0,65.0
-249.0,33.0,28.0,-16.0,156.0,-20.0,-972.0,120.0,70.0
-254.0,34.0,28.0,-13.0,138.0,-20.0,-988.0,123.0,82.0
-256.0,37.0,28.0,-14.0,115.0,-16.0,-998.0,124.0,80.0
-256.0,37.0,30.0,-19.0,93.0,-13.0,-999.0,125.0,86.0
-256.0,34.0,29.0,-28.0,74.0,-11.0,-999.0,123.0,87.0
-258.0,32.0,31.0,-37.0,59.0,-16.0,-1016.0,123.0,86.0
-256.0,34.0,28.0,-50.0,54.0,-20.0,-1023.0,119.0,81.0
-256.0,34.0,31.0,-61.0,51.0,-18.0,-1018.0,120.0,84.0
-256.0,33.0,32.0,-73.0,54.0,-16.0,-1026.0,122.0,84.0
-258.0,32.0,31.0,-79.0,54.0,-10.0,-1028.0,121.0,92.0
-259.0,26.0,36.0,-79.0,49.0,-7.0,-1029.0,117.0,97.0
-265.0,34.0,33.0,-73.0,41.0,-4.0,-1018.0,116.0,100.0
-257.0,34.0,31.0,-67.0,29.0,-2.0,-1007.0,118.0,96.0
-258.0,31.0,39.0,-68.0,21.0,-5.0,-1025.0,116.0,104.0
-259.0,32.0,35.0,-71.0,9.0,-3.0,-1030.0,114.0,109.0
-261.0,31.0,37.0,-71.0,-2.0,-8.0,-1037.0,113.0,111.0
-258.0,31.0,36.0,-67.0,-11.0,-12.0,-1037.0,114.0,114.0
-260.0,31.0,36.0,-64.0,-16.0,-15.0,-1038.0,104.0,115.0
-261.0,30.0,37.0,-61.0,-14.0,-16.0,-1042.0,110.0,116.0
-261.0,31.0,37.0,-58.0,-9.0,-16.0,-1041.0,114.0,111.0
-255.0,30.0,26.0,-56.0,0.0,-15.0,-1040.0,112.0,104.0
-263.0,33.0,36.0,-56.0,7.0,-15.0,-1046.0,123.0,105.0
-264.0,34.0,33.0,-58.0,13.0,-12.0,-1046.0,121.0,105.0
-261.0,31.0,35.0,-62.0,17.0,-11.0,-1041.0,123.0,100.0
-263.0,35.0,32.0,-66.0,18.0,-12.0,-1043.0,124.0,100.0
-261.0,34.0,34.0,-68.0,19.0,-15.0,-1039.0,126.0,102.0
-260.0,34.0,36.0,-68.0,19.0,-19.0,-1041.0,126.0,101.0
-259.0,34.0,32.0,-66.0,20.0,-22.0,-1036.0,127.0,98.0
-260.0,33.0,34.0,-64.0,21.0,-28.0,-1034.0,127.0,99.0
-259.0,33.0,33.0,-64.0,24.0,-33.0,-1029.0,128.0,98.0
-257.0,35.0,34.0,-66.0,23.0,-36.0,-1033.0,125.0,102.0
-257.0,35.0,31.0,-69.0,27.0,-37.0,-1023.0,124.0,102.0
-256.0,30.0,32.0,-78.0,28.0,-38.0,-1015.0,119.0,103.0
-256.0,33.0,37.0,-87.0,31.0,-39.0,-1007.0,116.0,108.0
-256.0,34.0,36.0,-95.0,34.0,-41.0,-1005.0,116.0,106.0
-253.0,33.0,37.0,-100.0,39.0,-40.0,-995.0,119.0,107.0
-254.0,32.0,36.0,-105.0,46.0,-37.0,-997.0,116.0,111.0
-251.0,29.0,37.0,-107.0,54.0,-33.0,-989.0,107.0,111.0
-252.0,28.0,33.0,-107.0,64.0,-28.0,-982.0,107.0,111.0
-250.0,30.0,34.0,-107.0,70.0,-24.0,-983.0,105.0,106.0
-246.0,29.0,34.0,-107.0,74.0,-22.0,-975.0,99.0,109.0
-248.0,28.0,37.0,-103.0,78.0,-19.0,-972.0,99.0,106.0
-245.0,27.0,34.0,-103.0,82.0,-16.0,-975.0,101.0,104.0
-250.0,29.0,32.0,-101.0,83.0,-13.0,-974.0,104.0,99.0
-249.0,26.0,35.0,-98.0,81.0,-8.0,-969.0,106.0,102.0
-249.0,29.0,30.0,-93.0,79.0,-4.0,-971.0,105.0,98.0
-250.0,28.0,33.0,-91.0,77.0,-1.0,-972.0,111.0,98.0
-250.0,31.0,32.0,-90.0,72.0,2.0,-973.0,102.0,95.0
-252.0,29.0,33.0,-89.0,65.0,3.0,-975.0,113.0,95.0
-249.0,30.0,34.0,-90.0,59.0,3.0,-976.0,109.0,99.0
-249.0,31.0,34.0,-90.0,57.0,2.0,-974.0,110.0,98.0
-253.0,31.0,35.0,-90.0,50.0,2.0,-978.0,116.0,105.0
-249.0,30.0,37.0,-92.0,48.0,3.0,-976.0,110.0,103.0
-248.0,38.0,29.0,-95.0,46.0,4.0,-977.0,109.0,106.0
-250.0,28.0,36.0,-98.0,47.0,6.0,-985.0,113.0,108.0
-253.0,32.0,36.0,-99.0,49.0,6.0,-988.0,118.0,111.0
-252.0,29.0,33.0,-99.0,50.0,9.0,-987.0,110.0,114.0
-254.0,30.0,35.0,-96.0,55.0,11.0,-990.0,121.0,110.0
-254.0,30.0,38.0,-93.0,58.0,13.0,-996.0,125.0,109.0
-253.0,31.0,33.0,-88.0,62.0,17.0,-999.0,113.0,109.0
-254.0,28.0,31.0,-86.0,66.0,17.0,-1003.0,114.0,106.0
-256.0,31.0,34.0,-82.0,71.0,19.0,-1003.0,112.0,105.0
-255.0,33.0,37.0,-82.0,77.0,17.0,-1004.0,116.0,106.0
-255.0,34.0,34.0,-83.0,83.0,16.0,-1015.0,120.0,105.0
-256.0,34.0,34.0,-84.0,87.0,15.0,-1005.0,120.0,107.0
-255.0,34.0,31.0,-85.0,92.0,16.0,-1005.0,118.0,105.0
-256.0,34.0,35.0,-89.0,97.0,16.0,-1013.0,120.0,105.0
-255.0,33.0,33.0,-91.0,102.0,15.0,-1006.0,114.0,102.0
-256.0,32.0,34.0,-95.0,107.0,14.0,-1010.0,120.0,106.0
-257.0,36.0,34.0,-97.0,108.0,14.0,-1009.0,122.0,107.0
-257.0,32.0,34.0,-101.0,110.0,15.0,-1007.0,119.0,104.0
-255.0,32.0,35.0,-105.0,111.0,16.0,-1014.0,116.0,100.0
-256.0,34.0,33.0,-108.0,113.0,15.0,-1008.0,130.0,101.0
-256.0,33.0,32.0,-110.0,113.0,14.0,-1022.0,124.0,99.0
-256.0,33.0,32.0,-111.0,114.0,13.0,-1011.0,117.0,101.0
-256.0,32.0,37.0,-113.0,113.0,12.0,-1014.0,123.0,95.0
-257.0,33.0,32.0,-112.0,115.0,12.0,-1019.0,123.0,95.0
-255.0,32.0,32.0,-111.0,115.0,9.0,-1011.0,119.0,96.0
-258.0,33.0,33.0,-110.0,116.0,6.0,-1010.0,121.0,94.0
-256.0,32.0,29.0,-111.0,115.0,5.0,-1011.0,127.0,93.0
-257.0,33.0,31.0,-110.0,115.0,4.0,-1003.0,122.0,93.0
-255.0,32.0,36.0,-109.0,116.0,3.0,-1006.0,121.0,94.0
-256.0,35.0,33.0,-108.0,117.0,0.0,-1006.0,125.0,94.0
-255.0,35.0,32.0,-108.0,120.0,-3.0,-1008.0,124.0,90.0
-256.0,34.0,28.0,-108.0,119.0,-3.0,-1002.0,123.0,90.0
-256.0,30.0,30.0,-108.0,121.0,-5.0,-1010.0,124.0,91.0
-257.0,34.0,33.0,-105.0,123.0,-7.0,-1007.0,125.0,88.0
-256.0,33.0,29.0,-103.0,123.0,-5.0,-1009.0,119.0,89.0
-255.0,33.0,24.0,-101.0,124.0,-7.0,-1009.0,121.0,87.0
-254.0,33.0,31.0,-100.0,126.0,-7.0,-1003.0,120.0,86.0
-256.0,32.0,29.0,-98.0,126.0,-7.0,-1002.0,123.0,83.0
-259.0,34.0,28.0,-95.0,126.0,-6.0,-1005.0,124.0,87.0
-256.0,35.0,25.0,-94.0,127.0,-6.0,-1000.0,124.0,83.0
-252.0,30.0,28.0,-93.0,124.0,-7.0,-1011.0,121.0,87.0
-255.0,34.0,30.0,-90.0,120.0,-7.0,-1001.0,120.0,82.0
-255.0,32.0,29.0,-87.0,115.0,-7.0,-1005.0,119.0,87.0
-254.0,34.0,29.0,-81.0,108.0,-7.0,-1004.0,124.0,84.0
-254.0,31.0,27.0,-78.0,100.0,-9.0,-1000.0,123.0,84.0
-255.0,32.0,30.0,-79.0,96.0,-8.0,-1007.0,122.0,83.0
-254.0,33.0,30.0,-83.0,93.0,-11.0,-1006.0,122.0,82.0
-256.0,33.0,26.0,-84.0,88.0,-14.0,-1004.0,122.0,80.0
-258.0,32.0,28.0,-84.0,85.0,-16.0,-1006.0,123.0,84.0
-256.0,32.0,26.0,-84.0,81.0,-16.0,-1004.0,116.0,75.0
-256.0,34.0,31.0,-83.0,77.0,-18.0,-1016.0,115.0,83.0
-257.0,35.0,26.0,-79.0,74.0,-17.0,-1002.0,114.0,80.0
-257.0,34.0,28.0,-76.0,71.0,-17.0,-1005.0,121.0,76.0
-256.0,29.0,24.0,-74.0,67.0,-16.0,-1003.0,119.0,79.0
-256.0,32.0,23.0,-71.0,63.0,-16.0,-1008.0,120.0,77.0
-255.0,37.0,27.0,-66.0,57.0,-14.0,-1004.0,118.0,80.0
-255.0,32.0,30.0,-62.0,52.0,-15.0,-1002.0,120.0,79.0
-256.0,29.0,30.0,-58.0,49.0,-13.0,-1005.0,117.0,82.0
-257.0,32.0,30.0,-57.0,45.0,-14.0,-1006.0,114.0,85.0
-255.0,31.0,30.0,-54.0,42.0,-14.0,-1007.0,117.0,85.0
-256.0,31.0,31.0,-53.0,41.0,-13.0,-1005.0,113.0,94.0
-255.0,31.0,33.0,-53.0,42.0,-10.0,-1015.0,115.0,98.0
-256.0,28.0,32.0,-54.0,43.0,-9.0,-1006.0,107.0,99.0
-256.0,32.0,32.0,-57.0,46.0,-7.0,-1002.0,107.0,103.0
-255.0,31.0,37.0,-62.0,49.0,-6.0,-1000.0,109.0,107.0
-254.0,32.0,37.0,-70.0,53.0,-5.0,-1002.0,102.0,107.0
-256.0,30.0,33.0,-77.0,55.0,-4.0,-1000.0,105.0,109.0
-253.0,29.0,35.0,-86.0,59.0,-3.0,-1002.0,110.0,107.0
-256.0,29.0,36.0,-93.0,62.0,-3.0,-1004.0,111.0,105.0
-255.0,30.0,35.0,-102.0,68.0,-3.0,-1004.0,108.0,106.0
-255.0,29.0,30.0,-111.0,70.0,-1.0,-1001.0,108.0,104.0
-252.0,31.0,34.0,-121.0,71.0,0.0,-1001.0,111.0,108.0
-254.0,32.0,31.0,-125.0,76.0,-1.0,-1003.0,103.0,104.0
-254.0,28.0,36.0,-128.0,81.0,-3.0,-1001.0,111.0,106.0
-255.0,28.0,33.0,-125.0,85.0,-3.0,-1005.0,102.0,101.0
-251.0,26.0,27.0,-117.0,87.0,-3.0,-996.0,111.0,96.0
-255.0,29.0,33.0,-110.0,90.0,-1.0,-1001.0,103.0,95.0
-255.0,28.0,30.0,-100.0,89.0,0.0,-1001.0,111.0,92.0
-254.0,32.0,31.0,-93.0,88.0,1.0,-997.0,115.0,86.0
-255.0,30.0,30.0,-96.0,91.0,-1.0,-999.0,114.0,89.0
-256.0,29.0,31.0,-101.0,94.0,0.0,-1000.0,111.0,94.0
-256.0,29.0,32.0,-106.0,92.0,1.0,-1006.0,107.0,95.0
-256.0,34.0,35.0,-104.0,88.0,1.0,-999.0,113.0,91.0
-257.0,31.0,34.0,-101.0,83.0,-1.0,-1003.0,106.0,92.0
-257.0,27.0,27.0,-96.0,81.0,0.0,-1004.0,112.0,96.0
-255.0,29.0,28.0,-88.0,78.0,0.0,-1002.0,109.0,92.0
-257.0,32.0,29.0,-87.0,77.0,-1.0,-1000.0,113.0,87.0
-254.0,32.0,33.0,-86.0,76.0,-2.0,-998.0,115.0,95.0
-256.0,29.0,31.0,-82.0,74.0,-1.0,-1002.0,118.0,94.0
-257.0,32.0,32.0,-81.0,72.0,-3.0,-1000.0,115.0,94.0
-258.0,31.0,33.0,-79.0,71.0,-4.0,-1008.0,114.0,89.0
-257.0,31.0,35.0,-81.0,71.0,-6.0,-1000.0,113.0,93.0
-256.0,30.0,33.0,-77.0,70.0,-5.0,-1008.0,112.0,95.0
-254.0,28.0,31.0,-73.0,68.0,-4.0,-1006.0,115.0,92.0
-253.0,31.0,32.0,-68.0,69.0,-4.0,-1003.0,107.0,96.0
-254.0,29.0,34.0,-62.0,70.0,-5.0,-1004.0,109.0,95.0
-256.0,30.0,27.0,-57.0,71.0,-5.0,-1008.0,106.0,96.0
-255.0,30.0,30.0,-53.0,70.0,-6.0,-1010.0,116.0,95.0
-256.0,30.0,31.0,-56.0,72.0,-4.0,-1001.0,116.0,98.0
-258.0,33.0,28.0,-60.0,73.0,-5.0,-1010.0,113.0,95.0
-255.0,31.0,35.0,-60.0,71.0,-5.0,-1006.0,106.0,97.0
-255.0,31.0,31.0,-56.0,75.0,-5.0,-1008.0,103.0,101.0
-256.0,28.0,33.0,-53.0,77.0,-6.0,-1001.0,99.0,94.0
-254.0,26.0,31.0,-51.0,80.0,-3.0,-1005.0,110.0,98.0
-254.0,29.0,30.0,-48.0,80.0,-3.0,-1004.0,108.0,95.0
-255.0,32.0,32.0,-50.0,80.0,-3.0,-1000.0,105.0,101.0
-256.0,30.0,35.0,-50.0,78.0,-5.0,-1000.0,107.0,98.0
-254.0,31.0,29.0,-47.0,78.0,-5.0,-1004.0,110.0,98.0
-255.0,28.0,32.0,-44.0,80.0,-4.0,-1005.0,112.0,96.0
-256.0,32.0,27.0,-39.0,83.0,-3.0,-1016.0,113.0,90.0
-256.0,31.0,29.0,-33.0,87.0,-1.0,-1006.0,119.0,93.0
-255.0,34.0,27.0,-27.0,92.0,-1.0,-1006.0,115.0,89.0
-254.0,29.0,30.0,-22.0,96.0,1.0,-1001.0,117.0,88.0
-257.0,29.0,32.0,-15.0,99.0,2.0,-1007.0,114.0,79.0
-255.0,30.0,30.0,-10.0,100.0,3.0,-1004.0,114.0,83.0
-256.0,32.0,31.0,-5.0,101.0,4.0,-1007.0,116.0,81.0
-259.0,31.0,28.0,-2.0,102.0,4.0,-1004.0,113.0,87.0
-255.0,29.0,29.0,0.0,98.0,2.0,-1004.0,111.0,80.0
-257.0,29.0,27.0,3.0,96.0,2.0,-1000.0,111.0,80.0
-256.0,30.0,27.0,2.0,93.0,4.0,-1002.0,110.0,79.0
-255.0,33.0,30.0,-2.0,90.0,4.0,-1005.0,114.0,77.0
-254.0,29.0,28.0,-6.0,89.0,4.0,-1004.0,116.0,77.0
-254.0,30.0,29.0,-10.0,87.0,4.0,-1011.0,110.0,78.0
-255.0,30.0,30.0,-13.0,88.0,6.0,-1004.0,115.0,85.0
-255.0,31.0,28.0,-16.0,87.0,5.0,-999.0,115.0,82.0
-255.0,31.0,28.0,-18.0,86.0,4.0,-1008.0,115.0,89.0
-256.0,30.0,30.0,-21.0,85.0,4.0,-1002.0,115.0,90.0
-255.0,31.0,33.0,-20.0,84.0,3.0,-1008.0,109.0,90.0
-255.0,28.0,29.0,-20.0,83.0,2.0,-1005.0,112.0,85.0
-252.0,30.0,31.0,-21.0,80.0,0.0,-1003.0,116.0,89.0
-255.0,31.0,29.0,-20.0,79.0,0.0,-1006.0,112.0,92.0
-255.0,29.0,34.0,-20.0,77.0,-1.0,-1004.0,113.0,97.0
-256.0,31.0,29.0,-17.0,76.0,-2.0,-1001.0,111.0,92.0
-256.0,30.0,28.0,-15.0,75.0,-3.0,-997.0,105.0,93.0
-255.0,30.0,31.0,-14.0,75.0,-2.0,-1000.0,102.0,97.0
-254.0,33.0,30.0,-14.0,75.0,-3.0,-1004.0,112.0,93.0
-256.0,28.0,28.0,-15.0,73.0,0.0,-1005.0,112.0,96.0
-254.0,30.0,30.0,-17.0,74.0,0.0,-1002.0,108.0,90.0
-256.0,29.0,31.0,-17.0,73.0,1.0,-1005.0,113.0,90.0
-252.0,24.0,31.0,-17.0,71.0,1.0,-1004.0,110.0,92.0
-255.0,31.0,29.0,-15.0,70.0,1.0,-1011.0,112.0,86.0
-256.0,31.0,31.0,-11.0,71.0,0.0,-1005.0,110.0,91.0
-255.0,27.0,30.0,-7.0,69.0,0.0,-1016.0,103.0,91.0
-256.0,28.0,27.0,-2.0,69.0,0.0,-1004.0,112.0,92.0
-254.0,27.0,30.0,2.0,69.0,1.0,-1011.0,111.0,89.0
-256.0,29.0,31.0,7.0,68.0,2.0,-1013.0,110.0,86.0
-257.0,30.0,32.0,11.0,67.0,3.0,-1008.0,99.0,88.0
-256.0,30.0,30.0,14.0,66.0,4.0,-1006.0,104.0,92.0
-256.0,28.0,28.0,17.0,65.0,4.0,-1002.0,112.0,87.0
-256.0,31.0,31.0,20.0,63.0,4.0,-999.0,107.0,85.0
-253.0,33.0,25.0,21.0,61.0,4.0,-1007.0,106.0,93.0
-255.0,31.0,30.0,23.0,58.0,5.0,-1006.0,109.0,87.0
-256.0,30.0,30.0,25.0,56.0,7.0,-1000.0,110.0,91.0
-255.0,29.0,32.0,25.0,53.0,7.0,-1006.0,108.0,88.0
-254.0,32.0,30.0,23.0,51.0,7.0,-999.0,111.0,88.0
-255.0,29.0,30.0,24.0,49.0,6.0,-1001.0,116.0,93.0
-255.0,31.0,27.0,24.0,48.0,5.0,-1004.0,108.0,90.0
-255.0,30.0,30.0,22.0,44.0,5.0,-1000.0,109.0,91.0
-257.0,30.0,30.0,22.0,42.0,3.0,-1003.0,112.0,91.0
-255.0,30.0,27.0,23.0,42.0,2.0,-1003.0,111.0,91.0
-254.0,32.0,32.0,25.0,39.0,1.0,-1006.0,113.0,88.0
-254.0,33.0,30.0,26.0,34.0,2.0,-1003.0,114.0,89.0
-255.0,30.0,29.0,25.0,31.0,2.0,-1003.0,112.0,86.0
-255.0,32.0,27.0,25.0,28.0,2.0,-1003.0,122.0,87.0
-257.0,35.0,28.0,28.0,25.0,1.0,-1002.0,121.0,86.0
-256.0,34.0,30.0,31.0,23.0,1.0,-1002.0,126.0,85.0
-256.0,36.0,30.0,36.0,23.0,0.0,-1001.0,127.0,88.0
-256.0,33.0,29.0,41.0,23.0,-1.0,-1001.0,129.0,85.0
-256.0,34.0,32.0,48.0,26.0,0.0,-1007.0,127.0,89.0
-257.0,36.0,29.0,53.0,26.0,-2.0,-1005.0,124.0,87.0
-256.0,34.0,29.0,58.0,26.0,-3.0,-1006.0,120.0,88.0
-254.0,29.0,28.0,61.0,27.0,-3.0,-1011.0,120.0,85.0
-256.0,32.0,29.0,64.0,26.0,-4.0,-1005.0,118.0,87.0
-256.0,30.0,34.0,66.0,25.0,-2.0,-1001.0,111.0,84.0
-256.0,29.0,28.0,65.0,25.0,-2.0,-1009.0,109.0,89.0
-256.0,33.0,31.0,63.0,24.0,-3.0,-1005.0,111.0,89.0
-255.0,31.0,33.0,61.0,23.0,-4.0,-1009.0,106.0,94.0
-256.0,31.0,29.0,60.0,23.0,-4.0,-1003.0,111.0,95.0
-256.0,29.0,28.0,57.0,22.0,-8.0,-1006.0,110.0,96.0
-255.0,33.0,32.0,56.0,23.0,-9.0,-1013.0,106.0,96.0
-256.0,31.0,31.0,55.0,24.0,-8.0,-1001.0,112.0,97.0
-257.0,32.0,32.0,54.0,27.0,-5.0,-1000.0,108.0,96.0
-253.0,28.0,33.0,52.0,29.0,-2.0,-1003.0,109.0,96.0
-255.0,30.0,33.0,50.0,29.0,1.0,-1000.0,114.0,100.0
-257.0,34.0,35.0,50.0,30.0,1.0,-1002.0,110.0,100.0
-256.0,31.0,32.0,50.0,30.0,1.0,-1005.0,112.0,96.0
-253.0,29.0,34.0,53.0,31.0,0.0,-1005.0,104.0,99.0
-254.0,29.0,33.0,57.0,30.0,1.0,-1004.0,109.0,99.0
-254.0,33.0,33.0,57.0,30.0,2.0,-1001.0,109.0,97.0
-254.0,31.0,33.0,58.0,32.0,3.0,-999.0,114.0,98.0
-255.0,31.0,32.0,58.0,33.0,3.0,-1001.0,111.0,98.0
-254.0,32.0,31.0,54.0,34.0,4.0,-1006.0,116.0,100.0
-256.0,30.0,30.0,51.0,36.0,3.0,-1013.0,113.0,101.0
-256.0,29.0,31.0,49.0,37.0,2.0,-1003.0,113.0,103.0
-256.0,33.0,37.0,47.0,37.0,3.0,-1002.0,113.0,101.0
-255.0,30.0,31.0,46.0,37.0,2.0,-1001.0,114.0,102.0
-256.0,33.0,33.0,47.0,39.0,2.0,-1001.0,114.0,98.0
-254.0,30.0,33.0,50.0,40.0,1.0,-1002.0,120.0,100.0
-256.0,30.0,34.0,54.0,40.0,3.0,-1005.0,112.0,101.0
-257.0,31.0,30.0,58.0,41.0,4.0,-1006.0,116.0,98.0
-255.0,29.0,32.0,63.0,42.0,6.0,-1001.0,119.0,98.0
-256.0,33.0,32.0,67.0,42.0,5.0,-1002.0,117.0,94.0
-255.0,31.0,35.0,67.0,44.0,4.0,-1008.0,118.0,95.0
-252.0,31.0,30.0,70.0,43.0,5.0,-1004.0,115.0,97.0
-255.0,30.0,32.0,72.0,42.0,4.0,-1005.0,113.0,97.0
-255.0,30.0,31.0,75.0,42.0,5.0,-1002.0,115.0,98.0
-255.0,31.0,31.0,77.0,42.0,5.0,-1000.0,115.0,96.0
-253.0,35.0,34.0,76.0,42.0,5.0,-1002.0,107.0,100.0
-256.0,31.0,35.0,77.0,38.0,4.0,-1003.0,116.0,97.0
-256.0,30.0,35.0,78.0,38.0,4.0,-1001.0,112.0,99.0
-253.0,30.0,35.0,74.0,37.0,4.0,-998.0,115.0,104.0
-256.0,33.0,32.0,72.0,37.0,3.0,-996.0,115.0,103.0
-254.0,31.0,35.0,70.0,38.0,3.0,-996.0,115.0,104.0
-255.0,33.0,34.0,67.0,38.0,5.0,-990.0,115.0,106.0
-256.0,31.0,36.0,63.0,37.0,4.0,-993.0,110.0,106.0
-256.0,33.0,33.0,57.0,36.0,7.0,-996.0,116.0,105.0
-254.0,33.0,33.0,54.0,36.0,8.0,-995.0,116.0,103.0
-255.0,32.0,34.0,49.0,35.0,8.0,-997.0,119.0,103.0
-255.0,36.0,37.0,45.0,34.0,7.0,-996.0,119.0,107.0
-255.0,32.0,35.0,43.0,30.0,4.0,-996.0,116.0,109.0
-254.0,32.0,31.0,41.0,26.0,1.0,-998.0,119.0,106.0
-252.0,30.0,35.0,36.0,22.0,1.0,-995.0,116.0,102.0
-252.0,32.0,35.0,33.0,21.0,1.0,-1000.0,120.0,107.0
-255.0,30.0,32.0,30.0,20.0,2.0,-1000.0,116.0,104.0
-254.0,31.0,34.0,28.0,22.0,0.0,-1001.0,116.0,107.0
-255.0,34.0,34.0,27.0,23.0,1.0,-999.0,114.0,105.0
-254.0,30.0,37.0,26.0,26.0,1.0,-1003.0,114.0,112.0
-256.0,33.0,35.0,25.0,30.0,0.0,-1002.0,115.0,110.0
-255.0,34.0,35.0,25.0,34.0,2.0,-1001.0,114.0,108.0
-256.0,31.0,33.0,25.0,37.0,3.0,-1005.0,114.0,108.0
-255.0,32.0,31.0,25.0,39.0,5.0,-1003.0,122.0,107.0
-256.0,30.0,33.0,21.0,39.0,5.0,-1002.0,117.0,100.0
-256.0,33.0,33.0,19.0,40.0,5.0,-1005.0,117.0,104.0
-256.0,31.0,35.0,19.0,40.0,6.0,-1005.0,117.0,103.0
-254.0,33.0,37.0,21.0,41.0,6.0,-1002.0,116.0,106.0
-255.0,34.0,35.0,23.0,40.0,6.0,-1013.0,121.0,110.0
-254.0,34.0,28.0,24.0,42.0,5.0,-1001.0,120.0,105.0
-255.0,32.0,37.0,25.0,42.0,7.0,-1004.0,121.0,104.0
-256.0,32.0,36.0,27.0,43.0,6.0,-1001.0,119.0,104.0
-255.0,32.0,32.0,27.0,43.0,5.0,-998.0,118.0,105.0
-255.0,36.0,32.0,28.0,43.0,4.0,-1002.0,122.0,107.0
-256.0,33.0,34.0,28.0,42.0,4.0,-1001.0,125.0,107.0
-255.0,33.0,28.0,29.0,41.0,2.0,-1002.0,118.0,102.0
-255.0,32.0,35.0,28.0,42.0,4.0,-1000.0,118.0,102.0
-254.0,30.0,37.0,27.0,42.0,3.0,-1001.0,118.0,106.0
-255.0,34.0,33.0,25.0,41.0,3.0,-1002.0,118.0,108.0
-252.0,32.0,29.0,27.0,42.0,5.0,-997.0,120.0,107.0
-252.0,32.0,36.0,27.0,42.0,3.0,-1001.0,115.0,107.0
-255.0,37.0,36.0,27.0,42.0,1.0,-1002.0,124.0,105.0
-255.0,33.0,35.0,27.0,41.0,3.0,-998.0,119.0,107.0
-254.0,32.0,35.0,26.0,42.0,2.0,-997.0,126.0,109.0
-253.0,32.0,37.0,23.0,41.0,2.0,-997.0,121.0,107.0
-253.0,29.0,37.0,20.0,45.0,2.0,-1001.0,121.0,109.0
-253.0,33.0,31.0,17.0,45.0,0.0,-1000.0,126.0,110.0
-255.0,35.0,36.0,15.0,45.0,-1.0,-999.0,124.0,106.0
-256.0,34.0,38.0,13.0,47.0,-2.0,-999.0,119.0,106.0
-254.0,33.0,36.0,13.0,46.0,-2.0,-1002.0,123.0,113.0
-254.0,35.0,36.0,13.0,47.0,-3.0,-998.0,122.0,110.0
-253.0,31.0,35.0,13.0,47.0,-4.0,-1000.0,116.0,109.0
-254.0,29.0,35.0,16.0,49.0,-5.0,-1000.0,122.0,107.0
-255.0,35.0,36.0,16.0,53.0,-5.0,-999.0,125.0,101.0
-255.0,32.0,32.0,15.0,56.0,-6.0,-999.0,126.0,104.0
-253.0,34.0,36.0,7.0,58.0,-5.0,-1001.0,119.0,106.0
-252.0,34.0,37.0,-4.0,60.0,-6.0,-1002.0,120.0,107.0
-256.0,34.0,37.0,-12.0,59.0,-7.0,-1002.0,122.0,109.0
-255.0,32.0,36.0,-17.0,56.0,-5.0,-1001.0,114.0,114.0
-255.0,30.0,37.0,-18.0,54.0,-7.0,-1003.0,116.0,111.0
-255.0,35.0,34.0,-17.0,53.0,-6.0,-1005.0,115.0,112.0
-255.0,31.0,38.0,-13.0,54.0,-5.0,-1003.0,116.0,113.0
-254.0,30.0,32.0,-6.0,52.0,-4.0,-1006.0,113.0,110.0
-255.0,32.0,33.0,2.0,54.0,-1.0,-1005.0,121.0,108.0
-256.0,36.0,37.0,8.0,55.0,1.0,-998.0,121.0,107.0
-254.0,34.0,37.0,13.0,54.0,2.0,-997.0,116.0,105.0
-255.0,34.0,33.0,15.0,53.0,1.0,-998.0,123.0,105.0
-255.0,35.0,34.0,15.0,52.0,1.0,-1000.0,120.0,105.0
-255.0,33.0,34.0,12.0,51.0,1.0,-1001.0,117.0,103.0
-256.0,32.0,38.0,11.0,51.0,0.0,-999.0,120.0,111.0
-255.0,34.0,37.0,9.0,49.0,-2.0,-1002.0,121.0,102.0
-258.0,33.0,34.0,4.0,49.0,-4.0,-999.0,118.0,106.0
-254.0,35.0,36.0,1.0,48.0,-6.0,-1003.0,118.0,107.0
-256.0,30.0,36.0,-5.0,47.0,-4.0,-1003.0,116.0,107.0
-256.0,31.0,33.0,-8.0,44.0,-2.0,-1002.0,115.0,112.0
-252.0,30.0,35.0,-11.0,38.0,2.0,-1000.0,115.0,108.0
-253.0,28.0,35.0,-11.0,33.0,6.0,-1000.0,110.0,112.0
-254.0,32.0,37.0,-12.0,32.0,7.0,-996.0,114.0,111.0
-252.0,31.0,35.0,-11.0,29.0,7.0,-997.0,116.0,114.0
-255.0,34.0,34.0,-8.0,26.0,10.0,-996.0,122.0,114.0
-254.0,36.0,34.0,-6.0,25.0,10.0,-996.0,122.0,114.0
-254.0,33.0,35.0,-3.0,25.0,10.0,-997.0,114.0,116.0
-255.0,38.0,36.0,-2.0,27.0,9.0,-996.0,118.0,117.0
-254.0,37.0,40.0,-2.0,28.0,8.0,-1004.0,126.0,117.0
-252.0,31.0,36.0,-2.0,30.0,6.0,-996.0,126.0,117.0
-254.0,36.0,42.0,-4.0,33.0,4.0,-996.0,123.0,117.0
-256.0,34.0,37.0,-4.0,37.0,4.0,-999.0,126.0,121.0
-255.0,32.0,39.0,-5.0,41.0,3.0,-1000.0,118.0,121.0
-252.0,32.0,39.0,-6.0,44.0,2.0,-999.0,121.0,114.0
-253.0,35.0,37.0,-6.0,48.0,3.0,-1002.0,124.0,120.0
-255.0,33.0,35.0,-5.0,49.0,3.0,-996.0,122.0,120.0
-254.0,36.0,38.0,-6.0,52.0,2.0,-998.0,123.0,121.0
-254.0,31.0,38.0,-7.0,54.0,3.0,-995.0,122.0,117.0
-253.0,33.0,39.0,-9.0,55.0,3.0,-1000.0,120.0,117.0
-252.0,36.0,42.0,-9.0,54.0,4.0,-998.0,124.0,114.0
-256.0,36.0,33.0,-11.0,52.0,3.0,-997.0,120.0,113.0
-254.0,34.0,37.0,-11.0,53.0,3.0,-999.0,123.0,114.0
-257.0,33.0,36.0,-10.0,52.0,2.0,-1004.0,123.0,115.0
-252.0,32.0,36.0,-8.0,52.0,2.0,-1004.0,120.0,111.0
-255.0,36.0,34.0,-8.0,53.0,3.0,-1000.0,123.0,115.0
-254.0,32.0,36.0,-6.0,54.0,1.0,-1002.0,122.0,112.0
-254.0,32.0,38.0,-5.0,54.0,3.0,-996.0,127.0,109.0
-253.0,33.0,38.0,-3.0,55.0,4.0,-1003.0,125.0,117.0
-253.0,34.0,38.0,-2.0,56.0,3.0,-1000.0,121.0,110.0
-254.0,32.0,36.0,-3.0,55.0,3.0,-1000.0,121.0,113.0
-253.0,33.0,34.0,-2.0,54.0,2.0,-998.0,120.0,109.0
-254.0,34.0,36.0,-3.0,55.0,0.0,-1007.0,120.0,110.0
-253.0,34.0,34.0,-3.0,54.0,-3.0,-1003.0,125.0,116.0
-256.0,33.0,36.0,-2.0,54.0,-1.0,-998.0,129.0,117.0
-254.0,34.0,35.0,-3.0,54.0,-1.0,-999.0,126.0,113.0
-256.0,35.0,39.0,0.0,53.0,-2.0,-999.0,127.0,111.0
-255.0,35.0,40.0,-1.0,54.0,-4.0,-1005.0,119.0,116.0
-255.0,34.0,36.0,-1.0,55.0,-5.0,-1004.0,119.0,110.0
-257.0,34.0,37.0,0.0,56.0,-3.0,-996.0,117.0,109.0
-253.0,33.0,34.0,0.0,57.0,-2.0,-1000.0,126.0,111.0
-258.0,30.0,37.0,0.0,58.0,-3.0,-1001.0,123.0,118.0
-256.0,34.0,35.0,2.0,58.0,-4.0,-999.0,123.0,117.0
-254.0,33.0,38.0,2.0,58.0,-3.0,-1000.0,124.0,114.0
-253.0,33.0,36.0,1.0,58.0,-4.0,-1000.0,123.0,113.0
-253.0,34.0,36.0,1.0,58.0,-1.0,-997.0,125.0,117.0
-255.0,36.0,36.0,3.0,59.0,-2.0,-998.0,121.0,117.0
-254.0,33.0,36.0,3.0,58.0,-2.0,-999.0,127.0,115.0
-255.0,33.0,35.0,3.0,59.0,-3.0,-1003.0,123.0,114.0
-254.0,34.0,39.0,2.0,60.0,-3.0,-1000.0,128.0,112.0
-255.0,35.0,37.0,3.0,62.0,-2.0,-1000.0,124.0,117.0
-255.0,35.0,40.0,2.0,64.0,-5.0,-1000.0,122.0,116.0
-253.0,33.0,36.0,5.0,63.0,-6.0,-1002.0,127.0,117.0
-256.0,33.0,34.0,5.0,64.0,-6.0,-998.0,124.0,119.0
-256.0,34.0,36.0,6.0,65.0,-6.0,-1001.0,120.0,112.0
-254.0,32.0,38.0,5.0,66.0,-5.0,-1004.0,124.0,111.0
-255.0,34.0,32.0,7.0,67.0,-4.0,-996.0,121.0,115.0
-255.0,34.0,34.0,7.0,66.0,-4.0,-999.0,123.0,112.0
-255.0,33.0,38.0,8.0,67.0,-4.0,-1002.0,123.0,108.0
-252.0,32.0,36.0,9.0,66.0,-3.0,-997.0,126.0,111.0
-253.0,33.0,35.0,10.0,67.0,-4.0,-1000.0,124.0,110.0
-255.0,34.0,35.0,10.0,66.0,-4.0,-995.0,122.0,118.0
-255.0,33.0,34.0,9.0,65.0,-4.0,-996.0,122.0,110.0
-254.0,34.0,39.0,11.0,65.0,-4.0,-1002.0,126.0,114.0
-255.0,33.0,36.0,9.0,64.0,-5.0,-999.0,120.0,109.0
-255.0,33.0,35.0,8.0,61.0,-4.0,-1006.0,120.0,112.0
-254.0,32.0,37.0,7.0,61.0,-4.0,-1000.0,119.0,110.0
-254.0,34.0,34.0,7.0,61.0,-4.0,-995.0,124.0,114.0
-254.0,33.0,37.0,7.0,60.0,-4.0,-998.0,122.0,117.0
-256.0,32.0,40.0,8.0,60.0,-5.0,-996.0,126.0,116.0
-252.0,32.0,35.0,8.0,59.0,-5.0,-1002.0,119.0,113.0
-253.0,32.0,40.0,9.0,58.0,-3.0,-998.0,123.0,115.0
-254.0,33.0,41.0,9.0,59.0,-3.0,-997.0,123.0,116.0
-252.0,31.0,36.0,9.0,60.0,-2.0,-992.0,123.0,118.0
-254.0,30.0,38.0,13.0,59.0,-3.0,-999.0,116.0,113.0
-255.0,34.0,38.0,15.0,57.0,-3.0,-994.0,128.0,117.0
-255.0,33.0,36.0,16.0,57.0,-3.0,-995.0,125.0,113.0
-255.0,36.0,37.0,14.0,55.0,-1.0,-999.0,125.0,116.0
-256.0,40.0,35.0,10.0,55.0,1.0,-997.0,119.0,116.0
-255.0,36.0,41.0,4.0,55.0,1.0,-999.0,124.0,118.0
-255.0,36.0,35.0,-2.0,54.0,0.0,-997.0,120.0,118.0
-252.0,34.0,35.0,-3.0,53.0,0.0,-1002.0,129.0,115.0
-254.0,35.0,40.0,-3.0,54.0,0.0,-996.0,126.0,117.0
-252.0,31.0,40.0,1.0,55.0,0.0,-994.0,120.0,112.0
-253.0,30.0,39.0,4.0,53.0,-3.0,-1000.0,124.0,119.0
-255.0,36.0,38.0,8.0,54.0,-4.0,-1002.0,124.0,114.0
-254.0,35.0,37.0,13.0,54.0,-5.0,-999.0,126.0,111.0
-253.0,31.0,37.0,16.0,55.0,-7.0,-1001.0,123.0,113.0
-253.0,30.0,36.0,19.0,55.0,-6.0,-999.0,125.0,115.0
-256.0,34.0,41.0,19.0,56.0,-7.0,-1000.0,121.0,115.0
-256.0,35.0,37.0,20.0,58.0,-8.0,-1001.0,116.0,117.0
-256.0,34.0,36.0,19.0,59.0,-6.0,-1000.0,118.0,114.0
-255.0,32.0,41.0,16.0,60.0,-6.0,-1001.0,123.0,116.0
-255.0,33.0,36.0,12.0,61.0,-4.0,-1003.0,119.0,118.0
-257.0,31.0,34.0,6.0,61.0,-4.0,-1000.0,121.0,118.0
-255.0,30.0,39.0,3.0,60.0,-3.0,-1001.0,115.0,121.0
-255.0,34.0,38.0,4.0,60.0,-3.0,-995.0,115.0,120.0
-253.0,32.0,39.0,8.0,60.0,-4.0,-997.0,112.0,117.0
-255.0,32.0,36.0,11.0,61.0,-4.0,-991.0,116.0,118.0
-253.0,33.0,39.0,13.0,62.0,-3.0,-990.0,117.0,118.0
-253.0,33.0,37.0,17.0,63.0,-2.0,-991.0,123.0,113.0
-250.0,32.0,34.0,19.0,64.0,-2.0,-989.0,124.0,110.0
-251.0,31.0,36.0,17.0,65.0,-1.0,-991.0,127.0,113.0
-251.0,34.0,34.0,17.0,63.0,0.0,-989.0,127.0,109.0
-256.0,34.0,37.0,15.0,59.0,2.0,-993.0,124.0,112.0
-254.0,30.0,39.0,9.0,53.0,2.0,-989.0,130.0,106.0
-255.0,32.0,37.0,4.0,47.0,2.0,-1001.0,124.0,111.0
-253.0,34.0,39.0,-1.0,39.0,2.0,-1002.0,122.0,113.0
-254.0,36.0,35.0,-5.0,34.0,3.0,-999.0,128.0,122.0
-256.0,32.0,38.0,-8.0,28.0,4.0,-1003.0,124.0,118.0
-255.0,34.0,39.0,-11.0,25.0,3.0,-999.0,127.0,126.0
-254.0,34.0,40.0,-14.0,24.0,4.0,-998.0,128.0,128.0
-256.0,36.0,41.0,-18.0,23.0,5.0,-1000.0,128.0,124.0
-254.0,34.0,40.0,-20.0,26.0,6.0,-1008.0,126.0,130.0
-255.0,31.0,40.0,-21.0,31.0,4.0,-1000.0,120.0,127.0
-254.0,38.0,40.0,-21.0,36.0,1.0,-1001.0,129.0,119.0
-255.0,34.0,42.0,-22.0,43.0,0.0,-1001.0,127.0,124.0
-254.0,35.0,39.0,-19.0,49.0,-1.0,-1004.0,125.0,121.0
-255.0,35.0,38.0,-19.0,55.0,-1.0,-1002.0,120.0,122.0
-256.0,35.0,39.0,-17.0,59.0,-1.0,-1005.0,127.0,123.0
-254.0,32.0,40.0,-15.0,61.0,0.0,-1003.0,125.0,121.0
-257.0,36.0,39.0,-12.0,63.0,-2.0,-1002.0,129.0,121.0
-255.0,33.0,37.0,-11.0,65.0,-2.0,-1002.0,123.0,116.0
-254.0,34.0,40.0,-8.0,64.0,-2.0,-1001.0,125.0,118.0
-254.0,36.0,33.0,-7.0,63.0,-2.0,-997.0,126.0,117.0
-256.0,34.0,39.0,-6.0,61.0,-2.0,-999.0,128.0,120.0
-254.0,38.0,36.0,-5.0,59.0,-2.0,-1003.0,128.0,114.0
-255.0,29.0,31.0,-4.0,57.0,-2.0,-997.0,123.0,120.0
-253.0,31.0,33.0,-2.0,57.0,-2.0,-998.0,125.0,116.0
-254.0,33.0,37.0,-2.0,54.0,-3.0,-999.0,124.0,118.0
-256.0,35.0,40.0,-1.0,53.0,-6.0,-991.0,127.0,117.0
-254.0,33.0,37.0,0.0,53.0,-5.0,-993.0,122.0,118.0
-253.0,32.0,37.0,1.0,52.0,-4.0,-993.0,122.0,119.0
-253.0,35.0,39.0,2.0,53.0,-3.0,-997.0,122.0,119.0
-254.0,33.0,39.0,4.0,53.0,-5.0,-999.0,124.0,124.0
-255.0,33.0,36.0,5.0,52.0,-5.0,-1001.0,123.0,122.0
-254.0,33.0,38.0,5.0,53.0,-4.0,-989.0,123.0,124.0
-254.0,41.0,41.0,5.0,52.0,-5.0,-998.0,125.0,122.0
-255.0,33.0,37.0,5.0,52.0,-7.0,-997.0,123.0,123.0
-252.0,36.0,38.0,5.0,55.0,-6.0,-996.0,124.0,122.0
-255.0,34.0,35.0,6.0,57.0,-7.0,-999.0,124.0,124.0
-255.0,38.0,40.0,5.0,58.0,-7.0,-1002.0,124.0,125.0
-252.0,33.0,40.0,3.0,61.0,-8.0,-1000.0,123.0,122.0
-256.0,34.0,39.0,1.0,62.0,-8.0,-992.0,126.0,125.0
-253.0,32.0,40.0,0.0,66.0,-7.0,-998.0,126.0,124.0
-253.0,34.0,40.0,1.0,67.0,-7.0,-997.0,121.0,123.0
-253.0,35.0,41.0,2.0,69.0,-6.0,-1002.0,125.0,122.0
-256.0,38.0,39.0,3.0,71.0,-6.0,-1001.0,126.0,120.0
-253.0,37.0,36.0,1.0,73.0,-5.0,-997.0,125.0,118.0
-254.0,34.0,40.0,-3.0,72.0,-3.0,-993.0,121.0,121.0
-254.0,34.0,39.0,-7.0,72.0,-4.0,-998.0,122.0,121.0
-255.0,36.0,39.0,-10.0,72.0,-4.0,-1002.0,121.0,127.0
-253.0,34.0,37.0,-12.0,71.0,-4.0,-997.0,124.0,119.0
-255.0,32.0,38.0,-11.0,73.0,-5.0,-1002.0,122.0,120.0
-254.0,33.0,40.0,-9.0,75.0,-3.0,-1000.0,123.0,121.0
-256.0,33.0,35.0,-7.0,78.0,-3.0,-1006.0,121.0,121.0
-257.0,36.0,36.0,-5.0,80.0,0.0,-999.0,120.0,114.0
-254.0,34.0,40.0,-4.0,84.0,2.0,-1006.0,119.0,115.0
-254.0,33.0,36.0,-5.0,86.0,3.0,-1002.0,125.0,110.0
-255.0,32.0,33.0,-9.0,91.0,5.0,-997.0,120.0,117.0
-255.0,36.0,35.0,-14.0,91.0,5.0,-995.0,124.0,114.0
-257.0,36.0,39.0,-21.0,92.0,5.0,-998.0,121.0,116.0
-255.0,37.0,36.0,-30.0,92.0,7.0,-999.0,127.0,112.0
-253.0,35.0,36.0,-42.0,90.0,8.0,-999.0,128.0,119.0
-251.0,35.0,36.0,-51.0,87.0,8.0,-994.0,127.0,117.0
-255.0,36.0,39.0,-58.0,83.0,6.0,-999.0,132.0,118.0
-254.0,36.0,40.0,-65.0,81.0,4.0,-999.0,128.0,121.0
-255.0,37.0,37.0,-72.0,81.0,2.0,-991.0,130.0,121.0
-255.0,37.0,38.0,-81.0,82.0,2.0,-999.0,130.0,122.0
-255.0,37.0,40.0,-90.0,85.0,2.0,-997.0,123.0,120.0
-255.0,38.0,38.0,-96.0,87.0,0.0,-993.0,125.0,127.0
-256.0,33.0,39.0,-99.0,90.0,-3.0,-998.0,125.0,127.0
-256.0,33.0,38.0,-101.0,91.0,-3.0,-999.0,121.0,123.0
-254.0,34.0,40.0,-102.0,93.0,-3.0,-996.0,128.0,125.0
-255.0,33.0,40.0,-101.0,93.0,-2.0,-991.0,128.0,127.0
-255.0,32.0,41.0,-100.0,94.0,-3.0,-995.0,118.0,128.0
-252.0,31.0,41.0,-91.0,90.0,-2.0,-996.0,114.0,134.0
-253.0,35.0,35.0,-78.0,87.0,-2.0,-996.0,120.0,124.0
-254.0,31.0,40.0,-67.0,84.0,0.0,-994.0,118.0,121.0
-252.0,31.0,39.0,-59.0,82.0,1.0,-998.0,114.0,120.0
-252.0,30.0,37.0,-51.0,81.0,1.0,-1001.0,119.0,121.0
-255.0,32.0,37.0,-45.0,78.0,3.0,-998.0,123.0,117.0
-255.0,33.0,38.0,-43.0,74.0,3.0,-998.0,121.0,117.0
-255.0,34.0,42.0,-39.0,75.0,2.0,-1000.0,122.0,118.0
-255.0,31.0,39.0,-36.0,76.0,2.0,-1000.0,125.0,117.0
-256.0,33.0,36.0,-35.0,77.0,3.0,-999.0,124.0,121.0
-255.0,35.0,39.0,-34.0,78.0,4.0,-1000.0,125.0,119.0
-251.0,32.0,42.0,-31.0,79.0,4.0,-997.0,126.0,118.0
-255.0,37.0,39.0,-29.0,80.0,3.0,-997.0,123.0,121.0
-254.0,31.0,42.0,-24.0,81.0,2.0,-995.0,127.0,119.0
-253.0,35.0,40.0,-23.0,81.0,2.0,-998.0,131.0,121.0
-255.0,36.0,38.0,-24.0,79.0,1.0,-998.0,126.0,121.0
-254.0,32.0,36.0,-24.0,78.0,0.0,-996.0,127.0,120.0
-255.0,33.0,38.0,-26.0,77.0,-1.0,-993.0,128.0,116.0
-253.0,32.0,35.0,-28.0,76.0,-3.0,-998.0,127.0,118.0
-252.0,32.0,37.0,-31.0,74.0,-3.0,-998.0,123.0,121.0
-252.0,31.0,40.0,-32.0,71.0,-6.0,-1002.0,129.0,118.0
-254.0,35.0,39.0,-31.0,71.0,-4.0,-994.0,125.0,119.0
-253.0,34.0,34.0,-28.0,69.0,-4.0,-999.0,117.0,120.0
-255.0,31.0,34.0,-28.0,70.0,-5.0,-1001.0,121.0,122.0
-256.0,32.0,36.0,-26.0,71.0,-6.0,-996.0,121.0,119.0
-255.0,35.0,39.0,-25.0,72.0,-6.0,-994.0,126.0,118.0
-253.0,32.0,39.0,-21.0,73.0,-5.0,-1000.0,124.0,120.0
