acc1_x,acc1_y,acc1_z,gyro_x,gyro_y,gyro_z,acc2_x,acc2_y,acc2_z
-10.0,-255.0,11.0,6.0,64.0,11.0,0.0,-999.0,11.0
-7.0,-256.0,12.0,8.0,62.0,11.0,-3.0,-992.0,12.0
-8.0,-255.0,11.0,9.0,61.0,9.0,-5.0,-985.0,14.0
-4.0,-256.0,12.0,11.0,59.0,8.0,1.0,-992.0,13.0
-11.0,-256.0,10.0,10.0,61.0,7.0,1.0,-993.0,10.0
-27.0,-261.0,37.0,12.0,61.0,6.0,-3.0,-985.0,19.0
-9.0,-254.0,8.0,11.0,62.0,5.0,0.0,-993.0,17.0
-8.0,-255.0,12.0,10.0,62.0,6.0,-6.0,-993.0,17.0
-8.0,-253.0,12.0,10.0,65.0,6.0,-2.0,-997.0,15.0
-12.0,-256.0,11.0,10.0,67.0,6.0,0.0,-996.0,13.0
-8.0,-255.0,16.0,8.0,69.0,7.0,1.0,-995.0,18.0
-9.0,-256.0,14.0,9.0,71.0,7.0,-6.0,-999.0,15.0
-7.0,-255.0,16.0,8.0,71.0,7.0,-1.0,-992.0,19.0
-7.0,-257.0,14.0,7.0,71.0,6.0,-3.0,-990.0,21.0
-6.0,-252.0,7.0,5.0,70.0,5.0,-4.0,-998.0,20.0
-9.0,-257.0,13.0,6.0,69.0,8.0,-3.0,-992.0,20.0
-9.0,-255.0,12.0,5.0,67.0,7.0,-3.0,-998.0,17.0
-8.0,-256.0,15.0,5.0,66.0,7.0,-7.0,-986.0,18.0
-9.0,-260.0,5.0,6.0,64.0,5.0,0.0,-986.0,13.0
-10.0,-257.0,11.0,5.0,63.0,4.0,-3.0,-988.0,11.0
-8.0,-256.0,13.0,4.0,63.0,3.0,-4.0,-984.0,16.0
-10.0,-255.0,13.0,3.0,64.0,3.0,0.0,-985.0,16.0
-6.0,-256.0,12.0,5.0,64.0,4.0,2.0,-987.0,16.0
-8.0,-254.0,12.0,5.0,65.0,2.0,1.0,-990.0,18.0
-6.0,-257.0,13.0,7.0,66.0,3.0,-4.0,-999.0,21.0
-10.0,-255.0,13.0,8.0,66.0,2.0,-5.0,-991.0,21.0
-11.0,-253.0,12.0,10.0,66.0,1.0,-4.0,-987.0,18.0
-9.0,-256.0,11.0,13.0,66.0,2.0,-2.0,-987.0,16.0
-10.0,-259.0,14.0,17.0,67.0,3.0,-3.0,-996.0,21.0
-8.0,-258.0,11.0,20.0,70.0,3.0,-1.0,-1002.0,19.0
-9.0,-261.0,12.0,24.0,71.0,2.0,-2.0,-1002.0,15.0
-4.0,-257.0,15.0,29.0,73.0,4.0,-6.0,-994.0,18.0
-8.0,-254.0,13.0,31.0,74.0,5.0,-6.0,-996.0,21.0
-6.0,-255.0,11.0,29.0,72.0,7.0,-1.0,-984.0,18.0
-9.0,-253.0,15.0,28.0,72.0,8.0,-4.0,-983.0,26.0
-9.0,-252.0,14.0,24.0,70.0,8.0,-4.0,-983.0,23.0
-9.0,-252.0,13.0,19.0,67.0,9.0,-4.0,-979.0,22.0
-13.0,-249.0,17.0,15.0,66.0,8.0,-4.0,-977.0,26.0
-4.0,-256.0,12.0,12.0,66.0,8.0,-4.0,-981.0,29.0
-10.0,-255.0,18.0,11.0,66.0,7.0,-8.0,-990.0,32.0
-9.0,-255.0,14.0,11.0,68.0,7.0,-11.0,-992.0,29.0
-8.0,-260.0,17.0,15.0,70.0,9.0,-9.0,-999.0,29.0
-8.0,-259.0,13.0,18.0,73.0,10.0,-5.0,-994.0,25.0
-11.0,-256.0,11.0,23.0,73.0,13.0,-13.0,-1003.0,23.0
-8.0,-259.0,15.0,26.0,75.0,12.0,-7.0,-1011.0,24.0
-11.0,-257.0,14.0,27.0,77.0,11.0,-7.0,-999.0,25.0
-10.0,-257.0,10.0,29.0,78.0,11.0,-15.0,-1003.0,21.0
-11.0,-256.0,16.0,28.0,79.0,12.0,-13.0,-994.0,30.0
-11.0,-255.0,18.0,26.0,81.0,10.0,-13.0,-1001.0,20.0
-11.0,-256.0,14.0,25.0,82.0,10.0,-11.0,-996.0,20.0
-11.0,-254.0,10.0,26.0,81.0,9.0,-8.0,-986.0,18.0
-11.0,-252.0,13.0,27.0,84.0,9.0,-10.0,-994.0,24.0
-11.0,-254.0,15.0,28.0,85.0,10.0,-13.0,-985.0,20.0
-11.0,-253.0,14.0,31.0,86.0,11.0,-9.0,-983.0,24.0
-10.0,-252.0,13.0,34.0,86.0,9.0,-12.0,-978.0,29.0
-10.0,-252.0,13.0,36.0,84.0,8.0,-10.0,-976.0,29.0
-9.0,-249.0,13.0,40.0,83.0,7.0,-17.0,-977.0,20.0
-10.0,-250.0,16.0,41.0,83.0,4.0,-12.0,-981.0,22.0
-9.0,-256.0,14.0,42.0,81.0,2.0,-11.0,-978.0,31.0
-8.0,-254.0,10.0,40.0,79.0,3.0,-15.0,-980.0,24.0
-12.0,-252.0,16.0,40.0,75.0,2.0,-11.0,-987.0,26.0
-10.0,-257.0,16.0,37.0,73.0,2.0,-9.0,-982.0,22.0
-11.0,-256.0,16.0,34.0,73.0,3.0,-11.0,-989.0,24.0
-8.0,-256.0,16.0,33.0,70.0,3.0,-5.0,-996.0,24.0
-9.0,-254.0,15.0,31.0,70.0,4.0,1.0,-997.0,23.0
-10.0,-257.0,16.0,31.0,69.0,4.0,-9.0,-1001.0,25.0
-11.0,-258.0,13.0,32.0,69.0,6.0,-9.0,-985.0,30.0
-9.0,-257.0,16.0,34.0,68.0,6.0,-7.0,-994.0,24.0
-10.0,-251.0,14.0,35.0,66.0,6.0,-10.0,-997.0,28.0
-9.0,-256.0,15.0,36.0,65.0,6.0,-5.0,-990.0,29.0
-9.0,-256.0,12.0,37.0,65.0,6.0,-9.0,-985.0,33.0
-11.0,-253.0,18.0,38.0,66.0,7.0,-8.0,-983.0,28.0
-9.0,-255.0,18.0,39.0,66.0,6.0,-11.0,-987.0,28.0
-9.0,-257.0,16.0,39.0,68.0,4.0,-10.0,-979.0,32.0
-11.0,-253.0,18.0,39.0,69.0,4.0,-6.0,-984.0,31.0
-7.0,-255.0,15.0,38.0,71.0,4.0,-10.0,-985.0,32.0
-11.0,-255.0,17.0,36.0,71.0,2.0,-8.0,-986.0,32.0
-11.0,-254.0,17.0,35.0,70.0,2.0,-7.0,-984.0,39.0
-12.0,-254.0,17.0,33.0,70.0,1.0,-11.0,-979.0,32.0
-12.0,-255.0,15.0,30.0,68.0,2.0,-8.0,-982.0,34.0
-11.0,-259.0,16.0,29.0,68.0,3.0,-13.0,-982.0,31.0
-11.0,-254.0,21.0,27.0,68.0,2.0,-11.0,-985.0,31.0
-9.0,-254.0,16.0,25.0,67.0,3.0,-8.0,-986.0,35.0
-10.0,-254.0,15.0,21.0,67.0,4.0,-7.0,-978.0,32.0
-9.0,-253.0,15.0,17.0,67.0,3.0,-9.0,-992.0,31.0
-8.0,-256.0,14.0,15.0,68.0,2.0,-10.0,-992.0,29.0
-11.0,-258.0,18.0,12.0,68.0,2.0,-8.0,-993.0,27.0
-10.0,-257.0,17.0,12.0,68.0,2.0,-7.0,-984.0,34.0
-9.0,-257.0,15.0,11.0,70.0,2.0,-6.0,-993.0,36.0
-10.0,-256.0,17.0,11.0,70.0,3.0,-12.0,-986.0,32.0
-10.0,-257.0,14.0,14.0,70.0,4.0,-8.0,-994.0,36.0
-11.0,-253.0,19.0,14.0,71.0,5.0,-9.0,-1002.0,36.0
-10.0,-254.0,17.0,18.0,70.0,5.0,-9.0,-996.0,35.0
-9.0,-257.0,15.0,22.0,71.0,6.0,-10.0,-984.0,37.0
-10.0,-257.0,18.0,25.0,72.0,5.0,-8.0,-993.0,35.0
-11.0,-255.0,19.0,29.0,74.0,6.0,-13.0,-998.0,35.0
-11.0,-255.0,16.0,29.0,74.0,5.0,-15.0,-989.0,34.0
-8.0,-254.0,21.0,29.0,74.0,6.0,-11.0,-988.0,34.0
-7.0,-256.0,17.0,27.0,73.0,5.0,-11.0,-987.0,38.0
-10.0,-254.0,20.0,25.0,73.0,5.0,-7.0,-992.0,37.0
-9.0,-256.0,21.0,23.0,73.0,5.0,-10.0,-985.0,37.0
-13.0,-253.0,19.0,20.0,75.0,5.0,-11.0,-979.0,43.0
-9.0,-254.0,18.0,19.0,74.0,5.0,-11.0,-976.0,37.0
-10.0,-252.0,18.0,18.0,73.0,5.0,-13.0,-980.0,39.0
-9.0,-256.0,16.0,15.0,73.0,3.0,-17.0,-976.0,37.0
-10.0,-254.0,19.0,15.0,75.0,3.0,-14.0,-981.0,38.0
-13.0,-253.0,21.0,15.0,76.0,0.0,-12.0,-982.0,37.0
-9.0,-255.0,16.0,17.0,75.0,-1.0,-12.0,-983.0,40.0
-8.0,-254.0,21.0,20.0,76.0,-1.0,-10.0,-982.0,41.0
-10.0,-254.0,18.0,21.0,77.0,-2.0,-10.0,-983.0,42.0
-7.0,-257.0,18.0,20.0,77.0,-1.0,-9.0,-985.0,37.0
-8.0,-257.0,20.0,22.0,76.0,0.0,-11.0,-984.0,39.0
-12.0,-257.0,17.0,22.0,76.0,0.0,-9.0,-994.0,42.0
-10.0,-254.0,19.0,20.0,76.0,0.0,-11.0,-991.0,43.0
-10.0,-255.0,20.0,21.0,75.0,0.0,-5.0,-993.0,40.0
-9.0,-257.0,20.0,20.0,73.0,0.0,-8.0,-991.0,40.0
-9.0,-255.0,18.0,22.0,73.0,-1.0,-7.0,-993.0,42.0
-9.0,-255.0,22.0,22.0,71.0,-1.0,-14.0,-995.0,44.0
-7.0,-257.0,20.0,23.0,70.0,-3.0,-5.0,-983.0,42.0
-9.0,-254.0,19.0,25.0,70.0,-4.0,-4.0,-987.0,45.0
-8.0,-253.0,20.0,27.0,70.0,-3.0,1.0,-984.0,40.0
-10.0,-255.0,18.0,28.0,71.0,-3.0,-12.0,-987.0,45.0
-10.0,-252.0,21.0,28.0,71.0,-3.0,-4.0,-987.0,44.0
-13.0,-251.0,22.0,27.0,72.0,-4.0,-7.0,-982.0,44.0
-6.0,-251.0,23.0,26.0,74.0,-4.0,-9.0,-979.0,44.0
-13.0,-255.0,22.0,25.0,73.0,-4.0,-11.0,-986.0,37.0
-10.0,-254.0,18.0,21.0,74.0,-4.0,-12.0,-982.0,43.0
-7.0,-253.0,18.0,19.0,75.0,-1.0,-13.0,-985.0,41.0
-10.0,-254.0,22.0,17.0,76.0,0.0,-15.0,-985.0,45.0
-9.0,-257.0,21.0,17.0,77.0,0.0,-8.0,-986.0,42.0
-9.0,-254.0,18.0,17.0,76.0,-1.0,-12.0,-980.0,41.0
-12.0,-257.0,18.0,18.0,74.0,-1.0,-8.0,-983.0,45.0
-11.0,-254.0,16.0,20.0,75.0,-1.0,-11.0,-984.0,41.0
-10.0,-252.0,20.0,23.0,75.0,-3.0,-8.0,-992.0,41.0
-9.0,-253.0,17.0,25.0,75.0,-3.0,-6.0,-991.0,40.0
-11.0,-255.0,18.0,27.0,73.0,-4.0,-6.0,-998.0,40.0
-9.0,-257.0,21.0,28.0,75.0,-4.0,-6.0,-983.0,45.0
-12.0,-255.0,18.0,28.0,74.0,-4.0,-10.0,-993.0,41.0
-9.0,-253.0,20.0,27.0,76.0,-4.0,-9.0,-987.0,45.0
-12.0,-255.0,17.0,25.0,78.0,-4.0,-16.0,-992.0,42.0
-9.0,-253.0,18.0,22.0,79.0,-4.0,-6.0,-978.0,43.0
-10.0,-255.0,20.0,21.0,79.0,-3.0,-3.0,-985.0,50.0
-7.0,-254.0,19.0,21.0,79.0,-2.0,-7.0,-988.0,43.0
-9.0,-252.0,20.0,23.0,79.0,-2.0,-6.0,-988.0,47.0
-11.0,-252.0,20.0,25.0,78.0,-4.0,-9.0,-984.0,49.0
-9.0,-255.0,17.0,29.0,79.0,-3.0,-8.0,-986.0,43.0
-5.0,-251.0,25.0,32.0,77.0,-1.0,-14.0,-979.0,46.0
-11.0,-251.0,20.0,34.0,75.0,-2.0,-10.0,-992.0,44.0
-11.0,-252.0,20.0,37.0,75.0,-2.0,-9.0,-984.0,44.0
-12.0,-254.0,21.0,37.0,77.0,-2.0,-13.0,-987.0,46.0
-10.0,-254.0,19.0,35.0,74.0,-4.0,-11.0,-993.0,43.0
-11.0,-254.0,21.0,34.0,76.0,-4.0,-9.0,-984.0,47.0
-10.0,-256.0,21.0,33.0,74.0,-4.0,-11.0,-981.0,50.0
-10.0,-256.0,19.0,32.0,75.0,-4.0,-13.0,-980.0,47.0
-13.0,-253.0,21.0,32.0,75.0,-6.0,-8.0,-984.0,49.0
-9.0,-254.0,20.0,32.0,75.0,-7.0,-9.0,-992.0,58.0
-11.0,-254.0,22.0,34.0,75.0,-6.0,-12.0,-991.0,52.0
-8.0,-258.0,21.0,37.0,74.0,-5.0,-9.0,-991.0,54.0
-11.0,-254.0,23.0,40.0,74.0,-5.0,-12.0,-991.0,50.0
-10.0,-254.0,21.0,44.0,73.0,-5.0,-15.0,-994.0,51.0
-11.0,-254.0,21.0,46.0,72.0,-4.0,-13.0,-984.0,51.0
-11.0,-254.0,25.0,48.0,70.0,-4.0,-14.0,-983.0,52.0
-12.0,-251.0,24.0,48.0,70.0,-4.0,-9.0,-989.0,52.0
-15.0,-253.0,22.0,46.0,72.0,-5.0,-13.0,-988.0,53.0
-10.0,-258.0,18.0,44.0,71.0,-7.0,-13.0,-980.0,51.0
-12.0,-253.0,22.0,42.0,72.0,-8.0,-13.0,-978.0,50.0
-10.0,-253.0,19.0,41.0,72.0,-9.0,-12.0,-985.0,51.0
-10.0,-252.0,25.0,41.0,73.0,-9.0,-11.0,-982.0,53.0
-18.0,-250.0,10.0,42.0,72.0,-9.0,-13.0,-991.0,52.0
-9.0,-259.0,26.0,42.0,74.0,-9.0,-10.0,-987.0,50.0
-6.0,-256.0,20.0,45.0,74.0,-8.0,-8.0,-992.0,52.0
-8.0,-258.0,22.0,46.0,76.0,-6.0,-8.0,-985.0,54.0
-12.0,-253.0,24.0,46.0,74.0,-5.0,-11.0,-991.0,52.0
-6.0,-253.0,21.0,45.0,72.0,-4.0,-8.0,-984.0,57.0
-9.0,-251.0,24.0,42.0,69.0,-2.0,-11.0,-977.0,56.0
-10.0,-254.0,26.0,40.0,68.0,0.0,-10.0,-978.0,60.0
-8.0,-254.0,25.0,38.0,66.0,-2.0,-13.0,-979.0,62.0
-10.0,-252.0,26.0,35.0,66.0,-1.0,-9.0,-972.0,57.0
-12.0,-249.0,23.0,34.0,67.0,-4.0,-16.0,-972.0,58.0
-10.0,-253.0,26.0,32.0,67.0,-5.0,-8.0,-976.0,59.0
-11.0,-251.0,25.0,30.0,69.0,-6.0,-8.0,-976.0,60.0
-10.0,-252.0,21.0,31.0,70.0,-6.0,-11.0,-982.0,59.0
-11.0,-254.0,22.0,29.0,72.0,-7.0,-8.0,-980.0,57.0
-9.0,-253.0,27.0,29.0,73.0,-5.0,-10.0,-991.0,59.0
-11.0,-257.0,23.0,31.0,75.0,-3.0,-9.0,-991.0,57.0
-11.0,-256.0,28.0,33.0,76.0,-4.0,-11.0,-986.0,60.0
-11.0,-255.0,23.0,31.0,75.0,-3.0,-15.0,-1007.0,57.0
-11.0,-257.0,23.0,28.0,74.0,-2.0,-18.0,-999.0,58.0
-13.0,-255.0,23.0,23.0,72.0,-2.0,-12.0,-991.0,62.0
-11.0,-255.0,21.0,19.0,71.0,-1.0,-16.0,-987.0,59.0
-7.0,-254.0,22.0,15.0,69.0,-1.0,-16.0,-985.0,57.0
-13.0,-255.0,22.0,13.0,71.0,-1.0,-13.0,-983.0,59.0
-10.0,-258.0,27.0,14.0,72.0,1.0,-10.0,-980.0,57.0
-11.0,-254.0,23.0,17.0,72.0,1.0,-15.0,-979.0,61.0
-8.0,-255.0,27.0,21.0,71.0,-1.0,-11.0,-981.0,60.0
-10.0,-252.0,25.0,24.0,70.0,-3.0,-8.0,-980.0,58.0
-10.0,-255.0,24.0,27.0,68.0,-6.0,-11.0,-979.0,58.0
-8.0,-251.0,24.0,25.0,68.0,-8.0,-10.0,-975.0,54.0
-11.0,-254.0,25.0,22.0,67.0,-7.0,-10.0,-974.0,60.0
-12.0,-252.0,24.0,17.0,66.0,-9.0,-5.0,-975.0,57.0
-11.0,-250.0,28.0,12.0,64.0,-9.0,-10.0,-976.0,63.0
-7.0,-255.0,24.0,6.0,61.0,-8.0,-16.0,-982.0,65.0
-11.0,-256.0,27.0,2.0,61.0,-7.0,-8.0,-983.0,63.0
-11.0,-253.0,22.0,-3.0,59.0,-5.0,-8.0,-985.0,62.0
-8.0,-253.0,26.0,-7.0,57.0,-5.0,-8.0,-986.0,61.0
-9.0,-255.0,21.0,-11.0,57.0,-5.0,-9.0,-985.0,62.0
-11.0,-253.0,24.0,-12.0,56.0,-3.0,-8.0,-987.0,63.0
-12.0,-253.0,23.0,-14.0,56.0,-2.0,-6.0,-981.0,62.0
-10.0,-252.0,25.0,-17.0,57.0,-2.0,-3.0,-987.0,60.0
-10.0,-255.0,23.0,-17.0,56.0,-1.0,-8.0,-981.0,60.0
-9.0,-255.0,25.0,-20.0,55.0,0.0,-8.0,-978.0,59.0
-15.0,-252.0,30.0,-21.0,55.0,1.0,-10.0,-977.0,60.0
-9.0,-253.0,25.0,-23.0,54.0,0.0,-16.0,-984.0,60.0
-8.0,-257.0,26.0,-25.0,54.0,-1.0,-11.0,-984.0,56.0
-9.0,-256.0,25.0,-27.0,53.0,-1.0,-10.0,-981.0,59.0
-9.0,-254.0,24.0,-27.0,53.0,-1.0,-4.0,-981.0,63.0
-11.0,-252.0,24.0,-29.0,52.0,-2.0,-5.0,-986.0,55.0
-7.0,-256.0,22.0,-30.0,54.0,-3.0,-2.0,-977.0,59.0
-8.0,-254.0,27.0,-31.0,53.0,-5.0,-5.0,-980.0,60.0
-9.0,-253.0,23.0,-33.0,55.0,-5.0,-6.0,-984.0,54.0
-8.0,-256.0,22.0,-35.0,57.0,-7.0,-5.0,-984.0,54.0
-7.0,-253.0,21.0,-38.0,57.0,-6.0,-2.0,-982.0,60.0
-10.0,-251.0,24.0,-41.0,58.0,-3.0,-7.0,-983.0,53.0
-10.0,-250.0,26.0,-43.0,57.0,-3.0,-5.0,-980.0,56.0
-11.0,-253.0,23.0,-47.0,58.0,-2.0,-5.0,-991.0,56.0
-10.0,-252.0,23.0,-50.0,59.0,-3.0,-1.0,-980.0,59.0
-9.0,-253.0,24.0,-52.0,57.0,-1.0,-6.0,-977.0,56.0
-9.0,-256.0,24.0,-56.0,56.0,1.0,-9.0,-981.0,59.0
-7.0,-253.0,27.0,-58.0,56.0,1.0,-3.0,-984.0,57.0
-11.0,-253.0,25.0,-61.0,57.0,3.0,-9.0,-983.0,52.0
-11.0,-252.0,22.0,-62.0,57.0,6.0,-12.0,-982.0,61.0
-8.0,-255.0,24.0,-64.0,55.0,9.0,-6.0,-981.0,61.0
-10.0,-253.0,23.0,-63.0,54.0,11.0,-12.0,-982.0,62.0
-12.0,-251.0,19.0,-66.0,54.0,12.0,-8.0,-983.0,63.0
-8.0,-257.0,23.0,-67.0,51.0,13.0,-11.0,-984.0,58.0
-9.0,-254.0,24.0,-69.0,51.0,13.0,-13.0,-985.0,61.0
-12.0,-254.0,25.0,-72.0,50.0,12.0,-15.0,-982.0,57.0
-11.0,-254.0,22.0,-77.0,52.0,13.0,-16.0,-986.0,55.0
-11.0,-255.0,24.0,-80.0,53.0,12.0,-16.0,-985.0,58.0
-10.0,-251.0,24.0,-84.0,54.0,12.0,-18.0,-988.0,53.0
-14.0,-253.0,26.0,-88.0,56.0,13.0,-16.0,-985.0,57.0
-9.0,-256.0,20.0,-92.0,59.0,14.0,-13.0,-982.0,54.0
-11.0,-251.0,21.0,-94.0,61.0,13.0,-10.0,-987.0,56.0
-13.0,-252.0,21.0,-95.0,62.0,11.0,-14.0,-979.0,56.0
-11.0,-253.0,24.0,-97.0,65.0,12.0,-9.0,-980.0,59.0
-9.0,-258.0,23.0,-98.0,67.0,10.0,-17.0,-982.0,55.0
-8.0,-256.0,21.0,-99.0,69.0,12.0,-13.0,-981.0,59.0
-11.0,-255.0,22.0,-99.0,69.0,11.0,-8.0,-979.0,51.0
-9.0,-256.0,22.0,-99.0,69.0,12.0,-13.0,-977.0,53.0
-10.0,-254.0,21.0,-99.0,70.0,12.0,-18.0,-982.0,51.0
-11.0,-254.0,20.0,-101.0,69.0,11.0,-10.0,-980.0,49.0
-13.0,-255.0,21.0,-102.0,66.0,11.0,-8.0,-981.0,48.0
-10.0,-258.0,22.0,-104.0,63.0,9.0,-16.0,-984.0,47.0
-10.0,-255.0,20.0,-105.0,62.0,7.0,-15.0,-987.0,50.0
-12.0,-255.0,20.0,-106.0,58.0,7.0,-11.0,-990.0,45.0
-5.0,-253.0,22.0,-104.0,56.0,7.0,-16.0,-999.0,42.0
-12.0,-254.0,20.0,-105.0,56.0,6.0,-23.0,-993.0,40.0
-13.0,-256.0,18.0,-105.0,56.0,8.0,-15.0,-1002.0,46.0
-10.0,-257.0,20.0,-104.0,56.0,8.0,-14.0,-994.0,51.0
-11.0,-259.0,21.0,-104.0,58.0,8.0,-12.0,-1001.0,49.0
-11.0,-257.0,19.0,-104.0,58.0,9.0,-14.0,-994.0,50.0
-12.0,-254.0,23.0,-105.0,59.0,8.0,-15.0,-986.0,45.0
-12.0,-254.0,19.0,-105.0,59.0,7.0,-14.0,-985.0,46.0
-11.0,-252.0,21.0,-108.0,59.0,5.0,-16.0,-980.0,43.0
-11.0,-253.0,19.0,-110.0,61.0,4.0,-17.0,-981.0,46.0
-13.0,-253.0,21.0,-111.0,63.0,2.0,-18.0,-981.0,49.0
-12.0,-253.0,21.0,-113.0,64.0,2.0,-12.0,-980.0,41.0
-16.0,-254.0,15.0,-115.0,65.0,0.0,-14.0,-987.0,40.0
-9.0,-252.0,21.0,-117.0,66.0,1.0,-13.0,-980.0,41.0
-7.0,-253.0,15.0,-117.0,67.0,-2.0,-11.0,-983.0,41.0
-10.0,-256.0,19.0,-117.0,67.0,0.0,-16.0,-986.0,39.0
-11.0,-256.0,19.0,-118.0,66.0,1.0,-4.0,-998.0,40.0
-10.0,-255.0,18.0,-116.0,65.0,1.0,-16.0,-987.0,42.0
-10.0,-255.0,16.0,-114.0,65.0,1.0,-10.0,-1001.0,34.0
-9.0,-256.0,17.0,-111.0,65.0,0.0,-10.0,-995.0,38.0
-12.0,-256.0,14.0,-105.0,66.0,0.0,-14.0,-993.0,32.0
-11.0,-257.0,16.0,-100.0,66.0,0.0,-9.0,-986.0,35.0
-13.0,-250.0,25.0,-97.0,66.0,1.0,-13.0,-993.0,30.0
-12.0,-256.0,19.0,-94.0,68.0,0.0,-18.0,-995.0,32.0
-12.0,-253.0,18.0,-93.0,69.0,-1.0,-12.0,-987.0,32.0
-11.0,-252.0,15.0,-89.0,69.0,-2.0,-14.0,-986.0,31.0
-13.0,-255.0,15.0,-86.0,72.0,-2.0,-18.0,-984.0,28.0
-10.0,-254.0,15.0,-83.0,74.0,-3.0,-17.0,-981.0,31.0
-10.0,-253.0,14.0,-81.0,72.0,-3.0,-14.0,-978.0,25.0
-10.0,-255.0,17.0,-80.0,74.0,-4.0,-10.0,-978.0,29.0
-13.0,-251.0,13.0,-79.0,73.0,-4.0,-12.0,-975.0,27.0
-12.0,-254.0,18.0,-80.0,73.0,-4.0,-18.0,-990.0,26.0
-8.0,-255.0,15.0,-81.0,72.0,-4.0,-10.0,-984.0,28.0
-11.0,-253.0,16.0,-83.0,73.0,-3.0,-12.0,-983.0,30.0
-13.0,-254.0,18.0,-83.0,73.0,-4.0,-12.0,-984.0,25.0
-12.0,-254.0,16.0,-84.0,74.0,-4.0,-16.0,-996.0,25.0
-12.0,-255.0,14.0,-86.0,76.0,-2.0,-13.0,-994.0,26.0
-10.0,-252.0,17.0,-86.0,75.0,-4.0,-18.0,-982.0,27.0
-11.0,-257.0,16.0,-89.0,75.0,-3.0,-12.0,-987.0,29.0
-10.0,-257.0,16.0,-89.0,74.0,-4.0,-18.0,-990.0,25.0
-13.0,-254.0,13.0,-87.0,72.0,-3.0,-12.0,-986.0,29.0
-11.0,-255.0,14.0,-87.0,72.0,-4.0,-9.0,-983.0,27.0
-11.0,-256.0,12.0,-86.0,70.0,-4.0,-15.0,-984.0,20.0
-18.0,-257.0,13.0,-84.0,69.0,-3.0,-17.0,-980.0,24.0
-13.0,-255.0,17.0,-83.0,69.0,-4.0,-12.0,-991.0,21.0
-11.0,-255.0,17.0,-79.0,69.0,-2.0,-10.0,-986.0,27.0
-9.0,-256.0,14.0,-76.0,69.0,-2.0,-8.0,-987.0,26.0
-14.0,-256.0,14.0,-74.0,69.0,-2.0,-13.0,-996.0,21.0
-11.0,-256.0,11.0,-72.0,70.0,-3.0,-11.0,-989.0,25.0
-11.0,-254.0,15.0,-67.0,72.0,-3.0,-17.0,-988.0,19.0
-11.0,-255.0,13.0,-65.0,72.0,-3.0,-11.0,-992.0,21.0
-10.0,-256.0,13.0,-63.0,72.0,-6.0,-16.0,-992.0,25.0
-11.0,-252.0,14.0,-62.0,71.0,-7.0,-13.0,-987.0,30.0
-12.0,-257.0,15.0,-60.0,71.0,-7.0,-16.0,-992.0,23.0
-13.0,-256.0,10.0,-60.0,72.0,-6.0,-16.0,-994.0,22.0
-12.0,-255.0,14.0,-59.0,73.0,-6.0,-11.0,-995.0,25.0
-10.0,-255.0,14.0,-60.0,73.0,-4.0,-7.0,-996.0,22.0
-8.0,-256.0,16.0,-61.0,73.0,-3.0,-12.0,-1006.0,19.0
-14.0,-254.0,13.0,-59.0,72.0,-3.0,-9.0,-998.0,20.0
-10.0,-257.0,12.0,-60.0,68.0,-2.0,-18.0,-993.0,20.0
-14.0,-253.0,16.0,-62.0,67.0,-4.0,-20.0,-985.0,26.0
-13.0,-257.0,13.0,-65.0,65.0,-4.0,-14.0,-974.0,24.0
-14.0,-251.0,17.0,-68.0,66.0,-6.0,-11.0,-984.0,17.0
-11.0,-251.0,12.0,-73.0,68.0,-7.0,-7.0,-980.0,17.0
-11.0,-255.0,12.0,-74.0,68.0,-6.0,-11.0,-977.0,20.0
-9.0,-252.0,20.0,-74.0,71.0,-6.0,-9.0,-976.0,21.0
-11.0,-254.0,13.0,-73.0,74.0,-6.0,-12.0,-983.0,19.0
-9.0,-255.0,16.0,-69.0,76.0,-5.0,-7.0,-992.0,21.0
-9.0,-258.0,13.0,-65.0,79.0,-5.0,-9.0,-987.0,17.0
-8.0,-255.0,11.0,-61.0,79.0,-4.0,-8.0,-997.0,15.0
-13.0,-254.0,13.0,-57.0,83.0,-3.0,-7.0,-1008.0,18.0
-11.0,-258.0,12.0,-55.0,81.0,-4.0,-14.0,-999.0,12.0
-11.0,-255.0,10.0,-54.0,79.0,-3.0,-22.0,-1003.0,16.0
-14.0,-258.0,12.0,-55.0,77.0,-3.0,-18.0,-999.0,19.0
-11.0,-258.0,11.0,-58.0,74.0,-1.0,-18.0,-998.0,17.0
-12.0,-256.0,15.0,-61.0,71.0,-1.0,-17.0,-1005.0,16.0
-11.0,-256.0,15.0,-65.0,67.0,0.0,-16.0,-997.0,17.0
-11.0,-261.0,12.0,-68.0,64.0,-2.0,-11.0,-993.0,17.0
-13.0,-255.0,14.0,-69.0,63.0,-2.0,-19.0,-998.0,19.0
-13.0,-254.0,13.0,-68.0,63.0,-3.0,-18.0,-994.0,23.0
-13.0,-256.0,10.0,-65.0,61.0,-2.0,-17.0,-986.0,20.0
-14.0,-253.0,12.0,-62.0,61.0,-6.0,-18.0,-992.0,16.0
-11.0,-256.0,13.0,-59.0,62.0,-7.0,-20.0,-987.0,17.0
-12.0,-256.0,9.0,-55.0,64.0,-12.0,-16.0,-984.0,13.0
-10.0,-251.0,15.0,-52.0,65.0,-13.0,-17.0,-982.0,10.0
-12.0,-256.0,9.0,-48.0,68.0,-15.0,-15.0,-986.0,16.0
-12.0,-255.0,11.0,-48.0,70.0,-14.0,-10.0,-983.0,15.0
-9.0,-255.0,6.0,-48.0,72.0,-16.0,-17.0,-984.0,17.0
-11.0,-254.0,13.0,-51.0,75.0,-14.0,-10.0,-998.0,14.0
-10.0,-254.0,11.0,-54.0,77.0,-13.0,-8.0,-994.0,15.0
-9.0,-259.0,13.0,-55.0,77.0,-13.0,-8.0,-990.0,15.0
-13.0,-255.0,10.0,-56.0,76.0,-13.0,-10.0,-985.0,10.0
-8.0,-257.0,10.0,-54.0,76.0,-11.0,-7.0,-982.0,9.0
-8.0,-255.0,8.0,-53.0,76.0,-11.0,-11.0,-986.0,10.0
-11.0,-256.0,13.0,-50.0,75.0,-10.0,-15.0,-981.0,12.0
-11.0,-254.0,11.0,-47.0,73.0,-11.0,-14.0,-978.0,8.0
-10.0,-254.0,10.0,-44.0,71.0,-9.0,-12.0,-983.0,7.0
-15.0,-254.0,12.0,-43.0,71.0,-10.0,-12.0,-980.0,8.0
-10.0,-253.0,10.0,-41.0,68.0,-9.0,-14.0,-981.0,6.0
-13.0,-255.0,5.0,-39.0,66.0,-10.0,-17.0,-983.0,11.0
-9.0,-254.0,8.0,-39.0,64.0,-10.0,-12.0,-978.0,6.0
-13.0,-253.0,9.0,-39.0,64.0,-9.0,-19.0,-987.0,8.0
-13.0,-254.0,12.0,-39.0,63.0,-9.0,-15.0,-986.0,9.0
-12.0,-255.0,5.0,-38.0,63.0,-10.0,-13.0,-985.0,5.0
-12.0,-252.0,7.0,-37.0,64.0,-10.0,-16.0,-991.0,6.0
-12.0,-254.0,11.0,-36.0,64.0,-10.0,-16.0,-987.0,2.0
-9.0,-257.0,12.0,-35.0,66.0,-11.0,-16.0,-987.0,9.0
-10.0,-255.0,7.0,-35.0,66.0,-11.0,-14.0,-992.0,5.0
-12.0,-255.0,7.0,-36.0,68.0,-12.0,-8.0,-992.0,5.0
-3.0,-263.0,9.0,-38.0,69.0,-11.0,-14.0,-993.0,7.0
-11.0,-257.0,4.0,-41.0,71.0,-12.0,-14.0,-998.0,6.0
-7.0,-257.0,10.0,-41.0,71.0,-11.0,-8.0,-986.0,5.0
-9.0,-256.0,9.0,-40.0,70.0,-13.0,-5.0,-985.0,3.0
-12.0,-254.0,5.0,-40.0,71.0,-12.0,-6.0,-1001.0,0.0
-8.0,-257.0,9.0,-42.0,72.0,-12.0,-14.0,-998.0,2.0
-10.0,-261.0,10.0,-43.0,72.0,-9.0,-6.0,-998.0,7.0
-10.0,-254.0,12.0,-44.0,72.0,-10.0,-11.0,-1002.0,2.0
-10.0,-254.0,10.0,-43.0,71.0,-9.0,-9.0,-995.0,4.0
-11.0,-256.0,9.0,-39.0,69.0,-10.0,-11.0,-994.0,1.0
-9.0,-255.0,7.0,-34.0,68.0,-9.0,-10.0,-994.0,2.0
-9.0,-254.0,11.0,-31.0,65.0,-11.0,-10.0,-997.0,5.0
-11.0,-252.0,9.0,-27.0,64.0,-11.0,-10.0,-994.0,6.0
-10.0,-256.0,8.0,-27.0,60.0,-10.0,-6.0,-992.0,5.0
-14.0,-254.0,11.0,-28.0,60.0,-11.0,-6.0,-999.0,6.0
-10.0,-255.0,9.0,-31.0,59.0,-14.0,-11.0,-991.0,0.0
-12.0,-255.0,11.0,-35.0,58.0,-16.0,-9.0,-998.0,-1.0
-10.0,-252.0,4.0,-40.0,59.0,-18.0,-11.0,-993.0,1.0
-10.0,-257.0,8.0,-44.0,58.0,-19.0,-7.0,-1001.0,4.0
-10.0,-253.0,8.0,-46.0,60.0,-20.0,-9.0,-1004.0,3.0
-9.0,-256.0,9.0,-47.0,62.0,-22.0,-6.0,-987.0,3.0
-7.0,-255.0,15.0,-47.0,63.0,-23.0,-14.0,-990.0,6.0
-8.0,-256.0,10.0,-45.0,65.0,-25.0,-7.0,-991.0,2.0
-5.0,-260.0,9.0,-44.0,65.0,-27.0,-1.0,-983.0,3.0
-10.0,-256.0,10.0,-43.0,66.0,-29.0,-4.0,-990.0,1.0
-7.0,-256.0,11.0,-43.0,67.0,-31.0,-3.0,-997.0,1.0
-7.0,-257.0,11.0,-43.0,66.0,-29.0,-3.0,-993.0,3.0
-9.0,-255.0,9.0,-44.0,66.0,-29.0,-4.0,-985.0,6.0
-7.0,-255.0,9.0,-46.0,65.0,-30.0,2.0,-987.0,5.0
-5.0,-252.0,11.0,-46.0,64.0,-29.0,-3.0,-988.0,7.0
-7.0,-256.0,12.0,-46.0,64.0,-29.0,-1.0,-1002.0,2.0
-7.0,-256.0,10.0,-44.0,63.0,-28.0,-1.0,-1002.0,-2.0
-7.0,-258.0,4.0,-40.0,62.0,-28.0,0.0,-991.0,0.0
-8.0,-256.0,7.0,-39.0,64.0,-29.0,-1.0,-994.0,0.0
-9.0,-256.0,8.0,-37.0,63.0,-26.0,-2.0,-986.0,0.0
-5.0,-256.0,10.0,-35.0,62.0,-28.0,-1.0,-987.0,1.0
-8.0,-257.0,9.0,-34.0,62.0,-26.0,-6.0,-987.0,5.0
-9.0,-256.0,9.0,-32.0,63.0,-27.0,-3.0,-994.0,4.0
-8.0,-255.0,8.0,-28.0,64.0,-27.0,-6.0,-983.0,0.0
-8.0,-255.0,7.0,-24.0,64.0,-28.0,1.0,-982.0,-3.0
-7.0,-254.0,7.0,-24.0,64.0,-28.0,-3.0,-992.0,3.0
-11.0,-251.0,8.0,-23.0,64.0,-28.0,-6.0,-980.0,1.0
-9.0,-254.0,9.0,-22.0,64.0,-30.0,-8.0,-978.0,1.0
-6.0,-255.0,10.0,-22.0,65.0,-30.0,-5.0,-988.0,3.0
-9.0,-255.0,8.0,-21.0,65.0,-28.0,0.0,-983.0,-3.0
-6.0,-256.0,9.0,-21.0,66.0,-28.0,1.0,-988.0,1.0
-9.0,-256.0,7.0,-21.0,68.0,-27.0,-8.0,-986.0,-1.0
-7.0,-257.0,9.0,-20.0,67.0,-27.0,-2.0,-1001.0,4.0
-6.0,-254.0,5.0,-19.0,68.0,-25.0,-1.0,-994.0,-6.0
-8.0,-259.0,5.0,-17.0,69.0,-24.0,-1.0,-994.0,-5.0
-9.0,-256.0,9.0,-15.0,68.0,-22.0,-4.0,-999.0,-1.0
-7.0,-257.0,7.0,-13.0,67.0,-22.0,-2.0,-993.0,-1.0
-11.0,-257.0,6.0,-12.0,66.0,-22.0,0.0,-986.0,0.0
-8.0,-257.0,9.0,-10.0,66.0,-21.0,-4.0,-1002.0,2.0
-10.0,-253.0,10.0,-9.0,65.0,-22.0,-2.0,-992.0,-1.0
-7.0,-255.0,7.0,-8.0,65.0,-21.0,-3.0,-993.0,1.0
-8.0,-254.0,6.0,-6.0,65.0,-21.0,-1.0,-992.0,5.0
-6.0,-258.0,8.0,-6.0,65.0,-21.0,-1.0,-984.0,-2.0
-9.0,-254.0,7.0,-5.0,65.0,-22.0,-4.0,-993.0,3.0
-11.0,-256.0,7.0,-3.0,65.0,-22.0,-5.0,-985.0,-2.0
-7.0,-257.0,6.0,-3.0,67.0,-22.0,-6.0,-978.0,1.0
-11.0,-255.0,7.0,-4.0,67.0,-22.0,-7.0,-993.0,-1.0
-8.0,-257.0,6.0,-3.0,68.0,-23.0,-4.0,-989.0,-1.0
-10.0,-256.0,8.0,-2.0,68.0,-22.0,-7.0,-996.0,-1.0
-12.0,-256.0,8.0,-1.0,68.0,-21.0,-4.0,-994.0,-2.0
-2.0,-257.0,8.0,1.0,67.0,-22.0,-1.0,-997.0,-4.0
-11.0,-258.0,9.0,4.0,66.0,-23.0,4.0,-986.0,-3.0
-8.0,-254.0,9.0,6.0,67.0,-22.0,0.0,-987.0,0.0
-10.0,-257.0,7.0,9.0,67.0,-22.0,-3.0,-991.0,0.0
-7.0,-255.0,8.0,10.0,67.0,-21.0,-4.0,-991.0,2.0
-7.0,-257.0,11.0,12.0,65.0,-21.0,-4.0,-978.0,2.0
-11.0,-253.0,6.0,13.0,66.0,-21.0,-3.0,-992.0,4.0
-10.0,-256.0,12.0,16.0,64.0,-23.0,1.0,-984.0,1.0
-6.0,-255.0,10.0,18.0,63.0,-24.0,-5.0,-986.0,9.0
-10.0,-255.0,13.0,21.0,61.0,-24.0,-4.0,-999.0,8.0
-8.0,-258.0,7.0,22.0,60.0,-24.0,-4.0,-997.0,7.0
-10.0,-258.0,8.0,22.0,58.0,-24.0,-2.0,-989.0,-1.0
-9.0,-256.0,10.0,21.0,58.0,-24.0,1.0,-999.0,3.0
-9.0,-256.0,8.0,19.0,56.0,-21.0,-4.0,-1001.0,4.0
-9.0,-257.0,8.0,19.0,56.0,-21.0,-2.0,-998.0,2.0
-10.0,-254.0,8.0,20.0,56.0,-21.0,-4.0,-987.0,0.0
-7.0,-260.0,9.0,20.0,57.0,-21.0,-5.0,-983.0,6.0
-6.0,-255.0,9.0,21.0,59.0,-22.0,1.0,-993.0,1.0
-6.0,-253.0,12.0,19.0,60.0,-24.0,4.0,-986.0,5.0
-7.0,-253.0,9.0,18.0,62.0,-26.0,5.0,-985.0,6.0
-8.0,-251.0,6.0,19.0,66.0,-29.0,-1.0,-979.0,6.0
-9.0,-256.0,8.0,20.0,68.0,-30.0,5.0,-981.0,8.0
-11.0,-248.0,9.0,23.0,70.0,-30.0,1.0,-985.0,8.0
-7.0,-256.0,7.0,24.0,69.0,-31.0,4.0,-986.0,12.0
-9.0,-255.0,8.0,26.0,69.0,-32.0,4.0,-999.0,7.0
-8.0,-255.0,9.0,28.0,67.0,-32.0,4.0,-1003.0,7.0
-7.0,-258.0,8.0,29.0,66.0,-32.0,1.0,-1006.0,6.0
-10.0,-256.0,13.0,30.0,67.0,-31.0,4.0,-1002.0,8.0
-8.0,-258.0,9.0,30.0,66.0,-29.0,4.0,-1000.0,7.0
-8.0,-256.0,10.0,28.0,64.0,-28.0,2.0,-1002.0,4.0
-2.0,-256.0,11.0,26.0,64.0,-29.0,-5.0,-998.0,8.0
-10.0,-255.0,12.0,23.0,63.0,-28.0,-3.0,-995.0,7.0
-8.0,-255.0,12.0,17.0,62.0,-28.0,3.0,-993.0,10.0
-7.0,-258.0,11.0,13.0,60.0,-29.0,-2.0,-992.0,16.0
-8.0,-258.0,11.0,10.0,61.0,-29.0,-1.0,-985.0,14.0
-7.0,-255.0,10.0,6.0,59.0,-30.0,1.0,-991.0,12.0
-8.0,-254.0,11.0,6.0,59.0,-31.0,5.0,-995.0,13.0
-11.0,-255.0,13.0,7.0,59.0,-32.0,2.0,-992.0,7.0
-5.0,-257.0,8.0,11.0,60.0,-33.0,5.0,-993.0,6.0
-7.0,-253.0,8.0,16.0,62.0,-34.0,-2.0,-985.0,9.0
-9.0,-253.0,11.0,22.0,63.0,-36.0,1.0,-982.0,11.0
-5.0,-253.0,8.0,26.0,66.0,-37.0,1.0,-983.0,7.0
-6.0,-255.0,10.0,30.0,70.0,-38.0,-6.0,-984.0,11.0
-14.0,-254.0,9.0,33.0,72.0,-40.0,-2.0,-991.0,11.0
-7.0,-256.0,12.0,33.0,75.0,-41.0,1.0,-987.0,12.0
-8.0,-257.0,8.0,32.0,75.0,-39.0,2.0,-992.0,10.0
-5.0,-257.0,5.0,30.0,76.0,-38.0,4.0,-993.0,8.0
-6.0,-256.0,16.0,29.0,76.0,-36.0,11.0,-1002.0,17.0
-4.0,-258.0,10.0,29.0,73.0,-33.0,14.0,-998.0,11.0
-2.0,-257.0,9.0,30.0,73.0,-33.0,6.0,-994.0,11.0
-7.0,-253.0,9.0,31.0,69.0,-33.0,6.0,-986.0,14.0
-4.0,-256.0,6.0,33.0,69.0,-32.0,8.0,-982.0,12.0
-6.0,-253.0,7.0,34.0,66.0,-34.0,12.0,-1000.0,12.0
-3.0,-255.0,12.0,36.0,65.0,-32.0,11.0,-983.0,13.0
-5.0,-257.0,8.0,38.0,63.0,-32.0,10.0,-988.0,12.0
-5.0,-252.0,13.0,39.0,62.0,-35.0,5.0,-980.0,9.0
-3.0,-255.0,13.0,41.0,62.0,-34.0,12.0,-978.0,10.0
-3.0,-255.0,9.0,42.0,61.0,-34.0,7.0,-984.0,7.0
-6.0,-256.0,14.0,42.0,61.0,-36.0,5.0,-982.0,13.0
-5.0,-255.0,10.0,43.0,62.0,-36.0,3.0,-979.0,10.0
-1.0,-253.0,10.0,44.0,63.0,-37.0,9.0,-985.0,14.0
-7.0,-254.0,11.0,43.0,66.0,-37.0,11.0,-993.0,15.0
-4.0,-257.0,12.0,43.0,69.0,-37.0,12.0,-984.0,13.0
-3.0,-255.0,10.0,41.0,70.0,-37.0,11.0,-980.0,20.0
-6.0,-256.0,12.0,39.0,70.0,-36.0,10.0,-994.0,17.0
0.0,-258.0,19.0,37.0,71.0,-36.0,14.0,-998.0,16.0
-1.0,-254.0,9.0,34.0,72.0,-37.0,10.0,-986.0,16.0
-4.0,-256.0,12.0,30.0,72.0,-35.0,14.0,-985.0,12.0
0.0,-255.0,9.0,29.0,71.0,-35.0,10.0,-992.0,18.0
-3.0,-255.0,10.0,26.0,72.0,-34.0,11.0,-983.0,13.0
-3.0,-251.0,11.0,24.0,73.0,-34.0,14.0,-981.0,15.0
-4.0,-255.0,12.0,21.0,72.0,-33.0,19.0,-994.0,14.0
-3.0,-256.0,10.0,19.0,72.0,-29.0,12.0,-985.0,12.0
-6.0,-254.0,11.0,17.0,73.0,-29.0,13.0,-985.0,14.0
-2.0,-257.0,14.0,14.0,72.0,-26.0,14.0,-1002.0,17.0
-2.0,-256.0,14.0,15.0,71.0,-26.0,17.0,-993.0,17.0
-4.0,-255.0,11.0,15.0,70.0,-26.0,17.0,-996.0,17.0
-5.0,-258.0,10.0,17.0,68.0,-24.0,13.0,-995.0,20.0
-2.0,-255.0,12.0,19.0,67.0,-24.0,14.0,-993.0,16.0
-1.0,-258.0,12.0,19.0,64.0,-24.0,15.0,-999.0,16.0
-4.0,-258.0,13.0,20.0,63.0,-27.0,19.0,-999.0,16.0
-7.0,-257.0,11.0,17.0,63.0,-26.0,12.0,-1001.0,19.0
-1.0,-259.0,13.0,15.0,64.0,-25.0,15.0,-998.0,17.0
-3.0,-255.0,12.0,14.0,64.0,-24.0,12.0,-993.0,19.0
-1.0,-256.0,11.0,11.0,67.0,-22.0,13.0,-989.0,16.0
-2.0,-257.0,11.0,8.0,70.0,-23.0,16.0,-985.0,19.0
-5.0,-253.0,10.0,7.0,71.0,-23.0,13.0,-985.0,12.0
-3.0,-260.0,10.0,7.0,71.0,-22.0,14.0,-983.0,20.0
-5.0,-255.0,10.0,8.0,72.0,-23.0,10.0,-979.0,19.0
-3.0,-255.0,13.0,7.0,72.0,-22.0,13.0,-986.0,19.0
-3.0,-254.0,12.0,10.0,72.0,-24.0,12.0,-985.0,21.0
0.0,-256.0,15.0,13.0,75.0,-24.0,16.0,-983.0,20.0
-4.0,-255.0,14.0,14.0,75.0,-24.0,9.0,-990.0,22.0
-7.0,-255.0,14.0,15.0,75.0,-23.0,14.0,-992.0,22.0
-8.0,-251.0,16.0,16.0,75.0,-22.0,17.0,-992.0,25.0
-1.0,-256.0,16.0,16.0,74.0,-24.0,15.0,-985.0,22.0
-1.0,-258.0,12.0,18.0,74.0,-23.0,16.0,-989.0,28.0
-1.0,-257.0,14.0,18.0,74.0,-23.0,14.0,-986.0,25.0
-2.0,-254.0,17.0,19.0,72.0,-22.0,14.0,-987.0,27.0
-5.0,-253.0,16.0,19.0,73.0,-22.0,16.0,-986.0,27.0
-2.0,-254.0,12.0,22.0,73.0,-21.0,13.0,-983.0,26.0
0.0,-258.0,14.0,21.0,73.0,-19.0,19.0,-990.0,23.0
-5.0,-254.0,14.0,23.0,73.0,-20.0,17.0,-986.0,30.0
-1.0,-256.0,14.0,23.0,72.0,-19.0,12.0,-983.0,24.0
-3.0,-256.0,17.0,24.0,73.0,-20.0,21.0,-982.0,25.0
-1.0,-253.0,18.0,25.0,74.0,-20.0,12.0,-990.0,27.0
-6.0,-251.0,15.0,26.0,75.0,-17.0,18.0,-985.0,27.0
-6.0,-255.0,15.0,25.0,75.0,-18.0,12.0,-985.0,29.0
-3.0,-255.0,17.0,24.0,75.0,-17.0,9.0,-986.0,32.0
0.0,-261.0,17.0,24.0,75.0,-17.0,16.0,-995.0,35.0
-6.0,-253.0,15.0,24.0,74.0,-18.0,12.0,-986.0,30.0
-1.0,-254.0,14.0,25.0,73.0,-15.0,18.0,-994.0,26.0
-2.0,-256.0,15.0,25.0,73.0,-16.0,16.0,-999.0,29.0
-4.0,-252.0,13.0,27.0,71.0,-17.0,17.0,-993.0,28.0
-4.0,-253.0,17.0,28.0,72.0,-16.0,17.0,-983.0,27.0
-3.0,-255.0,16.0,29.0,73.0,-16.0,19.0,-1001.0,28.0
-4.0,-257.0,14.0,28.0,71.0,-17.0,18.0,-985.0,28.0
-5.0,-253.0,12.0,29.0,72.0,-17.0,18.0,-987.0,24.0
-2.0,-252.0,13.0,28.0,72.0,-17.0,17.0,-993.0,29.0
-1.0,-256.0,14.0,26.0,73.0,-17.0,19.0,-993.0,28.0
-2.0,-254.0,15.0,24.0,73.0,-16.0,21.0,-987.0,25.0
0.0,-257.0,15.0,21.0,74.0,-18.0,20.0,-992.0,25.0
-3.0,-256.0,15.0,18.0,74.0,-16.0,17.0,-986.0,21.0
0.0,-256.0,11.0,16.0,76.0,-16.0,21.0,-1001.0,22.0
-1.0,-255.0,14.0,11.0,78.0,-14.0,22.0,-984.0,29.0
-3.0,-253.0,13.0,10.0,79.0,-14.0,20.0,-998.0,24.0
0.0,-257.0,13.0,9.0,78.0,-14.0,19.0,-984.0,27.0
0.0,-255.0,16.0,8.0,77.0,-14.0,23.0,-985.0,27.0
0.0,-256.0,16.0,11.0,74.0,-15.0,29.0,-987.0,25.0
-1.0,-254.0,18.0,11.0,73.0,-13.0,28.0,-992.0,28.0
1.0,-258.0,15.0,15.0,72.0,-13.0,22.0,-1000.0,30.0
-1.0,-255.0,13.0,17.0,69.0,-13.0,25.0,-995.0,25.0
0.0,-256.0,13.0,17.0,66.0,-12.0,24.0,-984.0,26.0
-1.0,-255.0,17.0,16.0,66.0,-13.0,23.0,-983.0,28.0
-2.0,-258.0,15.0,15.0,65.0,-14.0,25.0,-989.0,25.0
0.0,-256.0,14.0,12.0,67.0,-13.0,28.0,-993.0,25.0
1.0,-257.0,16.0,10.0,67.0,-12.0,24.0,-985.0,25.0
0.0,-255.0,13.0,7.0,69.0,-12.0,26.0,-987.0,25.0
-2.0,-253.0,17.0,5.0,71.0,-10.0,20.0,-983.0,31.0
-3.0,-256.0,14.0,2.0,72.0,-9.0,25.0,-990.0,31.0
0.0,-255.0,13.0,3.0,72.0,-8.0,20.0,-982.0,32.0
1.0,-256.0,15.0,3.0,73.0,-8.0,21.0,-980.0,30.0
0.0,-253.0,14.0,4.0,73.0,-6.0,29.0,-980.0,32.0
-1.0,-252.0,17.0,6.0,72.0,-6.0,23.0,-991.0,32.0
1.0,-254.0,12.0,7.0,73.0,-4.0,23.0,-984.0,32.0
-1.0,-257.0,17.0,9.0,72.0,-3.0,22.0,-982.0,36.0
0.0,-254.0,12.0,10.0,72.0,-4.0,21.0,-981.0,28.0
-3.0,-256.0,17.0,11.0,72.0,-4.0,17.0,-980.0,29.0
0.0,-254.0,20.0,13.0,70.0,-6.0,19.0,-978.0,29.0
-1.0,-253.0,16.0,15.0,72.0,-4.0,19.0,-982.0,32.0
-2.0,-255.0,16.0,16.0,72.0,-3.0,22.0,-988.0,32.0
-2.0,-256.0,15.0,18.0,72.0,-3.0,20.0,-990.0,30.0
-1.0,-255.0,22.0,20.0,74.0,2.0,21.0,-995.0,32.0
-2.0,-256.0,16.0,21.0,75.0,5.0,21.0,-989.0,33.0
-2.0,-255.0,17.0,21.0,75.0,6.0,18.0,-997.0,37.0
-5.0,-255.0,15.0,20.0,74.0,8.0,19.0,-984.0,34.0
-5.0,-252.0,19.0,18.0,73.0,8.0,21.0,-981.0,37.0
-1.0,-255.0,17.0,13.0,71.0,9.0,16.0,-984.0,34.0
-2.0,-253.0,16.0,11.0,69.0,9.0,26.0,-982.0,37.0
0.0,-253.0,18.0,9.0,67.0,11.0,17.0,-982.0,36.0
-2.0,-251.0,15.0,8.0,68.0,10.0,17.0,-981.0,41.0
-5.0,-252.0,17.0,8.0,70.0,9.0,20.0,-982.0,33.0
-4.0,-255.0,16.0,8.0,71.0,11.0,16.0,-984.0,35.0
-1.0,-256.0,21.0,8.0,74.0,10.0,17.0,-982.0,36.0
-3.0,-255.0,17.0,11.0,76.0,12.0,19.0,-998.0,37.0
-4.0,-257.0,14.0,15.0,78.0,11.0,15.0,-1003.0,32.0
-1.0,-260.0,19.0,19.0,79.0,11.0,17.0,-1006.0,38.0
-4.0,-259.0,17.0,22.0,80.0,12.0,18.0,-1005.0,31.0
-4.0,-261.0,17.0,26.0,79.0,14.0,16.0,-1006.0,30.0
-1.0,-258.0,19.0,27.0,79.0,16.0,18.0,-998.0,32.0
-3.0,-256.0,18.0,26.0,79.0,15.0,15.0,-1003.0,28.0
-4.0,-256.0,16.0,25.0,77.0,15.0,15.0,-996.0,33.0
-3.0,-257.0,21.0,23.0,75.0,16.0,16.0,-999.0,30.0
0.0,-256.0,17.0,23.0,75.0,17.0,13.0,-986.0,30.0
4.0,-252.0,10.0,26.0,73.0,18.0,13.0,-984.0,35.0
-4.0,-252.0,19.0,28.0,72.0,17.0,17.0,-977.0,33.0
-3.0,-254.0,19.0,30.0,71.0,15.0,16.0,-976.0,33.0
-1.0,-252.0,14.0,32.0,71.0,15.0,13.0,-976.0,36.0
-4.0,-252.0,18.0,32.0,70.0,14.0,15.0,-976.0,31.0
-4.0,-252.0,18.0,34.0,69.0,13.0,18.0,-975.0,32.0
-7.0,-249.0,21.0,35.0,70.0,10.0,14.0,-977.0,36.0
-3.0,-253.0,13.0,37.0,71.0,7.0,8.0,-986.0,35.0
-5.0,-256.0,20.0,40.0,70.0,7.0,12.0,-993.0,41.0
-3.0,-256.0,21.0,40.0,69.0,6.0,13.0,-993.0,40.0
-6.0,-259.0,16.0,39.0,70.0,8.0,13.0,-994.0,38.0
-2.0,-258.0,16.0,37.0,69.0,8.0,14.0,-1000.0,36.0
-6.0,-256.0,17.0,38.0,71.0,11.0,15.0,-1001.0,39.0
-4.0,-256.0,21.0,38.0,71.0,13.0,17.0,-999.0,39.0
-2.0,-256.0,20.0,41.0,73.0,15.0,16.0,-990.0,42.0
-5.0,-254.0,19.0,41.0,72.0,16.0,16.0,-985.0,40.0
-1.0,-252.0,19.0,41.0,71.0,16.0,17.0,-984.0,40.0
-2.0,-254.0,20.0,38.0,70.0,17.0,19.0,-990.0,44.0
-1.0,-253.0,18.0,38.0,70.0,17.0,14.0,-979.0,44.0
-6.0,-250.0,18.0,38.0,71.0,19.0,16.0,-978.0,42.0
-1.0,-253.0,23.0,37.0,71.0,19.0,14.0,-977.0,46.0
-6.0,-254.0,20.0,37.0,69.0,20.0,13.0,-975.0,48.0
-6.0,-257.0,21.0,37.0,70.0,20.0,14.0,-978.0,48.0
-4.0,-251.0,19.0,36.0,68.0,19.0,14.0,-980.0,42.0
-2.0,-254.0,18.0,33.0,67.0,20.0,15.0,-975.0,45.0
-6.0,-256.0,15.0,32.0,68.0,20.0,9.0,-981.0,40.0
-4.0,-253.0,23.0,33.0,69.0,20.0,9.0,-980.0,42.0
-5.0,-252.0,22.0,33.0,68.0,21.0,11.0,-983.0,47.0
-4.0,-256.0,20.0,31.0,69.0,20.0,11.0,-984.0,44.0
-5.0,-255.0,19.0,30.0,70.0,20.0,14.0,-993.0,41.0
-3.0,-252.0,16.0,27.0,69.0,22.0,13.0,-978.0,43.0
-6.0,-255.0,20.0,26.0,70.0,22.0,14.0,-984.0,41.0
-8.0,-254.0,18.0,27.0,70.0,22.0,11.0,-984.0,41.0
-4.0,-258.0,21.0,26.0,69.0,22.0,15.0,-981.0,43.0
-3.0,-257.0,18.0,27.0,68.0,22.0,9.0,-985.0,41.0
-5.0,-253.0,20.0,25.0,69.0,21.0,11.0,-985.0,44.0
-7.0,-253.0,17.0,24.0,68.0,22.0,9.0,-981.0,44.0
-3.0,-254.0,20.0,25.0,69.0,20.0,11.0,-985.0,42.0
-3.0,-255.0,19.0,23.0,68.0,21.0,10.0,-986.0,44.0
-2.0,-257.0,18.0,20.0,69.0,21.0,8.0,-981.0,47.0
-7.0,-255.0,22.0,19.0,70.0,21.0,14.0,-986.0,47.0
-4.0,-256.0,20.0,18.0,70.0,23.0,5.0,-993.0,48.0
-3.0,-253.0,21.0,17.0,71.0,23.0,11.0,-997.0,44.0
-3.0,-254.0,24.0,18.0,68.0,23.0,11.0,-993.0,45.0
-5.0,-255.0,20.0,19.0,67.0,22.0,9.0,-986.0,45.0
-5.0,-256.0,18.0,18.0,67.0,22.0,9.0,-984.0,44.0
-7.0,-256.0,21.0,18.0,65.0,20.0,13.0,-994.0,43.0
-7.0,-254.0,23.0,20.0,66.0,21.0,10.0,-990.0,43.0
-4.0,-258.0,21.0,22.0,66.0,20.0,10.0,-984.0,40.0
-3.0,-256.0,21.0,25.0,66.0,19.0,8.0,-999.0,45.0
-5.0,-255.0,23.0,28.0,67.0,20.0,16.0,-993.0,44.0
-6.0,-258.0,20.0,31.0,69.0,21.0,13.0,-993.0,44.0
-5.0,-253.0,20.0,34.0,69.0,20.0,10.0,-985.0,48.0
-3.0,-254.0,23.0,37.0,69.0,19.0,8.0,-981.0,48.0
-5.0,-255.0,16.0,37.0,67.0,17.0,8.0,-983.0,49.0
-5.0,-253.0,21.0,38.0,67.0,16.0,3.0,-982.0,49.0
-2.0,-256.0,25.0,37.0,68.0,14.0,11.0,-984.0,46.0
-8.0,-253.0,23.0,36.0,68.0,13.0,2.0,-982.0,51.0
-8.0,-252.0,21.0,35.0,68.0,12.0,12.0,-984.0,51.0
-5.0,-255.0,20.0,33.0,69.0,11.0,10.0,-992.0,51.0
-5.0,-254.0,23.0,31.0,69.0,10.0,12.0,-982.0,50.0
-8.0,-254.0,17.0,30.0,69.0,11.0,9.0,-983.0,55.0
-5.0,-255.0,24.0,31.0,72.0,10.0,12.0,-984.0,51.0
-7.0,-252.0,23.0,31.0,72.0,10.0,11.0,-981.0,50.0
-3.0,-257.0,20.0,34.0,71.0,10.0,12.0,-984.0,49.0
-2.0,-255.0,14.0,36.0,71.0,10.0,12.0,-992.0,52.0
-3.0,-253.0,21.0,40.0,71.0,11.0,13.0,-989.0,50.0
-4.0,-258.0,21.0,43.0,68.0,11.0,13.0,-986.0,49.0
-5.0,-253.0,20.0,45.0,68.0,11.0,14.0,-988.0,54.0
-1.0,-255.0,25.0,46.0,65.0,13.0,12.0,-997.0,58.0
-5.0,-256.0,20.0,47.0,64.0,12.0,13.0,-982.0,58.0
-4.0,-253.0,22.0,47.0,62.0,11.0,16.0,-993.0,52.0
-8.0,-254.0,22.0,46.0,62.0,10.0,10.0,-984.0,55.0
-4.0,-256.0,26.0,47.0,60.0,10.0,13.0,-986.0,58.0
-3.0,-254.0,22.0,48.0,62.0,10.0,9.0,-985.0,54.0
-5.0,-254.0,23.0,48.0,64.0,8.0,8.0,-983.0,55.0
-4.0,-253.0,23.0,47.0,67.0,8.0,13.0,-977.0,55.0
-6.0,-252.0,27.0,46.0,70.0,7.0,10.0,-977.0,58.0
-6.0,-252.0,28.0,43.0,72.0,8.0,10.0,-979.0,54.0
-3.0,-252.0,26.0,40.0,74.0,8.0,10.0,-975.0,55.0
-4.0,-254.0,23.0,37.0,75.0,9.0,12.0,-976.0,58.0
-2.0,-255.0,21.0,34.0,75.0,8.0,12.0,-984.0,53.0
-7.0,-254.0,24.0,32.0,75.0,10.0,8.0,-978.0,58.0
-5.0,-254.0,24.0,34.0,75.0,9.0,11.0,-986.0,54.0
-10.0,-254.0,22.0,35.0,74.0,8.0,10.0,-992.0,61.0
-6.0,-256.0,21.0,37.0,74.0,7.0,6.0,-992.0,62.0
-4.0,-256.0,25.0,41.0,73.0,6.0,1.0,-993.0,58.0
-4.0,-255.0,27.0,45.0,73.0,7.0,11.0,-986.0,59.0
-5.0,-255.0,22.0,49.0,72.0,6.0,5.0,-988.0,60.0
-7.0,-256.0,26.0,51.0,72.0,4.0,7.0,-984.0,58.0
-4.0,-258.0,23.0,53.0,72.0,7.0,7.0,-985.0,63.0
-4.0,-254.0,24.0,52.0,72.0,6.0,9.0,-981.0,58.0
-6.0,-251.0,26.0,51.0,73.0,7.0,7.0,-982.0,61.0
-8.0,-252.0,27.0,48.0,75.0,8.0,7.0,-984.0,64.0
-5.0,-252.0,26.0,47.0,77.0,10.0,7.0,-979.0,57.0
-5.0,-250.0,22.0,46.0,77.0,9.0,2.0,-978.0,60.0
-4.0,-253.0,25.0,45.0,78.0,10.0,10.0,-979.0,61.0
-6.0,-251.0,25.0,44.0,78.0,11.0,9.0,-980.0,67.0
-5.0,-253.0,26.0,45.0,79.0,11.0,4.0,-978.0,65.0
-7.0,-257.0,25.0,46.0,80.0,9.0,8.0,-978.0,62.0
-8.0,-252.0,28.0,46.0,77.0,9.0,7.0,-982.0,61.0
-10.0,-254.0,25.0,48.0,77.0,8.0,3.0,-980.0,65.0
-6.0,-254.0,26.0,49.0,76.0,8.0,2.0,-984.0,67.0
-7.0,-252.0,27.0,47.0,78.0,7.0,1.0,-982.0,64.0
-6.0,-256.0,26.0,47.0,79.0,6.0,4.0,-981.0,63.0
-4.0,-253.0,26.0,44.0,78.0,5.0,5.0,-979.0,68.0
-8.0,-254.0,23.0,42.0,79.0,5.0,2.0,-989.0,62.0
-8.0,-252.0,25.0,41.0,79.0,7.0,-2.0,-982.0,65.0
-5.0,-252.0,26.0,40.0,79.0,7.0,-2.0,-981.0,66.0
-5.0,-259.0,20.0,39.0,80.0,7.0,5.0,-981.0,70.0
-7.0,-256.0,27.0,38.0,81.0,7.0,5.0,-979.0,64.0
-7.0,-255.0,25.0,38.0,79.0,8.0,5.0,-980.0,62.0
-8.0,-255.0,26.0,36.0,78.0,6.0,2.0,-980.0,67.0
-11.0,-255.0,27.0,37.0,78.0,6.0,5.0,-984.0,64.0
-4.0,-255.0,25.0,36.0,76.0,6.0,-2.0,-998.0,62.0
-7.0,-255.0,28.0,36.0,77.0,7.0,0.0,-987.0,66.0
-4.0,-252.0,27.0,35.0,75.0,5.0,1.0,-982.0,62.0
-10.0,-254.0,25.0,34.0,76.0,4.0,-2.0,-975.0,62.0
-9.0,-253.0,24.0,32.0,76.0,3.0,2.0,-982.0,64.0
-5.0,-251.0,28.0,31.0,77.0,1.0,2.0,-978.0,63.0
-8.0,-253.0,28.0,30.0,78.0,1.0,-1.0,-978.0,64.0
-9.0,-253.0,25.0,31.0,79.0,-2.0,-5.0,-978.0,68.0
-5.0,-253.0,26.0,29.0,79.0,-2.0,-5.0,-987.0,67.0
-9.0,-255.0,29.0,29.0,78.0,-3.0,-4.0,-979.0,64.0
-9.0,-254.0,25.0,29.0,77.0,-4.0,-3.0,-993.0,68.0
-9.0,-254.0,28.0,29.0,75.0,-4.0,-4.0,-999.0,67.0
-9.0,-259.0,29.0,31.0,75.0,-5.0,-3.0,-991.0,69.0
-6.0,-257.0,28.0,33.0,77.0,-4.0,-3.0,-991.0,69.0
-9.0,-257.0,28.0,34.0,78.0,-4.0,-1.0,-986.0,73.0
-6.0,-258.0,27.0,35.0,78.0,-2.0,-1.0,-982.0,70.0
-9.0,-257.0,29.0,34.0,79.0,0.0,-6.0,-986.0,65.0
-7.0,-252.0,28.0,32.0,77.0,0.0,-5.0,-978.0,69.0
-8.0,-254.0,28.0,31.0,77.0,0.0,-4.0,-976.0,71.0
-8.0,-253.0,25.0,28.0,75.0,-1.0,2.0,-971.0,70.0
-7.0,-249.0,27.0,26.0,74.0,-2.0,4.0,-969.0,71.0
-9.0,-250.0,25.0,22.0,73.0,-2.0,-2.0,-972.0,75.0
-7.0,-252.0,27.0,20.0,73.0,-3.0,1.0,-971.0,75.0
-10.0,-251.0,27.0,20.0,72.0,-3.0,1.0,-978.0,72.0
-6.0,-255.0,33.0,20.0,72.0,-5.0,1.0,-981.0,76.0
-5.0,-254.0,30.0,20.0,72.0,-4.0,0.0,-983.0,78.0
-5.0,-257.0,30.0,21.0,71.0,-3.0,-5.0,-993.0,79.0
-8.0,-255.0,28.0,21.0,71.0,-3.0,1.0,-997.0,73.0
-7.0,-256.0,27.0,22.0,70.0,-4.0,0.0,-992.0,74.0
-8.0,-256.0,30.0,23.0,71.0,-4.0,-1.0,-1004.0,73.0
-9.0,-255.0,28.0,23.0,71.0,-7.0,2.0,-994.0,73.0
-10.0,-256.0,28.0,23.0,70.0,-7.0,8.0,-994.0,76.0
-8.0,-256.0,28.0,20.0,70.0,-7.0,0.0,-983.0,80.0
-3.0,-255.0,31.0,21.0,70.0,-7.0,1.0,-984.0,76.0
-6.0,-256.0,27.0,20.0,69.0,-7.0,4.0,-988.0,77.0
-5.0,-252.0,29.0,23.0,67.0,-9.0,6.0,-983.0,75.0
-7.0,-254.0,34.0,25.0,69.0,-8.0,1.0,-974.0,79.0
-8.0,-254.0,32.0,28.0,71.0,-9.0,8.0,-974.0,80.0
-9.0,-249.0,32.0,31.0,70.0,-9.0,2.0,-971.0,80.0
-4.0,-253.0,31.0,33.0,71.0,-8.0,3.0,-969.0,81.0
-6.0,-251.0,29.0,36.0,70.0,-10.0,7.0,-971.0,80.0
-7.0,-250.0,28.0,34.0,66.0,-11.0,-3.0,-970.0,85.0
-6.0,-250.0,33.0,32.0,65.0,-13.0,7.0,-972.0,80.0
-5.0,-254.0,31.0,27.0,63.0,-14.0,1.0,-981.0,81.0
-7.0,-252.0,30.0,22.0,59.0,-14.0,2.0,-980.0,81.0
-6.0,-256.0,29.0,16.0,58.0,-13.0,6.0,-975.0,79.0
-7.0,-255.0,29.0,11.0,56.0,-12.0,4.0,-979.0,80.0
-5.0,-254.0,29.0,7.0,56.0,-14.0,4.0,-982.0,82.0
-8.0,-255.0,30.0,4.0,56.0,-14.0,5.0,-983.0,79.0
-6.0,-255.0,32.0,4.0,56.0,-12.0,1.0,-985.0,81.0
-5.0,-256.0,30.0,3.0,57.0,-13.0,3.0,-984.0,82.0
-8.0,-254.0,27.0,3.0,59.0,-12.0,5.0,-980.0,79.0
-6.0,-251.0,35.0,3.0,59.0,-12.0,9.0,-984.0,74.0
-3.0,-254.0,30.0,2.0,60.0,-10.0,12.0,-976.0,79.0
-4.0,-253.0,26.0,1.0,60.0,-8.0,7.0,-977.0,74.0
-6.0,-254.0,30.0,1.0,61.0,-10.0,12.0,-978.0,79.0
-5.0,-254.0,32.0,-1.0,58.0,-9.0,9.0,-977.0,78.0
-6.0,-252.0,28.0,-2.0,55.0,-12.0,7.0,-978.0,77.0
-3.0,-254.0,27.0,-3.0,53.0,-13.0,8.0,-979.0,82.0
-2.0,-252.0,30.0,-3.0,51.0,-14.0,8.0,-977.0,73.0
-3.0,-250.0,29.0,-4.0,51.0,-14.0,11.0,-981.0,78.0
-7.0,-254.0,26.0,-7.0,49.0,-16.0,5.0,-974.0,76.0
-5.0,-256.0,29.0,-10.0,51.0,-17.0,8.0,-978.0,74.0
-2.0,-256.0,30.0,-16.0,52.0,-17.0,10.0,-981.0,75.0
-8.0,-251.0,25.0,-21.0,55.0,-17.0,10.0,-980.0,73.0
-7.0,-253.0,25.0,-26.0,57.0,-14.0,10.0,-976.0,77.0
-7.0,-254.0,24.0,-32.0,58.0,-15.0,7.0,-974.0,77.0
-4.0,-254.0,30.0,-37.0,58.0,-15.0,7.0,-975.0,74.0
-3.0,-251.0,32.0,-41.0,57.0,-16.0,9.0,-969.0,73.0
-6.0,-252.0,26.0,-45.0,56.0,-17.0,3.0,-976.0,68.0
-4.0,-251.0,23.0,-47.0,53.0,-17.0,7.0,-977.0,74.0
-2.0,-251.0,30.0,-51.0,50.0,-20.0,8.0,-976.0,74.0
-7.0,-254.0,30.0,-54.0,46.0,-22.0,5.0,-977.0,75.0
-8.0,-252.0,28.0,-57.0,45.0,-21.0,8.0,-979.0,75.0
-4.0,-253.0,26.0,-59.0,45.0,-20.0,7.0,-978.0,77.0
-7.0,-255.0,29.0,-64.0,43.0,-17.0,6.0,-988.0,78.0
-4.0,-257.0,29.0,-68.0,44.0,-16.0,9.0,-993.0,80.0
-5.0,-256.0,29.0,-69.0,44.0,-14.0,10.0,-1004.0,78.0
-6.0,-257.0,30.0,-70.0,46.0,-14.0,7.0,-997.0,76.0
-6.0,-257.0,30.0,-70.0,44.0,-14.0,2.0,-994.0,79.0
-4.0,-253.0,32.0,-71.0,44.0,-14.0,6.0,-987.0,78.0
-5.0,-257.0,24.0,-72.0,43.0,-16.0,8.0,-981.0,79.0
-4.0,-251.0,27.0,-72.0,46.0,-17.0,5.0,-980.0,71.0
-7.0,-254.0,29.0,-72.0,47.0,-19.0,8.0,-981.0,72.0
-4.0,-254.0,29.0,-72.0,50.0,-19.0,9.0,-977.0,72.0
-5.0,-253.0,24.0,-70.0,50.0,-19.0,8.0,-975.0,79.0
-6.0,-252.0,26.0,-69.0,53.0,-18.0,6.0,-974.0,76.0
-8.0,-253.0,31.0,-69.0,55.0,-21.0,8.0,-979.0,79.0
-3.0,-255.0,32.0,-70.0,56.0,-21.0,4.0,-974.0,78.0
-7.0,-255.0,28.0,-70.0,57.0,-21.0,9.0,-979.0,80.0
-6.0,-253.0,31.0,-73.0,58.0,-23.0,4.0,-978.0,78.0
-9.0,-254.0,29.0,-75.0,57.0,-24.0,1.0,-981.0,76.0
-6.0,-254.0,28.0,-78.0,57.0,-26.0,7.0,-992.0,74.0
-5.0,-255.0,28.0,-80.0,56.0,-30.0,6.0,-981.0,80.0
-7.0,-255.0,28.0,-80.0,56.0,-30.0,-3.0,-991.0,75.0
-9.0,-255.0,27.0,-80.0,54.0,-33.0,0.0,-982.0,74.0
-4.0,-255.0,31.0,-78.0,54.0,-32.0,6.0,-991.0,75.0
-3.0,-256.0,28.0,-75.0,51.0,-31.0,4.0,-980.0,74.0
-6.0,-256.0,28.0,-72.0,50.0,-32.0,3.0,-980.0,72.0
-5.0,-256.0,30.0,-71.0,49.0,-32.0,4.0,-986.0,70.0
-7.0,-252.0,26.0,-70.0,48.0,-32.0,2.0,-976.0,74.0
-8.0,-255.0,27.0,-70.0,48.0,-32.0,4.0,-977.0,73.0
-8.0,-251.0,27.0,-70.0,46.0,-34.0,8.0,-980.0,68.0
-6.0,-252.0,26.0,-69.0,46.0,-35.0,0.0,-973.0,68.0
-3.0,-252.0,21.0,-71.0,47.0,-36.0,-2.0,-982.0,70.0
-5.0,-255.0,26.0,-72.0,48.0,-37.0,2.0,-979.0,70.0
-9.0,-253.0,23.0,-70.0,51.0,-38.0,7.0,-980.0,65.0
-4.0,-257.0,27.0,-69.0,55.0,-40.0,6.0,-974.0,71.0
-7.0,-251.0,26.0,-68.0,57.0,-41.0,1.0,-978.0,62.0
-9.0,-253.0,25.0,-67.0,61.0,-42.0,4.0,-978.0,66.0
-5.0,-252.0,24.0,-65.0,63.0,-45.0,6.0,-984.0,64.0
-8.0,-255.0,24.0,-64.0,64.0,-47.0,5.0,-975.0,65.0
-5.0,-254.0,27.0,-64.0,66.0,-47.0,10.0,-986.0,62.0
-7.0,-254.0,25.0,-63.0,67.0,-49.0,8.0,-978.0,63.0
-7.0,-252.0,27.0,-64.0,68.0,-49.0,4.0,-977.0,60.0
-4.0,-257.0,26.0,-64.0,69.0,-50.0,9.0,-987.0,63.0
-7.0,-254.0,25.0,-66.0,70.0,-50.0,9.0,-998.0,61.0
-7.0,-254.0,25.0,-66.0,71.0,-50.0,12.0,-997.0,56.0
-5.0,-254.0,26.0,-67.0,70.0,-51.0,12.0,-990.0,58.0
-8.0,-255.0,22.0,-67.0,70.0,-51.0,13.0,-988.0,59.0
-6.0,-254.0,23.0,-65.0,69.0,-52.0,9.0,-989.0,57.0
-5.0,-256.0,25.0,-64.0,66.0,-54.0,12.0,-993.0,59.0
-4.0,-256.0,19.0,-61.0,65.0,-57.0,9.0,-984.0,56.0
-1.0,-257.0,24.0,-57.0,65.0,-59.0,15.0,-983.0,57.0
-4.0,-256.0,26.0,-57.0,64.0,-60.0,16.0,-984.0,53.0
-4.0,-257.0,17.0,-57.0,63.0,-62.0,16.0,-980.0,55.0
-5.0,-257.0,23.0,-58.0,61.0,-65.0,17.0,-983.0,55.0
-3.0,-253.0,24.0,-57.0,61.0,-66.0,18.0,-981.0,55.0
-2.0,-256.0,26.0,-59.0,62.0,-68.0,12.0,-981.0,53.0
-3.0,-253.0,21.0,-60.0,59.0,-68.0,16.0,-981.0,58.0
-1.0,-256.0,24.0,-62.0,59.0,-71.0,19.0,-980.0,55.0
0.0,-257.0,22.0,-63.0,60.0,-72.0,21.0,-985.0,54.0
-3.0,-252.0,17.0,-65.0,60.0,-73.0,22.0,-985.0,54.0
-2.0,-255.0,21.0,-68.0,58.0,-76.0,23.0,-986.0,51.0
-2.0,-254.0,22.0,-68.0,59.0,-78.0,26.0,-981.0,55.0
-1.0,-253.0,24.0,-68.0,59.0,-80.0,25.0,-984.0,56.0
0.0,-255.0,20.0,-65.0,57.0,-81.0,26.0,-980.0,56.0
0.0,-254.0,23.0,-62.0,56.0,-82.0,22.0,-977.0,59.0
-2.0,-254.0,22.0,-56.0,57.0,-83.0,28.0,-981.0,56.0
0.0,-253.0,23.0,-52.0,54.0,-83.0,26.0,-985.0,55.0
0.0,-252.0,19.0,-49.0,54.0,-85.0,30.0,-980.0,55.0
0.0,-254.0,24.0,-48.0,54.0,-86.0,28.0,-978.0,53.0
0.0,-252.0,21.0,-48.0,54.0,-87.0,27.0,-977.0,54.0
0.0,-252.0,25.0,-49.0,54.0,-87.0,29.0,-980.0,57.0
1.0,-255.0,22.0,-50.0,56.0,-87.0,32.0,-977.0,53.0
1.0,-250.0,19.0,-50.0,56.0,-89.0,27.0,-972.0,56.0
0.0,-255.0,22.0,-51.0,56.0,-88.0,33.0,-976.0,54.0
1.0,-255.0,20.0,-55.0,56.0,-88.0,35.0,-973.0,55.0
0.0,-250.0,22.0,-54.0,56.0,-91.0,31.0,-975.0,53.0
2.0,-251.0,16.0,-56.0,56.0,-91.0,34.0,-975.0,56.0
2.0,-254.0,23.0,-57.0,56.0,-93.0,32.0,-991.0,55.0
1.0,-256.0,27.0,-60.0,55.0,-94.0,32.0,-983.0,50.0
2.0,-256.0,23.0,-62.0,57.0,-95.0,29.0,-980.0,54.0
1.0,-256.0,25.0,-63.0,56.0,-94.0,30.0,-984.0,55.0
1.0,-256.0,21.0,-65.0,57.0,-93.0,35.0,-986.0,55.0
-1.0,-253.0,24.0,-68.0,59.0,-92.0,29.0,-994.0,52.0
3.0,-253.0,22.0,-69.0,60.0,-94.0,29.0,-993.0,50.0
0.0,-257.0,21.0,-68.0,61.0,-96.0,32.0,-992.0,47.0
1.0,-257.0,20.0,-66.0,64.0,-98.0,35.0,-988.0,47.0
1.0,-255.0,23.0,-63.0,66.0,-101.0,34.0,-984.0,50.0
1.0,-256.0,22.0,-58.0,65.0,-101.0,35.0,-983.0,44.0
1.0,-254.0,21.0,-52.0,65.0,-100.0,34.0,-981.0,51.0
1.0,-255.0,20.0,-46.0,66.0,-104.0,36.0,-982.0,46.0
0.0,-252.0,22.0,-42.0,65.0,-107.0,37.0,-983.0,45.0
0.0,-255.0,20.0,-37.0,63.0,-108.0,42.0,-977.0,49.0
1.0,-253.0,18.0,-36.0,61.0,-112.0,38.0,-985.0,44.0
0.0,-253.0,21.0,-35.0,61.0,-112.0,40.0,-984.0,44.0
2.0,-255.0,18.0,-36.0,60.0,-115.0,42.0,-982.0,48.0
2.0,-255.0,22.0,-36.0,59.0,-118.0,39.0,-986.0,47.0
6.0,-255.0,24.0,-37.0,58.0,-120.0,41.0,-986.0,46.0
4.0,-257.0,22.0,-37.0,59.0,-121.0,41.0,-992.0,46.0
2.0,-255.0,17.0,-39.0,61.0,-123.0,37.0,-987.0,54.0
0.0,-258.0,20.0,-42.0,62.0,-124.0,39.0,-1001.0,55.0
6.0,-256.0,20.0,-42.0,61.0,-125.0,40.0,-986.0,49.0
3.0,-255.0,25.0,-41.0,62.0,-126.0,43.0,-986.0,43.0
2.0,-254.0,18.0,-41.0,60.0,-127.0,45.0,-984.0,45.0
0.0,-256.0,23.0,-40.0,61.0,-126.0,42.0,-994.0,50.0
4.0,-255.0,18.0,-35.0,63.0,-130.0,46.0,-993.0,44.0
1.0,-255.0,21.0,-31.0,65.0,-131.0,49.0,-982.0,44.0
4.0,-254.0,21.0,-28.0,68.0,-132.0,48.0,-981.0,41.0
4.0,-252.0,23.0,-26.0,71.0,-134.0,51.0,-978.0,44.0
5.0,-252.0,18.0,-23.0,77.0,-133.0,53.0,-974.0,44.0
4.0,-252.0,18.0,-21.0,81.0,-135.0,55.0,-980.0,41.0
8.0,-254.0,22.0,-19.0,84.0,-136.0,53.0,-977.0,42.0
8.0,-255.0,20.0,-17.0,87.0,-135.0,56.0,-979.0,43.0
7.0,-255.0,21.0,-15.0,88.0,-136.0,59.0,-984.0,43.0
6.0,-258.0,20.0,-16.0,90.0,-138.0,61.0,-986.0,44.0
5.0,-255.0,18.0,-17.0,90.0,-138.0,57.0,-987.0,46.0
7.0,-249.0,20.0,-21.0,87.0,-138.0,58.0,-980.0,41.0
6.0,-258.0,21.0,-29.0,88.0,-133.0,61.0,-980.0,43.0
5.0,-259.0,23.0,-37.0,85.0,-133.0,54.0,-998.0,51.0
9.0,-249.0,17.0,-40.0,80.0,-138.0,55.0,-1005.0,47.0
5.0,-260.0,21.0,-41.0,77.0,-144.0,51.0,-1003.0,47.0
5.0,-257.0,20.0,-40.0,75.0,-147.0,50.0,-1010.0,45.0
6.0,-259.0,19.0,-39.0,75.0,-148.0,53.0,-1003.0,42.0
4.0,-257.0,17.0,-36.0,77.0,-151.0,55.0,-999.0,44.0
4.0,-257.0,20.0,-30.0,77.0,-156.0,53.0,-999.0,44.0
5.0,-257.0,18.0,-24.0,80.0,-159.0,53.0,-1005.0,42.0
3.0,-256.0,19.0,-17.0,84.0,-163.0,51.0,-993.0,43.0
3.0,-255.0,17.0,-11.0,89.0,-162.0,54.0,-991.0,43.0
9.0,-256.0,21.0,-8.0,92.0,-165.0,52.0,-985.0,44.0
6.0,-253.0,22.0,-8.0,95.0,-167.0,53.0,-984.0,42.0
5.0,-256.0,23.0,-8.0,95.0,-170.0,54.0,-977.0,45.0
8.0,-253.0,19.0,-10.0,95.0,-174.0,60.0,-977.0,52.0
7.0,-254.0,19.0,-11.0,93.0,-174.0,61.0,-974.0,48.0
8.0,-252.0,21.0,-16.0,93.0,-175.0,65.0,-980.0,44.0
9.0,-254.0,18.0,-16.0,90.0,-176.0,60.0,-980.0,48.0
9.0,-257.0,24.0,-17.0,86.0,-177.0,67.0,-976.0,51.0
6.0,-254.0,22.0,-15.0,82.0,-181.0,62.0,-977.0,52.0
7.0,-251.0,26.0,-14.0,80.0,-182.0,64.0,-980.0,46.0
7.0,-255.0,22.0,-14.0,79.0,-181.0,56.0,-980.0,52.0
8.0,-254.0,22.0,-16.0,77.0,-184.0,58.0,-980.0,45.0
9.0,-249.0,31.0,-17.0,79.0,-184.0,61.0,-976.0,45.0
6.0,-253.0,18.0,-21.0,81.0,-186.0,57.0,-977.0,46.0
8.0,-254.0,20.0,-26.0,81.0,-189.0,67.0,-966.0,47.0
11.0,-251.0,21.0,-31.0,78.0,-192.0,67.0,-969.0,47.0
8.0,-252.0,21.0,-33.0,74.0,-194.0,63.0,-966.0,48.0
7.0,-251.0,21.0,-32.0,68.0,-196.0,74.0,-969.0,49.0
8.0,-252.0,19.0,-30.0,62.0,-196.0,75.0,-965.0,46.0
8.0,-250.0,18.0,-28.0,56.0,-200.0,72.0,-969.0,44.0
6.0,-249.0,17.0,-25.0,53.0,-203.0,79.0,-965.0,46.0
10.0,-252.0,22.0,-27.0,54.0,-206.0,74.0,-972.0,39.0
13.0,-252.0,21.0,-29.0,58.0,-208.0,74.0,-973.0,43.0
11.0,-254.0,20.0,-34.0,66.0,-209.0,78.0,-975.0,38.0
10.0,-251.0,17.0,-39.0,73.0,-210.0,78.0,-977.0,38.0
9.0,-254.0,20.0,-45.0,78.0,-211.0,79.0,-986.0,37.0
9.0,-255.0,16.0,-49.0,80.0,-211.0,85.0,-992.0,36.0
14.0,-258.0,16.0,-51.0,81.0,-214.0,89.0,-998.0,34.0
14.0,-256.0,19.0,-52.0,80.0,-218.0,89.0,-986.0,35.0
15.0,-256.0,17.0,-50.0,79.0,-219.0,92.0,-998.0,40.0
14.0,-257.0,16.0,-47.0,79.0,-218.0,91.0,-989.0,36.0
14.0,-258.0,18.0,-41.0,77.0,-221.0,95.0,-995.0,42.0
15.0,-256.0,20.0,-35.0,76.0,-221.0,94.0,-987.0,38.0
16.0,-257.0,14.0,-29.0,75.0,-218.0,94.0,-987.0,39.0
21.0,-256.0,16.0,-24.0,74.0,-216.0,95.0,-1001.0,46.0
15.0,-252.0,17.0,-20.0,71.0,-217.0,99.0,-982.0,45.0
16.0,-256.0,20.0,-19.0,67.0,-217.0,103.0,-978.0,41.0
17.0,-255.0,20.0,-18.0,61.0,-215.0,107.0,-980.0,46.0
20.0,-252.0,17.0,-15.0,55.0,-215.0,105.0,-983.0,37.0
19.0,-256.0,18.0,-14.0,45.0,-217.0,112.0,-978.0,38.0
17.0,-250.0,19.0,-13.0,38.0,-216.0,110.0,-978.0,36.0
19.0,-253.0,13.0,-12.0,32.0,-218.0,106.0,-981.0,38.0
20.0,-256.0,17.0,-9.0,27.0,-221.0,103.0,-981.0,36.0
18.0,-252.0,21.0,-8.0,26.0,-221.0,110.0,-980.0,34.0
20.0,-251.0,15.0,-5.0,28.0,-220.0,108.0,-979.0,34.0
19.0,-256.0,15.0,-4.0,32.0,-219.0,111.0,-973.0,36.0
21.0,-255.0,16.0,-2.0,38.0,-219.0,109.0,-984.0,40.0
16.0,-253.0,17.0,-1.0,40.0,-227.0,110.0,-978.0,41.0
20.0,-253.0,15.0,2.0,40.0,-233.0,111.0,-977.0,40.0
20.0,-254.0,17.0,4.0,42.0,-237.0,111.0,-980.0,38.0
21.0,-253.0,15.0,5.0,43.0,-243.0,116.0,-979.0,37.0
25.0,-255.0,16.0,5.0,45.0,-244.0,117.0,-974.0,37.0
21.0,-257.0,17.0,3.0,47.0,-242.0,116.0,-978.0,39.0
23.0,-256.0,19.0,-2.0,50.0,-244.0,125.0,-983.0,32.0
25.0,-255.0,22.0,-4.0,49.0,-246.0,133.0,-990.0,34.0
22.0,-253.0,18.0,-6.0,49.0,-252.0,125.0,-983.0,35.0
18.0,-252.0,9.0,-9.0,49.0,-256.0,127.0,-983.0,32.0
23.0,-256.0,15.0,-9.0,48.0,-258.0,124.0,-981.0,32.0
25.0,-256.0,17.0,-7.0,49.0,-262.0,126.0,-983.0,25.0
24.0,-254.0,15.0,-4.0,49.0,-263.0,124.0,-984.0,33.0
22.0,-252.0,20.0,3.0,50.0,-265.0,126.0,-975.0,37.0
27.0,-256.0,19.0,12.0,49.0,-265.0,129.0,-972.0,37.0
22.0,-251.0,16.0,20.0,50.0,-265.0,131.0,-967.0,41.0
26.0,-252.0,25.0,30.0,46.0,-268.0,132.0,-966.0,39.0
27.0,-253.0,18.0,38.0,40.0,-272.0,139.0,-966.0,42.0
28.0,-253.0,18.0,43.0,37.0,-271.0,142.0,-969.0,43.0
28.0,-251.0,20.0,49.0,34.0,-271.0,144.0,-970.0,44.0
28.0,-253.0,18.0,53.0,33.0,-273.0,145.0,-973.0,39.0
29.0,-257.0,17.0,56.0,31.0,-273.0,148.0,-977.0,37.0
27.0,-256.0,19.0,58.0,31.0,-274.0,138.0,-971.0,40.0
29.0,-254.0,17.0,60.0,34.0,-276.0,145.0,-977.0,42.0
28.0,-252.0,19.0,61.0,38.0,-275.0,147.0,-972.0,42.0
29.0,-253.0,18.0,64.0,40.0,-273.0,147.0,-978.0,43.0
26.0,-251.0,19.0,66.0,42.0,-269.0,146.0,-973.0,45.0
28.0,-252.0,19.0,69.0,46.0,-266.0,153.0,-969.0,41.0
31.0,-252.0,18.0,69.0,48.0,-263.0,157.0,-973.0,42.0
30.0,-254.0,21.0,70.0,48.0,-261.0,162.0,-971.0,48.0
33.0,-253.0,22.0,70.0,46.0,-259.0,163.0,-971.0,53.0
36.0,-247.0,13.0,71.0,46.0,-259.0,160.0,-970.0,50.0
34.0,-254.0,21.0,73.0,44.0,-260.0,165.0,-972.0,52.0
31.0,-251.0,21.0,73.0,42.0,-259.0,165.0,-971.0,55.0
36.0,-251.0,18.0,74.0,41.0,-258.0,166.0,-969.0,53.0
36.0,-251.0,19.0,75.0,39.0,-259.0,169.0,-963.0,53.0
35.0,-253.0,27.0,78.0,39.0,-257.0,170.0,-964.0,57.0
37.0,-250.0,21.0,80.0,45.0,-252.0,171.0,-962.0,58.0
36.0,-249.0,21.0,82.0,48.0,-251.0,170.0,-957.0,55.0
38.0,-252.0,24.0,84.0,50.0,-251.0,177.0,-958.0,58.0
37.0,-249.0,23.0,85.0,54.0,-250.0,176.0,-960.0,60.0
39.0,-250.0,24.0,86.0,60.0,-245.0,182.0,-959.0,61.0
40.0,-252.0,24.0,92.0,66.0,-241.0,185.0,-957.0,66.0
39.0,-252.0,24.0,101.0,77.0,-221.0,187.0,-962.0,62.0
39.0,-252.0,25.0,107.0,77.0,-216.0,190.0,-965.0,70.0
38.0,-251.0,27.0,108.0,71.0,-229.0,192.0,-960.0,70.0
35.0,-249.0,27.0,104.0,63.0,-245.0,179.0,-961.0,68.0
38.0,-247.0,26.0,102.0,56.0,-254.0,180.0,-962.0,71.0
41.0,-251.0,28.0,102.0,52.0,-261.0,188.0,-968.0,65.0
40.0,-250.0,29.0,102.0,53.0,-268.0,195.0,-964.0,71.0
43.0,-251.0,27.0,104.0,55.0,-273.0,196.0,-961.0,67.0
42.0,-248.0,28.0,109.0,57.0,-270.0,201.0,-961.0,68.0
41.0,-251.0,19.0,111.0,58.0,-272.0,206.0,-963.0,75.0
42.0,-250.0,30.0,116.0,61.0,-273.0,208.0,-962.0,75.0
44.0,-249.0,25.0,119.0,61.0,-276.0,210.0,-961.0,69.0
47.0,-249.0,30.0,124.0,61.0,-277.0,219.0,-960.0,70.0
49.0,-250.0,23.0,125.0,60.0,-280.0,221.0,-964.0,71.0
47.0,-249.0,26.0,127.0,60.0,-285.0,225.0,-960.0,70.0
49.0,-253.0,28.0,133.0,60.0,-287.0,235.0,-964.0,71.0
52.0,-251.0,28.0,139.0,62.0,-292.0,230.0,-964.0,71.0
55.0,-254.0,28.0,143.0,59.0,-296.0,238.0,-962.0,66.0
52.0,-249.0,22.0,148.0,56.0,-305.0,238.0,-957.0,65.0
51.0,-251.0,27.0,154.0,53.0,-311.0,236.0,-968.0,64.0
50.0,-249.0,27.0,162.0,50.0,-316.0,242.0,-964.0,65.0
51.0,-252.0,26.0,170.0,49.0,-322.0,240.0,-966.0,66.0
55.0,-249.0,27.0,179.0,48.0,-321.0,245.0,-965.0,69.0
55.0,-254.0,26.0,190.0,50.0,-322.0,240.0,-970.0,67.0
52.0,-254.0,26.0,201.0,53.0,-321.0,240.0,-968.0,74.0
53.0,-251.0,28.0,210.0,55.0,-321.0,246.0,-966.0,82.0
55.0,-253.0,29.0,212.0,53.0,-322.0,248.0,-961.0,79.0
55.0,-249.0,29.0,205.0,46.0,-327.0,247.0,-958.0,80.0
54.0,-247.0,29.0,197.0,36.0,-329.0,244.0,-954.0,79.0
54.0,-248.0,31.0,189.0,29.0,-332.0,252.0,-946.0,82.0
53.0,-245.0,28.0,182.0,23.0,-338.0,246.0,-943.0,72.0
48.0,-243.0,34.0,175.0,22.0,-344.0,251.0,-950.0,75.0
58.0,-248.0,24.0,172.0,26.0,-350.0,249.0,-943.0,69.0
55.0,-246.0,27.0,171.0,32.0,-354.0,251.0,-941.0,76.0
58.0,-246.0,33.0,175.0,40.0,-359.0,253.0,-940.0,83.0
59.0,-246.0,32.0,184.0,51.0,-362.0,253.0,-942.0,86.0
62.0,-248.0,34.0,194.0,56.0,-365.0,258.0,-944.0,88.0
59.0,-247.0,30.0,200.0,61.0,-369.0,262.0,-947.0,86.0
58.0,-246.0,31.0,202.0,61.0,-376.0,266.0,-946.0,100.0
62.0,-248.0,36.0,203.0,60.0,-378.0,264.0,-952.0,99.0
62.0,-248.0,33.0,205.0,57.0,-383.0,270.0,-957.0,101.0
61.0,-248.0,37.0,202.0,50.0,-387.0,270.0,-954.0,99.0
61.0,-248.0,35.0,197.0,41.0,-388.0,274.0,-959.0,106.0
63.0,-250.0,38.0,189.0,34.0,-391.0,275.0,-957.0,109.0
60.0,-252.0,39.0,186.0,28.0,-393.0,273.0,-970.0,106.0
58.0,-249.0,36.0,184.0,22.0,-393.0,268.0,-966.0,113.0
63.0,-252.0,40.0,187.0,14.0,-390.0,269.0,-958.0,114.0
62.0,-248.0,37.0,192.0,3.0,-390.0,271.0,-958.0,114.0
62.0,-250.0,38.0,200.0,-8.0,-389.0,270.0,-955.0,114.0
58.0,-248.0,38.0,212.0,-14.0,-391.0,270.0,-950.0,115.0
61.0,-248.0,39.0,223.0,-18.0,-390.0,273.0,-953.0,113.0
64.0,-248.0,40.0,238.0,-19.0,-390.0,279.0,-955.0,122.0
64.0,-248.0,41.0,254.0,-19.0,-392.0,282.0,-953.0,119.0
67.0,-243.0,41.0,268.0,-15.0,-395.0,293.0,-952.0,122.0
65.0,-247.0,39.0,279.0,-15.0,-402.0,286.0,-940.0,119.0
65.0,-246.0,38.0,279.0,-22.0,-413.0,287.0,-931.0,116.0
65.0,-244.0,41.0,273.0,-34.0,-421.0,290.0,-930.0,129.0
65.0,-244.0,42.0,276.0,-49.0,-420.0,286.0,-919.0,136.0
64.0,-242.0,46.0,289.0,-55.0,-417.0,290.0,-920.0,141.0
66.0,-239.0,46.0,302.0,-63.0,-413.0,287.0,-916.0,149.0
65.0,-238.0,48.0,319.0,-74.0,-404.0,287.0,-917.0,161.0
65.0,-240.0,51.0,335.0,-81.0,-393.0,282.0,-909.0,176.0
64.0,-232.0,51.0,355.0,-86.0,-379.0,289.0,-898.0,174.0
65.0,-230.0,52.0,372.0,-88.0,-363.0,296.0,-880.0,171.0
67.0,-227.0,51.0,378.0,-93.0,-351.0,296.0,-870.0,178.0
66.0,-227.0,49.0,378.0,-104.0,-338.0,296.0,-866.0,172.0
66.0,-221.0,49.0,370.0,-111.0,-327.0,299.0,-859.0,173.0
65.0,-218.0,50.0,341.0,-123.0,-324.0,297.0,-842.0,162.0
64.0,-221.0,49.0,294.0,-136.0,-326.0,286.0,-845.0,162.0
62.0,-220.0,47.0,237.0,-149.0,-328.0,285.0,-846.0,153.0
63.0,-223.0,45.0,180.0,-156.0,-326.0,280.0,-863.0,153.0
63.0,-223.0,44.0,128.0,-160.0,-325.0,279.0,-871.0,152.0
63.0,-229.0,45.0,87.0,-161.0,-322.0,274.0,-873.0,149.0
61.0,-228.0,42.0,55.0,-160.0,-315.0,270.0,-885.0,145.0
64.0,-228.0,42.0,35.0,-160.0,-304.0,277.0,-887.0,132.0
64.0,-228.0,45.0,26.0,-162.0,-291.0,277.0,-887.0,137.0
65.0,-234.0,43.0,28.0,-167.0,-279.0,280.0,-888.0,134.0
62.0,-230.0,44.0,38.0,-174.0,-269.0,281.0,-891.0,137.0
66.0,-236.0,47.0,51.0,-184.0,-262.0,278.0,-900.0,149.0
64.0,-239.0,50.0,64.0,-198.0,-257.0,288.0,-909.0,153.0
64.0,-243.0,52.0,75.0,-215.0,-260.0,287.0,-924.0,155.0
66.0,-244.0,51.0,82.0,-228.0,-265.0,292.0,-930.0,159.0
66.0,-247.0,44.0,88.0,-242.0,-273.0,296.0,-934.0,154.0
65.0,-247.0,46.0,90.0,-255.0,-279.0,294.0,-934.0,152.0
66.0,-246.0,45.0,86.0,-266.0,-283.0,293.0,-929.0,149.0
67.0,-242.0,44.0,82.0,-279.0,-282.0,294.0,-923.0,143.0
67.0,-240.0,49.0,83.0,-289.0,-275.0,295.0,-924.0,153.0
65.0,-242.0,45.0,99.0,-296.0,-267.0,296.0,-909.0,145.0
64.0,-236.0,44.0,112.0,-309.0,-260.0,293.0,-906.0,150.0
64.0,-234.0,45.0,111.0,-332.0,-258.0,282.0,-898.0,152.0
67.0,-233.0,47.0,98.0,-360.0,-259.0,293.0,-893.0,156.0
67.0,-232.0,48.0,83.0,-383.0,-263.0,297.0,-895.0,161.0
68.0,-237.0,48.0,72.0,-394.0,-267.0,307.0,-899.0,165.0
71.0,-236.0,48.0,65.0,-398.0,-273.0,318.0,-910.0,169.0
75.0,-237.0,47.0,57.0,-401.0,-279.0,326.0,-915.0,162.0
81.0,-240.0,48.0,49.0,-400.0,-287.0,335.0,-918.0,156.0
81.0,-244.0,53.0,41.0,-402.0,-290.0,346.0,-923.0,162.0
84.0,-239.0,50.0,43.0,-406.0,-288.0,368.0,-922.0,154.0
83.0,-240.0,44.0,47.0,-409.0,-289.0,364.0,-917.0,150.0
86.0,-241.0,45.0,51.0,-415.0,-291.0,367.0,-919.0,155.0
87.0,-240.0,46.0,52.0,-425.0,-294.0,364.0,-914.0,155.0
83.0,-238.0,46.0,48.0,-437.0,-296.0,358.0,-910.0,148.0
82.0,-237.0,45.0,41.0,-448.0,-296.0,362.0,-912.0,153.0
84.0,-235.0,45.0,35.0,-453.0,-297.0,358.0,-907.0,148.0
83.0,-236.0,41.0,26.0,-455.0,-296.0,359.0,-900.0,146.0
84.0,-235.0,43.0,13.0,-453.0,-298.0,360.0,-895.0,143.0
87.0,-232.0,44.0,2.0,-451.0,-296.0,360.0,-892.0,143.0
88.0,-230.0,44.0,-11.0,-450.0,-294.0,374.0,-886.0,143.0
82.0,-237.0,45.0,-30.0,-457.0,-294.0,381.0,-886.0,149.0
91.0,-227.0,58.0,-49.0,-465.0,-296.0,388.0,-891.0,151.0
108.0,-228.0,53.0,-68.0,-477.0,-299.0,393.0,-892.0,150.0
94.0,-230.0,42.0,-82.0,-488.0,-305.0,396.0,-902.0,152.0
81.0,-229.0,52.0,-92.0,-494.0,-312.0,398.0,-902.0,148.0
98.0,-240.0,37.0,-100.0,-500.0,-318.0,400.0,-904.0,146.0
89.0,-231.0,40.0,-107.0,-502.0,-326.0,400.0,-904.0,141.0
94.0,-240.0,35.0,-114.0,-497.0,-330.0,397.0,-905.0,143.0
91.0,-233.0,46.0,-121.0,-490.0,-331.0,392.0,-901.0,136.0
98.0,-236.0,45.0,-127.0,-482.0,-331.0,396.0,-896.0,138.0
92.0,-223.0,48.0,-132.0,-472.0,-333.0,395.0,-893.0,136.0
90.0,-230.0,43.0,-136.0,-467.0,-330.0,386.0,-885.0,138.0
92.0,-231.0,42.0,-136.0,-461.0,-332.0,387.0,-880.0,134.0
88.0,-231.0,42.0,-136.0,-455.0,-334.0,379.0,-875.0,142.0
92.0,-228.0,45.0,-127.0,-443.0,-331.0,377.0,-870.0,133.0
88.0,-226.0,42.0,-119.0,-432.0,-332.0,382.0,-863.0,129.0
87.0,-223.0,42.0,-121.0,-422.0,-335.0,385.0,-853.0,121.0
91.0,-221.0,53.0,-133.0,-415.0,-339.0,384.0,-843.0,133.0
88.0,-217.0,43.0,-148.0,-406.0,-342.0,387.0,-843.0,135.0
90.0,-222.0,44.0,-172.0,-398.0,-342.0,388.0,-849.0,140.0
96.0,-222.0,60.0,-202.0,-393.0,-344.0,392.0,-846.0,141.0
95.0,-226.0,40.0,-235.0,-391.0,-347.0,386.0,-858.0,141.0
94.0,-232.0,42.0,-267.0,-391.0,-349.0,385.0,-861.0,144.0
94.0,-226.0,43.0,-292.0,-386.0,-353.0,390.0,-866.0,142.0
98.0,-234.0,46.0,-308.0,-379.0,-358.0,395.0,-878.0,132.0
94.0,-225.0,41.0,-316.0,-370.0,-364.0,399.0,-884.0,121.0
106.0,-231.0,42.0,-321.0,-361.0,-368.0,404.0,-879.0,107.0
99.0,-230.0,32.0,-323.0,-361.0,-375.0,405.0,-880.0,97.0
97.0,-226.0,30.0,-324.0,-364.0,-382.0,407.0,-865.0,94.0
94.0,-224.0,31.0,-321.0,-368.0,-385.0,404.0,-864.0,85.0
95.0,-223.0,32.0,-320.0,-369.0,-389.0,401.0,-856.0,81.0
94.0,-223.0,37.0,-317.0,-370.0,-395.0,396.0,-857.0,93.0
91.0,-236.0,34.0,-309.0,-366.0,-402.0,397.0,-862.0,104.0
100.0,-219.0,38.0,-298.0,-360.0,-412.0,407.0,-867.0,121.0
89.0,-228.0,39.0,-281.0,-350.0,-427.0,414.0,-873.0,134.0
99.0,-229.0,49.0,-258.0,-338.0,-442.0,414.0,-872.0,154.0
103.0,-223.0,48.0,-231.0,-325.0,-450.0,413.0,-872.0,167.0
99.0,-229.0,53.0,-204.0,-313.0,-451.0,418.0,-865.0,170.0
111.0,-218.0,53.0,-181.0,-302.0,-454.0,424.0,-857.0,176.0
101.0,-219.0,59.0,-165.0,-289.0,-457.0,426.0,-846.0,172.0
90.0,-228.0,44.0,-162.0,-279.0,-462.0,425.0,-840.0,159.0
102.0,-211.0,44.0,-174.0,-271.0,-470.0,427.0,-826.0,145.0
101.0,-201.0,39.0,-202.0,-265.0,-478.0,420.0,-810.0,136.0
98.0,-204.0,37.0,-244.0,-262.0,-493.0,405.0,-795.0,116.0
95.0,-203.0,30.0,-295.0,-256.0,-509.0,395.0,-790.0,106.0
94.0,-201.0,30.0,-350.0,-247.0,-526.0,388.0,-779.0,91.0
86.0,-193.0,24.0,-403.0,-232.0,-542.0,384.0,-780.0,75.0
83.0,-211.0,17.0,-449.0,-214.0,-554.0,369.0,-782.0,69.0
85.0,-195.0,23.0,-485.0,-202.0,-561.0,355.0,-788.0,58.0
85.0,-199.0,23.0,-512.0,-196.0,-568.0,353.0,-799.0,48.0
86.0,-209.0,22.0,-528.0,-200.0,-574.0,352.0,-809.0,45.0
85.0,-212.0,13.0,-535.0,-219.0,-580.0,347.0,-823.0,36.0
73.0,-212.0,20.0,-532.0,-247.0,-589.0,347.0,-835.0,26.0
77.0,-225.0,13.0,-521.0,-282.0,-602.0,362.0,-841.0,23.0
91.0,-230.0,24.0,-506.0,-323.0,-619.0,378.0,-856.0,18.0
92.0,-222.0,4.0,-489.0,-359.0,-642.0,399.0,-859.0,21.0
94.0,-225.0,24.0,-474.0,-389.0,-669.0,407.0,-865.0,19.0
99.0,-216.0,7.0,-462.0,-414.0,-694.0,418.0,-858.0,24.0
99.0,-226.0,13.0,-455.0,-435.0,-715.0,422.0,-857.0,25.0
103.0,-224.0,13.0,-455.0,-458.0,-733.0,431.0,-850.0,24.0
101.0,-221.0,17.0,-465.0,-480.0,-747.0,429.0,-843.0,26.0
101.0,-215.0,13.0,-484.0,-505.0,-756.0,424.0,-831.0,14.0
92.0,-210.0,12.0,-513.0,-527.0,-761.0,410.0,-808.0,5.0
89.0,-213.0,12.0,-550.0,-548.0,-764.0,398.0,-798.0,-11.0
82.0,-191.0,-13.0,-591.0,-566.0,-768.0,388.0,-782.0,-25.0
98.0,-216.0,1.0,-636.0,-580.0,-773.0,384.0,-767.0,-49.0
97.0,-196.0,6.0,-685.0,-593.0,-778.0,382.0,-763.0,-58.0
87.0,-202.0,-14.0,-736.0,-604.0,-790.0,382.0,-753.0,-70.0
105.0,-192.0,-15.0,-785.0,-618.0,-805.0,396.0,-751.0,-81.0
115.0,-199.0,-16.0,-836.0,-632.0,-828.0,412.0,-753.0,-84.0
115.0,-200.0,-26.0,-882.0,-651.0,-858.0,446.0,-745.0,-86.0
123.0,-192.0,-8.0,-925.0,-673.0,-895.0,486.0,-752.0,-87.0
136.0,-196.0,-10.0,-962.0,-696.0,-940.0,538.0,-740.0,-75.0
146.0,-192.0,-10.0,-988.0,-723.0,-987.0,615.0,-730.0,-65.0
158.0,-186.0,-11.0,-1014.0,-749.0,-1034.0,644.0,-707.0,-64.0
162.0,-180.0,-9.0,-1049.0,-779.0,-1076.0,673.0,-686.0,-67.0
171.0,-176.0,-12.0,-1097.0,-814.0,-1104.0,689.0,-662.0,-76.0
169.0,-170.0,-19.0,-1154.0,-844.0,-1121.0,691.0,-644.0,-93.0
167.0,-163.0,-21.0,-1219.0,-852.0,-1128.0,667.0,-617.0,-113.0
152.0,-154.0,-23.0,-1288.0,-846.0,-1119.0,632.0,-593.0,-128.0
146.0,-157.0,-22.0,-1359.0,-824.0,-1105.0,581.0,-585.0,-152.0
136.0,-150.0,-33.0,-1416.0,-776.0,-1093.0,525.0,-583.0,-153.0
106.0,-154.0,-33.0,-1445.0,-715.0,-1084.0,455.0,-570.0,-176.0
99.0,-151.0,-38.0,-1459.0,-648.0,-1075.0,402.0,-588.0,-187.0
92.0,-164.0,-39.0,-1442.0,-579.0,-1069.0,357.0,-597.0,-193.0
89.0,-171.0,-46.0,-1401.0,-517.0,-1060.0,357.0,-607.0,-204.0
83.0,-170.0,-47.0,-1346.0,-474.0,-1063.0,347.0,-631.0,-212.0
73.0,-168.0,-45.0,-1276.0,-453.0,-1064.0,367.0,-626.0,-233.0
97.0,-175.0,-64.0,-1205.0,-451.0,-1054.0,394.0,-629.0,-251.0
114.0,-167.0,-63.0,-1137.0,-465.0,-1035.0,432.0,-629.0,-260.0
116.0,-167.0,-55.0,-1073.0,-482.0,-1022.0,464.0,-622.0,-267.0
127.0,-161.0,-53.0,-1020.0,-501.0,-1017.0,506.0,-602.0,-255.0
130.0,-156.0,-54.0,-977.0,-506.0,-1018.0,529.0,-578.0,-244.0
134.0,-149.0,-45.0,-947.0,-496.0,-1021.0,539.0,-565.0,-222.0
121.0,-141.0,-39.0,-927.0,-470.0,-1016.0,550.0,-540.0,-194.0
129.0,-147.0,-32.0,-918.0,-426.0,-1000.0,552.0,-535.0,-175.0
140.0,-145.0,-15.0,-917.0,-373.0,-976.0,558.0,-530.0,-142.0
132.0,-153.0,-9.0,-916.0,-313.0,-948.0,537.0,-537.0,-122.0
127.0,-142.0,-19.0,-914.0,-257.0,-921.0,510.0,-532.0,-104.0
118.0,-145.0,-21.0,-901.0,-201.0,-887.0,477.0,-522.0,-102.0
113.0,-130.0,-18.0,-881.0,-141.0,-852.0,442.0,-504.0,-117.0
105.0,-128.0,-23.0,-855.0,-76.0,-818.0,412.0,-474.0,-135.0
96.0,-118.0,-34.0,-821.0,-4.0,-782.0,385.0,-434.0,-168.0
92.0,-108.0,-46.0,-778.0,84.0,-746.0,361.0,-395.0,-214.0
85.0,-99.0,-65.0,-718.0,185.0,-716.0,336.0,-349.0,-267.0
79.0,-83.0,-78.0,-640.0,295.0,-686.0,309.0,-285.0,-346.0
81.0,-68.0,-92.0,-552.0,416.0,-664.0,313.0,-228.0,-416.0
81.0,-60.0,-111.0,-463.0,543.0,-647.0,322.0,-199.0,-476.0
88.0,-55.0,-121.0,-384.0,665.0,-638.0,331.0,-177.0,-525.0
93.0,-49.0,-136.0,-338.0,770.0,-645.0,360.0,-172.0,-573.0
92.0,-50.0,-138.0,-334.0,858.0,-664.0,367.0,-180.0,-591.0
97.0,-57.0,-134.0,-381.0,927.0,-701.0,376.0,-195.0,-579.0
103.0,-59.0,-123.0,-476.0,976.0,-752.0,397.0,-223.0,-549.0
107.0,-74.0,-112.0,-611.0,1010.0,-816.0,420.0,-274.0,-503.0
103.0,-72.0,-101.0,-765.0,1043.0,-898.0,440.0,-343.0,-456.0
115.0,-120.0,-86.0,-902.0,1088.0,-990.0,445.0,-432.0,-396.0
110.0,-142.0,-83.0,-981.0,1149.0,-1068.0,430.0,-537.0,-366.0
101.0,-166.0,-73.0,-994.0,1223.0,-1109.0,408.0,-606.0,-327.0
92.0,-183.0,-62.0,-952.0,1293.0,-1108.0,375.0,-688.0,-299.0
80.0,-196.0,-61.0,-867.0,1355.0,-1079.0,344.0,-750.0,-272.0
73.0,-213.0,-53.0,-758.0,1409.0,-1036.0,312.0,-804.0,-262.0
69.0,-222.0,-59.0,-636.0,1468.0,-987.0,299.0,-830.0,-271.0
63.0,-220.0,-67.0,-539.0,1531.0,-942.0,279.0,-837.0,-292.0
66.0,-215.0,-75.0,-482.0,1584.0,-905.0,280.0,-829.0,-325.0
83.0,-208.0,-78.0,-460.0,1623.0,-893.0,315.0,-795.0,-356.0
95.0,-194.0,-92.0,-453.0,1643.0,-922.0,376.0,-739.0,-407.0
114.0,-181.0,-105.0,-450.0,1647.0,-1005.0,450.0,-667.0,-459.0
121.0,-167.0,-111.0,-442.0,1640.0,-1122.0,488.0,-602.0,-490.0
124.0,-152.0,-115.0,-407.0,1638.0,-1220.0,501.0,-546.0,-505.0
125.0,-144.0,-110.0,-333.0,1663.0,-1275.0,490.0,-495.0,-492.0
119.0,-130.0,-101.0,-211.0,1716.0,-1287.0,457.0,-446.0,-456.0
99.0,-121.0,-83.0,-52.0,1789.0,-1267.0,403.0,-424.0,-381.0
87.0,-120.0,-64.0,134.0,1849.0,-1232.0,354.0,-418.0,-305.0
73.0,-127.0,-53.0,346.0,1882.0,-1198.0,315.0,-435.0,-252.0
64.0,-130.0,-61.0,574.0,1888.0,-1185.0,272.0,-455.0,-273.0
62.0,-138.0,-68.0,788.0,1864.0,-1193.0,270.0,-497.0,-306.0
69.0,-146.0,-64.0,954.0,1837.0,-1231.0,301.0,-528.0,-293.0
94.0,-148.0,-41.0,1039.0,1803.0,-1298.0,387.0,-552.0,-211.0
135.0,-150.0,-25.0,1017.0,1766.0,-1386.0,522.0,-578.0,-130.0
190.0,-150.0,-9.0,900.0,1743.0,-1478.0,733.0,-585.0,-76.0
260.0,-147.0,6.0,700.0,1758.0,-1557.0,994.0,-599.0,-28.0
319.0,-152.0,17.0,443.0,1796.0,-1619.0,1260.0,-597.0,31.0
396.0,-156.0,16.0,186.0,1784.0,-1654.0,1557.0,-599.0,36.0
459.0,-151.0,11.0,-55.0,1690.0,-1690.0,1843.0,-566.0,-2.0
532.0,-136.0,-8.0,-283.0,1509.0,-1731.0,2114.0,-511.0,-85.0
582.0,-131.0,-20.0,-501.0,1293.0,-1759.0,2321.0,-469.0,-137.0
616.0,-126.0,-39.0,-678.0,1083.0,-1762.0,2479.0,-445.0,-196.0
645.0,-129.0,-53.0,-780.0,946.0,-1720.0,2584.0,-447.0,-258.0
656.0,-137.0,-64.0,-843.0,911.0,-1693.0,2615.0,-464.0,-300.0
627.0,-138.0,-65.0,-907.0,954.0,-1731.0,2502.0,-466.0,-309.0
601.0,-131.0,-59.0,-980.0,1006.0,-1809.0,2385.0,-448.0,-306.0
572.0,-136.0,-58.0,-1044.0,1061.0,-1901.0,2283.0,-471.0,-288.0
560.0,-149.0,-43.0,-1071.0,1105.0,-2008.0,2251.0,-505.0,-215.0
559.0,-163.0,-21.0,-1044.0,1106.0,-2163.0,2239.0,-538.0,-144.0
572.0,-162.0,-6.0,-965.0,1074.0,-2336.0,2288.0,-536.0,-65.0
558.0,-141.0,23.0,-846.0,1017.0,-2480.0,2252.0,-477.0,23.0
527.0,-130.0,58.0,-706.0,900.0,-2544.0,2170.0,-415.0,155.0
509.0,-123.0,85.0,-505.0,699.0,-2605.0,2090.0,-400.0,284.0
482.0,-116.0,102.0,-292.0,427.0,-2721.0,1993.0,-366.0,357.0
461.0,-89.0,103.0,-150.0,138.0,-2863.0,1885.0,-298.0,364.0
446.0,-60.0,105.0,-109.0,-133.0,-2993.0,1793.0,-186.0,357.0
431.0,-34.0,72.0,-153.0,-381.0,-3080.0,1752.0,-81.0,279.0
436.0,-3.0,48.0,-253.0,-585.0,-3123.0,1725.0,14.0,163.0
416.0,23.0,27.0,-364.0,-650.0,-3125.0,1643.0,130.0,71.0
387.0,43.0,22.0,-466.0,-608.0,-3047.0,1535.0,193.0,40.0
341.0,36.0,26.0,-559.0,-537.0,-2876.0,1366.0,181.0,68.0
318.0,38.0,17.0,-634.0,-499.0,-2633.0,1263.0,187.0,43.0
288.0,36.0,28.0,-728.0,-450.0,-2392.0,1140.0,171.0,66.0
262.0,37.0,40.0,-832.0,-392.0,-2179.0,1041.0,167.0,125.0
239.0,37.0,57.0,-946.0,-321.0,-2009.0,927.0,176.0,201.0
217.0,40.0,70.0,-1044.0,-274.0,-1904.0,846.0,182.0,234.0
189.0,41.0,63.0,-1129.0,-272.0,-1851.0,754.0,165.0,239.0
185.0,33.0,68.0,-1189.0,-301.0,-1841.0,722.0,162.0,220.0
178.0,18.0,68.0,-1212.0,-307.0,-1904.0,708.0,110.0,249.0
161.0,5.0,59.0,-1188.0,-293.0,-2041.0,635.0,89.0,188.0
150.0,-6.0,34.0,-1148.0,-283.0,-2239.0,593.0,37.0,124.0
148.0,-32.0,25.0,-1039.0,-212.0,-2436.0,596.0,-57.0,74.0
140.0,-53.0,50.0,-842.0,-131.0,-2485.0,572.0,-111.0,103.0
149.0,-53.0,47.0,-566.0,-158.0,-2416.0,581.0,-145.0,147.0
183.0,-38.0,44.0,-276.0,-195.0,-2273.0,701.0,-112.0,137.0
223.0,-21.0,34.0,-41.0,-203.0,-2069.0,903.0,-37.0,102.0
274.0,3.0,20.0,134.0,-220.0,-1781.0,1102.0,49.0,42.0
318.0,20.0,-4.0,265.0,-302.0,-1449.0,1280.0,114.0,-30.0
346.0,37.0,-22.0,357.0,-424.0,-1123.0,1405.0,174.0,-101.0
374.0,47.0,-33.0,406.0,-541.0,-827.0,1493.0,230.0,-165.0
371.0,57.0,-32.0,436.0,-628.0,-553.0,1504.0,280.0,-169.0
360.0,60.0,-20.0,489.0,-717.0,-319.0,1446.0,295.0,-129.0
389.0,101.0,-55.0,673.0,-831.0,-162.0,1536.0,429.0,-246.0
368.0,143.0,-52.0,809.0,-853.0,-52.0,1457.0,563.0,-232.0
340.0,174.0,-53.0,819.0,-797.0,34.0,1372.0,694.0,-246.0
324.0,186.0,-33.0,733.0,-736.0,112.0,1278.0,755.0,-175.0
308.0,185.0,-22.0,648.0,-694.0,152.0,1183.0,746.0,-124.0
291.0,175.0,-17.0,576.0,-594.0,209.0,1120.0,696.0,-95.0
281.0,161.0,-18.0,495.0,-463.0,314.0,1072.0,640.0,-98.0
282.0,147.0,-22.0,389.0,-330.0,434.0,1089.0,589.0,-98.0
296.0,126.0,-22.0,303.0,-198.0,530.0,1126.0,516.0,-136.0
299.0,108.0,-31.0,275.0,-43.0,598.0,1156.0,448.0,-170.0
316.0,91.0,-49.0,312.0,124.0,641.0,1178.0,402.0,-226.0
279.0,80.0,-33.0,352.0,278.0,649.0,1095.0,361.0,-190.0
282.0,75.0,-16.0,367.0,366.0,670.0,1107.0,340.0,-128.0
297.0,86.0,-10.0,358.0,439.0,669.0,1149.0,368.0,-87.0
292.0,89.0,-13.0,303.0,533.0,650.0,1126.0,367.0,-88.0
290.0,95.0,-25.0,212.0,631.0,637.0,1118.0,402.0,-133.0
287.0,83.0,-21.0,100.0,758.0,673.0,1123.0,363.0,-111.0
274.0,91.0,-36.0,46.0,848.0,706.0,1110.0,371.0,-127.0
279.0,81.0,-19.0,41.0,912.0,701.0,1090.0,372.0,-121.0
261.0,84.0,-23.0,73.0,969.0,693.0,1024.0,375.0,-116.0
245.0,95.0,-26.0,118.0,997.0,693.0,994.0,399.0,-122.0
244.0,98.0,-20.0,173.0,1020.0,697.0,969.0,429.0,-113.0
226.0,109.0,-20.0,221.0,1069.0,678.0,921.0,452.0,-109.0
202.0,119.0,-18.0,252.0,1110.0,637.0,827.0,475.0,-107.0
196.0,118.0,-17.0,262.0,1122.0,614.0,786.0,464.0,-101.0
200.0,115.0,-20.0,279.0,1137.0,606.0,778.0,463.0,-126.0
186.0,110.0,-20.0,285.0,1151.0,585.0,744.0,456.0,-121.0
175.0,112.0,-21.0,277.0,1135.0,556.0,695.0,439.0,-123.0
166.0,101.0,-18.0,256.0,1087.0,523.0,675.0,417.0,-99.0
167.0,93.0,-14.0,236.0,1036.0,486.0,670.0,386.0,-88.0
175.0,84.0,-6.0,222.0,988.0,444.0,685.0,367.0,-65.0
180.0,81.0,-7.0,212.0,938.0,386.0,704.0,350.0,-61.0
177.0,78.0,-9.0,194.0,882.0,329.0,698.0,337.0,-67.0
190.0,77.0,-15.0,158.0,817.0,290.0,740.0,323.0,-72.0
185.0,79.0,-11.0,108.0,764.0,246.0,750.0,324.0,-86.0
183.0,77.0,-19.0,57.0,711.0,202.0,731.0,328.0,-99.0
184.0,78.0,-18.0,21.0,663.0,168.0,728.0,338.0,-114.0
184.0,79.0,-22.0,3.0,625.0,139.0,727.0,341.0,-146.0
189.0,78.0,-35.0,-15.0,596.0,119.0,741.0,344.0,-158.0
178.0,82.0,-38.0,-39.0,570.0,106.0,727.0,358.0,-155.0
188.0,89.0,-28.0,-77.0,537.0,98.0,746.0,357.0,-147.0
188.0,96.0,-21.0,-133.0,510.0,93.0,753.0,385.0,-129.0
186.0,101.0,-11.0,-203.0,491.0,87.0,729.0,419.0,-84.0
193.0,111.0,-8.0,-269.0,463.0,93.0,762.0,441.0,-68.0
200.0,112.0,-3.0,-314.0,440.0,92.0,774.0,455.0,-63.0
215.0,110.0,-10.0,-336.0,422.0,97.0,851.0,445.0,-66.0
228.0,105.0,-7.0,-342.0,407.0,97.0,900.0,443.0,-63.0
244.0,93.0,-2.0,-332.0,388.0,106.0,980.0,412.0,-51.0
259.0,87.0,-4.0,-305.0,372.0,112.0,1034.0,378.0,-30.0
264.0,76.0,-1.0,-285.0,355.0,111.0,1057.0,337.0,-24.0
261.0,68.0,2.0,-295.0,327.0,104.0,1044.0,293.0,-16.0
262.0,55.0,8.0,-329.0,282.0,105.0,1042.0,248.0,1.0
265.0,34.0,17.0,-368.0,237.0,103.0,1056.0,179.0,30.0
265.0,24.0,21.0,-387.0,206.0,91.0,1055.0,136.0,58.0
263.0,10.0,25.0,-379.0,183.0,80.0,1057.0,89.0,64.0
262.0,8.0,22.0,-358.0,149.0,74.0,1062.0,65.0,57.0
266.0,5.0,20.0,-335.0,108.0,72.0,1068.0,64.0,48.0
267.0,9.0,19.0,-317.0,74.0,92.0,1073.0,80.0,43.0
269.0,18.0,23.0,-311.0,35.0,120.0,1082.0,110.0,51.0
273.0,23.0,24.0,-305.0,-5.0,147.0,1090.0,135.0,63.0
275.0,25.0,24.0,-295.0,-48.0,169.0,1095.0,146.0,74.0
276.0,26.0,37.0,-283.0,-93.0,180.0,1096.0,154.0,82.0
283.0,28.0,29.0,-267.0,-139.0,184.0,1110.0,159.0,70.0
278.0,29.0,28.0,-243.0,-185.0,176.0,1108.0,154.0,68.0
277.0,27.0,15.0,-209.0,-225.0,172.0,1105.0,150.0,47.0
279.0,25.0,16.0,-175.0,-258.0,175.0,1113.0,143.0,20.0
279.0,22.0,4.0,-148.0,-277.0,178.0,1113.0,131.0,-5.0
282.0,20.0,-1.0,-135.0,-279.0,172.0,1108.0,120.0,-34.0
276.0,18.0,-5.0,-137.0,-257.0,159.0,1106.0,114.0,-51.0
275.0,14.0,-11.0,-152.0,-218.0,159.0,1098.0,94.0,-64.0
287.0,15.0,-18.0,-184.0,-170.0,168.0,1107.0,93.0,-103.0
278.0,9.0,-9.0,-236.0,-96.0,199.0,1105.0,69.0,-82.0
274.0,10.0,-2.0,-290.0,-35.0,228.0,1094.0,66.0,-62.0
271.0,3.0,2.0,-336.0,-6.0,240.0,1092.0,50.0,-30.0
269.0,-6.0,7.0,-364.0,-8.0,219.0,1069.0,38.0,-1.0
268.0,-8.0,8.0,-366.0,-21.0,195.0,1073.0,26.0,4.0
271.0,-12.0,13.0,-331.0,-19.0,189.0,1083.0,-2.0,15.0
265.0,-27.0,19.0,-269.0,-13.0,189.0,1070.0,-42.0,39.0
274.0,-29.0,13.0,-178.0,-36.0,182.0,1098.0,-68.0,21.0
270.0,-30.0,10.0,-81.0,-55.0,166.0,1093.0,-84.0,3.0
275.0,-38.0,2.0,9.0,-64.0,155.0,1096.0,-101.0,-21.0
273.0,-47.0,2.0,84.0,-57.0,158.0,1094.0,-133.0,-16.0
274.0,-48.0,1.0,158.0,-35.0,168.0,1088.0,-147.0,-20.0
266.0,-52.0,3.0,221.0,0.0,183.0,1074.0,-158.0,-25.0
266.0,-53.0,-1.0,261.0,39.0,201.0,1058.0,-171.0,-18.0
267.0,-52.0,6.0,285.0,78.0,212.0,1061.0,-159.0,-23.0
264.0,-48.0,7.0,292.0,129.0,212.0,1039.0,-150.0,-18.0
257.0,-42.0,3.0,280.0,177.0,212.0,1016.0,-131.0,-2.0
247.0,-36.0,8.0,259.0,216.0,211.0,999.0,-111.0,9.0
247.0,-28.0,12.0,233.0,243.0,204.0,989.0,-87.0,20.0
246.0,-24.0,18.0,210.0,253.0,192.0,970.0,-63.0,36.0
238.0,-24.0,17.0,190.0,252.0,175.0,941.0,-50.0,37.0
232.0,-20.0,24.0,167.0,239.0,156.0,933.0,-39.0,41.0
233.0,-18.0,15.0,145.0,220.0,137.0,928.0,-36.0,34.0
234.0,-19.0,13.0,121.0,197.0,120.0,926.0,-42.0,27.0
234.0,-23.0,10.0,98.0,174.0,107.0,938.0,-52.0,20.0
238.0,-25.0,6.0,84.0,153.0,104.0,941.0,-57.0,14.0
245.0,-30.0,3.0,82.0,128.0,108.0,964.0,-73.0,-7.0
248.0,-35.0,1.0,93.0,102.0,116.0,994.0,-78.0,-18.0
255.0,-38.0,0.0,114.0,77.0,126.0,1007.0,-94.0,-31.0
256.0,-40.0,0.0,138.0,48.0,141.0,1024.0,-110.0,-35.0
257.0,-41.0,2.0,164.0,15.0,159.0,1035.0,-117.0,-31.0
257.0,-39.0,9.0,190.0,-23.0,175.0,1040.0,-120.0,-18.0
258.0,-41.0,7.0,210.0,-62.0,183.0,1042.0,-125.0,-8.0
255.0,-39.0,10.0,222.0,-101.0,187.0,1039.0,-128.0,-3.0
256.0,-41.0,7.0,224.0,-135.0,187.0,1030.0,-127.0,9.0
256.0,-39.0,9.0,215.0,-167.0,176.0,1028.0,-119.0,16.0
256.0,-38.0,7.0,202.0,-197.0,156.0,1019.0,-113.0,6.0
256.0,-34.0,8.0,183.0,-216.0,132.0,1013.0,-103.0,-2.0
250.0,-27.0,6.0,159.0,-222.0,107.0,1010.0,-87.0,-14.0
251.0,-33.0,2.0,135.0,-222.0,85.0,1003.0,-76.0,-31.0
252.0,-28.0,2.0,108.0,-213.0,69.0,1005.0,-70.0,-41.0
256.0,-24.0,-4.0,85.0,-197.0,56.0,998.0,-63.0,-47.0
252.0,-24.0,-4.0,64.0,-181.0,47.0,1002.0,-60.0,-49.0
252.0,-23.0,-3.0,43.0,-165.0,37.0,1000.0,-59.0,-53.0
252.0,-22.0,-7.0,20.0,-151.0,26.0,1006.0,-57.0,-62.0
254.0,-27.0,-10.0,-2.0,-135.0,12.0,1012.0,-62.0,-58.0
255.0,-25.0,-3.0,-25.0,-120.0,1.0,1019.0,-61.0,-64.0
257.0,-26.0,-8.0,-46.0,-110.0,-9.0,1025.0,-65.0,-61.0
260.0,-31.0,-10.0,-66.0,-102.0,-19.0,1031.0,-73.0,-58.0
262.0,-32.0,-3.0,-79.0,-98.0,-28.0,1045.0,-80.0,-53.0
266.0,-34.0,-4.0,-76.0,-88.0,-38.0,1060.0,-92.0,-47.0
267.0,-34.0,-5.0,-75.0,-78.0,-53.0,1063.0,-97.0,-48.0
267.0,-38.0,-5.0,-72.0,-70.0,-67.0,1063.0,-102.0,-45.0
270.0,-40.0,0.0,-63.0,-55.0,-79.0,1070.0,-105.0,-42.0
269.0,-40.0,-4.0,-47.0,-34.0,-91.0,1069.0,-108.0,-43.0
260.0,-39.0,-4.0,-25.0,-6.0,-97.0,1077.0,-97.0,-55.0
268.0,-30.0,-9.0,-9.0,23.0,-103.0,1074.0,-82.0,-66.0
270.0,-26.0,-9.0,-10.0,47.0,-107.0,1062.0,-70.0,-77.0
268.0,-26.0,-13.0,-16.0,71.0,-106.0,1067.0,-63.0,-75.0
265.0,-22.0,-9.0,-18.0,101.0,-102.0,1061.0,-55.0,-77.0
264.0,-20.0,-13.0,-11.0,133.0,-95.0,1057.0,-47.0,-80.0
266.0,-23.0,-13.0,-2.0,159.0,-91.0,1057.0,-40.0,-80.0
264.0,-18.0,-10.0,10.0,185.0,-87.0,1059.0,-39.0,-76.0
267.0,-16.0,-9.0,25.0,208.0,-86.0,1057.0,-34.0,-72.0
267.0,-14.0,-10.0,41.0,230.0,-83.0,1056.0,-24.0,-74.0
265.0,-13.0,-11.0,51.0,254.0,-81.0,1057.0,-9.0,-73.0
267.0,-8.0,-11.0,55.0,274.0,-80.0,1057.0,-3.0,-82.0
268.0,-13.0,-10.0,52.0,294.0,-80.0,1053.0,15.0,-83.0
264.0,-3.0,-14.0,43.0,311.0,-80.0,1055.0,9.0,-80.0
264.0,-1.0,-13.0,29.0,328.0,-80.0,1055.0,21.0,-87.0
263.0,-3.0,-15.0,8.0,342.0,-80.0,1043.0,21.0,-92.0
259.0,1.0,-14.0,-19.0,353.0,-84.0,1047.0,36.0,-91.0
262.0,5.0,-16.0,-56.0,360.0,-92.0,1030.0,45.0,-96.0
259.0,6.0,-18.0,-103.0,365.0,-100.0,1026.0,59.0,-115.0
257.0,8.0,-20.0,-160.0,369.0,-108.0,1021.0,67.0,-118.0
257.0,10.0,-22.0,-219.0,371.0,-120.0,1018.0,83.0,-136.0
257.0,16.0,-25.0,-290.0,364.0,-142.0,1016.0,90.0,-145.0
257.0,14.0,-25.0,-363.0,351.0,-159.0,1017.0,91.0,-145.0
255.0,12.0,-27.0,-425.0,338.0,-168.0,1021.0,86.0,-146.0
257.0,12.0,-20.0,-492.0,322.0,-173.0,1028.0,80.0,-128.0
259.0,9.0,-23.0,-546.0,303.0,-170.0,1028.0,76.0,-117.0
260.0,11.0,-16.0,-591.0,281.0,-165.0,1037.0,69.0,-103.0
261.0,3.0,-7.0,-629.0,266.0,-157.0,1053.0,46.0,-61.0
265.0,-2.0,-5.0,-630.0,277.0,-143.0,1056.0,26.0,-38.0
261.0,-6.0,3.0,-602.0,309.0,-128.0,1052.0,21.0,-25.0
262.0,-7.0,8.0,-547.0,343.0,-116.0,1040.0,14.0,-3.0
259.0,-9.0,10.0,-480.0,382.0,-101.0,1033.0,10.0,7.0
258.0,-11.0,14.0,-402.0,426.0,-89.0,1026.0,8.0,11.0
257.0,-8.0,7.0,-355.0,463.0,-84.0,1007.0,7.0,12.0
252.0,-5.0,11.0,-330.0,494.0,-83.0,1004.0,12.0,11.0
254.0,-4.0,14.0,-320.0,516.0,-85.0,999.0,25.0,16.0
250.0,-2.0,21.0,-319.0,528.0,-91.0,994.0,27.0,31.0
250.0,-2.0,15.0,-313.0,528.0,-93.0,998.0,29.0,43.0
254.0,-2.0,19.0,-303.0,519.0,-97.0,1004.0,36.0,44.0
248.0,2.0,27.0,-301.0,496.0,-104.0,1001.0,41.0,53.0
251.0,-1.0,26.0,-292.0,465.0,-105.0,1002.0,37.0,66.0
254.0,-2.0,31.0,-265.0,437.0,-101.0,1006.0,30.0,83.0
256.0,-5.0,32.0,-210.0,411.0,-90.0,1017.0,23.0,88.0
255.0,-7.0,31.0,-152.0,387.0,-81.0,1017.0,26.0,85.0
261.0,-12.0,29.0,-98.0,369.0,-75.0,1020.0,19.0,74.0
256.0,-6.0,26.0,-51.0,357.0,-69.0,1022.0,26.0,75.0
255.0,-1.0,23.0,-18.0,343.0,-66.0,1022.0,28.0,70.0
257.0,1.0,26.0,5.0,332.0,-61.0,1021.0,33.0,63.0
257.0,2.0,24.0,16.0,324.0,-57.0,1024.0,41.0,58.0
256.0,3.0,19.0,15.0,317.0,-54.0,1021.0,50.0,54.0
254.0,8.0,27.0,4.0,310.0,-53.0,1019.0,53.0,62.0
255.0,8.0,30.0,-9.0,302.0,-51.0,1018.0,60.0,68.0
254.0,8.0,29.0,-21.0,296.0,-47.0,1015.0,57.0,68.0
252.0,7.0,30.0,-31.0,290.0,-44.0,1013.0,56.0,77.0
253.0,8.0,28.0,-35.0,280.0,-39.0,1019.0,57.0,71.0
255.0,5.0,34.0,-36.0,270.0,-33.0,1005.0,57.0,91.0
255.0,3.0,32.0,-28.0,255.0,-21.0,1014.0,50.0,89.0
256.0,4.0,35.0,-12.0,239.0,-12.0,1008.0,48.0,96.0
254.0,1.0,31.0,6.0,227.0,1.0,1014.0,46.0,90.0
255.0,0.0,35.0,24.0,214.0,12.0,1021.0,40.0,85.0
254.0,3.0,29.0,36.0,204.0,19.0,1017.0,34.0,78.0
253.0,3.0,27.0,40.0,196.0,26.0,1020.0,41.0,76.0
256.0,0.0,28.0,40.0,192.0,32.0,1012.0,34.0,72.0
254.0,-1.0,24.0,35.0,188.0,38.0,1016.0,31.0,73.0
254.0,0.0,25.0,26.0,183.0,41.0,1008.0,41.0,71.0
257.0,-4.0,33.0,15.0,177.0,43.0,1007.0,33.0,72.0
253.0,0.0,29.0,4.0,171.0,45.0,1005.0,33.0,72.0
252.0,-1.0,25.0,-5.0,167.0,43.0,1002.0,29.0,70.0
256.0,-4.0,28.0,-12.0,158.0,42.0,1011.0,32.0,67.0
255.0,-2.0,27.0,-17.0,156.0,39.0,1016.0,26.0,73.0
253.0,1.0,29.0,-18.0,149.0,35.0,1017.0,28.0,71.0
255.0,-6.0,33.0,-17.0,140.0,33.0,1015.0,23.0,64.0
254.0,-2.0,28.0,-10.0,131.0,32.0,1022.0,19.0,69.0
255.0,-7.0,22.0,-1.0,121.0,32.0,1021.0,24.0,69.0
255.0,-2.0,21.0,9.0,115.0,30.0,1016.0,19.0,60.0
256.0,-4.0,25.0,20.0,113.0,27.0,1016.0,18.0,61.0
257.0,-3.0,26.0,26.0,112.0,26.0,1019.0,17.0,54.0
255.0,-6.0,26.0,27.0,115.0,22.0,1020.0,18.0,60.0
254.0,-6.0,24.0,27.0,114.0,19.0,1012.0,18.0,64.0
252.0,-4.0,27.0,28.0,112.0,18.0,1004.0,10.0,63.0
252.0,-7.0,22.0,28.0,110.0,16.0,1014.0,5.0,60.0
254.0,-7.0,28.0,29.0,112.0,12.0,1006.0,3.0,73.0
252.0,-5.0,29.0,34.0,108.0,11.0,1009.0,3.0,74.0
252.0,-8.0,28.0,37.0,97.0,7.0,1011.0,3.0,70.0
254.0,-7.0,28.0,35.0,91.0,0.0,1005.0,5.0,67.0
250.0,-5.0,26.0,32.0,87.0,-2.0,1000.0,10.0,66.0
251.0,-6.0,30.0,27.0,90.0,-3.0,1001.0,3.0,66.0
252.0,-13.0,28.0,24.0,90.0,-2.0,998.0,8.0,69.0
250.0,-7.0,23.0,17.0,91.0,-3.0,999.0,7.0,66.0
249.0,-7.0,30.0,10.0,91.0,-2.0,994.0,4.0,76.0
249.0,-7.0,28.0,2.0,80.0,-5.0,992.0,2.0,77.0
246.0,-6.0,30.0,-3.0,70.0,-6.0,996.0,4.0,75.0
253.0,-7.0,29.0,-4.0,60.0,-5.0,998.0,4.0,75.0
252.0,-9.0,28.0,-1.0,54.0,-4.0,999.0,1.0,74.0
252.0,-6.0,25.0,1.0,49.0,-7.0,1013.0,1.0,62.0
255.0,-6.0,22.0,1.0,47.0,-12.0,1019.0,2.0,61.0
254.0,-4.0,28.0,-4.0,40.0,-18.0,1020.0,6.0,64.0
257.0,-8.0,25.0,-11.0,38.0,-25.0,1020.0,9.0,59.0
256.0,-6.0,24.0,-14.0,41.0,-31.0,1023.0,6.0,58.0
258.0,-7.0,25.0,-12.0,48.0,-31.0,1025.0,5.0,56.0
257.0,-8.0,23.0,-6.0,51.0,-32.0,1025.0,3.0,62.0
258.0,-8.0,22.0,-2.0,56.0,-32.0,1034.0,4.0,56.0
257.0,-8.0,22.0,4.0,63.0,-30.0,1024.0,-5.0,57.0
258.0,-9.0,24.0,9.0,67.0,-28.0,1027.0,2.0,55.0
256.0,-10.0,23.0,14.0,71.0,-24.0,1025.0,0.0,57.0
259.0,-10.0,24.0,15.0,73.0,-24.0,1023.0,0.0,54.0
257.0,-5.0,22.0,16.0,73.0,-23.0,1022.0,1.0,52.0
258.0,-6.0,22.0,16.0,72.0,-24.0,1023.0,-1.0,50.0
257.0,-10.0,19.0,14.0,70.0,-27.0,1019.0,3.0,53.0
257.0,-3.0,18.0,13.0,70.0,-28.0,1020.0,2.0,54.0
254.0,-9.0,26.0,15.0,69.0,-28.0,1018.0,10.0,54.0
251.0,-7.0,20.0,19.0,71.0,-30.0,1012.0,9.0,49.0
254.0,-5.0,26.0,22.0,73.0,-32.0,1011.0,14.0,46.0
256.0,-6.0,22.0,26.0,76.0,-35.0,1020.0,17.0,51.0
256.0,-4.0,22.0,29.0,80.0,-34.0,1019.0,21.0,51.0
257.0,-4.0,24.0,29.0,85.0,-37.0,1018.0,27.0,51.0
257.0,-1.0,22.0,29.0,87.0,-36.0,1017.0,28.0,47.0
256.0,-1.0,21.0,29.0,90.0,-35.0,1019.0,29.0,47.0
257.0,-2.0,21.0,26.0,94.0,-36.0,1019.0,27.0,53.0
255.0,-1.0,20.0,26.0,97.0,-36.0,1027.0,27.0,49.0
257.0,-5.0,21.0,24.0,99.0,-35.0,1025.0,25.0,49.0
258.0,-1.0,21.0,24.0,101.0,-37.0,1022.0,22.0,47.0
256.0,-4.0,22.0,24.0,104.0,-37.0,1019.0,18.0,45.0
257.0,-5.0,23.0,27.0,106.0,-38.0,1024.0,28.0,45.0
257.0,-1.0,20.0,30.0,109.0,-42.0,1024.0,20.0,48.0
257.0,-4.0,21.0,32.0,109.0,-43.0,1019.0,25.0,46.0
257.0,-2.0,19.0,34.0,113.0,-46.0,1023.0,28.0,48.0
255.0,0.0,19.0,35.0,116.0,-47.0,1023.0,29.0,42.0
258.0,0.0,22.0,36.0,120.0,-50.0,1022.0,28.0,48.0
257.0,-3.0,18.0,36.0,125.0,-51.0,1021.0,29.0,44.0
256.0,-1.0,22.0,36.0,127.0,-52.0,1023.0,38.0,53.0
255.0,3.0,20.0,36.0,131.0,-49.0,1023.0,43.0,45.0
258.0,3.0,22.0,35.0,136.0,-48.0,1022.0,42.0,49.0
256.0,7.0,23.0,32.0,138.0,-45.0,1022.0,44.0,55.0
257.0,2.0,24.0,30.0,139.0,-43.0,1020.0,49.0,55.0
255.0,5.0,23.0,28.0,139.0,-41.0,1022.0,49.0,59.0
257.0,5.0,21.0,25.0,137.0,-39.0,1017.0,51.0,57.0
258.0,4.0,22.0,21.0,136.0,-34.0,1022.0,45.0,62.0
256.0,4.0,22.0,17.0,134.0,-34.0,1022.0,48.0,66.0
257.0,1.0,26.0,13.0,133.0,-31.0,1020.0,41.0,62.0
257.0,0.0,28.0,9.0,132.0,-29.0,1018.0,35.0,68.0
254.0,3.0,25.0,6.0,132.0,-24.0,1017.0,36.0,68.0
255.0,0.0,30.0,4.0,133.0,-22.0,1014.0,37.0,68.0
256.0,-1.0,27.0,4.0,132.0,-20.0,1018.0,37.0,72.0
255.0,5.0,25.0,5.0,132.0,-18.0,1016.0,41.0,66.0
256.0,0.0,27.0,7.0,130.0,-16.0,1021.0,38.0,72.0
256.0,-1.0,26.0,7.0,128.0,-12.0,1019.0,45.0,72.0
258.0,0.0,24.0,8.0,128.0,-12.0,1016.0,43.0,68.0
256.0,5.0,28.0,7.0,128.0,-12.0,1015.0,39.0,66.0
255.0,2.0,26.0,5.0,129.0,-11.0,1021.0,40.0,69.0
255.0,2.0,26.0,2.0,126.0,-9.0,1011.0,38.0,68.0
255.0,-1.0,26.0,0.0,125.0,-7.0,1011.0,41.0,70.0
253.0,0.0,25.0,-2.0,121.0,-4.0,1016.0,42.0,71.0
248.0,1.0,30.0,-2.0,120.0,-5.0,1012.0,38.0,70.0
255.0,0.0,28.0,-2.0,118.0,-5.0,1014.0,39.0,70.0
257.0,-2.0,25.0,1.0,119.0,-4.0,1018.0,36.0,72.0
252.0,6.0,29.0,1.0,118.0,-4.0,1015.0,38.0,73.0
256.0,1.0,28.0,1.0,122.0,-5.0,1020.0,42.0,73.0
256.0,0.0,28.0,2.0,124.0,-5.0,1018.0,40.0,70.0
255.0,0.0,30.0,3.0,127.0,-4.0,1017.0,34.0,69.0
255.0,2.0,27.0,3.0,129.0,-4.0,1014.0,34.0,70.0
258.0,-1.0,28.0,5.0,131.0,-4.0,1017.0,37.0,65.0
258.0,0.0,25.0,2.0,134.0,-3.0,1016.0,41.0,68.0
254.0,5.0,29.0,-1.0,134.0,-2.0,1015.0,40.0,72.0
255.0,1.0,27.0,-2.0,134.0,-1.0,1020.0,38.0,81.0
254.0,0.0,28.0,-1.0,130.0,-1.0,1015.0,36.0,76.0
255.0,-1.0,29.0,-3.0,126.0,-1.0,1006.0,36.0,80.0
253.0,-2.0,30.0,-4.0,122.0,-1.0,1011.0,32.0,78.0
256.0,-4.0,29.0,-5.0,119.0,-2.0,1009.0,29.0,89.0
255.0,-2.0,34.0,-5.0,118.0,-1.0,1014.0,32.0,83.0
254.0,-1.0,29.0,-5.0,117.0,0.0,1011.0,31.0,78.0
256.0,1.0,33.0,-6.0,116.0,-1.0,1011.0,26.0,86.0
252.0,-2.0,29.0,-6.0,111.0,-1.0,1015.0,29.0,87.0
253.0,-3.0,30.0,-4.0,108.0,0.0,1013.0,22.0,86.0
257.0,-6.0,32.0,0.0,105.0,1.0,1018.0,29.0,83.0
256.0,-1.0,30.0,1.0,103.0,2.0,1012.0,28.0,84.0
254.0,-1.0,27.0,3.0,100.0,4.0,1009.0,31.0,86.0
255.0,3.0,30.0,3.0,98.0,3.0,1012.0,30.0,79.0
255.0,-1.0,32.0,3.0,95.0,1.0,1013.0,32.0,79.0
253.0,-1.0,33.0,3.0,94.0,2.0,1012.0,33.0,85.0
252.0,0.0,33.0,3.0,91.0,1.0,1010.0,34.0,85.0
253.0,-2.0,27.0,1.0,87.0,1.0,1012.0,33.0,86.0
255.0,1.0,30.0,-1.0,87.0,0.0,1013.0,34.0,85.0
255.0,-2.0,27.0,-3.0,83.0,-2.0,1012.0,29.0,88.0
254.0,1.0,31.0,-8.0,84.0,-3.0,1010.0,28.0,90.0
255.0,-1.0,30.0,-10.0,82.0,-3.0,1011.0,29.0,79.0
256.0,-3.0,29.0,-14.0,80.0,-3.0,1014.0,31.0,86.0
256.0,-1.0,32.0,-17.0,77.0,-3.0,1011.0,34.0,77.0
255.0,-1.0,31.0,-20.0,78.0,-2.0,1016.0,32.0,84.0
257.0,-1.0,32.0,-21.0,77.0,-1.0,1015.0,31.0,84.0
255.0,-3.0,27.0,-24.0,77.0,-1.0,1012.0,29.0,84.0
255.0,0.0,32.0,-25.0,75.0,-1.0,1017.0,31.0,86.0
255.0,-5.0,30.0,-25.0,75.0,-1.0,1014.0,31.0,82.0
253.0,0.0,27.0,-26.0,74.0,-1.0,1016.0,28.0,81.0
256.0,-1.0,30.0,-28.0,72.0,-1.0,1020.0,34.0,83.0
255.0,0.0,28.0,-30.0,70.0,-1.0,1019.0,28.0,80.0
257.0,1.0,33.0,-30.0,70.0,-1.0,1016.0,30.0,84.0
258.0,-1.0,33.0,-31.0,66.0,-1.0,1016.0,28.0,84.0
255.0,-2.0,31.0,-30.0,64.0,0.0,1013.0,32.0,85.0
253.0,-3.0,32.0,-29.0,61.0,0.0,1014.0,23.0,85.0
256.0,-1.0,30.0,-28.0,59.0,-1.0,1014.0,30.0,81.0
255.0,0.0,25.0,-27.0,59.0,-1.0,1008.0,23.0,81.0
254.0,-1.0,27.0,-28.0,61.0,-2.0,1010.0,26.0,80.0
255.0,-1.0,32.0,-29.0,59.0,-2.0,1018.0,27.0,79.0
254.0,-2.0,29.0,-28.0,60.0,-2.0,1014.0,29.0,72.0
256.0,-4.0,33.0,-27.0,58.0,-2.0,1015.0,27.0,73.0
254.0,-1.0,28.0,-26.0,58.0,-4.0,1014.0,27.0,74.0
255.0,-1.0,28.0,-23.0,57.0,-5.0,1014.0,31.0,78.0
258.0,-1.0,29.0,-21.0,60.0,-7.0,1020.0,31.0,79.0
260.0,2.0,30.0,-15.0,71.0,-11.0,1021.0,34.0,79.0
254.0,1.0,29.0,-11.0,79.0,-13.0,1011.0,41.0,74.0
252.0,2.0,30.0,-17.0,77.0,-12.0,1017.0,32.0,71.0
256.0,0.0,30.0,-21.0,77.0,-13.0,1018.0,32.0,72.0
253.0,-3.0,31.0,-24.0,77.0,-12.0,1011.0,28.0,70.0
254.0,-4.0,26.0,-25.0,76.0,-9.0,1011.0,29.0,74.0
251.0,-2.0,28.0,-25.0,75.0,-7.0,1012.0,22.0,75.0
255.0,1.0,29.0,-23.0,73.0,-5.0,1019.0,26.0,83.0
254.0,-1.0,31.0,-21.0,73.0,-5.0,1007.0,27.0,80.0
254.0,-4.0,37.0,-16.0,72.0,-3.0,1009.0,30.0,81.0
253.0,2.0,31.0,-14.0,72.0,-3.0,1011.0,31.0,82.0
255.0,-3.0,25.0,-12.0,69.0,-2.0,1014.0,31.0,77.0
255.0,0.0,29.0,-12.0,68.0,-4.0,1012.0,30.0,83.0
254.0,2.0,31.0,-12.0,70.0,-4.0,1016.0,30.0,78.0
256.0,1.0,28.0,-12.0,69.0,-2.0,1015.0,32.0,81.0
255.0,-1.0,29.0,-13.0,70.0,-2.0,1015.0,30.0,83.0
254.0,-1.0,27.0,-14.0,70.0,-1.0,1020.0,30.0,78.0
257.0,0.0,27.0,-11.0,71.0,-1.0,1017.0,29.0,83.0
256.0,-1.0,32.0,-10.0,72.0,-2.0,1021.0,31.0,82.0
256.0,-3.0,28.0,-4.0,73.0,-3.0,1019.0,28.0,85.0
255.0,-1.0,32.0,3.0,72.0,-4.0,1020.0,31.0,88.0
255.0,0.0,29.0,9.0,71.0,-4.0,1018.0,30.0,82.0
255.0,-1.0,30.0,15.0,68.0,-4.0,1014.0,32.0,78.0
256.0,2.0,28.0,19.0,68.0,-4.0,1020.0,35.0,81.0
254.0,-2.0,30.0,22.0,71.0,-2.0,1013.0,28.0,74.0
255.0,2.0,30.0,27.0,78.0,0.0,1008.0,28.0,74.0
255.0,0.0,26.0,30.0,82.0,1.0,1017.0,30.0,81.0
256.0,-1.0,26.0,31.0,88.0,3.0,1018.0,34.0,72.0
257.0,-1.0,29.0,36.0,97.0,3.0,1022.0,31.0,77.0
257.0,-2.0,31.0,40.0,104.0,3.0,1016.0,33.0,78.0
258.0,-4.0,25.0,42.0,111.0,4.0,1016.0,30.0,76.0
250.0,3.0,27.0,41.0,111.0,6.0,1013.0,27.0,81.0
252.0,-1.0,31.0,41.0,107.0,7.0,1010.0,26.0,78.0
252.0,-1.0,31.0,39.0,100.0,8.0,1007.0,29.0,82.0
255.0,-1.0,30.0,35.0,96.0,8.0,1004.0,37.0,87.0
255.0,-1.0,36.0,34.0,94.0,8.0,1005.0,34.0,91.0
253.0,0.0,33.0,31.0,89.0,7.0,1009.0,36.0,90.0
253.0,1.0,33.0,28.0,86.0,6.0,1008.0,35.0,93.0
254.0,0.0,35.0,23.0,82.0,4.0,1007.0,36.0,93.0
251.0,1.0,35.0,21.0,78.0,5.0,1011.0,30.0,87.0
252.0,1.0,34.0,18.0,76.0,4.0,1015.0,29.0,91.0
256.0,-1.0,32.0,16.0,71.0,4.0,1017.0,30.0,85.0
253.0,1.0,32.0,13.0,66.0,2.0,1017.0,32.0,88.0
254.0,-1.0,31.0,15.0,60.0,2.0,1016.0,32.0,87.0
256.0,-2.0,33.0,18.0,55.0,2.0,1019.0,31.0,84.0
256.0,-1.0,32.0,24.0,55.0,2.0,1020.0,29.0,91.0
257.0,-1.0,33.0,38.0,57.0,3.0,1023.0,25.0,95.0
257.0,-1.0,29.0,51.0,56.0,1.0,1021.0,26.0,88.0
259.0,1.0,28.0,57.0,56.0,0.0,1024.0,37.0,80.0
257.0,2.0,29.0,54.0,64.0,-2.0,1020.0,41.0,77.0
256.0,0.0,31.0,47.0,72.0,0.0,1020.0,43.0,79.0
258.0,4.0,27.0,42.0,75.0,1.0,1014.0,45.0,74.0
253.0,7.0,28.0,33.0,71.0,-1.0,1021.0,38.0,73.0
256.0,3.0,28.0,24.0,65.0,-4.0,1019.0,43.0,79.0
256.0,-1.0,27.0,18.0,58.0,-4.0,1017.0,38.0,80.0
257.0,3.0,29.0,14.0,59.0,-1.0,1018.0,43.0,87.0
254.0,2.0,33.0,16.0,65.0,0.0,1017.0,43.0,77.0
254.0,1.0,29.0,16.0,69.0,3.0,1012.0,28.0,78.0
253.0,2.0,30.0,12.0,66.0,5.0,1009.0,36.0,85.0
256.0,-1.0,31.0,4.0,55.0,5.0,1017.0,36.0,73.0
253.0,2.0,28.0,-5.0,51.0,2.0,1011.0,33.0,72.0
253.0,-1.0,28.0,-13.0,51.0,2.0,1011.0,34.0,74.0
255.0,-2.0,26.0,-21.0,55.0,3.0,1013.0,32.0,75.0
256.0,-3.0,29.0,-26.0,59.0,4.0,1008.0,37.0,78.0
252.0,0.0,30.0,-25.0,62.0,5.0,1012.0,34.0,85.0
256.0,1.0,27.0,-27.0,59.0,5.0,1014.0,37.0,74.0
255.0,2.0,28.0,-27.0,58.0,2.0,1012.0,36.0,79.0
256.0,-1.0,29.0,-28.0,57.0,2.0,1013.0,32.0,82.0
255.0,-2.0,29.0,-28.0,51.0,4.0,1012.0,35.0,87.0
253.0,0.0,30.0,-29.0,42.0,4.0,1014.0,29.0,81.0
254.0,-2.0,26.0,-28.0,36.0,4.0,1011.0,30.0,75.0
253.0,-2.0,30.0,-29.0,39.0,3.0,1009.0,27.0,74.0
253.0,-1.0,28.0,-30.0,42.0,5.0,1008.0,29.0,80.0
252.0,0.0,28.0,-29.0,43.0,7.0,1009.0,29.0,75.0
258.0,1.0,46.0,-28.0,46.0,6.0,1008.0,28.0,75.0
254.0,-2.0,29.0,-28.0,45.0,7.0,1016.0,34.0,80.0
255.0,0.0,26.0,-27.0,44.0,7.0,1017.0,29.0,74.0
255.0,0.0,28.0,-25.0,44.0,5.0,1018.0,35.0,71.0
257.0,-1.0,26.0,-25.0,43.0,3.0,1021.0,35.0,72.0
255.0,-1.0,30.0,-26.0,45.0,0.0,1018.0,33.0,78.0
256.0,0.0,32.0,-24.0,42.0,-1.0,1021.0,37.0,79.0
255.0,1.0,31.0,-23.0,36.0,-4.0,1020.0,31.0,72.0
254.0,1.0,25.0,-26.0,36.0,-7.0,1014.0,30.0,64.0
256.0,-1.0,25.0,-29.0,45.0,-5.0,1014.0,29.0,70.0
254.0,-2.0,30.0,-31.0,51.0,-5.0,1016.0,29.0,74.0
256.0,1.0,27.0,-31.0,56.0,-4.0,1016.0,34.0,75.0
254.0,-1.0,33.0,-27.0,60.0,-4.0,1014.0,28.0,72.0
257.0,-2.0,28.0,-24.0,63.0,-5.0,1019.0,30.0,73.0
257.0,-1.0,27.0,-20.0,66.0,-4.0,1019.0,26.0,82.0
257.0,-1.0,28.0,-17.0,67.0,0.0,1018.0,27.0,79.0
256.0,-2.0,32.0,-15.0,63.0,2.0,1021.0,27.0,84.0
257.0,-2.0,32.0,-13.0,60.0,1.0,1019.0,28.0,76.0
255.0,-3.0,28.0,-9.0,55.0,1.0,1020.0,29.0,81.0
254.0,2.0,30.0,-7.0,48.0,3.0,1015.0,27.0,73.0
252.0,-1.0,30.0,-6.0,40.0,3.0,1010.0,29.0,83.0
255.0,-3.0,31.0,-5.0,32.0,2.0,1008.0,22.0,74.0
258.0,-5.0,25.0,0.0,27.0,1.0,1010.0,29.0,80.0
253.0,-5.0,28.0,3.0,28.0,1.0,1009.0,26.0,79.0
255.0,1.0,30.0,4.0,29.0,1.0,1011.0,27.0,87.0
256.0,-2.0,29.0,3.0,30.0,1.0,1010.0,27.0,81.0
258.0,-2.0,32.0,4.0,25.0,-2.0,1019.0,28.0,89.0
256.0,0.0,30.0,8.0,14.0,-7.0,1026.0,28.0,87.0
259.0,-3.0,33.0,14.0,-1.0,-13.0,1031.0,26.0,87.0
260.0,1.0,32.0,26.0,-23.0,-19.0,1031.0,25.0,81.0
261.0,-2.0,28.0,41.0,-46.0,-25.0,1034.0,31.0,69.0
260.0,3.0,23.0,59.0,-58.0,-27.0,1034.0,31.0,62.0
257.0,1.0,22.0,73.0,-66.0,-29.0,1030.0,35.0,44.0
257.0,1.0,21.0,79.0,-61.0,-20.0,1026.0,30.0,38.0
259.0,-2.0,21.0,76.0,-55.0,-11.0,1024.0,30.0,41.0
256.0,-1.0,22.0,74.0,-43.0,-5.0,1021.0,32.0,43.0
254.0,-2.0,21.0,73.0,-18.0,-4.0,1010.0,30.0,53.0
255.0,1.0,23.0,70.0,11.0,-5.0,1005.0,32.0,59.0
257.0,-2.0,26.0,62.0,39.0,-8.0,1013.0,38.0,62.0
255.0,1.0,25.0,52.0,66.0,-14.0,1019.0,40.0,68.0
253.0,5.0,29.0,40.0,95.0,-19.0,1006.0,42.0,74.0
253.0,2.0,31.0,24.0,115.0,-16.0,1010.0,38.0,66.0
254.0,3.0,30.0,7.0,125.0,-12.0,1005.0,40.0,79.0
253.0,1.0,27.0,-3.0,127.0,-12.0,1006.0,32.0,76.0
249.0,4.0,25.0,-3.0,122.0,-15.0,1004.0,37.0,75.0
251.0,1.0,27.0,-2.0,109.0,-14.0,1003.0,40.0,68.0
250.0,0.0,28.0,2.0,90.0,-10.0,1002.0,32.0,70.0
250.0,-1.0,24.0,7.0,70.0,-3.0,1004.0,34.0,72.0
255.0,-3.0,27.0,15.0,50.0,6.0,1001.0,26.0,68.0
252.0,-2.0,25.0,25.0,31.0,10.0,1010.0,33.0,70.0
252.0,-1.0,26.0,33.0,16.0,9.0,1018.0,30.0,70.0
254.0,4.0,24.0,38.0,1.0,4.0,1014.0,34.0,66.0
256.0,1.0,25.0,39.0,-2.0,2.0,1012.0,41.0,63.0
254.0,4.0,24.0,37.0,-3.0,-1.0,1011.0,37.0,61.0
254.0,4.0,25.0,33.0,-1.0,-6.0,1012.0,45.0,67.0
256.0,2.0,26.0,27.0,6.0,-12.0,1020.0,36.0,64.0
256.0,1.0,24.0,19.0,18.0,-13.0,1015.0,37.0,66.0
256.0,1.0,26.0,11.0,31.0,-12.0,1016.0,33.0,67.0
256.0,0.0,27.0,1.0,44.0,-10.0,1013.0,32.0,70.0
254.0,-3.0,27.0,-5.0,54.0,-8.0,1013.0,32.0,66.0
253.0,0.0,28.0,-6.0,63.0,-5.0,1009.0,35.0,70.0
255.0,0.0,25.0,-4.0,69.0,-5.0,1010.0,30.0,66.0
256.0,-1.0,25.0,-2.0,74.0,-2.0,1012.0,29.0,66.0
254.0,2.0,26.0,1.0,77.0,-1.0,1013.0,32.0,67.0
251.0,2.0,28.0,1.0,77.0,-2.0,1011.0,34.0,71.0
255.0,1.0,26.0,1.0,76.0,-2.0,1017.0,40.0,66.0
252.0,-1.0,22.0,-3.0,76.0,0.0,1015.0,34.0,68.0
256.0,-4.0,26.0,-5.0,74.0,5.0,1019.0,36.0,71.0
256.0,1.0,25.0,-8.0,72.0,6.0,1018.0,29.0,70.0
258.0,-3.0,25.0,-10.0,67.0,11.0,1015.0,31.0,70.0
255.0,-1.0,34.0,-9.0,60.0,14.0,1019.0,29.0,70.0
254.0,-1.0,31.0,-7.0,53.0,16.0,1021.0,29.0,81.0
254.0,0.0,32.0,-3.0,42.0,17.0,1021.0,31.0,76.0
257.0,-1.0,30.0,-1.0,28.0,18.0,1025.0,32.0,69.0
256.0,1.0,25.0,-1.0,21.0,17.0,1017.0,37.0,69.0
255.0,-1.0,28.0,-2.0,14.0,18.0,1025.0,30.0,77.0
257.0,-2.0,29.0,-2.0,6.0,16.0,1024.0,37.0,67.0
257.0,0.0,23.0,-2.0,6.0,13.0,1020.0,36.0,59.0
256.0,0.0,23.0,-7.0,13.0,11.0,1020.0,32.0,62.0
255.0,1.0,25.0,-13.0,20.0,11.0,1020.0,38.0,64.0
256.0,4.0,27.0,-20.0,26.0,10.0,1017.0,39.0,65.0
255.0,1.0,27.0,-24.0,31.0,7.0,1020.0,41.0,65.0
257.0,1.0,27.0,-29.0,33.0,5.0,1022.0,44.0,72.0
256.0,0.0,24.0,-30.0,34.0,-1.0,1021.0,41.0,67.0
256.0,3.0,18.0,-37.0,37.0,-2.0,1017.0,43.0,63.0
256.0,0.0,22.0,-45.0,46.0,-2.0,1014.0,35.0,55.0
257.0,-2.0,23.0,-53.0,52.0,0.0,1020.0,37.0,61.0
249.0,-1.0,25.0,-57.0,55.0,4.0,1016.0,34.0,67.0
255.0,-4.0,28.0,-57.0,52.0,5.0,1012.0,34.0,65.0
255.0,0.0,28.0,-58.0,47.0,8.0,1012.0,33.0,68.0
257.0,-4.0,28.0,-59.0,40.0,13.0,1015.0,25.0,70.0
254.0,-2.0,29.0,-56.0,29.0,16.0,1018.0,34.0,73.0
257.0,-3.0,26.0,-52.0,16.0,19.0,1021.0,18.0,68.0
257.0,-3.0,26.0,-48.0,8.0,18.0,1021.0,18.0,69.0
256.0,-1.0,27.0,-46.0,2.0,18.0,1020.0,24.0,62.0
257.0,-5.0,21.0,-42.0,-9.0,21.0,1018.0,21.0,70.0
254.0,-4.0,26.0,-34.0,-17.0,17.0,1024.0,21.0,66.0
257.0,-5.0,25.0,-28.0,-24.0,13.0,1022.0,21.0,58.0
257.0,-3.0,21.0,-23.0,-27.0,10.0,1024.0,20.0,50.0
256.0,-1.0,20.0,-22.0,-19.0,5.0,1019.0,27.0,46.0
256.0,-4.0,20.0,-19.0,-10.0,1.0,1016.0,29.0,45.0
255.0,-1.0,15.0,-20.0,-2.0,-1.0,1016.0,33.0,41.0
256.0,1.0,19.0,-22.0,11.0,-4.0,1008.0,37.0,41.0
255.0,0.0,17.0,-27.0,30.0,-4.0,1010.0,45.0,41.0
254.0,0.0,20.0,-32.0,45.0,-3.0,1011.0,46.0,41.0
253.0,4.0,25.0,-32.0,58.0,-3.0,1010.0,39.0,45.0
254.0,0.0,24.0,-31.0,65.0,-1.0,1012.0,37.0,50.0
255.0,0.0,21.0,-28.0,71.0,1.0,1014.0,35.0,52.0
255.0,1.0,25.0,-29.0,72.0,4.0,1016.0,40.0,55.0
258.0,6.0,20.0,-31.0,69.0,5.0,1016.0,35.0,58.0
255.0,-2.0,24.0,-36.0,67.0,5.0,1014.0,33.0,61.0
255.0,-1.0,25.0,-41.0,63.0,5.0,1017.0,37.0,62.0
256.0,0.0,28.0,-50.0,59.0,7.0,1020.0,32.0,66.0
255.0,1.0,24.0,-58.0,53.0,10.0,1014.0,30.0,70.0
255.0,-1.0,29.0,-66.0,47.0,11.0,1016.0,33.0,76.0
256.0,-4.0,27.0,-70.0,41.0,12.0,1021.0,17.0,73.0
256.0,-4.0,26.0,-74.0,36.0,10.0,1020.0,20.0,70.0
258.0,-4.0,28.0,-76.0,31.0,11.0,1018.0,19.0,73.0
256.0,-4.0,32.0,-72.0,19.0,11.0,1023.0,19.0,85.0
259.0,-2.0,27.0,-61.0,8.0,3.0,1033.0,19.0,69.0
256.0,-1.0,27.0,-51.0,9.0,-6.0,1024.0,23.0,66.0
257.0,-2.0,23.0,-46.0,12.0,-7.0,1028.0,19.0,60.0
258.0,-4.0,19.0,-43.0,13.0,-7.0,1023.0,18.0,44.0
258.0,-3.0,18.0,-41.0,20.0,-5.0,1022.0,22.0,42.0
257.0,-4.0,20.0,-34.0,28.0,-6.0,1016.0,17.0,44.0
254.0,-3.0,17.0,-22.0,36.0,-7.0,1023.0,19.0,39.0
253.0,-4.0,13.0,-8.0,44.0,-9.0,1010.0,23.0,40.0
253.0,-3.0,17.0,6.0,43.0,-11.0,1009.0,23.0,31.0
254.0,-2.0,17.0,21.0,43.0,-10.0,1009.0,28.0,35.0
252.0,-2.0,14.0,35.0,39.0,-10.0,1014.0,30.0,32.0
254.0,3.0,17.0,47.0,36.0,-12.0,1009.0,37.0,33.0
258.0,1.0,26.0,54.0,37.0,-13.0,1012.0,36.0,32.0
255.0,0.0,19.0,55.0,41.0,-12.0,1017.0,38.0,39.0
258.0,1.0,22.0,54.0,44.0,-11.0,1019.0,38.0,43.0
256.0,1.0,20.0,49.0,46.0,-11.0,1019.0,39.0,40.0
258.0,1.0,19.0,43.0,48.0,-10.0,1022.0,44.0,50.0
257.0,1.0,22.0,35.0,49.0,-10.0,1024.0,40.0,52.0
257.0,3.0,22.0,27.0,50.0,-7.0,1022.0,40.0,57.0
258.0,3.0,22.0,18.0,49.0,-4.0,1017.0,41.0,60.0
256.0,2.0,25.0,8.0,48.0,-4.0,1015.0,41.0,58.0
256.0,4.0,24.0,-1.0,46.0,-1.0,1019.0,43.0,55.0
255.0,-1.0,24.0,-2.0,46.0,-1.0,1016.0,31.0,60.0
256.0,1.0,26.0,-2.0,47.0,0.0,1019.0,32.0,57.0
258.0,-4.0,24.0,-4.0,43.0,2.0,1021.0,34.0,54.0
259.0,-3.0,24.0,-3.0,39.0,1.0,1017.0,31.0,61.0
257.0,1.0,24.0,-1.0,35.0,1.0,1018.0,29.0,53.0
257.0,-2.0,21.0,0.0,28.0,-2.0,1022.0,21.0,52.0
256.0,-4.0,20.0,2.0,22.0,-5.0,1019.0,20.0,52.0
257.0,0.0,22.0,0.0,21.0,-2.0,1018.0,28.0,45.0
254.0,-1.0,22.0,-4.0,23.0,-2.0,1019.0,40.0,46.0
255.0,-2.0,21.0,-7.0,24.0,-2.0,1022.0,37.0,47.0
257.0,1.0,21.0,-8.0,25.0,-3.0,1019.0,33.0,46.0
255.0,-2.0,21.0,-9.0,26.0,-3.0,1018.0,34.0,44.0
255.0,-9.0,25.0,-11.0,27.0,-4.0,1020.0,36.0,43.0
258.0,0.0,20.0,-13.0,33.0,-3.0,1019.0,37.0,39.0
256.0,-2.0,15.0,-15.0,35.0,-1.0,1023.0,34.0,39.0
257.0,0.0,20.0,-15.0,42.0,1.0,1019.0,33.0,38.0
255.0,1.0,21.0,-17.0,46.0,0.0,1014.0,37.0,39.0
257.0,-2.0,20.0,-17.0,50.0,2.0,1016.0,36.0,42.0
257.0,-5.0,19.0,-15.0,53.0,0.0,1015.0,30.0,44.0
257.0,-5.0,19.0,-15.0,55.0,1.0,1015.0,30.0,42.0
255.0,0.0,22.0,-13.0,57.0,1.0,1014.0,29.0,38.0
254.0,-1.0,17.0,-13.0,58.0,0.0,1015.0,29.0,46.0
256.0,-1.0,22.0,-15.0,60.0,0.0,1020.0,26.0,43.0
256.0,0.0,19.0,-15.0,61.0,0.0,1021.0,28.0,46.0
257.0,-2.0,18.0,-17.0,62.0,0.0,1017.0,23.0,51.0
258.0,-3.0,20.0,-17.0,65.0,0.0,1017.0,23.0,44.0
255.0,-3.0,21.0,-18.0,64.0,0.0,1017.0,26.0,47.0
259.0,-1.0,20.0,-17.0,64.0,1.0,1019.0,26.0,51.0
255.0,-1.0,21.0,-16.0,63.0,2.0,1018.0,29.0,48.0
256.0,3.0,18.0,-14.0,62.0,2.0,1018.0,30.0,45.0
256.0,0.0,20.0,-16.0,62.0,0.0,1020.0,31.0,48.0
254.0,0.0,23.0,-18.0,63.0,-2.0,1016.0,30.0,47.0
259.0,-2.0,19.0,-20.0,65.0,-3.0,1019.0,28.0,48.0
254.0,-2.0,20.0,-20.0,66.0,-3.0,1011.0,29.0,45.0
253.0,-5.0,24.0,-22.0,68.0,-5.0,1016.0,30.0,47.0
254.0,-2.0,20.0,-22.0,69.0,-6.0,1017.0,31.0,44.0
255.0,-1.0,22.0,-21.0,71.0,-6.0,1019.0,30.0,44.0
254.0,0.0,20.0,-21.0,74.0,-8.0,1018.0,33.0,44.0
256.0,-2.0,19.0,-20.0,76.0,-9.0,1018.0,26.0,45.0
255.0,-2.0,20.0,-19.0,78.0,-6.0,1021.0,29.0,45.0
257.0,-5.0,22.0,-17.0,79.0,-6.0,1023.0,30.0,41.0
255.0,-3.0,17.0,-15.0,81.0,-5.0,1017.0,25.0,50.0
256.0,-3.0,17.0,-12.0,81.0,-5.0,1019.0,29.0,44.0
257.0,1.0,19.0,-9.0,82.0,-5.0,1020.0,29.0,49.0
256.0,-1.0,20.0,-6.0,82.0,-4.0,1022.0,33.0,46.0
257.0,-1.0,20.0,-5.0,81.0,-5.0,1023.0,28.0,41.0
255.0,-1.0,20.0,-4.0,83.0,-7.0,1022.0,29.0,44.0
257.0,-3.0,21.0,-5.0,83.0,-6.0,1025.0,30.0,43.0
257.0,-1.0,19.0,-5.0,85.0,-6.0,1021.0,30.0,45.0
256.0,-1.0,19.0,-6.0,85.0,-6.0,1022.0,33.0,41.0
255.0,-3.0,19.0,-7.0,87.0,-5.0,1022.0,36.0,36.0
254.0,2.0,15.0,-10.0,89.0,-5.0,1023.0,33.0,45.0
257.0,-2.0,22.0,-13.0,91.0,-4.0,1022.0,29.0,50.0
255.0,-2.0,25.0,-11.0,92.0,-3.0,1018.0,27.0,47.0
257.0,-2.0,23.0,-7.0,92.0,-2.0,1019.0,30.0,46.0
256.0,-2.0,21.0,0.0,90.0,-1.0,1020.0,20.0,50.0
255.0,-5.0,23.0,6.0,90.0,-1.0,1021.0,28.0,50.0
256.0,1.0,20.0,12.0,89.0,-1.0,1019.0,27.0,52.0
254.0,0.0,24.0,16.0,90.0,-2.0,1022.0,28.0,47.0
257.0,2.0,21.0,14.0,90.0,-2.0,1018.0,29.0,51.0
258.0,-2.0,23.0,10.0,91.0,-5.0,1020.0,35.0,47.0
256.0,-1.0,24.0,6.0,92.0,-7.0,1021.0,36.0,50.0
256.0,-2.0,21.0,0.0,92.0,-8.0,1015.0,32.0,48.0
254.0,0.0,19.0,-7.0,92.0,-9.0,1016.0,34.0,54.0
255.0,0.0,21.0,-12.0,92.0,-9.0,1014.0,41.0,49.0
254.0,0.0,21.0,-15.0,92.0,-9.0,1017.0,37.0,47.0
256.0,1.0,22.0,-16.0,92.0,-9.0,1018.0,39.0,51.0
257.0,-2.0,21.0,-14.0,92.0,-8.0,1019.0,33.0,46.0
255.0,1.0,20.0,-13.0,92.0,-8.0,1017.0,34.0,54.0
252.0,1.0,17.0,-12.0,93.0,-8.0,1020.0,36.0,48.0
255.0,0.0,22.0,-11.0,93.0,-6.0,1014.0,32.0,45.0
255.0,1.0,22.0,-10.0,94.0,-6.0,1017.0,29.0,50.0
255.0,-5.0,23.0,-10.0,94.0,-6.0,1022.0,30.0,46.0
257.0,-3.0,18.0,-8.0,96.0,-5.0,1018.0,27.0,43.0
254.0,-4.0,23.0,-9.0,96.0,-4.0,1016.0,24.0,47.0
256.0,-2.0,24.0,-8.0,98.0,-4.0,1017.0,26.0,49.0
256.0,-1.0,20.0,-10.0,100.0,-5.0,1017.0,31.0,49.0
252.0,-2.0,20.0,-9.0,101.0,-4.0,1015.0,30.0,47.0
254.0,2.0,21.0,-11.0,103.0,-5.0,1016.0,29.0,51.0
254.0,0.0,21.0,-13.0,106.0,-5.0,1015.0,33.0,52.0
254.0,1.0,23.0,-15.0,108.0,-5.0,1017.0,33.0,53.0
253.0,5.0,21.0,-18.0,112.0,-7.0,1015.0,32.0,53.0
255.0,1.0,21.0,-18.0,115.0,-8.0,1014.0,36.0,56.0
256.0,2.0,26.0,-22.0,118.0,-8.0,1020.0,39.0,58.0
258.0,-2.0,24.0,-22.0,119.0,-8.0,1017.0,35.0,59.0
255.0,0.0,22.0,-22.0,118.0,-9.0,1022.0,31.0,56.0
258.0,1.0,20.0,-21.0,117.0,-9.0,1019.0,38.0,55.0
256.0,-2.0,19.0,-22.0,116.0,-7.0,1021.0,32.0,56.0
254.0,2.0,24.0,-21.0,115.0,-7.0,1023.0,31.0,52.0
257.0,-1.0,22.0,-20.0,115.0,-5.0,1020.0,31.0,52.0
256.0,0.0,21.0,-17.0,116.0,-4.0,1022.0,27.0,52.0
256.0,-3.0,22.0,-15.0,117.0,-3.0,1022.0,34.0,55.0
257.0,2.0,24.0,-14.0,115.0,-5.0,1018.0,31.0,54.0
255.0,1.0,18.0,-14.0,114.0,-7.0,1019.0,34.0,54.0
256.0,-1.0,23.0,-15.0,114.0,-8.0,1017.0,36.0,56.0
256.0,-1.0,24.0,-17.0,116.0,-8.0,1015.0,34.0,58.0
256.0,0.0,25.0,-18.0,115.0,-7.0,1017.0,32.0,57.0
255.0,-2.0,22.0,-18.0,116.0,-8.0,1019.0,34.0,64.0
255.0,3.0,24.0,-17.0,115.0,-8.0,1020.0,30.0,59.0
262.0,-1.0,24.0,-14.0,115.0,-7.0,1018.0,28.0,57.0
259.0,-2.0,23.0,-11.0,113.0,-6.0,1021.0,29.0,56.0
256.0,-3.0,24.0,-10.0,109.0,-6.0,1021.0,28.0,55.0
255.0,-2.0,22.0,-8.0,110.0,-7.0,1016.0,31.0,53.0
254.0,1.0,23.0,-2.0,111.0,-7.0,1021.0,29.0,48.0
256.0,-3.0,21.0,2.0,116.0,-8.0,1017.0,33.0,50.0
260.0,-5.0,21.0,5.0,121.0,-11.0,1018.0,30.0,51.0
256.0,-1.0,21.0,4.0,124.0,-11.0,1020.0,30.0,54.0
255.0,0.0,21.0,4.0,129.0,-12.0,1020.0,33.0,53.0
256.0,-1.0,25.0,2.0,135.0,-11.0,1021.0,32.0,61.0
256.0,-2.0,27.0,2.0,140.0,-12.0,1018.0,34.0,57.0
255.0,-1.0,23.0,2.0,144.0,-14.0,1020.0,33.0,55.0
255.0,0.0,28.0,2.0,148.0,-15.0,1015.0,35.0,60.0
256.0,-1.0,24.0,5.0,150.0,-11.0,1022.0,31.0,66.0
255.0,-1.0,28.0,7.0,150.0,-10.0,1017.0,33.0,67.0
254.0,-1.0,26.0,7.0,149.0,-9.0,1014.0,32.0,65.0
255.0,1.0,27.0,5.0,147.0,-8.0,1014.0,32.0,63.0
256.0,0.0,26.0,0.0,149.0,-9.0,1009.0,34.0,72.0
252.0,3.0,28.0,-8.0,151.0,-8.0,1008.0,36.0,82.0
255.0,-1.0,28.0,-12.0,146.0,-5.0,1008.0,31.0,79.0
254.0,0.0,33.0,-17.0,142.0,-6.0,1011.0,30.0,82.0
254.0,-2.0,27.0,-20.0,135.0,-5.0,1010.0,29.0,78.0
256.0,-5.0,26.0,-20.0,131.0,-5.0,1017.0,26.0,82.0
255.0,-2.0,30.0,-19.0,125.0,-6.0,1012.0,26.0,75.0
257.0,-6.0,30.0,-18.0,120.0,-7.0,1020.0,28.0,76.0
254.0,-2.0,30.0,-16.0,115.0,-8.0,1014.0,30.0,68.0
256.0,-2.0,30.0,-12.0,111.0,-10.0,1021.0,27.0,70.0
254.0,-4.0,25.0,-9.0,110.0,-12.0,1021.0,37.0,65.0
257.0,0.0,27.0,-8.0,109.0,-16.0,1021.0,30.0,63.0
256.0,-1.0,27.0,-5.0,112.0,-15.0,1023.0,28.0,67.0
257.0,-1.0,28.0,-3.0,113.0,-16.0,1021.0,28.0,66.0
257.0,-3.0,22.0,1.0,115.0,-16.0,1023.0,29.0,66.0
256.0,1.0,24.0,4.0,117.0,-16.0,1015.0,30.0,70.0
257.0,-2.0,25.0,7.0,117.0,-16.0,1020.0,35.0,60.0
254.0,-1.0,26.0,7.0,118.0,-15.0,1016.0,38.0,66.0
255.0,1.0,27.0,8.0,120.0,-14.0,1017.0,33.0,61.0
253.0,5.0,28.0,6.0,126.0,-16.0,1017.0,41.0,69.0
256.0,1.0,26.0,4.0,128.0,-16.0,1016.0,41.0,70.0
256.0,3.0,25.0,2.0,130.0,-17.0,1017.0,39.0,69.0
253.0,3.0,30.0,-1.0,134.0,-17.0,1011.0,38.0,68.0
255.0,3.0,28.0,-3.0,133.0,-14.0,1013.0,43.0,77.0
255.0,2.0,26.0,-4.0,131.0,-13.0,1012.0,43.0,77.0
252.0,1.0,29.0,-5.0,128.0,-10.0,1016.0,39.0,80.0
256.0,3.0,34.0,-6.0,121.0,-9.0,1014.0,48.0,79.0
257.0,-1.0,32.0,-8.0,115.0,-9.0,1015.0,38.0,83.0
256.0,2.0,27.0,-9.0,112.0,-9.0,1020.0,41.0,82.0
254.0,4.0,28.0,-14.0,110.0,-7.0,1019.0,41.0,82.0
256.0,1.0,32.0,-18.0,109.0,-6.0,1020.0,35.0,78.0
255.0,3.0,30.0,-20.0,106.0,-3.0,1019.0,33.0,78.0
259.0,-1.0,31.0,-20.0,105.0,0.0,1017.0,35.0,84.0
255.0,-1.0,30.0,-17.0,102.0,1.0,1020.0,29.0,81.0
256.0,-1.0,27.0,-14.0,99.0,1.0,1020.0,34.0,79.0
255.0,-1.0,27.0,-13.0,99.0,1.0,1015.0,32.0,79.0
255.0,1.0,27.0,-14.0,97.0,1.0,1016.0,32.0,77.0
256.0,1.0,28.0,-16.0,97.0,1.0,1020.0,38.0,80.0
252.0,3.0,29.0,-18.0,98.0,1.0,1017.0,39.0,71.0
255.0,0.0,30.0,-19.0,99.0,0.0,1017.0,38.0,75.0
256.0,1.0,29.0,-24.0,101.0,-2.0,1015.0,26.0,70.0
254.0,1.0,25.0,-27.0,101.0,-4.0,1017.0,41.0,77.0
255.0,-1.0,30.0,-27.0,102.0,-6.0,1015.0,33.0,74.0
256.0,1.0,29.0,-24.0,102.0,-5.0,1010.0,35.0,80.0
255.0,2.0,29.0,-21.0,100.0,-5.0,1015.0,37.0,77.0
256.0,1.0,32.0,-17.0,98.0,-7.0,1009.0,34.0,77.0
256.0,-2.0,29.0,-17.0,99.0,-8.0,1010.0,39.0,73.0
254.0,1.0,26.0,-18.0,103.0,-8.0,1009.0,34.0,70.0
258.0,-3.0,35.0,-20.0,107.0,-10.0,1012.0,37.0,78.0
254.0,-1.0,31.0,-21.0,109.0,-11.0,1010.0,37.0,78.0
255.0,1.0,29.0,-22.0,110.0,-10.0,1017.0,38.0,76.0
252.0,5.0,27.0,-22.0,107.0,-10.0,1013.0,37.0,78.0
255.0,-2.0,29.0,-20.0,104.0,-10.0,1017.0,33.0,81.0
255.0,-2.0,31.0,-18.0,103.0,-11.0,1013.0,31.0,71.0
255.0,-1.0,33.0,-18.0,103.0,-9.0,1013.0,30.0,80.0
257.0,-3.0,28.0,-17.0,102.0,-7.0,1016.0,33.0,79.0
253.0,-1.0,30.0,-17.0,101.0,-6.0,1017.0,27.0,79.0
257.0,-1.0,28.0,-15.0,100.0,-6.0,1015.0,30.0,85.0
255.0,-1.0,30.0,-13.0,100.0,-5.0,1013.0,35.0,80.0
257.0,3.0,28.0,-10.0,99.0,-6.0,1016.0,34.0,84.0
251.0,0.0,32.0,-6.0,102.0,-6.0,1022.0,34.0,77.0
256.0,2.0,32.0,-5.0,101.0,-7.0,1011.0,37.0,81.0
253.0,0.0,31.0,-3.0,102.0,-9.0,1011.0,42.0,83.0
255.0,3.0,31.0,-3.0,103.0,-11.0,1011.0,36.0,83.0
254.0,0.0,29.0,-5.0,106.0,-13.0,1015.0,37.0,78.0
256.0,5.0,28.0,-8.0,109.0,-12.0,1014.0,41.0,84.0
255.0,0.0,31.0,-11.0,111.0,-12.0,1009.0,38.0,87.0
254.0,-1.0,32.0,-16.0,113.0,-13.0,1009.0,34.0,86.0
256.0,1.0,30.0,-18.0,113.0,-14.0,1013.0,38.0,84.0
256.0,5.0,29.0,-19.0,116.0,-13.0,1013.0,38.0,86.0
260.0,0.0,35.0,-20.0,116.0,-12.0,1011.0,37.0,84.0
254.0,0.0,30.0,-22.0,117.0,-11.0,1016.0,34.0,88.0
256.0,-2.0,30.0,-23.0,117.0,-8.0,1015.0,33.0,87.0
256.0,3.0,27.0,-23.0,116.0,-6.0,1016.0,31.0,83.0
255.0,0.0,31.0,-24.0,118.0,-6.0,1020.0,40.0,86.0
257.0,0.0,35.0,-24.0,117.0,-4.0,1018.0,38.0,88.0
256.0,2.0,33.0,-26.0,114.0,-3.0,1021.0,41.0,87.0
254.0,7.0,31.0,-29.0,110.0,-3.0,1020.0,43.0,83.0
256.0,-1.0,32.0,-35.0,105.0,-5.0,1020.0,49.0,87.0
256.0,3.0,32.0,-38.0,98.0,-9.0,1021.0,47.0,91.0
256.0,3.0,33.0,-41.0,92.0,-13.0,1021.0,49.0,87.0
255.0,7.0,29.0,-45.0,86.0,-16.0,1017.0,50.0,88.0
256.0,3.0,32.0,-49.0,78.0,-20.0,1014.0,47.0,90.0
253.0,4.0,32.0,-52.0,69.0,-21.0,1014.0,48.0,91.0
254.0,2.0,30.0,-53.0,64.0,-20.0,1017.0,42.0,88.0
256.0,-2.0,33.0,-51.0,59.0,-19.0,1015.0,37.0,90.0
255.0,-1.0,30.0,-46.0,58.0,-18.0,1016.0,34.0,85.0
255.0,-3.0,33.0,-41.0,59.0,-13.0,1013.0,28.0,84.0
257.0,-4.0,31.0,-38.0,61.0,-11.0,1015.0,25.0,80.0
256.0,-1.0,29.0,-34.0,64.0,-7.0,1015.0,30.0,84.0
255.0,-1.0,30.0,-30.0,69.0,-5.0,1013.0,25.0,81.0
257.0,-2.0,28.0,-24.0,74.0,-2.0,1008.0,27.0,88.0
254.0,-8.0,21.0,-19.0,78.0,1.0,1011.0,26.0,79.0
256.0,-3.0,28.0,-15.0,86.0,2.0,1012.0,30.0,78.0
254.0,1.0,29.0,-13.0,94.0,2.0,1014.0,21.0,81.0
256.0,2.0,28.0,-11.0,105.0,1.0,1008.0,32.0,76.0
255.0,2.0,30.0,-13.0,116.0,-2.0,1012.0,39.0,79.0
255.0,1.0,26.0,-14.0,122.0,-5.0,1012.0,33.0,80.0
255.0,1.0,28.0,-15.0,129.0,-8.0,1010.0,37.0,83.0
255.0,1.0,32.0,-16.0,132.0,-10.0,1013.0,37.0,89.0
254.0,2.0,31.0,-16.0,134.0,-10.0,1008.0,36.0,91.0
253.0,0.0,32.0,-14.0,134.0,-12.0,1013.0,35.0,91.0
252.0,4.0,35.0,-13.0,134.0,-12.0,1012.0,34.0,90.0
253.0,4.0,32.0,-14.0,133.0,-11.0,1013.0,38.0,88.0
255.0,2.0,34.0,-14.0,132.0,-12.0,1012.0,44.0,90.0
255.0,2.0,30.0,-13.0,129.0,-12.0,1013.0,37.0,88.0
255.0,1.0,32.0,-12.0,127.0,-10.0,1016.0,40.0,95.0
254.0,1.0,34.0,-9.0,121.0,-9.0,1014.0,32.0,93.0
255.0,-2.0,34.0,-5.0,114.0,-5.0,1014.0,32.0,93.0
256.0,1.0,32.0,0.0,108.0,-4.0,1016.0,31.0,88.0
255.0,0.0,31.0,0.0,102.0,-2.0,1016.0,31.0,96.0
256.0,2.0,30.0,2.0,99.0,-2.0,1014.0,38.0,95.0
256.0,2.0,34.0,3.0,94.0,-2.0,1015.0,33.0,85.0
255.0,0.0,33.0,3.0,95.0,-3.0,1012.0,27.0,90.0
262.0,0.0,30.0,1.0,96.0,-5.0,1010.0,30.0,99.0
254.0,1.0,33.0,-1.0,96.0,-6.0,1012.0,31.0,91.0
255.0,-3.0,34.0,-2.0,97.0,-7.0,1013.0,36.0,95.0
255.0,1.0,32.0,-3.0,99.0,-7.0,1017.0,37.0,90.0
254.0,-1.0,34.0,-6.0,104.0,-10.0,1013.0,34.0,92.0
254.0,-1.0,30.0,-5.0,108.0,-9.0,1006.0,31.0,92.0
251.0,3.0,32.0,-8.0,111.0,-8.0,1012.0,30.0,92.0
253.0,2.0,33.0,-7.0,116.0,-7.0,1012.0,31.0,89.0
256.0,-4.0,32.0,-7.0,120.0,-5.0,1011.0,30.0,93.0
253.0,1.0,35.0,-7.0,121.0,-7.0,1013.0,31.0,93.0
252.0,2.0,35.0,-8.0,121.0,-5.0,1004.0,37.0,98.0
255.0,1.0,34.0,-9.0,122.0,-4.0,1012.0,33.0,98.0
256.0,2.0,36.0,-10.0,120.0,-4.0,1012.0,41.0,96.0
256.0,0.0,35.0,-10.0,120.0,-4.0,1013.0,38.0,99.0
254.0,0.0,31.0,-9.0,117.0,-4.0,1014.0,37.0,94.0
255.0,4.0,34.0,-11.0,118.0,-5.0,1015.0,38.0,95.0
254.0,3.0,35.0,-14.0,117.0,-5.0,1012.0,36.0,94.0
253.0,2.0,37.0,-17.0,116.0,-5.0,1013.0,34.0,98.0
252.0,1.0,33.0,-20.0,113.0,-6.0,1011.0,39.0,98.0
255.0,1.0,34.0,-27.0,112.0,-4.0,1014.0,39.0,99.0
255.0,1.0,33.0,-33.0,113.0,-5.0,1012.0,33.0,101.0
261.0,0.0,36.0,-35.0,114.0,-3.0,1020.0,37.0,103.0
256.0,-2.0,34.0,-37.0,113.0,-2.0,1013.0,35.0,104.0
256.0,-1.0,39.0,-38.0,109.0,-2.0,1011.0,30.0,103.0
255.0,0.0,38.0,-38.0,103.0,-2.0,1015.0,36.0,104.0
257.0,-2.0,39.0,-36.0,98.0,-2.0,1015.0,33.0,101.0
252.0,2.0,35.0,-32.0,95.0,-4.0,1010.0,36.0,104.0
254.0,1.0,33.0,-28.0,92.0,-4.0,1008.0,37.0,106.0
255.0,-1.0,33.0,-20.0,88.0,-5.0,1012.0,32.0,107.0
255.0,2.0,36.0,-15.0,86.0,-5.0,1013.0,41.0,103.0
255.0,-2.0,38.0,-12.0,84.0,-4.0,1007.0,36.0,102.0
253.0,3.0,34.0,-13.0,81.0,-4.0,1012.0,35.0,103.0
255.0,0.0,36.0,-15.0,82.0,-2.0,1014.0,34.0,102.0
254.0,0.0,32.0,-17.0,81.0,-2.0,1013.0,39.0,99.0
254.0,2.0,34.0,-17.0,82.0,-2.0,1013.0,36.0,103.0
255.0,2.0,35.0,-17.0,80.0,-3.0,1010.0,34.0,105.0
253.0,3.0,36.0,-12.0,79.0,-2.0,1008.0,40.0,101.0
256.0,0.0,35.0,-8.0,77.0,-3.0,1013.0,38.0,101.0
256.0,4.0,35.0,-2.0,75.0,-4.0,1015.0,41.0,99.0
255.0,2.0,32.0,5.0,73.0,-5.0,1006.0,31.0,98.0
255.0,1.0,30.0,10.0,72.0,-6.0,1013.0,35.0,98.0
250.0,2.0,30.0,13.0,73.0,-6.0,1014.0,38.0,96.0
254.0,3.0,34.0,12.0,79.0,-7.0,1011.0,41.0,97.0
260.0,-1.0,38.0,11.0,84.0,-9.0,1008.0,43.0,92.0
253.0,6.0,29.0,7.0,92.0,-9.0,1016.0,41.0,90.0
255.0,2.0,34.0,5.0,100.0,-9.0,1015.0,39.0,95.0
252.0,4.0,35.0,5.0,104.0,-8.0,1012.0,31.0,96.0
257.0,-3.0,34.0,10.0,109.0,-6.0,1017.0,32.0,93.0
256.0,0.0,34.0,15.0,110.0,-3.0,1015.0,27.0,94.0
255.0,0.0,33.0,21.0,108.0,-3.0,1016.0,33.0,99.0
257.0,2.0,31.0,23.0,108.0,-4.0,1011.0,34.0,96.0
253.0,0.0,31.0,24.0,108.0,-5.0,1010.0,32.0,100.0
255.0,4.0,35.0,23.0,106.0,-5.0,1006.0,35.0,100.0
255.0,1.0,37.0,18.0,104.0,-6.0,1003.0,33.0,101.0
253.0,2.0,39.0,14.0,101.0,-6.0,1006.0,39.0,109.0
251.0,0.0,37.0,11.0,101.0,-8.0,1006.0,37.0,108.0
253.0,-2.0,37.0,7.0,102.0,-9.0,1004.0,41.0,107.0
254.0,0.0,37.0,5.0,102.0,-10.0,1006.0,40.0,107.0
253.0,3.0,36.0,3.0,103.0,-10.0,1008.0,31.0,104.0
254.0,0.0,37.0,4.0,103.0,-11.0,1006.0,33.0,102.0
252.0,2.0,37.0,3.0,102.0,-13.0,1007.0,40.0,107.0
256.0,1.0,35.0,3.0,103.0,-12.0,1009.0,42.0,102.0
255.0,2.0,35.0,1.0,101.0,-13.0,1016.0,41.0,99.0
256.0,5.0,37.0,1.0,102.0,-15.0,1017.0,40.0,101.0
256.0,4.0,34.0,1.0,102.0,-13.0,1015.0,36.0,101.0
260.0,3.0,27.0,-1.0,103.0,-15.0,1018.0,36.0,101.0
255.0,2.0,36.0,-2.0,106.0,-13.0,1019.0,42.0,103.0
254.0,3.0,36.0,-2.0,105.0,-11.0,1016.0,40.0,105.0
253.0,0.0,35.0,-1.0,103.0,-12.0,1015.0,39.0,106.0
255.0,2.0,38.0,-1.0,101.0,-11.0,1012.0,41.0,106.0
251.0,4.0,35.0,-2.0,99.0,-9.0,1012.0,38.0,104.0
254.0,2.0,34.0,-3.0,96.0,-7.0,1015.0,41.0,103.0
254.0,4.0,38.0,-4.0,93.0,-8.0,1010.0,41.0,111.0
254.0,3.0,36.0,-7.0,91.0,-5.0,1011.0,46.0,106.0
256.0,5.0,38.0,-7.0,86.0,-6.0,1009.0,41.0,113.0
255.0,1.0,35.0,-7.0,81.0,-5.0,1011.0,43.0,109.0
254.0,5.0,40.0,-7.0,79.0,-6.0,1013.0,44.0,110.0
253.0,2.0,37.0,-7.0,75.0,-4.0,1015.0,40.0,109.0
252.0,0.0,37.0,-5.0,75.0,-5.0,1016.0,38.0,109.0
255.0,6.0,38.0,-5.0,75.0,-6.0,1014.0,40.0,106.0
254.0,6.0,37.0,-5.0,76.0,-7.0,1015.0,44.0,99.0
257.0,1.0,36.0,-8.0,76.0,-8.0,1015.0,43.0,107.0
256.0,5.0,35.0,-8.0,75.0,-8.0,1011.0,45.0,101.0
255.0,1.0,37.0,-8.0,74.0,-7.0,1008.0,45.0,109.0
255.0,5.0,38.0,-10.0,73.0,-6.0,1010.0,44.0,101.0
254.0,-2.0,38.0,-11.0,73.0,-5.0,1010.0,41.0,106.0
253.0,4.0,38.0,-11.0,74.0,-3.0,1007.0,42.0,103.0
252.0,2.0,29.0,-11.0,73.0,-1.0,1008.0,41.0,104.0
254.0,2.0,36.0,-10.0,72.0,0.0,1005.0,38.0,104.0
253.0,5.0,32.0,-11.0,74.0,-1.0,1013.0,37.0,108.0
253.0,4.0,39.0,-11.0,74.0,-1.0,1006.0,36.0,105.0
255.0,0.0,41.0,-10.0,74.0,-1.0,1009.0,41.0,107.0
254.0,1.0,38.0,-8.0,74.0,-3.0,1008.0,41.0,111.0
253.0,-1.0,33.0,-7.0,74.0,-5.0,1011.0,34.0,103.0
252.0,3.0,37.0,-8.0,78.0,-6.0,1009.0,38.0,106.0
253.0,0.0,38.0,-10.0,78.0,-6.0,1010.0,43.0,106.0
252.0,3.0,35.0,-10.0,78.0,-6.0,1008.0,41.0,102.0
255.0,1.0,33.0,-11.0,78.0,-7.0,1007.0,43.0,106.0
253.0,0.0,35.0,-12.0,81.0,-8.0,1008.0,41.0,102.0
256.0,-1.0,41.0,-12.0,83.0,-7.0,1010.0,37.0,104.0
254.0,1.0,38.0,-13.0,84.0,-6.0,1010.0,35.0,102.0
253.0,1.0,39.0,-12.0,85.0,-7.0,1009.0,38.0,108.0
254.0,6.0,32.0,-12.0,85.0,-6.0,1012.0,43.0,112.0
256.0,5.0,37.0,-11.0,82.0,-5.0,1013.0,39.0,104.0
255.0,4.0,37.0,-11.0,83.0,-6.0,1017.0,44.0,104.0
254.0,5.0,34.0,-13.0,82.0,-6.0,1015.0,43.0,103.0
255.0,4.0,35.0,-17.0,81.0,-5.0,1014.0,41.0,107.0
256.0,1.0,38.0,-21.0,80.0,-5.0,1012.0,36.0,106.0
256.0,1.0,36.0,-23.0,81.0,-4.0,1015.0,42.0,106.0
256.0,3.0,42.0,-24.0,80.0,-4.0,1012.0,35.0,110.0
252.0,3.0,38.0,-22.0,80.0,-4.0,1009.0,41.0,110.0
256.0,0.0,39.0,-19.0,79.0,-3.0,1008.0,41.0,109.0
252.0,0.0,39.0,-14.0,82.0,-4.0,1008.0,41.0,110.0
251.0,0.0,35.0,-11.0,82.0,-5.0,1005.0,40.0,107.0
255.0,-2.0,38.0,-6.0,83.0,-8.0,1004.0,35.0,111.0
255.0,-2.0,38.0,-3.0,85.0,-9.0,1004.0,34.0,113.0
253.0,2.0,39.0,-3.0,87.0,-9.0,1004.0,40.0,113.0
251.0,0.0,38.0,-2.0,88.0,-11.0,1003.0,44.0,106.0
250.0,3.0,34.0,-1.0,91.0,-12.0,1007.0,42.0,108.0
255.0,6.0,39.0,-4.0,90.0,-12.0,1009.0,46.0,115.0
253.0,2.0,39.0,-6.0,88.0,-11.0,1005.0,38.0,113.0
252.0,1.0,40.0,-11.0,88.0,-10.0,1011.0,43.0,110.0
253.0,5.0,41.0,-16.0,87.0,-10.0,1010.0,37.0,115.0
254.0,2.0,39.0,-22.0,86.0,-9.0,1013.0,42.0,109.0
254.0,2.0,37.0,-27.0,84.0,-7.0,1014.0,38.0,116.0
255.0,2.0,37.0,-30.0,83.0,-5.0,1019.0,40.0,114.0
255.0,-1.0,39.0,-29.0,81.0,-4.0,1013.0,34.0,112.0
255.0,3.0,37.0,-28.0,80.0,-2.0,1016.0,31.0,113.0
254.0,3.0,44.0,-23.0,77.0,-1.0,1019.0,36.0,113.0
256.0,-3.0,37.0,-16.0,73.0,0.0,1021.0,41.0,114.0
254.0,4.0,39.0,-9.0,71.0,1.0,1018.0,40.0,112.0
254.0,0.0,38.0,-3.0,70.0,2.0,1019.0,40.0,109.0
253.0,1.0,36.0,3.0,66.0,1.0,1014.0,42.0,112.0
254.0,0.0,37.0,7.0,64.0,1.0,1008.0,42.0,109.0
253.0,2.0,36.0,7.0,62.0,0.0,1009.0,43.0,111.0
253.0,5.0,39.0,7.0,62.0,-2.0,1006.0,41.0,110.0
252.0,4.0,38.0,3.0,63.0,-4.0,1007.0,46.0,106.0
256.0,3.0,39.0,0.0,64.0,-5.0,1009.0,44.0,107.0
254.0,4.0,36.0,-5.0,65.0,-6.0,1005.0,41.0,105.0
253.0,-1.0,35.0,-9.0,67.0,-5.0,1011.0,43.0,106.0
256.0,1.0,38.0,-11.0,67.0,-4.0,1007.0,40.0,102.0
255.0,1.0,40.0,-11.0,70.0,-4.0,1011.0,42.0,111.0
254.0,3.0,37.0,-10.0,69.0,-3.0,1013.0,41.0,108.0
255.0,-1.0,39.0,-7.0,71.0,-2.0,1014.0,39.0,107.0
254.0,5.0,37.0,-3.0,71.0,0.0,1011.0,40.0,108.0
255.0,-1.0,37.0,3.0,72.0,1.0,1010.0,38.0,105.0
255.0,1.0,37.0,7.0,71.0,2.0,1010.0,44.0,110.0
255.0,1.0,33.0,10.0,71.0,1.0,1013.0,48.0,113.0
257.0,0.0,37.0,12.0,71.0,1.0,1008.0,44.0,110.0
253.0,4.0,36.0,13.0,69.0,0.0,1009.0,45.0,108.0
252.0,6.0,34.0,12.0,69.0,-2.0,1011.0,49.0,106.0
254.0,3.0,33.0,12.0,69.0,-3.0,1008.0,45.0,105.0
255.0,4.0,35.0,10.0,69.0,-4.0,1003.0,42.0,107.0
253.0,2.0,38.0,9.0,70.0,-3.0,1012.0,40.0,108.0
252.0,6.0,36.0,8.0,72.0,-3.0,1008.0,42.0,107.0
255.0,4.0,39.0,9.0,75.0,-3.0,1012.0,42.0,104.0
255.0,3.0,36.0,10.0,77.0,-1.0,1015.0,43.0,106.0
253.0,2.0,37.0,14.0,82.0,0.0,1018.0,38.0,107.0
256.0,1.0,36.0,18.0,83.0,2.0,1015.0,46.0,110.0
256.0,-1.0,39.0,22.0,81.0,3.0,1015.0,33.0,110.0
256.0,1.0,38.0,23.0,79.0,4.0,1019.0,39.0,110.0
254.0,1.0,38.0,24.0,76.0,3.0,1012.0,33.0,114.0
256.0,2.0,38.0,22.0,70.0,3.0,1010.0,36.0,109.0
252.0,-1.0,39.0,21.0,65.0,2.0,1010.0,37.0,115.0
254.0,4.0,34.0,20.0,60.0,2.0,1008.0,42.0,116.0
253.0,3.0,37.0,18.0,57.0,3.0,1008.0,38.0,110.0
255.0,2.0,41.0,17.0,56.0,3.0,1005.0,43.0,117.0
253.0,1.0,38.0,14.0,55.0,2.0,1003.0,42.0,116.0
254.0,3.0,39.0,9.0,54.0,2.0,1011.0,47.0,114.0
252.0,3.0,42.0,4.0,54.0,2.0,1005.0,42.0,111.0
252.0,1.0,39.0,-2.0,56.0,0.0,1006.0,43.0,116.0
255.0,1.0,41.0,-9.0,58.0,-3.0,1006.0,43.0,114.0
253.0,5.0,39.0,-14.0,61.0,-5.0,1008.0,46.0,110.0
253.0,4.0,39.0,-20.0,64.0,-6.0,1009.0,42.0,113.0
258.0,4.0,38.0,-26.0,69.0,-8.0,1010.0,45.0,112.0
256.0,6.0,39.0,-31.0,72.0,-9.0,1012.0,44.0,111.0
254.0,0.0,35.0,-37.0,73.0,-8.0,1012.0,44.0,112.0
253.0,4.0,36.0,-41.0,74.0,-7.0,1008.0,40.0,112.0
253.0,2.0,40.0,-44.0,73.0,-7.0,1010.0,42.0,111.0
255.0,-1.0,36.0,-45.0,70.0,-5.0,1012.0,29.0,110.0
256.0,-1.0,36.0,-46.0,66.0,-4.0,1009.0,32.0,111.0
255.0,-1.0,38.0,-45.0,63.0,-3.0,1005.0,33.0,115.0
254.0,0.0,38.0,-42.0,56.0,-3.0,1009.0,35.0,115.0
254.0,1.0,37.0,-39.0,52.0,-2.0,1005.0,37.0,118.0
255.0,-3.0,42.0,-38.0,48.0,-3.0,1008.0,34.0,116.0
255.0,0.0,41.0,-37.0,46.0,-3.0,1005.0,40.0,113.0
253.0,1.0,40.0,-37.0,43.0,-4.0,1006.0,36.0,116.0
255.0,4.0,37.0,-36.0,42.0,-3.0,1005.0,41.0,114.0
254.0,0.0,37.0,-37.0,41.0,-4.0,1007.0,41.0,109.0
255.0,1.0,39.0,-37.0,40.0,-5.0,1010.0,41.0,110.0
253.0,0.0,38.0,-38.0,40.0,-5.0,1006.0,41.0,112.0
253.0,3.0,38.0,-37.0,42.0,-6.0,1002.0,41.0,110.0
254.0,1.0,40.0,-37.0,42.0,-7.0,1006.0,43.0,114.0
254.0,2.0,39.0,-39.0,45.0,-8.0,1007.0,44.0,110.0
255.0,3.0,36.0,-38.0,46.0,-8.0,1010.0,37.0,110.0
253.0,6.0,36.0,-39.0,47.0,-9.0,1007.0,44.0,111.0
257.0,5.0,48.0,-41.0,45.0,-9.0,1010.0,47.0,112.0
255.0,1.0,39.0,-43.0,44.0,-8.0,1009.0,42.0,110.0
252.0,6.0,35.0,-43.0,43.0,-7.0,1009.0,45.0,108.0
252.0,3.0,38.0,-41.0,40.0,-6.0,1012.0,40.0,108.0
253.0,3.0,37.0,-40.0,38.0,-7.0,1010.0,38.0,113.0
254.0,2.0,36.0,-39.0,37.0,-6.0,1011.0,41.0,109.0
252.0,2.0,37.0,-39.0,38.0,-6.0,1008.0,37.0,110.0
252.0,0.0,36.0,-40.0,36.0,-5.0,1011.0,35.0,109.0
254.0,1.0,38.0,-40.0,36.0,-6.0,1011.0,38.0,107.0
254.0,-1.0,40.0,-41.0,36.0,-7.0,1007.0,43.0,108.0
255.0,2.0,41.0,-41.0,34.0,-6.0,1016.0,43.0,105.0
252.0,1.0,36.0,-42.0,33.0,-5.0,1010.0,41.0,113.0
253.0,5.0,35.0,-41.0,31.0,-3.0,1016.0,41.0,107.0
255.0,5.0,38.0,-38.0,31.0,-2.0,1016.0,42.0,109.0
256.0,1.0,37.0,-36.0,32.0,-1.0,1013.0,47.0,107.0
255.0,2.0,36.0,-35.0,29.0,-2.0,1011.0,43.0,119.0
255.0,3.0,38.0,-33.0,20.0,-1.0,1008.0,43.0,114.0
253.0,2.0,39.0,-31.0,13.0,0.0,1012.0,45.0,108.0
253.0,4.0,34.0,-29.0,6.0,-1.0,1008.0,47.0,110.0
254.0,4.0,37.0,-26.0,1.0,0.0,1012.0,41.0,111.0
252.0,4.0,37.0,-27.0,-4.0,-1.0,1007.0,40.0,108.0
256.0,1.0,32.0,-29.0,-5.0,1.0,1016.0,41.0,103.0
257.0,2.0,35.0,-36.0,-4.0,2.0,1009.0,37.0,101.0
254.0,4.0,35.0,-42.0,-1.0,4.0,1009.0,43.0,105.0
255.0,2.0,37.0,-47.0,3.0,9.0,1009.0,43.0,101.0
252.0,1.0,35.0,-49.0,5.0,9.0,1007.0,40.0,104.0
255.0,1.0,33.0,-48.0,6.0,10.0,1008.0,38.0,107.0
256.0,1.0,37.0,-44.0,4.0,12.0,1006.0,42.0,107.0
256.0,3.0,28.0,-39.0,0.0,11.0,1014.0,41.0,101.0
255.0,4.0,34.0,-33.0,-1.0,8.0,1013.0,36.0,98.0
253.0,4.0,35.0,-30.0,1.0,8.0,1015.0,38.0,96.0
250.0,4.0,34.0,-28.0,2.0,8.0,1007.0,36.0,94.0
255.0,0.0,33.0,-29.0,-2.0,12.0,1011.0,36.0,93.0
255.0,0.0,34.0,-23.0,2.0,13.0,1021.0,41.0,96.0
255.0,-3.0,31.0,-20.0,11.0,10.0,1016.0,33.0,84.0
257.0,0.0,34.0,-17.0,24.0,7.0,1017.0,39.0,87.0
256.0,1.0,33.0,-15.0,30.0,4.0,1013.0,36.0,91.0
256.0,-1.0,29.0,-11.0,32.0,5.0,1014.0,39.0,90.0
253.0,3.0,36.0,-9.0,32.0,5.0,1016.0,37.0,93.0
253.0,-2.0,31.0,-6.0,32.0,6.0,1015.0,43.0,93.0
256.0,1.0,34.0,-5.0,32.0,6.0,1008.0,40.0,91.0
253.0,5.0,34.0,-11.0,33.0,7.0,1008.0,44.0,100.0
253.0,2.0,36.0,-18.0,28.0,8.0,1004.0,39.0,105.0
255.0,1.0,31.0,-24.0,21.0,10.0,1003.0,41.0,104.0
254.0,3.0,32.0,-35.0,17.0,11.0,1008.0,44.0,102.0
251.0,2.0,40.0,-45.0,19.0,11.0,1000.0,34.0,101.0
252.0,-2.0,37.0,-54.0,20.0,10.0,1001.0,42.0,105.0
252.0,1.0,37.0,-58.0,15.0,13.0,1004.0,34.0,109.0
255.0,-2.0,34.0,-57.0,10.0,11.0,1009.0,31.0,102.0
253.0,1.0,31.0,-56.0,8.0,11.0,1007.0,33.0,101.0
254.0,-2.0,37.0,-56.0,2.0,9.0,1011.0,30.0,103.0
255.0,-1.0,37.0,-57.0,-2.0,8.0,1010.0,27.0,104.0
253.0,-4.0,30.0,-57.0,-8.0,7.0,1017.0,32.0,95.0
256.0,-2.0,33.0,-57.0,-11.0,7.0,1019.0,29.0,90.0
256.0,0.0,33.0,-57.0,-6.0,6.0,1019.0,28.0,86.0
258.0,-2.0,29.0,-58.0,0.0,5.0,1020.0,29.0,78.0
257.0,1.0,34.0,-58.0,7.0,6.0,1021.0,31.0,79.0
255.0,-1.0,29.0,-56.0,13.0,6.0,1023.0,33.0,87.0
255.0,-3.0,30.0,-47.0,9.0,8.0,1017.0,37.0,93.0
255.0,-1.0,30.0,-36.0,0.0,7.0,1011.0,39.0,88.0
256.0,0.0,32.0,-26.0,-4.0,6.0,1012.0,32.0,79.0
253.0,1.0,28.0,-20.0,-4.0,6.0,1015.0,33.0,81.0
254.0,1.0,29.0,-17.0,-4.0,7.0,1017.0,33.0,83.0
256.0,3.0,27.0,-14.0,3.0,7.0,1019.0,41.0,79.0
256.0,0.0,31.0,-16.0,10.0,7.0,1016.0,41.0,87.0
255.0,-1.0,27.0,-20.0,8.0,8.0,1013.0,41.0,91.0
255.0,0.0,28.0,-24.0,3.0,8.0,1016.0,41.0,88.0
256.0,4.0,30.0,-27.0,2.0,8.0,1018.0,37.0,87.0
254.0,6.0,30.0,-31.0,3.0,6.0,1014.0,34.0,82.0
255.0,2.0,28.0,-36.0,6.0,7.0,1017.0,41.0,86.0
254.0,3.0,32.0,-38.0,9.0,8.0,1014.0,37.0,87.0
257.0,-1.0,32.0,-38.0,15.0,7.0,1013.0,41.0,85.0
253.0,-1.0,32.0,-36.0,22.0,4.0,1019.0,41.0,93.0
256.0,1.0,28.0,-31.0,27.0,5.0,1019.0,37.0,85.0
256.0,6.0,30.0,-31.0,26.0,3.0,1019.0,38.0,83.0
257.0,3.0,30.0,-33.0,24.0,1.0,1024.0,43.0,75.0
257.0,3.0,27.0,-39.0,27.0,0.0,1022.0,44.0,70.0
256.0,4.0,28.0,-42.0,33.0,0.0,1019.0,45.0,77.0
255.0,3.0,29.0,-45.0,33.0,2.0,1021.0,39.0,84.0
253.0,1.0,36.0,-43.0,28.0,2.0,1016.0,40.0,77.0
254.0,3.0,32.0,-43.0,20.0,1.0,1010.0,38.0,80.0
253.0,3.0,27.0,-41.0,6.0,1.0,1008.0,41.0,80.0
255.0,0.0,28.0,-38.0,-8.0,0.0,1014.0,37.0,75.0
253.0,0.0,28.0,-38.0,-10.0,1.0,1011.0,32.0,74.0
255.0,0.0,30.0,-41.0,-7.0,4.0,1015.0,25.0,74.0
256.0,1.0,30.0,-43.0,-3.0,6.0,1010.0,31.0,76.0
255.0,1.0,33.0,-42.0,2.0,8.0,1005.0,30.0,85.0
253.0,0.0,29.0,-40.0,1.0,10.0,1011.0,36.0,85.0
256.0,-1.0,30.0,-37.0,-3.0,7.0,1015.0,29.0,78.0
256.0,0.0,29.0,-34.0,-3.0,8.0,1018.0,36.0,75.0
258.0,-1.0,27.0,-35.0,-3.0,6.0,1021.0,35.0,73.0
256.0,-1.0,30.0,-36.0,-1.0,5.0,1020.0,30.0,61.0
256.0,-1.0,25.0,-37.0,7.0,3.0,1018.0,33.0,65.0
255.0,-1.0,26.0,-38.0,16.0,5.0,1013.0,26.0,71.0
257.0,0.0,30.0,-37.0,20.0,7.0,1017.0,33.0,69.0
255.0,3.0,27.0,-36.0,24.0,9.0,1018.0,28.0,67.0
259.0,-5.0,23.0,-35.0,25.0,9.0,1018.0,32.0,72.0
255.0,-1.0,30.0,-34.0,26.0,9.0,1020.0,32.0,71.0
254.0,6.0,28.0,-35.0,27.0,8.0,1017.0,33.0,75.0
256.0,-1.0,29.0,-38.0,28.0,6.0,1010.0,39.0,75.0
254.0,0.0,26.0,-39.0,27.0,6.0,1014.0,35.0,77.0
254.0,2.0,29.0,-41.0,23.0,3.0,1009.0,32.0,76.0
257.0,1.0,32.0,-41.0,14.0,1.0,1017.0,43.0,80.0
