acc1_x,acc1_y,acc1_z,gyro_x,gyro_y,gyro_z,acc2_x,acc2_y,acc2_z
6.0,-21.0,225.0,-54.0,12.0,-2.0,25.0,-90.0,1036.0
6.0,-23.0,219.0,-51.0,11.0,-3.0,30.0,-94.0,1033.0
5.0,-19.0,228.0,-52.0,10.0,-3.0,25.0,-97.0,1036.0
5.0,-24.0,227.0,-52.0,10.0,-4.0,30.0,-93.0,1035.0
7.0,-21.0,224.0,-52.0,10.0,-5.0,28.0,-93.0,1037.0
5.0,-20.0,221.0,-51.0,11.0,-5.0,32.0,-91.0,1031.0
12.0,-27.0,227.0,-50.0,10.0,-4.0,33.0,-95.0,1037.0
10.0,-22.0,220.0,-48.0,10.0,-5.0,31.0,-92.0,1030.0
8.0,-22.0,231.0,-49.0,10.0,-5.0,35.0,-93.0,1034.0
12.0,-23.0,224.0,-47.0,10.0,-5.0,31.0,-91.0,1039.0
6.0,-21.0,225.0,-47.0,10.0,-5.0,36.0,-95.0,1031.0
6.0,-20.0,225.0,-46.0,10.0,-5.0,30.0,-92.0,1035.0
12.0,-23.0,226.0,-45.0,10.0,-6.0,38.0,-90.0,1033.0
8.0,-24.0,224.0,-47.0,11.0,-6.0,34.0,-90.0,1037.0
6.0,-22.0,220.0,-46.0,11.0,-5.0,36.0,-90.0,1032.0
6.0,-20.0,225.0,-47.0,11.0,-6.0,35.0,-88.0,1037.0
7.0,-20.0,226.0,-48.0,10.0,-7.0,36.0,-87.0,1035.0
11.0,-21.0,225.0,-51.0,10.0,-8.0,36.0,-85.0,1035.0
2.0,-16.0,225.0,-53.0,9.0,-7.0,39.0,-89.0,1032.0
8.0,-23.0,234.0,-53.0,10.0,-9.0,39.0,-89.0,1036.0
9.0,-21.0,222.0,-55.0,11.0,-8.0,37.0,-89.0,1032.0
6.0,-24.0,222.0,-56.0,11.0,-9.0,36.0,-90.0,1032.0
10.0,-22.0,225.0,-55.0,12.0,-9.0,37.0,-86.0,1032.0
5.0,-18.0,219.0,-57.0,13.0,-7.0,37.0,-88.0,1033.0
10.0,-25.0,226.0,-55.0,15.0,-9.0,37.0,-91.0,1032.0
12.0,-25.0,228.0,-54.0,18.0,-7.0,34.0,-93.0,1030.0
5.0,-23.0,226.0,-53.0,19.0,-7.0,40.0,-96.0,1032.0
9.0,-23.0,219.0,-52.0,23.0,-8.0,37.0,-96.0,1034.0
8.0,-24.0,227.0,-54.0,23.0,-7.0,42.0,-97.0,1037.0
9.0,-24.0,224.0,-56.0,25.0,-7.0,37.0,-93.0,1036.0
7.0,-22.0,227.0,-56.0,25.0,-6.0,44.0,-95.0,1041.0
8.0,-25.0,227.0,-58.0,25.0,-6.0,29.0,-95.0,1045.0
8.0,-22.0,227.0,-59.0,25.0,-6.0,34.0,-102.0,1039.0
9.0,-26.0,223.0,-59.0,25.0,-5.0,35.0,-97.0,1029.0
11.0,-24.0,224.0,-54.0,25.0,-6.0,30.0,-95.0,1035.0
7.0,-24.0,223.0,-52.0,25.0,-8.0,33.0,-91.0,1034.0
7.0,-24.0,220.0,-51.0,24.0,-9.0,33.0,-93.0,1026.0
7.0,-21.0,229.0,-50.0,23.0,-9.0,33.0,-94.0,1028.0
6.0,-25.0,224.0,-50.0,22.0,-8.0,33.0,-93.0,1035.0
6.0,-25.0,220.0,-47.0,23.0,-8.0,31.0,-97.0,1037.0
8.0,-21.0,224.0,-44.0,24.0,-7.0,30.0,-96.0,1037.0
9.0,-23.0,227.0,-41.0,22.0,-8.0,33.0,-93.0,1029.0
6.0,-22.0,228.0,-36.0,24.0,-7.0,31.0,-92.0,1030.0
7.0,-22.0,226.0,-35.0,22.0,-8.0,26.0,-91.0,1032.0
6.0,-22.0,223.0,-31.0,21.0,-8.0,32.0,-91.0,1032.0
7.0,-18.0,223.0,-31.0,21.0,-8.0,29.0,-87.0,1030.0
7.0,-21.0,227.0,-31.0,20.0,-7.0,33.0,-91.0,1033.0
9.0,-23.0,223.0,-33.0,21.0,-7.0,32.0,-86.0,1034.0
10.0,-25.0,222.0,-36.0,21.0,-7.0,32.0,-89.0,1035.0
8.0,-20.0,226.0,-39.0,22.0,-7.0,28.0,-86.0,1035.0
7.0,-21.0,229.0,-44.0,21.0,-6.0,29.0,-83.0,1036.0
8.0,-19.0,227.0,-48.0,20.0,-8.0,29.0,-84.0,1036.0
7.0,-20.0,227.0,-56.0,18.0,-6.0,32.0,-88.0,1037.0
7.0,-23.0,224.0,-58.0,18.0,-6.0,28.0,-84.0,1039.0
7.0,-24.0,228.0,-62.0,17.0,-6.0,29.0,-92.0,1041.0
9.0,-22.0,221.0,-62.0,18.0,-7.0,35.0,-92.0,1042.0
10.0,-24.0,227.0,-64.0,19.0,-6.0,34.0,-92.0,1037.0
6.0,-23.0,226.0,-64.0,18.0,-6.0,29.0,-92.0,1034.0
9.0,-22.0,226.0,-61.0,18.0,-5.0,27.0,-92.0,1035.0
5.0,-20.0,218.0,-59.0,20.0,-4.0,34.0,-90.0,1033.0
6.0,-24.0,225.0,-57.0,22.0,-5.0,28.0,-92.0,1029.0
9.0,-25.0,225.0,-56.0,22.0,-5.0,29.0,-94.0,1035.0
6.0,-22.0,222.0,-54.0,23.0,-6.0,29.0,-89.0,1033.0
9.0,-24.0,221.0,-53.0,24.0,-3.0,31.0,-94.0,1036.0
7.0,-24.0,228.0,-52.0,24.0,-5.0,32.0,-95.0,1030.0
5.0,-22.0,224.0,-51.0,24.0,-6.0,33.0,-92.0,1030.0
4.0,-22.0,226.0,-50.0,24.0,-6.0,26.0,-93.0,1036.0
8.0,-22.0,224.0,-51.0,24.0,-5.0,31.0,-94.0,1033.0
8.0,-25.0,224.0,-50.0,23.0,-5.0,31.0,-95.0,1034.0
5.0,-25.0,223.0,-49.0,23.0,-5.0,29.0,-89.0,1035.0
-1.0,-23.0,229.0,-49.0,23.0,-5.0,27.0,-94.0,1034.0
8.0,-26.0,221.0,-48.0,21.0,-6.0,30.0,-93.0,1032.0
10.0,-27.0,226.0,-49.0,20.0,-5.0,31.0,-94.0,1034.0
7.0,-25.0,224.0,-48.0,21.0,-6.0,33.0,-96.0,1032.0
5.0,-22.0,224.0,-49.0,20.0,-5.0,32.0,-93.0,1036.0
6.0,-22.0,224.0,-51.0,18.0,-5.0,29.0,-94.0,1034.0
9.0,-25.0,222.0,-51.0,18.0,-4.0,28.0,-97.0,1031.0
7.0,-22.0,223.0,-52.0,17.0,-5.0,29.0,-94.0,1035.0
10.0,-26.0,221.0,-51.0,16.0,-4.0,32.0,-100.0,1035.0
6.0,-25.0,224.0,-49.0,16.0,-4.0,30.0,-96.0,1033.0
6.0,-24.0,226.0,-47.0,16.0,-3.0,29.0,-97.0,1032.0
8.0,-25.0,228.0,-46.0,17.0,-3.0,32.0,-96.0,1032.0
7.0,-25.0,227.0,-46.0,17.0,-5.0,26.0,-93.0,1035.0
7.0,-24.0,226.0,-43.0,17.0,-6.0,32.0,-94.0,1033.0
9.0,-20.0,224.0,-43.0,17.0,-6.0,31.0,-92.0,1032.0
8.0,-22.0,221.0,-44.0,18.0,-7.0,33.0,-97.0,1032.0
8.0,-21.0,224.0,-44.0,16.0,-6.0,31.0,-93.0,1028.0
7.0,-25.0,221.0,-45.0,16.0,-6.0,33.0,-96.0,1033.0
7.0,-26.0,224.0,-46.0,15.0,-6.0,32.0,-93.0,1037.0
5.0,-23.0,224.0,-47.0,15.0,-6.0,33.0,-94.0,1032.0
3.0,-19.0,228.0,-47.0,13.0,-6.0,30.0,-93.0,1034.0
5.0,-26.0,222.0,-47.0,14.0,-6.0,31.0,-93.0,1038.0
7.0,-22.0,227.0,-47.0,15.0,-8.0,31.0,-96.0,1040.0
6.0,-22.0,222.0,-48.0,15.0,-5.0,31.0,-92.0,1033.0
10.0,-26.0,223.0,-47.0,14.0,-6.0,35.0,-99.0,1034.0
7.0,-24.0,223.0,-47.0,13.0,-7.0,33.0,-95.0,1035.0
7.0,-23.0,226.0,-47.0,13.0,-7.0,31.0,-92.0,1032.0
7.0,-24.0,223.0,-49.0,12.0,-7.0,35.0,-93.0,1040.0
9.0,-22.0,224.0,-49.0,11.0,-7.0,30.0,-95.0,1037.0
10.0,-25.0,223.0,-49.0,11.0,-7.0,29.0,-90.0,1035.0
7.0,-24.0,229.0,-51.0,10.0,-8.0,35.0,-95.0,1037.0
9.0,-25.0,227.0,-51.0,9.0,-8.0,34.0,-90.0,1036.0
7.0,-24.0,226.0,-51.0,9.0,-9.0,33.0,-88.0,1026.0
4.0,-21.0,225.0,-53.0,9.0,-8.0,33.0,-94.0,1036.0
9.0,-26.0,220.0,-50.0,10.0,-9.0,36.0,-91.0,1035.0
7.0,-24.0,225.0,-50.0,11.0,-8.0,33.0,-91.0,1036.0
8.0,-21.0,224.0,-49.0,11.0,-9.0,28.0,-92.0,1033.0
6.0,-23.0,227.0,-47.0,11.0,-9.0,33.0,-90.0,1029.0
9.0,-23.0,225.0,-48.0,13.0,-9.0,34.0,-94.0,1038.0
8.0,-21.0,225.0,-48.0,14.0,-8.0,32.0,-97.0,1035.0
8.0,-26.0,224.0,-47.0,14.0,-8.0,33.0,-96.0,1036.0
6.0,-24.0,225.0,-47.0,15.0,-9.0,39.0,-95.0,1034.0
9.0,-24.0,224.0,-47.0,14.0,-10.0,33.0,-92.0,1030.0
10.0,-26.0,225.0,-48.0,16.0,-9.0,38.0,-90.0,1036.0
8.0,-22.0,224.0,-47.0,15.0,-8.0,37.0,-94.0,1037.0
8.0,-22.0,226.0,-45.0,16.0,-7.0,32.0,-91.0,1034.0
7.0,-20.0,226.0,-45.0,16.0,-8.0,33.0,-90.0,1034.0
6.0,-23.0,224.0,-45.0,15.0,-7.0,29.0,-94.0,1035.0
8.0,-22.0,228.0,-45.0,15.0,-7.0,32.0,-85.0,1035.0
6.0,-22.0,224.0,-46.0,13.0,-7.0,29.0,-91.0,1036.0
8.0,-22.0,228.0,-47.0,14.0,-6.0,30.0,-93.0,1035.0
8.0,-24.0,228.0,-47.0,13.0,-7.0,33.0,-93.0,1029.0
9.0,-22.0,226.0,-47.0,16.0,-5.0,35.0,-89.0,1036.0
8.0,-20.0,224.0,-48.0,15.0,-6.0,36.0,-89.0,1037.0
8.0,-25.0,217.0,-49.0,16.0,-6.0,36.0,-92.0,1030.0
7.0,-24.0,225.0,-50.0,16.0,-5.0,35.0,-90.0,1034.0
5.0,-20.0,227.0,-48.0,16.0,-7.0,33.0,-93.0,1031.0
6.0,-23.0,227.0,-48.0,16.0,-6.0,32.0,-94.0,1038.0
7.0,-22.0,228.0,-50.0,17.0,-7.0,39.0,-97.0,1037.0
7.0,-23.0,224.0,-49.0,16.0,-6.0,33.0,-89.0,1035.0
7.0,-22.0,223.0,-49.0,16.0,-7.0,34.0,-93.0,1037.0
6.0,-25.0,222.0,-51.0,15.0,-9.0,28.0,-94.0,1039.0
8.0,-22.0,226.0,-51.0,15.0,-8.0,31.0,-94.0,1037.0
9.0,-26.0,225.0,-51.0,14.0,-9.0,35.0,-90.0,1036.0
8.0,-24.0,225.0,-50.0,14.0,-9.0,26.0,-92.0,1036.0
8.0,-21.0,218.0,-50.0,14.0,-9.0,36.0,-94.0,1036.0
7.0,-26.0,227.0,-51.0,14.0,-10.0,31.0,-94.0,1029.0
8.0,-24.0,227.0,-53.0,14.0,-9.0,28.0,-94.0,1028.0
8.0,-22.0,224.0,-52.0,14.0,-8.0,28.0,-96.0,1036.0
5.0,-23.0,224.0,-52.0,14.0,-7.0,29.0,-95.0,1035.0
7.0,-24.0,224.0,-52.0,16.0,-7.0,32.0,-95.0,1034.0
7.0,-25.0,227.0,-53.0,17.0,-7.0,33.0,-103.0,1034.0
9.0,-25.0,223.0,-51.0,17.0,-7.0,31.0,-94.0,1035.0
7.0,-26.0,223.0,-52.0,18.0,-6.0,31.0,-93.0,1034.0
5.0,-22.0,230.0,-53.0,19.0,-6.0,33.0,-93.0,1032.0
6.0,-25.0,224.0,-53.0,20.0,-7.0,33.0,-96.0,1034.0
9.0,-23.0,224.0,-54.0,21.0,-7.0,29.0,-101.0,1035.0
7.0,-24.0,224.0,-53.0,22.0,-5.0,28.0,-92.0,1034.0
6.0,-23.0,227.0,-53.0,24.0,-3.0,33.0,-94.0,1034.0
8.0,-25.0,219.0,-53.0,23.0,-5.0,35.0,-99.0,1036.0
7.0,-23.0,225.0,-53.0,22.0,-4.0,33.0,-90.0,1033.0
6.0,-24.0,224.0,-53.0,22.0,-4.0,34.0,-96.0,1034.0
9.0,-21.0,224.0,-54.0,22.0,-5.0,33.0,-96.0,1029.0
9.0,-25.0,222.0,-54.0,21.0,-4.0,35.0,-96.0,1034.0
8.0,-24.0,228.0,-54.0,20.0,-3.0,32.0,-101.0,1032.0
8.0,-23.0,228.0,-53.0,19.0,-4.0,32.0,-100.0,1033.0
7.0,-25.0,224.0,-53.0,18.0,-5.0,29.0,-95.0,1031.0
8.0,-20.0,227.0,-52.0,17.0,-5.0,33.0,-97.0,1032.0
8.0,-24.0,225.0,-52.0,14.0,-5.0,34.0,-93.0,1036.0
7.0,-22.0,225.0,-53.0,14.0,-5.0,34.0,-93.0,1035.0
6.0,-23.0,226.0,-53.0,14.0,-6.0,33.0,-92.0,1034.0
7.0,-22.0,225.0,-52.0,14.0,-6.0,31.0,-99.0,1030.0
8.0,-24.0,225.0,-53.0,14.0,-7.0,33.0,-94.0,1028.0
7.0,-24.0,229.0,-53.0,14.0,-8.0,38.0,-98.0,1028.0
8.0,-25.0,224.0,-53.0,13.0,-8.0,32.0,-95.0,1034.0
8.0,-25.0,222.0,-54.0,13.0,-9.0,30.0,-94.0,1033.0
8.0,-21.0,222.0,-52.0,12.0,-8.0,35.0,-93.0,1032.0
9.0,-25.0,221.0,-51.0,12.0,-8.0,32.0,-97.0,1034.0
2.0,-27.0,225.0,-51.0,12.0,-8.0,32.0,-90.0,1032.0
10.0,-26.0,224.0,-52.0,11.0,-8.0,33.0,-97.0,1032.0
9.0,-23.0,221.0,-53.0,12.0,-9.0,26.0,-96.0,1037.0
7.0,-22.0,226.0,-53.0,13.0,-9.0,31.0,-99.0,1035.0
6.0,-23.0,220.0,-53.0,12.0,-9.0,31.0,-96.0,1032.0
7.0,-24.0,227.0,-51.0,12.0,-9.0,30.0,-96.0,1034.0
8.0,-25.0,225.0,-52.0,12.0,-9.0,33.0,-98.0,1036.0
6.0,-25.0,228.0,-54.0,13.0,-7.0,31.0,-98.0,1033.0
7.0,-23.0,229.0,-56.0,14.0,-6.0,31.0,-96.0,1035.0
1.0,-23.0,224.0,-58.0,13.0,-7.0,27.0,-99.0,1034.0
5.0,-26.0,222.0,-60.0,15.0,-5.0,32.0,-100.0,1041.0
4.0,-24.0,222.0,-65.0,14.0,-4.0,28.0,-99.0,1037.0
8.0,-26.0,223.0,-63.0,16.0,-3.0,30.0,-104.0,1036.0
8.0,-28.0,225.0,-58.0,16.0,-4.0,31.0,-100.0,1034.0
9.0,-25.0,224.0,-55.0,17.0,-4.0,30.0,-98.0,1034.0
7.0,-23.0,223.0,-52.0,18.0,-3.0,32.0,-103.0,1031.0
9.0,-28.0,226.0,-49.0,20.0,-3.0,36.0,-100.0,1032.0
7.0,-22.0,225.0,-48.0,18.0,-3.0,30.0,-97.0,1034.0
7.0,-23.0,222.0,-46.0,17.0,-2.0,32.0,-101.0,1030.0
8.0,-24.0,225.0,-42.0,17.0,-3.0,26.0,-94.0,1037.0
6.0,-24.0,228.0,-39.0,17.0,-2.0,31.0,-94.0,1034.0
6.0,-21.0,224.0,-36.0,17.0,-3.0,31.0,-94.0,1033.0
8.0,-23.0,222.0,-33.0,17.0,-3.0,35.0,-89.0,1032.0
7.0,-21.0,227.0,-32.0,16.0,-4.0,30.0,-85.0,1034.0
6.0,-25.0,225.0,-32.0,17.0,-4.0,35.0,-94.0,1032.0
7.0,-21.0,226.0,-33.0,18.0,-5.0,34.0,-93.0,1031.0
7.0,-20.0,229.0,-33.0,18.0,-5.0,36.0,-88.0,1035.0
9.0,-23.0,222.0,-36.0,19.0,-7.0,39.0,-86.0,1037.0
9.0,-24.0,229.0,-38.0,20.0,-6.0,33.0,-95.0,1038.0
5.0,-20.0,228.0,-41.0,20.0,-7.0,38.0,-94.0,1035.0
9.0,-22.0,226.0,-44.0,19.0,-7.0,36.0,-91.0,1033.0
10.0,-23.0,227.0,-48.0,18.0,-6.0,33.0,-92.0,1031.0
9.0,-19.0,230.0,-52.0,20.0,-7.0,41.0,-95.0,1035.0
11.0,-25.0,227.0,-52.0,18.0,-6.0,35.0,-93.0,1036.0
9.0,-23.0,227.0,-50.0,18.0,-6.0,34.0,-95.0,1033.0
8.0,-21.0,222.0,-49.0,21.0,-6.0,33.0,-96.0,1036.0
6.0,-23.0,226.0,-49.0,21.0,-5.0,30.0,-98.0,1041.0
10.0,-24.0,221.0,-48.0,20.0,-5.0,31.0,-90.0,1036.0
8.0,-24.0,227.0,-49.0,22.0,-5.0,34.0,-95.0,1031.0
5.0,-25.0,221.0,-52.0,22.0,-4.0,39.0,-93.0,1031.0
11.0,-23.0,226.0,-54.0,24.0,-4.0,36.0,-94.0,1032.0
6.0,-25.0,224.0,-55.0,24.0,-5.0,34.0,-96.0,1034.0
8.0,-20.0,222.0,-57.0,23.0,-4.0,31.0,-96.0,1036.0
8.0,-26.0,231.0,-56.0,24.0,-5.0,31.0,-95.0,1034.0
8.0,-23.0,221.0,-56.0,24.0,-4.0,33.0,-94.0,1035.0
5.0,-26.0,223.0,-54.0,22.0,-4.0,31.0,-98.0,1031.0
6.0,-21.0,224.0,-53.0,22.0,-4.0,31.0,-90.0,1035.0
7.0,-26.0,224.0,-53.0,23.0,-5.0,30.0,-97.0,1041.0
12.0,-25.0,227.0,-52.0,21.0,-7.0,28.0,-103.0,1033.0
5.0,-26.0,226.0,-51.0,21.0,-6.0,29.0,-99.0,1036.0
10.0,-28.0,222.0,-50.0,21.0,-5.0,31.0,-96.0,1033.0
7.0,-23.0,228.0,-49.0,19.0,-6.0,28.0,-96.0,1034.0
10.0,-23.0,228.0,-50.0,18.0,-6.0,30.0,-95.0,1034.0
6.0,-29.0,227.0,-49.0,16.0,-6.0,33.0,-97.0,1031.0
9.0,-24.0,225.0,-49.0,15.0,-5.0,30.0,-100.0,1036.0
6.0,-26.0,225.0,-47.0,14.0,-4.0,30.0,-98.0,1035.0
9.0,-27.0,222.0,-46.0,14.0,-6.0,30.0,-97.0,1030.0
4.0,-23.0,226.0,-45.0,14.0,-5.0,29.0,-101.0,1030.0
5.0,-24.0,220.0,-44.0,14.0,-5.0,32.0,-100.0,1035.0
6.0,-24.0,222.0,-43.0,14.0,-5.0,33.0,-103.0,1032.0
6.0,-24.0,222.0,-41.0,14.0,-3.0,30.0,-95.0,1027.0
7.0,-22.0,225.0,-41.0,14.0,-5.0,32.0,-93.0,1033.0
7.0,-24.0,225.0,-39.0,13.0,-4.0,35.0,-99.0,1034.0
7.0,-25.0,224.0,-38.0,15.0,-3.0,30.0,-99.0,1032.0
3.0,-25.0,227.0,-38.0,15.0,-3.0,34.0,-97.0,1039.0
6.0,-27.0,230.0,-39.0,15.0,-4.0,32.0,-97.0,1034.0
5.0,-23.0,225.0,-39.0,15.0,-4.0,27.0,-96.0,1036.0
7.0,-23.0,221.0,-41.0,15.0,-5.0,36.0,-102.0,1033.0
7.0,-24.0,225.0,-43.0,15.0,-4.0,31.0,-100.0,1031.0
8.0,-25.0,224.0,-44.0,16.0,-5.0,32.0,-100.0,1034.0
8.0,-25.0,225.0,-44.0,17.0,-6.0,34.0,-95.0,1034.0
9.0,-25.0,225.0,-44.0,18.0,-6.0,35.0,-96.0,1035.0
7.0,-23.0,227.0,-46.0,19.0,-6.0,39.0,-98.0,1034.0
8.0,-24.0,223.0,-45.0,19.0,-7.0,35.0,-100.0,1034.0
8.0,-25.0,222.0,-46.0,19.0,-6.0,35.0,-98.0,1033.0
7.0,-19.0,222.0,-44.0,19.0,-6.0,33.0,-97.0,1034.0
10.0,-26.0,231.0,-46.0,18.0,-6.0,35.0,-104.0,1032.0
8.0,-22.0,224.0,-46.0,19.0,-8.0,38.0,-96.0,1033.0
7.0,-26.0,225.0,-44.0,19.0,-6.0,38.0,-96.0,1032.0
8.0,-25.0,227.0,-44.0,20.0,-6.0,36.0,-100.0,1035.0
8.0,-26.0,222.0,-43.0,20.0,-5.0,35.0,-97.0,1032.0
7.0,-26.0,224.0,-42.0,20.0,-7.0,37.0,-95.0,1032.0
10.0,-23.0,223.0,-40.0,19.0,-7.0,40.0,-93.0,1036.0
8.0,-24.0,225.0,-41.0,20.0,-7.0,36.0,-93.0,1033.0
8.0,-27.0,223.0,-41.0,18.0,-8.0,31.0,-97.0,1039.0
8.0,-23.0,224.0,-43.0,17.0,-9.0,41.0,-98.0,1035.0
8.0,-23.0,228.0,-42.0,17.0,-10.0,36.0,-92.0,1034.0
9.0,-24.0,226.0,-43.0,17.0,-10.0,32.0,-95.0,1036.0
8.0,-20.0,225.0,-45.0,17.0,-10.0,31.0,-94.0,1030.0
7.0,-23.0,222.0,-46.0,15.0,-8.0,33.0,-97.0,1037.0
5.0,-25.0,225.0,-45.0,16.0,-9.0,40.0,-91.0,1037.0
6.0,-22.0,225.0,-47.0,15.0,-10.0,33.0,-93.0,1037.0
9.0,-27.0,223.0,-46.0,14.0,-8.0,33.0,-102.0,1030.0
7.0,-23.0,223.0,-47.0,14.0,-7.0,26.0,-94.0,1035.0
7.0,-21.0,225.0,-48.0,14.0,-6.0,30.0,-95.0,1029.0
6.0,-25.0,224.0,-49.0,14.0,-6.0,33.0,-96.0,1034.0
7.0,-23.0,224.0,-51.0,13.0,-5.0,31.0,-95.0,1038.0
7.0,-24.0,225.0,-52.0,12.0,-4.0,31.0,-97.0,1033.0
6.0,-24.0,222.0,-53.0,12.0,-5.0,33.0,-91.0,1037.0
4.0,-23.0,227.0,-53.0,11.0,-4.0,31.0,-97.0,1034.0
7.0,-22.0,223.0,-53.0,12.0,-4.0,27.0,-95.0,1032.0
8.0,-24.0,224.0,-54.0,13.0,-3.0,28.0,-89.0,1030.0
7.0,-24.0,224.0,-56.0,16.0,-4.0,29.0,-93.0,1035.0
6.0,-25.0,225.0,-57.0,18.0,-2.0,29.0,-96.0,1036.0
8.0,-25.0,229.0,-56.0,20.0,-3.0,34.0,-95.0,1035.0
5.0,-24.0,226.0,-54.0,23.0,-4.0,34.0,-95.0,1031.0
12.0,-24.0,226.0,-55.0,25.0,-3.0,37.0,-100.0,1034.0
6.0,-23.0,224.0,-54.0,25.0,-3.0,34.0,-103.0,1036.0
7.0,-25.0,228.0,-56.0,26.0,-4.0,33.0,-96.0,1037.0
5.0,-27.0,227.0,-54.0,28.0,-3.0,36.0,-97.0,1032.0
9.0,-24.0,227.0,-53.0,28.0,-4.0,40.0,-98.0,1033.0
8.0,-25.0,225.0,-50.0,28.0,-3.0,33.0,-97.0,1035.0
6.0,-25.0,224.0,-49.0,28.0,-5.0,33.0,-101.0,1034.0
5.0,-24.0,222.0,-48.0,28.0,-6.0,30.0,-100.0,1030.0
7.0,-25.0,220.0,-47.0,26.0,-6.0,35.0,-101.0,1031.0
8.0,-27.0,222.0,-50.0,24.0,-6.0,32.0,-95.0,1029.0
2.0,-23.0,223.0,-49.0,24.0,-8.0,32.0,-97.0,1030.0
8.0,-23.0,225.0,-50.0,23.0,-7.0,35.0,-100.0,1036.0
10.0,-25.0,227.0,-52.0,22.0,-8.0,30.0,-100.0,1027.0
6.0,-24.0,228.0,-52.0,21.0,-9.0,32.0,-98.0,1037.0
2.0,-25.0,223.0,-52.0,19.0,-9.0,29.0,-97.0,1031.0
8.0,-21.0,226.0,-53.0,19.0,-10.0,28.0,-98.0,1034.0
5.0,-25.0,228.0,-53.0,18.0,-10.0,34.0,-98.0,1033.0
6.0,-24.0,225.0,-54.0,17.0,-9.0,31.0,-97.0,1035.0
8.0,-24.0,227.0,-53.0,16.0,-9.0,31.0,-100.0,1036.0
7.0,-23.0,225.0,-54.0,15.0,-8.0,27.0,-98.0,1030.0
6.0,-26.0,228.0,-55.0,14.0,-7.0,29.0,-97.0,1039.0
6.0,-24.0,221.0,-53.0,13.0,-6.0,32.0,-97.0,1037.0
5.0,-24.0,224.0,-52.0,14.0,-6.0,38.0,-96.0,1034.0
12.0,-26.0,224.0,-51.0,15.0,-5.0,31.0,-97.0,1032.0
9.0,-26.0,224.0,-52.0,14.0,-5.0,31.0,-96.0,1038.0
12.0,-19.0,220.0,-53.0,14.0,-6.0,32.0,-94.0,1031.0
7.0,-23.0,226.0,-54.0,14.0,-4.0,34.0,-95.0,1031.0
6.0,-24.0,224.0,-53.0,15.0,-4.0,34.0,-100.0,1031.0
7.0,-23.0,225.0,-54.0,16.0,-5.0,34.0,-98.0,1032.0
6.0,-22.0,224.0,-55.0,15.0,-2.0,30.0,-95.0,1031.0
6.0,-25.0,225.0,-56.0,16.0,-2.0,33.0,-97.0,1032.0
7.0,-23.0,226.0,-53.0,17.0,-3.0,34.0,-95.0,1032.0
9.0,-22.0,227.0,-52.0,18.0,-2.0,36.0,-96.0,1033.0
5.0,-24.0,224.0,-51.0,18.0,-2.0,28.0,-96.0,1037.0
7.0,-24.0,222.0,-51.0,18.0,-4.0,32.0,-101.0,1035.0
9.0,-27.0,222.0,-50.0,17.0,-2.0,28.0,-101.0,1039.0
6.0,-26.0,224.0,-49.0,17.0,-1.0,27.0,-98.0,1037.0
7.0,-24.0,222.0,-51.0,17.0,-2.0,33.0,-103.0,1028.0
5.0,-22.0,220.0,-48.0,17.0,-3.0,32.0,-99.0,1027.0
6.0,-23.0,224.0,-47.0,17.0,-3.0,32.0,-98.0,1033.0
7.0,-26.0,225.0,-49.0,17.0,-3.0,32.0,-94.0,1034.0
9.0,-23.0,224.0,-48.0,15.0,-3.0,33.0,-93.0,1032.0
6.0,-22.0,223.0,-48.0,16.0,-3.0,33.0,-97.0,1040.0
9.0,-21.0,224.0,-49.0,16.0,-4.0,28.0,-94.0,1030.0
7.0,-24.0,224.0,-50.0,16.0,-5.0,33.0,-101.0,1037.0
7.0,-25.0,224.0,-51.0,15.0,-5.0,38.0,-94.0,1033.0
12.0,-24.0,222.0,-52.0,16.0,-4.0,33.0,-101.0,1032.0
7.0,-25.0,224.0,-53.0,17.0,-5.0,32.0,-102.0,1033.0
2.0,-22.0,222.0,-54.0,17.0,-4.0,36.0,-105.0,1035.0
7.0,-26.0,225.0,-56.0,17.0,-5.0,30.0,-106.0,1036.0
6.0,-25.0,223.0,-58.0,19.0,-4.0,32.0,-105.0,1038.0
9.0,-26.0,226.0,-60.0,19.0,-6.0,33.0,-107.0,1037.0
4.0,-29.0,226.0,-64.0,20.0,-6.0,31.0,-108.0,1043.0
9.0,-27.0,226.0,-64.0,21.0,-6.0,34.0,-110.0,1032.0
7.0,-26.0,226.0,-64.0,21.0,-6.0,37.0,-108.0,1034.0
6.0,-27.0,226.0,-62.0,22.0,-6.0,34.0,-102.0,1035.0
4.0,-28.0,223.0,-58.0,24.0,-7.0,38.0,-105.0,1033.0
7.0,-21.0,218.0,-55.0,25.0,-7.0,34.0,-97.0,1033.0
10.0,-25.0,225.0,-54.0,24.0,-8.0,35.0,-104.0,1031.0
9.0,-25.0,225.0,-52.0,23.0,-7.0,29.0,-96.0,1032.0
7.0,-26.0,227.0,-49.0,23.0,-6.0,32.0,-97.0,1032.0
10.0,-27.0,224.0,-48.0,23.0,-7.0,36.0,-98.0,1038.0
5.0,-23.0,228.0,-45.0,24.0,-5.0,39.0,-96.0,1034.0
9.0,-25.0,221.0,-41.0,24.0,-5.0,31.0,-95.0,1031.0
7.0,-25.0,223.0,-39.0,23.0,-6.0,33.0,-95.0,1033.0
6.0,-24.0,222.0,-37.0,22.0,-7.0,32.0,-96.0,1031.0
8.0,-23.0,227.0,-37.0,22.0,-7.0,35.0,-96.0,1030.0
6.0,-22.0,226.0,-38.0,21.0,-6.0,33.0,-97.0,1031.0
0.0,-26.0,227.0,-38.0,21.0,-7.0,33.0,-97.0,1038.0
10.0,-22.0,226.0,-42.0,21.0,-6.0,34.0,-94.0,1038.0
6.0,-24.0,221.0,-43.0,22.0,-7.0,33.0,-92.0,1037.0
9.0,-25.0,228.0,-48.0,20.0,-6.0,27.0,-94.0,1033.0
9.0,-25.0,226.0,-52.0,17.0,-7.0,33.0,-90.0,1034.0
7.0,-26.0,226.0,-55.0,18.0,-6.0,30.0,-91.0,1037.0
6.0,-25.0,227.0,-58.0,17.0,-7.0,32.0,-95.0,1036.0
6.0,-24.0,227.0,-58.0,16.0,-7.0,32.0,-101.0,1032.0
6.0,-24.0,227.0,-58.0,16.0,-5.0,30.0,-99.0,1034.0
6.0,-24.0,223.0,-56.0,15.0,-5.0,31.0,-94.0,1037.0
8.0,-23.0,225.0,-56.0,15.0,-4.0,30.0,-97.0,1037.0
7.0,-25.0,227.0,-56.0,14.0,-5.0,29.0,-96.0,1028.0
6.0,-23.0,223.0,-55.0,16.0,-5.0,29.0,-101.0,1033.0
8.0,-24.0,225.0,-56.0,16.0,-5.0,35.0,-97.0,1034.0
6.0,-22.0,221.0,-57.0,16.0,-4.0,29.0,-103.0,1030.0
7.0,-25.0,221.0,-58.0,15.0,-6.0,29.0,-102.0,1032.0
4.0,-23.0,223.0,-57.0,17.0,-6.0,33.0,-100.0,1033.0
5.0,-28.0,222.0,-60.0,18.0,-6.0,29.0,-99.0,1026.0
6.0,-25.0,224.0,-58.0,19.0,-5.0,30.0,-100.0,1034.0
4.0,-22.0,225.0,-58.0,18.0,-5.0,29.0,-102.0,1035.0
7.0,-27.0,223.0,-57.0,19.0,-5.0,30.0,-103.0,1035.0
4.0,-27.0,228.0,-57.0,19.0,-5.0,31.0,-106.0,1032.0
8.0,-24.0,220.0,-56.0,21.0,-5.0,28.0,-102.0,1031.0
6.0,-26.0,223.0,-56.0,20.0,-4.0,26.0,-110.0,1035.0
6.0,-23.0,224.0,-57.0,18.0,-4.0,30.0,-103.0,1029.0
6.0,-27.0,224.0,-57.0,18.0,-4.0,32.0,-102.0,1035.0
7.0,-27.0,224.0,-57.0,19.0,-4.0,29.0,-108.0,1034.0
12.0,-31.0,225.0,-57.0,17.0,-4.0,28.0,-104.0,1034.0
5.0,-27.0,225.0,-56.0,17.0,-4.0,32.0,-105.0,1032.0
7.0,-28.0,221.0,-56.0,15.0,-3.0,35.0,-103.0,1032.0
6.0,-28.0,222.0,-55.0,14.0,-4.0,33.0,-101.0,1031.0
7.0,-27.0,223.0,-55.0,14.0,-4.0,35.0,-104.0,1033.0
2.0,-23.0,225.0,-52.0,14.0,-4.0,29.0,-103.0,1030.0
3.0,-27.0,224.0,-51.0,14.0,-4.0,29.0,-99.0,1029.0
7.0,-28.0,226.0,-51.0,12.0,-4.0,39.0,-102.0,1027.0
5.0,-24.0,225.0,-52.0,14.0,-5.0,32.0,-98.0,1031.0
6.0,-24.0,221.0,-53.0,14.0,-4.0,35.0,-104.0,1029.0
9.0,-27.0,220.0,-53.0,14.0,-6.0,33.0,-103.0,1035.0
8.0,-26.0,226.0,-51.0,15.0,-6.0,37.0,-103.0,1032.0
6.0,-27.0,227.0,-53.0,16.0,-5.0,30.0,-101.0,1032.0
6.0,-23.0,226.0,-53.0,16.0,-5.0,35.0,-102.0,1037.0
7.0,-26.0,220.0,-52.0,16.0,-4.0,35.0,-103.0,1033.0
10.0,-28.0,225.0,-54.0,15.0,-4.0,28.0,-107.0,1031.0
6.0,-23.0,222.0,-53.0,15.0,-5.0,35.0,-103.0,1037.0
5.0,-21.0,220.0,-52.0,15.0,-4.0,31.0,-104.0,1034.0
3.0,-25.0,224.0,-53.0,15.0,-3.0,29.0,-104.0,1032.0
6.0,-23.0,223.0,-52.0,15.0,-4.0,35.0,-103.0,1032.0
8.0,-25.0,224.0,-52.0,13.0,-4.0,31.0,-107.0,1034.0
6.0,-25.0,224.0,-52.0,14.0,-4.0,32.0,-104.0,1036.0
5.0,-26.0,223.0,-51.0,15.0,-5.0,34.0,-100.0,1034.0
8.0,-23.0,225.0,-51.0,13.0,-3.0,31.0,-97.0,1033.0
8.0,-21.0,228.0,-53.0,13.0,-7.0,29.0,-101.0,1035.0
9.0,-27.0,222.0,-54.0,13.0,-8.0,35.0,-107.0,1029.0
10.0,-27.0,223.0,-53.0,12.0,-9.0,34.0,-103.0,1035.0
5.0,-29.0,224.0,-50.0,11.0,-10.0,35.0,-102.0,1030.0
7.0,-23.0,228.0,-49.0,9.0,-11.0,32.0,-104.0,1028.0
7.0,-27.0,225.0,-47.0,8.0,-11.0,36.0,-110.0,1032.0
6.0,-27.0,227.0,-46.0,6.0,-10.0,33.0,-106.0,1031.0
5.0,-24.0,227.0,-46.0,4.0,-9.0,33.0,-105.0,1035.0
8.0,-27.0,224.0,-47.0,3.0,-8.0,30.0,-112.0,1036.0
5.0,-26.0,224.0,-46.0,2.0,-5.0,28.0,-111.0,1038.0
6.0,-26.0,226.0,-49.0,-2.0,-2.0,25.0,-111.0,1044.0
3.0,-25.0,223.0,-48.0,-8.0,2.0,32.0,-105.0,1035.0
6.0,-25.0,227.0,-51.0,-17.0,8.0,28.0,-104.0,1039.0
6.0,-25.0,228.0,-54.0,-28.0,15.0,22.0,-108.0,1034.0
2.0,-24.0,225.0,-63.0,-39.0,22.0,19.0,-108.0,1040.0
3.0,-25.0,232.0,-71.0,-53.0,32.0,20.0,-103.0,1040.0
1.0,-23.0,225.0,-79.0,-67.0,41.0,19.0,-103.0,1031.0
3.0,-26.0,223.0,-88.0,-79.0,50.0,18.0,-100.0,1030.0
2.0,-25.0,221.0,-94.0,-91.0,58.0,23.0,-97.0,1028.0
5.0,-26.0,222.0,-100.0,-102.0,68.0,17.0,-107.0,1020.0
4.0,-30.0,223.0,-104.0,-112.0,77.0,23.0,-110.0,1025.0
0.0,-25.0,222.0,-106.0,-122.0,88.0,24.0,-110.0,1024.0
1.0,-27.0,224.0,-108.0,-129.0,99.0,25.0,-114.0,1023.0
2.0,-26.0,221.0,-106.0,-135.0,108.0,19.0,-116.0,1028.0
8.0,-31.0,222.0,-101.0,-135.0,117.0,29.0,-120.0,1027.0
9.0,-29.0,219.0,-95.0,-132.0,123.0,24.0,-117.0,1032.0
10.0,-31.0,220.0,-85.0,-125.0,128.0,33.0,-122.0,1029.0
12.0,-30.0,221.0,-76.0,-115.0,130.0,42.0,-128.0,1024.0
13.0,-30.0,224.0,-68.0,-105.0,131.0,47.0,-131.0,1029.0
13.0,-36.0,224.0,-57.0,-94.0,128.0,51.0,-132.0,1030.0
14.0,-32.0,226.0,-45.0,-83.0,125.0,59.0,-134.0,1038.0
17.0,-33.0,227.0,-32.0,-73.0,118.0,69.0,-135.0,1036.0
14.0,-35.0,224.0,-22.0,-62.0,112.0,70.0,-134.0,1044.0
21.0,-31.0,223.0,-15.0,-48.0,105.0,73.0,-133.0,1040.0
17.0,-32.0,228.0,-10.0,-37.0,96.0,76.0,-136.0,1038.0
16.0,-28.0,223.0,-9.0,-28.0,88.0,72.0,-134.0,1031.0
16.0,-31.0,225.0,-10.0,-22.0,78.0,72.0,-126.0,1033.0
20.0,-29.0,223.0,-15.0,-17.0,69.0,75.0,-125.0,1037.0
17.0,-29.0,228.0,-22.0,-15.0,61.0,70.0,-117.0,1037.0
20.0,-28.0,225.0,-33.0,-14.0,53.0,73.0,-118.0,1040.0
17.0,-26.0,225.0,-42.0,-17.0,43.0,68.0,-109.0,1034.0
19.0,-26.0,228.0,-52.0,-19.0,36.0,65.0,-99.0,1032.0
15.0,-25.0,227.0,-62.0,-25.0,29.0,63.0,-101.0,1039.0
17.0,-23.0,227.0,-70.0,-31.0,24.0,59.0,-92.0,1035.0
18.0,-23.0,224.0,-80.0,-40.0,18.0,60.0,-94.0,1034.0
13.0,-26.0,220.0,-89.0,-48.0,14.0,57.0,-92.0,1033.0
9.0,-20.0,219.0,-102.0,-58.0,11.0,58.0,-103.0,1031.0
15.0,-24.0,226.0,-113.0,-67.0,9.0,52.0,-104.0,1024.0
14.0,-27.0,224.0,-120.0,-78.0,8.0,55.0,-110.0,1027.0
13.0,-28.0,221.0,-128.0,-88.0,6.0,53.0,-116.0,1028.0
16.0,-29.0,221.0,-133.0,-96.0,6.0,59.0,-121.0,1024.0
12.0,-29.0,223.0,-135.0,-103.0,8.0,51.0,-122.0,1022.0
12.0,-30.0,222.0,-136.0,-108.0,12.0,56.0,-120.0,1025.0
13.0,-30.0,222.0,-130.0,-113.0,15.0,57.0,-124.0,1027.0
16.0,-33.0,227.0,-123.0,-116.0,16.0,58.0,-124.0,1028.0
16.0,-33.0,223.0,-113.0,-117.0,20.0,58.0,-124.0,1031.0
16.0,-34.0,226.0,-101.0,-116.0,23.0,57.0,-127.0,1035.0
16.0,-32.0,225.0,-88.0,-112.0,28.0,62.0,-124.0,1036.0
15.0,-34.0,233.0,-73.0,-110.0,33.0,63.0,-124.0,1039.0
16.0,-34.0,229.0,-62.0,-107.0,39.0,64.0,-124.0,1040.0
15.0,-32.0,227.0,-53.0,-103.0,45.0,64.0,-121.0,1036.0
16.0,-31.0,230.0,-48.0,-101.0,52.0,66.0,-115.0,1036.0
14.0,-28.0,225.0,-46.0,-99.0,60.0,58.0,-118.0,1031.0
13.0,-28.0,224.0,-47.0,-100.0,69.0,57.0,-117.0,1039.0
14.0,-27.0,224.0,-51.0,-103.0,76.0,57.0,-113.0,1028.0
12.0,-28.0,226.0,-55.0,-107.0,84.0,51.0,-108.0,1035.0
12.0,-27.0,224.0,-63.0,-115.0,92.0,52.0,-113.0,1036.0
13.0,-27.0,223.0,-69.0,-121.0,97.0,48.0,-113.0,1032.0
11.0,-26.0,225.0,-78.0,-129.0,103.0,53.0,-109.0,1036.0
11.0,-30.0,226.0,-83.0,-135.0,106.0,54.0,-117.0,1036.0
13.0,-30.0,224.0,-85.0,-141.0,108.0,54.0,-113.0,1035.0
14.0,-29.0,223.0,-91.0,-144.0,110.0,57.0,-118.0,1034.0
17.0,-30.0,226.0,-95.0,-146.0,110.0,67.0,-115.0,1038.0
15.0,-31.0,227.0,-96.0,-147.0,106.0,48.0,-117.0,1037.0
13.0,-30.0,224.0,-97.0,-145.0,105.0,56.0,-115.0,1036.0
13.0,-25.0,227.0,-100.0,-148.0,103.0,53.0,-112.0,1040.0
14.0,-29.0,224.0,-103.0,-147.0,99.0,54.0,-113.0,1030.0
17.0,-29.0,225.0,-111.0,-146.0,94.0,59.0,-111.0,1026.0
18.0,-27.0,222.0,-125.0,-143.0,89.0,65.0,-112.0,1031.0
19.0,-29.0,223.0,-136.0,-138.0,80.0,76.0,-117.0,1029.0
22.0,-33.0,231.0,-152.0,-128.0,72.0,76.0,-118.0,1030.0
22.0,-30.0,224.0,-161.0,-116.0,66.0,77.0,-115.0,1033.0
19.0,-25.0,225.0,-162.0,-105.0,59.0,83.0,-114.0,1036.0
24.0,-28.0,223.0,-163.0,-96.0,56.0,85.0,-114.0,1032.0
25.0,-26.0,222.0,-162.0,-84.0,53.0,98.0,-97.0,1031.0
24.0,-25.0,222.0,-159.0,-71.0,51.0,93.0,-101.0,1026.0
25.0,-25.0,220.0,-160.0,-57.0,49.0,93.0,-101.0,1019.0
29.0,-21.0,223.0,-166.0,-44.0,51.0,99.0,-91.0,1036.0
27.0,-23.0,223.0,-166.0,-33.0,50.0,108.0,-83.0,1035.0
26.0,-23.0,221.0,-164.0,-19.0,57.0,98.0,-88.0,1029.0
29.0,-24.0,222.0,-171.0,-4.0,70.0,106.0,-100.0,1036.0
31.0,-28.0,227.0,-183.0,14.0,78.0,120.0,-103.0,1046.0
33.0,-29.0,228.0,-185.0,34.0,82.0,121.0,-117.0,1049.0
32.0,-34.0,232.0,-183.0,51.0,84.0,114.0,-115.0,1064.0
30.0,-31.0,234.0,-167.0,63.0,87.0,109.0,-124.0,1063.0
26.0,-31.0,233.0,-145.0,76.0,91.0,103.0,-126.0,1056.0
23.0,-30.0,231.0,-125.0,90.0,96.0,102.0,-127.0,1061.0
23.0,-31.0,232.0,-114.0,101.0,100.0,92.0,-128.0,1060.0
22.0,-31.0,236.0,-112.0,110.0,107.0,89.0,-126.0,1060.0
21.0,-34.0,233.0,-119.0,116.0,114.0,85.0,-137.0,1057.0
18.0,-36.0,227.0,-136.0,124.0,123.0,77.0,-139.0,1055.0
22.0,-38.0,226.0,-158.0,140.0,134.0,86.0,-147.0,1052.0
33.0,-43.0,224.0,-178.0,168.0,144.0,93.0,-177.0,1047.0
31.0,-48.0,225.0,-197.0,216.0,148.0,107.0,-191.0,1041.0
34.0,-49.0,225.0,-216.0,286.0,144.0,118.0,-206.0,1029.0
35.0,-56.0,219.0,-231.0,372.0,137.0,131.0,-208.0,1024.0
40.0,-50.0,218.0,-242.0,472.0,128.0,138.0,-199.0,1018.0
39.0,-47.0,220.0,-249.0,575.0,120.0,141.0,-190.0,1011.0
36.0,-49.0,218.0,-253.0,670.0,112.0,134.0,-186.0,1016.0
30.0,-42.0,229.0,-252.0,743.0,102.0,130.0,-171.0,1028.0
27.0,-39.0,227.0,-249.0,784.0,94.0,113.0,-159.0,1040.0
23.0,-39.0,228.0,-239.0,789.0,79.0,96.0,-157.0,1049.0
16.0,-40.0,229.0,-217.0,767.0,62.0,79.0,-152.0,1052.0
11.0,-38.0,224.0,-192.0,719.0,47.0,68.0,-144.0,1048.0
9.0,-36.0,230.0,-172.0,659.0,34.0,50.0,-137.0,1048.0
3.0,-33.0,229.0,-153.0,595.0,26.0,29.0,-132.0,1047.0
-1.0,-31.0,229.0,-145.0,533.0,20.0,23.0,-122.0,1052.0
-1.0,-26.0,230.0,-141.0,475.0,18.0,10.0,-118.0,1059.0
-4.0,-29.0,230.0,-136.0,425.0,12.0,-2.0,-117.0,1053.0
-2.0,-29.0,227.0,-140.0,385.0,6.0,-9.0,-121.0,1052.0
-6.0,-30.0,225.0,-143.0,356.0,2.0,-8.0,-120.0,1050.0
0.0,-27.0,230.0,-142.0,334.0,-10.0,-2.0,-115.0,1052.0
-1.0,-30.0,227.0,-133.0,318.0,-24.0,0.0,-123.0,1034.0
-2.0,-33.0,219.0,-132.0,307.0,-38.0,-8.0,-115.0,1027.0
-2.0,-29.0,222.0,-126.0,300.0,-47.0,-2.0,-124.0,1014.0
-2.0,-30.0,214.0,-124.0,296.0,-52.0,-8.0,-127.0,1001.0
-2.0,-32.0,216.0,-119.0,296.0,-61.0,-5.0,-134.0,997.0
-1.0,-33.0,214.0,-115.0,293.0,-74.0,0.0,-134.0,1000.0
0.0,-38.0,215.0,-110.0,290.0,-79.0,-3.0,-143.0,982.0
-3.0,-42.0,210.0,-105.0,287.0,-84.0,-9.0,-147.0,985.0
-2.0,-39.0,216.0,-108.0,284.0,-89.0,-20.0,-148.0,993.0
-6.0,-40.0,218.0,-105.0,281.0,-93.0,-28.0,-151.0,1003.0
-11.0,-39.0,222.0,-104.0,275.0,-97.0,-40.0,-148.0,1008.0
-15.0,-41.0,212.0,-97.0,269.0,-98.0,-47.0,-153.0,1013.0
-12.0,-47.0,219.0,-83.0,261.0,-99.0,-63.0,-160.0,1015.0
-23.0,-40.0,216.0,-72.0,251.0,-102.0,-83.0,-160.0,1009.0
-25.0,-41.0,224.0,-62.0,237.0,-111.0,-105.0,-155.0,1031.0
-32.0,-40.0,220.0,-44.0,215.0,-124.0,-127.0,-156.0,1016.0
-37.0,-41.0,217.0,-29.0,195.0,-124.0,-140.0,-151.0,1014.0
-38.0,-37.0,220.0,-16.0,176.0,-126.0,-151.0,-144.0,1013.0
-38.0,-39.0,214.0,-3.0,163.0,-130.0,-155.0,-160.0,998.0
-43.0,-40.0,215.0,-7.0,145.0,-140.0,-166.0,-158.0,987.0
-45.0,-45.0,210.0,-18.0,124.0,-147.0,-163.0,-165.0,987.0
-49.0,-43.0,210.0,-34.0,106.0,-154.0,-161.0,-171.0,978.0
-43.0,-45.0,212.0,-54.0,88.0,-163.0,-167.0,-178.0,986.0
-47.0,-47.0,219.0,-72.0,64.0,-173.0,-158.0,-186.0,989.0
-45.0,-48.0,215.0,-90.0,34.0,-193.0,-168.0,-190.0,995.0
-40.0,-51.0,214.0,-100.0,-1.0,-204.0,-144.0,-196.0,993.0
-39.0,-56.0,209.0,-113.0,-35.0,-202.0,-147.0,-208.0,988.0
-37.0,-54.0,211.0,-131.0,-66.0,-202.0,-131.0,-225.0,964.0
-27.0,-57.0,218.0,-156.0,-96.0,-208.0,-99.0,-218.0,998.0
-26.0,-63.0,220.0,-156.0,-128.0,-217.0,-98.0,-228.0,1013.0
-25.0,-61.0,220.0,-139.0,-154.0,-233.0,-94.0,-238.0,1017.0
-18.0,-65.0,221.0,-116.0,-177.0,-248.0,-85.0,-248.0,1005.0
-16.0,-66.0,217.0,-82.0,-191.0,-245.0,-66.0,-253.0,1003.0
-15.0,-67.0,216.0,-48.0,-199.0,-243.0,-53.0,-258.0,993.0
-11.0,-65.0,206.0,-16.0,-203.0,-242.0,-40.0,-263.0,989.0
-9.0,-69.0,215.0,11.0,-206.0,-248.0,-28.0,-267.0,984.0
-5.0,-67.0,209.0,34.0,-209.0,-258.0,-16.0,-267.0,987.0
-3.0,-66.0,211.0,57.0,-214.0,-264.0,-12.0,-258.0,983.0
2.0,-65.0,211.0,77.0,-217.0,-264.0,-3.0,-256.0,982.0
5.0,-61.0,211.0,96.0,-219.0,-262.0,12.0,-232.0,979.0
6.0,-60.0,213.0,113.0,-223.0,-259.0,26.0,-236.0,987.0
7.0,-62.0,207.0,119.0,-233.0,-253.0,13.0,-245.0,962.0
8.0,-55.0,219.0,113.0,-249.0,-241.0,48.0,-230.0,1015.0
7.0,-56.0,216.0,120.0,-266.0,-249.0,28.0,-204.0,1010.0
9.0,-53.0,217.0,122.0,-284.0,-240.0,54.0,-212.0,1000.0
10.0,-43.0,214.0,122.0,-295.0,-224.0,50.0,-207.0,1009.0
13.0,-50.0,219.0,120.0,-308.0,-210.0,59.0,-199.0,1005.0
13.0,-51.0,216.0,117.0,-319.0,-195.0,63.0,-194.0,999.0
15.0,-49.0,216.0,113.0,-330.0,-185.0,66.0,-190.0,1002.0
15.0,-46.0,218.0,105.0,-336.0,-172.0,69.0,-184.0,997.0
20.0,-46.0,216.0,96.0,-341.0,-156.0,77.0,-181.0,1001.0
22.0,-43.0,214.0,87.0,-344.0,-142.0,82.0,-177.0,1000.0
26.0,-42.0,219.0,80.0,-345.0,-127.0,94.0,-173.0,995.0
25.0,-45.0,214.0,73.0,-343.0,-108.0,104.0,-170.0,1004.0
28.0,-38.0,218.0,71.0,-335.0,-94.0,110.0,-156.0,1004.0
33.0,-39.0,219.0,73.0,-328.0,-82.0,123.0,-153.0,1002.0
29.0,-40.0,217.0,73.0,-321.0,-74.0,134.0,-145.0,1005.0
31.0,-36.0,216.0,70.0,-314.0,-67.0,121.0,-142.0,1007.0
36.0,-37.0,218.0,63.0,-311.0,-63.0,132.0,-144.0,1003.0
34.0,-25.0,213.0,56.0,-313.0,-62.0,128.0,-112.0,1005.0
29.0,-24.0,215.0,54.0,-307.0,-50.0,119.0,-102.0,1002.0
27.0,-21.0,218.0,52.0,-300.0,-41.0,102.0,-86.0,1009.0
26.0,-18.0,217.0,54.0,-295.0,-28.0,102.0,-68.0,1011.0
24.0,-16.0,219.0,59.0,-292.0,-16.0,92.0,-68.0,1009.0
25.0,-12.0,220.0,64.0,-287.0,-7.0,95.0,-60.0,1009.0
21.0,-13.0,220.0,66.0,-279.0,3.0,92.0,-53.0,1019.0
26.0,-15.0,219.0,66.0,-269.0,12.0,92.0,-52.0,1023.0
21.0,-18.0,228.0,67.0,-257.0,21.0,92.0,-59.0,1029.0
25.0,-16.0,222.0,70.0,-242.0,29.0,97.0,-60.0,1027.0
28.0,-19.0,222.0,76.0,-226.0,37.0,103.0,-63.0,1032.0
29.0,-15.0,226.0,83.0,-211.0,45.0,106.0,-68.0,1032.0
30.0,-19.0,222.0,94.0,-195.0,53.0,106.0,-72.0,1029.0
29.0,-21.0,226.0,102.0,-182.0,60.0,110.0,-78.0,1040.0
27.0,-20.0,224.0,115.0,-176.0,70.0,105.0,-77.0,1043.0
26.0,-17.0,229.0,127.0,-170.0,80.0,107.0,-77.0,1038.0
24.0,-18.0,222.0,141.0,-169.0,90.0,102.0,-79.0,1043.0
27.0,-19.0,230.0,157.0,-171.0,100.0,97.0,-77.0,1056.0
22.0,-16.0,232.0,176.0,-171.0,112.0,91.0,-73.0,1060.0
30.0,-17.0,231.0,199.0,-172.0,125.0,90.0,-67.0,1052.0
27.0,-17.0,230.0,219.0,-171.0,138.0,98.0,-64.0,1046.0
26.0,-19.0,229.0,232.0,-169.0,149.0,96.0,-64.0,1051.0
17.0,-19.0,235.0,248.0,-165.0,156.0,78.0,-69.0,1075.0
14.0,-18.0,244.0,277.0,-153.0,163.0,47.0,-66.0,1115.0
6.0,-15.0,248.0,327.0,-128.0,170.0,22.0,-52.0,1131.0
3.0,-10.0,244.0,398.0,-96.0,173.0,5.0,-29.0,1103.0
3.0,1.0,235.0,460.0,-57.0,171.0,-1.0,-1.0,1070.0
6.0,8.0,227.0,506.0,4.0,165.0,29.0,25.0,1052.0
24.0,14.0,230.0,535.0,96.0,154.0,77.0,35.0,1047.0
36.0,7.0,227.0,546.0,225.0,139.0,115.0,25.0,1052.0
44.0,7.0,237.0,539.0,384.0,131.0,139.0,2.0,1066.0
45.0,-1.0,239.0,511.0,547.0,136.0,155.0,-21.0,1085.0
55.0,-14.0,246.0,478.0,700.0,154.0,204.0,-57.0,1115.0
59.0,-20.0,252.0,449.0,828.0,163.0,228.0,-93.0,1158.0
63.0,-31.0,267.0,434.0,925.0,164.0,231.0,-113.0,1195.0
52.0,-30.0,279.0,430.0,985.0,170.0,203.0,-132.0,1250.0
39.0,-38.0,293.0,442.0,1002.0,187.0,162.0,-146.0,1304.0
30.0,-37.0,303.0,477.0,982.0,209.0,123.0,-146.0,1348.0
20.0,-32.0,312.0,526.0,937.0,231.0,97.0,-129.0,1368.0
13.0,-27.0,312.0,572.0,885.0,258.0,68.0,-114.0,1368.0
4.0,-23.0,303.0,599.0,834.0,290.0,41.0,-108.0,1360.0
6.0,-21.0,302.0,584.0,788.0,326.0,39.0,-121.0,1332.0
6.0,-24.0,293.0,528.0,751.0,360.0,36.0,-128.0,1316.0
7.0,-29.0,286.0,450.0,727.0,394.0,54.0,-138.0,1301.0
22.0,-37.0,276.0,354.0,716.0,427.0,84.0,-173.0,1245.0
23.0,-41.0,273.0,245.0,722.0,448.0,86.0,-177.0,1241.0
34.0,-43.0,273.0,160.0,742.0,464.0,143.0,-182.0,1234.0
45.0,-41.0,275.0,115.0,755.0,456.0,186.0,-164.0,1232.0
52.0,-41.0,271.0,108.0,754.0,428.0,228.0,-156.0,1202.0
67.0,-34.0,262.0,109.0,732.0,390.0,281.0,-132.0,1188.0
76.0,-26.0,256.0,105.0,697.0,349.0,303.0,-105.0,1161.0
75.0,-11.0,256.0,80.0,658.0,303.0,299.0,-51.0,1173.0
67.0,-2.0,257.0,47.0,629.0,266.0,266.0,-27.0,1156.0
63.0,2.0,254.0,-5.0,626.0,247.0,244.0,-7.0,1152.0
62.0,7.0,254.0,-65.0,652.0,229.0,229.0,8.0,1160.0
57.0,12.0,256.0,-122.0,710.0,215.0,214.0,28.0,1171.0
53.0,11.0,261.0,-170.0,799.0,201.0,191.0,37.0,1187.0
45.0,9.0,264.0,-202.0,911.0,186.0,159.0,25.0,1184.0
33.0,4.0,264.0,-217.0,1026.0,177.0,118.0,12.0,1177.0
29.0,-2.0,258.0,-219.0,1128.0,178.0,95.0,-11.0,1172.0
12.0,-5.0,253.0,-209.0,1201.0,174.0,43.0,-9.0,1149.0
0.0,0.0,247.0,-194.0,1263.0,178.0,-7.0,-6.0,1111.0
-9.0,4.0,234.0,-182.0,1325.0,186.0,-33.0,-4.0,1081.0
-16.0,1.0,225.0,-183.0,1374.0,197.0,-61.0,-7.0,1040.0
-22.0,1.0,215.0,-209.0,1405.0,206.0,-94.0,-8.0,1003.0
-29.0,1.0,208.0,-254.0,1430.0,218.0,-121.0,-18.0,967.0
-40.0,-3.0,202.0,-311.0,1444.0,225.0,-148.0,-36.0,950.0
-46.0,-14.0,200.0,-360.0,1450.0,230.0,-179.0,-54.0,940.0
-53.0,-17.0,199.0,-390.0,1447.0,236.0,-191.0,-71.0,925.0
-55.0,-22.0,194.0,-392.0,1441.0,242.0,-205.0,-89.0,915.0
-55.0,-22.0,193.0,-364.0,1434.0,244.0,-207.0,-86.0,904.0
-62.0,-17.0,189.0,-306.0,1434.0,240.0,-223.0,-76.0,894.0
-62.0,-15.0,185.0,-239.0,1450.0,239.0,-246.0,-68.0,859.0
-63.0,-15.0,176.0,-177.0,1465.0,242.0,-246.0,-55.0,846.0
-67.0,-8.0,165.0,-121.0,1483.0,238.0,-257.0,-34.0,814.0
-71.0,1.0,163.0,-83.0,1503.0,231.0,-279.0,-12.0,787.0
-78.0,9.0,153.0,-68.0,1524.0,226.0,-291.0,24.0,760.0
-79.0,18.0,147.0,-69.0,1546.0,225.0,-297.0,52.0,731.0
-78.0,24.0,148.0,-84.0,1567.0,218.0,-297.0,80.0,724.0
-79.0,26.0,146.0,-117.0,1582.0,211.0,-305.0,98.0,722.0
-80.0,25.0,148.0,-156.0,1596.0,206.0,-306.0,100.0,731.0
-75.0,29.0,150.0,-194.0,1617.0,198.0,-294.0,105.0,730.0
-74.0,26.0,148.0,-223.0,1643.0,195.0,-289.0,101.0,735.0
-70.0,25.0,152.0,-249.0,1676.0,193.0,-283.0,99.0,732.0
-71.0,24.0,148.0,-272.0,1707.0,192.0,-286.0,104.0,735.0
-76.0,28.0,149.0,-296.0,1731.0,194.0,-292.0,98.0,739.0
-74.0,26.0,145.0,-323.0,1749.0,198.0,-284.0,89.0,728.0
-71.0,26.0,149.0,-354.0,1758.0,203.0,-277.0,87.0,724.0
-69.0,21.0,150.0,-387.0,1768.0,211.0,-270.0,81.0,731.0
-66.0,21.0,152.0,-419.0,1776.0,223.0,-263.0,72.0,741.0
-66.0,17.0,156.0,-448.0,1782.0,237.0,-254.0,51.0,745.0
-68.0,6.0,149.0,-472.0,1785.0,250.0,-252.0,36.0,740.0
-64.0,5.0,149.0,-489.0,1786.0,264.0,-245.0,16.0,747.0
-62.0,1.0,154.0,-508.0,1782.0,276.0,-241.0,-3.0,751.0
-64.0,-3.0,149.0,-521.0,1770.0,293.0,-239.0,-19.0,750.0
-65.0,-6.0,152.0,-529.0,1751.0,308.0,-240.0,-40.0,745.0
-66.0,-14.0,150.0,-529.0,1729.0,323.0,-238.0,-53.0,743.0
-62.0,-20.0,150.0,-521.0,1711.0,332.0,-250.0,-65.0,744.0
-69.0,-16.0,154.0,-509.0,1692.0,339.0,-253.0,-70.0,748.0
-66.0,-23.0,158.0,-494.0,1674.0,341.0,-262.0,-84.0,756.0
-71.0,-22.0,155.0,-483.0,1654.0,340.0,-270.0,-85.0,763.0
-75.0,-19.0,158.0,-471.0,1635.0,334.0,-273.0,-80.0,768.0
-75.0,-19.0,158.0,-457.0,1615.0,325.0,-285.0,-83.0,786.0
-78.0,-18.0,165.0,-444.0,1594.0,313.0,-287.0,-75.0,791.0
-80.0,-19.0,162.0,-438.0,1572.0,300.0,-291.0,-74.0,812.0
-81.0,-22.0,175.0,-436.0,1544.0,283.0,-307.0,-79.0,827.0
-84.0,-23.0,179.0,-434.0,1512.0,264.0,-322.0,-89.0,840.0
-89.0,-24.0,181.0,-429.0,1472.0,245.0,-334.0,-99.0,845.0
-96.0,-25.0,187.0,-421.0,1428.0,223.0,-362.0,-107.0,866.0
-101.0,-29.0,184.0,-410.0,1381.0,200.0,-385.0,-104.0,876.0
-110.0,-28.0,190.0,-397.0,1334.0,180.0,-407.0,-111.0,883.0
-113.0,-30.0,194.0,-381.0,1284.0,162.0,-421.0,-121.0,889.0
-120.0,-31.0,194.0,-371.0,1239.0,146.0,-449.0,-131.0,895.0
-125.0,-34.0,191.0,-362.0,1200.0,131.0,-479.0,-136.0,887.0
-133.0,-38.0,195.0,-358.0,1166.0,114.0,-508.0,-151.0,901.0
-140.0,-37.0,192.0,-357.0,1133.0,97.0,-528.0,-149.0,907.0
-146.0,-40.0,196.0,-361.0,1101.0,81.0,-558.0,-165.0,912.0
-147.0,-41.0,191.0,-372.0,1065.0,61.0,-568.0,-160.0,929.0
-147.0,-41.0,203.0,-382.0,1024.0,40.0,-574.0,-170.0,940.0
-149.0,-44.0,211.0,-389.0,980.0,13.0,-570.0,-172.0,966.0
-146.0,-48.0,211.0,-398.0,931.0,-12.0,-573.0,-178.0,992.0
-151.0,-53.0,218.0,-400.0,875.0,-30.0,-585.0,-205.0,1013.0
-162.0,-53.0,223.0,-396.0,822.0,-49.0,-607.0,-220.0,1025.0
-179.0,-59.0,224.0,-381.0,782.0,-63.0,-677.0,-233.0,1016.0
-186.0,-70.0,222.0,-366.0,755.0,-73.0,-708.0,-277.0,1027.0
-193.0,-68.0,225.0,-346.0,716.0,-96.0,-740.0,-271.0,1028.0
-192.0,-65.0,220.0,-308.0,679.0,-103.0,-741.0,-252.0,1018.0
-183.0,-61.0,213.0,-259.0,652.0,-91.0,-716.0,-235.0,988.0
-182.0,-58.0,207.0,-206.0,639.0,-79.0,-711.0,-222.0,959.0
-187.0,-52.0,200.0,-155.0,642.0,-62.0,-721.0,-203.0,933.0
-181.0,-51.0,189.0,-115.0,651.0,-40.0,-708.0,-197.0,893.0
-178.0,-46.0,176.0,-90.0,661.0,-22.0,-689.0,-191.0,855.0
-173.0,-46.0,170.0,-82.0,674.0,-10.0,-677.0,-174.0,827.0
-171.0,-44.0,168.0,-84.0,689.0,-4.0,-664.0,-172.0,804.0
-163.0,-41.0,158.0,-89.0,705.0,-1.0,-652.0,-158.0,785.0
-163.0,-36.0,155.0,-95.0,720.0,-2.0,-639.0,-150.0,764.0
-160.0,-37.0,148.0,-99.0,739.0,-3.0,-631.0,-147.0,753.0
-155.0,-30.0,145.0,-108.0,760.0,-7.0,-610.0,-123.0,729.0
-154.0,-29.0,144.0,-116.0,789.0,-11.0,-608.0,-118.0,710.0
-160.0,-25.0,139.0,-125.0,825.0,-19.0,-623.0,-91.0,697.0
-162.0,-15.0,121.0,-132.0,862.0,-26.0,-638.0,-65.0,694.0
-169.0,-10.0,142.0,-137.0,885.0,-27.0,-650.0,-48.0,694.0
-174.0,-9.0,140.0,-142.0,896.0,-32.0,-678.0,-41.0,688.0
-181.0,-9.0,143.0,-151.0,900.0,-38.0,-698.0,-36.0,690.0
-187.0,-2.0,140.0,-162.0,896.0,-45.0,-718.0,-31.0,704.0
-194.0,-8.0,139.0,-163.0,888.0,-51.0,-753.0,-40.0,689.0
-199.0,-15.0,137.0,-173.0,878.0,-55.0,-770.0,-58.0,686.0
-199.0,-16.0,142.0,-198.0,866.0,-51.0,-782.0,-67.0,691.0
-204.0,-17.0,142.0,-219.0,859.0,-50.0,-799.0,-80.0,691.0
-208.0,-29.0,139.0,-230.0,857.0,-50.0,-810.0,-87.0,689.0
-213.0,-25.0,134.0,-235.0,858.0,-50.0,-824.0,-102.0,686.0
-218.0,-28.0,137.0,-240.0,859.0,-55.0,-846.0,-110.0,677.0
-223.0,-31.0,133.0,-250.0,857.0,-62.0,-860.0,-129.0,673.0
-228.0,-34.0,131.0,-273.0,846.0,-70.0,-876.0,-132.0,665.0
-234.0,-35.0,131.0,-301.0,833.0,-78.0,-893.0,-143.0,662.0
-237.0,-36.0,126.0,-330.0,823.0,-89.0,-915.0,-150.0,642.0
-242.0,-39.0,124.0,-360.0,816.0,-97.0,-928.0,-157.0,629.0
-245.0,-41.0,123.0,-387.0,813.0,-103.0,-934.0,-166.0,628.0
-247.0,-43.0,121.0,-406.0,810.0,-105.0,-960.0,-171.0,617.0
-250.0,-44.0,124.0,-425.0,813.0,-103.0,-968.0,-181.0,614.0
-246.0,-46.0,118.0,-443.0,822.0,-98.0,-964.0,-178.0,614.0
-243.0,-47.0,115.0,-455.0,839.0,-91.0,-952.0,-180.0,598.0
-240.0,-47.0,111.0,-465.0,864.0,-83.0,-936.0,-181.0,594.0
-239.0,-46.0,113.0,-476.0,893.0,-75.0,-919.0,-180.0,584.0
-231.0,-46.0,108.0,-491.0,927.0,-69.0,-908.0,-180.0,576.0
-230.0,-48.0,107.0,-509.0,959.0,-65.0,-896.0,-177.0,564.0
-229.0,-43.0,107.0,-529.0,988.0,-59.0,-889.0,-180.0,564.0
-234.0,-45.0,109.0,-551.0,1012.0,-55.0,-888.0,-182.0,560.0
-230.0,-47.0,112.0,-571.0,1029.0,-53.0,-889.0,-177.0,559.0
-229.0,-46.0,102.0,-592.0,1039.0,-49.0,-882.0,-184.0,569.0
-225.0,-51.0,110.0,-612.0,1042.0,-46.0,-876.0,-196.0,565.0
-223.0,-50.0,107.0,-633.0,1047.0,-47.0,-870.0,-206.0,559.0
-220.0,-58.0,105.0,-648.0,1058.0,-48.0,-861.0,-216.0,557.0
-224.0,-60.0,103.0,-654.0,1075.0,-49.0,-866.0,-229.0,561.0
-219.0,-64.0,108.0,-654.0,1098.0,-51.0,-858.0,-239.0,560.0
-218.0,-66.0,106.0,-645.0,1125.0,-51.0,-858.0,-249.0,562.0
-220.0,-66.0,105.0,-628.0,1164.0,-52.0,-867.0,-266.0,560.0
-224.0,-69.0,104.0,-597.0,1217.0,-54.0,-869.0,-267.0,555.0
-217.0,-72.0,111.0,-551.0,1284.0,-56.0,-852.0,-282.0,563.0
-212.0,-76.0,112.0,-492.0,1357.0,-62.0,-835.0,-291.0,578.0
-208.0,-78.0,110.0,-416.0,1425.0,-78.0,-816.0,-292.0,586.0
-204.0,-80.0,114.0,-330.0,1479.0,-90.0,-794.0,-302.0,595.0
-200.0,-79.0,118.0,-237.0,1515.0,-106.0,-780.0,-308.0,611.0
-205.0,-82.0,123.0,-146.0,1525.0,-116.0,-794.0,-311.0,617.0
-194.0,-82.0,127.0,-62.0,1521.0,-117.0,-753.0,-308.0,652.0
-188.0,-81.0,126.0,34.0,1504.0,-123.0,-742.0,-307.0,651.0
-195.0,-79.0,128.0,126.0,1493.0,-142.0,-743.0,-303.0,643.0
-192.0,-82.0,131.0,203.0,1481.0,-157.0,-741.0,-302.0,654.0
-194.0,-77.0,133.0,268.0,1455.0,-166.0,-749.0,-296.0,660.0
-194.0,-73.0,134.0,321.0,1412.0,-164.0,-751.0,-284.0,657.0
-194.0,-68.0,132.0,361.0,1349.0,-153.0,-743.0,-274.0,655.0
-193.0,-68.0,126.0,381.0,1269.0,-139.0,-742.0,-260.0,646.0
-194.0,-62.0,120.0,381.0,1175.0,-126.0,-746.0,-246.0,620.0
-197.0,-59.0,111.0,361.0,1077.0,-114.0,-747.0,-232.0,594.0
-197.0,-51.0,109.0,324.0,987.0,-105.0,-748.0,-210.0,572.0
-198.0,-52.0,102.0,278.0,910.0,-96.0,-762.0,-205.0,542.0
-202.0,-48.0,96.0,232.0,847.0,-90.0,-769.0,-195.0,515.0
-207.0,-52.0,87.0,186.0,793.0,-76.0,-785.0,-198.0,494.0
-206.0,-50.0,83.0,141.0,753.0,-67.0,-801.0,-197.0,479.0
-213.0,-51.0,84.0,99.0,719.0,-59.0,-820.0,-205.0,469.0
-218.0,-51.0,81.0,69.0,695.0,-53.0,-845.0,-210.0,454.0
-225.0,-54.0,81.0,42.0,679.0,-50.0,-874.0,-212.0,444.0
-232.0,-56.0,72.0,21.0,669.0,-47.0,-890.0,-203.0,435.0
-238.0,-49.0,70.0,1.0,668.0,-43.0,-907.0,-194.0,421.0
-238.0,-47.0,61.0,-17.0,677.0,-38.0,-920.0,-192.0,402.0
-241.0,-46.0,66.0,-38.0,693.0,-32.0,-931.0,-177.0,393.0
-242.0,-45.0,64.0,-60.0,717.0,-25.0,-948.0,-160.0,376.0
-246.0,-40.0,56.0,-80.0,748.0,-16.0,-966.0,-149.0,365.0
-247.0,-37.0,55.0,-95.0,781.0,-2.0,-966.0,-138.0,351.0
-245.0,-33.0,52.0,-107.0,813.0,13.0,-967.0,-127.0,337.0
-246.0,-33.0,48.0,-113.0,844.0,27.0,-966.0,-122.0,328.0
-246.0,-31.0,45.0,-112.0,869.0,42.0,-957.0,-111.0,316.0
-244.0,-29.0,37.0,-106.0,894.0,64.0,-949.0,-112.0,302.0
-242.0,-28.0,40.0,-92.0,923.0,86.0,-940.0,-102.0,285.0
-241.0,-29.0,38.0,-78.0,951.0,110.0,-936.0,-97.0,279.0
-244.0,-28.0,41.0,-67.0,970.0,131.0,-940.0,-97.0,271.0
-243.0,-24.0,32.0,-62.0,977.0,150.0,-942.0,-96.0,260.0
-245.0,-25.0,29.0,-59.0,967.0,161.0,-958.0,-93.0,255.0
-249.0,-23.0,31.0,-65.0,947.0,173.0,-967.0,-91.0,242.0
-253.0,-25.0,27.0,-77.0,918.0,178.0,-972.0,-89.0,245.0
-255.0,-24.0,28.0,-94.0,890.0,183.0,-985.0,-92.0,230.0
-255.0,-22.0,26.0,-116.0,862.0,184.0,-994.0,-93.0,227.0
-258.0,-21.0,22.0,-140.0,834.0,181.0,-1005.0,-96.0,222.0
-261.0,-24.0,18.0,-167.0,812.0,177.0,-1009.0,-93.0,216.0
-267.0,-24.0,18.0,-196.0,796.0,168.0,-1031.0,-87.0,208.0
-273.0,-19.0,22.0,-226.0,789.0,166.0,-1054.0,-80.0,204.0
-266.0,-19.0,19.0,-254.0,784.0,175.0,-1027.0,-85.0,202.0
-263.0,-23.0,16.0,-273.0,783.0,159.0,-1022.0,-83.0,197.0
-258.0,-24.0,16.0,-290.0,781.0,145.0,-1008.0,-82.0,195.0
-252.0,-24.0,17.0,-298.0,782.0,137.0,-985.0,-85.0,198.0
-247.0,-24.0,19.0,-301.0,789.0,129.0,-971.0,-93.0,206.0
-247.0,-27.0,20.0,-294.0,798.0,118.0,-957.0,-96.0,213.0
-240.0,-28.0,22.0,-281.0,805.0,104.0,-931.0,-101.0,220.0
-239.0,-32.0,26.0,-264.0,806.0,93.0,-920.0,-120.0,227.0
-241.0,-35.0,24.0,-246.0,796.0,89.0,-920.0,-133.0,232.0
-242.0,-41.0,26.0,-227.0,774.0,88.0,-933.0,-146.0,236.0
-248.0,-38.0,29.0,-204.0,737.0,97.0,-937.0,-161.0,244.0
-247.0,-47.0,28.0,-177.0,693.0,110.0,-942.0,-168.0,242.0
-250.0,-49.0,26.0,-147.0,647.0,127.0,-964.0,-183.0,238.0
-253.0,-53.0,27.0,-119.0,606.0,145.0,-972.0,-195.0,230.0
-258.0,-53.0,21.0,-96.0,569.0,163.0,-990.0,-206.0,217.0
-258.0,-57.0,18.0,-81.0,537.0,185.0,-1002.0,-221.0,209.0
-261.0,-60.0,18.0,-73.0,508.0,204.0,-1014.0,-226.0,202.0
-267.0,-57.0,22.0,-63.0,482.0,221.0,-1033.0,-221.0,198.0
-268.0,-59.0,17.0,-53.0,459.0,238.0,-1046.0,-220.0,195.0
-264.0,-57.0,16.0,-38.0,435.0,258.0,-1022.0,-216.0,192.0
-263.0,-57.0,14.0,-19.0,407.0,269.0,-1028.0,-218.0,182.0
-267.0,-59.0,8.0,-7.0,382.0,273.0,-1032.0,-220.0,185.0
-270.0,-55.0,18.0,0.0,355.0,264.0,-1044.0,-206.0,192.0
-265.0,-55.0,16.0,9.0,325.0,254.0,-1030.0,-193.0,196.0
-261.0,-51.0,16.0,18.0,297.0,245.0,-1020.0,-186.0,194.0
-260.0,-46.0,17.0,20.0,277.0,234.0,-1010.0,-176.0,209.0
-258.0,-42.0,17.0,19.0,257.0,221.0,-1000.0,-157.0,210.0
-255.0,-41.0,19.0,9.0,240.0,211.0,-983.0,-154.0,205.0
-251.0,-39.0,22.0,-11.0,234.0,198.0,-975.0,-147.0,212.0
-252.0,-32.0,21.0,-42.0,237.0,179.0,-975.0,-129.0,220.0
-258.0,-30.0,23.0,-73.0,245.0,163.0,-995.0,-115.0,225.0
-249.0,-28.0,22.0,-108.0,255.0,145.0,-972.0,-109.0,228.0
-252.0,-22.0,28.0,-143.0,267.0,125.0,-977.0,-89.0,224.0
-248.0,-22.0,22.0,-176.0,281.0,105.0,-985.0,-82.0,224.0
-253.0,-19.0,21.0,-216.0,296.0,91.0,-987.0,-80.0,212.0
-258.0,-17.0,18.0,-261.0,316.0,84.0,-1002.0,-65.0,212.0
-256.0,-19.0,23.0,-301.0,331.0,83.0,-1002.0,-70.0,208.0
-260.0,-15.0,16.0,-338.0,342.0,88.0,-1006.0,-75.0,203.0
-258.0,-20.0,18.0,-373.0,355.0,94.0,-1010.0,-76.0,203.0
-254.0,-23.0,17.0,-409.0,367.0,107.0,-998.0,-80.0,203.0
-262.0,-24.0,17.0,-435.0,380.0,119.0,-1011.0,-88.0,202.0
-258.0,-27.0,20.0,-451.0,391.0,129.0,-1004.0,-98.0,211.0
-266.0,-26.0,21.0,-458.0,399.0,141.0,-1022.0,-112.0,217.0
-253.0,-34.0,13.0,-458.0,409.0,156.0,-1009.0,-125.0,226.0
-260.0,-34.0,24.0,-446.0,416.0,166.0,-1013.0,-127.0,229.0
-255.0,-39.0,23.0,-424.0,427.0,174.0,-1000.0,-142.0,230.0
-259.0,-43.0,25.0,-399.0,441.0,183.0,-1013.0,-154.0,232.0
-256.0,-48.0,25.0,-370.0,458.0,194.0,-1001.0,-170.0,235.0
-252.0,-51.0,27.0,-340.0,472.0,199.0,-988.0,-182.0,235.0
-242.0,-55.0,27.0,-310.0,489.0,200.0,-951.0,-195.0,242.0
-245.0,-53.0,23.0,-279.0,509.0,189.0,-949.0,-208.0,241.0
-247.0,-60.0,26.0,-245.0,535.0,178.0,-960.0,-220.0,243.0
-238.0,-60.0,32.0,-208.0,567.0,169.0,-924.0,-223.0,271.0
-241.0,-57.0,35.0,-151.0,595.0,153.0,-922.0,-220.0,266.0
-227.0,-60.0,28.0,-78.0,616.0,131.0,-892.0,-219.0,253.0
-231.0,-59.0,30.0,-5.0,636.0,105.0,-907.0,-220.0,243.0
-231.0,-54.0,32.0,57.0,664.0,72.0,-903.0,-202.0,241.0
-233.0,-54.0,24.0,115.0,687.0,41.0,-910.0,-195.0,223.0
-246.0,-52.0,23.0,163.0,712.0,3.0,-972.0,-161.0,225.0
-245.0,-42.0,21.0,213.0,727.0,-25.0,-936.0,-163.0,212.0
-250.0,-44.0,18.0,257.0,732.0,-52.0,-981.0,-158.0,186.0
-251.0,-42.0,16.0,286.0,735.0,-76.0,-997.0,-151.0,182.0
-267.0,-37.0,13.0,311.0,734.0,-90.0,-1025.0,-140.0,180.0
-264.0,-34.0,9.0,330.0,728.0,-95.0,-1019.0,-138.0,162.0
-268.0,-37.0,7.0,344.0,719.0,-100.0,-1031.0,-129.0,148.0
-273.0,-34.0,2.0,352.0,711.0,-102.0,-1058.0,-122.0,144.0
-271.0,-31.0,1.0,356.0,703.0,-97.0,-1061.0,-117.0,151.0
-272.0,-31.0,3.0,363.0,688.0,-86.0,-1058.0,-111.0,145.0
-271.0,-30.0,5.0,367.0,670.0,-75.0,-1052.0,-108.0,146.0
-271.0,-27.0,0.0,368.0,651.0,-64.0,-1047.0,-96.0,145.0
-265.0,-22.0,0.0,364.0,633.0,-49.0,-1034.0,-90.0,141.0
-268.0,-21.0,-3.0,355.0,613.0,-33.0,-1040.0,-83.0,141.0
-267.0,-19.0,-1.0,335.0,600.0,-15.0,-1043.0,-81.0,134.0
-254.0,-19.0,0.0,310.0,590.0,7.0,-1000.0,-71.0,127.0
-258.0,-17.0,0.0,280.0,583.0,26.0,-991.0,-73.0,125.0
-252.0,-24.0,-9.0,246.0,578.0,40.0,-974.0,-73.0,124.0
-256.0,-16.0,-3.0,212.0,574.0,51.0,-990.0,-70.0,121.0
-243.0,-16.0,-4.0,179.0,575.0,60.0,-963.0,-62.0,127.0
-242.0,-22.0,-9.0,149.0,572.0,64.0,-935.0,-74.0,100.0
-242.0,-19.0,-7.0,115.0,580.0,59.0,-929.0,-72.0,107.0
-241.0,-22.0,-10.0,85.0,590.0,53.0,-942.0,-77.0,103.0
-240.0,-22.0,-7.0,59.0,600.0,44.0,-943.0,-79.0,95.0
-250.0,-20.0,-11.0,38.0,613.0,34.0,-972.0,-75.0,95.0
-242.0,-20.0,-14.0,19.0,623.0,26.0,-965.0,-84.0,90.0
-257.0,-24.0,-15.0,1.0,634.0,18.0,-1003.0,-89.0,81.0
-265.0,-22.0,-5.0,-25.0,646.0,11.0,-1047.0,-81.0,94.0
-248.0,-24.0,-20.0,-47.0,651.0,16.0,-975.0,-91.0,74.0
-250.0,-25.0,-19.0,-65.0,654.0,19.0,-984.0,-101.0,64.0
-253.0,-26.0,-25.0,-83.0,665.0,20.0,-988.0,-93.0,54.0
-259.0,-30.0,-21.0,-93.0,674.0,27.0,-1006.0,-98.0,42.0
-261.0,-27.0,-26.0,-106.0,679.0,31.0,-1022.0,-99.0,34.0
-262.0,-25.0,-30.0,-116.0,681.0,35.0,-1020.0,-96.0,15.0
-263.0,-27.0,-36.0,-125.0,679.0,38.0,-1030.0,-95.0,8.0
-270.0,-25.0,-34.0,-134.0,675.0,40.0,-1039.0,-92.0,3.0
-276.0,-24.0,-39.0,-143.0,661.0,43.0,-1054.0,-99.0,-7.0
-274.0,-24.0,-38.0,-153.0,639.0,46.0,-1068.0,-99.0,-8.0
-276.0,-22.0,-39.0,-160.0,605.0,53.0,-1071.0,-88.0,-6.0
-282.0,-22.0,-35.0,-158.0,563.0,63.0,-1081.0,-88.0,-9.0
-277.0,-25.0,-44.0,-156.0,515.0,70.0,-1085.0,-81.0,-26.0
-277.0,-20.0,-46.0,-158.0,464.0,79.0,-1076.0,-77.0,-34.0
-275.0,-17.0,-43.0,-159.0,412.0,85.0,-1079.0,-70.0,-34.0
-285.0,-22.0,-47.0,-160.0,361.0,86.0,-1099.0,-78.0,-54.0
-292.0,-23.0,-48.0,-171.0,313.0,83.0,-1128.0,-78.0,-54.0
-291.0,-26.0,-57.0,-191.0,265.0,88.0,-1130.0,-91.0,-65.0
-292.0,-26.0,-55.0,-222.0,221.0,93.0,-1124.0,-98.0,-75.0
-292.0,-25.0,-52.0,-258.0,179.0,90.0,-1124.0,-103.0,-74.0
-285.0,-31.0,-50.0,-289.0,137.0,86.0,-1112.0,-110.0,-70.0
-287.0,-35.0,-52.0,-308.0,100.0,80.0,-1107.0,-118.0,-70.0
-280.0,-34.0,-52.0,-319.0,72.0,71.0,-1106.0,-125.0,-71.0
-279.0,-39.0,-52.0,-321.0,54.0,61.0,-1095.0,-131.0,-72.0
-280.0,-41.0,-55.0,-316.0,46.0,49.0,-1085.0,-145.0,-71.0
-272.0,-44.0,-52.0,-305.0,43.0,34.0,-1074.0,-155.0,-79.0
-273.0,-46.0,-55.0,-289.0,46.0,17.0,-1065.0,-158.0,-86.0
-269.0,-48.0,-60.0,-269.0,53.0,1.0,-1062.0,-170.0,-84.0
-268.0,-49.0,-57.0,-246.0,61.0,-16.0,-1052.0,-166.0,-84.0
-267.0,-50.0,-54.0,-220.0,68.0,-33.0,-1046.0,-170.0,-81.0
-266.0,-48.0,-57.0,-194.0,72.0,-44.0,-1036.0,-169.0,-76.0
-266.0,-47.0,-49.0,-167.0,75.0,-56.0,-1032.0,-162.0,-71.0
-264.0,-41.0,-58.0,-141.0,77.0,-62.0,-1030.0,-150.0,-70.0
-266.0,-39.0,-53.0,-120.0,79.0,-69.0,-1024.0,-146.0,-74.0
-260.0,-38.0,-53.0,-100.0,79.0,-71.0,-1015.0,-134.0,-74.0
-260.0,-33.0,-56.0,-85.0,83.0,-71.0,-1013.0,-127.0,-81.0
-255.0,-35.0,-53.0,-77.0,86.0,-70.0,-1013.0,-118.0,-78.0
-257.0,-29.0,-50.0,-71.0,91.0,-65.0,-1004.0,-108.0,-72.0
-255.0,-30.0,-51.0,-71.0,99.0,-62.0,-996.0,-103.0,-71.0
-257.0,-25.0,-47.0,-76.0,110.0,-60.0,-995.0,-102.0,-63.0
-249.0,-31.0,-50.0,-87.0,119.0,-55.0,-991.0,-99.0,-57.0
-253.0,-27.0,-47.0,-98.0,129.0,-52.0,-982.0,-105.0,-41.0
-249.0,-26.0,-45.0,-108.0,133.0,-48.0,-980.0,-102.0,-33.0
-249.0,-31.0,-38.0,-118.0,137.0,-45.0,-977.0,-110.0,-27.0
-250.0,-29.0,-38.0,-123.0,138.0,-41.0,-977.0,-113.0,-13.0
-247.0,-33.0,-35.0,-122.0,139.0,-37.0,-971.0,-110.0,-5.0
-247.0,-32.0,-35.0,-117.0,139.0,-34.0,-971.0,-118.0,0.0
-246.0,-30.0,-34.0,-111.0,140.0,-29.0,-968.0,-118.0,2.0
-250.0,-30.0,-35.0,-104.0,144.0,-26.0,-979.0,-107.0,2.0
-252.0,-31.0,-37.0,-98.0,149.0,-21.0,-980.0,-108.0,4.0
-250.0,-31.0,-32.0,-92.0,149.0,-18.0,-983.0,-108.0,6.0
-255.0,-28.0,-36.0,-89.0,149.0,-12.0,-984.0,-109.0,-1.0
-255.0,-25.0,-30.0,-91.0,144.0,-8.0,-986.0,-105.0,-6.0
-257.0,-26.0,-34.0,-93.0,139.0,-4.0,-998.0,-95.0,12.0
-260.0,-22.0,-31.0,-92.0,132.0,0.0,-1009.0,-93.0,10.0
-260.0,-27.0,-32.0,-93.0,119.0,5.0,-1012.0,-95.0,3.0
-263.0,-26.0,-35.0,-99.0,109.0,12.0,-1023.0,-101.0,2.0
-261.0,-26.0,-34.0,-106.0,106.0,25.0,-1019.0,-89.0,6.0
-262.0,-26.0,-32.0,-112.0,111.0,39.0,-1009.0,-90.0,5.0
-260.0,-25.0,-31.0,-117.0,122.0,49.0,-1016.0,-94.0,12.0
-260.0,-24.0,-36.0,-121.0,134.0,52.0,-1005.0,-93.0,17.0
-251.0,-29.0,-34.0,-121.0,141.0,51.0,-983.0,-97.0,14.0
-258.0,-25.0,-34.0,-119.0,145.0,46.0,-993.0,-101.0,18.0
-257.0,-28.0,-31.0,-116.0,143.0,40.0,-1000.0,-102.0,16.0
-258.0,-25.0,-34.0,-107.0,130.0,35.0,-1002.0,-103.0,18.0
-257.0,-31.0,-36.0,-99.0,106.0,31.0,-1015.0,-111.0,6.0
-264.0,-29.0,-35.0,-94.0,79.0,29.0,-1024.0,-110.0,4.0
-266.0,-31.0,-41.0,-84.0,55.0,30.0,-1035.0,-117.0,1.0
-270.0,-30.0,-37.0,-75.0,31.0,32.0,-1043.0,-114.0,-4.0
-265.0,-28.0,-38.0,-73.0,11.0,33.0,-1033.0,-117.0,-8.0
-268.0,-31.0,-41.0,-72.0,0.0,29.0,-1041.0,-109.0,-13.0
-265.0,-26.0,-41.0,-75.0,-2.0,23.0,-1035.0,-103.0,-7.0
-268.0,-25.0,-45.0,-80.0,1.0,14.0,-1037.0,-96.0,-22.0
-262.0,-25.0,-38.0,-87.0,9.0,2.0,-1045.0,-92.0,-26.0
-268.0,-28.0,-47.0,-99.0,20.0,-9.0,-1039.0,-85.0,-30.0
-270.0,-27.0,-47.0,-117.0,29.0,-20.0,-1044.0,-90.0,-37.0
-268.0,-25.0,-44.0,-138.0,34.0,-28.0,-1043.0,-94.0,-35.0
-267.0,-28.0,-43.0,-158.0,38.0,-34.0,-1039.0,-97.0,-34.0
-267.0,-30.0,-47.0,-174.0,40.0,-35.0,-1038.0,-100.0,-39.0
-263.0,-34.0,-47.0,-187.0,42.0,-34.0,-1035.0,-118.0,-43.0
-264.0,-31.0,-47.0,-196.0,47.0,-31.0,-1031.0,-120.0,-39.0
-260.0,-34.0,-47.0,-201.0,54.0,-26.0,-1019.0,-122.0,-44.0
-257.0,-35.0,-48.0,-205.0,63.0,-20.0,-1017.0,-133.0,-45.0
-256.0,-37.0,-48.0,-207.0,75.0,-18.0,-1002.0,-134.0,-45.0
-256.0,-38.0,-46.0,-211.0,83.0,-15.0,-1003.0,-137.0,-51.0
-254.0,-41.0,-46.0,-214.0,87.0,-12.0,-984.0,-140.0,-51.0
-255.0,-34.0,-46.0,-218.0,88.0,-12.0,-989.0,-143.0,-48.0
-254.0,-41.0,-46.0,-220.0,84.0,-13.0,-988.0,-145.0,-44.0
-254.0,-39.0,-44.0,-222.0,75.0,-12.0,-984.0,-146.0,-45.0
-256.0,-38.0,-47.0,-222.0,62.0,-12.0,-990.0,-152.0,-44.0
-257.0,-43.0,-47.0,-221.0,46.0,-11.0,-993.0,-155.0,-39.0
-258.0,-43.0,-40.0,-216.0,28.0,-10.0,-996.0,-158.0,-37.0
-259.0,-46.0,-40.0,-207.0,10.0,-6.0,-1002.0,-165.0,-28.0
-259.0,-47.0,-44.0,-196.0,-8.0,-5.0,-1012.0,-168.0,-33.0
-259.0,-43.0,-38.0,-180.0,-23.0,0.0,-1003.0,-167.0,-24.0
-256.0,-48.0,-43.0,-160.0,-35.0,7.0,-1008.0,-175.0,-20.0
-256.0,-49.0,-36.0,-140.0,-44.0,16.0,-1001.0,-171.0,-16.0
-259.0,-47.0,-43.0,-117.0,-49.0,23.0,-992.0,-168.0,-17.0
-257.0,-46.0,-38.0,-94.0,-51.0,33.0,-994.0,-156.0,-16.0
-256.0,-44.0,-42.0,-73.0,-50.0,44.0,-989.0,-157.0,-17.0
-250.0,-42.0,-41.0,-56.0,-46.0,54.0,-985.0,-152.0,-21.0
-252.0,-40.0,-41.0,-41.0,-44.0,65.0,-983.0,-147.0,-28.0
-251.0,-39.0,-41.0,-34.0,-42.0,77.0,-981.0,-138.0,-24.0
-249.0,-35.0,-45.0,-30.0,-41.0,88.0,-984.0,-136.0,-28.0
-250.0,-33.0,-42.0,-33.0,-41.0,96.0,-981.0,-125.0,-31.0
-254.0,-31.0,-40.0,-40.0,-40.0,103.0,-978.0,-116.0,-32.0
-252.0,-29.0,-42.0,-46.0,-40.0,110.0,-987.0,-115.0,-30.0
-247.0,-33.0,-37.0,-55.0,-38.0,113.0,-985.0,-112.0,-30.0
-255.0,-27.0,-46.0,-65.0,-35.0,115.0,-982.0,-106.0,-40.0
-254.0,-28.0,-45.0,-76.0,-29.0,116.0,-990.0,-98.0,-38.0
-254.0,-25.0,-47.0,-90.0,-19.0,114.0,-998.0,-93.0,-37.0
-254.0,-28.0,-45.0,-102.0,-13.0,111.0,-1001.0,-92.0,-41.0
-260.0,-23.0,-47.0,-116.0,-3.0,107.0,-1008.0,-92.0,-39.0
-258.0,-25.0,-46.0,-132.0,5.0,103.0,-1017.0,-84.0,-45.0
-259.0,-26.0,-46.0,-143.0,10.0,94.0,-1016.0,-84.0,-43.0
-261.0,-21.0,-44.0,-158.0,14.0,88.0,-1020.0,-82.0,-45.0
-259.0,-24.0,-44.0,-169.0,19.0,82.0,-1026.0,-79.0,-49.0
-267.0,-24.0,-48.0,-179.0,20.0,77.0,-1033.0,-83.0,-40.0
-262.0,-21.0,-44.0,-183.0,22.0,71.0,-1034.0,-76.0,-38.0
-264.0,-24.0,-46.0,-187.0,24.0,66.0,-1040.0,-81.0,-39.0
-270.0,-21.0,-47.0,-189.0,27.0,61.0,-1043.0,-75.0,-38.0
-270.0,-20.0,-46.0,-187.0,29.0,58.0,-1049.0,-75.0,-31.0
-271.0,-24.0,-44.0,-183.0,32.0,56.0,-1054.0,-76.0,-29.0
-268.0,-27.0,-43.0,-176.0,33.0,54.0,-1049.0,-77.0,-32.0
-270.0,-20.0,-42.0,-169.0,37.0,54.0,-1052.0,-82.0,-28.0
-267.0,-25.0,-45.0,-157.0,36.0,54.0,-1048.0,-83.0,-26.0
-269.0,-25.0,-40.0,-142.0,35.0,54.0,-1042.0,-85.0,-31.0
-269.0,-23.0,-40.0,-126.0,34.0,53.0,-1038.0,-88.0,-27.0
-267.0,-20.0,-43.0,-113.0,32.0,53.0,-1038.0,-89.0,-26.0
-260.0,-20.0,-44.0,-99.0,28.0,52.0,-1026.0,-83.0,-25.0
-263.0,-26.0,-41.0,-86.0,25.0,51.0,-1017.0,-86.0,-24.0
-263.0,-24.0,-40.0,-72.0,22.0,51.0,-1013.0,-88.0,-20.0
-259.0,-23.0,-39.0,-63.0,17.0,48.0,-1012.0,-85.0,-24.0
-259.0,-22.0,-43.0,-54.0,8.0,45.0,-1013.0,-79.0,-25.0
-258.0,-23.0,-41.0,-46.0,2.0,44.0,-1008.0,-78.0,-19.0
-260.0,-20.0,-42.0,-43.0,-7.0,41.0,-1009.0,-75.0,-23.0
-256.0,-19.0,-40.0,-40.0,-15.0,40.0,-1008.0,-74.0,-26.0
-256.0,-18.0,-36.0,-43.0,-25.0,40.0,-1009.0,-68.0,-28.0
-255.0,-19.0,-41.0,-46.0,-32.0,40.0,-1004.0,-67.0,-30.0
-257.0,-17.0,-44.0,-53.0,-39.0,38.0,-1004.0,-66.0,-32.0
-261.0,-20.0,-56.0,-60.0,-46.0,38.0,-1007.0,-63.0,-30.0
-258.0,-18.0,-43.0,-67.0,-52.0,38.0,-1011.0,-63.0,-29.0
-260.0,-17.0,-44.0,-73.0,-57.0,40.0,-1009.0,-63.0,-33.0
-259.0,-20.0,-40.0,-80.0,-61.0,43.0,-1012.0,-62.0,-30.0
-260.0,-15.0,-41.0,-84.0,-63.0,46.0,-1014.0,-65.0,-32.0
-261.0,-18.0,-43.0,-86.0,-64.0,49.0,-1012.0,-68.0,-30.0
-258.0,-20.0,-41.0,-88.0,-63.0,51.0,-1015.0,-65.0,-34.0
-260.0,-19.0,-38.0,-88.0,-61.0,56.0,-1012.0,-77.0,-30.0
-258.0,-24.0,-41.0,-87.0,-58.0,59.0,-1015.0,-70.0,-31.0
-264.0,-18.0,-45.0,-86.0,-54.0,63.0,-1013.0,-79.0,-29.0
-261.0,-18.0,-47.0,-85.0,-51.0,65.0,-1014.0,-79.0,-28.0
-261.0,-26.0,-43.0,-80.0,-49.0,67.0,-1016.0,-83.0,-28.0
-260.0,-26.0,-48.0,-76.0,-46.0,69.0,-1017.0,-86.0,-28.0
-262.0,-24.0,-42.0,-68.0,-43.0,71.0,-1018.0,-87.0,-26.0
-260.0,-25.0,-45.0,-60.0,-39.0,71.0,-1016.0,-85.0,-27.0
-263.0,-22.0,-43.0,-52.0,-35.0,70.0,-1017.0,-90.0,-29.0
-264.0,-22.0,-42.0,-44.0,-34.0,71.0,-1017.0,-91.0,-26.0
-263.0,-24.0,-39.0,-36.0,-33.0,70.0,-1015.0,-90.0,-26.0
-263.0,-25.0,-39.0,-28.0,-31.0,69.0,-1017.0,-89.0,-29.0
-262.0,-26.0,-43.0,-20.0,-30.0,66.0,-1017.0,-89.0,-25.0
-260.0,-26.0,-41.0,-15.0,-29.0,64.0,-1020.0,-89.0,-31.0
-264.0,-21.0,-42.0,-11.0,-25.0,60.0,-1021.0,-87.0,-30.0
-261.0,-22.0,-43.0,-10.0,-23.0,55.0,-1020.0,-80.0,-28.0
-260.0,-22.0,-44.0,-7.0,-21.0,50.0,-1016.0,-87.0,-27.0
-262.0,-24.0,-38.0,-7.0,-18.0,45.0,-1022.0,-86.0,-20.0
-259.0,-25.0,-38.0,-3.0,-14.0,39.0,-1023.0,-87.0,-11.0
-260.0,-25.0,-39.0,3.0,-9.0,33.0,-1020.0,-90.0,-13.0
-262.0,-25.0,-40.0,9.0,-4.0,30.0,-1017.0,-87.0,-20.0
-262.0,-27.0,-41.0,19.0,4.0,29.0,-1019.0,-85.0,-19.0
-258.0,-26.0,-39.0,28.0,13.0,24.0,-1023.0,-90.0,-21.0
-262.0,-22.0,-41.0,32.0,22.0,23.0,-1024.0,-78.0,-23.0
-258.0,-24.0,-42.0,38.0,28.0,23.0,-1012.0,-75.0,-26.0
-258.0,-24.0,-47.0,42.0,33.0,22.0,-1012.0,-79.0,-19.0
-263.0,-24.0,-39.0,42.0,35.0,21.0,-1015.0,-81.0,-29.0
-263.0,-19.0,-37.0,43.0,36.0,19.0,-1022.0,-73.0,-17.0
-260.0,-21.0,-41.0,41.0,32.0,19.0,-1009.0,-73.0,-19.0
-261.0,-22.0,-42.0,36.0,25.0,20.0,-1022.0,-76.0,-23.0
-259.0,-21.0,-40.0,30.0,16.0,21.0,-1017.0,-78.0,-16.0
-258.0,-21.0,-39.0,21.0,5.0,22.0,-1014.0,-74.0,-18.0
-261.0,-18.0,-39.0,18.0,-4.0,23.0,-1017.0,-74.0,-13.0
-261.0,-23.0,-41.0,15.0,-12.0,25.0,-1009.0,-75.0,-25.0
-263.0,-24.0,-42.0,10.0,-17.0,28.0,-1014.0,-78.0,-28.0
-260.0,-15.0,-37.0,7.0,-19.0,29.0,-1014.0,-80.0,-22.0
-258.0,-25.0,-42.0,4.0,-24.0,29.0,-1015.0,-78.0,-23.0
-264.0,-22.0,-42.0,2.0,-26.0,27.0,-1024.0,-75.0,-17.0
-265.0,-19.0,-39.0,-3.0,-26.0,26.0,-1023.0,-76.0,-15.0
-261.0,-23.0,-46.0,-5.0,-28.0,26.0,-1012.0,-76.0,-15.0
-263.0,-22.0,-38.0,-10.0,-30.0,22.0,-1025.0,-74.0,-8.0
-265.0,-19.0,-40.0,-14.0,-31.0,19.0,-1028.0,-67.0,-12.0
-264.0,-16.0,-35.0,-17.0,-35.0,18.0,-1029.0,-69.0,-8.0
-264.0,-15.0,-42.0,-21.0,-38.0,15.0,-1029.0,-65.0,-7.0
-265.0,-17.0,-34.0,-22.0,-43.0,15.0,-1028.0,-61.0,-5.0
-263.0,-17.0,-40.0,-25.0,-44.0,12.0,-1026.0,-58.0,-6.0
-263.0,-14.0,-40.0,-27.0,-45.0,9.0,-1029.0,-52.0,-6.0
-266.0,-15.0,-37.0,-29.0,-47.0,8.0,-1031.0,-54.0,-6.0
-264.0,-13.0,-36.0,-31.0,-48.0,6.0,-1030.0,-52.0,-10.0
-266.0,-14.0,-39.0,-33.0,-49.0,3.0,-1027.0,-44.0,-13.0
-264.0,-14.0,-43.0,-37.0,-49.0,2.0,-1028.0,-53.0,-9.0
-263.0,-11.0,-42.0,-39.0,-49.0,1.0,-1031.0,-48.0,-17.0
-263.0,-15.0,-43.0,-42.0,-47.0,1.0,-1028.0,-52.0,-18.0
-262.0,-16.0,-40.0,-44.0,-43.0,-1.0,-1028.0,-47.0,-23.0
-267.0,-15.0,-42.0,-50.0,-41.0,-3.0,-1026.0,-50.0,-22.0
-263.0,-13.0,-47.0,-55.0,-39.0,-4.0,-1024.0,-55.0,-20.0
-266.0,-11.0,-40.0,-61.0,-38.0,-6.0,-1021.0,-54.0,-21.0
-267.0,-15.0,-41.0,-65.0,-39.0,-7.0,-1019.0,-57.0,-23.0
-264.0,-17.0,-43.0,-72.0,-38.0,-7.0,-1020.0,-59.0,-22.0
-263.0,-19.0,-39.0,-79.0,-41.0,-9.0,-1017.0,-63.0,-26.0
-261.0,-20.0,-40.0,-83.0,-44.0,-10.0,-1020.0,-65.0,-21.0
-261.0,-19.0,-41.0,-87.0,-47.0,-11.0,-1020.0,-68.0,-18.0
-263.0,-18.0,-37.0,-88.0,-50.0,-11.0,-1018.0,-70.0,-10.0
-261.0,-18.0,-39.0,-89.0,-54.0,-10.0,-1016.0,-71.0,-15.0
-260.0,-20.0,-40.0,-92.0,-57.0,-12.0,-1020.0,-77.0,-14.0
-260.0,-23.0,-42.0,-92.0,-60.0,-11.0,-1019.0,-75.0,-12.0
-262.0,-20.0,-34.0,-91.0,-61.0,-10.0,-1016.0,-74.0,-8.0
-258.0,-19.0,-36.0,-89.0,-63.0,-11.0,-1018.0,-74.0,-5.0
-263.0,-21.0,-38.0,-87.0,-64.0,-11.0,-1017.0,-78.0,-1.0
-264.0,-21.0,-41.0,-82.0,-64.0,-12.0,-1020.0,-77.0,0.0
-264.0,-24.0,-35.0,-79.0,-67.0,-13.0,-1017.0,-78.0,-3.0
-260.0,-22.0,-35.0,-73.0,-67.0,-14.0,-1021.0,-73.0,5.0
-261.0,-23.0,-36.0,-68.0,-66.0,-14.0,-1017.0,-75.0,-1.0
-262.0,-21.0,-33.0,-62.0,-65.0,-14.0,-1016.0,-73.0,8.0
-262.0,-20.0,-36.0,-58.0,-62.0,-14.0,-1016.0,-75.0,3.0
-259.0,-23.0,-34.0,-54.0,-61.0,-15.0,-1021.0,-78.0,4.0
-262.0,-21.0,-34.0,-47.0,-58.0,-14.0,-1016.0,-77.0,8.0
-261.0,-20.0,-36.0,-45.0,-55.0,-15.0,-1015.0,-74.0,4.0
-264.0,-21.0,-37.0,-43.0,-53.0,-15.0,-1010.0,-80.0,10.0
-259.0,-21.0,-34.0,-41.0,-51.0,-15.0,-1014.0,-72.0,7.0
-263.0,-20.0,-33.0,-41.0,-49.0,-16.0,-1014.0,-80.0,6.0
-260.0,-21.0,-36.0,-40.0,-46.0,-15.0,-1008.0,-67.0,5.0
-255.0,-26.0,-33.0,-40.0,-45.0,-13.0,-1014.0,-78.0,6.0
-259.0,-23.0,-34.0,-40.0,-44.0,-12.0,-1010.0,-77.0,5.0
-260.0,-21.0,-34.0,-41.0,-44.0,-12.0,-1012.0,-79.0,5.0
-262.0,-25.0,-34.0,-42.0,-45.0,-9.0,-1008.0,-78.0,9.0
-262.0,-23.0,-35.0,-42.0,-44.0,-8.0,-1005.0,-79.0,9.0
-257.0,-23.0,-33.0,-44.0,-46.0,-8.0,-1005.0,-81.0,9.0
-259.0,-20.0,-31.0,-44.0,-46.0,-6.0,-1006.0,-83.0,8.0
-258.0,-17.0,-41.0,-46.0,-47.0,-3.0,-1013.0,-86.0,12.0
-259.0,-24.0,-39.0,-46.0,-47.0,-2.0,-1009.0,-82.0,6.0
-257.0,-26.0,-33.0,-46.0,-47.0,1.0,-1004.0,-79.0,7.0
-259.0,-23.0,-37.0,-45.0,-48.0,2.0,-1009.0,-83.0,13.0
-262.0,-24.0,-31.0,-44.0,-47.0,3.0,-1013.0,-82.0,12.0
-258.0,-23.0,-36.0,-42.0,-46.0,5.0,-1008.0,-76.0,11.0
-260.0,-22.0,-32.0,-42.0,-44.0,8.0,-1013.0,-77.0,13.0
-259.0,-21.0,-31.0,-38.0,-42.0,10.0,-1004.0,-76.0,14.0
-260.0,-19.0,-33.0,-38.0,-40.0,9.0,-1014.0,-77.0,18.0
-260.0,-22.0,-27.0,-38.0,-37.0,10.0,-1014.0,-75.0,14.0
-262.0,-23.0,-26.0,-39.0,-33.0,11.0,-1014.0,-73.0,18.0
-258.0,-21.0,-31.0,-39.0,-30.0,11.0,-1017.0,-71.0,18.0
-261.0,-21.0,-29.0,-41.0,-26.0,12.0,-1014.0,-72.0,19.0
-262.0,-23.0,-27.0,-44.0,-21.0,11.0,-1020.0,-72.0,21.0
-263.0,-18.0,-30.0,-47.0,-16.0,12.0,-1016.0,-66.0,19.0
-261.0,-20.0,-32.0,-49.0,-11.0,12.0,-1013.0,-72.0,21.0
-262.0,-18.0,-34.0,-53.0,-5.0,12.0,-1017.0,-71.0,20.0
-259.0,-19.0,-31.0,-56.0,0.0,11.0,-1016.0,-67.0,21.0
-260.0,-23.0,-35.0,-58.0,4.0,9.0,-1017.0,-72.0,22.0
-262.0,-18.0,-28.0,-62.0,6.0,8.0,-1015.0,-69.0,21.0
-258.0,-18.0,-26.0,-63.0,8.0,8.0,-1013.0,-71.0,22.0
-265.0,-21.0,-33.0,-64.0,10.0,6.0,-1012.0,-76.0,21.0
-262.0,-20.0,-31.0,-63.0,10.0,6.0,-1014.0,-76.0,26.0
-259.0,-22.0,-30.0,-62.0,10.0,7.0,-1013.0,-76.0,17.0
-262.0,-21.0,-34.0,-62.0,10.0,5.0,-1015.0,-81.0,20.0
-260.0,-22.0,-27.0,-61.0,9.0,4.0,-1015.0,-78.0,20.0
-258.0,-19.0,-28.0,-61.0,9.0,3.0,-1014.0,-76.0,21.0
-263.0,-21.0,-31.0,-60.0,7.0,2.0,-1010.0,-74.0,21.0
-258.0,-24.0,-31.0,-60.0,5.0,3.0,-1007.0,-75.0,22.0
-260.0,-22.0,-31.0,-61.0,5.0,1.0,-1014.0,-75.0,22.0
-262.0,-20.0,-33.0,-60.0,5.0,0.0,-1013.0,-76.0,22.0
-261.0,-20.0,-30.0,-59.0,4.0,2.0,-1019.0,-75.0,19.0
-263.0,-23.0,-32.0,-57.0,3.0,1.0,-1010.0,-82.0,21.0
-264.0,-19.0,-31.0,-54.0,5.0,2.0,-1012.0,-73.0,22.0
-262.0,-21.0,-31.0,-53.0,6.0,2.0,-1014.0,-74.0,17.0
-259.0,-20.0,-32.0,-54.0,8.0,4.0,-1019.0,-74.0,15.0
-261.0,-22.0,-31.0,-51.0,9.0,5.0,-1012.0,-72.0,18.0
-261.0,-19.0,-33.0,-51.0,10.0,7.0,-1017.0,-74.0,17.0
-258.0,-21.0,-36.0,-52.0,11.0,7.0,-1012.0,-73.0,14.0
-260.0,-20.0,-31.0,-53.0,14.0,9.0,-1012.0,-74.0,21.0
-262.0,-18.0,-32.0,-52.0,15.0,10.0,-1013.0,-73.0,14.0
-260.0,-19.0,-33.0,-53.0,16.0,10.0,-1012.0,-73.0,21.0
-266.0,-16.0,-33.0,-55.0,18.0,11.0,-1014.0,-66.0,15.0
-260.0,-19.0,-29.0,-58.0,17.0,10.0,-1011.0,-68.0,18.0
-262.0,-18.0,-35.0,-58.0,17.0,12.0,-1015.0,-68.0,16.0
-262.0,-18.0,-31.0,-61.0,18.0,12.0,-1011.0,-72.0,20.0
-263.0,-21.0,-33.0,-62.0,17.0,13.0,-1016.0,-73.0,13.0
-260.0,-20.0,-30.0,-64.0,17.0,13.0,-1011.0,-71.0,21.0
-261.0,-21.0,-33.0,-67.0,18.0,13.0,-1020.0,-76.0,14.0
-259.0,-22.0,-30.0,-65.0,17.0,14.0,-1019.0,-77.0,16.0
-261.0,-22.0,-34.0,-63.0,16.0,16.0,-1017.0,-72.0,17.0
-260.0,-19.0,-36.0,-62.0,16.0,15.0,-1011.0,-72.0,15.0
-259.0,-23.0,-39.0,-61.0,14.0,16.0,-1014.0,-70.0,13.0
-260.0,-12.0,-36.0,-60.0,13.0,14.0,-1017.0,-71.0,15.0
-261.0,-20.0,-37.0,-60.0,13.0,15.0,-1012.0,-74.0,13.0
-264.0,-20.0,-30.0,-57.0,12.0,16.0,-1017.0,-76.0,10.0
-259.0,-19.0,-33.0,-55.0,12.0,15.0,-1015.0,-75.0,12.0
-262.0,-21.0,-30.0,-53.0,14.0,16.0,-1019.0,-73.0,13.0
-264.0,-20.0,-34.0,-51.0,13.0,16.0,-1019.0,-72.0,13.0
-260.0,-22.0,-33.0,-49.0,12.0,15.0,-1013.0,-65.0,17.0
-265.0,-20.0,-33.0,-47.0,13.0,16.0,-1020.0,-73.0,14.0
-260.0,-22.0,-37.0,-44.0,13.0,15.0,-1017.0,-71.0,10.0
-262.0,-19.0,-32.0,-41.0,14.0,15.0,-1021.0,-73.0,14.0
-265.0,-19.0,-34.0,-39.0,14.0,15.0,-1021.0,-68.0,13.0
-255.0,-20.0,-31.0,-38.0,15.0,15.0,-1017.0,-70.0,14.0
-261.0,-18.0,-32.0,-37.0,16.0,15.0,-1013.0,-62.0,10.0
-261.0,-19.0,-30.0,-36.0,18.0,15.0,-1017.0,-70.0,11.0
-262.0,-20.0,-32.0,-36.0,20.0,12.0,-1023.0,-67.0,9.0
-261.0,-19.0,-30.0,-37.0,22.0,12.0,-1018.0,-66.0,13.0
-261.0,-19.0,-33.0,-39.0,22.0,10.0,-1015.0,-70.0,14.0
-262.0,-15.0,-34.0,-43.0,22.0,11.0,-1015.0,-63.0,11.0
-259.0,-21.0,-34.0,-46.0,23.0,11.0,-1018.0,-68.0,12.0
-261.0,-19.0,-31.0,-47.0,25.0,11.0,-1019.0,-69.0,13.0
-261.0,-19.0,-33.0,-50.0,27.0,11.0,-1019.0,-70.0,16.0
-263.0,-26.0,-27.0,-52.0,29.0,11.0,-1025.0,-69.0,17.0
-262.0,-21.0,-33.0,-54.0,31.0,10.0,-1015.0,-74.0,16.0
-261.0,-22.0,-34.0,-55.0,34.0,11.0,-1015.0,-73.0,11.0
-262.0,-21.0,-34.0,-55.0,41.0,11.0,-1017.0,-74.0,17.0
-261.0,-20.0,-33.0,-52.0,45.0,10.0,-1016.0,-74.0,13.0
-262.0,-21.0,-30.0,-47.0,52.0,10.0,-1021.0,-75.0,8.0
-260.0,-19.0,-34.0,-42.0,57.0,8.0,-1011.0,-74.0,13.0
-260.0,-20.0,-30.0,-39.0,59.0,10.0,-1012.0,-64.0,15.0
-259.0,-21.0,-34.0,-39.0,62.0,11.0,-1005.0,-68.0,19.0
-260.0,-16.0,-35.0,-37.0,64.0,12.0,-1011.0,-67.0,23.0
-261.0,-20.0,-34.0,-34.0,63.0,13.0,-1011.0,-68.0,18.0
-261.0,-14.0,-28.0,-32.0,63.0,15.0,-1011.0,-64.0,21.0
-260.0,-22.0,-30.0,-32.0,62.0,17.0,-1008.0,-68.0,21.0
-259.0,-22.0,-30.0,-31.0,62.0,17.0,-1014.0,-65.0,22.0
-259.0,-18.0,-30.0,-28.0,60.0,19.0,-1011.0,-68.0,24.0
-261.0,-18.0,-31.0,-25.0,58.0,18.0,-1010.0,-64.0,23.0
-262.0,-19.0,-32.0,-19.0,54.0,20.0,-1011.0,-73.0,11.0
-260.0,-20.0,-29.0,-16.0,51.0,19.0,-1015.0,-76.0,13.0
-262.0,-22.0,-34.0,-13.0,48.0,20.0,-1008.0,-65.0,11.0
-259.0,-23.0,-37.0,-10.0,45.0,22.0,-1020.0,-71.0,4.0
-259.0,-20.0,-34.0,-8.0,44.0,20.0,-1019.0,-73.0,6.0
-262.0,-18.0,-32.0,-9.0,42.0,19.0,-1019.0,-65.0,1.0
-261.0,-22.0,-32.0,-10.0,44.0,17.0,-1019.0,-64.0,4.0
-264.0,-15.0,-36.0,-17.0,45.0,18.0,-1026.0,-65.0,-3.0
-264.0,-16.0,-39.0,-26.0,46.0,18.0,-1020.0,-63.0,-2.0
-264.0,-16.0,-39.0,-34.0,49.0,16.0,-1020.0,-61.0,-4.0
-263.0,-15.0,-37.0,-40.0,52.0,15.0,-1023.0,-59.0,-6.0
-263.0,-15.0,-34.0,-48.0,53.0,15.0,-1020.0,-52.0,-2.0
-262.0,-16.0,-38.0,-55.0,54.0,14.0,-1026.0,-58.0,-8.0
-261.0,-15.0,-32.0,-60.0,54.0,14.0,-1022.0,-52.0,-4.0
-262.0,-12.0,-39.0,-65.0,52.0,13.0,-1022.0,-52.0,-3.0
-264.0,-18.0,-34.0,-69.0,49.0,13.0,-1022.0,-53.0,-2.0
-263.0,-15.0,-31.0,-68.0,48.0,15.0,-1018.0,-57.0,-3.0
-261.0,-17.0,-39.0,-68.0,46.0,14.0,-1023.0,-59.0,3.0
-261.0,-16.0,-35.0,-69.0,45.0,14.0,-1018.0,-52.0,-4.0
-261.0,-16.0,-36.0,-67.0,45.0,15.0,-1020.0,-57.0,4.0
-265.0,-13.0,-34.0,-66.0,41.0,16.0,-1021.0,-52.0,4.0
-263.0,-17.0,-34.0,-66.0,40.0,16.0,-1022.0,-52.0,3.0
-263.0,-16.0,-36.0,-64.0,37.0,15.0,-1020.0,-53.0,1.0
-264.0,-19.0,-34.0,-63.0,33.0,15.0,-1020.0,-54.0,7.0
-264.0,-15.0,-34.0,-61.0,28.0,14.0,-1024.0,-54.0,5.0
-261.0,-18.0,-36.0,-59.0,25.0,14.0,-1024.0,-62.0,2.0
-263.0,-13.0,-32.0,-59.0,20.0,13.0,-1023.0,-57.0,2.0
-260.0,-17.0,-40.0,-56.0,19.0,12.0,-1026.0,-61.0,2.0
-261.0,-19.0,-33.0,-57.0,17.0,11.0,-1025.0,-58.0,4.0
-264.0,-18.0,-33.0,-55.0,16.0,11.0,-1026.0,-61.0,-3.0
-264.0,-17.0,-35.0,-53.0,16.0,9.0,-1020.0,-63.0,1.0
-262.0,-17.0,-37.0,-51.0,14.0,11.0,-1021.0,-58.0,-3.0
-261.0,-15.0,-35.0,-48.0,15.0,9.0,-1022.0,-62.0,-2.0
-263.0,-15.0,-38.0,-49.0,14.0,8.0,-1026.0,-62.0,0.0
-263.0,-16.0,-36.0,-48.0,14.0,6.0,-1022.0,-57.0,-4.0
-262.0,-17.0,-38.0,-47.0,14.0,5.0,-1026.0,-55.0,-4.0
-260.0,-17.0,-36.0,-46.0,13.0,4.0,-1021.0,-59.0,-9.0
-264.0,-17.0,-38.0,-47.0,13.0,1.0,-1021.0,-52.0,2.0
-266.0,-21.0,-40.0,-47.0,14.0,3.0,-1024.0,-57.0,-3.0
-261.0,-17.0,-37.0,-49.0,13.0,2.0,-1021.0,-58.0,-3.0
-262.0,-18.0,-38.0,-49.0,13.0,0.0,-1023.0,-54.0,3.0
-263.0,-15.0,-35.0,-51.0,12.0,-1.0,-1017.0,-62.0,1.0
-260.0,-15.0,-35.0,-52.0,11.0,-1.0,-1014.0,-62.0,-2.0
-262.0,-18.0,-37.0,-55.0,10.0,-1.0,-1017.0,-65.0,-3.0
-264.0,-17.0,-35.0,-55.0,10.0,-3.0,-1022.0,-59.0,-1.0
-258.0,-21.0,-39.0,-54.0,10.0,-3.0,-1021.0,-59.0,5.0
-263.0,-15.0,-36.0,-54.0,9.0,-2.0,-1016.0,-60.0,5.0
-264.0,-16.0,-36.0,-53.0,10.0,-2.0,-1017.0,-69.0,3.0
-261.0,-17.0,-31.0,-53.0,11.0,-2.0,-1015.0,-61.0,6.0
-257.0,-21.0,-38.0,-50.0,12.0,-2.0,-1017.0,-63.0,5.0
-260.0,-20.0,-39.0,-50.0,11.0,-2.0,-1022.0,-67.0,-3.0
-263.0,-19.0,-34.0,-48.0,11.0,-3.0,-1014.0,-62.0,6.0
-261.0,-19.0,-32.0,-47.0,11.0,-3.0,-1016.0,-63.0,10.0
-263.0,-18.0,-35.0,-44.0,12.0,-3.0,-1016.0,-62.0,5.0
-260.0,-18.0,-33.0,-43.0,11.0,-4.0,-1016.0,-64.0,5.0
-261.0,-18.0,-35.0,-42.0,10.0,-4.0,-1013.0,-65.0,9.0
-263.0,-15.0,-33.0,-42.0,11.0,-5.0,-1017.0,-61.0,1.0
-261.0,-16.0,-35.0,-40.0,12.0,-6.0,-1015.0,-67.0,1.0
-264.0,-18.0,-33.0,-39.0,14.0,-5.0,-1021.0,-63.0,6.0
-261.0,-23.0,-37.0,-40.0,14.0,-4.0,-1016.0,-63.0,3.0
-262.0,-15.0,-34.0,-41.0,13.0,-4.0,-1017.0,-63.0,4.0
-262.0,-15.0,-34.0,-40.0,12.0,-4.0,-1017.0,-61.0,4.0
-262.0,-21.0,-34.0,-41.0,10.0,-2.0,-1014.0,-62.0,6.0
-261.0,-15.0,-39.0,-42.0,8.0,-3.0,-1016.0,-60.0,12.0
-261.0,-17.0,-37.0,-41.0,8.0,-2.0,-1017.0,-60.0,7.0
-264.0,-15.0,-31.0,-43.0,7.0,-1.0,-1017.0,-55.0,4.0
-261.0,-16.0,-34.0,-47.0,6.0,-2.0,-1020.0,-60.0,10.0
-261.0,-14.0,-33.0,-48.0,7.0,-2.0,-1016.0,-63.0,5.0
-261.0,-17.0,-33.0,-50.0,7.0,-1.0,-1022.0,-56.0,7.0
-266.0,-18.0,-35.0,-53.0,7.0,-2.0,-1015.0,-60.0,3.0
-261.0,-15.0,-37.0,-53.0,8.0,-1.0,-1021.0,-64.0,9.0
-264.0,-15.0,-34.0,-54.0,9.0,-1.0,-1013.0,-58.0,6.0
-264.0,-12.0,-35.0,-55.0,7.0,-2.0,-1018.0,-61.0,5.0
-261.0,-19.0,-29.0,-56.0,7.0,-2.0,-1017.0,-57.0,5.0
-259.0,-18.0,-36.0,-57.0,7.0,-1.0,-1015.0,-59.0,10.0
-264.0,-17.0,-33.0,-58.0,8.0,-1.0,-1023.0,-60.0,3.0
-265.0,-17.0,-34.0,-61.0,7.0,-2.0,-1017.0,-59.0,7.0
-261.0,-18.0,-34.0,-58.0,7.0,-2.0,-1018.0,-60.0,6.0
-262.0,-20.0,-31.0,-58.0,7.0,-2.0,-1016.0,-61.0,9.0
-263.0,-16.0,-38.0,-58.0,7.0,-1.0,-1024.0,-56.0,3.0
-262.0,-14.0,-37.0,-57.0,8.0,-2.0,-1016.0,-62.0,7.0
-260.0,-19.0,-34.0,-56.0,9.0,-3.0,-1023.0,-55.0,9.0
-259.0,-18.0,-34.0,-56.0,9.0,-4.0,-1021.0,-59.0,5.0
-262.0,-18.0,-33.0,-54.0,9.0,-5.0,-1021.0,-61.0,6.0
-262.0,-17.0,-35.0,-53.0,9.0,-6.0,-1019.0,-62.0,7.0
-262.0,-17.0,-36.0,-52.0,8.0,-6.0,-1024.0,-64.0,8.0
-259.0,-18.0,-37.0,-51.0,9.0,-6.0,-1024.0,-59.0,9.0
-261.0,-17.0,-32.0,-50.0,8.0,-7.0,-1021.0,-58.0,7.0
-259.0,-17.0,-33.0,-51.0,10.0,-8.0,-1019.0,-61.0,9.0
-261.0,-14.0,-35.0,-50.0,9.0,-7.0,-1024.0,-58.0,8.0
-260.0,-19.0,-26.0,-50.0,9.0,-8.0,-1019.0,-58.0,8.0
-258.0,-17.0,-38.0,-50.0,8.0,-8.0,-1016.0,-57.0,3.0
-263.0,-10.0,-29.0,-47.0,8.0,-9.0,-1020.0,-60.0,7.0
-262.0,-17.0,-32.0,-48.0,9.0,-8.0,-1017.0,-62.0,10.0
-261.0,-17.0,-35.0,-52.0,10.0,-9.0,-1014.0,-60.0,7.0
-264.0,-17.0,-33.0,-53.0,9.0,-8.0,-1019.0,-59.0,7.0
-260.0,-16.0,-36.0,-53.0,9.0,-9.0,-1014.0,-59.0,11.0
-264.0,-15.0,-36.0,-55.0,8.0,-7.0,-1018.0,-58.0,10.0
-267.0,-16.0,-34.0,-55.0,9.0,-8.0,-1013.0,-60.0,13.0
-261.0,-18.0,-35.0,-57.0,9.0,-7.0,-1017.0,-64.0,8.0
-264.0,-16.0,-29.0,-57.0,9.0,-8.0,-1017.0,-61.0,9.0
-261.0,-18.0,-37.0,-57.0,10.0,-7.0,-1015.0,-60.0,8.0
-263.0,-12.0,-31.0,-57.0,10.0,-7.0,-1021.0,-62.0,7.0
-263.0,-16.0,-36.0,-57.0,8.0,-7.0,-1012.0,-63.0,13.0
-261.0,-20.0,-36.0,-57.0,9.0,-6.0,-1015.0,-64.0,6.0
-260.0,-17.0,-35.0,-56.0,7.0,-7.0,-1012.0,-63.0,6.0
-261.0,-19.0,-35.0,-57.0,7.0,-5.0,-1016.0,-65.0,9.0
-260.0,-18.0,-34.0,-57.0,7.0,-5.0,-1015.0,-64.0,7.0
-262.0,-19.0,-32.0,-56.0,8.0,-4.0,-1015.0,-63.0,9.0
-265.0,-19.0,-35.0,-54.0,7.0,-6.0,-1019.0,-67.0,9.0
-262.0,-21.0,-32.0,-55.0,9.0,-6.0,-1017.0,-64.0,8.0
-264.0,-17.0,-34.0,-54.0,8.0,-5.0,-1019.0,-64.0,9.0
-263.0,-20.0,-34.0,-54.0,7.0,-3.0,-1017.0,-65.0,5.0
-260.0,-19.0,-34.0,-52.0,8.0,-1.0,-1014.0,-66.0,10.0
-261.0,-16.0,-32.0,-51.0,6.0,-1.0,-1015.0,-65.0,6.0
-259.0,-21.0,-34.0,-47.0,3.0,-1.0,-1014.0,-69.0,1.0
-259.0,-18.0,-37.0,-44.0,3.0,2.0,-1020.0,-65.0,3.0
-259.0,-19.0,-34.0,-42.0,1.0,2.0,-1014.0,-66.0,7.0
-263.0,-17.0,-38.0,-39.0,2.0,3.0,-1015.0,-65.0,6.0
-264.0,-16.0,-37.0,-37.0,0.0,3.0,-1014.0,-64.0,8.0
-261.0,-19.0,-33.0,-35.0,-1.0,5.0,-1015.0,-60.0,8.0
-258.0,-18.0,-34.0,-33.0,-1.0,7.0,-1010.0,-64.0,9.0
-262.0,-17.0,-31.0,-32.0,-1.0,11.0,-1013.0,-62.0,12.0
-261.0,-17.0,-37.0,-33.0,-1.0,13.0,-1011.0,-65.0,12.0
-262.0,-19.0,-28.0,-31.0,-1.0,15.0,-1015.0,-60.0,12.0
-260.0,-15.0,-35.0,-30.0,-2.0,17.0,-1014.0,-55.0,11.0
-261.0,-19.0,-34.0,-29.0,-2.0,18.0,-1015.0,-64.0,13.0
-261.0,-19.0,-36.0,-28.0,-2.0,20.0,-1018.0,-65.0,12.0
-258.0,-20.0,-31.0,-30.0,-2.0,22.0,-1018.0,-62.0,15.0
-261.0,-19.0,-34.0,-30.0,-1.0,22.0,-1019.0,-65.0,14.0
-259.0,-18.0,-30.0,-29.0,-1.0,24.0,-1015.0,-63.0,11.0
-259.0,-19.0,-30.0,-30.0,4.0,24.0,-1014.0,-63.0,15.0
-259.0,-19.0,-34.0,-32.0,7.0,24.0,-1019.0,-60.0,14.0
-255.0,-17.0,-37.0,-35.0,12.0,22.0,-1014.0,-62.0,6.0
-263.0,-14.0,-35.0,-37.0,17.0,20.0,-1020.0,-55.0,7.0
-262.0,-12.0,-35.0,-40.0,20.0,19.0,-1015.0,-54.0,9.0
-263.0,-17.0,-35.0,-44.0,23.0,18.0,-1017.0,-54.0,9.0
-262.0,-14.0,-34.0,-46.0,25.0,17.0,-1017.0,-54.0,8.0
-260.0,-17.0,-33.0,-49.0,24.0,18.0,-1017.0,-58.0,6.0
-259.0,-16.0,-33.0,-53.0,25.0,17.0,-1019.0,-53.0,7.0
-259.0,-16.0,-35.0,-54.0,25.0,17.0,-1019.0,-58.0,9.0
-261.0,-16.0,-31.0,-54.0,24.0,17.0,-1024.0,-60.0,12.0
-265.0,-16.0,-36.0,-52.0,22.0,18.0,-1024.0,-57.0,13.0
-264.0,-19.0,-32.0,-48.0,21.0,18.0,-1019.0,-52.0,15.0
-261.0,-15.0,-32.0,-43.0,20.0,17.0,-1024.0,-60.0,12.0
-263.0,-15.0,-33.0,-36.0,17.0,16.0,-1019.0,-56.0,11.0
-263.0,-17.0,-29.0,-33.0,15.0,14.0,-1027.0,-58.0,12.0
-262.0,-14.0,-32.0,-27.0,15.0,12.0,-1025.0,-54.0,14.0
-263.0,-16.0,-35.0,-23.0,14.0,10.0,-1026.0,-54.0,14.0
-262.0,-14.0,-34.0,-22.0,14.0,7.0,-1023.0,-52.0,13.0
-264.0,-15.0,-34.0,-23.0,14.0,6.0,-1026.0,-50.0,10.0
-265.0,-9.0,-32.0,-25.0,16.0,3.0,-1020.0,-46.0,13.0
-265.0,-13.0,-36.0,-28.0,18.0,-1.0,-1022.0,-52.0,8.0
-263.0,-14.0,-31.0,-30.0,21.0,-2.0,-1024.0,-48.0,5.0
-262.0,-15.0,-30.0,-32.0,24.0,-4.0,-1020.0,-45.0,12.0
-264.0,-13.0,-30.0,-37.0,27.0,-5.0,-1026.0,-46.0,14.0
-263.0,-14.0,-37.0,-40.0,28.0,-5.0,-1027.0,-52.0,15.0
-263.0,-14.0,-31.0,-44.0,30.0,-5.0,-1021.0,-46.0,11.0
-264.0,-14.0,-33.0,-48.0,27.0,-5.0,-1024.0,-47.0,12.0
-262.0,-13.0,-33.0,-51.0,26.0,-4.0,-1021.0,-47.0,10.0
-261.0,-15.0,-30.0,-50.0,27.0,-5.0,-1026.0,-46.0,18.0
-263.0,-15.0,-33.0,-52.0,26.0,-6.0,-1021.0,-51.0,9.0
-263.0,-15.0,-36.0,-53.0,25.0,-7.0,-1017.0,-50.0,13.0
-262.0,-16.0,-36.0,-53.0,25.0,-6.0,-1018.0,-55.0,14.0
-263.0,-17.0,-29.0,-52.0,27.0,-5.0,-1020.0,-54.0,12.0
-263.0,-17.0,-33.0,-54.0,28.0,-5.0,-1019.0,-55.0,14.0
-262.0,-16.0,-35.0,-56.0,27.0,-5.0,-1020.0,-60.0,6.0
-258.0,-16.0,-33.0,-56.0,26.0,-6.0,-1020.0,-55.0,10.0
-262.0,-15.0,-31.0,-54.0,25.0,-7.0,-1015.0,-55.0,11.0
-263.0,-18.0,-34.0,-55.0,24.0,-7.0,-1015.0,-52.0,10.0
-260.0,-17.0,-36.0,-53.0,26.0,-7.0,-1016.0,-61.0,9.0
-261.0,-16.0,-34.0,-52.0,25.0,-7.0,-1017.0,-57.0,12.0
-260.0,-15.0,-35.0,-52.0,24.0,-8.0,-1016.0,-57.0,12.0
-264.0,-16.0,-32.0,-52.0,23.0,-8.0,-1011.0,-61.0,11.0
-262.0,-15.0,-32.0,-50.0,22.0,-9.0,-1013.0,-59.0,10.0
-263.0,-15.0,-34.0,-49.0,21.0,-10.0,-1019.0,-57.0,10.0
-263.0,-16.0,-34.0,-48.0,19.0,-11.0,-1019.0,-61.0,9.0
-258.0,-18.0,-36.0,-47.0,18.0,-10.0,-1016.0,-64.0,7.0
-260.0,-18.0,-36.0,-47.0,17.0,-9.0,-1019.0,-58.0,9.0
-262.0,-19.0,-36.0,-46.0,17.0,-9.0,-1020.0,-64.0,9.0
-260.0,-17.0,-34.0,-46.0,15.0,-8.0,-1015.0,-60.0,7.0
-261.0,-15.0,-32.0,-45.0,14.0,-9.0,-1020.0,-59.0,9.0
-258.0,-16.0,-35.0,-45.0,12.0,-7.0,-1019.0,-57.0,4.0
-263.0,-20.0,-35.0,-47.0,10.0,-5.0,-1015.0,-63.0,4.0
-262.0,-17.0,-34.0,-47.0,9.0,-5.0,-1015.0,-60.0,3.0
-264.0,-14.0,-33.0,-46.0,8.0,-4.0,-1015.0,-59.0,10.0
-261.0,-18.0,-37.0,-47.0,6.0,-3.0,-1019.0,-58.0,3.0
-259.0,-11.0,-32.0,-46.0,3.0,-3.0,-1015.0,-57.0,5.0
-262.0,-13.0,-32.0,-48.0,2.0,-3.0,-1012.0,-58.0,8.0
-260.0,-15.0,-30.0,-46.0,1.0,1.0,-1018.0,-59.0,12.0
-260.0,-19.0,-31.0,-43.0,0.0,3.0,-1021.0,-55.0,13.0
-261.0,-15.0,-33.0,-38.0,-1.0,6.0,-1017.0,-63.0,19.0
-261.0,-18.0,-31.0,-36.0,2.0,9.0,-1020.0,-63.0,24.0
-262.0,-16.0,-30.0,-33.0,4.0,11.0,-1024.0,-57.0,31.0
-264.0,-16.0,-29.0,-32.0,9.0,14.0,-1020.0,-64.0,24.0
-264.0,-16.0,-26.0,-31.0,13.0,15.0,-1029.0,-64.0,22.0
-267.0,-18.0,-26.0,-32.0,23.0,15.0,-1033.0,-63.0,18.0
-266.0,-17.0,-34.0,-35.0,32.0,12.0,-1030.0,-61.0,22.0
-268.0,-16.0,-38.0,-39.0,42.0,15.0,-1033.0,-63.0,5.0
-265.0,-16.0,-42.0,-46.0,52.0,10.0,-1038.0,-58.0,-3.0
-264.0,-13.0,-40.0,-57.0,69.0,5.0,-1033.0,-54.0,-13.0
-265.0,-12.0,-44.0,-67.0,88.0,-2.0,-1031.0,-50.0,-26.0
-263.0,-11.0,-43.0,-77.0,107.0,-8.0,-1027.0,-48.0,-26.0
-263.0,-15.0,-43.0,-86.0,124.0,-17.0,-1023.0,-46.0,-29.0
-261.0,-18.0,-41.0,-89.0,137.0,-24.0,-1028.0,-48.0,-32.0
-262.0,-12.0,-39.0,-90.0,144.0,-32.0,-1027.0,-46.0,-30.0
-262.0,-12.0,-39.0,-83.0,143.0,-36.0,-1025.0,-42.0,-28.0
-262.0,-11.0,-40.0,-75.0,140.0,-41.0,-1024.0,-42.0,-25.0
-256.0,-10.0,-46.0,-61.0,133.0,-43.0,-1021.0,-49.0,-16.0
-262.0,-19.0,-39.0,-49.0,118.0,-44.0,-1010.0,-54.0,-8.0
-260.0,-14.0,-37.0,-34.0,104.0,-42.0,-1014.0,-50.0,-6.0
-259.0,-17.0,-34.0,-15.0,87.0,-41.0,-1007.0,-57.0,-8.0
-261.0,-16.0,-39.0,-3.0,71.0,-38.0,-1013.0,-59.0,4.0
-260.0,-16.0,-35.0,8.0,53.0,-37.0,-1016.0,-62.0,2.0
-261.0,-16.0,-36.0,20.0,36.0,-34.0,-1010.0,-55.0,5.0
-265.0,-16.0,-32.0,25.0,22.0,-31.0,-1014.0,-60.0,7.0
-264.0,-16.0,-34.0,27.0,10.0,-30.0,-1027.0,-52.0,12.0
-261.0,-12.0,-33.0,23.0,-2.0,-29.0,-1019.0,-52.0,12.0
-258.0,-15.0,-32.0,16.0,-10.0,-25.0,-1009.0,-48.0,14.0
-255.0,-16.0,-31.0,6.0,-17.0,-23.0,-1016.0,-52.0,13.0
-259.0,-13.0,-31.0,-8.0,-20.0,-22.0,-1017.0,-51.0,10.0
-262.0,-13.0,-35.0,-19.0,-21.0,-19.0,-1014.0,-52.0,11.0
-260.0,-17.0,-32.0,-27.0,-21.0,-18.0,-1016.0,-51.0,11.0
-262.0,-19.0,-34.0,-38.0,-19.0,-16.0,-1025.0,-52.0,13.0
-259.0,-17.0,-35.0,-46.0,-18.0,-16.0,-1015.0,-56.0,12.0
-260.0,-16.0,-33.0,-48.0,-17.0,-14.0,-1008.0,-58.0,12.0
-257.0,-20.0,-30.0,-47.0,-13.0,-11.0,-1006.0,-55.0,8.0
-260.0,-18.0,-35.0,-48.0,-9.0,-10.0,-1014.0,-57.0,8.0
-257.0,-18.0,-30.0,-48.0,-6.0,-9.0,-1010.0,-63.0,6.0
-260.0,-17.0,-34.0,-48.0,-1.0,-8.0,-1021.0,-62.0,6.0
-263.0,-18.0,-42.0,-48.0,1.0,-7.0,-1021.0,-59.0,3.0
-259.0,-15.0,-36.0,-50.0,3.0,-5.0,-1009.0,-61.0,4.0
-261.0,-17.0,-34.0,-52.0,4.0,-6.0,-1017.0,-60.0,4.0
-262.0,-15.0,-36.0,-56.0,2.0,-5.0,-1017.0,-62.0,11.0
-260.0,-21.0,-34.0,-61.0,3.0,-7.0,-1015.0,-61.0,9.0
-260.0,-16.0,-38.0,-64.0,2.0,-6.0,-1011.0,-63.0,6.0
-262.0,-17.0,-34.0,-68.0,1.0,-7.0,-1013.0,-65.0,7.0
-260.0,-17.0,-36.0,-70.0,0.0,-5.0,-1013.0,-70.0,7.0
-263.0,-22.0,-39.0,-69.0,0.0,-6.0,-1016.0,-64.0,1.0
-258.0,-20.0,-34.0,-65.0,-2.0,-6.0,-1013.0,-68.0,7.0
-261.0,-18.0,-32.0,-60.0,1.0,-6.0,-1012.0,-68.0,10.0
-262.0,-19.0,-35.0,-57.0,2.0,-6.0,-1015.0,-66.0,7.0
-262.0,-20.0,-35.0,-52.0,2.0,-5.0,-1019.0,-69.0,9.0
-261.0,-18.0,-34.0,-48.0,3.0,-8.0,-1026.0,-64.0,3.0
-260.0,-17.0,-36.0,-45.0,4.0,-8.0,-1019.0,-64.0,6.0
-261.0,-18.0,-37.0,-43.0,4.0,-9.0,-1021.0,-65.0,8.0
-261.0,-21.0,-38.0,-40.0,7.0,-10.0,-1015.0,-63.0,7.0
-263.0,-18.0,-33.0,-37.0,7.0,-9.0,-1020.0,-64.0,5.0
-259.0,-20.0,-35.0,-35.0,6.0,-10.0,-1020.0,-70.0,4.0
-261.0,-19.0,-36.0,-33.0,8.0,-11.0,-1020.0,-64.0,5.0
-262.0,-17.0,-35.0,-31.0,8.0,-10.0,-1014.0,-64.0,4.0
-253.0,-18.0,-34.0,-26.0,8.0,-11.0,-1019.0,-64.0,2.0
-260.0,-19.0,-37.0,-26.0,8.0,-9.0,-1017.0,-65.0,2.0
-260.0,-21.0,-37.0,-26.0,8.0,-9.0,-1019.0,-67.0,-5.0
-260.0,-18.0,-38.0,-23.0,6.0,-8.0,-1018.0,-63.0,1.0
-262.0,-17.0,-37.0,-21.0,4.0,-8.0,-1019.0,-66.0,3.0
-262.0,-17.0,-40.0,-20.0,4.0,-7.0,-1013.0,-61.0,5.0
-262.0,-20.0,-34.0,-20.0,0.0,-6.0,-1018.0,-65.0,2.0
-263.0,-18.0,-35.0,-18.0,-2.0,-6.0,-1018.0,-64.0,2.0
-260.0,-18.0,-32.0,-15.0,-3.0,-3.0,-1012.0,-62.0,7.0
-265.0,-17.0,-37.0,-13.0,-6.0,-3.0,-1016.0,-67.0,9.0
-260.0,-18.0,-34.0,-11.0,-8.0,-1.0,-1014.0,-63.0,8.0
-254.0,-21.0,-31.0,-8.0,-10.0,0.0,-1020.0,-63.0,4.0
-260.0,-20.0,-36.0,-6.0,-11.0,-1.0,-1020.0,-67.0,6.0
-261.0,-19.0,-33.0,-9.0,-13.0,0.0,-1015.0,-66.0,5.0
-261.0,-16.0,-31.0,-8.0,-14.0,1.0,-1019.0,-55.0,3.0
-262.0,-13.0,-37.0,-10.0,-14.0,0.0,-1021.0,-54.0,8.0
-262.0,-16.0,-36.0,-10.0,-13.0,1.0,-1022.0,-53.0,3.0
-259.0,-15.0,-33.0,-14.0,-13.0,0.0,-1021.0,-54.0,7.0
-264.0,-13.0,-35.0,-18.0,-14.0,-1.0,-1017.0,-55.0,6.0
-264.0,-15.0,-38.0,-24.0,-12.0,-2.0,-1022.0,-51.0,9.0
-262.0,-16.0,-33.0,-29.0,-11.0,-5.0,-1017.0,-58.0,8.0
-259.0,-13.0,-35.0,-33.0,-8.0,-5.0,-1016.0,-48.0,9.0
-265.0,-15.0,-34.0,-35.0,-7.0,-5.0,-1017.0,-57.0,9.0
-259.0,-17.0,-39.0,-39.0,-7.0,-8.0,-1012.0,-55.0,11.0
-263.0,-18.0,-33.0,-42.0,-4.0,-9.0,-1023.0,-53.0,11.0
-261.0,-16.0,-35.0,-47.0,1.0,-9.0,-1024.0,-57.0,18.0
-260.0,-19.0,-36.0,-48.0,2.0,-8.0,-1025.0,-56.0,18.0
-262.0,-17.0,-34.0,-48.0,3.0,-7.0,-1012.0,-62.0,15.0
-261.0,-17.0,-30.0,-46.0,7.0,-9.0,-1011.0,-62.0,17.0
-261.0,-17.0,-33.0,-42.0,11.0,-9.0,-1015.0,-66.0,15.0
-263.0,-18.0,-31.0,-37.0,13.0,-10.0,-1027.0,-63.0,14.0
-259.0,-20.0,-31.0,-30.0,11.0,-9.0,-1020.0,-63.0,12.0
-260.0,-16.0,-31.0,-26.0,7.0,-9.0,-1013.0,-58.0,11.0
-260.0,-17.0,-31.0,-23.0,3.0,-10.0,-1014.0,-56.0,9.0
-258.0,-18.0,-32.0,-23.0,0.0,-8.0,-1023.0,-58.0,10.0
-263.0,-18.0,-30.0,-21.0,-1.0,-7.0,-1015.0,-57.0,8.0
-260.0,-15.0,-36.0,-20.0,-2.0,-7.0,-1014.0,-59.0,13.0
-262.0,-14.0,-30.0,-22.0,-4.0,-7.0,-1020.0,-57.0,11.0
-263.0,-15.0,-35.0,-23.0,-4.0,-7.0,-1022.0,-54.0,7.0
-261.0,-17.0,-34.0,-23.0,-6.0,-5.0,-1016.0,-52.0,16.0
-261.0,-15.0,-35.0,-24.0,-8.0,-6.0,-1011.0,-55.0,12.0
-263.0,-14.0,-31.0,-24.0,-9.0,-6.0,-1017.0,-52.0,13.0
-263.0,-16.0,-33.0,-22.0,-9.0,-7.0,-1015.0,-52.0,20.0
-262.0,-17.0,-38.0,-23.0,-9.0,-7.0,-1019.0,-54.0,13.0
-262.0,-13.0,-33.0,-21.0,-8.0,-8.0,-1017.0,-53.0,18.0
-265.0,-12.0,-30.0,-21.0,-6.0,-8.0,-1020.0,-53.0,16.0
-262.0,-13.0,-30.0,-22.0,-5.0,-8.0,-1027.0,-53.0,15.0
-262.0,-15.0,-33.0,-26.0,-1.0,-9.0,-1022.0,-57.0,12.0
-266.0,-15.0,-35.0,-30.0,3.0,-10.0,-1026.0,-50.0,12.0
-262.0,-15.0,-30.0,-34.0,7.0,-10.0,-1020.0,-51.0,14.0
-261.0,-13.0,-35.0,-35.0,11.0,-12.0,-1020.0,-54.0,9.0
-262.0,-17.0,-36.0,-37.0,14.0,-12.0,-1020.0,-51.0,11.0
-262.0,-14.0,-33.0,-39.0,19.0,-13.0,-1020.0,-51.0,7.0
-259.0,-12.0,-27.0,-39.0,21.0,-14.0,-1023.0,-53.0,10.0
-263.0,-13.0,-36.0,-40.0,22.0,-15.0,-1020.0,-58.0,10.0
-262.0,-16.0,-34.0,-39.0,23.0,-17.0,-1027.0,-50.0,12.0
-261.0,-15.0,-36.0,-39.0,24.0,-16.0,-1022.0,-59.0,6.0
-261.0,-19.0,-34.0,-38.0,24.0,-18.0,-1020.0,-59.0,11.0
-261.0,-19.0,-34.0,-36.0,23.0,-19.0,-1017.0,-60.0,5.0
-265.0,-17.0,-35.0,-36.0,21.0,-19.0,-1018.0,-59.0,13.0
-259.0,-20.0,-36.0,-33.0,18.0,-20.0,-1019.0,-61.0,13.0
-263.0,-17.0,-36.0,-32.0,14.0,-21.0,-1020.0,-59.0,12.0
-260.0,-17.0,-35.0,-30.0,11.0,-20.0,-1015.0,-59.0,10.0
-260.0,-18.0,-33.0,-29.0,6.0,-19.0,-1022.0,-55.0,12.0
-265.0,-16.0,-36.0,-27.0,3.0,-20.0,-1016.0,-61.0,14.0
-261.0,-17.0,-34.0,-29.0,-1.0,-19.0,-1016.0,-56.0,11.0
-260.0,-18.0,-29.0,-28.0,-3.0,-19.0,-1024.0,-64.0,13.0
-263.0,-18.0,-35.0,-28.0,-6.0,-18.0,-1017.0,-57.0,13.0
-261.0,-17.0,-35.0,-28.0,-9.0,-20.0,-1020.0,-61.0,12.0
-261.0,-18.0,-33.0,-29.0,-10.0,-18.0,-1020.0,-62.0,12.0
-262.0,-20.0,-33.0,-31.0,-12.0,-17.0,-1017.0,-59.0,14.0
-260.0,-20.0,-34.0,-32.0,-13.0,-18.0,-1017.0,-61.0,11.0
-260.0,-16.0,-36.0,-33.0,-11.0,-16.0,-1016.0,-67.0,13.0
-260.0,-16.0,-37.0,-33.0,-10.0,-16.0,-1020.0,-64.0,18.0
-262.0,-16.0,-29.0,-35.0,-9.0,-15.0,-1017.0,-69.0,14.0
-260.0,-17.0,-29.0,-36.0,-9.0,-15.0,-1025.0,-60.0,14.0
-262.0,-16.0,-34.0,-38.0,-9.0,-13.0,-1019.0,-61.0,14.0
-262.0,-19.0,-32.0,-39.0,-8.0,-13.0,-1020.0,-60.0,10.0
-260.0,-21.0,-31.0,-38.0,-8.0,-12.0,-1016.0,-64.0,13.0
-260.0,-16.0,-33.0,-40.0,-7.0,-13.0,-1019.0,-61.0,18.0
-262.0,-18.0,-31.0,-38.0,-8.0,-10.0,-1021.0,-67.0,11.0
-257.0,-19.0,-30.0,-38.0,-8.0,-11.0,-1020.0,-66.0,15.0
-260.0,-16.0,-30.0,-40.0,-10.0,-12.0,-1014.0,-61.0,14.0
-259.0,-18.0,-33.0,-39.0,-10.0,-11.0,-1014.0,-66.0,13.0
-261.0,-19.0,-31.0,-39.0,-10.0,-11.0,-1013.0,-68.0,16.0
-263.0,-22.0,-36.0,-38.0,-9.0,-10.0,-1015.0,-68.0,20.0
-259.0,-21.0,-33.0,-37.0,-9.0,-11.0,-1012.0,-64.0,16.0
-261.0,-17.0,-31.0,-37.0,-10.0,-13.0,-1017.0,-72.0,17.0
-260.0,-18.0,-32.0,-38.0,-12.0,-13.0,-1016.0,-62.0,22.0
-263.0,-16.0,-30.0,-37.0,-12.0,-12.0,-1020.0,-67.0,18.0
-263.0,-18.0,-31.0,-37.0,-14.0,-12.0,-1013.0,-62.0,18.0
-258.0,-20.0,-32.0,-35.0,-15.0,-12.0,-1015.0,-63.0,16.0
-260.0,-21.0,-32.0,-35.0,-15.0,-10.0,-1014.0,-61.0,18.0
-263.0,-18.0,-29.0,-36.0,-17.0,-11.0,-1019.0,-62.0,21.0
-260.0,-15.0,-31.0,-34.0,-18.0,-10.0,-1019.0,-62.0,18.0
-260.0,-19.0,-36.0,-33.0,-19.0,-10.0,-1025.0,-64.0,14.0
-259.0,-21.0,-31.0,-30.0,-21.0,-11.0,-1023.0,-63.0,15.0
-261.0,-17.0,-31.0,-30.0,-21.0,-9.0,-1020.0,-64.0,15.0
-265.0,-18.0,-31.0,-29.0,-22.0,-10.0,-1014.0,-66.0,17.0
-261.0,-17.0,-32.0,-28.0,-22.0,-10.0,-1017.0,-63.0,18.0
-262.0,-19.0,-30.0,-27.0,-22.0,-10.0,-1023.0,-64.0,20.0
-262.0,-16.0,-31.0,-27.0,-23.0,-12.0,-1015.0,-68.0,16.0
-262.0,-18.0,-28.0,-25.0,-24.0,-12.0,-1020.0,-62.0,18.0
-264.0,-17.0,-30.0,-24.0,-24.0,-13.0,-1017.0,-60.0,16.0
-263.0,-19.0,-36.0,-23.0,-26.0,-13.0,-1023.0,-61.0,10.0
-265.0,-16.0,-31.0,-25.0,-26.0,-13.0,-1021.0,-59.0,19.0
-264.0,-16.0,-32.0,-25.0,-26.0,-12.0,-1026.0,-58.0,17.0
-264.0,-14.0,-33.0,-25.0,-26.0,-14.0,-1017.0,-66.0,20.0
-259.0,-18.0,-33.0,-25.0,-27.0,-13.0,-1017.0,-59.0,19.0
-262.0,-17.0,-32.0,-27.0,-27.0,-14.0,-1023.0,-61.0,18.0
-259.0,-18.0,-29.0,-27.0,-27.0,-16.0,-1017.0,-63.0,26.0
-260.0,-17.0,-33.0,-27.0,-29.0,-17.0,-1019.0,-60.0,24.0
-261.0,-21.0,-29.0,-27.0,-29.0,-18.0,-1016.0,-62.0,18.0
-260.0,-12.0,-29.0,-27.0,-29.0,-17.0,-1017.0,-62.0,21.0
-264.0,-16.0,-30.0,-28.0,-31.0,-18.0,-1015.0,-62.0,27.0
-260.0,-17.0,-30.0,-29.0,-33.0,-18.0,-1025.0,-67.0,24.0
-261.0,-18.0,-30.0,-25.0,-35.0,-19.0,-1012.0,-64.0,25.0
-264.0,-18.0,-32.0,-24.0,-37.0,-20.0,-1017.0,-62.0,25.0
-260.0,-19.0,-31.0,-21.0,-40.0,-21.0,-1017.0,-70.0,26.0
-264.0,-16.0,-28.0,-18.0,-43.0,-21.0,-1019.0,-70.0,27.0
-262.0,-16.0,-30.0,-14.0,-45.0,-22.0,-1015.0,-69.0,28.0
-264.0,-18.0,-28.0,-10.0,-45.0,-24.0,-1020.0,-64.0,26.0
-264.0,-18.0,-29.0,-4.0,-47.0,-25.0,-1020.0,-70.0,26.0
-260.0,-18.0,-30.0,2.0,-47.0,-28.0,-1013.0,-71.0,27.0
-260.0,-21.0,-24.0,10.0,-49.0,-29.0,-1021.0,-67.0,30.0
-261.0,-18.0,-29.0,19.0,-48.0,-30.0,-1014.0,-70.0,33.0
-262.0,-17.0,-27.0,27.0,-48.0,-31.0,-1017.0,-71.0,34.0
-263.0,-20.0,-30.0,36.0,-46.0,-34.0,-1020.0,-71.0,37.0
-260.0,-19.0,-28.0,49.0,-46.0,-34.0,-1015.0,-70.0,41.0
-262.0,-19.0,-24.0,66.0,-45.0,-36.0,-1020.0,-76.0,38.0
-261.0,-23.0,-27.0,82.0,-45.0,-38.0,-1025.0,-71.0,36.0
-261.0,-24.0,-29.0,101.0,-46.0,-38.0,-1027.0,-78.0,35.0
-264.0,-26.0,-28.0,120.0,-48.0,-38.0,-1025.0,-75.0,33.0
-264.0,-25.0,-28.0,142.0,-48.0,-39.0,-1028.0,-84.0,34.0
-264.0,-23.0,-33.0,160.0,-53.0,-40.0,-1025.0,-80.0,26.0
-265.0,-24.0,-32.0,175.0,-56.0,-42.0,-1032.0,-79.0,21.0
-265.0,-24.0,-33.0,191.0,-61.0,-43.0,-1034.0,-80.0,16.0
-266.0,-20.0,-30.0,205.0,-67.0,-47.0,-1031.0,-82.0,10.0
-266.0,-26.0,-35.0,214.0,-75.0,-49.0,-1032.0,-82.0,11.0
-264.0,-23.0,-34.0,223.0,-84.0,-53.0,-1028.0,-87.0,9.0
-267.0,-26.0,-37.0,231.0,-94.0,-55.0,-1026.0,-87.0,3.0
-264.0,-25.0,-35.0,243.0,-103.0,-61.0,-1028.0,-89.0,8.0
-266.0,-25.0,-31.0,259.0,-115.0,-66.0,-1032.0,-94.0,8.0
-265.0,-29.0,-30.0,277.0,-127.0,-75.0,-1037.0,-95.0,10.0
-268.0,-26.0,-33.0,304.0,-141.0,-83.0,-1037.0,-94.0,9.0
-268.0,-29.0,-34.0,330.0,-157.0,-92.0,-1045.0,-97.0,8.0
-268.0,-26.0,-31.0,357.0,-183.0,-102.0,-1048.0,-91.0,8.0
-271.0,-25.0,-37.0,382.0,-214.0,-110.0,-1048.0,-95.0,6.0
-273.0,-26.0,-33.0,403.0,-251.0,-118.0,-1051.0,-83.0,3.0
-273.0,-20.0,-36.0,418.0,-288.0,-127.0,-1059.0,-77.0,9.0
-273.0,-23.0,-33.0,431.0,-325.0,-133.0,-1062.0,-66.0,5.0
-269.0,-18.0,-34.0,437.0,-360.0,-139.0,-1058.0,-69.0,-6.0
-273.0,-16.0,-38.0,435.0,-391.0,-146.0,-1066.0,-62.0,-7.0
-272.0,-15.0,-41.0,432.0,-417.0,-150.0,-1064.0,-54.0,-15.0
-274.0,-14.0,-37.0,422.0,-438.0,-153.0,-1063.0,-52.0,-18.0
-272.0,-13.0,-40.0,407.0,-456.0,-155.0,-1067.0,-51.0,-14.0
-273.0,-11.0,-36.0,389.0,-468.0,-158.0,-1068.0,-44.0,-16.0
-272.0,-12.0,-38.0,367.0,-479.0,-159.0,-1065.0,-47.0,-8.0
-272.0,-12.0,-39.0,344.0,-487.0,-159.0,-1059.0,-41.0,-3.0
-271.0,-14.0,-38.0,322.0,-498.0,-157.0,-1057.0,-44.0,5.0
-272.0,-17.0,-29.0,301.0,-507.0,-152.0,-1059.0,-44.0,9.0
-272.0,-11.0,-33.0,282.0,-518.0,-149.0,-1055.0,-44.0,17.0
-271.0,-11.0,-30.0,265.0,-532.0,-146.0,-1053.0,-45.0,24.0
-272.0,-10.0,-30.0,248.0,-546.0,-141.0,-1050.0,-43.0,24.0
-269.0,-12.0,-29.0,233.0,-560.0,-136.0,-1048.0,-43.0,34.0
-268.0,-14.0,-24.0,218.0,-577.0,-130.0,-1048.0,-50.0,41.0
-267.0,-13.0,-21.0,205.0,-590.0,-126.0,-1042.0,-45.0,45.0
-267.0,-15.0,-25.0,194.0,-604.0,-123.0,-1046.0,-48.0,50.0
-267.0,-13.0,-21.0,182.0,-618.0,-121.0,-1044.0,-52.0,51.0
-267.0,-15.0,-20.0,170.0,-633.0,-119.0,-1044.0,-56.0,61.0
-266.0,-19.0,-22.0,160.0,-648.0,-120.0,-1041.0,-56.0,67.0
-264.0,-14.0,-19.0,148.0,-663.0,-119.0,-1039.0,-68.0,71.0
-266.0,-20.0,-14.0,138.0,-679.0,-118.0,-1030.0,-76.0,80.0
-263.0,-25.0,-10.0,131.0,-693.0,-118.0,-1026.0,-81.0,92.0
-264.0,-23.0,-8.0,129.0,-705.0,-118.0,-1027.0,-86.0,92.0
-264.0,-28.0,-10.0,132.0,-716.0,-118.0,-1017.0,-93.0,105.0
-263.0,-28.0,-8.0,139.0,-726.0,-119.0,-1028.0,-95.0,106.0
-263.0,-30.0,-8.0,148.0,-733.0,-120.0,-1023.0,-105.0,107.0
-265.0,-30.0,-7.0,155.0,-741.0,-120.0,-1022.0,-98.0,111.0
-260.0,-29.0,-6.0,162.0,-748.0,-118.0,-1028.0,-103.0,114.0
-263.0,-26.0,-5.0,164.0,-754.0,-120.0,-1027.0,-104.0,116.0
-262.0,-29.0,5.0,164.0,-759.0,-118.0,-1030.0,-97.0,111.0
-265.0,-26.0,-4.0,164.0,-762.0,-115.0,-1030.0,-96.0,116.0
-263.0,-26.0,-8.0,159.0,-761.0,-115.0,-1027.0,-96.0,119.0
-263.0,-22.0,-2.0,152.0,-759.0,-114.0,-1023.0,-91.0,123.0
-262.0,-27.0,1.0,146.0,-755.0,-111.0,-1027.0,-99.0,130.0
-261.0,-24.0,0.0,139.0,-752.0,-113.0,-1022.0,-97.0,127.0
-264.0,-24.0,0.0,133.0,-748.0,-111.0,-1020.0,-97.0,139.0
-260.0,-26.0,2.0,127.0,-745.0,-110.0,-1017.0,-101.0,143.0
-264.0,-23.0,3.0,118.0,-742.0,-107.0,-1020.0,-97.0,143.0
-259.0,-28.0,4.0,112.0,-743.0,-104.0,-1021.0,-96.0,150.0
-260.0,-27.0,7.0,106.0,-747.0,-101.0,-1017.0,-97.0,151.0
-260.0,-27.0,9.0,96.0,-751.0,-97.0,-1011.0,-101.0,165.0
-259.0,-30.0,10.0,88.0,-756.0,-93.0,-1003.0,-100.0,168.0
-257.0,-28.0,11.0,82.0,-764.0,-91.0,-993.0,-102.0,177.0
-253.0,-28.0,15.0,77.0,-771.0,-89.0,-988.0,-115.0,190.0
-251.0,-29.0,13.0,72.0,-775.0,-87.0,-987.0,-116.0,194.0
-252.0,-32.0,16.0,70.0,-781.0,-83.0,-980.0,-117.0,198.0
-250.0,-36.0,17.0,71.0,-787.0,-82.0,-981.0,-123.0,207.0
-253.0,-32.0,22.0,75.0,-794.0,-83.0,-976.0,-125.0,217.0
-252.0,-34.0,23.0,83.0,-798.0,-81.0,-981.0,-125.0,221.0
-250.0,-35.0,24.0,95.0,-802.0,-82.0,-981.0,-120.0,226.0
-251.0,-34.0,23.0,106.0,-803.0,-80.0,-979.0,-124.0,232.0
-257.0,-33.0,23.0,115.0,-806.0,-80.0,-981.0,-122.0,235.0
-250.0,-33.0,28.0,124.0,-806.0,-78.0,-979.0,-124.0,240.0
-251.0,-33.0,29.0,130.0,-806.0,-78.0,-986.0,-117.0,242.0
-251.0,-31.0,30.0,135.0,-809.0,-76.0,-982.0,-118.0,247.0
-251.0,-32.0,29.0,137.0,-812.0,-75.0,-978.0,-118.0,258.0
-252.0,-31.0,35.0,136.0,-816.0,-74.0,-979.0,-112.0,261.0
-253.0,-31.0,34.0,135.0,-819.0,-76.0,-979.0,-111.0,268.0
-254.0,-28.0,39.0,131.0,-825.0,-78.0,-981.0,-107.0,273.0
-253.0,-27.0,38.0,124.0,-830.0,-77.0,-985.0,-109.0,280.0
-254.0,-27.0,35.0,115.0,-835.0,-77.0,-981.0,-111.0,282.0
-252.0,-28.0,37.0,107.0,-842.0,-76.0,-976.0,-109.0,286.0
-257.0,-27.0,38.0,97.0,-846.0,-74.0,-982.0,-97.0,296.0
-255.0,-25.0,44.0,90.0,-850.0,-73.0,-979.0,-97.0,300.0
-249.0,-27.0,44.0,82.0,-853.0,-72.0,-975.0,-98.0,313.0
-249.0,-25.0,44.0,79.0,-856.0,-70.0,-971.0,-97.0,314.0
-248.0,-24.0,46.0,74.0,-860.0,-72.0,-964.0,-94.0,321.0
-246.0,-24.0,48.0,68.0,-866.0,-72.0,-962.0,-96.0,327.0
-245.0,-24.0,46.0,61.0,-871.0,-73.0,-958.0,-90.0,334.0
-244.0,-23.0,57.0,54.0,-879.0,-75.0,-943.0,-91.0,341.0
-243.0,-23.0,54.0,51.0,-886.0,-77.0,-945.0,-94.0,349.0
-240.0,-25.0,55.0,46.0,-892.0,-80.0,-935.0,-94.0,356.0
-236.0,-19.0,58.0,43.0,-896.0,-81.0,-932.0,-93.0,364.0
-240.0,-25.0,63.0,42.0,-901.0,-86.0,-925.0,-97.0,371.0
-239.0,-24.0,64.0,42.0,-907.0,-89.0,-921.0,-98.0,383.0
-235.0,-28.0,65.0,43.0,-912.0,-94.0,-917.0,-106.0,392.0
-233.0,-28.0,68.0,43.0,-918.0,-100.0,-910.0,-110.0,404.0
-237.0,-27.0,70.0,43.0,-924.0,-105.0,-902.0,-111.0,406.0
-228.0,-31.0,71.0,44.0,-926.0,-110.0,-899.0,-115.0,413.0
-231.0,-32.0,72.0,46.0,-928.0,-116.0,-895.0,-116.0,421.0
-226.0,-30.0,75.0,47.0,-926.0,-120.0,-887.0,-122.0,423.0
-223.0,-37.0,72.0,49.0,-924.0,-126.0,-883.0,-121.0,425.0
-231.0,-34.0,77.0,50.0,-920.0,-129.0,-878.0,-131.0,434.0
-229.0,-32.0,77.0,55.0,-916.0,-132.0,-876.0,-129.0,446.0
-226.0,-33.0,79.0,61.0,-913.0,-134.0,-876.0,-127.0,445.0
-223.0,-34.0,79.0,70.0,-911.0,-133.0,-871.0,-139.0,444.0
-225.0,-37.0,79.0,77.0,-908.0,-133.0,-869.0,-136.0,450.0
-221.0,-36.0,83.0,82.0,-908.0,-129.0,-865.0,-138.0,460.0
-224.0,-34.0,83.0,92.0,-906.0,-130.0,-866.0,-138.0,463.0
-223.0,-36.0,84.0,96.0,-905.0,-127.0,-866.0,-137.0,468.0
-223.0,-37.0,83.0,98.0,-903.0,-125.0,-859.0,-139.0,476.0
-223.0,-38.0,85.0,99.0,-901.0,-122.0,-857.0,-141.0,481.0
-219.0,-36.0,84.0,101.0,-899.0,-122.0,-849.0,-146.0,482.0
-217.0,-37.0,86.0,103.0,-896.0,-123.0,-845.0,-146.0,486.0
-220.0,-41.0,93.0,109.0,-897.0,-123.0,-841.0,-147.0,489.0
-216.0,-41.0,88.0,115.0,-896.0,-126.0,-848.0,-156.0,498.0
-218.0,-40.0,93.0,120.0,-898.0,-132.0,-845.0,-151.0,514.0
-216.0,-42.0,97.0,124.0,-902.0,-138.0,-841.0,-156.0,514.0
-215.0,-39.0,99.0,131.0,-908.0,-143.0,-837.0,-154.0,522.0
-217.0,-40.0,102.0,141.0,-913.0,-143.0,-837.0,-156.0,526.0
-214.0,-40.0,99.0,155.0,-919.0,-145.0,-830.0,-151.0,537.0
-213.0,-40.0,100.0,167.0,-923.0,-144.0,-835.0,-150.0,536.0
-215.0,-41.0,100.0,177.0,-928.0,-144.0,-839.0,-153.0,541.0
-215.0,-41.0,100.0,188.0,-926.0,-147.0,-838.0,-152.0,541.0
-220.0,-36.0,100.0,196.0,-922.0,-152.0,-845.0,-145.0,550.0
-217.0,-36.0,105.0,203.0,-919.0,-152.0,-851.0,-135.0,554.0
-219.0,-34.0,103.0,209.0,-915.0,-151.0,-852.0,-130.0,559.0
-222.0,-32.0,105.0,210.0,-913.0,-151.0,-856.0,-128.0,559.0
-223.0,-29.0,108.0,205.0,-911.0,-150.0,-867.0,-117.0,558.0
-223.0,-27.0,112.0,194.0,-908.0,-143.0,-855.0,-111.0,567.0
-221.0,-24.0,106.0,184.0,-904.0,-137.0,-856.0,-101.0,570.0
-219.0,-26.0,111.0,171.0,-900.0,-132.0,-854.0,-101.0,569.0
-217.0,-26.0,108.0,150.0,-890.0,-128.0,-847.0,-100.0,571.0
-219.0,-25.0,108.0,124.0,-878.0,-126.0,-846.0,-111.0,569.0
-217.0,-25.0,111.0,94.0,-862.0,-122.0,-840.0,-111.0,574.0
-217.0,-27.0,108.0,67.0,-845.0,-120.0,-830.0,-115.0,573.0
-213.0,-31.0,109.0,33.0,-828.0,-120.0,-828.0,-123.0,577.0
-209.0,-36.0,113.0,2.0,-809.0,-122.0,-822.0,-136.0,593.0
-208.0,-36.0,117.0,-25.0,-793.0,-125.0,-820.0,-140.0,603.0
-209.0,-36.0,121.0,-44.0,-780.0,-129.0,-817.0,-143.0,610.0
-210.0,-37.0,119.0,-59.0,-770.0,-131.0,-823.0,-152.0,617.0
-211.0,-37.0,121.0,-74.0,-758.0,-131.0,-824.0,-149.0,619.0
-211.0,-38.0,124.0,-90.0,-746.0,-126.0,-824.0,-148.0,628.0
-212.0,-36.0,128.0,-104.0,-734.0,-120.0,-827.0,-144.0,632.0
-210.0,-37.0,124.0,-115.0,-718.0,-115.0,-827.0,-142.0,636.0
-210.0,-36.0,127.0,-129.0,-703.0,-107.0,-828.0,-138.0,647.0
-213.0,-31.0,126.0,-146.0,-687.0,-97.0,-835.0,-139.0,637.0
-220.0,-28.0,129.0,-169.0,-671.0,-92.0,-835.0,-135.0,642.0
-217.0,-29.0,123.0,-194.0,-649.0,-86.0,-833.0,-132.0,642.0
-216.0,-32.0,130.0,-221.0,-624.0,-80.0,-835.0,-137.0,651.0
-213.0,-33.0,131.0,-248.0,-597.0,-75.0,-842.0,-140.0,652.0
-216.0,-34.0,131.0,-276.0,-569.0,-72.0,-839.0,-147.0,660.0
-213.0,-38.0,133.0,-299.0,-545.0,-73.0,-834.0,-154.0,650.0
-211.0,-41.0,129.0,-316.0,-524.0,-75.0,-830.0,-151.0,657.0
-209.0,-43.0,127.0,-328.0,-508.0,-72.0,-824.0,-156.0,652.0
-211.0,-38.0,133.0,-333.0,-499.0,-70.0,-810.0,-154.0,654.0
-208.0,-39.0,131.0,-331.0,-494.0,-64.0,-806.0,-156.0,661.0
-208.0,-39.0,132.0,-320.0,-496.0,-59.0,-797.0,-157.0,655.0
-195.0,-44.0,132.0,-315.0,-502.0,-50.0,-784.0,-157.0,652.0
-201.0,-42.0,133.0,-302.0,-512.0,-40.0,-777.0,-157.0,662.0
-192.0,-44.0,133.0,-289.0,-522.0,-30.0,-755.0,-161.0,668.0
-191.0,-42.0,136.0,-274.0,-530.0,-20.0,-748.0,-158.0,677.0
-191.0,-41.0,138.0,-258.0,-540.0,-6.0,-742.0,-157.0,679.0
-187.0,-39.0,140.0,-249.0,-552.0,4.0,-722.0,-155.0,694.0
-184.0,-37.0,138.0,-250.0,-570.0,12.0,-714.0,-148.0,697.0
-185.0,-34.0,143.0,-259.0,-591.0,19.0,-708.0,-143.0,700.0
-187.0,-34.0,146.0,-275.0,-613.0,24.0,-705.0,-147.0,707.0
-187.0,-35.0,138.0,-299.0,-637.0,30.0,-707.0,-143.0,709.0
-180.0,-35.0,143.0,-325.0,-661.0,36.0,-702.0,-147.0,718.0
-183.0,-34.0,160.0,-350.0,-684.0,38.0,-709.0,-151.0,717.0
-188.0,-36.0,150.0,-376.0,-705.0,37.0,-709.0,-155.0,736.0
-183.0,-38.0,152.0,-400.0,-724.0,37.0,-711.0,-155.0,738.0
-189.0,-39.0,151.0,-417.0,-743.0,39.0,-715.0,-152.0,746.0
-187.0,-40.0,150.0,-432.0,-762.0,41.0,-723.0,-153.0,741.0
-187.0,-39.0,152.0,-443.0,-782.0,43.0,-721.0,-148.0,738.0
-186.0,-39.0,145.0,-447.0,-802.0,51.0,-710.0,-156.0,725.0
-183.0,-40.0,147.0,-448.0,-819.0,55.0,-704.0,-155.0,713.0
-185.0,-42.0,146.0,-453.0,-828.0,58.0,-709.0,-165.0,714.0
-182.0,-44.0,143.0,-456.0,-840.0,61.0,-706.0,-172.0,713.0
-182.0,-46.0,143.0,-455.0,-861.0,67.0,-704.0,-177.0,706.0
-175.0,-42.0,156.0,-454.0,-882.0,70.0,-687.0,-180.0,708.0
-178.0,-46.0,146.0,-451.0,-907.0,75.0,-680.0,-184.0,716.0
-173.0,-49.0,146.0,-448.0,-935.0,79.0,-669.0,-185.0,719.0
-167.0,-51.0,149.0,-443.0,-958.0,86.0,-650.0,-189.0,722.0
-165.0,-47.0,154.0,-435.0,-977.0,93.0,-645.0,-196.0,740.0
-165.0,-50.0,158.0,-428.0,-992.0,100.0,-639.0,-199.0,749.0
-162.0,-50.0,154.0,-418.0,-1007.0,114.0,-628.0,-194.0,756.0
-160.0,-52.0,161.0,-408.0,-1021.0,129.0,-631.0,-196.0,771.0
-158.0,-50.0,160.0,-396.0,-1034.0,149.0,-614.0,-201.0,774.0
-158.0,-54.0,161.0,-387.0,-1041.0,163.0,-613.0,-201.0,787.0
-161.0,-54.0,161.0,-382.0,-1047.0,177.0,-611.0,-204.0,793.0
-155.0,-51.0,169.0,-385.0,-1052.0,197.0,-606.0,-202.0,801.0
-152.0,-54.0,169.0,-390.0,-1056.0,216.0,-598.0,-209.0,811.0
-151.0,-53.0,172.0,-403.0,-1060.0,236.0,-596.0,-208.0,822.0
-146.0,-54.0,170.0,-417.0,-1066.0,256.0,-567.0,-214.0,824.0
-143.0,-52.0,173.0,-434.0,-1066.0,274.0,-552.0,-210.0,828.0
-144.0,-56.0,172.0,-450.0,-1065.0,292.0,-552.0,-213.0,834.0
-145.0,-54.0,176.0,-465.0,-1067.0,313.0,-557.0,-214.0,839.0
-141.0,-54.0,176.0,-478.0,-1072.0,330.0,-549.0,-215.0,835.0
-142.0,-57.0,182.0,-490.0,-1080.0,349.0,-539.0,-221.0,833.0
-139.0,-54.0,178.0,-501.0,-1086.0,365.0,-532.0,-221.0,833.0
-137.0,-54.0,177.0,-511.0,-1093.0,378.0,-527.0,-223.0,829.0
-138.0,-58.0,177.0,-523.0,-1092.0,389.0,-540.0,-230.0,832.0
-130.0,-60.0,173.0,-533.0,-1092.0,403.0,-508.0,-235.0,821.0
-129.0,-62.0,171.0,-541.0,-1080.0,412.0,-506.0,-240.0,822.0
-130.0,-63.0,175.0,-548.0,-1056.0,421.0,-498.0,-249.0,834.0
-127.0,-65.0,172.0,-549.0,-1031.0,429.0,-496.0,-252.0,831.0
-125.0,-68.0,176.0,-545.0,-1007.0,432.0,-481.0,-270.0,833.0
-119.0,-68.0,177.0,-533.0,-986.0,429.0,-467.0,-278.0,834.0
-115.0,-73.0,175.0,-510.0,-960.0,428.0,-448.0,-292.0,837.0
-109.0,-78.0,176.0,-480.0,-932.0,423.0,-431.0,-300.0,835.0
-104.0,-84.0,176.0,-443.0,-908.0,413.0,-418.0,-309.0,845.0
-107.0,-78.0,177.0,-398.0,-886.0,402.0,-394.0,-313.0,847.0
-97.0,-84.0,179.0,-345.0,-860.0,390.0,-384.0,-322.0,852.0
-98.0,-84.0,181.0,-285.0,-835.0,375.0,-383.0,-324.0,850.0
-96.0,-85.0,182.0,-224.0,-818.0,360.0,-379.0,-327.0,858.0
-94.0,-83.0,184.0,-160.0,-803.0,344.0,-379.0,-319.0,861.0
-100.0,-80.0,184.0,-98.0,-788.0,327.0,-386.0,-314.0,873.0
-104.0,-75.0,184.0,-40.0,-775.0,309.0,-395.0,-297.0,876.0
-107.0,-71.0,189.0,11.0,-760.0,291.0,-404.0,-288.0,895.0
-107.0,-66.0,192.0,55.0,-750.0,273.0,-410.0,-263.0,903.0
-111.0,-64.0,194.0,91.0,-742.0,252.0,-431.0,-243.0,909.0
-115.0,-59.0,197.0,115.0,-732.0,229.0,-434.0,-237.0,911.0
-113.0,-59.0,202.0,124.0,-719.0,203.0,-450.0,-228.0,929.0
-120.0,-53.0,198.0,119.0,-713.0,170.0,-470.0,-209.0,932.0
-116.0,-51.0,197.0,111.0,-699.0,142.0,-447.0,-208.0,925.0
-117.0,-52.0,198.0,98.0,-675.0,109.0,-456.0,-203.0,935.0
-122.0,-52.0,204.0,79.0,-644.0,67.0,-476.0,-205.0,939.0
-128.0,-51.0,201.0,54.0,-610.0,20.0,-486.0,-204.0,938.0
-127.0,-55.0,207.0,33.0,-577.0,-30.0,-499.0,-210.0,949.0
-126.0,-57.0,204.0,15.0,-543.0,-86.0,-497.0,-223.0,945.0
-125.0,-59.0,202.0,3.0,-504.0,-140.0,-488.0,-230.0,943.0
-120.0,-63.0,201.0,0.0,-460.0,-193.0,-477.0,-244.0,938.0
-116.0,-69.0,201.0,6.0,-415.0,-243.0,-469.0,-258.0,929.0
-112.0,-71.0,198.0,26.0,-374.0,-289.0,-465.0,-277.0,919.0
-124.0,-71.0,197.0,59.0,-343.0,-330.0,-467.0,-282.0,927.0
-117.0,-77.0,195.0,107.0,-325.0,-356.0,-463.0,-293.0,920.0
-120.0,-73.0,197.0,158.0,-325.0,-379.0,-457.0,-296.0,916.0
-122.0,-75.0,199.0,212.0,-336.0,-400.0,-471.0,-297.0,919.0
-125.0,-71.0,198.0,264.0,-359.0,-416.0,-465.0,-284.0,926.0
-134.0,-72.0,201.0,313.0,-394.0,-434.0,-494.0,-276.0,934.0
-136.0,-67.0,206.0,356.0,-437.0,-441.0,-508.0,-257.0,953.0
-134.0,-66.0,206.0,399.0,-486.0,-437.0,-509.0,-249.0,957.0
-133.0,-64.0,208.0,442.0,-538.0,-431.0,-507.0,-245.0,967.0
-136.0,-64.0,208.0,489.0,-590.0,-428.0,-519.0,-240.0,964.0
-142.0,-56.0,207.0,539.0,-641.0,-428.0,-531.0,-228.0,969.0
-143.0,-59.0,209.0,594.0,-690.0,-425.0,-535.0,-216.0,978.0
-142.0,-55.0,208.0,658.0,-738.0,-426.0,-535.0,-211.0,987.0
-144.0,-52.0,210.0,718.0,-786.0,-435.0,-545.0,-204.0,978.0
-145.0,-50.0,209.0,769.0,-836.0,-444.0,-552.0,-193.0,977.0
-144.0,-46.0,207.0,814.0,-886.0,-462.0,-554.0,-178.0,977.0
-147.0,-41.0,208.0,850.0,-934.0,-486.0,-565.0,-160.0,962.0
-146.0,-34.0,203.0,869.0,-979.0,-514.0,-564.0,-143.0,956.0
-144.0,-32.0,199.0,868.0,-1023.0,-544.0,-549.0,-129.0,944.0
-139.0,-25.0,201.0,847.0,-1065.0,-586.0,-539.0,-114.0,944.0
-150.0,-21.0,201.0,812.0,-1107.0,-631.0,-531.0,-103.0,937.0
-141.0,-16.0,200.0,762.0,-1154.0,-675.0,-529.0,-84.0,942.0
-140.0,-16.0,202.0,705.0,-1207.0,-714.0,-522.0,-78.0,946.0
-136.0,-15.0,208.0,640.0,-1267.0,-755.0,-515.0,-63.0,947.0
-132.0,-12.0,204.0,569.0,-1335.0,-787.0,-504.0,-61.0,952.0
-131.0,-13.0,205.0,494.0,-1407.0,-815.0,-495.0,-61.0,960.0
-136.0,-12.0,209.0,421.0,-1482.0,-839.0,-499.0,-64.0,965.0
-134.0,-12.0,210.0,354.0,-1567.0,-856.0,-498.0,-63.0,970.0
-130.0,-13.0,210.0,302.0,-1660.0,-872.0,-495.0,-69.0,984.0
-131.0,-13.0,212.0,267.0,-1762.0,-882.0,-492.0,-68.0,980.0
-128.0,-13.0,212.0,241.0,-1869.0,-885.0,-478.0,-61.0,978.0
-131.0,-14.0,209.0,224.0,-1979.0,-888.0,-473.0,-63.0,969.0
-120.0,-13.0,204.0,220.0,-2090.0,-887.0,-448.0,-61.0,949.0
-115.0,-10.0,198.0,221.0,-2195.0,-882.0,-433.0,-54.0,933.0
-107.0,-12.0,194.0,225.0,-2294.0,-870.0,-401.0,-57.0,901.0
-97.0,-13.0,185.0,230.0,-2378.0,-852.0,-357.0,-57.0,872.0
-84.0,-14.0,175.0,231.0,-2447.0,-833.0,-321.0,-67.0,845.0
-74.0,-15.0,169.0,230.0,-2494.0,-813.0,-277.0,-69.0,817.0
-59.0,-16.0,167.0,231.0,-2524.0,-794.0,-225.0,-71.0,799.0
-46.0,-15.0,155.0,235.0,-2537.0,-771.0,-186.0,-70.0,787.0
-31.0,-19.0,157.0,234.0,-2537.0,-749.0,-123.0,-70.0,768.0
-16.0,-15.0,160.0,235.0,-2531.0,-731.0,-63.0,-62.0,765.0
-4.0,-13.0,150.0,240.0,-2511.0,-715.0,-14.0,-46.0,783.0
17.0,-9.0,162.0,256.0,-2481.0,-695.0,68.0,-43.0,783.0
22.0,-5.0,158.0,269.0,-2446.0,-679.0,87.0,-39.0,765.0
30.0,-6.0,158.0,271.0,-2403.0,-660.0,104.0,-26.0,762.0
38.0,-1.0,155.0,265.0,-2360.0,-639.0,152.0,-21.0,756.0
50.0,0.0,154.0,245.0,-2322.0,-616.0,190.0,-12.0,751.0
62.0,3.0,157.0,215.0,-2280.0,-594.0,235.0,2.0,755.0
76.0,7.0,154.0,182.0,-2232.0,-573.0,282.0,3.0,753.0
84.0,8.0,157.0,143.0,-2174.0,-555.0,317.0,18.0,759.0
95.0,4.0,155.0,102.0,-2106.0,-537.0,347.0,10.0,757.0
99.0,7.0,167.0,52.0,-2031.0,-515.0,373.0,18.0,790.0
104.0,6.0,168.0,13.0,-1950.0,-487.0,388.0,18.0,808.0
107.0,4.0,173.0,-8.0,-1868.0,-450.0,399.0,18.0,827.0
105.0,5.0,179.0,-27.0,-1779.0,-417.0,402.0,12.0,842.0
111.0,0.0,182.0,-39.0,-1689.0,-382.0,409.0,-3.0,851.0
112.0,0.0,189.0,-54.0,-1597.0,-342.0,407.0,-15.0,875.0
114.0,-5.0,194.0,-61.0,-1500.0,-307.0,421.0,-22.0,909.0
113.0,-5.0,203.0,-59.0,-1399.0,-275.0,416.0,-30.0,928.0
114.0,-14.0,205.0,-54.0,-1290.0,-235.0,422.0,-52.0,945.0
122.0,-18.0,210.0,-48.0,-1166.0,-202.0,452.0,-61.0,980.0
115.0,-17.0,218.0,-45.0,-1031.0,-183.0,438.0,-71.0,1011.0
96.0,-36.0,225.0,-49.0,-883.0,-150.0,371.0,-109.0,1048.0
73.0,-38.0,243.0,-62.0,-736.0,-101.0,286.0,-159.0,1100.0
48.0,-53.0,257.0,-73.0,-607.0,-43.0,175.0,-212.0,1155.0
44.0,-64.0,272.0,-80.0,-503.0,19.0,154.0,-248.0,1217.0
43.0,-67.0,284.0,-79.0,-411.0,85.0,157.0,-276.0,1272.0
51.0,-80.0,300.0,-82.0,-304.0,159.0,174.0,-316.0,1326.0
56.0,-89.0,308.0,-89.0,-177.0,237.0,199.0,-350.0,1372.0
57.0,-96.0,310.0,-90.0,-37.0,310.0,217.0,-385.0,1393.0
55.0,-104.0,315.0,-77.0,106.0,372.0,204.0,-408.0,1377.0
52.0,-106.0,305.0,-62.0,244.0,421.0,198.0,-410.0,1363.0
51.0,-102.0,296.0,-46.0,356.0,455.0,199.0,-402.0,1320.0
55.0,-98.0,284.0,-28.0,435.0,473.0,209.0,-377.0,1265.0
55.0,-87.0,267.0,-2.0,481.0,473.0,223.0,-349.0,1206.0
55.0,-76.0,254.0,24.0,498.0,466.0,218.0,-300.0,1150.0
54.0,-63.0,234.0,52.0,495.0,452.0,215.0,-252.0,1074.0
50.0,-52.0,220.0,65.0,481.0,434.0,204.0,-200.0,1020.0
50.0,-37.0,208.0,52.0,451.0,416.0,202.0,-152.0,959.0
48.0,-24.0,197.0,11.0,415.0,395.0,191.0,-108.0,922.0
43.0,-12.0,189.0,-59.0,376.0,372.0,169.0,-61.0,893.0
35.0,-1.0,191.0,-148.0,328.0,347.0,148.0,-26.0,882.0
30.0,5.0,195.0,-246.0,274.0,323.0,123.0,-1.0,883.0
28.0,6.0,191.0,-343.0,218.0,295.0,108.0,4.0,894.0
26.0,1.0,194.0,-430.0,153.0,263.0,99.0,-2.0,920.0
19.0,-4.0,205.0,-500.0,80.0,236.0,87.0,-28.0,943.0
17.0,-16.0,211.0,-550.0,6.0,212.0,86.0,-59.0,980.0
17.0,-28.0,225.0,-568.0,-66.0,190.0,73.0,-96.0,1020.0
15.0,-37.0,236.0,-550.0,-131.0,176.0,75.0,-136.0,1058.0
14.0,-51.0,238.0,-497.0,-186.0,166.0,73.0,-179.0,1084.0
14.0,-60.0,248.0,-422.0,-237.0,162.0,70.0,-214.0,1119.0
16.0,-65.0,251.0,-326.0,-283.0,160.0,75.0,-235.0,1126.0
23.0,-66.0,245.0,-227.0,-321.0,162.0,91.0,-247.0,1121.0
23.0,-66.0,247.0,-131.0,-362.0,164.0,101.0,-256.0,1111.0
24.0,-64.0,239.0,-50.0,-401.0,160.0,102.0,-257.0,1093.0
30.0,-67.0,233.0,7.0,-441.0,155.0,117.0,-251.0,1062.0
35.0,-63.0,225.0,40.0,-482.0,144.0,139.0,-235.0,1053.0
35.0,-57.0,226.0,57.0,-515.0,133.0,128.0,-209.0,1041.0
34.0,-52.0,221.0,59.0,-540.0,132.0,140.0,-200.0,1021.0
36.0,-44.0,220.0,49.0,-555.0,132.0,154.0,-188.0,1011.0
42.0,-44.0,214.0,29.0,-561.0,130.0,161.0,-183.0,995.0
42.0,-40.0,212.0,0.0,-555.0,129.0,167.0,-155.0,993.0
43.0,-41.0,211.0,-26.0,-536.0,126.0,168.0,-148.0,984.0
40.0,-34.0,213.0,-50.0,-509.0,130.0,152.0,-147.0,984.0
42.0,-36.0,212.0,-78.0,-474.0,131.0,158.0,-151.0,984.0
42.0,-40.0,211.0,-107.0,-437.0,135.0,157.0,-162.0,989.0
38.0,-40.0,230.0,-126.0,-394.0,138.0,149.0,-163.0,1003.0
41.0,-43.0,221.0,-134.0,-348.0,143.0,164.0,-179.0,1014.0
45.0,-46.0,223.0,-130.0,-299.0,150.0,159.0,-182.0,1021.0
45.0,-48.0,221.0,-111.0,-250.0,152.0,171.0,-188.0,1026.0
46.0,-48.0,222.0,-81.0,-200.0,151.0,176.0,-195.0,1031.0
48.0,-48.0,224.0,-44.0,-150.0,146.0,179.0,-184.0,1030.0
46.0,-46.0,219.0,-7.0,-108.0,135.0,176.0,-178.0,1027.0
46.0,-44.0,226.0,28.0,-74.0,132.0,184.0,-170.0,1028.0
47.0,-44.0,225.0,64.0,-48.0,124.0,186.0,-164.0,1025.0
46.0,-35.0,223.0,95.0,-27.0,118.0,181.0,-148.0,1024.0
50.0,-28.0,218.0,119.0,-11.0,110.0,187.0,-130.0,1013.0
50.0,-28.0,221.0,132.0,-4.0,108.0,186.0,-118.0,1011.0
49.0,-26.0,217.0,136.0,-4.0,107.0,193.0,-95.0,1002.0
48.0,-23.0,217.0,132.0,-8.0,108.0,185.0,-85.0,998.0
47.0,-19.0,213.0,121.0,-10.0,110.0,193.0,-80.0,999.0
50.0,-21.0,213.0,104.0,-15.0,109.0,195.0,-82.0,993.0
49.0,-19.0,216.0,82.0,-19.0,108.0,199.0,-77.0,1003.0
50.0,-17.0,218.0,63.0,-25.0,110.0,211.0,-80.0,1001.0
53.0,-23.0,218.0,45.0,-33.0,106.0,216.0,-89.0,1006.0
54.0,-25.0,221.0,26.0,-46.0,102.0,222.0,-94.0,1021.0
56.0,-26.0,218.0,14.0,-56.0,91.0,227.0,-105.0,1018.0
56.0,-27.0,222.0,3.0,-69.0,80.0,226.0,-114.0,1021.0
52.0,-25.0,223.0,-7.0,-84.0,65.0,231.0,-113.0,1018.0
58.0,-24.0,221.0,-15.0,-101.0,49.0,231.0,-106.0,1024.0
58.0,-24.0,218.0,-23.0,-118.0,32.0,232.0,-110.0,1027.0
58.0,-27.0,221.0,-31.0,-137.0,17.0,233.0,-111.0,1021.0
59.0,-28.0,219.0,-37.0,-155.0,0.0,231.0,-109.0,1020.0
55.0,-25.0,222.0,-37.0,-174.0,-16.0,226.0,-100.0,1016.0
57.0,-25.0,213.0,-36.0,-194.0,-31.0,224.0,-101.0,1017.0
52.0,-24.0,220.0,-31.0,-214.0,-46.0,219.0,-99.0,1012.0
51.0,-24.0,217.0,-25.0,-233.0,-59.0,225.0,-95.0,1003.0
53.0,-22.0,219.0,-17.0,-251.0,-71.0,219.0,-93.0,1004.0
57.0,-23.0,213.0,-8.0,-264.0,-82.0,214.0,-94.0,997.0
53.0,-22.0,214.0,-2.0,-272.0,-86.0,209.0,-96.0,987.0
53.0,-25.0,214.0,-6.0,-273.0,-91.0,217.0,-100.0,986.0
55.0,-22.0,218.0,-16.0,-267.0,-89.0,227.0,-93.0,992.0
59.0,-27.0,217.0,-28.0,-258.0,-88.0,229.0,-106.0,1003.0
57.0,-29.0,215.0,-41.0,-242.0,-84.0,232.0,-117.0,998.0
62.0,-29.0,221.0,-53.0,-225.0,-81.0,243.0,-121.0,1000.0
61.0,-30.0,217.0,-60.0,-203.0,-76.0,247.0,-124.0,1005.0
64.0,-31.0,217.0,-67.0,-179.0,-73.0,255.0,-123.0,1006.0
66.0,-31.0,224.0,-68.0,-156.0,-68.0,256.0,-123.0,1021.0
67.0,-33.0,222.0,-58.0,-135.0,-65.0,264.0,-132.0,1021.0
68.0,-34.0,223.0,-45.0,-117.0,-60.0,275.0,-132.0,1012.0
72.0,-35.0,220.0,-32.0,-98.0,-57.0,281.0,-134.0,1019.0
74.0,-36.0,219.0,-17.0,-72.0,-56.0,286.0,-135.0,1015.0
77.0,-32.0,224.0,2.0,-46.0,-60.0,296.0,-128.0,1010.0
76.0,-34.0,215.0,16.0,-18.0,-66.0,299.0,-129.0,1002.0
80.0,-29.0,213.0,29.0,12.0,-70.0,306.0,-124.0,990.0
83.0,-31.0,214.0,36.0,45.0,-78.0,312.0,-122.0,987.0
80.0,-30.0,211.0,38.0,79.0,-86.0,314.0,-121.0,980.0
83.0,-30.0,210.0,37.0,110.0,-91.0,328.0,-119.0,979.0
88.0,-26.0,212.0,33.0,141.0,-100.0,328.0,-115.0,979.0
87.0,-24.0,215.0,23.0,174.0,-105.0,333.0,-111.0,986.0
87.0,-25.0,210.0,10.0,204.0,-114.0,344.0,-110.0,983.0
92.0,-26.0,209.0,-5.0,235.0,-123.0,345.0,-111.0,979.0
93.0,-26.0,208.0,-20.0,263.0,-132.0,358.0,-101.0,973.0
95.0,-24.0,208.0,-35.0,289.0,-141.0,368.0,-104.0,973.0
98.0,-28.0,209.0,-48.0,310.0,-151.0,375.0,-114.0,974.0
100.0,-29.0,209.0,-57.0,331.0,-159.0,382.0,-120.0,961.0
101.0,-30.0,208.0,-65.0,349.0,-166.0,392.0,-123.0,961.0
107.0,-32.0,208.0,-73.0,366.0,-173.0,397.0,-133.0,954.0
103.0,-37.0,201.0,-82.0,384.0,-176.0,399.0,-149.0,952.0
103.0,-42.0,207.0,-90.0,405.0,-176.0,395.0,-165.0,946.0
104.0,-51.0,210.0,-89.0,429.0,-172.0,392.0,-180.0,957.0
103.0,-48.0,217.0,-81.0,452.0,-164.0,378.0,-191.0,962.0
99.0,-55.0,205.0,-67.0,469.0,-155.0,373.0,-209.0,962.0
92.0,-57.0,209.0,-49.0,480.0,-145.0,358.0,-218.0,960.0
92.0,-56.0,210.0,-33.0,485.0,-130.0,357.0,-219.0,970.0
96.0,-55.0,210.0,-14.0,487.0,-119.0,371.0,-214.0,977.0
95.0,-53.0,209.0,0.0,487.0,-111.0,365.0,-204.0,959.0
89.0,-49.0,207.0,0.0,493.0,-111.0,353.0,-196.0,957.0
90.0,-49.0,206.0,-13.0,498.0,-118.0,346.0,-186.0,955.0
87.0,-46.0,211.0,-32.0,508.0,-130.0,342.0,-171.0,960.0
86.0,-39.0,213.0,-47.0,525.0,-140.0,331.0,-153.0,967.0
78.0,-34.0,209.0,-60.0,544.0,-147.0,318.0,-150.0,980.0
75.0,-32.0,211.0,-72.0,561.0,-153.0,293.0,-142.0,994.0
67.0,-33.0,219.0,-81.0,571.0,-157.0,275.0,-146.0,997.0
60.0,-35.0,218.0,-87.0,573.0,-160.0,246.0,-140.0,1006.0
56.0,-34.0,221.0,-94.0,574.0,-159.0,227.0,-137.0,1012.0
52.0,-31.0,220.0,-102.0,569.0,-152.0,217.0,-129.0,1014.0
50.0,-31.0,217.0,-106.0,567.0,-146.0,200.0,-123.0,1006.0
45.0,-30.0,214.0,-119.0,567.0,-140.0,192.0,-126.0,1002.0
39.0,-30.0,223.0,-138.0,566.0,-129.0,159.0,-127.0,1011.0
37.0,-34.0,220.0,-151.0,567.0,-114.0,144.0,-134.0,1015.0
29.0,-38.0,219.0,-163.0,572.0,-98.0,131.0,-146.0,1011.0
31.0,-40.0,219.0,-175.0,581.0,-86.0,124.0,-152.0,1020.0
30.0,-44.0,221.0,-185.0,590.0,-77.0,108.0,-169.0,1022.0
21.0,-46.0,220.0,-193.0,599.0,-69.0,98.0,-190.0,1026.0
22.0,-51.0,224.0,-206.0,602.0,-66.0,96.0,-199.0,1030.0
20.0,-52.0,231.0,-208.0,600.0,-69.0,89.0,-205.0,1045.0
20.0,-55.0,230.0,-197.0,588.0,-81.0,75.0,-206.0,1040.0
16.0,-56.0,226.0,-187.0,569.0,-93.0,71.0,-214.0,1035.0
9.0,-53.0,220.0,-189.0,541.0,-104.0,49.0,-216.0,1028.0
4.0,-54.0,221.0,-204.0,503.0,-114.0,37.0,-204.0,1020.0
1.0,-52.0,222.0,-220.0,460.0,-124.0,24.0,-197.0,1025.0
-5.0,-48.0,220.0,-238.0,413.0,-132.0,-3.0,-194.0,1017.0
-11.0,-57.0,222.0,-261.0,366.0,-132.0,-25.0,-208.0,1003.0
-15.0,-52.0,218.0,-289.0,323.0,-127.0,-44.0,-214.0,1007.0
-21.0,-55.0,215.0,-310.0,284.0,-118.0,-62.0,-228.0,1002.0
-18.0,-62.0,218.0,-325.0,252.0,-101.0,-71.0,-239.0,1007.0
-16.0,-65.0,221.0,-331.0,229.0,-83.0,-63.0,-252.0,1014.0
-14.0,-67.0,220.0,-324.0,214.0,-72.0,-52.0,-261.0,1018.0
-11.0,-69.0,220.0,-301.0,210.0,-64.0,-46.0,-265.0,1027.0
-3.0,-68.0,225.0,-270.0,219.0,-56.0,-27.0,-264.0,1030.0
-2.0,-67.0,221.0,-232.0,237.0,-52.0,-5.0,-254.0,1037.0
8.0,-63.0,225.0,-192.0,268.0,-52.0,28.0,-242.0,1034.0
19.0,-59.0,223.0,-152.0,308.0,-52.0,60.0,-229.0,1031.0
21.0,-55.0,224.0,-114.0,352.0,-55.0,86.0,-206.0,1028.0
28.0,-48.0,223.0,-83.0,398.0,-62.0,105.0,-189.0,1028.0
32.0,-41.0,222.0,-59.0,438.0,-71.0,122.0,-163.0,1022.0
35.0,-33.0,221.0,-39.0,472.0,-77.0,137.0,-141.0,1016.0
36.0,-30.0,217.0,-26.0,498.0,-87.0,139.0,-124.0,1015.0
36.0,-24.0,223.0,-21.0,514.0,-94.0,143.0,-99.0,1013.0
36.0,-21.0,219.0,-19.0,522.0,-98.0,138.0,-83.0,1020.0
30.0,-17.0,222.0,-24.0,523.0,-100.0,126.0,-73.0,1016.0
30.0,-13.0,223.0,-32.0,519.0,-97.0,112.0,-64.0,1020.0
23.0,-11.0,223.0,-42.0,511.0,-90.0,103.0,-61.0,1023.0
20.0,-14.0,224.0,-55.0,500.0,-82.0,102.0,-65.0,1025.0
21.0,-18.0,228.0,-64.0,490.0,-73.0,91.0,-73.0,1037.0
17.0,-19.0,227.0,-73.0,482.0,-64.0,82.0,-78.0,1041.0
15.0,-24.0,223.0,-79.0,471.0,-57.0,62.0,-97.0,1025.0
10.0,-25.0,223.0,-80.0,457.0,-53.0,47.0,-109.0,1034.0
5.0,-28.0,228.0,-79.0,435.0,-50.0,28.0,-123.0,1041.0
4.0,-28.0,225.0,-74.0,406.0,-51.0,24.0,-130.0,1039.0
1.0,-33.0,223.0,-74.0,378.0,-53.0,17.0,-133.0,1027.0
2.0,-35.0,222.0,-75.0,349.0,-53.0,16.0,-146.0,1023.0
4.0,-45.0,222.0,-81.0,326.0,-53.0,14.0,-157.0,1025.0
-4.0,-43.0,225.0,-90.0,310.0,-60.0,-8.0,-172.0,1027.0
-10.0,-45.0,222.0,-103.0,290.0,-67.0,-29.0,-180.0,1035.0
-17.0,-51.0,223.0,-110.0,265.0,-75.0,-52.0,-187.0,1035.0
-16.0,-50.0,224.0,-117.0,235.0,-80.0,-63.0,-194.0,1031.0
-19.0,-50.0,222.0,-122.0,201.0,-83.0,-77.0,-201.0,1025.0
-23.0,-50.0,222.0,-127.0,167.0,-83.0,-84.0,-198.0,1020.0
-23.0,-52.0,220.0,-131.0,133.0,-81.0,-93.0,-204.0,1022.0
-30.0,-53.0,227.0,-134.0,101.0,-75.0,-97.0,-208.0,1022.0
-27.0,-56.0,220.0,-135.0,75.0,-65.0,-101.0,-221.0,1019.0
-29.0,-57.0,223.0,-135.0,49.0,-53.0,-107.0,-224.0,1025.0
-26.0,-58.0,221.0,-127.0,30.0,-38.0,-92.0,-227.0,1023.0
-23.0,-59.0,224.0,-114.0,14.0,-25.0,-90.0,-238.0,1027.0
-19.0,-63.0,224.0,-95.0,3.0,-15.0,-79.0,-239.0,1027.0
-18.0,-61.0,220.0,-68.0,-1.0,-6.0,-69.0,-243.0,1026.0
-15.0,-59.0,222.0,-41.0,-1.0,-4.0,-61.0,-232.0,1024.0
-16.0,-56.0,220.0,-15.0,4.0,-4.0,-52.0,-223.0,1019.0
-10.0,-55.0,218.0,5.0,9.0,-5.0,-35.0,-219.0,1018.0
-8.0,-53.0,220.0,16.0,13.0,-10.0,-24.0,-202.0,1018.0
-9.0,-46.0,220.0,23.0,22.0,-13.0,-27.0,-192.0,1023.0
-9.0,-46.0,221.0,25.0,26.0,-16.0,-23.0,-182.0,1018.0
-5.0,-44.0,220.0,22.0,27.0,-22.0,-17.0,-177.0,1027.0
-6.0,-44.0,219.0,17.0,27.0,-24.0,-13.0,-168.0,1027.0
-4.0,-46.0,221.0,8.0,28.0,-28.0,-8.0,-171.0,1022.0
-1.0,-44.0,224.0,-2.0,30.0,-31.0,-5.0,-174.0,1022.0
-7.0,-47.0,220.0,-11.0,27.0,-33.0,-7.0,-174.0,1031.0
2.0,-44.0,206.0,-16.0,16.0,-32.0,17.0,-180.0,1032.0
3.0,-46.0,223.0,-22.0,6.0,-34.0,13.0,-174.0,1024.0
2.0,-43.0,221.0,-25.0,-1.0,-34.0,17.0,-175.0,1027.0
4.0,-45.0,221.0,-33.0,-10.0,-35.0,17.0,-176.0,1025.0
2.0,-43.0,223.0,-41.0,-24.0,-34.0,22.0,-173.0,1025.0
4.0,-44.0,218.0,-49.0,-38.0,-31.0,16.0,-171.0,1017.0
4.0,-47.0,218.0,-57.0,-51.0,-29.0,18.0,-176.0,1021.0
5.0,-45.0,219.0,-65.0,-63.0,-25.0,22.0,-172.0,1024.0
9.0,-48.0,219.0,-74.0,-73.0,-20.0,25.0,-179.0,1021.0
8.0,-45.0,219.0,-80.0,-79.0,-18.0,24.0,-182.0,1020.0
8.0,-49.0,217.0,-83.0,-84.0,-14.0,28.0,-176.0,1029.0
6.0,-44.0,224.0,-83.0,-85.0,-11.0,34.0,-176.0,1028.0
6.0,-47.0,223.0,-79.0,-85.0,-7.0,39.0,-182.0,1033.0
10.0,-49.0,226.0,-73.0,-81.0,-5.0,39.0,-186.0,1025.0
13.0,-45.0,224.0,-69.0,-77.0,-2.0,46.0,-183.0,1028.0
12.0,-45.0,222.0,-61.0,-73.0,0.0,50.0,-178.0,1032.0
11.0,-48.0,220.0,-54.0,-70.0,1.0,44.0,-176.0,1026.0
16.0,-44.0,222.0,-47.0,-66.0,4.0,55.0,-175.0,1027.0
13.0,-39.0,225.0,-45.0,-63.0,7.0,59.0,-173.0,1027.0
13.0,-44.0,223.0,-43.0,-61.0,8.0,57.0,-172.0,1021.0
18.0,-42.0,219.0,-42.0,-59.0,8.0,56.0,-171.0,1025.0
15.0,-44.0,222.0,-43.0,-56.0,8.0,59.0,-166.0,1018.0
16.0,-46.0,221.0,-45.0,-57.0,9.0,66.0,-169.0,1019.0
13.0,-45.0,217.0,-47.0,-57.0,9.0,60.0,-167.0,1021.0
16.0,-41.0,223.0,-48.0,-57.0,8.0,63.0,-175.0,1025.0
15.0,-43.0,220.0,-47.0,-58.0,7.0,60.0,-168.0,1022.0
15.0,-42.0,222.0,-50.0,-57.0,8.0,64.0,-170.0,1024.0
16.0,-44.0,222.0,-50.0,-56.0,8.0,65.0,-171.0,1025.0
14.0,-43.0,218.0,-47.0,-57.0,6.0,68.0,-175.0,1028.0
15.0,-44.0,227.0,-44.0,-56.0,6.0,67.0,-174.0,1025.0
17.0,-45.0,223.0,-41.0,-55.0,5.0,71.0,-174.0,1023.0
17.0,-48.0,220.0,-38.0,-51.0,4.0,70.0,-173.0,1021.0
13.0,-44.0,220.0,-36.0,-48.0,3.0,64.0,-176.0,1028.0
16.0,-42.0,219.0,-36.0,-43.0,2.0,62.0,-170.0,1016.0
16.0,-40.0,221.0,-36.0,-39.0,4.0,70.0,-173.0,1026.0
16.0,-43.0,222.0,-35.0,-33.0,3.0,72.0,-170.0,1023.0
16.0,-42.0,224.0,-33.0,-25.0,4.0,71.0,-169.0,1027.0
19.0,-45.0,223.0,-33.0,-19.0,4.0,69.0,-172.0,1028.0
18.0,-45.0,224.0,-32.0,-14.0,6.0,75.0,-169.0,1024.0
19.0,-45.0,227.0,-33.0,-8.0,4.0,77.0,-170.0,1025.0
19.0,-45.0,223.0,-33.0,-4.0,5.0,73.0,-165.0,1025.0
18.0,-42.0,223.0,-34.0,0.0,4.0,75.0,-160.0,1027.0
15.0,-40.0,223.0,-35.0,3.0,2.0,73.0,-160.0,1026.0
14.0,-43.0,227.0,-36.0,7.0,0.0,76.0,-161.0,1026.0
18.0,-41.0,225.0,-40.0,10.0,-1.0,71.0,-155.0,1020.0
16.0,-40.0,224.0,-45.0,13.0,-2.0,79.0,-161.0,1026.0
19.0,-38.0,223.0,-53.0,18.0,-4.0,76.0,-159.0,1024.0
21.0,-37.0,223.0,-58.0,22.0,-6.0,75.0,-159.0,1023.0
15.0,-37.0,221.0,-66.0,25.0,-7.0,56.0,-158.0,1032.0
19.0,-41.0,222.0,-71.0,25.0,-6.0,77.0,-160.0,1028.0
22.0,-46.0,219.0,-77.0,27.0,-9.0,80.0,-161.0,1024.0
17.0,-44.0,218.0,-84.0,33.0,-11.0,70.0,-163.0,1026.0
19.0,-44.0,220.0,-90.0,40.0,-11.0,68.0,-161.0,1031.0
17.0,-41.0,223.0,-93.0,41.0,-10.0,67.0,-171.0,1029.0
15.0,-42.0,224.0,-94.0,42.0,-10.0,70.0,-174.0,1025.0
15.0,-46.0,223.0,-95.0,44.0,-9.0,67.0,-173.0,1027.0
14.0,-44.0,223.0,-94.0,47.0,-9.0,67.0,-171.0,1023.0
15.0,-44.0,219.0,-93.0,50.0,-8.0,66.0,-174.0,1019.0
15.0,-41.0,221.0,-91.0,53.0,-7.0,63.0,-172.0,1028.0
15.0,-42.0,224.0,-89.0,54.0,-7.0,68.0,-175.0,1027.0
16.0,-45.0,225.0,-86.0,54.0,-9.0,56.0,-174.0,1024.0
13.0,-42.0,219.0,-85.0,55.0,-7.0,55.0,-173.0,1021.0
15.0,-43.0,220.0,-82.0,55.0,-7.0,56.0,-170.0,1024.0
13.0,-45.0,219.0,-82.0,53.0,-7.0,59.0,-173.0,1024.0
10.0,-38.0,230.0,-84.0,50.0,-6.0,57.0,-173.0,1024.0
10.0,-44.0,223.0,-85.0,48.0,-5.0,49.0,-178.0,1023.0
11.0,-45.0,221.0,-85.0,45.0,-5.0,46.0,-182.0,1026.0
12.0,-45.0,227.0,-87.0,43.0,-5.0,52.0,-177.0,1027.0
9.0,-44.0,224.0,-86.0,43.0,-5.0,46.0,-180.0,1023.0
11.0,-44.0,221.0,-87.0,44.0,-5.0,52.0,-182.0,1028.0
12.0,-45.0,226.0,-84.0,44.0,-6.0,47.0,-178.0,1026.0
13.0,-46.0,221.0,-84.0,46.0,-6.0,46.0,-178.0,1024.0
9.0,-45.0,220.0,-85.0,45.0,-6.0,40.0,-180.0,1022.0
9.0,-47.0,222.0,-86.0,47.0,-7.0,41.0,-180.0,1025.0
7.0,-45.0,220.0,-86.0,48.0,-7.0,36.0,-180.0,1020.0
8.0,-49.0,223.0,-88.0,49.0,-7.0,41.0,-180.0,1022.0
6.0,-49.0,224.0,-91.0,49.0,-7.0,35.0,-185.0,1022.0
5.0,-46.0,222.0,-92.0,49.0,-9.0,32.0,-178.0,1021.0
8.0,-46.0,221.0,-92.0,49.0,-7.0,33.0,-189.0,1022.0
9.0,-48.0,220.0,-92.0,49.0,-5.0,33.0,-183.0,1023.0
6.0,-47.0,218.0,-91.0,49.0,-5.0,29.0,-186.0,1019.0
7.0,-49.0,220.0,-91.0,48.0,-5.0,29.0,-192.0,1020.0
7.0,-50.0,219.0,-91.0,47.0,-3.0,30.0,-181.0,1019.0
7.0,-48.0,223.0,-90.0,45.0,-1.0,32.0,-186.0,1022.0
4.0,-49.0,222.0,-86.0,42.0,0.0,29.0,-190.0,1019.0
3.0,-49.0,223.0,-84.0,41.0,0.0,24.0,-188.0,1021.0
5.0,-48.0,211.0,-83.0,38.0,0.0,27.0,-189.0,1023.0
8.0,-47.0,224.0,-82.0,37.0,3.0,28.0,-190.0,1024.0
6.0,-48.0,217.0,-82.0,33.0,2.0,28.0,-192.0,1021.0
5.0,-49.0,218.0,-83.0,28.0,3.0,20.0,-188.0,1024.0
4.0,-48.0,220.0,-83.0,28.0,2.0,22.0,-192.0,1017.0
7.0,-50.0,221.0,-84.0,24.0,3.0,27.0,-191.0,1022.0
6.0,-51.0,220.0,-85.0,22.0,3.0,31.0,-195.0,1021.0
5.0,-51.0,224.0,-83.0,20.0,2.0,30.0,-194.0,1021.0
5.0,-50.0,223.0,-82.0,19.0,2.0,26.0,-193.0,1021.0
2.0,-52.0,224.0,-79.0,17.0,2.0,30.0,-195.0,1022.0
1.0,-50.0,219.0,-76.0,15.0,1.0,26.0,-198.0,1022.0
7.0,-53.0,229.0,-72.0,12.0,1.0,29.0,-192.0,1027.0
6.0,-51.0,222.0,-70.0,9.0,0.0,30.0,-203.0,1014.0
10.0,-50.0,218.0,-67.0,7.0,0.0,33.0,-199.0,1022.0
8.0,-51.0,218.0,-63.0,3.0,0.0,28.0,-196.0,1020.0
7.0,-50.0,217.0,-62.0,0.0,0.0,32.0,-192.0,1019.0
6.0,-49.0,223.0,-61.0,-1.0,0.0,32.0,-195.0,1019.0
5.0,-48.0,225.0,-60.0,-5.0,-1.0,31.0,-195.0,1022.0
10.0,-51.0,218.0,-59.0,-6.0,0.0,30.0,-196.0,1024.0
8.0,-48.0,218.0,-55.0,-8.0,0.0,30.0,-193.0,1017.0
6.0,-51.0,220.0,-54.0,-10.0,0.0,35.0,-192.0,1020.0
6.0,-48.0,220.0,-53.0,-12.0,1.0,38.0,-190.0,1023.0
11.0,-51.0,220.0,-53.0,-11.0,1.0,38.0,-193.0,1024.0
10.0,-50.0,218.0,-51.0,-11.0,1.0,39.0,-191.0,1017.0
13.0,-51.0,220.0,-49.0,-11.0,1.0,39.0,-191.0,1020.0
13.0,-51.0,223.0,-49.0,-11.0,1.0,45.0,-191.0,1017.0
9.0,-50.0,222.0,-48.0,-9.0,1.0,42.0,-192.0,1023.0
11.0,-51.0,222.0,-47.0,-9.0,0.0,47.0,-186.0,1022.0
13.0,-48.0,223.0,-44.0,-8.0,-2.0,48.0,-189.0,1022.0
13.0,-47.0,222.0,-43.0,-5.0,-4.0,46.0,-180.0,1022.0
13.0,-47.0,222.0,-44.0,-2.0,-3.0,52.0,-180.0,1023.0
12.0,-47.0,221.0,-45.0,-2.0,-4.0,52.0,-181.0,1028.0
13.0,-44.0,220.0,-46.0,-2.0,-5.0,54.0,-187.0,1024.0
15.0,-51.0,222.0,-47.0,-1.0,-6.0,53.0,-181.0,1021.0
15.0,-47.0,221.0,-51.0,-1.0,-6.0,57.0,-180.0,1020.0
11.0,-45.0,224.0,-54.0,2.0,-6.0,56.0,-183.0,1021.0
