acc1_x,acc1_y,acc1_z,gyro_x,gyro_y,gyro_z,acc2_x,acc2_y,acc2_z
12.0,-256.0,-44.0,8.0,52.0,3.0,16.0,-980.0,-81.0
12.0,-253.0,-44.0,8.0,50.0,5.0,17.0,-981.0,-73.0
12.0,-253.0,-37.0,9.0,48.0,2.0,20.0,-980.0,-80.0
11.0,-254.0,-39.0,10.0,47.0,4.0,19.0,-976.0,-77.0
14.0,-254.0,-43.0,10.0,48.0,3.0,19.0,-973.0,-81.0
13.0,-257.0,-37.0,11.0,47.0,5.0,19.0,-974.0,-79.0
11.0,-250.0,-37.0,11.0,48.0,4.0,21.0,-977.0,-81.0
13.0,-253.0,-39.0,13.0,48.0,7.0,16.0,-975.0,-78.0
11.0,-254.0,-42.0,12.0,48.0,4.0,22.0,-971.0,-81.0
12.0,-254.0,-43.0,9.0,46.0,7.0,19.0,-976.0,-80.0
14.0,-256.0,-41.0,7.0,48.0,3.0,18.0,-974.0,-80.0
13.0,-256.0,-43.0,5.0,48.0,4.0,13.0,-976.0,-77.0
11.0,-254.0,-42.0,4.0,49.0,1.0,15.0,-974.0,-81.0
11.0,-251.0,-39.0,5.0,49.0,2.0,15.0,-976.0,-81.0
10.0,-256.0,-43.0,3.0,49.0,0.0,21.0,-979.0,-80.0
11.0,-254.0,-39.0,1.0,46.0,2.0,17.0,-977.0,-81.0
16.0,-257.0,-40.0,1.0,48.0,-1.0,20.0,-974.0,-81.0
11.0,-255.0,-38.0,0.0,48.0,1.0,18.0,-983.0,-73.0
13.0,-254.0,-41.0,1.0,49.0,-1.0,19.0,-975.0,-79.0
14.0,-257.0,-42.0,2.0,50.0,0.0,16.0,-993.0,-71.0
11.0,-257.0,-39.0,4.0,52.0,-4.0,19.0,-978.0,-76.0
14.0,-255.0,-36.0,6.0,53.0,-2.0,21.0,-985.0,-77.0
13.0,-255.0,-38.0,9.0,53.0,-5.0,19.0,-982.0,-76.0
13.0,-256.0,-37.0,9.0,52.0,-2.0,21.0,-983.0,-69.0
12.0,-256.0,-38.0,10.0,52.0,-4.0,21.0,-975.0,-81.0
13.0,-253.0,-36.0,10.0,54.0,-2.0,26.0,-973.0,-77.0
13.0,-254.0,-39.0,8.0,52.0,-3.0,24.0,-978.0,-78.0
13.0,-254.0,-40.0,6.0,53.0,-3.0,26.0,-974.0,-77.0
16.0,-256.0,-38.0,4.0,54.0,-7.0,20.0,-980.0,-80.0
13.0,-252.0,-41.0,4.0,57.0,-6.0,22.0,-987.0,-80.0
13.0,-256.0,-43.0,5.0,59.0,-8.0,27.0,-991.0,-77.0
15.0,-254.0,-41.0,4.0,61.0,-8.0,24.0,-981.0,-80.0
14.0,-255.0,-40.0,1.0,65.0,-11.0,22.0,-979.0,-79.0
15.0,-255.0,-39.0,1.0,66.0,-9.0,25.0,-977.0,-80.0
14.0,-252.0,-41.0,-2.0,68.0,-12.0,19.0,-985.0,-78.0
16.0,-256.0,-41.0,-4.0,67.0,-11.0,16.0,-969.0,-78.0
7.0,-251.0,-37.0,-4.0,68.0,-14.0,19.0,-974.0,-79.0
15.0,-254.0,-40.0,-3.0,71.0,-12.0,19.0,-976.0,-79.0
13.0,-254.0,-39.0,-2.0,72.0,-14.0,19.0,-977.0,-82.0
14.0,-256.0,-42.0,-4.0,73.0,-13.0,24.0,-981.0,-80.0
13.0,-253.0,-40.0,-2.0,73.0,-14.0,22.0,-986.0,-77.0
15.0,-255.0,-41.0,-1.0,74.0,-11.0,25.0,-989.0,-78.0
15.0,-255.0,-42.0,0.0,78.0,-12.0,24.0,-979.0,-80.0
13.0,-255.0,-40.0,3.0,80.0,-10.0,22.0,-982.0,-74.0
12.0,-252.0,-42.0,3.0,81.0,-11.0,22.0,-982.0,-73.0
16.0,-256.0,-37.0,4.0,81.0,-9.0,19.0,-980.0,-74.0
16.0,-255.0,-36.0,4.0,79.0,-11.0,19.0,-986.0,-71.0
14.0,-257.0,-38.0,5.0,79.0,-8.0,19.0,-976.0,-68.0
13.0,-254.0,-40.0,7.0,78.0,-9.0,17.0,-978.0,-70.0
14.0,-254.0,-35.0,8.0,78.0,-7.0,15.0,-977.0,-77.0
11.0,-254.0,-41.0,9.0,78.0,-7.0,12.0,-974.0,-75.0
9.0,-253.0,-39.0,8.0,79.0,-7.0,12.0,-974.0,-75.0
10.0,-254.0,-42.0,9.0,80.0,-7.0,12.0,-972.0,-76.0
11.0,-253.0,-39.0,8.0,80.0,-7.0,16.0,-973.0,-77.0
12.0,-252.0,-39.0,6.0,82.0,-8.0,12.0,-972.0,-72.0
10.0,-253.0,-38.0,5.0,85.0,-7.0,16.0,-974.0,-74.0
8.0,-253.0,-38.0,0.0,87.0,-8.0,8.0,-974.0,-76.0
9.0,-251.0,-35.0,-5.0,87.0,-7.0,9.0,-977.0,-77.0
9.0,-252.0,-39.0,-6.0,86.0,-5.0,12.0,-981.0,-78.0
10.0,-253.0,-37.0,-8.0,86.0,-5.0,10.0,-978.0,-66.0
9.0,-254.0,-38.0,-8.0,86.0,-3.0,10.0,-979.0,-71.0
9.0,-255.0,-39.0,-7.0,82.0,-2.0,8.0,-978.0,-68.0
11.0,-256.0,-39.0,-7.0,78.0,-4.0,7.0,-999.0,-69.0
10.0,-257.0,-38.0,-5.0,76.0,-6.0,9.0,-997.0,-67.0
7.0,-255.0,-35.0,-4.0,73.0,-9.0,2.0,-988.0,-67.0
7.0,-255.0,-36.0,-1.0,71.0,-10.0,0.0,-976.0,-66.0
7.0,-253.0,-34.0,0.0,66.0,-8.0,5.0,-977.0,-63.0
12.0,-255.0,-37.0,2.0,60.0,-7.0,18.0,-975.0,-62.0
14.0,-252.0,-42.0,6.0,58.0,-5.0,21.0,-975.0,-64.0
8.0,-253.0,-39.0,7.0,64.0,-7.0,6.0,-974.0,-66.0
10.0,-252.0,-35.0,5.0,64.0,-4.0,14.0,-973.0,-69.0
11.0,-251.0,-39.0,4.0,65.0,-1.0,16.0,-974.0,-75.0
10.0,-251.0,-38.0,4.0,65.0,0.0,11.0,-976.0,-69.0
9.0,-255.0,-40.0,2.0,63.0,-1.0,12.0,-975.0,-71.0
11.0,-254.0,-42.0,-2.0,57.0,0.0,11.0,-973.0,-69.0
10.0,-254.0,-40.0,-7.0,52.0,-2.0,7.0,-971.0,-69.0
8.0,-252.0,-36.0,-9.0,48.0,0.0,5.0,-972.0,-66.0
5.0,-253.0,-37.0,-11.0,44.0,-3.0,6.0,-972.0,-71.0
7.0,-252.0,-33.0,-13.0,43.0,-2.0,5.0,-974.0,-69.0
10.0,-252.0,-37.0,-17.0,41.0,-5.0,5.0,-975.0,-66.0
6.0,-251.0,-38.0,-20.0,39.0,-4.0,4.0,-974.0,-64.0
6.0,-253.0,-37.0,-22.0,38.0,-5.0,-3.0,-970.0,-64.0
8.0,-253.0,-38.0,-20.0,36.0,-2.0,11.0,-976.0,-68.0
16.0,-256.0,-41.0,-18.0,33.0,-2.0,26.0,-985.0,-72.0
6.0,-253.0,-38.0,-13.0,34.0,-1.0,6.0,-976.0,-65.0
10.0,-254.0,-33.0,-9.0,39.0,-2.0,-3.0,-974.0,-65.0
9.0,-253.0,-36.0,-10.0,36.0,1.0,3.0,-972.0,-69.0
8.0,-254.0,-34.0,-12.0,36.0,-2.0,3.0,-974.0,-67.0
9.0,-255.0,-40.0,-17.0,32.0,1.0,6.0,-977.0,-64.0
10.0,-255.0,-40.0,-22.0,26.0,-2.0,11.0,-975.0,-66.0
11.0,-255.0,-37.0,-23.0,23.0,1.0,15.0,-993.0,-64.0
13.0,-255.0,-40.0,-22.0,25.0,-2.0,11.0,-979.0,-72.0
9.0,-254.0,-33.0,-20.0,28.0,-1.0,10.0,-983.0,-64.0
10.0,-255.0,-38.0,-18.0,31.0,-4.0,20.0,-998.0,-67.0
14.0,-258.0,-37.0,-19.0,29.0,-4.0,24.0,-1000.0,-70.0
17.0,-257.0,-39.0,-17.0,27.0,-6.0,34.0,-999.0,-69.0
18.0,-256.0,-39.0,-13.0,30.0,-4.0,33.0,-985.0,-65.0
16.0,-257.0,-35.0,-9.0,33.0,-6.0,33.0,-996.0,-70.0
18.0,-258.0,-36.0,-4.0,37.0,-1.0,22.0,-989.0,-70.0
16.0,-253.0,-38.0,3.0,41.0,0.0,32.0,-981.0,-63.0
13.0,-253.0,-38.0,7.0,41.0,3.0,24.0,-980.0,-68.0
14.0,-253.0,-38.0,7.0,39.0,2.0,28.0,-973.0,-64.0
14.0,-253.0,-38.0,5.0,39.0,6.0,25.0,-976.0,-67.0
16.0,-255.0,-35.0,4.0,40.0,2.0,21.0,-968.0,-70.0
12.0,-254.0,-38.0,2.0,40.0,3.0,20.0,-975.0,-70.0
11.0,-251.0,-39.0,0.0,43.0,2.0,18.0,-969.0,-76.0
13.0,-252.0,-39.0,-3.0,42.0,4.0,13.0,-973.0,-72.0
11.0,-256.0,-37.0,-6.0,44.0,1.0,11.0,-973.0,-77.0
10.0,-252.0,-40.0,-6.0,45.0,4.0,14.0,-976.0,-72.0
12.0,-253.0,-35.0,-8.0,46.0,1.0,15.0,-979.0,-75.0
11.0,-253.0,-37.0,-8.0,47.0,3.0,16.0,-974.0,-71.0
11.0,-253.0,-37.0,-10.0,50.0,0.0,17.0,-986.0,-69.0
12.0,-255.0,-34.0,-11.0,52.0,2.0,18.0,-1001.0,-73.0
8.0,-258.0,-37.0,-11.0,54.0,-1.0,17.0,-981.0,-70.0
11.0,-255.0,-36.0,-10.0,55.0,1.0,17.0,-983.0,-68.0
9.0,-255.0,-38.0,-7.0,57.0,-1.0,20.0,-990.0,-65.0
12.0,-259.0,-40.0,-3.0,58.0,1.0,17.0,-984.0,-74.0
13.0,-255.0,-42.0,-3.0,60.0,0.0,21.0,-988.0,-68.0
13.0,-255.0,-35.0,2.0,61.0,3.0,19.0,-988.0,-73.0
13.0,-253.0,-38.0,2.0,61.0,0.0,17.0,-977.0,-70.0
15.0,-253.0,-38.0,0.0,60.0,2.0,16.0,-979.0,-76.0
8.0,-253.0,-37.0,-4.0,55.0,-1.0,19.0,-981.0,-71.0
13.0,-254.0,-35.0,-7.0,54.0,1.0,22.0,-972.0,-72.0
15.0,-252.0,-40.0,-9.0,52.0,-1.0,21.0,-974.0,-69.0
9.0,-250.0,-40.0,-11.0,53.0,2.0,12.0,-975.0,-70.0
9.0,-253.0,-40.0,-12.0,55.0,0.0,8.0,-976.0,-68.0
10.0,-252.0,-38.0,-13.0,54.0,4.0,8.0,-974.0,-66.0
9.0,-251.0,-34.0,-14.0,51.0,2.0,8.0,-980.0,-65.0
9.0,-252.0,-38.0,-12.0,50.0,5.0,13.0,-975.0,-65.0
10.0,-250.0,-40.0,-9.0,51.0,3.0,10.0,-974.0,-70.0
8.0,-253.0,-37.0,-5.0,51.0,7.0,13.0,-975.0,-74.0
12.0,-252.0,-38.0,-4.0,54.0,7.0,15.0,-982.0,-72.0
11.0,-256.0,-36.0,-2.0,56.0,8.0,14.0,-971.0,-78.0
11.0,-253.0,-40.0,-5.0,58.0,8.0,13.0,-974.0,-73.0
12.0,-254.0,-38.0,-6.0,57.0,9.0,14.0,-983.0,-72.0
13.0,-254.0,-40.0,-9.0,58.0,8.0,20.0,-977.0,-72.0
13.0,-255.0,-40.0,-9.0,59.0,9.0,19.0,-991.0,-75.0
13.0,-254.0,-38.0,-5.0,59.0,6.0,17.0,-984.0,-74.0
11.0,-256.0,-40.0,-2.0,60.0,7.0,18.0,-987.0,-70.0
12.0,-255.0,-39.0,-1.0,58.0,6.0,19.0,-986.0,-65.0
13.0,-256.0,-38.0,-3.0,55.0,5.0,19.0,-988.0,-70.0
13.0,-255.0,-36.0,-2.0,53.0,4.0,21.0,-986.0,-70.0
10.0,-252.0,-38.0,-2.0,53.0,5.0,21.0,-988.0,-68.0
12.0,-256.0,-40.0,0.0,52.0,4.0,19.0,-989.0,-65.0
11.0,-255.0,-35.0,2.0,50.0,4.0,22.0,-978.0,-71.0
13.0,-255.0,-41.0,3.0,49.0,3.0,13.0,-987.0,-68.0
10.0,-255.0,-34.0,4.0,49.0,3.0,16.0,-974.0,-71.0
10.0,-254.0,-35.0,5.0,50.0,3.0,11.0,-978.0,-68.0
8.0,-251.0,-40.0,6.0,50.0,4.0,14.0,-977.0,-66.0
11.0,-250.0,-41.0,6.0,51.0,5.0,15.0,-974.0,-66.0
9.0,-251.0,-40.0,5.0,53.0,6.0,16.0,-976.0,-68.0
13.0,-253.0,-36.0,4.0,54.0,8.0,11.0,-974.0,-73.0
11.0,-252.0,-39.0,2.0,56.0,8.0,15.0,-973.0,-71.0
11.0,-254.0,-40.0,-2.0,54.0,8.0,14.0,-973.0,-72.0
13.0,-255.0,-34.0,-6.0,53.0,7.0,13.0,-973.0,-73.0
11.0,-253.0,-34.0,-8.0,55.0,6.0,11.0,-978.0,-69.0
12.0,-254.0,-39.0,-10.0,55.0,6.0,11.0,-982.0,-70.0
9.0,-256.0,-40.0,-9.0,53.0,6.0,14.0,-987.0,-76.0
12.0,-255.0,-38.0,-8.0,50.0,4.0,14.0,-986.0,-72.0
10.0,-257.0,-39.0,-7.0,48.0,3.0,13.0,-978.0,-71.0
12.0,-258.0,-34.0,-5.0,47.0,3.0,12.0,-987.0,-71.0
9.0,-253.0,-35.0,-2.0,46.0,4.0,15.0,-982.0,-67.0
13.0,-255.0,-39.0,-1.0,44.0,1.0,18.0,-993.0,-66.0
14.0,-254.0,-39.0,-1.0,46.0,2.0,17.0,-982.0,-69.0
13.0,-254.0,-36.0,-1.0,46.0,1.0,21.0,-977.0,-68.0
11.0,-253.0,-37.0,-2.0,47.0,2.0,18.0,-979.0,-64.0
11.0,-254.0,-36.0,-1.0,50.0,1.0,18.0,-979.0,-61.0
13.0,-253.0,-38.0,-2.0,53.0,4.0,22.0,-981.0,-67.0
12.0,-255.0,-36.0,-2.0,54.0,2.0,20.0,-981.0,-68.0
14.0,-253.0,-36.0,-3.0,57.0,2.0,20.0,-975.0,-66.0
11.0,-252.0,-38.0,-4.0,57.0,-1.0,19.0,-974.0,-73.0
13.0,-252.0,-34.0,-5.0,57.0,0.0,17.0,-973.0,-70.0
11.0,-251.0,-40.0,-6.0,57.0,-2.0,16.0,-971.0,-71.0
12.0,-251.0,-39.0,-9.0,56.0,0.0,17.0,-972.0,-78.0
10.0,-249.0,-38.0,-13.0,53.0,-2.0,12.0,-973.0,-71.0
13.0,-253.0,-39.0,-16.0,53.0,0.0,10.0,-974.0,-73.0
12.0,-254.0,-40.0,-17.0,56.0,-3.0,19.0,-975.0,-71.0
12.0,-252.0,-39.0,-16.0,56.0,-2.0,21.0,-976.0,-69.0
13.0,-254.0,-36.0,-16.0,58.0,-5.0,18.0,-975.0,-73.0
9.0,-252.0,-39.0,-15.0,59.0,-3.0,11.0,-974.0,-69.0
10.0,-253.0,-38.0,-12.0,60.0,-5.0,11.0,-976.0,-70.0
11.0,-256.0,-38.0,-12.0,61.0,-3.0,16.0,-981.0,-68.0
11.0,-254.0,-38.0,-10.0,60.0,-6.0,16.0,-985.0,-73.0
12.0,-255.0,-37.0,-9.0,60.0,-3.0,18.0,-978.0,-78.0
11.0,-251.0,-39.0,-6.0,60.0,-5.0,15.0,-975.0,-68.0
13.0,-251.0,-37.0,-7.0,59.0,-4.0,16.0,-980.0,-70.0
11.0,-255.0,-37.0,-7.0,59.0,-7.0,15.0,-977.0,-70.0
12.0,-256.0,-40.0,-10.0,60.0,-4.0,17.0,-979.0,-68.0
12.0,-254.0,-32.0,-9.0,60.0,-6.0,16.0,-977.0,-71.0
12.0,-250.0,-33.0,-11.0,59.0,-5.0,16.0,-976.0,-68.0
13.0,-253.0,-36.0,-14.0,60.0,-6.0,22.0,-979.0,-71.0
13.0,-254.0,-40.0,-15.0,59.0,-4.0,16.0,-980.0,-75.0
10.0,-255.0,-36.0,-14.0,59.0,-6.0,14.0,-980.0,-73.0
11.0,-256.0,-38.0,-12.0,61.0,-4.0,15.0,-984.0,-71.0
11.0,-252.0,-37.0,-13.0,62.0,-6.0,14.0,-986.0,-77.0
13.0,-256.0,-38.0,-12.0,64.0,-5.0,10.0,-978.0,-66.0
13.0,-252.0,-40.0,-11.0,63.0,-7.0,20.0,-980.0,-69.0
11.0,-256.0,-38.0,-10.0,64.0,-3.0,14.0,-980.0,-67.0
12.0,-254.0,-39.0,-10.0,66.0,-6.0,16.0,-976.0,-68.0
10.0,-254.0,-39.0,-11.0,66.0,-3.0,15.0,-978.0,-74.0
11.0,-254.0,-35.0,-10.0,66.0,-5.0,15.0,-974.0,-70.0
11.0,-252.0,-38.0,-11.0,65.0,-2.0,15.0,-974.0,-74.0
9.0,-251.0,-38.0,-13.0,66.0,-4.0,14.0,-976.0,-69.0
12.0,-252.0,-41.0,-13.0,66.0,-2.0,15.0,-975.0,-71.0
12.0,-255.0,-37.0,-15.0,64.0,-2.0,13.0,-979.0,-67.0
12.0,-256.0,-41.0,-16.0,62.0,1.0,15.0,-978.0,-70.0
11.0,-252.0,-39.0,-15.0,60.0,-2.0,17.0,-977.0,-68.0
11.0,-255.0,-40.0,-14.0,59.0,0.0,18.0,-981.0,-69.0
12.0,-256.0,-40.0,-13.0,57.0,-3.0,14.0,-991.0,-69.0
12.0,-259.0,-36.0,-11.0,57.0,-2.0,18.0,-977.0,-71.0
11.0,-256.0,-39.0,-10.0,58.0,-4.0,13.0,-981.0,-72.0
10.0,-257.0,-40.0,-9.0,59.0,0.0,17.0,-993.0,-72.0
12.0,-257.0,-39.0,-9.0,59.0,-4.0,18.0,-983.0,-72.0
8.0,-250.0,-35.0,-9.0,60.0,-3.0,14.0,-978.0,-73.0
12.0,-256.0,-39.0,-11.0,60.0,-5.0,10.0,-978.0,-70.0
9.0,-254.0,-38.0,-15.0,59.0,-3.0,11.0,-991.0,-71.0
11.0,-253.0,-38.0,-16.0,57.0,-5.0,10.0,-979.0,-69.0
9.0,-255.0,-38.0,-16.0,57.0,-2.0,8.0,-974.0,-67.0
12.0,-252.0,-38.0,-17.0,58.0,-4.0,9.0,-970.0,-69.0
11.0,-253.0,-38.0,-18.0,58.0,-2.0,11.0,-977.0,-69.0
13.0,-252.0,-40.0,-16.0,58.0,-3.0,12.0,-973.0,-71.0
9.0,-252.0,-39.0,-18.0,59.0,0.0,10.0,-973.0,-70.0
10.0,-252.0,-39.0,-17.0,59.0,-2.0,12.0,-974.0,-66.0
11.0,-255.0,-43.0,-16.0,58.0,0.0,17.0,-974.0,-67.0
12.0,-256.0,-40.0,-16.0,59.0,-2.0,11.0,-982.0,-71.0
11.0,-256.0,-38.0,-17.0,58.0,0.0,10.0,-978.0,-71.0
12.0,-257.0,-37.0,-18.0,59.0,-2.0,12.0,-988.0,-72.0
12.0,-256.0,-40.0,-18.0,59.0,-1.0,10.0,-986.0,-73.0
7.0,-254.0,-38.0,-17.0,62.0,-4.0,15.0,-988.0,-69.0
13.0,-254.0,-40.0,-15.0,65.0,-5.0,15.0,-980.0,-69.0
13.0,-256.0,-35.0,-15.0,66.0,-6.0,19.0,-979.0,-71.0
13.0,-255.0,-40.0,-13.0,68.0,-4.0,19.0,-981.0,-65.0
14.0,-254.0,-39.0,-13.0,68.0,-6.0,23.0,-978.0,-69.0
14.0,-255.0,-40.0,-14.0,68.0,-4.0,19.0,-981.0,-70.0
11.0,-251.0,-38.0,-14.0,68.0,-4.0,18.0,-976.0,-65.0
12.0,-251.0,-40.0,-15.0,68.0,-3.0,20.0,-973.0,-69.0
14.0,-255.0,-36.0,-18.0,69.0,-5.0,17.0,-973.0,-68.0
12.0,-254.0,-39.0,-19.0,68.0,-5.0,20.0,-976.0,-68.0
11.0,-256.0,-38.0,-18.0,70.0,-4.0,21.0,-976.0,-64.0
11.0,-255.0,-37.0,-19.0,71.0,-4.0,15.0,-985.0,-67.0
12.0,-256.0,-37.0,-19.0,73.0,-4.0,14.0,-981.0,-67.0
12.0,-257.0,-40.0,-18.0,74.0,-3.0,18.0,-982.0,-68.0
11.0,-255.0,-38.0,-17.0,73.0,-3.0,16.0,-991.0,-69.0
9.0,-253.0,-37.0,-16.0,74.0,-3.0,17.0,-979.0,-63.0
12.0,-257.0,-34.0,-16.0,75.0,-2.0,15.0,-986.0,-65.0
3.0,-255.0,-36.0,-15.0,77.0,-3.0,13.0,-983.0,-65.0
13.0,-255.0,-45.0,-13.0,77.0,0.0,16.0,-983.0,-64.0
11.0,-256.0,-25.0,-12.0,77.0,-1.0,15.0,-980.0,-64.0
32.0,-257.0,-31.0,-12.0,78.0,0.0,15.0,-976.0,-66.0
11.0,-253.0,-37.0,-12.0,78.0,0.0,12.0,-973.0,-67.0
10.0,-253.0,-35.0,-14.0,78.0,0.0,16.0,-970.0,-72.0
9.0,-252.0,-39.0,-17.0,77.0,0.0,11.0,-976.0,-73.0
11.0,-252.0,-39.0,-19.0,77.0,1.0,14.0,-979.0,-74.0
12.0,-252.0,-38.0,-22.0,78.0,-2.0,10.0,-974.0,-71.0
12.0,-256.0,-40.0,-23.0,77.0,1.0,11.0,-985.0,-71.0
11.0,-254.0,-40.0,-22.0,77.0,0.0,17.0,-977.0,-77.0
12.0,-255.0,-38.0,-23.0,75.0,1.0,13.0,-978.0,-74.0
10.0,-253.0,-41.0,-23.0,74.0,0.0,13.0,-973.0,-74.0
13.0,-254.0,-37.0,-24.0,71.0,0.0,8.0,-981.0,-73.0
10.0,-253.0,-38.0,-25.0,69.0,-1.0,10.0,-980.0,-78.0
9.0,-253.0,-41.0,-25.0,69.0,0.0,11.0,-980.0,-70.0
11.0,-256.0,-39.0,-26.0,67.0,-1.0,10.0,-980.0,-74.0
13.0,-257.0,-40.0,-25.0,68.0,1.0,10.0,-982.0,-66.0
11.0,-255.0,-39.0,-23.0,67.0,0.0,9.0,-987.0,-73.0
10.0,-254.0,-36.0,-20.0,66.0,1.0,14.0,-983.0,-67.0
11.0,-257.0,-39.0,-16.0,67.0,-1.0,10.0,-978.0,-66.0
10.0,-254.0,-37.0,-14.0,68.0,1.0,13.0,-979.0,-72.0
10.0,-254.0,-42.0,-13.0,67.0,1.0,16.0,-978.0,-69.0
13.0,-253.0,-36.0,-11.0,68.0,2.0,14.0,-975.0,-69.0
11.0,-255.0,-43.0,-13.0,70.0,0.0,14.0,-975.0,-72.0
12.0,-256.0,-37.0,-14.0,70.0,2.0,19.0,-978.0,-69.0
11.0,-255.0,-44.0,-14.0,69.0,0.0,15.0,-978.0,-76.0
11.0,-254.0,-37.0,-16.0,70.0,3.0,15.0,-978.0,-80.0
10.0,-252.0,-38.0,-18.0,70.0,1.0,11.0,-983.0,-71.0
9.0,-254.0,-39.0,-20.0,69.0,3.0,14.0,-981.0,-73.0
12.0,-255.0,-39.0,-23.0,68.0,0.0,13.0,-976.0,-70.0
13.0,-250.0,-38.0,-24.0,67.0,2.0,16.0,-979.0,-75.0
14.0,-256.0,-41.0,-25.0,70.0,1.0,14.0,-974.0,-72.0
11.0,-256.0,-36.0,-25.0,70.0,3.0,13.0,-977.0,-70.0
9.0,-253.0,-39.0,-26.0,70.0,0.0,9.0,-976.0,-76.0
11.0,-253.0,-35.0,-25.0,72.0,4.0,11.0,-978.0,-74.0
10.0,-255.0,-36.0,-26.0,69.0,1.0,17.0,-972.0,-73.0
10.0,-254.0,-42.0,-23.0,69.0,4.0,17.0,-977.0,-73.0
10.0,-253.0,-38.0,-23.0,68.0,1.0,19.0,-984.0,-70.0
13.0,-252.0,-39.0,-21.0,69.0,2.0,13.0,-977.0,-71.0
12.0,-255.0,-37.0,-19.0,68.0,-1.0,16.0,-973.0,-69.0
12.0,-257.0,-37.0,-21.0,67.0,2.0,20.0,-978.0,-71.0
12.0,-255.0,-37.0,-22.0,68.0,-1.0,17.0,-985.0,-66.0
12.0,-256.0,-39.0,-21.0,68.0,2.0,17.0,-980.0,-71.0
12.0,-253.0,-40.0,-24.0,68.0,-1.0,15.0,-976.0,-71.0
12.0,-255.0,-40.0,-24.0,71.0,3.0,17.0,-977.0,-69.0
12.0,-255.0,-38.0,-25.0,70.0,0.0,13.0,-981.0,-67.0
12.0,-253.0,-39.0,-24.0,70.0,2.0,14.0,-975.0,-69.0
13.0,-256.0,-38.0,-25.0,71.0,0.0,19.0,-977.0,-72.0
14.0,-254.0,-35.0,-24.0,72.0,2.0,19.0,-972.0,-74.0
12.0,-256.0,-42.0,-25.0,72.0,-1.0,12.0,-972.0,-73.0
11.0,-252.0,-36.0,-25.0,72.0,3.0,17.0,-982.0,-77.0
11.0,-253.0,-42.0,-26.0,72.0,0.0,14.0,-981.0,-75.0
10.0,-255.0,-39.0,-27.0,74.0,3.0,14.0,-980.0,-70.0
9.0,-253.0,-40.0,-27.0,73.0,0.0,15.0,-976.0,-72.0
11.0,-254.0,-38.0,-26.0,73.0,2.0,10.0,-979.0,-72.0
9.0,-256.0,-38.0,-28.0,70.0,1.0,14.0,-977.0,-72.0
9.0,-255.0,-38.0,-28.0,70.0,3.0,9.0,-980.0,-69.0
8.0,-252.0,-39.0,-27.0,69.0,3.0,9.0,-981.0,-74.0
10.0,-253.0,-40.0,-27.0,68.0,3.0,10.0,-979.0,-76.0
9.0,-253.0,-40.0,-27.0,66.0,1.0,14.0,-980.0,-74.0
12.0,-256.0,-40.0,-27.0,66.0,4.0,10.0,-979.0,-73.0
9.0,-254.0,-37.0,-27.0,66.0,2.0,10.0,-974.0,-75.0
10.0,-253.0,-43.0,-27.0,64.0,3.0,12.0,-980.0,-73.0
14.0,-254.0,-38.0,-25.0,64.0,1.0,13.0,-979.0,-76.0
11.0,-254.0,-37.0,-26.0,64.0,3.0,15.0,-977.0,-73.0
10.0,-255.0,-35.0,-25.0,62.0,3.0,10.0,-978.0,-71.0
11.0,-252.0,-37.0,-27.0,59.0,4.0,19.0,-977.0,-73.0
11.0,-252.0,-38.0,-29.0,58.0,2.0,14.0,-976.0,-73.0
14.0,-252.0,-37.0,-31.0,58.0,3.0,17.0,-976.0,-74.0
10.0,-254.0,-39.0,-32.0,59.0,2.0,11.0,-979.0,-68.0
10.0,-254.0,-41.0,-33.0,58.0,5.0,14.0,-979.0,-70.0
13.0,-257.0,-38.0,-33.0,57.0,4.0,15.0,-979.0,-71.0
11.0,-254.0,-39.0,-32.0,55.0,6.0,12.0,-976.0,-68.0
12.0,-255.0,-35.0,-31.0,55.0,7.0,13.0,-984.0,-72.0
9.0,-256.0,-39.0,-28.0,56.0,8.0,11.0,-980.0,-77.0
11.0,-253.0,-39.0,-27.0,55.0,9.0,14.0,-988.0,-77.0
12.0,-254.0,-41.0,-27.0,55.0,8.0,16.0,-987.0,-71.0
11.0,-255.0,-37.0,-25.0,55.0,7.0,18.0,-978.0,-79.0
12.0,-254.0,-41.0,-24.0,56.0,8.0,15.0,-975.0,-70.0
13.0,-255.0,-35.0,-26.0,57.0,8.0,17.0,-971.0,-68.0
11.0,-254.0,-33.0,-24.0,58.0,8.0,12.0,-976.0,-70.0
9.0,-254.0,-41.0,-23.0,58.0,7.0,11.0,-977.0,-71.0
9.0,-251.0,-41.0,-21.0,57.0,6.0,16.0,-986.0,-74.0
10.0,-254.0,-37.0,-20.0,57.0,6.0,16.0,-975.0,-75.0
10.0,-257.0,-39.0,-19.0,58.0,5.0,18.0,-975.0,-71.0
12.0,-252.0,-34.0,-19.0,58.0,4.0,13.0,-976.0,-68.0
9.0,-254.0,-35.0,-17.0,59.0,4.0,12.0,-979.0,-69.0
11.0,-253.0,-40.0,-16.0,60.0,2.0,11.0,-987.0,-66.0
11.0,-254.0,-41.0,-13.0,59.0,2.0,18.0,-983.0,-69.0
11.0,-254.0,-34.0,-11.0,59.0,3.0,15.0,-977.0,-72.0
11.0,-254.0,-37.0,-10.0,60.0,1.0,15.0,-979.0,-68.0
8.0,-252.0,-41.0,-9.0,57.0,2.0,17.0,-974.0,-70.0
11.0,-251.0,-37.0,-10.0,57.0,0.0,17.0,-972.0,-75.0
10.0,-251.0,-36.0,-13.0,58.0,0.0,16.0,-975.0,-77.0
10.0,-251.0,-38.0,-14.0,58.0,1.0,11.0,-974.0,-72.0
9.0,-253.0,-39.0,-16.0,57.0,1.0,15.0,-974.0,-70.0
11.0,-252.0,-40.0,-19.0,57.0,0.0,12.0,-974.0,-71.0
10.0,-252.0,-42.0,-19.0,56.0,1.0,12.0,-973.0,-72.0
9.0,-252.0,-38.0,-16.0,55.0,-1.0,13.0,-973.0,-66.0
12.0,-255.0,-40.0,-16.0,57.0,0.0,8.0,-975.0,-73.0
12.0,-253.0,-38.0,-16.0,57.0,-1.0,14.0,-975.0,-73.0
11.0,-254.0,-36.0,-15.0,56.0,1.0,11.0,-977.0,-74.0
10.0,-253.0,-40.0,-14.0,56.0,1.0,13.0,-977.0,-71.0
10.0,-253.0,-40.0,-14.0,57.0,1.0,17.0,-977.0,-68.0
11.0,-254.0,-36.0,-16.0,56.0,1.0,16.0,-973.0,-70.0
10.0,-253.0,-36.0,-14.0,55.0,4.0,13.0,-977.0,-70.0
12.0,-257.0,-39.0,-13.0,55.0,1.0,13.0,-972.0,-72.0
12.0,-256.0,-38.0,-12.0,54.0,4.0,14.0,-980.0,-72.0
13.0,-255.0,-36.0,-12.0,53.0,2.0,17.0,-987.0,-74.0
8.0,-253.0,-38.0,-11.0,52.0,3.0,10.0,-986.0,-75.0
11.0,-257.0,-40.0,-8.0,50.0,1.0,16.0,-988.0,-75.0
8.0,-256.0,-41.0,-7.0,50.0,4.0,10.0,-991.0,-75.0
10.0,-254.0,-38.0,-5.0,50.0,2.0,11.0,-986.0,-69.0
10.0,-257.0,-36.0,-6.0,49.0,3.0,14.0,-988.0,-76.0
10.0,-255.0,-41.0,-6.0,47.0,0.0,13.0,-983.0,-68.0
11.0,-254.0,-38.0,-6.0,48.0,2.0,10.0,-987.0,-69.0
11.0,-258.0,-39.0,-5.0,48.0,1.0,14.0,-978.0,-66.0
11.0,-254.0,-36.0,-3.0,51.0,4.0,14.0,-988.0,-70.0
11.0,-253.0,-40.0,-2.0,54.0,0.0,13.0,-976.0,-67.0
12.0,-253.0,-35.0,-1.0,55.0,3.0,18.0,-974.0,-68.0
9.0,-253.0,-41.0,1.0,57.0,1.0,14.0,-977.0,-71.0
13.0,-254.0,-36.0,2.0,59.0,2.0,15.0,-974.0,-68.0
13.0,-253.0,-37.0,1.0,58.0,1.0,18.0,-977.0,-71.0
10.0,-252.0,-36.0,1.0,59.0,3.0,12.0,-979.0,-73.0
12.0,-254.0,-37.0,0.0,59.0,0.0,11.0,-976.0,-69.0
10.0,-253.0,-38.0,-1.0,58.0,2.0,13.0,-984.0,-68.0
10.0,-256.0,-38.0,-1.0,56.0,0.0,11.0,-985.0,-67.0
12.0,-253.0,-36.0,-2.0,55.0,3.0,11.0,-977.0,-68.0
10.0,-254.0,-37.0,-4.0,54.0,2.0,10.0,-980.0,-66.0
11.0,-253.0,-35.0,-4.0,53.0,4.0,12.0,-985.0,-69.0
9.0,-255.0,-34.0,-4.0,52.0,1.0,11.0,-973.0,-68.0
11.0,-256.0,-41.0,-3.0,52.0,3.0,9.0,-972.0,-67.0
12.0,-256.0,-38.0,-3.0,51.0,1.0,11.0,-973.0,-68.0
10.0,-255.0,-37.0,-3.0,53.0,2.0,11.0,-973.0,-76.0
10.0,-253.0,-38.0,-2.0,55.0,0.0,12.0,-975.0,-71.0
10.0,-253.0,-39.0,-2.0,54.0,2.0,10.0,-974.0,-71.0
11.0,-253.0,-36.0,-2.0,54.0,0.0,11.0,-976.0,-73.0
9.0,-254.0,-36.0,-1.0,54.0,2.0,13.0,-981.0,-70.0
10.0,-253.0,-41.0,0.0,54.0,0.0,15.0,-976.0,-72.0
12.0,-254.0,-39.0,-2.0,51.0,1.0,12.0,-979.0,-69.0
11.0,-254.0,-37.0,-3.0,52.0,0.0,15.0,-976.0,-71.0
10.0,-254.0,-35.0,-6.0,51.0,2.0,17.0,-981.0,-67.0
9.0,-255.0,-37.0,-7.0,55.0,0.0,11.0,-985.0,-67.0
9.0,-255.0,-36.0,-7.0,54.0,3.0,16.0,-984.0,-65.0
11.0,-255.0,-33.0,-7.0,56.0,1.0,12.0,-987.0,-61.0
13.0,-257.0,-34.0,-6.0,56.0,3.0,15.0,-995.0,-62.0
13.0,-257.0,-39.0,-2.0,56.0,0.0,14.0,-995.0,-65.0
9.0,-258.0,-38.0,2.0,55.0,1.0,13.0,-995.0,-67.0
7.0,-256.0,-32.0,3.0,54.0,-1.0,9.0,-990.0,-65.0
9.0,-253.0,-34.0,5.0,55.0,-1.0,12.0,-985.0,-69.0
12.0,-256.0,-39.0,5.0,53.0,-3.0,11.0,-985.0,-66.0
8.0,-253.0,-40.0,4.0,53.0,-2.0,11.0,-975.0,-73.0
14.0,-254.0,-40.0,1.0,52.0,-4.0,9.0,-979.0,-74.0
10.0,-256.0,-37.0,-1.0,50.0,-1.0,12.0,-974.0,-70.0
13.0,-252.0,-40.0,-3.0,50.0,-3.0,9.0,-977.0,-74.0
11.0,-255.0,-41.0,-4.0,50.0,-1.0,12.0,-979.0,-74.0
10.0,-255.0,-40.0,-5.0,49.0,-2.0,11.0,-985.0,-68.0
10.0,-255.0,-36.0,-5.0,50.0,-1.0,12.0,-978.0,-71.0
11.0,-254.0,-38.0,-6.0,51.0,-1.0,10.0,-976.0,-70.0
12.0,-256.0,-40.0,-7.0,49.0,-1.0,8.0,-974.0,-69.0
9.0,-255.0,-35.0,-5.0,50.0,-1.0,15.0,-977.0,-68.0
11.0,-255.0,-32.0,-5.0,51.0,1.0,12.0,-986.0,-71.0
9.0,-255.0,-38.0,-2.0,51.0,0.0,11.0,-979.0,-67.0
8.0,-256.0,-38.0,0.0,52.0,3.0,9.0,-975.0,-68.0
10.0,-253.0,-36.0,1.0,51.0,2.0,9.0,-979.0,-71.0
10.0,-255.0,-37.0,4.0,50.0,3.0,15.0,-977.0,-74.0
10.0,-256.0,-37.0,4.0,50.0,2.0,8.0,-977.0,-69.0
9.0,-255.0,-36.0,5.0,51.0,3.0,10.0,-976.0,-69.0
11.0,-255.0,-41.0,4.0,50.0,1.0,11.0,-981.0,-77.0
13.0,-257.0,-42.0,6.0,50.0,2.0,10.0,-980.0,-80.0
9.0,-250.0,-41.0,6.0,50.0,1.0,11.0,-988.0,-73.0
7.0,-252.0,-38.0,2.0,49.0,1.0,11.0,-975.0,-72.0
9.0,-255.0,-42.0,-1.0,50.0,2.0,11.0,-973.0,-77.0
12.0,-251.0,-41.0,-1.0,50.0,2.0,20.0,-977.0,-73.0
13.0,-254.0,-38.0,-1.0,51.0,1.0,20.0,-978.0,-79.0
8.0,-253.0,-36.0,-2.0,55.0,1.0,9.0,-973.0,-73.0
7.0,-253.0,-36.0,-6.0,60.0,0.0,3.0,-972.0,-74.0
10.0,-253.0,-40.0,-6.0,56.0,0.0,3.0,-975.0,-78.0
7.0,-253.0,-38.0,-7.0,54.0,-1.0,7.0,-978.0,-71.0
9.0,-256.0,-39.0,-7.0,52.0,-1.0,8.0,-978.0,-75.0
10.0,-253.0,-35.0,-8.0,52.0,0.0,7.0,-976.0,-76.0
9.0,-256.0,-39.0,-6.0,52.0,2.0,15.0,-985.0,-81.0
9.0,-253.0,-40.0,-3.0,53.0,3.0,6.0,-974.0,-80.0
9.0,-255.0,-39.0,-2.0,55.0,3.0,7.0,-984.0,-82.0
9.0,-254.0,-41.0,-2.0,56.0,5.0,13.0,-980.0,-79.0
11.0,-251.0,-40.0,-3.0,56.0,4.0,12.0,-977.0,-80.0
11.0,-254.0,-39.0,-4.0,56.0,5.0,13.0,-973.0,-80.0
12.0,-256.0,-40.0,-6.0,59.0,5.0,10.0,-979.0,-82.0
10.0,-254.0,-40.0,-8.0,61.0,6.0,12.0,-982.0,-85.0
10.0,-254.0,-45.0,-11.0,60.0,5.0,9.0,-986.0,-85.0
12.0,-255.0,-40.0,-12.0,61.0,7.0,10.0,-976.0,-85.0
10.0,-255.0,-41.0,-11.0,60.0,6.0,13.0,-987.0,-81.0
11.0,-255.0,-41.0,-10.0,61.0,7.0,13.0,-986.0,-87.0
11.0,-254.0,-43.0,-9.0,62.0,6.0,10.0,-978.0,-78.0
10.0,-252.0,-42.0,-11.0,61.0,9.0,14.0,-976.0,-82.0
12.0,-256.0,-40.0,-9.0,60.0,6.0,14.0,-976.0,-82.0
10.0,-256.0,-43.0,-9.0,61.0,7.0,11.0,-971.0,-78.0
10.0,-253.0,-42.0,-8.0,62.0,7.0,12.0,-985.0,-76.0
11.0,-251.0,-41.0,-7.0,64.0,8.0,11.0,-979.0,-81.0
12.0,-253.0,-38.0,-6.0,65.0,9.0,12.0,-977.0,-82.0
9.0,-254.0,-40.0,-5.0,64.0,12.0,10.0,-979.0,-81.0
11.0,-255.0,-43.0,-4.0,64.0,9.0,12.0,-975.0,-81.0
13.0,-254.0,-40.0,-3.0,64.0,12.0,12.0,-978.0,-82.0
12.0,-252.0,-40.0,-4.0,65.0,10.0,19.0,-972.0,-82.0
16.0,-252.0,-40.0,-3.0,67.0,12.0,20.0,-974.0,-88.0
17.0,-253.0,-45.0,-2.0,67.0,12.0,31.0,-972.0,-90.0
14.0,-252.0,-43.0,-4.0,71.0,15.0,19.0,-971.0,-89.0
4.0,-250.0,-42.0,-11.0,78.0,11.0,1.0,-970.0,-88.0
6.0,-252.0,-42.0,-22.0,71.0,14.0,1.0,-972.0,-86.0
8.0,-253.0,-41.0,-30.0,63.0,9.0,4.0,-975.0,-83.0
8.0,-255.0,-39.0,-38.0,55.0,11.0,8.0,-977.0,-73.0
11.0,-252.0,-40.0,-38.0,48.0,10.0,4.0,-974.0,-79.0
8.0,-253.0,-40.0,-36.0,45.0,13.0,9.0,-977.0,-80.0
9.0,-251.0,-42.0,-33.0,45.0,10.0,3.0,-972.0,-81.0
6.0,-254.0,-42.0,-30.0,46.0,13.0,5.0,-974.0,-85.0
8.0,-254.0,-41.0,-30.0,51.0,10.0,0.0,-970.0,-82.0
9.0,-253.0,-41.0,-32.0,48.0,14.0,5.0,-966.0,-86.0
8.0,-249.0,-41.0,-36.0,48.0,14.0,-1.0,-969.0,-82.0
13.0,-254.0,-42.0,-39.0,46.0,16.0,7.0,-973.0,-83.0
11.0,-253.0,-39.0,-42.0,46.0,14.0,12.0,-971.0,-86.0
12.0,-253.0,-41.0,-42.0,48.0,17.0,9.0,-974.0,-85.0
9.0,-255.0,-42.0,-43.0,49.0,16.0,16.0,-974.0,-88.0
10.0,-255.0,-43.0,-42.0,52.0,19.0,15.0,-975.0,-87.0
11.0,-255.0,-40.0,-44.0,52.0,16.0,13.0,-978.0,-95.0
10.0,-252.0,-44.0,-46.0,53.0,18.0,12.0,-989.0,-92.0
10.0,-257.0,-41.0,-48.0,56.0,16.0,10.0,-983.0,-93.0
12.0,-256.0,-45.0,-49.0,56.0,19.0,11.0,-980.0,-91.0
12.0,-258.0,-43.0,-50.0,57.0,17.0,14.0,-982.0,-92.0
13.0,-257.0,-40.0,-52.0,56.0,20.0,20.0,-984.0,-84.0
17.0,-254.0,-42.0,-50.0,56.0,19.0,33.0,-978.0,-92.0
12.0,-253.0,-42.0,-46.0,64.0,21.0,21.0,-974.0,-90.0
20.0,-253.0,-44.0,-43.0,72.0,18.0,43.0,-977.0,-95.0
8.0,-254.0,-45.0,-42.0,75.0,19.0,9.0,-972.0,-96.0
4.0,-249.0,-42.0,-47.0,84.0,14.0,-11.0,-967.0,-88.0
8.0,-254.0,-45.0,-56.0,76.0,19.0,-5.0,-965.0,-92.0
9.0,-250.0,-42.0,-65.0,65.0,19.0,7.0,-969.0,-83.0
11.0,-251.0,-40.0,-68.0,54.0,21.0,11.0,-970.0,-85.0
12.0,-252.0,-40.0,-69.0,51.0,22.0,12.0,-966.0,-82.0
10.0,-249.0,-43.0,-67.0,54.0,23.0,4.0,-965.0,-83.0
7.0,-252.0,-44.0,-66.0,54.0,22.0,1.0,-967.0,-87.0
6.0,-252.0,-44.0,-65.0,57.0,24.0,4.0,-969.0,-85.0
8.0,-249.0,-44.0,-67.0,57.0,24.0,8.0,-967.0,-89.0
9.0,-250.0,-46.0,-68.0,58.0,26.0,8.0,-963.0,-90.0
13.0,-249.0,-47.0,-75.0,62.0,27.0,8.0,-966.0,-89.0
10.0,-249.0,-44.0,-82.0,64.0,32.0,11.0,-969.0,-92.0
9.0,-251.0,-47.0,-87.0,64.0,32.0,10.0,-966.0,-93.0
10.0,-250.0,-45.0,-88.0,67.0,36.0,13.0,-968.0,-96.0
15.0,-249.0,-44.0,-87.0,70.0,38.0,36.0,-968.0,-95.0
13.0,-251.0,-47.0,-90.0,73.0,40.0,27.0,-971.0,-99.0
14.0,-251.0,-46.0,-93.0,80.0,39.0,21.0,-969.0,-101.0
9.0,-250.0,-48.0,-101.0,87.0,37.0,11.0,-968.0,-101.0
13.0,-253.0,-42.0,-110.0,90.0,38.0,9.0,-972.0,-100.0
9.0,-252.0,-43.0,-123.0,87.0,39.0,5.0,-971.0,-98.0
11.0,-254.0,-44.0,-132.0,83.0,39.0,6.0,-972.0,-94.0
9.0,-251.0,-43.0,-138.0,78.0,40.0,7.0,-967.0,-91.0
11.0,-253.0,-46.0,-141.0,77.0,40.0,4.0,-964.0,-85.0
8.0,-251.0,-40.0,-141.0,74.0,38.0,5.0,-970.0,-88.0
6.0,-251.0,-49.0,-143.0,70.0,39.0,5.0,-972.0,-91.0
9.0,-254.0,-43.0,-144.0,66.0,41.0,14.0,-970.0,-92.0
14.0,-251.0,-44.0,-144.0,65.0,40.0,15.0,-967.0,-91.0
8.0,-248.0,-42.0,-141.0,68.0,39.0,4.0,-975.0,-95.0
15.0,-253.0,-46.0,-144.0,70.0,39.0,8.0,-967.0,-101.0
9.0,-251.0,-45.0,-146.0,76.0,41.0,11.0,-971.0,-92.0
11.0,-254.0,-46.0,-149.0,77.0,41.0,13.0,-973.0,-102.0
11.0,-252.0,-43.0,-150.0,77.0,43.0,10.0,-970.0,-102.0
6.0,-250.0,-45.0,-149.0,79.0,44.0,-3.0,-962.0,-93.0
4.0,-251.0,-47.0,-147.0,82.0,47.0,3.0,-969.0,-98.0
9.0,-255.0,-45.0,-148.0,79.0,48.0,6.0,-975.0,-99.0
9.0,-255.0,-47.0,-147.0,74.0,45.0,-2.0,-983.0,-94.0
9.0,-253.0,-45.0,-147.0,73.0,45.0,6.0,-980.0,-97.0
11.0,-255.0,-45.0,-144.0,70.0,46.0,5.0,-975.0,-101.0
11.0,-254.0,-49.0,-143.0,67.0,46.0,14.0,-975.0,-103.0
10.0,-253.0,-47.0,-138.0,68.0,43.0,11.0,-978.0,-102.0
8.0,-254.0,-45.0,-137.0,71.0,42.0,7.0,-970.0,-103.0
9.0,-253.0,-51.0,-136.0,71.0,40.0,9.0,-978.0,-113.0
13.0,-253.0,-49.0,-140.0,71.0,38.0,21.0,-972.0,-119.0
23.0,-255.0,-53.0,-146.0,72.0,34.0,56.0,-979.0,-127.0
8.0,-251.0,-51.0,-148.0,80.0,27.0,5.0,-974.0,-130.0
8.0,-247.0,-50.0,-151.0,95.0,24.0,15.0,-966.0,-122.0
13.0,-252.0,-53.0,-150.0,99.0,23.0,36.0,-978.0,-134.0
16.0,-253.0,-53.0,-152.0,95.0,15.0,23.0,-972.0,-129.0
16.0,-252.0,-48.0,-159.0,95.0,8.0,29.0,-978.0,-123.0
11.0,-255.0,-50.0,-164.0,99.0,3.0,15.0,-976.0,-131.0
14.0,-252.0,-52.0,-167.0,110.0,1.0,21.0,-968.0,-130.0
8.0,-251.0,-52.0,-169.0,112.0,-4.0,4.0,-967.0,-124.0
9.0,-247.0,-49.0,-168.0,108.0,-6.0,9.0,-960.0,-128.0
10.0,-250.0,-48.0,-168.0,105.0,-10.0,16.0,-960.0,-128.0
12.0,-251.0,-53.0,-171.0,101.0,-13.0,16.0,-964.0,-128.0
5.0,-248.0,-53.0,-174.0,98.0,-18.0,2.0,-964.0,-127.0
6.0,-246.0,-53.0,-173.0,101.0,-18.0,-1.0,-961.0,-125.0
8.0,-248.0,-56.0,-166.0,105.0,-20.0,2.0,-964.0,-134.0
9.0,-248.0,-54.0,-162.0,105.0,-18.0,4.0,-955.0,-126.0
7.0,-248.0,-54.0,-157.0,109.0,-17.0,7.0,-955.0,-132.0
10.0,-247.0,-54.0,-152.0,113.0,-10.0,15.0,-954.0,-136.0
13.0,-250.0,-56.0,-146.0,117.0,-8.0,14.0,-957.0,-139.0
11.0,-247.0,-55.0,-144.0,122.0,-4.0,9.0,-957.0,-141.0
10.0,-248.0,-53.0,-141.0,128.0,-3.0,4.0,-951.0,-143.0
10.0,-245.0,-55.0,-137.0,131.0,5.0,11.0,-951.0,-146.0
11.0,-249.0,-57.0,-131.0,132.0,7.0,9.0,-953.0,-148.0
10.0,-249.0,-58.0,-125.0,136.0,12.0,12.0,-957.0,-156.0
7.0,-248.0,-62.0,-120.0,139.0,9.0,-1.0,-959.0,-165.0
-7.0,-251.0,-63.0,-112.0,136.0,9.0,-53.0,-961.0,-168.0
-1.0,-251.0,-67.0,-98.0,118.0,4.0,-20.0,-959.0,-178.0
18.0,-249.0,-67.0,-91.0,92.0,1.0,36.0,-957.0,-187.0
22.0,-253.0,-62.0,-91.0,96.0,-5.0,49.0,-960.0,-178.0
17.0,-252.0,-64.0,-94.0,120.0,-10.0,35.0,-965.0,-167.0
13.0,-253.0,-57.0,-92.0,146.0,-17.0,23.0,-967.0,-159.0
15.0,-251.0,-62.0,-82.0,163.0,-16.0,28.0,-967.0,-159.0
11.0,-253.0,-60.0,-64.0,176.0,-19.0,10.0,-971.0,-159.0
14.0,-253.0,-62.0,-46.0,178.0,-12.0,26.0,-971.0,-164.0
14.0,-253.0,-60.0,-23.0,175.0,-13.0,33.0,-971.0,-164.0
13.0,-254.0,-59.0,0.0,172.0,-11.0,21.0,-977.0,-169.0
16.0,-253.0,-59.0,29.0,161.0,-13.0,19.0,-976.0,-171.0
12.0,-252.0,-62.0,63.0,154.0,-8.0,24.0,-973.0,-169.0
13.0,-252.0,-63.0,94.0,153.0,-6.0,22.0,-976.0,-177.0
15.0,-256.0,-64.0,121.0,149.0,-2.0,26.0,-993.0,-182.0
14.0,-255.0,-67.0,143.0,147.0,-6.0,28.0,-977.0,-190.0
15.0,-257.0,-61.0,164.0,147.0,-4.0,25.0,-985.0,-186.0
12.0,-253.0,-67.0,192.0,145.0,-12.0,25.0,-988.0,-193.0
8.0,-253.0,-67.0,215.0,143.0,-12.0,13.0,-974.0,-189.0
11.0,-250.0,-67.0,243.0,141.0,-17.0,13.0,-950.0,-201.0
9.0,-239.0,-71.0,274.0,135.0,-18.0,7.0,-932.0,-209.0
7.0,-230.0,-72.0,298.0,125.0,-21.0,6.0,-903.0,-219.0
14.0,-227.0,-76.0,312.0,106.0,-21.0,17.0,-886.0,-229.0
17.0,-215.0,-80.0,311.0,89.0,-27.0,30.0,-851.0,-224.0
13.0,-209.0,-77.0,302.0,86.0,-35.0,25.0,-823.0,-225.0
9.0,-201.0,-74.0,279.0,91.0,-44.0,15.0,-797.0,-215.0
8.0,-196.0,-71.0,242.0,93.0,-49.0,8.0,-783.0,-222.0
6.0,-193.0,-72.0,200.0,90.0,-68.0,9.0,-755.0,-208.0
10.0,-188.0,-65.0,152.0,86.0,-84.0,10.0,-733.0,-205.0
7.0,-181.0,-70.0,99.0,85.0,-102.0,5.0,-717.0,-199.0
5.0,-174.0,-67.0,42.0,83.0,-115.0,6.0,-687.0,-190.0
9.0,-172.0,-60.0,-18.0,87.0,-127.0,12.0,-677.0,-173.0
9.0,-171.0,-56.0,-81.0,87.0,-136.0,15.0,-669.0,-160.0
2.0,-172.0,-57.0,-140.0,88.0,-144.0,-1.0,-673.0,-152.0
4.0,-174.0,-55.0,-199.0,83.0,-141.0,-14.0,-692.0,-150.0
15.0,-185.0,-54.0,-272.0,68.0,-138.0,19.0,-704.0,-136.0
15.0,-185.0,-48.0,-317.0,64.0,-144.0,36.0,-724.0,-109.0
12.0,-193.0,-49.0,-346.0,71.0,-160.0,18.0,-753.0,-103.0
5.0,-199.0,-49.0,-362.0,90.0,-165.0,-8.0,-794.0,-118.0
6.0,-212.0,-52.0,-376.0,103.0,-161.0,-6.0,-820.0,-128.0
5.0,-215.0,-55.0,-385.0,102.0,-156.0,2.0,-832.0,-139.0
6.0,-217.0,-58.0,-387.0,94.0,-162.0,2.0,-844.0,-163.0
2.0,-218.0,-66.0,-384.0,84.0,-163.0,-17.0,-853.0,-184.0
8.0,-223.0,-71.0,-382.0,71.0,-160.0,-16.0,-858.0,-203.0
0.0,-221.0,-69.0,-385.0,61.0,-159.0,-24.0,-865.0,-204.0
3.0,-221.0,-72.0,-395.0,60.0,-153.0,-15.0,-877.0,-205.0
9.0,-224.0,-71.0,-411.0,67.0,-152.0,-5.0,-876.0,-210.0
6.0,-220.0,-69.0,-439.0,88.0,-156.0,0.0,-873.0,-208.0
12.0,-222.0,-72.0,-471.0,122.0,-156.0,8.0,-873.0,-206.0
11.0,-220.0,-69.0,-511.0,157.0,-162.0,8.0,-863.0,-203.0
8.0,-207.0,-65.0,-551.0,191.0,-157.0,22.0,-800.0,-162.0
17.0,-221.0,-68.0,-582.0,211.0,-149.0,45.0,-875.0,-199.0
15.0,-222.0,-65.0,-614.0,233.0,-147.0,45.0,-870.0,-190.0
31.0,-231.0,-61.0,-628.0,246.0,-143.0,76.0,-897.0,-163.0
33.0,-235.0,-62.0,-643.0,262.0,-134.0,96.0,-902.0,-150.0
34.0,-239.0,-54.0,-642.0,281.0,-125.0,110.0,-921.0,-132.0
40.0,-249.0,-45.0,-620.0,298.0,-114.0,118.0,-948.0,-116.0
42.0,-259.0,-48.0,-582.0,310.0,-96.0,122.0,-981.0,-115.0
50.0,-262.0,-52.0,-543.0,321.0,-78.0,156.0,-1024.0,-116.0
49.0,-269.0,-51.0,-502.0,330.0,-63.0,156.0,-1045.0,-116.0
42.0,-273.0,-52.0,-450.0,346.0,-69.0,122.0,-1065.0,-133.0
31.0,-273.0,-56.0,-394.0,357.0,-84.0,98.0,-1074.0,-145.0
20.0,-276.0,-59.0,-342.0,349.0,-102.0,54.0,-1068.0,-165.0
13.0,-270.0,-63.0,-300.0,336.0,-111.0,23.0,-1047.0,-181.0
12.0,-263.0,-69.0,-286.0,325.0,-114.0,16.0,-1031.0,-203.0
13.0,-257.0,-72.0,-285.0,324.0,-114.0,16.0,-1004.0,-213.0
13.0,-255.0,-74.0,-294.0,341.0,-116.0,22.0,-979.0,-215.0
20.0,-242.0,-75.0,-317.0,362.0,-123.0,40.0,-939.0,-221.0
23.0,-234.0,-72.0,-348.0,394.0,-128.0,59.0,-913.0,-219.0
29.0,-225.0,-73.0,-379.0,428.0,-132.0,74.0,-882.0,-213.0
31.0,-220.0,-70.0,-411.0,463.0,-141.0,80.0,-864.0,-208.0
30.0,-211.0,-62.0,-445.0,493.0,-140.0,80.0,-834.0,-193.0
28.0,-208.0,-63.0,-481.0,523.0,-134.0,86.0,-822.0,-178.0
24.0,-207.0,-60.0,-510.0,534.0,-125.0,72.0,-815.0,-172.0
26.0,-208.0,-64.0,-545.0,526.0,-116.0,69.0,-823.0,-179.0
22.0,-208.0,-68.0,-585.0,519.0,-107.0,78.0,-817.0,-199.0
21.0,-202.0,-76.0,-628.0,516.0,-99.0,59.0,-819.0,-221.0
18.0,-203.0,-82.0,-682.0,506.0,-98.0,58.0,-819.0,-247.0
21.0,-202.0,-80.0,-749.0,485.0,-101.0,61.0,-808.0,-256.0
27.0,-210.0,-81.0,-832.0,466.0,-88.0,70.0,-830.0,-254.0
24.0,-209.0,-67.0,-917.0,462.0,-91.0,75.0,-825.0,-214.0
34.0,-210.0,-71.0,-980.0,456.0,-88.0,99.0,-826.0,-207.0
32.0,-211.0,-70.0,-1002.0,483.0,-96.0,89.0,-827.0,-204.0
20.0,-216.0,-65.0,-1008.0,511.0,-101.0,45.0,-840.0,-189.0
13.0,-218.0,-65.0,-1002.0,534.0,-105.0,23.0,-851.0,-172.0
6.0,-224.0,-60.0,-978.0,539.0,-108.0,0.0,-857.0,-158.0
3.0,-225.0,-61.0,-942.0,533.0,-110.0,-11.0,-863.0,-162.0
2.0,-226.0,-56.0,-908.0,522.0,-108.0,-23.0,-866.0,-167.0
6.0,-223.0,-61.0,-874.0,512.0,-110.0,-12.0,-868.0,-177.0
5.0,-229.0,-66.0,-840.0,512.0,-105.0,-6.0,-878.0,-194.0
1.0,-227.0,-68.0,-805.0,518.0,-117.0,-24.0,-866.0,-206.0
-2.0,-225.0,-79.0,-771.0,525.0,-123.0,-37.0,-873.0,-227.0
-11.0,-223.0,-78.0,-759.0,530.0,-129.0,-60.0,-866.0,-233.0
-5.0,-224.0,-75.0,-756.0,529.0,-119.0,-60.0,-866.0,-221.0
-12.0,-220.0,-73.0,-756.0,520.0,-115.0,-68.0,-857.0,-224.0
-8.0,-215.0,-75.0,-756.0,515.0,-105.0,-57.0,-848.0,-234.0
-9.0,-219.0,-79.0,-762.0,509.0,-92.0,-47.0,-852.0,-245.0
-7.0,-221.0,-81.0,-758.0,497.0,-78.0,-51.0,-854.0,-231.0
-11.0,-218.0,-80.0,-744.0,474.0,-70.0,-61.0,-848.0,-240.0
-17.0,-225.0,-75.0,-729.0,447.0,-51.0,-83.0,-859.0,-239.0
-13.0,-220.0,-84.0,-724.0,411.0,-21.0,-72.0,-856.0,-250.0
-12.0,-223.0,-84.0,-721.0,370.0,12.0,-74.0,-864.0,-260.0
-18.0,-216.0,-84.0,-715.0,326.0,30.0,-93.0,-833.0,-268.0
-9.0,-217.0,-94.0,-700.0,286.0,54.0,-58.0,-841.0,-285.0
-2.0,-212.0,-90.0,-696.0,248.0,59.0,-30.0,-837.0,-305.0
3.0,-214.0,-95.0,-706.0,209.0,56.0,-7.0,-841.0,-301.0
16.0,-214.0,-103.0,-737.0,193.0,50.0,28.0,-851.0,-322.0
19.0,-215.0,-94.0,-784.0,205.0,50.0,46.0,-849.0,-299.0
23.0,-219.0,-84.0,-818.0,244.0,55.0,59.0,-866.0,-265.0
29.0,-220.0,-78.0,-829.0,296.0,63.0,76.0,-867.0,-247.0
28.0,-226.0,-71.0,-807.0,333.0,55.0,78.0,-862.0,-225.0
27.0,-228.0,-78.0,-760.0,355.0,53.0,81.0,-885.0,-231.0
29.0,-232.0,-74.0,-707.0,362.0,44.0,80.0,-888.0,-224.0
35.0,-247.0,-76.0,-668.0,358.0,31.0,76.0,-892.0,-225.0
28.0,-234.0,-81.0,-630.0,352.0,18.0,85.0,-890.0,-215.0
24.0,-229.0,-68.0,-564.0,344.0,16.0,69.0,-896.0,-220.0
24.0,-244.0,-66.0,-499.0,335.0,22.0,68.0,-924.0,-196.0
25.0,-242.0,-65.0,-413.0,322.0,22.0,69.0,-923.0,-201.0
23.0,-248.0,-77.0,-315.0,308.0,17.0,63.0,-934.0,-239.0
24.0,-241.0,-86.0,-225.0,289.0,17.0,72.0,-929.0,-255.0
26.0,-241.0,-100.0,-153.0,279.0,10.0,74.0,-932.0,-321.0
17.0,-238.0,-102.0,-114.0,301.0,10.0,42.0,-914.0,-323.0
8.0,-240.0,-102.0,-74.0,337.0,27.0,9.0,-934.0,-328.0
10.0,-255.0,-112.0,-49.0,344.0,52.0,3.0,-925.0,-338.0
3.0,-226.0,-93.0,-46.0,327.0,67.0,-6.0,-893.0,-329.0
6.0,-228.0,-107.0,-22.0,308.0,82.0,8.0,-897.0,-366.0
7.0,-229.0,-112.0,-15.0,288.0,85.0,5.0,-878.0,-367.0
9.0,-219.0,-118.0,-43.0,272.0,74.0,5.0,-856.0,-383.0
-1.0,-209.0,-110.0,-92.0,243.0,64.0,-24.0,-826.0,-376.0
0.0,-211.0,-114.0,-120.0,218.0,62.0,-27.0,-824.0,-373.0
3.0,-208.0,-114.0,-158.0,212.0,56.0,-16.0,-821.0,-379.0
8.0,-209.0,-110.0,-205.0,210.0,44.0,7.0,-834.0,-376.0
8.0,-220.0,-96.0,-238.0,210.0,32.0,15.0,-852.0,-327.0
23.0,-230.0,-108.0,-233.0,216.0,23.0,57.0,-899.0,-341.0
17.0,-234.0,-98.0,-221.0,234.0,5.0,41.0,-912.0,-328.0
16.0,-229.0,-91.0,-198.0,255.0,-1.0,48.0,-985.0,-341.0
19.0,-245.0,-97.0,-190.0,267.0,-2.0,46.0,-985.0,-342.0
26.0,-260.0,-100.0,-156.0,264.0,6.0,75.0,-987.0,-326.0
31.0,-247.0,-119.0,-80.0,261.0,35.0,55.0,-897.0,-289.0
29.0,-259.0,-110.0,-5.0,257.0,73.0,88.0,-1014.0,-338.0
25.0,-258.0,-111.0,56.0,257.0,93.0,78.0,-1004.0,-369.0
26.0,-249.0,-120.0,62.0,240.0,98.0,78.0,-944.0,-397.0
29.0,-237.0,-121.0,63.0,219.0,103.0,93.0,-922.0,-403.0
35.0,-243.0,-124.0,50.0,200.0,118.0,112.0,-925.0,-421.0
34.0,-223.0,-123.0,41.0,188.0,110.0,106.0,-890.0,-422.0
36.0,-228.0,-128.0,7.0,174.0,92.0,113.0,-896.0,-436.0
31.0,-234.0,-126.0,-30.0,160.0,48.0,101.0,-894.0,-435.0
29.0,-228.0,-123.0,-96.0,165.0,11.0,81.0,-896.0,-428.0
31.0,-241.0,-117.0,-127.0,176.0,2.0,87.0,-920.0,-385.0
41.0,-240.0,-111.0,-145.0,167.0,-19.0,118.0,-916.0,-364.0
44.0,-268.0,-111.0,-153.0,160.0,-54.0,143.0,-1027.0,-379.0
53.0,-250.0,-106.0,-163.0,157.0,-89.0,180.0,-922.0,-345.0
53.0,-252.0,-94.0,-120.0,171.0,-106.0,191.0,-959.0,-307.0
57.0,-245.0,-97.0,-73.0,190.0,-120.0,198.0,-949.0,-302.0
60.0,-224.0,-78.0,-32.0,211.0,-128.0,207.0,-920.0,-277.0
67.0,-253.0,-97.0,-22.0,240.0,-143.0,219.0,-977.0,-310.0
60.0,-263.0,-99.0,-1.0,258.0,-132.0,197.0,-1018.0,-324.0
69.0,-248.0,-110.0,14.0,277.0,-134.0,228.0,-973.0,-355.0
59.0,-252.0,-109.0,27.0,291.0,-109.0,211.0,-989.0,-358.0
45.0,-270.0,-121.0,18.0,315.0,-101.0,164.0,-1014.0,-381.0
50.0,-239.0,-121.0,-35.0,334.0,-106.0,165.0,-961.0,-426.0
53.0,-219.0,-119.0,-89.0,341.0,-98.0,169.0,-898.0,-401.0
44.0,-234.0,-126.0,-112.0,350.0,-75.0,132.0,-914.0,-430.0
40.0,-230.0,-128.0,-140.0,357.0,-69.0,127.0,-911.0,-438.0
31.0,-231.0,-118.0,-180.0,360.0,-86.0,42.0,-905.0,-428.0
30.0,-216.0,-124.0,-268.0,355.0,-112.0,95.0,-856.0,-425.0
28.0,-223.0,-120.0,-288.0,332.0,-98.0,71.0,-869.0,-415.0
18.0,-207.0,-104.0,-292.0,314.0,-104.0,24.0,-907.0,-411.0
21.0,-219.0,-120.0,-327.0,281.0,-125.0,70.0,-862.0,-397.0
24.0,-219.0,-112.0,-332.0,248.0,-132.0,69.0,-871.0,-364.0
24.0,-216.0,-110.0,-340.0,225.0,-152.0,68.0,-837.0,-381.0
24.0,-228.0,-107.0,-314.0,197.0,-152.0,68.0,-882.0,-363.0
42.0,-233.0,-108.0,-280.0,179.0,-164.0,131.0,-886.0,-372.0
46.0,-233.0,-116.0,-236.0,164.0,-144.0,162.0,-893.0,-384.0
36.0,-216.0,-95.0,-197.0,152.0,-121.0,111.0,-1021.0,-385.0
59.0,-234.0,-121.0,-178.0,145.0,-127.0,209.0,-916.0,-415.0
60.0,-243.0,-123.0,-100.0,122.0,-67.0,204.0,-929.0,-411.0
57.0,-243.0,-121.0,-28.0,124.0,-14.0,206.0,-958.0,-418.0
51.0,-244.0,-124.0,15.0,130.0,0.0,157.0,-953.0,-430.0
54.0,-247.0,-125.0,25.0,130.0,-13.0,188.0,-950.0,-429.0
61.0,-247.0,-122.0,26.0,130.0,-11.0,210.0,-970.0,-429.0
57.0,-221.0,-113.0,12.0,130.0,-19.0,167.0,-917.0,-446.0
67.0,-225.0,-118.0,11.0,113.0,-6.0,234.0,-875.0,-415.0
61.0,-237.0,-119.0,45.0,100.0,32.0,204.0,-910.0,-406.0
55.0,-238.0,-115.0,78.0,87.0,35.0,191.0,-937.0,-391.0
63.0,-242.0,-116.0,103.0,71.0,21.0,209.0,-938.0,-383.0
61.0,-246.0,-116.0,137.0,62.0,7.0,205.0,-947.0,-379.0
57.0,-239.0,-110.0,171.0,52.0,-1.0,212.0,-951.0,-380.0
61.0,-247.0,-111.0,206.0,42.0,-7.0,193.0,-916.0,-379.0
51.0,-237.0,-105.0,236.0,30.0,-19.0,142.0,-933.0,-367.0
44.0,-235.0,-113.0,244.0,27.0,-82.0,150.0,-939.0,-377.0
64.0,-230.0,-120.0,233.0,8.0,-121.0,215.0,-899.0,-401.0
57.0,-231.0,-118.0,254.0,8.0,-68.0,192.0,-899.0,-406.0
48.0,-229.0,-119.0,284.0,19.0,-41.0,164.0,-902.0,-400.0
55.0,-247.0,-123.0,304.0,24.0,-19.0,179.0,-917.0,-410.0
48.0,-242.0,-122.0,321.0,38.0,-16.0,132.0,-895.0,-406.0
48.0,-236.0,-118.0,338.0,40.0,-5.0,155.0,-901.0,-402.0
43.0,-218.0,-113.0,359.0,30.0,-16.0,120.0,-891.0,-395.0
32.0,-233.0,-140.0,346.0,21.0,-68.0,105.0,-831.0,-407.0
64.0,-216.0,-110.0,338.0,-8.0,-69.0,229.0,-857.0,-378.0
45.0,-226.0,-114.0,374.0,9.0,-8.0,145.0,-889.0,-378.0
49.0,-228.0,-109.0,397.0,3.0,10.0,145.0,-897.0,-366.0
49.0,-233.0,-119.0,409.0,-14.0,14.0,164.0,-919.0,-391.0
56.0,-245.0,-120.0,412.0,-24.0,7.0,173.0,-892.0,-387.0
52.0,-240.0,-113.0,422.0,-5.0,5.0,182.0,-941.0,-391.0
54.0,-241.0,-112.0,435.0,7.0,0.0,185.0,-925.0,-364.0
54.0,-235.0,-106.0,446.0,8.0,2.0,184.0,-920.0,-361.0
52.0,-236.0,-108.0,462.0,5.0,-22.0,164.0,-915.0,-352.0
56.0,-231.0,-111.0,468.0,12.0,-25.0,171.0,-919.0,-375.0
45.0,-235.0,-116.0,465.0,15.0,-31.0,154.0,-915.0,-381.0
45.0,-236.0,-111.0,460.0,19.0,-39.0,108.0,-904.0,-363.0
50.0,-239.0,-113.0,466.0,14.0,-51.0,187.0,-938.0,-364.0
42.0,-241.0,-108.0,491.0,27.0,-57.0,128.0,-930.0,-365.0
50.0,-247.0,-113.0,519.0,27.0,-60.0,155.0,-935.0,-371.0
45.0,-245.0,-109.0,546.0,18.0,-62.0,141.0,-941.0,-355.0
25.0,-244.0,-101.0,574.0,4.0,-66.0,156.0,-943.0,-341.0
44.0,-250.0,-102.0,609.0,-17.0,-74.0,135.0,-937.0,-351.0
51.0,-247.0,-108.0,625.0,-28.0,-76.0,160.0,-950.0,-362.0
40.0,-240.0,-108.0,639.0,-25.0,-73.0,130.0,-956.0,-374.0
51.0,-243.0,-113.0,649.0,-22.0,-70.0,151.0,-944.0,-363.0
45.0,-246.0,-111.0,644.0,-18.0,-62.0,145.0,-953.0,-360.0
40.0,-247.0,-106.0,644.0,-15.0,-57.0,119.0,-958.0,-358.0
51.0,-254.0,-114.0,637.0,-14.0,-46.0,160.0,-980.0,-382.0
42.0,-254.0,-116.0,630.0,-19.0,-43.0,124.0,-1011.0,-389.0
29.0,-237.0,-117.0,631.0,-20.0,-32.0,146.0,-1001.0,-385.0
46.0,-259.0,-109.0,626.0,-17.0,-21.0,150.0,-1014.0,-372.0
45.0,-256.0,-107.0,633.0,-17.0,-13.0,140.0,-1009.0,-359.0
41.0,-255.0,-103.0,648.0,-21.0,-5.0,144.0,-1014.0,-351.0
25.0,-247.0,-106.0,662.0,-29.0,2.0,72.0,-1000.0,-354.0
30.0,-257.0,-109.0,676.0,-48.0,18.0,117.0,-1016.0,-345.0
32.0,-246.0,-105.0,687.0,-53.0,29.0,103.0,-975.0,-351.0
30.0,-257.0,-103.0,697.0,-55.0,42.0,95.0,-999.0,-345.0
42.0,-260.0,-100.0,713.0,-57.0,54.0,127.0,-1014.0,-354.0
45.0,-249.0,-99.0,726.0,-66.0,63.0,127.0,-999.0,-341.0
36.0,-255.0,-103.0,737.0,-74.0,71.0,99.0,-999.0,-339.0
31.0,-254.0,-107.0,748.0,-84.0,75.0,98.0,-992.0,-357.0
43.0,-249.0,-102.0,750.0,-110.0,79.0,133.0,-980.0,-331.0
33.0,-251.0,-95.0,738.0,-116.0,84.0,104.0,-986.0,-312.0
40.0,-257.0,-100.0,734.0,-128.0,95.0,105.0,-988.0,-325.0
39.0,-257.0,-98.0,734.0,-143.0,100.0,133.0,-1007.0,-316.0
43.0,-250.0,-92.0,742.0,-159.0,108.0,96.0,-972.0,-324.0
37.0,-252.0,-98.0,752.0,-176.0,110.0,109.0,-984.0,-299.0
44.0,-251.0,-100.0,743.0,-183.0,123.0,126.0,-969.0,-317.0
44.0,-253.0,-89.0,734.0,-178.0,126.0,145.0,-1000.0,-298.0
53.0,-256.0,-97.0,728.0,-175.0,126.0,169.0,-1001.0,-297.0
47.0,-258.0,-93.0,723.0,-164.0,125.0,140.0,-1014.0,-298.0
51.0,-261.0,-97.0,718.0,-154.0,123.0,158.0,-1013.0,-309.0
34.0,-256.0,-100.0,713.0,-146.0,117.0,119.0,-1018.0,-310.0
45.0,-265.0,-96.0,713.0,-139.0,113.0,136.0,-1032.0,-318.0
40.0,-259.0,-96.0,723.0,-149.0,103.0,145.0,-1023.0,-302.0
37.0,-265.0,-96.0,719.0,-145.0,99.0,121.0,-1023.0,-313.0
35.0,-262.0,-95.0,719.0,-139.0,95.0,107.0,-1029.0,-310.0
31.0,-261.0,-94.0,721.0,-142.0,92.0,91.0,-1021.0,-295.0
29.0,-259.0,-89.0,719.0,-148.0,97.0,94.0,-1012.0,-283.0
17.0,-260.0,-89.0,721.0,-153.0,95.0,82.0,-999.0,-278.0
33.0,-255.0,-81.0,725.0,-168.0,92.0,94.0,-986.0,-259.0
30.0,-255.0,-80.0,716.0,-167.0,85.0,80.0,-989.0,-257.0
29.0,-255.0,-80.0,709.0,-175.0,81.0,82.0,-1001.0,-251.0
31.0,-260.0,-81.0,706.0,-188.0,75.0,80.0,-1013.0,-242.0
29.0,-259.0,-75.0,702.0,-200.0,73.0,88.0,-1016.0,-226.0
37.0,-261.0,-73.0,701.0,-205.0,70.0,100.0,-1018.0,-218.0
42.0,-262.0,-73.0,702.0,-208.0,69.0,116.0,-1026.0,-214.0
39.0,-263.0,-73.0,707.0,-208.0,66.0,112.0,-1037.0,-212.0
38.0,-264.0,-68.0,710.0,-207.0,71.0,112.0,-1031.0,-212.0
38.0,-267.0,-72.0,711.0,-208.0,74.0,111.0,-1041.0,-209.0
21.0,-253.0,-71.0,713.0,-212.0,86.0,64.0,-1018.0,-202.0
33.0,-265.0,-72.0,707.0,-214.0,93.0,102.0,-1030.0,-206.0
31.0,-266.0,-66.0,701.0,-214.0,96.0,88.0,-1041.0,-197.0
35.0,-264.0,-74.0,694.0,-212.0,96.0,97.0,-1041.0,-209.0
34.0,-266.0,-70.0,679.0,-213.0,96.0,100.0,-1029.0,-206.0
37.0,-261.0,-67.0,655.0,-211.0,94.0,101.0,-1021.0,-202.0
33.0,-260.0,-69.0,633.0,-209.0,96.0,103.0,-1024.0,-190.0
36.0,-262.0,-67.0,617.0,-206.0,98.0,99.0,-1017.0,-185.0
34.0,-261.0,-60.0,605.0,-199.0,97.0,94.0,-1019.0,-172.0
35.0,-262.0,-67.0,598.0,-191.0,93.0,96.0,-1014.0,-175.0
35.0,-265.0,-68.0,598.0,-186.0,86.0,62.0,-1007.0,-172.0
32.0,-260.0,-56.0,597.0,-185.0,82.0,95.0,-1016.0,-156.0
28.0,-263.0,-60.0,599.0,-182.0,90.0,99.0,-1029.0,-172.0
33.0,-259.0,-56.0,595.0,-180.0,83.0,87.0,-1016.0,-151.0
31.0,-260.0,-58.0,588.0,-177.0,78.0,99.0,-1022.0,-146.0
26.0,-267.0,-54.0,578.0,-177.0,69.0,88.0,-1027.0,-133.0
38.0,-261.0,-52.0,569.0,-184.0,59.0,92.0,-1020.0,-138.0
35.0,-266.0,-51.0,553.0,-175.0,54.0,101.0,-1039.0,-136.0
38.0,-268.0,-44.0,542.0,-166.0,53.0,110.0,-1051.0,-117.0
34.0,-273.0,-48.0,532.0,-158.0,47.0,94.0,-1058.0,-116.0
34.0,-273.0,-45.0,517.0,-156.0,48.0,98.0,-1070.0,-115.0
35.0,-275.0,-47.0,503.0,-154.0,48.0,102.0,-1069.0,-111.0
37.0,-275.0,-46.0,491.0,-157.0,52.0,114.0,-1074.0,-105.0
35.0,-276.0,-47.0,476.0,-159.0,50.0,112.0,-1076.0,-102.0
37.0,-275.0,-48.0,463.0,-167.0,55.0,102.0,-1074.0,-118.0
34.0,-279.0,-47.0,446.0,-181.0,49.0,100.0,-1085.0,-93.0
33.0,-279.0,-42.0,440.0,-192.0,47.0,97.0,-1088.0,-104.0
27.0,-276.0,-46.0,431.0,-193.0,47.0,66.0,-1078.0,-99.0
26.0,-276.0,-45.0,420.0,-197.0,53.0,77.0,-1077.0,-88.0
25.0,-275.0,-40.0,412.0,-204.0,51.0,71.0,-1072.0,-81.0
13.0,-280.0,-38.0,411.0,-213.0,49.0,29.0,-1075.0,-74.0
19.0,-270.0,-44.0,405.0,-233.0,38.0,46.0,-1055.0,-69.0
16.0,-272.0,-40.0,399.0,-245.0,42.0,41.0,-1059.0,-70.0
11.0,-267.0,-36.0,401.0,-253.0,36.0,20.0,-1050.0,-67.0
13.0,-265.0,-35.0,405.0,-266.0,40.0,21.0,-1043.0,-66.0
17.0,-270.0,-35.0,409.0,-267.0,45.0,35.0,-1044.0,-74.0
18.0,-268.0,-38.0,415.0,-263.0,58.0,39.0,-1055.0,-78.0
24.0,-274.0,-45.0,419.0,-256.0,69.0,49.0,-1065.0,-77.0
26.0,-271.0,-40.0,419.0,-239.0,81.0,70.0,-1067.0,-74.0
31.0,-275.0,-35.0,416.0,-223.0,88.0,77.0,-1069.0,-64.0
28.0,-273.0,-34.0,414.0,-206.0,97.0,79.0,-1067.0,-62.0
27.0,-276.0,-34.0,410.0,-192.0,100.0,74.0,-1070.0,-66.0
24.0,-275.0,-32.0,406.0,-184.0,104.0,58.0,-1062.0,-56.0
21.0,-270.0,-31.0,402.0,-179.0,103.0,53.0,-1056.0,-52.0
17.0,-270.0,-32.0,395.0,-179.0,102.0,42.0,-1054.0,-50.0
16.0,-270.0,-31.0,390.0,-179.0,98.0,25.0,-1052.0,-48.0
13.0,-268.0,-33.0,382.0,-181.0,96.0,21.0,-1046.0,-40.0
9.0,-266.0,-31.0,372.0,-188.0,88.0,15.0,-1038.0,-40.0
9.0,-266.0,-28.0,361.0,-193.0,88.0,11.0,-1034.0,-33.0
14.0,-262.0,-23.0,358.0,-198.0,82.0,12.0,-1026.0,-18.0
10.0,-266.0,-27.0,358.0,-198.0,83.0,11.0,-1030.0,-16.0
13.0,-266.0,-22.0,360.0,-194.0,81.0,10.0,-1031.0,-5.0
12.0,-264.0,-19.0,366.0,-193.0,83.0,22.0,-1035.0,-7.0
15.0,-264.0,-11.0,379.0,-187.0,88.0,36.0,-1032.0,-10.0
18.0,-264.0,-17.0,394.0,-188.0,96.0,30.0,-1030.0,7.0
18.0,-265.0,-16.0,413.0,-190.0,103.0,48.0,-1026.0,-2.0
17.0,-263.0,-12.0,433.0,-193.0,114.0,48.0,-1019.0,19.0
24.0,-261.0,-15.0,461.0,-199.0,119.0,56.0,-1016.0,26.0
30.0,-260.0,-9.0,483.0,-202.0,127.0,75.0,-1014.0,45.0
32.0,-261.0,-5.0,506.0,-197.0,132.0,86.0,-1007.0,57.0
26.0,-259.0,-2.0,526.0,-191.0,138.0,71.0,-999.0,62.0
27.0,-260.0,-4.0,540.0,-182.0,139.0,68.0,-997.0,68.0
23.0,-260.0,2.0,551.0,-176.0,139.0,67.0,-1005.0,80.0
26.0,-261.0,6.0,564.0,-169.0,133.0,60.0,-1012.0,96.0
21.0,-266.0,8.0,580.0,-167.0,125.0,55.0,-1027.0,113.0
18.0,-270.0,15.0,605.0,-164.0,111.0,43.0,-1042.0,137.0
18.0,-281.0,20.0,646.0,-153.0,102.0,49.0,-1071.0,157.0
14.0,-285.0,22.0,690.0,-138.0,92.0,24.0,-1093.0,160.0
15.0,-291.0,22.0,731.0,-125.0,85.0,25.0,-1127.0,163.0
14.0,-301.0,23.0,764.0,-114.0,73.0,16.0,-1153.0,166.0
13.0,-304.0,21.0,793.0,-108.0,63.0,12.0,-1165.0,163.0
13.0,-311.0,18.0,814.0,-105.0,47.0,12.0,-1189.0,161.0
11.0,-314.0,19.0,827.0,-105.0,28.0,11.0,-1207.0,149.0
10.0,-319.0,12.0,832.0,-107.0,7.0,10.0,-1233.0,126.0
12.0,-327.0,9.0,827.0,-111.0,-14.0,3.0,-1255.0,108.0
13.0,-330.0,4.0,808.0,-122.0,-34.0,12.0,-1274.0,96.0
8.0,-335.0,1.0,777.0,-132.0,-45.0,11.0,-1285.0,89.0
10.0,-335.0,2.0,745.0,-141.0,-50.0,7.0,-1292.0,84.0
11.0,-332.0,3.0,712.0,-148.0,-47.0,7.0,-1281.0,89.0
9.0,-323.0,4.0,679.0,-155.0,-33.0,7.0,-1259.0,87.0
9.0,-312.0,3.0,645.0,-158.0,-12.0,5.0,-1217.0,88.0
7.0,-296.0,3.0,608.0,-154.0,19.0,4.0,-1154.0,88.0
9.0,-282.0,2.0,568.0,-145.0,51.0,2.0,-1105.0,90.0
7.0,-270.0,3.0,526.0,-127.0,82.0,-1.0,-1058.0,90.0
11.0,-257.0,4.0,482.0,-96.0,107.0,-1.0,-1009.0,88.0
2.0,-254.0,-3.0,443.0,-81.0,144.0,-27.0,-969.0,69.0
4.0,-235.0,-7.0,400.0,-47.0,141.0,-15.0,-917.0,61.0
9.0,-225.0,-8.0,350.0,-21.0,140.0,-2.0,-883.0,57.0
9.0,-221.0,-2.0,305.0,-5.0,136.0,2.0,-867.0,65.0
7.0,-216.0,-6.0,263.0,8.0,122.0,2.0,-846.0,65.0
10.0,-215.0,-2.0,223.0,19.0,105.0,9.0,-830.0,76.0
15.0,-209.0,6.0,191.0,21.0,92.0,21.0,-820.0,92.0
19.0,-213.0,8.0,170.0,18.0,81.0,41.0,-818.0,108.0
14.0,-211.0,13.0,159.0,17.0,66.0,31.0,-838.0,133.0
17.0,-217.0,19.0,151.0,19.0,43.0,37.0,-845.0,145.0
16.0,-223.0,20.0,154.0,20.0,23.0,44.0,-866.0,173.0
20.0,-228.0,34.0,168.0,22.0,2.0,52.0,-890.0,193.0
22.0,-238.0,36.0,192.0,22.0,-15.0,55.0,-906.0,208.0
22.0,-245.0,42.0,228.0,23.0,-32.0,62.0,-924.0,224.0
22.0,-251.0,43.0,271.0,18.0,-40.0,52.0,-949.0,234.0
20.0,-253.0,42.0,319.0,20.0,-57.0,53.0,-965.0,240.0
-28.0,-267.0,-10.0,367.0,22.0,-70.0,-34.0,-962.0,253.0
24.0,-259.0,42.0,415.0,19.0,-86.0,66.0,-1001.0,250.0
21.0,-259.0,41.0,470.0,16.0,-91.0,60.0,-1001.0,248.0
26.0,-259.0,47.0,512.0,9.0,-94.0,72.0,-997.0,247.0
30.0,-259.0,43.0,548.0,3.0,-92.0,76.0,-996.0,243.0
30.0,-250.0,42.0,576.0,-13.0,-84.0,88.0,-946.0,235.0
25.0,-257.0,45.0,604.0,-31.0,-65.0,61.0,-977.0,241.0
24.0,-253.0,43.0,607.0,-23.0,-82.0,65.0,-970.0,236.0
21.0,-251.0,43.0,604.0,-21.0,-85.0,65.0,-966.0,228.0
23.0,-249.0,40.0,598.0,-22.0,-88.0,68.0,-960.0,225.0
24.0,-247.0,34.0,589.0,-19.0,-82.0,67.0,-954.0,229.0
24.0,-248.0,32.0,578.0,-19.0,-74.0,74.0,-942.0,223.0
30.0,-242.0,40.0,567.0,-28.0,-44.0,65.0,-934.0,229.0
19.0,-249.0,39.0,562.0,-29.0,-25.0,48.0,-944.0,235.0
20.0,-244.0,40.0,541.0,-12.0,-47.0,57.0,-932.0,227.0
27.0,-242.0,37.0,519.0,-9.0,-61.0,75.0,-926.0,236.0
28.0,-243.0,42.0,503.0,-7.0,-59.0,74.0,-924.0,241.0
30.0,-239.0,40.0,488.0,-4.0,-60.0,91.0,-915.0,241.0
32.0,-238.0,47.0,475.0,-5.0,-58.0,96.0,-910.0,237.0
37.0,-229.0,42.0,463.0,-5.0,-57.0,141.0,-881.0,246.0
30.0,-237.0,51.0,457.0,-22.0,2.0,87.0,-919.0,229.0
23.0,-237.0,41.0,452.0,-12.0,-12.0,70.0,-913.0,228.0
29.0,-235.0,41.0,433.0,2.0,-47.0,93.0,-912.0,230.0
31.0,-236.0,41.0,413.0,4.0,-63.0,98.0,-912.0,236.0
35.0,-240.0,44.0,400.0,4.0,-63.0,104.0,-916.0,241.0
34.0,-241.0,46.0,389.0,3.0,-67.0,105.0,-916.0,249.0
41.0,-232.0,45.0,382.0,2.0,-56.0,93.0,-918.0,254.0
35.0,-247.0,52.0,383.0,-10.0,-15.0,116.0,-920.0,271.0
32.0,-243.0,51.0,394.0,-7.0,0.0,100.0,-944.0,267.0
30.0,-246.0,47.0,399.0,4.0,-21.0,98.0,-943.0,273.0
35.0,-248.0,48.0,402.0,10.0,-26.0,105.0,-937.0,277.0
36.0,-246.0,53.0,404.0,10.0,-28.0,119.0,-930.0,282.0
42.0,-246.0,52.0,408.0,7.0,-11.0,124.0,-936.0,276.0
36.0,-244.0,56.0,416.0,12.0,-3.0,121.0,-937.0,282.0
41.0,-246.0,54.0,423.0,14.0,2.0,114.0,-939.0,286.0
33.0,-249.0,56.0,429.0,23.0,6.0,103.0,-952.0,285.0
36.0,-248.0,55.0,425.0,33.0,-4.0,115.0,-949.0,281.0
44.0,-249.0,57.0,422.0,37.0,-16.0,126.0,-940.0,279.0
42.0,-241.0,46.0,418.0,43.0,-17.0,124.0,-940.0,278.0
41.0,-245.0,48.0,416.0,52.0,-19.0,125.0,-930.0,275.0
46.0,-231.0,45.0,414.0,58.0,-8.0,123.0,-925.0,279.0
37.0,-243.0,53.0,416.0,54.0,16.0,117.0,-923.0,268.0
39.0,-234.0,53.0,418.0,63.0,11.0,125.0,-909.0,283.0
32.0,-235.0,54.0,420.0,59.0,4.0,111.0,-906.0,287.0
32.0,-241.0,57.0,413.0,63.0,-4.0,102.0,-908.0,295.0
35.0,-235.0,58.0,409.0,66.0,-20.0,106.0,-900.0,302.0
35.0,-234.0,61.0,406.0,67.0,-26.0,106.0,-899.0,313.0
33.0,-234.0,60.0,404.0,71.0,-31.0,96.0,-902.0,312.0
36.0,-233.0,62.0,404.0,73.0,-28.0,109.0,-901.0,317.0
35.0,-233.0,65.0,402.0,73.0,-27.0,111.0,-901.0,318.0
33.0,-236.0,60.0,397.0,76.0,-28.0,99.0,-905.0,312.0
35.0,-236.0,59.0,394.0,73.0,-30.0,110.0,-903.0,315.0
38.0,-234.0,58.0,389.0,70.0,-19.0,125.0,-902.0,310.0
27.0,-238.0,60.0,383.0,76.0,-12.0,80.0,-913.0,312.0
26.0,-241.0,59.0,373.0,77.0,-26.0,95.0,-913.0,299.0
31.0,-238.0,56.0,358.0,78.0,-34.0,99.0,-916.0,304.0
30.0,-241.0,63.0,344.0,77.0,-35.0,95.0,-918.0,315.0
30.0,-241.0,64.0,333.0,76.0,-39.0,90.0,-921.0,322.0
32.0,-240.0,66.0,325.0,75.0,-36.0,94.0,-917.0,328.0
27.0,-240.0,69.0,322.0,77.0,-32.0,79.0,-922.0,337.0
27.0,-241.0,65.0,328.0,78.0,-28.0,80.0,-915.0,339.0
30.0,-239.0,69.0,333.0,78.0,-25.0,80.0,-915.0,339.0
30.0,-238.0,70.0,338.0,81.0,-18.0,87.0,-910.0,342.0
28.0,-237.0,68.0,339.0,88.0,-14.0,80.0,-908.0,344.0
26.0,-237.0,71.0,341.0,94.0,-4.0,79.0,-908.0,340.0
28.0,-237.0,67.0,340.0,104.0,-1.0,88.0,-903.0,340.0
31.0,-236.0,67.0,331.0,119.0,4.0,79.0,-901.0,333.0
30.0,-235.0,66.0,315.0,130.0,2.0,89.0,-903.0,347.0
27.0,-236.0,71.0,305.0,136.0,3.0,83.0,-908.0,350.0
31.0,-235.0,73.0,294.0,136.0,2.0,93.0,-907.0,362.0
34.0,-234.0,72.0,284.0,141.0,-1.0,99.0,-904.0,366.0
32.0,-238.0,74.0,278.0,145.0,-2.0,94.0,-905.0,374.0
32.0,-235.0,75.0,275.0,146.0,-6.0,97.0,-909.0,374.0
30.0,-237.0,74.0,275.0,145.0,-6.0,96.0,-910.0,372.0
30.0,-235.0,73.0,270.0,145.0,-6.0,93.0,-906.0,368.0
30.0,-238.0,74.0,267.0,144.0,-9.0,93.0,-907.0,367.0
30.0,-235.0,76.0,263.0,143.0,-9.0,91.0,-904.0,366.0
31.0,-234.0,73.0,256.0,144.0,-9.0,95.0,-899.0,375.0
24.0,-232.0,76.0,251.0,143.0,-11.0,86.0,-894.0,379.0
23.0,-230.0,76.0,247.0,139.0,-10.0,76.0,-892.0,376.0
23.0,-229.0,80.0,245.0,133.0,-9.0,74.0,-890.0,384.0
22.0,-233.0,78.0,243.0,128.0,-6.0,64.0,-890.0,389.0
26.0,-227.0,80.0,242.0,124.0,-3.0,66.0,-884.0,385.0
24.0,-232.0,71.0,239.0,123.0,-2.0,64.0,-887.0,371.0
22.0,-231.0,73.0,232.0,123.0,-1.0,57.0,-884.0,368.0
21.0,-230.0,73.0,219.0,123.0,-2.0,53.0,-887.0,359.0
19.0,-231.0,71.0,204.0,122.0,-2.0,60.0,-898.0,353.0
21.0,-234.0,70.0,187.0,124.0,-5.0,60.0,-898.0,349.0
26.0,-237.0,65.0,172.0,121.0,14.0,70.0,-914.0,325.0
12.0,-240.0,67.0,160.0,132.0,18.0,25.0,-909.0,342.0
20.0,-238.0,71.0,153.0,127.0,7.0,53.0,-922.0,343.0
19.0,-243.0,66.0,139.0,121.0,8.0,40.0,-930.0,331.0
22.0,-241.0,70.0,131.0,118.0,2.0,59.0,-930.0,342.0
21.0,-246.0,71.0,134.0,116.0,2.0,63.0,-938.0,347.0
26.0,-248.0,72.0,146.0,118.0,0.0,64.0,-946.0,356.0
26.0,-244.0,68.0,162.0,121.0,-2.0,83.0,-931.0,341.0
30.0,-243.0,70.0,177.0,122.0,-10.0,81.0,-925.0,348.0
29.0,-242.0,69.0,189.0,129.0,-13.0,82.0,-921.0,346.0
33.0,-238.0,74.0,197.0,135.0,-15.0,93.0,-924.0,354.0
32.0,-240.0,73.0,206.0,140.0,-17.0,88.0,-914.0,354.0
28.0,-238.0,75.0,213.0,145.0,-23.0,86.0,-910.0,357.0
31.0,-238.0,70.0,220.0,145.0,-25.0,92.0,-912.0,355.0
31.0,-238.0,72.0,226.0,147.0,-32.0,91.0,-913.0,355.0
28.0,-237.0,70.0,229.0,152.0,-34.0,93.0,-909.0,351.0
29.0,-239.0,68.0,229.0,152.0,-40.0,93.0,-913.0,348.0
29.0,-238.0,60.0,225.0,153.0,-42.0,89.0,-911.0,337.0
31.0,-237.0,66.0,217.0,152.0,-50.0,87.0,-910.0,329.0
29.0,-238.0,67.0,206.0,149.0,-55.0,86.0,-916.0,327.0
30.0,-240.0,68.0,195.0,148.0,-65.0,79.0,-916.0,339.0
24.0,-236.0,71.0,183.0,147.0,-70.0,77.0,-914.0,348.0
24.0,-237.0,71.0,175.0,145.0,-77.0,73.0,-915.0,354.0
24.0,-237.0,73.0,171.0,148.0,-78.0,71.0,-913.0,366.0
24.0,-239.0,77.0,171.0,151.0,-79.0,72.0,-914.0,384.0
27.0,-238.0,81.0,174.0,160.0,-76.0,73.0,-907.0,400.0
27.0,-236.0,84.0,183.0,166.0,-73.0,78.0,-910.0,404.0
26.0,-236.0,85.0,193.0,173.0,-67.0,80.0,-901.0,420.0
27.0,-231.0,86.0,205.0,181.0,-61.0,79.0,-896.0,421.0
27.0,-232.0,88.0,215.0,188.0,-54.0,80.0,-887.0,433.0
27.0,-231.0,90.0,221.0,193.0,-52.0,78.0,-879.0,427.0
28.0,-231.0,89.0,221.0,195.0,-47.0,79.0,-878.0,432.0
23.0,-227.0,90.0,214.0,198.0,-47.0,74.0,-877.0,435.0
19.0,-225.0,90.0,199.0,196.0,-40.0,58.0,-869.0,435.0
16.0,-226.0,92.0,176.0,190.0,-38.0,43.0,-879.0,434.0
14.0,-229.0,89.0,151.0,184.0,-33.0,22.0,-881.0,431.0
5.0,-228.0,88.0,130.0,175.0,-32.0,4.0,-884.0,429.0
4.0,-229.0,89.0,106.0,163.0,-25.0,-6.0,-887.0,439.0
0.0,-230.0,91.0,83.0,148.0,-25.0,-15.0,-878.0,434.0
-2.0,-229.0,92.0,59.0,130.0,-20.0,-24.0,-887.0,437.0
-2.0,-232.0,93.0,38.0,110.0,-21.0,-37.0,-890.0,434.0
-5.0,-231.0,92.0,19.0,91.0,-19.0,-38.0,-894.0,437.0
-6.0,-233.0,94.0,5.0,73.0,-22.0,-41.0,-896.0,436.0
-3.0,-236.0,90.0,-2.0,52.0,-18.0,-33.0,-895.0,435.0
-4.0,-236.0,87.0,-7.0,37.0,-19.0,-32.0,-902.0,428.0
0.0,-236.0,88.0,-8.0,26.0,-14.0,-23.0,-897.0,425.0
0.0,-233.0,87.0,-6.0,15.0,-14.0,-21.0,-893.0,417.0
2.0,-234.0,86.0,-3.0,4.0,-7.0,-20.0,-897.0,419.0
2.0,-233.0,85.0,1.0,-6.0,-5.0,-12.0,-893.0,413.0
3.0,-233.0,83.0,2.0,-15.0,2.0,-7.0,-894.0,404.0
5.0,-230.0,77.0,1.0,-24.0,6.0,-3.0,-888.0,400.0
5.0,-230.0,85.0,-3.0,-33.0,13.0,-5.0,-884.0,395.0
10.0,-230.0,78.0,-10.0,-39.0,19.0,0.0,-883.0,393.0
10.0,-230.0,82.0,-17.0,-42.0,29.0,8.0,-877.0,396.0
10.0,-228.0,76.0,-25.0,-46.0,35.0,16.0,-883.0,388.0
11.0,-229.0,79.0,-31.0,-48.0,43.0,19.0,-874.0,385.0
12.0,-227.0,78.0,-39.0,-48.0,46.0,23.0,-880.0,384.0
16.0,-228.0,76.0,-47.0,-47.0,53.0,37.0,-883.0,379.0
19.0,-231.0,77.0,-53.0,-46.0,53.0,47.0,-887.0,380.0
24.0,-233.0,75.0,-58.0,-47.0,56.0,62.0,-896.0,384.0
25.0,-233.0,75.0,-61.0,-46.0,54.0,74.0,-893.0,383.0
26.0,-234.0,78.0,-63.0,-45.0,55.0,81.0,-902.0,384.0
33.0,-238.0,77.0,-60.0,-46.0,49.0,92.0,-905.0,386.0
31.0,-238.0,81.0,-57.0,-47.0,46.0,94.0,-908.0,390.0
35.0,-236.0,77.0,-50.0,-46.0,40.0,98.0,-910.0,397.0
36.0,-237.0,77.0,-40.0,-46.0,38.0,112.0,-912.0,396.0
37.0,-236.0,83.0,-27.0,-46.0,33.0,112.0,-907.0,395.0
38.0,-237.0,79.0,-20.0,-46.0,33.0,117.0,-906.0,397.0
39.0,-235.0,81.0,-13.0,-44.0,28.0,124.0,-906.0,392.0
40.0,-234.0,79.0,-9.0,-41.0,26.0,119.0,-903.0,390.0
38.0,-235.0,81.0,-7.0,-35.0,23.0,122.0,-898.0,394.0
37.0,-231.0,81.0,-6.0,-30.0,21.0,119.0,-896.0,399.0
40.0,-233.0,77.0,-6.0,-25.0,19.0,128.0,-896.0,401.0
37.0,-233.0,79.0,-6.0,-19.0,19.0,125.0,-892.0,399.0
38.0,-233.0,81.0,-7.0,-14.0,18.0,124.0,-898.0,399.0
36.0,-233.0,81.0,-9.0,-5.0,19.0,118.0,-896.0,405.0
41.0,-236.0,83.0,-12.0,1.0,16.0,119.0,-899.0,405.0
41.0,-236.0,81.0,-15.0,9.0,17.0,121.0,-902.0,409.0
38.0,-232.0,82.0,-19.0,18.0,18.0,123.0,-901.0,411.0
38.0,-236.0,83.0,-25.0,25.0,20.0,117.0,-901.0,413.0
38.0,-233.0,84.0,-31.0,32.0,21.0,118.0,-901.0,413.0
35.0,-232.0,84.0,-37.0,38.0,22.0,111.0,-899.0,412.0
35.0,-233.0,86.0,-43.0,46.0,24.0,107.0,-894.0,414.0
32.0,-231.0,84.0,-49.0,50.0,27.0,109.0,-894.0,411.0
32.0,-234.0,84.0,-57.0,57.0,28.0,107.0,-893.0,413.0
32.0,-232.0,84.0,-64.0,65.0,29.0,103.0,-896.0,404.0
33.0,-236.0,85.0,-69.0,69.0,29.0,102.0,-899.0,409.0
35.0,-233.0,83.0,-74.0,77.0,29.0,103.0,-901.0,405.0
34.0,-236.0,84.0,-78.0,80.0,30.0,102.0,-900.0,409.0
33.0,-232.0,84.0,-78.0,84.0,28.0,104.0,-899.0,413.0
34.0,-237.0,81.0,-81.0,87.0,27.0,104.0,-898.0,414.0
33.0,-233.0,87.0,-81.0,90.0,25.0,100.0,-903.0,407.0
29.0,-233.0,85.0,-79.0,91.0,23.0,95.0,-896.0,405.0
31.0,-236.0,82.0,-78.0,93.0,20.0,94.0,-901.0,406.0
28.0,-233.0,81.0,-79.0,94.0,18.0,91.0,-892.0,404.0
26.0,-232.0,85.0,-79.0,93.0,14.0,85.0,-893.0,404.0
26.0,-231.0,81.0,-79.0,91.0,12.0,79.0,-886.0,405.0
28.0,-235.0,86.0,-77.0,89.0,9.0,73.0,-891.0,401.0
24.0,-232.0,83.0,-77.0,90.0,6.0,69.0,-892.0,402.0
23.0,-231.0,83.0,-75.0,90.0,4.0,65.0,-890.0,399.0
23.0,-231.0,83.0,-74.0,90.0,4.0,67.0,-894.0,395.0
22.0,-229.0,77.0,-72.0,92.0,3.0,67.0,-893.0,396.0
24.0,-235.0,78.0,-69.0,94.0,7.0,68.0,-893.0,387.0
24.0,-234.0,80.0,-67.0,99.0,5.0,69.0,-895.0,390.0
23.0,-233.0,81.0,-65.0,102.0,5.0,66.0,-897.0,385.0
22.0,-235.0,78.0,-61.0,101.0,4.0,60.0,-900.0,384.0
22.0,-234.0,78.0,-58.0,101.0,6.0,66.0,-904.0,386.0
23.0,-236.0,77.0,-51.0,103.0,4.0,62.0,-905.0,387.0
21.0,-235.0,75.0,-47.0,103.0,6.0,60.0,-909.0,391.0
22.0,-238.0,79.0,-39.0,103.0,5.0,58.0,-909.0,386.0
24.0,-238.0,77.0,-31.0,105.0,6.0,59.0,-903.0,383.0
25.0,-239.0,75.0,-25.0,108.0,6.0,65.0,-908.0,387.0
21.0,-238.0,78.0,-18.0,108.0,8.0,63.0,-906.0,382.0
23.0,-233.0,76.0,-12.0,107.0,4.0,61.0,-909.0,383.0
23.0,-238.0,75.0,-8.0,105.0,6.0,63.0,-908.0,390.0
22.0,-237.0,80.0,-1.0,104.0,4.0,63.0,-906.0,385.0
21.0,-235.0,79.0,7.0,103.0,5.0,62.0,-908.0,391.0
23.0,-239.0,81.0,14.0,101.0,4.0,63.0,-901.0,393.0
22.0,-234.0,79.0,20.0,99.0,5.0,60.0,-907.0,391.0
22.0,-238.0,78.0,23.0,99.0,3.0,63.0,-904.0,390.0
23.0,-237.0,84.0,26.0,97.0,5.0,60.0,-905.0,387.0
20.0,-235.0,76.0,28.0,98.0,1.0,59.0,-904.0,387.0
25.0,-234.0,79.0,30.0,100.0,4.0,66.0,-901.0,388.0
25.0,-232.0,80.0,29.0,102.0,2.0,67.0,-899.0,388.0
24.0,-235.0,78.0,27.0,102.0,4.0,68.0,-902.0,389.0
23.0,-232.0,79.0,25.0,103.0,1.0,62.0,-903.0,391.0
26.0,-234.0,77.0,20.0,104.0,4.0,63.0,-898.0,390.0
23.0,-233.0,78.0,14.0,104.0,3.0,62.0,-898.0,385.0
24.0,-233.0,74.0,10.0,102.0,5.0,59.0,-898.0,388.0
25.0,-233.0,77.0,5.0,103.0,3.0,63.0,-895.0,386.0
22.0,-235.0,77.0,1.0,101.0,4.0,63.0,-897.0,394.0
24.0,-233.0,79.0,-5.0,99.0,1.0,63.0,-901.0,394.0
22.0,-232.0,77.0,-9.0,99.0,3.0,63.0,-901.0,396.0
23.0,-236.0,78.0,-12.0,96.0,-1.0,59.0,-901.0,393.0
21.0,-234.0,80.0,-15.0,95.0,0.0,59.0,-898.0,392.0
19.0,-233.0,79.0,-14.0,94.0,-4.0,59.0,-901.0,392.0
20.0,-237.0,78.0,-14.0,92.0,-2.0,59.0,-901.0,394.0
20.0,-232.0,79.0,-12.0,92.0,-4.0,59.0,-899.0,397.0
21.0,-236.0,78.0,-10.0,94.0,-4.0,56.0,-900.0,396.0
23.0,-235.0,78.0,-7.0,93.0,-4.0,62.0,-903.0,398.0
22.0,-235.0,79.0,-3.0,92.0,0.0,57.0,-902.0,394.0
20.0,-235.0,84.0,-1.0,91.0,-3.0,57.0,-904.0,397.0
21.0,-236.0,78.0,2.0,88.0,1.0,56.0,-903.0,398.0
21.0,-237.0,79.0,4.0,86.0,1.0,57.0,-904.0,389.0
24.0,-236.0,82.0,4.0,86.0,3.0,58.0,-905.0,394.0
21.0,-236.0,80.0,5.0,82.0,1.0,56.0,-901.0,399.0
19.0,-236.0,77.0,7.0,84.0,4.0,57.0,-906.0,393.0
20.0,-237.0,79.0,9.0,84.0,3.0,56.0,-904.0,391.0
21.0,-233.0,79.0,12.0,83.0,5.0,59.0,-903.0,393.0
19.0,-236.0,77.0,16.0,82.0,4.0,57.0,-906.0,387.0
21.0,-234.0,80.0,18.0,81.0,6.0,59.0,-897.0,396.0
20.0,-233.0,77.0,19.0,81.0,5.0,63.0,-904.0,388.0
20.0,-233.0,77.0,21.0,80.0,8.0,60.0,-900.0,390.0
22.0,-238.0,77.0,19.0,80.0,5.0,60.0,-905.0,389.0
23.0,-234.0,77.0,15.0,79.0,7.0,56.0,-898.0,389.0
22.0,-232.0,79.0,15.0,79.0,5.0,57.0,-900.0,389.0
19.0,-236.0,79.0,13.0,78.0,6.0,56.0,-899.0,393.0
20.0,-235.0,82.0,10.0,76.0,4.0,55.0,-902.0,393.0
18.0,-234.0,81.0,8.0,73.0,4.0,52.0,-901.0,396.0
22.0,-234.0,81.0,6.0,73.0,1.0,54.0,-901.0,392.0
19.0,-233.0,80.0,5.0,71.0,2.0,51.0,-900.0,396.0
19.0,-234.0,79.0,5.0,67.0,1.0,50.0,-902.0,397.0
18.0,-235.0,81.0,4.0,65.0,3.0,43.0,-902.0,396.0
18.0,-234.0,81.0,4.0,63.0,3.0,46.0,-900.0,393.0
19.0,-236.0,79.0,4.0,62.0,8.0,41.0,-896.0,392.0
17.0,-236.0,81.0,2.0,57.0,7.0,42.0,-898.0,398.0
18.0,-233.0,79.0,-1.0,55.0,10.0,47.0,-899.0,397.0
17.0,-234.0,80.0,1.0,50.0,10.0,52.0,-893.0,397.0
19.0,-234.0,79.0,3.0,48.0,10.0,51.0,-897.0,403.0
18.0,-235.0,85.0,5.0,45.0,12.0,44.0,-893.0,398.0
18.0,-236.0,81.0,4.0,42.0,13.0,50.0,-900.0,402.0
20.0,-233.0,82.0,6.0,40.0,13.0,51.0,-898.0,407.0
21.0,-235.0,84.0,7.0,38.0,15.0,53.0,-901.0,405.0
22.0,-235.0,80.0,7.0,38.0,15.0,58.0,-897.0,406.0
21.0,-232.0,82.0,8.0,38.0,15.0,53.0,-897.0,400.0
20.0,-234.0,83.0,8.0,39.0,15.0,58.0,-901.0,404.0
23.0,-237.0,82.0,7.0,39.0,16.0,62.0,-905.0,406.0
25.0,-235.0,84.0,8.0,42.0,17.0,65.0,-904.0,401.0
21.0,-234.0,83.0,10.0,42.0,17.0,63.0,-905.0,403.0
23.0,-237.0,83.0,12.0,43.0,18.0,68.0,-906.0,402.0
29.0,-237.0,82.0,16.0,45.0,17.0,73.0,-908.0,401.0
26.0,-238.0,80.0,19.0,46.0,18.0,74.0,-910.0,400.0
24.0,-237.0,79.0,22.0,48.0,18.0,70.0,-907.0,392.0
24.0,-237.0,79.0,25.0,47.0,15.0,75.0,-906.0,394.0
24.0,-234.0,80.0,26.0,46.0,14.0,74.0,-904.0,390.0
23.0,-234.0,79.0,27.0,49.0,11.0,69.0,-906.0,394.0
22.0,-237.0,79.0,26.0,48.0,8.0,64.0,-906.0,394.0
21.0,-238.0,75.0,28.0,50.0,7.0,63.0,-906.0,394.0
23.0,-237.0,80.0,25.0,51.0,4.0,61.0,-904.0,392.0
21.0,-236.0,75.0,26.0,51.0,6.0,58.0,-903.0,396.0
23.0,-236.0,80.0,23.0,52.0,5.0,57.0,-906.0,390.0
22.0,-237.0,76.0,21.0,54.0,4.0,57.0,-901.0,391.0
20.0,-235.0,83.0,19.0,54.0,4.0,51.0,-900.0,392.0
22.0,-235.0,80.0,19.0,56.0,4.0,56.0,-903.0,392.0
21.0,-235.0,80.0,17.0,57.0,3.0,57.0,-895.0,390.0
18.0,-235.0,78.0,14.0,59.0,5.0,48.0,-898.0,389.0
21.0,-237.0,80.0,13.0,60.0,5.0,51.0,-900.0,385.0
23.0,-235.0,81.0,11.0,61.0,8.0,52.0,-899.0,391.0
18.0,-232.0,80.0,9.0,60.0,7.0,50.0,-896.0,392.0
19.0,-232.0,78.0,9.0,59.0,11.0,53.0,-896.0,395.0
22.0,-234.0,80.0,10.0,59.0,12.0,54.0,-896.0,403.0
20.0,-233.0,81.0,11.0,58.0,14.0,54.0,-894.0,401.0
23.0,-233.0,81.0,13.0,57.0,13.0,57.0,-895.0,404.0
24.0,-235.0,80.0,13.0,56.0,16.0,57.0,-893.0,403.0
20.0,-233.0,83.0,16.0,54.0,14.0,55.0,-892.0,408.0
22.0,-233.0,83.0,17.0,55.0,16.0,58.0,-896.0,406.0
19.0,-232.0,84.0,20.0,53.0,15.0,53.0,-897.0,412.0
20.0,-232.0,82.0,23.0,53.0,14.0,54.0,-898.0,416.0
23.0,-232.0,85.0,27.0,51.0,11.0,54.0,-901.0,415.0
20.0,-237.0,86.0,30.0,49.0,15.0,57.0,-899.0,415.0
18.0,-237.0,85.0,31.0,50.0,12.0,57.0,-894.0,412.0
21.0,-234.0,87.0,33.0,48.0,13.0,55.0,-892.0,409.0
23.0,-231.0,83.0,32.0,49.0,12.0,56.0,-889.0,411.0
23.0,-233.0,87.0,30.0,48.0,14.0,56.0,-897.0,415.0
20.0,-231.0,87.0,28.0,47.0,10.0,64.0,-890.0,413.0
22.0,-231.0,84.0,26.0,46.0,12.0,61.0,-893.0,413.0
21.0,-233.0,90.0,24.0,45.0,9.0,57.0,-890.0,419.0
23.0,-233.0,86.0,21.0,44.0,11.0,59.0,-893.0,414.0
25.0,-232.0,86.0,22.0,41.0,8.0,63.0,-896.0,413.0
22.0,-233.0,86.0,22.0,43.0,9.0,61.0,-894.0,422.0
22.0,-235.0,86.0,24.0,43.0,6.0,66.0,-891.0,415.0
23.0,-233.0,85.0,25.0,44.0,7.0,65.0,-889.0,412.0
26.0,-232.0,84.0,25.0,44.0,4.0,64.0,-890.0,415.0
24.0,-231.0,84.0,25.0,46.0,6.0,64.0,-891.0,414.0
22.0,-231.0,84.0,26.0,44.0,3.0,68.0,-893.0,412.0
26.0,-232.0,82.0,27.0,45.0,6.0,66.0,-892.0,410.0
27.0,-234.0,84.0,28.0,46.0,3.0,70.0,-886.0,412.0
24.0,-231.0,83.0,28.0,45.0,3.0,70.0,-893.0,412.0
24.0,-230.0,86.0,28.0,46.0,0.0,69.0,-894.0,409.0
19.0,-233.0,85.0,29.0,48.0,2.0,56.0,-893.0,414.0
21.0,-235.0,81.0,30.0,50.0,1.0,67.0,-899.0,412.0
21.0,-231.0,85.0,30.0,52.0,2.0,62.0,-900.0,406.0
22.0,-234.0,82.0,29.0,53.0,-1.0,64.0,-899.0,410.0
21.0,-233.0,85.0,27.0,54.0,1.0,60.0,-903.0,408.0
24.0,-237.0,81.0,25.0,55.0,-1.0,61.0,-902.0,408.0
21.0,-236.0,84.0,24.0,56.0,1.0,60.0,-902.0,410.0
22.0,-237.0,85.0,25.0,58.0,-2.0,58.0,-904.0,404.0
21.0,-236.0,78.0,26.0,59.0,1.0,55.0,-905.0,402.0
23.0,-234.0,81.0,27.0,57.0,-1.0,53.0,-905.0,404.0
23.0,-239.0,84.0,26.0,57.0,1.0,58.0,-908.0,402.0
23.0,-236.0,87.0,28.0,58.0,-2.0,56.0,-903.0,400.0
22.0,-235.0,82.0,30.0,56.0,0.0,58.0,-903.0,401.0
20.0,-231.0,82.0,31.0,57.0,-1.0,59.0,-899.0,408.0
23.0,-234.0,79.0,32.0,57.0,1.0,57.0,-901.0,402.0
23.0,-234.0,82.0,31.0,58.0,0.0,58.0,-899.0,402.0
21.0,-231.0,82.0,29.0,57.0,4.0,60.0,-893.0,403.0
20.0,-231.0,83.0,26.0,58.0,3.0,59.0,-893.0,405.0
22.0,-231.0,82.0,25.0,58.0,8.0,64.0,-891.0,414.0
22.0,-231.0,86.0,22.0,58.0,6.0,59.0,-890.0,412.0
20.0,-230.0,83.0,20.0,57.0,9.0,63.0,-889.0,410.0
24.0,-228.0,85.0,19.0,58.0,7.0,57.0,-885.0,419.0
24.0,-226.0,85.0,17.0,58.0,10.0,60.0,-881.0,417.0
22.0,-228.0,86.0,17.0,59.0,9.0,62.0,-891.0,422.0
22.0,-229.0,87.0,15.0,58.0,9.0,63.0,-891.0,420.0
20.0,-228.0,84.0,13.0,57.0,3.0,57.0,-886.0,423.0
23.0,-232.0,90.0,9.0,57.0,4.0,62.0,-882.0,425.0
22.0,-230.0,84.0,8.0,59.0,0.0,58.0,-881.0,430.0
23.0,-231.0,86.0,7.0,59.0,1.0,59.0,-886.0,423.0
22.0,-230.0,90.0,7.0,57.0,0.0,60.0,-884.0,426.0
19.0,-230.0,92.0,8.0,58.0,1.0,60.0,-885.0,432.0
21.0,-232.0,86.0,8.0,58.0,0.0,59.0,-889.0,424.0
22.0,-232.0,88.0,11.0,57.0,0.0,58.0,-883.0,427.0
22.0,-230.0,87.0,11.0,58.0,0.0,59.0,-891.0,432.0
22.0,-231.0,86.0,10.0,56.0,-1.0,55.0,-891.0,424.0
21.0,-231.0,89.0,8.0,55.0,-4.0,56.0,-888.0,429.0
19.0,-226.0,87.0,8.0,53.0,-2.0,58.0,-886.0,431.0
21.0,-231.0,86.0,9.0,54.0,-4.0,55.0,-897.0,427.0
20.0,-233.0,86.0,9.0,53.0,-2.0,55.0,-888.0,425.0
21.0,-234.0,88.0,9.0,56.0,-3.0,56.0,-891.0,426.0
19.0,-229.0,86.0,9.0,57.0,-1.0,59.0,-893.0,419.0
20.0,-234.0,87.0,7.0,56.0,-1.0,55.0,-892.0,420.0
19.0,-233.0,87.0,10.0,58.0,0.0,54.0,-891.0,418.0
20.0,-231.0,82.0,10.0,60.0,1.0,55.0,-886.0,412.0
20.0,-232.0,81.0,8.0,63.0,3.0,57.0,-888.0,413.0
20.0,-229.0,86.0,6.0,64.0,3.0,58.0,-888.0,410.0
19.0,-232.0,85.0,3.0,63.0,4.0,57.0,-892.0,415.0
21.0,-232.0,86.0,-2.0,62.0,2.0,55.0,-891.0,413.0
20.0,-233.0,84.0,-6.0,62.0,3.0,54.0,-893.0,409.0
20.0,-232.0,84.0,-7.0,59.0,2.0,53.0,-892.0,408.0
23.0,-234.0,83.0,-9.0,58.0,1.0,57.0,-895.0,413.0
23.0,-233.0,84.0,-9.0,59.0,3.0,56.0,-892.0,407.0
23.0,-233.0,84.0,-9.0,58.0,3.0,63.0,-893.0,409.0
23.0,-234.0,85.0,-10.0,58.0,2.0,59.0,-890.0,410.0
22.0,-234.0,86.0,-10.0,58.0,3.0,58.0,-894.0,412.0
23.0,-233.0,87.0,-9.0,57.0,5.0,64.0,-896.0,414.0
22.0,-232.0,86.0,-8.0,57.0,4.0,60.0,-893.0,413.0
23.0,-231.0,87.0,-7.0,57.0,5.0,61.0,-894.0,409.0
26.0,-236.0,87.0,-5.0,56.0,3.0,63.0,-894.0,420.0
24.0,-232.0,87.0,-4.0,58.0,4.0,64.0,-896.0,417.0
23.0,-232.0,85.0,-5.0,59.0,1.0,59.0,-898.0,417.0
20.0,-234.0,88.0,-6.0,60.0,1.0,56.0,-900.0,418.0
20.0,-235.0,89.0,-6.0,61.0,-1.0,57.0,-898.0,419.0
22.0,-234.0,86.0,-8.0,62.0,0.0,61.0,-899.0,420.0
21.0,-238.0,82.0,-7.0,62.0,-1.0,58.0,-896.0,417.0
23.0,-234.0,82.0,-6.0,64.0,0.0,58.0,-900.0,413.0
21.0,-232.0,84.0,-6.0,65.0,1.0,59.0,-897.0,416.0
20.0,-233.0,85.0,-6.0,63.0,2.0,58.0,-893.0,408.0
22.0,-232.0,82.0,-6.0,63.0,1.0,53.0,-893.0,410.0
18.0,-231.0,83.0,-6.0,62.0,3.0,53.0,-894.0,403.0
20.0,-233.0,81.0,-5.0,60.0,4.0,55.0,-891.0,405.0
21.0,-232.0,85.0,-5.0,59.0,5.0,57.0,-883.0,411.0
20.0,-230.0,87.0,-3.0,56.0,4.0,55.0,-884.0,411.0
21.0,-230.0,85.0,-1.0,54.0,5.0,53.0,-886.0,418.0
22.0,-232.0,81.0,3.0,53.0,3.0,60.0,-888.0,423.0
24.0,-229.0,89.0,5.0,53.0,5.0,57.0,-883.0,423.0
24.0,-235.0,86.0,7.0,53.0,4.0,58.0,-884.0,425.0
23.0,-234.0,88.0,11.0,55.0,5.0,57.0,-888.0,430.0
20.0,-234.0,85.0,16.0,54.0,7.0,65.0,-886.0,425.0
23.0,-233.0,88.0,17.0,55.0,8.0,63.0,-889.0,431.0
22.0,-231.0,86.0,18.0,58.0,7.0,61.0,-892.0,420.0
22.0,-231.0,87.0,19.0,58.0,10.0,59.0,-892.0,421.0
23.0,-232.0,88.0,16.0,57.0,8.0,62.0,-891.0,420.0
21.0,-232.0,87.0,15.0,56.0,10.0,57.0,-891.0,422.0
22.0,-235.0,89.0,14.0,57.0,7.0,55.0,-891.0,421.0
24.0,-233.0,87.0,13.0,56.0,8.0,62.0,-895.0,424.0
22.0,-234.0,84.0,12.0,56.0,6.0,57.0,-893.0,423.0
20.0,-231.0,85.0,11.0,56.0,7.0,56.0,-898.0,426.0
18.0,-230.0,87.0,8.0,56.0,4.0,54.0,-896.0,417.0
18.0,-232.0,86.0,7.0,56.0,6.0,51.0,-896.0,421.0
17.0,-229.0,83.0,5.0,58.0,4.0,56.0,-894.0,416.0
21.0,-234.0,87.0,5.0,60.0,6.0,52.0,-895.0,420.0
21.0,-236.0,89.0,3.0,61.0,5.0,55.0,-894.0,421.0
22.0,-235.0,86.0,2.0,61.0,5.0,50.0,-895.0,412.0
19.0,-233.0,86.0,-1.0,61.0,3.0,57.0,-891.0,417.0
23.0,-234.0,87.0,-4.0,62.0,4.0,56.0,-893.0,414.0
19.0,-229.0,82.0,-7.0,61.0,2.0,52.0,-890.0,416.0
19.0,-232.0,86.0,-9.0,60.0,4.0,57.0,-891.0,413.0
20.0,-232.0,83.0,-9.0,58.0,3.0,59.0,-888.0,416.0
21.0,-232.0,87.0,-11.0,57.0,6.0,61.0,-889.0,420.0
20.0,-234.0,85.0,-12.0,56.0,3.0,51.0,-891.0,416.0
20.0,-232.0,87.0,-11.0,55.0,6.0,55.0,-892.0,413.0
18.0,-231.0,86.0,-10.0,54.0,3.0,55.0,-894.0,417.0
21.0,-233.0,86.0,-7.0,55.0,7.0,54.0,-893.0,416.0
21.0,-234.0,86.0,-6.0,52.0,4.0,55.0,-889.0,424.0
20.0,-233.0,88.0,-4.0,52.0,7.0,56.0,-892.0,416.0
21.0,-233.0,82.0,-1.0,52.0,4.0,52.0,-895.0,419.0
19.0,-231.0,86.0,1.0,55.0,7.0,53.0,-890.0,422.0
20.0,-233.0,87.0,3.0,55.0,4.0,53.0,-894.0,417.0
21.0,-231.0,89.0,4.0,57.0,6.0,57.0,-895.0,417.0
19.0,-230.0,85.0,3.0,57.0,3.0,50.0,-887.0,419.0
20.0,-231.0,87.0,3.0,59.0,5.0,59.0,-889.0,418.0
24.0,-232.0,88.0,4.0,57.0,3.0,55.0,-891.0,418.0
18.0,-230.0,84.0,0.0,55.0,3.0,54.0,-888.0,424.0
20.0,-232.0,86.0,-3.0,56.0,2.0,54.0,-893.0,423.0
19.0,-231.0,90.0,-6.0,57.0,3.0,55.0,-884.0,425.0
21.0,-233.0,88.0,-10.0,56.0,1.0,57.0,-887.0,424.0
19.0,-230.0,88.0,-12.0,57.0,4.0,56.0,-889.0,420.0
21.0,-231.0,88.0,-16.0,57.0,0.0,50.0,-885.0,422.0
19.0,-229.0,88.0,-19.0,58.0,1.0,57.0,-889.0,425.0
19.0,-230.0,89.0,-22.0,57.0,-2.0,54.0,-890.0,418.0
21.0,-231.0,83.0,-24.0,55.0,-1.0,54.0,-895.0,417.0
22.0,-231.0,87.0,-26.0,54.0,-2.0,50.0,-897.0,416.0
20.0,-234.0,82.0,-31.0,54.0,0.0,52.0,-896.0,412.0
21.0,-234.0,85.0,-33.0,53.0,-1.0,50.0,-891.0,411.0
20.0,-232.0,87.0,-41.0,51.0,2.0,54.0,-893.0,405.0
17.0,-234.0,84.0,-46.0,51.0,2.0,49.0,-904.0,410.0
22.0,-235.0,81.0,-54.0,53.0,6.0,45.0,-900.0,407.0
20.0,-237.0,84.0,-62.0,54.0,6.0,51.0,-903.0,404.0
19.0,-237.0,85.0,-71.0,56.0,13.0,51.0,-908.0,402.0
16.0,-239.0,82.0,-81.0,57.0,18.0,47.0,-905.0,403.0
19.0,-235.0,82.0,-93.0,57.0,23.0,47.0,-906.0,402.0
20.0,-236.0,82.0,-103.0,55.0,27.0,36.0,-908.0,401.0
17.0,-234.0,80.0,-112.0,55.0,34.0,42.0,-902.0,401.0
16.0,-233.0,82.0,-124.0,55.0,36.0,44.0,-892.0,402.0
20.0,-230.0,82.0,-138.0,54.0,39.0,46.0,-891.0,400.0
16.0,-228.0,80.0,-157.0,52.0,41.0,45.0,-886.0,399.0
19.0,-228.0,84.0,-184.0,51.0,42.0,45.0,-883.0,401.0
17.0,-227.0,84.0,-208.0,50.0,44.0,48.0,-879.0,402.0
19.0,-230.0,85.0,-233.0,47.0,46.0,49.0,-877.0,402.0
18.0,-231.0,86.0,-255.0,45.0,46.0,45.0,-881.0,406.0
17.0,-225.0,83.0,-277.0,42.0,45.0,45.0,-879.0,410.0
19.0,-229.0,85.0,-295.0,40.0,43.0,44.0,-879.0,411.0
19.0,-231.0,86.0,-309.0,39.0,42.0,47.0,-879.0,417.0
21.0,-230.0,83.0,-317.0,38.0,42.0,50.0,-883.0,415.0
19.0,-229.0,84.0,-320.0,40.0,40.0,54.0,-876.0,426.0
22.0,-230.0,85.0,-317.0,40.0,37.0,58.0,-877.0,427.0
20.0,-229.0,85.0,-312.0,42.0,34.0,59.0,-873.0,424.0
22.0,-226.0,87.0,-304.0,43.0,29.0,58.0,-875.0,428.0
22.0,-226.0,90.0,-295.0,45.0,26.0,58.0,-877.0,437.0
21.0,-226.0,89.0,-284.0,46.0,25.0,56.0,-869.0,435.0
20.0,-228.0,92.0,-271.0,48.0,20.0,59.0,-876.0,434.0
22.0,-227.0,91.0,-257.0,51.0,18.0,57.0,-862.0,435.0
20.0,-227.0,91.0,-245.0,54.0,12.0,52.0,-876.0,438.0
21.0,-228.0,90.0,-230.0,54.0,11.0,56.0,-868.0,439.0
19.0,-227.0,90.0,-214.0,55.0,8.0,52.0,-873.0,441.0
18.0,-225.0,92.0,-202.0,54.0,6.0,57.0,-868.0,441.0
19.0,-227.0,89.0,-187.0,54.0,4.0,57.0,-875.0,431.0
20.0,-227.0,91.0,-175.0,55.0,2.0,57.0,-874.0,431.0
19.0,-228.0,90.0,-164.0,56.0,0.0,55.0,-872.0,420.0
19.0,-228.0,85.0,-160.0,54.0,0.0,59.0,-878.0,419.0
22.0,-231.0,90.0,-156.0,54.0,-4.0,54.0,-872.0,413.0
19.0,-229.0,84.0,-153.0,53.0,-5.0,57.0,-879.0,414.0
21.0,-226.0,85.0,-153.0,53.0,-6.0,58.0,-872.0,406.0
23.0,-228.0,82.0,-152.0,55.0,-4.0,51.0,-880.0,402.0
19.0,-228.0,83.0,-154.0,54.0,-6.0,53.0,-880.0,402.0
22.0,-230.0,77.0,-156.0,55.0,-4.0,56.0,-884.0,402.0
20.0,-230.0,79.0,-161.0,54.0,-5.0,58.0,-880.0,401.0
18.0,-230.0,82.0,-168.0,52.0,-3.0,51.0,-892.0,396.0
16.0,-233.0,75.0,-173.0,52.0,-2.0,53.0,-890.0,392.0
15.0,-232.0,84.0,-182.0,51.0,3.0,40.0,-894.0,386.0
22.0,-236.0,73.0,-187.0,49.0,5.0,58.0,-902.0,384.0
23.0,-235.0,75.0,-192.0,51.0,4.0,50.0,-902.0,378.0
18.0,-234.0,78.0,-197.0,48.0,2.0,52.0,-903.0,378.0
21.0,-234.0,77.0,-202.0,46.0,4.0,55.0,-908.0,381.0
19.0,-235.0,75.0,-208.0,42.0,4.0,53.0,-908.0,372.0
20.0,-238.0,71.0,-215.0,41.0,8.0,56.0,-912.0,364.0
14.0,-235.0,76.0,-222.0,39.0,8.0,57.0,-908.0,358.0
27.0,-239.0,72.0,-227.0,34.0,19.0,72.0,-920.0,363.0
24.0,-242.0,70.0,-234.0,37.0,13.0,59.0,-918.0,360.0
21.0,-240.0,72.0,-237.0,39.0,13.0,58.0,-921.0,359.0
20.0,-239.0,73.0,-242.0,39.0,11.0,63.0,-917.0,357.0
22.0,-238.0,71.0,-246.0,39.0,12.0,59.0,-920.0,351.0
18.0,-239.0,73.0,-249.0,38.0,10.0,63.0,-920.0,356.0
23.0,-236.0,72.0,-250.0,37.0,11.0,59.0,-912.0,358.0
22.0,-238.0,71.0,-251.0,36.0,10.0,57.0,-911.0,356.0
22.0,-236.0,70.0,-252.0,35.0,14.0,59.0,-912.0,352.0
15.0,-236.0,70.0,-254.0,33.0,14.0,35.0,-905.0,353.0
25.0,-238.0,68.0,-258.0,33.0,20.0,71.0,-913.0,346.0
23.0,-239.0,68.0,-262.0,38.0,10.0,62.0,-910.0,348.0
20.0,-235.0,69.0,-268.0,41.0,10.0,58.0,-908.0,343.0
23.0,-235.0,66.0,-277.0,43.0,7.0,55.0,-908.0,342.0
22.0,-239.0,69.0,-284.0,46.0,10.0,57.0,-909.0,343.0
22.0,-238.0,69.0,-290.0,48.0,9.0,54.0,-910.0,347.0
21.0,-237.0,67.0,-298.0,50.0,12.0,61.0,-909.0,349.0
19.0,-236.0,70.0,-305.0,49.0,10.0,42.0,-903.0,353.0
23.0,-238.0,71.0,-311.0,44.0,18.0,65.0,-909.0,356.0
24.0,-239.0,69.0,-313.0,44.0,16.0,72.0,-918.0,351.0
20.0,-239.0,71.0,-313.0,47.0,14.0,58.0,-915.0,348.0
20.0,-240.0,72.0,-311.0,52.0,9.0,58.0,-917.0,346.0
22.0,-240.0,70.0,-314.0,51.0,6.0,55.0,-920.0,347.0
20.0,-239.0,68.0,-320.0,49.0,-2.0,53.0,-916.0,349.0
16.0,-241.0,71.0,-323.0,47.0,-3.0,31.0,-911.0,348.0
14.0,-237.0,72.0,-324.0,43.0,-8.0,35.0,-924.0,350.0
21.0,-242.0,70.0,-324.0,39.0,-3.0,56.0,-922.0,340.0
20.0,-238.0,66.0,-322.0,45.0,-11.0,46.0,-917.0,342.0
18.0,-240.0,68.0,-319.0,53.0,-14.0,43.0,-909.0,330.0
18.0,-237.0,69.0,-315.0,56.0,-17.0,33.0,-914.0,335.0
17.0,-237.0,69.0,-314.0,58.0,-17.0,38.0,-913.0,339.0
16.0,-238.0,65.0,-311.0,60.0,-20.0,44.0,-910.0,333.0
16.0,-235.0,69.0,-309.0,60.0,-18.0,32.0,-909.0,341.0
30.0,-243.0,65.0,-309.0,60.0,-16.0,46.0,-911.0,336.0
19.0,-237.0,66.0,-307.0,64.0,-15.0,49.0,-911.0,337.0
20.0,-241.0,71.0,-305.0,70.0,-19.0,43.0,-915.0,339.0
20.0,-235.0,66.0,-307.0,74.0,-19.0,50.0,-909.0,337.0
18.0,-240.0,68.0,-308.0,79.0,-23.0,43.0,-913.0,344.0
20.0,-240.0,69.0,-311.0,82.0,-21.0,52.0,-929.0,349.0
17.0,-239.0,64.0,-312.0,88.0,-21.0,55.0,-925.0,348.0
21.0,-241.0,68.0,-311.0,95.0,-17.0,50.0,-920.0,344.0
22.0,-241.0,69.0,-310.0,97.0,-15.0,58.0,-933.0,340.0
22.0,-240.0,69.0,-305.0,105.0,-13.0,57.0,-928.0,337.0
20.0,-239.0,66.0,-297.0,111.0,-14.0,57.0,-930.0,332.0
24.0,-245.0,65.0,-289.0,118.0,-9.0,61.0,-928.0,333.0
20.0,-243.0,66.0,-276.0,122.0,-7.0,59.0,-926.0,325.0
23.0,-244.0,62.0,-263.0,121.0,-3.0,62.0,-933.0,326.0
22.0,-243.0,60.0,-252.0,123.0,0.0,62.0,-929.0,309.0
24.0,-241.0,58.0,-241.0,124.0,3.0,63.0,-924.0,306.0
23.0,-239.0,62.0,-233.0,122.0,-1.0,73.0,-921.0,299.0
24.0,-239.0,54.0,-231.0,117.0,-5.0,73.0,-920.0,299.0
25.0,-240.0,59.0,-237.0,111.0,-15.0,72.0,-922.0,296.0
26.0,-243.0,53.0,-243.0,108.0,-21.0,72.0,-929.0,292.0
28.0,-247.0,53.0,-251.0,107.0,-23.0,81.0,-934.0,280.0
28.0,-245.0,50.0,-261.0,108.0,-25.0,83.0,-946.0,271.0
25.0,-248.0,46.0,-274.0,115.0,-30.0,80.0,-951.0,264.0
24.0,-248.0,46.0,-289.0,121.0,-35.0,69.0,-950.0,261.0
22.0,-249.0,50.0,-304.0,122.0,-41.0,62.0,-951.0,255.0
24.0,-251.0,46.0,-318.0,120.0,-45.0,64.0,-961.0,259.0
22.0,-250.0,46.0,-327.0,125.0,-50.0,51.0,-963.0,252.0
19.0,-252.0,43.0,-330.0,132.0,-48.0,52.0,-965.0,242.0
18.0,-251.0,40.0,-334.0,139.0,-46.0,51.0,-965.0,235.0
14.0,-249.0,39.0,-341.0,143.0,-43.0,35.0,-953.0,229.0
20.0,-249.0,36.0,-354.0,138.0,-40.0,47.0,-958.0,224.0
16.0,-250.0,36.0,-365.0,138.0,-42.0,37.0,-962.0,213.0
14.0,-246.0,34.0,-379.0,139.0,-44.0,38.0,-962.0,216.0
16.0,-249.0,34.0,-389.0,138.0,-43.0,33.0,-953.0,212.0
15.0,-248.0,32.0,-397.0,137.0,-38.0,34.0,-951.0,211.0
17.0,-246.0,31.0,-406.0,136.0,-32.0,42.0,-955.0,206.0
20.0,-247.0,32.0,-416.0,135.0,-28.0,52.0,-952.0,196.0
21.0,-250.0,30.0,-427.0,137.0,-24.0,55.0,-952.0,196.0
27.0,-250.0,28.0,-439.0,134.0,-22.0,67.0,-958.0,189.0
26.0,-250.0,32.0,-448.0,134.0,-21.0,63.0,-955.0,193.0
24.0,-250.0,31.0,-455.0,136.0,-21.0,61.0,-955.0,198.0
27.0,-248.0,25.0,-458.0,139.0,-24.0,81.0,-961.0,190.0
24.0,-252.0,32.0,-460.0,142.0,-26.0,70.0,-960.0,194.0
24.0,-251.0,31.0,-461.0,143.0,-32.0,75.0,-963.0,201.0
21.0,-252.0,28.0,-459.0,141.0,-36.0,66.0,-972.0,198.0
22.0,-252.0,29.0,-455.0,139.0,-40.0,65.0,-970.0,198.0
19.0,-253.0,27.0,-450.0,135.0,-42.0,47.0,-957.0,194.0
24.0,-253.0,34.0,-446.0,124.0,-45.0,67.0,-968.0,202.0
25.0,-255.0,32.0,-439.0,125.0,-50.0,64.0,-973.0,194.0
15.0,-253.0,29.0,-424.0,129.0,-56.0,53.0,-974.0,194.0
18.0,-255.0,24.0,-412.0,131.0,-56.0,55.0,-972.0,184.0
20.0,-254.0,28.0,-400.0,129.0,-57.0,54.0,-970.0,183.0
19.0,-251.0,27.0,-390.0,128.0,-53.0,45.0,-968.0,179.0
16.0,-252.0,25.0,-380.0,125.0,-51.0,42.0,-964.0,175.0
16.0,-250.0,25.0,-373.0,123.0,-46.0,44.0,-959.0,181.0
18.0,-248.0,27.0,-370.0,118.0,-45.0,45.0,-956.0,178.0
20.0,-250.0,29.0,-368.0,113.0,-43.0,47.0,-953.0,187.0
17.0,-245.0,27.0,-364.0,108.0,-42.0,38.0,-946.0,177.0
19.0,-247.0,29.0,-367.0,97.0,-32.0,47.0,-952.0,183.0
18.0,-246.0,25.0,-367.0,95.0,-37.0,53.0,-947.0,180.0
19.0,-246.0,27.0,-366.0,91.0,-34.0,49.0,-947.0,184.0
13.0,-244.0,26.0,-370.0,85.0,-39.0,32.0,-944.0,187.0
17.0,-250.0,28.0,-374.0,78.0,-35.0,45.0,-949.0,181.0
10.0,-244.0,27.0,-378.0,72.0,-33.0,18.0,-943.0,179.0
21.0,-253.0,24.0,-385.0,61.0,-19.0,55.0,-966.0,173.0
21.0,-256.0,26.0,-391.0,61.0,-26.0,40.0,-958.0,166.0
19.0,-251.0,22.0,-395.0,64.0,-30.0,46.0,-958.0,174.0
17.0,-252.0,26.0,-396.0,66.0,-34.0,45.0,-954.0,170.0
20.0,-251.0,25.0,-398.0,68.0,-34.0,45.0,-966.0,174.0
12.0,-245.0,22.0,-400.0,64.0,-40.0,26.0,-948.0,169.0
21.0,-248.0,26.0,-401.0,60.0,-41.0,45.0,-954.0,176.0
16.0,-248.0,24.0,-396.0,65.0,-43.0,30.0,-953.0,178.0
26.0,-248.0,24.0,-395.0,65.0,-38.0,61.0,-960.0,173.0
26.0,-251.0,32.0,-390.0,67.0,-37.0,59.0,-972.0,168.0
21.0,-249.0,21.0,-389.0,64.0,-39.0,55.0,-949.0,172.0
21.0,-247.0,20.0,-386.0,70.0,-37.0,59.0,-955.0,168.0
24.0,-253.0,23.0,-388.0,76.0,-34.0,62.0,-957.0,171.0
21.0,-249.0,28.0,-391.0,80.0,-39.0,45.0,-950.0,174.0
17.0,-249.0,23.0,-395.0,83.0,-41.0,40.0,-960.0,171.0
18.0,-248.0,25.0,-399.0,77.0,-45.0,51.0,-950.0,174.0
15.0,-244.0,22.0,-399.0,79.0,-41.0,36.0,-941.0,171.0
23.0,-245.0,23.0,-403.0,82.0,-43.0,70.0,-946.0,169.0
21.0,-246.0,21.0,-411.0,82.0,-45.0,44.0,-939.0,175.0
21.0,-243.0,29.0,-420.0,80.0,-55.0,54.0,-931.0,169.0
14.0,-247.0,26.0,-427.0,77.0,-56.0,26.0,-950.0,184.0
7.0,-235.0,24.0,-424.0,65.0,-62.0,21.0,-931.0,181.0
18.0,-245.0,31.0,-423.0,63.0,-50.0,36.0,-937.0,183.0
15.0,-248.0,27.0,-415.0,75.0,-46.0,31.0,-952.0,178.0
24.0,-250.0,24.0,-415.0,73.0,-40.0,43.0,-950.0,164.0
21.0,-252.0,25.0,-423.0,68.0,-54.0,56.0,-972.0,165.0
20.0,-245.0,24.0,-423.0,67.0,-67.0,35.0,-982.0,183.0
19.0,-247.0,27.0,-423.0,58.0,-80.0,42.0,-948.0,176.0
19.0,-253.0,22.0,-423.0,69.0,-73.0,29.0,-950.0,166.0
19.0,-252.0,26.0,-422.0,72.0,-70.0,50.0,-970.0,176.0
19.0,-253.0,26.0,-412.0,78.0,-57.0,43.0,-973.0,176.0
15.0,-247.0,22.0,-402.0,75.0,-55.0,33.0,-964.0,161.0
13.0,-254.0,28.0,-399.0,66.0,-47.0,37.0,-974.0,173.0
16.0,-254.0,23.0,-394.0,56.0,-48.0,33.0,-962.0,184.0
16.0,-252.0,23.0,-387.0,37.0,-42.0,29.0,-956.0,165.0
25.0,-257.0,17.0,-389.0,32.0,-29.0,58.0,-971.0,155.0
18.0,-249.0,19.0,-392.0,34.0,-24.0,41.0,-958.0,158.0
20.0,-245.0,18.0,-395.0,33.0,-27.0,55.0,-939.0,142.0
16.0,-247.0,15.0,-409.0,41.0,-21.0,48.0,-952.0,140.0
20.0,-248.0,20.0,-422.0,43.0,-14.0,51.0,-962.0,147.0
19.0,-247.0,16.0,-430.0,40.0,-11.0,53.0,-958.0,148.0
26.0,-248.0,16.0,-438.0,37.0,-6.0,80.0,-962.0,145.0
24.0,-247.0,17.0,-439.0,41.0,-2.0,64.0,-967.0,150.0
24.0,-248.0,17.0,-431.0,39.0,-7.0,59.0,-956.0,153.0
32.0,-259.0,15.0,-423.0,47.0,1.0,75.0,-972.0,150.0
19.0,-253.0,16.0,-414.0,54.0,-5.0,43.0,-961.0,144.0
18.0,-251.0,15.0,-407.0,52.0,-5.0,50.0,-971.0,135.0
16.0,-257.0,13.0,-404.0,47.0,-5.0,35.0,-973.0,125.0
17.0,-258.0,9.0,-402.0,42.0,1.0,20.0,-978.0,104.0
23.0,-255.0,9.0,-404.0,38.0,7.0,53.0,-982.0,109.0
20.0,-252.0,6.0,-400.0,30.0,0.0,42.0,-971.0,104.0
24.0,-252.0,4.0,-402.0,25.0,5.0,58.0,-966.0,92.0
15.0,-254.0,-1.0,-414.0,29.0,7.0,34.0,-981.0,78.0
19.0,-258.0,1.0,-427.0,27.0,7.0,48.0,-998.0,80.0
23.0,-258.0,2.0,-441.0,20.0,7.0,53.0,-998.0,73.0
13.0,-260.0,-7.0,-455.0,12.0,1.0,-1.0,-983.0,57.0
23.0,-261.0,-9.0,-466.0,-6.0,2.0,58.0,-1005.0,46.0
26.0,-258.0,-8.0,-477.0,-9.0,11.0,68.0,-998.0,37.0
22.0,-257.0,-13.0,-488.0,-1.0,21.0,60.0,-1003.0,29.0
32.0,-258.0,-15.0,-505.0,1.0,26.0,87.0,-1002.0,18.0
34.0,-262.0,-19.0,-529.0,1.0,24.0,89.0,-1000.0,10.0
22.0,-263.0,-20.0,-555.0,0.0,22.0,57.0,-1022.0,-7.0
23.0,-261.0,-28.0,-577.0,-7.0,31.0,61.0,-1022.0,-26.0
35.0,-262.0,-23.0,-604.0,-14.0,38.0,96.0,-1020.0,-19.0
26.0,-261.0,-22.0,-611.0,-24.0,25.0,77.0,-1013.0,-16.0
38.0,-262.0,-28.0,-625.0,-38.0,26.0,108.0,-1018.0,-32.0
14.0,-261.0,-31.0,-642.0,-29.0,18.0,46.0,-1024.0,-36.0
20.0,-268.0,-36.0,-658.0,-26.0,12.0,55.0,-1044.0,-45.0
21.0,-268.0,-35.0,-668.0,-30.0,3.0,37.0,-1041.0,-48.0
21.0,-268.0,-32.0,-670.0,-34.0,-8.0,51.0,-1045.0,-40.0
-5.0,-292.0,-27.0,-667.0,-33.0,-25.0,-2.0,-1089.0,-36.0
17.0,-270.0,-33.0,-653.0,-55.0,-41.0,50.0,-1052.0,-57.0
13.0,-274.0,-25.0,-643.0,-59.0,-44.0,24.0,-1069.0,-39.0
19.0,-275.0,-28.0,-630.0,-63.0,-44.0,55.0,-1060.0,-32.0
17.0,-275.0,-26.0,-609.0,-64.0,-46.0,39.0,-1060.0,-18.0
6.0,-268.0,-29.0,-584.0,-70.0,-47.0,32.0,-1059.0,-15.0
14.0,-277.0,-18.0,-556.0,-81.0,-54.0,41.0,-1068.0,-2.0
25.0,-275.0,-24.0,-527.0,-108.0,-67.0,62.0,-1067.0,-16.0
27.0,-274.0,-17.0,-509.0,-119.0,-58.0,82.0,-1055.0,1.0
26.0,-276.0,-22.0,-493.0,-118.0,-56.0,72.0,-1087.0,8.0
21.0,-280.0,-24.0,-473.0,-126.0,-73.0,37.0,-1093.0,-7.0
21.0,-284.0,-26.0,-456.0,-136.0,-73.0,51.0,-1099.0,-10.0
14.0,-276.0,-23.0,-451.0,-138.0,-72.0,61.0,-1092.0,-12.0
27.0,-289.0,-20.0,-459.0,-152.0,-47.0,62.0,-1102.0,-4.0
28.0,-278.0,-16.0,-461.0,-156.0,-45.0,69.0,-1122.0,15.0
28.0,-274.0,-18.0,-448.0,-167.0,-74.0,68.0,-1075.0,3.0
28.0,-284.0,-23.0,-441.0,-148.0,-82.0,81.0,-1092.0,-19.0
51.0,-271.0,-20.0,-442.0,-128.0,-93.0,157.0,-1068.0,1.0
9.0,-279.0,-33.0,-444.0,-89.0,-107.0,11.0,-1086.0,-43.0
29.0,-296.0,-51.0,-462.0,-101.0,-67.0,13.0,-1079.0,-117.0
30.0,-291.0,-43.0,-513.0,-122.0,-51.0,66.0,-1114.0,-102.0
23.0,-285.0,-45.0,-526.0,-132.0,-60.0,72.0,-1109.0,-91.0
21.0,-281.0,-36.0,-526.0,-139.0,-78.0,47.0,-1091.0,-84.0
9.0,-275.0,-40.0,-531.0,-147.0,-85.0,11.0,-1085.0,-84.0
5.0,-283.0,-44.0,-549.0,-155.0,-91.0,4.0,-1105.0,-101.0
0.0,-189.0,-31.0,-581.0,-166.0,-88.0,27.0,-1023.0,-134.0
25.0,-302.0,-59.0,-629.0,-198.0,-80.0,59.0,-1170.0,-157.0
11.0,-286.0,-61.0,-678.0,-189.0,-101.0,12.0,-1133.0,-165.0
15.0,-297.0,-60.0,-717.0,-178.0,-127.0,23.0,-1151.0,-181.0
16.0,-299.0,-71.0,-747.0,-177.0,-141.0,34.0,-1168.0,-194.0
20.0,-301.0,-72.0,-767.0,-165.0,-154.0,33.0,-1170.0,-223.0
19.0,-304.0,-78.0,-785.0,-153.0,-159.0,46.0,-1178.0,-243.0
21.0,-303.0,-79.0,-810.0,-141.0,-164.0,42.0,-1176.0,-258.0
19.0,-305.0,-88.0,-837.0,-126.0,-165.0,43.0,-1183.0,-272.0
-40.0,-250.0,-92.0,-859.0,-106.0,-158.0,65.0,-1180.0,-288.0
60.0,-329.0,-86.0,-902.0,-115.0,-103.0,211.0,-1253.0,-284.0
24.0,-321.0,-90.0,-931.0,-76.0,-142.0,65.0,-1242.0,-285.0
22.0,-317.0,-88.0,-937.0,-48.0,-158.0,42.0,-1216.0,-276.0
19.0,-314.0,-87.0,-941.0,-24.0,-157.0,38.0,-1212.0,-277.0
18.0,-313.0,-89.0,-946.0,-9.0,-150.0,45.0,-1215.0,-276.0
19.0,-314.0,-91.0,-947.0,5.0,-148.0,41.0,-1212.0,-280.0
18.0,-312.0,-87.0,-945.0,16.0,-144.0,42.0,-1211.0,-278.0
15.0,-312.0,-91.0,-941.0,21.0,-144.0,27.0,-1212.0,-277.0
16.0,-316.0,-89.0,-933.0,21.0,-141.0,25.0,-1208.0,-276.0
12.0,-311.0,-90.0,-921.0,21.0,-146.0,15.0,-1207.0,-271.0
13.0,-312.0,-93.0,-905.0,23.0,-147.0,16.0,-1195.0,-278.0
15.0,-307.0,-88.0,-889.0,24.0,-152.0,22.0,-1180.0,-279.0
15.0,-301.0,-85.0,-871.0,24.0,-150.0,28.0,-1178.0,-271.0
18.0,-304.0,-84.0,-862.0,29.0,-150.0,39.0,-1181.0,-268.0
19.0,-302.0,-85.0,-856.0,41.0,-145.0,38.0,-1168.0,-270.0
23.0,-299.0,-86.0,-860.0,55.0,-138.0,55.0,-1155.0,-272.0
26.0,-291.0,-87.0,-869.0,73.0,-123.0,71.0,-1139.0,-275.0
31.0,-290.0,-88.0,-882.0,89.0,-114.0,86.0,-1123.0,-278.0
33.0,-284.0,-91.0,-896.0,98.0,-101.0,94.0,-1106.0,-281.0
34.0,-281.0,-89.0,-905.0,96.0,-96.0,95.0,-1097.0,-284.0
28.0,-281.0,-88.0,-909.0,88.0,-88.0,91.0,-1093.0,-277.0
25.0,-275.0,-85.0,-901.0,75.0,-87.0,79.0,-1091.0,-276.0
30.0,-280.0,-91.0,-886.0,63.0,-84.0,81.0,-1086.0,-280.0
28.0,-276.0,-86.0,-870.0,50.0,-85.0,78.0,-1074.0,-271.0
32.0,-277.0,-88.0,-851.0,40.0,-80.0,92.0,-1071.0,-265.0
37.0,-269.0,-80.0,-827.0,34.0,-78.0,100.0,-1067.0,-271.0
37.0,-267.0,-89.0,-802.0,28.0,-72.0,103.0,-1051.0,-275.0
42.0,-270.0,-89.0,-781.0,22.0,-75.0,121.0,-1041.0,-283.0
37.0,-264.0,-97.0,-772.0,26.0,-69.0,104.0,-1027.0,-276.0
24.0,-259.0,-93.0,-770.0,26.0,-67.0,96.0,-1024.0,-299.0
32.0,-259.0,-97.0,-778.0,19.0,-48.0,90.0,-1018.0,-306.0
31.0,-260.0,-96.0,-794.0,17.0,-27.0,77.0,-1026.0,-312.0
17.0,-271.0,-105.0,-804.0,15.0,-20.0,71.0,-1038.0,-309.0
40.0,-257.0,-97.0,-799.0,-9.0,-18.0,116.0,-1001.0,-313.0
37.0,-252.0,-97.0,-780.0,-17.0,2.0,111.0,-975.0,-310.0
42.0,-249.0,-95.0,-766.0,-28.0,16.0,123.0,-967.0,-316.0
44.0,-250.0,-100.0,-758.0,-38.0,32.0,135.0,-953.0,-318.0
47.0,-251.0,-101.0,-753.0,-48.0,49.0,142.0,-966.0,-320.0
49.0,-249.0,-103.0,-744.0,-59.0,71.0,170.0,-961.0,-325.0
56.0,-254.0,-100.0,-730.0,-65.0,94.0,183.0,-966.0,-330.0
53.0,-248.0,-105.0,-695.0,-76.0,104.0,178.0,-959.0,-339.0
52.0,-247.0,-105.0,-659.0,-84.0,110.0,180.0,-962.0,-346.0
52.0,-244.0,-109.0,-620.0,-94.0,120.0,180.0,-948.0,-358.0
51.0,-244.0,-110.0,-583.0,-103.0,125.0,170.0,-939.0,-362.0
51.0,-241.0,-112.0,-552.0,-108.0,131.0,170.0,-933.0,-372.0
46.0,-236.0,-116.0,-522.0,-109.0,129.0,151.0,-920.0,-387.0
48.0,-236.0,-114.0,-500.0,-112.0,126.0,155.0,-908.0,-391.0
48.0,-232.0,-122.0,-477.0,-109.0,119.0,154.0,-902.0,-407.0
47.0,-230.0,-123.0,-458.0,-108.0,113.0,151.0,-897.0,-424.0
49.0,-228.0,-125.0,-442.0,-104.0,111.0,158.0,-890.0,-432.0
47.0,-223.0,-129.0,-435.0,-99.0,110.0,150.0,-887.0,-439.0
49.0,-228.0,-127.0,-433.0,-95.0,109.0,158.0,-889.0,-440.0
47.0,-226.0,-130.0,-435.0,-91.0,106.0,152.0,-889.0,-440.0
47.0,-229.0,-130.0,-440.0,-84.0,102.0,155.0,-889.0,-439.0
47.0,-229.0,-126.0,-445.0,-74.0,98.0,144.0,-893.0,-437.0
43.0,-235.0,-125.0,-447.0,-64.0,92.0,130.0,-910.0,-439.0
40.0,-235.0,-123.0,-443.0,-56.0,87.0,123.0,-910.0,-423.0
36.0,-236.0,-120.0,-437.0,-52.0,77.0,111.0,-910.0,-411.0
33.0,-237.0,-118.0,-428.0,-51.0,70.0,98.0,-917.0,-400.0
26.0,-239.0,-118.0,-416.0,-51.0,60.0,80.0,-929.0,-393.0
27.0,-243.0,-114.0,-403.0,-56.0,49.0,80.0,-933.0,-382.0
25.0,-242.0,-115.0,-387.0,-62.0,36.0,79.0,-935.0,-376.0
24.0,-241.0,-116.0,-369.0,-72.0,22.0,75.0,-937.0,-375.0
31.0,-244.0,-111.0,-352.0,-80.0,9.0,78.0,-938.0,-376.0
31.0,-244.0,-115.0,-335.0,-90.0,1.0,85.0,-940.0,-385.0
29.0,-244.0,-117.0,-323.0,-101.0,-5.0,85.0,-951.0,-385.0
33.0,-247.0,-117.0,-313.0,-114.0,-13.0,98.0,-956.0,-390.0
33.0,-244.0,-119.0,-307.0,-130.0,-20.0,104.0,-956.0,-404.0
31.0,-242.0,-124.0,-306.0,-141.0,-30.0,100.0,-956.0,-416.0
31.0,-245.0,-122.0,-311.0,-149.0,-40.0,94.0,-956.0,-412.0
31.0,-246.0,-129.0,-315.0,-156.0,-50.0,81.0,-954.0,-426.0
-24.0,-237.0,-121.0,-319.0,-161.0,-56.0,34.0,-965.0,-425.0
28.0,-245.0,-126.0,-322.0,-164.0,-66.0,75.0,-955.0,-435.0
25.0,-243.0,-129.0,-326.0,-169.0,-69.0,66.0,-958.0,-444.0
25.0,-247.0,-129.0,-329.0,-175.0,-74.0,69.0,-953.0,-448.0
21.0,-248.0,-130.0,-336.0,-180.0,-77.0,57.0,-960.0,-447.0
21.0,-245.0,-126.0,-346.0,-186.0,-77.0,51.0,-948.0,-445.0
25.0,-243.0,-128.0,-356.0,-190.0,-71.0,58.0,-945.0,-442.0
23.0,-241.0,-124.0,-366.0,-187.0,-70.0,54.0,-935.0,-437.0
24.0,-236.0,-122.0,-375.0,-184.0,-64.0,57.0,-927.0,-428.0
23.0,-237.0,-123.0,-383.0,-181.0,-59.0,71.0,-924.0,-417.0
26.0,-238.0,-124.0,-386.0,-174.0,-49.0,63.0,-917.0,-412.0
27.0,-237.0,-122.0,-385.0,-170.0,-42.0,69.0,-917.0,-411.0
28.0,-237.0,-120.0,-380.0,-163.0,-33.0,79.0,-921.0,-401.0
28.0,-237.0,-117.0,-370.0,-158.0,-26.0,78.0,-919.0,-392.0
26.0,-237.0,-117.0,-355.0,-156.0,-19.0,81.0,-916.0,-384.0
11.0,-242.0,-111.0,-340.0,-160.0,-17.0,39.0,-924.0,-371.0
31.0,-238.0,-118.0,-315.0,-169.0,-8.0,91.0,-921.0,-386.0
28.0,-235.0,-112.0,-297.0,-170.0,-13.0,75.0,-915.0,-386.0
26.0,-234.0,-115.0,-277.0,-168.0,-11.0,77.0,-906.0,-393.0
24.0,-232.0,-114.0,-262.0,-165.0,-10.0,64.0,-900.0,-394.0
26.0,-231.0,-121.0,-252.0,-161.0,-6.0,75.0,-902.0,-400.0
23.0,-227.0,-121.0,-244.0,-159.0,-4.0,69.0,-890.0,-406.0
29.0,-228.0,-119.0,-242.0,-154.0,2.0,76.0,-883.0,-408.0
29.0,-224.0,-120.0,-241.0,-145.0,4.0,84.0,-876.0,-409.0
36.0,-225.0,-120.0,-242.0,-136.0,10.0,104.0,-871.0,-410.0
36.0,-224.0,-118.0,-240.0,-124.0,7.0,89.0,-868.0,-400.0
35.0,-224.0,-116.0,-236.0,-112.0,8.0,102.0,-866.0,-396.0
32.0,-223.0,-118.0,-230.0,-104.0,3.0,103.0,-877.0,-394.0
36.0,-223.0,-113.0,-222.0,-101.0,2.0,99.0,-877.0,-384.0
28.0,-222.0,-115.0,-209.0,-99.0,-8.0,96.0,-876.0,-376.0
32.0,-225.0,-116.0,-193.0,-98.0,-10.0,96.0,-875.0,-390.0
31.0,-227.0,-111.0,-179.0,-96.0,-16.0,95.0,-872.0,-387.0
30.0,-222.0,-115.0,-158.0,-88.0,-15.0,90.0,-863.0,-391.0
28.0,-220.0,-117.0,-142.0,-84.0,-22.0,90.0,-864.0,-381.0
27.0,-220.0,-116.0,-124.0,-76.0,-28.0,73.0,-861.0,-382.0
21.0,-217.0,-117.0,-105.0,-69.0,-32.0,54.0,-850.0,-381.0
23.0,-221.0,-118.0,-86.0,-69.0,-27.0,64.0,-851.0,-387.0
20.0,-215.0,-117.0,-65.0,-57.0,-34.0,56.0,-847.0,-400.0
19.0,-217.0,-120.0,-46.0,-49.0,-32.0,54.0,-850.0,-413.0
19.0,-216.0,-124.0,-28.0,-42.0,-33.0,42.0,-831.0,-412.0
19.0,-219.0,-122.0,-14.0,-37.0,-24.0,48.0,-845.0,-427.0
20.0,-216.0,-123.0,7.0,-27.0,-27.0,49.0,-843.0,-428.0
15.0,-213.0,-124.0,17.0,-12.0,-34.0,40.0,-838.0,-432.0
22.0,-214.0,-126.0,25.0,-6.0,-37.0,53.0,-836.0,-432.0
17.0,-213.0,-127.0,37.0,-3.0,-24.0,49.0,-837.0,-426.0
17.0,-214.0,-121.0,50.0,-2.0,-20.0,45.0,-846.0,-413.0
18.0,-217.0,-121.0,57.0,1.0,-25.0,49.0,-840.0,-415.0
16.0,-214.0,-119.0,67.0,3.0,-35.0,26.0,-842.0,-406.0
19.0,-216.0,-124.0,83.0,0.0,-29.0,45.0,-843.0,-413.0
16.0,-214.0,-119.0,107.0,3.0,-22.0,38.0,-848.0,-410.0
18.0,-217.0,-118.0,135.0,6.0,-10.0,43.0,-846.0,-412.0
20.0,-218.0,-125.0,156.0,9.0,-6.0,49.0,-852.0,-427.0
18.0,-216.0,-123.0,174.0,18.0,-6.0,38.0,-846.0,-427.0
23.0,-216.0,-125.0,192.0,22.0,-1.0,55.0,-853.0,-438.0
20.0,-216.0,-128.0,209.0,31.0,13.0,43.0,-847.0,-447.0
19.0,-219.0,-131.0,214.0,42.0,16.0,46.0,-855.0,-445.0
21.0,-218.0,-126.0,217.0,53.0,13.0,53.0,-855.0,-436.0
20.0,-217.0,-125.0,227.0,64.0,10.0,53.0,-855.0,-437.0
22.0,-221.0,-131.0,237.0,71.0,18.0,48.0,-854.0,-436.0
19.0,-221.0,-129.0,247.0,81.0,15.0,53.0,-863.0,-430.0
20.0,-218.0,-125.0,256.0,90.0,8.0,46.0,-862.0,-450.0
17.0,-220.0,-137.0,263.0,98.0,14.0,35.0,-863.0,-455.0
14.0,-223.0,-131.0,272.0,101.0,29.0,24.0,-876.0,-448.0
13.0,-228.0,-133.0,278.0,109.0,31.0,21.0,-885.0,-462.0
14.0,-223.0,-130.0,277.0,111.0,30.0,20.0,-884.0,-451.0
13.0,-227.0,-131.0,279.0,108.0,33.0,24.0,-885.0,-459.0
13.0,-230.0,-129.0,280.0,108.0,38.0,26.0,-897.0,-440.0
19.0,-233.0,-126.0,289.0,109.0,40.0,33.0,-904.0,-427.0
12.0,-232.0,-129.0,303.0,104.0,38.0,22.0,-901.0,-421.0
12.0,-233.0,-121.0,316.0,102.0,38.0,19.0,-903.0,-410.0
17.0,-233.0,-125.0,337.0,103.0,43.0,30.0,-911.0,-429.0
15.0,-238.0,-129.0,354.0,115.0,45.0,23.0,-913.0,-443.0
11.0,-230.0,-123.0,350.0,127.0,45.0,14.0,-898.0,-431.0
12.0,-234.0,-120.0,350.0,131.0,48.0,20.0,-905.0,-412.0
13.0,-231.0,-126.0,354.0,135.0,49.0,27.0,-905.0,-415.0
18.0,-227.0,-120.0,358.0,137.0,46.0,39.0,-894.0,-412.0
18.0,-228.0,-118.0,358.0,140.0,44.0,43.0,-888.0,-401.0
16.0,-226.0,-114.0,369.0,144.0,49.0,46.0,-882.0,-376.0
20.0,-229.0,-112.0,397.0,139.0,49.0,50.0,-897.0,-379.0
23.0,-230.0,-122.0,413.0,135.0,40.0,61.0,-892.0,-384.0
18.0,-226.0,-118.0,423.0,136.0,27.0,51.0,-889.0,-391.0
21.0,-224.0,-118.0,427.0,144.0,19.0,44.0,-886.0,-399.0
18.0,-219.0,-123.0,424.0,155.0,23.0,42.0,-867.0,-409.0
22.0,-223.0,-124.0,423.0,158.0,36.0,47.0,-869.0,-416.0
21.0,-226.0,-119.0,425.0,160.0,46.0,48.0,-869.0,-401.0
21.0,-218.0,-121.0,430.0,159.0,44.0,57.0,-866.0,-400.0
22.0,-219.0,-118.0,434.0,154.0,39.0,57.0,-862.0,-399.0
21.0,-216.0,-119.0,432.0,153.0,31.0,62.0,-853.0,-402.0
21.0,-210.0,-108.0,426.0,150.0,29.0,54.0,-820.0,-381.0
21.0,-218.0,-113.0,421.0,146.0,34.0,46.0,-848.0,-388.0
19.0,-217.0,-116.0,416.0,144.0,37.0,43.0,-849.0,-389.0
14.0,-216.0,-114.0,409.0,137.0,30.0,35.0,-853.0,-385.0
15.0,-219.0,-113.0,406.0,134.0,28.0,34.0,-854.0,-375.0
17.0,-219.0,-110.0,403.0,138.0,26.0,39.0,-853.0,-368.0
18.0,-218.0,-112.0,405.0,143.0,26.0,45.0,-857.0,-369.0
18.0,-218.0,-110.0,409.0,145.0,24.0,41.0,-858.0,-370.0
19.0,-222.0,-110.0,409.0,147.0,24.0,41.0,-853.0,-354.0
16.0,-223.0,-101.0,419.0,144.0,27.0,44.0,-855.0,-337.0
19.0,-225.0,-102.0,435.0,141.0,33.0,39.0,-866.0,-335.0
15.0,-221.0,-99.0,453.0,140.0,37.0,36.0,-861.0,-326.0
21.0,-223.0,-101.0,472.0,137.0,38.0,51.0,-867.0,-317.0
14.0,-228.0,-105.0,495.0,141.0,35.0,25.0,-883.0,-324.0
18.0,-219.0,-100.0,512.0,142.0,36.0,42.0,-860.0,-319.0
20.0,-222.0,-96.0,527.0,136.0,43.0,46.0,-866.0,-317.0
20.0,-221.0,-102.0,545.0,132.0,52.0,47.0,-873.0,-326.0
21.0,-222.0,-97.0,564.0,131.0,50.0,53.0,-865.0,-316.0
25.0,-221.0,-93.0,579.0,130.0,51.0,57.0,-860.0,-314.0
28.0,-216.0,-98.0,593.0,124.0,59.0,77.0,-844.0,-305.0
27.0,-215.0,-95.0,605.0,127.0,62.0,71.0,-848.0,-315.0
22.0,-216.0,-97.0,610.0,122.0,71.0,70.0,-842.0,-304.0
22.0,-215.0,-88.0,611.0,110.0,77.0,74.0,-841.0,-293.0
23.0,-214.0,-78.0,614.0,91.0,81.0,69.0,-837.0,-261.0
22.0,-216.0,-83.0,627.0,71.0,85.0,68.0,-844.0,-272.0
23.0,-216.0,-95.0,632.0,61.0,84.0,62.0,-850.0,-288.0
24.0,-219.0,-92.0,623.0,68.0,75.0,57.0,-852.0,-288.0
20.0,-219.0,-88.0,605.0,86.0,66.0,46.0,-851.0,-286.0
15.0,-213.0,-96.0,593.0,112.0,62.0,33.0,-844.0,-288.0
17.0,-214.0,-98.0,575.0,126.0,69.0,40.0,-847.0,-318.0
11.0,-215.0,-89.0,541.0,129.0,58.0,22.0,-839.0,-275.0
11.0,-218.0,-83.0,522.0,123.0,59.0,16.0,-840.0,-258.0
17.0,-220.0,-82.0,517.0,105.0,55.0,28.0,-846.0,-253.0
16.0,-219.0,-79.0,521.0,89.0,52.0,31.0,-843.0,-241.0
11.0,-215.0,-80.0,535.0,81.0,41.0,15.0,-839.0,-235.0
9.0,-218.0,-75.0,562.0,69.0,44.0,14.0,-840.0,-227.0
10.0,-219.0,-75.0,584.0,56.0,50.0,14.0,-852.0,-232.0
6.0,-216.0,-75.0,590.0,53.0,49.0,11.0,-846.0,-237.0
8.0,-219.0,-83.0,594.0,51.0,47.0,10.0,-855.0,-257.0
16.0,-221.0,-90.0,590.0,50.0,53.0,21.0,-864.0,-274.0
11.0,-223.0,-89.0,560.0,49.0,51.0,11.0,-875.0,-289.0
11.0,-217.0,-86.0,514.0,44.0,46.0,15.0,-853.0,-272.0
8.0,-215.0,-80.0,489.0,41.0,39.0,6.0,-842.0,-245.0
12.0,-222.0,-80.0,497.0,35.0,47.0,22.0,-867.0,-241.0
8.0,-221.0,-79.0,510.0,26.0,41.0,9.0,-878.0,-248.0
10.0,-226.0,-76.0,505.0,14.0,44.0,4.0,-872.0,-234.0
6.0,-222.0,-76.0,500.0,1.0,46.0,7.0,-870.0,-230.0
8.0,-223.0,-75.0,493.0,-10.0,48.0,0.0,-878.0,-222.0
3.0,-227.0,-75.0,489.0,-19.0,45.0,-5.0,-873.0,-217.0
11.0,-225.0,-72.0,498.0,-36.0,54.0,3.0,-875.0,-212.0
11.0,-225.0,-70.0,501.0,-39.0,56.0,14.0,-886.0,-214.0
11.0,-228.0,-74.0,507.0,-37.0,62.0,10.0,-885.0,-213.0
11.0,-228.0,-72.0,514.0,-38.0,62.0,16.0,-882.0,-211.0
16.0,-226.0,-68.0,525.0,-34.0,73.0,23.0,-878.0,-205.0
14.0,-227.0,-70.0,539.0,-27.0,80.0,32.0,-889.0,-213.0
14.0,-227.0,-68.0,545.0,-21.0,79.0,25.0,-881.0,-208.0
16.0,-229.0,-73.0,550.0,-11.0,75.0,37.0,-889.0,-219.0
17.0,-223.0,-74.0,542.0,-1.0,70.0,30.0,-868.0,-219.0
16.0,-225.0,-71.0,538.0,9.0,63.0,42.0,-875.0,-219.0
17.0,-225.0,-72.0,534.0,20.0,58.0,45.0,-872.0,-217.0
20.0,-223.0,-79.0,528.0,25.0,50.0,54.0,-873.0,-222.0
19.0,-223.0,-72.0,504.0,22.0,45.0,38.0,-889.0,-234.0
22.0,-226.0,-72.0,460.0,16.0,39.0,58.0,-876.0,-217.0
25.0,-224.0,-69.0,432.0,13.0,35.0,61.0,-881.0,-203.0
21.0,-224.0,-69.0,413.0,10.0,28.0,54.0,-877.0,-198.0
20.0,-223.0,-69.0,407.0,10.0,34.0,55.0,-877.0,-185.0
18.0,-228.0,-64.0,413.0,12.0,36.0,55.0,-876.0,-180.0
20.0,-228.0,-65.0,425.0,15.0,42.0,44.0,-887.0,-172.0
17.0,-226.0,-59.0,434.0,20.0,43.0,32.0,-888.0,-174.0
19.0,-229.0,-66.0,427.0,21.0,53.0,39.0,-878.0,-196.0
16.0,-224.0,-60.0,402.0,18.0,59.0,35.0,-886.0,-184.0
16.0,-228.0,-65.0,368.0,18.0,63.0,39.0,-886.0,-188.0
13.0,-224.0,-66.0,337.0,23.0,58.0,23.0,-886.0,-183.0
13.0,-231.0,-64.0,312.0,23.0,66.0,21.0,-891.0,-183.0
26.0,-231.0,-70.0,291.0,24.0,67.0,22.0,-899.0,-170.0
17.0,-237.0,-41.0,264.0,19.0,73.0,8.0,-886.0,-121.0
18.0,-238.0,-50.0,289.0,28.0,75.0,41.0,-910.0,-119.0
17.0,-238.0,-51.0,332.0,46.0,72.0,40.0,-918.0,-134.0
18.0,-238.0,-58.0,359.0,56.0,61.0,38.0,-916.0,-150.0
16.0,-236.0,-57.0,373.0,59.0,59.0,34.0,-910.0,-153.0
17.0,-237.0,-57.0,373.0,59.0,53.0,35.0,-914.0,-147.0
14.0,-236.0,-58.0,365.0,54.0,52.0,38.0,-911.0,-153.0
15.0,-233.0,-54.0,363.0,52.0,41.0,31.0,-905.0,-142.0
13.0,-232.0,-53.0,364.0,55.0,35.0,20.0,-906.0,-145.0
13.0,-232.0,-59.0,365.0,57.0,30.0,19.0,-909.0,-157.0
14.0,-233.0,-58.0,365.0,58.0,28.0,21.0,-906.0,-149.0
10.0,-232.0,-56.0,353.0,61.0,27.0,19.0,-904.0,-147.0
9.0,-233.0,-52.0,345.0,63.0,30.0,14.0,-905.0,-145.0
11.0,-233.0,-52.0,341.0,62.0,36.0,22.0,-901.0,-136.0
15.0,-236.0,-53.0,341.0,61.0,44.0,26.0,-903.0,-135.0
14.0,-234.0,-57.0,335.0,59.0,53.0,24.0,-902.0,-132.0
17.0,-231.0,-53.0,331.0,52.0,58.0,42.0,-899.0,-135.0
16.0,-232.0,-52.0,334.0,58.0,48.0,41.0,-899.0,-119.0
16.0,-232.0,-51.0,330.0,56.0,44.0,36.0,-899.0,-118.0
15.0,-231.0,-52.0,330.0,59.0,43.0,27.0,-902.0,-124.0
15.0,-233.0,-50.0,325.0,60.0,44.0,24.0,-904.0,-119.0
16.0,-232.0,-56.0,322.0,57.0,47.0,23.0,-908.0,-130.0
15.0,-236.0,-53.0,317.0,57.0,45.0,19.0,-908.0,-129.0
8.0,-236.0,-56.0,304.0,57.0,38.0,10.0,-910.0,-140.0
11.0,-233.0,-49.0,297.0,55.0,32.0,11.0,-908.0,-134.0
11.0,-232.0,-55.0,280.0,49.0,30.0,17.0,-912.0,-130.0
11.0,-239.0,-48.0,265.0,47.0,29.0,10.0,-911.0,-133.0
8.0,-239.0,-53.0,250.0,47.0,22.0,19.0,-938.0,-121.0
12.0,-241.0,-51.0,233.0,52.0,9.0,21.0,-936.0,-123.0
10.0,-241.0,-50.0,220.0,56.0,-2.0,10.0,-931.0,-116.0
12.0,-243.0,-43.0,215.0,59.0,-6.0,7.0,-922.0,-101.0
4.0,-239.0,-46.0,223.0,57.0,-3.0,4.0,-908.0,-97.0
13.0,-242.0,-46.0,245.0,47.0,-3.0,20.0,-917.0,-94.0
10.0,-231.0,-40.0,251.0,42.0,-5.0,14.0,-891.0,-79.0
13.0,-233.0,-40.0,261.0,34.0,0.0,19.0,-890.0,-76.0
11.0,-230.0,-37.0,268.0,25.0,7.0,20.0,-896.0,-69.0
15.0,-232.0,-34.0,282.0,23.0,4.0,25.0,-902.0,-59.0
14.0,-238.0,-40.0,297.0,29.0,4.0,30.0,-912.0,-66.0
14.0,-239.0,-37.0,300.0,31.0,3.0,21.0,-922.0,-74.0
13.0,-242.0,-41.0,295.0,33.0,3.0,20.0,-930.0,-79.0
15.0,-243.0,-39.0,289.0,38.0,-1.0,19.0,-938.0,-68.0
15.0,-246.0,-39.0,276.0,46.0,0.0,20.0,-948.0,-69.0
11.0,-246.0,-39.0,268.0,56.0,-5.0,17.0,-951.0,-67.0
11.0,-247.0,-43.0,255.0,64.0,-9.0,10.0,-954.0,-80.0
8.0,-250.0,-42.0,239.0,68.0,-13.0,6.0,-970.0,-120.0
8.0,-251.0,-32.0,214.0,76.0,-18.0,13.0,-956.0,-47.0
13.0,-254.0,-40.0,221.0,81.0,-22.0,14.0,-966.0,-84.0
9.0,-248.0,-45.0,230.0,80.0,-23.0,11.0,-962.0,-97.0
12.0,-247.0,-47.0,230.0,84.0,-27.0,11.0,-955.0,-100.0
10.0,-245.0,-44.0,224.0,92.0,-26.0,13.0,-943.0,-103.0
10.0,-240.0,-44.0,212.0,96.0,-25.0,12.0,-938.0,-102.0
13.0,-238.0,-47.0,201.0,97.0,-20.0,14.0,-929.0,-101.0
9.0,-239.0,-45.0,189.0,98.0,-19.0,16.0,-933.0,-99.0
14.0,-241.0,-47.0,171.0,105.0,-18.0,16.0,-945.0,-123.0
13.0,-245.0,-42.0,136.0,109.0,-23.0,26.0,-942.0,-90.0
14.0,-246.0,-39.0,112.0,118.0,-36.0,19.0,-944.0,-79.0
10.0,-243.0,-34.0,93.0,119.0,-49.0,10.0,-928.0,-58.0
7.0,-237.0,-34.0,88.0,113.0,-46.0,4.0,-922.0,-45.0
6.0,-236.0,-28.0,99.0,104.0,-41.0,3.0,-913.0,-43.0
8.0,-230.0,-30.0,117.0,95.0,-29.0,10.0,-906.0,-42.0
11.0,-234.0,-36.0,129.0,90.0,-23.0,9.0,-901.0,-57.0
7.0,-231.0,-36.0,135.0,90.0,-15.0,3.0,-904.0,-75.0
11.0,-233.0,-37.0,136.0,93.0,-9.0,24.0,-904.0,-73.0
13.0,-234.0,-42.0,130.0,100.0,-11.0,22.0,-905.0,-80.0
12.0,-234.0,-44.0,119.0,104.0,-15.0,16.0,-897.0,-85.0
11.0,-233.0,-46.0,112.0,103.0,-11.0,20.0,-903.0,-90.0
8.0,-234.0,-45.0,100.0,101.0,-14.0,10.0,-905.0,-100.0
13.0,-238.0,-44.0,83.0,92.0,-15.0,20.0,-913.0,-101.0
14.0,-236.0,-43.0,63.0,88.0,-27.0,16.0,-912.0,-96.0
10.0,-235.0,-43.0,50.0,84.0,-27.0,18.0,-908.0,-92.0
6.0,-233.0,-45.0,41.0,76.0,-30.0,13.0,-910.0,-91.0
10.0,-233.0,-39.0,28.0,69.0,-25.0,15.0,-904.0,-88.0
15.0,-234.0,-41.0,20.0,65.0,-25.0,19.0,-902.0,-86.0
10.0,-236.0,-41.0,14.0,62.0,-18.0,20.0,-906.0,-96.0
12.0,-240.0,-43.0,5.0,66.0,-18.0,11.0,-917.0,-93.0
8.0,-240.0,-47.0,-6.0,68.0,-11.0,7.0,-927.0,-90.0
10.0,-244.0,-42.0,-21.0,71.0,-9.0,8.0,-943.0,-94.0
11.0,-247.0,-41.0,-45.0,73.0,-14.0,16.0,-955.0,-88.0
6.0,-252.0,-43.0,-62.0,66.0,-18.0,5.0,-964.0,-82.0
12.0,-252.0,-40.0,-69.0,59.0,-15.0,12.0,-976.0,-76.0
9.0,-257.0,-43.0,-69.0,55.0,-16.0,5.0,-994.0,-82.0
7.0,-259.0,-45.0,-72.0,51.0,-13.0,4.0,-1005.0,-90.0
6.0,-260.0,-43.0,-76.0,49.0,-15.0,2.0,-1015.0,-83.0
6.0,-263.0,-47.0,-80.0,44.0,-15.0,-3.0,-1008.0,-88.0
12.0,-256.0,-38.0,-82.0,30.0,-10.0,19.0,-988.0,-79.0
14.0,-254.0,-41.0,-79.0,26.0,-11.0,11.0,-978.0,-91.0
15.0,-252.0,-46.0,-85.0,29.0,-13.0,20.0,-968.0,-99.0
14.0,-249.0,-51.0,-99.0,31.0,-13.0,21.0,-970.0,-109.0
11.0,-252.0,-50.0,-119.0,34.0,-16.0,34.0,-973.0,-112.0
13.0,-250.0,-50.0,-134.0,34.0,-12.0,28.0,-971.0,-116.0
16.0,-251.0,-51.0,-143.0,34.0,-14.0,32.0,-973.0,-116.0
19.0,-256.0,-49.0,-147.0,32.0,-10.0,38.0,-971.0,-116.0
14.0,-253.0,-52.0,-147.0,30.0,-15.0,34.0,-979.0,-115.0
14.0,-252.0,-50.0,-145.0,24.0,-12.0,26.0,-993.0,-107.0
14.0,-254.0,-49.0,-140.0,16.0,-16.0,32.0,-985.0,-104.0
19.0,-253.0,-50.0,-131.0,1.0,-15.0,41.0,-985.0,-102.0
15.0,-253.0,-43.0,-122.0,-9.0,-21.0,40.0,-984.0,-97.0
17.0,-254.0,-45.0,-113.0,-19.0,-21.0,44.0,-980.0,-95.0
16.0,-257.0,-43.0,-105.0,-27.0,-26.0,36.0,-981.0,-94.0
13.0,-254.0,-46.0,-96.0,-36.0,-24.0,28.0,-978.0,-95.0
17.0,-253.0,-49.0,-88.0,-42.0,-19.0,34.0,-986.0,-98.0
17.0,-251.0,-48.0,-87.0,-42.0,-18.0,38.0,-978.0,-95.0
18.0,-253.0,-46.0,-84.0,-36.0,-14.0,37.0,-977.0,-104.0
15.0,-254.0,-48.0,-83.0,-28.0,-7.0,36.0,-975.0,-98.0
15.0,-252.0,-46.0,-83.0,-24.0,-1.0,28.0,-971.0,-96.0
19.0,-253.0,-48.0,-80.0,-20.0,10.0,33.0,-974.0,-88.0
17.0,-253.0,-45.0,-75.0,-13.0,19.0,34.0,-978.0,-88.0
19.0,-251.0,-42.0,-73.0,-1.0,30.0,50.0,-982.0,-89.0
19.0,-252.0,-38.0,-73.0,9.0,30.0,43.0,-974.0,-84.0
21.0,-255.0,-40.0,-69.0,15.0,28.0,45.0,-976.0,-81.0
19.0,-257.0,-41.0,-65.0,13.0,25.0,49.0,-996.0,-71.0
15.0,-256.0,-38.0,-66.0,6.0,21.0,42.0,-999.0,-72.0
16.0,-259.0,-41.0,-67.0,3.0,13.0,40.0,-1001.0,-75.0
14.0,-259.0,-39.0,-65.0,3.0,15.0,22.0,-1011.0,-85.0
19.0,-259.0,-34.0,-61.0,-3.0,15.0,45.0,-1005.0,-68.0
19.0,-258.0,-35.0,-50.0,-4.0,13.0,45.0,-1007.0,-68.0
19.0,-261.0,-40.0,-44.0,-6.0,6.0,38.0,-1014.0,-72.0
17.0,-263.0,-43.0,-40.0,-5.0,-2.0,31.0,-1016.0,-77.0
16.0,-262.0,-42.0,-36.0,-3.0,-10.0,27.0,-1014.0,-86.0
14.0,-257.0,-41.0,-34.0,1.0,-17.0,27.0,-999.0,-76.0
16.0,-254.0,-42.0,-30.0,3.0,-24.0,26.0,-979.0,-85.0
18.0,-249.0,-41.0,-29.0,8.0,-26.0,24.0,-957.0,-88.0
13.0,-245.0,-44.0,-32.0,15.0,-25.0,14.0,-949.0,-92.0
10.0,-250.0,-47.0,-36.0,18.0,-18.0,12.0,-948.0,-93.0
8.0,-247.0,-41.0,-41.0,14.0,-10.0,18.0,-952.0,-91.0
11.0,-250.0,-48.0,-35.0,10.0,-5.0,9.0,-965.0,-91.0
10.0,-251.0,-43.0,-32.0,6.0,-7.0,10.0,-969.0,-91.0
9.0,-252.0,-42.0,-26.0,4.0,-8.0,11.0,-971.0,-87.0
13.0,-253.0,-41.0,-20.0,7.0,-8.0,21.0,-975.0,-98.0
13.0,-252.0,-48.0,-17.0,16.0,-10.0,18.0,-967.0,-95.0
11.0,-251.0,-47.0,-17.0,26.0,-8.0,20.0,-973.0,-99.0
13.0,-251.0,-47.0,-26.0,40.0,-4.0,23.0,-970.0,-100.0
9.0,-253.0,-47.0,-36.0,47.0,-2.0,21.0,-982.0,-103.0
13.0,-254.0,-42.0,-47.0,52.0,0.0,21.0,-990.0,-101.0
13.0,-256.0,-41.0,-56.0,51.0,1.0,21.0,-979.0,-89.0
13.0,-257.0,-45.0,-59.0,54.0,2.0,31.0,-990.0,-90.0
17.0,-255.0,-45.0,-59.0,56.0,2.0,24.0,-983.0,-87.0
14.0,-256.0,-40.0,-54.0,54.0,2.0,27.0,-990.0,-86.0
15.0,-255.0,-42.0,-50.0,54.0,5.0,27.0,-981.0,-90.0
17.0,-255.0,-39.0,-45.0,52.0,6.0,31.0,-974.0,-89.0
14.0,-255.0,-42.0,-41.0,51.0,5.0,39.0,-978.0,-91.0
16.0,-253.0,-38.0,-38.0,51.0,6.0,31.0,-970.0,-87.0
14.0,-248.0,-44.0,-36.0,52.0,8.0,34.0,-967.0,-87.0
16.0,-253.0,-41.0,-34.0,51.0,5.0,31.0,-965.0,-92.0
16.0,-254.0,-43.0,-35.0,50.0,4.0,23.0,-972.0,-89.0
13.0,-253.0,-42.0,-39.0,53.0,5.0,22.0,-967.0,-84.0
10.0,-248.0,-41.0,-45.0,57.0,3.0,17.0,-967.0,-87.0
9.0,-249.0,-43.0,-53.0,61.0,1.0,10.0,-966.0,-81.0
10.0,-250.0,-42.0,-58.0,60.0,7.0,14.0,-965.0,-80.0
9.0,-251.0,-43.0,-61.0,57.0,7.0,15.0,-974.0,-81.0
8.0,-255.0,-47.0,-63.0,55.0,7.0,11.0,-969.0,-95.0
14.0,-252.0,-41.0,-67.0,52.0,12.0,17.0,-967.0,-79.0
14.0,-252.0,-41.0,-65.0,55.0,9.0,20.0,-971.0,-77.0
12.0,-254.0,-42.0,-66.0,55.0,7.0,18.0,-976.0,-82.0
12.0,-255.0,-43.0,-66.0,53.0,9.0,19.0,-976.0,-79.0
9.0,-251.0,-42.0,-64.0,51.0,10.0,18.0,-976.0,-83.0
9.0,-253.0,-42.0,-62.0,47.0,11.0,15.0,-978.0,-79.0
12.0,-252.0,-40.0,-61.0,46.0,8.0,17.0,-979.0,-82.0
10.0,-256.0,-37.0,-61.0,44.0,8.0,8.0,-980.0,-80.0
8.0,-253.0,-40.0,-61.0,46.0,9.0,4.0,-977.0,-79.0
9.0,-256.0,-37.0,-61.0,43.0,9.0,8.0,-977.0,-70.0
11.0,-256.0,-41.0,-55.0,41.0,12.0,15.0,-989.0,-74.0
15.0,-256.0,-39.0,-51.0,38.0,15.0,14.0,-981.0,-82.0
13.0,-257.0,-42.0,-49.0,35.0,12.0,14.0,-988.0,-81.0
10.0,-259.0,-41.0,-50.0,35.0,11.0,14.0,-1005.0,-82.0
7.0,-259.0,-39.0,-52.0,33.0,5.0,9.0,-1006.0,-74.0
11.0,-260.0,-41.0,-51.0,27.0,5.0,14.0,-1006.0,-70.0
14.0,-258.0,-39.0,-46.0,30.0,-2.0,18.0,-1002.0,-76.0
12.0,-255.0,-43.0,-40.0,29.0,-3.0,22.0,-999.0,-83.0
17.0,-253.0,-44.0,-35.0,30.0,-6.0,22.0,-979.0,-86.0
13.0,-255.0,-43.0,-35.0,29.0,-4.0,21.0,-980.0,-92.0
12.0,-252.0,-43.0,-36.0,26.0,-6.0,21.0,-973.0,-91.0
16.0,-253.0,-41.0,-40.0,22.0,-5.0,24.0,-968.0,-87.0
16.0,-253.0,-46.0,-46.0,15.0,-8.0,24.0,-971.0,-92.0
13.0,-253.0,-41.0,-50.0,11.0,-9.0,27.0,-971.0,-91.0
14.0,-252.0,-40.0,-54.0,7.0,-11.0,26.0,-974.0,-91.0
15.0,-251.0,-43.0,-56.0,3.0,-10.0,38.0,-977.0,-92.0
14.0,-255.0,-43.0,-56.0,0.0,-11.0,26.0,-992.0,-88.0
14.0,-253.0,-40.0,-53.0,-1.0,-8.0,29.0,-988.0,-89.0
15.0,-256.0,-41.0,-47.0,-1.0,-10.0,27.0,-989.0,-86.0
14.0,-255.0,-38.0,-42.0,-2.0,-6.0,30.0,-980.0,-84.0
15.0,-254.0,-43.0,-38.0,-2.0,-7.0,39.0,-992.0,-81.0
19.0,-256.0,-41.0,-34.0,-2.0,-8.0,38.0,-993.0,-85.0
19.0,-260.0,-39.0,-31.0,-3.0,-10.0,26.0,-997.0,-81.0
15.0,-257.0,-37.0,-25.0,-3.0,-6.0,36.0,-988.0,-88.0
19.0,-257.0,-44.0,-14.0,-1.0,-7.0,42.0,-994.0,-86.0
15.0,-254.0,-41.0,-4.0,3.0,-4.0,39.0,-988.0,-92.0
20.0,-256.0,-42.0,0.0,6.0,-2.0,52.0,-987.0,-86.0
20.0,-257.0,-46.0,8.0,14.0,-5.0,48.0,-992.0,-95.0
16.0,-256.0,-43.0,13.0,21.0,-10.0,35.0,-994.0,-88.0
16.0,-257.0,-43.0,17.0,23.0,-11.0,31.0,-986.0,-88.0
19.0,-256.0,-43.0,19.0,24.0,-12.0,31.0,-983.0,-85.0
16.0,-254.0,-41.0,24.0,31.0,-8.0,44.0,-978.0,-77.0
18.0,-251.0,-42.0,31.0,45.0,-14.0,42.0,-976.0,-80.0
20.0,-255.0,-40.0,34.0,60.0,-22.0,55.0,-970.0,-67.0
18.0,-253.0,-44.0,39.0,57.0,-27.0,43.0,-973.0,-85.0
17.0,-250.0,-46.0,42.0,58.0,-20.0,44.0,-972.0,-93.0
17.0,-252.0,-42.0,46.0,66.0,-19.0,40.0,-970.0,-94.0
20.0,-249.0,-48.0,46.0,74.0,-15.0,41.0,-959.0,-98.0
19.0,-251.0,-50.0,44.0,81.0,-14.0,48.0,-962.0,-102.0
18.0,-248.0,-45.0,41.0,85.0,-6.0,34.0,-958.0,-106.0
22.0,-247.0,-45.0,37.0,88.0,-3.0,47.0,-962.0,-103.0
19.0,-245.0,-44.0,30.0,89.0,3.0,43.0,-962.0,-104.0
18.0,-249.0,-42.0,24.0,93.0,8.0,47.0,-966.0,-98.0
19.0,-248.0,-44.0,17.0,98.0,16.0,52.0,-967.0,-99.0
17.0,-248.0,-47.0,11.0,102.0,21.0,40.0,-965.0,-100.0
17.0,-250.0,-40.0,6.0,107.0,27.0,38.0,-969.0,-89.0
15.0,-254.0,-43.0,3.0,106.0,27.0,37.0,-984.0,-81.0
12.0,-253.0,-40.0,0.0,104.0,30.0,18.0,-977.0,-81.0
13.0,-252.0,-40.0,0.0,102.0,27.0,21.0,-971.0,-78.0
7.0,-255.0,-39.0,2.0,92.0,28.0,1.0,-978.0,-73.0
10.0,-254.0,-38.0,5.0,80.0,22.0,7.0,-970.0,-83.0
9.0,-252.0,-37.0,4.0,63.0,25.0,6.0,-977.0,-82.0
9.0,-255.0,-40.0,4.0,58.0,20.0,0.0,-971.0,-77.0
3.0,-253.0,-42.0,3.0,58.0,23.0,1.0,-976.0,-85.0
6.0,-253.0,-39.0,2.0,58.0,23.0,4.0,-979.0,-87.0
6.0,-256.0,-41.0,0.0,59.0,27.0,6.0,-989.0,-92.0
7.0,-258.0,-45.0,-3.0,64.0,26.0,3.0,-987.0,-86.0
10.0,-258.0,-41.0,-5.0,67.0,26.0,12.0,-1001.0,-82.0
11.0,-257.0,-40.0,-6.0,71.0,28.0,17.0,-1001.0,-84.0
11.0,-259.0,-40.0,-4.0,78.0,26.0,13.0,-1000.0,-77.0
11.0,-258.0,-40.0,-2.0,85.0,24.0,11.0,-999.0,-75.0
12.0,-258.0,-39.0,4.0,87.0,25.0,7.0,-999.0,-79.0
11.0,-256.0,-44.0,12.0,82.0,23.0,22.0,-989.0,-79.0
18.0,-256.0,-40.0,19.0,79.0,21.0,35.0,-1003.0,-82.0
13.0,-258.0,-39.0,24.0,78.0,12.0,13.0,-973.0,-84.0
12.0,-255.0,-39.0,28.0,81.0,15.0,18.0,-980.0,-85.0
15.0,-252.0,-41.0,31.0,84.0,15.0,20.0,-981.0,-83.0
15.0,-255.0,-37.0,31.0,85.0,13.0,23.0,-977.0,-89.0
11.0,-252.0,-42.0,27.0,84.0,13.0,13.0,-977.0,-83.0
12.0,-253.0,-37.0,23.0,85.0,12.0,18.0,-974.0,-82.0
13.0,-253.0,-39.0,19.0,79.0,10.0,17.0,-976.0,-82.0
18.0,-254.0,-34.0,18.0,77.0,11.0,39.0,-976.0,-71.0
15.0,-250.0,-37.0,19.0,77.0,6.0,32.0,-970.0,-71.0
20.0,-252.0,-39.0,20.0,78.0,14.0,44.0,-981.0,-79.0
16.0,-254.0,-39.0,24.0,86.0,26.0,26.0,-971.0,-66.0
11.0,-253.0,-36.0,26.0,98.0,25.0,20.0,-976.0,-64.0
14.0,-252.0,-30.0,33.0,99.0,19.0,21.0,-973.0,-63.0
12.0,-253.0,-39.0,37.0,91.0,13.0,23.0,-973.0,-73.0
16.0,-255.0,-37.0,38.0,77.0,6.0,28.0,-967.0,-67.0
17.0,-252.0,-40.0,44.0,69.0,5.0,29.0,-969.0,-74.0
17.0,-253.0,-42.0,46.0,69.0,6.0,31.0,-971.0,-70.0
18.0,-253.0,-43.0,48.0,71.0,7.0,42.0,-975.0,-73.0
18.0,-248.0,-44.0,47.0,75.0,10.0,42.0,-967.0,-73.0
19.0,-252.0,-42.0,48.0,85.0,21.0,39.0,-972.0,-82.0
14.0,-250.0,-37.0,40.0,99.0,29.0,32.0,-972.0,-70.0
15.0,-253.0,-39.0,39.0,107.0,22.0,36.0,-973.0,-66.0
17.0,-248.0,-33.0,36.0,107.0,17.0,40.0,-968.0,-71.0
19.0,-253.0,-37.0,35.0,110.0,15.0,39.0,-971.0,-64.0
17.0,-255.0,-35.0,33.0,115.0,16.0,38.0,-977.0,-64.0
19.0,-253.0,-38.0,32.0,123.0,16.0,44.0,-973.0,-62.0
14.0,-253.0,-36.0,31.0,126.0,15.0,36.0,-977.0,-56.0
10.0,-254.0,-33.0,34.0,123.0,11.0,21.0,-975.0,-48.0
10.0,-254.0,-32.0,33.0,115.0,7.0,10.0,-979.0,-49.0
4.0,-252.0,-35.0,35.0,103.0,0.0,11.0,-977.0,-51.0
12.0,-254.0,-36.0,37.0,92.0,-5.0,10.0,-988.0,-65.0
9.0,-255.0,-34.0,40.0,79.0,-12.0,11.0,-988.0,-68.0
10.0,-256.0,-39.0,43.0,67.0,-14.0,9.0,-981.0,-74.0
11.0,-253.0,-41.0,44.0,65.0,-16.0,11.0,-983.0,-75.0
12.0,-253.0,-42.0,40.0,67.0,-16.0,14.0,-976.0,-76.0
10.0,-251.0,-42.0,36.0,70.0,-15.0,16.0,-973.0,-84.0
12.0,-253.0,-36.0,29.0,76.0,-12.0,11.0,-969.0,-73.0
13.0,-251.0,-42.0,21.0,79.0,-13.0,11.0,-978.0,-72.0
10.0,-254.0,-38.0,15.0,81.0,-8.0,18.0,-978.0,-67.0
9.0,-253.0,-40.0,10.0,82.0,-9.0,26.0,-978.0,-66.0
12.0,-252.0,-42.0,6.0,84.0,-5.0,27.0,-986.0,-66.0
15.0,-255.0,-37.0,5.0,86.0,-7.0,28.0,-978.0,-64.0
19.0,-255.0,-41.0,7.0,89.0,-2.0,42.0,-992.0,-70.0
21.0,-255.0,-38.0,9.0,93.0,-2.0,48.0,-981.0,-72.0
10.0,-257.0,-43.0,12.0,98.0,1.0,23.0,-983.0,-68.0
7.0,-253.0,-39.0,12.0,103.0,0.0,0.0,-975.0,-61.0
3.0,-253.0,-35.0,8.0,99.0,-2.0,-9.0,-979.0,-55.0
6.0,-254.0,-32.0,1.0,81.0,-11.0,-3.0,-976.0,-49.0
7.0,-255.0,-33.0,-4.0,60.0,-14.0,5.0,-981.0,-44.0
9.0,-254.0,-35.0,-7.0,43.0,-23.0,20.0,-992.0,-44.0
11.0,-253.0,-33.0,-5.0,32.0,-30.0,11.0,-978.0,-50.0
14.0,-252.0,-36.0,2.0,35.0,-29.0,21.0,-984.0,-54.0
15.0,-253.0,-38.0,9.0,45.0,-21.0,21.0,-978.0,-65.0
12.0,-252.0,-38.0,15.0,58.0,-21.0,28.0,-975.0,-68.0
14.0,-253.0,-41.0,22.0,70.0,-13.0,27.0,-976.0,-69.0
17.0,-253.0,-38.0,20.0,80.0,-11.0,29.0,-969.0,-72.0
15.0,-251.0,-38.0,16.0,87.0,-3.0,27.0,-968.0,-70.0
17.0,-251.0,-36.0,9.0,91.0,-1.0,38.0,-972.0,-74.0
18.0,-256.0,-41.0,-2.0,89.0,4.0,35.0,-973.0,-69.0
18.0,-249.0,-35.0,-16.0,83.0,11.0,38.0,-966.0,-64.0
17.0,-252.0,-37.0,-23.0,82.0,11.0,35.0,-972.0,-62.0
14.0,-252.0,-32.0,-26.0,82.0,10.0,25.0,-970.0,-49.0
11.0,-252.0,-34.0,-26.0,79.0,10.0,25.0,-983.0,-49.0
13.0,-253.0,-31.0,-26.0,76.0,7.0,23.0,-975.0,-51.0
16.0,-253.0,-35.0,-24.0,70.0,10.0,23.0,-975.0,-52.0
15.0,-251.0,-34.0,-22.0,70.0,6.0,25.0,-977.0,-52.0
14.0,-255.0,-37.0,-23.0,69.0,8.0,25.0,-971.0,-56.0
14.0,-254.0,-36.0,-23.0,73.0,5.0,27.0,-978.0,-53.0
12.0,-253.0,-35.0,-24.0,76.0,0.0,16.0,-981.0,-60.0
14.0,-255.0,-36.0,-23.0,76.0,4.0,31.0,-988.0,-63.0
19.0,-257.0,-34.0,-23.0,88.0,8.0,42.0,-996.0,-61.0
17.0,-255.0,-38.0,-18.0,100.0,8.0,38.0,-992.0,-64.0
16.0,-257.0,-38.0,-12.0,115.0,13.0,26.0,-999.0,-69.0
13.0,-255.0,-34.0,-8.0,118.0,11.0,21.0,-993.0,-72.0
10.0,-258.0,-38.0,-6.0,120.0,14.0,9.0,-997.0,-73.0
7.0,-253.0,-36.0,-6.0,116.0,11.0,-1.0,-995.0,-61.0
7.0,-258.0,-33.0,-6.0,104.0,15.0,-2.0,-993.0,-57.0
8.0,-259.0,-33.0,-5.0,91.0,10.0,4.0,-982.0,-49.0
9.0,-258.0,-35.0,3.0,83.0,12.0,2.0,-993.0,-46.0
5.0,-254.0,-33.0,7.0,78.0,12.0,4.0,-984.0,-47.0
13.0,-255.0,-35.0,12.0,69.0,11.0,17.0,-978.0,-48.0
10.0,-252.0,-34.0,13.0,65.0,3.0,11.0,-974.0,-50.0
13.0,-254.0,-35.0,14.0,70.0,7.0,14.0,-975.0,-62.0
10.0,-251.0,-35.0,13.0,75.0,6.0,17.0,-974.0,-63.0
15.0,-253.0,-37.0,12.0,78.0,8.0,22.0,-975.0,-68.0
13.0,-252.0,-35.0,7.0,82.0,6.0,23.0,-983.0,-71.0
11.0,-253.0,-38.0,2.0,86.0,6.0,24.0,-980.0,-62.0
13.0,-255.0,-32.0,-2.0,85.0,2.0,26.0,-996.0,-61.0
14.0,-255.0,-39.0,-4.0,86.0,4.0,30.0,-994.0,-60.0
16.0,-255.0,-38.0,-3.0,86.0,2.0,28.0,-986.0,-56.0
14.0,-257.0,-31.0,-2.0,85.0,3.0,26.0,-983.0,-57.0
14.0,-254.0,-36.0,-1.0,85.0,1.0,24.0,-979.0,-55.0
14.0,-256.0,-34.0,-2.0,85.0,1.0,27.0,-989.0,-57.0
13.0,-256.0,-34.0,-3.0,82.0,-1.0,23.0,-985.0,-49.0
10.0,-251.0,-34.0,-3.0,83.0,1.0,20.0,-984.0,-51.0
12.0,-253.0,-34.0,-3.0,80.0,0.0,21.0,-978.0,-58.0
14.0,-252.0,-37.0,-7.0,80.0,2.0,24.0,-987.0,-57.0
13.0,-253.0,-32.0,-10.0,80.0,0.0,21.0,-983.0,-60.0
13.0,-253.0,-34.0,-9.0,78.0,2.0,14.0,-976.0,-48.0
12.0,-254.0,-37.0,-10.0,79.0,0.0,20.0,-974.0,-48.0
16.0,-253.0,-32.0,-2.0,76.0,7.0,29.0,-972.0,-47.0
14.0,-256.0,-40.0,7.0,76.0,17.0,22.0,-981.0,-51.0
11.0,-256.0,-31.0,13.0,86.0,14.0,23.0,-980.0,-48.0
8.0,-256.0,-36.0,9.0,87.0,7.0,8.0,-983.0,-51.0
11.0,-253.0,-36.0,9.0,88.0,7.0,17.0,-986.0,-56.0
13.0,-254.0,-35.0,5.0,87.0,6.0,20.0,-981.0,-57.0
12.0,-255.0,-36.0,5.0,85.0,5.0,15.0,-984.0,-62.0
8.0,-253.0,-35.0,6.0,83.0,3.0,9.0,-975.0,-61.0
7.0,-253.0,-37.0,5.0,78.0,2.0,3.0,-980.0,-63.0
7.0,-255.0,-37.0,5.0,67.0,1.0,-15.0,-980.0,-64.0
14.0,-253.0,-34.0,6.0,48.0,1.0,22.0,-976.0,-60.0
22.0,-251.0,-32.0,7.0,43.0,-1.0,48.0,-965.0,-56.0
18.0,-250.0,-34.0,5.0,58.0,-5.0,33.0,-972.0,-49.0
13.0,-252.0,-31.0,4.0,77.0,-3.0,21.0,-974.0,-49.0
12.0,-252.0,-35.0,4.0,88.0,1.0,15.0,-974.0,-49.0
12.0,-252.0,-33.0,5.0,92.0,3.0,19.0,-974.0,-49.0
12.0,-254.0,-37.0,5.0,91.0,5.0,22.0,-974.0,-58.0
12.0,-255.0,-34.0,2.0,88.0,4.0,22.0,-985.0,-56.0
13.0,-251.0,-32.0,1.0,83.0,4.0,22.0,-979.0,-63.0
15.0,-254.0,-35.0,-1.0,78.0,2.0,24.0,-988.0,-60.0
11.0,-252.0,-33.0,0.0,73.0,1.0,26.0,-993.0,-62.0
12.0,-252.0,-35.0,2.0,68.0,-1.0,15.0,-982.0,-64.0
14.0,-256.0,-32.0,0.0,70.0,-2.0,20.0,-979.0,-60.0
12.0,-256.0,-35.0,0.0,69.0,0.0,19.0,-986.0,-59.0
9.0,-256.0,-34.0,-1.0,68.0,0.0,15.0,-990.0,-65.0
8.0,-257.0,-37.0,-1.0,66.0,0.0,5.0,-1000.0,-57.0
10.0,-256.0,-33.0,-2.0,61.0,0.0,11.0,-981.0,-62.0
15.0,-255.0,-33.0,-1.0,52.0,0.0,27.0,-979.0,-54.0
14.0,-256.0,-35.0,-1.0,54.0,-2.0,25.0,-979.0,-56.0
13.0,-257.0,-37.0,-5.0,61.0,1.0,20.0,-985.0,-56.0
11.0,-255.0,-33.0,-8.0,65.0,0.0,19.0,-978.0,-62.0
14.0,-254.0,-34.0,-10.0,68.0,3.0,16.0,-977.0,-59.0
13.0,-253.0,-35.0,-13.0,70.0,4.0,21.0,-977.0,-58.0
12.0,-254.0,-34.0,-14.0,69.0,7.0,21.0,-975.0,-57.0
11.0,-254.0,-37.0,-14.0,70.0,5.0,21.0,-980.0,-58.0
13.0,-254.0,-36.0,-14.0,68.0,4.0,15.0,-975.0,-60.0
10.0,-251.0,-35.0,-12.0,65.0,2.0,14.0,-971.0,-57.0
10.0,-252.0,-38.0,-9.0,60.0,2.0,16.0,-973.0,-64.0
10.0,-253.0,-36.0,-9.0,60.0,-1.0,13.0,-975.0,-68.0
11.0,-254.0,-37.0,-14.0,60.0,2.0,21.0,-972.0,-62.0
13.0,-252.0,-35.0,-19.0,57.0,-2.0,20.0,-972.0,-63.0
13.0,-251.0,-35.0,-24.0,58.0,0.0,16.0,-972.0,-63.0
13.0,-252.0,-35.0,-27.0,59.0,-3.0,16.0,-975.0,-60.0
14.0,-257.0,-37.0,-28.0,60.0,0.0,19.0,-978.0,-50.0
11.0,-255.0,-37.0,-28.0,63.0,-2.0,16.0,-979.0,-51.0
12.0,-256.0,-32.0,-26.0,63.0,1.0,22.0,-987.0,-53.0
11.0,-257.0,-31.0,-24.0,63.0,-2.0,22.0,-984.0,-61.0
10.0,-254.0,-32.0,-20.0,64.0,0.0,16.0,-984.0,-59.0
12.0,-254.0,-34.0,-19.0,65.0,0.0,18.0,-993.0,-64.0
13.0,-254.0,-36.0,-17.0,65.0,3.0,18.0,-992.0,-62.0
11.0,-255.0,-32.0,-19.0,67.0,3.0,16.0,-987.0,-61.0
16.0,-255.0,-38.0,-20.0,68.0,3.0,17.0,-980.0,-63.0
12.0,-257.0,-33.0,-19.0,68.0,1.0,15.0,-977.0,-62.0
12.0,-254.0,-36.0,-20.0,66.0,2.0,17.0,-977.0,-65.0
12.0,-254.0,-36.0,-21.0,67.0,-1.0,17.0,-977.0,-57.0
11.0,-252.0,-36.0,-19.0,66.0,2.0,16.0,-979.0,-59.0
12.0,-254.0,-30.0,-18.0,65.0,-2.0,22.0,-977.0,-62.0
12.0,-254.0,-35.0,-18.0,65.0,1.0,17.0,-978.0,-62.0
11.0,-254.0,-34.0,-17.0,64.0,-2.0,22.0,-977.0,-64.0
15.0,-255.0,-36.0,-16.0,66.0,-1.0,22.0,-978.0,-65.0
12.0,-255.0,-39.0,-16.0,66.0,-5.0,20.0,-976.0,-60.0
15.0,-257.0,-37.0,-16.0,68.0,-2.0,22.0,-977.0,-67.0
12.0,-255.0,-38.0,-15.0,68.0,-3.0,21.0,-986.0,-64.0
12.0,-253.0,-37.0,-15.0,68.0,-3.0,19.0,-976.0,-66.0
14.0,-252.0,-36.0,-16.0,70.0,-6.0,22.0,-972.0,-63.0
9.0,-252.0,-37.0,-17.0,70.0,-3.0,22.0,-971.0,-67.0
10.0,-252.0,-39.0,-19.0,71.0,-4.0,21.0,-974.0,-67.0
11.0,-255.0,-36.0,-20.0,69.0,-2.0,18.0,-975.0,-67.0
9.0,-253.0,-36.0,-22.0,70.0,-3.0,19.0,-977.0,-65.0
11.0,-255.0,-37.0,-25.0,69.0,-1.0,20.0,-976.0,-65.0
15.0,-253.0,-36.0,-26.0,66.0,-3.0,20.0,-982.0,-65.0
14.0,-255.0,-37.0,-25.0,67.0,0.0,21.0,-978.0,-64.0
14.0,-254.0,-39.0,-25.0,67.0,-2.0,11.0,-974.0,-67.0
11.0,-255.0,-37.0,-26.0,69.0,1.0,15.0,-975.0,-63.0
13.0,-258.0,-34.0,-25.0,71.0,1.0,18.0,-981.0,-67.0
10.0,-255.0,-36.0,-23.0,73.0,5.0,18.0,-980.0,-61.0
13.0,-255.0,-36.0,-22.0,72.0,4.0,19.0,-980.0,-67.0
14.0,-258.0,-33.0,-20.0,70.0,10.0,20.0,-981.0,-62.0
14.0,-257.0,-36.0,-17.0,70.0,7.0,16.0,-985.0,-64.0
13.0,-255.0,-35.0,-17.0,71.0,7.0,14.0,-986.0,-65.0
12.0,-256.0,-34.0,-16.0,67.0,5.0,18.0,-992.0,-64.0
14.0,-259.0,-36.0,-16.0,65.0,5.0,19.0,-992.0,-64.0
13.0,-257.0,-35.0,-19.0,64.0,0.0,13.0,-975.0,-64.0
10.0,-252.0,-40.0,-16.0,60.0,2.0,12.0,-985.0,-66.0
10.0,-257.0,-37.0,-16.0,58.0,0.0,10.0,-979.0,-68.0
11.0,-253.0,-37.0,-16.0,54.0,1.0,15.0,-986.0,-64.0
13.0,-251.0,-35.0,-18.0,54.0,-1.0,18.0,-975.0,-64.0
11.0,-255.0,-37.0,-19.0,55.0,1.0,19.0,-980.0,-66.0
11.0,-253.0,-40.0,-22.0,58.0,-2.0,17.0,-975.0,-68.0
14.0,-254.0,-39.0,-24.0,60.0,2.0,32.0,-978.0,-69.0
18.0,-256.0,-40.0,-25.0,66.0,1.0,45.0,-980.0,-77.0
18.0,-256.0,-37.0,-26.0,75.0,1.0,37.0,-985.0,-73.0
25.0,-257.0,-38.0,-29.0,86.0,-1.0,68.0,-995.0,-82.0
22.0,-256.0,-42.0,-28.0,89.0,-2.0,51.0,-987.0,-78.0
13.0,-251.0,-41.0,-25.0,102.0,0.0,12.0,-967.0,-70.0
-2.0,-254.0,-40.0,-20.0,115.0,11.0,-18.0,-968.0,-65.0
-8.0,-254.0,-31.0,-19.0,104.0,7.0,-57.0,-969.0,-46.0
0.0,-254.0,-29.0,-30.0,59.0,0.0,-27.0,-983.0,-36.0
12.0,-256.0,-28.0,-36.0,17.0,-6.0,12.0,-995.0,-25.0
16.0,-258.0,-25.0,-32.0,1.0,-7.0,25.0,-1000.0,-29.0
11.0,-259.0,-32.0,-18.0,12.0,-6.0,15.0,-999.0,-37.0
9.0,-255.0,-32.0,2.0,31.0,-3.0,5.0,-999.0,-56.0
10.0,-252.0,-39.0,19.0,50.0,2.0,9.0,-974.0,-77.0
13.0,-250.0,-39.0,20.0,59.0,5.0,20.0,-971.0,-83.0
14.0,-250.0,-40.0,10.0,63.0,7.0,22.0,-969.0,-81.0
15.0,-253.0,-44.0,-3.0,63.0,8.0,26.0,-967.0,-71.0
14.0,-252.0,-38.0,-13.0,63.0,5.0,29.0,-970.0,-69.0
15.0,-251.0,-35.0,-19.0,62.0,5.0,27.0,-974.0,-71.0
15.0,-251.0,-41.0,-23.0,62.0,2.0,24.0,-970.0,-66.0
13.0,-253.0,-37.0,-27.0,61.0,3.0,22.0,-969.0,-65.0
15.0,-251.0,-37.0,-32.0,58.0,1.0,33.0,-974.0,-63.0
16.0,-254.0,-38.0,-35.0,54.0,0.0,22.0,-979.0,-65.0
12.0,-252.0,-34.0,-36.0,56.0,-1.0,22.0,-985.0,-64.0
15.0,-255.0,-35.0,-34.0,56.0,-2.0,20.0,-989.0,-63.0
11.0,-254.0,-35.0,-32.0,54.0,-5.0,20.0,-977.0,-61.0
10.0,-256.0,-36.0,-31.0,54.0,-6.0,22.0,-978.0,-64.0
12.0,-255.0,-40.0,-30.0,52.0,-6.0,18.0,-987.0,-62.0
13.0,-256.0,-34.0,-32.0,52.0,-6.0,18.0,-988.0,-58.0
13.0,-255.0,-40.0,-32.0,52.0,-6.0,13.0,-995.0,-63.0
8.0,-243.0,-45.0,-31.0,54.0,-6.0,16.0,-990.0,-64.0
14.0,-258.0,-37.0,-30.0,57.0,-6.0,20.0,-998.0,-64.0
12.0,-254.0,-35.0,-30.0,56.0,-8.0,17.0,-997.0,-66.0
10.0,-258.0,-39.0,-28.0,61.0,-5.0,12.0,-995.0,-64.0
