acc1_x,acc1_y,acc1_z,gyro_x,gyro_y,gyro_z,acc2_x,acc2_y,acc2_z
17.0,-257.0,0.0,-68.0,47.0,0.0,37.0,-1000.0,66.0
14.0,-257.0,2.0,-63.0,49.0,2.0,27.0,-995.0,67.0
16.0,-257.0,-3.0,-56.0,49.0,1.0,31.0,-993.0,63.0
15.0,-257.0,-3.0,-50.0,49.0,3.0,34.0,-993.0,64.0
15.0,-253.0,-1.0,-46.0,50.0,1.0,35.0,-999.0,63.0
14.0,-256.0,-5.0,-45.0,50.0,4.0,35.0,-981.0,65.0
17.0,-255.0,-5.0,-44.0,49.0,2.0,31.0,-988.0,59.0
14.0,-255.0,-2.0,-41.0,49.0,4.0,33.0,-985.0,62.0
18.0,-257.0,-5.0,-39.0,48.0,0.0,28.0,-992.0,57.0
17.0,-257.0,0.0,-37.0,47.0,1.0,30.0,-988.0,62.0
15.0,-257.0,-4.0,-32.0,48.0,-1.0,29.0,-987.0,61.0
16.0,-258.0,-7.0,-30.0,48.0,3.0,37.0,-981.0,57.0
16.0,-255.0,-5.0,-28.0,50.0,0.0,33.0,-985.0,58.0
13.0,-256.0,-2.0,-28.0,50.0,1.0,28.0,-981.0,57.0
16.0,-255.0,-5.0,-29.0,50.0,-1.0,33.0,-981.0,54.0
18.0,-255.0,-4.0,-29.0,48.0,1.0,30.0,-983.0,55.0
19.0,-256.0,-7.0,-27.0,47.0,1.0,31.0,-977.0,55.0
16.0,-252.0,-7.0,-27.0,49.0,2.0,34.0,-977.0,49.0
16.0,-257.0,-7.0,-26.0,51.0,1.0,28.0,-977.0,53.0
18.0,-255.0,-7.0,-28.0,49.0,1.0,27.0,-976.0,50.0
19.0,-255.0,-8.0,-30.0,49.0,1.0,34.0,-974.0,52.0
15.0,-253.0,-8.0,-35.0,50.0,1.0,36.0,-981.0,56.0
15.0,-257.0,-2.0,-36.0,52.0,0.0,35.0,-987.0,58.0
14.0,-256.0,-1.0,-36.0,53.0,1.0,34.0,-985.0,55.0
15.0,-253.0,-3.0,-33.0,55.0,-2.0,34.0,-977.0,55.0
15.0,-255.0,-3.0,-32.0,58.0,-1.0,37.0,-982.0,56.0
14.0,-251.0,-4.0,-32.0,61.0,-2.0,38.0,-975.0,59.0
15.0,-254.0,-3.0,-34.0,62.0,-1.0,42.0,-976.0,57.0
18.0,-255.0,-4.0,-32.0,63.0,-1.0,37.0,-976.0,57.0
18.0,-256.0,-8.0,-31.0,63.0,-3.0,34.0,-978.0,57.0
16.0,-258.0,-2.0,-31.0,64.0,-3.0,36.0,-975.0,60.0
14.0,-253.0,-7.0,-33.0,63.0,-4.0,25.0,-985.0,59.0
16.0,-254.0,-2.0,-31.0,62.0,-3.0,34.0,-977.0,56.0
15.0,-255.0,-3.0,-30.0,62.0,-4.0,27.0,-983.0,47.0
15.0,-256.0,-7.0,-30.0,62.0,-2.0,28.0,-978.0,52.0
15.0,-257.0,-7.0,-30.0,62.0,-3.0,27.0,-977.0,48.0
19.0,-257.0,-4.0,-32.0,65.0,-3.0,31.0,-980.0,52.0
14.0,-254.0,-6.0,-31.0,67.0,-5.0,29.0,-979.0,48.0
16.0,-256.0,-8.0,-31.0,68.0,-4.0,30.0,-979.0,48.0
15.0,-255.0,-6.0,-33.0,70.0,-5.0,30.0,-986.0,47.0
17.0,-255.0,-5.0,-36.0,70.0,-4.0,30.0,-975.0,45.0
15.0,-254.0,-3.0,-37.0,68.0,-5.0,25.0,-976.0,50.0
16.0,-255.0,-7.0,-38.0,67.0,-3.0,35.0,-978.0,43.0
14.0,-253.0,-4.0,-40.0,66.0,-6.0,30.0,-975.0,46.0
15.0,-253.0,-8.0,-42.0,64.0,-5.0,27.0,-974.0,43.0
17.0,-253.0,-6.0,-42.0,65.0,-9.0,30.0,-977.0,40.0
16.0,-256.0,-6.0,-42.0,65.0,-6.0,27.0,-975.0,41.0
13.0,-256.0,-10.0,-44.0,64.0,-9.0,31.0,-977.0,39.0
18.0,-254.0,-11.0,-44.0,64.0,-5.0,29.0,-975.0,37.0
16.0,-258.0,-12.0,-48.0,66.0,-9.0,24.0,-975.0,33.0
17.0,-255.0,-7.0,-51.0,65.0,-7.0,29.0,-978.0,39.0
15.0,-253.0,-9.0,-53.0,63.0,-8.0,26.0,-980.0,41.0
15.0,-257.0,-7.0,-54.0,65.0,-6.0,26.0,-992.0,38.0
15.0,-256.0,-9.0,-55.0,65.0,-8.0,27.0,-992.0,44.0
13.0,-257.0,-8.0,-55.0,65.0,-5.0,28.0,-994.0,45.0
17.0,-256.0,-8.0,-54.0,65.0,-6.0,24.0,-992.0,40.0
14.0,-256.0,-8.0,-52.0,63.0,-3.0,23.0,-1001.0,44.0
15.0,-254.0,-9.0,-48.0,64.0,-5.0,23.0,-990.0,45.0
14.0,-257.0,-6.0,-46.0,62.0,-3.0,22.0,-980.0,50.0
15.0,-254.0,-5.0,-43.0,63.0,-4.0,27.0,-985.0,49.0
15.0,-258.0,-5.0,-42.0,63.0,-1.0,23.0,-989.0,48.0
15.0,-254.0,-8.0,-42.0,63.0,-4.0,28.0,-985.0,51.0
14.0,-255.0,-10.0,-42.0,61.0,-1.0,24.0,-987.0,48.0
13.0,-253.0,-8.0,-37.0,61.0,-2.0,25.0,-989.0,43.0
16.0,-256.0,-7.0,-33.0,62.0,0.0,24.0,-994.0,43.0
14.0,-256.0,-7.0,-31.0,61.0,-2.0,25.0,-977.0,45.0
16.0,-252.0,-10.0,-30.0,62.0,0.0,23.0,-989.0,47.0
14.0,-256.0,-12.0,-31.0,61.0,-2.0,27.0,-977.0,45.0
15.0,-255.0,-5.0,-31.0,59.0,-2.0,25.0,-977.0,45.0
16.0,-254.0,-8.0,-32.0,60.0,-3.0,26.0,-986.0,39.0
14.0,-255.0,-10.0,-31.0,61.0,-1.0,26.0,-975.0,41.0
31.0,-251.0,-12.0,-34.0,61.0,-5.0,29.0,-976.0,44.0
14.0,-255.0,-9.0,-37.0,64.0,-1.0,26.0,-977.0,33.0
15.0,-253.0,-8.0,-41.0,63.0,-2.0,30.0,-976.0,45.0
15.0,-256.0,-10.0,-45.0,63.0,0.0,24.0,-979.0,38.0
15.0,-255.0,-9.0,-48.0,63.0,-1.0,30.0,-983.0,42.0
16.0,-255.0,-12.0,-49.0,65.0,0.0,27.0,-978.0,38.0
15.0,-254.0,-6.0,-49.0,66.0,-1.0,31.0,-986.0,42.0
17.0,-255.0,-7.0,-47.0,65.0,-1.0,32.0,-987.0,41.0
14.0,-257.0,-8.0,-45.0,66.0,-3.0,33.0,-983.0,40.0
15.0,-256.0,-6.0,-42.0,66.0,-2.0,28.0,-978.0,43.0
17.0,-254.0,-10.0,-41.0,65.0,-3.0,30.0,-979.0,37.0
18.0,-255.0,-8.0,-41.0,63.0,-1.0,29.0,-986.0,38.0
18.0,-254.0,-7.0,-41.0,64.0,-3.0,33.0,-980.0,40.0
17.0,-257.0,-11.0,-42.0,62.0,-3.0,32.0,-984.0,41.0
15.0,-254.0,-9.0,-44.0,63.0,-5.0,29.0,-985.0,39.0
18.0,-258.0,-8.0,-45.0,62.0,-3.0,30.0,-989.0,43.0
14.0,-255.0,-8.0,-45.0,62.0,-5.0,31.0,-980.0,42.0
14.0,-255.0,-12.0,-45.0,61.0,-4.0,29.0,-981.0,49.0
14.0,-254.0,-7.0,-42.0,60.0,-5.0,34.0,-987.0,44.0
14.0,-255.0,-8.0,-42.0,60.0,-3.0,28.0,-980.0,42.0
16.0,-255.0,-9.0,-39.0,59.0,-4.0,28.0,-979.0,42.0
19.0,-256.0,-8.0,-39.0,60.0,-2.0,26.0,-977.0,42.0
15.0,-256.0,-9.0,-38.0,61.0,-3.0,22.0,-986.0,39.0
13.0,-252.0,-13.0,-38.0,61.0,-2.0,26.0,-979.0,40.0
15.0,-252.0,-10.0,-38.0,61.0,-2.0,25.0,-977.0,39.0
17.0,-252.0,-5.0,-38.0,61.0,-2.0,34.0,-985.0,33.0
17.0,-257.0,-6.0,-38.0,61.0,-1.0,36.0,-977.0,38.0
16.0,-254.0,-13.0,-36.0,64.0,-3.0,36.0,-975.0,39.0
15.0,-254.0,-10.0,-38.0,64.0,-4.0,33.0,-977.0,38.0
18.0,-256.0,-7.0,-39.0,64.0,-3.0,35.0,-974.0,37.0
18.0,-254.0,-9.0,-38.0,63.0,-4.0,38.0,-980.0,37.0
18.0,-256.0,-7.0,-38.0,63.0,-4.0,31.0,-978.0,30.0
16.0,-256.0,-10.0,-36.0,61.0,-5.0,34.0,-987.0,34.0
15.0,-257.0,-10.0,-38.0,60.0,-5.0,39.0,-978.0,33.0
16.0,-252.0,-11.0,-38.0,59.0,-3.0,34.0,-978.0,36.0
15.0,-256.0,-7.0,-38.0,57.0,-4.0,31.0,-983.0,32.0
16.0,-257.0,-9.0,-40.0,56.0,-3.0,34.0,-987.0,35.0
14.0,-252.0,-7.0,-40.0,55.0,-3.0,32.0,-978.0,38.0
13.0,-252.0,-10.0,-38.0,54.0,-3.0,33.0,-982.0,39.0
14.0,-254.0,-11.0,-35.0,55.0,-5.0,26.0,-977.0,39.0
15.0,-257.0,-9.0,-32.0,57.0,-3.0,28.0,-976.0,40.0
17.0,-254.0,-8.0,-29.0,57.0,-5.0,28.0,-980.0,37.0
14.0,-255.0,-12.0,-26.0,57.0,-4.0,28.0,-984.0,37.0
13.0,-256.0,-9.0,-23.0,59.0,-4.0,27.0,-988.0,35.0
16.0,-257.0,-10.0,-21.0,59.0,-1.0,32.0,-986.0,46.0
16.0,-254.0,-9.0,-19.0,60.0,-4.0,28.0,-986.0,37.0
14.0,-253.0,-7.0,-18.0,61.0,-2.0,27.0,-980.0,38.0
17.0,-254.0,-8.0,-18.0,63.0,-4.0,32.0,-980.0,34.0
17.0,-254.0,-5.0,-17.0,64.0,-2.0,33.0,-985.0,35.0
17.0,-254.0,-9.0,-18.0,63.0,-4.0,33.0,-981.0,39.0
17.0,-254.0,-8.0,-16.0,63.0,-2.0,30.0,-979.0,32.0
18.0,-254.0,-11.0,-15.0,64.0,-4.0,34.0,-980.0,39.0
16.0,-253.0,-12.0,-17.0,63.0,-3.0,32.0,-978.0,33.0
19.0,-253.0,-7.0,-18.0,64.0,-6.0,35.0,-986.0,35.0
16.0,-257.0,-10.0,-18.0,63.0,-4.0,34.0,-980.0,31.0
16.0,-256.0,-8.0,-20.0,62.0,-7.0,38.0,-980.0,33.0
17.0,-257.0,-12.0,-19.0,63.0,-4.0,35.0,-993.0,29.0
15.0,-258.0,-11.0,-16.0,63.0,-8.0,31.0,-998.0,32.0
12.0,-257.0,-7.0,-15.0,62.0,-6.0,28.0,-987.0,34.0
16.0,-256.0,-10.0,-12.0,63.0,-10.0,32.0,-998.0,38.0
17.0,-256.0,-11.0,-9.0,62.0,-6.0,30.0,-997.0,38.0
14.0,-256.0,-11.0,-6.0,62.0,-9.0,25.0,-980.0,35.0
16.0,-255.0,-10.0,-3.0,62.0,-6.0,31.0,-979.0,34.0
13.0,-255.0,-10.0,1.0,63.0,-8.0,26.0,-987.0,36.0
12.0,-253.0,-10.0,1.0,62.0,-4.0,26.0,-975.0,34.0
13.0,-252.0,-9.0,3.0,63.0,-6.0,31.0,-979.0,33.0
14.0,-255.0,-12.0,2.0,63.0,-4.0,26.0,-974.0,34.0
14.0,-254.0,-11.0,-2.0,61.0,-5.0,27.0,-973.0,36.0
17.0,-253.0,-11.0,-4.0,62.0,-3.0,26.0,-978.0,36.0
14.0,-252.0,-9.0,-6.0,63.0,-5.0,27.0,-974.0,36.0
14.0,-253.0,-5.0,-8.0,64.0,-2.0,28.0,-970.0,33.0
14.0,-253.0,-9.0,-12.0,65.0,-4.0,29.0,-976.0,37.0
15.0,-255.0,-6.0,-13.0,67.0,-2.0,28.0,-981.0,36.0
18.0,-255.0,-9.0,-17.0,68.0,-5.0,23.0,-978.0,41.0
13.0,-253.0,-7.0,-16.0,70.0,-2.0,27.0,-982.0,40.0
13.0,-258.0,-7.0,-17.0,68.0,-6.0,27.0,-979.0,40.0
15.0,-255.0,-8.0,-17.0,69.0,-5.0,31.0,-986.0,39.0
16.0,-253.0,-11.0,-14.0,67.0,-7.0,25.0,-981.0,40.0
14.0,-254.0,-7.0,-13.0,66.0,-6.0,27.0,-987.0,41.0
17.0,-258.0,-10.0,-11.0,67.0,-8.0,29.0,-985.0,36.0
15.0,-257.0,-11.0,-9.0,66.0,-6.0,32.0,-984.0,32.0
15.0,-255.0,-11.0,-7.0,64.0,-9.0,33.0,-987.0,35.0
18.0,-257.0,-13.0,-6.0,64.0,-8.0,29.0,-983.0,35.0
14.0,-258.0,-13.0,-9.0,63.0,-9.0,26.0,-976.0,34.0
15.0,-256.0,-13.0,-11.0,64.0,-6.0,29.0,-981.0,32.0
15.0,-257.0,-14.0,-13.0,65.0,-8.0,30.0,-981.0,31.0
13.0,-256.0,-10.0,-15.0,68.0,-5.0,30.0,-986.0,32.0
17.0,-256.0,-10.0,-16.0,70.0,-5.0,28.0,-986.0,30.0
15.0,-255.0,-7.0,-17.0,72.0,-5.0,34.0,-985.0,35.0
17.0,-256.0,-7.0,-16.0,74.0,-5.0,33.0,-978.0,34.0
14.0,-257.0,-11.0,-15.0,76.0,-3.0,30.0,-977.0,33.0
14.0,-254.0,-12.0,-14.0,74.0,-3.0,35.0,-984.0,35.0
16.0,-255.0,-8.0,-14.0,74.0,-3.0,37.0,-976.0,35.0
13.0,-252.0,-11.0,-16.0,74.0,-4.0,35.0,-981.0,32.0
17.0,-252.0,-10.0,-14.0,73.0,-3.0,31.0,-976.0,38.0
15.0,-254.0,-8.0,-14.0,70.0,-5.0,30.0,-975.0,39.0
15.0,-255.0,-13.0,-13.0,69.0,-3.0,32.0,-979.0,39.0
15.0,-254.0,-9.0,-13.0,68.0,-5.0,27.0,-977.0,37.0
14.0,-255.0,-10.0,-13.0,69.0,-5.0,31.0,-979.0,34.0
15.0,-256.0,-11.0,-12.0,70.0,-5.0,28.0,-981.0,36.0
15.0,-257.0,-8.0,-11.0,69.0,-5.0,33.0,-982.0,32.0
14.0,-256.0,-11.0,-11.0,70.0,-6.0,26.0,-986.0,38.0
14.0,-254.0,-10.0,-11.0,68.0,-7.0,30.0,-986.0,29.0
14.0,-256.0,-10.0,-9.0,66.0,-6.0,27.0,-992.0,33.0
13.0,-253.0,-8.0,-7.0,66.0,-7.0,28.0,-980.0,36.0
14.0,-255.0,-8.0,-6.0,66.0,-6.0,25.0,-981.0,43.0
12.0,-256.0,-5.0,-6.0,65.0,-6.0,24.0,-981.0,41.0
13.0,-256.0,-9.0,-5.0,65.0,-4.0,24.0,-980.0,40.0
14.0,-256.0,-5.0,-4.0,65.0,-5.0,23.0,-980.0,42.0
12.0,-256.0,-10.0,-4.0,64.0,-2.0,21.0,-977.0,39.0
17.0,-257.0,-6.0,-6.0,63.0,-3.0,21.0,-987.0,39.0
15.0,-252.0,-6.0,-6.0,62.0,-1.0,22.0,-980.0,43.0
13.0,-257.0,-8.0,-5.0,60.0,0.0,20.0,-983.0,44.0
13.0,-257.0,-8.0,-5.0,60.0,1.0,19.0,-981.0,38.0
16.0,-256.0,-12.0,-5.0,60.0,1.0,22.0,-988.0,37.0
15.0,-253.0,-8.0,-3.0,59.0,2.0,25.0,-987.0,44.0
17.0,-255.0,-12.0,-2.0,58.0,0.0,25.0,-987.0,41.0
17.0,-256.0,-10.0,-2.0,57.0,2.0,27.0,-979.0,35.0
16.0,-255.0,-10.0,-2.0,57.0,1.0,31.0,-983.0,35.0
18.0,-256.0,-11.0,-2.0,56.0,1.0,35.0,-976.0,33.0
16.0,-255.0,-10.0,-3.0,54.0,-3.0,31.0,-979.0,34.0
16.0,-254.0,-11.0,-4.0,54.0,-3.0,31.0,-988.0,39.0
20.0,-257.0,-12.0,-5.0,53.0,-5.0,34.0,-979.0,37.0
17.0,-253.0,-11.0,-4.0,52.0,-5.0,34.0,-980.0,34.0
17.0,-255.0,-8.0,-3.0,51.0,-6.0,27.0,-980.0,36.0
15.0,-254.0,-7.0,0.0,51.0,-5.0,32.0,-981.0,35.0
14.0,-258.0,-8.0,1.0,50.0,-7.0,28.0,-982.0,37.0
14.0,-257.0,-12.0,5.0,48.0,-5.0,34.0,-982.0,37.0
16.0,-255.0,-11.0,5.0,47.0,-7.0,28.0,-985.0,39.0
15.0,-255.0,-8.0,5.0,47.0,-4.0,31.0,-987.0,39.0
17.0,-254.0,-7.0,4.0,49.0,-6.0,38.0,-977.0,42.0
16.0,-254.0,-8.0,2.0,51.0,-3.0,36.0,-989.0,40.0
17.0,-256.0,-7.0,0.0,54.0,-4.0,31.0,-988.0,41.0
18.0,-254.0,-13.0,-1.0,56.0,-1.0,34.0,-991.0,39.0
17.0,-257.0,-5.0,0.0,57.0,-2.0,31.0,-990.0,41.0
17.0,-255.0,-10.0,0.0,60.0,1.0,31.0,-985.0,36.0
17.0,-254.0,-7.0,1.0,61.0,-1.0,34.0,-981.0,38.0
15.0,-254.0,-14.0,0.0,62.0,2.0,31.0,-977.0,32.0
17.0,-255.0,-12.0,0.0,61.0,-1.0,34.0,-977.0,35.0
16.0,-257.0,-5.0,0.0,62.0,1.0,33.0,-991.0,38.0
16.0,-253.0,-9.0,1.0,62.0,-2.0,38.0,-982.0,37.0
18.0,-256.0,-10.0,0.0,60.0,0.0,35.0,-995.0,32.0
16.0,-255.0,-10.0,1.0,61.0,-3.0,32.0,-988.0,35.0
15.0,-256.0,-10.0,3.0,61.0,-1.0,37.0,-982.0,35.0
18.0,-257.0,-10.0,3.0,58.0,-4.0,31.0,-987.0,40.0
17.0,-253.0,-10.0,4.0,57.0,-3.0,29.0,-980.0,34.0
19.0,-257.0,-13.0,4.0,58.0,-4.0,37.0,-978.0,36.0
14.0,-253.0,-10.0,5.0,58.0,-3.0,35.0,-977.0,36.0
16.0,-252.0,-11.0,4.0,59.0,-5.0,29.0,-982.0,37.0
15.0,-253.0,-11.0,3.0,58.0,-3.0,27.0,-977.0,33.0
12.0,-254.0,-13.0,4.0,57.0,-4.0,25.0,-977.0,31.0
13.0,-253.0,-12.0,2.0,57.0,-3.0,25.0,-978.0,35.0
11.0,-253.0,-10.0,0.0,58.0,-5.0,23.0,-975.0,35.0
13.0,-255.0,-10.0,-4.0,56.0,-2.0,27.0,-987.0,37.0
14.0,-250.0,-7.0,-5.0,57.0,-3.0,28.0,-982.0,35.0
14.0,-252.0,-6.0,-7.0,58.0,0.0,28.0,-976.0,39.0
14.0,-254.0,-10.0,-9.0,59.0,-1.0,24.0,-980.0,36.0
12.0,-253.0,-11.0,-11.0,60.0,1.0,26.0,-982.0,34.0
17.0,-254.0,-10.0,-11.0,61.0,-1.0,30.0,-987.0,37.0
14.0,-257.0,-9.0,-11.0,61.0,1.0,29.0,-987.0,36.0
12.0,-255.0,-11.0,-9.0,62.0,-1.0,27.0,-983.0,33.0
14.0,-259.0,-12.0,-8.0,62.0,0.0,29.0,-993.0,38.0
16.0,-255.0,-8.0,-5.0,60.0,-1.0,30.0,-992.0,35.0
13.0,-259.0,-9.0,-2.0,59.0,0.0,29.0,-996.0,36.0
16.0,-256.0,-11.0,-2.0,58.0,-2.0,29.0,-992.0,38.0
17.0,-258.0,-10.0,1.0,56.0,-1.0,28.0,-983.0,40.0
17.0,-254.0,-11.0,6.0,55.0,-1.0,28.0,-980.0,38.0
18.0,-253.0,-11.0,4.0,53.0,-2.0,34.0,-975.0,33.0
17.0,-256.0,-6.0,4.0,53.0,-1.0,35.0,-976.0,34.0
18.0,-257.0,-8.0,3.0,52.0,-1.0,33.0,-978.0,38.0
16.0,-253.0,-12.0,0.0,51.0,-2.0,31.0,-980.0,34.0
14.0,-257.0,-9.0,0.0,52.0,-1.0,35.0,-979.0,36.0
13.0,-253.0,-9.0,-1.0,54.0,-1.0,31.0,-977.0,40.0
16.0,-255.0,-9.0,-3.0,54.0,-1.0,34.0,-977.0,43.0
15.0,-254.0,-7.0,-4.0,56.0,-1.0,25.0,-989.0,38.0
15.0,-255.0,-10.0,-2.0,56.0,-1.0,27.0,-984.0,38.0
16.0,-256.0,-11.0,0.0,57.0,0.0,26.0,-978.0,39.0
15.0,-257.0,-8.0,1.0,57.0,1.0,32.0,-981.0,42.0
16.0,-256.0,-10.0,3.0,60.0,2.0,30.0,-981.0,41.0
14.0,-255.0,-9.0,4.0,61.0,2.0,33.0,-980.0,41.0
16.0,-255.0,-12.0,4.0,60.0,2.0,35.0,-977.0,41.0
16.0,-258.0,-10.0,3.0,59.0,1.0,31.0,-978.0,38.0
15.0,-255.0,-10.0,4.0,58.0,0.0,37.0,-976.0,37.0
15.0,-253.0,-5.0,3.0,56.0,-1.0,31.0,-979.0,37.0
16.0,-257.0,-8.0,3.0,54.0,-1.0,28.0,-977.0,38.0
13.0,-253.0,-10.0,3.0,53.0,-2.0,27.0,-978.0,43.0
19.0,-256.0,-9.0,1.0,51.0,0.0,25.0,-974.0,40.0
17.0,-257.0,-9.0,0.0,50.0,0.0,32.0,-979.0,43.0
16.0,-257.0,-9.0,-4.0,50.0,0.0,32.0,-984.0,40.0
18.0,-255.0,-8.0,-4.0,52.0,-2.0,29.0,-979.0,37.0
16.0,-255.0,-7.0,-3.0,54.0,1.0,30.0,-987.0,41.0
18.0,-255.0,-8.0,-3.0,56.0,-1.0,35.0,-987.0,45.0
16.0,-256.0,-8.0,-2.0,58.0,2.0,30.0,-979.0,43.0
18.0,-255.0,-7.0,0.0,59.0,1.0,34.0,-989.0,45.0
18.0,-253.0,-8.0,3.0,58.0,2.0,34.0,-974.0,45.0
17.0,-255.0,-9.0,3.0,58.0,-1.0,40.0,-978.0,42.0
18.0,-255.0,-8.0,4.0,59.0,0.0,38.0,-980.0,41.0
18.0,-253.0,-8.0,5.0,59.0,-3.0,40.0,-980.0,44.0
17.0,-251.0,-10.0,3.0,59.0,-1.0,36.0,-974.0,41.0
16.0,-254.0,-13.0,0.0,59.0,-3.0,34.0,-977.0,39.0
16.0,-255.0,-9.0,-3.0,57.0,-1.0,32.0,-979.0,45.0
15.0,-257.0,-4.0,-6.0,58.0,-4.0,34.0,-975.0,40.0
15.0,-255.0,-6.0,-9.0,56.0,-1.0,33.0,-995.0,47.0
15.0,-255.0,-6.0,-9.0,57.0,-3.0,31.0,-983.0,46.0
19.0,-256.0,-5.0,-10.0,59.0,-1.0,33.0,-978.0,45.0
16.0,-254.0,-8.0,-10.0,61.0,-3.0,29.0,-977.0,50.0
17.0,-255.0,-8.0,-9.0,61.0,-2.0,33.0,-982.0,46.0
16.0,-257.0,-3.0,-8.0,63.0,-4.0,32.0,-986.0,42.0
15.0,-255.0,-5.0,-7.0,62.0,0.0,35.0,-983.0,47.0
13.0,-256.0,-7.0,-3.0,64.0,-4.0,29.0,-976.0,46.0
16.0,-256.0,-8.0,-3.0,64.0,-1.0,25.0,-985.0,47.0
18.0,-255.0,-11.0,-2.0,64.0,-4.0,29.0,-974.0,44.0
15.0,-256.0,-8.0,0.0,65.0,-1.0,37.0,-976.0,47.0
14.0,-253.0,-8.0,0.0,66.0,-5.0,25.0,-981.0,41.0
16.0,-254.0,-6.0,1.0,63.0,-2.0,30.0,-979.0,41.0
13.0,-255.0,-7.0,0.0,63.0,-4.0,31.0,-984.0,44.0
12.0,-253.0,-9.0,-1.0,61.0,0.0,33.0,-976.0,44.0
14.0,-253.0,-8.0,-3.0,62.0,-3.0,31.0,-977.0,45.0
17.0,-253.0,-9.0,-4.0,60.0,1.0,30.0,-985.0,46.0
15.0,-256.0,-7.0,-3.0,60.0,-2.0,31.0,-987.0,43.0
15.0,-257.0,-5.0,-1.0,59.0,2.0,27.0,-975.0,48.0
15.0,-256.0,-6.0,-1.0,58.0,0.0,28.0,-980.0,43.0
11.0,-252.0,-7.0,-3.0,59.0,3.0,27.0,-987.0,44.0
13.0,-254.0,-4.0,-5.0,58.0,0.0,24.0,-986.0,45.0
18.0,-255.0,-8.0,-6.0,58.0,3.0,27.0,-992.0,43.0
18.0,-256.0,-8.0,-6.0,58.0,1.0,27.0,-990.0,46.0
14.0,-254.0,-10.0,-5.0,58.0,4.0,26.0,-977.0,45.0
17.0,-256.0,-3.0,-5.0,58.0,1.0,28.0,-985.0,48.0
16.0,-256.0,-5.0,-5.0,59.0,3.0,24.0,-979.0,50.0
13.0,-252.0,-3.0,-5.0,59.0,1.0,27.0,-986.0,47.0
16.0,-255.0,-3.0,-6.0,59.0,2.0,24.0,-976.0,49.0
16.0,-254.0,-6.0,-5.0,60.0,2.0,25.0,-979.0,48.0
15.0,-256.0,-6.0,-4.0,59.0,3.0,26.0,-981.0,48.0
12.0,-254.0,-10.0,-2.0,57.0,2.0,23.0,-980.0,47.0
15.0,-255.0,-7.0,-2.0,55.0,4.0,25.0,-991.0,43.0
15.0,-255.0,-9.0,-1.0,55.0,1.0,29.0,-977.0,44.0
15.0,-253.0,-5.0,0.0,56.0,2.0,26.0,-978.0,43.0
17.0,-254.0,-7.0,-3.0,55.0,1.0,31.0,-973.0,42.0
15.0,-255.0,-8.0,-4.0,53.0,2.0,36.0,-976.0,44.0
18.0,-255.0,-10.0,-5.0,55.0,0.0,32.0,-979.0,43.0
14.0,-253.0,-4.0,-9.0,57.0,1.0,24.0,-979.0,45.0
14.0,-256.0,-5.0,-10.0,60.0,0.0,32.0,-995.0,51.0
12.0,-255.0,-6.0,-9.0,59.0,1.0,34.0,-986.0,57.0
18.0,-256.0,-6.0,-4.0,59.0,-1.0,28.0,-993.0,56.0
16.0,-256.0,-3.0,2.0,60.0,1.0,31.0,-979.0,53.0
17.0,-253.0,-7.0,6.0,62.0,2.0,35.0,-977.0,50.0
14.0,-252.0,-6.0,10.0,63.0,3.0,31.0,-974.0,52.0
15.0,-254.0,-8.0,10.0,63.0,1.0,30.0,-978.0,50.0
17.0,-256.0,-9.0,9.0,63.0,1.0,28.0,-976.0,45.0
15.0,-251.0,-5.0,8.0,61.0,1.0,31.0,-976.0,40.0
18.0,-256.0,-10.0,7.0,60.0,1.0,33.0,-977.0,49.0
14.0,-253.0,-9.0,3.0,62.0,2.0,35.0,-984.0,43.0
16.0,-255.0,-7.0,0.0,61.0,2.0,28.0,-981.0,43.0
14.0,-253.0,-7.0,-2.0,63.0,2.0,22.0,-990.0,47.0
15.0,-255.0,-9.0,-7.0,63.0,2.0,26.0,-982.0,48.0
16.0,-257.0,-6.0,-10.0,62.0,1.0,34.0,-980.0,52.0
15.0,-257.0,-8.0,-10.0,62.0,1.0,33.0,-981.0,52.0
16.0,-255.0,-2.0,-12.0,62.0,2.0,29.0,-983.0,54.0
17.0,-255.0,-5.0,-13.0,62.0,1.0,34.0,-988.0,50.0
18.0,-257.0,-1.0,-11.0,62.0,0.0,28.0,-975.0,50.0
17.0,-255.0,-8.0,-10.0,64.0,1.0,33.0,-980.0,55.0
15.0,-251.0,-3.0,-8.0,64.0,3.0,30.0,-977.0,47.0
15.0,-254.0,-7.0,-3.0,62.0,2.0,27.0,-978.0,48.0
17.0,-252.0,-6.0,1.0,63.0,2.0,30.0,-987.0,49.0
15.0,-255.0,-7.0,2.0,60.0,0.0,31.0,-985.0,50.0
16.0,-256.0,-6.0,3.0,61.0,2.0,30.0,-982.0,53.0
13.0,-254.0,-9.0,2.0,62.0,1.0,26.0,-976.0,47.0
15.0,-255.0,-6.0,3.0,62.0,1.0,32.0,-975.0,43.0
16.0,-255.0,-4.0,0.0,61.0,-1.0,30.0,-978.0,47.0
17.0,-254.0,-3.0,-1.0,59.0,1.0,31.0,-979.0,48.0
16.0,-257.0,-8.0,-4.0,59.0,-1.0,29.0,-977.0,51.0
13.0,-255.0,-9.0,-5.0,58.0,0.0,26.0,-987.0,50.0
16.0,-257.0,-8.0,-7.0,57.0,-1.0,24.0,-980.0,52.0
15.0,-258.0,-4.0,-7.0,58.0,0.0,28.0,-996.0,58.0
13.0,-257.0,-4.0,-8.0,57.0,-1.0,26.0,-993.0,54.0
16.0,-255.0,-6.0,-9.0,57.0,1.0,25.0,-986.0,61.0
13.0,-254.0,-1.0,-8.0,57.0,0.0,28.0,-982.0,59.0
15.0,-255.0,-3.0,-5.0,57.0,1.0,25.0,-991.0,59.0
16.0,-259.0,-4.0,-3.0,58.0,0.0,23.0,-986.0,60.0
16.0,-253.0,-8.0,2.0,59.0,2.0,29.0,-986.0,55.0
14.0,-255.0,-7.0,3.0,61.0,-2.0,23.0,-974.0,57.0
13.0,-254.0,-3.0,5.0,62.0,0.0,28.0,-976.0,52.0
15.0,-254.0,-5.0,1.0,65.0,-1.0,36.0,-974.0,52.0
15.0,-254.0,-7.0,-1.0,64.0,0.0,30.0,-974.0,52.0
14.0,-253.0,-8.0,-3.0,65.0,-2.0,34.0,-974.0,50.0
17.0,-253.0,-5.0,-3.0,67.0,-1.0,34.0,-979.0,53.0
15.0,-253.0,-8.0,-4.0,66.0,-3.0,29.0,-973.0,45.0
19.0,-256.0,-9.0,-5.0,67.0,-1.0,28.0,-976.0,48.0
16.0,-257.0,-8.0,-5.0,66.0,-4.0,36.0,-979.0,54.0
14.0,-258.0,-6.0,-7.0,66.0,0.0,30.0,-975.0,47.0
17.0,-254.0,-3.0,-9.0,67.0,-4.0,32.0,-977.0,58.0
16.0,-255.0,-2.0,-9.0,67.0,-2.0,33.0,-982.0,57.0
16.0,-255.0,-2.0,-12.0,64.0,-5.0,30.0,-978.0,56.0
18.0,-258.0,-2.0,-10.0,64.0,-3.0,23.0,-992.0,57.0
11.0,-253.0,-5.0,-10.0,63.0,-6.0,24.0,-982.0,56.0
14.0,-257.0,-4.0,-10.0,61.0,-4.0,25.0,-976.0,64.0
17.0,-255.0,-4.0,-7.0,61.0,-5.0,28.0,-977.0,59.0
14.0,-254.0,-8.0,-7.0,61.0,-3.0,27.0,-986.0,56.0
15.0,-257.0,-4.0,-5.0,61.0,-5.0,23.0,-977.0,56.0
16.0,-254.0,-5.0,-7.0,61.0,-2.0,21.0,-977.0,55.0
13.0,-255.0,-5.0,-6.0,62.0,-5.0,21.0,-978.0,51.0
12.0,-251.0,-5.0,-7.0,61.0,0.0,21.0,-987.0,55.0
13.0,-256.0,-5.0,-6.0,61.0,-3.0,26.0,-978.0,51.0
15.0,-254.0,-8.0,-8.0,61.0,1.0,28.0,-978.0,55.0
11.0,-253.0,-10.0,-10.0,63.0,-1.0,25.0,-980.0,54.0
11.0,-258.0,-5.0,-12.0,63.0,2.0,27.0,-975.0,55.0
16.0,-240.0,-10.0,-14.0,64.0,2.0,32.0,-979.0,53.0
3.0,-253.0,-13.0,-13.0,65.0,3.0,30.0,-979.0,59.0
10.0,-260.0,-1.0,-12.0,63.0,2.0,28.0,-986.0,55.0
9.0,-260.0,13.0,-12.0,62.0,5.0,30.0,-986.0,58.0
16.0,-256.0,-1.0,-8.0,60.0,4.0,26.0,-980.0,60.0
14.0,-257.0,-5.0,-5.0,58.0,6.0,23.0,-983.0,58.0
17.0,-256.0,-4.0,-2.0,57.0,4.0,23.0,-982.0,55.0
17.0,-256.0,-5.0,1.0,58.0,4.0,23.0,-982.0,52.0
14.0,-254.0,-7.0,1.0,58.0,2.0,27.0,-975.0,56.0
16.0,-253.0,-5.0,-1.0,56.0,3.0,27.0,-976.0,57.0
15.0,-255.0,-4.0,-1.0,56.0,2.0,34.0,-981.0,53.0
18.0,-256.0,-5.0,-3.0,57.0,3.0,31.0,-984.0,59.0
12.0,-254.0,-5.0,-4.0,59.0,1.0,35.0,-975.0,59.0
15.0,-256.0,-3.0,-4.0,61.0,1.0,28.0,-976.0,60.0
15.0,-257.0,-1.0,-5.0,61.0,1.0,30.0,-977.0,59.0
16.0,-255.0,-4.0,-7.0,63.0,-1.0,33.0,-982.0,60.0
17.0,-256.0,1.0,-10.0,65.0,-3.0,30.0,-989.0,64.0
16.0,-257.0,-4.0,-10.0,66.0,-1.0,31.0,-984.0,61.0
16.0,-256.0,0.0,-10.0,66.0,-1.0,28.0,-979.0,57.0
15.0,-254.0,-5.0,-9.0,64.0,-1.0,29.0,-981.0,56.0
15.0,-254.0,-3.0,-7.0,62.0,-2.0,27.0,-979.0,52.0
17.0,-256.0,-5.0,-7.0,61.0,-1.0,26.0,-978.0,57.0
16.0,-254.0,-5.0,-8.0,60.0,-1.0,32.0,-978.0,54.0
14.0,-255.0,-4.0,-8.0,61.0,1.0,27.0,-974.0,54.0
15.0,-257.0,-8.0,-10.0,60.0,0.0,27.0,-980.0,54.0
17.0,-255.0,-7.0,-10.0,61.0,0.0,34.0,-977.0,50.0
15.0,-254.0,-5.0,-12.0,64.0,1.0,35.0,-974.0,50.0
16.0,-256.0,-4.0,-15.0,64.0,1.0,27.0,-972.0,55.0
16.0,-253.0,-3.0,-17.0,65.0,1.0,34.0,-975.0,53.0
14.0,-253.0,-5.0,-19.0,64.0,0.0,31.0,-981.0,51.0
13.0,-253.0,-4.0,-19.0,64.0,2.0,25.0,-986.0,56.0
16.0,-255.0,-4.0,-19.0,63.0,0.0,26.0,-977.0,57.0
15.0,-256.0,0.0,-18.0,62.0,-2.0,23.0,-987.0,58.0
12.0,-256.0,-5.0,-15.0,62.0,-3.0,26.0,-981.0,58.0
11.0,-254.0,-6.0,-13.0,60.0,-3.0,21.0,-985.0,54.0
13.0,-256.0,-5.0,-12.0,59.0,-4.0,26.0,-982.0,59.0
16.0,-256.0,-2.0,-12.0,60.0,-2.0,23.0,-995.0,61.0
16.0,-257.0,-2.0,-11.0,61.0,-3.0,28.0,-978.0,54.0
13.0,-254.0,-6.0,-11.0,62.0,-1.0,24.0,-986.0,57.0
15.0,-257.0,-3.0,-12.0,65.0,-1.0,22.0,-978.0,55.0
15.0,-255.0,-6.0,-14.0,67.0,0.0,23.0,-980.0,58.0
15.0,-256.0,-4.0,-13.0,66.0,-1.0,22.0,-979.0,56.0
12.0,-256.0,-5.0,-13.0,68.0,1.0,25.0,-976.0,58.0
15.0,-254.0,-7.0,-10.0,69.0,0.0,25.0,-973.0,53.0
14.0,-253.0,-4.0,-10.0,68.0,2.0,25.0,-979.0,54.0
14.0,-255.0,-7.0,-10.0,68.0,-1.0,22.0,-978.0,53.0
13.0,-254.0,-8.0,-11.0,66.0,0.0,27.0,-978.0,51.0
13.0,-255.0,-5.0,-14.0,65.0,0.0,27.0,-978.0,49.0
13.0,-252.0,-5.0,-16.0,64.0,2.0,26.0,-985.0,59.0
16.0,-251.0,-5.0,-16.0,63.0,-2.0,27.0,-979.0,57.0
12.0,-251.0,-5.0,-15.0,66.0,0.0,34.0,-980.0,58.0
16.0,-256.0,-4.0,-15.0,67.0,-1.0,32.0,-976.0,59.0
17.0,-255.0,-8.0,-13.0,68.0,2.0,34.0,-982.0,59.0
16.0,-254.0,-2.0,-10.0,69.0,-1.0,31.0,-977.0,57.0
16.0,-256.0,-5.0,-8.0,70.0,3.0,29.0,-977.0,59.0
16.0,-254.0,-7.0,-9.0,69.0,1.0,35.0,-971.0,56.0
17.0,-253.0,-3.0,-11.0,69.0,3.0,31.0,-978.0,57.0
17.0,-253.0,-5.0,-13.0,68.0,0.0,29.0,-980.0,55.0
15.0,-257.0,-5.0,-15.0,66.0,2.0,22.0,-977.0,51.0
13.0,-255.0,-5.0,-17.0,65.0,-1.0,24.0,-978.0,52.0
16.0,-255.0,-9.0,-19.0,63.0,2.0,23.0,-993.0,49.0
11.0,-257.0,-5.0,-21.0,61.0,-2.0,24.0,-996.0,53.0
14.0,-256.0,-1.0,-24.0,60.0,-1.0,19.0,-992.0,48.0
12.0,-257.0,-6.0,-25.0,58.0,-5.0,25.0,-1001.0,55.0
15.0,-256.0,-6.0,-28.0,58.0,-2.0,26.0,-991.0,53.0
13.0,-258.0,-6.0,-27.0,57.0,-5.0,22.0,-985.0,51.0
12.0,-256.0,-6.0,-26.0,58.0,-1.0,17.0,-986.0,54.0
16.0,-257.0,-8.0,-24.0,59.0,-2.0,21.0,-978.0,53.0
13.0,-256.0,-3.0,-21.0,61.0,1.0,22.0,-980.0,56.0
13.0,-253.0,-5.0,-17.0,62.0,-1.0,20.0,-980.0,47.0
12.0,-254.0,-8.0,-15.0,60.0,1.0,20.0,-977.0,49.0
12.0,-255.0,-6.0,-14.0,58.0,0.0,23.0,-974.0,45.0
15.0,-253.0,-5.0,-12.0,56.0,3.0,23.0,-979.0,42.0
13.0,-255.0,-7.0,-14.0,55.0,1.0,22.0,-977.0,39.0
13.0,-256.0,-7.0,-15.0,52.0,4.0,23.0,-979.0,39.0
14.0,-253.0,-5.0,-16.0,53.0,1.0,22.0,-977.0,41.0
11.0,-254.0,-11.0,-16.0,50.0,3.0,22.0,-978.0,44.0
13.0,-255.0,-13.0,-14.0,48.0,-1.0,22.0,-976.0,41.0
14.0,-255.0,-9.0,-12.0,46.0,0.0,24.0,-979.0,43.0
13.0,-257.0,-9.0,-10.0,43.0,-3.0,28.0,-983.0,38.0
14.0,-252.0,-12.0,-6.0,41.0,-3.0,29.0,-974.0,37.0
15.0,-256.0,-8.0,-3.0,41.0,-6.0,24.0,-975.0,30.0
16.0,-255.0,-9.0,3.0,40.0,-4.0,26.0,-974.0,33.0
14.0,-254.0,-17.0,3.0,40.0,-7.0,23.0,-968.0,19.0
16.0,-253.0,-15.0,1.0,42.0,-4.0,31.0,-967.0,7.0
13.0,-251.0,-21.0,-1.0,46.0,-7.0,31.0,-964.0,-2.0
13.0,-250.0,-23.0,-5.0,52.0,-6.0,21.0,-966.0,-23.0
11.0,-248.0,-33.0,-14.0,64.0,-8.0,13.0,-963.0,-47.0
11.0,-248.0,-37.0,-28.0,83.0,-8.0,12.0,-965.0,-64.0
13.0,-247.0,-41.0,-53.0,106.0,-14.0,10.0,-969.0,-83.0
15.0,-250.0,-47.0,-83.0,133.0,-21.0,11.0,-972.0,-97.0
13.0,-252.0,-49.0,-115.0,165.0,-33.0,12.0,-971.0,-115.0
11.0,-252.0,-51.0,-146.0,208.0,-43.0,6.0,-971.0,-124.0
7.0,-250.0,-48.0,-171.0,249.0,-54.0,3.0,-971.0,-130.0
10.0,-247.0,-47.0,-191.0,286.0,-61.0,8.0,-965.0,-123.0
10.0,-245.0,-50.0,-215.0,315.0,-69.0,11.0,-962.0,-119.0
14.0,-245.0,-50.0,-252.0,336.0,-68.0,26.0,-955.0,-130.0
17.0,-246.0,-51.0,-295.0,341.0,-69.0,44.0,-955.0,-133.0
23.0,-244.0,-52.0,-341.0,341.0,-65.0,61.0,-949.0,-133.0
29.0,-246.0,-54.0,-382.0,339.0,-58.0,71.0,-950.0,-132.0
27.0,-243.0,-50.0,-417.0,336.0,-51.0,82.0,-946.0,-132.0
34.0,-247.0,-53.0,-446.0,324.0,-47.0,108.0,-944.0,-140.0
43.0,-244.0,-54.0,-470.0,308.0,-43.0,136.0,-945.0,-146.0
48.0,-242.0,-59.0,-489.0,291.0,-38.0,150.0,-936.0,-166.0
50.0,-244.0,-63.0,-498.0,283.0,-38.0,152.0,-931.0,-182.0
51.0,-243.0,-64.0,-494.0,294.0,-37.0,160.0,-927.0,-191.0
44.0,-236.0,-71.0,-473.0,319.0,-41.0,136.0,-922.0,-203.0
45.0,-232.0,-73.0,-455.0,344.0,-45.0,132.0,-908.0,-216.0
55.0,-234.0,-80.0,-452.0,360.0,-44.0,179.0,-906.0,-242.0
62.0,-230.0,-88.0,-466.0,370.0,-44.0,206.0,-907.0,-266.0
68.0,-231.0,-91.0,-497.0,397.0,-61.0,232.0,-903.0,-285.0
62.0,-232.0,-96.0,-536.0,434.0,-77.0,212.0,-906.0,-309.0
60.0,-233.0,-100.0,-580.0,474.0,-96.0,206.0,-910.0,-323.0
59.0,-231.0,-105.0,-623.0,499.0,-110.0,202.0,-902.0,-335.0
68.0,-237.0,-107.0,-661.0,511.0,-133.0,234.0,-920.0,-363.0
58.0,-232.0,-108.0,-710.0,521.0,-167.0,194.0,-901.0,-351.0
34.0,-220.0,-107.0,-726.0,531.0,-176.0,93.0,-860.0,-349.0
20.0,-212.0,-100.0,-714.0,552.0,-138.0,33.0,-809.0,-341.0
17.0,-194.0,-100.0,-662.0,572.0,-91.0,44.0,-736.0,-333.0
39.0,-193.0,-115.0,-612.0,565.0,-58.0,114.0,-758.0,-369.0
68.0,-192.0,-109.0,-633.0,540.0,-55.0,233.0,-757.0,-386.0
60.0,-182.0,-114.0,-687.0,524.0,-75.0,223.0,-718.0,-370.0
36.0,-182.0,-119.0,-730.0,541.0,-104.0,146.0,-722.0,-387.0
18.0,-176.0,-120.0,-759.0,606.0,-129.0,41.0,-692.0,-393.0
7.0,-165.0,-109.0,-769.0,667.0,-104.0,12.0,-647.0,-355.0
10.0,-164.0,-112.0,-746.0,649.0,-80.0,42.0,-665.0,-383.0
3.0,-141.0,-109.0,-729.0,578.0,-74.0,3.0,-570.0,-377.0
3.0,-139.0,-126.0,-717.0,490.0,-36.0,-5.0,-581.0,-439.0
22.0,-130.0,-116.0,-740.0,439.0,19.0,69.0,-497.0,-393.0
-18.0,-112.0,-113.0,-736.0,424.0,-28.0,-75.0,-457.0,-388.0
-32.0,-112.0,-108.0,-757.0,404.0,-80.0,-138.0,-435.0,-365.0
-29.0,-107.0,-100.0,-811.0,345.0,-78.0,-131.0,-430.0,-328.0
-17.0,-105.0,-93.0,-878.0,264.0,-80.0,-102.0,-418.0,-310.0
2.0,-106.0,-84.0,-952.0,201.0,-108.0,-21.0,-421.0,-270.0
8.0,-110.0,-71.0,-1028.0,197.0,-156.0,1.0,-429.0,-230.0
1.0,-112.0,-62.0,-1077.0,252.0,-205.0,-32.0,-429.0,-179.0
-12.0,-109.0,-46.0,-1106.0,326.0,-267.0,-60.0,-418.0,-100.0
-27.0,-105.0,-36.0,-1109.0,387.0,-308.0,-148.0,-409.0,-65.0
-50.0,-103.0,-29.0,-1109.0,436.0,-316.0,-222.0,-413.0,-47.0
-55.0,-104.0,-26.0,-1124.0,466.0,-273.0,-229.0,-412.0,-29.0
-50.0,-106.0,-25.0,-1146.0,471.0,-218.0,-216.0,-413.0,-18.0
-47.0,-102.0,-11.0,-1169.0,449.0,-167.0,-197.0,-389.0,24.0
-40.0,-98.0,1.0,-1169.0,399.0,-135.0,-174.0,-363.0,70.0
-48.0,-95.0,9.0,-1113.0,320.0,-130.0,-199.0,-352.0,87.0
-35.0,-97.0,5.0,-1030.0,255.0,-120.0,-177.0,-361.0,93.0
-26.0,-92.0,5.0,-933.0,221.0,-101.0,-112.0,-357.0,94.0
-18.0,-92.0,2.0,-847.0,198.0,-106.0,-98.0,-345.0,92.0
-12.0,-88.0,-5.0,-774.0,199.0,-106.0,-73.0,-344.0,72.0
-20.0,-86.0,-10.0,-729.0,206.0,-110.0,-90.0,-351.0,32.0
-22.0,-87.0,-9.0,-730.0,205.0,-90.0,-107.0,-346.0,23.0
-17.0,-83.0,-6.0,-755.0,214.0,-75.0,-91.0,-324.0,60.0
4.0,-83.0,8.0,-759.0,232.0,-75.0,-15.0,-328.0,95.0
16.0,-84.0,8.0,-749.0,263.0,-91.0,51.0,-347.0,112.0
15.0,-94.0,10.0,-741.0,305.0,-102.0,41.0,-364.0,118.0
27.0,-102.0,14.0,-717.0,348.0,-122.0,83.0,-398.0,138.0
19.0,-110.0,16.0,-670.0,380.0,-140.0,69.0,-422.0,142.0
32.0,-118.0,17.0,-604.0,393.0,-158.0,106.0,-443.0,155.0
49.0,-122.0,16.0,-526.0,377.0,-168.0,169.0,-462.0,142.0
56.0,-129.0,18.0,-454.0,365.0,-191.0,204.0,-487.0,149.0
52.0,-134.0,11.0,-389.0,351.0,-234.0,183.0,-524.0,111.0
55.0,-153.0,16.0,-360.0,340.0,-270.0,194.0,-575.0,127.0
52.0,-170.0,21.0,-322.0,324.0,-275.0,176.0,-641.0,165.0
57.0,-194.0,31.0,-225.0,312.0,-262.0,189.0,-741.0,192.0
58.0,-219.0,44.0,-125.0,296.0,-256.0,199.0,-830.0,229.0
56.0,-244.0,57.0,-7.0,279.0,-252.0,199.0,-919.0,277.0
67.0,-266.0,46.0,144.0,273.0,-229.0,226.0,-1018.0,240.0
85.0,-286.0,40.0,272.0,287.0,-225.0,295.0,-1098.0,229.0
61.0,-282.0,49.0,381.0,325.0,-276.0,179.0,-1066.0,272.0
58.0,-298.0,57.0,537.0,394.0,-297.0,199.0,-1118.0,283.0
37.0,-298.0,65.0,704.0,438.0,-318.0,132.0,-1113.0,301.0
21.0,-291.0,61.0,898.0,421.0,-374.0,54.0,-1096.0,312.0
16.0,-292.0,58.0,1188.0,406.0,-353.0,7.0,-1095.0,285.0
26.0,-287.0,46.0,1401.0,427.0,-334.0,65.0,-1092.0,257.0
21.0,-252.0,29.0,1588.0,471.0,-339.0,44.0,-991.0,211.0
32.0,-222.0,7.0,1736.0,525.0,-296.0,82.0,-860.0,79.0
35.0,-178.0,-17.0,1766.0,565.0,-200.0,125.0,-721.0,-12.0
55.0,-168.0,-38.0,1586.0,569.0,-117.0,206.0,-710.0,-62.0
78.0,-182.0,-41.0,1266.0,548.0,-106.0,272.0,-760.0,-92.0
79.0,-215.0,-36.0,933.0,525.0,-154.0,293.0,-874.0,-66.0
76.0,-240.0,-24.0,683.0,491.0,-241.0,275.0,-931.0,-15.0
75.0,-258.0,-17.0,536.0,424.0,-286.0,277.0,-1014.0,-10.0
74.0,-260.0,-22.0,497.0,391.0,-328.0,251.0,-1025.0,-14.0
67.0,-259.0,-23.0,488.0,375.0,-358.0,224.0,-991.0,-27.0
59.0,-249.0,-26.0,484.0,375.0,-356.0,205.0,-963.0,-34.0
43.0,-234.0,-25.0,467.0,363.0,-362.0,149.0,-931.0,-35.0
26.0,-240.0,-16.0,441.0,335.0,-359.0,78.0,-921.0,-1.0
11.0,-248.0,-9.0,447.0,299.0,-354.0,31.0,-949.0,20.0
-2.0,-261.0,8.0,491.0,247.0,-342.0,-18.0,-987.0,93.0
1.0,-269.0,10.0,584.0,186.0,-318.0,-9.0,-1031.0,114.0
-6.0,-287.0,17.0,722.0,111.0,-322.0,-44.0,-1091.0,141.0
-14.0,-291.0,19.0,851.0,68.0,-316.0,-75.0,-1112.0,137.0
-12.0,-297.0,14.0,979.0,38.0,-305.0,-78.0,-1132.0,124.0
-10.0,-290.0,3.0,1097.0,6.0,-295.0,-64.0,-1109.0,93.0
3.0,-297.0,-5.0,1185.0,-22.0,-284.0,-11.0,-1138.0,62.0
13.0,-282.0,-11.0,1230.0,-48.0,-299.0,7.0,-1075.0,19.0
38.0,-278.0,-31.0,1257.0,-68.0,-293.0,89.0,-1088.0,-47.0
52.0,-279.0,-45.0,1248.0,-71.0,-322.0,166.0,-1098.0,-82.0
59.0,-293.0,-44.0,1217.0,-83.0,-354.0,198.0,-1141.0,-112.0
68.0,-301.0,-47.0,1178.0,-98.0,-356.0,233.0,-1153.0,-94.0
85.0,-304.0,-66.0,1151.0,-123.0,-333.0,299.0,-1202.0,-185.0
87.0,-308.0,-58.0,1112.0,-161.0,-312.0,295.0,-1192.0,-165.0
121.0,-323.0,-74.0,1092.0,-182.0,-244.0,425.0,-1259.0,-224.0
130.0,-310.0,-73.0,1039.0,-174.0,-246.0,472.0,-1229.0,-221.0
111.0,-301.0,-58.0,974.0,-128.0,-278.0,447.0,-1241.0,-210.0
139.0,-316.0,-46.0,892.0,-83.0,-278.0,448.0,-1240.0,-104.0
125.0,-348.0,-27.0,871.0,-14.0,-276.0,439.0,-1343.0,-26.0
113.0,-356.0,1.0,912.0,33.0,-268.0,403.0,-1346.0,83.0
90.0,-359.0,14.0,1027.0,40.0,-248.0,315.0,-1375.0,125.0
84.0,-363.0,8.0,1193.0,-8.0,-213.0,296.0,-1377.0,145.0
59.0,-362.0,27.0,1308.0,-37.0,-227.0,221.0,-1406.0,157.0
70.0,-365.0,21.0,1443.0,-49.0,-179.0,214.0,-1397.0,185.0
62.0,-350.0,23.0,1570.0,-33.0,-149.0,211.0,-1330.0,183.0
49.0,-333.0,20.0,1652.0,17.0,-129.0,149.0,-1287.0,167.0
42.0,-327.0,25.0,1722.0,66.0,-103.0,162.0,-1247.0,172.0
28.0,-314.0,29.0,1787.0,97.0,-61.0,68.0,-1218.0,170.0
42.0,-325.0,11.0,1857.0,99.0,8.0,130.0,-1257.0,130.0
8.0,-313.0,17.0,1906.0,91.0,46.0,19.0,-1200.0,149.0
3.0,-309.0,20.0,1960.0,67.0,111.0,-7.0,-1174.0,159.0
19.0,-316.0,11.0,2008.0,32.0,177.0,54.0,-1215.0,113.0
7.0,-313.0,10.0,2035.0,-8.0,206.0,4.0,-1197.0,114.0
36.0,-316.0,4.0,2064.0,-46.0,277.0,101.0,-1217.0,112.0
29.0,-315.0,14.0,2071.0,-77.0,288.0,84.0,-1205.0,133.0
62.0,-318.0,22.0,2070.0,-108.0,307.0,232.0,-1214.0,154.0
60.0,-317.0,36.0,2041.0,-145.0,298.0,191.0,-1235.0,190.0
82.0,-320.0,52.0,1994.0,-174.0,314.0,241.0,-1259.0,230.0
-73.0,-222.0,130.0,1934.0,-185.0,323.0,292.0,-1324.0,296.0
143.0,-367.0,61.0,1900.0,-180.0,498.0,428.0,-1458.0,316.0
155.0,-378.0,85.0,1775.0,-160.0,465.0,520.0,-1453.0,410.0
117.0,-378.0,95.0,1677.0,-141.0,424.0,415.0,-1464.0,445.0
117.0,-374.0,117.0,1610.0,-145.0,435.0,422.0,-1450.0,521.0
115.0,-371.0,124.0,1581.0,-153.0,452.0,405.0,-1425.0,565.0
104.0,-374.0,135.0,1598.0,-167.0,442.0,356.0,-1426.0,594.0
92.0,-370.0,131.0,1645.0,-165.0,433.0,324.0,-1419.0,587.0
89.0,-371.0,127.0,1703.0,-163.0,408.0,305.0,-1418.0,563.0
80.0,-363.0,115.0,1741.0,-164.0,383.0,281.0,-1402.0,541.0
87.0,-364.0,111.0,1751.0,-178.0,353.0,284.0,-1399.0,516.0
80.0,-354.0,107.0,1735.0,-179.0,339.0,300.0,-1354.0,519.0
81.0,-346.0,107.0,1703.0,-182.0,335.0,271.0,-1358.0,488.0
80.0,-339.0,108.0,1650.0,-190.0,339.0,278.0,-1337.0,494.0
75.0,-338.0,112.0,1588.0,-206.0,331.0,261.0,-1308.0,514.0
68.0,-334.0,109.0,1524.0,-234.0,326.0,176.0,-1275.0,519.0
68.0,-334.0,124.0,1465.0,-284.0,335.0,228.0,-1307.0,548.0
50.0,-333.0,120.0,1424.0,-327.0,332.0,160.0,-1290.0,555.0
45.0,-330.0,129.0,1395.0,-367.0,334.0,139.0,-1269.0,571.0
57.0,-323.0,135.0,1371.0,-402.0,331.0,198.0,-1246.0,603.0
83.0,-332.0,131.0,1342.0,-435.0,307.0,279.0,-1285.0,603.0
70.0,-335.0,124.0,1306.0,-415.0,266.0,232.0,-1307.0,564.0
67.0,-342.0,127.0,1250.0,-378.0,225.0,221.0,-1326.0,585.0
62.0,-355.0,137.0,1179.0,-344.0,190.0,191.0,-1369.0,612.0
60.0,-369.0,148.0,1105.0,-318.0,149.0,211.0,-1435.0,669.0
61.0,-388.0,158.0,1053.0,-282.0,115.0,197.0,-1494.0,692.0
58.0,-410.0,157.0,1016.0,-239.0,83.0,195.0,-1559.0,719.0
47.0,-430.0,149.0,989.0,-191.0,61.0,127.0,-1651.0,672.0
35.0,-459.0,129.0,950.0,-151.0,43.0,94.0,-1770.0,581.0
3.0,-487.0,104.0,862.0,-136.0,26.0,-15.0,-1886.0,491.0
5.0,-518.0,99.0,740.0,-160.0,27.0,-34.0,-2017.0,466.0
-13.0,-526.0,98.0,601.0,-175.0,52.0,-109.0,-2039.0,439.0
-22.0,-508.0,92.0,462.0,-175.0,106.0,-138.0,-1962.0,425.0
-28.0,-457.0,81.0,338.0,-143.0,186.0,-167.0,-1780.0,390.0
-28.0,-406.0,64.0,214.0,-88.0,277.0,-162.0,-1596.0,326.0
-28.0,-360.0,53.0,91.0,-26.0,362.0,-164.0,-1422.0,280.0
-22.0,-313.0,43.0,-23.0,32.0,434.0,-124.0,-1251.0,242.0
-12.0,-277.0,38.0,-117.0,78.0,488.0,-93.0,-1090.0,221.0
-6.0,-243.0,37.0,-187.0,122.0,531.0,-55.0,-951.0,210.0
4.0,-217.0,39.0,-244.0,145.0,545.0,-19.0,-849.0,218.0
10.0,-196.0,41.0,-270.0,159.0,544.0,19.0,-758.0,225.0
15.0,-184.0,50.0,-280.0,164.0,532.0,41.0,-705.0,251.0
23.0,-173.0,54.0,-277.0,161.0,513.0,69.0,-657.0,273.0
29.0,-158.0,53.0,-262.0,150.0,489.0,93.0,-620.0,285.0
34.0,-148.0,61.0,-236.0,137.0,460.0,113.0,-563.0,315.0
36.0,-139.0,62.0,-203.0,118.0,428.0,128.0,-529.0,317.0
36.0,-130.0,67.0,-167.0,96.0,392.0,128.0,-496.0,331.0
38.0,-124.0,69.0,-135.0,63.0,346.0,134.0,-465.0,343.0
37.0,-118.0,76.0,-102.0,36.0,299.0,122.0,-457.0,369.0
35.0,-119.0,87.0,-77.0,14.0,254.0,112.0,-455.0,404.0
31.0,-123.0,93.0,-48.0,-3.0,211.0,106.0,-466.0,440.0
33.0,-130.0,105.0,-13.0,-16.0,169.0,103.0,-482.0,477.0
29.0,-132.0,111.0,31.0,-32.0,131.0,103.0,-507.0,510.0
34.0,-141.0,116.0,85.0,-48.0,95.0,110.0,-533.0,540.0
33.0,-146.0,123.0,153.0,-63.0,61.0,113.0,-559.0,565.0
35.0,-156.0,127.0,232.0,-76.0,27.0,130.0,-593.0,580.0
36.0,-175.0,131.0,314.0,-85.0,-1.0,106.0,-653.0,590.0
41.0,-179.0,137.0,415.0,-94.0,-18.0,149.0,-681.0,634.0
43.0,-191.0,146.0,507.0,-95.0,-38.0,136.0,-719.0,634.0
40.0,-200.0,149.0,589.0,-102.0,-49.0,137.0,-767.0,670.0
37.0,-213.0,155.0,665.0,-110.0,-55.0,123.0,-813.0,699.0
34.0,-224.0,153.0,735.0,-119.0,-62.0,103.0,-860.0,695.0
27.0,-239.0,163.0,781.0,-118.0,-59.0,88.0,-902.0,719.0
19.0,-247.0,169.0,812.0,-120.0,-55.0,51.0,-946.0,731.0
12.0,-260.0,170.0,830.0,-123.0,-38.0,42.0,-980.0,746.0
17.0,-266.0,168.0,838.0,-123.0,-21.0,30.0,-1029.0,747.0
17.0,-270.0,157.0,831.0,-104.0,7.0,34.0,-1046.0,727.0
20.0,-269.0,160.0,810.0,-71.0,30.0,44.0,-1049.0,704.0
22.0,-266.0,150.0,776.0,-29.0,53.0,55.0,-1032.0,679.0
28.0,-260.0,143.0,731.0,16.0,73.0,70.0,-1009.0,641.0
27.0,-250.0,135.0,685.0,62.0,92.0,76.0,-967.0,610.0
33.0,-238.0,123.0,640.0,105.0,106.0,93.0,-929.0,570.0
35.0,-230.0,115.0,600.0,144.0,120.0,106.0,-897.0,532.0
41.0,-218.0,105.0,559.0,174.0,121.0,113.0,-862.0,494.0
40.0,-215.0,99.0,515.0,195.0,122.0,127.0,-838.0,466.0
48.0,-209.0,93.0,462.0,214.0,110.0,146.0,-815.0,444.0
48.0,-205.0,92.0,414.0,225.0,106.0,134.0,-800.0,431.0
53.0,-194.0,91.0,363.0,227.0,87.0,184.0,-768.0,434.0
53.0,-191.0,88.0,315.0,229.0,68.0,183.0,-739.0,419.0
50.0,-184.0,85.0,263.0,228.0,48.0,186.0,-727.0,431.0
57.0,-186.0,91.0,209.0,226.0,37.0,199.0,-740.0,433.0
60.0,-186.0,95.0,155.0,226.0,23.0,208.0,-729.0,453.0
56.0,-192.0,96.0,106.0,226.0,6.0,198.0,-742.0,461.0
53.0,-196.0,102.0,62.0,222.0,-12.0,194.0,-764.0,480.0
50.0,-202.0,110.0,28.0,221.0,-25.0,169.0,-790.0,487.0
54.0,-206.0,119.0,-7.0,217.0,-38.0,187.0,-797.0,531.0
48.0,-210.0,127.0,-16.0,215.0,-53.0,174.0,-813.0,559.0
40.0,-213.0,129.0,-13.0,211.0,-66.0,138.0,-827.0,575.0
41.0,-215.0,131.0,2.0,208.0,-64.0,143.0,-828.0,589.0
38.0,-215.0,136.0,25.0,207.0,-69.0,126.0,-831.0,600.0
37.0,-215.0,135.0,57.0,205.0,-66.0,117.0,-836.0,605.0
36.0,-216.0,136.0,91.0,206.0,-68.0,105.0,-831.0,603.0
33.0,-215.0,135.0,125.0,207.0,-61.0,101.0,-821.0,599.0
29.0,-209.0,130.0,156.0,205.0,-57.0,96.0,-815.0,592.0
24.0,-210.0,133.0,188.0,199.0,-50.0,67.0,-808.0,588.0
26.0,-207.0,130.0,205.0,189.0,-42.0,75.0,-790.0,589.0
25.0,-203.0,130.0,220.0,177.0,-38.0,70.0,-790.0,586.0
19.0,-200.0,133.0,230.0,158.0,-33.0,53.0,-783.0,584.0
15.0,-202.0,133.0,237.0,141.0,-25.0,35.0,-782.0,585.0
11.0,-199.0,132.0,239.0,127.0,-19.0,36.0,-774.0,582.0
10.0,-199.0,131.0,242.0,111.0,-9.0,25.0,-763.0,574.0
15.0,-196.0,127.0,244.0,102.0,-5.0,44.0,-774.0,578.0
14.0,-198.0,126.0,245.0,94.0,5.0,31.0,-776.0,580.0
15.0,-200.0,128.0,241.0,86.0,6.0,31.0,-772.0,571.0
18.0,-203.0,127.0,239.0,82.0,14.0,39.0,-780.0,568.0
17.0,-200.0,127.0,235.0,79.0,16.0,41.0,-777.0,568.0
15.0,-199.0,123.0,233.0,73.0,22.0,41.0,-784.0,569.0
19.0,-199.0,126.0,231.0,65.0,26.0,60.0,-778.0,569.0
17.0,-199.0,127.0,232.0,55.0,33.0,57.0,-773.0,576.0
16.0,-196.0,131.0,234.0,44.0,33.0,51.0,-774.0,579.0
23.0,-199.0,130.0,237.0,34.0,39.0,59.0,-774.0,577.0
24.0,-198.0,129.0,243.0,23.0,42.0,68.0,-766.0,584.0
20.0,-199.0,133.0,254.0,9.0,45.0,66.0,-767.0,589.0
24.0,-198.0,132.0,265.0,-3.0,41.0,71.0,-772.0,596.0
24.0,-196.0,134.0,274.0,-10.0,38.0,88.0,-757.0,597.0
25.0,-198.0,136.0,280.0,-14.0,33.0,73.0,-768.0,597.0
33.0,-197.0,138.0,281.0,-15.0,37.0,98.0,-769.0,603.0
28.0,-196.0,134.0,285.0,-11.0,24.0,97.0,-758.0,599.0
26.0,-198.0,136.0,283.0,-4.0,13.0,78.0,-775.0,603.0
32.0,-199.0,129.0,279.0,2.0,3.0,97.0,-780.0,603.0
29.0,-198.0,137.0,270.0,6.0,-6.0,95.0,-775.0,601.0
33.0,-202.0,136.0,260.0,13.0,-17.0,102.0,-782.0,598.0
32.0,-202.0,136.0,248.0,20.0,-23.0,102.0,-782.0,601.0
34.0,-203.0,135.0,235.0,25.0,-29.0,108.0,-791.0,603.0
33.0,-201.0,134.0,222.0,37.0,-31.0,105.0,-792.0,600.0
35.0,-200.0,133.0,209.0,50.0,-35.0,107.0,-791.0,602.0
33.0,-204.0,132.0,196.0,62.0,-35.0,99.0,-791.0,604.0
29.0,-205.0,136.0,180.0,73.0,-35.0,98.0,-800.0,604.0
30.0,-209.0,135.0,169.0,85.0,-32.0,89.0,-811.0,604.0
36.0,-209.0,137.0,157.0,95.0,-28.0,103.0,-806.0,618.0
34.0,-207.0,139.0,151.0,109.0,-32.0,108.0,-800.0,623.0
29.0,-208.0,141.0,150.0,122.0,-35.0,73.0,-811.0,616.0
38.0,-202.0,137.0,145.0,128.0,-30.0,127.0,-792.0,619.0
34.0,-203.0,137.0,148.0,135.0,-41.0,111.0,-788.0,619.0
36.0,-205.0,137.0,148.0,138.0,-50.0,102.0,-786.0,618.0
28.0,-200.0,135.0,151.0,139.0,-57.0,92.0,-784.0,607.0
28.0,-200.0,135.0,151.0,140.0,-62.0,83.0,-775.0,601.0
31.0,-196.0,134.0,149.0,137.0,-60.0,86.0,-779.0,586.0
26.0,-198.0,129.0,142.0,131.0,-64.0,83.0,-757.0,594.0
27.0,-196.0,129.0,133.0,127.0,-71.0,85.0,-759.0,585.0
27.0,-196.0,132.0,123.0,125.0,-75.0,74.0,-757.0,591.0
23.0,-198.0,132.0,114.0,121.0,-76.0,77.0,-762.0,588.0
26.0,-197.0,132.0,105.0,117.0,-77.0,77.0,-760.0,591.0
23.0,-196.0,134.0,97.0,114.0,-69.0,76.0,-759.0,597.0
23.0,-194.0,132.0,89.0,109.0,-69.0,76.0,-756.0,602.0
26.0,-198.0,133.0,83.0,105.0,-65.0,77.0,-763.0,606.0
26.0,-199.0,134.0,80.0,98.0,-63.0,71.0,-775.0,611.0
21.0,-201.0,137.0,80.0,93.0,-53.0,76.0,-776.0,609.0
19.0,-199.0,134.0,84.0,88.0,-45.0,68.0,-779.0,618.0
24.0,-200.0,135.0,83.0,86.0,-34.0,70.0,-781.0,608.0
26.0,-201.0,135.0,81.0,82.0,-29.0,81.0,-782.0,605.0
28.0,-201.0,134.0,75.0,77.0,-19.0,79.0,-785.0,606.0
26.0,-200.0,135.0,69.0,70.0,-12.0,83.0,-788.0,603.0
31.0,-205.0,131.0,64.0,67.0,-4.0,93.0,-791.0,600.0
33.0,-206.0,136.0,61.0,62.0,0.0,108.0,-799.0,599.0
33.0,-207.0,135.0,62.0,53.0,6.0,108.0,-790.0,592.0
34.0,-207.0,135.0,67.0,44.0,10.0,105.0,-801.0,599.0
34.0,-204.0,134.0,70.0,36.0,17.0,111.0,-802.0,604.0
38.0,-204.0,134.0,78.0,28.0,18.0,115.0,-798.0,600.0
36.0,-202.0,131.0,83.0,21.0,25.0,122.0,-794.0,591.0
38.0,-204.0,133.0,85.0,16.0,26.0,128.0,-791.0,593.0
41.0,-205.0,131.0,85.0,12.0,31.0,122.0,-790.0,587.0
38.0,-205.0,130.0,80.0,8.0,33.0,129.0,-790.0,587.0
39.0,-203.0,130.0,75.0,6.0,36.0,129.0,-791.0,583.0
40.0,-206.0,131.0,70.0,6.0,35.0,125.0,-791.0,584.0
41.0,-205.0,130.0,64.0,5.0,37.0,126.0,-791.0,587.0
35.0,-203.0,129.0,59.0,5.0,34.0,124.0,-787.0,586.0
36.0,-200.0,132.0,53.0,5.0,36.0,119.0,-784.0,591.0
34.0,-201.0,130.0,50.0,4.0,32.0,123.0,-788.0,591.0
35.0,-200.0,131.0,48.0,5.0,33.0,111.0,-783.0,589.0
35.0,-199.0,134.0,46.0,6.0,30.0,111.0,-782.0,598.0
31.0,-200.0,133.0,45.0,6.0,31.0,105.0,-779.0,603.0
28.0,-198.0,134.0,46.0,6.0,28.0,98.0,-780.0,601.0
32.0,-198.0,137.0,47.0,5.0,32.0,95.0,-779.0,602.0
31.0,-201.0,135.0,49.0,4.0,27.0,92.0,-775.0,608.0
29.0,-202.0,132.0,52.0,3.0,29.0,86.0,-774.0,608.0
26.0,-197.0,137.0,53.0,3.0,27.0,84.0,-770.0,609.0
24.0,-198.0,135.0,56.0,1.0,32.0,77.0,-773.0,611.0
26.0,-200.0,137.0,61.0,2.0,32.0,80.0,-776.0,609.0
24.0,-200.0,136.0,66.0,1.0,38.0,77.0,-777.0,620.0
26.0,-199.0,140.0,71.0,1.0,40.0,78.0,-778.0,616.0
24.0,-198.0,136.0,77.0,0.0,45.0,74.0,-780.0,619.0
26.0,-200.0,137.0,80.0,1.0,47.0,83.0,-778.0,620.0
26.0,-202.0,141.0,84.0,4.0,52.0,83.0,-772.0,612.0
27.0,-198.0,140.0,87.0,7.0,54.0,93.0,-775.0,622.0
30.0,-199.0,138.0,88.0,9.0,58.0,93.0,-779.0,619.0
29.0,-199.0,137.0,87.0,12.0,56.0,94.0,-776.0,624.0
32.0,-199.0,138.0,86.0,14.0,60.0,96.0,-779.0,622.0
33.0,-199.0,138.0,81.0,15.0,57.0,101.0,-779.0,625.0
30.0,-197.0,142.0,78.0,19.0,56.0,103.0,-776.0,629.0
33.0,-197.0,140.0,74.0,20.0,54.0,102.0,-774.0,627.0
32.0,-199.0,140.0,68.0,24.0,54.0,102.0,-774.0,628.0
32.0,-197.0,136.0,63.0,26.0,49.0,101.0,-774.0,629.0
32.0,-199.0,138.0,56.0,28.0,47.0,104.0,-772.0,624.0
30.0,-197.0,140.0,48.0,31.0,39.0,100.0,-758.0,631.0
31.0,-197.0,139.0,40.0,32.0,36.0,103.0,-761.0,632.0
31.0,-196.0,139.0,33.0,33.0,33.0,99.0,-759.0,634.0
29.0,-195.0,139.0,24.0,33.0,31.0,98.0,-759.0,630.0
30.0,-198.0,140.0,20.0,32.0,28.0,96.0,-762.0,633.0
29.0,-199.0,141.0,13.0,31.0,28.0,96.0,-762.0,634.0
31.0,-199.0,142.0,11.0,32.0,26.0,93.0,-765.0,633.0
31.0,-196.0,139.0,6.0,33.0,25.0,96.0,-760.0,634.0
30.0,-196.0,140.0,3.0,35.0,23.0,100.0,-768.0,638.0
31.0,-197.0,142.0,0.0,35.0,23.0,99.0,-769.0,628.0
31.0,-197.0,137.0,-3.0,36.0,21.0,100.0,-765.0,636.0
31.0,-197.0,137.0,-4.0,38.0,21.0,100.0,-767.0,633.0
31.0,-198.0,139.0,-5.0,38.0,20.0,102.0,-770.0,635.0
34.0,-196.0,140.0,-6.0,38.0,21.0,101.0,-759.0,630.0
33.0,-196.0,140.0,-5.0,40.0,21.0,102.0,-761.0,630.0
30.0,-197.0,137.0,-3.0,43.0,23.0,106.0,-761.0,629.0
30.0,-196.0,138.0,-1.0,44.0,23.0,100.0,-764.0,626.0
30.0,-199.0,139.0,-1.0,45.0,24.0,101.0,-764.0,622.0
34.0,-201.0,137.0,0.0,48.0,25.0,101.0,-766.0,628.0
33.0,-200.0,140.0,2.0,51.0,24.0,100.0,-764.0,626.0
34.0,-199.0,138.0,1.0,53.0,25.0,98.0,-764.0,623.0
31.0,-198.0,137.0,-1.0,53.0,24.0,101.0,-769.0,622.0
33.0,-198.0,139.0,-4.0,51.0,22.0,100.0,-769.0,623.0
33.0,-199.0,139.0,-2.0,49.0,20.0,102.0,-774.0,620.0
31.0,-197.0,135.0,-1.0,50.0,17.0,102.0,-762.0,627.0
33.0,-196.0,140.0,2.0,50.0,16.0,103.0,-757.0,627.0
34.0,-197.0,140.0,5.0,50.0,16.0,103.0,-761.0,624.0
35.0,-197.0,136.0,7.0,51.0,12.0,104.0,-760.0,614.0
34.0,-197.0,136.0,8.0,54.0,10.0,101.0,-759.0,618.0
33.0,-196.0,134.0,8.0,56.0,7.0,100.0,-761.0,614.0
34.0,-200.0,135.0,5.0,58.0,6.0,105.0,-759.0,618.0
33.0,-198.0,137.0,3.0,60.0,4.0,101.0,-760.0,618.0
32.0,-196.0,136.0,-1.0,61.0,4.0,100.0,-759.0,611.0
33.0,-201.0,131.0,-6.0,62.0,2.0,98.0,-759.0,615.0
30.0,-196.0,141.0,-10.0,61.0,2.0,102.0,-762.0,620.0
29.0,-197.0,138.0,-13.0,62.0,1.0,99.0,-758.0,620.0
33.0,-199.0,137.0,-15.0,62.0,2.0,96.0,-771.0,627.0
34.0,-197.0,136.0,-16.0,63.0,1.0,95.0,-769.0,631.0
31.0,-199.0,137.0,-14.0,65.0,1.0,97.0,-774.0,624.0
30.0,-199.0,136.0,-14.0,67.0,1.0,103.0,-780.0,628.0
29.0,-200.0,139.0,-14.0,70.0,2.0,103.0,-779.0,627.0
33.0,-201.0,140.0,-13.0,72.0,0.0,108.0,-783.0,627.0
34.0,-201.0,140.0,-11.0,72.0,2.0,102.0,-784.0,623.0
33.0,-203.0,138.0,-9.0,72.0,-1.0,100.0,-782.0,626.0
33.0,-201.0,138.0,-9.0,73.0,2.0,99.0,-779.0,626.0
31.0,-203.0,137.0,-6.0,74.0,-1.0,98.0,-777.0,624.0
31.0,-198.0,139.0,-5.0,74.0,1.0,103.0,-780.0,623.0
29.0,-200.0,134.0,-3.0,72.0,0.0,104.0,-776.0,618.0
31.0,-198.0,137.0,-1.0,71.0,3.0,95.0,-779.0,621.0
35.0,-201.0,139.0,2.0,69.0,1.0,98.0,-776.0,626.0
30.0,-201.0,138.0,3.0,69.0,4.0,99.0,-778.0,617.0
31.0,-200.0,138.0,6.0,67.0,0.0,96.0,-778.0,621.0
28.0,-200.0,138.0,5.0,69.0,3.0,97.0,-780.0,619.0
30.0,-199.0,137.0,4.0,71.0,2.0,98.0,-774.0,617.0
31.0,-199.0,139.0,1.0,72.0,4.0,94.0,-776.0,614.0
30.0,-202.0,136.0,-3.0,74.0,3.0,98.0,-779.0,614.0
30.0,-201.0,138.0,-10.0,72.0,2.0,95.0,-774.0,616.0
29.0,-198.0,137.0,-14.0,72.0,-2.0,94.0,-770.0,621.0
32.0,-202.0,137.0,-17.0,72.0,0.0,98.0,-778.0,624.0
29.0,-200.0,141.0,-21.0,71.0,-3.0,98.0,-776.0,626.0
32.0,-203.0,138.0,-23.0,73.0,-2.0,97.0,-780.0,625.0
30.0,-200.0,136.0,-27.0,72.0,-5.0,96.0,-781.0,626.0
29.0,-197.0,139.0,-29.0,74.0,-4.0,99.0,-779.0,615.0
30.0,-200.0,137.0,-30.0,74.0,-6.0,96.0,-777.0,615.0
31.0,-201.0,136.0,-30.0,75.0,-3.0,94.0,-772.0,613.0
30.0,-197.0,139.0,-28.0,75.0,-5.0,102.0,-773.0,608.0
31.0,-201.0,138.0,-30.0,75.0,-1.0,101.0,-773.0,611.0
32.0,-198.0,138.0,-29.0,76.0,-3.0,96.0,-772.0,616.0
31.0,-196.0,137.0,-26.0,77.0,0.0,97.0,-763.0,628.0
32.0,-197.0,137.0,-23.0,78.0,-3.0,97.0,-764.0,623.0
28.0,-197.0,136.0,-21.0,78.0,-2.0,97.0,-754.0,627.0
32.0,-198.0,138.0,-18.0,78.0,-6.0,94.0,-755.0,626.0
33.0,-196.0,140.0,-13.0,78.0,-4.0,93.0,-760.0,631.0
29.0,-197.0,140.0,-8.0,78.0,-9.0,93.0,-757.0,629.0
26.0,-197.0,139.0,-4.0,79.0,-9.0,93.0,-760.0,630.0
27.0,-196.0,139.0,-1.0,79.0,-11.0,91.0,-763.0,637.0
29.0,-198.0,135.0,1.0,80.0,-11.0,88.0,-773.0,630.0
30.0,-199.0,140.0,1.0,80.0,-14.0,95.0,-769.0,626.0
28.0,-200.0,139.0,1.0,83.0,-12.0,95.0,-772.0,627.0
32.0,-201.0,140.0,0.0,82.0,-13.0,92.0,-769.0,628.0
29.0,-199.0,137.0,-2.0,82.0,-10.0,92.0,-778.0,625.0
29.0,-200.0,137.0,-5.0,82.0,-10.0,90.0,-772.0,626.0
28.0,-200.0,139.0,-8.0,81.0,-7.0,86.0,-775.0,625.0
28.0,-201.0,138.0,-10.0,80.0,-5.0,85.0,-778.0,622.0
29.0,-201.0,139.0,-12.0,80.0,-2.0,85.0,-773.0,626.0
29.0,-202.0,138.0,-13.0,80.0,-2.0,91.0,-774.0,626.0
28.0,-199.0,139.0,-14.0,82.0,0.0,87.0,-773.0,625.0
26.0,-200.0,139.0,-16.0,85.0,0.0,87.0,-777.0,624.0
28.0,-201.0,138.0,-16.0,85.0,1.0,82.0,-779.0,619.0
32.0,-202.0,139.0,-13.0,82.0,-1.0,93.0,-779.0,620.0
25.0,-201.0,140.0,-12.0,78.0,-2.0,89.0,-784.0,624.0
26.0,-200.0,134.0,-10.0,76.0,-5.0,94.0,-779.0,625.0
30.0,-202.0,139.0,-9.0,76.0,-6.0,95.0,-781.0,619.0
31.0,-201.0,138.0,-8.0,75.0,-9.0,93.0,-780.0,614.0
31.0,-200.0,136.0,-8.0,76.0,-7.0,93.0,-782.0,612.0
29.0,-201.0,133.0,-7.0,77.0,-9.0,94.0,-780.0,610.0
29.0,-200.0,135.0,-11.0,75.0,-8.0,95.0,-781.0,609.0
30.0,-200.0,137.0,-15.0,74.0,-10.0,94.0,-779.0,606.0
32.0,-202.0,138.0,-19.0,72.0,-10.0,95.0,-781.0,612.0
31.0,-201.0,135.0,-23.0,70.0,-10.0,92.0,-779.0,608.0
30.0,-200.0,139.0,-24.0,67.0,-11.0,92.0,-777.0,618.0
29.0,-199.0,142.0,-24.0,65.0,-11.0,89.0,-779.0,621.0
28.0,-198.0,140.0,-21.0,64.0,-9.0,93.0,-776.0,620.0
30.0,-200.0,138.0,-20.0,65.0,-9.0,95.0,-777.0,625.0
31.0,-198.0,136.0,-19.0,67.0,-7.0,93.0,-780.0,625.0
31.0,-200.0,137.0,-19.0,69.0,-6.0,92.0,-777.0,627.0
27.0,-197.0,140.0,-22.0,71.0,-6.0,91.0,-777.0,623.0
29.0,-198.0,137.0,-24.0,72.0,-6.0,92.0,-778.0,615.0
27.0,-197.0,138.0,-27.0,72.0,-6.0,90.0,-775.0,625.0
28.0,-200.0,133.0,-26.0,73.0,-6.0,90.0,-773.0,619.0
28.0,-197.0,138.0,-27.0,72.0,-4.0,90.0,-770.0,618.0
30.0,-200.0,137.0,-30.0,71.0,-3.0,89.0,-777.0,617.0
24.0,-199.0,137.0,-28.0,70.0,-2.0,83.0,-781.0,619.0
25.0,-198.0,140.0,-28.0,69.0,-2.0,84.0,-777.0,621.0
26.0,-202.0,137.0,-29.0,67.0,-2.0,86.0,-777.0,627.0
27.0,-199.0,137.0,-28.0,64.0,-1.0,80.0,-769.0,623.0
29.0,-197.0,141.0,-25.0,62.0,-2.0,80.0,-775.0,624.0
29.0,-197.0,136.0,-23.0,62.0,-1.0,92.0,-768.0,622.0
27.0,-198.0,137.0,-22.0,61.0,-2.0,82.0,-772.0,623.0
31.0,-200.0,140.0,-19.0,61.0,-1.0,88.0,-767.0,626.0
30.0,-197.0,138.0,-16.0,62.0,-1.0,91.0,-771.0,625.0
33.0,-190.0,137.0,-17.0,58.0,0.0,88.0,-776.0,621.0
19.0,-190.0,123.0,-14.0,60.0,-1.0,93.0,-769.0,625.0
30.0,-199.0,138.0,-14.0,59.0,1.0,91.0,-771.0,628.0
29.0,-199.0,138.0,-15.0,59.0,-1.0,92.0,-778.0,627.0
29.0,-199.0,139.0,-14.0,57.0,1.0,91.0,-771.0,628.0
30.0,-199.0,137.0,-13.0,56.0,-2.0,93.0,-771.0,628.0
28.0,-198.0,141.0,-11.0,57.0,0.0,95.0,-776.0,627.0
30.0,-201.0,136.0,-10.0,57.0,-2.0,94.0,-775.0,631.0
31.0,-201.0,138.0,-9.0,57.0,1.0,95.0,-773.0,628.0
28.0,-201.0,137.0,-8.0,57.0,-1.0,91.0,-776.0,625.0
28.0,-199.0,140.0,-7.0,59.0,2.0,92.0,-784.0,625.0
29.0,-201.0,138.0,-6.0,59.0,1.0,93.0,-783.0,624.0
25.0,-196.0,138.0,-5.0,59.0,3.0,93.0,-785.0,627.0
33.0,-204.0,137.0,-6.0,56.0,0.0,94.0,-782.0,625.0
28.0,-200.0,136.0,-5.0,58.0,2.0,95.0,-780.0,619.0
29.0,-200.0,137.0,-3.0,59.0,-1.0,94.0,-779.0,622.0
28.0,-199.0,136.0,-3.0,58.0,1.0,94.0,-780.0,621.0
31.0,-201.0,136.0,-1.0,58.0,-2.0,92.0,-779.0,621.0
30.0,-199.0,136.0,0.0,60.0,-1.0,97.0,-781.0,616.0
29.0,-202.0,136.0,0.0,61.0,-4.0,98.0,-782.0,611.0
31.0,-201.0,136.0,1.0,62.0,-1.0,96.0,-775.0,614.0
28.0,-199.0,135.0,2.0,62.0,-3.0,94.0,-777.0,610.0
30.0,-198.0,136.0,1.0,62.0,-1.0,95.0,-777.0,609.0
29.0,-201.0,135.0,-2.0,61.0,-4.0,96.0,-777.0,607.0
27.0,-201.0,135.0,-6.0,59.0,-1.0,88.0,-777.0,608.0
30.0,-199.0,136.0,-10.0,58.0,-4.0,89.0,-774.0,608.0
27.0,-198.0,138.0,-13.0,55.0,-2.0,92.0,-775.0,611.0
28.0,-198.0,133.0,-16.0,53.0,-5.0,94.0,-769.0,618.0
27.0,-197.0,136.0,-17.0,51.0,-2.0,91.0,-761.0,619.0
28.0,-199.0,139.0,-16.0,51.0,-4.0,87.0,-768.0,615.0
30.0,-203.0,135.0,-14.0,51.0,-3.0,93.0,-773.0,618.0
29.0,-197.0,137.0,-15.0,52.0,-5.0,85.0,-768.0,622.0
29.0,-199.0,135.0,-12.0,51.0,-4.0,84.0,-765.0,620.0
29.0,-197.0,137.0,-10.0,51.0,-7.0,86.0,-761.0,626.0
27.0,-198.0,140.0,-7.0,50.0,-3.0,88.0,-773.0,624.0
27.0,-197.0,137.0,-5.0,49.0,-4.0,89.0,-773.0,628.0
29.0,-200.0,141.0,-3.0,51.0,-3.0,93.0,-777.0,625.0
29.0,-200.0,141.0,-1.0,49.0,-5.0,94.0,-776.0,629.0
28.0,-198.0,139.0,0.0,50.0,-3.0,96.0,-775.0,628.0
28.0,-199.0,137.0,2.0,50.0,-6.0,89.0,-777.0,632.0
30.0,-200.0,141.0,2.0,51.0,-4.0,89.0,-778.0,627.0
28.0,-198.0,140.0,3.0,51.0,-4.0,86.0,-780.0,628.0
29.0,-201.0,140.0,4.0,51.0,-2.0,86.0,-781.0,631.0
30.0,-198.0,137.0,2.0,51.0,-4.0,88.0,-780.0,630.0
27.0,-201.0,139.0,2.0,51.0,-2.0,88.0,-780.0,626.0
29.0,-197.0,136.0,2.0,52.0,-3.0,90.0,-781.0,628.0
29.0,-202.0,138.0,1.0,53.0,0.0,96.0,-782.0,626.0
28.0,-200.0,142.0,1.0,53.0,0.0,95.0,-778.0,618.0
28.0,-197.0,137.0,0.0,54.0,2.0,94.0,-775.0,624.0
31.0,-199.0,137.0,1.0,54.0,2.0,95.0,-777.0,612.0
26.0,-198.0,136.0,0.0,53.0,2.0,94.0,-779.0,610.0
27.0,-198.0,134.0,-2.0,50.0,0.0,94.0,-774.0,622.0
32.0,-200.0,137.0,-2.0,49.0,2.0,95.0,-764.0,616.0
28.0,-198.0,136.0,-1.0,46.0,-1.0,95.0,-772.0,623.0
29.0,-196.0,135.0,0.0,46.0,1.0,94.0,-767.0,619.0
31.0,-198.0,142.0,1.0,46.0,-3.0,95.0,-760.0,621.0
31.0,-198.0,137.0,0.0,46.0,-2.0,93.0,-763.0,617.0
30.0,-198.0,138.0,-1.0,46.0,-3.0,94.0,-764.0,623.0
30.0,-199.0,136.0,-3.0,47.0,-3.0,95.0,-762.0,623.0
29.0,-198.0,138.0,-3.0,46.0,-4.0,93.0,-771.0,625.0
32.0,-202.0,142.0,-2.0,48.0,-3.0,95.0,-768.0,623.0
26.0,-198.0,138.0,-4.0,50.0,-4.0,92.0,-773.0,628.0
30.0,-199.0,140.0,-2.0,50.0,-4.0,94.0,-773.0,626.0
27.0,-198.0,137.0,-3.0,51.0,-4.0,94.0,-770.0,626.0
30.0,-197.0,138.0,-3.0,50.0,-2.0,95.0,-769.0,631.0
31.0,-201.0,137.0,-1.0,51.0,-1.0,95.0,-770.0,634.0
31.0,-198.0,137.0,2.0,52.0,-1.0,97.0,-767.0,630.0
27.0,-199.0,143.0,4.0,51.0,-1.0,93.0,-776.0,628.0
29.0,-197.0,139.0,6.0,49.0,-1.0,96.0,-777.0,630.0
30.0,-201.0,139.0,8.0,49.0,-1.0,93.0,-776.0,630.0
30.0,-199.0,142.0,10.0,48.0,-1.0,94.0,-776.0,625.0
27.0,-199.0,138.0,11.0,46.0,-1.0,95.0,-779.0,631.0
27.0,-198.0,140.0,10.0,46.0,0.0,94.0,-765.0,625.0
30.0,-198.0,140.0,10.0,48.0,-1.0,91.0,-776.0,628.0
27.0,-199.0,141.0,11.0,50.0,0.0,92.0,-773.0,629.0
32.0,-198.0,137.0,12.0,51.0,1.0,92.0,-762.0,632.0
29.0,-196.0,138.0,13.0,51.0,0.0,95.0,-774.0,626.0
27.0,-200.0,139.0,13.0,52.0,1.0,92.0,-774.0,624.0
29.0,-197.0,138.0,13.0,54.0,1.0,93.0,-766.0,626.0
29.0,-198.0,139.0,10.0,54.0,3.0,94.0,-765.0,622.0
30.0,-199.0,137.0,11.0,53.0,3.0,94.0,-760.0,625.0
32.0,-196.0,138.0,9.0,53.0,4.0,94.0,-772.0,625.0
31.0,-197.0,138.0,9.0,51.0,2.0,94.0,-768.0,626.0
31.0,-197.0,139.0,9.0,50.0,2.0,95.0,-763.0,627.0
29.0,-198.0,140.0,7.0,49.0,2.0,97.0,-761.0,632.0
31.0,-196.0,143.0,7.0,49.0,2.0,94.0,-762.0,630.0
30.0,-197.0,138.0,7.0,47.0,2.0,94.0,-769.0,628.0
27.0,-197.0,138.0,7.0,47.0,5.0,94.0,-772.0,633.0
27.0,-198.0,139.0,7.0,47.0,2.0,95.0,-774.0,631.0
28.0,-199.0,141.0,6.0,45.0,6.0,97.0,-775.0,631.0
30.0,-197.0,138.0,6.0,47.0,4.0,95.0,-778.0,632.0
29.0,-198.0,141.0,6.0,47.0,6.0,95.0,-779.0,629.0
32.0,-200.0,137.0,5.0,47.0,4.0,87.0,-779.0,628.0
30.0,-203.0,138.0,4.0,48.0,6.0,91.0,-780.0,630.0
32.0,-202.0,139.0,1.0,48.0,4.0,94.0,-778.0,627.0
30.0,-202.0,138.0,1.0,47.0,6.0,92.0,-774.0,632.0
27.0,-198.0,138.0,1.0,47.0,4.0,92.0,-754.0,626.0
27.0,-199.0,137.0,0.0,49.0,6.0,95.0,-768.0,630.0
28.0,-198.0,132.0,2.0,48.0,5.0,94.0,-769.0,631.0
36.0,-196.0,129.0,3.0,49.0,7.0,95.0,-764.0,630.0
22.0,-199.0,137.0,4.0,51.0,6.0,94.0,-760.0,626.0
27.0,-195.0,149.0,3.0,51.0,7.0,91.0,-758.0,627.0
39.0,-179.0,134.0,2.0,51.0,4.0,95.0,-757.0,630.0
28.0,-195.0,137.0,3.0,51.0,7.0,94.0,-768.0,627.0
28.0,-195.0,135.0,3.0,50.0,4.0,94.0,-764.0,630.0
33.0,-198.0,137.0,4.0,50.0,6.0,97.0,-761.0,628.0
29.0,-198.0,143.0,4.0,50.0,3.0,94.0,-764.0,634.0
32.0,-199.0,138.0,6.0,50.0,4.0,95.0,-770.0,625.0
30.0,-199.0,140.0,6.0,50.0,0.0,95.0,-774.0,631.0
33.0,-200.0,140.0,5.0,49.0,3.0,93.0,-775.0,627.0
30.0,-199.0,139.0,5.0,51.0,-1.0,94.0,-774.0,632.0
33.0,-199.0,137.0,6.0,51.0,2.0,95.0,-774.0,624.0
31.0,-197.0,137.0,8.0,53.0,0.0,95.0,-765.0,628.0
31.0,-200.0,139.0,8.0,53.0,2.0,97.0,-774.0,631.0
31.0,-197.0,141.0,6.0,53.0,-1.0,95.0,-768.0,630.0
32.0,-199.0,137.0,6.0,53.0,1.0,99.0,-763.0,632.0
31.0,-198.0,141.0,4.0,55.0,-1.0,94.0,-762.0,630.0
30.0,-199.0,140.0,6.0,56.0,0.0,97.0,-761.0,633.0
29.0,-196.0,139.0,6.0,56.0,-2.0,95.0,-766.0,631.0
28.0,-197.0,139.0,7.0,58.0,-1.0,93.0,-759.0,630.0
32.0,-198.0,139.0,6.0,58.0,-4.0,95.0,-762.0,632.0
31.0,-198.0,137.0,7.0,58.0,-1.0,92.0,-759.0,632.0
30.0,-198.0,140.0,7.0,58.0,-4.0,93.0,-767.0,637.0
30.0,-200.0,138.0,8.0,57.0,-4.0,94.0,-773.0,636.0
32.0,-200.0,138.0,11.0,56.0,-6.0,92.0,-766.0,637.0
27.0,-199.0,139.0,12.0,58.0,-2.0,93.0,-776.0,633.0
28.0,-198.0,143.0,13.0,57.0,-3.0,95.0,-775.0,630.0
30.0,-198.0,140.0,13.0,56.0,-1.0,93.0,-776.0,634.0
27.0,-197.0,144.0,14.0,57.0,-1.0,93.0,-768.0,634.0
27.0,-197.0,137.0,13.0,57.0,1.0,99.0,-770.0,627.0
31.0,-198.0,143.0,13.0,58.0,-1.0,94.0,-773.0,630.0
32.0,-197.0,138.0,12.0,59.0,2.0,94.0,-759.0,628.0
30.0,-197.0,139.0,12.0,59.0,0.0,95.0,-762.0,631.0
29.0,-196.0,136.0,11.0,58.0,1.0,95.0,-760.0,630.0
30.0,-196.0,140.0,8.0,58.0,-1.0,94.0,-760.0,627.0
32.0,-195.0,139.0,6.0,58.0,-1.0,97.0,-758.0,626.0
30.0,-196.0,141.0,3.0,57.0,-3.0,98.0,-761.0,626.0
29.0,-197.0,141.0,0.0,54.0,-1.0,96.0,-761.0,626.0
29.0,-197.0,138.0,-3.0,55.0,-3.0,96.0,-769.0,628.0
28.0,-197.0,137.0,-4.0,54.0,-1.0,95.0,-764.0,628.0
33.0,-201.0,139.0,-7.0,55.0,-4.0,94.0,-773.0,625.0
31.0,-198.0,143.0,-9.0,54.0,-3.0,92.0,-760.0,629.0
28.0,-197.0,140.0,-11.0,55.0,-4.0,95.0,-765.0,632.0
27.0,-199.0,142.0,-13.0,56.0,-5.0,95.0,-760.0,635.0
31.0,-197.0,143.0,-14.0,56.0,-4.0,92.0,-758.0,641.0
28.0,-195.0,139.0,-14.0,56.0,-4.0,95.0,-763.0,641.0
29.0,-197.0,140.0,-17.0,57.0,-5.0,93.0,-760.0,638.0
31.0,-198.0,143.0,-19.0,57.0,-4.0,96.0,-759.0,636.0
29.0,-198.0,137.0,-21.0,58.0,-5.0,95.0,-772.0,635.0
29.0,-197.0,140.0,-21.0,61.0,-4.0,94.0,-761.0,634.0
32.0,-197.0,140.0,-21.0,62.0,-4.0,93.0,-764.0,630.0
31.0,-198.0,138.0,-20.0,63.0,-3.0,96.0,-767.0,627.0
30.0,-197.0,141.0,-19.0,62.0,-4.0,95.0,-762.0,628.0
30.0,-198.0,140.0,-17.0,62.0,-4.0,97.0,-760.0,627.0
32.0,-198.0,137.0,-15.0,63.0,-4.0,93.0,-756.0,626.0
29.0,-197.0,142.0,-15.0,62.0,-3.0,97.0,-753.0,626.0
31.0,-196.0,138.0,-14.0,63.0,-2.0,95.0,-757.0,628.0
29.0,-195.0,139.0,-13.0,61.0,-3.0,94.0,-753.0,636.0
31.0,-196.0,138.0,-11.0,60.0,-3.0,96.0,-754.0,635.0
30.0,-196.0,140.0,-9.0,61.0,-3.0,94.0,-755.0,637.0
28.0,-196.0,140.0,-9.0,60.0,-3.0,96.0,-756.0,635.0
32.0,-196.0,141.0,-7.0,59.0,-5.0,96.0,-752.0,635.0
29.0,-194.0,140.0,-7.0,60.0,-4.0,95.0,-757.0,632.0
31.0,-197.0,142.0,-9.0,61.0,-3.0,94.0,-759.0,634.0
30.0,-197.0,139.0,-10.0,60.0,-2.0,94.0,-761.0,632.0
30.0,-196.0,145.0,-12.0,60.0,-4.0,101.0,-756.0,635.0
35.0,-197.0,138.0,-13.0,60.0,-3.0,95.0,-761.0,635.0
30.0,-195.0,143.0,-10.0,59.0,-2.0,93.0,-764.0,640.0
31.0,-196.0,138.0,-9.0,56.0,-2.0,97.0,-761.0,629.0
30.0,-197.0,139.0,-10.0,59.0,-4.0,98.0,-765.0,631.0
30.0,-200.0,143.0,-10.0,59.0,-3.0,92.0,-770.0,637.0
30.0,-198.0,145.0,-9.0,58.0,-3.0,95.0,-775.0,638.0
32.0,-199.0,142.0,-7.0,60.0,0.0,95.0,-769.0,633.0
30.0,-201.0,146.0,-8.0,59.0,-2.0,92.0,-769.0,634.0
30.0,-198.0,139.0,-8.0,58.0,0.0,94.0,-773.0,629.0
29.0,-199.0,140.0,-6.0,59.0,-1.0,95.0,-773.0,632.0
32.0,-197.0,139.0,-5.0,59.0,1.0,94.0,-770.0,632.0
28.0,-198.0,139.0,-5.0,59.0,0.0,93.0,-770.0,628.0
31.0,-199.0,140.0,-5.0,60.0,4.0,94.0,-774.0,623.0
31.0,-199.0,138.0,-6.0,60.0,3.0,94.0,-774.0,628.0
29.0,-198.0,142.0,-5.0,60.0,4.0,94.0,-773.0,630.0
29.0,-197.0,138.0,-6.0,61.0,1.0,92.0,-770.0,629.0
31.0,-198.0,144.0,-8.0,59.0,3.0,95.0,-773.0,632.0
29.0,-198.0,141.0,-6.0,58.0,-1.0,95.0,-770.0,632.0
30.0,-198.0,141.0,-5.0,56.0,0.0,95.0,-766.0,630.0
30.0,-196.0,137.0,-4.0,58.0,-2.0,95.0,-768.0,632.0
32.0,-198.0,138.0,-3.0,57.0,-2.0,95.0,-763.0,632.0
27.0,-196.0,141.0,-1.0,56.0,-6.0,95.0,-763.0,630.0
29.0,-195.0,142.0,-2.0,56.0,-3.0,94.0,-765.0,628.0
28.0,-196.0,139.0,-1.0,55.0,-5.0,95.0,-756.0,633.0
30.0,-199.0,142.0,0.0,55.0,-2.0,88.0,-758.0,636.0
28.0,-198.0,140.0,-1.0,57.0,-5.0,91.0,-763.0,632.0
30.0,-197.0,142.0,0.0,57.0,-4.0,93.0,-758.0,631.0
29.0,-198.0,137.0,0.0,57.0,-5.0,92.0,-766.0,638.0
30.0,-197.0,141.0,0.0,57.0,-3.0,94.0,-762.0,636.0
28.0,-198.0,142.0,0.0,57.0,-5.0,95.0,-759.0,638.0
30.0,-198.0,140.0,1.0,59.0,-2.0,97.0,-758.0,636.0
24.0,-195.0,141.0,3.0,59.0,-4.0,90.0,-760.0,630.0
30.0,-197.0,139.0,2.0,60.0,-2.0,94.0,-762.0,633.0
28.0,-197.0,137.0,0.0,60.0,-5.0,92.0,-762.0,633.0
28.0,-197.0,139.0,-3.0,62.0,-2.0,97.0,-759.0,631.0
29.0,-199.0,138.0,-5.0,61.0,-4.0,94.0,-757.0,634.0
31.0,-199.0,141.0,-7.0,58.0,-1.0,93.0,-768.0,636.0
30.0,-196.0,137.0,-8.0,58.0,-3.0,96.0,-758.0,635.0
30.0,-194.0,138.0,-8.0,56.0,-1.0,92.0,-762.0,633.0
32.0,-197.0,144.0,-7.0,57.0,-5.0,96.0,-757.0,633.0
27.0,-195.0,138.0,-6.0,58.0,-1.0,95.0,-757.0,635.0
28.0,-196.0,142.0,-5.0,59.0,-5.0,94.0,-756.0,631.0
29.0,-196.0,140.0,-3.0,59.0,-1.0,94.0,-756.0,632.0
30.0,-197.0,142.0,-1.0,58.0,-4.0,95.0,-759.0,637.0
28.0,-196.0,140.0,1.0,57.0,-1.0,93.0,-759.0,633.0
30.0,-196.0,140.0,3.0,56.0,-2.0,95.0,-759.0,634.0
28.0,-197.0,139.0,3.0,56.0,0.0,95.0,-761.0,633.0
30.0,-196.0,139.0,3.0,56.0,-3.0,95.0,-758.0,637.0
29.0,-196.0,141.0,4.0,56.0,-1.0,94.0,-760.0,633.0
31.0,-199.0,140.0,2.0,58.0,-4.0,95.0,-760.0,635.0
29.0,-197.0,142.0,2.0,58.0,-2.0,93.0,-760.0,640.0
30.0,-198.0,143.0,3.0,58.0,-3.0,96.0,-763.0,633.0
28.0,-196.0,140.0,4.0,57.0,0.0,96.0,-760.0,636.0
28.0,-197.0,142.0,4.0,58.0,-3.0,94.0,-759.0,643.0
29.0,-196.0,138.0,7.0,60.0,0.0,95.0,-756.0,640.0
32.0,-196.0,139.0,8.0,60.0,-3.0,97.0,-759.0,639.0
29.0,-196.0,141.0,9.0,59.0,0.0,95.0,-755.0,636.0
32.0,-196.0,146.0,9.0,58.0,-2.0,94.0,-754.0,641.0
31.0,-198.0,141.0,13.0,58.0,0.0,96.0,-764.0,641.0
32.0,-196.0,145.0,17.0,58.0,-1.0,95.0,-750.0,636.0
30.0,-196.0,140.0,21.0,57.0,0.0,96.0,-752.0,638.0
31.0,-197.0,145.0,24.0,58.0,-3.0,96.0,-747.0,638.0
35.0,-196.0,148.0,30.0,59.0,-3.0,94.0,-752.0,644.0
30.0,-191.0,142.0,38.0,58.0,-5.0,95.0,-747.0,652.0
30.0,-195.0,146.0,53.0,58.0,-4.0,100.0,-739.0,662.0
35.0,-195.0,142.0,65.0,58.0,-5.0,98.0,-736.0,667.0
33.0,-192.0,150.0,78.0,58.0,-3.0,97.0,-730.0,669.0
30.0,-188.0,152.0,95.0,59.0,-6.0,93.0,-720.0,676.0
31.0,-187.0,156.0,114.0,60.0,-5.0,95.0,-715.0,678.0
29.0,-185.0,155.0,140.0,60.0,-9.0,96.0,-707.0,693.0
30.0,-185.0,158.0,171.0,62.0,-10.0,100.0,-711.0,694.0
30.0,-187.0,158.0,204.0,64.0,-13.0,95.0,-712.0,695.0
28.0,-190.0,155.0,234.0,66.0,-14.0,95.0,-721.0,697.0
28.0,-191.0,161.0,266.0,71.0,-18.0,93.0,-728.0,694.0
27.0,-194.0,151.0,289.0,76.0,-19.0,91.0,-742.0,691.0
29.0,-198.0,148.0,306.0,83.0,-19.0,88.0,-761.0,670.0
29.0,-204.0,140.0,313.0,88.0,-20.0,89.0,-788.0,648.0
29.0,-208.0,139.0,309.0,91.0,-17.0,91.0,-806.0,628.0
32.0,-211.0,136.0,288.0,90.0,-14.0,93.0,-823.0,605.0
29.0,-211.0,133.0,256.0,84.0,-7.0,91.0,-827.0,592.0
27.0,-208.0,131.0,218.0,77.0,-1.0,97.0,-821.0,590.0
31.0,-209.0,129.0,176.0,69.0,6.0,98.0,-807.0,581.0
32.0,-204.0,131.0,136.0,59.0,13.0,100.0,-800.0,583.0
32.0,-197.0,133.0,94.0,52.0,16.0,99.0,-784.0,590.0
31.0,-195.0,137.0,66.0,49.0,17.0,98.0,-774.0,606.0
30.0,-198.0,137.0,48.0,46.0,17.0,93.0,-752.0,626.0
30.0,-196.0,139.0,37.0,44.0,15.0,92.0,-749.0,633.0
33.0,-194.0,140.0,30.0,48.0,13.0,92.0,-747.0,638.0
30.0,-195.0,143.0,27.0,51.0,10.0,89.0,-743.0,636.0
30.0,-193.0,140.0,24.0,57.0,8.0,95.0,-741.0,635.0
31.0,-194.0,139.0,20.0,64.0,4.0,96.0,-737.0,640.0
32.0,-192.0,140.0,13.0,71.0,1.0,92.0,-743.0,632.0
32.0,-192.0,141.0,3.0,75.0,0.0,97.0,-742.0,633.0
32.0,-193.0,135.0,-6.0,77.0,-1.0,101.0,-746.0,633.0
28.0,-192.0,139.0,-15.0,75.0,-5.0,96.0,-744.0,633.0
29.0,-193.0,136.0,-26.0,73.0,-4.0,99.0,-741.0,634.0
30.0,-196.0,139.0,-39.0,70.0,-7.0,96.0,-751.0,638.0
30.0,-196.0,139.0,-52.0,66.0,-5.0,94.0,-753.0,641.0
30.0,-195.0,143.0,-67.0,64.0,-7.0,96.0,-755.0,641.0
27.0,-196.0,139.0,-82.0,62.0,-5.0,90.0,-757.0,645.0
30.0,-196.0,144.0,-97.0,61.0,-5.0,93.0,-757.0,648.0
28.0,-195.0,145.0,-109.0,62.0,-4.0,92.0,-753.0,647.0
30.0,-195.0,147.0,-116.0,60.0,-5.0,90.0,-749.0,646.0
28.0,-193.0,146.0,-121.0,59.0,-3.0,87.0,-748.0,651.0
28.0,-196.0,144.0,-120.0,59.0,-6.0,91.0,-745.0,651.0
26.0,-195.0,145.0,-118.0,59.0,-4.0,88.0,-744.0,652.0
30.0,-195.0,144.0,-112.0,57.0,-7.0,93.0,-743.0,645.0
33.0,-193.0,143.0,-105.0,56.0,-5.0,96.0,-742.0,648.0
31.0,-195.0,138.0,-96.0,56.0,-6.0,97.0,-746.0,639.0
32.0,-196.0,142.0,-93.0,55.0,-4.0,98.0,-748.0,645.0
33.0,-195.0,142.0,-89.0,55.0,-3.0,100.0,-755.0,641.0
33.0,-197.0,142.0,-85.0,56.0,0.0,98.0,-754.0,645.0
28.0,-195.0,143.0,-81.0,58.0,-2.0,95.0,-755.0,642.0
31.0,-197.0,145.0,-76.0,57.0,1.0,102.0,-756.0,646.0
33.0,-197.0,147.0,-72.0,57.0,0.0,102.0,-755.0,648.0
30.0,-195.0,141.0,-66.0,58.0,3.0,95.0,-753.0,643.0
30.0,-195.0,142.0,-61.0,58.0,0.0,97.0,-752.0,643.0
29.0,-197.0,146.0,-55.0,56.0,3.0,94.0,-747.0,652.0
28.0,-196.0,141.0,-52.0,52.0,-1.0,90.0,-750.0,644.0
28.0,-195.0,147.0,-49.0,52.0,1.0,87.0,-751.0,645.0
27.0,-195.0,145.0,-46.0,52.0,-2.0,92.0,-753.0,646.0
29.0,-195.0,141.0,-47.0,52.0,3.0,90.0,-747.0,644.0
28.0,-193.0,146.0,-50.0,53.0,2.0,92.0,-748.0,649.0
29.0,-195.0,145.0,-52.0,52.0,5.0,84.0,-745.0,652.0
31.0,-193.0,144.0,-56.0,53.0,3.0,94.0,-740.0,654.0
32.0,-193.0,146.0,-59.0,54.0,5.0,93.0,-729.0,658.0
27.0,-190.0,144.0,-63.0,56.0,4.0,94.0,-740.0,661.0
33.0,-196.0,147.0,-64.0,59.0,6.0,94.0,-734.0,663.0
29.0,-194.0,149.0,-66.0,62.0,4.0,94.0,-737.0,658.0
31.0,-195.0,149.0,-68.0,66.0,5.0,93.0,-736.0,666.0
29.0,-193.0,147.0,-70.0,66.0,1.0,93.0,-741.0,673.0
30.0,-192.0,156.0,-70.0,67.0,2.0,94.0,-737.0,674.0
27.0,-193.0,150.0,-65.0,67.0,-4.0,97.0,-740.0,673.0
31.0,-195.0,152.0,-58.0,65.0,-2.0,98.0,-743.0,679.0
29.0,-190.0,153.0,-50.0,65.0,-4.0,98.0,-744.0,678.0
30.0,-194.0,151.0,-40.0,66.0,-4.0,97.0,-740.0,675.0
30.0,-193.0,149.0,-31.0,65.0,-6.0,100.0,-742.0,668.0
30.0,-195.0,149.0,-20.0,64.0,-3.0,95.0,-751.0,658.0
31.0,-197.0,145.0,-10.0,65.0,-6.0,95.0,-750.0,656.0
27.0,-196.0,146.0,-3.0,63.0,-4.0,93.0,-751.0,652.0
29.0,-196.0,142.0,4.0,63.0,-6.0,90.0,-747.0,646.0
27.0,-194.0,142.0,11.0,64.0,-4.0,90.0,-745.0,645.0
29.0,-196.0,144.0,16.0,65.0,-5.0,90.0,-751.0,639.0
24.0,-195.0,140.0,19.0,64.0,-3.0,89.0,-747.0,644.0
27.0,-195.0,140.0,21.0,64.0,-3.0,90.0,-745.0,638.0
25.0,-193.0,144.0,19.0,61.0,-1.0,81.0,-749.0,644.0
28.0,-192.0,146.0,18.0,58.0,-1.0,87.0,-742.0,643.0
30.0,-194.0,144.0,17.0,57.0,3.0,93.0,-743.0,649.0
28.0,-196.0,145.0,13.0,57.0,2.0,83.0,-741.0,645.0
28.0,-196.0,144.0,9.0,57.0,4.0,91.0,-745.0,646.0
31.0,-194.0,142.0,4.0,57.0,4.0,95.0,-748.0,643.0
29.0,-194.0,140.0,-1.0,57.0,4.0,91.0,-750.0,642.0
30.0,-195.0,138.0,-6.0,58.0,4.0,94.0,-747.0,641.0
29.0,-196.0,142.0,-12.0,58.0,4.0,93.0,-752.0,645.0
31.0,-194.0,143.0,-17.0,56.0,3.0,97.0,-754.0,641.0
29.0,-194.0,140.0,-20.0,56.0,3.0,96.0,-752.0,640.0
27.0,-195.0,143.0,-26.0,57.0,1.0,95.0,-748.0,644.0
30.0,-194.0,144.0,-29.0,56.0,2.0,94.0,-752.0,641.0
27.0,-195.0,144.0,-31.0,57.0,1.0,89.0,-750.0,640.0
32.0,-196.0,140.0,-35.0,58.0,0.0,93.0,-747.0,643.0
25.0,-196.0,141.0,-37.0,56.0,-1.0,99.0,-755.0,643.0
32.0,-196.0,144.0,-40.0,54.0,-3.0,94.0,-751.0,643.0
29.0,-196.0,144.0,-41.0,51.0,-4.0,95.0,-754.0,647.0
27.0,-196.0,141.0,-40.0,54.0,-4.0,94.0,-752.0,649.0
29.0,-196.0,144.0,-37.0,55.0,-3.0,92.0,-754.0,646.0
30.0,-197.0,139.0,-36.0,54.0,-2.0,94.0,-754.0,642.0
29.0,-197.0,143.0,-33.0,54.0,-2.0,95.0,-757.0,643.0
29.0,-194.0,144.0,-30.0,54.0,-1.0,95.0,-756.0,646.0
30.0,-195.0,141.0,-28.0,55.0,-2.0,92.0,-755.0,644.0
28.0,-196.0,144.0,-23.0,56.0,-2.0,94.0,-753.0,650.0
28.0,-192.0,143.0,-20.0,55.0,-1.0,96.0,-748.0,645.0
28.0,-192.0,144.0,-15.0,56.0,-1.0,96.0,-746.0,648.0
28.0,-195.0,145.0,-8.0,57.0,0.0,96.0,-738.0,651.0
32.0,-196.0,145.0,-2.0,58.0,-1.0,93.0,-747.0,647.0
30.0,-195.0,144.0,6.0,60.0,-1.0,92.0,-741.0,650.0
28.0,-195.0,142.0,15.0,61.0,0.0,91.0,-746.0,646.0
29.0,-192.0,144.0,24.0,63.0,0.0,92.0,-748.0,646.0
29.0,-193.0,146.0,29.0,65.0,0.0,89.0,-747.0,646.0
27.0,-195.0,141.0,30.0,65.0,-1.0,93.0,-752.0,650.0
32.0,-196.0,144.0,29.0,67.0,-2.0,96.0,-750.0,645.0
30.0,-196.0,142.0,26.0,65.0,-1.0,98.0,-752.0,643.0
31.0,-197.0,144.0,20.0,63.0,-3.0,90.0,-756.0,645.0
29.0,-198.0,142.0,13.0,62.0,-1.0,98.0,-760.0,642.0
29.0,-198.0,142.0,9.0,61.0,-3.0,95.0,-757.0,640.0
32.0,-198.0,146.0,0.0,61.0,0.0,95.0,-760.0,642.0
29.0,-196.0,143.0,-6.0,59.0,-1.0,97.0,-754.0,643.0
28.0,-195.0,141.0,-12.0,59.0,0.0,95.0,-754.0,643.0
32.0,-195.0,143.0,-19.0,57.0,-1.0,96.0,-753.0,643.0
31.0,-195.0,141.0,-22.0,55.0,0.0,97.0,-746.0,643.0
30.0,-193.0,142.0,-25.0,55.0,-1.0,93.0,-750.0,644.0
30.0,-194.0,147.0,-21.0,57.0,1.0,96.0,-745.0,645.0
30.0,-195.0,147.0,-21.0,56.0,-1.0,98.0,-743.0,647.0
30.0,-193.0,146.0,-19.0,56.0,0.0,96.0,-743.0,644.0
29.0,-191.0,144.0,-15.0,56.0,-2.0,96.0,-740.0,644.0
29.0,-194.0,144.0,-15.0,56.0,-1.0,94.0,-744.0,643.0
26.0,-193.0,145.0,-16.0,56.0,-4.0,94.0,-742.0,651.0
27.0,-194.0,145.0,-16.0,57.0,-3.0,91.0,-747.0,649.0
28.0,-195.0,146.0,-17.0,56.0,-6.0,94.0,-742.0,648.0
29.0,-194.0,143.0,-20.0,59.0,-2.0,94.0,-744.0,653.0
30.0,-195.0,148.0,-22.0,57.0,-6.0,93.0,-755.0,656.0
30.0,-196.0,141.0,-23.0,55.0,-3.0,88.0,-754.0,654.0
28.0,-195.0,147.0,-26.0,56.0,-6.0,84.0,-757.0,657.0
27.0,-197.0,144.0,-26.0,57.0,-3.0,92.0,-754.0,650.0
29.0,-198.0,142.0,-28.0,57.0,-6.0,92.0,-761.0,644.0
28.0,-196.0,145.0,-29.0,57.0,-2.0,90.0,-763.0,649.0
28.0,-197.0,145.0,-30.0,55.0,-4.0,82.0,-758.0,646.0
28.0,-196.0,143.0,-31.0,59.0,-1.0,93.0,-759.0,642.0
28.0,-196.0,142.0,-31.0,60.0,-5.0,86.0,-747.0,642.0
26.0,-195.0,141.0,-27.0,60.0,-3.0,94.0,-755.0,646.0
27.0,-196.0,143.0,-25.0,62.0,-4.0,95.0,-747.0,640.0
31.0,-196.0,146.0,-22.0,62.0,-1.0,93.0,-746.0,651.0
28.0,-195.0,146.0,-18.0,64.0,-4.0,91.0,-743.0,645.0
32.0,-194.0,141.0,-17.0,64.0,-1.0,97.0,-747.0,646.0
27.0,-193.0,142.0,-16.0,65.0,-4.0,93.0,-745.0,643.0
32.0,-195.0,143.0,-17.0,65.0,-2.0,92.0,-743.0,645.0
29.0,-193.0,148.0,-21.0,64.0,-5.0,96.0,-740.0,642.0
31.0,-192.0,139.0,-25.0,63.0,-3.0,98.0,-740.0,644.0
28.0,-194.0,139.0,-27.0,60.0,-5.0,97.0,-744.0,648.0
29.0,-195.0,140.0,-29.0,57.0,-4.0,93.0,-746.0,642.0
32.0,-195.0,142.0,-32.0,55.0,-6.0,98.0,-747.0,645.0
29.0,-196.0,146.0,-34.0,51.0,-5.0,94.0,-748.0,644.0
29.0,-194.0,142.0,-35.0,51.0,-7.0,97.0,-749.0,647.0
31.0,-196.0,144.0,-35.0,48.0,-5.0,94.0,-745.0,647.0
30.0,-195.0,146.0,-32.0,50.0,-8.0,94.0,-747.0,651.0
28.0,-196.0,144.0,-30.0,50.0,-7.0,94.0,-745.0,652.0
29.0,-197.0,143.0,-26.0,54.0,-7.0,92.0,-767.0,646.0
31.0,-195.0,146.0,-23.0,55.0,-5.0,93.0,-757.0,649.0
29.0,-198.0,142.0,-21.0,57.0,-5.0,86.0,-758.0,647.0
29.0,-199.0,142.0,-17.0,59.0,-3.0,93.0,-761.0,651.0
28.0,-196.0,143.0,-15.0,59.0,-3.0,94.0,-758.0,649.0
26.0,-195.0,142.0,-13.0,61.0,1.0,94.0,-764.0,647.0
27.0,-196.0,145.0,-11.0,60.0,0.0,84.0,-757.0,648.0
31.0,-198.0,142.0,-12.0,58.0,2.0,85.0,-753.0,645.0
26.0,-195.0,145.0,-12.0,57.0,0.0,91.0,-754.0,643.0
27.0,-193.0,142.0,-14.0,56.0,2.0,94.0,-751.0,641.0
30.0,-195.0,141.0,-17.0,54.0,1.0,93.0,-753.0,638.0
29.0,-196.0,143.0,-20.0,52.0,3.0,86.0,-753.0,636.0
29.0,-195.0,143.0,-22.0,53.0,2.0,92.0,-749.0,635.0
28.0,-196.0,143.0,-26.0,50.0,2.0,93.0,-748.0,633.0
29.0,-194.0,142.0,-28.0,50.0,0.0,94.0,-750.0,639.0
29.0,-196.0,141.0,-28.0,50.0,1.0,90.0,-755.0,636.0
30.0,-196.0,142.0,-29.0,50.0,-1.0,89.0,-755.0,636.0
32.0,-196.0,145.0,-29.0,51.0,0.0,96.0,-752.0,642.0
27.0,-195.0,140.0,-29.0,53.0,1.0,96.0,-749.0,641.0
29.0,-194.0,143.0,-28.0,53.0,1.0,96.0,-750.0,643.0
31.0,-196.0,143.0,-28.0,54.0,0.0,97.0,-754.0,645.0
33.0,-196.0,145.0,-26.0,56.0,-1.0,96.0,-750.0,646.0
29.0,-196.0,144.0,-24.0,56.0,-1.0,93.0,-749.0,644.0
31.0,-194.0,143.0,-23.0,56.0,-2.0,99.0,-752.0,648.0
33.0,-197.0,142.0,-23.0,57.0,-5.0,94.0,-754.0,648.0
30.0,-196.0,146.0,-23.0,56.0,-3.0,97.0,-757.0,644.0
29.0,-194.0,145.0,-21.0,56.0,-5.0,99.0,-754.0,644.0
32.0,-197.0,144.0,-22.0,55.0,-6.0,95.0,-757.0,646.0
32.0,-196.0,143.0,-19.0,53.0,-5.0,94.0,-760.0,645.0
31.0,-198.0,142.0,-14.0,53.0,-5.0,95.0,-759.0,645.0
28.0,-197.0,140.0,-11.0,52.0,-3.0,101.0,-761.0,644.0
29.0,-196.0,141.0,-9.0,53.0,-3.0,97.0,-758.0,642.0
31.0,-196.0,143.0,-6.0,53.0,-3.0,97.0,-756.0,649.0
29.0,-196.0,144.0,-6.0,52.0,-3.0,93.0,-762.0,642.0
28.0,-197.0,139.0,-6.0,52.0,-2.0,88.0,-761.0,639.0
26.0,-198.0,140.0,-6.0,53.0,0.0,92.0,-755.0,640.0
29.0,-197.0,139.0,-6.0,51.0,2.0,85.0,-754.0,642.0
24.0,-196.0,143.0,-5.0,50.0,5.0,88.0,-754.0,642.0
27.0,-197.0,143.0,-4.0,49.0,7.0,91.0,-757.0,642.0
27.0,-197.0,141.0,-4.0,50.0,6.0,88.0,-759.0,644.0
31.0,-197.0,144.0,-4.0,48.0,9.0,90.0,-754.0,642.0
29.0,-196.0,147.0,-5.0,48.0,9.0,94.0,-755.0,641.0
28.0,-197.0,143.0,-5.0,49.0,11.0,93.0,-754.0,643.0
32.0,-195.0,140.0,-4.0,47.0,10.0,94.0,-754.0,645.0
27.0,-195.0,142.0,-4.0,48.0,11.0,91.0,-746.0,642.0
27.0,-194.0,143.0,-3.0,48.0,10.0,94.0,-751.0,647.0
28.0,-195.0,142.0,-3.0,47.0,9.0,94.0,-749.0,643.0
31.0,-196.0,139.0,-3.0,44.0,7.0,96.0,-748.0,639.0
29.0,-196.0,140.0,-4.0,43.0,8.0,97.0,-754.0,640.0
33.0,-196.0,143.0,-6.0,41.0,5.0,95.0,-752.0,638.0
31.0,-194.0,141.0,-10.0,40.0,4.0,99.0,-748.0,643.0
29.0,-196.0,140.0,-12.0,38.0,1.0,97.0,-753.0,639.0
31.0,-194.0,142.0,-15.0,36.0,1.0,98.0,-751.0,644.0
32.0,-194.0,143.0,-18.0,36.0,-3.0,100.0,-753.0,649.0
34.0,-196.0,143.0,-18.0,37.0,-3.0,96.0,-755.0,640.0
29.0,-195.0,145.0,-19.0,35.0,-6.0,99.0,-753.0,645.0
30.0,-196.0,145.0,-18.0,36.0,-5.0,98.0,-756.0,649.0
33.0,-198.0,142.0,-15.0,38.0,-8.0,98.0,-751.0,643.0
31.0,-195.0,142.0,-13.0,39.0,-4.0,102.0,-755.0,643.0
30.0,-197.0,143.0,-10.0,39.0,-5.0,94.0,-758.0,643.0
30.0,-195.0,144.0,-6.0,39.0,-4.0,97.0,-753.0,644.0
30.0,-195.0,147.0,-3.0,39.0,-6.0,95.0,-750.0,643.0
32.0,-196.0,140.0,-3.0,38.0,-4.0,96.0,-751.0,642.0
31.0,-196.0,145.0,0.0,38.0,-6.0,99.0,-745.0,643.0
30.0,-195.0,142.0,2.0,39.0,-4.0,94.0,-746.0,644.0
30.0,-192.0,142.0,2.0,38.0,-7.0,98.0,-746.0,642.0
31.0,-195.0,143.0,4.0,38.0,-3.0,99.0,-747.0,641.0
32.0,-194.0,144.0,4.0,39.0,-5.0,96.0,-748.0,640.0
27.0,-195.0,143.0,3.0,39.0,-4.0,97.0,-749.0,644.0
30.0,-194.0,142.0,0.0,39.0,-7.0,95.0,-745.0,639.0
29.0,-194.0,142.0,0.0,39.0,-3.0,98.0,-747.0,640.0
28.0,-194.0,144.0,-2.0,38.0,-6.0,91.0,-748.0,642.0
29.0,-195.0,140.0,-1.0,39.0,-4.0,93.0,-745.0,644.0
31.0,-189.0,142.0,-3.0,39.0,-4.0,97.0,-741.0,642.0
30.0,-193.0,141.0,-4.0,39.0,-3.0,97.0,-744.0,641.0
30.0,-193.0,140.0,-4.0,40.0,-5.0,96.0,-744.0,643.0
32.0,-196.0,140.0,-3.0,43.0,-3.0,100.0,-751.0,645.0
30.0,-193.0,142.0,-5.0,44.0,-4.0,100.0,-753.0,646.0
31.0,-196.0,147.0,-4.0,44.0,-3.0,101.0,-750.0,646.0
32.0,-194.0,143.0,-3.0,46.0,-7.0,104.0,-747.0,651.0
33.0,-193.0,144.0,-6.0,49.0,-4.0,102.0,-751.0,645.0
35.0,-195.0,144.0,-8.0,53.0,-6.0,107.0,-751.0,644.0
36.0,-196.0,143.0,-14.0,58.0,-5.0,106.0,-750.0,641.0
35.0,-193.0,143.0,-18.0,63.0,-7.0,110.0,-751.0,639.0
35.0,-195.0,140.0,-23.0,66.0,-4.0,114.0,-758.0,643.0
35.0,-195.0,142.0,-30.0,68.0,-6.0,110.0,-750.0,642.0
35.0,-196.0,141.0,-37.0,71.0,-2.0,113.0,-753.0,638.0
35.0,-196.0,140.0,-50.0,72.0,-2.0,113.0,-756.0,632.0
33.0,-193.0,140.0,-61.0,71.0,0.0,109.0,-758.0,631.0
35.0,-196.0,142.0,-72.0,72.0,0.0,109.0,-753.0,634.0
31.0,-195.0,140.0,-85.0,71.0,4.0,96.0,-762.0,634.0
33.0,-195.0,140.0,-95.0,70.0,5.0,99.0,-757.0,641.0
34.0,-196.0,139.0,-105.0,69.0,11.0,92.0,-755.0,640.0
28.0,-196.0,141.0,-114.0,69.0,13.0,92.0,-757.0,639.0
29.0,-198.0,140.0,-122.0,67.0,16.0,86.0,-755.0,642.0
25.0,-197.0,142.0,-127.0,65.0,15.0,82.0,-756.0,638.0
27.0,-196.0,138.0,-133.0,63.0,16.0,80.0,-750.0,641.0
24.0,-195.0,141.0,-138.0,59.0,13.0,74.0,-747.0,641.0
26.0,-195.0,141.0,-145.0,56.0,14.0,75.0,-750.0,643.0
24.0,-196.0,140.0,-151.0,54.0,10.0,74.0,-757.0,636.0
26.0,-199.0,139.0,-156.0,52.0,9.0,73.0,-749.0,634.0
23.0,-195.0,138.0,-161.0,52.0,5.0,70.0,-749.0,629.0
23.0,-196.0,137.0,-167.0,53.0,5.0,70.0,-747.0,624.0
26.0,-195.0,138.0,-173.0,52.0,2.0,74.0,-749.0,628.0
23.0,-194.0,138.0,-183.0,49.0,1.0,72.0,-743.0,618.0
25.0,-193.0,137.0,-192.0,46.0,1.0,73.0,-744.0,623.0
24.0,-194.0,139.0,-201.0,39.0,2.0,76.0,-739.0,625.0
22.0,-194.0,136.0,-208.0,32.0,0.0,73.0,-742.0,622.0
27.0,-194.0,136.0,-218.0,25.0,2.0,72.0,-744.0,618.0
24.0,-194.0,140.0,-226.0,18.0,4.0,80.0,-743.0,614.0
25.0,-193.0,138.0,-236.0,11.0,6.0,76.0,-744.0,620.0
24.0,-194.0,136.0,-246.0,4.0,8.0,79.0,-743.0,618.0
23.0,-196.0,138.0,-259.0,-1.0,9.0,77.0,-750.0,618.0
26.0,-196.0,137.0,-274.0,-5.0,12.0,77.0,-753.0,611.0
24.0,-196.0,136.0,-289.0,-10.0,16.0,74.0,-749.0,619.0
22.0,-194.0,134.0,-307.0,-15.0,18.0,71.0,-749.0,609.0
27.0,-194.0,133.0,-324.0,-18.0,24.0,75.0,-748.0,601.0
24.0,-196.0,133.0,-343.0,-22.0,28.0,78.0,-759.0,596.0
26.0,-197.0,135.0,-362.0,-28.0,32.0,73.0,-757.0,596.0
25.0,-195.0,131.0,-381.0,-36.0,36.0,77.0,-758.0,593.0
24.0,-196.0,133.0,-399.0,-41.0,38.0,75.0,-758.0,593.0
27.0,-196.0,133.0,-416.0,-47.0,42.0,83.0,-756.0,597.0
27.0,-198.0,132.0,-431.0,-53.0,44.0,88.0,-750.0,596.0
26.0,-195.0,130.0,-443.0,-58.0,48.0,82.0,-751.0,592.0
28.0,-194.0,134.0,-458.0,-62.0,48.0,86.0,-751.0,593.0
26.0,-193.0,134.0,-470.0,-67.0,47.0,89.0,-752.0,592.0
27.0,-195.0,130.0,-481.0,-72.0,41.0,76.0,-745.0,594.0
25.0,-194.0,132.0,-491.0,-80.0,39.0,80.0,-746.0,593.0
25.0,-195.0,131.0,-498.0,-85.0,32.0,76.0,-750.0,592.0
25.0,-196.0,136.0,-503.0,-92.0,30.0,71.0,-758.0,590.0
25.0,-198.0,130.0,-506.0,-98.0,26.0,72.0,-758.0,589.0
25.0,-198.0,132.0,-508.0,-104.0,26.0,65.0,-774.0,580.0
20.0,-199.0,131.0,-508.0,-113.0,25.0,71.0,-779.0,582.0
25.0,-200.0,128.0,-505.0,-121.0,26.0,76.0,-781.0,580.0
26.0,-201.0,124.0,-498.0,-129.0,27.0,84.0,-780.0,583.0
26.0,-195.0,130.0,-488.0,-134.0,32.0,86.0,-767.0,576.0
32.0,-198.0,130.0,-478.0,-138.0,36.0,94.0,-754.0,582.0
31.0,-194.0,129.0,-471.0,-140.0,42.0,94.0,-746.0,578.0
29.0,-192.0,128.0,-468.0,-142.0,45.0,96.0,-739.0,580.0
32.0,-192.0,125.0,-465.0,-144.0,53.0,97.0,-734.0,580.0
30.0,-194.0,130.0,-465.0,-147.0,55.0,101.0,-739.0,582.0
30.0,-191.0,130.0,-468.0,-148.0,59.0,97.0,-741.0,585.0
33.0,-195.0,133.0,-475.0,-152.0,58.0,103.0,-744.0,581.0
31.0,-194.0,130.0,-483.0,-158.0,57.0,101.0,-743.0,591.0
7.0,-175.0,128.0,-481.0,-163.0,52.0,32.0,-706.0,593.0
49.0,-196.0,131.0,-473.0,-163.0,86.0,159.0,-765.0,592.0
49.0,-198.0,130.0,-461.0,-172.0,71.0,151.0,-769.0,584.0
35.0,-192.0,134.0,-448.0,-171.0,39.0,108.0,-735.0,591.0
-26.0,-186.0,132.0,-431.0,-176.0,28.0,-55.0,-703.0,599.0
55.0,-202.0,121.0,-419.0,-192.0,79.0,201.0,-790.0,561.0
31.0,-190.0,129.0,-413.0,-187.0,29.0,104.0,-733.0,587.0
29.0,-190.0,125.0,-398.0,-185.0,17.0,98.0,-728.0,567.0
40.0,-193.0,127.0,-387.0,-181.0,63.0,-40.0,-690.0,591.0
45.0,-197.0,123.0,-385.0,-190.0,73.0,174.0,-776.0,541.0
11.0,-189.0,128.0,-385.0,-173.0,39.0,3.0,-710.0,571.0
34.0,-192.0,118.0,-384.0,-166.0,73.0,109.0,-756.0,547.0
36.0,-195.0,123.0,-396.0,-158.0,56.0,103.0,-737.0,554.0
36.0,-188.0,121.0,-400.0,-143.0,35.0,104.0,-720.0,553.0
8.0,-188.0,132.0,-411.0,-131.0,28.0,8.0,-723.0,570.0
38.0,-201.0,121.0,-410.0,-132.0,57.0,111.0,-777.0,552.0
31.0,-200.0,127.0,-398.0,-117.0,22.0,98.0,-763.0,572.0
13.0,-195.0,124.0,-365.0,-108.0,-10.0,-13.0,-721.0,572.0
-9.0,-185.0,146.0,-328.0,-101.0,52.0,-90.0,-704.0,577.0
34.0,-202.0,117.0,-297.0,-105.0,91.0,99.0,-790.0,531.0
19.0,-198.0,118.0,-268.0,-101.0,47.0,69.0,-771.0,548.0
5.0,-196.0,116.0,-237.0,-105.0,22.0,9.0,-756.0,521.0
-30.0,-178.0,128.0,-218.0,-91.0,62.0,-154.0,-683.0,540.0
55.0,-209.0,109.0,-214.0,-81.0,143.0,134.0,-830.0,477.0
49.0,-204.0,116.0,-233.0,-62.0,91.0,123.0,-791.0,516.0
16.0,-203.0,105.0,-252.0,-54.0,17.0,18.0,-773.0,502.0
-26.0,-200.0,106.0,-289.0,-56.0,-9.0,-64.0,-800.0,506.0
64.0,-244.0,99.0,-369.0,-59.0,-5.0,200.0,-917.0,481.0
54.0,-243.0,116.0,-472.0,-54.0,-84.0,190.0,-946.0,524.0
52.0,-250.0,116.0,-576.0,-54.0,-152.0,183.0,-969.0,523.0
15.0,-242.0,121.0,-670.0,-43.0,-186.0,-123.0,-968.0,552.0
61.0,-264.0,126.0,-765.0,-35.0,-131.0,236.0,-1061.0,540.0
78.0,-292.0,109.0,-869.0,-20.0,-208.0,269.0,-1141.0,519.0
45.0,-284.0,114.0,-966.0,-23.0,-291.0,163.0,-1124.0,524.0
39.0,-288.0,116.0,-1065.0,-51.0,-317.0,130.0,-1141.0,535.0
37.0,-309.0,113.0,-1188.0,-86.0,-299.0,157.0,-1169.0,565.0
73.0,-321.0,133.0,-1299.0,-143.0,-271.0,162.0,-1275.0,583.0
44.0,-332.0,153.0,-1426.0,-199.0,-337.0,148.0,-1278.0,677.0
37.0,-340.0,169.0,-1541.0,-250.0,-415.0,113.0,-1318.0,726.0
39.0,-349.0,180.0,-1649.0,-286.0,-468.0,110.0,-1363.0,802.0
48.0,-362.0,200.0,-1742.0,-295.0,-510.0,183.0,-1403.0,874.0
46.0,-384.0,197.0,-1802.0,-269.0,-546.0,135.0,-1489.0,847.0
64.0,-402.0,189.0,-1854.0,-221.0,-544.0,203.0,-1550.0,820.0
80.0,-421.0,183.0,-1894.0,-144.0,-532.0,247.0,-1608.0,799.0
63.0,-446.0,158.0,-1920.0,-90.0,-516.0,210.0,-1705.0,712.0
42.0,-463.0,126.0,-1951.0,-68.0,-460.0,231.0,-1805.0,603.0
73.0,-488.0,125.0,-1997.0,-93.0,-389.0,244.0,-1887.0,544.0
66.0,-504.0,121.0,-2031.0,-144.0,-324.0,228.0,-1941.0,545.0
66.0,-513.0,133.0,-2029.0,-226.0,-262.0,214.0,-1968.0,580.0
59.0,-512.0,143.0,-1995.0,-320.0,-211.0,193.0,-1965.0,633.0
57.0,-501.0,150.0,-1947.0,-416.0,-170.0,190.0,-1932.0,659.0
63.0,-489.0,149.0,-1913.0,-490.0,-139.0,212.0,-1889.0,657.0
75.0,-486.0,142.0,-1908.0,-535.0,-97.0,241.0,-1883.0,647.0
80.0,-487.0,137.0,-1931.0,-542.0,-44.0,271.0,-1889.0,618.0
94.0,-491.0,129.0,-1969.0,-537.0,12.0,313.0,-1909.0,570.0
101.0,-496.0,110.0,-2024.0,-529.0,76.0,347.0,-1914.0,524.0
111.0,-491.0,103.0,-2087.0,-519.0,138.0,372.0,-1912.0,478.0
115.0,-493.0,93.0,-2155.0,-507.0,195.0,377.0,-1914.0,437.0
108.0,-495.0,81.0,-2227.0,-490.0,251.0,372.0,-1910.0,412.0
100.0,-485.0,78.0,-2302.0,-461.0,322.0,348.0,-1888.0,385.0
98.0,-461.0,77.0,-2370.0,-427.0,393.0,314.0,-1820.0,376.0
91.0,-445.0,95.0,-2421.0,-392.0,466.0,280.0,-1714.0,372.0
79.0,-424.0,80.0,-2450.0,-378.0,496.0,252.0,-1622.0,393.0
55.0,-409.0,83.0,-2451.0,-376.0,505.0,192.0,-1565.0,416.0
47.0,-397.0,87.0,-2427.0,-385.0,509.0,141.0,-1522.0,419.0
51.0,-383.0,78.0,-2371.0,-401.0,504.0,161.0,-1476.0,385.0
52.0,-377.0,59.0,-2289.0,-416.0,486.0,171.0,-1431.0,328.0
52.0,-365.0,38.0,-2191.0,-449.0,454.0,161.0,-1414.0,246.0
51.0,-359.0,28.0,-2082.0,-501.0,429.0,180.0,-1373.0,186.0
57.0,-362.0,12.0,-1961.0,-571.0,409.0,203.0,-1369.0,121.0
50.0,-347.0,6.0,-1828.0,-643.0,386.0,173.0,-1331.0,78.0
54.0,-342.0,-19.0,-1663.0,-704.0,372.0,176.0,-1297.0,24.0
37.0,-333.0,-30.0,-1530.0,-743.0,361.0,126.0,-1270.0,-31.0
99.0,-360.0,-24.0,-1406.0,-755.0,393.0,191.0,-1276.0,-26.0
64.0,-321.0,-24.0,-1272.0,-758.0,367.0,196.0,-1228.0,-16.0
62.0,-320.0,-23.0,-1144.0,-720.0,400.0,257.0,-1232.0,-11.0
91.0,-317.0,-17.0,-1029.0,-667.0,429.0,300.0,-1201.0,33.0
80.0,-306.0,-4.0,-926.0,-609.0,444.0,264.0,-1175.0,66.0
102.0,-310.0,8.0,-841.0,-550.0,490.0,345.0,-1193.0,113.0
113.0,-309.0,12.0,-766.0,-497.0,509.0,389.0,-1186.0,144.0
97.0,-304.0,27.0,-685.0,-405.0,474.0,309.0,-1169.0,176.0
101.0,-308.0,35.0,-625.0,-330.0,466.0,341.0,-1203.0,190.0
104.0,-304.0,40.0,-574.0,-257.0,440.0,373.0,-1189.0,217.0
87.0,-295.0,47.0,-524.0,-181.0,391.0,297.0,-1149.0,245.0
93.0,-299.0,44.0,-483.0,-114.0,387.0,318.0,-1153.0,234.0
102.0,-295.0,35.0,-451.0,-69.0,353.0,350.0,-1148.0,220.0
92.0,-279.0,32.0,-429.0,-13.0,304.0,313.0,-1103.0,203.0
83.0,-266.0,24.0,-410.0,40.0,262.0,267.0,-1040.0,173.0
93.0,-265.0,21.0,-401.0,86.0,226.0,327.0,-1025.0,152.0
92.0,-255.0,17.0,-400.0,124.0,174.0,309.0,-995.0,149.0
102.0,-256.0,18.0,-408.0,146.0,148.0,351.0,-999.0,130.0
90.0,-250.0,6.0,-415.0,177.0,88.0,310.0,-967.0,76.0
88.0,-256.0,-7.0,-423.0,221.0,53.0,298.0,-998.0,54.0
89.0,-262.0,-12.0,-431.0,265.0,36.0,304.0,-1028.0,36.0
90.0,-271.0,-24.0,-442.0,314.0,17.0,307.0,-1051.0,18.0
85.0,-271.0,-30.0,-443.0,365.0,1.0,307.0,-1067.0,-26.0
87.0,-274.0,-33.0,-446.0,410.0,-22.0,302.0,-1070.0,-44.0
80.0,-280.0,-36.0,-450.0,454.0,-32.0,263.0,-1069.0,-61.0
86.0,-269.0,-22.0,-431.0,527.0,-20.0,285.0,-1047.0,-33.0
83.0,-262.0,-22.0,-381.0,582.0,-29.0,282.0,-1007.0,-9.0
77.0,-255.0,-18.0,-322.0,634.0,-28.0,236.0,-979.0,0.0
78.0,-252.0,-11.0,-278.0,685.0,-15.0,261.0,-964.0,38.0
65.0,-243.0,-13.0,-220.0,708.0,-33.0,232.0,-939.0,34.0
51.0,-234.0,6.0,-176.0,716.0,-68.0,174.0,-898.0,85.0
43.0,-229.0,10.0,-110.0,705.0,-71.0,136.0,-876.0,89.0
41.0,-221.0,1.0,-42.0,682.0,-70.0,129.0,-851.0,76.0
37.0,-211.0,2.0,9.0,672.0,-52.0,115.0,-815.0,72.0
29.0,-199.0,-1.0,60.0,678.0,-50.0,88.0,-765.0,71.0
23.0,-188.0,1.0,100.0,678.0,-36.0,67.0,-730.0,79.0
23.0,-180.0,3.0,144.0,665.0,-12.0,73.0,-698.0,81.0
20.0,-175.0,-8.0,187.0,645.0,14.0,55.0,-672.0,58.0
23.0,-163.0,-17.0,199.0,633.0,29.0,57.0,-649.0,18.0
29.0,-163.0,-33.0,179.0,639.0,46.0,79.0,-636.0,-48.0
11.0,-148.0,-22.0,134.0,651.0,60.0,55.0,-558.0,-2.0
12.0,-140.0,-16.0,121.0,649.0,115.0,41.0,-535.0,12.0
14.0,-132.0,-2.0,147.0,631.0,129.0,35.0,-494.0,63.0
15.0,-125.0,3.0,219.0,622.0,145.0,39.0,-467.0,74.0
26.0,-115.0,7.0,339.0,645.0,150.0,77.0,-424.0,97.0
38.0,-109.0,-2.0,449.0,667.0,149.0,119.0,-436.0,65.0
23.0,-105.0,-11.0,526.0,685.0,95.0,72.0,-408.0,33.0
-3.0,-93.0,5.0,589.0,683.0,81.0,-24.0,-341.0,82.0
-27.0,-74.0,30.0,710.0,644.0,133.0,-99.0,-259.0,165.0
-35.0,-68.0,37.0,902.0,557.0,218.0,-108.0,-275.0,188.0
-20.0,-71.0,2.0,1089.0,497.0,250.0,-109.0,-281.0,77.0
-11.0,-62.0,-21.0,1147.0,455.0,246.0,-58.0,-285.0,-25.0
-10.0,-57.0,-22.0,1111.0,436.0,234.0,-52.0,-228.0,0.0
-2.0,-53.0,-27.0,1081.0,444.0,236.0,-35.0,-201.0,-32.0
-12.0,-59.0,-48.0,1050.0,511.0,222.0,-52.0,-201.0,-61.0
24.0,-50.0,-47.0,1009.0,628.0,223.0,59.0,-216.0,-116.0
11.0,-55.0,-65.0,922.0,747.0,117.0,18.0,-241.0,-181.0
-6.0,-50.0,-42.0,762.0,778.0,37.0,-29.0,-198.0,-101.0
-18.0,-36.0,-18.0,659.0,743.0,24.0,-77.0,-140.0,-18.0
-15.0,-42.0,-36.0,644.0,698.0,53.0,-85.0,-170.0,-57.0
-12.0,-42.0,-45.0,634.0,671.0,45.0,-60.0,-172.0,-89.0
-11.0,-43.0,-40.0,601.0,642.0,34.0,-50.0,-171.0,-77.0
-6.0,-44.0,-36.0,581.0,610.0,39.0,-32.0,-169.0,-70.0
-5.0,-42.0,-47.0,589.0,573.0,59.0,-22.0,-179.0,-94.0
-2.0,-50.0,-53.0,585.0,522.0,77.0,-14.0,-203.0,-129.0
-2.0,-48.0,-44.0,560.0,463.0,97.0,-11.0,-185.0,-105.0
6.0,-45.0,-52.0,549.0,407.0,139.0,17.0,-200.0,-131.0
12.0,-59.0,-58.0,532.0,367.0,176.0,36.0,-232.0,-165.0
12.0,-64.0,-57.0,492.0,338.0,172.0,31.0,-243.0,-165.0
8.0,-65.0,-55.0,453.0,291.0,162.0,24.0,-255.0,-149.0
7.0,-67.0,-57.0,427.0,237.0,161.0,15.0,-274.0,-151.0
6.0,-73.0,-60.0,403.0,175.0,167.0,19.0,-296.0,-172.0
3.0,-77.0,-63.0,365.0,127.0,168.0,1.0,-309.0,-182.0
-6.0,-76.0,-64.0,325.0,89.0,173.0,-25.0,-309.0,-168.0
-6.0,-76.0,-60.0,296.0,59.0,182.0,-40.0,-309.0,-174.0
-11.0,-77.0,-62.0,269.0,35.0,192.0,-56.0,-301.0,-181.0
-12.0,-81.0,-65.0,243.0,20.0,201.0,-61.0,-315.0,-176.0
-12.0,-84.0,-61.0,210.0,19.0,203.0,-66.0,-335.0,-184.0
-12.0,-90.0,-60.0,177.0,23.0,196.0,-72.0,-358.0,-171.0
-13.0,-97.0,-59.0,144.0,24.0,183.0,-67.0,-383.0,-168.0
-12.0,-107.0,-60.0,112.0,14.0,185.0,-76.0,-416.0,-168.0
-15.0,-117.0,-61.0,86.0,-1.0,167.0,-87.0,-453.0,-173.0
-20.0,-128.0,-68.0,53.0,-19.0,141.0,-101.0,-498.0,-194.0
-18.0,-135.0,-64.0,6.0,-38.0,124.0,-97.0,-535.0,-185.0
-20.0,-153.0,-66.0,-41.0,-52.0,111.0,-101.0,-611.0,-188.0
-20.0,-167.0,-65.0,-98.0,-58.0,84.0,-104.0,-664.0,-190.0
-18.0,-184.0,-64.0,-154.0,-63.0,55.0,-100.0,-719.0,-183.0
-16.0,-200.0,-60.0,-200.0,-72.0,31.0,-94.0,-788.0,-176.0
-12.0,-219.0,-68.0,-236.0,-81.0,20.0,-74.0,-844.0,-185.0
-3.0,-240.0,-64.0,-261.0,-88.0,7.0,-44.0,-904.0,-190.0
-1.0,-252.0,-68.0,-280.0,-87.0,-9.0,-18.0,-968.0,-200.0
10.0,-267.0,-64.0,-285.0,-81.0,-29.0,0.0,-1051.0,-191.0
17.0,-288.0,-63.0,-270.0,-68.0,-45.0,37.0,-1118.0,-182.0
24.0,-305.0,-63.0,-232.0,-56.0,-62.0,58.0,-1173.0,-171.0
34.0,-323.0,-56.0,-178.0,-45.0,-76.0,94.0,-1240.0,-167.0
43.0,-338.0,-53.0,-112.0,-39.0,-98.0,126.0,-1294.0,-154.0
50.0,-353.0,-52.0,-46.0,-46.0,-117.0,154.0,-1353.0,-132.0
56.0,-365.0,-46.0,13.0,-59.0,-137.0,174.0,-1398.0,-119.0
59.0,-373.0,-45.0,64.0,-73.0,-150.0,199.0,-1434.0,-100.0
61.0,-374.0,-36.0,115.0,-83.0,-161.0,211.0,-1444.0,-71.0
68.0,-375.0,-32.0,162.0,-77.0,-160.0,221.0,-1443.0,-55.0
69.0,-366.0,-25.0,211.0,-58.0,-163.0,228.0,-1417.0,-27.0
65.0,-356.0,-23.0,267.0,-35.0,-162.0,226.0,-1392.0,-20.0
65.0,-346.0,-18.0,308.0,-14.0,-157.0,209.0,-1356.0,-1.0
56.0,-333.0,-18.0,333.0,1.0,-140.0,190.0,-1291.0,6.0
53.0,-325.0,-11.0,350.0,15.0,-123.0,183.0,-1261.0,20.0
54.0,-319.0,-12.0,362.0,30.0,-101.0,170.0,-1215.0,25.0
52.0,-306.0,-9.0,373.0,57.0,-83.0,156.0,-1170.0,26.0
49.0,-291.0,-12.0,388.0,88.0,-67.0,139.0,-1132.0,30.0
44.0,-276.0,-11.0,401.0,119.0,-61.0,134.0,-1080.0,41.0
41.0,-267.0,-9.0,419.0,144.0,-53.0,119.0,-1029.0,40.0
32.0,-251.0,-13.0,438.0,163.0,-50.0,103.0,-972.0,39.0
32.0,-237.0,-9.0,454.0,174.0,-44.0,92.0,-917.0,42.0
27.0,-223.0,-10.0,461.0,178.0,-40.0,79.0,-869.0,32.0
25.0,-211.0,-13.0,455.0,177.0,-35.0,68.0,-827.0,24.0
18.0,-199.0,-10.0,438.0,169.0,-33.0,51.0,-784.0,24.0
14.0,-191.0,-13.0,413.0,152.0,-22.0,27.0,-743.0,22.0
6.0,-185.0,-14.0,367.0,121.0,-13.0,3.0,-716.0,30.0
1.0,-179.0,-15.0,326.0,94.0,3.0,-16.0,-702.0,23.0
-3.0,-177.0,-14.0,279.0,68.0,14.0,-28.0,-696.0,12.0
-6.0,-180.0,-14.0,229.0,52.0,24.0,-41.0,-693.0,19.0
-4.0,-173.0,-22.0,175.0,44.0,26.0,-49.0,-711.0,8.0
-11.0,-180.0,-33.0,117.0,34.0,28.0,-51.0,-734.0,11.0
-14.0,-202.0,-12.0,60.0,24.0,21.0,-50.0,-761.0,16.0
6.0,-200.0,-8.0,10.0,10.0,14.0,-48.0,-798.0,29.0
-2.0,-208.0,-6.0,-28.0,-2.0,-1.0,-48.0,-831.0,31.0
-1.0,-218.0,-8.0,-67.0,-12.0,-5.0,-29.0,-860.0,37.0
0.0,-227.0,-8.0,-96.0,-21.0,-16.0,-27.0,-888.0,45.0
0.0,-236.0,-5.0,-118.0,-32.0,-22.0,-21.0,-907.0,55.0
3.0,-244.0,-6.0,-132.0,-46.0,-34.0,-18.0,-938.0,58.0
2.0,-249.0,-2.0,-145.0,-59.0,-40.0,-11.0,-967.0,64.0
4.0,-259.0,6.0,-146.0,-72.0,-49.0,-8.0,-994.0,73.0
2.0,-260.0,1.0,-137.0,-86.0,-52.0,-11.0,-1009.0,78.0
6.0,-266.0,2.0,-123.0,-103.0,-59.0,-3.0,-1023.0,82.0
5.0,-266.0,4.0,-109.0,-117.0,-61.0,-5.0,-1043.0,77.0
7.0,-272.0,2.0,-100.0,-133.0,-66.0,0.0,-1055.0,67.0
5.0,-275.0,1.0,-100.0,-141.0,-64.0,-1.0,-1061.0,76.0
9.0,-276.0,0.0,-97.0,-151.0,-62.0,-1.0,-1063.0,69.0
10.0,-275.0,-6.0,-92.0,-161.0,-55.0,2.0,-1071.0,57.0
10.0,-275.0,-3.0,-97.0,-169.0,-54.0,8.0,-1067.0,59.0
13.0,-280.0,-8.0,-93.0,-175.0,-44.0,11.0,-1085.0,49.0
10.0,-281.0,-8.0,-89.0,-184.0,-32.0,16.0,-1096.0,44.0
14.0,-283.0,-2.0,-88.0,-191.0,-18.0,24.0,-1092.0,62.0
15.0,-280.0,-5.0,-80.0,-199.0,-6.0,26.0,-1093.0,62.0
16.0,-282.0,-4.0,-59.0,-207.0,10.0,39.0,-1097.0,63.0
22.0,-280.0,-1.0,-46.0,-212.0,20.0,48.0,-1086.0,62.0
19.0,-279.0,0.0,-30.0,-211.0,34.0,56.0,-1080.0,63.0
23.0,-275.0,-4.0,-11.0,-209.0,44.0,63.0,-1059.0,60.0
27.0,-267.0,-7.0,9.0,-208.0,58.0,78.0,-1050.0,53.0
30.0,-268.0,-8.0,18.0,-209.0,66.0,89.0,-1036.0,45.0
34.0,-261.0,-5.0,17.0,-207.0,75.0,95.0,-1027.0,36.0
34.0,-262.0,-9.0,12.0,-208.0,78.0,98.0,-1014.0,36.0
31.0,-259.0,-10.0,1.0,-210.0,81.0,100.0,-1006.0,34.0
32.0,-256.0,-13.0,-7.0,-217.0,81.0,97.0,-991.0,30.0
32.0,-252.0,-11.0,-14.0,-224.0,86.0,87.0,-979.0,24.0
31.0,-249.0,-14.0,-17.0,-230.0,89.0,91.0,-965.0,20.0
31.0,-246.0,-18.0,-22.0,-233.0,91.0,87.0,-955.0,11.0
30.0,-247.0,-15.0,-29.0,-236.0,92.0,84.0,-949.0,13.0
30.0,-244.0,-14.0,-39.0,-237.0,91.0,81.0,-949.0,18.0
28.0,-247.0,-15.0,-48.0,-238.0,92.0,78.0,-943.0,21.0
25.0,-242.0,-11.0,-55.0,-239.0,92.0,79.0,-936.0,27.0
25.0,-243.0,-9.0,-58.0,-237.0,90.0,73.0,-938.0,33.0
27.0,-242.0,-7.0,-60.0,-234.0,92.0,74.0,-935.0,41.0
28.0,-243.0,-8.0,-59.0,-229.0,90.0,78.0,-934.0,43.0
32.0,-244.0,-2.0,-56.0,-221.0,92.0,80.0,-933.0,52.0
29.0,-242.0,-2.0,-49.0,-210.0,94.0,88.0,-930.0,56.0
35.0,-242.0,-6.0,-41.0,-195.0,94.0,86.0,-937.0,61.0
33.0,-241.0,-7.0,-38.0,-177.0,94.0,97.0,-934.0,56.0
30.0,-242.0,-4.0,-39.0,-160.0,91.0,94.0,-944.0,51.0
32.0,-246.0,-4.0,-43.0,-147.0,91.0,96.0,-952.0,47.0
34.0,-246.0,-6.0,-49.0,-135.0,85.0,85.0,-950.0,43.0
31.0,-251.0,-7.0,-52.0,-124.0,91.0,97.0,-958.0,51.0
35.0,-253.0,-12.0,-45.0,-113.0,96.0,97.0,-964.0,54.0
36.0,-255.0,0.0,-33.0,-112.0,98.0,107.0,-973.0,62.0
40.0,-254.0,-1.0,-16.0,-116.0,98.0,119.0,-976.0,63.0
41.0,-255.0,2.0,-4.0,-115.0,94.0,129.0,-980.0,65.0
43.0,-247.0,-7.0,4.0,-104.0,91.0,125.0,-965.0,41.0
45.0,-251.0,-8.0,-5.0,-82.0,90.0,136.0,-956.0,42.0
39.0,-250.0,-10.0,-20.0,-58.0,85.0,127.0,-964.0,48.0
35.0,-252.0,-3.0,-23.0,-39.0,83.0,111.0,-973.0,53.0
38.0,-256.0,-6.0,-20.0,-28.0,83.0,110.0,-977.0,39.0
37.0,-253.0,-13.0,-22.0,-18.0,81.0,120.0,-984.0,46.0
37.0,-259.0,-4.0,-27.0,-12.0,75.0,117.0,-998.0,53.0
34.0,-259.0,-9.0,-28.0,-6.0,71.0,95.0,-1003.0,46.0
24.0,-262.0,-5.0,-26.0,-2.0,68.0,67.0,-1008.0,44.0
28.0,-262.0,-8.0,-23.0,-5.0,75.0,85.0,-1022.0,37.0
37.0,-259.0,-7.0,-22.0,-11.0,83.0,107.0,-1013.0,53.0
40.0,-270.0,25.0,-22.0,-13.0,87.0,115.0,-1051.0,114.0
40.0,-267.0,-8.0,25.0,-25.0,76.0,107.0,-1026.0,50.0
46.0,-257.0,-11.0,60.0,-17.0,85.0,138.0,-1006.0,36.0
44.0,-255.0,-13.0,71.0,16.0,80.0,152.0,-980.0,32.0
43.0,-252.0,-12.0,63.0,44.0,66.0,133.0,-971.0,17.0
40.0,-252.0,-13.0,43.0,60.0,54.0,126.0,-972.0,18.0
39.0,-256.0,-11.0,25.0,69.0,44.0,115.0,-974.0,30.0
29.0,-256.0,-13.0,14.0,76.0,29.0,74.0,-987.0,26.0
19.0,-257.0,-10.0,6.0,83.0,25.0,45.0,-990.0,33.0
15.0,-253.0,-5.0,7.0,81.0,18.0,34.0,-977.0,46.0
20.0,-255.0,-8.0,17.0,68.0,11.0,50.0,-975.0,50.0
23.0,-248.0,-8.0,27.0,51.0,2.0,65.0,-954.0,50.0
28.0,-244.0,-7.0,37.0,47.0,-4.0,82.0,-948.0,45.0
32.0,-242.0,-4.0,43.0,54.0,-8.0,98.0,-932.0,53.0
39.0,-241.0,-10.0,39.0,67.0,-10.0,107.0,-924.0,39.0
28.0,-239.0,-8.0,29.0,79.0,-15.0,96.0,-930.0,49.0
19.0,-242.0,-5.0,26.0,89.0,-16.0,55.0,-937.0,55.0
21.0,-244.0,-2.0,38.0,82.0,-24.0,55.0,-936.0,72.0
29.0,-240.0,-2.0,63.0,48.0,-34.0,102.0,-925.0,68.0
36.0,-243.0,-4.0,83.0,16.0,-46.0,102.0,-926.0,62.0
35.0,-239.0,-2.0,85.0,7.0,-51.0,117.0,-931.0,62.0
38.0,-246.0,4.0,73.0,9.0,-68.0,118.0,-944.0,77.0
43.0,-250.0,3.0,52.0,6.0,-75.0,115.0,-955.0,99.0
42.0,-251.0,11.0,31.0,0.0,-82.0,127.0,-968.0,117.0
37.0,-254.0,15.0,17.0,0.0,-83.0,115.0,-980.0,135.0
30.0,-260.0,19.0,9.0,15.0,-85.0,88.0,-1000.0,149.0
21.0,-259.0,20.0,12.0,34.0,-83.0,52.0,-1007.0,158.0
16.0,-260.0,23.0,19.0,45.0,-76.0,39.0,-1013.0,166.0
19.0,-261.0,21.0,33.0,42.0,-55.0,46.0,-1015.0,164.0
23.0,-260.0,20.0,55.0,38.0,-32.0,60.0,-1010.0,155.0
29.0,-258.0,12.0,78.0,46.0,-1.0,78.0,-1006.0,132.0
27.0,-260.0,7.0,102.0,66.0,14.0,76.0,-1011.0,104.0
20.0,-259.0,-3.0,103.0,84.0,29.0,57.0,-1006.0,74.0
9.0,-260.0,-1.0,90.0,86.0,34.0,12.0,-1015.0,63.0
5.0,-262.0,-3.0,69.0,70.0,45.0,0.0,-1014.0,55.0
6.0,-261.0,0.0,42.0,38.0,44.0,-9.0,-1014.0,50.0
7.0,-257.0,-6.0,11.0,1.0,49.0,10.0,-1013.0,44.0
12.0,-260.0,-5.0,-21.0,-28.0,42.0,22.0,-1007.0,45.0
13.0,-257.0,-6.0,-48.0,-54.0,35.0,18.0,-1002.0,50.0
11.0,-259.0,-1.0,-67.0,-68.0,25.0,14.0,-1005.0,53.0
14.0,-258.0,1.0,-78.0,-79.0,21.0,26.0,-1007.0,68.0
14.0,-257.0,2.0,-76.0,-86.0,16.0,17.0,-1004.0,80.0
29.0,-255.0,16.0,-69.0,-88.0,15.0,14.0,-1004.0,92.0
8.0,-256.0,8.0,-61.0,-91.0,9.0,10.0,-999.0,98.0
19.0,-258.0,9.0,-56.0,-95.0,7.0,41.0,-993.0,104.0
29.0,-256.0,7.0,-50.0,-99.0,-2.0,72.0,-990.0,105.0
26.0,-257.0,6.0,-45.0,-91.0,-5.0,56.0,-986.0,107.0
18.0,-255.0,11.0,-34.0,-73.0,-7.0,53.0,-977.0,120.0
22.0,-252.0,10.0,-12.0,-57.0,-3.0,44.0,-970.0,113.0
21.0,-253.0,8.0,10.0,-53.0,-1.0,48.0,-966.0,107.0
20.0,-250.0,6.0,13.0,-51.0,8.0,48.0,-967.0,97.0
20.0,-250.0,7.0,11.0,-51.0,12.0,53.0,-961.0,89.0
16.0,-247.0,-1.0,3.0,-55.0,20.0,43.0,-962.0,79.0
20.0,-250.0,1.0,-10.0,-60.0,28.0,45.0,-960.0,72.0
21.0,-248.0,2.0,-21.0,-67.0,34.0,51.0,-963.0,69.0
17.0,-248.0,3.0,-32.0,-75.0,36.0,46.0,-958.0,67.0
20.0,-250.0,0.0,-41.0,-77.0,39.0,52.0,-955.0,69.0
21.0,-248.0,1.0,-50.0,-81.0,36.0,54.0,-957.0,73.0
21.0,-247.0,-1.0,-58.0,-79.0,34.0,56.0,-958.0,81.0
23.0,-249.0,7.0,-62.0,-72.0,28.0,56.0,-962.0,91.0
20.0,-251.0,6.0,-62.0,-62.0,23.0,61.0,-961.0,99.0
24.0,-252.0,8.0,-55.0,-53.0,16.0,60.0,-964.0,103.0
27.0,-255.0,8.0,-45.0,-46.0,14.0,76.0,-972.0,105.0
29.0,-254.0,9.0,-33.0,-37.0,9.0,85.0,-975.0,107.0
30.0,-257.0,8.0,-23.0,-25.0,6.0,81.0,-988.0,106.0
26.0,-258.0,10.0,-7.0,-10.0,7.0,81.0,-991.0,106.0
29.0,-259.0,9.0,10.0,1.0,9.0,92.0,-989.0,103.0
34.0,-256.0,9.0,25.0,6.0,11.0,94.0,-977.0,105.0
37.0,-257.0,11.0,31.0,15.0,12.0,106.0,-980.0,100.0
34.0,-252.0,8.0,33.0,26.0,10.0,106.0,-976.0,93.0
41.0,-254.0,6.0,30.0,39.0,8.0,114.0,-975.0,84.0
39.0,-253.0,2.0,21.0,53.0,7.0,116.0,-971.0,85.0
35.0,-252.0,2.0,13.0,68.0,7.0,107.0,-975.0,87.0
38.0,-257.0,7.0,3.0,86.0,7.0,97.0,-973.0,89.0
33.0,-250.0,6.0,-6.0,97.0,8.0,93.0,-971.0,85.0
31.0,-252.0,7.0,-18.0,104.0,7.0,96.0,-976.0,91.0
33.0,-251.0,7.0,-38.0,110.0,8.0,95.0,-971.0,89.0
31.0,-254.0,7.0,-53.0,111.0,7.0,100.0,-970.0,92.0
33.0,-254.0,8.0,-65.0,116.0,6.0,90.0,-971.0,94.0
32.0,-254.0,8.0,-74.0,121.0,3.0,92.0,-972.0,100.0
33.0,-257.0,8.0,-79.0,126.0,2.0,83.0,-985.0,96.0
27.0,-255.0,10.0,-79.0,130.0,2.0,80.0,-979.0,108.0
28.0,-255.0,9.0,-77.0,134.0,1.0,76.0,-984.0,106.0
29.0,-257.0,10.0,-74.0,139.0,1.0,76.0,-979.0,114.0
27.0,-256.0,10.0,-73.0,144.0,-1.0,74.0,-985.0,119.0
25.0,-259.0,9.0,-66.0,151.0,-2.0,70.0,-987.0,110.0
25.0,-257.0,9.0,-58.0,152.0,-3.0,70.0,-985.0,109.0
28.0,-253.0,5.0,-53.0,153.0,-3.0,71.0,-994.0,100.0
21.0,-254.0,9.0,-51.0,154.0,-7.0,56.0,-970.0,97.0
20.0,-254.0,9.0,-46.0,156.0,-4.0,52.0,-976.0,96.0
20.0,-252.0,9.0,-44.0,153.0,-7.0,49.0,-976.0,96.0
21.0,-254.0,8.0,-48.0,145.0,-6.0,57.0,-974.0,98.0
20.0,-255.0,6.0,-55.0,138.0,-9.0,55.0,-974.0,97.0
19.0,-254.0,7.0,-60.0,137.0,-9.0,52.0,-985.0,104.0
17.0,-254.0,9.0,-59.0,135.0,-9.0,47.0,-976.0,109.0
20.0,-253.0,10.0,-54.0,134.0,-5.0,51.0,-978.0,109.0
21.0,-255.0,10.0,-46.0,135.0,-6.0,53.0,-977.0,107.0
19.0,-254.0,8.0,-41.0,136.0,-1.0,52.0,-980.0,108.0
19.0,-253.0,12.0,-37.0,137.0,-3.0,49.0,-978.0,104.0
21.0,-254.0,8.0,-31.0,140.0,-2.0,56.0,-978.0,106.0
21.0,-254.0,8.0,-31.0,140.0,-5.0,47.0,-976.0,106.0
23.0,-255.0,9.0,-27.0,138.0,0.0,52.0,-977.0,107.0
23.0,-256.0,5.0,-25.0,134.0,-3.0,51.0,-975.0,104.0
25.0,-255.0,8.0,-23.0,130.0,1.0,55.0,-973.0,98.0
23.0,-253.0,6.0,-21.0,125.0,-1.0,57.0,-969.0,99.0
24.0,-254.0,8.0,-22.0,121.0,0.0,65.0,-962.0,94.0
27.0,-255.0,4.0,-27.0,119.0,-2.0,62.0,-978.0,93.0
26.0,-250.0,7.0,-35.0,118.0,-5.0,79.0,-969.0,90.0
27.0,-252.0,1.0,-39.0,119.0,-8.0,70.0,-967.0,87.0
20.0,-253.0,5.0,-37.0,123.0,-5.0,48.0,-972.0,92.0
18.0,-254.0,6.0,-34.0,121.0,-7.0,52.0,-969.0,90.0
19.0,-253.0,6.0,-37.0,110.0,-6.0,58.0,-972.0,95.0
23.0,-255.0,6.0,-43.0,97.0,-7.0,59.0,-977.0,96.0
23.0,-254.0,9.0,-53.0,91.0,-6.0,55.0,-976.0,93.0
21.0,-253.0,8.0,-64.0,89.0,-9.0,48.0,-975.0,96.0
20.0,-253.0,8.0,-71.0,85.0,-4.0,49.0,-982.0,88.0
20.0,-256.0,6.0,-75.0,82.0,-4.0,48.0,-990.0,90.0
18.0,-257.0,7.0,-78.0,81.0,0.0,54.0,-1000.0,87.0
21.0,-257.0,4.0,-80.0,81.0,1.0,52.0,-990.0,85.0
19.0,-258.0,4.0,-78.0,81.0,4.0,57.0,-995.0,76.0
23.0,-255.0,0.0,-75.0,78.0,6.0,57.0,-992.0,74.0
22.0,-256.0,1.0,-69.0,70.0,9.0,58.0,-987.0,69.0
21.0,-254.0,-1.0,-64.0,67.0,6.0,55.0,-981.0,69.0
23.0,-259.0,1.0,-59.0,61.0,9.0,59.0,-997.0,63.0
27.0,-258.0,-4.0,-60.0,58.0,4.0,80.0,-998.0,59.0
28.0,-254.0,-4.0,-64.0,55.0,1.0,78.0,-975.0,61.0
25.0,-255.0,-2.0,-61.0,62.0,0.0,66.0,-977.0,63.0
20.0,-255.0,-1.0,-54.0,70.0,5.0,47.0,-971.0,70.0
22.0,-253.0,8.0,-50.0,68.0,7.0,58.0,-974.0,74.0
23.0,-251.0,4.0,-55.0,63.0,10.0,58.0,-970.0,75.0
26.0,-254.0,1.0,-66.0,58.0,9.0,69.0,-973.0,74.0
25.0,-253.0,8.0,-77.0,61.0,10.0,74.0,-974.0,79.0
26.0,-254.0,4.0,-81.0,65.0,7.0,71.0,-979.0,83.0
25.0,-256.0,3.0,-78.0,67.0,10.0,60.0,-979.0,78.0
20.0,-254.0,2.0,-71.0,69.0,10.0,59.0,-995.0,76.0
23.0,-254.0,2.0,-62.0,68.0,14.0,69.0,-995.0,75.0
26.0,-253.0,-6.0,-56.0,68.0,14.0,72.0,-992.0,68.0
28.0,-256.0,-6.0,-54.0,68.0,16.0,71.0,-983.0,63.0
23.0,-255.0,-4.0,-56.0,70.0,15.0,70.0,-978.0,56.0
22.0,-251.0,-4.0,-58.0,70.0,16.0,69.0,-978.0,57.0
23.0,-253.0,-3.0,-64.0,69.0,14.0,66.0,-978.0,61.0
25.0,-255.0,-5.0,-65.0,69.0,15.0,69.0,-980.0,61.0
25.0,-256.0,-4.0,-66.0,71.0,12.0,67.0,-991.0,63.0
26.0,-255.0,-7.0,-66.0,73.0,14.0,64.0,-979.0,62.0
26.0,-251.0,-6.0,-64.0,75.0,9.0,70.0,-984.0,68.0
27.0,-253.0,-3.0,-64.0,79.0,9.0,78.0,-979.0,65.0
29.0,-256.0,-1.0,-64.0,82.0,7.0,70.0,-979.0,70.0
25.0,-254.0,-2.0,-60.0,84.0,6.0,78.0,-975.0,70.0
24.0,-257.0,2.0,-56.0,83.0,4.0,71.0,-977.0,67.0
26.0,-257.0,-3.0,-51.0,85.0,5.0,78.0,-998.0,68.0
26.0,-251.0,-1.0,-47.0,85.0,0.0,73.0,-970.0,70.0
25.0,-254.0,-1.0,-41.0,90.0,2.0,65.0,-978.0,63.0
19.0,-252.0,-1.0,-33.0,95.0,-1.0,53.0,-965.0,63.0
24.0,-252.0,-3.0,-31.0,92.0,0.0,63.0,-969.0,62.0
25.0,-251.0,-5.0,-32.0,89.0,-1.0,63.0,-965.0,59.0
24.0,-252.0,-6.0,-36.0,88.0,-1.0,59.0,-969.0,60.0
22.0,-252.0,-2.0,-38.0,89.0,-3.0,59.0,-964.0,58.0
23.0,-251.0,-2.0,-39.0,91.0,-3.0,56.0,-967.0,61.0
22.0,-253.0,0.0,-34.0,90.0,-4.0,59.0,-962.0,63.0
18.0,-253.0,-3.0,-31.0,90.0,-4.0,58.0,-965.0,61.0
23.0,-249.0,1.0,-34.0,92.0,-4.0,69.0,-968.0,59.0
26.0,-252.0,0.0,-36.0,96.0,-4.0,65.0,-972.0,60.0
29.0,-254.0,0.0,-42.0,100.0,-6.0,83.0,-965.0,67.0
35.0,-256.0,-7.0,-42.0,102.0,-6.0,94.0,-989.0,60.0
27.0,-255.0,-4.0,-39.0,108.0,-13.0,78.0,-989.0,56.0
28.0,-259.0,1.0,-40.0,112.0,-15.0,78.0,-989.0,66.0
13.0,-255.0,0.0,-37.0,119.0,-12.0,34.0,-996.0,70.0
15.0,-258.0,5.0,-30.0,119.0,-6.0,29.0,-975.0,80.0
17.0,-257.0,-1.0,-22.0,99.0,-2.0,42.0,-987.0,82.0
20.0,-255.0,2.0,-26.0,82.0,0.0,51.0,-979.0,81.0
21.0,-261.0,1.0,-34.0,73.0,2.0,55.0,-1003.0,82.0
20.0,-260.0,1.0,-36.0,71.0,0.0,50.0,-1002.0,80.0
21.0,-257.0,2.0,-23.0,71.0,-2.0,51.0,-998.0,71.0
21.0,-258.0,0.0,-1.0,74.0,-2.0,50.0,-987.0,71.0
21.0,-257.0,0.0,16.0,82.0,4.0,53.0,-986.0,69.0
18.0,-252.0,-2.0,28.0,90.0,4.0,35.0,-981.0,63.0
20.0,-252.0,-1.0,33.0,92.0,6.0,58.0,-972.0,64.0
27.0,-252.0,-1.0,36.0,89.0,2.0,73.0,-967.0,65.0
28.0,-250.0,-1.0,30.0,90.0,0.0,79.0,-968.0,63.0
25.0,-252.0,-4.0,16.0,99.0,-2.0,69.0,-969.0,62.0
22.0,-252.0,-1.0,1.0,108.0,0.0,60.0,-969.0,68.0
21.0,-252.0,-4.0,-6.0,110.0,-2.0,63.0,-975.0,70.0
24.0,-254.0,1.0,-9.0,105.0,0.0,58.0,-972.0,74.0
28.0,-257.0,1.0,-9.0,99.0,-4.0,64.0,-970.0,81.0
22.0,-252.0,0.0,-7.0,98.0,-5.0,66.0,-977.0,75.0
21.0,-252.0,3.0,-7.0,96.0,-10.0,63.0,-975.0,74.0
21.0,-257.0,2.0,-6.0,93.0,-10.0,54.0,-980.0,82.0
21.0,-259.0,0.0,-3.0,88.0,-13.0,56.0,-991.0,77.0
27.0,-255.0,6.0,5.0,81.0,-12.0,66.0,-977.0,78.0
25.0,-255.0,4.0,9.0,79.0,-18.0,73.0,-976.0,74.0
24.0,-252.0,-2.0,8.0,85.0,-17.0,55.0,-977.0,74.0
18.0,-253.0,0.0,5.0,90.0,-19.0,52.0,-979.0,77.0
18.0,-256.0,2.0,2.0,93.0,-17.0,49.0,-984.0,80.0
20.0,-257.0,2.0,3.0,90.0,-16.0,43.0,-981.0,72.0
17.0,-256.0,1.0,7.0,87.0,-13.0,51.0,-977.0,71.0
20.0,-254.0,-2.0,11.0,83.0,-15.0,41.0,-977.0,67.0
18.0,-251.0,1.0,11.0,77.0,-11.0,58.0,-970.0,67.0
22.0,-252.0,-3.0,10.0,79.0,-17.0,57.0,-968.0,69.0
20.0,-254.0,-4.0,4.0,80.0,-15.0,50.0,-970.0,73.0
17.0,-254.0,2.0,-3.0,86.0,-15.0,45.0,-972.0,73.0
19.0,-254.0,0.0,-9.0,89.0,-11.0,39.0,-971.0,73.0
19.0,-256.0,3.0,-12.0,89.0,-10.0,52.0,-985.0,70.0
19.0,-250.0,0.0,-17.0,87.0,-10.0,48.0,-971.0,72.0
21.0,-256.0,-2.0,-18.0,87.0,-7.0,39.0,-973.0,66.0
15.0,-254.0,1.0,-15.0,89.0,-5.0,41.0,-975.0,72.0
18.0,-254.0,1.0,-12.0,82.0,-7.0,52.0,-978.0,73.0
19.0,-252.0,-1.0,-14.0,75.0,-4.0,52.0,-978.0,72.0
20.0,-253.0,2.0,-16.0,78.0,-7.0,54.0,-978.0,72.0
22.0,-254.0,-1.0,-17.0,78.0,-5.0,49.0,-983.0,66.0
17.0,-254.0,2.0,-19.0,77.0,-6.0,44.0,-982.0,70.0
20.0,-257.0,3.0,-18.0,79.0,-2.0,53.0,-979.0,69.0
21.0,-256.0,-1.0,-14.0,78.0,-4.0,50.0,-985.0,68.0
22.0,-257.0,0.0,-12.0,79.0,-1.0,55.0,-978.0,71.0
23.0,-257.0,-2.0,-9.0,80.0,-4.0,42.0,-975.0,65.0
21.0,-252.0,-1.0,-9.0,77.0,-2.0,46.0,-984.0,70.0
19.0,-255.0,-3.0,-10.0,75.0,-4.0,51.0,-979.0,72.0
19.0,-255.0,-1.0,-11.0,74.0,-1.0,53.0,-977.0,69.0
21.0,-253.0,0.0,-11.0,74.0,-2.0,52.0,-976.0,69.0
21.0,-255.0,-4.0,-10.0,74.0,1.0,52.0,-975.0,67.0
20.0,-253.0,-2.0,-12.0,72.0,-2.0,56.0,-973.0,71.0
21.0,-256.0,2.0,-15.0,73.0,1.0,55.0,-975.0,69.0
19.0,-255.0,0.0,-18.0,71.0,-3.0,52.0,-975.0,74.0
21.0,-253.0,-2.0,-20.0,70.0,-1.0,52.0,-972.0,72.0
23.0,-255.0,2.0,-22.0,69.0,-2.0,47.0,-981.0,74.0
19.0,-255.0,0.0,-21.0,70.0,0.0,46.0,-975.0,76.0
19.0,-252.0,0.0,-18.0,69.0,-2.0,51.0,-977.0,72.0
17.0,-255.0,1.0,-14.0,72.0,0.0,53.0,-975.0,76.0
21.0,-257.0,2.0,-12.0,71.0,-1.0,46.0,-984.0,71.0
21.0,-254.0,4.0,-11.0,71.0,1.0,45.0,-979.0,72.0
20.0,-256.0,3.0,-10.0,73.0,2.0,41.0,-977.0,74.0
19.0,-256.0,3.0,-7.0,72.0,3.0,42.0,-980.0,71.0
19.0,-256.0,3.0,-6.0,73.0,3.0,48.0,-988.0,77.0
23.0,-251.0,1.0,-6.0,73.0,4.0,52.0,-980.0,81.0
18.0,-257.0,2.0,-7.0,75.0,2.0,53.0,-980.0,82.0
21.0,-257.0,2.0,-5.0,79.0,4.0,48.0,-988.0,80.0
19.0,-257.0,4.0,-5.0,81.0,4.0,45.0,-986.0,82.0
19.0,-256.0,3.0,-3.0,80.0,5.0,46.0,-985.0,79.0
19.0,-257.0,0.0,-1.0,81.0,7.0,44.0,-990.0,82.0
23.0,-256.0,5.0,1.0,82.0,10.0,47.0,-980.0,81.0
20.0,-254.0,3.0,3.0,82.0,10.0,47.0,-987.0,80.0
19.0,-257.0,1.0,3.0,81.0,13.0,49.0,-977.0,77.0
21.0,-253.0,1.0,6.0,81.0,12.0,50.0,-981.0,81.0
23.0,-253.0,6.0,8.0,79.0,15.0,56.0,-973.0,78.0
19.0,-255.0,5.0,8.0,78.0,14.0,49.0,-970.0,82.0
19.0,-253.0,7.0,6.0,76.0,14.0,51.0,-972.0,82.0
20.0,-251.0,4.0,3.0,76.0,14.0,52.0,-969.0,83.0
18.0,-252.0,4.0,1.0,75.0,13.0,54.0,-975.0,82.0
19.0,-251.0,3.0,-2.0,77.0,13.0,55.0,-965.0,84.0
23.0,-256.0,3.0,-5.0,77.0,13.0,52.0,-982.0,81.0
21.0,-253.0,2.0,-9.0,77.0,11.0,48.0,-970.0,86.0
22.0,-251.0,5.0,-12.0,77.0,12.0,53.0,-968.0,83.0
20.0,-253.0,6.0,-14.0,76.0,11.0,53.0,-970.0,86.0
22.0,-255.0,3.0,-15.0,77.0,10.0,45.0,-974.0,85.0
19.0,-254.0,1.0,-18.0,75.0,10.0,48.0,-974.0,88.0
18.0,-255.0,8.0,-17.0,73.0,8.0,44.0,-971.0,86.0
18.0,-254.0,4.0,-17.0,72.0,7.0,45.0,-978.0,85.0
23.0,-256.0,2.0,-16.0,73.0,7.0,51.0,-977.0,88.0
20.0,-255.0,1.0,-15.0,71.0,8.0,46.0,-977.0,80.0
19.0,-252.0,5.0,-12.0,70.0,10.0,43.0,-977.0,80.0
18.0,-253.0,4.0,-10.0,69.0,9.0,51.0,-974.0,79.0
20.0,-256.0,5.0,-6.0,67.0,11.0,50.0,-976.0,86.0
21.0,-255.0,4.0,-7.0,67.0,14.0,51.0,-972.0,82.0
21.0,-254.0,2.0,-7.0,65.0,14.0,57.0,-975.0,86.0
22.0,-253.0,0.0,-6.0,64.0,13.0,54.0,-974.0,83.0
21.0,-251.0,4.0,-7.0,65.0,12.0,46.0,-975.0,78.0
20.0,-252.0,3.0,-11.0,63.0,15.0,50.0,-976.0,79.0
16.0,-256.0,1.0,-13.0,64.0,14.0,41.0,-974.0,81.0
20.0,-253.0,7.0,-12.0,59.0,16.0,53.0,-977.0,85.0
22.0,-251.0,2.0,-10.0,57.0,14.0,57.0,-973.0,81.0
24.0,-253.0,0.0,-11.0,58.0,13.0,57.0,-970.0,78.0
20.0,-254.0,1.0,-16.0,59.0,13.0,45.0,-975.0,73.0
8.0,-256.0,1.0,-16.0,55.0,13.0,11.0,-989.0,77.0
16.0,-257.0,-1.0,-20.0,46.0,19.0,28.0,-983.0,78.0
19.0,-254.0,3.0,-14.0,36.0,18.0,41.0,-983.0,75.0
32.0,-255.0,6.0,-8.0,28.0,17.0,80.0,-974.0,82.0
36.0,-255.0,0.0,-3.0,35.0,12.0,100.0,-976.0,81.0
27.0,-252.0,4.0,-7.0,62.0,6.0,67.0,-977.0,82.0
20.0,-255.0,3.0,-16.0,83.0,10.0,55.0,-983.0,92.0
20.0,-258.0,6.0,-17.0,88.0,12.0,56.0,-989.0,92.0
21.0,-257.0,2.0,-14.0,84.0,14.0,62.0,-1001.0,91.0
22.0,-256.0,7.0,-12.0,80.0,13.0,56.0,-991.0,96.0
22.0,-257.0,4.0,-12.0,74.0,15.0,58.0,-987.0,90.0
23.0,-255.0,2.0,-9.0,67.0,13.0,64.0,-979.0,90.0
22.0,-255.0,5.0,-1.0,63.0,14.0,54.0,-979.0,84.0
22.0,-256.0,3.0,9.0,60.0,11.0,51.0,-979.0,77.0
16.0,-255.0,-1.0,17.0,58.0,17.0,31.0,-987.0,71.0
19.0,-253.0,3.0,20.0,58.0,18.0,52.0,-969.0,74.0
17.0,-252.0,2.0,20.0,57.0,17.0,45.0,-974.0,64.0
17.0,-254.0,1.0,15.0,57.0,12.0,27.0,-970.0,72.0
27.0,-253.0,6.0,4.0,54.0,18.0,80.0,-966.0,88.0
34.0,-251.0,0.0,2.0,57.0,6.0,100.0,-961.0,83.0
26.0,-253.0,3.0,-4.0,75.0,3.0,71.0,-967.0,86.0
26.0,-256.0,7.0,-14.0,92.0,4.0,63.0,-970.0,97.0
27.0,-256.0,9.0,-15.0,99.0,11.0,70.0,-974.0,90.0
28.0,-255.0,1.0,-15.0,99.0,9.0,68.0,-976.0,89.0
23.0,-255.0,5.0,-19.0,97.0,11.0,71.0,-975.0,85.0
24.0,-255.0,8.0,-23.0,94.0,9.0,63.0,-986.0,91.0
22.0,-257.0,4.0,-24.0,90.0,11.0,63.0,-984.0,85.0
25.0,-254.0,7.0,-19.0,87.0,8.0,57.0,-979.0,84.0
22.0,-257.0,5.0,-10.0,84.0,11.0,58.0,-979.0,79.0
22.0,-257.0,3.0,-3.0,82.0,9.0,55.0,-987.0,73.0
20.0,-256.0,4.0,0.0,80.0,10.0,52.0,-988.0,72.0
22.0,-258.0,4.0,0.0,81.0,8.0,51.0,-983.0,72.0
22.0,-255.0,0.0,-4.0,84.0,11.0,51.0,-984.0,85.0
18.0,-254.0,3.0,-6.0,86.0,10.0,52.0,-988.0,78.0
19.0,-256.0,5.0,-7.0,86.0,12.0,54.0,-980.0,80.0
20.0,-256.0,4.0,-8.0,86.0,8.0,53.0,-991.0,86.0
20.0,-255.0,5.0,-9.0,86.0,11.0,46.0,-981.0,85.0
19.0,-255.0,2.0,-10.0,85.0,8.0,54.0,-977.0,80.0
22.0,-256.0,3.0,-9.0,86.0,10.0,49.0,-982.0,81.0
18.0,-255.0,7.0,-5.0,88.0,8.0,51.0,-977.0,84.0
22.0,-254.0,5.0,1.0,88.0,11.0,52.0,-985.0,81.0
22.0,-253.0,0.0,6.0,91.0,10.0,59.0,-977.0,81.0
22.0,-256.0,6.0,11.0,92.0,11.0,55.0,-978.0,72.0
24.0,-254.0,7.0,12.0,93.0,8.0,57.0,-973.0,74.0
22.0,-254.0,-1.0,14.0,95.0,11.0,58.0,-970.0,79.0
22.0,-252.0,-2.0,15.0,95.0,9.0,58.0,-972.0,72.0
23.0,-252.0,0.0,10.0,96.0,11.0,52.0,-974.0,73.0
23.0,-253.0,2.0,5.0,95.0,8.0,60.0,-969.0,75.0
24.0,-253.0,0.0,-1.0,94.0,9.0,56.0,-973.0,74.0
23.0,-255.0,-1.0,-5.0,93.0,8.0,52.0,-977.0,75.0
20.0,-253.0,-1.0,-9.0,90.0,10.0,53.0,-970.0,73.0
20.0,-253.0,-1.0,-13.0,90.0,7.0,52.0,-976.0,74.0
24.0,-253.0,0.0,-13.0,89.0,9.0,59.0,-976.0,70.0
23.0,-256.0,5.0,-13.0,88.0,8.0,57.0,-974.0,71.0
23.0,-255.0,-1.0,-12.0,89.0,9.0,58.0,-973.0,73.0
20.0,-251.0,0.0,-13.0,90.0,7.0,56.0,-975.0,75.0
20.0,-256.0,5.0,-15.0,88.0,7.0,57.0,-975.0,74.0
20.0,-254.0,6.0,-15.0,89.0,6.0,55.0,-976.0,74.0
21.0,-251.0,5.0,-18.0,89.0,6.0,51.0,-973.0,78.0
20.0,-255.0,3.0,-20.0,92.0,3.0,57.0,-981.0,84.0
20.0,-257.0,9.0,-22.0,92.0,4.0,50.0,-993.0,81.0
20.0,-255.0,5.0,-20.0,93.0,2.0,53.0,-987.0,87.0
23.0,-257.0,1.0,-17.0,93.0,4.0,57.0,-993.0,81.0
22.0,-253.0,1.0,-13.0,93.0,2.0,59.0,-991.0,79.0
19.0,-255.0,1.0,-8.0,94.0,3.0,54.0,-984.0,76.0
21.0,-254.0,-4.0,-5.0,93.0,1.0,57.0,-980.0,73.0
23.0,-253.0,2.0,-3.0,92.0,1.0,54.0,-970.0,76.0
22.0,-252.0,-3.0,-1.0,89.0,0.0,54.0,-969.0,67.0
22.0,-251.0,-1.0,-3.0,87.0,-2.0,48.0,-963.0,70.0
23.0,-249.0,1.0,-7.0,85.0,-3.0,52.0,-964.0,66.0
22.0,-252.0,0.0,-13.0,85.0,-3.0,53.0,-961.0,69.0
17.0,-249.0,2.0,-17.0,86.0,-3.0,53.0,-967.0,71.0
21.0,-252.0,0.0,-21.0,88.0,-2.0,51.0,-971.0,74.0
21.0,-253.0,1.0,-24.0,91.0,-1.0,55.0,-975.0,75.0
21.0,-254.0,3.0,-26.0,94.0,-1.0,53.0,-969.0,77.0
25.0,-255.0,1.0,-26.0,96.0,0.0,50.0,-972.0,78.0
20.0,-253.0,1.0,-29.0,96.0,-1.0,53.0,-971.0,78.0
23.0,-255.0,4.0,-31.0,97.0,-1.0,52.0,-976.0,78.0
22.0,-254.0,2.0,-32.0,98.0,-1.0,53.0,-977.0,80.0
21.0,-256.0,4.0,-32.0,98.0,-1.0,57.0,-984.0,78.0
24.0,-256.0,3.0,-29.0,97.0,-2.0,54.0,-980.0,78.0
21.0,-253.0,0.0,-27.0,95.0,-3.0,51.0,-991.0,78.0
25.0,-259.0,4.0,-24.0,94.0,-3.0,50.0,-986.0,75.0
19.0,-252.0,3.0,-23.0,95.0,-3.0,51.0,-995.0,75.0
19.0,-254.0,-2.0,-24.0,94.0,-4.0,51.0,-975.0,74.0
20.0,-254.0,0.0,-25.0,91.0,-4.0,49.0,-992.0,76.0
17.0,-257.0,6.0,-25.0,91.0,-5.0,46.0,-978.0,81.0
21.0,-254.0,3.0,-23.0,93.0,-4.0,53.0,-986.0,75.0
17.0,-257.0,-1.0,-22.0,94.0,-5.0,44.0,-981.0,74.0
19.0,-255.0,6.0,-21.0,95.0,-6.0,45.0,-978.0,84.0
17.0,-255.0,4.0,-21.0,98.0,-6.0,49.0,-993.0,79.0
19.0,-256.0,3.0,-19.0,99.0,-5.0,47.0,-981.0,84.0
21.0,-255.0,5.0,-17.0,101.0,-7.0,54.0,-980.0,88.0
19.0,-255.0,2.0,-14.0,102.0,-5.0,48.0,-994.0,87.0
19.0,-253.0,6.0,-10.0,103.0,-6.0,51.0,-987.0,87.0
21.0,-256.0,9.0,-8.0,104.0,-4.0,49.0,-977.0,84.0
20.0,-254.0,6.0,-5.0,102.0,-5.0,50.0,-986.0,83.0
20.0,-256.0,7.0,-4.0,102.0,-3.0,52.0,-977.0,80.0
18.0,-256.0,2.0,-3.0,101.0,-3.0,45.0,-982.0,83.0
21.0,-254.0,4.0,-2.0,98.0,-2.0,52.0,-978.0,82.0
21.0,-253.0,0.0,-2.0,98.0,-4.0,50.0,-984.0,79.0
21.0,-257.0,0.0,-2.0,97.0,-2.0,52.0,-976.0,77.0
21.0,-255.0,4.0,-2.0,98.0,-3.0,51.0,-978.0,80.0
20.0,-255.0,0.0,-6.0,99.0,-2.0,55.0,-977.0,78.0
23.0,-256.0,5.0,-6.0,99.0,-3.0,55.0,-975.0,77.0
19.0,-252.0,1.0,-9.0,103.0,-2.0,55.0,-976.0,80.0
23.0,-255.0,5.0,-11.0,105.0,-2.0,57.0,-984.0,85.0
22.0,-255.0,5.0,-13.0,106.0,1.0,57.0,-978.0,85.0
19.0,-255.0,7.0,-14.0,106.0,-2.0,53.0,-975.0,92.0
19.0,-252.0,4.0,-12.0,105.0,1.0,49.0,-978.0,86.0
17.0,-252.0,4.0,-13.0,103.0,-1.0,49.0,-978.0,90.0
19.0,-254.0,5.0,-11.0,98.0,0.0,47.0,-978.0,83.0
16.0,-253.0,7.0,-11.0,95.0,-2.0,45.0,-976.0,87.0
19.0,-253.0,6.0,-12.0,91.0,-2.0,43.0,-976.0,83.0
20.0,-252.0,1.0,-15.0,89.0,-1.0,43.0,-973.0,87.0
20.0,-251.0,6.0,-18.0,88.0,0.0,44.0,-971.0,82.0
18.0,-253.0,5.0,-23.0,87.0,-2.0,45.0,-969.0,87.0
19.0,-252.0,-1.0,-28.0,89.0,-1.0,46.0,-971.0,78.0
18.0,-251.0,3.0,-35.0,89.0,-2.0,42.0,-968.0,73.0
22.0,-252.0,3.0,-41.0,88.0,1.0,44.0,-971.0,78.0
18.0,-251.0,4.0,-44.0,85.0,-1.0,45.0,-969.0,79.0
20.0,-254.0,3.0,-46.0,84.0,1.0,41.0,-974.0,77.0
20.0,-252.0,6.0,-48.0,80.0,-2.0,46.0,-971.0,75.0
17.0,-252.0,-1.0,-51.0,77.0,1.0,51.0,-974.0,77.0
18.0,-253.0,4.0,-53.0,74.0,-1.0,51.0,-972.0,78.0
19.0,-251.0,1.0,-54.0,72.0,1.0,49.0,-974.0,79.0
19.0,-253.0,-1.0,-56.0,70.0,-2.0,52.0,-978.0,74.0
19.0,-254.0,0.0,-58.0,68.0,0.0,55.0,-976.0,75.0
20.0,-253.0,-1.0,-59.0,68.0,-4.0,47.0,-978.0,71.0
18.0,-254.0,3.0,-57.0,67.0,-1.0,51.0,-975.0,73.0
20.0,-254.0,-3.0,-55.0,67.0,-4.0,51.0,-979.0,74.0
18.0,-253.0,-3.0,-51.0,66.0,-2.0,49.0,-973.0,75.0
22.0,-254.0,-2.0,-48.0,64.0,-3.0,53.0,-973.0,72.0
21.0,-257.0,-2.0,-49.0,65.0,-1.0,51.0,-979.0,74.0
22.0,-255.0,0.0,-48.0,64.0,-4.0,56.0,-981.0,69.0
21.0,-254.0,-1.0,-49.0,64.0,-2.0,52.0,-981.0,73.0
22.0,-255.0,1.0,-49.0,63.0,-2.0,56.0,-987.0,72.0
22.0,-255.0,4.0,-52.0,63.0,0.0,58.0,-981.0,74.0
23.0,-256.0,2.0,-53.0,63.0,-1.0,59.0,-982.0,69.0
21.0,-254.0,1.0,-53.0,64.0,-1.0,58.0,-988.0,80.0
17.0,-254.0,0.0,-51.0,65.0,-6.0,52.0,-988.0,74.0
21.0,-257.0,-1.0,-51.0,66.0,-3.0,54.0,-990.0,72.0
24.0,-257.0,1.0,-50.0,65.0,-6.0,55.0,-990.0,69.0
20.0,-256.0,3.0,-49.0,64.0,-4.0,57.0,-979.0,70.0
21.0,-253.0,4.0,-49.0,65.0,-5.0,58.0,-989.0,67.0
23.0,-255.0,-2.0,-52.0,62.0,-3.0,59.0,-990.0,64.0
22.0,-256.0,-3.0,-55.0,60.0,-5.0,60.0,-974.0,64.0
24.0,-254.0,-4.0,-59.0,59.0,-4.0,59.0,-978.0,63.0
25.0,-253.0,-1.0,-63.0,56.0,-6.0,62.0,-983.0,63.0
22.0,-256.0,-2.0,-68.0,55.0,-3.0,60.0,-982.0,61.0
21.0,-255.0,-1.0,-72.0,55.0,-5.0,56.0,-976.0,64.0
23.0,-257.0,-3.0,-72.0,55.0,-5.0,57.0,-980.0,59.0
23.0,-254.0,-2.0,-72.0,55.0,-5.0,57.0,-987.0,57.0
23.0,-256.0,-5.0,-71.0,56.0,-4.0,59.0,-981.0,56.0
21.0,-253.0,-7.0,-69.0,57.0,-4.0,58.0,-981.0,56.0
21.0,-255.0,-6.0,-67.0,59.0,-3.0,60.0,-997.0,55.0
25.0,-258.0,-3.0,-67.0,60.0,-3.0,57.0,-986.0,59.0
21.0,-256.0,-3.0,-66.0,61.0,-3.0,57.0,-997.0,61.0
19.0,-255.0,-2.0,-63.0,61.0,-4.0,52.0,-989.0,61.0
23.0,-254.0,-4.0,-57.0,62.0,-2.0,54.0,-988.0,57.0
21.0,-255.0,-2.0,-53.0,62.0,-2.0,53.0,-986.0,58.0
22.0,-256.0,-2.0,-49.0,61.0,-3.0,54.0,-976.0,64.0
20.0,-253.0,-7.0,-47.0,62.0,-4.0,49.0,-974.0,62.0
23.0,-252.0,-4.0,-48.0,64.0,-4.0,51.0,-979.0,63.0
20.0,-253.0,-2.0,-46.0,65.0,-3.0,51.0,-972.0,65.0
21.0,-253.0,2.0,-47.0,66.0,-4.0,54.0,-979.0,70.0
21.0,-254.0,-2.0,-47.0,66.0,-5.0,55.0,-978.0,63.0
21.0,-255.0,-3.0,-46.0,70.0,-5.0,54.0,-979.0,66.0
21.0,-254.0,-2.0,-48.0,73.0,-6.0,49.0,-985.0,64.0
20.0,-257.0,-1.0,-49.0,77.0,-5.0,51.0,-975.0,61.0
23.0,-258.0,-2.0,-49.0,79.0,-8.0,52.0,-979.0,59.0
21.0,-254.0,-4.0,-49.0,80.0,-9.0,58.0,-974.0,63.0
23.0,-253.0,-3.0,-49.0,79.0,-8.0,53.0,-986.0,60.0
23.0,-256.0,-1.0,-47.0,81.0,-11.0,56.0,-988.0,62.0
20.0,-257.0,-1.0,-42.0,82.0,-11.0,54.0,-992.0,67.0
22.0,-256.0,-3.0,-38.0,82.0,-12.0,50.0,-995.0,56.0
22.0,-254.0,-1.0,-32.0,82.0,-11.0,55.0,-979.0,59.0
18.0,-255.0,-5.0,-30.0,81.0,-12.0,49.0,-973.0,59.0
20.0,-255.0,-3.0,-26.0,79.0,-12.0,47.0,-974.0,62.0
21.0,-256.0,-4.0,-27.0,79.0,-12.0,49.0,-976.0,63.0
18.0,-252.0,0.0,-31.0,79.0,-11.0,51.0,-975.0,69.0
24.0,-257.0,0.0,-32.0,77.0,-13.0,55.0,-972.0,68.0
23.0,-252.0,-3.0,-35.0,77.0,-11.0,60.0,-972.0,66.0
17.0,-252.0,-2.0,-38.0,79.0,-12.0,43.0,-972.0,61.0
16.0,-252.0,-2.0,-37.0,85.0,-10.0,30.0,-972.0,65.0
18.0,-254.0,-3.0,-38.0,84.0,-10.0,39.0,-966.0,64.0
16.0,-254.0,-2.0,-38.0,80.0,-7.0,38.0,-972.0,60.0
17.0,-252.0,0.0,-40.0,76.0,-8.0,39.0,-972.0,62.0
18.0,-254.0,-3.0,-42.0,75.0,-6.0,41.0,-976.0,61.0
18.0,-254.0,1.0,-42.0,74.0,-8.0,41.0,-979.0,62.0
16.0,-253.0,1.0,-41.0,73.0,-6.0,37.0,-976.0,62.0
15.0,-254.0,-4.0,-37.0,72.0,-8.0,39.0,-977.0,63.0
17.0,-256.0,-5.0,-35.0,71.0,-7.0,42.0,-986.0,64.0
18.0,-255.0,2.0,-35.0,70.0,-8.0,40.0,-986.0,58.0
16.0,-255.0,1.0,-37.0,68.0,-8.0,37.0,-988.0,59.0
15.0,-255.0,-3.0,-39.0,66.0,-11.0,42.0,-979.0,60.0
20.0,-257.0,0.0,-41.0,65.0,-7.0,42.0,-979.0,69.0
19.0,-255.0,3.0,-41.0,63.0,-8.0,40.0,-989.0,61.0
17.0,-255.0,-5.0,-41.0,58.0,-6.0,33.0,-977.0,59.0
19.0,-256.0,-5.0,-40.0,56.0,-6.0,40.0,-985.0,59.0
19.0,-254.0,-6.0,-36.0,53.0,-2.0,43.0,-987.0,58.0
17.0,-255.0,-4.0,-32.0,53.0,-3.0,42.0,-973.0,52.0
20.0,-253.0,-4.0,-29.0,52.0,-1.0,38.0,-976.0,59.0
19.0,-255.0,-7.0,-29.0,49.0,-3.0,40.0,-976.0,54.0
21.0,-256.0,-6.0,-29.0,47.0,-1.0,40.0,-979.0,50.0
17.0,-253.0,-5.0,-30.0,44.0,-3.0,43.0,-985.0,59.0
17.0,-254.0,-1.0,-33.0,44.0,0.0,43.0,-987.0,64.0
19.0,-255.0,-3.0,-33.0,43.0,-3.0,39.0,-985.0,63.0
21.0,-255.0,0.0,-35.0,44.0,-1.0,40.0,-980.0,59.0
19.0,-257.0,1.0,-35.0,46.0,-2.0,43.0,-989.0,69.0
16.0,-256.0,2.0,-32.0,46.0,2.0,43.0,-992.0,67.0
19.0,-254.0,-1.0,-29.0,45.0,-1.0,49.0,-980.0,70.0
15.0,-253.0,-3.0,-27.0,47.0,1.0,49.0,-985.0,67.0
22.0,-258.0,-3.0,-25.0,48.0,-1.0,49.0,-982.0,63.0
19.0,-256.0,-2.0,-22.0,47.0,1.0,48.0,-978.0,62.0
19.0,-257.0,-6.0,-22.0,47.0,-2.0,48.0,-986.0,58.0
18.0,-252.0,-5.0,-20.0,47.0,0.0,45.0,-978.0,60.0
20.0,-252.0,-1.0,-17.0,47.0,-5.0,49.0,-976.0,57.0
19.0,-252.0,-1.0,-18.0,45.0,-2.0,44.0,-974.0,57.0
21.0,-254.0,-6.0,-18.0,45.0,-4.0,47.0,-976.0,56.0
20.0,-256.0,-1.0,-20.0,45.0,-2.0,50.0,-979.0,55.0
19.0,-254.0,-5.0,-22.0,46.0,-4.0,45.0,-981.0,54.0
21.0,-255.0,-4.0,-24.0,48.0,-1.0,47.0,-981.0,60.0
16.0,-255.0,-4.0,-23.0,50.0,-4.0,48.0,-975.0,53.0
21.0,-257.0,-7.0,-22.0,51.0,1.0,43.0,-977.0,55.0
21.0,-254.0,-4.0,-21.0,53.0,-1.0,44.0,-972.0,57.0
23.0,-255.0,-8.0,-19.0,54.0,1.0,46.0,-973.0,56.0
18.0,-252.0,-7.0,-20.0,56.0,0.0,45.0,-972.0,51.0
19.0,-253.0,-6.0,-19.0,57.0,2.0,46.0,-975.0,54.0
19.0,-253.0,-5.0,-18.0,56.0,0.0,50.0,-974.0,54.0
22.0,-256.0,-6.0,-19.0,58.0,3.0,46.0,-975.0,57.0
19.0,-254.0,-5.0,-18.0,57.0,1.0,51.0,-973.0,53.0
18.0,-254.0,-5.0,-18.0,56.0,4.0,47.0,-972.0,55.0
18.0,-254.0,-6.0,-17.0,55.0,3.0,47.0,-976.0,53.0
19.0,-251.0,-8.0,-17.0,54.0,4.0,46.0,-979.0,56.0
19.0,-254.0,-5.0,-17.0,54.0,2.0,49.0,-974.0,54.0
20.0,-253.0,-3.0,-16.0,55.0,3.0,48.0,-975.0,54.0
19.0,-254.0,-6.0,-18.0,57.0,1.0,49.0,-979.0,57.0
18.0,-254.0,-3.0,-19.0,58.0,2.0,43.0,-978.0,57.0
18.0,-253.0,2.0,-18.0,61.0,-1.0,47.0,-979.0,58.0
20.0,-253.0,-4.0,-17.0,63.0,2.0,45.0,-981.0,59.0
19.0,-254.0,-2.0,-14.0,65.0,0.0,45.0,-996.0,58.0
19.0,-252.0,-7.0,-11.0,65.0,0.0,46.0,-991.0,58.0
21.0,-256.0,-4.0,-9.0,64.0,-1.0,48.0,-980.0,52.0
23.0,-257.0,-5.0,-6.0,63.0,1.0,47.0,-992.0,53.0
21.0,-257.0,-1.0,-2.0,62.0,-1.0,51.0,-979.0,52.0
20.0,-255.0,-4.0,-2.0,61.0,0.0,52.0,-977.0,53.0
21.0,-256.0,-6.0,-1.0,59.0,0.0,43.0,-984.0,53.0
19.0,-257.0,-2.0,-1.0,58.0,2.0,51.0,-986.0,56.0
18.0,-254.0,-6.0,-1.0,58.0,1.0,50.0,-978.0,57.0
17.0,-252.0,-1.0,0.0,59.0,3.0,49.0,-976.0,56.0
18.0,-255.0,2.0,0.0,58.0,1.0,47.0,-983.0,57.0
20.0,-258.0,-2.0,-3.0,59.0,2.0,47.0,-978.0,58.0
19.0,-256.0,-6.0,-2.0,62.0,2.0,48.0,-978.0,59.0
20.0,-257.0,-4.0,0.0,64.0,4.0,47.0,-982.0,56.0
22.0,-257.0,-2.0,0.0,64.0,4.0,50.0,-978.0,64.0
19.0,-252.0,-3.0,0.0,66.0,5.0,48.0,-974.0,63.0
19.0,-253.0,-5.0,0.0,65.0,5.0,43.0,-973.0,59.0
19.0,-252.0,-4.0,1.0,63.0,5.0,49.0,-976.0,58.0
20.0,-253.0,-2.0,-2.0,62.0,3.0,53.0,-976.0,63.0
20.0,-253.0,-4.0,-4.0,60.0,4.0,47.0,-971.0,59.0
19.0,-254.0,-5.0,-5.0,59.0,4.0,51.0,-977.0,57.0
22.0,-253.0,-3.0,-7.0,56.0,4.0,46.0,-973.0,56.0
19.0,-253.0,-3.0,-9.0,55.0,3.0,46.0,-976.0,57.0
19.0,-254.0,-5.0,-10.0,55.0,2.0,43.0,-975.0,55.0
18.0,-254.0,-5.0,-14.0,53.0,3.0,46.0,-972.0,53.0
18.0,-254.0,-2.0,-15.0,53.0,3.0,39.0,-973.0,57.0
19.0,-254.0,-7.0,-12.0,53.0,3.0,41.0,-976.0,56.0
21.0,-255.0,-7.0,-12.0,53.0,2.0,52.0,-982.0,59.0
21.0,-254.0,-4.0,-12.0,54.0,3.0,52.0,-977.0,59.0
13.0,-256.0,23.0,-12.0,55.0,1.0,46.0,-981.0,56.0
6.0,-256.0,2.0,-12.0,55.0,2.0,43.0,-980.0,57.0
31.0,-252.0,-8.0,-10.0,56.0,1.0,50.0,-979.0,56.0
3.0,-250.0,-10.0,-9.0,56.0,1.0,38.0,-982.0,55.0
23.0,-256.0,-4.0,-7.0,52.0,0.0,50.0,-981.0,68.0
20.0,-255.0,14.0,-6.0,50.0,1.0,57.0,-977.0,63.0
20.0,-259.0,-9.0,-4.0,55.0,-1.0,54.0,-976.0,61.0
21.0,-255.0,-3.0,-3.0,60.0,-1.0,55.0,-977.0,50.0
20.0,-257.0,0.0,-6.0,63.0,-1.0,58.0,-978.0,60.0
23.0,-257.0,-7.0,-9.0,64.0,1.0,48.0,-986.0,54.0
19.0,-259.0,-9.0,-11.0,64.0,-3.0,40.0,-991.0,49.0
20.0,-253.0,-8.0,-12.0,61.0,-3.0,55.0,-987.0,58.0
27.0,-255.0,-3.0,-10.0,61.0,-5.0,63.0,-978.0,58.0
25.0,-254.0,-5.0,-10.0,64.0,-3.0,67.0,-979.0,57.0
19.0,-255.0,-4.0,-10.0,69.0,-6.0,52.0,-977.0,56.0
21.0,-255.0,-5.0,-9.0,70.0,-3.0,47.0,-975.0,57.0
22.0,-256.0,-5.0,-10.0,67.0,-5.0,51.0,-977.0,55.0
18.0,-255.0,-5.0,-14.0,64.0,-2.0,47.0,-983.0,58.0
17.0,-254.0,-4.0,-17.0,62.0,-3.0,44.0,-981.0,57.0
18.0,-258.0,-6.0,-17.0,61.0,0.0,42.0,-985.0,61.0
20.0,-256.0,-2.0,-14.0,60.0,-3.0,43.0,-990.0,60.0
21.0,-255.0,-5.0,-9.0,58.0,0.0,46.0,-981.0,60.0
18.0,-256.0,-5.0,-2.0,56.0,-2.0,45.0,-982.0,53.0
19.0,-256.0,-8.0,2.0,55.0,1.0,44.0,-980.0,59.0
19.0,-256.0,-5.0,4.0,56.0,-1.0,50.0,-978.0,57.0
18.0,-253.0,-1.0,5.0,58.0,1.0,43.0,-980.0,59.0
21.0,-257.0,-5.0,2.0,60.0,-1.0,43.0,-978.0,57.0
23.0,-255.0,-1.0,-2.0,62.0,1.0,46.0,-977.0,63.0
19.0,-253.0,-2.0,-6.0,65.0,-1.0,46.0,-978.0,65.0
20.0,-253.0,-2.0,-11.0,65.0,1.0,46.0,-976.0,66.0
20.0,-257.0,-2.0,-12.0,66.0,-1.0,42.0,-983.0,65.0
20.0,-254.0,-2.0,-11.0,68.0,0.0,48.0,-980.0,68.0
20.0,-259.0,-1.0,-10.0,69.0,-2.0,44.0,-978.0,62.0
19.0,-255.0,-1.0,-7.0,70.0,1.0,45.0,-974.0,60.0
20.0,-256.0,-3.0,-6.0,68.0,-2.0,44.0,-976.0,62.0
19.0,-255.0,-2.0,-5.0,67.0,0.0,43.0,-977.0,63.0
16.0,-256.0,-2.0,-4.0,66.0,-2.0,41.0,-974.0,62.0
17.0,-253.0,-2.0,-1.0,65.0,0.0,41.0,-980.0,68.0
19.0,-253.0,-5.0,2.0,64.0,-3.0,43.0,-976.0,65.0
19.0,-253.0,-3.0,5.0,65.0,-2.0,46.0,-979.0,69.0
19.0,-254.0,-4.0,7.0,65.0,-4.0,43.0,-977.0,64.0
21.0,-255.0,1.0,7.0,66.0,0.0,44.0,-977.0,66.0
20.0,-255.0,-5.0,6.0,66.0,0.0,41.0,-983.0,66.0
22.0,-254.0,-5.0,4.0,65.0,5.0,42.0,-980.0,60.0
20.0,-255.0,-8.0,1.0,64.0,2.0,45.0,-980.0,63.0
17.0,-255.0,-2.0,-3.0,60.0,5.0,47.0,-975.0,62.0
22.0,-257.0,-2.0,-7.0,64.0,1.0,47.0,-987.0,57.0
20.0,-258.0,-4.0,-6.0,66.0,2.0,45.0,-980.0,59.0
17.0,-254.0,-2.0,-6.0,69.0,0.0,39.0,-983.0,63.0
18.0,-255.0,-1.0,-5.0,71.0,4.0,40.0,-980.0,64.0
18.0,-256.0,0.0,-3.0,71.0,2.0,43.0,-977.0,62.0
19.0,-252.0,1.0,-1.0,69.0,5.0,43.0,-976.0,64.0
17.0,-255.0,0.0,-2.0,67.0,4.0,45.0,-976.0,59.0
18.0,-253.0,-4.0,-2.0,65.0,7.0,44.0,-974.0,65.0
17.0,-253.0,-4.0,-3.0,63.0,6.0,44.0,-973.0,60.0
18.0,-254.0,0.0,-3.0,63.0,9.0,46.0,-973.0,59.0
18.0,-253.0,-6.0,-5.0,62.0,8.0,45.0,-973.0,57.0
17.0,-252.0,-6.0,-6.0,62.0,9.0,45.0,-973.0,54.0
17.0,-253.0,-3.0,-8.0,63.0,7.0,41.0,-974.0,55.0
17.0,-255.0,-3.0,-11.0,65.0,8.0,44.0,-978.0,57.0
17.0,-254.0,-6.0,-11.0,65.0,7.0,42.0,-979.0,58.0
22.0,-256.0,-3.0,-13.0,62.0,9.0,41.0,-995.0,54.0
18.0,-256.0,2.0,-15.0,61.0,6.0,43.0,-992.0,64.0
15.0,-255.0,4.0,-13.0,62.0,7.0,38.0,-994.0,65.0
17.0,-257.0,-5.0,-10.0,60.0,7.0,42.0,-983.0,60.0
20.0,-259.0,-9.0,-5.0,59.0,7.0,40.0,-987.0,63.0
16.0,-256.0,-3.0,-2.0,57.0,6.0,32.0,-979.0,62.0
17.0,-253.0,-5.0,5.0,58.0,9.0,39.0,-974.0,58.0
17.0,-253.0,0.0,8.0,56.0,8.0,45.0,-979.0,60.0
20.0,-255.0,-4.0,7.0,53.0,7.0,45.0,-975.0,56.0
19.0,-255.0,-5.0,5.0,54.0,5.0,43.0,-977.0,62.0
19.0,-254.0,-6.0,1.0,57.0,5.0,43.0,-978.0,56.0
21.0,-255.0,-4.0,0.0,57.0,3.0,40.0,-978.0,55.0
19.0,-254.0,-1.0,-2.0,57.0,4.0,44.0,-972.0,61.0
21.0,-257.0,-4.0,-3.0,56.0,5.0,39.0,-974.0,58.0
17.0,-253.0,-3.0,-5.0,52.0,6.0,46.0,-977.0,59.0
20.0,-257.0,-4.0,-8.0,55.0,7.0,41.0,-977.0,58.0
18.0,-256.0,-4.0,-8.0,54.0,10.0,44.0,-975.0,60.0
19.0,-254.0,-2.0,-11.0,53.0,10.0,40.0,-974.0,59.0
18.0,-252.0,-2.0,-12.0,52.0,11.0,40.0,-971.0,61.0
20.0,-253.0,-3.0,-12.0,52.0,11.0,43.0,-974.0,60.0
21.0,-254.0,-1.0,-13.0,53.0,11.0,45.0,-974.0,62.0
21.0,-254.0,-6.0,-15.0,54.0,10.0,45.0,-974.0,56.0
19.0,-256.0,-3.0,-16.0,54.0,10.0,42.0,-988.0,53.0
20.0,-254.0,-2.0,-20.0,56.0,13.0,45.0,-976.0,57.0
21.0,-255.0,-1.0,-21.0,57.0,13.0,48.0,-978.0,63.0
21.0,-254.0,-1.0,-17.0,57.0,12.0,44.0,-974.0,68.0
19.0,-252.0,3.0,-13.0,59.0,12.0,43.0,-970.0,66.0
20.0,-252.0,-2.0,-12.0,60.0,12.0,51.0,-973.0,61.0
20.0,-256.0,2.0,-14.0,60.0,10.0,51.0,-975.0,58.0
20.0,-255.0,-5.0,-20.0,59.0,8.0,47.0,-983.0,61.0
