acc1_x,acc1_y,acc1_z,gyro_x,gyro_y,gyro_z,acc2_x,acc2_y,acc2_z
18.0,-254.0,4.0,-51.0,65.0,-16.0,40.0,-977.0,86.0
19.0,-253.0,2.0,-52.0,66.0,-15.0,49.0,-979.0,89.0
19.0,-256.0,5.0,-52.0,66.0,-15.0,39.0,-970.0,94.0
18.0,-253.0,8.0,-54.0,68.0,-15.0,46.0,-976.0,90.0
18.0,-249.0,7.0,-55.0,68.0,-16.0,44.0,-965.0,89.0
17.0,-251.0,4.0,-56.0,68.0,-14.0,45.0,-967.0,91.0
18.0,-250.0,8.0,-54.0,65.0,-14.0,43.0,-961.0,88.0
15.0,-249.0,4.0,-56.0,63.0,-14.0,43.0,-961.0,88.0
20.0,-249.0,5.0,-58.0,61.0,-14.0,39.0,-957.0,90.0
16.0,-246.0,4.0,-64.0,56.0,-14.0,40.0,-947.0,86.0
15.0,-245.0,4.0,-75.0,53.0,-15.0,34.0,-944.0,82.0
15.0,-245.0,0.0,-86.0,50.0,-17.0,36.0,-939.0,78.0
16.0,-241.0,1.0,-98.0,48.0,-18.0,31.0,-933.0,81.0
13.0,-242.0,2.0,-111.0,47.0,-21.0,26.0,-927.0,81.0
13.0,-241.0,5.0,-126.0,46.0,-23.0,24.0,-931.0,78.0
11.0,-242.0,-1.0,-142.0,47.0,-24.0,15.0,-928.0,79.0
11.0,-242.0,0.0,-161.0,45.0,-26.0,12.0,-926.0,74.0
10.0,-242.0,-2.0,-180.0,39.0,-26.0,13.0,-929.0,68.0
10.0,-240.0,-2.0,-200.0,33.0,-26.0,7.0,-925.0,66.0
9.0,-243.0,-4.0,-220.0,24.0,-29.0,6.0,-926.0,66.0
6.0,-244.0,-3.0,-239.0,16.0,-28.0,-6.0,-926.0,69.0
3.0,-241.0,2.0,-254.0,7.0,-29.0,-17.0,-923.0,72.0
1.0,-240.0,1.0,-266.0,0.0,-27.0,-27.0,-925.0,80.0
-3.0,-245.0,2.0,-271.0,-6.0,-27.0,-27.0,-933.0,93.0
1.0,-249.0,8.0,-263.0,-8.0,-25.0,-27.0,-946.0,94.0
2.0,-250.0,8.0,-246.0,-2.0,-25.0,-17.0,-955.0,100.0
4.0,-251.0,6.0,-229.0,5.0,-26.0,-5.0,-963.0,98.0
6.0,-254.0,8.0,-219.0,13.0,-33.0,-1.0,-975.0,101.0
7.0,-256.0,7.0,-217.0,20.0,-35.0,3.0,-986.0,107.0
11.0,-258.0,11.0,-222.0,25.0,-43.0,11.0,-999.0,110.0
13.0,-261.0,15.0,-231.0,30.0,-47.0,17.0,-1013.0,126.0
13.0,-264.0,10.0,-241.0,32.0,-53.0,21.0,-1015.0,126.0
11.0,-264.0,18.0,-243.0,35.0,-53.0,19.0,-1019.0,141.0
11.0,-264.0,14.0,-234.0,34.0,-57.0,19.0,-1028.0,142.0
12.0,-262.0,15.0,-224.0,35.0,-58.0,14.0,-1020.0,140.0
8.0,-263.0,13.0,-213.0,35.0,-56.0,8.0,-1016.0,133.0
9.0,-264.0,12.0,-202.0,36.0,-52.0,11.0,-1014.0,127.0
8.0,-261.0,12.0,-196.0,37.0,-53.0,7.0,-1014.0,115.0
9.0,-260.0,8.0,-191.0,37.0,-51.0,8.0,-1010.0,116.0
9.0,-260.0,8.0,-190.0,38.0,-55.0,11.0,-1003.0,103.0
8.0,-257.0,9.0,-191.0,39.0,-53.0,5.0,-1005.0,101.0
8.0,-258.0,7.0,-192.0,44.0,-59.0,2.0,-993.0,95.0
6.0,-255.0,5.0,-198.0,46.0,-57.0,0.0,-994.0,94.0
7.0,-256.0,8.0,-210.0,48.0,-62.0,-2.0,-993.0,97.0
4.0,-254.0,8.0,-225.0,54.0,-61.0,-7.0,-992.0,102.0
6.0,-257.0,7.0,-242.0,59.0,-66.0,0.0,-981.0,104.0
6.0,-255.0,12.0,-258.0,63.0,-65.0,-3.0,-975.0,105.0
4.0,-258.0,13.0,-265.0,64.0,-71.0,-3.0,-973.0,116.0
8.0,-253.0,8.0,-267.0,60.0,-74.0,3.0,-975.0,112.0
7.0,-253.0,8.0,-268.0,56.0,-81.0,-1.0,-969.0,107.0
7.0,-250.0,4.0,-271.0,48.0,-86.0,2.0,-962.0,96.0
6.0,-249.0,2.0,-277.0,40.0,-96.0,6.0,-958.0,88.0
10.0,-245.0,0.0,-289.0,32.0,-100.0,13.0,-956.0,89.0
9.0,-249.0,-1.0,-302.0,25.0,-110.0,16.0,-956.0,72.0
10.0,-243.0,-3.0,-315.0,21.0,-114.0,18.0,-951.0,56.0
11.0,-247.0,-8.0,-328.0,20.0,-122.0,25.0,-956.0,43.0
16.0,-246.0,-8.0,-340.0,24.0,-124.0,34.0,-953.0,37.0
15.0,-247.0,-9.0,-344.0,26.0,-129.0,40.0,-952.0,35.0
17.0,-246.0,-11.0,-352.0,29.0,-128.0,45.0,-955.0,31.0
21.0,-245.0,-13.0,-362.0,37.0,-131.0,50.0,-950.0,34.0
25.0,-246.0,-8.0,-370.0,46.0,-125.0,57.0,-952.0,39.0
24.0,-246.0,-7.0,-375.0,63.0,-126.0,66.0,-945.0,39.0
25.0,-246.0,-10.0,-380.0,78.0,-120.0,66.0,-956.0,41.0
26.0,-251.0,-7.0,-381.0,91.0,-120.0,74.0,-955.0,37.0
30.0,-251.0,-9.0,-387.0,94.0,-115.0,86.0,-967.0,43.0
31.0,-251.0,-9.0,-395.0,99.0,-113.0,98.0,-960.0,48.0
37.0,-248.0,-6.0,-399.0,110.0,-112.0,112.0,-963.0,51.0
39.0,-250.0,-7.0,-396.0,116.0,-118.0,121.0,-969.0,47.0
40.0,-249.0,-13.0,-385.0,121.0,-119.0,127.0,-969.0,38.0
41.0,-245.0,-8.0,-373.0,127.0,-124.0,134.0,-960.0,35.0
48.0,-247.0,-15.0,-360.0,133.0,-125.0,162.0,-959.0,27.0
52.0,-248.0,-17.0,-336.0,139.0,-129.0,186.0,-951.0,23.0
59.0,-248.0,-13.0,-299.0,144.0,-129.0,200.0,-959.0,20.0
59.0,-249.0,-14.0,-252.0,153.0,-130.0,210.0,-956.0,29.0
62.0,-248.0,-6.0,-233.0,167.0,-129.0,211.0,-957.0,45.0
69.0,-244.0,-3.0,-224.0,178.0,-124.0,244.0,-954.0,66.0
76.0,-249.0,-5.0,-197.0,193.0,-111.0,256.0,-959.0,63.0
75.0,-247.0,3.0,-185.0,219.0,-109.0,259.0,-949.0,85.0
72.0,-249.0,1.0,-171.0,251.0,-102.0,246.0,-969.0,90.0
68.0,-250.0,10.0,-180.0,274.0,-97.0,228.0,-964.0,108.0
63.0,-258.0,14.0,-195.0,281.0,-87.0,222.0,-983.0,130.0
66.0,-259.0,18.0,-222.0,278.0,-88.0,234.0,-1012.0,148.0
66.0,-265.0,19.0,-237.0,274.0,-92.0,226.0,-1037.0,153.0
61.0,-268.0,26.0,-240.0,266.0,-96.0,208.0,-1045.0,165.0
55.0,-274.0,23.0,-226.0,257.0,-95.0,187.0,-1056.0,168.0
52.0,-273.0,31.0,-202.0,247.0,-91.0,168.0,-1061.0,172.0
48.0,-273.0,27.0,-173.0,231.0,-91.0,154.0,-1061.0,172.0
39.0,-271.0,17.0,-146.0,215.0,-94.0,133.0,-1065.0,154.0
37.0,-273.0,15.0,-132.0,202.0,-98.0,111.0,-1063.0,147.0
30.0,-269.0,20.0,-122.0,186.0,-91.0,93.0,-1039.0,153.0
28.0,-266.0,20.0,-96.0,174.0,-86.0,80.0,-1032.0,144.0
21.0,-264.0,13.0,-85.0,166.0,-83.0,69.0,-1028.0,140.0
25.0,-276.0,17.0,-88.0,159.0,-86.0,60.0,-1025.0,129.0
18.0,-259.0,15.0,-96.0,149.0,-91.0,42.0,-1005.0,140.0
13.0,-254.0,11.0,-96.0,136.0,-96.0,26.0,-995.0,130.0
11.0,-256.0,11.0,-97.0,121.0,-95.0,18.0,-976.0,125.0
11.0,-252.0,13.0,-94.0,104.0,-95.0,15.0,-966.0,117.0
11.0,-249.0,8.0,-89.0,86.0,-97.0,11.0,-958.0,107.0
12.0,-247.0,8.0,-88.0,70.0,-105.0,23.0,-952.0,92.0
15.0,-249.0,5.0,-98.0,54.0,-112.0,19.0,-956.0,77.0
14.0,-246.0,0.0,-129.0,40.0,-118.0,24.0,-951.0,77.0
11.0,-244.0,5.0,-156.0,30.0,-119.0,22.0,-943.0,83.0
13.0,-244.0,8.0,-170.0,23.0,-118.0,24.0,-931.0,83.0
16.0,-238.0,3.0,-173.0,16.0,-111.0,38.0,-931.0,83.0
21.0,-239.0,7.0,-173.0,14.0,-110.0,57.0,-916.0,95.0
23.0,-240.0,8.0,-170.0,8.0,-115.0,73.0,-917.0,99.0
29.0,-237.0,8.0,-159.0,4.0,-131.0,73.0,-920.0,108.0
32.0,-240.0,10.0,-148.0,9.0,-140.0,98.0,-917.0,115.0
33.0,-237.0,7.0,-131.0,14.0,-153.0,104.0,-926.0,96.0
36.0,-239.0,7.0,-121.0,17.0,-161.0,117.0,-918.0,94.0
32.0,-234.0,9.0,-111.0,12.0,-173.0,113.0,-906.0,107.0
34.0,-234.0,10.0,-91.0,11.0,-175.0,114.0,-899.0,117.0
40.0,-228.0,8.0,-65.0,7.0,-179.0,131.0,-898.0,110.0
42.0,-231.0,13.0,-42.0,1.0,-183.0,137.0,-894.0,109.0
43.0,-230.0,8.0,-26.0,-7.0,-189.0,133.0,-886.0,105.0
42.0,-228.0,8.0,-14.0,-6.0,-182.0,142.0,-890.0,108.0
43.0,-228.0,10.0,-5.0,-10.0,-177.0,138.0,-888.0,108.0
41.0,-232.0,10.0,-6.0,-15.0,-166.0,138.0,-898.0,108.0
43.0,-229.0,9.0,-9.0,-21.0,-159.0,135.0,-890.0,119.0
48.0,-236.0,9.0,-8.0,-25.0,-145.0,150.0,-903.0,126.0
44.0,-233.0,14.0,-1.0,-27.0,-144.0,141.0,-897.0,133.0
42.0,-233.0,15.0,12.0,-31.0,-137.0,138.0,-903.0,135.0
43.0,-236.0,19.0,23.0,-37.0,-135.0,143.0,-902.0,150.0
35.0,-235.0,15.0,41.0,-45.0,-135.0,98.0,-906.0,151.0
36.0,-238.0,19.0,60.0,-47.0,-124.0,109.0,-910.0,151.0
38.0,-237.0,18.0,75.0,-60.0,-98.0,117.0,-921.0,154.0
36.0,-241.0,16.0,93.0,-72.0,-81.0,122.0,-926.0,158.0
39.0,-245.0,18.0,110.0,-80.0,-65.0,110.0,-934.0,143.0
34.0,-247.0,15.0,119.0,-94.0,-62.0,103.0,-944.0,142.0
28.0,-247.0,16.0,124.0,-103.0,-49.0,92.0,-951.0,131.0
32.0,-248.0,18.0,117.0,-110.0,-36.0,91.0,-950.0,139.0
27.0,-239.0,20.0,117.0,-124.0,-34.0,93.0,-944.0,147.0
26.0,-240.0,15.0,117.0,-148.0,-39.0,79.0,-933.0,141.0
27.0,-241.0,19.0,110.0,-170.0,-24.0,73.0,-933.0,146.0
27.0,-244.0,15.0,102.0,-186.0,-15.0,80.0,-934.0,142.0
25.0,-240.0,15.0,88.0,-208.0,-8.0,76.0,-934.0,138.0
27.0,-246.0,10.0,66.0,-230.0,-1.0,79.0,-948.0,130.0
22.0,-246.0,15.0,32.0,-253.0,7.0,58.0,-939.0,142.0
27.0,-241.0,20.0,19.0,-266.0,6.0,90.0,-926.0,136.0
34.0,-239.0,12.0,9.0,-283.0,35.0,100.0,-924.0,127.0
33.0,-235.0,15.0,-9.0,-289.0,48.0,117.0,-919.0,127.0
37.0,-239.0,12.0,-27.0,-293.0,58.0,120.0,-915.0,120.0
39.0,-235.0,8.0,-49.0,-297.0,63.0,124.0,-916.0,115.0
42.0,-234.0,13.0,-75.0,-299.0,73.0,132.0,-909.0,117.0
39.0,-234.0,9.0,-97.0,-309.0,74.0,135.0,-913.0,111.0
42.0,-236.0,12.0,-120.0,-323.0,75.0,138.0,-906.0,119.0
44.0,-235.0,10.0,-143.0,-341.0,69.0,150.0,-907.0,125.0
46.0,-236.0,14.0,-164.0,-355.0,66.0,158.0,-908.0,124.0
51.0,-240.0,11.0,-179.0,-362.0,58.0,161.0,-918.0,122.0
50.0,-242.0,9.0,-196.0,-368.0,55.0,168.0,-926.0,137.0
51.0,-244.0,17.0,-208.0,-370.0,49.0,172.0,-946.0,138.0
52.0,-253.0,22.0,-215.0,-377.0,47.0,174.0,-970.0,154.0
55.0,-255.0,20.0,-213.0,-390.0,33.0,199.0,-975.0,149.0
60.0,-260.0,25.0,-213.0,-406.0,54.0,207.0,-1002.0,175.0
60.0,-263.0,30.0,-206.0,-412.0,62.0,210.0,-1015.0,184.0
66.0,-274.0,30.0,-202.0,-421.0,73.0,220.0,-1050.0,190.0
64.0,-278.0,35.0,-200.0,-438.0,74.0,229.0,-1079.0,194.0
65.0,-287.0,40.0,-205.0,-453.0,76.0,223.0,-1115.0,239.0
64.0,-291.0,54.0,-190.0,-469.0,60.0,218.0,-1127.0,268.0
61.0,-302.0,59.0,-159.0,-491.0,68.0,209.0,-1154.0,297.0
60.0,-309.0,70.0,-109.0,-498.0,81.0,211.0,-1173.0,331.0
61.0,-315.0,66.0,-43.0,-506.0,87.0,206.0,-1201.0,334.0
57.0,-322.0,66.0,25.0,-512.0,85.0,196.0,-1229.0,327.0
58.0,-325.0,67.0,85.0,-512.0,76.0,197.0,-1249.0,314.0
57.0,-327.0,62.0,136.0,-515.0,56.0,193.0,-1252.0,301.0
57.0,-327.0,56.0,188.0,-511.0,41.0,188.0,-1263.0,283.0
63.0,-328.0,47.0,223.0,-490.0,41.0,197.0,-1262.0,269.0
65.0,-322.0,48.0,253.0,-467.0,31.0,226.0,-1246.0,259.0
75.0,-319.0,36.0,268.0,-445.0,11.0,242.0,-1230.0,222.0
82.0,-313.0,24.0,263.0,-410.0,-8.0,263.0,-1212.0,185.0
91.0,-312.0,9.0,232.0,-362.0,-25.0,306.0,-1207.0,126.0
99.0,-301.0,8.0,178.0,-309.0,-70.0,344.0,-1180.0,103.0
111.0,-300.0,0.0,122.0,-271.0,-81.0,388.0,-1175.0,78.0
125.0,-306.0,-1.0,71.0,-224.0,-108.0,445.0,-1186.0,63.0
118.0,-305.0,-8.0,23.0,-177.0,-169.0,420.0,-1198.0,47.0
115.0,-310.0,-10.0,-43.0,-153.0,-214.0,405.0,-1214.0,38.0
106.0,-309.0,0.0,-107.0,-138.0,-251.0,375.0,-1219.0,68.0
99.0,-315.0,7.0,-160.0,-141.0,-281.0,341.0,-1223.0,100.0
92.0,-317.0,12.0,-199.0,-145.0,-300.0,313.0,-1223.0,112.0
94.0,-323.0,12.0,-213.0,-145.0,-310.0,317.0,-1245.0,115.0
97.0,-328.0,7.0,-190.0,-129.0,-313.0,326.0,-1260.0,115.0
93.0,-332.0,9.0,-120.0,-101.0,-326.0,328.0,-1268.0,112.0
85.0,-333.0,10.0,0.0,-71.0,-339.0,284.0,-1270.0,123.0
73.0,-326.0,7.0,158.0,-60.0,-375.0,256.0,-1240.0,99.0
61.0,-325.0,-1.0,350.0,-90.0,-339.0,217.0,-1241.0,61.0
46.0,-315.0,-12.0,485.0,-121.0,-304.0,157.0,-1201.0,19.0
43.0,-303.0,-29.0,576.0,-159.0,-257.0,122.0,-1168.0,-49.0
21.0,-288.0,-53.0,609.0,-190.0,-223.0,52.0,-1130.0,-131.0
13.0,-284.0,-76.0,584.0,-197.0,-171.0,15.0,-1114.0,-221.0
3.0,-274.0,-103.0,515.0,-196.0,-125.0,-15.0,-1090.0,-335.0
-6.0,-268.0,-127.0,407.0,-182.0,-74.0,-55.0,-1067.0,-427.0
-15.0,-260.0,-144.0,272.0,-154.0,-28.0,-90.0,-1048.0,-492.0
-15.0,-259.0,-149.0,116.0,-129.0,31.0,-97.0,-1035.0,-529.0
-21.0,-254.0,-148.0,-80.0,-120.0,57.0,-107.0,-1018.0,-532.0
-23.0,-252.0,-141.0,-243.0,-133.0,68.0,-110.0,-1012.0,-505.0
-29.0,-251.0,-128.0,-392.0,-162.0,62.0,-139.0,-1005.0,-443.0
-39.0,-252.0,-122.0,-523.0,-201.0,57.0,-178.0,-1006.0,-402.0
-43.0,-259.0,-112.0,-637.0,-242.0,55.0,-189.0,-1011.0,-369.0
-42.0,-261.0,-100.0,-725.0,-285.0,64.0,-185.0,-1020.0,-323.0
-36.0,-267.0,-85.0,-779.0,-331.0,65.0,-168.0,-1040.0,-278.0
-39.0,-269.0,-75.0,-789.0,-376.0,66.0,-176.0,-1051.0,-224.0
-36.0,-274.0,-61.0,-763.0,-401.0,70.0,-179.0,-1062.0,-173.0
-32.0,-281.0,-57.0,-708.0,-393.0,92.0,-167.0,-1083.0,-163.0
-21.0,-278.0,-47.0,-627.0,-355.0,109.0,-131.0,-1058.0,-118.0
-12.0,-273.0,-46.0,-527.0,-303.0,128.0,-89.0,-1050.0,-102.0
-3.0,-268.0,-50.0,-417.0,-239.0,137.0,-58.0,-1040.0,-113.0
2.0,-260.0,-51.0,-307.0,-171.0,153.0,-30.0,-1010.0,-125.0
7.0,-252.0,-55.0,-212.0,-104.0,168.0,2.0,-971.0,-137.0
18.0,-244.0,-53.0,-144.0,-51.0,186.0,37.0,-926.0,-143.0
24.0,-237.0,-55.0,-103.0,-15.0,199.0,75.0,-909.0,-151.0
33.0,-232.0,-56.0,-96.0,0.0,226.0,105.0,-904.0,-154.0
42.0,-231.0,-49.0,-116.0,-1.0,256.0,127.0,-892.0,-135.0
45.0,-227.0,-43.0,-147.0,-13.0,283.0,148.0,-884.0,-112.0
45.0,-223.0,-40.0,-165.0,-27.0,308.0,153.0,-869.0,-79.0
47.0,-219.0,-24.0,-162.0,-42.0,345.0,159.0,-856.0,-29.0
48.0,-222.0,-21.0,-125.0,-60.0,389.0,156.0,-858.0,-8.0
43.0,-225.0,-22.0,-73.0,-74.0,440.0,148.0,-867.0,-12.0
46.0,-228.0,-33.0,-36.0,-85.0,484.0,142.0,-885.0,-35.0
50.0,-234.0,-38.0,-38.0,-83.0,513.0,171.0,-907.0,-73.0
51.0,-239.0,-45.0,-86.0,-75.0,503.0,179.0,-936.0,-102.0
25.0,-234.0,-24.0,-147.0,-62.0,469.0,104.0,-903.0,-25.0
8.0,-235.0,-26.0,-153.0,-61.0,477.0,0.0,-908.0,-23.0
-2.0,-233.0,-26.0,-127.0,-56.0,514.0,-24.0,-906.0,-17.0
-1.0,-230.0,-23.0,-94.0,-55.0,528.0,-19.0,-894.0,-16.0
7.0,-229.0,-27.0,-58.0,-46.0,527.0,-10.0,-875.0,-16.0
3.0,-218.0,-20.0,-17.0,-31.0,508.0,-13.0,-844.0,16.0
0.0,-215.0,-27.0,43.0,-8.0,492.0,-37.0,-834.0,-30.0
-10.0,-210.0,-21.0,86.0,29.0,487.0,-64.0,-811.0,-15.0
-15.0,-204.0,-26.0,136.0,64.0,496.0,-92.0,-793.0,-30.0
-17.0,-202.0,-32.0,176.0,86.0,502.0,-107.0,-778.0,-47.0
-16.0,-193.0,-39.0,196.0,94.0,510.0,-95.0,-742.0,-74.0
-12.0,-188.0,-49.0,189.0,95.0,511.0,-69.0,-735.0,-105.0
-10.0,-192.0,-54.0,143.0,116.0,508.0,-61.0,-735.0,-143.0
-9.0,-187.0,-53.0,75.0,146.0,505.0,-71.0,-722.0,-133.0
-12.0,-182.0,-48.0,16.0,159.0,516.0,-71.0,-714.0,-119.0
-7.0,-185.0,-51.0,-28.0,168.0,522.0,-54.0,-723.0,-123.0
-6.0,-188.0,-49.0,-71.0,175.0,503.0,-32.0,-734.0,-120.0
-2.0,-190.0,-43.0,-114.0,186.0,475.0,-29.0,-732.0,-95.0
-3.0,-192.0,-42.0,-150.0,196.0,450.0,-36.0,-739.0,-86.0
-8.0,-190.0,-34.0,-181.0,210.0,429.0,-49.0,-743.0,-68.0
-4.0,-194.0,-31.0,-207.0,225.0,421.0,-45.0,-743.0,-48.0
-6.0,-194.0,-28.0,-219.0,234.0,410.0,-48.0,-763.0,-33.0
-5.0,-197.0,-22.0,-221.0,235.0,390.0,-49.0,-775.0,-23.0
-6.0,-199.0,-22.0,-213.0,231.0,366.0,-51.0,-781.0,-3.0
-7.0,-202.0,-16.0,-186.0,230.0,340.0,-49.0,-784.0,22.0
-6.0,-212.0,-15.0,-138.0,235.0,313.0,-57.0,-818.0,11.0
-4.0,-223.0,-21.0,-99.0,240.0,296.0,-46.0,-850.0,1.0
-4.0,-226.0,-20.0,-63.0,245.0,270.0,-37.0,-868.0,3.0
-7.0,-234.0,-18.0,-27.0,252.0,224.0,-49.0,-886.0,-6.0
-5.0,-232.0,-18.0,14.0,269.0,182.0,-51.0,-888.0,7.0
-9.0,-233.0,-16.0,55.0,283.0,149.0,-57.0,-901.0,14.0
-6.0,-237.0,-15.0,101.0,291.0,119.0,-52.0,-903.0,23.0
-5.0,-239.0,-12.0,146.0,302.0,86.0,-45.0,-904.0,27.0
-4.0,-238.0,-12.0,182.0,313.0,52.0,-49.0,-907.0,38.0
-6.0,-236.0,-10.0,215.0,320.0,18.0,-41.0,-913.0,39.0
-9.0,-237.0,-5.0,240.0,329.0,-11.0,-59.0,-904.0,43.0
-12.0,-232.0,-2.0,261.0,336.0,-44.0,-78.0,-892.0,61.0
-12.0,-232.0,-8.0,282.0,340.0,-68.0,-74.0,-889.0,46.0
-13.0,-226.0,-5.0,297.0,348.0,-98.0,-81.0,-863.0,67.0
-12.0,-217.0,-3.0,306.0,363.0,-119.0,-75.0,-842.0,73.0
-11.0,-210.0,1.0,309.0,391.0,-136.0,-67.0,-823.0,82.0
-8.0,-207.0,0.0,304.0,429.0,-141.0,-65.0,-811.0,87.0
-8.0,-205.0,4.0,288.0,472.0,-139.0,-60.0,-803.0,96.0
0.0,-208.0,8.0,267.0,522.0,-128.0,-29.0,-811.0,104.0
7.0,-212.0,10.0,244.0,574.0,-132.0,-2.0,-827.0,98.0
10.0,-218.0,7.0,212.0,624.0,-135.0,16.0,-855.0,95.0
19.0,-227.0,9.0,174.0,672.0,-140.0,31.0,-881.0,105.0
21.0,-232.0,9.0,143.0,724.0,-135.0,53.0,-901.0,112.0
27.0,-241.0,9.0,128.0,756.0,-140.0,70.0,-916.0,120.0
28.0,-245.0,12.0,127.0,782.0,-143.0,60.0,-942.0,109.0
38.0,-258.0,9.0,127.0,806.0,-148.0,103.0,-972.0,111.0
39.0,-266.0,5.0,123.0,823.0,-167.0,114.0,-1025.0,91.0
34.0,-269.0,4.0,107.0,834.0,-194.0,99.0,-1053.0,96.0
30.0,-277.0,-1.0,82.0,833.0,-205.0,94.0,-1098.0,86.0
28.0,-287.0,5.0,41.0,822.0,-214.0,80.0,-1133.0,83.0
20.0,-294.0,4.0,-5.0,796.0,-220.0,45.0,-1138.0,90.0
6.0,-292.0,5.0,-38.0,755.0,-217.0,9.0,-1142.0,86.0
-11.0,-301.0,-4.0,-65.0,700.0,-197.0,-51.0,-1161.0,62.0
-12.0,-301.0,6.0,-91.0,667.0,-168.0,-74.0,-1164.0,77.0
-28.0,-300.0,9.0,-101.0,642.0,-139.0,-135.0,-1163.0,93.0
-40.0,-306.0,7.0,-103.0,626.0,-109.0,-186.0,-1178.0,104.0
-57.0,-314.0,12.0,-102.0,621.0,-67.0,-249.0,-1199.0,131.0
-62.0,-318.0,27.0,-86.0,624.0,-27.0,-272.0,-1208.0,173.0
-74.0,-319.0,37.0,-52.0,630.0,11.0,-307.0,-1222.0,201.0
-80.0,-323.0,49.0,-14.0,640.0,44.0,-338.0,-1229.0,248.0
-85.0,-321.0,52.0,30.0,653.0,95.0,-368.0,-1215.0,268.0
-90.0,-320.0,48.0,80.0,664.0,135.0,-387.0,-1225.0,254.0
-84.0,-323.0,47.0,101.0,673.0,180.0,-376.0,-1235.0,244.0
-89.0,-327.0,37.0,111.0,686.0,214.0,-365.0,-1243.0,227.0
-80.0,-328.0,30.0,116.0,692.0,254.0,-346.0,-1264.0,207.0
-86.0,-333.0,20.0,125.0,681.0,266.0,-362.0,-1285.0,156.0
-78.0,-336.0,10.0,130.0,660.0,301.0,-345.0,-1287.0,125.0
-67.0,-340.0,-4.0,143.0,626.0,346.0,-287.0,-1279.0,90.0
-56.0,-337.0,-22.0,170.0,589.0,379.0,-254.0,-1302.0,-5.0
-38.0,-346.0,-37.0,181.0,554.0,404.0,-186.0,-1334.0,-77.0
-18.0,-343.0,-48.0,153.0,520.0,423.0,-119.0,-1337.0,-128.0
-14.0,-345.0,-62.0,117.0,493.0,420.0,-95.0,-1339.0,-177.0
-21.0,-344.0,-82.0,70.0,459.0,417.0,-109.0,-1341.0,-265.0
-21.0,-342.0,-96.0,10.0,407.0,427.0,-114.0,-1341.0,-319.0
-22.0,-343.0,-109.0,-45.0,350.0,453.0,-121.0,-1337.0,-354.0
-23.0,-345.0,-114.0,-83.0,304.0,483.0,-124.0,-1339.0,-393.0
-21.0,-342.0,-124.0,-106.0,268.0,521.0,-122.0,-1332.0,-430.0
-23.0,-336.0,-129.0,-113.0,232.0,552.0,-123.0,-1297.0,-448.0
-14.0,-328.0,-132.0,-102.0,193.0,583.0,-103.0,-1265.0,-465.0
-12.0,-316.0,-134.0,-66.0,147.0,604.0,-90.0,-1225.0,-463.0
-12.0,-301.0,-126.0,-26.0,122.0,618.0,-81.0,-1171.0,-430.0
-10.0,-290.0,-116.0,16.0,108.0,613.0,-63.0,-1129.0,-402.0
1.0,-279.0,-112.0,53.0,103.0,603.0,-26.0,-1081.0,-366.0
20.0,-264.0,-107.0,92.0,105.0,575.0,19.0,-1043.0,-359.0
31.0,-259.0,-107.0,129.0,119.0,539.0,86.0,-1006.0,-362.0
51.0,-252.0,-107.0,171.0,150.0,495.0,163.0,-968.0,-358.0
73.0,-245.0,-107.0,221.0,187.0,445.0,253.0,-958.0,-363.0
93.0,-246.0,-106.0,261.0,230.0,383.0,319.0,-944.0,-336.0
103.0,-238.0,-89.0,317.0,264.0,318.0,366.0,-915.0,-290.0
120.0,-246.0,-85.0,382.0,276.0,271.0,419.0,-941.0,-285.0
122.0,-255.0,-91.0,432.0,290.0,207.0,441.0,-985.0,-293.0
120.0,-260.0,-94.0,442.0,313.0,126.0,433.0,-1030.0,-298.0
116.0,-273.0,-96.0,414.0,343.0,38.0,407.0,-1081.0,-298.0
96.0,-286.0,-77.0,367.0,374.0,-49.0,349.0,-1113.0,-254.0
80.0,-290.0,-58.0,340.0,382.0,-112.0,290.0,-1125.0,-169.0
67.0,-294.0,-54.0,354.0,357.0,-148.0,240.0,-1137.0,-135.0
52.0,-292.0,-42.0,379.0,304.0,-179.0,188.0,-1130.0,-100.0
41.0,-281.0,-33.0,398.0,214.0,-208.0,148.0,-1106.0,-60.0
37.0,-275.0,-32.0,420.0,138.0,-237.0,103.0,-1070.0,-57.0
21.0,-265.0,-30.0,419.0,65.0,-274.0,67.0,-1036.0,-44.0
9.0,-262.0,-33.0,398.0,4.0,-306.0,13.0,-1023.0,-47.0
-5.0,-259.0,-37.0,357.0,-54.0,-332.0,-31.0,-1014.0,-67.0
-12.0,-261.0,-38.0,301.0,-111.0,-355.0,-75.0,-1016.0,-73.0
-25.0,-263.0,-42.0,250.0,-166.0,-380.0,-125.0,-1021.0,-83.0
-36.0,-262.0,-44.0,220.0,-226.0,-411.0,-161.0,-1016.0,-100.0
-45.0,-259.0,-49.0,211.0,-290.0,-441.0,-191.0,-1007.0,-122.0
-49.0,-255.0,-55.0,217.0,-375.0,-484.0,-214.0,-989.0,-152.0
-55.0,-249.0,-62.0,231.0,-455.0,-517.0,-233.0,-954.0,-183.0
-60.0,-239.0,-67.0,237.0,-535.0,-541.0,-243.0,-926.0,-203.0
-59.0,-232.0,-71.0,234.0,-606.0,-557.0,-249.0,-896.0,-209.0
-56.0,-216.0,-63.0,228.0,-655.0,-561.0,-255.0,-846.0,-182.0
-59.0,-200.0,-60.0,240.0,-686.0,-551.0,-257.0,-787.0,-170.0
-56.0,-192.0,-60.0,249.0,-699.0,-533.0,-245.0,-746.0,-169.0
-51.0,-183.0,-57.0,236.0,-690.0,-515.0,-217.0,-707.0,-151.0
-39.0,-173.0,-55.0,202.0,-669.0,-504.0,-180.0,-676.0,-130.0
-32.0,-168.0,-50.0,163.0,-645.0,-493.0,-146.0,-654.0,-126.0
-29.0,-157.0,-42.0,102.0,-633.0,-490.0,-128.0,-628.0,-100.0
-18.0,-150.0,-37.0,64.0,-632.0,-481.0,-99.0,-585.0,-70.0
-9.0,-147.0,-34.0,48.0,-641.0,-465.0,-61.0,-576.0,-64.0
-3.0,-141.0,-29.0,59.0,-655.0,-446.0,-25.0,-542.0,-36.0
6.0,-144.0,-37.0,87.0,-667.0,-427.0,2.0,-569.0,-68.0
13.0,-150.0,-34.0,99.0,-681.0,-407.0,31.0,-577.0,-66.0
16.0,-148.0,-36.0,106.0,-700.0,-384.0,44.0,-582.0,-65.0
21.0,-155.0,-32.0,111.0,-726.0,-346.0,58.0,-609.0,-52.0
30.0,-159.0,-34.0,112.0,-758.0,-296.0,97.0,-636.0,-59.0
41.0,-165.0,-29.0,96.0,-799.0,-252.0,143.0,-647.0,-39.0
52.0,-171.0,-32.0,85.0,-832.0,-218.0,190.0,-676.0,-30.0
62.0,-177.0,-25.0,67.0,-856.0,-195.0,232.0,-700.0,-16.0
75.0,-188.0,-21.0,57.0,-874.0,-188.0,259.0,-727.0,-1.0
80.0,-193.0,-19.0,45.0,-885.0,-192.0,281.0,-753.0,-2.0
83.0,-199.0,-20.0,25.0,-892.0,-207.0,293.0,-788.0,-8.0
80.0,-203.0,-21.0,-1.0,-896.0,-217.0,288.0,-798.0,7.0
80.0,-201.0,-14.0,-19.0,-894.0,-224.0,275.0,-794.0,15.0
72.0,-198.0,-15.0,-23.0,-881.0,-212.0,257.0,-792.0,19.0
75.0,-203.0,-17.0,-20.0,-847.0,-197.0,258.0,-803.0,5.0
75.0,-203.0,-15.0,-39.0,-801.0,-179.0,256.0,-802.0,20.0
72.0,-208.0,-20.0,-62.0,-748.0,-162.0,245.0,-822.0,2.0
69.0,-210.0,-3.0,-94.0,-683.0,-136.0,239.0,-818.0,58.0
67.0,-210.0,0.0,-92.0,-624.0,-105.0,222.0,-828.0,67.0
58.0,-220.0,-4.0,-85.0,-564.0,-70.0,197.0,-857.0,74.0
60.0,-220.0,9.0,-77.0,-505.0,-48.0,202.0,-847.0,98.0
57.0,-222.0,11.0,-57.0,-458.0,9.0,199.0,-852.0,110.0
55.0,-223.0,11.0,-16.0,-413.0,63.0,191.0,-867.0,118.0
53.0,-226.0,18.0,33.0,-372.0,104.0,184.0,-863.0,139.0
50.0,-223.0,15.0,84.0,-340.0,139.0,165.0,-865.0,142.0
44.0,-220.0,16.0,121.0,-315.0,180.0,144.0,-867.0,144.0
45.0,-222.0,18.0,150.0,-302.0,214.0,129.0,-859.0,149.0
39.0,-220.0,12.0,168.0,-298.0,246.0,122.0,-859.0,127.0
37.0,-221.0,14.0,163.0,-296.0,268.0,117.0,-859.0,121.0
33.0,-221.0,11.0,138.0,-297.0,285.0,103.0,-860.0,116.0
30.0,-220.0,10.0,102.0,-302.0,302.0,95.0,-862.0,111.0
28.0,-223.0,10.0,59.0,-314.0,316.0,76.0,-865.0,112.0
24.0,-226.0,11.0,6.0,-330.0,331.0,66.0,-877.0,123.0
22.0,-226.0,12.0,-33.0,-348.0,336.0,72.0,-872.0,130.0
28.0,-229.0,12.0,-66.0,-372.0,349.0,76.0,-885.0,134.0
31.0,-233.0,13.0,-98.0,-385.0,356.0,95.0,-904.0,126.0
29.0,-235.0,17.0,-136.0,-394.0,343.0,87.0,-906.0,142.0
25.0,-235.0,15.0,-156.0,-393.0,333.0,65.0,-912.0,138.0
20.0,-247.0,13.0,-172.0,-394.0,338.0,52.0,-940.0,129.0
17.0,-253.0,9.0,-192.0,-397.0,349.0,41.0,-963.0,119.0
11.0,-260.0,10.0,-216.0,-404.0,351.0,24.0,-1007.0,121.0
7.0,-271.0,9.0,-244.0,-431.0,342.0,13.0,-1056.0,102.0
3.0,-279.0,10.0,-279.0,-461.0,325.0,-12.0,-1077.0,118.0
-1.0,-283.0,12.0,-305.0,-489.0,311.0,-23.0,-1107.0,120.0
-1.0,-290.0,10.0,-317.0,-504.0,300.0,-34.0,-1117.0,118.0
2.0,-293.0,12.0,-305.0,-506.0,291.0,-19.0,-1131.0,119.0
13.0,-297.0,11.0,-269.0,-493.0,268.0,12.0,-1134.0,122.0
19.0,-296.0,7.0,-214.0,-471.0,229.0,41.0,-1140.0,99.0
25.0,-296.0,9.0,-156.0,-442.0,169.0,69.0,-1130.0,97.0
44.0,-299.0,-6.0,-102.0,-420.0,118.0,145.0,-1150.0,65.0
52.0,-300.0,3.0,-77.0,-393.0,47.0,144.0,-1141.0,89.0
64.0,-300.0,9.0,-64.0,-366.0,4.0,208.0,-1165.0,105.0
78.0,-308.0,19.0,-76.0,-340.0,-42.0,263.0,-1178.0,146.0
91.0,-307.0,44.0,-85.0,-319.0,-93.0,310.0,-1173.0,236.0
103.0,-309.0,58.0,-68.0,-297.0,-143.0,348.0,-1170.0,306.0
108.0,-305.0,79.0,-38.0,-275.0,-176.0,373.0,-1173.0,390.0
114.0,-310.0,99.0,5.0,-251.0,-202.0,401.0,-1175.0,453.0
115.0,-299.0,112.0,64.0,-234.0,-236.0,394.0,-1134.0,520.0
115.0,-303.0,101.0,147.0,-220.0,-256.0,403.0,-1171.0,479.0
114.0,-306.0,94.0,192.0,-203.0,-279.0,419.0,-1169.0,455.0
98.0,-308.0,79.0,231.0,-203.0,-310.0,336.0,-1193.0,400.0
89.0,-321.0,64.0,256.0,-201.0,-329.0,314.0,-1236.0,324.0
80.0,-327.0,38.0,274.0,-213.0,-349.0,275.0,-1258.0,231.0
59.0,-334.0,13.0,294.0,-237.0,-370.0,213.0,-1282.0,155.0
52.0,-339.0,-3.0,312.0,-248.0,-376.0,179.0,-1300.0,81.0
47.0,-341.0,-22.0,320.0,-252.0,-380.0,139.0,-1328.0,-6.0
44.0,-342.0,-34.0,314.0,-242.0,-372.0,132.0,-1332.0,-58.0
44.0,-337.0,-51.0,287.0,-214.0,-362.0,124.0,-1321.0,-138.0
50.0,-327.0,-68.0,227.0,-148.0,-337.0,136.0,-1276.0,-203.0
51.0,-316.0,-89.0,119.0,-88.0,-319.0,163.0,-1258.0,-278.0
57.0,-319.0,-118.0,10.0,-46.0,-322.0,192.0,-1252.0,-378.0
61.0,-324.0,-143.0,-106.0,-26.0,-354.0,206.0,-1271.0,-494.0
54.0,-326.0,-153.0,-217.0,-21.0,-407.0,169.0,-1273.0,-561.0
37.0,-326.0,-162.0,-303.0,-24.0,-454.0,106.0,-1276.0,-588.0
28.0,-334.0,-162.0,-363.0,-49.0,-484.0,79.0,-1296.0,-578.0
25.0,-343.0,-147.0,-416.0,-102.0,-528.0,65.0,-1330.0,-525.0
23.0,-348.0,-125.0,-469.0,-174.0,-583.0,68.0,-1363.0,-451.0
18.0,-344.0,-89.0,-520.0,-255.0,-663.0,51.0,-1348.0,-323.0
12.0,-337.0,-51.0,-540.0,-302.0,-694.0,20.0,-1311.0,-161.0
10.0,-328.0,-21.0,-489.0,-324.0,-684.0,3.0,-1259.0,-23.0
7.0,-316.0,-11.0,-370.0,-317.0,-647.0,-10.0,-1184.0,27.0
3.0,-297.0,-13.0,-211.0,-272.0,-598.0,-41.0,-1125.0,30.0
-16.0,-272.0,-28.0,-31.0,-192.0,-542.0,-109.0,-1045.0,-31.0
-32.0,-254.0,-46.0,131.0,-97.0,-478.0,-179.0,-950.0,-103.0
-60.0,-225.0,-70.0,247.0,-13.0,-410.0,-263.0,-886.0,-186.0
-79.0,-212.0,-93.0,294.0,40.0,-341.0,-323.0,-834.0,-276.0
-90.0,-206.0,-114.0,279.0,50.0,-249.0,-373.0,-816.0,-367.0
-92.0,-205.0,-122.0,197.0,4.0,-175.0,-384.0,-810.0,-430.0
-93.0,-204.0,-128.0,101.0,-67.0,-99.0,-380.0,-811.0,-450.0
-90.0,-211.0,-123.0,6.0,-138.0,-21.0,-378.0,-835.0,-429.0
-88.0,-221.0,-118.0,-73.0,-191.0,76.0,-369.0,-863.0,-397.0
-74.0,-228.0,-107.0,-139.0,-218.0,165.0,-335.0,-889.0,-367.0
-61.0,-231.0,-92.0,-207.0,-235.0,247.0,-278.0,-906.0,-297.0
-45.0,-236.0,-74.0,-277.0,-245.0,307.0,-211.0,-910.0,-233.0
-26.0,-241.0,-68.0,-336.0,-251.0,354.0,-126.0,-934.0,-189.0
-4.0,-249.0,-53.0,-392.0,-233.0,377.0,-36.0,-957.0,-134.0
28.0,-261.0,-43.0,-439.0,-202.0,384.0,77.0,-1019.0,-81.0
52.0,-278.0,-24.0,-450.0,-153.0,356.0,160.0,-1068.0,-22.0
61.0,-284.0,-7.0,-415.0,-71.0,323.0,193.0,-1090.0,46.0
69.0,-293.0,7.0,-311.0,34.0,304.0,221.0,-1109.0,87.0
72.0,-293.0,13.0,-155.0,143.0,308.0,237.0,-1106.0,116.0
68.0,-282.0,21.0,42.0,232.0,324.0,234.0,-1072.0,166.0
73.0,-276.0,6.0,272.0,290.0,376.0,237.0,-1054.0,115.0
94.0,-265.0,-21.0,445.0,349.0,422.0,279.0,-1029.0,10.0
70.0,-254.0,-54.0,512.0,422.0,453.0,306.0,-1002.0,-104.0
92.0,-247.0,-83.0,438.0,519.0,458.0,327.0,-999.0,-279.0
94.0,-236.0,-95.0,255.0,605.0,450.0,324.0,-966.0,-316.0
71.0,-235.0,-93.0,42.0,653.0,451.0,262.0,-925.0,-291.0
61.0,-230.0,-60.0,-132.0,671.0,482.0,202.0,-903.0,-245.0
40.0,-216.0,-64.0,-240.0,669.0,522.0,137.0,-854.0,-184.0
29.0,-207.0,-50.0,-284.0,659.0,576.0,89.0,-820.0,-130.0
24.0,-204.0,-42.0,-292.0,647.0,622.0,71.0,-790.0,-90.0
25.0,-199.0,-42.0,-282.0,652.0,651.0,79.0,-791.0,-88.0
6.0,-197.0,-38.0,-294.0,674.0,657.0,74.0,-781.0,-58.0
22.0,-196.0,-27.0,-308.0,698.0,656.0,61.0,-775.0,-35.0
14.0,-194.0,-28.0,-311.0,714.0,640.0,31.0,-754.0,-36.0
13.0,-197.0,-35.0,-313.0,724.0,622.0,21.0,-757.0,-61.0
9.0,-192.0,-38.0,-331.0,731.0,589.0,17.0,-749.0,-70.0
2.0,-188.0,-35.0,-349.0,730.0,556.0,-8.0,-710.0,-66.0
-2.0,-178.0,-32.0,-345.0,727.0,513.0,-27.0,-679.0,-67.0
-3.0,-170.0,-38.0,-324.0,732.0,481.0,-44.0,-659.0,-73.0
-8.0,-162.0,-38.0,-299.0,748.0,452.0,-56.0,-639.0,-71.0
-11.0,-158.0,-39.0,-281.0,766.0,435.0,-72.0,-629.0,-83.0
-12.0,-161.0,-43.0,-283.0,800.0,420.0,-72.0,-638.0,-102.0
-12.0,-166.0,-46.0,-317.0,824.0,412.0,-80.0,-647.0,-104.0
-14.0,-168.0,-43.0,-361.0,839.0,405.0,-83.0,-659.0,-98.0
-17.0,-170.0,-43.0,-403.0,843.0,398.0,-95.0,-667.0,-88.0
-18.0,-177.0,-37.0,-442.0,842.0,389.0,-100.0,-676.0,-73.0
-16.0,-185.0,-36.0,-471.0,840.0,381.0,-100.0,-706.0,-69.0
-25.0,-186.0,-28.0,-496.0,838.0,361.0,-119.0,-715.0,-47.0
-23.0,-196.0,-22.0,-504.0,833.0,355.0,-131.0,-748.0,-16.0
-29.0,-205.0,-13.0,-491.0,835.0,327.0,-142.0,-779.0,19.0
-34.0,-209.0,-13.0,-459.0,816.0,297.0,-146.0,-803.0,40.0
-34.0,-214.0,-5.0,-395.0,795.0,277.0,-164.0,-824.0,49.0
-38.0,-215.0,-6.0,-329.0,777.0,256.0,-167.0,-828.0,59.0
-35.0,-222.0,-6.0,-255.0,765.0,233.0,-165.0,-841.0,59.0
-37.0,-224.0,-3.0,-193.0,757.0,212.0,-163.0,-852.0,66.0
-36.0,-227.0,-2.0,-131.0,744.0,186.0,-171.0,-865.0,66.0
-35.0,-228.0,1.0,-71.0,732.0,157.0,-165.0,-882.0,73.0
-36.0,-231.0,2.0,-14.0,711.0,137.0,-167.0,-890.0,73.0
-37.0,-232.0,5.0,50.0,694.0,113.0,-167.0,-890.0,84.0
-33.0,-235.0,2.0,118.0,674.0,74.0,-160.0,-889.0,72.0
-31.0,-228.0,-2.0,186.0,646.0,53.0,-146.0,-878.0,71.0
-26.0,-224.0,1.0,235.0,623.0,40.0,-132.0,-854.0,69.0
-27.0,-219.0,-6.0,278.0,612.0,31.0,-132.0,-845.0,55.0
-22.0,-217.0,-7.0,299.0,611.0,12.0,-118.0,-837.0,43.0
-22.0,-213.0,-15.0,295.0,613.0,-9.0,-108.0,-840.0,16.0
-15.0,-215.0,-15.0,266.0,617.0,-28.0,-102.0,-844.0,14.0
-14.0,-219.0,-18.0,216.0,619.0,-46.0,-86.0,-852.0,11.0
-12.0,-221.0,-16.0,158.0,622.0,-66.0,-81.0,-869.0,11.0
-11.0,-225.0,-15.0,91.0,627.0,-98.0,-70.0,-880.0,22.0
-10.0,-229.0,-7.0,13.0,626.0,-122.0,-66.0,-888.0,30.0
-5.0,-234.0,-9.0,-47.0,617.0,-137.0,-49.0,-908.0,35.0
-3.0,-239.0,-4.0,-100.0,604.0,-154.0,-37.0,-919.0,51.0
-1.0,-240.0,-4.0,-145.0,584.0,-166.0,-26.0,-928.0,56.0
2.0,-242.0,-3.0,-175.0,552.0,-174.0,-17.0,-932.0,69.0
-1.0,-242.0,6.0,-197.0,524.0,-171.0,-17.0,-952.0,77.0
1.0,-244.0,2.0,-209.0,502.0,-164.0,-15.0,-947.0,74.0
1.0,-249.0,-1.0,-227.0,480.0,-163.0,-19.0,-960.0,59.0
-7.0,-247.0,0.0,-253.0,459.0,-162.0,-40.0,-953.0,69.0
-12.0,-249.0,-2.0,-282.0,424.0,-150.0,-71.0,-961.0,58.0
-27.0,-249.0,-8.0,-301.0,392.0,-124.0,-116.0,-967.0,54.0
-29.0,-251.0,-10.0,-323.0,352.0,-102.0,-144.0,-967.0,27.0
-39.0,-254.0,-21.0,-350.0,299.0,-70.0,-169.0,-971.0,-12.0
-49.0,-254.0,-25.0,-386.0,240.0,-45.0,-205.0,-974.0,-31.0
-60.0,-259.0,-31.0,-418.0,182.0,-21.0,-245.0,-1005.0,-48.0
-60.0,-267.0,-33.0,-443.0,130.0,-4.0,-261.0,-1030.0,-55.0
-68.0,-273.0,-37.0,-455.0,81.0,3.0,-293.0,-1048.0,-71.0
-76.0,-279.0,-40.0,-453.0,36.0,8.0,-321.0,-1063.0,-75.0
-81.0,-277.0,-42.0,-450.0,-13.0,33.0,-337.0,-1077.0,-74.0
-77.0,-271.0,-33.0,-450.0,-50.0,58.0,-329.0,-1066.0,-63.0
-74.0,-270.0,-34.0,-455.0,-81.0,85.0,-321.0,-1043.0,-51.0
-74.0,-263.0,-26.0,-475.0,-103.0,110.0,-328.0,-1041.0,-58.0
-58.0,-272.0,-29.0,-513.0,-114.0,145.0,-276.0,-1066.0,-49.0
-57.0,-284.0,-33.0,-567.0,-123.0,142.0,-240.0,-1112.0,-47.0
-54.0,-298.0,-28.0,-646.0,-130.0,129.0,-241.0,-1149.0,-26.0
-51.0,-297.0,-5.0,-711.0,-146.0,130.0,-228.0,-1136.0,39.0
-39.0,-301.0,2.0,-730.0,-170.0,156.0,-175.0,-1155.0,69.0
-23.0,-306.0,1.0,-729.0,-187.0,157.0,-127.0,-1168.0,82.0
-11.0,-304.0,5.0,-744.0,-184.0,153.0,-93.0,-1171.0,83.0
3.0,-302.0,10.0,-772.0,-156.0,154.0,-37.0,-1163.0,101.0
7.0,-303.0,6.0,-802.0,-118.0,153.0,-12.0,-1160.0,91.0
14.0,-297.0,7.0,-841.0,-71.0,129.0,15.0,-1145.0,108.0
17.0,-290.0,8.0,-877.0,-22.0,121.0,29.0,-1123.0,95.0
21.0,-283.0,3.0,-906.0,28.0,114.0,41.0,-1095.0,83.0
23.0,-280.0,-4.0,-921.0,85.0,118.0,42.0,-1076.0,66.0
32.0,-273.0,-12.0,-916.0,150.0,105.0,80.0,-1069.0,51.0
39.0,-272.0,-26.0,-932.0,206.0,120.0,123.0,-1086.0,-21.0
39.0,-273.0,-30.0,-1036.0,237.0,147.0,112.0,-1079.0,-59.0
44.0,-270.0,-29.0,-1129.0,271.0,145.0,125.0,-1052.0,-37.0
39.0,-261.0,-29.0,-1187.0,288.0,114.0,118.0,-1043.0,-40.0
39.0,-261.0,-24.0,-1235.0,293.0,102.0,130.0,-1019.0,-20.0
42.0,-258.0,-25.0,-1268.0,294.0,80.0,133.0,-1008.0,-29.0
48.0,-250.0,-23.0,-1296.0,297.0,51.0,142.0,-968.0,-11.0
47.0,-242.0,-17.0,-1306.0,296.0,15.0,159.0,-942.0,-4.0
47.0,-236.0,-18.0,-1308.0,308.0,-17.0,151.0,-911.0,8.0
43.0,-230.0,-20.0,-1299.0,340.0,-42.0,128.0,-888.0,14.0
37.0,-229.0,-20.0,-1278.0,398.0,-49.0,104.0,-883.0,-1.0
27.0,-224.0,-19.0,-1252.0,453.0,-54.0,78.0,-866.0,11.0
22.0,-230.0,-21.0,-1212.0,511.0,-50.0,56.0,-876.0,-10.0
13.0,-231.0,-29.0,-1175.0,566.0,-49.0,15.0,-890.0,-28.0
-2.0,-227.0,-28.0,-1136.0,615.0,-35.0,-17.0,-883.0,-37.0
-12.0,-232.0,-31.0,-1080.0,657.0,-23.0,-68.0,-891.0,-51.0
-12.0,-230.0,-41.0,-1009.0,683.0,-13.0,-94.0,-882.0,-76.0
-20.0,-227.0,-49.0,-939.0,699.0,1.0,-112.0,-880.0,-121.0
-26.0,-229.0,-64.0,-903.0,707.0,26.0,-123.0,-881.0,-172.0
-27.0,-233.0,-76.0,-898.0,702.0,44.0,-131.0,-896.0,-222.0
-28.0,-232.0,-89.0,-910.0,692.0,62.0,-138.0,-910.0,-283.0
-26.0,-238.0,-99.0,-922.0,684.0,75.0,-130.0,-920.0,-327.0
-20.0,-247.0,-116.0,-933.0,680.0,84.0,-120.0,-950.0,-379.0
-16.0,-252.0,-121.0,-944.0,681.0,79.0,-98.0,-965.0,-399.0
-11.0,-255.0,-128.0,-932.0,678.0,68.0,-74.0,-976.0,-436.0
0.0,-258.0,-135.0,-886.0,670.0,43.0,-28.0,-978.0,-466.0
8.0,-254.0,-141.0,-811.0,668.0,7.0,1.0,-970.0,-503.0
14.0,-250.0,-149.0,-719.0,677.0,-50.0,16.0,-963.0,-523.0
15.0,-251.0,-151.0,-609.0,707.0,-104.0,28.0,-958.0,-528.0
14.0,-252.0,-145.0,-525.0,739.0,-159.0,22.0,-957.0,-526.0
12.0,-250.0,-147.0,-453.0,773.0,-204.0,14.0,-969.0,-516.0
11.0,-251.0,-138.0,-398.0,805.0,-244.0,4.0,-972.0,-494.0
0.0,-253.0,-128.0,-356.0,830.0,-280.0,-16.0,-984.0,-434.0
-6.0,-258.0,-120.0,-315.0,846.0,-309.0,-56.0,-1005.0,-409.0
-7.0,-263.0,-111.0,-258.0,847.0,-322.0,-48.0,-1015.0,-374.0
-2.0,-263.0,-110.0,-185.0,835.0,-327.0,-38.0,-1024.0,-362.0
4.0,-261.0,-109.0,-103.0,813.0,-337.0,-14.0,-1015.0,-365.0
15.0,-261.0,-118.0,-6.0,802.0,-347.0,29.0,-1003.0,-390.0
29.0,-257.0,-123.0,63.0,826.0,-363.0,77.0,-989.0,-427.0
40.0,-253.0,-133.0,109.0,878.0,-380.0,106.0,-980.0,-456.0
46.0,-256.0,-136.0,128.0,949.0,-399.0,129.0,-989.0,-467.0
51.0,-262.0,-139.0,125.0,1023.0,-416.0,153.0,-1025.0,-489.0
58.0,-277.0,-153.0,107.0,1086.0,-438.0,183.0,-1067.0,-515.0
71.0,-284.0,-171.0,80.0,1132.0,-470.0,230.0,-1121.0,-593.0
82.0,-294.0,-180.0,36.0,1186.0,-521.0,261.0,-1152.0,-649.0
84.0,-301.0,-188.0,-18.0,1242.0,-578.0,287.0,-1191.0,-699.0
88.0,-307.0,-196.0,-128.0,1280.0,-606.0,316.0,-1223.0,-723.0
109.0,-321.0,-207.0,-282.0,1269.0,-631.0,372.0,-1287.0,-773.0
125.0,-345.0,-225.0,-505.0,1226.0,-695.0,453.0,-1395.0,-849.0
127.0,-356.0,-231.0,-777.0,1174.0,-815.0,455.0,-1430.0,-859.0
116.0,-374.0,-230.0,-1036.0,1110.0,-925.0,410.0,-1478.0,-869.0
96.0,-394.0,-231.0,-1245.0,1051.0,-1011.0,348.0,-1549.0,-860.0
79.0,-415.0,-218.0,-1399.0,988.0,-1094.0,283.0,-1629.0,-807.0
56.0,-445.0,-184.0,-1495.0,908.0,-1181.0,201.0,-1706.0,-686.0
21.0,-477.0,-160.0,-1513.0,802.0,-1258.0,82.0,-1828.0,-573.0
-16.0,-506.0,-113.0,-1457.0,623.0,-1287.0,-67.0,-1910.0,-421.0
-39.0,-527.0,-93.0,-1318.0,458.0,-1309.0,-168.0,-1991.0,-313.0
-50.0,-555.0,-96.0,-1134.0,288.0,-1328.0,-215.0,-2091.0,-308.0
-49.0,-568.0,-93.0,-958.0,110.0,-1374.0,-215.0,-2150.0,-304.0
-56.0,-573.0,-101.0,-761.0,-96.0,-1432.0,-248.0,-2189.0,-356.0
-63.0,-582.0,-105.0,-574.0,-294.0,-1469.0,-277.0,-2233.0,-368.0
-63.0,-593.0,-87.0,-379.0,-458.0,-1490.0,-283.0,-2229.0,-267.0
-72.0,-596.0,-41.0,-90.0,-612.0,-1526.0,-295.0,-2228.0,-108.0
-81.0,-609.0,-48.0,305.0,-818.0,-1537.0,-333.0,-2291.0,-138.0
-107.0,-599.0,5.0,753.0,-1112.0,-1557.0,-426.0,-2235.0,40.0
-116.0,-591.0,19.0,1243.0,-1350.0,-1565.0,-462.0,-2213.0,125.0
-115.0,-576.0,24.0,1729.0,-1572.0,-1538.0,-466.0,-2148.0,178.0
-108.0,-526.0,-10.0,2153.0,-1757.0,-1454.0,-469.0,-2008.0,50.0
-100.0,-469.0,-36.0,2370.0,-1822.0,-1345.0,-426.0,-1830.0,-55.0
-109.0,-405.0,-33.0,2390.0,-1883.0,-1192.0,-446.0,-1609.0,-62.0
-114.0,-352.0,-38.0,2326.0,-1932.0,-1043.0,-491.0,-1401.0,-63.0
-101.0,-300.0,-51.0,2221.0,-1934.0,-891.0,-427.0,-1179.0,-103.0
-91.0,-246.0,-61.0,2070.0,-1902.0,-741.0,-377.0,-1004.0,-165.0
-86.0,-199.0,-65.0,1819.0,-1907.0,-594.0,-358.0,-837.0,-178.0
-80.0,-176.0,-66.0,1537.0,-1938.0,-473.0,-346.0,-715.0,-187.0
-52.0,-139.0,-43.0,1197.0,-1967.0,-322.0,-209.0,-591.0,-94.0
-24.0,-103.0,-19.0,867.0,-1996.0,-209.0,-112.0,-436.0,15.0
-13.0,-71.0,-3.0,595.0,-1983.0,-131.0,-98.0,-301.0,47.0
-13.0,-28.0,4.0,356.0,-1938.0,-69.0,-66.0,-171.0,87.0
-36.0,10.0,26.0,144.0,-1903.0,1.0,-109.0,-12.0,173.0
-30.0,50.0,50.0,-10.0,-1887.0,79.0,-115.0,131.0,252.0
-32.0,76.0,59.0,-127.0,-1909.0,116.0,-120.0,265.0,277.0
-37.0,95.0,59.0,-305.0,-1962.0,173.0,-132.0,328.0,298.0
-16.0,120.0,80.0,-473.0,-1973.0,211.0,-80.0,423.0,401.0
-11.0,125.0,113.0,-600.0,-1944.0,227.0,-45.0,479.0,524.0
-4.0,133.0,142.0,-642.0,-1869.0,240.0,-28.0,538.0,645.0
19.0,139.0,162.0,-556.0,-1730.0,226.0,54.0,570.0,737.0
40.0,142.0,176.0,-356.0,-1535.0,190.0,123.0,583.0,779.0
69.0,138.0,180.0,-102.0,-1316.0,224.0,246.0,553.0,783.0
95.0,140.0,179.0,145.0,-1091.0,301.0,338.0,550.0,786.0
116.0,142.0,179.0,338.0,-885.0,396.0,424.0,530.0,790.0
133.0,136.0,183.0,467.0,-707.0,550.0,503.0,510.0,794.0
170.0,112.0,173.0,563.0,-623.0,717.0,611.0,436.0,775.0
181.0,83.0,161.0,631.0,-583.0,890.0,693.0,336.0,740.0
188.0,45.0,148.0,729.0,-578.0,1066.0,726.0,215.0,691.0
183.0,13.0,133.0,904.0,-608.0,1229.0,707.0,92.0,602.0
158.0,-20.0,96.0,1186.0,-671.0,1343.0,624.0,-49.0,445.0
134.0,-48.0,53.0,1545.0,-766.0,1420.0,489.0,-144.0,281.0
112.0,-57.0,20.0,1891.0,-855.0,1472.0,390.0,-195.0,161.0
88.0,-61.0,1.0,2152.0,-885.0,1541.0,311.0,-242.0,83.0
81.0,-72.0,-5.0,2286.0,-818.0,1648.0,277.0,-298.0,56.0
76.0,-78.0,-10.0,2275.0,-722.0,1726.0,273.0,-344.0,42.0
72.0,-82.0,-22.0,2134.0,-648.0,1748.0,263.0,-363.0,-1.0
67.0,-74.0,-48.0,1876.0,-626.0,1727.0,245.0,-348.0,-111.0
58.0,-62.0,-112.0,1534.0,-631.0,1657.0,215.0,-301.0,-359.0
73.0,-46.0,-218.0,1132.0,-615.0,1541.0,246.0,-255.0,-753.0
96.0,-46.0,-399.0,698.0,-537.0,1344.0,297.0,-269.0,-1407.0
143.0,-81.0,-615.0,237.0,-314.0,1079.0,414.0,-372.0,-2245.0
225.0,-178.0,-784.0,-153.0,106.0,754.0,664.0,-628.0,-2976.0
293.0,-316.0,-847.0,-176.0,761.0,363.0,963.0,-1134.0,-3385.0
322.0,-441.0,-872.0,515.0,1176.0,99.0,1225.0,-1740.0,-3527.0
261.0,-525.0,-840.0,1134.0,1239.0,-219.0,921.0,-2118.0,-3360.0
65.0,-450.0,-634.0,825.0,967.0,-810.0,322.0,-2061.0,-2561.0
-60.0,-466.0,-249.0,-799.0,29.0,-1463.0,10.0,-2118.0,-1082.0
43.0,-682.0,244.0,-2825.0,-1574.0,-1827.0,204.0,-2608.0,852.0
163.0,-880.0,503.0,-3753.0,-2654.0,-1934.0,450.0,-3187.0,2080.0
164.0,-838.0,342.0,-3435.0,-2630.0,-2037.0,412.0,-3105.0,1595.0
53.0,-781.0,273.0,-2501.0,-1717.0,-2096.0,-72.0,-2800.0,1220.0
-177.0,-729.0,211.0,-1188.0,-183.0,-2206.0,-885.0,-2531.0,1000.0
-292.0,-805.0,9.0,728.0,939.0,-2129.0,-1279.0,-2856.0,240.0
-311.0,-863.0,-212.0,1936.0,1549.0,-1894.0,-1214.0,-3311.0,-689.0
-334.0,-712.0,-274.0,2496.0,1434.0,-1488.0,-1222.0,-2864.0,-1079.0
-292.0,-535.0,-327.0,2619.0,682.0,-947.0,-1036.0,-2138.0,-1292.0
-229.0,-380.0,-376.0,2356.0,-319.0,-423.0,-870.0,-1616.0,-1463.0
-157.0,-312.0,-410.0,1833.0,-1111.0,92.0,-581.0,-1270.0,-1610.0
-75.0,-262.0,-452.0,1249.0,-1457.0,565.0,-368.0,-1126.0,-1770.0
-2.0,-254.0,-474.0,678.0,-1330.0,998.0,-120.0,-1086.0,-1830.0
49.0,-226.0,-468.0,109.0,-887.0,1392.0,59.0,-991.0,-1816.0
82.0,-191.0,-444.0,-659.0,-190.0,1613.0,223.0,-879.0,-1727.0
104.0,-163.0,-358.0,-1387.0,336.0,1762.0,328.0,-810.0,-1477.0
94.0,-151.0,-236.0,-2094.0,659.0,1840.0,364.0,-683.0,-976.0
75.0,-170.0,-140.0,-2627.0,684.0,1861.0,318.0,-692.0,-597.0
79.0,-187.0,-95.0,-2948.0,548.0,1801.0,295.0,-725.0,-320.0
101.0,-214.0,-45.0,-2976.0,391.0,1687.0,358.0,-779.0,-93.0
156.0,-313.0,-96.0,-2838.0,235.0,1504.0,557.0,-1171.0,-297.0
138.0,-335.0,-58.0,-2807.0,163.0,1097.0,509.0,-1266.0,-173.0
100.0,-352.0,-33.0,-2674.0,38.0,699.0,366.0,-1324.0,-41.0
71.0,-378.0,-39.0,-2291.0,-99.0,555.0,226.0,-1399.0,-66.0
75.0,-362.0,17.0,-1898.0,-74.0,504.0,234.0,-1338.0,88.0
80.0,-343.0,46.0,-1396.0,-25.0,478.0,266.0,-1228.0,258.0
91.0,-319.0,51.0,-822.0,26.0,459.0,304.0,-1170.0,280.0
96.0,-277.0,36.0,-344.0,134.0,430.0,310.0,-1060.0,228.0
85.0,-252.0,9.0,-49.0,316.0,422.0,288.0,-996.0,117.0
68.0,-244.0,29.0,14.0,504.0,453.0,226.0,-941.0,165.0
52.0,-256.0,49.0,12.0,650.0,511.0,177.0,-972.0,254.0
39.0,-271.0,78.0,34.0,782.0,599.0,115.0,-1026.0,370.0
39.0,-279.0,76.0,122.0,936.0,706.0,108.0,-1073.0,386.0
36.0,-272.0,62.0,152.0,1015.0,789.0,113.0,-1062.0,314.0
19.0,-261.0,57.0,138.0,1001.0,826.0,58.0,-1009.0,271.0
12.0,-245.0,28.0,91.0,926.0,806.0,24.0,-951.0,204.0
22.0,-217.0,29.0,17.0,852.0,744.0,67.0,-839.0,199.0
25.0,-181.0,35.0,-29.0,783.0,654.0,77.0,-705.0,218.0
32.0,-160.0,29.0,-55.0,740.0,564.0,88.0,-622.0,189.0
39.0,-139.0,51.0,-81.0,738.0,468.0,155.0,-531.0,263.0
24.0,-124.0,61.0,-41.0,721.0,343.0,72.0,-441.0,316.0
-13.0,-110.0,72.0,69.0,720.0,255.0,-81.0,-404.0,351.0
-43.0,-105.0,99.0,169.0,751.0,225.0,-175.0,-384.0,443.0
-63.0,-113.0,117.0,290.0,796.0,224.0,-253.0,-402.0,529.0
-84.0,-122.0,147.0,432.0,846.0,237.0,-337.0,-424.0,622.0
-94.0,-123.0,169.0,633.0,884.0,264.0,-399.0,-416.0,724.0
-87.0,-126.0,183.0,901.0,917.0,313.0,-378.0,-434.0,798.0
-74.0,-132.0,184.0,1192.0,970.0,337.0,-296.0,-459.0,819.0
-52.0,-136.0,187.0,1450.0,1053.0,342.0,-236.0,-498.0,822.0
-21.0,-144.0,195.0,1666.0,1158.0,329.0,-112.0,-518.0,860.0
16.0,-151.0,203.0,1886.0,1280.0,281.0,49.0,-530.0,897.0
54.0,-149.0,198.0,2056.0,1375.0,182.0,161.0,-550.0,864.0
81.0,-145.0,188.0,2175.0,1469.0,44.0,284.0,-554.0,829.0
94.0,-120.0,176.0,2245.0,1518.0,-116.0,332.0,-479.0,780.0
84.0,-97.0,154.0,2272.0,1528.0,-265.0,321.0,-386.0,681.0
76.0,-79.0,115.0,2232.0,1509.0,-408.0,286.0,-311.0,543.0
68.0,-55.0,67.0,2124.0,1455.0,-507.0,257.0,-232.0,374.0
49.0,-42.0,17.0,1968.0,1393.0,-606.0,203.0,-198.0,179.0
30.0,-28.0,-14.0,1771.0,1319.0,-691.0,130.0,-169.0,13.0
14.0,-30.0,-50.0,1522.0,1233.0,-725.0,57.0,-140.0,-120.0
15.0,-28.0,-95.0,1331.0,1158.0,-748.0,58.0,-142.0,-295.0
30.0,-27.0,-134.0,1141.0,1071.0,-762.0,125.0,-154.0,-509.0
58.0,-26.0,-210.0,941.0,1008.0,-760.0,219.0,-162.0,-794.0
84.0,-24.0,-334.0,732.0,980.0,-741.0,307.0,-149.0,-1273.0
116.0,-33.0,-529.0,551.0,954.0,-665.0,423.0,-185.0,-2032.0
150.0,-96.0,-766.0,454.0,858.0,-505.0,571.0,-415.0,-2967.0
121.0,-246.0,-971.0,407.0,685.0,-367.0,462.0,-922.0,-3801.0
10.0,-391.0,-1051.0,348.0,674.0,-677.0,50.0,-1420.0,-4211.0
-91.0,-462.0,-1081.0,582.0,828.0,-992.0,-462.0,-1841.0,-4403.0
-274.0,-468.0,-1031.0,554.0,1017.0,-801.0,-1147.0,-2112.0,-4236.0
-503.0,-459.0,-702.0,-725.0,1343.0,8.0,-2022.0,-2095.0,-2985.0
-641.0,-583.0,-204.0,-2474.0,1978.0,864.0,-2599.0,-2284.0,-669.0
-587.0,-765.0,219.0,-3523.0,2244.0,1504.0,-1966.0,-2797.0,856.0
-382.0,-756.0,131.0,-3419.0,764.0,1653.0,-1259.0,-2735.0,562.0
-54.0,-651.0,3.0,-2742.0,-1193.0,1756.0,-270.0,-2386.0,112.0
218.0,-630.0,-117.0,-1788.0,-2248.0,2078.0,617.0,-2323.0,-318.0
380.0,-639.0,-169.0,-931.0,-2358.0,2286.0,1376.0,-2428.0,-571.0
516.0,-661.0,-231.0,-316.0,-1705.0,2062.0,1811.0,-2482.0,-805.0
500.0,-671.0,-346.0,214.0,-845.0,1436.0,1762.0,-2502.0,-1271.0
432.0,-680.0,-465.0,698.0,54.0,600.0,1512.0,-2655.0,-1745.0
329.0,-636.0,-425.0,754.0,858.0,-66.0,1214.0,-2542.0,-1729.0
220.0,-600.0,-344.0,613.0,1344.0,-481.0,846.0,-2387.0,-1384.0
121.0,-530.0,-288.0,528.0,1491.0,-733.0,517.0,-2133.0,-1165.0
62.0,-466.0,-237.0,593.0,1393.0,-862.0,262.0,-1795.0,-909.0
10.0,-380.0,-188.0,788.0,1073.0,-887.0,99.0,-1418.0,-705.0
-18.0,-296.0,-165.0,911.0,593.0,-831.0,-36.0,-1173.0,-609.0
-24.0,-246.0,-162.0,758.0,-9.0,-710.0,-88.0,-1032.0,-568.0
-5.0,-220.0,-134.0,397.0,-323.0,-532.0,-54.0,-940.0,-479.0
26.0,-226.0,-102.0,-36.0,-360.0,-317.0,18.0,-927.0,-342.0
52.0,-238.0,-60.0,-398.0,-129.0,-142.0,121.0,-922.0,-186.0
62.0,-240.0,-31.0,-584.0,170.0,-61.0,188.0,-908.0,-44.0
53.0,-239.0,-3.0,-558.0,402.0,-78.0,162.0,-889.0,71.0
40.0,-237.0,4.0,-376.0,571.0,-112.0,128.0,-890.0,116.0
17.0,-229.0,-5.0,-195.0,628.0,-140.0,75.0,-884.0,48.0
-20.0,-227.0,10.0,-114.0,570.0,-158.0,-85.0,-874.0,96.0
-29.0,-241.0,-12.0,-64.0,399.0,-142.0,-108.0,-914.0,49.0
-28.0,-244.0,-21.0,-122.0,199.0,-162.0,-120.0,-945.0,-8.0
-26.0,-252.0,-3.0,-263.0,0.0,-226.0,-113.0,-985.0,79.0
-31.0,-260.0,39.0,-384.0,-156.0,-316.0,-143.0,-1000.0,234.0
-31.0,-274.0,84.0,-412.0,-260.0,-389.0,-140.0,-1037.0,406.0
-29.0,-297.0,111.0,-334.0,-327.0,-459.0,-148.0,-1111.0,516.0
-27.0,-301.0,142.0,-175.0,-382.0,-556.0,-127.0,-1111.0,630.0
-39.0,-279.0,150.0,65.0,-447.0,-666.0,-172.0,-1034.0,685.0
-53.0,-250.0,133.0,337.0,-487.0,-724.0,-234.0,-935.0,616.0
-62.0,-224.0,132.0,573.0,-487.0,-728.0,-266.0,-864.0,585.0
-65.0,-202.0,131.0,715.0,-481.0,-716.0,-287.0,-751.0,577.0
-74.0,-165.0,110.0,822.0,-495.0,-685.0,-296.0,-627.0,508.0
-76.0,-134.0,102.0,875.0,-539.0,-634.0,-290.0,-527.0,469.0
-79.0,-119.0,89.0,889.0,-624.0,-578.0,-324.0,-449.0,431.0
-87.0,-100.0,95.0,891.0,-716.0,-527.0,-353.0,-387.0,449.0
-96.0,-81.0,101.0,936.0,-786.0,-490.0,-382.0,-295.0,447.0
-113.0,-69.0,86.0,1017.0,-821.0,-428.0,-443.0,-266.0,401.0
-132.0,-63.0,86.0,1074.0,-824.0,-322.0,-496.0,-211.0,434.0
-117.0,-60.0,101.0,1152.0,-824.0,-163.0,-472.0,-188.0,456.0
-113.0,-57.0,102.0,1276.0,-831.0,-70.0,-448.0,-188.0,474.0
-116.0,-54.0,128.0,1384.0,-852.0,18.0,-464.0,-170.0,580.0
-114.0,-59.0,151.0,1544.0,-849.0,123.0,-462.0,-174.0,654.0
-95.0,-64.0,161.0,1755.0,-854.0,252.0,-399.0,-203.0,704.0
-71.0,-67.0,149.0,2023.0,-881.0,353.0,-288.0,-206.0,692.0
-63.0,-62.0,133.0,2281.0,-968.0,401.0,-238.0,-206.0,613.0
-69.0,-51.0,99.0,2451.0,-1108.0,400.0,-247.0,-198.0,483.0
-73.0,-38.0,49.0,2479.0,-1276.0,378.0,-266.0,-184.0,293.0
-84.0,-21.0,-8.0,2345.0,-1482.0,339.0,-332.0,-144.0,35.0
-103.0,0.0,-60.0,2027.0,-1627.0,320.0,-412.0,-41.0,-169.0
-111.0,14.0,-112.0,1677.0,-1735.0,337.0,-434.0,-9.0,-368.0
-96.0,14.0,-145.0,1281.0,-1801.0,399.0,-390.0,-15.0,-493.0
-74.0,4.0,-164.0,888.0,-1804.0,471.0,-298.0,-44.0,-581.0
-41.0,-3.0,-161.0,519.0,-1726.0,554.0,-175.0,-66.0,-582.0
-3.0,-11.0,-138.0,200.0,-1617.0,642.0,-27.0,-99.0,-485.0
47.0,-29.0,-98.0,-43.0,-1522.0,734.0,133.0,-152.0,-330.0
87.0,-66.0,-47.0,-230.0,-1442.0,800.0,296.0,-264.0,-135.0
131.0,-104.0,-1.0,-362.0,-1332.0,822.0,446.0,-396.0,54.0
175.0,-134.0,44.0,-437.0,-1218.0,791.0,605.0,-498.0,209.0
164.0,-155.0,75.0,-360.0,-1097.0,705.0,613.0,-547.0,363.0
149.0,-169.0,44.0,-177.0,-1007.0,578.0,551.0,-641.0,264.0
133.0,-176.0,-23.0,-37.0,-941.0,449.0,486.0,-676.0,-26.0
139.0,-183.0,-108.0,30.0,-898.0,332.0,517.0,-733.0,-395.0
170.0,-198.0,-237.0,7.0,-870.0,209.0,613.0,-808.0,-892.0
225.0,-248.0,-407.0,-59.0,-828.0,60.0,805.0,-992.0,-1548.0
291.0,-330.0,-563.0,-137.0,-731.0,-119.0,1032.0,-1291.0,-2158.0
353.0,-414.0,-643.0,-153.0,-541.0,-386.0,1258.0,-1558.0,-2497.0
394.0,-479.0,-686.0,131.0,-232.0,-568.0,1454.0,-1868.0,-2726.0
437.0,-569.0,-728.0,475.0,36.0,-722.0,1593.0,-2258.0,-2896.0
373.0,-646.0,-739.0,458.0,338.0,-1092.0,1344.0,-2638.0,-2945.0
277.0,-648.0,-641.0,-307.0,644.0,-1804.0,1048.0,-2760.0,-2647.0
179.0,-752.0,-301.0,-1645.0,621.0,-2325.0,770.0,-3002.0,-1499.0
84.0,-880.0,116.0,-2804.0,200.0,-2685.0,366.0,-3306.0,113.0
20.0,-875.0,226.0,-3102.0,-202.0,-2916.0,76.0,-3350.0,1161.0
-19.0,-824.0,119.0,-2542.0,-255.0,-2827.0,-236.0,-2938.0,564.0
-73.0,-809.0,60.0,-1472.0,214.0,-2363.0,-452.0,-2921.0,284.0
-166.0,-808.0,6.0,163.0,778.0,-2081.0,-744.0,-2886.0,90.0
-261.0,-722.0,-44.0,1482.0,932.0,-1819.0,-1040.0,-2623.0,-106.0
-298.0,-558.0,-111.0,2515.0,772.0,-1481.0,-1159.0,-2108.0,-356.0
-278.0,-440.0,-179.0,3119.0,463.0,-1123.0,-1075.0,-1724.0,-613.0
-275.0,-374.0,-237.0,3281.0,67.0,-773.0,-1055.0,-1520.0,-860.0
-261.0,-334.0,-266.0,3081.0,-312.0,-364.0,-1056.0,-1394.0,-994.0
-233.0,-326.0,-278.0,2696.0,-521.0,114.0,-947.0,-1348.0,-1043.0
-159.0,-326.0,-284.0,2238.0,-538.0,605.0,-702.0,-1354.0,-1070.0
-110.0,-324.0,-280.0,1739.0,-429.0,1074.0,-513.0,-1332.0,-1057.0
-63.0,-321.0,-275.0,1200.0,-223.0,1362.0,-339.0,-1296.0,-1050.0
-17.0,-312.0,-242.0,827.0,-49.0,1546.0,-168.0,-1256.0,-951.0
17.0,-284.0,-203.0,569.0,80.0,1632.0,-11.0,-1129.0,-763.0
64.0,-258.0,-171.0,413.0,204.0,1651.0,203.0,-1023.0,-620.0
100.0,-242.0,-149.0,312.0,332.0,1612.0,347.0,-934.0,-518.0
128.0,-209.0,-118.0,193.0,464.0,1473.0,446.0,-834.0,-389.0
126.0,-170.0,-53.0,62.0,590.0,1242.0,453.0,-669.0,-160.0
137.0,-156.0,-73.0,-38.0,697.0,981.0,490.0,-659.0,-205.0
135.0,-155.0,-88.0,-262.0,821.0,630.0,486.0,-671.0,-285.0
99.0,-170.0,-74.0,-724.0,916.0,353.0,384.0,-714.0,-259.0
59.0,-186.0,-32.0,-1084.0,899.0,164.0,246.0,-716.0,-76.0
42.0,-196.0,-27.0,-1267.0,789.0,76.0,161.0,-754.0,-36.0
31.0,-199.0,-3.0,-1309.0,645.0,27.0,113.0,-750.0,55.0
32.0,-201.0,2.0,-1199.0,480.0,-5.0,117.0,-758.0,72.0
46.0,-203.0,-17.0,-1017.0,321.0,-53.0,155.0,-757.0,1.0
50.0,-187.0,-37.0,-852.0,236.0,-135.0,159.0,-720.0,-67.0
51.0,-172.0,-43.0,-759.0,233.0,-207.0,143.0,-669.0,-92.0
31.0,-160.0,-33.0,-719.0,309.0,-254.0,77.0,-629.0,-58.0
13.0,-158.0,-19.0,-689.0,460.0,-254.0,-3.0,-611.0,2.0
-9.0,-162.0,0.0,-661.0,585.0,-208.0,-86.0,-608.0,71.0
-23.0,-160.0,14.0,-600.0,693.0,-130.0,-118.0,-629.0,135.0
-22.0,-162.0,15.0,-521.0,770.0,-43.0,-116.0,-636.0,125.0
-19.0,-158.0,15.0,-470.0,818.0,45.0,-102.0,-622.0,139.0
-12.0,-155.0,10.0,-437.0,852.0,136.0,-76.0,-595.0,129.0
-12.0,-143.0,11.0,-415.0,887.0,218.0,-67.0,-562.0,117.0
-5.0,-130.0,3.0,-391.0,902.0,278.0,-45.0,-522.0,96.0
1.0,-120.0,5.0,-372.0,888.0,297.0,-9.0,-471.0,70.0
3.0,-106.0,3.0,-358.0,838.0,287.0,-2.0,-399.0,89.0
11.0,-88.0,15.0,-304.0,791.0,270.0,38.0,-315.0,125.0
27.0,-83.0,10.0,-205.0,767.0,239.0,79.0,-302.0,101.0
32.0,-76.0,19.0,-93.0,777.0,179.0,112.0,-285.0,144.0
31.0,-87.0,-5.0,35.0,823.0,102.0,108.0,-340.0,60.0
23.0,-105.0,-12.0,92.0,881.0,50.0,77.0,-392.0,26.0
21.0,-110.0,5.0,101.0,953.0,36.0,43.0,-419.0,82.0
21.0,-113.0,11.0,145.0,1038.0,32.0,51.0,-424.0,110.0
20.0,-123.0,5.0,209.0,1118.0,38.0,56.0,-482.0,79.0
20.0,-139.0,1.0,244.0,1219.0,34.0,48.0,-538.0,81.0
17.0,-149.0,12.0,248.0,1303.0,20.0,36.0,-562.0,111.0
14.0,-147.0,24.0,268.0,1364.0,30.0,26.0,-564.0,161.0
12.0,-140.0,39.0,337.0,1409.0,64.0,22.0,-538.0,205.0
14.0,-136.0,37.0,434.0,1452.0,92.0,30.0,-508.0,229.0
8.0,-121.0,43.0,522.0,1496.0,111.0,7.0,-457.0,249.0
6.0,-114.0,37.0,600.0,1536.0,134.0,8.0,-436.0,219.0
10.0,-110.0,21.0,645.0,1589.0,136.0,3.0,-437.0,165.0
6.0,-104.0,11.0,632.0,1645.0,98.0,17.0,-420.0,128.0
17.0,-109.0,-9.0,580.0,1682.0,60.0,43.0,-431.0,51.0
16.0,-105.0,-24.0,463.0,1697.0,19.0,49.0,-425.0,2.0
17.0,-110.0,-33.0,344.0,1684.0,-2.0,57.0,-456.0,-57.0
22.0,-127.0,-50.0,206.0,1649.0,-47.0,86.0,-516.0,-121.0
19.0,-139.0,-54.0,56.0,1579.0,-111.0,80.0,-551.0,-134.0
20.0,-156.0,-59.0,-71.0,1456.0,-167.0,70.0,-624.0,-167.0
4.0,-178.0,-61.0,-168.0,1292.0,-196.0,26.0,-684.0,-188.0
-9.0,-201.0,-58.0,-230.0,1120.0,-233.0,-22.0,-766.0,-185.0
-22.0,-233.0,-49.0,-249.0,946.0,-277.0,-77.0,-897.0,-138.0
-39.0,-251.0,-40.0,-227.0,763.0,-330.0,-177.0,-968.0,-84.0
-60.0,-272.0,-26.0,-147.0,662.0,-339.0,-269.0,-1044.0,-31.0
-77.0,-286.0,-13.0,-58.0,610.0,-319.0,-335.0,-1100.0,22.0
-91.0,-293.0,-5.0,40.0,610.0,-263.0,-402.0,-1125.0,57.0
-102.0,-300.0,-2.0,125.0,648.0,-175.0,-445.0,-1150.0,61.0
-114.0,-307.0,-20.0,161.0,713.0,-59.0,-479.0,-1184.0,16.0
-122.0,-310.0,-30.0,119.0,788.0,58.0,-507.0,-1212.0,-34.0
-122.0,-312.0,-49.0,-2.0,825.0,198.0,-499.0,-1231.0,-105.0
-130.0,-318.0,-66.0,-179.0,827.0,332.0,-520.0,-1253.0,-178.0
-138.0,-325.0,-95.0,-379.0,765.0,487.0,-560.0,-1289.0,-319.0
-148.0,-350.0,-140.0,-630.0,655.0,595.0,-583.0,-1362.0,-462.0
-159.0,-375.0,-186.0,-826.0,498.0,696.0,-630.0,-1444.0,-674.0
-169.0,-400.0,-215.0,-970.0,319.0,771.0,-676.0,-1548.0,-807.0
-167.0,-439.0,-225.0,-1016.0,131.0,846.0,-681.0,-1670.0,-861.0
-146.0,-484.0,-213.0,-942.0,-59.0,933.0,-589.0,-1813.0,-812.0
-94.0,-504.0,-183.0,-765.0,-261.0,1041.0,-361.0,-1915.0,-659.0
-19.0,-512.0,-146.0,-509.0,-449.0,1122.0,-111.0,-1940.0,-532.0
9.0,-486.0,-121.0,-238.0,-554.0,1127.0,-5.0,-1848.0,-414.0
15.0,-452.0,-99.0,-31.0,-561.0,1062.0,11.0,-1751.0,-330.0
19.0,-432.0,-83.0,64.0,-510.0,1000.0,26.0,-1677.0,-256.0
38.0,-430.0,-89.0,39.0,-448.0,933.0,72.0,-1645.0,-258.0
54.0,-421.0,-110.0,-15.0,-390.0,836.0,142.0,-1640.0,-362.0
76.0,-411.0,-128.0,-26.0,-347.0,751.0,232.0,-1580.0,-434.0
110.0,-414.0,-144.0,75.0,-288.0,694.0,367.0,-1568.0,-499.0
157.0,-412.0,-146.0,279.0,-205.0,607.0,527.0,-1554.0,-519.0
182.0,-414.0,-170.0,540.0,-103.0,491.0,648.0,-1572.0,-586.0
200.0,-418.0,-185.0,772.0,23.0,344.0,708.0,-1609.0,-665.0
214.0,-431.0,-195.0,913.0,160.0,159.0,754.0,-1665.0,-719.0
209.0,-445.0,-189.0,951.0,329.0,-4.0,754.0,-1729.0,-707.0
203.0,-454.0,-181.0,920.0,438.0,-133.0,730.0,-1764.0,-641.0
190.0,-447.0,-155.0,893.0,489.0,-230.0,694.0,-1726.0,-555.0
175.0,-421.0,-133.0,899.0,485.0,-290.0,630.0,-1641.0,-464.0
149.0,-387.0,-108.0,930.0,432.0,-333.0,546.0,-1504.0,-359.0
115.0,-343.0,-84.0,948.0,344.0,-354.0,429.0,-1366.0,-284.0
88.0,-309.0,-80.0,906.0,229.0,-359.0,334.0,-1247.0,-253.0
73.0,-284.0,-78.0,768.0,101.0,-351.0,268.0,-1149.0,-254.0
52.0,-265.0,-80.0,551.0,-21.0,-348.0,200.0,-1079.0,-254.0
38.0,-265.0,-89.0,256.0,-116.0,-344.0,120.0,-1076.0,-289.0
24.0,-272.0,-83.0,21.0,-149.0,-355.0,53.0,-1077.0,-269.0
4.0,-271.0,-76.0,-140.0,-174.0,-381.0,-15.0,-1051.0,-225.0
-19.0,-266.0,-65.0,-194.0,-200.0,-407.0,-109.0,-1035.0,-205.0
-40.0,-260.0,-57.0,-167.0,-225.0,-414.0,-175.0,-1004.0,-170.0
-51.0,-256.0,-50.0,-86.0,-259.0,-404.0,-211.0,-964.0,-138.0
-54.0,-253.0,-56.0,22.0,-296.0,-392.0,-235.0,-953.0,-151.0
-61.0,-247.0,-57.0,101.0,-339.0,-387.0,-260.0,-946.0,-153.0
-69.0,-237.0,-53.0,140.0,-394.0,-388.0,-286.0,-913.0,-135.0
-74.0,-228.0,-54.0,161.0,-454.0,-390.0,-301.0,-885.0,-131.0
-74.0,-225.0,-54.0,138.0,-484.0,-388.0,-321.0,-876.0,-145.0
-79.0,-215.0,-55.0,64.0,-485.0,-374.0,-340.0,-855.0,-145.0
-83.0,-201.0,-51.0,-44.0,-468.0,-336.0,-348.0,-808.0,-139.0
-74.0,-191.0,-49.0,-167.0,-463.0,-287.0,-335.0,-765.0,-113.0
-68.0,-184.0,-39.0,-292.0,-462.0,-246.0,-273.0,-712.0,-67.0
-49.0,-175.0,-22.0,-394.0,-455.0,-218.0,-202.0,-668.0,-6.0
-27.0,-163.0,-8.0,-452.0,-444.0,-213.0,-128.0,-633.0,47.0
-9.0,-156.0,4.0,-475.0,-431.0,-224.0,-62.0,-608.0,81.0
6.0,-152.0,12.0,-469.0,-413.0,-252.0,10.0,-577.0,127.0
23.0,-143.0,23.0,-419.0,-392.0,-288.0,65.0,-560.0,155.0
31.0,-132.0,48.0,-316.0,-363.0,-341.0,98.0,-494.0,232.0
31.0,-129.0,37.0,-143.0,-348.0,-388.0,100.0,-476.0,225.0
24.0,-125.0,31.0,41.0,-350.0,-427.0,67.0,-461.0,199.0
25.0,-122.0,20.0,196.0,-365.0,-443.0,79.0,-469.0,154.0
24.0,-119.0,10.0,309.0,-379.0,-439.0,93.0,-456.0,130.0
33.0,-118.0,-6.0,393.0,-409.0,-404.0,113.0,-460.0,72.0
37.0,-115.0,-3.0,435.0,-448.0,-343.0,124.0,-454.0,55.0
38.0,-119.0,-11.0,456.0,-503.0,-245.0,136.0,-480.0,30.0
51.0,-131.0,-18.0,445.0,-550.0,-158.0,178.0,-520.0,-8.0
63.0,-138.0,-33.0,405.0,-600.0,-83.0,236.0,-566.0,-43.0
84.0,-153.0,-34.0,338.0,-652.0,-46.0,299.0,-600.0,-62.0
95.0,-154.0,-36.0,264.0,-690.0,-45.0,336.0,-622.0,-73.0
88.0,-149.0,-32.0,204.0,-701.0,-68.0,323.0,-594.0,-52.0
79.0,-140.0,-28.0,178.0,-688.0,-79.0,294.0,-559.0,-45.0
65.0,-140.0,-18.0,170.0,-677.0,-84.0,262.0,-533.0,-50.0
64.0,-131.0,-36.0,164.0,-678.0,-80.0,239.0,-517.0,-68.0
59.0,-130.0,-37.0,145.0,-683.0,-86.0,208.0,-509.0,-77.0
51.0,-130.0,-42.0,108.0,-680.0,-88.0,173.0,-512.0,-78.0
33.0,-129.0,-36.0,65.0,-671.0,-91.0,123.0,-517.0,-65.0
26.0,-136.0,-24.0,14.0,-653.0,-80.0,71.0,-530.0,-30.0
12.0,-139.0,-14.0,-27.0,-637.0,-67.0,23.0,-548.0,18.0
-1.0,-150.0,-2.0,-49.0,-624.0,-40.0,-25.0,-580.0,50.0
-9.0,-159.0,1.0,-54.0,-608.0,1.0,-55.0,-619.0,75.0
-14.0,-165.0,8.0,-48.0,-592.0,62.0,-76.0,-656.0,109.0
-14.0,-183.0,10.0,-40.0,-580.0,124.0,-81.0,-717.0,109.0
-19.0,-203.0,17.0,-40.0,-566.0,199.0,-111.0,-780.0,152.0
-17.0,-205.0,30.0,-17.0,-557.0,251.0,-94.0,-793.0,182.0
-12.0,-213.0,34.0,22.0,-554.0,334.0,-84.0,-824.0,205.0
-15.0,-225.0,38.0,64.0,-541.0,399.0,-82.0,-851.0,212.0
-16.0,-228.0,29.0,90.0,-532.0,449.0,-94.0,-873.0,201.0
-15.0,-231.0,26.0,89.0,-531.0,482.0,-87.0,-893.0,193.0
-12.0,-237.0,27.0,69.0,-545.0,510.0,-83.0,-914.0,172.0
-12.0,-236.0,27.0,32.0,-572.0,515.0,-59.0,-920.0,170.0
-7.0,-241.0,15.0,-4.0,-605.0,521.0,-51.0,-930.0,144.0
-4.0,-245.0,9.0,-41.0,-636.0,521.0,-26.0,-945.0,109.0
8.0,-247.0,0.0,-91.0,-654.0,516.0,5.0,-957.0,69.0
22.0,-251.0,-13.0,-139.0,-662.0,499.0,53.0,-974.0,33.0
39.0,-260.0,-14.0,-185.0,-655.0,474.0,97.0,-1006.0,5.0
44.0,-258.0,-23.0,-223.0,-638.0,422.0,150.0,-1020.0,-11.0
58.0,-266.0,-22.0,-252.0,-620.0,388.0,196.0,-1039.0,-15.0
66.0,-269.0,-23.0,-275.0,-596.0,345.0,224.0,-1058.0,-7.0
80.0,-278.0,-15.0,-296.0,-561.0,300.0,258.0,-1085.0,10.0
91.0,-288.0,-3.0,-321.0,-521.0,244.0,303.0,-1114.0,61.0
95.0,-297.0,11.0,-341.0,-478.0,166.0,330.0,-1142.0,109.0
103.0,-305.0,32.0,-355.0,-437.0,81.0,351.0,-1167.0,197.0
109.0,-310.0,50.0,-342.0,-406.0,36.0,374.0,-1195.0,274.0
112.0,-321.0,68.0,-303.0,-374.0,-17.0,388.0,-1229.0,347.0
116.0,-327.0,77.0,-239.0,-340.0,-87.0,398.0,-1251.0,396.0
117.0,-335.0,78.0,-153.0,-310.0,-155.0,412.0,-1272.0,398.0
118.0,-340.0,83.0,-56.0,-284.0,-213.0,409.0,-1296.0,401.0
107.0,-340.0,82.0,58.0,-266.0,-283.0,373.0,-1290.0,402.0
104.0,-346.0,59.0,197.0,-247.0,-322.0,363.0,-1334.0,328.0
103.0,-348.0,45.0,325.0,-220.0,-356.0,348.0,-1338.0,235.0
104.0,-352.0,5.0,445.0,-187.0,-378.0,360.0,-1362.0,106.0
84.0,-347.0,-27.0,502.0,-162.0,-422.0,296.0,-1349.0,-20.0
74.0,-351.0,-61.0,523.0,-138.0,-445.0,255.0,-1368.0,-158.0
67.0,-351.0,-95.0,513.0,-125.0,-474.0,241.0,-1371.0,-273.0
66.0,-352.0,-117.0,473.0,-118.0,-505.0,215.0,-1382.0,-399.0
60.0,-359.0,-136.0,408.0,-105.0,-540.0,196.0,-1399.0,-480.0
62.0,-358.0,-159.0,312.0,-75.0,-568.0,194.0,-1415.0,-550.0
55.0,-360.0,-172.0,189.0,-31.0,-608.0,172.0,-1421.0,-613.0
48.0,-362.0,-186.0,59.0,28.0,-667.0,131.0,-1424.0,-672.0
29.0,-367.0,-194.0,-73.0,116.0,-729.0,80.0,-1431.0,-700.0
4.0,-364.0,-179.0,-144.0,166.0,-798.0,-11.0,-1412.0,-653.0
-25.0,-353.0,-147.0,-188.0,159.0,-861.0,-118.0,-1370.0,-532.0
-35.0,-346.0,-115.0,-221.0,106.0,-894.0,-149.0,-1343.0,-413.0
-23.0,-338.0,-76.0,-261.0,31.0,-906.0,-125.0,-1321.0,-272.0
-18.0,-336.0,-57.0,-304.0,-38.0,-894.0,-107.0,-1309.0,-157.0
-17.0,-336.0,-27.0,-312.0,-69.0,-849.0,-109.0,-1282.0,-45.0
-22.0,-335.0,-19.0,-251.0,-54.0,-778.0,-124.0,-1278.0,-11.0
-40.0,-325.0,-24.0,-130.0,-21.0,-710.0,-194.0,-1240.0,-24.0
-61.0,-323.0,-39.0,67.0,-14.0,-610.0,-274.0,-1221.0,-85.0
-84.0,-313.0,-56.0,224.0,-29.0,-511.0,-356.0,-1203.0,-140.0
-105.0,-308.0,-71.0,357.0,-60.0,-397.0,-433.0,-1180.0,-199.0
-118.0,-300.0,-80.0,447.0,-109.0,-281.0,-487.0,-1159.0,-257.0
-117.0,-292.0,-93.0,465.0,-168.0,-177.0,-472.0,-1145.0,-307.0
-107.0,-289.0,-99.0,415.0,-236.0,-78.0,-456.0,-1139.0,-337.0
-97.0,-292.0,-107.0,317.0,-280.0,27.0,-416.0,-1145.0,-351.0
-88.0,-296.0,-100.0,204.0,-300.0,122.0,-399.0,-1150.0,-327.0
-82.0,-295.0,-81.0,115.0,-303.0,209.0,-360.0,-1154.0,-277.0
-69.0,-299.0,-67.0,69.0,-297.0,300.0,-328.0,-1148.0,-212.0
-58.0,-296.0,-56.0,89.0,-291.0,355.0,-262.0,-1132.0,-148.0
-49.0,-285.0,-38.0,154.0,-283.0,387.0,-239.0,-1094.0,-69.0
-38.0,-279.0,-29.0,247.0,-266.0,419.0,-186.0,-1070.0,-44.0
-25.0,-270.0,-30.0,333.0,-240.0,435.0,-140.0,-1031.0,-37.0
-19.0,-260.0,-38.0,394.0,-204.0,440.0,-110.0,-1018.0,-70.0
-8.0,-256.0,-52.0,407.0,-154.0,441.0,-69.0,-1010.0,-120.0
-2.0,-243.0,-50.0,369.0,-92.0,430.0,-39.0,-945.0,-119.0
12.0,-232.0,-56.0,318.0,-36.0,426.0,11.0,-907.0,-139.0
25.0,-228.0,-57.0,254.0,26.0,435.0,56.0,-897.0,-155.0
36.0,-226.0,-58.0,198.0,72.0,438.0,98.0,-877.0,-154.0
41.0,-218.0,-52.0,144.0,106.0,436.0,126.0,-850.0,-139.0
46.0,-210.0,-52.0,113.0,128.0,443.0,145.0,-820.0,-130.0
56.0,-200.0,-55.0,98.0,144.0,454.0,175.0,-797.0,-152.0
61.0,-197.0,-65.0,81.0,169.0,465.0,210.0,-786.0,-176.0
64.0,-189.0,-61.0,37.0,198.0,465.0,225.0,-761.0,-181.0
65.0,-185.0,-65.0,-27.0,231.0,463.0,224.0,-730.0,-179.0
63.0,-183.0,-57.0,-96.0,268.0,457.0,212.0,-720.0,-161.0
59.0,-186.0,-57.0,-163.0,316.0,447.0,203.0,-725.0,-151.0
57.0,-191.0,-49.0,-203.0,361.0,422.0,194.0,-732.0,-137.0
41.0,-189.0,-61.0,-226.0,409.0,397.0,166.0,-738.0,-105.0
36.0,-183.0,-46.0,-229.0,449.0,370.0,114.0,-735.0,-66.0
19.0,-188.0,-37.0,-207.0,480.0,357.0,71.0,-727.0,-62.0
5.0,-186.0,-36.0,-172.0,496.0,354.0,22.0,-726.0,-71.0
-3.0,-186.0,-36.0,-143.0,491.0,361.0,-7.0,-711.0,-82.0
-6.0,-185.0,-38.0,-129.0,474.0,361.0,-27.0,-690.0,-91.0
-7.0,-179.0,-49.0,-129.0,452.0,361.0,-53.0,-677.0,-103.0
-12.0,-166.0,-45.0,-141.0,434.0,351.0,-64.0,-656.0,-104.0
-14.0,-167.0,-49.0,-158.0,427.0,345.0,-78.0,-658.0,-119.0
-20.0,-168.0,-50.0,-183.0,432.0,330.0,-100.0,-658.0,-116.0
-23.0,-170.0,-47.0,-210.0,438.0,319.0,-126.0,-665.0,-98.0
-26.0,-176.0,-40.0,-231.0,449.0,303.0,-141.0,-682.0,-80.0
-37.0,-184.0,-35.0,-247.0,457.0,289.0,-159.0,-706.0,-60.0
-38.0,-193.0,-33.0,-258.0,461.0,269.0,-168.0,-745.0,-48.0
-38.0,-203.0,-27.0,-269.0,460.0,250.0,-180.0,-788.0,-34.0
-47.0,-216.0,-22.0,-284.0,460.0,225.0,-190.0,-827.0,-26.0
-43.0,-227.0,-22.0,-287.0,454.0,205.0,-194.0,-862.0,-13.0
-47.0,-231.0,-12.0,-277.0,449.0,189.0,-209.0,-882.0,8.0
-45.0,-234.0,-16.0,-249.0,443.0,177.0,-210.0,-901.0,13.0
-46.0,-234.0,-15.0,-214.0,438.0,159.0,-204.0,-898.0,17.0
-43.0,-238.0,-19.0,-179.0,441.0,143.0,-206.0,-905.0,11.0
-42.0,-231.0,-15.0,-147.0,447.0,120.0,-206.0,-880.0,16.0
-46.0,-226.0,-11.0,-113.0,450.0,104.0,-210.0,-863.0,22.0
-45.0,-225.0,-15.0,-81.0,448.0,92.0,-197.0,-862.0,13.0
-43.0,-223.0,-14.0,-60.0,444.0,83.0,-186.0,-853.0,11.0
-37.0,-219.0,-18.0,-47.0,435.0,63.0,-178.0,-847.0,18.0
-33.0,-224.0,-17.0,-37.0,422.0,49.0,-162.0,-848.0,10.0
-30.0,-225.0,-20.0,-31.0,408.0,29.0,-143.0,-853.0,7.0
-32.0,-220.0,-14.0,-23.0,395.0,12.0,-144.0,-848.0,32.0
-27.0,-222.0,-11.0,-5.0,381.0,-5.0,-122.0,-851.0,31.0
-21.0,-220.0,-9.0,12.0,363.0,-25.0,-107.0,-854.0,30.0
-18.0,-216.0,-3.0,22.0,345.0,-54.0,-101.0,-850.0,35.0
-12.0,-220.0,-11.0,21.0,329.0,-78.0,-70.0,-857.0,34.0
-7.0,-220.0,-6.0,7.0,317.0,-107.0,-52.0,-852.0,46.0
-6.0,-220.0,-5.0,-17.0,313.0,-135.0,-49.0,-864.0,63.0
-6.0,-221.0,-1.0,-53.0,320.0,-184.0,-35.0,-856.0,81.0
-2.0,-217.0,8.0,-82.0,332.0,-221.0,-37.0,-852.0,90.0
-8.0,-218.0,5.0,-117.0,347.0,-253.0,-49.0,-854.0,95.0
-10.0,-217.0,8.0,-162.0,360.0,-262.0,-49.0,-856.0,98.0
-4.0,-220.0,10.0,-214.0,372.0,-253.0,-53.0,-852.0,115.0
-3.0,-218.0,9.0,-257.0,399.0,-241.0,-44.0,-848.0,117.0
-4.0,-217.0,17.0,-293.0,434.0,-234.0,-35.0,-847.0,132.0
5.0,-221.0,12.0,-316.0,476.0,-219.0,-17.0,-850.0,130.0
5.0,-223.0,12.0,-331.0,529.0,-214.0,-2.0,-862.0,121.0
6.0,-224.0,10.0,-340.0,567.0,-212.0,2.0,-872.0,112.0
9.0,-229.0,6.0,-346.0,596.0,-211.0,6.0,-878.0,105.0
16.0,-237.0,9.0,-354.0,616.0,-204.0,20.0,-902.0,102.0
16.0,-241.0,8.0,-355.0,633.0,-214.0,40.0,-922.0,105.0
19.0,-248.0,10.0,-341.0,652.0,-228.0,49.0,-962.0,112.0
23.0,-261.0,9.0,-321.0,670.0,-247.0,49.0,-1012.0,119.0
17.0,-269.0,14.0,-301.0,692.0,-256.0,46.0,-1048.0,134.0
16.0,-283.0,13.0,-281.0,712.0,-261.0,36.0,-1096.0,132.0
12.0,-289.0,15.0,-271.0,738.0,-260.0,19.0,-1113.0,143.0
7.0,-297.0,15.0,-255.0,749.0,-260.0,-3.0,-1140.0,131.0
-1.0,-302.0,10.0,-237.0,752.0,-242.0,-26.0,-1158.0,116.0
-4.0,-304.0,8.0,-217.0,755.0,-222.0,-47.0,-1176.0,106.0
-12.0,-310.0,8.0,-187.0,748.0,-199.0,-81.0,-1178.0,98.0
-23.0,-309.0,6.0,-150.0,745.0,-176.0,-111.0,-1200.0,84.0
-28.0,-316.0,0.0,-120.0,741.0,-148.0,-137.0,-1199.0,82.0
-38.0,-315.0,0.0,-97.0,735.0,-120.0,-168.0,-1204.0,80.0
-39.0,-318.0,3.0,-81.0,727.0,-90.0,-193.0,-1216.0,84.0
-45.0,-313.0,12.0,-74.0,710.0,-60.0,-216.0,-1197.0,121.0
-49.0,-314.0,17.0,-58.0,701.0,-31.0,-234.0,-1200.0,149.0
-54.0,-313.0,29.0,-49.0,699.0,-8.0,-244.0,-1204.0,191.0
-59.0,-313.0,40.0,-50.0,706.0,13.0,-254.0,-1204.0,223.0
-62.0,-315.0,52.0,-53.0,718.0,36.0,-274.0,-1202.0,266.0
-68.0,-310.0,56.0,-47.0,729.0,59.0,-288.0,-1183.0,297.0
-65.0,-304.0,57.0,-26.0,732.0,83.0,-280.0,-1172.0,285.0
-59.0,-301.0,43.0,8.0,729.0,108.0,-258.0,-1163.0,263.0
-57.0,-299.0,39.0,48.0,737.0,137.0,-253.0,-1150.0,233.0
-49.0,-304.0,22.0,86.0,758.0,172.0,-216.0,-1161.0,198.0
-41.0,-300.0,13.0,114.0,769.0,183.0,-191.0,-1153.0,153.0
-33.0,-310.0,-7.0,112.0,772.0,193.0,-171.0,-1188.0,41.0
-26.0,-312.0,-26.0,86.0,773.0,202.0,-138.0,-1202.0,-20.0
-24.0,-323.0,-40.0,58.0,764.0,212.0,-120.0,-1253.0,-82.0
-25.0,-329.0,-42.0,27.0,742.0,211.0,-119.0,-1271.0,-98.0
-31.0,-334.0,-51.0,11.0,691.0,207.0,-141.0,-1287.0,-139.0
-33.0,-330.0,-69.0,1.0,615.0,212.0,-158.0,-1277.0,-203.0
-38.0,-329.0,-90.0,-5.0,530.0,227.0,-172.0,-1278.0,-282.0
-35.0,-325.0,-109.0,-21.0,450.0,252.0,-167.0,-1270.0,-361.0
-40.0,-327.0,-122.0,-41.0,398.0,280.0,-185.0,-1263.0,-413.0
-51.0,-323.0,-132.0,-46.0,348.0,320.0,-224.0,-1247.0,-461.0
-61.0,-317.0,-147.0,-37.0,295.0,369.0,-253.0,-1226.0,-504.0
-64.0,-311.0,-153.0,-14.0,236.0,429.0,-282.0,-1185.0,-544.0
-72.0,-294.0,-157.0,13.0,169.0,494.0,-302.0,-1137.0,-576.0
-68.0,-275.0,-160.0,35.0,103.0,579.0,-292.0,-1075.0,-555.0
-58.0,-262.0,-143.0,33.0,41.0,669.0,-240.0,-1044.0,-507.0
-37.0,-260.0,-129.0,-3.0,-13.0,750.0,-174.0,-1021.0,-454.0
-13.0,-257.0,-123.0,-75.0,-58.0,802.0,-98.0,-1014.0,-433.0
13.0,-260.0,-120.0,-189.0,-66.0,808.0,-7.0,-1014.0,-408.0
34.0,-269.0,-106.0,-254.0,-47.0,777.0,98.0,-1042.0,-353.0
56.0,-281.0,-88.0,-251.0,-13.0,725.0,190.0,-1084.0,-272.0
81.0,-293.0,-76.0,-172.0,17.0,654.0,284.0,-1125.0,-224.0
100.0,-309.0,-62.0,-50.0,38.0,575.0,350.0,-1167.0,-177.0
109.0,-318.0,-59.0,94.0,55.0,475.0,371.0,-1198.0,-178.0
108.0,-324.0,-62.0,249.0,80.0,370.0,374.0,-1232.0,-170.0
107.0,-327.0,-55.0,396.0,100.0,266.0,365.0,-1256.0,-151.0
103.0,-329.0,-45.0,529.0,109.0,155.0,360.0,-1275.0,-106.0
105.0,-338.0,-47.0,644.0,105.0,56.0,358.0,-1300.0,-89.0
102.0,-340.0,-41.0,690.0,94.0,-44.0,355.0,-1325.0,-95.0
93.0,-335.0,-45.0,701.0,80.0,-146.0,325.0,-1318.0,-98.0
80.0,-334.0,-42.0,692.0,75.0,-239.0,279.0,-1289.0,-94.0
65.0,-328.0,-34.0,676.0,78.0,-330.0,228.0,-1266.0,-66.0
54.0,-324.0,-33.0,678.0,74.0,-406.0,192.0,-1249.0,-41.0
42.0,-316.0,-27.0,691.0,58.0,-480.0,145.0,-1227.0,-36.0
32.0,-312.0,-28.0,696.0,24.0,-526.0,96.0,-1197.0,-37.0
20.0,-295.0,-21.0,707.0,-27.0,-567.0,61.0,-1145.0,-10.0
17.0,-285.0,-28.0,754.0,-75.0,-599.0,44.0,-1104.0,-48.0
8.0,-264.0,-47.0,769.0,-133.0,-638.0,13.0,-1047.0,-88.0
-2.0,-242.0,-48.0,758.0,-196.0,-664.0,-31.0,-947.0,-106.0
-13.0,-220.0,-64.0,731.0,-264.0,-672.0,-67.0,-883.0,-184.0
-27.0,-202.0,-70.0,662.0,-340.0,-659.0,-118.0,-806.0,-220.0
-26.0,-198.0,-74.0,563.0,-422.0,-645.0,-110.0,-784.0,-231.0
-23.0,-195.0,-76.0,459.0,-512.0,-638.0,-121.0,-769.0,-241.0
-25.0,-189.0,-76.0,358.0,-594.0,-639.0,-128.0,-746.0,-225.0
-24.0,-184.0,-72.0,272.0,-660.0,-618.0,-122.0,-723.0,-222.0
-29.0,-176.0,-70.0,173.0,-671.0,-595.0,-143.0,-705.0,-209.0
-41.0,-171.0,-60.0,96.0,-652.0,-548.0,-181.0,-680.0,-179.0
-44.0,-161.0,-48.0,34.0,-624.0,-482.0,-203.0,-638.0,-123.0
-44.0,-163.0,-46.0,9.0,-587.0,-408.0,-192.0,-636.0,-104.0
-34.0,-159.0,-37.0,-11.0,-558.0,-354.0,-161.0,-623.0,-85.0
-20.0,-155.0,-26.0,-28.0,-539.0,-315.0,-118.0,-593.0,-37.0
-15.0,-151.0,-25.0,-21.0,-522.0,-297.0,-93.0,-580.0,-22.0
-12.0,-149.0,-20.0,-12.0,-507.0,-278.0,-64.0,-572.0,-4.0
-5.0,-150.0,-10.0,-2.0,-509.0,-255.0,-36.0,-576.0,22.0
-1.0,-151.0,-12.0,35.0,-519.0,-234.0,-22.0,-576.0,32.0
5.0,-149.0,-12.0,81.0,-532.0,-226.0,7.0,-581.0,20.0
11.0,-152.0,-17.0,112.0,-552.0,-221.0,25.0,-599.0,3.0
18.0,-156.0,-22.0,123.0,-574.0,-217.0,49.0,-600.0,-1.0
24.0,-156.0,-17.0,130.0,-598.0,-202.0,80.0,-625.0,9.0
31.0,-164.0,-16.0,138.0,-621.0,-182.0,104.0,-644.0,11.0
46.0,-178.0,-14.0,138.0,-638.0,-154.0,148.0,-684.0,19.0
55.0,-189.0,-11.0,130.0,-651.0,-135.0,189.0,-729.0,27.0
68.0,-200.0,-9.0,112.0,-656.0,-121.0,237.0,-783.0,43.0
81.0,-213.0,-3.0,85.0,-660.0,-134.0,280.0,-833.0,49.0
84.0,-220.0,-2.0,62.0,-663.0,-159.0,304.0,-861.0,57.0
87.0,-226.0,1.0,45.0,-669.0,-191.0,306.0,-883.0,71.0
84.0,-225.0,0.0,35.0,-677.0,-213.0,303.0,-878.0,69.0
83.0,-219.0,1.0,29.0,-681.0,-224.0,292.0,-856.0,74.0
83.0,-224.0,-14.0,27.0,-677.0,-212.0,284.0,-875.0,28.0
89.0,-227.0,-12.0,-10.0,-646.0,-201.0,295.0,-882.0,27.0
88.0,-226.0,-15.0,-67.0,-601.0,-186.0,300.0,-888.0,29.0
84.0,-237.0,-8.0,-121.0,-545.0,-176.0,285.0,-909.0,63.0
80.0,-227.0,8.0,-140.0,-471.0,-157.0,271.0,-883.0,101.0
75.0,-230.0,19.0,-125.0,-409.0,-105.0,258.0,-880.0,141.0
72.0,-231.0,27.0,-90.0,-345.0,-56.0,253.0,-885.0,170.0
70.0,-234.0,25.0,-51.0,-285.0,-15.0,238.0,-895.0,170.0
64.0,-233.0,30.0,-17.0,-229.0,26.0,220.0,-898.0,192.0
63.0,-238.0,30.0,22.0,-178.0,56.0,214.0,-909.0,196.0
56.0,-235.0,38.0,61.0,-133.0,69.0,199.0,-904.0,219.0
55.0,-238.0,37.0,112.0,-107.0,95.0,177.0,-904.0,223.0
46.0,-234.0,38.0,177.0,-79.0,134.0,154.0,-904.0,221.0
43.0,-234.0,33.0,246.0,-59.0,162.0,137.0,-902.0,207.0
37.0,-237.0,22.0,285.0,-57.0,186.0,124.0,-914.0,176.0
33.0,-235.0,22.0,289.0,-62.0,202.0,105.0,-908.0,156.0
30.0,-230.0,15.0,268.0,-72.0,219.0,97.0,-898.0,142.0
29.0,-228.0,18.0,229.0,-87.0,238.0,96.0,-888.0,131.0
29.0,-222.0,14.0,183.0,-101.0,252.0,91.0,-876.0,132.0
24.0,-219.0,19.0,133.0,-112.0,260.0,78.0,-861.0,140.0
22.0,-220.0,15.0,84.0,-126.0,269.0,59.0,-855.0,129.0
16.0,-218.0,12.0,27.0,-139.0,278.0,40.0,-851.0,134.0
13.0,-217.0,12.0,-52.0,-157.0,278.0,37.0,-849.0,125.0
13.0,-218.0,13.0,-126.0,-174.0,283.0,22.0,-856.0,122.0
14.0,-224.0,10.0,-208.0,-190.0,286.0,20.0,-878.0,109.0
13.0,-230.0,9.0,-291.0,-202.0,283.0,17.0,-900.0,116.0
8.0,-238.0,15.0,-366.0,-214.0,275.0,8.0,-918.0,132.0
7.0,-241.0,18.0,-412.0,-224.0,262.0,7.0,-930.0,146.0
6.0,-249.0,27.0,-425.0,-243.0,260.0,5.0,-951.0,163.0
12.0,-255.0,21.0,-409.0,-254.0,266.0,19.0,-981.0,155.0
19.0,-261.0,13.0,-376.0,-252.0,252.0,41.0,-1006.0,140.0
24.0,-265.0,7.0,-320.0,-234.0,226.0,60.0,-1023.0,100.0
33.0,-273.0,-9.0,-285.0,-208.0,186.0,87.0,-1053.0,50.0
38.0,-270.0,-11.0,-275.0,-185.0,144.0,112.0,-1053.0,41.0
40.0,-267.0,-3.0,-251.0,-176.0,112.0,129.0,-1031.0,70.0
49.0,-261.0,-4.0,-209.0,-166.0,70.0,156.0,-1021.0,58.0
54.0,-264.0,-7.0,-185.0,-160.0,23.0,186.0,-1039.0,40.0
57.0,-263.0,1.0,-207.0,-163.0,-18.0,198.0,-1044.0,71.0
57.0,-265.0,16.0,-248.0,-169.0,-53.0,193.0,-1037.0,138.0
57.0,-266.0,36.0,-270.0,-178.0,-67.0,201.0,-1039.0,212.0
63.0,-272.0,51.0,-259.0,-184.0,-68.0,224.0,-1055.0,264.0
67.0,-282.0,67.0,-246.0,-189.0,-69.0,243.0,-1092.0,327.0
71.0,-299.0,73.0,-230.0,-198.0,-79.0,244.0,-1145.0,356.0
71.0,-311.0,79.0,-220.0,-206.0,-119.0,255.0,-1203.0,383.0
66.0,-330.0,86.0,-213.0,-239.0,-153.0,231.0,-1257.0,382.0
64.0,-337.0,87.0,-183.0,-265.0,-165.0,225.0,-1279.0,407.0
57.0,-337.0,82.0,-121.0,-276.0,-191.0,195.0,-1281.0,406.0
50.0,-340.0,66.0,-30.0,-276.0,-212.0,180.0,-1296.0,341.0
35.0,-340.0,53.0,54.0,-280.0,-230.0,109.0,-1293.0,276.0
28.0,-343.0,31.0,145.0,-284.0,-230.0,80.0,-1301.0,205.0
29.0,-334.0,25.0,208.0,-297.0,-238.0,91.0,-1274.0,169.0
33.0,-331.0,6.0,273.0,-323.0,-242.0,86.0,-1283.0,97.0
39.0,-333.0,-13.0,299.0,-340.0,-249.0,113.0,-1300.0,31.0
42.0,-328.0,-13.0,285.0,-354.0,-247.0,129.0,-1270.0,32.0
56.0,-327.0,-18.0,269.0,-349.0,-237.0,179.0,-1271.0,-7.0
68.0,-321.0,-31.0,229.0,-311.0,-226.0,218.0,-1255.0,-45.0
76.0,-307.0,-42.0,163.0,-243.0,-232.0,244.0,-1210.0,-84.0
77.0,-300.0,-68.0,89.0,-162.0,-254.0,253.0,-1174.0,-169.0
77.0,-295.0,-90.0,-8.0,-83.0,-287.0,261.0,-1151.0,-263.0
75.0,-300.0,-109.0,-86.0,-50.0,-317.0,260.0,-1159.0,-343.0
74.0,-304.0,-118.0,-149.0,-53.0,-348.0,254.0,-1190.0,-406.0
70.0,-323.0,-114.0,-195.0,-94.0,-380.0,238.0,-1261.0,-388.0
62.0,-345.0,-105.0,-211.0,-170.0,-424.0,211.0,-1334.0,-339.0
48.0,-357.0,-81.0,-195.0,-260.0,-475.0,152.0,-1373.0,-260.0
28.0,-367.0,-64.0,-152.0,-345.0,-532.0,87.0,-1400.0,-197.0
13.0,-363.0,-55.0,-91.0,-404.0,-571.0,24.0,-1398.0,-149.0
7.0,-356.0,-41.0,-13.0,-429.0,-596.0,-26.0,-1358.0,-101.0
-19.0,-336.0,-42.0,115.0,-425.0,-603.0,-99.0,-1290.0,-78.0
-31.0,-321.0,-47.0,238.0,-390.0,-576.0,-171.0,-1214.0,-104.0
-38.0,-297.0,-59.0,344.0,-326.0,-510.0,-188.0,-1145.0,-157.0
-46.0,-266.0,-82.0,415.0,-249.0,-449.0,-220.0,-1054.0,-245.0
-44.0,-239.0,-102.0,416.0,-163.0,-382.0,-223.0,-955.0,-326.0
-61.0,-215.0,-114.0,337.0,-90.0,-322.0,-255.0,-886.0,-386.0
-61.0,-202.0,-120.0,199.0,-39.0,-257.0,-264.0,-826.0,-402.0
-62.0,-195.0,-118.0,35.0,-24.0,-201.0,-271.0,-789.0,-397.0
-65.0,-195.0,-112.0,-129.0,-38.0,-143.0,-260.0,-779.0,-379.0
-58.0,-195.0,-106.0,-289.0,-76.0,-105.0,-245.0,-768.0,-350.0
-55.0,-196.0,-97.0,-377.0,-119.0,-61.0,-225.0,-778.0,-316.0
-42.0,-197.0,-79.0,-425.0,-167.0,-19.0,-186.0,-777.0,-266.0
-28.0,-201.0,-65.0,-446.0,-206.0,22.0,-142.0,-789.0,-209.0
-14.0,-208.0,-54.0,-453.0,-232.0,48.0,-100.0,-809.0,-154.0
-4.0,-221.0,-37.0,-451.0,-249.0,75.0,-48.0,-836.0,-92.0
0.0,-226.0,-39.0,-435.0,-262.0,92.0,-13.0,-878.0,-66.0
13.0,-236.0,-21.0,-415.0,-267.0,111.0,13.0,-904.0,-17.0
16.0,-248.0,-13.0,-370.0,-265.0,134.0,23.0,-930.0,26.0
25.0,-255.0,-9.0,-280.0,-247.0,180.0,55.0,-959.0,46.0
39.0,-262.0,-5.0,-185.0,-212.0,211.0,109.0,-1016.0,57.0
47.0,-268.0,-1.0,-83.0,-162.0,227.0,144.0,-1044.0,60.0
47.0,-278.0,-8.0,28.0,-96.0,241.0,142.0,-1069.0,47.0
53.0,-287.0,-16.0,139.0,-12.0,274.0,150.0,-1097.0,10.0
51.0,-285.0,-28.0,237.0,83.0,309.0,159.0,-1110.0,-24.0
57.0,-283.0,-42.0,311.0,170.0,350.0,191.0,-1109.0,-88.0
66.0,-280.0,-59.0,341.0,241.0,387.0,220.0,-1101.0,-159.0
67.0,-269.0,-75.0,317.0,316.0,411.0,218.0,-1082.0,-217.0
63.0,-260.0,-76.0,221.0,408.0,438.0,214.0,-1036.0,-231.0
54.0,-244.0,-67.0,132.0,476.0,473.0,185.0,-966.0,-202.0
46.0,-237.0,-68.0,75.0,535.0,521.0,139.0,-927.0,-175.0
39.0,-227.0,-67.0,20.0,583.0,569.0,122.0,-911.0,-202.0
36.0,-226.0,-60.0,-56.0,618.0,599.0,119.0,-887.0,-157.0
27.0,-217.0,-50.0,-131.0,627.0,619.0,93.0,-854.0,-112.0
16.0,-220.0,-37.0,-187.0,615.0,648.0,38.0,-849.0,-81.0
13.0,-217.0,-32.0,-226.0,590.0,683.0,31.0,-846.0,-58.0
18.0,-214.0,-29.0,-249.0,564.0,698.0,42.0,-836.0,-35.0
19.0,-209.0,-28.0,-253.0,531.0,678.0,47.0,-808.0,-31.0
19.0,-204.0,-33.0,-246.0,517.0,641.0,55.0,-780.0,-49.0
15.0,-193.0,-37.0,-246.0,521.0,591.0,40.0,-746.0,-58.0
12.0,-186.0,-39.0,-248.0,528.0,548.0,23.0,-723.0,-57.0
8.0,-183.0,-39.0,-252.0,539.0,504.0,14.0,-715.0,-75.0
3.0,-182.0,-33.0,-267.0,549.0,460.0,1.0,-706.0,-60.0
-5.0,-182.0,-32.0,-275.0,554.0,423.0,-28.0,-709.0,-45.0
-6.0,-191.0,-31.0,-274.0,563.0,393.0,-49.0,-722.0,-39.0
-10.0,-193.0,-26.0,-275.0,573.0,365.0,-63.0,-746.0,-31.0
-11.0,-194.0,-21.0,-281.0,578.0,332.0,-77.0,-742.0,0.0
-15.0,-196.0,-15.0,-272.0,579.0,318.0,-100.0,-756.0,-3.0
-20.0,-195.0,-17.0,-271.0,586.0,308.0,-107.0,-761.0,6.0
-22.0,-201.0,-23.0,-278.0,592.0,294.0,-116.0,-780.0,-11.0
-22.0,-205.0,-26.0,-295.0,604.0,282.0,-122.0,-795.0,-25.0
-27.0,-209.0,-31.0,-320.0,628.0,272.0,-132.0,-810.0,-34.0
-31.0,-212.0,-26.0,-347.0,649.0,263.0,-148.0,-831.0,-29.0
-35.0,-216.0,-26.0,-369.0,663.0,253.0,-160.0,-840.0,-27.0
-35.0,-221.0,-25.0,-384.0,666.0,248.0,-168.0,-861.0,-21.0
-32.0,-226.0,-23.0,-387.0,666.0,240.0,-157.0,-869.0,-17.0
-34.0,-230.0,-24.0,-373.0,653.0,234.0,-156.0,-883.0,-17.0
-32.0,-233.0,-16.0,-354.0,636.0,207.0,-155.0,-885.0,-3.0
-31.0,-232.0,-15.0,-323.0,606.0,173.0,-149.0,-882.0,18.0
-28.0,-234.0,-10.0,-286.0,569.0,134.0,-132.0,-893.0,28.0
-30.0,-233.0,-8.0,-244.0,528.0,91.0,-132.0,-898.0,38.0
-27.0,-238.0,-6.0,-199.0,486.0,41.0,-128.0,-899.0,53.0
-33.0,-235.0,0.0,-153.0,443.0,-7.0,-139.0,-895.0,63.0
-28.0,-237.0,2.0,-104.0,403.0,-50.0,-125.0,-903.0,74.0
-27.0,-234.0,1.0,-52.0,360.0,-104.0,-129.0,-897.0,80.0
-25.0,-234.0,3.0,3.0,335.0,-144.0,-136.0,-893.0,91.0
-27.0,-234.0,8.0,46.0,317.0,-175.0,-136.0,-893.0,83.0
-29.0,-234.0,6.0,75.0,307.0,-207.0,-142.0,-889.0,86.0
-32.0,-227.0,8.0,101.0,302.0,-226.0,-145.0,-867.0,111.0
-30.0,-223.0,11.0,131.0,302.0,-241.0,-143.0,-866.0,108.0
-29.0,-219.0,11.0,159.0,310.0,-253.0,-139.0,-853.0,121.0
-28.0,-223.0,8.0,179.0,324.0,-265.0,-137.0,-854.0,117.0
-24.0,-222.0,10.0,182.0,342.0,-264.0,-126.0,-862.0,117.0
-24.0,-223.0,10.0,175.0,355.0,-260.0,-120.0,-867.0,106.0
-21.0,-225.0,9.0,155.0,362.0,-255.0,-117.0,-873.0,105.0
-19.0,-226.0,13.0,133.0,365.0,-256.0,-107.0,-867.0,108.0
-15.0,-227.0,9.0,113.0,367.0,-252.0,-90.0,-879.0,109.0
-12.0,-228.0,9.0,90.0,365.0,-257.0,-69.0,-888.0,114.0
-7.0,-236.0,12.0,64.0,359.0,-258.0,-55.0,-906.0,111.0
-2.0,-240.0,12.0,33.0,353.0,-266.0,-37.0,-914.0,124.0
4.0,-244.0,11.0,12.0,347.0,-265.0,-9.0,-927.0,122.0
9.0,-246.0,9.0,-7.0,341.0,-272.0,8.0,-947.0,127.0
18.0,-249.0,14.0,-24.0,338.0,-276.0,34.0,-966.0,129.0
19.0,-257.0,14.0,-47.0,338.0,-285.0,44.0,-983.0,138.0
19.0,-257.0,13.0,-63.0,342.0,-288.0,51.0,-1001.0,134.0
17.0,-257.0,13.0,-79.0,346.0,-294.0,41.0,-1003.0,126.0
12.0,-259.0,0.0,-91.0,347.0,-289.0,24.0,-1014.0,74.0
3.0,-260.0,-8.0,-109.0,331.0,-283.0,-11.0,-1016.0,31.0
-2.0,-256.0,-10.0,-132.0,298.0,-263.0,-32.0,-1009.0,25.0
-10.0,-263.0,-15.0,-150.0,256.0,-233.0,-66.0,-1021.0,15.0
-15.0,-264.0,-11.0,-156.0,234.0,-206.0,-103.0,-1024.0,23.0
-21.0,-269.0,-16.0,-151.0,223.0,-173.0,-123.0,-1045.0,16.0
-27.0,-277.0,-16.0,-144.0,221.0,-129.0,-135.0,-1071.0,12.0
-32.0,-284.0,-12.0,-148.0,222.0,-93.0,-159.0,-1097.0,16.0
-39.0,-291.0,-6.0,-160.0,223.0,-61.0,-182.0,-1127.0,46.0
-46.0,-298.0,4.0,-176.0,217.0,-37.0,-201.0,-1154.0,70.0
-48.0,-309.0,12.0,-186.0,209.0,-8.0,-219.0,-1192.0,124.0
-49.0,-317.0,24.0,-186.0,206.0,18.0,-225.0,-1218.0,178.0
-50.0,-323.0,39.0,-172.0,217.0,55.0,-229.0,-1243.0,224.0
-45.0,-323.0,49.0,-142.0,238.0,88.0,-218.0,-1247.0,260.0
-42.0,-325.0,50.0,-94.0,261.0,143.0,-203.0,-1250.0,269.0
-32.0,-324.0,53.0,-36.0,290.0,185.0,-166.0,-1249.0,278.0
-21.0,-326.0,52.0,6.0,312.0,219.0,-128.0,-1238.0,271.0
-20.0,-321.0,45.0,39.0,328.0,244.0,-112.0,-1229.0,252.0
-11.0,-318.0,41.0,63.0,341.0,275.0,-74.0,-1221.0,229.0
-6.0,-319.0,27.0,83.0,348.0,292.0,-63.0,-1214.0,195.0
3.0,-322.0,16.0,93.0,362.0,318.0,-18.0,-1236.0,149.0
5.0,-333.0,4.0,80.0,386.0,337.0,-13.0,-1297.0,87.0
4.0,-319.0,14.0,60.0,409.0,361.0,-9.0,-1235.0,130.0
2.0,-313.0,12.0,87.0,421.0,393.0,-19.0,-1198.0,137.0
5.0,-312.0,11.0,146.0,444.0,411.0,-6.0,-1198.0,124.0
1.0,-312.0,3.0,187.0,460.0,403.0,-28.0,-1190.0,97.0
2.0,-309.0,4.0,205.0,471.0,393.0,-23.0,-1187.0,83.0
-9.0,-305.0,-6.0,205.0,465.0,367.0,-50.0,-1174.0,52.0
-12.0,-299.0,-21.0,201.0,451.0,340.0,-78.0,-1162.0,10.0
-15.0,-304.0,-35.0,195.0,440.0,321.0,-92.0,-1176.0,-60.0
-14.0,-309.0,-56.0,187.0,432.0,314.0,-98.0,-1194.0,-132.0
-27.0,-322.0,-79.0,176.0,433.0,311.0,-125.0,-1225.0,-219.0
-30.0,-327.0,-97.0,160.0,438.0,319.0,-170.0,-1264.0,-305.0
-48.0,-326.0,-111.0,133.0,440.0,341.0,-223.0,-1278.0,-367.0
-62.0,-334.0,-121.0,128.0,421.0,381.0,-262.0,-1285.0,-412.0
-68.0,-332.0,-134.0,146.0,378.0,436.0,-283.0,-1281.0,-469.0
-59.0,-326.0,-140.0,169.0,313.0,504.0,-264.0,-1274.0,-501.0
-37.0,-316.0,-136.0,176.0,240.0,566.0,-171.0,-1235.0,-495.0
-16.0,-305.0,-126.0,147.0,174.0,609.0,-107.0,-1193.0,-446.0
-3.0,-292.0,-117.0,87.0,123.0,622.0,-39.0,-1138.0,-400.0
13.0,-275.0,-116.0,10.0,86.0,609.0,28.0,-1074.0,-392.0
35.0,-259.0,-114.0,-62.0,83.0,579.0,104.0,-1023.0,-380.0
58.0,-249.0,-101.0,-105.0,117.0,532.0,195.0,-966.0,-336.0
78.0,-239.0,-87.0,-68.0,166.0,477.0,270.0,-915.0,-277.0
94.0,-231.0,-78.0,19.0,211.0,409.0,319.0,-887.0,-245.0
100.0,-230.0,-73.0,103.0,237.0,333.0,352.0,-882.0,-214.0
106.0,-225.0,-67.0,166.0,243.0,247.0,368.0,-875.0,-190.0
105.0,-225.0,-68.0,218.0,235.0,168.0,375.0,-878.0,-188.0
108.0,-232.0,-68.0,263.0,225.0,88.0,373.0,-894.0,-196.0
97.0,-241.0,-65.0,287.0,216.0,0.0,353.0,-937.0,-184.0
89.0,-253.0,-61.0,278.0,203.0,-100.0,315.0,-1002.0,-169.0
77.0,-266.0,-55.0,239.0,184.0,-219.0,276.0,-1052.0,-156.0
63.0,-275.0,-41.0,173.0,173.0,-316.0,222.0,-1074.0,-99.0
48.0,-282.0,-30.0,147.0,154.0,-385.0,151.0,-1086.0,-50.0
33.0,-281.0,-28.0,160.0,138.0,-423.0,96.0,-1096.0,-30.0
22.0,-286.0,-26.0,185.0,123.0,-437.0,68.0,-1107.0,-27.0
18.0,-285.0,-21.0,202.0,106.0,-446.0,37.0,-1107.0,-14.0
7.0,-286.0,-20.0,211.0,82.0,-450.0,2.0,-1107.0,-10.0
-4.0,-289.0,-23.0,215.0,48.0,-454.0,-35.0,-1120.0,-9.0
-11.0,-292.0,-24.0,213.0,15.0,-454.0,-67.0,-1126.0,-16.0
-17.0,-295.0,-32.0,203.0,-43.0,-457.0,-88.0,-1138.0,-29.0
-22.0,-296.0,-36.0,187.0,-102.0,-459.0,-110.0,-1143.0,-59.0
-29.0,-291.0,-41.0,173.0,-167.0,-461.0,-140.0,-1121.0,-95.0
-32.0,-287.0,-40.0,166.0,-237.0,-457.0,-147.0,-1100.0,-95.0
-36.0,-273.0,-50.0,180.0,-316.0,-465.0,-140.0,-1072.0,-124.0
-28.0,-262.0,-52.0,203.0,-396.0,-478.0,-138.0,-1012.0,-135.0
-26.0,-249.0,-53.0,232.0,-463.0,-495.0,-123.0,-954.0,-144.0
-25.0,-235.0,-60.0,253.0,-513.0,-503.0,-116.0,-910.0,-164.0
-15.0,-225.0,-56.0,257.0,-541.0,-509.0,-93.0,-863.0,-165.0
-11.0,-212.0,-56.0,252.0,-545.0,-510.0,-74.0,-823.0,-145.0
-8.0,-201.0,-58.0,235.0,-529.0,-517.0,-55.0,-797.0,-173.0
-4.0,-196.0,-54.0,192.0,-509.0,-513.0,-39.0,-769.0,-137.0
4.0,-192.0,-43.0,144.0,-482.0,-516.0,-14.0,-745.0,-99.0
10.0,-185.0,-37.0,110.0,-462.0,-506.0,1.0,-726.0,-83.0
12.0,-179.0,-29.0,82.0,-437.0,-492.0,17.0,-707.0,-47.0
17.0,-178.0,-27.0,65.0,-417.0,-475.0,44.0,-686.0,-31.0
19.0,-166.0,-17.0,70.0,-408.0,-461.0,50.0,-657.0,-1.0
22.0,-170.0,-18.0,96.0,-413.0,-425.0,62.0,-657.0,-7.0
24.0,-170.0,-22.0,126.0,-425.0,-381.0,81.0,-661.0,-20.0
31.0,-168.0,-22.0,145.0,-433.0,-345.0,101.0,-660.0,-20.0
36.0,-171.0,-25.0,152.0,-443.0,-314.0,118.0,-666.0,-23.0
39.0,-173.0,-24.0,149.0,-458.0,-284.0,129.0,-666.0,-16.0
43.0,-172.0,-23.0,145.0,-471.0,-260.0,145.0,-675.0,-21.0
47.0,-180.0,-28.0,125.0,-481.0,-235.0,162.0,-704.0,-47.0
45.0,-181.0,-27.0,79.0,-486.0,-217.0,161.0,-713.0,-21.0
51.0,-188.0,-26.0,38.0,-494.0,-193.0,170.0,-735.0,-20.0
52.0,-196.0,-23.0,-9.0,-496.0,-180.0,180.0,-774.0,-29.0
51.0,-201.0,-18.0,-57.0,-489.0,-167.0,189.0,-786.0,2.0
58.0,-204.0,-14.0,-98.0,-484.0,-167.0,196.0,-803.0,10.0
52.0,-210.0,-13.0,-114.0,-469.0,-169.0,183.0,-817.0,32.0
52.0,-212.0,-9.0,-119.0,-449.0,-171.0,175.0,-830.0,32.0
50.0,-215.0,-13.0,-120.0,-433.0,-158.0,162.0,-844.0,28.0
50.0,-219.0,-12.0,-117.0,-418.0,-142.0,161.0,-855.0,27.0
51.0,-226.0,-11.0,-106.0,-399.0,-121.0,161.0,-875.0,26.0
52.0,-231.0,-10.0,-105.0,-373.0,-109.0,169.0,-888.0,27.0
50.0,-231.0,-8.0,-105.0,-341.0,-102.0,162.0,-898.0,30.0
47.0,-230.0,-1.0,-105.0,-305.0,-88.0,155.0,-898.0,57.0
46.0,-232.0,0.0,-72.0,-272.0,-50.0,151.0,-892.0,74.0
44.0,-232.0,10.0,-27.0,-235.0,-22.0,142.0,-888.0,99.0
40.0,-232.0,12.0,27.0,-201.0,10.0,125.0,-884.0,115.0
36.0,-229.0,14.0,83.0,-175.0,36.0,116.0,-876.0,139.0
34.0,-233.0,18.0,139.0,-157.0,67.0,102.0,-887.0,146.0
30.0,-229.0,16.0,179.0,-142.0,85.0,99.0,-885.0,149.0
32.0,-228.0,22.0,205.0,-134.0,119.0,104.0,-882.0,161.0
31.0,-229.0,22.0,221.0,-128.0,152.0,91.0,-886.0,152.0
27.0,-227.0,20.0,225.0,-122.0,185.0,86.0,-889.0,157.0
30.0,-229.0,24.0,224.0,-119.0,209.0,77.0,-879.0,157.0
23.0,-228.0,21.0,226.0,-122.0,234.0,64.0,-876.0,161.0
22.0,-229.0,17.0,221.0,-129.0,256.0,56.0,-878.0,156.0
16.0,-224.0,20.0,204.0,-142.0,276.0,51.0,-879.0,147.0
16.0,-223.0,21.0,176.0,-159.0,292.0,41.0,-875.0,148.0
16.0,-226.0,14.0,141.0,-174.0,307.0,37.0,-871.0,139.0
15.0,-223.0,10.0,94.0,-188.0,313.0,35.0,-878.0,131.0
22.0,-226.0,11.0,36.0,-206.0,327.0,59.0,-888.0,121.0
19.0,-231.0,9.0,-33.0,-220.0,325.0,43.0,-901.0,114.0
15.0,-233.0,8.0,-104.0,-223.0,323.0,26.0,-903.0,98.0
7.0,-235.0,9.0,-157.0,-226.0,322.0,7.0,-907.0,103.0
4.0,-238.0,9.0,-197.0,-237.0,325.0,0.0,-917.0,106.0
0.0,-241.0,8.0,-218.0,-257.0,326.0,-7.0,-926.0,99.0
5.0,-247.0,6.0,-226.0,-281.0,329.0,-9.0,-950.0,91.0
3.0,-253.0,7.0,-239.0,-310.0,322.0,-8.0,-967.0,96.0
1.0,-254.0,8.0,-246.0,-336.0,310.0,-6.0,-993.0,105.0
5.0,-260.0,10.0,-250.0,-362.0,291.0,-7.0,-1010.0,110.0
12.0,-264.0,8.0,-251.0,-378.0,258.0,17.0,-1024.0,104.0
19.0,-277.0,9.0,-263.0,-398.0,244.0,44.0,-1066.0,98.0
25.0,-272.0,19.0,-263.0,-402.0,220.0,56.0,-1049.0,145.0
26.0,-275.0,18.0,-220.0,-396.0,189.0,66.0,-1052.0,146.0
31.0,-275.0,16.0,-168.0,-386.0,159.0,80.0,-1070.0,137.0
32.0,-280.0,15.0,-126.0,-378.0,130.0,92.0,-1083.0,121.0
35.0,-281.0,11.0,-100.0,-379.0,104.0,105.0,-1097.0,117.0
42.0,-284.0,10.0,-85.0,-384.0,79.0,126.0,-1104.0,121.0
46.0,-289.0,16.0,-79.0,-389.0,53.0,144.0,-1118.0,142.0
51.0,-292.0,25.0,-72.0,-390.0,33.0,162.0,-1127.0,165.0
54.0,-299.0,29.0,-52.0,-386.0,12.0,174.0,-1144.0,187.0
56.0,-303.0,37.0,-33.0,-377.0,-12.0,188.0,-1166.0,212.0
64.0,-308.0,39.0,-17.0,-379.0,-41.0,217.0,-1199.0,222.0
66.0,-322.0,41.0,-5.0,-384.0,-45.0,213.0,-1223.0,236.0
67.0,-328.0,47.0,-1.0,-376.0,-57.0,224.0,-1263.0,243.0
68.0,-336.0,41.0,1.0,-372.0,-89.0,235.0,-1295.0,243.0
63.0,-343.0,41.0,2.0,-378.0,-126.0,216.0,-1331.0,234.0
51.0,-338.0,54.0,18.0,-394.0,-152.0,173.0,-1293.0,270.0
47.0,-340.0,49.0,97.0,-413.0,-174.0,144.0,-1286.0,258.0
47.0,-341.0,38.0,224.0,-422.0,-187.0,140.0,-1322.0,214.0
47.0,-354.0,23.0,284.0,-432.0,-213.0,155.0,-1352.0,160.0
59.0,-355.0,16.0,316.0,-447.0,-252.0,198.0,-1374.0,138.0
55.0,-351.0,2.0,327.0,-447.0,-298.0,171.0,-1369.0,100.0
57.0,-348.0,-11.0,318.0,-413.0,-316.0,192.0,-1365.0,49.0
70.0,-343.0,-31.0,290.0,-355.0,-333.0,213.0,-1350.0,-17.0
71.0,-336.0,-45.0,250.0,-291.0,-353.0,225.0,-1301.0,-86.0
68.0,-325.0,-61.0,205.0,-219.0,-384.0,222.0,-1272.0,-163.0
67.0,-320.0,-71.0,153.0,-158.0,-410.0,228.0,-1245.0,-214.0
61.0,-312.0,-74.0,100.0,-125.0,-450.0,212.0,-1208.0,-241.0
49.0,-305.0,-71.0,32.0,-138.0,-479.0,174.0,-1184.0,-223.0
43.0,-293.0,-65.0,-30.0,-184.0,-500.0,140.0,-1153.0,-186.0
39.0,-286.0,-53.0,-88.0,-245.0,-511.0,125.0,-1130.0,-151.0
40.0,-286.0,-48.0,-133.0,-307.0,-513.0,127.0,-1121.0,-116.0
40.0,-285.0,-46.0,-165.0,-356.0,-511.0,119.0,-1107.0,-102.0
30.0,-282.0,-46.0,-182.0,-385.0,-503.0,94.0,-1098.0,-104.0
16.0,-274.0,-45.0,-176.0,-403.0,-480.0,43.0,-1060.0,-100.0
2.0,-263.0,-48.0,-144.0,-423.0,-452.0,-14.0,-1020.0,-108.0
-12.0,-250.0,-58.0,-88.0,-451.0,-400.0,-75.0,-966.0,-143.0
-35.0,-237.0,-62.0,-9.0,-472.0,-353.0,-147.0,-917.0,-182.0
-50.0,-225.0,-81.0,43.0,-482.0,-294.0,-206.0,-878.0,-233.0
-58.0,-220.0,-93.0,57.0,-488.0,-239.0,-248.0,-856.0,-283.0
-71.0,-212.0,-95.0,27.0,-500.0,-179.0,-298.0,-834.0,-320.0
-78.0,-206.0,-101.0,-34.0,-506.0,-130.0,-341.0,-814.0,-328.0
-83.0,-204.0,-99.0,-115.0,-502.0,-77.0,-356.0,-805.0,-328.0
-81.0,-211.0,-99.0,-206.0,-487.0,-34.0,-355.0,-823.0,-309.0
-83.0,-215.0,-85.0,-293.0,-475.0,2.0,-350.0,-838.0,-272.0
-81.0,-218.0,-81.0,-353.0,-467.0,34.0,-344.0,-856.0,-253.0
-70.0,-226.0,-70.0,-379.0,-462.0,72.0,-300.0,-870.0,-218.0
-52.0,-231.0,-62.0,-369.0,-454.0,93.0,-236.0,-889.0,-177.0
-36.0,-240.0,-55.0,-340.0,-443.0,113.0,-176.0,-919.0,-157.0
-25.0,-253.0,-50.0,-316.0,-420.0,132.0,-131.0,-961.0,-130.0
-11.0,-260.0,-42.0,-295.0,-387.0,166.0,-87.0,-1002.0,-86.0
3.0,-264.0,-29.0,-260.0,-352.0,196.0,-30.0,-1012.0,-46.0
23.0,-265.0,-24.0,-209.0,-307.0,225.0,24.0,-1021.0,-17.0
34.0,-265.0,-20.0,-146.0,-250.0,244.0,102.0,-1018.0,8.0
42.0,-261.0,-13.0,-74.0,-168.0,268.0,129.0,-1019.0,34.0
58.0,-264.0,-14.0,25.0,-93.0,300.0,174.0,-1026.0,25.0
67.0,-265.0,-16.0,91.0,-18.0,331.0,218.0,-1031.0,5.0
75.0,-264.0,-21.0,132.0,48.0,354.0,244.0,-1035.0,-21.0
82.0,-263.0,-34.0,144.0,105.0,387.0,275.0,-1037.0,-52.0
88.0,-265.0,-39.0,137.0,157.0,407.0,296.0,-1036.0,-80.0
89.0,-260.0,-48.0,119.0,208.0,421.0,311.0,-1032.0,-116.0
86.0,-260.0,-52.0,89.0,252.0,429.0,304.0,-1021.0,-133.0
86.0,-259.0,-53.0,56.0,289.0,444.0,294.0,-1016.0,-140.0
73.0,-249.0,-46.0,33.0,327.0,450.0,249.0,-964.0,-117.0
59.0,-238.0,-43.0,42.0,360.0,475.0,213.0,-927.0,-80.0
52.0,-234.0,-43.0,64.0,387.0,502.0,184.0,-908.0,-86.0
46.0,-229.0,-40.0,59.0,415.0,521.0,143.0,-902.0,-87.0
37.0,-234.0,-46.0,26.0,442.0,523.0,110.0,-913.0,-97.0
27.0,-235.0,-39.0,-35.0,460.0,524.0,68.0,-918.0,-84.0
15.0,-238.0,-37.0,-93.0,473.0,526.0,37.0,-926.0,-69.0
9.0,-236.0,-25.0,-122.0,481.0,533.0,10.0,-907.0,-18.0
7.0,-232.0,-21.0,-105.0,485.0,527.0,1.0,-889.0,1.0
9.0,-227.0,-25.0,-61.0,488.0,499.0,-3.0,-872.0,-7.0
4.0,-219.0,-26.0,-6.0,500.0,463.0,-8.0,-848.0,-23.0
1.0,-214.0,-29.0,19.0,519.0,426.0,-20.0,-826.0,-28.0
-6.0,-205.0,-27.0,29.0,538.0,386.0,-46.0,-805.0,-28.0
-13.0,-200.0,-26.0,33.0,552.0,354.0,-80.0,-790.0,-30.0
-21.0,-196.0,-30.0,27.0,563.0,317.0,-112.0,-771.0,-32.0
-31.0,-195.0,-26.0,14.0,570.0,295.0,-136.0,-762.0,-46.0
-33.0,-198.0,-35.0,-10.0,576.0,275.0,-163.0,-778.0,-59.0
-43.0,-194.0,-26.0,-49.0,583.0,262.0,-187.0,-748.0,-37.0
-49.0,-190.0,-24.0,-79.0,579.0,259.0,-213.0,-733.0,-30.0
-54.0,-183.0,-26.0,-101.0,572.0,268.0,-217.0,-717.0,-21.0
-49.0,-182.0,-25.0,-118.0,569.0,282.0,-207.0,-712.0,-30.0
-44.0,-183.0,-25.0,-141.0,574.0,289.0,-195.0,-724.0,-31.0
-41.0,-187.0,-27.0,-178.0,583.0,287.0,-184.0,-726.0,-28.0
-43.0,-197.0,-21.0,-221.0,585.0,294.0,-186.0,-769.0,-26.0
-44.0,-204.0,-22.0,-262.0,584.0,266.0,-185.0,-804.0,-15.0
-39.0,-218.0,-19.0,-297.0,569.0,235.0,-179.0,-831.0,0.0
-38.0,-228.0,-21.0,-312.0,549.0,212.0,-173.0,-866.0,15.0
-31.0,-237.0,-15.0,-303.0,528.0,177.0,-155.0,-890.0,26.0
-30.0,-243.0,-6.0,-274.0,495.0,141.0,-150.0,-922.0,34.0
-31.0,-247.0,-8.0,-234.0,464.0,103.0,-136.0,-928.0,52.0
-30.0,-244.0,-5.0,-178.0,428.0,65.0,-136.0,-919.0,56.0
-26.0,-244.0,-3.0,-122.0,393.0,27.0,-128.0,-921.0,57.0
-25.0,-238.0,-2.0,-74.0,361.0,-9.0,-122.0,-917.0,57.0
-23.0,-238.0,-6.0,-37.0,331.0,-47.0,-114.0,-907.0,54.0
-22.0,-234.0,-7.0,-10.0,305.0,-82.0,-123.0,-904.0,49.0
-18.0,-234.0,-5.0,11.0,287.0,-114.0,-106.0,-903.0,46.0
-21.0,-233.0,-10.0,24.0,274.0,-159.0,-110.0,-892.0,40.0
-23.0,-231.0,-16.0,30.0,265.0,-189.0,-115.0,-898.0,30.0
-23.0,-230.0,-10.0,25.0,263.0,-216.0,-116.0,-884.0,37.0
-21.0,-227.0,-7.0,27.0,265.0,-237.0,-116.0,-878.0,46.0
-20.0,-226.0,-2.0,27.0,274.0,-251.0,-108.0,-877.0,58.0
-21.0,-222.0,-5.0,24.0,282.0,-263.0,-108.0,-861.0,64.0
-20.0,-218.0,1.0,19.0,296.0,-266.0,-113.0,-851.0,65.0
-20.0,-219.0,-2.0,12.0,309.0,-269.0,-112.0,-843.0,71.0
-21.0,-213.0,2.0,0.0,322.0,-265.0,-105.0,-839.0,75.0
-13.0,-216.0,6.0,-21.0,336.0,-258.0,-85.0,-833.0,79.0
-12.0,-218.0,0.0,-46.0,350.0,-236.0,-74.0,-846.0,79.0
-9.0,-216.0,7.0,-68.0,376.0,-240.0,-66.0,-848.0,91.0
-4.0,-222.0,2.0,-89.0,392.0,-239.0,-37.0,-857.0,90.0
3.0,-225.0,2.0,-110.0,409.0,-239.0,-14.0,-873.0,88.0
12.0,-229.0,1.0,-130.0,422.0,-236.0,2.0,-891.0,85.0
14.0,-234.0,6.0,-153.0,437.0,-239.0,21.0,-904.0,85.0
16.0,-240.0,5.0,-174.0,449.0,-238.0,32.0,-921.0,87.0
23.0,-245.0,8.0,-189.0,458.0,-243.0,51.0,-944.0,99.0
27.0,-249.0,11.0,-198.0,463.0,-244.0,69.0,-965.0,107.0
26.0,-258.0,11.0,-203.0,470.0,-255.0,69.0,-999.0,116.0
24.0,-260.0,17.0,-200.0,480.0,-263.0,66.0,-1013.0,133.0
22.0,-262.0,14.0,-187.0,486.0,-274.0,47.0,-1023.0,139.0
11.0,-262.0,15.0,-170.0,488.0,-270.0,17.0,-1032.0,133.0
1.0,-266.0,9.0,-157.0,477.0,-264.0,-15.0,-1037.0,103.0
-7.0,-269.0,4.0,-154.0,457.0,-237.0,-39.0,-1037.0,91.0
-13.0,-272.0,2.0,-155.0,434.0,-209.0,-86.0,-1054.0,79.0
-23.0,-275.0,-3.0,-159.0,421.0,-188.0,-115.0,-1071.0,68.0
-28.0,-283.0,-7.0,-162.0,413.0,-165.0,-145.0,-1092.0,55.0
-35.0,-286.0,-6.0,-163.0,415.0,-127.0,-173.0,-1104.0,47.0
-39.0,-292.0,-7.0,-159.0,423.0,-99.0,-184.0,-1122.0,51.0
-44.0,-298.0,-3.0,-154.0,432.0,-61.0,-207.0,-1142.0,64.0
-48.0,-300.0,5.0,-152.0,440.0,-34.0,-213.0,-1154.0,83.0
-47.0,-303.0,9.0,-150.0,446.0,-7.0,-219.0,-1168.0,105.0
-48.0,-306.0,16.0,-153.0,455.0,18.0,-221.0,-1184.0,138.0
-50.0,-308.0,22.0,-155.0,469.0,43.0,-228.0,-1188.0,171.0
-50.0,-309.0,30.0,-148.0,483.0,64.0,-224.0,-1197.0,195.0
-44.0,-311.0,42.0,-139.0,502.0,90.0,-216.0,-1194.0,222.0
-44.0,-309.0,46.0,-123.0,528.0,111.0,-196.0,-1183.0,248.0
-34.0,-311.0,46.0,-95.0,544.0,130.0,-168.0,-1182.0,240.0
-26.0,-306.0,46.0,-88.0,558.0,137.0,-139.0,-1176.0,242.0
-22.0,-302.0,42.0,-90.0,568.0,143.0,-125.0,-1174.0,222.0
-20.0,-307.0,33.0,-99.0,576.0,148.0,-111.0,-1176.0,201.0
-7.0,-303.0,26.0,-108.0,585.0,165.0,-57.0,-1165.0,206.0
-6.0,-304.0,17.0,-104.0,591.0,169.0,-52.0,-1203.0,146.0
-7.0,-322.0,6.0,-120.0,599.0,171.0,-56.0,-1245.0,100.0
-11.0,-315.0,12.0,-148.0,600.0,185.0,-73.0,-1201.0,137.0
8.0,-308.0,5.0,-121.0,587.0,226.0,-70.0,-1206.0,130.0
-9.0,-321.0,4.0,-57.0,578.0,231.0,-69.0,-1211.0,126.0
-25.0,-306.0,-6.0,-4.0,553.0,220.0,-92.0,-1208.0,107.0
-17.0,-308.0,1.0,42.0,518.0,213.0,-98.0,-1204.0,86.0
-17.0,-310.0,-16.0,79.0,481.0,196.0,-118.0,-1178.0,39.0
-38.0,-308.0,-26.0,108.0,447.0,178.0,-143.0,-1189.0,-37.0
-37.0,-327.0,-49.0,117.0,428.0,177.0,-154.0,-1206.0,-121.0
-39.0,-323.0,-67.0,114.0,421.0,177.0,-183.0,-1212.0,-192.0
-53.0,-323.0,-88.0,106.0,420.0,194.0,-230.0,-1241.0,-264.0
-67.0,-326.0,-100.0,90.0,408.0,229.0,-276.0,-1262.0,-325.0
-75.0,-328.0,-116.0,73.0,379.0,280.0,-315.0,-1279.0,-389.0
-79.0,-329.0,-121.0,68.0,328.0,343.0,-343.0,-1265.0,-421.0
-76.0,-327.0,-132.0,81.0,264.0,431.0,-325.0,-1260.0,-459.0
-60.0,-319.0,-128.0,94.0,203.0,516.0,-253.0,-1237.0,-451.0
-37.0,-311.0,-124.0,96.0,145.0,590.0,-175.0,-1202.0,-428.0
-14.0,-298.0,-114.0,85.0,95.0,629.0,-105.0,-1157.0,-389.0
0.0,-280.0,-103.0,68.0,56.0,646.0,-30.0,-1110.0,-344.0
18.0,-265.0,-101.0,52.0,31.0,635.0,42.0,-1033.0,-324.0
45.0,-253.0,-98.0,40.0,33.0,601.0,125.0,-974.0,-326.0
62.0,-234.0,-99.0,31.0,83.0,556.0,202.0,-921.0,-325.0
82.0,-226.0,-89.0,44.0,151.0,498.0,269.0,-877.0,-283.0
98.0,-223.0,-77.0,91.0,219.0,425.0,331.0,-864.0,-248.0
109.0,-227.0,-69.0,147.0,269.0,345.0,366.0,-877.0,-204.0
115.0,-234.0,-60.0,195.0,287.0,258.0,416.0,-904.0,-173.0
122.0,-243.0,-57.0,233.0,285.0,173.0,440.0,-936.0,-151.0
123.0,-251.0,-54.0,268.0,280.0,83.0,449.0,-968.0,-141.0
121.0,-259.0,-52.0,308.0,278.0,-5.0,432.0,-998.0,-130.0
113.0,-262.0,-49.0,350.0,285.0,-105.0,401.0,-1029.0,-118.0
98.0,-269.0,-44.0,388.0,292.0,-184.0,351.0,-1051.0,-88.0
88.0,-280.0,-42.0,409.0,292.0,-251.0,298.0,-1091.0,-86.0
72.0,-287.0,-38.0,408.0,287.0,-309.0,256.0,-1116.0,-84.0
61.0,-289.0,-34.0,400.0,274.0,-353.0,213.0,-1118.0,-63.0
52.0,-292.0,-39.0,409.0,254.0,-385.0,158.0,-1135.0,-66.0
36.0,-293.0,-33.0,410.0,238.0,-409.0,101.0,-1144.0,-64.0
19.0,-298.0,-32.0,409.0,218.0,-428.0,45.0,-1139.0,-45.0
4.0,-298.0,-31.0,411.0,194.0,-444.0,2.0,-1141.0,-53.0
-6.0,-295.0,-31.0,400.0,156.0,-463.0,-38.0,-1140.0,-48.0
-12.0,-291.0,-38.0,378.0,88.0,-480.0,-65.0,-1129.0,-63.0
-21.0,-285.0,-40.0,355.0,28.0,-492.0,-112.0,-1102.0,-76.0
-28.0,-275.0,-40.0,330.0,-35.0,-489.0,-135.0,-1071.0,-82.0
-32.0,-270.0,-39.0,315.0,-104.0,-484.0,-143.0,-1038.0,-90.0
-31.0,-260.0,-43.0,306.0,-173.0,-489.0,-141.0,-1007.0,-104.0
-26.0,-251.0,-51.0,295.0,-236.0,-502.0,-127.0,-961.0,-123.0
-22.0,-241.0,-50.0,271.0,-291.0,-511.0,-128.0,-927.0,-123.0
-24.0,-234.0,-54.0,246.0,-328.0,-524.0,-120.0,-907.0,-133.0
-24.0,-225.0,-47.0,212.0,-342.0,-534.0,-124.0,-885.0,-129.0
-20.0,-218.0,-47.0,170.0,-345.0,-533.0,-124.0,-855.0,-114.0
-22.0,-216.0,-43.0,137.0,-341.0,-528.0,-123.0,-840.0,-105.0
-21.0,-210.0,-39.0,107.0,-329.0,-519.0,-112.0,-806.0,-77.0
-20.0,-203.0,-39.0,88.0,-321.0,-499.0,-92.0,-794.0,-66.0
-12.0,-196.0,-29.0,68.0,-316.0,-472.0,-69.0,-764.0,-45.0
-4.0,-188.0,-25.0,65.0,-312.0,-446.0,-34.0,-728.0,-19.0
6.0,-185.0,-23.0,82.0,-312.0,-428.0,-3.0,-712.0,-11.0
12.0,-181.0,-20.0,108.0,-311.0,-398.0,17.0,-685.0,8.0
12.0,-178.0,-21.0,142.0,-315.0,-354.0,34.0,-687.0,-6.0
17.0,-181.0,-26.0,167.0,-319.0,-309.0,37.0,-688.0,-14.0
19.0,-175.0,-18.0,182.0,-328.0,-260.0,57.0,-675.0,14.0
27.0,-178.0,-25.0,193.0,-342.0,-213.0,73.0,-687.0,-16.0
32.0,-177.0,-26.0,185.0,-355.0,-180.0,100.0,-700.0,-13.0
41.0,-182.0,-17.0,167.0,-376.0,-152.0,135.0,-694.0,7.0
44.0,-185.0,-23.0,154.0,-399.0,-147.0,144.0,-709.0,-1.0
42.0,-185.0,-15.0,128.0,-412.0,-143.0,143.0,-716.0,12.0
45.0,-190.0,-17.0,106.0,-428.0,-140.0,158.0,-740.0,16.0
50.0,-195.0,-10.0,84.0,-446.0,-141.0,177.0,-755.0,19.0
52.0,-195.0,-16.0,63.0,-463.0,-153.0,186.0,-762.0,24.0
55.0,-201.0,-13.0,46.0,-465.0,-160.0,201.0,-781.0,19.0
59.0,-199.0,-18.0,27.0,-463.0,-173.0,204.0,-792.0,5.0
63.0,-204.0,-21.0,2.0,-446.0,-177.0,213.0,-808.0,-3.0
58.0,-206.0,-21.0,-26.0,-419.0,-183.0,203.0,-811.0,-7.0
58.0,-207.0,-20.0,-51.0,-389.0,-174.0,194.0,-819.0,11.0
59.0,-209.0,-17.0,-67.0,-355.0,-167.0,195.0,-823.0,11.0
54.0,-208.0,-10.0,-81.0,-320.0,-154.0,186.0,-824.0,26.0
60.0,-214.0,-15.0,-94.0,-287.0,-137.0,192.0,-844.0,10.0
57.0,-219.0,-8.0,-129.0,-237.0,-127.0,200.0,-855.0,41.0
51.0,-227.0,2.0,-139.0,-205.0,-114.0,166.0,-882.0,70.0
47.0,-224.0,13.0,-126.0,-171.0,-102.0,164.0,-863.0,114.0
50.0,-228.0,11.0,-91.0,-150.0,-59.0,155.0,-882.0,126.0
47.0,-228.0,17.0,-53.0,-123.0,-21.0,148.0,-884.0,140.0
43.0,-233.0,15.0,-14.0,-104.0,9.0,139.0,-889.0,142.0
41.0,-232.0,14.0,21.0,-92.0,42.0,128.0,-893.0,141.0
39.0,-233.0,17.0,50.0,-82.0,69.0,115.0,-895.0,143.0
39.0,-233.0,15.0,70.0,-82.0,98.0,118.0,-897.0,145.0
38.0,-237.0,18.0,93.0,-95.0,121.0,121.0,-900.0,139.0
37.0,-237.0,13.0,105.0,-104.0,136.0,112.0,-907.0,125.0
33.0,-238.0,16.0,109.0,-107.0,146.0,100.0,-916.0,139.0
31.0,-235.0,17.0,108.0,-116.0,152.0,94.0,-908.0,144.0
32.0,-235.0,14.0,108.0,-130.0,179.0,92.0,-908.0,140.0
32.0,-240.0,13.0,101.0,-138.0,212.0,113.0,-928.0,134.0
40.0,-245.0,13.0,81.0,-141.0,224.0,114.0,-933.0,138.0
34.0,-242.0,15.0,57.0,-141.0,231.0,105.0,-946.0,139.0
35.0,-249.0,10.0,32.0,-138.0,227.0,94.0,-960.0,120.0
31.0,-251.0,16.0,-10.0,-129.0,218.0,87.0,-961.0,125.0
25.0,-251.0,14.0,-49.0,-136.0,226.0,78.0,-971.0,123.0
22.0,-253.0,15.0,-77.0,-145.0,242.0,58.0,-973.0,123.0
15.0,-252.0,12.0,-95.0,-145.0,253.0,32.0,-973.0,121.0
13.0,-255.0,13.0,-110.0,-145.0,272.0,16.0,-976.0,131.0
13.0,-257.0,10.0,-124.0,-154.0,286.0,20.0,-996.0,116.0
16.0,-258.0,3.0,-145.0,-167.0,293.0,37.0,-1011.0,101.0
24.0,-260.0,6.0,-171.0,-170.0,288.0,57.0,-1030.0,86.0
26.0,-266.0,-3.0,-194.0,-166.0,269.0,73.0,-1036.0,68.0
28.0,-268.0,-5.0,-200.0,-152.0,238.0,91.0,-1034.0,64.0
38.0,-267.0,-1.0,-188.0,-143.0,212.0,100.0,-1036.0,65.0
43.0,-266.0,-3.0,-164.0,-140.0,181.0,121.0,-1040.0,66.0
47.0,-266.0,-4.0,-137.0,-140.0,150.0,148.0,-1037.0,57.0
52.0,-261.0,-3.0,-116.0,-143.0,111.0,173.0,-1026.0,56.0
55.0,-260.0,-8.0,-109.0,-140.0,66.0,186.0,-1017.0,59.0
55.0,-260.0,1.0,-116.0,-136.0,26.0,196.0,-1015.0,74.0
58.0,-264.0,8.0,-131.0,-133.0,-7.0,194.0,-1018.0,105.0
57.0,-260.0,18.0,-144.0,-128.0,-45.0,203.0,-1016.0,136.0
59.0,-266.0,32.0,-157.0,-137.0,-45.0,208.0,-1033.0,192.0
66.0,-274.0,39.0,-155.0,-144.0,-40.0,222.0,-1059.0,229.0
68.0,-284.0,50.0,-151.0,-146.0,-38.0,232.0,-1092.0,256.0
71.0,-288.0,49.0,-146.0,-138.0,-50.0,248.0,-1132.0,271.0
71.0,-302.0,52.0,-139.0,-140.0,-43.0,257.0,-1174.0,276.0
71.0,-316.0,52.0,-113.0,-140.0,-37.0,253.0,-1215.0,288.0
71.0,-325.0,57.0,-72.0,-143.0,-51.0,245.0,-1237.0,300.0
63.0,-327.0,57.0,-9.0,-150.0,-80.0,224.0,-1251.0,309.0
52.0,-327.0,61.0,68.0,-173.0,-112.0,175.0,-1246.0,312.0
48.0,-331.0,50.0,169.0,-191.0,-122.0,148.0,-1259.0,273.0
39.0,-328.0,40.0,233.0,-202.0,-132.0,127.0,-1266.0,242.0
36.0,-330.0,31.0,279.0,-221.0,-152.0,98.0,-1268.0,209.0
36.0,-328.0,27.0,303.0,-234.0,-175.0,107.0,-1266.0,183.0
41.0,-327.0,19.0,303.0,-249.0,-207.0,111.0,-1267.0,154.0
28.0,-315.0,28.0,287.0,-265.0,-226.0,78.0,-1220.0,171.0
26.0,-307.0,17.0,285.0,-260.0,-214.0,79.0,-1201.0,154.0
32.0,-300.0,9.0,267.0,-240.0,-199.0,82.0,-1168.0,99.0
35.0,-294.0,-3.0,218.0,-214.0,-185.0,101.0,-1149.0,51.0
41.0,-292.0,-27.0,126.0,-186.0,-179.0,120.0,-1137.0,-20.0
41.0,-280.0,-33.0,66.0,-161.0,-180.0,136.0,-1106.0,-53.0
46.0,-284.0,-46.0,40.0,-142.0,-193.0,142.0,-1099.0,-110.0
41.0,-288.0,-56.0,21.0,-145.0,-212.0,139.0,-1124.0,-151.0
43.0,-302.0,-58.0,-7.0,-179.0,-232.0,142.0,-1175.0,-163.0
45.0,-324.0,-51.0,-33.0,-238.0,-257.0,146.0,-1243.0,-136.0
44.0,-336.0,-40.0,-46.0,-303.0,-295.0,133.0,-1284.0,-96.0
36.0,-343.0,-32.0,-30.0,-348.0,-331.0,107.0,-1342.0,-64.0
31.0,-352.0,-23.0,6.0,-366.0,-369.0,79.0,-1346.0,-24.0
23.0,-346.0,-18.0,92.0,-368.0,-399.0,56.0,-1328.0,8.0
15.0,-332.0,-24.0,192.0,-358.0,-411.0,22.0,-1276.0,-10.0
4.0,-315.0,-33.0,302.0,-337.0,-399.0,-18.0,-1199.0,-50.0
-5.0,-288.0,-50.0,395.0,-314.0,-376.0,-47.0,-1123.0,-131.0
-14.0,-257.0,-76.0,438.0,-289.0,-339.0,-92.0,-1016.0,-225.0
-13.0,-234.0,-97.0,415.0,-260.0,-278.0,-100.0,-917.0,-309.0
-15.0,-212.0,-113.0,328.0,-245.0,-222.0,-89.0,-842.0,-373.0
-21.0,-195.0,-118.0,194.0,-249.0,-192.0,-111.0,-789.0,-416.0
-34.0,-184.0,-122.0,42.0,-266.0,-166.0,-157.0,-728.0,-434.0
-43.0,-178.0,-120.0,-146.0,-293.0,-133.0,-188.0,-708.0,-416.0
-48.0,-175.0,-118.0,-294.0,-329.0,-110.0,-202.0,-699.0,-409.0
-45.0,-177.0,-108.0,-431.0,-374.0,-97.0,-201.0,-704.0,-374.0
-50.0,-183.0,-99.0,-542.0,-418.0,-88.0,-209.0,-715.0,-327.0
-52.0,-188.0,-84.0,-623.0,-453.0,-88.0,-221.0,-737.0,-266.0
-55.0,-196.0,-64.0,-660.0,-484.0,-73.0,-223.0,-765.0,-168.0
-46.0,-208.0,-45.0,-651.0,-514.0,-59.0,-212.0,-803.0,-96.0
-35.0,-221.0,-27.0,-597.0,-533.0,-40.0,-175.0,-839.0,-39.0
-26.0,-232.0,-14.0,-507.0,-544.0,-24.0,-134.0,-869.0,9.0
-16.0,-243.0,-4.0,-356.0,-526.0,7.0,-100.0,-907.0,56.0
-6.0,-256.0,-4.0,-203.0,-494.0,27.0,-62.0,-957.0,76.0
-2.0,-261.0,6.0,-34.0,-452.0,57.0,-46.0,-990.0,103.0
8.0,-273.0,-4.0,143.0,-408.0,87.0,-9.0,-1038.0,64.0
13.0,-275.0,-13.0,278.0,-353.0,113.0,12.0,-1059.0,31.0
18.0,-276.0,-19.0,369.0,-283.0,140.0,24.0,-1074.0,-2.0
26.0,-275.0,-37.0,416.0,-203.0,189.0,56.0,-1085.0,-45.0
37.0,-270.0,-42.0,417.0,-114.0,241.0,92.0,-1071.0,-74.0
45.0,-263.0,-49.0,389.0,-28.0,301.0,125.0,-1051.0,-98.0
47.0,-261.0,-53.0,327.0,71.0,360.0,149.0,-1033.0,-138.0
53.0,-258.0,-57.0,210.0,150.0,411.0,191.0,-1022.0,-156.0
58.0,-254.0,-62.0,92.0,214.0,442.0,200.0,-1013.0,-172.0
57.0,-253.0,-61.0,-39.0,258.0,467.0,199.0,-1012.0,-164.0
56.0,-258.0,-55.0,-163.0,288.0,476.0,195.0,-1017.0,-135.0
49.0,-257.0,-38.0,-257.0,298.0,487.0,175.0,-1008.0,-83.0
42.0,-258.0,-28.0,-301.0,295.0,496.0,136.0,-999.0,-42.0
45.0,-261.0,-25.0,-295.0,293.0,516.0,139.0,-1010.0,-16.0
39.0,-259.0,-16.0,-269.0,289.0,524.0,124.0,-1002.0,5.0
39.0,-260.0,-18.0,-226.0,285.0,530.0,120.0,-1009.0,13.0
35.0,-259.0,-16.0,-174.0,285.0,524.0,104.0,-1002.0,11.0
34.0,-253.0,-13.0,-130.0,286.0,513.0,102.0,-985.0,9.0
23.0,-245.0,-18.0,-82.0,288.0,491.0,76.0,-943.0,5.0
22.0,-236.0,-19.0,-32.0,297.0,471.0,50.0,-912.0,-6.0
19.0,-229.0,-20.0,10.0,312.0,448.0,29.0,-871.0,4.0
11.0,-216.0,-16.0,46.0,327.0,426.0,12.0,-840.0,20.0
7.0,-210.0,-15.0,83.0,340.0,399.0,0.0,-823.0,6.0
-1.0,-205.0,-14.0,106.0,355.0,367.0,-20.0,-800.0,5.0
-9.0,-202.0,-20.0,113.0,370.0,323.0,-35.0,-799.0,-9.0
-13.0,-199.0,-22.0,95.0,379.0,291.0,-76.0,-790.0,-19.0
-25.0,-197.0,-19.0,65.0,385.0,268.0,-110.0,-778.0,-18.0
-29.0,-194.0,-24.0,33.0,392.0,260.0,-133.0,-761.0,-20.0
-54.0,-195.0,-15.0,-3.0,398.0,266.0,-152.0,-750.0,-23.0
-34.0,-195.0,-25.0,-50.0,403.0,279.0,-159.0,-757.0,-32.0
-35.0,-194.0,-28.0,-104.0,409.0,276.0,-163.0,-758.0,-30.0
-38.0,-196.0,-26.0,-161.0,419.0,277.0,-170.0,-770.0,-33.0
-39.0,-201.0,-28.0,-218.0,433.0,281.0,-176.0,-787.0,-27.0
-35.0,-215.0,-28.0,-270.0,446.0,284.0,-167.0,-832.0,-32.0
-37.0,-213.0,-15.0,-332.0,444.0,283.0,-169.0,-829.0,13.0
-33.0,-219.0,-11.0,-348.0,437.0,284.0,-151.0,-845.0,23.0
-33.0,-219.0,-10.0,-348.0,427.0,266.0,-144.0,-850.0,45.0
-32.0,-225.0,-7.0,-337.0,411.0,245.0,-133.0,-869.0,46.0
-27.0,-230.0,0.0,-325.0,390.0,220.0,-133.0,-878.0,58.0
-27.0,-234.0,1.0,-303.0,366.0,196.0,-127.0,-899.0,60.0
-22.0,-238.0,4.0,-278.0,337.0,167.0,-113.0,-904.0,72.0
-22.0,-240.0,0.0,-244.0,303.0,134.0,-107.0,-918.0,74.0
-19.0,-240.0,3.0,-203.0,269.0,86.0,-97.0,-924.0,74.0
-18.0,-242.0,4.0,-148.0,232.0,47.0,-93.0,-920.0,81.0
-17.0,-238.0,1.0,-106.0,203.0,6.0,-94.0,-912.0,69.0
-18.0,-236.0,-5.0,-66.0,183.0,-30.0,-96.0,-907.0,63.0
-16.0,-235.0,-2.0,-34.0,164.0,-60.0,-89.0,-899.0,71.0
-13.0,-231.0,1.0,-9.0,151.0,-91.0,-88.0,-888.0,66.0
-12.0,-233.0,-1.0,12.0,144.0,-121.0,-92.0,-885.0,69.0
-13.0,-230.0,1.0,18.0,143.0,-149.0,-91.0,-873.0,77.0
-18.0,-227.0,5.0,20.0,144.0,-174.0,-98.0,-871.0,85.0
-21.0,-223.0,10.0,22.0,149.0,-198.0,-104.0,-872.0,97.0
-18.0,-222.0,12.0,32.0,158.0,-209.0,-101.0,-854.0,125.0
-17.0,-225.0,15.0,43.0,170.0,-215.0,-100.0,-868.0,132.0
-12.0,-224.0,18.0,50.0,184.0,-217.0,-93.0,-866.0,148.0
-12.0,-225.0,22.0,55.0,203.0,-215.0,-73.0,-869.0,154.0
-8.0,-225.0,19.0,59.0,225.0,-210.0,-63.0,-866.0,159.0
-5.0,-229.0,18.0,59.0,249.0,-193.0,-51.0,-888.0,157.0
-2.0,-231.0,19.0,49.0,283.0,-196.0,-35.0,-901.0,150.0
2.0,-236.0,16.0,32.0,311.0,-201.0,-26.0,-907.0,148.0
5.0,-240.0,15.0,15.0,337.0,-195.0,-7.0,-924.0,143.0
10.0,-245.0,12.0,-4.0,362.0,-195.0,7.0,-943.0,141.0
14.0,-251.0,13.0,-25.0,381.0,-193.0,27.0,-966.0,132.0
18.0,-256.0,12.0,-44.0,395.0,-196.0,30.0,-975.0,128.0
18.0,-256.0,10.0,-60.0,408.0,-197.0,46.0,-992.0,122.0
20.0,-258.0,10.0,-77.0,419.0,-201.0,57.0,-1006.0,123.0
23.0,-261.0,12.0,-92.0,426.0,-202.0,57.0,-1009.0,118.0
21.0,-264.0,10.0,-106.0,430.0,-205.0,50.0,-1011.0,116.0
17.0,-258.0,8.0,-114.0,430.0,-203.0,36.0,-1001.0,106.0
12.0,-256.0,0.0,-122.0,425.0,-201.0,16.0,-999.0,82.0
1.0,-257.0,-7.0,-134.0,407.0,-188.0,-6.0,-995.0,53.0
-5.0,-255.0,-12.0,-154.0,386.0,-172.0,-42.0,-990.0,40.0
-11.0,-258.0,-12.0,-175.0,364.0,-145.0,-82.0,-1000.0,30.0
-21.0,-259.0,-10.0,-192.0,350.0,-123.0,-114.0,-1009.0,19.0
-28.0,-260.0,-15.0,-209.0,340.0,-96.0,-134.0,-1013.0,21.0
-32.0,-262.0,-7.0,-222.0,333.0,-71.0,-149.0,-1025.0,34.0
-33.0,-268.0,-9.0,-230.0,332.0,-42.0,-166.0,-1041.0,43.0
-38.0,-269.0,0.0,-235.0,338.0,-22.0,-179.0,-1049.0,66.0
-38.0,-274.0,6.0,-238.0,350.0,2.0,-180.0,-1071.0,88.0
-38.0,-284.0,12.0,-235.0,370.0,20.0,-188.0,-1093.0,113.0
-47.0,-289.0,21.0,-233.0,393.0,32.0,-211.0,-1106.0,145.0
-48.0,-295.0,28.0,-220.0,424.0,36.0,-220.0,-1127.0,176.0
-51.0,-298.0,34.0,-203.0,457.0,43.0,-230.0,-1146.0,205.0
-50.0,-305.0,40.0,-178.0,485.0,47.0,-241.0,-1164.0,227.0
-49.0,-304.0,42.0,-147.0,512.0,59.0,-225.0,-1162.0,247.0
-42.0,-304.0,40.0,-113.0,534.0,66.0,-204.0,-1164.0,247.0
-38.0,-303.0,41.0,-83.0,547.0,81.0,-177.0,-1165.0,226.0
-29.0,-301.0,36.0,-62.0,560.0,97.0,-132.0,-1156.0,211.0
-13.0,-299.0,31.0,-43.0,579.0,116.0,-103.0,-1146.0,194.0
-9.0,-299.0,24.0,-32.0,600.0,131.0,-67.0,-1144.0,171.0
2.0,-299.0,18.0,-32.0,622.0,161.0,-26.0,-1145.0,162.0
8.0,-312.0,9.0,-41.0,643.0,165.0,4.0,-1201.0,106.0
12.0,-319.0,6.0,-79.0,661.0,172.0,8.0,-1212.0,114.0
9.0,-323.0,9.0,-115.0,669.0,182.0,3.0,-1247.0,104.0
0.0,-317.0,13.0,-128.0,661.0,206.0,-20.0,-1211.0,128.0
3.0,-319.0,11.0,-96.0,649.0,223.0,-30.0,-1209.0,123.0
-5.0,-318.0,11.0,-57.0,634.0,226.0,-45.0,-1217.0,112.0
-12.0,-316.0,4.0,-23.0,603.0,219.0,-70.0,-1210.0,92.0
-15.0,-319.0,-12.0,13.0,567.0,220.0,-98.0,-1214.0,26.0
-26.0,-318.0,-30.0,36.0,534.0,209.0,-123.0,-1212.0,-39.0
-30.0,-318.0,-44.0,54.0,514.0,215.0,-164.0,-1218.0,-100.0
-43.0,-320.0,-58.0,65.0,505.0,229.0,-205.0,-1237.0,-158.0
-55.0,-325.0,-71.0,66.0,497.0,258.0,-247.0,-1253.0,-202.0
-71.0,-330.0,-82.0,64.0,470.0,292.0,-296.0,-1275.0,-257.0
-81.0,-336.0,-95.0,61.0,430.0,347.0,-335.0,-1304.0,-302.0
-78.0,-341.0,-98.0,64.0,379.0,414.0,-340.0,-1299.0,-319.0
-68.0,-333.0,-102.0,86.0,306.0,497.0,-301.0,-1290.0,-328.0
-51.0,-326.0,-99.0,119.0,248.0,545.0,-235.0,-1257.0,-315.0
-33.0,-318.0,-93.0,127.0,210.0,571.0,-170.0,-1213.0,-322.0
-14.0,-305.0,-97.0,119.0,185.0,564.0,-97.0,-1172.0,-317.0
3.0,-291.0,-90.0,101.0,178.0,544.0,-20.0,-1119.0,-284.0
21.0,-276.0,-83.0,103.0,185.0,503.0,50.0,-1071.0,-271.0
42.0,-260.0,-81.0,128.0,208.0,462.0,118.0,-1022.0,-255.0
57.0,-250.0,-85.0,176.0,247.0,414.0,187.0,-960.0,-248.0
75.0,-238.0,-80.0,235.0,291.0,367.0,245.0,-924.0,-238.0
86.0,-228.0,-76.0,291.0,333.0,304.0,291.0,-888.0,-235.0
98.0,-221.0,-81.0,340.0,358.0,243.0,342.0,-870.0,-251.0
108.0,-219.0,-82.0,344.0,379.0,177.0,374.0,-854.0,-256.0
117.0,-218.0,-76.0,323.0,397.0,116.0,405.0,-859.0,-233.0
119.0,-224.0,-73.0,288.0,413.0,50.0,420.0,-882.0,-216.0
117.0,-234.0,-62.0,241.0,428.0,-20.0,420.0,-907.0,-202.0
108.0,-239.0,-59.0,189.0,436.0,-94.0,396.0,-929.0,-165.0
99.0,-240.0,-53.0,145.0,435.0,-156.0,346.0,-942.0,-123.0
86.0,-249.0,-44.0,125.0,426.0,-203.0,300.0,-963.0,-88.0
79.0,-258.0,-40.0,127.0,416.0,-240.0,271.0,-995.0,-78.0
66.0,-258.0,-34.0,147.0,397.0,-266.0,232.0,-1007.0,-50.0
54.0,-260.0,-32.0,178.0,378.0,-283.0,183.0,-1005.0,-47.0
46.0,-264.0,-34.0,210.0,364.0,-293.0,139.0,-1028.0,-57.0
32.0,-269.0,-36.0,230.0,352.0,-301.0,107.0,-1047.0,-76.0
22.0,-271.0,-40.0,234.0,330.0,-308.0,59.0,-1055.0,-82.0
11.0,-275.0,-38.0,229.0,303.0,-315.0,15.0,-1065.0,-79.0
2.0,-273.0,-36.0,221.0,258.0,-322.0,-9.0,-1068.0,-68.0
-10.0,-273.0,-37.0,209.0,193.0,-338.0,-46.0,-1074.0,-71.0
-19.0,-272.0,-35.0,196.0,119.0,-360.0,-78.0,-1060.0,-66.0
-25.0,-264.0,-37.0,182.0,27.0,-377.0,-118.0,-1032.0,-78.0
-29.0,-262.0,-42.0,171.0,-43.0,-396.0,-127.0,-1015.0,-83.0
-32.0,-257.0,-40.0,158.0,-110.0,-419.0,-139.0,-988.0,-90.0
-30.0,-250.0,-43.0,144.0,-167.0,-444.0,-139.0,-963.0,-90.0
-33.0,-247.0,-44.0,130.0,-213.0,-469.0,-157.0,-948.0,-93.0
-36.0,-244.0,-45.0,111.0,-242.0,-488.0,-158.0,-946.0,-109.0
-31.0,-244.0,-41.0,85.0,-260.0,-494.0,-157.0,-929.0,-85.0
-30.0,-236.0,-35.0,72.0,-267.0,-489.0,-145.0,-906.0,-68.0
-27.0,-231.0,-36.0,68.0,-264.0,-473.0,-135.0,-899.0,-62.0
-20.0,-225.0,-32.0,70.0,-249.0,-460.0,-116.0,-873.0,-46.0
-15.0,-220.0,-25.0,77.0,-237.0,-446.0,-92.0,-849.0,-34.0
-10.0,-210.0,-26.0,88.0,-232.0,-427.0,-67.0,-817.0,-31.0
-6.0,-200.0,-23.0,103.0,-232.0,-403.0,-46.0,-789.0,-17.0
0.0,-196.0,-28.0,116.0,-231.0,-376.0,-17.0,-757.0,-26.0
12.0,-189.0,-22.0,127.0,-235.0,-354.0,21.0,-737.0,-20.0
16.0,-185.0,-27.0,137.0,-243.0,-330.0,37.0,-719.0,-27.0
21.0,-181.0,-29.0,137.0,-258.0,-308.0,56.0,-713.0,-35.0
28.0,-183.0,-29.0,126.0,-276.0,-276.0,74.0,-711.0,-35.0
28.0,-181.0,-27.0,100.0,-299.0,-241.0,97.0,-708.0,-31.0
34.0,-178.0,-27.0,72.0,-320.0,-210.0,109.0,-706.0,-23.0
44.0,-188.0,-27.0,37.0,-342.0,-186.0,146.0,-733.0,-45.0
51.0,-188.0,-19.0,-14.0,-359.0,-172.0,168.0,-734.0,-13.0
55.0,-195.0,-20.0,-52.0,-376.0,-165.0,197.0,-756.0,0.0
63.0,-202.0,-17.0,-78.0,-385.0,-163.0,214.0,-783.0,2.0
63.0,-206.0,-15.0,-112.0,-386.0,-171.0,221.0,-805.0,0.0
66.0,-206.0,-11.0,-138.0,-382.0,-172.0,228.0,-811.0,20.0
66.0,-210.0,-16.0,-147.0,-380.0,-179.0,236.0,-831.0,21.0
70.0,-212.0,-11.0,-157.0,-368.0,-189.0,236.0,-826.0,23.0
71.0,-215.0,-17.0,-165.0,-349.0,-197.0,243.0,-837.0,22.0
68.0,-215.0,-15.0,-175.0,-327.0,-201.0,238.0,-845.0,24.0
65.0,-220.0,-12.0,-187.0,-299.0,-208.0,231.0,-852.0,33.0
62.0,-217.0,-12.0,-189.0,-271.0,-205.0,212.0,-857.0,39.0
61.0,-222.0,-11.0,-181.0,-236.0,-203.0,204.0,-862.0,47.0
56.0,-222.0,-5.0,-168.0,-208.0,-175.0,199.0,-865.0,57.0
57.0,-226.0,-2.0,-148.0,-174.0,-152.0,186.0,-872.0,59.0
56.0,-233.0,-13.0,-126.0,-139.0,-126.0,178.0,-898.0,36.0
53.0,-235.0,-10.0,-126.0,-86.0,-113.0,170.0,-905.0,53.0
49.0,-238.0,-9.0,-133.0,-52.0,-96.0,159.0,-913.0,47.0
42.0,-236.0,2.0,-128.0,-24.0,-83.0,129.0,-914.0,78.0
39.0,-237.0,2.0,-114.0,-9.0,-72.0,120.0,-916.0,76.0
34.0,-239.0,4.0,-101.0,-8.0,-33.0,112.0,-922.0,88.0
34.0,-241.0,9.0,-86.0,-10.0,10.0,97.0,-917.0,106.0
32.0,-241.0,10.0,-65.0,-12.0,38.0,99.0,-925.0,104.0
34.0,-241.0,14.0,-57.0,-13.0,66.0,97.0,-919.0,122.0
30.0,-242.0,13.0,-55.0,-18.0,89.0,91.0,-921.0,119.0
33.0,-243.0,10.0,-61.0,-19.0,120.0,101.0,-930.0,124.0
33.0,-243.0,12.0,-74.0,-17.0,141.0,94.0,-936.0,123.0
29.0,-246.0,16.0,-85.0,-16.0,160.0,94.0,-945.0,134.0
31.0,-243.0,21.0,-93.0,-13.0,162.0,94.0,-945.0,141.0
32.0,-247.0,17.0,-99.0,-23.0,174.0,94.0,-944.0,142.0
33.0,-247.0,16.0,-102.0,-32.0,190.0,103.0,-949.0,139.0
31.0,-248.0,15.0,-102.0,-37.0,201.0,96.0,-933.0,141.0
32.0,-241.0,20.0,-92.0,-43.0,208.0,96.0,-931.0,151.0
30.0,-244.0,13.0,-76.0,-50.0,220.0,87.0,-934.0,140.0
31.0,-242.0,18.0,-65.0,-55.0,226.0,94.0,-920.0,138.0
29.0,-238.0,11.0,-49.0,-66.0,231.0,84.0,-912.0,129.0
21.0,-236.0,14.0,-42.0,-78.0,227.0,67.0,-908.0,120.0
17.0,-240.0,11.0,-43.0,-89.0,229.0,53.0,-914.0,122.0
18.0,-240.0,11.0,-59.0,-102.0,224.0,35.0,-924.0,112.0
13.0,-246.0,9.0,-87.0,-122.0,220.0,31.0,-938.0,112.0
14.0,-252.0,9.0,-115.0,-146.0,210.0,27.0,-957.0,105.0
13.0,-254.0,9.0,-137.0,-170.0,200.0,19.0,-973.0,110.0
7.0,-259.0,11.0,-149.0,-192.0,187.0,16.0,-1004.0,103.0
12.0,-265.0,7.0,-152.0,-205.0,176.0,16.0,-1018.0,111.0
11.0,-267.0,9.0,-144.0,-217.0,158.0,29.0,-1035.0,113.0
21.0,-274.0,10.0,-127.0,-223.0,144.0,38.0,-1047.0,108.0
21.0,-271.0,11.0,-104.0,-223.0,123.0,52.0,-1051.0,112.0
25.0,-271.0,9.0,-77.0,-218.0,103.0,58.0,-1053.0,111.0
26.0,-272.0,10.0,-51.0,-214.0,81.0,62.0,-1055.0,117.0
28.0,-272.0,12.0,-27.0,-207.0,43.0,85.0,-1046.0,114.0
38.0,-274.0,11.0,-5.0,-217.0,33.0,114.0,-1058.0,117.0
43.0,-277.0,12.0,16.0,-222.0,29.0,135.0,-1070.0,124.0
44.0,-275.0,17.0,26.0,-223.0,6.0,142.0,-1074.0,138.0
50.0,-277.0,24.0,33.0,-219.0,-16.0,154.0,-1080.0,150.0
58.0,-280.0,29.0,41.0,-220.0,-33.0,191.0,-1084.0,172.0
67.0,-285.0,26.0,46.0,-221.0,-24.0,226.0,-1105.0,187.0
69.0,-290.0,38.0,48.0,-220.0,-30.0,236.0,-1123.0,225.0
71.0,-292.0,46.0,56.0,-222.0,-36.0,253.0,-1137.0,248.0
76.0,-295.0,52.0,67.0,-232.0,-23.0,266.0,-1151.0,273.0
75.0,-303.0,61.0,86.0,-244.0,-14.0,259.0,-1157.0,297.0
73.0,-304.0,56.0,108.0,-251.0,-12.0,256.0,-1163.0,289.0
77.0,-305.0,46.0,130.0,-256.0,-12.0,261.0,-1170.0,263.0
64.0,-307.0,42.0,139.0,-264.0,-23.0,220.0,-1184.0,239.0
60.0,-311.0,40.0,135.0,-275.0,-27.0,211.0,-1197.0,227.0
54.0,-307.0,40.0,141.0,-292.0,-40.0,189.0,-1187.0,233.0
52.0,-301.0,38.0,152.0,-307.0,-60.0,167.0,-1169.0,210.0
50.0,-306.0,23.0,177.0,-314.0,-78.0,161.0,-1176.0,179.0
50.0,-312.0,10.0,172.0,-309.0,-101.0,166.0,-1208.0,113.0
47.0,-303.0,19.0,144.0,-304.0,-123.0,158.0,-1179.0,147.0
49.0,-301.0,3.0,148.0,-286.0,-137.0,142.0,-1172.0,109.0
50.0,-295.0,7.0,148.0,-262.0,-131.0,162.0,-1150.0,106.0
53.0,-288.0,6.0,136.0,-232.0,-129.0,176.0,-1115.0,91.0
53.0,-283.0,-5.0,125.0,-207.0,-130.0,171.0,-1089.0,68.0
52.0,-279.0,-21.0,109.0,-173.0,-137.0,176.0,-1087.0,-10.0
52.0,-281.0,-42.0,75.0,-143.0,-149.0,175.0,-1091.0,-71.0
49.0,-287.0,-56.0,27.0,-127.0,-168.0,154.0,-1118.0,-150.0
44.0,-298.0,-71.0,-22.0,-133.0,-189.0,150.0,-1164.0,-204.0
44.0,-315.0,-74.0,-66.0,-166.0,-215.0,147.0,-1224.0,-224.0
45.0,-335.0,-70.0,-88.0,-216.0,-247.0,140.0,-1284.0,-215.0
49.0,-355.0,-63.0,-87.0,-265.0,-289.0,141.0,-1357.0,-180.0
39.0,-366.0,-52.0,-59.0,-299.0,-345.0,121.0,-1403.0,-133.0
39.0,-369.0,-34.0,10.0,-305.0,-389.0,104.0,-1417.0,-63.0
23.0,-362.0,-28.0,100.0,-301.0,-421.0,63.0,-1384.0,-35.0
14.0,-343.0,-32.0,204.0,-286.0,-425.0,22.0,-1327.0,-48.0
10.0,-324.0,-33.0,301.0,-267.0,-404.0,5.0,-1229.0,-59.0
10.0,-294.0,-41.0,379.0,-254.0,-370.0,-8.0,-1135.0,-112.0
-2.0,-259.0,-65.0,423.0,-239.0,-330.0,-43.0,-1012.0,-171.0
-7.0,-232.0,-80.0,416.0,-219.0,-272.0,-53.0,-909.0,-253.0
-12.0,-203.0,-94.0,350.0,-210.0,-225.0,-67.0,-823.0,-301.0
-20.0,-187.0,-106.0,234.0,-231.0,-189.0,-106.0,-759.0,-348.0
-31.0,-177.0,-111.0,59.0,-272.0,-164.0,-136.0,-710.0,-376.0
-41.0,-171.0,-112.0,-95.0,-328.0,-146.0,-180.0,-682.0,-373.0
-48.0,-168.0,-106.0,-237.0,-384.0,-123.0,-206.0,-677.0,-358.0
-54.0,-169.0,-103.0,-352.0,-433.0,-107.0,-229.0,-672.0,-335.0
-58.0,-174.0,-91.0,-446.0,-472.0,-94.0,-235.0,-682.0,-292.0
-58.0,-183.0,-80.0,-512.0,-501.0,-88.0,-250.0,-710.0,-247.0
-59.0,-195.0,-64.0,-540.0,-527.0,-77.0,-255.0,-738.0,-190.0
-57.0,-203.0,-49.0,-526.0,-545.0,-67.0,-250.0,-780.0,-136.0
-56.0,-217.0,-35.0,-480.0,-557.0,-44.0,-247.0,-821.0,-90.0
-50.0,-224.0,-39.0,-383.0,-557.0,-18.0,-217.0,-864.0,-52.0
-36.0,-238.0,-23.0,-273.0,-546.0,12.0,-174.0,-904.0,-26.0
-16.0,-252.0,-15.0,-146.0,-516.0,36.0,-111.0,-941.0,10.0
-10.0,-260.0,-14.0,3.0,-474.0,59.0,-69.0,-989.0,33.0
2.0,-268.0,-16.0,156.0,-428.0,80.0,-35.0,-1025.0,23.0
15.0,-277.0,-27.0,287.0,-369.0,100.0,14.0,-1061.0,-10.0
29.0,-279.0,-31.0,376.0,-306.0,108.0,60.0,-1083.0,-31.0
31.0,-281.0,-35.0,420.0,-245.0,131.0,79.0,-1100.0,-64.0
38.0,-278.0,-45.0,428.0,-170.0,171.0,100.0,-1089.0,-102.0
44.0,-273.0,-54.0,390.0,-69.0,223.0,127.0,-1080.0,-141.0
51.0,-266.0,-61.0,317.0,18.0,272.0,160.0,-1049.0,-167.0
54.0,-255.0,-66.0,219.0,97.0,318.0,172.0,-1020.0,-184.0
58.0,-257.0,-64.0,98.0,164.0,345.0,189.0,-1008.0,-188.0
53.0,-251.0,-55.0,-34.0,210.0,360.0,183.0,-985.0,-153.0
51.0,-247.0,-49.0,-129.0,228.0,374.0,170.0,-968.0,-109.0
49.0,-250.0,-42.0,-176.0,230.0,392.0,157.0,-975.0,-90.0
51.0,-257.0,-35.0,-203.0,229.0,407.0,168.0,-997.0,-70.0
49.0,-261.0,-33.0,-212.0,230.0,410.0,168.0,-1013.0,-47.0
46.0,-265.0,-24.0,-201.0,241.0,401.0,141.0,-1027.0,-28.0
36.0,-267.0,-18.0,-171.0,258.0,407.0,112.0,-1037.0,3.0
29.0,-266.0,-11.0,-124.0,276.0,417.0,81.0,-1025.0,25.0
24.0,-261.0,-6.0,-60.0,295.0,431.0,64.0,-996.0,49.0
24.0,-254.0,-16.0,17.0,313.0,430.0,67.0,-982.0,21.0
21.0,-248.0,-18.0,74.0,330.0,431.0,57.0,-955.0,7.0
18.0,-245.0,-19.0,111.0,349.0,422.0,37.0,-930.0,-6.0
13.0,-236.0,-22.0,135.0,372.0,410.0,23.0,-914.0,-4.0
12.0,-234.0,-17.0,146.0,393.0,385.0,11.0,-901.0,-1.0
5.0,-230.0,-17.0,161.0,411.0,365.0,-2.0,-891.0,-2.0
-1.0,-230.0,-23.0,170.0,424.0,339.0,-27.0,-889.0,-20.0
-4.0,-227.0,-27.0,166.0,437.0,321.0,-49.0,-881.0,-37.0
-12.0,-221.0,-35.0,147.0,447.0,307.0,-72.0,-872.0,-49.0
-14.0,-216.0,-35.0,117.0,459.0,305.0,-97.0,-851.0,-62.0
-21.0,-210.0,-41.0,77.0,471.0,304.0,-109.0,-836.0,-76.0
-20.0,-208.0,-39.0,24.0,492.0,308.0,-119.0,-814.0,-78.0
-26.0,-204.0,-39.0,-40.0,518.0,316.0,-133.0,-809.0,-67.0
-35.0,-201.0,-34.0,-107.0,539.0,328.0,-161.0,-788.0,-46.0
-39.0,-198.0,-31.0,-171.0,546.0,340.0,-177.0,-788.0,-49.0
-39.0,-201.0,-30.0,-220.0,544.0,357.0,-181.0,-789.0,-40.0
-38.0,-202.0,-28.0,-264.0,534.0,362.0,-173.0,-791.0,-33.0
-37.0,-208.0,-23.0,-297.0,516.0,357.0,-165.0,-803.0,-26.0
-31.0,-210.0,-25.0,-315.0,497.0,340.0,-152.0,-822.0,-17.0
-36.0,-215.0,-14.0,-331.0,477.0,316.0,-154.0,-831.0,-8.0
-34.0,-216.0,-17.0,-329.0,457.0,290.0,-158.0,-831.0,15.0
-29.0,-223.0,-15.0,-312.0,436.0,262.0,-142.0,-854.0,14.0
-32.0,-222.0,-14.0,-292.0,416.0,223.0,-143.0,-861.0,19.0
-29.0,-228.0,-9.0,-256.0,392.0,179.0,-142.0,-873.0,25.0
-32.0,-225.0,-8.0,-219.0,368.0,142.0,-145.0,-868.0,38.0
-29.0,-226.0,-6.0,-183.0,345.0,109.0,-139.0,-875.0,33.0
-22.0,-230.0,-6.0,-148.0,318.0,73.0,-129.0,-874.0,40.0
-26.0,-226.0,-4.0,-119.0,291.0,38.0,-131.0,-869.0,42.0
-31.0,-225.0,-7.0,-91.0,265.0,6.0,-138.0,-865.0,51.0
-23.0,-223.0,-4.0,-64.0,241.0,-19.0,-110.0,-857.0,58.0
-19.0,-225.0,-3.0,-41.0,219.0,-51.0,-98.0,-861.0,57.0
-17.0,-224.0,-1.0,-28.0,203.0,-84.0,-101.0,-855.0,72.0
-19.0,-224.0,2.0,-12.0,189.0,-120.0,-100.0,-870.0,73.0
-18.0,-226.0,0.0,-1.0,182.0,-143.0,-97.0,-882.0,66.0
-13.0,-232.0,1.0,-2.0,180.0,-162.0,-93.0,-897.0,65.0
-12.0,-236.0,-2.0,-3.0,179.0,-175.0,-96.0,-904.0,72.0
-12.0,-241.0,-2.0,-2.0,179.0,-169.0,-82.0,-927.0,65.0
-12.0,-241.0,2.0,-5.0,191.0,-182.0,-83.0,-928.0,81.0
-12.0,-245.0,0.0,-9.0,197.0,-193.0,-72.0,-933.0,80.0
-11.0,-245.0,6.0,-13.0,199.0,-199.0,-67.0,-947.0,84.0
-5.0,-245.0,4.0,-27.0,202.0,-200.0,-53.0,-944.0,89.0
-4.0,-246.0,-2.0,-40.0,208.0,-200.0,-47.0,-946.0,82.0
-7.0,-249.0,1.0,-65.0,218.0,-201.0,-33.0,-950.0,75.0
-3.0,-243.0,4.0,-91.0,227.0,-199.0,-25.0,-941.0,83.0
1.0,-243.0,7.0,-107.0,233.0,-199.0,-19.0,-933.0,83.0
5.0,-244.0,4.0,-116.0,240.0,-198.0,-5.0,-932.0,77.0
10.0,-244.0,5.0,-127.0,244.0,-195.0,7.0,-929.0,87.0
7.0,-239.0,3.0,-134.0,246.0,-197.0,4.0,-926.0,86.0
6.0,-240.0,4.0,-143.0,248.0,-201.0,2.0,-929.0,83.0
2.0,-243.0,0.0,-150.0,241.0,-205.0,-10.0,-925.0,77.0
4.0,-237.0,-5.0,-156.0,223.0,-198.0,-14.0,-932.0,60.0
3.0,-242.0,-7.0,-159.0,211.0,-195.0,-10.0,-929.0,58.0
4.0,-243.0,-5.0,-159.0,205.0,-189.0,-22.0,-935.0,60.0
1.0,-243.0,-9.0,-157.0,207.0,-185.0,-29.0,-944.0,53.0
-2.0,-247.0,-4.0,-156.0,215.0,-177.0,-37.0,-945.0,59.0
-4.0,-249.0,-3.0,-156.0,227.0,-170.0,-45.0,-962.0,67.0
-4.0,-252.0,3.0,-158.0,241.0,-160.0,-38.0,-967.0,77.0
-6.0,-255.0,1.0,-157.0,254.0,-146.0,-50.0,-980.0,81.0
-7.0,-256.0,2.0,-160.0,270.0,-129.0,-61.0,-999.0,83.0
-9.0,-257.0,5.0,-168.0,284.0,-116.0,-57.0,-1002.0,88.0
-7.0,-261.0,7.0,-182.0,301.0,-101.0,-54.0,-1011.0,91.0
-3.0,-262.0,2.0,-195.0,316.0,-86.0,-48.0,-1023.0,95.0
-3.0,-271.0,5.0,-206.0,332.0,-69.0,-40.0,-1044.0,91.0
1.0,-272.0,6.0,-211.0,353.0,-53.0,-35.0,-1065.0,94.0
-4.0,-279.0,8.0,-209.0,379.0,-38.0,-38.0,-1077.0,108.0
-3.0,-282.0,5.0,-198.0,412.0,-33.0,-38.0,-1097.0,109.0
-1.0,-289.0,10.0,-178.0,438.0,-29.0,-39.0,-1110.0,113.0
-4.0,-293.0,11.0,-157.0,462.0,-30.0,-59.0,-1135.0,116.0
-2.0,-301.0,10.0,-136.0,480.0,-24.0,-48.0,-1160.0,132.0
-6.0,-306.0,23.0,-112.0,496.0,-32.0,-47.0,-1168.0,154.0
-3.0,-306.0,24.0,-84.0,508.0,-39.0,-51.0,-1164.0,177.0
-1.0,-304.0,31.0,-52.0,520.0,-45.0,-46.0,-1166.0,195.0
2.0,-304.0,38.0,-22.0,536.0,-44.0,-30.0,-1161.0,214.0
2.0,-300.0,33.0,6.0,559.0,-45.0,-24.0,-1154.0,219.0
5.0,-295.0,43.0,21.0,593.0,-33.0,-11.0,-1131.0,234.0
12.0,-291.0,41.0,28.0,629.0,-23.0,4.0,-1128.0,230.0
8.0,-285.0,43.0,16.0,665.0,-11.0,-4.0,-1110.0,230.0
6.0,-280.0,38.0,-7.0,703.0,-3.0,-15.0,-1091.0,219.0
-1.0,-276.0,31.0,-49.0,735.0,16.0,-25.0,-1071.0,194.0
3.0,-279.0,22.0,-86.0,749.0,32.0,-21.0,-1085.0,160.0
3.0,-277.0,19.0,-121.0,755.0,36.0,-25.0,-1083.0,143.0
-8.0,-281.0,9.0,-142.0,759.0,36.0,-54.0,-1090.0,113.0
-12.0,-286.0,0.0,-156.0,758.0,45.0,-77.0,-1114.0,89.0
-18.0,-282.0,8.0,-168.0,753.0,53.0,-109.0,-1086.0,102.0
-27.0,-282.0,8.0,-160.0,740.0,72.0,-127.0,-1097.0,90.0
-31.0,-285.0,-2.0,-147.0,725.0,85.0,-141.0,-1100.0,86.0
-32.0,-286.0,-3.0,-142.0,710.0,103.0,-154.0,-1093.0,80.0
-33.0,-287.0,-8.0,-139.0,693.0,112.0,-165.0,-1108.0,56.0
-37.0,-295.0,-14.0,-150.0,683.0,123.0,-176.0,-1139.0,21.0
-40.0,-301.0,-18.0,-165.0,672.0,133.0,-200.0,-1155.0,-13.0
-45.0,-306.0,-36.0,-178.0,659.0,155.0,-215.0,-1193.0,-57.0
-54.0,-317.0,-49.0,-195.0,643.0,174.0,-235.0,-1225.0,-117.0
-65.0,-325.0,-62.0,-201.0,616.0,211.0,-281.0,-1256.0,-172.0
-76.0,-336.0,-75.0,-203.0,572.0,254.0,-324.0,-1298.0,-224.0
-87.0,-347.0,-84.0,-196.0,506.0,314.0,-365.0,-1348.0,-273.0
-94.0,-357.0,-90.0,-171.0,422.0,389.0,-398.0,-1372.0,-296.0
-92.0,-361.0,-97.0,-112.0,313.0,498.0,-386.0,-1382.0,-304.0
-76.0,-355.0,-91.0,-47.0,224.0,573.0,-326.0,-1363.0,-290.0
-50.0,-343.0,-84.0,19.0,156.0,624.0,-240.0,-1333.0,-275.0
-33.0,-330.0,-84.0,59.0,111.0,627.0,-173.0,-1279.0,-263.0
-12.0,-310.0,-84.0,71.0,88.0,598.0,-116.0,-1213.0,-258.0
-4.0,-296.0,-90.0,76.0,89.0,542.0,-62.0,-1141.0,-286.0
6.0,-279.0,-93.0,85.0,122.0,479.0,-1.0,-1065.0,-300.0
20.0,-261.0,-91.0,106.0,171.0,415.0,52.0,-1000.0,-279.0
42.0,-244.0,-81.0,164.0,226.0,355.0,117.0,-919.0,-249.0
56.0,-225.0,-80.0,249.0,285.0,277.0,182.0,-861.0,-246.0
72.0,-209.0,-77.0,345.0,329.0,223.0,243.0,-813.0,-236.0
88.0,-198.0,-75.0,395.0,368.0,164.0,296.0,-785.0,-223.0
102.0,-196.0,-72.0,412.0,410.0,106.0,360.0,-782.0,-220.0
112.0,-200.0,-65.0,398.0,446.0,36.0,410.0,-793.0,-192.0
117.0,-208.0,-56.0,364.0,476.0,-37.0,434.0,-815.0,-160.0
125.0,-213.0,-48.0,321.0,500.0,-111.0,445.0,-850.0,-134.0
117.0,-234.0,-46.0,279.0,511.0,-175.0,417.0,-888.0,-110.0
93.0,-233.0,-65.0,248.0,507.0,-232.0,367.0,-904.0,-78.0
82.0,-238.0,-40.0,241.0,482.0,-268.0,310.0,-934.0,-40.0
77.0,-254.0,-16.0,271.0,443.0,-283.0,254.0,-974.0,-41.0
63.0,-262.0,-26.0,294.0,391.0,-295.0,218.0,-1014.0,-41.0
52.0,-267.0,-34.0,305.0,336.0,-309.0,182.0,-1043.0,-71.0
41.0,-271.0,-43.0,290.0,296.0,-327.0,133.0,-1057.0,-89.0
26.0,-274.0,-43.0,252.0,268.0,-346.0,74.0,-1072.0,-102.0
