acc1_x,acc1_y,acc1_z,gyro_x,gyro_y,gyro_z,acc2_x,acc2_y,acc2_z
8.0,-252.0,-52.0,-38.0,54.0,-4.0,0.0,-968.0,-137.0
8.0,-252.0,-53.0,-38.0,53.0,-3.0,-6.0,-970.0,-134.0
2.0,-251.0,-52.0,-36.0,52.0,-5.0,-8.0,-968.0,-133.0
6.0,-251.0,-50.0,-36.0,51.0,-3.0,0.0,-967.0,-130.0
-2.0,-250.0,-53.0,-37.0,48.0,-4.0,-31.0,-973.0,-140.0
20.0,-252.0,-61.0,-43.0,44.0,-1.0,1.0,-967.0,-136.0
13.0,-247.0,-45.0,-43.0,43.0,-5.0,1.0,-977.0,-129.0
9.0,-251.0,-58.0,-40.0,44.0,-8.0,-6.0,-971.0,-132.0
7.0,-255.0,-50.0,-37.0,48.0,-14.0,-10.0,-974.0,-131.0
3.0,-254.0,-51.0,-37.0,49.0,-14.0,-10.0,-977.0,-131.0
2.0,-253.0,-55.0,-42.0,47.0,-14.0,-23.0,-976.0,-139.0
6.0,-254.0,-53.0,-49.0,48.0,-17.0,-10.0,-978.0,-140.0
4.0,-255.0,-53.0,-47.0,48.0,-20.0,-9.0,-979.0,-139.0
8.0,-256.0,-53.0,-47.0,50.0,-23.0,-1.0,-986.0,-136.0
12.0,-255.0,-50.0,-42.0,53.0,-28.0,4.0,-987.0,-135.0
35.0,-258.0,-55.0,-41.0,60.0,-30.0,87.0,-990.0,-147.0
21.0,-248.0,-76.0,-41.0,74.0,-36.0,49.0,-977.0,-153.0
19.0,-257.0,-56.0,-45.0,91.0,-39.0,46.0,-976.0,-163.0
19.0,-253.0,-57.0,-49.0,106.0,-48.0,49.0,-980.0,-165.0
17.0,-252.0,-58.0,-56.0,115.0,-56.0,46.0,-976.0,-153.0
16.0,-253.0,-55.0,-61.0,124.0,-68.0,36.0,-986.0,-154.0
15.0,-256.0,-57.0,-68.0,133.0,-72.0,33.0,-986.0,-147.0
17.0,-254.0,-55.0,-72.0,140.0,-80.0,27.0,-979.0,-151.0
13.0,-254.0,-55.0,-71.0,146.0,-82.0,29.0,-977.0,-146.0
15.0,-251.0,-51.0,-68.0,154.0,-84.0,25.0,-973.0,-138.0
11.0,-249.0,-53.0,-61.0,159.0,-81.0,16.0,-971.0,-141.0
12.0,-253.0,-55.0,-53.0,164.0,-78.0,16.0,-969.0,-141.0
2.0,-253.0,-58.0,-46.0,168.0,-70.0,-15.0,-966.0,-153.0
10.0,-252.0,-55.0,-48.0,166.0,-56.0,4.0,-968.0,-148.0
6.0,-253.0,-57.0,-45.0,165.0,-50.0,-1.0,-965.0,-158.0
5.0,-253.0,-57.0,-44.0,171.0,-43.0,0.0,-977.0,-155.0
12.0,-254.0,-57.0,-37.0,178.0,-33.0,12.0,-974.0,-152.0
14.0,-252.0,-59.0,-28.0,187.0,-29.0,21.0,-974.0,-148.0
16.0,-253.0,-54.0,-23.0,195.0,-19.0,24.0,-974.0,-147.0
15.0,-254.0,-55.0,-17.0,200.0,-14.0,29.0,-970.0,-150.0
9.0,-257.0,-55.0,-18.0,207.0,-8.0,16.0,-968.0,-148.0
11.0,-250.0,-54.0,-19.0,208.0,-4.0,9.0,-973.0,-155.0
17.0,-250.0,-56.0,-20.0,209.0,-1.0,32.0,-972.0,-155.0
13.0,-253.0,-56.0,-23.0,212.0,-4.0,19.0,-975.0,-151.0
10.0,-251.0,-54.0,-23.0,214.0,-3.0,11.0,-975.0,-149.0
10.0,-253.0,-54.0,-25.0,220.0,-2.0,18.0,-972.0,-153.0
9.0,-251.0,-57.0,-24.0,224.0,2.0,4.0,-979.0,-152.0
8.0,-257.0,-54.0,-23.0,223.0,-1.0,0.0,-977.0,-146.0
7.0,-254.0,-55.0,-20.0,223.0,-1.0,3.0,-974.0,-143.0
7.0,-254.0,-53.0,-12.0,223.0,-3.0,-4.0,-975.0,-141.0
3.0,-252.0,-55.0,-4.0,225.0,-1.0,-11.0,-978.0,-144.0
4.0,-253.0,-56.0,2.0,227.0,-3.0,-11.0,-978.0,-142.0
3.0,-252.0,-52.0,8.0,230.0,-1.0,-16.0,-973.0,-149.0
3.0,-251.0,-66.0,13.0,236.0,1.0,-20.0,-973.0,-150.0
5.0,-255.0,-47.0,12.0,237.0,2.0,-20.0,-969.0,-149.0
4.0,-254.0,-56.0,11.0,239.0,3.0,-28.0,-974.0,-148.0
5.0,-252.0,-53.0,10.0,239.0,4.0,-37.0,-973.0,-152.0
7.0,-244.0,-54.0,10.0,237.0,7.0,-31.0,-972.0,-143.0
-1.0,-255.0,-54.0,8.0,235.0,10.0,-32.0,-971.0,-148.0
-1.0,-252.0,-55.0,9.0,230.0,12.0,-34.0,-960.0,-146.0
-2.0,-248.0,-56.0,8.0,225.0,12.0,-36.0,-959.0,-146.0
-3.0,-248.0,-53.0,5.0,219.0,14.0,-27.0,-962.0,-142.0
-4.0,-249.0,-55.0,3.0,213.0,13.0,-41.0,-966.0,-148.0
-3.0,-250.0,-56.0,-2.0,206.0,17.0,-28.0,-967.0,-144.0
-2.0,-252.0,-55.0,-5.0,201.0,16.0,-41.0,-969.0,-142.0
-1.0,-254.0,-52.0,-4.0,195.0,18.0,-34.0,-970.0,-143.0
-3.0,-252.0,-50.0,-4.0,189.0,20.0,-37.0,-970.0,-142.0
-4.0,-251.0,-52.0,-3.0,179.0,21.0,-38.0,-975.0,-140.0
-4.0,-252.0,-55.0,-4.0,172.0,20.0,-38.0,-976.0,-136.0
-3.0,-254.0,-53.0,-2.0,162.0,22.0,-42.0,-974.0,-137.0
-2.0,-255.0,-55.0,-1.0,155.0,21.0,-32.0,-974.0,-140.0
-4.0,-253.0,-55.0,3.0,148.0,21.0,-34.0,-979.0,-138.0
-2.0,-255.0,-49.0,8.0,141.0,21.0,-29.0,-976.0,-134.0
0.0,-256.0,-50.0,10.0,132.0,21.0,-29.0,-987.0,-131.0
-1.0,-257.0,-53.0,13.0,124.0,21.0,-27.0,-993.0,-129.0
0.0,-255.0,-50.0,17.0,118.0,22.0,-25.0,-989.0,-128.0
1.0,-255.0,-52.0,23.0,110.0,22.0,-24.0,-991.0,-134.0
0.0,-256.0,-47.0,29.0,104.0,24.0,-22.0,-980.0,-133.0
1.0,-253.0,-48.0,33.0,99.0,23.0,-22.0,-979.0,-132.0
3.0,-255.0,-52.0,36.0,93.0,25.0,-24.0,-977.0,-133.0
1.0,-252.0,-52.0,39.0,87.0,23.0,-23.0,-974.0,-134.0
2.0,-250.0,-50.0,41.0,82.0,25.0,-16.0,-970.0,-134.0
3.0,-255.0,-50.0,44.0,79.0,24.0,-21.0,-970.0,-129.0
3.0,-252.0,-52.0,47.0,75.0,27.0,-15.0,-972.0,-126.0
2.0,-252.0,-50.0,50.0,69.0,25.0,-15.0,-972.0,-124.0
5.0,-253.0,-45.0,51.0,63.0,29.0,-16.0,-971.0,-126.0
4.0,-254.0,-48.0,54.0,58.0,27.0,-10.0,-968.0,-122.0
7.0,-253.0,-49.0,56.0,52.0,31.0,-9.0,-972.0,-121.0
5.0,-253.0,-46.0,57.0,46.0,29.0,-14.0,-974.0,-121.0
3.0,-252.0,-46.0,56.0,41.0,31.0,-11.0,-976.0,-126.0
4.0,-253.0,-49.0,58.0,37.0,29.0,-11.0,-979.0,-126.0
4.0,-257.0,-44.0,59.0,34.0,30.0,-13.0,-982.0,-127.0
3.0,-256.0,-51.0,59.0,31.0,26.0,-9.0,-981.0,-128.0
3.0,-254.0,-50.0,61.0,30.0,28.0,-6.0,-984.0,-121.0
4.0,-254.0,-48.0,62.0,28.0,24.0,-5.0,-993.0,-124.0
7.0,-256.0,-51.0,63.0,27.0,24.0,-2.0,-979.0,-129.0
5.0,-255.0,-51.0,65.0,27.0,22.0,-2.0,-984.0,-129.0
7.0,-254.0,-53.0,67.0,28.0,23.0,-1.0,-977.0,-130.0
7.0,-252.0,-54.0,69.0,30.0,20.0,3.0,-977.0,-132.0
10.0,-255.0,-53.0,70.0,30.0,22.0,6.0,-973.0,-133.0
11.0,-252.0,-55.0,68.0,31.0,20.0,11.0,-974.0,-135.0
11.0,-253.0,-54.0,66.0,32.0,23.0,12.0,-974.0,-133.0
14.0,-255.0,-51.0,67.0,32.0,23.0,15.0,-976.0,-134.0
10.0,-252.0,-51.0,65.0,31.0,27.0,15.0,-976.0,-126.0
10.0,-252.0,-53.0,63.0,29.0,25.0,15.0,-974.0,-135.0
13.0,-251.0,-52.0,61.0,28.0,28.0,15.0,-975.0,-129.0
11.0,-252.0,-54.0,56.0,27.0,27.0,12.0,-975.0,-133.0
11.0,-252.0,-53.0,52.0,26.0,29.0,8.0,-970.0,-134.0
12.0,-255.0,-52.0,46.0,27.0,26.0,10.0,-971.0,-132.0
8.0,-252.0,-52.0,41.0,28.0,26.0,4.0,-975.0,-127.0
10.0,-254.0,-50.0,38.0,29.0,22.0,0.0,-972.0,-131.0
8.0,-251.0,-50.0,34.0,31.0,22.0,2.0,-973.0,-131.0
4.0,-253.0,-48.0,31.0,33.0,20.0,-3.0,-969.0,-133.0
6.0,-251.0,-52.0,31.0,34.0,17.0,-4.0,-971.0,-136.0
4.0,-251.0,-48.0,27.0,36.0,14.0,0.0,-966.0,-134.0
4.0,-252.0,-51.0,22.0,36.0,12.0,-6.0,-967.0,-131.0
8.0,-251.0,-51.0,20.0,37.0,7.0,-6.0,-964.0,-131.0
5.0,-250.0,-46.0,18.0,37.0,4.0,-8.0,-962.0,-124.0
4.0,-247.0,-47.0,14.0,35.0,-1.0,-14.0,-961.0,-130.0
3.0,-249.0,-49.0,8.0,33.0,-4.0,-15.0,-959.0,-127.0
1.0,-248.0,-46.0,3.0,29.0,-7.0,-23.0,-950.0,-122.0
-1.0,-249.0,-51.0,-2.0,26.0,-10.0,-23.0,-961.0,-120.0
-2.0,-249.0,-50.0,-7.0,21.0,-15.0,-26.0,-959.0,-125.0
0.0,-251.0,-46.0,-13.0,15.0,-18.0,-33.0,-956.0,-120.0
-4.0,-248.0,-46.0,-15.0,11.0,-19.0,-33.0,-961.0,-120.0
-2.0,-248.0,-51.0,-21.0,3.0,-21.0,-39.0,-959.0,-116.0
-5.0,-248.0,-51.0,-25.0,-4.0,-22.0,-43.0,-962.0,-118.0
-5.0,-250.0,-49.0,-29.0,-12.0,-24.0,-42.0,-959.0,-120.0
-5.0,-249.0,-50.0,-33.0,-20.0,-25.0,-48.0,-961.0,-112.0
-7.0,-249.0,-49.0,-37.0,-27.0,-26.0,-46.0,-956.0,-115.0
-5.0,-250.0,-45.0,-40.0,-37.0,-26.0,-52.0,-957.0,-113.0
-2.0,-249.0,-46.0,-43.0,-46.0,-27.0,-47.0,-956.0,-113.0
-3.0,-250.0,-50.0,-46.0,-51.0,-28.0,-50.0,-957.0,-119.0
-4.0,-250.0,-45.0,-51.0,-60.0,-29.0,-51.0,-958.0,-109.0
-7.0,-248.0,-47.0,-55.0,-65.0,-29.0,-45.0,-960.0,-117.0
-4.0,-250.0,-48.0,-60.0,-70.0,-33.0,-45.0,-964.0,-121.0
-3.0,-254.0,-48.0,-63.0,-75.0,-33.0,-43.0,-966.0,-121.0
-6.0,-251.0,-49.0,-66.0,-79.0,-37.0,-42.0,-971.0,-123.0
-4.0,-252.0,-50.0,-69.0,-84.0,-37.0,-40.0,-970.0,-122.0
-1.0,-255.0,-45.0,-69.0,-87.0,-40.0,-36.0,-975.0,-124.0
-3.0,-251.0,-51.0,-70.0,-89.0,-41.0,-38.0,-976.0,-130.0
-2.0,-251.0,-51.0,-72.0,-91.0,-44.0,-37.0,-978.0,-128.0
-2.0,-254.0,-50.0,-73.0,-92.0,-43.0,-30.0,-974.0,-125.0
1.0,-252.0,-47.0,-73.0,-95.0,-45.0,-29.0,-969.0,-126.0
-2.0,-253.0,-49.0,-71.0,-95.0,-44.0,-28.0,-971.0,-123.0
1.0,-253.0,-51.0,-70.0,-96.0,-45.0,-30.0,-974.0,-122.0
2.0,-252.0,-47.0,-68.0,-97.0,-45.0,-25.0,-968.0,-124.0
0.0,-254.0,-48.0,-67.0,-97.0,-46.0,-27.0,-967.0,-122.0
3.0,-253.0,-49.0,-65.0,-98.0,-42.0,-21.0,-968.0,-124.0
0.0,-251.0,-51.0,-63.0,-97.0,-42.0,-22.0,-973.0,-123.0
2.0,-255.0,-47.0,-61.0,-98.0,-40.0,-19.0,-971.0,-121.0
2.0,-253.0,-52.0,-59.0,-100.0,-40.0,-19.0,-970.0,-120.0
1.0,-251.0,-47.0,-56.0,-99.0,-37.0,-19.0,-975.0,-118.0
5.0,-254.0,-46.0,-53.0,-99.0,-37.0,-16.0,-973.0,-123.0
3.0,-252.0,-49.0,-53.0,-99.0,-32.0,-15.0,-975.0,-120.0
1.0,-255.0,-48.0,-53.0,-99.0,-34.0,-17.0,-978.0,-125.0
3.0,-253.0,-48.0,-51.0,-99.0,-30.0,-17.0,-974.0,-125.0
2.0,-255.0,-49.0,-49.0,-98.0,-30.0,-18.0,-975.0,-125.0
4.0,-252.0,-50.0,-48.0,-96.0,-25.0,-17.0,-974.0,-121.0
3.0,-252.0,-45.0,-43.0,-93.0,-25.0,-19.0,-977.0,-115.0
2.0,-254.0,-47.0,-41.0,-91.0,-19.0,-16.0,-972.0,-122.0
1.0,-251.0,-47.0,-39.0,-88.0,-21.0,-18.0,-973.0,-125.0
5.0,-252.0,-53.0,-35.0,-83.0,-15.0,-13.0,-974.0,-118.0
3.0,-251.0,-46.0,-33.0,-80.0,-13.0,-13.0,-973.0,-115.0
4.0,-254.0,-52.0,-31.0,-75.0,-8.0,-15.0,-974.0,-119.0
5.0,-253.0,-47.0,-30.0,-72.0,-8.0,-9.0,-978.0,-122.0
7.0,-255.0,-49.0,-27.0,-67.0,-4.0,-9.0,-977.0,-120.0
6.0,-256.0,-49.0,-25.0,-62.0,-5.0,-8.0,-975.0,-118.0
7.0,-254.0,-48.0,-22.0,-59.0,1.0,-1.0,-986.0,-119.0
9.0,-254.0,-45.0,-20.0,-54.0,0.0,0.0,-994.0,-121.0
6.0,-256.0,-52.0,-19.0,-49.0,4.0,3.0,-996.0,-123.0
9.0,-256.0,-48.0,-19.0,-45.0,5.0,1.0,-993.0,-122.0
7.0,-253.0,-51.0,-19.0,-41.0,8.0,4.0,-989.0,-123.0
9.0,-256.0,-46.0,-17.0,-36.0,7.0,6.0,-983.0,-122.0
7.0,-258.0,-49.0,-15.0,-31.0,10.0,3.0,-986.0,-127.0
8.0,-255.0,-47.0,-13.0,-27.0,8.0,-4.0,-990.0,-126.0
5.0,-255.0,-52.0,-10.0,-22.0,9.0,1.0,-985.0,-123.0
8.0,-252.0,-49.0,-7.0,-18.0,8.0,1.0,-980.0,-123.0
5.0,-254.0,-51.0,-4.0,-13.0,11.0,0.0,-975.0,-129.0
7.0,-254.0,-50.0,-1.0,-6.0,10.0,1.0,-974.0,-125.0
5.0,-251.0,-51.0,-1.0,-3.0,13.0,-1.0,-974.0,-127.0
7.0,-254.0,-47.0,1.0,1.0,11.0,0.0,-971.0,-129.0
5.0,-251.0,-49.0,2.0,5.0,11.0,-4.0,-973.0,-129.0
3.0,-252.0,-49.0,3.0,7.0,9.0,-11.0,-969.0,-133.0
3.0,-252.0,-52.0,1.0,10.0,12.0,-9.0,-973.0,-130.0
3.0,-252.0,-53.0,1.0,14.0,9.0,-14.0,-977.0,-135.0
3.0,-252.0,-50.0,1.0,18.0,8.0,-9.0,-973.0,-132.0
5.0,-254.0,-51.0,0.0,21.0,8.0,-6.0,-976.0,-137.0
5.0,-254.0,-53.0,-1.0,26.0,7.0,-9.0,-975.0,-128.0
7.0,-255.0,-54.0,0.0,31.0,6.0,-7.0,-976.0,-131.0
5.0,-254.0,-50.0,-2.0,36.0,7.0,-9.0,-972.0,-130.0
4.0,-255.0,-51.0,-3.0,41.0,6.0,-6.0,-974.0,-129.0
3.0,-254.0,-53.0,-3.0,45.0,5.0,-1.0,-974.0,-129.0
4.0,-252.0,-51.0,-2.0,49.0,4.0,-3.0,-976.0,-128.0
6.0,-254.0,-55.0,-3.0,50.0,5.0,-1.0,-976.0,-130.0
7.0,-254.0,-51.0,-4.0,55.0,4.0,0.0,-975.0,-131.0
10.0,-253.0,-55.0,-6.0,56.0,3.0,-2.0,-976.0,-127.0
8.0,-253.0,-52.0,-7.0,59.0,2.0,-3.0,-975.0,-126.0
8.0,-254.0,-52.0,-9.0,61.0,1.0,2.0,-982.0,-135.0
8.0,-255.0,-54.0,-11.0,64.0,1.0,-2.0,-980.0,-133.0
5.0,-253.0,-51.0,-14.0,67.0,-1.0,-4.0,-974.0,-135.0
8.0,-256.0,-48.0,-15.0,71.0,-1.0,-4.0,-979.0,-132.0
8.0,-254.0,-51.0,-17.0,75.0,-2.0,-6.0,-977.0,-135.0
8.0,-252.0,-53.0,-18.0,78.0,-1.0,-7.0,-972.0,-134.0
5.0,-253.0,-53.0,-19.0,81.0,-2.0,-4.0,-972.0,-133.0
6.0,-249.0,-51.0,-19.0,84.0,-1.0,-6.0,-966.0,-141.0
5.0,-251.0,-53.0,-22.0,87.0,-2.0,-2.0,-970.0,-140.0
7.0,-251.0,-51.0,-22.0,89.0,2.0,-4.0,-965.0,-140.0
8.0,-250.0,-54.0,-24.0,92.0,0.0,-4.0,-964.0,-140.0
8.0,-251.0,-54.0,-27.0,94.0,5.0,-7.0,-965.0,-139.0
5.0,-250.0,-54.0,-29.0,94.0,4.0,-12.0,-962.0,-135.0
6.0,-249.0,-50.0,-31.0,95.0,8.0,-8.0,-955.0,-139.0
7.0,-249.0,-53.0,-34.0,95.0,7.0,-11.0,-966.0,-134.0
5.0,-250.0,-55.0,-33.0,95.0,9.0,-13.0,-965.0,-137.0
4.0,-249.0,-54.0,-32.0,92.0,8.0,-14.0,-966.0,-141.0
12.0,-249.0,-51.0,-34.0,92.0,12.0,-12.0,-966.0,-139.0
3.0,-253.0,-54.0,-35.0,90.0,9.0,-8.0,-970.0,-136.0
3.0,-254.0,-53.0,-36.0,88.0,12.0,-11.0,-970.0,-135.0
3.0,-253.0,-54.0,-36.0,87.0,6.0,-16.0,-977.0,-137.0
3.0,-253.0,-53.0,-38.0,89.0,8.0,-16.0,-977.0,-141.0
3.0,-254.0,-50.0,-38.0,86.0,5.0,-18.0,-977.0,-139.0
4.0,-254.0,-51.0,-37.0,84.0,7.0,-14.0,-976.0,-135.0
4.0,-253.0,-54.0,-36.0,84.0,3.0,-15.0,-973.0,-138.0
2.0,-254.0,-54.0,-34.0,83.0,4.0,-18.0,-975.0,-135.0
6.0,-255.0,-51.0,-33.0,82.0,1.0,-20.0,-975.0,-136.0
1.0,-251.0,-53.0,-33.0,83.0,2.0,-17.0,-974.0,-139.0
2.0,-255.0,-53.0,-33.0,82.0,-1.0,-19.0,-971.0,-138.0
2.0,-251.0,-51.0,-33.0,80.0,1.0,-20.0,-969.0,-137.0
1.0,-251.0,-54.0,-33.0,78.0,-1.0,-19.0,-969.0,-135.0
2.0,-252.0,-52.0,-33.0,77.0,0.0,-16.0,-968.0,-138.0
4.0,-254.0,-56.0,-34.0,74.0,-2.0,-19.0,-968.0,-145.0
1.0,-253.0,-54.0,-33.0,71.0,-1.0,-16.0,-972.0,-137.0
3.0,-253.0,-55.0,-35.0,68.0,-2.0,-19.0,-970.0,-145.0
3.0,-249.0,-52.0,-34.0,66.0,-1.0,-16.0,-970.0,-137.0
2.0,-254.0,-55.0,-35.0,65.0,-2.0,-17.0,-973.0,-137.0
1.0,-251.0,-54.0,-35.0,63.0,-1.0,-18.0,-978.0,-140.0
2.0,-254.0,-53.0,-35.0,59.0,-2.0,-18.0,-976.0,-144.0
3.0,-256.0,-51.0,-36.0,57.0,-1.0,-20.0,-973.0,-138.0
4.0,-254.0,-52.0,-34.0,56.0,-4.0,-15.0,-978.0,-139.0
3.0,-254.0,-54.0,-35.0,57.0,-3.0,-13.0,-984.0,-135.0
3.0,-257.0,-52.0,-31.0,55.0,-6.0,-14.0,-974.0,-136.0
3.0,-255.0,-51.0,-28.0,56.0,-3.0,-8.0,-977.0,-138.0
5.0,-257.0,-54.0,-25.0,55.0,-4.0,-10.0,-976.0,-137.0
6.0,-255.0,-53.0,-22.0,56.0,-2.0,-5.0,-976.0,-138.0
4.0,-251.0,-52.0,-21.0,57.0,-4.0,-7.0,-975.0,-141.0
6.0,-253.0,-55.0,-23.0,58.0,-4.0,-3.0,-972.0,-140.0
6.0,-254.0,-54.0,-24.0,58.0,-4.0,-4.0,-975.0,-143.0
5.0,-253.0,-53.0,-24.0,59.0,-5.0,-4.0,-975.0,-138.0
7.0,-251.0,-56.0,-25.0,58.0,-4.0,-9.0,-976.0,-140.0
7.0,-251.0,-55.0,-25.0,57.0,-5.0,-7.0,-972.0,-134.0
8.0,-253.0,-54.0,-24.0,58.0,-7.0,-6.0,-970.0,-138.0
4.0,-253.0,-55.0,-21.0,60.0,-4.0,-14.0,-973.0,-138.0
5.0,-251.0,-52.0,-20.0,59.0,-5.0,-6.0,-969.0,-138.0
7.0,-253.0,-52.0,-21.0,59.0,-4.0,-13.0,-969.0,-138.0
5.0,-252.0,-53.0,-20.0,60.0,-3.0,-10.0,-969.0,-136.0
3.0,-252.0,-55.0,-20.0,59.0,-2.0,-12.0,-968.0,-142.0
4.0,-254.0,-53.0,-20.0,59.0,-2.0,-10.0,-970.0,-137.0
5.0,-251.0,-55.0,-21.0,58.0,-1.0,-14.0,-970.0,-140.0
4.0,-253.0,-50.0,-21.0,59.0,-1.0,-12.0,-975.0,-135.0
3.0,-254.0,-52.0,-20.0,60.0,0.0,-6.0,-969.0,-137.0
-3.0,-253.0,-46.0,-20.0,60.0,0.0,-6.0,-978.0,-141.0
-6.0,-256.0,-52.0,-20.0,61.0,1.0,-3.0,-973.0,-137.0
5.0,-255.0,-52.0,-20.0,62.0,2.0,-6.0,-973.0,-135.0
9.0,-254.0,-52.0,-21.0,61.0,2.0,-4.0,-975.0,-135.0
6.0,-254.0,-51.0,-21.0,61.0,3.0,-3.0,-980.0,-134.0
8.0,-253.0,-50.0,-21.0,62.0,2.0,-5.0,-977.0,-136.0
5.0,-250.0,-52.0,-21.0,63.0,3.0,-2.0,-976.0,-131.0
5.0,-251.0,-50.0,-19.0,64.0,1.0,-4.0,-984.0,-135.0
6.0,-254.0,-54.0,-19.0,65.0,4.0,-5.0,-973.0,-135.0
5.0,-254.0,-50.0,-18.0,64.0,3.0,-6.0,-975.0,-135.0
3.0,-254.0,-52.0,-16.0,65.0,5.0,-9.0,-972.0,-137.0
6.0,-252.0,-52.0,-15.0,67.0,4.0,-13.0,-973.0,-134.0
4.0,-254.0,-55.0,-14.0,70.0,4.0,-7.0,-976.0,-136.0
4.0,-250.0,-53.0,-14.0,70.0,4.0,-6.0,-972.0,-136.0
7.0,-253.0,-54.0,-15.0,71.0,6.0,-10.0,-975.0,-134.0
8.0,-253.0,-52.0,-14.0,72.0,3.0,-9.0,-973.0,-135.0
7.0,-253.0,-52.0,-14.0,73.0,7.0,-7.0,-973.0,-137.0
4.0,-254.0,-53.0,-16.0,75.0,4.0,-2.0,-969.0,-140.0
4.0,-251.0,-51.0,-16.0,76.0,7.0,-4.0,-970.0,-139.0
7.0,-253.0,-51.0,-17.0,76.0,4.0,-4.0,-974.0,-136.0
6.0,-251.0,-52.0,-15.0,77.0,5.0,-1.0,-969.0,-130.0
6.0,-253.0,-55.0,-12.0,80.0,5.0,-3.0,-974.0,-135.0
5.0,-251.0,-53.0,-10.0,82.0,7.0,-1.0,-973.0,-131.0
4.0,-254.0,-53.0,-9.0,81.0,5.0,-9.0,-966.0,-131.0
7.0,-253.0,-52.0,-8.0,81.0,7.0,-9.0,-968.0,-136.0
6.0,-252.0,-52.0,-9.0,82.0,6.0,-11.0,-971.0,-132.0
3.0,-250.0,-53.0,-8.0,81.0,9.0,-13.0,-971.0,-136.0
4.0,-253.0,-52.0,-10.0,82.0,4.0,-8.0,-968.0,-133.0
4.0,-250.0,-53.0,-10.0,82.0,8.0,-6.0,-971.0,-134.0
6.0,-249.0,-52.0,-11.0,82.0,5.0,-10.0,-967.0,-140.0
7.0,-250.0,-53.0,-12.0,82.0,7.0,-3.0,-973.0,-135.0
5.0,-250.0,-52.0,-16.0,82.0,6.0,-11.0,-972.0,-133.0
5.0,-253.0,-50.0,-16.0,82.0,9.0,-6.0,-972.0,-134.0
8.0,-255.0,-55.0,-18.0,83.0,6.0,-4.0,-970.0,-132.0
8.0,-255.0,-51.0,-20.0,82.0,7.0,-9.0,-974.0,-131.0
6.0,-250.0,-51.0,-21.0,84.0,5.0,-6.0,-972.0,-128.0
6.0,-253.0,-50.0,-21.0,84.0,8.0,-4.0,-973.0,-131.0
7.0,-252.0,-49.0,-22.0,81.0,6.0,-3.0,-969.0,-129.0
6.0,-253.0,-52.0,-23.0,82.0,8.0,-7.0,-967.0,-122.0
5.0,-253.0,-50.0,-24.0,83.0,5.0,-1.0,-969.0,-127.0
7.0,-253.0,-53.0,-22.0,82.0,7.0,-2.0,-965.0,-126.0
7.0,-252.0,-50.0,-23.0,82.0,6.0,-5.0,-972.0,-127.0
7.0,-251.0,-48.0,-22.0,82.0,8.0,-8.0,-964.0,-130.0
5.0,-253.0,-52.0,-23.0,83.0,6.0,-14.0,-965.0,-131.0
5.0,-249.0,-48.0,-25.0,84.0,7.0,-10.0,-968.0,-131.0
4.0,-250.0,-53.0,-25.0,83.0,5.0,-7.0,-967.0,-134.0
5.0,-249.0,-52.0,-25.0,84.0,6.0,-5.0,-966.0,-133.0
4.0,-249.0,-53.0,-26.0,84.0,3.0,-5.0,-970.0,-132.0
4.0,-250.0,-55.0,-27.0,85.0,6.0,-9.0,-966.0,-133.0
6.0,-253.0,-50.0,-28.0,87.0,3.0,-2.0,-966.0,-135.0
4.0,-256.0,-54.0,-28.0,85.0,4.0,-4.0,-970.0,-136.0
4.0,-255.0,-51.0,-26.0,87.0,1.0,-9.0,-979.0,-136.0
8.0,-254.0,-51.0,-25.0,88.0,1.0,-9.0,-976.0,-134.0
4.0,-252.0,-51.0,-26.0,89.0,-2.0,-7.0,-974.0,-136.0
7.0,-253.0,-52.0,-24.0,91.0,-1.0,-11.0,-977.0,-137.0
5.0,-252.0,-51.0,-23.0,91.0,-2.0,-14.0,-974.0,-142.0
4.0,-254.0,-54.0,-24.0,93.0,-2.0,-11.0,-978.0,-138.0
5.0,-254.0,-53.0,-22.0,93.0,-3.0,-9.0,-977.0,-139.0
3.0,-256.0,-55.0,-20.0,93.0,-3.0,-9.0,-972.0,-136.0
5.0,-252.0,-53.0,-17.0,96.0,-5.0,-12.0,-973.0,-137.0
6.0,-253.0,-55.0,-17.0,96.0,-2.0,-4.0,-970.0,-141.0
7.0,-251.0,-51.0,-14.0,99.0,-3.0,-9.0,-971.0,-140.0
5.0,-249.0,-56.0,-12.0,100.0,-2.0,-9.0,-970.0,-138.0
2.0,-253.0,-52.0,-10.0,101.0,-4.0,-5.0,-970.0,-138.0
3.0,-250.0,-51.0,-10.0,102.0,-4.0,-10.0,-964.0,-137.0
4.0,-248.0,-50.0,-10.0,102.0,-4.0,-5.0,-967.0,-137.0
4.0,-253.0,-54.0,-8.0,102.0,-5.0,-9.0,-964.0,-134.0
5.0,-252.0,-50.0,-10.0,106.0,-5.0,-6.0,-968.0,-136.0
5.0,-249.0,-52.0,-8.0,108.0,-5.0,-4.0,-962.0,-138.0
7.0,-252.0,-54.0,-9.0,109.0,-6.0,-11.0,-962.0,-138.0
5.0,-251.0,-55.0,-8.0,110.0,-6.0,-6.0,-961.0,-135.0
1.0,-250.0,-50.0,-8.0,109.0,-5.0,-12.0,-967.0,-138.0
5.0,-251.0,-54.0,-5.0,110.0,-4.0,-13.0,-968.0,-139.0
7.0,-252.0,-53.0,-6.0,110.0,-2.0,-14.0,-970.0,-137.0
2.0,-250.0,-54.0,-4.0,111.0,-2.0,-9.0,-967.0,-141.0
3.0,-246.0,-59.0,-5.0,113.0,0.0,-11.0,-974.0,-138.0
6.0,-253.0,-50.0,-4.0,114.0,-1.0,-12.0,-972.0,-143.0
4.0,-254.0,-50.0,-2.0,114.0,1.0,-10.0,-969.0,-136.0
3.0,-254.0,-50.0,-3.0,114.0,0.0,-16.0,-972.0,-135.0
4.0,-254.0,-51.0,-2.0,113.0,3.0,-13.0,-969.0,-135.0
6.0,-254.0,-54.0,-1.0,114.0,2.0,-13.0,-973.0,-134.0
4.0,-252.0,-52.0,-2.0,113.0,3.0,-15.0,-973.0,-130.0
4.0,-254.0,-52.0,-2.0,111.0,3.0,-16.0,-979.0,-132.0
3.0,-254.0,-51.0,-2.0,110.0,4.0,-13.0,-976.0,-130.0
2.0,-256.0,-53.0,-3.0,111.0,2.0,-14.0,-974.0,-136.0
2.0,-255.0,-49.0,-2.0,110.0,4.0,-18.0,-976.0,-135.0
2.0,-253.0,-54.0,-2.0,110.0,2.0,-24.0,-979.0,-132.0
6.0,-255.0,-53.0,-1.0,110.0,4.0,-15.0,-974.0,-135.0
4.0,-255.0,-48.0,-4.0,112.0,0.0,-19.0,-975.0,-134.0
2.0,-252.0,-50.0,-4.0,112.0,3.0,-17.0,-972.0,-134.0
2.0,-253.0,-50.0,-5.0,113.0,1.0,-17.0,-975.0,-136.0
4.0,-254.0,-54.0,-5.0,113.0,2.0,-19.0,-973.0,-135.0
4.0,-255.0,-51.0,-9.0,113.0,-2.0,-15.0,-969.0,-135.0
1.0,-254.0,-47.0,-7.0,113.0,0.0,-18.0,-972.0,-131.0
2.0,-251.0,-53.0,-5.0,112.0,-2.0,-19.0,-981.0,-132.0
1.0,-252.0,-52.0,-6.0,110.0,-1.0,-23.0,-969.0,-133.0
2.0,-254.0,-52.0,-7.0,108.0,-2.0,-23.0,-967.0,-135.0
4.0,-253.0,-47.0,-7.0,108.0,0.0,-23.0,-970.0,-136.0
0.0,-250.0,-50.0,-8.0,105.0,-2.0,-25.0,-968.0,-136.0
1.0,-252.0,-53.0,-8.0,103.0,0.0,-26.0,-967.0,-137.0
1.0,-255.0,-55.0,-9.0,101.0,-2.0,-24.0,-970.0,-131.0
0.0,-251.0,-50.0,-12.0,99.0,0.0,-27.0,-969.0,-135.0
0.0,-252.0,-54.0,-14.0,98.0,-2.0,-24.0,-972.0,-137.0
1.0,-253.0,-50.0,-16.0,96.0,1.0,-28.0,-966.0,-135.0
0.0,-251.0,-52.0,-18.0,94.0,-1.0,-28.0,-967.0,-136.0
0.0,-254.0,-52.0,-22.0,92.0,0.0,-22.0,-974.0,-132.0
0.0,-253.0,-52.0,-22.0,90.0,-1.0,-24.0,-973.0,-134.0
1.0,-253.0,-49.0,-22.0,86.0,2.0,-19.0,-974.0,-133.0
0.0,-253.0,-50.0,-21.0,85.0,-2.0,-26.0,-972.0,-133.0
1.0,-254.0,-53.0,-21.0,83.0,1.0,-24.0,-977.0,-135.0
0.0,-255.0,-55.0,-22.0,80.0,-2.0,-25.0,-973.0,-133.0
2.0,-254.0,-48.0,-20.0,78.0,0.0,-21.0,-975.0,-132.0
2.0,-253.0,-52.0,-21.0,76.0,-4.0,-20.0,-978.0,-129.0
2.0,-253.0,-54.0,-18.0,73.0,-2.0,-18.0,-978.0,-135.0
-1.0,-257.0,-48.0,-17.0,71.0,-5.0,-20.0,-973.0,-125.0
3.0,-258.0,-50.0,-15.0,68.0,-3.0,-26.0,-976.0,-129.0
-3.0,-252.0,-51.0,-15.0,64.0,-6.0,-24.0,-979.0,-130.0
2.0,-255.0,-53.0,-14.0,62.0,-5.0,-33.0,-986.0,-130.0
-2.0,-255.0,-49.0,-11.0,61.0,-4.0,-29.0,-985.0,-128.0
-1.0,-253.0,-50.0,-8.0,57.0,-3.0,-31.0,-983.0,-127.0
0.0,-257.0,-53.0,-6.0,54.0,-3.0,-34.0,-980.0,-125.0
0.0,-255.0,-52.0,-5.0,52.0,0.0,-29.0,-979.0,-127.0
-3.0,-255.0,-51.0,-1.0,48.0,-2.0,-29.0,-973.0,-125.0
-1.0,-253.0,-49.0,1.0,45.0,1.0,-27.0,-974.0,-126.0
3.0,-251.0,-51.0,2.0,41.0,-1.0,-23.0,-977.0,-134.0
1.0,-255.0,-55.0,4.0,39.0,0.0,-24.0,-973.0,-130.0
-1.0,-251.0,-53.0,5.0,36.0,0.0,-23.0,-974.0,-129.0
-1.0,-253.0,-47.0,7.0,33.0,0.0,-24.0,-974.0,-133.0
4.0,-255.0,-52.0,8.0,31.0,-1.0,-23.0,-977.0,-130.0
3.0,-253.0,-50.0,10.0,28.0,-1.0,-22.0,-974.0,-129.0
-1.0,-253.0,-49.0,10.0,26.0,0.0,-18.0,-974.0,-133.0
2.0,-253.0,-51.0,11.0,25.0,1.0,-20.0,-977.0,-131.0
2.0,-250.0,-49.0,13.0,22.0,-1.0,-20.0,-972.0,-131.0
3.0,-252.0,-52.0,15.0,21.0,0.0,-19.0,-966.0,-133.0
1.0,-248.0,-49.0,18.0,20.0,0.0,-20.0,-974.0,-133.0
3.0,-251.0,-51.0,18.0,18.0,0.0,-24.0,-970.0,-128.0
1.0,-252.0,-49.0,18.0,18.0,0.0,-20.0,-968.0,-127.0
3.0,-255.0,-50.0,20.0,16.0,-1.0,-23.0,-971.0,-128.0
1.0,-253.0,-51.0,21.0,17.0,2.0,-26.0,-971.0,-127.0
2.0,-253.0,-49.0,22.0,16.0,1.0,-23.0,-968.0,-128.0
2.0,-252.0,-54.0,23.0,16.0,2.0,-19.0,-966.0,-134.0
1.0,-250.0,-53.0,23.0,18.0,3.0,-21.0,-968.0,-127.0
2.0,-252.0,-51.0,22.0,20.0,2.0,-16.0,-974.0,-130.0
3.0,-253.0,-52.0,22.0,20.0,3.0,-17.0,-975.0,-136.0
1.0,-252.0,-53.0,24.0,20.0,2.0,-19.0,-973.0,-129.0
4.0,-251.0,-48.0,23.0,19.0,2.0,-16.0,-974.0,-128.0
5.0,-256.0,-53.0,22.0,19.0,5.0,-21.0,-975.0,-133.0
2.0,-251.0,-48.0,20.0,19.0,2.0,-21.0,-974.0,-126.0
1.0,-252.0,-49.0,18.0,19.0,3.0,-20.0,-976.0,-129.0
2.0,-250.0,-53.0,18.0,18.0,1.0,-21.0,-977.0,-126.0
1.0,-252.0,-51.0,18.0,19.0,2.0,-22.0,-975.0,-125.0
0.0,-252.0,-48.0,18.0,19.0,4.0,-24.0,-975.0,-127.0
2.0,-253.0,-51.0,17.0,20.0,4.0,-21.0,-972.0,-124.0
-2.0,-253.0,-48.0,18.0,20.0,4.0,-18.0,-972.0,-134.0
0.0,-250.0,-49.0,17.0,19.0,5.0,-19.0,-974.0,-129.0
3.0,-253.0,-55.0,17.0,19.0,4.0,-19.0,-978.0,-132.0
2.0,-254.0,-51.0,17.0,19.0,7.0,-26.0,-972.0,-130.0
2.0,-254.0,-49.0,15.0,20.0,4.0,-15.0,-976.0,-133.0
3.0,-257.0,-53.0,16.0,20.0,6.0,-19.0,-975.0,-135.0
4.0,-254.0,-52.0,15.0,19.0,4.0,-19.0,-977.0,-134.0
2.0,-253.0,-52.0,13.0,20.0,7.0,-15.0,-971.0,-132.0
5.0,-254.0,-52.0,13.0,19.0,3.0,-18.0,-969.0,-130.0
4.0,-254.0,-51.0,13.0,19.0,4.0,-18.0,-967.0,-128.0
3.0,-250.0,-48.0,13.0,18.0,3.0,-22.0,-967.0,-132.0
4.0,-252.0,-54.0,12.0,17.0,5.0,-21.0,-974.0,-130.0
3.0,-250.0,-52.0,12.0,16.0,2.0,-16.0,-971.0,-127.0
4.0,-253.0,-52.0,11.0,13.0,3.0,-20.0,-967.0,-129.0
1.0,-252.0,-50.0,12.0,13.0,1.0,-24.0,-970.0,-129.0
1.0,-252.0,-49.0,12.0,11.0,3.0,-21.0,-972.0,-131.0
2.0,-253.0,-51.0,11.0,8.0,1.0,-23.0,-969.0,-132.0
2.0,-250.0,-54.0,10.0,6.0,4.0,-28.0,-970.0,-128.0
0.0,-253.0,-54.0,10.0,6.0,1.0,-23.0,-969.0,-136.0
2.0,-253.0,-49.0,9.0,2.0,3.0,-26.0,-970.0,-127.0
0.0,-252.0,-52.0,9.0,2.0,1.0,-21.0,-973.0,-129.0
2.0,-250.0,-48.0,10.0,-1.0,3.0,-25.0,-976.0,-131.0
3.0,-254.0,-49.0,11.0,-1.0,0.0,-22.0,-974.0,-127.0
2.0,-254.0,-52.0,9.0,-2.0,1.0,-21.0,-971.0,-125.0
0.0,-255.0,-54.0,9.0,-4.0,-3.0,-17.0,-975.0,-131.0
4.0,-256.0,-47.0,8.0,-5.0,1.0,-18.0,-972.0,-129.0
3.0,-256.0,-49.0,8.0,-7.0,-1.0,-18.0,-972.0,-126.0
3.0,-254.0,-49.0,7.0,-7.0,1.0,-20.0,-976.0,-124.0
2.0,-254.0,-50.0,7.0,-9.0,-1.0,-20.0,-974.0,-128.0
3.0,-251.0,-47.0,7.0,-10.0,3.0,-17.0,-973.0,-128.0
3.0,-253.0,-50.0,6.0,-12.0,0.0,-19.0,-976.0,-129.0
0.0,-252.0,-49.0,8.0,-14.0,1.0,-16.0,-975.0,-128.0
2.0,-255.0,-50.0,8.0,-14.0,-1.0,-17.0,-971.0,-130.0
1.0,-255.0,-50.0,9.0,-14.0,1.0,-15.0,-973.0,-126.0
4.0,-254.0,-49.0,11.0,-14.0,0.0,-16.0,-973.0,-125.0
4.0,-254.0,-53.0,10.0,-15.0,2.0,-12.0,-971.0,-126.0
4.0,-253.0,-54.0,10.0,-14.0,0.0,-14.0,-973.0,-125.0
3.0,-253.0,-52.0,11.0,-14.0,0.0,-7.0,-976.0,-126.0
3.0,-251.0,-48.0,11.0,-13.0,-1.0,-11.0,-972.0,-126.0
5.0,-253.0,-51.0,10.0,-14.0,1.0,-6.0,-976.0,-125.0
6.0,-254.0,-47.0,10.0,-13.0,-2.0,-6.0,-973.0,-125.0
7.0,-254.0,-49.0,7.0,-11.0,0.0,-6.0,-976.0,-122.0
5.0,-254.0,-50.0,7.0,-10.0,-1.0,-7.0,-970.0,-123.0
6.0,-252.0,-52.0,9.0,-7.0,0.0,-7.0,-976.0,-130.0
6.0,-253.0,-46.0,8.0,-6.0,-1.0,-4.0,-972.0,-127.0
5.0,-252.0,-48.0,8.0,-4.0,-1.0,-4.0,-977.0,-124.0
3.0,-251.0,-48.0,8.0,-2.0,-4.0,-4.0,-973.0,-131.0
7.0,-252.0,-49.0,7.0,-1.0,-4.0,-4.0,-975.0,-131.0
5.0,-251.0,-47.0,6.0,3.0,-3.0,-4.0,-972.0,-126.0
8.0,-254.0,-51.0,7.0,7.0,-2.0,-4.0,-974.0,-126.0
4.0,-253.0,-52.0,6.0,10.0,-4.0,-7.0,-971.0,-128.0
8.0,-254.0,-51.0,6.0,13.0,-4.0,-2.0,-972.0,-124.0
8.0,-252.0,-47.0,7.0,17.0,-4.0,-4.0,-971.0,-124.0
8.0,-254.0,-53.0,8.0,21.0,-3.0,-1.0,-973.0,-125.0
7.0,-252.0,-49.0,6.0,24.0,-4.0,-4.0,-976.0,-127.0
6.0,-251.0,-49.0,6.0,27.0,-5.0,-3.0,-977.0,-126.0
8.0,-256.0,-50.0,6.0,31.0,-3.0,-1.0,-978.0,-124.0
7.0,-253.0,-54.0,8.0,33.0,-3.0,-4.0,-977.0,-127.0
6.0,-255.0,-52.0,7.0,37.0,-4.0,0.0,-978.0,-124.0
8.0,-254.0,-52.0,7.0,42.0,-3.0,1.0,-973.0,-123.0
7.0,-252.0,-48.0,8.0,44.0,-2.0,-2.0,-976.0,-123.0
7.0,-252.0,-50.0,7.0,46.0,-4.0,-1.0,-977.0,-125.0
7.0,-256.0,-50.0,6.0,50.0,-2.0,-1.0,-970.0,-123.0
7.0,-255.0,-52.0,7.0,54.0,-3.0,-3.0,-973.0,-122.0
6.0,-249.0,-49.0,7.0,56.0,-2.0,-6.0,-977.0,-124.0
5.0,-255.0,-45.0,5.0,58.0,-4.0,-4.0,-974.0,-118.0
4.0,-256.0,-52.0,4.0,61.0,-1.0,-7.0,-972.0,-122.0
5.0,-253.0,-51.0,4.0,62.0,-2.0,-5.0,-969.0,-122.0
4.0,-254.0,-47.0,2.0,65.0,-1.0,-13.0,-976.0,-119.0
3.0,-252.0,-52.0,2.0,68.0,-2.0,-14.0,-974.0,-122.0
2.0,-255.0,-52.0,1.0,69.0,-1.0,-14.0,-974.0,-120.0
4.0,-255.0,-52.0,-1.0,71.0,-4.0,-14.0,-972.0,-121.0
1.0,-253.0,-49.0,-2.0,71.0,-3.0,-18.0,-977.0,-119.0
3.0,-257.0,-46.0,-3.0,75.0,-4.0,-15.0,-974.0,-118.0
4.0,-256.0,-48.0,-5.0,77.0,-4.0,-16.0,-980.0,-117.0
2.0,-257.0,-46.0,-4.0,76.0,-5.0,-15.0,-975.0,-118.0
3.0,-252.0,-50.0,-3.0,79.0,-2.0,-15.0,-980.0,-122.0
6.0,-257.0,-52.0,-2.0,81.0,-4.0,-14.0,-978.0,-119.0
5.0,-255.0,-48.0,1.0,81.0,-3.0,-13.0,-974.0,-119.0
2.0,-251.0,-52.0,-1.0,82.0,-5.0,-15.0,-974.0,-120.0
4.0,-252.0,-50.0,-1.0,81.0,-3.0,-14.0,-973.0,-120.0
3.0,-252.0,-51.0,0.0,80.0,-5.0,-11.0,-975.0,-118.0
4.0,-252.0,-49.0,0.0,81.0,-2.0,-15.0,-974.0,-122.0
3.0,-256.0,-47.0,2.0,79.0,-5.0,-16.0,-972.0,-122.0
5.0,-251.0,-46.0,1.0,79.0,-4.0,-18.0,-973.0,-119.0
4.0,-253.0,-50.0,2.0,80.0,-5.0,-15.0,-974.0,-119.0
2.0,-250.0,-53.0,2.0,80.0,-4.0,-22.0,-970.0,-121.0
5.0,-253.0,-50.0,2.0,78.0,-8.0,-19.0,-971.0,-120.0
3.0,-255.0,-44.0,4.0,79.0,-3.0,-18.0,-974.0,-117.0
1.0,-252.0,-46.0,1.0,78.0,-7.0,-17.0,-973.0,-117.0
2.0,-251.0,-50.0,2.0,79.0,-3.0,-20.0,-974.0,-120.0
3.0,-254.0,-48.0,2.0,78.0,-7.0,-19.0,-973.0,-119.0
2.0,-253.0,-45.0,4.0,79.0,-3.0,-20.0,-978.0,-118.0
2.0,-252.0,-46.0,2.0,77.0,-6.0,-18.0,-976.0,-119.0
-1.0,-254.0,-46.0,3.0,75.0,-3.0,-20.0,-969.0,-117.0
4.0,-255.0,-45.0,3.0,75.0,-5.0,-19.0,-977.0,-123.0
3.0,-253.0,-48.0,4.0,75.0,-2.0,-18.0,-975.0,-115.0
0.0,-255.0,-48.0,4.0,75.0,-5.0,-14.0,-985.0,-116.0
1.0,-253.0,-48.0,3.0,75.0,-2.0,-14.0,-976.0,-118.0
3.0,-253.0,-46.0,3.0,74.0,-3.0,-14.0,-977.0,-122.0
2.0,-251.0,-50.0,2.0,74.0,-1.0,-18.0,-980.0,-117.0
1.0,-253.0,-46.0,1.0,74.0,-2.0,-16.0,-977.0,-121.0
2.0,-252.0,-47.0,1.0,75.0,0.0,-18.0,-975.0,-119.0
3.0,-250.0,-50.0,-1.0,73.0,-1.0,-18.0,-977.0,-120.0
0.0,-252.0,-49.0,0.0,73.0,0.0,-15.0,-975.0,-124.0
0.0,-253.0,-50.0,0.0,72.0,-2.0,-18.0,-981.0,-124.0
2.0,-253.0,-51.0,0.0,70.0,1.0,-17.0,-975.0,-119.0
1.0,-254.0,-48.0,1.0,71.0,-2.0,-18.0,-985.0,-116.0
0.0,-253.0,-46.0,2.0,69.0,-1.0,-19.0,-978.0,-120.0
2.0,-255.0,-44.0,4.0,68.0,-1.0,-19.0,-976.0,-115.0
5.0,-254.0,-51.0,5.0,68.0,1.0,-18.0,-977.0,-123.0
2.0,-254.0,-44.0,5.0,68.0,-2.0,-18.0,-979.0,-118.0
5.0,-253.0,-52.0,7.0,66.0,1.0,-21.0,-976.0,-120.0
4.0,-254.0,-47.0,7.0,67.0,-1.0,-15.0,-970.0,-122.0
3.0,-254.0,-51.0,6.0,66.0,1.0,-20.0,-979.0,-117.0
1.0,-253.0,-48.0,6.0,67.0,-1.0,-19.0,-973.0,-118.0
5.0,-253.0,-44.0,6.0,64.0,0.0,-14.0,-972.0,-116.0
4.0,-255.0,-48.0,6.0,65.0,-1.0,-16.0,-970.0,-121.0
1.0,-251.0,-48.0,4.0,63.0,-1.0,-19.0,-970.0,-116.0
3.0,-252.0,-47.0,5.0,64.0,-2.0,-24.0,-971.0,-117.0
3.0,-253.0,-45.0,5.0,62.0,-2.0,-24.0,-971.0,-120.0
5.0,-251.0,-48.0,4.0,63.0,-2.0,-22.0,-970.0,-118.0
2.0,-252.0,-48.0,5.0,60.0,-2.0,-20.0,-974.0,-119.0
2.0,-253.0,-45.0,5.0,60.0,-2.0,-17.0,-973.0,-119.0
0.0,-253.0,-48.0,5.0,60.0,-2.0,-20.0,-976.0,-118.0
2.0,-255.0,-50.0,6.0,60.0,-2.0,-22.0,-973.0,-117.0
5.0,-253.0,-48.0,6.0,60.0,-2.0,-19.0,-972.0,-122.0
3.0,-254.0,-48.0,7.0,61.0,-3.0,-16.0,-970.0,-115.0
3.0,-254.0,-47.0,6.0,62.0,-3.0,-17.0,-975.0,-118.0
4.0,-253.0,-47.0,6.0,60.0,-2.0,-15.0,-976.0,-111.0
2.0,-253.0,-46.0,5.0,61.0,-2.0,-20.0,-977.0,-120.0
2.0,-254.0,-49.0,5.0,62.0,-3.0,-18.0,-976.0,-116.0
2.0,-255.0,-47.0,6.0,64.0,-2.0,-17.0,-981.0,-115.0
3.0,-255.0,-51.0,5.0,65.0,-3.0,-18.0,-976.0,-117.0
2.0,-254.0,-49.0,7.0,65.0,-3.0,-15.0,-973.0,-118.0
3.0,-252.0,-52.0,6.0,67.0,-1.0,-21.0,-973.0,-116.0
1.0,-252.0,-47.0,6.0,69.0,-4.0,-19.0,-974.0,-114.0
3.0,-252.0,-50.0,8.0,70.0,-3.0,-20.0,-971.0,-118.0
2.0,-254.0,-48.0,5.0,68.0,-4.0,-18.0,-974.0,-121.0
4.0,-254.0,-47.0,5.0,67.0,-3.0,-24.0,-972.0,-117.0
3.0,-253.0,-46.0,6.0,69.0,-4.0,-22.0,-977.0,-121.0
2.0,-251.0,-48.0,3.0,70.0,-3.0,-20.0,-973.0,-119.0
1.0,-251.0,-46.0,3.0,72.0,-5.0,-20.0,-973.0,-117.0
1.0,-252.0,-49.0,2.0,74.0,-4.0,-24.0,-975.0,-120.0
1.0,-252.0,-48.0,0.0,74.0,-4.0,-22.0,-972.0,-121.0
2.0,-255.0,-49.0,0.0,73.0,-4.0,-21.0,-976.0,-119.0
2.0,-254.0,-49.0,0.0,75.0,-5.0,-20.0,-972.0,-119.0
3.0,-256.0,-45.0,-1.0,75.0,-4.0,-24.0,-973.0,-116.0
3.0,-254.0,-48.0,-1.0,75.0,-5.0,-19.0,-973.0,-116.0
2.0,-250.0,-48.0,0.0,75.0,-2.0,-17.0,-975.0,-117.0
1.0,-254.0,-50.0,-2.0,76.0,-3.0,-23.0,-974.0,-122.0
2.0,-251.0,-47.0,-2.0,75.0,0.0,-20.0,-971.0,-116.0
2.0,-251.0,-46.0,-2.0,74.0,-3.0,-23.0,-970.0,-114.0
1.0,-255.0,-50.0,-1.0,74.0,0.0,-22.0,-975.0,-116.0
0.0,-251.0,-48.0,0.0,74.0,-2.0,-20.0,-976.0,-112.0
0.0,-252.0,-50.0,0.0,74.0,1.0,-22.0,-972.0,-120.0
-1.0,-251.0,-47.0,0.0,73.0,-1.0,-26.0,-968.0,-111.0
1.0,-252.0,-48.0,1.0,72.0,1.0,-25.0,-973.0,-114.0
-1.0,-251.0,-50.0,-1.0,72.0,-2.0,-23.0,-969.0,-120.0
2.0,-249.0,-47.0,-2.0,71.0,1.0,-25.0,-975.0,-114.0
2.0,-252.0,-49.0,-4.0,71.0,-2.0,-23.0,-969.0,-114.0
1.0,-252.0,-48.0,-5.0,70.0,1.0,-27.0,-972.0,-112.0
2.0,-253.0,-50.0,-6.0,69.0,-3.0,-24.0,-982.0,-117.0
0.0,-253.0,-50.0,-7.0,68.0,-1.0,-27.0,-975.0,-111.0
0.0,-254.0,-48.0,-7.0,66.0,-4.0,-30.0,-975.0,-116.0
2.0,-255.0,-48.0,-5.0,66.0,-1.0,-22.0,-976.0,-113.0
2.0,-253.0,-47.0,-7.0,66.0,-4.0,-29.0,-973.0,-108.0
-1.0,-250.0,-48.0,-5.0,64.0,-1.0,-25.0,-973.0,-114.0
3.0,-254.0,-46.0,-5.0,64.0,-4.0,-24.0,-979.0,-111.0
2.0,-253.0,-45.0,-5.0,61.0,-3.0,-22.0,-979.0,-111.0
-1.0,-253.0,-47.0,-6.0,61.0,-4.0,-25.0,-974.0,-118.0
-1.0,-251.0,-44.0,-6.0,60.0,-3.0,-25.0,-975.0,-112.0
-2.0,-254.0,-48.0,-7.0,58.0,-4.0,-29.0,-975.0,-114.0
2.0,-256.0,-47.0,-8.0,58.0,-2.0,-24.0,-974.0,-115.0
1.0,-253.0,-48.0,-7.0,56.0,-3.0,-22.0,-971.0,-115.0
4.0,-255.0,-49.0,-8.0,57.0,-2.0,-23.0,-971.0,-115.0
-1.0,-252.0,-49.0,-10.0,57.0,-4.0,-20.0,-974.0,-118.0
2.0,-252.0,-48.0,-9.0,56.0,-3.0,-19.0,-972.0,-118.0
2.0,-254.0,-47.0,-10.0,55.0,-4.0,-21.0,-972.0,-116.0
1.0,-252.0,-49.0,-10.0,55.0,-3.0,-19.0,-973.0,-117.0
4.0,-252.0,-51.0,-11.0,57.0,-4.0,-15.0,-972.0,-119.0
3.0,-254.0,-46.0,-11.0,57.0,-3.0,-23.0,-974.0,-115.0
4.0,-254.0,-48.0,-12.0,58.0,-6.0,-14.0,-974.0,-119.0
1.0,-253.0,-49.0,-12.0,58.0,-3.0,-13.0,-976.0,-118.0
3.0,-256.0,-47.0,-13.0,59.0,-3.0,-17.0,-973.0,-118.0
3.0,-253.0,-48.0,-14.0,59.0,-2.0,-17.0,-974.0,-120.0
2.0,-255.0,-48.0,-13.0,60.0,-2.0,-15.0,-976.0,-115.0
3.0,-253.0,-52.0,-12.0,59.0,-2.0,-16.0,-973.0,-118.0
1.0,-253.0,-49.0,-11.0,58.0,-2.0,-20.0,-977.0,-120.0
1.0,-252.0,-45.0,-9.0,59.0,-2.0,-20.0,-970.0,-115.0
1.0,-254.0,-49.0,-10.0,59.0,-2.0,-13.0,-970.0,-113.0
0.0,-253.0,-47.0,-8.0,58.0,0.0,-18.0,-974.0,-114.0
3.0,-255.0,-48.0,-8.0,57.0,-1.0,-22.0,-976.0,-114.0
2.0,-253.0,-49.0,-8.0,59.0,0.0,-19.0,-972.0,-115.0
1.0,-254.0,-48.0,-8.0,60.0,0.0,-22.0,-978.0,-113.0
1.0,-252.0,-47.0,-8.0,60.0,-1.0,-17.0,-976.0,-108.0
4.0,-254.0,-49.0,-9.0,60.0,0.0,-20.0,-976.0,-110.0
2.0,-249.0,-46.0,-8.0,61.0,-2.0,-19.0,-984.0,-109.0
4.0,-256.0,-44.0,-4.0,62.0,0.0,-20.0,-981.0,-112.0
2.0,-256.0,-44.0,-3.0,64.0,-1.0,-13.0,-978.0,-104.0
6.0,-251.0,-45.0,0.0,66.0,0.0,-17.0,-976.0,-110.0
4.0,-254.0,-46.0,1.0,69.0,0.0,-12.0,-974.0,-113.0
2.0,-253.0,-45.0,0.0,70.0,0.0,-11.0,-974.0,-116.0
3.0,-252.0,-48.0,-3.0,70.0,0.0,-14.0,-974.0,-117.0
5.0,-251.0,-44.0,-5.0,69.0,0.0,-10.0,-974.0,-112.0
6.0,-252.0,-48.0,-6.0,69.0,-1.0,-9.0,-974.0,-110.0
2.0,-251.0,-50.0,-7.0,71.0,1.0,-9.0,-974.0,-116.0
4.0,-251.0,-44.0,-9.0,70.0,-2.0,-13.0,-972.0,-114.0
7.0,-254.0,-47.0,-11.0,71.0,1.0,-13.0,-973.0,-115.0
3.0,-254.0,-47.0,-12.0,71.0,1.0,-10.0,-978.0,-109.0
3.0,-253.0,-44.0,-13.0,74.0,0.0,-10.0,-975.0,-109.0
1.0,-252.0,-44.0,-14.0,72.0,0.0,-15.0,-974.0,-108.0
1.0,-254.0,-45.0,-14.0,73.0,2.0,-15.0,-984.0,-101.0
2.0,-252.0,-49.0,-14.0,73.0,0.0,-19.0,-975.0,-105.0
1.0,-254.0,-47.0,-14.0,73.0,3.0,-16.0,-970.0,-105.0
4.0,-254.0,-44.0,-14.0,75.0,0.0,-16.0,-977.0,-106.0
2.0,-252.0,-45.0,-17.0,74.0,2.0,-15.0,-974.0,-107.0
4.0,-254.0,-45.0,-18.0,74.0,1.0,-16.0,-973.0,-103.0
4.0,-256.0,-44.0,-17.0,75.0,3.0,-21.0,-974.0,-108.0
2.0,-254.0,-43.0,-16.0,77.0,1.0,-17.0,-977.0,-111.0
-1.0,-251.0,-42.0,-18.0,77.0,4.0,-14.0,-973.0,-113.0
1.0,-254.0,-45.0,-19.0,78.0,2.0,-20.0,-972.0,-113.0
5.0,-253.0,-47.0,-20.0,77.0,3.0,-12.0,-970.0,-112.0
2.0,-253.0,-46.0,-20.0,78.0,1.0,-14.0,-971.0,-107.0
6.0,-254.0,-49.0,-23.0,77.0,2.0,-17.0,-975.0,-117.0
2.0,-253.0,-49.0,-23.0,79.0,0.0,-11.0,-974.0,-115.0
3.0,-253.0,-46.0,-24.0,79.0,2.0,-15.0,-976.0,-112.0
3.0,-252.0,-46.0,-24.0,77.0,1.0,-12.0,-971.0,-106.0
2.0,-254.0,-47.0,-25.0,77.0,3.0,-15.0,-974.0,-114.0
4.0,-253.0,-44.0,-24.0,76.0,0.0,-15.0,-973.0,-116.0
3.0,-254.0,-45.0,-23.0,74.0,3.0,-15.0,-975.0,-115.0
4.0,-254.0,-45.0,-23.0,74.0,1.0,-17.0,-976.0,-114.0
3.0,-254.0,-49.0,-23.0,74.0,3.0,-13.0,-976.0,-110.0
3.0,-255.0,-48.0,-23.0,73.0,0.0,-14.0,-973.0,-115.0
3.0,-254.0,-48.0,-23.0,73.0,4.0,-16.0,-976.0,-117.0
4.0,-253.0,-47.0,-22.0,71.0,1.0,-12.0,-978.0,-115.0
4.0,-254.0,-47.0,-23.0,70.0,3.0,-15.0,-977.0,-115.0
5.0,-253.0,-48.0,-22.0,68.0,2.0,-16.0,-972.0,-115.0
5.0,-252.0,-49.0,-21.0,68.0,5.0,-14.0,-972.0,-110.0
2.0,-252.0,-43.0,-19.0,67.0,3.0,-17.0,-971.0,-114.0
5.0,-254.0,-47.0,-21.0,65.0,6.0,-18.0,-981.0,-110.0
4.0,-254.0,-45.0,-21.0,63.0,2.0,-13.0,-974.0,-111.0
6.0,-253.0,-48.0,-20.0,62.0,5.0,-14.0,-976.0,-108.0
3.0,-254.0,-52.0,-20.0,59.0,3.0,-10.0,-974.0,-112.0
2.0,-256.0,-43.0,-19.0,59.0,5.0,-10.0,-980.0,-108.0
5.0,-253.0,-44.0,-18.0,56.0,2.0,-13.0,-978.0,-103.0
3.0,-251.0,-43.0,-16.0,54.0,4.0,-3.0,-974.0,-109.0
1.0,-254.0,-44.0,-14.0,54.0,2.0,-14.0,-974.0,-108.0
5.0,-254.0,-50.0,-12.0,51.0,4.0,-9.0,-978.0,-108.0
5.0,-253.0,-44.0,-10.0,50.0,2.0,-10.0,-975.0,-112.0
5.0,-251.0,-48.0,-10.0,53.0,4.0,-12.0,-976.0,-114.0
3.0,-254.0,-46.0,-8.0,52.0,1.0,-10.0,-975.0,-110.0
8.0,-254.0,-45.0,-7.0,53.0,3.0,-10.0,-980.0,-111.0
5.0,-254.0,-45.0,-7.0,53.0,2.0,-10.0,-975.0,-105.0
8.0,-252.0,-43.0,-5.0,52.0,4.0,-8.0,-973.0,-111.0
8.0,-251.0,-46.0,-6.0,54.0,1.0,-7.0,-975.0,-103.0
8.0,-254.0,-42.0,-7.0,53.0,1.0,-3.0,-981.0,-100.0
3.0,-252.0,-47.0,-7.0,54.0,1.0,-13.0,-974.0,-105.0
6.0,-254.0,-44.0,-8.0,55.0,1.0,-5.0,-974.0,-106.0
4.0,-251.0,-46.0,-10.0,55.0,1.0,1.0,-974.0,-102.0
8.0,-249.0,-42.0,-9.0,54.0,3.0,-3.0,-971.0,-102.0
7.0,-253.0,-43.0,-10.0,53.0,1.0,-1.0,-974.0,-99.0
7.0,-253.0,-46.0,-12.0,52.0,2.0,-3.0,-971.0,-102.0
6.0,-252.0,-45.0,-13.0,52.0,1.0,-4.0,-973.0,-103.0
8.0,-252.0,-47.0,-12.0,52.0,3.0,-1.0,-970.0,-102.0
5.0,-253.0,-42.0,-14.0,52.0,2.0,-3.0,-972.0,-98.0
7.0,-254.0,-43.0,-14.0,54.0,3.0,1.0,-971.0,-100.0
8.0,-253.0,-47.0,-15.0,54.0,4.0,1.0,-974.0,-103.0
8.0,-251.0,-45.0,-16.0,54.0,4.0,-2.0,-974.0,-106.0
7.0,-255.0,-44.0,-17.0,54.0,5.0,-4.0,-975.0,-99.0
8.0,-256.0,-42.0,-18.0,55.0,5.0,-4.0,-974.0,-104.0
9.0,-254.0,-48.0,-20.0,56.0,4.0,0.0,-980.0,-104.0
7.0,-255.0,-47.0,-23.0,56.0,4.0,0.0,-986.0,-105.0
5.0,-255.0,-45.0,-23.0,56.0,3.0,0.0,-982.0,-108.0
8.0,-258.0,-45.0,-22.0,56.0,3.0,0.0,-990.0,-112.0
5.0,-254.0,-45.0,-25.0,57.0,1.0,-2.0,-981.0,-110.0
5.0,-256.0,-49.0,-26.0,58.0,0.0,-5.0,-977.0,-103.0
6.0,-254.0,-46.0,-25.0,58.0,-1.0,-3.0,-992.0,-109.0
5.0,-257.0,-50.0,-25.0,55.0,-3.0,-3.0,-982.0,-120.0
8.0,-256.0,-49.0,-26.0,55.0,-5.0,-4.0,-990.0,-109.0
5.0,-255.0,-42.0,-30.0,55.0,-6.0,-6.0,-982.0,-115.0
4.0,-255.0,-44.0,-29.0,53.0,-7.0,-8.0,-975.0,-105.0
5.0,-254.0,-48.0,-31.0,51.0,-8.0,-12.0,-979.0,-107.0
4.0,-253.0,-46.0,-31.0,47.0,-9.0,-14.0,-972.0,-110.0
2.0,-253.0,-46.0,-32.0,47.0,-12.0,-15.0,-976.0,-108.0
3.0,-253.0,-45.0,-31.0,43.0,-11.0,-15.0,-973.0,-106.0
3.0,-254.0,-45.0,-32.0,38.0,-14.0,-15.0,-975.0,-107.0
3.0,-254.0,-45.0,-34.0,37.0,-12.0,-20.0,-975.0,-101.0
0.0,-254.0,-47.0,-33.0,32.0,-14.0,-24.0,-974.0,-106.0
3.0,-254.0,-47.0,-32.0,27.0,-12.0,-23.0,-977.0,-104.0
-1.0,-254.0,-45.0,-31.0,19.0,-15.0,-25.0,-973.0,-106.0
-2.0,-253.0,-43.0,-34.0,15.0,-13.0,-25.0,-973.0,-101.0
1.0,-254.0,-38.0,-36.0,9.0,-15.0,-24.0,-976.0,-101.0
2.0,-252.0,-46.0,-37.0,1.0,-13.0,-31.0,-972.0,-103.0
2.0,-252.0,-47.0,-39.0,-4.0,-16.0,-26.0,-972.0,-106.0
1.0,-253.0,-45.0,-41.0,-9.0,-13.0,-31.0,-974.0,-99.0
-3.0,-251.0,-39.0,-45.0,-14.0,-18.0,-27.0,-971.0,-107.0
0.0,-255.0,-48.0,-47.0,-20.0,-15.0,-33.0,-975.0,-98.0
1.0,-256.0,-46.0,-49.0,-23.0,-21.0,-30.0,-973.0,-102.0
1.0,-254.0,-48.0,-49.0,-30.0,-19.0,-27.0,-979.0,-103.0
1.0,-256.0,-45.0,-49.0,-31.0,-24.0,-25.0,-981.0,-99.0
4.0,-256.0,-46.0,-49.0,-36.0,-23.0,-25.0,-976.0,-101.0
-2.0,-254.0,-46.0,-48.0,-38.0,-26.0,-25.0,-978.0,-101.0
2.0,-253.0,-44.0,-47.0,-41.0,-25.0,-26.0,-981.0,-108.0
0.0,-253.0,-46.0,-46.0,-45.0,-29.0,-24.0,-973.0,-105.0
0.0,-251.0,-45.0,-47.0,-50.0,-29.0,-28.0,-969.0,-106.0
-1.0,-255.0,-45.0,-46.0,-51.0,-31.0,-24.0,-967.0,-115.0
-1.0,-252.0,-48.0,-49.0,-54.0,-30.0,-26.0,-969.0,-117.0
0.0,-255.0,-46.0,-51.0,-53.0,-32.0,-32.0,-971.0,-110.0
-3.0,-251.0,-45.0,-50.0,-57.0,-31.0,-29.0,-965.0,-116.0
-2.0,-250.0,-49.0,-51.0,-56.0,-34.0,-29.0,-970.0,-116.0
-3.0,-252.0,-47.0,-52.0,-57.0,-33.0,-31.0,-961.0,-116.0
-3.0,-252.0,-46.0,-53.0,-55.0,-36.0,-26.0,-966.0,-118.0
-1.0,-252.0,-46.0,-55.0,-55.0,-36.0,-25.0,-969.0,-116.0
-2.0,-250.0,-45.0,-56.0,-53.0,-38.0,-29.0,-969.0,-121.0
2.0,-251.0,-49.0,-56.0,-52.0,-38.0,-30.0,-971.0,-120.0
-3.0,-249.0,-46.0,-57.0,-52.0,-40.0,-26.0,-972.0,-116.0
1.0,-251.0,-45.0,-59.0,-51.0,-40.0,-29.0,-972.0,-117.0
-1.0,-252.0,-50.0,-60.0,-52.0,-42.0,-29.0,-974.0,-124.0
-2.0,-252.0,-50.0,-60.0,-51.0,-40.0,-32.0,-970.0,-118.0
-3.0,-253.0,-46.0,-61.0,-51.0,-42.0,-26.0,-970.0,-118.0
1.0,-253.0,-48.0,-62.0,-51.0,-41.0,-29.0,-972.0,-118.0
-3.0,-251.0,-45.0,-63.0,-49.0,-42.0,-30.0,-973.0,-117.0
0.0,-254.0,-51.0,-66.0,-49.0,-40.0,-31.0,-976.0,-118.0
-2.0,-253.0,-49.0,-65.0,-47.0,-42.0,-32.0,-976.0,-119.0
2.0,-256.0,-46.0,-64.0,-44.0,-40.0,-32.0,-974.0,-121.0
1.0,-255.0,-50.0,-60.0,-39.0,-39.0,-27.0,-973.0,-119.0
2.0,-251.0,-49.0,-57.0,-36.0,-38.0,-23.0,-967.0,-122.0
-1.0,-251.0,-49.0,-55.0,-32.0,-39.0,-26.0,-970.0,-127.0
-1.0,-250.0,-47.0,-54.0,-26.0,-38.0,-25.0,-970.0,-127.0
5.0,-252.0,-50.0,-53.0,-24.0,-39.0,-23.0,-963.0,-121.0
3.0,-251.0,-51.0,-54.0,-19.0,-36.0,-23.0,-963.0,-128.0
0.0,-252.0,-48.0,-55.0,-15.0,-37.0,-24.0,-963.0,-119.0
-2.0,-249.0,-50.0,-55.0,-11.0,-36.0,-18.0,-961.0,-121.0
1.0,-250.0,-49.0,-55.0,-7.0,-37.0,-24.0,-963.0,-122.0
0.0,-251.0,-48.0,-54.0,-5.0,-38.0,-24.0,-963.0,-121.0
1.0,-251.0,-47.0,-55.0,-1.0,-37.0,-24.0,-969.0,-119.0
-1.0,-247.0,-38.0,-55.0,2.0,-36.0,-23.0,-972.0,-116.0
5.0,-254.0,-52.0,-53.0,6.0,-34.0,-24.0,-973.0,-113.0
-1.0,-246.0,-44.0,-53.0,11.0,-34.0,-25.0,-971.0,-110.0
7.0,-253.0,-50.0,-52.0,14.0,-31.0,-22.0,-975.0,-113.0
4.0,-252.0,-48.0,-52.0,19.0,-30.0,-23.0,-975.0,-117.0
5.0,-253.0,-49.0,-53.0,24.0,-27.0,-16.0,-984.0,-119.0
4.0,-257.0,-47.0,-54.0,26.0,-27.0,-16.0,-977.0,-119.0
2.0,-251.0,-51.0,-55.0,30.0,-26.0,-15.0,-974.0,-120.0
1.0,-253.0,-49.0,-56.0,36.0,-26.0,-10.0,-976.0,-124.0
4.0,-255.0,-53.0,-56.0,41.0,-22.0,-11.0,-979.0,-127.0
5.0,-255.0,-48.0,-55.0,46.0,-23.0,-4.0,-977.0,-126.0
3.0,-251.0,-52.0,-53.0,51.0,-22.0,-5.0,-979.0,-121.0
8.0,-255.0,-50.0,-53.0,56.0,-21.0,-11.0,-976.0,-125.0
4.0,-253.0,-50.0,-52.0,61.0,-20.0,-11.0,-976.0,-126.0
3.0,-258.0,-51.0,-52.0,63.0,-18.0,-8.0,-975.0,-127.0
6.0,-256.0,-50.0,-50.0,66.0,-17.0,-3.0,-976.0,-126.0
6.0,-258.0,-52.0,-47.0,68.0,-18.0,-9.0,-975.0,-127.0
6.0,-254.0,-47.0,-43.0,73.0,-16.0,-10.0,-978.0,-130.0
5.0,-255.0,-52.0,-40.0,78.0,-15.0,-4.0,-978.0,-124.0
4.0,-254.0,-51.0,-37.0,81.0,-12.0,-6.0,-982.0,-129.0
3.0,-253.0,-51.0,-33.0,86.0,-13.0,0.0,-983.0,-123.0
7.0,-256.0,-53.0,-29.0,89.0,-9.0,-6.0,-982.0,-126.0
6.0,-253.0,-52.0,-24.0,92.0,-10.0,-1.0,-984.0,-125.0
12.0,-258.0,-48.0,-19.0,97.0,-6.0,-1.0,-980.0,-128.0
6.0,-254.0,-45.0,-18.0,101.0,-6.0,0.0,-979.0,-122.0
9.0,-254.0,-54.0,-13.0,103.0,-4.0,-1.0,-980.0,-121.0
10.0,-255.0,-46.0,-10.0,106.0,-3.0,1.0,-993.0,-127.0
7.0,-255.0,-53.0,-5.0,110.0,-1.0,0.0,-978.0,-125.0
7.0,-254.0,-51.0,-3.0,113.0,-1.0,5.0,-980.0,-126.0
9.0,-254.0,-51.0,1.0,115.0,4.0,10.0,-986.0,-128.0
10.0,-257.0,-47.0,4.0,120.0,4.0,10.0,-986.0,-128.0
9.0,-254.0,-51.0,8.0,122.0,8.0,7.0,-976.0,-127.0
9.0,-253.0,-48.0,12.0,125.0,7.0,8.0,-982.0,-124.0
9.0,-253.0,-53.0,17.0,130.0,12.0,6.0,-983.0,-127.0
10.0,-254.0,-49.0,21.0,134.0,11.0,6.0,-982.0,-126.0
10.0,-254.0,-48.0,23.0,138.0,14.0,8.0,-979.0,-125.0
9.0,-255.0,-52.0,26.0,142.0,13.0,9.0,-983.0,-129.0
8.0,-255.0,-50.0,28.0,146.0,15.0,6.0,-979.0,-125.0
9.0,-256.0,-50.0,31.0,149.0,13.0,6.0,-979.0,-122.0
9.0,-251.0,-49.0,32.0,153.0,15.0,13.0,-981.0,-132.0
9.0,-256.0,-50.0,34.0,155.0,12.0,6.0,-990.0,-128.0
12.0,-252.0,-53.0,36.0,160.0,16.0,8.0,-984.0,-135.0
8.0,-256.0,-50.0,37.0,165.0,13.0,7.0,-987.0,-134.0
12.0,-258.0,-51.0,38.0,167.0,15.0,6.0,-999.0,-135.0
10.0,-257.0,-54.0,40.0,172.0,12.0,11.0,-985.0,-135.0
12.0,-258.0,-54.0,41.0,175.0,14.0,8.0,-987.0,-137.0
10.0,-256.0,-51.0,43.0,178.0,12.0,10.0,-977.0,-134.0
9.0,-254.0,-53.0,42.0,180.0,14.0,3.0,-974.0,-134.0
9.0,-253.0,-52.0,42.0,181.0,11.0,6.0,-980.0,-136.0
14.0,-256.0,-48.0,43.0,182.0,14.0,7.0,-976.0,-137.0
12.0,-252.0,-53.0,46.0,183.0,13.0,10.0,-970.0,-138.0
9.0,-254.0,-55.0,45.0,185.0,15.0,13.0,-970.0,-141.0
11.0,-250.0,-53.0,47.0,186.0,15.0,13.0,-968.0,-140.0
10.0,-253.0,-53.0,45.0,187.0,15.0,15.0,-969.0,-141.0
10.0,-252.0,-55.0,42.0,188.0,12.0,6.0,-971.0,-147.0
9.0,-253.0,-56.0,39.0,189.0,15.0,10.0,-963.0,-152.0
6.0,-250.0,-55.0,36.0,190.0,12.0,10.0,-972.0,-156.0
11.0,-252.0,-56.0,32.0,192.0,14.0,12.0,-970.0,-153.0
13.0,-251.0,-55.0,28.0,194.0,11.0,11.0,-971.0,-156.0
13.0,-254.0,-58.0,25.0,193.0,11.0,8.0,-977.0,-159.0
10.0,-250.0,-58.0,21.0,193.0,8.0,12.0,-974.0,-159.0
11.0,-252.0,-58.0,19.0,193.0,9.0,13.0,-973.0,-157.0
9.0,-254.0,-57.0,17.0,192.0,7.0,17.0,-976.0,-156.0
9.0,-250.0,-57.0,17.0,194.0,9.0,17.0,-974.0,-147.0
13.0,-255.0,-53.0,19.0,195.0,8.0,19.0,-976.0,-152.0
12.0,-253.0,-56.0,23.0,199.0,8.0,21.0,-981.0,-155.0
12.0,-254.0,-56.0,27.0,203.0,8.0,24.0,-987.0,-151.0
14.0,-257.0,-56.0,32.0,208.0,9.0,22.0,-984.0,-155.0
17.0,-254.0,-60.0,33.0,213.0,6.0,27.0,-985.0,-153.0
16.0,-253.0,-59.0,34.0,215.0,6.0,28.0,-977.0,-161.0
15.0,-252.0,-60.0,33.0,217.0,5.0,36.0,-977.0,-160.0
17.0,-253.0,-61.0,32.0,221.0,5.0,38.0,-979.0,-165.0
19.0,-253.0,-60.0,30.0,223.0,4.0,42.0,-974.0,-169.0
16.0,-251.0,-61.0,28.0,226.0,4.0,41.0,-975.0,-169.0
20.0,-253.0,-63.0,27.0,227.0,3.0,37.0,-974.0,-168.0
20.0,-253.0,-58.0,26.0,227.0,3.0,44.0,-973.0,-168.0
19.0,-252.0,-60.0,25.0,227.0,3.0,46.0,-973.0,-166.0
20.0,-250.0,-58.0,25.0,227.0,3.0,38.0,-976.0,-168.0
16.0,-249.0,-61.0,25.0,228.0,3.0,43.0,-968.0,-165.0
18.0,-253.0,-61.0,23.0,227.0,3.0,43.0,-967.0,-169.0
16.0,-250.0,-58.0,21.0,227.0,4.0,35.0,-969.0,-171.0
18.0,-250.0,-62.0,18.0,226.0,4.0,38.0,-965.0,-173.0
18.0,-250.0,-63.0,11.0,225.0,6.0,36.0,-958.0,-183.0
18.0,-247.0,-63.0,5.0,224.0,7.0,38.0,-964.0,-181.0
18.0,-249.0,-65.0,0.0,223.0,8.0,32.0,-959.0,-184.0
18.0,-252.0,-65.0,-7.0,221.0,10.0,31.0,-967.0,-186.0
16.0,-248.0,-64.0,-11.0,221.0,11.0,35.0,-961.0,-185.0
15.0,-249.0,-63.0,-14.0,219.0,12.0,31.0,-967.0,-188.0
15.0,-248.0,-64.0,-17.0,219.0,17.0,32.0,-958.0,-189.0
16.0,-250.0,-66.0,-21.0,216.0,17.0,34.0,-955.0,-188.0
13.0,-247.0,-64.0,-26.0,213.0,19.0,29.0,-952.0,-181.0
17.0,-245.0,-63.0,-29.0,209.0,17.0,32.0,-953.0,-178.0
14.0,-245.0,-60.0,-32.0,206.0,20.0,35.0,-947.0,-173.0
13.0,-244.0,-63.0,-37.0,203.0,19.0,28.0,-948.0,-184.0
17.0,-242.0,-64.0,-42.0,201.0,21.0,35.0,-944.0,-188.0
18.0,-243.0,-68.0,-47.0,201.0,19.0,35.0,-940.0,-189.0
15.0,-242.0,-68.0,-55.0,204.0,20.0,39.0,-942.0,-198.0
17.0,-245.0,-64.0,-61.0,207.0,16.0,41.0,-938.0,-200.0
18.0,-245.0,-67.0,-68.0,211.0,17.0,43.0,-944.0,-195.0
22.0,-244.0,-65.0,-76.0,217.0,13.0,44.0,-941.0,-197.0
19.0,-244.0,-68.0,-84.0,220.0,15.0,48.0,-939.0,-197.0
20.0,-242.0,-70.0,-93.0,224.0,11.0,55.0,-936.0,-202.0
22.0,-242.0,-70.0,-99.0,227.0,11.0,57.0,-936.0,-206.0
22.0,-242.0,-68.0,-109.0,234.0,7.0,62.0,-935.0,-210.0
27.0,-239.0,-71.0,-118.0,238.0,4.0,63.0,-927.0,-211.0
27.0,-239.0,-70.0,-128.0,244.0,-3.0,75.0,-926.0,-216.0
30.0,-240.0,-73.0,-141.0,250.0,-6.0,76.0,-922.0,-220.0
29.0,-238.0,-73.0,-155.0,258.0,-14.0,80.0,-920.0,-226.0
30.0,-237.0,-76.0,-170.0,266.0,-17.0,81.0,-925.0,-225.0
30.0,-239.0,-79.0,-185.0,278.0,-24.0,81.0,-921.0,-237.0
30.0,-238.0,-75.0,-199.0,289.0,-27.0,87.0,-923.0,-230.0
30.0,-239.0,-76.0,-212.0,299.0,-35.0,80.0,-923.0,-238.0
28.0,-241.0,-75.0,-222.0,310.0,-39.0,81.0,-927.0,-231.0
29.0,-241.0,-75.0,-232.0,320.0,-48.0,79.0,-935.0,-234.0
32.0,-242.0,-72.0,-233.0,332.0,-49.0,81.0,-926.0,-234.0
31.0,-242.0,-77.0,-233.0,346.0,-55.0,80.0,-927.0,-241.0
27.0,-243.0,-76.0,-232.0,364.0,-56.0,77.0,-926.0,-243.0
28.0,-241.0,-80.0,-233.0,378.0,-62.0,82.0,-925.0,-248.0
29.0,-237.0,-81.0,-237.0,395.0,-64.0,76.0,-931.0,-252.0
27.0,-241.0,-83.0,-238.0,413.0,-70.0,89.0,-927.0,-254.0
28.0,-242.0,-83.0,-240.0,430.0,-70.0,79.0,-928.0,-256.0
30.0,-242.0,-81.0,-241.0,449.0,-74.0,75.0,-937.0,-258.0
28.0,-242.0,-86.0,-241.0,467.0,-74.0,80.0,-938.0,-260.0
28.0,-247.0,-83.0,-241.0,488.0,-79.0,81.0,-946.0,-268.0
30.0,-244.0,-84.0,-241.0,508.0,-78.0,92.0,-954.0,-269.0
30.0,-247.0,-86.0,-237.0,525.0,-82.0,91.0,-951.0,-270.0
34.0,-249.0,-88.0,-236.0,544.0,-79.0,85.0,-952.0,-271.0
29.0,-248.0,-84.0,-232.0,560.0,-82.0,88.0,-952.0,-274.0
30.0,-243.0,-87.0,-227.0,575.0,-81.0,86.0,-946.0,-269.0
30.0,-244.0,-86.0,-221.0,592.0,-82.0,80.0,-937.0,-273.0
31.0,-241.0,-86.0,-214.0,607.0,-80.0,83.0,-934.0,-277.0
32.0,-241.0,-88.0,-208.0,626.0,-84.0,80.0,-929.0,-280.0
32.0,-239.0,-91.0,-203.0,645.0,-84.0,91.0,-923.0,-281.0
31.0,-236.0,-91.0,-197.0,671.0,-85.0,87.0,-917.0,-281.0
30.0,-236.0,-89.0,-193.0,694.0,-83.0,89.0,-912.0,-282.0
30.0,-233.0,-88.0,-193.0,716.0,-86.0,84.0,-909.0,-287.0
29.0,-230.0,-89.0,-197.0,736.0,-84.0,80.0,-903.0,-280.0
27.0,-228.0,-88.0,-205.0,753.0,-84.0,65.0,-890.0,-290.0
22.0,-228.0,-94.0,-218.0,764.0,-82.0,57.0,-881.0,-294.0
20.0,-225.0,-93.0,-236.0,775.0,-79.0,54.0,-878.0,-297.0
22.0,-227.0,-92.0,-255.0,785.0,-77.0,52.0,-880.0,-312.0
22.0,-225.0,-97.0,-276.0,795.0,-76.0,47.0,-872.0,-321.0
20.0,-223.0,-99.0,-297.0,808.0,-76.0,44.0,-870.0,-324.0
18.0,-224.0,-96.0,-318.0,822.0,-73.0,38.0,-866.0,-324.0
12.0,-219.0,-99.0,-347.0,837.0,-70.0,27.0,-865.0,-324.0
16.0,-222.0,-99.0,-368.0,852.0,-67.0,25.0,-858.0,-324.0
13.0,-215.0,-97.0,-391.0,867.0,-61.0,13.0,-848.0,-321.0
9.0,-218.0,-97.0,-416.0,883.0,-56.0,11.0,-848.0,-326.0
13.0,-211.0,-100.0,-442.0,896.0,-49.0,9.0,-839.0,-330.0
11.0,-210.0,-100.0,-470.0,910.0,-41.0,9.0,-827.0,-332.0
9.0,-204.0,-101.0,-492.0,925.0,-37.0,9.0,-813.0,-341.0
8.0,-200.0,-105.0,-513.0,936.0,-29.0,8.0,-808.0,-352.0
7.0,-201.0,-107.0,-538.0,946.0,-23.0,-5.0,-802.0,-357.0
6.0,-199.0,-110.0,-563.0,957.0,-15.0,-6.0,-788.0,-369.0
3.0,-196.0,-112.0,-597.0,967.0,-6.0,-6.0,-781.0,-388.0
-6.0,-192.0,-121.0,-631.0,977.0,10.0,-26.0,-765.0,-394.0
-4.0,-194.0,-116.0,-675.0,983.0,31.0,-41.0,-763.0,-401.0
-8.0,-196.0,-121.0,-726.0,987.0,57.0,-56.0,-761.0,-414.0
-11.0,-197.0,-123.0,-777.0,990.0,87.0,-66.0,-773.0,-414.0
-10.0,-198.0,-121.0,-823.0,992.0,119.0,-69.0,-775.0,-414.0
-11.0,-196.0,-116.0,-859.0,1001.0,152.0,-68.0,-780.0,-410.0
-9.0,-200.0,-117.0,-892.0,1014.0,189.0,-65.0,-783.0,-401.0
-7.0,-202.0,-115.0,-917.0,1028.0,223.0,-61.0,-790.0,-394.0
-11.0,-203.0,-118.0,-937.0,1051.0,267.0,-71.0,-802.0,-386.0
-14.0,-204.0,-110.0,-953.0,1071.0,304.0,-75.0,-803.0,-382.0
-12.0,-207.0,-116.0,-957.0,1088.0,345.0,-77.0,-804.0,-383.0
-12.0,-208.0,-117.0,-960.0,1101.0,389.0,-72.0,-804.0,-382.0
-13.0,-207.0,-118.0,-962.0,1103.0,437.0,-82.0,-803.0,-395.0
-14.0,-202.0,-118.0,-967.0,1096.0,479.0,-79.0,-793.0,-398.0
-12.0,-201.0,-120.0,-968.0,1084.0,525.0,-78.0,-792.0,-402.0
-17.0,-199.0,-120.0,-969.0,1068.0,567.0,-88.0,-782.0,-410.0
-17.0,-195.0,-120.0,-965.0,1051.0,613.0,-86.0,-775.0,-409.0
-12.0,-195.0,-118.0,-962.0,1034.0,653.0,-77.0,-776.0,-406.0
-9.0,-195.0,-120.0,-962.0,1017.0,702.0,-54.0,-776.0,-408.0
-10.0,-198.0,-122.0,-971.0,1008.0,732.0,-62.0,-783.0,-415.0
-13.0,-200.0,-119.0,-982.0,1004.0,768.0,-82.0,-787.0,-400.0
-14.0,-200.0,-120.0,-981.0,999.0,805.0,-83.0,-788.0,-395.0
-12.0,-200.0,-115.0,-974.0,1001.0,845.0,-74.0,-783.0,-401.0
-5.0,-198.0,-119.0,-961.0,1014.0,877.0,-52.0,-778.0,-408.0
-5.0,-198.0,-121.0,-948.0,1025.0,905.0,-43.0,-780.0,-404.0
1.0,-196.0,-119.0,-933.0,1035.0,919.0,-26.0,-775.0,-410.0
2.0,-195.0,-121.0,-920.0,1047.0,938.0,-19.0,-760.0,-407.0
5.0,-193.0,-117.0,-908.0,1061.0,952.0,-8.0,-751.0,-401.0
8.0,-191.0,-117.0,-900.0,1079.0,974.0,0.0,-734.0,-394.0
10.0,-187.0,-114.0,-893.0,1083.0,986.0,12.0,-716.0,-386.0
10.0,-181.0,-113.0,-889.0,1081.0,998.0,17.0,-706.0,-375.0
12.0,-179.0,-111.0,-889.0,1072.0,1000.0,20.0,-687.0,-372.0
8.0,-174.0,-107.0,-886.0,1058.0,1000.0,23.0,-677.0,-361.0
13.0,-172.0,-107.0,-877.0,1038.0,990.0,20.0,-670.0,-353.0
8.0,-169.0,-108.0,-857.0,1017.0,982.0,16.0,-658.0,-357.0
6.0,-166.0,-111.0,-835.0,997.0,965.0,12.0,-651.0,-368.0
7.0,-166.0,-111.0,-813.0,981.0,955.0,8.0,-651.0,-378.0
6.0,-166.0,-116.0,-789.0,973.0,940.0,1.0,-645.0,-394.0
5.0,-158.0,-119.0,-767.0,970.0,929.0,-7.0,-635.0,-406.0
3.0,-158.0,-120.0,-740.0,970.0,910.0,2.0,-621.0,-406.0
7.0,-154.0,-119.0,-722.0,964.0,889.0,13.0,-613.0,-409.0
3.0,-153.0,-118.0,-712.0,947.0,855.0,1.0,-610.0,-403.0
4.0,-157.0,-117.0,-713.0,921.0,823.0,-1.0,-601.0,-401.0
3.0,-152.0,-118.0,-717.0,888.0,777.0,-4.0,-599.0,-402.0
1.0,-152.0,-116.0,-728.0,850.0,733.0,-7.0,-597.0,-407.0
0.0,-151.0,-121.0,-739.0,809.0,679.0,-15.0,-608.0,-410.0
-3.0,-153.0,-120.0,-753.0,765.0,627.0,-36.0,-595.0,-422.0
-10.0,-151.0,-121.0,-760.0,718.0,571.0,-52.0,-584.0,-423.0
-13.0,-148.0,-119.0,-759.0,669.0,511.0,-66.0,-582.0,-413.0
-16.0,-153.0,-121.0,-746.0,606.0,455.0,-84.0,-581.0,-410.0
-17.0,-148.0,-122.0,-732.0,549.0,403.0,-90.0,-585.0,-422.0
-19.0,-149.0,-125.0,-724.0,489.0,348.0,-99.0,-582.0,-434.0
-20.0,-149.0,-126.0,-717.0,423.0,297.0,-101.0,-582.0,-442.0
-23.0,-147.0,-123.0,-714.0,347.0,239.0,-105.0,-576.0,-438.0
-24.0,-151.0,-123.0,-710.0,263.0,180.0,-106.0,-583.0,-431.0
-25.0,-149.0,-123.0,-704.0,177.0,120.0,-112.0,-581.0,-438.0
-24.0,-147.0,-133.0,-703.0,89.0,62.0,-117.0,-570.0,-449.0
-32.0,-142.0,-134.0,-708.0,2.0,8.0,-124.0,-563.0,-465.0
-33.0,-135.0,-137.0,-728.0,-79.0,-52.0,-133.0,-544.0,-485.0
-36.0,-133.0,-137.0,-766.0,-170.0,-101.0,-142.0,-531.0,-472.0
-35.0,-139.0,-127.0,-787.0,-249.0,-149.0,-155.0,-537.0,-456.0
-39.0,-136.0,-133.0,-790.0,-330.0,-198.0,-156.0,-531.0,-480.0
-39.0,-131.0,-137.0,-797.0,-402.0,-240.0,-164.0,-519.0,-493.0
-42.0,-131.0,-141.0,-818.0,-465.0,-275.0,-174.0,-507.0,-511.0
-41.0,-129.0,-141.0,-840.0,-522.0,-305.0,-175.0,-510.0,-505.0
-39.0,-131.0,-145.0,-846.0,-576.0,-334.0,-182.0,-508.0,-512.0
-38.0,-129.0,-150.0,-845.0,-620.0,-352.0,-171.0,-505.0,-521.0
-30.0,-128.0,-150.0,-840.0,-650.0,-362.0,-144.0,-508.0,-531.0
-19.0,-130.0,-146.0,-827.0,-668.0,-366.0,-110.0,-509.0,-529.0
-14.0,-132.0,-141.0,-804.0,-673.0,-359.0,-93.0,-514.0,-516.0
-8.0,-134.0,-135.0,-770.0,-678.0,-345.0,-60.0,-514.0,-489.0
-6.0,-133.0,-140.0,-717.0,-688.0,-336.0,-44.0,-521.0,-485.0
-2.0,-137.0,-137.0,-663.0,-707.0,-326.0,-17.0,-547.0,-478.0
-1.0,-141.0,-133.0,-607.0,-738.0,-316.0,-18.0,-565.0,-475.0
2.0,-156.0,-136.0,-544.0,-774.0,-299.0,-8.0,-594.0,-477.0
7.0,-159.0,-135.0,-481.0,-807.0,-276.0,2.0,-632.0,-484.0
13.0,-165.0,-134.0,-419.0,-826.0,-250.0,23.0,-649.0,-477.0
20.0,-174.0,-142.0,-359.0,-833.0,-210.0,40.0,-673.0,-492.0
27.0,-178.0,-138.0,-294.0,-829.0,-156.0,71.0,-686.0,-486.0
31.0,-174.0,-136.0,-212.0,-811.0,-106.0,100.0,-704.0,-497.0
43.0,-184.0,-141.0,-151.0,-783.0,-60.0,121.0,-712.0,-498.0
53.0,-181.0,-136.0,-98.0,-734.0,-1.0,151.0,-705.0,-493.0
52.0,-182.0,-132.0,-42.0,-689.0,50.0,174.0,-700.0,-465.0
62.0,-176.0,-131.0,19.0,-634.0,102.0,212.0,-677.0,-458.0
67.0,-173.0,-132.0,80.0,-586.0,141.0,232.0,-675.0,-459.0
67.0,-167.0,-136.0,138.0,-534.0,179.0,234.0,-665.0,-481.0
69.0,-169.0,-138.0,190.0,-470.0,216.0,224.0,-658.0,-490.0
71.0,-167.0,-142.0,242.0,-395.0,260.0,236.0,-657.0,-500.0
69.0,-164.0,-143.0,299.0,-316.0,298.0,241.0,-645.0,-513.0
73.0,-163.0,-147.0,366.0,-211.0,357.0,241.0,-643.0,-517.0
83.0,-153.0,-157.0,408.0,-123.0,407.0,281.0,-612.0,-554.0
95.0,-143.0,-174.0,422.0,-38.0,456.0,330.0,-575.0,-615.0
111.0,-134.0,-182.0,415.0,51.0,498.0,387.0,-552.0,-657.0
119.0,-134.0,-184.0,387.0,142.0,535.0,415.0,-539.0,-668.0
113.0,-138.0,-172.0,356.0,223.0,562.0,406.0,-565.0,-630.0
109.0,-153.0,-150.0,339.0,293.0,596.0,379.0,-588.0,-550.0
89.0,-158.0,-126.0,357.0,349.0,634.0,335.0,-621.0,-460.0
71.0,-163.0,-109.0,408.0,380.0,688.0,256.0,-642.0,-376.0
40.0,-171.0,-89.0,491.0,379.0,745.0,155.0,-664.0,-276.0
13.0,-175.0,-69.0,625.0,323.0,837.0,23.0,-666.0,-215.0
-11.0,-174.0,-63.0,757.0,244.0,913.0,-57.0,-666.0,-186.0
-30.0,-167.0,-59.0,896.0,153.0,989.0,-137.0,-639.0,-183.0
-49.0,-157.0,-64.0,1015.0,70.0,1060.0,-209.0,-622.0,-192.0
-67.0,-139.0,-83.0,1110.0,4.0,1132.0,-267.0,-564.0,-241.0
-75.0,-127.0,-99.0,1158.0,-34.0,1193.0,-311.0,-489.0,-333.0
-89.0,-111.0,-121.0,1143.0,-47.0,1252.0,-378.0,-436.0,-417.0
-99.0,-99.0,-144.0,1073.0,-37.0,1295.0,-422.0,-405.0,-504.0
-106.0,-89.0,-160.0,971.0,-20.0,1330.0,-445.0,-369.0,-565.0
-115.0,-84.0,-170.0,859.0,-11.0,1339.0,-451.0,-344.0,-598.0
-116.0,-84.0,-158.0,729.0,-31.0,1331.0,-463.0,-331.0,-581.0
-113.0,-86.0,-144.0,640.0,-79.0,1303.0,-450.0,-335.0,-525.0
-107.0,-89.0,-128.0,583.0,-153.0,1260.0,-420.0,-356.0,-441.0
-101.0,-93.0,-117.0,554.0,-242.0,1204.0,-396.0,-374.0,-397.0
-94.0,-103.0,-103.0,544.0,-341.0,1158.0,-371.0,-398.0,-344.0
-81.0,-110.0,-98.0,550.0,-438.0,1116.0,-324.0,-422.0,-318.0
-71.0,-119.0,-88.0,568.0,-528.0,1085.0,-278.0,-455.0,-286.0
-53.0,-125.0,-86.0,597.0,-613.0,1052.0,-220.0,-475.0,-271.0
-44.0,-132.0,-83.0,636.0,-692.0,1017.0,-184.0,-495.0,-264.0
-33.0,-140.0,-84.0,681.0,-770.0,974.0,-139.0,-523.0,-265.0
-25.0,-145.0,-85.0,727.0,-861.0,923.0,-114.0,-557.0,-272.0
-19.0,-157.0,-86.0,780.0,-931.0,877.0,-95.0,-594.0,-276.0
-15.0,-163.0,-86.0,830.0,-994.0,840.0,-76.0,-637.0,-276.0
-11.0,-174.0,-81.0,884.0,-1046.0,804.0,-69.0,-672.0,-249.0
-10.0,-187.0,-69.0,944.0,-1084.0,776.0,-59.0,-702.0,-222.0
-5.0,-194.0,-59.0,1015.0,-1112.0,751.0,-46.0,-735.0,-170.0
-1.0,-199.0,-53.0,1095.0,-1130.0,729.0,-25.0,-769.0,-125.0
2.0,-205.0,-40.0,1192.0,-1136.0,701.0,-11.0,-782.0,-90.0
8.0,-204.0,-32.0,1298.0,-1143.0,672.0,13.0,-784.0,-37.0
13.0,-206.0,-20.0,1410.0,-1151.0,631.0,28.0,-783.0,-10.0
19.0,-202.0,-4.0,1520.0,-1167.0,574.0,48.0,-749.0,36.0
15.0,-199.0,-6.0,1635.0,-1190.0,520.0,41.0,-777.0,37.0
17.0,-201.0,7.0,1713.0,-1220.0,467.0,55.0,-780.0,82.0
18.0,-197.0,16.0,1785.0,-1270.0,402.0,56.0,-773.0,130.0
14.0,-197.0,25.0,1848.0,-1335.0,341.0,41.0,-753.0,161.0
17.0,-198.0,33.0,1895.0,-1390.0,282.0,42.0,-758.0,187.0
16.0,-196.0,35.0,1932.0,-1423.0,222.0,39.0,-742.0,211.0
14.0,-196.0,41.0,1967.0,-1444.0,162.0,31.0,-742.0,233.0
16.0,-201.0,44.0,2005.0,-1457.0,97.0,21.0,-774.0,246.0
1.0,-199.0,46.0,2063.0,-1464.0,42.0,-16.0,-758.0,249.0
-9.0,-199.0,44.0,2144.0,-1469.0,-12.0,-48.0,-753.0,254.0
-9.0,-200.0,51.0,2274.0,-1480.0,-46.0,-54.0,-765.0,272.0
-16.0,-211.0,57.0,2409.0,-1499.0,-65.0,-70.0,-789.0,282.0
-40.0,-219.0,50.0,2525.0,-1539.0,-103.0,-135.0,-793.0,280.0
-33.0,-224.0,67.0,2660.0,-1596.0,-65.0,-163.0,-845.0,339.0
-140.0,-307.0,47.0,2813.0,-1665.0,-42.0,-529.0,-1077.0,363.0
-46.0,-292.0,84.0,2877.0,-1771.0,-138.0,-211.0,-1111.0,421.0
-149.0,-353.0,82.0,2987.0,-1913.0,-49.0,-541.0,-1306.0,390.0
-297.0,-409.0,87.0,3052.0,-2021.0,-40.0,-1177.0,-1555.0,387.0
-294.0,-539.0,56.0,2951.0,-2150.0,-167.0,-1140.0,-1939.0,316.0
-380.0,-684.0,49.0,2905.0,-2271.0,-165.0,-1454.0,-2407.0,283.0
-489.0,-832.0,69.0,2927.0,-2330.0,-237.0,-1884.0,-3256.0,407.0
-706.0,-1056.0,138.0,3060.0,-2461.0,-350.0,-2952.0,-4043.0,677.0
-1094.0,-1236.0,254.0,3420.0,-2810.0,-422.0,-4191.0,-4905.0,948.0
-1437.0,-1549.0,224.0,4004.0,-3427.0,-459.0,-5591.0,-5783.0,1023.0
-1619.0,-1603.0,39.0,4692.0,-4071.0,-479.0,-6324.0,-6014.0,279.0
-1474.0,-1519.0,-238.0,5182.0,-4450.0,-347.0,-5921.0,-5727.0,-711.0
-1175.0,-1459.0,-320.0,5586.0,-4443.0,75.0,-4962.0,-5411.0,-1126.0
-944.0,-1408.0,-385.0,6255.0,-4085.0,530.0,-3720.0,-5244.0,-1366.0
-532.0,-1277.0,-351.0,6978.0,-3631.0,755.0,-2290.0,-4914.0,-1351.0
-224.0,-929.0,-172.0,6921.0,-2619.0,819.0,-1123.0,-3754.0,-625.0
-30.0,-695.0,-10.0,6072.0,-1789.0,810.0,-325.0,-2846.0,-1.0
145.0,-579.0,47.0,5178.0,-1266.0,898.0,343.0,-2428.0,240.0
220.0,-437.0,94.0,4329.0,-839.0,1133.0,731.0,-1939.0,450.0
245.0,-266.0,143.0,3543.0,-434.0,1411.0,844.0,-1161.0,617.0
246.0,-83.0,220.0,2754.0,-91.0,1695.0,923.0,-487.0,919.0
231.0,-1.0,290.0,2010.0,119.0,2029.0,885.0,-61.0,1274.0
191.0,30.0,354.0,1425.0,121.0,2340.0,762.0,89.0,1465.0
204.0,5.0,347.0,1062.0,-82.0,2510.0,834.0,27.0,1442.0
201.0,-5.0,284.0,954.0,-369.0,2460.0,806.0,8.0,1226.0
173.0,30.0,200.0,1046.0,-645.0,2143.0,689.0,141.0,923.0
120.0,82.0,121.0,1251.0,-773.0,1770.0,502.0,332.0,599.0
44.0,98.0,32.0,1439.0,-819.0,1362.0,190.0,418.0,265.0
-24.0,40.0,-11.0,1642.0,-769.0,994.0,-44.0,276.0,78.0
-72.0,-28.0,-16.0,1908.0,-612.0,693.0,-308.0,-58.0,16.0
-104.0,-108.0,-8.0,2117.0,-420.0,408.0,-431.0,-376.0,25.0
-124.0,-167.0,14.0,2219.0,-286.0,204.0,-498.0,-614.0,118.0
-83.0,-214.0,58.0,2229.0,-260.0,69.0,-412.0,-836.0,314.0
-26.0,-254.0,95.0,2254.0,-294.0,-11.0,-130.0,-966.0,445.0
0.0,-311.0,125.0,2339.0,-342.0,6.0,-15.0,-1160.0,556.0
9.0,-352.0,129.0,2526.0,-433.0,94.0,23.0,-1301.0,584.0
22.0,-352.0,115.0,2831.0,-565.0,154.0,86.0,-1308.0,524.0
19.0,-324.0,85.0,3127.0,-711.0,205.0,61.0,-1206.0,421.0
5.0,-273.0,60.0,3393.0,-842.0,251.0,14.0,-1053.0,325.0
-5.0,-223.0,36.0,3589.0,-949.0,278.0,-30.0,-865.0,227.0
-12.0,-175.0,15.0,3690.0,-1018.0,299.0,-73.0,-689.0,148.0
-23.0,-132.0,15.0,3707.0,-1045.0,283.0,-107.0,-530.0,157.0
-23.0,-94.0,36.0,3664.0,-1057.0,239.0,-120.0,-402.0,201.0
-20.0,-68.0,63.0,3591.0,-1056.0,166.0,-108.0,-289.0,282.0
-2.0,-66.0,77.0,3505.0,-1049.0,84.0,-27.0,-254.0,387.0
9.0,-61.0,87.0,3432.0,-1025.0,-30.0,34.0,-238.0,416.0
19.0,-61.0,82.0,3370.0,-992.0,-121.0,63.0,-247.0,382.0
36.0,-65.0,64.0,3285.0,-970.0,-202.0,123.0,-263.0,332.0
28.0,-57.0,57.0,3157.0,-950.0,-250.0,96.0,-231.0,299.0
20.0,-52.0,61.0,3025.0,-923.0,-283.0,68.0,-170.0,285.0
15.0,-20.0,64.0,2905.0,-894.0,-305.0,51.0,-112.0,312.0
-8.0,-13.0,72.0,2794.0,-865.0,-320.0,-55.0,-61.0,365.0
-40.0,-7.0,104.0,2688.0,-840.0,-309.0,-174.0,-41.0,471.0
-63.0,-23.0,137.0,2617.0,-829.0,-293.0,-252.0,-74.0,620.0
-87.0,-48.0,195.0,2605.0,-834.0,-260.0,-344.0,-147.0,828.0
-122.0,-74.0,229.0,2680.0,-859.0,-221.0,-474.0,-231.0,963.0
-142.0,-96.0,261.0,2816.0,-896.0,-200.0,-560.0,-315.0,1080.0
-161.0,-116.0,287.0,2965.0,-925.0,-196.0,-618.0,-390.0,1194.0
-173.0,-129.0,296.0,3151.0,-966.0,-178.0,-675.0,-434.0,1254.0
-175.0,-118.0,310.0,3332.0,-995.0,-165.0,-694.0,-401.0,1317.0
-176.0,-96.0,308.0,3503.0,-1044.0,-137.0,-701.0,-314.0,1327.0
-187.0,-59.0,301.0,3644.0,-1091.0,-124.0,-735.0,-183.0,1302.0
-200.0,-19.0,286.0,3716.0,-1129.0,-112.0,-773.0,-63.0,1238.0
-208.0,17.0,282.0,3699.0,-1165.0,-101.0,-806.0,66.0,1224.0
-224.0,48.0,289.0,3628.0,-1201.0,-103.0,-858.0,175.0,1212.0
-254.0,70.0,280.0,3526.0,-1260.0,-96.0,-971.0,257.0,1199.0
-271.0,80.0,282.0,3363.0,-1327.0,-103.0,-1066.0,325.0,1206.0
-272.0,104.0,293.0,3219.0,-1407.0,-125.0,-1049.0,404.0,1245.0
-260.0,117.0,291.0,3081.0,-1500.0,-145.0,-995.0,451.0,1239.0
-244.0,132.0,286.0,2939.0,-1561.0,-175.0,-928.0,491.0,1219.0
-270.0,150.0,278.0,2771.0,-1605.0,-209.0,-1045.0,560.0,1181.0
-237.0,165.0,301.0,2557.0,-1658.0,-240.0,-924.0,644.0,1268.0
-234.0,188.0,293.0,2413.0,-1737.0,-298.0,-894.0,708.0,1241.0
-227.0,204.0,288.0,2277.0,-1823.0,-350.0,-868.0,767.0,1212.0
-211.0,217.0,277.0,2107.0,-1887.0,-419.0,-797.0,829.0,1180.0
-179.0,227.0,275.0,1914.0,-1913.0,-512.0,-705.0,891.0,1162.0
-162.0,258.0,261.0,1646.0,-1916.0,-596.0,-615.0,980.0,1128.0
-136.0,280.0,265.0,1393.0,-1929.0,-665.0,-518.0,1058.0,1145.0
-127.0,279.0,261.0,1159.0,-1938.0,-717.0,-508.0,1018.0,1081.0
-101.0,276.0,259.0,932.0,-1942.0,-759.0,-375.0,1057.0,1099.0
-79.0,264.0,242.0,744.0,-1948.0,-804.0,-315.0,1019.0,1052.0
-65.0,250.0,219.0,582.0,-1950.0,-819.0,-255.0,974.0,990.0
-55.0,244.0,214.0,435.0,-1953.0,-821.0,-194.0,927.0,915.0
-40.0,230.0,196.0,310.0,-1965.0,-796.0,-145.0,881.0,864.0
-22.0,209.0,178.0,217.0,-1975.0,-766.0,-90.0,782.0,782.0
-14.0,194.0,161.0,127.0,-1979.0,-747.0,-49.0,740.0,720.0
1.0,183.0,145.0,34.0,-1982.0,-723.0,14.0,682.0,659.0
7.0,165.0,137.0,-34.0,-1968.0,-692.0,38.0,618.0,631.0
18.0,153.0,127.0,-84.0,-1946.0,-655.0,60.0,578.0,593.0
20.0,141.0,121.0,-124.0,-1918.0,-600.0,79.0,521.0,558.0
30.0,125.0,112.0,-180.0,-1890.0,-560.0,117.0,458.0,522.0
32.0,109.0,111.0,-250.0,-1858.0,-534.0,125.0,397.0,518.0
36.0,93.0,116.0,-323.0,-1827.0,-523.0,128.0,351.0,524.0
47.0,72.0,116.0,-387.0,-1805.0,-493.0,156.0,281.0,524.0
51.0,53.0,122.0,-441.0,-1763.0,-481.0,190.0,200.0,547.0
61.0,36.0,134.0,-475.0,-1716.0,-460.0,212.0,146.0,595.0
63.0,29.0,148.0,-474.0,-1664.0,-440.0,227.0,125.0,647.0
73.0,26.0,157.0,-436.0,-1618.0,-402.0,253.0,100.0,695.0
73.0,18.0,164.0,-382.0,-1546.0,-368.0,259.0,73.0,713.0
71.0,19.0,166.0,-329.0,-1467.0,-327.0,255.0,63.0,745.0
68.0,13.0,174.0,-271.0,-1400.0,-290.0,254.0,57.0,772.0
77.0,13.0,183.0,-208.0,-1330.0,-259.0,285.0,51.0,803.0
84.0,9.0,186.0,-138.0,-1249.0,-222.0,304.0,49.0,809.0
83.0,11.0,188.0,-62.0,-1153.0,-168.0,306.0,41.0,811.0
82.0,14.0,183.0,2.0,-1053.0,-127.0,305.0,59.0,811.0
86.0,20.0,183.0,57.0,-957.0,-75.0,312.0,74.0,804.0
92.0,24.0,183.0,105.0,-850.0,-32.0,330.0,91.0,804.0
100.0,37.0,191.0,147.0,-765.0,2.0,366.0,127.0,816.0
101.0,48.0,189.0,189.0,-692.0,29.0,372.0,172.0,816.0
109.0,55.0,189.0,213.0,-628.0,52.0,394.0,199.0,825.0
115.0,58.0,197.0,224.0,-569.0,52.0,417.0,226.0,846.0
128.0,64.0,197.0,229.0,-520.0,52.0,473.0,245.0,862.0
139.0,72.0,204.0,222.0,-481.0,40.0,541.0,270.0,883.0
157.0,75.0,208.0,208.0,-442.0,26.0,593.0,290.0,906.0
165.0,80.0,214.0,178.0,-402.0,5.0,613.0,303.0,931.0
169.0,83.0,221.0,137.0,-350.0,-16.0,634.0,317.0,953.0
171.0,86.0,228.0,87.0,-305.0,-30.0,650.0,317.0,982.0
174.0,86.0,237.0,49.0,-254.0,-37.0,656.0,313.0,1013.0
180.0,85.0,242.0,16.0,-203.0,-47.0,689.0,314.0,1039.0
181.0,85.0,245.0,-16.0,-149.0,-46.0,680.0,318.0,1057.0
177.0,85.0,255.0,-44.0,-96.0,-46.0,678.0,314.0,1086.0
182.0,78.0,263.0,-74.0,-58.0,-42.0,696.0,296.0,1105.0
181.0,72.0,256.0,-112.0,-25.0,-36.0,695.0,273.0,1103.0
182.0,67.0,259.0,-167.0,2.0,-28.0,695.0,242.0,1093.0
181.0,61.0,258.0,-226.0,30.0,-21.0,682.0,214.0,1099.0
177.0,56.0,266.0,-279.0,59.0,-6.0,679.0,204.0,1107.0
171.0,53.0,262.0,-316.0,80.0,3.0,653.0,192.0,1121.0
166.0,47.0,263.0,-332.0,103.0,22.0,634.0,181.0,1121.0
162.0,46.0,262.0,-345.0,124.0,39.0,606.0,163.0,1107.0
161.0,38.0,254.0,-362.0,151.0,66.0,613.0,138.0,1073.0
150.0,32.0,249.0,-387.0,172.0,84.0,569.0,111.0,1065.0
142.0,19.0,237.0,-406.0,189.0,106.0,546.0,80.0,1030.0
143.0,13.0,233.0,-426.0,216.0,129.0,537.0,53.0,1002.0
141.0,6.0,225.0,-441.0,244.0,151.0,529.0,24.0,982.0
140.0,3.0,223.0,-444.0,273.0,170.0,523.0,2.0,954.0
137.0,-4.0,213.0,-444.0,311.0,193.0,507.0,-18.0,944.0
131.0,-10.0,210.0,-431.0,342.0,206.0,493.0,-43.0,925.0
131.0,-12.0,213.0,-415.0,374.0,225.0,484.0,-58.0,921.0
122.0,-20.0,210.0,-393.0,402.0,230.0,466.0,-79.0,906.0
118.0,-28.0,207.0,-373.0,426.0,235.0,446.0,-94.0,894.0
116.0,-32.0,208.0,-351.0,448.0,235.0,427.0,-109.0,896.0
112.0,-30.0,204.0,-323.0,468.0,231.0,403.0,-116.0,888.0
108.0,-35.0,202.0,-294.0,486.0,225.0,391.0,-132.0,886.0
102.0,-34.0,202.0,-270.0,503.0,215.0,375.0,-135.0,886.0
98.0,-36.0,204.0,-245.0,519.0,203.0,358.0,-140.0,879.0
92.0,-37.0,200.0,-221.0,540.0,189.0,343.0,-138.0,879.0
88.0,-37.0,200.0,-203.0,554.0,173.0,335.0,-138.0,871.0
87.0,-35.0,198.0,-197.0,564.0,157.0,326.0,-144.0,873.0
83.0,-36.0,205.0,-196.0,576.0,143.0,304.0,-129.0,884.0
80.0,-35.0,206.0,-194.0,588.0,130.0,298.0,-136.0,887.0
79.0,-35.0,204.0,-192.0,598.0,120.0,293.0,-135.0,899.0
75.0,-32.0,210.0,-194.0,607.0,109.0,279.0,-127.0,916.0
67.0,-30.0,215.0,-193.0,616.0,100.0,253.0,-115.0,930.0
64.0,-29.0,219.0,-191.0,623.0,90.0,246.0,-106.0,942.0
58.0,-23.0,224.0,-188.0,627.0,86.0,229.0,-103.0,955.0
57.0,-23.0,222.0,-191.0,630.0,79.0,222.0,-94.0,957.0
54.0,-21.0,223.0,-202.0,626.0,76.0,207.0,-83.0,965.0
52.0,-19.0,232.0,-219.0,625.0,72.0,199.0,-74.0,983.0
49.0,-20.0,232.0,-233.0,618.0,71.0,175.0,-73.0,995.0
45.0,-22.0,234.0,-250.0,612.0,71.0,167.0,-71.0,1007.0
41.0,-20.0,236.0,-268.0,601.0,72.0,148.0,-83.0,1020.0
39.0,-24.0,241.0,-287.0,593.0,74.0,137.0,-76.0,1037.0
36.0,-25.0,241.0,-302.0,581.0,76.0,127.0,-92.0,1040.0
33.0,-29.0,248.0,-317.0,571.0,74.0,124.0,-112.0,1049.0
29.0,-29.0,246.0,-334.0,560.0,77.0,109.0,-122.0,1058.0
27.0,-38.0,248.0,-352.0,543.0,78.0,95.0,-141.0,1055.0
27.0,-39.0,249.0,-377.0,531.0,76.0,101.0,-160.0,1065.0
23.0,-44.0,252.0,-392.0,517.0,76.0,81.0,-174.0,1073.0
21.0,-52.0,250.0,-396.0,504.0,77.0,73.0,-193.0,1075.0
17.0,-57.0,252.0,-398.0,490.0,72.0,57.0,-211.0,1079.0
17.0,-59.0,255.0,-397.0,474.0,72.0,57.0,-218.0,1082.0
12.0,-60.0,256.0,-388.0,458.0,65.0,39.0,-216.0,1080.0
7.0,-61.0,256.0,-374.0,440.0,68.0,21.0,-227.0,1080.0
7.0,-64.0,259.0,-356.0,428.0,64.0,12.0,-227.0,1084.0
5.0,-66.0,251.0,-336.0,418.0,63.0,0.0,-234.0,1085.0
5.0,-67.0,252.0,-310.0,412.0,57.0,0.0,-240.0,1089.0
-3.0,-65.0,249.0,-291.0,408.0,54.0,-13.0,-241.0,1075.0
-5.0,-65.0,251.0,-269.0,406.0,49.0,-20.0,-236.0,1068.0
-3.0,-67.0,250.0,-245.0,403.0,46.0,-28.0,-241.0,1056.0
-6.0,-67.0,241.0,-224.0,403.0,39.0,-32.0,-236.0,1040.0
-8.0,-65.0,239.0,-212.0,404.0,37.0,-32.0,-228.0,1033.0
-9.0,-63.0,240.0,-196.0,404.0,33.0,-41.0,-226.0,1028.0
-12.0,-62.0,234.0,-179.0,402.0,34.0,-58.0,-222.0,1027.0
-12.0,-64.0,237.0,-153.0,399.0,31.0,-63.0,-221.0,1019.0
-12.0,-59.0,232.0,-126.0,395.0,33.0,-70.0,-213.0,1012.0
-24.0,-53.0,236.0,-99.0,388.0,30.0,-90.0,-208.0,1000.0
-21.0,-54.0,235.0,-87.0,376.0,34.0,-88.0,-196.0,993.0
-22.0,-53.0,231.0,-76.0,365.0,34.0,-103.0,-189.0,1000.0
-26.0,-48.0,231.0,-65.0,348.0,38.0,-107.0,-180.0,995.0
-25.0,-46.0,233.0,-52.0,331.0,35.0,-113.0,-165.0,990.0
-24.0,-42.0,229.0,-40.0,315.0,37.0,-110.0,-160.0,992.0
-28.0,-40.0,229.0,-30.0,300.0,35.0,-124.0,-154.0,982.0
-28.0,-40.0,230.0,-23.0,283.0,38.0,-122.0,-149.0,982.0
-29.0,-36.0,232.0,-21.0,268.0,36.0,-129.0,-138.0,991.0
-33.0,-36.0,231.0,-18.0,252.0,38.0,-126.0,-134.0,993.0
-31.0,-33.0,231.0,-19.0,232.0,37.0,-131.0,-122.0,998.0
-34.0,-31.0,231.0,-22.0,216.0,39.0,-136.0,-114.0,998.0
-31.0,-33.0,233.0,-26.0,203.0,36.0,-133.0,-107.0,1001.0
-34.0,-28.0,231.0,-32.0,187.0,36.0,-135.0,-106.0,1002.0
-31.0,-27.0,237.0,-41.0,171.0,31.0,-135.0,-97.0,1007.0
-32.0,-27.0,235.0,-48.0,157.0,28.0,-130.0,-100.0,1013.0
-29.0,-30.0,235.0,-57.0,140.0,21.0,-125.0,-101.0,1025.0
-28.0,-28.0,236.0,-63.0,125.0,18.0,-120.0,-92.0,1023.0
-28.0,-26.0,241.0,-67.0,113.0,10.0,-115.0,-96.0,1021.0
-23.0,-27.0,238.0,-72.0,103.0,4.0,-107.0,-91.0,1022.0
-21.0,-27.0,239.0,-77.0,91.0,-5.0,-99.0,-98.0,1028.0
-20.0,-26.0,241.0,-77.0,81.0,-10.0,-90.0,-96.0,1032.0
-17.0,-25.0,242.0,-77.0,71.0,-20.0,-82.0,-99.0,1041.0
-15.0,-25.0,245.0,-74.0,59.0,-25.0,-68.0,-94.0,1044.0
-12.0,-26.0,243.0,-72.0,50.0,-33.0,-62.0,-94.0,1046.0
-12.0,-26.0,243.0,-66.0,42.0,-37.0,-46.0,-98.0,1053.0
-9.0,-25.0,243.0,-60.0,34.0,-43.0,-49.0,-100.0,1046.0
-6.0,-26.0,244.0,-54.0,27.0,-49.0,-33.0,-94.0,1048.0
-4.0,-26.0,237.0,-46.0,22.0,-51.0,-26.0,-98.0,1044.0
-2.0,-27.0,244.0,-37.0,15.0,-52.0,-19.0,-99.0,1046.0
-3.0,-27.0,248.0,-27.0,5.0,-53.0,-8.0,-99.0,1039.0
-4.0,-29.0,240.0,-18.0,-2.0,-52.0,-4.0,-100.0,1037.0
1.0,-29.0,239.0,-12.0,-9.0,-53.0,3.0,-101.0,1034.0
2.0,-26.0,241.0,-5.0,-15.0,-52.0,3.0,-106.0,1030.0
3.0,-28.0,240.0,2.0,-21.0,-51.0,11.0,-107.0,1030.0
9.0,-29.0,241.0,6.0,-27.0,-51.0,21.0,-97.0,1032.0
8.0,-27.0,239.0,8.0,-33.0,-50.0,30.0,-96.0,1031.0
9.0,-25.0,240.0,6.0,-42.0,-46.0,37.0,-98.0,1031.0
11.0,-26.0,238.0,0.0,-47.0,-42.0,45.0,-109.0,1027.0
15.0,-26.0,239.0,-6.0,-51.0,-44.0,43.0,-106.0,1033.0
18.0,-28.0,242.0,-17.0,-56.0,-45.0,57.0,-106.0,1030.0
18.0,-29.0,237.0,-23.0,-60.0,-44.0,69.0,-104.0,1030.0
20.0,-30.0,238.0,-29.0,-62.0,-41.0,71.0,-110.0,1030.0
22.0,-27.0,241.0,-28.0,-64.0,-40.0,84.0,-81.0,1022.0
23.0,-26.0,240.0,0.0,-74.0,-46.0,80.0,-102.0,1035.0
26.0,-31.0,238.0,-19.0,-74.0,-38.0,94.0,-109.0,1024.0
26.0,-31.0,235.0,-23.0,-77.0,-32.0,95.0,-114.0,1019.0
31.0,-27.0,236.0,-13.0,-81.0,-33.0,106.0,-103.0,1019.0
38.0,-17.0,247.0,-11.0,-72.0,-28.0,144.0,-107.0,1034.0
31.0,-25.0,239.0,-9.0,-66.0,-30.0,120.0,-98.0,1020.0
34.0,-26.0,234.0,-9.0,-66.0,-32.0,126.0,-98.0,1013.0
36.0,-25.0,234.0,-13.0,-63.0,-32.0,129.0,-98.0,1011.0
35.0,-23.0,236.0,-13.0,-59.0,-33.0,128.0,-97.0,1014.0
40.0,-26.0,237.0,-17.0,-56.0,-35.0,136.0,-99.0,1012.0
42.0,-26.0,240.0,-19.0,-53.0,-33.0,135.0,-99.0,1018.0
39.0,-22.0,235.0,-23.0,-50.0,-38.0,142.0,-99.0,1007.0
41.0,-26.0,236.0,-26.0,-46.0,-36.0,145.0,-99.0,1009.0
43.0,-22.0,236.0,-26.0,-40.0,-36.0,149.0,-96.0,1008.0
41.0,-26.0,235.0,-28.0,-37.0,-33.0,152.0,-95.0,1008.0
44.0,-26.0,235.0,-28.0,-34.0,-36.0,156.0,-93.0,1010.0
44.0,-24.0,237.0,-28.0,-30.0,-34.0,150.0,-93.0,1004.0
45.0,-27.0,236.0,-29.0,-24.0,-34.0,155.0,-94.0,1007.0
49.0,-24.0,238.0,-32.0,-16.0,-28.0,171.0,-102.0,1011.0
46.0,-27.0,234.0,-31.0,-9.0,-25.0,165.0,-96.0,1002.0
42.0,-22.0,235.0,-31.0,-4.0,-24.0,158.0,-96.0,1004.0
43.0,-25.0,230.0,-32.0,0.0,-25.0,159.0,-97.0,1009.0
44.0,-24.0,238.0,-33.0,3.0,-21.0,161.0,-94.0,1005.0
42.0,-24.0,235.0,-31.0,5.0,-21.0,160.0,-98.0,1007.0
46.0,-27.0,235.0,-34.0,9.0,-17.0,158.0,-98.0,1006.0
42.0,-27.0,235.0,-40.0,13.0,-17.0,156.0,-100.0,1007.0
42.0,-26.0,236.0,-44.0,16.0,-14.0,155.0,-99.0,1004.0
44.0,-27.0,236.0,-48.0,18.0,-14.0,155.0,-102.0,1007.0
46.0,-27.0,234.0,-52.0,22.0,-8.0,153.0,-103.0,1013.0
43.0,-27.0,240.0,-57.0,26.0,-9.0,159.0,-105.0,1014.0
44.0,-24.0,235.0,-61.0,28.0,-6.0,158.0,-107.0,1014.0
42.0,-27.0,238.0,-66.0,33.0,-7.0,155.0,-107.0,1015.0
43.0,-31.0,235.0,-68.0,39.0,-3.0,156.0,-105.0,1014.0
43.0,-31.0,235.0,-71.0,43.0,-3.0,153.0,-117.0,1017.0
45.0,-31.0,232.0,-71.0,47.0,0.0,153.0,-115.0,1021.0
41.0,-28.0,237.0,-67.0,51.0,-1.0,144.0,-113.0,1019.0
40.0,-29.0,239.0,-64.0,55.0,1.0,147.0,-110.0,1016.0
41.0,-31.0,239.0,-61.0,58.0,-2.0,142.0,-116.0,1011.0
41.0,-30.0,235.0,-59.0,62.0,0.0,139.0,-119.0,1014.0
38.0,-31.0,233.0,-57.0,65.0,-1.0,139.0,-118.0,1012.0
39.0,-32.0,235.0,-54.0,67.0,0.0,139.0,-116.0,1020.0
38.0,-31.0,238.0,-52.0,70.0,-4.0,137.0,-116.0,1015.0
39.0,-34.0,236.0,-50.0,72.0,-2.0,132.0,-117.0,1008.0
36.0,-32.0,241.0,-48.0,75.0,-4.0,127.0,-117.0,1011.0
32.0,-28.0,234.0,-46.0,76.0,-3.0,124.0,-121.0,1011.0
34.0,-33.0,238.0,-49.0,80.0,-5.0,120.0,-120.0,1007.0
35.0,-31.0,235.0,-47.0,84.0,-3.0,115.0,-116.0,1009.0
34.0,-33.0,236.0,-48.0,88.0,-7.0,110.0,-115.0,1008.0
28.0,-32.0,235.0,-51.0,92.0,-8.0,111.0,-118.0,1007.0
28.0,-31.0,235.0,-52.0,95.0,-10.0,107.0,-121.0,1004.0
31.0,-33.0,232.0,-50.0,98.0,-8.0,104.0,-115.0,1005.0
30.0,-32.0,235.0,-53.0,102.0,-10.0,99.0,-116.0,1004.0
28.0,-34.0,234.0,-54.0,107.0,-9.0,99.0,-118.0,1008.0
25.0,-33.0,235.0,-56.0,110.0,-10.0,96.0,-116.0,1008.0
23.0,-29.0,235.0,-59.0,113.0,-8.0,95.0,-117.0,1010.0
25.0,-34.0,232.0,-61.0,116.0,-11.0,82.0,-117.0,1010.0
22.0,-35.0,238.0,-61.0,119.0,-7.0,82.0,-115.0,1008.0
24.0,-29.0,236.0,-61.0,120.0,-9.0,75.0,-117.0,1015.0
20.0,-29.0,238.0,-61.0,120.0,-8.0,75.0,-125.0,1009.0
19.0,-32.0,235.0,-59.0,121.0,-11.0,73.0,-111.0,1010.0
21.0,-29.0,238.0,-60.0,122.0,-8.0,68.0,-115.0,1013.0
16.0,-31.0,241.0,-59.0,122.0,-10.0,64.0,-120.0,1013.0
18.0,-33.0,235.0,-58.0,120.0,-9.0,60.0,-121.0,1023.0
16.0,-32.0,236.0,-57.0,118.0,-10.0,58.0,-120.0,1014.0
14.0,-30.0,238.0,-56.0,116.0,-10.0,56.0,-127.0,1015.0
14.0,-32.0,237.0,-52.0,115.0,-10.0,49.0,-120.0,1015.0
11.0,-34.0,237.0,-48.0,114.0,-9.0,42.0,-122.0,1022.0
10.0,-35.0,235.0,-48.0,112.0,-8.0,40.0,-129.0,1020.0
13.0,-36.0,235.0,-48.0,110.0,-6.0,43.0,-132.0,1018.0
11.0,-35.0,238.0,-45.0,107.0,-7.0,36.0,-130.0,1023.0
9.0,-37.0,238.0,-38.0,105.0,-5.0,36.0,-133.0,1015.0
11.0,-38.0,238.0,-29.0,102.0,-6.0,36.0,-131.0,1009.0
12.0,-36.0,234.0,-20.0,99.0,-5.0,32.0,-137.0,1011.0
14.0,-36.0,234.0,-17.0,96.0,-4.0,33.0,-134.0,1014.0
11.0,-36.0,237.0,-12.0,92.0,-1.0,34.0,-132.0,1007.0
11.0,-37.0,235.0,-8.0,89.0,-1.0,29.0,-139.0,1008.0
8.0,-34.0,233.0,-2.0,83.0,-1.0,29.0,-137.0,1011.0
9.0,-37.0,237.0,-1.0,79.0,0.0,30.0,-132.0,1010.0
9.0,-34.0,235.0,0.0,75.0,1.0,30.0,-134.0,1012.0
9.0,-36.0,231.0,-1.0,72.0,0.0,35.0,-123.0,1010.0
9.0,-32.0,236.0,-5.0,67.0,1.0,32.0,-130.0,1004.0
11.0,-39.0,237.0,-9.0,62.0,1.0,32.0,-136.0,1009.0
9.0,-36.0,237.0,-13.0,57.0,0.0,37.0,-133.0,1009.0
10.0,-35.0,237.0,-18.0,54.0,2.0,35.0,-130.0,1014.0
11.0,-36.0,237.0,-21.0,50.0,0.0,39.0,-130.0,1015.0
12.0,-34.0,234.0,-24.0,46.0,2.0,42.0,-126.0,1021.0
15.0,-36.0,238.0,-26.0,43.0,2.0,42.0,-134.0,1016.0
11.0,-33.0,236.0,-27.0,40.0,2.0,44.0,-132.0,1020.0
11.0,-33.0,235.0,-28.0,36.0,0.0,44.0,-131.0,1015.0
12.0,-35.0,242.0,-29.0,33.0,1.0,45.0,-128.0,1018.0
11.0,-34.0,237.0,-29.0,30.0,-2.0,46.0,-128.0,1023.0
15.0,-33.0,239.0,-29.0,27.0,0.0,45.0,-129.0,1021.0
17.0,-36.0,237.0,-29.0,24.0,-2.0,46.0,-134.0,1020.0
15.0,-37.0,239.0,-26.0,22.0,-1.0,47.0,-124.0,1016.0
17.0,-36.0,237.0,-22.0,20.0,-5.0,58.0,-122.0,1014.0
17.0,-34.0,238.0,-20.0,19.0,-2.0,57.0,-126.0,1013.0
17.0,-34.0,237.0,-18.0,18.0,-4.0,58.0,-124.0,1008.0
20.0,-34.0,235.0,-15.0,17.0,-4.0,60.0,-122.0,1009.0
18.0,-35.0,238.0,-13.0,17.0,-7.0,62.0,-122.0,1006.0
16.0,-31.0,237.0,-10.0,18.0,-5.0,66.0,-124.0,1004.0
19.0,-32.0,232.0,-8.0,18.0,-9.0,66.0,-121.0,1007.0
23.0,-31.0,233.0,-6.0,21.0,-7.0,73.0,-115.0,1006.0
20.0,-29.0,236.0,-5.0,22.0,-9.0,78.0,-113.0,1009.0
23.0,-31.0,233.0,-2.0,24.0,-7.0,82.0,-113.0,1005.0
24.0,-28.0,230.0,1.0,27.0,-10.0,79.0,-112.0,1001.0
25.0,-31.0,232.0,2.0,28.0,-8.0,82.0,-111.0,1004.0
26.0,-31.0,233.0,1.0,31.0,-10.0,89.0,-108.0,1004.0
24.0,-25.0,234.0,2.0,31.0,-9.0,95.0,-101.0,994.0
29.0,-28.0,234.0,2.0,35.0,-14.0,93.0,-110.0,998.0
27.0,-28.0,232.0,3.0,37.0,-11.0,103.0,-107.0,998.0
30.0,-27.0,228.0,5.0,39.0,-14.0,102.0,-103.0,997.0
30.0,-30.0,233.0,8.0,43.0,-13.0,101.0,-113.0,1002.0
31.0,-31.0,233.0,10.0,42.0,-15.0,105.0,-107.0,999.0
32.0,-31.0,234.0,15.0,43.0,-13.0,104.0,-112.0,999.0
30.0,-30.0,234.0,17.0,44.0,-17.0,104.0,-116.0,999.0
31.0,-31.0,231.0,19.0,44.0,-16.0,106.0,-123.0,1002.0
32.0,-34.0,232.0,25.0,44.0,-20.0,106.0,-127.0,1005.0
33.0,-38.0,236.0,27.0,44.0,-19.0,106.0,-133.0,1008.0
32.0,-38.0,235.0,29.0,44.0,-22.0,109.0,-135.0,1008.0
30.0,-34.0,236.0,31.0,44.0,-21.0,114.0,-137.0,1016.0
31.0,-36.0,236.0,35.0,44.0,-24.0,114.0,-140.0,1010.0
35.0,-38.0,235.0,40.0,44.0,-22.0,115.0,-140.0,1008.0
34.0,-37.0,236.0,48.0,45.0,-22.0,112.0,-142.0,1017.0
31.0,-39.0,235.0,56.0,50.0,-19.0,115.0,-148.0,1009.0
34.0,-41.0,234.0,65.0,51.0,-18.0,114.0,-141.0,1011.0
35.0,-40.0,233.0,76.0,52.0,-15.0,115.0,-143.0,1004.0
30.0,-39.0,232.0,87.0,53.0,-16.0,113.0,-140.0,1005.0
32.0,-37.0,237.0,95.0,54.0,-11.0,110.0,-140.0,1007.0
29.0,-37.0,235.0,99.0,53.0,-11.0,108.0,-141.0,1013.0
32.0,-36.0,236.0,99.0,53.0,-10.0,107.0,-140.0,1005.0
32.0,-36.0,233.0,101.0,53.0,-10.0,105.0,-140.0,1006.0
29.0,-40.0,234.0,101.0,53.0,-9.0,105.0,-139.0,1005.0
30.0,-36.0,235.0,98.0,54.0,-9.0,106.0,-138.0,1010.0
29.0,-35.0,238.0,92.0,52.0,-7.0,103.0,-132.0,1011.0
30.0,-36.0,236.0,90.0,53.0,-8.0,103.0,-131.0,1010.0
31.0,-35.0,234.0,83.0,56.0,-6.0,104.0,-131.0,1012.0
29.0,-36.0,235.0,80.0,57.0,-3.0,104.0,-131.0,1011.0
30.0,-36.0,231.0,75.0,59.0,-1.0,98.0,-139.0,1012.0
29.0,-35.0,234.0,70.0,61.0,-3.0,101.0,-131.0,1006.0
27.0,-35.0,233.0,73.0,65.0,-2.0,97.0,-128.0,1001.0
27.0,-34.0,230.0,74.0,70.0,-2.0,95.0,-116.0,998.0
25.0,-32.0,232.0,77.0,73.0,-3.0,88.0,-119.0,997.0
27.0,-31.0,229.0,78.0,75.0,-3.0,93.0,-113.0,995.0
24.0,-31.0,231.0,78.0,80.0,-4.0,87.0,-113.0,998.0
24.0,-30.0,234.0,77.0,82.0,-6.0,80.0,-113.0,997.0
15.0,-25.0,245.0,74.0,83.0,-6.0,85.0,-103.0,1001.0
6.0,-24.0,226.0,69.0,87.0,-7.0,89.0,-107.0,1004.0
25.0,-26.0,233.0,64.0,91.0,-7.0,85.0,-106.0,1010.0
17.0,-33.0,233.0,57.0,92.0,-7.0,82.0,-108.0,1011.0
15.0,-27.0,226.0,50.0,94.0,-6.0,83.0,-100.0,1014.0
26.0,-24.0,228.0,44.0,96.0,-7.0,86.0,-103.0,1023.0
22.0,-27.0,239.0,36.0,98.0,-4.0,83.0,-101.0,1023.0
21.0,-28.0,238.0,32.0,100.0,-3.0,86.0,-100.0,1029.0
22.0,-27.0,240.0,29.0,102.0,-1.0,86.0,-102.0,1029.0
23.0,-26.0,241.0,27.0,101.0,2.0,77.0,-99.0,1025.0
21.0,-23.0,239.0,25.0,100.0,3.0,76.0,-98.0,1026.0
22.0,-28.0,241.0,22.0,100.0,4.0,78.0,-98.0,1028.0
20.0,-25.0,239.0,21.0,101.0,7.0,78.0,-96.0,1030.0
19.0,-25.0,239.0,20.0,99.0,7.0,77.0,-93.0,1031.0
19.0,-23.0,240.0,19.0,97.0,8.0,72.0,-92.0,1033.0
19.0,-23.0,237.0,18.0,97.0,10.0,70.0,-94.0,1025.0
18.0,-23.0,239.0,19.0,98.0,8.0,69.0,-87.0,1024.0
23.0,-28.0,241.0,18.0,94.0,11.0,63.0,-90.0,1025.0
21.0,-26.0,235.0,19.0,94.0,7.0,62.0,-90.0,1028.0
17.0,-21.0,236.0,19.0,91.0,9.0,62.0,-83.0,1024.0
17.0,-23.0,240.0,18.0,90.0,7.0,66.0,-85.0,1024.0
18.0,-21.0,238.0,20.0,89.0,7.0,67.0,-84.0,1025.0
18.0,-17.0,237.0,19.0,88.0,4.0,69.0,-83.0,1020.0
17.0,-20.0,234.0,18.0,86.0,4.0,61.0,-79.0,1017.0
20.0,-21.0,239.0,18.0,84.0,2.0,63.0,-83.0,1017.0
19.0,-23.0,237.0,17.0,82.0,2.0,63.0,-81.0,1021.0
17.0,-24.0,236.0,15.0,82.0,-1.0,63.0,-75.0,1017.0
19.0,-20.0,238.0,13.0,79.0,0.0,67.0,-74.0,1012.0
18.0,-20.0,236.0,11.0,78.0,-4.0,65.0,-82.0,1025.0
22.0,-23.0,237.0,11.0,78.0,-1.0,70.0,-81.0,1018.0
17.0,-21.0,236.0,7.0,76.0,-6.0,72.0,-74.0,1017.0
22.0,-23.0,236.0,3.0,77.0,-4.0,70.0,-77.0,1023.0
19.0,-21.0,238.0,0.0,75.0,-7.0,73.0,-73.0,1023.0
19.0,-21.0,242.0,-2.0,74.0,-6.0,71.0,-79.0,1024.0
18.0,-20.0,241.0,-4.0,73.0,-9.0,70.0,-77.0,1020.0
20.0,-22.0,240.0,-7.0,73.0,-8.0,69.0,-82.0,1023.0
23.0,-24.0,240.0,-8.0,70.0,-11.0,72.0,-75.0,1018.0
21.0,-22.0,239.0,-10.0,69.0,-10.0,73.0,-88.0,1025.0
23.0,-26.0,238.0,-10.0,68.0,-11.0,77.0,-85.0,1027.0
20.0,-22.0,239.0,-12.0,66.0,-9.0,76.0,-88.0,1025.0
26.0,-28.0,239.0,-13.0,65.0,-11.0,80.0,-90.0,1024.0
22.0,-24.0,238.0,-14.0,64.0,-11.0,80.0,-92.0,1023.0
22.0,-23.0,239.0,-16.0,63.0,-15.0,76.0,-91.0,1023.0
23.0,-25.0,239.0,-16.0,65.0,-11.0,82.0,-96.0,1023.0
25.0,-26.0,239.0,-17.0,65.0,-16.0,78.0,-92.0,1020.0
23.0,-24.0,239.0,-19.0,66.0,-14.0,80.0,-97.0,1025.0
22.0,-26.0,236.0,-22.0,67.0,-16.0,79.0,-97.0,1024.0
22.0,-29.0,241.0,-26.0,68.0,-15.0,84.0,-101.0,1026.0
24.0,-29.0,240.0,-27.0,71.0,-17.0,77.0,-113.0,1028.0
24.0,-29.0,237.0,-24.0,71.0,-16.0,79.0,-110.0,1024.0
26.0,-29.0,236.0,-22.0,74.0,-17.0,83.0,-109.0,1014.0
25.0,-31.0,238.0,-22.0,77.0,-13.0,82.0,-113.0,1017.0
23.0,-29.0,233.0,-23.0,76.0,-16.0,83.0,-117.0,1017.0
22.0,-30.0,235.0,-23.0,77.0,-12.0,80.0,-117.0,1017.0
25.0,-32.0,241.0,-23.0,77.0,-14.0,82.0,-117.0,1011.0
23.0,-35.0,237.0,-23.0,77.0,-10.0,83.0,-118.0,1012.0
23.0,-30.0,235.0,-20.0,78.0,-11.0,81.0,-118.0,1016.0
24.0,-33.0,235.0,-17.0,76.0,-7.0,81.0,-117.0,1015.0
21.0,-32.0,230.0,-16.0,76.0,-8.0,79.0,-118.0,1005.0
22.0,-33.0,234.0,-14.0,74.0,-6.0,80.0,-122.0,1009.0
21.0,-32.0,237.0,-12.0,71.0,-6.0,79.0,-121.0,1018.0
23.0,-30.0,236.0,-12.0,70.0,-3.0,80.0,-120.0,1004.0
24.0,-32.0,234.0,-11.0,70.0,-6.0,79.0,-123.0,1013.0
22.0,-31.0,237.0,-11.0,69.0,-1.0,81.0,-120.0,1011.0
22.0,-31.0,238.0,-9.0,67.0,-2.0,76.0,-116.0,1014.0
23.0,-32.0,239.0,-10.0,67.0,1.0,74.0,-115.0,1009.0
24.0,-31.0,236.0,-9.0,67.0,1.0,74.0,-112.0,1015.0
22.0,-28.0,235.0,-8.0,65.0,2.0,74.0,-111.0,1010.0
19.0,-31.0,235.0,-6.0,64.0,2.0,71.0,-106.0,1015.0
20.0,-27.0,235.0,-6.0,64.0,4.0,69.0,-106.0,1005.0
20.0,-29.0,235.0,-6.0,64.0,3.0,73.0,-109.0,1013.0
21.0,-30.0,234.0,-4.0,64.0,6.0,78.0,-110.0,1009.0
21.0,-29.0,238.0,-5.0,65.0,3.0,70.0,-107.0,1010.0
20.0,-28.0,236.0,-5.0,66.0,4.0,71.0,-100.0,1011.0
20.0,-31.0,237.0,-4.0,64.0,3.0,69.0,-99.0,1010.0
21.0,-25.0,235.0,-5.0,65.0,3.0,71.0,-100.0,1013.0
20.0,-28.0,235.0,-3.0,63.0,3.0,74.0,-103.0,1014.0
20.0,-25.0,238.0,-4.0,64.0,2.0,75.0,-100.0,1012.0
21.0,-29.0,235.0,-3.0,64.0,2.0,77.0,-101.0,1017.0
22.0,-27.0,235.0,-3.0,63.0,1.0,78.0,-101.0,1016.0
18.0,-24.0,240.0,-4.0,65.0,1.0,74.0,-98.0,1009.0
22.0,-30.0,232.0,-4.0,65.0,0.0,75.0,-98.0,1024.0
20.0,-26.0,237.0,-7.0,63.0,0.0,79.0,-101.0,1015.0
20.0,-25.0,237.0,-9.0,65.0,-1.0,73.0,-100.0,1017.0
21.0,-26.0,236.0,-10.0,62.0,0.0,76.0,-100.0,1016.0
22.0,-26.0,240.0,-12.0,61.0,-1.0,77.0,-97.0,1018.0
20.0,-24.0,240.0,-14.0,62.0,-1.0,74.0,-97.0,1014.0
21.0,-27.0,239.0,-14.0,60.0,-2.0,80.0,-95.0,1019.0
21.0,-24.0,235.0,-18.0,59.0,-1.0,76.0,-95.0,1022.0
23.0,-25.0,234.0,-20.0,59.0,-1.0,77.0,-91.0,1024.0
20.0,-23.0,236.0,-20.0,58.0,0.0,76.0,-93.0,1021.0
21.0,-24.0,236.0,-23.0,59.0,-1.0,75.0,-93.0,1017.0
21.0,-26.0,237.0,-26.0,60.0,0.0,73.0,-88.0,1021.0
22.0,-26.0,239.0,-28.0,59.0,0.0,72.0,-87.0,1024.0
23.0,-25.0,237.0,-29.0,59.0,1.0,75.0,-83.0,1024.0
24.0,-24.0,238.0,-29.0,60.0,-1.0,74.0,-90.0,1021.0
23.0,-24.0,239.0,-31.0,59.0,2.0,74.0,-91.0,1019.0
22.0,-26.0,238.0,-33.0,59.0,0.0,74.0,-87.0,1021.0
21.0,-26.0,233.0,-35.0,59.0,-1.0,79.0,-91.0,1019.0
22.0,-25.0,236.0,-36.0,58.0,-2.0,74.0,-89.0,1021.0
20.0,-27.0,236.0,-36.0,60.0,-1.0,74.0,-89.0,1022.0
21.0,-24.0,238.0,-39.0,61.0,-3.0,77.0,-88.0,1019.0
22.0,-25.0,237.0,-40.0,61.0,0.0,75.0,-95.0,1015.0
23.0,-25.0,236.0,-41.0,60.0,-3.0,75.0,-97.0,1021.0
23.0,-26.0,239.0,-41.0,61.0,-2.0,72.0,-97.0,1017.0
22.0,-25.0,234.0,-41.0,61.0,-3.0,73.0,-97.0,1016.0
20.0,-26.0,239.0,-43.0,62.0,-1.0,73.0,-97.0,1015.0
20.0,-27.0,240.0,-42.0,63.0,-4.0,74.0,-100.0,1019.0
21.0,-28.0,237.0,-42.0,64.0,-1.0,73.0,-99.0,1011.0
23.0,-28.0,233.0,-41.0,64.0,-4.0,76.0,-97.0,1019.0
19.0,-26.0,236.0,-41.0,64.0,-1.0,75.0,-105.0,1015.0
22.0,-25.0,236.0,-41.0,65.0,-3.0,77.0,-99.0,1016.0
24.0,-31.0,233.0,-42.0,66.0,-2.0,79.0,-98.0,1013.0
22.0,-29.0,234.0,-41.0,68.0,-3.0,77.0,-102.0,1010.0
21.0,-27.0,238.0,-42.0,70.0,-1.0,80.0,-104.0,1010.0
21.0,-30.0,234.0,-43.0,70.0,-4.0,79.0,-105.0,1013.0
25.0,-30.0,238.0,-42.0,71.0,-2.0,77.0,-104.0,1015.0
24.0,-29.0,233.0,-43.0,71.0,-3.0,81.0,-105.0,1016.0
23.0,-28.0,233.0,-41.0,70.0,-2.0,77.0,-106.0,1017.0
20.0,-28.0,239.0,-42.0,70.0,-4.0,78.0,-107.0,1012.0
21.0,-28.0,242.0,-42.0,71.0,-2.0,75.0,-110.0,1015.0
19.0,-27.0,236.0,-43.0,72.0,-4.0,75.0,-104.0,1014.0
19.0,-27.0,243.0,-42.0,72.0,-2.0,77.0,-103.0,1015.0
22.0,-30.0,237.0,-43.0,72.0,-4.0,74.0,-107.0,1016.0
20.0,-30.0,239.0,-43.0,72.0,-1.0,72.0,-108.0,1022.0
22.0,-30.0,236.0,-43.0,72.0,-5.0,75.0,-108.0,1018.0
20.0,-30.0,236.0,-43.0,71.0,-2.0,74.0,-104.0,1015.0
21.0,-31.0,238.0,-43.0,70.0,-4.0,73.0,-105.0,1016.0
21.0,-30.0,236.0,-44.0,69.0,-1.0,70.0,-112.0,1020.0
23.0,-31.0,234.0,-44.0,70.0,-3.0,76.0,-108.0,1017.0
20.0,-25.0,238.0,-43.0,69.0,-2.0,75.0,-107.0,1021.0
20.0,-30.0,235.0,-43.0,71.0,-4.0,77.0,-108.0,1019.0
20.0,-28.0,238.0,-44.0,72.0,-2.0,76.0,-111.0,1013.0
24.0,-32.0,237.0,-44.0,71.0,-5.0,72.0,-108.0,1020.0
24.0,-30.0,239.0,-44.0,70.0,-3.0,70.0,-112.0,1021.0
17.0,-30.0,235.0,-44.0,71.0,-4.0,70.0,-107.0,1015.0
21.0,-30.0,231.0,-45.0,69.0,-4.0,70.0,-109.0,1019.0
23.0,-32.0,237.0,-44.0,68.0,-3.0,75.0,-110.0,1013.0
22.0,-31.0,234.0,-45.0,69.0,-2.0,73.0,-108.0,1010.0
21.0,-29.0,237.0,-46.0,69.0,-3.0,68.0,-113.0,1015.0
19.0,-29.0,237.0,-46.0,67.0,-1.0,74.0,-111.0,1017.0
18.0,-31.0,238.0,-47.0,67.0,-4.0,70.0,-112.0,1020.0
19.0,-29.0,233.0,-44.0,66.0,0.0,72.0,-111.0,1011.0
19.0,-29.0,234.0,-43.0,66.0,-1.0,68.0,-115.0,1011.0
20.0,-29.0,236.0,-41.0,64.0,-1.0,71.0,-112.0,1016.0
20.0,-32.0,236.0,-39.0,61.0,-1.0,68.0,-114.0,1015.0
20.0,-30.0,239.0,-37.0,60.0,0.0,70.0,-109.0,1014.0
21.0,-27.0,235.0,-36.0,57.0,-2.0,67.0,-110.0,1018.0
19.0,-28.0,240.0,-35.0,55.0,-1.0,67.0,-112.0,1013.0
20.0,-30.0,235.0,-35.0,53.0,-1.0,65.0,-112.0,1019.0
22.0,-30.0,236.0,-33.0,51.0,1.0,73.0,-113.0,1014.0
20.0,-31.0,232.0,-34.0,51.0,-1.0,70.0,-114.0,1009.0
22.0,-31.0,236.0,-34.0,48.0,-1.0,70.0,-113.0,1015.0
21.0,-30.0,232.0,-35.0,50.0,0.0,71.0,-118.0,1012.0
16.0,-31.0,236.0,-35.0,48.0,1.0,74.0,-113.0,1016.0
22.0,-31.0,235.0,-35.0,48.0,1.0,73.0,-113.0,1011.0
22.0,-30.0,239.0,-36.0,49.0,1.0,71.0,-112.0,1021.0
21.0,-32.0,238.0,-38.0,51.0,2.0,74.0,-113.0,1017.0
22.0,-31.0,238.0,-38.0,51.0,1.0,74.0,-112.0,1018.0
20.0,-31.0,237.0,-40.0,53.0,2.0,76.0,-111.0,1014.0
23.0,-28.0,232.0,-40.0,53.0,2.0,81.0,-108.0,1012.0
22.0,-29.0,241.0,-41.0,55.0,3.0,75.0,-110.0,1016.0
28.0,-33.0,241.0,-41.0,55.0,2.0,79.0,-109.0,1008.0
23.0,-31.0,238.0,-44.0,56.0,2.0,78.0,-111.0,1012.0
23.0,-30.0,236.0,-44.0,57.0,2.0,79.0,-112.0,1015.0
23.0,-29.0,236.0,-46.0,61.0,4.0,80.0,-106.0,1015.0
22.0,-28.0,234.0,-45.0,61.0,0.0,82.0,-108.0,1014.0
23.0,-30.0,236.0,-44.0,61.0,3.0,77.0,-107.0,1015.0
23.0,-30.0,233.0,-42.0,62.0,1.0,80.0,-109.0,1016.0
24.0,-31.0,231.0,-42.0,64.0,0.0,80.0,-110.0,1010.0
22.0,-33.0,234.0,-43.0,64.0,-1.0,79.0,-111.0,1011.0
22.0,-29.0,236.0,-40.0,65.0,0.0,81.0,-112.0,1021.0
21.0,-28.0,239.0,-40.0,67.0,0.0,73.0,-113.0,1010.0
22.0,-28.0,236.0,-42.0,67.0,0.0,79.0,-110.0,1014.0
21.0,-33.0,235.0,-45.0,70.0,-3.0,75.0,-114.0,1017.0
20.0,-32.0,237.0,-46.0,69.0,-2.0,76.0,-119.0,1021.0
25.0,-32.0,234.0,-47.0,69.0,-4.0,78.0,-125.0,1026.0
21.0,-34.0,235.0,-44.0,71.0,-3.0,79.0,-129.0,1020.0
24.0,-37.0,235.0,-37.0,72.0,-5.0,81.0,-126.0,1011.0
23.0,-34.0,233.0,-32.0,72.0,-2.0,73.0,-122.0,1015.0
21.0,-34.0,238.0,-28.0,72.0,-5.0,75.0,-123.0,1010.0
22.0,-32.0,230.0,-26.0,71.0,-2.0,79.0,-123.0,1012.0
20.0,-32.0,235.0,-24.0,70.0,-3.0,74.0,-119.0,1009.0
22.0,-32.0,235.0,-20.0,67.0,0.0,73.0,-121.0,1011.0
20.0,-36.0,234.0,-17.0,68.0,-2.0,72.0,-115.0,1009.0
22.0,-30.0,238.0,-17.0,67.0,0.0,64.0,-114.0,1008.0
19.0,-32.0,234.0,-16.0,65.0,-1.0,73.0,-114.0,1008.0
21.0,-31.0,235.0,-16.0,62.0,2.0,75.0,-112.0,1010.0
22.0,-29.0,236.0,-18.0,62.0,-2.0,71.0,-111.0,1008.0
18.0,-27.0,236.0,-20.0,60.0,-1.0,75.0,-107.0,1008.0
20.0,-31.0,231.0,-24.0,59.0,-2.0,73.0,-110.0,1008.0
20.0,-30.0,239.0,-28.0,58.0,0.0,64.0,-108.0,1015.0
21.0,-29.0,236.0,-30.0,58.0,-3.0,70.0,-108.0,1010.0
21.0,-29.0,238.0,-33.0,57.0,0.0,65.0,-108.0,1016.0
19.0,-29.0,236.0,-37.0,58.0,-3.0,69.0,-110.0,1018.0
18.0,-32.0,235.0,-39.0,57.0,-1.0,66.0,-109.0,1021.0
22.0,-32.0,238.0,-39.0,57.0,-3.0,73.0,-112.0,1013.0
19.0,-29.0,240.0,-40.0,57.0,-1.0,70.0,-111.0,1019.0
20.0,-28.0,237.0,-41.0,57.0,-3.0,70.0,-114.0,1011.0
17.0,-26.0,237.0,-37.0,56.0,-1.0,69.0,-110.0,1021.0
18.0,-29.0,236.0,-36.0,56.0,-4.0,69.0,-113.0,1011.0
20.0,-31.0,238.0,-32.0,56.0,-1.0,70.0,-113.0,1009.0
21.0,-30.0,239.0,-28.0,56.0,-5.0,75.0,-117.0,1016.0
21.0,-31.0,235.0,-26.0,55.0,-2.0,69.0,-113.0,1004.0
21.0,-31.0,234.0,-24.0,55.0,-4.0,69.0,-115.0,1010.0
20.0,-32.0,234.0,-21.0,57.0,-4.0,74.0,-112.0,1008.0
22.0,-31.0,236.0,-19.0,58.0,-5.0,74.0,-114.0,1005.0
20.0,-31.0,238.0,-15.0,56.0,-3.0,71.0,-117.0,1006.0
20.0,-30.0,234.0,-13.0,57.0,-8.0,76.0,-115.0,1005.0
22.0,-30.0,235.0,-11.0,56.0,-4.0,77.0,-112.0,1006.0
24.0,-32.0,237.0,-8.0,55.0,-6.0,72.0,-118.0,1002.0
21.0,-33.0,235.0,-7.0,57.0,-4.0,70.0,-119.0,1001.0
19.0,-31.0,237.0,-5.0,58.0,-7.0,73.0,-118.0,1008.0
21.0,-29.0,235.0,-4.0,60.0,-5.0,76.0,-119.0,1003.0
21.0,-34.0,237.0,-2.0,61.0,-7.0,73.0,-123.0,1006.0
21.0,-33.0,235.0,0.0,61.0,-5.0,74.0,-122.0,1006.0
20.0,-32.0,234.0,3.0,62.0,-6.0,72.0,-116.0,1007.0
21.0,-33.0,237.0,5.0,63.0,-4.0,77.0,-119.0,1002.0
22.0,-34.0,234.0,8.0,64.0,-6.0,75.0,-120.0,1005.0
23.0,-33.0,235.0,10.0,65.0,-5.0,77.0,-124.0,1010.0
22.0,-32.0,236.0,11.0,65.0,-7.0,75.0,-121.0,1005.0
21.0,-31.0,237.0,13.0,66.0,-4.0,72.0,-122.0,1010.0
20.0,-31.0,236.0,13.0,67.0,-6.0,73.0,-119.0,1014.0
24.0,-32.0,236.0,13.0,65.0,-5.0,74.0,-122.0,1013.0
23.0,-34.0,241.0,12.0,65.0,-5.0,74.0,-122.0,1011.0
22.0,-33.0,237.0,11.0,63.0,-6.0,76.0,-121.0,1015.0
21.0,-30.0,236.0,12.0,63.0,-5.0,75.0,-121.0,1019.0
22.0,-33.0,235.0,11.0,63.0,-3.0,74.0,-119.0,1008.0
20.0,-32.0,236.0,10.0,62.0,-5.0,73.0,-119.0,1015.0
22.0,-32.0,236.0,8.0,62.0,-4.0,73.0,-117.0,1020.0
23.0,-33.0,235.0,9.0,62.0,-3.0,76.0,-121.0,1013.0
21.0,-30.0,238.0,10.0,60.0,-3.0,75.0,-118.0,1019.0
22.0,-34.0,235.0,9.0,61.0,-3.0,69.0,-119.0,1015.0
19.0,-33.0,237.0,10.0,59.0,-3.0,74.0,-121.0,1010.0
20.0,-34.0,239.0,11.0,59.0,-3.0,70.0,-120.0,1013.0
21.0,-33.0,235.0,14.0,60.0,-4.0,71.0,-116.0,1009.0
22.0,-33.0,234.0,15.0,60.0,-3.0,70.0,-115.0,1013.0
21.0,-32.0,239.0,18.0,59.0,-3.0,76.0,-120.0,1016.0
22.0,-34.0,235.0,20.0,59.0,-2.0,73.0,-118.0,1007.0
22.0,-30.0,237.0,22.0,57.0,-2.0,77.0,-110.0,1005.0
22.0,-33.0,235.0,22.0,58.0,-2.0,75.0,-109.0,1010.0
24.0,-30.0,234.0,25.0,59.0,-3.0,74.0,-118.0,1008.0
24.0,-32.0,236.0,26.0,59.0,-2.0,77.0,-119.0,1020.0
20.0,-31.0,235.0,28.0,59.0,-3.0,73.0,-115.0,1008.0
21.0,-30.0,235.0,27.0,59.0,-1.0,76.0,-117.0,1014.0
21.0,-30.0,235.0,27.0,58.0,-4.0,76.0,-108.0,1009.0
22.0,-30.0,234.0,27.0,59.0,-3.0,72.0,-111.0,1010.0
20.0,-30.0,234.0,27.0,59.0,-4.0,76.0,-109.0,1020.0
21.0,-28.0,239.0,26.0,59.0,-3.0,73.0,-106.0,1022.0
23.0,-31.0,235.0,26.0,60.0,-4.0,72.0,-109.0,1022.0
18.0,-29.0,236.0,25.0,60.0,-3.0,75.0,-108.0,1015.0
20.0,-30.0,237.0,24.0,61.0,-4.0,71.0,-105.0,1014.0
22.0,-28.0,236.0,22.0,61.0,-3.0,74.0,-107.0,1016.0
22.0,-28.0,238.0,21.0,62.0,-4.0,75.0,-107.0,1017.0
20.0,-26.0,235.0,17.0,61.0,-2.0,81.0,-106.0,1017.0
20.0,-28.0,235.0,17.0,62.0,-4.0,73.0,-106.0,1019.0
22.0,-29.0,233.0,15.0,63.0,-1.0,73.0,-101.0,1023.0
21.0,-27.0,237.0,14.0,62.0,-4.0,73.0,-102.0,1023.0
21.0,-27.0,236.0,13.0,63.0,-4.0,72.0,-107.0,1016.0
25.0,-27.0,236.0,10.0,63.0,-5.0,76.0,-104.0,1016.0
21.0,-28.0,231.0,9.0,62.0,-3.0,70.0,-106.0,1017.0
22.0,-29.0,237.0,9.0,60.0,-4.0,72.0,-105.0,1021.0
20.0,-28.0,237.0,8.0,61.0,-2.0,73.0,-106.0,1021.0
20.0,-28.0,236.0,6.0,60.0,-6.0,77.0,-105.0,1021.0
21.0,-28.0,235.0,5.0,59.0,-5.0,73.0,-106.0,1013.0
18.0,-29.0,239.0,5.0,60.0,-6.0,71.0,-105.0,1016.0
23.0,-29.0,237.0,6.0,60.0,-5.0,74.0,-108.0,1016.0
20.0,-31.0,237.0,6.0,58.0,-6.0,72.0,-106.0,1017.0
22.0,-30.0,234.0,6.0,59.0,-3.0,74.0,-110.0,1016.0
22.0,-29.0,237.0,7.0,60.0,-5.0,68.0,-106.0,1013.0
23.0,-27.0,240.0,8.0,61.0,-3.0,76.0,-111.0,1022.0
21.0,-30.0,237.0,7.0,61.0,-5.0,70.0,-107.0,1012.0
22.0,-28.0,241.0,8.0,61.0,-3.0,74.0,-108.0,1015.0
20.0,-25.0,234.0,7.0,61.0,-7.0,74.0,-105.0,1021.0
21.0,-28.0,238.0,7.0,60.0,-4.0,70.0,-107.0,1012.0
19.0,-30.0,239.0,4.0,62.0,-4.0,73.0,-110.0,1013.0
19.0,-29.0,238.0,4.0,61.0,-2.0,70.0,-107.0,1009.0
20.0,-31.0,237.0,4.0,59.0,-5.0,69.0,-102.0,1017.0
19.0,-30.0,234.0,3.0,59.0,-2.0,69.0,-107.0,1020.0
20.0,-30.0,235.0,2.0,60.0,-6.0,74.0,-111.0,1015.0
20.0,-31.0,236.0,2.0,59.0,-2.0,69.0,-108.0,1014.0
22.0,-32.0,239.0,1.0,62.0,-4.0,74.0,-111.0,1013.0
20.0,-27.0,235.0,1.0,63.0,-3.0,74.0,-109.0,1017.0
21.0,-29.0,236.0,1.0,61.0,-5.0,73.0,-107.0,1021.0
20.0,-30.0,233.0,-1.0,62.0,-3.0,76.0,-106.0,1022.0
23.0,-31.0,239.0,1.0,62.0,-6.0,75.0,-109.0,1023.0
19.0,-32.0,236.0,0.0,64.0,-5.0,70.0,-112.0,1010.0
20.0,-31.0,234.0,1.0,63.0,-6.0,75.0,-108.0,1018.0
21.0,-31.0,238.0,0.0,62.0,-3.0,73.0,-111.0,1019.0
22.0,-31.0,238.0,0.0,62.0,-6.0,73.0,-109.0,1012.0
21.0,-29.0,239.0,2.0,61.0,-4.0,78.0,-105.0,1016.0
20.0,-28.0,237.0,1.0,62.0,-6.0,75.0,-107.0,1013.0
21.0,-28.0,234.0,2.0,61.0,-3.0,75.0,-107.0,1019.0
19.0,-28.0,235.0,0.0,60.0,-4.0,75.0,-106.0,1014.0
22.0,-29.0,235.0,1.0,59.0,-3.0,80.0,-105.0,1012.0
22.0,-28.0,237.0,2.0,59.0,-4.0,71.0,-105.0,1011.0
23.0,-27.0,233.0,3.0,59.0,-3.0,75.0,-105.0,1025.0
21.0,-28.0,238.0,4.0,59.0,-4.0,70.0,-103.0,1012.0
23.0,-29.0,238.0,5.0,59.0,-4.0,76.0,-105.0,1016.0
22.0,-26.0,238.0,6.0,59.0,-4.0,70.0,-100.0,1017.0
22.0,-26.0,238.0,7.0,59.0,-2.0,73.0,-103.0,1020.0
21.0,-29.0,236.0,7.0,59.0,-4.0,78.0,-100.0,1012.0
20.0,-28.0,240.0,6.0,58.0,-3.0,64.0,-105.0,1013.0
25.0,-29.0,239.0,6.0,57.0,-6.0,65.0,-105.0,1013.0
20.0,-28.0,239.0,3.0,59.0,-4.0,75.0,-109.0,1022.0
19.0,-29.0,238.0,1.0,59.0,-5.0,71.0,-107.0,1022.0
21.0,-30.0,241.0,2.0,60.0,-4.0,72.0,-111.0,1025.0
20.0,-32.0,237.0,7.0,60.0,-4.0,72.0,-116.0,1012.0
22.0,-33.0,239.0,13.0,61.0,-2.0,76.0,-113.0,1010.0
22.0,-28.0,237.0,17.0,63.0,-2.0,75.0,-112.0,1016.0
23.0,-31.0,236.0,19.0,64.0,-2.0,79.0,-106.0,1011.0
17.0,-28.0,232.0,21.0,64.0,-2.0,77.0,-105.0,1012.0
21.0,-29.0,236.0,24.0,65.0,-1.0,74.0,-107.0,1010.0
21.0,-29.0,236.0,28.0,63.0,1.0,74.0,-109.0,1012.0
22.0,-30.0,232.0,31.0,65.0,0.0,77.0,-105.0,1011.0
21.0,-29.0,236.0,32.0,64.0,2.0,75.0,-103.0,1006.0
21.0,-29.0,236.0,33.0,62.0,0.0,74.0,-106.0,1009.0
21.0,-26.0,232.0,34.0,62.0,1.0,76.0,-100.0,1011.0
24.0,-25.0,234.0,35.0,60.0,1.0,76.0,-99.0,1010.0
21.0,-25.0,234.0,33.0,62.0,1.0,75.0,-97.0,1010.0
20.0,-26.0,235.0,33.0,62.0,0.0,74.0,-93.0,1009.0
21.0,-24.0,237.0,32.0,61.0,0.0,71.0,-94.0,1010.0
21.0,-25.0,232.0,31.0,61.0,-1.0,76.0,-93.0,1014.0
19.0,-27.0,236.0,27.0,62.0,0.0,72.0,-91.0,1013.0
21.0,-24.0,241.0,25.0,64.0,-2.0,74.0,-94.0,1016.0
20.0,-25.0,236.0,20.0,63.0,-1.0,73.0,-97.0,1019.0
21.0,-22.0,238.0,19.0,63.0,-2.0,74.0,-95.0,1019.0
19.0,-24.0,236.0,16.0,63.0,-1.0,72.0,-97.0,1023.0
21.0,-27.0,237.0,12.0,64.0,-3.0,73.0,-93.0,1021.0
20.0,-25.0,237.0,8.0,62.0,-3.0,67.0,-95.0,1017.0
22.0,-21.0,238.0,7.0,60.0,-5.0,72.0,-92.0,1023.0
19.0,-24.0,237.0,4.0,59.0,-4.0,71.0,-95.0,1020.0
20.0,-26.0,238.0,3.0,59.0,-5.0,64.0,-92.0,1018.0
19.0,-24.0,237.0,1.0,58.0,-3.0,69.0,-94.0,1019.0
18.0,-26.0,236.0,0.0,60.0,-6.0,71.0,-94.0,1014.0
20.0,-25.0,235.0,-1.0,60.0,-4.0,70.0,-95.0,1022.0
20.0,-25.0,236.0,-3.0,59.0,-6.0,72.0,-97.0,1023.0
20.0,-28.0,239.0,-3.0,59.0,-3.0,71.0,-91.0,1021.0
21.0,-26.0,239.0,-4.0,57.0,-5.0,69.0,-99.0,1018.0
21.0,-28.0,236.0,-5.0,57.0,-4.0,70.0,-101.0,1021.0
19.0,-27.0,238.0,-6.0,58.0,-4.0,68.0,-102.0,1022.0
22.0,-27.0,237.0,-7.0,58.0,-4.0,74.0,-99.0,1019.0
19.0,-26.0,238.0,-8.0,56.0,-5.0,73.0,-99.0,1011.0
21.0,-24.0,236.0,-9.0,57.0,-3.0,70.0,-101.0,1017.0
21.0,-30.0,237.0,-12.0,58.0,-4.0,67.0,-103.0,1017.0
22.0,-28.0,236.0,-11.0,58.0,-1.0,68.0,-97.0,1017.0
22.0,-30.0,238.0,-10.0,58.0,-4.0,75.0,-100.0,1012.0
20.0,-27.0,235.0,-12.0,57.0,-1.0,73.0,-101.0,1012.0
21.0,-26.0,233.0,-13.0,56.0,-4.0,76.0,-100.0,1016.0
21.0,-25.0,237.0,-13.0,56.0,0.0,70.0,-98.0,1024.0
22.0,-27.0,239.0,-15.0,57.0,-2.0,69.0,-104.0,1021.0
20.0,-26.0,235.0,-15.0,57.0,-1.0,71.0,-95.0,1017.0
22.0,-23.0,232.0,-18.0,58.0,-3.0,75.0,-96.0,1014.0
20.0,-28.0,236.0,-18.0,58.0,-1.0,72.0,-98.0,1018.0
24.0,-26.0,239.0,-19.0,59.0,-3.0,74.0,-99.0,1022.0
21.0,-26.0,240.0,-22.0,61.0,-1.0,75.0,-95.0,1017.0
21.0,-27.0,237.0,-24.0,61.0,-3.0,72.0,-97.0,1015.0
23.0,-26.0,236.0,-25.0,62.0,-1.0,79.0,-100.0,1019.0
23.0,-28.0,236.0,-27.0,63.0,-2.0,74.0,-99.0,1020.0
25.0,-27.0,235.0,-27.0,65.0,2.0,76.0,-101.0,1016.0
23.0,-29.0,238.0,-28.0,65.0,-2.0,75.0,-99.0,1020.0
21.0,-25.0,239.0,-28.0,65.0,1.0,75.0,-102.0,1021.0
22.0,-27.0,239.0,-27.0,65.0,-2.0,75.0,-102.0,1019.0
22.0,-30.0,236.0,-26.0,64.0,1.0,76.0,-103.0,1024.0
21.0,-28.0,236.0,-26.0,65.0,-1.0,71.0,-103.0,1018.0
22.0,-29.0,239.0,-25.0,66.0,0.0,72.0,-99.0,1015.0
21.0,-26.0,239.0,-24.0,65.0,0.0,74.0,-103.0,1024.0
20.0,-29.0,234.0,-24.0,63.0,2.0,73.0,-99.0,1015.0
23.0,-27.0,233.0,-22.0,63.0,-2.0,74.0,-103.0,1021.0
22.0,-31.0,234.0,-22.0,64.0,2.0,75.0,-101.0,1013.0
21.0,-27.0,234.0,-22.0,63.0,-1.0,70.0,-103.0,1017.0
22.0,-28.0,241.0,-21.0,62.0,0.0,70.0,-100.0,1020.0
21.0,-26.0,234.0,-22.0,62.0,-2.0,77.0,-99.0,1011.0
20.0,-25.0,239.0,-22.0,61.0,0.0,70.0,-99.0,1018.0
21.0,-26.0,237.0,-22.0,59.0,-2.0,73.0,-102.0,1011.0
19.0,-27.0,236.0,-23.0,59.0,-2.0,74.0,-98.0,1018.0
20.0,-27.0,239.0,-24.0,58.0,-2.0,75.0,-97.0,1021.0
24.0,-25.0,235.0,-25.0,57.0,-1.0,72.0,-103.0,1020.0
20.0,-26.0,233.0,-25.0,56.0,-3.0,71.0,-98.0,1013.0
24.0,-25.0,235.0,-25.0,56.0,-3.0,75.0,-97.0,1018.0
20.0,-27.0,236.0,-27.0,57.0,-4.0,74.0,-94.0,1015.0
21.0,-29.0,237.0,-28.0,57.0,-2.0,71.0,-95.0,1017.0
19.0,-23.0,238.0,-30.0,55.0,-4.0,72.0,-100.0,1019.0
21.0,-26.0,235.0,-29.0,55.0,-2.0,68.0,-99.0,1020.0
21.0,-28.0,237.0,-30.0,55.0,-4.0,73.0,-99.0,1015.0
18.0,-26.0,241.0,-31.0,54.0,-3.0,65.0,-103.0,1017.0
22.0,-27.0,233.0,-31.0,54.0,-3.0,73.0,-100.0,1017.0
20.0,-26.0,236.0,-31.0,54.0,-3.0,75.0,-102.0,1016.0
20.0,-29.0,233.0,-31.0,56.0,-3.0,70.0,-104.0,1013.0
20.0,-29.0,235.0,-31.0,55.0,-2.0,72.0,-101.0,1012.0
22.0,-31.0,239.0,-29.0,56.0,-3.0,72.0,-102.0,1018.0
19.0,-26.0,235.0,-29.0,58.0,-2.0,73.0,-102.0,1011.0
20.0,-29.0,236.0,-27.0,58.0,-2.0,74.0,-103.0,1017.0
18.0,-26.0,236.0,-28.0,59.0,-3.0,73.0,-100.0,1017.0
20.0,-27.0,239.0,-29.0,60.0,-1.0,74.0,-102.0,1015.0
21.0,-27.0,235.0,-28.0,61.0,-3.0,70.0,-101.0,1015.0
21.0,-30.0,239.0,-29.0,61.0,-2.0,77.0,-99.0,1015.0
20.0,-28.0,238.0,-28.0,62.0,-1.0,73.0,-101.0,1016.0
22.0,-25.0,233.0,-28.0,61.0,-2.0,75.0,-102.0,1018.0
20.0,-26.0,234.0,-29.0,63.0,0.0,73.0,-102.0,1014.0
21.0,-29.0,239.0,-29.0,62.0,0.0,74.0,-100.0,1013.0
21.0,-26.0,234.0,-30.0,62.0,-1.0,72.0,-99.0,1018.0
21.0,-28.0,235.0,-31.0,62.0,0.0,69.0,-99.0,1011.0
20.0,-28.0,234.0,-32.0,63.0,-2.0,71.0,-99.0,1011.0
19.0,-26.0,241.0,-33.0,63.0,1.0,73.0,-96.0,1020.0
20.0,-27.0,233.0,-35.0,62.0,-1.0,71.0,-102.0,1013.0
20.0,-25.0,235.0,-35.0,63.0,0.0,77.0,-102.0,1021.0
22.0,-25.0,236.0,-37.0,62.0,0.0,78.0,-103.0,1015.0
25.0,-27.0,236.0,-37.0,63.0,3.0,74.0,-103.0,1019.0
21.0,-28.0,234.0,-37.0,62.0,0.0,71.0,-101.0,1015.0
23.0,-30.0,235.0,-39.0,61.0,1.0,70.0,-106.0,1017.0
21.0,-27.0,239.0,-38.0,62.0,0.0,73.0,-102.0,1010.0
23.0,-29.0,234.0,-38.0,61.0,0.0,79.0,-109.0,1013.0
19.0,-31.0,237.0,-37.0,60.0,-2.0,77.0,-105.0,1012.0
23.0,-30.0,238.0,-36.0,59.0,1.0,70.0,-105.0,1011.0
21.0,-31.0,238.0,-35.0,59.0,-1.0,71.0,-108.0,1015.0
22.0,-30.0,235.0,-34.0,59.0,0.0,72.0,-110.0,1017.0
20.0,-30.0,234.0,-33.0,59.0,-1.0,73.0,-106.0,1016.0
21.0,-31.0,241.0,-32.0,58.0,-1.0,73.0,-111.0,1012.0
23.0,-28.0,237.0,-32.0,60.0,-3.0,74.0,-104.0,1019.0
21.0,-30.0,237.0,-32.0,59.0,-1.0,71.0,-110.0,1011.0
19.0,-29.0,238.0,-31.0,58.0,-3.0,75.0,-106.0,1017.0
19.0,-30.0,237.0,-32.0,59.0,-2.0,72.0,-109.0,1016.0
22.0,-30.0,235.0,-31.0,58.0,-4.0,76.0,-106.0,1015.0
21.0,-29.0,238.0,-31.0,57.0,-1.0,77.0,-112.0,1016.0
19.0,-27.0,239.0,-30.0,59.0,-4.0,72.0,-108.0,1019.0
18.0,-28.0,237.0,-29.0,59.0,-3.0,70.0,-107.0,1014.0
24.0,-29.0,237.0,-29.0,60.0,-4.0,75.0,-105.0,1018.0
21.0,-30.0,239.0,-28.0,59.0,-2.0,71.0,-105.0,1018.0
19.0,-26.0,237.0,-28.0,60.0,-4.0,73.0,-103.0,1016.0
20.0,-29.0,236.0,-28.0,59.0,-1.0,73.0,-105.0,1023.0
20.0,-28.0,238.0,-28.0,58.0,-4.0,67.0,-103.0,1019.0
21.0,-31.0,237.0,-27.0,58.0,0.0,66.0,-101.0,1017.0
17.0,-27.0,238.0,-26.0,57.0,-3.0,75.0,-107.0,1018.0
18.0,-26.0,237.0,-28.0,57.0,-1.0,63.0,-99.0,1019.0
21.0,-26.0,236.0,-26.0,56.0,-2.0,67.0,-103.0,1018.0
19.0,-24.0,236.0,-23.0,57.0,0.0,64.0,-104.0,1014.0
20.0,-25.0,236.0,-25.0,58.0,-3.0,66.0,-105.0,1016.0
20.0,-29.0,238.0,-26.0,57.0,0.0,65.0,-102.0,1015.0
19.0,-31.0,238.0,-29.0,58.0,-2.0,66.0,-101.0,1020.0
20.0,-32.0,241.0,-32.0,58.0,-2.0,70.0,-110.0,1015.0
21.0,-32.0,239.0,-34.0,59.0,-3.0,69.0,-113.0,1025.0
19.0,-33.0,236.0,-34.0,61.0,-2.0,69.0,-115.0,1022.0
20.0,-33.0,237.0,-29.0,63.0,-3.0,68.0,-126.0,1018.0
20.0,-32.0,235.0,-18.0,66.0,0.0,77.0,-115.0,1011.0
21.0,-31.0,237.0,-12.0,65.0,-2.0,74.0,-113.0,1008.0
22.0,-28.0,235.0,-8.0,65.0,1.0,74.0,-114.0,1013.0
23.0,-35.0,232.0,-4.0,64.0,-1.0,71.0,-116.0,1009.0
23.0,-32.0,233.0,0.0,63.0,2.0,70.0,-111.0,1010.0
21.0,-33.0,239.0,5.0,62.0,-1.0,73.0,-114.0,1009.0
23.0,-30.0,236.0,10.0,61.0,1.0,77.0,-113.0,1008.0
23.0,-31.0,233.0,13.0,61.0,-1.0,76.0,-111.0,1005.0
21.0,-27.0,235.0,15.0,59.0,-2.0,76.0,-102.0,1006.0
22.0,-30.0,234.0,17.0,60.0,-3.0,78.0,-108.0,1006.0
22.0,-27.0,236.0,17.0,58.0,-2.0,74.0,-108.0,1006.0
23.0,-28.0,233.0,14.0,60.0,-4.0,75.0,-98.0,1006.0
24.0,-27.0,233.0,14.0,59.0,-1.0,74.0,-105.0,1010.0
20.0,-26.0,238.0,11.0,59.0,-4.0,75.0,-103.0,1011.0
21.0,-29.0,239.0,7.0,59.0,-3.0,76.0,-97.0,1012.0
22.0,-27.0,239.0,4.0,59.0,-5.0,75.0,-100.0,1021.0
23.0,-26.0,237.0,3.0,57.0,-4.0,72.0,-102.0,1019.0
21.0,-30.0,238.0,1.0,57.0,-6.0,78.0,-101.0,1019.0
20.0,-29.0,237.0,-1.0,57.0,-3.0,75.0,-103.0,1020.0
19.0,-27.0,239.0,-2.0,57.0,-4.0,76.0,-101.0,1017.0
20.0,-27.0,238.0,-2.0,57.0,-6.0,70.0,-102.0,1016.0
20.0,-28.0,235.0,-2.0,57.0,-5.0,76.0,-102.0,1011.0
22.0,-25.0,239.0,-1.0,56.0,-4.0,70.0,-104.0,1019.0
22.0,-28.0,238.0,0.0,55.0,-6.0,72.0,-102.0,1018.0
23.0,-28.0,235.0,0.0,56.0,-5.0,76.0,-106.0,1015.0
23.0,-30.0,234.0,1.0,57.0,-6.0,79.0,-102.0,1009.0
22.0,-27.0,236.0,0.0,55.0,-5.0,74.0,-106.0,1014.0
22.0,-29.0,237.0,1.0,56.0,-4.0,73.0,-107.0,1010.0
21.0,-28.0,239.0,1.0,58.0,-6.0,76.0,-100.0,1011.0
22.0,-28.0,235.0,-1.0,58.0,-5.0,76.0,-105.0,1017.0
22.0,-29.0,238.0,-1.0,61.0,-5.0,78.0,-101.0,1015.0
21.0,-28.0,236.0,-1.0,61.0,-5.0,74.0,-108.0,1019.0
23.0,-29.0,237.0,-2.0,62.0,-6.0,69.0,-105.0,1014.0
23.0,-27.0,234.0,-2.0,61.0,-4.0,77.0,-103.0,1013.0
22.0,-29.0,233.0,-2.0,62.0,-5.0,75.0,-105.0,1018.0
20.0,-30.0,238.0,0.0,62.0,-4.0,74.0,-106.0,1017.0
20.0,-26.0,235.0,0.0,63.0,-5.0,74.0,-104.0,1014.0
22.0,-30.0,235.0,0.0,62.0,-3.0,71.0,-107.0,1014.0
21.0,-27.0,234.0,2.0,64.0,-5.0,75.0,-107.0,1010.0
21.0,-27.0,237.0,3.0,65.0,-5.0,75.0,-109.0,1010.0
21.0,-29.0,234.0,2.0,64.0,-6.0,74.0,-102.0,1015.0
21.0,-28.0,235.0,6.0,64.0,-5.0,71.0,-103.0,1012.0
21.0,-28.0,236.0,6.0,63.0,-7.0,72.0,-102.0,1018.0
20.0,-24.0,235.0,7.0,63.0,-4.0,76.0,-103.0,1014.0
19.0,-29.0,235.0,9.0,63.0,-7.0,70.0,-105.0,1019.0
22.0,-27.0,233.0,9.0,64.0,-5.0,70.0,-102.0,1012.0
23.0,-28.0,239.0,8.0,64.0,-6.0,76.0,-104.0,1017.0
20.0,-27.0,235.0,8.0,63.0,-3.0,71.0,-101.0,1015.0
19.0,-26.0,239.0,7.0,63.0,-6.0,70.0,-103.0,1015.0
22.0,-28.0,238.0,5.0,61.0,-3.0,74.0,-105.0,1022.0
22.0,-26.0,235.0,4.0,62.0,-5.0,73.0,-106.0,1021.0
21.0,-30.0,238.0,3.0,61.0,-4.0,76.0,-107.0,1017.0
19.0,-30.0,236.0,2.0,60.0,-3.0,74.0,-103.0,1021.0
20.0,-29.0,238.0,3.0,61.0,-2.0,73.0,-109.0,1017.0
20.0,-28.0,240.0,3.0,62.0,-4.0,72.0,-106.0,1017.0
21.0,-28.0,239.0,3.0,61.0,-2.0,70.0,-108.0,1011.0
19.0,-28.0,235.0,4.0,60.0,-3.0,70.0,-110.0,1021.0
18.0,-27.0,235.0,3.0,60.0,-1.0,64.0,-104.0,1012.0
20.0,-32.0,238.0,5.0,59.0,-3.0,72.0,-105.0,1017.0
19.0,-31.0,238.0,7.0,59.0,0.0,71.0,-106.0,1021.0
22.0,-29.0,241.0,7.0,59.0,-3.0,70.0,-104.0,1014.0
20.0,-32.0,235.0,8.0,59.0,-1.0,66.0,-103.0,1021.0
20.0,-28.0,238.0,8.0,58.0,-2.0,73.0,-99.0,1010.0
23.0,-30.0,235.0,9.0,59.0,0.0,72.0,-101.0,1016.0
21.0,-24.0,234.0,10.0,59.0,-4.0,73.0,-102.0,1014.0
17.0,-25.0,237.0,9.0,59.0,-2.0,73.0,-102.0,1017.0
17.0,-27.0,238.0,9.0,60.0,-5.0,69.0,-100.0,1014.0
21.0,-28.0,235.0,10.0,59.0,-1.0,74.0,-99.0,1014.0
21.0,-29.0,237.0,9.0,60.0,-4.0,73.0,-100.0,1016.0
21.0,-21.0,239.0,8.0,58.0,-2.0,71.0,-99.0,1022.0
22.0,-26.0,235.0,10.0,59.0,-4.0,67.0,-101.0,1019.0
20.0,-27.0,239.0,9.0,58.0,-2.0,76.0,-101.0,1012.0
20.0,-29.0,237.0,9.0,58.0,-3.0,73.0,-99.0,1020.0
18.0,-25.0,236.0,7.0,58.0,-2.0,70.0,-93.0,1019.0
22.0,-27.0,236.0,7.0,59.0,-5.0,70.0,-94.0,1013.0
21.0,-24.0,239.0,7.0,58.0,-1.0,70.0,-102.0,1020.0
18.0,-24.0,238.0,5.0,56.0,-5.0,72.0,-97.0,1020.0
19.0,-26.0,236.0,5.0,59.0,-2.0,73.0,-98.0,1021.0
20.0,-28.0,232.0,5.0,58.0,-4.0,64.0,-96.0,1017.0
20.0,-25.0,235.0,3.0,58.0,-3.0,73.0,-98.0,1014.0
20.0,-24.0,237.0,2.0,58.0,-5.0,70.0,-97.0,1015.0
20.0,-26.0,236.0,2.0,58.0,-2.0,75.0,-92.0,1020.0
21.0,-27.0,235.0,0.0,58.0,-5.0,75.0,-99.0,1017.0
22.0,-25.0,242.0,1.0,60.0,-2.0,73.0,-99.0,1016.0
22.0,-25.0,234.0,1.0,58.0,-5.0,73.0,-94.0,1024.0
22.0,-27.0,238.0,-1.0,59.0,-2.0,70.0,-96.0,1019.0
20.0,-24.0,241.0,-2.0,58.0,-4.0,74.0,-99.0,1022.0
22.0,-27.0,236.0,-2.0,59.0,-3.0,76.0,-97.0,1018.0
19.0,-27.0,239.0,-1.0,60.0,-3.0,78.0,-98.0,1015.0
24.0,-28.0,235.0,-1.0,59.0,-4.0,74.0,-96.0,1015.0
21.0,-24.0,236.0,-2.0,59.0,-4.0,71.0,-96.0,1023.0
20.0,-24.0,237.0,-2.0,60.0,-2.0,71.0,-98.0,1015.0
19.0,-25.0,235.0,-2.0,60.0,-5.0,72.0,-99.0,1013.0
21.0,-27.0,238.0,-3.0,60.0,-3.0,71.0,-96.0,1019.0
21.0,-30.0,240.0,-3.0,59.0,-5.0,74.0,-99.0,1013.0
23.0,-27.0,234.0,-2.0,60.0,-4.0,76.0,-95.0,1020.0
24.0,-29.0,236.0,-1.0,59.0,-4.0,75.0,-99.0,1016.0
20.0,-26.0,236.0,-1.0,60.0,-3.0,76.0,-102.0,1021.0
20.0,-28.0,241.0,0.0,60.0,-4.0,76.0,-100.0,1017.0
20.0,-28.0,235.0,-1.0,61.0,-2.0,74.0,-97.0,1014.0
22.0,-27.0,235.0,0.0,60.0,-3.0,74.0,-97.0,1017.0
20.0,-24.0,238.0,0.0,60.0,-2.0,75.0,-100.0,1016.0
20.0,-26.0,236.0,2.0,61.0,-3.0,76.0,-102.0,1017.0
21.0,-27.0,234.0,-1.0,61.0,-2.0,75.0,-97.0,1017.0
22.0,-24.0,239.0,-1.0,60.0,-2.0,68.0,-99.0,1012.0
20.0,-25.0,234.0,0.0,59.0,-2.0,77.0,-102.0,1018.0
23.0,-28.0,240.0,0.0,59.0,-2.0,73.0,-100.0,1021.0
21.0,-25.0,237.0,1.0,58.0,-2.0,69.0,-100.0,1011.0
21.0,-26.0,235.0,0.0,57.0,-2.0,72.0,-100.0,1015.0
20.0,-26.0,238.0,1.0,58.0,-3.0,75.0,-103.0,1020.0
20.0,-25.0,234.0,0.0,58.0,-3.0,68.0,-99.0,1016.0
22.0,-26.0,237.0,2.0,58.0,-3.0,70.0,-98.0,1019.0
18.0,-28.0,237.0,2.0,60.0,-2.0,76.0,-98.0,1022.0
20.0,-23.0,235.0,1.0,61.0,-2.0,76.0,-96.0,1018.0
22.0,-27.0,237.0,1.0,60.0,-3.0,71.0,-99.0,1019.0
19.0,-26.0,235.0,1.0,58.0,-4.0,79.0,-98.0,1016.0
22.0,-28.0,237.0,1.0,60.0,-2.0,71.0,-99.0,1017.0
20.0,-26.0,238.0,0.0,59.0,-5.0,71.0,-98.0,1021.0
20.0,-27.0,237.0,0.0,59.0,-2.0,74.0,-99.0,1014.0
22.0,-27.0,236.0,-1.0,59.0,-4.0,77.0,-96.0,1015.0
20.0,-25.0,236.0,0.0,60.0,-2.0,71.0,-98.0,1022.0
22.0,-26.0,237.0,0.0,61.0,-4.0,74.0,-99.0,1019.0
24.0,-28.0,235.0,0.0,61.0,-3.0,72.0,-93.0,1020.0
19.0,-23.0,236.0,0.0,61.0,-4.0,75.0,-92.0,1025.0
22.0,-26.0,239.0,0.0,60.0,-3.0,75.0,-94.0,1017.0
22.0,-24.0,241.0,-1.0,60.0,-4.0,77.0,-95.0,1015.0
20.0,-25.0,237.0,-1.0,61.0,-3.0,75.0,-92.0,1016.0
17.0,-25.0,239.0,1.0,61.0,-3.0,70.0,-92.0,1021.0
22.0,-27.0,241.0,0.0,58.0,-2.0,74.0,-92.0,1017.0
23.0,-25.0,234.0,0.0,59.0,-5.0,74.0,-92.0,1015.0
21.0,-24.0,238.0,-1.0,61.0,-4.0,75.0,-91.0,1022.0
19.0,-26.0,240.0,-4.0,59.0,-6.0,68.0,-94.0,1014.0
22.0,-27.0,238.0,-7.0,58.0,-3.0,67.0,-96.0,1025.0
24.0,-29.0,241.0,-8.0,59.0,-6.0,70.0,-99.0,1028.0
19.0,-29.0,240.0,-6.0,61.0,-4.0,74.0,-104.0,1027.0
20.0,-30.0,239.0,-3.0,61.0,-5.0,70.0,-104.0,1026.0
21.0,-28.0,238.0,3.0,63.0,-2.0,77.0,-104.0,1017.0
20.0,-26.0,240.0,6.0,64.0,-2.0,71.0,-102.0,1012.0
19.0,-28.0,238.0,9.0,65.0,1.0,71.0,-101.0,1018.0
20.0,-27.0,241.0,11.0,63.0,-1.0,71.0,-103.0,1020.0
21.0,-30.0,236.0,14.0,61.0,2.0,76.0,-104.0,1013.0
23.0,-29.0,239.0,15.0,61.0,0.0,75.0,-96.0,1016.0
19.0,-25.0,236.0,18.0,61.0,3.0,74.0,-103.0,1015.0
21.0,-23.0,233.0,21.0,60.0,1.0,77.0,-94.0,1009.0
20.0,-22.0,236.0,21.0,57.0,2.0,73.0,-90.0,1011.0
21.0,-24.0,237.0,22.0,57.0,-2.0,75.0,-88.0,1010.0
22.0,-25.0,234.0,23.0,56.0,1.0,72.0,-89.0,1008.0
21.0,-23.0,236.0,23.0,56.0,-1.0,67.0,-85.0,1007.0
21.0,-24.0,233.0,24.0,57.0,3.0,75.0,-91.0,1008.0
23.0,-23.0,236.0,23.0,57.0,-1.0,78.0,-90.0,1009.0
21.0,-24.0,237.0,21.0,56.0,1.0,70.0,-83.0,1016.0
19.0,-23.0,235.0,17.0,56.0,-2.0,74.0,-90.0,1015.0
23.0,-27.0,237.0,15.0,57.0,1.0,75.0,-87.0,1023.0
22.0,-23.0,239.0,12.0,58.0,-1.0,73.0,-88.0,1016.0
19.0,-24.0,235.0,10.0,59.0,1.0,71.0,-83.0,1023.0
21.0,-24.0,239.0,8.0,60.0,-3.0,70.0,-80.0,1018.0
22.0,-25.0,235.0,6.0,61.0,-1.0,74.0,-89.0,1019.0
22.0,-22.0,238.0,5.0,61.0,-3.0,74.0,-84.0,1019.0
21.0,-22.0,238.0,1.0,59.0,-1.0,70.0,-91.0,1021.0
19.0,-24.0,235.0,0.0,61.0,-3.0,72.0,-91.0,1021.0
22.0,-24.0,235.0,-2.0,60.0,-1.0,71.0,-88.0,1021.0
22.0,-24.0,237.0,-4.0,59.0,-3.0,71.0,-90.0,1012.0
20.0,-23.0,237.0,-7.0,59.0,0.0,72.0,-85.0,1015.0
20.0,-26.0,236.0,-10.0,58.0,-3.0,79.0,-93.0,1017.0
21.0,-27.0,237.0,-10.0,59.0,-1.0,73.0,-91.0,1015.0
21.0,-25.0,233.0,-11.0,59.0,-2.0,73.0,-92.0,1019.0
21.0,-26.0,237.0,-11.0,59.0,0.0,71.0,-94.0,1023.0
23.0,-24.0,237.0,-12.0,59.0,-2.0,71.0,-91.0,1016.0
20.0,-24.0,238.0,-12.0,59.0,-1.0,73.0,-91.0,1024.0
20.0,-25.0,236.0,-12.0,59.0,-2.0,76.0,-97.0,1018.0
22.0,-27.0,237.0,-14.0,59.0,1.0,75.0,-91.0,1021.0
22.0,-26.0,236.0,-15.0,59.0,-1.0,75.0,-94.0,1022.0
20.0,-26.0,237.0,-16.0,59.0,2.0,74.0,-95.0,1023.0
22.0,-24.0,236.0,-15.0,58.0,0.0,72.0,-95.0,1025.0
19.0,-23.0,233.0,-18.0,58.0,1.0,74.0,-93.0,1024.0
21.0,-23.0,240.0,-19.0,60.0,-1.0,73.0,-91.0,1017.0
22.0,-27.0,239.0,-20.0,59.0,0.0,76.0,-88.0,1020.0
19.0,-23.0,238.0,-22.0,59.0,-1.0,70.0,-90.0,1019.0
24.0,-25.0,237.0,-23.0,60.0,-2.0,78.0,-89.0,1024.0
20.0,-24.0,238.0,-25.0,61.0,-2.0,76.0,-92.0,1019.0
22.0,-23.0,236.0,-28.0,62.0,-1.0,70.0,-91.0,1022.0
21.0,-21.0,237.0,-28.0,60.0,-2.0,74.0,-92.0,1019.0
21.0,-25.0,240.0,-30.0,60.0,-2.0,72.0,-87.0,1021.0
21.0,-25.0,235.0,-31.0,60.0,-3.0,67.0,-89.0,1021.0
20.0,-23.0,239.0,-32.0,60.0,-3.0,70.0,-90.0,1015.0
20.0,-25.0,239.0,-32.0,61.0,-2.0,73.0,-88.0,1024.0
20.0,-23.0,239.0,-33.0,61.0,-2.0,72.0,-90.0,1018.0
22.0,-25.0,236.0,-33.0,60.0,-2.0,69.0,-91.0,1022.0
19.0,-26.0,237.0,-35.0,60.0,-3.0,69.0,-94.0,1016.0
19.0,-25.0,236.0,-33.0,60.0,-3.0,69.0,-96.0,1017.0
22.0,-27.0,236.0,-34.0,61.0,-3.0,73.0,-98.0,1022.0
20.0,-26.0,234.0,-33.0,61.0,-3.0,68.0,-96.0,1019.0
18.0,-24.0,240.0,-33.0,61.0,-4.0,73.0,-97.0,1022.0
19.0,-26.0,239.0,-32.0,61.0,-3.0,72.0,-94.0,1011.0
21.0,-26.0,237.0,-32.0,61.0,-4.0,72.0,-95.0,1015.0
22.0,-26.0,234.0,-30.0,61.0,-3.0,69.0,-100.0,1019.0
22.0,-28.0,238.0,-28.0,60.0,-3.0,73.0,-98.0,1018.0
21.0,-26.0,237.0,-28.0,62.0,-3.0,73.0,-99.0,1021.0
18.0,-25.0,239.0,-27.0,61.0,-3.0,78.0,-98.0,1016.0
19.0,-27.0,235.0,-28.0,60.0,-2.0,74.0,-97.0,1022.0
25.0,-26.0,239.0,-26.0,61.0,-2.0,74.0,-95.0,1017.0
21.0,-21.0,233.0,-27.0,61.0,-1.0,74.0,-93.0,1023.0
22.0,-28.0,237.0,-27.0,59.0,-1.0,76.0,-97.0,1018.0
24.0,-27.0,231.0,-27.0,59.0,0.0,74.0,-94.0,1021.0
20.0,-24.0,236.0,-28.0,60.0,-1.0,70.0,-91.0,1016.0
21.0,-24.0,236.0,-29.0,60.0,0.0,72.0,-84.0,1023.0
18.0,-24.0,237.0,-29.0,61.0,-2.0,75.0,-95.0,1016.0
22.0,-28.0,238.0,-30.0,61.0,0.0,77.0,-92.0,1015.0
20.0,-24.0,240.0,-30.0,61.0,-2.0,71.0,-94.0,1021.0
22.0,-29.0,233.0,-32.0,59.0,1.0,73.0,-98.0,1019.0
16.0,-38.0,232.0,-33.0,60.0,-1.0,73.0,-95.0,1014.0
17.0,-21.0,232.0,-35.0,59.0,1.0,71.0,-95.0,1015.0
25.0,-23.0,259.0,-35.0,59.0,-2.0,74.0,-95.0,1019.0
25.0,-20.0,236.0,-34.0,57.0,2.0,77.0,-88.0,1013.0
26.0,-26.0,228.0,-35.0,58.0,-1.0,78.0,-91.0,1018.0
21.0,-25.0,231.0,-34.0,59.0,2.0,73.0,-96.0,1012.0
22.0,-23.0,237.0,-34.0,59.0,0.0,75.0,-95.0,1016.0
21.0,-27.0,238.0,-35.0,57.0,3.0,72.0,-96.0,1012.0
25.0,-26.0,240.0,-33.0,58.0,2.0,74.0,-97.0,1019.0
22.0,-28.0,235.0,-33.0,59.0,3.0,76.0,-91.0,1012.0
20.0,-24.0,237.0,-31.0,58.0,0.0,75.0,-93.0,1017.0
20.0,-27.0,236.0,-31.0,59.0,3.0,73.0,-95.0,1014.0
22.0,-29.0,235.0,-31.0,59.0,-1.0,70.0,-93.0,1015.0
21.0,-26.0,237.0,-33.0,58.0,0.0,73.0,-91.0,1020.0
24.0,-24.0,234.0,-34.0,57.0,-3.0,70.0,-97.0,1014.0
20.0,-25.0,237.0,-35.0,57.0,0.0,64.0,-99.0,1022.0
22.0,-27.0,241.0,-36.0,59.0,-3.0,75.0,-100.0,1019.0
26.0,-28.0,242.0,-38.0,61.0,0.0,73.0,-97.0,1015.0
23.0,-30.0,235.0,-38.0,62.0,-4.0,74.0,-100.0,1016.0
22.0,-27.0,238.0,-40.0,63.0,-1.0,68.0,-100.0,1016.0
23.0,-29.0,235.0,-40.0,63.0,-2.0,74.0,-97.0,1019.0
20.0,-29.0,237.0,-39.0,63.0,-2.0,76.0,-99.0,1022.0
18.0,-24.0,237.0,-36.0,61.0,-4.0,67.0,-103.0,1021.0
21.0,-29.0,236.0,-37.0,62.0,0.0,75.0,-100.0,1016.0
20.0,-27.0,236.0,-35.0,61.0,0.0,71.0,-98.0,1014.0
22.0,-27.0,238.0,-33.0,61.0,2.0,73.0,-104.0,1018.0
20.0,-26.0,237.0,-34.0,62.0,1.0,74.0,-102.0,1012.0
22.0,-27.0,236.0,-34.0,60.0,3.0,72.0,-101.0,1018.0
20.0,-26.0,238.0,-36.0,60.0,0.0,67.0,-101.0,1018.0
21.0,-29.0,236.0,-35.0,59.0,2.0,70.0,-96.0,1017.0
23.0,-28.0,236.0,-36.0,59.0,1.0,70.0,-101.0,1020.0
22.0,-29.0,235.0,-36.0,57.0,2.0,73.0,-98.0,1021.0
18.0,-24.0,241.0,-38.0,59.0,0.0,72.0,-97.0,1015.0
19.0,-27.0,237.0,-38.0,58.0,2.0,73.0,-96.0,1019.0
20.0,-24.0,234.0,-39.0,58.0,0.0,71.0,-97.0,1019.0
20.0,-25.0,237.0,-40.0,59.0,1.0,72.0,-96.0,1020.0
23.0,-25.0,238.0,-41.0,58.0,0.0,73.0,-95.0,1018.0
19.0,-24.0,242.0,-42.0,58.0,2.0,77.0,-94.0,1017.0
22.0,-25.0,237.0,-44.0,60.0,0.0,76.0,-96.0,1015.0
21.0,-25.0,236.0,-45.0,58.0,2.0,74.0,-95.0,1019.0
19.0,-24.0,239.0,-45.0,58.0,0.0,79.0,-97.0,1017.0
21.0,-25.0,236.0,-46.0,60.0,1.0,72.0,-98.0,1019.0
20.0,-25.0,236.0,-47.0,60.0,1.0,71.0,-95.0,1011.0
18.0,-25.0,238.0,-48.0,59.0,1.0,71.0,-97.0,1013.0
20.0,-25.0,234.0,-47.0,60.0,1.0,75.0,-99.0,1014.0
21.0,-26.0,236.0,-46.0,60.0,2.0,70.0,-99.0,1015.0
23.0,-24.0,239.0,-45.0,62.0,1.0,74.0,-99.0,1014.0
22.0,-28.0,238.0,-46.0,62.0,2.0,76.0,-101.0,1010.0
21.0,-30.0,235.0,-47.0,62.0,1.0,74.0,-98.0,1013.0
20.0,-23.0,240.0,-47.0,62.0,2.0,75.0,-100.0,1013.0
20.0,-27.0,236.0,-47.0,64.0,1.0,77.0,-101.0,1021.0
24.0,-27.0,234.0,-46.0,64.0,2.0,75.0,-102.0,1013.0
21.0,-26.0,234.0,-47.0,64.0,1.0,76.0,-102.0,1009.0
23.0,-28.0,236.0,-48.0,63.0,2.0,76.0,-102.0,1017.0
23.0,-29.0,237.0,-48.0,64.0,2.0,74.0,-103.0,1015.0
24.0,-28.0,236.0,-50.0,64.0,2.0,78.0,-97.0,1022.0
21.0,-26.0,234.0,-50.0,65.0,3.0,76.0,-99.0,1019.0
21.0,-27.0,235.0,-50.0,67.0,3.0,77.0,-101.0,1017.0
22.0,-28.0,237.0,-51.0,66.0,6.0,76.0,-97.0,1015.0
21.0,-26.0,235.0,-51.0,68.0,6.0,75.0,-99.0,1022.0
21.0,-25.0,234.0,-51.0,68.0,6.0,75.0,-99.0,1018.0
21.0,-30.0,238.0,-52.0,66.0,6.0,72.0,-98.0,1019.0
22.0,-24.0,234.0,-52.0,67.0,6.0,75.0,-101.0,1019.0
25.0,-26.0,238.0,-53.0,66.0,4.0,74.0,-97.0,1016.0
21.0,-24.0,239.0,-53.0,66.0,6.0,67.0,-95.0,1016.0
21.0,-27.0,237.0,-51.0,67.0,4.0,74.0,-97.0,1015.0
18.0,-24.0,235.0,-53.0,67.0,6.0,72.0,-96.0,1016.0
21.0,-28.0,239.0,-56.0,67.0,2.0,74.0,-98.0,1019.0
24.0,-25.0,238.0,-60.0,68.0,3.0,67.0,-99.0,1013.0
22.0,-30.0,238.0,-66.0,69.0,1.0,73.0,-105.0,1021.0
21.0,-29.0,235.0,-71.0,70.0,1.0,67.0,-113.0,1025.0
19.0,-29.0,237.0,-76.0,71.0,1.0,73.0,-116.0,1024.0
22.0,-34.0,241.0,-76.0,72.0,1.0,71.0,-124.0,1025.0
21.0,-35.0,236.0,-70.0,72.0,0.0,72.0,-128.0,1017.0
22.0,-35.0,237.0,-62.0,76.0,2.0,77.0,-124.0,1021.0
22.0,-34.0,239.0,-57.0,77.0,3.0,76.0,-118.0,1012.0
23.0,-33.0,238.0,-54.0,77.0,8.0,78.0,-122.0,1016.0
19.0,-35.0,236.0,-49.0,76.0,7.0,69.0,-120.0,1008.0
21.0,-33.0,238.0,-44.0,76.0,12.0,79.0,-121.0,1015.0
23.0,-30.0,237.0,-40.0,75.0,12.0,77.0,-121.0,1009.0
20.0,-29.0,236.0,-36.0,74.0,13.0,76.0,-119.0,1012.0
22.0,-30.0,236.0,-34.0,73.0,13.0,77.0,-114.0,1009.0
19.0,-28.0,233.0,-31.0,72.0,16.0,78.0,-113.0,1004.0
24.0,-31.0,234.0,-31.0,70.0,14.0,80.0,-109.0,1010.0
21.0,-31.0,234.0,-34.0,70.0,18.0,76.0,-109.0,1009.0
21.0,-30.0,233.0,-34.0,68.0,15.0,79.0,-110.0,1008.0
22.0,-29.0,240.0,-36.0,65.0,17.0,80.0,-105.0,1010.0
23.0,-28.0,235.0,-39.0,67.0,14.0,75.0,-106.0,1012.0
21.0,-27.0,234.0,-43.0,64.0,16.0,73.0,-107.0,1016.0
19.0,-27.0,238.0,-46.0,63.0,14.0,71.0,-112.0,1021.0
22.0,-28.0,238.0,-52.0,61.0,15.0,71.0,-113.0,1018.0
18.0,-29.0,237.0,-54.0,59.0,12.0,68.0,-112.0,1023.0
21.0,-29.0,237.0,-55.0,59.0,14.0,72.0,-115.0,1024.0
20.0,-33.0,238.0,-57.0,57.0,10.0,63.0,-113.0,1020.0
17.0,-27.0,236.0,-56.0,56.0,11.0,65.0,-114.0,1021.0
17.0,-31.0,237.0,-57.0,55.0,6.0,61.0,-114.0,1015.0
16.0,-32.0,236.0,-55.0,56.0,7.0,58.0,-113.0,1014.0
18.0,-34.0,237.0,-52.0,56.0,2.0,59.0,-116.0,1016.0
16.0,-31.0,236.0,-50.0,55.0,2.0,58.0,-116.0,1015.0
17.0,-31.0,235.0,-50.0,56.0,-2.0,58.0,-114.0,1015.0
18.0,-31.0,239.0,-50.0,55.0,-1.0,57.0,-121.0,1015.0
15.0,-32.0,235.0,-48.0,54.0,-6.0,53.0,-118.0,1016.0
13.0,-32.0,238.0,-47.0,55.0,-7.0,50.0,-114.0,1017.0
16.0,-30.0,239.0,-45.0,55.0,-13.0,49.0,-118.0,1013.0
16.0,-30.0,236.0,-43.0,56.0,-13.0,52.0,-114.0,1015.0
14.0,-27.0,234.0,-39.0,56.0,-17.0,52.0,-109.0,1009.0
12.0,-29.0,235.0,-37.0,57.0,-18.0,51.0,-107.0,1011.0
18.0,-27.0,241.0,-38.0,59.0,-21.0,49.0,-103.0,1009.0
16.0,-29.0,237.0,-41.0,60.0,-20.0,49.0,-104.0,1010.0
17.0,-30.0,236.0,-43.0,61.0,-24.0,58.0,-106.0,1011.0
18.0,-30.0,232.0,-49.0,61.0,-22.0,55.0,-110.0,1007.0
15.0,-29.0,235.0,-57.0,60.0,-25.0,57.0,-112.0,1014.0
13.0,-30.0,237.0,-61.0,61.0,-24.0,54.0,-114.0,1016.0
13.0,-32.0,231.0,-67.0,61.0,-25.0,57.0,-114.0,1018.0
18.0,-33.0,238.0,-70.0,62.0,-22.0,57.0,-119.0,1021.0
18.0,-33.0,238.0,-69.0,59.0,-23.0,57.0,-120.0,1018.0
17.0,-32.0,236.0,-66.0,57.0,-20.0,58.0,-116.0,1013.0
15.0,-31.0,234.0,-60.0,56.0,-18.0,58.0,-120.0,1013.0
15.0,-31.0,236.0,-54.0,55.0,-16.0,58.0,-118.0,1011.0
18.0,-31.0,236.0,-49.0,53.0,-15.0,62.0,-120.0,1010.0
18.0,-30.0,233.0,-44.0,52.0,-12.0,63.0,-119.0,1014.0
16.0,-31.0,235.0,-42.0,51.0,-11.0,62.0,-117.0,1009.0
20.0,-32.0,239.0,-39.0,51.0,-10.0,70.0,-115.0,1006.0
18.0,-30.0,234.0,-42.0,51.0,-8.0,72.0,-119.0,1010.0
19.0,-31.0,237.0,-45.0,52.0,-4.0,75.0,-120.0,1011.0
22.0,-33.0,234.0,-48.0,53.0,-4.0,74.0,-119.0,1010.0
24.0,-32.0,236.0,-52.0,55.0,-4.0,78.0,-121.0,1015.0
23.0,-32.0,235.0,-55.0,56.0,-2.0,81.0,-126.0,1017.0
21.0,-34.0,238.0,-61.0,58.0,1.0,80.0,-114.0,1019.0
23.0,-30.0,236.0,-65.0,59.0,0.0,86.0,-121.0,1022.0
24.0,-34.0,236.0,-68.0,61.0,2.0,93.0,-126.0,1023.0
24.0,-34.0,236.0,-70.0,62.0,3.0,87.0,-125.0,1020.0
26.0,-34.0,238.0,-71.0,63.0,5.0,88.0,-127.0,1019.0
26.0,-31.0,240.0,-72.0,63.0,7.0,94.0,-123.0,1021.0
26.0,-34.0,236.0,-70.0,62.0,7.0,93.0,-129.0,1024.0
25.0,-34.0,241.0,-68.0,60.0,8.0,95.0,-122.0,1014.0
26.0,-31.0,235.0,-65.0,60.0,9.0,95.0,-128.0,1019.0
28.0,-32.0,236.0,-62.0,60.0,9.0,97.0,-125.0,1010.0
29.0,-34.0,237.0,-60.0,59.0,9.0,97.0,-123.0,1013.0
28.0,-32.0,235.0,-57.0,59.0,10.0,99.0,-120.0,1015.0
30.0,-36.0,236.0,-57.0,58.0,10.0,98.0,-125.0,1010.0
28.0,-32.0,237.0,-53.0,58.0,11.0,100.0,-126.0,1007.0
26.0,-36.0,235.0,-53.0,57.0,11.0,95.0,-128.0,1011.0
28.0,-33.0,235.0,-51.0,57.0,11.0,96.0,-124.0,1004.0
29.0,-34.0,233.0,-52.0,57.0,10.0,96.0,-126.0,1011.0
25.0,-31.0,234.0,-52.0,57.0,11.0,94.0,-126.0,1007.0
29.0,-35.0,237.0,-52.0,56.0,10.0,94.0,-131.0,1007.0
26.0,-33.0,230.0,-50.0,56.0,8.0,93.0,-129.0,1002.0
27.0,-34.0,232.0,-48.0,58.0,8.0,85.0,-128.0,1006.0
25.0,-36.0,234.0,-48.0,59.0,7.0,88.0,-129.0,1006.0
24.0,-33.0,233.0,-49.0,58.0,6.0,86.0,-129.0,1006.0
23.0,-37.0,235.0,-46.0,61.0,6.0,81.0,-132.0,1009.0
24.0,-34.0,235.0,-43.0,61.0,3.0,80.0,-135.0,1005.0
21.0,-34.0,233.0,-40.0,62.0,3.0,79.0,-129.0,1005.0
22.0,-36.0,233.0,-38.0,65.0,0.0,77.0,-131.0,1008.0
22.0,-36.0,235.0,-36.0,65.0,2.0,76.0,-129.0,1007.0
19.0,-35.0,234.0,-35.0,64.0,-1.0,71.0,-130.0,1008.0
23.0,-37.0,234.0,-33.0,65.0,-1.0,72.0,-131.0,1010.0
19.0,-34.0,235.0,-30.0,68.0,-4.0,68.0,-133.0,1008.0
20.0,-36.0,236.0,-29.0,69.0,-2.0,67.0,-133.0,1008.0
19.0,-36.0,233.0,-25.0,69.0,-6.0,59.0,-134.0,1003.0
19.0,-36.0,235.0,-24.0,71.0,-6.0,59.0,-136.0,1005.0
17.0,-37.0,233.0,-20.0,72.0,-9.0,59.0,-131.0,1008.0
19.0,-38.0,235.0,-19.0,72.0,-7.0,55.0,-134.0,1007.0
15.0,-34.0,235.0,-15.0,74.0,-9.0,53.0,-133.0,1010.0
17.0,-35.0,234.0,-12.0,76.0,-8.0,55.0,-128.0,1004.0
17.0,-35.0,233.0,-8.0,76.0,-12.0,52.0,-130.0,1003.0
15.0,-36.0,236.0,-5.0,76.0,-8.0,47.0,-136.0,1004.0
15.0,-34.0,231.0,-2.0,77.0,-11.0,45.0,-125.0,1005.0
14.0,-36.0,233.0,0.0,76.0,-8.0,47.0,-130.0,1001.0
15.0,-36.0,233.0,5.0,76.0,-10.0,46.0,-132.0,999.0
12.0,-35.0,237.0,7.0,77.0,-10.0,48.0,-130.0,1000.0
12.0,-36.0,235.0,10.0,77.0,-10.0,43.0,-125.0,1002.0
14.0,-36.0,233.0,13.0,75.0,-7.0,43.0,-135.0,1003.0
13.0,-35.0,230.0,16.0,74.0,-9.0,42.0,-130.0,1001.0
9.0,-33.0,234.0,19.0,73.0,-6.0,43.0,-131.0,1001.0
13.0,-34.0,232.0,24.0,71.0,-7.0,46.0,-130.0,1002.0
14.0,-36.0,233.0,26.0,71.0,-6.0,45.0,-127.0,1008.0
10.0,-33.0,234.0,28.0,68.0,-7.0,42.0,-126.0,1003.0
10.0,-34.0,233.0,31.0,65.0,-4.0,49.0,-124.0,1007.0
14.0,-34.0,235.0,32.0,64.0,-6.0,50.0,-122.0,1006.0
16.0,-34.0,236.0,34.0,62.0,-2.0,53.0,-123.0,1006.0
12.0,-33.0,239.0,36.0,60.0,-5.0,53.0,-124.0,1011.0
19.0,-37.0,233.0,37.0,58.0,-4.0,53.0,-126.0,1007.0
17.0,-33.0,232.0,36.0,58.0,-6.0,60.0,-130.0,1010.0
16.0,-34.0,234.0,36.0,56.0,-4.0,63.0,-125.0,1015.0
18.0,-34.0,233.0,35.0,55.0,-6.0,62.0,-124.0,1012.0
19.0,-33.0,236.0,34.0,54.0,-5.0,67.0,-122.0,1011.0
20.0,-32.0,238.0,34.0,53.0,-8.0,68.0,-123.0,1023.0
20.0,-33.0,238.0,33.0,50.0,-5.0,70.0,-124.0,1010.0
20.0,-34.0,238.0,32.0,50.0,-9.0,68.0,-123.0,1020.0
20.0,-33.0,236.0,30.0,49.0,-8.0,75.0,-120.0,1017.0
22.0,-32.0,238.0,28.0,47.0,-10.0,75.0,-121.0,1015.0
21.0,-34.0,236.0,27.0,47.0,-9.0,78.0,-124.0,1016.0
21.0,-32.0,238.0,25.0,46.0,-11.0,79.0,-121.0,1021.0
22.0,-32.0,234.0,25.0,45.0,-11.0,82.0,-119.0,1015.0
23.0,-33.0,234.0,25.0,44.0,-14.0,82.0,-113.0,1015.0
24.0,-32.0,236.0,25.0,44.0,-11.0,82.0,-123.0,1012.0
24.0,-32.0,236.0,24.0,44.0,-14.0,83.0,-121.0,1008.0
23.0,-31.0,238.0,21.0,45.0,-13.0,82.0,-125.0,1013.0
24.0,-31.0,233.0,21.0,45.0,-14.0,86.0,-120.0,1016.0
20.0,-34.0,235.0,22.0,45.0,-14.0,81.0,-123.0,1015.0
24.0,-36.0,236.0,25.0,46.0,-15.0,80.0,-133.0,1010.0
25.0,-33.0,233.0,27.0,47.0,-14.0,81.0,-127.0,1014.0
23.0,-35.0,234.0,29.0,47.0,-14.0,85.0,-122.0,1014.0
23.0,-33.0,233.0,32.0,48.0,-13.0,81.0,-124.0,1012.0
23.0,-34.0,238.0,35.0,49.0,-14.0,81.0,-122.0,1013.0
25.0,-33.0,235.0,36.0,52.0,-12.0,85.0,-119.0,1010.0
26.0,-33.0,234.0,35.0,53.0,-12.0,76.0,-122.0,1011.0
24.0,-31.0,238.0,32.0,55.0,-12.0,80.0,-118.0,1015.0
