acc1_x,acc1_y,acc1_z,gyro_x,gyro_y,gyro_z,acc2_x,acc2_y,acc2_z
-2.0,-250.0,8.0,-61.0,23.0,-5.0,-3.0,-970.0,170.0
1.0,-250.0,13.0,-64.0,22.0,-4.0,1.0,-973.0,170.0
2.0,-250.0,8.0,-63.0,20.0,-2.0,1.0,-969.0,170.0
-3.0,-250.0,10.0,-63.0,18.0,-3.0,2.0,-972.0,171.0
-3.0,-246.0,10.0,-62.0,16.0,-2.0,0.0,-964.0,168.0
-2.0,-249.0,11.0,-61.0,15.0,-2.0,0.0,-969.0,171.0
-1.0,-247.0,10.0,-57.0,14.0,-2.0,5.0,-969.0,167.0
0.0,-249.0,8.0,-56.0,15.0,-2.0,0.0,-968.0,169.0
1.0,-247.0,11.0,-54.0,16.0,-1.0,-1.0,-972.0,168.0
0.0,-249.0,11.0,-55.0,17.0,-1.0,0.0,-967.0,169.0
0.0,-249.0,10.0,-52.0,16.0,-1.0,1.0,-972.0,169.0
-1.0,-249.0,11.0,-54.0,16.0,0.0,-2.0,-967.0,168.0
-1.0,-250.0,9.0,-53.0,17.0,-2.0,0.0,-970.0,173.0
-2.0,-250.0,9.0,-54.0,14.0,-2.0,-3.0,-969.0,168.0
-3.0,-248.0,12.0,-58.0,13.0,-2.0,-7.0,-967.0,174.0
-2.0,-248.0,11.0,-62.0,15.0,-2.0,-4.0,-964.0,171.0
0.0,-250.0,9.0,-67.0,16.0,-3.0,0.0,-966.0,173.0
-3.0,-250.0,9.0,-69.0,16.0,-5.0,-7.0,-963.0,168.0
-1.0,-249.0,12.0,-71.0,17.0,-6.0,-4.0,-967.0,172.0
-3.0,-248.0,9.0,-71.0,17.0,-7.0,0.0,-969.0,175.0
-1.0,-248.0,13.0,-71.0,16.0,-8.0,0.0,-972.0,176.0
-2.0,-250.0,11.0,-70.0,19.0,-9.0,4.0,-972.0,171.0
-1.0,-248.0,9.0,-69.0,19.0,-10.0,-1.0,-970.0,163.0
2.0,-250.0,11.0,-66.0,23.0,-11.0,1.0,-969.0,174.0
0.0,-252.0,9.0,-65.0,26.0,-11.0,2.0,-971.0,169.0
-3.0,-249.0,10.0,-61.0,28.0,-11.0,3.0,-976.0,170.0
0.0,-250.0,9.0,-60.0,29.0,-10.0,6.0,-972.0,171.0
-1.0,-249.0,8.0,-58.0,28.0,-8.0,3.0,-975.0,172.0
1.0,-250.0,11.0,-54.0,26.0,-8.0,3.0,-976.0,170.0
0.0,-252.0,9.0,-49.0,27.0,-8.0,7.0,-974.0,173.0
2.0,-249.0,9.0,-46.0,23.0,-6.0,7.0,-970.0,174.0
1.0,-251.0,14.0,-44.0,21.0,-7.0,7.0,-974.0,173.0
0.0,-250.0,12.0,-43.0,18.0,-5.0,0.0,-971.0,171.0
0.0,-248.0,12.0,-43.0,16.0,-5.0,4.0,-968.0,170.0
0.0,-248.0,9.0,-45.0,13.0,-5.0,5.0,-966.0,173.0
-1.0,-248.0,11.0,-44.0,13.0,-4.0,2.0,-968.0,169.0
1.0,-248.0,6.0,-46.0,14.0,-5.0,4.0,-965.0,169.0
-1.0,-249.0,11.0,-45.0,14.0,-6.0,5.0,-965.0,167.0
1.0,-248.0,9.0,-50.0,14.0,-6.0,7.0,-962.0,168.0
3.0,-248.0,13.0,-53.0,13.0,-5.0,6.0,-963.0,173.0
1.0,-249.0,10.0,-54.0,13.0,-6.0,0.0,-964.0,175.0
-1.0,-248.0,8.0,-58.0,15.0,-6.0,-1.0,-966.0,174.0
-1.0,-247.0,9.0,-63.0,15.0,-8.0,2.0,-965.0,168.0
-1.0,-246.0,8.0,-63.0,17.0,-7.0,7.0,-964.0,168.0
0.0,-248.0,8.0,-69.0,17.0,-8.0,1.0,-970.0,170.0
-2.0,-251.0,8.0,-71.0,20.0,-9.0,7.0,-967.0,167.0
-2.0,-249.0,8.0,-75.0,20.0,-10.0,3.0,-966.0,166.0
-2.0,-251.0,10.0,-79.0,20.0,-9.0,3.0,-973.0,168.0
-3.0,-248.0,9.0,-80.0,19.0,-9.0,8.0,-970.0,169.0
0.0,-249.0,10.0,-80.0,18.0,-7.0,2.0,-968.0,167.0
-2.0,-248.0,9.0,-80.0,18.0,-7.0,10.0,-968.0,171.0
-1.0,-249.0,8.0,-80.0,17.0,-5.0,5.0,-967.0,170.0
2.0,-249.0,8.0,-78.0,14.0,-2.0,7.0,-972.0,169.0
2.0,-250.0,10.0,-78.0,13.0,-3.0,5.0,-975.0,160.0
0.0,-249.0,9.0,-80.0,14.0,-2.0,2.0,-973.0,166.0
0.0,-249.0,9.0,-83.0,14.0,-4.0,5.0,-977.0,165.0
0.0,-249.0,9.0,-84.0,17.0,-4.0,7.0,-971.0,169.0
0.0,-249.0,9.0,-81.0,19.0,-6.0,2.0,-973.0,168.0
1.0,-251.0,10.0,-81.0,21.0,-6.0,4.0,-971.0,166.0
-3.0,-248.0,9.0,-80.0,23.0,-6.0,3.0,-965.0,168.0
-1.0,-249.0,10.0,-80.0,22.0,-7.0,4.0,-969.0,168.0
-3.0,-248.0,10.0,-75.0,22.0,-6.0,6.0,-963.0,166.0
-2.0,-247.0,8.0,-77.0,21.0,-4.0,6.0,-968.0,170.0
-1.0,-249.0,10.0,-76.0,21.0,-4.0,7.0,-967.0,167.0
0.0,-248.0,10.0,-77.0,24.0,-4.0,2.0,-966.0,166.0
-1.0,-247.0,8.0,-77.0,24.0,-4.0,5.0,-963.0,164.0
6.0,-246.0,10.0,-80.0,25.0,-6.0,4.0,-964.0,168.0
2.0,-251.0,8.0,-81.0,26.0,-6.0,6.0,-966.0,167.0
-2.0,-245.0,7.0,-85.0,25.0,-7.0,11.0,-963.0,165.0
4.0,-251.0,10.0,-91.0,25.0,-6.0,2.0,-969.0,170.0
0.0,-246.0,10.0,-92.0,24.0,-5.0,10.0,-967.0,164.0
1.0,-248.0,8.0,-93.0,22.0,-5.0,1.0,-967.0,166.0
-1.0,-248.0,9.0,-94.0,20.0,-4.0,-1.0,-966.0,156.0
-2.0,-248.0,8.0,-98.0,20.0,-5.0,1.0,-972.0,164.0
-1.0,-247.0,7.0,-100.0,19.0,-4.0,5.0,-968.0,160.0
0.0,-251.0,8.0,-105.0,18.0,-2.0,1.0,-974.0,165.0
2.0,-250.0,9.0,-106.0,16.0,-3.0,-1.0,-969.0,168.0
-1.0,-252.0,9.0,-104.0,15.0,-4.0,-1.0,-976.0,169.0
-2.0,-251.0,9.0,-104.0,15.0,-4.0,-1.0,-980.0,163.0
0.0,-251.0,8.0,-103.0,15.0,-5.0,6.0,-974.0,164.0
1.0,-251.0,10.0,-100.0,15.0,-6.0,4.0,-979.0,160.0
0.0,-251.0,6.0,-95.0,17.0,-6.0,0.0,-977.0,154.0
1.0,-251.0,11.0,-88.0,17.0,-6.0,4.0,-976.0,157.0
1.0,-250.0,7.0,-83.0,18.0,-6.0,3.0,-973.0,151.0
2.0,-250.0,6.0,-76.0,19.0,-5.0,6.0,-973.0,151.0
-1.0,-248.0,5.0,-72.0,19.0,-4.0,5.0,-970.0,149.0
-2.0,-251.0,8.0,-70.0,19.0,-4.0,5.0,-968.0,152.0
0.0,-251.0,7.0,-71.0,20.0,-3.0,7.0,-971.0,153.0
0.0,-249.0,6.0,-73.0,16.0,-3.0,1.0,-970.0,153.0
0.0,-249.0,8.0,-74.0,14.0,-1.0,4.0,-972.0,152.0
3.0,-250.0,3.0,-79.0,16.0,-1.0,4.0,-970.0,153.0
2.0,-248.0,6.0,-83.0,17.0,-2.0,3.0,-973.0,154.0
0.0,-246.0,10.0,-86.0,20.0,-6.0,7.0,-971.0,160.0
0.0,-248.0,6.0,-90.0,25.0,-6.0,4.0,-971.0,164.0
-1.0,-248.0,7.0,-91.0,28.0,-8.0,2.0,-971.0,163.0
-1.0,-248.0,8.0,-90.0,29.0,-8.0,-2.0,-973.0,161.0
1.0,-249.0,9.0,-88.0,30.0,-8.0,6.0,-974.0,158.0
3.0,-255.0,7.0,-83.0,31.0,-7.0,4.0,-977.0,150.0
0.0,-250.0,4.0,-74.0,31.0,-6.0,7.0,-973.0,152.0
2.0,-253.0,0.0,-65.0,28.0,-3.0,1.0,-978.0,144.0
1.0,-250.0,5.0,-62.0,28.0,0.0,4.0,-979.0,142.0
-1.0,-253.0,1.0,-62.0,26.0,3.0,4.0,-974.0,137.0
1.0,-250.0,3.0,-67.0,26.0,5.0,9.0,-975.0,133.0
-3.0,-252.0,1.0,-74.0,26.0,2.0,4.0,-974.0,141.0
-1.0,-249.0,7.0,-79.0,26.0,-1.0,12.0,-971.0,146.0
1.0,-249.0,4.0,-78.0,26.0,-3.0,1.0,-974.0,150.0
0.0,-249.0,8.0,-76.0,25.0,-5.0,1.0,-966.0,156.0
-2.0,-251.0,10.0,-73.0,22.0,-4.0,3.0,-974.0,160.0
-3.0,-251.0,7.0,-71.0,19.0,-4.0,-4.0,-970.0,163.0
-3.0,-249.0,7.0,-70.0,19.0,-4.0,-2.0,-972.0,162.0
-3.0,-250.0,9.0,-69.0,18.0,-4.0,-5.0,-971.0,163.0
-2.0,-248.0,9.0,-71.0,20.0,-7.0,-5.0,-969.0,159.0
-3.0,-251.0,8.0,-74.0,22.0,-7.0,1.0,-972.0,160.0
1.0,-250.0,8.0,-78.0,23.0,-7.0,-4.0,-969.0,165.0
1.0,-252.0,8.0,-80.0,26.0,-9.0,-5.0,-970.0,161.0
-1.0,-249.0,8.0,-79.0,27.0,-9.0,-2.0,-976.0,156.0
-2.0,-250.0,8.0,-79.0,29.0,-10.0,1.0,-967.0,153.0
-3.0,-248.0,7.0,-79.0,29.0,-11.0,4.0,-974.0,152.0
0.0,-250.0,8.0,-77.0,28.0,-10.0,4.0,-970.0,156.0
1.0,-250.0,5.0,-77.0,28.0,-9.0,8.0,-969.0,149.0
0.0,-249.0,3.0,-74.0,28.0,-10.0,8.0,-969.0,154.0
0.0,-250.0,8.0,-73.0,27.0,-9.0,1.0,-975.0,154.0
0.0,-249.0,6.0,-72.0,24.0,-9.0,7.0,-972.0,156.0
0.0,-249.0,8.0,-71.0,22.0,-6.0,6.0,-969.0,151.0
-1.0,-249.0,7.0,-68.0,20.0,-5.0,10.0,-975.0,154.0
0.0,-248.0,6.0,-68.0,19.0,-5.0,-1.0,-970.0,152.0
2.0,-249.0,6.0,-70.0,17.0,-5.0,-2.0,-971.0,149.0
-1.0,-250.0,7.0,-72.0,15.0,-5.0,-2.0,-975.0,152.0
-2.0,-252.0,5.0,-76.0,14.0,-6.0,-1.0,-976.0,145.0
-1.0,-253.0,8.0,-75.0,14.0,-8.0,0.0,-976.0,148.0
-5.0,-251.0,6.0,-75.0,14.0,-10.0,-1.0,-970.0,144.0
-3.0,-251.0,4.0,-74.0,14.0,-10.0,-4.0,-975.0,149.0
0.0,-251.0,4.0,-75.0,14.0,-10.0,-4.0,-972.0,144.0
-2.0,-251.0,6.0,-74.0,14.0,-11.0,-6.0,-974.0,144.0
-1.0,-253.0,7.0,-71.0,15.0,-11.0,-3.0,-976.0,150.0
-1.0,-249.0,4.0,-67.0,16.0,-12.0,-7.0,-972.0,151.0
-4.0,-250.0,8.0,-62.0,18.0,-11.0,-1.0,-971.0,150.0
-1.0,-250.0,2.0,-62.0,19.0,-14.0,0.0,-974.0,155.0
-1.0,-249.0,3.0,-61.0,19.0,-15.0,1.0,-970.0,157.0
-1.0,-249.0,5.0,-63.0,18.0,-14.0,-4.0,-967.0,159.0
-1.0,-248.0,8.0,-65.0,18.0,-14.0,1.0,-967.0,156.0
-3.0,-246.0,13.0,-65.0,18.0,-14.0,0.0,-968.0,154.0
-1.0,-249.0,5.0,-67.0,18.0,-11.0,2.0,-969.0,157.0
-1.0,-249.0,1.0,-69.0,18.0,-11.0,0.0,-972.0,149.0
0.0,-249.0,1.0,-71.0,20.0,-11.0,0.0,-969.0,150.0
2.0,-251.0,9.0,-74.0,22.0,-9.0,9.0,-971.0,141.0
-3.0,-248.0,6.0,-76.0,23.0,-7.0,8.0,-972.0,143.0
0.0,-249.0,3.0,-78.0,25.0,-5.0,5.0,-964.0,146.0
2.0,-249.0,7.0,-78.0,25.0,-4.0,5.0,-970.0,145.0
-2.0,-249.0,5.0,-77.0,24.0,-3.0,5.0,-972.0,150.0
-1.0,-251.0,5.0,-75.0,20.0,-4.0,0.0,-975.0,152.0
1.0,-251.0,8.0,-71.0,16.0,-3.0,-2.0,-970.0,152.0
-3.0,-250.0,6.0,-69.0,13.0,-1.0,3.0,-974.0,152.0
-1.0,-250.0,7.0,-69.0,10.0,0.0,-4.0,-972.0,156.0
0.0,-252.0,5.0,-68.0,9.0,-3.0,2.0,-974.0,154.0
0.0,-252.0,7.0,-68.0,9.0,-5.0,2.0,-971.0,149.0
0.0,-249.0,3.0,-69.0,9.0,-5.0,5.0,-974.0,147.0
1.0,-250.0,5.0,-71.0,11.0,-6.0,8.0,-971.0,150.0
1.0,-250.0,6.0,-71.0,14.0,-7.0,12.0,-975.0,154.0
3.0,-249.0,5.0,-72.0,14.0,-8.0,13.0,-974.0,148.0
0.0,-250.0,8.0,-72.0,15.0,-7.0,9.0,-971.0,152.0
1.0,-251.0,7.0,-73.0,14.0,-6.0,11.0,-976.0,150.0
1.0,-250.0,9.0,-72.0,12.0,-7.0,9.0,-975.0,154.0
1.0,-251.0,10.0,-74.0,12.0,-6.0,5.0,-976.0,150.0
1.0,-254.0,5.0,-72.0,10.0,-6.0,8.0,-974.0,148.0
1.0,-253.0,5.0,-70.0,11.0,-6.0,7.0,-974.0,150.0
-2.0,-252.0,7.0,-70.0,13.0,-7.0,1.0,-977.0,152.0
-1.0,-251.0,8.0,-67.0,15.0,-3.0,6.0,-973.0,147.0
0.0,-249.0,4.0,-65.0,18.0,-4.0,10.0,-975.0,149.0
0.0,-250.0,7.0,-64.0,20.0,-2.0,4.0,-973.0,148.0
0.0,-252.0,5.0,-62.0,18.0,-1.0,6.0,-971.0,150.0
1.0,-251.0,-1.0,-63.0,18.0,0.0,6.0,-974.0,147.0
0.0,-252.0,7.0,-63.0,18.0,1.0,2.0,-970.0,153.0
0.0,-250.0,5.0,-64.0,20.0,2.0,4.0,-970.0,152.0
2.0,-249.0,10.0,-65.0,22.0,2.0,8.0,-975.0,149.0
0.0,-250.0,5.0,-66.0,23.0,1.0,8.0,-975.0,153.0
2.0,-249.0,4.0,-69.0,22.0,2.0,4.0,-977.0,142.0
-1.0,-250.0,6.0,-71.0,21.0,2.0,10.0,-975.0,145.0
3.0,-250.0,1.0,-74.0,20.0,2.0,13.0,-974.0,138.0
1.0,-250.0,2.0,-76.0,20.0,1.0,7.0,-978.0,138.0
1.0,-251.0,1.0,-75.0,19.0,2.0,15.0,-981.0,132.0
1.0,-250.0,-3.0,-74.0,20.0,0.0,15.0,-981.0,139.0
1.0,-252.0,-1.0,-73.0,19.0,-1.0,13.0,-980.0,138.0
1.0,-251.0,-2.0,-68.0,18.0,-2.0,7.0,-980.0,135.0
2.0,-253.0,0.0,-65.0,21.0,0.0,11.0,-979.0,133.0
1.0,-252.0,3.0,-59.0,20.0,0.0,9.0,-981.0,132.0
2.0,-252.0,2.0,-53.0,20.0,1.0,4.0,-978.0,135.0
-2.0,-251.0,3.0,-50.0,21.0,1.0,3.0,-976.0,139.0
1.0,-253.0,1.0,-49.0,20.0,1.0,2.0,-978.0,136.0
-1.0,-250.0,2.0,-48.0,21.0,2.0,5.0,-977.0,137.0
0.0,-250.0,2.0,-48.0,21.0,1.0,-3.0,-975.0,135.0
-1.0,-250.0,2.0,-51.0,22.0,1.0,6.0,-970.0,141.0
0.0,-253.0,-1.0,-51.0,22.0,2.0,-6.0,-966.0,138.0
1.0,-248.0,1.0,-55.0,22.0,2.0,0.0,-970.0,142.0
3.0,-251.0,1.0,-57.0,21.0,2.0,-1.0,-970.0,136.0
-2.0,-250.0,0.0,-60.0,22.0,2.0,5.0,-974.0,133.0
-2.0,-252.0,-3.0,-63.0,25.0,2.0,-1.0,-969.0,137.0
-4.0,-249.0,-3.0,-61.0,25.0,1.0,1.0,-972.0,137.0
-3.0,-251.0,6.0,-60.0,23.0,2.0,-5.0,-969.0,144.0
0.0,-248.0,5.0,-58.0,22.0,1.0,1.0,-972.0,140.0
2.0,-253.0,7.0,-56.0,21.0,0.0,2.0,-977.0,140.0
-2.0,-251.0,7.0,-54.0,21.0,1.0,1.0,-977.0,146.0
0.0,-252.0,5.0,-53.0,22.0,1.0,3.0,-982.0,148.0
-1.0,-250.0,1.0,-52.0,23.0,0.0,0.0,-974.0,145.0
3.0,-253.0,2.0,-55.0,22.0,-1.0,10.0,-977.0,146.0
0.0,-253.0,5.0,-54.0,24.0,-1.0,1.0,-979.0,142.0
-2.0,-248.0,1.0,-56.0,25.0,-2.0,-2.0,-975.0,144.0
-1.0,-253.0,0.0,-58.0,27.0,-2.0,1.0,-969.0,136.0
-3.0,-249.0,6.0,-57.0,27.0,-1.0,-2.0,-976.0,144.0
-1.0,-250.0,5.0,-57.0,26.0,0.0,1.0,-975.0,144.0
1.0,-251.0,0.0,-54.0,26.0,-1.0,3.0,-972.0,146.0
-1.0,-250.0,7.0,-54.0,24.0,0.0,-1.0,-975.0,148.0
-3.0,-251.0,5.0,-55.0,24.0,-1.0,0.0,-973.0,146.0
-4.0,-250.0,7.0,-54.0,22.0,-1.0,-1.0,-968.0,144.0
0.0,-249.0,2.0,-54.0,23.0,-1.0,2.0,-973.0,152.0
1.0,-251.0,6.0,-53.0,25.0,0.0,7.0,-968.0,151.0
0.0,-250.0,5.0,-51.0,27.0,0.0,7.0,-971.0,153.0
-1.0,-250.0,9.0,-50.0,29.0,0.0,3.0,-969.0,151.0
0.0,-248.0,5.0,-50.0,29.0,2.0,1.0,-968.0,150.0
2.0,-250.0,6.0,-53.0,28.0,3.0,5.0,-967.0,150.0
1.0,-249.0,7.0,-55.0,26.0,5.0,2.0,-967.0,147.0
0.0,-250.0,9.0,-57.0,23.0,6.0,6.0,-974.0,150.0
1.0,-252.0,6.0,-59.0,21.0,5.0,6.0,-971.0,150.0
-1.0,-251.0,6.0,-60.0,16.0,5.0,10.0,-977.0,157.0
1.0,-253.0,8.0,-62.0,14.0,3.0,3.0,-979.0,152.0
-1.0,-247.0,6.0,-63.0,10.0,2.0,7.0,-980.0,156.0
0.0,-250.0,4.0,-63.0,8.0,1.0,4.0,-977.0,158.0
2.0,-253.0,9.0,-63.0,4.0,1.0,-2.0,-973.0,157.0
1.0,-251.0,7.0,-63.0,1.0,1.0,3.0,-981.0,154.0
1.0,-252.0,7.0,-59.0,0.0,0.0,1.0,-979.0,156.0
1.0,-250.0,6.0,-58.0,1.0,-1.0,0.0,-977.0,155.0
-1.0,-250.0,4.0,-53.0,-1.0,-2.0,1.0,-975.0,150.0
3.0,-251.0,8.0,-51.0,-2.0,-2.0,5.0,-974.0,148.0
-2.0,-249.0,6.0,-47.0,-5.0,-1.0,6.0,-970.0,147.0
-1.0,-250.0,1.0,-43.0,-8.0,1.0,4.0,-974.0,141.0
-1.0,-252.0,1.0,-36.0,-11.0,5.0,5.0,-974.0,132.0
1.0,-250.0,-5.0,-30.0,-15.0,8.0,-2.0,-977.0,132.0
-1.0,-249.0,0.0,-26.0,-20.0,10.0,0.0,-970.0,127.0
-2.0,-249.0,-2.0,-26.0,-20.0,11.0,-6.0,-969.0,122.0
0.0,-248.0,0.0,-32.0,-20.0,13.0,-5.0,-972.0,121.0
-4.0,-248.0,-1.0,-45.0,-19.0,13.0,-6.0,-971.0,126.0
-1.0,-250.0,0.0,-57.0,-16.0,10.0,-8.0,-967.0,131.0
-3.0,-250.0,2.0,-65.0,-9.0,8.0,-14.0,-967.0,130.0
-3.0,-250.0,0.0,-70.0,-5.0,4.0,-10.0,-972.0,134.0
-5.0,-249.0,0.0,-71.0,3.0,0.0,-11.0,-972.0,133.0
-3.0,-251.0,5.0,-70.0,9.0,-6.0,-5.0,-972.0,129.0
0.0,-251.0,1.0,-71.0,17.0,-12.0,-5.0,-978.0,135.0
-1.0,-252.0,3.0,-71.0,24.0,-17.0,4.0,-980.0,131.0
3.0,-251.0,0.0,-68.0,31.0,-23.0,1.0,-980.0,129.0
2.0,-251.0,0.0,-66.0,34.0,-28.0,8.0,-981.0,132.0
0.0,-249.0,4.0,-64.0,38.0,-31.0,17.0,-975.0,131.0
0.0,-251.0,2.0,-61.0,40.0,-32.0,13.0,-975.0,134.0
2.0,-250.0,0.0,-58.0,39.0,-35.0,15.0,-970.0,128.0
3.0,-250.0,2.0,-58.0,36.0,-36.0,9.0,-970.0,129.0
2.0,-250.0,-5.0,-60.0,35.0,-33.0,11.0,-970.0,125.0
0.0,-250.0,0.0,-65.0,34.0,-31.0,7.0,-973.0,123.0
1.0,-249.0,-5.0,-72.0,32.0,-26.0,9.0,-972.0,125.0
1.0,-250.0,-3.0,-77.0,30.0,-21.0,4.0,-974.0,120.0
0.0,-252.0,1.0,-78.0,28.0,-17.0,6.0,-976.0,124.0
3.0,-251.0,-5.0,-78.0,29.0,-15.0,3.0,-976.0,126.0
-1.0,-250.0,0.0,-79.0,29.0,-15.0,9.0,-975.0,127.0
-2.0,-248.0,0.0,-77.0,29.0,-18.0,2.0,-976.0,129.0
1.0,-251.0,-2.0,-75.0,31.0,-23.0,8.0,-976.0,125.0
3.0,-251.0,0.0,-75.0,34.0,-28.0,15.0,-984.0,124.0
5.0,-253.0,2.0,-74.0,39.0,-35.0,21.0,-980.0,129.0
3.0,-250.0,3.0,-74.0,48.0,-42.0,19.0,-983.0,123.0
5.0,-251.0,0.0,-76.0,57.0,-49.0,22.0,-985.0,127.0
5.0,-252.0,1.0,-77.0,65.0,-51.0,21.0,-981.0,130.0
5.0,-254.0,-1.0,-77.0,70.0,-49.0,26.0,-978.0,130.0
4.0,-252.0,2.0,-78.0,71.0,-45.0,24.0,-979.0,124.0
-4.0,-251.0,2.0,-75.0,71.0,-42.0,23.0,-975.0,122.0
4.0,-253.0,6.0,-72.0,69.0,-34.0,17.0,-982.0,129.0
3.0,-252.0,1.0,-70.0,68.0,-30.0,16.0,-977.0,131.0
1.0,-250.0,2.0,-70.0,65.0,-24.0,11.0,-981.0,137.0
-1.0,-250.0,6.0,-71.0,62.0,-17.0,0.0,-976.0,137.0
-2.0,-252.0,3.0,-74.0,60.0,-12.0,-1.0,-978.0,136.0
-2.0,-251.0,1.0,-76.0,61.0,-6.0,-11.0,-974.0,140.0
-6.0,-249.0,3.0,-78.0,60.0,-1.0,-6.0,-978.0,144.0
0.0,-247.0,-6.0,-76.0,58.0,5.0,-12.0,-972.0,135.0
-7.0,-251.0,4.0,-76.0,57.0,8.0,-15.0,-973.0,130.0
-3.0,-250.0,1.0,-75.0,57.0,11.0,-16.0,-976.0,137.0
-3.0,-252.0,1.0,-73.0,55.0,14.0,-14.0,-974.0,138.0
-5.0,-250.0,0.0,-71.0,54.0,17.0,-14.0,-974.0,138.0
1.0,-257.0,4.0,-69.0,51.0,22.0,-20.0,-976.0,137.0
-5.0,-252.0,3.0,-68.0,48.0,26.0,-12.0,-976.0,133.0
-5.0,-249.0,-2.0,-64.0,46.0,28.0,-14.0,-977.0,135.0
-2.0,-250.0,2.0,-61.0,45.0,27.0,-13.0,-975.0,135.0
-7.0,-249.0,4.0,-61.0,44.0,25.0,-11.0,-971.0,129.0
-5.0,-248.0,0.0,-59.0,43.0,21.0,-12.0,-971.0,136.0
-4.0,-249.0,-1.0,-61.0,43.0,19.0,-15.0,-969.0,131.0
-4.0,-249.0,-4.0,-64.0,46.0,14.0,-11.0,-963.0,132.0
-3.0,-258.0,2.0,-68.0,49.0,9.0,-13.0,-966.0,136.0
-1.0,-248.0,3.0,-72.0,52.0,5.0,-8.0,-964.0,133.0
-4.0,-248.0,2.0,-77.0,55.0,1.0,-5.0,-960.0,133.0
-1.0,-249.0,0.0,-83.0,59.0,-1.0,-5.0,-956.0,139.0
-3.0,-247.0,2.0,-92.0,63.0,-2.0,2.0,-962.0,135.0
8.0,-245.0,6.0,-101.0,62.0,-2.0,1.0,-964.0,139.0
-2.0,-248.0,5.0,-108.0,63.0,-6.0,-1.0,-967.0,140.0
-2.0,-248.0,6.0,-111.0,65.0,-11.0,4.0,-970.0,145.0
0.0,-250.0,4.0,-113.0,64.0,-16.0,11.0,-972.0,140.0
2.0,-251.0,5.0,-113.0,64.0,-22.0,11.0,-973.0,149.0
1.0,-251.0,4.0,-114.0,63.0,-26.0,17.0,-980.0,142.0
6.0,-250.0,4.0,-116.0,61.0,-29.0,21.0,-990.0,138.0
0.0,-255.0,3.0,-114.0,58.0,-33.0,13.0,-986.0,133.0
0.0,-253.0,4.0,-111.0,55.0,-33.0,12.0,-990.0,135.0
0.0,-251.0,-6.0,-106.0,55.0,-34.0,10.0,-987.0,135.0
0.0,-253.0,2.0,-97.0,56.0,-35.0,6.0,-985.0,134.0
-2.0,-251.0,6.0,-89.0,54.0,-34.0,-2.0,-983.0,132.0
-3.0,-251.0,0.0,-79.0,50.0,-34.0,1.0,-980.0,131.0
0.0,-253.0,3.0,-74.0,45.0,-32.0,-11.0,-980.0,132.0
-4.0,-249.0,-1.0,-69.0,41.0,-33.0,-4.0,-976.0,138.0
-3.0,-249.0,1.0,-66.0,37.0,-32.0,-9.0,-970.0,133.0
-3.0,-249.0,-2.0,-66.0,32.0,-34.0,-8.0,-968.0,134.0
-3.0,-249.0,-1.0,-66.0,26.0,-33.0,-6.0,-964.0,135.0
-5.0,-249.0,5.0,-65.0,17.0,-31.0,-8.0,-969.0,132.0
0.0,-249.0,1.0,-66.0,9.0,-27.0,-4.0,-966.0,129.0
-2.0,-250.0,5.0,-70.0,0.0,-24.0,-4.0,-964.0,133.0
0.0,-248.0,5.0,-72.0,-6.0,-21.0,-1.0,-971.0,134.0
2.0,-252.0,0.0,-74.0,-12.0,-18.0,-4.0,-973.0,138.0
1.0,-250.0,1.0,-69.0,-15.0,-17.0,0.0,-977.0,137.0
5.0,-252.0,7.0,-64.0,-15.0,-17.0,7.0,-976.0,140.0
-4.0,-249.0,4.0,-60.0,-15.0,-16.0,10.0,-973.0,135.0
3.0,-251.0,3.0,-54.0,-12.0,-17.0,13.0,-976.0,142.0
4.0,-250.0,3.0,-51.0,-7.0,-19.0,14.0,-977.0,145.0
5.0,-253.0,2.0,-45.0,-1.0,-21.0,22.0,-975.0,137.0
3.0,-249.0,4.0,-44.0,6.0,-23.0,22.0,-972.0,139.0
2.0,-249.0,6.0,-43.0,14.0,-23.0,24.0,-971.0,135.0
4.0,-249.0,2.0,-43.0,20.0,-24.0,24.0,-967.0,128.0
3.0,-251.0,4.0,-44.0,25.0,-26.0,20.0,-972.0,133.0
2.0,-250.0,5.0,-43.0,26.0,-26.0,17.0,-973.0,128.0
5.0,-252.0,-1.0,-46.0,24.0,-25.0,14.0,-975.0,132.0
3.0,-250.0,-4.0,-48.0,22.0,-26.0,19.0,-977.0,121.0
1.0,-250.0,-3.0,-52.0,18.0,-25.0,12.0,-978.0,121.0
-4.0,-251.0,-7.0,-54.0,13.0,-24.0,12.0,-975.0,119.0
-2.0,-250.0,2.0,-55.0,7.0,-22.0,9.0,-977.0,119.0
-1.0,-251.0,-2.0,-58.0,1.0,-20.0,5.0,-980.0,120.0
0.0,-252.0,-1.0,-59.0,-4.0,-20.0,-3.0,-980.0,123.0
-1.0,-250.0,-1.0,-60.0,-10.0,-20.0,-6.0,-977.0,127.0
-3.0,-253.0,1.0,-58.0,-16.0,-18.0,-7.0,-978.0,124.0
0.0,-251.0,6.0,-56.0,-21.0,-18.0,-12.0,-979.0,131.0
-5.0,-248.0,1.0,-52.0,-26.0,-19.0,-13.0,-979.0,134.0
-1.0,-251.0,3.0,-50.0,-30.0,-23.0,-8.0,-972.0,138.0
-7.0,-250.0,1.0,-52.0,-31.0,-24.0,-11.0,-978.0,141.0
-2.0,-252.0,1.0,-53.0,-33.0,-28.0,-8.0,-974.0,138.0
-3.0,-249.0,2.0,-53.0,-30.0,-28.0,-7.0,-973.0,139.0
0.0,-249.0,-2.0,-54.0,-27.0,-29.0,-1.0,-969.0,135.0
1.0,-248.0,0.0,-57.0,-22.0,-32.0,11.0,-969.0,136.0
0.0,-250.0,1.0,-59.0,-18.0,-32.0,9.0,-969.0,134.0
6.0,-250.0,0.0,-63.0,-11.0,-33.0,14.0,-970.0,133.0
6.0,-251.0,0.0,-64.0,-5.0,-32.0,24.0,-967.0,129.0
6.0,-253.0,0.0,-64.0,0.0,-31.0,26.0,-973.0,129.0
8.0,-251.0,4.0,-65.0,6.0,-30.0,25.0,-970.0,128.0
5.0,-250.0,-6.0,-65.0,8.0,-28.0,26.0,-971.0,128.0
5.0,-250.0,-1.0,-66.0,9.0,-24.0,24.0,-974.0,127.0
2.0,-250.0,2.0,-71.0,8.0,-19.0,14.0,-972.0,132.0
4.0,-248.0,4.0,-73.0,10.0,-16.0,17.0,-969.0,130.0
4.0,-251.0,7.0,-74.0,11.0,-12.0,19.0,-967.0,133.0
-8.0,-250.0,3.0,-76.0,12.0,-7.0,8.0,-968.0,136.0
0.0,-250.0,4.0,-80.0,12.0,-2.0,0.0,-964.0,134.0
-3.0,-250.0,0.0,-82.0,13.0,0.0,-3.0,-967.0,132.0
-1.0,-247.0,0.0,-83.0,15.0,-1.0,-8.0,-968.0,133.0
-3.0,-251.0,3.0,-83.0,17.0,0.0,-6.0,-968.0,130.0
-5.0,-249.0,-2.0,-83.0,17.0,1.0,-3.0,-968.0,135.0
-1.0,-252.0,6.0,-83.0,17.0,3.0,-4.0,-972.0,135.0
-3.0,-250.0,2.0,-79.0,15.0,3.0,-2.0,-977.0,137.0
-2.0,-245.0,8.0,-73.0,10.0,3.0,-2.0,-975.0,131.0
-4.0,-250.0,-3.0,-67.0,6.0,6.0,1.0,-978.0,124.0
2.0,-253.0,0.0,-60.0,2.0,4.0,3.0,-985.0,119.0
-1.0,-253.0,-8.0,-57.0,-5.0,6.0,0.0,-984.0,109.0
1.0,-254.0,-6.0,-60.0,-9.0,-1.0,6.0,-986.0,104.0
5.0,-260.0,-4.0,-67.0,-10.0,-6.0,3.0,-987.0,103.0
2.0,-252.0,-7.0,-76.0,-7.0,-14.0,17.0,-984.0,105.0
3.0,-253.0,-9.0,-85.0,-1.0,-19.0,15.0,-984.0,111.0
3.0,-254.0,-3.0,-91.0,4.0,-22.0,19.0,-981.0,116.0
5.0,-254.0,-5.0,-92.0,7.0,-20.0,12.0,-984.0,122.0
4.0,-251.0,-6.0,-88.0,10.0,-14.0,13.0,-983.0,120.0
1.0,-254.0,1.0,-82.0,15.0,-9.0,11.0,-982.0,122.0
-1.0,-254.0,0.0,-77.0,20.0,-2.0,12.0,-984.0,120.0
-1.0,-252.0,-5.0,-70.0,23.0,6.0,9.0,-985.0,125.0
0.0,-249.0,-3.0,-69.0,22.0,13.0,12.0,-978.0,120.0
-1.0,-249.0,-4.0,-70.0,17.0,20.0,7.0,-977.0,114.0
2.0,-250.0,-2.0,-75.0,11.0,26.0,8.0,-981.0,113.0
1.0,-249.0,-3.0,-76.0,5.0,31.0,16.0,-975.0,106.0
2.0,-247.0,-4.0,-79.0,-5.0,34.0,13.0,-970.0,106.0
1.0,-249.0,-8.0,-83.0,-16.0,36.0,17.0,-971.0,98.0
4.0,-248.0,-7.0,-88.0,-25.0,37.0,21.0,-967.0,92.0
5.0,-251.0,-7.0,-91.0,-33.0,34.0,25.0,-972.0,91.0
3.0,-249.0,-12.0,-92.0,-36.0,30.0,18.0,-978.0,93.0
4.0,-254.0,-10.0,-91.0,-37.0,24.0,23.0,-977.0,95.0
5.0,-254.0,-7.0,-87.0,-39.0,20.0,23.0,-977.0,97.0
4.0,-253.0,-5.0,-79.0,-37.0,13.0,28.0,-981.0,100.0
4.0,-255.0,-13.0,-73.0,-30.0,8.0,18.0,-986.0,97.0
5.0,-254.0,-10.0,-65.0,-23.0,5.0,21.0,-986.0,99.0
2.0,-254.0,-12.0,-59.0,-13.0,-1.0,22.0,-989.0,103.0
4.0,-254.0,-6.0,-54.0,-4.0,-3.0,20.0,-991.0,104.0
6.0,-257.0,-6.0,-47.0,8.0,-7.0,21.0,-989.0,101.0
6.0,-252.0,-6.0,-43.0,19.0,-11.0,22.0,-986.0,105.0
6.0,-254.0,-9.0,-40.0,30.0,-14.0,22.0,-980.0,102.0
4.0,-250.0,-2.0,-40.0,41.0,-14.0,23.0,-976.0,102.0
4.0,-250.0,-8.0,-41.0,49.0,-13.0,23.0,-976.0,111.0
6.0,-249.0,-4.0,-42.0,51.0,-11.0,24.0,-976.0,111.0
6.0,-256.0,-5.0,-41.0,52.0,-8.0,17.0,-976.0,118.0
7.0,-253.0,-1.0,-40.0,48.0,-5.0,9.0,-976.0,120.0
-1.0,-252.0,0.0,-40.0,44.0,1.0,9.0,-978.0,121.0
0.0,-252.0,-5.0,-38.0,38.0,6.0,6.0,-976.0,124.0
-2.0,-252.0,0.0,-41.0,31.0,12.0,1.0,-975.0,121.0
0.0,-252.0,0.0,-43.0,24.0,18.0,6.0,-980.0,125.0
-2.0,-251.0,0.0,-44.0,19.0,19.0,5.0,-984.0,125.0
0.0,-253.0,-4.0,-38.0,12.0,21.0,2.0,-979.0,126.0
-2.0,-250.0,-1.0,-35.0,6.0,22.0,2.0,-976.0,124.0
1.0,-252.0,0.0,-32.0,0.0,22.0,15.0,-977.0,126.0
4.0,-252.0,-4.0,-26.0,-2.0,21.0,17.0,-982.0,124.0
3.0,-249.0,-5.0,-23.0,-2.0,21.0,16.0,-974.0,121.0
3.0,-249.0,0.0,-20.0,0.0,18.0,22.0,-973.0,126.0
3.0,-248.0,-2.0,-19.0,5.0,16.0,16.0,-970.0,128.0
3.0,-252.0,0.0,-23.0,9.0,16.0,18.0,-972.0,120.0
1.0,-249.0,-3.0,-27.0,14.0,15.0,21.0,-974.0,124.0
5.0,-251.0,1.0,-32.0,19.0,13.0,18.0,-971.0,126.0
1.0,-249.0,-2.0,-39.0,22.0,11.0,16.0,-974.0,127.0
2.0,-252.0,-6.0,-45.0,25.0,10.0,17.0,-975.0,126.0
1.0,-251.0,0.0,-50.0,28.0,8.0,5.0,-978.0,124.0
1.0,-249.0,0.0,-52.0,29.0,8.0,7.0,-979.0,122.0
-1.0,-253.0,-2.0,-58.0,29.0,7.0,6.0,-976.0,121.0
-3.0,-250.0,-6.0,-60.0,29.0,8.0,5.0,-973.0,120.0
1.0,-250.0,-4.0,-62.0,26.0,9.0,6.0,-977.0,123.0
3.0,-253.0,-5.0,-62.0,25.0,10.0,6.0,-979.0,122.0
3.0,-252.0,4.0,-60.0,24.0,13.0,4.0,-978.0,120.0
0.0,-251.0,-1.0,-60.0,21.0,14.0,6.0,-978.0,122.0
-3.0,-252.0,-1.0,-61.0,19.0,16.0,-6.0,-979.0,122.0
1.0,-252.0,-3.0,-56.0,17.0,18.0,1.0,-975.0,118.0
1.0,-251.0,-3.0,-54.0,14.0,17.0,9.0,-979.0,118.0
-1.0,-249.0,-7.0,-49.0,13.0,16.0,3.0,-973.0,115.0
0.0,-253.0,-1.0,-50.0,13.0,15.0,4.0,-975.0,112.0
4.0,-250.0,-7.0,-48.0,14.0,13.0,7.0,-973.0,114.0
1.0,-252.0,-4.0,-47.0,13.0,14.0,6.0,-973.0,113.0
0.0,-254.0,-4.0,-48.0,14.0,16.0,6.0,-980.0,115.0
-1.0,-254.0,-7.0,-47.0,13.0,19.0,-4.0,-977.0,112.0
0.0,-251.0,-6.0,-44.0,15.0,19.0,5.0,-979.0,112.0
2.0,-252.0,-2.0,-43.0,18.0,19.0,1.0,-984.0,117.0
3.0,-256.0,-5.0,-41.0,21.0,18.0,-2.0,-985.0,113.0
-3.0,-251.0,-4.0,-40.0,21.0,19.0,-3.0,-978.0,111.0
-1.0,-254.0,-3.0,-38.0,21.0,19.0,-4.0,-984.0,108.0
-2.0,-251.0,-3.0,-38.0,21.0,19.0,-1.0,-976.0,110.0
0.0,-254.0,-6.0,-37.0,21.0,19.0,-3.0,-980.0,113.0
-3.0,-250.0,-8.0,-38.0,21.0,19.0,1.0,-981.0,111.0
-3.0,-250.0,-6.0,-39.0,18.0,18.0,0.0,-975.0,109.0
1.0,-251.0,-3.0,-38.0,15.0,18.0,5.0,-978.0,110.0
-1.0,-250.0,-6.0,-40.0,13.0,17.0,8.0,-970.0,106.0
0.0,-249.0,-4.0,-40.0,11.0,18.0,3.0,-971.0,114.0
-1.0,-254.0,-8.0,-37.0,7.0,19.0,3.0,-969.0,112.0
0.0,-250.0,-10.0,-37.0,5.0,21.0,3.0,-969.0,113.0
-3.0,-248.0,-7.0,-37.0,2.0,21.0,7.0,-973.0,112.0
0.0,-248.0,-4.0,-38.0,3.0,22.0,2.0,-971.0,115.0
0.0,-251.0,-4.0,-40.0,4.0,22.0,0.0,-974.0,117.0
-1.0,-252.0,-4.0,-42.0,6.0,23.0,-1.0,-969.0,116.0
1.0,-251.0,-4.0,-43.0,9.0,23.0,-2.0,-971.0,114.0
0.0,-250.0,-8.0,-41.0,9.0,23.0,2.0,-974.0,117.0
0.0,-250.0,-1.0,-41.0,10.0,22.0,-4.0,-976.0,119.0
0.0,-253.0,-4.0,-38.0,8.0,23.0,-2.0,-981.0,115.0
0.0,-251.0,-4.0,-36.0,6.0,22.0,-2.0,-976.0,117.0
1.0,-250.0,0.0,-36.0,5.0,23.0,-1.0,-977.0,117.0
9.0,-250.0,-5.0,-35.0,4.0,22.0,-5.0,-978.0,118.0
-2.0,-250.0,-3.0,-34.0,5.0,22.0,6.0,-977.0,123.0
0.0,-250.0,-2.0,-32.0,4.0,24.0,-4.0,-973.0,117.0
-2.0,-248.0,-4.0,-34.0,4.0,26.0,-4.0,-977.0,123.0
-2.0,-249.0,-2.0,-36.0,5.0,28.0,-2.0,-975.0,125.0
-2.0,-248.0,1.0,-39.0,8.0,26.0,4.0,-976.0,124.0
1.0,-249.0,-4.0,-39.0,9.0,28.0,1.0,-976.0,122.0
0.0,-251.0,-1.0,-42.0,9.0,27.0,-2.0,-977.0,118.0
1.0,-251.0,0.0,-47.0,10.0,28.0,4.0,-971.0,125.0
2.0,-251.0,1.0,-51.0,6.0,31.0,3.0,-972.0,121.0
-1.0,-250.0,1.0,-56.0,3.0,34.0,-3.0,-975.0,121.0
0.0,-242.0,-19.0,-59.0,2.0,34.0,2.0,-971.0,123.0
-3.0,-250.0,0.0,-62.0,0.0,33.0,-5.0,-968.0,124.0
-1.0,-249.0,0.0,-65.0,-2.0,32.0,-4.0,-967.0,129.0
-1.0,-249.0,0.0,-69.0,-2.0,31.0,-6.0,-969.0,127.0
-3.0,-247.0,3.0,-69.0,-1.0,31.0,-6.0,-966.0,130.0
-2.0,-250.0,-2.0,-72.0,-2.0,30.0,-9.0,-964.0,126.0
-3.0,-248.0,0.0,-72.0,0.0,28.0,-6.0,-969.0,124.0
-1.0,-250.0,0.0,-73.0,0.0,26.0,-8.0,-965.0,126.0
-2.0,-249.0,-6.0,-74.0,0.0,27.0,-8.0,-967.0,122.0
-2.0,-249.0,-3.0,-76.0,1.0,26.0,-10.0,-971.0,123.0
-3.0,-252.0,-6.0,-78.0,2.0,28.0,-10.0,-973.0,121.0
-9.0,-246.0,-7.0,-79.0,3.0,28.0,-12.0,-981.0,116.0
-4.0,-254.0,-4.0,-79.0,2.0,27.0,-10.0,-983.0,115.0
-8.0,-252.0,0.0,-83.0,1.0,27.0,-14.0,-984.0,120.0
-2.0,-255.0,-3.0,-83.0,0.0,26.0,-13.0,-988.0,123.0
-5.0,-252.0,0.0,-80.0,-1.0,23.0,-12.0,-984.0,125.0
-4.0,-250.0,-3.0,-77.0,1.0,19.0,-12.0,-969.0,121.0
-1.0,-253.0,-4.0,-77.0,4.0,17.0,-10.0,-973.0,119.0
-5.0,-250.0,-3.0,-79.0,9.0,16.0,-12.0,-972.0,120.0
-4.0,-247.0,-1.0,-82.0,16.0,11.0,-9.0,-971.0,120.0
-3.0,-251.0,-3.0,-86.0,22.0,8.0,-8.0,-963.0,117.0
-4.0,-248.0,-4.0,-90.0,29.0,2.0,-7.0,-964.0,118.0
-6.0,-239.0,-17.0,-93.0,32.0,-2.0,-9.0,-968.0,118.0
-1.0,-247.0,0.0,-99.0,33.0,-2.0,-5.0,-964.0,118.0
-4.0,-245.0,-6.0,-104.0,33.0,-2.0,-3.0,-960.0,116.0
2.0,-250.0,-3.0,-109.0,28.0,-1.0,-7.0,-968.0,119.0
1.0,-246.0,-5.0,-110.0,19.0,0.0,1.0,-968.0,121.0
-1.0,-249.0,-4.0,-113.0,11.0,1.0,5.0,-966.0,123.0
-2.0,-246.0,0.0,-117.0,5.0,0.0,5.0,-974.0,125.0
-1.0,-248.0,-1.0,-128.0,-1.0,-2.0,8.0,-973.0,124.0
1.0,-249.0,-2.0,-145.0,-7.0,-5.0,5.0,-975.0,126.0
1.0,-250.0,1.0,-164.0,-9.0,-9.0,6.0,-971.0,130.0
0.0,-250.0,0.0,-180.0,-9.0,-13.0,4.0,-977.0,136.0
-4.0,-251.0,1.0,-190.0,-9.0,-23.0,8.0,-977.0,143.0
0.0,-251.0,7.0,-202.0,-7.0,-38.0,8.0,-985.0,134.0
3.0,-256.0,2.0,-217.0,-3.0,-54.0,14.0,-987.0,137.0
2.0,-253.0,3.0,-235.0,3.0,-72.0,18.0,-991.0,134.0
2.0,-254.0,6.0,-254.0,4.0,-87.0,16.0,-989.0,135.0
-2.0,-254.0,4.0,-265.0,3.0,-94.0,6.0,-990.0,137.0
1.0,-256.0,3.0,-265.0,-2.0,-96.0,6.0,-985.0,141.0
2.0,-251.0,-1.0,-251.0,-5.0,-89.0,7.0,-974.0,136.0
-1.0,-248.0,0.0,-225.0,-5.0,-78.0,7.0,-964.0,124.0
1.0,-246.0,-7.0,-209.0,-2.0,-64.0,3.0,-952.0,114.0
-1.0,-241.0,-8.0,-198.0,4.0,-49.0,3.0,-941.0,112.0
1.0,-249.0,6.0,-193.0,6.0,-34.0,0.0,-936.0,109.0
0.0,-238.0,-8.0,-193.0,9.0,-19.0,2.0,-929.0,102.0
1.0,-242.0,-5.0,-194.0,10.0,-6.0,1.0,-931.0,100.0
3.0,-242.0,-9.0,-199.0,8.0,6.0,16.0,-935.0,100.0
-1.0,-243.0,-7.0,-209.0,4.0,16.0,7.0,-941.0,101.0
-1.0,-245.0,-6.0,-218.0,0.0,26.0,6.0,-944.0,94.0
-1.0,-246.0,-6.0,-231.0,-6.0,32.0,5.0,-951.0,102.0
3.0,-248.0,-9.0,-242.0,-8.0,39.0,4.0,-951.0,96.0
1.0,-250.0,-9.0,-248.0,-5.0,42.0,6.0,-960.0,97.0
0.0,-251.0,-7.0,-250.0,-1.0,46.0,7.0,-969.0,92.0
3.0,-251.0,-12.0,-254.0,6.0,49.0,0.0,-975.0,95.0
1.0,-251.0,-13.0,-256.0,10.0,50.0,2.0,-977.0,83.0
1.0,-249.0,-13.0,-259.0,11.0,51.0,5.0,-976.0,77.0
0.0,-252.0,-17.0,-263.0,14.0,53.0,-2.0,-977.0,72.0
-1.0,-250.0,-16.0,-268.0,14.0,56.0,4.0,-975.0,62.0
-1.0,-247.0,-18.0,-271.0,13.0,61.0,-3.0,-976.0,62.0
-2.0,-250.0,-22.0,-274.0,11.0,66.0,-1.0,-972.0,52.0
-2.0,-249.0,-25.0,-277.0,10.0,68.0,-9.0,-966.0,44.0
-6.0,-249.0,-24.0,-279.0,11.0,68.0,-6.0,-963.0,36.0
-5.0,-248.0,-30.0,-288.0,10.0,67.0,-14.0,-960.0,31.0
-5.0,-248.0,-30.0,-292.0,12.0,63.0,-18.0,-952.0,14.0
-11.0,-247.0,-39.0,-303.0,12.0,61.0,-28.0,-968.0,2.0
-10.0,-251.0,-36.0,-317.0,10.0,58.0,-34.0,-978.0,-8.0
-11.0,-253.0,-43.0,-333.0,7.0,53.0,-41.0,-986.0,-10.0
-10.0,-257.0,-39.0,-337.0,8.0,52.0,-38.0,-997.0,-12.0
-15.0,-259.0,-38.0,-330.0,12.0,48.0,-47.0,-1004.0,-15.0
-12.0,-265.0,-36.0,-309.0,14.0,47.0,-46.0,-1022.0,-5.0
-15.0,-265.0,-29.0,-278.0,18.0,46.0,-54.0,-1032.0,2.0
-13.0,-265.0,-31.0,-242.0,23.0,43.0,-53.0,-1031.0,16.0
-14.0,-266.0,-28.0,-214.0,25.0,38.0,-51.0,-1022.0,20.0
-15.0,-262.0,-27.0,-193.0,24.0,31.0,-56.0,-1013.0,24.0
-15.0,-258.0,-20.0,-183.0,24.0,21.0,-48.0,-1002.0,41.0
-8.0,-261.0,-13.0,-176.0,20.0,10.0,-43.0,-987.0,47.0
-9.0,-249.0,-18.0,-178.0,12.0,0.0,-30.0,-971.0,55.0
-8.0,-239.0,-26.0,-187.0,8.0,-6.0,-24.0,-939.0,46.0
-2.0,-237.0,-27.0,-206.0,9.0,-6.0,-12.0,-917.0,41.0
-3.0,-232.0,-30.0,-235.0,9.0,-2.0,-11.0,-899.0,36.0
-2.0,-229.0,-26.0,-269.0,9.0,3.0,-7.0,-899.0,29.0
1.0,-232.0,-29.0,-312.0,11.0,7.0,-3.0,-902.0,20.0
-2.0,-231.0,-32.0,-360.0,15.0,9.0,-7.0,-903.0,16.0
-3.0,-235.0,-31.0,-418.0,20.0,14.0,-7.0,-909.0,11.0
-1.0,-235.0,-32.0,-476.0,26.0,24.0,-4.0,-920.0,4.0
-1.0,-237.0,-35.0,-535.0,30.0,37.0,-6.0,-919.0,11.0
-2.0,-231.0,-45.0,-585.0,31.0,49.0,-11.0,-934.0,13.0
-4.0,-241.0,-29.0,-628.0,30.0,56.0,-15.0,-940.0,21.0
-4.0,-241.0,-28.0,-665.0,30.0,59.0,-14.0,-942.0,23.0
-6.0,-241.0,-29.0,-699.0,33.0,62.0,-21.0,-944.0,15.0
-6.0,-241.0,-33.0,-734.0,33.0,68.0,-12.0,-941.0,10.0
-7.0,-242.0,-31.0,-770.0,37.0,73.0,-27.0,-945.0,2.0
-11.0,-244.0,-38.0,-807.0,36.0,78.0,-36.0,-945.0,-1.0
-13.0,-244.0,-34.0,-839.0,26.0,87.0,-49.0,-946.0,-18.0
-16.0,-241.0,-39.0,-873.0,10.0,93.0,-60.0,-941.0,-18.0
-16.0,-239.0,-37.0,-906.0,-8.0,97.0,-67.0,-927.0,-16.0
-21.0,-238.0,-38.0,-937.0,-24.0,104.0,-76.0,-914.0,-17.0
-26.0,-242.0,-17.0,-969.0,-35.0,109.0,-82.0,-912.0,-2.0
-18.0,-238.0,-28.0,-997.0,-40.0,111.0,-87.0,-908.0,18.0
-23.0,-233.0,-21.0,-1019.0,-38.0,114.0,-80.0,-902.0,46.0
-23.0,-230.0,-19.0,-1030.0,-36.0,116.0,-83.0,-898.0,65.0
-19.0,-228.0,-10.0,-1034.0,-29.0,120.0,-79.0,-886.0,93.0
-16.0,-221.0,-3.0,-1040.0,-24.0,126.0,-79.0,-865.0,115.0
-15.0,-221.0,2.0,-1053.0,-22.0,136.0,-70.0,-847.0,135.0
-20.0,-215.0,8.0,-1083.0,-19.0,143.0,-76.0,-847.0,152.0
-21.0,-214.0,13.0,-1127.0,-24.0,145.0,-76.0,-845.0,175.0
-17.0,-219.0,15.0,-1189.0,-23.0,146.0,-77.0,-851.0,188.0
-15.0,-222.0,18.0,-1262.0,-15.0,146.0,-60.0,-869.0,192.0
-21.0,-221.0,4.0,-1338.0,3.0,141.0,-57.0,-884.0,192.0
-16.0,-232.0,12.0,-1422.0,23.0,143.0,-68.0,-900.0,194.0
-16.0,-234.0,9.0,-1512.0,37.0,146.0,-72.0,-923.0,186.0
-16.0,-242.0,10.0,-1609.0,40.0,151.0,-75.0,-945.0,169.0
-16.0,-248.0,4.0,-1714.0,42.0,155.0,-75.0,-974.0,148.0
-17.0,-263.0,5.0,-1827.0,47.0,158.0,-66.0,-1020.0,146.0
-16.0,-267.0,1.0,-1934.0,47.0,150.0,-69.0,-1055.0,134.0
-6.0,-282.0,1.0,-2034.0,50.0,143.0,-37.0,-1098.0,132.0
0.0,-291.0,-9.0,-2115.0,64.0,134.0,-13.0,-1127.0,113.0
12.0,-301.0,-17.0,-2174.0,81.0,116.0,36.0,-1163.0,70.0
11.0,-298.0,-40.0,-2215.0,98.0,91.0,69.0,-1170.0,17.0
24.0,-304.0,-50.0,-2249.0,111.0,70.0,97.0,-1182.0,-50.0
30.0,-307.0,-68.0,-2280.0,118.0,51.0,116.0,-1185.0,-108.0
28.0,-305.0,-88.0,-2321.0,115.0,40.0,127.0,-1177.0,-180.0
27.0,-303.0,-99.0,-2385.0,98.0,34.0,116.0,-1187.0,-254.0
13.0,-308.0,-118.0,-2461.0,70.0,24.0,86.0,-1189.0,-309.0
10.0,-310.0,-123.0,-2541.0,35.0,7.0,44.0,-1195.0,-343.0
4.0,-313.0,-129.0,-2617.0,-11.0,-6.0,27.0,-1210.0,-374.0
-2.0,-322.0,-124.0,-2673.0,-55.0,-1.0,-9.0,-1246.0,-375.0
-4.0,-336.0,-118.0,-2686.0,-81.0,22.0,-12.0,-1281.0,-342.0
-7.0,-352.0,-114.0,-2647.0,-102.0,47.0,-31.0,-1342.0,-313.0
-3.0,-359.0,-136.0,-2564.0,-111.0,78.0,-36.0,-1390.0,-342.0
-6.0,-377.0,-119.0,-2456.0,-83.0,105.0,-28.0,-1424.0,-341.0
1.0,-381.0,-121.0,-2308.0,-49.0,113.0,-5.0,-1439.0,-356.0
2.0,-378.0,-140.0,-2128.0,-18.0,100.0,3.0,-1443.0,-398.0
-5.0,-369.0,-157.0,-1944.0,10.0,83.0,-21.0,-1410.0,-468.0
-13.0,-359.0,-170.0,-1780.0,42.0,80.0,-41.0,-1374.0,-523.0
-15.0,-351.0,-191.0,-1633.0,69.0,84.0,-56.0,-1350.0,-603.0
-19.0,-341.0,-203.0,-1535.0,85.0,82.0,-86.0,-1320.0,-673.0
-18.0,-335.0,-215.0,-1482.0,92.0,70.0,-84.0,-1294.0,-732.0
-20.0,-323.0,-222.0,-1455.0,90.0,49.0,-93.0,-1259.0,-765.0
-30.0,-323.0,-212.0,-1438.0,78.0,33.0,-84.0,-1199.0,-776.0
-14.0,-305.0,-224.0,-1429.0,62.0,34.0,-75.0,-1157.0,-774.0
-18.0,-290.0,-220.0,-1420.0,40.0,44.0,-72.0,-1107.0,-752.0
-15.0,-279.0,-208.0,-1398.0,12.0,69.0,-67.0,-1070.0,-732.0
-11.0,-275.0,-212.0,-1368.0,-18.0,97.0,-36.0,-1047.0,-708.0
-4.0,-268.0,-203.0,-1347.0,-47.0,119.0,-13.0,-1039.0,-688.0
-1.0,-265.0,-200.0,-1344.0,-69.0,130.0,3.0,-1035.0,-670.0
-1.0,-265.0,-198.0,-1348.0,-89.0,136.0,-2.0,-1030.0,-653.0
-5.0,-261.0,-194.0,-1358.0,-107.0,141.0,-8.0,-1017.0,-658.0
-10.0,-257.0,-199.0,-1360.0,-128.0,144.0,-22.0,-1005.0,-660.0
-11.0,-257.0,-199.0,-1356.0,-148.0,145.0,-41.0,-987.0,-662.0
-3.0,-237.0,-179.0,-1348.0,-167.0,144.0,-66.0,-983.0,-664.0
-17.0,-253.0,-201.0,-1334.0,-181.0,139.0,-80.0,-973.0,-671.0
-24.0,-252.0,-198.0,-1311.0,-191.0,131.0,-98.0,-958.0,-678.0
-26.0,-250.0,-202.0,-1279.0,-196.0,118.0,-114.0,-954.0,-685.0
-31.0,-250.0,-205.0,-1247.0,-193.0,108.0,-124.0,-950.0,-686.0
-24.0,-250.0,-202.0,-1216.0,-183.0,95.0,-110.0,-954.0,-687.0
-22.0,-249.0,-199.0,-1188.0,-164.0,78.0,-92.0,-965.0,-683.0
-19.0,-255.0,-200.0,-1163.0,-132.0,55.0,-82.0,-974.0,-675.0
-17.0,-254.0,-198.0,-1131.0,-94.0,32.0,-80.0,-982.0,-675.0
-14.0,-254.0,-194.0,-1092.0,-60.0,9.0,-68.0,-980.0,-663.0
-21.0,-243.0,-211.0,-1048.0,-30.0,-10.0,-63.0,-971.0,-660.0
-15.0,-248.0,-194.0,-1003.0,-14.0,-26.0,-45.0,-957.0,-660.0
-12.0,-243.0,-200.0,-955.0,-8.0,-41.0,-45.0,-932.0,-673.0
-11.0,-237.0,-202.0,-915.0,-12.0,-55.0,-37.0,-913.0,-678.0
-9.0,-227.0,-204.0,-889.0,-20.0,-72.0,-38.0,-872.0,-687.0
-8.0,-223.0,-203.0,-875.0,-35.0,-90.0,-36.0,-859.0,-688.0
-8.0,-215.0,-204.0,-869.0,-47.0,-110.0,-38.0,-827.0,-689.0
-10.0,-211.0,-205.0,-871.0,-62.0,-122.0,-42.0,-810.0,-691.0
-15.0,-210.0,-202.0,-867.0,-82.0,-130.0,-51.0,-804.0,-681.0
-16.0,-212.0,-204.0,-858.0,-104.0,-128.0,-66.0,-799.0,-678.0
-16.0,-214.0,-203.0,-834.0,-125.0,-121.0,-71.0,-803.0,-671.0
-15.0,-205.0,-212.0,-803.0,-146.0,-114.0,-87.0,-810.0,-668.0
-25.0,-213.0,-201.0,-765.0,-169.0,-102.0,-101.0,-808.0,-678.0
-27.0,-213.0,-196.0,-727.0,-185.0,-91.0,-100.0,-808.0,-672.0
-26.0,-214.0,-196.0,-691.0,-194.0,-80.0,-100.0,-810.0,-671.0
-30.0,-210.0,-195.0,-656.0,-193.0,-74.0,-113.0,-807.0,-659.0
-26.0,-213.0,-193.0,-619.0,-185.0,-71.0,-105.0,-808.0,-653.0
-23.0,-215.0,-194.0,-579.0,-174.0,-69.0,-100.0,-809.0,-642.0
-20.0,-214.0,-188.0,-532.0,-163.0,-66.0,-95.0,-810.0,-624.0
-25.0,-212.0,-186.0,-480.0,-153.0,-74.0,-85.0,-804.0,-624.0
-19.0,-209.0,-187.0,-426.0,-140.0,-79.0,-90.0,-804.0,-622.0
-22.0,-205.0,-185.0,-375.0,-133.0,-82.0,-76.0,-790.0,-613.0
-8.0,-198.0,-193.0,-328.0,-129.0,-90.0,-72.0,-781.0,-604.0
-16.0,-198.0,-181.0,-284.0,-127.0,-99.0,-67.0,-762.0,-599.0
-15.0,-193.0,-180.0,-244.0,-123.0,-104.0,-54.0,-750.0,-596.0
-13.0,-189.0,-184.0,-218.0,-122.0,-104.0,-55.0,-715.0,-586.0
-14.0,-182.0,-179.0,-197.0,-129.0,-101.0,-48.0,-707.0,-591.0
-11.0,-177.0,-183.0,-183.0,-140.0,-103.0,-46.0,-689.0,-594.0
-15.0,-179.0,-182.0,-169.0,-151.0,-101.0,-54.0,-665.0,-587.0
-13.0,-169.0,-180.0,-157.0,-164.0,-101.0,-48.0,-655.0,-586.0
-11.0,-170.0,-183.0,-144.0,-177.0,-98.0,-47.0,-640.0,-585.0
-9.0,-166.0,-181.0,-133.0,-184.0,-95.0,-40.0,-630.0,-588.0
-15.0,-164.0,-184.0,-121.0,-188.0,-99.0,-48.0,-628.0,-602.0
-7.0,-148.0,-202.0,-117.0,-186.0,-94.0,-36.0,-613.0,-588.0
-9.0,-160.0,-185.0,-106.0,-185.0,-98.0,-32.0,-609.0,-597.0
-14.0,-159.0,-187.0,-99.0,-181.0,-111.0,-49.0,-609.0,-615.0
-11.0,-156.0,-184.0,-104.0,-179.0,-106.0,-40.0,-598.0,-623.0
-16.0,-152.0,-192.0,-104.0,-192.0,-108.0,-47.0,-584.0,-633.0
-14.0,-154.0,-190.0,-105.0,-214.0,-108.0,-67.0,-582.0,-636.0
-15.0,-146.0,-186.0,-108.0,-238.0,-102.0,-47.0,-564.0,-607.0
-22.0,-150.0,-190.0,-112.0,-264.0,-108.0,-76.0,-569.0,-624.0
-25.0,-156.0,-192.0,-132.0,-277.0,-91.0,-119.0,-597.0,-643.0
-19.0,-151.0,-194.0,-159.0,-288.0,-63.0,-79.0,-571.0,-629.0
-23.0,-146.0,-187.0,-164.0,-304.0,-69.0,-84.0,-556.0,-620.0
-36.0,-137.0,-204.0,-161.0,-320.0,-72.0,-124.0,-577.0,-655.0
-19.0,-148.0,-191.0,-172.0,-330.0,-37.0,-85.0,-565.0,-644.0
-19.0,-144.0,-193.0,-176.0,-341.0,-18.0,-70.0,-546.0,-636.0
-21.0,-144.0,-198.0,-179.0,-345.0,-39.0,-89.0,-551.0,-657.0
-21.0,-139.0,-195.0,-192.0,-336.0,-45.0,-84.0,-536.0,-660.0
-19.0,-143.0,-197.0,-213.0,-334.0,-22.0,-102.0,-554.0,-673.0
-10.0,-138.0,-193.0,-238.0,-335.0,23.0,-38.0,-516.0,-636.0
-14.0,-131.0,-190.0,-232.0,-339.0,15.0,-48.0,-502.0,-642.0
-8.0,-135.0,-191.0,-212.0,-330.0,2.0,-45.0,-510.0,-644.0
-14.0,-138.0,-192.0,-192.0,-310.0,11.0,-41.0,-521.0,-633.0
-9.0,-139.0,-188.0,-154.0,-288.0,19.0,-35.0,-518.0,-624.0
-2.0,-142.0,-190.0,-94.0,-261.0,11.0,-25.0,-519.0,-625.0
-3.0,-143.0,-189.0,-23.0,-226.0,0.0,-17.0,-545.0,-618.0
-4.0,-147.0,-187.0,43.0,-188.0,3.0,-14.0,-549.0,-617.0
-3.0,-147.0,-189.0,113.0,-146.0,5.0,-28.0,-553.0,-627.0
4.0,-144.0,-186.0,177.0,-100.0,14.0,5.0,-534.0,-628.0
-1.0,-133.0,-190.0,236.0,-44.0,-1.0,-8.0,-510.0,-639.0
0.0,-132.0,-193.0,282.0,20.0,-4.0,-9.0,-504.0,-641.0
-5.0,-129.0,-192.0,314.0,83.0,3.0,-15.0,-489.0,-647.0
-2.0,-125.0,-192.0,336.0,138.0,17.0,-22.0,-470.0,-636.0
-1.0,-121.0,-190.0,347.0,191.0,34.0,-16.0,-449.0,-633.0
-7.0,-112.0,-189.0,345.0,238.0,50.0,-24.0,-424.0,-623.0
-7.0,-109.0,-183.0,337.0,279.0,63.0,-27.0,-414.0,-608.0
-11.0,-106.0,-184.0,325.0,307.0,74.0,-41.0,-395.0,-606.0
-13.0,-100.0,-182.0,305.0,328.0,86.0,-56.0,-383.0,-599.0
-15.0,-98.0,-180.0,274.0,343.0,100.0,-69.0,-375.0,-586.0
-17.0,-97.0,-177.0,244.0,346.0,117.0,-76.0,-362.0,-578.0
-21.0,-96.0,-178.0,225.0,341.0,130.0,-92.0,-356.0,-582.0
-27.0,-95.0,-176.0,198.0,336.0,141.0,-112.0,-346.0,-580.0
-29.0,-93.0,-175.0,171.0,327.0,153.0,-115.0,-355.0,-573.0
-32.0,-96.0,-176.0,148.0,315.0,166.0,-121.0,-355.0,-579.0
-32.0,-103.0,-179.0,133.0,294.0,179.0,-129.0,-362.0,-575.0
-33.0,-97.0,-180.0,120.0,273.0,189.0,-137.0,-370.0,-579.0
-34.0,-102.0,-184.0,119.0,257.0,198.0,-139.0,-382.0,-586.0
-31.0,-102.0,-185.0,120.0,250.0,205.0,-122.0,-385.0,-600.0
-29.0,-102.0,-188.0,126.0,253.0,207.0,-117.0,-390.0,-609.0
-25.0,-106.0,-188.0,129.0,266.0,206.0,-111.0,-398.0,-617.0
-27.0,-109.0,-188.0,130.0,288.0,202.0,-103.0,-396.0,-626.0
-17.0,-112.0,-196.0,129.0,317.0,196.0,-87.0,-415.0,-643.0
-15.0,-110.0,-197.0,124.0,358.0,187.0,-70.0,-406.0,-659.0
-11.0,-111.0,-199.0,117.0,396.0,177.0,-41.0,-423.0,-663.0
-10.0,-113.0,-201.0,106.0,431.0,160.0,-45.0,-428.0,-685.0
-11.0,-115.0,-204.0,86.0,466.0,146.0,-39.0,-435.0,-688.0
-8.0,-118.0,-206.0,73.0,492.0,135.0,-37.0,-443.0,-691.0
-10.0,-117.0,-206.0,62.0,507.0,125.0,-38.0,-442.0,-695.0
-15.0,-118.0,-202.0,54.0,508.0,114.0,-48.0,-443.0,-698.0
-17.0,-119.0,-206.0,49.0,493.0,107.0,-64.0,-448.0,-692.0
-22.0,-121.0,-203.0,48.0,464.0,101.0,-88.0,-453.0,-682.0
-29.0,-121.0,-199.0,54.0,426.0,99.0,-119.0,-456.0,-671.0
-37.0,-122.0,-197.0,65.0,384.0,99.0,-146.0,-460.0,-664.0
-43.0,-123.0,-198.0,76.0,338.0,101.0,-166.0,-462.0,-649.0
-51.0,-121.0,-196.0,88.0,291.0,103.0,-185.0,-462.0,-649.0
-52.0,-126.0,-193.0,95.0,252.0,106.0,-202.0,-473.0,-647.0
-54.0,-124.0,-192.0,100.0,217.0,111.0,-204.0,-479.0,-646.0
-56.0,-125.0,-192.0,97.0,188.0,118.0,-207.0,-484.0,-648.0
-54.0,-131.0,-198.0,88.0,159.0,126.0,-213.0,-497.0,-653.0
-52.0,-131.0,-199.0,77.0,133.0,136.0,-203.0,-503.0,-666.0
-49.0,-133.0,-202.0,60.0,110.0,142.0,-193.0,-510.0,-683.0
-48.0,-136.0,-203.0,37.0,95.0,149.0,-179.0,-514.0,-697.0
-38.0,-140.0,-212.0,8.0,89.0,152.0,-159.0,-517.0,-710.0
-29.0,-138.0,-213.0,-23.0,93.0,149.0,-128.0,-534.0,-729.0
-23.0,-138.0,-211.0,-60.0,106.0,141.0,-86.0,-535.0,-731.0
-15.0,-142.0,-217.0,-93.0,128.0,131.0,-56.0,-533.0,-736.0
-10.0,-142.0,-214.0,-122.0,155.0,119.0,-33.0,-546.0,-738.0
-3.0,-144.0,-216.0,-148.0,186.0,105.0,-15.0,-548.0,-731.0
1.0,-147.0,-217.0,-162.0,211.0,92.0,-3.0,-556.0,-724.0
2.0,-148.0,-209.0,-163.0,227.0,82.0,9.0,-557.0,-708.0
0.0,-150.0,-202.0,-148.0,228.0,75.0,18.0,-566.0,-692.0
0.0,-150.0,-199.0,-120.0,214.0,71.0,8.0,-572.0,-679.0
-1.0,-156.0,-198.0,-88.0,195.0,70.0,-6.0,-580.0,-663.0
-7.0,-154.0,-194.0,-56.0,168.0,70.0,-21.0,-584.0,-665.0
-10.0,-155.0,-193.0,-32.0,137.0,74.0,-39.0,-590.0,-663.0
-15.0,-158.0,-195.0,-13.0,101.0,81.0,-64.0,-597.0,-667.0
-24.0,-161.0,-199.0,-1.0,58.0,93.0,-101.0,-598.0,-663.0
-36.0,-160.0,-197.0,6.0,12.0,110.0,-134.0,-611.0,-659.0
-41.0,-164.0,-197.0,18.0,-41.0,127.0,-167.0,-616.0,-662.0
-48.0,-160.0,-199.0,29.0,-95.0,146.0,-186.0,-617.0,-669.0
-56.0,-159.0,-201.0,36.0,-147.0,164.0,-205.0,-609.0,-689.0
-56.0,-160.0,-208.0,32.0,-191.0,179.0,-214.0,-597.0,-706.0
-55.0,-157.0,-213.0,20.0,-226.0,193.0,-218.0,-591.0,-723.0
-58.0,-155.0,-219.0,2.0,-246.0,204.0,-219.0,-589.0,-740.0
-54.0,-153.0,-222.0,-16.0,-250.0,212.0,-211.0,-580.0,-762.0
-49.0,-151.0,-226.0,-37.0,-239.0,218.0,-194.0,-574.0,-773.0
-44.0,-150.0,-229.0,-50.0,-215.0,219.0,-178.0,-570.0,-774.0
-35.0,-150.0,-224.0,-51.0,-181.0,215.0,-150.0,-564.0,-770.0
-26.0,-148.0,-227.0,-44.0,-138.0,208.0,-114.0,-556.0,-770.0
-16.0,-146.0,-219.0,-26.0,-88.0,197.0,-75.0,-553.0,-762.0
-9.0,-146.0,-218.0,-2.0,-31.0,180.0,-34.0,-553.0,-746.0
1.0,-149.0,-213.0,26.0,23.0,161.0,-10.0,-550.0,-716.0
4.0,-148.0,-204.0,58.0,70.0,139.0,13.0,-559.0,-696.0
11.0,-145.0,-199.0,92.0,107.0,118.0,35.0,-554.0,-660.0
16.0,-144.0,-193.0,123.0,134.0,96.0,48.0,-527.0,-643.0
14.0,-141.0,-188.0,151.0,147.0,76.0,51.0,-521.0,-628.0
17.0,-134.0,-185.0,167.0,150.0,60.0,56.0,-511.0,-607.0
10.0,-130.0,-180.0,173.0,144.0,47.0,48.0,-502.0,-595.0
11.0,-131.0,-180.0,172.0,136.0,41.0,34.0,-499.0,-584.0
5.0,-131.0,-179.0,160.0,128.0,37.0,7.0,-492.0,-585.0
-2.0,-125.0,-180.0,145.0,121.0,36.0,-15.0,-484.0,-591.0
-11.0,-125.0,-181.0,126.0,112.0,39.0,-44.0,-476.0,-603.0
-16.0,-121.0,-186.0,102.0,100.0,49.0,-75.0,-465.0,-619.0
-29.0,-118.0,-187.0,76.0,85.0,59.0,-95.0,-454.0,-630.0
-28.0,-120.0,-197.0,48.0,67.0,71.0,-117.0,-455.0,-649.0
-34.0,-117.0,-196.0,15.0,52.0,80.0,-137.0,-451.0,-664.0
-37.0,-117.0,-205.0,-17.0,41.0,89.0,-142.0,-444.0,-667.0
-41.0,-116.0,-198.0,-44.0,35.0,99.0,-156.0,-443.0,-667.0
-41.0,-120.0,-203.0,-61.0,31.0,107.0,-160.0,-453.0,-668.0
-45.0,-121.0,-198.0,-60.0,31.0,113.0,-166.0,-459.0,-654.0
-45.0,-124.0,-189.0,-40.0,35.0,124.0,-171.0,-471.0,-639.0
-39.0,-132.0,-188.0,-1.0,42.0,135.0,-159.0,-489.0,-630.0
-37.0,-135.0,-188.0,53.0,54.0,140.0,-142.0,-509.0,-618.0
-29.0,-145.0,-182.0,115.0,66.0,148.0,-126.0,-528.0,-600.0
-19.0,-144.0,-181.0,186.0,80.0,157.0,-92.0,-550.0,-587.0
-12.0,-152.0,-173.0,263.0,92.0,164.0,-64.0,-562.0,-573.0
-8.0,-156.0,-176.0,336.0,104.0,170.0,-33.0,-571.0,-561.0
-10.0,-154.0,-167.0,414.0,112.0,182.0,-24.0,-572.0,-544.0
-8.0,-154.0,-164.0,494.0,113.0,197.0,-21.0,-577.0,-518.0
-11.0,-156.0,-162.0,580.0,96.0,213.0,-33.0,-571.0,-515.0
-17.0,-147.0,-161.0,665.0,60.0,233.0,-63.0,-562.0,-528.0
-25.0,-143.0,-166.0,742.0,14.0,260.0,-89.0,-542.0,-539.0
-31.0,-137.0,-175.0,806.0,-43.0,292.0,-125.0,-508.0,-572.0
-41.0,-125.0,-187.0,842.0,-91.0,325.0,-157.0,-470.0,-606.0
-43.0,-115.0,-199.0,847.0,-130.0,358.0,-174.0,-430.0,-675.0
-47.0,-107.0,-213.0,821.0,-152.0,381.0,-182.0,-395.0,-706.0
-46.0,-106.0,-219.0,772.0,-156.0,388.0,-177.0,-402.0,-722.0
-38.0,-113.0,-215.0,710.0,-143.0,372.0,-168.0,-432.0,-732.0
-32.0,-123.0,-206.0,643.0,-103.0,339.0,-150.0,-479.0,-700.0
-39.0,-135.0,-195.0,586.0,-25.0,286.0,-167.0,-524.0,-645.0
-45.0,-151.0,-184.0,546.0,70.0,236.0,-189.0,-575.0,-614.0
-47.0,-160.0,-180.0,518.0,155.0,196.0,-188.0,-623.0,-591.0
-37.0,-176.0,-178.0,506.0,232.0,156.0,-154.0,-674.0,-589.0
-28.0,-187.0,-179.0,511.0,297.0,124.0,-115.0,-707.0,-605.0
-5.0,-198.0,-190.0,529.0,344.0,97.0,-24.0,-745.0,-629.0
25.0,-209.0,-201.0,562.0,369.0,63.0,82.0,-777.0,-685.0
38.0,-214.0,-203.0,607.0,390.0,18.0,149.0,-806.0,-686.0
43.0,-224.0,-204.0,673.0,397.0,-29.0,169.0,-837.0,-676.0
44.0,-236.0,-192.0,767.0,380.0,-80.0,175.0,-888.0,-646.0
39.0,-252.0,-181.0,879.0,329.0,-129.0,163.0,-960.0,-600.0
33.0,-263.0,-175.0,1018.0,237.0,-191.0,142.0,-992.0,-574.0
20.0,-275.0,-165.0,1155.0,117.0,-230.0,102.0,-1041.0,-539.0
13.0,-279.0,-155.0,1285.0,-29.0,-254.0,84.0,-1054.0,-493.0
1.0,-276.0,-143.0,1402.0,-185.0,-263.0,35.0,-1056.0,-453.0
5.0,-287.0,-133.0,1502.0,-347.0,-248.0,38.0,-1083.0,-419.0
1.0,-288.0,-130.0,1589.0,-513.0,-241.0,29.0,-1100.0,-391.0
-6.0,-294.0,-129.0,1679.0,-669.0,-242.0,-2.0,-1125.0,-393.0
-8.0,-302.0,-143.0,1755.0,-802.0,-266.0,-31.0,-1154.0,-448.0
-20.0,-311.0,-166.0,1802.0,-881.0,-336.0,-81.0,-1192.0,-535.0
-20.0,-329.0,-183.0,1805.0,-878.0,-431.0,-105.0,-1269.0,-595.0
-15.0,-359.0,-193.0,1779.0,-790.0,-552.0,-96.0,-1360.0,-639.0
-14.0,-390.0,-175.0,1764.0,-606.0,-712.0,-106.0,-1477.0,-587.0
-11.0,-442.0,-159.0,1829.0,-324.0,-875.0,-80.0,-1673.0,-513.0
13.0,-519.0,-107.0,1976.0,20.0,-1000.0,-15.0,-1940.0,-305.0
25.0,-614.0,-137.0,2221.0,403.0,-1071.0,46.0,-2352.0,-399.0
22.0,-652.0,-263.0,2372.0,758.0,-1105.0,38.0,-2564.0,-1023.0
-33.0,-648.0,-420.0,2138.0,1072.0,-1072.0,-118.0,-2654.0,-1640.0
-113.0,-699.0,-457.0,1337.0,1287.0,-912.0,-516.0,-2778.0,-1703.0
-236.0,-766.0,-355.0,868.0,1339.0,-710.0,-904.0,-2965.0,-1301.0
-345.0,-790.0,-298.0,1012.0,1075.0,-559.0,-1291.0,-3025.0,-1097.0
-397.0,-778.0,-286.0,1469.0,564.0,-485.0,-1490.0,-2965.0,-1023.0
-333.0,-679.0,-204.0,1792.0,96.0,-455.0,-1208.0,-2603.0,-666.0
-216.0,-614.0,-87.0,1990.0,-161.0,-348.0,-801.0,-2343.0,-186.0
-173.0,-552.0,16.0,2163.0,-309.0,-204.0,-647.0,-2115.0,197.0
-153.0,-491.0,82.0,2340.0,-404.0,-31.0,-607.0,-1885.0,461.0
-136.0,-423.0,104.0,2471.0,-420.0,161.0,-533.0,-1622.0,545.0
-100.0,-338.0,85.0,2511.0,-340.0,345.0,-397.0,-1323.0,472.0
-23.0,-253.0,31.0,2451.0,-167.0,447.0,-109.0,-1006.0,259.0
32.0,-138.0,-17.0,2187.0,65.0,401.0,95.0,-567.0,89.0
53.0,4.0,-9.0,1674.0,268.0,264.0,209.0,-55.0,112.0
63.0,133.0,65.0,988.0,318.0,158.0,293.0,434.0,403.0
76.0,224.0,131.0,259.0,153.0,168.0,346.0,774.0,665.0
86.0,248.0,161.0,-483.0,-126.0,239.0,379.0,878.0,791.0
78.0,212.0,183.0,-1158.0,-414.0,300.0,339.0,755.0,859.0
48.0,104.0,159.0,-1624.0,-684.0,324.0,227.0,378.0,778.0
27.0,-19.0,96.0,-1838.0,-866.0,291.0,104.0,-45.0,530.0
13.0,-144.0,39.0,-1765.0,-852.0,200.0,-5.0,-498.0,299.0
7.0,-252.0,-22.0,-1384.0,-580.0,91.0,-34.0,-869.0,72.0
1.0,-314.0,-59.0,-744.0,-177.0,-40.0,-41.0,-1095.0,-77.0
-6.0,-336.0,-63.0,-3.0,215.0,-184.0,-54.0,-1199.0,-114.0
3.0,-339.0,-55.0,620.0,524.0,-282.0,-6.0,-1283.0,-89.0
19.0,-349.0,-43.0,1023.0,717.0,-350.0,74.0,-1335.0,-54.0
37.0,-346.0,-44.0,1240.0,795.0,-416.0,142.0,-1343.0,-46.0
43.0,-333.0,-46.0,1307.0,803.0,-482.0,172.0,-1299.0,-33.0
39.0,-309.0,-48.0,1299.0,764.0,-531.0,161.0,-1193.0,-59.0
23.0,-279.0,-58.0,1252.0,694.0,-555.0,116.0,-1099.0,-99.0
16.0,-260.0,-64.0,1206.0,602.0,-556.0,84.0,-1007.0,-126.0
4.0,-238.0,-71.0,1160.0,483.0,-544.0,47.0,-941.0,-176.0
-3.0,-245.0,-86.0,1088.0,365.0,-499.0,2.0,-953.0,-211.0
-13.0,-249.0,-87.0,988.0,264.0,-440.0,-38.0,-985.0,-213.0
-19.0,-263.0,-83.0,891.0,196.0,-386.0,-79.0,-1044.0,-195.0
-29.0,-283.0,-85.0,828.0,171.0,-347.0,-127.0,-1097.0,-197.0
-35.0,-298.0,-81.0,805.0,194.0,-311.0,-143.0,-1154.0,-198.0
-34.0,-312.0,-86.0,825.0,243.0,-287.0,-143.0,-1210.0,-217.0
-34.0,-320.0,-84.0,855.0,295.0,-284.0,-132.0,-1240.0,-214.0
-39.0,-317.0,-83.0,892.0,349.0,-293.0,-165.0,-1224.0,-200.0
-38.0,-314.0,-79.0,927.0,399.0,-287.0,-130.0,-1208.0,-194.0
-35.0,-297.0,-74.0,926.0,421.0,-278.0,-138.0,-1156.0,-178.0
-34.0,-283.0,-73.0,888.0,418.0,-248.0,-130.0,-1098.0,-156.0
-33.0,-265.0,-67.0,834.0,385.0,-208.0,-127.0,-1030.0,-138.0
-28.0,-250.0,-63.0,781.0,338.0,-166.0,-105.0,-974.0,-120.0
-22.0,-238.0,-62.0,734.0,292.0,-132.0,-87.0,-917.0,-109.0
-16.0,-221.0,-58.0,686.0,253.0,-110.0,-66.0,-862.0,-105.0
-12.0,-210.0,-59.0,625.0,231.0,-100.0,-41.0,-817.0,-104.0
-7.0,-199.0,-62.0,561.0,228.0,-90.0,-28.0,-785.0,-94.0
-1.0,-200.0,-51.0,492.0,220.0,-75.0,1.0,-784.0,-67.0
9.0,-209.0,-47.0,435.0,195.0,-59.0,30.0,-811.0,-53.0
6.0,-220.0,-47.0,384.0,160.0,-43.0,29.0,-858.0,-46.0
11.0,-230.0,-41.0,340.0,132.0,-21.0,43.0,-899.0,-22.0
15.0,-242.0,-38.0,309.0,113.0,-2.0,49.0,-935.0,-15.0
13.0,-248.0,-40.0,297.0,113.0,18.0,55.0,-963.0,-15.0
13.0,-258.0,-34.0,303.0,128.0,31.0,49.0,-988.0,-15.0
10.0,-254.0,-33.0,326.0,141.0,34.0,44.0,-992.0,-7.0
10.0,-258.0,-36.0,353.0,149.0,29.0,40.0,-995.0,-2.0
5.0,-256.0,-37.0,373.0,155.0,16.0,27.0,-982.0,-4.0
8.0,-248.0,-31.0,388.0,163.0,2.0,29.0,-972.0,-3.0
6.0,-248.0,-35.0,398.0,168.0,-12.0,19.0,-953.0,7.0
6.0,-243.0,-31.0,404.0,179.0,-23.0,27.0,-940.0,4.0
3.0,-243.0,-31.0,406.0,191.0,-37.0,25.0,-933.0,6.0
2.0,-239.0,-32.0,402.0,199.0,-45.0,23.0,-932.0,15.0
5.0,-243.0,-32.0,394.0,200.0,-53.0,6.0,-937.0,3.0
0.0,-242.0,-34.0,386.0,197.0,-59.0,10.0,-943.0,7.0
-1.0,-244.0,-35.0,372.0,185.0,-65.0,-5.0,-953.0,5.0
-1.0,-245.0,-34.0,355.0,173.0,-71.0,-5.0,-956.0,-13.0
-1.0,-244.0,-38.0,340.0,161.0,-77.0,-2.0,-953.0,-9.0
1.0,-247.0,-37.0,329.0,149.0,-88.0,8.0,-953.0,-11.0
6.0,-249.0,-39.0,328.0,143.0,-98.0,22.0,-957.0,-13.0
6.0,-249.0,-41.0,327.0,138.0,-110.0,31.0,-964.0,-17.0
7.0,-247.0,-37.0,319.0,128.0,-127.0,33.0,-964.0,-20.0
5.0,-248.0,-41.0,304.0,115.0,-142.0,22.0,-965.0,-20.0
3.0,-248.0,-43.0,280.0,97.0,-148.0,15.0,-972.0,-24.0
2.0,-249.0,-42.0,254.0,83.0,-146.0,7.0,-965.0,-33.0
0.0,-249.0,-48.0,228.0,67.0,-135.0,6.0,-968.0,-46.0
-4.0,-247.0,-54.0,196.0,40.0,-124.0,-11.0,-954.0,-76.0
-5.0,-248.0,-57.0,155.0,10.0,-111.0,-17.0,-952.0,-102.0
-8.0,-244.0,-70.0,108.0,-25.0,-95.0,-27.0,-950.0,-149.0
-13.0,-239.0,-79.0,48.0,-58.0,-79.0,-57.0,-938.0,-189.0
-13.0,-240.0,-86.0,-9.0,-83.0,-58.0,-53.0,-929.0,-204.0
-14.0,-243.0,-88.0,-54.0,-105.0,-46.0,-51.0,-929.0,-215.0
-13.0,-240.0,-85.0,-94.0,-119.0,-41.0,-48.0,-933.0,-216.0
-14.0,-242.0,-85.0,-120.0,-122.0,-35.0,-46.0,-925.0,-199.0
-12.0,-239.0,-82.0,-129.0,-117.0,-31.0,-43.0,-925.0,-176.0
-10.0,-238.0,-76.0,-119.0,-110.0,-28.0,-33.0,-921.0,-150.0
-5.0,-240.0,-64.0,-97.0,-119.0,-30.0,-15.0,-929.0,-127.0
-1.0,-241.0,-63.0,-78.0,-143.0,-37.0,-6.0,-927.0,-115.0
4.0,-241.0,-60.0,-68.0,-172.0,-43.0,21.0,-931.0,-98.0
12.0,-241.0,-56.0,-70.0,-196.0,-53.0,50.0,-933.0,-96.0
16.0,-242.0,-57.0,-85.0,-214.0,-65.0,69.0,-936.0,-86.0
21.0,-242.0,-57.0,-107.0,-225.0,-73.0,87.0,-938.0,-81.0
24.0,-243.0,-55.0,-136.0,-231.0,-81.0,91.0,-947.0,-76.0
27.0,-244.0,-54.0,-174.0,-229.0,-86.0,103.0,-956.0,-79.0
25.0,-249.0,-55.0,-216.0,-233.0,-91.0,95.0,-963.0,-80.0
22.0,-248.0,-58.0,-258.0,-242.0,-93.0,93.0,-977.0,-94.0
24.0,-251.0,-59.0,-297.0,-253.0,-95.0,94.0,-980.0,-107.0
23.0,-255.0,-65.0,-327.0,-261.0,-93.0,90.0,-985.0,-122.0
26.0,-257.0,-69.0,-351.0,-264.0,-90.0,90.0,-993.0,-140.0
23.0,-258.0,-69.0,-361.0,-261.0,-85.0,83.0,-1002.0,-151.0
23.0,-262.0,-75.0,-362.0,-254.0,-79.0,91.0,-1011.0,-160.0
25.0,-263.0,-74.0,-351.0,-247.0,-68.0,88.0,-1025.0,-162.0
22.0,-267.0,-75.0,-326.0,-241.0,-62.0,87.0,-1030.0,-171.0
27.0,-269.0,-75.0,-292.0,-232.0,-58.0,94.0,-1039.0,-169.0
26.0,-267.0,-75.0,-254.0,-214.0,-55.0,99.0,-1043.0,-162.0
28.0,-267.0,-72.0,-212.0,-193.0,-56.0,102.0,-1037.0,-161.0
29.0,-264.0,-71.0,-168.0,-168.0,-60.0,112.0,-1023.0,-156.0
28.0,-265.0,-71.0,-126.0,-144.0,-63.0,101.0,-1012.0,-154.0
26.0,-262.0,-72.0,-86.0,-123.0,-69.0,101.0,-1010.0,-155.0
27.0,-260.0,-76.0,-56.0,-108.0,-73.0,95.0,-1004.0,-152.0
22.0,-259.0,-71.0,-36.0,-96.0,-78.0,87.0,-995.0,-142.0
16.0,-253.0,-70.0,-26.0,-86.0,-83.0,71.0,-986.0,-138.0
20.0,-253.0,-68.0,-18.0,-75.0,-85.0,74.0,-974.0,-136.0
15.0,-250.0,-64.0,-19.0,-66.0,-91.0,62.0,-968.0,-121.0
13.0,-251.0,-59.0,-27.0,-59.0,-94.0,52.0,-970.0,-118.0
10.0,-248.0,-60.0,-38.0,-59.0,-92.0,46.0,-975.0,-113.0
8.0,-250.0,-60.0,-50.0,-64.0,-91.0,37.0,-978.0,-114.0
6.0,-252.0,-64.0,-64.0,-73.0,-85.0,27.0,-974.0,-116.0
-1.0,-255.0,-65.0,-75.0,-85.0,-76.0,16.0,-982.0,-119.0
0.0,-252.0,-67.0,-79.0,-98.0,-66.0,1.0,-979.0,-133.0
-5.0,-251.0,-67.0,-81.0,-113.0,-57.0,-10.0,-982.0,-132.0
-6.0,-250.0,-65.0,-79.0,-126.0,-44.0,-14.0,-974.0,-124.0
-5.0,-251.0,-67.0,-76.0,-136.0,-34.0,-15.0,-971.0,-129.0
-9.0,-250.0,-64.0,-74.0,-145.0,-23.0,-26.0,-961.0,-132.0
-6.0,-250.0,-64.0,-69.0,-153.0,-10.0,-14.0,-965.0,-118.0
-5.0,-248.0,-57.0,-61.0,-161.0,4.0,-14.0,-969.0,-99.0
-6.0,-251.0,-60.0,-56.0,-173.0,18.0,-18.0,-963.0,-101.0
-9.0,-250.0,-58.0,-55.0,-183.0,35.0,-30.0,-967.0,-97.0
-7.0,-250.0,-61.0,-51.0,-198.0,50.0,-26.0,-968.0,-100.0
-7.0,-249.0,-61.0,-52.0,-212.0,62.0,-27.0,-969.0,-105.0
-11.0,-250.0,-60.0,-57.0,-229.0,73.0,-32.0,-965.0,-117.0
-12.0,-251.0,-62.0,-60.0,-242.0,82.0,-34.0,-976.0,-109.0
-12.0,-258.0,-64.0,-64.0,-248.0,87.0,-37.0,-982.0,-117.0
-8.0,-258.0,-67.0,-68.0,-246.0,86.0,-41.0,-995.0,-117.0
-10.0,-263.0,-64.0,-65.0,-234.0,81.0,-43.0,-1005.0,-120.0
-8.0,-262.0,-65.0,-54.0,-210.0,72.0,-40.0,-1024.0,-131.0
-9.0,-268.0,-64.0,-33.0,-178.0,59.0,-36.0,-1038.0,-133.0
-11.0,-269.0,-66.0,-3.0,-143.0,45.0,-36.0,-1044.0,-139.0
-5.0,-268.0,-64.0,30.0,-107.0,31.0,-27.0,-1045.0,-139.0
-4.0,-268.0,-68.0,64.0,-71.0,20.0,-22.0,-1041.0,-136.0
-5.0,-266.0,-71.0,95.0,-41.0,12.0,-11.0,-1030.0,-135.0
2.0,-261.0,-63.0,118.0,-11.0,6.0,-4.0,-1008.0,-138.0
2.0,-257.0,-65.0,132.0,13.0,8.0,0.0,-994.0,-132.0
4.0,-253.0,-66.0,139.0,31.0,7.0,10.0,-985.0,-128.0
6.0,-252.0,-63.0,141.0,38.0,10.0,21.0,-967.0,-119.0
4.0,-248.0,-65.0,135.0,42.0,11.0,23.0,-961.0,-120.0
5.0,-247.0,-69.0,127.0,41.0,12.0,23.0,-956.0,-123.0
3.0,-245.0,-62.0,111.0,40.0,16.0,19.0,-948.0,-120.0
6.0,-247.0,-62.0,93.0,39.0,17.0,27.0,-950.0,-113.0
4.0,-245.0,-60.0,72.0,31.0,17.0,20.0,-944.0,-113.0
7.0,-247.0,-64.0,47.0,28.0,21.0,20.0,-947.0,-111.0
3.0,-245.0,-58.0,27.0,28.0,24.0,7.0,-950.0,-107.0
2.0,-246.0,-55.0,12.0,32.0,28.0,9.0,-951.0,-92.0
0.0,-248.0,-55.0,-1.0,36.0,32.0,-2.0,-954.0,-89.0
-1.0,-249.0,-54.0,-11.0,40.0,34.0,-7.0,-963.0,-73.0
-3.0,-250.0,-47.0,-17.0,43.0,37.0,-9.0,-967.0,-70.0
0.0,-251.0,-52.0,-23.0,43.0,40.0,-8.0,-970.0,-62.0
-1.0,-252.0,-49.0,-26.0,41.0,41.0,-8.0,-976.0,-55.0
-4.0,-254.0,-48.0,-29.0,40.0,45.0,-12.0,-977.0,-51.0
-5.0,-254.0,-44.0,-31.0,38.0,46.0,-5.0,-983.0,-44.0
-2.0,-254.0,-47.0,-38.0,36.0,50.0,-7.0,-981.0,-37.0
1.0,-251.0,-39.0,-43.0,34.0,53.0,1.0,-982.0,-29.0
2.0,-256.0,-39.0,-51.0,33.0,58.0,1.0,-983.0,-22.0
2.0,-254.0,-41.0,-63.0,36.0,61.0,9.0,-980.0,-19.0
1.0,-249.0,-41.0,-74.0,39.0,66.0,7.0,-981.0,-19.0
6.0,-251.0,-39.0,-88.0,46.0,69.0,7.0,-985.0,-18.0
6.0,-256.0,-39.0,-104.0,52.0,71.0,16.0,-986.0,-19.0
2.0,-253.0,-40.0,-121.0,60.0,74.0,17.0,-980.0,-22.0
3.0,-251.0,-42.0,-141.0,66.0,77.0,14.0,-978.0,-30.0
6.0,-253.0,-44.0,-157.0,73.0,80.0,24.0,-974.0,-34.0
4.0,-249.0,-48.0,-173.0,78.0,78.0,24.0,-966.0,-43.0
3.0,-248.0,-44.0,-186.0,80.0,80.0,20.0,-968.0,-49.0
6.0,-249.0,-48.0,-193.0,77.0,85.0,25.0,-961.0,-55.0
4.0,-247.0,-50.0,-194.0,73.0,89.0,22.0,-955.0,-57.0
7.0,-249.0,-52.0,-186.0,64.0,93.0,25.0,-956.0,-65.0
4.0,-251.0,-53.0,-173.0,52.0,98.0,27.0,-968.0,-71.0
6.0,-252.0,-54.0,-143.0,39.0,101.0,31.0,-976.0,-77.0
6.0,-256.0,-55.0,-100.0,23.0,105.0,36.0,-988.0,-83.0
10.0,-261.0,-56.0,-50.0,8.0,109.0,39.0,-1000.0,-90.0
11.0,-260.0,-57.0,-2.0,-7.0,110.0,39.0,-1000.0,-98.0
6.0,-260.0,-61.0,39.0,-23.0,112.0,44.0,-1008.0,-103.0
10.0,-262.0,-62.0,62.0,-38.0,111.0,41.0,-1010.0,-108.0
8.0,-262.0,-58.0,68.0,-49.0,107.0,39.0,-1012.0,-108.0
5.0,-263.0,-59.0,60.0,-53.0,100.0,33.0,-1006.0,-100.0
5.0,-260.0,-56.0,48.0,-53.0,91.0,30.0,-1012.0,-97.0
9.0,-261.0,-57.0,30.0,-48.0,79.0,36.0,-1005.0,-91.0
9.0,-260.0,-57.0,14.0,-37.0,66.0,39.0,-1007.0,-89.0
10.0,-258.0,-56.0,2.0,-22.0,55.0,37.0,-1004.0,-85.0
9.0,-259.0,-53.0,-4.0,-7.0,44.0,35.0,-999.0,-81.0
8.0,-257.0,-57.0,-4.0,5.0,35.0,32.0,-995.0,-78.0
5.0,-256.0,-54.0,-3.0,13.0,28.0,29.0,-990.0,-80.0
6.0,-254.0,-55.0,-2.0,16.0,23.0,26.0,-983.0,-83.0
6.0,-253.0,-55.0,3.0,16.0,21.0,22.0,-976.0,-79.0
3.0,-250.0,-53.0,9.0,14.0,18.0,20.0,-970.0,-77.0
4.0,-250.0,-53.0,18.0,9.0,18.0,23.0,-964.0,-74.0
7.0,-247.0,-51.0,26.0,1.0,19.0,18.0,-955.0,-68.0
0.0,-246.0,-50.0,34.0,-8.0,22.0,23.0,-955.0,-63.0
1.0,-248.0,-51.0,38.0,-19.0,26.0,6.0,-954.0,-64.0
0.0,-248.0,-48.0,37.0,-30.0,28.0,3.0,-955.0,-55.0
0.0,-248.0,-49.0,31.0,-41.0,30.0,-3.0,-960.0,-60.0
-5.0,-248.0,-50.0,21.0,-47.0,31.0,-12.0,-963.0,-56.0
-4.0,-250.0,-52.0,7.0,-50.0,29.0,-11.0,-970.0,-55.0
-3.0,-249.0,-48.0,-5.0,-48.0,27.0,-15.0,-983.0,-57.0
-9.0,-251.0,-49.0,-14.0,-41.0,23.0,-22.0,-982.0,-62.0
-6.0,-257.0,-49.0,-20.0,-32.0,18.0,-25.0,-988.0,-59.0
-8.0,-256.0,-52.0,-23.0,-22.0,13.0,-27.0,-996.0,-59.0
-7.0,-262.0,-52.0,-23.0,-10.0,9.0,-26.0,-1002.0,-65.0
-11.0,-259.0,-52.0,-17.0,4.0,4.0,-34.0,-1002.0,-65.0
-12.0,-262.0,-53.0,-10.0,15.0,0.0,-38.0,-1002.0,-65.0
-10.0,-262.0,-53.0,0.0,22.0,-5.0,-45.0,-1005.0,-68.0
-14.0,-258.0,-54.0,13.0,28.0,-13.0,-48.0,-999.0,-73.0
-15.0,-257.0,-57.0,24.0,32.0,-15.0,-50.0,-994.0,-70.0
-16.0,-252.0,-53.0,32.0,38.0,-17.0,-51.0,-987.0,-73.0
-15.0,-252.0,-55.0,39.0,40.0,-18.0,-54.0,-977.0,-77.0
-15.0,-251.0,-54.0,45.0,42.0,-18.0,-56.0,-975.0,-72.0
-14.0,-249.0,-54.0,45.0,43.0,-17.0,-68.0,-967.0,-79.0
-13.0,-250.0,-53.0,42.0,44.0,-16.0,-55.0,-967.0,-66.0
-15.0,-250.0,-53.0,36.0,43.0,-14.0,-62.0,-970.0,-66.0
-14.0,-250.0,-54.0,27.0,41.0,-12.0,-54.0,-967.0,-71.0
-16.0,-249.0,-48.0,20.0,39.0,-9.0,-54.0,-972.0,-72.0
-15.0,-250.0,-51.0,12.0,36.0,-8.0,-50.0,-979.0,-71.0
-14.0,-248.0,-48.0,7.0,33.0,-4.0,-44.0,-980.0,-71.0
-13.0,-254.0,-54.0,6.0,29.0,3.0,-41.0,-985.0,-69.0
-13.0,-254.0,-54.0,8.0,26.0,8.0,-42.0,-986.0,-71.0
-13.0,-255.0,-54.0,13.0,20.0,13.0,-38.0,-986.0,-72.0
-10.0,-256.0,-48.0,21.0,14.0,16.0,-39.0,-988.0,-67.0
-13.0,-254.0,-52.0,32.0,9.0,22.0,-38.0,-985.0,-67.0
-10.0,-256.0,-52.0,45.0,5.0,24.0,-32.0,-986.0,-66.0
-10.0,-257.0,-53.0,58.0,0.0,24.0,-34.0,-990.0,-61.0
-9.0,-254.0,-50.0,70.0,-3.0,24.0,-31.0,-988.0,-65.0
-10.0,-254.0,-52.0,76.0,-3.0,23.0,-35.0,-985.0,-66.0
-8.0,-255.0,-50.0,82.0,-3.0,22.0,-27.0,-978.0,-61.0
-9.0,-252.0,-49.0,81.0,0.0,19.0,-26.0,-981.0,-66.0
-8.0,-253.0,-51.0,79.0,3.0,15.0,-22.0,-977.0,-59.0
-6.0,-251.0,-46.0,71.0,7.0,13.0,-23.0,-975.0,-59.0
-6.0,-251.0,-47.0,62.0,13.0,12.0,-18.0,-974.0,-56.0
-6.0,-251.0,-48.0,49.0,16.0,9.0,-19.0,-976.0,-53.0
-5.0,-250.0,-45.0,39.0,21.0,8.0,-12.0,-973.0,-55.0
-4.0,-252.0,-51.0,27.0,25.0,6.0,-14.0,-973.0,-61.0
-2.0,-250.0,-50.0,17.0,28.0,3.0,-12.0,-973.0,-59.0
-3.0,-251.0,-49.0,6.0,29.0,3.0,-11.0,-975.0,-65.0
-4.0,-251.0,-50.0,-1.0,31.0,1.0,-15.0,-982.0,-56.0
-4.0,-255.0,-51.0,-4.0,30.0,-2.0,-14.0,-976.0,-55.0
-6.0,-253.0,-51.0,-6.0,25.0,-5.0,-10.0,-981.0,-60.0
-5.0,-251.0,-51.0,-8.0,24.0,-8.0,-16.0,-983.0,-60.0
-3.0,-255.0,-48.0,-9.0,19.0,-10.0,-12.0,-981.0,-60.0
-5.0,-254.0,-50.0,-7.0,14.0,-13.0,-12.0,-982.0,-62.0
-3.0,-254.0,-47.0,-2.0,9.0,-14.0,-12.0,-983.0,-59.0
-5.0,-255.0,-48.0,2.0,5.0,-14.0,-16.0,-985.0,-64.0
-3.0,-255.0,-49.0,9.0,1.0,-13.0,-13.0,-987.0,-61.0
-5.0,-257.0,-49.0,15.0,-3.0,-12.0,-15.0,-988.0,-60.0
-5.0,-254.0,-47.0,21.0,-7.0,-11.0,-17.0,-987.0,-58.0
-4.0,-257.0,-50.0,26.0,-9.0,-10.0,-18.0,-985.0,-57.0
-6.0,-254.0,-51.0,31.0,-12.0,-11.0,-18.0,-983.0,-64.0
-4.0,-255.0,-48.0,39.0,-13.0,-11.0,-15.0,-987.0,-57.0
-2.0,-257.0,-48.0,48.0,-13.0,-13.0,-14.0,-985.0,-55.0
-6.0,-254.0,-50.0,55.0,-15.0,-14.0,-11.0,-987.0,-52.0
-4.0,-255.0,-48.0,60.0,-15.0,-14.0,-11.0,-984.0,-57.0
-3.0,-257.0,-49.0,69.0,-17.0,-13.0,-9.0,-988.0,-57.0
-5.0,-253.0,-50.0,75.0,-18.0,-13.0,-5.0,-988.0,-53.0
1.0,-254.0,-47.0,82.0,-18.0,-12.0,-4.0,-988.0,-52.0
1.0,-256.0,-44.0,86.0,-19.0,-9.0,-4.0,-982.0,-49.0
0.0,-251.0,-49.0,88.0,-19.0,-7.0,-1.0,-986.0,-47.0
2.0,-255.0,-47.0,88.0,-18.0,-7.0,3.0,-984.0,-35.0
1.0,-253.0,-43.0,86.0,-16.0,-5.0,11.0,-982.0,-34.0
3.0,-254.0,-42.0,85.0,-13.0,-3.0,8.0,-981.0,-37.0
6.0,-254.0,-42.0,86.0,-11.0,-3.0,7.0,-980.0,-31.0
2.0,-253.0,-41.0,89.0,-7.0,-5.0,15.0,-984.0,-31.0
4.0,-256.0,-41.0,96.0,-1.0,-6.0,9.0,-990.0,-30.0
-2.0,-255.0,-42.0,104.0,3.0,-6.0,6.0,-986.0,-27.0
0.0,-256.0,-40.0,109.0,7.0,-7.0,9.0,-986.0,-24.0
1.0,-253.0,-39.0,114.0,10.0,-7.0,2.0,-985.0,-26.0
2.0,-255.0,-42.0,118.0,12.0,-8.0,0.0,-990.0,-22.0
-2.0,-253.0,-41.0,117.0,14.0,-8.0,-3.0,-984.0,-23.0
-2.0,-254.0,-38.0,114.0,15.0,-9.0,-6.0,-980.0,-19.0
-1.0,-250.0,-42.0,107.0,14.0,-11.0,-6.0,-976.0,-23.0
-2.0,-254.0,-45.0,99.0,12.0,-13.0,-10.0,-974.0,-26.0
-6.0,-249.0,-40.0,92.0,10.0,-15.0,-10.0,-974.0,-19.0
-3.0,-250.0,-44.0,81.0,8.0,-19.0,-12.0,-965.0,-29.0
-5.0,-248.0,-38.0,68.0,8.0,-23.0,-17.0,-970.0,-29.0
-5.0,-250.0,-43.0,56.0,9.0,-28.0,-21.0,-970.0,-28.0
-5.0,-251.0,-44.0,44.0,9.0,-31.0,-17.0,-972.0,-27.0
-7.0,-251.0,-41.0,36.0,8.0,-34.0,-17.0,-974.0,-33.0
0.0,-254.0,-46.0,28.0,7.0,-35.0,-15.0,-969.0,-36.0
-6.0,-250.0,-45.0,22.0,4.0,-36.0,-19.0,-977.0,-27.0
-5.0,-252.0,-41.0,14.0,2.0,-36.0,-18.0,-974.0,-30.0
-3.0,-256.0,-39.0,12.0,3.0,-39.0,-16.0,-979.0,-30.0
-4.0,-254.0,-42.0,7.0,7.0,-38.0,-13.0,-978.0,-26.0
-4.0,-252.0,-43.0,3.0,12.0,-39.0,-20.0,-984.0,-21.0
-5.0,-254.0,-38.0,4.0,17.0,-40.0,-15.0,-985.0,-22.0
-3.0,-258.0,-38.0,7.0,19.0,-39.0,-17.0,-989.0,-20.0
-4.0,-257.0,-38.0,13.0,22.0,-38.0,-20.0,-991.0,-24.0
-6.0,-257.0,-40.0,22.0,23.0,-39.0,-12.0,-999.0,-20.0
0.0,-257.0,-42.0,35.0,23.0,-38.0,-9.0,-990.0,-14.0
-2.0,-254.0,-40.0,46.0,19.0,-35.0,-6.0,-988.0,-18.0
-4.0,-253.0,-35.0,56.0,18.0,-32.0,-7.0,-994.0,-18.0
-3.0,-253.0,-37.0,63.0,16.0,-29.0,-1.0,-985.0,-14.0
-1.0,-254.0,-38.0,68.0,12.0,-28.0,-4.0,-981.0,-13.0
2.0,-253.0,-38.0,71.0,7.0,-26.0,2.0,-983.0,-12.0
-1.0,-251.0,-39.0,70.0,3.0,-24.0,-3.0,-983.0,-14.0
0.0,-251.0,-37.0,70.0,0.0,-21.0,3.0,-977.0,-9.0
1.0,-250.0,-37.0,69.0,-4.0,-20.0,2.0,-978.0,-10.0
0.0,-251.0,-39.0,65.0,-8.0,-17.0,3.0,-974.0,-13.0
0.0,-250.0,-42.0,60.0,-12.0,-15.0,0.0,-969.0,-13.0
-3.0,-249.0,-36.0,50.0,-14.0,-12.0,-7.0,-964.0,-15.0
0.0,-251.0,-42.0,36.0,-13.0,-9.0,-5.0,-968.0,-13.0
-1.0,-248.0,-36.0,24.0,-12.0,-7.0,-10.0,-965.0,-15.0
-6.0,-250.0,-41.0,11.0,-11.0,-7.0,-10.0,-966.0,-13.0
-5.0,-250.0,-36.0,2.0,-11.0,-5.0,-10.0,-975.0,-13.0
-6.0,-254.0,-41.0,-2.0,-13.0,-5.0,-11.0,-984.0,-20.0
-5.0,-255.0,-42.0,-3.0,-11.0,-4.0,-12.0,-976.0,-28.0
-5.0,-252.0,-37.0,-1.0,-10.0,-4.0,-15.0,-987.0,-27.0
-6.0,-258.0,-45.0,4.0,-10.0,-4.0,-18.0,-989.0,-32.0
-5.0,-254.0,-45.0,8.0,-8.0,-3.0,-11.0,-988.0,-36.0
-3.0,-255.0,-43.0,10.0,-6.0,-1.0,-13.0,-985.0,-28.0
-4.0,-252.0,-42.0,10.0,-4.0,-2.0,-13.0,-986.0,-27.0
-2.0,-254.0,-36.0,10.0,-3.0,-5.0,-9.0,-986.0,-18.0
-10.0,-254.0,-41.0,12.0,0.0,-8.0,-10.0,-988.0,-12.0
-1.0,-255.0,-39.0,18.0,0.0,-10.0,-10.0,-984.0,-5.0
-2.0,-253.0,-34.0,25.0,6.0,-13.0,-8.0,-988.0,-6.0
-3.0,-252.0,-37.0,31.0,10.0,-13.0,-9.0,-980.0,4.0
-2.0,-252.0,-34.0,34.0,11.0,-13.0,-7.0,-980.0,4.0
-1.0,-254.0,-35.0,35.0,10.0,-13.0,-1.0,-983.0,9.0
0.0,-252.0,-34.0,36.0,8.0,-9.0,2.0,-979.0,10.0
1.0,-256.0,-35.0,33.0,5.0,-5.0,5.0,-977.0,8.0
2.0,-251.0,-32.0,31.0,0.0,-3.0,4.0,-981.0,7.0
1.0,-252.0,-33.0,31.0,-7.0,1.0,9.0,-977.0,10.0
3.0,-252.0,-32.0,32.0,-13.0,4.0,7.0,-981.0,8.0
2.0,-252.0,-29.0,31.0,-16.0,6.0,13.0,-979.0,7.0
2.0,-252.0,-33.0,30.0,-21.0,8.0,12.0,-975.0,7.0
-2.0,-252.0,-35.0,27.0,-22.0,11.0,7.0,-981.0,2.0
3.0,-251.0,-35.0,22.0,-23.0,13.0,4.0,-979.0,5.0
0.0,-252.0,-33.0,14.0,-23.0,15.0,2.0,-978.0,3.0
-1.0,-249.0,-37.0,10.0,-21.0,14.0,1.0,-978.0,-1.0
-1.0,-251.0,-32.0,6.0,-19.0,16.0,-2.0,-982.0,-3.0
-1.0,-254.0,-29.0,1.0,-16.0,17.0,3.0,-979.0,-3.0
0.0,-253.0,-31.0,-2.0,-12.0,16.0,-3.0,-983.0,-6.0
-1.0,-254.0,-38.0,-4.0,-9.0,17.0,0.0,-981.0,-2.0
-2.0,-253.0,-37.0,-5.0,-6.0,17.0,-2.0,-985.0,-8.0
-4.0,-256.0,-42.0,-5.0,-5.0,19.0,-6.0,-985.0,-3.0
-2.0,-256.0,-38.0,-3.0,-1.0,18.0,-7.0,-987.0,-3.0
-1.0,-255.0,-39.0,-1.0,1.0,16.0,-6.0,-987.0,-7.0
-2.0,-254.0,-35.0,0.0,3.0,15.0,-6.0,-985.0,-2.0
-5.0,-253.0,-37.0,4.0,6.0,13.0,-8.0,-987.0,-2.0
-3.0,-253.0,-36.0,9.0,7.0,10.0,-4.0,-987.0,2.0
-6.0,-252.0,-32.0,14.0,7.0,6.0,-8.0,-985.0,-1.0
-6.0,-252.0,-33.0,21.0,6.0,5.0,-9.0,-986.0,4.0
-5.0,-251.0,-40.0,27.0,1.0,3.0,-9.0,-982.0,5.0
-2.0,-252.0,-32.0,28.0,-6.0,4.0,-13.0,-980.0,4.0
-5.0,-251.0,-34.0,28.0,-9.0,5.0,-16.0,-981.0,5.0
-4.0,-251.0,-32.0,23.0,-10.0,3.0,-13.0,-980.0,1.0
-4.0,-251.0,-33.0,17.0,-5.0,0.0,-13.0,-978.0,0.0
-4.0,-249.0,-33.0,6.0,-1.0,-2.0,-12.0,-973.0,-1.0
-7.0,-248.0,-35.0,-8.0,3.0,-5.0,-10.0,-969.0,-1.0
-4.0,-248.0,-32.0,-25.0,7.0,-7.0,-16.0,-973.0,5.0
-4.0,-249.0,-32.0,-41.0,13.0,-11.0,-13.0,-967.0,9.0
-7.0,-249.0,-29.0,-52.0,17.0,-14.0,-14.0,-971.0,16.0
-1.0,-252.0,-31.0,-63.0,22.0,-17.0,-15.0,-974.0,23.0
-6.0,-253.0,-26.0,-68.0,24.0,-19.0,-15.0,-978.0,26.0
-5.0,-252.0,-31.0,-73.0,26.0,-20.0,-14.0,-977.0,30.0
-6.0,-253.0,-31.0,-75.0,27.0,-19.0,-13.0,-981.0,26.0
-6.0,-251.0,-30.0,-74.0,29.0,-19.0,-15.0,-985.0,21.0
-3.0,-253.0,-33.0,-71.0,29.0,-17.0,-14.0,-979.0,21.0
-2.0,-253.0,-28.0,-69.0,32.0,-16.0,-14.0,-983.0,18.0
-4.0,-252.0,-32.0,-63.0,33.0,-14.0,-13.0,-982.0,13.0
-3.0,-255.0,-35.0,-60.0,31.0,-12.0,-8.0,-990.0,8.0
-1.0,-252.0,-30.0,-54.0,31.0,-12.0,-7.0,-987.0,3.0
0.0,-256.0,-35.0,-48.0,29.0,-11.0,-9.0,-991.0,-3.0
-3.0,-256.0,-36.0,-41.0,27.0,-10.0,-9.0,-995.0,-7.0
1.0,-256.0,-40.0,-35.0,25.0,-9.0,-3.0,-999.0,-6.0
-2.0,-256.0,-39.0,-33.0,23.0,-9.0,-9.0,-1000.0,-8.0
1.0,-256.0,-32.0,-26.0,21.0,-9.0,-8.0,-994.0,-10.0
-3.0,-256.0,-35.0,-20.0,20.0,-10.0,-7.0,-988.0,0.0
-3.0,-256.0,-37.0,-12.0,19.0,-11.0,-6.0,-989.0,-3.0
-4.0,-254.0,-37.0,-6.0,16.0,-11.0,-6.0,-985.0,-1.0
-2.0,-254.0,-34.0,0.0,12.0,-10.0,-4.0,-985.0,3.0
-3.0,-253.0,-29.0,3.0,8.0,-9.0,-11.0,-982.0,1.0
-6.0,-252.0,-30.0,4.0,2.0,-10.0,-7.0,-975.0,2.0
-3.0,-250.0,-41.0,3.0,-2.0,-9.0,-8.0,-979.0,10.0
-1.0,-253.0,-34.0,-2.0,-6.0,-8.0,-8.0,-972.0,10.0
-5.0,-249.0,-34.0,-6.0,-4.0,-7.0,-6.0,-978.0,4.0
2.0,-251.0,-35.0,-12.0,0.0,-6.0,-7.0,-975.0,12.0
0.0,-251.0,-33.0,-22.0,4.0,-3.0,3.0,-973.0,14.0
-1.0,-252.0,-31.0,-29.0,9.0,-4.0,-2.0,-969.0,12.0
-1.0,-254.0,-31.0,-36.0,14.0,-3.0,-4.0,-979.0,14.0
-1.0,-250.0,-32.0,-45.0,18.0,-3.0,-4.0,-977.0,11.0
-3.0,-253.0,-31.0,-51.0,18.0,-1.0,0.0,-979.0,12.0
-3.0,-254.0,-31.0,-53.0,20.0,-2.0,-2.0,-978.0,9.0
2.0,-254.0,-33.0,-54.0,21.0,-3.0,-4.0,-980.0,14.0
0.0,-255.0,-35.0,-59.0,19.0,-2.0,-3.0,-982.0,12.0
-1.0,-251.0,-35.0,-62.0,19.0,-2.0,2.0,-983.0,13.0
-1.0,-252.0,-31.0,-61.0,17.0,-3.0,-3.0,-981.0,8.0
-1.0,-257.0,-33.0,-62.0,15.0,-2.0,-7.0,-976.0,8.0
-1.0,-251.0,-32.0,-61.0,11.0,-2.0,-1.0,-979.0,7.0
2.0,-255.0,-34.0,-61.0,8.0,-2.0,-1.0,-982.0,4.0
-1.0,-255.0,-34.0,-64.0,7.0,-4.0,4.0,-980.0,6.0
-1.0,-251.0,-35.0,-62.0,8.0,-5.0,6.0,-985.0,8.0
-1.0,-253.0,-35.0,-62.0,10.0,-6.0,6.0,-983.0,9.0
-2.0,-252.0,-34.0,-58.0,10.0,-5.0,5.0,-987.0,7.0
1.0,-253.0,-33.0,-60.0,12.0,-3.0,3.0,-981.0,6.0
-1.0,-253.0,-32.0,-62.0,13.0,-1.0,-3.0,-985.0,10.0
1.0,-252.0,-40.0,-65.0,15.0,0.0,-2.0,-985.0,4.0
-1.0,-251.0,-33.0,-68.0,17.0,4.0,-3.0,-985.0,6.0
-3.0,-253.0,-33.0,-67.0,20.0,6.0,-7.0,-977.0,6.0
-3.0,-255.0,-32.0,-64.0,22.0,6.0,-10.0,-984.0,0.0
-7.0,-252.0,-34.0,-62.0,25.0,6.0,-7.0,-983.0,5.0
-4.0,-254.0,-35.0,-56.0,26.0,6.0,-8.0,-984.0,3.0
-4.0,-253.0,-36.0,-53.0,27.0,6.0,-8.0,-985.0,5.0
-2.0,-255.0,-38.0,-50.0,30.0,7.0,-10.0,-988.0,-2.0
-4.0,-253.0,-32.0,-46.0,28.0,5.0,-9.0,-991.0,2.0
-5.0,-254.0,-33.0,-43.0,28.0,5.0,-8.0,-982.0,1.0
-2.0,-254.0,-37.0,-42.0,28.0,3.0,-6.0,-987.0,3.0
-2.0,-257.0,-34.0,-41.0,27.0,3.0,-8.0,-980.0,3.0
-1.0,-252.0,-33.0,-39.0,28.0,2.0,-8.0,-981.0,10.0
-3.0,-255.0,-33.0,-40.0,27.0,3.0,-8.0,-984.0,10.0
-5.0,-251.0,-34.0,-39.0,27.0,2.0,-7.0,-981.0,11.0
-2.0,-250.0,-33.0,-40.0,27.0,2.0,-7.0,-981.0,11.0
-2.0,-253.0,-40.0,-41.0,27.0,1.0,-10.0,-981.0,12.0
-6.0,-252.0,-32.0,-41.0,25.0,2.0,-10.0,-978.0,6.0
-2.0,-252.0,-33.0,-45.0,24.0,2.0,-7.0,-973.0,3.0
-4.0,-252.0,-32.0,-51.0,24.0,0.0,-11.0,-976.0,2.0
-2.0,-253.0,-34.0,-56.0,24.0,-3.0,-7.0,-985.0,0.0
-3.0,-251.0,-33.0,-63.0,24.0,-3.0,-9.0,-979.0,1.0
-3.0,-253.0,-34.0,-66.0,26.0,-1.0,-11.0,-982.0,-6.0
-4.0,-256.0,-38.0,-72.0,26.0,-2.0,-8.0,-979.0,-1.0
-3.0,-254.0,-37.0,-75.0,25.0,0.0,-9.0,-980.0,-11.0
-5.0,-252.0,-38.0,-75.0,22.0,0.0,-8.0,-984.0,-8.0
-1.0,-257.0,-40.0,-74.0,20.0,0.0,-10.0,-983.0,-7.0
-3.0,-257.0,-34.0,-69.0,19.0,0.0,-13.0,-985.0,-5.0
-5.0,-255.0,-38.0,-64.0,15.0,1.0,-9.0,-991.0,-6.0
-5.0,-258.0,-33.0,-58.0,16.0,-1.0,-15.0,-989.0,-8.0
-3.0,-255.0,-37.0,-50.0,15.0,-1.0,-13.0,-995.0,-9.0
-4.0,-256.0,-30.0,-43.0,16.0,-1.0,-14.0,-995.0,-6.0
-5.0,-255.0,-33.0,-39.0,18.0,-3.0,-16.0,-993.0,-3.0
-6.0,-256.0,-36.0,-35.0,18.0,-5.0,-10.0,-990.0,-5.0
-6.0,-254.0,-35.0,-30.0,21.0,-5.0,-13.0,-987.0,-4.0
-5.0,-255.0,-37.0,-26.0,24.0,-6.0,-11.0,-985.0,-6.0
-4.0,-258.0,-36.0,-25.0,27.0,-5.0,-13.0,-982.0,-5.0
-6.0,-253.0,-33.0,-24.0,29.0,-4.0,-15.0,-985.0,-1.0
-4.0,-256.0,-35.0,-22.0,31.0,-5.0,-12.0,-978.0,0.0
-4.0,-251.0,-35.0,-22.0,32.0,-4.0,-10.0,-975.0,1.0
1.0,-252.0,-39.0,-24.0,30.0,-2.0,-6.0,-976.0,-7.0
-3.0,-252.0,-36.0,-25.0,30.0,-2.0,-7.0,-972.0,6.0
-4.0,-252.0,-34.0,-29.0,26.0,-1.0,-8.0,-976.0,4.0
-5.0,-251.0,-36.0,-30.0,23.0,-1.0,-6.0,-974.0,1.0
-1.0,-252.0,-33.0,-31.0,21.0,1.0,-5.0,-976.0,5.0
-3.0,-252.0,-36.0,-34.0,18.0,1.0,-8.0,-980.0,6.0
-2.0,-255.0,-31.0,-36.0,16.0,0.0,-7.0,-981.0,4.0
-1.0,-253.0,-32.0,-39.0,13.0,2.0,-10.0,-981.0,6.0
0.0,-255.0,-34.0,-40.0,9.0,3.0,-8.0,-979.0,2.0
-4.0,-250.0,-32.0,-44.0,6.0,3.0,-10.0,-980.0,8.0
-3.0,-254.0,-32.0,-46.0,4.0,5.0,-15.0,-983.0,10.0
-5.0,-250.0,-38.0,-46.0,3.0,6.0,-9.0,-986.0,3.0
-5.0,-255.0,-31.0,-50.0,2.0,7.0,-13.0,-981.0,4.0
-2.0,-253.0,-35.0,-52.0,3.0,8.0,-10.0,-981.0,9.0
-3.0,-253.0,-32.0,-55.0,4.0,8.0,-10.0,-985.0,1.0
-3.0,-253.0,-33.0,-59.0,5.0,10.0,-11.0,-986.0,12.0
-9.0,-252.0,-37.0,-62.0,9.0,10.0,-16.0,-986.0,6.0
-4.0,-251.0,-33.0,-61.0,11.0,10.0,-15.0,-980.0,10.0
-5.0,-254.0,-35.0,-63.0,11.0,10.0,-16.0,-978.0,9.0
-4.0,-255.0,-34.0,-64.0,14.0,10.0,-12.0,-981.0,14.0
1.0,-255.0,-34.0,-66.0,17.0,10.0,-13.0,-986.0,13.0
-3.0,-251.0,-29.0,-64.0,20.0,10.0,-6.0,-979.0,9.0
-3.0,-252.0,-30.0,-62.0,20.0,12.0,-12.0,-981.0,13.0
-4.0,-252.0,-31.0,-63.0,19.0,13.0,-10.0,-980.0,15.0
2.0,-254.0,-32.0,-64.0,22.0,13.0,-2.0,-992.0,17.0
0.0,-255.0,-31.0,-62.0,25.0,15.0,-2.0,-983.0,16.0
-1.0,-257.0,-33.0,-61.0,24.0,18.0,-4.0,-988.0,12.0
1.0,-253.0,-28.0,-58.0,24.0,17.0,-8.0,-988.0,13.0
-1.0,-255.0,-31.0,-54.0,23.0,18.0,-1.0,-990.0,15.0
-2.0,-252.0,-31.0,-51.0,21.0,18.0,-2.0,-988.0,13.0
2.0,-259.0,-32.0,-47.0,19.0,18.0,2.0,-987.0,8.0
-3.0,-257.0,-32.0,-46.0,17.0,17.0,1.0,-987.0,15.0
-2.0,-253.0,-34.0,-44.0,13.0,16.0,5.0,-986.0,14.0
1.0,-255.0,-27.0,-42.0,13.0,15.0,0.0,-985.0,14.0
-3.0,-252.0,-30.0,-42.0,10.0,13.0,0.0,-980.0,16.0
-1.0,-252.0,-31.0,-43.0,9.0,11.0,-3.0,-981.0,16.0
-3.0,-251.0,-30.0,-46.0,8.0,10.0,-8.0,-976.0,17.0
-1.0,-250.0,-30.0,-50.0,7.0,10.0,-2.0,-975.0,19.0
-1.0,-251.0,-30.0,-54.0,9.0,9.0,-6.0,-979.0,19.0
-3.0,-252.0,-32.0,-57.0,11.0,7.0,-9.0,-977.0,21.0
1.0,-253.0,-28.0,-60.0,14.0,3.0,-9.0,-971.0,19.0
1.0,-250.0,-31.0,-63.0,17.0,4.0,-10.0,-975.0,19.0
-3.0,-251.0,-31.0,-65.0,20.0,2.0,-9.0,-977.0,19.0
-1.0,-252.0,-35.0,-69.0,22.0,1.0,-7.0,-980.0,14.0
-5.0,-249.0,-32.0,-72.0,25.0,0.0,-7.0,-978.0,13.0
-4.0,-252.0,-34.0,-76.0,28.0,1.0,-9.0,-978.0,10.0
-3.0,-254.0,-39.0,-80.0,27.0,0.0,-7.0,-984.0,2.0
-5.0,-254.0,-32.0,-82.0,28.0,1.0,-9.0,-982.0,3.0
-3.0,-259.0,-36.0,-83.0,29.0,1.0,-11.0,-988.0,4.0
-2.0,-256.0,-33.0,-80.0,26.0,2.0,-9.0,-986.0,-2.0
-4.0,-257.0,-38.0,-78.0,24.0,2.0,-8.0,-990.0,-2.0
-4.0,-255.0,-37.0,-74.0,23.0,1.0,-10.0,-992.0,-1.0
-4.0,-257.0,-36.0,-71.0,20.0,0.0,-9.0,-987.0,-7.0
-4.0,-254.0,-36.0,-68.0,19.0,0.0,-15.0,-989.0,-6.0
-6.0,-256.0,-39.0,-64.0,17.0,-1.0,-14.0,-994.0,-11.0
-6.0,-253.0,-40.0,-57.0,16.0,0.0,-11.0,-989.0,-7.0
-4.0,-255.0,-37.0,-52.0,14.0,2.0,-12.0,-989.0,-12.0
-3.0,-254.0,-34.0,-47.0,12.0,1.0,-13.0,-985.0,-6.0
-6.0,-254.0,-37.0,-44.0,15.0,2.0,-16.0,-986.0,-12.0
-6.0,-253.0,-37.0,-40.0,15.0,2.0,-15.0,-980.0,-7.0
-6.0,-252.0,-40.0,-40.0,14.0,1.0,-16.0,-982.0,-8.0
-4.0,-253.0,-41.0,-40.0,16.0,0.0,-16.0,-980.0,-6.0
-6.0,-251.0,-36.0,-42.0,14.0,-1.0,-14.0,-977.0,-2.0
-5.0,-250.0,-33.0,-49.0,18.0,-1.0,-15.0,-977.0,0.0
-2.0,-251.0,-36.0,-53.0,20.0,-3.0,-20.0,-974.0,-1.0
-6.0,-250.0,-36.0,-57.0,26.0,-4.0,-10.0,-980.0,-3.0
-5.0,-251.0,-33.0,-62.0,29.0,-6.0,-17.0,-976.0,2.0
-5.0,-250.0,-35.0,-68.0,33.0,-7.0,-15.0,-973.0,-1.0
-7.0,-253.0,-35.0,-72.0,36.0,-9.0,-11.0,-976.0,0.0
-2.0,-250.0,-35.0,-76.0,39.0,-11.0,-15.0,-974.0,3.0
-2.0,-254.0,-33.0,-78.0,41.0,-10.0,-12.0,-975.0,9.0
-4.0,-253.0,-32.0,-78.0,43.0,-9.0,-12.0,-982.0,9.0
-5.0,-253.0,-33.0,-74.0,44.0,-11.0,-16.0,-987.0,6.0
-4.0,-255.0,-35.0,-66.0,44.0,-12.0,-13.0,-988.0,5.0
-5.0,-255.0,-38.0,-53.0,40.0,-10.0,-13.0,-991.0,-2.0
-4.0,-256.0,-34.0,-40.0,35.0,-8.0,-14.0,-995.0,-5.0
-5.0,-258.0,-40.0,-28.0,29.0,-4.0,-16.0,-995.0,-13.0
-4.0,-256.0,-39.0,-18.0,24.0,1.0,-11.0,-998.0,-17.0
-3.0,-259.0,-39.0,-12.0,18.0,4.0,-10.0,-993.0,-19.0
-2.0,-255.0,-39.0,-11.0,13.0,4.0,-8.0,-995.0,-18.0
-4.0,-258.0,-40.0,-11.0,11.0,5.0,-10.0,-995.0,-12.0
-3.0,-255.0,-38.0,-12.0,10.0,3.0,-10.0,-989.0,-8.0
-3.0,-256.0,-38.0,-16.0,9.0,2.0,-11.0,-987.0,-4.0
-7.0,-253.0,-34.0,-18.0,10.0,2.0,-15.0,-985.0,2.0
-7.0,-254.0,-35.0,-22.0,10.0,2.0,-10.0,-980.0,4.0
-7.0,-252.0,-34.0,-25.0,9.0,1.0,-12.0,-984.0,1.0
-3.0,-252.0,-35.0,-29.0,10.0,2.0,-16.0,-975.0,2.0
-3.0,-251.0,-34.0,-33.0,12.0,2.0,-14.0,-976.0,3.0
-5.0,-255.0,-34.0,-36.0,13.0,3.0,-14.0,-981.0,6.0
-3.0,-254.0,-30.0,-37.0,17.0,2.0,-11.0,-984.0,11.0
-5.0,-254.0,-31.0,-33.0,19.0,1.0,-10.0,-984.0,12.0
-4.0,-254.0,-30.0,-26.0,21.0,1.0,-15.0,-985.0,14.0
-8.0,-253.0,-33.0,-19.0,22.0,1.0,-17.0,-985.0,12.0
-8.0,-254.0,-32.0,-11.0,22.0,1.0,-19.0,-987.0,12.0
-2.0,-258.0,-35.0,-7.0,24.0,0.0,-17.0,-989.0,13.0
-6.0,-258.0,-32.0,-3.0,26.0,-1.0,-16.0,-990.0,12.0
-6.0,-254.0,-35.0,-1.0,26.0,-2.0,-19.0,-986.0,11.0
-7.0,-254.0,-33.0,2.0,26.0,-3.0,-14.0,-990.0,13.0
-4.0,-252.0,-36.0,4.0,25.0,-2.0,-15.0,-988.0,11.0
-7.0,-253.0,-35.0,6.0,24.0,-1.0,-13.0,-985.0,1.0
-6.0,-253.0,-32.0,6.0,24.0,-1.0,-10.0,-985.0,3.0
-7.0,-252.0,-36.0,7.0,23.0,0.0,-13.0,-981.0,7.0
-7.0,-252.0,-39.0,4.0,22.0,0.0,-12.0,-976.0,-1.0
-2.0,-251.0,-32.0,0.0,22.0,-1.0,-14.0,-978.0,-2.0
-4.0,-253.0,-34.0,-4.0,21.0,1.0,-13.0,-983.0,2.0
-4.0,-254.0,-35.0,-7.0,18.0,1.0,-15.0,-978.0,-1.0
-6.0,-250.0,-34.0,-9.0,17.0,1.0,-16.0,-981.0,-6.0
-5.0,-252.0,-33.0,-12.0,18.0,2.0,-10.0,-983.0,1.0
6.0,-253.0,-30.0,-16.0,18.0,0.0,-11.0,-979.0,3.0
-9.0,-257.0,-38.0,-17.0,20.0,0.0,-12.0,-985.0,5.0
-3.0,-256.0,-30.0,-16.0,20.0,-1.0,-12.0,-984.0,-2.0
-6.0,-254.0,-40.0,-12.0,20.0,-1.0,-15.0,-984.0,-1.0
-4.0,-254.0,-39.0,-11.0,16.0,-1.0,-14.0,-988.0,0.0
-3.0,-257.0,-33.0,-6.0,17.0,-1.0,-10.0,-985.0,-2.0
-5.0,-252.0,-34.0,0.0,15.0,-3.0,-9.0,-983.0,0.0
-2.0,-253.0,-39.0,5.0,16.0,-2.0,-11.0,-983.0,2.0
-6.0,-253.0,-36.0,11.0,17.0,-2.0,-6.0,-983.0,0.0
-3.0,-254.0,-33.0,16.0,14.0,-2.0,-10.0,-979.0,5.0
-5.0,-249.0,-33.0,22.0,11.0,-6.0,-11.0,-979.0,7.0
-3.0,-253.0,-33.0,27.0,13.0,-4.0,-6.0,-982.0,14.0
-1.0,-252.0,-33.0,25.0,16.0,-3.0,-9.0,-978.0,11.0
-2.0,-252.0,-37.0,19.0,17.0,-1.0,-11.0,-977.0,11.0
-2.0,-251.0,-31.0,12.0,17.0,1.0,-11.0,-981.0,13.0
-1.0,-253.0,-32.0,5.0,17.0,1.0,-7.0,-978.0,12.0
-4.0,-251.0,-33.0,-1.0,16.0,1.0,-7.0,-980.0,14.0
-4.0,-250.0,-34.0,-6.0,16.0,2.0,-6.0,-981.0,16.0
0.0,-252.0,-34.0,-10.0,14.0,5.0,-8.0,-982.0,16.0
-1.0,-251.0,-31.0,-11.0,13.0,7.0,-9.0,-981.0,18.0
-4.0,-253.0,-29.0,-14.0,14.0,7.0,-7.0,-981.0,16.0
1.0,-253.0,-34.0,-14.0,13.0,8.0,-9.0,-980.0,15.0
-5.0,-253.0,-28.0,-15.0,14.0,11.0,-7.0,-986.0,19.0
-2.0,-254.0,-30.0,-14.0,13.0,11.0,-9.0,-982.0,17.0
-2.0,-254.0,-27.0,-14.0,12.0,12.0,-7.0,-985.0,18.0
-6.0,-254.0,-29.0,-9.0,10.0,12.0,-8.0,-981.0,17.0
-2.0,-255.0,-32.0,-6.0,5.0,11.0,-9.0,-984.0,18.0
0.0,-256.0,-31.0,-5.0,4.0,11.0,-8.0,-981.0,20.0
-6.0,-252.0,-36.0,-2.0,3.0,11.0,-7.0,-984.0,20.0
-2.0,-253.0,-30.0,1.0,1.0,11.0,-10.0,-981.0,25.0
-5.0,-254.0,-28.0,3.0,3.0,10.0,-10.0,-985.0,20.0
-5.0,-254.0,-28.0,4.0,3.0,9.0,-9.0,-979.0,26.0
-3.0,-250.0,-28.0,3.0,1.0,7.0,-8.0,-982.0,24.0
-4.0,-255.0,-31.0,4.0,2.0,4.0,-8.0,-983.0,23.0
-3.0,-254.0,-30.0,-1.0,5.0,6.0,-13.0,-976.0,24.0
-4.0,-251.0,-27.0,-8.0,9.0,6.0,-13.0,-985.0,21.0
-7.0,-250.0,-30.0,-15.0,8.0,4.0,-15.0,-978.0,23.0
-6.0,-253.0,-31.0,-19.0,10.0,3.0,-13.0,-981.0,24.0
-5.0,-254.0,-31.0,-22.0,9.0,2.0,-14.0,-976.0,24.0
-6.0,-258.0,-30.0,-25.0,9.0,2.0,-16.0,-982.0,21.0
-6.0,-254.0,-28.0,-28.0,9.0,1.0,-18.0,-986.0,19.0
-6.0,-253.0,-28.0,-28.0,9.0,-1.0,-17.0,-980.0,19.0
-6.0,-254.0,-28.0,-26.0,10.0,-2.0,-25.0,-986.0,17.0
-7.0,-256.0,-30.0,-25.0,9.0,-2.0,-14.0,-985.0,20.0
-5.0,-251.0,-27.0,-20.0,9.0,-1.0,-20.0,-979.0,21.0
-6.0,-257.0,-34.0,-15.0,10.0,-2.0,-19.0,-984.0,20.0
-6.0,-257.0,-28.0,-12.0,9.0,-3.0,-16.0,-985.0,22.0
-6.0,-253.0,-32.0,-10.0,10.0,-2.0,-18.0,-986.0,20.0
-3.0,-257.0,-32.0,-8.0,9.0,-2.0,-18.0,-983.0,20.0
-7.0,-252.0,-32.0,-7.0,11.0,-2.0,-14.0,-985.0,21.0
-7.0,-253.0,-28.0,-10.0,13.0,-1.0,-12.0,-985.0,20.0
-7.0,-252.0,-31.0,-11.0,15.0,0.0,-19.0,-981.0,19.0
-4.0,-250.0,-35.0,-14.0,17.0,0.0,-13.0,-981.0,21.0
-4.0,-251.0,-29.0,-19.0,18.0,1.0,-13.0,-979.0,16.0
-3.0,-251.0,-29.0,-22.0,19.0,2.0,-9.0,-976.0,19.0
-3.0,-253.0,-30.0,-25.0,20.0,2.0,-19.0,-980.0,19.0
-2.0,-255.0,-29.0,-29.0,20.0,3.0,-11.0,-978.0,20.0
-4.0,-250.0,-26.0,-31.0,20.0,4.0,-12.0,-979.0,21.0
-6.0,-252.0,-27.0,-33.0,18.0,5.0,-14.0,-980.0,19.0
-5.0,-254.0,-31.0,-35.0,16.0,6.0,-13.0,-985.0,17.0
-7.0,-251.0,-24.0,-32.0,13.0,9.0,-9.0,-982.0,18.0
-6.0,-251.0,-24.0,-27.0,12.0,8.0,-8.0,-984.0,18.0
-5.0,-255.0,-28.0,-24.0,11.0,8.0,-12.0,-985.0,20.0
-5.0,-254.0,-27.0,-17.0,8.0,8.0,-13.0,-986.0,17.0
-3.0,-255.0,-27.0,-10.0,6.0,9.0,-14.0,-992.0,21.0
-5.0,-254.0,-31.0,-4.0,6.0,9.0,-12.0,-988.0,25.0
-7.0,-254.0,-30.0,5.0,4.0,8.0,-14.0,-988.0,27.0
-4.0,-253.0,-29.0,10.0,4.0,8.0,-13.0,-988.0,23.0
-7.0,-254.0,-28.0,13.0,1.0,7.0,-21.0,-983.0,25.0
-3.0,-253.0,-29.0,16.0,-1.0,2.0,-20.0,-983.0,21.0
-4.0,-252.0,-30.0,16.0,3.0,2.0,-12.0,-980.0,23.0
-5.0,-253.0,-28.0,14.0,7.0,1.0,-11.0,-975.0,22.0
-4.0,-252.0,-32.0,9.0,11.0,0.0,-15.0,-982.0,20.0
-4.0,-252.0,-31.0,4.0,14.0,-1.0,-17.0,-979.0,21.0
-5.0,-253.0,-30.0,-1.0,16.0,-3.0,-18.0,-976.0,17.0
-6.0,-252.0,-29.0,-6.0,18.0,-1.0,-14.0,-976.0,19.0
-8.0,-251.0,-29.0,-11.0,18.0,-1.0,-16.0,-980.0,17.0
-5.0,-249.0,-30.0,-18.0,18.0,-1.0,-18.0,-981.0,19.0
-5.0,-251.0,-30.0,-21.0,19.0,-1.0,-15.0,-975.0,18.0
-5.0,-254.0,-27.0,-20.0,20.0,-3.0,-15.0,-975.0,25.0
-6.0,-253.0,-29.0,-18.0,18.0,-1.0,-14.0,-982.0,21.0
-5.0,-253.0,-28.0,-14.0,19.0,-3.0,-11.0,-982.0,21.0
-3.0,-253.0,-29.0,-9.0,16.0,-2.0,-14.0,-983.0,21.0
-4.0,-254.0,-28.0,-3.0,15.0,-3.0,-9.0,-987.0,21.0
-5.0,-253.0,-32.0,1.0,13.0,-4.0,-14.0,-986.0,22.0
-7.0,-255.0,-29.0,5.0,9.0,-5.0,-16.0,-986.0,24.0
-4.0,-255.0,-30.0,8.0,10.0,-4.0,-13.0,-988.0,21.0
-5.0,-252.0,-25.0,9.0,11.0,-5.0,-14.0,-985.0,21.0
-6.0,-251.0,-28.0,10.0,12.0,-3.0,-12.0,-984.0,26.0
-7.0,-254.0,-31.0,6.0,14.0,-4.0,-21.0,-980.0,20.0
-9.0,-240.0,-28.0,4.0,15.0,-4.0,-14.0,-978.0,22.0
-5.0,-249.0,-28.0,1.0,13.0,-3.0,-15.0,-977.0,20.0
-5.0,-251.0,-27.0,-4.0,11.0,-4.0,-15.0,-975.0,18.0
-5.0,-250.0,-29.0,-7.0,8.0,-4.0,-15.0,-975.0,20.0
-5.0,-252.0,-27.0,-10.0,5.0,-4.0,-16.0,-977.0,28.0
-8.0,-249.0,-28.0,-14.0,7.0,-3.0,-17.0,-980.0,28.0
-8.0,-253.0,-28.0,-18.0,7.0,-3.0,-15.0,-981.0,28.0
-4.0,-254.0,-28.0,-18.0,5.0,-3.0,-18.0,-984.0,30.0
-4.0,-255.0,-28.0,-17.0,7.0,-4.0,-19.0,-979.0,34.0
-4.0,-255.0,-21.0,-15.0,8.0,-7.0,-20.0,-984.0,33.0
-5.0,-256.0,-27.0,-11.0,9.0,-9.0,-20.0,-985.0,37.0
-6.0,-243.0,-26.0,-6.0,10.0,-10.0,-16.0,-977.0,37.0
-3.0,-257.0,-31.0,-3.0,11.0,-11.0,-12.0,-985.0,39.0
-5.0,-256.0,-27.0,-1.0,13.0,-9.0,-15.0,-983.0,36.0
-7.0,-254.0,-24.0,2.0,12.0,-10.0,-17.0,-981.0,36.0
-5.0,-254.0,-23.0,2.0,13.0,-10.0,-15.0,-981.0,39.0
-6.0,-250.0,-24.0,-1.0,17.0,-12.0,-14.0,-979.0,42.0
-5.0,-255.0,-22.0,-7.0,20.0,-12.0,-14.0,-977.0,32.0
-4.0,-254.0,-28.0,-12.0,21.0,-14.0,-15.0,-980.0,41.0
-4.0,-251.0,-23.0,-20.0,22.0,-13.0,-13.0,-976.0,39.0
-6.0,-253.0,-24.0,-22.0,22.0,-13.0,-12.0,-980.0,41.0
-3.0,-253.0,-23.0,-27.0,19.0,-12.0,-16.0,-981.0,46.0
-4.0,-251.0,-32.0,-29.0,18.0,-13.0,-16.0,-980.0,44.0
-7.0,-252.0,-22.0,-27.0,16.0,-15.0,-13.0,-985.0,41.0
-3.0,-253.0,-26.0,-26.0,14.0,-15.0,-15.0,-987.0,43.0
-8.0,-253.0,-24.0,-19.0,12.0,-14.0,-14.0,-983.0,39.0
-4.0,-256.0,-23.0,-17.0,11.0,-15.0,-19.0,-986.0,42.0
-5.0,-254.0,-23.0,-13.0,12.0,-15.0,-14.0,-985.0,39.0
-6.0,-254.0,-25.0,-11.0,11.0,-13.0,-18.0,-990.0,37.0
-7.0,-251.0,-24.0,-10.0,12.0,-13.0,-17.0,-983.0,41.0
-5.0,-253.0,-23.0,-10.0,11.0,-13.0,-14.0,-984.0,37.0
-9.0,-251.0,-26.0,-9.0,11.0,-12.0,-19.0,-982.0,33.0
-7.0,-262.0,-15.0,-10.0,10.0,-11.0,-18.0,-983.0,34.0
-6.0,-252.0,-22.0,-10.0,11.0,-11.0,-19.0,-976.0,34.0
-8.0,-250.0,-27.0,-9.0,12.0,-10.0,-17.0,-982.0,30.0
-7.0,-251.0,-24.0,-10.0,15.0,-10.0,-18.0,-981.0,35.0
-7.0,-252.0,-26.0,-11.0,16.0,-8.0,-21.0,-977.0,38.0
-4.0,-250.0,-25.0,-13.0,17.0,-7.0,-10.0,-980.0,31.0
-7.0,-253.0,-28.0,-13.0,16.0,-8.0,-19.0,-979.0,34.0
-4.0,-254.0,-24.0,-16.0,15.0,-10.0,-10.0,-976.0,35.0
-4.0,-253.0,-27.0,-19.0,16.0,-11.0,-10.0,-983.0,34.0
-4.0,-250.0,-24.0,-20.0,14.0,-13.0,-15.0,-977.0,32.0
-8.0,-250.0,-26.0,-21.0,12.0,-12.0,-13.0,-977.0,25.0
6.0,-251.0,-30.0,-23.0,9.0,-13.0,-10.0,-982.0,28.0
-5.0,-254.0,-28.0,-23.0,9.0,-13.0,-15.0,-976.0,28.0
-5.0,-252.0,-24.0,-25.0,8.0,-12.0,-12.0,-977.0,33.0
-6.0,-252.0,-25.0,-28.0,8.0,-12.0,-14.0,-976.0,34.0
-2.0,-252.0,-29.0,-33.0,7.0,-11.0,-8.0,-979.0,31.0
-6.0,-250.0,-29.0,-38.0,6.0,-11.0,-13.0,-979.0,31.0
-6.0,-250.0,-27.0,-45.0,6.0,-12.0,-14.0,-978.0,34.0
-2.0,-253.0,-26.0,-51.0,9.0,-12.0,-15.0,-980.0,33.0
-4.0,-252.0,-29.0,-56.0,10.0,-14.0,-11.0,-979.0,38.0
-4.0,-253.0,-24.0,-62.0,11.0,-15.0,-10.0,-985.0,38.0
-2.0,-254.0,-24.0,-64.0,16.0,-13.0,-12.0,-981.0,40.0
10.0,-258.0,-7.0,-64.0,19.0,-15.0,-11.0,-979.0,42.0
-4.0,-252.0,-25.0,-60.0,22.0,-17.0,-8.0,-987.0,44.0
-3.0,-255.0,-24.0,-54.0,22.0,-17.0,-7.0,-987.0,43.0
-2.0,-259.0,-23.0,-46.0,21.0,-16.0,-8.0,-986.0,42.0
-4.0,-257.0,-21.0,-37.0,20.0,-13.0,-8.0,-989.0,42.0
-7.0,-257.0,-21.0,-23.0,17.0,-9.0,-4.0,-996.0,36.0
-5.0,-256.0,-28.0,-11.0,12.0,-7.0,-9.0,-992.0,36.0
-4.0,-253.0,-25.0,-3.0,5.0,-6.0,-11.0,-989.0,27.0
-4.0,-253.0,-27.0,3.0,-3.0,-1.0,-8.0,-986.0,28.0
-4.0,-253.0,-26.0,2.0,-7.0,2.0,-9.0,-985.0,27.0
-1.0,-252.0,-30.0,-1.0,-11.0,3.0,-8.0,-987.0,28.0
2.0,-248.0,-41.0,-7.0,-11.0,3.0,-8.0,-978.0,30.0
-3.0,-254.0,-27.0,-11.0,-10.0,4.0,-10.0,-982.0,31.0
-5.0,-253.0,-25.0,-16.0,-6.0,1.0,-11.0,-977.0,35.0
-5.0,-253.0,-22.0,-19.0,-2.0,0.0,-10.0,-976.0,36.0
-3.0,-254.0,-25.0,-22.0,1.0,-2.0,-11.0,-981.0,38.0
-5.0,-251.0,-22.0,-24.0,3.0,-2.0,-9.0,-977.0,41.0
-1.0,-254.0,-24.0,-24.0,4.0,-6.0,-10.0,-977.0,39.0
-4.0,-251.0,-25.0,-27.0,6.0,-8.0,-11.0,-978.0,39.0
-3.0,-251.0,-25.0,-32.0,10.0,-8.0,-8.0,-983.0,44.0
-3.0,-252.0,-23.0,-37.0,15.0,-8.0,-9.0,-981.0,45.0
-3.0,-252.0,-18.0,-41.0,16.0,-7.0,-6.0,-978.0,48.0
1.0,-253.0,-24.0,-39.0,16.0,-10.0,-7.0,-980.0,50.0
-2.0,-255.0,-20.0,-37.0,16.0,-9.0,-9.0,-982.0,48.0
-2.0,-255.0,-21.0,-35.0,14.0,-7.0,-8.0,-981.0,50.0
-4.0,-254.0,-23.0,-32.0,13.0,-8.0,-13.0,-979.0,50.0
-1.0,-253.0,-21.0,-32.0,10.0,-5.0,-8.0,-984.0,46.0
-5.0,-257.0,-17.0,-33.0,7.0,-5.0,-11.0,-979.0,41.0
-3.0,-252.0,-26.0,-36.0,8.0,-8.0,-15.0,-983.0,39.0
-4.0,-255.0,-23.0,-40.0,5.0,-6.0,-15.0,-982.0,35.0
-3.0,-252.0,-22.0,-42.0,5.0,-7.0,-16.0,-978.0,39.0
-5.0,-254.0,-26.0,-45.0,6.0,-7.0,-14.0,-979.0,40.0
-7.0,-253.0,-25.0,-47.0,4.0,-8.0,-13.0,-980.0,38.0
6.0,-251.0,-23.0,-49.0,6.0,-7.0,-14.0,-984.0,36.0
-3.0,-253.0,-23.0,-50.0,7.0,-7.0,-10.0,-988.0,38.0
-6.0,-251.0,-28.0,-50.0,10.0,-7.0,-14.0,-981.0,35.0
-5.0,-252.0,-24.0,-48.0,14.0,-8.0,-15.0,-985.0,37.0
-7.0,-252.0,-25.0,-44.0,18.0,-9.0,-11.0,-985.0,37.0
-5.0,-254.0,-24.0,-39.0,21.0,-7.0,-10.0,-988.0,35.0
-5.0,-253.0,-25.0,-32.0,25.0,-8.0,-12.0,-989.0,29.0
-2.0,-259.0,-28.0,-27.0,26.0,-7.0,-12.0,-989.0,28.0
-6.0,-258.0,-33.0,-22.0,26.0,-7.0,-11.0,-988.0,26.0
-3.0,-257.0,-28.0,-18.0,24.0,-7.0,-15.0,-991.0,35.0
-4.0,-258.0,-27.0,-17.0,21.0,-7.0,-13.0,-985.0,30.0
-5.0,-262.0,-14.0,-14.0,18.0,-7.0,-10.0,-983.0,31.0
-2.0,-257.0,-27.0,-10.0,15.0,-7.0,-12.0,-989.0,32.0
0.0,-256.0,-24.0,-10.0,12.0,-5.0,-14.0,-983.0,36.0
-3.0,-254.0,-24.0,-10.0,10.0,-3.0,-10.0,-981.0,33.0
0.0,-253.0,-22.0,-12.0,7.0,-4.0,-12.0,-981.0,36.0
-4.0,-254.0,-24.0,-12.0,4.0,-6.0,-14.0,-977.0,41.0
-3.0,-253.0,-24.0,-14.0,-1.0,-9.0,-11.0,-980.0,42.0
-4.0,-252.0,-23.0,-14.0,-1.0,-9.0,-17.0,-976.0,42.0
-5.0,-250.0,-23.0,-22.0,3.0,-9.0,-11.0,-979.0,39.0
-5.0,-252.0,-26.0,-29.0,5.0,-9.0,-11.0,-977.0,46.0
-3.0,-252.0,-24.0,-36.0,7.0,-7.0,-12.0,-981.0,49.0
-4.0,-242.0,-37.0,-42.0,8.0,-7.0,-10.0,-980.0,43.0
-6.0,-250.0,-21.0,-44.0,7.0,-6.0,-12.0,-980.0,46.0
-3.0,-256.0,-22.0,-47.0,9.0,-4.0,-15.0,-985.0,41.0
-4.0,-253.0,-27.0,-46.0,11.0,-6.0,-14.0,-980.0,41.0
-5.0,-251.0,-25.0,-45.0,14.0,-4.0,-14.0,-983.0,39.0
-2.0,-253.0,-25.0,-43.0,17.0,-5.0,-12.0,-980.0,41.0
-5.0,-253.0,-26.0,-40.0,20.0,-4.0,-13.0,-986.0,44.0
-4.0,-253.0,-24.0,-40.0,22.0,-5.0,-15.0,-986.0,40.0
-5.0,-252.0,-19.0,-37.0,25.0,-4.0,-12.0,-985.0,37.0
-6.0,-253.0,-24.0,-36.0,27.0,-5.0,-11.0,-982.0,46.0
-4.0,-255.0,-21.0,-35.0,26.0,-4.0,-11.0,-987.0,41.0
-10.0,-260.0,-25.0,-33.0,25.0,-3.0,-10.0,-985.0,44.0
-6.0,-253.0,-23.0,-33.0,22.0,-4.0,-11.0,-981.0,43.0
-2.0,-251.0,-26.0,-32.0,19.0,-2.0,-11.0,-984.0,39.0
-1.0,-255.0,-25.0,-31.0,18.0,-3.0,-7.0,-982.0,46.0
-3.0,-253.0,-24.0,-32.0,16.0,-2.0,-8.0,-981.0,45.0
-3.0,-252.0,-24.0,-36.0,16.0,-4.0,-10.0,-978.0,45.0
-3.0,-252.0,-23.0,-35.0,17.0,-4.0,-9.0,-983.0,40.0
-4.0,-252.0,-21.0,-37.0,18.0,-3.0,-11.0,-976.0,44.0
-4.0,-254.0,-25.0,-36.0,18.0,-3.0,-11.0,-977.0,43.0
-4.0,-252.0,-22.0,-39.0,18.0,-2.0,-9.0,-978.0,47.0
-5.0,-252.0,-24.0,-40.0,18.0,-3.0,-10.0,-978.0,45.0
7.0,-253.0,-33.0,-41.0,15.0,-2.0,-12.0,-984.0,42.0
-6.0,-251.0,-23.0,-41.0,14.0,-2.0,-10.0,-984.0,36.0
-6.0,-255.0,-20.0,-43.0,13.0,-2.0,-8.0,-985.0,37.0
-3.0,-254.0,-22.0,-43.0,13.0,0.0,-10.0,-984.0,34.0
-7.0,-252.0,-25.0,-41.0,11.0,0.0,-9.0,-985.0,36.0
-6.0,-254.0,-24.0,-40.0,12.0,2.0,-15.0,-986.0,31.0
-2.0,-257.0,-27.0,-34.0,11.0,2.0,-13.0,-992.0,38.0
-4.0,-255.0,-25.0,-28.0,9.0,2.0,-13.0,-992.0,36.0
-4.0,-255.0,-26.0,-19.0,8.0,3.0,-12.0,-990.0,32.0
-6.0,-253.0,-27.0,-12.0,8.0,4.0,-11.0,-993.0,35.0
-13.0,-265.0,-25.0,1.0,7.0,2.0,-10.0,-988.0,29.0
-4.0,-255.0,-23.0,9.0,6.0,2.0,-13.0,-988.0,36.0
-4.0,-251.0,-29.0,17.0,5.0,1.0,-18.0,-984.0,40.0
-3.0,-252.0,-27.0,24.0,3.0,-2.0,-15.0,-984.0,36.0
-5.0,-251.0,-24.0,28.0,2.0,-3.0,-9.0,-982.0,38.0
-3.0,-254.0,-21.0,27.0,3.0,-3.0,-13.0,-978.0,40.0
-6.0,-250.0,-23.0,24.0,2.0,-4.0,-12.0,-969.0,47.0
-3.0,-251.0,-17.0,20.0,3.0,-2.0,-9.0,-972.0,48.0
-6.0,-249.0,-20.0,14.0,2.0,-1.0,-10.0,-974.0,52.0
-4.0,-249.0,-21.0,7.0,3.0,-1.0,-18.0,-970.0,53.0
-3.0,-248.0,-22.0,-2.0,4.0,0.0,-8.0,-968.0,58.0
-14.0,-244.0,-13.0,-9.0,4.0,2.0,-11.0,-968.0,63.0
-2.0,-249.0,-16.0,-15.0,5.0,4.0,-13.0,-973.0,63.0
-5.0,-251.0,-19.0,-20.0,8.0,3.0,-11.0,-975.0,65.0
-2.0,-250.0,-15.0,-26.0,11.0,5.0,-12.0,-975.0,61.0
-5.0,-250.0,-19.0,-28.0,14.0,6.0,-10.0,-977.0,59.0
-2.0,-252.0,-23.0,-35.0,17.0,5.0,-8.0,-976.0,58.0
-3.0,-254.0,-21.0,-39.0,21.0,4.0,-13.0,-986.0,58.0
-2.0,-253.0,-18.0,-44.0,20.0,3.0,-14.0,-980.0,55.0
-5.0,-252.0,-14.0,-45.0,20.0,1.0,-13.0,-984.0,62.0
-2.0,-257.0,-22.0,-43.0,19.0,1.0,-8.0,-989.0,56.0
-6.0,-253.0,-17.0,-40.0,19.0,0.0,-14.0,-991.0,50.0
5.0,-256.0,-22.0,-35.0,19.0,-2.0,-12.0,-989.0,51.0
-4.0,-258.0,-22.0,-28.0,18.0,-1.0,-12.0,-989.0,51.0
-1.0,-258.0,-22.0,-22.0,19.0,-1.0,-15.0,-990.0,47.0
-7.0,-255.0,-23.0,-17.0,20.0,0.0,-11.0,-987.0,50.0
-4.0,-253.0,-19.0,-14.0,18.0,0.0,-8.0,-978.0,49.0
-6.0,-250.0,-21.0,-11.0,18.0,-2.0,-13.0,-986.0,51.0
-7.0,-250.0,-22.0,-10.0,17.0,-1.0,-10.0,-981.0,48.0
-5.0,-250.0,-18.0,-13.0,17.0,0.0,-10.0,-976.0,49.0
-5.0,-251.0,-21.0,-17.0,16.0,2.0,-11.0,-976.0,56.0
-2.0,-251.0,-21.0,-21.0,14.0,2.0,-14.0,-976.0,51.0
-3.0,-252.0,-19.0,-23.0,15.0,2.0,-12.0,-977.0,50.0
-3.0,-253.0,-21.0,-27.0,13.0,3.0,-11.0,-975.0,56.0
-4.0,-251.0,-25.0,-31.0,14.0,2.0,-16.0,-972.0,52.0
-3.0,-254.0,-23.0,-33.0,14.0,4.0,-8.0,-978.0,51.0
-7.0,-253.0,-23.0,-36.0,15.0,4.0,-9.0,-977.0,51.0
-3.0,-251.0,-20.0,-41.0,16.0,4.0,-9.0,-969.0,54.0
-3.0,-251.0,-23.0,-44.0,17.0,2.0,-12.0,-978.0,53.0
0.0,-250.0,-23.0,-48.0,19.0,3.0,-7.0,-975.0,52.0
-6.0,-250.0,-20.0,-51.0,20.0,3.0,-8.0,-980.0,58.0
-2.0,-251.0,-22.0,-55.0,21.0,3.0,-8.0,-978.0,56.0
-4.0,-252.0,-16.0,-58.0,19.0,3.0,-9.0,-980.0,57.0
-5.0,-249.0,-18.0,-60.0,20.0,2.0,-10.0,-981.0,53.0
-3.0,-255.0,-19.0,-61.0,19.0,3.0,-13.0,-980.0,52.0
-8.0,-258.0,-15.0,-61.0,18.0,3.0,-7.0,-979.0,51.0
-2.0,-255.0,-18.0,-62.0,19.0,1.0,-13.0,-986.0,49.0
-4.0,-257.0,-20.0,-60.0,19.0,1.0,-13.0,-986.0,49.0
-2.0,-257.0,-23.0,-57.0,20.0,1.0,-10.0,-986.0,47.0
-3.0,-257.0,-20.0,-52.0,20.0,2.0,-12.0,-989.0,49.0
-4.0,-253.0,-23.0,-48.0,21.0,-1.0,-11.0,-993.0,47.0
-6.0,-254.0,-21.0,-46.0,20.0,0.0,-12.0,-984.0,50.0
-6.0,-250.0,-24.0,-41.0,18.0,-2.0,-22.0,-988.0,48.0
0.0,-257.0,-18.0,-40.0,18.0,-2.0,-14.0,-980.0,49.0
-4.0,-253.0,-19.0,-37.0,18.0,0.0,-17.0,-985.0,47.0
-6.0,-253.0,-21.0,-35.0,17.0,1.0,-15.0,-984.0,50.0
-4.0,-253.0,-22.0,-30.0,17.0,1.0,-14.0,-985.0,49.0
-6.0,-256.0,-19.0,-29.0,18.0,0.0,-13.0,-981.0,49.0
-5.0,-254.0,-21.0,-27.0,19.0,1.0,-19.0,-985.0,47.0
-5.0,-253.0,-23.0,-26.0,20.0,2.0,-16.0,-984.0,45.0
-4.0,-253.0,-25.0,-27.0,19.0,3.0,-10.0,-978.0,47.0
-6.0,-253.0,-23.0,-27.0,21.0,4.0,-18.0,-980.0,49.0
-7.0,-248.0,-24.0,-28.0,20.0,5.0,-12.0,-977.0,48.0
-4.0,-253.0,-23.0,-31.0,18.0,3.0,-15.0,-976.0,52.0
-6.0,-252.0,-22.0,-34.0,17.0,6.0,-11.0,-979.0,51.0
-6.0,-252.0,-22.0,-38.0,17.0,5.0,-15.0,-974.0,50.0
-6.0,-250.0,-21.0,-43.0,15.0,5.0,-17.0,-974.0,51.0
-9.0,-248.0,-19.0,-43.0,15.0,5.0,-19.0,-983.0,59.0
-6.0,-248.0,-21.0,-45.0,15.0,6.0,-19.0,-977.0,60.0
-6.0,-253.0,-19.0,-45.0,15.0,5.0,-13.0,-978.0,57.0
-4.0,-253.0,-20.0,-48.0,16.0,3.0,-16.0,-983.0,56.0
-3.0,-254.0,-17.0,-50.0,17.0,1.0,-12.0,-981.0,54.0
-5.0,-252.0,-24.0,-52.0,19.0,0.0,-12.0,-986.0,52.0
-3.0,-258.0,-18.0,-51.0,19.0,-1.0,-21.0,-988.0,55.0
-6.0,-254.0,-19.0,-48.0,20.0,-1.0,-21.0,-987.0,49.0
-4.0,-254.0,-23.0,-43.0,22.0,-2.0,-16.0,-985.0,51.0
-6.0,-254.0,-22.0,-38.0,22.0,-2.0,-10.0,-983.0,44.0
-7.0,-254.0,-21.0,-33.0,21.0,-3.0,-21.0,-987.0,43.0
-8.0,-251.0,-22.0,-26.0,22.0,0.0,-16.0,-986.0,43.0
-5.0,-253.0,-22.0,-23.0,22.0,0.0,-13.0,-984.0,50.0
-8.0,-252.0,-25.0,-21.0,21.0,-1.0,-13.0,-989.0,46.0
-7.0,-253.0,-21.0,-21.0,21.0,-2.0,-15.0,-986.0,46.0
-7.0,-254.0,-20.0,-20.0,22.0,-3.0,-23.0,-986.0,48.0
-6.0,-253.0,-20.0,-20.0,23.0,-4.0,-16.0,-986.0,50.0
-8.0,-252.0,-20.0,-21.0,25.0,-4.0,-15.0,-985.0,53.0
-8.0,-252.0,-20.0,-21.0,25.0,-5.0,-18.0,-985.0,52.0
-4.0,-253.0,-22.0,-22.0,25.0,-4.0,-15.0,-978.0,55.0
-3.0,-252.0,-21.0,-23.0,25.0,-5.0,-16.0,-981.0,53.0
-9.0,-251.0,-20.0,-24.0,24.0,-4.0,-15.0,-978.0,50.0
-6.0,-251.0,-21.0,-25.0,23.0,-3.0,-15.0,-980.0,56.0
-7.0,-251.0,-23.0,-24.0,22.0,-2.0,-15.0,-980.0,57.0
-6.0,-256.0,-25.0,-21.0,20.0,0.0,-14.0,-982.0,55.0
-5.0,-253.0,-24.0,-13.0,17.0,0.0,-21.0,-986.0,49.0
-5.0,-256.0,-24.0,-8.0,13.0,1.0,-18.0,-993.0,45.0
-5.0,-251.0,-24.0,-2.0,10.0,4.0,-18.0,-987.0,44.0
-5.0,-253.0,-23.0,0.0,8.0,7.0,-17.0,-988.0,43.0
-3.0,-256.0,-23.0,1.0,5.0,7.0,-16.0,-983.0,45.0
-4.0,-251.0,-21.0,1.0,4.0,9.0,-16.0,-982.0,43.0
-7.0,-252.0,-26.0,-2.0,3.0,7.0,-16.0,-981.0,46.0
-5.0,-252.0,-20.0,-4.0,4.0,7.0,-18.0,-979.0,52.0
-6.0,-252.0,-22.0,-8.0,6.0,4.0,-15.0,-976.0,54.0
-5.0,-251.0,-19.0,-10.0,8.0,2.0,-16.0,-977.0,58.0
-4.0,-251.0,-17.0,-12.0,12.0,1.0,-16.0,-974.0,60.0
-3.0,-250.0,-13.0,-12.0,13.0,-2.0,-15.0,-974.0,60.0
-8.0,-250.0,-15.0,-14.0,14.0,-5.0,-21.0,-978.0,62.0
-4.0,-252.0,-20.0,-14.0,15.0,-5.0,-20.0,-982.0,61.0
-3.0,-253.0,-18.0,-13.0,16.0,-5.0,-12.0,-986.0,60.0
-5.0,-255.0,-14.0,-12.0,16.0,-7.0,-13.0,-987.0,62.0
-5.0,-254.0,-21.0,-9.0,19.0,-9.0,-7.0,-983.0,65.0
-4.0,-254.0,-18.0,-3.0,21.0,-9.0,-12.0,-987.0,63.0
-2.0,-254.0,-17.0,3.0,22.0,-8.0,-13.0,-987.0,67.0
-5.0,-254.0,-19.0,8.0,21.0,-9.0,-12.0,-986.0,68.0
-3.0,-255.0,-19.0,10.0,23.0,-9.0,-16.0,-985.0,66.0
-5.0,-251.0,-21.0,11.0,23.0,-7.0,-11.0,-978.0,63.0
-7.0,-252.0,-19.0,10.0,23.0,-6.0,-14.0,-981.0,65.0
-4.0,-253.0,-17.0,7.0,22.0,-6.0,-22.0,-980.0,59.0
-5.0,-250.0,-16.0,2.0,20.0,-6.0,-22.0,-985.0,56.0
-6.0,-251.0,-16.0,-3.0,20.0,-7.0,-20.0,-979.0,55.0
-6.0,-253.0,-20.0,-8.0,20.0,-5.0,-18.0,-975.0,57.0
-7.0,-249.0,-23.0,-15.0,20.0,-5.0,-15.0,-975.0,57.0
-5.0,-254.0,-21.0,-18.0,18.0,-5.0,-14.0,-978.0,58.0
-5.0,-250.0,-19.0,-23.0,18.0,-4.0,-16.0,-973.0,53.0
-5.0,-250.0,-20.0,-30.0,18.0,-5.0,-16.0,-977.0,53.0
-5.0,-249.0,-21.0,-33.0,18.0,-3.0,-12.0,-977.0,56.0
-3.0,-249.0,-19.0,-37.0,18.0,-4.0,-9.0,-982.0,52.0
-3.0,-254.0,-23.0,-40.0,17.0,-2.0,-14.0,-980.0,56.0
-3.0,-250.0,-22.0,-42.0,18.0,-3.0,-7.0,-982.0,50.0
-3.0,-253.0,-20.0,-42.0,17.0,-2.0,-15.0,-984.0,56.0
-5.0,-253.0,-19.0,-39.0,15.0,-2.0,-12.0,-987.0,59.0
-6.0,-256.0,-19.0,-36.0,13.0,1.0,-8.0,-983.0,55.0
-6.0,-254.0,-17.0,-35.0,11.0,-1.0,-10.0,-981.0,56.0
-6.0,-255.0,-18.0,-30.0,9.0,0.0,-13.0,-988.0,60.0
-2.0,-254.0,-17.0,-27.0,8.0,1.0,-15.0,-986.0,60.0
-8.0,-252.0,-20.0,-26.0,7.0,1.0,-11.0,-982.0,59.0
-7.0,-255.0,-19.0,-21.0,5.0,2.0,-12.0,-981.0,61.0
-8.0,-253.0,-17.0,-17.0,4.0,0.0,-15.0,-984.0,57.0
-2.0,-252.0,-19.0,-15.0,6.0,-1.0,-16.0,-979.0,59.0
-4.0,-252.0,-17.0,-15.0,8.0,-2.0,-15.0,-979.0,61.0
-3.0,-257.0,-18.0,-18.0,10.0,-4.0,-17.0,-979.0,63.0
-7.0,-253.0,-18.0,-21.0,12.0,-5.0,-17.0,-979.0,58.0
-5.0,-255.0,-18.0,-24.0,13.0,-6.0,-16.0,-977.0,58.0
-7.0,-253.0,-20.0,-28.0,13.0,-7.0,-17.0,-979.0,62.0
-6.0,-252.0,-18.0,-30.0,15.0,-7.0,-12.0,-977.0,66.0
-5.0,-253.0,-17.0,-31.0,14.0,-8.0,-16.0,-982.0,61.0
-3.0,-255.0,-19.0,-32.0,15.0,-8.0,-13.0,-984.0,60.0
-6.0,-252.0,-23.0,-31.0,16.0,-7.0,-15.0,-980.0,59.0
-7.0,-252.0,-18.0,-32.0,16.0,-6.0,-16.0,-975.0,62.0
-8.0,-251.0,-20.0,-31.0,15.0,-4.0,-11.0,-981.0,64.0
-4.0,-254.0,-19.0,-31.0,14.0,-3.0,-9.0,-979.0,60.0
-6.0,-250.0,-18.0,-31.0,14.0,-2.0,-13.0,-980.0,65.0
-5.0,-252.0,-19.0,-35.0,13.0,-1.0,-16.0,-977.0,61.0
-7.0,-252.0,-19.0,-36.0,14.0,-1.0,-12.0,-981.0,63.0
-6.0,-252.0,-17.0,-36.0,14.0,0.0,-14.0,-980.0,68.0
-6.0,-251.0,-17.0,-36.0,14.0,0.0,-13.0,-980.0,62.0
-6.0,-252.0,-16.0,-35.0,15.0,-1.0,-12.0,-982.0,60.0
-5.0,-253.0,-16.0,-36.0,16.0,-2.0,-16.0,-985.0,67.0
-4.0,-254.0,-17.0,-34.0,16.0,-3.0,-19.0,-983.0,67.0
-2.0,-254.0,-15.0,-34.0,16.0,-4.0,-17.0,-986.0,62.0
-7.0,-250.0,-15.0,-35.0,15.0,-4.0,-14.0,-983.0,62.0
-5.0,-252.0,-17.0,-35.0,17.0,-5.0,-10.0,-978.0,62.0
-2.0,-253.0,-16.0,-35.0,17.0,-5.0,-15.0,-978.0,64.0
-7.0,-251.0,-17.0,-34.0,17.0,-6.0,-18.0,-982.0,68.0
-6.0,-252.0,-21.0,-33.0,17.0,-7.0,-20.0,-979.0,66.0
-6.0,-254.0,-18.0,-31.0,16.0,-8.0,-15.0,-983.0,61.0
-6.0,-252.0,-15.0,-28.0,14.0,-8.0,-17.0,-983.0,61.0
-5.0,-253.0,-18.0,-25.0,14.0,-8.0,-19.0,-982.0,60.0
-7.0,-252.0,-16.0,-24.0,11.0,-6.0,-16.0,-982.0,63.0
-7.0,-250.0,-21.0,-20.0,11.0,-7.0,-15.0,-983.0,64.0
-4.0,-255.0,-20.0,-20.0,12.0,-7.0,-17.0,-980.0,69.0
-4.0,-253.0,-18.0,-21.0,11.0,-6.0,-14.0,-983.0,66.0
-9.0,-251.0,-17.0,-21.0,11.0,-6.0,-14.0,-982.0,61.0
-5.0,-252.0,-20.0,-21.0,12.0,-6.0,-22.0,-981.0,61.0
-7.0,-250.0,-18.0,-20.0,12.0,-6.0,-14.0,-978.0,64.0
-8.0,-253.0,-19.0,-22.0,11.0,-6.0,-16.0,-977.0,68.0
-1.0,-251.0,-21.0,-21.0,12.0,-4.0,-13.0,-978.0,62.0
-4.0,-250.0,-18.0,-24.0,12.0,-5.0,-12.0,-977.0,62.0
-4.0,-253.0,-19.0,-24.0,13.0,-5.0,-11.0,-975.0,70.0
-6.0,-250.0,-17.0,-26.0,14.0,-5.0,-10.0,-978.0,60.0
-4.0,-250.0,-19.0,-30.0,14.0,-6.0,-12.0,-980.0,69.0
-3.0,-253.0,-15.0,-29.0,15.0,-6.0,-13.0,-975.0,65.0
-4.0,-252.0,-15.0,-30.0,16.0,-5.0,-17.0,-980.0,64.0
-7.0,-251.0,-18.0,-33.0,18.0,-5.0,-15.0,-978.0,64.0
-2.0,-252.0,-18.0,-31.0,17.0,-3.0,-14.0,-977.0,65.0
-3.0,-254.0,-16.0,-32.0,16.0,-2.0,-11.0,-983.0,63.0
-5.0,-252.0,-17.0,-30.0,16.0,-1.0,-14.0,-978.0,68.0
-5.0,-254.0,-18.0,-31.0,13.0,-2.0,-12.0,-977.0,67.0
-5.0,-252.0,-18.0,-32.0,12.0,-1.0,-13.0,-979.0,65.0
-4.0,-253.0,-20.0,-30.0,9.0,0.0,-17.0,-976.0,70.0
-4.0,-251.0,-15.0,-33.0,7.0,-1.0,-17.0,-976.0,68.0
-3.0,-252.0,-16.0,-36.0,8.0,0.0,-15.0,-980.0,66.0
-5.0,-252.0,-17.0,-39.0,5.0,0.0,-15.0,-982.0,69.0
-3.0,-255.0,-18.0,-42.0,5.0,0.0,-17.0,-979.0,62.0
-8.0,-252.0,-13.0,-43.0,4.0,-1.0,-17.0,-980.0,72.0
-3.0,-252.0,-14.0,-43.0,7.0,-3.0,-12.0,-978.0,68.0
-4.0,-253.0,-17.0,-45.0,5.0,-3.0,-16.0,-980.0,69.0
-3.0,-251.0,-17.0,-45.0,7.0,-4.0,-17.0,-985.0,72.0
-4.0,-253.0,-20.0,-45.0,10.0,-5.0,-19.0,-981.0,70.0
-4.0,-252.0,-17.0,-46.0,11.0,-5.0,-13.0,-982.0,64.0
-5.0,-253.0,-19.0,-44.0,12.0,-5.0,-16.0,-983.0,69.0
-7.0,-253.0,-19.0,-42.0,14.0,-7.0,-18.0,-983.0,67.0
-5.0,-259.0,-22.0,-38.0,15.0,-6.0,-16.0,-984.0,64.0
-5.0,-255.0,-15.0,-35.0,19.0,-6.0,-17.0,-987.0,66.0
-7.0,-251.0,-16.0,-31.0,19.0,-8.0,-19.0,-980.0,65.0
-7.0,-255.0,-17.0,-27.0,22.0,-7.0,-12.0,-983.0,65.0
-4.0,-254.0,-18.0,-24.0,24.0,-7.0,-10.0,-983.0,70.0
-5.0,-252.0,-15.0,-22.0,23.0,-7.0,-10.0,-984.0,64.0
-8.0,-253.0,-19.0,-23.0,24.0,-7.0,-12.0,-977.0,70.0
-8.0,-248.0,-15.0,-24.0,21.0,-6.0,-11.0,-980.0,70.0
-6.0,-253.0,-18.0,-24.0,21.0,-7.0,-10.0,-980.0,72.0
-2.0,-251.0,-18.0,-29.0,21.0,-5.0,-12.0,-979.0,69.0
-3.0,-253.0,-16.0,-30.0,21.0,-5.0,-12.0,-978.0,63.0
-4.0,-250.0,-16.0,-35.0,19.0,-5.0,-9.0,-976.0,68.0
-6.0,-252.0,-17.0,-36.0,17.0,-4.0,-10.0,-976.0,67.0
-3.0,-254.0,-16.0,-41.0,14.0,-4.0,-8.0,-978.0,67.0
-5.0,-253.0,-14.0,-41.0,13.0,-1.0,-9.0,-979.0,66.0
-5.0,-251.0,-15.0,-40.0,14.0,-2.0,-11.0,-979.0,65.0
-7.0,-250.0,-15.0,-41.0,15.0,-1.0,-11.0,-979.0,69.0
-6.0,-254.0,-15.0,-40.0,15.0,0.0,-12.0,-983.0,67.0
-6.0,-254.0,-18.0,-38.0,16.0,0.0,-15.0,-980.0,69.0
-4.0,-257.0,-14.0,-37.0,14.0,0.0,-10.0,-983.0,68.0
-5.0,-253.0,-17.0,-35.0,14.0,-1.0,-12.0,-984.0,69.0
-6.0,-252.0,-15.0,-35.0,14.0,-1.0,-10.0,-980.0,66.0
-3.0,-248.0,-17.0,-36.0,13.0,-1.0,-9.0,-985.0,70.0
-7.0,-252.0,-14.0,-36.0,13.0,-1.0,-10.0,-982.0,68.0
-6.0,-251.0,-14.0,-38.0,14.0,-1.0,-15.0,-983.0,71.0
-9.0,-250.0,-15.0,-41.0,13.0,1.0,-14.0,-976.0,70.0
-3.0,-252.0,-18.0,-42.0,14.0,0.0,-12.0,-975.0,72.0
-4.0,-252.0,-15.0,-48.0,15.0,-2.0,-12.0,-983.0,75.0
-4.0,-253.0,-15.0,-52.0,17.0,-3.0,-13.0,-977.0,70.0
-6.0,-253.0,-21.0,-54.0,18.0,-4.0,-18.0,-978.0,69.0
-6.0,-252.0,-14.0,-54.0,19.0,-6.0,-16.0,-983.0,71.0
-6.0,-254.0,-16.0,-53.0,19.0,-6.0,-16.0,-985.0,68.0
-5.0,-255.0,-16.0,-50.0,21.0,-6.0,-15.0,-980.0,68.0
-2.0,-254.0,-19.0,-44.0,20.0,-3.0,-18.0,-983.0,67.0
-5.0,-255.0,-15.0,-41.0,19.0,-2.0,-13.0,-978.0,65.0
-5.0,-254.0,-15.0,-37.0,18.0,-1.0,-16.0,-985.0,68.0
-7.0,-251.0,-16.0,-34.0,15.0,-1.0,-22.0,-977.0,63.0
-6.0,-252.0,-17.0,-36.0,15.0,-1.0,-11.0,-979.0,69.0
-2.0,-250.0,-14.0,-40.0,13.0,-1.0,-15.0,-975.0,71.0
-6.0,-252.0,-19.0,-45.0,14.0,0.0,-12.0,-975.0,69.0
-8.0,-251.0,-11.0,-49.0,15.0,-1.0,-20.0,-983.0,71.0
-6.0,-251.0,-13.0,-54.0,18.0,-3.0,-14.0,-977.0,70.0
-6.0,-254.0,-16.0,-57.0,22.0,-3.0,-18.0,-982.0,77.0
-4.0,-253.0,-17.0,-57.0,24.0,-5.0,-16.0,-987.0,69.0
-8.0,-254.0,-15.0,-58.0,26.0,-7.0,-10.0,-979.0,69.0
-6.0,-258.0,-20.0,-58.0,27.0,-7.0,-13.0,-984.0,70.0
-5.0,-250.0,-18.0,-55.0,26.0,-8.0,-14.0,-982.0,71.0
-9.0,-254.0,-15.0,-53.0,24.0,-6.0,-17.0,-986.0,67.0
-5.0,-252.0,-16.0,-48.0,22.0,-4.0,-14.0,-985.0,67.0
-4.0,-256.0,-16.0,-41.0,19.0,-2.0,-12.0,-988.0,67.0
-3.0,-255.0,-19.0,-30.0,16.0,-1.0,-11.0,-988.0,60.0
-6.0,-253.0,-21.0,-19.0,11.0,0.0,-16.0,-985.0,59.0
-5.0,-254.0,-21.0,-13.0,6.0,3.0,-18.0,-987.0,58.0
-5.0,-253.0,-20.0,-12.0,2.0,5.0,-13.0,-981.0,59.0
-4.0,-255.0,-21.0,-12.0,1.0,8.0,-18.0,-981.0,53.0
-5.0,-254.0,-20.0,-16.0,1.0,8.0,-16.0,-983.0,59.0
-7.0,-253.0,-20.0,-21.0,3.0,8.0,-18.0,-977.0,61.0
-6.0,-252.0,-19.0,-25.0,7.0,6.0,-16.0,-973.0,69.0
-5.0,-250.0,-15.0,-28.0,11.0,4.0,-16.0,-978.0,68.0
-3.0,-250.0,-21.0,-32.0,14.0,1.0,-16.0,-974.0,74.0
-5.0,-250.0,-14.0,-35.0,17.0,-1.0,-13.0,-977.0,79.0
-8.0,-250.0,-19.0,-41.0,19.0,-2.0,-16.0,-979.0,79.0
-5.0,-251.0,-14.0,-45.0,22.0,-4.0,-13.0,-981.0,77.0
-3.0,-252.0,-11.0,-48.0,22.0,-4.0,-15.0,-979.0,73.0
-2.0,-251.0,-15.0,-50.0,23.0,-5.0,-18.0,-982.0,80.0
-2.0,-255.0,-14.0,-51.0,23.0,-7.0,-11.0,-984.0,77.0
-6.0,-251.0,-16.0,-48.0,24.0,-8.0,-14.0,-982.0,76.0
-4.0,-257.0,-14.0,-46.0,22.0,-7.0,-16.0,-984.0,80.0
-4.0,-252.0,-15.0,-42.0,22.0,-8.0,-15.0,-980.0,76.0
-4.0,-252.0,-16.0,-37.0,19.0,-8.0,-15.0,-983.0,78.0
-7.0,-253.0,-15.0,-35.0,15.0,-8.0,-19.0,-984.0,72.0
-6.0,-252.0,-16.0,-35.0,14.0,-7.0,-15.0,-985.0,67.0
-8.0,-251.0,-15.0,-38.0,15.0,-6.0,-20.0,-981.0,67.0
-5.0,-250.0,-14.0,-39.0,15.0,-7.0,-16.0,-980.0,71.0
-5.0,-251.0,-17.0,-44.0,14.0,-8.0,-17.0,-978.0,70.0
-4.0,-254.0,-13.0,-46.0,14.0,-5.0,-16.0,-984.0,69.0
-6.0,-251.0,-16.0,-43.0,14.0,-5.0,-14.0,-978.0,65.0
-11.0,-251.0,-14.0,-43.0,15.0,-4.0,-15.0,-980.0,71.0
-5.0,-253.0,-16.0,-42.0,14.0,-3.0,-17.0,-979.0,71.0
-3.0,-254.0,-22.0,-40.0,16.0,-4.0,-17.0,-982.0,66.0
-5.0,-254.0,-17.0,-40.0,17.0,-5.0,-17.0,-982.0,70.0
-2.0,-252.0,-19.0,-38.0,20.0,-4.0,-20.0,-979.0,72.0
-6.0,-254.0,-17.0,-39.0,20.0,-4.0,-16.0,-983.0,68.0
-7.0,-253.0,-14.0,-37.0,21.0,-5.0,-14.0,-984.0,70.0
-4.0,-253.0,-18.0,-36.0,20.0,-4.0,-13.0,-980.0,69.0
-4.0,-255.0,-17.0,-34.0,18.0,-4.0,-15.0,-983.0,68.0
-4.0,-249.0,-17.0,-35.0,15.0,-4.0,-13.0,-980.0,68.0
-5.0,-254.0,-19.0,-35.0,14.0,-4.0,-15.0,-980.0,67.0
-4.0,-251.0,-16.0,-33.0,14.0,-5.0,-18.0,-979.0,66.0
-4.0,-254.0,-19.0,-33.0,14.0,-6.0,-15.0,-983.0,68.0
-5.0,-251.0,-15.0,-29.0,13.0,-6.0,-17.0,-979.0,69.0
-5.0,-252.0,-16.0,-28.0,13.0,-4.0,-16.0,-981.0,71.0
-4.0,-251.0,-15.0,-27.0,12.0,-5.0,-9.0,-980.0,71.0
-3.0,-254.0,-13.0,-29.0,13.0,-5.0,-17.0,-978.0,70.0
-4.0,-255.0,-17.0,-30.0,13.0,-5.0,-13.0,-982.0,72.0
-7.0,-252.0,-16.0,-32.0,14.0,-5.0,-16.0,-979.0,71.0
-4.0,-258.0,-18.0,-35.0,15.0,-7.0,-12.0,-983.0,74.0
-6.0,-251.0,-15.0,-36.0,17.0,-7.0,-13.0,-983.0,69.0
-6.0,-256.0,-18.0,-35.0,16.0,-7.0,-16.0,-984.0,70.0
-6.0,-252.0,-20.0,-35.0,18.0,-8.0,-11.0,-981.0,69.0
-5.0,-252.0,-18.0,-32.0,17.0,-7.0,-19.0,-977.0,73.0
-5.0,-254.0,-17.0,-31.0,17.0,-6.0,-20.0,-981.0,65.0
-4.0,-253.0,-15.0,-25.0,17.0,-6.0,-11.0,-981.0,69.0
-4.0,-249.0,-22.0,-25.0,16.0,-5.0,-10.0,-986.0,69.0
-4.0,-252.0,-18.0,-25.0,16.0,-6.0,-14.0,-979.0,68.0
-3.0,-254.0,-19.0,-25.0,15.0,-3.0,-11.0,-979.0,70.0
-4.0,-252.0,-19.0,-27.0,14.0,-2.0,-10.0,-978.0,73.0
-3.0,-252.0,-18.0,-29.0,13.0,-1.0,-16.0,-979.0,70.0
-10.0,-249.0,-16.0,-31.0,13.0,-2.0,-14.0,-976.0,67.0
-3.0,-250.0,-18.0,-34.0,12.0,-2.0,-13.0,-978.0,69.0
-6.0,-250.0,-15.0,-35.0,13.0,-2.0,-21.0,-982.0,74.0
-6.0,-251.0,-13.0,-36.0,13.0,-3.0,-18.0,-982.0,74.0
-4.0,-250.0,-13.0,-36.0,14.0,-4.0,-11.0,-979.0,72.0
-7.0,-256.0,-11.0,-35.0,17.0,-4.0,-14.0,-981.0,71.0
-3.0,-254.0,-15.0,-34.0,17.0,-4.0,-16.0,-979.0,71.0
-3.0,-254.0,-16.0,-32.0,17.0,-6.0,-16.0,-977.0,78.0
-3.0,-255.0,-10.0,-32.0,17.0,-6.0,-12.0,-983.0,76.0
-4.0,-255.0,-15.0,-32.0,15.0,-6.0,-14.0,-981.0,74.0
-3.0,-252.0,-14.0,-32.0,15.0,-6.0,-15.0,-977.0,77.0
-4.0,-251.0,-15.0,-31.0,16.0,-6.0,-12.0,-980.0,73.0
-5.0,-252.0,-13.0,-31.0,15.0,-6.0,-13.0,-980.0,74.0
-6.0,-250.0,-17.0,-34.0,12.0,-7.0,-11.0,-981.0,70.0
-7.0,-252.0,-12.0,-33.0,12.0,-5.0,-15.0,-980.0,74.0
-6.0,-250.0,-15.0,-33.0,11.0,-5.0,-13.0,-974.0,80.0
-6.0,-252.0,-16.0,-34.0,9.0,-6.0,-16.0,-979.0,73.0
-5.0,-252.0,-15.0,-38.0,8.0,-6.0,-12.0,-981.0,71.0
-5.0,-252.0,-12.0,-38.0,8.0,-5.0,-16.0,-983.0,74.0
-7.0,-251.0,-16.0,-41.0,7.0,-5.0,-15.0,-977.0,76.0
-4.0,-254.0,-11.0,-42.0,5.0,-4.0,-13.0,-982.0,72.0
-4.0,-253.0,-15.0,-42.0,6.0,-6.0,-11.0,-980.0,73.0
-4.0,-249.0,-15.0,-42.0,8.0,-6.0,-15.0,-981.0,71.0
-8.0,-249.0,-21.0,-44.0,10.0,-8.0,-13.0,-979.0,72.0
-4.0,-254.0,-19.0,-45.0,11.0,-8.0,-8.0,-979.0,74.0
-3.0,-251.0,-12.0,-45.0,15.0,-8.0,-17.0,-980.0,75.0
-3.0,-251.0,-15.0,-46.0,17.0,-8.0,-9.0,-980.0,71.0
-3.0,-253.0,-15.0,-45.0,20.0,-9.0,-9.0,-983.0,72.0
-7.0,-251.0,-19.0,-42.0,21.0,-8.0,-17.0,-986.0,75.0
-4.0,-254.0,-15.0,-41.0,22.0,-8.0,-11.0,-982.0,73.0
-3.0,-253.0,-15.0,-40.0,19.0,-6.0,-11.0,-980.0,70.0
0.0,-252.0,-17.0,-41.0,18.0,-5.0,-10.0,-978.0,71.0
-3.0,-253.0,-18.0,-41.0,18.0,-3.0,-14.0,-981.0,71.0
-6.0,-255.0,-13.0,-40.0,17.0,-1.0,-12.0,-983.0,69.0
-3.0,-252.0,-18.0,-40.0,14.0,-1.0,-14.0,-979.0,76.0
-5.0,-250.0,-18.0,-39.0,13.0,0.0,-14.0,-984.0,73.0
-4.0,-249.0,-9.0,-38.0,13.0,0.0,-15.0,-980.0,73.0
-2.0,-254.0,-17.0,-39.0,12.0,1.0,-14.0,-982.0,70.0
-6.0,-251.0,-19.0,-39.0,11.0,2.0,-10.0,-981.0,71.0
-4.0,-254.0,-17.0,-37.0,10.0,1.0,-16.0,-980.0,71.0
-8.0,-252.0,-16.0,-35.0,10.0,0.0,-12.0,-981.0,69.0
-7.0,-253.0,-15.0,-35.0,10.0,0.0,-13.0,-976.0,66.0
-3.0,-252.0,-16.0,-34.0,12.0,0.0,-17.0,-982.0,71.0
-5.0,-251.0,-14.0,-34.0,13.0,-1.0,-15.0,-976.0,72.0
-6.0,-250.0,-13.0,-34.0,14.0,-2.0,-11.0,-979.0,74.0
-8.0,-253.0,-13.0,-35.0,14.0,-2.0,-12.0,-980.0,70.0
-5.0,-254.0,-18.0,-34.0,13.0,-4.0,-15.0,-977.0,69.0
-6.0,-252.0,-16.0,-33.0,13.0,-4.0,-15.0,-974.0,72.0
-4.0,-251.0,-11.0,-35.0,13.0,-3.0,-11.0,-979.0,71.0
-4.0,-251.0,-17.0,-38.0,12.0,-3.0,-10.0,-975.0,71.0
-3.0,-252.0,-13.0,-40.0,12.0,-4.0,-18.0,-977.0,77.0
-5.0,-252.0,-13.0,-41.0,11.0,-1.0,-15.0,-984.0,76.0
-2.0,-252.0,-16.0,-41.0,10.0,-1.0,-15.0,-981.0,75.0
-7.0,-253.0,-14.0,-41.0,10.0,-1.0,-15.0,-981.0,76.0
-4.0,-252.0,-12.0,-40.0,10.0,-1.0,-16.0,-984.0,74.0
-7.0,-251.0,-16.0,-39.0,12.0,-1.0,-11.0,-983.0,78.0
-5.0,-251.0,-14.0,-38.0,12.0,-1.0,-13.0,-985.0,77.0
-3.0,-254.0,-16.0,-34.0,13.0,-1.0,-12.0,-985.0,76.0
-5.0,-252.0,-17.0,-34.0,12.0,1.0,-10.0,-979.0,78.0
-6.0,-251.0,-16.0,-31.0,13.0,1.0,-14.0,-984.0,74.0
-3.0,-252.0,-10.0,-29.0,13.0,2.0,-15.0,-981.0,73.0
-8.0,-252.0,-15.0,-29.0,13.0,2.0,-14.0,-984.0,78.0
-5.0,-252.0,-14.0,-28.0,13.0,2.0,-11.0,-977.0,69.0
-5.0,-251.0,-14.0,-25.0,13.0,3.0,-14.0,-978.0,77.0
-5.0,-251.0,-12.0,-25.0,10.0,3.0,-14.0,-978.0,77.0
-4.0,-253.0,-19.0,-24.0,11.0,4.0,-13.0,-978.0,73.0
-5.0,-250.0,-17.0,-25.0,10.0,3.0,-13.0,-982.0,75.0
-5.0,-251.0,-13.0,-26.0,11.0,4.0,-17.0,-976.0,74.0
-7.0,-248.0,-14.0,-28.0,12.0,4.0,-12.0,-978.0,73.0
-1.0,-254.0,-15.0,-31.0,12.0,4.0,-12.0,-976.0,75.0
-5.0,-253.0,-16.0,-34.0,12.0,4.0,-16.0,-975.0,80.0
-4.0,-252.0,-14.0,-37.0,13.0,4.0,-13.0,-977.0,77.0
-6.0,-253.0,-9.0,-44.0,11.0,4.0,-18.0,-979.0,79.0
-6.0,-252.0,-14.0,-47.0,13.0,0.0,-11.0,-981.0,74.0
-6.0,-253.0,-16.0,-47.0,14.0,0.0,-12.0,-973.0,76.0
-5.0,-254.0,-13.0,-42.0,12.0,-5.0,-16.0,-986.0,78.0
-4.0,-255.0,-15.0,-39.0,16.0,-4.0,-14.0,-986.0,75.0
-7.0,-253.0,-10.0,-36.0,18.0,-3.0,-20.0,-984.0,76.0
-5.0,-253.0,-12.0,-31.0,19.0,-2.0,-17.0,-987.0,72.0
-3.0,-253.0,-14.0,-25.0,19.0,1.0,-12.0,-984.0,76.0
-4.0,-253.0,-17.0,-22.0,17.0,2.0,-18.0,-980.0,76.0
-3.0,-253.0,-14.0,-21.0,16.0,4.0,-13.0,-979.0,73.0
-3.0,-253.0,-13.0,-22.0,13.0,4.0,-11.0,-976.0,78.0
-4.0,-252.0,-10.0,-27.0,13.0,4.0,-13.0,-974.0,80.0
-7.0,-249.0,-17.0,-32.0,12.0,3.0,-14.0,-974.0,79.0
-2.0,-252.0,-10.0,-39.0,10.0,3.0,-13.0,-978.0,81.0
-1.0,-247.0,-12.0,-45.0,12.0,3.0,-11.0,-979.0,81.0
-3.0,-248.0,-14.0,-47.0,13.0,2.0,-12.0,-980.0,80.0
-6.0,-251.0,-12.0,-50.0,14.0,0.0,-15.0,-979.0,78.0
-6.0,-250.0,-12.0,-50.0,16.0,0.0,-16.0,-980.0,84.0
-7.0,-252.0,-14.0,-47.0,18.0,-2.0,-14.0,-981.0,82.0
-6.0,-251.0,-14.0,-41.0,19.0,-1.0,-14.0,-983.0,86.0
-4.0,-253.0,-18.0,-38.0,19.0,-1.0,-15.0,-983.0,79.0
-8.0,-252.0,-9.0,-32.0,18.0,1.0,-16.0,-982.0,77.0
-5.0,-251.0,-13.0,-21.0,15.0,2.0,-18.0,-983.0,70.0
-7.0,-254.0,-14.0,-15.0,11.0,5.0,-20.0,-980.0,69.0
-5.0,-254.0,-15.0,-11.0,7.0,5.0,-16.0,-981.0,67.0
-6.0,-251.0,-14.0,-10.0,2.0,8.0,-17.0,-984.0,69.0
-2.0,-253.0,-16.0,-14.0,1.0,11.0,-19.0,-978.0,71.0
-6.0,-249.0,-16.0,-21.0,-3.0,11.0,-21.0,-974.0,67.0
-5.0,-251.0,-15.0,-27.0,-3.0,11.0,-19.0,-974.0,70.0
-6.0,-254.0,-18.0,-37.0,-1.0,10.0,-20.0,-972.0,73.0
-9.0,-252.0,-17.0,-44.0,3.0,9.0,-18.0,-972.0,78.0
-8.0,-251.0,-16.0,-49.0,6.0,6.0,-20.0,-972.0,82.0
-7.0,-250.0,-10.0,-52.0,9.0,5.0,-19.0,-977.0,93.0
-7.0,-250.0,-9.0,-53.0,14.0,3.0,-24.0,-976.0,84.0
-8.0,-252.0,-11.0,-51.0,17.0,1.0,-15.0,-980.0,86.0
-9.0,-251.0,-10.0,-48.0,18.0,0.0,-18.0,-983.0,86.0
-8.0,-255.0,-12.0,-45.0,18.0,0.0,-18.0,-985.0,85.0
-10.0,-253.0,-11.0,-39.0,19.0,-1.0,-13.0,-985.0,89.0
-8.0,-253.0,-12.0,-32.0,18.0,-2.0,-19.0,-986.0,85.0
-7.0,-253.0,-14.0,-24.0,18.0,-3.0,-15.0,-986.0,82.0
-4.0,-253.0,-9.0,-15.0,19.0,-4.0,-18.0,-980.0,86.0
-4.0,-252.0,-11.0,-6.0,17.0,-3.0,-17.0,-981.0,82.0
-6.0,-253.0,-11.0,-6.0,16.0,-3.0,-18.0,-982.0,85.0
-4.0,-253.0,-13.0,-6.0,14.0,-2.0,-23.0,-977.0,78.0
-6.0,-254.0,-18.0,-6.0,12.0,-4.0,-22.0,-979.0,78.0
-4.0,-250.0,-14.0,-11.0,11.0,-3.0,-20.0,-977.0,82.0
-9.0,-251.0,-14.0,-15.0,11.0,-3.0,-23.0,-979.0,79.0
-5.0,-250.0,-15.0,-19.0,10.0,-3.0,-12.0,-981.0,79.0
-5.0,-254.0,-15.0,-23.0,10.0,-2.0,-23.0,-979.0,83.0
-6.0,-252.0,-17.0,-25.0,10.0,-2.0,-16.0,-978.0,88.0
-4.0,-254.0,-12.0,-25.0,11.0,-2.0,-19.0,-975.0,85.0
-6.0,-252.0,-15.0,-22.0,11.0,-2.0,-20.0,-983.0,73.0
-10.0,-250.0,-16.0,-22.0,13.0,-3.0,-16.0,-982.0,78.0
-6.0,-250.0,-16.0,-21.0,15.0,-2.0,-13.0,-983.0,80.0
-4.0,-254.0,-16.0,-18.0,14.0,-2.0,-16.0,-979.0,74.0
-7.0,-251.0,-17.0,-15.0,15.0,-3.0,-16.0,-982.0,74.0
-7.0,-253.0,-15.0,-15.0,15.0,-3.0,-14.0,-981.0,77.0
-6.0,-254.0,-14.0,-12.0,15.0,-3.0,-15.0,-981.0,74.0
-7.0,-252.0,-16.0,-12.0,17.0,-3.0,-12.0,-981.0,74.0
-6.0,-253.0,-16.0,-14.0,15.0,-3.0,-16.0,-982.0,74.0
-3.0,-251.0,-15.0,-12.0,16.0,-2.0,-14.0,-978.0,75.0
-5.0,-250.0,-12.0,-13.0,14.0,-2.0,-21.0,-976.0,77.0
-3.0,-251.0,-15.0,-13.0,13.0,-2.0,-11.0,-976.0,80.0
-7.0,-251.0,-10.0,-14.0,13.0,-1.0,-16.0,-981.0,80.0
-4.0,-250.0,-17.0,-16.0,14.0,-3.0,-15.0,-977.0,81.0
-1.0,-253.0,-15.0,-18.0,16.0,-4.0,-20.0,-978.0,81.0
-6.0,-251.0,-12.0,-24.0,18.0,-3.0,-12.0,-978.0,81.0
-5.0,-250.0,-12.0,-27.0,16.0,-3.0,-16.0,-981.0,88.0
-4.0,-255.0,-15.0,-32.0,15.0,-1.0,-16.0,-978.0,85.0
-8.0,-250.0,-13.0,-34.0,15.0,-1.0,-14.0,-977.0,86.0
-7.0,-250.0,-13.0,-36.0,12.0,-1.0,-13.0,-977.0,88.0
-5.0,-251.0,-8.0,-36.0,13.0,0.0,-13.0,-981.0,89.0
-5.0,-252.0,-11.0,-35.0,11.0,1.0,-16.0,-982.0,89.0
-8.0,-252.0,-13.0,-33.0,10.0,0.0,-15.0,-985.0,90.0
-3.0,-253.0,-13.0,-31.0,10.0,1.0,-19.0,-978.0,86.0
-8.0,-250.0,-14.0,-28.0,10.0,2.0,-16.0,-975.0,86.0
-8.0,-251.0,-11.0,-26.0,8.0,4.0,-13.0,-979.0,83.0
-5.0,-251.0,-9.0,-26.0,9.0,4.0,-15.0,-980.0,88.0
-3.0,-252.0,-15.0,-25.0,9.0,4.0,-18.0,-981.0,80.0
-5.0,-253.0,-14.0,-26.0,11.0,6.0,-17.0,-982.0,79.0
-5.0,-253.0,-13.0,-27.0,14.0,3.0,-20.0,-976.0,85.0
-7.0,-246.0,-11.0,-27.0,15.0,2.0,-19.0,-978.0,84.0
-4.0,-252.0,-13.0,-27.0,18.0,2.0,-18.0,-976.0,85.0
-7.0,-251.0,-10.0,-26.0,18.0,1.0,-20.0,-983.0,87.0
-9.0,-250.0,-11.0,-26.0,20.0,-1.0,-16.0,-980.0,88.0
-7.0,-250.0,-11.0,-26.0,23.0,-2.0,-15.0,-976.0,85.0
-6.0,-252.0,-14.0,-26.0,25.0,-2.0,-15.0,-976.0,92.0
-2.0,-252.0,-12.0,-30.0,24.0,-3.0,-18.0,-974.0,88.0
-3.0,-252.0,-10.0,-31.0,24.0,-4.0,-12.0,-975.0,94.0
-4.0,-253.0,-11.0,-33.0,24.0,-6.0,-14.0,-976.0,93.0
-7.0,-251.0,-10.0,-36.0,21.0,-6.0,-18.0,-977.0,93.0
-5.0,-250.0,-13.0,-37.0,21.0,-5.0,-13.0,-975.0,88.0
-4.0,-250.0,-13.0,-40.0,21.0,-4.0,-14.0,-976.0,90.0
-5.0,-250.0,-13.0,-41.0,20.0,-3.0,-19.0,-977.0,91.0
-4.0,-253.0,-13.0,-43.0,19.0,-4.0,-19.0,-971.0,88.0
-2.0,-252.0,-10.0,-46.0,15.0,-1.0,-19.0,-975.0,89.0
-7.0,-253.0,-10.0,-51.0,14.0,-1.0,-21.0,-978.0,87.0
-6.0,-254.0,-7.0,-51.0,11.0,0.0,-18.0,-976.0,82.0
-5.0,-253.0,-11.0,-51.0,10.0,-1.0,-17.0,-978.0,87.0
-6.0,-253.0,-11.0,-49.0,8.0,-1.0,-16.0,-979.0,88.0
-5.0,-255.0,-14.0,-48.0,9.0,0.0,-21.0,-980.0,85.0
-7.0,-253.0,-12.0,-48.0,8.0,-1.0,-19.0,-979.0,85.0
-8.0,-250.0,-15.0,-48.0,10.0,-1.0,-20.0,-981.0,85.0
-6.0,-251.0,-12.0,-47.0,11.0,0.0,-14.0,-982.0,84.0
-5.0,-257.0,-12.0,-48.0,11.0,-2.0,-18.0,-984.0,78.0
-8.0,-253.0,-16.0,-46.0,12.0,-2.0,-24.0,-978.0,83.0
-5.0,-251.0,-14.0,-46.0,15.0,-3.0,-19.0,-983.0,85.0
-4.0,-253.0,-13.0,-49.0,15.0,-2.0,-16.0,-978.0,83.0
-6.0,-253.0,-14.0,-49.0,17.0,-3.0,-20.0,-978.0,85.0
-7.0,-250.0,-14.0,-48.0,20.0,-3.0,-19.0,-974.0,86.0
-7.0,-251.0,-11.0,-48.0,20.0,-3.0,-19.0,-977.0,86.0
-6.0,-253.0,-11.0,-49.0,21.0,-3.0,-20.0,-974.0,90.0
-7.0,-250.0,-11.0,-48.0,20.0,-3.0,-17.0,-984.0,87.0
-7.0,-254.0,-12.0,-49.0,20.0,-2.0,-23.0,-977.0,81.0
-3.0,-253.0,-10.0,-48.0,18.0,-3.0,-17.0,-978.0,84.0
-9.0,-251.0,-12.0,-46.0,18.0,-1.0,-19.0,-978.0,87.0
-5.0,-254.0,-14.0,-44.0,17.0,-2.0,-24.0,-979.0,86.0
-4.0,-251.0,-16.0,-43.0,16.0,-2.0,-23.0,-979.0,87.0
-8.0,-253.0,-14.0,-42.0,15.0,-3.0,-19.0,-981.0,84.0
-9.0,-250.0,-13.0,-43.0,15.0,-4.0,-16.0,-978.0,85.0
-7.0,-250.0,-13.0,-42.0,15.0,-4.0,-22.0,-976.0,85.0
-6.0,-255.0,-13.0,-43.0,17.0,-3.0,-23.0,-976.0,80.0
-4.0,-252.0,-11.0,-42.0,18.0,-5.0,-16.0,-978.0,90.0
-6.0,-252.0,-14.0,-44.0,19.0,-4.0,-23.0,-981.0,81.0
-7.0,-252.0,-12.0,-47.0,20.0,-5.0,-16.0,-979.0,89.0
-6.0,-252.0,-13.0,-47.0,21.0,-6.0,-19.0,-978.0,86.0
-6.0,-252.0,-12.0,-47.0,20.0,-5.0,-21.0,-978.0,82.0
-5.0,-252.0,-15.0,-50.0,18.0,-5.0,-17.0,-978.0,87.0
-3.0,-251.0,-11.0,-49.0,17.0,-4.0,-10.0,-974.0,90.0
-4.0,-253.0,-15.0,-51.0,15.0,-3.0,-16.0,-982.0,95.0
-4.0,-251.0,-13.0,-51.0,15.0,-3.0,-18.0,-981.0,89.0
-5.0,-253.0,-9.0,-52.0,14.0,-2.0,-19.0,-978.0,91.0
-6.0,-255.0,-12.0,-51.0,13.0,-2.0,-14.0,-982.0,92.0
-6.0,-252.0,-13.0,-51.0,13.0,-1.0,-16.0,-979.0,91.0
-6.0,-252.0,-11.0,-49.0,13.0,-2.0,-20.0,-984.0,91.0
-4.0,-249.0,-9.0,-46.0,13.0,-2.0,-11.0,-983.0,92.0
-7.0,-253.0,-11.0,-43.0,13.0,-3.0,-21.0,-978.0,91.0
-6.0,-251.0,-13.0,-41.0,13.0,-3.0,-14.0,-985.0,92.0
-5.0,-252.0,-9.0,-40.0,13.0,-2.0,-21.0,-979.0,89.0
-4.0,-251.0,-9.0,-39.0,13.0,-3.0,-10.0,-980.0,91.0
-4.0,-252.0,-12.0,-38.0,15.0,-2.0,-16.0,-975.0,93.0
-5.0,-253.0,-14.0,-36.0,16.0,-4.0,-19.0,-979.0,92.0
-7.0,-250.0,-9.0,-37.0,17.0,-3.0,-21.0,-977.0,84.0
-5.0,-252.0,-8.0,-38.0,17.0,-3.0,-20.0,-977.0,94.0
-8.0,-252.0,-12.0,-40.0,17.0,-3.0,-21.0,-974.0,92.0
-6.0,-253.0,-13.0,-41.0,17.0,-5.0,-17.0,-977.0,87.0
-9.0,-252.0,-12.0,-43.0,16.0,-3.0,-12.0,-975.0,86.0
-7.0,-249.0,-11.0,-46.0,17.0,-3.0,-13.0,-978.0,87.0
-4.0,-252.0,-8.0,-46.0,17.0,-4.0,-11.0,-977.0,90.0
-4.0,-252.0,-13.0,-47.0,17.0,-4.0,-22.0,-974.0,87.0
-8.0,-251.0,-12.0,-49.0,20.0,-4.0,-19.0,-978.0,86.0
-5.0,-253.0,-12.0,-51.0,18.0,-5.0,-16.0,-976.0,81.0
-7.0,-252.0,-12.0,-54.0,18.0,-5.0,-16.0,-979.0,82.0
-8.0,-253.0,-16.0,-58.0,20.0,-6.0,-15.0,-987.0,84.0
-7.0,-252.0,-15.0,-61.0,22.0,-7.0,-17.0,-980.0,91.0
-7.0,-254.0,-10.0,-60.0,24.0,-10.0,-16.0,-986.0,81.0
-4.0,-255.0,-16.0,-58.0,25.0,-10.0,-16.0,-981.0,78.0
-7.0,-252.0,-10.0,-54.0,24.0,-8.0,-18.0,-980.0,82.0
-3.0,-254.0,-15.0,-49.0,23.0,-8.0,-15.0,-986.0,73.0
-7.0,-251.0,-10.0,-44.0,22.0,-7.0,-18.0,-980.0,83.0
-5.0,-253.0,-14.0,-39.0,20.0,-4.0,-20.0,-981.0,81.0
-5.0,-251.0,-11.0,-39.0,17.0,-2.0,-16.0,-976.0,80.0
-2.0,-252.0,-12.0,-41.0,14.0,0.0,-20.0,-976.0,76.0
-7.0,-249.0,-14.0,-46.0,11.0,0.0,-18.0,-976.0,82.0
-9.0,-250.0,-12.0,-53.0,10.0,-1.0,-21.0,-971.0,86.0
-6.0,-252.0,-6.0,-60.0,11.0,0.0,-15.0,-976.0,86.0
-5.0,-252.0,-11.0,-64.0,11.0,-2.0,-15.0,-980.0,88.0
-4.0,-253.0,-13.0,-67.0,14.0,-1.0,-21.0,-984.0,90.0
-7.0,-254.0,-13.0,-66.0,16.0,-4.0,-17.0,-980.0,91.0
-6.0,-253.0,-12.0,-64.0,18.0,-6.0,-16.0,-978.0,87.0
-7.0,-249.0,-13.0,-61.0,19.0,-8.0,-14.0,-983.0,82.0
-5.0,-254.0,-14.0,-55.0,23.0,-9.0,-21.0,-983.0,85.0
-3.0,-253.0,-11.0,-48.0,23.0,-9.0,-16.0,-981.0,89.0
-4.0,-255.0,-13.0,-39.0,23.0,-9.0,-22.0,-990.0,79.0
-5.0,-255.0,-16.0,-29.0,22.0,-9.0,-21.0,-987.0,77.0
-8.0,-256.0,-17.0,-20.0,20.0,-8.0,-25.0,-990.0,74.0
-9.0,-254.0,-18.0,-12.0,16.0,-4.0,-18.0,-986.0,70.0
-8.0,-251.0,-13.0,-8.0,13.0,-3.0,-21.0,-981.0,72.0
-7.0,-252.0,-17.0,-8.0,9.0,0.0,-20.0,-978.0,66.0
-4.0,-253.0,-16.0,-13.0,8.0,2.0,-18.0,-975.0,70.0
-5.0,-252.0,-15.0,-19.0,5.0,3.0,-21.0,-975.0,76.0
-6.0,-252.0,-13.0,-27.0,4.0,4.0,-21.0,-975.0,80.0
-8.0,-249.0,-13.0,-30.0,5.0,4.0,-22.0,-973.0,83.0
-6.0,-249.0,-7.0,-34.0,7.0,2.0,-19.0,-973.0,89.0
-6.0,-253.0,-10.0,-35.0,11.0,-1.0,-21.0,-971.0,95.0
-6.0,-254.0,-10.0,-38.0,14.0,-1.0,-19.0,-979.0,94.0
-8.0,-253.0,-10.0,-35.0,17.0,-2.0,-21.0,-981.0,94.0
-4.0,-255.0,-12.0,-34.0,20.0,-4.0,-19.0,-983.0,98.0
-5.0,-257.0,-8.0,-32.0,22.0,-3.0,-16.0,-985.0,94.0
-8.0,-250.0,-9.0,-29.0,27.0,-6.0,-16.0,-982.0,97.0
-7.0,-251.0,-10.0,-24.0,30.0,-6.0,-15.0,-984.0,104.0
-6.0,-253.0,-9.0,-22.0,30.0,-8.0,-16.0,-981.0,97.0
-7.0,-251.0,-6.0,-19.0,31.0,-7.0,-17.0,-984.0,99.0
-6.0,-252.0,-3.0,-17.0,32.0,-8.0,-12.0,-980.0,95.0
-4.0,-252.0,-10.0,-17.0,30.0,-8.0,-15.0,-979.0,97.0
-7.0,-251.0,-9.0,-18.0,27.0,-7.0,-16.0,-976.0,97.0
-6.0,-250.0,-8.0,-22.0,26.0,-8.0,-23.0,-979.0,99.0
-5.0,-252.0,-9.0,-27.0,24.0,-9.0,-22.0,-975.0,96.0
-3.0,-252.0,-8.0,-32.0,21.0,-7.0,-12.0,-977.0,86.0
-7.0,-251.0,-14.0,-36.0,20.0,-7.0,-13.0,-979.0,90.0
-8.0,-250.0,-10.0,-39.0,16.0,-5.0,-17.0,-977.0,90.0
-8.0,-251.0,-14.0,-40.0,13.0,-3.0,-24.0,-974.0,91.0
-6.0,-250.0,-14.0,-41.0,12.0,-2.0,-21.0,-981.0,87.0
-8.0,-251.0,-15.0,-43.0,11.0,-2.0,-19.0,-972.0,83.0
-6.0,-259.0,-11.0,-41.0,11.0,-2.0,-13.0,-973.0,80.0
-5.0,-253.0,-13.0,-41.0,12.0,-3.0,-15.0,-975.0,80.0
-8.0,-251.0,-14.0,-43.0,14.0,-1.0,-23.0,-978.0,82.0
-8.0,-250.0,-10.0,-42.0,14.0,-3.0,-13.0,-974.0,85.0
-5.0,-252.0,-12.0,-41.0,14.0,-4.0,-17.0,-974.0,85.0
-6.0,-251.0,-14.0,-42.0,15.0,-4.0,-15.0,-974.0,91.0
-4.0,-252.0,-13.0,-43.0,14.0,-5.0,-22.0,-978.0,85.0
-6.0,-251.0,-15.0,-42.0,14.0,-6.0,-16.0,-978.0,91.0
-5.0,-253.0,-12.0,-41.0,16.0,-4.0,-14.0,-982.0,92.0
-4.0,-251.0,-9.0,-40.0,15.0,-5.0,-15.0,-977.0,96.0
-5.0,-250.0,-12.0,-39.0,16.0,-5.0,-18.0,-984.0,91.0
-6.0,-251.0,-14.0,-40.0,16.0,-6.0,-12.0,-980.0,96.0
-7.0,-249.0,-11.0,-41.0,17.0,-6.0,-14.0,-975.0,92.0
-7.0,-251.0,-8.0,-43.0,17.0,-6.0,-14.0,-982.0,93.0
-6.0,-251.0,-7.0,-45.0,18.0,-6.0,-18.0,-984.0,93.0
-8.0,-251.0,-12.0,-46.0,19.0,-6.0,-13.0,-984.0,96.0
-5.0,-252.0,-11.0,-46.0,18.0,-6.0,-17.0,-979.0,93.0
-7.0,-251.0,-12.0,-45.0,17.0,-6.0,-21.0,-977.0,93.0
-3.0,-250.0,-15.0,-44.0,16.0,-5.0,-18.0,-980.0,95.0
-8.0,-250.0,-11.0,-46.0,15.0,-5.0,-13.0,-976.0,90.0
-4.0,-253.0,-6.0,-45.0,18.0,-4.0,-19.0,-977.0,94.0
-5.0,-252.0,-9.0,-43.0,19.0,-5.0,-16.0,-975.0,94.0
-8.0,-255.0,-8.0,-43.0,19.0,-6.0,-17.0,-982.0,94.0
-6.0,-251.0,-13.0,-40.0,19.0,-6.0,-17.0,-981.0,96.0
-5.0,-252.0,-11.0,-37.0,22.0,-7.0,-20.0,-983.0,97.0
-10.0,-253.0,-10.0,-34.0,23.0,-7.0,-22.0,-984.0,94.0
-4.0,-251.0,-10.0,-27.0,24.0,-8.0,-20.0,-985.0,91.0
-8.0,-254.0,-10.0,-24.0,25.0,-9.0,-21.0,-980.0,90.0
-7.0,-253.0,-11.0,-19.0,27.0,-9.0,-22.0,-980.0,83.0
-7.0,-252.0,-10.0,-14.0,29.0,-8.0,-21.0,-977.0,82.0
-7.0,-252.0,-10.0,-12.0,32.0,-9.0,-17.0,-977.0,82.0
-5.0,-253.0,-12.0,-12.0,32.0,-11.0,-15.0,-978.0,84.0
-9.0,-249.0,-7.0,-14.0,32.0,-10.0,-18.0,-977.0,89.0
-4.0,-250.0,-13.0,-19.0,33.0,-9.0,-17.0,-974.0,88.0
-6.0,-250.0,-13.0,-23.0,30.0,-8.0,-12.0,-979.0,84.0
-5.0,-252.0,-9.0,-29.0,28.0,-8.0,-20.0,-973.0,90.0
-4.0,-253.0,-14.0,-34.0,27.0,-7.0,-14.0,-965.0,92.0
-5.0,-250.0,-13.0,-38.0,26.0,-6.0,-15.0,-974.0,91.0
-2.0,-254.0,-9.0,-41.0,23.0,-7.0,-15.0,-976.0,92.0
-4.0,-251.0,-7.0,-43.0,19.0,-6.0,-13.0,-973.0,94.0
-5.0,-253.0,-11.0,-44.0,18.0,-6.0,-17.0,-979.0,92.0
-4.0,-255.0,-10.0,-46.0,15.0,-5.0,-15.0,-985.0,93.0
-10.0,-251.0,-8.0,-45.0,14.0,-3.0,-16.0,-981.0,96.0
-5.0,-252.0,-5.0,-44.0,15.0,-3.0,-17.0,-979.0,94.0
-3.0,-253.0,-9.0,-43.0,14.0,-2.0,-15.0,-981.0,95.0
-8.0,-251.0,-11.0,-41.0,15.0,-3.0,-16.0,-984.0,96.0
-7.0,-254.0,-11.0,-40.0,16.0,-3.0,-17.0,-976.0,90.0
-5.0,-252.0,-9.0,-37.0,17.0,-3.0,-23.0,-978.0,90.0
-6.0,-252.0,-9.0,-37.0,19.0,-3.0,-14.0,-978.0,93.0
-4.0,-250.0,-13.0,-36.0,20.0,-3.0,-16.0,-976.0,96.0
-3.0,-251.0,-14.0,-35.0,22.0,-4.0,-18.0,-978.0,90.0
-6.0,-248.0,-10.0,-34.0,22.0,-2.0,-15.0,-978.0,94.0
-4.0,-252.0,-13.0,-34.0,23.0,-2.0,-19.0,-979.0,91.0
-6.0,-250.0,-10.0,-34.0,20.0,-2.0,-12.0,-974.0,94.0
-5.0,-250.0,-10.0,-33.0,19.0,-2.0,-15.0,-980.0,91.0
-4.0,-250.0,-12.0,-33.0,18.0,-2.0,-14.0,-976.0,91.0
-7.0,-252.0,-11.0,-34.0,17.0,-2.0,-14.0,-979.0,85.0
-6.0,-250.0,-9.0,-36.0,17.0,-1.0,-19.0,-978.0,95.0
-8.0,-252.0,-11.0,-38.0,15.0,0.0,-17.0,-975.0,93.0
-8.0,-251.0,-15.0,-39.0,13.0,-1.0,-21.0,-980.0,92.0
-7.0,-250.0,-10.0,-41.0,13.0,0.0,-21.0,-983.0,93.0
-5.0,-249.0,-7.0,-41.0,13.0,1.0,-16.0,-977.0,89.0
-7.0,-252.0,-14.0,-42.0,14.0,2.0,-15.0,-978.0,93.0
-6.0,-253.0,-12.0,-42.0,14.0,2.0,-16.0,-979.0,95.0
-7.0,-252.0,-12.0,-41.0,13.0,1.0,-15.0,-979.0,93.0
-3.0,-253.0,-12.0,-42.0,14.0,2.0,-20.0,-980.0,93.0
-4.0,-252.0,-9.0,-42.0,14.0,3.0,-16.0,-982.0,97.0
-8.0,-251.0,-11.0,-40.0,16.0,2.0,-19.0,-979.0,92.0
-4.0,-253.0,-11.0,-41.0,16.0,2.0,-15.0,-982.0,93.0
-6.0,-252.0,-8.0,-39.0,17.0,2.0,-16.0,-976.0,95.0
-6.0,-254.0,-8.0,-39.0,18.0,1.0,-18.0,-980.0,96.0
-3.0,-252.0,-15.0,-41.0,17.0,0.0,-20.0,-977.0,101.0
-5.0,-253.0,-10.0,-38.0,18.0,0.0,-20.0,-982.0,96.0
-5.0,-252.0,-6.0,-39.0,19.0,-1.0,-15.0,-979.0,97.0
-3.0,-250.0,-8.0,-36.0,19.0,-1.0,-15.0,-978.0,96.0
-6.0,-252.0,-10.0,-36.0,19.0,-1.0,-15.0,-980.0,90.0
-6.0,-253.0,-12.0,-36.0,17.0,0.0,-17.0,-975.0,96.0
-6.0,-250.0,-13.0,-37.0,17.0,-1.0,-18.0,-979.0,94.0
-7.0,-250.0,-11.0,-36.0,17.0,-1.0,-18.0,-977.0,94.0
-8.0,-251.0,-8.0,-37.0,16.0,-1.0,-19.0,-981.0,96.0
-8.0,-251.0,-8.0,-37.0,17.0,-1.0,-19.0,-981.0,95.0
-6.0,-252.0,-9.0,-36.0,18.0,-3.0,-18.0,-982.0,96.0
-6.0,-251.0,-8.0,-36.0,17.0,-2.0,-19.0,-981.0,94.0
-8.0,-251.0,-9.0,-35.0,16.0,-1.0,-17.0,-979.0,91.0
-5.0,-251.0,-9.0,-34.0,16.0,0.0,-20.0,-984.0,93.0
-6.0,-251.0,-13.0,-33.0,18.0,0.0,-18.0,-980.0,94.0
-4.0,-251.0,-9.0,-31.0,17.0,1.0,-19.0,-982.0,95.0
-4.0,-254.0,-10.0,-31.0,17.0,1.0,-24.0,-982.0,95.0
-8.0,-250.0,-7.0,-30.0,18.0,1.0,-15.0,-980.0,95.0
-5.0,-250.0,-6.0,-28.0,17.0,0.0,-17.0,-976.0,94.0
-6.0,-251.0,-6.0,-27.0,15.0,3.0,-18.0,-975.0,104.0
-8.0,-251.0,-11.0,-27.0,13.0,4.0,-15.0,-981.0,94.0
-6.0,-249.0,-12.0,-25.0,12.0,4.0,-17.0,-976.0,95.0
-7.0,-253.0,-12.0,-25.0,11.0,4.0,-15.0,-982.0,91.0
-4.0,-251.0,-13.0,-26.0,10.0,3.0,-19.0,-972.0,94.0
-7.0,-249.0,-10.0,-27.0,12.0,4.0,-16.0,-977.0,95.0
-5.0,-251.0,-6.0,-30.0,12.0,3.0,-22.0,-974.0,96.0
-5.0,-253.0,-10.0,-34.0,13.0,4.0,-20.0,-979.0,96.0
-7.0,-251.0,-12.0,-37.0,14.0,3.0,-22.0,-978.0,94.0
-8.0,-250.0,-8.0,-40.0,14.0,0.0,-24.0,-979.0,98.0
-8.0,-251.0,-10.0,-42.0,15.0,0.0,-24.0,-978.0,96.0
-7.0,-252.0,-14.0,-42.0,17.0,0.0,-20.0,-978.0,97.0
-6.0,-252.0,-11.0,-43.0,16.0,-1.0,-15.0,-980.0,92.0
-6.0,-252.0,-10.0,-42.0,16.0,-1.0,-19.0,-982.0,93.0
-5.0,-250.0,-9.0,-41.0,17.0,-2.0,-16.0,-977.0,95.0
-4.0,-253.0,-12.0,-36.0,15.0,-1.0,-15.0,-979.0,93.0
-5.0,-251.0,-12.0,-35.0,14.0,-1.0,-18.0,-975.0,95.0
-6.0,-250.0,-9.0,-33.0,13.0,2.0,-16.0,-978.0,95.0
-7.0,-252.0,-7.0,-35.0,13.0,3.0,-19.0,-973.0,99.0
-6.0,-249.0,-10.0,-36.0,12.0,2.0,-19.0,-977.0,99.0
-8.0,-247.0,-10.0,-40.0,13.0,2.0,-22.0,-975.0,95.0
-7.0,-250.0,-10.0,-46.0,15.0,1.0,-25.0,-973.0,97.0
-7.0,-250.0,-10.0,-49.0,16.0,0.0,-20.0,-977.0,106.0
-8.0,-250.0,-10.0,-52.0,19.0,-1.0,-19.0,-983.0,101.0
