acc1_x,acc1_y,acc1_z,gyro_x,gyro_y,gyro_z,acc2_x,acc2_y,acc2_z
24.0,-28.0,212.0,17.0,6.0,0.0,114.0,-118.0,1005.0
28.0,-31.0,217.0,7.0,4.0,0.0,111.0,-121.0,1008.0
24.0,-29.0,219.0,-2.0,4.0,-1.0,115.0,-117.0,1004.0
29.0,-29.0,217.0,-11.0,4.0,-2.0,114.0,-118.0,1005.0
28.0,-28.0,214.0,-19.0,6.0,-1.0,114.0,-109.0,1007.0
29.0,-30.0,216.0,-26.0,9.0,-1.0,110.0,-108.0,1006.0
28.0,-27.0,215.0,-32.0,12.0,0.0,117.0,-110.0,1005.0
26.0,-26.0,214.0,-34.0,17.0,1.0,114.0,-112.0,1005.0
29.0,-27.0,216.0,-36.0,22.0,3.0,116.0,-111.0,1002.0
26.0,-25.0,215.0,-36.0,27.0,3.0,113.0,-105.0,1003.0
30.0,-29.0,213.0,-36.0,32.0,6.0,116.0,-109.0,1001.0
30.0,-28.0,215.0,-35.0,36.0,5.0,113.0,-116.0,997.0
26.0,-27.0,210.0,-32.0,41.0,7.0,109.0,-114.0,998.0
29.0,-29.0,213.0,-30.0,45.0,8.0,112.0,-115.0,1003.0
27.0,-28.0,209.0,-26.0,49.0,8.0,108.0,-119.0,997.0
25.0,-29.0,210.0,-21.0,52.0,10.0,110.0,-115.0,1001.0
27.0,-30.0,212.0,-14.0,53.0,9.0,108.0,-118.0,1000.0
28.0,-28.0,208.0,-8.0,54.0,10.0,110.0,-120.0,1000.0
26.0,-31.0,212.0,-2.0,53.0,12.0,113.0,-115.0,1001.0
29.0,-32.0,212.0,4.0,54.0,12.0,110.0,-118.0,1004.0
28.0,-28.0,216.0,9.0,51.0,11.0,108.0,-114.0,1000.0
27.0,-29.0,212.0,22.0,50.0,13.0,111.0,-112.0,999.0
25.0,-31.0,217.0,22.0,48.0,13.0,109.0,-115.0,1001.0
28.0,-30.0,212.0,17.0,44.0,12.0,107.0,-120.0,999.0
26.0,-33.0,215.0,7.0,42.0,13.0,106.0,-115.0,1006.0
26.0,-30.0,218.0,6.0,37.0,13.0,106.0,-117.0,1005.0
23.0,-25.0,214.0,7.0,33.0,12.0,102.0,-114.0,1002.0
25.0,-28.0,216.0,11.0,29.0,12.0,107.0,-105.0,1004.0
20.0,-24.0,212.0,11.0,24.0,13.0,107.0,-109.0,1003.0
26.0,-25.0,215.0,9.0,22.0,12.0,112.0,-103.0,1001.0
26.0,-26.0,210.0,4.0,22.0,12.0,107.0,-101.0,1002.0
25.0,-22.0,211.0,1.0,21.0,13.0,105.0,-105.0,998.0
28.0,-26.0,215.0,-5.0,21.0,13.0,109.0,-100.0,996.0
26.0,-26.0,212.0,-6.0,22.0,13.0,105.0,-102.0,997.0
24.0,-29.0,211.0,-10.0,25.0,13.0,103.0,-108.0,1000.0
25.0,-27.0,211.0,-14.0,26.0,12.0,105.0,-104.0,999.0
23.0,-25.0,213.0,-11.0,27.0,12.0,99.0,-108.0,997.0
24.0,-26.0,213.0,-9.0,27.0,14.0,103.0,-106.0,1001.0
27.0,-26.0,213.0,-2.0,26.0,13.0,103.0,-104.0,998.0
22.0,-25.0,213.0,4.0,27.0,12.0,98.0,-102.0,1002.0
22.0,-28.0,210.0,11.0,27.0,12.0,97.0,-104.0,1003.0
27.0,-27.0,213.0,16.0,29.0,13.0,97.0,-105.0,1000.0
26.0,-29.0,213.0,20.0,30.0,13.0,99.0,-103.0,1002.0
24.0,-25.0,214.0,18.0,30.0,13.0,99.0,-104.0,1003.0
26.0,-28.0,215.0,12.0,32.0,13.0,99.0,-107.0,1002.0
20.0,-26.0,215.0,1.0,34.0,12.0,94.0,-106.0,1009.0
21.0,-25.0,221.0,-11.0,36.0,10.0,94.0,-106.0,1013.0
20.0,-28.0,221.0,-26.0,35.0,9.0,89.0,-111.0,1019.0
20.0,-25.0,222.0,-39.0,35.0,9.0,95.0,-108.0,1024.0
22.0,-29.0,219.0,-46.0,33.0,7.0,91.0,-111.0,1029.0
21.0,-29.0,218.0,-50.0,26.0,6.0,91.0,-119.0,1022.0
19.0,-29.0,214.0,-48.0,21.0,7.0,90.0,-114.0,1017.0
19.0,-33.0,216.0,-42.0,16.0,5.0,86.0,-113.0,1008.0
19.0,-29.0,217.0,-32.0,9.0,7.0,88.0,-115.0,1005.0
22.0,-29.0,216.0,-23.0,3.0,6.0,89.0,-118.0,1001.0
20.0,-29.0,214.0,-14.0,-2.0,6.0,92.0,-111.0,994.0
22.0,-28.0,211.0,-5.0,-2.0,5.0,94.0,-115.0,993.0
21.0,-26.0,211.0,-2.0,-1.0,4.0,99.0,-113.0,993.0
21.0,-29.0,209.0,0.0,3.0,5.0,96.0,-104.0,987.0
23.0,-25.0,212.0,0.0,9.0,3.0,93.0,-108.0,982.0
20.0,-23.0,212.0,1.0,16.0,2.0,94.0,-102.0,993.0
23.0,-26.0,212.0,0.0,21.0,2.0,98.0,-99.0,993.0
23.0,-26.0,216.0,2.0,26.0,1.0,97.0,-99.0,997.0
24.0,-26.0,212.0,7.0,31.0,0.0,100.0,-100.0,994.0
22.0,-23.0,212.0,7.0,33.0,0.0,94.0,-104.0,998.0
24.0,-24.0,214.0,7.0,36.0,-1.0,97.0,-100.0,1000.0
22.0,-24.0,213.0,8.0,38.0,-2.0,99.0,-96.0,1006.0
23.0,-26.0,217.0,8.0,38.0,-2.0,94.0,-100.0,1001.0
20.0,-21.0,217.0,7.0,38.0,-3.0,95.0,-94.0,1006.0
20.0,-25.0,216.0,8.0,37.0,-3.0,92.0,-99.0,1003.0
21.0,-23.0,217.0,5.0,35.0,-3.0,95.0,-101.0,1009.0
24.0,-27.0,216.0,1.0,34.0,-3.0,96.0,-102.0,1005.0
24.0,-26.0,220.0,-2.0,32.0,-3.0,95.0,-96.0,1008.0
22.0,-25.0,214.0,-8.0,30.0,-3.0,98.0,-100.0,1011.0
21.0,-25.0,219.0,-14.0,26.0,-2.0,94.0,-101.0,1008.0
18.0,-24.0,214.0,-19.0,24.0,-1.0,93.0,-99.0,1010.0
22.0,-25.0,215.0,-21.0,21.0,0.0,91.0,-101.0,1006.0
24.0,-26.0,214.0,-24.0,18.0,-2.0,91.0,-101.0,1009.0
21.0,-24.0,216.0,-26.0,16.0,-2.0,97.0,-98.0,1009.0
22.0,-25.0,220.0,-30.0,15.0,-1.0,94.0,-99.0,1006.0
24.0,-27.0,215.0,-34.0,14.0,-1.0,94.0,-101.0,1003.0
23.0,-27.0,213.0,-36.0,13.0,-3.0,97.0,-99.0,1004.0
24.0,-24.0,213.0,-35.0,14.0,-1.0,95.0,-104.0,1005.0
24.0,-27.0,214.0,-35.0,14.0,-1.0,98.0,-103.0,1008.0
24.0,-28.0,214.0,-36.0,15.0,-1.0,96.0,-103.0,1000.0
23.0,-27.0,217.0,-36.0,14.0,1.0,101.0,-103.0,1005.0
23.0,-27.0,216.0,-38.0,15.0,0.0,98.0,-100.0,1009.0
25.0,-24.0,215.0,-36.0,14.0,-1.0,98.0,-96.0,1006.0
23.0,-25.0,216.0,-35.0,15.0,-2.0,98.0,-105.0,1004.0
24.0,-28.0,211.0,-32.0,15.0,0.0,98.0,-100.0,1000.0
27.0,-27.0,210.0,-29.0,14.0,-2.0,95.0,-102.0,1008.0
23.0,-26.0,212.0,-26.0,16.0,-1.0,99.0,-104.0,1004.0
20.0,-24.0,214.0,-21.0,17.0,-1.0,103.0,-96.0,997.0
27.0,-27.0,216.0,-18.0,18.0,-1.0,100.0,-100.0,988.0
24.0,-26.0,212.0,-13.0,19.0,0.0,99.0,-105.0,1000.0
26.0,-24.0,213.0,-10.0,20.0,-2.0,101.0,-97.0,1000.0
25.0,-27.0,212.0,-4.0,21.0,0.0,98.0,-99.0,996.0
23.0,-27.0,212.0,0.0,23.0,-2.0,102.0,-96.0,999.0
23.0,-25.0,214.0,2.0,24.0,-1.0,103.0,-102.0,998.0
23.0,-27.0,211.0,3.0,24.0,-1.0,101.0,-96.0,998.0
25.0,-30.0,213.0,4.0,24.0,-2.0,105.0,-90.0,994.0
24.0,-25.0,212.0,1.0,23.0,-2.0,102.0,-94.0,1005.0
23.0,-20.0,215.0,-1.0,23.0,-1.0,99.0,-92.0,1005.0
29.0,-26.0,214.0,-5.0,19.0,-1.0,96.0,-97.0,1005.0
26.0,-23.0,214.0,-9.0,19.0,0.0,100.0,-90.0,1008.0
23.0,-25.0,211.0,-9.0,19.0,0.0,98.0,-97.0,1004.0
23.0,-23.0,214.0,-12.0,18.0,-1.0,99.0,-100.0,1005.0
23.0,-24.0,214.0,-16.0,18.0,0.0,98.0,-99.0,1004.0
24.0,-25.0,215.0,-15.0,18.0,-1.0,99.0,-98.0,1006.0
21.0,-26.0,215.0,-16.0,20.0,-1.0,102.0,-100.0,1005.0
25.0,-26.0,211.0,-15.0,21.0,1.0,98.0,-99.0,1004.0
22.0,-22.0,210.0,-16.0,23.0,1.0,109.0,-91.0,1002.0
25.0,-25.0,212.0,-15.0,26.0,1.0,103.0,-93.0,1006.0
24.0,-25.0,216.0,-14.0,29.0,2.0,105.0,-91.0,1004.0
25.0,-22.0,217.0,-12.0,29.0,3.0,105.0,-91.0,1001.0
26.0,-24.0,209.0,-10.0,32.0,3.0,103.0,-94.0,1002.0
26.0,-23.0,214.0,-7.0,32.0,4.0,105.0,-92.0,1003.0
26.0,-26.0,213.0,-4.0,32.0,4.0,99.0,-96.0,995.0
24.0,-23.0,212.0,1.0,32.0,2.0,101.0,-91.0,1000.0
23.0,-23.0,212.0,6.0,32.0,3.0,100.0,-93.0,1003.0
23.0,-23.0,214.0,14.0,31.0,2.0,102.0,-94.0,996.0
23.0,-23.0,213.0,24.0,28.0,2.0,102.0,-87.0,998.0
24.0,-21.0,214.0,32.0,26.0,3.0,106.0,-88.0,1000.0
23.0,-22.0,213.0,36.0,26.0,3.0,101.0,-88.0,999.0
20.0,-19.0,209.0,39.0,24.0,2.0,101.0,-89.0,998.0
24.0,-22.0,211.0,43.0,21.0,4.0,98.0,-86.0,1000.0
27.0,-21.0,215.0,43.0,20.0,4.0,101.0,-87.0,999.0
24.0,-18.0,216.0,42.0,21.0,5.0,99.0,-84.0,1004.0
25.0,-21.0,214.0,38.0,20.0,6.0,100.0,-81.0,1010.0
27.0,-19.0,213.0,33.0,21.0,7.0,105.0,-79.0,1002.0
26.0,-19.0,218.0,26.0,22.0,7.0,100.0,-84.0,1006.0
25.0,-18.0,215.0,21.0,22.0,6.0,105.0,-79.0,1010.0
24.0,-20.0,216.0,13.0,23.0,5.0,103.0,-79.0,1011.0
25.0,-19.0,215.0,6.0,25.0,4.0,99.0,-80.0,1010.0
19.0,-16.0,216.0,1.0,26.0,5.0,103.0,-79.0,1016.0
25.0,-21.0,214.0,-6.0,26.0,5.0,106.0,-77.0,1014.0
24.0,-18.0,215.0,-11.0,26.0,5.0,105.0,-81.0,1009.0
22.0,-19.0,216.0,-17.0,27.0,5.0,103.0,-80.0,1009.0
24.0,-19.0,213.0,-20.0,25.0,4.0,97.0,-82.0,1013.0
25.0,-21.0,215.0,-20.0,26.0,3.0,99.0,-83.0,1008.0
23.0,-22.0,217.0,-20.0,25.0,2.0,98.0,-81.0,1007.0
24.0,-18.0,215.0,-18.0,26.0,2.0,100.0,-86.0,1008.0
22.0,-23.0,214.0,-13.0,26.0,1.0,99.0,-79.0,1007.0
26.0,-23.0,216.0,-12.0,25.0,0.0,99.0,-80.0,1008.0
23.0,-22.0,212.0,-7.0,25.0,-1.0,96.0,-89.0,1006.0
23.0,-25.0,214.0,-3.0,24.0,-2.0,100.0,-82.0,999.0
21.0,-20.0,214.0,-1.0,25.0,-2.0,98.0,-83.0,1006.0
23.0,-21.0,213.0,2.0,24.0,-2.0,98.0,-84.0,1005.0
25.0,-22.0,216.0,5.0,23.0,-2.0,98.0,-84.0,1005.0
25.0,-19.0,213.0,8.0,24.0,-2.0,98.0,-81.0,1006.0
25.0,-22.0,215.0,8.0,25.0,-2.0,95.0,-79.0,1003.0
21.0,-22.0,218.0,9.0,26.0,-4.0,91.0,-84.0,1008.0
18.0,-19.0,213.0,6.0,26.0,-4.0,97.0,-81.0,1003.0
22.0,-19.0,214.0,4.0,25.0,-3.0,92.0,-79.0,1007.0
18.0,-17.0,214.0,4.0,27.0,-4.0,95.0,-83.0,1005.0
22.0,-20.0,213.0,3.0,28.0,-3.0,93.0,-81.0,1006.0
24.0,-19.0,219.0,0.0,29.0,-4.0,95.0,-84.0,1009.0
24.0,-16.0,217.0,-4.0,28.0,-5.0,94.0,-79.0,1012.0
23.0,-20.0,215.0,-5.0,27.0,-5.0,93.0,-78.0,1014.0
23.0,-22.0,217.0,-8.0,28.0,-5.0,93.0,-78.0,1011.0
21.0,-18.0,216.0,-13.0,26.0,-4.0,94.0,-80.0,1007.0
22.0,-19.0,215.0,-16.0,26.0,-4.0,98.0,-73.0,1014.0
20.0,-19.0,218.0,-20.0,24.0,-4.0,96.0,-75.0,1011.0
23.0,-21.0,218.0,-23.0,23.0,-3.0,89.0,-77.0,1007.0
20.0,-17.0,217.0,-27.0,22.0,-3.0,90.0,-79.0,1011.0
23.0,-19.0,214.0,-30.0,21.0,-4.0,88.0,-77.0,1016.0
20.0,-18.0,215.0,-35.0,21.0,-5.0,92.0,-82.0,1015.0
11.0,-23.0,221.0,-38.0,18.0,-5.0,86.0,-80.0,1011.0
22.0,-23.0,215.0,-40.0,16.0,-5.0,89.0,-79.0,1009.0
20.0,-18.0,217.0,-43.0,15.0,-6.0,89.0,-79.0,1009.0
22.0,-19.0,222.0,-47.0,15.0,-8.0,88.0,-82.0,1013.0
22.0,-21.0,219.0,-54.0,15.0,-7.0,90.0,-86.0,1012.0
22.0,-24.0,219.0,-59.0,17.0,-8.0,91.0,-84.0,1012.0
21.0,-19.0,217.0,-64.0,16.0,-7.0,91.0,-81.0,1013.0
19.0,-20.0,219.0,-67.0,16.0,-6.0,95.0,-87.0,1015.0
23.0,-19.0,218.0,-68.0,17.0,-5.0,93.0,-80.0,1015.0
18.0,-17.0,212.0,-69.0,17.0,-5.0,90.0,-78.0,1013.0
24.0,-21.0,217.0,-69.0,17.0,-3.0,95.0,-76.0,1010.0
28.0,-10.0,209.0,-70.0,16.0,-3.0,96.0,-72.0,1010.0
23.0,-19.0,214.0,-72.0,13.0,-2.0,95.0,-74.0,1012.0
21.0,-20.0,217.0,-75.0,11.0,-2.0,95.0,-73.0,1009.0
23.0,-20.0,215.0,-78.0,11.0,-2.0,99.0,-79.0,1009.0
21.0,-19.0,210.0,-81.0,8.0,-1.0,93.0,-75.0,1010.0
16.0,-19.0,216.0,-81.0,9.0,-1.0,94.0,-80.0,1006.0
22.0,-18.0,215.0,-81.0,8.0,-1.0,95.0,-73.0,1006.0
20.0,-19.0,215.0,-76.0,9.0,-2.0,94.0,-78.0,1005.0
21.0,-21.0,216.0,-73.0,10.0,-1.0,96.0,-78.0,1003.0
19.0,-17.0,213.0,-65.0,11.0,-1.0,95.0,-81.0,1002.0
21.0,-21.0,213.0,-58.0,11.0,-2.0,96.0,-82.0,1005.0
13.0,-32.0,189.0,-48.0,11.0,-1.0,91.0,-83.0,1004.0
21.0,-18.0,213.0,-36.0,13.0,-1.0,94.0,-78.0,1002.0
24.0,-19.0,213.0,-25.0,13.0,-1.0,96.0,-75.0,1000.0
24.0,-18.0,214.0,-19.0,15.0,-1.0,95.0,-82.0,999.0
24.0,-21.0,214.0,-13.0,19.0,-1.0,95.0,-79.0,995.0
22.0,-20.0,212.0,-12.0,24.0,-1.0,97.0,-78.0,1005.0
20.0,-19.0,213.0,-16.0,24.0,1.0,95.0,-76.0,1004.0
20.0,-15.0,215.0,-23.0,27.0,1.0,98.0,-77.0,1011.0
23.0,-19.0,218.0,-30.0,27.0,0.0,95.0,-79.0,1015.0
21.0,-19.0,219.0,-39.0,26.0,-1.0,91.0,-84.0,1024.0
22.0,-20.0,223.0,-49.0,26.0,0.0,92.0,-80.0,1023.0
18.0,-34.0,231.0,-58.0,22.0,0.0,93.0,-81.0,1023.0
20.0,-22.0,220.0,-59.0,18.0,-1.0,91.0,-89.0,1021.0
21.0,-22.0,217.0,-56.0,12.0,0.0,90.0,-87.0,1011.0
20.0,-28.0,214.0,-48.0,8.0,0.0,93.0,-91.0,1003.0
19.0,-26.0,215.0,-40.0,2.0,-1.0,96.0,-91.0,1002.0
22.0,-21.0,214.0,-27.0,-3.0,-1.0,92.0,-92.0,997.0
25.0,-25.0,210.0,-14.0,-5.0,-1.0,91.0,-85.0,996.0
23.0,-21.0,210.0,-7.0,-5.0,-1.0,95.0,-89.0,992.0
24.0,-23.0,211.0,3.0,-1.0,-1.0,100.0,-86.0,991.0
24.0,-21.0,209.0,9.0,4.0,-2.0,97.0,-84.0,985.0
23.0,-18.0,212.0,13.0,10.0,-3.0,97.0,-79.0,985.0
24.0,-22.0,210.0,14.0,16.0,-4.0,98.0,-76.0,997.0
22.0,-20.0,213.0,14.0,24.0,-6.0,94.0,-75.0,1003.0
24.0,-20.0,210.0,13.0,29.0,-3.0,99.0,-66.0,1001.0
25.0,-17.0,216.0,10.0,33.0,-3.0,100.0,-68.0,1000.0
21.0,-18.0,211.0,7.0,35.0,-3.0,97.0,-64.0,1004.0
24.0,-19.0,219.0,2.0,37.0,-2.0,99.0,-68.0,1004.0
25.0,-18.0,212.0,-2.0,37.0,-2.0,100.0,-67.0,1005.0
22.0,-18.0,211.0,-5.0,38.0,-2.0,99.0,-71.0,1007.0
23.0,-17.0,216.0,-8.0,38.0,-3.0,100.0,-75.0,1004.0
23.0,-20.0,215.0,-7.0,37.0,-2.0,99.0,-73.0,1011.0
22.0,-15.0,219.0,-5.0,36.0,-1.0,97.0,-76.0,1010.0
24.0,-18.0,215.0,-5.0,33.0,-1.0,94.0,-71.0,1009.0
25.0,-19.0,217.0,-4.0,31.0,-1.0,96.0,-71.0,1013.0
21.0,-15.0,213.0,-4.0,30.0,-1.0,94.0,-66.0,1009.0
24.0,-16.0,214.0,-3.0,27.0,-2.0,96.0,-66.0,1009.0
24.0,-19.0,213.0,-3.0,27.0,-1.0,97.0,-69.0,1007.0
21.0,-16.0,219.0,-5.0,25.0,-2.0,98.0,-69.0,1006.0
23.0,-17.0,216.0,-4.0,24.0,-2.0,97.0,-69.0,1012.0
21.0,-17.0,216.0,-5.0,23.0,-1.0,94.0,-67.0,1009.0
21.0,-20.0,218.0,-5.0,22.0,-2.0,95.0,-65.0,1014.0
23.0,-16.0,216.0,-8.0,22.0,-3.0,93.0,-65.0,1007.0
24.0,-19.0,216.0,-10.0,24.0,-2.0,92.0,-66.0,1010.0
21.0,-16.0,214.0,-10.0,24.0,-2.0,91.0,-72.0,1010.0
22.0,-17.0,215.0,-9.0,24.0,-2.0,94.0,-74.0,1009.0
24.0,-18.0,218.0,-7.0,24.0,-1.0,94.0,-76.0,1005.0
20.0,-18.0,217.0,-7.0,24.0,-2.0,94.0,-76.0,1008.0
22.0,-17.0,215.0,-5.0,25.0,-2.0,90.0,-71.0,1006.0
22.0,-17.0,212.0,-5.0,24.0,-3.0,95.0,-70.0,1005.0
21.0,-19.0,215.0,-7.0,26.0,-3.0,98.0,-79.0,1005.0
18.0,-16.0,215.0,-8.0,26.0,-2.0,92.0,-71.0,1006.0
20.0,-17.0,217.0,-8.0,25.0,-4.0,91.0,-66.0,1004.0
23.0,-20.0,215.0,-8.0,25.0,-4.0,98.0,-69.0,1014.0
24.0,-18.0,220.0,-8.0,27.0,-3.0,95.0,-74.0,1008.0
21.0,-16.0,214.0,-6.0,27.0,-4.0,94.0,-65.0,1009.0
22.0,-17.0,215.0,-4.0,28.0,-2.0,93.0,-65.0,1005.0
23.0,-17.0,214.0,-2.0,30.0,-3.0,89.0,-65.0,1005.0
23.0,-17.0,214.0,-3.0,31.0,-3.0,94.0,-72.0,1006.0
23.0,-17.0,216.0,-2.0,30.0,-2.0,98.0,-67.0,1003.0
22.0,-16.0,219.0,-1.0,31.0,-2.0,96.0,-65.0,1006.0
20.0,-17.0,212.0,-2.0,32.0,-2.0,90.0,-63.0,1004.0
23.0,-17.0,218.0,-3.0,32.0,-1.0,95.0,-64.0,1002.0
21.0,-16.0,216.0,-5.0,33.0,-1.0,92.0,-69.0,1006.0
21.0,-20.0,214.0,-9.0,33.0,-2.0,94.0,-67.0,1003.0
20.0,-16.0,217.0,-14.0,34.0,-1.0,91.0,-68.0,1008.0
20.0,-17.0,219.0,-16.0,31.0,-1.0,89.0,-66.0,1011.0
22.0,-15.0,215.0,-20.0,30.0,-3.0,93.0,-69.0,1012.0
21.0,-14.0,216.0,-22.0,28.0,-3.0,86.0,-68.0,1014.0
24.0,-16.0,216.0,-23.0,26.0,-2.0,86.0,-65.0,1011.0
22.0,-16.0,216.0,-23.0,24.0,-2.0,87.0,-67.0,1012.0
21.0,-17.0,216.0,-22.0,23.0,-2.0,87.0,-72.0,1014.0
18.0,-19.0,213.0,-23.0,23.0,-2.0,89.0,-67.0,1010.0
24.0,-19.0,214.0,-24.0,21.0,-3.0,86.0,-68.0,1011.0
20.0,-16.0,217.0,-24.0,21.0,-4.0,91.0,-66.0,1010.0
19.0,-17.0,217.0,-25.0,20.0,-2.0,94.0,-66.0,1010.0
22.0,-16.0,214.0,-25.0,19.0,-2.0,87.0,-65.0,1010.0
20.0,-16.0,213.0,-27.0,21.0,-1.0,89.0,-70.0,1012.0
21.0,-18.0,215.0,-30.0,21.0,0.0,87.0,-64.0,1008.0
19.0,-16.0,216.0,-32.0,21.0,2.0,86.0,-60.0,1008.0
22.0,-13.0,215.0,-36.0,20.0,1.0,86.0,-63.0,1010.0
21.0,-16.0,214.0,-38.0,21.0,1.0,85.0,-61.0,1015.0
20.0,-15.0,213.0,-39.0,21.0,0.0,88.0,-59.0,1015.0
20.0,-14.0,216.0,-38.0,22.0,2.0,91.0,-67.0,1008.0
23.0,-18.0,217.0,-36.0,22.0,0.0,93.0,-64.0,1013.0
21.0,-16.0,215.0,-32.0,21.0,1.0,90.0,-63.0,1010.0
20.0,-15.0,218.0,-27.0,19.0,1.0,90.0,-61.0,1007.0
22.0,-14.0,219.0,-27.0,17.0,0.0,92.0,-60.0,1010.0
18.0,-11.0,215.0,-26.0,16.0,-1.0,85.0,-60.0,1011.0
24.0,-17.0,212.0,-28.0,15.0,1.0,92.0,-56.0,1011.0
20.0,-12.0,217.0,-31.0,14.0,1.0,89.0,-58.0,1017.0
22.0,-16.0,214.0,-35.0,16.0,0.0,92.0,-53.0,1008.0
23.0,-15.0,215.0,-41.0,16.0,1.0,91.0,-53.0,1014.0
21.0,-16.0,219.0,-48.0,17.0,0.0,90.0,-55.0,1014.0
22.0,-14.0,216.0,-54.0,17.0,1.0,90.0,-49.0,1016.0
20.0,-15.0,219.0,-59.0,16.0,1.0,91.0,-60.0,1018.0
24.0,-16.0,219.0,-61.0,16.0,1.0,90.0,-58.0,1008.0
19.0,-13.0,218.0,-64.0,16.0,1.0,93.0,-56.0,1013.0
21.0,-12.0,217.0,-64.0,15.0,0.0,88.0,-62.0,1012.0
21.0,-15.0,216.0,-65.0,14.0,0.0,96.0,-61.0,1013.0
20.0,-15.0,215.0,-64.0,13.0,0.0,90.0,-63.0,1010.0
24.0,-15.0,216.0,-67.0,13.0,-1.0,92.0,-58.0,1008.0
20.0,-15.0,218.0,-62.0,13.0,1.0,92.0,-61.0,1005.0
26.0,-17.0,220.0,-60.0,14.0,-1.0,94.0,-65.0,1006.0
24.0,-17.0,213.0,-58.0,14.0,-1.0,97.0,-67.0,1006.0
22.0,-18.0,214.0,-55.0,15.0,0.0,93.0,-69.0,1004.0
22.0,-17.0,215.0,-50.0,14.0,0.0,96.0,-64.0,1007.0
20.0,-17.0,212.0,-47.0,14.0,0.0,91.0,-61.0,1006.0
23.0,-15.0,215.0,-43.0,14.0,0.0,94.0,-64.0,1006.0
18.0,-12.0,214.0,-39.0,16.0,-1.0,91.0,-65.0,1002.0
22.0,-15.0,211.0,-37.0,15.0,-1.0,98.0,-61.0,1005.0
23.0,-16.0,214.0,-36.0,14.0,1.0,96.0,-68.0,1006.0
23.0,-15.0,216.0,-33.0,15.0,-1.0,93.0,-64.0,1001.0
21.0,-18.0,213.0,-35.0,15.0,-1.0,93.0,-61.0,1010.0
23.0,-15.0,216.0,-34.0,17.0,-2.0,93.0,-59.0,1007.0
23.0,-17.0,210.0,-35.0,17.0,-1.0,95.0,-69.0,1009.0
21.0,-15.0,217.0,-34.0,19.0,-1.0,92.0,-65.0,1007.0
21.0,-14.0,218.0,-36.0,19.0,0.0,92.0,-60.0,1007.0
18.0,-13.0,217.0,-38.0,21.0,-1.0,96.0,-64.0,1010.0
20.0,-17.0,214.0,-38.0,20.0,-1.0,93.0,-61.0,1009.0
20.0,-16.0,216.0,-40.0,20.0,-1.0,91.0,-63.0,1013.0
24.0,-18.0,216.0,-41.0,19.0,0.0,91.0,-62.0,1008.0
21.0,-15.0,214.0,-42.0,20.0,0.0,93.0,-66.0,1010.0
20.0,-17.0,216.0,-44.0,18.0,-2.0,91.0,-59.0,1009.0
20.0,-15.0,213.0,-44.0,19.0,-2.0,96.0,-63.0,1011.0
21.0,-19.0,213.0,-45.0,17.0,-3.0,94.0,-61.0,1010.0
23.0,-18.0,214.0,-44.0,18.0,-1.0,95.0,-63.0,1007.0
21.0,-13.0,214.0,-46.0,17.0,-1.0,92.0,-62.0,1010.0
19.0,-13.0,215.0,-46.0,19.0,-1.0,90.0,-63.0,1009.0
22.0,-17.0,216.0,-45.0,19.0,-2.0,94.0,-62.0,1010.0
19.0,-18.0,215.0,-44.0,19.0,-2.0,91.0,-65.0,1008.0
23.0,-14.0,214.0,-45.0,20.0,-3.0,88.0,-63.0,1005.0
21.0,-17.0,214.0,-43.0,21.0,-2.0,90.0,-61.0,1006.0
22.0,-17.0,214.0,-41.0,20.0,-2.0,89.0,-64.0,1012.0
22.0,-14.0,215.0,-40.0,20.0,-1.0,94.0,-61.0,1011.0
23.0,-13.0,212.0,-39.0,20.0,-1.0,90.0,-64.0,1008.0
16.0,-17.0,214.0,-38.0,19.0,-2.0,94.0,-63.0,1004.0
22.0,-16.0,219.0,-39.0,20.0,-1.0,92.0,-61.0,1007.0
21.0,-16.0,215.0,-41.0,20.0,-2.0,88.0,-63.0,1003.0
23.0,-16.0,218.0,-41.0,18.0,-3.0,86.0,-60.0,1010.0
23.0,-16.0,215.0,-43.0,17.0,-3.0,91.0,-63.0,1008.0
19.0,-15.0,212.0,-46.0,17.0,-2.0,85.0,-62.0,1008.0
22.0,-17.0,219.0,-49.0,16.0,-1.0,90.0,-65.0,1018.0
21.0,-13.0,215.0,-51.0,17.0,-2.0,85.0,-59.0,1014.0
24.0,-16.0,216.0,-54.0,16.0,-3.0,85.0,-60.0,1015.0
21.0,-16.0,215.0,-58.0,18.0,-3.0,89.0,-58.0,1012.0
21.0,-15.0,219.0,-61.0,16.0,-2.0,90.0,-63.0,1012.0
19.0,-14.0,217.0,-64.0,17.0,-2.0,92.0,-68.0,1017.0
19.0,-15.0,214.0,-67.0,16.0,-2.0,86.0,-61.0,1011.0
22.0,-15.0,218.0,-69.0,15.0,-2.0,88.0,-64.0,1011.0
23.0,-16.0,215.0,-73.0,16.0,-1.0,91.0,-61.0,1020.0
23.0,-16.0,219.0,-76.0,18.0,-2.0,90.0,-63.0,1011.0
22.0,-17.0,218.0,-80.0,16.0,-3.0,90.0,-66.0,1007.0
20.0,-20.0,217.0,-82.0,15.0,-1.0,92.0,-65.0,1015.0
20.0,-16.0,217.0,-87.0,14.0,-3.0,89.0,-72.0,1012.0
23.0,-18.0,213.0,-88.0,14.0,-2.0,89.0,-72.0,1010.0
21.0,-17.0,219.0,-89.0,13.0,-2.0,94.0,-69.0,1011.0
19.0,-16.0,217.0,-89.0,13.0,-3.0,93.0,-66.0,1013.0
23.0,-16.0,216.0,-91.0,11.0,-2.0,93.0,-65.0,1011.0
22.0,-14.0,215.0,-90.0,9.0,-2.0,96.0,-62.0,1013.0
19.0,-14.0,215.0,-94.0,8.0,-2.0,94.0,-61.0,1011.0
24.0,-18.0,220.0,-96.0,7.0,-2.0,96.0,-64.0,1005.0
20.0,-16.0,213.0,-99.0,9.0,-3.0,91.0,-64.0,1012.0
20.0,-13.0,219.0,-102.0,10.0,-4.0,93.0,-65.0,1011.0
21.0,-17.0,218.0,-105.0,10.0,-4.0,85.0,-60.0,1012.0
22.0,-16.0,215.0,-103.0,11.0,-4.0,90.0,-65.0,1011.0
21.0,-15.0,217.0,-100.0,12.0,-5.0,91.0,-62.0,1007.0
23.0,-19.0,215.0,-96.0,8.0,-4.0,94.0,-65.0,1006.0
22.0,-21.0,214.0,-91.0,6.0,-4.0,93.0,-65.0,1004.0
19.0,-16.0,214.0,-87.0,7.0,-4.0,88.0,-65.0,1005.0
22.0,-16.0,215.0,-81.0,7.0,-3.0,90.0,-65.0,1004.0
22.0,-16.0,213.0,-79.0,10.0,-3.0,91.0,-68.0,1001.0
21.0,-18.0,214.0,-78.0,12.0,-3.0,93.0,-67.0,1002.0
20.0,-15.0,214.0,-79.0,15.0,-3.0,83.0,-69.0,1000.0
21.0,-18.0,213.0,-82.0,18.0,-3.0,86.0,-71.0,1007.0
21.0,-20.0,219.0,-84.0,21.0,-3.0,85.0,-71.0,1008.0
21.0,-17.0,217.0,-87.0,24.0,-3.0,88.0,-71.0,1011.0
20.0,-17.0,214.0,-93.0,26.0,-3.0,84.0,-76.0,1018.0
19.0,-19.0,222.0,-99.0,26.0,-4.0,86.0,-79.0,1018.0
21.0,-22.0,221.0,-101.0,22.0,-5.0,90.0,-79.0,1027.0
18.0,-21.0,219.0,-101.0,17.0,-4.0,90.0,-86.0,1027.0
20.0,-23.0,216.0,-92.0,12.0,-4.0,88.0,-88.0,1027.0
21.0,-25.0,211.0,-78.0,7.0,-5.0,85.0,-90.0,1006.0
20.0,-22.0,214.0,-64.0,3.0,-5.0,90.0,-84.0,1001.0
22.0,-26.0,208.0,-53.0,-3.0,-6.0,86.0,-86.0,1000.0
21.0,-23.0,212.0,-43.0,-9.0,-5.0,86.0,-83.0,996.0
22.0,-20.0,212.0,-32.0,-13.0,-5.0,88.0,-83.0,993.0
20.0,-22.0,213.0,-28.0,-12.0,-5.0,89.0,-84.0,990.0
19.0,-19.0,215.0,-28.0,-7.0,-5.0,94.0,-77.0,993.0
24.0,-19.0,212.0,-31.0,-1.0,-5.0,94.0,-79.0,992.0
24.0,-19.0,213.0,-36.0,5.0,-5.0,97.0,-75.0,995.0
23.0,-17.0,214.0,-42.0,12.0,-4.0,97.0,-66.0,999.0
25.0,-18.0,213.0,-48.0,19.0,-2.0,100.0,-63.0,1006.0
24.0,-16.0,214.0,-54.0,23.0,-3.0,96.0,-59.0,1006.0
22.0,-16.0,216.0,-58.0,26.0,-2.0,89.0,-61.0,1008.0
22.0,-15.0,216.0,-64.0,30.0,-4.0,97.0,-61.0,1009.0
20.0,-15.0,212.0,-69.0,31.0,-4.0,91.0,-68.0,1009.0
21.0,-17.0,219.0,-72.0,32.0,-4.0,95.0,-69.0,1006.0
21.0,-17.0,218.0,-72.0,31.0,-6.0,94.0,-75.0,1013.0
21.0,-15.0,218.0,-73.0,29.0,-5.0,96.0,-72.0,1011.0
21.0,-17.0,217.0,-70.0,26.0,-4.0,91.0,-68.0,1014.0
21.0,-16.0,217.0,-69.0,22.0,-2.0,88.0,-68.0,1012.0
24.0,-20.0,219.0,-69.0,19.0,-1.0,97.0,-63.0,1013.0
23.0,-18.0,217.0,-71.0,14.0,-2.0,90.0,-70.0,1010.0
22.0,-20.0,216.0,-74.0,12.0,-2.0,90.0,-69.0,1015.0
22.0,-16.0,218.0,-78.0,7.0,-3.0,89.0,-67.0,1009.0
21.0,-20.0,218.0,-79.0,4.0,-1.0,90.0,-65.0,1013.0
20.0,-17.0,217.0,-81.0,3.0,-1.0,96.0,-74.0,1011.0
22.0,-18.0,214.0,-83.0,1.0,-1.0,95.0,-71.0,1010.0
21.0,-17.0,213.0,-85.0,1.0,-2.0,91.0,-76.0,1007.0
20.0,-17.0,217.0,-87.0,0.0,-2.0,94.0,-72.0,1006.0
23.0,-20.0,214.0,-85.0,1.0,-3.0,92.0,-79.0,1005.0
21.0,-21.0,218.0,-84.0,4.0,-1.0,93.0,-81.0,1004.0
21.0,-20.0,214.0,-80.0,5.0,-2.0,95.0,-76.0,1005.0
21.0,-18.0,216.0,-77.0,6.0,-4.0,89.0,-78.0,999.0
20.0,-19.0,212.0,-74.0,9.0,-3.0,98.0,-77.0,1004.0
23.0,-22.0,210.0,-68.0,11.0,-2.0,97.0,-78.0,1001.0
23.0,-20.0,217.0,-67.0,14.0,-3.0,96.0,-78.0,1005.0
22.0,-19.0,216.0,-65.0,16.0,-3.0,88.0,-80.0,1003.0
19.0,-18.0,216.0,-66.0,18.0,-4.0,95.0,-80.0,1005.0
22.0,-22.0,213.0,-63.0,19.0,-5.0,98.0,-76.0,1001.0
24.0,-19.0,215.0,-61.0,20.0,-5.0,90.0,-79.0,1003.0
24.0,-24.0,213.0,-61.0,20.0,-5.0,98.0,-79.0,1003.0
21.0,-19.0,213.0,-61.0,21.0,-5.0,94.0,-78.0,1004.0
23.0,-19.0,217.0,-61.0,20.0,-6.0,97.0,-77.0,1003.0
20.0,-17.0,213.0,-59.0,21.0,-5.0,95.0,-78.0,1004.0
23.0,-20.0,216.0,-58.0,20.0,-6.0,97.0,-76.0,1004.0
21.0,-20.0,216.0,-60.0,20.0,-5.0,94.0,-80.0,1002.0
24.0,-20.0,213.0,-60.0,22.0,-4.0,92.0,-82.0,1005.0
23.0,-22.0,214.0,-59.0,20.0,-5.0,94.0,-74.0,1004.0
22.0,-22.0,216.0,-63.0,20.0,-5.0,92.0,-81.0,1007.0
19.0,-20.0,215.0,-66.0,20.0,-4.0,94.0,-80.0,1006.0
21.0,-21.0,216.0,-71.0,21.0,-6.0,91.0,-76.0,1010.0
20.0,-20.0,215.0,-73.0,20.0,-7.0,92.0,-84.0,1010.0
18.0,-18.0,216.0,-76.0,19.0,-7.0,93.0,-80.0,1010.0
22.0,-20.0,213.0,-76.0,19.0,-7.0,88.0,-83.0,1012.0
23.0,-23.0,212.0,-77.0,17.0,-6.0,88.0,-86.0,1010.0
19.0,-21.0,218.0,-77.0,16.0,-7.0,88.0,-85.0,1007.0
22.0,-21.0,216.0,-77.0,16.0,-7.0,84.0,-82.0,1009.0
21.0,-23.0,216.0,-74.0,15.0,-8.0,87.0,-89.0,1012.0
21.0,-21.0,218.0,-71.0,14.0,-9.0,82.0,-88.0,1006.0
20.0,-23.0,216.0,-68.0,15.0,-9.0,84.0,-82.0,1002.0
21.0,-21.0,217.0,-67.0,14.0,-10.0,87.0,-86.0,1004.0
20.0,-20.0,214.0,-65.0,13.0,-9.0,88.0,-84.0,1005.0
19.0,-19.0,215.0,-64.0,14.0,-8.0,95.0,-87.0,1006.0
20.0,-19.0,213.0,-65.0,14.0,-9.0,91.0,-80.0,1006.0
22.0,-20.0,216.0,-69.0,15.0,-7.0,97.0,-75.0,1005.0
21.0,-17.0,214.0,-71.0,14.0,-8.0,85.0,-82.0,1002.0
21.0,-19.0,213.0,-73.0,16.0,-7.0,92.0,-80.0,1004.0
19.0,-19.0,212.0,-74.0,16.0,-6.0,90.0,-79.0,1005.0
22.0,-22.0,213.0,-75.0,18.0,-6.0,91.0,-79.0,1003.0
19.0,-20.0,215.0,-77.0,19.0,-8.0,90.0,-75.0,1006.0
23.0,-21.0,214.0,-75.0,18.0,-8.0,91.0,-82.0,1007.0
22.0,-21.0,217.0,-71.0,17.0,-8.0,88.0,-83.0,1005.0
22.0,-18.0,217.0,-67.0,16.0,-9.0,86.0,-80.0,1008.0
19.0,-21.0,214.0,-70.0,13.0,-4.0,88.0,-89.0,999.0
22.0,-18.0,214.0,-69.0,9.0,-2.0,94.0,-77.0,1005.0
21.0,-19.0,216.0,-64.0,10.0,-7.0,89.0,-71.0,1006.0
20.0,-20.0,216.0,-61.0,12.0,-11.0,92.0,-80.0,1008.0
21.0,-19.0,212.0,-62.0,12.0,-12.0,90.0,-78.0,1007.0
18.0,-18.0,218.0,-63.0,12.0,-12.0,87.0,-79.0,1017.0
20.0,-20.0,214.0,-66.0,12.0,-11.0,92.0,-78.0,1008.0
22.0,-19.0,219.0,-69.0,11.0,-10.0,91.0,-79.0,1009.0
22.0,-20.0,217.0,-72.0,12.0,-10.0,85.0,-82.0,1012.0
19.0,-20.0,215.0,-75.0,12.0,-9.0,88.0,-76.0,1013.0
22.0,-20.0,218.0,-78.0,12.0,-8.0,91.0,-79.0,1009.0
24.0,-23.0,218.0,-80.0,13.0,-7.0,91.0,-80.0,1009.0
20.0,-19.0,214.0,-83.0,14.0,-8.0,91.0,-79.0,1008.0
24.0,-22.0,215.0,-85.0,15.0,-7.0,96.0,-84.0,1008.0
21.0,-20.0,217.0,-87.0,17.0,-8.0,95.0,-87.0,1006.0
20.0,-23.0,216.0,-87.0,16.0,-10.0,93.0,-83.0,1009.0
22.0,-23.0,217.0,-88.0,16.0,-12.0,94.0,-86.0,1008.0
17.0,-18.0,210.0,-90.0,17.0,-13.0,98.0,-82.0,1009.0
24.0,-21.0,216.0,-89.0,15.0,-13.0,96.0,-83.0,1011.0
20.0,-19.0,215.0,-90.0,15.0,-14.0,100.0,-87.0,1008.0
24.0,-21.0,216.0,-88.0,12.0,-17.0,98.0,-82.0,1006.0
24.0,-23.0,212.0,-88.0,10.0,-17.0,103.0,-82.0,1006.0
21.0,-20.0,218.0,-89.0,9.0,-18.0,100.0,-80.0,1004.0
23.0,-23.0,214.0,-89.0,8.0,-19.0,99.0,-88.0,1006.0
22.0,-21.0,214.0,-87.0,8.0,-21.0,95.0,-82.0,1005.0
24.0,-22.0,214.0,-88.0,8.0,-20.0,97.0,-81.0,1006.0
23.0,-20.0,210.0,-88.0,6.0,-21.0,96.0,-84.0,1006.0
22.0,-21.0,217.0,-86.0,5.0,-21.0,97.0,-86.0,1008.0
10.0,-28.0,217.0,-84.0,3.0,-22.0,92.0,-83.0,1004.0
20.0,-24.0,215.0,-85.0,5.0,-24.0,93.0,-87.0,1008.0
19.0,-23.0,217.0,-83.0,4.0,-25.0,87.0,-93.0,1007.0
18.0,-22.0,214.0,-85.0,5.0,-27.0,81.0,-95.0,1009.0
20.0,-25.0,220.0,-87.0,4.0,-30.0,85.0,-95.0,1006.0
20.0,-23.0,218.0,-92.0,5.0,-33.0,86.0,-92.0,1007.0
23.0,-24.0,215.0,-100.0,4.0,-34.0,86.0,-94.0,1008.0
20.0,-22.0,212.0,-110.0,3.0,-33.0,90.0,-93.0,1008.0
22.0,-22.0,213.0,-124.0,-2.0,-32.0,91.0,-91.0,1003.0
21.0,-23.0,213.0,-132.0,-10.0,-29.0,91.0,-89.0,1002.0
22.0,-25.0,214.0,-135.0,-21.0,-26.0,101.0,-89.0,996.0
32.0,-34.0,205.0,-131.0,-31.0,-23.0,106.0,-91.0,998.0
24.0,-23.0,209.0,-119.0,-38.0,-20.0,100.0,-91.0,999.0
24.0,-23.0,213.0,-99.0,-40.0,-18.0,99.0,-87.0,992.0
25.0,-18.0,212.0,-79.0,-39.0,-18.0,98.0,-79.0,996.0
26.0,-19.0,213.0,-61.0,-32.0,-20.0,105.0,-68.0,994.0
23.0,-18.0,213.0,-46.0,-19.0,-22.0,106.0,-70.0,996.0
27.0,-18.0,215.0,-35.0,-6.0,-26.0,107.0,-73.0,1001.0
26.0,-21.0,213.0,-35.0,7.0,-26.0,111.0,-83.0,1004.0
27.0,-23.0,212.0,-37.0,12.0,-28.0,110.0,-80.0,1007.0
28.0,-22.0,215.0,-41.0,11.0,-26.0,111.0,-90.0,1009.0
25.0,-25.0,214.0,-47.0,6.0,-28.0,114.0,-90.0,1005.0
21.0,-28.0,216.0,-52.0,-1.0,-30.0,121.0,-92.0,1009.0
26.0,-24.0,215.0,-57.0,-8.0,-33.0,122.0,-94.0,1013.0
32.0,-25.0,214.0,-61.0,-16.0,-36.0,129.0,-91.0,1015.0
31.0,-25.0,215.0,-65.0,-25.0,-36.0,130.0,-93.0,1012.0
31.0,-23.0,215.0,-67.0,-40.0,-39.0,125.0,-93.0,1008.0
34.0,-23.0,219.0,-71.0,-58.0,-42.0,132.0,-96.0,1011.0
32.0,-25.0,217.0,-73.0,-75.0,-44.0,129.0,-92.0,1009.0
34.0,-22.0,215.0,-74.0,-86.0,-49.0,138.0,-90.0,1007.0
56.0,-32.0,203.0,-75.0,-89.0,-52.0,139.0,-91.0,1009.0
30.0,-21.0,218.0,-73.0,-83.0,-53.0,136.0,-90.0,1007.0
38.0,-21.0,212.0,-69.0,-80.0,-55.0,137.0,-94.0,1005.0
35.0,-22.0,214.0,-67.0,-81.0,-59.0,135.0,-90.0,1007.0
35.0,-23.0,217.0,-66.0,-80.0,-69.0,134.0,-92.0,1007.0
35.0,-24.0,218.0,-69.0,-75.0,-76.0,127.0,-86.0,1013.0
33.0,-21.0,218.0,-74.0,-69.0,-82.0,129.0,-89.0,1027.0
37.0,-24.0,225.0,-77.0,-62.0,-88.0,138.0,-89.0,1033.0
31.0,-21.0,224.0,-89.0,-55.0,-93.0,138.0,-85.0,1043.0
34.0,-24.0,231.0,-99.0,-48.0,-98.0,139.0,-91.0,1053.0
38.0,-22.0,227.0,-108.0,-44.0,-102.0,145.0,-86.0,1059.0
34.0,-19.0,229.0,-123.0,-38.0,-105.0,140.0,-79.0,1069.0
37.0,-18.0,233.0,-142.0,-32.0,-108.0,148.0,-77.0,1077.0
38.0,-17.0,233.0,-160.0,-22.0,-115.0,153.0,-72.0,1078.0
37.0,-16.0,231.0,-179.0,-14.0,-123.0,159.0,-72.0,1072.0
40.0,-20.0,228.0,-192.0,-17.0,-128.0,161.0,-76.0,1052.0
39.0,-16.0,225.0,-186.0,-39.0,-133.0,159.0,-71.0,1032.0
40.0,-29.0,215.0,-153.0,-73.0,-131.0,154.0,-106.0,998.0
38.0,-34.0,208.0,-125.0,-105.0,-133.0,150.0,-121.0,981.0
32.0,-36.0,208.0,-87.0,-135.0,-139.0,138.0,-130.0,959.0
32.0,-35.0,201.0,-36.0,-156.0,-148.0,131.0,-139.0,950.0
35.0,-37.0,200.0,26.0,-165.0,-158.0,132.0,-136.0,940.0
34.0,-37.0,199.0,89.0,-158.0,-172.0,134.0,-136.0,938.0
34.0,-32.0,200.0,149.0,-129.0,-187.0,123.0,-122.0,935.0
33.0,-31.0,199.0,190.0,-87.0,-200.0,121.0,-118.0,940.0
31.0,-27.0,199.0,214.0,-43.0,-213.0,121.0,-106.0,941.0
26.0,-24.0,201.0,212.0,-6.0,-222.0,107.0,-88.0,946.0
22.0,-18.0,201.0,196.0,15.0,-229.0,98.0,-77.0,955.0
21.0,-15.0,203.0,161.0,27.0,-239.0,83.0,-69.0,956.0
15.0,-12.0,205.0,108.0,33.0,-248.0,80.0,-66.0,972.0
17.0,-13.0,209.0,51.0,31.0,-253.0,71.0,-53.0,994.0
12.0,-11.0,217.0,-2.0,29.0,-253.0,73.0,-50.0,1006.0
15.0,-12.0,218.0,-50.0,25.0,-253.0,70.0,-54.0,1017.0
12.0,-13.0,220.0,-92.0,17.0,-248.0,71.0,-60.0,1021.0
13.0,-18.0,218.0,-124.0,8.0,-242.0,62.0,-69.0,1020.0
10.0,-17.0,219.0,-151.0,-4.0,-237.0,47.0,-81.0,1011.0
10.0,-23.0,219.0,-177.0,-18.0,-236.0,60.0,-92.0,1020.0
10.0,-26.0,217.0,-201.0,-40.0,-230.0,46.0,-98.0,1019.0
4.0,-25.0,222.0,-221.0,-62.0,-225.0,30.0,-96.0,1034.0
12.0,-30.0,223.0,-216.0,-79.0,-217.0,67.0,-121.0,1018.0
10.0,-29.0,221.0,-207.0,-104.0,-226.0,50.0,-114.0,1014.0
8.0,-33.0,218.0,-202.0,-137.0,-210.0,43.0,-115.0,1014.0
3.0,-28.0,219.0,-183.0,-149.0,-201.0,34.0,-119.0,1014.0
12.0,-30.0,219.0,-150.0,-159.0,-202.0,51.0,-118.0,1019.0
2.0,-24.0,216.0,-119.0,-183.0,-203.0,32.0,-99.0,1016.0
-2.0,-28.0,214.0,-82.0,-204.0,-185.0,-12.0,-104.0,1003.0
-2.0,-30.0,216.0,-56.0,-200.0,-184.0,12.0,-113.0,1011.0
2.0,-26.0,216.0,-35.0,-203.0,-184.0,32.0,-102.0,1013.0
-1.0,-33.0,216.0,-17.0,-210.0,-166.0,6.0,-114.0,1004.0
-15.0,-27.0,219.0,7.0,-199.0,-158.0,-50.0,-105.0,1015.0
5.0,-31.0,214.0,33.0,-191.0,-148.0,38.0,-109.0,1009.0
-1.0,-21.0,211.0,43.0,-211.0,-146.0,12.0,-93.0,1004.0
-12.0,-13.0,220.0,33.0,-220.0,-146.0,-29.0,-67.0,999.0
-3.0,-16.0,214.0,20.0,-211.0,-126.0,-8.0,-69.0,1010.0
6.0,-18.0,214.0,-1.0,-215.0,-120.0,49.0,-81.0,1010.0
7.0,-15.0,220.0,-38.0,-236.0,-128.0,30.0,-62.0,1020.0
5.0,-18.0,218.0,-73.0,-251.0,-114.0,32.0,-65.0,1020.0
6.0,-19.0,220.0,-96.0,-261.0,-94.0,24.0,-78.0,1022.0
-5.0,-22.0,220.0,-100.0,-260.0,-67.0,-10.0,-84.0,1027.0
20.0,-25.0,218.0,-102.0,-266.0,-59.0,91.0,-106.0,1018.0
13.0,-24.0,217.0,-105.0,-287.0,-75.0,58.0,-92.0,1011.0
12.0,-24.0,210.0,-102.0,-293.0,-70.0,55.0,-93.0,1012.0
12.0,-23.0,214.0,-100.0,-288.0,-67.0,55.0,-90.0,1010.0
12.0,-19.0,215.0,-96.0,-282.0,-64.0,58.0,-78.0,1002.0
12.0,-21.0,213.0,-94.0,-276.0,-59.0,49.0,-76.0,1000.0
20.0,-19.0,216.0,-99.0,-276.0,-51.0,87.0,-77.0,1003.0
26.0,-23.0,211.0,-108.0,-289.0,-47.0,98.0,-80.0,997.0
24.0,-20.0,215.0,-112.0,-301.0,-43.0,103.0,-82.0,1002.0
26.0,-23.0,214.0,-109.0,-308.0,-45.0,101.0,-87.0,1005.0
22.0,-21.0,213.0,-95.0,-313.0,-49.0,79.0,-72.0,1010.0
30.0,-24.0,215.0,-73.0,-309.0,-44.0,125.0,-98.0,1000.0
32.0,-24.0,213.0,-64.0,-312.0,-51.0,143.0,-88.0,1007.0
38.0,-21.0,213.0,-61.0,-314.0,-52.0,144.0,-83.0,1005.0
39.0,-24.0,218.0,-64.0,-308.0,-44.0,155.0,-80.0,1010.0
38.0,-18.0,217.0,-68.0,-293.0,-37.0,159.0,-74.0,1017.0
41.0,-17.0,220.0,-72.0,-269.0,-30.0,156.0,-68.0,1023.0
48.0,-20.0,220.0,-79.0,-244.0,-17.0,186.0,-80.0,1014.0
46.0,-19.0,218.0,-97.0,-227.0,-10.0,179.0,-76.0,1023.0
46.0,-15.0,219.0,-109.0,-212.0,1.0,194.0,-71.0,1018.0
49.0,-23.0,217.0,-120.0,-195.0,11.0,193.0,-88.0,1020.0
50.0,-26.0,215.0,-133.0,-178.0,24.0,206.0,-102.0,1026.0
50.0,-29.0,217.0,-140.0,-162.0,35.0,212.0,-113.0,1021.0
53.0,-32.0,221.0,-141.0,-149.0,41.0,224.0,-118.0,1022.0
58.0,-31.0,219.0,-134.0,-138.0,49.0,231.0,-121.0,1015.0
58.0,-32.0,214.0,-109.0,-124.0,55.0,241.0,-125.0,1003.0
63.0,-37.0,211.0,-75.0,-108.0,58.0,245.0,-129.0,982.0
65.0,-35.0,209.0,-39.0,-88.0,59.0,256.0,-126.0,977.0
66.0,-36.0,209.0,-3.0,-65.0,58.0,275.0,-126.0,973.0
67.0,-32.0,208.0,28.0,-40.0,53.0,271.0,-122.0,968.0
72.0,-34.0,203.0,57.0,-15.0,48.0,281.0,-124.0,962.0
73.0,-34.0,205.0,78.0,8.0,39.0,289.0,-121.0,958.0
76.0,-33.0,200.0,105.0,32.0,30.0,293.0,-122.0,961.0
76.0,-32.0,205.0,128.0,57.0,21.0,296.0,-118.0,960.0
73.0,-30.0,204.0,145.0,83.0,10.0,291.0,-116.0,965.0
76.0,-27.0,206.0,157.0,108.0,0.0,296.0,-109.0,974.0
76.0,-23.0,210.0,157.0,127.0,-12.0,310.0,-105.0,981.0
72.0,-21.0,214.0,147.0,131.0,-19.0,295.0,-90.0,989.0
72.0,-18.0,211.0,126.0,127.0,-18.0,293.0,-80.0,992.0
71.0,-16.0,216.0,98.0,118.0,-20.0,296.0,-74.0,1003.0
72.0,-14.0,213.0,60.0,114.0,-29.0,291.0,-69.0,1003.0
73.0,-15.0,214.0,20.0,120.0,-36.0,287.0,-65.0,1000.0
80.0,-21.0,214.0,-16.0,141.0,-41.0,316.0,-76.0,996.0
77.0,-20.0,213.0,-47.0,164.0,-53.0,308.0,-86.0,995.0
71.0,-25.0,212.0,-63.0,196.0,-63.0,283.0,-87.0,997.0
82.0,-30.0,208.0,-55.0,237.0,-69.0,322.0,-121.0,974.0
80.0,-33.0,203.0,-35.0,276.0,-88.0,308.0,-123.0,967.0
69.0,-30.0,201.0,-3.0,318.0,-100.0,274.0,-110.0,961.0
79.0,-36.0,200.0,41.0,365.0,-101.0,328.0,-126.0,940.0
78.0,-30.0,201.0,74.0,390.0,-132.0,309.0,-115.0,948.0
72.0,-29.0,205.0,95.0,401.0,-153.0,294.0,-100.0,953.0
65.0,-21.0,199.0,109.0,418.0,-166.0,240.0,-86.0,961.0
69.0,-19.0,204.0,119.0,440.0,-164.0,286.0,-76.0,965.0
74.0,-12.0,202.0,114.0,433.0,-188.0,295.0,-55.0,956.0
68.0,-13.0,204.0,102.0,419.0,-209.0,265.0,-43.0,952.0
67.0,-14.0,206.0,90.0,419.0,-213.0,271.0,-54.0,959.0
67.0,-16.0,206.0,80.0,430.0,-216.0,260.0,-57.0,975.0
87.0,-20.0,209.0,83.0,448.0,-224.0,338.0,-82.0,982.0
78.0,-15.0,210.0,79.0,460.0,-246.0,315.0,-65.0,986.0
77.0,-10.0,210.0,72.0,474.0,-255.0,315.0,-63.0,994.0
86.0,-18.0,217.0,57.0,488.0,-253.0,325.0,-67.0,1010.0
92.0,-19.0,220.0,42.0,505.0,-255.0,356.0,-79.0,1017.0
87.0,-21.0,219.0,25.0,529.0,-263.0,331.0,-73.0,1027.0
94.0,-22.0,223.0,6.0,559.0,-262.0,379.0,-97.0,1030.0
92.0,-26.0,220.0,-13.0,589.0,-260.0,350.0,-105.0,1032.0
102.0,-27.0,217.0,-37.0,613.0,-252.0,387.0,-115.0,1017.0
99.0,-31.0,219.0,-64.0,627.0,-265.0,383.0,-115.0,1015.0
96.0,-31.0,214.0,-90.0,642.0,-274.0,380.0,-129.0,994.0
85.0,-37.0,209.0,-108.0,659.0,-258.0,333.0,-136.0,975.0
64.0,-32.0,206.0,-110.0,683.0,-250.0,254.0,-120.0,976.0
74.0,-38.0,202.0,-88.0,720.0,-194.0,315.0,-151.0,953.0
95.0,-42.0,200.0,-67.0,727.0,-194.0,371.0,-159.0,937.0
85.0,-37.0,198.0,-46.0,708.0,-229.0,333.0,-133.0,934.0
67.0,-40.0,193.0,-19.0,694.0,-229.0,282.0,-148.0,926.0
62.0,-38.0,198.0,11.0,704.0,-235.0,247.0,-142.0,932.0
29.0,-19.0,201.0,45.0,714.0,-236.0,102.0,-74.0,948.0
46.0,-31.0,200.0,93.0,735.0,-177.0,193.0,-117.0,942.0
59.0,-23.0,203.0,121.0,726.0,-176.0,250.0,-105.0,957.0
40.0,-19.0,208.0,126.0,678.0,-209.0,172.0,-81.0,977.0
37.0,-15.0,211.0,114.0,634.0,-198.0,151.0,-71.0,997.0
23.0,-11.0,220.0,83.0,608.0,-193.0,110.0,-51.0,1028.0
22.0,-8.0,227.0,41.0,588.0,-195.0,98.0,-41.0,1045.0
13.0,-3.0,227.0,-4.0,569.0,-187.0,63.0,-31.0,1056.0
11.0,-6.0,230.0,-60.0,570.0,-155.0,35.0,-32.0,1060.0
27.0,-11.0,227.0,-113.0,590.0,-112.0,110.0,-50.0,1049.0
47.0,-13.0,225.0,-173.0,610.0,-107.0,175.0,-65.0,1036.0
32.0,-15.0,217.0,-236.0,637.0,-124.0,129.0,-65.0,1021.0
20.0,-19.0,221.0,-293.0,694.0,-112.0,77.0,-75.0,1022.0
9.0,-21.0,213.0,-337.0,752.0,-81.0,45.0,-85.0,1017.0
3.0,-24.0,219.0,-366.0,792.0,-42.0,5.0,-96.0,1019.0
-6.0,-27.0,219.0,-378.0,815.0,2.0,-12.0,-96.0,1019.0
-7.0,-28.0,222.0,-377.0,813.0,41.0,-21.0,-102.0,1030.0
-12.0,-29.0,222.0,-365.0,793.0,80.0,-26.0,-110.0,1034.0
-14.0,-29.0,230.0,-348.0,769.0,117.0,-39.0,-109.0,1040.0
-17.0,-33.0,227.0,-328.0,748.0,153.0,-56.0,-109.0,1041.0
-24.0,-30.0,228.0,-304.0,721.0,188.0,-79.0,-105.0,1059.0
-34.0,-27.0,226.0,-271.0,695.0,221.0,-102.0,-108.0,1048.0
-33.0,-27.0,226.0,-231.0,665.0,255.0,-115.0,-104.0,1058.0
-35.0,-27.0,231.0,-187.0,635.0,290.0,-124.0,-109.0,1055.0
-34.0,-24.0,225.0,-144.0,613.0,326.0,-132.0,-98.0,1053.0
-38.0,-23.0,230.0,-90.0,595.0,359.0,-136.0,-94.0,1060.0
-40.0,-23.0,229.0,-48.0,583.0,394.0,-145.0,-84.0,1058.0
-38.0,-23.0,231.0,-11.0,570.0,428.0,-150.0,-80.0,1060.0
-36.0,-22.0,232.0,18.0,562.0,457.0,-136.0,-81.0,1058.0
-36.0,-20.0,229.0,44.0,563.0,479.0,-129.0,-85.0,1056.0
-31.0,-22.0,229.0,68.0,579.0,497.0,-120.0,-93.0,1042.0
-25.0,-26.0,224.0,90.0,606.0,513.0,-100.0,-98.0,1036.0
-17.0,-27.0,228.0,119.0,643.0,529.0,-75.0,-102.0,1055.0
-15.0,-28.0,226.0,152.0,680.0,542.0,-50.0,-110.0,1057.0
-12.0,-28.0,232.0,188.0,717.0,551.0,-38.0,-108.0,1065.0
-13.0,-28.0,229.0,226.0,754.0,563.0,-41.0,-108.0,1075.0
-9.0,-30.0,237.0,272.0,786.0,579.0,-38.0,-109.0,1098.0
-15.0,-27.0,244.0,329.0,819.0,594.0,-48.0,-108.0,1127.0
-18.0,-25.0,246.0,388.0,846.0,610.0,-68.0,-104.0,1140.0
-23.0,-26.0,252.0,447.0,872.0,631.0,-81.0,-99.0,1152.0
-24.0,-24.0,252.0,507.0,893.0,648.0,-97.0,-93.0,1154.0
-29.0,-20.0,255.0,556.0,918.0,665.0,-107.0,-79.0,1164.0
-32.0,-19.0,256.0,601.0,947.0,685.0,-119.0,-81.0,1165.0
-32.0,-16.0,258.0,631.0,983.0,697.0,-125.0,-79.0,1171.0
-33.0,-12.0,255.0,656.0,1022.0,699.0,-137.0,-65.0,1168.0
-31.0,-13.0,263.0,671.0,1065.0,699.0,-135.0,-71.0,1170.0
-31.0,-16.0,257.0,676.0,1105.0,684.0,-116.0,-58.0,1169.0
-27.0,-16.0,256.0,682.0,1139.0,667.0,-115.0,-72.0,1159.0
-19.0,-17.0,249.0,692.0,1165.0,636.0,-83.0,-58.0,1151.0
-21.0,-17.0,246.0,709.0,1186.0,607.0,-90.0,-83.0,1123.0
-13.0,-21.0,235.0,725.0,1196.0,569.0,-54.0,-68.0,1100.0
-15.0,-25.0,232.0,751.0,1197.0,534.0,-32.0,-99.0,1075.0
-5.0,-19.0,234.0,764.0,1196.0,490.0,-9.0,-72.0,1072.0
-10.0,-19.0,222.0,781.0,1185.0,458.0,-17.0,-77.0,1042.0
-12.0,-17.0,220.0,778.0,1179.0,428.0,-27.0,-73.0,1030.0
-17.0,-7.0,217.0,758.0,1166.0,393.0,-67.0,-47.0,1004.0
-30.0,-1.0,212.0,731.0,1153.0,365.0,-119.0,-9.0,996.0
-39.0,6.0,209.0,705.0,1145.0,341.0,-153.0,10.0,978.0
-77.0,14.0,201.0,664.0,1140.0,316.0,-280.0,38.0,959.0
-91.0,20.0,204.0,607.0,1147.0,334.0,-345.0,68.0,961.0
-108.0,19.0,201.0,566.0,1148.0,362.0,-416.0,66.0,951.0
-109.0,16.0,201.0,530.0,1151.0,365.0,-427.0,54.0,932.0
-122.0,22.0,191.0,493.0,1151.0,349.0,-468.0,71.0,912.0
-127.0,23.0,184.0,451.0,1170.0,340.0,-488.0,80.0,892.0
-124.0,23.0,180.0,408.0,1201.0,336.0,-485.0,77.0,872.0
-126.0,25.0,184.0,368.0,1237.0,325.0,-490.0,86.0,874.0
-122.0,26.0,174.0,332.0,1291.0,314.0,-486.0,91.0,848.0
-114.0,26.0,173.0,296.0,1351.0,303.0,-448.0,91.0,843.0
-105.0,29.0,170.0,260.0,1408.0,281.0,-420.0,104.0,827.0
-107.0,34.0,165.0,226.0,1461.0,254.0,-413.0,115.0,822.0
-97.0,35.0,166.0,192.0,1521.0,229.0,-394.0,126.0,809.0
-86.0,39.0,169.0,154.0,1580.0,199.0,-356.0,139.0,815.0
-81.0,42.0,169.0,113.0,1634.0,163.0,-313.0,148.0,817.0
-64.0,43.0,168.0,81.0,1686.0,116.0,-259.0,154.0,808.0
-65.0,42.0,159.0,53.0,1729.0,67.0,-244.0,152.0,795.0
-65.0,39.0,157.0,22.0,1772.0,41.0,-251.0,145.0,784.0
-59.0,36.0,157.0,-13.0,1813.0,28.0,-238.0,129.0,784.0
-62.0,36.0,162.0,-47.0,1848.0,10.0,-228.0,124.0,789.0
-65.0,31.0,161.0,-75.0,1869.0,-8.0,-249.0,122.0,788.0
-73.0,31.0,155.0,-99.0,1888.0,-10.0,-259.0,113.0,773.0
-79.0,28.0,157.0,-132.0,1904.0,2.0,-292.0,103.0,762.0
-80.0,29.0,150.0,-168.0,1919.0,23.0,-299.0,97.0,755.0
-85.0,33.0,153.0,-195.0,1934.0,27.0,-330.0,114.0,757.0
-96.0,37.0,149.0,-214.0,1959.0,38.0,-368.0,121.0,749.0
-108.0,33.0,151.0,-229.0,1987.0,57.0,-425.0,130.0,748.0
-117.0,34.0,147.0,-246.0,2016.0,85.0,-442.0,136.0,745.0
-116.0,41.0,146.0,-261.0,2040.0,99.0,-446.0,144.0,739.0
-115.0,40.0,145.0,-283.0,2061.0,96.0,-435.0,140.0,725.0
-108.0,37.0,138.0,-317.0,2078.0,99.0,-418.0,126.0,717.0
-105.0,34.0,140.0,-352.0,2099.0,98.0,-402.0,116.0,714.0
-99.0,29.0,138.0,-386.0,2134.0,94.0,-391.0,111.0,696.0
-106.0,33.0,127.0,-417.0,2187.0,87.0,-409.0,118.0,665.0
-102.0,34.0,119.0,-453.0,2266.0,100.0,-397.0,122.0,638.0
-101.0,40.0,110.0,-486.0,2355.0,116.0,-396.0,133.0,600.0
-98.0,40.0,97.0,-518.0,2451.0,119.0,-398.0,139.0,545.0
-100.0,38.0,90.0,-558.0,2555.0,118.0,-402.0,137.0,526.0
-102.0,31.0,100.0,-598.0,2653.0,118.0,-399.0,124.0,530.0
-109.0,29.0,100.0,-620.0,2727.0,112.0,-425.0,110.0,554.0
-114.0,24.0,105.0,-635.0,2767.0,114.0,-438.0,92.0,570.0
-119.0,23.0,108.0,-649.0,2771.0,117.0,-449.0,87.0,570.0
-122.0,22.0,105.0,-673.0,2748.0,116.0,-466.0,84.0,572.0
-124.0,20.0,106.0,-704.0,2699.0,101.0,-471.0,78.0,570.0
-128.0,20.0,107.0,-747.0,2635.0,74.0,-481.0,76.0,579.0
-126.0,19.0,111.0,-790.0,2564.0,40.0,-477.0,71.0,589.0
-131.0,17.0,115.0,-830.0,2485.0,4.0,-491.0,61.0,608.0
-139.0,14.0,124.0,-857.0,2400.0,-22.0,-515.0,56.0,607.0
-142.0,14.0,116.0,-879.0,2301.0,-39.0,-527.0,50.0,615.0
-153.0,8.0,112.0,-897.0,2191.0,-54.0,-552.0,42.0,596.0
-161.0,-1.0,108.0,-910.0,2069.0,-64.0,-595.0,25.0,593.0
-167.0,6.0,112.0,-907.0,1943.0,-69.0,-623.0,20.0,582.0
-177.0,0.0,110.0,-886.0,1816.0,-74.0,-660.0,2.0,579.0
-188.0,-1.0,111.0,-862.0,1696.0,-74.0,-702.0,-5.0,584.0
-197.0,-2.0,108.0,-835.0,1589.0,-70.0,-737.0,-12.0,591.0
-202.0,-6.0,114.0,-802.0,1492.0,-66.0,-770.0,-24.0,601.0
-209.0,-11.0,121.0,-770.0,1402.0,-62.0,-802.0,-33.0,620.0
-214.0,-15.0,122.0,-733.0,1318.0,-63.0,-806.0,-44.0,646.0
-212.0,-18.0,127.0,-691.0,1237.0,-67.0,-812.0,-65.0,667.0
-210.0,-18.0,136.0,-649.0,1160.0,-80.0,-803.0,-69.0,688.0
-213.0,-21.0,139.0,-604.0,1085.0,-101.0,-805.0,-80.0,701.0
-216.0,-15.0,141.0,-565.0,1011.0,-118.0,-832.0,-90.0,721.0
-220.0,-27.0,155.0,-545.0,929.0,-128.0,-845.0,-95.0,768.0
-226.0,-25.0,172.0,-533.0,831.0,-137.0,-856.0,-101.0,813.0
-224.0,-26.0,175.0,-524.0,714.0,-144.0,-852.0,-103.0,836.0
-226.0,-25.0,176.0,-516.0,590.0,-146.0,-868.0,-94.0,851.0
-221.0,-24.0,171.0,-512.0,469.0,-147.0,-841.0,-86.0,852.0
-220.0,-16.0,170.0,-502.0,358.0,-162.0,-838.0,-66.0,832.0
-222.0,-19.0,162.0,-491.0,266.0,-182.0,-857.0,-56.0,804.0
-223.0,-14.0,156.0,-466.0,192.0,-195.0,-848.0,-47.0,783.0
-219.0,-11.0,149.0,-422.0,122.0,-213.0,-844.0,-35.0,755.0
-217.0,-12.0,142.0,-361.0,61.0,-234.0,-827.0,-37.0,721.0
-205.0,-16.0,144.0,-294.0,8.0,-260.0,-786.0,-47.0,687.0
-206.0,-7.0,129.0,-242.0,-22.0,-298.0,-789.0,-26.0,656.0
-199.0,-8.0,112.0,-208.0,-13.0,-324.0,-786.0,-16.0,614.0
-196.0,-4.0,104.0,-197.0,33.0,-338.0,-766.0,-8.0,566.0
-196.0,7.0,94.0,-214.0,105.0,-364.0,-762.0,2.0,534.0
-199.0,1.0,95.0,-249.0,188.0,-376.0,-774.0,2.0,519.0
-202.0,0.0,95.0,-290.0,268.0,-376.0,-791.0,-4.0,520.0
-211.0,-3.0,93.0,-319.0,340.0,-372.0,-813.0,0.0,520.0
-217.0,-3.0,89.0,-338.0,399.0,-360.0,-846.0,-14.0,517.0
-231.0,-9.0,92.0,-347.0,445.0,-341.0,-882.0,-26.0,505.0
-240.0,-15.0,89.0,-347.0,478.0,-320.0,-907.0,-47.0,512.0
-257.0,-43.0,96.0,-327.0,494.0,-299.0,-977.0,-81.0,515.0
-265.0,-29.0,95.0,-280.0,488.0,-270.0,-1023.0,-99.0,527.0
-276.0,-35.0,99.0,-207.0,455.0,-241.0,-1042.0,-122.0,536.0
-279.0,-42.0,94.0,-107.0,404.0,-213.0,-1072.0,-137.0,540.0
-286.0,-41.0,100.0,7.0,350.0,-192.0,-1098.0,-138.0,542.0
-292.0,-43.0,99.0,124.0,306.0,-173.0,-1124.0,-137.0,544.0
-294.0,-35.0,103.0,227.0,280.0,-162.0,-1137.0,-123.0,546.0
-294.0,-27.0,99.0,308.0,273.0,-166.0,-1130.0,-107.0,545.0
-290.0,-17.0,99.0,361.0,283.0,-173.0,-1134.0,-72.0,547.0
-283.0,-6.0,100.0,363.0,307.0,-181.0,-1111.0,-33.0,542.0
-281.0,7.0,99.0,330.0,340.0,-184.0,-1101.0,3.0,549.0
-273.0,19.0,96.0,268.0,383.0,-178.0,-1077.0,40.0,537.0
-269.0,25.0,96.0,189.0,433.0,-162.0,-1042.0,77.0,525.0
-260.0,29.0,83.0,100.0,490.0,-149.0,-1020.0,90.0,504.0
-255.0,26.0,82.0,-8.0,558.0,-141.0,-998.0,88.0,479.0
-252.0,25.0,74.0,-125.0,632.0,-133.0,-983.0,67.0,451.0
-248.0,17.0,73.0,-242.0,706.0,-123.0,-975.0,49.0,432.0
-248.0,7.0,72.0,-348.0,765.0,-113.0,-963.0,18.0,430.0
-243.0,-4.0,74.0,-437.0,797.0,-106.0,-941.0,-22.0,445.0
-235.0,-16.0,83.0,-500.0,804.0,-102.0,-911.0,-70.0,477.0
-234.0,-30.0,94.0,-531.0,797.0,-101.0,-891.0,-115.0,515.0
-232.0,-41.0,98.0,-521.0,788.0,-99.0,-884.0,-163.0,548.0
-225.0,-52.0,107.0,-479.0,791.0,-101.0,-865.0,-196.0,578.0
-222.0,-55.0,112.0,-410.0,808.0,-105.0,-855.0,-207.0,607.0
-214.0,-56.0,119.0,-319.0,835.0,-111.0,-834.0,-198.0,632.0
-212.0,-51.0,132.0,-228.0,861.0,-121.0,-817.0,-191.0,661.0
-205.0,-52.0,134.0,-140.0,878.0,-140.0,-795.0,-194.0,682.0
-198.0,-55.0,128.0,-58.0,897.0,-166.0,-776.0,-189.0,660.0
-198.0,-52.0,112.0,11.0,934.0,-197.0,-768.0,-187.0,583.0
-198.0,-49.0,90.0,70.0,1004.0,-227.0,-778.0,-185.0,513.0
-206.0,-46.0,74.0,115.0,1087.0,-245.0,-804.0,-174.0,429.0
-212.0,-50.0,62.0,152.0,1153.0,-251.0,-830.0,-171.0,384.0
-221.0,-48.0,54.0,189.0,1182.0,-249.0,-855.0,-170.0,365.0
-234.0,-49.0,49.0,227.0,1181.0,-242.0,-901.0,-177.0,338.0
-246.0,-48.0,44.0,262.0,1169.0,-230.0,-960.0,-180.0,312.0
-260.0,-53.0,39.0,295.0,1148.0,-215.0,-1004.0,-208.0,295.0
-275.0,-57.0,40.0,326.0,1098.0,-203.0,-1055.0,-207.0,305.0
-292.0,-58.0,45.0,355.0,1005.0,-197.0,-1110.0,-213.0,331.0
-308.0,-58.0,51.0,380.0,877.0,-200.0,-1193.0,-205.0,339.0
-331.0,-47.0,45.0,392.0,736.0,-208.0,-1273.0,-178.0,316.0
-338.0,-41.0,33.0,384.0,614.0,-224.0,-1300.0,-156.0,274.0
-338.0,-37.0,24.0,348.0,538.0,-246.0,-1316.0,-139.0,234.0
-340.0,-30.0,12.0,294.0,506.0,-279.0,-1324.0,-122.0,201.0
-343.0,-31.0,9.0,237.0,483.0,-319.0,-1326.0,-119.0,179.0
-342.0,-30.0,2.0,183.0,453.0,-365.0,-1326.0,-109.0,164.0
-335.0,-25.0,4.0,140.0,424.0,-411.0,-1301.0,-97.0,145.0
-331.0,-22.0,-2.0,94.0,405.0,-455.0,-1268.0,-94.0,148.0
-307.0,-18.0,6.0,36.0,388.0,-486.0,-1177.0,-85.0,163.0
-287.0,-18.0,10.0,-39.0,357.0,-500.0,-1113.0,-77.0,191.0
-270.0,-12.0,22.0,-118.0,314.0,-501.0,-1043.0,-58.0,234.0
-250.0,-10.0,32.0,-169.0,269.0,-489.0,-968.0,-36.0,263.0
-233.0,-11.0,30.0,-176.0,243.0,-467.0,-888.0,-31.0,270.0
-214.0,-16.0,33.0,-144.0,239.0,-433.0,-838.0,-37.0,271.0
-203.0,-17.0,36.0,-85.0,246.0,-380.0,-788.0,-53.0,281.0
-195.0,-23.0,39.0,-11.0,249.0,-314.0,-757.0,-68.0,288.0
-193.0,-24.0,46.0,57.0,243.0,-244.0,-750.0,-84.0,305.0
-195.0,-25.0,52.0,105.0,216.0,-173.0,-744.0,-90.0,327.0
-203.0,-27.0,48.0,140.0,167.0,-109.0,-762.0,-94.0,342.0
-201.0,-29.0,52.0,164.0,97.0,-37.0,-764.0,-112.0,357.0
-206.0,-27.0,61.0,184.0,10.0,26.0,-788.0,-98.0,388.0
-207.0,-35.0,64.0,232.0,-82.0,78.0,-796.0,-116.0,385.0
-212.0,-35.0,57.0,275.0,-157.0,104.0,-818.0,-139.0,374.0
-216.0,-39.0,61.0,285.0,-205.0,115.0,-827.0,-158.0,376.0
-214.0,-46.0,60.0,285.0,-236.0,123.0,-834.0,-163.0,381.0
-212.0,-51.0,58.0,293.0,-252.0,136.0,-834.0,-199.0,364.0
-214.0,-55.0,58.0,300.0,-246.0,145.0,-824.0,-202.0,384.0
-211.0,-53.0,69.0,297.0,-221.0,147.0,-824.0,-197.0,409.0
-212.0,-46.0,72.0,282.0,-191.0,154.0,-818.0,-182.0,425.0
-211.0,-38.0,74.0,249.0,-166.0,171.0,-807.0,-158.0,433.0
-206.0,-34.0,71.0,191.0,-165.0,202.0,-797.0,-138.0,439.0
-207.0,-29.0,73.0,124.0,-193.0,241.0,-794.0,-116.0,439.0
-207.0,-21.0,76.0,52.0,-241.0,283.0,-776.0,-92.0,434.0
-203.0,-21.0,70.0,-12.0,-307.0,329.0,-772.0,-87.0,427.0
-205.0,-17.0,70.0,-61.0,-389.0,381.0,-761.0,-86.0,416.0
-199.0,-24.0,69.0,-93.0,-477.0,430.0,-763.0,-95.0,406.0
-195.0,-29.0,67.0,-117.0,-558.0,476.0,-757.0,-110.0,402.0
-197.0,-27.0,70.0,-138.0,-629.0,508.0,-757.0,-103.0,416.0
-202.0,-29.0,73.0,-144.0,-697.0,542.0,-774.0,-114.0,428.0
-197.0,-28.0,82.0,-157.0,-752.0,567.0,-766.0,-105.0,460.0
-202.0,-31.0,84.0,-149.0,-800.0,587.0,-771.0,-111.0,480.0
-196.0,-23.0,92.0,-115.0,-822.0,596.0,-754.0,-63.0,528.0
-198.0,-20.0,97.0,-16.0,-837.0,625.0,-758.0,-64.0,530.0
-191.0,-9.0,106.0,98.0,-835.0,635.0,-731.0,-20.0,558.0
-194.0,-11.0,105.0,196.0,-842.0,656.0,-741.0,-32.0,564.0
-200.0,-10.0,115.0,238.0,-835.0,639.0,-772.0,-29.0,600.0
-211.0,-10.0,111.0,252.0,-827.0,623.0,-815.0,-52.0,602.0
-226.0,-17.0,119.0,222.0,-792.0,599.0,-882.0,-82.0,614.0
-238.0,-16.0,111.0,181.0,-715.0,562.0,-923.0,-87.0,584.0
-238.0,-32.0,104.0,148.0,-607.0,562.0,-946.0,-126.0,560.0
-234.0,-36.0,104.0,141.0,-475.0,535.0,-903.0,-122.0,556.0
-220.0,-43.0,95.0,196.0,-382.0,503.0,-868.0,-153.0,525.0
-218.0,-50.0,94.0,282.0,-303.0,479.0,-851.0,-182.0,520.0
-222.0,-50.0,93.0,366.0,-222.0,451.0,-858.0,-178.0,515.0
-234.0,-47.0,92.0,413.0,-188.0,422.0,-889.0,-178.0,508.0
-267.0,-38.0,93.0,400.0,-253.0,398.0,-1019.0,-140.0,508.0
-321.0,-17.0,97.0,322.0,-429.0,392.0,-1200.0,-90.0,536.0
-324.0,-7.0,109.0,200.0,-686.0,416.0,-1203.0,-37.0,563.0
-319.0,9.0,106.0,67.0,-981.0,394.0,-1194.0,17.0,563.0
-305.0,13.0,95.0,-54.0,-1226.0,331.0,-1164.0,46.0,536.0
-291.0,20.0,83.0,-135.0,-1355.0,248.0,-1128.0,80.0,486.0
-276.0,25.0,63.0,-172.0,-1321.0,144.0,-1104.0,91.0,415.0
-263.0,22.0,50.0,-172.0,-1139.0,34.0,-1063.0,94.0,353.0
-251.0,25.0,39.0,-159.0,-860.0,-71.0,-1012.0,104.0,310.0
-237.0,31.0,36.0,-141.0,-570.0,-156.0,-956.0,125.0,292.0
-215.0,33.0,43.0,-137.0,-289.0,-205.0,-878.0,130.0,310.0
-204.0,34.0,62.0,-159.0,-13.0,-214.0,-827.0,125.0,373.0
-195.0,31.0,73.0,-207.0,266.0,-185.0,-779.0,103.0,449.0
-192.0,20.0,95.0,-266.0,516.0,-139.0,-758.0,72.0,524.0
-195.0,11.0,110.0,-309.0,701.0,-77.0,-763.0,40.0,578.0
-207.0,8.0,123.0,-323.0,788.0,-3.0,-780.0,8.0,619.0
-215.0,-6.0,123.0,-302.0,772.0,79.0,-808.0,-18.0,637.0
-219.0,-13.0,127.0,-248.0,653.0,155.0,-838.0,-44.0,648.0
-229.0,-12.0,126.0,-174.0,512.0,207.0,-862.0,-51.0,645.0
-235.0,-16.0,121.0,-95.0,368.0,233.0,-880.0,-51.0,641.0
-239.0,-15.0,125.0,-16.0,235.0,242.0,-896.0,-45.0,632.0
-233.0,-12.0,120.0,58.0,124.0,238.0,-899.0,-32.0,614.0
-231.0,-9.0,114.0,104.0,38.0,224.0,-878.0,-32.0,587.0
-221.0,-2.0,109.0,132.0,-16.0,206.0,-861.0,-4.0,577.0
-218.0,3.0,106.0,156.0,-44.0,187.0,-845.0,9.0,563.0
-218.0,8.0,108.0,157.0,-41.0,172.0,-839.0,30.0,566.0
-219.0,9.0,100.0,126.0,-8.0,163.0,-853.0,25.0,566.0
-216.0,17.0,114.0,64.0,40.0,165.0,-830.0,64.0,593.0
-215.0,19.0,112.0,9.0,68.0,173.0,-833.0,59.0,597.0
-212.0,16.0,118.0,-51.0,93.0,180.0,-824.0,57.0,613.0
-212.0,12.0,117.0,-100.0,115.0,188.0,-823.0,45.0,622.0
-212.0,9.0,115.0,-130.0,127.0,191.0,-818.0,38.0,611.0
-209.0,10.0,112.0,-140.0,137.0,195.0,-804.0,31.0,595.0
-207.0,6.0,106.0,-141.0,151.0,198.0,-807.0,27.0,574.0
-207.0,9.0,104.0,-147.0,170.0,196.0,-797.0,27.0,557.0
-208.0,8.0,100.0,-154.0,195.0,191.0,-803.0,32.0,539.0
-207.0,8.0,93.0,-161.0,221.0,188.0,-809.0,29.0,526.0
-208.0,9.0,94.0,-174.0,255.0,184.0,-803.0,18.0,511.0
-210.0,9.0,86.0,-182.0,284.0,181.0,-814.0,38.0,496.0
-218.0,9.0,83.0,-178.0,306.0,177.0,-835.0,37.0,480.0
-215.0,10.0,79.0,-176.0,329.0,176.0,-842.0,35.0,476.0
-214.0,9.0,82.0,-175.0,347.0,172.0,-837.0,38.0,468.0
-216.0,9.0,77.0,-171.0,359.0,170.0,-842.0,39.0,463.0
-221.0,10.0,75.0,-162.0,367.0,171.0,-844.0,37.0,470.0
-219.0,11.0,84.0,-149.0,368.0,176.0,-850.0,35.0,473.0
-218.0,7.0,85.0,-129.0,369.0,184.0,-847.0,31.0,484.0
-219.0,3.0,85.0,-111.0,363.0,188.0,-848.0,14.0,488.0
-223.0,2.0,87.0,-95.0,351.0,178.0,-856.0,5.0,498.0
-223.0,0.0,91.0,-77.0,335.0,170.0,-862.0,-3.0,513.0
-226.0,-2.0,100.0,-59.0,322.0,166.0,-867.0,-18.0,530.0
-226.0,0.0,95.0,-30.0,302.0,157.0,-862.0,2.0,532.0
-222.0,-2.0,99.0,9.0,284.0,152.0,-864.0,7.0,544.0
-222.0,2.0,102.0,32.0,280.0,147.0,-863.0,13.0,555.0
-218.0,7.0,109.0,48.0,282.0,147.0,-848.0,23.0,562.0
-217.0,8.0,107.0,60.0,281.0,144.0,-832.0,30.0,565.0
-219.0,12.0,107.0,71.0,279.0,139.0,-843.0,34.0,561.0
-214.0,8.0,104.0,70.0,274.0,134.0,-838.0,38.0,561.0
-220.0,11.0,100.0,64.0,259.0,125.0,-846.0,40.0,553.0
-222.0,19.0,106.0,48.0,243.0,112.0,-849.0,67.0,553.0
-225.0,19.0,101.0,30.0,223.0,101.0,-867.0,76.0,552.0
-228.0,22.0,104.0,-7.0,210.0,90.0,-877.0,78.0,560.0
-229.0,26.0,107.0,-59.0,204.0,78.0,-877.0,90.0,565.0
-230.0,26.0,114.0,-126.0,191.0,64.0,-877.0,93.0,584.0
-231.0,24.0,117.0,-200.0,169.0,55.0,-877.0,86.0,602.0
-233.0,24.0,114.0,-271.0,141.0,46.0,-887.0,68.0,603.0
-232.0,16.0,117.0,-329.0,117.0,36.0,-875.0,51.0,610.0
-231.0,11.0,112.0,-364.0,103.0,23.0,-882.0,39.0,603.0
-229.0,7.0,115.0,-385.0,103.0,13.0,-888.0,25.0,587.0
-229.0,5.0,106.0,-399.0,113.0,7.0,-877.0,20.0,560.0
-231.0,1.0,94.0,-403.0,129.0,-4.0,-880.0,4.0,536.0
-230.0,-2.0,87.0,-401.0,148.0,-12.0,-879.0,-11.0,513.0
-232.0,-7.0,80.0,-380.0,163.0,-22.0,-884.0,-18.0,482.0
-235.0,-10.0,74.0,-348.0,166.0,-33.0,-899.0,-26.0,452.0
-237.0,-7.0,70.0,-318.0,159.0,-41.0,-903.0,-24.0,419.0
-232.0,-4.0,61.0,-291.0,148.0,-47.0,-895.0,-24.0,396.0
-230.0,1.0,55.0,-266.0,140.0,-55.0,-889.0,-7.0,362.0
-228.0,0.0,53.0,-254.0,135.0,-59.0,-882.0,2.0,344.0
-226.0,3.0,46.0,-255.0,131.0,-57.0,-871.0,11.0,330.0
-224.0,2.0,46.0,-262.0,127.0,-53.0,-862.0,15.0,318.0
-225.0,5.0,46.0,-269.0,120.0,-47.0,-871.0,16.0,322.0
-224.0,5.0,50.0,-271.0,114.0,-38.0,-865.0,17.0,335.0
-225.0,6.0,51.0,-272.0,110.0,-31.0,-860.0,17.0,341.0
-221.0,5.0,55.0,-272.0,109.0,-26.0,-857.0,16.0,356.0
-221.0,1.0,56.0,-277.0,112.0,-17.0,-856.0,13.0,361.0
-222.0,6.0,57.0,-285.0,112.0,-10.0,-851.0,12.0,368.0
-224.0,0.0,59.0,-292.0,111.0,0.0,-863.0,7.0,369.0
-224.0,0.0,57.0,-294.0,111.0,13.0,-864.0,-3.0,372.0
-228.0,1.0,56.0,-299.0,109.0,21.0,-870.0,-4.0,366.0
-232.0,-3.0,58.0,-307.0,104.0,31.0,-885.0,-2.0,371.0
-233.0,-5.0,59.0,-320.0,97.0,42.0,-903.0,-11.0,372.0
-237.0,-8.0,62.0,-333.0,95.0,48.0,-915.0,-26.0,385.0
-242.0,-9.0,61.0,-339.0,97.0,46.0,-924.0,-29.0,395.0
-243.0,-11.0,65.0,-336.0,104.0,44.0,-954.0,-37.0,405.0
-247.0,-10.0,69.0,-335.0,117.0,38.0,-956.0,-35.0,420.0
-249.0,-11.0,71.0,-340.0,134.0,26.0,-972.0,-48.0,429.0
-252.0,-14.0,76.0,-355.0,153.0,23.0,-979.0,-52.0,439.0
-257.0,-12.0,74.0,-373.0,174.0,27.0,-982.0,-51.0,448.0
-255.0,-16.0,78.0,-396.0,195.0,33.0,-998.0,-57.0,459.0
-253.0,-18.0,82.0,-412.0,213.0,39.0,-986.0,-63.0,470.0
-254.0,-20.0,84.0,-417.0,228.0,46.0,-992.0,-72.0,472.0
-260.0,-16.0,81.0,-408.0,236.0,45.0,-1002.0,-61.0,471.0
-260.0,-20.0,78.0,-389.0,235.0,51.0,-1003.0,-71.0,458.0
-258.0,-21.0,76.0,-366.0,224.0,56.0,-993.0,-79.0,462.0
-256.0,-25.0,78.0,-335.0,213.0,56.0,-986.0,-82.0,448.0
-255.0,-23.0,69.0,-304.0,206.0,53.0,-992.0,-84.0,437.0
-254.0,-24.0,70.0,-272.0,208.0,54.0,-973.0,-88.0,422.0
-241.0,-28.0,67.0,-245.0,219.0,52.0,-970.0,-91.0,408.0
-244.0,-23.0,60.0,-218.0,238.0,50.0,-946.0,-83.0,393.0
-240.0,-19.0,61.0,-188.0,264.0,44.0,-926.0,-69.0,379.0
-240.0,-19.0,58.0,-154.0,285.0,38.0,-914.0,-65.0,368.0
-239.0,-18.0,52.0,-126.0,305.0,42.0,-913.0,-60.0,354.0
-234.0,-13.0,51.0,-103.0,322.0,54.0,-902.0,-47.0,342.0
-228.0,-14.0,51.0,-90.0,328.0,67.0,-889.0,-35.0,336.0
-232.0,-8.0,47.0,-89.0,326.0,74.0,-889.0,-23.0,334.0
-228.0,-3.0,50.0,-95.0,324.0,90.0,-884.0,-18.0,338.0
-229.0,-2.0,50.0,-110.0,319.0,105.0,-888.0,-15.0,352.0
-230.0,-4.0,51.0,-132.0,312.0,120.0,-889.0,-11.0,358.0
-229.0,-6.0,54.0,-159.0,302.0,131.0,-890.0,-20.0,374.0
-225.0,-11.0,63.0,-187.0,300.0,141.0,-878.0,-33.0,391.0
-227.0,-15.0,59.0,-210.0,304.0,150.0,-875.0,-47.0,399.0
-225.0,-17.0,64.0,-224.0,311.0,151.0,-867.0,-65.0,396.0
-235.0,-17.0,63.0,-229.0,315.0,149.0,-895.0,-58.0,395.0
-232.0,-17.0,65.0,-223.0,311.0,164.0,-891.0,-69.0,397.0
-233.0,-19.0,68.0,-212.0,292.0,173.0,-900.0,-66.0,400.0
-235.0,-16.0,66.0,-192.0,262.0,178.0,-894.0,-65.0,404.0
-236.0,-17.0,70.0,-167.0,230.0,178.0,-896.0,-56.0,405.0
-229.0,-12.0,63.0,-140.0,204.0,175.0,-884.0,-43.0,401.0
-230.0,-4.0,64.0,-119.0,189.0,167.0,-879.0,-22.0,399.0
-232.0,-5.0,59.0,-98.0,185.0,164.0,-888.0,-16.0,389.0
-235.0,-1.0,60.0,-83.0,183.0,159.0,-895.0,-3.0,386.0
-238.0,-2.0,64.0,-72.0,183.0,158.0,-908.0,-3.0,390.0
-236.0,-1.0,63.0,-57.0,183.0,157.0,-912.0,-1.0,388.0
-238.0,-5.0,64.0,-38.0,186.0,154.0,-916.0,-10.0,394.0
-240.0,-5.0,64.0,-17.0,188.0,146.0,-916.0,-8.0,389.0
-241.0,-1.0,60.0,5.0,191.0,142.0,-930.0,-9.0,384.0
-243.0,-2.0,63.0,25.0,190.0,143.0,-934.0,-2.0,385.0
-248.0,0.0,59.0,36.0,183.0,145.0,-953.0,1.0,384.0
-248.0,0.0,62.0,34.0,170.0,143.0,-958.0,11.0,386.0
-247.0,7.0,62.0,24.0,152.0,137.0,-959.0,9.0,397.0
-250.0,8.0,64.0,6.0,127.0,129.0,-967.0,21.0,389.0
-247.0,7.0,67.0,-16.0,101.0,121.0,-960.0,23.0,405.0
-250.0,8.0,66.0,-38.0,76.0,113.0,-961.0,27.0,405.0
-243.0,9.0,68.0,-59.0,57.0,104.0,-936.0,38.0,422.0
-239.0,9.0,72.0,-68.0,39.0,98.0,-928.0,39.0,416.0
-239.0,10.0,71.0,-80.0,29.0,86.0,-927.0,42.0,419.0
-240.0,11.0,71.0,-90.0,29.0,81.0,-914.0,39.0,420.0
-236.0,12.0,70.0,-104.0,33.0,77.0,-912.0,37.0,420.0
-234.0,8.0,73.0,-113.0,47.0,72.0,-915.0,40.0,421.0
-235.0,8.0,68.0,-123.0,65.0,65.0,-915.0,27.0,416.0
-238.0,9.0,69.0,-127.0,87.0,61.0,-921.0,27.0,410.0
-238.0,8.0,67.0,-130.0,108.0,56.0,-917.0,25.0,414.0
-237.0,5.0,69.0,-127.0,128.0,53.0,-919.0,21.0,407.0
-238.0,3.0,66.0,-121.0,145.0,49.0,-921.0,18.0,407.0
-240.0,2.0,67.0,-113.0,161.0,45.0,-922.0,11.0,400.0
-240.0,5.0,61.0,-104.0,175.0,41.0,-920.0,11.0,402.0
-244.0,1.0,66.0,-98.0,185.0,36.0,-925.0,5.0,400.0
-240.0,1.0,64.0,-90.0,186.0,37.0,-930.0,4.0,396.0
-244.0,2.0,67.0,-83.0,183.0,36.0,-946.0,4.0,388.0
-247.0,-1.0,59.0,-80.0,171.0,37.0,-956.0,4.0,391.0
-251.0,4.0,62.0,-82.0,157.0,38.0,-966.0,5.0,380.0
-251.0,5.0,62.0,-90.0,143.0,38.0,-972.0,12.0,378.0
-256.0,7.0,60.0,-101.0,131.0,41.0,-979.0,21.0,371.0
-253.0,10.0,57.0,-117.0,122.0,42.0,-980.0,35.0,368.0
-254.0,9.0,60.0,-136.0,116.0,43.0,-982.0,38.0,367.0
-251.0,8.0,59.0,-154.0,115.0,43.0,-976.0,38.0,366.0
-247.0,8.0,55.0,-171.0,114.0,42.0,-969.0,36.0,367.0
-246.0,20.0,64.0,-180.0,116.0,39.0,-968.0,33.0,366.0
-244.0,9.0,58.0,-182.0,121.0,37.0,-959.0,32.0,369.0
-243.0,8.0,56.0,-175.0,129.0,36.0,-944.0,37.0,370.0
-243.0,8.0,59.0,-160.0,136.0,38.0,-930.0,34.0,374.0
-236.0,7.0,59.0,-134.0,144.0,41.0,-922.0,29.0,378.0
-233.0,1.0,62.0,-104.0,157.0,44.0,-904.0,29.0,382.0
-227.0,5.0,61.0,-73.0,168.0,45.0,-879.0,21.0,388.0
-224.0,8.0,63.0,-38.0,184.0,44.0,-869.0,19.0,397.0
-217.0,6.0,62.0,2.0,202.0,43.0,-850.0,18.0,391.0
-215.0,8.0,65.0,45.0,226.0,36.0,-834.0,27.0,393.0
-211.0,8.0,64.0,86.0,253.0,25.0,-830.0,30.0,396.0
-212.0,13.0,54.0,120.0,284.0,11.0,-835.0,35.0,388.0
-217.0,13.0,65.0,131.0,319.0,-4.0,-833.0,40.0,394.0
-220.0,11.0,64.0,115.0,349.0,-15.0,-855.0,49.0,390.0
-221.0,8.0,62.0,88.0,368.0,-12.0,-868.0,36.0,396.0
-236.0,11.0,61.0,62.0,371.0,-14.0,-896.0,31.0,388.0
-237.0,8.0,60.0,38.0,360.0,-12.0,-907.0,24.0,383.0
-243.0,4.0,61.0,21.0,336.0,-15.0,-934.0,19.0,384.0
-245.0,4.0,62.0,5.0,306.0,-10.0,-946.0,17.0,378.0
-251.0,6.0,59.0,0.0,270.0,0.0,-958.0,11.0,370.0
-253.0,5.0,51.0,-8.0,237.0,7.0,-969.0,15.0,362.0
-254.0,4.0,56.0,-24.0,208.0,12.0,-978.0,15.0,361.0
-252.0,11.0,44.0,-46.0,183.0,15.0,-989.0,8.0,353.0
-264.0,6.0,55.0,-68.0,163.0,18.0,-1001.0,15.0,359.0
-262.0,6.0,55.0,-86.0,149.0,23.0,-1003.0,16.0,357.0
-261.0,4.0,50.0,-97.0,138.0,29.0,-1011.0,10.0,352.0
-264.0,0.0,48.0,-100.0,130.0,32.0,-1007.0,11.0,344.0
-258.0,4.0,42.0,-97.0,131.0,30.0,-1001.0,11.0,339.0
-260.0,5.0,50.0,-87.0,140.0,26.0,-1008.0,23.0,323.0
-256.0,8.0,42.0,-73.0,156.0,33.0,-997.0,26.0,319.0
-255.0,8.0,38.0,-63.0,179.0,37.0,-987.0,22.0,304.0
-248.0,8.0,43.0,-65.0,203.0,25.0,-984.0,19.0,306.0
-251.0,11.0,38.0,-67.0,226.0,17.0,-983.0,51.0,294.0
-255.0,3.0,49.0,-61.0,247.0,23.0,-962.0,39.0,291.0
-243.0,8.0,40.0,-61.0,263.0,32.0,-937.0,40.0,280.0
-238.0,8.0,34.0,-69.0,272.0,33.0,-920.0,25.0,277.0
-244.0,8.0,33.0,-89.0,281.0,19.0,-943.0,19.0,277.0
-241.0,9.0,32.0,-112.0,282.0,12.0,-935.0,24.0,279.0
-245.0,6.0,38.0,-126.0,272.0,20.0,-943.0,16.0,289.0
-246.0,0.0,39.0,-138.0,256.0,31.0,-955.0,1.0,290.0
-238.0,-6.0,35.0,-142.0,228.0,33.0,-915.0,-21.0,290.0
-253.0,0.0,42.0,-145.0,188.0,18.0,-971.0,-1.0,303.0
-250.0,-1.0,40.0,-136.0,151.0,11.0,-960.0,3.0,307.0
-255.0,0.0,37.0,-116.0,110.0,13.0,-972.0,1.0,300.0
-243.0,-1.0,35.0,-96.0,70.0,20.0,-974.0,-4.0,296.0
-251.0,0.0,33.0,-75.0,34.0,24.0,-975.0,1.0,285.0
-250.0,-3.0,35.0,-64.0,1.0,21.0,-967.0,-3.0,282.0
-262.0,3.0,35.0,-55.0,-24.0,11.0,-1013.0,16.0,288.0
-263.0,4.0,32.0,-41.0,-38.0,19.0,-1009.0,12.0,273.0
-260.0,5.0,34.0,-38.0,-47.0,21.0,-1001.0,11.0,278.0
-261.0,8.0,29.0,-38.0,-55.0,19.0,-995.0,21.0,258.0
-256.0,4.0,29.0,-30.0,-68.0,19.0,-985.0,13.0,255.0
-252.0,2.0,30.0,-32.0,-76.0,3.0,-975.0,13.0,267.0
-265.0,9.0,32.0,-30.0,-79.0,-8.0,-1037.0,27.0,259.0
-262.0,5.0,32.0,-21.0,-66.0,14.0,-1019.0,13.0,266.0
-263.0,-4.0,27.0,-15.0,-51.0,25.0,-1026.0,-12.0,253.0
-260.0,7.0,26.0,-30.0,-33.0,22.0,-1003.0,22.0,271.0
-257.0,7.0,30.0,-23.0,-35.0,26.0,-988.0,18.0,254.0
-258.0,6.0,34.0,-13.0,-36.0,26.0,-992.0,18.0,274.0
-257.0,9.0,34.0,-9.0,-35.0,25.0,-994.0,17.0,273.0
-258.0,7.0,35.0,-14.0,-33.0,24.0,-995.0,23.0,277.0
-263.0,5.0,33.0,-23.0,-33.0,25.0,-1004.0,10.0,275.0
-254.0,9.0,40.0,-49.0,-28.0,26.0,-988.0,24.0,304.0
-253.0,8.0,35.0,-47.0,-39.0,29.0,-983.0,29.0,281.0
-244.0,3.0,40.0,-46.0,-55.0,26.0,-944.0,15.0,294.0
-259.0,9.0,42.0,-51.0,-70.0,8.0,-995.0,29.0,297.0
-262.0,8.0,40.0,-51.0,-65.0,24.0,-1012.0,16.0,307.0
-262.0,6.0,42.0,-48.0,-63.0,36.0,-1001.0,18.0,303.0
-259.0,3.0,36.0,-47.0,-68.0,38.0,-999.0,15.0,301.0
-256.0,4.0,48.0,-62.0,-68.0,41.0,-982.0,17.0,324.0
-254.0,7.0,33.0,-59.0,-81.0,42.0,-974.0,29.0,301.0
-254.0,9.0,39.0,-45.0,-88.0,40.0,-975.0,26.0,309.0
-252.0,8.0,41.0,-38.0,-80.0,38.0,-976.0,25.0,304.0
-252.0,7.0,41.0,-38.0,-71.0,39.0,-971.0,25.0,304.0
-247.0,6.0,40.0,-43.0,-64.0,38.0,-969.0,26.0,308.0
-247.0,6.0,43.0,-45.0,-59.0,39.0,-965.0,31.0,313.0
-247.0,7.0,43.0,-49.0,-57.0,39.0,-962.0,25.0,309.0
-249.0,9.0,44.0,-51.0,-61.0,40.0,-961.0,30.0,316.0
-242.0,5.0,40.0,-50.0,-68.0,39.0,-921.0,23.0,311.0
-240.0,7.0,44.0,-49.0,-87.0,23.0,-921.0,23.0,318.0
-260.0,2.0,42.0,-49.0,-99.0,13.0,-1015.0,-9.0,302.0
-251.0,7.0,52.0,-69.0,-87.0,27.0,-971.0,26.0,343.0
-247.0,8.0,43.0,-43.0,-111.0,36.0,-955.0,23.0,315.0
-249.0,8.0,46.0,-15.0,-127.0,30.0,-960.0,26.0,332.0
-248.0,7.0,46.0,2.0,-134.0,26.0,-961.0,24.0,327.0
-245.0,6.0,45.0,11.0,-144.0,27.0,-946.0,27.0,325.0
-248.0,7.0,50.0,20.0,-147.0,27.0,-962.0,27.0,336.0
-250.0,9.0,46.0,23.0,-152.0,18.0,-965.0,22.0,347.0
-249.0,9.0,49.0,19.0,-161.0,13.0,-966.0,28.0,341.0
-249.0,9.0,54.0,15.0,-168.0,10.0,-961.0,28.0,344.0
-244.0,9.0,56.0,4.0,-178.0,6.0,-953.0,30.0,340.0
-245.0,6.0,53.0,-6.0,-188.0,0.0,-941.0,23.0,346.0
-254.0,8.0,54.0,-15.0,-191.0,-3.0,-981.0,33.0,348.0
-247.0,6.0,50.0,-19.0,-188.0,3.0,-971.0,20.0,332.0
-249.0,3.0,48.0,-17.0,-185.0,1.0,-980.0,14.0,336.0
-250.0,4.0,46.0,-13.0,-184.0,-2.0,-963.0,15.0,323.0
-250.0,4.0,44.0,-4.0,-185.0,-6.0,-966.0,16.0,325.0
-251.0,3.0,48.0,2.0,-185.0,-9.0,-965.0,16.0,323.0
-252.0,2.0,43.0,8.0,-187.0,-11.0,-966.0,5.0,320.0
-249.0,5.0,46.0,18.0,-188.0,-13.0,-968.0,14.0,332.0
-248.0,4.0,46.0,26.0,-188.0,-16.0,-965.0,15.0,331.0
-247.0,4.0,48.0,30.0,-189.0,-19.0,-968.0,14.0,339.0
-249.0,8.0,52.0,32.0,-189.0,-22.0,-958.0,21.0,344.0
-244.0,5.0,49.0,30.0,-187.0,-24.0,-962.0,23.0,340.0
-244.0,8.0,51.0,21.0,-186.0,-26.0,-957.0,29.0,354.0
-246.0,10.0,53.0,12.0,-187.0,-27.0,-952.0,38.0,356.0
-244.0,9.0,56.0,1.0,-186.0,-29.0,-947.0,36.0,361.0
-247.0,13.0,57.0,-9.0,-185.0,-31.0,-952.0,39.0,370.0
-241.0,9.0,61.0,-20.0,-189.0,-28.0,-938.0,37.0,375.0
-245.0,10.0,55.0,-29.0,-194.0,-33.0,-937.0,35.0,382.0
-243.0,10.0,60.0,-35.0,-197.0,-38.0,-936.0,36.0,384.0
-247.0,10.0,62.0,-45.0,-201.0,-41.0,-930.0,31.0,385.0
-241.0,8.0,60.0,-52.0,-207.0,-42.0,-933.0,37.0,382.0
-241.0,8.0,61.0,-57.0,-213.0,-44.0,-933.0,34.0,385.0
-242.0,9.0,60.0,-61.0,-218.0,-45.0,-934.0,33.0,382.0
-244.0,9.0,61.0,-63.0,-224.0,-45.0,-934.0,30.0,378.0
-242.0,9.0,58.0,-61.0,-229.0,-45.0,-944.0,32.0,376.0
-247.0,9.0,61.0,-58.0,-234.0,-46.0,-945.0,36.0,386.0
-246.0,9.0,62.0,-54.0,-240.0,-48.0,-936.0,34.0,377.0
-242.0,8.0,63.0,-48.0,-244.0,-50.0,-933.0,34.0,375.0
-245.0,8.0,61.0,-43.0,-247.0,-51.0,-957.0,29.0,378.0
-243.0,8.0,60.0,-37.0,-251.0,-52.0,-942.0,37.0,379.0
-243.0,8.0,61.0,-29.0,-253.0,-57.0,-931.0,34.0,381.0
-242.0,8.0,63.0,-20.0,-253.0,-58.0,-943.0,32.0,383.0
-243.0,7.0,62.0,-12.0,-254.0,-60.0,-935.0,34.0,378.0
-245.0,8.0,62.0,-3.0,-253.0,-61.0,-938.0,29.0,377.0
-241.0,8.0,59.0,5.0,-252.0,-61.0,-933.0,33.0,378.0
-247.0,5.0,60.0,14.0,-250.0,-57.0,-946.0,22.0,373.0
-242.0,8.0,61.0,18.0,-248.0,-48.0,-925.0,30.0,384.0
-240.0,9.0,62.0,27.0,-244.0,-50.0,-923.0,31.0,376.0
-240.0,8.0,56.0,33.0,-240.0,-50.0,-927.0,26.0,372.0
-240.0,7.0,63.0,36.0,-236.0,-45.0,-926.0,29.0,371.0
-244.0,8.0,63.0,36.0,-232.0,-44.0,-928.0,29.0,380.0
-243.0,9.0,61.0,35.0,-228.0,-41.0,-952.0,30.0,373.0
-241.0,8.0,63.0,27.0,-225.0,-34.0,-925.0,28.0,386.0
-237.0,8.0,59.0,23.0,-221.0,-31.0,-909.0,35.0,382.0
-237.0,8.0,65.0,19.0,-215.0,-37.0,-904.0,29.0,387.0
-235.0,8.0,62.0,9.0,-209.0,-35.0,-905.0,31.0,392.0
-237.0,8.0,64.0,-2.0,-203.0,-34.0,-901.0,32.0,393.0
-231.0,8.0,66.0,-16.0,-197.0,-35.0,-900.0,29.0,404.0
-237.0,8.0,67.0,-31.0,-192.0,-35.0,-902.0,29.0,407.0
-234.0,8.0,65.0,-45.0,-192.0,-32.0,-900.0,30.0,410.0
-237.0,5.0,72.0,-62.0,-194.0,-32.0,-906.0,28.0,419.0
-234.0,9.0,69.0,-75.0,-198.0,-28.0,-906.0,28.0,423.0
-236.0,8.0,71.0,-87.0,-203.0,-26.0,-907.0,18.0,429.0
-236.0,8.0,73.0,-98.0,-211.0,-25.0,-911.0,20.0,431.0
-236.0,7.0,74.0,-107.0,-220.0,-23.0,-910.0,21.0,439.0
-238.0,4.0,72.0,-111.0,-225.0,-21.0,-911.0,20.0,439.0
-238.0,8.0,72.0,-112.0,-232.0,-20.0,-911.0,15.0,436.0
-237.0,2.0,72.0,-108.0,-233.0,-19.0,-911.0,11.0,435.0
-239.0,6.0,72.0,-105.0,-236.0,-18.0,-918.0,8.0,434.0
-237.0,2.0,73.0,-97.0,-237.0,-18.0,-917.0,8.0,433.0
-242.0,-3.0,72.0,-92.0,-235.0,-19.0,-927.0,3.0,419.0
-233.0,-4.0,74.0,-84.0,-233.0,-15.0,-912.0,-1.0,434.0
-238.0,2.0,70.0,-72.0,-227.0,-21.0,-914.0,7.0,428.0
-235.0,0.0,73.0,-61.0,-220.0,-23.0,-912.0,5.0,426.0
-237.0,4.0,72.0,-55.0,-214.0,-22.0,-909.0,7.0,431.0
-235.0,3.0,73.0,-54.0,-207.0,-24.0,-907.0,8.0,430.0
-238.0,6.0,73.0,-56.0,-198.0,-23.0,-910.0,10.0,432.0
-239.0,8.0,75.0,-58.0,-188.0,-22.0,-907.0,13.0,430.0
-234.0,5.0,72.0,-64.0,-180.0,-23.0,-906.0,17.0,435.0
-234.0,8.0,74.0,-75.0,-171.0,-22.0,-908.0,18.0,438.0
-232.0,5.0,72.0,-84.0,-165.0,-21.0,-900.0,21.0,437.0
-237.0,8.0,74.0,-93.0,-165.0,-21.0,-900.0,21.0,438.0
-236.0,6.0,73.0,-103.0,-165.0,-20.0,-896.0,19.0,437.0
-236.0,7.0,74.0,-114.0,-168.0,-19.0,-912.0,14.0,435.0
-232.0,5.0,72.0,-125.0,-170.0,-13.0,-891.0,16.0,442.0
-231.0,6.0,75.0,-134.0,-171.0,-15.0,-889.0,14.0,439.0
-231.0,8.0,76.0,-139.0,-170.0,-14.0,-886.0,12.0,438.0
-232.0,3.0,74.0,-145.0,-170.0,-12.0,-889.0,10.0,439.0
-232.0,6.0,75.0,-151.0,-168.0,-11.0,-890.0,8.0,442.0
-230.0,2.0,74.0,-154.0,-162.0,-10.0,-889.0,6.0,445.0
-232.0,2.0,78.0,-157.0,-157.0,-6.0,-886.0,1.0,446.0
-227.0,1.0,77.0,-159.0,-154.0,-3.0,-893.0,0.0,453.0
-232.0,1.0,77.0,-160.0,-149.0,-4.0,-890.0,3.0,457.0
-230.0,1.0,79.0,-162.0,-144.0,0.0,-889.0,2.0,456.0
-229.0,2.0,79.0,-161.0,-139.0,1.0,-884.0,3.0,460.0
-229.0,3.0,79.0,-161.0,-131.0,-1.0,-884.0,1.0,469.0
-229.0,3.0,82.0,-158.0,-126.0,-1.0,-884.0,7.0,471.0
-229.0,6.0,79.0,-156.0,-121.0,-2.0,-883.0,5.0,475.0
-231.0,3.0,85.0,-156.0,-117.0,-1.0,-886.0,5.0,463.0
-230.0,6.0,83.0,-156.0,-109.0,-3.0,-882.0,8.0,465.0
-231.0,4.0,83.0,-157.0,-103.0,-2.0,-883.0,11.0,473.0
-229.0,3.0,82.0,-157.0,-97.0,-1.0,-879.0,4.0,475.0
-230.0,4.0,81.0,-155.0,-90.0,-2.0,-878.0,5.0,478.0
-232.0,2.0,81.0,-150.0,-84.0,-2.0,-885.0,3.0,468.0
-229.0,2.0,77.0,-145.0,-80.0,-1.0,-879.0,7.0,469.0
-232.0,0.0,83.0,-137.0,-78.0,-1.0,-880.0,9.0,469.0
-227.0,0.0,81.0,-125.0,-77.0,0.0,-884.0,5.0,467.0
-230.0,3.0,81.0,-116.0,-76.0,-1.0,-885.0,1.0,464.0
-229.0,-1.0,76.0,-105.0,-76.0,-2.0,-884.0,5.0,464.0
-227.0,0.0,83.0,-95.0,-78.0,-2.0,-879.0,6.0,470.0
-230.0,1.0,78.0,-86.0,-79.0,-2.0,-879.0,4.0,470.0
-229.0,1.0,80.0,-79.0,-81.0,-1.0,-879.0,10.0,460.0
-232.0,5.0,78.0,-74.0,-81.0,-1.0,-883.0,6.0,465.0
-232.0,3.0,79.0,-68.0,-80.0,-2.0,-887.0,12.0,472.0
-231.0,3.0,85.0,-66.0,-80.0,-1.0,-883.0,10.0,472.0
-229.0,1.0,77.0,-66.0,-78.0,-1.0,-883.0,11.0,473.0
-229.0,7.0,83.0,-65.0,-76.0,-2.0,-884.0,11.0,476.0
-228.0,5.0,81.0,-64.0,-73.0,-4.0,-880.0,14.0,481.0
-226.0,0.0,82.0,-65.0,-66.0,-5.0,-879.0,11.0,485.0
-229.0,2.0,84.0,-67.0,-61.0,-7.0,-881.0,14.0,484.0
-231.0,4.0,81.0,-74.0,-57.0,-9.0,-879.0,13.0,485.0
-233.0,7.0,82.0,-81.0,-54.0,-12.0,-880.0,9.0,487.0
-229.0,5.0,87.0,-89.0,-51.0,-15.0,-880.0,14.0,488.0
-228.0,7.0,87.0,-100.0,-49.0,-20.0,-879.0,15.0,489.0
-226.0,3.0,84.0,-108.0,-43.0,-21.0,-882.0,16.0,485.0
-225.0,7.0,86.0,-115.0,-35.0,-24.0,-876.0,12.0,483.0
-227.0,4.0,81.0,-123.0,-26.0,-25.0,-872.0,14.0,482.0
-227.0,4.0,86.0,-130.0,-18.0,-25.0,-878.0,17.0,486.0
-229.0,4.0,83.0,-136.0,-12.0,-24.0,-876.0,15.0,485.0
-228.0,7.0,83.0,-143.0,-7.0,-25.0,-875.0,17.0,484.0
-227.0,4.0,84.0,-150.0,-1.0,-23.0,-876.0,16.0,479.0
-225.0,3.0,85.0,-156.0,3.0,-23.0,-875.0,20.0,482.0
-228.0,4.0,82.0,-158.0,5.0,-23.0,-872.0,15.0,481.0
-229.0,4.0,85.0,-157.0,5.0,-20.0,-871.0,12.0,485.0
-226.0,1.0,85.0,-150.0,5.0,-20.0,-878.0,6.0,480.0
-226.0,4.0,84.0,-142.0,4.0,-19.0,-874.0,9.0,476.0
-225.0,2.0,84.0,-130.0,2.0,-19.0,-875.0,7.0,476.0
-225.0,2.0,81.0,-117.0,2.0,-18.0,-871.0,6.0,471.0
-227.0,0.0,83.0,-104.0,3.0,-19.0,-874.0,4.0,465.0
-228.0,0.0,82.0,-93.0,3.0,-19.0,-874.0,5.0,473.0
-228.0,4.0,78.0,-82.0,4.0,-22.0,-870.0,11.0,474.0
-227.0,5.0,80.0,-66.0,4.0,-26.0,-874.0,17.0,472.0
-231.0,7.0,81.0,-53.0,1.0,-30.0,-883.0,6.0,467.0
-229.0,5.0,83.0,-53.0,4.0,-35.0,-888.0,8.0,470.0
-230.0,1.0,82.0,-62.0,6.0,-40.0,-890.0,4.0,478.0
-229.0,-1.0,81.0,-76.0,11.0,-39.0,-888.0,-3.0,478.0
-226.0,-5.0,83.0,-88.0,15.0,-36.0,-886.0,-14.0,474.0
-231.0,-7.0,86.0,-92.0,20.0,-30.0,-884.0,-19.0,478.0
-228.0,-8.0,80.0,-89.0,24.0,-22.0,-880.0,-27.0,480.0
-230.0,-8.0,81.0,-77.0,26.0,-16.0,-880.0,-30.0,470.0
-230.0,-7.0,79.0,-61.0,29.0,-12.0,-882.0,-21.0,465.0
-231.0,-6.0,81.0,-44.0,30.0,-10.0,-887.0,-18.0,461.0
-233.0,-4.0,79.0,-28.0,31.0,-10.0,-893.0,-9.0,458.0
-232.0,-1.0,77.0,-17.0,30.0,-9.0,-890.0,-2.0,459.0
-234.0,2.0,80.0,-9.0,28.0,-9.0,-890.0,-1.0,463.0
-234.0,3.0,74.0,-6.0,30.0,-9.0,-889.0,5.0,464.0
-229.0,2.0,77.0,-8.0,32.0,-11.0,-893.0,4.0,459.0
-229.0,6.0,81.0,-21.0,34.0,-10.0,-888.0,11.0,462.0
-229.0,4.0,78.0,-36.0,38.0,-10.0,-885.0,10.0,463.0
-226.0,0.0,77.0,-54.0,42.0,-11.0,-882.0,9.0,464.0
-226.0,4.0,82.0,-71.0,45.0,-11.0,-879.0,8.0,477.0
-230.0,3.0,80.0,-87.0,50.0,-12.0,-876.0,8.0,471.0
-230.0,1.0,81.0,-99.0,57.0,-10.0,-881.0,5.0,471.0
-226.0,1.0,81.0,-108.0,62.0,-10.0,-885.0,1.0,477.0
-229.0,1.0,79.0,-114.0,64.0,-5.0,-877.0,-4.0,476.0
-227.0,-5.0,82.0,-117.0,64.0,-3.0,-877.0,-2.0,475.0
-229.0,-1.0,84.0,-118.0,64.0,-1.0,-876.0,1.0,467.0
-230.0,3.0,83.0,-123.0,61.0,1.0,-878.0,-2.0,468.0
-229.0,2.0,80.0,-123.0,58.0,3.0,-879.0,0.0,470.0
-231.0,2.0,81.0,-124.0,57.0,4.0,-886.0,0.0,468.0
-229.0,-2.0,81.0,-127.0,56.0,5.0,-882.0,0.0,462.0
-227.0,-1.0,79.0,-126.0,55.0,8.0,-884.0,-6.0,465.0
-231.0,-2.0,80.0,-126.0,53.0,10.0,-886.0,0.0,465.0
-230.0,1.0,76.0,-125.0,51.0,12.0,-884.0,-9.0,467.0
-232.0,-2.0,81.0,-122.0,53.0,12.0,-885.0,-12.0,468.0
-226.0,-4.0,78.0,-113.0,54.0,13.0,-883.0,-8.0,465.0
-231.0,-2.0,81.0,-107.0,56.0,12.0,-885.0,-6.0,468.0
-232.0,-4.0,79.0,-96.0,58.0,11.0,-889.0,-7.0,468.0
-233.0,-5.0,79.0,-87.0,60.0,12.0,-884.0,-7.0,468.0
-229.0,-2.0,79.0,-77.0,61.0,12.0,-886.0,-9.0,464.0
-231.0,1.0,78.0,-67.0,62.0,11.0,-890.0,-7.0,463.0
-232.0,-4.0,77.0,-60.0,66.0,12.0,-890.0,-5.0,461.0
-233.0,0.0,75.0,-53.0,69.0,10.0,-887.0,0.0,461.0
-235.0,-3.0,76.0,-51.0,73.0,8.0,-896.0,-4.0,456.0
-234.0,1.0,80.0,-47.0,75.0,6.0,-898.0,-7.0,460.0
-234.0,2.0,81.0,-48.0,74.0,5.0,-888.0,0.0,452.0
-234.0,0.0,75.0,-48.0,74.0,3.0,-897.0,-3.0,458.0
-234.0,-1.0,76.0,-50.0,74.0,2.0,-898.0,-3.0,454.0
-232.0,1.0,76.0,-53.0,72.0,0.0,-901.0,4.0,456.0
-236.0,3.0,79.0,-56.0,70.0,-1.0,-902.0,7.0,457.0
-235.0,3.0,73.0,-61.0,68.0,-1.0,-901.0,8.0,451.0
-234.0,1.0,74.0,-66.0,66.0,-2.0,-903.0,5.0,446.0
-231.0,4.0,76.0,-72.0,62.0,-2.0,-904.0,9.0,446.0
-231.0,1.0,74.0,-76.0,60.0,-4.0,-904.0,2.0,445.0
-232.0,5.0,72.0,-83.0,59.0,-4.0,-901.0,11.0,446.0
-233.0,0.0,78.0,-88.0,56.0,-4.0,-904.0,5.0,447.0
-234.0,-2.0,76.0,-93.0,50.0,-3.0,-903.0,3.0,446.0
-235.0,2.0,77.0,-96.0,49.0,-3.0,-898.0,-1.0,442.0
-233.0,2.0,77.0,-100.0,47.0,-1.0,-900.0,2.0,443.0
-235.0,0.0,75.0,-99.0,43.0,-1.0,-899.0,1.0,446.0
-235.0,2.0,80.0,-97.0,41.0,1.0,-898.0,2.0,448.0
-232.0,0.0,75.0,-94.0,38.0,3.0,-903.0,-8.0,452.0
-232.0,-2.0,77.0,-90.0,37.0,3.0,-901.0,-4.0,445.0
-232.0,-2.0,74.0,-85.0,36.0,3.0,-899.0,1.0,448.0
-234.0,-4.0,80.0,-80.0,35.0,3.0,-898.0,-6.0,447.0
-236.0,-2.0,73.0,-75.0,35.0,2.0,-898.0,-5.0,449.0
-234.0,-1.0,74.0,-70.0,38.0,3.0,-901.0,-10.0,447.0
-237.0,-2.0,73.0,-66.0,40.0,3.0,-901.0,-11.0,445.0
-233.0,-6.0,77.0,-62.0,42.0,4.0,-901.0,-5.0,448.0
-235.0,-1.0,77.0,-61.0,44.0,4.0,-900.0,-7.0,452.0
-234.0,-3.0,74.0,-59.0,46.0,6.0,-905.0,-6.0,448.0
-233.0,-3.0,79.0,-58.0,48.0,6.0,-898.0,-7.0,452.0
-234.0,2.0,89.0,-57.0,50.0,5.0,-894.0,-8.0,451.0
-233.0,-2.0,78.0,-54.0,51.0,5.0,-894.0,-9.0,449.0
-231.0,-2.0,77.0,-54.0,54.0,5.0,-898.0,-7.0,454.0
-232.0,-2.0,78.0,-55.0,55.0,4.0,-894.0,-12.0,457.0
-230.0,-4.0,77.0,-54.0,57.0,2.0,-888.0,-9.0,458.0
-231.0,-5.0,76.0,-57.0,58.0,5.0,-892.0,-8.0,462.0
-236.0,0.0,76.0,-61.0,57.0,4.0,-895.0,-7.0,456.0
-233.0,-1.0,78.0,-65.0,54.0,5.0,-890.0,-3.0,458.0
-233.0,-1.0,79.0,-66.0,50.0,4.0,-894.0,-6.0,450.0
-235.0,0.0,79.0,-70.0,44.0,5.0,-897.0,-7.0,457.0
-233.0,-3.0,77.0,-72.0,36.0,5.0,-894.0,-7.0,459.0
-228.0,-9.0,81.0,-74.0,30.0,4.0,-894.0,-10.0,449.0
-232.0,-1.0,76.0,-76.0,25.0,3.0,-900.0,-7.0,453.0
-235.0,-1.0,77.0,-77.0,24.0,0.0,-898.0,-9.0,447.0
-233.0,-3.0,75.0,-81.0,22.0,0.0,-896.0,-7.0,449.0
-230.0,0.0,75.0,-83.0,24.0,0.0,-899.0,-5.0,452.0
-231.0,-2.0,77.0,-83.0,26.0,-2.0,-899.0,-4.0,448.0
-236.0,5.0,74.0,-87.0,27.0,-1.0,-899.0,-2.0,448.0
-231.0,1.0,75.0,-89.0,28.0,0.0,-900.0,0.0,446.0
-233.0,2.0,78.0,-91.0,30.0,1.0,-901.0,-6.0,449.0
-235.0,-1.0,73.0,-90.0,30.0,2.0,-906.0,-1.0,446.0
-231.0,-1.0,75.0,-88.0,29.0,2.0,-903.0,-1.0,442.0
-231.0,-11.0,74.0,-84.0,29.0,3.0,-905.0,-2.0,443.0
-235.0,-2.0,73.0,-81.0,29.0,5.0,-901.0,-3.0,444.0
-233.0,1.0,76.0,-79.0,27.0,5.0,-907.0,-1.0,442.0
-235.0,-2.0,75.0,-77.0,27.0,8.0,-898.0,-4.0,440.0
-234.0,-3.0,72.0,-74.0,27.0,8.0,-905.0,-8.0,446.0
-232.0,0.0,75.0,-69.0,26.0,7.0,-905.0,-2.0,441.0
-235.0,0.0,75.0,-65.0,27.0,5.0,-905.0,-2.0,439.0
-234.0,0.0,72.0,-61.0,27.0,4.0,-904.0,-4.0,445.0
-236.0,0.0,72.0,-61.0,26.0,1.0,-898.0,-2.0,446.0
-236.0,0.0,77.0,-59.0,27.0,0.0,-901.0,-8.0,444.0
-236.0,-1.0,79.0,-62.0,29.0,-3.0,-901.0,-5.0,448.0
-238.0,-11.0,76.0,-65.0,30.0,-7.0,-907.0,-6.0,453.0
-234.0,-3.0,76.0,-67.0,30.0,-12.0,-904.0,-5.0,452.0
-234.0,-5.0,83.0,-71.0,30.0,-12.0,-903.0,-4.0,452.0
-235.0,-2.0,75.0,-74.0,30.0,-15.0,-905.0,-3.0,448.0
-232.0,0.0,79.0,-76.0,31.0,-17.0,-899.0,-4.0,452.0
-235.0,2.0,77.0,-79.0,31.0,-18.0,-902.0,-5.0,449.0
-233.0,-4.0,76.0,-80.0,32.0,-19.0,-892.0,-13.0,445.0
-234.0,1.0,77.0,-83.0,31.0,-24.0,-903.0,2.0,461.0
-233.0,-5.0,74.0,-80.0,28.0,-22.0,-899.0,-6.0,447.0
-231.0,-1.0,76.0,-78.0,23.0,-13.0,-892.0,-8.0,442.0
-232.0,1.0,75.0,-80.0,19.0,-10.0,-890.0,-6.0,441.0
-239.0,-11.0,79.0,-80.0,14.0,-11.0,-898.0,-6.0,441.0
-231.0,-1.0,71.0,-80.0,10.0,-7.0,-894.0,-2.0,441.0
-231.0,-3.0,76.0,-81.0,6.0,-7.0,-899.0,2.0,444.0
-234.0,0.0,76.0,-80.0,2.0,-6.0,-896.0,2.0,440.0
-233.0,2.0,75.0,-81.0,0.0,-3.0,-898.0,12.0,446.0
-234.0,2.0,75.0,-85.0,0.0,-2.0,-902.0,5.0,443.0
-235.0,0.0,74.0,-91.0,0.0,-2.0,-897.0,4.0,446.0
-231.0,1.0,76.0,-98.0,2.0,-2.0,-898.0,6.0,448.0
-235.0,1.0,76.0,-103.0,4.0,0.0,-897.0,1.0,441.0
-231.0,0.0,75.0,-106.0,4.0,-1.0,-900.0,1.0,446.0
-234.0,3.0,74.0,-102.0,5.0,0.0,-901.0,-7.0,446.0
-233.0,-2.0,76.0,-93.0,6.0,2.0,-903.0,-9.0,449.0
-234.0,-4.0,73.0,-82.0,7.0,1.0,-902.0,-15.0,442.0
-237.0,-3.0,72.0,-67.0,6.0,0.0,-902.0,-14.0,435.0
-235.0,-4.0,73.0,-51.0,8.0,-1.0,-902.0,-11.0,439.0
-233.0,-4.0,75.0,-38.0,8.0,-1.0,-903.0,-15.0,438.0
-235.0,-3.0,74.0,-28.0,8.0,-4.0,-901.0,-11.0,436.0
-236.0,-3.0,76.0,-24.0,8.0,-5.0,-896.0,-16.0,436.0
-234.0,-6.0,72.0,-24.0,8.0,-7.0,-894.0,-17.0,439.0
-233.0,-2.0,73.0,-27.0,11.0,-6.0,-901.0,-7.0,438.0
-234.0,-3.0,74.0,-35.0,13.0,-6.0,-902.0,-12.0,447.0
-231.0,-4.0,79.0,-39.0,14.0,-6.0,-901.0,-8.0,460.0
-232.0,-4.0,79.0,-45.0,18.0,-6.0,-899.0,-12.0,464.0
-231.0,-2.0,81.0,-45.0,21.0,-5.0,-894.0,-16.0,462.0
-235.0,-5.0,80.0,-45.0,22.0,-3.0,-899.0,-15.0,456.0
-235.0,-6.0,77.0,-39.0,24.0,-2.0,-895.0,-15.0,452.0
-235.0,0.0,75.0,-32.0,23.0,-2.0,-896.0,-15.0,439.0
-233.0,-4.0,75.0,-26.0,20.0,-2.0,-896.0,-14.0,441.0
-233.0,-1.0,75.0,-23.0,15.0,-3.0,-894.0,-11.0,443.0
-232.0,-4.0,77.0,-21.0,10.0,-3.0,-894.0,-7.0,444.0
-234.0,-3.0,76.0,-20.0,6.0,-5.0,-898.0,-16.0,441.0
-231.0,-1.0,71.0,-22.0,4.0,-2.0,-894.0,-11.0,442.0
-232.0,-1.0,77.0,-26.0,4.0,-2.0,-887.0,-11.0,445.0
-230.0,1.0,74.0,-31.0,8.0,-2.0,-889.0,-6.0,446.0
-229.0,-3.0,78.0,-38.0,11.0,-1.0,-890.0,-6.0,448.0
-231.0,2.0,75.0,-48.0,11.0,-2.0,-887.0,-4.0,450.0
-235.0,1.0,75.0,-55.0,13.0,-2.0,-889.0,-3.0,450.0
-238.0,-1.0,76.0,-61.0,15.0,-2.0,-893.0,-2.0,460.0
-232.0,0.0,76.0,-64.0,14.0,-1.0,-895.0,-7.0,456.0
-234.0,-2.0,76.0,-63.0,14.0,-2.0,-898.0,-4.0,462.0
-231.0,-3.0,76.0,-60.0,13.0,2.0,-898.0,-9.0,451.0
-233.0,-4.0,75.0,-56.0,11.0,0.0,-901.0,-7.0,458.0
-233.0,0.0,79.0,-53.0,6.0,1.0,-899.0,-4.0,449.0
-236.0,-4.0,77.0,-51.0,3.0,2.0,-904.0,-7.0,450.0
-235.0,-2.0,74.0,-48.0,0.0,2.0,-902.0,-7.0,454.0
-235.0,1.0,75.0,-45.0,-2.0,1.0,-896.0,-1.0,447.0
-235.0,-1.0,75.0,-44.0,-2.0,1.0,-901.0,-7.0,446.0
-233.0,-1.0,73.0,-45.0,0.0,-1.0,-902.0,-3.0,443.0
-234.0,-1.0,77.0,-45.0,1.0,-1.0,-894.0,-5.0,450.0
-237.0,0.0,74.0,-41.0,5.0,-1.0,-899.0,-6.0,446.0
-233.0,-2.0,77.0,-39.0,8.0,-4.0,-901.0,-5.0,451.0
-233.0,-3.0,75.0,-36.0,12.0,-6.0,-894.0,-3.0,447.0
-232.0,-3.0,76.0,-34.0,15.0,-6.0,-900.0,-5.0,449.0
-232.0,-1.0,74.0,-32.0,18.0,-6.0,-899.0,-7.0,445.0
-233.0,-1.0,75.0,-26.0,19.0,-7.0,-898.0,-2.0,448.0
-234.0,-1.0,77.0,-25.0,19.0,-8.0,-897.0,-2.0,454.0
-232.0,-1.0,75.0,-24.0,19.0,-6.0,-894.0,-1.0,447.0
-231.0,-3.0,76.0,-25.0,20.0,-7.0,-890.0,1.0,453.0
-234.0,-1.0,78.0,-30.0,19.0,-7.0,-889.0,-3.0,446.0
-232.0,-1.0,73.0,-31.0,20.0,-5.0,-891.0,-3.0,449.0
-231.0,-2.0,77.0,-33.0,19.0,-6.0,-887.0,-4.0,449.0
-232.0,1.0,81.0,-38.0,17.0,-7.0,-895.0,1.0,449.0
-232.0,0.0,80.0,-39.0,16.0,-6.0,-885.0,-6.0,450.0
-233.0,-4.0,75.0,-39.0,14.0,-6.0,-887.0,-2.0,446.0
-233.0,-1.0,77.0,-38.0,11.0,-6.0,-893.0,-3.0,455.0
-234.0,1.0,75.0,-35.0,8.0,-6.0,-897.0,-10.0,446.0
-231.0,-1.0,77.0,-33.0,6.0,-4.0,-891.0,-7.0,449.0
-233.0,0.0,75.0,-32.0,5.0,-6.0,-896.0,-4.0,446.0
-233.0,3.0,73.0,-32.0,5.0,-4.0,-893.0,-6.0,443.0
-234.0,0.0,74.0,-33.0,3.0,-5.0,-892.0,-5.0,447.0
-231.0,-2.0,78.0,-36.0,4.0,-3.0,-892.0,-5.0,446.0
-235.0,-1.0,78.0,-37.0,4.0,-3.0,-891.0,-1.0,443.0
-233.0,-1.0,75.0,-39.0,4.0,-2.0,-900.0,3.0,452.0
-230.0,-1.0,78.0,-41.0,5.0,-3.0,-897.0,-2.0,446.0
-233.0,1.0,76.0,-44.0,6.0,-1.0,-899.0,-3.0,452.0
-231.0,-2.0,74.0,-43.0,6.0,-1.0,-899.0,-2.0,451.0
-237.0,-1.0,79.0,-44.0,8.0,0.0,-904.0,-8.0,444.0
-235.0,-1.0,77.0,-44.0,9.0,1.0,-895.0,-9.0,450.0
-234.0,-4.0,77.0,-41.0,10.0,0.0,-901.0,-12.0,448.0
-232.0,-6.0,76.0,-37.0,12.0,-1.0,-901.0,-8.0,449.0
-232.0,-5.0,73.0,-31.0,14.0,0.0,-900.0,-12.0,445.0
-234.0,-4.0,74.0,-25.0,16.0,-1.0,-899.0,-14.0,447.0
-235.0,-4.0,76.0,-20.0,18.0,-2.0,-898.0,-15.0,442.0
-233.0,-4.0,79.0,-16.0,19.0,-1.0,-897.0,-10.0,447.0
-234.0,-4.0,74.0,-12.0,20.0,-2.0,-896.0,-7.0,446.0
-233.0,-1.0,73.0,-10.0,20.0,-3.0,-899.0,-5.0,446.0
-232.0,-1.0,77.0,-8.0,21.0,-3.0,-889.0,-1.0,447.0
-236.0,4.0,74.0,-9.0,23.0,-4.0,-894.0,-4.0,445.0
-233.0,-1.0,85.0,-13.0,25.0,-3.0,-894.0,0.0,446.0
-230.0,-3.0,73.0,-16.0,27.0,-1.0,-890.0,-1.0,444.0
-234.0,-2.0,74.0,-21.0,28.0,0.0,-894.0,4.0,447.0
-233.0,1.0,78.0,-26.0,27.0,-2.0,-890.0,-1.0,446.0
-232.0,-1.0,75.0,-30.0,27.0,-1.0,-898.0,-11.0,449.0
-233.0,-2.0,74.0,-35.0,24.0,0.0,-895.0,-4.0,445.0
-228.0,-5.0,73.0,-35.0,21.0,0.0,-891.0,-7.0,450.0
-235.0,0.0,76.0,-36.0,17.0,1.0,-899.0,-12.0,450.0
-232.0,-2.0,78.0,-34.0,14.0,2.0,-897.0,-7.0,454.0
-232.0,-1.0,78.0,-30.0,12.0,2.0,-892.0,-11.0,448.0
-229.0,-3.0,74.0,-28.0,10.0,3.0,-895.0,-5.0,447.0
-228.0,-3.0,78.0,-29.0,11.0,4.0,-891.0,-1.0,452.0
-235.0,2.0,80.0,-34.0,15.0,4.0,-899.0,-2.0,459.0
-234.0,0.0,78.0,-42.0,19.0,4.0,-892.0,4.0,458.0
-234.0,3.0,79.0,-53.0,25.0,4.0,-898.0,4.0,465.0
-234.0,2.0,81.0,-68.0,32.0,4.0,-900.0,3.0,467.0
-233.0,1.0,78.0,-84.0,40.0,4.0,-889.0,0.0,468.0
-231.0,-1.0,82.0,-95.0,47.0,4.0,-894.0,0.0,468.0
-233.0,0.0,81.0,-106.0,54.0,5.0,-894.0,0.0,465.0
-234.0,-1.0,81.0,-113.0,56.0,5.0,-901.0,-3.0,466.0
-229.0,-3.0,79.0,-114.0,58.0,6.0,-895.0,-7.0,462.0
-232.0,-5.0,79.0,-108.0,58.0,7.0,-893.0,-6.0,457.0
-231.0,-5.0,76.0,-96.0,55.0,8.0,-899.0,-6.0,451.0
-236.0,-5.0,74.0,-77.0,51.0,7.0,-890.0,-15.0,454.0
-236.0,-1.0,72.0,-57.0,46.0,8.0,-894.0,-10.0,445.0
-231.0,-3.0,73.0,-39.0,41.0,7.0,-894.0,-11.0,439.0
-231.0,-4.0,71.0,-22.0,35.0,4.0,-902.0,-8.0,432.0
-234.0,0.0,71.0,-10.0,31.0,2.0,-903.0,-6.0,431.0
-237.0,-1.0,73.0,1.0,28.0,0.0,-894.0,0.0,425.0
-238.0,-1.0,71.0,5.0,25.0,-2.0,-899.0,-2.0,429.0
-236.0,0.0,72.0,9.0,23.0,-3.0,-903.0,-1.0,431.0
-235.0,-1.0,72.0,8.0,20.0,-5.0,-904.0,2.0,429.0
-236.0,-1.0,73.0,9.0,19.0,-6.0,-905.0,-4.0,437.0
-235.0,-1.0,73.0,10.0,17.0,-6.0,-908.0,-4.0,440.0
-235.0,-1.0,73.0,8.0,16.0,-8.0,-902.0,-3.0,440.0
-237.0,-1.0,75.0,8.0,16.0,-7.0,-902.0,3.0,443.0
-232.0,-2.0,75.0,6.0,14.0,-8.0,-906.0,-9.0,446.0
-235.0,-1.0,72.0,4.0,15.0,-8.0,-903.0,-4.0,446.0
-233.0,2.0,74.0,2.0,18.0,-8.0,-902.0,-3.0,443.0
-233.0,0.0,73.0,0.0,20.0,-9.0,-901.0,2.0,447.0
-234.0,-2.0,73.0,-6.0,21.0,-8.0,-897.0,1.0,446.0
-233.0,-1.0,73.0,-11.0,25.0,-8.0,-901.0,-1.0,447.0
-233.0,0.0,74.0,-21.0,29.0,-7.0,-893.0,-5.0,448.0
-237.0,3.0,75.0,-32.0,31.0,-7.0,-901.0,1.0,447.0
-235.0,0.0,77.0,-45.0,31.0,-6.0,-891.0,1.0,455.0
-234.0,-1.0,81.0,-54.0,31.0,-5.0,-895.0,1.0,450.0
-232.0,-3.0,77.0,-62.0,30.0,-5.0,-898.0,-6.0,453.0
-236.0,-2.0,78.0,-66.0,28.0,-4.0,-900.0,-6.0,456.0
-233.0,-1.0,76.0,-66.0,25.0,-3.0,-899.0,-2.0,453.0
-234.0,0.0,75.0,-59.0,22.0,-4.0,-904.0,0.0,445.0
-234.0,0.0,76.0,-52.0,19.0,-4.0,-897.0,3.0,449.0
-235.0,0.0,79.0,-47.0,17.0,-5.0,-898.0,5.0,440.0
-233.0,2.0,75.0,-45.0,16.0,-6.0,-899.0,4.0,446.0
-234.0,-1.0,73.0,-45.0,16.0,-5.0,-893.0,-1.0,439.0
-233.0,0.0,74.0,-46.0,16.0,-4.0,-899.0,-1.0,443.0
-235.0,3.0,75.0,-44.0,15.0,-4.0,-901.0,4.0,448.0
-234.0,-1.0,77.0,-39.0,14.0,-7.0,-902.0,3.0,443.0
-232.0,2.0,74.0,-32.0,14.0,-6.0,-904.0,-4.0,443.0
-236.0,1.0,73.0,-20.0,12.0,-6.0,-897.0,-3.0,439.0
-235.0,-2.0,73.0,-10.0,13.0,-7.0,-906.0,-4.0,436.0
-239.0,-5.0,71.0,2.0,13.0,-7.0,-901.0,-9.0,439.0
-232.0,-3.0,73.0,11.0,12.0,-8.0,-901.0,-9.0,441.0
-235.0,-1.0,73.0,13.0,14.0,-6.0,-900.0,-2.0,438.0
-235.0,0.0,73.0,11.0,14.0,-7.0,-897.0,0.0,442.0
-231.0,1.0,72.0,3.0,14.0,-6.0,-897.0,-2.0,441.0
-235.0,1.0,77.0,-7.0,13.0,-6.0,-901.0,2.0,443.0
-234.0,0.0,77.0,-18.0,15.0,-7.0,-899.0,-1.0,449.0
-234.0,-1.0,79.0,-28.0,16.0,-6.0,-898.0,-3.0,456.0
-235.0,2.0,80.0,-38.0,20.0,-5.0,-897.0,2.0,466.0
-233.0,0.0,78.0,-45.0,23.0,-4.0,-893.0,-2.0,459.0
-234.0,-3.0,82.0,-48.0,26.0,-2.0,-900.0,-10.0,457.0
-234.0,-1.0,75.0,-44.0,28.0,-2.0,-894.0,-11.0,450.0
-235.0,-5.0,73.0,-40.0,28.0,-3.0,-903.0,-11.0,441.0
-236.0,0.0,74.0,-35.0,25.0,-3.0,-902.0,-10.0,439.0
-239.0,1.0,74.0,-31.0,19.0,-4.0,-906.0,-8.0,442.0
-235.0,-2.0,75.0,-29.0,14.0,-3.0,-905.0,-8.0,436.0
-231.0,-3.0,73.0,-24.0,8.0,-2.0,-902.0,-10.0,445.0
-232.0,-2.0,71.0,-23.0,4.0,-2.0,-902.0,-6.0,440.0
-233.0,-2.0,77.0,-22.0,2.0,-2.0,-897.0,-5.0,443.0
-230.0,-3.0,74.0,-25.0,2.0,-3.0,-893.0,-2.0,438.0
-234.0,3.0,75.0,-28.0,4.0,-3.0,-899.0,0.0,441.0
-230.0,3.0,76.0,-32.0,4.0,-3.0,-895.0,0.0,440.0
-232.0,3.0,75.0,-37.0,5.0,-2.0,-899.0,2.0,442.0
-231.0,1.0,76.0,-35.0,8.0,-3.0,-896.0,3.0,447.0
-234.0,0.0,76.0,-33.0,9.0,-2.0,-899.0,3.0,451.0
-233.0,1.0,73.0,-30.0,11.0,0.0,-900.0,2.0,449.0
-231.0,-1.0,73.0,-24.0,12.0,-2.0,-897.0,1.0,446.0
-232.0,1.0,78.0,-23.0,11.0,-3.0,-894.0,0.0,448.0
-232.0,-3.0,71.0,-19.0,9.0,-2.0,-897.0,-3.0,444.0
-235.0,-1.0,72.0,-16.0,7.0,-1.0,-897.0,3.0,447.0
-235.0,2.0,76.0,-15.0,4.0,-2.0,-903.0,-5.0,446.0
-232.0,-1.0,74.0,-15.0,0.0,-2.0,-905.0,-7.0,442.0
-237.0,2.0,76.0,-14.0,-3.0,-1.0,-902.0,4.0,440.0
-235.0,0.0,74.0,-16.0,-3.0,-2.0,-905.0,7.0,445.0
-235.0,2.0,76.0,-17.0,-5.0,-3.0,-900.0,-1.0,444.0
-232.0,1.0,75.0,-15.0,-5.0,-4.0,-904.0,0.0,447.0
-233.0,1.0,72.0,-15.0,-3.0,-5.0,-902.0,1.0,442.0
-236.0,2.0,76.0,-14.0,-2.0,-5.0,-902.0,5.0,451.0
-232.0,-1.0,78.0,-12.0,1.0,-6.0,-900.0,3.0,449.0
-237.0,3.0,74.0,-12.0,3.0,-6.0,-900.0,1.0,448.0
-235.0,6.0,77.0,-13.0,6.0,-6.0,-898.0,5.0,449.0
-235.0,0.0,73.0,-12.0,8.0,-7.0,-900.0,2.0,451.0
-233.0,6.0,76.0,-15.0,10.0,-6.0,-898.0,4.0,455.0
-234.0,4.0,79.0,-17.0,10.0,-7.0,-902.0,4.0,449.0
-233.0,3.0,75.0,-22.0,10.0,-6.0,-894.0,-2.0,454.0
-235.0,-1.0,75.0,-24.0,10.0,-7.0,-897.0,-1.0,454.0
-232.0,0.0,78.0,-29.0,10.0,-7.0,-896.0,-2.0,452.0
-234.0,1.0,75.0,-31.0,9.0,-10.0,-893.0,0.0,450.0
-230.0,-1.0,77.0,-34.0,9.0,-9.0,-891.0,-3.0,448.0
-235.0,1.0,74.0,-39.0,11.0,-9.0,-893.0,1.0,450.0
-234.0,-1.0,76.0,-40.0,10.0,-9.0,-896.0,-2.0,452.0
-230.0,4.0,75.0,-42.0,9.0,-8.0,-893.0,3.0,450.0
-235.0,0.0,73.0,-40.0,8.0,-8.0,-900.0,4.0,446.0
-231.0,-2.0,78.0,-40.0,6.0,-8.0,-902.0,-2.0,450.0
-230.0,-2.0,78.0,-38.0,6.0,-7.0,-895.0,1.0,444.0
-232.0,1.0,73.0,-37.0,7.0,-7.0,-893.0,2.0,447.0
-234.0,0.0,74.0,-35.0,6.0,-7.0,-897.0,-1.0,445.0
-231.0,-2.0,74.0,-35.0,5.0,-7.0,-900.0,1.0,447.0
-233.0,2.0,74.0,-34.0,4.0,-6.0,-900.0,-4.0,452.0
-237.0,0.0,74.0,-37.0,3.0,-6.0,-899.0,0.0,446.0
-236.0,-1.0,80.0,-41.0,1.0,-6.0,-899.0,-2.0,453.0
-238.0,2.0,76.0,-47.0,1.0,-6.0,-900.0,2.0,446.0
-236.0,2.0,81.0,-53.0,1.0,-6.0,-899.0,0.0,455.0
-236.0,0.0,78.0,-60.0,0.0,-5.0,-900.0,-2.0,459.0
-231.0,-1.0,79.0,-64.0,1.0,-3.0,-903.0,1.0,456.0
-233.0,1.0,74.0,-66.0,4.0,-5.0,-906.0,-6.0,458.0
-233.0,-3.0,79.0,-65.0,5.0,-5.0,-902.0,-4.0,462.0
-232.0,-5.0,78.0,-64.0,8.0,-5.0,-905.0,-2.0,460.0
-234.0,0.0,79.0,-62.0,11.0,-6.0,-904.0,-7.0,452.0
-232.0,-2.0,77.0,-59.0,13.0,-8.0,-899.0,-6.0,455.0
-231.0,-1.0,76.0,-56.0,15.0,-8.0,-895.0,-4.0,449.0
-230.0,-2.0,77.0,-55.0,16.0,-8.0,-899.0,-3.0,447.0
-229.0,-3.0,74.0,-53.0,19.0,-9.0,-894.0,3.0,448.0
-233.0,2.0,76.0,-51.0,21.0,-9.0,-894.0,-1.0,446.0
-230.0,4.0,74.0,-53.0,23.0,-7.0,-890.0,-1.0,442.0
-233.0,-1.0,76.0,-55.0,25.0,-8.0,-893.0,1.0,445.0
-233.0,3.0,76.0,-57.0,26.0,-7.0,-891.0,3.0,442.0
-233.0,2.0,77.0,-59.0,27.0,-6.0,-891.0,4.0,445.0
-234.0,-1.0,73.0,-63.0,27.0,-7.0,-894.0,0.0,448.0
-233.0,-3.0,75.0,-65.0,24.0,-6.0,-894.0,2.0,450.0
-231.0,4.0,76.0,-66.0,21.0,-5.0,-892.0,-3.0,452.0
-232.0,-1.0,75.0,-67.0,18.0,-3.0,-894.0,-5.0,447.0
-233.0,-2.0,77.0,-66.0,14.0,-4.0,-896.0,-1.0,452.0
-232.0,-2.0,76.0,-65.0,11.0,-2.0,-897.0,-5.0,448.0
-233.0,0.0,77.0,-60.0,7.0,0.0,-898.0,-4.0,448.0
-232.0,-3.0,75.0,-57.0,1.0,-1.0,-893.0,-4.0,445.0
-234.0,-3.0,73.0,-53.0,-1.0,-3.0,-899.0,-6.0,451.0
-232.0,-1.0,78.0,-52.0,0.0,-3.0,-898.0,0.0,447.0
-232.0,0.0,75.0,-54.0,2.0,-2.0,-894.0,-5.0,446.0
-234.0,0.0,77.0,-58.0,4.0,-2.0,-896.0,5.0,459.0
-236.0,2.0,77.0,-65.0,6.0,-1.0,-901.0,3.0,459.0
-229.0,-4.0,80.0,-67.0,9.0,0.0,-893.0,4.0,456.0
-232.0,0.0,75.0,-73.0,14.0,1.0,-898.0,4.0,455.0
-234.0,1.0,75.0,-79.0,18.0,0.0,-897.0,0.0,451.0
-232.0,-1.0,80.0,-82.0,23.0,-1.0,-900.0,-1.0,461.0
-234.0,0.0,76.0,-84.0,25.0,-2.0,-899.0,2.0,455.0
-230.0,-5.0,76.0,-85.0,26.0,0.0,-899.0,-6.0,449.0
-238.0,1.0,76.0,-82.0,26.0,-1.0,-900.0,-1.0,442.0
-232.0,-5.0,75.0,-80.0,24.0,0.0,-896.0,-2.0,447.0
-235.0,-3.0,76.0,-74.0,21.0,0.0,-900.0,-5.0,449.0
-235.0,-3.0,74.0,-71.0,19.0,-2.0,-900.0,-5.0,446.0
-234.0,-3.0,77.0,-68.0,16.0,-1.0,-894.0,-5.0,443.0
-233.0,-8.0,87.0,-66.0,14.0,-3.0,-898.0,-1.0,442.0
-232.0,-2.0,74.0,-62.0,12.0,-2.0,-900.0,3.0,444.0
-235.0,0.0,75.0,-62.0,13.0,-4.0,-898.0,0.0,447.0
-233.0,-1.0,74.0,-62.0,12.0,-4.0,-896.0,1.0,451.0
-231.0,0.0,77.0,-63.0,14.0,-6.0,-904.0,-2.0,443.0
-235.0,3.0,81.0,-64.0,12.0,-7.0,-899.0,1.0,447.0
-234.0,0.0,73.0,-64.0,12.0,-8.0,-900.0,-1.0,445.0
-233.0,0.0,77.0,-62.0,12.0,-8.0,-901.0,-4.0,447.0
-234.0,1.0,75.0,-61.0,10.0,-9.0,-905.0,0.0,447.0
-234.0,0.0,74.0,-59.0,12.0,-9.0,-899.0,-7.0,443.0
-233.0,-1.0,78.0,-60.0,11.0,-11.0,-899.0,-6.0,443.0
-229.0,2.0,64.0,-58.0,12.0,-11.0,-901.0,-8.0,439.0
-233.0,-1.0,74.0,-58.0,10.0,-12.0,-904.0,-8.0,447.0
-232.0,-3.0,75.0,-58.0,8.0,-14.0,-903.0,-6.0,447.0
-234.0,-2.0,74.0,-56.0,6.0,-12.0,-895.0,-4.0,446.0
-236.0,-1.0,76.0,-53.0,6.0,-13.0,-897.0,-3.0,445.0
-232.0,-3.0,76.0,-52.0,7.0,-13.0,-900.0,-8.0,444.0
-232.0,-1.0,75.0,-54.0,6.0,-13.0,-899.0,-7.0,443.0
-234.0,-1.0,77.0,-55.0,6.0,-13.0,-899.0,-5.0,447.0
-236.0,-1.0,77.0,-59.0,3.0,-14.0,-899.0,-5.0,455.0
-232.0,-2.0,75.0,-61.0,1.0,-16.0,-905.0,-7.0,450.0
-234.0,-1.0,75.0,-63.0,0.0,-16.0,-898.0,-6.0,448.0
-241.0,-5.0,86.0,-68.0,-7.0,-16.0,-903.0,-4.0,453.0
-235.0,0.0,79.0,-67.0,-9.0,-14.0,-898.0,-2.0,449.0
-233.0,0.0,80.0,-65.0,-15.0,-16.0,-901.0,4.0,452.0
-234.0,-1.0,74.0,-62.0,-16.0,-16.0,-902.0,1.0,449.0
-235.0,3.0,77.0,-59.0,-22.0,-17.0,-903.0,0.0,450.0
-235.0,-2.0,80.0,-61.0,-27.0,-17.0,-907.0,6.0,447.0
-239.0,3.0,75.0,-66.0,-31.0,-17.0,-900.0,9.0,449.0
-236.0,0.0,76.0,-72.0,-37.0,-19.0,-906.0,8.0,446.0
-237.0,0.0,76.0,-78.0,-41.0,-21.0,-905.0,5.0,453.0
-238.0,4.0,79.0,-83.0,-47.0,-23.0,-908.0,2.0,454.0
-233.0,-1.0,74.0,-83.0,-50.0,-20.0,-908.0,-1.0,440.0
-240.0,7.0,55.0,-81.0,-55.0,-21.0,-909.0,0.0,448.0
-237.0,0.0,76.0,-74.0,-56.0,-22.0,-906.0,-3.0,443.0
-238.0,0.0,75.0,-66.0,-60.0,-22.0,-909.0,-4.0,441.0
-237.0,-3.0,73.0,-60.0,-60.0,-21.0,-908.0,-8.0,439.0
-236.0,-3.0,74.0,-54.0,-60.0,-21.0,-905.0,-9.0,437.0
-235.0,0.0,72.0,-55.0,-58.0,-25.0,-908.0,2.0,438.0
-236.0,-2.0,72.0,-59.0,-57.0,-23.0,-900.0,0.0,436.0
-231.0,-2.0,75.0,-68.0,-53.0,-22.0,-897.0,-2.0,439.0
-231.0,-3.0,75.0,-77.0,-50.0,-20.0,-894.0,0.0,443.0
-230.0,-1.0,77.0,-87.0,-45.0,-21.0,-895.0,-8.0,453.0
-231.0,-4.0,78.0,-94.0,-39.0,-19.0,-885.0,-4.0,459.0
-220.0,5.0,66.0,-98.0,-35.0,-16.0,-888.0,-6.0,459.0
-232.0,-3.0,74.0,-97.0,-30.0,-16.0,-894.0,-11.0,459.0
-232.0,-4.0,80.0,-94.0,-25.0,-16.0,-894.0,-18.0,452.0
-233.0,-3.0,74.0,-85.0,-25.0,-14.0,-894.0,-15.0,443.0
-233.0,-2.0,75.0,-76.0,-31.0,-17.0,-900.0,-11.0,444.0
-234.0,1.0,74.0,-64.0,-40.0,-18.0,-898.0,12.0,453.0
-234.0,-1.0,70.0,-42.0,-57.0,-21.0,-902.0,-4.0,439.0
-235.0,-4.0,77.0,-41.0,-69.0,-29.0,-914.0,-10.0,451.0
-238.0,2.0,76.0,-52.0,-76.0,-36.0,-905.0,-12.0,444.0
-234.0,0.0,79.0,-68.0,-81.0,-33.0,-898.0,-15.0,447.0
-231.0,-2.0,74.0,-82.0,-79.0,-27.0,-887.0,-19.0,453.0
-228.0,-4.0,77.0,-87.0,-79.0,-24.0,-880.0,-12.0,456.0
-227.0,-3.0,79.0,-90.0,-78.0,-19.0,-879.0,-19.0,462.0
-227.0,-6.0,78.0,-89.0,-75.0,-14.0,-886.0,-15.0,461.0
-230.0,-2.0,79.0,-88.0,-70.0,-11.0,-886.0,-16.0,462.0
-231.0,-4.0,77.0,-84.0,-64.0,-10.0,-890.0,-11.0,467.0
-233.0,-2.0,78.0,-84.0,-59.0,-9.0,-890.0,-10.0,467.0
-231.0,-3.0,79.0,-81.0,-56.0,-9.0,-889.0,-8.0,464.0
-232.0,-1.0,77.0,-80.0,-55.0,-10.0,-885.0,-9.0,464.0
-233.0,-2.0,80.0,-77.0,-54.0,-9.0,-884.0,-3.0,464.0
-227.0,-3.0,79.0,-75.0,-53.0,-10.0,-886.0,-9.0,466.0
-229.0,-4.0,80.0,-71.0,-52.0,-9.0,-884.0,-13.0,461.0
-231.0,-6.0,78.0,-68.0,-50.0,-11.0,-886.0,-11.0,457.0
-230.0,-5.0,78.0,-65.0,-49.0,-10.0,-884.0,-11.0,462.0
-230.0,-4.0,80.0,-62.0,-48.0,-10.0,-887.0,-14.0,463.0
-230.0,-4.0,81.0,-59.0,-46.0,-12.0,-884.0,-12.0,461.0
-230.0,-2.0,81.0,-58.0,-43.0,-13.0,-883.0,-13.0,471.0
-229.0,-4.0,83.0,-56.0,-42.0,-15.0,-881.0,-13.0,472.0
-231.0,-5.0,82.0,-55.0,-41.0,-16.0,-884.0,-14.0,473.0
-227.0,-5.0,81.0,-54.0,-41.0,-15.0,-886.0,-16.0,472.0
-229.0,-2.0,82.0,-57.0,-40.0,-15.0,-891.0,-14.0,473.0
-228.0,-3.0,80.0,-59.0,-40.0,-17.0,-881.0,-16.0,478.0
-228.0,-4.0,85.0,-62.0,-40.0,-16.0,-880.0,-13.0,478.0
-229.0,-4.0,85.0,-67.0,-41.0,-16.0,-879.0,-11.0,477.0
-232.0,-4.0,80.0,-71.0,-41.0,-16.0,-884.0,-11.0,481.0
-229.0,1.0,85.0,-73.0,-43.0,-16.0,-878.0,-11.0,476.0
-227.0,-4.0,81.0,-76.0,-43.0,-16.0,-883.0,-14.0,481.0
-228.0,-2.0,83.0,-78.0,-43.0,-16.0,-882.0,-15.0,479.0
-229.0,-6.0,83.0,-79.0,-44.0,-14.0,-878.0,-14.0,477.0
-227.0,-6.0,80.0,-80.0,-44.0,-16.0,-876.0,-9.0,478.0
-227.0,-2.0,81.0,-81.0,-43.0,-17.0,-876.0,-12.0,477.0
-230.0,-5.0,82.0,-78.0,-44.0,-17.0,-879.0,-12.0,477.0
-229.0,-6.0,83.0,-75.0,-45.0,-16.0,-879.0,-12.0,473.0
-229.0,-5.0,86.0,-72.0,-45.0,-17.0,-877.0,-15.0,472.0
-226.0,-6.0,82.0,-68.0,-44.0,-18.0,-879.0,-10.0,480.0
-231.0,-4.0,78.0,-64.0,-43.0,-19.0,-879.0,-9.0,478.0
-227.0,0.0,81.0,-62.0,-43.0,-19.0,-879.0,-9.0,472.0
-228.0,-6.0,82.0,-61.0,-41.0,-21.0,-873.0,-13.0,477.0
-230.0,-4.0,85.0,-62.0,-40.0,-23.0,-879.0,-13.0,475.0
-227.0,-2.0,84.0,-62.0,-41.0,-23.0,-883.0,-11.0,479.0
-230.0,-4.0,84.0,-63.0,-40.0,-23.0,-878.0,-13.0,482.0
-226.0,-3.0,83.0,-62.0,-43.0,-26.0,-880.0,-13.0,486.0
-230.0,-5.0,85.0,-62.0,-43.0,-27.0,-879.0,-12.0,490.0
-227.0,-4.0,86.0,-60.0,-44.0,-27.0,-884.0,-13.0,490.0
-230.0,-4.0,83.0,-59.0,-43.0,-26.0,-888.0,-13.0,484.0
-230.0,-5.0,84.0,-56.0,-44.0,-27.0,-885.0,-16.0,490.0
-228.0,-7.0,82.0,-55.0,-47.0,-26.0,-880.0,-19.0,486.0
-231.0,-6.0,84.0,-52.0,-45.0,-28.0,-894.0,-20.0,487.0
-233.0,-8.0,82.0,-49.0,-46.0,-26.0,-884.0,-20.0,483.0
-230.0,-6.0,82.0,-49.0,-46.0,-28.0,-887.0,-20.0,488.0
-231.0,-5.0,84.0,-48.0,-47.0,-29.0,-889.0,-20.0,483.0
-231.0,-6.0,86.0,-49.0,-51.0,-31.0,-886.0,-17.0,488.0
-232.0,-8.0,89.0,-48.0,-56.0,-31.0,-884.0,-14.0,484.0
-233.0,-6.0,86.0,-48.0,-62.0,-31.0,-883.0,-16.0,489.0
-231.0,-4.0,82.0,-49.0,-73.0,-33.0,-883.0,-14.0,483.0
-230.0,-1.0,82.0,-49.0,-82.0,-34.0,-887.0,-13.0,484.0
-232.0,-3.0,80.0,-53.0,-89.0,-34.0,-877.0,-11.0,477.0
-231.0,-1.0,81.0,-56.0,-94.0,-36.0,-884.0,-6.0,479.0
-231.0,-3.0,79.0,-61.0,-99.0,-34.0,-884.0,-11.0,472.0
-231.0,0.0,84.0,-66.0,-105.0,-35.0,-885.0,-8.0,471.0
-230.0,-4.0,79.0,-70.0,-109.0,-35.0,-884.0,-15.0,478.0
-232.0,-2.0,84.0,-74.0,-115.0,-35.0,-887.0,-9.0,477.0
-228.0,-5.0,81.0,-75.0,-123.0,-37.0,-887.0,-12.0,473.0
-228.0,-7.0,84.0,-73.0,-130.0,-39.0,-884.0,-16.0,475.0
-229.0,-8.0,78.0,-70.0,-135.0,-43.0,-887.0,-24.0,469.0
-228.0,-9.0,77.0,-62.0,-138.0,-43.0,-881.0,-25.0,465.0
-228.0,-7.0,78.0,-51.0,-141.0,-43.0,-880.0,-33.0,460.0
-225.0,-7.0,83.0,-38.0,-142.0,-44.0,-875.0,-30.0,462.0
-227.0,-7.0,81.0,-27.0,-140.0,-44.0,-869.0,-26.0,458.0
-228.0,-5.0,78.0,-18.0,-139.0,-43.0,-876.0,-23.0,460.0
-227.0,-9.0,79.0,-13.0,-137.0,-42.0,-875.0,-20.0,457.0
-227.0,-5.0,77.0,-11.0,-138.0,-38.0,-876.0,-20.0,468.0
-224.0,-5.0,81.0,-11.0,-140.0,-36.0,-869.0,-21.0,471.0
-225.0,-7.0,84.0,-13.0,-147.0,-35.0,-871.0,-21.0,471.0
-227.0,-9.0,85.0,-14.0,-156.0,-35.0,-867.0,-21.0,477.0
-225.0,-7.0,85.0,-14.0,-166.0,-34.0,-872.0,-23.0,473.0
-228.0,-8.0,84.0,-14.0,-175.0,-32.0,-868.0,-24.0,481.0
-229.0,-9.0,84.0,-9.0,-181.0,-33.0,-878.0,-28.0,475.0
-226.0,-10.0,80.0,-1.0,-187.0,-34.0,-878.0,-23.0,480.0
-230.0,-9.0,80.0,7.0,-196.0,-35.0,-882.0,-23.0,476.0
-230.0,-5.0,82.0,11.0,-204.0,-35.0,-887.0,-24.0,482.0
-231.0,-8.0,85.0,14.0,-214.0,-39.0,-887.0,-27.0,484.0
-233.0,-7.0,84.0,18.0,-224.0,-44.0,-891.0,-21.0,479.0
-228.0,-7.0,81.0,20.0,-234.0,-48.0,-896.0,-13.0,480.0
-235.0,-5.0,84.0,24.0,-243.0,-47.0,-889.0,-18.0,472.0
-231.0,-5.0,82.0,28.0,-251.0,-50.0,-893.0,-10.0,479.0
-231.0,-4.0,81.0,34.0,-260.0,-52.0,-885.0,-14.0,474.0
-237.0,-3.0,83.0,38.0,-270.0,-52.0,-894.0,-11.0,478.0
-233.0,-5.0,82.0,39.0,-279.0,-55.0,-894.0,-7.0,482.0
-233.0,-6.0,82.0,40.0,-288.0,-55.0,-893.0,-11.0,480.0
-230.0,-5.0,84.0,41.0,-297.0,-58.0,-893.0,-12.0,481.0
-231.0,-7.0,86.0,39.0,-306.0,-58.0,-897.0,-16.0,480.0
-234.0,-4.0,86.0,29.0,-314.0,-60.0,-896.0,-13.0,491.0
-231.0,-5.0,86.0,23.0,-324.0,-60.0,-889.0,-19.0,490.0
-234.0,-3.0,88.0,14.0,-332.0,-64.0,-891.0,-22.0,497.0
-233.0,-6.0,91.0,6.0,-338.0,-66.0,-893.0,-24.0,504.0
-228.0,-8.0,90.0,-2.0,-345.0,-67.0,-879.0,-25.0,513.0
-226.0,-8.0,97.0,-7.0,-351.0,-70.0,-880.0,-28.0,517.0
-230.0,-9.0,94.0,-13.0,-355.0,-73.0,-876.0,-26.0,518.0
-228.0,-6.0,90.0,-16.0,-358.0,-75.0,-875.0,-21.0,524.0
-226.0,-6.0,95.0,-20.0,-362.0,-77.0,-869.0,-24.0,525.0
-227.0,-9.0,94.0,-22.0,-363.0,-78.0,-871.0,-25.0,525.0
-228.0,-5.0,95.0,-27.0,-364.0,-81.0,-870.0,-17.0,527.0
-225.0,-4.0,94.0,-31.0,-369.0,-80.0,-868.0,-21.0,527.0
-223.0,-5.0,94.0,-38.0,-373.0,-81.0,-868.0,-18.0,529.0
-224.0,-2.0,99.0,-46.0,-379.0,-81.0,-868.0,-13.0,529.0
-225.0,-7.0,101.0,-57.0,-382.0,-83.0,-869.0,-17.0,535.0
-221.0,-7.0,97.0,-64.0,-387.0,-84.0,-862.0,-17.0,537.0
-222.0,-6.0,96.0,-72.0,-391.0,-84.0,-863.0,-19.0,534.0
-224.0,-2.0,96.0,-81.0,-393.0,-83.0,-866.0,-15.0,536.0
-223.0,-5.0,97.0,-91.0,-394.0,-82.0,-862.0,-21.0,538.0
-222.0,-3.0,99.0,-102.0,-395.0,-80.0,-857.0,-22.0,542.0
-220.0,-6.0,99.0,-108.0,-400.0,-79.0,-861.0,-24.0,543.0
-224.0,-5.0,100.0,-113.0,-403.0,-78.0,-855.0,-20.0,547.0
-221.0,-8.0,98.0,-111.0,-407.0,-75.0,-851.0,-27.0,546.0
-218.0,-6.0,102.0,-107.0,-411.0,-76.0,-850.0,-30.0,545.0
-219.0,-8.0,98.0,-101.0,-416.0,-78.0,-848.0,-32.0,550.0
-218.0,-12.0,102.0,-90.0,-421.0,-78.0,-850.0,-38.0,555.0
-220.0,-10.0,99.0,-78.0,-429.0,-79.0,-850.0,-36.0,553.0
-220.0,-14.0,103.0,-64.0,-438.0,-83.0,-851.0,-45.0,554.0
-221.0,-11.0,103.0,-51.0,-447.0,-87.0,-851.0,-42.0,556.0
-221.0,-13.0,104.0,-39.0,-459.0,-90.0,-844.0,-46.0,566.0
-219.0,-12.0,103.0,-31.0,-469.0,-95.0,-841.0,-50.0,565.0
-215.0,-11.0,106.0,-22.0,-473.0,-96.0,-843.0,-47.0,567.0
-212.0,-12.0,101.0,-18.0,-475.0,-95.0,-839.0,-43.0,573.0
-216.0,-13.0,107.0,-17.0,-475.0,-97.0,-837.0,-48.0,586.0
-216.0,-12.0,111.0,-17.0,-472.0,-99.0,-834.0,-46.0,592.0
-214.0,-12.0,109.0,-16.0,-471.0,-98.0,-835.0,-49.0,596.0
-215.0,-14.0,109.0,-13.0,-473.0,-101.0,-831.0,-49.0,593.0
-214.0,-12.0,116.0,-9.0,-476.0,-100.0,-831.0,-45.0,592.0
-213.0,-13.0,110.0,0.0,-483.0,-98.0,-829.0,-52.0,590.0
-215.0,-14.0,109.0,7.0,-494.0,-101.0,-831.0,-55.0,589.0
-212.0,-16.0,110.0,11.0,-504.0,-106.0,-831.0,-49.0,595.0
-211.0,-13.0,112.0,14.0,-519.0,-109.0,-822.0,-51.0,595.0
-212.0,-11.0,115.0,16.0,-534.0,-113.0,-818.0,-47.0,596.0
-216.0,-14.0,111.0,15.0,-544.0,-107.0,-831.0,-53.0,588.0
-202.0,-11.0,114.0,16.0,-552.0,-107.0,-778.0,-42.0,599.0
-204.0,-11.0,111.0,21.0,-569.0,-126.0,-788.0,-43.0,592.0
-205.0,-9.0,113.0,22.0,-578.0,-133.0,-793.0,-43.0,594.0
-208.0,-11.0,117.0,23.0,-588.0,-136.0,-798.0,-33.0,596.0
-205.0,-12.0,115.0,26.0,-594.0,-138.0,-792.0,-40.0,595.0
-206.0,-11.0,113.0,36.0,-599.0,-137.0,-801.0,-39.0,599.0
-220.0,-19.0,112.0,41.0,-599.0,-108.0,-854.0,-56.0,590.0
-189.0,-14.0,118.0,52.0,-600.0,-93.0,-740.0,-47.0,612.0
-191.0,-12.0,118.0,74.0,-627.0,-132.0,-732.0,-43.0,604.0
-201.0,-10.0,114.0,86.0,-644.0,-163.0,-769.0,-44.0,606.0
-200.0,-14.0,116.0,89.0,-650.0,-170.0,-774.0,-45.0,617.0
-199.0,-13.0,119.0,90.0,-653.0,-177.0,-767.0,-47.0,622.0
-222.0,-10.0,115.0,87.0,-653.0,-178.0,-858.0,-48.0,610.0
-204.0,-17.0,123.0,75.0,-635.0,-121.0,-801.0,-59.0,634.0
-180.0,-18.0,129.0,79.0,-636.0,-107.0,-685.0,-64.0,650.0
-179.0,-16.0,129.0,86.0,-652.0,-150.0,-687.0,-61.0,658.0
-185.0,-17.0,132.0,85.0,-667.0,-193.0,-709.0,-69.0,661.0
-188.0,-9.0,128.0,84.0,-670.0,-214.0,-716.0,-41.0,666.0
-191.0,-12.0,131.0,85.0,-668.0,-207.0,-745.0,-54.0,666.0
-202.0,-12.0,133.0,78.0,-656.0,-208.0,-762.0,-58.0,670.0
-216.0,-13.0,135.0,66.0,-640.0,-169.0,-862.0,-42.0,681.0
-187.0,-15.0,137.0,67.0,-641.0,-116.0,-735.0,-53.0,689.0
-176.0,-11.0,139.0,78.0,-672.0,-144.0,-684.0,-43.0,702.0
-186.0,4.0,139.0,79.0,-700.0,-185.0,-707.0,-18.0,689.0
-187.0,-9.0,136.0,79.0,-718.0,-179.0,-720.0,-34.0,685.0
-193.0,-8.0,136.0,64.0,-719.0,-189.0,-744.0,-40.0,694.0
-192.0,-11.0,139.0,55.0,-724.0,-200.0,-748.0,-38.0,695.0
-199.0,-12.0,136.0,54.0,-736.0,-202.0,-744.0,-28.0,701.0
-206.0,-11.0,139.0,51.0,-739.0,-186.0,-792.0,-45.0,692.0
-205.0,-13.0,139.0,46.0,-731.0,-165.0,-762.0,-56.0,695.0
-187.0,-16.0,139.0,48.0,-737.0,-159.0,-710.0,-64.0,708.0
-178.0,-14.0,143.0,57.0,-750.0,-175.0,-681.0,-55.0,708.0
-177.0,-16.0,135.0,72.0,-765.0,-190.0,-686.0,-62.0,691.0
-183.0,-18.0,138.0,72.0,-763.0,-204.0,-703.0,-64.0,705.0
-192.0,-15.0,134.0,64.0,-753.0,-203.0,-745.0,-58.0,707.0
-184.0,-17.0,139.0,59.0,-746.0,-183.0,-700.0,-65.0,711.0
-180.0,-12.0,143.0,58.0,-752.0,-182.0,-687.0,-46.0,713.0
-180.0,-13.0,139.0,57.0,-766.0,-187.0,-684.0,-64.0,712.0
-184.0,-16.0,140.0,45.0,-774.0,-203.0,-702.0,-58.0,707.0
-183.0,-16.0,140.0,34.0,-776.0,-200.0,-716.0,-59.0,711.0
-173.0,-16.0,143.0,29.0,-772.0,-188.0,-670.0,-67.0,713.0
-166.0,-19.0,138.0,26.0,-773.0,-193.0,-635.0,-68.0,709.0
-162.0,-18.0,143.0,23.0,-776.0,-209.0,-628.0,-66.0,710.0
-171.0,-19.0,141.0,21.0,-780.0,-221.0,-648.0,-68.0,708.0
-172.0,-15.0,145.0,15.0,-778.0,-229.0,-662.0,-64.0,716.0
-186.0,-16.0,138.0,9.0,-770.0,-229.0,-701.0,-64.0,718.0
-190.0,-21.0,147.0,9.0,-752.0,-184.0,-747.0,-61.0,727.0
-162.0,-20.0,147.0,23.0,-745.0,-143.0,-640.0,-77.0,734.0
-152.0,-21.0,143.0,46.0,-755.0,-163.0,-604.0,-81.0,736.0
-155.0,-18.0,147.0,69.0,-765.0,-197.0,-597.0,-80.0,743.0
-162.0,-16.0,155.0,90.0,-766.0,-217.0,-614.0,-81.0,756.0
-159.0,-19.0,150.0,115.0,-759.0,-225.0,-625.0,-68.0,768.0
-163.0,-15.0,159.0,143.0,-748.0,-226.0,-632.0,-64.0,773.0
-190.0,-10.0,160.0,166.0,-725.0,-188.0,-751.0,-43.0,780.0
-155.0,-18.0,162.0,197.0,-702.0,-121.0,-599.0,-41.0,799.0
-149.0,-15.0,165.0,224.0,-708.0,-132.0,-573.0,-60.0,794.0
-147.0,-17.0,164.0,233.0,-715.0,-172.0,-563.0,-54.0,797.0
-150.0,-15.0,166.0,229.0,-722.0,-188.0,-579.0,-51.0,809.0
-154.0,-15.0,164.0,224.0,-725.0,-196.0,-599.0,-57.0,812.0
-179.0,-9.0,168.0,214.0,-717.0,-201.0,-659.0,-40.0,819.0
-169.0,-12.0,170.0,204.0,-690.0,-144.0,-647.0,-51.0,836.0
-140.0,-18.0,175.0,193.0,-662.0,-106.0,-542.0,-68.0,844.0
-138.0,-15.0,174.0,172.0,-653.0,-142.0,-522.0,-74.0,845.0
-134.0,-21.0,177.0,145.0,-652.0,-181.0,-517.0,-67.0,864.0
-139.0,-16.0,180.0,123.0,-649.0,-194.0,-529.0,-62.0,866.0
-145.0,-13.0,184.0,103.0,-630.0,-188.0,-559.0,-78.0,872.0
-148.0,-17.0,184.0,76.0,-601.0,-203.0,-580.0,-65.0,876.0
-170.0,-10.0,185.0,53.0,-569.0,-184.0,-679.0,-33.0,878.0
-135.0,-16.0,184.0,39.0,-537.0,-129.0,-512.0,-67.0,881.0
-122.0,-15.0,182.0,24.0,-548.0,-151.0,-462.0,-54.0,872.0
-127.0,-15.0,181.0,2.0,-556.0,-171.0,-487.0,-70.0,874.0
-131.0,-19.0,182.0,-32.0,-549.0,-208.0,-506.0,-69.0,874.0
-149.0,-13.0,184.0,-65.0,-549.0,-216.0,-572.0,-47.0,879.0
-147.0,-20.0,184.0,-79.0,-532.0,-172.0,-571.0,-72.0,887.0
-136.0,-21.0,189.0,-92.0,-514.0,-162.0,-524.0,-82.0,892.0
-119.0,-23.0,184.0,-94.0,-523.0,-175.0,-471.0,-69.0,883.0
-124.0,-28.0,187.0,-81.0,-548.0,-172.0,-466.0,-94.0,866.0
-145.0,-24.0,175.0,-68.0,-551.0,-197.0,-546.0,-92.0,853.0
-147.0,-20.0,177.0,-43.0,-535.0,-188.0,-552.0,-78.0,847.0
-144.0,-25.0,167.0,8.0,-510.0,-136.0,-569.0,-100.0,825.0
-126.0,-29.0,169.0,58.0,-487.0,-127.0,-467.0,-103.0,826.0
-118.0,-25.0,164.0,107.0,-490.0,-170.0,-455.0,-88.0,796.0
-119.0,-21.0,160.0,147.0,-495.0,-190.0,-445.0,-76.0,794.0
-117.0,-23.0,163.0,183.0,-495.0,-194.0,-456.0,-81.0,782.0
-127.0,-16.0,159.0,209.0,-488.0,-220.0,-481.0,-64.0,790.0
-126.0,-18.0,161.0,229.0,-478.0,-231.0,-466.0,-66.0,788.0
-123.0,-19.0,162.0,244.0,-477.0,-236.0,-475.0,-52.0,793.0
-124.0,-13.0,163.0,253.0,-471.0,-239.0,-469.0,-48.0,793.0
-128.0,-10.0,163.0,243.0,-464.0,-261.0,-483.0,-41.0,811.0
-129.0,-6.0,170.0,225.0,-455.0,-268.0,-499.0,-23.0,808.0
-133.0,-5.0,167.0,204.0,-444.0,-269.0,-504.0,-19.0,820.0
-177.0,7.0,166.0,181.0,-422.0,-264.0,-675.0,16.0,843.0
-141.0,1.0,184.0,167.0,-381.0,-199.0,-536.0,-10.0,858.0
-118.0,-6.0,180.0,150.0,-378.0,-201.0,-454.0,-19.0,866.0
-113.0,1.0,197.0,124.0,-383.0,-245.0,-439.0,-25.0,880.0
-119.0,-4.0,190.0,75.0,-381.0,-273.0,-446.0,-30.0,893.0
-125.0,-5.0,194.0,26.0,-368.0,-277.0,-470.0,-41.0,913.0
-121.0,-12.0,194.0,-21.0,-352.0,-262.0,-463.0,-46.0,931.0
-120.0,-12.0,200.0,-56.0,-338.0,-251.0,-465.0,-59.0,935.0
-120.0,-21.0,200.0,-90.0,-324.0,-240.0,-463.0,-82.0,943.0
-154.0,-6.0,202.0,-122.0,-317.0,-224.0,-612.0,-37.0,958.0
-127.0,-20.0,202.0,-134.0,-295.0,-128.0,-481.0,-72.0,959.0
-110.0,-23.0,201.0,-143.0,-297.0,-85.0,-399.0,-98.0,959.0
-105.0,-20.0,204.0,-152.0,-312.0,-145.0,-388.0,-97.0,954.0
-112.0,-19.0,199.0,-166.0,-329.0,-179.0,-418.0,-68.0,957.0
-101.0,-15.0,206.0,-172.0,-335.0,-165.0,-385.0,-81.0,960.0
-97.0,-20.0,201.0,-174.0,-348.0,-127.0,-373.0,-78.0,944.0
-110.0,-22.0,205.0,-190.0,-344.0,-122.0,-417.0,-85.0,943.0
-105.0,-18.0,203.0,-206.0,-346.0,-149.0,-424.0,-71.0,955.0
-106.0,-21.0,199.0,-205.0,-364.0,-137.0,-417.0,-84.0,940.0
-100.0,-21.0,197.0,-202.0,-377.0,-138.0,-388.0,-76.0,940.0
-121.0,-10.0,198.0,-196.0,-389.0,-157.0,-466.0,-51.0,931.0
-106.0,-14.0,196.0,-185.0,-394.0,-126.0,-409.0,-44.0,928.0
-104.0,-16.0,190.0,-174.0,-401.0,-117.0,-401.0,-57.0,919.0
-119.0,-16.0,195.0,-174.0,-409.0,-151.0,-435.0,-61.0,919.0
-111.0,-1.0,189.0,-170.0,-419.0,-157.0,-448.0,-23.0,914.0
-114.0,-10.0,187.0,-151.0,-432.0,-113.0,-431.0,-47.0,891.0
-129.0,-11.0,185.0,-151.0,-432.0,-117.0,-440.0,-50.0,881.0
-126.0,-10.0,192.0,-157.0,-429.0,-112.0,-507.0,-43.0,896.0
-105.0,-11.0,182.0,-145.0,-444.0,-81.0,-407.0,-52.0,879.0
-103.0,-17.0,183.0,-137.0,-465.0,-82.0,-383.0,-72.0,870.0
-110.0,-15.0,181.0,-139.0,-475.0,-120.0,-420.0,-56.0,868.0
-106.0,-9.0,183.0,-138.0,-478.0,-122.0,-403.0,-34.0,874.0
-108.0,-15.0,183.0,-126.0,-478.0,-89.0,-419.0,-63.0,875.0
-119.0,-16.0,183.0,-125.0,-458.0,-87.0,-440.0,-79.0,867.0
-117.0,-20.0,186.0,-121.0,-441.0,-101.0,-446.0,-61.0,886.0
-136.0,-18.0,192.0,-108.0,-436.0,-100.0,-521.0,-62.0,888.0
-105.0,-14.0,193.0,-91.0,-427.0,-64.0,-399.0,-49.0,906.0
-98.0,-22.0,186.0,-60.0,-439.0,-49.0,-378.0,-70.0,904.0
-113.0,-20.0,188.0,-45.0,-439.0,-70.0,-428.0,-74.0,904.0
-113.0,-21.0,190.0,-29.0,-441.0,-87.0,-428.0,-84.0,904.0
-110.0,-16.0,190.0,-6.0,-451.0,-87.0,-411.0,-72.0,912.0
-106.0,-21.0,182.0,25.0,-464.0,-70.0,-401.0,-73.0,910.0
-151.0,-19.0,200.0,44.0,-468.0,-61.0,-612.0,-83.0,891.0
-99.0,-23.0,195.0,54.0,-442.0,-41.0,-392.0,-91.0,934.0
-92.0,-19.0,199.0,73.0,-460.0,-62.0,-356.0,-81.0,931.0
-97.0,-12.0,194.0,82.0,-488.0,-84.0,-339.0,-41.0,932.0
-106.0,-12.0,188.0,72.0,-505.0,-76.0,-430.0,-90.0,931.0
-140.0,-14.0,203.0,40.0,-501.0,-106.0,-518.0,-71.0,935.0
-118.0,-8.0,206.0,23.0,-499.0,-87.0,-464.0,-51.0,947.0
-95.0,-15.0,193.0,21.0,-515.0,-48.0,-355.0,-60.0,944.0
-101.0,-10.0,201.0,1.0,-521.0,-70.0,-398.0,-56.0,949.0
-120.0,-7.0,202.0,-29.0,-518.0,-104.0,-453.0,-46.0,942.0
-105.0,-9.0,201.0,-45.0,-514.0,-78.0,-397.0,-34.0,954.0
-104.0,-16.0,196.0,-55.0,-513.0,-69.0,-403.0,-65.0,931.0
-121.0,-11.0,198.0,-75.0,-506.0,-92.0,-478.0,-49.0,930.0
-98.0,-17.0,195.0,-83.0,-508.0,-80.0,-374.0,-63.0,929.0
-91.0,-12.0,191.0,-85.0,-533.0,-78.0,-346.0,-39.0,906.0
-124.0,-23.0,186.0,-91.0,-541.0,-55.0,-467.0,-90.0,897.0
-104.0,-22.0,194.0,-100.0,-525.0,-46.0,-376.0,-89.0,907.0
-96.0,-27.0,190.0,-84.0,-544.0,-63.0,-362.0,-91.0,908.0
-97.0,-21.0,194.0,-58.0,-567.0,-72.0,-363.0,-77.0,907.0
-96.0,-21.0,189.0,-27.0,-590.0,-49.0,-364.0,-101.0,888.0
-109.0,-26.0,192.0,-15.0,-592.0,-44.0,-413.0,-101.0,910.0
-113.0,-25.0,190.0,-5.0,-593.0,-48.0,-417.0,-94.0,906.0
-97.0,-22.0,195.0,13.0,-609.0,-38.0,-378.0,-85.0,907.0
-95.0,-18.0,192.0,33.0,-630.0,-36.0,-361.0,-64.0,909.0
-101.0,-17.0,193.0,49.0,-643.0,-23.0,-382.0,-59.0,914.0
-99.0,-20.0,190.0,59.0,-653.0,-11.0,-381.0,-75.0,916.0
-95.0,-16.0,194.0,61.0,-669.0,-26.0,-359.0,-63.0,919.0
-99.0,-16.0,195.0,62.0,-688.0,-35.0,-367.0,-56.0,924.0
-113.0,-13.0,191.0,60.0,-704.0,-25.0,-430.0,-54.0,915.0
-90.0,-12.0,193.0,54.0,-713.0,-1.0,-343.0,-48.0,921.0
-91.0,-9.0,190.0,48.0,-736.0,-5.0,-350.0,-47.0,911.0
-89.0,-13.0,195.0,31.0,-754.0,-13.0,-349.0,-55.0,912.0
-107.0,-11.0,200.0,4.0,-763.0,-1.0,-406.0,-47.0,926.0
-92.0,-14.0,194.0,-18.0,-770.0,34.0,-356.0,-65.0,912.0
-89.0,-15.0,191.0,-33.0,-790.0,37.0,-335.0,-71.0,918.0
-95.0,-18.0,193.0,-46.0,-802.0,35.0,-351.0,-70.0,925.0
-90.0,-20.0,196.0,-56.0,-806.0,50.0,-333.0,-80.0,928.0
-82.0,-21.0,198.0,-57.0,-808.0,69.0,-311.0,-67.0,934.0
-80.0,-17.0,197.0,-44.0,-810.0,76.0,-296.0,-75.0,932.0
-80.0,-16.0,198.0,-27.0,-805.0,83.0,-302.0,-72.0,941.0
-80.0,-19.0,200.0,-13.0,-799.0,91.0,-307.0,-71.0,932.0
-74.0,-18.0,197.0,-4.0,-793.0,107.0,-278.0,-75.0,938.0
-68.0,-24.0,194.0,8.0,-794.0,114.0,-258.0,-79.0,934.0
-69.0,-21.0,199.0,9.0,-793.0,113.0,-254.0,-88.0,942.0
-58.0,-26.0,202.0,3.0,-792.0,113.0,-221.0,-93.0,949.0
-67.0,-25.0,204.0,-10.0,-795.0,97.0,-249.0,-99.0,957.0
-70.0,-27.0,204.0,-26.0,-795.0,93.0,-259.0,-109.0,970.0
-69.0,-29.0,209.0,-38.0,-799.0,93.0,-254.0,-108.0,982.0
-65.0,-27.0,212.0,-48.0,-803.0,96.0,-250.0,-108.0,989.0
-84.0,-28.0,206.0,-58.0,-804.0,100.0,-315.0,-109.0,991.0
-59.0,-28.0,213.0,-66.0,-798.0,135.0,-198.0,-108.0,999.0
-53.0,-27.0,209.0,-61.0,-812.0,124.0,-203.0,-100.0,997.0
-58.0,-23.0,212.0,-57.0,-816.0,96.0,-211.0,-97.0,1005.0
-56.0,-25.0,212.0,-53.0,-812.0,94.0,-206.0,-100.0,993.0
-54.0,-25.0,212.0,-53.0,-811.0,100.0,-198.0,-100.0,1000.0
-54.0,-29.0,212.0,-49.0,-805.0,100.0,-194.0,-107.0,1000.0
-49.0,-26.0,211.0,-50.0,-799.0,111.0,-184.0,-104.0,997.0
-42.0,-23.0,212.0,-44.0,-796.0,113.0,-158.0,-92.0,991.0
-40.0,-23.0,211.0,-38.0,-797.0,107.0,-156.0,-86.0,989.0
-43.0,-19.0,211.0,-41.0,-787.0,103.0,-151.0,-81.0,983.0
-40.0,-21.0,206.0,-50.0,-777.0,105.0,-143.0,-79.0,978.0
-36.0,-22.0,207.0,-67.0,-765.0,112.0,-144.0,-84.0,975.0
-38.0,-21.0,210.0,-87.0,-756.0,117.0,-151.0,-91.0,976.0
-41.0,-23.0,207.0,-109.0,-743.0,122.0,-151.0,-92.0,981.0
-40.0,-26.0,206.0,-127.0,-733.0,124.0,-149.0,-105.0,980.0
-39.0,-27.0,205.0,-146.0,-726.0,127.0,-147.0,-108.0,985.0
-40.0,-29.0,206.0,-153.0,-719.0,136.0,-148.0,-110.0,985.0
-38.0,-31.0,210.0,-153.0,-710.0,146.0,-148.0,-121.0,982.0
-35.0,-35.0,213.0,-149.0,-702.0,151.0,-139.0,-121.0,988.0
-32.0,-35.0,208.0,-135.0,-695.0,143.0,-123.0,-123.0,992.0
-32.0,-35.0,212.0,-121.0,-693.0,138.0,-125.0,-128.0,988.0
-33.0,-31.0,208.0,-100.0,-690.0,133.0,-124.0,-122.0,983.0
-32.0,-29.0,204.0,-72.0,-689.0,131.0,-116.0,-117.0,988.0
-28.0,-27.0,210.0,-47.0,-687.0,137.0,-92.0,-109.0,984.0
-25.0,-28.0,209.0,-26.0,-684.0,131.0,-92.0,-93.0,981.0
-25.0,-21.0,211.0,-14.0,-681.0,119.0,-91.0,-80.0,981.0
-23.0,-19.0,209.0,-12.0,-682.0,117.0,-84.0,-75.0,995.0
-21.0,-19.0,215.0,-21.0,-684.0,122.0,-80.0,-71.0,997.0
-21.0,-15.0,214.0,-31.0,-690.0,122.0,-83.0,-64.0,996.0
-17.0,-19.0,214.0,-47.0,-696.0,126.0,-78.0,-77.0,1003.0
-19.0,-19.0,215.0,-64.0,-705.0,124.0,-71.0,-80.0,1008.0
-16.0,-24.0,220.0,-89.0,-714.0,130.0,-68.0,-94.0,1021.0
-18.0,-25.0,226.0,-117.0,-720.0,140.0,-70.0,-106.0,1033.0
-19.0,-27.0,223.0,-140.0,-727.0,142.0,-55.0,-119.0,1036.0
-16.0,-30.0,223.0,-162.0,-736.0,149.0,-48.0,-119.0,1050.0
-16.0,-29.0,222.0,-182.0,-746.0,152.0,-46.0,-122.0,1048.0
-12.0,-28.0,226.0,-197.0,-756.0,153.0,-32.0,-119.0,1043.0
-9.0,-26.0,231.0,-208.0,-762.0,159.0,-21.0,-92.0,1057.0
-3.0,-21.0,224.0,-214.0,-761.0,162.0,-15.0,-85.0,1048.0
-6.0,-15.0,229.0,-223.0,-755.0,168.0,-11.0,-79.0,1044.0
1.0,-20.0,225.0,-235.0,-745.0,168.0,7.0,-78.0,1042.0
5.0,-14.0,226.0,-250.0,-736.0,178.0,35.0,-69.0,1040.0
9.0,-15.0,222.0,-259.0,-719.0,181.0,40.0,-65.0,1032.0
12.0,-20.0,218.0,-270.0,-701.0,196.0,54.0,-82.0,1021.0
13.0,-21.0,224.0,-278.0,-682.0,202.0,70.0,-79.0,1019.0
19.0,-23.0,221.0,-284.0,-661.0,204.0,74.0,-93.0,1016.0
23.0,-27.0,215.0,-291.0,-649.0,209.0,102.0,-101.0,1010.0
25.0,-22.0,215.0,-280.0,-634.0,195.0,102.0,-95.0,1003.0
20.0,-18.0,213.0,-258.0,-617.0,188.0,93.0,-91.0,995.0
19.0,-23.0,212.0,-236.0,-602.0,193.0,97.0,-90.0,993.0
33.0,-25.0,207.0,-218.0,-588.0,194.0,139.0,-117.0,966.0
28.0,-29.0,207.0,-208.0,-582.0,182.0,121.0,-106.0,997.0
41.0,-30.0,209.0,-196.0,-573.0,175.0,148.0,-119.0,981.0
20.0,-27.0,214.0,-187.0,-577.0,156.0,106.0,-102.0,1001.0
26.0,-27.0,210.0,-172.0,-574.0,151.0,109.0,-95.0,987.0
16.0,-21.0,212.0,-154.0,-582.0,146.0,75.0,-79.0,997.0
24.0,-23.0,211.0,-133.0,-590.0,148.0,98.0,-78.0,1000.0
16.0,-19.0,209.0,-117.0,-614.0,142.0,66.0,-76.0,996.0
23.0,-24.0,209.0,-109.0,-632.0,149.0,92.0,-72.0,998.0
10.0,-13.0,212.0,-107.0,-667.0,141.0,56.0,-62.0,1001.0
24.0,-20.0,213.0,-109.0,-694.0,147.0,99.0,-79.0,995.0
19.0,-16.0,213.0,-127.0,-737.0,139.0,84.0,-78.0,998.0
33.0,-23.0,208.0,-143.0,-775.0,131.0,132.0,-92.0,984.0
18.0,-17.0,211.0,-157.0,-818.0,109.0,71.0,-65.0,1000.0
8.0,-14.0,214.0,-158.0,-843.0,115.0,49.0,-56.0,1006.0
20.0,-18.0,217.0,-154.0,-858.0,128.0,79.0,-55.0,1016.0
24.0,-15.0,221.0,-140.0,-869.0,133.0,111.0,-71.0,1011.0
31.0,-23.0,214.0,-136.0,-870.0,124.0,123.0,-79.0,1011.0
40.0,-22.0,217.0,-143.0,-862.0,120.0,167.0,-90.0,1007.0
62.0,-32.0,214.0,-154.0,-844.0,114.0,249.0,-123.0,1011.0
52.0,-28.0,215.0,-156.0,-824.0,77.0,210.0,-114.0,1006.0
55.0,-30.0,219.0,-150.0,-789.0,72.0,223.0,-118.0,1012.0
77.0,-37.0,213.0,-139.0,-741.0,87.0,292.0,-136.0,1003.0
78.0,-38.0,214.0,-126.0,-708.0,74.0,298.0,-136.0,1002.0
82.0,-34.0,214.0,-115.0,-666.0,61.0,310.0,-140.0,998.0
91.0,-38.0,214.0,-110.0,-629.0,60.0,345.0,-146.0,1001.0
90.0,-38.0,214.0,-112.0,-607.0,54.0,368.0,-152.0,997.0
87.0,-34.0,213.0,-101.0,-582.0,46.0,352.0,-142.0,998.0
85.0,-41.0,212.0,-87.0,-549.0,68.0,342.0,-158.0,987.0
80.0,-43.0,208.0,-71.0,-514.0,84.0,300.0,-162.0,987.0
90.0,-48.0,207.0,-55.0,-491.0,80.0,345.0,-175.0,981.0
80.0,-44.0,205.0,-32.0,-479.0,48.0,321.0,-164.0,966.0
75.0,-43.0,207.0,-8.0,-464.0,45.0,313.0,-161.0,967.0
85.0,-42.0,205.0,15.0,-442.0,56.0,331.0,-162.0,957.0
87.0,-38.0,200.0,34.0,-425.0,45.0,340.0,-149.0,947.0
83.0,-34.0,200.0,48.0,-396.0,30.0,319.0,-120.0,951.0
78.0,-28.0,201.0,63.0,-352.0,31.0,309.0,-100.0,934.0
77.0,-18.0,195.0,75.0,-304.0,26.0,307.0,-88.0,932.0
80.0,-13.0,199.0,66.0,-269.0,43.0,313.0,-55.0,944.0
78.0,-12.0,194.0,57.0,-237.0,59.0,310.0,-49.0,923.0
89.0,-19.0,199.0,32.0,-197.0,33.0,339.0,-72.0,928.0
81.0,-23.0,200.0,-26.0,-172.0,27.0,316.0,-93.0,948.0
72.0,-23.0,204.0,-84.0,-133.0,40.0,280.0,-99.0,958.0
78.0,-34.0,205.0,-118.0,-88.0,17.0,304.0,-122.0,956.0
93.0,-43.0,210.0,-145.0,-73.0,7.0,363.0,-157.0,976.0
74.0,-33.0,208.0,-149.0,-72.0,-18.0,308.0,-132.0,986.0
73.0,-33.0,208.0,-123.0,-66.0,-35.0,297.0,-106.0,988.0
71.0,-27.0,210.0,-75.0,-63.0,-49.0,281.0,-91.0,970.0
78.0,-25.0,206.0,-31.0,-69.0,-58.0,303.0,-101.0,964.0
73.0,-21.0,205.0,-18.0,-87.0,-50.0,298.0,-88.0,967.0
79.0,-21.0,202.0,-5.0,-104.0,-54.0,315.0,-82.0,955.0
72.0,-18.0,203.0,-5.0,-122.0,-68.0,294.0,-76.0,948.0
73.0,-21.0,198.0,-13.0,-133.0,-72.0,280.0,-78.0,951.0
73.0,-20.0,200.0,-29.0,-134.0,-71.0,287.0,-80.0,954.0
80.0,-21.0,202.0,-45.0,-125.0,-70.0,305.0,-89.0,963.0
84.0,-20.0,207.0,-60.0,-118.0,-91.0,342.0,-85.0,970.0
65.0,-19.0,206.0,-72.0,-109.0,-115.0,258.0,-66.0,976.0
67.0,-18.0,213.0,-83.0,-77.0,-92.0,267.0,-81.0,992.0
88.0,-29.0,215.0,-93.0,-49.0,-82.0,324.0,-96.0,1003.0
71.0,-20.0,214.0,-106.0,-37.0,-100.0,294.0,-87.0,1005.0
71.0,-23.0,215.0,-120.0,-18.0,-102.0,269.0,-86.0,1007.0
69.0,-25.0,221.0,-133.0,6.0,-100.0,272.0,-100.0,1008.0
71.0,-25.0,215.0,-144.0,35.0,-100.0,277.0,-100.0,1013.0
71.0,-27.0,216.0,-151.0,67.0,-101.0,281.0,-108.0,1010.0
77.0,-31.0,215.0,-148.0,103.0,-115.0,299.0,-117.0,994.0
80.0,-36.0,217.0,-144.0,128.0,-116.0,308.0,-135.0,997.0
89.0,-38.0,212.0,-138.0,145.0,-135.0,348.0,-145.0,995.0
68.0,-32.0,206.0,-122.0,150.0,-168.0,280.0,-124.0,969.0
55.0,-29.0,207.0,-93.0,162.0,-161.0,230.0,-122.0,968.0
63.0,-35.0,202.0,-60.0,167.0,-148.0,252.0,-130.0,955.0
62.0,-34.0,202.0,-31.0,160.0,-151.0,247.0,-125.0,942.0
60.0,-34.0,197.0,-8.0,147.0,-156.0,243.0,-122.0,938.0
62.0,-30.0,200.0,14.0,132.0,-167.0,262.0,-121.0,932.0
61.0,-31.0,200.0,29.0,119.0,-183.0,244.0,-117.0,935.0
43.0,-25.0,201.0,34.0,115.0,-183.0,171.0,-92.0,946.0
47.0,-25.0,202.0,38.0,122.0,-159.0,190.0,-95.0,962.0
50.0,-25.0,206.0,33.0,120.0,-156.0,191.0,-92.0,966.0
47.0,-21.0,208.0,28.0,117.0,-155.0,188.0,-86.0,976.0
45.0,-21.0,207.0,22.0,120.0,-156.0,179.0,-85.0,982.0
46.0,-21.0,210.0,5.0,126.0,-159.0,184.0,-81.0,997.0
47.0,-18.0,213.0,-13.0,127.0,-160.0,178.0,-83.0,1001.0
48.0,-18.0,215.0,-32.0,128.0,-162.0,184.0,-79.0,997.0
45.0,-22.0,214.0,-49.0,132.0,-165.0,194.0,-90.0,1003.0
44.0,-23.0,209.0,-67.0,136.0,-168.0,187.0,-101.0,1002.0
48.0,-28.0,208.0,-76.0,143.0,-169.0,194.0,-105.0,1001.0
47.0,-28.0,213.0,-82.0,150.0,-174.0,195.0,-110.0,991.0
49.0,-32.0,214.0,-83.0,158.0,-174.0,201.0,-119.0,988.0
50.0,-34.0,213.0,-77.0,172.0,-176.0,203.0,-126.0,989.0
48.0,-33.0,212.0,-66.0,187.0,-175.0,197.0,-130.0,981.0
49.0,-35.0,210.0,-49.0,201.0,-172.0,197.0,-140.0,981.0
47.0,-35.0,210.0,-34.0,215.0,-167.0,194.0,-137.0,978.0
47.0,-35.0,208.0,-15.0,228.0,-161.0,181.0,-135.0,981.0
44.0,-37.0,206.0,-2.0,239.0,-157.0,171.0,-134.0,983.0
40.0,-33.0,213.0,3.0,247.0,-154.0,160.0,-136.0,992.0
38.0,-33.0,212.0,4.0,249.0,-151.0,153.0,-122.0,985.0
34.0,-31.0,212.0,-2.0,250.0,-147.0,140.0,-118.0,996.0
36.0,-27.0,214.0,-11.0,247.0,-141.0,145.0,-109.0,1004.0
32.0,-26.0,216.0,-24.0,241.0,-137.0,131.0,-113.0,1005.0
31.0,-25.0,217.0,-45.0,231.0,-135.0,122.0,-104.0,1010.0
29.0,-24.0,219.0,-68.0,223.0,-135.0,117.0,-101.0,1007.0
22.0,-24.0,216.0,-85.0,208.0,-140.0,106.0,-103.0,1009.0
22.0,-24.0,212.0,-94.0,193.0,-143.0,98.0,-92.0,1004.0
21.0,-25.0,213.0,-97.0,177.0,-148.0,97.0,-83.0,998.0
20.0,-21.0,213.0,-95.0,163.0,-152.0,97.0,-78.0,998.0
22.0,-21.0,212.0,-93.0,147.0,-155.0,91.0,-79.0,995.0
23.0,-19.0,209.0,-92.0,132.0,-157.0,98.0,-81.0,994.0
21.0,-22.0,210.0,-93.0,119.0,-159.0,101.0,-89.0,990.0
23.0,-22.0,207.0,-95.0,109.0,-161.0,101.0,-98.0,990.0
28.0,-28.0,214.0,-94.0,103.0,-164.0,110.0,-110.0,990.0
31.0,-34.0,208.0,-88.0,106.0,-169.0,121.0,-121.0,993.0
32.0,-36.0,210.0,-75.0,115.0,-175.0,125.0,-139.0,996.0
32.0,-38.0,211.0,-60.0,130.0,-178.0,133.0,-148.0,995.0
33.0,-40.0,214.0,-36.0,143.0,-180.0,139.0,-145.0,993.0
35.0,-41.0,213.0,-9.0,156.0,-178.0,136.0,-152.0,995.0
35.0,-38.0,213.0,15.0,167.0,-174.0,145.0,-143.0,997.0
34.0,-39.0,211.0,43.0,178.0,-169.0,146.0,-142.0,994.0
35.0,-34.0,209.0,65.0,186.0,-163.0,145.0,-137.0,986.0
34.0,-35.0,210.0,82.0,197.0,-154.0,141.0,-125.0,981.0
37.0,-32.0,210.0,87.0,209.0,-144.0,135.0,-125.0,982.0
33.0,-29.0,207.0,88.0,219.0,-133.0,136.0,-117.0,977.0
33.0,-29.0,208.0,88.0,229.0,-124.0,123.0,-120.0,975.0
29.0,-26.0,208.0,82.0,240.0,-116.0,123.0,-110.0,985.0
25.0,-28.0,212.0,70.0,244.0,-107.0,112.0,-114.0,989.0
24.0,-23.0,213.0,56.0,245.0,-94.0,107.0,-102.0,989.0
17.0,-23.0,213.0,40.0,239.0,-82.0,99.0,-99.0,1005.0
23.0,-25.0,212.0,26.0,232.0,-73.0,90.0,-101.0,1013.0
16.0,-21.0,218.0,8.0,222.0,-64.0,94.0,-97.0,1008.0
23.0,-27.0,215.0,-5.0,211.0,-53.0,90.0,-99.0,1014.0
23.0,-25.0,220.0,-13.0,203.0,-41.0,92.0,-94.0,1019.0
25.0,-23.0,216.0,-10.0,197.0,-27.0,102.0,-83.0,1016.0
26.0,-24.0,217.0,1.0,194.0,-13.0,112.0,-101.0,1008.0
28.0,-29.0,216.0,-4.0,192.0,-1.0,115.0,-116.0,1014.0
29.0,-32.0,213.0,-14.0,186.0,6.0,113.0,-113.0,1015.0
24.0,-30.0,216.0,-15.0,180.0,10.0,114.0,-111.0,999.0
31.0,-18.0,209.0,6.0,166.0,11.0,128.0,-69.0,991.0
30.0,-18.0,207.0,55.0,147.0,18.0,127.0,-75.0,978.0
33.0,-29.0,205.0,81.0,142.0,28.0,132.0,-109.0,982.0
29.0,-29.0,213.0,72.0,138.0,35.0,128.0,-125.0,977.0
31.0,-34.0,208.0,50.0,132.0,33.0,122.0,-133.0,980.0
30.0,-33.0,211.0,41.0,130.0,29.0,120.0,-129.0,978.0
31.0,-32.0,210.0,52.0,125.0,26.0,123.0,-122.0,992.0
29.0,-26.0,212.0,80.0,124.0,21.0,121.0,-110.0,991.0
31.0,-24.0,213.0,113.0,121.0,10.0,128.0,-88.0,991.0
37.0,-16.0,208.0,146.0,119.0,5.0,145.0,-57.0,981.0
47.0,-12.0,197.0,171.0,117.0,10.0,141.0,-69.0,978.0
38.0,-22.0,208.0,164.0,122.0,29.0,150.0,-90.0,978.0
39.0,-30.0,209.0,123.0,130.0,49.0,150.0,-114.0,991.0
37.0,-34.0,216.0,70.0,137.0,55.0,141.0,-134.0,1002.0
30.0,-31.0,221.0,23.0,147.0,46.0,127.0,-133.0,1011.0
26.0,-30.0,221.0,4.0,153.0,33.0,121.0,-122.0,1019.0
28.0,-28.0,219.0,8.0,153.0,22.0,121.0,-109.0,1018.0
29.0,-26.0,219.0,26.0,152.0,19.0,119.0,-106.0,1016.0
32.0,-27.0,218.0,46.0,149.0,17.0,125.0,-98.0,1012.0
31.0,-19.0,221.0,68.0,143.0,16.0,127.0,-79.0,1013.0
30.0,-17.0,211.0,86.0,136.0,13.0,135.0,-68.0,1004.0
40.0,-16.0,217.0,99.0,129.0,13.0,134.0,-55.0,997.0
34.0,-15.0,214.0,105.0,125.0,12.0,134.0,-52.0,997.0
34.0,-10.0,211.0,98.0,122.0,8.0,126.0,-58.0,1000.0
33.0,-14.0,213.0,84.0,122.0,4.0,126.0,-59.0,998.0
30.0,-20.0,218.0,61.0,122.0,-1.0,128.0,-63.0,1006.0
33.0,-18.0,217.0,42.0,120.0,-5.0,134.0,-79.0,1015.0
34.0,-21.0,223.0,24.0,114.0,-10.0,138.0,-86.0,1023.0
35.0,-25.0,220.0,12.0,108.0,-12.0,149.0,-88.0,1028.0
38.0,-21.0,223.0,1.0,104.0,-14.0,156.0,-85.0,1031.0
41.0,-18.0,219.0,-1.0,95.0,-17.0,160.0,-78.0,1026.0
41.0,-19.0,222.0,0.0,88.0,-12.0,165.0,-79.0,1029.0
43.0,-33.0,238.0,-6.0,85.0,-5.0,171.0,-89.0,1025.0
41.0,-29.0,220.0,-18.0,86.0,6.0,169.0,-115.0,1023.0
42.0,-36.0,215.0,-37.0,91.0,15.0,159.0,-131.0,1015.0
36.0,-40.0,212.0,-52.0,98.0,15.0,151.0,-146.0,1005.0
33.0,-33.0,215.0,-48.0,102.0,6.0,138.0,-134.0,1012.0
32.0,-30.0,215.0,-18.0,98.0,-3.0,124.0,-108.0,1006.0
30.0,-21.0,211.0,29.0,91.0,-1.0,125.0,-93.0,997.0
30.0,-18.0,212.0,71.0,84.0,4.0,126.0,-80.0,995.0
28.0,-15.0,210.0,100.0,81.0,13.0,120.0,-66.0,994.0
27.0,-15.0,212.0,111.0,84.0,19.0,111.0,-66.0,989.0
23.0,-12.0,214.0,107.0,91.0,26.0,110.0,-55.0,993.0
12.0,-15.0,211.0,96.0,97.0,34.0,95.0,-57.0,1000.0
18.0,-12.0,214.0,80.0,101.0,41.0,93.0,-56.0,1002.0
19.0,-16.0,217.0,58.0,101.0,48.0,83.0,-59.0,1011.0
14.0,-12.0,222.0,47.0,99.0,54.0,78.0,-59.0,1012.0
17.0,-12.0,219.0,36.0,90.0,59.0,77.0,-53.0,1021.0
19.0,-14.0,219.0,29.0,82.0,64.0,74.0,-56.0,1026.0
18.0,-15.0,216.0,24.0,71.0,68.0,73.0,-56.0,1018.0
18.0,-15.0,219.0,23.0,61.0,70.0,76.0,-56.0,1015.0
16.0,-12.0,218.0,24.0,52.0,73.0,79.0,-56.0,1018.0
18.0,-14.0,219.0,25.0,43.0,76.0,80.0,-51.0,1024.0
16.0,-13.0,216.0,20.0,36.0,76.0,83.0,-48.0,1015.0
24.0,-13.0,217.0,18.0,27.0,73.0,83.0,-47.0,1019.0
17.0,-11.0,217.0,17.0,20.0,70.0,82.0,-45.0,1015.0
21.0,-14.0,220.0,13.0,12.0,71.0,81.0,-44.0,1009.0
22.0,-16.0,214.0,8.0,2.0,69.0,86.0,-51.0,1008.0
21.0,-15.0,215.0,5.0,-3.0,68.0,91.0,-52.0,1007.0
20.0,-15.0,214.0,2.0,-9.0,63.0,94.0,-58.0,1005.0
22.0,-14.0,216.0,-3.0,-13.0,61.0,95.0,-55.0,1008.0
22.0,-14.0,215.0,-8.0,-16.0,58.0,97.0,-56.0,1006.0
21.0,-14.0,213.0,-12.0,-21.0,57.0,99.0,-58.0,1008.0
25.0,-14.0,213.0,-20.0,-26.0,56.0,106.0,-63.0,1007.0
27.0,-13.0,216.0,-24.0,-31.0,55.0,115.0,-62.0,1005.0
24.0,-17.0,214.0,-31.0,-38.0,52.0,91.0,-61.0,1004.0
29.0,-16.0,214.0,-35.0,-38.0,51.0,116.0,-69.0,1003.0
19.0,-11.0,214.0,-41.0,-42.0,45.0,91.0,-65.0,1006.0
27.0,-22.0,217.0,-52.0,-40.0,52.0,109.0,-73.0,1011.0
32.0,-22.0,218.0,-58.0,-35.0,35.0,124.0,-74.0,1010.0
23.0,-14.0,215.0,-58.0,-27.0,23.0,93.0,-63.0,1009.0
27.0,-15.0,218.0,-56.0,-16.0,21.0,105.0,-63.0,1006.0
28.0,-16.0,218.0,-54.0,-3.0,12.0,110.0,-64.0,1012.0
30.0,-17.0,216.0,-50.0,8.0,5.0,122.0,-58.0,1008.0
32.0,-16.0,217.0,-51.0,19.0,0.0,130.0,-61.0,1010.0
31.0,-13.0,214.0,-51.0,30.0,-5.0,128.0,-60.0,1009.0
32.0,-16.0,216.0,-53.0,43.0,-10.0,121.0,-62.0,1010.0
29.0,-17.0,216.0,-53.0,55.0,-12.0,119.0,-61.0,1007.0
30.0,-18.0,214.0,-54.0,66.0,-15.0,116.0,-64.0,1008.0
29.0,-20.0,217.0,-49.0,73.0,-17.0,107.0,-64.0,1016.0
24.0,-13.0,213.0,-43.0,79.0,-19.0,107.0,-62.0,1011.0
26.0,-17.0,220.0,-36.0,81.0,-20.0,99.0,-57.0,1011.0
20.0,-15.0,219.0,-32.0,81.0,-19.0,99.0,-63.0,1013.0
22.0,-13.0,213.0,-27.0,79.0,-16.0,97.0,-61.0,1012.0
19.0,-13.0,216.0,-27.0,75.0,-15.0,87.0,-55.0,1015.0
22.0,-17.0,217.0,-25.0,69.0,-15.0,87.0,-54.0,1012.0
20.0,-15.0,220.0,-24.0,62.0,-12.0,91.0,-56.0,1016.0
20.0,-14.0,216.0,-25.0,56.0,-10.0,85.0,-54.0,1017.0
17.0,-12.0,218.0,-26.0,48.0,-8.0,81.0,-57.0,1016.0
