acc1_x,acc1_y,acc1_z,gyro_x,gyro_y,gyro_z,acc2_x,acc2_y,acc2_z
18.0,-272.0,-24.0,-21.0,31.0,-4.0,63.0,-1050.0,8.0
23.0,-270.0,-24.0,-23.0,31.0,-5.0,72.0,-1045.0,14.0
20.0,-270.0,-27.0,-22.0,31.0,-4.0,73.0,-1036.0,10.0
23.0,-270.0,-27.0,-22.0,31.0,-4.0,66.0,-1036.0,8.0
23.0,-272.0,-23.0,-22.0,32.0,-3.0,74.0,-1039.0,10.0
22.0,-268.0,-27.0,-21.0,33.0,-4.0,70.0,-1040.0,7.0
24.0,-273.0,-16.0,-18.0,34.0,-3.0,65.0,-1043.0,9.0
22.0,-268.0,-23.0,-17.0,33.0,-4.0,67.0,-1039.0,1.0
22.0,-272.0,-26.0,-18.0,32.0,-3.0,67.0,-1045.0,8.0
23.0,-271.0,-30.0,-19.0,33.0,-5.0,72.0,-1041.0,-2.0
24.0,-272.0,-26.0,-20.0,36.0,-2.0,71.0,-1039.0,7.0
22.0,-269.0,-28.0,-18.0,39.0,-5.0,73.0,-1043.0,8.0
22.0,-271.0,-22.0,-14.0,42.0,-5.0,69.0,-1041.0,10.0
21.0,-273.0,-25.0,-14.0,43.0,-6.0,67.0,-1039.0,14.0
24.0,-272.0,-22.0,-14.0,45.0,-4.0,70.0,-1045.0,9.0
23.0,-271.0,-20.0,-14.0,44.0,-7.0,70.0,-1036.0,6.0
22.0,-272.0,-24.0,-15.0,44.0,-5.0,69.0,-1033.0,7.0
22.0,-271.0,-24.0,-18.0,42.0,-6.0,71.0,-1036.0,4.0
23.0,-272.0,-24.0,-19.0,43.0,-5.0,71.0,-1033.0,1.0
24.0,-270.0,-24.0,-22.0,45.0,-7.0,72.0,-1038.0,4.0
21.0,-271.0,-27.0,-22.0,47.0,-6.0,71.0,-1036.0,2.0
22.0,-271.0,-23.0,-22.0,48.0,-8.0,72.0,-1041.0,5.0
23.0,-267.0,-29.0,-20.0,50.0,-8.0,71.0,-1037.0,8.0
8.0,-271.0,-29.0,-17.0,52.0,-10.0,71.0,-1046.0,-3.0
23.0,-275.0,-25.0,-15.0,54.0,-6.0,75.0,-1040.0,-1.0
22.0,-272.0,-35.0,-14.0,56.0,-8.0,70.0,-1045.0,0.0
15.0,-270.0,-33.0,-10.0,57.0,-8.0,71.0,-1033.0,-1.0
26.0,-272.0,-21.0,-8.0,59.0,-8.0,70.0,-1038.0,-6.0
23.0,-272.0,-31.0,-6.0,62.0,-8.0,68.0,-1035.0,0.0
21.0,-268.0,-19.0,-6.0,62.0,-9.0,68.0,-1045.0,-3.0
19.0,-271.0,-32.0,-5.0,63.0,-6.0,68.0,-1034.0,1.0
17.0,-268.0,-14.0,-6.0,62.0,-6.0,66.0,-1032.0,2.0
25.0,-270.0,-26.0,-7.0,64.0,-6.0,69.0,-1031.0,-2.0
27.0,-263.0,-24.0,-8.0,64.0,-7.0,66.0,-1032.0,5.0
21.0,-275.0,-23.0,-10.0,66.0,-3.0,69.0,-1035.0,0.0
25.0,-265.0,-24.0,-14.0,66.0,-6.0,68.0,-1033.0,9.0
30.0,-267.0,-20.0,-15.0,65.0,-5.0,71.0,-1040.0,5.0
25.0,-264.0,-21.0,-17.0,66.0,-6.0,68.0,-1033.0,5.0
23.0,-269.0,-15.0,-18.0,67.0,-5.0,70.0,-1038.0,6.0
10.0,-266.0,-15.0,-20.0,66.0,-8.0,72.0,-1033.0,1.0
22.0,-270.0,-23.0,-22.0,68.0,-5.0,71.0,-1035.0,7.0
19.0,-272.0,-25.0,-25.0,67.0,-6.0,69.0,-1033.0,5.0
22.0,-271.0,-24.0,-25.0,69.0,-4.0,68.0,-1031.0,12.0
19.0,-268.0,-23.0,-28.0,69.0,-7.0,65.0,-1028.0,8.0
21.0,-269.0,-26.0,-29.0,70.0,-5.0,70.0,-1031.0,10.0
22.0,-270.0,-21.0,-31.0,70.0,-7.0,66.0,-1026.0,9.0
21.0,-270.0,-24.0,-31.0,72.0,-7.0,68.0,-1032.0,15.0
23.0,-267.0,-24.0,-34.0,74.0,-7.0,64.0,-1030.0,10.0
23.0,-268.0,-24.0,-36.0,73.0,-7.0,66.0,-1030.0,8.0
20.0,-272.0,-27.0,-40.0,72.0,-7.0,63.0,-1030.0,8.0
20.0,-270.0,-21.0,-43.0,71.0,-7.0,69.0,-1032.0,3.0
18.0,-268.0,-26.0,-45.0,70.0,-8.0,64.0,-1037.0,5.0
20.0,-273.0,-26.0,-47.0,69.0,-7.0,67.0,-1034.0,1.0
22.0,-271.0,-28.0,-49.0,70.0,-8.0,69.0,-1033.0,3.0
17.0,-272.0,-14.0,-47.0,72.0,-8.0,71.0,-1037.0,-2.0
20.0,-271.0,-24.0,-43.0,76.0,-9.0,71.0,-1033.0,2.0
22.0,-272.0,-29.0,-41.0,76.0,-8.0,70.0,-1036.0,8.0
22.0,-270.0,-22.0,-39.0,77.0,-9.0,70.0,-1045.0,6.0
22.0,-268.0,-25.0,-39.0,76.0,-8.0,65.0,-1034.0,6.0
21.0,-270.0,-22.0,-38.0,75.0,-9.0,70.0,-1034.0,6.0
19.0,-275.0,-27.0,-41.0,76.0,-9.0,71.0,-1036.0,8.0
20.0,-269.0,-23.0,-42.0,75.0,-9.0,70.0,-1038.0,4.0
21.0,-269.0,-24.0,-42.0,74.0,-8.0,67.0,-1043.0,2.0
22.0,-271.0,-26.0,-42.0,74.0,-7.0,64.0,-1035.0,7.0
21.0,-270.0,-22.0,-44.0,72.0,-7.0,68.0,-1041.0,5.0
20.0,-272.0,-26.0,-44.0,73.0,-9.0,62.0,-1045.0,0.0
20.0,-273.0,-25.0,-44.0,72.0,-6.0,57.0,-1044.0,0.0
22.0,-272.0,-22.0,-46.0,70.0,-7.0,65.0,-1037.0,5.0
18.0,-269.0,-26.0,-45.0,69.0,-4.0,60.0,-1036.0,8.0
17.0,-271.0,-24.0,-44.0,69.0,-3.0,54.0,-1048.0,6.0
21.0,-276.0,-29.0,-42.0,69.0,-2.0,65.0,-1040.0,6.0
20.0,-267.0,-28.0,-41.0,67.0,-4.0,64.0,-1034.0,8.0
19.0,-271.0,-24.0,-41.0,67.0,-2.0,63.0,-1035.0,7.0
20.0,-273.0,-26.0,-41.0,68.0,-3.0,58.0,-1032.0,-6.0
18.0,-270.0,-29.0,-43.0,69.0,-3.0,65.0,-1031.0,-6.0
21.0,-271.0,-26.0,-44.0,69.0,-2.0,65.0,-1038.0,0.0
21.0,-271.0,-23.0,-44.0,67.0,-1.0,64.0,-1036.0,0.0
23.0,-270.0,-25.0,-42.0,67.0,-3.0,66.0,-1034.0,8.0
22.0,-271.0,-26.0,-39.0,66.0,-3.0,60.0,-1033.0,10.0
21.0,-269.0,-27.0,-37.0,64.0,-1.0,61.0,-1034.0,15.0
20.0,-267.0,-23.0,-38.0,60.0,-1.0,64.0,-1034.0,9.0
21.0,-272.0,-23.0,-38.0,59.0,0.0,66.0,-1039.0,11.0
19.0,-269.0,-25.0,-38.0,59.0,-1.0,63.0,-1034.0,9.0
20.0,-269.0,-24.0,-39.0,60.0,-1.0,67.0,-1032.0,7.0
22.0,-270.0,-26.0,-41.0,60.0,-1.0,61.0,-1032.0,4.0
20.0,-267.0,-24.0,-42.0,59.0,-3.0,61.0,-1031.0,8.0
19.0,-270.0,-25.0,-45.0,58.0,0.0,61.0,-1031.0,1.0
21.0,-273.0,-28.0,-48.0,59.0,-4.0,66.0,-1032.0,5.0
20.0,-269.0,-26.0,-50.0,57.0,-2.0,60.0,-1029.0,8.0
18.0,-271.0,-19.0,-53.0,56.0,-5.0,65.0,-1045.0,13.0
20.0,-269.0,-27.0,-54.0,51.0,-4.0,65.0,-1035.0,1.0
19.0,-268.0,-23.0,-56.0,51.0,-4.0,62.0,-1036.0,2.0
19.0,-271.0,-24.0,-59.0,50.0,-4.0,62.0,-1027.0,1.0
20.0,-272.0,-24.0,-62.0,50.0,-4.0,61.0,-1035.0,-1.0
20.0,-269.0,-27.0,-62.0,48.0,-3.0,65.0,-1047.0,-7.0
18.0,-270.0,-30.0,-63.0,46.0,-6.0,62.0,-1039.0,-4.0
19.0,-272.0,-26.0,-62.0,49.0,-3.0,58.0,-1049.0,-6.0
21.0,-273.0,-23.0,-62.0,48.0,-3.0,60.0,-1054.0,-3.0
21.0,-273.0,-27.0,-60.0,48.0,-1.0,62.0,-1038.0,-1.0
21.0,-269.0,-29.0,-60.0,45.0,-2.0,61.0,-1048.0,-1.0
22.0,-272.0,-22.0,-60.0,43.0,0.0,64.0,-1039.0,-5.0
22.0,-270.0,-25.0,-59.0,43.0,-3.0,66.0,-1050.0,1.0
19.0,-269.0,-23.0,-59.0,43.0,-3.0,62.0,-1038.0,-6.0
20.0,-270.0,-24.0,-59.0,43.0,-3.0,65.0,-1032.0,-4.0
23.0,-274.0,-25.0,-61.0,41.0,-2.0,64.0,-1035.0,-6.0
23.0,-268.0,-27.0,-62.0,40.0,-3.0,66.0,-1034.0,-3.0
22.0,-271.0,-30.0,-58.0,39.0,-3.0,64.0,-1043.0,-4.0
23.0,-270.0,-25.0,-58.0,40.0,-4.0,69.0,-1041.0,-3.0
20.0,-269.0,-28.0,-56.0,40.0,-3.0,64.0,-1041.0,-5.0
20.0,-270.0,-24.0,-56.0,40.0,-5.0,63.0,-1040.0,-6.0
20.0,-268.0,-28.0,-56.0,40.0,-5.0,65.0,-1035.0,-1.0
21.0,-270.0,-28.0,-54.0,39.0,-5.0,65.0,-1052.0,-9.0
20.0,-270.0,-30.0,-56.0,39.0,-5.0,70.0,-1039.0,-11.0
21.0,-271.0,-24.0,-55.0,36.0,-4.0,66.0,-1033.0,-8.0
17.0,-272.0,-27.0,-54.0,38.0,-3.0,64.0,-1046.0,-9.0
19.0,-271.0,-31.0,-52.0,38.0,-4.0,66.0,-1043.0,-13.0
23.0,-271.0,-26.0,-49.0,37.0,-3.0,60.0,-1040.0,-11.0
21.0,-272.0,-26.0,-49.0,36.0,-3.0,65.0,-1038.0,-8.0
22.0,-270.0,-26.0,-50.0,33.0,-1.0,64.0,-1035.0,-13.0
23.0,-270.0,-29.0,-50.0,34.0,-3.0,71.0,-1034.0,-11.0
20.0,-271.0,-31.0,-52.0,32.0,-1.0,68.0,-1033.0,-12.0
20.0,-271.0,-29.0,-54.0,32.0,-2.0,67.0,-1032.0,-13.0
18.0,-269.0,-31.0,-57.0,32.0,-2.0,62.0,-1042.0,-9.0
20.0,-272.0,-30.0,-58.0,29.0,-1.0,67.0,-1038.0,-17.0
20.0,-269.0,-29.0,-59.0,28.0,0.0,64.0,-1035.0,-12.0
18.0,-268.0,-33.0,-60.0,29.0,-1.0,65.0,-1036.0,-15.0
22.0,-271.0,-26.0,-59.0,27.0,-2.0,66.0,-1039.0,-12.0
20.0,-271.0,-30.0,-60.0,26.0,-1.0,62.0,-1033.0,-13.0
18.0,-271.0,-26.0,-61.0,25.0,0.0,67.0,-1038.0,-15.0
25.0,-271.0,-29.0,-61.0,26.0,1.0,64.0,-1040.0,-13.0
22.0,-270.0,-30.0,-60.0,29.0,1.0,69.0,-1047.0,-9.0
23.0,-270.0,-35.0,-60.0,30.0,-1.0,65.0,-1043.0,-3.0
22.0,-270.0,-31.0,-58.0,29.0,0.0,70.0,-1042.0,-12.0
21.0,-268.0,-30.0,-57.0,30.0,-3.0,66.0,-1034.0,-15.0
21.0,-271.0,-27.0,-56.0,29.0,-1.0,69.0,-1034.0,-15.0
18.0,-267.0,-28.0,-57.0,31.0,-1.0,68.0,-1035.0,-11.0
22.0,-267.0,-29.0,-59.0,30.0,-1.0,69.0,-1037.0,-15.0
21.0,-270.0,-32.0,-60.0,30.0,-1.0,69.0,-1041.0,-15.0
22.0,-269.0,-31.0,-61.0,29.0,-1.0,65.0,-1035.0,-18.0
21.0,-272.0,-29.0,-61.0,29.0,-3.0,67.0,-1031.0,-14.0
20.0,-272.0,-27.0,-62.0,31.0,0.0,68.0,-1038.0,-24.0
20.0,-272.0,-27.0,-63.0,30.0,-1.0,69.0,-1036.0,-18.0
21.0,-270.0,-30.0,-63.0,33.0,-1.0,67.0,-1050.0,-20.0
22.0,-271.0,-26.0,-64.0,33.0,0.0,65.0,-1049.0,-22.0
25.0,-273.0,-29.0,-62.0,34.0,1.0,65.0,-1037.0,-16.0
21.0,-272.0,-30.0,-63.0,35.0,1.0,70.0,-1040.0,-13.0
22.0,-273.0,-29.0,-60.0,37.0,-1.0,68.0,-1035.0,-19.0
24.0,-271.0,-27.0,-59.0,38.0,-2.0,69.0,-1040.0,-18.0
21.0,-269.0,-31.0,-56.0,39.0,-1.0,70.0,-1040.0,-18.0
20.0,-271.0,-28.0,-54.0,37.0,0.0,70.0,-1047.0,-20.0
24.0,-273.0,-31.0,-53.0,40.0,0.0,71.0,-1039.0,-19.0
22.0,-271.0,-31.0,-53.0,40.0,1.0,69.0,-1047.0,-19.0
22.0,-271.0,-30.0,-51.0,42.0,0.0,70.0,-1035.0,-18.0
19.0,-268.0,-36.0,-48.0,41.0,-1.0,70.0,-1049.0,-15.0
21.0,-271.0,-33.0,-47.0,41.0,0.0,68.0,-1045.0,-21.0
22.0,-274.0,-35.0,-46.0,42.0,1.0,70.0,-1045.0,-18.0
22.0,-274.0,-30.0,-45.0,41.0,1.0,68.0,-1043.0,-18.0
20.0,-270.0,-24.0,-43.0,45.0,0.0,65.0,-1042.0,-21.0
20.0,-272.0,-30.0,-43.0,45.0,0.0,66.0,-1036.0,-19.0
19.0,-272.0,-34.0,-42.0,47.0,-1.0,66.0,-1042.0,-16.0
21.0,-273.0,-30.0,-42.0,49.0,1.0,68.0,-1044.0,-19.0
20.0,-271.0,-33.0,-44.0,50.0,0.0,64.0,-1043.0,-18.0
21.0,-271.0,-33.0,-45.0,49.0,1.0,64.0,-1041.0,-19.0
23.0,-271.0,-31.0,-43.0,49.0,0.0,69.0,-1039.0,-20.0
22.0,-271.0,-33.0,-40.0,48.0,1.0,67.0,-1035.0,-20.0
22.0,-270.0,-33.0,-36.0,49.0,2.0,68.0,-1039.0,-24.0
23.0,-270.0,-30.0,-35.0,50.0,2.0,63.0,-1038.0,-26.0
21.0,-270.0,-32.0,-35.0,51.0,3.0,68.0,-1034.0,-22.0
22.0,-271.0,-28.0,-33.0,51.0,1.0,67.0,-1036.0,-27.0
17.0,-269.0,-30.0,-34.0,49.0,1.0,63.0,-1049.0,-28.0
20.0,-269.0,-37.0,-33.0,48.0,1.0,63.0,-1039.0,-29.0
20.0,-272.0,-32.0,-33.0,50.0,1.0,67.0,-1053.0,-30.0
20.0,-269.0,-33.0,-33.0,52.0,3.0,67.0,-1039.0,-28.0
20.0,-268.0,-28.0,-34.0,54.0,2.0,66.0,-1038.0,-26.0
22.0,-270.0,-34.0,-32.0,51.0,2.0,64.0,-1032.0,-28.0
20.0,-269.0,-34.0,-32.0,53.0,2.0,62.0,-1035.0,-27.0
19.0,-269.0,-30.0,-32.0,54.0,1.0,65.0,-1030.0,-25.0
22.0,-269.0,-36.0,-35.0,57.0,1.0,66.0,-1033.0,-23.0
18.0,-271.0,-31.0,-38.0,60.0,2.0,65.0,-1035.0,-25.0
20.0,-267.0,-32.0,-39.0,59.0,1.0,66.0,-1035.0,-24.0
20.0,-268.0,-33.0,-42.0,58.0,2.0,68.0,-1033.0,-26.0
21.0,-268.0,-32.0,-47.0,59.0,3.0,68.0,-1034.0,-25.0
19.0,-270.0,-35.0,-49.0,60.0,2.0,64.0,-1035.0,-29.0
22.0,-270.0,-33.0,-51.0,58.0,3.0,63.0,-1038.0,-31.0
17.0,-267.0,-30.0,-54.0,57.0,1.0,63.0,-1030.0,-29.0
22.0,-270.0,-33.0,-53.0,57.0,3.0,68.0,-1035.0,-26.0
18.0,-267.0,-31.0,-54.0,57.0,1.0,62.0,-1034.0,-23.0
21.0,-268.0,-30.0,-57.0,59.0,4.0,65.0,-1033.0,-22.0
20.0,-268.0,-35.0,-63.0,61.0,2.0,68.0,-1028.0,-18.0
20.0,-267.0,-35.0,-66.0,64.0,0.0,62.0,-1031.0,-23.0
20.0,-266.0,-32.0,-68.0,63.0,-1.0,67.0,-1033.0,-31.0
21.0,-264.0,-33.0,-69.0,66.0,-2.0,70.0,-1038.0,-35.0
22.0,-271.0,-33.0,-70.0,66.0,0.0,72.0,-1033.0,-27.0
23.0,-271.0,-35.0,-70.0,67.0,0.0,68.0,-1036.0,-25.0
21.0,-268.0,-33.0,-71.0,67.0,2.0,66.0,-1035.0,-31.0
20.0,-271.0,-33.0,-72.0,66.0,1.0,69.0,-1035.0,-26.0
21.0,-271.0,-33.0,-72.0,65.0,2.0,66.0,-1050.0,-28.0
18.0,-269.0,-33.0,-69.0,65.0,3.0,65.0,-1044.0,-26.0
21.0,-272.0,-31.0,-68.0,65.0,1.0,72.0,-1037.0,-33.0
21.0,-273.0,-36.0,-65.0,68.0,-1.0,66.0,-1050.0,-35.0
20.0,-271.0,-32.0,-62.0,73.0,0.0,65.0,-1053.0,-29.0
20.0,-274.0,-33.0,-61.0,75.0,0.0,66.0,-1048.0,-29.0
18.0,-272.0,-31.0,-59.0,77.0,-2.0,64.0,-1042.0,-25.0
25.0,-272.0,-30.0,-58.0,78.0,-2.0,63.0,-1036.0,-23.0
22.0,-271.0,-31.0,-54.0,77.0,-2.0,61.0,-1039.0,-22.0
19.0,-269.0,-31.0,-52.0,75.0,-3.0,64.0,-1040.0,-21.0
20.0,-270.0,-30.0,-51.0,74.0,-4.0,61.0,-1035.0,-20.0
18.0,-271.0,-32.0,-54.0,73.0,-4.0,63.0,-1034.0,-24.0
19.0,-270.0,-32.0,-56.0,72.0,-4.0,58.0,-1038.0,-26.0
22.0,-270.0,-33.0,-59.0,69.0,-3.0,58.0,-1035.0,-29.0
19.0,-272.0,-37.0,-61.0,67.0,-2.0,58.0,-1037.0,-26.0
21.0,-270.0,-32.0,-63.0,67.0,-3.0,62.0,-1051.0,-30.0
20.0,-273.0,-29.0,-62.0,67.0,-1.0,62.0,-1051.0,-26.0
20.0,-270.0,-37.0,-60.0,65.0,0.0,57.0,-1041.0,-32.0
22.0,-271.0,-30.0,-56.0,64.0,-1.0,63.0,-1045.0,-32.0
22.0,-274.0,-35.0,-53.0,65.0,-1.0,62.0,-1049.0,-33.0
17.0,-273.0,-35.0,-50.0,65.0,-1.0,65.0,-1049.0,-25.0
20.0,-272.0,-38.0,-47.0,65.0,0.0,60.0,-1038.0,-33.0
18.0,-271.0,-35.0,-45.0,63.0,-1.0,60.0,-1039.0,-32.0
21.0,-273.0,-37.0,-44.0,60.0,1.0,66.0,-1049.0,-32.0
18.0,-272.0,-35.0,-44.0,60.0,1.0,62.0,-1038.0,-34.0
21.0,-273.0,-32.0,-43.0,60.0,2.0,66.0,-1045.0,-36.0
20.0,-269.0,-35.0,-41.0,60.0,1.0,62.0,-1038.0,-33.0
19.0,-270.0,-32.0,-37.0,64.0,0.0,60.0,-1039.0,-32.0
21.0,-272.0,-32.0,-36.0,62.0,-1.0,61.0,-1034.0,-35.0
19.0,-269.0,-35.0,-35.0,62.0,1.0,62.0,-1040.0,-35.0
19.0,-269.0,-35.0,-36.0,61.0,1.0,57.0,-1039.0,-34.0
20.0,-269.0,-32.0,-34.0,58.0,2.0,63.0,-1037.0,-32.0
19.0,-271.0,-33.0,-34.0,58.0,2.0,63.0,-1037.0,-35.0
20.0,-270.0,-36.0,-34.0,58.0,3.0,65.0,-1035.0,-35.0
19.0,-268.0,-32.0,-33.0,60.0,1.0,58.0,-1036.0,-36.0
22.0,-270.0,-34.0,-33.0,58.0,1.0,62.0,-1039.0,-37.0
21.0,-271.0,-31.0,-35.0,57.0,0.0,67.0,-1034.0,-39.0
21.0,-270.0,-33.0,-34.0,60.0,0.0,66.0,-1038.0,-35.0
18.0,-270.0,-35.0,-35.0,61.0,0.0,59.0,-1036.0,-37.0
21.0,-270.0,-34.0,-37.0,60.0,-1.0,69.0,-1033.0,-39.0
20.0,-270.0,-35.0,-40.0,59.0,0.0,66.0,-1044.0,-36.0
18.0,-269.0,-33.0,-42.0,60.0,-1.0,57.0,-1047.0,-39.0
22.0,-271.0,-33.0,-42.0,59.0,1.0,66.0,-1045.0,-41.0
19.0,-268.0,-35.0,-40.0,60.0,1.0,62.0,-1032.0,-41.0
18.0,-271.0,-40.0,-39.0,60.0,1.0,65.0,-1036.0,-42.0
20.0,-268.0,-41.0,-39.0,61.0,1.0,65.0,-1036.0,-44.0
18.0,-269.0,-36.0,-39.0,62.0,0.0,65.0,-1038.0,-41.0
22.0,-272.0,-38.0,-37.0,64.0,0.0,63.0,-1035.0,-38.0
21.0,-272.0,-37.0,-37.0,65.0,1.0,60.0,-1033.0,-45.0
20.0,-269.0,-38.0,-38.0,66.0,2.0,59.0,-1038.0,-37.0
18.0,-270.0,-39.0,-38.0,66.0,2.0,62.0,-1043.0,-45.0
20.0,-271.0,-34.0,-40.0,65.0,3.0,67.0,-1034.0,-44.0
22.0,-270.0,-38.0,-41.0,65.0,2.0,61.0,-1037.0,-46.0
20.0,-269.0,-41.0,-42.0,63.0,3.0,64.0,-1042.0,-48.0
23.0,-270.0,-38.0,-42.0,64.0,0.0,63.0,-1038.0,-46.0
19.0,-271.0,-43.0,-42.0,65.0,1.0,60.0,-1034.0,-50.0
19.0,-267.0,-37.0,-41.0,66.0,0.0,64.0,-1035.0,-49.0
24.0,-271.0,-39.0,-42.0,66.0,3.0,65.0,-1049.0,-52.0
22.0,-269.0,-36.0,-43.0,65.0,3.0,65.0,-1036.0,-50.0
19.0,-271.0,-36.0,-43.0,66.0,2.0,62.0,-1040.0,-50.0
18.0,-273.0,-36.0,-41.0,68.0,2.0,60.0,-1039.0,-49.0
20.0,-269.0,-43.0,-40.0,66.0,2.0,58.0,-1037.0,-55.0
21.0,-268.0,-38.0,-39.0,66.0,2.0,65.0,-1035.0,-54.0
19.0,-271.0,-38.0,-39.0,68.0,0.0,67.0,-1036.0,-52.0
21.0,-271.0,-40.0,-41.0,72.0,0.0,63.0,-1038.0,-52.0
22.0,-272.0,-42.0,-41.0,75.0,-1.0,62.0,-1040.0,-52.0
19.0,-273.0,-39.0,-40.0,74.0,-4.0,58.0,-1047.0,-52.0
19.0,-271.0,-40.0,-40.0,76.0,-4.0,60.0,-1041.0,-51.0
17.0,-270.0,-41.0,-38.0,75.0,-5.0,59.0,-1041.0,-54.0
20.0,-271.0,-39.0,-37.0,73.0,-5.0,62.0,-1054.0,-54.0
19.0,-271.0,-40.0,-35.0,72.0,-7.0,63.0,-1045.0,-50.0
21.0,-272.0,-41.0,-31.0,73.0,-6.0,66.0,-1050.0,-53.0
21.0,-272.0,-37.0,-28.0,74.0,-7.0,57.0,-1054.0,-51.0
17.0,-272.0,-37.0,-26.0,75.0,-6.0,59.0,-1043.0,-51.0
15.0,-273.0,-37.0,-22.0,71.0,-6.0,55.0,-1041.0,-48.0
20.0,-270.0,-41.0,-21.0,70.0,-5.0,57.0,-1033.0,-49.0
17.0,-270.0,-36.0,-19.0,70.0,-5.0,54.0,-1035.0,-52.0
17.0,-273.0,-37.0,-18.0,69.0,-3.0,60.0,-1040.0,-48.0
16.0,-271.0,-37.0,-19.0,67.0,-5.0,59.0,-1035.0,-48.0
18.0,-270.0,-36.0,-18.0,66.0,-3.0,59.0,-1038.0,-52.0
18.0,-270.0,-38.0,-16.0,65.0,-4.0,56.0,-1034.0,-49.0
19.0,-268.0,-41.0,-17.0,65.0,-3.0,61.0,-1041.0,-52.0
19.0,-269.0,-41.0,-15.0,63.0,-4.0,59.0,-1042.0,-52.0
20.0,-271.0,-37.0,-17.0,62.0,-2.0,60.0,-1045.0,-54.0
19.0,-268.0,-37.0,-17.0,62.0,-3.0,67.0,-1034.0,-51.0
20.0,-270.0,-41.0,-18.0,63.0,-4.0,61.0,-1044.0,-50.0
21.0,-273.0,-41.0,-16.0,64.0,-4.0,56.0,-1045.0,-46.0
19.0,-270.0,-37.0,-15.0,64.0,-3.0,59.0,-1048.0,-52.0
21.0,-272.0,-37.0,-15.0,65.0,-5.0,65.0,-1044.0,-47.0
19.0,-267.0,-35.0,-13.0,65.0,-4.0,66.0,-1048.0,-39.0
22.0,-272.0,-37.0,-12.0,65.0,-5.0,67.0,-1053.0,-46.0
20.0,-270.0,-40.0,-11.0,67.0,-5.0,66.0,-1039.0,-47.0
20.0,-273.0,-37.0,-8.0,67.0,-6.0,64.0,-1047.0,-47.0
20.0,-271.0,-39.0,-6.0,70.0,-5.0,60.0,-1046.0,-45.0
18.0,-270.0,-40.0,-6.0,69.0,-6.0,68.0,-1039.0,-46.0
21.0,-274.0,-39.0,-5.0,68.0,-6.0,62.0,-1039.0,-49.0
20.0,-272.0,-37.0,-4.0,68.0,-8.0,63.0,-1037.0,-40.0
19.0,-271.0,-40.0,-3.0,68.0,-7.0,58.0,-1035.0,-44.0
19.0,-268.0,-39.0,-3.0,68.0,-8.0,60.0,-1035.0,-42.0
20.0,-269.0,-35.0,-3.0,66.0,-5.0,62.0,-1037.0,-44.0
19.0,-270.0,-39.0,-3.0,65.0,-8.0,56.0,-1044.0,-42.0
17.0,-271.0,-36.0,-3.0,65.0,-6.0,63.0,-1037.0,-40.0
19.0,-271.0,-40.0,-3.0,65.0,-9.0,63.0,-1040.0,-39.0
23.0,-273.0,-39.0,0.0,65.0,-8.0,57.0,-1038.0,-42.0
20.0,-270.0,-34.0,0.0,67.0,-8.0,60.0,-1047.0,-39.0
20.0,-271.0,-36.0,2.0,68.0,-8.0,65.0,-1046.0,-38.0
18.0,-271.0,-35.0,4.0,68.0,-8.0,58.0,-1041.0,-36.0
19.0,-271.0,-34.0,6.0,68.0,-7.0,56.0,-1047.0,-36.0
17.0,-268.0,-37.0,9.0,69.0,-9.0,55.0,-1048.0,-36.0
19.0,-271.0,-31.0,9.0,68.0,-7.0,55.0,-1040.0,-29.0
16.0,-271.0,-34.0,6.0,67.0,-10.0,55.0,-1040.0,-32.0
19.0,-270.0,-29.0,7.0,67.0,-7.0,53.0,-1040.0,-35.0
21.0,-270.0,-34.0,5.0,68.0,-9.0,58.0,-1045.0,-35.0
17.0,-269.0,-39.0,5.0,68.0,-8.0,57.0,-1041.0,-37.0
17.0,-267.0,-34.0,5.0,67.0,-9.0,55.0,-1043.0,-43.0
16.0,-268.0,-37.0,4.0,64.0,-6.0,51.0,-1038.0,-42.0
17.0,-271.0,-33.0,6.0,61.0,-6.0,51.0,-1053.0,-46.0
17.0,-271.0,-34.0,7.0,55.0,-4.0,56.0,-1037.0,-35.0
19.0,-271.0,-32.0,11.0,53.0,-6.0,55.0,-1039.0,-34.0
19.0,-272.0,-32.0,15.0,56.0,-4.0,59.0,-1039.0,-30.0
21.0,-269.0,-31.0,19.0,58.0,-7.0,66.0,-1036.0,-27.0
20.0,-266.0,-31.0,19.0,65.0,-7.0,65.0,-1035.0,-30.0
22.0,-269.0,-32.0,17.0,68.0,-9.0,67.0,-1038.0,-24.0
22.0,-268.0,-33.0,13.0,74.0,-8.0,72.0,-1033.0,-26.0
20.0,-268.0,-34.0,11.0,79.0,-12.0,73.0,-1034.0,-20.0
23.0,-272.0,-33.0,11.0,83.0,-10.0,73.0,-1031.0,-12.0
21.0,-271.0,-32.0,13.0,87.0,-11.0,73.0,-1036.0,-17.0
24.0,-267.0,-30.0,15.0,89.0,-9.0,72.0,-1041.0,-15.0
23.0,-267.0,-30.0,15.0,90.0,-10.0,71.0,-1034.0,-19.0
23.0,-268.0,-27.0,15.0,91.0,-7.0,68.0,-1028.0,-14.0
21.0,-269.0,-31.0,12.0,90.0,-9.0,71.0,-1029.0,-22.0
19.0,-267.0,-30.0,7.0,91.0,-6.0,68.0,-1027.0,-18.0
21.0,-271.0,-33.0,2.0,93.0,-9.0,67.0,-1026.0,-24.0
21.0,-267.0,-32.0,-3.0,96.0,-8.0,64.0,-1027.0,-25.0
21.0,-268.0,-31.0,-8.0,95.0,-10.0,63.0,-1030.0,-28.0
21.0,-267.0,-33.0,-12.0,95.0,-10.0,65.0,-1032.0,-35.0
17.0,-267.0,-35.0,-16.0,95.0,-12.0,65.0,-1030.0,-34.0
19.0,-270.0,-34.0,-19.0,94.0,-10.0,59.0,-1034.0,-41.0
17.0,-268.0,-37.0,-19.0,91.0,-11.0,59.0,-1033.0,-36.0
19.0,-271.0,-40.0,-19.0,88.0,-10.0,54.0,-1032.0,-35.0
16.0,-269.0,-35.0,-16.0,87.0,-10.0,52.0,-1040.0,-33.0
18.0,-271.0,-34.0,-15.0,83.0,-9.0,55.0,-1032.0,-33.0
19.0,-269.0,-34.0,-13.0,82.0,-10.0,53.0,-1032.0,-38.0
18.0,-269.0,-34.0,-13.0,80.0,-7.0,51.0,-1041.0,-31.0
17.0,-270.0,-29.0,-15.0,78.0,-9.0,54.0,-1037.0,-32.0
17.0,-269.0,-35.0,-15.0,75.0,-9.0,50.0,-1044.0,-35.0
16.0,-267.0,-32.0,-15.0,71.0,-10.0,46.0,-1033.0,-32.0
15.0,-273.0,-36.0,-16.0,68.0,-8.0,53.0,-1038.0,-29.0
18.0,-274.0,-31.0,-18.0,63.0,-8.0,53.0,-1038.0,-24.0
18.0,-273.0,-35.0,-18.0,57.0,-7.0,53.0,-1037.0,-29.0
17.0,-271.0,-30.0,-20.0,53.0,-6.0,54.0,-1039.0,-34.0
21.0,-272.0,-36.0,-22.0,51.0,-3.0,53.0,-1046.0,-31.0
19.0,-268.0,-35.0,-23.0,49.0,-5.0,55.0,-1046.0,-36.0
19.0,-270.0,-37.0,-21.0,46.0,-2.0,60.0,-1052.0,-38.0
19.0,-272.0,-37.0,-21.0,47.0,-4.0,63.0,-1035.0,-38.0
18.0,-270.0,-35.0,-22.0,47.0,-2.0,64.0,-1035.0,-34.0
22.0,-272.0,-37.0,-22.0,48.0,-4.0,60.0,-1039.0,-40.0
22.0,-271.0,-40.0,-21.0,47.0,-2.0,65.0,-1040.0,-43.0
16.0,-270.0,-38.0,-24.0,47.0,-4.0,64.0,-1045.0,-46.0
21.0,-267.0,-39.0,-23.0,45.0,-3.0,70.0,-1050.0,-45.0
21.0,-272.0,-36.0,-19.0,43.0,-5.0,69.0,-1039.0,-45.0
24.0,-274.0,-34.0,-16.0,45.0,-3.0,66.0,-1052.0,-47.0
22.0,-272.0,-39.0,-13.0,45.0,-5.0,68.0,-1050.0,-47.0
19.0,-270.0,-38.0,-9.0,46.0,-2.0,64.0,-1039.0,-46.0
21.0,-270.0,-38.0,-8.0,47.0,-5.0,69.0,-1044.0,-39.0
22.0,-271.0,-33.0,-4.0,48.0,-4.0,64.0,-1036.0,-37.0
21.0,-271.0,-35.0,-3.0,51.0,-6.0,70.0,-1036.0,-36.0
22.0,-269.0,-33.0,-3.0,52.0,-5.0,71.0,-1037.0,-38.0
20.0,-266.0,-38.0,-4.0,53.0,-7.0,67.0,-1031.0,-39.0
21.0,-269.0,-33.0,-6.0,53.0,-5.0,65.0,-1033.0,-36.0
21.0,-270.0,-36.0,-8.0,55.0,-7.0,66.0,-1033.0,-40.0
21.0,-271.0,-36.0,-11.0,56.0,-7.0,68.0,-1036.0,-37.0
20.0,-271.0,-38.0,-15.0,54.0,-10.0,71.0,-1036.0,-39.0
20.0,-269.0,-35.0,-16.0,54.0,-8.0,65.0,-1035.0,-37.0
19.0,-270.0,-32.0,-17.0,55.0,-9.0,68.0,-1031.0,-38.0
21.0,-269.0,-37.0,-16.0,58.0,-8.0,63.0,-1034.0,-37.0
20.0,-268.0,-35.0,-18.0,58.0,-9.0,63.0,-1029.0,-34.0
20.0,-271.0,-36.0,-21.0,58.0,-7.0,64.0,-1033.0,-33.0
25.0,-260.0,-38.0,-24.0,57.0,-8.0,62.0,-1035.0,-36.0
21.0,-268.0,-36.0,-24.0,57.0,-6.0,66.0,-1042.0,-37.0
19.0,-269.0,-34.0,-25.0,57.0,-7.0,68.0,-1036.0,-36.0
21.0,-270.0,-35.0,-26.0,60.0,-4.0,65.0,-1039.0,-37.0
18.0,-272.0,-35.0,-27.0,61.0,-9.0,68.0,-1037.0,-35.0
21.0,-271.0,-36.0,-25.0,60.0,-6.0,67.0,-1037.0,-33.0
21.0,-267.0,-38.0,-25.0,63.0,-7.0,67.0,-1037.0,-38.0
19.0,-269.0,-33.0,-24.0,63.0,-6.0,67.0,-1041.0,-34.0
22.0,-270.0,-37.0,-25.0,65.0,-7.0,66.0,-1037.0,-38.0
22.0,-272.0,-35.0,-25.0,65.0,-6.0,67.0,-1032.0,-40.0
24.0,-272.0,-37.0,-24.0,66.0,-10.0,65.0,-1034.0,-43.0
21.0,-269.0,-34.0,-24.0,66.0,-7.0,63.0,-1041.0,-39.0
20.0,-269.0,-37.0,-22.0,65.0,-7.0,69.0,-1033.0,-39.0
24.0,-269.0,-32.0,-22.0,65.0,-6.0,65.0,-1033.0,-41.0
21.0,-271.0,-37.0,-21.0,65.0,-7.0,66.0,-1032.0,-37.0
20.0,-269.0,-33.0,-23.0,66.0,-5.0,66.0,-1034.0,-36.0
21.0,-268.0,-37.0,-22.0,67.0,-7.0,64.0,-1030.0,-38.0
18.0,-270.0,-37.0,-22.0,65.0,-4.0,67.0,-1035.0,-46.0
19.0,-267.0,-38.0,-24.0,64.0,-5.0,68.0,-1037.0,-45.0
21.0,-269.0,-36.0,-24.0,63.0,-3.0,65.0,-1034.0,-42.0
21.0,-270.0,-39.0,-25.0,64.0,-4.0,66.0,-1045.0,-46.0
19.0,-271.0,-38.0,-24.0,64.0,-3.0,68.0,-1038.0,-43.0
22.0,-273.0,-35.0,-23.0,65.0,-5.0,66.0,-1033.0,-34.0
20.0,-273.0,-37.0,-23.0,65.0,-2.0,67.0,-1036.0,-37.0
22.0,-270.0,-40.0,-22.0,65.0,-4.0,67.0,-1051.0,-39.0
19.0,-268.0,-33.0,-24.0,65.0,-1.0,67.0,-1038.0,-39.0
19.0,-270.0,-34.0,-24.0,65.0,-3.0,68.0,-1038.0,-42.0
20.0,-272.0,-32.0,-23.0,65.0,-1.0,68.0,-1043.0,-37.0
19.0,-269.0,-35.0,-23.0,64.0,-4.0,65.0,-1043.0,-34.0
19.0,-271.0,-37.0,-23.0,66.0,0.0,68.0,-1035.0,-40.0
21.0,-269.0,-36.0,-23.0,67.0,-3.0,66.0,-1036.0,-37.0
23.0,-271.0,-40.0,-25.0,67.0,0.0,66.0,-1038.0,-36.0
21.0,-270.0,-37.0,-25.0,66.0,-2.0,68.0,-1034.0,-37.0
22.0,-269.0,-37.0,-26.0,66.0,1.0,73.0,-1030.0,-44.0
23.0,-271.0,-36.0,-26.0,68.0,-1.0,67.0,-1039.0,-38.0
24.0,-268.0,-36.0,-24.0,68.0,1.0,66.0,-1032.0,-39.0
20.0,-271.0,-40.0,-27.0,67.0,-2.0,66.0,-1033.0,-46.0
19.0,-269.0,-36.0,-26.0,69.0,0.0,65.0,-1035.0,-40.0
20.0,-269.0,-36.0,-27.0,71.0,-3.0,68.0,-1035.0,-44.0
22.0,-272.0,-40.0,-27.0,73.0,-1.0,65.0,-1034.0,-42.0
21.0,-268.0,-39.0,-28.0,73.0,-3.0,66.0,-1032.0,-43.0
21.0,-270.0,-34.0,-28.0,73.0,-1.0,63.0,-1036.0,-42.0
22.0,-272.0,-37.0,-28.0,71.0,-3.0,68.0,-1037.0,-39.0
20.0,-268.0,-36.0,-26.0,70.0,-1.0,71.0,-1038.0,-42.0
22.0,-269.0,-37.0,-27.0,71.0,-3.0,66.0,-1044.0,-42.0
20.0,-271.0,-37.0,-26.0,69.0,0.0,67.0,-1035.0,-40.0
20.0,-270.0,-34.0,-25.0,67.0,-1.0,67.0,-1040.0,-38.0
20.0,-271.0,-38.0,-26.0,69.0,0.0,65.0,-1047.0,-39.0
19.0,-274.0,-36.0,-25.0,69.0,-3.0,65.0,-1046.0,-41.0
22.0,-272.0,-38.0,-26.0,71.0,-1.0,66.0,-1048.0,-38.0
24.0,-273.0,-35.0,-27.0,72.0,-4.0,64.0,-1051.0,-44.0
17.0,-270.0,-34.0,-26.0,74.0,-1.0,57.0,-1049.0,-38.0
19.0,-271.0,-33.0,-25.0,74.0,-3.0,65.0,-1041.0,-33.0
21.0,-270.0,-37.0,-26.0,74.0,0.0,68.0,-1041.0,-38.0
19.0,-273.0,-34.0,-24.0,72.0,-3.0,65.0,-1037.0,-34.0
21.0,-269.0,-36.0,-24.0,72.0,-1.0,72.0,-1044.0,-39.0
23.0,-273.0,-40.0,-21.0,70.0,-3.0,68.0,-1036.0,-44.0
20.0,-269.0,-36.0,-19.0,70.0,-2.0,67.0,-1036.0,-46.0
22.0,-269.0,-37.0,-18.0,69.0,-2.0,70.0,-1034.0,-45.0
22.0,-271.0,-35.0,-18.0,71.0,0.0,67.0,-1034.0,-46.0
18.0,-269.0,-36.0,-18.0,71.0,-4.0,72.0,-1036.0,-39.0
22.0,-268.0,-35.0,-18.0,71.0,0.0,70.0,-1032.0,-41.0
19.0,-270.0,-33.0,-17.0,70.0,-2.0,65.0,-1042.0,-36.0
19.0,-268.0,-39.0,-16.0,71.0,-1.0,67.0,-1050.0,-39.0
22.0,-274.0,-36.0,-15.0,71.0,-3.0,66.0,-1045.0,-37.0
22.0,-270.0,-38.0,-16.0,73.0,-1.0,68.0,-1045.0,-39.0
22.0,-269.0,-36.0,-14.0,74.0,-3.0,68.0,-1035.0,-35.0
20.0,-271.0,-35.0,-12.0,76.0,0.0,65.0,-1035.0,-36.0
22.0,-271.0,-35.0,-12.0,74.0,-3.0,64.0,-1040.0,-35.0
17.0,-270.0,-34.0,-12.0,73.0,0.0,62.0,-1035.0,-35.0
22.0,-270.0,-35.0,-11.0,72.0,-1.0,67.0,-1034.0,-32.0
21.0,-266.0,-37.0,-11.0,71.0,1.0,64.0,-1036.0,-27.0
21.0,-270.0,-31.0,-9.0,71.0,0.0,67.0,-1030.0,-32.0
19.0,-270.0,-34.0,-11.0,71.0,3.0,64.0,-1033.0,-32.0
20.0,-268.0,-35.0,-13.0,68.0,0.0,67.0,-1033.0,-37.0
21.0,-271.0,-34.0,-16.0,67.0,1.0,62.0,-1043.0,-36.0
20.0,-271.0,-36.0,-18.0,69.0,-2.0,65.0,-1041.0,-40.0
18.0,-269.0,-30.0,-20.0,69.0,1.0,59.0,-1037.0,-37.0
20.0,-272.0,-34.0,-22.0,69.0,-3.0,59.0,-1033.0,-36.0
23.0,-273.0,-38.0,-22.0,68.0,0.0,63.0,-1046.0,-35.0
19.0,-268.0,-35.0,-23.0,66.0,-3.0,66.0,-1039.0,-44.0
21.0,-270.0,-37.0,-23.0,68.0,0.0,69.0,-1049.0,-36.0
19.0,-271.0,-36.0,-22.0,68.0,-3.0,64.0,-1041.0,-39.0
22.0,-273.0,-37.0,-20.0,68.0,0.0,65.0,-1036.0,-44.0
20.0,-271.0,-36.0,-21.0,69.0,-3.0,68.0,-1040.0,-38.0
20.0,-269.0,-34.0,-21.0,69.0,-1.0,62.0,-1036.0,-39.0
20.0,-269.0,-35.0,-20.0,67.0,-1.0,66.0,-1037.0,-38.0
22.0,-269.0,-36.0,-18.0,68.0,-1.0,68.0,-1033.0,-35.0
21.0,-269.0,-34.0,-16.0,68.0,-2.0,63.0,-1044.0,-38.0
21.0,-270.0,-33.0,-15.0,67.0,0.0,66.0,-1042.0,-37.0
20.0,-268.0,-35.0,-15.0,68.0,-4.0,64.0,-1045.0,-37.0
20.0,-271.0,-38.0,-15.0,66.0,0.0,65.0,-1036.0,-39.0
21.0,-272.0,-33.0,-15.0,67.0,-3.0,61.0,-1035.0,-40.0
22.0,-270.0,-33.0,-15.0,66.0,-1.0,64.0,-1035.0,-38.0
20.0,-272.0,-37.0,-17.0,64.0,-1.0,67.0,-1033.0,-39.0
19.0,-268.0,-35.0,-18.0,63.0,1.0,64.0,-1043.0,-38.0
19.0,-266.0,-36.0,-19.0,63.0,-1.0,64.0,-1033.0,-36.0
20.0,-268.0,-38.0,-18.0,63.0,1.0,63.0,-1039.0,-37.0
20.0,-269.0,-37.0,-19.0,62.0,-1.0,64.0,-1041.0,-37.0
21.0,-272.0,-33.0,-19.0,63.0,1.0,61.0,-1033.0,-39.0
20.0,-269.0,-33.0,-17.0,63.0,-2.0,63.0,-1033.0,-39.0
20.0,-269.0,-36.0,-18.0,61.0,0.0,61.0,-1033.0,-42.0
19.0,-265.0,-35.0,-19.0,61.0,-3.0,64.0,-1032.0,-44.0
20.0,-269.0,-35.0,-20.0,59.0,0.0,61.0,-1033.0,-38.0
22.0,-270.0,-32.0,-20.0,59.0,-2.0,61.0,-1035.0,-39.0
18.0,-272.0,-39.0,-19.0,59.0,0.0,62.0,-1035.0,-38.0
23.0,-269.0,-37.0,-20.0,59.0,-3.0,60.0,-1031.0,-38.0
18.0,-269.0,-34.0,-20.0,57.0,-1.0,59.0,-1034.0,-35.0
19.0,-270.0,-36.0,-22.0,56.0,-3.0,63.0,-1037.0,-34.0
20.0,-270.0,-36.0,-22.0,55.0,0.0,63.0,-1035.0,-36.0
20.0,-268.0,-34.0,-21.0,55.0,-2.0,66.0,-1035.0,-35.0
23.0,-270.0,-40.0,-22.0,56.0,0.0,65.0,-1037.0,-35.0
19.0,-265.0,-33.0,-23.0,56.0,-4.0,63.0,-1038.0,-40.0
22.0,-269.0,-34.0,-25.0,56.0,-1.0,66.0,-1037.0,-35.0
20.0,-271.0,-37.0,-27.0,54.0,-4.0,61.0,-1033.0,-36.0
20.0,-270.0,-34.0,-28.0,53.0,-2.0,67.0,-1034.0,-36.0
22.0,-270.0,-36.0,-29.0,54.0,-3.0,68.0,-1035.0,-38.0
21.0,-270.0,-36.0,-30.0,54.0,-2.0,67.0,-1038.0,-42.0
23.0,-269.0,-36.0,-32.0,54.0,-4.0,67.0,-1040.0,-39.0
22.0,-271.0,-36.0,-34.0,54.0,-1.0,71.0,-1045.0,-39.0
22.0,-273.0,-34.0,-35.0,53.0,-4.0,67.0,-1037.0,-41.0
21.0,-271.0,-36.0,-35.0,52.0,-1.0,63.0,-1037.0,-37.0
21.0,-273.0,-35.0,-37.0,53.0,-2.0,62.0,-1045.0,-43.0
19.0,-270.0,-36.0,-37.0,52.0,0.0,65.0,-1033.0,-44.0
21.0,-272.0,-39.0,-38.0,53.0,-3.0,71.0,-1042.0,-46.0
20.0,-269.0,-34.0,-37.0,53.0,0.0,63.0,-1037.0,-46.0
20.0,-268.0,-35.0,-37.0,54.0,-2.0,67.0,-1041.0,-47.0
20.0,-271.0,-33.0,-36.0,54.0,2.0,62.0,-1037.0,-44.0
21.0,-267.0,-38.0,-33.0,55.0,-2.0,65.0,-1047.0,-41.0
20.0,-273.0,-33.0,-31.0,54.0,1.0,64.0,-1042.0,-46.0
21.0,-271.0,-35.0,-31.0,54.0,0.0,65.0,-1037.0,-44.0
20.0,-271.0,-35.0,-28.0,54.0,3.0,68.0,-1041.0,-47.0
21.0,-270.0,-38.0,-29.0,55.0,1.0,64.0,-1037.0,-44.0
22.0,-270.0,-34.0,-27.0,55.0,2.0,65.0,-1038.0,-45.0
21.0,-269.0,-36.0,-28.0,57.0,-1.0,64.0,-1042.0,-44.0
22.0,-271.0,-35.0,-27.0,56.0,2.0,64.0,-1035.0,-43.0
20.0,-266.0,-36.0,-27.0,56.0,-1.0,66.0,-1037.0,-38.0
20.0,-270.0,-38.0,-27.0,57.0,2.0,65.0,-1038.0,-43.0
22.0,-270.0,-40.0,-26.0,58.0,-1.0,66.0,-1035.0,-43.0
21.0,-270.0,-34.0,-26.0,57.0,0.0,65.0,-1050.0,-50.0
20.0,-273.0,-38.0,-26.0,60.0,-3.0,64.0,-1033.0,-45.0
23.0,-272.0,-40.0,-30.0,62.0,0.0,68.0,-1044.0,-40.0
19.0,-269.0,-38.0,-36.0,65.0,-4.0,69.0,-1035.0,-47.0
18.0,-271.0,-37.0,-45.0,70.0,-3.0,67.0,-1035.0,-51.0
24.0,-272.0,-41.0,-56.0,79.0,-8.0,67.0,-1044.0,-54.0
23.0,-272.0,-36.0,-65.0,92.0,-10.0,69.0,-1047.0,-54.0
25.0,-271.0,-37.0,-69.0,105.0,-15.0,65.0,-1054.0,-55.0
22.0,-273.0,-38.0,-66.0,116.0,-15.0,67.0,-1055.0,-60.0
25.0,-275.0,-46.0,-57.0,123.0,-18.0,73.0,-1060.0,-68.0
24.0,-270.0,-45.0,-49.0,127.0,-18.0,74.0,-1063.0,-66.0
21.0,-275.0,-41.0,-39.0,132.0,-21.0,75.0,-1056.0,-70.0
21.0,-274.0,-43.0,-33.0,131.0,-19.0,72.0,-1059.0,-57.0
21.0,-273.0,-45.0,-26.0,130.0,-21.0,68.0,-1051.0,-71.0
22.0,-274.0,-40.0,-23.0,123.0,-17.0,68.0,-1049.0,-58.0
23.0,-273.0,-40.0,-25.0,116.0,-19.0,68.0,-1047.0,-61.0
24.0,-273.0,-41.0,-26.0,110.0,-14.0,71.0,-1040.0,-59.0
24.0,-272.0,-40.0,-25.0,105.0,-13.0,67.0,-1035.0,-61.0
23.0,-270.0,-45.0,-25.0,103.0,-8.0,67.0,-1040.0,-55.0
19.0,-270.0,-37.0,-21.0,100.0,-10.0,65.0,-1042.0,-55.0
19.0,-272.0,-43.0,-19.0,96.0,-4.0,64.0,-1035.0,-66.0
19.0,-268.0,-41.0,-15.0,92.0,-7.0,57.0,-1033.0,-64.0
21.0,-269.0,-40.0,-14.0,91.0,-3.0,61.0,-1031.0,-69.0
22.0,-270.0,-42.0,-14.0,91.0,-5.0,62.0,-1028.0,-68.0
18.0,-269.0,-48.0,-12.0,91.0,-2.0,61.0,-1035.0,-68.0
20.0,-266.0,-42.0,-12.0,93.0,-5.0,61.0,-1031.0,-72.0
18.0,-268.0,-46.0,-11.0,93.0,-2.0,58.0,-1029.0,-63.0
18.0,-270.0,-41.0,-10.0,94.0,-6.0,56.0,-1025.0,-67.0
19.0,-265.0,-43.0,-7.0,94.0,-3.0,58.0,-1028.0,-71.0
16.0,-265.0,-42.0,-5.0,91.0,-4.0,54.0,-1028.0,-68.0
20.0,-268.0,-43.0,-5.0,87.0,-2.0,56.0,-1027.0,-65.0
20.0,-270.0,-43.0,-6.0,83.0,-5.0,58.0,-1026.0,-55.0
18.0,-265.0,-41.0,-9.0,80.0,-1.0,56.0,-1027.0,-63.0
16.0,-268.0,-41.0,-9.0,76.0,-4.0,55.0,-1027.0,-57.0
21.0,-268.0,-40.0,-11.0,73.0,-2.0,55.0,-1028.0,-59.0
18.0,-264.0,-44.0,-15.0,73.0,-5.0,57.0,-1030.0,-56.0
20.0,-267.0,-42.0,-19.0,71.0,-3.0,57.0,-1025.0,-55.0
20.0,-268.0,-38.0,-22.0,69.0,-6.0,58.0,-1030.0,-62.0
16.0,-271.0,-45.0,-27.0,66.0,-4.0,53.0,-1027.0,-53.0
16.0,-270.0,-41.0,-32.0,63.0,-6.0,55.0,-1032.0,-54.0
20.0,-264.0,-41.0,-33.0,61.0,-5.0,57.0,-1030.0,-50.0
22.0,-269.0,-43.0,-37.0,59.0,-8.0,56.0,-1032.0,-52.0
20.0,-269.0,-37.0,-40.0,56.0,-6.0,56.0,-1031.0,-58.0
17.0,-270.0,-42.0,-43.0,57.0,-9.0,54.0,-1032.0,-55.0
19.0,-268.0,-44.0,-44.0,54.0,-7.0,57.0,-1030.0,-59.0
20.0,-269.0,-40.0,-44.0,53.0,-8.0,56.0,-1034.0,-63.0
22.0,-268.0,-42.0,-45.0,50.0,-6.0,61.0,-1035.0,-55.0
18.0,-270.0,-43.0,-44.0,48.0,-8.0,58.0,-1034.0,-53.0
20.0,-270.0,-42.0,-44.0,45.0,-5.0,60.0,-1032.0,-59.0
20.0,-267.0,-42.0,-44.0,42.0,-8.0,58.0,-1045.0,-54.0
16.0,-269.0,-42.0,-43.0,40.0,-6.0,60.0,-1036.0,-57.0
18.0,-269.0,-46.0,-43.0,39.0,-8.0,58.0,-1045.0,-55.0
20.0,-271.0,-38.0,-42.0,40.0,-6.0,61.0,-1044.0,-57.0
19.0,-271.0,-41.0,-41.0,38.0,-8.0,62.0,-1035.0,-54.0
21.0,-269.0,-39.0,-39.0,38.0,-4.0,58.0,-1036.0,-53.0
22.0,-271.0,-43.0,-37.0,36.0,-6.0,62.0,-1035.0,-50.0
20.0,-270.0,-40.0,-38.0,36.0,-3.0,58.0,-1032.0,-52.0
19.0,-268.0,-41.0,-37.0,35.0,-5.0,63.0,-1036.0,-48.0
21.0,-268.0,-38.0,-40.0,35.0,-2.0,70.0,-1043.0,-52.0
21.0,-269.0,-39.0,-43.0,34.0,-5.0,62.0,-1034.0,-51.0
23.0,-271.0,-38.0,-45.0,36.0,-1.0,69.0,-1036.0,-52.0
20.0,-268.0,-41.0,-46.0,37.0,-1.0,69.0,-1030.0,-53.0
22.0,-268.0,-41.0,-47.0,35.0,3.0,69.0,-1035.0,-56.0
23.0,-270.0,-43.0,-50.0,33.0,-1.0,71.0,-1032.0,-55.0
23.0,-270.0,-45.0,-49.0,34.0,3.0,70.0,-1037.0,-59.0
24.0,-270.0,-42.0,-51.0,33.0,3.0,74.0,-1038.0,-54.0
23.0,-270.0,-45.0,-51.0,35.0,5.0,75.0,-1032.0,-59.0
23.0,-271.0,-45.0,-50.0,36.0,5.0,74.0,-1039.0,-67.0
22.0,-270.0,-41.0,-48.0,39.0,6.0,74.0,-1034.0,-61.0
21.0,-270.0,-45.0,-49.0,42.0,3.0,70.0,-1042.0,-68.0
23.0,-273.0,-43.0,-47.0,45.0,4.0,73.0,-1039.0,-62.0
24.0,-271.0,-45.0,-48.0,48.0,1.0,72.0,-1033.0,-63.0
23.0,-270.0,-40.0,-46.0,48.0,1.0,70.0,-1036.0,-68.0
22.0,-269.0,-41.0,-47.0,50.0,0.0,67.0,-1039.0,-62.0
22.0,-273.0,-40.0,-45.0,51.0,3.0,71.0,-1036.0,-60.0
19.0,-269.0,-38.0,-45.0,52.0,3.0,68.0,-1050.0,-63.0
20.0,-270.0,-41.0,-44.0,54.0,5.0,70.0,-1038.0,-60.0
22.0,-272.0,-43.0,-43.0,53.0,3.0,65.0,-1038.0,-56.0
21.0,-273.0,-38.0,-42.0,53.0,4.0,67.0,-1048.0,-60.0
20.0,-270.0,-45.0,-42.0,55.0,1.0,66.0,-1057.0,-59.0
21.0,-271.0,-42.0,-43.0,55.0,2.0,68.0,-1034.0,-57.0
22.0,-271.0,-40.0,-40.0,56.0,1.0,62.0,-1046.0,-66.0
19.0,-271.0,-43.0,-39.0,55.0,4.0,70.0,-1031.0,-64.0
21.0,-270.0,-48.0,-37.0,57.0,2.0,65.0,-1034.0,-61.0
22.0,-271.0,-38.0,-37.0,57.0,4.0,66.0,-1032.0,-59.0
20.0,-272.0,-45.0,-37.0,56.0,3.0,65.0,-1036.0,-65.0
21.0,-269.0,-42.0,-36.0,55.0,3.0,69.0,-1033.0,-58.0
24.0,-269.0,-41.0,-34.0,57.0,2.0,71.0,-1037.0,-64.0
22.0,-268.0,-45.0,-36.0,57.0,1.0,64.0,-1029.0,-55.0
18.0,-267.0,-43.0,-36.0,58.0,1.0,69.0,-1032.0,-53.0
20.0,-272.0,-45.0,-35.0,59.0,1.0,63.0,-1032.0,-58.0
23.0,-271.0,-41.0,-36.0,60.0,0.0,68.0,-1033.0,-61.0
18.0,-269.0,-43.0,-35.0,59.0,1.0,67.0,-1036.0,-56.0
22.0,-271.0,-42.0,-37.0,57.0,-2.0,65.0,-1030.0,-57.0
20.0,-268.0,-39.0,-36.0,60.0,0.0,63.0,-1032.0,-56.0
22.0,-266.0,-43.0,-36.0,60.0,-1.0,66.0,-1042.0,-57.0
23.0,-271.0,-38.0,-38.0,58.0,0.0,65.0,-1035.0,-56.0
18.0,-271.0,-44.0,-39.0,58.0,-2.0,69.0,-1037.0,-62.0
23.0,-270.0,-41.0,-40.0,60.0,0.0,67.0,-1039.0,-63.0
21.0,-270.0,-41.0,-38.0,60.0,-1.0,66.0,-1034.0,-59.0
20.0,-269.0,-40.0,-38.0,61.0,1.0,65.0,-1035.0,-64.0
20.0,-269.0,-43.0,-39.0,61.0,-1.0,66.0,-1033.0,-57.0
21.0,-269.0,-41.0,-39.0,59.0,3.0,64.0,-1032.0,-58.0
22.0,-266.0,-46.0,-38.0,57.0,0.0,68.0,-1035.0,-66.0
20.0,-269.0,-40.0,-40.0,57.0,1.0,69.0,-1036.0,-62.0
23.0,-268.0,-43.0,-40.0,57.0,1.0,68.0,-1037.0,-68.0
20.0,-269.0,-43.0,-39.0,59.0,3.0,67.0,-1041.0,-66.0
21.0,-270.0,-41.0,-41.0,59.0,2.0,69.0,-1036.0,-70.0
22.0,-269.0,-46.0,-40.0,62.0,3.0,68.0,-1034.0,-71.0
21.0,-271.0,-48.0,-39.0,63.0,1.0,70.0,-1037.0,-66.0
20.0,-268.0,-46.0,-38.0,65.0,2.0,68.0,-1034.0,-64.0
20.0,-268.0,-42.0,-40.0,68.0,-1.0,66.0,-1035.0,-71.0
21.0,-271.0,-41.0,-39.0,67.0,-1.0,69.0,-1042.0,-69.0
21.0,-270.0,-41.0,-36.0,69.0,-1.0,66.0,-1044.0,-65.0
21.0,-270.0,-45.0,-36.0,68.0,2.0,63.0,-1036.0,-70.0
19.0,-272.0,-38.0,-36.0,70.0,-1.0,70.0,-1038.0,-68.0
22.0,-270.0,-41.0,-35.0,70.0,1.0,63.0,-1034.0,-69.0
20.0,-269.0,-40.0,-33.0,67.0,0.0,69.0,-1041.0,-67.0
20.0,-270.0,-41.0,-33.0,67.0,0.0,67.0,-1034.0,-66.0
20.0,-270.0,-43.0,-33.0,70.0,-1.0,62.0,-1030.0,-67.0
20.0,-268.0,-44.0,-32.0,70.0,0.0,64.0,-1032.0,-63.0
21.0,-270.0,-44.0,-32.0,70.0,-3.0,67.0,-1034.0,-68.0
22.0,-271.0,-43.0,-33.0,69.0,-2.0,66.0,-1038.0,-71.0
21.0,-270.0,-40.0,-33.0,71.0,-2.0,66.0,-1032.0,-68.0
21.0,-271.0,-46.0,-32.0,74.0,-1.0,60.0,-1034.0,-67.0
21.0,-271.0,-43.0,-31.0,75.0,-2.0,61.0,-1036.0,-66.0
22.0,-271.0,-45.0,-29.0,74.0,1.0,61.0,-1041.0,-71.0
23.0,-270.0,-43.0,-27.0,72.0,0.0,66.0,-1036.0,-74.0
22.0,-273.0,-44.0,-24.0,74.0,0.0,60.0,-1045.0,-71.0
18.0,-269.0,-43.0,-21.0,77.0,-2.0,66.0,-1046.0,-69.0
18.0,-273.0,-38.0,-16.0,77.0,-2.0,63.0,-1050.0,-70.0
21.0,-274.0,-43.0,-11.0,76.0,-3.0,59.0,-1036.0,-67.0
19.0,-272.0,-44.0,-5.0,77.0,-1.0,60.0,-1059.0,-65.0
19.0,-273.0,-44.0,1.0,77.0,-2.0,60.0,-1058.0,-59.0
17.0,-271.0,-43.0,5.0,76.0,-2.0,59.0,-1055.0,-59.0
17.0,-273.0,-44.0,10.0,75.0,-3.0,54.0,-1060.0,-66.0
20.0,-274.0,-46.0,14.0,73.0,0.0,53.0,-1056.0,-61.0
20.0,-275.0,-45.0,16.0,73.0,-2.0,53.0,-1055.0,-66.0
19.0,-274.0,-46.0,19.0,72.0,-2.0,56.0,-1061.0,-69.0
19.0,-273.0,-48.0,24.0,71.0,-2.0,53.0,-1061.0,-77.0
16.0,-273.0,-49.0,27.0,71.0,-1.0,54.0,-1058.0,-82.0
17.0,-270.0,-48.0,31.0,69.0,-2.0,51.0,-1052.0,-89.0
18.0,-271.0,-53.0,34.0,67.0,-1.0,55.0,-1058.0,-90.0
16.0,-271.0,-48.0,37.0,69.0,-2.0,58.0,-1058.0,-88.0
17.0,-272.0,-47.0,45.0,71.0,0.0,59.0,-1052.0,-90.0
18.0,-274.0,-50.0,53.0,74.0,-1.0,62.0,-1061.0,-79.0
21.0,-272.0,-51.0,63.0,74.0,0.0,62.0,-1057.0,-84.0
19.0,-271.0,-50.0,71.0,74.0,1.0,61.0,-1054.0,-87.0
21.0,-273.0,-45.0,77.0,72.0,0.0,57.0,-1060.0,-77.0
19.0,-272.0,-46.0,81.0,73.0,1.0,56.0,-1058.0,-75.0
18.0,-272.0,-47.0,82.0,73.0,1.0,59.0,-1055.0,-82.0
17.0,-272.0,-50.0,84.0,71.0,1.0,63.0,-1051.0,-80.0
20.0,-271.0,-54.0,88.0,69.0,3.0,62.0,-1059.0,-89.0
20.0,-274.0,-50.0,94.0,67.0,1.0,64.0,-1056.0,-88.0
21.0,-272.0,-47.0,99.0,68.0,2.0,68.0,-1049.0,-84.0
20.0,-272.0,-49.0,104.0,71.0,0.0,67.0,-1048.0,-84.0
22.0,-272.0,-47.0,106.0,73.0,1.0,66.0,-1047.0,-84.0
20.0,-269.0,-45.0,107.0,75.0,0.0,66.0,-1037.0,-83.0
21.0,-270.0,-51.0,109.0,74.0,4.0,70.0,-1032.0,-90.0
22.0,-268.0,-49.0,107.0,74.0,7.0,66.0,-1027.0,-91.0
23.0,-265.0,-50.0,104.0,77.0,8.0,66.0,-1029.0,-89.0
16.0,-265.0,-53.0,100.0,78.0,8.0,67.0,-1028.0,-87.0
21.0,-266.0,-51.0,98.0,78.0,11.0,71.0,-1027.0,-91.0
17.0,-265.0,-50.0,93.0,78.0,10.0,64.0,-1021.0,-91.0
19.0,-264.0,-52.0,86.0,83.0,12.0,56.0,-1019.0,-91.0
19.0,-263.0,-45.0,79.0,84.0,10.0,62.0,-1023.0,-87.0
20.0,-266.0,-51.0,72.0,85.0,9.0,63.0,-1013.0,-87.0
22.0,-266.0,-47.0,63.0,90.0,7.0,55.0,-1018.0,-84.0
17.0,-263.0,-52.0,52.0,93.0,6.0,60.0,-1014.0,-90.0
23.0,-263.0,-48.0,39.0,97.0,4.0,59.0,-1015.0,-91.0
20.0,-264.0,-47.0,23.0,102.0,3.0,68.0,-1012.0,-89.0
21.0,-262.0,-51.0,11.0,103.0,0.0,64.0,-1009.0,-94.0
19.0,-261.0,-48.0,-1.0,110.0,0.0,70.0,-1011.0,-89.0
20.0,-263.0,-47.0,-11.0,112.0,-4.0,66.0,-1009.0,-87.0
19.0,-262.0,-44.0,-21.0,112.0,-4.0,70.0,-1011.0,-79.0
20.0,-261.0,-44.0,-29.0,114.0,-7.0,66.0,-1011.0,-79.0
19.0,-263.0,-45.0,-42.0,116.0,-8.0,72.0,-1004.0,-80.0
22.0,-262.0,-49.0,-56.0,119.0,-11.0,68.0,-1004.0,-84.0
21.0,-261.0,-47.0,-70.0,123.0,-13.0,69.0,-1008.0,-83.0
19.0,-260.0,-46.0,-86.0,129.0,-14.0,64.0,-1004.0,-82.0
20.0,-262.0,-45.0,-97.0,132.0,-17.0,64.0,-1007.0,-79.0
21.0,-264.0,-46.0,-106.0,136.0,-18.0,58.0,-1008.0,-72.0
16.0,-261.0,-46.0,-114.0,136.0,-17.0,57.0,-1012.0,-72.0
22.0,-263.0,-45.0,-120.0,132.0,-18.0,58.0,-1006.0,-73.0
19.0,-262.0,-47.0,-127.0,130.0,-18.0,60.0,-1013.0,-75.0
16.0,-264.0,-43.0,-132.0,130.0,-20.0,45.0,-1012.0,-72.0
16.0,-263.0,-46.0,-139.0,127.0,-21.0,43.0,-1015.0,-74.0
15.0,-262.0,-48.0,-149.0,122.0,-23.0,49.0,-1018.0,-76.0
17.0,-265.0,-47.0,-156.0,115.0,-23.0,53.0,-1017.0,-81.0
15.0,-261.0,-45.0,-168.0,111.0,-25.0,53.0,-1022.0,-82.0
16.0,-263.0,-49.0,-175.0,107.0,-26.0,52.0,-1017.0,-88.0
17.0,-265.0,-46.0,-182.0,104.0,-27.0,52.0,-1017.0,-87.0
13.0,-265.0,-47.0,-184.0,100.0,-27.0,51.0,-1019.0,-87.0
14.0,-265.0,-47.0,-185.0,92.0,-28.0,45.0,-1023.0,-87.0
18.0,-269.0,-48.0,-186.0,85.0,-28.0,49.0,-1027.0,-81.0
17.0,-270.0,-49.0,-187.0,80.0,-27.0,51.0,-1029.0,-80.0
15.0,-268.0,-47.0,-189.0,75.0,-28.0,48.0,-1030.0,-92.0
14.0,-269.0,-52.0,-192.0,73.0,-30.0,43.0,-1026.0,-89.0
14.0,-272.0,-50.0,-196.0,67.0,-32.0,35.0,-1028.0,-93.0
13.0,-270.0,-45.0,-201.0,62.0,-33.0,46.0,-1033.0,-84.0
18.0,-269.0,-46.0,-199.0,54.0,-32.0,40.0,-1034.0,-83.0
16.0,-269.0,-47.0,-194.0,47.0,-31.0,42.0,-1026.0,-87.0
14.0,-266.0,-46.0,-189.0,42.0,-32.0,37.0,-1027.0,-87.0
16.0,-267.0,-47.0,-185.0,37.0,-30.0,36.0,-1024.0,-90.0
12.0,-264.0,-47.0,-184.0,30.0,-30.0,39.0,-1024.0,-87.0
13.0,-264.0,-48.0,-184.0,21.0,-28.0,38.0,-1025.0,-84.0
17.0,-266.0,-48.0,-186.0,11.0,-26.0,43.0,-1015.0,-86.0
14.0,-265.0,-45.0,-186.0,3.0,-23.0,45.0,-1016.0,-80.0
16.0,-266.0,-47.0,-185.0,-5.0,-21.0,45.0,-1024.0,-82.0
18.0,-264.0,-46.0,-185.0,-11.0,-19.0,52.0,-1026.0,-76.0
15.0,-264.0,-45.0,-186.0,-15.0,-21.0,50.0,-1023.0,-84.0
16.0,-264.0,-45.0,-191.0,-19.0,-20.0,50.0,-1016.0,-81.0
17.0,-266.0,-49.0,-197.0,-23.0,-22.0,57.0,-1019.0,-89.0
35.0,-253.0,-61.0,-205.0,-26.0,-23.0,60.0,-1015.0,-91.0
21.0,-264.0,-50.0,-212.0,-22.0,-27.0,69.0,-1009.0,-96.0
18.0,-261.0,-47.0,-219.0,-17.0,-30.0,59.0,-1010.0,-96.0
21.0,-263.0,-53.0,-224.0,-12.0,-32.0,63.0,-1009.0,-105.0
21.0,-266.0,-50.0,-227.0,-9.0,-33.0,66.0,-1009.0,-101.0
21.0,-261.0,-50.0,-233.0,-5.0,-34.0,63.0,-1013.0,-104.0
22.0,-262.0,-52.0,-236.0,0.0,-34.0,71.0,-1007.0,-113.0
24.0,-263.0,-57.0,-238.0,4.0,-35.0,69.0,-1004.0,-111.0
25.0,-260.0,-55.0,-243.0,10.0,-34.0,80.0,-1003.0,-123.0
29.0,-260.0,-56.0,-249.0,18.0,-35.0,92.0,-1007.0,-125.0
28.0,-259.0,-62.0,-254.0,30.0,-36.0,97.0,-1000.0,-130.0
33.0,-261.0,-61.0,-258.0,45.0,-39.0,101.0,-1006.0,-133.0
31.0,-261.0,-62.0,-266.0,60.0,-39.0,105.0,-1009.0,-130.0
32.0,-257.0,-57.0,-273.0,72.0,-43.0,111.0,-1002.0,-135.0
34.0,-262.0,-60.0,-280.0,85.0,-44.0,108.0,-1001.0,-134.0
36.0,-260.0,-54.0,-283.0,101.0,-44.0,113.0,-1006.0,-132.0
32.0,-259.0,-55.0,-288.0,115.0,-45.0,108.0,-997.0,-126.0
32.0,-259.0,-56.0,-292.0,127.0,-45.0,105.0,-1004.0,-123.0
30.0,-258.0,-59.0,-301.0,139.0,-44.0,107.0,-1002.0,-127.0
32.0,-258.0,-57.0,-306.0,147.0,-42.0,106.0,-995.0,-124.0
30.0,-257.0,-57.0,-312.0,153.0,-36.0,96.0,-991.0,-123.0
30.0,-257.0,-59.0,-319.0,161.0,-34.0,103.0,-990.0,-128.0
30.0,-257.0,-62.0,-326.0,170.0,-28.0,101.0,-989.0,-140.0
25.0,-258.0,-58.0,-330.0,178.0,-24.0,93.0,-988.0,-135.0
28.0,-259.0,-61.0,-336.0,186.0,-18.0,86.0,-989.0,-138.0
23.0,-257.0,-61.0,-344.0,191.0,-13.0,75.0,-987.0,-136.0
23.0,-257.0,-60.0,-350.0,195.0,-8.0,76.0,-988.0,-136.0
21.0,-258.0,-62.0,-357.0,198.0,-2.0,70.0,-989.0,-142.0
23.0,-260.0,-59.0,-363.0,200.0,4.0,66.0,-989.0,-142.0
19.0,-256.0,-63.0,-371.0,202.0,5.0,66.0,-985.0,-144.0
18.0,-254.0,-63.0,-377.0,206.0,11.0,64.0,-980.0,-147.0
21.0,-253.0,-66.0,-386.0,209.0,11.0,68.0,-976.0,-157.0
20.0,-251.0,-66.0,-397.0,214.0,12.0,68.0,-973.0,-167.0
22.0,-253.0,-69.0,-408.0,221.0,10.0,72.0,-967.0,-177.0
25.0,-252.0,-74.0,-418.0,231.0,9.0,73.0,-969.0,-179.0
25.0,-253.0,-71.0,-428.0,238.0,6.0,75.0,-965.0,-182.0
24.0,-249.0,-74.0,-435.0,242.0,4.0,83.0,-965.0,-187.0
28.0,-253.0,-72.0,-443.0,243.0,1.0,87.0,-962.0,-178.0
23.0,-249.0,-72.0,-447.0,244.0,-1.0,84.0,-964.0,-181.0
24.0,-251.0,-71.0,-449.0,242.0,-4.0,81.0,-965.0,-174.0
22.0,-250.0,-66.0,-450.0,239.0,-4.0,78.0,-967.0,-174.0
23.0,-250.0,-72.0,-451.0,235.0,-10.0,66.0,-967.0,-169.0
19.0,-251.0,-67.0,-451.0,228.0,-10.0,58.0,-964.0,-166.0
17.0,-250.0,-71.0,-448.0,218.0,-10.0,44.0,-957.0,-168.0
14.0,-249.0,-66.0,-447.0,209.0,-6.0,35.0,-960.0,-169.0
7.0,-245.0,-70.0,-449.0,198.0,-6.0,20.0,-962.0,-171.0
7.0,-245.0,-72.0,-455.0,190.0,-2.0,14.0,-959.0,-175.0
5.0,-252.0,-71.0,-466.0,183.0,-2.0,7.0,-963.0,-187.0
6.0,-251.0,-74.0,-477.0,175.0,-1.0,2.0,-968.0,-198.0
5.0,-249.0,-82.0,-485.0,163.0,0.0,7.0,-969.0,-203.0
5.0,-248.0,-77.0,-494.0,155.0,4.0,8.0,-963.0,-218.0
7.0,-251.0,-75.0,-498.0,148.0,4.0,10.0,-969.0,-215.0
9.0,-253.0,-78.0,-499.0,139.0,7.0,17.0,-972.0,-207.0
10.0,-253.0,-75.0,-496.0,130.0,6.0,25.0,-967.0,-198.0
10.0,-254.0,-75.0,-487.0,122.0,8.0,34.0,-975.0,-196.0
15.0,-256.0,-72.0,-469.0,117.0,10.0,41.0,-978.0,-188.0
17.0,-256.0,-74.0,-451.0,113.0,14.0,64.0,-987.0,-174.0
22.0,-259.0,-64.0,-434.0,108.0,16.0,66.0,-986.0,-174.0
25.0,-258.0,-71.0,-421.0,102.0,19.0,77.0,-987.0,-168.0
27.0,-255.0,-67.0,-412.0,94.0,17.0,84.0,-981.0,-170.0
24.0,-252.0,-66.0,-407.0,75.0,18.0,82.0,-983.0,-173.0
23.0,-250.0,-71.0,-406.0,62.0,14.0,86.0,-987.0,-178.0
24.0,-253.0,-72.0,-410.0,50.0,15.0,78.0,-976.0,-188.0
19.0,-249.0,-74.0,-414.0,39.0,12.0,73.0,-969.0,-208.0
18.0,-248.0,-76.0,-419.0,28.0,12.0,63.0,-967.0,-216.0
14.0,-252.0,-82.0,-419.0,17.0,8.0,48.0,-967.0,-224.0
14.0,-251.0,-78.0,-414.0,4.0,6.0,37.0,-968.0,-222.0
12.0,-250.0,-83.0,-400.0,-6.0,3.0,34.0,-965.0,-225.0
13.0,-249.0,-76.0,-386.0,-18.0,2.0,34.0,-962.0,-221.0
14.0,-250.0,-84.0,-375.0,-28.0,-3.0,37.0,-961.0,-220.0
17.0,-248.0,-82.0,-365.0,-29.0,-7.0,54.0,-954.0,-226.0
20.0,-244.0,-82.0,-363.0,-21.0,-16.0,59.0,-948.0,-236.0
21.0,-243.0,-90.0,-360.0,-8.0,-27.0,70.0,-939.0,-248.0
24.0,-238.0,-90.0,-362.0,8.0,-40.0,83.0,-931.0,-258.0
31.0,-233.0,-92.0,-368.0,23.0,-53.0,93.0,-914.0,-261.0
35.0,-234.0,-89.0,-374.0,39.0,-70.0,112.0,-903.0,-264.0
35.0,-227.0,-95.0,-379.0,60.0,-84.0,128.0,-904.0,-267.0
41.0,-227.0,-90.0,-385.0,81.0,-98.0,140.0,-897.0,-261.0
44.0,-230.0,-87.0,-396.0,108.0,-109.0,149.0,-898.0,-253.0
43.0,-232.0,-86.0,-412.0,131.0,-120.0,149.0,-904.0,-243.0
45.0,-229.0,-87.0,-435.0,155.0,-130.0,151.0,-903.0,-244.0
46.0,-229.0,-84.0,-467.0,170.0,-136.0,164.0,-906.0,-247.0
44.0,-231.0,-81.0,-495.0,182.0,-137.0,161.0,-911.0,-247.0
45.0,-235.0,-88.0,-512.0,195.0,-140.0,165.0,-921.0,-249.0
48.0,-237.0,-86.0,-521.0,204.0,-138.0,165.0,-922.0,-257.0
43.0,-240.0,-92.0,-527.0,209.0,-140.0,156.0,-938.0,-261.0
44.0,-244.0,-90.0,-529.0,215.0,-139.0,150.0,-943.0,-263.0
38.0,-243.0,-92.0,-530.0,221.0,-145.0,134.0,-948.0,-271.0
37.0,-247.0,-93.0,-531.0,226.0,-143.0,133.0,-951.0,-269.0
34.0,-246.0,-92.0,-527.0,229.0,-145.0,120.0,-952.0,-278.0
33.0,-247.0,-92.0,-511.0,227.0,-138.0,108.0,-947.0,-267.0
31.0,-245.0,-90.0,-481.0,223.0,-132.0,105.0,-941.0,-277.0
28.0,-240.0,-97.0,-455.0,221.0,-124.0,99.0,-936.0,-284.0
25.0,-238.0,-97.0,-439.0,220.0,-118.0,86.0,-923.0,-287.0
21.0,-235.0,-97.0,-428.0,221.0,-111.0,76.0,-917.0,-286.0
20.0,-235.0,-97.0,-427.0,212.0,-105.0,69.0,-910.0,-285.0
20.0,-231.0,-95.0,-430.0,196.0,-101.0,69.0,-907.0,-282.0
22.0,-231.0,-91.0,-431.0,182.0,-99.0,70.0,-902.0,-279.0
25.0,-235.0,-95.0,-428.0,172.0,-94.0,79.0,-902.0,-277.0
25.0,-231.0,-93.0,-422.0,171.0,-94.0,81.0,-907.0,-273.0
24.0,-231.0,-92.0,-415.0,177.0,-92.0,79.0,-910.0,-272.0
20.0,-235.0,-94.0,-410.0,187.0,-95.0,70.0,-921.0,-275.0
16.0,-238.0,-93.0,-413.0,188.0,-91.0,60.0,-924.0,-279.0
16.0,-238.0,-99.0,-420.0,178.0,-90.0,55.0,-935.0,-283.0
14.0,-240.0,-100.0,-430.0,156.0,-84.0,53.0,-940.0,-296.0
13.0,-246.0,-105.0,-441.0,128.0,-80.0,53.0,-941.0,-307.0
16.0,-243.0,-103.0,-449.0,99.0,-70.0,52.0,-946.0,-317.0
14.0,-243.0,-107.0,-453.0,77.0,-65.0,44.0,-953.0,-329.0
16.0,-245.0,-107.0,-450.0,59.0,-53.0,49.0,-949.0,-331.0
15.0,-247.0,-111.0,-447.0,46.0,-50.0,48.0,-953.0,-341.0
16.0,-245.0,-108.0,-446.0,30.0,-43.0,39.0,-956.0,-337.0
16.0,-246.0,-108.0,-445.0,11.0,-43.0,36.0,-954.0,-330.0
17.0,-247.0,-111.0,-437.0,-19.0,-44.0,46.0,-957.0,-332.0
17.0,-243.0,-110.0,-432.0,-44.0,-47.0,56.0,-954.0,-334.0
21.0,-246.0,-109.0,-425.0,-63.0,-45.0,70.0,-949.0,-340.0
27.0,-243.0,-112.0,-419.0,-72.0,-50.0,89.0,-952.0,-349.0
32.0,-245.0,-114.0,-412.0,-69.0,-53.0,102.0,-941.0,-351.0
36.0,-243.0,-113.0,-410.0,-55.0,-62.0,120.0,-947.0,-355.0
36.0,-244.0,-113.0,-413.0,-45.0,-67.0,127.0,-950.0,-356.0
38.0,-245.0,-111.0,-415.0,-38.0,-75.0,130.0,-951.0,-349.0
41.0,-244.0,-117.0,-417.0,-40.0,-79.0,144.0,-952.0,-352.0
47.0,-251.0,-117.0,-418.0,-48.0,-85.0,158.0,-961.0,-346.0
49.0,-249.0,-113.0,-415.0,-54.0,-87.0,172.0,-963.0,-342.0
50.0,-247.0,-112.0,-409.0,-49.0,-87.0,181.0,-966.0,-343.0
52.0,-246.0,-114.0,-405.0,-40.0,-87.0,198.0,-957.0,-346.0
55.0,-248.0,-113.0,-397.0,-27.0,-88.0,195.0,-956.0,-344.0
56.0,-247.0,-111.0,-391.0,-11.0,-85.0,194.0,-961.0,-335.0
54.0,-245.0,-109.0,-383.0,0.0,-85.0,193.0,-963.0,-334.0
52.0,-245.0,-108.0,-375.0,9.0,-83.0,195.0,-957.0,-334.0
52.0,-246.0,-111.0,-366.0,17.0,-85.0,189.0,-948.0,-329.0
51.0,-242.0,-105.0,-351.0,32.0,-81.0,181.0,-941.0,-322.0
48.0,-238.0,-109.0,-330.0,47.0,-78.0,173.0,-930.0,-316.0
43.0,-236.0,-100.0,-313.0,63.0,-68.0,157.0,-915.0,-313.0
40.0,-233.0,-101.0,-310.0,65.0,-64.0,144.0,-914.0,-318.0
35.0,-238.0,-104.0,-325.0,62.0,-54.0,126.0,-921.0,-327.0
29.0,-247.0,-117.0,-346.0,47.0,-45.0,114.0,-957.0,-362.0
25.0,-264.0,-129.0,-365.0,15.0,-32.0,85.0,-1011.0,-409.0
20.0,-276.0,-133.0,-360.0,-23.0,-25.0,69.0,-1064.0,-440.0
17.0,-286.0,-144.0,-294.0,-47.0,-13.0,57.0,-1102.0,-482.0
15.0,-292.0,-146.0,-162.0,-44.0,-10.0,34.0,-1107.0,-492.0
10.0,-277.0,-140.0,22.0,-20.0,4.0,16.0,-1083.0,-467.0
1.0,-264.0,-129.0,205.0,-1.0,23.0,-4.0,-1009.0,-433.0
-6.0,-237.0,-119.0,329.0,0.0,55.0,-31.0,-923.0,-374.0
-12.0,-215.0,-107.0,375.0,-28.0,78.0,-50.0,-859.0,-332.0
-10.0,-206.0,-100.0,347.0,-69.0,102.0,-47.0,-801.0,-300.0
-10.0,-196.0,-100.0,288.0,-119.0,113.0,-56.0,-770.0,-299.0
-5.0,-194.0,-101.0,220.0,-159.0,137.0,-25.0,-764.0,-295.0
4.0,-194.0,-97.0,169.0,-191.0,157.0,7.0,-770.0,-307.0
8.0,-201.0,-104.0,117.0,-217.0,170.0,23.0,-787.0,-313.0
10.0,-210.0,-104.0,65.0,-241.0,175.0,41.0,-816.0,-318.0
17.0,-218.0,-103.0,15.0,-265.0,183.0,63.0,-864.0,-317.0
24.0,-234.0,-106.0,-34.0,-290.0,178.0,80.0,-909.0,-319.0
31.0,-238.0,-101.0,-80.0,-312.0,169.0,91.0,-940.0,-305.0
31.0,-252.0,-106.0,-124.0,-332.0,152.0,105.0,-969.0,-317.0
35.0,-261.0,-110.0,-160.0,-336.0,143.0,112.0,-995.0,-327.0
39.0,-263.0,-108.0,-181.0,-332.0,134.0,124.0,-1020.0,-338.0
43.0,-268.0,-109.0,-194.0,-322.0,130.0,142.0,-1037.0,-349.0
42.0,-268.0,-118.0,-199.0,-306.0,116.0,141.0,-1042.0,-375.0
45.0,-271.0,-122.0,-203.0,-282.0,111.0,159.0,-1055.0,-388.0
51.0,-275.0,-127.0,-204.0,-263.0,100.0,169.0,-1063.0,-407.0
48.0,-274.0,-130.0,-203.0,-244.0,97.0,169.0,-1061.0,-412.0
49.0,-275.0,-131.0,-197.0,-223.0,87.0,165.0,-1072.0,-422.0
48.0,-271.0,-131.0,-186.0,-203.0,76.0,170.0,-1068.0,-431.0
50.0,-269.0,-129.0,-178.0,-186.0,57.0,169.0,-1057.0,-437.0
47.0,-269.0,-134.0,-173.0,-169.0,52.0,160.0,-1037.0,-445.0
46.0,-268.0,-135.0,-169.0,-136.0,41.0,166.0,-1034.0,-444.0
48.0,-271.0,-138.0,-165.0,-99.0,35.0,165.0,-1042.0,-448.0
46.0,-269.0,-134.0,-158.0,-66.0,25.0,156.0,-1032.0,-446.0
44.0,-268.0,-133.0,-146.0,-37.0,19.0,145.0,-1023.0,-444.0
40.0,-264.0,-130.0,-135.0,-14.0,18.0,134.0,-1024.0,-437.0
35.0,-261.0,-133.0,-125.0,5.0,21.0,123.0,-1028.0,-431.0
34.0,-265.0,-130.0,-119.0,20.0,25.0,114.0,-1037.0,-431.0
31.0,-272.0,-128.0,-117.0,27.0,35.0,108.0,-1058.0,-435.0
26.0,-272.0,-130.0,-119.0,35.0,41.0,90.0,-1065.0,-435.0
24.0,-274.0,-135.0,-114.0,47.0,52.0,68.0,-1061.0,-430.0
15.0,-272.0,-132.0,-109.0,58.0,61.0,49.0,-1062.0,-436.0
17.0,-274.0,-136.0,-100.0,62.0,71.0,45.0,-1060.0,-439.0
12.0,-275.0,-135.0,-82.0,68.0,73.0,29.0,-1068.0,-452.0
15.0,-278.0,-136.0,-56.0,76.0,76.0,31.0,-1068.0,-451.0
15.0,-277.0,-137.0,-19.0,91.0,73.0,38.0,-1082.0,-451.0
14.0,-277.0,-130.0,26.0,106.0,77.0,39.0,-1085.0,-443.0
16.0,-279.0,-127.0,72.0,116.0,76.0,45.0,-1081.0,-429.0
17.0,-275.0,-127.0,120.0,114.0,79.0,55.0,-1072.0,-409.0
20.0,-275.0,-125.0,163.0,106.0,76.0,64.0,-1059.0,-412.0
23.0,-270.0,-128.0,194.0,98.0,72.0,78.0,-1055.0,-408.0
22.0,-268.0,-128.0,208.0,97.0,67.0,63.0,-1040.0,-406.0
21.0,-272.0,-131.0,216.0,107.0,76.0,66.0,-1056.0,-407.0
16.0,-276.0,-128.0,224.0,125.0,77.0,50.0,-1072.0,-402.0
14.0,-279.0,-125.0,240.0,139.0,78.0,48.0,-1083.0,-390.0
8.0,-278.0,-122.0,274.0,133.0,74.0,29.0,-1080.0,-405.0
14.0,-277.0,-126.0,316.0,115.0,75.0,35.0,-1073.0,-409.0
15.0,-273.0,-128.0,354.0,101.0,68.0,49.0,-1067.0,-415.0
18.0,-274.0,-129.0,381.0,99.0,68.0,53.0,-1061.0,-417.0
18.0,-272.0,-128.0,408.0,108.0,61.0,52.0,-1057.0,-412.0
18.0,-272.0,-129.0,433.0,117.0,58.0,48.0,-1058.0,-407.0
16.0,-270.0,-125.0,465.0,121.0,52.0,48.0,-1037.0,-404.0
14.0,-268.0,-125.0,492.0,119.0,51.0,47.0,-1031.0,-400.0
19.0,-266.0,-123.0,518.0,117.0,45.0,57.0,-1030.0,-387.0
18.0,-269.0,-113.0,539.0,117.0,44.0,42.0,-1033.0,-365.0
16.0,-269.0,-117.0,556.0,117.0,40.0,36.0,-1033.0,-358.0
14.0,-270.0,-117.0,572.0,116.0,44.0,43.0,-1035.0,-356.0
11.0,-267.0,-112.0,593.0,111.0,43.0,36.0,-1030.0,-350.0
12.0,-267.0,-108.0,615.0,109.0,47.0,34.0,-1030.0,-350.0
12.0,-268.0,-110.0,639.0,104.0,48.0,30.0,-1030.0,-337.0
16.0,-267.0,-111.0,659.0,98.0,51.0,33.0,-1030.0,-324.0
14.0,-267.0,-99.0,685.0,97.0,48.0,33.0,-1030.0,-315.0
17.0,-270.0,-104.0,702.0,101.0,47.0,38.0,-1032.0,-306.0
14.0,-266.0,-100.0,717.0,106.0,40.0,35.0,-1027.0,-295.0
19.0,-265.0,-106.0,735.0,107.0,37.0,53.0,-1022.0,-306.0
21.0,-266.0,-102.0,748.0,113.0,33.0,64.0,-1015.0,-310.0
18.0,-264.0,-104.0,762.0,128.0,31.0,63.0,-1019.0,-312.0
21.0,-266.0,-98.0,773.0,145.0,28.0,66.0,-1016.0,-295.0
18.0,-262.0,-95.0,782.0,157.0,28.0,53.0,-1020.0,-283.0
19.0,-262.0,-96.0,794.0,167.0,25.0,49.0,-1008.0,-284.0
20.0,-263.0,-96.0,803.0,172.0,30.0,60.0,-1012.0,-279.0
18.0,-267.0,-95.0,814.0,173.0,33.0,46.0,-1007.0,-280.0
16.0,-264.0,-93.0,833.0,175.0,44.0,48.0,-1018.0,-278.0
18.0,-269.0,-92.0,848.0,171.0,49.0,52.0,-1023.0,-271.0
18.0,-269.0,-90.0,864.0,169.0,60.0,57.0,-1030.0,-266.0
18.0,-268.0,-93.0,878.0,170.0,66.0,47.0,-1031.0,-264.0
14.0,-271.0,-90.0,887.0,173.0,74.0,50.0,-1035.0,-271.0
16.0,-271.0,-99.0,895.0,177.0,77.0,46.0,-1057.0,-279.0
16.0,-273.0,-95.0,903.0,185.0,82.0,36.0,-1064.0,-275.0
15.0,-275.0,-93.0,913.0,199.0,78.0,32.0,-1072.0,-280.0
7.0,-276.0,-93.0,926.0,207.0,79.0,27.0,-1076.0,-278.0
9.0,-276.0,-93.0,939.0,216.0,80.0,27.0,-1068.0,-270.0
11.0,-273.0,-95.0,952.0,223.0,83.0,33.0,-1070.0,-271.0
14.0,-276.0,-94.0,960.0,229.0,81.0,33.0,-1070.0,-265.0
16.0,-275.0,-87.0,971.0,237.0,86.0,43.0,-1072.0,-259.0
18.0,-278.0,-86.0,984.0,243.0,88.0,52.0,-1069.0,-254.0
16.0,-276.0,-83.0,996.0,243.0,95.0,45.0,-1083.0,-246.0
19.0,-279.0,-84.0,1000.0,242.0,97.0,58.0,-1085.0,-232.0
21.0,-281.0,-80.0,1007.0,242.0,102.0,57.0,-1088.0,-230.0
17.0,-278.0,-79.0,1013.0,246.0,103.0,56.0,-1090.0,-222.0
15.0,-279.0,-78.0,1021.0,249.0,110.0,47.0,-1088.0,-215.0
14.0,-284.0,-81.0,1030.0,253.0,111.0,34.0,-1097.0,-208.0
15.0,-284.0,-72.0,1036.0,257.0,116.0,33.0,-1109.0,-196.0
12.0,-287.0,-69.0,1045.0,258.0,118.0,27.0,-1111.0,-184.0
11.0,-287.0,-69.0,1054.0,261.0,121.0,30.0,-1115.0,-170.0
10.0,-289.0,-67.0,1065.0,260.0,121.0,22.0,-1117.0,-162.0
11.0,-283.0,-62.0,1074.0,258.0,123.0,24.0,-1116.0,-152.0
11.0,-287.0,-63.0,1082.0,252.0,121.0,26.0,-1112.0,-143.0
10.0,-288.0,-59.0,1087.0,250.0,125.0,26.0,-1114.0,-130.0
12.0,-288.0,-59.0,1089.0,249.0,123.0,29.0,-1124.0,-117.0
10.0,-289.0,-50.0,1089.0,247.0,125.0,17.0,-1126.0,-108.0
9.0,-289.0,-54.0,1089.0,242.0,121.0,18.0,-1129.0,-101.0
6.0,-292.0,-53.0,1085.0,232.0,120.0,16.0,-1131.0,-92.0
9.0,-297.0,-45.0,1081.0,221.0,112.0,16.0,-1146.0,-74.0
7.0,-300.0,-45.0,1085.0,211.0,108.0,19.0,-1151.0,-69.0
14.0,-296.0,-42.0,1092.0,204.0,99.0,27.0,-1155.0,-58.0
14.0,-296.0,-38.0,1101.0,193.0,94.0,29.0,-1157.0,-56.0
14.0,-300.0,-41.0,1108.0,184.0,86.0,32.0,-1156.0,-54.0
14.0,-298.0,-39.0,1112.0,178.0,83.0,36.0,-1160.0,-49.0
14.0,-300.0,-36.0,1116.0,170.0,74.0,39.0,-1162.0,-45.0
18.0,-299.0,-31.0,1120.0,166.0,71.0,40.0,-1159.0,-34.0
19.0,-295.0,-37.0,1131.0,163.0,65.0,57.0,-1143.0,-28.0
13.0,-301.0,-29.0,1134.0,163.0,59.0,42.0,-1171.0,-18.0
10.0,-313.0,-22.0,1132.0,163.0,45.0,33.0,-1202.0,9.0
15.0,-319.0,-22.0,1136.0,147.0,34.0,43.0,-1221.0,28.0
21.0,-321.0,-19.0,1149.0,122.0,21.0,65.0,-1230.0,32.0
23.0,-318.0,-26.0,1167.0,102.0,15.0,73.0,-1225.0,25.0
26.0,-312.0,-20.0,1183.0,97.0,7.0,75.0,-1187.0,18.0
23.0,-301.0,-22.0,1194.0,102.0,8.0,67.0,-1168.0,21.0
23.0,-302.0,-17.0,1191.0,106.0,7.0,61.0,-1162.0,35.0
17.0,-300.0,-9.0,1185.0,110.0,16.0,41.0,-1158.0,60.0
12.0,-296.0,-5.0,1189.0,111.0,22.0,36.0,-1151.0,82.0
9.0,-289.0,0.0,1198.0,109.0,31.0,32.0,-1127.0,92.0
11.0,-284.0,3.0,1200.0,102.0,34.0,29.0,-1096.0,101.0
8.0,-278.0,4.0,1190.0,98.0,37.0,28.0,-1074.0,113.0
14.0,-273.0,2.0,1175.0,92.0,36.0,32.0,-1060.0,126.0
13.0,-274.0,7.0,1156.0,86.0,37.0,35.0,-1053.0,137.0
14.0,-269.0,12.0,1137.0,87.0,33.0,44.0,-1039.0,139.0
21.0,-268.0,9.0,1118.0,86.0,32.0,57.0,-1027.0,142.0
19.0,-268.0,13.0,1098.0,84.0,24.0,60.0,-1026.0,152.0
17.0,-269.0,8.0,1081.0,86.0,20.0,56.0,-1031.0,159.0
18.0,-265.0,13.0,1066.0,86.0,13.0,56.0,-1028.0,164.0
19.0,-268.0,18.0,1053.0,82.0,12.0,58.0,-1028.0,177.0
15.0,-267.0,18.0,1038.0,68.0,4.0,52.0,-1022.0,181.0
17.0,-267.0,21.0,1019.0,50.0,-1.0,56.0,-1010.0,186.0
18.0,-264.0,18.0,1006.0,35.0,-7.0,52.0,-1008.0,183.0
18.0,-262.0,18.0,994.0,27.0,-11.0,52.0,-1005.0,169.0
18.0,-263.0,16.0,971.0,27.0,-20.0,58.0,-1007.0,161.0
20.0,-265.0,15.0,942.0,33.0,-26.0,64.0,-1009.0,165.0
20.0,-262.0,19.0,911.0,42.0,-37.0,57.0,-1006.0,165.0
16.0,-263.0,20.0,885.0,49.0,-44.0,56.0,-1008.0,168.0
18.0,-262.0,19.0,864.0,49.0,-47.0,48.0,-1005.0,182.0
12.0,-263.0,23.0,850.0,44.0,-44.0,35.0,-1006.0,189.0
13.0,-263.0,22.0,840.0,34.0,-44.0,33.0,-1007.0,191.0
11.0,-264.0,25.0,832.0,29.0,-43.0,31.0,-1003.0,199.0
11.0,-261.0,26.0,825.0,28.0,-44.0,27.0,-994.0,204.0
10.0,-261.0,22.0,824.0,26.0,-42.0,25.0,-996.0,209.0
12.0,-262.0,28.0,820.0,23.0,-43.0,30.0,-993.0,210.0
11.0,-259.0,26.0,811.0,21.0,-43.0,29.0,-990.0,208.0
12.0,-262.0,29.0,798.0,19.0,-45.0,33.0,-991.0,216.0
14.0,-260.0,32.0,782.0,21.0,-46.0,39.0,-994.0,221.0
13.0,-259.0,32.0,768.0,21.0,-48.0,47.0,-1002.0,224.0
17.0,-263.0,35.0,758.0,21.0,-49.0,45.0,-1003.0,229.0
12.0,-260.0,36.0,753.0,22.0,-50.0,45.0,-1002.0,240.0
13.0,-261.0,40.0,748.0,19.0,-50.0,51.0,-1002.0,247.0
17.0,-262.0,40.0,742.0,14.0,-48.0,54.0,-992.0,254.0
18.0,-260.0,42.0,733.0,9.0,-47.0,53.0,-992.0,264.0
18.0,-263.0,41.0,725.0,7.0,-45.0,50.0,-996.0,271.0
15.0,-261.0,43.0,714.0,6.0,-43.0,40.0,-992.0,275.0
13.0,-259.0,46.0,702.0,4.0,-44.0,36.0,-991.0,285.0
13.0,-256.0,51.0,688.0,3.0,-43.0,33.0,-987.0,289.0
16.0,-258.0,48.0,672.0,4.0,-44.0,29.0,-987.0,290.0
9.0,-257.0,49.0,650.0,5.0,-43.0,32.0,-987.0,291.0
14.0,-257.0,50.0,624.0,7.0,-46.0,29.0,-984.0,291.0
15.0,-258.0,50.0,598.0,7.0,-48.0,29.0,-982.0,293.0
10.0,-258.0,53.0,581.0,7.0,-49.0,33.0,-980.0,306.0
14.0,-257.0,57.0,570.0,4.0,-49.0,31.0,-982.0,312.0
9.0,-255.0,58.0,561.0,4.0,-52.0,31.0,-981.0,319.0
13.0,-255.0,56.0,553.0,0.0,-53.0,32.0,-973.0,323.0
9.0,-251.0,59.0,546.0,-4.0,-55.0,33.0,-968.0,325.0
11.0,-250.0,59.0,538.0,-7.0,-54.0,37.0,-965.0,325.0
14.0,-252.0,61.0,527.0,-8.0,-55.0,38.0,-962.0,333.0
15.0,-252.0,59.0,516.0,-7.0,-54.0,38.0,-960.0,337.0
15.0,-249.0,60.0,503.0,-5.0,-56.0,43.0,-962.0,336.0
13.0,-251.0,64.0,488.0,-2.0,-57.0,49.0,-962.0,342.0
15.0,-252.0,62.0,470.0,-2.0,-59.0,52.0,-963.0,347.0
20.0,-250.0,65.0,457.0,2.0,-63.0,53.0,-964.0,349.0
17.0,-250.0,63.0,442.0,5.0,-67.0,59.0,-958.0,352.0
16.0,-247.0,63.0,426.0,6.0,-69.0,60.0,-959.0,352.0
18.0,-248.0,67.0,410.0,7.0,-73.0,57.0,-955.0,351.0
18.0,-246.0,65.0,394.0,6.0,-75.0,56.0,-956.0,345.0
17.0,-250.0,64.0,376.0,5.0,-77.0,61.0,-951.0,350.0
20.0,-249.0,63.0,362.0,3.0,-79.0,61.0,-954.0,350.0
21.0,-251.0,62.0,349.0,4.0,-83.0,66.0,-956.0,342.0
23.0,-251.0,63.0,342.0,9.0,-84.0,68.0,-957.0,347.0
23.0,-250.0,62.0,337.0,11.0,-85.0,69.0,-959.0,347.0
19.0,-248.0,63.0,335.0,14.0,-84.0,71.0,-960.0,353.0
22.0,-248.0,65.0,334.0,16.0,-83.0,74.0,-956.0,354.0
20.0,-252.0,67.0,330.0,16.0,-82.0,71.0,-960.0,355.0
21.0,-249.0,64.0,326.0,17.0,-81.0,70.0,-959.0,360.0
21.0,-249.0,71.0,321.0,13.0,-78.0,70.0,-963.0,358.0
20.0,-251.0,66.0,315.0,11.0,-77.0,71.0,-955.0,356.0
21.0,-250.0,65.0,308.0,4.0,-74.0,69.0,-959.0,363.0
22.0,-246.0,65.0,303.0,-3.0,-76.0,67.0,-955.0,359.0
22.0,-248.0,65.0,297.0,-8.0,-77.0,71.0,-954.0,356.0
25.0,-247.0,67.0,289.0,-11.0,-78.0,69.0,-954.0,356.0
24.0,-252.0,66.0,280.0,-10.0,-80.0,73.0,-949.0,356.0
25.0,-247.0,67.0,269.0,-9.0,-80.0,76.0,-948.0,357.0
23.0,-248.0,68.0,256.0,-10.0,-82.0,78.0,-947.0,355.0
21.0,-247.0,65.0,242.0,-10.0,-84.0,78.0,-948.0,361.0
26.0,-249.0,66.0,227.0,-12.0,-82.0,78.0,-947.0,355.0
22.0,-249.0,68.0,216.0,-13.0,-84.0,81.0,-948.0,360.0
27.0,-249.0,67.0,209.0,-14.0,-84.0,81.0,-954.0,365.0
27.0,-248.0,72.0,205.0,-13.0,-85.0,90.0,-954.0,370.0
28.0,-249.0,70.0,204.0,-12.0,-86.0,91.0,-958.0,374.0
26.0,-250.0,68.0,200.0,-7.0,-88.0,98.0,-956.0,374.0
31.0,-246.0,67.0,196.0,-4.0,-88.0,93.0,-953.0,372.0
31.0,-246.0,73.0,189.0,-1.0,-88.0,98.0,-947.0,376.0
29.0,-248.0,72.0,180.0,2.0,-89.0,99.0,-945.0,374.0
26.0,-247.0,69.0,167.0,3.0,-88.0,93.0,-944.0,379.0
28.0,-245.0,73.0,156.0,3.0,-85.0,91.0,-941.0,380.0
25.0,-247.0,68.0,143.0,2.0,-85.0,90.0,-937.0,383.0
41.0,-240.0,45.0,130.0,-4.0,-82.0,87.0,-929.0,386.0
24.0,-239.0,70.0,119.0,-9.0,-83.0,83.0,-922.0,393.0
25.0,-238.0,71.0,105.0,-11.0,-81.0,89.0,-918.0,391.0
26.0,-242.0,70.0,94.0,-11.0,-83.0,85.0,-919.0,392.0
27.0,-242.0,73.0,79.0,-8.0,-84.0,90.0,-922.0,396.0
28.0,-240.0,71.0,66.0,-4.0,-82.0,88.0,-923.0,393.0
27.0,-244.0,72.0,55.0,3.0,-81.0,104.0,-932.0,394.0
25.0,-243.0,80.0,41.0,8.0,-80.0,105.0,-934.0,395.0
27.0,-240.0,74.0,29.0,16.0,-78.0,106.0,-935.0,396.0
33.0,-244.0,74.0,17.0,19.0,-73.0,109.0,-932.0,392.0
32.0,-242.0,74.0,6.0,26.0,-69.0,114.0,-932.0,397.0
33.0,-243.0,75.0,-4.0,28.0,-67.0,113.0,-928.0,402.0
30.0,-242.0,78.0,-10.0,35.0,-60.0,111.0,-924.0,407.0
32.0,-240.0,81.0,-16.0,33.0,-50.0,111.0,-922.0,410.0
35.0,-239.0,79.0,-24.0,30.0,-44.0,106.0,-919.0,408.0
33.0,-240.0,77.0,-33.0,25.0,-35.0,109.0,-919.0,400.0
32.0,-240.0,78.0,-44.0,19.0,-30.0,108.0,-914.0,405.0
30.0,-240.0,75.0,-60.0,16.0,-26.0,106.0,-914.0,410.0
30.0,-237.0,77.0,-81.0,13.0,-24.0,108.0,-921.0,405.0
33.0,-242.0,79.0,-106.0,15.0,-26.0,103.0,-922.0,404.0
33.0,-241.0,78.0,-129.0,17.0,-28.0,105.0,-931.0,409.0
31.0,-242.0,73.0,-149.0,21.0,-31.0,107.0,-937.0,404.0
35.0,-245.0,81.0,-165.0,28.0,-33.0,110.0,-941.0,407.0
29.0,-245.0,74.0,-178.0,36.0,-34.0,109.0,-948.0,401.0
34.0,-249.0,76.0,-189.0,43.0,-36.0,105.0,-958.0,395.0
29.0,-252.0,71.0,-193.0,45.0,-37.0,106.0,-963.0,390.0
33.0,-255.0,67.0,-191.0,45.0,-37.0,105.0,-966.0,377.0
31.0,-254.0,67.0,-185.0,45.0,-36.0,105.0,-972.0,373.0
29.0,-252.0,67.0,-176.0,48.0,-37.0,108.0,-971.0,366.0
33.0,-251.0,66.0,-173.0,50.0,-36.0,106.0,-966.0,354.0
31.0,-255.0,63.0,-177.0,48.0,-33.0,106.0,-964.0,356.0
29.0,-254.0,61.0,-185.0,45.0,-30.0,103.0,-964.0,352.0
29.0,-253.0,63.0,-194.0,39.0,-28.0,96.0,-967.0,344.0
34.0,-256.0,66.0,-203.0,40.0,-23.0,106.0,-968.0,339.0
29.0,-256.0,63.0,-205.0,45.0,-22.0,104.0,-968.0,340.0
29.0,-255.0,59.0,-203.0,54.0,-18.0,98.0,-969.0,335.0
29.0,-257.0,61.0,-196.0,61.0,-15.0,93.0,-977.0,338.0
26.0,-255.0,57.0,-190.0,67.0,-12.0,95.0,-973.0,336.0
28.0,-256.0,61.0,-182.0,70.0,-11.0,91.0,-970.0,335.0
25.0,-255.0,63.0,-177.0,72.0,-8.0,83.0,-967.0,338.0
27.0,-255.0,61.0,-172.0,74.0,-6.0,84.0,-967.0,340.0
23.0,-253.0,61.0,-174.0,72.0,-3.0,85.0,-964.0,337.0
22.0,-251.0,58.0,-177.0,67.0,-4.0,85.0,-971.0,330.0
26.0,-252.0,56.0,-184.0,65.0,-4.0,86.0,-968.0,329.0
25.0,-254.0,62.0,-189.0,59.0,-5.0,85.0,-974.0,324.0
26.0,-257.0,59.0,-193.0,59.0,-5.0,83.0,-981.0,327.0
29.0,-260.0,57.0,-194.0,58.0,-7.0,84.0,-982.0,330.0
26.0,-260.0,56.0,-191.0,60.0,-7.0,88.0,-982.0,330.0
27.0,-261.0,61.0,-183.0,57.0,-9.0,94.0,-987.0,328.0
30.0,-259.0,59.0,-175.0,58.0,-8.0,91.0,-981.0,327.0
29.0,-259.0,62.0,-168.0,60.0,-11.0,99.0,-978.0,327.0
31.0,-253.0,63.0,-165.0,62.0,-12.0,100.0,-978.0,334.0
30.0,-256.0,59.0,-165.0,64.0,-13.0,100.0,-976.0,334.0
30.0,-253.0,64.0,-166.0,66.0,-12.0,96.0,-974.0,339.0
29.0,-255.0,58.0,-169.0,66.0,-14.0,95.0,-972.0,339.0
29.0,-256.0,64.0,-171.0,66.0,-12.0,100.0,-971.0,341.0
29.0,-256.0,62.0,-176.0,65.0,-13.0,100.0,-972.0,343.0
29.0,-255.0,58.0,-180.0,66.0,-9.0,94.0,-973.0,338.0
29.0,-256.0,62.0,-184.0,64.0,-10.0,95.0,-975.0,339.0
25.0,-257.0,62.0,-189.0,63.0,-8.0,90.0,-972.0,333.0
24.0,-256.0,61.0,-193.0,60.0,-10.0,89.0,-973.0,336.0
28.0,-255.0,59.0,-196.0,59.0,-11.0,89.0,-975.0,328.0
26.0,-256.0,59.0,-201.0,56.0,-12.0,84.0,-974.0,324.0
24.0,-256.0,57.0,-204.0,52.0,-11.0,87.0,-976.0,319.0
26.0,-256.0,55.0,-203.0,49.0,-10.0,91.0,-979.0,316.0
27.0,-256.0,58.0,-202.0,47.0,-8.0,89.0,-974.0,316.0
26.0,-254.0,50.0,-204.0,49.0,-9.0,92.0,-979.0,314.0
28.0,-258.0,60.0,-203.0,49.0,-6.0,92.0,-976.0,313.0
28.0,-255.0,55.0,-205.0,48.0,-7.0,95.0,-984.0,312.0
32.0,-258.0,54.0,-206.0,51.0,-5.0,102.0,-986.0,312.0
31.0,-259.0,53.0,-208.0,52.0,-6.0,96.0,-983.0,310.0
31.0,-257.0,55.0,-211.0,53.0,-4.0,98.0,-977.0,314.0
30.0,-258.0,55.0,-213.0,54.0,-6.0,100.0,-978.0,313.0
31.0,-256.0,53.0,-216.0,54.0,-4.0,105.0,-977.0,312.0
28.0,-255.0,58.0,-218.0,57.0,-7.0,100.0,-974.0,312.0
31.0,-258.0,58.0,-219.0,63.0,-5.0,97.0,-977.0,316.0
28.0,-257.0,56.0,-221.0,66.0,-6.0,100.0,-973.0,317.0
33.0,-256.0,58.0,-221.0,68.0,-3.0,106.0,-974.0,315.0
31.0,-257.0,55.0,-228.0,67.0,-3.0,104.0,-984.0,319.0
33.0,-257.0,57.0,-234.0,69.0,3.0,106.0,-984.0,320.0
34.0,-261.0,57.0,-242.0,71.0,7.0,117.0,-991.0,321.0
35.0,-260.0,62.0,-247.0,76.0,15.0,118.0,-999.0,321.0
34.0,-261.0,57.0,-251.0,83.0,20.0,118.0,-1006.0,322.0
38.0,-261.0,57.0,-253.0,94.0,28.0,118.0,-997.0,320.0
34.0,-260.0,55.0,-255.0,102.0,30.0,114.0,-988.0,311.0
32.0,-256.0,52.0,-258.0,108.0,32.0,113.0,-980.0,307.0
31.0,-253.0,55.0,-267.0,110.0,31.0,109.0,-972.0,308.0
30.0,-253.0,53.0,-273.0,105.0,29.0,104.0,-970.0,293.0
29.0,-253.0,51.0,-283.0,97.0,22.0,95.0,-961.0,295.0
28.0,-251.0,47.0,-293.0,86.0,19.0,89.0,-973.0,290.0
28.0,-252.0,47.0,-302.0,81.0,11.0,87.0,-974.0,280.0
26.0,-257.0,47.0,-307.0,77.0,6.0,85.0,-976.0,275.0
23.0,-258.0,43.0,-304.0,75.0,-2.0,84.0,-986.0,267.0
26.0,-263.0,41.0,-299.0,77.0,-6.0,85.0,-993.0,263.0
24.0,-259.0,39.0,-294.0,81.0,-13.0,82.0,-1002.0,264.0
23.0,-263.0,44.0,-288.0,85.0,-20.0,75.0,-1008.0,256.0
23.0,-266.0,43.0,-278.0,88.0,-26.0,70.0,-1015.0,260.0
21.0,-268.0,36.0,-267.0,90.0,-30.0,67.0,-1016.0,254.0
21.0,-266.0,39.0,-256.0,89.0,-38.0,68.0,-1008.0,250.0
20.0,-265.0,38.0,-240.0,87.0,-41.0,66.0,-1011.0,243.0
17.0,-265.0,36.0,-229.0,85.0,-44.0,58.0,-1014.0,242.0
18.0,-267.0,36.0,-215.0,81.0,-43.0,53.0,-1017.0,244.0
16.0,-269.0,36.0,-207.0,73.0,-44.0,51.0,-1014.0,243.0
14.0,-267.0,34.0,-197.0,61.0,-40.0,46.0,-1022.0,240.0
17.0,-267.0,33.0,-190.0,51.0,-40.0,58.0,-1017.0,241.0
19.0,-270.0,39.0,-181.0,46.0,-38.0,60.0,-1019.0,243.0
17.0,-266.0,38.0,-173.0,43.0,-39.0,64.0,-1028.0,242.0
20.0,-268.0,39.0,-165.0,41.0,-34.0,57.0,-1023.0,245.0
20.0,-266.0,38.0,-156.0,39.0,-35.0,67.0,-1025.0,248.0
22.0,-270.0,38.0,-148.0,35.0,-31.0,71.0,-1023.0,250.0
24.0,-269.0,40.0,-141.0,31.0,-33.0,77.0,-1016.0,248.0
26.0,-267.0,37.0,-134.0,28.0,-29.0,75.0,-1018.0,251.0
24.0,-266.0,37.0,-130.0,24.0,-32.0,88.0,-1015.0,247.0
28.0,-268.0,39.0,-123.0,23.0,-31.0,91.0,-1014.0,246.0
29.0,-266.0,39.0,-118.0,24.0,-33.0,97.0,-1030.0,243.0
32.0,-265.0,38.0,-114.0,25.0,-34.0,108.0,-1020.0,243.0
33.0,-270.0,34.0,-110.0,24.0,-38.0,117.0,-1018.0,245.0
32.0,-266.0,40.0,-104.0,29.0,-34.0,113.0,-1025.0,244.0
35.0,-268.0,37.0,-99.0,30.0,-34.0,117.0,-1027.0,244.0
37.0,-270.0,35.0,-92.0,34.0,-31.0,122.0,-1023.0,243.0
34.0,-266.0,40.0,-82.0,37.0,-33.0,118.0,-1020.0,241.0
33.0,-265.0,35.0,-72.0,41.0,-30.0,119.0,-1018.0,238.0
35.0,-265.0,40.0,-62.0,44.0,-30.0,121.0,-1015.0,241.0
33.0,-264.0,39.0,-53.0,46.0,-26.0,112.0,-1008.0,241.0
34.0,-260.0,34.0,-49.0,47.0,-27.0,113.0,-1008.0,239.0
35.0,-266.0,37.0,-46.0,48.0,-23.0,109.0,-1012.0,244.0
34.0,-266.0,37.0,-41.0,55.0,-23.0,109.0,-1008.0,242.0
31.0,-261.0,34.0,-35.0,61.0,-15.0,106.0,-1009.0,249.0
32.0,-262.0,39.0,-31.0,67.0,-14.0,107.0,-1004.0,250.0
33.0,-262.0,42.0,-30.0,73.0,-8.0,108.0,-1004.0,253.0
31.0,-261.0,38.0,-30.0,78.0,-8.0,107.0,-1002.0,256.0
30.0,-260.0,42.0,-30.0,82.0,-3.0,105.0,-995.0,255.0
27.0,-258.0,40.0,-32.0,85.0,-3.0,106.0,-1000.0,257.0
32.0,-260.0,40.0,-33.0,84.0,0.0,103.0,-1000.0,250.0
31.0,-262.0,39.0,-33.0,83.0,-2.0,107.0,-1000.0,253.0
31.0,-261.0,42.0,-33.0,82.0,-1.0,104.0,-999.0,256.0
30.0,-264.0,43.0,-31.0,80.0,-4.0,105.0,-1004.0,248.0
31.0,-265.0,36.0,-30.0,80.0,-1.0,106.0,-1001.0,245.0
31.0,-263.0,38.0,-29.0,80.0,-4.0,106.0,-1007.0,245.0
32.0,-262.0,42.0,-28.0,81.0,-2.0,109.0,-1012.0,252.0
29.0,-262.0,41.0,-25.0,84.0,-5.0,105.0,-1007.0,250.0
29.0,-263.0,40.0,-20.0,86.0,-2.0,104.0,-1009.0,250.0
30.0,-265.0,41.0,-17.0,83.0,-4.0,102.0,-1000.0,256.0
28.0,-262.0,35.0,-12.0,81.0,-3.0,93.0,-1005.0,251.0
31.0,-262.0,41.0,-12.0,79.0,-3.0,94.0,-999.0,257.0
27.0,-262.0,40.0,-12.0,76.0,-2.0,91.0,-1002.0,255.0
25.0,-259.0,38.0,-14.0,74.0,-5.0,93.0,-1004.0,249.0
26.0,-260.0,37.0,-16.0,73.0,-3.0,98.0,-1004.0,244.0
30.0,-264.0,40.0,-16.0,74.0,-4.0,92.0,-1005.0,246.0
27.0,-263.0,37.0,-16.0,76.0,-2.0,92.0,-1004.0,245.0
28.0,-263.0,37.0,-14.0,74.0,-5.0,89.0,-1004.0,243.0
27.0,-262.0,35.0,-14.0,73.0,-2.0,90.0,-1008.0,242.0
26.0,-267.0,39.0,-12.0,70.0,-5.0,90.0,-1004.0,240.0
28.0,-263.0,35.0,-8.0,67.0,-2.0,92.0,-1009.0,244.0
29.0,-262.0,37.0,-4.0,66.0,-3.0,97.0,-1004.0,241.0
27.0,-262.0,36.0,1.0,67.0,0.0,93.0,-1009.0,241.0
27.0,-261.0,39.0,4.0,69.0,-2.0,104.0,-1005.0,241.0
28.0,-261.0,37.0,7.0,72.0,1.0,103.0,-1001.0,241.0
31.0,-262.0,39.0,10.0,74.0,1.0,104.0,-1001.0,249.0
31.0,-261.0,39.0,13.0,77.0,6.0,98.0,-1002.0,248.0
30.0,-262.0,41.0,16.0,79.0,3.0,93.0,-1000.0,250.0
29.0,-262.0,40.0,18.0,80.0,6.0,93.0,-999.0,252.0
25.0,-262.0,42.0,22.0,79.0,5.0,92.0,-1004.0,257.0
27.0,-261.0,37.0,21.0,78.0,8.0,92.0,-995.0,261.0
27.0,-262.0,45.0,19.0,77.0,5.0,92.0,-998.0,263.0
28.0,-261.0,45.0,17.0,76.0,7.0,91.0,-993.0,261.0
26.0,-261.0,43.0,15.0,74.0,5.0,91.0,-1000.0,261.0
28.0,-260.0,43.0,12.0,70.0,5.0,91.0,-988.0,271.0
26.0,-257.0,40.0,7.0,71.0,0.0,86.0,-990.0,263.0
28.0,-257.0,42.0,3.0,69.0,1.0,89.0,-991.0,264.0
26.0,-261.0,44.0,-3.0,68.0,-3.0,89.0,-995.0,266.0
27.0,-259.0,43.0,-5.0,67.0,-3.0,93.0,-998.0,263.0
25.0,-259.0,43.0,-8.0,68.0,-8.0,91.0,-1000.0,260.0
28.0,-261.0,44.0,-11.0,69.0,-7.0,91.0,-999.0,266.0
25.0,-260.0,41.0,-12.0,68.0,-12.0,88.0,-996.0,266.0
24.0,-261.0,44.0,-17.0,66.0,-13.0,93.0,-996.0,267.0
25.0,-263.0,45.0,-20.0,61.0,-19.0,91.0,-993.0,271.0
25.0,-261.0,47.0,-18.0,56.0,-22.0,82.0,-1000.0,267.0
26.0,-262.0,41.0,-17.0,53.0,-28.0,85.0,-1003.0,262.0
26.0,-257.0,42.0,-17.0,50.0,-27.0,92.0,-990.0,253.0
28.0,-258.0,39.0,-19.0,48.0,-33.0,87.0,-989.0,254.0
27.0,-258.0,41.0,-22.0,48.0,-32.0,90.0,-983.0,245.0
27.0,-260.0,42.0,-25.0,48.0,-36.0,88.0,-990.0,248.0
28.0,-261.0,36.0,-30.0,47.0,-33.0,89.0,-990.0,246.0
27.0,-257.0,35.0,-32.0,46.0,-37.0,94.0,-993.0,247.0
27.0,-261.0,39.0,-33.0,46.0,-35.0,93.0,-996.0,241.0
26.0,-259.0,45.0,-31.0,48.0,-37.0,102.0,-998.0,249.0
27.0,-262.0,38.0,-28.0,50.0,-33.0,93.0,-1002.0,241.0
29.0,-262.0,39.0,-26.0,49.0,-33.0,105.0,-1004.0,246.0
30.0,-262.0,41.0,-25.0,48.0,-26.0,105.0,-1002.0,246.0
27.0,-265.0,37.0,-22.0,48.0,-26.0,110.0,-1000.0,243.0
33.0,-264.0,37.0,-20.0,51.0,-22.0,106.0,-1010.0,245.0
34.0,-263.0,42.0,-20.0,54.0,-21.0,108.0,-1006.0,253.0
32.0,-264.0,38.0,-17.0,57.0,-13.0,105.0,-1003.0,255.0
30.0,-262.0,39.0,-13.0,60.0,-13.0,111.0,-1009.0,256.0
35.0,-264.0,43.0,-13.0,64.0,-9.0,109.0,-1008.0,251.0
30.0,-259.0,42.0,-11.0,64.0,-10.0,109.0,-1004.0,256.0
31.0,-263.0,41.0,-11.0,69.0,-7.0,112.0,-1004.0,257.0
32.0,-263.0,39.0,-12.0,74.0,-10.0,115.0,-1003.0,258.0
33.0,-262.0,41.0,-13.0,77.0,-7.0,107.0,-1002.0,259.0
31.0,-261.0,41.0,-16.0,77.0,-9.0,106.0,-997.0,259.0
30.0,-261.0,41.0,-18.0,76.0,-5.0,103.0,-995.0,259.0
34.0,-261.0,43.0,-25.0,74.0,-7.0,104.0,-997.0,255.0
33.0,-264.0,42.0,-29.0,70.0,-4.0,108.0,-1002.0,257.0
32.0,-263.0,41.0,-31.0,73.0,-5.0,106.0,-1001.0,257.0
26.0,-260.0,38.0,-34.0,72.0,-3.0,97.0,-1000.0,260.0
29.0,-260.0,45.0,-38.0,70.0,-6.0,91.0,-995.0,259.0
30.0,-262.0,44.0,-39.0,67.0,-6.0,91.0,-1005.0,251.0
25.0,-262.0,35.0,-36.0,60.0,-9.0,92.0,-1005.0,244.0
24.0,-261.0,42.0,-30.0,59.0,-8.0,90.0,-1008.0,244.0
29.0,-263.0,35.0,-25.0,60.0,-10.0,94.0,-1012.0,235.0
25.0,-263.0,37.0,-17.0,60.0,-6.0,93.0,-1012.0,241.0
26.0,-266.0,36.0,-9.0,59.0,-6.0,92.0,-1010.0,240.0
28.0,-264.0,41.0,-2.0,61.0,-2.0,91.0,-1012.0,245.0
26.0,-263.0,39.0,8.0,60.0,-5.0,87.0,-1006.0,249.0
25.0,-260.0,40.0,16.0,65.0,-1.0,92.0,-1006.0,253.0
27.0,-263.0,45.0,23.0,63.0,-4.0,91.0,-1002.0,255.0
27.0,-263.0,42.0,28.0,62.0,-1.0,93.0,-996.0,267.0
29.0,-262.0,40.0,31.0,59.0,-4.0,92.0,-992.0,262.0
29.0,-255.0,40.0,29.0,58.0,-3.0,97.0,-988.0,262.0
30.0,-259.0,40.0,23.0,58.0,-8.0,102.0,-992.0,257.0
29.0,-256.0,38.0,13.0,59.0,-8.0,98.0,-993.0,260.0
29.0,-259.0,37.0,6.0,59.0,-11.0,103.0,-996.0,257.0
33.0,-262.0,40.0,0.0,59.0,-9.0,102.0,-997.0,259.0
31.0,-263.0,42.0,-4.0,63.0,-13.0,108.0,-1005.0,258.0
29.0,-258.0,41.0,-6.0,67.0,-9.0,105.0,-998.0,258.0
31.0,-262.0,42.0,-8.0,66.0,-11.0,105.0,-995.0,257.0
30.0,-260.0,39.0,-10.0,64.0,-8.0,103.0,-1003.0,255.0
30.0,-262.0,37.0,-8.0,59.0,-9.0,105.0,-1001.0,247.0
32.0,-262.0,40.0,-7.0,59.0,-5.0,105.0,-999.0,253.0
31.0,-263.0,40.0,-5.0,59.0,-7.0,103.0,-1000.0,251.0
30.0,-263.0,40.0,-4.0,58.0,-5.0,104.0,-1002.0,250.0
30.0,-262.0,38.0,-1.0,57.0,-5.0,104.0,-998.0,250.0
31.0,-262.0,40.0,1.0,61.0,-2.0,100.0,-1000.0,249.0
27.0,-262.0,44.0,4.0,62.0,-4.0,105.0,-1005.0,254.0
32.0,-265.0,41.0,6.0,63.0,-1.0,101.0,-1002.0,257.0
29.0,-261.0,40.0,7.0,64.0,-3.0,103.0,-1002.0,258.0
33.0,-264.0,43.0,11.0,66.0,0.0,103.0,-1001.0,254.0
31.0,-263.0,42.0,10.0,66.0,-2.0,106.0,-1005.0,256.0
31.0,-262.0,42.0,13.0,69.0,1.0,106.0,-1004.0,259.0
35.0,-263.0,41.0,14.0,71.0,-1.0,104.0,-1000.0,257.0
31.0,-262.0,41.0,14.0,71.0,0.0,100.0,-998.0,255.0
32.0,-261.0,40.0,16.0,69.0,-3.0,105.0,-1001.0,259.0
29.0,-260.0,44.0,13.0,65.0,-3.0,104.0,-994.0,259.0
30.0,-263.0,41.0,11.0,66.0,-5.0,103.0,-1001.0,263.0
29.0,-259.0,42.0,10.0,65.0,-4.0,103.0,-998.0,261.0
28.0,-261.0,42.0,11.0,64.0,-6.0,95.0,-997.0,257.0
30.0,-260.0,42.0,9.0,65.0,-4.0,101.0,-996.0,260.0
28.0,-261.0,43.0,5.0,64.0,-8.0,98.0,-994.0,263.0
28.0,-261.0,38.0,1.0,63.0,-6.0,96.0,-996.0,262.0
28.0,-258.0,45.0,2.0,64.0,-8.0,97.0,-993.0,264.0
28.0,-261.0,40.0,0.0,62.0,-7.0,95.0,-1000.0,260.0
30.0,-261.0,41.0,-1.0,60.0,-9.0,93.0,-996.0,261.0
29.0,-260.0,44.0,-4.0,61.0,-7.0,103.0,-997.0,261.0
28.0,-263.0,40.0,-6.0,60.0,-9.0,101.0,-996.0,262.0
30.0,-264.0,43.0,-8.0,61.0,-8.0,105.0,-997.0,264.0
28.0,-260.0,47.0,-9.0,63.0,-11.0,99.0,-1002.0,263.0
29.0,-263.0,43.0,-9.0,63.0,-8.0,104.0,-998.0,262.0
31.0,-262.0,43.0,-9.0,64.0,-8.0,96.0,-993.0,264.0
27.0,-255.0,39.0,-9.0,64.0,-9.0,100.0,-993.0,261.0
27.0,-261.0,42.0,-10.0,63.0,-9.0,102.0,-999.0,263.0
29.0,-260.0,45.0,-11.0,63.0,-9.0,94.0,-996.0,258.0
27.0,-257.0,39.0,-13.0,64.0,-11.0,95.0,-992.0,261.0
27.0,-262.0,41.0,-16.0,63.0,-8.0,103.0,-996.0,261.0
28.0,-259.0,43.0,-14.0,61.0,-9.0,99.0,-994.0,261.0
32.0,-264.0,41.0,-16.0,60.0,-8.0,105.0,-997.0,259.0
31.0,-261.0,40.0,-17.0,59.0,-9.0,94.0,-997.0,261.0
31.0,-262.0,40.0,-14.0,58.0,-6.0,101.0,-1000.0,261.0
28.0,-262.0,42.0,-13.0,58.0,-8.0,101.0,-993.0,255.0
29.0,-261.0,40.0,-13.0,58.0,-6.0,99.0,-993.0,255.0
30.0,-262.0,38.0,-13.0,61.0,-8.0,104.0,-997.0,261.0
32.0,-260.0,37.0,-14.0,62.0,-6.0,104.0,-1006.0,257.0
30.0,-260.0,40.0,-12.0,62.0,-7.0,99.0,-999.0,255.0
31.0,-260.0,42.0,-10.0,61.0,-7.0,102.0,-997.0,259.0
32.0,-259.0,43.0,-11.0,60.0,-8.0,105.0,-991.0,259.0
28.0,-262.0,39.0,-11.0,59.0,-6.0,106.0,-994.0,255.0
30.0,-258.0,41.0,-13.0,59.0,-8.0,100.0,-1000.0,258.0
28.0,-260.0,43.0,-13.0,57.0,-6.0,98.0,-995.0,261.0
31.0,-261.0,39.0,-15.0,56.0,-8.0,102.0,-992.0,258.0
30.0,-262.0,42.0,-15.0,59.0,-6.0,103.0,-1001.0,261.0
29.0,-263.0,41.0,-15.0,56.0,-7.0,103.0,-1001.0,261.0
27.0,-263.0,42.0,-14.0,56.0,-6.0,101.0,-997.0,259.0
30.0,-264.0,39.0,-13.0,54.0,-6.0,102.0,-1000.0,260.0
29.0,-262.0,46.0,-13.0,55.0,-5.0,102.0,-1000.0,257.0
30.0,-263.0,41.0,-13.0,56.0,-5.0,107.0,-999.0,261.0
27.0,-261.0,41.0,-13.0,55.0,-6.0,101.0,-1004.0,257.0
33.0,-260.0,39.0,-12.0,56.0,-6.0,95.0,-1006.0,260.0
31.0,-265.0,41.0,-10.0,59.0,-4.0,103.0,-1009.0,259.0
29.0,-262.0,40.0,-10.0,61.0,-6.0,99.0,-1003.0,256.0
27.0,-261.0,39.0,-10.0,61.0,-6.0,103.0,-1004.0,259.0
27.0,-260.0,39.0,-10.0,60.0,-7.0,100.0,-1004.0,253.0
31.0,-263.0,38.0,-8.0,62.0,-6.0,97.0,-1000.0,257.0
29.0,-262.0,43.0,-7.0,63.0,-7.0,106.0,-1004.0,257.0
30.0,-262.0,41.0,-5.0,66.0,-6.0,100.0,-1003.0,257.0
30.0,-264.0,41.0,-2.0,66.0,-7.0,105.0,-1003.0,261.0
29.0,-264.0,44.0,-1.0,64.0,-5.0,103.0,-1006.0,257.0
31.0,-263.0,39.0,-1.0,62.0,-5.0,106.0,-1005.0,254.0
32.0,-263.0,39.0,1.0,60.0,-5.0,102.0,-1006.0,255.0
27.0,-264.0,38.0,3.0,60.0,-6.0,106.0,-995.0,254.0
30.0,-260.0,42.0,5.0,59.0,-3.0,106.0,-1004.0,255.0
30.0,-262.0,39.0,8.0,60.0,-5.0,104.0,-1000.0,259.0
28.0,-261.0,45.0,11.0,60.0,-5.0,103.0,-1004.0,253.0
28.0,-266.0,43.0,14.0,60.0,-4.0,106.0,-998.0,256.0
28.0,-263.0,36.0,15.0,59.0,-4.0,101.0,-1001.0,252.0
26.0,-262.0,42.0,16.0,58.0,-3.0,104.0,-997.0,256.0
31.0,-263.0,38.0,16.0,57.0,-2.0,106.0,-1003.0,260.0
29.0,-264.0,39.0,16.0,58.0,-5.0,101.0,-1004.0,256.0
29.0,-262.0,40.0,17.0,59.0,-5.0,98.0,-1007.0,257.0
30.0,-263.0,39.0,18.0,60.0,-6.0,104.0,-1001.0,252.0
29.0,-259.0,44.0,18.0,62.0,-5.0,95.0,-1001.0,256.0
30.0,-262.0,40.0,19.0,63.0,-7.0,98.0,-997.0,258.0
27.0,-261.0,43.0,16.0,63.0,-8.0,104.0,-998.0,258.0
27.0,-262.0,41.0,16.0,60.0,-9.0,104.0,-998.0,254.0
30.0,-260.0,44.0,16.0,60.0,-10.0,100.0,-992.0,262.0
29.0,-260.0,43.0,18.0,59.0,-9.0,106.0,-995.0,261.0
34.0,-259.0,45.0,19.0,58.0,-8.0,104.0,-994.0,266.0
32.0,-260.0,43.0,22.0,58.0,-7.0,105.0,-993.0,263.0
31.0,-259.0,42.0,22.0,59.0,-5.0,101.0,-996.0,261.0
30.0,-263.0,46.0,23.0,61.0,-6.0,99.0,-995.0,258.0
27.0,-260.0,43.0,24.0,63.0,-7.0,98.0,-1002.0,265.0
31.0,-259.0,45.0,24.0,63.0,-8.0,102.0,-1000.0,263.0
34.0,-260.0,47.0,23.0,65.0,-9.0,103.0,-993.0,272.0
32.0,-259.0,43.0,20.0,67.0,-10.0,106.0,-991.0,275.0
33.0,-259.0,46.0,16.0,66.0,-12.0,100.0,-992.0,279.0
32.0,-261.0,45.0,11.0,67.0,-13.0,101.0,-987.0,273.0
30.0,-260.0,45.0,8.0,68.0,-13.0,102.0,-993.0,275.0
29.0,-258.0,45.0,7.0,68.0,-12.0,105.0,-994.0,266.0
32.0,-263.0,44.0,6.0,67.0,-11.0,105.0,-998.0,263.0
31.0,-260.0,41.0,4.0,65.0,-10.0,107.0,-996.0,270.0
31.0,-259.0,43.0,3.0,62.0,-8.0,105.0,-1005.0,264.0
28.0,-258.0,36.0,4.0,61.0,-8.0,100.0,-1001.0,270.0
29.0,-263.0,46.0,6.0,58.0,-5.0,106.0,-997.0,263.0
29.0,-261.0,43.0,8.0,59.0,-3.0,108.0,-991.0,267.0
30.0,-260.0,44.0,10.0,61.0,-4.0,108.0,-990.0,267.0
31.0,-260.0,44.0,12.0,62.0,-2.0,106.0,-990.0,265.0
31.0,-260.0,47.0,13.0,63.0,-1.0,103.0,-995.0,264.0
30.0,-260.0,44.0,12.0,64.0,-2.0,102.0,-993.0,270.0
31.0,-260.0,47.0,14.0,64.0,-2.0,106.0,-994.0,265.0
34.0,-260.0,40.0,15.0,67.0,-3.0,108.0,-991.0,266.0
32.0,-263.0,46.0,15.0,69.0,-4.0,109.0,-995.0,268.0
27.0,-259.0,45.0,15.0,71.0,-4.0,104.0,-993.0,269.0
29.0,-259.0,43.0,14.0,70.0,-5.0,98.0,-994.0,270.0
29.0,-261.0,46.0,13.0,69.0,-4.0,101.0,-993.0,273.0
32.0,-263.0,43.0,11.0,68.0,-6.0,107.0,-997.0,271.0
33.0,-260.0,44.0,10.0,67.0,-4.0,105.0,-989.0,271.0
29.0,-258.0,45.0,9.0,67.0,-5.0,104.0,-990.0,273.0
33.0,-259.0,46.0,5.0,65.0,-2.0,100.0,-996.0,269.0
30.0,-259.0,45.0,2.0,62.0,-3.0,101.0,-992.0,265.0
31.0,-259.0,44.0,-1.0,62.0,-1.0,103.0,-990.0,262.0
34.0,-260.0,42.0,-2.0,61.0,-2.0,106.0,-990.0,267.0
31.0,-261.0,45.0,-3.0,59.0,-2.0,103.0,-990.0,267.0
30.0,-260.0,42.0,-2.0,58.0,-1.0,104.0,-993.0,268.0
28.0,-259.0,43.0,-3.0,59.0,1.0,93.0,-997.0,268.0
34.0,-260.0,41.0,2.0,60.0,-1.0,105.0,-994.0,268.0
30.0,-264.0,41.0,6.0,60.0,0.0,103.0,-998.0,273.0
29.0,-258.0,45.0,8.0,63.0,-2.0,101.0,-997.0,269.0
31.0,-252.0,33.0,10.0,64.0,-2.0,108.0,-998.0,267.0
29.0,-260.0,44.0,8.0,64.0,-1.0,102.0,-997.0,268.0
29.0,-260.0,46.0,8.0,67.0,-2.0,103.0,-993.0,269.0
27.0,-260.0,46.0,7.0,67.0,-4.0,104.0,-997.0,264.0
33.0,-260.0,44.0,7.0,68.0,-2.0,104.0,-993.0,268.0
33.0,-264.0,45.0,6.0,67.0,-2.0,104.0,-992.0,269.0
26.0,-261.0,46.0,5.0,67.0,-1.0,100.0,-992.0,269.0
30.0,-259.0,41.0,2.0,67.0,-3.0,100.0,-990.0,265.0
30.0,-261.0,42.0,1.0,65.0,0.0,103.0,-987.0,271.0
28.0,-261.0,40.0,-2.0,63.0,-2.0,101.0,-984.0,273.0
30.0,-259.0,45.0,-1.0,61.0,0.0,104.0,-994.0,268.0
28.0,-259.0,44.0,0.0,62.0,-1.0,99.0,-993.0,273.0
32.0,-263.0,45.0,0.0,61.0,1.0,101.0,-997.0,270.0
28.0,-260.0,47.0,0.0,61.0,0.0,101.0,-991.0,277.0
29.0,-258.0,45.0,-1.0,61.0,1.0,105.0,-992.0,276.0
31.0,-259.0,42.0,-1.0,60.0,0.0,102.0,-994.0,274.0
28.0,-260.0,44.0,0.0,62.0,2.0,101.0,-988.0,276.0
27.0,-259.0,46.0,-2.0,62.0,-2.0,105.0,-992.0,274.0
29.0,-261.0,42.0,-4.0,62.0,-1.0,103.0,-990.0,276.0
32.0,-262.0,43.0,-9.0,64.0,-3.0,101.0,-993.0,276.0
32.0,-264.0,47.0,-9.0,62.0,-2.0,104.0,-995.0,275.0
28.0,-259.0,42.0,-10.0,62.0,-4.0,106.0,-990.0,275.0
30.0,-263.0,44.0,-10.0,62.0,-2.0,99.0,-996.0,275.0
29.0,-262.0,46.0,-11.0,61.0,-4.0,105.0,-997.0,274.0
27.0,-259.0,44.0,-10.0,60.0,-2.0,105.0,-991.0,268.0
29.0,-261.0,51.0,-11.0,59.0,-2.0,101.0,-993.0,267.0
28.0,-260.0,44.0,-13.0,60.0,0.0,104.0,-986.0,270.0
28.0,-257.0,41.0,-14.0,61.0,-2.0,100.0,-993.0,268.0
29.0,-262.0,45.0,-13.0,62.0,0.0,105.0,-989.0,266.0
30.0,-260.0,47.0,-13.0,62.0,-2.0,100.0,-993.0,271.0
30.0,-262.0,44.0,-12.0,61.0,1.0,100.0,-998.0,276.0
32.0,-263.0,46.0,-11.0,62.0,0.0,101.0,-999.0,266.0
32.0,-261.0,42.0,-11.0,61.0,1.0,104.0,-997.0,264.0
33.0,-259.0,43.0,-10.0,62.0,1.0,105.0,-997.0,270.0
31.0,-261.0,44.0,-8.0,64.0,1.0,100.0,-1003.0,269.0
30.0,-263.0,45.0,-6.0,65.0,0.0,104.0,-1001.0,273.0
31.0,-261.0,43.0,-4.0,66.0,1.0,105.0,-1002.0,270.0
31.0,-264.0,47.0,-4.0,65.0,-1.0,106.0,-995.0,270.0
32.0,-260.0,43.0,-5.0,67.0,1.0,102.0,-997.0,273.0
29.0,-261.0,45.0,-3.0,69.0,-1.0,105.0,-990.0,271.0
32.0,-260.0,43.0,-4.0,68.0,1.0,101.0,-999.0,275.0
30.0,-260.0,45.0,-5.0,66.0,1.0,101.0,-993.0,273.0
28.0,-260.0,45.0,-9.0,64.0,3.0,95.0,-992.0,271.0
32.0,-258.0,41.0,-13.0,63.0,2.0,102.0,-996.0,272.0
29.0,-259.0,44.0,-15.0,64.0,3.0,106.0,-996.0,272.0
30.0,-260.0,41.0,-14.0,64.0,3.0,98.0,-993.0,270.0
32.0,-260.0,41.0,-14.0,65.0,4.0,100.0,-994.0,272.0
29.0,-262.0,49.0,-14.0,64.0,3.0,94.0,-986.0,267.0
29.0,-261.0,43.0,-13.0,63.0,5.0,99.0,-990.0,262.0
28.0,-262.0,46.0,-12.0,62.0,2.0,102.0,-994.0,271.0
29.0,-262.0,45.0,-10.0,64.0,4.0,105.0,-995.0,267.0
30.0,-261.0,46.0,-9.0,66.0,1.0,103.0,-996.0,272.0
29.0,-262.0,42.0,-6.0,66.0,2.0,102.0,-997.0,274.0
29.0,-262.0,48.0,-5.0,66.0,0.0,101.0,-994.0,275.0
28.0,-259.0,45.0,-3.0,67.0,-1.0,97.0,-992.0,273.0
27.0,-258.0,43.0,-3.0,67.0,-2.0,98.0,-989.0,278.0
30.0,-263.0,45.0,-1.0,67.0,-2.0,97.0,-986.0,276.0
29.0,-261.0,46.0,0.0,66.0,-4.0,103.0,-986.0,279.0
28.0,-259.0,46.0,-1.0,64.0,-3.0,97.0,-990.0,277.0
32.0,-262.0,48.0,-3.0,61.0,-6.0,98.0,-991.0,275.0
30.0,-258.0,41.0,-3.0,60.0,-4.0,103.0,-1000.0,272.0
29.0,-258.0,42.0,-5.0,60.0,-6.0,104.0,-995.0,275.0
29.0,-259.0,48.0,-9.0,63.0,-4.0,101.0,-994.0,276.0
29.0,-259.0,45.0,-10.0,64.0,-6.0,106.0,-992.0,278.0
28.0,-259.0,44.0,-10.0,65.0,-2.0,97.0,-990.0,272.0
30.0,-260.0,44.0,-12.0,64.0,-5.0,101.0,-992.0,274.0
32.0,-262.0,45.0,-13.0,61.0,-2.0,101.0,-991.0,271.0
28.0,-257.0,43.0,-13.0,62.0,-5.0,104.0,-989.0,274.0
29.0,-260.0,44.0,-10.0,59.0,-4.0,102.0,-992.0,276.0
31.0,-260.0,48.0,-11.0,60.0,-4.0,103.0,-989.0,272.0
28.0,-263.0,42.0,-10.0,59.0,-2.0,103.0,-994.0,275.0
31.0,-259.0,45.0,-10.0,60.0,-5.0,107.0,-997.0,270.0
32.0,-264.0,44.0,-10.0,63.0,-3.0,105.0,-997.0,275.0
27.0,-261.0,47.0,-11.0,65.0,-6.0,108.0,-990.0,274.0
31.0,-261.0,43.0,-10.0,64.0,-3.0,100.0,-994.0,272.0
28.0,-262.0,46.0,-12.0,62.0,-5.0,97.0,-987.0,271.0
30.0,-262.0,45.0,-11.0,59.0,-3.0,105.0,-992.0,273.0
30.0,-262.0,42.0,-12.0,58.0,-6.0,104.0,-993.0,272.0
30.0,-257.0,46.0,-10.0,61.0,-3.0,104.0,-992.0,275.0
30.0,-261.0,42.0,-9.0,62.0,-5.0,104.0,-992.0,273.0
29.0,-258.0,43.0,-6.0,61.0,-2.0,100.0,-992.0,270.0
32.0,-260.0,43.0,-4.0,60.0,-3.0,101.0,-993.0,274.0
33.0,-262.0,48.0,-4.0,59.0,1.0,103.0,-997.0,275.0
30.0,-261.0,47.0,-4.0,63.0,-1.0,103.0,-991.0,273.0
29.0,-262.0,47.0,-6.0,62.0,2.0,108.0,-997.0,273.0
30.0,-262.0,44.0,-7.0,62.0,-2.0,103.0,-991.0,277.0
30.0,-261.0,44.0,-7.0,63.0,0.0,102.0,-985.0,275.0
28.0,-260.0,48.0,-9.0,62.0,-2.0,95.0,-991.0,274.0
29.0,-260.0,47.0,-11.0,60.0,-1.0,104.0,-992.0,276.0
30.0,-261.0,47.0,-15.0,60.0,-5.0,101.0,-991.0,279.0
28.0,-262.0,49.0,-18.0,60.0,-4.0,100.0,-996.0,286.0
30.0,-261.0,47.0,-18.0,60.0,-7.0,96.0,-998.0,285.0
30.0,-264.0,46.0,-16.0,59.0,-6.0,98.0,-1002.0,275.0
29.0,-261.0,45.0,-14.0,59.0,-8.0,101.0,-1002.0,273.0
30.0,-260.0,43.0,-10.0,61.0,-4.0,106.0,-1004.0,264.0
31.0,-263.0,47.0,-7.0,62.0,-6.0,94.0,-999.0,264.0
30.0,-262.0,42.0,-5.0,60.0,-3.0,102.0,-1005.0,262.0
32.0,-263.0,45.0,-4.0,58.0,-4.0,100.0,-998.0,266.0
29.0,-262.0,46.0,1.0,56.0,-1.0,100.0,-998.0,268.0
31.0,-261.0,47.0,3.0,55.0,-3.0,104.0,-995.0,274.0
31.0,-261.0,44.0,1.0,55.0,-1.0,100.0,-989.0,275.0
29.0,-259.0,47.0,3.0,57.0,-3.0,102.0,-995.0,275.0
30.0,-258.0,43.0,3.0,59.0,-1.0,100.0,-990.0,276.0
30.0,-259.0,48.0,4.0,59.0,-4.0,102.0,-985.0,273.0
30.0,-260.0,46.0,0.0,62.0,-1.0,106.0,-988.0,275.0
28.0,-258.0,50.0,-4.0,63.0,-4.0,105.0,-984.0,276.0
29.0,-258.0,45.0,-5.0,63.0,-2.0,106.0,-993.0,278.0
30.0,-258.0,49.0,-6.0,63.0,-5.0,92.0,-990.0,279.0
30.0,-261.0,48.0,-5.0,61.0,-2.0,100.0,-988.0,275.0
29.0,-261.0,45.0,-6.0,62.0,-7.0,92.0,-990.0,276.0
30.0,-260.0,50.0,-7.0,63.0,-4.0,100.0,-988.0,278.0
26.0,-259.0,46.0,-8.0,61.0,-7.0,101.0,-993.0,278.0
29.0,-259.0,48.0,-8.0,60.0,-4.0,99.0,-996.0,280.0
29.0,-260.0,49.0,-11.0,59.0,-5.0,103.0,-996.0,272.0
29.0,-262.0,44.0,-11.0,59.0,-2.0,99.0,-995.0,275.0
30.0,-260.0,45.0,-11.0,59.0,-4.0,104.0,-993.0,275.0
30.0,-260.0,43.0,-12.0,59.0,-1.0,98.0,-996.0,275.0
28.0,-260.0,44.0,-11.0,61.0,-4.0,99.0,-994.0,275.0
31.0,-258.0,49.0,-11.0,60.0,-2.0,108.0,-992.0,276.0
30.0,-262.0,44.0,-10.0,58.0,-5.0,100.0,-1002.0,273.0
31.0,-261.0,48.0,-9.0,60.0,-2.0,103.0,-989.0,276.0
31.0,-260.0,47.0,-9.0,61.0,-5.0,105.0,-989.0,273.0
30.0,-260.0,46.0,-9.0,62.0,-3.0,99.0,-989.0,275.0
28.0,-259.0,42.0,-9.0,63.0,-5.0,105.0,-995.0,270.0
28.0,-259.0,45.0,-8.0,61.0,-1.0,97.0,-988.0,272.0
28.0,-260.0,47.0,-7.0,61.0,-5.0,96.0,-997.0,274.0
31.0,-264.0,49.0,-10.0,63.0,-2.0,95.0,-998.0,278.0
29.0,-261.0,45.0,-7.0,64.0,-6.0,95.0,-1000.0,277.0
33.0,-259.0,48.0,-3.0,64.0,-3.0,104.0,-993.0,274.0
29.0,-261.0,47.0,-1.0,64.0,-6.0,104.0,-1000.0,274.0
32.0,-260.0,48.0,2.0,64.0,-4.0,100.0,-999.0,276.0
28.0,-260.0,47.0,5.0,65.0,-5.0,104.0,-998.0,271.0
33.0,-261.0,45.0,4.0,65.0,-2.0,104.0,-999.0,275.0
29.0,-261.0,45.0,5.0,66.0,-4.0,103.0,-991.0,276.0
30.0,-261.0,48.0,5.0,66.0,1.0,99.0,-992.0,274.0
29.0,-259.0,47.0,7.0,67.0,-2.0,103.0,-995.0,275.0
27.0,-262.0,46.0,7.0,66.0,0.0,99.0,-990.0,281.0
29.0,-258.0,43.0,7.0,64.0,-2.0,93.0,-990.0,281.0
29.0,-259.0,49.0,5.0,63.0,-1.0,98.0,-989.0,277.0
30.0,-258.0,45.0,1.0,60.0,-5.0,102.0,-987.0,280.0
29.0,-259.0,48.0,1.0,60.0,-3.0,98.0,-989.0,275.0
29.0,-259.0,48.0,-2.0,60.0,-5.0,98.0,-988.0,275.0
30.0,-263.0,47.0,-6.0,58.0,-4.0,100.0,-990.0,279.0
30.0,-257.0,44.0,-7.0,55.0,-6.0,100.0,-992.0,280.0
30.0,-260.0,47.0,-8.0,57.0,-4.0,99.0,-993.0,277.0
26.0,-260.0,46.0,-8.0,59.0,-8.0,104.0,-991.0,276.0
29.0,-258.0,51.0,-8.0,61.0,-5.0,95.0,-993.0,274.0
30.0,-259.0,46.0,-7.0,61.0,-7.0,101.0,-997.0,272.0
31.0,-262.0,48.0,-6.0,59.0,-5.0,105.0,-993.0,276.0
27.0,-262.0,48.0,-4.0,61.0,-7.0,102.0,-1000.0,279.0
29.0,-261.0,49.0,-1.0,59.0,-6.0,103.0,-996.0,276.0
30.0,-259.0,49.0,0.0,60.0,-8.0,100.0,-997.0,280.0
30.0,-262.0,45.0,-1.0,62.0,-5.0,104.0,-994.0,277.0
30.0,-261.0,49.0,0.0,62.0,-8.0,99.0,-988.0,280.0
27.0,-259.0,42.0,-1.0,62.0,-8.0,98.0,-988.0,278.0
28.0,-259.0,46.0,-2.0,60.0,-10.0,103.0,-983.0,278.0
30.0,-261.0,50.0,-5.0,59.0,-9.0,97.0,-988.0,278.0
30.0,-259.0,47.0,-6.0,58.0,-11.0,100.0,-989.0,283.0
27.0,-256.0,48.0,-8.0,59.0,-9.0,103.0,-996.0,283.0
33.0,-258.0,44.0,-10.0,60.0,-11.0,105.0,-992.0,278.0
30.0,-259.0,44.0,-13.0,59.0,-8.0,105.0,-990.0,279.0
31.0,-260.0,48.0,-12.0,60.0,-10.0,103.0,-988.0,282.0
28.0,-260.0,48.0,-13.0,59.0,-8.0,105.0,-991.0,280.0
34.0,-264.0,44.0,-13.0,60.0,-9.0,105.0,-996.0,280.0
30.0,-262.0,47.0,-13.0,61.0,-7.0,104.0,-994.0,276.0
31.0,-260.0,47.0,-11.0,59.0,-7.0,107.0,-989.0,282.0
28.0,-258.0,50.0,-11.0,58.0,-4.0,103.0,-993.0,280.0
32.0,-260.0,45.0,-13.0,57.0,-5.0,106.0,-991.0,274.0
31.0,-258.0,46.0,-13.0,58.0,-4.0,109.0,-988.0,276.0
30.0,-262.0,47.0,-13.0,57.0,-6.0,104.0,-990.0,274.0
31.0,-261.0,46.0,-12.0,59.0,-6.0,104.0,-990.0,275.0
33.0,-262.0,47.0,-14.0,62.0,-7.0,106.0,-996.0,276.0
30.0,-257.0,43.0,-12.0,61.0,-5.0,107.0,-989.0,278.0
30.0,-260.0,46.0,-11.0,62.0,-6.0,106.0,-994.0,276.0
32.0,-261.0,48.0,-12.0,62.0,-6.0,108.0,-995.0,276.0
31.0,-259.0,44.0,-11.0,62.0,-6.0,107.0,-994.0,275.0
31.0,-259.0,48.0,-12.0,63.0,-4.0,104.0,-992.0,277.0
32.0,-260.0,45.0,-12.0,64.0,-6.0,103.0,-991.0,279.0
28.0,-260.0,46.0,-12.0,65.0,-3.0,104.0,-993.0,275.0
31.0,-262.0,44.0,-11.0,65.0,-4.0,105.0,-993.0,282.0
28.0,-262.0,45.0,-8.0,66.0,-3.0,104.0,-990.0,279.0
30.0,-261.0,46.0,-6.0,65.0,-4.0,103.0,-991.0,275.0
33.0,-261.0,46.0,-6.0,65.0,-3.0,104.0,-993.0,275.0
29.0,-261.0,45.0,-4.0,66.0,-6.0,106.0,-994.0,276.0
31.0,-258.0,46.0,-5.0,65.0,-5.0,105.0,-993.0,275.0
29.0,-263.0,45.0,-5.0,63.0,-6.0,101.0,-989.0,282.0
29.0,-258.0,45.0,-5.0,63.0,-5.0,103.0,-987.0,279.0
32.0,-259.0,48.0,-4.0,62.0,-7.0,105.0,-991.0,276.0
29.0,-259.0,48.0,-4.0,63.0,-5.0,103.0,-986.0,277.0
33.0,-260.0,50.0,-6.0,61.0,-6.0,103.0,-987.0,283.0
30.0,-260.0,47.0,-7.0,62.0,-4.0,101.0,-995.0,281.0
30.0,-259.0,48.0,-8.0,63.0,-4.0,97.0,-986.0,280.0
30.0,-258.0,46.0,-9.0,62.0,-3.0,100.0,-989.0,280.0
30.0,-259.0,47.0,-9.0,61.0,-3.0,105.0,-989.0,279.0
27.0,-257.0,47.0,-10.0,62.0,-3.0,99.0,-989.0,282.0
28.0,-256.0,49.0,-11.0,62.0,-4.0,103.0,-990.0,282.0
31.0,-259.0,45.0,-12.0,62.0,-3.0,105.0,-990.0,282.0
28.0,-258.0,49.0,-12.0,60.0,-5.0,95.0,-990.0,284.0
28.0,-259.0,47.0,-13.0,61.0,-3.0,99.0,-989.0,279.0
27.0,-257.0,48.0,-14.0,61.0,-4.0,102.0,-991.0,279.0
31.0,-261.0,50.0,-14.0,61.0,-3.0,97.0,-991.0,283.0
27.0,-260.0,48.0,-14.0,62.0,-4.0,101.0,-994.0,281.0
31.0,-261.0,48.0,-15.0,62.0,-2.0,100.0,-990.0,277.0
29.0,-255.0,52.0,-13.0,63.0,-4.0,106.0,-987.0,279.0
29.0,-261.0,49.0,-15.0,62.0,-3.0,99.0,-993.0,281.0
28.0,-260.0,49.0,-17.0,61.0,-4.0,98.0,-997.0,280.0
30.0,-259.0,47.0,-19.0,59.0,-3.0,106.0,-991.0,278.0
29.0,-259.0,42.0,-21.0,57.0,-5.0,106.0,-992.0,278.0
28.0,-259.0,46.0,-21.0,57.0,-5.0,107.0,-993.0,277.0
29.0,-258.0,46.0,-20.0,56.0,-7.0,103.0,-990.0,278.0
31.0,-258.0,43.0,-19.0,57.0,-5.0,105.0,-991.0,277.0
33.0,-261.0,45.0,-18.0,58.0,-5.0,107.0,-990.0,278.0
31.0,-259.0,48.0,-16.0,59.0,-3.0,106.0,-991.0,282.0
31.0,-261.0,44.0,-13.0,57.0,-3.0,101.0,-988.0,279.0
30.0,-260.0,47.0,-10.0,59.0,-1.0,101.0,-994.0,276.0
31.0,-258.0,49.0,-9.0,60.0,-2.0,106.0,-989.0,278.0
30.0,-260.0,48.0,-11.0,61.0,-2.0,104.0,-990.0,281.0
30.0,-260.0,48.0,-11.0,60.0,-3.0,104.0,-995.0,282.0
28.0,-257.0,44.0,-13.0,59.0,-3.0,105.0,-992.0,282.0
32.0,-259.0,44.0,-15.0,60.0,-6.0,99.0,-989.0,281.0
28.0,-260.0,46.0,-18.0,62.0,-5.0,102.0,-989.0,282.0
30.0,-258.0,45.0,-20.0,62.0,-6.0,103.0,-991.0,283.0
30.0,-257.0,50.0,-24.0,62.0,-7.0,102.0,-988.0,290.0
31.0,-261.0,47.0,-24.0,62.0,-9.0,98.0,-991.0,283.0
30.0,-258.0,46.0,-22.0,63.0,-9.0,98.0,-992.0,281.0
28.0,-263.0,46.0,-19.0,63.0,-10.0,98.0,-997.0,277.0
28.0,-262.0,42.0,-14.0,64.0,-8.0,105.0,-1003.0,274.0
29.0,-264.0,44.0,-12.0,62.0,-8.0,98.0,-1002.0,268.0
32.0,-264.0,43.0,-10.0,61.0,-4.0,100.0,-1001.0,271.0
29.0,-260.0,45.0,-6.0,61.0,-6.0,103.0,-1000.0,269.0
28.0,-260.0,43.0,-1.0,61.0,-5.0,104.0,-1001.0,268.0
34.0,-261.0,47.0,2.0,59.0,-4.0,102.0,-993.0,274.0
31.0,-261.0,44.0,3.0,61.0,-3.0,104.0,-988.0,275.0
30.0,-258.0,49.0,5.0,63.0,-3.0,105.0,-985.0,277.0
27.0,-262.0,48.0,5.0,63.0,-3.0,103.0,-987.0,284.0
30.0,-259.0,44.0,3.0,63.0,-3.0,105.0,-982.0,284.0
30.0,-261.0,48.0,-1.0,65.0,-4.0,103.0,-989.0,281.0
32.0,-262.0,47.0,-4.0,66.0,-5.0,105.0,-985.0,281.0
32.0,-259.0,47.0,-6.0,70.0,-4.0,107.0,-985.0,284.0
30.0,-258.0,44.0,-7.0,70.0,-5.0,103.0,-985.0,284.0
29.0,-259.0,49.0,-8.0,70.0,-5.0,104.0,-989.0,280.0
29.0,-259.0,49.0,-8.0,68.0,-5.0,106.0,-986.0,280.0
30.0,-263.0,49.0,-7.0,66.0,-3.0,105.0,-997.0,278.0
33.0,-259.0,47.0,-9.0,64.0,-3.0,105.0,-992.0,285.0
29.0,-261.0,44.0,-10.0,60.0,-3.0,94.0,-989.0,277.0
29.0,-259.0,45.0,-12.0,58.0,-3.0,106.0,-992.0,279.0
30.0,-262.0,46.0,-12.0,58.0,-3.0,103.0,-986.0,278.0
31.0,-261.0,47.0,-10.0,58.0,-4.0,104.0,-991.0,279.0
30.0,-258.0,45.0,-10.0,58.0,-2.0,103.0,-995.0,279.0
29.0,-259.0,46.0,-10.0,58.0,-3.0,104.0,-990.0,280.0
28.0,-260.0,45.0,-9.0,59.0,-2.0,99.0,-993.0,279.0
30.0,-260.0,46.0,-9.0,61.0,-4.0,102.0,-992.0,279.0
32.0,-260.0,49.0,-8.0,62.0,-4.0,104.0,-991.0,273.0
28.0,-261.0,49.0,-8.0,62.0,-4.0,102.0,-989.0,282.0
30.0,-261.0,49.0,-6.0,63.0,-4.0,102.0,-996.0,277.0
30.0,-261.0,50.0,-5.0,61.0,-4.0,101.0,-998.0,281.0
31.0,-257.0,46.0,-5.0,62.0,-6.0,105.0,-990.0,282.0
31.0,-259.0,49.0,-8.0,62.0,-6.0,104.0,-986.0,280.0
30.0,-259.0,46.0,-7.0,64.0,-6.0,103.0,-991.0,279.0
30.0,-257.0,47.0,-8.0,63.0,-6.0,102.0,-989.0,279.0
29.0,-260.0,46.0,-9.0,63.0,-5.0,104.0,-992.0,278.0
31.0,-260.0,44.0,-9.0,63.0,-6.0,105.0,-994.0,281.0
29.0,-261.0,47.0,-7.0,61.0,-6.0,103.0,-1000.0,284.0
30.0,-260.0,47.0,-5.0,63.0,-4.0,105.0,-990.0,281.0
29.0,-261.0,49.0,-5.0,60.0,-5.0,101.0,-989.0,279.0
29.0,-259.0,46.0,-6.0,59.0,-4.0,103.0,-989.0,276.0
31.0,-262.0,45.0,-6.0,59.0,-4.0,105.0,-991.0,281.0
31.0,-262.0,49.0,-5.0,58.0,-4.0,106.0,-991.0,274.0
31.0,-259.0,54.0,-7.0,59.0,-4.0,104.0,-988.0,281.0
31.0,-257.0,49.0,-8.0,60.0,-4.0,100.0,-988.0,281.0
30.0,-257.0,48.0,-9.0,59.0,-4.0,107.0,-986.0,283.0
30.0,-261.0,52.0,-10.0,60.0,-4.0,104.0,-992.0,276.0
28.0,-258.0,48.0,-9.0,63.0,-6.0,106.0,-985.0,284.0
30.0,-259.0,46.0,-9.0,63.0,-5.0,105.0,-988.0,289.0
29.0,-257.0,46.0,-11.0,65.0,-4.0,101.0,-990.0,277.0
29.0,-259.0,51.0,-11.0,64.0,-2.0,106.0,-990.0,279.0
33.0,-259.0,45.0,-12.0,65.0,-3.0,104.0,-986.0,283.0
33.0,-259.0,50.0,-12.0,64.0,-2.0,103.0,-992.0,282.0
28.0,-259.0,51.0,-13.0,60.0,-2.0,103.0,-990.0,281.0
31.0,-260.0,52.0,-11.0,59.0,-1.0,105.0,-986.0,284.0
33.0,-261.0,46.0,-12.0,60.0,-1.0,105.0,-987.0,281.0
30.0,-257.0,47.0,-11.0,60.0,-1.0,107.0,-992.0,278.0
31.0,-261.0,47.0,-13.0,59.0,-2.0,106.0,-989.0,283.0
30.0,-261.0,45.0,-14.0,60.0,-2.0,102.0,-990.0,284.0
30.0,-256.0,46.0,-13.0,61.0,-3.0,106.0,-991.0,280.0
30.0,-259.0,46.0,-14.0,60.0,-2.0,102.0,-991.0,284.0
31.0,-262.0,48.0,-13.0,62.0,-3.0,100.0,-988.0,279.0
29.0,-262.0,47.0,-12.0,65.0,-3.0,98.0,-991.0,285.0
29.0,-258.0,49.0,-10.0,65.0,-3.0,99.0,-991.0,281.0
26.0,-260.0,45.0,-10.0,65.0,-3.0,101.0,-986.0,276.0
32.0,-259.0,49.0,-10.0,63.0,-4.0,97.0,-992.0,277.0
31.0,-261.0,46.0,-9.0,62.0,-4.0,105.0,-989.0,279.0
33.0,-261.0,45.0,-9.0,63.0,-4.0,102.0,-994.0,280.0
29.0,-260.0,42.0,-8.0,64.0,-3.0,104.0,-994.0,281.0
27.0,-260.0,48.0,-3.0,65.0,-4.0,98.0,-991.0,280.0
27.0,-258.0,45.0,-2.0,66.0,0.0,107.0,-986.0,278.0
31.0,-260.0,48.0,1.0,67.0,-2.0,100.0,-992.0,277.0
27.0,-260.0,44.0,4.0,67.0,-1.0,94.0,-994.0,274.0
31.0,-261.0,47.0,6.0,68.0,-1.0,103.0,-995.0,278.0
30.0,-261.0,46.0,11.0,68.0,-1.0,100.0,-1002.0,276.0
29.0,-261.0,46.0,14.0,71.0,-1.0,100.0,-988.0,276.0
31.0,-263.0,45.0,20.0,72.0,0.0,104.0,-998.0,279.0
30.0,-261.0,46.0,21.0,74.0,-2.0,105.0,-1002.0,277.0
30.0,-263.0,50.0,22.0,74.0,1.0,106.0,-1000.0,278.0
31.0,-264.0,47.0,21.0,74.0,0.0,108.0,-995.0,277.0
31.0,-262.0,47.0,20.0,76.0,4.0,112.0,-999.0,277.0
33.0,-261.0,47.0,19.0,77.0,3.0,108.0,-991.0,278.0
29.0,-261.0,42.0,19.0,78.0,8.0,104.0,-993.0,274.0
31.0,-260.0,51.0,20.0,78.0,7.0,107.0,-989.0,277.0
30.0,-260.0,47.0,19.0,76.0,9.0,100.0,-987.0,276.0
32.0,-257.0,48.0,19.0,75.0,8.0,106.0,-988.0,278.0
33.0,-257.0,46.0,18.0,75.0,8.0,106.0,-986.0,276.0
29.0,-258.0,46.0,18.0,74.0,7.0,108.0,-987.0,280.0
32.0,-259.0,48.0,15.0,73.0,10.0,107.0,-985.0,283.0
32.0,-256.0,48.0,10.0,71.0,8.0,103.0,-983.0,289.0
31.0,-260.0,47.0,10.0,71.0,9.0,106.0,-984.0,288.0
28.0,-257.0,50.0,11.0,70.0,7.0,104.0,-984.0,290.0
32.0,-258.0,51.0,12.0,71.0,8.0,106.0,-981.0,292.0
33.0,-260.0,49.0,11.0,68.0,7.0,107.0,-984.0,295.0
32.0,-259.0,55.0,9.0,67.0,9.0,100.0,-986.0,297.0
31.0,-258.0,52.0,8.0,66.0,7.0,102.0,-981.0,298.0
27.0,-262.0,50.0,5.0,63.0,7.0,102.0,-981.0,299.0
29.0,-257.0,55.0,3.0,61.0,4.0,102.0,-975.0,292.0
30.0,-257.0,50.0,-1.0,61.0,5.0,103.0,-982.0,304.0
29.0,-257.0,52.0,-5.0,60.0,2.0,92.0,-985.0,300.0
27.0,-256.0,56.0,-9.0,61.0,4.0,94.0,-984.0,300.0
25.0,-260.0,53.0,-14.0,60.0,2.0,93.0,-983.0,298.0
28.0,-258.0,49.0,-18.0,61.0,3.0,99.0,-985.0,301.0
30.0,-258.0,48.0,-22.0,59.0,0.0,93.0,-986.0,293.0
31.0,-257.0,53.0,-25.0,59.0,1.0,104.0,-983.0,298.0
30.0,-255.0,54.0,-29.0,58.0,0.0,103.0,-989.0,291.0
28.0,-258.0,49.0,-32.0,57.0,0.0,97.0,-983.0,292.0
28.0,-255.0,49.0,-36.0,59.0,-3.0,98.0,-986.0,292.0
30.0,-256.0,48.0,-39.0,59.0,0.0,94.0,-984.0,289.0
29.0,-256.0,44.0,-42.0,59.0,-3.0,93.0,-985.0,289.0
29.0,-258.0,48.0,-44.0,58.0,-1.0,93.0,-977.0,290.0
27.0,-260.0,45.0,-45.0,56.0,-3.0,98.0,-986.0,283.0
29.0,-259.0,48.0,-47.0,54.0,0.0,96.0,-993.0,280.0
32.0,-261.0,47.0,-48.0,54.0,-1.0,98.0,-992.0,280.0
28.0,-261.0,49.0,-45.0,55.0,0.0,99.0,-986.0,283.0
29.0,-259.0,50.0,-43.0,55.0,-2.0,99.0,-994.0,281.0
27.0,-257.0,47.0,-40.0,54.0,0.0,93.0,-992.0,279.0
29.0,-261.0,48.0,-41.0,53.0,-1.0,103.0,-988.0,280.0
28.0,-259.0,49.0,-37.0,54.0,0.0,105.0,-989.0,285.0
30.0,-260.0,47.0,-38.0,53.0,-2.0,97.0,-987.0,291.0
28.0,-260.0,50.0,-38.0,54.0,-1.0,97.0,-993.0,288.0
30.0,-261.0,46.0,-39.0,55.0,-5.0,103.0,-991.0,286.0
30.0,-259.0,48.0,-40.0,53.0,-3.0,95.0,-994.0,285.0
30.0,-262.0,49.0,-43.0,52.0,-4.0,96.0,-990.0,283.0
29.0,-258.0,46.0,-42.0,55.0,-2.0,99.0,-993.0,276.0
27.0,-262.0,48.0,-41.0,53.0,-3.0,99.0,-988.0,286.0
28.0,-258.0,47.0,-41.0,53.0,-1.0,104.0,-992.0,288.0
31.0,-263.0,49.0,-39.0,52.0,-3.0,103.0,-994.0,282.0
30.0,-261.0,46.0,-38.0,53.0,-1.0,104.0,-989.0,276.0
31.0,-259.0,46.0,-34.0,49.0,-3.0,94.0,-993.0,283.0
28.0,-258.0,46.0,-31.0,50.0,1.0,102.0,-989.0,285.0
30.0,-259.0,47.0,-29.0,49.0,-1.0,101.0,-995.0,282.0
31.0,-259.0,49.0,-28.0,52.0,2.0,108.0,-992.0,284.0
28.0,-258.0,47.0,-26.0,52.0,0.0,100.0,-997.0,279.0
39.0,-267.0,42.0,-26.0,54.0,1.0,103.0,-991.0,278.0
28.0,-260.0,49.0,-27.0,55.0,-3.0,99.0,-993.0,281.0
31.0,-259.0,50.0,-28.0,56.0,-1.0,103.0,-985.0,281.0
28.0,-258.0,46.0,-29.0,55.0,-5.0,95.0,-986.0,280.0
28.0,-259.0,49.0,-34.0,54.0,-5.0,97.0,-988.0,288.0
28.0,-259.0,51.0,-36.0,54.0,-9.0,93.0,-984.0,290.0
31.0,-259.0,47.0,-37.0,53.0,-8.0,102.0,-989.0,285.0
31.0,-260.0,47.0,-38.0,51.0,-10.0,98.0,-991.0,279.0
31.0,-261.0,44.0,-36.0,49.0,-7.0,99.0,-999.0,273.0
31.0,-266.0,46.0,-31.0,51.0,-9.0,103.0,-1003.0,271.0
30.0,-263.0,45.0,-27.0,50.0,-6.0,102.0,-1004.0,266.0
31.0,-261.0,45.0,-23.0,49.0,-6.0,103.0,-1002.0,271.0
27.0,-262.0,46.0,-17.0,51.0,-3.0,98.0,-997.0,275.0
30.0,-261.0,43.0,-12.0,52.0,-3.0,104.0,-995.0,277.0
27.0,-260.0,49.0,-5.0,54.0,-2.0,101.0,-994.0,276.0
31.0,-259.0,47.0,-3.0,54.0,-4.0,102.0,-993.0,283.0
31.0,-258.0,46.0,0.0,55.0,-2.0,100.0,-985.0,281.0
28.0,-258.0,48.0,-1.0,56.0,-4.0,100.0,-988.0,282.0
30.0,-262.0,47.0,-5.0,57.0,-3.0,106.0,-983.0,281.0
30.0,-258.0,46.0,-9.0,57.0,-5.0,106.0,-989.0,284.0
30.0,-259.0,47.0,-14.0,60.0,-2.0,105.0,-989.0,287.0
28.0,-258.0,48.0,-18.0,61.0,-5.0,100.0,-989.0,288.0
30.0,-256.0,48.0,-20.0,61.0,-4.0,107.0,-985.0,288.0
30.0,-260.0,51.0,-22.0,62.0,-6.0,106.0,-982.0,289.0
29.0,-260.0,49.0,-26.0,63.0,-3.0,101.0,-986.0,289.0
27.0,-255.0,49.0,-26.0,63.0,-5.0,106.0,-988.0,288.0
28.0,-256.0,46.0,-25.0,59.0,-2.0,103.0,-987.0,286.0
28.0,-255.0,49.0,-28.0,57.0,-3.0,106.0,-987.0,283.0
31.0,-260.0,44.0,-31.0,53.0,0.0,104.0,-987.0,289.0
29.0,-260.0,49.0,-33.0,54.0,-1.0,103.0,-989.0,284.0
31.0,-257.0,50.0,-35.0,51.0,2.0,105.0,-987.0,283.0
28.0,-259.0,46.0,-35.0,50.0,0.0,97.0,-988.0,279.0
30.0,-260.0,49.0,-36.0,51.0,1.0,105.0,-988.0,280.0
30.0,-257.0,47.0,-36.0,52.0,-1.0,98.0,-991.0,284.0
27.0,-258.0,43.0,-36.0,54.0,1.0,100.0,-985.0,281.0
29.0,-259.0,47.0,-36.0,53.0,0.0,92.0,-991.0,280.0
29.0,-258.0,46.0,-38.0,55.0,3.0,96.0,-992.0,281.0
28.0,-262.0,48.0,-36.0,55.0,-1.0,102.0,-992.0,278.0
28.0,-258.0,47.0,-35.0,55.0,2.0,99.0,-991.0,277.0
28.0,-260.0,50.0,-34.0,56.0,-1.0,102.0,-994.0,278.0
26.0,-260.0,43.0,-32.0,54.0,1.0,96.0,-989.0,274.0
32.0,-258.0,42.0,-33.0,53.0,-2.0,98.0,-991.0,280.0
34.0,-262.0,45.0,-33.0,53.0,0.0,105.0,-990.0,279.0
31.0,-261.0,48.0,-32.0,54.0,-4.0,98.0,-990.0,278.0
29.0,-264.0,43.0,-31.0,54.0,0.0,99.0,-993.0,277.0
31.0,-261.0,45.0,-28.0,56.0,-3.0,106.0,-987.0,275.0
31.0,-261.0,44.0,-25.0,57.0,0.0,105.0,-990.0,277.0
28.0,-258.0,46.0,-24.0,58.0,-2.0,103.0,-987.0,279.0
30.0,-258.0,47.0,-25.0,59.0,1.0,105.0,-986.0,279.0
29.0,-260.0,47.0,-28.0,59.0,-1.0,97.0,-985.0,278.0
30.0,-260.0,49.0,-31.0,57.0,2.0,106.0,-989.0,281.0
31.0,-258.0,47.0,-32.0,58.0,-1.0,102.0,-991.0,281.0
31.0,-259.0,48.0,-31.0,58.0,0.0,101.0,-989.0,281.0
28.0,-259.0,47.0,-31.0,58.0,-2.0,105.0,-991.0,280.0
30.0,-260.0,48.0,-32.0,58.0,1.0,103.0,-997.0,279.0
28.0,-259.0,46.0,-33.0,57.0,-2.0,106.0,-994.0,275.0
30.0,-261.0,44.0,-33.0,56.0,-1.0,102.0,-996.0,281.0
30.0,-260.0,47.0,-33.0,57.0,-4.0,103.0,-991.0,281.0
30.0,-261.0,46.0,-32.0,56.0,-1.0,95.0,-996.0,283.0
32.0,-262.0,45.0,-31.0,57.0,-3.0,103.0,-994.0,281.0
32.0,-262.0,46.0,-32.0,56.0,-2.0,99.0,-994.0,275.0
31.0,-261.0,48.0,-31.0,54.0,-5.0,102.0,-991.0,276.0
32.0,-262.0,45.0,-29.0,53.0,-4.0,93.0,-998.0,279.0
29.0,-260.0,47.0,-27.0,55.0,-5.0,97.0,-993.0,275.0
30.0,-260.0,43.0,-29.0,52.0,-2.0,94.0,-995.0,275.0
29.0,-261.0,43.0,-29.0,51.0,-4.0,97.0,-994.0,275.0
29.0,-261.0,47.0,-30.0,51.0,-1.0,95.0,-994.0,273.0
30.0,-261.0,47.0,-30.0,52.0,-2.0,102.0,-994.0,274.0
27.0,-260.0,42.0,-26.0,53.0,-1.0,98.0,-988.0,275.0
25.0,-261.0,45.0,-25.0,54.0,-6.0,95.0,-989.0,273.0
27.0,-257.0,45.0,-23.0,54.0,-3.0,98.0,-985.0,274.0
29.0,-260.0,43.0,-22.0,54.0,-5.0,97.0,-987.0,275.0
29.0,-260.0,43.0,-22.0,54.0,-3.0,104.0,-993.0,272.0
28.0,-258.0,43.0,-23.0,54.0,-7.0,102.0,-992.0,275.0
28.0,-260.0,46.0,-22.0,54.0,-5.0,103.0,-993.0,270.0
29.0,-256.0,44.0,-22.0,56.0,-7.0,95.0,-992.0,274.0
32.0,-263.0,46.0,-22.0,56.0,-4.0,105.0,-998.0,278.0
31.0,-260.0,49.0,-23.0,56.0,-6.0,105.0,-993.0,278.0
31.0,-262.0,47.0,-23.0,57.0,-3.0,104.0,-998.0,277.0
29.0,-261.0,49.0,-23.0,58.0,-6.0,105.0,-997.0,278.0
27.0,-255.0,47.0,-24.0,58.0,-4.0,99.0,-999.0,278.0
30.0,-261.0,44.0,-24.0,56.0,-6.0,105.0,-985.0,277.0
28.0,-259.0,42.0,-24.0,56.0,-4.0,102.0,-991.0,276.0
31.0,-262.0,49.0,-24.0,57.0,-7.0,104.0,-993.0,276.0
29.0,-262.0,47.0,-23.0,58.0,-4.0,105.0,-997.0,275.0
28.0,-260.0,48.0,-25.0,57.0,-5.0,99.0,-993.0,275.0
31.0,-259.0,40.0,-27.0,58.0,-2.0,106.0,-993.0,271.0
28.0,-262.0,44.0,-27.0,57.0,-4.0,106.0,-999.0,267.0
30.0,-258.0,41.0,-26.0,58.0,-1.0,100.0,-996.0,273.0
32.0,-262.0,46.0,-24.0,59.0,-4.0,106.0,-997.0,275.0
30.0,-259.0,46.0,-23.0,59.0,-1.0,106.0,-992.0,272.0
33.0,-261.0,46.0,-21.0,57.0,-4.0,103.0,-996.0,273.0
30.0,-261.0,45.0,-20.0,57.0,-3.0,107.0,-998.0,268.0
31.0,-259.0,44.0,-19.0,60.0,-5.0,107.0,-996.0,273.0
33.0,-262.0,42.0,-17.0,58.0,-3.0,106.0,-995.0,274.0
32.0,-259.0,46.0,-15.0,60.0,-5.0,100.0,-997.0,275.0
32.0,-263.0,42.0,-14.0,61.0,-3.0,103.0,-994.0,275.0
32.0,-261.0,47.0,-12.0,62.0,-4.0,104.0,-997.0,274.0
26.0,-260.0,43.0,-12.0,62.0,-2.0,106.0,-997.0,276.0
29.0,-259.0,45.0,-11.0,64.0,-4.0,106.0,-992.0,273.0
31.0,-262.0,46.0,-11.0,63.0,-2.0,100.0,-992.0,275.0
29.0,-260.0,47.0,-11.0,62.0,-3.0,102.0,-997.0,272.0
32.0,-263.0,47.0,-10.0,62.0,-1.0,99.0,-991.0,280.0
31.0,-262.0,48.0,-9.0,62.0,-2.0,106.0,-989.0,280.0
28.0,-260.0,50.0,-8.0,62.0,-1.0,106.0,-992.0,281.0
33.0,-262.0,45.0,-12.0,63.0,-3.0,106.0,-987.0,275.0
32.0,-260.0,46.0,-14.0,62.0,-2.0,100.0,-990.0,281.0
29.0,-262.0,49.0,-14.0,63.0,-2.0,101.0,-988.0,275.0
32.0,-259.0,46.0,-15.0,63.0,-1.0,101.0,-996.0,278.0
32.0,-262.0,46.0,-15.0,62.0,-3.0,106.0,-994.0,274.0
29.0,-259.0,42.0,-17.0,61.0,-1.0,104.0,-990.0,279.0
30.0,-260.0,46.0,-18.0,62.0,-4.0,103.0,-991.0,285.0
30.0,-255.0,45.0,-20.0,63.0,-3.0,99.0,-989.0,283.0
28.0,-258.0,50.0,-20.0,62.0,-5.0,99.0,-985.0,282.0
30.0,-257.0,49.0,-19.0,62.0,-1.0,106.0,-986.0,282.0
30.0,-259.0,45.0,-23.0,61.0,-3.0,105.0,-984.0,279.0
30.0,-261.0,41.0,-23.0,63.0,-3.0,103.0,-983.0,279.0
29.0,-258.0,45.0,-27.0,63.0,-3.0,101.0,-987.0,278.0
31.0,-259.0,49.0,-28.0,63.0,-4.0,105.0,-989.0,279.0
29.0,-261.0,49.0,-31.0,64.0,-5.0,102.0,-990.0,277.0
30.0,-258.0,49.0,-32.0,63.0,-3.0,103.0,-991.0,276.0
30.0,-260.0,44.0,-35.0,62.0,-4.0,105.0,-991.0,280.0
30.0,-263.0,46.0,-36.0,62.0,-3.0,104.0,-987.0,273.0
30.0,-260.0,45.0,-36.0,63.0,-5.0,103.0,-993.0,274.0
31.0,-260.0,42.0,-38.0,63.0,-2.0,104.0,-992.0,277.0
27.0,-258.0,45.0,-38.0,62.0,-5.0,100.0,-994.0,276.0
28.0,-257.0,46.0,-38.0,62.0,-4.0,103.0,-1000.0,275.0
28.0,-263.0,43.0,-35.0,61.0,-4.0,100.0,-992.0,275.0
30.0,-263.0,47.0,-36.0,57.0,-4.0,103.0,-995.0,272.0
31.0,-262.0,45.0,-35.0,56.0,-5.0,100.0,-995.0,273.0
33.0,-260.0,44.0,-36.0,56.0,-4.0,94.0,-993.0,275.0
33.0,-261.0,42.0,-33.0,57.0,-6.0,98.0,-997.0,274.0
29.0,-258.0,42.0,-33.0,58.0,-6.0,98.0,-996.0,268.0
31.0,-262.0,42.0,-33.0,59.0,-9.0,95.0,-1001.0,267.0
29.0,-262.0,46.0,-33.0,60.0,-6.0,90.0,-1004.0,267.0
29.0,-262.0,41.0,-33.0,59.0,-8.0,96.0,-1005.0,268.0
27.0,-262.0,45.0,-34.0,61.0,-6.0,94.0,-998.0,269.0
27.0,-260.0,44.0,-32.0,62.0,-8.0,95.0,-999.0,271.0
31.0,-263.0,42.0,-33.0,61.0,-7.0,98.0,-998.0,260.0
30.0,-262.0,39.0,-31.0,59.0,-8.0,93.0,-998.0,269.0
30.0,-263.0,46.0,-31.0,57.0,-10.0,93.0,-993.0,269.0
32.0,-264.0,42.0,-30.0,55.0,-10.0,102.0,-1004.0,267.0
32.0,-262.0,44.0,-27.0,55.0,-9.0,102.0,-995.0,270.0
29.0,-262.0,46.0,-23.0,56.0,-9.0,105.0,-995.0,271.0
28.0,-260.0,47.0,-21.0,57.0,-7.0,104.0,-997.0,270.0
28.0,-261.0,45.0,-21.0,58.0,-9.0,93.0,-992.0,273.0
30.0,-261.0,44.0,-22.0,58.0,-8.0,104.0,-996.0,268.0
32.0,-263.0,44.0,-23.0,59.0,-10.0,101.0,-995.0,268.0
31.0,-263.0,42.0,-24.0,59.0,-10.0,101.0,-998.0,267.0
29.0,-263.0,42.0,-26.0,59.0,-11.0,101.0,-997.0,273.0
32.0,-265.0,44.0,-26.0,57.0,-12.0,99.0,-997.0,272.0
30.0,-259.0,44.0,-25.0,57.0,-14.0,104.0,-992.0,271.0
31.0,-263.0,43.0,-26.0,56.0,-13.0,103.0,-1001.0,271.0
31.0,-261.0,50.0,-26.0,56.0,-14.0,103.0,-999.0,268.0
31.0,-264.0,45.0,-24.0,57.0,-13.0,104.0,-1002.0,266.0
28.0,-263.0,43.0,-21.0,57.0,-12.0,101.0,-1003.0,262.0
32.0,-264.0,46.0,-20.0,56.0,-9.0,104.0,-1003.0,267.0
29.0,-261.0,42.0,-18.0,55.0,-10.0,101.0,-1000.0,259.0
29.0,-263.0,45.0,-15.0,53.0,-9.0,93.0,-1002.0,258.0
27.0,-262.0,44.0,-14.0,50.0,-9.0,95.0,-995.0,259.0
29.0,-262.0,44.0,-10.0,47.0,-9.0,95.0,-997.0,264.0
29.0,-261.0,40.0,-5.0,46.0,-10.0,103.0,-999.0,268.0
30.0,-259.0,42.0,1.0,49.0,-10.0,104.0,-1000.0,271.0
34.0,-263.0,40.0,6.0,53.0,-12.0,101.0,-998.0,267.0
29.0,-259.0,39.0,9.0,56.0,-11.0,102.0,-991.0,272.0
33.0,-258.0,45.0,8.0,61.0,-14.0,105.0,-991.0,267.0
31.0,-259.0,46.0,4.0,63.0,-13.0,105.0,-999.0,267.0
28.0,-262.0,42.0,2.0,66.0,-15.0,107.0,-990.0,268.0
28.0,-258.0,43.0,-1.0,66.0,-16.0,103.0,-995.0,273.0
30.0,-258.0,45.0,0.0,65.0,-17.0,108.0,-996.0,266.0
30.0,-261.0,44.0,0.0,64.0,-16.0,108.0,-994.0,269.0
32.0,-261.0,45.0,-2.0,62.0,-16.0,112.0,-1000.0,260.0
33.0,-260.0,47.0,-2.0,60.0,-14.0,109.0,-991.0,263.0
32.0,-259.0,44.0,-3.0,59.0,-13.0,107.0,-984.0,265.0
31.0,-258.0,46.0,-8.0,55.0,-11.0,105.0,-984.0,270.0
31.0,-253.0,43.0,-19.0,49.0,-8.0,107.0,-984.0,264.0
32.0,-258.0,43.0,-27.0,46.0,-4.0,108.0,-985.0,263.0
31.0,-257.0,41.0,-32.0,45.0,-4.0,101.0,-984.0,262.0
32.0,-261.0,45.0,-36.0,46.0,-3.0,107.0,-989.0,267.0
31.0,-262.0,42.0,-35.0,50.0,-5.0,104.0,-997.0,257.0
31.0,-259.0,41.0,-35.0,55.0,-7.0,105.0,-993.0,262.0
32.0,-259.0,43.0,-40.0,59.0,-10.0,104.0,-988.0,270.0
29.0,-255.0,44.0,-54.0,64.0,-12.0,104.0,-983.0,270.0
29.0,-252.0,46.0,-75.0,66.0,-15.0,98.0,-973.0,275.0
30.0,-254.0,48.0,-93.0,67.0,-15.0,98.0,-969.0,276.0
30.0,-251.0,47.0,-113.0,63.0,-16.0,99.0,-964.0,283.0
28.0,-248.0,48.0,-138.0,57.0,-13.0,92.0,-957.0,286.0
28.0,-246.0,44.0,-173.0,49.0,-14.0,95.0,-947.0,275.0
30.0,-246.0,42.0,-235.0,44.0,-17.0,93.0,-933.0,266.0
27.0,-241.0,41.0,-303.0,45.0,-23.0,96.0,-934.0,253.0
26.0,-238.0,38.0,-380.0,47.0,-30.0,94.0,-930.0,249.0
29.0,-240.0,38.0,-456.0,48.0,-33.0,97.0,-935.0,245.0
26.0,-251.0,35.0,-518.0,48.0,-33.0,93.0,-952.0,241.0
29.0,-258.0,39.0,-559.0,45.0,-32.0,97.0,-977.0,243.0
33.0,-264.0,36.0,-569.0,42.0,-28.0,101.0,-1007.0,240.0
30.0,-274.0,37.0,-549.0,38.0,-22.0,104.0,-1031.0,240.0
32.0,-275.0,38.0,-505.0,34.0,-15.0,110.0,-1050.0,235.0
30.0,-276.0,34.0,-447.0,31.0,-8.0,109.0,-1061.0,231.0
31.0,-275.0,35.0,-372.0,29.0,-8.0,107.0,-1054.0,240.0
34.0,-270.0,35.0,-322.0,30.0,-8.0,109.0,-1023.0,237.0
30.0,-260.0,37.0,-291.0,35.0,-12.0,106.0,-1008.0,240.0
33.0,-259.0,37.0,-285.0,43.0,-14.0,104.0,-986.0,238.0
29.0,-255.0,34.0,-298.0,47.0,-18.0,99.0,-975.0,235.0
28.0,-253.0,32.0,-325.0,49.0,-23.0,93.0,-969.0,232.0
29.0,-252.0,32.0,-357.0,47.0,-24.0,100.0,-972.0,225.0
29.0,-256.0,28.0,-382.0,50.0,-26.0,97.0,-987.0,219.0
27.0,-262.0,27.0,-395.0,57.0,-28.0,100.0,-997.0,217.0
30.0,-263.0,28.0,-393.0,68.0,-26.0,104.0,-1007.0,208.0
31.0,-269.0,24.0,-375.0,76.0,-24.0,106.0,-1015.0,210.0
31.0,-268.0,27.0,-348.0,78.0,-22.0,106.0,-1018.0,211.0
33.0,-270.0,30.0,-309.0,77.0,-22.0,106.0,-1020.0,210.0
33.0,-270.0,26.0,-271.0,77.0,-21.0,107.0,-1027.0,209.0
31.0,-266.0,29.0,-235.0,68.0,-22.0,108.0,-1019.0,211.0
31.0,-265.0,30.0,-202.0,58.0,-22.0,108.0,-1020.0,216.0
29.0,-265.0,29.0,-173.0,45.0,-22.0,106.0,-1012.0,219.0
33.0,-265.0,32.0,-148.0,30.0,-19.0,109.0,-1014.0,221.0
29.0,-266.0,33.0,-128.0,16.0,-20.0,107.0,-1014.0,227.0
34.0,-265.0,34.0,-113.0,6.0,-19.0,95.0,-1008.0,234.0
28.0,-262.0,37.0,-94.0,-6.0,-20.0,97.0,-1006.0,238.0
29.0,-266.0,33.0,-81.0,-11.0,-20.0,104.0,-1009.0,236.0
29.0,-265.0,35.0,-73.0,-13.0,-24.0,97.0,-1010.0,240.0
30.0,-266.0,38.0,-65.0,-12.0,-26.0,98.0,-1007.0,241.0
28.0,-261.0,33.0,-54.0,-9.0,-28.0,105.0,-1009.0,241.0
31.0,-265.0,30.0,-45.0,-9.0,-29.0,102.0,-1012.0,237.0
28.0,-264.0,38.0,-34.0,-10.0,-28.0,105.0,-1004.0,235.0
29.0,-262.0,36.0,-25.0,-13.0,-24.0,105.0,-1008.0,222.0
33.0,-262.0,31.0,-20.0,-21.0,-23.0,107.0,-1008.0,223.0
30.0,-261.0,35.0,-18.0,-22.0,-19.0,107.0,-994.0,222.0
26.0,-254.0,31.0,-19.0,-25.0,-20.0,103.0,-987.0,233.0
28.0,-258.0,36.0,-23.0,-31.0,-18.0,100.0,-979.0,230.0
26.0,-253.0,35.0,-30.0,-37.0,-17.0,103.0,-972.0,229.0
32.0,-257.0,33.0,-35.0,-42.0,-18.0,105.0,-975.0,228.0
31.0,-257.0,34.0,-41.0,-46.0,-17.0,107.0,-975.0,228.0
31.0,-256.0,35.0,-46.0,-45.0,-15.0,107.0,-982.0,227.0
28.0,-256.0,32.0,-51.0,-47.0,-16.0,107.0,-978.0,217.0
30.0,-257.0,31.0,-61.0,-47.0,-16.0,114.0,-977.0,222.0
31.0,-255.0,30.0,-75.0,-49.0,-18.0,108.0,-980.0,220.0
28.0,-253.0,32.0,-92.0,-49.0,-21.0,107.0,-971.0,229.0
32.0,-248.0,31.0,-111.0,-54.0,-23.0,105.0,-968.0,226.0
31.0,-251.0,35.0,-134.0,-55.0,-21.0,102.0,-961.0,235.0
30.0,-248.0,35.0,-158.0,-59.0,-26.0,104.0,-959.0,244.0
30.0,-247.0,43.0,-183.0,-64.0,-26.0,101.0,-957.0,251.0
32.0,-248.0,43.0,-204.0,-70.0,-28.0,106.0,-963.0,244.0
31.0,-251.0,41.0,-228.0,-77.0,-29.0,107.0,-966.0,246.0
33.0,-253.0,38.0,-252.0,-79.0,-30.0,114.0,-968.0,253.0
32.0,-252.0,38.0,-276.0,-79.0,-32.0,114.0,-971.0,252.0
32.0,-252.0,40.0,-302.0,-76.0,-34.0,122.0,-968.0,260.0
32.0,-252.0,40.0,-330.0,-73.0,-34.0,117.0,-968.0,260.0
35.0,-249.0,42.0,-356.0,-75.0,-35.0,112.0,-966.0,261.0
32.0,-252.0,45.0,-393.0,-74.0,-33.0,116.0,-964.0,266.0
35.0,-246.0,46.0,-430.0,-74.0,-34.0,112.0,-957.0,273.0
30.0,-245.0,49.0,-473.0,-77.0,-29.0,109.0,-936.0,278.0
28.0,-240.0,45.0,-516.0,-75.0,-28.0,103.0,-926.0,280.0
31.0,-242.0,47.0,-559.0,-77.0,-19.0,99.0,-924.0,277.0
28.0,-241.0,49.0,-605.0,-81.0,-12.0,94.0,-932.0,277.0
29.0,-242.0,49.0,-656.0,-86.0,-1.0,98.0,-935.0,289.0
27.0,-241.0,52.0,-710.0,-94.0,9.0,93.0,-934.0,291.0
30.0,-245.0,52.0,-763.0,-99.0,19.0,98.0,-939.0,290.0
27.0,-245.0,48.0,-816.0,-109.0,28.0,106.0,-947.0,287.0
29.0,-244.0,45.0,-880.0,-114.0,39.0,101.0,-956.0,277.0
28.0,-249.0,44.0,-933.0,-120.0,41.0,106.0,-966.0,261.0
28.0,-252.0,41.0,-985.0,-123.0,46.0,106.0,-969.0,250.0
29.0,-255.0,32.0,-1035.0,-124.0,49.0,108.0,-981.0,228.0
31.0,-257.0,29.0,-1085.0,-122.0,56.0,107.0,-986.0,221.0
32.0,-260.0,26.0,-1135.0,-121.0,57.0,105.0,-988.0,205.0
35.0,-259.0,22.0,-1186.0,-119.0,64.0,112.0,-1004.0,195.0
31.0,-262.0,25.0,-1236.0,-120.0,66.0,116.0,-1006.0,188.0
33.0,-263.0,22.0,-1279.0,-118.0,67.0,115.0,-1007.0,174.0
33.0,-263.0,16.0,-1322.0,-118.0,67.0,114.0,-1020.0,164.0
32.0,-266.0,15.0,-1369.0,-116.0,71.0,118.0,-1029.0,161.0
32.0,-271.0,9.0,-1412.0,-120.0,73.0,105.0,-1032.0,150.0
36.0,-270.0,5.0,-1453.0,-125.0,79.0,112.0,-1044.0,136.0
36.0,-271.0,0.0,-1490.0,-127.0,84.0,120.0,-1059.0,109.0
38.0,-277.0,-1.0,-1530.0,-130.0,89.0,122.0,-1070.0,101.0
40.0,-280.0,-3.0,-1566.0,-130.0,91.0,126.0,-1092.0,89.0
40.0,-284.0,-4.0,-1600.0,-129.0,98.0,131.0,-1098.0,83.0
37.0,-290.0,-6.0,-1626.0,-126.0,98.0,130.0,-1128.0,68.0
42.0,-295.0,-10.0,-1642.0,-122.0,106.0,138.0,-1146.0,61.0
39.0,-298.0,-16.0,-1650.0,-116.0,109.0,136.0,-1162.0,52.0
42.0,-304.0,-19.0,-1659.0,-107.0,117.0,137.0,-1177.0,44.0
43.0,-307.0,-19.0,-1664.0,-94.0,121.0,143.0,-1180.0,29.0
40.0,-304.0,-20.0,-1661.0,-81.0,131.0,138.0,-1175.0,19.0
41.0,-305.0,-27.0,-1658.0,-70.0,141.0,135.0,-1185.0,5.0
42.0,-312.0,-30.0,-1649.0,-69.0,157.0,145.0,-1192.0,-12.0
43.0,-318.0,-30.0,-1637.0,-72.0,168.0,151.0,-1219.0,-19.0
48.0,-319.0,-35.0,-1616.0,-72.0,183.0,160.0,-1222.0,-28.0
48.0,-319.0,-36.0,-1589.0,-66.0,195.0,159.0,-1229.0,-32.0
50.0,-323.0,-42.0,-1563.0,-56.0,210.0,163.0,-1247.0,-41.0
48.0,-326.0,-37.0,-1536.0,-35.0,220.0,148.0,-1254.0,-41.0
47.0,-326.0,-44.0,-1497.0,-14.0,224.0,159.0,-1257.0,-55.0
48.0,-327.0,-49.0,-1459.0,-10.0,219.0,168.0,-1256.0,-92.0
46.0,-326.0,-61.0,-1416.0,-13.0,213.0,167.0,-1246.0,-141.0
48.0,-318.0,-68.0,-1376.0,-18.0,203.0,161.0,-1229.0,-177.0
44.0,-312.0,-75.0,-1344.0,-22.0,197.0,151.0,-1214.0,-198.0
45.0,-312.0,-75.0,-1320.0,-26.0,185.0,149.0,-1204.0,-202.0
39.0,-312.0,-79.0,-1297.0,-24.0,180.0,140.0,-1197.0,-211.0
37.0,-310.0,-78.0,-1275.0,-17.0,175.0,124.0,-1197.0,-206.0
36.0,-314.0,-81.0,-1252.0,-10.0,174.0,115.0,-1199.0,-212.0
32.0,-313.0,-82.0,-1223.0,-5.0,174.0,98.0,-1201.0,-218.0
31.0,-307.0,-81.0,-1182.0,0.0,177.0,93.0,-1191.0,-223.0
24.0,-304.0,-84.0,-1152.0,0.0,175.0,79.0,-1178.0,-230.0
26.0,-298.0,-90.0,-1130.0,-1.0,176.0,78.0,-1167.0,-249.0
24.0,-296.0,-93.0,-1115.0,1.0,173.0,80.0,-1158.0,-264.0
23.0,-294.0,-98.0,-1106.0,4.0,172.0,83.0,-1149.0,-281.0
22.0,-291.0,-102.0,-1097.0,10.0,169.0,79.0,-1146.0,-287.0
24.0,-291.0,-98.0,-1093.0,20.0,172.0,80.0,-1143.0,-286.0
22.0,-294.0,-98.0,-1082.0,32.0,168.0,74.0,-1131.0,-279.0
24.0,-290.0,-95.0,-1065.0,43.0,167.0,69.0,-1133.0,-281.0
19.0,-289.0,-99.0,-1045.0,51.0,162.0,62.0,-1130.0,-285.0
23.0,-290.0,-98.0,-1017.0,54.0,160.0,60.0,-1127.0,-282.0
19.0,-287.0,-99.0,-991.0,54.0,152.0,59.0,-1115.0,-290.0
18.0,-285.0,-98.0,-964.0,54.0,149.0,58.0,-1109.0,-287.0
17.0,-281.0,-95.0,-936.0,56.0,139.0,51.0,-1106.0,-286.0
18.0,-282.0,-96.0,-912.0,58.0,136.0,48.0,-1099.0,-284.0
16.0,-279.0,-95.0,-883.0,61.0,132.0,51.0,-1090.0,-284.0
15.0,-282.0,-96.0,-854.0,61.0,134.0,49.0,-1088.0,-288.0
19.0,-280.0,-100.0,-828.0,61.0,130.0,51.0,-1089.0,-297.0
20.0,-276.0,-104.0,-802.0,64.0,133.0,60.0,-1076.0,-306.0
21.0,-276.0,-99.0,-774.0,69.0,130.0,57.0,-1074.0,-304.0
20.0,-277.0,-105.0,-744.0,75.0,132.0,57.0,-1061.0,-308.0
19.0,-271.0,-106.0,-713.0,82.0,128.0,52.0,-1063.0,-302.0
16.0,-274.0,-106.0,-686.0,86.0,130.0,53.0,-1057.0,-315.0
16.0,-270.0,-107.0,-660.0,89.0,125.0,51.0,-1035.0,-326.0
18.0,-269.0,-109.0,-640.0,90.0,124.0,54.0,-1045.0,-331.0
16.0,-269.0,-107.0,-621.0,88.0,115.0,57.0,-1045.0,-329.0
16.0,-269.0,-105.0,-605.0,87.0,111.0,53.0,-1046.0,-335.0
17.0,-267.0,-112.0,-589.0,87.0,104.0,54.0,-1035.0,-342.0
16.0,-270.0,-111.0,-570.0,93.0,101.0,52.0,-1034.0,-359.0
18.0,-267.0,-118.0,-553.0,101.0,92.0,46.0,-1024.0,-357.0
14.0,-266.0,-115.0,-534.0,109.0,90.0,40.0,-1020.0,-356.0
17.0,-265.0,-113.0,-506.0,116.0,86.0,42.0,-1015.0,-351.0
14.0,-265.0,-115.0,-480.0,119.0,88.0,37.0,-1007.0,-347.0
16.0,-260.0,-112.0,-454.0,121.0,88.0,40.0,-1001.0,-357.0
15.0,-259.0,-119.0,-430.0,122.0,91.0,36.0,-995.0,-357.0
12.0,-256.0,-116.0,-409.0,125.0,92.0,34.0,-995.0,-358.0
10.0,-259.0,-112.0,-391.0,128.0,97.0,30.0,-996.0,-355.0
12.0,-256.0,-116.0,-373.0,127.0,95.0,28.0,-989.0,-361.0
12.0,-256.0,-117.0,-361.0,120.0,101.0,29.0,-986.0,-364.0
8.0,-256.0,-120.0,-349.0,114.0,100.0,24.0,-986.0,-370.0
9.0,-256.0,-117.0,-342.0,107.0,103.0,26.0,-983.0,-380.0
11.0,-256.0,-122.0,-340.0,98.0,102.0,30.0,-980.0,-396.0
13.0,-253.0,-126.0,-340.0,91.0,103.0,31.0,-982.0,-400.0
15.0,-253.0,-124.0,-342.0,88.0,101.0,34.0,-978.0,-403.0
13.0,-254.0,-124.0,-342.0,86.0,100.0,37.0,-979.0,-408.0
16.0,-253.0,-126.0,-344.0,89.0,90.0,41.0,-979.0,-402.0
16.0,-254.0,-127.0,-343.0,97.0,86.0,47.0,-986.0,-409.0
14.0,-256.0,-128.0,-345.0,105.0,77.0,52.0,-985.0,-410.0
16.0,-257.0,-129.0,-343.0,112.0,71.0,53.0,-983.0,-410.0
16.0,-252.0,-127.0,-343.0,116.0,64.0,46.0,-975.0,-410.0
16.0,-250.0,-127.0,-339.0,123.0,57.0,46.0,-977.0,-413.0
14.0,-251.0,-129.0,-337.0,124.0,49.0,46.0,-972.0,-414.0
16.0,-250.0,-128.0,-338.0,123.0,45.0,50.0,-971.0,-424.0
20.0,-253.0,-128.0,-342.0,125.0,38.0,50.0,-973.0,-420.0
15.0,-251.0,-131.0,-343.0,127.0,37.0,51.0,-972.0,-431.0
16.0,-253.0,-132.0,-347.0,130.0,32.0,39.0,-980.0,-427.0
14.0,-256.0,-133.0,-350.0,134.0,34.0,38.0,-981.0,-429.0
10.0,-266.0,-114.0,-343.0,132.0,29.0,46.0,-988.0,-433.0
15.0,-257.0,-128.0,-336.0,134.0,31.0,32.0,-993.0,-432.0
14.0,-254.0,-135.0,-323.0,135.0,30.0,32.0,-988.0,-433.0
12.0,-258.0,-132.0,-311.0,132.0,29.0,33.0,-987.0,-433.0
15.0,-256.0,-131.0,-295.0,132.0,27.0,43.0,-978.0,-434.0
17.0,-254.0,-131.0,-284.0,132.0,28.0,39.0,-978.0,-432.0
13.0,-250.0,-129.0,-278.0,136.0,27.0,43.0,-972.0,-422.0
12.0,-247.0,-130.0,-275.0,135.0,28.0,48.0,-963.0,-420.0
18.0,-250.0,-127.0,-279.0,132.0,28.0,61.0,-964.0,-417.0
21.0,-249.0,-127.0,-286.0,126.0,28.0,55.0,-962.0,-411.0
18.0,-251.0,-126.0,-295.0,122.0,26.0,56.0,-971.0,-405.0
16.0,-254.0,-127.0,-301.0,119.0,29.0,56.0,-980.0,-409.0
16.0,-257.0,-125.0,-303.0,119.0,26.0,48.0,-983.0,-407.0
18.0,-260.0,-128.0,-297.0,118.0,27.0,49.0,-999.0,-413.0
17.0,-260.0,-131.0,-282.0,121.0,23.0,56.0,-987.0,-420.0
14.0,-258.0,-130.0,-266.0,126.0,21.0,48.0,-1006.0,-423.0
19.0,-264.0,-135.0,-248.0,134.0,17.0,58.0,-1009.0,-432.0
17.0,-263.0,-134.0,-229.0,141.0,14.0,62.0,-1010.0,-429.0
21.0,-262.0,-133.0,-212.0,148.0,7.0,56.0,-1004.0,-430.0
19.0,-256.0,-131.0,-198.0,155.0,5.0,69.0,-997.0,-429.0
21.0,-254.0,-132.0,-186.0,162.0,-4.0,66.0,-983.0,-438.0
21.0,-252.0,-132.0,-175.0,168.0,-5.0,64.0,-976.0,-438.0
18.0,-255.0,-134.0,-166.0,171.0,-11.0,53.0,-977.0,-432.0
14.0,-252.0,-131.0,-160.0,172.0,-13.0,44.0,-978.0,-432.0
13.0,-251.0,-131.0,-150.0,167.0,-18.0,42.0,-974.0,-425.0
11.0,-252.0,-129.0,-143.0,163.0,-17.0,36.0,-975.0,-419.0
9.0,-252.0,-127.0,-137.0,157.0,-18.0,32.0,-974.0,-419.0
11.0,-253.0,-128.0,-132.0,152.0,-14.0,33.0,-970.0,-413.0
15.0,-252.0,-127.0,-129.0,143.0,-14.0,35.0,-969.0,-413.0
18.0,-254.0,-126.0,-126.0,138.0,-10.0,46.0,-977.0,-406.0
17.0,-253.0,-128.0,-122.0,134.0,-12.0,53.0,-974.0,-407.0
17.0,-253.0,-127.0,-112.0,134.0,-10.0,63.0,-974.0,-402.0
24.0,-252.0,-124.0,-102.0,134.0,-14.0,69.0,-970.0,-404.0
23.0,-248.0,-127.0,-89.0,137.0,-15.0,84.0,-969.0,-405.0
25.0,-248.0,-129.0,-73.0,146.0,-20.0,84.0,-965.0,-410.0
25.0,-249.0,-128.0,-57.0,156.0,-22.0,81.0,-967.0,-407.0
28.0,-250.0,-128.0,-37.0,166.0,-26.0,84.0,-963.0,-401.0
26.0,-246.0,-127.0,-16.0,176.0,-24.0,80.0,-954.0,-398.0
24.0,-245.0,-126.0,4.0,185.0,-27.0,74.0,-948.0,-394.0
21.0,-242.0,-125.0,20.0,190.0,-24.0,69.0,-943.0,-394.0
20.0,-242.0,-126.0,28.0,193.0,-27.0,68.0,-939.0,-392.0
24.0,-241.0,-124.0,37.0,195.0,-22.0,67.0,-934.0,-393.0
19.0,-241.0,-119.0,41.0,193.0,-22.0,68.0,-928.0,-394.0
22.0,-237.0,-124.0,47.0,195.0,-16.0,69.0,-926.0,-395.0
21.0,-239.0,-124.0,56.0,197.0,-13.0,70.0,-927.0,-399.0
20.0,-239.0,-125.0,64.0,201.0,-12.0,70.0,-929.0,-396.0
18.0,-234.0,-126.0,71.0,201.0,-10.0,68.0,-930.0,-395.0
21.0,-238.0,-125.0,78.0,204.0,-7.0,76.0,-928.0,-397.0
26.0,-243.0,-125.0,83.0,207.0,-9.0,74.0,-930.0,-400.0
20.0,-239.0,-122.0,85.0,207.0,-7.0,74.0,-933.0,-402.0
24.0,-241.0,-123.0,90.0,207.0,-8.0,73.0,-932.0,-395.0
21.0,-240.0,-124.0,96.0,207.0,-6.0,68.0,-930.0,-392.0
19.0,-239.0,-125.0,105.0,210.0,-6.0,62.0,-927.0,-384.0
17.0,-240.0,-120.0,118.0,212.0,-3.0,60.0,-923.0,-376.0
16.0,-236.0,-120.0,137.0,216.0,1.0,54.0,-921.0,-371.0
18.0,-240.0,-118.0,161.0,219.0,6.0,54.0,-920.0,-369.0
16.0,-236.0,-118.0,179.0,217.0,7.0,51.0,-924.0,-367.0
16.0,-237.0,-120.0,195.0,214.0,11.0,53.0,-919.0,-368.0
19.0,-240.0,-114.0,207.0,208.0,12.0,53.0,-921.0,-361.0
17.0,-237.0,-116.0,215.0,203.0,15.0,53.0,-924.0,-370.0
16.0,-238.0,-113.0,220.0,198.0,14.0,45.0,-922.0,-366.0
16.0,-236.0,-117.0,226.0,194.0,18.0,49.0,-923.0,-361.0
19.0,-236.0,-119.0,235.0,184.0,17.0,54.0,-923.0,-369.0
21.0,-235.0,-118.0,239.0,174.0,19.0,59.0,-926.0,-376.0
20.0,-238.0,-116.0,243.0,167.0,19.0,72.0,-918.0,-368.0
21.0,-237.0,-116.0,249.0,162.0,18.0,77.0,-916.0,-367.0
21.0,-240.0,-119.0,255.0,161.0,17.0,74.0,-918.0,-366.0
23.0,-237.0,-119.0,262.0,163.0,18.0,71.0,-918.0,-358.0
22.0,-236.0,-113.0,270.0,162.0,18.0,76.0,-914.0,-355.0
23.0,-235.0,-119.0,279.0,157.0,19.0,74.0,-919.0,-353.0
21.0,-235.0,-114.0,286.0,151.0,18.0,73.0,-915.0,-352.0
23.0,-236.0,-115.0,293.0,143.0,20.0,75.0,-920.0,-358.0
23.0,-237.0,-114.0,304.0,138.0,16.0,67.0,-919.0,-357.0
20.0,-237.0,-118.0,316.0,133.0,17.0,67.0,-921.0,-365.0
21.0,-237.0,-113.0,326.0,133.0,16.0,69.0,-921.0,-365.0
19.0,-233.0,-120.0,340.0,134.0,16.0,61.0,-917.0,-367.0
18.0,-233.0,-117.0,351.0,139.0,14.0,58.0,-915.0,-369.0
14.0,-234.0,-119.0,354.0,140.0,15.0,48.0,-916.0,-373.0
17.0,-234.0,-120.0,350.0,135.0,15.0,49.0,-909.0,-375.0
17.0,-231.0,-121.0,340.0,127.0,15.0,39.0,-904.0,-384.0
15.0,-230.0,-121.0,327.0,117.0,14.0,47.0,-904.0,-385.0
16.0,-232.0,-122.0,315.0,108.0,15.0,47.0,-902.0,-396.0
15.0,-233.0,-122.0,305.0,100.0,15.0,47.0,-900.0,-394.0
14.0,-227.0,-125.0,299.0,95.0,16.0,39.0,-898.0,-395.0
13.0,-231.0,-122.0,293.0,91.0,17.0,44.0,-899.0,-392.0
15.0,-229.0,-126.0,286.0,81.0,17.0,38.0,-902.0,-397.0
15.0,-235.0,-123.0,284.0,75.0,18.0,44.0,-905.0,-385.0
16.0,-232.0,-123.0,282.0,68.0,18.0,38.0,-909.0,-387.0
10.0,-230.0,-124.0,280.0,61.0,17.0,38.0,-906.0,-398.0
13.0,-233.0,-125.0,276.0,51.0,15.0,46.0,-908.0,-393.0
15.0,-235.0,-121.0,275.0,43.0,12.0,39.0,-914.0,-382.0
13.0,-236.0,-121.0,279.0,36.0,10.0,38.0,-913.0,-389.0
13.0,-236.0,-121.0,282.0,29.0,12.0,33.0,-921.0,-384.0
13.0,-241.0,-118.0,290.0,18.0,17.0,42.0,-921.0,-386.0
12.0,-241.0,-118.0,302.0,9.0,21.0,34.0,-921.0,-385.0
16.0,-238.0,-122.0,326.0,-2.0,25.0,39.0,-923.0,-387.0
17.0,-236.0,-122.0,346.0,-9.0,26.0,47.0,-920.0,-381.0
17.0,-236.0,-122.0,362.0,-13.0,24.0,46.0,-917.0,-382.0
15.0,-234.0,-124.0,369.0,-15.0,23.0,48.0,-911.0,-387.0
17.0,-233.0,-121.0,374.0,-14.0,20.0,51.0,-906.0,-383.0
17.0,-229.0,-120.0,373.0,-15.0,17.0,57.0,-909.0,-381.0
21.0,-234.0,-123.0,368.0,-13.0,15.0,62.0,-905.0,-380.0
21.0,-231.0,-122.0,356.0,-11.0,10.0,69.0,-901.0,-385.0
26.0,-233.0,-118.0,345.0,-7.0,5.0,72.0,-907.0,-385.0
23.0,-232.0,-116.0,335.0,-1.0,-2.0,81.0,-913.0,-381.0
25.0,-234.0,-123.0,336.0,9.0,-9.0,84.0,-916.0,-379.0
29.0,-238.0,-123.0,344.0,18.0,-16.0,92.0,-914.0,-382.0
24.0,-232.0,-117.0,356.0,26.0,-23.0,88.0,-909.0,-376.0
26.0,-233.0,-118.0,360.0,31.0,-30.0,90.0,-905.0,-372.0
24.0,-229.0,-117.0,355.0,30.0,-36.0,85.0,-902.0,-367.0
26.0,-230.0,-115.0,342.0,29.0,-42.0,76.0,-903.0,-363.0
23.0,-231.0,-113.0,322.0,27.0,-46.0,82.0,-900.0,-343.0
24.0,-234.0,-106.0,302.0,29.0,-49.0,73.0,-903.0,-330.0
22.0,-232.0,-101.0,283.0,29.0,-54.0,69.0,-909.0,-322.0
22.0,-238.0,-103.0,265.0,29.0,-59.0,70.0,-917.0,-312.0
