acc1_x,acc1_y,acc1_z,gyro_x,gyro_y,gyro_z,acc2_x,acc2_y,acc2_z
16.0,-247.0,75.0,-17.0,61.0,-4.0,54.0,-956.0,392.0
15.0,-250.0,76.0,-17.0,60.0,-6.0,51.0,-959.0,395.0
14.0,-252.0,73.0,-17.0,58.0,-4.0,56.0,-957.0,398.0
15.0,-252.0,78.0,-17.0,58.0,-5.0,52.0,-956.0,396.0
18.0,-250.0,72.0,-16.0,58.0,-3.0,54.0,-958.0,395.0
16.0,-249.0,81.0,-16.0,57.0,-4.0,51.0,-955.0,397.0
16.0,-251.0,73.0,-18.0,56.0,-3.0,53.0,-956.0,395.0
16.0,-250.0,73.0,-18.0,55.0,-5.0,54.0,-956.0,399.0
15.0,-248.0,73.0,-20.0,56.0,-3.0,57.0,-953.0,402.0
15.0,-251.0,73.0,-19.0,60.0,-6.0,50.0,-957.0,394.0
18.0,-253.0,79.0,-18.0,59.0,-2.0,53.0,-959.0,395.0
17.0,-251.0,76.0,-18.0,62.0,-5.0,56.0,-954.0,396.0
19.0,-251.0,72.0,-20.0,62.0,-2.0,57.0,-957.0,394.0
18.0,-252.0,73.0,-21.0,62.0,-4.0,58.0,-955.0,396.0
16.0,-251.0,73.0,-23.0,62.0,-1.0,56.0,-957.0,393.0
19.0,-251.0,73.0,-24.0,62.0,-2.0,66.0,-959.0,396.0
17.0,-251.0,69.0,-24.0,62.0,-1.0,54.0,-960.0,392.0
18.0,-250.0,74.0,-22.0,59.0,-2.0,56.0,-960.0,393.0
16.0,-251.0,71.0,-22.0,58.0,-1.0,58.0,-954.0,396.0
14.0,-250.0,72.0,-20.0,55.0,1.0,57.0,-956.0,396.0
16.0,-249.0,74.0,-19.0,57.0,4.0,56.0,-956.0,392.0
17.0,-248.0,77.0,-21.0,57.0,1.0,56.0,-957.0,397.0
17.0,-247.0,76.0,-22.0,55.0,3.0,57.0,-958.0,395.0
22.0,-250.0,75.0,-21.0,54.0,1.0,58.0,-959.0,391.0
20.0,-246.0,66.0,-20.0,55.0,3.0,59.0,-957.0,393.0
26.0,-245.0,71.0,-20.0,57.0,2.0,59.0,-958.0,392.0
12.0,-251.0,76.0,-18.0,55.0,5.0,55.0,-951.0,395.0
24.0,-248.0,83.0,-19.0,54.0,3.0,54.0,-957.0,393.0
12.0,-252.0,73.0,-21.0,54.0,6.0,55.0,-956.0,394.0
10.0,-251.0,79.0,-23.0,53.0,5.0,59.0,-960.0,396.0
28.0,-249.0,80.0,-26.0,54.0,9.0,54.0,-955.0,395.0
14.0,-255.0,83.0,-27.0,55.0,8.0,56.0,-958.0,396.0
14.0,-256.0,62.0,-28.0,57.0,10.0,58.0,-956.0,402.0
22.0,-250.0,78.0,-28.0,58.0,9.0,57.0,-959.0,396.0
22.0,-243.0,82.0,-28.0,60.0,9.0,55.0,-956.0,397.0
19.0,-247.0,74.0,-28.0,60.0,8.0,55.0,-953.0,397.0
11.0,-257.0,66.0,-28.0,59.0,11.0,56.0,-952.0,395.0
10.0,-254.0,65.0,-29.0,58.0,8.0,52.0,-955.0,401.0
13.0,-248.0,65.0,-31.0,55.0,11.0,54.0,-956.0,398.0
18.0,-244.0,57.0,-29.0,57.0,8.0,55.0,-952.0,395.0
17.0,-247.0,73.0,-29.0,58.0,9.0,50.0,-945.0,396.0
17.0,-248.0,71.0,-31.0,57.0,3.0,53.0,-947.0,396.0
16.0,-248.0,76.0,-34.0,57.0,3.0,55.0,-948.0,395.0
16.0,-250.0,72.0,-37.0,56.0,1.0,55.0,-952.0,396.0
13.0,-247.0,74.0,-40.0,58.0,2.0,52.0,-955.0,387.0
15.0,-249.0,70.0,-41.0,59.0,-1.0,51.0,-955.0,396.0
18.0,-254.0,73.0,-40.0,60.0,0.0,52.0,-961.0,396.0
18.0,-252.0,74.0,-40.0,59.0,-3.0,52.0,-964.0,395.0
15.0,-250.0,74.0,-38.0,61.0,-1.0,53.0,-959.0,395.0
12.0,-254.0,74.0,-38.0,59.0,-4.0,52.0,-959.0,393.0
19.0,-252.0,71.0,-36.0,60.0,-1.0,55.0,-957.0,397.0
18.0,-248.0,75.0,-38.0,59.0,-2.0,58.0,-957.0,392.0
19.0,-250.0,74.0,-36.0,57.0,0.0,53.0,-955.0,385.0
16.0,-248.0,74.0,-36.0,57.0,0.0,53.0,-960.0,390.0
19.0,-252.0,75.0,-38.0,54.0,3.0,57.0,-957.0,392.0
19.0,-252.0,73.0,-36.0,53.0,2.0,51.0,-956.0,390.0
17.0,-253.0,70.0,-35.0,53.0,3.0,54.0,-963.0,389.0
18.0,-253.0,71.0,-36.0,50.0,-1.0,54.0,-961.0,392.0
19.0,-255.0,70.0,-34.0,49.0,0.0,53.0,-962.0,388.0
17.0,-252.0,72.0,-32.0,49.0,-3.0,54.0,-963.0,388.0
18.0,-255.0,69.0,-30.0,50.0,0.0,51.0,-963.0,392.0
16.0,-251.0,72.0,-31.0,52.0,-3.0,55.0,-963.0,389.0
16.0,-254.0,69.0,-33.0,54.0,0.0,51.0,-962.0,390.0
17.0,-253.0,75.0,-33.0,56.0,-1.0,50.0,-961.0,390.0
15.0,-253.0,71.0,-33.0,56.0,0.0,51.0,-963.0,388.0
14.0,-250.0,74.0,-33.0,55.0,-3.0,52.0,-960.0,387.0
15.0,-249.0,71.0,-33.0,55.0,0.0,51.0,-964.0,393.0
16.0,-251.0,72.0,-34.0,54.0,-1.0,43.0,-963.0,388.0
19.0,-256.0,70.0,-34.0,54.0,1.0,53.0,-965.0,391.0
19.0,-252.0,72.0,-30.0,54.0,-4.0,55.0,-960.0,385.0
18.0,-253.0,69.0,-27.0,53.0,-1.0,56.0,-963.0,379.0
17.0,-253.0,69.0,-28.0,52.0,-3.0,57.0,-963.0,384.0
16.0,-253.0,69.0,-26.0,53.0,-3.0,60.0,-963.0,382.0
18.0,-253.0,69.0,-20.0,54.0,-5.0,56.0,-965.0,382.0
18.0,-251.0,69.0,-15.0,53.0,-3.0,60.0,-968.0,389.0
17.0,-254.0,72.0,-10.0,55.0,-7.0,56.0,-962.0,392.0
17.0,-250.0,71.0,-5.0,56.0,-6.0,55.0,-957.0,392.0
17.0,-247.0,73.0,-5.0,58.0,-7.0,59.0,-955.0,389.0
19.0,-247.0,78.0,-8.0,57.0,-4.0,58.0,-951.0,390.0
18.0,-246.0,73.0,-12.0,59.0,-6.0,54.0,-956.0,392.0
17.0,-252.0,74.0,-15.0,60.0,-2.0,55.0,-959.0,395.0
18.0,-249.0,70.0,-17.0,61.0,-4.0,57.0,-957.0,392.0
19.0,-249.0,73.0,-18.0,61.0,-2.0,57.0,-955.0,393.0
19.0,-249.0,68.0,-17.0,62.0,-4.0,52.0,-959.0,393.0
19.0,-249.0,72.0,-16.0,61.0,0.0,55.0,-955.0,394.0
17.0,-250.0,73.0,-15.0,61.0,-4.0,56.0,-950.0,390.0
17.0,-251.0,71.0,-14.0,62.0,-2.0,53.0,-962.0,389.0
15.0,-249.0,74.0,-15.0,59.0,-4.0,55.0,-956.0,391.0
19.0,-252.0,72.0,-15.0,60.0,-1.0,59.0,-959.0,391.0
18.0,-251.0,75.0,-13.0,61.0,-5.0,55.0,-963.0,390.0
17.0,-251.0,71.0,-13.0,62.0,-2.0,61.0,-957.0,390.0
21.0,-249.0,74.0,-14.0,63.0,-5.0,57.0,-958.0,392.0
17.0,-248.0,71.0,-14.0,64.0,-2.0,58.0,-959.0,390.0
21.0,-251.0,71.0,-13.0,65.0,-4.0,60.0,-953.0,387.0
19.0,-248.0,72.0,-16.0,63.0,-3.0,54.0,-955.0,388.0
20.0,-250.0,73.0,-17.0,63.0,-4.0,52.0,-957.0,389.0
17.0,-252.0,72.0,-17.0,63.0,0.0,52.0,-962.0,387.0
18.0,-253.0,73.0,-19.0,62.0,-2.0,56.0,-958.0,388.0
17.0,-250.0,74.0,-18.0,62.0,0.0,53.0,-960.0,397.0
14.0,-250.0,75.0,-16.0,63.0,-2.0,53.0,-959.0,389.0
19.0,-251.0,73.0,-17.0,63.0,2.0,52.0,-963.0,391.0
17.0,-251.0,73.0,-17.0,64.0,0.0,55.0,-963.0,389.0
17.0,-253.0,76.0,-14.0,65.0,1.0,54.0,-957.0,390.0
16.0,-248.0,72.0,-14.0,64.0,0.0,56.0,-958.0,392.0
15.0,-250.0,72.0,-16.0,63.0,4.0,49.0,-959.0,392.0
16.0,-251.0,73.0,-18.0,63.0,4.0,54.0,-959.0,393.0
18.0,-248.0,68.0,-18.0,62.0,5.0,54.0,-958.0,391.0
16.0,-250.0,76.0,-19.0,62.0,3.0,58.0,-957.0,393.0
18.0,-248.0,72.0,-20.0,61.0,5.0,55.0,-956.0,392.0
20.0,-250.0,73.0,-18.0,61.0,2.0,58.0,-956.0,392.0
21.0,-252.0,73.0,-19.0,60.0,1.0,59.0,-953.0,391.0
19.0,-249.0,72.0,-21.0,58.0,-2.0,62.0,-954.0,393.0
19.0,-249.0,69.0,-24.0,60.0,-2.0,56.0,-959.0,392.0
18.0,-250.0,73.0,-27.0,60.0,-5.0,61.0,-953.0,394.0
18.0,-249.0,73.0,-29.0,62.0,-4.0,61.0,-955.0,393.0
18.0,-252.0,70.0,-30.0,61.0,-6.0,61.0,-956.0,394.0
18.0,-249.0,75.0,-32.0,62.0,-4.0,57.0,-956.0,394.0
18.0,-250.0,73.0,-34.0,62.0,-4.0,58.0,-956.0,393.0
20.0,-252.0,75.0,-36.0,63.0,-1.0,55.0,-953.0,389.0
18.0,-250.0,71.0,-39.0,63.0,-1.0,54.0,-956.0,390.0
17.0,-253.0,76.0,-42.0,62.0,3.0,54.0,-953.0,388.0
19.0,-249.0,71.0,-43.0,64.0,0.0,59.0,-958.0,386.0
14.0,-250.0,72.0,-43.0,62.0,3.0,56.0,-957.0,388.0
19.0,-251.0,73.0,-42.0,61.0,2.0,55.0,-955.0,391.0
19.0,-252.0,72.0,-41.0,63.0,4.0,59.0,-958.0,392.0
17.0,-253.0,73.0,-41.0,63.0,1.0,54.0,-959.0,390.0
18.0,-249.0,74.0,-44.0,64.0,3.0,53.0,-960.0,387.0
21.0,-248.0,71.0,-45.0,66.0,-1.0,54.0,-960.0,389.0
19.0,-251.0,73.0,-45.0,67.0,1.0,53.0,-961.0,388.0
16.0,-249.0,67.0,-47.0,66.0,-2.0,54.0,-961.0,387.0
16.0,-252.0,71.0,-50.0,66.0,-1.0,54.0,-957.0,381.0
17.0,-247.0,72.0,-52.0,63.0,-3.0,52.0,-957.0,385.0
16.0,-251.0,77.0,-56.0,61.0,-1.0,46.0,-959.0,384.0
15.0,-251.0,71.0,-60.0,59.0,-3.0,50.0,-956.0,384.0
15.0,-251.0,75.0,-61.0,57.0,0.0,48.0,-958.0,388.0
17.0,-252.0,71.0,-64.0,57.0,-2.0,47.0,-964.0,386.0
14.0,-249.0,69.0,-65.0,57.0,0.0,43.0,-959.0,380.0
14.0,-252.0,74.0,-66.0,55.0,-1.0,44.0,-963.0,384.0
13.0,-251.0,72.0,-66.0,56.0,2.0,37.0,-959.0,386.0
15.0,-250.0,73.0,-65.0,55.0,0.0,47.0,-963.0,379.0
12.0,-248.0,72.0,-65.0,55.0,4.0,43.0,-959.0,388.0
16.0,-252.0,73.0,-64.0,54.0,1.0,43.0,-962.0,382.0
19.0,-251.0,72.0,-65.0,53.0,2.0,49.0,-959.0,385.0
15.0,-250.0,72.0,-66.0,52.0,-1.0,44.0,-962.0,381.0
14.0,-251.0,68.0,-65.0,53.0,-1.0,53.0,-960.0,386.0
15.0,-255.0,70.0,-64.0,53.0,-4.0,48.0,-962.0,382.0
16.0,-251.0,72.0,-65.0,51.0,-4.0,42.0,-963.0,384.0
11.0,-249.0,68.0,-67.0,50.0,-7.0,50.0,-960.0,377.0
18.0,-252.0,68.0,-67.0,47.0,-6.0,47.0,-966.0,380.0
17.0,-249.0,68.0,-71.0,44.0,-9.0,48.0,-959.0,384.0
14.0,-251.0,66.0,-72.0,44.0,-6.0,52.0,-960.0,381.0
17.0,-252.0,69.0,-74.0,44.0,-8.0,53.0,-963.0,373.0
18.0,-255.0,69.0,-74.0,43.0,-6.0,53.0,-961.0,381.0
17.0,-254.0,70.0,-73.0,44.0,-8.0,56.0,-961.0,375.0
18.0,-253.0,68.0,-74.0,43.0,-6.0,58.0,-961.0,383.0
19.0,-252.0,66.0,-74.0,43.0,-6.0,58.0,-966.0,379.0
18.0,-251.0,69.0,-75.0,43.0,-4.0,65.0,-963.0,377.0
18.0,-250.0,70.0,-76.0,46.0,-6.0,63.0,-960.0,376.0
21.0,-253.0,68.0,-77.0,47.0,-4.0,67.0,-960.0,379.0
20.0,-250.0,69.0,-79.0,49.0,-5.0,67.0,-963.0,380.0
20.0,-252.0,72.0,-82.0,49.0,-2.0,66.0,-963.0,378.0
22.0,-254.0,71.0,-82.0,50.0,-3.0,62.0,-956.0,374.0
19.0,-251.0,68.0,-84.0,49.0,-1.0,63.0,-958.0,372.0
19.0,-251.0,69.0,-87.0,48.0,-2.0,69.0,-958.0,376.0
20.0,-252.0,71.0,-90.0,48.0,1.0,67.0,-961.0,373.0
21.0,-251.0,71.0,-90.0,49.0,0.0,67.0,-963.0,376.0
21.0,-253.0,71.0,-92.0,50.0,1.0,68.0,-963.0,378.0
19.0,-249.0,68.0,-94.0,51.0,-1.0,64.0,-961.0,374.0
20.0,-252.0,70.0,-94.0,51.0,3.0,63.0,-962.0,377.0
18.0,-252.0,70.0,-94.0,52.0,0.0,58.0,-961.0,377.0
17.0,-252.0,67.0,-96.0,53.0,3.0,62.0,-956.0,375.0
19.0,-252.0,72.0,-96.0,54.0,1.0,66.0,-961.0,374.0
19.0,-253.0,72.0,-97.0,56.0,3.0,62.0,-966.0,376.0
16.0,-252.0,70.0,-98.0,59.0,0.0,62.0,-964.0,372.0
17.0,-253.0,69.0,-100.0,60.0,1.0,56.0,-961.0,376.0
18.0,-251.0,67.0,-100.0,62.0,1.0,57.0,-964.0,372.0
18.0,-252.0,65.0,-103.0,62.0,3.0,54.0,-967.0,376.0
19.0,-251.0,69.0,-106.0,64.0,3.0,56.0,-966.0,374.0
17.0,-257.0,71.0,-106.0,66.0,5.0,57.0,-964.0,371.0
17.0,-252.0,68.0,-107.0,66.0,4.0,56.0,-966.0,368.0
14.0,-253.0,67.0,-107.0,65.0,7.0,54.0,-963.0,367.0
19.0,-253.0,66.0,-108.0,64.0,5.0,51.0,-966.0,370.0
16.0,-256.0,66.0,-109.0,61.0,8.0,50.0,-964.0,366.0
14.0,-251.0,69.0,-110.0,58.0,6.0,51.0,-966.0,370.0
16.0,-254.0,67.0,-112.0,55.0,8.0,51.0,-962.0,366.0
16.0,-254.0,66.0,-111.0,52.0,7.0,47.0,-967.0,367.0
16.0,-250.0,66.0,-114.0,50.0,8.0,44.0,-967.0,361.0
14.0,-252.0,65.0,-114.0,49.0,7.0,46.0,-969.0,364.0
14.0,-253.0,69.0,-113.0,48.0,9.0,43.0,-966.0,364.0
15.0,-251.0,68.0,-115.0,46.0,7.0,47.0,-965.0,365.0
12.0,-256.0,66.0,-117.0,46.0,9.0,42.0,-968.0,359.0
14.0,-252.0,63.0,-118.0,45.0,5.0,41.0,-970.0,359.0
14.0,-253.0,65.0,-117.0,45.0,6.0,48.0,-966.0,360.0
14.0,-253.0,66.0,-114.0,45.0,2.0,37.0,-971.0,357.0
14.0,-259.0,67.0,-113.0,45.0,5.0,46.0,-970.0,351.0
15.0,-254.0,62.0,-111.0,45.0,1.0,43.0,-970.0,355.0
17.0,-254.0,69.0,-109.0,45.0,3.0,51.0,-973.0,355.0
15.0,-257.0,66.0,-106.0,44.0,2.0,47.0,-973.0,354.0
18.0,-259.0,65.0,-102.0,45.0,3.0,44.0,-976.0,361.0
14.0,-255.0,66.0,-99.0,45.0,-1.0,48.0,-975.0,358.0
17.0,-255.0,66.0,-96.0,43.0,-1.0,52.0,-971.0,352.0
16.0,-256.0,64.0,-93.0,39.0,-1.0,45.0,-976.0,353.0
15.0,-256.0,66.0,-90.0,38.0,1.0,54.0,-972.0,354.0
14.0,-254.0,66.0,-88.0,40.0,-2.0,55.0,-980.0,354.0
18.0,-257.0,64.0,-86.0,42.0,-1.0,51.0,-979.0,353.0
13.0,-254.0,65.0,-84.0,43.0,-4.0,48.0,-970.0,355.0
14.0,-256.0,66.0,-86.0,43.0,-5.0,45.0,-973.0,355.0
14.0,-250.0,68.0,-85.0,42.0,-5.0,48.0,-968.0,353.0
17.0,-253.0,64.0,-84.0,41.0,-3.0,49.0,-973.0,354.0
20.0,-256.0,63.0,-86.0,41.0,-6.0,49.0,-976.0,353.0
16.0,-252.0,64.0,-87.0,39.0,-6.0,58.0,-972.0,340.0
16.0,-254.0,61.0,-85.0,38.0,-8.0,52.0,-970.0,337.0
20.0,-258.0,63.0,-80.0,38.0,-6.0,55.0,-975.0,342.0
18.0,-260.0,63.0,-78.0,40.0,-7.0,54.0,-983.0,348.0
18.0,-260.0,65.0,-74.0,44.0,-5.0,56.0,-984.0,352.0
18.0,-262.0,62.0,-65.0,47.0,-9.0,60.0,-986.0,353.0
16.0,-258.0,63.0,-56.0,46.0,-8.0,63.0,-985.0,351.0
20.0,-257.0,64.0,-47.0,48.0,-10.0,62.0,-975.0,345.0
20.0,-254.0,64.0,-42.0,52.0,-12.0,63.0,-973.0,349.0
19.0,-254.0,66.0,-43.0,54.0,-14.0,65.0,-972.0,352.0
19.0,-256.0,63.0,-43.0,55.0,-12.0,60.0,-967.0,350.0
22.0,-255.0,63.0,-48.0,54.0,-14.0,67.0,-966.0,350.0
20.0,-253.0,65.0,-50.0,54.0,-11.0,68.0,-965.0,348.0
18.0,-255.0,61.0,-53.0,57.0,-12.0,64.0,-971.0,350.0
20.0,-256.0,63.0,-56.0,57.0,-9.0,63.0,-967.0,352.0
19.0,-255.0,63.0,-56.0,59.0,-7.0,64.0,-970.0,349.0
21.0,-255.0,64.0,-56.0,58.0,-4.0,61.0,-969.0,350.0
21.0,-256.0,62.0,-56.0,58.0,-5.0,57.0,-974.0,346.0
19.0,-254.0,65.0,-57.0,61.0,-3.0,61.0,-971.0,348.0
19.0,-255.0,63.0,-58.0,59.0,-5.0,55.0,-971.0,351.0
19.0,-256.0,64.0,-58.0,58.0,-4.0,57.0,-978.0,342.0
18.0,-255.0,57.0,-60.0,57.0,-4.0,57.0,-975.0,343.0
18.0,-256.0,59.0,-60.0,59.0,-5.0,57.0,-973.0,343.0
15.0,-252.0,62.0,-61.0,60.0,-5.0,53.0,-979.0,343.0
18.0,-255.0,60.0,-59.0,60.0,-4.0,57.0,-973.0,343.0
18.0,-255.0,63.0,-60.0,59.0,-5.0,49.0,-980.0,345.0
18.0,-259.0,65.0,-60.0,59.0,-3.0,50.0,-974.0,343.0
19.0,-258.0,58.0,-58.0,60.0,-5.0,56.0,-975.0,344.0
16.0,-256.0,64.0,-58.0,61.0,-4.0,55.0,-976.0,344.0
14.0,-256.0,64.0,-56.0,60.0,-5.0,48.0,-975.0,343.0
17.0,-256.0,62.0,-56.0,59.0,-5.0,54.0,-977.0,344.0
15.0,-254.0,61.0,-54.0,61.0,-4.0,52.0,-976.0,343.0
16.0,-257.0,66.0,-53.0,62.0,-6.0,52.0,-971.0,344.0
17.0,-255.0,63.0,-52.0,61.0,-6.0,55.0,-975.0,343.0
17.0,-253.0,62.0,-49.0,59.0,-6.0,43.0,-967.0,343.0
15.0,-257.0,64.0,-51.0,58.0,-7.0,46.0,-976.0,344.0
16.0,-256.0,64.0,-50.0,57.0,-5.0,54.0,-974.0,344.0
18.0,-257.0,59.0,-50.0,55.0,-6.0,51.0,-980.0,348.0
16.0,-254.0,64.0,-48.0,56.0,-6.0,49.0,-972.0,346.0
18.0,-255.0,63.0,-47.0,55.0,-7.0,52.0,-974.0,343.0
16.0,-256.0,58.0,-47.0,55.0,-7.0,50.0,-982.0,342.0
22.0,-257.0,64.0,-47.0,57.0,-6.0,57.0,-980.0,340.0
17.0,-258.0,63.0,-47.0,56.0,-6.0,57.0,-977.0,344.0
20.0,-253.0,64.0,-49.0,55.0,-7.0,56.0,-976.0,340.0
16.0,-256.0,65.0,-49.0,55.0,-7.0,59.0,-975.0,345.0
18.0,-257.0,64.0,-51.0,54.0,-9.0,57.0,-974.0,345.0
18.0,-255.0,62.0,-51.0,54.0,-8.0,58.0,-976.0,344.0
15.0,-253.0,65.0,-51.0,55.0,-9.0,58.0,-975.0,344.0
19.0,-256.0,63.0,-49.0,53.0,-7.0,60.0,-975.0,345.0
20.0,-261.0,62.0,-53.0,54.0,-8.0,60.0,-973.0,339.0
18.0,-255.0,59.0,-57.0,54.0,-7.0,55.0,-973.0,336.0
20.0,-255.0,61.0,-61.0,55.0,-7.0,62.0,-972.0,338.0
19.0,-255.0,60.0,-65.0,54.0,-7.0,58.0,-974.0,343.0
19.0,-261.0,64.0,-65.0,54.0,-7.0,61.0,-977.0,337.0
20.0,-257.0,60.0,-62.0,55.0,-6.0,60.0,-980.0,341.0
20.0,-259.0,58.0,-57.0,58.0,-6.0,58.0,-982.0,339.0
18.0,-259.0,59.0,-53.0,60.0,-5.0,57.0,-979.0,336.0
18.0,-255.0,61.0,-49.0,60.0,-6.0,62.0,-979.0,340.0
18.0,-254.0,61.0,-44.0,60.0,-7.0,60.0,-979.0,343.0
18.0,-256.0,62.0,-38.0,58.0,-6.0,54.0,-976.0,339.0
18.0,-255.0,63.0,-34.0,59.0,-6.0,58.0,-977.0,340.0
19.0,-255.0,60.0,-32.0,59.0,-6.0,57.0,-981.0,338.0
20.0,-255.0,62.0,-32.0,58.0,-5.0,54.0,-980.0,341.0
16.0,-253.0,62.0,-34.0,59.0,-5.0,56.0,-976.0,342.0
18.0,-255.0,60.0,-34.0,60.0,-5.0,56.0,-976.0,343.0
22.0,-257.0,61.0,-39.0,58.0,-4.0,56.0,-973.0,336.0
19.0,-255.0,63.0,-42.0,56.0,-5.0,61.0,-972.0,338.0
16.0,-256.0,59.0,-45.0,56.0,-5.0,56.0,-975.0,337.0
19.0,-257.0,62.0,-46.0,56.0,-5.0,59.0,-975.0,337.0
17.0,-256.0,60.0,-48.0,56.0,-4.0,55.0,-971.0,336.0
17.0,-258.0,65.0,-47.0,55.0,-5.0,53.0,-975.0,344.0
16.0,-259.0,62.0,-48.0,56.0,-5.0,52.0,-976.0,340.0
20.0,-256.0,60.0,-50.0,55.0,-3.0,59.0,-975.0,344.0
19.0,-257.0,59.0,-50.0,54.0,-3.0,63.0,-975.0,343.0
17.0,-256.0,60.0,-50.0,56.0,-2.0,54.0,-973.0,338.0
20.0,-257.0,60.0,-50.0,56.0,-2.0,54.0,-974.0,335.0
18.0,-258.0,60.0,-51.0,55.0,-2.0,54.0,-975.0,337.0
18.0,-257.0,60.0,-51.0,55.0,-1.0,56.0,-981.0,336.0
16.0,-257.0,62.0,-51.0,55.0,0.0,52.0,-978.0,336.0
16.0,-256.0,64.0,-51.0,55.0,-2.0,52.0,-982.0,335.0
16.0,-257.0,60.0,-52.0,54.0,-4.0,56.0,-980.0,334.0
20.0,-258.0,61.0,-53.0,56.0,-6.0,57.0,-984.0,335.0
18.0,-257.0,60.0,-53.0,56.0,-6.0,54.0,-980.0,333.0
17.0,-255.0,63.0,-51.0,56.0,-7.0,52.0,-978.0,335.0
19.0,-258.0,64.0,-50.0,57.0,-7.0,54.0,-981.0,333.0
17.0,-256.0,57.0,-48.0,55.0,-8.0,58.0,-979.0,329.0
19.0,-256.0,61.0,-49.0,55.0,-7.0,53.0,-978.0,332.0
19.0,-256.0,59.0,-50.0,56.0,-7.0,57.0,-981.0,336.0
19.0,-259.0,63.0,-51.0,55.0,-7.0,58.0,-976.0,335.0
17.0,-255.0,63.0,-49.0,55.0,-5.0,63.0,-979.0,332.0
18.0,-257.0,58.0,-48.0,55.0,-6.0,64.0,-983.0,332.0
18.0,-255.0,61.0,-48.0,55.0,-5.0,61.0,-972.0,339.0
20.0,-256.0,60.0,-48.0,55.0,-6.0,61.0,-981.0,334.0
18.0,-257.0,61.0,-49.0,53.0,-4.0,58.0,-974.0,329.0
20.0,-257.0,64.0,-51.0,53.0,-5.0,61.0,-976.0,329.0
16.0,-258.0,58.0,-53.0,52.0,-3.0,54.0,-976.0,330.0
20.0,-254.0,62.0,-56.0,49.0,-3.0,62.0,-979.0,329.0
21.0,-255.0,58.0,-59.0,46.0,-2.0,64.0,-977.0,329.0
20.0,-258.0,56.0,-61.0,48.0,-2.0,64.0,-980.0,332.0
20.0,-256.0,60.0,-60.0,49.0,-4.0,62.0,-981.0,331.0
18.0,-255.0,60.0,-60.0,50.0,-3.0,61.0,-984.0,329.0
21.0,-258.0,59.0,-61.0,50.0,-1.0,63.0,-976.0,333.0
16.0,-259.0,59.0,-61.0,52.0,-2.0,58.0,-982.0,332.0
17.0,-257.0,59.0,-61.0,52.0,0.0,62.0,-969.0,330.0
21.0,-257.0,60.0,-60.0,51.0,0.0,57.0,-977.0,329.0
18.0,-256.0,58.0,-59.0,50.0,1.0,60.0,-986.0,326.0
20.0,-257.0,59.0,-56.0,50.0,1.0,62.0,-978.0,325.0
19.0,-257.0,61.0,-54.0,51.0,3.0,59.0,-981.0,327.0
20.0,-256.0,57.0,-53.0,51.0,2.0,60.0,-981.0,326.0
21.0,-257.0,59.0,-51.0,52.0,2.0,59.0,-979.0,325.0
18.0,-254.0,60.0,-49.0,54.0,1.0,61.0,-979.0,323.0
18.0,-256.0,57.0,-49.0,54.0,4.0,58.0,-979.0,326.0
20.0,-256.0,57.0,-49.0,54.0,1.0,56.0,-982.0,323.0
20.0,-258.0,60.0,-51.0,53.0,3.0,58.0,-981.0,325.0
18.0,-259.0,55.0,-52.0,52.0,2.0,59.0,-980.0,328.0
21.0,-259.0,56.0,-52.0,52.0,3.0,55.0,-980.0,322.0
19.0,-258.0,55.0,-50.0,54.0,2.0,54.0,-989.0,325.0
18.0,-257.0,56.0,-47.0,57.0,3.0,56.0,-979.0,317.0
14.0,-258.0,57.0,-45.0,59.0,5.0,59.0,-983.0,324.0
19.0,-259.0,59.0,-43.0,58.0,6.0,52.0,-983.0,316.0
19.0,-258.0,56.0,-41.0,57.0,5.0,56.0,-981.0,328.0
15.0,-258.0,60.0,-38.0,58.0,6.0,54.0,-980.0,322.0
17.0,-256.0,59.0,-36.0,57.0,4.0,55.0,-986.0,323.0
19.0,-260.0,56.0,-33.0,58.0,6.0,57.0,-983.0,325.0
17.0,-259.0,59.0,-30.0,58.0,5.0,54.0,-982.0,324.0
18.0,-258.0,57.0,-29.0,58.0,7.0,59.0,-982.0,321.0
17.0,-258.0,57.0,-30.0,59.0,6.0,51.0,-979.0,324.0
17.0,-254.0,56.0,-28.0,58.0,7.0,55.0,-978.0,324.0
19.0,-257.0,56.0,-27.0,58.0,6.0,54.0,-983.0,322.0
21.0,-260.0,60.0,-24.0,57.0,6.0,56.0,-980.0,321.0
18.0,-257.0,57.0,-21.0,58.0,5.0,55.0,-981.0,324.0
19.0,-257.0,56.0,-21.0,61.0,5.0,57.0,-981.0,320.0
19.0,-258.0,58.0,-19.0,63.0,3.0,58.0,-986.0,324.0
18.0,-259.0,54.0,-18.0,65.0,5.0,60.0,-981.0,325.0
18.0,-261.0,58.0,-18.0,65.0,2.0,57.0,-988.0,320.0
19.0,-259.0,57.0,-18.0,63.0,2.0,56.0,-982.0,324.0
18.0,-259.0,57.0,-17.0,64.0,-1.0,59.0,-984.0,324.0
19.0,-258.0,57.0,-15.0,63.0,0.0,60.0,-985.0,324.0
15.0,-257.0,59.0,-15.0,63.0,-1.0,55.0,-985.0,321.0
17.0,-257.0,57.0,-15.0,62.0,0.0,53.0,-985.0,326.0
17.0,-259.0,55.0,-17.0,63.0,-2.0,55.0,-981.0,325.0
18.0,-256.0,59.0,-17.0,64.0,-1.0,50.0,-982.0,326.0
19.0,-260.0,57.0,-15.0,63.0,-4.0,49.0,-987.0,323.0
17.0,-260.0,58.0,-13.0,66.0,-4.0,52.0,-984.0,323.0
17.0,-257.0,54.0,-11.0,65.0,-5.0,52.0,-988.0,318.0
18.0,-261.0,54.0,-10.0,65.0,-2.0,59.0,-987.0,320.0
16.0,-260.0,53.0,-9.0,62.0,-3.0,54.0,-986.0,317.0
17.0,-257.0,55.0,-7.0,62.0,-3.0,50.0,-990.0,318.0
17.0,-262.0,54.0,-4.0,61.0,-5.0,56.0,-988.0,321.0
18.0,-261.0,55.0,-1.0,62.0,-5.0,56.0,-996.0,321.0
17.0,-260.0,59.0,5.0,63.0,-5.0,51.0,-982.0,324.0
18.0,-259.0,61.0,9.0,64.0,-5.0,55.0,-981.0,323.0
18.0,-255.0,61.0,13.0,64.0,-6.0,57.0,-980.0,328.0
17.0,-259.0,62.0,13.0,65.0,-5.0,60.0,-977.0,324.0
17.0,-257.0,59.0,13.0,66.0,-7.0,57.0,-980.0,324.0
17.0,-256.0,57.0,12.0,66.0,-5.0,58.0,-977.0,329.0
19.0,-259.0,60.0,11.0,66.0,-6.0,61.0,-978.0,330.0
18.0,-255.0,59.0,9.0,65.0,-5.0,56.0,-976.0,327.0
17.0,-255.0,57.0,9.0,65.0,-8.0,62.0,-981.0,327.0
16.0,-258.0,57.0,8.0,64.0,-6.0,61.0,-981.0,329.0
19.0,-258.0,57.0,5.0,62.0,-7.0,61.0,-977.0,324.0
15.0,-255.0,59.0,3.0,61.0,-5.0,57.0,-978.0,330.0
16.0,-261.0,57.0,2.0,61.0,-7.0,59.0,-979.0,328.0
17.0,-259.0,60.0,0.0,60.0,-3.0,57.0,-976.0,333.0
21.0,-258.0,61.0,-1.0,56.0,-4.0,59.0,-978.0,328.0
19.0,-258.0,60.0,1.0,55.0,-1.0,52.0,-976.0,329.0
16.0,-257.0,59.0,1.0,55.0,-3.0,57.0,-979.0,328.0
18.0,-256.0,54.0,1.0,54.0,-2.0,60.0,-976.0,331.0
18.0,-255.0,62.0,3.0,55.0,-5.0,56.0,-978.0,329.0
17.0,-258.0,59.0,3.0,54.0,-2.0,54.0,-980.0,330.0
14.0,-256.0,61.0,2.0,55.0,-3.0,54.0,-980.0,327.0
16.0,-258.0,59.0,3.0,55.0,-1.0,53.0,-980.0,329.0
18.0,-265.0,51.0,3.0,56.0,-5.0,53.0,-980.0,331.0
16.0,-254.0,56.0,2.0,58.0,-3.0,54.0,-975.0,332.0
18.0,-254.0,61.0,-1.0,59.0,-6.0,51.0,-979.0,325.0
13.0,-256.0,56.0,0.0,60.0,-3.0,53.0,-981.0,334.0
18.0,-259.0,59.0,1.0,60.0,-7.0,53.0,-978.0,335.0
17.0,-254.0,53.0,1.0,61.0,-6.0,53.0,-977.0,330.0
17.0,-255.0,58.0,1.0,62.0,-7.0,54.0,-977.0,328.0
16.0,-257.0,55.0,2.0,62.0,-6.0,56.0,-979.0,324.0
18.0,-257.0,60.0,1.0,61.0,-8.0,55.0,-984.0,324.0
16.0,-260.0,59.0,2.0,62.0,-5.0,52.0,-985.0,332.0
16.0,-255.0,59.0,2.0,59.0,-8.0,52.0,-981.0,327.0
18.0,-257.0,60.0,2.0,57.0,-6.0,56.0,-979.0,330.0
17.0,-255.0,58.0,2.0,56.0,-9.0,56.0,-979.0,328.0
18.0,-255.0,60.0,2.0,59.0,-8.0,59.0,-980.0,323.0
18.0,-254.0,59.0,1.0,58.0,-11.0,53.0,-978.0,329.0
17.0,-254.0,59.0,-2.0,59.0,-8.0,57.0,-977.0,331.0
17.0,-256.0,59.0,-2.0,60.0,-11.0,58.0,-973.0,334.0
20.0,-256.0,60.0,-5.0,60.0,-8.0,55.0,-974.0,332.0
20.0,-257.0,59.0,-6.0,61.0,-10.0,57.0,-977.0,332.0
18.0,-256.0,57.0,-7.0,59.0,-8.0,62.0,-976.0,333.0
18.0,-256.0,60.0,-9.0,58.0,-10.0,61.0,-976.0,333.0
19.0,-259.0,60.0,-10.0,57.0,-8.0,60.0,-979.0,330.0
18.0,-258.0,61.0,-11.0,59.0,-9.0,55.0,-981.0,333.0
18.0,-258.0,55.0,-14.0,58.0,-6.0,58.0,-980.0,325.0
18.0,-257.0,60.0,-12.0,59.0,-8.0,58.0,-978.0,338.0
22.0,-258.0,62.0,-12.0,59.0,-6.0,59.0,-979.0,335.0
18.0,-257.0,59.0,-9.0,60.0,-8.0,60.0,-981.0,326.0
18.0,-259.0,60.0,-10.0,62.0,-6.0,61.0,-980.0,335.0
18.0,-256.0,59.0,-9.0,63.0,-8.0,56.0,-979.0,330.0
18.0,-255.0,58.0,-10.0,63.0,-6.0,56.0,-974.0,333.0
17.0,-256.0,61.0,-9.0,61.0,-9.0,61.0,-976.0,329.0
18.0,-255.0,57.0,-12.0,61.0,-6.0,60.0,-976.0,333.0
20.0,-257.0,58.0,-13.0,60.0,-7.0,56.0,-982.0,331.0
20.0,-258.0,61.0,-15.0,59.0,-5.0,61.0,-976.0,327.0
18.0,-255.0,61.0,-16.0,60.0,-8.0,59.0,-975.0,329.0
19.0,-257.0,59.0,-15.0,61.0,-5.0,57.0,-987.0,328.0
18.0,-257.0,61.0,-15.0,61.0,-8.0,62.0,-975.0,324.0
20.0,-257.0,58.0,-13.0,62.0,-5.0,57.0,-981.0,332.0
19.0,-258.0,59.0,-14.0,61.0,-7.0,65.0,-983.0,328.0
20.0,-257.0,58.0,-14.0,62.0,-5.0,62.0,-979.0,332.0
19.0,-257.0,60.0,-12.0,62.0,-8.0,63.0,-975.0,331.0
18.0,-258.0,59.0,-13.0,63.0,-5.0,58.0,-977.0,331.0
19.0,-254.0,60.0,-14.0,61.0,-6.0,65.0,-976.0,330.0
19.0,-257.0,59.0,-15.0,61.0,-2.0,60.0,-975.0,331.0
19.0,-258.0,60.0,-16.0,61.0,-5.0,64.0,-975.0,328.0
18.0,-255.0,60.0,-18.0,60.0,-3.0,56.0,-980.0,329.0
19.0,-257.0,58.0,-19.0,61.0,-5.0,58.0,-977.0,329.0
20.0,-258.0,57.0,-19.0,63.0,-3.0,57.0,-976.0,327.0
20.0,-256.0,62.0,-18.0,63.0,-6.0,57.0,-980.0,331.0
22.0,-260.0,58.0,-17.0,64.0,-3.0,54.0,-987.0,325.0
18.0,-258.0,58.0,-16.0,65.0,-6.0,54.0,-977.0,326.0
18.0,-259.0,62.0,-15.0,65.0,-5.0,54.0,-977.0,334.0
19.0,-257.0,59.0,-13.0,66.0,-7.0,55.0,-981.0,328.0
15.0,-256.0,60.0,-13.0,67.0,-3.0,63.0,-979.0,330.0
16.0,-256.0,54.0,-12.0,67.0,-6.0,59.0,-984.0,327.0
20.0,-257.0,56.0,-11.0,67.0,-3.0,64.0,-984.0,328.0
17.0,-257.0,58.0,-12.0,66.0,-4.0,61.0,-982.0,333.0
18.0,-255.0,62.0,-10.0,66.0,-1.0,57.0,-980.0,328.0
17.0,-256.0,62.0,-11.0,66.0,-3.0,57.0,-984.0,328.0
21.0,-259.0,61.0,-10.0,65.0,-1.0,58.0,-981.0,328.0
18.0,-255.0,58.0,-10.0,65.0,-3.0,66.0,-979.0,328.0
21.0,-257.0,56.0,-11.0,64.0,-2.0,60.0,-982.0,328.0
20.0,-257.0,57.0,-10.0,62.0,-3.0,59.0,-981.0,332.0
16.0,-256.0,59.0,-10.0,63.0,0.0,54.0,-976.0,327.0
17.0,-256.0,58.0,-10.0,63.0,-2.0,57.0,-980.0,329.0
17.0,-254.0,61.0,-11.0,61.0,0.0,57.0,-981.0,329.0
18.0,-256.0,61.0,-10.0,63.0,-2.0,60.0,-981.0,325.0
18.0,-257.0,60.0,-12.0,61.0,0.0,57.0,-980.0,328.0
18.0,-254.0,61.0,-10.0,61.0,-2.0,60.0,-982.0,326.0
21.0,-259.0,59.0,-10.0,61.0,1.0,55.0,-977.0,327.0
17.0,-256.0,60.0,-10.0,61.0,-2.0,55.0,-979.0,330.0
17.0,-258.0,59.0,-11.0,62.0,2.0,55.0,-980.0,333.0
16.0,-260.0,62.0,-10.0,61.0,-1.0,55.0,-980.0,332.0
17.0,-257.0,58.0,-11.0,59.0,1.0,54.0,-980.0,331.0
19.0,-257.0,59.0,-9.0,60.0,-1.0,56.0,-978.0,332.0
19.0,-260.0,61.0,-10.0,60.0,2.0,57.0,-981.0,327.0
20.0,-257.0,62.0,-11.0,61.0,0.0,58.0,-980.0,331.0
18.0,-256.0,60.0,-10.0,60.0,1.0,58.0,-980.0,326.0
18.0,-258.0,59.0,-9.0,59.0,-1.0,55.0,-980.0,329.0
15.0,-256.0,59.0,-10.0,59.0,2.0,56.0,-980.0,328.0
17.0,-258.0,58.0,-11.0,60.0,1.0,57.0,-979.0,326.0
17.0,-256.0,60.0,-12.0,62.0,2.0,59.0,-979.0,333.0
16.0,-256.0,56.0,-10.0,60.0,0.0,58.0,-975.0,328.0
19.0,-255.0,59.0,-9.0,60.0,0.0,55.0,-979.0,327.0
15.0,-257.0,61.0,-7.0,62.0,-1.0,58.0,-978.0,326.0
19.0,-253.0,60.0,-7.0,62.0,1.0,57.0,-983.0,327.0
19.0,-257.0,58.0,-8.0,62.0,0.0,55.0,-980.0,327.0
18.0,-257.0,62.0,-8.0,62.0,3.0,57.0,-977.0,332.0
19.0,-255.0,56.0,-9.0,62.0,-1.0,56.0,-981.0,326.0
17.0,-256.0,59.0,-8.0,61.0,2.0,59.0,-984.0,328.0
20.0,-261.0,61.0,-10.0,61.0,1.0,57.0,-976.0,332.0
18.0,-259.0,57.0,-10.0,61.0,2.0,60.0,-980.0,326.0
19.0,-253.0,63.0,-9.0,59.0,0.0,53.0,-981.0,330.0
20.0,-259.0,60.0,-9.0,61.0,2.0,61.0,-976.0,331.0
19.0,-260.0,59.0,-7.0,60.0,-1.0,55.0,-981.0,327.0
14.0,-254.0,58.0,-7.0,61.0,2.0,60.0,-980.0,327.0
19.0,-258.0,61.0,-6.0,60.0,1.0,57.0,-978.0,332.0
22.0,-258.0,61.0,-6.0,61.0,3.0,59.0,-982.0,332.0
19.0,-259.0,61.0,-5.0,60.0,0.0,63.0,-981.0,329.0
18.0,-258.0,57.0,-6.0,62.0,2.0,57.0,-982.0,330.0
19.0,-255.0,56.0,-4.0,61.0,0.0,59.0,-982.0,329.0
16.0,-258.0,61.0,-6.0,61.0,2.0,58.0,-976.0,338.0
17.0,-258.0,59.0,-7.0,60.0,0.0,56.0,-974.0,335.0
20.0,-258.0,62.0,-8.0,62.0,3.0,57.0,-981.0,335.0
17.0,-255.0,63.0,-10.0,63.0,0.0,62.0,-980.0,329.0
17.0,-258.0,64.0,-11.0,61.0,1.0,56.0,-977.0,334.0
19.0,-259.0,61.0,-12.0,61.0,-2.0,56.0,-979.0,330.0
17.0,-258.0,59.0,-13.0,62.0,1.0,52.0,-979.0,336.0
15.0,-254.0,59.0,-13.0,63.0,-1.0,54.0,-980.0,334.0
17.0,-257.0,59.0,-13.0,63.0,1.0,52.0,-978.0,329.0
17.0,-254.0,57.0,-11.0,63.0,-2.0,56.0,-981.0,326.0
16.0,-257.0,60.0,-8.0,64.0,-1.0,57.0,-985.0,323.0
18.0,-256.0,55.0,-6.0,63.0,-2.0,51.0,-988.0,319.0
21.0,-258.0,56.0,-2.0,63.0,0.0,56.0,-983.0,322.0
16.0,-258.0,57.0,0.0,63.0,-3.0,55.0,-987.0,330.0
20.0,-259.0,58.0,3.0,64.0,-2.0,57.0,-984.0,326.0
16.0,-255.0,60.0,6.0,64.0,-3.0,54.0,-978.0,330.0
16.0,-256.0,59.0,7.0,64.0,0.0,56.0,-978.0,332.0
18.0,-258.0,58.0,10.0,64.0,-2.0,63.0,-972.0,329.0
20.0,-255.0,60.0,9.0,64.0,-1.0,59.0,-973.0,336.0
18.0,-255.0,58.0,8.0,64.0,-3.0,61.0,-975.0,334.0
18.0,-255.0,61.0,5.0,65.0,-1.0,54.0,-972.0,334.0
16.0,-256.0,61.0,4.0,69.0,-4.0,60.0,-975.0,336.0
22.0,-255.0,62.0,1.0,70.0,-3.0,58.0,-976.0,329.0
15.0,-256.0,61.0,0.0,68.0,-5.0,58.0,-972.0,337.0
18.0,-257.0,62.0,0.0,67.0,-2.0,58.0,-975.0,338.0
18.0,-257.0,59.0,-3.0,64.0,-3.0,56.0,-974.0,336.0
19.0,-255.0,62.0,-5.0,63.0,-2.0,60.0,-973.0,340.0
16.0,-257.0,60.0,-5.0,62.0,-3.0,56.0,-983.0,334.0
18.0,-256.0,61.0,-6.0,61.0,-1.0,54.0,-983.0,334.0
17.0,-256.0,60.0,-7.0,60.0,-2.0,53.0,-982.0,334.0
15.0,-257.0,59.0,-6.0,59.0,-1.0,60.0,-977.0,331.0
17.0,-257.0,57.0,-6.0,58.0,-2.0,52.0,-974.0,338.0
17.0,-255.0,56.0,-6.0,59.0,-1.0,58.0,-978.0,332.0
19.0,-255.0,58.0,-7.0,59.0,-1.0,55.0,-975.0,336.0
17.0,-258.0,58.0,-6.0,59.0,0.0,58.0,-972.0,338.0
18.0,-256.0,62.0,-6.0,59.0,-4.0,61.0,-977.0,333.0
17.0,-255.0,60.0,-7.0,60.0,-2.0,57.0,-978.0,331.0
19.0,-259.0,58.0,-8.0,61.0,-4.0,53.0,-978.0,334.0
19.0,-255.0,59.0,-7.0,60.0,-1.0,55.0,-978.0,335.0
18.0,-255.0,62.0,-9.0,61.0,-2.0,62.0,-977.0,329.0
17.0,-257.0,58.0,-9.0,61.0,-2.0,58.0,-977.0,327.0
19.0,-256.0,61.0,-10.0,59.0,-3.0,58.0,-977.0,332.0
17.0,-258.0,60.0,-9.0,60.0,-3.0,59.0,-975.0,335.0
19.0,-257.0,59.0,-9.0,59.0,-3.0,58.0,-980.0,335.0
17.0,-256.0,60.0,-11.0,60.0,-2.0,55.0,-979.0,332.0
18.0,-256.0,59.0,-10.0,60.0,-3.0,55.0,-972.0,333.0
20.0,-256.0,61.0,-8.0,62.0,-2.0,56.0,-977.0,332.0
17.0,-255.0,61.0,-8.0,61.0,-3.0,57.0,-976.0,334.0
17.0,-256.0,58.0,-8.0,59.0,-1.0,57.0,-976.0,339.0
19.0,-258.0,59.0,-8.0,62.0,-2.0,57.0,-977.0,333.0
15.0,-254.0,61.0,-8.0,60.0,-1.0,61.0,-977.0,337.0
19.0,-255.0,61.0,-9.0,58.0,-1.0,55.0,-976.0,336.0
17.0,-256.0,58.0,-10.0,60.0,-2.0,57.0,-979.0,336.0
19.0,-257.0,60.0,-11.0,60.0,-1.0,57.0,-974.0,340.0
15.0,-254.0,58.0,-15.0,58.0,0.0,59.0,-975.0,338.0
18.0,-256.0,58.0,-15.0,60.0,-1.0,58.0,-980.0,337.0
17.0,-256.0,59.0,-17.0,60.0,-1.0,59.0,-979.0,337.0
18.0,-254.0,57.0,-17.0,59.0,-2.0,58.0,-981.0,337.0
22.0,-256.0,62.0,-17.0,59.0,-1.0,59.0,-979.0,336.0
18.0,-256.0,62.0,-16.0,60.0,-3.0,60.0,-981.0,329.0
19.0,-256.0,56.0,-16.0,61.0,-2.0,59.0,-979.0,334.0
17.0,-260.0,60.0,-17.0,61.0,-1.0,52.0,-980.0,328.0
16.0,-257.0,59.0,-16.0,59.0,-1.0,53.0,-979.0,333.0
17.0,-257.0,63.0,-16.0,57.0,-2.0,55.0,-980.0,337.0
18.0,-255.0,59.0,-15.0,57.0,-2.0,62.0,-979.0,335.0
16.0,-257.0,59.0,-15.0,59.0,-2.0,58.0,-980.0,333.0
18.0,-258.0,60.0,-14.0,61.0,-2.0,54.0,-976.0,337.0
17.0,-254.0,60.0,-14.0,62.0,-4.0,56.0,-975.0,333.0
18.0,-255.0,60.0,-14.0,61.0,-2.0,58.0,-979.0,332.0
17.0,-254.0,59.0,-13.0,61.0,-3.0,57.0,-977.0,330.0
15.0,-254.0,62.0,-13.0,61.0,-1.0,56.0,-975.0,334.0
20.0,-257.0,62.0,-14.0,61.0,-2.0,56.0,-981.0,329.0
18.0,-256.0,60.0,-12.0,62.0,-2.0,53.0,-980.0,331.0
18.0,-256.0,60.0,-10.0,60.0,-2.0,54.0,-975.0,335.0
21.0,-255.0,60.0,-11.0,59.0,-2.0,56.0,-982.0,332.0
16.0,-258.0,59.0,-12.0,59.0,-3.0,54.0,-977.0,329.0
18.0,-257.0,57.0,-12.0,57.0,-3.0,59.0,-975.0,339.0
17.0,-256.0,58.0,-13.0,58.0,-2.0,57.0,-975.0,331.0
20.0,-256.0,58.0,-14.0,60.0,-2.0,57.0,-976.0,333.0
17.0,-257.0,57.0,-13.0,59.0,-2.0,59.0,-976.0,339.0
16.0,-257.0,59.0,-14.0,61.0,-2.0,57.0,-977.0,336.0
17.0,-258.0,59.0,-13.0,59.0,-2.0,57.0,-973.0,335.0
17.0,-253.0,62.0,-13.0,59.0,-3.0,58.0,-977.0,334.0
18.0,-258.0,60.0,-13.0,60.0,-2.0,56.0,-979.0,332.0
18.0,-258.0,60.0,-13.0,60.0,-2.0,54.0,-980.0,333.0
17.0,-253.0,57.0,-14.0,61.0,-2.0,55.0,-976.0,333.0
17.0,-256.0,62.0,-14.0,61.0,-2.0,56.0,-975.0,332.0
18.0,-257.0,61.0,-13.0,62.0,-3.0,61.0,-976.0,332.0
18.0,-259.0,60.0,-13.0,60.0,-2.0,57.0,-981.0,333.0
18.0,-259.0,58.0,-12.0,62.0,-4.0,59.0,-982.0,328.0
16.0,-257.0,60.0,-13.0,63.0,-2.0,55.0,-979.0,332.0
18.0,-259.0,63.0,-12.0,62.0,-3.0,56.0,-984.0,331.0
22.0,-254.0,55.0,-11.0,63.0,-4.0,56.0,-978.0,336.0
19.0,-255.0,58.0,-13.0,63.0,-3.0,56.0,-972.0,337.0
18.0,-254.0,58.0,-12.0,64.0,-4.0,60.0,-977.0,330.0
16.0,-256.0,62.0,-12.0,63.0,-3.0,56.0,-976.0,330.0
17.0,-255.0,58.0,-13.0,63.0,-5.0,57.0,-978.0,335.0
18.0,-255.0,61.0,-11.0,61.0,-3.0,58.0,-977.0,337.0
17.0,-254.0,61.0,-13.0,60.0,-3.0,57.0,-979.0,337.0
18.0,-255.0,62.0,-11.0,61.0,-1.0,59.0,-973.0,334.0
19.0,-258.0,62.0,-11.0,60.0,-2.0,58.0,-976.0,334.0
18.0,-256.0,60.0,-12.0,59.0,-1.0,52.0,-975.0,332.0
19.0,-258.0,60.0,-13.0,59.0,-2.0,56.0,-973.0,339.0
21.0,-257.0,58.0,-13.0,60.0,0.0,56.0,-980.0,335.0
19.0,-256.0,62.0,-13.0,60.0,-2.0,54.0,-974.0,329.0
19.0,-258.0,60.0,-12.0,60.0,-1.0,55.0,-983.0,333.0
17.0,-256.0,61.0,-13.0,59.0,-2.0,62.0,-973.0,337.0
19.0,-258.0,57.0,-11.0,60.0,0.0,57.0,-979.0,333.0
19.0,-255.0,61.0,-12.0,60.0,-1.0,53.0,-979.0,332.0
18.0,-254.0,60.0,-12.0,60.0,-1.0,55.0,-979.0,335.0
20.0,-258.0,63.0,-13.0,60.0,-1.0,58.0,-978.0,338.0
14.0,-256.0,57.0,-14.0,60.0,-1.0,57.0,-977.0,337.0
19.0,-260.0,61.0,-13.0,58.0,-3.0,58.0,-977.0,334.0
16.0,-255.0,62.0,-14.0,59.0,-1.0,54.0,-981.0,333.0
18.0,-256.0,60.0,-13.0,59.0,-2.0,53.0,-980.0,333.0
19.0,-258.0,62.0,-15.0,60.0,-2.0,55.0,-974.0,335.0
17.0,-257.0,62.0,-16.0,59.0,-3.0,51.0,-975.0,335.0
18.0,-259.0,59.0,-15.0,61.0,-3.0,61.0,-981.0,332.0
17.0,-256.0,61.0,-15.0,60.0,-3.0,57.0,-980.0,336.0
18.0,-254.0,57.0,-13.0,59.0,-1.0,62.0,-976.0,330.0
19.0,-257.0,62.0,-14.0,60.0,-2.0,55.0,-974.0,337.0
20.0,-259.0,62.0,-15.0,59.0,0.0,58.0,-977.0,329.0
18.0,-255.0,59.0,-15.0,59.0,-1.0,57.0,-978.0,338.0
16.0,-257.0,61.0,-14.0,59.0,0.0,56.0,-975.0,335.0
17.0,-256.0,60.0,-15.0,57.0,-2.0,57.0,-982.0,333.0
19.0,-256.0,58.0,-14.0,57.0,-1.0,59.0,-974.0,336.0
19.0,-257.0,63.0,-15.0,57.0,-1.0,60.0,-977.0,340.0
17.0,-256.0,61.0,-16.0,59.0,0.0,56.0,-982.0,330.0
16.0,-257.0,60.0,-17.0,57.0,-3.0,57.0,-980.0,332.0
17.0,-256.0,61.0,-18.0,59.0,-2.0,59.0,-980.0,337.0
17.0,-255.0,61.0,-18.0,60.0,-2.0,59.0,-974.0,335.0
18.0,-258.0,59.0,-18.0,59.0,0.0,57.0,-978.0,336.0
16.0,-258.0,60.0,-17.0,60.0,-3.0,56.0,-979.0,334.0
17.0,-256.0,60.0,-18.0,60.0,-2.0,58.0,-974.0,334.0
18.0,-255.0,59.0,-16.0,60.0,-3.0,51.0,-980.0,338.0
18.0,-258.0,61.0,-15.0,57.0,-2.0,59.0,-973.0,337.0
18.0,-257.0,57.0,-14.0,55.0,-3.0,58.0,-976.0,336.0
18.0,-255.0,63.0,-12.0,57.0,0.0,57.0,-978.0,335.0
18.0,-256.0,59.0,-11.0,56.0,-1.0,60.0,-980.0,331.0
18.0,-256.0,60.0,-10.0,56.0,1.0,61.0,-980.0,337.0
16.0,-258.0,58.0,-11.0,57.0,-1.0,63.0,-980.0,335.0
18.0,-255.0,62.0,-12.0,59.0,-1.0,61.0,-979.0,339.0
16.0,-256.0,59.0,-13.0,59.0,-3.0,58.0,-980.0,334.0
15.0,-255.0,59.0,-15.0,59.0,-1.0,54.0,-976.0,337.0
20.0,-256.0,60.0,-17.0,60.0,-3.0,55.0,-978.0,334.0
19.0,-257.0,62.0,-17.0,59.0,-3.0,56.0,-980.0,338.0
16.0,-256.0,58.0,-20.0,60.0,-3.0,54.0,-978.0,338.0
15.0,-259.0,61.0,-22.0,61.0,-1.0,56.0,-975.0,334.0
19.0,-257.0,62.0,-21.0,62.0,-3.0,58.0,-980.0,338.0
16.0,-256.0,62.0,-20.0,63.0,-2.0,53.0,-980.0,332.0
20.0,-257.0,61.0,-19.0,62.0,-5.0,54.0,-979.0,338.0
16.0,-258.0,61.0,-17.0,63.0,-2.0,57.0,-977.0,327.0
17.0,-257.0,55.0,-15.0,62.0,-4.0,57.0,-986.0,322.0
14.0,-254.0,61.0,-12.0,62.0,-1.0,58.0,-982.0,323.0
18.0,-260.0,60.0,-8.0,61.0,-3.0,54.0,-986.0,326.0
18.0,-256.0,58.0,-8.0,60.0,-1.0,59.0,-982.0,326.0
16.0,-259.0,60.0,-6.0,59.0,-2.0,59.0,-984.0,331.0
17.0,-257.0,56.0,-4.0,59.0,-1.0,60.0,-979.0,332.0
16.0,-257.0,58.0,-1.0,60.0,-1.0,56.0,-977.0,335.0
18.0,-256.0,61.0,0.0,59.0,0.0,53.0,-974.0,330.0
19.0,-255.0,60.0,2.0,57.0,-2.0,59.0,-976.0,336.0
18.0,-257.0,62.0,0.0,59.0,-1.0,55.0,-972.0,338.0
18.0,-256.0,60.0,-5.0,60.0,-4.0,58.0,-976.0,334.0
15.0,-254.0,60.0,-6.0,60.0,-1.0,57.0,-973.0,333.0
16.0,-257.0,62.0,-8.0,59.0,-4.0,59.0,-973.0,337.0
19.0,-257.0,61.0,-8.0,60.0,-2.0,58.0,-975.0,335.0
20.0,-258.0,61.0,-8.0,60.0,-5.0,57.0,-980.0,331.0
17.0,-255.0,62.0,-9.0,60.0,-2.0,56.0,-977.0,334.0
18.0,-256.0,60.0,-9.0,60.0,-5.0,56.0,-978.0,336.0
17.0,-255.0,59.0,-7.0,59.0,-3.0,57.0,-977.0,338.0
17.0,-254.0,62.0,-8.0,58.0,-4.0,58.0,-981.0,332.0
19.0,-256.0,56.0,-8.0,57.0,-2.0,61.0,-977.0,333.0
20.0,-261.0,62.0,-11.0,57.0,-4.0,53.0,-978.0,335.0
18.0,-256.0,59.0,-10.0,58.0,-1.0,56.0,-978.0,334.0
19.0,-257.0,63.0,-8.0,59.0,-2.0,59.0,-977.0,334.0
20.0,-256.0,59.0,-10.0,59.0,1.0,56.0,-981.0,333.0
15.0,-258.0,60.0,-10.0,58.0,-2.0,56.0,-977.0,337.0
22.0,-256.0,63.0,-10.0,58.0,0.0,57.0,-978.0,334.0
20.0,-256.0,60.0,-11.0,59.0,-3.0,52.0,-977.0,335.0
19.0,-255.0,64.0,-10.0,60.0,-1.0,52.0,-980.0,333.0
17.0,-257.0,60.0,-12.0,60.0,-3.0,62.0,-976.0,338.0
16.0,-253.0,61.0,-14.0,59.0,-2.0,55.0,-975.0,338.0
20.0,-259.0,58.0,-13.0,60.0,-4.0,57.0,-971.0,336.0
18.0,-255.0,62.0,-12.0,60.0,-1.0,56.0,-977.0,336.0
18.0,-255.0,61.0,-11.0,59.0,-4.0,58.0,-980.0,337.0
18.0,-257.0,60.0,-12.0,60.0,-1.0,58.0,-974.0,338.0
18.0,-256.0,59.0,-12.0,60.0,-3.0,58.0,-978.0,339.0
16.0,-255.0,63.0,-13.0,60.0,-1.0,58.0,-981.0,334.0
18.0,-254.0,55.0,-12.0,58.0,-2.0,54.0,-981.0,335.0
17.0,-256.0,58.0,-13.0,58.0,1.0,56.0,-978.0,337.0
18.0,-256.0,57.0,-12.0,58.0,-3.0,57.0,-978.0,335.0
17.0,-258.0,60.0,-11.0,59.0,0.0,57.0,-978.0,339.0
16.0,-256.0,59.0,-10.0,58.0,-3.0,55.0,-976.0,336.0
17.0,-257.0,60.0,-9.0,58.0,-1.0,60.0,-980.0,337.0
17.0,-255.0,61.0,-10.0,59.0,-4.0,51.0,-979.0,335.0
17.0,-254.0,61.0,-11.0,59.0,-1.0,56.0,-975.0,338.0
18.0,-256.0,61.0,-12.0,58.0,-3.0,57.0,-977.0,333.0
15.0,-255.0,58.0,-14.0,59.0,-1.0,59.0,-974.0,335.0
19.0,-256.0,57.0,-13.0,57.0,-3.0,58.0,-975.0,337.0
20.0,-256.0,63.0,-14.0,60.0,-2.0,57.0,-975.0,336.0
18.0,-258.0,61.0,-17.0,61.0,-3.0,59.0,-976.0,336.0
17.0,-258.0,56.0,-15.0,62.0,-1.0,57.0,-974.0,335.0
17.0,-255.0,60.0,-13.0,59.0,-3.0,59.0,-972.0,338.0
19.0,-257.0,61.0,-14.0,60.0,-1.0,57.0,-977.0,336.0
21.0,-259.0,60.0,-14.0,61.0,-3.0,62.0,-984.0,333.0
19.0,-256.0,63.0,-14.0,60.0,-1.0,61.0,-979.0,333.0
20.0,-257.0,61.0,-12.0,61.0,-3.0,59.0,-979.0,332.0
21.0,-258.0,60.0,-12.0,62.0,0.0,60.0,-974.0,334.0
17.0,-256.0,61.0,-13.0,62.0,-3.0,59.0,-985.0,335.0
20.0,-255.0,63.0,-12.0,62.0,0.0,56.0,-981.0,333.0
17.0,-258.0,62.0,-11.0,61.0,-2.0,59.0,-975.0,336.0
17.0,-255.0,62.0,-11.0,61.0,0.0,53.0,-973.0,337.0
18.0,-254.0,60.0,-12.0,60.0,-2.0,57.0,-976.0,337.0
18.0,-255.0,61.0,-11.0,59.0,-2.0,56.0,-971.0,335.0
18.0,-256.0,63.0,-11.0,60.0,-4.0,59.0,-973.0,332.0
19.0,-257.0,61.0,-11.0,60.0,-2.0,58.0,-976.0,332.0
16.0,-258.0,61.0,-10.0,59.0,-4.0,59.0,-976.0,333.0
16.0,-259.0,57.0,-10.0,59.0,-2.0,56.0,-976.0,339.0
18.0,-255.0,62.0,-11.0,60.0,-4.0,56.0,-977.0,337.0
17.0,-256.0,60.0,-11.0,59.0,-1.0,56.0,-977.0,342.0
17.0,-255.0,59.0,-12.0,59.0,-3.0,56.0,-981.0,335.0
19.0,-256.0,63.0,-11.0,59.0,-2.0,60.0,-975.0,341.0
21.0,-257.0,62.0,-11.0,58.0,-3.0,55.0,-980.0,335.0
18.0,-258.0,60.0,-13.0,59.0,-1.0,57.0,-978.0,337.0
17.0,-257.0,61.0,-12.0,59.0,-4.0,55.0,-977.0,336.0
20.0,-255.0,61.0,-13.0,58.0,-1.0,59.0,-980.0,332.0
19.0,-256.0,61.0,-13.0,59.0,-3.0,57.0,-978.0,335.0
18.0,-257.0,61.0,-12.0,61.0,-1.0,61.0,-978.0,331.0
18.0,-260.0,61.0,-12.0,61.0,-4.0,58.0,-979.0,335.0
18.0,-254.0,63.0,-12.0,62.0,-1.0,57.0,-980.0,337.0
19.0,-258.0,63.0,-12.0,61.0,-4.0,59.0,-978.0,337.0
18.0,-259.0,61.0,-12.0,60.0,-1.0,59.0,-981.0,335.0
19.0,-255.0,61.0,-11.0,61.0,-4.0,59.0,-975.0,336.0
19.0,-254.0,62.0,-10.0,61.0,-2.0,57.0,-980.0,336.0
17.0,-255.0,62.0,-10.0,61.0,-5.0,57.0,-978.0,335.0
20.0,-255.0,59.0,-10.0,62.0,-2.0,55.0,-975.0,337.0
17.0,-258.0,58.0,-11.0,62.0,-4.0,54.0,-975.0,335.0
17.0,-259.0,59.0,-11.0,61.0,0.0,57.0,-977.0,338.0
18.0,-258.0,59.0,-10.0,62.0,-2.0,55.0,-975.0,338.0
17.0,-256.0,61.0,-11.0,61.0,-1.0,62.0,-975.0,337.0
17.0,-255.0,61.0,-11.0,61.0,-3.0,57.0,-974.0,337.0
19.0,-254.0,64.0,-11.0,60.0,-1.0,54.0,-976.0,337.0
17.0,-258.0,61.0,-11.0,60.0,-2.0,56.0,-978.0,337.0
18.0,-258.0,62.0,-10.0,60.0,-1.0,56.0,-977.0,339.0
17.0,-253.0,61.0,-10.0,59.0,-2.0,56.0,-976.0,335.0
18.0,-255.0,62.0,-10.0,58.0,0.0,55.0,-979.0,335.0
16.0,-256.0,59.0,-9.0,58.0,-2.0,57.0,-978.0,331.0
16.0,-256.0,60.0,-9.0,58.0,-1.0,54.0,-985.0,338.0
21.0,-257.0,61.0,-8.0,58.0,-3.0,60.0,-974.0,338.0
21.0,-256.0,59.0,-7.0,58.0,-1.0,55.0,-975.0,337.0
18.0,-257.0,59.0,-7.0,60.0,-3.0,57.0,-973.0,333.0
17.0,-256.0,60.0,-9.0,61.0,0.0,55.0,-974.0,339.0
16.0,-254.0,62.0,-9.0,62.0,-2.0,57.0,-979.0,338.0
19.0,-254.0,62.0,-9.0,61.0,-1.0,57.0,-971.0,335.0
17.0,-256.0,62.0,-8.0,60.0,-2.0,59.0,-978.0,339.0
18.0,-255.0,62.0,-10.0,59.0,-2.0,60.0,-971.0,341.0
20.0,-254.0,55.0,-10.0,60.0,-2.0,57.0,-975.0,331.0
18.0,-258.0,61.0,-11.0,58.0,0.0,54.0,-975.0,339.0
32.0,-250.0,69.0,-11.0,59.0,-2.0,56.0,-978.0,340.0
16.0,-256.0,62.0,-11.0,57.0,1.0,60.0,-979.0,340.0
20.0,-255.0,60.0,-13.0,58.0,-2.0,52.0,-978.0,339.0
19.0,-257.0,63.0,-13.0,60.0,0.0,55.0,-977.0,336.0
18.0,-260.0,61.0,-11.0,59.0,-3.0,56.0,-979.0,338.0
18.0,-258.0,61.0,-11.0,60.0,-2.0,62.0,-980.0,339.0
16.0,-254.0,63.0,-11.0,60.0,-3.0,57.0,-972.0,335.0
17.0,-257.0,60.0,-13.0,60.0,-3.0,55.0,-976.0,337.0
18.0,-256.0,61.0,-11.0,60.0,-4.0,56.0,-974.0,337.0
20.0,-255.0,61.0,-13.0,58.0,-3.0,53.0,-974.0,335.0
15.0,-255.0,60.0,-13.0,58.0,-3.0,57.0,-978.0,341.0
16.0,-255.0,61.0,-14.0,58.0,0.0,54.0,-983.0,334.0
17.0,-255.0,59.0,-11.0,59.0,-2.0,56.0,-979.0,338.0
20.0,-258.0,61.0,-12.0,59.0,-1.0,61.0,-975.0,334.0
19.0,-256.0,59.0,-12.0,59.0,-2.0,58.0,-972.0,337.0
19.0,-257.0,58.0,-13.0,61.0,-1.0,58.0,-977.0,333.0
18.0,-256.0,61.0,-14.0,60.0,-3.0,57.0,-979.0,338.0
17.0,-255.0,60.0,-14.0,58.0,-2.0,59.0,-978.0,342.0
16.0,-254.0,61.0,-14.0,61.0,-3.0,60.0,-977.0,337.0
18.0,-255.0,60.0,-15.0,58.0,-2.0,54.0,-975.0,336.0
16.0,-256.0,62.0,-15.0,58.0,-4.0,54.0,-977.0,339.0
20.0,-257.0,62.0,-14.0,59.0,-2.0,53.0,-974.0,338.0
18.0,-255.0,61.0,-14.0,58.0,-4.0,54.0,-977.0,333.0
19.0,-258.0,63.0,-14.0,59.0,-2.0,56.0,-974.0,340.0
19.0,-256.0,60.0,-13.0,59.0,-3.0,55.0,-973.0,336.0
17.0,-254.0,63.0,-12.0,59.0,-2.0,56.0,-974.0,335.0
18.0,-256.0,60.0,-10.0,60.0,-3.0,61.0,-975.0,336.0
20.0,-257.0,63.0,-11.0,60.0,-1.0,59.0,-980.0,336.0
17.0,-256.0,61.0,-10.0,61.0,-2.0,55.0,-980.0,338.0
16.0,-256.0,63.0,-11.0,61.0,-2.0,56.0,-980.0,334.0
17.0,-256.0,61.0,-12.0,61.0,-3.0,56.0,-974.0,336.0
23.0,-258.0,60.0,-15.0,61.0,-3.0,55.0,-972.0,336.0
19.0,-258.0,60.0,-17.0,61.0,-4.0,59.0,-976.0,331.0
17.0,-256.0,62.0,-18.0,63.0,-3.0,56.0,-974.0,338.0
18.0,-258.0,63.0,-19.0,63.0,-3.0,58.0,-973.0,343.0
20.0,-257.0,63.0,-19.0,62.0,-2.0,58.0,-976.0,340.0
17.0,-256.0,60.0,-20.0,63.0,-4.0,52.0,-976.0,338.0
20.0,-256.0,63.0,-20.0,63.0,-3.0,53.0,-976.0,337.0
21.0,-258.0,61.0,-18.0,61.0,-5.0,58.0,-978.0,338.0
18.0,-257.0,56.0,-16.0,62.0,-3.0,58.0,-980.0,328.0
19.0,-258.0,61.0,-16.0,62.0,-3.0,58.0,-982.0,327.0
19.0,-258.0,61.0,-13.0,62.0,-2.0,55.0,-980.0,324.0
19.0,-257.0,57.0,-12.0,60.0,-4.0,55.0,-979.0,333.0
19.0,-261.0,59.0,-11.0,60.0,-3.0,60.0,-982.0,330.0
18.0,-258.0,58.0,-8.0,61.0,-4.0,56.0,-979.0,334.0
18.0,-258.0,60.0,-7.0,62.0,-3.0,57.0,-979.0,333.0
18.0,-259.0,62.0,-2.0,61.0,-3.0,60.0,-974.0,335.0
17.0,-253.0,61.0,-1.0,61.0,-2.0,54.0,-977.0,338.0
19.0,-258.0,61.0,-2.0,61.0,-2.0,56.0,-968.0,341.0
19.0,-256.0,63.0,-2.0,61.0,-3.0,63.0,-973.0,334.0
20.0,-254.0,59.0,-4.0,62.0,-3.0,57.0,-969.0,338.0
19.0,-257.0,63.0,-7.0,62.0,-3.0,60.0,-970.0,336.0
18.0,-257.0,59.0,-10.0,62.0,-4.0,57.0,-975.0,335.0
17.0,-256.0,62.0,-11.0,62.0,-5.0,56.0,-976.0,336.0
18.0,-255.0,59.0,-10.0,61.0,-3.0,59.0,-975.0,334.0
19.0,-256.0,61.0,-9.0,60.0,-2.0,55.0,-975.0,339.0
19.0,-257.0,62.0,-8.0,60.0,-1.0,58.0,-979.0,337.0
18.0,-254.0,58.0,-8.0,58.0,-1.0,57.0,-975.0,335.0
19.0,-258.0,60.0,-10.0,58.0,-1.0,57.0,-978.0,337.0
20.0,-257.0,60.0,-10.0,58.0,-1.0,58.0,-973.0,333.0
17.0,-257.0,60.0,-10.0,59.0,-1.0,60.0,-979.0,334.0
19.0,-254.0,60.0,-11.0,58.0,-2.0,57.0,-975.0,337.0
19.0,-256.0,62.0,-12.0,57.0,-3.0,61.0,-976.0,336.0
17.0,-258.0,61.0,-12.0,59.0,-2.0,59.0,-975.0,335.0
18.0,-255.0,62.0,-12.0,60.0,-2.0,57.0,-973.0,339.0
17.0,-256.0,60.0,-12.0,60.0,-3.0,56.0,-976.0,339.0
16.0,-253.0,63.0,-12.0,59.0,-3.0,54.0,-973.0,337.0
16.0,-257.0,61.0,-13.0,60.0,-3.0,52.0,-980.0,339.0
21.0,-257.0,61.0,-14.0,58.0,-3.0,52.0,-980.0,338.0
16.0,-257.0,61.0,-13.0,61.0,-3.0,53.0,-976.0,340.0
18.0,-255.0,62.0,-13.0,60.0,-3.0,57.0,-977.0,337.0
16.0,-258.0,62.0,-14.0,61.0,-4.0,53.0,-981.0,334.0
17.0,-255.0,62.0,-15.0,61.0,-4.0,54.0,-976.0,337.0
18.0,-255.0,65.0,-15.0,59.0,-3.0,56.0,-976.0,339.0
18.0,-258.0,61.0,-16.0,59.0,-2.0,64.0,-976.0,339.0
18.0,-258.0,60.0,-15.0,59.0,-3.0,62.0,-977.0,336.0
17.0,-253.0,62.0,-14.0,59.0,-1.0,53.0,-973.0,342.0
18.0,-255.0,60.0,-14.0,61.0,-2.0,56.0,-975.0,339.0
17.0,-256.0,63.0,-14.0,61.0,-2.0,54.0,-972.0,339.0
18.0,-255.0,58.0,-15.0,59.0,-1.0,57.0,-975.0,332.0
17.0,-254.0,62.0,-16.0,61.0,-2.0,57.0,-973.0,337.0
20.0,-257.0,61.0,-18.0,61.0,-2.0,60.0,-974.0,338.0
16.0,-258.0,60.0,-17.0,61.0,-3.0,56.0,-974.0,339.0
21.0,-256.0,57.0,-17.0,62.0,-5.0,55.0,-977.0,342.0
18.0,-257.0,63.0,-16.0,61.0,-3.0,56.0,-974.0,341.0
17.0,-257.0,61.0,-19.0,62.0,-4.0,55.0,-974.0,340.0
17.0,-257.0,60.0,-19.0,61.0,-3.0,54.0,-975.0,338.0
18.0,-259.0,65.0,-21.0,62.0,-4.0,55.0,-976.0,339.0
19.0,-257.0,60.0,-22.0,62.0,-3.0,54.0,-978.0,334.0
17.0,-256.0,59.0,-21.0,62.0,-4.0,54.0,-973.0,339.0
20.0,-255.0,60.0,-21.0,61.0,-2.0,57.0,-981.0,335.0
20.0,-258.0,60.0,-21.0,62.0,-2.0,61.0,-976.0,336.0
18.0,-259.0,62.0,-21.0,63.0,-3.0,55.0,-977.0,334.0
18.0,-254.0,61.0,-22.0,64.0,-3.0,56.0,-981.0,337.0
17.0,-255.0,57.0,-19.0,60.0,-1.0,58.0,-975.0,336.0
15.0,-256.0,59.0,-17.0,61.0,-4.0,58.0,-975.0,330.0
18.0,-260.0,58.0,-15.0,62.0,-3.0,58.0,-973.0,337.0
18.0,-257.0,59.0,-16.0,61.0,-3.0,57.0,-977.0,337.0
19.0,-256.0,59.0,-17.0,61.0,-2.0,56.0,-976.0,330.0
16.0,-256.0,57.0,-16.0,62.0,-3.0,55.0,-975.0,339.0
19.0,-256.0,62.0,-14.0,62.0,-4.0,57.0,-972.0,340.0
16.0,-258.0,61.0,-14.0,62.0,-4.0,57.0,-978.0,337.0
18.0,-258.0,58.0,-14.0,62.0,-3.0,58.0,-976.0,335.0
18.0,-256.0,64.0,-16.0,61.0,-3.0,56.0,-975.0,339.0
19.0,-254.0,60.0,-18.0,60.0,-2.0,55.0,-977.0,338.0
17.0,-256.0,61.0,-18.0,61.0,-5.0,57.0,-978.0,339.0
18.0,-256.0,61.0,-18.0,60.0,-2.0,61.0,-980.0,336.0
18.0,-258.0,63.0,-17.0,59.0,-4.0,57.0,-982.0,337.0
18.0,-256.0,59.0,-17.0,60.0,-1.0,57.0,-975.0,337.0
17.0,-258.0,61.0,-17.0,59.0,-3.0,57.0,-978.0,338.0
19.0,-257.0,62.0,-17.0,58.0,-1.0,54.0,-980.0,335.0
17.0,-257.0,62.0,-17.0,57.0,-3.0,57.0,-979.0,334.0
17.0,-257.0,58.0,-15.0,59.0,-2.0,53.0,-977.0,335.0
15.0,-253.0,59.0,-16.0,58.0,-4.0,57.0,-981.0,329.0
20.0,-256.0,63.0,-14.0,59.0,-2.0,55.0,-979.0,327.0
19.0,-257.0,58.0,-14.0,58.0,-5.0,63.0,-977.0,331.0
17.0,-259.0,61.0,-13.0,60.0,-2.0,57.0,-977.0,328.0
19.0,-255.0,58.0,-12.0,62.0,-3.0,53.0,-978.0,326.0
19.0,-259.0,58.0,-11.0,62.0,-2.0,55.0,-982.0,330.0
19.0,-259.0,61.0,-10.0,61.0,-3.0,60.0,-988.0,332.0
21.0,-261.0,58.0,-6.0,62.0,-2.0,60.0,-981.0,332.0
17.0,-259.0,61.0,-2.0,62.0,-4.0,55.0,-981.0,328.0
19.0,-259.0,58.0,3.0,63.0,-3.0,53.0,-984.0,328.0
21.0,-258.0,58.0,6.0,64.0,-4.0,56.0,-985.0,330.0
18.0,-257.0,63.0,8.0,66.0,-3.0,59.0,-979.0,335.0
20.0,-257.0,60.0,11.0,69.0,-7.0,61.0,-979.0,336.0
19.0,-256.0,59.0,12.0,69.0,-3.0,57.0,-976.0,335.0
16.0,-253.0,58.0,14.0,69.0,-5.0,59.0,-977.0,334.0
17.0,-255.0,62.0,13.0,69.0,-3.0,56.0,-974.0,337.0
18.0,-255.0,62.0,12.0,68.0,-4.0,53.0,-977.0,338.0
17.0,-255.0,64.0,10.0,66.0,-2.0,55.0,-970.0,342.0
18.0,-254.0,65.0,6.0,63.0,-4.0,56.0,-972.0,343.0
16.0,-254.0,64.0,2.0,58.0,-2.0,56.0,-969.0,346.0
19.0,-255.0,62.0,-2.0,56.0,-4.0,56.0,-971.0,345.0
16.0,-250.0,63.0,-6.0,56.0,0.0,56.0,-971.0,346.0
16.0,-255.0,67.0,-10.0,57.0,-3.0,54.0,-967.0,348.0
20.0,-252.0,65.0,-12.0,57.0,-1.0,54.0,-967.0,348.0
16.0,-255.0,62.0,-16.0,58.0,-3.0,52.0,-970.0,347.0
19.0,-256.0,64.0,-18.0,57.0,-3.0,56.0,-968.0,346.0
18.0,-251.0,60.0,-21.0,57.0,-5.0,57.0,-973.0,344.0
20.0,-255.0,62.0,-24.0,58.0,-2.0,59.0,-973.0,348.0
16.0,-254.0,62.0,-27.0,59.0,-5.0,56.0,-974.0,345.0
17.0,-254.0,63.0,-27.0,58.0,-3.0,56.0,-976.0,342.0
16.0,-253.0,63.0,-29.0,59.0,-5.0,60.0,-967.0,344.0
17.0,-256.0,64.0,-32.0,60.0,-4.0,57.0,-971.0,341.0
18.0,-254.0,61.0,-33.0,61.0,-7.0,55.0,-975.0,340.0
15.0,-254.0,63.0,-35.0,60.0,-4.0,58.0,-972.0,340.0
15.0,-255.0,57.0,-35.0,61.0,-7.0,56.0,-972.0,341.0
18.0,-257.0,61.0,-35.0,60.0,-4.0,56.0,-975.0,340.0
18.0,-254.0,58.0,-38.0,59.0,-5.0,58.0,-975.0,337.0
18.0,-254.0,60.0,-38.0,58.0,-3.0,57.0,-973.0,336.0
16.0,-256.0,62.0,-39.0,58.0,-5.0,57.0,-973.0,335.0
20.0,-255.0,59.0,-39.0,58.0,-4.0,59.0,-979.0,333.0
19.0,-254.0,61.0,-38.0,58.0,-5.0,57.0,-979.0,335.0
19.0,-256.0,63.0,-38.0,59.0,-3.0,54.0,-974.0,335.0
19.0,-253.0,58.0,-37.0,59.0,-6.0,63.0,-975.0,333.0
22.0,-260.0,59.0,-37.0,58.0,-3.0,55.0,-978.0,331.0
18.0,-255.0,58.0,-35.0,59.0,-6.0,57.0,-981.0,334.0
19.0,-258.0,63.0,-35.0,58.0,-3.0,58.0,-977.0,329.0
19.0,-257.0,63.0,-32.0,58.0,-5.0,59.0,-974.0,335.0
17.0,-257.0,62.0,-31.0,57.0,-3.0,57.0,-979.0,334.0
16.0,-259.0,60.0,-29.0,59.0,-4.0,58.0,-981.0,338.0
17.0,-256.0,59.0,-28.0,57.0,0.0,60.0,-979.0,330.0
18.0,-259.0,61.0,-28.0,58.0,-5.0,60.0,-986.0,334.0
20.0,-256.0,59.0,-28.0,56.0,-1.0,55.0,-977.0,333.0
18.0,-257.0,60.0,-26.0,57.0,-4.0,60.0,-981.0,332.0
17.0,-256.0,57.0,-24.0,57.0,0.0,57.0,-976.0,330.0
17.0,-257.0,57.0,-24.0,58.0,-5.0,55.0,-978.0,332.0
21.0,-258.0,56.0,-22.0,58.0,-2.0,59.0,-981.0,326.0
22.0,-258.0,58.0,-21.0,58.0,-5.0,59.0,-981.0,326.0
20.0,-256.0,60.0,-20.0,58.0,-3.0,58.0,-979.0,330.0
19.0,-258.0,58.0,-16.0,58.0,-3.0,60.0,-984.0,330.0
19.0,-257.0,61.0,-11.0,58.0,-2.0,60.0,-992.0,331.0
20.0,-261.0,59.0,-4.0,58.0,-4.0,58.0,-985.0,327.0
17.0,-259.0,56.0,0.0,59.0,-2.0,56.0,-985.0,332.0
18.0,-259.0,59.0,4.0,59.0,-4.0,54.0,-980.0,335.0
17.0,-258.0,58.0,5.0,62.0,-1.0,61.0,-981.0,332.0
17.0,-255.0,62.0,6.0,63.0,-4.0,59.0,-974.0,332.0
18.0,-256.0,61.0,4.0,63.0,-2.0,62.0,-979.0,334.0
19.0,-256.0,60.0,2.0,62.0,-4.0,55.0,-975.0,335.0
18.0,-256.0,62.0,0.0,62.0,-2.0,59.0,-973.0,335.0
18.0,-255.0,62.0,-3.0,62.0,-2.0,58.0,-973.0,341.0
18.0,-257.0,63.0,-7.0,62.0,-2.0,55.0,-974.0,336.0
16.0,-255.0,62.0,-8.0,59.0,-4.0,60.0,-977.0,342.0
15.0,-256.0,62.0,-11.0,58.0,-2.0,56.0,-971.0,340.0
17.0,-254.0,61.0,-11.0,56.0,-4.0,53.0,-979.0,340.0
17.0,-258.0,65.0,-11.0,58.0,-3.0,57.0,-979.0,341.0
19.0,-256.0,61.0,-8.0,57.0,-5.0,57.0,-978.0,337.0
18.0,-255.0,61.0,-7.0,58.0,-2.0,54.0,-980.0,337.0
15.0,-259.0,58.0,-7.0,60.0,-4.0,59.0,-977.0,336.0
17.0,-256.0,63.0,-6.0,60.0,-3.0,54.0,-980.0,338.0
20.0,-259.0,60.0,-7.0,60.0,-4.0,56.0,-980.0,339.0
16.0,-255.0,60.0,-6.0,61.0,-2.0,59.0,-978.0,338.0
17.0,-258.0,63.0,-6.0,62.0,-4.0,54.0,-976.0,339.0
20.0,-254.0,65.0,-7.0,61.0,-3.0,56.0,-970.0,340.0
18.0,-251.0,63.0,-8.0,60.0,-5.0,61.0,-969.0,343.0
20.0,-253.0,57.0,-11.0,60.0,-3.0,62.0,-971.0,343.0
19.0,-256.0,62.0,-13.0,61.0,-4.0,55.0,-968.0,341.0
20.0,-256.0,58.0,-17.0,60.0,-3.0,54.0,-971.0,338.0
18.0,-256.0,64.0,-21.0,61.0,-6.0,60.0,-971.0,341.0
20.0,-256.0,62.0,-24.0,60.0,-3.0,57.0,-974.0,339.0
19.0,-259.0,61.0,-25.0,60.0,-5.0,57.0,-971.0,338.0
18.0,-255.0,62.0,-25.0,59.0,-3.0,61.0,-973.0,341.0
16.0,-255.0,61.0,-24.0,59.0,-5.0,60.0,-973.0,339.0
17.0,-255.0,62.0,-25.0,58.0,-4.0,58.0,-978.0,334.0
21.0,-256.0,55.0,-26.0,55.0,-5.0,55.0,-975.0,334.0
17.0,-256.0,57.0,-28.0,55.0,-1.0,57.0,-976.0,334.0
18.0,-256.0,63.0,-26.0,56.0,-4.0,62.0,-981.0,336.0
18.0,-258.0,59.0,-28.0,55.0,-2.0,61.0,-978.0,336.0
17.0,-256.0,57.0,-28.0,56.0,-4.0,57.0,-971.0,334.0
18.0,-256.0,59.0,-29.0,57.0,0.0,58.0,-974.0,334.0
19.0,-258.0,61.0,-28.0,55.0,-3.0,53.0,-989.0,332.0
20.0,-258.0,60.0,-27.0,55.0,-1.0,63.0,-975.0,331.0
19.0,-258.0,60.0,-26.0,56.0,-2.0,58.0,-982.0,328.0
19.0,-256.0,61.0,-25.0,55.0,0.0,59.0,-977.0,335.0
19.0,-257.0,58.0,-25.0,57.0,-3.0,60.0,-979.0,329.0
19.0,-257.0,58.0,-25.0,58.0,-1.0,51.0,-981.0,330.0
18.0,-257.0,63.0,-24.0,58.0,-4.0,58.0,-980.0,336.0
19.0,-259.0,61.0,-22.0,57.0,-1.0,61.0,-975.0,337.0
19.0,-257.0,63.0,-21.0,58.0,-4.0,56.0,-978.0,338.0
21.0,-256.0,58.0,-19.0,59.0,-3.0,57.0,-978.0,336.0
19.0,-255.0,63.0,-18.0,59.0,-5.0,61.0,-974.0,336.0
17.0,-257.0,59.0,-19.0,60.0,-3.0,64.0,-978.0,339.0
15.0,-256.0,63.0,-19.0,61.0,-5.0,58.0,-977.0,337.0
21.0,-257.0,58.0,-20.0,61.0,-2.0,59.0,-974.0,335.0
16.0,-257.0,61.0,-20.0,58.0,-2.0,58.0,-973.0,335.0
18.0,-258.0,61.0,-21.0,57.0,-1.0,58.0,-979.0,333.0
18.0,-257.0,61.0,-20.0,57.0,-3.0,58.0,-979.0,338.0
20.0,-258.0,58.0,-21.0,57.0,1.0,57.0,-974.0,334.0
18.0,-256.0,62.0,-22.0,57.0,-1.0,56.0,-975.0,338.0
18.0,-257.0,58.0,-23.0,57.0,-1.0,57.0,-974.0,335.0
16.0,-255.0,65.0,-25.0,58.0,-2.0,60.0,-978.0,337.0
19.0,-256.0,60.0,-26.0,57.0,-2.0,58.0,-973.0,334.0
19.0,-255.0,61.0,-27.0,57.0,-2.0,60.0,-972.0,336.0
22.0,-258.0,58.0,-30.0,58.0,0.0,59.0,-974.0,339.0
20.0,-256.0,61.0,-30.0,58.0,-3.0,56.0,-976.0,336.0
21.0,-259.0,60.0,-31.0,58.0,-1.0,61.0,-978.0,335.0
19.0,-257.0,61.0,-31.0,59.0,-3.0,56.0,-972.0,332.0
19.0,-258.0,59.0,-31.0,59.0,-1.0,56.0,-979.0,331.0
20.0,-258.0,61.0,-32.0,58.0,-4.0,55.0,-982.0,332.0
18.0,-261.0,57.0,-33.0,59.0,-1.0,57.0,-980.0,332.0
17.0,-260.0,60.0,-32.0,59.0,-3.0,57.0,-979.0,330.0
18.0,-259.0,62.0,-30.0,59.0,-3.0,56.0,-982.0,334.0
18.0,-256.0,58.0,-28.0,60.0,-2.0,54.0,-975.0,335.0
18.0,-261.0,59.0,-26.0,59.0,-3.0,56.0,-977.0,335.0
20.0,-260.0,58.0,-28.0,59.0,-5.0,55.0,-977.0,330.0
17.0,-259.0,57.0,-27.0,59.0,-3.0,61.0,-977.0,332.0
20.0,-257.0,59.0,-27.0,57.0,-4.0,54.0,-975.0,335.0
18.0,-254.0,57.0,-25.0,59.0,-3.0,61.0,-980.0,329.0
16.0,-257.0,59.0,-24.0,58.0,-5.0,58.0,-981.0,330.0
18.0,-256.0,60.0,-23.0,58.0,-2.0,60.0,-979.0,337.0
17.0,-257.0,57.0,-23.0,58.0,-3.0,58.0,-982.0,330.0
17.0,-259.0,60.0,-22.0,59.0,-3.0,56.0,-981.0,333.0
18.0,-255.0,57.0,-22.0,57.0,-3.0,58.0,-975.0,335.0
18.0,-255.0,58.0,-22.0,56.0,-2.0,61.0,-980.0,336.0
17.0,-256.0,61.0,-23.0,57.0,-4.0,55.0,-981.0,328.0
18.0,-259.0,57.0,-24.0,57.0,-2.0,56.0,-977.0,331.0
21.0,-260.0,60.0,-25.0,56.0,-4.0,56.0,-978.0,329.0
18.0,-256.0,63.0,-24.0,57.0,-2.0,57.0,-978.0,330.0
18.0,-257.0,57.0,-22.0,58.0,-4.0,62.0,-980.0,330.0
18.0,-258.0,61.0,-21.0,59.0,-3.0,53.0,-980.0,335.0
16.0,-257.0,58.0,-20.0,60.0,-3.0,55.0,-980.0,330.0
18.0,-256.0,56.0,-18.0,60.0,-3.0,58.0,-979.0,333.0
18.0,-255.0,61.0,-19.0,61.0,-4.0,58.0,-983.0,334.0
19.0,-258.0,58.0,-19.0,59.0,-3.0,58.0,-982.0,328.0
17.0,-259.0,59.0,-20.0,61.0,-4.0,59.0,-980.0,332.0
19.0,-257.0,59.0,-18.0,57.0,-3.0,60.0,-981.0,333.0
19.0,-261.0,58.0,-19.0,58.0,-5.0,60.0,-985.0,328.0
20.0,-254.0,57.0,-18.0,58.0,-4.0,64.0,-974.0,331.0
17.0,-259.0,61.0,-19.0,58.0,-4.0,54.0,-979.0,331.0
18.0,-254.0,61.0,-18.0,56.0,-3.0,62.0,-975.0,333.0
19.0,-255.0,60.0,-21.0,57.0,-4.0,59.0,-978.0,331.0
17.0,-257.0,58.0,-21.0,55.0,-5.0,61.0,-978.0,335.0
19.0,-257.0,57.0,-21.0,54.0,-5.0,61.0,-974.0,332.0
20.0,-256.0,60.0,-23.0,55.0,-3.0,57.0,-973.0,329.0
19.0,-257.0,59.0,-22.0,56.0,-3.0,62.0,-977.0,335.0
18.0,-258.0,61.0,-22.0,56.0,-2.0,62.0,-977.0,329.0
16.0,-254.0,61.0,-21.0,56.0,-3.0,59.0,-977.0,335.0
19.0,-255.0,57.0,-21.0,55.0,-3.0,58.0,-981.0,336.0
17.0,-255.0,58.0,-20.0,55.0,-4.0,62.0,-978.0,332.0
20.0,-258.0,58.0,-20.0,56.0,-4.0,56.0,-975.0,333.0
20.0,-257.0,62.0,-21.0,57.0,-2.0,59.0,-975.0,330.0
20.0,-256.0,58.0,-23.0,57.0,-3.0,55.0,-980.0,337.0
19.0,-256.0,61.0,-23.0,57.0,-4.0,61.0,-977.0,338.0
18.0,-254.0,58.0,-24.0,57.0,-4.0,61.0,-975.0,331.0
20.0,-256.0,61.0,-26.0,58.0,-2.0,57.0,-970.0,334.0
18.0,-256.0,60.0,-28.0,58.0,-4.0,62.0,-974.0,331.0
17.0,-254.0,61.0,-30.0,56.0,-3.0,58.0,-974.0,327.0
19.0,-258.0,60.0,-33.0,55.0,-1.0,59.0,-977.0,331.0
18.0,-255.0,60.0,-31.0,54.0,-1.0,63.0,-978.0,334.0
18.0,-257.0,60.0,-29.0,54.0,0.0,60.0,-973.0,335.0
18.0,-256.0,60.0,-30.0,54.0,-1.0,58.0,-979.0,335.0
18.0,-254.0,62.0,-31.0,54.0,0.0,57.0,-977.0,330.0
19.0,-253.0,57.0,-31.0,54.0,1.0,57.0,-975.0,330.0
16.0,-256.0,60.0,-33.0,56.0,1.0,58.0,-976.0,337.0
19.0,-256.0,60.0,-34.0,55.0,0.0,59.0,-976.0,330.0
18.0,-257.0,62.0,-35.0,55.0,0.0,54.0,-980.0,334.0
20.0,-256.0,60.0,-36.0,55.0,-1.0,60.0,-977.0,327.0
19.0,-254.0,59.0,-38.0,57.0,-1.0,56.0,-975.0,331.0
17.0,-255.0,58.0,-40.0,55.0,-1.0,57.0,-978.0,327.0
19.0,-256.0,58.0,-42.0,52.0,-4.0,60.0,-973.0,333.0
20.0,-255.0,58.0,-41.0,53.0,-1.0,56.0,-980.0,328.0
19.0,-255.0,60.0,-41.0,53.0,-2.0,63.0,-971.0,324.0
19.0,-256.0,58.0,-42.0,54.0,-3.0,56.0,-975.0,325.0
20.0,-257.0,57.0,-40.0,53.0,-2.0,55.0,-983.0,319.0
19.0,-259.0,52.0,-39.0,51.0,-2.0,57.0,-983.0,325.0
16.0,-258.0,56.0,-37.0,51.0,-2.0,54.0,-981.0,329.0
18.0,-259.0,57.0,-34.0,50.0,-3.0,56.0,-982.0,320.0
16.0,-257.0,58.0,-30.0,49.0,-3.0,53.0,-985.0,320.0
17.0,-257.0,56.0,-29.0,49.0,-2.0,57.0,-981.0,316.0
17.0,-258.0,54.0,-28.0,47.0,-4.0,57.0,-984.0,318.0
20.0,-259.0,52.0,-31.0,49.0,-3.0,57.0,-986.0,311.0
18.0,-261.0,55.0,-32.0,50.0,-2.0,56.0,-985.0,314.0
19.0,-261.0,56.0,-32.0,53.0,-1.0,56.0,-985.0,319.0
18.0,-258.0,54.0,-32.0,55.0,-1.0,57.0,-988.0,324.0
19.0,-259.0,54.0,-29.0,57.0,2.0,59.0,-986.0,320.0
18.0,-259.0,60.0,-24.0,59.0,1.0,58.0,-987.0,326.0
18.0,-263.0,60.0,-19.0,60.0,2.0,60.0,-988.0,320.0
20.0,-261.0,59.0,-14.0,59.0,1.0,64.0,-987.0,322.0
20.0,-260.0,58.0,-8.0,61.0,0.0,60.0,-992.0,320.0
23.0,-258.0,58.0,-3.0,63.0,-2.0,61.0,-986.0,319.0
19.0,-257.0,55.0,-1.0,64.0,-1.0,65.0,-988.0,322.0
19.0,-258.0,51.0,4.0,62.0,0.0,67.0,-987.0,320.0
17.0,-261.0,56.0,6.0,60.0,2.0,65.0,-990.0,321.0
20.0,-262.0,58.0,8.0,59.0,1.0,62.0,-994.0,321.0
19.0,-262.0,55.0,9.0,58.0,2.0,66.0,-1000.0,324.0
21.0,-262.0,58.0,12.0,59.0,2.0,64.0,-995.0,328.0
18.0,-263.0,64.0,17.0,61.0,3.0,66.0,-991.0,334.0
15.0,-257.0,58.0,24.0,60.0,2.0,53.0,-987.0,337.0
18.0,-256.0,59.0,34.0,61.0,2.0,58.0,-977.0,337.0
20.0,-256.0,61.0,37.0,62.0,0.0,54.0,-969.0,329.0
16.0,-253.0,60.0,38.0,65.0,3.0,55.0,-961.0,330.0
16.0,-253.0,57.0,31.0,65.0,3.0,53.0,-968.0,328.0
15.0,-249.0,64.0,21.0,65.0,5.0,53.0,-966.0,333.0
19.0,-253.0,62.0,10.0,67.0,5.0,44.0,-966.0,342.0
15.0,-254.0,64.0,2.0,64.0,4.0,46.0,-962.0,343.0
15.0,-252.0,65.0,-4.0,60.0,3.0,43.0,-965.0,355.0
15.0,-254.0,65.0,-8.0,58.0,3.0,43.0,-961.0,357.0
15.0,-248.0,66.0,-12.0,54.0,0.0,50.0,-961.0,356.0
17.0,-251.0,64.0,-14.0,51.0,-1.0,50.0,-961.0,355.0
19.0,-253.0,65.0,-18.0,49.0,-4.0,50.0,-957.0,354.0
17.0,-247.0,63.0,-21.0,47.0,-3.0,57.0,-955.0,349.0
17.0,-247.0,60.0,-29.0,47.0,-6.0,55.0,-958.0,336.0
20.0,-249.0,62.0,-43.0,48.0,-4.0,63.0,-954.0,335.0
18.0,-247.0,62.0,-59.0,48.0,-6.0,63.0,-958.0,334.0
20.0,-249.0,61.0,-73.0,47.0,-5.0,65.0,-963.0,338.0
19.0,-252.0,59.0,-83.0,48.0,-8.0,68.0,-962.0,338.0
19.0,-252.0,60.0,-91.0,48.0,-8.0,70.0,-961.0,335.0
20.0,-252.0,60.0,-97.0,47.0,-10.0,66.0,-965.0,334.0
20.0,-252.0,62.0,-100.0,47.0,-8.0,71.0,-962.0,336.0
24.0,-250.0,58.0,-101.0,48.0,-7.0,73.0,-963.0,334.0
20.0,-248.0,60.0,-104.0,50.0,-6.0,70.0,-950.0,336.0
18.0,-245.0,58.0,-107.0,49.0,-6.0,70.0,-948.0,339.0
23.0,-248.0,62.0,-115.0,50.0,-2.0,69.0,-942.0,344.0
20.0,-249.0,63.0,-128.0,51.0,-3.0,68.0,-955.0,343.0
19.0,-250.0,68.0,-141.0,52.0,1.0,66.0,-957.0,351.0
21.0,-251.0,63.0,-148.0,49.0,2.0,69.0,-957.0,350.0
21.0,-250.0,60.0,-153.0,47.0,5.0,67.0,-956.0,348.0
20.0,-251.0,62.0,-164.0,44.0,5.0,56.0,-964.0,343.0
16.0,-253.0,59.0,-176.0,41.0,9.0,57.0,-959.0,340.0
14.0,-256.0,59.0,-188.0,41.0,8.0,63.0,-963.0,339.0
18.0,-252.0,64.0,-201.0,40.0,10.0,60.0,-962.0,334.0
19.0,-252.0,58.0,-216.0,41.0,9.0,58.0,-963.0,331.0
16.0,-257.0,59.0,-229.0,40.0,11.0,60.0,-964.0,330.0
17.0,-254.0,58.0,-238.0,41.0,10.0,52.0,-968.0,332.0
16.0,-255.0,58.0,-245.0,42.0,15.0,53.0,-973.0,329.0
17.0,-258.0,60.0,-248.0,40.0,15.0,52.0,-977.0,327.0
15.0,-257.0,56.0,-247.0,36.0,17.0,47.0,-979.0,320.0
14.0,-254.0,57.0,-245.0,31.0,18.0,47.0,-979.0,317.0
16.0,-257.0,55.0,-243.0,29.0,22.0,50.0,-976.0,310.0
15.0,-254.0,53.0,-241.0,28.0,21.0,50.0,-979.0,308.0
15.0,-253.0,49.0,-243.0,26.0,25.0,44.0,-965.0,296.0
14.0,-252.0,53.0,-247.0,25.0,25.0,52.0,-969.0,294.0
15.0,-252.0,49.0,-255.0,25.0,26.0,44.0,-967.0,299.0
19.0,-252.0,50.0,-265.0,26.0,22.0,52.0,-963.0,301.0
15.0,-246.0,58.0,-276.0,30.0,24.0,57.0,-951.0,300.0
18.0,-247.0,51.0,-289.0,31.0,22.0,58.0,-946.0,296.0
19.0,-244.0,55.0,-305.0,36.0,26.0,57.0,-943.0,302.0
18.0,-247.0,49.0,-325.0,37.0,24.0,64.0,-947.0,294.0
18.0,-248.0,49.0,-344.0,38.0,25.0,54.0,-950.0,294.0
19.0,-246.0,53.0,-364.0,37.0,25.0,60.0,-950.0,296.0
21.0,-251.0,52.0,-384.0,33.0,31.0,59.0,-968.0,291.0
20.0,-252.0,54.0,-403.0,28.0,33.0,58.0,-967.0,291.0
18.0,-253.0,48.0,-419.0,24.0,39.0,63.0,-966.0,293.0
17.0,-249.0,49.0,-431.0,22.0,40.0,63.0,-966.0,292.0
17.0,-253.0,50.0,-437.0,21.0,48.0,71.0,-969.0,286.0
21.0,-253.0,51.0,-446.0,21.0,47.0,71.0,-967.0,286.0
26.0,-252.0,49.0,-451.0,24.0,50.0,82.0,-965.0,293.0
26.0,-251.0,51.0,-454.0,31.0,46.0,81.0,-973.0,288.0
27.0,-254.0,51.0,-463.0,42.0,43.0,82.0,-964.0,293.0
24.0,-252.0,50.0,-473.0,50.0,38.0,88.0,-967.0,296.0
26.0,-253.0,49.0,-481.0,59.0,39.0,85.0,-965.0,302.0
26.0,-248.0,49.0,-496.0,68.0,36.0,92.0,-959.0,294.0
28.0,-252.0,52.0,-511.0,76.0,41.0,91.0,-967.0,289.0
25.0,-252.0,50.0,-530.0,82.0,38.0,84.0,-965.0,289.0
27.0,-251.0,50.0,-548.0,84.0,39.0,86.0,-958.0,283.0
23.0,-249.0,45.0,-557.0,83.0,37.0,74.0,-944.0,277.0
24.0,-251.0,41.0,-573.0,73.0,43.0,73.0,-963.0,252.0
18.0,-252.0,39.0,-606.0,64.0,37.0,62.0,-964.0,246.0
18.0,-246.0,37.0,-633.0,55.0,41.0,69.0,-950.0,242.0
20.0,-249.0,31.0,-652.0,48.0,41.0,71.0,-968.0,221.0
19.0,-250.0,36.0,-685.0,39.0,39.0,70.0,-960.0,229.0
15.0,-255.0,25.0,-715.0,36.0,32.0,55.0,-984.0,204.0
25.0,-244.0,34.0,-749.0,42.0,34.0,80.0,-942.0,225.0
21.0,-255.0,23.0,-762.0,47.0,27.0,72.0,-980.0,208.0
22.0,-256.0,27.0,-788.0,53.0,29.0,68.0,-972.0,220.0
21.0,-255.0,37.0,-805.0,68.0,29.0,57.0,-985.0,238.0
21.0,-255.0,34.0,-805.0,76.0,39.0,62.0,-984.0,233.0
13.0,-262.0,32.0,-806.0,76.0,44.0,35.0,-1008.0,235.0
10.0,-260.0,42.0,-818.0,73.0,55.0,39.0,-987.0,257.0
13.0,-252.0,45.0,-816.0,65.0,61.0,36.0,-969.0,280.0
6.0,-261.0,39.0,-813.0,57.0,68.0,28.0,-995.0,263.0
9.0,-261.0,46.0,-830.0,53.0,71.0,32.0,-991.0,280.0
12.0,-260.0,49.0,-844.0,51.0,76.0,33.0,-992.0,275.0
13.0,-254.0,43.0,-853.0,57.0,76.0,39.0,-985.0,274.0
13.0,-261.0,44.0,-863.0,61.0,77.0,41.0,-994.0,263.0
15.0,-259.0,41.0,-891.0,65.0,72.0,44.0,-1000.0,252.0
15.0,-261.0,36.0,-921.0,72.0,74.0,42.0,-996.0,245.0
16.0,-259.0,39.0,-949.0,79.0,74.0,40.0,-1000.0,239.0
9.0,-258.0,29.0,-974.0,84.0,79.0,36.0,-997.0,224.0
11.0,-257.0,29.0,-1000.0,84.0,82.0,33.0,-992.0,209.0
8.0,-264.0,27.0,-1030.0,81.0,90.0,22.0,-997.0,201.0
11.0,-260.0,24.0,-1060.0,74.0,93.0,19.0,-1002.0,191.0
4.0,-263.0,22.0,-1097.0,63.0,96.0,12.0,-1012.0,187.0
5.0,-262.0,18.0,-1137.0,51.0,95.0,2.0,-1016.0,174.0
3.0,-265.0,15.0,-1179.0,43.0,96.0,4.0,-1023.0,170.0
2.0,-268.0,13.0,-1232.0,39.0,94.0,1.0,-1028.0,158.0
1.0,-268.0,10.0,-1282.0,39.0,97.0,-4.0,-1032.0,153.0
3.0,-271.0,8.0,-1330.0,40.0,101.0,-7.0,-1034.0,140.0
0.0,-273.0,4.0,-1377.0,37.0,106.0,-15.0,-1057.0,119.0
1.0,-275.0,0.0,-1425.0,32.0,109.0,-4.0,-1066.0,115.0
3.0,-277.0,1.0,-1475.0,27.0,116.0,-8.0,-1075.0,109.0
-2.0,-282.0,2.0,-1531.0,18.0,119.0,-13.0,-1098.0,112.0
2.0,-285.0,-2.0,-1588.0,8.0,125.0,-6.0,-1112.0,105.0
3.0,-286.0,-1.0,-1639.0,2.0,129.0,-4.0,-1112.0,87.0
1.0,-291.0,-5.0,-1682.0,-2.0,143.0,-5.0,-1128.0,87.0
3.0,-297.0,1.0,-1728.0,-10.0,151.0,-1.0,-1146.0,101.0
5.0,-303.0,2.0,-1769.0,-24.0,160.0,7.0,-1173.0,118.0
4.0,-307.0,7.0,-1806.0,-37.0,161.0,5.0,-1193.0,135.0
4.0,-314.0,2.0,-1835.0,-48.0,163.0,0.0,-1209.0,121.0
4.0,-319.0,2.0,-1862.0,-58.0,164.0,1.0,-1235.0,117.0
2.0,-332.0,6.0,-1884.0,-76.0,169.0,-3.0,-1269.0,123.0
7.0,-344.0,5.0,-1898.0,-93.0,172.0,3.0,-1322.0,125.0
10.0,-359.0,1.0,-1909.0,-105.0,177.0,18.0,-1373.0,112.0
18.0,-374.0,-5.0,-1902.0,-109.0,182.0,46.0,-1439.0,108.0
20.0,-387.0,-5.0,-1885.0,-107.0,187.0,56.0,-1486.0,85.0
27.0,-400.0,-14.0,-1843.0,-98.0,187.0,69.0,-1519.0,49.0
30.0,-403.0,-31.0,-1785.0,-84.0,189.0,100.0,-1531.0,-10.0
38.0,-401.0,-44.0,-1711.0,-71.0,185.0,119.0,-1532.0,-62.0
44.0,-399.0,-54.0,-1634.0,-59.0,185.0,145.0,-1532.0,-93.0
49.0,-400.0,-61.0,-1547.0,-47.0,179.0,153.0,-1522.0,-129.0
47.0,-394.0,-66.0,-1455.0,-37.0,181.0,165.0,-1509.0,-159.0
49.0,-389.0,-75.0,-1351.0,-28.0,177.0,161.0,-1485.0,-193.0
43.0,-377.0,-82.0,-1240.0,-18.0,174.0,135.0,-1447.0,-225.0
32.0,-367.0,-89.0,-1122.0,-11.0,167.0,103.0,-1401.0,-241.0
17.0,-351.0,-93.0,-996.0,-2.0,160.0,67.0,-1345.0,-261.0
11.0,-341.0,-93.0,-919.0,5.0,156.0,24.0,-1317.0,-274.0
1.0,-335.0,-102.0,-863.0,8.0,151.0,-11.0,-1301.0,-286.0
-11.0,-331.0,-100.0,-821.0,10.0,143.0,-39.0,-1270.0,-300.0
-12.0,-327.0,-100.0,-797.0,11.0,137.0,-69.0,-1253.0,-313.0
-15.0,-320.0,-112.0,-777.0,17.0,125.0,-87.0,-1235.0,-326.0
-13.0,-314.0,-109.0,-762.0,22.0,113.0,-83.0,-1212.0,-337.0
-15.0,-310.0,-118.0,-750.0,28.0,96.0,-82.0,-1197.0,-366.0
-10.0,-302.0,-120.0,-744.0,33.0,80.0,-66.0,-1178.0,-380.0
-8.0,-301.0,-121.0,-743.0,33.0,63.0,-44.0,-1167.0,-375.0
-2.0,-300.0,-117.0,-743.0,26.0,52.0,-15.0,-1162.0,-367.0
1.0,-300.0,-110.0,-737.0,16.0,42.0,-7.0,-1160.0,-349.0
4.0,-299.0,-109.0,-723.0,6.0,36.0,0.0,-1163.0,-333.0
4.0,-297.0,-108.0,-700.0,-5.0,29.0,11.0,-1149.0,-320.0
10.0,-295.0,-109.0,-673.0,-16.0,25.0,22.0,-1145.0,-323.0
12.0,-288.0,-107.0,-650.0,-21.0,23.0,22.0,-1128.0,-339.0
13.0,-285.0,-109.0,-630.0,-21.0,23.0,25.0,-1108.0,-337.0
14.0,-279.0,-117.0,-617.0,-18.0,19.0,34.0,-1084.0,-348.0
12.0,-274.0,-115.0,-609.0,-11.0,16.0,34.0,-1072.0,-352.0
8.0,-270.0,-112.0,-603.0,2.0,14.0,20.0,-1056.0,-341.0
10.0,-268.0,-108.0,-583.0,12.0,20.0,24.0,-1035.0,-332.0
4.0,-263.0,-111.0,-565.0,12.0,24.0,9.0,-1015.0,-337.0
5.0,-256.0,-110.0,-547.0,7.0,32.0,9.0,-989.0,-334.0
3.0,-250.0,-107.0,-535.0,2.0,37.0,1.0,-974.0,-330.0
2.0,-247.0,-112.0,-522.0,-6.0,46.0,-4.0,-960.0,-332.0
-1.0,-242.0,-107.0,-514.0,-6.0,55.0,-5.0,-952.0,-331.0
-3.0,-244.0,-112.0,-508.0,-3.0,58.0,-12.0,-944.0,-331.0
-2.0,-242.0,-106.0,-509.0,1.0,57.0,-20.0,-937.0,-330.0
0.0,-242.0,-112.0,-508.0,2.0,58.0,-11.0,-947.0,-338.0
-2.0,-245.0,-118.0,-503.0,2.0,52.0,-20.0,-942.0,-372.0
-2.0,-243.0,-122.0,-488.0,8.0,50.0,-15.0,-943.0,-401.0
1.0,-245.0,-129.0,-472.0,13.0,45.0,-10.0,-935.0,-422.0
2.0,-243.0,-137.0,-455.0,19.0,39.0,-3.0,-937.0,-447.0
5.0,-242.0,-140.0,-432.0,31.0,36.0,3.0,-939.0,-458.0
5.0,-241.0,-146.0,-404.0,45.0,29.0,8.0,-934.0,-474.0
5.0,-240.0,-145.0,-372.0,59.0,24.0,11.0,-930.0,-472.0
6.0,-240.0,-143.0,-340.0,72.0,19.0,8.0,-922.0,-480.0
5.0,-236.0,-147.0,-306.0,84.0,15.0,6.0,-910.0,-486.0
5.0,-235.0,-144.0,-276.0,94.0,14.0,14.0,-907.0,-488.0
5.0,-229.0,-149.0,-243.0,108.0,16.0,9.0,-892.0,-493.0
8.0,-225.0,-153.0,-218.0,114.0,16.0,10.0,-875.0,-505.0
4.0,-221.0,-155.0,-200.0,121.0,18.0,8.0,-868.0,-521.0
5.0,-219.0,-156.0,-188.0,124.0,20.0,7.0,-860.0,-527.0
7.0,-218.0,-157.0,-185.0,126.0,20.0,15.0,-852.0,-542.0
5.0,-213.0,-161.0,-179.0,129.0,15.0,13.0,-840.0,-550.0
6.0,-211.0,-160.0,-178.0,137.0,10.0,18.0,-837.0,-555.0
3.0,-212.0,-161.0,-175.0,145.0,5.0,10.0,-834.0,-557.0
1.0,-213.0,-160.0,-171.0,157.0,2.0,-5.0,-833.0,-549.0
-3.0,-210.0,-161.0,-164.0,164.0,0.0,-15.0,-827.0,-544.0
-3.0,-211.0,-163.0,-156.0,169.0,0.0,-19.0,-815.0,-538.0
-3.0,-211.0,-160.0,-148.0,171.0,1.0,-26.0,-818.0,-521.0
-6.0,-211.0,-144.0,-140.0,164.0,4.0,-26.0,-823.0,-501.0
-4.0,-213.0,-141.0,-128.0,155.0,4.0,-25.0,-826.0,-469.0
-5.0,-212.0,-133.0,-111.0,145.0,6.0,-28.0,-822.0,-448.0
-5.0,-212.0,-133.0,-88.0,135.0,8.0,-22.0,-816.0,-430.0
2.0,-209.0,-128.0,-63.0,133.0,9.0,-20.0,-814.0,-411.0
-2.0,-208.0,-126.0,-39.0,132.0,7.0,-9.0,-805.0,-397.0
0.0,-208.0,-121.0,-15.0,137.0,3.0,-7.0,-812.0,-395.0
3.0,-208.0,-118.0,8.0,146.0,-7.0,-5.0,-804.0,-377.0
4.0,-205.0,-118.0,49.0,151.0,-8.0,-1.0,-792.0,-374.0
5.0,-204.0,-125.0,86.0,156.0,-7.0,1.0,-796.0,-386.0
4.0,-208.0,-125.0,119.0,161.0,-8.0,13.0,-794.0,-396.0
5.0,-206.0,-124.0,156.0,165.0,-11.0,17.0,-789.0,-406.0
10.0,-208.0,-130.0,198.0,167.0,-11.0,17.0,-793.0,-411.0
11.0,-209.0,-132.0,249.0,172.0,-12.0,26.0,-796.0,-424.0
11.0,-210.0,-136.0,305.0,177.0,-13.0,27.0,-797.0,-434.0
10.0,-204.0,-132.0,358.0,185.0,-17.0,23.0,-776.0,-428.0
12.0,-196.0,-133.0,435.0,194.0,-14.0,33.0,-760.0,-440.0
9.0,-192.0,-135.0,512.0,205.0,-13.0,27.0,-751.0,-435.0
10.0,-188.0,-134.0,560.0,218.0,-15.0,24.0,-732.0,-428.0
9.0,-184.0,-129.0,598.0,228.0,-20.0,21.0,-715.0,-418.0
7.0,-178.0,-126.0,630.0,238.0,-20.0,23.0,-698.0,-405.0
5.0,-174.0,-124.0,651.0,250.0,-25.0,22.0,-690.0,-395.0
9.0,-172.0,-115.0,661.0,258.0,-25.0,16.0,-678.0,-375.0
10.0,-171.0,-116.0,661.0,258.0,-27.0,26.0,-657.0,-355.0
11.0,-175.0,-116.0,647.0,258.0,-25.0,29.0,-707.0,-370.0
13.0,-168.0,-105.0,621.0,259.0,-32.0,24.0,-648.0,-322.0
11.0,-173.0,-107.0,619.0,261.0,-9.0,41.0,-688.0,-332.0
15.0,-180.0,-108.0,597.0,259.0,-3.0,43.0,-700.0,-339.0
14.0,-181.0,-112.0,587.0,262.0,6.0,53.0,-714.0,-340.0
18.0,-186.0,-114.0,589.0,271.0,11.0,60.0,-727.0,-362.0
19.0,-186.0,-122.0,599.0,284.0,21.0,70.0,-729.0,-374.0
21.0,-189.0,-123.0,608.0,302.0,28.0,73.0,-736.0,-398.0
22.0,-187.0,-128.0,621.0,322.0,38.0,87.0,-735.0,-408.0
25.0,-189.0,-132.0,637.0,342.0,43.0,85.0,-733.0,-417.0
25.0,-187.0,-131.0,655.0,357.0,48.0,88.0,-731.0,-433.0
26.0,-183.0,-137.0,673.0,369.0,47.0,94.0,-722.0,-443.0
26.0,-185.0,-139.0,692.0,379.0,44.0,96.0,-721.0,-452.0
27.0,-177.0,-137.0,706.0,383.0,29.0,95.0,-704.0,-459.0
26.0,-173.0,-137.0,712.0,385.0,12.0,79.0,-679.0,-444.0
23.0,-164.0,-129.0,719.0,388.0,-11.0,72.0,-640.0,-427.0
15.0,-147.0,-123.0,722.0,392.0,-28.0,59.0,-586.0,-398.0
11.0,-133.0,-113.0,724.0,401.0,-52.0,33.0,-527.0,-361.0
8.0,-115.0,-106.0,724.0,422.0,-71.0,25.0,-479.0,-331.0
5.0,-104.0,-104.0,704.0,445.0,-102.0,13.0,-420.0,-322.0
-6.0,-110.0,-96.0,654.0,469.0,-131.0,-25.0,-409.0,-298.0
-14.0,-64.0,-85.0,590.0,488.0,-161.0,-56.0,-232.0,-249.0
-18.0,-61.0,-97.0,620.0,473.0,-147.0,-70.0,-244.0,-299.0
-23.0,-49.0,-106.0,559.0,441.0,-149.0,-87.0,-215.0,-322.0
-24.0,-43.0,-104.0,452.0,411.0,-151.0,-101.0,-194.0,-333.0
-26.0,-46.0,-109.0,334.0,397.0,-152.0,-112.0,-191.0,-340.0
-28.0,-45.0,-118.0,232.0,402.0,-142.0,-114.0,-189.0,-364.0
-23.0,-73.0,-130.0,134.0,430.0,-135.0,-98.0,-282.0,-438.0
-20.0,-53.0,-131.0,31.0,471.0,-130.0,-92.0,-209.0,-418.0
-12.0,-75.0,-158.0,9.0,518.0,-112.0,-72.0,-300.0,-531.0
-12.0,-88.0,-170.0,-54.0,552.0,-90.0,-53.0,-354.0,-568.0
-7.0,-104.0,-174.0,-122.0,565.0,-66.0,-32.0,-407.0,-599.0
0.0,-116.0,-174.0,-172.0,544.0,-42.0,-3.0,-459.0,-610.0
1.0,-132.0,-160.0,-177.0,496.0,-21.0,16.0,-526.0,-577.0
-2.0,-145.0,-153.0,-168.0,425.0,3.0,7.0,-585.0,-506.0
-8.0,-168.0,-124.0,-144.0,317.0,15.0,-7.0,-653.0,-390.0
-11.0,-190.0,-90.0,-103.0,173.0,18.0,-30.0,-724.0,-268.0
-12.0,-207.0,-66.0,-45.0,11.0,1.0,-57.0,-779.0,-171.0
-21.0,-215.0,-48.0,25.0,-142.0,-29.0,-87.0,-812.0,-101.0
-31.0,-219.0,-41.0,113.0,-261.0,-71.0,-118.0,-843.0,-60.0
-47.0,-228.0,-36.0,220.0,-339.0,-114.0,-182.0,-867.0,-40.0
-59.0,-232.0,-25.0,331.0,-396.0,-167.0,-239.0,-878.0,-14.0
-76.0,-237.0,-23.0,480.0,-431.0,-196.0,-299.0,-899.0,0.0
-85.0,-242.0,-26.0,607.0,-454.0,-224.0,-342.0,-913.0,5.0
-87.0,-247.0,-23.0,730.0,-467.0,-240.0,-351.0,-934.0,-7.0
-77.0,-247.0,-36.0,841.0,-469.0,-259.0,-340.0,-939.0,-27.0
-69.0,-247.0,-36.0,936.0,-469.0,-274.0,-284.0,-931.0,-37.0
-50.0,-241.0,-36.0,1015.0,-463.0,-293.0,-208.0,-919.0,-35.0
-32.0,-241.0,-29.0,1079.0,-457.0,-308.0,-130.0,-916.0,-9.0
-10.0,-239.0,-17.0,1139.0,-445.0,-317.0,-40.0,-907.0,54.0
14.0,-231.0,6.0,1211.0,-416.0,-310.0,39.0,-879.0,136.0
33.0,-214.0,29.0,1294.0,-352.0,-301.0,104.0,-821.0,208.0
44.0,-196.0,36.0,1376.0,-300.0,-285.0,162.0,-763.0,238.0
58.0,-181.0,30.0,1403.0,-283.0,-276.0,222.0,-714.0,228.0
69.0,-164.0,10.0,1379.0,-308.0,-250.0,265.0,-660.0,156.0
87.0,-153.0,-4.0,1293.0,-355.0,-226.0,317.0,-627.0,86.0
101.0,-154.0,-12.0,1142.0,-384.0,-213.0,357.0,-626.0,47.0
105.0,-170.0,-31.0,956.0,-375.0,-232.0,374.0,-687.0,-29.0
101.0,-200.0,-48.0,772.0,-346.0,-260.0,365.0,-781.0,-78.0
89.0,-267.0,-57.0,654.0,-315.0,-297.0,319.0,-1039.0,-108.0
98.0,-335.0,-27.0,642.0,-285.0,-340.0,349.0,-1254.0,-6.0
86.0,-409.0,74.0,879.0,-262.0,-385.0,299.0,-1485.0,336.0
99.0,-566.0,266.0,1359.0,-212.0,-441.0,330.0,-1992.0,1094.0
159.0,-707.0,338.0,1914.0,-265.0,-601.0,669.0,-2750.0,1402.0
233.0,-787.0,346.0,2219.0,-597.0,-915.0,932.0,-2816.0,1389.0
85.0,-2446.0,-587.0,2267.0,-722.0,-723.0,86.0,-8192.0,-2016.0
-79.0,-1624.0,-439.0,30.0,-55.0,459.0,-459.0,-6270.0,-1642.0
-395.0,-1032.0,-282.0,-129.0,849.0,209.0,-1501.0,-3836.0,-1123.0
-397.0,-819.0,-254.0,890.0,665.0,-434.0,-1409.0,-3393.0,-1076.0
-81.0,-683.0,-92.0,820.0,-319.0,-229.0,-565.0,-2750.0,-323.0
-7.0,-498.0,-96.0,712.0,-524.0,108.0,-88.0,-2010.0,-238.0
-27.0,-388.0,-62.0,1268.0,-278.0,245.0,-118.0,-1430.0,-158.0
-31.0,-300.0,2.0,1859.0,-195.0,388.0,-155.0,-1106.0,142.0
-36.0,-219.0,19.0,2110.0,-126.0,399.0,-153.0,-896.0,185.0
-22.0,-173.0,1.0,1831.0,-142.0,387.0,-64.0,-783.0,92.0
39.0,-171.0,-25.0,1188.0,-253.0,395.0,133.0,-742.0,0.0
153.0,-179.0,-32.0,584.0,-273.0,448.0,495.0,-726.0,-27.0
208.0,-164.0,30.0,272.0,-55.0,507.0,725.0,-630.0,199.0
209.0,-112.0,93.0,247.0,317.0,506.0,781.0,-401.0,484.0
173.0,18.0,196.0,251.0,552.0,418.0,684.0,50.0,860.0
101.0,157.0,307.0,91.0,549.0,278.0,443.0,507.0,1288.0
38.0,195.0,375.0,-431.0,370.0,252.0,207.0,693.0,1574.0
33.0,32.0,364.0,-982.0,106.0,309.0,172.0,227.0,1555.0
31.0,-257.0,317.0,-1285.0,-148.0,315.0,124.0,-678.0,1422.0
52.0,-503.0,183.0,-1007.0,-249.0,272.0,118.0,-1620.0,1017.0
56.0,-565.0,13.0,-303.0,-107.0,163.0,146.0,-2098.0,217.0
52.0,-544.0,-44.0,360.0,119.0,47.0,151.0,-2026.0,-47.0
47.0,-494.0,-13.0,867.0,293.0,-21.0,132.0,-1817.0,84.0
35.0,-424.0,54.0,1327.0,396.0,-46.0,98.0,-1574.0,314.0
28.0,-348.0,84.0,1725.0,463.0,-49.0,97.0,-1321.0,448.0
25.0,-274.0,75.0,1991.0,472.0,-61.0,112.0,-1082.0,416.0
34.0,-213.0,52.0,1934.0,412.0,-144.0,142.0,-913.0,241.0
12.0,-100.0,16.0,1853.0,365.0,-289.0,50.0,-438.0,206.0
-2.0,-36.0,-28.0,1918.0,411.0,-367.0,-14.0,-153.0,7.0
-13.0,33.0,-52.0,1830.0,447.0,-319.0,-36.0,84.0,-92.0
-20.0,94.0,-50.0,1655.0,385.0,-256.0,-49.0,318.0,-96.0
-29.0,107.0,-65.0,1510.0,271.0,-206.0,-92.0,396.0,-133.0
16.0,45.0,-84.0,1310.0,173.0,-128.0,61.0,181.0,-245.0
31.0,-48.0,-56.0,1052.0,96.0,-115.0,112.0,-213.0,-136.0
49.0,-152.0,-20.0,894.0,78.0,-148.0,174.0,-575.0,21.0
71.0,-264.0,27.0,842.0,96.0,-176.0,242.0,-967.0,187.0
82.0,-348.0,70.0,850.0,120.0,-217.0,301.0,-1367.0,384.0
94.0,-456.0,121.0,889.0,141.0,-264.0,330.0,-1744.0,580.0
97.0,-544.0,143.0,960.0,157.0,-311.0,338.0,-2061.0,673.0
91.0,-592.0,108.0,1055.0,173.0,-347.0,303.0,-2260.0,568.0
73.0,-596.0,46.0,1147.0,185.0,-365.0,251.0,-2288.0,327.0
55.0,-549.0,-28.0,1233.0,196.0,-354.0,188.0,-2149.0,63.0
46.0,-471.0,-71.0,1283.0,204.0,-325.0,155.0,-1887.0,-142.0
32.0,-413.0,-84.0,1292.0,220.0,-295.0,87.0,-1604.0,-226.0
16.0,-346.0,-79.0,1273.0,259.0,-276.0,38.0,-1359.0,-223.0
-21.0,-284.0,-69.0,1232.0,286.0,-286.0,-89.0,-1143.0,-177.0
-29.0,-248.0,-67.0,1206.0,296.0,-261.0,-120.0,-947.0,-156.0
-28.0,-229.0,-66.0,1202.0,279.0,-214.0,-120.0,-889.0,-147.0
-28.0,-220.0,-62.0,1222.0,261.0,-169.0,-117.0,-856.0,-144.0
-29.0,-217.0,-54.0,1232.0,244.0,-120.0,-117.0,-860.0,-118.0
-30.0,-222.0,-43.0,1201.0,217.0,-82.0,-125.0,-873.0,-79.0
-28.0,-226.0,-28.0,1129.0,175.0,-42.0,-124.0,-882.0,-10.0
-27.0,-231.0,-4.0,1057.0,124.0,-12.0,-103.0,-891.0,70.0
-13.0,-231.0,10.0,1007.0,77.0,7.0,-75.0,-894.0,133.0
-11.0,-229.0,25.0,985.0,32.0,10.0,-51.0,-889.0,188.0
1.0,-225.0,35.0,974.0,3.0,16.0,-8.0,-881.0,231.0
18.0,-219.0,48.0,943.0,-17.0,16.0,48.0,-857.0,273.0
29.0,-212.0,55.0,885.0,-26.0,15.0,85.0,-831.0,308.0
31.0,-210.0,61.0,801.0,-17.0,13.0,113.0,-822.0,324.0
33.0,-216.0,59.0,725.0,2.0,7.0,107.0,-854.0,327.0
27.0,-226.0,60.0,688.0,10.0,-11.0,106.0,-877.0,328.0
30.0,-236.0,61.0,688.0,17.0,-30.0,105.0,-893.0,333.0
31.0,-238.0,63.0,712.0,34.0,-53.0,98.0,-906.0,347.0
31.0,-240.0,69.0,740.0,58.0,-74.0,102.0,-914.0,365.0
29.0,-238.0,75.0,762.0,90.0,-97.0,88.0,-907.0,394.0
25.0,-236.0,82.0,775.0,113.0,-115.0,81.0,-910.0,434.0
25.0,-240.0,91.0,783.0,131.0,-126.0,86.0,-909.0,476.0
23.0,-236.0,107.0,784.0,145.0,-130.0,74.0,-901.0,521.0
21.0,-230.0,118.0,778.0,154.0,-128.0,70.0,-888.0,559.0
20.0,-229.0,125.0,765.0,156.0,-117.0,72.0,-874.0,588.0
23.0,-226.0,125.0,743.0,155.0,-105.0,76.0,-862.0,595.0
25.0,-224.0,127.0,716.0,153.0,-88.0,76.0,-862.0,612.0
24.0,-224.0,129.0,688.0,158.0,-73.0,83.0,-854.0,622.0
23.0,-226.0,130.0,661.0,166.0,-53.0,78.0,-864.0,623.0
25.0,-226.0,130.0,636.0,172.0,-42.0,79.0,-865.0,621.0
19.0,-224.0,128.0,617.0,178.0,-32.0,65.0,-864.0,605.0
17.0,-219.0,125.0,594.0,183.0,-26.0,67.0,-852.0,590.0
20.0,-220.0,117.0,570.0,183.0,-20.0,56.0,-852.0,578.0
18.0,-221.0,117.0,546.0,183.0,-14.0,57.0,-854.0,557.0
17.0,-222.0,114.0,529.0,177.0,-10.0,58.0,-856.0,545.0
17.0,-225.0,109.0,518.0,173.0,-9.0,55.0,-863.0,519.0
13.0,-225.0,103.0,507.0,162.0,-11.0,54.0,-864.0,499.0
16.0,-225.0,95.0,501.0,146.0,-13.0,58.0,-869.0,481.0
18.0,-229.0,93.0,491.0,126.0,-17.0,58.0,-876.0,466.0
17.0,-230.0,88.0,477.0,110.0,-22.0,66.0,-889.0,460.0
25.0,-234.0,88.0,457.0,94.0,-25.0,71.0,-896.0,447.0
22.0,-233.0,88.0,431.0,79.0,-30.0,79.0,-909.0,450.0
23.0,-237.0,90.0,400.0,67.0,-31.0,83.0,-911.0,454.0
24.0,-238.0,90.0,367.0,59.0,-31.0,88.0,-910.0,461.0
25.0,-235.0,90.0,332.0,50.0,-26.0,98.0,-910.0,465.0
28.0,-237.0,90.0,293.0,42.0,-20.0,102.0,-910.0,454.0
27.0,-234.0,88.0,255.0,39.0,-12.0,105.0,-909.0,452.0
28.0,-234.0,89.0,216.0,39.0,-4.0,107.0,-911.0,446.0
31.0,-237.0,86.0,177.0,39.0,6.0,108.0,-912.0,445.0
30.0,-238.0,85.0,154.0,44.0,10.0,107.0,-918.0,449.0
33.0,-241.0,80.0,139.0,48.0,13.0,111.0,-922.0,442.0
33.0,-242.0,86.0,134.0,54.0,17.0,111.0,-920.0,436.0
30.0,-244.0,85.0,135.0,58.0,19.0,105.0,-932.0,438.0
32.0,-244.0,82.0,138.0,58.0,19.0,96.0,-924.0,434.0
26.0,-244.0,85.0,143.0,57.0,15.0,93.0,-929.0,430.0
25.0,-241.0,79.0,145.0,56.0,13.0,93.0,-937.0,430.0
24.0,-243.0,81.0,145.0,54.0,10.0,87.0,-934.0,421.0
22.0,-243.0,78.0,141.0,57.0,9.0,73.0,-935.0,412.0
19.0,-246.0,77.0,129.0,61.0,5.0,65.0,-936.0,407.0
17.0,-245.0,73.0,112.0,61.0,0.0,57.0,-935.0,398.0
17.0,-244.0,74.0,97.0,60.0,-1.0,49.0,-945.0,396.0
16.0,-244.0,71.0,86.0,59.0,-1.0,53.0,-944.0,395.0
17.0,-247.0,77.0,81.0,60.0,1.0,47.0,-944.0,394.0
10.0,-249.0,74.0,79.0,61.0,1.0,41.0,-945.0,400.0
11.0,-252.0,82.0,80.0,58.0,0.0,35.0,-954.0,409.0
13.0,-251.0,80.0,87.0,54.0,0.0,35.0,-947.0,414.0
11.0,-250.0,79.0,97.0,51.0,3.0,32.0,-952.0,421.0
10.0,-252.0,79.0,110.0,42.0,10.0,30.0,-950.0,424.0
11.0,-248.0,84.0,117.0,32.0,11.0,37.0,-944.0,423.0
15.0,-247.0,79.0,121.0,23.0,16.0,44.0,-941.0,422.0
19.0,-248.0,82.0,122.0,16.0,19.0,55.0,-943.0,418.0
20.0,-247.0,79.0,122.0,16.0,22.0,62.0,-944.0,417.0
21.0,-247.0,87.0,125.0,20.0,23.0,69.0,-948.0,425.0
25.0,-246.0,82.0,128.0,24.0,25.0,82.0,-950.0,433.0
28.0,-252.0,83.0,138.0,28.0,26.0,87.0,-949.0,433.0
28.0,-246.0,87.0,149.0,31.0,26.0,91.0,-946.0,440.0
39.0,-238.0,91.0,158.0,34.0,26.0,98.0,-940.0,438.0
30.0,-247.0,89.0,168.0,36.0,26.0,98.0,-939.0,446.0
30.0,-244.0,87.0,174.0,37.0,26.0,102.0,-940.0,440.0
33.0,-245.0,87.0,177.0,41.0,28.0,105.0,-939.0,443.0
30.0,-242.0,89.0,176.0,46.0,26.0,107.0,-935.0,445.0
30.0,-243.0,84.0,171.0,48.0,27.0,111.0,-932.0,446.0
30.0,-241.0,87.0,165.0,49.0,23.0,103.0,-928.0,448.0
31.0,-243.0,87.0,158.0,50.0,21.0,103.0,-927.0,446.0
29.0,-239.0,87.0,151.0,53.0,15.0,93.0,-928.0,448.0
28.0,-244.0,90.0,148.0,58.0,15.0,97.0,-931.0,463.0
26.0,-242.0,93.0,149.0,60.0,13.0,87.0,-925.0,471.0
25.0,-239.0,93.0,150.0,61.0,16.0,85.0,-920.0,473.0
19.0,-237.0,94.0,152.0,60.0,15.0,83.0,-913.0,474.0
23.0,-236.0,98.0,150.0,56.0,17.0,79.0,-906.0,475.0
24.0,-236.0,96.0,140.0,54.0,17.0,75.0,-901.0,475.0
24.0,-234.0,95.0,127.0,55.0,20.0,73.0,-900.0,468.0
24.0,-235.0,96.0,116.0,61.0,23.0,77.0,-901.0,476.0
18.0,-232.0,98.0,101.0,64.0,26.0,73.0,-899.0,478.0
22.0,-236.0,99.0,88.0,66.0,28.0,70.0,-899.0,482.0
21.0,-236.0,101.0,77.0,67.0,32.0,67.0,-903.0,491.0
19.0,-236.0,101.0,67.0,66.0,33.0,63.0,-900.0,489.0
21.0,-237.0,100.0,63.0,65.0,36.0,65.0,-904.0,491.0
20.0,-236.0,100.0,57.0,66.0,35.0,61.0,-901.0,496.0
19.0,-234.0,101.0,53.0,69.0,36.0,59.0,-898.0,504.0
19.0,-233.0,100.0,44.0,75.0,31.0,60.0,-894.0,501.0
17.0,-232.0,100.0,29.0,79.0,30.0,57.0,-894.0,498.0
18.0,-231.0,100.0,9.0,79.0,25.0,61.0,-889.0,493.0
18.0,-231.0,96.0,-12.0,76.0,23.0,58.0,-891.0,485.0
19.0,-235.0,96.0,-34.0,71.0,22.0,61.0,-891.0,484.0
20.0,-234.0,99.0,-52.0,66.0,23.0,66.0,-902.0,484.0
19.0,-238.0,94.0,-67.0,61.0,21.0,67.0,-905.0,481.0
19.0,-237.0,95.0,-75.0,58.0,23.0,66.0,-911.0,481.0
21.0,-241.0,102.0,-78.0,55.0,21.0,62.0,-917.0,489.0
21.0,-237.0,99.0,-77.0,56.0,21.0,62.0,-923.0,485.0
16.0,-239.0,100.0,-75.0,54.0,19.0,64.0,-922.0,483.0
17.0,-240.0,96.0,-73.0,51.0,23.0,60.0,-922.0,483.0
19.0,-239.0,99.0,-73.0,48.0,20.0,67.0,-914.0,484.0
20.0,-240.0,99.0,-73.0,43.0,22.0,68.0,-912.0,484.0
19.0,-237.0,95.0,-72.0,40.0,21.0,70.0,-910.0,481.0
23.0,-238.0,94.0,-68.0,39.0,22.0,73.0,-910.0,478.0
24.0,-238.0,100.0,-70.0,37.0,23.0,77.0,-913.0,477.0
21.0,-239.0,95.0,-73.0,32.0,27.0,74.0,-913.0,475.0
21.0,-237.0,91.0,-79.0,25.0,27.0,73.0,-915.0,473.0
25.0,-238.0,93.0,-86.0,20.0,31.0,75.0,-913.0,464.0
26.0,-242.0,94.0,-95.0,12.0,31.0,82.0,-918.0,463.0
24.0,-239.0,89.0,-101.0,8.0,34.0,80.0,-923.0,464.0
25.0,-240.0,91.0,-105.0,6.0,32.0,79.0,-923.0,462.0
26.0,-242.0,90.0,-107.0,6.0,34.0,86.0,-924.0,460.0
25.0,-242.0,92.0,-107.0,9.0,29.0,87.0,-927.0,457.0
25.0,-244.0,93.0,-110.0,13.0,29.0,90.0,-935.0,461.0
28.0,-244.0,91.0,-109.0,19.0,22.0,93.0,-931.0,454.0
25.0,-246.0,86.0,-109.0,26.0,19.0,92.0,-934.0,449.0
25.0,-245.0,89.0,-110.0,32.0,16.0,81.0,-934.0,448.0
24.0,-246.0,88.0,-110.0,36.0,16.0,82.0,-934.0,445.0
26.0,-244.0,86.0,-110.0,40.0,13.0,83.0,-936.0,450.0
25.0,-242.0,87.0,-109.0,43.0,14.0,82.0,-935.0,448.0
24.0,-244.0,90.0,-106.0,46.0,12.0,77.0,-934.0,446.0
27.0,-243.0,88.0,-102.0,48.0,14.0,81.0,-934.0,447.0
21.0,-242.0,88.0,-100.0,49.0,13.0,73.0,-930.0,448.0
20.0,-241.0,89.0,-98.0,46.0,18.0,69.0,-925.0,446.0
21.0,-241.0,85.0,-99.0,43.0,18.0,67.0,-927.0,441.0
19.0,-242.0,85.0,-100.0,42.0,22.0,67.0,-924.0,443.0
18.0,-241.0,85.0,-100.0,39.0,21.0,62.0,-920.0,447.0
19.0,-241.0,85.0,-103.0,38.0,25.0,60.0,-918.0,448.0
20.0,-240.0,86.0,-106.0,40.0,24.0,59.0,-919.0,448.0
18.0,-240.0,90.0,-110.0,43.0,27.0,54.0,-927.0,446.0
20.0,-243.0,88.0,-115.0,42.0,25.0,58.0,-925.0,451.0
15.0,-240.0,85.0,-117.0,43.0,29.0,54.0,-931.0,450.0
20.0,-242.0,91.0,-125.0,45.0,26.0,60.0,-935.0,450.0
19.0,-243.0,88.0,-129.0,47.0,28.0,61.0,-937.0,450.0
21.0,-246.0,89.0,-135.0,48.0,27.0,63.0,-936.0,447.0
19.0,-244.0,88.0,-138.0,53.0,28.0,64.0,-936.0,448.0
17.0,-246.0,90.0,-142.0,56.0,26.0,64.0,-935.0,451.0
17.0,-243.0,90.0,-143.0,58.0,28.0,61.0,-933.0,449.0
18.0,-245.0,88.0,-141.0,62.0,28.0,65.0,-931.0,452.0
18.0,-244.0,88.0,-138.0,62.0,30.0,56.0,-933.0,455.0
20.0,-242.0,91.0,-134.0,62.0,30.0,66.0,-926.0,455.0
21.0,-243.0,95.0,-130.0,65.0,33.0,65.0,-922.0,462.0
17.0,-240.0,93.0,-128.0,68.0,31.0,59.0,-921.0,462.0
21.0,-239.0,92.0,-128.0,67.0,34.0,61.0,-915.0,463.0
21.0,-240.0,89.0,-132.0,66.0,31.0,67.0,-916.0,458.0
18.0,-241.0,89.0,-139.0,64.0,32.0,61.0,-916.0,458.0
20.0,-241.0,91.0,-144.0,61.0,29.0,58.0,-918.0,462.0
21.0,-241.0,90.0,-153.0,57.0,30.0,66.0,-920.0,456.0
19.0,-240.0,87.0,-161.0,55.0,27.0,64.0,-921.0,454.0
20.0,-239.0,89.0,-170.0,56.0,29.0,65.0,-918.0,446.0
22.0,-239.0,88.0,-183.0,56.0,25.0,68.0,-919.0,445.0
20.0,-237.0,85.0,-200.0,61.0,25.0,68.0,-924.0,441.0
22.0,-243.0,84.0,-212.0,65.0,21.0,72.0,-930.0,441.0
22.0,-244.0,86.0,-221.0,69.0,22.0,69.0,-934.0,444.0
22.0,-243.0,86.0,-226.0,71.0,19.0,70.0,-934.0,449.0
20.0,-245.0,90.0,-227.0,73.0,22.0,66.0,-937.0,447.0
18.0,-245.0,85.0,-229.0,71.0,22.0,64.0,-936.0,446.0
19.0,-243.0,83.0,-228.0,70.0,26.0,69.0,-938.0,440.0
21.0,-245.0,83.0,-232.0,63.0,24.0,61.0,-937.0,435.0
20.0,-249.0,83.0,-235.0,57.0,24.0,68.0,-936.0,428.0
20.0,-242.0,78.0,-241.0,56.0,22.0,63.0,-941.0,420.0
19.0,-245.0,78.0,-251.0,58.0,23.0,64.0,-938.0,423.0
16.0,-241.0,78.0,-257.0,58.0,19.0,58.0,-940.0,417.0
16.0,-244.0,76.0,-264.0,59.0,21.0,60.0,-938.0,412.0
18.0,-246.0,79.0,-267.0,61.0,16.0,61.0,-934.0,412.0
19.0,-243.0,76.0,-266.0,62.0,17.0,61.0,-937.0,412.0
18.0,-245.0,78.0,-267.0,67.0,16.0,63.0,-943.0,411.0
19.0,-247.0,81.0,-263.0,72.0,19.0,60.0,-937.0,410.0
19.0,-248.0,74.0,-261.0,73.0,21.0,59.0,-947.0,403.0
20.0,-248.0,74.0,-262.0,71.0,26.0,59.0,-950.0,396.0
19.0,-249.0,74.0,-262.0,64.0,26.0,62.0,-951.0,387.0
18.0,-246.0,72.0,-266.0,60.0,29.0,61.0,-946.0,391.0
21.0,-249.0,74.0,-271.0,63.0,30.0,65.0,-947.0,394.0
20.0,-247.0,76.0,-277.0,66.0,31.0,65.0,-951.0,390.0
24.0,-250.0,69.0,-282.0,69.0,29.0,67.0,-959.0,395.0
17.0,-251.0,70.0,-281.0,72.0,30.0,67.0,-957.0,388.0
20.0,-251.0,68.0,-280.0,73.0,24.0,67.0,-960.0,385.0
20.0,-248.0,70.0,-282.0,74.0,24.0,65.0,-959.0,387.0
19.0,-255.0,73.0,-279.0,77.0,20.0,67.0,-960.0,381.0
23.0,-253.0,71.0,-276.0,78.0,18.0,67.0,-966.0,380.0
20.0,-254.0,70.0,-274.0,81.0,15.0,66.0,-964.0,376.0
21.0,-255.0,72.0,-272.0,84.0,14.0,69.0,-970.0,378.0
19.0,-253.0,70.0,-271.0,86.0,9.0,70.0,-966.0,378.0
22.0,-252.0,71.0,-271.0,86.0,10.0,71.0,-965.0,383.0
22.0,-250.0,69.0,-269.0,89.0,6.0,70.0,-967.0,376.0
21.0,-252.0,68.0,-269.0,90.0,7.0,69.0,-965.0,371.0
21.0,-255.0,67.0,-266.0,91.0,6.0,68.0,-963.0,376.0
19.0,-253.0,67.0,-261.0,90.0,9.0,64.0,-970.0,378.0
19.0,-253.0,71.0,-254.0,86.0,7.0,68.0,-966.0,382.0
18.0,-257.0,73.0,-246.0,81.0,11.0,70.0,-969.0,377.0
20.0,-252.0,70.0,-239.0,79.0,10.0,65.0,-969.0,378.0
19.0,-253.0,67.0,-238.0,78.0,9.0,61.0,-964.0,371.0
17.0,-249.0,67.0,-241.0,81.0,6.0,59.0,-959.0,368.0
20.0,-253.0,68.0,-244.0,81.0,9.0,55.0,-965.0,361.0
19.0,-253.0,70.0,-246.0,81.0,8.0,57.0,-967.0,363.0
16.0,-252.0,66.0,-245.0,81.0,8.0,54.0,-961.0,363.0
16.0,-251.0,68.0,-245.0,80.0,9.0,54.0,-967.0,364.0
21.0,-252.0,65.0,-243.0,76.0,9.0,54.0,-967.0,361.0
16.0,-251.0,64.0,-248.0,75.0,7.0,58.0,-968.0,357.0
17.0,-254.0,65.0,-250.0,75.0,10.0,51.0,-974.0,355.0
18.0,-254.0,65.0,-252.0,74.0,9.0,56.0,-971.0,352.0
17.0,-255.0,66.0,-253.0,75.0,8.0,56.0,-977.0,353.0
20.0,-258.0,63.0,-253.0,75.0,4.0,55.0,-973.0,356.0
15.0,-255.0,64.0,-248.0,70.0,4.0,54.0,-974.0,354.0
19.0,-256.0,64.0,-247.0,67.0,-1.0,57.0,-974.0,349.0
16.0,-255.0,63.0,-240.0,70.0,0.0,54.0,-982.0,351.0
18.0,-257.0,63.0,-234.0,72.0,-3.0,54.0,-983.0,347.0
18.0,-259.0,62.0,-230.0,73.0,-3.0,53.0,-979.0,348.0
16.0,-257.0,63.0,-226.0,75.0,-5.0,52.0,-978.0,338.0
15.0,-257.0,60.0,-224.0,72.0,-4.0,53.0,-980.0,340.0
17.0,-256.0,62.0,-217.0,64.0,-6.0,53.0,-979.0,336.0
14.0,-257.0,58.0,-214.0,63.0,-4.0,55.0,-979.0,334.0
17.0,-260.0,60.0,-210.0,66.0,-3.0,54.0,-983.0,335.0
16.0,-258.0,59.0,-202.0,66.0,-1.0,53.0,-982.0,335.0
17.0,-255.0,58.0,-196.0,67.0,0.0,53.0,-978.0,329.0
16.0,-256.0,64.0,-195.0,71.0,3.0,44.0,-975.0,336.0
15.0,-260.0,61.0,-194.0,73.0,3.0,44.0,-975.0,338.0
17.0,-259.0,59.0,-192.0,69.0,6.0,37.0,-979.0,334.0
14.0,-259.0,59.0,-192.0,64.0,5.0,37.0,-974.0,326.0
14.0,-258.0,60.0,-194.0,61.0,5.0,37.0,-977.0,326.0
9.0,-257.0,62.0,-192.0,58.0,5.0,37.0,-980.0,327.0
16.0,-259.0,58.0,-190.0,56.0,6.0,35.0,-984.0,324.0
16.0,-262.0,58.0,-189.0,54.0,2.0,34.0,-985.0,317.0
12.0,-258.0,56.0,-184.0,49.0,0.0,35.0,-985.0,316.0
12.0,-259.0,54.0,-180.0,51.0,-2.0,40.0,-989.0,310.0
15.0,-262.0,52.0,-176.0,51.0,-4.0,35.0,-996.0,317.0
12.0,-264.0,54.0,-168.0,50.0,-6.0,38.0,-989.0,313.0
14.0,-263.0,55.0,-159.0,50.0,-6.0,42.0,-996.0,314.0
16.0,-261.0,54.0,-144.0,52.0,-7.0,47.0,-995.0,317.0
17.0,-265.0,58.0,-131.0,53.0,-8.0,47.0,-996.0,304.0
16.0,-262.0,55.0,-124.0,55.0,-6.0,42.0,-992.0,312.0
15.0,-262.0,58.0,-120.0,52.0,-7.0,43.0,-996.0,312.0
15.0,-257.0,52.0,-114.0,46.0,-7.0,44.0,-998.0,310.0
17.0,-258.0,55.0,-111.0,45.0,-8.0,49.0,-996.0,313.0
16.0,-260.0,57.0,-104.0,42.0,-9.0,49.0,-993.0,310.0
18.0,-258.0,55.0,-100.0,39.0,-10.0,56.0,-990.0,317.0
18.0,-262.0,54.0,-95.0,35.0,-11.0,57.0,-989.0,316.0
18.0,-262.0,56.0,-91.0,39.0,-11.0,62.0,-989.0,315.0
20.0,-260.0,58.0,-88.0,40.0,-13.0,61.0,-992.0,323.0
22.0,-261.0,60.0,-86.0,42.0,-16.0,59.0,-988.0,326.0
23.0,-260.0,58.0,-84.0,45.0,-17.0,63.0,-978.0,328.0
18.0,-256.0,59.0,-83.0,45.0,-18.0,61.0,-980.0,331.0
18.0,-256.0,60.0,-84.0,46.0,-18.0,58.0,-973.0,328.0
18.0,-255.0,58.0,-84.0,46.0,-17.0,58.0,-972.0,333.0
17.0,-252.0,57.0,-85.0,46.0,-17.0,57.0,-968.0,329.0
19.0,-254.0,63.0,-89.0,48.0,-15.0,62.0,-970.0,338.0
18.0,-259.0,60.0,-95.0,49.0,-17.0,57.0,-971.0,334.0
18.0,-257.0,61.0,-99.0,48.0,-14.0,62.0,-970.0,330.0
18.0,-254.0,59.0,-104.0,44.0,-12.0,57.0,-976.0,333.0
21.0,-260.0,57.0,-111.0,41.0,-14.0,64.0,-983.0,323.0
17.0,-254.0,57.0,-119.0,39.0,-12.0,63.0,-978.0,320.0
23.0,-255.0,60.0,-124.0,39.0,-12.0,69.0,-979.0,321.0
22.0,-258.0,57.0,-128.0,38.0,-10.0,68.0,-977.0,318.0
18.0,-256.0,53.0,-129.0,39.0,-11.0,66.0,-981.0,326.0
22.0,-259.0,55.0,-129.0,39.0,-10.0,70.0,-983.0,316.0
23.0,-257.0,56.0,-125.0,42.0,-9.0,69.0,-979.0,316.0
20.0,-256.0,55.0,-124.0,41.0,-8.0,72.0,-981.0,313.0
23.0,-259.0,56.0,-123.0,42.0,-6.0,75.0,-982.0,307.0
20.0,-259.0,55.0,-122.0,42.0,-3.0,71.0,-989.0,310.0
20.0,-262.0,52.0,-120.0,43.0,-5.0,71.0,-992.0,311.0
25.0,-260.0,53.0,-119.0,44.0,-2.0,75.0,-998.0,308.0
21.0,-261.0,55.0,-117.0,45.0,-1.0,74.0,-990.0,305.0
21.0,-261.0,53.0,-114.0,48.0,1.0,73.0,-988.0,300.0
19.0,-260.0,55.0,-112.0,51.0,1.0,72.0,-992.0,305.0
22.0,-261.0,48.0,-113.0,53.0,3.0,79.0,-990.0,300.0
26.0,-258.0,54.0,-109.0,56.0,3.0,73.0,-988.0,303.0
22.0,-259.0,52.0,-106.0,59.0,4.0,77.0,-984.0,296.0
26.0,-260.0,53.0,-100.0,64.0,4.0,76.0,-983.0,295.0
22.0,-256.0,52.0,-97.0,68.0,5.0,75.0,-985.0,299.0
21.0,-258.0,49.0,-95.0,68.0,5.0,77.0,-986.0,295.0
24.0,-259.0,51.0,-94.0,67.0,8.0,81.0,-990.0,296.0
24.0,-258.0,46.0,-96.0,65.0,6.0,76.0,-997.0,292.0
21.0,-260.0,48.0,-94.0,65.0,7.0,77.0,-996.0,298.0
22.0,-260.0,50.0,-91.0,67.0,7.0,70.0,-997.0,296.0
21.0,-262.0,49.0,-88.0,69.0,7.0,69.0,-993.0,295.0
19.0,-261.0,51.0,-84.0,67.0,5.0,63.0,-1000.0,296.0
16.0,-262.0,49.0,-79.0,66.0,6.0,59.0,-997.0,296.0
18.0,-262.0,52.0,-75.0,63.0,5.0,55.0,-998.0,302.0
17.0,-262.0,54.0,-72.0,61.0,8.0,56.0,-991.0,306.0
17.0,-262.0,55.0,-69.0,58.0,3.0,52.0,-995.0,309.0
17.0,-262.0,55.0,-68.0,56.0,6.0,50.0,-996.0,313.0
18.0,-260.0,51.0,-65.0,56.0,2.0,51.0,-1000.0,312.0
18.0,-261.0,55.0,-63.0,58.0,3.0,52.0,-996.0,312.0
17.0,-257.0,51.0,-62.0,59.0,1.0,51.0,-996.0,305.0
17.0,-263.0,49.0,-63.0,62.0,2.0,47.0,-995.0,299.0
15.0,-262.0,51.0,-63.0,62.0,0.0,53.0,-994.0,292.0
15.0,-261.0,48.0,-61.0,65.0,2.0,54.0,-996.0,286.0
16.0,-260.0,52.0,-58.0,68.0,-1.0,46.0,-1002.0,290.0
17.0,-263.0,51.0,-52.0,69.0,1.0,42.0,-999.0,287.0
17.0,-264.0,44.0,-47.0,69.0,0.0,51.0,-998.0,277.0
16.0,-262.0,44.0,-43.0,68.0,1.0,47.0,-1003.0,280.0
16.0,-260.0,49.0,-39.0,68.0,1.0,50.0,-999.0,281.0
19.0,-261.0,49.0,-33.0,70.0,3.0,51.0,-1003.0,283.0
12.0,-259.0,52.0,-27.0,70.0,2.0,46.0,-1000.0,290.0
15.0,-262.0,46.0,-21.0,67.0,3.0,44.0,-997.0,283.0
13.0,-260.0,50.0,-18.0,64.0,2.0,47.0,-994.0,283.0
14.0,-262.0,49.0,-17.0,62.0,5.0,46.0,-997.0,287.0
15.0,-259.0,50.0,-15.0,63.0,1.0,43.0,-992.0,292.0
16.0,-260.0,52.0,-12.0,63.0,4.0,51.0,-998.0,286.0
17.0,-262.0,51.0,-10.0,61.0,2.0,44.0,-994.0,293.0
12.0,-260.0,52.0,-11.0,59.0,4.0,46.0,-990.0,294.0
16.0,-257.0,51.0,-10.0,56.0,3.0,51.0,-993.0,293.0
18.0,-261.0,57.0,-10.0,57.0,5.0,47.0,-987.0,296.0
15.0,-258.0,54.0,-11.0,56.0,3.0,51.0,-988.0,301.0
14.0,-259.0,56.0,-13.0,52.0,6.0,53.0,-990.0,303.0
15.0,-261.0,53.0,-16.0,48.0,5.0,52.0,-996.0,310.0
17.0,-259.0,53.0,-13.0,43.0,7.0,47.0,-991.0,311.0
14.0,-258.0,54.0,-7.0,42.0,5.0,54.0,-996.0,313.0
19.0,-259.0,51.0,-3.0,41.0,7.0,53.0,-992.0,310.0
18.0,-258.0,53.0,1.0,41.0,5.0,58.0,-985.0,306.0
15.0,-258.0,53.0,1.0,41.0,6.0,57.0,-985.0,313.0
17.0,-259.0,55.0,-1.0,40.0,1.0,57.0,-981.0,308.0
18.0,-257.0,55.0,-3.0,40.0,2.0,56.0,-986.0,306.0
19.0,-256.0,49.0,-10.0,41.0,0.0,55.0,-985.0,305.0
15.0,-258.0,51.0,-14.0,42.0,1.0,60.0,-986.0,306.0
16.0,-256.0,53.0,-18.0,43.0,-4.0,60.0,-991.0,303.0
19.0,-258.0,49.0,-21.0,44.0,-2.0,59.0,-990.0,301.0
16.0,-257.0,49.0,-22.0,45.0,-3.0,65.0,-985.0,295.0
18.0,-258.0,52.0,-25.0,46.0,1.0,65.0,-985.0,293.0
21.0,-258.0,48.0,-28.0,48.0,-2.0,66.0,-989.0,291.0
18.0,-256.0,47.0,-30.0,48.0,3.0,65.0,-984.0,294.0
19.0,-256.0,52.0,-27.0,48.0,0.0,67.0,-989.0,296.0
19.0,-262.0,51.0,-23.0,47.0,4.0,67.0,-991.0,297.0
18.0,-257.0,50.0,-16.0,46.0,3.0,68.0,-993.0,300.0
18.0,-257.0,52.0,-10.0,45.0,6.0,70.0,-996.0,299.0
21.0,-259.0,49.0,-8.0,44.0,4.0,68.0,-990.0,294.0
21.0,-260.0,49.0,-8.0,45.0,7.0,72.0,-986.0,297.0
23.0,-260.0,51.0,-11.0,47.0,3.0,71.0,-992.0,302.0
22.0,-262.0,53.0,-11.0,48.0,7.0,63.0,-990.0,312.0
21.0,-258.0,56.0,-10.0,48.0,4.0,67.0,-991.0,310.0
20.0,-260.0,57.0,-6.0,50.0,4.0,62.0,-987.0,311.0
16.0,-258.0,59.0,-3.0,50.0,2.0,57.0,-990.0,314.0
21.0,-257.0,53.0,-6.0,50.0,4.0,60.0,-979.0,314.0
20.0,-257.0,51.0,-11.0,48.0,0.0,56.0,-983.0,311.0
18.0,-260.0,54.0,-20.0,47.0,1.0,55.0,-980.0,311.0
17.0,-257.0,57.0,-27.0,46.0,-2.0,54.0,-983.0,312.0
18.0,-257.0,53.0,-34.0,44.0,1.0,56.0,-981.0,310.0
17.0,-257.0,53.0,-35.0,43.0,-3.0,56.0,-984.0,310.0
19.0,-259.0,52.0,-36.0,42.0,-1.0,60.0,-983.0,306.0
19.0,-260.0,57.0,-36.0,43.0,-4.0,56.0,-982.0,313.0
20.0,-257.0,52.0,-38.0,46.0,-2.0,54.0,-984.0,310.0
17.0,-257.0,56.0,-39.0,48.0,-7.0,55.0,-982.0,313.0
17.0,-255.0,55.0,-40.0,49.0,-5.0,60.0,-985.0,317.0
19.0,-258.0,54.0,-41.0,51.0,-10.0,55.0,-985.0,315.0
19.0,-260.0,54.0,-43.0,52.0,-7.0,54.0,-979.0,312.0
16.0,-254.0,56.0,-45.0,56.0,-11.0,58.0,-984.0,315.0
16.0,-256.0,53.0,-49.0,57.0,-8.0,55.0,-981.0,309.0
18.0,-257.0,52.0,-53.0,57.0,-9.0,58.0,-975.0,314.0
19.0,-256.0,55.0,-59.0,56.0,-6.0,62.0,-980.0,309.0
16.0,-255.0,58.0,-63.0,56.0,-7.0,60.0,-981.0,307.0
18.0,-257.0,58.0,-70.0,56.0,-4.0,59.0,-980.0,310.0
22.0,-259.0,52.0,-76.0,58.0,-6.0,63.0,-982.0,311.0
22.0,-257.0,56.0,-80.0,57.0,-5.0,64.0,-984.0,310.0
18.0,-255.0,51.0,-81.0,58.0,-6.0,64.0,-980.0,309.0
20.0,-257.0,53.0,-84.0,55.0,-2.0,63.0,-982.0,308.0
21.0,-258.0,54.0,-86.0,55.0,-5.0,60.0,-984.0,304.0
18.0,-254.0,54.0,-89.0,59.0,-4.0,61.0,-977.0,304.0
19.0,-258.0,53.0,-90.0,57.0,-6.0,62.0,-983.0,303.0
20.0,-258.0,52.0,-92.0,57.0,-5.0,65.0,-980.0,300.0
19.0,-258.0,49.0,-98.0,59.0,-8.0,58.0,-981.0,297.0
18.0,-254.0,53.0,-103.0,59.0,-5.0,60.0,-980.0,303.0
20.0,-258.0,52.0,-107.0,60.0,-7.0,56.0,-986.0,304.0
15.0,-259.0,54.0,-107.0,62.0,-5.0,61.0,-986.0,303.0
15.0,-260.0,54.0,-108.0,63.0,-8.0,58.0,-987.0,303.0
18.0,-256.0,53.0,-109.0,63.0,-4.0,60.0,-985.0,303.0
15.0,-255.0,50.0,-108.0,62.0,-6.0,57.0,-980.0,297.0
19.0,-259.0,49.0,-109.0,66.0,-3.0,53.0,-988.0,292.0
17.0,-257.0,50.0,-110.0,65.0,-4.0,55.0,-984.0,293.0
19.0,-259.0,54.0,-110.0,65.0,-1.0,57.0,-984.0,291.0
15.0,-257.0,49.0,-109.0,63.0,-3.0,57.0,-987.0,288.0
17.0,-261.0,47.0,-110.0,62.0,-3.0,54.0,-994.0,288.0
17.0,-261.0,48.0,-109.0,58.0,-6.0,59.0,-990.0,287.0
18.0,-261.0,47.0,-106.0,56.0,-4.0,57.0,-998.0,284.0
18.0,-262.0,48.0,-102.0,58.0,-7.0,58.0,-1007.0,286.0
16.0,-264.0,50.0,-97.0,61.0,-3.0,58.0,-1004.0,281.0
18.0,-261.0,43.0,-92.0,60.0,-6.0,54.0,-1003.0,280.0
15.0,-261.0,46.0,-88.0,61.0,-2.0,57.0,-1002.0,279.0
17.0,-261.0,49.0,-84.0,61.0,-2.0,62.0,-1004.0,276.0
20.0,-262.0,45.0,-77.0,62.0,-1.0,63.0,-999.0,282.0
21.0,-261.0,47.0,-73.0,62.0,-1.0,57.0,-1003.0,274.0
21.0,-262.0,42.0,-70.0,64.0,1.0,61.0,-999.0,279.0
20.0,-263.0,46.0,-69.0,63.0,1.0,61.0,-998.0,280.0
17.0,-261.0,45.0,-64.0,60.0,4.0,64.0,-991.0,276.0
20.0,-257.0,44.0,-65.0,57.0,5.0,64.0,-992.0,278.0
19.0,-259.0,46.0,-69.0,56.0,5.0,60.0,-993.0,276.0
20.0,-262.0,44.0,-73.0,55.0,6.0,60.0,-993.0,278.0
17.0,-258.0,42.0,-75.0,53.0,8.0,64.0,-998.0,276.0
19.0,-262.0,46.0,-78.0,51.0,7.0,59.0,-997.0,275.0
20.0,-265.0,45.0,-79.0,53.0,8.0,58.0,-996.0,272.0
19.0,-260.0,44.0,-80.0,53.0,5.0,58.0,-996.0,275.0
18.0,-261.0,46.0,-83.0,52.0,6.0,55.0,-999.0,275.0
20.0,-262.0,47.0,-82.0,50.0,3.0,59.0,-1003.0,269.0
16.0,-261.0,43.0,-79.0,52.0,4.0,58.0,-1000.0,258.0
18.0,-260.0,44.0,-76.0,53.0,0.0,60.0,-1013.0,257.0
19.0,-264.0,39.0,-70.0,54.0,1.0,66.0,-1012.0,257.0
22.0,-264.0,37.0,-64.0,56.0,0.0,62.0,-1008.0,249.0
19.0,-261.0,37.0,-58.0,59.0,0.0,61.0,-1005.0,254.0
20.0,-265.0,41.0,-54.0,60.0,2.0,63.0,-1004.0,260.0
17.0,-262.0,47.0,-48.0,62.0,4.0,51.0,-1004.0,270.0
15.0,-263.0,45.0,-44.0,63.0,4.0,51.0,-1001.0,283.0
16.0,-261.0,51.0,-41.0,60.0,5.0,49.0,-1000.0,291.0
17.0,-260.0,53.0,-41.0,54.0,5.0,42.0,-1002.0,303.0
15.0,-262.0,53.0,-39.0,49.0,5.0,36.0,-997.0,300.0
17.0,-261.0,55.0,-40.0,40.0,4.0,49.0,-996.0,297.0
16.0,-258.0,53.0,-45.0,38.0,3.0,41.0,-990.0,293.0
20.0,-259.0,49.0,-52.0,38.0,2.0,51.0,-991.0,290.0
15.0,-258.0,43.0,-62.0,36.0,3.0,54.0,-992.0,282.0
14.0,-261.0,48.0,-70.0,38.0,2.0,56.0,-991.0,280.0
17.0,-263.0,47.0,-77.0,38.0,2.0,53.0,-996.0,277.0
19.0,-263.0,44.0,-78.0,39.0,0.0,55.0,-990.0,275.0
18.0,-261.0,43.0,-77.0,41.0,2.0,60.0,-999.0,275.0
19.0,-263.0,46.0,-74.0,39.0,0.0,59.0,-995.0,271.0
18.0,-263.0,43.0,-70.0,37.0,-1.0,56.0,-1000.0,267.0
20.0,-265.0,47.0,-69.0,36.0,-2.0,57.0,-1005.0,266.0
19.0,-263.0,38.0,-69.0,37.0,-2.0,60.0,-1002.0,266.0
19.0,-264.0,38.0,-68.0,37.0,-2.0,61.0,-1004.0,264.0
21.0,-262.0,42.0,-66.0,39.0,-1.0,59.0,-1008.0,263.0
21.0,-262.0,40.0,-62.0,42.0,-2.0,68.0,-1006.0,256.0
21.0,-262.0,46.0,-60.0,43.0,0.0,66.0,-1003.0,262.0
20.0,-261.0,42.0,-57.0,49.0,0.0,67.0,-1007.0,254.0
23.0,-263.0,39.0,-57.0,51.0,2.0,60.0,-1003.0,253.0
21.0,-263.0,45.0,-55.0,52.0,3.0,71.0,-1003.0,259.0
20.0,-265.0,46.0,-54.0,52.0,6.0,65.0,-1007.0,263.0
24.0,-261.0,49.0,-48.0,52.0,8.0,66.0,-1008.0,270.0
18.0,-264.0,42.0,-43.0,51.0,9.0,63.0,-1009.0,266.0
19.0,-263.0,43.0,-35.0,50.0,9.0,63.0,-1009.0,268.0
19.0,-263.0,44.0,-31.0,50.0,8.0,61.0,-1012.0,262.0
20.0,-264.0,45.0,-30.0,51.0,5.0,66.0,-1008.0,269.0
20.0,-265.0,44.0,-28.0,51.0,3.0,62.0,-1010.0,262.0
21.0,-265.0,42.0,-26.0,49.0,0.0,64.0,-1010.0,267.0
19.0,-262.0,39.0,-24.0,49.0,1.0,64.0,-1009.0,263.0
21.0,-262.0,42.0,-20.0,51.0,-2.0,63.0,-1010.0,263.0
20.0,-264.0,45.0,-16.0,53.0,-1.0,61.0,-994.0,261.0
18.0,-262.0,39.0,-12.0,57.0,0.0,65.0,-1002.0,257.0
17.0,-261.0,42.0,-10.0,58.0,-2.0,63.0,-999.0,258.0
17.0,-259.0,42.0,-8.0,57.0,-3.0,58.0,-1002.0,262.0
18.0,-264.0,43.0,-10.0,57.0,-2.0,52.0,-1002.0,263.0
21.0,-264.0,45.0,-11.0,56.0,-1.0,60.0,-1005.0,263.0
20.0,-264.0,47.0,-12.0,57.0,-1.0,55.0,-1002.0,266.0
19.0,-262.0,47.0,-12.0,57.0,0.0,56.0,-1003.0,272.0
20.0,-264.0,44.0,-11.0,56.0,-1.0,59.0,-1004.0,271.0
15.0,-261.0,42.0,-10.0,57.0,0.0,56.0,-995.0,267.0
19.0,-261.0,41.0,-9.0,55.0,-1.0,59.0,-1000.0,270.0
19.0,-260.0,43.0,-8.0,56.0,0.0,60.0,-996.0,272.0
16.0,-263.0,43.0,-9.0,60.0,0.0,57.0,-1001.0,269.0
17.0,-264.0,43.0,-8.0,59.0,1.0,52.0,-999.0,272.0
17.0,-260.0,43.0,-7.0,59.0,1.0,56.0,-1002.0,267.0
16.0,-262.0,42.0,-6.0,59.0,2.0,57.0,-1005.0,268.0
18.0,-261.0,41.0,-6.0,60.0,2.0,58.0,-1000.0,266.0
19.0,-262.0,42.0,-8.0,61.0,3.0,56.0,-998.0,265.0
19.0,-263.0,42.0,-9.0,59.0,1.0,55.0,-1005.0,265.0
18.0,-263.0,46.0,-9.0,57.0,1.0,60.0,-1003.0,277.0
20.0,-262.0,46.0,-9.0,56.0,0.0,60.0,-1003.0,274.0
19.0,-262.0,44.0,-5.0,57.0,0.0,54.0,-995.0,272.0
17.0,-264.0,42.0,-3.0,58.0,-2.0,57.0,-997.0,267.0
17.0,-259.0,45.0,-2.0,59.0,0.0,61.0,-992.0,271.0
19.0,-260.0,43.0,-3.0,59.0,0.0,57.0,-995.0,274.0
19.0,-258.0,45.0,-5.0,59.0,0.0,62.0,-1000.0,267.0
17.0,-258.0,47.0,-7.0,58.0,-1.0,53.0,-1001.0,272.0
18.0,-258.0,44.0,-7.0,57.0,0.0,57.0,-1000.0,273.0
17.0,-260.0,46.0,-7.0,58.0,-1.0,57.0,-1001.0,273.0
18.0,-263.0,44.0,-8.0,57.0,0.0,56.0,-999.0,275.0
19.0,-261.0,47.0,-7.0,58.0,-1.0,57.0,-995.0,270.0
18.0,-263.0,45.0,-5.0,57.0,0.0,55.0,-1001.0,270.0
18.0,-261.0,44.0,-4.0,58.0,-2.0,57.0,-997.0,272.0
16.0,-262.0,46.0,-4.0,57.0,-1.0,60.0,-998.0,274.0
18.0,-258.0,44.0,-5.0,56.0,-3.0,51.0,-997.0,269.0
15.0,-259.0,42.0,-6.0,56.0,-1.0,55.0,-994.0,268.0
17.0,-261.0,46.0,-7.0,57.0,-3.0,54.0,-1002.0,267.0
18.0,-262.0,44.0,-7.0,57.0,-3.0,62.0,-1003.0,271.0
15.0,-263.0,46.0,-6.0,59.0,-5.0,54.0,-1005.0,273.0
19.0,-263.0,47.0,-5.0,60.0,-4.0,53.0,-993.0,273.0
19.0,-262.0,45.0,-1.0,60.0,-6.0,56.0,-996.0,274.0
16.0,-263.0,43.0,0.0,61.0,-6.0,57.0,-997.0,275.0
19.0,-262.0,46.0,0.0,60.0,-8.0,57.0,-1000.0,272.0
17.0,-262.0,46.0,-1.0,61.0,-7.0,51.0,-1002.0,275.0
18.0,-264.0,45.0,-1.0,60.0,-9.0,51.0,-1001.0,274.0
18.0,-261.0,42.0,-1.0,59.0,-7.0,51.0,-997.0,271.0
17.0,-258.0,45.0,-1.0,60.0,-8.0,55.0,-997.0,271.0
15.0,-262.0,41.0,1.0,59.0,-7.0,50.0,-999.0,270.0
16.0,-260.0,47.0,2.0,57.0,-7.0,54.0,-997.0,275.0
17.0,-259.0,45.0,2.0,55.0,-6.0,48.0,-996.0,270.0
16.0,-260.0,44.0,1.0,52.0,-8.0,53.0,-991.0,271.0
17.0,-259.0,44.0,0.0,53.0,-8.0,53.0,-992.0,272.0
18.0,-261.0,46.0,-3.0,53.0,-8.0,54.0,-992.0,274.0
18.0,-263.0,48.0,-3.0,53.0,-6.0,57.0,-995.0,275.0
19.0,-263.0,44.0,-2.0,53.0,-8.0,57.0,-1004.0,274.0
19.0,-263.0,44.0,-3.0,54.0,-8.0,57.0,-1005.0,276.0
16.0,-264.0,48.0,-2.0,54.0,-9.0,57.0,-1000.0,271.0
15.0,-262.0,43.0,-1.0,55.0,-6.0,62.0,-997.0,272.0
19.0,-264.0,46.0,0.0,55.0,-9.0,55.0,-1001.0,274.0
19.0,-260.0,46.0,0.0,55.0,-7.0,63.0,-1004.0,270.0
18.0,-262.0,46.0,1.0,53.0,-9.0,66.0,-1002.0,275.0
18.0,-262.0,46.0,2.0,53.0,-6.0,65.0,-1000.0,273.0
20.0,-260.0,41.0,2.0,53.0,-8.0,66.0,-999.0,270.0
20.0,-260.0,45.0,5.0,52.0,-7.0,65.0,-999.0,270.0
21.0,-264.0,43.0,6.0,51.0,-9.0,65.0,-995.0,270.0
22.0,-260.0,45.0,4.0,52.0,-7.0,61.0,-991.0,273.0
20.0,-260.0,43.0,4.0,54.0,-9.0,66.0,-995.0,271.0
20.0,-257.0,46.0,1.0,54.0,-9.0,63.0,-998.0,270.0
18.0,-259.0,43.0,-1.0,54.0,-10.0,62.0,-997.0,275.0
20.0,-261.0,44.0,-3.0,57.0,-9.0,63.0,-994.0,274.0
18.0,-260.0,43.0,-3.0,57.0,-12.0,64.0,-1002.0,284.0
22.0,-262.0,47.0,-4.0,59.0,-10.0,64.0,-997.0,283.0
22.0,-261.0,47.0,-3.0,61.0,-13.0,62.0,-1002.0,279.0
21.0,-263.0,45.0,-1.0,63.0,-9.0,60.0,-997.0,275.0
19.0,-261.0,44.0,3.0,64.0,-12.0,65.0,-1002.0,275.0
17.0,-259.0,44.0,4.0,64.0,-7.0,62.0,-1004.0,270.0
19.0,-264.0,42.0,5.0,63.0,-8.0,63.0,-1002.0,270.0
19.0,-262.0,46.0,6.0,60.0,-4.0,59.0,-1001.0,269.0
20.0,-260.0,41.0,8.0,59.0,-6.0,60.0,-1000.0,271.0
20.0,-264.0,45.0,9.0,58.0,-3.0,62.0,-1002.0,269.0
20.0,-262.0,41.0,12.0,57.0,-5.0,60.0,-997.0,272.0
21.0,-262.0,44.0,13.0,57.0,-3.0,66.0,-997.0,271.0
17.0,-261.0,43.0,14.0,59.0,-3.0,57.0,-997.0,276.0
19.0,-260.0,47.0,16.0,58.0,-1.0,61.0,-992.0,275.0
18.0,-261.0,46.0,15.0,58.0,-3.0,59.0,-991.0,276.0
17.0,-262.0,44.0,14.0,60.0,0.0,62.0,-992.0,276.0
18.0,-257.0,44.0,13.0,62.0,-2.0,58.0,-992.0,279.0
21.0,-261.0,44.0,11.0,63.0,-2.0,65.0,-994.0,278.0
18.0,-262.0,48.0,8.0,63.0,-4.0,56.0,-990.0,282.0
16.0,-258.0,47.0,10.0,64.0,-2.0,58.0,-999.0,280.0
19.0,-261.0,45.0,11.0,63.0,-4.0,59.0,-997.0,278.0
20.0,-261.0,50.0,11.0,62.0,-1.0,62.0,-999.0,278.0
19.0,-261.0,49.0,9.0,61.0,-5.0,60.0,-996.0,276.0
19.0,-260.0,45.0,8.0,61.0,-2.0,57.0,-993.0,278.0
18.0,-261.0,47.0,5.0,59.0,-4.0,61.0,-991.0,275.0
20.0,-263.0,45.0,5.0,57.0,-1.0,61.0,-999.0,273.0
18.0,-259.0,47.0,3.0,57.0,-3.0,59.0,-993.0,275.0
20.0,-260.0,44.0,4.0,56.0,-2.0,55.0,-996.0,275.0
18.0,-261.0,46.0,4.0,56.0,-3.0,58.0,-998.0,279.0
17.0,-256.0,47.0,5.0,56.0,1.0,55.0,-996.0,277.0
16.0,-263.0,46.0,6.0,56.0,-2.0,60.0,-998.0,279.0
16.0,-261.0,51.0,6.0,59.0,1.0,63.0,-990.0,275.0
19.0,-264.0,46.0,5.0,60.0,-1.0,57.0,-993.0,281.0
17.0,-261.0,47.0,3.0,62.0,1.0,60.0,-993.0,276.0
17.0,-258.0,48.0,1.0,61.0,-2.0,58.0,-988.0,276.0
18.0,-260.0,49.0,-1.0,61.0,1.0,61.0,-995.0,272.0
14.0,-259.0,42.0,-3.0,59.0,0.0,57.0,-995.0,276.0
19.0,-261.0,46.0,-5.0,61.0,2.0,57.0,-993.0,276.0
18.0,-260.0,48.0,-5.0,59.0,-2.0,65.0,-994.0,275.0
18.0,-259.0,47.0,-3.0,59.0,0.0,61.0,-1003.0,280.0
17.0,-259.0,48.0,-4.0,59.0,-2.0,62.0,-994.0,279.0
19.0,-260.0,46.0,-4.0,58.0,0.0,58.0,-997.0,277.0
19.0,-262.0,44.0,-5.0,57.0,-3.0,58.0,-995.0,273.0
18.0,-259.0,48.0,-6.0,57.0,-2.0,61.0,-992.0,275.0
16.0,-258.0,51.0,-6.0,57.0,-4.0,63.0,-989.0,284.0
19.0,-258.0,48.0,-6.0,57.0,-2.0,57.0,-992.0,284.0
19.0,-262.0,49.0,-4.0,57.0,-5.0,58.0,-987.0,279.0
18.0,-262.0,50.0,-2.0,59.0,-2.0,59.0,-995.0,281.0
18.0,-259.0,51.0,-2.0,59.0,-4.0,58.0,-993.0,281.0
19.0,-260.0,50.0,-4.0,60.0,-2.0,57.0,-989.0,281.0
20.0,-262.0,51.0,-4.0,59.0,-4.0,56.0,-997.0,278.0
19.0,-262.0,45.0,-9.0,60.0,-2.0,62.0,-992.0,280.0
18.0,-260.0,48.0,-9.0,60.0,-5.0,59.0,-991.0,281.0
21.0,-262.0,48.0,-11.0,59.0,-3.0,60.0,-1000.0,284.0
18.0,-261.0,48.0,-10.0,58.0,-4.0,62.0,-996.0,279.0
17.0,-260.0,46.0,-9.0,59.0,-1.0,62.0,-992.0,284.0
17.0,-261.0,51.0,-9.0,58.0,-3.0,60.0,-995.0,279.0
18.0,-260.0,48.0,-10.0,58.0,-1.0,63.0,-991.0,275.0
20.0,-262.0,46.0,-11.0,59.0,-3.0,61.0,-992.0,276.0
19.0,-260.0,46.0,-12.0,58.0,-1.0,61.0,-994.0,275.0
18.0,-258.0,41.0,-11.0,60.0,-3.0,57.0,-1001.0,279.0
20.0,-260.0,42.0,-10.0,59.0,-3.0,60.0,-990.0,276.0
18.0,-262.0,48.0,-14.0,60.0,-5.0,61.0,-991.0,275.0
18.0,-261.0,46.0,-15.0,60.0,-1.0,59.0,-994.0,285.0
19.0,-262.0,45.0,-14.0,58.0,-4.0,56.0,-996.0,277.0
17.0,-261.0,43.0,-13.0,58.0,-2.0,57.0,-996.0,283.0
18.0,-260.0,46.0,-13.0,59.0,-4.0,58.0,-992.0,284.0
19.0,-259.0,47.0,-13.0,60.0,-3.0,60.0,-990.0,286.0
19.0,-259.0,47.0,-13.0,60.0,-4.0,60.0,-990.0,284.0
18.0,-263.0,45.0,-14.0,61.0,-2.0,57.0,-996.0,283.0
18.0,-262.0,47.0,-16.0,61.0,-4.0,56.0,-994.0,285.0
19.0,-262.0,48.0,-17.0,61.0,-2.0,63.0,-993.0,289.0
20.0,-261.0,46.0,-19.0,60.0,-3.0,61.0,-997.0,288.0
15.0,-261.0,49.0,-20.0,59.0,-2.0,55.0,-1000.0,282.0
19.0,-258.0,47.0,-18.0,57.0,-3.0,56.0,-993.0,282.0
21.0,-261.0,48.0,-19.0,58.0,-2.0,61.0,-988.0,283.0
17.0,-259.0,48.0,-18.0,56.0,-4.0,58.0,-994.0,276.0
19.0,-262.0,45.0,-21.0,55.0,-2.0,60.0,-994.0,276.0
20.0,-262.0,48.0,-21.0,56.0,-4.0,57.0,-997.0,277.0
18.0,-261.0,45.0,-20.0,57.0,-3.0,61.0,-994.0,273.0
20.0,-261.0,43.0,-19.0,58.0,-5.0,59.0,-995.0,277.0
18.0,-259.0,46.0,-15.0,57.0,-2.0,58.0,-995.0,281.0
20.0,-262.0,44.0,-13.0,59.0,-5.0,56.0,-994.0,277.0
19.0,-262.0,47.0,-14.0,61.0,-4.0,56.0,-992.0,273.0
18.0,-262.0,44.0,-16.0,60.0,-6.0,62.0,-990.0,283.0
17.0,-262.0,45.0,-18.0,60.0,-4.0,61.0,-992.0,274.0
15.0,-259.0,40.0,-20.0,58.0,-6.0,58.0,-997.0,276.0
20.0,-261.0,44.0,-20.0,58.0,-5.0,62.0,-1000.0,274.0
19.0,-263.0,46.0,-18.0,59.0,-5.0,62.0,-1002.0,279.0
18.0,-262.0,50.0,-16.0,60.0,-4.0,60.0,-1003.0,276.0
18.0,-261.0,45.0,-15.0,61.0,-5.0,58.0,-994.0,275.0
18.0,-262.0,44.0,-13.0,60.0,-5.0,55.0,-1000.0,278.0
17.0,-260.0,47.0,-12.0,59.0,-5.0,60.0,-997.0,277.0
18.0,-260.0,43.0,-11.0,57.0,-3.0,54.0,-989.0,278.0
23.0,-263.0,41.0,-11.0,58.0,-5.0,63.0,-997.0,276.0
19.0,-263.0,45.0,-11.0,56.0,-3.0,63.0,-994.0,275.0
19.0,-264.0,46.0,-11.0,57.0,-3.0,62.0,-993.0,280.0
18.0,-260.0,46.0,-13.0,56.0,-1.0,63.0,-994.0,281.0
22.0,-262.0,45.0,-13.0,57.0,-2.0,60.0,-992.0,276.0
19.0,-262.0,44.0,-13.0,56.0,-1.0,63.0,-1000.0,279.0
21.0,-262.0,44.0,-16.0,58.0,-2.0,62.0,-993.0,277.0
19.0,-264.0,46.0,-15.0,57.0,0.0,58.0,-997.0,274.0
18.0,-263.0,46.0,-15.0,57.0,-2.0,57.0,-992.0,279.0
19.0,-260.0,43.0,-16.0,57.0,-1.0,57.0,-997.0,279.0
16.0,-260.0,43.0,-15.0,58.0,-1.0,59.0,-993.0,276.0
20.0,-260.0,45.0,-14.0,56.0,-3.0,61.0,-997.0,275.0
17.0,-258.0,46.0,-13.0,54.0,-1.0,64.0,-1000.0,276.0
17.0,-260.0,47.0,-11.0,54.0,-1.0,60.0,-993.0,277.0
19.0,-259.0,46.0,-10.0,55.0,-2.0,64.0,-997.0,274.0
18.0,-261.0,48.0,-7.0,57.0,-1.0,60.0,-989.0,280.0
17.0,-258.0,44.0,-7.0,57.0,-2.0,64.0,-990.0,279.0
18.0,-261.0,43.0,-10.0,57.0,-1.0,64.0,-991.0,278.0
18.0,-261.0,47.0,-11.0,56.0,-2.0,62.0,-994.0,283.0
20.0,-262.0,49.0,-14.0,58.0,-2.0,57.0,-994.0,279.0
19.0,-258.0,48.0,-14.0,59.0,-4.0,62.0,-998.0,277.0
16.0,-260.0,46.0,-15.0,60.0,-4.0,58.0,-993.0,287.0
19.0,-262.0,44.0,-18.0,60.0,-4.0,62.0,-993.0,283.0
19.0,-260.0,47.0,-19.0,61.0,-4.0,57.0,-994.0,282.0
21.0,-261.0,48.0,-20.0,62.0,-5.0,57.0,-992.0,285.0
20.0,-263.0,48.0,-22.0,62.0,-5.0,61.0,-997.0,284.0
19.0,-264.0,46.0,-23.0,64.0,-5.0,56.0,-998.0,280.0
18.0,-264.0,44.0,-21.0,60.0,-4.0,64.0,-998.0,283.0
20.0,-263.0,45.0,-19.0,60.0,-3.0,63.0,-1000.0,275.0
19.0,-263.0,46.0,-16.0,59.0,-3.0,63.0,-1002.0,276.0
20.0,-261.0,42.0,-14.0,57.0,-2.0,57.0,-1001.0,269.0
17.0,-259.0,47.0,-14.0,55.0,-2.0,61.0,-995.0,270.0
18.0,-264.0,47.0,-14.0,54.0,-2.0,64.0,-1003.0,276.0
21.0,-263.0,46.0,-12.0,54.0,0.0,60.0,-998.0,277.0
17.0,-261.0,43.0,-9.0,53.0,0.0,60.0,-1000.0,276.0
19.0,-262.0,49.0,-7.0,56.0,-1.0,58.0,-990.0,281.0
19.0,-257.0,46.0,-6.0,58.0,-2.0,60.0,-986.0,279.0
18.0,-259.0,48.0,-8.0,60.0,-3.0,57.0,-994.0,279.0
20.0,-260.0,47.0,-12.0,61.0,-4.0,60.0,-991.0,280.0
17.0,-259.0,47.0,-14.0,61.0,-4.0,64.0,-993.0,278.0
17.0,-256.0,46.0,-16.0,61.0,-5.0,61.0,-1000.0,278.0
20.0,-259.0,48.0,-16.0,62.0,-4.0,58.0,-998.0,278.0
19.0,-262.0,46.0,-15.0,61.0,-5.0,61.0,-998.0,281.0
19.0,-262.0,46.0,-15.0,61.0,-5.0,57.0,-995.0,278.0
19.0,-262.0,48.0,-14.0,60.0,-3.0,58.0,-997.0,279.0
20.0,-263.0,45.0,-15.0,57.0,-4.0,58.0,-996.0,277.0
18.0,-265.0,48.0,-15.0,56.0,-3.0,59.0,-996.0,276.0
18.0,-262.0,48.0,-16.0,56.0,-2.0,57.0,-994.0,275.0
17.0,-262.0,46.0,-15.0,57.0,-3.0,65.0,-995.0,276.0
20.0,-265.0,47.0,-15.0,57.0,-3.0,60.0,-994.0,282.0
18.0,-263.0,46.0,-14.0,55.0,-2.0,57.0,-995.0,277.0
17.0,-260.0,44.0,-14.0,56.0,-3.0,59.0,-997.0,275.0
21.0,-261.0,46.0,-12.0,56.0,-2.0,57.0,-991.0,278.0
18.0,-262.0,46.0,-12.0,56.0,-1.0,61.0,-996.0,277.0
18.0,-260.0,48.0,-12.0,58.0,-2.0,57.0,-997.0,278.0
19.0,-260.0,46.0,-11.0,59.0,-1.0,62.0,-994.0,278.0
17.0,-260.0,45.0,-11.0,58.0,-1.0,61.0,-998.0,282.0
22.0,-261.0,44.0,-12.0,59.0,-1.0,55.0,-991.0,282.0
16.0,-260.0,45.0,-11.0,61.0,-1.0,60.0,-995.0,279.0
16.0,-264.0,51.0,-11.0,60.0,-3.0,60.0,-996.0,278.0
19.0,-259.0,45.0,-9.0,60.0,-2.0,58.0,-994.0,277.0
19.0,-260.0,45.0,-10.0,60.0,-5.0,63.0,-988.0,277.0
21.0,-262.0,46.0,-11.0,58.0,-4.0,58.0,-1001.0,274.0
18.0,-262.0,43.0,-13.0,60.0,-3.0,66.0,-997.0,276.0
20.0,-262.0,46.0,-13.0,60.0,-4.0,63.0,-994.0,284.0
19.0,-260.0,45.0,-10.0,60.0,-4.0,67.0,-1000.0,277.0
19.0,-259.0,44.0,-8.0,60.0,-4.0,66.0,-996.0,279.0
21.0,-261.0,48.0,-7.0,60.0,-4.0,62.0,-996.0,278.0
21.0,-259.0,48.0,-8.0,59.0,-2.0,61.0,-989.0,284.0
18.0,-261.0,46.0,-7.0,61.0,-2.0,57.0,-991.0,279.0
20.0,-263.0,49.0,-7.0,60.0,-1.0,60.0,-993.0,276.0
20.0,-263.0,42.0,-8.0,61.0,-2.0,59.0,-993.0,279.0
20.0,-262.0,49.0,-10.0,60.0,-2.0,64.0,-992.0,280.0
20.0,-261.0,45.0,-10.0,60.0,-3.0,62.0,-996.0,280.0
20.0,-261.0,46.0,-9.0,60.0,-2.0,58.0,-995.0,280.0
19.0,-260.0,48.0,-10.0,60.0,-2.0,59.0,-993.0,282.0
21.0,-262.0,46.0,-11.0,62.0,-1.0,56.0,-997.0,280.0
19.0,-261.0,47.0,-11.0,63.0,-3.0,62.0,-995.0,275.0
19.0,-261.0,45.0,-10.0,63.0,-2.0,62.0,-996.0,280.0
22.0,-261.0,45.0,-11.0,63.0,-3.0,66.0,-991.0,282.0
18.0,-260.0,45.0,-10.0,64.0,0.0,65.0,-997.0,276.0
21.0,-260.0,46.0,-9.0,64.0,-1.0,56.0,-999.0,282.0
18.0,-261.0,45.0,-8.0,63.0,-1.0,57.0,-997.0,281.0
21.0,-262.0,46.0,-9.0,61.0,-3.0,59.0,-999.0,279.0
19.0,-262.0,46.0,-10.0,61.0,-2.0,57.0,-993.0,278.0
19.0,-261.0,46.0,-10.0,60.0,-2.0,56.0,-992.0,277.0
18.0,-260.0,44.0,-9.0,60.0,-1.0,59.0,-992.0,281.0
20.0,-260.0,48.0,-8.0,59.0,-3.0,55.0,-997.0,279.0
18.0,-263.0,52.0,-7.0,59.0,-2.0,62.0,-993.0,277.0
19.0,-261.0,50.0,-7.0,58.0,-5.0,60.0,-992.0,278.0
17.0,-263.0,47.0,-8.0,59.0,-1.0,55.0,-998.0,278.0
17.0,-260.0,46.0,-7.0,59.0,-5.0,62.0,-999.0,277.0
19.0,-260.0,47.0,-9.0,58.0,-2.0,57.0,-996.0,280.0
20.0,-262.0,46.0,-9.0,59.0,-4.0,58.0,-994.0,283.0
18.0,-259.0,45.0,-7.0,59.0,-2.0,58.0,-987.0,276.0
17.0,-261.0,45.0,-8.0,60.0,-4.0,58.0,-997.0,281.0
15.0,-257.0,46.0,-9.0,60.0,-2.0,62.0,-991.0,281.0
20.0,-260.0,49.0,-9.0,60.0,-5.0,59.0,-997.0,282.0
20.0,-261.0,50.0,-10.0,58.0,-2.0,54.0,-997.0,279.0
23.0,-263.0,47.0,-9.0,59.0,-4.0,63.0,-997.0,277.0
20.0,-264.0,47.0,-9.0,58.0,-3.0,62.0,-993.0,279.0
19.0,-258.0,46.0,-8.0,57.0,-4.0,56.0,-1001.0,276.0
19.0,-262.0,46.0,-7.0,57.0,-2.0,60.0,-1002.0,275.0
21.0,-261.0,49.0,-7.0,58.0,-4.0,59.0,-1000.0,277.0
19.0,-262.0,49.0,-6.0,59.0,-3.0,57.0,-1001.0,284.0
19.0,-261.0,46.0,-6.0,60.0,-5.0,59.0,-994.0,276.0
19.0,-262.0,46.0,-7.0,60.0,-3.0,59.0,-1002.0,276.0
18.0,-259.0,42.0,-8.0,62.0,-6.0,60.0,-993.0,280.0
22.0,-263.0,48.0,-7.0,62.0,-3.0,61.0,-996.0,275.0
20.0,-261.0,46.0,-6.0,63.0,-6.0,60.0,-994.0,276.0
18.0,-262.0,50.0,-6.0,63.0,-3.0,58.0,-999.0,283.0
20.0,-262.0,46.0,-5.0,62.0,-5.0,65.0,-992.0,276.0
18.0,-262.0,44.0,-2.0,62.0,-2.0,62.0,-994.0,274.0
20.0,-262.0,50.0,-2.0,61.0,-4.0,62.0,-999.0,276.0
18.0,-259.0,45.0,-3.0,61.0,-3.0,64.0,-989.0,284.0
19.0,-262.0,44.0,-2.0,61.0,-5.0,64.0,-994.0,275.0
22.0,-261.0,45.0,-2.0,60.0,-1.0,64.0,-992.0,280.0
21.0,-263.0,43.0,-1.0,61.0,-4.0,62.0,-997.0,283.0
17.0,-260.0,46.0,-1.0,59.0,-3.0,60.0,-997.0,283.0
19.0,-259.0,49.0,-1.0,59.0,-4.0,61.0,-997.0,281.0
20.0,-259.0,48.0,-2.0,60.0,-2.0,57.0,-989.0,280.0
19.0,-259.0,47.0,-3.0,61.0,-6.0,57.0,-991.0,286.0
20.0,-259.0,47.0,-5.0,60.0,-4.0,54.0,-984.0,278.0
18.0,-259.0,48.0,-6.0,60.0,-4.0,63.0,-997.0,286.0
22.0,-259.0,45.0,-8.0,59.0,-2.0,62.0,-994.0,282.0
19.0,-261.0,48.0,-10.0,59.0,-3.0,64.0,-993.0,282.0
18.0,-262.0,46.0,-9.0,61.0,-1.0,62.0,-993.0,283.0
20.0,-259.0,46.0,-7.0,61.0,-3.0,59.0,-993.0,277.0
20.0,-263.0,47.0,-8.0,60.0,-1.0,61.0,-992.0,276.0
18.0,-263.0,47.0,-11.0,60.0,-3.0,61.0,-992.0,279.0
19.0,-265.0,47.0,-10.0,60.0,-2.0,62.0,-993.0,284.0
18.0,-259.0,46.0,-10.0,60.0,-4.0,60.0,-995.0,285.0
19.0,-262.0,47.0,-11.0,59.0,-2.0,59.0,-994.0,281.0
18.0,-261.0,48.0,-11.0,60.0,-4.0,57.0,-994.0,280.0
18.0,-259.0,49.0,-13.0,61.0,-3.0,58.0,-989.0,286.0
19.0,-261.0,49.0,-12.0,59.0,-5.0,57.0,-990.0,276.0
20.0,-259.0,46.0,-13.0,59.0,-1.0,57.0,-989.0,282.0
21.0,-261.0,49.0,-16.0,58.0,-4.0,59.0,-989.0,285.0
19.0,-261.0,46.0,-16.0,58.0,-1.0,62.0,-993.0,283.0
21.0,-261.0,49.0,-18.0,57.0,-3.0,60.0,-988.0,284.0
20.0,-260.0,44.0,-16.0,57.0,0.0,63.0,-992.0,282.0
22.0,-261.0,48.0,-17.0,59.0,-3.0,59.0,-989.0,282.0
18.0,-262.0,50.0,-19.0,59.0,-2.0,64.0,-995.0,287.0
18.0,-259.0,50.0,-19.0,60.0,-3.0,63.0,-993.0,283.0
18.0,-261.0,44.0,-22.0,60.0,-1.0,62.0,-997.0,288.0
18.0,-261.0,48.0,-25.0,62.0,-3.0,62.0,-988.0,286.0
19.0,-260.0,51.0,-25.0,62.0,-3.0,57.0,-996.0,285.0
20.0,-262.0,47.0,-29.0,62.0,-7.0,59.0,-996.0,291.0
18.0,-259.0,51.0,-31.0,61.0,-5.0,56.0,-990.0,289.0
17.0,-259.0,50.0,-33.0,62.0,-7.0,57.0,-988.0,293.0
17.0,-263.0,46.0,-34.0,61.0,-4.0,55.0,-1000.0,288.0
17.0,-261.0,50.0,-34.0,61.0,-7.0,58.0,-991.0,280.0
18.0,-260.0,49.0,-35.0,61.0,-3.0,56.0,-997.0,279.0
16.0,-259.0,45.0,-35.0,59.0,-4.0,61.0,-999.0,277.0
19.0,-262.0,46.0,-33.0,59.0,-1.0,63.0,-998.0,275.0
21.0,-263.0,47.0,-33.0,57.0,-2.0,57.0,-1001.0,273.0
20.0,-261.0,44.0,-32.0,57.0,0.0,63.0,-1001.0,275.0
16.0,-260.0,44.0,-29.0,58.0,-2.0,60.0,-993.0,277.0
20.0,-260.0,46.0,-26.0,57.0,-1.0,61.0,-995.0,284.0
20.0,-258.0,47.0,-24.0,57.0,-3.0,61.0,-998.0,279.0
18.0,-257.0,44.0,-23.0,59.0,-1.0,62.0,-988.0,278.0
22.0,-259.0,48.0,-25.0,60.0,-3.0,60.0,-991.0,278.0
22.0,-259.0,45.0,-26.0,61.0,-1.0,62.0,-987.0,279.0
20.0,-259.0,46.0,-31.0,60.0,-5.0,64.0,-988.0,284.0
21.0,-260.0,45.0,-33.0,62.0,-4.0,67.0,-992.0,280.0
20.0,-261.0,45.0,-36.0,62.0,-5.0,59.0,-993.0,281.0
17.0,-260.0,46.0,-38.0,61.0,-4.0,61.0,-995.0,279.0
18.0,-261.0,48.0,-37.0,58.0,-4.0,58.0,-997.0,283.0
18.0,-261.0,44.0,-37.0,58.0,-4.0,61.0,-992.0,284.0
19.0,-266.0,46.0,-38.0,57.0,-4.0,63.0,-989.0,285.0
19.0,-261.0,47.0,-39.0,55.0,-1.0,64.0,-989.0,278.0
17.0,-257.0,44.0,-42.0,54.0,-3.0,62.0,-990.0,276.0
19.0,-259.0,45.0,-45.0,52.0,0.0,65.0,-987.0,279.0
18.0,-262.0,47.0,-46.0,51.0,-3.0,58.0,-994.0,280.0
19.0,-261.0,44.0,-46.0,52.0,-1.0,61.0,-992.0,280.0
19.0,-262.0,47.0,-44.0,53.0,-2.0,60.0,-995.0,277.0
16.0,-263.0,50.0,-43.0,53.0,1.0,63.0,-996.0,277.0
20.0,-262.0,47.0,-44.0,52.0,-2.0,63.0,-993.0,277.0
19.0,-259.0,48.0,-44.0,53.0,0.0,61.0,-999.0,278.0
18.0,-259.0,47.0,-43.0,55.0,-2.0,58.0,-997.0,278.0
19.0,-262.0,46.0,-43.0,56.0,0.0,61.0,-991.0,276.0
18.0,-263.0,47.0,-44.0,55.0,-2.0,63.0,-995.0,276.0
19.0,-261.0,43.0,-45.0,55.0,1.0,62.0,-994.0,274.0
19.0,-260.0,47.0,-48.0,55.0,-1.0,62.0,-996.0,275.0
21.0,-259.0,45.0,-47.0,57.0,0.0,62.0,-995.0,272.0
10.0,-264.0,48.0,-49.0,57.0,-2.0,62.0,-994.0,275.0
21.0,-262.0,44.0,-49.0,59.0,-1.0,58.0,-993.0,277.0
16.0,-262.0,48.0,-49.0,57.0,-2.0,62.0,-993.0,273.0
16.0,-261.0,49.0,-50.0,56.0,-1.0,64.0,-993.0,274.0
19.0,-261.0,44.0,-48.0,54.0,-2.0,63.0,-999.0,274.0
18.0,-258.0,46.0,-48.0,54.0,0.0,55.0,-997.0,275.0
20.0,-262.0,41.0,-48.0,53.0,-2.0,62.0,-998.0,275.0
18.0,-261.0,45.0,-50.0,54.0,1.0,57.0,-1000.0,275.0
17.0,-261.0,42.0,-51.0,53.0,-2.0,56.0,-1003.0,276.0
18.0,-263.0,43.0,-51.0,53.0,-1.0,59.0,-996.0,276.0
19.0,-262.0,42.0,-50.0,55.0,-1.0,61.0,-1000.0,278.0
20.0,-262.0,45.0,-51.0,54.0,-2.0,65.0,-994.0,277.0
19.0,-261.0,41.0,-50.0,55.0,-2.0,54.0,-996.0,279.0
20.0,-263.0,45.0,-51.0,57.0,-2.0,61.0,-990.0,277.0
18.0,-260.0,46.0,-49.0,58.0,-3.0,62.0,-998.0,275.0
21.0,-263.0,46.0,-51.0,58.0,-2.0,59.0,-996.0,275.0
20.0,-262.0,44.0,-56.0,59.0,-4.0,57.0,-996.0,276.0
18.0,-261.0,44.0,-57.0,57.0,-2.0,56.0,-990.0,271.0
16.0,-260.0,45.0,-60.0,55.0,-4.0,59.0,-997.0,273.0
17.0,-260.0,47.0,-61.0,53.0,-3.0,58.0,-999.0,274.0
18.0,-263.0,49.0,-61.0,53.0,-4.0,61.0,-1003.0,272.0
19.0,-262.0,47.0,-59.0,51.0,-2.0,56.0,-1000.0,272.0
17.0,-260.0,44.0,-57.0,53.0,-3.0,61.0,-1001.0,270.0
19.0,-263.0,43.0,-54.0,52.0,-3.0,59.0,-1000.0,269.0
19.0,-264.0,45.0,-52.0,52.0,-3.0,61.0,-1000.0,264.0
18.0,-262.0,40.0,-50.0,52.0,-2.0,62.0,-1003.0,265.0
21.0,-261.0,42.0,-48.0,54.0,-4.0,54.0,-1000.0,268.0
20.0,-262.0,45.0,-47.0,53.0,-2.0,60.0,-1001.0,265.0
19.0,-262.0,44.0,-46.0,52.0,-2.0,62.0,-1004.0,262.0
19.0,-264.0,43.0,-44.0,53.0,-3.0,60.0,-999.0,268.0
19.0,-263.0,40.0,-43.0,54.0,-3.0,60.0,-1001.0,264.0
17.0,-263.0,46.0,-43.0,56.0,-3.0,59.0,-1000.0,264.0
16.0,-262.0,42.0,-44.0,55.0,-3.0,62.0,-996.0,267.0
20.0,-263.0,44.0,-44.0,55.0,-4.0,61.0,-1003.0,270.0
19.0,-261.0,44.0,-44.0,53.0,-5.0,55.0,-1001.0,264.0
18.0,-264.0,39.0,-44.0,55.0,-5.0,62.0,-999.0,266.0
19.0,-261.0,42.0,-43.0,53.0,-5.0,61.0,-1004.0,269.0
20.0,-264.0,42.0,-43.0,53.0,-6.0,68.0,-997.0,267.0
20.0,-262.0,45.0,-42.0,54.0,-4.0,63.0,-997.0,268.0
19.0,-262.0,46.0,-41.0,53.0,-5.0,59.0,-999.0,272.0
18.0,-263.0,40.0,-41.0,54.0,-5.0,62.0,-999.0,271.0
19.0,-261.0,45.0,-41.0,55.0,-6.0,62.0,-1000.0,269.0
20.0,-262.0,44.0,-40.0,54.0,-5.0,59.0,-1004.0,266.0
20.0,-263.0,42.0,-40.0,57.0,-5.0,64.0,-999.0,265.0
21.0,-263.0,44.0,-40.0,56.0,-5.0,59.0,-999.0,267.0
19.0,-263.0,41.0,-39.0,58.0,-5.0,60.0,-999.0,261.0
16.0,-262.0,42.0,-39.0,58.0,-5.0,62.0,-997.0,262.0
20.0,-262.0,44.0,-40.0,59.0,-6.0,63.0,-1001.0,265.0
21.0,-262.0,41.0,-40.0,58.0,-3.0,57.0,-995.0,264.0
19.0,-260.0,40.0,-40.0,58.0,-5.0,63.0,-995.0,262.0
22.0,-263.0,41.0,-42.0,57.0,-4.0,59.0,-1000.0,262.0
20.0,-262.0,46.0,-43.0,56.0,-5.0,65.0,-998.0,260.0
18.0,-263.0,44.0,-43.0,56.0,-5.0,65.0,-1001.0,268.0
20.0,-262.0,40.0,-43.0,58.0,-4.0,62.0,-998.0,264.0
19.0,-259.0,41.0,-43.0,58.0,-4.0,63.0,-1000.0,262.0
19.0,-262.0,41.0,-41.0,57.0,-5.0,66.0,-1000.0,270.0
20.0,-261.0,44.0,-41.0,57.0,-5.0,62.0,-996.0,266.0
21.0,-263.0,46.0,-42.0,56.0,-6.0,63.0,-993.0,268.0
21.0,-264.0,40.0,-43.0,57.0,-4.0,66.0,-1002.0,262.0
20.0,-260.0,40.0,-46.0,58.0,-5.0,62.0,-1002.0,264.0
22.0,-262.0,46.0,-47.0,59.0,-4.0,57.0,-996.0,263.0
19.0,-262.0,42.0,-46.0,58.0,-5.0,64.0,-1000.0,268.0
22.0,-263.0,40.0,-46.0,60.0,-5.0,65.0,-1004.0,264.0
20.0,-263.0,39.0,-47.0,59.0,-5.0,62.0,-998.0,264.0
16.0,-258.0,43.0,-46.0,59.0,-3.0,62.0,-998.0,268.0
22.0,-261.0,42.0,-47.0,60.0,-4.0,60.0,-1000.0,264.0
20.0,-265.0,46.0,-47.0,59.0,-2.0,58.0,-999.0,264.0
19.0,-260.0,42.0,-48.0,58.0,-5.0,65.0,-994.0,262.0
20.0,-264.0,45.0,-48.0,55.0,-3.0,60.0,-1000.0,263.0
19.0,-258.0,42.0,-49.0,54.0,-4.0,63.0,-997.0,262.0
18.0,-262.0,41.0,-48.0,54.0,-4.0,59.0,-998.0,257.0
18.0,-263.0,36.0,-47.0,54.0,-6.0,63.0,-1001.0,260.0
19.0,-264.0,42.0,-46.0,53.0,-4.0,58.0,-1008.0,260.0
20.0,-262.0,42.0,-46.0,55.0,-5.0,59.0,-1002.0,259.0
19.0,-262.0,40.0,-45.0,57.0,-3.0,61.0,-996.0,256.0
19.0,-261.0,44.0,-47.0,57.0,-6.0,57.0,-1000.0,259.0
16.0,-264.0,39.0,-46.0,55.0,-2.0,59.0,-997.0,258.0
21.0,-262.0,43.0,-47.0,55.0,-4.0,55.0,-996.0,258.0
17.0,-261.0,39.0,-47.0,55.0,-3.0,61.0,-1004.0,260.0
17.0,-261.0,43.0,-47.0,57.0,-5.0,61.0,-1005.0,256.0
20.0,-262.0,41.0,-46.0,55.0,-3.0,60.0,-1001.0,256.0
19.0,-263.0,42.0,-46.0,55.0,-5.0,63.0,-1000.0,259.0
21.0,-261.0,41.0,-45.0,57.0,-3.0,63.0,-1002.0,262.0
18.0,-264.0,38.0,-42.0,54.0,-5.0,63.0,-1002.0,261.0
17.0,-265.0,39.0,-40.0,53.0,-4.0,60.0,-1003.0,254.0
18.0,-263.0,40.0,-38.0,55.0,-6.0,62.0,-1007.0,257.0
20.0,-262.0,39.0,-38.0,56.0,-4.0,60.0,-1002.0,255.0
21.0,-262.0,45.0,-38.0,58.0,-6.0,62.0,-997.0,258.0
18.0,-263.0,38.0,-38.0,57.0,-5.0,61.0,-1004.0,254.0
17.0,-261.0,37.0,-35.0,55.0,-5.0,65.0,-1001.0,258.0
19.0,-262.0,38.0,-36.0,56.0,-4.0,61.0,-1006.0,254.0
22.0,-261.0,40.0,-36.0,56.0,-6.0,67.0,-1004.0,258.0
16.0,-263.0,39.0,-39.0,56.0,-4.0,63.0,-1001.0,259.0
19.0,-263.0,39.0,-41.0,55.0,-5.0,60.0,-1002.0,256.0
20.0,-264.0,42.0,-43.0,53.0,-3.0,58.0,-1001.0,264.0
19.0,-260.0,43.0,-46.0,53.0,-5.0,62.0,-1002.0,266.0
18.0,-261.0,41.0,-49.0,53.0,-4.0,64.0,-1000.0,257.0
19.0,-261.0,39.0,-48.0,55.0,-6.0,65.0,-1002.0,257.0
20.0,-265.0,38.0,-45.0,55.0,-3.0,67.0,-1002.0,253.0
20.0,-260.0,41.0,-45.0,55.0,-4.0,64.0,-1006.0,252.0
20.0,-261.0,37.0,-42.0,55.0,-3.0,62.0,-1006.0,249.0
21.0,-264.0,36.0,-39.0,53.0,-4.0,59.0,-1009.0,252.0
18.0,-264.0,43.0,-37.0,52.0,-2.0,62.0,-1005.0,251.0
20.0,-263.0,39.0,-32.0,53.0,-3.0,63.0,-1010.0,255.0
18.0,-262.0,41.0,-29.0,52.0,-2.0,63.0,-1007.0,252.0
20.0,-263.0,45.0,-24.0,55.0,-5.0,63.0,-1003.0,260.0
19.0,-263.0,41.0,-21.0,58.0,-2.0,63.0,-998.0,258.0
21.0,-261.0,44.0,-19.0,59.0,-6.0,64.0,-995.0,262.0
19.0,-263.0,37.0,-21.0,60.0,-3.0,59.0,-1004.0,261.0
20.0,-261.0,39.0,-25.0,61.0,-6.0,66.0,-1003.0,253.0
20.0,-262.0,40.0,-28.0,61.0,-6.0,65.0,-1002.0,258.0
21.0,-260.0,36.0,-32.0,60.0,-7.0,62.0,-998.0,252.0
19.0,-262.0,42.0,-35.0,60.0,-5.0,67.0,-997.0,255.0
21.0,-263.0,40.0,-36.0,61.0,-8.0,61.0,-999.0,263.0
21.0,-261.0,44.0,-38.0,60.0,-6.0,63.0,-1006.0,259.0
21.0,-261.0,40.0,-35.0,56.0,-7.0,59.0,-1004.0,258.0
21.0,-262.0,42.0,-36.0,54.0,-3.0,66.0,-1003.0,257.0
20.0,-265.0,44.0,-37.0,54.0,-6.0,61.0,-1000.0,255.0
20.0,-263.0,39.0,-38.0,53.0,-3.0,63.0,-1000.0,258.0
17.0,-261.0,39.0,-37.0,53.0,-5.0,57.0,-1006.0,254.0
21.0,-264.0,37.0,-40.0,53.0,-2.0,64.0,-1005.0,250.0
19.0,-263.0,39.0,-38.0,49.0,-3.0,62.0,-1000.0,256.0
20.0,-264.0,40.0,-39.0,50.0,-2.0,63.0,-1005.0,251.0
18.0,-261.0,39.0,-40.0,52.0,-5.0,64.0,-1002.0,252.0
20.0,-264.0,42.0,-37.0,51.0,-1.0,61.0,-1001.0,251.0
18.0,-264.0,39.0,-40.0,51.0,-4.0,63.0,-1004.0,250.0
19.0,-264.0,40.0,-40.0,52.0,-1.0,63.0,-1005.0,256.0
20.0,-266.0,36.0,-40.0,53.0,-3.0,65.0,-1005.0,254.0
19.0,-263.0,42.0,-36.0,56.0,-2.0,65.0,-1007.0,255.0
17.0,-259.0,41.0,-34.0,57.0,-4.0,63.0,-1002.0,253.0
23.0,-263.0,42.0,-33.0,54.0,-2.0,60.0,-1001.0,254.0
19.0,-263.0,39.0,-33.0,57.0,-3.0,64.0,-1002.0,251.0
17.0,-262.0,39.0,-33.0,59.0,-2.0,66.0,-1003.0,251.0
19.0,-262.0,37.0,-31.0,58.0,-3.0,63.0,-1004.0,251.0
21.0,-264.0,37.0,-31.0,57.0,-1.0,66.0,-1009.0,254.0
17.0,-261.0,37.0,-28.0,58.0,-4.0,65.0,-1002.0,248.0
20.0,-263.0,41.0,-28.0,57.0,-1.0,69.0,-1000.0,249.0
19.0,-262.0,41.0,-25.0,57.0,-4.0,66.0,-1005.0,251.0
18.0,-263.0,39.0,-23.0,56.0,-1.0,66.0,-1004.0,252.0
21.0,-262.0,38.0,-21.0,55.0,-3.0,60.0,-1003.0,253.0
21.0,-263.0,36.0,-19.0,54.0,0.0,59.0,-1003.0,249.0
21.0,-264.0,40.0,-19.0,54.0,-4.0,67.0,-1005.0,245.0
21.0,-265.0,42.0,-20.0,53.0,-1.0,59.0,-1006.0,251.0
23.0,-263.0,38.0,-22.0,54.0,-4.0,66.0,-1005.0,247.0
19.0,-262.0,42.0,-22.0,55.0,-2.0,64.0,-1002.0,251.0
21.0,-265.0,38.0,-22.0,57.0,-4.0,64.0,-1004.0,250.0
18.0,-261.0,38.0,-21.0,57.0,-3.0,59.0,-1007.0,252.0
16.0,-263.0,40.0,-22.0,60.0,-4.0,61.0,-1004.0,248.0
20.0,-264.0,39.0,-22.0,61.0,-1.0,57.0,-1009.0,245.0
19.0,-263.0,40.0,-19.0,60.0,-5.0,57.0,-1008.0,248.0
18.0,-263.0,38.0,-17.0,61.0,-1.0,60.0,-1006.0,252.0
18.0,-262.0,34.0,-16.0,60.0,-3.0,59.0,-1007.0,248.0
21.0,-265.0,37.0,-14.0,60.0,1.0,59.0,-1009.0,244.0
20.0,-263.0,39.0,-13.0,60.0,-1.0,60.0,-1005.0,247.0
19.0,-262.0,38.0,-11.0,58.0,1.0,56.0,-1004.0,244.0
20.0,-261.0,39.0,-10.0,59.0,-2.0,57.0,-999.0,247.0
20.0,-265.0,37.0,-9.0,59.0,-1.0,60.0,-1008.0,244.0
19.0,-263.0,36.0,-9.0,58.0,-4.0,64.0,-1006.0,246.0
23.0,-264.0,36.0,-7.0,58.0,-2.0,62.0,-1004.0,244.0
20.0,-262.0,43.0,-6.0,60.0,-4.0,66.0,-1006.0,247.0
21.0,-262.0,40.0,-2.0,60.0,-2.0,61.0,-1006.0,251.0
