acc1_x,acc1_y,acc1_z,gyro_x,gyro_y,gyro_z,acc2_x,acc2_y,acc2_z
18.0,-272.0,2.0,-31.0,44.0,0.0,57.0,-1044.0,100.0
16.0,-268.0,1.0,-30.0,43.0,2.0,54.0,-1036.0,94.0
19.0,-272.0,0.0,-30.0,42.0,1.0,58.0,-1032.0,102.0
22.0,-269.0,0.0,-30.0,41.0,1.0,62.0,-1034.0,97.0
22.0,-270.0,-1.0,-31.0,41.0,2.0,66.0,-1032.0,99.0
12.0,-274.0,1.0,-32.0,41.0,0.0,66.0,-1034.0,96.0
17.0,-268.0,1.0,-34.0,39.0,0.0,61.0,-1033.0,100.0
17.0,-270.0,1.0,-36.0,39.0,-1.0,53.0,-1031.0,102.0
14.0,-268.0,2.0,-37.0,39.0,-1.0,55.0,-1032.0,107.0
15.0,-270.0,1.0,-36.0,39.0,0.0,52.0,-1032.0,109.0
15.0,-273.0,1.0,-34.0,40.0,0.0,49.0,-1035.0,110.0
19.0,-270.0,-1.0,-33.0,41.0,0.0,52.0,-1034.0,112.0
14.0,-274.0,3.0,-33.0,41.0,1.0,49.0,-1041.0,114.0
16.0,-271.0,2.0,-34.0,39.0,1.0,46.0,-1052.0,113.0
17.0,-271.0,2.0,-32.0,40.0,1.0,52.0,-1046.0,111.0
15.0,-274.0,5.0,-37.0,37.0,0.0,48.0,-1053.0,112.0
18.0,-273.0,-1.0,-36.0,34.0,2.0,40.0,-1055.0,112.0
15.0,-274.0,0.0,-38.0,33.0,0.0,44.0,-1058.0,110.0
15.0,-274.0,4.0,-37.0,29.0,1.0,37.0,-1049.0,109.0
13.0,-276.0,3.0,-35.0,27.0,1.0,33.0,-1047.0,113.0
12.0,-270.0,1.0,-32.0,24.0,2.0,38.0,-1035.0,114.0
11.0,-271.0,3.0,-30.0,23.0,2.0,32.0,-1037.0,113.0
12.0,-256.0,8.0,-28.0,20.0,2.0,26.0,-1033.0,116.0
20.0,-262.0,12.0,-24.0,16.0,1.0,23.0,-1032.0,121.0
9.0,-270.0,0.0,-24.0,12.0,2.0,23.0,-1027.0,121.0
8.0,-265.0,12.0,-22.0,11.0,3.0,26.0,-1028.0,124.0
7.0,-271.0,10.0,-17.0,8.0,5.0,23.0,-1025.0,124.0
21.0,-262.0,22.0,-15.0,8.0,5.0,26.0,-1022.0,127.0
11.0,-274.0,9.0,-15.0,9.0,7.0,26.0,-1024.0,135.0
9.0,-269.0,9.0,-13.0,8.0,6.0,32.0,-1021.0,137.0
11.0,-270.0,6.0,-14.0,7.0,7.0,33.0,-1018.0,133.0
18.0,-261.0,15.0,-15.0,5.0,8.0,34.0,-1023.0,135.0
12.0,-267.0,3.0,-16.0,5.0,8.0,36.0,-1015.0,139.0
20.0,-259.0,10.0,-16.0,3.0,8.0,37.0,-1013.0,137.0
15.0,-271.0,9.0,-18.0,3.0,7.0,36.0,-1020.0,138.0
8.0,-258.0,11.0,-18.0,4.0,4.0,35.0,-1013.0,137.0
13.0,-273.0,16.0,-16.0,5.0,4.0,36.0,-1014.0,142.0
10.0,-259.0,12.0,-18.0,5.0,4.0,35.0,-1016.0,144.0
17.0,-265.0,10.0,-20.0,5.0,3.0,37.0,-1010.0,141.0
10.0,-277.0,-2.0,-19.0,3.0,0.0,38.0,-1011.0,134.0
14.0,-264.0,10.0,-23.0,3.0,-2.0,32.0,-1011.0,138.0
15.0,-264.0,9.0,-26.0,2.0,-5.0,41.0,-1014.0,136.0
14.0,-268.0,7.0,-31.0,3.0,-7.0,42.0,-1018.0,133.0
13.0,-267.0,10.0,-37.0,4.0,-12.0,36.0,-1018.0,134.0
15.0,-265.0,1.0,-42.0,5.0,-14.0,34.0,-1017.0,130.0
14.0,-265.0,10.0,-46.0,5.0,-18.0,38.0,-1020.0,133.0
14.0,-268.0,3.0,-51.0,4.0,-21.0,31.0,-1022.0,132.0
12.0,-270.0,8.0,-53.0,2.0,-23.0,36.0,-1027.0,130.0
12.0,-268.0,6.0,-58.0,1.0,-24.0,29.0,-1032.0,131.0
13.0,-271.0,5.0,-58.0,0.0,-28.0,25.0,-1031.0,136.0
10.0,-272.0,6.0,-60.0,-2.0,-28.0,27.0,-1047.0,132.0
10.0,-272.0,7.0,-60.0,-3.0,-30.0,30.0,-1045.0,132.0
13.0,-272.0,8.0,-59.0,-7.0,-33.0,25.0,-1043.0,132.0
10.0,-273.0,6.0,-60.0,-11.0,-34.0,22.0,-1049.0,124.0
9.0,-274.0,1.0,-61.0,-14.0,-36.0,24.0,-1057.0,130.0
12.0,-275.0,6.0,-61.0,-19.0,-35.0,25.0,-1055.0,128.0
11.0,-272.0,2.0,-60.0,-23.0,-34.0,26.0,-1056.0,130.0
11.0,-273.0,7.0,-58.0,-28.0,-36.0,31.0,-1051.0,130.0
13.0,-273.0,5.0,-54.0,-31.0,-36.0,30.0,-1045.0,130.0
8.0,-272.0,11.0,-50.0,-34.0,-37.0,30.0,-1043.0,133.0
12.0,-274.0,6.0,-46.0,-37.0,-34.0,32.0,-1052.0,132.0
13.0,-273.0,7.0,-40.0,-40.0,-34.0,31.0,-1051.0,137.0
14.0,-270.0,4.0,-35.0,-48.0,-32.0,31.0,-1049.0,132.0
12.0,-271.0,9.0,-33.0,-52.0,-32.0,37.0,-1035.0,124.0
12.0,-267.0,4.0,-33.0,-58.0,-31.0,34.0,-1027.0,132.0
12.0,-270.0,10.0,-35.0,-63.0,-34.0,46.0,-1028.0,129.0
16.0,-268.0,3.0,-39.0,-67.0,-34.0,46.0,-1026.0,131.0
14.0,-270.0,6.0,-42.0,-69.0,-38.0,37.0,-1027.0,135.0
17.0,-268.0,8.0,-47.0,-70.0,-41.0,47.0,-1026.0,137.0
16.0,-268.0,11.0,-48.0,-69.0,-46.0,45.0,-1027.0,138.0
17.0,-267.0,6.0,-50.0,-66.0,-47.0,50.0,-1026.0,133.0
23.0,-269.0,5.0,-53.0,-62.0,-52.0,62.0,-1019.0,134.0
22.0,-266.0,6.0,-61.0,-55.0,-58.0,71.0,-1023.0,123.0
22.0,-265.0,4.0,-69.0,-47.0,-62.0,74.0,-1027.0,125.0
25.0,-268.0,2.0,-79.0,-34.0,-67.0,73.0,-1024.0,116.0
28.0,-268.0,1.0,-90.0,-19.0,-71.0,79.0,-1029.0,102.0
27.0,-266.0,2.0,-101.0,-1.0,-76.0,92.0,-1029.0,98.0
32.0,-269.0,-1.0,-108.0,22.0,-82.0,98.0,-1024.0,89.0
34.0,-263.0,-9.0,-112.0,46.0,-85.0,109.0,-1015.0,81.0
35.0,-265.0,-8.0,-114.0,69.0,-89.0,116.0,-1007.0,69.0
36.0,-263.0,-12.0,-118.0,95.0,-90.0,123.0,-1007.0,58.0
41.0,-261.0,-14.0,-124.0,123.0,-93.0,130.0,-998.0,61.0
39.0,-258.0,-17.0,-131.0,156.0,-90.0,138.0,-993.0,52.0
43.0,-257.0,-16.0,-138.0,184.0,-91.0,146.0,-990.0,50.0
49.0,-257.0,-18.0,-143.0,212.0,-89.0,150.0,-988.0,46.0
50.0,-255.0,-11.0,-150.0,241.0,-89.0,170.0,-984.0,47.0
48.0,-255.0,-13.0,-153.0,269.0,-85.0,173.0,-980.0,55.0
52.0,-255.0,-12.0,-154.0,295.0,-82.0,180.0,-979.0,44.0
52.0,-255.0,-12.0,-157.0,322.0,-77.0,179.0,-983.0,54.0
52.0,-259.0,-13.0,-163.0,350.0,-72.0,182.0,-985.0,51.0
51.0,-259.0,-15.0,-169.0,375.0,-66.0,180.0,-985.0,62.0
51.0,-256.0,-10.0,-173.0,402.0,-57.0,183.0,-983.0,65.0
49.0,-257.0,-9.0,-178.0,429.0,-48.0,181.0,-991.0,77.0
52.0,-261.0,-8.0,-184.0,460.0,-39.0,178.0,-998.0,79.0
46.0,-262.0,1.0,-187.0,482.0,-30.0,170.0,-1013.0,85.0
47.0,-266.0,0.0,-190.0,504.0,-25.0,165.0,-1021.0,96.0
43.0,-268.0,2.0,-194.0,522.0,-21.0,146.0,-1028.0,103.0
39.0,-271.0,0.0,-203.0,540.0,-22.0,140.0,-1036.0,103.0
39.0,-273.0,0.0,-211.0,555.0,-26.0,136.0,-1035.0,103.0
37.0,-271.0,1.0,-221.0,571.0,-32.0,136.0,-1038.0,99.0
39.0,-270.0,2.0,-229.0,587.0,-38.0,124.0,-1028.0,101.0
34.0,-270.0,3.0,-232.0,599.0,-49.0,116.0,-1033.0,108.0
30.0,-267.0,5.0,-233.0,607.0,-57.0,95.0,-1015.0,126.0
24.0,-263.0,10.0,-229.0,611.0,-64.0,80.0,-1007.0,137.0
17.0,-260.0,13.0,-225.0,610.0,-71.0,61.0,-1000.0,153.0
10.0,-262.0,16.0,-222.0,604.0,-76.0,24.0,-1002.0,170.0
2.0,-264.0,18.0,-230.0,590.0,-83.0,0.0,-1004.0,175.0
2.0,-264.0,19.0,-245.0,581.0,-92.0,-14.0,-995.0,181.0
-3.0,-256.0,21.0,-264.0,571.0,-103.0,-21.0,-987.0,176.0
-5.0,-261.0,24.0,-288.0,563.0,-115.0,-33.0,-996.0,185.0
-5.0,-259.0,18.0,-303.0,548.0,-124.0,-34.0,-989.0,179.0
-1.0,-260.0,21.0,-320.0,530.0,-131.0,-30.0,-993.0,174.0
-4.0,-264.0,21.0,-340.0,510.0,-138.0,-23.0,-1000.0,186.0
0.0,-268.0,29.0,-356.0,477.0,-149.0,-13.0,-1017.0,204.0
0.0,-268.0,20.0,-363.0,442.0,-157.0,-3.0,-1029.0,202.0
3.0,-274.0,26.0,-365.0,402.0,-168.0,11.0,-1037.0,206.0
12.0,-275.0,28.0,-369.0,356.0,-176.0,27.0,-1059.0,210.0
12.0,-277.0,25.0,-369.0,317.0,-183.0,40.0,-1073.0,206.0
18.0,-281.0,27.0,-367.0,274.0,-193.0,55.0,-1083.0,206.0
21.0,-281.0,25.0,-366.0,233.0,-201.0,70.0,-1086.0,201.0
30.0,-281.0,19.0,-368.0,197.0,-206.0,93.0,-1095.0,182.0
27.0,-280.0,18.0,-372.0,170.0,-209.0,107.0,-1090.0,178.0
33.0,-283.0,12.0,-381.0,148.0,-207.0,115.0,-1095.0,166.0
39.0,-281.0,11.0,-387.0,128.0,-209.0,131.0,-1098.0,157.0
43.0,-283.0,8.0,-389.0,113.0,-213.0,137.0,-1096.0,149.0
45.0,-286.0,9.0,-384.0,108.0,-218.0,157.0,-1096.0,138.0
51.0,-280.0,7.0,-369.0,107.0,-221.0,168.0,-1087.0,138.0
51.0,-280.0,11.0,-348.0,111.0,-227.0,179.0,-1081.0,139.0
51.0,-275.0,11.0,-317.0,117.0,-232.0,193.0,-1068.0,138.0
57.0,-273.0,11.0,-283.0,128.0,-241.0,201.0,-1061.0,143.0
62.0,-269.0,10.0,-251.0,142.0,-248.0,220.0,-1033.0,140.0
61.0,-266.0,9.0,-223.0,157.0,-255.0,220.0,-1015.0,149.0
63.0,-262.0,11.0,-198.0,172.0,-263.0,222.0,-1008.0,151.0
64.0,-259.0,12.0,-175.0,189.0,-272.0,227.0,-990.0,152.0
62.0,-253.0,12.0,-159.0,215.0,-283.0,233.0,-973.0,155.0
64.0,-250.0,15.0,-143.0,230.0,-295.0,228.0,-963.0,155.0
66.0,-247.0,13.0,-134.0,253.0,-295.0,231.0,-949.0,151.0
62.0,-245.0,15.0,-129.0,274.0,-294.0,223.0,-944.0,153.0
57.0,-245.0,11.0,-130.0,290.0,-289.0,220.0,-942.0,163.0
60.0,-244.0,12.0,-128.0,303.0,-284.0,216.0,-937.0,157.0
56.0,-241.0,16.0,-130.0,318.0,-278.0,210.0,-930.0,156.0
56.0,-239.0,11.0,-132.0,336.0,-273.0,203.0,-920.0,153.0
55.0,-238.0,17.0,-135.0,354.0,-262.0,200.0,-921.0,167.0
52.0,-237.0,15.0,-137.0,365.0,-252.0,190.0,-923.0,165.0
52.0,-241.0,20.0,-138.0,378.0,-233.0,188.0,-921.0,171.0
48.0,-236.0,15.0,-136.0,388.0,-219.0,178.0,-921.0,179.0
46.0,-237.0,19.0,-132.0,396.0,-206.0,167.0,-916.0,173.0
48.0,-232.0,17.0,-132.0,407.0,-192.0,169.0,-907.0,170.0
45.0,-233.0,13.0,-136.0,417.0,-169.0,168.0,-905.0,163.0
46.0,-232.0,17.0,-142.0,425.0,-152.0,162.0,-900.0,159.0
45.0,-229.0,12.0,-152.0,438.0,-133.0,157.0,-900.0,166.0
44.0,-232.0,20.0,-160.0,448.0,-117.0,156.0,-900.0,166.0
48.0,-231.0,13.0,-168.0,453.0,-100.0,168.0,-897.0,160.0
45.0,-235.0,16.0,-180.0,457.0,-85.0,171.0,-899.0,161.0
46.0,-231.0,17.0,-188.0,457.0,-66.0,177.0,-908.0,168.0
48.0,-234.0,15.0,-198.0,451.0,-50.0,172.0,-915.0,169.0
49.0,-237.0,22.0,-206.0,445.0,-34.0,165.0,-916.0,178.0
45.0,-238.0,17.0,-212.0,439.0,-21.0,168.0,-923.0,168.0
45.0,-240.0,15.0,-220.0,433.0,-9.0,160.0,-933.0,165.0
43.0,-243.0,13.0,-231.0,433.0,4.0,158.0,-936.0,156.0
47.0,-247.0,7.0,-241.0,434.0,19.0,170.0,-948.0,151.0
51.0,-251.0,9.0,-249.0,433.0,29.0,165.0,-962.0,142.0
45.0,-255.0,10.0,-257.0,427.0,40.0,170.0,-965.0,138.0
45.0,-257.0,9.0,-262.0,415.0,47.0,162.0,-985.0,141.0
46.0,-264.0,8.0,-267.0,401.0,57.0,163.0,-1003.0,146.0
45.0,-266.0,10.0,-268.0,377.0,63.0,160.0,-1018.0,148.0
42.0,-271.0,10.0,-267.0,352.0,70.0,149.0,-1030.0,140.0
36.0,-272.0,9.0,-268.0,329.0,76.0,137.0,-1044.0,149.0
36.0,-275.0,8.0,-263.0,307.0,81.0,128.0,-1059.0,157.0
35.0,-276.0,14.0,-251.0,285.0,85.0,121.0,-1059.0,152.0
34.0,-277.0,13.0,-242.0,264.0,92.0,120.0,-1071.0,154.0
34.0,-279.0,13.0,-232.0,245.0,95.0,123.0,-1077.0,151.0
36.0,-276.0,10.0,-224.0,227.0,101.0,128.0,-1084.0,145.0
38.0,-284.0,12.0,-222.0,212.0,103.0,135.0,-1096.0,142.0
37.0,-287.0,10.0,-223.0,200.0,104.0,138.0,-1107.0,143.0
47.0,-291.0,10.0,-221.0,177.0,98.0,164.0,-1125.0,153.0
50.0,-294.0,21.0,-201.0,163.0,92.0,180.0,-1143.0,168.0
57.0,-303.0,24.0,-177.0,151.0,81.0,202.0,-1153.0,193.0
61.0,-305.0,26.0,-150.0,142.0,72.0,220.0,-1164.0,201.0
68.0,-305.0,31.0,-127.0,136.0,64.0,241.0,-1177.0,211.0
74.0,-305.0,29.0,-103.0,133.0,52.0,271.0,-1177.0,220.0
82.0,-306.0,29.0,-84.0,134.0,40.0,293.0,-1183.0,223.0
84.0,-304.0,30.0,-68.0,135.0,30.0,308.0,-1175.0,224.0
87.0,-303.0,31.0,-56.0,136.0,19.0,317.0,-1166.0,216.0
86.0,-300.0,26.0,-48.0,135.0,14.0,310.0,-1161.0,220.0
85.0,-301.0,33.0,-44.0,133.0,8.0,301.0,-1154.0,219.0
80.0,-299.0,33.0,-40.0,131.0,7.0,288.0,-1153.0,234.0
83.0,-309.0,40.0,-39.0,130.0,5.0,291.0,-1177.0,247.0
90.0,-321.0,38.0,-49.0,125.0,2.0,328.0,-1248.0,251.0
73.0,-332.0,50.0,-75.0,102.0,-14.0,276.0,-1276.0,293.0
61.0,-345.0,20.0,-131.0,53.0,-39.0,218.0,-1336.0,208.0
66.0,-351.0,-16.0,-226.0,30.0,-63.0,235.0,-1376.0,54.0
78.0,-348.0,-19.0,-298.0,52.0,-86.0,269.0,-1338.0,36.0
74.0,-347.0,0.0,-294.0,98.0,-105.0,258.0,-1331.0,102.0
70.0,-348.0,4.0,-234.0,143.0,-116.0,247.0,-1327.0,130.0
71.0,-338.0,2.0,-172.0,176.0,-120.0,248.0,-1305.0,112.0
68.0,-330.0,-3.0,-148.0,195.0,-119.0,251.0,-1279.0,88.0
72.0,-327.0,-12.0,-158.0,206.0,-114.0,263.0,-1261.0,67.0
75.0,-325.0,-16.0,-177.0,220.0,-114.0,270.0,-1244.0,46.0
83.0,-319.0,-19.0,-194.0,238.0,-115.0,288.0,-1232.0,31.0
88.0,-317.0,-23.0,-202.0,263.0,-115.0,305.0,-1222.0,10.0
88.0,-318.0,-27.0,-197.0,292.0,-117.0,315.0,-1226.0,4.0
88.0,-319.0,-22.0,-176.0,324.0,-117.0,314.0,-1230.0,8.0
87.0,-321.0,-22.0,-151.0,353.0,-116.0,306.0,-1231.0,9.0
86.0,-318.0,-26.0,-129.0,375.0,-112.0,301.0,-1227.0,14.0
78.0,-312.0,-26.0,-111.0,390.0,-107.0,282.0,-1201.0,12.0
73.0,-307.0,-24.0,-92.0,401.0,-96.0,258.0,-1181.0,9.0
64.0,-301.0,-23.0,-76.0,402.0,-82.0,225.0,-1159.0,10.0
51.0,-296.0,-26.0,-54.0,395.0,-63.0,189.0,-1136.0,10.0
36.0,-282.0,-24.0,-29.0,376.0,-40.0,134.0,-1105.0,1.0
25.0,-276.0,-31.0,-5.0,344.0,-14.0,87.0,-1071.0,-13.0
16.0,-269.0,-32.0,14.0,302.0,15.0,43.0,-1027.0,-36.0
7.0,-259.0,-42.0,32.0,254.0,46.0,20.0,-989.0,-52.0
3.0,-246.0,-49.0,47.0,205.0,75.0,10.0,-957.0,-82.0
3.0,-240.0,-49.0,63.0,163.0,105.0,12.0,-933.0,-104.0
5.0,-232.0,-58.0,78.0,128.0,125.0,15.0,-908.0,-121.0
10.0,-226.0,-62.0,89.0,89.0,143.0,23.0,-883.0,-137.0
4.0,-219.0,-63.0,93.0,59.0,152.0,19.0,-862.0,-143.0
2.0,-217.0,-57.0,90.0,30.0,158.0,1.0,-839.0,-145.0
0.0,-216.0,-59.0,84.0,4.0,163.0,-9.0,-838.0,-133.0
0.0,-217.0,-58.0,72.0,-22.0,169.0,-16.0,-848.0,-123.0
-4.0,-224.0,-52.0,52.0,-49.0,172.0,-12.0,-872.0,-120.0
1.0,-228.0,-58.0,26.0,-77.0,175.0,4.0,-893.0,-129.0
13.0,-236.0,-63.0,-7.0,-104.0,177.0,25.0,-921.0,-141.0
13.0,-243.0,-61.0,-42.0,-121.0,182.0,43.0,-943.0,-157.0
15.0,-249.0,-65.0,-73.0,-130.0,181.0,50.0,-961.0,-156.0
19.0,-255.0,-68.0,-97.0,-132.0,177.0,59.0,-978.0,-157.0
22.0,-261.0,-66.0,-115.0,-127.0,169.0,74.0,-998.0,-148.0
27.0,-266.0,-58.0,-122.0,-115.0,161.0,87.0,-1019.0,-140.0
29.0,-267.0,-59.0,-125.0,-96.0,152.0,101.0,-1032.0,-130.0
36.0,-268.0,-55.0,-121.0,-79.0,145.0,108.0,-1045.0,-116.0
38.0,-272.0,-52.0,-116.0,-52.0,139.0,118.0,-1053.0,-102.0
37.0,-270.0,-48.0,-105.0,-25.0,137.0,118.0,-1062.0,-86.0
35.0,-270.0,-53.0,-85.0,-4.0,136.0,124.0,-1049.0,-78.0
38.0,-269.0,-44.0,-67.0,12.0,139.0,129.0,-1041.0,-76.0
41.0,-271.0,-43.0,-52.0,30.0,147.0,134.0,-1032.0,-66.0
40.0,-269.0,-44.0,-28.0,45.0,163.0,132.0,-1031.0,-52.0
43.0,-262.0,-56.0,9.0,48.0,185.0,141.0,-1014.0,-93.0
44.0,-260.0,-52.0,19.0,66.0,211.0,143.0,-1005.0,-101.0
40.0,-258.0,-54.0,23.0,84.0,238.0,129.0,-1006.0,-105.0
37.0,-258.0,-56.0,29.0,99.0,260.0,129.0,-997.0,-108.0
35.0,-259.0,-53.0,35.0,118.0,280.0,127.0,-988.0,-113.0
36.0,-259.0,-60.0,36.0,143.0,304.0,112.0,-990.0,-119.0
37.0,-259.0,-58.0,37.0,168.0,327.0,116.0,-993.0,-125.0
34.0,-260.0,-55.0,42.0,196.0,349.0,112.0,-993.0,-124.0
35.0,-258.0,-58.0,47.0,227.0,368.0,116.0,-989.0,-132.0
48.0,-253.0,-59.0,48.0,264.0,400.0,149.0,-976.0,-148.0
25.0,-257.0,-52.0,28.0,328.0,421.0,77.0,-992.0,-99.0
36.0,-256.0,-50.0,30.0,320.0,406.0,117.0,-984.0,-104.0
37.0,-255.0,-52.0,39.0,334.0,403.0,117.0,-976.0,-104.0
31.0,-255.0,-46.0,40.0,351.0,401.0,111.0,-975.0,-83.0
31.0,-255.0,-46.0,43.0,366.0,398.0,113.0,-983.0,-70.0
35.0,-254.0,-37.0,53.0,382.0,392.0,108.0,-979.0,-53.0
30.0,-255.0,-36.0,64.0,402.0,386.0,98.0,-974.0,-41.0
25.0,-249.0,-30.0,74.0,418.0,385.0,95.0,-966.0,-28.0
26.0,-251.0,-28.0,80.0,429.0,376.0,72.0,-962.0,-18.0
23.0,-247.0,-27.0,82.0,434.0,374.0,61.0,-954.0,-14.0
13.0,-247.0,-22.0,80.0,436.0,371.0,48.0,-958.0,5.0
7.0,-248.0,-23.0,87.0,431.0,367.0,21.0,-956.0,12.0
5.0,-245.0,-23.0,91.0,423.0,364.0,3.0,-937.0,16.0
-1.0,-244.0,-19.0,93.0,416.0,365.0,-9.0,-936.0,24.0
-4.0,-245.0,-14.0,97.0,413.0,366.0,-26.0,-934.0,29.0
-4.0,-243.0,-13.0,102.0,413.0,362.0,-37.0,-932.0,33.0
-8.0,-243.0,-17.0,108.0,416.0,354.0,-49.0,-927.0,40.0
-12.0,-237.0,-18.0,111.0,419.0,352.0,-51.0,-918.0,51.0
-11.0,-237.0,-11.0,106.0,421.0,350.0,-55.0,-917.0,58.0
-8.0,-236.0,-8.0,98.0,420.0,346.0,-49.0,-907.0,60.0
-9.0,-235.0,-9.0,92.0,420.0,342.0,-40.0,-913.0,66.0
-2.0,-237.0,-6.0,83.0,420.0,338.0,-24.0,-908.0,71.0
3.0,-240.0,-9.0,71.0,420.0,334.0,-7.0,-913.0,73.0
9.0,-237.0,-7.0,59.0,420.0,330.0,15.0,-913.0,71.0
10.0,-228.0,-2.0,47.0,419.0,328.0,36.0,-910.0,58.0
15.0,-236.0,-6.0,33.0,424.0,332.0,46.0,-909.0,70.0
16.0,-232.0,-8.0,25.0,430.0,329.0,49.0,-903.0,56.0
16.0,-235.0,-12.0,16.0,442.0,326.0,43.0,-908.0,55.0
22.0,-236.0,-12.0,10.0,454.0,317.0,57.0,-903.0,49.0
19.0,-232.0,-16.0,8.0,468.0,308.0,58.0,-905.0,54.0
22.0,-235.0,-11.0,5.0,479.0,293.0,63.0,-907.0,56.0
21.0,-234.0,-9.0,1.0,492.0,283.0,66.0,-909.0,66.0
24.0,-236.0,-9.0,-5.0,504.0,280.0,83.0,-899.0,63.0
16.0,-240.0,-9.0,-10.0,516.0,273.0,50.0,-924.0,73.0
18.0,-238.0,-7.0,-11.0,527.0,255.0,61.0,-925.0,73.0
20.0,-239.0,-8.0,-15.0,538.0,239.0,58.0,-921.0,75.0
18.0,-241.0,-4.0,-21.0,554.0,221.0,53.0,-931.0,83.0
19.0,-243.0,-3.0,-28.0,570.0,203.0,58.0,-931.0,81.0
18.0,-243.0,-2.0,-31.0,586.0,184.0,50.0,-940.0,86.0
17.0,-246.0,0.0,-29.0,602.0,168.0,44.0,-953.0,93.0
17.0,-250.0,0.0,-28.0,619.0,144.0,39.0,-961.0,105.0
13.0,-255.0,1.0,-21.0,637.0,127.0,41.0,-968.0,112.0
14.0,-259.0,3.0,-11.0,655.0,113.0,32.0,-991.0,122.0
12.0,-264.0,9.0,2.0,674.0,98.0,30.0,-1006.0,135.0
11.0,-266.0,7.0,17.0,695.0,85.0,24.0,-1013.0,141.0
12.0,-269.0,8.0,29.0,714.0,74.0,20.0,-1021.0,143.0
8.0,-270.0,8.0,45.0,730.0,63.0,21.0,-1031.0,134.0
8.0,-275.0,11.0,59.0,742.0,52.0,10.0,-1047.0,139.0
5.0,-278.0,8.0,74.0,755.0,45.0,8.0,-1068.0,140.0
3.0,-285.0,8.0,87.0,769.0,42.0,-4.0,-1098.0,150.0
3.0,-290.0,7.0,103.0,778.0,36.0,-3.0,-1117.0,143.0
3.0,-293.0,6.0,111.0,795.0,31.0,-11.0,-1137.0,142.0
5.0,-297.0,12.0,113.0,813.0,24.0,-9.0,-1146.0,145.0
4.0,-299.0,12.0,111.0,829.0,17.0,-6.0,-1147.0,148.0
6.0,-295.0,7.0,111.0,847.0,10.0,10.0,-1152.0,143.0
9.0,-294.0,11.0,112.0,860.0,3.0,20.0,-1133.0,144.0
16.0,-295.0,10.0,120.0,874.0,-4.0,29.0,-1128.0,147.0
13.0,-289.0,16.0,133.0,891.0,-10.0,33.0,-1118.0,152.0
12.0,-289.0,13.0,148.0,902.0,-12.0,27.0,-1118.0,156.0
4.0,-292.0,9.0,161.0,908.0,-12.0,9.0,-1130.0,153.0
9.0,-297.0,9.0,161.0,905.0,-9.0,15.0,-1142.0,145.0
3.0,-301.0,7.0,149.0,903.0,2.0,4.0,-1153.0,139.0
-1.0,-304.0,22.0,137.0,904.0,13.0,-18.0,-1165.0,174.0
-3.0,-305.0,28.0,149.0,902.0,25.0,-37.0,-1163.0,207.0
-10.0,-300.0,37.0,175.0,899.0,42.0,-61.0,-1158.0,240.0
-13.0,-299.0,43.0,203.0,894.0,55.0,-84.0,-1155.0,269.0
-19.0,-296.0,46.0,228.0,890.0,66.0,-94.0,-1139.0,287.0
-18.0,-291.0,52.0,246.0,893.0,72.0,-101.0,-1136.0,295.0
-19.0,-288.0,53.0,256.0,899.0,76.0,-94.0,-1112.0,311.0
-17.0,-284.0,57.0,262.0,909.0,79.0,-82.0,-1108.0,324.0
-12.0,-289.0,61.0,265.0,920.0,76.0,-80.0,-1104.0,341.0
-28.0,-298.0,67.0,265.0,929.0,77.0,-107.0,-1145.0,363.0
-88.0,-346.0,72.0,255.0,912.0,106.0,-351.0,-1327.0,383.0
-6.0,-355.0,61.0,220.0,906.0,168.0,-123.0,-1368.0,342.0
20.0,-378.0,4.0,79.0,1000.0,216.0,61.0,-1476.0,199.0
-7.0,-384.0,-41.0,-133.0,1012.0,236.0,20.0,-1495.0,-46.0
-18.0,-380.0,-28.0,-283.0,926.0,269.0,-85.0,-1464.0,-18.0
-14.0,-379.0,-17.0,-280.0,845.0,318.0,-80.0,-1446.0,43.0
-12.0,-382.0,-16.0,-197.0,787.0,362.0,-83.0,-1454.0,33.0
-20.0,-384.0,-22.0,-104.0,762.0,394.0,-106.0,-1468.0,19.0
-27.0,-376.0,-22.0,-16.0,761.0,417.0,-126.0,-1444.0,13.0
-32.0,-360.0,-32.0,50.0,757.0,423.0,-148.0,-1394.0,-2.0
-37.0,-348.0,-28.0,88.0,726.0,423.0,-173.0,-1344.0,-25.0
-41.0,-350.0,-38.0,88.0,684.0,428.0,-169.0,-1346.0,-44.0
-39.0,-338.0,-46.0,66.0,640.0,423.0,-166.0,-1309.0,-81.0
-27.0,-331.0,-63.0,38.0,599.0,422.0,-131.0,-1275.0,-136.0
-12.0,-328.0,-74.0,18.0,575.0,419.0,-78.0,-1260.0,-196.0
2.0,-318.0,-90.0,23.0,575.0,403.0,-22.0,-1224.0,-233.0
20.0,-306.0,-99.0,52.0,595.0,375.0,51.0,-1177.0,-278.0
34.0,-292.0,-103.0,99.0,626.0,343.0,108.0,-1133.0,-325.0
43.0,-276.0,-114.0,139.0,665.0,308.0,139.0,-1084.0,-364.0
44.0,-265.0,-123.0,162.0,699.0,282.0,162.0,-1029.0,-386.0
51.0,-251.0,-122.0,166.0,736.0,249.0,180.0,-979.0,-397.0
54.0,-238.0,-126.0,153.0,762.0,223.0,198.0,-925.0,-407.0
57.0,-225.0,-123.0,132.0,787.0,203.0,199.0,-885.0,-390.0
53.0,-214.0,-116.0,115.0,818.0,185.0,199.0,-851.0,-365.0
50.0,-211.0,-109.0,96.0,850.0,169.0,189.0,-836.0,-334.0
48.0,-210.0,-95.0,83.0,875.0,153.0,177.0,-815.0,-298.0
41.0,-209.0,-93.0,69.0,891.0,133.0,158.0,-803.0,-278.0
39.0,-201.0,-92.0,58.0,893.0,119.0,142.0,-784.0,-265.0
29.0,-204.0,-84.0,39.0,891.0,108.0,112.0,-800.0,-243.0
19.0,-208.0,-75.0,28.0,884.0,96.0,67.0,-816.0,-200.0
14.0,-212.0,-68.0,20.0,870.0,83.0,44.0,-832.0,-177.0
6.0,-214.0,-61.0,-6.0,841.0,72.0,15.0,-854.0,-155.0
-1.0,-236.0,-51.0,-38.0,809.0,61.0,0.0,-903.0,-113.0
-7.0,-247.0,-45.0,-53.0,762.0,33.0,-27.0,-951.0,-77.0
-10.0,-245.0,-43.0,-68.0,707.0,9.0,-55.0,-961.0,-72.0
-14.0,-253.0,-44.0,-96.0,655.0,-9.0,-77.0,-977.0,-66.0
-21.0,-257.0,-35.0,-149.0,608.0,-24.0,-102.0,-984.0,-65.0
-31.0,-264.0,-38.0,-203.0,560.0,-38.0,-129.0,-1011.0,-48.0
-32.0,-272.0,-35.0,-228.0,508.0,-55.0,-138.0,-1030.0,-35.0
-38.0,-269.0,-39.0,-224.0,459.0,-79.0,-148.0,-1038.0,-28.0
-40.0,-268.0,-33.0,-220.0,417.0,-111.0,-154.0,-1022.0,-32.0
-42.0,-269.0,-32.0,-220.0,368.0,-136.0,-168.0,-1022.0,-25.0
-42.0,-273.0,-33.0,-220.0,320.0,-162.0,-163.0,-1035.0,-36.0
-39.0,-271.0,-37.0,-224.0,273.0,-188.0,-163.0,-1052.0,-21.0
-36.0,-273.0,-33.0,-223.0,226.0,-215.0,-152.0,-1055.0,-38.0
-33.0,-271.0,-36.0,-226.0,183.0,-245.0,-135.0,-1045.0,-40.0
-30.0,-278.0,-36.0,-235.0,144.0,-272.0,-121.0,-1074.0,-31.0
-23.0,-275.0,-36.0,-219.0,110.0,-299.0,-106.0,-1068.0,-37.0
-12.0,-270.0,-39.0,-190.0,78.0,-323.0,-78.0,-1034.0,-46.0
-10.0,-266.0,-41.0,-155.0,56.0,-342.0,-51.0,-1007.0,-53.0
-5.0,-256.0,-40.0,-117.0,38.0,-363.0,-34.0,-976.0,-54.0
-1.0,-246.0,-40.0,-76.0,22.0,-380.0,-12.0,-946.0,-52.0
3.0,-241.0,-36.0,-29.0,15.0,-391.0,-6.0,-925.0,-40.0
6.0,-232.0,-35.0,13.0,8.0,-403.0,13.0,-893.0,-37.0
7.0,-225.0,-32.0,47.0,1.0,-408.0,11.0,-875.0,-27.0
10.0,-222.0,-28.0,66.0,-8.0,-412.0,33.0,-866.0,-18.0
16.0,-222.0,-32.0,82.0,-18.0,-413.0,43.0,-860.0,-11.0
19.0,-220.0,-28.0,86.0,-25.0,-414.0,54.0,-857.0,-4.0
27.0,-221.0,-21.0,85.0,-30.0,-412.0,60.0,-857.0,17.0
19.0,-223.0,-17.0,82.0,-39.0,-411.0,67.0,-859.0,29.0
25.0,-221.0,-18.0,75.0,-39.0,-414.0,70.0,-860.0,38.0
21.0,-221.0,-10.0,67.0,-32.0,-420.0,67.0,-856.0,55.0
23.0,-218.0,-13.0,45.0,-26.0,-435.0,84.0,-858.0,44.0
22.0,-222.0,-6.0,19.0,-15.0,-451.0,68.0,-861.0,75.0
31.0,-222.0,-10.0,3.0,-13.0,-454.0,107.0,-862.0,60.0
35.0,-225.0,-9.0,-7.0,-1.0,-444.0,111.0,-862.0,64.0
36.0,-222.0,-8.0,-21.0,9.0,-434.0,116.0,-858.0,67.0
38.0,-220.0,-1.0,-43.0,18.0,-428.0,128.0,-869.0,75.0
36.0,-224.0,-3.0,-68.0,27.0,-425.0,133.0,-879.0,81.0
41.0,-226.0,-5.0,-95.0,34.0,-419.0,135.0,-889.0,80.0
41.0,-232.0,-6.0,-121.0,39.0,-411.0,138.0,-901.0,76.0
39.0,-234.0,-3.0,-144.0,37.0,-404.0,140.0,-909.0,83.0
38.0,-231.0,-5.0,-164.0,28.0,-397.0,139.0,-914.0,84.0
37.0,-236.0,-5.0,-182.0,19.0,-389.0,127.0,-914.0,81.0
35.0,-235.0,-5.0,-194.0,9.0,-380.0,115.0,-912.0,78.0
28.0,-235.0,-7.0,-205.0,1.0,-368.0,106.0,-909.0,72.0
23.0,-232.0,-4.0,-214.0,-6.0,-357.0,86.0,-905.0,62.0
19.0,-230.0,-15.0,-219.0,-11.0,-345.0,67.0,-895.0,60.0
17.0,-227.0,-5.0,-220.0,-13.0,-330.0,61.0,-894.0,51.0
14.0,-231.0,-10.0,-214.0,-15.0,-313.0,49.0,-899.0,60.0
13.0,-235.0,-9.0,-202.0,-23.0,-292.0,38.0,-897.0,69.0
13.0,-239.0,-10.0,-185.0,-35.0,-267.0,38.0,-913.0,74.0
13.0,-244.0,-2.0,-160.0,-54.0,-244.0,35.0,-929.0,85.0
11.0,-249.0,2.0,-135.0,-72.0,-220.0,34.0,-946.0,95.0
12.0,-255.0,0.0,-107.0,-96.0,-195.0,30.0,-972.0,109.0
7.0,-261.0,1.0,-79.0,-119.0,-169.0,22.0,-990.0,114.0
8.0,-265.0,5.0,-52.0,-142.0,-143.0,15.0,-1009.0,118.0
3.0,-266.0,3.0,-27.0,-164.0,-117.0,5.0,-1021.0,126.0
0.0,-268.0,3.0,-4.0,-187.0,-94.0,-15.0,-1026.0,125.0
-2.0,-272.0,11.0,17.0,-208.0,-70.0,-32.0,-1028.0,133.0
-7.0,-275.0,5.0,35.0,-228.0,-50.0,-44.0,-1050.0,135.0
-12.0,-276.0,7.0,51.0,-249.0,-26.0,-54.0,-1066.0,137.0
-11.0,-284.0,12.0,65.0,-274.0,-11.0,-56.0,-1082.0,157.0
-11.0,-286.0,13.0,76.0,-296.0,0.0,-61.0,-1101.0,170.0
-10.0,-291.0,21.0,85.0,-322.0,11.0,-50.0,-1129.0,181.0
-7.0,-294.0,21.0,91.0,-352.0,14.0,-37.0,-1139.0,186.0
-1.0,-297.0,22.0,90.0,-386.0,18.0,-19.0,-1142.0,186.0
3.0,-297.0,22.0,91.0,-418.0,22.0,1.0,-1142.0,196.0
8.0,-294.0,24.0,103.0,-449.0,23.0,25.0,-1140.0,211.0
20.0,-293.0,35.0,117.0,-475.0,24.0,58.0,-1131.0,239.0
31.0,-292.0,45.0,145.0,-495.0,25.0,106.0,-1126.0,258.0
47.0,-296.0,38.0,174.0,-503.0,23.0,167.0,-1132.0,246.0
68.0,-298.0,27.0,189.0,-493.0,16.0,237.0,-1160.0,200.0
53.0,-310.0,13.0,154.0,-475.0,-10.0,192.0,-1208.0,171.0
61.0,-317.0,20.0,95.0,-481.0,-45.0,227.0,-1219.0,174.0
71.0,-317.0,21.0,65.0,-496.0,-84.0,259.0,-1223.0,196.0
69.0,-318.0,35.0,71.0,-494.0,-110.0,260.0,-1222.0,231.0
70.0,-323.0,45.0,106.0,-479.0,-134.0,253.0,-1229.0,269.0
74.0,-334.0,50.0,153.0,-456.0,-157.0,264.0,-1274.0,294.0
88.0,-353.0,55.0,194.0,-433.0,-185.0,326.0,-1373.0,314.0
98.0,-367.0,71.0,208.0,-424.0,-227.0,349.0,-1416.0,374.0
78.0,-372.0,51.0,182.0,-454.0,-288.0,284.0,-1460.0,305.0
79.0,-382.0,-9.0,79.0,-482.0,-363.0,271.0,-1494.0,95.0
100.0,-394.0,-32.0,-81.0,-444.0,-425.0,333.0,-1518.0,-19.0
105.0,-401.0,-14.0,-129.0,-361.0,-492.0,370.0,-1528.0,40.0
95.0,-397.0,-3.0,-96.0,-292.0,-557.0,344.0,-1543.0,90.0
91.0,-405.0,-15.0,-55.0,-247.0,-611.0,317.0,-1555.0,56.0
85.0,-405.0,-35.0,-52.0,-200.0,-662.0,290.0,-1574.0,-19.0
79.0,-410.0,-44.0,-66.0,-128.0,-713.0,270.0,-1581.0,-62.0
75.0,-406.0,-49.0,-61.0,-42.0,-768.0,258.0,-1566.0,-81.0
79.0,-398.0,-50.0,-27.0,51.0,-817.0,260.0,-1530.0,-80.0
77.0,-383.0,-51.0,25.0,138.0,-860.0,258.0,-1471.0,-86.0
70.0,-362.0,-60.0,75.0,219.0,-891.0,247.0,-1408.0,-140.0
61.0,-342.0,-76.0,120.0,270.0,-891.0,224.0,-1333.0,-197.0
52.0,-329.0,-87.0,149.0,312.0,-867.0,180.0,-1266.0,-233.0
42.0,-312.0,-86.0,183.0,343.0,-823.0,140.0,-1196.0,-238.0
31.0,-292.0,-81.0,225.0,366.0,-759.0,98.0,-1127.0,-233.0
23.0,-273.0,-89.0,265.0,372.0,-690.0,75.0,-1062.0,-246.0
18.0,-249.0,-98.0,287.0,360.0,-618.0,68.0,-978.0,-267.0
12.0,-228.0,-99.0,291.0,332.0,-547.0,53.0,-905.0,-298.0
-3.0,-207.0,-104.0,277.0,293.0,-477.0,11.0,-831.0,-322.0
-12.0,-194.0,-102.0,260.0,241.0,-407.0,-46.0,-763.0,-309.0
-24.0,-185.0,-94.0,248.0,181.0,-323.0,-87.0,-721.0,-273.0
-30.0,-176.0,-83.0,246.0,91.0,-257.0,-122.0,-682.0,-235.0
-34.0,-173.0,-74.0,240.0,13.0,-188.0,-135.0,-691.0,-212.0
-38.0,-186.0,-73.0,222.0,-57.0,-126.0,-140.0,-721.0,-191.0
-35.0,-194.0,-65.0,195.0,-118.0,-72.0,-138.0,-757.0,-184.0
-33.0,-205.0,-65.0,168.0,-169.0,-31.0,-133.0,-788.0,-170.0
-21.0,-212.0,-63.0,142.0,-215.0,3.0,-112.0,-813.0,-159.0
-13.0,-215.0,-53.0,111.0,-255.0,28.0,-63.0,-849.0,-132.0
-7.0,-229.0,-54.0,90.0,-280.0,45.0,-35.0,-888.0,-107.0
3.0,-230.0,-49.0,71.0,-297.0,54.0,-2.0,-903.0,-83.0
8.0,-242.0,-38.0,54.0,-304.0,58.0,11.0,-922.0,-65.0
12.0,-247.0,-37.0,29.0,-307.0,60.0,34.0,-948.0,-36.0
18.0,-248.0,-31.0,8.0,-306.0,63.0,50.0,-964.0,-21.0
26.0,-254.0,-29.0,-17.0,-302.0,65.0,76.0,-975.0,-8.0
28.0,-255.0,-25.0,-43.0,-298.0,74.0,87.0,-985.0,-4.0
27.0,-257.0,-27.0,-67.0,-296.0,86.0,85.0,-986.0,-2.0
27.0,-256.0,-24.0,-92.0,-293.0,104.0,87.0,-984.0,11.0
26.0,-257.0,-23.0,-104.0,-282.0,124.0,73.0,-982.0,14.0
28.0,-256.0,-17.0,-107.0,-264.0,144.0,96.0,-983.0,30.0
31.0,-255.0,-16.0,-100.0,-241.0,160.0,103.0,-977.0,36.0
35.0,-252.0,-27.0,-89.0,-218.0,176.0,113.0,-963.0,18.0
37.0,-248.0,-28.0,-89.0,-190.0,201.0,124.0,-961.0,3.0
39.0,-247.0,-28.0,-88.0,-173.0,225.0,148.0,-953.0,-13.0
45.0,-243.0,-33.0,-89.0,-158.0,246.0,160.0,-939.0,-36.0
53.0,-238.0,-42.0,-102.0,-137.0,271.0,186.0,-924.0,-78.0
54.0,-235.0,-52.0,-131.0,-105.0,290.0,192.0,-916.0,-91.0
58.0,-231.0,-56.0,-157.0,-69.0,306.0,211.0,-905.0,-101.0
57.0,-230.0,-54.0,-190.0,-36.0,313.0,217.0,-900.0,-107.0
60.0,-232.0,-50.0,-217.0,-2.0,316.0,223.0,-896.0,-103.0
56.0,-230.0,-50.0,-237.0,29.0,321.0,210.0,-895.0,-93.0
54.0,-231.0,-47.0,-245.0,54.0,318.0,204.0,-901.0,-83.0
52.0,-235.0,-49.0,-243.0,74.0,305.0,189.0,-911.0,-77.0
49.0,-239.0,-43.0,-223.0,87.0,295.0,178.0,-928.0,-65.0
43.0,-242.0,-32.0,-195.0,102.0,283.0,150.0,-935.0,-38.0
40.0,-245.0,-36.0,-169.0,109.0,273.0,139.0,-941.0,-25.0
33.0,-254.0,-26.0,-147.0,124.0,271.0,115.0,-965.0,-1.0
28.0,-253.0,-19.0,-123.0,135.0,270.0,96.0,-971.0,24.0
23.0,-256.0,-17.0,-101.0,148.0,270.0,71.0,-977.0,41.0
16.0,-258.0,-9.0,-84.0,167.0,280.0,50.0,-978.0,59.0
9.0,-261.0,-9.0,-71.0,185.0,297.0,20.0,-995.0,74.0
4.0,-259.0,-7.0,-56.0,206.0,310.0,-2.0,-989.0,72.0
-2.0,-256.0,-7.0,-41.0,230.0,317.0,-20.0,-978.0,79.0
-8.0,-247.0,-6.0,-17.0,244.0,326.0,-35.0,-957.0,78.0
-12.0,-245.0,-2.0,0.0,251.0,338.0,-53.0,-941.0,85.0
-13.0,-242.0,1.0,18.0,251.0,349.0,-61.0,-934.0,91.0
-12.0,-242.0,-2.0,32.0,244.0,357.0,-60.0,-926.0,93.0
-12.0,-234.0,1.0,40.0,235.0,364.0,-61.0,-909.0,93.0
-10.0,-233.0,-2.0,46.0,223.0,376.0,-46.0,-907.0,100.0
-7.0,-236.0,0.0,51.0,208.0,387.0,-36.0,-899.0,98.0
-6.0,-230.0,-1.0,60.0,203.0,398.0,-36.0,-886.0,98.0
-2.0,-226.0,0.0,69.0,200.0,407.0,-15.0,-876.0,96.0
2.0,-227.0,0.0,74.0,206.0,409.0,-13.0,-880.0,97.0
5.0,-223.0,-2.0,71.0,209.0,407.0,11.0,-866.0,84.0
9.0,-219.0,-1.0,66.0,217.0,401.0,29.0,-856.0,88.0
12.0,-223.0,-1.0,59.0,226.0,394.0,34.0,-860.0,86.0
19.0,-223.0,-3.0,55.0,241.0,382.0,50.0,-860.0,86.0
20.0,-221.0,-4.0,46.0,260.0,372.0,60.0,-865.0,90.0
18.0,-223.0,1.0,40.0,285.0,360.0,61.0,-881.0,104.0
24.0,-229.0,1.0,28.0,315.0,347.0,66.0,-893.0,103.0
26.0,-238.0,2.0,15.0,354.0,340.0,81.0,-910.0,116.0
26.0,-242.0,3.0,17.0,398.0,320.0,77.0,-936.0,126.0
25.0,-251.0,7.0,24.0,440.0,289.0,86.0,-961.0,134.0
31.0,-256.0,10.0,34.0,473.0,260.0,92.0,-981.0,142.0
32.0,-262.0,12.0,41.0,502.0,220.0,106.0,-998.0,152.0
36.0,-266.0,13.0,43.0,531.0,178.0,125.0,-1020.0,156.0
36.0,-273.0,18.0,47.0,558.0,128.0,133.0,-1042.0,168.0
37.0,-281.0,22.0,59.0,581.0,86.0,128.0,-1084.0,179.0
38.0,-286.0,25.0,75.0,601.0,47.0,123.0,-1109.0,191.0
32.0,-292.0,23.0,93.0,622.0,14.0,113.0,-1115.0,199.0
30.0,-295.0,31.0,118.0,650.0,-14.0,92.0,-1129.0,217.0
21.0,-298.0,33.0,156.0,684.0,-31.0,54.0,-1148.0,233.0
8.0,-301.0,38.0,206.0,721.0,-46.0,8.0,-1153.0,260.0
-12.0,-299.0,44.0,279.0,765.0,-48.0,-61.0,-1150.0,273.0
-28.0,-299.0,47.0,336.0,795.0,-45.0,-120.0,-1143.0,276.0
-42.0,-297.0,43.0,377.0,812.0,-37.0,-171.0,-1134.0,266.0
-53.0,-293.0,42.0,398.0,817.0,-26.0,-220.0,-1135.0,258.0
-69.0,-296.0,38.0,401.0,803.0,-7.0,-271.0,-1131.0,244.0
-82.0,-293.0,26.0,384.0,762.0,12.0,-320.0,-1131.0,217.0
-94.0,-299.0,17.0,349.0,689.0,39.0,-360.0,-1148.0,170.0
-93.0,-306.0,16.0,290.0,591.0,70.0,-376.0,-1189.0,155.0
-109.0,-322.0,20.0,227.0,479.0,110.0,-428.0,-1222.0,174.0
-117.0,-328.0,32.0,198.0,364.0,160.0,-453.0,-1246.0,214.0
-119.0,-331.0,41.0,215.0,234.0,206.0,-468.0,-1261.0,252.0
-119.0,-334.0,46.0,251.0,136.0,242.0,-476.0,-1265.0,282.0
-118.0,-336.0,52.0,292.0,51.0,273.0,-468.0,-1264.0,309.0
-110.0,-332.0,62.0,324.0,-16.0,290.0,-444.0,-1262.0,323.0
-94.0,-327.0,63.0,345.0,-73.0,297.0,-385.0,-1256.0,335.0
-75.0,-326.0,66.0,356.0,-121.0,291.0,-326.0,-1246.0,351.0
-60.0,-319.0,69.0,358.0,-167.0,280.0,-253.0,-1222.0,371.0
-48.0,-313.0,73.0,357.0,-203.0,264.0,-198.0,-1205.0,391.0
-33.0,-310.0,79.0,359.0,-236.0,246.0,-144.0,-1178.0,406.0
-20.0,-298.0,80.0,368.0,-260.0,218.0,-101.0,-1155.0,428.0
-12.0,-289.0,80.0,384.0,-275.0,198.0,-64.0,-1116.0,430.0
-12.0,-293.0,80.0,396.0,-272.0,176.0,-77.0,-1113.0,429.0
-67.0,-339.0,75.0,395.0,-253.0,176.0,-266.0,-1294.0,384.0
-7.0,-342.0,59.0,360.0,-234.0,223.0,-122.0,-1332.0,374.0
65.0,-359.0,-14.0,194.0,-101.0,261.0,220.0,-1441.0,113.0
66.0,-378.0,-70.0,-115.0,-44.0,254.0,242.0,-1492.0,-183.0
43.0,-381.0,-55.0,-284.0,-96.0,286.0,141.0,-1444.0,-125.0
33.0,-360.0,-38.0,-187.0,-115.0,354.0,105.0,-1369.0,-46.0
29.0,-357.0,-59.0,-59.0,-115.0,420.0,86.0,-1381.0,-113.0
21.0,-356.0,-69.0,0.0,-93.0,492.0,60.0,-1364.0,-169.0
-5.0,-335.0,-73.0,31.0,-46.0,543.0,-18.0,-1310.0,-186.0
-18.0,-297.0,-73.0,74.0,-10.0,594.0,-88.0,-1181.0,-175.0
-16.0,-287.0,-85.0,111.0,18.0,651.0,-96.0,-1119.0,-245.0
-9.0,-272.0,-102.0,81.0,47.0,686.0,-52.0,-1047.0,-322.0
10.0,-255.0,-117.0,12.0,69.0,716.0,28.0,-993.0,-368.0
37.0,-252.0,-122.0,-44.0,79.0,738.0,123.0,-966.0,-398.0
51.0,-246.0,-126.0,-50.0,93.0,744.0,181.0,-952.0,-402.0
57.0,-245.0,-122.0,-4.0,114.0,725.0,215.0,-945.0,-392.0
65.0,-244.0,-115.0,73.0,142.0,692.0,241.0,-943.0,-365.0
75.0,-247.0,-102.0,154.0,169.0,649.0,258.0,-954.0,-330.0
81.0,-250.0,-97.0,212.0,203.0,596.0,292.0,-965.0,-295.0
79.0,-253.0,-91.0,249.0,233.0,549.0,293.0,-980.0,-271.0
77.0,-255.0,-89.0,253.0,274.0,501.0,273.0,-988.0,-248.0
67.0,-259.0,-78.0,237.0,315.0,441.0,248.0,-1004.0,-216.0
57.0,-258.0,-76.0,196.0,349.0,371.0,214.0,-1007.0,-196.0
52.0,-265.0,-74.0,146.0,371.0,293.0,187.0,-1015.0,-193.0
46.0,-270.0,-75.0,97.0,382.0,223.0,151.0,-1041.0,-212.0
35.0,-272.0,-78.0,50.0,381.0,160.0,114.0,-1067.0,-216.0
22.0,-279.0,-76.0,10.0,373.0,110.0,75.0,-1102.0,-209.0
12.0,-289.0,-70.0,-23.0,355.0,68.0,19.0,-1122.0,-164.0
-6.0,-296.0,-61.0,-42.0,322.0,31.0,-39.0,-1156.0,-135.0
-18.0,-300.0,-48.0,-53.0,281.0,4.0,-93.0,-1153.0,-87.0
-35.0,-304.0,-38.0,-45.0,231.0,-16.0,-133.0,-1175.0,-48.0
-49.0,-309.0,-20.0,-38.0,173.0,-45.0,-197.0,-1181.0,1.0
-57.0,-312.0,-12.0,-20.0,108.0,-71.0,-230.0,-1189.0,40.0
-62.0,-313.0,-4.0,-1.0,46.0,-104.0,-253.0,-1193.0,71.0
-65.0,-304.0,-2.0,14.0,-13.0,-141.0,-267.0,-1172.0,82.0
-61.0,-301.0,-3.0,30.0,-68.0,-185.0,-251.0,-1160.0,85.0
-60.0,-295.0,0.0,42.0,-116.0,-226.0,-247.0,-1145.0,89.0
-57.0,-287.0,-8.0,54.0,-160.0,-264.0,-231.0,-1096.0,79.0
-56.0,-275.0,-8.0,65.0,-212.0,-298.0,-226.0,-1068.0,70.0
-51.0,-271.0,-12.0,71.0,-254.0,-327.0,-216.0,-1019.0,58.0
-51.0,-261.0,-15.0,73.0,-291.0,-345.0,-206.0,-991.0,58.0
-47.0,-252.0,-11.0,78.0,-331.0,-358.0,-191.0,-964.0,56.0
-41.0,-240.0,-14.0,86.0,-378.0,-373.0,-159.0,-923.0,51.0
-31.0,-233.0,-13.0,100.0,-421.0,-387.0,-133.0,-894.0,62.0
-23.0,-225.0,-13.0,117.0,-464.0,-400.0,-106.0,-861.0,71.0
-13.0,-214.0,-10.0,134.0,-503.0,-416.0,-64.0,-837.0,65.0
-3.0,-211.0,-8.0,142.0,-526.0,-428.0,-31.0,-810.0,67.0
0.0,-206.0,-8.0,147.0,-534.0,-436.0,-13.0,-794.0,66.0
5.0,-202.0,-6.0,154.0,-541.0,-448.0,10.0,-796.0,63.0
13.0,-204.0,-5.0,163.0,-543.0,-463.0,38.0,-787.0,66.0
19.0,-204.0,-10.0,178.0,-544.0,-469.0,69.0,-786.0,63.0
17.0,-208.0,-11.0,183.0,-540.0,-479.0,62.0,-792.0,77.0
23.0,-203.0,-13.0,176.0,-547.0,-498.0,80.0,-778.0,68.0
31.0,-204.0,-6.0,165.0,-528.0,-496.0,101.0,-784.0,66.0
29.0,-204.0,-13.0,156.0,-499.0,-483.0,90.0,-782.0,67.0
25.0,-201.0,-7.0,146.0,-485.0,-487.0,82.0,-765.0,73.0
27.0,-186.0,-8.0,130.0,-488.0,-478.0,101.0,-734.0,67.0
30.0,-192.0,-4.0,94.0,-494.0,-450.0,102.0,-739.0,78.0
32.0,-189.0,-6.0,65.0,-508.0,-426.0,106.0,-739.0,70.0
29.0,-193.0,-9.0,32.0,-510.0,-415.0,103.0,-745.0,59.0
25.0,-193.0,-10.0,-2.0,-506.0,-399.0,91.0,-752.0,61.0
33.0,-199.0,-7.0,-31.0,-513.0,-404.0,105.0,-757.0,66.0
32.0,-204.0,-12.0,-62.0,-502.0,-389.0,109.0,-783.0,64.0
30.0,-206.0,-2.0,-97.0,-486.0,-376.0,99.0,-799.0,82.0
25.0,-211.0,-2.0,-133.0,-482.0,-364.0,89.0,-812.0,93.0
24.0,-217.0,-1.0,-169.0,-489.0,-350.0,82.0,-845.0,99.0
20.0,-218.0,0.0,-194.0,-504.0,-335.0,71.0,-862.0,106.0
22.0,-230.0,2.0,-207.0,-516.0,-324.0,75.0,-887.0,115.0
22.0,-229.0,6.0,-210.0,-520.0,-305.0,78.0,-892.0,116.0
26.0,-234.0,9.0,-201.0,-514.0,-291.0,75.0,-898.0,138.0
22.0,-238.0,12.0,-184.0,-498.0,-273.0,71.0,-909.0,147.0
21.0,-245.0,18.0,-161.0,-477.0,-258.0,69.0,-935.0,164.0
22.0,-250.0,25.0,-128.0,-456.0,-240.0,68.0,-958.0,186.0
19.0,-257.0,27.0,-89.0,-433.0,-226.0,57.0,-970.0,199.0
17.0,-261.0,24.0,-57.0,-410.0,-207.0,56.0,-997.0,202.0
16.0,-261.0,28.0,-36.0,-393.0,-188.0,50.0,-1005.0,207.0
13.0,-264.0,27.0,-12.0,-380.0,-167.0,34.0,-1003.0,207.0
11.0,-265.0,30.0,6.0,-375.0,-147.0,24.0,-1012.0,214.0
12.0,-268.0,24.0,23.0,-375.0,-122.0,28.0,-1018.0,220.0
15.0,-270.0,30.0,38.0,-382.0,-109.0,34.0,-1028.0,215.0
15.0,-273.0,27.0,51.0,-385.0,-97.0,37.0,-1039.0,211.0
15.0,-275.0,27.0,61.0,-392.0,-96.0,37.0,-1058.0,206.0
15.0,-281.0,32.0,74.0,-403.0,-97.0,46.0,-1088.0,221.0
15.0,-289.0,37.0,100.0,-412.0,-108.0,38.0,-1107.0,235.0
9.0,-294.0,44.0,124.0,-427.0,-112.0,22.0,-1124.0,255.0
-2.0,-297.0,47.0,145.0,-450.0,-123.0,-14.0,-1143.0,281.0
-5.0,-302.0,51.0,166.0,-482.0,-130.0,-31.0,-1152.0,299.0
-12.0,-294.0,52.0,195.0,-507.0,-136.0,-71.0,-1144.0,307.0
-23.0,-292.0,57.0,204.0,-535.0,-128.0,-106.0,-1134.0,316.0
-29.0,-295.0,54.0,205.0,-578.0,-119.0,-128.0,-1132.0,302.0
-27.0,-297.0,50.0,193.0,-616.0,-113.0,-129.0,-1137.0,277.0
-25.0,-299.0,43.0,167.0,-645.0,-119.0,-115.0,-1152.0,253.0
-25.0,-306.0,35.0,130.0,-667.0,-125.0,-119.0,-1172.0,247.0
-19.0,-308.0,42.0,90.0,-693.0,-148.0,-92.0,-1184.0,252.0
-7.0,-308.0,48.0,79.0,-713.0,-174.0,-41.0,-1186.0,276.0
8.0,-309.0,51.0,97.0,-727.0,-202.0,-1.0,-1169.0,293.0
17.0,-306.0,57.0,126.0,-743.0,-219.0,30.0,-1174.0,314.0
20.0,-303.0,58.0,155.0,-761.0,-241.0,69.0,-1167.0,316.0
30.0,-300.0,57.0,184.0,-780.0,-259.0,94.0,-1153.0,313.0
30.0,-292.0,57.0,208.0,-803.0,-286.0,106.0,-1140.0,317.0
30.0,-286.0,59.0,233.0,-822.0,-299.0,110.0,-1108.0,331.0
28.0,-281.0,63.0,253.0,-841.0,-307.0,97.0,-1056.0,354.0
28.0,-276.0,71.0,276.0,-858.0,-310.0,104.0,-1065.0,375.0
26.0,-271.0,73.0,302.0,-879.0,-321.0,85.0,-1030.0,389.0
19.0,-267.0,71.0,327.0,-903.0,-316.0,73.0,-1017.0,391.0
14.0,-262.0,73.0,348.0,-931.0,-305.0,41.0,-991.0,393.0
5.0,-258.0,69.0,365.0,-969.0,-281.0,19.0,-993.0,388.0
18.0,-301.0,60.0,377.0,-1002.0,-260.0,30.0,-1125.0,345.0
66.0,-356.0,93.0,311.0,-1040.0,-232.0,265.0,-1396.0,469.0
7.0,-349.0,115.0,169.0,-1204.0,-269.0,69.0,-1391.0,563.0
-15.0,-374.0,-91.0,-186.0,-1444.0,-297.0,-115.0,-1490.0,-182.0
41.0,-402.0,-181.0,-524.0,-1423.0,-335.0,83.0,-1538.0,-628.0
59.0,-386.0,-72.0,-547.0,-1233.0,-468.0,183.0,-1443.0,-260.0
78.0,-377.0,-25.0,-340.0,-1091.0,-611.0,262.0,-1436.0,6.0
80.0,-384.0,-48.0,-191.0,-993.0,-715.0,259.0,-1470.0,-46.0
92.0,-361.0,-47.0,-117.0,-887.0,-846.0,340.0,-1342.0,-77.0
114.0,-307.0,-46.0,-2.0,-774.0,-981.0,418.0,-1152.0,-54.0
106.0,-262.0,-26.0,119.0,-683.0,-1074.0,386.0,-993.0,7.0
90.0,-228.0,-18.0,175.0,-639.0,-1131.0,318.0,-902.0,30.0
65.0,-208.0,-28.0,179.0,-568.0,-1103.0,240.0,-813.0,2.0
38.0,-189.0,-42.0,154.0,-510.0,-1020.0,139.0,-753.0,-67.0
6.0,-192.0,-58.0,133.0,-469.0,-912.0,21.0,-751.0,-132.0
-8.0,-209.0,-54.0,104.0,-445.0,-783.0,-42.0,-807.0,-123.0
-14.0,-223.0,-50.0,64.0,-445.0,-653.0,-71.0,-882.0,-81.0
-33.0,-238.0,-50.0,-1.0,-483.0,-524.0,-120.0,-937.0,-104.0
-47.0,-254.0,-67.0,-91.0,-550.0,-407.0,-168.0,-988.0,-167.0
-58.0,-265.0,-78.0,-173.0,-642.0,-299.0,-222.0,-1022.0,-216.0
-67.0,-273.0,-75.0,-224.0,-743.0,-209.0,-261.0,-1055.0,-196.0
-71.0,-281.0,-63.0,-246.0,-846.0,-129.0,-273.0,-1099.0,-154.0
-61.0,-289.0,-63.0,-263.0,-966.0,-55.0,-252.0,-1123.0,-148.0
-57.0,-287.0,-64.0,-290.0,-1061.0,-3.0,-218.0,-1121.0,-167.0
-48.0,-281.0,-71.0,-323.0,-1154.0,32.0,-180.0,-1099.0,-185.0
-39.0,-274.0,-76.0,-350.0,-1255.0,62.0,-150.0,-1064.0,-184.0
-33.0,-262.0,-67.0,-363.0,-1355.0,83.0,-123.0,-1007.0,-179.0
-33.0,-259.0,-61.0,-363.0,-1449.0,108.0,-122.0,-986.0,-148.0
-28.0,-267.0,-54.0,-349.0,-1539.0,133.0,-125.0,-1013.0,-112.0
-27.0,-270.0,-59.0,-339.0,-1630.0,160.0,-113.0,-1045.0,-124.0
-18.0,-277.0,-58.0,-344.0,-1719.0,183.0,-82.0,-1076.0,-124.0
-14.0,-278.0,-57.0,-358.0,-1810.0,208.0,-60.0,-1094.0,-130.0
-12.0,-284.0,-60.0,-374.0,-1924.0,245.0,-57.0,-1104.0,-141.0
-18.0,-287.0,-62.0,-384.0,-2013.0,288.0,-67.0,-1107.0,-144.0
-25.0,-284.0,-63.0,-385.0,-2091.0,325.0,-98.0,-1103.0,-141.0
-30.0,-278.0,-65.0,-384.0,-2166.0,366.0,-123.0,-1081.0,-170.0
-38.0,-267.0,-70.0,-380.0,-2252.0,405.0,-151.0,-1034.0,-184.0
-47.0,-260.0,-65.0,-357.0,-2351.0,452.0,-183.0,-987.0,-177.0
-51.0,-254.0,-59.0,-311.0,-2472.0,496.0,-199.0,-963.0,-126.0
-61.0,-247.0,-37.0,-234.0,-2602.0,545.0,-224.0,-935.0,-54.0
-64.0,-245.0,-21.0,-137.0,-2737.0,592.0,-245.0,-925.0,13.0
-71.0,-247.0,-6.0,-38.0,-2863.0,644.0,-272.0,-933.0,65.0
-75.0,-247.0,-1.0,51.0,-2999.0,700.0,-293.0,-934.0,89.0
-75.0,-251.0,-3.0,130.0,-3100.0,750.0,-291.0,-940.0,85.0
-81.0,-248.0,-4.0,181.0,-3183.0,803.0,-312.0,-945.0,89.0
-82.0,-246.0,-8.0,211.0,-3274.0,839.0,-328.0,-939.0,81.0
-71.0,-248.0,-12.0,216.0,-3366.0,836.0,-293.0,-935.0,55.0
-57.0,-249.0,-16.0,228.0,-3427.0,833.0,-220.0,-958.0,31.0
-39.0,-256.0,-21.0,237.0,-3455.0,824.0,-147.0,-983.0,23.0
-19.0,-267.0,-21.0,246.0,-3444.0,832.0,-91.0,-1010.0,38.0
1.0,-272.0,-20.0,255.0,-3431.0,816.0,-22.0,-1026.0,43.0
36.0,-263.0,-22.0,264.0,-3394.0,816.0,115.0,-1012.0,29.0
30.0,-274.0,-5.0,281.0,-3295.0,876.0,99.0,-1051.0,89.0
61.0,-276.0,-1.0,314.0,-3269.0,863.0,195.0,-1060.0,101.0
77.0,-279.0,7.0,394.0,-3178.0,857.0,272.0,-1071.0,130.0
98.0,-275.0,25.0,503.0,-3035.0,909.0,337.0,-1033.0,198.0
113.0,-282.0,33.0,606.0,-2901.0,978.0,388.0,-1071.0,242.0
117.0,-278.0,46.0,694.0,-2781.0,1029.0,409.0,-1062.0,274.0
127.0,-254.0,44.0,791.0,-2660.0,1080.0,457.0,-991.0,281.0
120.0,-205.0,38.0,904.0,-2533.0,1160.0,436.0,-772.0,266.0
122.0,-160.0,31.0,1007.0,-2428.0,1194.0,433.0,-624.0,234.0
120.0,-137.0,35.0,1064.0,-2317.0,1185.0,434.0,-513.0,245.0
115.0,-116.0,45.0,1083.0,-2173.0,1143.0,411.0,-450.0,262.0
95.0,-113.0,41.0,1036.0,-2055.0,1102.0,336.0,-462.0,254.0
66.0,-115.0,27.0,900.0,-1973.0,1029.0,251.0,-487.0,200.0
39.0,-126.0,-5.0,680.0,-1938.0,939.0,153.0,-518.0,96.0
17.0,-150.0,-28.0,435.0,-1927.0,850.0,68.0,-588.0,4.0
-9.0,-173.0,-38.0,244.0,-1920.0,792.0,-12.0,-673.0,-46.0
-27.0,-191.0,-55.0,130.0,-1907.0,755.0,-101.0,-741.0,-92.0
-38.0,-196.0,-64.0,50.0,-1874.0,731.0,-171.0,-763.0,-157.0
-58.0,-193.0,-87.0,-34.0,-1816.0,702.0,-239.0,-757.0,-236.0
-74.0,-190.0,-115.0,-112.0,-1768.0,676.0,-287.0,-740.0,-343.0
-83.0,-186.0,-153.0,-168.0,-1760.0,655.0,-317.0,-727.0,-525.0
-83.0,-181.0,-190.0,-165.0,-1810.0,669.0,-330.0,-700.0,-659.0
-75.0,-155.0,-193.0,-137.0,-1874.0,690.0,-304.0,-601.0,-691.0
-60.0,-118.0,-170.0,-76.0,-1900.0,710.0,-242.0,-458.0,-600.0
-53.0,-85.0,-146.0,39.0,-1884.0,704.0,-201.0,-274.0,-485.0
-38.0,-37.0,-143.0,238.0,-1875.0,701.0,-138.0,-114.0,-480.0
-18.0,14.0,-188.0,425.0,-1919.0,695.0,-53.0,26.0,-667.0
14.0,67.0,-236.0,432.0,-2001.0,675.0,23.0,184.0,-848.0
16.0,98.0,-223.0,223.0,-2070.0,630.0,67.0,302.0,-818.0
17.0,102.0,-172.0,-90.0,-2133.0,599.0,81.0,341.0,-641.0
20.0,74.0,-136.0,-427.0,-2242.0,595.0,91.0,269.0,-478.0
27.0,58.0,-143.0,-661.0,-2356.0,605.0,124.0,203.0,-453.0
48.0,45.0,-150.0,-918.0,-2445.0,603.0,178.0,125.0,-511.0
54.0,8.0,-168.0,-1165.0,-2491.0,594.0,213.0,-17.0,-560.0
64.0,-21.0,-160.0,-1329.0,-2492.0,586.0,238.0,-108.0,-554.0
68.0,-51.0,-170.0,-1370.0,-2454.0,599.0,250.0,-204.0,-580.0
69.0,-77.0,-183.0,-1345.0,-2401.0,631.0,259.0,-311.0,-631.0
68.0,-110.0,-185.0,-1320.0,-2358.0,688.0,258.0,-425.0,-653.0
66.0,-142.0,-154.0,-1305.0,-2332.0,747.0,251.0,-545.0,-546.0
67.0,-155.0,-122.0,-1264.0,-2304.0,818.0,243.0,-595.0,-363.0
59.0,-174.0,-73.0,-1190.0,-2253.0,924.0,208.0,-680.0,-181.0
50.0,-203.0,-18.0,-1140.0,-2196.0,988.0,180.0,-773.0,32.0
59.0,-232.0,13.0,-1089.0,-2154.0,1013.0,213.0,-879.0,148.0
96.0,-242.0,18.0,-1038.0,-2120.0,1008.0,320.0,-923.0,190.0
137.0,-244.0,29.0,-1005.0,-2072.0,973.0,484.0,-963.0,227.0
159.0,-214.0,64.0,-958.0,-1993.0,932.0,566.0,-841.0,306.0
154.0,-213.0,90.0,-926.0,-1899.0,872.0,576.0,-801.0,458.0
155.0,-216.0,112.0,-850.0,-1835.0,797.0,578.0,-821.0,542.0
145.0,-225.0,126.0,-730.0,-1759.0,736.0,529.0,-848.0,608.0
135.0,-239.0,138.0,-603.0,-1659.0,714.0,488.0,-901.0,660.0
124.0,-243.0,137.0,-462.0,-1496.0,713.0,444.0,-930.0,659.0
136.0,-244.0,130.0,-355.0,-1314.0,728.0,465.0,-916.0,637.0
113.0,-238.0,132.0,-255.0,-1098.0,758.0,409.0,-908.0,638.0
109.0,-225.0,134.0,-169.0,-963.0,776.0,391.0,-867.0,634.0
104.0,-212.0,127.0,-113.0,-869.0,791.0,368.0,-813.0,598.0
93.0,-199.0,121.0,-72.0,-786.0,812.0,341.0,-753.0,591.0
83.0,-174.0,102.0,-29.0,-719.0,833.0,306.0,-680.0,515.0
77.0,-154.0,70.0,7.0,-658.0,849.0,276.0,-590.0,402.0
49.0,-139.0,59.0,27.0,-579.0,871.0,214.0,-532.0,340.0
10.0,-133.0,44.0,50.0,-530.0,894.0,72.0,-508.0,260.0
-12.0,-128.0,15.0,92.0,-543.0,892.0,-64.0,-482.0,150.0
-36.0,-120.0,-9.0,133.0,-512.0,913.0,-131.0,-469.0,75.0
-45.0,-118.0,-15.0,171.0,-448.0,943.0,-180.0,-440.0,35.0
-50.0,-101.0,-23.0,207.0,-391.0,982.0,-204.0,-380.0,-5.0
-61.0,-85.0,-28.0,223.0,-370.0,1017.0,-226.0,-341.0,-20.0
-57.0,-78.0,-35.0,225.0,-395.0,1058.0,-216.0,-298.0,-36.0
-51.0,-78.0,-41.0,212.0,-435.0,1099.0,-190.0,-298.0,-63.0
-51.0,-100.0,-41.0,184.0,-484.0,1148.0,-192.0,-357.0,-74.0
-51.0,-133.0,-32.0,173.0,-551.0,1193.0,-196.0,-473.0,-37.0
-48.0,-145.0,-31.0,213.0,-652.0,1230.0,-185.0,-541.0,-26.0
-48.0,-153.0,-7.0,316.0,-770.0,1247.0,-184.0,-564.0,53.0
-64.0,-145.0,27.0,459.0,-838.0,1251.0,-227.0,-518.0,171.0
-73.0,-116.0,63.0,642.0,-901.0,1216.0,-254.0,-392.0,334.0
-84.0,-53.0,84.0,801.0,-962.0,1233.0,-323.0,-176.0,435.0
-110.0,-24.0,84.0,950.0,-1068.0,1359.0,-393.0,-96.0,421.0
-94.0,21.0,31.0,962.0,-1200.0,1516.0,-364.0,27.0,239.0
-37.0,22.0,-23.0,755.0,-1280.0,1698.0,-173.0,43.0,25.0
5.0,-19.0,-68.0,444.0,-1261.0,1934.0,42.0,-140.0,-187.0
70.0,-78.0,-145.0,163.0,-1201.0,2154.0,251.0,-350.0,-490.0
93.0,-119.0,-259.0,-54.0,-1083.0,2358.0,339.0,-526.0,-914.0
85.0,-178.0,-406.0,-288.0,-917.0,2592.0,294.0,-747.0,-1454.0
82.0,-279.0,-550.0,-644.0,-759.0,2800.0,280.0,-1114.0,-2039.0
61.0,-414.0,-655.0,-920.0,-574.0,3000.0,225.0,-1583.0,-2509.0
21.0,-530.0,-630.0,-1027.0,-415.0,3162.0,96.0,-1955.0,-2538.0
-36.0,-587.0,-542.0,-740.0,-287.0,3261.0,-187.0,-2188.0,-2142.0
-64.0,-687.0,-408.0,-194.0,-175.0,3354.0,-299.0,-2613.0,-1510.0
43.0,-716.0,-326.0,423.0,-65.0,3431.0,156.0,-2701.0,-1207.0
205.0,-714.0,-280.0,955.0,75.0,3376.0,721.0,-2724.0,-1017.0
149.0,-724.0,-219.0,1337.0,263.0,3190.0,491.0,-2753.0,-776.0
-93.0,-649.0,-92.0,1601.0,470.0,3081.0,-400.0,-2421.0,-299.0
-136.0,-549.0,-64.0,2052.0,679.0,3100.0,-627.0,-2118.0,-105.0
-250.0,-431.0,7.0,2439.0,811.0,3069.0,-735.0,-1747.0,2.0
-466.0,-403.0,143.0,2525.0,795.0,3139.0,-1773.0,-1491.0,663.0
-468.0,-330.0,108.0,2712.0,464.0,3290.0,-1831.0,-1232.0,554.0
-476.0,-114.0,-3.0,2744.0,393.0,3416.0,-1894.0,-542.0,129.0
-466.0,123.0,-63.0,2516.0,574.0,3707.0,-1847.0,362.0,-123.0
-428.0,90.0,-39.0,2166.0,604.0,4089.0,-1580.0,376.0,-78.0
-541.0,-128.0,-8.0,1653.0,384.0,4235.0,-2033.0,-354.0,-18.0
-486.0,-316.0,90.0,941.0,155.0,4199.0,-1858.0,-1239.0,415.0
-591.0,-348.0,115.0,327.0,-7.0,4053.0,-2371.0,-1362.0,565.0
-718.0,-408.0,149.0,4.0,-220.0,4048.0,-2871.0,-1522.0,698.0
-984.0,-450.0,148.0,-43.0,-459.0,4131.0,-3860.0,-1661.0,703.0
-1144.0,-492.0,126.0,68.0,-527.0,4431.0,-4441.0,-1794.0,605.0
-1220.0,-532.0,78.0,182.0,-529.0,4715.0,-4714.0,-1958.0,415.0
-1167.0,-520.0,-4.0,216.0,-583.0,4815.0,-4625.0,-1957.0,125.0
-954.0,-475.0,-63.0,133.0,-555.0,4827.0,-3784.0,-1824.0,-106.0
-819.0,-349.0,-64.0,36.0,-478.0,4707.0,-3323.0,-1396.0,-195.0
-675.0,-263.0,-29.0,21.0,-361.0,4605.0,-2637.0,-957.0,-30.0
-442.0,-144.0,-29.0,37.0,-257.0,4496.0,-1822.0,-587.0,-14.0
-359.0,-87.0,10.0,-70.0,-36.0,4371.0,-1464.0,-335.0,98.0
-336.0,-168.0,78.0,-168.0,426.0,4460.0,-1376.0,-500.0,383.0
-277.0,-213.0,11.0,99.0,464.0,4577.0,-1042.0,-738.0,142.0
-252.0,-167.0,-33.0,363.0,303.0,4534.0,-955.0,-613.0,-54.0
-222.0,-124.0,-47.0,463.0,237.0,4451.0,-865.0,-500.0,-60.0
-180.0,-60.0,-137.0,502.0,127.0,4578.0,-741.0,-279.0,-522.0
-611.0,222.0,-441.0,86.0,602.0,4732.0,-3551.0,833.0,-1688.0
-575.0,269.0,318.0,-1573.0,1228.0,6402.0,-1932.0,1082.0,961.0
378.0,-84.0,-91.0,-2268.0,1415.0,7233.0,1123.0,-342.0,-102.0
-546.0,193.0,7.0,-2258.0,3144.0,6549.0,-1764.0,740.0,-17.0
197.0,-393.0,-757.0,-2173.0,3729.0,6887.0,1212.0,-923.0,391.0
-438.0,-254.0,224.0,-1810.0,3573.0,4918.0,-1294.0,-716.0,86.0
-585.0,-330.0,332.0,-1652.0,1939.0,3749.0,-2185.0,-843.0,1130.0
-393.0,-389.0,288.0,-1037.0,-109.0,3359.0,-1485.0,-1322.0,1313.0
-516.0,-404.0,209.0,-187.0,-1280.0,2934.0,-1978.0,-1357.0,993.0
-521.0,-391.0,57.0,725.0,-1897.0,2777.0,-1918.0,-1321.0,260.0
-462.0,-314.0,-127.0,1603.0,-2155.0,2732.0,-1853.0,-1119.0,-375.0
-458.0,-91.0,-240.0,2228.0,-1953.0,2785.0,-1897.0,-341.0,-820.0
-329.0,111.0,-210.0,2444.0,-1295.0,3090.0,-1385.0,375.0,-810.0
-364.0,230.0,-140.0,2321.0,-572.0,3424.0,-1412.0,805.0,-560.0
-344.0,167.0,-98.0,1912.0,-189.0,3446.0,-1307.0,606.0,-276.0
-334.0,175.0,-39.0,1512.0,30.0,3128.0,-1232.0,603.0,-101.0
-272.0,141.0,-58.0,920.0,11.0,3070.0,-1060.0,450.0,-117.0
-195.0,66.0,-61.0,367.0,-11.0,3009.0,-789.0,218.0,-159.0
-203.0,9.0,-62.0,34.0,-9.0,2945.0,-794.0,66.0,-157.0
-260.0,-71.0,-58.0,32.0,21.0,2956.0,-1002.0,-215.0,-147.0
-239.0,-170.0,-51.0,181.0,47.0,2962.0,-1069.0,-515.0,-83.0
-154.0,-206.0,-67.0,375.0,85.0,2899.0,-658.0,-777.0,-169.0
-150.0,-178.0,-102.0,661.0,240.0,2827.0,-556.0,-614.0,-280.0
-160.0,-29.0,-139.0,902.0,397.0,2828.0,-659.0,-87.0,-419.0
-175.0,72.0,-123.0,944.0,562.0,2937.0,-678.0,250.0,-406.0
-141.0,90.0,-108.0,804.0,690.0,2995.0,-555.0,333.0,-305.0
-162.0,106.0,-80.0,600.0,773.0,2978.0,-591.0,382.0,-229.0
-129.0,112.0,-77.0,481.0,776.0,2909.0,-501.0,414.0,-210.0
-125.0,114.0,-59.0,390.0,760.0,2789.0,-441.0,418.0,-167.0
-123.0,120.0,-43.0,317.0,697.0,2670.0,-450.0,443.0,-107.0
-153.0,114.0,-48.0,296.0,617.0,2568.0,-572.0,428.0,-68.0
-178.0,103.0,-50.0,281.0,553.0,2462.0,-672.0,404.0,-89.0
-206.0,103.0,-74.0,225.0,506.0,2354.0,-761.0,372.0,-199.0
-192.0,100.0,-101.0,167.0,489.0,2224.0,-749.0,383.0,-312.0
-215.0,125.0,-108.0,142.0,512.0,2090.0,-822.0,455.0,-333.0
-233.0,134.0,-97.0,149.0,551.0,1968.0,-885.0,516.0,-291.0
-255.0,167.0,-87.0,149.0,575.0,1813.0,-960.0,643.0,-271.0
-269.0,184.0,-87.0,127.0,579.0,1722.0,-1028.0,726.0,-284.0
-294.0,204.0,-94.0,65.0,557.0,1625.0,-1127.0,792.0,-296.0
-315.0,219.0,-102.0,-15.0,519.0,1538.0,-1182.0,837.0,-310.0
-307.0,211.0,-96.0,-65.0,481.0,1435.0,-1197.0,845.0,-302.0
-319.0,243.0,-85.0,-32.0,482.0,1338.0,-1256.0,1030.0,-215.0
-258.0,188.0,-100.0,97.0,510.0,1295.0,-981.0,728.0,-328.0
-275.0,216.0,-78.0,97.0,470.0,1169.0,-1031.0,826.0,-261.0
-251.0,219.0,-82.0,127.0,423.0,1071.0,-956.0,845.0,-250.0
-243.0,257.0,-67.0,154.0,374.0,990.0,-919.0,1002.0,-208.0
-223.0,240.0,-59.0,178.0,303.0,950.0,-849.0,942.0,-186.0
-228.0,243.0,-39.0,117.0,191.0,865.0,-850.0,948.0,-45.0
-211.0,234.0,-15.0,77.0,96.0,756.0,-782.0,913.0,24.0
-185.0,223.0,-18.0,34.0,24.0,620.0,-689.0,852.0,-4.0
-192.0,230.0,-18.0,-31.0,-27.0,508.0,-734.0,903.0,18.0
-221.0,253.0,-11.0,-42.0,-50.0,450.0,-797.0,976.0,18.0
-204.0,236.0,-16.0,6.0,-89.0,451.0,-732.0,923.0,45.0
-174.0,222.0,-18.0,42.0,-172.0,452.0,-618.0,824.0,44.0
-175.0,201.0,-7.0,62.0,-270.0,464.0,-653.0,768.0,75.0
-172.0,173.0,-1.0,88.0,-361.0,448.0,-693.0,739.0,66.0
-171.0,150.0,2.0,99.0,-424.0,379.0,-643.0,571.0,79.0
-142.0,153.0,2.0,92.0,-496.0,333.0,-597.0,606.0,85.0
-154.0,151.0,6.0,130.0,-517.0,332.0,-573.0,623.0,70.0
-155.0,159.0,7.0,157.0,-514.0,315.0,-620.0,614.0,114.0
-154.0,172.0,21.0,139.0,-516.0,279.0,-598.0,687.0,178.0
-157.0,211.0,22.0,105.0,-564.0,277.0,-594.0,804.0,151.0
-163.0,202.0,24.0,44.0,-622.0,271.0,-616.0,760.0,148.0
-159.0,197.0,33.0,-45.0,-689.0,209.0,-576.0,756.0,223.0
-157.0,214.0,13.0,-136.0,-824.0,162.0,-574.0,785.0,139.0
-130.0,205.0,5.0,-249.0,-985.0,133.0,-493.0,781.0,87.0
-122.0,208.0,4.0,-390.0,-1158.0,90.0,-454.0,804.0,94.0
-121.0,218.0,9.0,-540.0,-1248.0,71.0,-442.0,814.0,117.0
-126.0,196.0,18.0,-648.0,-1295.0,67.0,-459.0,750.0,155.0
-124.0,193.0,7.0,-712.0,-1316.0,54.0,-456.0,731.0,142.0
-126.0,204.0,-1.0,-778.0,-1338.0,57.0,-475.0,765.0,83.0
-125.0,177.0,3.0,-829.0,-1274.0,86.0,-492.0,707.0,119.0
-126.0,65.0,45.0,-763.0,-1081.0,99.0,-536.0,558.0,213.0
-140.0,93.0,96.0,-538.0,-829.0,85.0,-567.0,411.0,486.0
-140.0,103.0,97.0,-203.0,-628.0,90.0,-548.0,443.0,465.0
-138.0,112.0,77.0,67.0,-479.0,89.0,-526.0,470.0,389.0
-147.0,120.0,62.0,271.0,-369.0,65.0,-563.0,489.0,334.0
-146.0,141.0,55.0,452.0,-349.0,35.0,-560.0,549.0,294.0
-158.0,153.0,42.0,510.0,-368.0,22.0,-580.0,596.0,247.0
-152.0,147.0,26.0,509.0,-421.0,-16.0,-546.0,552.0,194.0
-147.0,157.0,21.0,455.0,-498.0,-70.0,-557.0,599.0,171.0
-147.0,149.0,21.0,391.0,-574.0,-107.0,-567.0,590.0,167.0
-155.0,148.0,20.0,376.0,-627.0,-144.0,-577.0,566.0,161.0
-156.0,168.0,13.0,376.0,-683.0,-186.0,-595.0,627.0,174.0
-150.0,166.0,14.0,367.0,-727.0,-208.0,-596.0,656.0,159.0
-150.0,169.0,28.0,354.0,-753.0,-230.0,-580.0,673.0,173.0
-168.0,186.0,25.0,350.0,-778.0,-255.0,-610.0,708.0,177.0
-175.0,190.0,30.0,332.0,-805.0,-283.0,-649.0,734.0,181.0
-183.0,193.0,21.0,306.0,-838.0,-313.0,-658.0,729.0,172.0
-188.0,202.0,18.0,271.0,-858.0,-351.0,-709.0,757.0,161.0
-184.0,199.0,10.0,227.0,-859.0,-385.0,-708.0,771.0,146.0
-195.0,182.0,17.0,190.0,-806.0,-437.0,-743.0,729.0,159.0
-180.0,172.0,18.0,158.0,-747.0,-483.0,-702.0,680.0,163.0
-185.0,161.0,24.0,129.0,-667.0,-526.0,-726.0,654.0,177.0
-192.0,152.0,18.0,134.0,-565.0,-576.0,-751.0,604.0,160.0
-216.0,151.0,20.0,175.0,-455.0,-633.0,-813.0,573.0,158.0
-232.0,167.0,19.0,202.0,-388.0,-669.0,-832.0,603.0,156.0
-221.0,164.0,16.0,194.0,-369.0,-680.0,-864.0,634.0,140.0
-235.0,163.0,24.0,200.0,-341.0,-684.0,-881.0,623.0,163.0
-220.0,146.0,19.0,227.0,-329.0,-690.0,-852.0,581.0,155.0
-231.0,138.0,16.0,252.0,-298.0,-720.0,-885.0,543.0,167.0
-236.0,139.0,20.0,291.0,-278.0,-734.0,-910.0,552.0,165.0
-242.0,155.0,10.0,321.0,-256.0,-741.0,-935.0,592.0,151.0
-242.0,134.0,14.0,330.0,-229.0,-753.0,-909.0,536.0,137.0
-251.0,143.0,11.0,351.0,-181.0,-772.0,-962.0,553.0,156.0
-241.0,133.0,10.0,367.0,-160.0,-777.0,-935.0,519.0,132.0
-245.0,126.0,13.0,382.0,-116.0,-802.0,-940.0,506.0,136.0
-239.0,129.0,5.0,399.0,-86.0,-829.0,-919.0,493.0,111.0
-250.0,118.0,13.0,402.0,-60.0,-860.0,-951.0,463.0,130.0
-256.0,119.0,12.0,439.0,-52.0,-882.0,-963.0,456.0,141.0
-249.0,109.0,12.0,481.0,-50.0,-897.0,-969.0,447.0,135.0
-268.0,107.0,18.0,540.0,-21.0,-924.0,-1015.0,436.0,153.0
-267.0,109.0,16.0,631.0,29.0,-940.0,-1048.0,441.0,159.0
-253.0,99.0,24.0,721.0,79.0,-952.0,-992.0,402.0,171.0
-255.0,105.0,17.0,790.0,119.0,-969.0,-984.0,426.0,137.0
-249.0,109.0,9.0,848.0,186.0,-964.0,-962.0,433.0,137.0
-245.0,104.0,16.0,873.0,255.0,-967.0,-942.0,418.0,159.0
-235.0,115.0,2.0,837.0,321.0,-1001.0,-921.0,453.0,143.0
-231.0,101.0,24.0,808.0,434.0,-1009.0,-897.0,408.0,188.0
-236.0,103.0,26.0,809.0,517.0,-1030.0,-908.0,405.0,196.0
-232.0,117.0,14.0,792.0,577.0,-1044.0,-915.0,450.0,149.0
-229.0,118.0,3.0,750.0,680.0,-1015.0,-876.0,443.0,118.0
-250.0,105.0,26.0,655.0,704.0,-1020.0,-944.0,387.0,211.0
-242.0,100.0,20.0,549.0,674.0,-1017.0,-925.0,389.0,149.0
-243.0,92.0,32.0,460.0,681.0,-994.0,-927.0,352.0,198.0
-243.0,96.0,26.0,378.0,642.0,-1022.0,-922.0,358.0,174.0
-237.0,86.0,20.0,295.0,629.0,-1058.0,-913.0,343.0,155.0
-136.0,131.0,-15.0,228.0,640.0,-1092.0,-582.0,426.0,8.0
-282.0,80.0,24.0,90.0,768.0,-1219.0,-1071.0,322.0,198.0
-292.0,71.0,33.0,112.0,666.0,-1090.0,-1082.0,325.0,213.0
-240.0,76.0,9.0,198.0,590.0,-1007.0,-925.0,300.0,136.0
-230.0,81.0,9.0,219.0,602.0,-996.0,-895.0,330.0,120.0
-202.0,85.0,-7.0,208.0,635.0,-1008.0,-819.0,328.0,96.0
-229.0,125.0,-16.0,155.0,667.0,-1068.0,-892.0,442.0,61.0
-255.0,105.0,15.0,63.0,775.0,-1140.0,-906.0,419.0,93.0
-286.0,100.0,22.0,17.0,805.0,-1171.0,-1108.0,415.0,157.0
-239.0,89.0,1.0,77.0,767.0,-1062.0,-931.0,342.0,76.0
-231.0,95.0,-13.0,61.0,756.0,-1073.0,-879.0,355.0,8.0
-239.0,85.0,-5.0,9.0,734.0,-1096.0,-913.0,327.0,81.0
-205.0,57.0,-9.0,-16.0,688.0,-1128.0,-794.0,252.0,72.0
-256.0,86.0,-9.0,-51.0,650.0,-1202.0,-983.0,336.0,66.0
-255.0,86.0,-11.0,-48.0,665.0,-1266.0,-965.0,343.0,40.0
-240.0,83.0,-11.0,-63.0,673.0,-1294.0,-903.0,312.0,47.0
-223.0,77.0,-15.0,-113.0,661.0,-1341.0,-862.0,296.0,34.0
-223.0,70.0,-7.0,-177.0,659.0,-1405.0,-861.0,284.0,60.0
-230.0,57.0,-12.0,-221.0,661.0,-1464.0,-885.0,242.0,46.0
-223.0,52.0,-10.0,-262.0,674.0,-1537.0,-866.0,225.0,44.0
-246.0,54.0,-1.0,-333.0,689.0,-1615.0,-931.0,214.0,84.0
-246.0,37.0,1.0,-381.0,678.0,-1679.0,-946.0,186.0,86.0
-255.0,28.0,4.0,-415.0,649.0,-1732.0,-961.0,139.0,91.0
-253.0,22.0,0.0,-432.0,605.0,-1773.0,-949.0,106.0,89.0
-252.0,10.0,-2.0,-444.0,568.0,-1794.0,-958.0,62.0,81.0
-252.0,2.0,-2.0,-429.0,527.0,-1804.0,-969.0,31.0,70.0
-254.0,1.0,-11.0,-397.0,475.0,-1814.0,-955.0,11.0,40.0
-266.0,1.0,-23.0,-392.0,391.0,-1842.0,-1013.0,25.0,-9.0
-316.0,13.0,-41.0,-379.0,313.0,-1863.0,-1207.0,69.0,-58.0
-333.0,8.0,-53.0,-368.0,290.0,-1836.0,-1276.0,42.0,-116.0
-374.0,29.0,-47.0,-375.0,188.0,-1827.0,-1450.0,124.0,-106.0
-419.0,45.0,-69.0,-339.0,97.0,-1802.0,-1618.0,203.0,-178.0
-364.0,70.0,-66.0,-221.0,58.0,-1753.0,-1448.0,308.0,-175.0
-254.0,55.0,-96.0,-77.0,248.0,-1681.0,-1060.0,228.0,-273.0
-253.0,40.0,-90.0,-83.0,520.0,-1650.0,-972.0,154.0,-263.0
-278.0,23.0,-76.0,-201.0,685.0,-1622.0,-1053.0,81.0,-223.0
-312.0,-6.0,-56.0,-359.0,721.0,-1590.0,-1175.0,-1.0,-151.0
-275.0,-55.0,-12.0,-494.0,670.0,-1548.0,-1133.0,-199.0,-10.0
-302.0,-56.0,15.0,-545.0,547.0,-1552.0,-1203.0,-187.0,140.0
-287.0,-82.0,1.0,-451.0,525.0,-1507.0,-1097.0,-286.0,103.0
-216.0,-125.0,-1.0,-275.0,574.0,-1440.0,-818.0,-467.0,71.0
-187.0,-154.0,-57.0,-194.0,504.0,-1475.0,-706.0,-614.0,-133.0
-135.0,-156.0,-84.0,-296.0,405.0,-1539.0,-540.0,-640.0,-227.0
-131.0,-157.0,-126.0,-475.0,345.0,-1418.0,-496.0,-647.0,-382.0
-208.0,-159.0,-144.0,-647.0,273.0,-1272.0,-741.0,-635.0,-485.0
-290.0,-140.0,-151.0,-744.0,154.0,-1157.0,-1119.0,-541.0,-525.0
-380.0,-124.0,-143.0,-757.0,-46.0,-1019.0,-1440.0,-451.0,-505.0
-390.0,-110.0,-127.0,-696.0,-310.0,-841.0,-1479.0,-411.0,-445.0
-422.0,-94.0,-137.0,-593.0,-631.0,-689.0,-1591.0,-346.0,-422.0
-435.0,-71.0,-149.0,-487.0,-831.0,-485.0,-1714.0,-283.0,-507.0
-394.0,-42.0,-124.0,-422.0,-826.0,-150.0,-1595.0,-155.0,-403.0
-337.0,-28.0,-106.0,-401.0,-757.0,53.0,-1341.0,-101.0,-320.0
-324.0,-12.0,-83.0,-393.0,-621.0,197.0,-1284.0,-51.0,-239.0
-287.0,-11.0,-62.0,-388.0,-440.0,321.0,-1112.0,-40.0,-135.0
-213.0,-20.0,-26.0,-420.0,-243.0,408.0,-846.0,-90.0,-5.0
-160.0,-30.0,-2.0,-484.0,-45.0,443.0,-664.0,-116.0,81.0
-134.0,-35.0,13.0,-545.0,169.0,449.0,-556.0,-116.0,157.0
-137.0,-30.0,36.0,-558.0,402.0,435.0,-553.0,-91.0,229.0
-140.0,-24.0,51.0,-514.0,587.0,403.0,-558.0,-77.0,285.0
-154.0,-23.0,64.0,-443.0,704.0,362.0,-581.0,-69.0,335.0
-156.0,-28.0,71.0,-376.0,742.0,310.0,-601.0,-81.0,371.0
-163.0,-27.0,72.0,-327.0,708.0,288.0,-617.0,-92.0,370.0
-172.0,-34.0,52.0,-298.0,656.0,277.0,-663.0,-112.0,319.0
-198.0,-35.0,37.0,-275.0,612.0,296.0,-747.0,-134.0,220.0
-205.0,-47.0,19.0,-275.0,579.0,338.0,-807.0,-180.0,175.0
-209.0,-51.0,6.0,-300.0,536.0,394.0,-808.0,-198.0,106.0
-203.0,-64.0,-13.0,-346.0,505.0,442.0,-791.0,-230.0,50.0
-223.0,-72.0,-16.0,-420.0,475.0,441.0,-862.0,-265.0,46.0
-254.0,-74.0,-22.0,-437.0,455.0,398.0,-981.0,-270.0,-5.0
-265.0,-76.0,-33.0,-421.0,447.0,379.0,-1015.0,-267.0,-35.0
-247.0,-88.0,-37.0,-401.0,415.0,381.0,-964.0,-327.0,-45.0
-234.0,-104.0,-43.0,-332.0,405.0,378.0,-930.0,-355.0,-76.0
-241.0,-96.0,-50.0,-235.0,408.0,357.0,-944.0,-348.0,-90.0
-248.0,-99.0,-46.0,-116.0,410.0,326.0,-969.0,-346.0,-88.0
-249.0,-97.0,-49.0,21.0,410.0,296.0,-973.0,-349.0,-94.0
-258.0,-85.0,-52.0,138.0,409.0,282.0,-991.0,-321.0,-98.0
-263.0,-83.0,-56.0,198.0,395.0,265.0,-997.0,-311.0,-118.0
-280.0,-61.0,-55.0,200.0,362.0,249.0,-1090.0,-225.0,-136.0
-273.0,-66.0,-67.0,191.0,354.0,236.0,-1071.0,-239.0,-163.0
-272.0,-66.0,-63.0,136.0,330.0,208.0,-1058.0,-234.0,-158.0
-270.0,-60.0,-62.0,86.0,303.0,164.0,-1053.0,-215.0,-143.0
-269.0,-52.0,-52.0,73.0,277.0,134.0,-1051.0,-197.0,-118.0
-266.0,-45.0,-52.0,101.0,252.0,109.0,-1038.0,-167.0,-105.0
-264.0,-38.0,-50.0,139.0,232.0,87.0,-1034.0,-123.0,-115.0
-267.0,-32.0,-59.0,166.0,219.0,64.0,-1027.0,-112.0,-131.0
-265.0,-35.0,-63.0,178.0,211.0,46.0,-1030.0,-109.0,-152.0
-267.0,-28.0,-67.0,178.0,207.0,30.0,-1038.0,-107.0,-172.0
-269.0,-20.0,-70.0,165.0,204.0,19.0,-1047.0,-86.0,-188.0
-270.0,-18.0,-77.0,144.0,203.0,8.0,-1058.0,-65.0,-202.0
-273.0,-16.0,-67.0,117.0,210.0,2.0,-1067.0,-40.0,-200.0
-276.0,-13.0,-68.0,87.0,217.0,-1.0,-1068.0,-25.0,-192.0
-273.0,-8.0,-65.0,51.0,222.0,-7.0,-1062.0,-20.0,-173.0
-269.0,-9.0,-60.0,27.0,226.0,-12.0,-1065.0,-14.0,-156.0
-269.0,-5.0,-57.0,6.0,228.0,-15.0,-1047.0,-18.0,-133.0
-267.0,-9.0,-54.0,-10.0,227.0,-21.0,-1040.0,-22.0,-112.0
-264.0,-14.0,-41.0,-21.0,226.0,-27.0,-1032.0,-30.0,-88.0
-262.0,-15.0,-39.0,-19.0,225.0,-32.0,-1012.0,-37.0,-63.0
-260.0,-15.0,-34.0,-5.0,229.0,-39.0,-1018.0,-37.0,-43.0
-255.0,-18.0,-31.0,22.0,234.0,-44.0,-1006.0,-39.0,-34.0
-261.0,-17.0,-33.0,51.0,237.0,-46.0,-1003.0,-33.0,-30.0
-258.0,-13.0,-34.0,76.0,245.0,-49.0,-1005.0,-26.0,-41.0
-263.0,-12.0,-34.0,102.0,253.0,-48.0,-1023.0,-24.0,-38.0
-261.0,-14.0,-31.0,118.0,257.0,-48.0,-1027.0,-17.0,-39.0
-262.0,-10.0,-34.0,133.0,269.0,-45.0,-1015.0,-8.0,-49.0
-256.0,-6.0,-42.0,147.0,279.0,-46.0,-992.0,-4.0,-58.0
-254.0,-5.0,-42.0,148.0,290.0,-52.0,-973.0,-5.0,-74.0
-250.0,-8.0,-42.0,136.0,301.0,-62.0,-962.0,-14.0,-79.0
-247.0,-11.0,-52.0,122.0,302.0,-74.0,-952.0,-24.0,-105.0
-253.0,-4.0,-60.0,104.0,298.0,-85.0,-972.0,-1.0,-126.0
-259.0,-3.0,-65.0,76.0,286.0,-85.0,-994.0,5.0,-148.0
-259.0,-1.0,-62.0,50.0,272.0,-88.0,-1008.0,8.0,-157.0
-263.0,1.0,-67.0,27.0,259.0,-86.0,-1022.0,17.0,-169.0
-264.0,1.0,-65.0,10.0,250.0,-84.0,-1029.0,22.0,-170.0
-265.0,3.0,-66.0,-5.0,247.0,-80.0,-1032.0,27.0,-170.0
-266.0,4.0,-67.0,-21.0,245.0,-76.0,-1017.0,26.0,-175.0
-264.0,5.0,-65.0,-39.0,242.0,-72.0,-1021.0,25.0,-178.0
-262.0,0.0,-69.0,-58.0,235.0,-66.0,-1006.0,19.0,-178.0
-258.0,0.0,-73.0,-77.0,228.0,-63.0,-994.0,4.0,-192.0
-260.0,-4.0,-72.0,-93.0,212.0,-64.0,-995.0,2.0,-208.0
-262.0,-5.0,-72.0,-106.0,196.0,-63.0,-1000.0,-6.0,-208.0
-261.0,-5.0,-74.0,-118.0,169.0,-67.0,-1004.0,-6.0,-209.0
-267.0,-8.0,-77.0,-134.0,150.0,-67.0,-1030.0,-8.0,-211.0
-266.0,-9.0,-76.0,-142.0,130.0,-63.0,-1043.0,-22.0,-203.0
-269.0,-9.0,-70.0,-148.0,115.0,-59.0,-1045.0,-14.0,-203.0
-269.0,-12.0,-73.0,-154.0,105.0,-55.0,-1047.0,-29.0,-194.0
-270.0,-13.0,-65.0,-157.0,95.0,-49.0,-1046.0,-36.0,-186.0
-269.0,-12.0,-65.0,-159.0,87.0,-44.0,-1043.0,-34.0,-179.0
-265.0,-15.0,-64.0,-162.0,80.0,-34.0,-1045.0,-41.0,-168.0
-268.0,-14.0,-65.0,-164.0,75.0,-26.0,-1045.0,-45.0,-155.0
-268.0,-18.0,-62.0,-163.0,68.0,-19.0,-1044.0,-46.0,-153.0
-267.0,-20.0,-56.0,-161.0,67.0,-10.0,-1043.0,-54.0,-135.0
-268.0,-20.0,-58.0,-149.0,67.0,-3.0,-1036.0,-68.0,-123.0
-266.0,-20.0,-50.0,-132.0,71.0,2.0,-1022.0,-80.0,-109.0
-259.0,-22.0,-48.0,-112.0,79.0,8.0,-1004.0,-81.0,-96.0
-256.0,-28.0,-49.0,-87.0,94.0,9.0,-1000.0,-85.0,-94.0
-257.0,-23.0,-47.0,-68.0,112.0,11.0,-998.0,-81.0,-85.0
-257.0,-20.0,-49.0,-50.0,132.0,11.0,-994.0,-76.0,-88.0
-256.0,-23.0,-44.0,-39.0,149.0,11.0,-993.0,-80.0,-84.0
-255.0,-22.0,-49.0,-29.0,162.0,12.0,-984.0,-80.0,-91.0
-262.0,-24.0,-58.0,-21.0,170.0,17.0,-981.0,-82.0,-97.0
-253.0,-23.0,-47.0,-12.0,179.0,22.0,-975.0,-73.0,-99.0
-254.0,-20.0,-51.0,3.0,183.0,26.0,-982.0,-61.0,-108.0
-255.0,-20.0,-51.0,15.0,192.0,29.0,-984.0,-61.0,-109.0
-255.0,-17.0,-50.0,23.0,200.0,32.0,-986.0,-59.0,-113.0
-258.0,-19.0,-54.0,28.0,207.0,33.0,-991.0,-51.0,-120.0
-254.0,-18.0,-56.0,30.0,217.0,35.0,-992.0,-50.0,-128.0
-257.0,-16.0,-61.0,29.0,226.0,35.0,-994.0,-51.0,-135.0
-253.0,-17.0,-62.0,23.0,236.0,36.0,-991.0,-49.0,-137.0
-258.0,-17.0,-57.0,14.0,242.0,39.0,-991.0,-48.0,-143.0
-256.0,-20.0,-59.0,0.0,245.0,40.0,-985.0,-62.0,-148.0
-258.0,-19.0,-62.0,-8.0,246.0,36.0,-997.0,-65.0,-152.0
-259.0,-20.0,-61.0,-9.0,245.0,33.0,-996.0,-65.0,-158.0
-255.0,-18.0,-65.0,-10.0,241.0,33.0,-992.0,-55.0,-160.0
-257.0,-18.0,-64.0,-19.0,238.0,36.0,-992.0,-62.0,-167.0
-256.0,-20.0,-65.0,-31.0,236.0,38.0,-997.0,-71.0,-173.0
-256.0,-20.0,-66.0,-42.0,233.0,37.0,-991.0,-75.0,-165.0
-258.0,-22.0,-63.0,-48.0,227.0,36.0,-990.0,-81.0,-164.0
-258.0,-28.0,-64.0,-54.0,222.0,36.0,-989.0,-97.0,-152.0
-257.0,-29.0,-64.0,-45.0,213.0,29.0,-989.0,-99.0,-155.0
-257.0,-26.0,-61.0,-28.0,203.0,26.0,-990.0,-92.0,-160.0
-255.0,-26.0,-64.0,-17.0,194.0,26.0,-981.0,-91.0,-163.0
-252.0,-26.0,-65.0,-12.0,184.0,23.0,-982.0,-85.0,-167.0
-252.0,-29.0,-66.0,-20.0,176.0,23.0,-975.0,-99.0,-167.0
-254.0,-29.0,-63.0,-21.0,164.0,20.0,-976.0,-108.0,-171.0
-255.0,-30.0,-67.0,-15.0,149.0,15.0,-981.0,-104.0,-175.0
-255.0,-31.0,-69.0,-6.0,133.0,11.0,-984.0,-96.0,-177.0
-252.0,-28.0,-69.0,5.0,117.0,9.0,-988.0,-89.0,-187.0
-255.0,-23.0,-71.0,11.0,101.0,5.0,-991.0,-86.0,-191.0
-257.0,-21.0,-71.0,13.0,87.0,2.0,-992.0,-73.0,-191.0
-258.0,-20.0,-68.0,13.0,75.0,-1.0,-994.0,-78.0,-193.0
-259.0,-23.0,-72.0,14.0,62.0,-1.0,-990.0,-77.0,-194.0
-260.0,-21.0,-70.0,9.0,56.0,-3.0,-998.0,-75.0,-192.0
-259.0,-21.0,-71.0,7.0,47.0,-3.0,-1002.0,-76.0,-200.0
-257.0,-21.0,-73.0,2.0,37.0,-6.0,-996.0,-78.0,-193.0
-259.0,-20.0,-68.0,-4.0,28.0,-7.0,-995.0,-73.0,-188.0
-257.0,-20.0,-68.0,-8.0,20.0,-7.0,-996.0,-74.0,-180.0
-259.0,-20.0,-66.0,-11.0,11.0,-4.0,-995.0,-75.0,-178.0
-262.0,-22.0,-66.0,-13.0,4.0,-3.0,-995.0,-76.0,-180.0
-258.0,-20.0,-68.0,-15.0,0.0,-2.0,-997.0,-81.0,-180.0
-257.0,-24.0,-70.0,-14.0,-5.0,-1.0,-999.0,-83.0,-184.0
-259.0,-22.0,-68.0,-11.0,-11.0,2.0,-1005.0,-82.0,-185.0
-259.0,-22.0,-66.0,-9.0,-18.0,3.0,-996.0,-80.0,-184.0
-258.0,-21.0,-69.0,-9.0,-24.0,7.0,-999.0,-75.0,-176.0
-261.0,-20.0,-66.0,-8.0,-31.0,9.0,-1000.0,-76.0,-176.0
-259.0,-20.0,-67.0,-6.0,-35.0,11.0,-998.0,-68.0,-170.0
-254.0,-22.0,-65.0,-1.0,-40.0,13.0,-995.0,-70.0,-163.0
-257.0,-21.0,-63.0,5.0,-42.0,17.0,-994.0,-58.0,-160.0
-258.0,-19.0,-62.0,10.0,-45.0,19.0,-999.0,-69.0,-155.0
-260.0,-19.0,-62.0,13.0,-45.0,20.0,-995.0,-57.0,-154.0
-258.0,-19.0,-63.0,17.0,-48.0,22.0,-989.0,-55.0,-156.0
-256.0,-19.0,-62.0,18.0,-44.0,25.0,-988.0,-60.0,-151.0
-258.0,-20.0,-59.0,18.0,-38.0,24.0,-993.0,-56.0,-151.0
-257.0,-18.0,-61.0,20.0,-36.0,27.0,-994.0,-56.0,-149.0
-255.0,-17.0,-60.0,18.0,-33.0,26.0,-987.0,-58.0,-147.0
-256.0,-19.0,-62.0,16.0,-26.0,26.0,-988.0,-62.0,-148.0
-255.0,-20.0,-60.0,21.0,-19.0,24.0,-982.0,-64.0,-151.0
-255.0,-19.0,-61.0,32.0,-7.0,19.0,-987.0,-50.0,-149.0
-255.0,-16.0,-61.0,43.0,-3.0,17.0,-987.0,-52.0,-152.0
-261.0,-15.0,-61.0,51.0,0.0,13.0,-994.0,-45.0,-148.0
-259.0,-13.0,-60.0,56.0,1.0,12.0,-996.0,-37.0,-146.0
-256.0,-11.0,-60.0,55.0,0.0,10.0,-989.0,-34.0,-145.0
-259.0,-14.0,-61.0,49.0,0.0,6.0,-996.0,-30.0,-142.0
-261.0,-11.0,-58.0,46.0,2.0,4.0,-993.0,-33.0,-143.0
-260.0,-12.0,-58.0,40.0,4.0,2.0,-1002.0,-31.0,-142.0
-257.0,-12.0,-59.0,37.0,4.0,1.0,-998.0,-30.0,-139.0
-257.0,-13.0,-59.0,32.0,3.0,-1.0,-1000.0,-32.0,-140.0
-257.0,-13.0,-57.0,25.0,4.0,1.0,-1001.0,-33.0,-141.0
-261.0,-14.0,-58.0,16.0,5.0,2.0,-999.0,-37.0,-142.0
-261.0,-13.0,-59.0,9.0,6.0,1.0,-1013.0,-39.0,-139.0
-262.0,-13.0,-62.0,3.0,7.0,1.0,-997.0,-48.0,-142.0
-262.0,-12.0,-62.0,-1.0,4.0,2.0,-1001.0,-46.0,-140.0
-259.0,-14.0,-58.0,-5.0,5.0,0.0,-1001.0,-43.0,-143.0
-261.0,-14.0,-56.0,-6.0,7.0,1.0,-998.0,-44.0,-142.0
-260.0,-17.0,-59.0,-8.0,7.0,0.0,-1004.0,-50.0,-140.0
-256.0,-17.0,-63.0,-11.0,9.0,2.0,-1001.0,-47.0,-141.0
-259.0,-15.0,-58.0,-15.0,10.0,2.0,-995.0,-50.0,-143.0
-256.0,-19.0,-59.0,-18.0,12.0,3.0,-997.0,-49.0,-134.0
-258.0,-17.0,-58.0,-21.0,11.0,5.0,-994.0,-49.0,-137.0
-259.0,-15.0,-57.0,-24.0,11.0,6.0,-994.0,-49.0,-143.0
-260.0,-16.0,-55.0,-31.0,12.0,7.0,-991.0,-52.0,-138.0
-259.0,-17.0,-61.0,-38.0,10.0,9.0,-993.0,-50.0,-140.0
-259.0,-18.0,-60.0,-49.0,9.0,6.0,-995.0,-54.0,-139.0
-262.0,-14.0,-59.0,-56.0,4.0,8.0,-998.0,-52.0,-139.0
-262.0,-17.0,-57.0,-64.0,-1.0,7.0,-1000.0,-51.0,-135.0
-258.0,-16.0,-58.0,-72.0,-2.0,7.0,-1003.0,-50.0,-134.0
-261.0,-18.0,-60.0,-76.0,-3.0,5.0,-1003.0,-50.0,-143.0
-261.0,-19.0,-57.0,-83.0,1.0,4.0,-997.0,-48.0,-137.0
-261.0,-16.0,-56.0,-91.0,5.0,2.0,-999.0,-49.0,-140.0
-262.0,-17.0,-59.0,-96.0,8.0,-1.0,-1008.0,-53.0,-140.0
-260.0,-20.0,-58.0,-97.0,13.0,-5.0,-999.0,-61.0,-140.0
-258.0,-19.0,-58.0,-94.0,17.0,-9.0,-1000.0,-63.0,-143.0
-260.0,-19.0,-60.0,-90.0,17.0,-13.0,-1002.0,-56.0,-144.0
-257.0,-21.0,-58.0,-88.0,16.0,-14.0,-995.0,-55.0,-148.0
-257.0,-21.0,-60.0,-83.0,17.0,-18.0,-992.0,-62.0,-145.0
-261.0,-18.0,-60.0,-78.0,13.0,-18.0,-994.0,-64.0,-140.0
-257.0,-21.0,-62.0,-73.0,11.0,-21.0,-995.0,-60.0,-147.0
-256.0,-20.0,-62.0,-67.0,9.0,-19.0,-996.0,-67.0,-146.0
-258.0,-19.0,-61.0,-65.0,6.0,-21.0,-993.0,-62.0,-149.0
-256.0,-20.0,-62.0,-62.0,4.0,-20.0,-995.0,-61.0,-148.0
-256.0,-19.0,-63.0,-62.0,4.0,-23.0,-993.0,-65.0,-147.0
-256.0,-19.0,-59.0,-60.0,2.0,-24.0,-991.0,-63.0,-152.0
-260.0,-20.0,-62.0,-59.0,0.0,-24.0,-990.0,-63.0,-145.0
-257.0,-20.0,-60.0,-60.0,0.0,-22.0,-991.0,-69.0,-139.0
-258.0,-21.0,-59.0,-59.0,0.0,-24.0,-990.0,-73.0,-145.0
-259.0,-18.0,-57.0,-58.0,-2.0,-24.0,-986.0,-77.0,-141.0
-255.0,-22.0,-61.0,-57.0,-5.0,-24.0,-991.0,-73.0,-142.0
-258.0,-21.0,-57.0,-53.0,-7.0,-25.0,-992.0,-74.0,-137.0
-253.0,-22.0,-59.0,-50.0,-9.0,-24.0,-989.0,-73.0,-139.0
-258.0,-19.0,-56.0,-47.0,-10.0,-22.0,-993.0,-67.0,-138.0
-259.0,-20.0,-56.0,-43.0,-10.0,-23.0,-994.0,-72.0,-134.0
-256.0,-20.0,-56.0,-41.0,-10.0,-20.0,-993.0,-67.0,-133.0
-258.0,-22.0,-57.0,-39.0,-10.0,-20.0,-994.0,-68.0,-130.0
-255.0,-18.0,-55.0,-39.0,-12.0,-19.0,-995.0,-65.0,-130.0
-255.0,-19.0,-55.0,-38.0,-9.0,-19.0,-995.0,-66.0,-128.0
-260.0,-20.0,-56.0,-38.0,-8.0,-17.0,-992.0,-63.0,-128.0
-259.0,-19.0,-55.0,-39.0,-7.0,-19.0,-995.0,-59.0,-127.0
-258.0,-19.0,-58.0,-39.0,-5.0,-16.0,-993.0,-64.0,-127.0
-257.0,-18.0,-58.0,-39.0,-3.0,-13.0,-998.0,-67.0,-126.0
-256.0,-19.0,-57.0,-38.0,1.0,-11.0,-997.0,-63.0,-124.0
-257.0,-16.0,-57.0,-38.0,2.0,-12.0,-994.0,-59.0,-119.0
-254.0,-19.0,-53.0,-38.0,7.0,-10.0,-996.0,-57.0,-124.0
-257.0,-18.0,-55.0,-38.0,10.0,-10.0,-994.0,-61.0,-121.0
-257.0,-20.0,-54.0,-37.0,12.0,-8.0,-993.0,-63.0,-120.0
-257.0,-20.0,-54.0,-34.0,16.0,-8.0,-994.0,-56.0,-122.0
-257.0,-19.0,-54.0,-31.0,18.0,-6.0,-995.0,-58.0,-120.0
-259.0,-19.0,-57.0,-31.0,20.0,-8.0,-997.0,-65.0,-124.0
-257.0,-18.0,-56.0,-31.0,20.0,-5.0,-995.0,-55.0,-118.0
-260.0,-17.0,-56.0,-30.0,23.0,-5.0,-996.0,-60.0,-116.0
-259.0,-19.0,-50.0,-28.0,24.0,-4.0,-998.0,-64.0,-117.0
-261.0,-18.0,-59.0,-26.0,25.0,-4.0,-997.0,-56.0,-118.0
-258.0,-16.0,-52.0,-23.0,27.0,-1.0,-1001.0,-56.0,-122.0
-258.0,-19.0,-52.0,-22.0,29.0,-2.0,-1004.0,-52.0,-116.0
-260.0,-18.0,-55.0,-23.0,32.0,1.0,-997.0,-54.0,-115.0
-258.0,-19.0,-53.0,-26.0,36.0,-2.0,-997.0,-58.0,-118.0
-257.0,-18.0,-52.0,-28.0,41.0,2.0,-1000.0,-52.0,-117.0
-257.0,-18.0,-56.0,-32.0,46.0,2.0,-999.0,-58.0,-116.0
-259.0,-17.0,-53.0,-33.0,52.0,5.0,-999.0,-57.0,-117.0
-258.0,-18.0,-55.0,-36.0,55.0,4.0,-997.0,-61.0,-115.0
-260.0,-19.0,-52.0,-37.0,59.0,6.0,-996.0,-64.0,-120.0
-259.0,-18.0,-53.0,-38.0,60.0,5.0,-999.0,-56.0,-121.0
-259.0,-19.0,-52.0,-38.0,64.0,7.0,-999.0,-61.0,-120.0
-260.0,-17.0,-52.0,-36.0,66.0,6.0,-1000.0,-58.0,-123.0
-258.0,-20.0,-57.0,-35.0,69.0,9.0,-995.0,-57.0,-122.0
-258.0,-18.0,-57.0,-35.0,71.0,9.0,-997.0,-48.0,-122.0
-258.0,-19.0,-55.0,-33.0,74.0,11.0,-999.0,-57.0,-130.0
-260.0,-17.0,-54.0,-32.0,78.0,8.0,-993.0,-58.0,-127.0
-259.0,-18.0,-54.0,-27.0,82.0,9.0,-995.0,-55.0,-125.0
-258.0,-17.0,-57.0,-25.0,86.0,7.0,-997.0,-59.0,-126.0
-257.0,-19.0,-54.0,-21.0,87.0,7.0,-1000.0,-58.0,-131.0
-256.0,-19.0,-57.0,-18.0,86.0,3.0,-996.0,-60.0,-134.0
-257.0,-20.0,-58.0,-18.0,84.0,3.0,-997.0,-64.0,-128.0
-260.0,-20.0,-55.0,-17.0,83.0,1.0,-994.0,-60.0,-127.0
-260.0,-19.0,-53.0,-18.0,83.0,2.0,-994.0,-64.0,-124.0
-258.0,-19.0,-54.0,-18.0,80.0,0.0,-997.0,-73.0,-124.0
-257.0,-22.0,-56.0,-17.0,80.0,1.0,-999.0,-70.0,-132.0
-258.0,-17.0,-61.0,-17.0,78.0,-1.0,-999.0,-70.0,-137.0
-260.0,-20.0,-62.0,-17.0,78.0,0.0,-997.0,-69.0,-141.0
-258.0,-18.0,-57.0,-14.0,73.0,-3.0,-998.0,-60.0,-141.0
-257.0,-20.0,-60.0,-17.0,71.0,-1.0,-995.0,-59.0,-139.0
-257.0,-19.0,-58.0,-18.0,68.0,-1.0,-996.0,-58.0,-134.0
-258.0,-20.0,-58.0,-22.0,65.0,0.0,-999.0,-61.0,-137.0
-257.0,-20.0,-57.0,-25.0,62.0,-2.0,-995.0,-56.0,-132.0
-257.0,-19.0,-56.0,-28.0,57.0,-1.0,-994.0,-57.0,-130.0
-261.0,-17.0,-57.0,-29.0,55.0,-4.0,-1001.0,-53.0,-129.0
-261.0,-19.0,-57.0,-29.0,52.0,-4.0,-1004.0,-57.0,-131.0
-257.0,-20.0,-54.0,-30.0,51.0,-6.0,-998.0,-53.0,-132.0
-261.0,-16.0,-57.0,-29.0,50.0,-6.0,-1005.0,-56.0,-135.0
-257.0,-20.0,-53.0,-29.0,49.0,-8.0,-999.0,-58.0,-130.0
-258.0,-18.0,-56.0,-30.0,50.0,-7.0,-998.0,-58.0,-133.0
-257.0,-19.0,-57.0,-28.0,50.0,-8.0,-999.0,-61.0,-132.0
-260.0,-18.0,-56.0,-27.0,49.0,-8.0,-999.0,-59.0,-132.0
-260.0,-16.0,-53.0,-22.0,49.0,-10.0,-997.0,-58.0,-129.0
-257.0,-20.0,-57.0,-20.0,47.0,-8.0,-1000.0,-60.0,-130.0
-258.0,-19.0,-53.0,-19.0,44.0,-10.0,-1000.0,-56.0,-130.0
-259.0,-18.0,-58.0,-18.0,45.0,-8.0,-998.0,-53.0,-133.0
-258.0,-20.0,-56.0,-16.0,45.0,-8.0,-999.0,-55.0,-133.0
-257.0,-18.0,-56.0,-16.0,44.0,-7.0,-999.0,-55.0,-133.0
-260.0,-18.0,-58.0,-17.0,46.0,-10.0,-997.0,-59.0,-124.0
-259.0,-20.0,-53.0,-16.0,48.0,-8.0,-998.0,-59.0,-131.0
-257.0,-18.0,-57.0,-15.0,46.0,-10.0,-1000.0,-54.0,-129.0
-259.0,-19.0,-54.0,-17.0,45.0,-7.0,-998.0,-54.0,-131.0
-256.0,-20.0,-58.0,-17.0,45.0,-9.0,-1000.0,-54.0,-124.0
-258.0,-19.0,-50.0,-16.0,47.0,-7.0,-992.0,-57.0,-123.0
-256.0,-20.0,-55.0,-17.0,48.0,-9.0,-999.0,-54.0,-128.0
-258.0,-20.0,-54.0,-17.0,49.0,-6.0,-999.0,-59.0,-127.0
-258.0,-16.0,-56.0,-15.0,49.0,-9.0,-998.0,-54.0,-126.0
-259.0,-18.0,-54.0,-16.0,51.0,-7.0,-999.0,-56.0,-124.0
-256.0,-19.0,-57.0,-16.0,52.0,-8.0,-999.0,-56.0,-127.0
-258.0,-18.0,-56.0,-15.0,53.0,-7.0,-997.0,-57.0,-124.0
-257.0,-18.0,-57.0,-14.0,55.0,-9.0,-998.0,-53.0,-124.0
-259.0,-19.0,-58.0,-12.0,59.0,-5.0,-996.0,-59.0,-124.0
-257.0,-19.0,-57.0,-12.0,61.0,-6.0,-997.0,-58.0,-122.0
-258.0,-17.0,-56.0,-11.0,63.0,-6.0,-1000.0,-59.0,-126.0
-259.0,-20.0,-58.0,-8.0,65.0,-7.0,-995.0,-56.0,-126.0
-256.0,-20.0,-54.0,-7.0,65.0,-5.0,-996.0,-62.0,-124.0
-258.0,-18.0,-58.0,-4.0,68.0,-7.0,-993.0,-54.0,-123.0
-260.0,-18.0,-57.0,-4.0,68.0,-6.0,-992.0,-54.0,-128.0
-258.0,-18.0,-59.0,-4.0,68.0,-8.0,-994.0,-60.0,-124.0
-255.0,-18.0,-59.0,-3.0,68.0,-6.0,-991.0,-57.0,-125.0
-257.0,-17.0,-53.0,-4.0,68.0,-9.0,-995.0,-56.0,-126.0
-258.0,-20.0,-54.0,-3.0,67.0,-9.0,-992.0,-59.0,-129.0
-261.0,-19.0,-55.0,-3.0,67.0,-13.0,-992.0,-60.0,-129.0
-257.0,-17.0,-58.0,-5.0,64.0,-11.0,-994.0,-63.0,-129.0
-258.0,-19.0,-59.0,-4.0,63.0,-16.0,-997.0,-60.0,-133.0
-257.0,-20.0,-54.0,-4.0,62.0,-15.0,-996.0,-62.0,-139.0
-259.0,-20.0,-57.0,-5.0,60.0,-18.0,-998.0,-59.0,-138.0
-257.0,-20.0,-56.0,-5.0,57.0,-16.0,-1002.0,-59.0,-139.0
-257.0,-18.0,-61.0,-6.0,54.0,-19.0,-996.0,-63.0,-140.0
-261.0,-19.0,-57.0,-7.0,52.0,-16.0,-999.0,-59.0,-140.0
-259.0,-20.0,-62.0,-11.0,47.0,-18.0,-1000.0,-63.0,-139.0
-257.0,-20.0,-56.0,-11.0,41.0,-17.0,-996.0,-55.0,-140.0
-259.0,-18.0,-59.0,-15.0,38.0,-20.0,-998.0,-60.0,-143.0
-259.0,-17.0,-59.0,-15.0,36.0,-18.0,-997.0,-61.0,-145.0
-259.0,-17.0,-57.0,-18.0,33.0,-19.0,-1001.0,-50.0,-135.0
-261.0,-20.0,-58.0,-21.0,31.0,-17.0,-999.0,-56.0,-132.0
-262.0,-18.0,-58.0,-23.0,29.0,-20.0,-1003.0,-54.0,-129.0
-257.0,-19.0,-55.0,-26.0,28.0,-17.0,-993.0,-63.0,-127.0
-260.0,-18.0,-57.0,-28.0,30.0,-21.0,-997.0,-60.0,-128.0
-259.0,-20.0,-57.0,-28.0,31.0,-19.0,-999.0,-60.0,-120.0
-261.0,-20.0,-54.0,-27.0,32.0,-23.0,-995.0,-57.0,-124.0
-257.0,-20.0,-55.0,-27.0,32.0,-20.0,-1000.0,-62.0,-129.0
-258.0,-20.0,-50.0,-26.0,33.0,-25.0,-992.0,-62.0,-126.0
-259.0,-19.0,-55.0,-25.0,33.0,-23.0,-997.0,-58.0,-123.0
-257.0,-20.0,-55.0,-25.0,33.0,-26.0,-995.0,-59.0,-123.0
-258.0,-20.0,-51.0,-25.0,34.0,-24.0,-996.0,-61.0,-123.0
-258.0,-19.0,-57.0,-27.0,31.0,-26.0,-994.0,-58.0,-121.0
-256.0,-19.0,-52.0,-30.0,28.0,-25.0,-994.0,-60.0,-121.0
-260.0,-19.0,-52.0,-32.0,28.0,-28.0,-994.0,-56.0,-125.0
-257.0,-19.0,-53.0,-33.0,29.0,-26.0,-996.0,-52.0,-115.0
-259.0,-17.0,-54.0,-41.0,26.0,-28.0,-999.0,-48.0,-123.0
-259.0,-18.0,-53.0,-46.0,25.0,-27.0,-999.0,-53.0,-124.0
-258.0,-18.0,-51.0,-52.0,25.0,-28.0,-999.0,-58.0,-120.0
-257.0,-20.0,-52.0,-54.0,28.0,-25.0,-1004.0,-56.0,-121.0
-260.0,-17.0,-54.0,-56.0,32.0,-30.0,-1014.0,-55.0,-115.0
-261.0,-15.0,-54.0,-57.0,34.0,-30.0,-1016.0,-58.0,-120.0
-264.0,-18.0,-55.0,-58.0,39.0,-35.0,-1020.0,-55.0,-125.0
-261.0,-17.0,-55.0,-58.0,47.0,-38.0,-1015.0,-57.0,-126.0
-259.0,-20.0,-58.0,-55.0,51.0,-46.0,-1010.0,-52.0,-129.0
-260.0,-19.0,-53.0,-53.0,54.0,-48.0,-1006.0,-56.0,-130.0
-258.0,-19.0,-55.0,-50.0,59.0,-55.0,-999.0,-61.0,-128.0
-258.0,-19.0,-55.0,-47.0,62.0,-58.0,-995.0,-64.0,-131.0
-258.0,-20.0,-58.0,-43.0,61.0,-63.0,-995.0,-66.0,-131.0
-256.0,-19.0,-53.0,-41.0,58.0,-65.0,-990.0,-64.0,-130.0
-257.0,-19.0,-57.0,-40.0,50.0,-70.0,-985.0,-69.0,-131.0
-256.0,-20.0,-54.0,-40.0,42.0,-69.0,-989.0,-67.0,-131.0
-255.0,-19.0,-59.0,-40.0,32.0,-73.0,-992.0,-62.0,-138.0
-258.0,-19.0,-57.0,-39.0,22.0,-73.0,-992.0,-70.0,-139.0
-259.0,-20.0,-59.0,-40.0,13.0,-75.0,-994.0,-60.0,-138.0
-258.0,-20.0,-58.0,-39.0,7.0,-73.0,-995.0,-67.0,-141.0
-259.0,-18.0,-60.0,-42.0,0.0,-76.0,-1004.0,-67.0,-139.0
-262.0,-20.0,-62.0,-44.0,-8.0,-72.0,-1001.0,-59.0,-137.0
-261.0,-20.0,-59.0,-45.0,-11.0,-72.0,-1006.0,-66.0,-138.0
-262.0,-16.0,-62.0,-45.0,-12.0,-69.0,-1014.0,-63.0,-133.0
-259.0,-20.0,-56.0,-44.0,-13.0,-69.0,-1016.0,-69.0,-138.0
-262.0,-19.0,-57.0,-44.0,-13.0,-62.0,-1015.0,-63.0,-132.0
-262.0,-20.0,-58.0,-45.0,-11.0,-60.0,-1009.0,-66.0,-132.0
-261.0,-20.0,-58.0,-46.0,-10.0,-54.0,-1006.0,-75.0,-126.0
-260.0,-21.0,-55.0,-45.0,-7.0,-50.0,-1015.0,-78.0,-121.0
-263.0,-20.0,-53.0,-45.0,-6.0,-42.0,-1007.0,-83.0,-119.0
-259.0,-26.0,-51.0,-44.0,-3.0,-36.0,-1002.0,-79.0,-114.0
-256.0,-24.0,-54.0,-40.0,1.0,-29.0,-1000.0,-86.0,-114.0
-260.0,-21.0,-52.0,-34.0,4.0,-25.0,-1002.0,-82.0,-108.0
-259.0,-23.0,-57.0,-29.0,7.0,-17.0,-1002.0,-83.0,-105.0
-260.0,-27.0,-48.0,-24.0,10.0,-14.0,-997.0,-84.0,-100.0
-258.0,-24.0,-51.0,-17.0,11.0,-7.0,-994.0,-89.0,-93.0
-256.0,-26.0,-49.0,-12.0,15.0,-5.0,-998.0,-83.0,-96.0
-257.0,-20.0,-47.0,-9.0,19.0,2.0,-992.0,-83.0,-94.0
-259.0,-26.0,-46.0,-7.0,24.0,4.0,-992.0,-88.0,-88.0
-256.0,-25.0,-44.0,-4.0,25.0,11.0,-993.0,-90.0,-83.0
-258.0,-28.0,-47.0,-2.0,29.0,13.0,-998.0,-95.0,-84.0
-256.0,-29.0,-47.0,4.0,35.0,19.0,-991.0,-93.0,-88.0
-257.0,-24.0,-51.0,7.0,41.0,21.0,-993.0,-96.0,-90.0
-256.0,-27.0,-46.0,9.0,45.0,25.0,-990.0,-89.0,-101.0
-256.0,-24.0,-49.0,11.0,48.0,25.0,-988.0,-87.0,-99.0
-256.0,-24.0,-49.0,12.0,54.0,29.0,-985.0,-83.0,-99.0
-255.0,-26.0,-49.0,10.0,58.0,28.0,-986.0,-88.0,-99.0
-258.0,-22.0,-51.0,9.0,63.0,31.0,-988.0,-82.0,-101.0
-254.0,-24.0,-47.0,9.0,66.0,29.0,-983.0,-81.0,-100.0
-253.0,-25.0,-53.0,7.0,67.0,33.0,-986.0,-82.0,-102.0
-254.0,-20.0,-52.0,6.0,67.0,31.0,-984.0,-79.0,-101.0
-255.0,-27.0,-47.0,7.0,68.0,31.0,-987.0,-81.0,-97.0
-258.0,-21.0,-50.0,7.0,66.0,29.0,-985.0,-78.0,-94.0
-253.0,-24.0,-51.0,6.0,66.0,30.0,-987.0,-79.0,-98.0
-254.0,-22.0,-50.0,4.0,64.0,27.0,-988.0,-80.0,-102.0
-259.0,-20.0,-51.0,3.0,63.0,29.0,-991.0,-79.0,-112.0
-257.0,-20.0,-51.0,1.0,65.0,26.0,-993.0,-75.0,-110.0
-257.0,-21.0,-52.0,1.0,66.0,28.0,-992.0,-73.0,-109.0
-257.0,-20.0,-51.0,2.0,66.0,24.0,-992.0,-78.0,-111.0
-257.0,-20.0,-53.0,3.0,66.0,26.0,-998.0,-69.0,-112.0
-257.0,-20.0,-53.0,8.0,66.0,22.0,-996.0,-76.0,-115.0
-258.0,-20.0,-52.0,12.0,68.0,25.0,-998.0,-69.0,-117.0
-260.0,-19.0,-57.0,13.0,68.0,20.0,-1000.0,-67.0,-113.0
-259.0,-20.0,-50.0,15.0,67.0,21.0,-1006.0,-68.0,-118.0
-261.0,-20.0,-52.0,16.0,66.0,18.0,-1010.0,-73.0,-124.0
-260.0,-20.0,-51.0,19.0,64.0,17.0,-1004.0,-65.0,-117.0
-261.0,-20.0,-54.0,20.0,63.0,13.0,-1005.0,-66.0,-126.0
-260.0,-20.0,-55.0,23.0,60.0,14.0,-1013.0,-65.0,-125.0
-261.0,-18.0,-53.0,25.0,58.0,9.0,-1008.0,-62.0,-123.0
-263.0,-20.0,-53.0,24.0,54.0,11.0,-1004.0,-65.0,-128.0
-262.0,-22.0,-56.0,25.0,54.0,3.0,-1006.0,-57.0,-124.0
-261.0,-17.0,-52.0,24.0,52.0,3.0,-1006.0,-62.0,-124.0
-261.0,-19.0,-54.0,22.0,51.0,0.0,-1007.0,-55.0,-126.0
-257.0,-22.0,-57.0,23.0,49.0,-2.0,-1000.0,-59.0,-120.0
-258.0,-20.0,-56.0,21.0,47.0,-6.0,-1002.0,-59.0,-123.0
-258.0,-20.0,-56.0,20.0,48.0,-5.0,-1001.0,-57.0,-115.0
-260.0,-16.0,-52.0,18.0,50.0,-9.0,-1000.0,-55.0,-122.0
-263.0,-17.0,-55.0,17.0,49.0,-8.0,-1003.0,-56.0,-118.0
-259.0,-19.0,-54.0,15.0,48.0,-12.0,-1003.0,-57.0,-112.0
-259.0,-19.0,-57.0,14.0,46.0,-11.0,-1006.0,-63.0,-117.0
-262.0,-20.0,-53.0,15.0,46.0,-13.0,-1005.0,-60.0,-114.0
-259.0,-20.0,-54.0,13.0,45.0,-11.0,-998.0,-58.0,-114.0
-259.0,-18.0,-52.0,13.0,45.0,-15.0,-997.0,-63.0,-110.0
-261.0,-17.0,-50.0,11.0,43.0,-13.0,-999.0,-59.0,-113.0
-259.0,-20.0,-52.0,9.0,42.0,-14.0,-1006.0,-59.0,-114.0
-260.0,-20.0,-53.0,9.0,43.0,-13.0,-1000.0,-58.0,-111.0
-261.0,-19.0,-57.0,7.0,42.0,-14.0,-1002.0,-55.0,-107.0
-256.0,-20.0,-56.0,5.0,43.0,-12.0,-998.0,-59.0,-108.0
-259.0,-19.0,-46.0,5.0,43.0,-15.0,-1001.0,-61.0,-116.0
-258.0,-20.0,-54.0,1.0,44.0,-11.0,-999.0,-64.0,-106.0
-257.0,-20.0,-52.0,-2.0,46.0,-13.0,-998.0,-62.0,-105.0
-259.0,-20.0,-49.0,-4.0,47.0,-10.0,-1004.0,-64.0,-109.0
-259.0,-21.0,-54.0,-6.0,49.0,-10.0,-1002.0,-68.0,-107.0
-260.0,-20.0,-52.0,-8.0,52.0,-10.0,-1000.0,-74.0,-109.0
-256.0,-19.0,-50.0,-8.0,53.0,-11.0,-996.0,-76.0,-110.0
-260.0,-19.0,-52.0,-8.0,55.0,-8.0,-999.0,-74.0,-103.0
-258.0,-21.0,-52.0,-10.0,56.0,-9.0,-1001.0,-73.0,-108.0
-258.0,-20.0,-52.0,-10.0,55.0,-7.0,-999.0,-72.0,-113.0
-259.0,-20.0,-50.0,-12.0,57.0,-8.0,-997.0,-71.0,-107.0
-261.0,-19.0,-50.0,-15.0,59.0,-5.0,-998.0,-72.0,-108.0
-255.0,-21.0,-54.0,-18.0,59.0,-6.0,-997.0,-73.0,-109.0
-260.0,-20.0,-49.0,-21.0,60.0,-2.0,-999.0,-68.0,-112.0
-259.0,-20.0,-51.0,-22.0,61.0,-4.0,-996.0,-66.0,-107.0
-259.0,-20.0,-52.0,-25.0,62.0,-2.0,-1002.0,-66.0,-103.0
-260.0,-22.0,-50.0,-27.0,63.0,-3.0,-1004.0,-70.0,-103.0
-258.0,-21.0,-51.0,-29.0,62.0,-1.0,-1000.0,-69.0,-106.0
-260.0,-20.0,-49.0,-27.0,63.0,-2.0,-1000.0,-72.0,-107.0
-262.0,-20.0,-50.0,-25.0,64.0,-1.0,-996.0,-73.0,-106.0
-256.0,-20.0,-52.0,-24.0,63.0,-3.0,-999.0,-77.0,-110.0
-260.0,-22.0,-52.0,-23.0,64.0,0.0,-999.0,-77.0,-110.0
-261.0,-20.0,-50.0,-22.0,65.0,-3.0,-995.0,-71.0,-114.0
-256.0,-25.0,-51.0,-22.0,66.0,-2.0,-1001.0,-75.0,-108.0
-257.0,-23.0,-54.0,-22.0,67.0,-4.0,-997.0,-71.0,-112.0
-258.0,-20.0,-56.0,-21.0,65.0,-3.0,-994.0,-69.0,-114.0
-257.0,-23.0,-53.0,-20.0,65.0,-6.0,-997.0,-69.0,-110.0
-256.0,-21.0,-50.0,-20.0,65.0,-4.0,-997.0,-77.0,-115.0
-257.0,-20.0,-53.0,-19.0,64.0,-6.0,-995.0,-68.0,-112.0
-256.0,-21.0,-52.0,-20.0,63.0,-3.0,-997.0,-75.0,-111.0
-259.0,-20.0,-50.0,-21.0,62.0,-5.0,-1000.0,-69.0,-106.0
-256.0,-21.0,-53.0,-19.0,61.0,-2.0,-1000.0,-74.0,-108.0
-260.0,-20.0,-54.0,-18.0,60.0,-5.0,-996.0,-75.0,-113.0
-257.0,-20.0,-53.0,-18.0,59.0,-4.0,-997.0,-75.0,-106.0
-258.0,-20.0,-48.0,-17.0,57.0,-5.0,-997.0,-73.0,-114.0
-261.0,-20.0,-54.0,-16.0,57.0,-5.0,-1002.0,-73.0,-111.0
-258.0,-21.0,-52.0,-16.0,56.0,-7.0,-999.0,-75.0,-114.0
-258.0,-20.0,-52.0,-14.0,56.0,-5.0,-996.0,-76.0,-113.0
-260.0,-22.0,-52.0,-14.0,56.0,-7.0,-998.0,-69.0,-111.0
-252.0,-33.0,-45.0,-13.0,54.0,-5.0,-1000.0,-74.0,-116.0
-260.0,-20.0,-51.0,-12.0,53.0,-7.0,-1000.0,-68.0,-114.0
-259.0,-20.0,-52.0,-11.0,53.0,-5.0,-998.0,-74.0,-111.0
-258.0,-21.0,-50.0,-11.0,52.0,-7.0,-998.0,-77.0,-112.0
-261.0,-23.0,-51.0,-9.0,52.0,-7.0,-1000.0,-76.0,-111.0
-261.0,-22.0,-52.0,-6.0,50.0,-8.0,-999.0,-76.0,-111.0
-259.0,-22.0,-49.0,-4.0,51.0,-5.0,-999.0,-76.0,-108.0
-261.0,-20.0,-53.0,0.0,50.0,-9.0,-997.0,-67.0,-112.0
-258.0,-20.0,-53.0,0.0,51.0,-4.0,-996.0,-73.0,-113.0
-259.0,-20.0,-54.0,1.0,53.0,-5.0,-994.0,-74.0,-106.0
-255.0,-20.0,-49.0,0.0,54.0,-3.0,-999.0,-77.0,-107.0
-258.0,-20.0,-51.0,-1.0,55.0,-6.0,-997.0,-75.0,-108.0
-257.0,-20.0,-49.0,0.0,56.0,-5.0,-994.0,-74.0,-113.0
-258.0,-20.0,-51.0,0.0,56.0,-5.0,-997.0,-77.0,-107.0
-258.0,-20.0,-51.0,1.0,57.0,-3.0,-997.0,-70.0,-102.0
-258.0,-21.0,-52.0,-1.0,57.0,-4.0,-997.0,-68.0,-106.0
-262.0,-19.0,-51.0,-1.0,58.0,-3.0,-1001.0,-73.0,-107.0
-258.0,-20.0,-53.0,-2.0,57.0,-2.0,-1001.0,-73.0,-106.0
-260.0,-20.0,-54.0,-3.0,56.0,0.0,-1001.0,-70.0,-108.0
-262.0,-19.0,-54.0,-4.0,56.0,-1.0,-999.0,-69.0,-110.0
-259.0,-22.0,-51.0,-7.0,58.0,1.0,-998.0,-77.0,-110.0
-263.0,-21.0,-55.0,-7.0,57.0,-1.0,-1004.0,-74.0,-111.0
-261.0,-19.0,-50.0,-8.0,59.0,2.0,-996.0,-67.0,-111.0
-257.0,-21.0,-52.0,-9.0,60.0,0.0,-998.0,-64.0,-109.0
-259.0,-20.0,-50.0,-10.0,62.0,2.0,-999.0,-70.0,-104.0
-259.0,-20.0,-54.0,-10.0,63.0,1.0,-999.0,-79.0,-110.0
-256.0,-20.0,-51.0,-9.0,63.0,3.0,-995.0,-71.0,-108.0
-258.0,-20.0,-51.0,-11.0,61.0,2.0,-998.0,-69.0,-109.0
-258.0,-21.0,-51.0,-11.0,60.0,5.0,-1001.0,-65.0,-110.0
-259.0,-20.0,-54.0,-12.0,61.0,4.0,-1001.0,-67.0,-114.0
-259.0,-20.0,-54.0,-12.0,60.0,5.0,-1006.0,-64.0,-113.0
-260.0,-20.0,-54.0,-11.0,60.0,3.0,-1000.0,-67.0,-121.0
-258.0,-19.0,-55.0,-12.0,61.0,5.0,-1003.0,-66.0,-118.0
-260.0,-19.0,-54.0,-12.0,62.0,2.0,-1001.0,-70.0,-115.0
-260.0,-20.0,-52.0,-13.0,61.0,3.0,-1000.0,-64.0,-114.0
-257.0,-22.0,-55.0,-12.0,62.0,1.0,-999.0,-68.0,-117.0
-257.0,-18.0,-52.0,-11.0,61.0,2.0,-1000.0,-66.0,-119.0
-259.0,-22.0,-51.0,-9.0,61.0,-1.0,-1003.0,-69.0,-108.0
-260.0,-20.0,-54.0,-11.0,60.0,0.0,-1000.0,-70.0,-107.0
-261.0,-20.0,-50.0,-14.0,58.0,-2.0,-998.0,-68.0,-107.0
-257.0,-20.0,-53.0,-17.0,59.0,0.0,-996.0,-74.0,-102.0
-255.0,-24.0,-54.0,-18.0,58.0,-3.0,-999.0,-80.0,-111.0
-258.0,-22.0,-55.0,-17.0,58.0,-1.0,-997.0,-77.0,-117.0
-257.0,-20.0,-56.0,-16.0,58.0,-2.0,-998.0,-74.0,-128.0
-258.0,-22.0,-54.0,-15.0,57.0,-1.0,-993.0,-74.0,-127.0
-258.0,-20.0,-53.0,-17.0,56.0,-1.0,-997.0,-66.0,-121.0
-259.0,-22.0,-51.0,-17.0,55.0,2.0,-998.0,-74.0,-120.0
-257.0,-18.0,-52.0,-18.0,54.0,-1.0,-994.0,-72.0,-115.0
-259.0,-20.0,-49.0,-17.0,56.0,0.0,-997.0,-69.0,-107.0
-257.0,-20.0,-51.0,-16.0,55.0,-3.0,-996.0,-73.0,-107.0
-259.0,-20.0,-48.0,-14.0,56.0,-1.0,-998.0,-67.0,-103.0
-259.0,-18.0,-50.0,-13.0,55.0,-2.0,-1001.0,-72.0,-102.0
-257.0,-20.0,-50.0,-14.0,53.0,-2.0,-1002.0,-65.0,-105.0
-260.0,-20.0,-51.0,-16.0,54.0,-4.0,-1000.0,-62.0,-105.0
-258.0,-20.0,-49.0,-17.0,54.0,-3.0,-999.0,-69.0,-107.0
-259.0,-20.0,-53.0,-19.0,56.0,-6.0,-996.0,-68.0,-106.0
-259.0,-20.0,-54.0,-20.0,58.0,-4.0,-999.0,-71.0,-107.0
-260.0,-20.0,-48.0,-18.0,60.0,-5.0,-999.0,-70.0,-108.0
-257.0,-20.0,-52.0,-15.0,61.0,-4.0,-997.0,-73.0,-103.0
-257.0,-21.0,-54.0,-13.0,61.0,-6.0,-997.0,-71.0,-114.0
-262.0,-20.0,-51.0,-12.0,60.0,-4.0,-999.0,-73.0,-109.0
-260.0,-20.0,-50.0,-10.0,60.0,-6.0,-998.0,-75.0,-112.0
-257.0,-21.0,-52.0,-8.0,59.0,-5.0,-996.0,-70.0,-106.0
-258.0,-20.0,-53.0,-6.0,56.0,-6.0,-999.0,-71.0,-113.0
-258.0,-20.0,-53.0,-6.0,55.0,-6.0,-999.0,-70.0,-115.0
-258.0,-20.0,-50.0,-5.0,55.0,-6.0,-995.0,-70.0,-108.0
-258.0,-21.0,-54.0,-7.0,54.0,-5.0,-1001.0,-70.0,-108.0
-260.0,-20.0,-51.0,-6.0,54.0,-6.0,-1002.0,-70.0,-114.0
-260.0,-19.0,-52.0,-8.0,52.0,-5.0,-1003.0,-73.0,-106.0
-260.0,-20.0,-51.0,-9.0,52.0,-7.0,-996.0,-68.0,-113.0
-259.0,-22.0,-50.0,-8.0,53.0,-4.0,-997.0,-71.0,-108.0
-256.0,-19.0,-53.0,-10.0,52.0,-6.0,-998.0,-70.0,-109.0
-259.0,-19.0,-54.0,-11.0,54.0,-4.0,-1002.0,-68.0,-107.0
-258.0,-20.0,-50.0,-13.0,53.0,-3.0,-999.0,-73.0,-113.0
-258.0,-24.0,-52.0,-13.0,53.0,-2.0,-998.0,-71.0,-112.0
-257.0,-20.0,-53.0,-14.0,53.0,-3.0,-998.0,-73.0,-114.0
-260.0,-20.0,-54.0,-14.0,53.0,-3.0,-1001.0,-65.0,-111.0
-257.0,-24.0,-49.0,-13.0,52.0,-3.0,-996.0,-71.0,-110.0
-259.0,-20.0,-52.0,-11.0,51.0,-2.0,-996.0,-70.0,-111.0
-258.0,-20.0,-52.0,-11.0,51.0,-3.0,-995.0,-69.0,-108.0
-259.0,-20.0,-52.0,-9.0,51.0,-1.0,-1000.0,-73.0,-105.0
-259.0,-19.0,-51.0,-9.0,52.0,-2.0,-997.0,-68.0,-110.0
-256.0,-20.0,-53.0,-11.0,51.0,1.0,-998.0,-74.0,-111.0
-258.0,-20.0,-51.0,-9.0,52.0,-1.0,-1003.0,-70.0,-107.0
-259.0,-20.0,-53.0,-10.0,52.0,0.0,-999.0,-70.0,-107.0
-259.0,-20.0,-53.0,-11.0,51.0,1.0,-995.0,-70.0,-109.0
-261.0,-20.0,-51.0,-11.0,51.0,0.0,-1003.0,-70.0,-107.0
-257.0,-20.0,-54.0,-11.0,51.0,0.0,-1000.0,-66.0,-107.0
-259.0,-20.0,-49.0,-11.0,51.0,2.0,-1001.0,-73.0,-110.0
-258.0,-20.0,-49.0,-12.0,51.0,1.0,-996.0,-75.0,-106.0
-257.0,-19.0,-51.0,-11.0,51.0,1.0,-997.0,-71.0,-107.0
-260.0,-20.0,-51.0,-11.0,52.0,1.0,-1000.0,-76.0,-110.0
-257.0,-21.0,-53.0,-10.0,53.0,1.0,-999.0,-74.0,-107.0
-258.0,-19.0,-55.0,-9.0,54.0,2.0,-996.0,-74.0,-110.0
-259.0,-20.0,-51.0,-9.0,52.0,-1.0,-995.0,-76.0,-110.0
-260.0,-22.0,-55.0,-8.0,51.0,-3.0,-995.0,-77.0,-108.0
-262.0,-20.0,-51.0,-8.0,51.0,-2.0,-998.0,-70.0,-110.0
-257.0,-20.0,-49.0,-6.0,50.0,-2.0,-994.0,-67.0,-108.0
-260.0,-20.0,-53.0,-7.0,50.0,-1.0,-999.0,-69.0,-113.0
-258.0,-19.0,-52.0,-7.0,50.0,-3.0,-1001.0,-66.0,-109.0
-260.0,-21.0,-51.0,-7.0,49.0,-3.0,-998.0,-70.0,-105.0
-256.0,-20.0,-52.0,-7.0,49.0,-5.0,-998.0,-74.0,-105.0
-260.0,-20.0,-51.0,-8.0,50.0,-3.0,-998.0,-67.0,-106.0
-260.0,-20.0,-48.0,-10.0,50.0,-3.0,-1001.0,-73.0,-105.0
-260.0,-20.0,-50.0,-13.0,52.0,-4.0,-995.0,-71.0,-106.0
-257.0,-21.0,-52.0,-15.0,54.0,-4.0,-999.0,-64.0,-104.0
-259.0,-21.0,-48.0,-15.0,55.0,-4.0,-999.0,-68.0,-102.0
-255.0,-20.0,-48.0,-15.0,55.0,-6.0,-996.0,-70.0,-104.0
-259.0,-20.0,-52.0,-15.0,56.0,-5.0,-998.0,-73.0,-105.0
-261.0,-21.0,-50.0,-16.0,56.0,-6.0,-999.0,-74.0,-106.0
-258.0,-24.0,-50.0,-17.0,57.0,-5.0,-1000.0,-68.0,-108.0
-259.0,-20.0,-54.0,-16.0,56.0,-4.0,-1006.0,-70.0,-106.0
-257.0,-22.0,-52.0,-14.0,56.0,-3.0,-1001.0,-66.0,-110.0
-257.0,-23.0,-49.0,-12.0,57.0,-5.0,-997.0,-76.0,-105.0
-258.0,-19.0,-52.0,-12.0,59.0,-3.0,-1003.0,-73.0,-107.0
-257.0,-20.0,-53.0,-12.0,60.0,-4.0,-995.0,-73.0,-107.0
-261.0,-20.0,-52.0,-11.0,58.0,-3.0,-998.0,-70.0,-110.0
-260.0,-20.0,-54.0,-10.0,59.0,-4.0,-999.0,-68.0,-105.0
-258.0,-20.0,-53.0,-9.0,58.0,-3.0,-997.0,-69.0,-104.0
-258.0,-20.0,-49.0,-8.0,59.0,-4.0,-996.0,-73.0,-107.0
-258.0,-18.0,-49.0,-9.0,59.0,-4.0,-995.0,-70.0,-102.0
-262.0,-20.0,-47.0,-10.0,59.0,-5.0,-1000.0,-64.0,-110.0
-259.0,-20.0,-51.0,-11.0,60.0,-4.0,-1001.0,-69.0,-107.0
-259.0,-19.0,-52.0,-12.0,59.0,-4.0,-1002.0,-72.0,-109.0
-262.0,-20.0,-48.0,-13.0,60.0,-2.0,-1000.0,-71.0,-106.0
-257.0,-21.0,-49.0,-13.0,61.0,-4.0,-999.0,-72.0,-104.0
-260.0,-20.0,-53.0,-12.0,62.0,-2.0,-1000.0,-67.0,-109.0
-257.0,-20.0,-55.0,-14.0,64.0,-3.0,-999.0,-73.0,-102.0
-258.0,-20.0,-52.0,-13.0,64.0,-3.0,-994.0,-74.0,-109.0
-260.0,-20.0,-48.0,-15.0,64.0,-3.0,-999.0,-73.0,-108.0
-260.0,-20.0,-50.0,-15.0,66.0,-1.0,-997.0,-67.0,-105.0
-258.0,-20.0,-53.0,-14.0,66.0,-2.0,-999.0,-76.0,-109.0
-259.0,-21.0,-50.0,-14.0,64.0,-1.0,-998.0,-71.0,-108.0
-256.0,-20.0,-52.0,-15.0,63.0,-2.0,-1000.0,-73.0,-103.0
-260.0,-20.0,-51.0,-15.0,64.0,-2.0,-996.0,-70.0,-108.0
-256.0,-20.0,-52.0,-15.0,63.0,-1.0,-998.0,-73.0,-105.0
-258.0,-20.0,-51.0,-16.0,64.0,-2.0,-1000.0,-71.0,-111.0
-259.0,-20.0,-51.0,-15.0,64.0,-1.0,-999.0,-81.0,-112.0
-259.0,-20.0,-51.0,-14.0,64.0,-2.0,-998.0,-76.0,-110.0
-261.0,-20.0,-52.0,-14.0,64.0,-2.0,-997.0,-74.0,-116.0
-256.0,-20.0,-50.0,-16.0,65.0,-1.0,-1001.0,-70.0,-112.0
-261.0,-20.0,-49.0,-15.0,66.0,-1.0,-1000.0,-76.0,-111.0
-258.0,-24.0,-56.0,-15.0,65.0,-1.0,-1006.0,-70.0,-110.0
-258.0,-23.0,-53.0,-13.0,64.0,-1.0,-1002.0,-73.0,-113.0
-261.0,-20.0,-53.0,-13.0,64.0,-2.0,-1003.0,-73.0,-107.0
-259.0,-20.0,-52.0,-12.0,61.0,-1.0,-999.0,-70.0,-109.0
-260.0,-20.0,-50.0,-11.0,61.0,-1.0,-997.0,-76.0,-108.0
-262.0,-19.0,-53.0,-10.0,61.0,-1.0,-996.0,-73.0,-107.0
-259.0,-22.0,-54.0,-10.0,60.0,0.0,-1000.0,-74.0,-110.0
-258.0,-23.0,-50.0,-10.0,60.0,-1.0,-1005.0,-65.0,-108.0
-260.0,-20.0,-48.0,-9.0,61.0,1.0,-997.0,-78.0,-108.0
-257.0,-20.0,-52.0,-9.0,61.0,0.0,-998.0,-74.0,-109.0
-256.0,-24.0,-53.0,-9.0,61.0,-1.0,-1003.0,-67.0,-111.0
-259.0,-20.0,-53.0,-9.0,61.0,-2.0,-998.0,-74.0,-110.0
-260.0,-22.0,-51.0,-8.0,58.0,-1.0,-995.0,-69.0,-111.0
-258.0,-20.0,-54.0,-7.0,59.0,-2.0,-1001.0,-76.0,-106.0
-257.0,-20.0,-54.0,-8.0,58.0,-1.0,-1000.0,-73.0,-110.0
-259.0,-20.0,-53.0,-7.0,58.0,-1.0,-997.0,-66.0,-106.0
-256.0,-22.0,-50.0,-8.0,58.0,-1.0,-997.0,-74.0,-109.0
-260.0,-20.0,-47.0,-6.0,57.0,0.0,-1001.0,-69.0,-105.0
-260.0,-20.0,-51.0,-8.0,57.0,-1.0,-997.0,-65.0,-107.0
-259.0,-20.0,-53.0,-8.0,58.0,-1.0,-1000.0,-75.0,-107.0
-260.0,-20.0,-52.0,-9.0,57.0,0.0,-999.0,-66.0,-105.0
-260.0,-20.0,-52.0,-10.0,58.0,-1.0,-995.0,-72.0,-106.0
-260.0,-20.0,-50.0,-10.0,60.0,-1.0,-998.0,-75.0,-108.0
-256.0,-20.0,-50.0,-10.0,58.0,-2.0,-996.0,-72.0,-108.0
-259.0,-19.0,-57.0,-10.0,60.0,-1.0,-997.0,-69.0,-106.0
-258.0,-19.0,-51.0,-11.0,61.0,0.0,-998.0,-71.0,-104.0
-258.0,-20.0,-51.0,-12.0,59.0,0.0,-998.0,-69.0,-107.0
-259.0,-21.0,-54.0,-13.0,58.0,-1.0,-1002.0,-70.0,-111.0
-258.0,-22.0,-51.0,-12.0,58.0,-1.0,-999.0,-63.0,-102.0
-259.0,-21.0,-55.0,-11.0,57.0,-1.0,-992.0,-73.0,-112.0
-261.0,-21.0,-55.0,-13.0,57.0,-1.0,-1000.0,-74.0,-111.0
-259.0,-20.0,-51.0,-11.0,56.0,-1.0,-1000.0,-73.0,-111.0
-262.0,-20.0,-54.0,-8.0,56.0,-2.0,-1000.0,-73.0,-110.0
-259.0,-20.0,-53.0,-8.0,57.0,-1.0,-1000.0,-72.0,-113.0
-260.0,-22.0,-53.0,-7.0,58.0,-1.0,-1001.0,-73.0,-110.0
-259.0,-20.0,-48.0,-9.0,58.0,1.0,-1000.0,-72.0,-117.0
-258.0,-21.0,-47.0,-12.0,58.0,-2.0,-998.0,-74.0,-104.0
-259.0,-20.0,-47.0,-14.0,57.0,-1.0,-1003.0,-73.0,-103.0
-260.0,-19.0,-48.0,-18.0,56.0,-3.0,-996.0,-73.0,-100.0
-257.0,-21.0,-53.0,-17.0,56.0,-4.0,-998.0,-80.0,-107.0
-258.0,-23.0,-52.0,-18.0,58.0,-2.0,-997.0,-75.0,-109.0
-258.0,-20.0,-57.0,-14.0,56.0,-1.0,-996.0,-72.0,-121.0
-259.0,-20.0,-54.0,-13.0,57.0,-1.0,-1000.0,-68.0,-121.0
-257.0,-20.0,-54.0,-13.0,57.0,0.0,-999.0,-70.0,-117.0
-259.0,-20.0,-50.0,-14.0,57.0,-1.0,-995.0,-73.0,-111.0
-258.0,-21.0,-51.0,-15.0,59.0,-1.0,-999.0,-74.0,-107.0
-261.0,-20.0,-51.0,-15.0,60.0,0.0,-999.0,-71.0,-105.0
-262.0,-20.0,-50.0,-14.0,61.0,1.0,-998.0,-74.0,-102.0
-259.0,-22.0,-45.0,-14.0,62.0,1.0,-1000.0,-76.0,-98.0
-260.0,-20.0,-51.0,-13.0,61.0,0.0,-1000.0,-66.0,-100.0
-261.0,-20.0,-48.0,-14.0,60.0,0.0,-994.0,-71.0,-100.0
-259.0,-20.0,-53.0,-16.0,61.0,-1.0,-1001.0,-76.0,-101.0
-258.0,-21.0,-53.0,-19.0,62.0,-2.0,-1000.0,-71.0,-109.0
-258.0,-20.0,-50.0,-17.0,62.0,-1.0,-1006.0,-72.0,-110.0
-260.0,-20.0,-52.0,-16.0,64.0,-2.0,-1002.0,-69.0,-110.0
-261.0,-23.0,-52.0,-15.0,64.0,-1.0,-1004.0,-70.0,-109.0
-261.0,-19.0,-50.0,-13.0,64.0,-3.0,-999.0,-68.0,-109.0
-261.0,-20.0,-52.0,-12.0,64.0,-2.0,-1001.0,-71.0,-111.0
-259.0,-22.0,-53.0,-10.0,64.0,-2.0,-998.0,-69.0,-110.0
-258.0,-19.0,-51.0,-9.0,64.0,-2.0,-998.0,-70.0,-112.0
-259.0,-20.0,-51.0,-7.0,62.0,-4.0,-998.0,-69.0,-107.0
-258.0,-21.0,-56.0,-7.0,63.0,-1.0,-997.0,-68.0,-118.0
-258.0,-22.0,-54.0,-6.0,63.0,-3.0,-1006.0,-67.0,-112.0
-257.0,-20.0,-55.0,-6.0,62.0,-1.0,-1000.0,-67.0,-105.0
-260.0,-22.0,-47.0,-6.0,61.0,-2.0,-1002.0,-70.0,-107.0
-257.0,-24.0,-49.0,-7.0,61.0,-1.0,-996.0,-68.0,-109.0
-257.0,-20.0,-47.0,-7.0,62.0,-4.0,-1001.0,-66.0,-109.0
-258.0,-21.0,-49.0,-8.0,61.0,-2.0,-999.0,-70.0,-107.0
-257.0,-20.0,-49.0,-8.0,64.0,-2.0,-996.0,-69.0,-107.0
-258.0,-20.0,-52.0,-8.0,63.0,-3.0,-995.0,-74.0,-108.0
-257.0,-21.0,-51.0,-8.0,62.0,-5.0,-998.0,-69.0,-104.0
-259.0,-19.0,-51.0,-10.0,61.0,-3.0,-998.0,-69.0,-106.0
-262.0,-20.0,-53.0,-10.0,62.0,-4.0,-1000.0,-75.0,-109.0
-259.0,-20.0,-49.0,-12.0,61.0,-2.0,-1000.0,-70.0,-107.0
-255.0,-24.0,-52.0,-14.0,61.0,-4.0,-998.0,-73.0,-106.0
-260.0,-21.0,-50.0,-12.0,63.0,-2.0,-998.0,-69.0,-111.0
-258.0,-21.0,-51.0,-12.0,62.0,-3.0,-998.0,-73.0,-105.0
-259.0,-20.0,-56.0,-13.0,62.0,-2.0,-998.0,-77.0,-108.0
-260.0,-20.0,-54.0,-13.0,62.0,-2.0,-996.0,-78.0,-108.0
-260.0,-20.0,-50.0,-12.0,63.0,-2.0,-1000.0,-69.0,-111.0
-259.0,-24.0,-50.0,-10.0,62.0,-2.0,-999.0,-71.0,-106.0
-257.0,-22.0,-52.0,-10.0,61.0,-1.0,-1002.0,-72.0,-108.0
-260.0,-20.0,-49.0,-10.0,60.0,-2.0,-1002.0,-74.0,-112.0
-260.0,-21.0,-54.0,-11.0,60.0,0.0,-994.0,-73.0,-107.0
-256.0,-20.0,-53.0,-11.0,59.0,-1.0,-1001.0,-68.0,-110.0
-259.0,-20.0,-52.0,-11.0,58.0,-1.0,-998.0,-75.0,-108.0
-256.0,-21.0,-51.0,-10.0,59.0,-2.0,-993.0,-73.0,-108.0
-259.0,-21.0,-51.0,-9.0,59.0,-1.0,-996.0,-76.0,-106.0
-258.0,-19.0,-50.0,-9.0,59.0,-1.0,-999.0,-67.0,-111.0
-260.0,-20.0,-53.0,-8.0,60.0,-1.0,-1000.0,-65.0,-108.0
-259.0,-20.0,-52.0,-8.0,59.0,-2.0,-998.0,-73.0,-112.0
-258.0,-20.0,-51.0,-8.0,59.0,0.0,-1002.0,-73.0,-112.0
-259.0,-20.0,-53.0,-8.0,57.0,-2.0,-1000.0,-76.0,-111.0
-260.0,-21.0,-55.0,-9.0,57.0,-2.0,-1002.0,-66.0,-113.0
-262.0,-20.0,-56.0,-9.0,57.0,-3.0,-997.0,-74.0,-108.0
-258.0,-23.0,-50.0,-10.0,56.0,-3.0,-1000.0,-71.0,-110.0
-260.0,-20.0,-51.0,-8.0,56.0,-4.0,-998.0,-76.0,-106.0
-261.0,-20.0,-52.0,-8.0,56.0,-3.0,-1001.0,-74.0,-108.0
-260.0,-20.0,-53.0,-7.0,55.0,-4.0,-995.0,-74.0,-110.0
-257.0,-20.0,-50.0,-8.0,58.0,-2.0,-999.0,-64.0,-110.0
-257.0,-20.0,-55.0,-9.0,60.0,-4.0,-999.0,-68.0,-108.0
-260.0,-21.0,-50.0,-11.0,59.0,-2.0,-1001.0,-78.0,-106.0
-262.0,-20.0,-48.0,-13.0,58.0,-4.0,-1001.0,-70.0,-103.0
-260.0,-20.0,-55.0,-12.0,57.0,-3.0,-996.0,-70.0,-106.0
-259.0,-20.0,-51.0,-11.0,56.0,-5.0,-992.0,-70.0,-105.0
-259.0,-21.0,-49.0,-11.0,54.0,-2.0,-994.0,-62.0,-103.0
-260.0,-20.0,-49.0,-9.0,54.0,-3.0,-999.0,-74.0,-106.0
-258.0,-22.0,-52.0,-12.0,55.0,-2.0,-1001.0,-72.0,-109.0
-260.0,-19.0,-51.0,-11.0,55.0,-1.0,-998.0,-71.0,-110.0
-258.0,-20.0,-54.0,-11.0,56.0,-1.0,-995.0,-72.0,-106.0
-259.0,-20.0,-52.0,-12.0,56.0,-4.0,-1000.0,-72.0,-104.0
-260.0,-20.0,-53.0,-12.0,56.0,-2.0,-995.0,-73.0,-109.0
-260.0,-19.0,-50.0,-12.0,56.0,-4.0,-1000.0,-60.0,-111.0
-260.0,-20.0,-49.0,-12.0,56.0,-2.0,-998.0,-73.0,-110.0
-259.0,-20.0,-52.0,-11.0,57.0,-4.0,-998.0,-70.0,-109.0
-260.0,-20.0,-50.0,-11.0,58.0,-1.0,-999.0,-68.0,-107.0
-261.0,-20.0,-54.0,-11.0,58.0,-3.0,-999.0,-69.0,-108.0
-261.0,-20.0,-50.0,-11.0,59.0,-1.0,-1000.0,-70.0,-107.0
-261.0,-20.0,-49.0,-11.0,59.0,-2.0,-999.0,-69.0,-111.0
-256.0,-23.0,-52.0,-10.0,61.0,-3.0,-999.0,-70.0,-103.0
-258.0,-20.0,-52.0,-12.0,61.0,-3.0,-1003.0,-68.0,-108.0
-259.0,-21.0,-50.0,-12.0,62.0,-2.0,-1000.0,-72.0,-104.0
-260.0,-20.0,-49.0,-11.0,60.0,-4.0,-998.0,-67.0,-109.0
-260.0,-21.0,-48.0,-12.0,59.0,-2.0,-994.0,-69.0,-112.0
-259.0,-20.0,-51.0,-12.0,60.0,-3.0,-996.0,-73.0,-110.0
-259.0,-20.0,-51.0,-13.0,59.0,0.0,-998.0,-74.0,-102.0
-261.0,-18.0,-49.0,-13.0,59.0,-3.0,-1000.0,-71.0,-106.0
-258.0,-22.0,-53.0,-13.0,58.0,-2.0,-994.0,-69.0,-107.0
-259.0,-20.0,-48.0,-14.0,59.0,-2.0,-998.0,-71.0,-107.0
-258.0,-20.0,-49.0,-15.0,59.0,-1.0,-997.0,-76.0,-110.0
-261.0,-20.0,-49.0,-15.0,59.0,-4.0,-1000.0,-81.0,-106.0
-257.0,-22.0,-53.0,-15.0,59.0,-2.0,-1003.0,-67.0,-101.0
-261.0,-19.0,-50.0,-15.0,59.0,-4.0,-1004.0,-69.0,-112.0
-261.0,-20.0,-50.0,-14.0,57.0,-2.0,-1001.0,-70.0,-108.0
-256.0,-23.0,-52.0,-14.0,58.0,-4.0,-997.0,-72.0,-109.0
-259.0,-20.0,-51.0,-16.0,60.0,-1.0,-999.0,-71.0,-107.0
-259.0,-20.0,-50.0,-15.0,61.0,-3.0,-995.0,-71.0,-111.0
-259.0,-20.0,-52.0,-13.0,60.0,-1.0,-996.0,-73.0,-108.0
-259.0,-20.0,-52.0,-13.0,61.0,-3.0,-999.0,-73.0,-109.0
-257.0,-22.0,-52.0,-14.0,62.0,0.0,-997.0,-67.0,-115.0
-259.0,-20.0,-52.0,-13.0,61.0,-3.0,-996.0,-76.0,-108.0
-257.0,-19.0,-51.0,-12.0,60.0,-2.0,-999.0,-71.0,-110.0
-256.0,-21.0,-51.0,-11.0,60.0,-4.0,-998.0,-72.0,-108.0
-257.0,-20.0,-50.0,-12.0,60.0,-1.0,-996.0,-76.0,-105.0
-258.0,-19.0,-53.0,-13.0,59.0,-3.0,-1002.0,-76.0,-107.0
-256.0,-21.0,-50.0,-13.0,58.0,-2.0,-997.0,-74.0,-107.0
-258.0,-20.0,-52.0,-12.0,58.0,-3.0,-996.0,-70.0,-109.0
-257.0,-22.0,-53.0,-13.0,57.0,-1.0,-1001.0,-74.0,-110.0
-258.0,-21.0,-49.0,-13.0,56.0,-4.0,-998.0,-74.0,-104.0
-259.0,-19.0,-52.0,-14.0,56.0,-3.0,-999.0,-74.0,-108.0
-260.0,-21.0,-53.0,-14.0,57.0,-4.0,-1004.0,-70.0,-106.0
-258.0,-22.0,-54.0,-14.0,58.0,-1.0,-998.0,-69.0,-110.0
-260.0,-18.0,-50.0,-13.0,58.0,-3.0,-998.0,-70.0,-110.0
-260.0,-20.0,-53.0,-12.0,59.0,-1.0,-1002.0,-74.0,-110.0
-258.0,-23.0,-54.0,-11.0,61.0,-3.0,-1002.0,-73.0,-111.0
-261.0,-20.0,-54.0,-10.0,61.0,-1.0,-997.0,-75.0,-106.0
-258.0,-20.0,-50.0,-9.0,58.0,-4.0,-998.0,-70.0,-106.0
-258.0,-21.0,-57.0,-9.0,60.0,-1.0,-1000.0,-73.0,-107.0
-260.0,-20.0,-51.0,-10.0,59.0,-3.0,-999.0,-70.0,-108.0
-260.0,-20.0,-53.0,-11.0,61.0,-1.0,-999.0,-73.0,-109.0
-256.0,-20.0,-48.0,-11.0,60.0,-2.0,-998.0,-71.0,-110.0
-260.0,-21.0,-52.0,-13.0,61.0,0.0,-997.0,-73.0,-103.0
-260.0,-21.0,-52.0,-10.0,59.0,-3.0,-1002.0,-73.0,-104.0
-257.0,-20.0,-48.0,-10.0,60.0,-1.0,-993.0,-69.0,-105.0
-258.0,-22.0,-50.0,-11.0,59.0,-3.0,-999.0,-74.0,-112.0
-262.0,-20.0,-49.0,-11.0,59.0,-2.0,-1005.0,-70.0,-106.0
-258.0,-20.0,-52.0,-11.0,60.0,-4.0,-1001.0,-71.0,-106.0
-259.0,-20.0,-50.0,-13.0,60.0,-1.0,-995.0,-74.0,-106.0
-255.0,-20.0,-47.0,-14.0,61.0,-3.0,-998.0,-74.0,-110.0
-257.0,-20.0,-48.0,-14.0,61.0,0.0,-1003.0,-72.0,-107.0
-258.0,-22.0,-48.0,-13.0,61.0,-3.0,-997.0,-70.0,-107.0
-259.0,-20.0,-53.0,-13.0,60.0,0.0,-998.0,-72.0,-111.0
-256.0,-21.0,-52.0,-15.0,60.0,-3.0,-1000.0,-66.0,-105.0
-258.0,-19.0,-50.0,-19.0,61.0,0.0,-998.0,-77.0,-108.0
-258.0,-20.0,-53.0,-21.0,60.0,-2.0,-997.0,-70.0,-109.0
-257.0,-20.0,-53.0,-20.0,59.0,1.0,-998.0,-72.0,-112.0
-259.0,-20.0,-51.0,-21.0,58.0,-1.0,-1000.0,-67.0,-106.0
-258.0,-19.0,-51.0,-21.0,58.0,1.0,-1004.0,-72.0,-107.0
-259.0,-23.0,-49.0,-22.0,58.0,-2.0,-1000.0,-72.0,-109.0
-259.0,-20.0,-47.0,-22.0,59.0,0.0,-1001.0,-66.0,-108.0
-260.0,-20.0,-52.0,-20.0,60.0,-3.0,-999.0,-65.0,-106.0
-260.0,-20.0,-51.0,-19.0,59.0,0.0,-1000.0,-72.0,-109.0
-258.0,-20.0,-49.0,-21.0,60.0,-2.0,-998.0,-73.0,-109.0
-258.0,-21.0,-51.0,-23.0,60.0,-1.0,-1003.0,-69.0,-105.0
-259.0,-20.0,-50.0,-26.0,59.0,-3.0,-1000.0,-69.0,-101.0
-257.0,-23.0,-53.0,-29.0,58.0,-2.0,-996.0,-66.0,-103.0
-263.0,-21.0,-52.0,-32.0,59.0,-3.0,-998.0,-70.0,-99.0
-261.0,-20.0,-47.0,-36.0,59.0,-2.0,-997.0,-71.0,-96.0
-260.0,-20.0,-50.0,-37.0,62.0,-5.0,-1002.0,-70.0,-105.0
-261.0,-20.0,-53.0,-36.0,61.0,-3.0,-998.0,-76.0,-118.0
-257.0,-23.0,-54.0,-35.0,61.0,-4.0,-998.0,-68.0,-115.0
-258.0,-21.0,-53.0,-34.0,63.0,-1.0,-1002.0,-73.0,-117.0
-257.0,-20.0,-51.0,-34.0,65.0,-5.0,-1001.0,-76.0,-115.0
-262.0,-20.0,-49.0,-35.0,66.0,-2.0,-996.0,-67.0,-107.0
-261.0,-20.0,-49.0,-34.0,64.0,-5.0,-996.0,-74.0,-103.0
-260.0,-18.0,-49.0,-34.0,65.0,-2.0,-999.0,-67.0,-103.0
-259.0,-19.0,-51.0,-34.0,66.0,-3.0,-999.0,-66.0,-99.0
-257.0,-20.0,-48.0,-33.0,65.0,-1.0,-999.0,-72.0,-99.0
-257.0,-21.0,-50.0,-33.0,65.0,-3.0,-997.0,-71.0,-100.0
-261.0,-20.0,-50.0,-34.0,66.0,-3.0,-999.0,-69.0,-102.0
-261.0,-19.0,-52.0,-34.0,68.0,-4.0,-1001.0,-70.0,-103.0
-258.0,-20.0,-49.0,-34.0,69.0,-1.0,-999.0,-73.0,-109.0
-257.0,-19.0,-52.0,-33.0,69.0,-4.0,-1003.0,-74.0,-113.0
-259.0,-20.0,-55.0,-33.0,70.0,-2.0,-999.0,-74.0,-109.0
-259.0,-20.0,-55.0,-32.0,71.0,-5.0,-1003.0,-70.0,-114.0
-260.0,-19.0,-53.0,-30.0,70.0,-2.0,-998.0,-67.0,-119.0
-262.0,-20.0,-54.0,-29.0,69.0,-5.0,-1001.0,-68.0,-110.0
-259.0,-23.0,-54.0,-28.0,69.0,-2.0,-999.0,-76.0,-116.0
-257.0,-24.0,-54.0,-26.0,68.0,-3.0,-999.0,-70.0,-110.0
-261.0,-20.0,-55.0,-23.0,66.0,-2.0,-999.0,-69.0,-109.0
-260.0,-19.0,-51.0,-21.0,65.0,-5.0,-998.0,-76.0,-109.0
-259.0,-20.0,-52.0,-20.0,66.0,-2.0,-1000.0,-67.0,-110.0
-259.0,-20.0,-51.0,-20.0,65.0,-5.0,-1003.0,-70.0,-109.0
-258.0,-20.0,-54.0,-20.0,65.0,-2.0,-996.0,-73.0,-110.0
-258.0,-19.0,-54.0,-20.0,64.0,-4.0,-998.0,-68.0,-109.0
-250.0,-21.0,-58.0,-21.0,66.0,-1.0,-996.0,-67.0,-110.0
-259.0,-22.0,-51.0,-23.0,66.0,-4.0,-1001.0,-76.0,-113.0
-258.0,-20.0,-51.0,-23.0,65.0,-1.0,-1001.0,-74.0,-109.0
-261.0,-22.0,-49.0,-23.0,65.0,-4.0,-1000.0,-71.0,-111.0
-257.0,-21.0,-49.0,-25.0,64.0,-2.0,-995.0,-74.0,-108.0
-258.0,-21.0,-52.0,-26.0,63.0,-5.0,-1004.0,-77.0,-109.0
-258.0,-20.0,-52.0,-28.0,61.0,-2.0,-997.0,-74.0,-112.0
-256.0,-21.0,-52.0,-29.0,61.0,-3.0,-1003.0,-75.0,-112.0
-258.0,-22.0,-53.0,-28.0,59.0,-1.0,-1003.0,-72.0,-109.0
-257.0,-20.0,-50.0,-27.0,59.0,-3.0,-999.0,-79.0,-111.0
-258.0,-20.0,-49.0,-28.0,61.0,-2.0,-999.0,-76.0,-116.0
-257.0,-20.0,-52.0,-28.0,61.0,-3.0,-995.0,-76.0,-112.0
-259.0,-22.0,-54.0,-26.0,61.0,-1.0,-996.0,-73.0,-113.0
-256.0,-22.0,-53.0,-25.0,63.0,-5.0,-998.0,-72.0,-119.0
-260.0,-18.0,-52.0,-25.0,62.0,-1.0,-996.0,-68.0,-116.0
-260.0,-20.0,-52.0,-23.0,61.0,-3.0,-999.0,-69.0,-113.0
-257.0,-20.0,-55.0,-22.0,60.0,0.0,-994.0,-72.0,-117.0
-258.0,-20.0,-52.0,-21.0,60.0,-2.0,-993.0,-73.0,-112.0
-258.0,-20.0,-51.0,-21.0,61.0,0.0,-998.0,-69.0,-105.0
-256.0,-20.0,-52.0,-21.0,60.0,-3.0,-996.0,-70.0,-114.0
-259.0,-20.0,-53.0,-22.0,58.0,-1.0,-1004.0,-73.0,-112.0
-258.0,-20.0,-54.0,-21.0,59.0,-3.0,-1001.0,-70.0,-110.0
-256.0,-20.0,-51.0,-21.0,57.0,-1.0,-1000.0,-64.0,-113.0
-258.0,-20.0,-51.0,-21.0,56.0,-3.0,-995.0,-70.0,-112.0
-260.0,-20.0,-52.0,-22.0,55.0,-1.0,-1001.0,-74.0,-108.0
-258.0,-20.0,-53.0,-22.0,55.0,-5.0,-999.0,-72.0,-112.0
-259.0,-21.0,-53.0,-22.0,54.0,-3.0,-1003.0,-76.0,-108.0
-257.0,-21.0,-51.0,-22.0,53.0,-5.0,-1000.0,-74.0,-111.0
-258.0,-20.0,-51.0,-22.0,52.0,-3.0,-998.0,-71.0,-112.0
-259.0,-20.0,-51.0,-21.0,54.0,-5.0,-1002.0,-69.0,-110.0
-258.0,-22.0,-52.0,-21.0,53.0,-3.0,-1001.0,-64.0,-110.0
-257.0,-22.0,-55.0,-22.0,54.0,-4.0,-1000.0,-65.0,-105.0
-259.0,-21.0,-48.0,-23.0,53.0,-2.0,-999.0,-67.0,-107.0
-260.0,-21.0,-50.0,-25.0,53.0,-5.0,-1000.0,-67.0,-105.0
-257.0,-20.0,-49.0,-25.0,54.0,-2.0,-997.0,-70.0,-108.0
-258.0,-20.0,-51.0,-25.0,54.0,-4.0,-997.0,-70.0,-106.0
-259.0,-19.0,-54.0,-27.0,56.0,-1.0,-997.0,-72.0,-109.0
-260.0,-20.0,-51.0,-27.0,58.0,-4.0,-1002.0,-74.0,-109.0
-258.0,-23.0,-52.0,-28.0,57.0,-2.0,-996.0,-72.0,-109.0
-257.0,-20.0,-51.0,-28.0,57.0,-4.0,-999.0,-72.0,-104.0
-257.0,-20.0,-51.0,-26.0,58.0,-3.0,-1004.0,-77.0,-100.0
-256.0,-20.0,-50.0,-25.0,58.0,-4.0,-1004.0,-69.0,-101.0
-257.0,-20.0,-50.0,-24.0,58.0,-3.0,-1001.0,-68.0,-110.0
-261.0,-20.0,-54.0,-23.0,58.0,-5.0,-997.0,-73.0,-113.0
-260.0,-20.0,-49.0,-24.0,58.0,-3.0,-1005.0,-66.0,-109.0
-260.0,-20.0,-52.0,-22.0,58.0,-6.0,-1001.0,-76.0,-109.0
-260.0,-20.0,-56.0,-22.0,58.0,-3.0,-1001.0,-66.0,-109.0
-255.0,-20.0,-49.0,-21.0,60.0,-6.0,-1000.0,-71.0,-110.0
-260.0,-19.0,-50.0,-21.0,62.0,-3.0,-1000.0,-64.0,-113.0
-258.0,-20.0,-52.0,-19.0,64.0,-5.0,-999.0,-73.0,-107.0
-257.0,-20.0,-52.0,-19.0,65.0,-2.0,-992.0,-76.0,-110.0
-257.0,-19.0,-52.0,-20.0,66.0,-5.0,-996.0,-77.0,-109.0
-257.0,-20.0,-51.0,-19.0,66.0,-3.0,-994.0,-74.0,-111.0
-256.0,-21.0,-49.0,-18.0,65.0,-5.0,-997.0,-74.0,-99.0
-260.0,-23.0,-49.0,-20.0,66.0,-2.0,-997.0,-67.0,-108.0
-256.0,-20.0,-49.0,-21.0,64.0,-4.0,-998.0,-64.0,-112.0
-259.0,-22.0,-50.0,-22.0,62.0,-1.0,-998.0,-73.0,-111.0
-259.0,-23.0,-48.0,-24.0,61.0,-3.0,-995.0,-67.0,-110.0
-259.0,-19.0,-52.0,-23.0,60.0,-2.0,-1001.0,-74.0,-114.0
-258.0,-22.0,-52.0,-23.0,59.0,-3.0,-1000.0,-66.0,-113.0
-261.0,-19.0,-54.0,-23.0,59.0,0.0,-999.0,-73.0,-114.0
-259.0,-20.0,-53.0,-24.0,61.0,-3.0,-998.0,-70.0,-111.0
-259.0,-20.0,-54.0,-24.0,62.0,0.0,-1004.0,-73.0,-112.0
-256.0,-23.0,-53.0,-22.0,61.0,-3.0,-995.0,-69.0,-107.0
-257.0,-22.0,-50.0,-20.0,63.0,-1.0,-1002.0,-73.0,-113.0
-257.0,-21.0,-49.0,-19.0,62.0,-3.0,-996.0,-70.0,-109.0
-258.0,-20.0,-52.0,-18.0,62.0,0.0,-1000.0,-74.0,-106.0
-257.0,-20.0,-53.0,-17.0,61.0,-3.0,-998.0,-72.0,-107.0
-260.0,-20.0,-51.0,-17.0,60.0,-1.0,-998.0,-69.0,-106.0
-260.0,-21.0,-53.0,-16.0,60.0,-3.0,-998.0,-71.0,-112.0
-261.0,-20.0,-53.0,-16.0,56.0,-1.0,-995.0,-68.0,-113.0
-257.0,-21.0,-52.0,-16.0,57.0,-3.0,-997.0,-70.0,-110.0
-260.0,-19.0,-54.0,-17.0,57.0,0.0,-995.0,-71.0,-115.0
-259.0,-22.0,-54.0,-18.0,55.0,-3.0,-1003.0,-74.0,-112.0
-256.0,-20.0,-52.0,-18.0,57.0,0.0,-1002.0,-74.0,-115.0
-258.0,-24.0,-51.0,-17.0,57.0,-2.0,-1002.0,-68.0,-117.0
-257.0,-20.0,-49.0,-16.0,57.0,1.0,-1002.0,-75.0,-108.0
-254.0,-20.0,-51.0,-16.0,56.0,-2.0,-1002.0,-69.0,-109.0
-260.0,-20.0,-52.0,-16.0,56.0,0.0,-1001.0,-67.0,-110.0
-259.0,-20.0,-49.0,-15.0,58.0,-2.0,-995.0,-73.0,-105.0
-258.0,-20.0,-52.0,-16.0,58.0,-1.0,-996.0,-67.0,-106.0
-257.0,-19.0,-51.0,-14.0,59.0,-1.0,-1002.0,-72.0,-111.0
-260.0,-19.0,-54.0,-15.0,57.0,1.0,-996.0,-74.0,-110.0
-259.0,-20.0,-51.0,-15.0,54.0,-2.0,-998.0,-70.0,-111.0
-257.0,-21.0,-49.0,-15.0,54.0,-1.0,-1004.0,-73.0,-107.0
-260.0,-20.0,-50.0,-15.0,51.0,-3.0,-1001.0,-71.0,-112.0
-261.0,-19.0,-51.0,-15.0,52.0,0.0,-996.0,-67.0,-109.0
-262.0,-19.0,-51.0,-14.0,52.0,-3.0,-1000.0,-72.0,-112.0
-256.0,-20.0,-50.0,-13.0,53.0,0.0,-1001.0,-64.0,-109.0
-259.0,-23.0,-53.0,-16.0,55.0,-3.0,-1001.0,-72.0,-110.0
-260.0,-22.0,-50.0,-15.0,56.0,-1.0,-1004.0,-71.0,-110.0
-258.0,-20.0,-52.0,-13.0,56.0,-3.0,-1003.0,-74.0,-107.0
-258.0,-20.0,-52.0,-11.0,56.0,-2.0,-999.0,-73.0,-109.0
-259.0,-22.0,-53.0,-11.0,55.0,-4.0,-997.0,-71.0,-110.0
-257.0,-20.0,-53.0,-8.0,54.0,-2.0,-1003.0,-64.0,-110.0
-260.0,-20.0,-50.0,-9.0,56.0,-4.0,-997.0,-68.0,-108.0
-261.0,-20.0,-49.0,-10.0,56.0,-3.0,-995.0,-74.0,-109.0
-259.0,-20.0,-51.0,-10.0,57.0,-5.0,-1000.0,-74.0,-107.0
-256.0,-20.0,-52.0,-10.0,53.0,-2.0,-1000.0,-74.0,-111.0
-258.0,-20.0,-52.0,-11.0,54.0,-5.0,-1000.0,-76.0,-112.0
-257.0,-20.0,-50.0,-11.0,56.0,-1.0,-997.0,-68.0,-107.0
-259.0,-20.0,-56.0,-11.0,56.0,-4.0,-1005.0,-70.0,-109.0
-258.0,-20.0,-50.0,-11.0,57.0,-1.0,-998.0,-68.0,-109.0
-259.0,-20.0,-53.0,-11.0,55.0,-3.0,-996.0,-71.0,-105.0
-261.0,-20.0,-48.0,-12.0,57.0,-2.0,-999.0,-74.0,-106.0
-259.0,-20.0,-51.0,-12.0,56.0,-3.0,-998.0,-74.0,-98.0
-259.0,-22.0,-52.0,-13.0,56.0,-1.0,-1000.0,-73.0,-110.0
-258.0,-19.0,-50.0,-13.0,56.0,-5.0,-999.0,-72.0,-109.0
-258.0,-21.0,-55.0,-12.0,56.0,-3.0,-1000.0,-71.0,-110.0
-259.0,-20.0,-53.0,-12.0,58.0,-5.0,-998.0,-67.0,-108.0
-263.0,-20.0,-54.0,-9.0,54.0,-2.0,-999.0,-72.0,-112.0
-257.0,-20.0,-50.0,-8.0,53.0,-5.0,-1002.0,-73.0,-112.0
-259.0,-19.0,-54.0,-6.0,54.0,-1.0,-995.0,-69.0,-111.0
-261.0,-20.0,-58.0,-4.0,54.0,-4.0,-998.0,-71.0,-115.0
-257.0,-22.0,-52.0,-5.0,56.0,-1.0,-1001.0,-71.0,-113.0
-256.0,-20.0,-52.0,-4.0,55.0,-4.0,-1000.0,-73.0,-119.0
-259.0,-20.0,-57.0,-2.0,55.0,-1.0,-996.0,-74.0,-113.0
-259.0,-20.0,-51.0,-2.0,55.0,-3.0,-1003.0,-73.0,-118.0
-260.0,-19.0,-56.0,-2.0,55.0,0.0,-1000.0,-76.0,-111.0
-257.0,-21.0,-55.0,-1.0,53.0,-3.0,-999.0,-68.0,-116.0
-256.0,-22.0,-54.0,-3.0,52.0,1.0,-998.0,-77.0,-108.0
-258.0,-18.0,-50.0,-4.0,50.0,-3.0,-997.0,-70.0,-106.0
-261.0,-20.0,-53.0,-7.0,49.0,-1.0,-1000.0,-78.0,-105.0
-260.0,-22.0,-51.0,-7.0,50.0,-3.0,-998.0,-77.0,-100.0
-257.0,-20.0,-48.0,-9.0,51.0,-2.0,-997.0,-83.0,-103.0
-259.0,-21.0,-53.0,-8.0,53.0,-3.0,-996.0,-77.0,-105.0
-261.0,-20.0,-54.0,-5.0,54.0,0.0,-996.0,-72.0,-112.0
-260.0,-21.0,-52.0,-3.0,54.0,-2.0,-996.0,-71.0,-113.0
-256.0,-23.0,-49.0,-3.0,53.0,0.0,-999.0,-73.0,-115.0
-260.0,-20.0,-54.0,-4.0,54.0,0.0,-996.0,-70.0,-113.0
-260.0,-19.0,-53.0,-5.0,53.0,2.0,-1001.0,-71.0,-111.0
-261.0,-20.0,-55.0,-6.0,53.0,0.0,-995.0,-76.0,-105.0
-258.0,-22.0,-52.0,-6.0,52.0,3.0,-995.0,-77.0,-104.0
-262.0,-20.0,-50.0,-6.0,51.0,1.0,-1003.0,-66.0,-100.0
-259.0,-20.0,-51.0,-6.0,50.0,2.0,-997.0,-70.0,-104.0
-258.0,-20.0,-52.0,-5.0,50.0,1.0,-999.0,-68.0,-101.0
-260.0,-21.0,-51.0,-5.0,49.0,2.0,-997.0,-74.0,-105.0
-257.0,-20.0,-51.0,-4.0,48.0,2.0,-994.0,-73.0,-105.0
-259.0,-20.0,-52.0,-5.0,51.0,4.0,-996.0,-73.0,-108.0
-257.0,-20.0,-49.0,-2.0,52.0,1.0,-1000.0,-74.0,-107.0
-257.0,-21.0,-54.0,-2.0,53.0,2.0,-997.0,-70.0,-109.0
-258.0,-20.0,-51.0,0.0,53.0,0.0,-999.0,-62.0,-109.0
-259.0,-20.0,-52.0,2.0,53.0,2.0,-999.0,-71.0,-113.0
-260.0,-19.0,-52.0,1.0,52.0,-1.0,-1001.0,-67.0,-105.0
-260.0,-19.0,-54.0,2.0,52.0,0.0,-1001.0,-66.0,-107.0
-259.0,-22.0,-49.0,2.0,52.0,0.0,-998.0,-59.0,-105.0
-260.0,-20.0,-49.0,3.0,51.0,-1.0,-995.0,-65.0,-110.0
-257.0,-20.0,-53.0,5.0,52.0,-2.0,-1004.0,-64.0,-108.0
-258.0,-20.0,-52.0,6.0,52.0,1.0,-997.0,-70.0,-107.0
-261.0,-20.0,-52.0,5.0,51.0,-1.0,-1000.0,-72.0,-107.0
-258.0,-21.0,-50.0,6.0,52.0,-2.0,-999.0,-67.0,-106.0
-258.0,-22.0,-52.0,5.0,54.0,-5.0,-1000.0,-72.0,-107.0
-258.0,-20.0,-51.0,4.0,54.0,-1.0,-997.0,-69.0,-108.0
-257.0,-22.0,-49.0,4.0,51.0,-3.0,-996.0,-70.0,-102.0
-258.0,-20.0,-51.0,5.0,50.0,-3.0,-993.0,-71.0,-105.0
-259.0,-20.0,-50.0,4.0,49.0,-4.0,-996.0,-68.0,-106.0
-259.0,-21.0,-55.0,4.0,48.0,-3.0,-997.0,-69.0,-103.0
-257.0,-22.0,-47.0,3.0,46.0,-3.0,-1002.0,-70.0,-103.0
-258.0,-22.0,-53.0,2.0,44.0,-2.0,-995.0,-69.0,-107.0
-258.0,-21.0,-52.0,0.0,42.0,-3.0,-996.0,-72.0,-110.0
-259.0,-20.0,-52.0,-1.0,42.0,-2.0,-998.0,-69.0,-108.0
-258.0,-22.0,-54.0,-4.0,43.0,-4.0,-997.0,-74.0,-109.0
-256.0,-21.0,-52.0,-4.0,43.0,0.0,-1006.0,-73.0,-107.0
-258.0,-23.0,-53.0,-6.0,44.0,-2.0,-1005.0,-74.0,-103.0
-259.0,-20.0,-49.0,-4.0,41.0,-2.0,-1000.0,-75.0,-109.0
-260.0,-22.0,-53.0,-1.0,41.0,-3.0,-1000.0,-75.0,-113.0
-257.0,-22.0,-53.0,2.0,42.0,-2.0,-997.0,-67.0,-109.0
-260.0,-20.0,-52.0,3.0,40.0,-2.0,-995.0,-69.0,-115.0
-260.0,-20.0,-54.0,4.0,36.0,-2.0,-998.0,-71.0,-114.0
-261.0,-20.0,-53.0,4.0,35.0,-4.0,-1002.0,-71.0,-110.0
-258.0,-18.0,-48.0,5.0,34.0,-2.0,-999.0,-76.0,-109.0
-259.0,-22.0,-53.0,3.0,33.0,-3.0,-998.0,-68.0,-106.0
-259.0,-21.0,-50.0,4.0,31.0,-3.0,-1000.0,-66.0,-107.0
-259.0,-20.0,-48.0,2.0,29.0,-4.0,-1001.0,-74.0,-99.0
-261.0,-20.0,-51.0,3.0,25.0,-3.0,-997.0,-76.0,-107.0
-261.0,-20.0,-53.0,2.0,25.0,-4.0,-999.0,-70.0,-108.0
-259.0,-20.0,-50.0,3.0,22.0,-3.0,-999.0,-76.0,-104.0
-262.0,-20.0,-49.0,2.0,21.0,-5.0,-1000.0,-81.0,-107.0
-256.0,-20.0,-52.0,3.0,22.0,-5.0,-997.0,-72.0,-109.0
-260.0,-22.0,-49.0,4.0,19.0,-6.0,-1001.0,-74.0,-107.0
-261.0,-20.0,-50.0,6.0,17.0,-5.0,-1000.0,-76.0,-111.0
-256.0,-21.0,-54.0,5.0,16.0,-5.0,-998.0,-76.0,-106.0
-259.0,-20.0,-50.0,6.0,17.0,-4.0,-1000.0,-74.0,-106.0
-259.0,-20.0,-50.0,8.0,17.0,-4.0,-1000.0,-73.0,-103.0
-258.0,-20.0,-50.0,7.0,15.0,-2.0,-997.0,-71.0,-100.0
-257.0,-20.0,-49.0,6.0,16.0,-2.0,-998.0,-70.0,-103.0
-258.0,-20.0,-50.0,4.0,14.0,-2.0,-1000.0,-69.0,-102.0
-260.0,-22.0,-51.0,3.0,13.0,-2.0,-997.0,-72.0,-101.0
-260.0,-20.0,-48.0,2.0,13.0,0.0,-999.0,-76.0,-97.0
-258.0,-20.0,-48.0,-1.0,12.0,-2.0,-1003.0,-71.0,-98.0
-261.0,-19.0,-47.0,1.0,10.0,-2.0,-1000.0,-73.0,-102.0
-260.0,-20.0,-47.0,3.0,9.0,-3.0,-998.0,-74.0,-94.0
-261.0,-19.0,-53.0,4.0,9.0,-2.0,-1008.0,-66.0,-95.0
-261.0,-19.0,-53.0,3.0,10.0,-6.0,-996.0,-63.0,-103.0
-260.0,-20.0,-51.0,2.0,12.0,-5.0,-1003.0,-70.0,-101.0
-260.0,-22.0,-45.0,2.0,11.0,-5.0,-1001.0,-73.0,-100.0
-262.0,-20.0,-49.0,1.0,12.0,-4.0,-1001.0,-69.0,-96.0
-259.0,-20.0,-47.0,2.0,13.0,-6.0,-1005.0,-71.0,-99.0
-260.0,-22.0,-53.0,4.0,12.0,-3.0,-1002.0,-74.0,-98.0
-259.0,-19.0,-49.0,2.0,12.0,-4.0,-1002.0,-66.0,-94.0
-261.0,-20.0,-44.0,1.0,12.0,-2.0,-1001.0,-69.0,-98.0
-255.0,-24.0,-48.0,-2.0,12.0,-2.0,-1004.0,-70.0,-95.0
-258.0,-22.0,-50.0,-2.0,13.0,-1.0,-1004.0,-79.0,-98.0
-261.0,-19.0,-47.0,-2.0,12.0,0.0,-1004.0,-72.0,-97.0
-256.0,-20.0,-50.0,-1.0,12.0,0.0,-999.0,-71.0,-100.0
-259.0,-19.0,-48.0,0.0,13.0,1.0,-1000.0,-68.0,-99.0
-257.0,-20.0,-48.0,0.0,13.0,2.0,-999.0,-77.0,-97.0
-259.0,-20.0,-47.0,0.0,13.0,2.0,-996.0,-73.0,-97.0
-259.0,-20.0,-48.0,-2.0,14.0,1.0,-996.0,-68.0,-96.0
-258.0,-20.0,-44.0,-4.0,15.0,1.0,-994.0,-70.0,-91.0
-259.0,-20.0,-50.0,-3.0,15.0,0.0,-995.0,-69.0,-90.0
-260.0,-19.0,-48.0,-4.0,14.0,1.0,-996.0,-72.0,-92.0
-259.0,-20.0,-48.0,-3.0,16.0,1.0,-999.0,-65.0,-92.0
-257.0,-20.0,-51.0,-4.0,15.0,2.0,-1000.0,-64.0,-90.0
-261.0,-20.0,-45.0,-5.0,17.0,0.0,-994.0,-67.0,-90.0
-258.0,-20.0,-51.0,-6.0,21.0,2.0,-1000.0,-66.0,-91.0
-259.0,-21.0,-47.0,-5.0,23.0,2.0,-1002.0,-70.0,-90.0
-259.0,-22.0,-46.0,-6.0,26.0,1.0,-1003.0,-67.0,-87.0
-261.0,-23.0,-45.0,-7.0,26.0,-1.0,-1000.0,-71.0,-85.0
-259.0,-20.0,-50.0,-5.0,28.0,-2.0,-999.0,-69.0,-88.0
-259.0,-19.0,-43.0,-3.0,32.0,-3.0,-999.0,-69.0,-87.0
-263.0,-20.0,-44.0,-1.0,34.0,-5.0,-1000.0,-68.0,-90.0
-257.0,-20.0,-46.0,-1.0,37.0,-5.0,-997.0,-71.0,-86.0
-259.0,-20.0,-45.0,-1.0,39.0,-6.0,-998.0,-64.0,-82.0
-257.0,-20.0,-42.0,-2.0,41.0,-7.0,-1002.0,-69.0,-83.0
-259.0,-20.0,-44.0,-3.0,43.0,-7.0,-997.0,-73.0,-82.0
-258.0,-23.0,-48.0,-3.0,44.0,-7.0,-996.0,-62.0,-85.0
-259.0,-20.0,-47.0,-7.0,46.0,-7.0,-1001.0,-68.0,-84.0
-258.0,-20.0,-49.0,-9.0,47.0,-7.0,-1001.0,-69.0,-79.0
-260.0,-20.0,-42.0,-10.0,48.0,-7.0,-998.0,-69.0,-85.0
-257.0,-22.0,-44.0,-11.0,49.0,-8.0,-998.0,-70.0,-81.0
-259.0,-20.0,-43.0,-11.0,50.0,-9.0,-1004.0,-75.0,-87.0
-260.0,-22.0,-45.0,-14.0,51.0,-9.0,-1000.0,-73.0,-83.0
-260.0,-20.0,-44.0,-11.0,52.0,-10.0,-999.0,-76.0,-84.0
-259.0,-23.0,-45.0,-14.0,55.0,-10.0,-998.0,-77.0,-84.0
-260.0,-19.0,-49.0,-14.0,57.0,-10.0,-998.0,-71.0,-83.0
-259.0,-20.0,-48.0,-13.0,57.0,-10.0,-995.0,-76.0,-88.0
-259.0,-20.0,-49.0,-14.0,59.0,-8.0,-1004.0,-78.0,-91.0
-262.0,-22.0,-46.0,-15.0,62.0,-7.0,-1004.0,-76.0,-90.0
-260.0,-21.0,-46.0,-13.0,64.0,-7.0,-1004.0,-76.0,-89.0
-260.0,-21.0,-47.0,-13.0,64.0,-6.0,-1001.0,-77.0,-88.0
-259.0,-21.0,-48.0,-14.0,65.0,-6.0,-998.0,-80.0,-90.0
-257.0,-20.0,-44.0,-15.0,65.0,-5.0,-999.0,-79.0,-92.0
-257.0,-20.0,-45.0,-15.0,65.0,-4.0,-997.0,-79.0,-87.0
-257.0,-20.0,-46.0,-14.0,65.0,-4.0,-998.0,-71.0,-87.0
-256.0,-20.0,-47.0,-12.0,65.0,-4.0,-994.0,-73.0,-85.0
-256.0,-24.0,-47.0,-11.0,65.0,-4.0,-995.0,-74.0,-91.0
-259.0,-21.0,-44.0,-13.0,67.0,-3.0,-999.0,-79.0,-91.0
-258.0,-24.0,-44.0,-13.0,68.0,-2.0,-1001.0,-74.0,-88.0
-258.0,-20.0,-43.0,-15.0,69.0,-1.0,-1002.0,-81.0,-89.0
-262.0,-20.0,-49.0,-14.0,71.0,-1.0,-998.0,-75.0,-90.0
-257.0,-22.0,-51.0,-15.0,73.0,-1.0,-997.0,-77.0,-89.0
-259.0,-21.0,-45.0,-16.0,74.0,0.0,-999.0,-78.0,-92.0
-258.0,-21.0,-48.0,-15.0,77.0,2.0,-995.0,-76.0,-88.0
-260.0,-20.0,-50.0,-12.0,78.0,2.0,-998.0,-76.0,-87.0
-261.0,-23.0,-42.0,-9.0,77.0,4.0,-1007.0,-74.0,-87.0
-260.0,-20.0,-48.0,-9.0,78.0,2.0,-1001.0,-69.0,-92.0
-260.0,-21.0,-45.0,-8.0,81.0,3.0,-999.0,-74.0,-90.0
-258.0,-20.0,-45.0,-7.0,81.0,3.0,-1002.0,-70.0,-92.0
-257.0,-19.0,-44.0,-8.0,81.0,4.0,-1002.0,-65.0,-96.0
-261.0,-20.0,-46.0,-9.0,83.0,4.0,-1001.0,-71.0,-90.0
-258.0,-23.0,-42.0,-9.0,85.0,3.0,-1001.0,-68.0,-87.0
-261.0,-20.0,-44.0,-11.0,86.0,4.0,-1001.0,-73.0,-92.0
-259.0,-21.0,-43.0,-11.0,85.0,4.0,-1001.0,-73.0,-91.0
-261.0,-20.0,-48.0,-10.0,87.0,3.0,-1002.0,-65.0,-89.0
-260.0,-19.0,-46.0,-11.0,88.0,3.0,-995.0,-68.0,-93.0
-260.0,-19.0,-47.0,-13.0,87.0,2.0,-1000.0,-65.0,-91.0
-258.0,-23.0,-46.0,-14.0,85.0,3.0,-1003.0,-66.0,-93.0
-261.0,-20.0,-50.0,-14.0,85.0,3.0,-1007.0,-66.0,-90.0
-257.0,-20.0,-46.0,-15.0,85.0,3.0,-997.0,-66.0,-95.0
-261.0,-20.0,-47.0,-13.0,84.0,2.0,-1003.0,-62.0,-93.0
-261.0,-20.0,-47.0,-13.0,86.0,2.0,-1001.0,-70.0,-100.0
-260.0,-20.0,-49.0,-12.0,87.0,1.0,-1001.0,-75.0,-101.0
-261.0,-23.0,-46.0,-10.0,89.0,2.0,-1001.0,-76.0,-91.0
-259.0,-20.0,-49.0,-8.0,90.0,0.0,-1004.0,-70.0,-93.0
-261.0,-22.0,-46.0,-6.0,89.0,-1.0,-1004.0,-74.0,-96.0
-260.0,-23.0,-46.0,-9.0,89.0,-3.0,-1001.0,-69.0,-92.0
-258.0,-20.0,-45.0,-10.0,86.0,-3.0,-999.0,-73.0,-91.0
-261.0,-20.0,-52.0,-12.0,83.0,-2.0,-1000.0,-72.0,-90.0
-259.0,-21.0,-46.0,-16.0,81.0,-4.0,-999.0,-71.0,-92.0
-260.0,-21.0,-51.0,-17.0,79.0,-3.0,-1001.0,-76.0,-96.0
-259.0,-22.0,-50.0,-17.0,77.0,-3.0,-1001.0,-76.0,-98.0
-260.0,-20.0,-47.0,-15.0,77.0,-3.0,-1004.0,-73.0,-106.0
-259.0,-22.0,-51.0,-12.0,76.0,-3.0,-999.0,-75.0,-112.0
-261.0,-20.0,-50.0,-13.0,74.0,-4.0,-1003.0,-74.0,-106.0
-259.0,-20.0,-51.0,-13.0,75.0,-3.0,-1006.0,-73.0,-109.0
-260.0,-22.0,-53.0,-15.0,73.0,-2.0,-1006.0,-79.0,-102.0
-259.0,-20.0,-49.0,-14.0,73.0,-1.0,-998.0,-78.0,-98.0
-258.0,-20.0,-53.0,-15.0,72.0,-1.0,-1000.0,-69.0,-99.0
-260.0,-22.0,-48.0,-16.0,71.0,1.0,-1004.0,-74.0,-97.0
-258.0,-20.0,-49.0,-16.0,69.0,-1.0,-1000.0,-71.0,-91.0
-260.0,-22.0,-46.0,-16.0,67.0,0.0,-1000.0,-76.0,-92.0
-259.0,-20.0,-54.0,-16.0,65.0,0.0,-1006.0,-69.0,-92.0
-261.0,-20.0,-47.0,-15.0,63.0,0.0,-1004.0,-70.0,-99.0
-261.0,-20.0,-52.0,-14.0,64.0,-2.0,-1003.0,-69.0,-98.0
-259.0,-20.0,-51.0,-12.0,62.0,-1.0,-1000.0,-72.0,-98.0
-262.0,-19.0,-53.0,-13.0,63.0,-2.0,-1003.0,-70.0,-100.0
-258.0,-23.0,-50.0,-12.0,63.0,0.0,-999.0,-73.0,-101.0
-259.0,-19.0,-46.0,-12.0,62.0,-2.0,-1004.0,-72.0,-102.0
-260.0,-22.0,-46.0,-12.0,59.0,0.0,-1003.0,-70.0,-99.0
-260.0,-20.0,-54.0,-10.0,57.0,-3.0,-1006.0,-70.0,-104.0
-261.0,-20.0,-48.0,-8.0,55.0,-1.0,-1003.0,-75.0,-105.0
-259.0,-20.0,-48.0,-7.0,55.0,-3.0,-1001.0,-70.0,-99.0
-262.0,-21.0,-46.0,-6.0,53.0,-1.0,-1001.0,-74.0,-96.0
-259.0,-20.0,-50.0,-4.0,51.0,-4.0,-999.0,-70.0,-99.0
-261.0,-22.0,-50.0,-3.0,50.0,-2.0,-999.0,-66.0,-98.0
-260.0,-21.0,-50.0,-6.0,50.0,-3.0,-999.0,-66.0,-100.0
-257.0,-20.0,-46.0,-6.0,48.0,-1.0,-1001.0,-68.0,-99.0
-259.0,-20.0,-52.0,-7.0,47.0,-4.0,-996.0,-69.0,-96.0
-260.0,-20.0,-46.0,-8.0,45.0,-4.0,-1000.0,-72.0,-97.0
-259.0,-21.0,-50.0,-7.0,43.0,-5.0,-1003.0,-64.0,-94.0
-260.0,-20.0,-48.0,-7.0,42.0,-4.0,-998.0,-64.0,-93.0
-257.0,-19.0,-52.0,-9.0,40.0,-6.0,-1001.0,-64.0,-103.0
-257.0,-20.0,-46.0,-11.0,41.0,-4.0,-1001.0,-74.0,-98.0
-258.0,-22.0,-49.0,-12.0,42.0,-6.0,-999.0,-72.0,-98.0
-259.0,-20.0,-50.0,-11.0,41.0,-4.0,-1000.0,-78.0,-97.0
-259.0,-22.0,-46.0,-13.0,41.0,-7.0,-1003.0,-69.0,-95.0
-260.0,-20.0,-52.0,-12.0,40.0,-6.0,-998.0,-70.0,-97.0
-258.0,-20.0,-45.0,-12.0,39.0,-7.0,-1004.0,-76.0,-95.0
-257.0,-20.0,-49.0,-10.0,41.0,-5.0,-1000.0,-72.0,-95.0
-258.0,-20.0,-46.0,-9.0,39.0,-5.0,-1001.0,-74.0,-91.0
-261.0,-21.0,-47.0,-12.0,38.0,-5.0,-1003.0,-74.0,-97.0
-258.0,-23.0,-51.0,-12.0,38.0,-7.0,-1001.0,-75.0,-89.0
-258.0,-20.0,-52.0,-13.0,36.0,-5.0,-998.0,-73.0,-93.0
-257.0,-23.0,-49.0,-13.0,37.0,-5.0,-1002.0,-71.0,-93.0
-260.0,-21.0,-48.0,-12.0,38.0,-5.0,-1003.0,-67.0,-96.0
-261.0,-20.0,-50.0,-12.0,38.0,-7.0,-996.0,-75.0,-95.0
-257.0,-20.0,-48.0,-13.0,38.0,-6.0,-999.0,-69.0,-92.0
-259.0,-21.0,-45.0,-11.0,38.0,-7.0,-999.0,-70.0,-89.0
-260.0,-19.0,-47.0,-11.0,38.0,-6.0,-999.0,-69.0,-93.0
-260.0,-20.0,-46.0,-12.0,36.0,-8.0,-1001.0,-69.0,-92.0
-256.0,-20.0,-48.0,-13.0,37.0,-7.0,-998.0,-73.0,-94.0
-259.0,-22.0,-50.0,-12.0,39.0,-8.0,-1000.0,-73.0,-91.0
-259.0,-23.0,-45.0,-12.0,39.0,-6.0,-998.0,-70.0,-93.0
-258.0,-21.0,-47.0,-11.0,39.0,-9.0,-997.0,-72.0,-95.0
-256.0,-25.0,-44.0,-11.0,41.0,-7.0,-1001.0,-77.0,-90.0
-257.0,-22.0,-49.0,-10.0,40.0,-8.0,-1000.0,-78.0,-90.0
-261.0,-20.0,-47.0,-9.0,41.0,-5.0,-1000.0,-73.0,-90.0
-256.0,-20.0,-50.0,-8.0,42.0,-6.0,-1007.0,-68.0,-89.0
-256.0,-20.0,-50.0,-10.0,43.0,-4.0,-997.0,-73.0,-90.0
-261.0,-20.0,-46.0,-12.0,42.0,-4.0,-1000.0,-76.0,-88.0
-260.0,-20.0,-46.0,-13.0,42.0,-3.0,-999.0,-80.0,-93.0
-260.0,-22.0,-44.0,-14.0,44.0,-3.0,-1001.0,-72.0,-85.0
-263.0,-20.0,-46.0,-14.0,43.0,-1.0,-1006.0,-73.0,-87.0
-258.0,-21.0,-42.0,-12.0,43.0,-4.0,-999.0,-74.0,-86.0
-259.0,-22.0,-47.0,-13.0,44.0,-1.0,-1000.0,-76.0,-85.0
-257.0,-20.0,-46.0,-12.0,43.0,-2.0,-996.0,-75.0,-88.0
-257.0,-21.0,-45.0,-13.0,43.0,0.0,-1001.0,-70.0,-90.0
-260.0,-20.0,-47.0,-13.0,45.0,-2.0,-1005.0,-69.0,-87.0
-260.0,-20.0,-46.0,-14.0,47.0,-1.0,-1001.0,-73.0,-88.0
-255.0,-21.0,-49.0,-13.0,47.0,-2.0,-997.0,-72.0,-89.0
-260.0,-20.0,-41.0,-13.0,49.0,-1.0,-998.0,-71.0,-87.0
-262.0,-19.0,-46.0,-12.0,50.0,-3.0,-1001.0,-70.0,-89.0
-259.0,-20.0,-45.0,-13.0,51.0,0.0,-1002.0,-72.0,-87.0
-256.0,-20.0,-49.0,-12.0,54.0,-2.0,-995.0,-74.0,-87.0
-257.0,-19.0,-47.0,-12.0,55.0,-1.0,-1000.0,-74.0,-84.0
-246.0,-22.0,-49.0,-10.0,56.0,-3.0,-1000.0,-73.0,-90.0
-257.0,-22.0,-46.0,-11.0,58.0,-1.0,-1000.0,-70.0,-84.0
-259.0,-20.0,-44.0,-11.0,61.0,-3.0,-998.0,-72.0,-89.0
-258.0,-20.0,-46.0,-11.0,63.0,-2.0,-1001.0,-74.0,-81.0
-257.0,-20.0,-43.0,-12.0,64.0,-3.0,-999.0,-71.0,-83.0
-261.0,-20.0,-45.0,-12.0,64.0,-3.0,-1000.0,-76.0,-86.0
-262.0,-20.0,-42.0,-12.0,65.0,-3.0,-999.0,-67.0,-91.0
-261.0,-20.0,-43.0,-12.0,66.0,-1.0,-1001.0,-74.0,-89.0
-256.0,-22.0,-42.0,-13.0,65.0,-2.0,-999.0,-67.0,-94.0
-260.0,-23.0,-47.0,-14.0,66.0,-1.0,-999.0,-74.0,-92.0
-258.0,-21.0,-47.0,-13.0,67.0,-2.0,-1001.0,-75.0,-89.0
-259.0,-21.0,-50.0,-13.0,68.0,0.0,-1005.0,-73.0,-94.0
-259.0,-22.0,-50.0,-13.0,67.0,-2.0,-999.0,-75.0,-92.0
-258.0,-20.0,-50.0,-13.0,67.0,0.0,-997.0,-76.0,-90.0
