acc1_x,acc1_y,acc1_z,gyro_x,gyro_y,gyro_z,acc2_x,acc2_y,acc2_z
-22.0,-266.0,39.0,-7.0,60.0,-5.0,-118.0,-995.0,258.0
-24.0,-259.0,39.0,-8.0,60.0,-3.0,-112.0,-997.0,259.0
-24.0,-263.0,41.0,-9.0,60.0,-5.0,-112.0,-996.0,260.0
-23.0,-261.0,43.0,-9.0,62.0,-4.0,-113.0,-994.0,259.0
-24.0,-260.0,41.0,-10.0,61.0,-7.0,-114.0,-995.0,259.0
-27.0,-259.0,37.0,-11.0,61.0,-4.0,-108.0,-995.0,265.0
-23.0,-263.0,40.0,-11.0,60.0,-6.0,-111.0,-993.0,257.0
-24.0,-261.0,43.0,-10.0,60.0,-5.0,-114.0,-993.0,259.0
-23.0,-263.0,38.0,-12.0,59.0,-6.0,-107.0,-992.0,254.0
-22.0,-263.0,44.0,-11.0,59.0,-5.0,-109.0,-999.0,258.0
-27.0,-263.0,43.0,-11.0,58.0,-7.0,-111.0,-1000.0,257.0
-23.0,-265.0,41.0,-13.0,57.0,-5.0,-114.0,-997.0,257.0
-22.0,-262.0,40.0,-12.0,56.0,-7.0,-108.0,-995.0,255.0
-22.0,-262.0,42.0,-11.0,57.0,-5.0,-110.0,-999.0,256.0
-21.0,-264.0,40.0,-12.0,57.0,-7.0,-107.0,-998.0,257.0
-24.0,-261.0,39.0,-12.0,57.0,-5.0,-107.0,-998.0,258.0
-24.0,-263.0,40.0,-11.0,54.0,-7.0,-113.0,-998.0,260.0
-25.0,-263.0,40.0,-10.0,57.0,-5.0,-109.0,-1000.0,255.0
-20.0,-263.0,41.0,-10.0,56.0,-7.0,-112.0,-992.0,258.0
-23.0,-261.0,42.0,-10.0,57.0,-7.0,-110.0,-998.0,256.0
-24.0,-260.0,41.0,-10.0,57.0,-7.0,-110.0,-992.0,258.0
-23.0,-264.0,44.0,-10.0,57.0,-6.0,-113.0,-1001.0,252.0
-35.0,-257.0,50.0,-11.0,59.0,-9.0,-108.0,-993.0,261.0
-28.0,-260.0,43.0,-11.0,59.0,-7.0,-109.0,-994.0,257.0
-22.0,-260.0,35.0,-12.0,58.0,-10.0,-112.0,-992.0,258.0
-21.0,-255.0,41.0,-11.0,57.0,-7.0,-106.0,-1004.0,262.0
-17.0,-266.0,38.0,-12.0,57.0,-10.0,-110.0,-994.0,261.0
-28.0,-267.0,28.0,-12.0,57.0,-7.0,-108.0,-1000.0,261.0
-43.0,-262.0,37.0,-12.0,58.0,-8.0,-108.0,-998.0,264.0
-31.0,-268.0,37.0,-14.0,57.0,-8.0,-110.0,-1001.0,265.0
-16.0,-262.0,43.0,-14.0,58.0,-6.0,-107.0,-1002.0,262.0
-20.0,-252.0,54.0,-13.0,59.0,-5.0,-108.0,-991.0,262.0
-17.0,-259.0,44.0,-12.0,60.0,-6.0,-106.0,-997.0,259.0
-21.0,-256.0,48.0,-12.0,59.0,-6.0,-109.0,-993.0,261.0
-24.0,-259.0,50.0,-12.0,58.0,-7.0,-107.0,-993.0,263.0
-22.0,-257.0,55.0,-14.0,57.0,-6.0,-102.0,-997.0,261.0
-18.0,-266.0,49.0,-14.0,57.0,-6.0,-106.0,-995.0,261.0
-32.0,-260.0,40.0,-13.0,58.0,-6.0,-105.0,-994.0,257.0
-25.0,-269.0,39.0,-14.0,57.0,-7.0,-109.0,-995.0,261.0
-19.0,-256.0,34.0,-15.0,59.0,-5.0,-106.0,-992.0,267.0
-24.0,-261.0,43.0,-15.0,58.0,-6.0,-108.0,-998.0,262.0
-23.0,-260.0,44.0,-17.0,58.0,-5.0,-107.0,-990.0,261.0
-23.0,-267.0,46.0,-18.0,57.0,-8.0,-103.0,-998.0,257.0
-22.0,-262.0,40.0,-19.0,57.0,-7.0,-106.0,-994.0,259.0
-22.0,-262.0,44.0,-19.0,58.0,-8.0,-105.0,-999.0,258.0
-23.0,-259.0,43.0,-20.0,58.0,-6.0,-106.0,-996.0,261.0
-22.0,-262.0,40.0,-20.0,58.0,-8.0,-110.0,-994.0,255.0
-21.0,-262.0,41.0,-20.0,58.0,-6.0,-109.0,-996.0,256.0
-23.0,-261.0,41.0,-21.0,58.0,-7.0,-108.0,-988.0,256.0
-22.0,-264.0,36.0,-21.0,58.0,-6.0,-107.0,-1001.0,259.0
-23.0,-260.0,42.0,-21.0,60.0,-7.0,-109.0,-998.0,260.0
-23.0,-261.0,39.0,-22.0,59.0,-5.0,-108.0,-994.0,257.0
-25.0,-261.0,45.0,-22.0,61.0,-7.0,-108.0,-996.0,260.0
-21.0,-265.0,40.0,-22.0,61.0,-5.0,-106.0,-992.0,258.0
-25.0,-260.0,43.0,-25.0,60.0,-8.0,-104.0,-996.0,257.0
-21.0,-261.0,44.0,-25.0,59.0,-7.0,-103.0,-993.0,263.0
-20.0,-261.0,37.0,-25.0,59.0,-8.0,-104.0,-992.0,257.0
-20.0,-259.0,41.0,-27.0,60.0,-6.0,-106.0,-994.0,256.0
-23.0,-259.0,39.0,-29.0,61.0,-9.0,-106.0,-999.0,259.0
-22.0,-261.0,42.0,-29.0,59.0,-8.0,-109.0,-993.0,258.0
-25.0,-262.0,43.0,-33.0,59.0,-11.0,-111.0,-998.0,262.0
-21.0,-262.0,36.0,-33.0,60.0,-9.0,-106.0,-996.0,256.0
-25.0,-260.0,41.0,-33.0,59.0,-11.0,-108.0,-999.0,258.0
-22.0,-261.0,43.0,-33.0,58.0,-8.0,-109.0,-1004.0,263.0
-22.0,-262.0,42.0,-34.0,58.0,-10.0,-111.0,-997.0,253.0
-25.0,-263.0,40.0,-36.0,56.0,-8.0,-112.0,-995.0,258.0
-24.0,-262.0,38.0,-34.0,54.0,-11.0,-111.0,-999.0,259.0
-25.0,-261.0,41.0,-32.0,55.0,-9.0,-110.0,-989.0,258.0
-25.0,-263.0,38.0,-32.0,57.0,-11.0,-108.0,-996.0,257.0
-26.0,-260.0,39.0,-33.0,57.0,-10.0,-109.0,-992.0,255.0
-20.0,-262.0,39.0,-35.0,58.0,-12.0,-107.0,-997.0,259.0
-23.0,-261.0,36.0,-37.0,58.0,-11.0,-103.0,-999.0,257.0
-22.0,-260.0,40.0,-39.0,57.0,-13.0,-104.0,-998.0,258.0
-23.0,-258.0,40.0,-39.0,58.0,-11.0,-111.0,-997.0,255.0
-24.0,-263.0,44.0,-41.0,58.0,-13.0,-108.0,-1000.0,257.0
-23.0,-261.0,38.0,-43.0,57.0,-9.0,-110.0,-1000.0,260.0
-23.0,-262.0,40.0,-43.0,57.0,-12.0,-110.0,-999.0,258.0
-26.0,-260.0,40.0,-41.0,58.0,-9.0,-107.0,-997.0,256.0
-22.0,-263.0,40.0,-39.0,58.0,-10.0,-109.0,-1000.0,256.0
-25.0,-262.0,42.0,-37.0,58.0,-6.0,-109.0,-1002.0,258.0
-21.0,-265.0,44.0,-33.0,60.0,-7.0,-109.0,-1007.0,260.0
-25.0,-263.0,42.0,-31.0,62.0,-4.0,-113.0,-1000.0,261.0
-21.0,-264.0,41.0,-27.0,63.0,-5.0,-107.0,-1006.0,257.0
-21.0,-267.0,42.0,-23.0,63.0,0.0,-108.0,-1002.0,258.0
-23.0,-266.0,39.0,-19.0,63.0,-2.0,-106.0,-1005.0,258.0
-24.0,-263.0,40.0,-16.0,63.0,-1.0,-108.0,-1003.0,250.0
-23.0,-263.0,40.0,-15.0,63.0,-4.0,-109.0,-1002.0,251.0
-25.0,-263.0,39.0,-15.0,63.0,-2.0,-112.0,-994.0,256.0
-22.0,-262.0,41.0,-15.0,64.0,-4.0,-111.0,-997.0,258.0
-20.0,-263.0,40.0,-17.0,65.0,-2.0,-117.0,-1001.0,252.0
-22.0,-261.0,42.0,-18.0,65.0,-4.0,-107.0,-1002.0,261.0
-24.0,-261.0,39.0,-18.0,67.0,-2.0,-106.0,-1001.0,259.0
-21.0,-258.0,45.0,-19.0,66.0,-5.0,-106.0,-991.0,263.0
-23.0,-261.0,43.0,-19.0,66.0,-3.0,-106.0,-997.0,259.0
-20.0,-261.0,42.0,-19.0,66.0,-5.0,-103.0,-989.0,259.0
-24.0,-259.0,39.0,-21.0,66.0,-3.0,-102.0,-991.0,260.0
-21.0,-259.0,42.0,-24.0,65.0,-5.0,-102.0,-989.0,258.0
-22.0,-262.0,40.0,-25.0,63.0,-2.0,-100.0,-993.0,255.0
-21.0,-261.0,45.0,-27.0,62.0,-6.0,-105.0,-995.0,262.0
-20.0,-265.0,40.0,-29.0,61.0,-4.0,-106.0,-998.0,257.0
-21.0,-262.0,44.0,-31.0,59.0,-7.0,-105.0,-988.0,251.0
-23.0,-262.0,40.0,-31.0,59.0,-4.0,-103.0,-993.0,256.0
-23.0,-259.0,44.0,-32.0,60.0,-6.0,-105.0,-996.0,255.0
-23.0,-262.0,40.0,-33.0,57.0,-3.0,-106.0,-999.0,253.0
-22.0,-262.0,43.0,-31.0,57.0,-5.0,-100.0,-995.0,256.0
-23.0,-261.0,43.0,-31.0,56.0,-2.0,-102.0,-1000.0,256.0
-25.0,-262.0,42.0,-31.0,56.0,-4.0,-106.0,-999.0,253.0
-21.0,-263.0,40.0,-31.0,56.0,-1.0,-105.0,-1002.0,248.0
-23.0,-263.0,39.0,-31.0,55.0,-5.0,-108.0,-1005.0,252.0
-20.0,-263.0,39.0,-31.0,56.0,-2.0,-109.0,-1001.0,247.0
-26.0,-261.0,35.0,-33.0,53.0,-4.0,-105.0,-1005.0,251.0
-21.0,-263.0,37.0,-33.0,54.0,-2.0,-109.0,-1002.0,250.0
-23.0,-262.0,39.0,-33.0,52.0,-3.0,-106.0,-993.0,249.0
-22.0,-261.0,38.0,-34.0,51.0,-2.0,-102.0,-1003.0,248.0
-24.0,-264.0,40.0,-34.0,50.0,-4.0,-104.0,-996.0,249.0
-24.0,-262.0,40.0,-34.0,50.0,-2.0,-103.0,-1000.0,243.0
-20.0,-263.0,41.0,-34.0,48.0,-3.0,-109.0,-1001.0,244.0
-18.0,-262.0,37.0,-31.0,48.0,0.0,-107.0,-993.0,242.0
-23.0,-262.0,39.0,-31.0,47.0,-2.0,-109.0,-1003.0,245.0
-23.0,-263.0,39.0,-31.0,47.0,0.0,-111.0,-1004.0,248.0
-25.0,-261.0,35.0,-30.0,48.0,-2.0,-99.0,-1002.0,250.0
-25.0,-263.0,42.0,-28.0,47.0,1.0,-112.0,-1000.0,251.0
-25.0,-263.0,38.0,-27.0,47.0,-3.0,-109.0,-1001.0,243.0
-23.0,-262.0,42.0,-25.0,47.0,-1.0,-106.0,-1004.0,243.0
-23.0,-265.0,41.0,-24.0,47.0,-4.0,-109.0,-997.0,244.0
-23.0,-263.0,41.0,-23.0,48.0,-4.0,-108.0,-1001.0,243.0
-23.0,-263.0,40.0,-25.0,48.0,-6.0,-106.0,-997.0,248.0
-23.0,-262.0,39.0,-25.0,48.0,-5.0,-103.0,-996.0,247.0
-23.0,-262.0,40.0,-26.0,48.0,-8.0,-108.0,-1007.0,249.0
-24.0,-262.0,40.0,-26.0,48.0,-6.0,-106.0,-1000.0,249.0
-24.0,-263.0,40.0,-25.0,49.0,-9.0,-107.0,-1001.0,249.0
-22.0,-264.0,40.0,-24.0,49.0,-6.0,-103.0,-999.0,250.0
-22.0,-261.0,37.0,-23.0,50.0,-7.0,-105.0,-1001.0,247.0
-22.0,-261.0,37.0,-22.0,51.0,-5.0,-103.0,-1004.0,247.0
-22.0,-263.0,39.0,-21.0,50.0,-6.0,-105.0,-999.0,247.0
-23.0,-261.0,41.0,-18.0,52.0,-3.0,-106.0,-1002.0,247.0
-21.0,-264.0,39.0,-18.0,53.0,-5.0,-105.0,-998.0,249.0
-22.0,-261.0,37.0,-19.0,54.0,-3.0,-107.0,-993.0,246.0
-22.0,-264.0,36.0,-19.0,53.0,-5.0,-103.0,-997.0,247.0
-21.0,-262.0,38.0,-18.0,53.0,-4.0,-109.0,-995.0,244.0
-22.0,-263.0,38.0,-19.0,55.0,-6.0,-102.0,-993.0,245.0
-21.0,-262.0,40.0,-18.0,56.0,-5.0,-106.0,-999.0,248.0
-22.0,-260.0,41.0,-18.0,56.0,-7.0,-105.0,-1003.0,250.0
-20.0,-261.0,36.0,-18.0,57.0,-5.0,-108.0,-997.0,247.0
-20.0,-262.0,38.0,-20.0,56.0,-8.0,-107.0,-993.0,249.0
-23.0,-264.0,42.0,-20.0,57.0,-6.0,-107.0,-994.0,247.0
-22.0,-261.0,40.0,-21.0,57.0,-9.0,-107.0,-998.0,247.0
-24.0,-261.0,38.0,-23.0,56.0,-7.0,-109.0,-991.0,248.0
-26.0,-259.0,37.0,-24.0,56.0,-9.0,-107.0,-1001.0,248.0
-25.0,-263.0,41.0,-25.0,54.0,-9.0,-111.0,-995.0,248.0
-24.0,-263.0,39.0,-26.0,54.0,-10.0,-110.0,-1000.0,248.0
-24.0,-261.0,40.0,-29.0,54.0,-7.0,-106.0,-999.0,248.0
-21.0,-262.0,40.0,-27.0,55.0,-11.0,-111.0,-1004.0,251.0
-24.0,-261.0,35.0,-29.0,55.0,-9.0,-110.0,-994.0,247.0
-23.0,-261.0,36.0,-30.0,54.0,-11.0,-110.0,-994.0,251.0
-25.0,-263.0,38.0,-32.0,55.0,-8.0,-108.0,-999.0,252.0
-21.0,-262.0,42.0,-33.0,57.0,-11.0,-108.0,-1000.0,251.0
-23.0,-262.0,41.0,-33.0,57.0,-8.0,-110.0,-1001.0,248.0
-22.0,-263.0,42.0,-32.0,58.0,-12.0,-109.0,-1005.0,255.0
-21.0,-263.0,42.0,-33.0,59.0,-10.0,-108.0,-1002.0,255.0
-24.0,-263.0,41.0,-33.0,60.0,-12.0,-101.0,-1000.0,254.0
-21.0,-262.0,45.0,-32.0,60.0,-10.0,-105.0,-1003.0,251.0
-21.0,-264.0,38.0,-32.0,59.0,-12.0,-108.0,-1005.0,255.0
-22.0,-262.0,39.0,-32.0,60.0,-9.0,-103.0,-998.0,253.0
-22.0,-261.0,40.0,-31.0,59.0,-12.0,-109.0,-997.0,253.0
-19.0,-266.0,42.0,-32.0,61.0,-10.0,-106.0,-1002.0,255.0
-22.0,-261.0,41.0,-32.0,62.0,-12.0,-101.0,-1006.0,254.0
-19.0,-263.0,41.0,-33.0,60.0,-9.0,-101.0,-1003.0,256.0
-22.0,-264.0,40.0,-32.0,61.0,-12.0,-102.0,-1006.0,258.0
-23.0,-264.0,39.0,-31.0,61.0,-10.0,-100.0,-1004.0,256.0
-22.0,-263.0,40.0,-31.0,60.0,-11.0,-102.0,-1002.0,250.0
-22.0,-260.0,39.0,-30.0,60.0,-9.0,-99.0,-1002.0,257.0
-20.0,-264.0,38.0,-27.0,58.0,-11.0,-103.0,-1005.0,250.0
-22.0,-264.0,42.0,-27.0,59.0,-10.0,-102.0,-1005.0,252.0
-21.0,-263.0,41.0,-25.0,58.0,-11.0,-99.0,-1005.0,253.0
-23.0,-262.0,39.0,-23.0,59.0,-7.0,-102.0,-1003.0,254.0
-23.0,-261.0,40.0,-22.0,57.0,-8.0,-104.0,-1001.0,253.0
-20.0,-260.0,41.0,-24.0,56.0,-7.0,-107.0,-994.0,251.0
-24.0,-260.0,38.0,-25.0,56.0,-8.0,-105.0,-997.0,248.0
-22.0,-265.0,43.0,-26.0,58.0,-7.0,-101.0,-1007.0,248.0
-18.0,-262.0,43.0,-29.0,56.0,-9.0,-101.0,-994.0,250.0
-17.0,-262.0,39.0,-32.0,56.0,-6.0,-102.0,-998.0,248.0
-20.0,-263.0,39.0,-34.0,56.0,-9.0,-103.0,-994.0,253.0
-18.0,-262.0,40.0,-36.0,55.0,-6.0,-100.0,-996.0,251.0
-21.0,-261.0,42.0,-38.0,56.0,-11.0,-101.0,-998.0,256.0
-22.0,-266.0,40.0,-38.0,56.0,-7.0,-101.0,-1001.0,245.0
-20.0,-263.0,37.0,-40.0,54.0,-11.0,-102.0,-1003.0,247.0
-20.0,-262.0,39.0,-41.0,56.0,-9.0,-101.0,-1006.0,247.0
-23.0,-263.0,39.0,-41.0,55.0,-11.0,-100.0,-1006.0,249.0
-21.0,-263.0,35.0,-39.0,56.0,-9.0,-101.0,-1005.0,249.0
-22.0,-261.0,39.0,-37.0,57.0,-10.0,-104.0,-1002.0,246.0
-24.0,-262.0,37.0,-38.0,58.0,-8.0,-105.0,-1006.0,245.0
-22.0,-265.0,39.0,-34.0,58.0,-12.0,-99.0,-1004.0,241.0
-21.0,-265.0,36.0,-34.0,57.0,-9.0,-104.0,-1001.0,247.0
-21.0,-264.0,34.0,-34.0,56.0,-9.0,-105.0,-1001.0,245.0
-23.0,-262.0,37.0,-32.0,59.0,-8.0,-101.0,-1005.0,241.0
-22.0,-259.0,37.0,-29.0,58.0,-9.0,-105.0,-995.0,242.0
-19.0,-264.0,40.0,-28.0,55.0,-6.0,-102.0,-1000.0,242.0
-20.0,-264.0,39.0,-29.0,55.0,-8.0,-101.0,-1000.0,241.0
-22.0,-260.0,42.0,-28.0,54.0,-6.0,-101.0,-998.0,246.0
-20.0,-262.0,37.0,-29.0,54.0,-8.0,-105.0,-995.0,243.0
-21.0,-264.0,38.0,-32.0,55.0,-6.0,-102.0,-1001.0,241.0
-21.0,-263.0,38.0,-33.0,55.0,-9.0,-103.0,-1000.0,248.0
-21.0,-265.0,34.0,-34.0,54.0,-8.0,-105.0,-1001.0,246.0
-24.0,-262.0,43.0,-37.0,54.0,-12.0,-108.0,-998.0,248.0
-23.0,-262.0,37.0,-37.0,55.0,-8.0,-103.0,-1004.0,242.0
-20.0,-263.0,37.0,-38.0,54.0,-11.0,-106.0,-1007.0,245.0
-23.0,-265.0,36.0,-37.0,54.0,-7.0,-106.0,-1006.0,242.0
-25.0,-261.0,34.0,-36.0,56.0,-9.0,-101.0,-1001.0,240.0
-21.0,-262.0,38.0,-36.0,56.0,-8.0,-105.0,-1003.0,241.0
-18.0,-263.0,43.0,-36.0,55.0,-12.0,-102.0,-1000.0,246.0
-22.0,-263.0,34.0,-36.0,55.0,-11.0,-98.0,-997.0,241.0
-23.0,-260.0,36.0,-37.0,56.0,-14.0,-100.0,-1002.0,240.0
-21.0,-260.0,34.0,-39.0,57.0,-11.0,-103.0,-993.0,241.0
-21.0,-261.0,33.0,-38.0,57.0,-13.0,-107.0,-992.0,238.0
-21.0,-262.0,35.0,-39.0,57.0,-12.0,-104.0,-999.0,238.0
-24.0,-264.0,32.0,-41.0,57.0,-14.0,-106.0,-1007.0,239.0
-23.0,-263.0,36.0,-39.0,58.0,-11.0,-105.0,-1005.0,240.0
-21.0,-265.0,37.0,-38.0,59.0,-12.0,-104.0,-1005.0,244.0
-20.0,-264.0,38.0,-37.0,59.0,-10.0,-101.0,-1008.0,241.0
-21.0,-262.0,35.0,-37.0,60.0,-12.0,-102.0,-1004.0,246.0
-20.0,-265.0,39.0,-33.0,59.0,-7.0,-99.0,-1006.0,243.0
-25.0,-264.0,38.0,-31.0,58.0,-9.0,-99.0,-1008.0,242.0
-21.0,-266.0,38.0,-30.0,59.0,-6.0,-101.0,-1002.0,237.0
-22.0,-265.0,39.0,-26.0,59.0,-8.0,-104.0,-1010.0,242.0
-21.0,-263.0,37.0,-24.0,58.0,-6.0,-102.0,-1009.0,240.0
-20.0,-268.0,33.0,-20.0,59.0,-7.0,-101.0,-1009.0,240.0
-21.0,-265.0,35.0,-17.0,58.0,-7.0,-99.0,-1007.0,235.0
-21.0,-265.0,35.0,-17.0,57.0,-9.0,-103.0,-1001.0,232.0
-21.0,-264.0,41.0,-17.0,60.0,-6.0,-102.0,-1003.0,235.0
-21.0,-261.0,36.0,-18.0,62.0,-9.0,-105.0,-993.0,240.0
-21.0,-262.0,38.0,-18.0,62.0,-7.0,-101.0,-1003.0,240.0
-23.0,-264.0,37.0,-17.0,63.0,-11.0,-97.0,-999.0,242.0
-21.0,-266.0,37.0,-14.0,61.0,-9.0,-101.0,-1003.0,242.0
-18.0,-267.0,40.0,-12.0,62.0,-11.0,-100.0,-1002.0,241.0
-22.0,-263.0,39.0,-12.0,61.0,-9.0,-102.0,-997.0,242.0
-23.0,-265.0,35.0,-12.0,61.0,-11.0,-99.0,-997.0,239.0
-24.0,-263.0,36.0,-13.0,59.0,-10.0,-105.0,-998.0,242.0
-20.0,-263.0,37.0,-14.0,60.0,-11.0,-106.0,-1000.0,243.0
-21.0,-259.0,37.0,-16.0,57.0,-10.0,-105.0,-1003.0,246.0
-22.0,-261.0,42.0,-18.0,57.0,-13.0,-106.0,-1005.0,242.0
-21.0,-264.0,38.0,-18.0,57.0,-8.0,-105.0,-1000.0,246.0
-22.0,-261.0,35.0,-17.0,57.0,-12.0,-100.0,-1004.0,239.0
-25.0,-259.0,39.0,-18.0,58.0,-8.0,-102.0,-1016.0,241.0
-21.0,-265.0,38.0,-16.0,57.0,-9.0,-105.0,-1003.0,241.0
-20.0,-264.0,39.0,-13.0,59.0,-7.0,-106.0,-1003.0,242.0
-23.0,-260.0,34.0,-10.0,59.0,-7.0,-101.0,-1003.0,240.0
-19.0,-263.0,34.0,-8.0,58.0,-4.0,-99.0,-1000.0,243.0
-21.0,-262.0,35.0,-7.0,59.0,-5.0,-101.0,-1003.0,242.0
-22.0,-263.0,37.0,-8.0,58.0,-4.0,-96.0,-999.0,242.0
-21.0,-263.0,39.0,-9.0,59.0,-8.0,-97.0,-1002.0,242.0
-20.0,-263.0,33.0,-9.0,58.0,-5.0,-101.0,-1001.0,240.0
-26.0,-262.0,39.0,-9.0,59.0,-7.0,-102.0,-1000.0,244.0
-23.0,-262.0,38.0,-9.0,58.0,-7.0,-101.0,-1005.0,239.0
-18.0,-264.0,37.0,-11.0,58.0,-9.0,-101.0,-1002.0,237.0
-22.0,-260.0,38.0,-10.0,57.0,-6.0,-104.0,-1006.0,240.0
-21.0,-263.0,36.0,-9.0,57.0,-8.0,-100.0,-1005.0,241.0
-21.0,-263.0,38.0,-7.0,58.0,-6.0,-101.0,-1005.0,242.0
-21.0,-263.0,37.0,-6.0,58.0,-7.0,-100.0,-1005.0,241.0
-20.0,-261.0,40.0,-6.0,57.0,-6.0,-102.0,-1003.0,240.0
-20.0,-262.0,38.0,-4.0,57.0,-6.0,-97.0,-1003.0,238.0
-16.0,-265.0,37.0,-5.0,56.0,-4.0,-101.0,-1003.0,238.0
-21.0,-260.0,38.0,-2.0,55.0,-5.0,-97.0,-1005.0,239.0
-23.0,-262.0,33.0,-1.0,58.0,-4.0,-99.0,-1005.0,240.0
-23.0,-262.0,34.0,-1.0,57.0,-6.0,-98.0,-1007.0,239.0
-20.0,-263.0,34.0,-1.0,57.0,-5.0,-96.0,-998.0,240.0
-21.0,-265.0,37.0,-4.0,55.0,-6.0,-97.0,-998.0,239.0
-20.0,-264.0,34.0,-5.0,55.0,-5.0,-101.0,-994.0,244.0
-21.0,-263.0,41.0,-7.0,55.0,-6.0,-103.0,-1003.0,244.0
-24.0,-261.0,36.0,-10.0,55.0,-4.0,-101.0,-1002.0,239.0
-19.0,-265.0,38.0,-10.0,55.0,-7.0,-101.0,-1001.0,243.0
-20.0,-262.0,40.0,-8.0,56.0,-4.0,-96.0,-1005.0,245.0
-21.0,-263.0,35.0,-7.0,55.0,-7.0,-95.0,-1005.0,246.0
-18.0,-264.0,35.0,-6.0,56.0,-3.0,-97.0,-1007.0,247.0
-24.0,-261.0,39.0,-3.0,56.0,-4.0,-103.0,-1002.0,242.0
-21.0,-264.0,35.0,-4.0,56.0,-1.0,-99.0,-1003.0,243.0
-23.0,-261.0,37.0,-3.0,55.0,-3.0,-96.0,-995.0,239.0
-19.0,-262.0,38.0,-2.0,55.0,1.0,-99.0,-998.0,246.0
-20.0,-262.0,33.0,-2.0,58.0,-2.0,-95.0,-1004.0,243.0
-21.0,-265.0,40.0,-2.0,57.0,-1.0,-101.0,-997.0,242.0
-17.0,-261.0,39.0,-4.0,59.0,-3.0,-99.0,-998.0,247.0
-22.0,-263.0,42.0,-4.0,59.0,-1.0,-101.0,-1005.0,243.0
-23.0,-260.0,37.0,-6.0,58.0,-4.0,-100.0,-1002.0,248.0
-20.0,-262.0,38.0,-7.0,59.0,-3.0,-99.0,-996.0,243.0
-23.0,-264.0,35.0,-7.0,57.0,-4.0,-97.0,-1003.0,245.0
-22.0,-263.0,41.0,-7.0,58.0,-3.0,-105.0,-1002.0,247.0
-22.0,-261.0,37.0,-7.0,57.0,-5.0,-98.0,-1004.0,243.0
-21.0,-264.0,40.0,-9.0,57.0,-4.0,-103.0,-1002.0,248.0
-20.0,-261.0,37.0,-10.0,56.0,-5.0,-101.0,-1003.0,246.0
-20.0,-262.0,37.0,-10.0,56.0,-4.0,-100.0,-1000.0,242.0
-22.0,-260.0,40.0,-8.0,56.0,-5.0,-101.0,-1002.0,243.0
-20.0,-260.0,36.0,-9.0,58.0,-2.0,-98.0,-1004.0,245.0
-22.0,-264.0,37.0,-10.0,57.0,-3.0,-104.0,-1006.0,244.0
-21.0,-264.0,38.0,-8.0,58.0,-2.0,-103.0,-1004.0,243.0
-22.0,-262.0,35.0,-7.0,59.0,-3.0,-101.0,-1000.0,241.0
-21.0,-263.0,37.0,-5.0,58.0,-2.0,-102.0,-1000.0,245.0
-19.0,-263.0,38.0,-4.0,58.0,-3.0,-104.0,-1002.0,240.0
-19.0,-264.0,36.0,-3.0,59.0,0.0,-99.0,-1007.0,243.0
-22.0,-260.0,38.0,-3.0,58.0,-1.0,-104.0,-1006.0,244.0
-24.0,-265.0,40.0,-2.0,59.0,0.0,-102.0,-1008.0,243.0
-21.0,-265.0,39.0,-1.0,59.0,-2.0,-103.0,-1006.0,248.0
-20.0,-264.0,36.0,0.0,60.0,1.0,-103.0,-1005.0,245.0
-23.0,-263.0,38.0,2.0,59.0,0.0,-102.0,-1004.0,245.0
-17.0,-263.0,41.0,3.0,60.0,1.0,-106.0,-998.0,246.0
-20.0,-262.0,40.0,4.0,59.0,1.0,-104.0,-1001.0,241.0
-21.0,-264.0,39.0,5.0,60.0,0.0,-101.0,-1002.0,247.0
-18.0,-266.0,38.0,8.0,60.0,0.0,-102.0,-1001.0,242.0
-21.0,-264.0,40.0,7.0,58.0,1.0,-105.0,-999.0,243.0
-22.0,-263.0,39.0,8.0,58.0,2.0,-98.0,-1005.0,247.0
-21.0,-264.0,42.0,8.0,59.0,3.0,-98.0,-1003.0,242.0
-23.0,-261.0,39.0,7.0,58.0,3.0,-97.0,-1000.0,248.0
-20.0,-262.0,36.0,8.0,57.0,4.0,-99.0,-997.0,244.0
-20.0,-265.0,39.0,7.0,58.0,2.0,-98.0,-999.0,247.0
-19.0,-260.0,35.0,8.0,58.0,4.0,-99.0,-997.0,242.0
-23.0,-261.0,34.0,7.0,59.0,1.0,-103.0,-1003.0,250.0
-23.0,-266.0,34.0,5.0,58.0,2.0,-99.0,-1003.0,241.0
-20.0,-262.0,37.0,4.0,58.0,0.0,-105.0,-1003.0,244.0
-24.0,-263.0,37.0,5.0,58.0,1.0,-101.0,-1004.0,249.0
-21.0,-260.0,37.0,2.0,58.0,-1.0,-103.0,-1003.0,244.0
-20.0,-262.0,38.0,2.0,59.0,0.0,-103.0,-1010.0,243.0
-20.0,-261.0,34.0,2.0,60.0,-3.0,-99.0,-1006.0,244.0
-23.0,-263.0,41.0,3.0,58.0,-2.0,-98.0,-998.0,246.0
-17.0,-264.0,36.0,3.0,60.0,-2.0,-98.0,-1004.0,246.0
-22.0,-265.0,37.0,4.0,59.0,-1.0,-99.0,-1002.0,241.0
-21.0,-264.0,37.0,4.0,59.0,-2.0,-99.0,-1001.0,239.0
-19.0,-261.0,37.0,5.0,59.0,-1.0,-96.0,-1004.0,246.0
-20.0,-260.0,36.0,5.0,58.0,-1.0,-100.0,-1003.0,242.0
-22.0,-260.0,36.0,9.0,57.0,0.0,-103.0,-1001.0,246.0
-21.0,-266.0,37.0,9.0,57.0,0.0,-98.0,-1005.0,248.0
-20.0,-263.0,37.0,9.0,57.0,1.0,-97.0,-1002.0,244.0
-20.0,-262.0,38.0,11.0,56.0,0.0,-99.0,-997.0,242.0
-23.0,-261.0,36.0,11.0,57.0,0.0,-102.0,-1000.0,251.0
-20.0,-261.0,38.0,13.0,58.0,-1.0,-99.0,-995.0,248.0
-22.0,-262.0,37.0,14.0,57.0,0.0,-103.0,-997.0,245.0
-24.0,-259.0,36.0,13.0,59.0,-1.0,-96.0,-999.0,247.0
-21.0,-263.0,43.0,13.0,57.0,0.0,-97.0,-1004.0,253.0
-22.0,-258.0,39.0,11.0,58.0,0.0,-102.0,-999.0,249.0
-17.0,-262.0,39.0,9.0,58.0,2.0,-101.0,-1000.0,246.0
-18.0,-263.0,40.0,7.0,58.0,0.0,-100.0,-1002.0,241.0
-20.0,-261.0,39.0,6.0,59.0,2.0,-97.0,-997.0,249.0
-22.0,-262.0,37.0,5.0,57.0,2.0,-101.0,-997.0,247.0
-20.0,-263.0,41.0,4.0,57.0,1.0,-100.0,-1001.0,248.0
-22.0,-262.0,41.0,2.0,58.0,1.0,-100.0,-998.0,251.0
-20.0,-264.0,41.0,0.0,58.0,2.0,-102.0,-997.0,246.0
-18.0,-263.0,39.0,-2.0,57.0,1.0,-102.0,-1001.0,251.0
-24.0,-262.0,41.0,-2.0,58.0,1.0,-101.0,-997.0,252.0
-20.0,-266.0,38.0,-1.0,58.0,0.0,-98.0,-1006.0,253.0
-22.0,-262.0,39.0,-1.0,59.0,1.0,-101.0,-1008.0,252.0
-22.0,-265.0,41.0,2.0,59.0,3.0,-106.0,-1003.0,251.0
-23.0,-263.0,38.0,3.0,58.0,2.0,-103.0,-999.0,246.0
-18.0,-264.0,37.0,5.0,58.0,1.0,-102.0,-1006.0,243.0
-22.0,-261.0,40.0,6.0,59.0,0.0,-106.0,-1001.0,251.0
-18.0,-261.0,44.0,6.0,57.0,-2.0,-103.0,-995.0,249.0
-20.0,-262.0,37.0,3.0,58.0,-3.0,-96.0,-1000.0,252.0
-21.0,-260.0,39.0,4.0,58.0,-4.0,-100.0,-997.0,256.0
-25.0,-260.0,42.0,2.0,59.0,-4.0,-97.0,-997.0,245.0
-23.0,-258.0,39.0,2.0,58.0,-5.0,-99.0,-997.0,252.0
-19.0,-260.0,42.0,-1.0,59.0,-5.0,-102.0,-1001.0,253.0
-22.0,-263.0,41.0,0.0,57.0,-7.0,-106.0,-996.0,254.0
-22.0,-261.0,43.0,1.0,58.0,-4.0,-99.0,-1000.0,251.0
-21.0,-263.0,41.0,2.0,59.0,-4.0,-99.0,-999.0,252.0
-21.0,-266.0,40.0,1.0,58.0,-3.0,-97.0,-1007.0,248.0
-21.0,-262.0,40.0,3.0,57.0,-3.0,-101.0,-1005.0,255.0
-21.0,-264.0,40.0,1.0,58.0,-3.0,-100.0,-1003.0,250.0
-23.0,-262.0,43.0,1.0,57.0,-3.0,-101.0,-997.0,254.0
-22.0,-266.0,43.0,1.0,57.0,-3.0,-107.0,-1006.0,251.0
-22.0,-264.0,38.0,5.0,57.0,-3.0,-104.0,-1009.0,250.0
-23.0,-266.0,41.0,7.0,57.0,-1.0,-101.0,-1005.0,249.0
-22.0,-263.0,37.0,11.0,56.0,-3.0,-105.0,-1005.0,246.0
-20.0,-261.0,40.0,12.0,56.0,-3.0,-103.0,-1000.0,246.0
-18.0,-263.0,44.0,13.0,56.0,-4.0,-101.0,-995.0,246.0
-24.0,-262.0,40.0,13.0,57.0,-4.0,-102.0,-999.0,250.0
-21.0,-264.0,39.0,13.0,58.0,-5.0,-102.0,-1000.0,249.0
-22.0,-265.0,42.0,14.0,58.0,-5.0,-104.0,-999.0,248.0
-22.0,-262.0,41.0,14.0,58.0,-5.0,-99.0,-994.0,250.0
-20.0,-263.0,38.0,16.0,57.0,-2.0,-102.0,-1001.0,258.0
-22.0,-264.0,39.0,17.0,56.0,-4.0,-105.0,-999.0,251.0
-18.0,-256.0,53.0,17.0,56.0,-1.0,-107.0,-1006.0,255.0
-24.0,-263.0,43.0,16.0,56.0,-2.0,-96.0,-1002.0,256.0
-20.0,-262.0,41.0,15.0,54.0,-3.0,-106.0,-996.0,252.0
-19.0,-261.0,40.0,15.0,53.0,-3.0,-101.0,-995.0,254.0
-24.0,-262.0,39.0,15.0,53.0,-3.0,-98.0,-994.0,257.0
-22.0,-261.0,37.0,15.0,53.0,-3.0,-109.0,-998.0,258.0
-22.0,-258.0,47.0,16.0,54.0,-2.0,-101.0,-997.0,257.0
-23.0,-261.0,41.0,16.0,54.0,-4.0,-96.0,-997.0,252.0
-21.0,-261.0,40.0,16.0,55.0,-2.0,-100.0,-1001.0,254.0
-19.0,-263.0,36.0,15.0,54.0,-3.0,-102.0,-997.0,253.0
-21.0,-260.0,41.0,17.0,55.0,-3.0,-98.0,-999.0,250.0
-22.0,-262.0,42.0,18.0,57.0,-3.0,-101.0,-997.0,255.0
-21.0,-262.0,43.0,18.0,59.0,-2.0,-99.0,-994.0,256.0
-19.0,-264.0,38.0,19.0,57.0,-4.0,-96.0,-995.0,256.0
-21.0,-261.0,46.0,18.0,59.0,-2.0,-96.0,-994.0,257.0
-20.0,-262.0,45.0,19.0,59.0,-2.0,-96.0,-997.0,253.0
-19.0,-262.0,41.0,19.0,58.0,-1.0,-97.0,-1000.0,258.0
-20.0,-264.0,42.0,20.0,59.0,-3.0,-96.0,-998.0,259.0
-20.0,-260.0,42.0,21.0,59.0,-3.0,-98.0,-994.0,252.0
-18.0,-264.0,39.0,19.0,61.0,-3.0,-96.0,-987.0,254.0
-18.0,-265.0,39.0,18.0,60.0,-1.0,-97.0,-1000.0,249.0
-21.0,-263.0,39.0,19.0,60.0,-3.0,-95.0,-996.0,257.0
-19.0,-261.0,36.0,20.0,60.0,0.0,-95.0,-1001.0,260.0
-18.0,-263.0,40.0,20.0,61.0,0.0,-95.0,-999.0,255.0
-19.0,-262.0,41.0,21.0,61.0,1.0,-99.0,-1001.0,256.0
-18.0,-261.0,40.0,19.0,61.0,1.0,-94.0,-1000.0,257.0
-23.0,-261.0,43.0,18.0,60.0,2.0,-100.0,-993.0,254.0
-18.0,-262.0,45.0,20.0,58.0,1.0,-104.0,-999.0,255.0
-21.0,-263.0,40.0,19.0,59.0,3.0,-99.0,-997.0,254.0
-20.0,-261.0,40.0,18.0,60.0,2.0,-100.0,-996.0,257.0
-17.0,-262.0,41.0,15.0,60.0,2.0,-98.0,-998.0,254.0
-20.0,-260.0,42.0,13.0,59.0,1.0,-99.0,-993.0,259.0
-22.0,-260.0,45.0,11.0,61.0,1.0,-98.0,-993.0,257.0
-22.0,-260.0,41.0,8.0,58.0,0.0,-98.0,-991.0,256.0
-20.0,-261.0,38.0,6.0,58.0,-1.0,-101.0,-991.0,261.0
-20.0,-262.0,44.0,3.0,57.0,-2.0,-99.0,-996.0,259.0
-21.0,-261.0,42.0,2.0,57.0,-2.0,-102.0,-999.0,260.0
-22.0,-265.0,42.0,3.0,56.0,-1.0,-100.0,-1001.0,261.0
-20.0,-262.0,40.0,3.0,57.0,0.0,-99.0,-1001.0,257.0
-23.0,-262.0,43.0,4.0,57.0,-1.0,-100.0,-999.0,261.0
-23.0,-260.0,42.0,6.0,57.0,1.0,-97.0,-1002.0,257.0
-20.0,-260.0,42.0,6.0,58.0,1.0,-98.0,-995.0,261.0
-18.0,-263.0,40.0,6.0,58.0,0.0,-100.0,-999.0,263.0
-20.0,-260.0,44.0,5.0,60.0,-1.0,-99.0,-997.0,261.0
-24.0,-260.0,43.0,6.0,59.0,0.0,-102.0,-999.0,261.0
-22.0,-262.0,43.0,6.0,60.0,-2.0,-102.0,-994.0,259.0
-18.0,-261.0,42.0,4.0,60.0,0.0,-103.0,-999.0,263.0
-21.0,-260.0,43.0,4.0,59.0,0.0,-103.0,-995.0,260.0
-23.0,-260.0,41.0,4.0,60.0,1.0,-104.0,-998.0,260.0
-21.0,-260.0,40.0,3.0,60.0,1.0,-98.0,-994.0,263.0
-21.0,-263.0,44.0,2.0,57.0,1.0,-107.0,-993.0,262.0
-21.0,-261.0,43.0,1.0,56.0,1.0,-108.0,-994.0,262.0
-22.0,-261.0,45.0,-1.0,57.0,1.0,-105.0,-993.0,272.0
-21.0,-265.0,43.0,-1.0,57.0,0.0,-103.0,-994.0,264.0
-23.0,-259.0,44.0,-1.0,56.0,1.0,-105.0,-997.0,261.0
-23.0,-260.0,43.0,0.0,57.0,0.0,-105.0,-994.0,264.0
-22.0,-263.0,43.0,-2.0,56.0,1.0,-105.0,-995.0,262.0
-22.0,-260.0,46.0,0.0,57.0,2.0,-103.0,-995.0,261.0
-20.0,-262.0,42.0,0.0,56.0,1.0,-101.0,-1003.0,259.0
-19.0,-259.0,41.0,-2.0,57.0,2.0,-100.0,-1000.0,258.0
-22.0,-261.0,42.0,1.0,57.0,0.0,-100.0,-990.0,260.0
-20.0,-264.0,45.0,-1.0,57.0,0.0,-100.0,-990.0,261.0
-22.0,-260.0,41.0,-2.0,57.0,-1.0,-102.0,-989.0,262.0
-22.0,-261.0,43.0,-2.0,57.0,-1.0,-97.0,-991.0,260.0
-18.0,-263.0,45.0,-2.0,57.0,-1.0,-99.0,-995.0,263.0
-15.0,-263.0,43.0,-4.0,59.0,-3.0,-103.0,-996.0,262.0
-20.0,-262.0,46.0,-5.0,60.0,-3.0,-99.0,-994.0,263.0
-20.0,-261.0,41.0,-7.0,61.0,-3.0,-98.0,-997.0,259.0
-21.0,-259.0,41.0,-6.0,60.0,-3.0,-98.0,-992.0,266.0
-22.0,-261.0,43.0,-6.0,60.0,-3.0,-101.0,-994.0,268.0
-24.0,-259.0,44.0,-6.0,62.0,-3.0,-99.0,-1004.0,262.0
-21.0,-263.0,42.0,-8.0,61.0,-4.0,-98.0,-995.0,263.0
-21.0,-262.0,43.0,-9.0,60.0,-4.0,-103.0,-997.0,263.0
-21.0,-262.0,45.0,-10.0,59.0,-2.0,-100.0,-997.0,261.0
-20.0,-263.0,42.0,-11.0,60.0,-3.0,-98.0,-999.0,266.0
-21.0,-261.0,42.0,-10.0,58.0,-3.0,-98.0,-1002.0,260.0
-20.0,-262.0,44.0,-11.0,58.0,-2.0,-97.0,-998.0,264.0
-21.0,-260.0,42.0,-11.0,58.0,-3.0,-101.0,-997.0,261.0
-20.0,-261.0,42.0,-10.0,57.0,-3.0,-98.0,-1002.0,262.0
-20.0,-259.0,45.0,-11.0,57.0,-3.0,-97.0,-997.0,261.0
-19.0,-259.0,43.0,-12.0,58.0,-2.0,-103.0,-995.0,264.0
-20.0,-262.0,42.0,-12.0,58.0,-2.0,-106.0,-995.0,261.0
-22.0,-260.0,41.0,-12.0,57.0,0.0,-103.0,-994.0,259.0
-20.0,-262.0,44.0,-12.0,59.0,0.0,-101.0,-996.0,257.0
-24.0,-261.0,42.0,-13.0,59.0,0.0,-102.0,-996.0,259.0
-23.0,-261.0,43.0,-15.0,59.0,0.0,-100.0,-997.0,261.0
-20.0,-262.0,43.0,-16.0,59.0,0.0,-99.0,-996.0,259.0
-24.0,-261.0,44.0,-17.0,60.0,0.0,-100.0,-997.0,262.0
-20.0,-261.0,47.0,-16.0,58.0,-1.0,-107.0,-993.0,261.0
-22.0,-262.0,44.0,-17.0,57.0,-2.0,-98.0,-999.0,259.0
-21.0,-264.0,44.0,-17.0,57.0,-2.0,-100.0,-997.0,261.0
-21.0,-263.0,43.0,-15.0,56.0,-1.0,-99.0,-998.0,262.0
-19.0,-263.0,44.0,-16.0,58.0,-2.0,-99.0,-1002.0,260.0
-23.0,-260.0,39.0,-15.0,59.0,-2.0,-102.0,-992.0,260.0
-24.0,-259.0,42.0,-15.0,59.0,-1.0,-101.0,-998.0,260.0
-21.0,-262.0,45.0,-13.0,58.0,-2.0,-96.0,-994.0,263.0
-22.0,-263.0,44.0,-13.0,59.0,-2.0,-100.0,-995.0,258.0
-20.0,-263.0,40.0,-12.0,58.0,-3.0,-99.0,-998.0,262.0
-20.0,-262.0,40.0,-14.0,57.0,-3.0,-103.0,-1000.0,257.0
-19.0,-260.0,45.0,-14.0,58.0,-3.0,-96.0,-996.0,260.0
-21.0,-263.0,44.0,-14.0,58.0,-3.0,-100.0,-994.0,261.0
-21.0,-263.0,45.0,-13.0,58.0,-3.0,-103.0,-999.0,264.0
-20.0,-260.0,42.0,-13.0,57.0,-5.0,-104.0,-1000.0,264.0
-20.0,-262.0,41.0,-12.0,57.0,-3.0,-99.0,-1003.0,261.0
-19.0,-262.0,40.0,-10.0,56.0,-2.0,-97.0,-1000.0,263.0
-23.0,-262.0,46.0,-11.0,56.0,-2.0,-100.0,-998.0,259.0
-22.0,-264.0,44.0,-8.0,57.0,-2.0,-100.0,-997.0,260.0
-23.0,-260.0,44.0,-8.0,57.0,-3.0,-101.0,-994.0,259.0
-24.0,-262.0,45.0,-8.0,59.0,-2.0,-101.0,-993.0,263.0
-22.0,-261.0,42.0,-7.0,57.0,-3.0,-97.0,-993.0,266.0
-18.0,-261.0,45.0,-7.0,58.0,-3.0,-102.0,-990.0,263.0
-23.0,-260.0,44.0,-7.0,59.0,-4.0,-99.0,-992.0,263.0
-24.0,-263.0,42.0,-7.0,58.0,-4.0,-101.0,-992.0,261.0
-21.0,-261.0,41.0,-8.0,57.0,-3.0,-99.0,-998.0,263.0
-21.0,-263.0,46.0,-9.0,58.0,-2.0,-100.0,-1002.0,263.0
-22.0,-263.0,42.0,-8.0,57.0,-2.0,-103.0,-1001.0,263.0
-20.0,-261.0,44.0,-7.0,56.0,0.0,-104.0,-1000.0,260.0
-25.0,-262.0,43.0,-4.0,57.0,0.0,-105.0,-992.0,255.0
-18.0,-262.0,41.0,-3.0,56.0,1.0,-103.0,-995.0,262.0
-20.0,-261.0,41.0,-3.0,56.0,2.0,-100.0,-989.0,258.0
-20.0,-261.0,41.0,-1.0,56.0,2.0,-103.0,-1000.0,259.0
-22.0,-261.0,41.0,-2.0,56.0,2.0,-95.0,-993.0,259.0
-19.0,-261.0,40.0,-2.0,57.0,1.0,-97.0,-993.0,261.0
-23.0,-262.0,42.0,-3.0,57.0,1.0,-100.0,-998.0,260.0
-21.0,-263.0,46.0,-4.0,55.0,1.0,-104.0,-991.0,257.0
-15.0,-263.0,43.0,-4.0,55.0,1.0,-105.0,-996.0,262.0
-21.0,-262.0,43.0,-5.0,55.0,1.0,-102.0,-999.0,261.0
-23.0,-260.0,47.0,-5.0,54.0,2.0,-99.0,-993.0,268.0
-22.0,-260.0,44.0,-6.0,54.0,2.0,-96.0,-997.0,268.0
-22.0,-263.0,44.0,-5.0,56.0,2.0,-102.0,-999.0,265.0
-21.0,-262.0,44.0,-7.0,56.0,1.0,-103.0,-997.0,270.0
-23.0,-263.0,44.0,-6.0,56.0,1.0,-95.0,-1004.0,269.0
-24.0,-262.0,47.0,-6.0,57.0,1.0,-103.0,-1007.0,270.0
-20.0,-262.0,42.0,-3.0,56.0,0.0,-98.0,-1004.0,269.0
-22.0,-264.0,40.0,0.0,57.0,1.0,-101.0,-1005.0,263.0
-21.0,-261.0,43.0,3.0,57.0,2.0,-100.0,-997.0,259.0
-23.0,-261.0,40.0,5.0,57.0,1.0,-98.0,-997.0,260.0
-20.0,-259.0,42.0,5.0,58.0,1.0,-98.0,-987.0,260.0
-21.0,-260.0,41.0,3.0,59.0,-1.0,-102.0,-992.0,258.0
-19.0,-262.0,39.0,1.0,60.0,0.0,-98.0,-992.0,263.0
-20.0,-263.0,43.0,-1.0,61.0,-1.0,-102.0,-990.0,264.0
-20.0,-264.0,40.0,0.0,60.0,1.0,-99.0,-997.0,265.0
-24.0,-261.0,41.0,-1.0,60.0,1.0,-99.0,-999.0,264.0
-22.0,-261.0,43.0,-1.0,60.0,2.0,-102.0,-994.0,261.0
-24.0,-259.0,44.0,0.0,59.0,2.0,-99.0,-994.0,262.0
-21.0,-262.0,46.0,0.0,57.0,2.0,-104.0,-989.0,262.0
-23.0,-259.0,45.0,0.0,56.0,3.0,-99.0,-992.0,260.0
-20.0,-258.0,41.0,-1.0,55.0,4.0,-97.0,-993.0,265.0
-22.0,-260.0,41.0,-1.0,55.0,4.0,-101.0,-990.0,269.0
-21.0,-263.0,44.0,-2.0,55.0,5.0,-99.0,-990.0,263.0
-20.0,-260.0,45.0,-1.0,53.0,3.0,-97.0,-989.0,262.0
-20.0,-260.0,43.0,-1.0,54.0,3.0,-100.0,-994.0,264.0
-18.0,-260.0,44.0,-1.0,53.0,3.0,-97.0,-989.0,269.0
-23.0,-261.0,40.0,-2.0,54.0,4.0,-99.0,-993.0,266.0
-20.0,-261.0,45.0,-3.0,55.0,3.0,-96.0,-992.0,259.0
-20.0,-261.0,42.0,-3.0,56.0,3.0,-99.0,-995.0,263.0
-19.0,-264.0,42.0,-4.0,58.0,2.0,-98.0,-989.0,266.0
-21.0,-261.0,38.0,-5.0,55.0,4.0,-99.0,-990.0,265.0
-20.0,-263.0,42.0,-5.0,57.0,2.0,-96.0,-992.0,266.0
-22.0,-259.0,45.0,-6.0,56.0,3.0,-100.0,-995.0,262.0
-17.0,-262.0,46.0,-6.0,56.0,3.0,-106.0,-997.0,262.0
-21.0,-263.0,41.0,-6.0,55.0,3.0,-100.0,-1000.0,264.0
-18.0,-262.0,42.0,-6.0,55.0,2.0,-100.0,-990.0,259.0
-19.0,-260.0,45.0,-6.0,57.0,4.0,-99.0,-990.0,264.0
-22.0,-260.0,43.0,-5.0,56.0,5.0,-97.0,-997.0,262.0
-24.0,-260.0,46.0,-4.0,58.0,6.0,-97.0,-997.0,262.0
-21.0,-259.0,42.0,-5.0,57.0,6.0,-98.0,-992.0,264.0
-21.0,-262.0,43.0,-6.0,57.0,7.0,-101.0,-1002.0,259.0
-24.0,-262.0,45.0,-6.0,57.0,6.0,-104.0,-999.0,262.0
-19.0,-264.0,43.0,-4.0,56.0,7.0,-99.0,-993.0,267.0
-19.0,-263.0,46.0,-5.0,59.0,7.0,-98.0,-993.0,262.0
-19.0,-261.0,41.0,-2.0,57.0,7.0,-98.0,-996.0,261.0
-21.0,-264.0,43.0,-1.0,58.0,6.0,-96.0,-990.0,261.0
-21.0,-261.0,41.0,-1.0,58.0,6.0,-97.0,-994.0,262.0
-22.0,-261.0,41.0,-4.0,58.0,6.0,-103.0,-993.0,265.0
-21.0,-259.0,46.0,-4.0,56.0,6.0,-101.0,-992.0,262.0
-22.0,-259.0,43.0,-6.0,57.0,4.0,-104.0,-987.0,268.0
-19.0,-261.0,47.0,-7.0,55.0,4.0,-97.0,-991.0,263.0
-23.0,-258.0,41.0,-8.0,56.0,2.0,-102.0,-991.0,264.0
-19.0,-260.0,47.0,-8.0,56.0,4.0,-98.0,-991.0,268.0
-21.0,-261.0,45.0,-10.0,56.0,5.0,-101.0,-1002.0,267.0
-19.0,-263.0,44.0,-10.0,56.0,4.0,-95.0,-993.0,266.0
-22.0,-262.0,45.0,-9.0,55.0,5.0,-98.0,-1000.0,265.0
-24.0,-259.0,44.0,-9.0,56.0,5.0,-100.0,-997.0,270.0
-22.0,-259.0,46.0,-7.0,56.0,5.0,-99.0,-996.0,266.0
-21.0,-259.0,42.0,-6.0,57.0,6.0,-100.0,-994.0,269.0
-21.0,-264.0,48.0,-8.0,59.0,6.0,-103.0,-995.0,264.0
-25.0,-261.0,44.0,-7.0,60.0,7.0,-102.0,-997.0,270.0
-23.0,-260.0,39.0,-8.0,61.0,6.0,-106.0,-992.0,269.0
-20.0,-263.0,45.0,-9.0,61.0,7.0,-107.0,-997.0,270.0
-24.0,-260.0,43.0,-10.0,63.0,7.0,-107.0,-992.0,271.0
-23.0,-263.0,47.0,-11.0,61.0,6.0,-104.0,-995.0,273.0
-20.0,-263.0,45.0,-12.0,60.0,6.0,-100.0,-995.0,271.0
-23.0,-263.0,47.0,-13.0,59.0,5.0,-107.0,-993.0,272.0
-21.0,-260.0,45.0,-13.0,59.0,6.0,-104.0,-994.0,268.0
-22.0,-262.0,47.0,-12.0,60.0,7.0,-102.0,-992.0,267.0
-23.0,-263.0,47.0,-13.0,58.0,5.0,-101.0,-991.0,265.0
-23.0,-261.0,45.0,-13.0,58.0,5.0,-105.0,-995.0,263.0
-23.0,-261.0,44.0,-13.0,58.0,6.0,-101.0,-993.0,274.0
-24.0,-261.0,44.0,-13.0,56.0,4.0,-106.0,-1002.0,271.0
-18.0,-262.0,47.0,-14.0,57.0,3.0,-99.0,-996.0,268.0
-20.0,-263.0,44.0,-13.0,58.0,4.0,-105.0,-995.0,271.0
-21.0,-262.0,49.0,-11.0,60.0,3.0,-105.0,-1000.0,263.0
-23.0,-263.0,47.0,-11.0,60.0,5.0,-104.0,-997.0,270.0
-20.0,-263.0,43.0,-11.0,61.0,3.0,-99.0,-996.0,266.0
-22.0,-262.0,46.0,-10.0,61.0,3.0,-104.0,-996.0,268.0
-24.0,-260.0,45.0,-9.0,60.0,2.0,-100.0,-993.0,270.0
-22.0,-264.0,42.0,-11.0,61.0,4.0,-107.0,-990.0,268.0
-22.0,-259.0,43.0,-11.0,61.0,3.0,-107.0,-990.0,272.0
-23.0,-262.0,44.0,-9.0,61.0,3.0,-102.0,-993.0,271.0
-25.0,-260.0,46.0,-10.0,61.0,2.0,-109.0,-993.0,272.0
-18.0,-260.0,41.0,-13.0,61.0,2.0,-106.0,-993.0,268.0
-22.0,-260.0,46.0,-13.0,60.0,1.0,-103.0,-994.0,266.0
-21.0,-261.0,42.0,-14.0,60.0,3.0,-102.0,-992.0,270.0
-19.0,-261.0,41.0,-15.0,60.0,2.0,-106.0,-997.0,271.0
-21.0,-265.0,46.0,-16.0,61.0,3.0,-108.0,-993.0,272.0
-20.0,-260.0,45.0,-17.0,60.0,2.0,-100.0,-994.0,265.0
-22.0,-262.0,40.0,-16.0,61.0,2.0,-106.0,-991.0,270.0
-25.0,-260.0,42.0,-16.0,60.0,2.0,-100.0,-994.0,270.0
-22.0,-261.0,45.0,-18.0,60.0,3.0,-103.0,-993.0,269.0
-20.0,-261.0,42.0,-17.0,61.0,2.0,-100.0,-994.0,268.0
-21.0,-262.0,45.0,-18.0,61.0,3.0,-103.0,-999.0,265.0
-20.0,-265.0,46.0,-18.0,62.0,2.0,-104.0,-990.0,265.0
-24.0,-257.0,42.0,-20.0,60.0,3.0,-99.0,-996.0,267.0
-21.0,-261.0,42.0,-19.0,60.0,2.0,-106.0,-988.0,268.0
-24.0,-260.0,43.0,-21.0,60.0,3.0,-101.0,-995.0,268.0
-20.0,-260.0,44.0,-20.0,60.0,0.0,-102.0,-995.0,262.0
-23.0,-262.0,46.0,-21.0,59.0,3.0,-106.0,-991.0,269.0
-22.0,-261.0,44.0,-20.0,59.0,2.0,-98.0,-998.0,262.0
-22.0,-264.0,44.0,-17.0,58.0,3.0,-104.0,-999.0,262.0
-24.0,-262.0,42.0,-15.0,59.0,2.0,-101.0,-1000.0,269.0
-24.0,-263.0,43.0,-16.0,58.0,2.0,-104.0,-995.0,267.0
-23.0,-262.0,42.0,-12.0,57.0,2.0,-103.0,-990.0,263.0
-21.0,-262.0,43.0,-12.0,58.0,2.0,-107.0,-995.0,264.0
-22.0,-264.0,47.0,-10.0,59.0,1.0,-105.0,-995.0,263.0
-22.0,-259.0,42.0,-11.0,57.0,1.0,-104.0,-992.0,263.0
-19.0,-261.0,40.0,-11.0,59.0,1.0,-105.0,-989.0,261.0
-22.0,-260.0,43.0,-11.0,60.0,3.0,-105.0,-988.0,267.0
-23.0,-263.0,43.0,-9.0,59.0,2.0,-102.0,-990.0,263.0
-21.0,-261.0,46.0,-9.0,59.0,2.0,-106.0,-1001.0,260.0
-23.0,-263.0,42.0,-10.0,59.0,1.0,-108.0,-996.0,262.0
-20.0,-263.0,44.0,-10.0,58.0,2.0,-107.0,-996.0,263.0
-23.0,-258.0,39.0,-10.0,59.0,0.0,-107.0,-997.0,262.0
-21.0,-262.0,42.0,-12.0,59.0,0.0,-100.0,-995.0,261.0
-20.0,-261.0,42.0,-12.0,59.0,-2.0,-108.0,-992.0,266.0
-22.0,-261.0,45.0,-12.0,59.0,0.0,-105.0,-995.0,262.0
-22.0,-262.0,43.0,-11.0,60.0,0.0,-106.0,-993.0,269.0
-21.0,-262.0,47.0,-11.0,60.0,1.0,-103.0,-991.0,267.0
-25.0,-263.0,39.0,-12.0,60.0,0.0,-105.0,-991.0,265.0
-21.0,-262.0,43.0,-11.0,59.0,0.0,-103.0,-995.0,268.0
-19.0,-261.0,42.0,-10.0,59.0,-2.0,-106.0,-1001.0,263.0
-23.0,-260.0,41.0,-8.0,57.0,-1.0,-102.0,-998.0,266.0
-22.0,-262.0,46.0,-5.0,58.0,-2.0,-101.0,-993.0,261.0
-21.0,-261.0,40.0,-4.0,58.0,-2.0,-100.0,-990.0,263.0
-21.0,-263.0,43.0,-2.0,57.0,-3.0,-102.0,-990.0,261.0
-22.0,-263.0,46.0,-3.0,57.0,-2.0,-103.0,-993.0,263.0
-23.0,-258.0,45.0,-2.0,57.0,-2.0,-97.0,-992.0,263.0
-19.0,-262.0,39.0,-1.0,59.0,-2.0,-96.0,-994.0,259.0
-24.0,-259.0,39.0,-3.0,58.0,-2.0,-98.0,-993.0,267.0
-23.0,-260.0,47.0,-4.0,59.0,0.0,-105.0,-989.0,268.0
-19.0,-262.0,47.0,-5.0,58.0,-1.0,-100.0,-993.0,270.0
-22.0,-263.0,43.0,-6.0,59.0,1.0,-103.0,-990.0,269.0
-21.0,-261.0,42.0,-6.0,58.0,0.0,-101.0,-991.0,266.0
-21.0,-261.0,42.0,-7.0,59.0,2.0,-107.0,-999.0,270.0
-20.0,-263.0,43.0,-8.0,57.0,0.0,-103.0,-1001.0,270.0
-24.0,-261.0,44.0,-8.0,58.0,2.0,-103.0,-1002.0,271.0
-23.0,-265.0,44.0,-5.0,56.0,1.0,-103.0,-1003.0,269.0
-20.0,-263.0,44.0,-2.0,56.0,2.0,-102.0,-1007.0,267.0
-23.0,-264.0,45.0,1.0,57.0,2.0,-104.0,-1007.0,268.0
-22.0,-264.0,44.0,5.0,59.0,3.0,-106.0,-1001.0,267.0
-18.0,-262.0,43.0,7.0,58.0,1.0,-104.0,-997.0,261.0
-20.0,-262.0,42.0,9.0,58.0,2.0,-104.0,-1000.0,267.0
-25.0,-258.0,43.0,8.0,59.0,0.0,-108.0,-995.0,263.0
-23.0,-261.0,44.0,7.0,59.0,2.0,-107.0,-992.0,268.0
-21.0,-262.0,45.0,7.0,59.0,2.0,-104.0,-990.0,267.0
-24.0,-261.0,45.0,5.0,61.0,2.0,-106.0,-993.0,266.0
-18.0,-259.0,44.0,8.0,60.0,2.0,-102.0,-998.0,271.0
-23.0,-259.0,44.0,7.0,60.0,2.0,-108.0,-993.0,273.0
-23.0,-260.0,44.0,7.0,60.0,3.0,-103.0,-989.0,274.0
-21.0,-263.0,44.0,10.0,58.0,5.0,-102.0,-987.0,272.0
-21.0,-260.0,48.0,11.0,57.0,4.0,-106.0,-993.0,273.0
-21.0,-259.0,45.0,10.0,58.0,7.0,-106.0,-989.0,274.0
-22.0,-258.0,44.0,10.0,57.0,7.0,-102.0,-991.0,270.0
-24.0,-261.0,47.0,10.0,56.0,10.0,-103.0,-986.0,276.0
-23.0,-262.0,46.0,10.0,56.0,7.0,-105.0,-993.0,275.0
-23.0,-262.0,46.0,9.0,55.0,6.0,-102.0,-988.0,274.0
-23.0,-260.0,45.0,11.0,56.0,7.0,-108.0,-992.0,272.0
-21.0,-262.0,43.0,11.0,57.0,9.0,-110.0,-989.0,269.0
-22.0,-262.0,46.0,11.0,58.0,7.0,-104.0,-992.0,267.0
-22.0,-264.0,44.0,12.0,58.0,8.0,-101.0,-999.0,271.0
-23.0,-262.0,49.0,13.0,60.0,10.0,-106.0,-1002.0,267.0
-21.0,-264.0,45.0,16.0,61.0,12.0,-105.0,-995.0,270.0
-23.0,-260.0,45.0,18.0,60.0,11.0,-103.0,-997.0,270.0
-20.0,-261.0,42.0,20.0,60.0,13.0,-107.0,-995.0,274.0
-20.0,-264.0,49.0,22.0,61.0,14.0,-105.0,-992.0,275.0
-26.0,-261.0,44.0,27.0,59.0,16.0,-102.0,-996.0,270.0
-24.0,-263.0,45.0,29.0,60.0,15.0,-111.0,-990.0,272.0
-22.0,-263.0,44.0,31.0,61.0,17.0,-113.0,-991.0,274.0
-22.0,-261.0,46.0,32.0,59.0,16.0,-107.0,-988.0,273.0
-22.0,-263.0,46.0,34.0,59.0,17.0,-107.0,-997.0,273.0
-23.0,-260.0,45.0,34.0,58.0,16.0,-106.0,-1000.0,274.0
-20.0,-262.0,44.0,38.0,58.0,19.0,-106.0,-998.0,276.0
-23.0,-263.0,46.0,40.0,59.0,17.0,-109.0,-996.0,274.0
-24.0,-264.0,44.0,43.0,58.0,19.0,-108.0,-993.0,274.0
-18.0,-262.0,45.0,45.0,60.0,19.0,-109.0,-993.0,273.0
-23.0,-258.0,43.0,47.0,58.0,21.0,-106.0,-988.0,273.0
-23.0,-261.0,49.0,49.0,60.0,22.0,-107.0,-987.0,272.0
-24.0,-258.0,49.0,51.0,60.0,24.0,-105.0,-983.0,274.0
-21.0,-263.0,46.0,51.0,61.0,23.0,-102.0,-989.0,275.0
-21.0,-261.0,44.0,49.0,60.0,25.0,-99.0,-993.0,279.0
-23.0,-261.0,43.0,47.0,60.0,25.0,-106.0,-987.0,278.0
-21.0,-259.0,48.0,47.0,61.0,27.0,-105.0,-991.0,275.0
-22.0,-260.0,47.0,43.0,61.0,25.0,-106.0,-987.0,274.0
-21.0,-260.0,46.0,37.0,60.0,26.0,-102.0,-991.0,271.0
-20.0,-261.0,45.0,34.0,60.0,26.0,-105.0,-989.0,275.0
-19.0,-261.0,49.0,30.0,61.0,27.0,-102.0,-996.0,275.0
-20.0,-262.0,44.0,30.0,59.0,26.0,-100.0,-991.0,276.0
-23.0,-260.0,42.0,28.0,58.0,28.0,-104.0,-988.0,271.0
-19.0,-261.0,47.0,28.0,58.0,28.0,-102.0,-991.0,276.0
-22.0,-260.0,46.0,29.0,59.0,31.0,-100.0,-994.0,273.0
-23.0,-259.0,42.0,31.0,59.0,30.0,-98.0,-992.0,274.0
-22.0,-260.0,45.0,32.0,59.0,31.0,-100.0,-993.0,274.0
-21.0,-260.0,47.0,33.0,60.0,29.0,-98.0,-989.0,273.0
-19.0,-260.0,41.0,32.0,60.0,29.0,-101.0,-989.0,267.0
-23.0,-261.0,44.0,32.0,61.0,27.0,-100.0,-993.0,263.0
-21.0,-261.0,46.0,33.0,61.0,26.0,-101.0,-985.0,269.0
-21.0,-261.0,40.0,30.0,62.0,25.0,-100.0,-989.0,271.0
-20.0,-263.0,46.0,30.0,63.0,27.0,-103.0,-996.0,273.0
-19.0,-261.0,47.0,29.0,62.0,26.0,-106.0,-987.0,271.0
-21.0,-260.0,45.0,29.0,63.0,28.0,-102.0,-989.0,271.0
-22.0,-261.0,48.0,28.0,63.0,24.0,-103.0,-987.0,273.0
-22.0,-258.0,42.0,30.0,62.0,25.0,-108.0,-990.0,269.0
-22.0,-261.0,44.0,31.0,62.0,24.0,-106.0,-989.0,274.0
-21.0,-259.0,45.0,31.0,59.0,27.0,-103.0,-995.0,271.0
-21.0,-264.0,44.0,31.0,59.0,27.0,-106.0,-986.0,275.0
-24.0,-260.0,45.0,32.0,58.0,31.0,-107.0,-992.0,275.0
-23.0,-260.0,45.0,34.0,59.0,30.0,-108.0,-988.0,275.0
-23.0,-262.0,44.0,36.0,59.0,33.0,-112.0,-989.0,273.0
-25.0,-260.0,48.0,39.0,58.0,31.0,-109.0,-993.0,281.0
-24.0,-261.0,49.0,39.0,58.0,33.0,-111.0,-990.0,276.0
-28.0,-261.0,44.0,41.0,60.0,31.0,-111.0,-990.0,279.0
-24.0,-260.0,47.0,44.0,61.0,35.0,-114.0,-992.0,283.0
-24.0,-260.0,46.0,47.0,61.0,34.0,-117.0,-985.0,276.0
-26.0,-261.0,47.0,50.0,60.0,35.0,-115.0,-991.0,281.0
-27.0,-260.0,48.0,54.0,61.0,34.0,-115.0,-994.0,286.0
-26.0,-262.0,50.0,58.0,63.0,37.0,-117.0,-991.0,285.0
-28.0,-260.0,50.0,60.0,61.0,36.0,-117.0,-988.0,284.0
-26.0,-261.0,55.0,61.0,63.0,39.0,-119.0,-988.0,284.0
-26.0,-260.0,50.0,62.0,60.0,37.0,-121.0,-992.0,282.0
-26.0,-260.0,52.0,65.0,61.0,38.0,-121.0,-996.0,292.0
-24.0,-261.0,44.0,69.0,63.0,37.0,-119.0,-990.0,291.0
-27.0,-264.0,50.0,73.0,61.0,41.0,-120.0,-990.0,288.0
-27.0,-261.0,48.0,79.0,60.0,40.0,-118.0,-996.0,290.0
-26.0,-261.0,50.0,82.0,59.0,42.0,-126.0,-987.0,292.0
-27.0,-261.0,54.0,87.0,59.0,40.0,-122.0,-985.0,294.0
-26.0,-263.0,48.0,92.0,58.0,43.0,-120.0,-992.0,295.0
-25.0,-261.0,53.0,96.0,56.0,45.0,-123.0,-994.0,300.0
-27.0,-258.0,52.0,101.0,55.0,49.0,-120.0,-996.0,301.0
-28.0,-261.0,52.0,107.0,55.0,47.0,-126.0,-991.0,300.0
-31.0,-271.0,48.0,111.0,54.0,51.0,-125.0,-992.0,305.0
-31.0,-263.0,54.0,119.0,52.0,50.0,-127.0,-988.0,305.0
-28.0,-264.0,57.0,123.0,51.0,52.0,-127.0,-993.0,304.0
-27.0,-261.0,52.0,128.0,48.0,50.0,-125.0,-993.0,308.0
-30.0,-258.0,56.0,132.0,50.0,51.0,-126.0,-989.0,305.0
-28.0,-260.0,55.0,137.0,48.0,49.0,-128.0,-986.0,298.0
-28.0,-258.0,56.0,143.0,49.0,49.0,-131.0,-990.0,309.0
-25.0,-264.0,53.0,144.0,49.0,50.0,-129.0,-984.0,307.0
-30.0,-261.0,55.0,148.0,48.0,52.0,-130.0,-992.0,311.0
-25.0,-260.0,56.0,152.0,48.0,51.0,-121.0,-992.0,309.0
-30.0,-261.0,58.0,154.0,48.0,53.0,-121.0,-996.0,312.0
-28.0,-262.0,57.0,157.0,47.0,52.0,-125.0,-992.0,314.0
-24.0,-260.0,55.0,164.0,43.0,51.0,-122.0,-993.0,314.0
-26.0,-257.0,55.0,169.0,40.0,51.0,-112.0,-985.0,307.0
-26.0,-257.0,56.0,170.0,42.0,56.0,-121.0,-988.0,308.0
-28.0,-261.0,52.0,172.0,42.0,61.0,-117.0,-988.0,313.0
-26.0,-260.0,56.0,179.0,41.0,64.0,-111.0,-989.0,308.0
-27.0,-258.0,57.0,183.0,42.0,64.0,-116.0,-986.0,314.0
-24.0,-260.0,54.0,187.0,41.0,69.0,-122.0,-984.0,309.0
-26.0,-258.0,57.0,195.0,39.0,71.0,-121.0,-982.0,309.0
-27.0,-261.0,57.0,203.0,40.0,74.0,-123.0,-986.0,315.0
-25.0,-261.0,57.0,214.0,40.0,77.0,-119.0,-986.0,315.0
-27.0,-256.0,57.0,222.0,41.0,81.0,-122.0,-978.0,316.0
-24.0,-255.0,54.0,228.0,38.0,79.0,-122.0,-975.0,318.0
-26.0,-257.0,57.0,237.0,36.0,82.0,-120.0,-981.0,314.0
-26.0,-257.0,54.0,243.0,38.0,80.0,-122.0,-974.0,319.0
-25.0,-258.0,59.0,246.0,39.0,83.0,-121.0,-978.0,324.0
-27.0,-255.0,55.0,249.0,39.0,84.0,-110.0,-975.0,318.0
-28.0,-259.0,56.0,250.0,41.0,91.0,-119.0,-983.0,321.0
-24.0,-261.0,56.0,257.0,42.0,98.0,-115.0,-988.0,314.0
-24.0,-259.0,57.0,259.0,40.0,100.0,-119.0,-984.0,322.0
-26.0,-258.0,53.0,261.0,43.0,99.0,-115.0,-980.0,320.0
-25.0,-262.0,62.0,268.0,41.0,104.0,-119.0,-987.0,321.0
-26.0,-260.0,60.0,277.0,38.0,105.0,-115.0,-983.0,318.0
-27.0,-258.0,58.0,285.0,38.0,105.0,-117.0,-979.0,317.0
-26.0,-257.0,57.0,295.0,37.0,105.0,-119.0,-985.0,323.0
-29.0,-259.0,58.0,302.0,37.0,117.0,-116.0,-987.0,324.0
-29.0,-259.0,54.0,312.0,35.0,124.0,-123.0,-981.0,324.0
-27.0,-256.0,56.0,316.0,33.0,124.0,-126.0,-974.0,327.0
-26.0,-257.0,58.0,322.0,32.0,121.0,-119.0,-974.0,323.0
-26.0,-252.0,57.0,329.0,31.0,122.0,-122.0,-967.0,331.0
-26.0,-254.0,59.0,337.0,31.0,121.0,-123.0,-968.0,328.0
-28.0,-256.0,59.0,348.0,30.0,120.0,-121.0,-962.0,334.0
-29.0,-257.0,62.0,354.0,31.0,116.0,-122.0,-974.0,337.0
-28.0,-256.0,62.0,359.0,36.0,117.0,-127.0,-973.0,340.0
-28.0,-254.0,59.0,365.0,34.0,121.0,-131.0,-973.0,340.0
-27.0,-248.0,69.0,375.0,35.0,132.0,-123.0,-937.0,336.0
-30.0,-264.0,60.0,405.0,40.0,166.0,-122.0,-988.0,322.0
-31.0,-264.0,61.0,412.0,41.0,179.0,-144.0,-1001.0,343.0
-29.0,-261.0,63.0,411.0,41.0,144.0,-128.0,-987.0,348.0
-29.0,-261.0,64.0,422.0,35.0,129.0,-128.0,-983.0,343.0
-26.0,-261.0,62.0,430.0,36.0,134.0,-124.0,-978.0,344.0
-30.0,-261.0,61.0,435.0,40.0,149.0,-123.0,-980.0,338.0
-29.0,-258.0,63.0,442.0,43.0,159.0,-124.0,-979.0,344.0
-29.0,-256.0,60.0,455.0,40.0,165.0,-128.0,-984.0,333.0
-23.0,-253.0,59.0,475.0,41.0,171.0,-137.0,-940.0,345.0
-28.0,-258.0,57.0,518.0,46.0,207.0,-132.0,-995.0,329.0
-31.0,-265.0,62.0,535.0,49.0,204.0,-145.0,-996.0,340.0
-33.0,-253.0,62.0,544.0,50.0,189.0,-145.0,-961.0,353.0
-33.0,-262.0,60.0,578.0,52.0,201.0,-136.0,-993.0,334.0
-33.0,-258.0,65.0,590.0,55.0,204.0,-141.0,-964.0,352.0
-31.0,-259.0,65.0,608.0,56.0,211.0,-147.0,-980.0,355.0
-36.0,-254.0,68.0,627.0,53.0,209.0,-148.0,-974.0,355.0
-32.0,-253.0,71.0,645.0,54.0,210.0,-139.0,-964.0,362.0
-31.0,-256.0,69.0,666.0,57.0,224.0,-143.0,-971.0,367.0
-36.0,-251.0,76.0,673.0,59.0,215.0,-154.0,-963.0,380.0
-36.0,-247.0,70.0,679.0,56.0,211.0,-147.0,-949.0,393.0
-38.0,-250.0,74.0,686.0,52.0,220.0,-158.0,-955.0,398.0
-38.0,-246.0,74.0,679.0,48.0,205.0,-158.0,-947.0,405.0
-38.0,-242.0,78.0,666.0,38.0,188.0,-165.0,-921.0,412.0
-39.0,-237.0,78.0,651.0,29.0,190.0,-175.0,-908.0,408.0
-42.0,-236.0,84.0,625.0,26.0,194.0,-170.0,-902.0,418.0
-39.0,-233.0,79.0,591.0,26.0,195.0,-175.0,-894.0,415.0
-41.0,-231.0,80.0,547.0,22.0,191.0,-175.0,-894.0,414.0
-39.0,-227.0,76.0,492.0,9.0,178.0,-181.0,-876.0,402.0
-42.0,-227.0,75.0,435.0,0.0,171.0,-166.0,-872.0,392.0
-42.0,-228.0,75.0,388.0,-3.0,171.0,-172.0,-874.0,399.0
-43.0,-230.0,72.0,348.0,-9.0,167.0,-169.0,-881.0,393.0
-42.0,-231.0,75.0,306.0,-16.0,170.0,-167.0,-893.0,395.0
-34.0,-236.0,74.0,272.0,-24.0,172.0,-159.0,-899.0,392.0
-37.0,-238.0,76.0,239.0,-25.0,175.0,-160.0,-910.0,396.0
-38.0,-237.0,73.0,212.0,-31.0,170.0,-162.0,-905.0,394.0
-33.0,-238.0,69.0,184.0,-40.0,174.0,-142.0,-907.0,380.0
-34.0,-234.0,69.0,156.0,-43.0,173.0,-138.0,-911.0,375.0
-32.0,-240.0,74.0,136.0,-50.0,183.0,-135.0,-917.0,375.0
-34.0,-243.0,74.0,124.0,-56.0,190.0,-126.0,-931.0,385.0
-28.0,-245.0,72.0,127.0,-59.0,206.0,-125.0,-934.0,378.0
-29.0,-244.0,70.0,136.0,-64.0,220.0,-126.0,-929.0,380.0
-32.0,-240.0,69.0,133.0,-78.0,223.0,-128.0,-917.0,383.0
-29.0,-235.0,67.0,113.0,-93.0,229.0,-134.0,-911.0,359.0
-23.0,-236.0,60.0,87.0,-88.0,240.0,-119.0,-908.0,334.0
-21.0,-239.0,57.0,53.0,-82.0,243.0,-107.0,-912.0,333.0
-24.0,-245.0,59.0,35.0,-88.0,255.0,-107.0,-932.0,335.0
-27.0,-250.0,62.0,43.0,-95.0,269.0,-116.0,-944.0,339.0
-22.0,-249.0,67.0,77.0,-111.0,287.0,-84.0,-965.0,354.0
-36.0,-255.0,59.0,127.0,-135.0,306.0,-166.0,-966.0,338.0
-29.0,-261.0,62.0,171.0,-116.0,332.0,-135.0,-979.0,339.0
-28.0,-263.0,63.0,234.0,-94.0,347.0,-138.0,-986.0,345.0
-31.0,-263.0,63.0,293.0,-96.0,358.0,-134.0,-987.0,345.0
-29.0,-263.0,61.0,362.0,-94.0,366.0,-139.0,-999.0,329.0
-37.0,-262.0,64.0,426.0,-90.0,369.0,-144.0,-991.0,342.0
-33.0,-262.0,64.0,492.0,-93.0,370.0,-141.0,-983.0,340.0
-35.0,-257.0,62.0,551.0,-99.0,378.0,-150.0,-966.0,327.0
-39.0,-248.0,61.0,599.0,-109.0,383.0,-157.0,-959.0,335.0
-39.0,-250.0,61.0,634.0,-122.0,392.0,-158.0,-944.0,340.0
-39.0,-243.0,63.0,665.0,-128.0,392.0,-160.0,-929.0,344.0
-40.0,-237.0,63.0,692.0,-130.0,391.0,-165.0,-912.0,355.0
-42.0,-233.0,67.0,710.0,-135.0,384.0,-173.0,-897.0,360.0
-37.0,-235.0,71.0,714.0,-134.0,377.0,-156.0,-896.0,372.0
-34.0,-232.0,74.0,723.0,-129.0,371.0,-148.0,-886.0,382.0
-42.0,-230.0,71.0,746.0,-123.0,372.0,-177.0,-886.0,392.0
-45.0,-229.0,73.0,770.0,-122.0,379.0,-180.0,-884.0,393.0
-42.0,-231.0,75.0,771.0,-129.0,383.0,-185.0,-880.0,403.0
-39.0,-230.0,76.0,776.0,-129.0,381.0,-185.0,-875.0,403.0
-41.0,-232.0,77.0,785.0,-129.0,386.0,-172.0,-893.0,404.0
-43.0,-236.0,81.0,807.0,-119.0,387.0,-179.0,-899.0,414.0
-37.0,-240.0,79.0,834.0,-109.0,390.0,-167.0,-897.0,430.0
-41.0,-235.0,89.0,874.0,-110.0,383.0,-167.0,-902.0,447.0
-47.0,-237.0,83.0,896.0,-118.0,388.0,-207.0,-907.0,430.0
-43.0,-239.0,86.0,904.0,-103.0,392.0,-192.0,-910.0,439.0
-47.0,-238.0,83.0,927.0,-99.0,392.0,-192.0,-906.0,422.0
-50.0,-231.0,83.0,954.0,-97.0,401.0,-203.0,-889.0,432.0
-46.0,-225.0,82.0,984.0,-92.0,414.0,-202.0,-870.0,437.0
-53.0,-222.0,92.0,1011.0,-82.0,414.0,-216.0,-847.0,473.0
-48.0,-213.0,101.0,1033.0,-81.0,415.0,-205.0,-811.0,491.0
-58.0,-202.0,106.0,1045.0,-98.0,400.0,-224.0,-779.0,498.0
-55.0,-207.0,96.0,1029.0,-117.0,408.0,-241.0,-783.0,469.0
-47.0,-203.0,98.0,1003.0,-98.0,408.0,-180.0,-783.0,488.0
-45.0,-205.0,100.0,988.0,-101.0,399.0,-188.0,-792.0,498.0
-45.0,-214.0,105.0,984.0,-106.0,395.0,-189.0,-808.0,509.0
-46.0,-214.0,106.0,986.0,-109.0,394.0,-187.0,-815.0,516.0
-41.0,-214.0,108.0,988.0,-104.0,384.0,-181.0,-816.0,513.0
-42.0,-211.0,104.0,988.0,-93.0,386.0,-183.0,-811.0,506.0
-45.0,-215.0,102.0,997.0,-79.0,385.0,-187.0,-819.0,516.0
-46.0,-216.0,110.0,1002.0,-70.0,388.0,-199.0,-812.0,532.0
-48.0,-214.0,111.0,1015.0,-57.0,389.0,-210.0,-824.0,542.0
-49.0,-212.0,117.0,1034.0,-44.0,390.0,-198.0,-812.0,557.0
-50.0,-211.0,111.0,1057.0,-39.0,390.0,-210.0,-791.0,547.0
-50.0,-208.0,107.0,1076.0,-30.0,393.0,-215.0,-783.0,535.0
-55.0,-205.0,108.0,1088.0,-27.0,392.0,-208.0,-774.0,532.0
-52.0,-202.0,112.0,1099.0,-22.0,397.0,-219.0,-775.0,550.0
-49.0,-200.0,118.0,1115.0,-22.0,403.0,-205.0,-764.0,556.0
-52.0,-204.0,118.0,1135.0,-25.0,424.0,-220.0,-761.0,560.0
-49.0,-200.0,117.0,1149.0,-26.0,434.0,-201.0,-746.0,560.0
-53.0,-201.0,115.0,1169.0,-35.0,456.0,-228.0,-740.0,565.0
-57.0,-202.0,120.0,1179.0,-33.0,459.0,-240.0,-741.0,576.0
-55.0,-193.0,124.0,1179.0,-35.0,454.0,-229.0,-718.0,582.0
-54.0,-190.0,122.0,1191.0,-44.0,454.0,-226.0,-707.0,586.0
-58.0,-183.0,124.0,1205.0,-53.0,463.0,-235.0,-688.0,597.0
-59.0,-177.0,124.0,1229.0,-61.0,459.0,-241.0,-670.0,593.0
-54.0,-172.0,128.0,1250.0,-63.0,466.0,-226.0,-639.0,598.0
-62.0,-170.0,127.0,1260.0,-64.0,472.0,-249.0,-638.0,597.0
-54.0,-158.0,131.0,1252.0,-59.0,468.0,-224.0,-610.0,623.0
-49.0,-166.0,125.0,1247.0,-64.0,469.0,-203.0,-623.0,594.0
-39.0,-166.0,125.0,1242.0,-70.0,458.0,-169.0,-635.0,590.0
-40.0,-171.0,122.0,1239.0,-73.0,437.0,-139.0,-652.0,599.0
-34.0,-166.0,123.0,1254.0,-64.0,412.0,-151.0,-630.0,590.0
-27.0,-159.0,112.0,1257.0,-65.0,394.0,-116.0,-600.0,560.0
-26.0,-149.0,106.0,1256.0,-68.0,368.0,-112.0,-561.0,524.0
-32.0,-150.0,84.0,1258.0,-73.0,361.0,-127.0,-577.0,446.0
-36.0,-160.0,87.0,1236.0,-68.0,381.0,-154.0,-621.0,444.0
-49.0,-171.0,107.0,1215.0,-62.0,397.0,-196.0,-639.0,508.0
-55.0,-176.0,116.0,1243.0,-65.0,405.0,-221.0,-656.0,550.0
-69.0,-181.0,127.0,1312.0,-78.0,421.0,-259.0,-658.0,581.0
-82.0,-186.0,124.0,1406.0,-116.0,450.0,-324.0,-684.0,598.0
-87.0,-179.0,129.0,1487.0,-135.0,448.0,-346.0,-661.0,628.0
-83.0,-164.0,141.0,1543.0,-157.0,446.0,-335.0,-619.0,672.0
-89.0,-155.0,145.0,1569.0,-179.0,441.0,-348.0,-593.0,673.0
-90.0,-151.0,147.0,1565.0,-198.0,437.0,-355.0,-567.0,675.0
-80.0,-141.0,148.0,1544.0,-214.0,416.0,-334.0,-529.0,699.0
-76.0,-134.0,147.0,1527.0,-238.0,398.0,-293.0,-493.0,702.0
-70.0,-118.0,161.0,1514.0,-256.0,379.0,-282.0,-482.0,693.0
-70.0,-115.0,155.0,1487.0,-290.0,370.0,-254.0,-424.0,697.0
-62.0,-117.0,142.0,1481.0,-332.0,363.0,-234.0,-433.0,669.0
-50.0,-106.0,148.0,1485.0,-346.0,362.0,-186.0,-397.0,698.0
-50.0,-103.0,145.0,1513.0,-351.0,387.0,-204.0,-391.0,671.0
-52.0,-110.0,141.0,1522.0,-345.0,394.0,-210.0,-408.0,661.0
-52.0,-111.0,136.0,1522.0,-336.0,385.0,-206.0,-415.0,660.0
-62.0,-116.0,145.0,1514.0,-332.0,379.0,-239.0,-424.0,672.0
-64.0,-119.0,148.0,1506.0,-330.0,357.0,-249.0,-433.0,707.0
-66.0,-119.0,158.0,1495.0,-333.0,337.0,-244.0,-440.0,713.0
-66.0,-120.0,150.0,1489.0,-340.0,326.0,-249.0,-437.0,708.0
-64.0,-111.0,147.0,1485.0,-334.0,312.0,-248.0,-412.0,689.0
-68.0,-102.0,144.0,1478.0,-325.0,321.0,-266.0,-392.0,676.0
-65.0,-105.0,141.0,1471.0,-312.0,333.0,-262.0,-389.0,657.0
-61.0,-101.0,143.0,1461.0,-290.0,337.0,-238.0,-351.0,676.0
-78.0,-98.0,126.0,1478.0,-278.0,355.0,-322.0,-364.0,604.0
-71.0,-94.0,136.0,1488.0,-308.0,341.0,-281.0,-344.0,643.0
-69.0,-89.0,139.0,1502.0,-328.0,347.0,-261.0,-331.0,654.0
-68.0,-92.0,146.0,1521.0,-345.0,362.0,-263.0,-337.0,673.0
-77.0,-121.0,124.0,1536.0,-367.0,380.0,-336.0,-423.0,640.0
-69.0,-95.0,159.0,1535.0,-392.0,353.0,-264.0,-349.0,729.0
-66.0,-103.0,158.0,1548.0,-426.0,364.0,-244.0,-376.0,719.0
-63.0,-103.0,159.0,1538.0,-451.0,364.0,-241.0,-374.0,741.0
-60.0,-99.0,155.0,1534.0,-477.0,371.0,-217.0,-372.0,727.0
-51.0,-97.0,154.0,1540.0,-493.0,373.0,-201.0,-369.0,709.0
-40.0,-82.0,163.0,1547.0,-506.0,359.0,-144.0,-299.0,741.0
-29.0,-79.0,164.0,1560.0,-526.0,345.0,-128.0,-285.0,739.0
-32.0,-72.0,161.0,1575.0,-525.0,320.0,-113.0,-241.0,763.0
-28.0,-51.0,162.0,1602.0,-536.0,309.0,-91.0,-180.0,744.0
-18.0,-37.0,144.0,1616.0,-562.0,310.0,-63.0,-154.0,693.0
-12.0,-35.0,143.0,1621.0,-570.0,302.0,-54.0,-122.0,663.0
-12.0,-35.0,137.0,1625.0,-565.0,290.0,-47.0,-113.0,643.0
-8.0,-31.0,131.0,1636.0,-553.0,262.0,-40.0,-101.0,627.0
-7.0,-27.0,130.0,1658.0,-542.0,241.0,-18.0,-93.0,604.0
-4.0,-22.0,132.0,1686.0,-527.0,222.0,-19.0,-76.0,633.0
-6.0,-26.0,144.0,1717.0,-505.0,220.0,-33.0,-80.0,654.0
-10.0,-21.0,151.0,1752.0,-484.0,220.0,-39.0,-84.0,682.0
-12.0,-20.0,148.0,1791.0,-470.0,228.0,-44.0,-73.0,697.0
-19.0,-11.0,155.0,1820.0,-450.0,225.0,-81.0,-19.0,720.0
-24.0,6.0,160.0,1829.0,-441.0,224.0,-84.0,32.0,722.0
-26.0,10.0,141.0,1815.0,-447.0,221.0,-90.0,40.0,655.0
-31.0,11.0,114.0,1775.0,-451.0,227.0,-113.0,40.0,558.0
-29.0,22.0,109.0,1722.0,-448.0,243.0,-96.0,89.0,531.0
-12.0,16.0,74.0,1684.0,-459.0,258.0,-72.0,70.0,416.0
15.0,41.0,77.0,1604.0,-481.0,225.0,91.0,52.0,435.0
-14.0,2.0,102.0,1573.0,-445.0,206.0,-59.0,37.0,482.0
-3.0,17.0,65.0,1617.0,-426.0,203.0,-11.0,70.0,376.0
-20.0,29.0,70.0,1624.0,-387.0,214.0,-85.0,143.0,393.0
-29.0,42.0,56.0,1655.0,-315.0,264.0,-100.0,153.0,344.0
13.0,42.0,67.0,1627.0,-266.0,296.0,33.0,137.0,317.0
39.0,15.0,81.0,1578.0,-236.0,276.0,129.0,102.0,398.0
33.0,5.0,127.0,1563.0,-176.0,263.0,114.0,45.0,576.0
26.0,-12.0,147.0,1612.0,-123.0,286.0,109.0,-58.0,677.0
8.0,-22.0,149.0,1651.0,-108.0,303.0,27.0,-94.0,696.0
6.0,-53.0,166.0,1638.0,-62.0,286.0,11.0,-196.0,762.0
-6.0,-63.0,193.0,1614.0,8.0,261.0,-25.0,-231.0,862.0
-9.0,-30.0,235.0,1609.0,64.0,232.0,-33.0,-120.0,1011.0
-69.0,-17.0,299.0,1638.0,106.0,227.0,-218.0,3.0,1289.0
-61.0,13.0,333.0,1745.0,148.0,273.0,-222.0,66.0,1427.0
-43.0,49.0,330.0,1800.0,92.0,331.0,-146.0,194.0,1404.0
-13.0,79.0,345.0,1750.0,30.0,315.0,-24.0,326.0,1452.0
-24.0,76.0,414.0,1744.0,-10.0,245.0,-82.0,324.0,1689.0
-35.0,80.0,514.0,1729.0,-47.0,174.0,-95.0,309.0,2069.0
-53.0,90.0,598.0,1633.0,-90.0,125.0,-180.0,353.0,2482.0
-45.0,113.0,671.0,1526.0,-126.0,46.0,-144.0,432.0,2742.0
-49.0,150.0,765.0,1388.0,-164.0,-54.0,-169.0,580.0,3059.0
-51.0,156.0,818.0,1233.0,-160.0,-188.0,-167.0,741.0,3416.0
-105.0,292.0,903.0,1025.0,-195.0,-354.0,-386.0,1196.0,3690.0
-136.0,410.0,958.0,707.0,-260.0,-520.0,-480.0,1602.0,3850.0
-164.0,528.0,946.0,167.0,-288.0,-685.0,-601.0,2027.0,3842.0
-183.0,570.0,894.0,-333.0,-181.0,-848.0,-675.0,2205.0,3664.0
-233.0,508.0,842.0,-770.0,23.0,-939.0,-838.0,2021.0,3444.0
-226.0,339.0,689.0,-1085.0,209.0,-948.0,-889.0,1435.0,2978.0
-167.0,121.0,520.0,-1387.0,396.0,-938.0,-708.0,655.0,2349.0
-152.0,-49.0,414.0,-1690.0,596.0,-912.0,-604.0,-164.0,1814.0
-118.0,-177.0,345.0,-1837.0,758.0,-816.0,-455.0,-575.0,1511.0
-126.0,-245.0,244.0,-1649.0,750.0,-656.0,-464.0,-880.0,1056.0
-96.0,-272.0,123.0,-1246.0,612.0,-450.0,-387.0,-989.0,607.0
-110.0,-281.0,95.0,-726.0,497.0,-178.0,-418.0,-1015.0,488.0
-72.0,-275.0,129.0,-254.0,382.0,-40.0,-281.0,-988.0,577.0
-70.0,-216.0,188.0,228.0,312.0,17.0,-268.0,-792.0,801.0
-38.0,-111.0,205.0,631.0,223.0,-22.0,-151.0,-378.0,917.0
-23.0,23.0,247.0,809.0,204.0,-53.0,-75.0,101.0,1063.0
-33.0,142.0,269.0,783.0,172.0,-107.0,-102.0,513.0,1162.0
-11.0,205.0,275.0,637.0,126.0,-144.0,-10.0,767.0,1188.0
-27.0,208.0,237.0,489.0,112.0,-139.0,-104.0,814.0,1045.0
-10.0,170.0,197.0,395.0,112.0,-112.0,-20.0,700.0,918.0
-12.0,112.0,159.0,380.0,136.0,-76.0,-34.0,501.0,767.0
0.0,75.0,145.0,426.0,154.0,-64.0,15.0,298.0,686.0
-11.0,17.0,134.0,478.0,177.0,-74.0,-23.0,62.0,644.0
-5.0,-14.0,142.0,547.0,213.0,-83.0,-8.0,-40.0,660.0
-15.0,-27.0,136.0,627.0,257.0,-88.0,-45.0,-96.0,658.0
-13.0,-24.0,129.0,705.0,255.0,-75.0,-36.0,-85.0,615.0
-11.0,1.0,125.0,765.0,229.0,-64.0,-22.0,5.0,586.0
-9.0,31.0,142.0,803.0,196.0,-54.0,-18.0,107.0,633.0
-6.0,50.0,142.0,832.0,182.0,-33.0,-14.0,212.0,673.0
-5.0,74.0,146.0,823.0,173.0,-24.0,7.0,283.0,687.0
2.0,86.0,141.0,773.0,147.0,-18.0,17.0,331.0,670.0
2.0,97.0,136.0,722.0,128.0,-16.0,19.0,362.0,644.0
3.0,104.0,134.0,669.0,114.0,-16.0,23.0,389.0,630.0
-1.0,108.0,133.0,608.0,101.0,-22.0,13.0,402.0,630.0
-8.0,112.0,139.0,536.0,98.0,-28.0,-2.0,416.0,655.0
-17.0,120.0,153.0,455.0,103.0,-46.0,-49.0,441.0,692.0
-25.0,120.0,164.0,351.0,120.0,-67.0,-95.0,463.0,748.0
-38.0,128.0,173.0,235.0,122.0,-93.0,-126.0,469.0,782.0
-40.0,123.0,193.0,104.0,117.0,-113.0,-159.0,468.0,844.0
-55.0,125.0,179.0,-18.0,106.0,-137.0,-179.0,470.0,814.0
-59.0,125.0,183.0,-152.0,82.0,-144.0,-207.0,478.0,817.0
-66.0,128.0,186.0,-254.0,62.0,-153.0,-239.0,483.0,824.0
-72.0,127.0,187.0,-336.0,37.0,-149.0,-246.0,478.0,836.0
-86.0,114.0,195.0,-408.0,7.0,-134.0,-316.0,456.0,870.0
-65.0,119.0,174.0,-441.0,-31.0,-42.0,-237.0,445.0,792.0
-82.0,119.0,198.0,-534.0,-20.0,-34.0,-285.0,445.0,863.0
-89.0,106.0,211.0,-614.0,-14.0,-47.0,-339.0,418.0,931.0
-89.0,94.0,210.0,-644.0,-26.0,-55.0,-331.0,385.0,936.0
-92.0,83.0,209.0,-680.0,-16.0,-63.0,-342.0,338.0,938.0
-85.0,73.0,211.0,-702.0,-7.0,-57.0,-326.0,303.0,936.0
-81.0,67.0,213.0,-702.0,14.0,-38.0,-299.0,259.0,935.0
-79.0,56.0,209.0,-679.0,41.0,-19.0,-299.0,240.0,917.0
-78.0,46.0,209.0,-635.0,57.0,5.0,-286.0,213.0,925.0
-74.0,43.0,208.0,-579.0,59.0,21.0,-272.0,195.0,916.0
-66.0,46.0,201.0,-526.0,71.0,29.0,-250.0,200.0,897.0
-59.0,45.0,200.0,-492.0,102.0,37.0,-239.0,204.0,893.0
-49.0,41.0,202.0,-472.0,128.0,51.0,-195.0,181.0,899.0
-54.0,42.0,196.0,-452.0,152.0,60.0,-206.0,170.0,874.0
-51.0,36.0,198.0,-434.0,185.0,73.0,-203.0,159.0,884.0
-55.0,29.0,212.0,-393.0,216.0,87.0,-210.0,141.0,938.0
-57.0,27.0,216.0,-363.0,228.0,99.0,-206.0,118.0,947.0
-45.0,20.0,221.0,-345.0,241.0,110.0,-167.0,99.0,978.0
-54.0,15.0,232.0,-320.0,250.0,122.0,-218.0,90.0,995.0
-56.0,14.0,234.0,-290.0,252.0,137.0,-206.0,90.0,1024.0
-53.0,10.0,240.0,-257.0,239.0,158.0,-199.0,58.0,1054.0
-50.0,6.0,237.0,-236.0,232.0,173.0,-183.0,35.0,1050.0
-53.0,0.0,245.0,-228.0,222.0,181.0,-185.0,23.0,1063.0
-52.0,-6.0,247.0,-228.0,219.0,197.0,-191.0,0.0,1085.0
-49.0,-3.0,254.0,-204.0,211.0,234.0,-200.0,15.0,1104.0
-50.0,-2.0,251.0,-170.0,210.0,243.0,-195.0,14.0,1099.0
-58.0,1.0,258.0,-147.0,231.0,246.0,-207.0,21.0,1116.0
-30.0,8.0,278.0,-135.0,220.0,254.0,-192.0,45.0,1159.0
-61.0,8.0,294.0,-19.0,239.0,260.0,-241.0,33.0,1208.0
-81.0,-10.0,245.0,-21.0,227.0,212.0,-312.0,-22.0,1096.0
-86.0,-1.0,264.0,-117.0,192.0,207.0,-300.0,9.0,1140.0
-80.0,-7.0,266.0,-186.0,105.0,214.0,-288.0,-1.0,1167.0
-73.0,-14.0,258.0,-212.0,0.0,207.0,-262.0,-17.0,1144.0
-70.0,-15.0,254.0,-238.0,-72.0,178.0,-256.0,-25.0,1112.0
-60.0,-13.0,254.0,-262.0,-139.0,159.0,-218.0,-34.0,1115.0
-48.0,-17.0,257.0,-257.0,-170.0,133.0,-201.0,-40.0,1119.0
-46.0,-20.0,254.0,-227.0,-162.0,114.0,-181.0,-49.0,1103.0
-47.0,-19.0,247.0,-196.0,-149.0,91.0,-168.0,-38.0,1078.0
-41.0,-16.0,245.0,-171.0,-150.0,63.0,-155.0,-20.0,1080.0
-36.0,-11.0,242.0,-138.0,-153.0,32.0,-158.0,-12.0,1071.0
-32.0,-8.0,242.0,-107.0,-143.0,15.0,-116.0,-6.0,1051.0
-26.0,-4.0,239.0,-82.0,-130.0,2.0,-102.0,14.0,1051.0
-23.0,1.0,245.0,-47.0,-114.0,-5.0,-85.0,41.0,1035.0
-18.0,2.0,230.0,-10.0,-77.0,-20.0,-95.0,43.0,1021.0
-29.0,7.0,236.0,11.0,-20.0,-33.0,-95.0,46.0,1024.0
-42.0,15.0,222.0,-17.0,-16.0,-54.0,-138.0,68.0,997.0
-43.0,19.0,232.0,-68.0,-35.0,-69.0,-147.0,80.0,1043.0
-50.0,19.0,238.0,-93.0,-63.0,-83.0,-174.0,83.0,1038.0
-33.0,12.0,240.0,-119.0,-92.0,-78.0,-122.0,72.0,1047.0
-41.0,16.0,232.0,-148.0,-125.0,-98.0,-149.0,80.0,1028.0
-56.0,20.0,221.0,-179.0,-135.0,-112.0,-211.0,90.0,991.0
-40.0,13.0,231.0,-214.0,-112.0,-104.0,-149.0,80.0,1001.0
-40.0,15.0,235.0,-235.0,-90.0,-99.0,-166.0,80.0,1014.0
-37.0,18.0,224.0,-240.0,-75.0,-110.0,-136.0,83.0,981.0
-38.0,19.0,216.0,-256.0,-60.0,-122.0,-126.0,88.0,961.0
-35.0,14.0,222.0,-269.0,-45.0,-113.0,-124.0,96.0,990.0
-27.0,17.0,217.0,-251.0,-46.0,-97.0,-105.0,89.0,957.0
-45.0,20.0,214.0,-244.0,-24.0,-115.0,-147.0,90.0,971.0
-46.0,18.0,223.0,-239.0,27.0,-122.0,-182.0,98.0,968.0
-46.0,18.0,221.0,-225.0,66.0,-106.0,-171.0,92.0,989.0
-43.0,19.0,224.0,-210.0,93.0,-87.0,-166.0,91.0,982.0
-50.0,18.0,237.0,-207.0,111.0,-101.0,-190.0,105.0,998.0
-43.0,20.0,227.0,-192.0,105.0,-109.0,-159.0,98.0,1004.0
-32.0,16.0,219.0,-170.0,100.0,-112.0,-148.0,97.0,991.0
-45.0,16.0,226.0,-155.0,123.0,-107.0,-178.0,89.0,1004.0
-51.0,13.0,230.0,-118.0,138.0,-97.0,-188.0,93.0,1005.0
-49.0,12.0,229.0,-70.0,119.0,-95.0,-181.0,74.0,1011.0
-54.0,18.0,232.0,-54.0,124.0,-115.0,-219.0,90.0,1022.0
-46.0,17.0,238.0,-68.0,151.0,-125.0,-174.0,87.0,1046.0
-42.0,18.0,237.0,-84.0,167.0,-101.0,-160.0,89.0,1029.0
-37.0,18.0,237.0,-85.0,157.0,-55.0,-139.0,80.0,1025.0
-47.0,15.0,231.0,-117.0,141.0,-24.0,-183.0,72.0,1024.0
-56.0,21.0,241.0,-183.0,172.0,-32.0,-224.0,87.0,1049.0
-61.0,20.0,238.0,-222.0,202.0,-36.0,-232.0,86.0,1039.0
-58.0,15.0,241.0,-262.0,211.0,-33.0,-223.0,91.0,1050.0
-55.0,13.0,247.0,-286.0,196.0,-35.0,-204.0,79.0,1076.0
-58.0,14.0,243.0,-285.0,176.0,-50.0,-217.0,72.0,1057.0
-54.0,26.0,232.0,-283.0,165.0,-78.0,-223.0,72.0,1054.0
-56.0,15.0,245.0,-296.0,175.0,-78.0,-215.0,74.0,1055.0
-59.0,13.0,241.0,-318.0,190.0,-82.0,-214.0,65.0,1062.0
-60.0,10.0,248.0,-341.0,183.0,-75.0,-220.0,62.0,1066.0
-63.0,9.0,243.0,-357.0,175.0,-69.0,-227.0,51.0,1065.0
-61.0,9.0,241.0,-364.0,151.0,-51.0,-232.0,54.0,1043.0
-63.0,4.0,239.0,-387.0,143.0,-37.0,-229.0,45.0,1045.0
-58.0,6.0,242.0,-407.0,145.0,-24.0,-223.0,45.0,1046.0
-61.0,1.0,246.0,-421.0,133.0,-17.0,-220.0,27.0,1059.0
-61.0,2.0,237.0,-425.0,104.0,-18.0,-225.0,29.0,1037.0
-65.0,-1.0,237.0,-443.0,93.0,-24.0,-245.0,17.0,1031.0
-59.0,3.0,235.0,-464.0,87.0,-19.0,-223.0,28.0,1032.0
-69.0,-7.0,250.0,-477.0,86.0,-14.0,-228.0,-15.0,1067.0
-64.0,-14.0,253.0,-500.0,43.0,-9.0,-227.0,-10.0,1104.0
-57.0,-13.0,256.0,-482.0,2.0,-25.0,-209.0,-2.0,1057.0
-59.0,-13.0,247.0,-441.0,3.0,-26.0,-234.0,-27.0,1100.0
-61.0,-11.0,251.0,-387.0,-11.0,-15.0,-240.0,-13.0,1083.0
-62.0,-9.0,250.0,-330.0,-14.0,20.0,-230.0,-12.0,1082.0
-60.0,-1.0,248.0,-277.0,-11.0,51.0,-232.0,2.0,1076.0
-61.0,-10.0,250.0,-224.0,-28.0,85.0,-209.0,-18.0,1120.0
-56.0,-5.0,243.0,-196.0,-84.0,84.0,-230.0,-5.0,1056.0
-57.0,-5.0,237.0,-201.0,-76.0,76.0,-212.0,8.0,1040.0
-62.0,-2.0,243.0,-229.0,-26.0,49.0,-230.0,18.0,1052.0
-60.0,-8.0,238.0,-254.0,14.0,50.0,-219.0,-26.0,1034.0
-61.0,-9.0,247.0,-326.0,13.0,45.0,-240.0,-22.0,1048.0
-61.0,-19.0,258.0,-359.0,-30.0,54.0,-233.0,-39.0,1103.0
-61.0,-9.0,233.0,-377.0,-83.0,45.0,-239.0,-14.0,1029.0
-58.0,-19.0,229.0,-417.0,-20.0,55.0,-237.0,-43.0,1013.0
-62.0,-15.0,237.0,-436.0,105.0,46.0,-245.0,-38.0,1040.0
-74.0,-15.0,239.0,-415.0,179.0,56.0,-260.0,-39.0,1050.0
-61.0,-23.0,241.0,-380.0,179.0,76.0,-229.0,-47.0,1056.0
-59.0,-20.0,244.0,-359.0,143.0,82.0,-234.0,-45.0,1064.0
-64.0,-20.0,246.0,-335.0,120.0,54.0,-228.0,-59.0,1068.0
-54.0,-21.0,233.0,-331.0,68.0,31.0,-206.0,-60.0,1027.0
-47.0,-14.0,236.0,-334.0,40.0,-1.0,-188.0,-30.0,1017.0
-46.0,-17.0,217.0,-356.0,42.0,-15.0,-180.0,-38.0,978.0
-51.0,-9.0,218.0,-373.0,88.0,-39.0,-192.0,-10.0,970.0
-49.0,-8.0,211.0,-385.0,128.0,-54.0,-196.0,-10.0,914.0
-36.0,-5.0,220.0,-432.0,135.0,-72.0,-149.0,4.0,981.0
-44.0,-4.0,211.0,-447.0,149.0,-97.0,-158.0,-7.0,953.0
-38.0,-19.0,208.0,-471.0,162.0,-103.0,-144.0,-51.0,946.0
-39.0,-36.0,215.0,-506.0,171.0,-98.0,-157.0,-99.0,974.0
-29.0,-61.0,244.0,-525.0,172.0,-104.0,-111.0,-202.0,1021.0
-33.0,-81.0,230.0,-507.0,163.0,-131.0,-144.0,-287.0,945.0
-45.0,-93.0,210.0,-495.0,202.0,-156.0,-178.0,-349.0,947.0
-47.0,-104.0,226.0,-465.0,229.0,-144.0,-179.0,-386.0,1001.0
-54.0,-103.0,208.0,-386.0,213.0,-138.0,-205.0,-398.0,929.0
-48.0,-101.0,218.0,-337.0,199.0,-120.0,-190.0,-368.0,970.0
-59.0,-96.0,218.0,-304.0,195.0,-121.0,-201.0,-366.0,972.0
-59.0,-98.0,225.0,-291.0,137.0,-78.0,-232.0,-361.0,982.0
-69.0,-90.0,214.0,-282.0,57.0,-14.0,-236.0,-333.0,956.0
-74.0,-101.0,209.0,-266.0,5.0,66.0,-297.0,-353.0,942.0
-76.0,-122.0,206.0,-261.0,-42.0,121.0,-283.0,-445.0,919.0
-77.0,-127.0,201.0,-254.0,-92.0,147.0,-297.0,-467.0,899.0
-73.0,-134.0,186.0,-212.0,-117.0,140.0,-287.0,-493.0,842.0
-69.0,-138.0,185.0,-162.0,-123.0,131.0,-264.0,-493.0,821.0
-61.0,-131.0,175.0,-107.0,-121.0,105.0,-239.0,-487.0,805.0
-61.0,-138.0,182.0,-50.0,-109.0,91.0,-242.0,-512.0,808.0
-61.0,-132.0,171.0,14.0,-104.0,82.0,-242.0,-492.0,804.0
-55.0,-131.0,180.0,84.0,-103.0,77.0,-228.0,-478.0,808.0
-61.0,-125.0,188.0,154.0,-114.0,59.0,-240.0,-462.0,831.0
-62.0,-118.0,190.0,249.0,-135.0,56.0,-237.0,-422.0,855.0
-63.0,-96.0,194.0,324.0,-158.0,43.0,-229.0,-347.0,865.0
-58.0,-73.0,195.0,386.0,-184.0,38.0,-228.0,-273.0,888.0
-54.0,-54.0,200.0,431.0,-222.0,30.0,-207.0,-197.0,891.0
-48.0,-38.0,200.0,448.0,-254.0,32.0,-191.0,-143.0,896.0
-43.0,-21.0,200.0,440.0,-282.0,29.0,-157.0,-83.0,889.0
-38.0,-19.0,199.0,406.0,-303.0,32.0,-140.0,-59.0,895.0
-14.0,-23.0,199.0,360.0,-321.0,28.0,-17.0,-83.0,908.0
-27.0,-17.0,205.0,306.0,-355.0,-3.0,-128.0,-49.0,924.0
-28.0,-10.0,209.0,260.0,-373.0,3.0,-114.0,-35.0,935.0
-22.0,-18.0,210.0,200.0,-343.0,30.0,-89.0,-47.0,949.0
-1.0,-24.0,218.0,142.0,-287.0,38.0,-20.0,-89.0,969.0
0.0,-32.0,223.0,83.0,-224.0,28.0,-1.0,-112.0,985.0
5.0,-37.0,226.0,28.0,-171.0,25.0,16.0,-135.0,989.0
5.0,-35.0,221.0,-6.0,-115.0,37.0,9.0,-133.0,981.0
2.0,-41.0,218.0,-33.0,-48.0,36.0,12.0,-140.0,965.0
1.0,-38.0,214.0,-51.0,15.0,41.0,-6.0,-131.0,962.0
-7.0,-29.0,219.0,-57.0,67.0,47.0,-6.0,-111.0,975.0
-8.0,-25.0,221.0,-41.0,116.0,61.0,-20.0,-85.0,987.0
-12.0,-21.0,224.0,7.0,140.0,72.0,-51.0,-61.0,1014.0
-12.0,-20.0,231.0,73.0,152.0,82.0,-52.0,-42.0,1019.0
-9.0,-14.0,235.0,149.0,166.0,75.0,-16.0,-13.0,1040.0
-5.0,-4.0,242.0,229.0,186.0,73.0,-9.0,13.0,1047.0
-5.0,-2.0,239.0,320.0,204.0,72.0,-10.0,25.0,1051.0
-21.0,5.0,239.0,409.0,212.0,73.0,-73.0,44.0,1049.0
-23.0,11.0,244.0,482.0,208.0,76.0,-98.0,83.0,1052.0
-17.0,15.0,240.0,553.0,193.0,67.0,-71.0,93.0,1049.0
-16.0,32.0,243.0,632.0,152.0,-5.0,-53.0,133.0,1053.0
-11.0,34.0,241.0,690.0,144.0,-6.0,-41.0,145.0,1053.0
-18.0,44.0,241.0,702.0,151.0,22.0,-63.0,182.0,1055.0
-36.0,48.0,234.0,679.0,137.0,69.0,-106.0,193.0,1032.0
-26.0,48.0,236.0,610.0,113.0,94.0,-105.0,195.0,1018.0
-31.0,55.0,232.0,530.0,103.0,91.0,-119.0,215.0,1024.0
-37.0,45.0,225.0,455.0,104.0,69.0,-132.0,175.0,1000.0
-42.0,31.0,215.0,385.0,113.0,47.0,-144.0,131.0,972.0
-38.0,33.0,232.0,306.0,118.0,-1.0,-139.0,132.0,1005.0
-41.0,36.0,227.0,252.0,115.0,-31.0,-145.0,143.0,990.0
-51.0,35.0,220.0,223.0,113.0,-51.0,-189.0,150.0,960.0
-59.0,31.0,215.0,193.0,119.0,-56.0,-223.0,140.0,954.0
-60.0,28.0,229.0,162.0,126.0,-78.0,-233.0,130.0,998.0
-65.0,14.0,229.0,155.0,126.0,-94.0,-240.0,83.0,1018.0
-64.0,19.0,241.0,154.0,130.0,-113.0,-242.0,96.0,1028.0
-58.0,19.0,239.0,156.0,117.0,-102.0,-216.0,93.0,1041.0
-58.0,18.0,239.0,141.0,93.0,-84.0,-223.0,87.0,1047.0
-56.0,3.0,247.0,115.0,67.0,-64.0,-206.0,41.0,1063.0
-61.0,11.0,239.0,104.0,64.0,-72.0,-230.0,49.0,1040.0
-73.0,8.0,243.0,97.0,68.0,-63.0,-270.0,46.0,1043.0
-73.0,6.0,236.0,104.0,78.0,-40.0,-274.0,36.0,1031.0
-73.0,0.0,242.0,111.0,100.0,-16.0,-273.0,30.0,1036.0
-66.0,-4.0,241.0,113.0,120.0,-8.0,-250.0,11.0,1038.0
-66.0,-7.0,238.0,115.0,124.0,-5.0,-248.0,1.0,1038.0
-61.0,-15.0,237.0,126.0,118.0,-26.0,-235.0,-24.0,1027.0
-70.0,-11.0,231.0,136.0,111.0,-50.0,-251.0,-19.0,1015.0
-75.0,-8.0,234.0,131.0,113.0,-54.0,-283.0,-5.0,1028.0
-76.0,-6.0,235.0,122.0,118.0,-33.0,-283.0,-6.0,1016.0
-64.0,-17.0,240.0,94.0,128.0,-11.0,-256.0,-44.0,1045.0
-66.0,-19.0,237.0,71.0,147.0,-9.0,-239.0,-42.0,1039.0
-70.0,-18.0,234.0,71.0,149.0,-9.0,-248.0,-39.0,1026.0
-65.0,-16.0,229.0,66.0,147.0,-2.0,-246.0,-51.0,1007.0
-68.0,-20.0,230.0,49.0,145.0,-6.0,-252.0,-51.0,1017.0
-61.0,-21.0,228.0,41.0,140.0,-3.0,-238.0,-62.0,1021.0
-63.0,-20.0,230.0,33.0,136.0,-5.0,-241.0,-63.0,1022.0
-61.0,-19.0,230.0,32.0,131.0,3.0,-235.0,-55.0,1008.0
-63.0,-23.0,227.0,32.0,118.0,10.0,-228.0,-77.0,1002.0
-63.0,-25.0,228.0,34.0,104.0,20.0,-227.0,-91.0,1006.0
-62.0,-29.0,227.0,47.0,91.0,11.0,-238.0,-87.0,1001.0
-58.0,-26.0,227.0,67.0,80.0,10.0,-225.0,-83.0,1001.0
-58.0,-26.0,225.0,94.0,67.0,15.0,-219.0,-77.0,995.0
-57.0,-20.0,225.0,121.0,49.0,24.0,-215.0,-75.0,992.0
-53.0,-21.0,226.0,153.0,31.0,29.0,-208.0,-72.0,978.0
-56.0,-19.0,220.0,189.0,20.0,45.0,-200.0,-66.0,986.0
-51.0,-20.0,220.0,222.0,12.0,51.0,-181.0,-61.0,982.0
-28.0,-21.0,226.0,254.0,-15.0,46.0,-95.0,-56.0,996.0
-44.0,-13.0,213.0,287.0,-98.0,27.0,-178.0,-30.0,954.0
-53.0,-16.0,219.0,307.0,-110.0,77.0,-210.0,-42.0,966.0
-54.0,-19.0,219.0,331.0,-61.0,97.0,-212.0,-54.0,968.0
-56.0,-20.0,223.0,336.0,-19.0,84.0,-216.0,-59.0,983.0
-49.0,-14.0,224.0,312.0,5.0,34.0,-199.0,-37.0,980.0
-42.0,-7.0,226.0,269.0,18.0,1.0,-159.0,-4.0,983.0
-40.0,-5.0,221.0,220.0,14.0,-21.0,-146.0,-2.0,974.0
-41.0,-4.0,218.0,180.0,-1.0,-24.0,-136.0,2.0,967.0
-36.0,-6.0,217.0,144.0,-13.0,-17.0,-134.0,-1.0,959.0
-37.0,-6.0,219.0,113.0,-18.0,-14.0,-129.0,-5.0,971.0
-34.0,-7.0,222.0,94.0,-20.0,-14.0,-128.0,-5.0,974.0
-34.0,-8.0,222.0,75.0,-15.0,-12.0,-126.0,0.0,975.0
-34.0,-7.0,222.0,66.0,-16.0,-17.0,-122.0,-7.0,977.0
-34.0,-8.0,223.0,58.0,-9.0,-19.0,-122.0,-2.0,985.0
-34.0,-6.0,228.0,56.0,-3.0,-26.0,-132.0,7.0,991.0
-35.0,-3.0,225.0,56.0,1.0,-26.0,-122.0,8.0,992.0
-35.0,-1.0,226.0,57.0,2.0,-26.0,-123.0,14.0,1000.0
-35.0,-1.0,226.0,62.0,2.0,-19.0,-134.0,17.0,1001.0
-35.0,3.0,232.0,60.0,7.0,-24.0,-127.0,26.0,1009.0
-34.0,1.0,229.0,60.0,11.0,-23.0,-127.0,32.0,1010.0
-35.0,0.0,236.0,67.0,15.0,-18.0,-143.0,35.0,1013.0
-39.0,4.0,229.0,73.0,24.0,-19.0,-141.0,38.0,1019.0
-38.0,8.0,236.0,71.0,25.0,-21.0,-136.0,46.0,1034.0
-38.0,5.0,232.0,74.0,24.0,-22.0,-156.0,48.0,1029.0
-41.0,8.0,232.0,84.0,26.0,-24.0,-152.0,47.0,1033.0
-36.0,6.0,234.0,96.0,22.0,-23.0,-138.0,63.0,1032.0
-18.0,9.0,239.0,109.0,16.0,-32.0,-40.0,54.0,1048.0
-35.0,9.0,231.0,138.0,-33.0,-75.0,-139.0,70.0,1016.0
-49.0,18.0,230.0,147.0,-62.0,-77.0,-185.0,84.0,1004.0
-54.0,12.0,234.0,145.0,-42.0,-35.0,-207.0,65.0,1032.0
-55.0,13.0,238.0,128.0,-14.0,-26.0,-214.0,66.0,1032.0
-48.0,14.0,235.0,107.0,0.0,-29.0,-197.0,67.0,1043.0
-43.0,11.0,240.0,87.0,14.0,-28.0,-157.0,64.0,1049.0
-43.0,7.0,232.0,87.0,19.0,-24.0,-167.0,67.0,1038.0
-44.0,9.0,233.0,94.0,17.0,-18.0,-166.0,61.0,1019.0
-45.0,11.0,234.0,95.0,26.0,-9.0,-163.0,62.0,1033.0
-46.0,8.0,229.0,103.0,33.0,-8.0,-172.0,56.0,1018.0
-43.0,7.0,231.0,111.0,35.0,-2.0,-141.0,49.0,1021.0
-28.0,9.0,234.0,111.0,7.0,-50.0,-108.0,48.0,1021.0
-50.0,12.0,226.0,109.0,-46.0,-79.0,-183.0,56.0,996.0
-57.0,7.0,225.0,100.0,-37.0,-60.0,-224.0,45.0,995.0
-56.0,4.0,231.0,89.0,-1.0,-36.0,-227.0,37.0,1006.0
-57.0,4.0,230.0,76.0,30.0,-30.0,-205.0,37.0,1016.0
-49.0,2.0,227.0,65.0,45.0,-24.0,-178.0,32.0,1004.0
-43.0,4.0,227.0,54.0,48.0,-23.0,-169.0,24.0,1004.0
-46.0,3.0,230.0,43.0,52.0,-13.0,-163.0,25.0,1001.0
-46.0,1.0,231.0,36.0,61.0,-7.0,-167.0,27.0,998.0
-47.0,0.0,225.0,33.0,69.0,-3.0,-172.0,24.0,990.0
-43.0,0.0,229.0,31.0,74.0,-3.0,-171.0,21.0,998.0
-43.0,-2.0,226.0,31.0,76.0,-1.0,-167.0,24.0,991.0
-45.0,3.0,224.0,31.0,81.0,0.0,-166.0,24.0,995.0
-44.0,-2.0,228.0,30.0,84.0,4.0,-166.0,22.0,994.0
-46.0,-1.0,224.0,28.0,81.0,0.0,-171.0,16.0,994.0
-44.0,1.0,227.0,31.0,80.0,-1.0,-170.0,21.0,991.0
-43.0,-4.0,225.0,32.0,77.0,-4.0,-166.0,19.0,993.0
-41.0,-1.0,229.0,33.0,77.0,-3.0,-166.0,21.0,991.0
-42.0,-3.0,228.0,36.0,77.0,-7.0,-167.0,18.0,998.0
-44.0,-5.0,226.0,41.0,76.0,-8.0,-160.0,18.0,1001.0
-47.0,0.0,227.0,60.0,71.0,-12.0,-164.0,18.0,995.0
-44.0,4.0,224.0,70.0,67.0,-6.0,-163.0,24.0,991.0
-45.0,0.0,230.0,69.0,66.0,-10.0,-161.0,17.0,1006.0
-46.0,5.0,226.0,75.0,62.0,-12.0,-162.0,32.0,995.0
-44.0,6.0,228.0,69.0,58.0,-14.0,-164.0,37.0,1003.0
-44.0,2.0,228.0,66.0,50.0,-12.0,-166.0,32.0,1005.0
-41.0,2.0,229.0,63.0,39.0,-15.0,-156.0,30.0,1003.0
-41.0,3.0,226.0,61.0,39.0,-18.0,-161.0,33.0,1005.0
-44.0,8.0,228.0,67.0,42.0,-17.0,-163.0,38.0,999.0
-41.0,7.0,228.0,69.0,38.0,-13.0,-159.0,38.0,1003.0
-43.0,6.0,228.0,67.0,33.0,-16.0,-162.0,42.0,1005.0
-42.0,7.0,231.0,65.0,25.0,-15.0,-159.0,40.0,1008.0
-28.0,4.0,233.0,68.0,16.0,-26.0,-70.0,46.0,1019.0
-43.0,5.0,228.0,85.0,-30.0,-54.0,-153.0,48.0,996.0
-47.0,6.0,226.0,99.0,-49.0,-45.0,-192.0,46.0,992.0
-50.0,3.0,235.0,105.0,-30.0,-16.0,-185.0,33.0,1017.0
-48.0,4.0,228.0,112.0,-6.0,-15.0,-184.0,42.0,1006.0
-43.0,9.0,229.0,112.0,13.0,-22.0,-166.0,61.0,1003.0
-42.0,14.0,225.0,102.0,21.0,-31.0,-156.0,65.0,1013.0
-40.0,10.0,230.0,88.0,18.0,-23.0,-154.0,62.0,1014.0
-39.0,12.0,229.0,79.0,7.0,-34.0,-156.0,66.0,1001.0
-44.0,10.0,228.0,71.0,3.0,-31.0,-164.0,63.0,1010.0
-45.0,13.0,230.0,66.0,1.0,-27.0,-169.0,64.0,1018.0
-44.0,11.0,230.0,61.0,7.0,-25.0,-160.0,60.0,1015.0
-44.0,13.0,229.0,58.0,11.0,-30.0,-157.0,65.0,1009.0
-41.0,14.0,230.0,52.0,12.0,-27.0,-156.0,70.0,1005.0
-41.0,12.0,229.0,49.0,10.0,-31.0,-156.0,62.0,1006.0
-38.0,9.0,232.0,43.0,9.0,-37.0,-160.0,66.0,1010.0
-44.0,11.0,229.0,43.0,12.0,-38.0,-153.0,56.0,1015.0
-42.0,13.0,227.0,45.0,20.0,-32.0,-160.0,64.0,1007.0
-40.0,11.0,226.0,42.0,31.0,-29.0,-164.0,64.0,1010.0
-44.0,9.0,229.0,35.0,41.0,-22.0,-159.0,52.0,1013.0
-41.0,13.0,230.0,28.0,55.0,-19.0,-156.0,59.0,1013.0
-41.0,13.0,229.0,21.0,64.0,-11.0,-151.0,65.0,1012.0
-43.0,12.0,229.0,7.0,63.0,-11.0,-152.0,64.0,1013.0
-39.0,10.0,230.0,-5.0,66.0,-7.0,-150.0,63.0,1010.0
-42.0,11.0,229.0,-15.0,67.0,-9.0,-149.0,62.0,1006.0
-38.0,-1.0,231.0,-19.0,68.0,-7.0,-150.0,59.0,1005.0
-45.0,2.0,231.0,-18.0,67.0,-12.0,-156.0,55.0,1005.0
-36.0,-1.0,240.0,-14.0,67.0,-8.0,-149.0,57.0,1002.0
-46.0,7.0,227.0,-11.0,67.0,-9.0,-152.0,51.0,1007.0
-34.0,1.0,218.0,-9.0,69.0,-6.0,-154.0,56.0,1001.0
-51.0,6.0,221.0,-7.0,70.0,-7.0,-156.0,48.0,1008.0
-32.0,15.0,219.0,-6.0,71.0,-5.0,-153.0,48.0,1007.0
-47.0,-1.0,237.0,-1.0,71.0,-9.0,-157.0,49.0,1003.0
-38.0,3.0,224.0,9.0,72.0,-10.0,-153.0,48.0,998.0
-45.0,9.0,229.0,20.0,74.0,-11.0,-157.0,49.0,997.0
-34.0,14.0,237.0,23.0,71.0,-8.0,-155.0,53.0,1007.0
-55.0,10.0,227.0,20.0,68.0,-12.0,-159.0,54.0,1012.0
-48.0,4.0,225.0,15.0,67.0,-8.0,-156.0,44.0,1010.0
-51.0,8.0,221.0,6.0,67.0,-10.0,-162.0,45.0,1016.0
-35.0,2.0,246.0,0.0,69.0,-7.0,-162.0,46.0,1011.0
-47.0,10.0,241.0,-4.0,72.0,-9.0,-161.0,47.0,1009.0
-37.0,9.0,234.0,-7.0,72.0,-4.0,-161.0,47.0,1018.0
-43.0,8.0,228.0,-8.0,72.0,-5.0,-161.0,46.0,1005.0
-42.0,6.0,230.0,-6.0,73.0,-2.0,-159.0,47.0,1000.0
-42.0,8.0,229.0,0.0,70.0,-5.0,-161.0,45.0,997.0
-41.0,7.0,226.0,7.0,68.0,1.0,-158.0,46.0,1000.0
-41.0,10.0,224.0,11.0,65.0,-2.0,-158.0,48.0,995.0
-45.0,11.0,227.0,20.0,61.0,3.0,-160.0,52.0,994.0
-38.0,7.0,225.0,26.0,59.0,2.0,-160.0,51.0,988.0
-42.0,9.0,224.0,31.0,60.0,-3.0,-159.0,53.0,999.0
-34.0,11.0,228.0,39.0,60.0,-9.0,-143.0,56.0,1005.0
-37.0,12.0,232.0,56.0,35.0,-28.0,-97.0,65.0,995.0
-49.0,10.0,225.0,65.0,-25.0,-53.0,-185.0,63.0,983.0
-46.0,9.0,223.0,74.0,-21.0,-22.0,-197.0,52.0,991.0
-46.0,5.0,230.0,82.0,23.0,-13.0,-178.0,46.0,1007.0
-44.0,11.0,232.0,88.0,53.0,-11.0,-167.0,56.0,1015.0
-44.0,12.0,231.0,87.0,64.0,-15.0,-156.0,68.0,1005.0
-44.0,17.0,229.0,79.0,68.0,-11.0,-159.0,79.0,1004.0
-43.0,18.0,231.0,65.0,67.0,-10.0,-150.0,76.0,1007.0
-42.0,10.0,231.0,57.0,61.0,-5.0,-162.0,65.0,1000.0
-43.0,14.0,228.0,48.0,61.0,-9.0,-155.0,63.0,1007.0
-39.0,11.0,232.0,40.0,67.0,-11.0,-157.0,70.0,1008.0
-43.0,14.0,225.0,38.0,70.0,-13.0,-158.0,71.0,1009.0
-37.0,13.0,232.0,40.0,66.0,-9.0,-146.0,75.0,1010.0
-43.0,13.0,227.0,44.0,63.0,-8.0,-162.0,68.0,1001.0
-40.0,13.0,230.0,43.0,61.0,-5.0,-158.0,70.0,1002.0
-43.0,14.0,229.0,39.0,61.0,-10.0,-155.0,71.0,1006.0
-15.0,10.0,234.0,35.0,61.0,-13.0,-62.0,64.0,1023.0
-42.0,16.0,224.0,42.0,12.0,-51.0,-154.0,79.0,993.0
-52.0,16.0,222.0,44.0,-27.0,-47.0,-180.0,73.0,987.0
-48.0,8.0,229.0,44.0,-16.0,-26.0,-188.0,54.0,1008.0
-45.0,11.0,231.0,46.0,21.0,-14.0,-174.0,55.0,1019.0
-46.0,11.0,229.0,47.0,57.0,-20.0,-167.0,66.0,1015.0
-40.0,14.0,228.0,47.0,65.0,-19.0,-159.0,65.0,1019.0
-40.0,14.0,230.0,41.0,61.0,-17.0,-149.0,70.0,1009.0
-38.0,14.0,225.0,34.0,53.0,-15.0,-131.0,72.0,1007.0
-42.0,14.0,231.0,24.0,41.0,-21.0,-159.0,72.0,1002.0
-44.0,13.0,228.0,17.0,37.0,-16.0,-163.0,74.0,1001.0
-44.0,13.0,227.0,12.0,44.0,-16.0,-165.0,64.0,1006.0
-43.0,12.0,228.0,12.0,52.0,-12.0,-160.0,61.0,1015.0
-40.0,11.0,231.0,14.0,59.0,-13.0,-159.0,67.0,1011.0
-43.0,13.0,227.0,11.0,64.0,-6.0,-153.0,64.0,1008.0
-42.0,12.0,227.0,7.0,67.0,-4.0,-156.0,65.0,1007.0
-40.0,12.0,229.0,1.0,66.0,0.0,-157.0,70.0,999.0
-44.0,14.0,229.0,-1.0,67.0,0.0,-158.0,70.0,1011.0
-42.0,17.0,230.0,0.0,65.0,0.0,-154.0,67.0,996.0
-42.0,12.0,227.0,3.0,61.0,3.0,-156.0,62.0,997.0
-42.0,12.0,226.0,4.0,63.0,1.0,-157.0,63.0,999.0
-41.0,11.0,227.0,6.0,61.0,-4.0,-154.0,66.0,1001.0
-43.0,13.0,230.0,7.0,59.0,-1.0,-157.0,68.0,1000.0
-42.0,12.0,230.0,6.0,58.0,-2.0,-154.0,67.0,1005.0
-39.0,11.0,228.0,9.0,58.0,0.0,-154.0,71.0,1001.0
-41.0,10.0,228.0,8.0,56.0,0.0,-154.0,67.0,1007.0
-41.0,12.0,227.0,10.0,56.0,2.0,-155.0,77.0,1000.0
-42.0,15.0,228.0,7.0,57.0,0.0,-154.0,69.0,1004.0
-41.0,12.0,227.0,6.0,55.0,3.0,-160.0,65.0,999.0
-42.0,14.0,228.0,6.0,57.0,-1.0,-153.0,67.0,1006.0
-40.0,14.0,230.0,4.0,59.0,-1.0,-157.0,69.0,1005.0
-43.0,12.0,226.0,3.0,58.0,-5.0,-157.0,66.0,1002.0
-41.0,14.0,227.0,2.0,59.0,-4.0,-154.0,71.0,1007.0
-42.0,16.0,231.0,2.0,57.0,-7.0,-155.0,70.0,1003.0
-41.0,13.0,229.0,7.0,52.0,0.0,-156.0,67.0,1005.0
-41.0,13.0,229.0,11.0,53.0,-1.0,-156.0,66.0,1001.0
-41.0,14.0,226.0,9.0,58.0,-5.0,-155.0,70.0,1003.0
-41.0,14.0,228.0,7.0,59.0,-8.0,-155.0,74.0,1005.0
-41.0,14.0,229.0,6.0,58.0,-6.0,-156.0,77.0,1003.0
-43.0,16.0,229.0,4.0,56.0,-8.0,-155.0,74.0,1007.0
-40.0,13.0,225.0,4.0,52.0,-2.0,-160.0,75.0,1008.0
-43.0,15.0,231.0,5.0,49.0,0.0,-163.0,69.0,998.0
-40.0,14.0,230.0,1.0,52.0,-2.0,-157.0,73.0,1003.0
-42.0,11.0,226.0,-1.0,52.0,-6.0,-156.0,73.0,1009.0
-41.0,16.0,227.0,-2.0,51.0,-6.0,-156.0,73.0,1004.0
-42.0,11.0,229.0,-3.0,52.0,-7.0,-159.0,71.0,1005.0
-43.0,15.0,231.0,-2.0,53.0,-4.0,-148.0,82.0,1010.0
-39.0,14.0,226.0,3.0,47.0,-1.0,-156.0,72.0,1004.0
-44.0,14.0,229.0,3.0,50.0,-1.0,-159.0,68.0,1000.0
-43.0,12.0,229.0,1.0,51.0,-9.0,-159.0,74.0,1011.0
-25.0,14.0,230.0,-1.0,53.0,-7.0,-64.0,101.0,1012.0
-41.0,22.0,224.0,2.0,16.0,-38.0,-160.0,93.0,992.0
-46.0,15.0,223.0,0.0,-23.0,-11.0,-182.0,69.0,996.0
-50.0,8.0,234.0,5.0,0.0,1.0,-192.0,49.0,1010.0
-44.0,12.0,230.0,5.0,36.0,-2.0,-171.0,67.0,1014.0
-39.0,13.0,229.0,1.0,57.0,-7.0,-150.0,75.0,1011.0
-40.0,16.0,227.0,-10.0,58.0,-4.0,-155.0,83.0,1003.0
-44.0,13.0,228.0,-20.0,59.0,-6.0,-153.0,75.0,1002.0
-40.0,16.0,228.0,-26.0,62.0,-2.0,-154.0,72.0,1013.0
-42.0,13.0,228.0,-27.0,64.0,-5.0,-154.0,78.0,1004.0
-41.0,11.0,233.0,-24.0,64.0,-1.0,-153.0,73.0,1005.0
-39.0,16.0,228.0,-23.0,66.0,-4.0,-154.0,73.0,1011.0
-41.0,15.0,230.0,-23.0,67.0,-1.0,-156.0,72.0,1011.0
-38.0,13.0,229.0,-24.0,67.0,-4.0,-148.0,72.0,998.0
-38.0,13.0,228.0,-25.0,66.0,-2.0,-152.0,69.0,1005.0
-40.0,14.0,229.0,-26.0,65.0,-4.0,-150.0,71.0,1008.0
-41.0,14.0,227.0,-25.0,63.0,-1.0,-150.0,72.0,1004.0
-40.0,13.0,230.0,-26.0,63.0,-4.0,-156.0,75.0,1001.0
-41.0,15.0,233.0,-26.0,62.0,-1.0,-150.0,70.0,1005.0
-38.0,14.0,228.0,-26.0,62.0,-4.0,-152.0,73.0,1007.0
-41.0,11.0,228.0,-26.0,61.0,-1.0,-154.0,65.0,1003.0
-40.0,13.0,228.0,-25.0,60.0,-3.0,-153.0,74.0,1008.0
-43.0,13.0,230.0,-25.0,59.0,-1.0,-155.0,70.0,1003.0
-41.0,12.0,230.0,-23.0,61.0,-4.0,-154.0,72.0,1004.0
-42.0,15.0,228.0,-22.0,62.0,-2.0,-152.0,72.0,1003.0
-41.0,14.0,226.0,-22.0,62.0,-6.0,-156.0,74.0,1002.0
-38.0,11.0,228.0,-20.0,61.0,-2.0,-148.0,66.0,999.0
-39.0,11.0,231.0,-21.0,63.0,-5.0,-152.0,68.0,1006.0
-38.0,13.0,228.0,-21.0,61.0,-1.0,-155.0,70.0,1003.0
-41.0,14.0,230.0,-21.0,60.0,-4.0,-154.0,71.0,1003.0
-42.0,14.0,227.0,-20.0,62.0,-2.0,-152.0,68.0,1005.0
-42.0,13.0,231.0,-21.0,61.0,-4.0,-154.0,77.0,1003.0
-41.0,12.0,227.0,-21.0,61.0,-2.0,-156.0,69.0,1003.0
-42.0,13.0,229.0,-23.0,61.0,-4.0,-157.0,69.0,1004.0
-43.0,14.0,228.0,-23.0,61.0,-1.0,-159.0,70.0,1001.0
-42.0,13.0,232.0,-24.0,60.0,-4.0,-156.0,69.0,1001.0
-42.0,14.0,230.0,-25.0,60.0,-3.0,-157.0,70.0,1003.0
-43.0,14.0,227.0,-25.0,60.0,-5.0,-155.0,69.0,1001.0
-41.0,13.0,225.0,-24.0,60.0,-2.0,-156.0,72.0,1003.0
-25.0,18.0,229.0,-24.0,61.0,-4.0,-156.0,71.0,1006.0
-40.0,12.0,229.0,-25.0,60.0,-3.0,-159.0,69.0,1002.0
-42.0,15.0,227.0,-26.0,59.0,-5.0,-157.0,74.0,1007.0
-39.0,12.0,229.0,-27.0,60.0,-4.0,-157.0,72.0,1001.0
-40.0,15.0,228.0,-28.0,59.0,-5.0,-153.0,73.0,1005.0
-40.0,13.0,231.0,-29.0,59.0,-3.0,-156.0,76.0,1005.0
-42.0,14.0,231.0,-28.0,60.0,-5.0,-154.0,71.0,1007.0
-43.0,16.0,228.0,-30.0,61.0,-2.0,-156.0,73.0,1008.0
-42.0,16.0,226.0,-30.0,62.0,-5.0,-154.0,74.0,1006.0
-41.0,15.0,225.0,-30.0,62.0,-3.0,-153.0,68.0,1003.0
-45.0,13.0,224.0,-32.0,62.0,-4.0,-155.0,71.0,1004.0
-41.0,14.0,225.0,-32.0,64.0,-2.0,-154.0,70.0,998.0
-38.0,12.0,233.0,-33.0,64.0,-3.0,-156.0,71.0,1001.0
-42.0,13.0,229.0,-36.0,64.0,-2.0,-156.0,74.0,1011.0
-43.0,13.0,229.0,-35.0,65.0,-5.0,-153.0,68.0,1003.0
-38.0,13.0,229.0,-35.0,64.0,-3.0,-153.0,71.0,995.0
-42.0,15.0,228.0,-33.0,63.0,-6.0,-154.0,72.0,1003.0
-42.0,14.0,227.0,-32.0,64.0,-3.0,-151.0,70.0,1006.0
-43.0,13.0,228.0,-30.0,65.0,-6.0,-152.0,68.0,1004.0
-40.0,10.0,227.0,-29.0,66.0,-3.0,-149.0,71.0,1001.0
-41.0,15.0,229.0,-26.0,66.0,-6.0,-158.0,75.0,1004.0
-39.0,12.0,230.0,-27.0,66.0,-4.0,-157.0,67.0,1003.0
-41.0,10.0,232.0,-27.0,66.0,-5.0,-158.0,65.0,1003.0
-42.0,12.0,232.0,-29.0,65.0,-4.0,-158.0,66.0,1009.0
-40.0,12.0,227.0,-29.0,65.0,-6.0,-155.0,63.0,1006.0
-41.0,9.0,230.0,-29.0,64.0,-4.0,-159.0,67.0,1010.0
-42.0,12.0,232.0,-32.0,64.0,-8.0,-160.0,65.0,1008.0
-42.0,12.0,229.0,-35.0,64.0,-6.0,-162.0,65.0,1016.0
-43.0,8.0,227.0,-37.0,66.0,-8.0,-156.0,61.0,1008.0
-48.0,12.0,228.0,-39.0,66.0,-6.0,-172.0,75.0,1008.0
-36.0,8.0,226.0,-16.0,84.0,7.0,-130.0,49.0,991.0
-45.0,13.0,225.0,-20.0,74.0,-3.0,-168.0,68.0,995.0
-42.0,9.0,226.0,-25.0,70.0,-5.0,-155.0,64.0,999.0
-43.0,13.0,230.0,-21.0,68.0,-3.0,-158.0,63.0,992.0
-43.0,13.0,226.0,-19.0,65.0,-6.0,-158.0,70.0,993.0
-39.0,12.0,230.0,-22.0,62.0,-3.0,-158.0,69.0,1002.0
-42.0,15.0,224.0,-22.0,60.0,-5.0,-156.0,66.0,999.0
-43.0,12.0,230.0,-23.0,58.0,-1.0,-159.0,69.0,995.0
-42.0,15.0,227.0,-23.0,55.0,-4.0,-157.0,70.0,1003.0
-41.0,12.0,228.0,-22.0,57.0,-2.0,-155.0,68.0,1002.0
-41.0,12.0,230.0,-23.0,56.0,-3.0,-161.0,68.0,1003.0
-39.0,15.0,228.0,-21.0,59.0,-1.0,-152.0,72.0,1008.0
-40.0,13.0,230.0,-22.0,59.0,-1.0,-155.0,69.0,1006.0
-40.0,13.0,229.0,-22.0,58.0,0.0,-153.0,67.0,1008.0
-44.0,14.0,228.0,-23.0,59.0,-4.0,-157.0,71.0,1007.0
-40.0,14.0,230.0,-25.0,59.0,-2.0,-159.0,69.0,1014.0
-40.0,11.0,231.0,-26.0,61.0,-4.0,-157.0,66.0,1010.0
-41.0,13.0,232.0,-27.0,62.0,-3.0,-156.0,70.0,1004.0
-41.0,14.0,226.0,-26.0,61.0,-4.0,-154.0,68.0,1003.0
-40.0,12.0,228.0,-25.0,62.0,-2.0,-156.0,68.0,1003.0
-41.0,13.0,230.0,-23.0,62.0,-3.0,-155.0,65.0,1008.0
-42.0,14.0,227.0,-23.0,61.0,-1.0,-156.0,71.0,1000.0
-44.0,15.0,231.0,-22.0,63.0,-5.0,-154.0,65.0,1006.0
-44.0,14.0,229.0,-22.0,64.0,-2.0,-157.0,65.0,1007.0
-39.0,10.0,228.0,-20.0,64.0,-4.0,-157.0,67.0,1006.0
-39.0,14.0,228.0,-21.0,66.0,-2.0,-157.0,65.0,1005.0
-44.0,11.0,226.0,-22.0,65.0,-6.0,-152.0,67.0,1005.0
-40.0,11.0,228.0,-23.0,65.0,-2.0,-159.0,61.0,1011.0
-41.0,11.0,227.0,-23.0,65.0,-5.0,-156.0,66.0,1005.0
-40.0,10.0,227.0,-22.0,63.0,-4.0,-158.0,66.0,1003.0
-43.0,13.0,227.0,-22.0,65.0,-5.0,-154.0,65.0,1002.0
-41.0,11.0,229.0,-21.0,66.0,-3.0,-157.0,68.0,1001.0
-41.0,12.0,229.0,-20.0,64.0,-4.0,-155.0,63.0,1004.0
-41.0,11.0,228.0,-18.0,62.0,0.0,-158.0,66.0,1003.0
-42.0,9.0,227.0,-18.0,62.0,-3.0,-159.0,64.0,1001.0
-41.0,10.0,226.0,-20.0,61.0,-1.0,-156.0,65.0,1005.0
-41.0,11.0,226.0,-18.0,62.0,-2.0,-159.0,64.0,1003.0
-41.0,11.0,230.0,-19.0,62.0,-1.0,-156.0,63.0,1004.0
-42.0,12.0,226.0,-20.0,63.0,-4.0,-160.0,66.0,1007.0
-42.0,10.0,225.0,-22.0,63.0,0.0,-157.0,66.0,1007.0
-39.0,12.0,229.0,-21.0,62.0,-2.0,-156.0,66.0,1001.0
-40.0,12.0,230.0,-23.0,63.0,-1.0,-156.0,63.0,1001.0
-42.0,12.0,226.0,-23.0,64.0,-3.0,-157.0,61.0,999.0
-42.0,13.0,229.0,-22.0,63.0,-1.0,-158.0,68.0,998.0
-42.0,11.0,231.0,-21.0,63.0,-5.0,-156.0,64.0,1003.0
-38.0,13.0,227.0,-20.0,62.0,-2.0,-158.0,65.0,1006.0
-41.0,11.0,224.0,-20.0,61.0,-4.0,-158.0,71.0,1004.0
-40.0,13.0,230.0,-18.0,63.0,-2.0,-156.0,66.0,1003.0
-40.0,12.0,230.0,-18.0,63.0,-4.0,-155.0,69.0,1001.0
-42.0,11.0,230.0,-19.0,61.0,-2.0,-157.0,66.0,1001.0
-43.0,11.0,229.0,-21.0,60.0,-4.0,-157.0,59.0,1009.0
-42.0,8.0,225.0,-21.0,61.0,-2.0,-157.0,64.0,998.0
-41.0,14.0,230.0,-21.0,61.0,-6.0,-157.0,61.0,1008.0
-42.0,13.0,230.0,-23.0,59.0,-4.0,-159.0,67.0,1013.0
-40.0,13.0,230.0,-23.0,60.0,-7.0,-155.0,63.0,1007.0
-42.0,12.0,225.0,-26.0,60.0,-5.0,-153.0,70.0,1000.0
-40.0,10.0,228.0,-26.0,62.0,-8.0,-159.0,62.0,1001.0
-41.0,12.0,226.0,-25.0,62.0,-6.0,-159.0,61.0,1003.0
-40.0,13.0,231.0,-25.0,62.0,-7.0,-153.0,60.0,1008.0
-41.0,12.0,225.0,-24.0,62.0,-5.0,-157.0,58.0,999.0
-45.0,11.0,229.0,-23.0,61.0,-7.0,-156.0,70.0,1002.0
-41.0,10.0,228.0,-25.0,62.0,-3.0,-158.0,61.0,1003.0
-40.0,11.0,231.0,-25.0,60.0,-5.0,-160.0,62.0,1002.0
-41.0,8.0,228.0,-26.0,59.0,-3.0,-159.0,66.0,1001.0
-42.0,8.0,230.0,-25.0,59.0,-6.0,-158.0,68.0,1003.0
-41.0,10.0,227.0,-28.0,59.0,-5.0,-156.0,62.0,1004.0
-43.0,9.0,228.0,-26.0,60.0,-6.0,-159.0,65.0,1003.0
-41.0,13.0,228.0,-27.0,59.0,-3.0,-162.0,64.0,1002.0
-43.0,12.0,230.0,-26.0,59.0,-6.0,-158.0,63.0,1002.0
-43.0,12.0,231.0,-25.0,61.0,-3.0,-157.0,67.0,1005.0
-42.0,11.0,224.0,-26.0,62.0,-7.0,-158.0,66.0,1004.0
-42.0,11.0,226.0,-26.0,62.0,-4.0,-155.0,61.0,1003.0
-43.0,11.0,230.0,-26.0,62.0,-7.0,-158.0,65.0,1003.0
-44.0,11.0,229.0,-26.0,64.0,-4.0,-158.0,67.0,1003.0
-43.0,12.0,228.0,-27.0,63.0,-6.0,-162.0,66.0,1003.0
-45.0,14.0,233.0,-30.0,64.0,-4.0,-159.0,65.0,1006.0
-45.0,12.0,230.0,-32.0,62.0,-7.0,-160.0,64.0,1004.0
-40.0,11.0,226.0,-34.0,63.0,-4.0,-159.0,61.0,999.0
-40.0,11.0,226.0,-34.0,63.0,-7.0,-159.0,64.0,1004.0
-40.0,12.0,228.0,-36.0,64.0,-5.0,-160.0,63.0,1005.0
-42.0,10.0,229.0,-36.0,63.0,-6.0,-160.0,68.0,1004.0
-40.0,12.0,228.0,-36.0,62.0,-3.0,-161.0,64.0,1005.0
-41.0,9.0,230.0,-37.0,64.0,-5.0,-156.0,64.0,1004.0
-40.0,9.0,229.0,-38.0,66.0,-3.0,-158.0,59.0,1001.0
-44.0,12.0,231.0,-37.0,66.0,-4.0,-157.0,59.0,1000.0
-39.0,10.0,230.0,-38.0,69.0,-2.0,-158.0,59.0,997.0
-41.0,11.0,228.0,-39.0,68.0,-4.0,-158.0,55.0,1002.0
-41.0,10.0,228.0,-42.0,67.0,-2.0,-156.0,62.0,1006.0
-42.0,9.0,225.0,-42.0,67.0,-4.0,-159.0,61.0,1004.0
-41.0,9.0,228.0,-43.0,67.0,-1.0,-157.0,58.0,1001.0
-43.0,10.0,227.0,-42.0,68.0,-4.0,-157.0,59.0,1002.0
-42.0,13.0,229.0,-43.0,68.0,-2.0,-157.0,61.0,1007.0
-39.0,11.0,228.0,-42.0,66.0,-5.0,-155.0,59.0,1001.0
-42.0,11.0,227.0,-44.0,63.0,-3.0,-153.0,61.0,1004.0
-42.0,9.0,229.0,-44.0,64.0,-4.0,-158.0,59.0,1001.0
-41.0,10.0,227.0,-45.0,64.0,-2.0,-153.0,63.0,1005.0
-42.0,9.0,231.0,-45.0,64.0,-6.0,-159.0,60.0,1007.0
-43.0,10.0,230.0,-44.0,66.0,-6.0,-159.0,56.0,999.0
-40.0,10.0,230.0,-43.0,66.0,-7.0,-152.0,54.0,1002.0
-41.0,9.0,232.0,-42.0,65.0,-5.0,-158.0,57.0,1005.0
-39.0,7.0,230.0,-42.0,65.0,-9.0,-157.0,57.0,1003.0
-42.0,11.0,228.0,-41.0,64.0,-8.0,-155.0,50.0,1006.0
-45.0,8.0,226.0,-37.0,64.0,-9.0,-152.0,57.0,1005.0
-40.0,10.0,230.0,-35.0,64.0,-6.0,-153.0,56.0,1003.0
-44.0,10.0,228.0,-33.0,65.0,-8.0,-158.0,51.0,1001.0
-41.0,10.0,229.0,-31.0,64.0,-6.0,-160.0,55.0,1000.0
-45.0,8.0,225.0,-28.0,65.0,-7.0,-158.0,50.0,998.0
-40.0,8.0,227.0,-25.0,63.0,-5.0,-159.0,53.0,1004.0
-41.0,8.0,228.0,-23.0,63.0,-7.0,-161.0,49.0,1001.0
-43.0,9.0,229.0,-20.0,62.0,-4.0,-161.0,53.0,1003.0
-41.0,8.0,227.0,-17.0,63.0,-6.0,-157.0,56.0,995.0
-46.0,11.0,225.0,-15.0,62.0,-4.0,-160.0,55.0,995.0
-42.0,10.0,231.0,-11.0,61.0,-5.0,-162.0,57.0,996.0
-45.0,9.0,227.0,-9.0,62.0,-2.0,-163.0,53.0,1001.0
-43.0,9.0,224.0,-7.0,59.0,-3.0,-167.0,57.0,1001.0
-45.0,9.0,229.0,-8.0,59.0,-2.0,-161.0,55.0,1001.0
-44.0,11.0,228.0,-7.0,59.0,-3.0,-158.0,54.0,1001.0
-42.0,9.0,225.0,-6.0,59.0,-1.0,-158.0,58.0,1002.0
-42.0,12.0,227.0,-6.0,59.0,-2.0,-162.0,53.0,999.0
-45.0,12.0,224.0,-8.0,58.0,1.0,-162.0,56.0,1000.0
-42.0,9.0,229.0,-6.0,58.0,-1.0,-162.0,55.0,1003.0
-43.0,9.0,230.0,-6.0,59.0,2.0,-166.0,55.0,997.0
-45.0,13.0,224.0,-6.0,58.0,0.0,-160.0,51.0,1001.0
-45.0,10.0,226.0,-7.0,59.0,2.0,-164.0,51.0,1000.0
-44.0,8.0,226.0,-7.0,57.0,-1.0,-159.0,55.0,998.0
-44.0,10.0,228.0,-5.0,56.0,3.0,-159.0,53.0,996.0
-43.0,7.0,228.0,-6.0,56.0,2.0,-160.0,57.0,997.0
-42.0,10.0,227.0,-6.0,56.0,4.0,-161.0,61.0,1004.0
-41.0,10.0,228.0,-4.0,55.0,3.0,-160.0,55.0,1001.0
-43.0,12.0,227.0,-4.0,57.0,6.0,-157.0,57.0,1002.0
-42.0,11.0,224.0,-2.0,58.0,3.0,-158.0,51.0,1002.0
-44.0,9.0,224.0,0.0,56.0,4.0,-159.0,54.0,1000.0
-43.0,9.0,228.0,0.0,57.0,4.0,-154.0,61.0,1002.0
-41.0,11.0,229.0,2.0,57.0,5.0,-157.0,60.0,1002.0
-40.0,9.0,230.0,4.0,59.0,3.0,-157.0,58.0,1003.0
-39.0,8.0,230.0,3.0,58.0,6.0,-157.0,61.0,1005.0
-42.0,8.0,230.0,4.0,58.0,4.0,-158.0,57.0,1012.0
-43.0,6.0,228.0,5.0,59.0,6.0,-156.0,56.0,1001.0
-42.0,8.0,229.0,6.0,59.0,3.0,-157.0,61.0,1002.0
-44.0,8.0,230.0,5.0,58.0,5.0,-161.0,58.0,1007.0
-45.0,11.0,230.0,3.0,55.0,4.0,-159.0,53.0,1005.0
-42.0,11.0,228.0,2.0,53.0,4.0,-158.0,55.0,1010.0
-44.0,9.0,229.0,0.0,54.0,1.0,-161.0,54.0,1015.0
-42.0,9.0,232.0,-2.0,54.0,2.0,-160.0,57.0,1010.0
-44.0,13.0,230.0,-5.0,54.0,-2.0,-165.0,52.0,1005.0
-40.0,9.0,229.0,-7.0,54.0,0.0,-163.0,52.0,1010.0
-45.0,9.0,225.0,-6.0,58.0,-2.0,-159.0,53.0,1003.0
-45.0,9.0,229.0,-3.0,57.0,1.0,-164.0,57.0,998.0
-42.0,8.0,225.0,3.0,58.0,0.0,-160.0,55.0,998.0
-42.0,7.0,227.0,10.0,60.0,4.0,-155.0,57.0,1000.0
-44.0,11.0,228.0,14.0,60.0,3.0,-162.0,58.0,994.0
-43.0,11.0,225.0,18.0,59.0,7.0,-158.0,60.0,999.0
-41.0,9.0,229.0,16.0,57.0,5.0,-159.0,61.0,1003.0
-44.0,10.0,226.0,16.0,56.0,7.0,-157.0,65.0,1003.0
-43.0,14.0,229.0,13.0,55.0,6.0,-158.0,66.0,1002.0
-45.0,13.0,229.0,12.0,55.0,7.0,-161.0,65.0,1007.0
-43.0,10.0,226.0,11.0,54.0,5.0,-158.0,59.0,1002.0
-46.0,12.0,224.0,9.0,53.0,7.0,-156.0,64.0,1005.0
-42.0,13.0,230.0,9.0,53.0,5.0,-157.0,64.0,1006.0
-45.0,14.0,229.0,8.0,54.0,7.0,-160.0,66.0,1006.0
-44.0,14.0,230.0,6.0,53.0,5.0,-155.0,61.0,1003.0
-43.0,11.0,226.0,3.0,52.0,7.0,-158.0,63.0,1008.0
-44.0,11.0,225.0,1.0,53.0,5.0,-159.0,61.0,1008.0
-45.0,9.0,225.0,0.0,55.0,6.0,-154.0,70.0,1005.0
-41.0,12.0,228.0,-3.0,54.0,4.0,-162.0,63.0,1006.0
-41.0,10.0,230.0,-3.0,55.0,6.0,-163.0,66.0,1004.0
-43.0,11.0,228.0,-3.0,56.0,2.0,-159.0,64.0,999.0
-42.0,11.0,227.0,-2.0,57.0,3.0,-162.0,63.0,1007.0
-44.0,8.0,230.0,-1.0,57.0,1.0,-160.0,64.0,1004.0
-43.0,11.0,226.0,0.0,60.0,3.0,-159.0,64.0,1007.0
-41.0,10.0,226.0,1.0,58.0,1.0,-160.0,62.0,1004.0
-43.0,9.0,229.0,3.0,60.0,3.0,-155.0,62.0,1005.0
-44.0,10.0,229.0,3.0,60.0,2.0,-162.0,65.0,1004.0
-42.0,9.0,226.0,4.0,62.0,3.0,-159.0,61.0,1001.0
-45.0,11.0,227.0,5.0,61.0,1.0,-158.0,64.0,1006.0
-41.0,11.0,229.0,6.0,61.0,4.0,-159.0,54.0,1005.0
-42.0,13.0,226.0,6.0,62.0,2.0,-159.0,61.0,1004.0
-40.0,10.0,229.0,7.0,61.0,4.0,-158.0,65.0,1003.0
-42.0,13.0,231.0,5.0,62.0,2.0,-159.0,62.0,1006.0
-42.0,10.0,226.0,5.0,63.0,5.0,-162.0,57.0,1003.0
-43.0,11.0,228.0,3.0,63.0,3.0,-161.0,69.0,1005.0
-41.0,10.0,233.0,0.0,63.0,6.0,-157.0,62.0,1001.0
-41.0,10.0,228.0,-1.0,62.0,4.0,-159.0,63.0,1005.0
-42.0,13.0,228.0,-2.0,61.0,7.0,-160.0,60.0,1004.0
-41.0,8.0,227.0,-3.0,61.0,6.0,-161.0,63.0,1002.0
-42.0,11.0,229.0,-5.0,61.0,9.0,-159.0,60.0,1008.0
-43.0,11.0,231.0,-4.0,62.0,5.0,-162.0,66.0,1006.0
-42.0,10.0,229.0,-5.0,63.0,7.0,-158.0,66.0,1009.0
-43.0,11.0,228.0,-4.0,62.0,6.0,-158.0,67.0,1003.0
-44.0,11.0,223.0,-4.0,64.0,7.0,-160.0,66.0,1004.0
-41.0,12.0,227.0,-4.0,64.0,4.0,-161.0,65.0,1003.0
-44.0,12.0,227.0,-2.0,61.0,6.0,-158.0,67.0,1002.0
-44.0,11.0,232.0,-2.0,61.0,4.0,-161.0,64.0,1001.0
-41.0,12.0,223.0,0.0,60.0,6.0,-160.0,61.0,1000.0
-42.0,10.0,226.0,3.0,59.0,4.0,-159.0,61.0,1004.0
-44.0,12.0,226.0,5.0,57.0,6.0,-162.0,64.0,1001.0
-45.0,13.0,229.0,6.0,58.0,4.0,-162.0,62.0,1006.0
-43.0,14.0,228.0,7.0,57.0,5.0,-161.0,63.0,1002.0
-41.0,12.0,229.0,7.0,57.0,3.0,-157.0,62.0,1005.0
-45.0,9.0,228.0,7.0,57.0,5.0,-158.0,58.0,1001.0
-40.0,11.0,226.0,6.0,58.0,2.0,-158.0,66.0,1008.0
-43.0,11.0,220.0,7.0,57.0,4.0,-161.0,62.0,1005.0
-44.0,10.0,227.0,6.0,58.0,1.0,-158.0,63.0,1002.0
-41.0,11.0,226.0,6.0,59.0,3.0,-159.0,64.0,1003.0
-44.0,11.0,229.0,8.0,59.0,0.0,-159.0,62.0,1008.0
-44.0,12.0,227.0,9.0,59.0,4.0,-159.0,66.0,1000.0
-43.0,15.0,231.0,9.0,57.0,1.0,-159.0,66.0,1000.0
-41.0,11.0,229.0,10.0,56.0,4.0,-161.0,66.0,1003.0
-42.0,12.0,232.0,9.0,54.0,1.0,-162.0,72.0,1004.0
-43.0,12.0,227.0,8.0,53.0,3.0,-157.0,68.0,1003.0
-42.0,12.0,227.0,7.0,53.0,0.0,-159.0,67.0,1002.0
-41.0,11.0,233.0,7.0,54.0,3.0,-161.0,65.0,1001.0
-43.0,13.0,228.0,6.0,54.0,1.0,-162.0,65.0,995.0
-43.0,13.0,227.0,6.0,56.0,1.0,-160.0,65.0,1002.0
-40.0,12.0,228.0,8.0,57.0,-1.0,-162.0,62.0,1000.0
-42.0,11.0,228.0,9.0,57.0,-1.0,-161.0,65.0,998.0
-44.0,12.0,231.0,7.0,59.0,-1.0,-159.0,66.0,1003.0
-40.0,12.0,231.0,8.0,59.0,2.0,-157.0,70.0,1002.0
-45.0,10.0,227.0,7.0,59.0,-1.0,-159.0,72.0,1005.0
-40.0,10.0,227.0,8.0,59.0,1.0,-160.0,65.0,1003.0
-45.0,13.0,227.0,8.0,59.0,-1.0,-156.0,71.0,1009.0
-47.0,12.0,224.0,9.0,58.0,1.0,-158.0,70.0,1003.0
-44.0,14.0,231.0,8.0,56.0,-1.0,-162.0,67.0,1003.0
-43.0,12.0,231.0,8.0,54.0,2.0,-156.0,69.0,1000.0
-45.0,12.0,229.0,7.0,55.0,0.0,-155.0,69.0,1003.0
-42.0,13.0,231.0,7.0,55.0,1.0,-157.0,70.0,1001.0
-43.0,12.0,227.0,7.0,56.0,-2.0,-156.0,71.0,999.0
-40.0,11.0,227.0,6.0,56.0,2.0,-156.0,64.0,1003.0
-43.0,13.0,226.0,5.0,56.0,-1.0,-156.0,67.0,1004.0
-43.0,12.0,227.0,5.0,57.0,2.0,-160.0,69.0,1002.0
-42.0,13.0,229.0,4.0,58.0,0.0,-157.0,65.0,1005.0
-42.0,12.0,232.0,4.0,59.0,0.0,-157.0,68.0,1002.0
-39.0,12.0,230.0,6.0,57.0,-2.0,-159.0,66.0,1005.0
-43.0,14.0,229.0,5.0,56.0,1.0,-158.0,75.0,999.0
-43.0,13.0,227.0,5.0,55.0,-2.0,-160.0,72.0,1002.0
-41.0,13.0,229.0,5.0,57.0,0.0,-156.0,68.0,1003.0
-41.0,13.0,229.0,4.0,56.0,-1.0,-158.0,69.0,1006.0
-40.0,12.0,228.0,4.0,57.0,1.0,-160.0,75.0,1003.0
-39.0,11.0,229.0,2.0,56.0,-2.0,-155.0,77.0,1004.0
-42.0,12.0,226.0,4.0,54.0,2.0,-161.0,73.0,1003.0
-41.0,10.0,226.0,5.0,55.0,-1.0,-158.0,72.0,1001.0
-41.0,12.0,226.0,4.0,63.0,-1.0,-157.0,67.0,998.0
-44.0,10.0,229.0,2.0,66.0,-2.0,-160.0,67.0,1011.0
-42.0,11.0,223.0,4.0,65.0,0.0,-162.0,65.0,1009.0
-42.0,13.0,229.0,5.0,62.0,-1.0,-155.0,71.0,1006.0
-44.0,12.0,231.0,4.0,59.0,1.0,-157.0,70.0,1005.0
-42.0,13.0,225.0,2.0,56.0,-2.0,-162.0,70.0,1006.0
-40.0,13.0,226.0,0.0,56.0,0.0,-156.0,68.0,1002.0
-39.0,13.0,226.0,0.0,54.0,-4.0,-158.0,71.0,1001.0
-41.0,12.0,231.0,1.0,54.0,1.0,-156.0,73.0,1002.0
-44.0,12.0,228.0,1.0,55.0,-1.0,-157.0,69.0,996.0
-43.0,13.0,226.0,2.0,57.0,3.0,-159.0,72.0,1005.0
-43.0,14.0,226.0,0.0,58.0,2.0,-157.0,74.0,1003.0
-43.0,13.0,225.0,2.0,59.0,4.0,-157.0,74.0,1000.0
-44.0,14.0,227.0,1.0,63.0,3.0,-154.0,71.0,1002.0
-42.0,18.0,230.0,4.0,63.0,5.0,-155.0,73.0,1004.0
-45.0,14.0,228.0,4.0,61.0,5.0,-159.0,72.0,1001.0
-40.0,12.0,226.0,3.0,65.0,6.0,-160.0,70.0,999.0
-39.0,11.0,231.0,3.0,69.0,-2.0,-157.0,73.0,1002.0
-43.0,17.0,226.0,2.0,70.0,0.0,-158.0,71.0,997.0
-43.0,13.0,227.0,3.0,68.0,-2.0,-155.0,75.0,1004.0
-43.0,13.0,227.0,1.0,66.0,0.0,-159.0,73.0,1007.0
-43.0,14.0,231.0,0.0,62.0,-3.0,-160.0,77.0,1008.0
-45.0,16.0,228.0,-1.0,59.0,0.0,-160.0,72.0,1004.0
-42.0,14.0,227.0,1.0,56.0,-1.0,-159.0,77.0,1005.0
-40.0,12.0,228.0,4.0,51.0,2.0,-162.0,62.0,997.0
-43.0,12.0,229.0,6.0,52.0,-5.0,-155.0,67.0,1004.0
-42.0,14.0,228.0,11.0,53.0,-2.0,-158.0,74.0,1001.0
-44.0,13.0,229.0,11.0,52.0,-4.0,-158.0,70.0,1003.0
-43.0,12.0,225.0,12.0,49.0,-5.0,-157.0,75.0,1003.0
-44.0,14.0,228.0,13.0,50.0,-7.0,-156.0,71.0,1002.0
-42.0,14.0,229.0,16.0,49.0,-3.0,-155.0,72.0,1003.0
-45.0,13.0,229.0,18.0,49.0,-3.0,-162.0,70.0,996.0
-42.0,13.0,228.0,19.0,48.0,-4.0,-162.0,75.0,1005.0
-41.0,14.0,229.0,21.0,48.0,-8.0,-158.0,75.0,1003.0
-40.0,15.0,227.0,22.0,48.0,-6.0,-163.0,74.0,1006.0
-39.0,15.0,226.0,24.0,48.0,-6.0,-153.0,69.0,1012.0
-43.0,11.0,227.0,24.0,46.0,-1.0,-163.0,72.0,1001.0
-41.0,14.0,230.0,26.0,52.0,-9.0,-157.0,75.0,1002.0
-43.0,15.0,229.0,25.0,50.0,-10.0,-156.0,76.0,1005.0
-42.0,13.0,230.0,21.0,47.0,-11.0,-156.0,71.0,1004.0
-21.0,16.0,224.0,21.0,34.0,-26.0,-75.0,88.0,1012.0
-48.0,19.0,217.0,18.0,-28.0,-54.0,-186.0,91.0,977.0
-49.0,14.0,229.0,11.0,-37.0,-29.0,-199.0,68.0,993.0
-46.0,8.0,229.0,15.0,0.0,-12.0,-190.0,60.0,1020.0
-40.0,15.0,226.0,21.0,36.0,-4.0,-164.0,67.0,1020.0
-43.0,11.0,229.0,19.0,55.0,-9.0,-153.0,73.0,1013.0
-42.0,12.0,227.0,14.0,64.0,-5.0,-157.0,75.0,1007.0
-42.0,13.0,230.0,11.0,66.0,-6.0,-161.0,75.0,1005.0
-44.0,17.0,225.0,9.0,65.0,-2.0,-163.0,83.0,1005.0
-40.0,16.0,226.0,4.0,63.0,-5.0,-154.0,78.0,1003.0
-43.0,14.0,231.0,-1.0,60.0,-4.0,-158.0,76.0,1006.0
-42.0,16.0,230.0,-1.0,58.0,-8.0,-157.0,81.0,1006.0
-44.0,15.0,225.0,0.0,56.0,-5.0,-158.0,75.0,1003.0
-41.0,15.0,226.0,2.0,56.0,-9.0,-154.0,78.0,1002.0
-41.0,17.0,228.0,3.0,54.0,-7.0,-155.0,76.0,1002.0
-41.0,14.0,226.0,2.0,51.0,-8.0,-150.0,75.0,1003.0
-42.0,16.0,226.0,2.0,51.0,-6.0,-154.0,80.0,1007.0
-41.0,12.0,228.0,1.0,51.0,-9.0,-156.0,75.0,1004.0
-44.0,14.0,227.0,0.0,52.0,-6.0,-157.0,74.0,1002.0
-44.0,17.0,228.0,1.0,53.0,-9.0,-153.0,81.0,1010.0
-43.0,15.0,227.0,1.0,53.0,-7.0,-159.0,74.0,1009.0
-44.0,13.0,226.0,-3.0,56.0,-7.0,-157.0,76.0,1009.0
-44.0,16.0,229.0,-8.0,60.0,-6.0,-157.0,75.0,1014.0
-43.0,16.0,232.0,-11.0,62.0,-8.0,-159.0,70.0,1015.0
-42.0,11.0,226.0,-6.0,67.0,-11.0,-156.0,70.0,998.0
-44.0,16.0,222.0,11.0,71.0,-10.0,-158.0,76.0,991.0
-41.0,15.0,227.0,12.0,68.0,-7.0,-161.0,75.0,995.0
-40.0,11.0,226.0,14.0,64.0,-8.0,-154.0,76.0,995.0
-42.0,13.0,228.0,17.0,64.0,-7.0,-149.0,68.0,1001.0
-45.0,17.0,221.0,29.0,63.0,-16.0,-167.0,81.0,986.0
-43.0,15.0,225.0,32.0,63.0,-9.0,-155.0,79.0,990.0
-43.0,15.0,225.0,29.0,58.0,-12.0,-157.0,79.0,1004.0
-45.0,17.0,225.0,26.0,58.0,-10.0,-158.0,86.0,1002.0
-7.0,17.0,231.0,27.0,52.0,-10.0,-136.0,78.0,1013.0
-45.0,20.0,227.0,30.0,8.0,-47.0,-166.0,86.0,982.0
-49.0,17.0,228.0,25.0,-21.0,-46.0,-195.0,85.0,997.0
-47.0,12.0,228.0,27.0,6.0,-21.0,-179.0,73.0,1018.0
-41.0,15.0,229.0,37.0,46.0,-9.0,-157.0,76.0,1005.0
-42.0,15.0,230.0,38.0,71.0,-5.0,-155.0,83.0,1015.0
-43.0,15.0,229.0,34.0,71.0,-8.0,-154.0,83.0,1009.0
-43.0,17.0,230.0,25.0,68.0,-5.0,-156.0,87.0,1002.0
-41.0,17.0,223.0,18.0,65.0,-9.0,-154.0,89.0,1003.0
-40.0,17.0,227.0,15.0,62.0,-7.0,-155.0,84.0,1008.0
-41.0,14.0,227.0,13.0,59.0,-4.0,-155.0,85.0,1001.0
-43.0,18.0,229.0,11.0,62.0,-2.0,-155.0,78.0,997.0
-40.0,17.0,226.0,7.0,63.0,-5.0,-157.0,83.0,1009.0
-40.0,17.0,229.0,4.0,61.0,-3.0,-158.0,82.0,1008.0
-44.0,17.0,227.0,5.0,62.0,-6.0,-155.0,79.0,1005.0
-33.0,18.0,223.0,5.0,62.0,-3.0,-154.0,83.0,1001.0
-41.0,17.0,229.0,7.0,64.0,-5.0,-156.0,83.0,1003.0
-40.0,19.0,222.0,11.0,65.0,-2.0,-155.0,82.0,996.0
-42.0,17.0,228.0,13.0,69.0,-5.0,-155.0,83.0,1009.0
-42.0,15.0,227.0,22.0,64.0,-1.0,-161.0,84.0,1000.0
-42.0,16.0,231.0,22.0,63.0,-6.0,-160.0,81.0,996.0
-41.0,16.0,229.0,20.0,64.0,-5.0,-158.0,84.0,1006.0
-43.0,16.0,229.0,19.0,63.0,-4.0,-158.0,81.0,1001.0
-40.0,17.0,231.0,15.0,65.0,-3.0,-160.0,84.0,1002.0
-17.0,19.0,232.0,11.0,62.0,-6.0,-48.0,89.0,1014.0
-44.0,17.0,220.0,14.0,20.0,-32.0,-158.0,87.0,988.0
-48.0,17.0,228.0,9.0,-4.0,-31.0,-192.0,81.0,996.0
-45.0,14.0,228.0,13.0,21.0,-9.0,-171.0,72.0,1014.0
-43.0,17.0,229.0,19.0,50.0,-5.0,-163.0,77.0,1003.0
-43.0,19.0,234.0,19.0,64.0,-1.0,-152.0,82.0,1011.0
-41.0,18.0,229.0,15.0,65.0,-3.0,-155.0,88.0,1001.0
-42.0,18.0,229.0,11.0,66.0,1.0,-155.0,87.0,1002.0
-41.0,16.0,231.0,5.0,64.0,-3.0,-155.0,85.0,1004.0
-40.0,16.0,229.0,0.0,62.0,-2.0,-151.0,83.0,1006.0
-43.0,17.0,227.0,0.0,61.0,-2.0,-155.0,84.0,1002.0
-44.0,17.0,227.0,-3.0,59.0,1.0,-159.0,80.0,1004.0
-40.0,15.0,229.0,-2.0,58.0,-3.0,-155.0,82.0,1000.0
-43.0,18.0,230.0,4.0,61.0,-4.0,-156.0,80.0,1005.0
-42.0,20.0,227.0,11.0,60.0,-3.0,-160.0,94.0,1003.0
-42.0,19.0,228.0,11.0,57.0,-1.0,-153.0,83.0,1002.0
-42.0,21.0,226.0,9.0,53.0,-2.0,-153.0,90.0,1000.0
-40.0,16.0,228.0,7.0,50.0,2.0,-155.0,84.0,1002.0
-41.0,20.0,226.0,4.0,53.0,-1.0,-152.0,83.0,1002.0
-39.0,18.0,225.0,3.0,54.0,0.0,-152.0,85.0,1008.0
-45.0,20.0,227.0,2.0,54.0,-2.0,-147.0,89.0,1005.0
-43.0,18.0,225.0,2.0,55.0,-2.0,-155.0,83.0,1001.0
-40.0,18.0,227.0,-1.0,56.0,-4.0,-156.0,91.0,1004.0
-42.0,19.0,224.0,-3.0,57.0,-3.0,-154.0,86.0,1002.0
-42.0,15.0,229.0,-4.0,59.0,-4.0,-155.0,85.0,1003.0
-43.0,17.0,229.0,-3.0,58.0,-3.0,-156.0,85.0,997.0
-40.0,13.0,227.0,-2.0,59.0,-6.0,-155.0,83.0,999.0
-41.0,18.0,226.0,1.0,59.0,-6.0,-158.0,83.0,998.0
-42.0,18.0,231.0,5.0,59.0,-9.0,-154.0,87.0,1005.0
-42.0,20.0,228.0,9.0,59.0,-9.0,-158.0,85.0,1005.0
-43.0,15.0,226.0,15.0,55.0,-10.0,-157.0,84.0,996.0
-42.0,15.0,232.0,18.0,53.0,-6.0,-155.0,87.0,1004.0
-43.0,17.0,231.0,15.0,58.0,-8.0,-155.0,85.0,1009.0
-39.0,20.0,227.0,13.0,58.0,-6.0,-154.0,89.0,1002.0
-24.0,17.0,231.0,8.0,55.0,-16.0,-65.0,78.0,1000.0
-47.0,23.0,220.0,6.0,4.0,-44.0,-171.0,101.0,986.0
-49.0,16.0,220.0,4.0,-18.0,-34.0,-202.0,84.0,991.0
-49.0,13.0,236.0,4.0,14.0,-20.0,-189.0,75.0,1018.0
-40.0,17.0,233.0,11.0,48.0,-14.0,-148.0,82.0,1022.0
-42.0,18.0,224.0,15.0,58.0,-8.0,-151.0,93.0,1002.0
-39.0,20.0,228.0,10.0,60.0,-6.0,-154.0,95.0,997.0
-42.0,18.0,229.0,1.0,61.0,-6.0,-155.0,93.0,1003.0
-42.0,18.0,228.0,-6.0,58.0,-7.0,-155.0,91.0,1003.0
-42.0,18.0,226.0,-10.0,58.0,-4.0,-155.0,91.0,1003.0
-42.0,18.0,224.0,-9.0,58.0,-6.0,-153.0,92.0,1003.0
-44.0,18.0,225.0,-11.0,57.0,-3.0,-158.0,87.0,1005.0
-43.0,18.0,228.0,-11.0,56.0,-5.0,-154.0,93.0,999.0
-39.0,18.0,226.0,-12.0,56.0,-3.0,-157.0,89.0,1002.0
-39.0,16.0,226.0,-12.0,56.0,-6.0,-156.0,90.0,1003.0
-41.0,17.0,225.0,-13.0,56.0,-3.0,-156.0,89.0,1002.0
-41.0,19.0,226.0,-12.0,59.0,-5.0,-156.0,88.0,1004.0
-41.0,15.0,225.0,-10.0,59.0,-2.0,-154.0,90.0,1001.0
-41.0,18.0,224.0,-11.0,59.0,-4.0,-154.0,88.0,999.0
-42.0,17.0,228.0,-9.0,60.0,-2.0,-159.0,85.0,1004.0
-43.0,16.0,229.0,-9.0,59.0,-4.0,-157.0,89.0,1001.0
-42.0,18.0,228.0,-10.0,61.0,-2.0,-155.0,88.0,1001.0
-40.0,21.0,229.0,-9.0,61.0,-3.0,-153.0,91.0,1002.0
-42.0,19.0,226.0,-11.0,62.0,-3.0,-154.0,88.0,1003.0
-40.0,19.0,227.0,-11.0,62.0,-6.0,-155.0,92.0,1003.0
-40.0,20.0,231.0,-15.0,65.0,-4.0,-154.0,88.0,1004.0
-40.0,20.0,230.0,-12.0,67.0,-5.0,-147.0,88.0,997.0
-42.0,17.0,225.0,-14.0,71.0,-4.0,-153.0,87.0,996.0
-41.0,16.0,222.0,-15.0,73.0,-6.0,-158.0,86.0,1002.0
-40.0,16.0,226.0,-15.0,73.0,-2.0,-155.0,84.0,1002.0
-42.0,20.0,226.0,-19.0,72.0,-4.0,-155.0,85.0,1002.0
-43.0,20.0,230.0,-21.0,72.0,-1.0,-150.0,91.0,1008.0
-43.0,20.0,233.0,-21.0,72.0,-4.0,-154.0,83.0,1002.0
-40.0,19.0,231.0,-22.0,73.0,-2.0,-155.0,85.0,1004.0
-38.0,17.0,229.0,-21.0,70.0,-3.0,-154.0,87.0,1001.0
-42.0,18.0,231.0,-21.0,68.0,-1.0,-154.0,86.0,1004.0
-41.0,16.0,230.0,-21.0,66.0,-4.0,-158.0,84.0,1004.0
-41.0,18.0,230.0,-20.0,64.0,-2.0,-161.0,88.0,1005.0
-41.0,18.0,225.0,-20.0,64.0,-2.0,-157.0,83.0,1005.0
-44.0,15.0,227.0,-19.0,62.0,-1.0,-155.0,89.0,1006.0
-42.0,17.0,228.0,-18.0,63.0,-3.0,-157.0,85.0,1008.0
-42.0,17.0,229.0,-19.0,61.0,-1.0,-156.0,86.0,1006.0
-42.0,18.0,229.0,-16.0,61.0,-3.0,-157.0,88.0,1006.0
-43.0,18.0,228.0,-15.0,61.0,0.0,-153.0,91.0,1004.0
-41.0,17.0,231.0,-16.0,60.0,-3.0,-157.0,88.0,1002.0
-42.0,17.0,227.0,-15.0,60.0,-1.0,-155.0,83.0,1002.0
-43.0,18.0,226.0,-16.0,58.0,-3.0,-154.0,83.0,997.0
-42.0,17.0,228.0,-16.0,57.0,0.0,-155.0,83.0,999.0
-41.0,16.0,227.0,-14.0,57.0,-2.0,-156.0,86.0,1005.0
-45.0,19.0,229.0,-14.0,57.0,1.0,-157.0,81.0,1001.0
-43.0,18.0,227.0,-15.0,56.0,-2.0,-159.0,86.0,1006.0
-42.0,17.0,228.0,-14.0,57.0,0.0,-159.0,84.0,1006.0
-41.0,18.0,227.0,-15.0,57.0,-1.0,-157.0,90.0,1006.0
-41.0,18.0,228.0,-15.0,55.0,0.0,-158.0,87.0,1007.0
-43.0,18.0,229.0,-12.0,53.0,-3.0,-158.0,87.0,999.0
-44.0,17.0,228.0,-12.0,50.0,-2.0,-155.0,93.0,997.0
-42.0,19.0,228.0,-10.0,51.0,-4.0,-160.0,90.0,1002.0
-44.0,20.0,231.0,-10.0,51.0,-1.0,-155.0,87.0,1002.0
-41.0,18.0,227.0,-11.0,53.0,-3.0,-156.0,88.0,1002.0
-41.0,14.0,224.0,-13.0,55.0,0.0,-157.0,91.0,1002.0
-45.0,15.0,232.0,-14.0,55.0,-1.0,-158.0,84.0,998.0
-41.0,17.0,227.0,-17.0,54.0,0.0,-155.0,91.0,1001.0
-42.0,17.0,224.0,-16.0,53.0,-1.0,-154.0,89.0,1005.0
-43.0,19.0,227.0,-15.0,54.0,-1.0,-157.0,83.0,1002.0
-43.0,15.0,226.0,-15.0,55.0,-3.0,-156.0,84.0,1003.0
-42.0,17.0,228.0,-12.0,56.0,0.0,-155.0,84.0,997.0
-42.0,19.0,224.0,-15.0,56.0,-2.0,-154.0,92.0,999.0
-43.0,16.0,228.0,-15.0,56.0,0.0,-157.0,82.0,1000.0
-42.0,16.0,229.0,-14.0,55.0,-2.0,-155.0,87.0,997.0
-43.0,17.0,228.0,-13.0,55.0,0.0,-155.0,87.0,1002.0
-41.0,20.0,226.0,-14.0,56.0,-2.0,-154.0,91.0,1002.0
-44.0,17.0,228.0,-14.0,56.0,0.0,-157.0,83.0,1002.0
-42.0,15.0,224.0,-14.0,57.0,-2.0,-155.0,89.0,1000.0
-44.0,15.0,227.0,-14.0,56.0,0.0,-155.0,89.0,1003.0
-43.0,12.0,229.0,-16.0,56.0,-1.0,-157.0,85.0,1001.0
-40.0,16.0,231.0,-16.0,57.0,0.0,-155.0,84.0,1002.0
-39.0,16.0,228.0,-16.0,56.0,-2.0,-154.0,83.0,999.0
-43.0,18.0,228.0,-16.0,56.0,0.0,-155.0,87.0,999.0
-44.0,17.0,227.0,-16.0,56.0,-3.0,-156.0,90.0,1003.0
-42.0,15.0,230.0,-17.0,57.0,0.0,-157.0,88.0,1000.0
-42.0,18.0,228.0,-17.0,59.0,-2.0,-157.0,87.0,1000.0
-42.0,15.0,229.0,-18.0,57.0,-1.0,-157.0,81.0,1004.0
-41.0,17.0,227.0,-18.0,58.0,-3.0,-156.0,89.0,1001.0
-41.0,19.0,222.0,-18.0,60.0,0.0,-154.0,86.0,1008.0
-41.0,20.0,224.0,-20.0,60.0,-2.0,-150.0,84.0,1002.0
-42.0,19.0,231.0,-21.0,59.0,-1.0,-155.0,88.0,1003.0
-43.0,19.0,225.0,-20.0,59.0,-3.0,-155.0,81.0,1000.0
-43.0,19.0,227.0,-19.0,59.0,-1.0,-155.0,84.0,1004.0
-40.0,18.0,228.0,-18.0,57.0,-2.0,-154.0,85.0,1004.0
-41.0,15.0,225.0,-18.0,58.0,-1.0,-154.0,85.0,996.0
-43.0,18.0,227.0,-16.0,58.0,-2.0,-155.0,85.0,1001.0
-38.0,16.0,228.0,-15.0,56.0,0.0,-157.0,85.0,1000.0
-41.0,15.0,228.0,-15.0,58.0,-1.0,-153.0,84.0,1004.0
-41.0,16.0,228.0,-15.0,56.0,0.0,-154.0,84.0,999.0
-39.0,17.0,228.0,-16.0,57.0,-2.0,-160.0,86.0,1008.0
-43.0,15.0,229.0,-17.0,58.0,0.0,-155.0,85.0,1006.0
-42.0,19.0,225.0,-18.0,58.0,-3.0,-156.0,88.0,1009.0
-43.0,16.0,224.0,-19.0,60.0,-1.0,-159.0,88.0,1001.0
-41.0,18.0,229.0,-19.0,61.0,-1.0,-154.0,87.0,1003.0
-43.0,21.0,227.0,-20.0,62.0,0.0,-156.0,87.0,1003.0
-40.0,19.0,230.0,-22.0,63.0,-4.0,-153.0,84.0,1001.0
-41.0,17.0,226.0,-22.0,63.0,-2.0,-155.0,87.0,1004.0
-39.0,16.0,229.0,-22.0,65.0,-3.0,-154.0,84.0,1005.0
-42.0,16.0,225.0,-22.0,64.0,-1.0,-158.0,83.0,1003.0
-41.0,15.0,230.0,-24.0,65.0,-4.0,-156.0,86.0,1005.0
-41.0,19.0,230.0,-25.0,65.0,-2.0,-153.0,82.0,1003.0
-41.0,19.0,229.0,-23.0,69.0,-3.0,-157.0,87.0,1002.0
-42.0,19.0,228.0,-23.0,69.0,-3.0,-158.0,89.0,1004.0
-41.0,18.0,229.0,-24.0,70.0,-4.0,-156.0,90.0,1004.0
-40.0,17.0,231.0,-25.0,71.0,-1.0,-156.0,91.0,1002.0
-40.0,16.0,231.0,-27.0,72.0,-3.0,-161.0,88.0,1006.0
-43.0,17.0,232.0,-27.0,71.0,-1.0,-157.0,83.0,1008.0
-41.0,19.0,230.0,-27.0,69.0,-1.0,-157.0,87.0,1007.0
-40.0,20.0,230.0,-28.0,68.0,-1.0,-159.0,87.0,1008.0
-42.0,15.0,227.0,-27.0,68.0,-3.0,-155.0,87.0,1003.0
-44.0,21.0,227.0,-25.0,68.0,-2.0,-156.0,88.0,1006.0
-43.0,16.0,229.0,-23.0,66.0,-4.0,-152.0,84.0,1008.0
-41.0,17.0,227.0,-21.0,64.0,-2.0,-153.0,84.0,1002.0
-41.0,17.0,231.0,-20.0,63.0,-3.0,-155.0,89.0,1008.0
-40.0,17.0,227.0,-21.0,61.0,-3.0,-151.0,87.0,1004.0
-41.0,18.0,229.0,-23.0,62.0,-5.0,-152.0,81.0,1002.0
-42.0,16.0,225.0,-25.0,63.0,-5.0,-153.0,87.0,1004.0
-41.0,16.0,228.0,-27.0,65.0,-8.0,-157.0,86.0,1005.0
-41.0,16.0,229.0,-27.0,65.0,-6.0,-159.0,85.0,1006.0
-42.0,14.0,229.0,-30.0,66.0,-9.0,-157.0,84.0,1009.0
-41.0,16.0,226.0,-36.0,67.0,-9.0,-157.0,83.0,1009.0
-42.0,17.0,231.0,-41.0,68.0,-11.0,-165.0,80.0,1010.0
-44.0,15.0,232.0,-43.0,69.0,-11.0,-160.0,78.0,1005.0
-36.0,13.0,227.0,-44.0,70.0,-12.0,-150.0,75.0,1005.0
-44.0,16.0,228.0,-41.0,70.0,-12.0,-159.0,81.0,1002.0
-44.0,16.0,223.0,-30.0,74.0,-12.0,-157.0,80.0,995.0
-43.0,16.0,223.0,-23.0,74.0,-10.0,-161.0,83.0,995.0
-48.0,9.0,243.0,-19.0,72.0,-9.0,-166.0,92.0,994.0
-46.0,13.0,210.0,24.0,95.0,-1.0,-171.0,76.0,952.0
-42.0,20.0,217.0,4.0,73.0,-7.0,-160.0,88.0,972.0
-42.0,17.0,233.0,-25.0,61.0,-8.0,-158.0,83.0,1006.0
-42.0,17.0,231.0,-19.0,64.0,-7.0,-160.0,80.0,996.0
-42.0,17.0,227.0,-13.0,63.0,-5.0,-162.0,82.0,990.0
-43.0,14.0,226.0,-12.0,62.0,-7.0,-161.0,82.0,1002.0
-45.0,16.0,229.0,-11.0,62.0,-5.0,-161.0,80.0,1006.0
-41.0,16.0,228.0,-10.0,61.0,-6.0,-155.0,89.0,998.0
-39.0,16.0,226.0,-13.0,61.0,-5.0,-154.0,83.0,999.0
-43.0,18.0,231.0,-12.0,61.0,-5.0,-160.0,86.0,1010.0
-45.0,17.0,232.0,-11.0,60.0,-3.0,-159.0,86.0,1002.0
-42.0,17.0,228.0,-15.0,61.0,-4.0,-160.0,83.0,1001.0
-42.0,15.0,229.0,-16.0,60.0,-3.0,-155.0,80.0,1002.0
-43.0,14.0,226.0,-17.0,62.0,-5.0,-157.0,82.0,1002.0
-44.0,18.0,229.0,-17.0,61.0,-3.0,-158.0,79.0,999.0
-44.0,16.0,226.0,-18.0,61.0,-4.0,-159.0,83.0,995.0
-42.0,16.0,225.0,-18.0,61.0,-2.0,-157.0,82.0,1002.0
-43.0,16.0,227.0,-18.0,61.0,-3.0,-158.0,82.0,1001.0
-39.0,15.0,227.0,-18.0,61.0,-1.0,-158.0,83.0,996.0
-46.0,20.0,225.0,-17.0,61.0,-3.0,-162.0,85.0,1001.0
-43.0,17.0,228.0,-15.0,61.0,-1.0,-155.0,80.0,1003.0
-41.0,16.0,226.0,-15.0,60.0,-3.0,-158.0,86.0,1003.0
-41.0,17.0,226.0,-15.0,61.0,-2.0,-156.0,83.0,1001.0
-42.0,14.0,227.0,-17.0,60.0,-3.0,-155.0,83.0,999.0
-43.0,18.0,232.0,-18.0,59.0,-1.0,-158.0,82.0,1000.0
-42.0,15.0,229.0,-20.0,58.0,-3.0,-155.0,82.0,1001.0
-40.0,13.0,228.0,-20.0,60.0,0.0,-160.0,82.0,1003.0
-42.0,17.0,229.0,-20.0,62.0,-3.0,-159.0,86.0,1002.0
-43.0,16.0,229.0,-21.0,61.0,-2.0,-154.0,84.0,1004.0
-42.0,16.0,228.0,-22.0,63.0,-5.0,-158.0,84.0,1001.0
-45.0,15.0,226.0,-20.0,62.0,-2.0,-157.0,83.0,999.0
-42.0,17.0,224.0,-21.0,62.0,-3.0,-157.0,81.0,1002.0
-40.0,15.0,231.0,-19.0,60.0,-2.0,-160.0,80.0,1000.0
-38.0,16.0,222.0,-20.0,60.0,-2.0,-153.0,82.0,1000.0
-41.0,13.0,228.0,-20.0,60.0,-2.0,-161.0,79.0,998.0
-44.0,18.0,228.0,-19.0,60.0,-2.0,-157.0,78.0,1002.0
-43.0,15.0,228.0,-18.0,61.0,-1.0,-156.0,79.0,1002.0
-42.0,15.0,228.0,-18.0,62.0,-3.0,-161.0,80.0,1000.0
-42.0,14.0,229.0,-20.0,62.0,-2.0,-158.0,84.0,1001.0
-41.0,17.0,228.0,-20.0,63.0,-2.0,-160.0,82.0,1004.0
-42.0,15.0,228.0,-20.0,63.0,-1.0,-160.0,82.0,1000.0
-42.0,18.0,228.0,-20.0,62.0,0.0,-159.0,82.0,1002.0
-44.0,18.0,225.0,-20.0,62.0,0.0,-163.0,83.0,999.0
-43.0,18.0,227.0,-21.0,61.0,-3.0,-161.0,86.0,999.0
-41.0,15.0,225.0,-22.0,61.0,-1.0,-160.0,83.0,1005.0
-45.0,16.0,228.0,-21.0,60.0,-2.0,-157.0,82.0,1007.0
-41.0,18.0,228.0,-22.0,60.0,-2.0,-155.0,82.0,1001.0
-41.0,17.0,225.0,-21.0,59.0,-4.0,-158.0,80.0,1002.0
-44.0,18.0,224.0,-22.0,58.0,-3.0,-158.0,78.0,1001.0
-42.0,18.0,230.0,-23.0,61.0,-4.0,-157.0,80.0,1004.0
-43.0,17.0,228.0,-23.0,63.0,-4.0,-159.0,81.0,1001.0
-42.0,17.0,226.0,-23.0,62.0,-5.0,-155.0,80.0,1006.0
-43.0,15.0,231.0,-24.0,62.0,-5.0,-160.0,82.0,1001.0
-43.0,14.0,223.0,-25.0,63.0,-7.0,-161.0,78.0,998.0
-43.0,16.0,231.0,-24.0,64.0,-5.0,-160.0,75.0,1001.0
-44.0,15.0,226.0,-24.0,64.0,-7.0,-160.0,80.0,1002.0
-44.0,16.0,225.0,-24.0,64.0,-3.0,-164.0,81.0,1000.0
-40.0,17.0,227.0,-23.0,63.0,-6.0,-158.0,82.0,998.0
-43.0,15.0,228.0,-23.0,62.0,-4.0,-160.0,80.0,1001.0
-45.0,17.0,230.0,-24.0,61.0,-5.0,-160.0,80.0,1000.0
-42.0,15.0,228.0,-26.0,60.0,-4.0,-158.0,84.0,1000.0
-44.0,20.0,229.0,-24.0,59.0,-5.0,-157.0,75.0,1002.0
-43.0,16.0,228.0,-25.0,58.0,-4.0,-157.0,83.0,1002.0
-41.0,18.0,225.0,-24.0,57.0,-6.0,-156.0,80.0,1002.0
-44.0,16.0,228.0,-26.0,58.0,-3.0,-156.0,79.0,1002.0
-39.0,17.0,229.0,-27.0,58.0,-6.0,-159.0,80.0,1004.0
-42.0,13.0,229.0,-28.0,59.0,-5.0,-159.0,81.0,1002.0
-41.0,15.0,230.0,-28.0,59.0,-5.0,-158.0,80.0,996.0
-43.0,18.0,228.0,-27.0,59.0,-3.0,-160.0,81.0,1003.0
-46.0,18.0,225.0,-26.0,61.0,-5.0,-157.0,77.0,1004.0
-45.0,17.0,227.0,-26.0,62.0,-4.0,-157.0,79.0,1002.0
-42.0,15.0,231.0,-26.0,62.0,-5.0,-162.0,76.0,1001.0
-43.0,16.0,225.0,-25.0,61.0,-3.0,-164.0,81.0,1006.0
-43.0,16.0,227.0,-23.0,61.0,-5.0,-162.0,78.0,1002.0
-44.0,14.0,226.0,-23.0,62.0,-4.0,-157.0,81.0,1001.0
-42.0,15.0,226.0,-23.0,62.0,-6.0,-162.0,84.0,999.0
-43.0,15.0,229.0,-23.0,61.0,-6.0,-162.0,81.0,1000.0
-43.0,14.0,228.0,-22.0,60.0,-6.0,-160.0,80.0,1001.0
-41.0,16.0,230.0,-22.0,60.0,-4.0,-160.0,83.0,1005.0
-43.0,14.0,231.0,-23.0,61.0,-5.0,-157.0,80.0,1002.0
-43.0,18.0,230.0,-24.0,62.0,-4.0,-161.0,80.0,1000.0
-43.0,15.0,229.0,-25.0,61.0,-6.0,-159.0,77.0,1003.0
-44.0,17.0,229.0,-24.0,63.0,-4.0,-159.0,83.0,1002.0
-42.0,13.0,227.0,-23.0,65.0,-5.0,-160.0,78.0,998.0
-41.0,17.0,232.0,-22.0,63.0,-3.0,-158.0,78.0,1004.0
-43.0,14.0,228.0,-23.0,63.0,-5.0,-160.0,79.0,1005.0
-41.0,14.0,226.0,-23.0,62.0,-4.0,-157.0,82.0,1000.0
-44.0,18.0,227.0,-23.0,62.0,-5.0,-159.0,81.0,997.0
-42.0,17.0,228.0,-22.0,61.0,-2.0,-155.0,77.0,1000.0
-42.0,17.0,227.0,-21.0,60.0,-3.0,-160.0,79.0,999.0
-42.0,15.0,229.0,-23.0,58.0,-2.0,-156.0,79.0,996.0
-43.0,16.0,232.0,-22.0,58.0,-2.0,-153.0,82.0,998.0
-43.0,17.0,225.0,-21.0,58.0,-1.0,-156.0,75.0,1003.0
-39.0,14.0,230.0,-20.0,59.0,-4.0,-158.0,73.0,1002.0
-42.0,15.0,230.0,-21.0,60.0,-2.0,-159.0,78.0,1004.0
-40.0,15.0,226.0,-20.0,61.0,-3.0,-159.0,78.0,1005.0
-41.0,18.0,227.0,-21.0,62.0,-1.0,-160.0,74.0,1006.0
-42.0,16.0,230.0,-18.0,61.0,-3.0,-159.0,74.0,1005.0
-43.0,13.0,226.0,-18.0,61.0,-1.0,-160.0,76.0,997.0
-46.0,17.0,224.0,-18.0,59.0,-3.0,-158.0,78.0,1004.0
-43.0,15.0,226.0,-17.0,59.0,-1.0,-155.0,75.0,998.0
-41.0,17.0,231.0,-16.0,60.0,-3.0,-158.0,80.0,1002.0
-41.0,13.0,227.0,-17.0,61.0,-1.0,-160.0,78.0,996.0
-44.0,14.0,231.0,-18.0,59.0,-4.0,-162.0,78.0,996.0
-43.0,17.0,228.0,-17.0,60.0,-1.0,-158.0,81.0,999.0
-42.0,16.0,226.0,-18.0,61.0,-2.0,-158.0,77.0,998.0
-43.0,17.0,228.0,-19.0,61.0,-1.0,-162.0,78.0,1000.0
-44.0,16.0,225.0,-18.0,60.0,-2.0,-159.0,84.0,999.0
-45.0,14.0,230.0,-21.0,61.0,-1.0,-156.0,77.0,1004.0
-45.0,15.0,230.0,-20.0,62.0,-2.0,-159.0,79.0,999.0
-43.0,14.0,227.0,-20.0,63.0,0.0,-161.0,80.0,1004.0
-45.0,15.0,225.0,-21.0,61.0,-2.0,-161.0,78.0,998.0
-44.0,14.0,227.0,-22.0,61.0,-1.0,-162.0,74.0,1000.0
-43.0,13.0,228.0,-20.0,61.0,-1.0,-159.0,74.0,999.0
-40.0,13.0,225.0,-19.0,61.0,0.0,-159.0,76.0,1001.0
-45.0,14.0,232.0,-20.0,60.0,0.0,-161.0,76.0,1001.0
-43.0,15.0,226.0,-21.0,60.0,0.0,-160.0,79.0,1004.0
-44.0,15.0,228.0,-20.0,59.0,0.0,-159.0,77.0,1002.0
-42.0,15.0,227.0,-19.0,59.0,0.0,-161.0,78.0,999.0
-43.0,14.0,228.0,-17.0,61.0,-3.0,-157.0,76.0,1004.0
-42.0,17.0,227.0,-18.0,60.0,0.0,-162.0,79.0,1005.0
-45.0,13.0,228.0,-18.0,60.0,-2.0,-160.0,75.0,1004.0
-41.0,14.0,225.0,-18.0,61.0,-1.0,-160.0,79.0,1004.0
-44.0,15.0,230.0,-18.0,61.0,0.0,-160.0,77.0,1001.0
-46.0,15.0,230.0,-18.0,62.0,0.0,-162.0,79.0,1003.0
-42.0,14.0,229.0,-19.0,62.0,-1.0,-159.0,78.0,1002.0
-43.0,15.0,224.0,-17.0,62.0,1.0,-156.0,77.0,1002.0
-42.0,17.0,230.0,-18.0,61.0,-1.0,-162.0,80.0,1001.0
-42.0,14.0,231.0,-19.0,62.0,0.0,-160.0,75.0,1003.0
-43.0,15.0,227.0,-20.0,61.0,1.0,-162.0,77.0,995.0
-43.0,16.0,232.0,-20.0,62.0,2.0,-160.0,80.0,1000.0
-42.0,15.0,225.0,-21.0,61.0,0.0,-162.0,80.0,1000.0
-43.0,16.0,225.0,-20.0,60.0,0.0,-158.0,78.0,1005.0
-41.0,13.0,229.0,-21.0,60.0,-2.0,-158.0,75.0,1003.0
-41.0,16.0,230.0,-20.0,59.0,0.0,-160.0,81.0,1002.0
-42.0,13.0,227.0,-21.0,60.0,0.0,-162.0,77.0,1001.0
-42.0,16.0,225.0,-21.0,60.0,0.0,-155.0,78.0,1002.0
-45.0,15.0,226.0,-20.0,60.0,-1.0,-162.0,74.0,1003.0
-44.0,15.0,230.0,-19.0,59.0,0.0,-157.0,78.0,1001.0
-42.0,13.0,228.0,-19.0,58.0,-1.0,-159.0,76.0,1002.0
-43.0,13.0,229.0,-18.0,57.0,1.0,-164.0,75.0,999.0
-43.0,16.0,227.0,-17.0,57.0,0.0,-161.0,83.0,998.0
-45.0,16.0,232.0,-18.0,57.0,0.0,-158.0,78.0,998.0
-42.0,14.0,229.0,-18.0,57.0,-1.0,-158.0,79.0,1001.0
-42.0,16.0,230.0,-17.0,57.0,-1.0,-155.0,74.0,1005.0
-42.0,17.0,230.0,-16.0,57.0,-2.0,-158.0,80.0,1000.0
-44.0,14.0,228.0,-16.0,58.0,-1.0,-163.0,80.0,1003.0
-40.0,13.0,228.0,-16.0,57.0,-1.0,-163.0,78.0,1000.0
-43.0,13.0,228.0,-16.0,59.0,-1.0,-163.0,78.0,1005.0
-44.0,13.0,228.0,-17.0,58.0,-2.0,-160.0,79.0,999.0
-45.0,17.0,229.0,-18.0,58.0,-1.0,-162.0,78.0,1002.0
-41.0,12.0,230.0,-18.0,57.0,0.0,-160.0,78.0,1007.0
-43.0,13.0,231.0,-16.0,57.0,1.0,-161.0,76.0,998.0
-43.0,14.0,228.0,-17.0,57.0,0.0,-160.0,77.0,996.0
-44.0,15.0,231.0,-18.0,57.0,1.0,-159.0,79.0,1000.0
-45.0,14.0,229.0,-19.0,58.0,0.0,-161.0,78.0,1002.0
-39.0,14.0,225.0,-20.0,58.0,2.0,-160.0,76.0,1004.0
-41.0,12.0,228.0,-19.0,57.0,0.0,-161.0,71.0,1000.0
-41.0,13.0,230.0,-18.0,57.0,1.0,-156.0,74.0,1003.0
-40.0,16.0,228.0,-18.0,58.0,1.0,-159.0,79.0,1001.0
-42.0,16.0,229.0,-19.0,57.0,2.0,-159.0,77.0,1002.0
-42.0,15.0,226.0,-20.0,57.0,1.0,-160.0,78.0,1004.0
-38.0,14.0,225.0,-18.0,57.0,0.0,-161.0,77.0,1001.0
-44.0,16.0,232.0,-18.0,59.0,-1.0,-159.0,79.0,1001.0
-42.0,17.0,228.0,-17.0,59.0,1.0,-159.0,80.0,1000.0
-40.0,11.0,229.0,-18.0,60.0,0.0,-159.0,78.0,1009.0
-43.0,15.0,225.0,-17.0,61.0,-1.0,-161.0,82.0,1001.0
-43.0,14.0,229.0,-17.0,63.0,-1.0,-156.0,82.0,1003.0
-42.0,15.0,228.0,-19.0,62.0,0.0,-154.0,76.0,1002.0
-41.0,13.0,227.0,-20.0,61.0,-2.0,-155.0,78.0,1001.0
-41.0,13.0,232.0,-22.0,61.0,-3.0,-163.0,75.0,1005.0
-45.0,14.0,228.0,-23.0,59.0,-5.0,-165.0,69.0,1003.0
-41.0,14.0,229.0,-27.0,59.0,-4.0,-163.0,70.0,1004.0
-42.0,17.0,231.0,-30.0,59.0,-6.0,-161.0,73.0,1009.0
-43.0,13.0,232.0,-32.0,58.0,-6.0,-159.0,73.0,1005.0
-42.0,10.0,233.0,-35.0,63.0,-6.0,-161.0,75.0,1009.0
-42.0,14.0,233.0,-40.0,64.0,-6.0,-160.0,71.0,1009.0
-43.0,12.0,227.0,-44.0,65.0,-10.0,-164.0,74.0,1006.0
-42.0,14.0,230.0,-46.0,67.0,-10.0,-166.0,70.0,1003.0
-44.0,11.0,227.0,-44.0,72.0,-9.0,-163.0,74.0,999.0
-43.0,13.0,227.0,-38.0,72.0,-9.0,-161.0,69.0,996.0
-45.0,14.0,224.0,-33.0,72.0,-6.0,-162.0,72.0,994.0
-42.0,15.0,228.0,-27.0,70.0,-4.0,-163.0,75.0,997.0
-47.0,15.0,225.0,-24.0,66.0,-6.0,-159.0,79.0,992.0
-49.0,28.0,211.0,-24.0,64.0,-3.0,-160.0,77.0,998.0
-42.0,17.0,227.0,-25.0,60.0,-4.0,-159.0,75.0,1001.0
-45.0,16.0,227.0,-27.0,57.0,-3.0,-162.0,77.0,997.0
-42.0,15.0,228.0,-28.0,58.0,-5.0,-159.0,75.0,1006.0
-39.0,16.0,228.0,-27.0,57.0,-4.0,-162.0,76.0,1002.0
-42.0,13.0,227.0,-27.0,55.0,-3.0,-157.0,75.0,1001.0
-43.0,14.0,230.0,-25.0,57.0,-3.0,-158.0,72.0,1005.0
-44.0,15.0,233.0,-26.0,57.0,-3.0,-163.0,78.0,1009.0
-44.0,19.0,231.0,-25.0,57.0,-3.0,-162.0,74.0,1002.0
-41.0,15.0,228.0,-28.0,57.0,-5.0,-160.0,75.0,1009.0
-42.0,14.0,228.0,-30.0,59.0,-3.0,-160.0,75.0,1004.0
-42.0,11.0,226.0,-31.0,59.0,-5.0,-160.0,73.0,1003.0
-43.0,16.0,229.0,-31.0,60.0,-6.0,-159.0,76.0,1001.0
-43.0,13.0,225.0,-31.0,62.0,-5.0,-161.0,74.0,1005.0
-44.0,15.0,226.0,-31.0,64.0,-3.0,-163.0,72.0,998.0
-44.0,14.0,228.0,-29.0,65.0,-4.0,-162.0,70.0,998.0
-47.0,13.0,226.0,-28.0,65.0,-4.0,-160.0,72.0,1003.0
-42.0,13.0,229.0,-25.0,64.0,-5.0,-164.0,73.0,1000.0
-47.0,15.0,224.0,-24.0,63.0,-3.0,-160.0,70.0,1000.0
-42.0,12.0,227.0,-22.0,64.0,-4.0,-163.0,70.0,1004.0
-44.0,15.0,232.0,-22.0,64.0,-2.0,-163.0,74.0,1003.0
-42.0,12.0,225.0,-21.0,62.0,-2.0,-164.0,75.0,999.0
-43.0,11.0,225.0,-20.0,63.0,-2.0,-163.0,65.0,1001.0
-43.0,12.0,228.0,-19.0,63.0,-3.0,-161.0,71.0,997.0
-43.0,14.0,228.0,-15.0,63.0,-2.0,-164.0,69.0,1003.0
-42.0,13.0,221.0,-15.0,62.0,-2.0,-164.0,73.0,1001.0
-42.0,11.0,230.0,-14.0,61.0,0.0,-163.0,67.0,1002.0
-44.0,15.0,229.0,-14.0,61.0,-1.0,-160.0,70.0,999.0
-42.0,11.0,229.0,-13.0,61.0,1.0,-161.0,71.0,1003.0
-44.0,12.0,232.0,-13.0,59.0,0.0,-162.0,69.0,1004.0
-44.0,11.0,228.0,-15.0,60.0,1.0,-165.0,69.0,1004.0
-42.0,13.0,226.0,-15.0,58.0,-1.0,-159.0,72.0,1004.0
-42.0,12.0,227.0,-16.0,60.0,0.0,-162.0,71.0,998.0
-43.0,11.0,228.0,-16.0,58.0,-1.0,-160.0,72.0,1009.0
-43.0,14.0,224.0,-15.0,59.0,0.0,-162.0,69.0,1002.0
-44.0,13.0,229.0,-14.0,59.0,-1.0,-160.0,73.0,998.0
-42.0,11.0,223.0,-12.0,59.0,-1.0,-161.0,75.0,997.0
-42.0,15.0,228.0,-11.0,60.0,-2.0,-163.0,72.0,999.0
-45.0,14.0,228.0,-11.0,60.0,-1.0,-158.0,72.0,998.0
-42.0,14.0,223.0,-11.0,60.0,0.0,-159.0,74.0,1000.0
-41.0,14.0,227.0,-10.0,60.0,-1.0,-160.0,71.0,1002.0
-42.0,13.0,224.0,-8.0,59.0,0.0,-157.0,70.0,996.0
-43.0,16.0,225.0,-7.0,58.0,0.0,-159.0,70.0,1000.0
-44.0,14.0,227.0,-7.0,56.0,-2.0,-165.0,73.0,997.0
-47.0,13.0,229.0,-8.0,55.0,0.0,-156.0,73.0,1003.0
-43.0,12.0,227.0,-6.0,56.0,-2.0,-164.0,76.0,1002.0
-43.0,13.0,229.0,-8.0,57.0,0.0,-161.0,72.0,1000.0
-41.0,11.0,228.0,-8.0,59.0,-3.0,-161.0,75.0,1001.0
-42.0,11.0,228.0,-9.0,58.0,-1.0,-160.0,68.0,999.0
-44.0,15.0,229.0,-9.0,58.0,-1.0,-163.0,72.0,1001.0
-44.0,14.0,229.0,-9.0,60.0,-1.0,-158.0,73.0,1001.0
-44.0,13.0,223.0,-10.0,60.0,-2.0,-160.0,69.0,1001.0
-43.0,12.0,227.0,-9.0,60.0,-3.0,-162.0,71.0,1002.0
-45.0,14.0,226.0,-8.0,59.0,-2.0,-160.0,73.0,1002.0
-43.0,11.0,224.0,-8.0,58.0,-1.0,-165.0,69.0,999.0
-45.0,12.0,228.0,-7.0,58.0,-1.0,-160.0,71.0,1003.0
-46.0,13.0,230.0,-7.0,58.0,-1.0,-162.0,73.0,1003.0
-45.0,15.0,229.0,-8.0,57.0,-2.0,-167.0,72.0,1003.0
-47.0,13.0,231.0,-9.0,58.0,0.0,-163.0,78.0,1001.0
-45.0,15.0,227.0,-10.0,56.0,0.0,-168.0,71.0,1006.0
-47.0,13.0,227.0,-11.0,55.0,-2.0,-160.0,75.0,1006.0
-45.0,15.0,233.0,-11.0,55.0,-2.0,-161.0,73.0,999.0
-42.0,14.0,225.0,-11.0,56.0,-2.0,-159.0,74.0,1004.0
-41.0,14.0,226.0,-10.0,56.0,-2.0,-166.0,79.0,1005.0
-42.0,13.0,227.0,-11.0,57.0,-1.0,-164.0,78.0,1004.0
-44.0,14.0,229.0,-10.0,58.0,-3.0,-163.0,74.0,1002.0
-44.0,14.0,228.0,-10.0,60.0,0.0,-162.0,72.0,1000.0
-42.0,11.0,228.0,-9.0,60.0,-2.0,-165.0,74.0,1003.0
-45.0,14.0,228.0,-8.0,59.0,-4.0,-164.0,75.0,1001.0
-43.0,10.0,227.0,-7.0,58.0,-3.0,-159.0,73.0,998.0
-45.0,13.0,230.0,-8.0,59.0,-2.0,-165.0,75.0,1002.0
-44.0,14.0,229.0,-8.0,57.0,-2.0,-161.0,75.0,1005.0
-44.0,15.0,224.0,-8.0,58.0,-1.0,-163.0,75.0,1000.0
-44.0,16.0,225.0,-11.0,58.0,-2.0,-161.0,80.0,1000.0
-44.0,13.0,230.0,-11.0,58.0,0.0,-161.0,76.0,1002.0
-42.0,12.0,227.0,-10.0,59.0,-3.0,-166.0,76.0,1003.0
-46.0,14.0,230.0,-9.0,59.0,-1.0,-160.0,75.0,1001.0
-43.0,13.0,229.0,-8.0,60.0,-1.0,-160.0,70.0,999.0
-45.0,14.0,225.0,-7.0,60.0,-1.0,-161.0,71.0,1001.0
-41.0,12.0,226.0,-8.0,60.0,-1.0,-160.0,71.0,1002.0
-42.0,15.0,228.0,-6.0,59.0,0.0,-160.0,73.0,1002.0
-46.0,16.0,229.0,-3.0,58.0,0.0,-160.0,74.0,1001.0
-42.0,13.0,227.0,-2.0,57.0,0.0,-164.0,67.0,998.0
-39.0,11.0,225.0,0.0,56.0,1.0,-162.0,71.0,1000.0
-43.0,14.0,228.0,-1.0,57.0,1.0,-163.0,75.0,1001.0
-43.0,16.0,234.0,-1.0,57.0,1.0,-157.0,74.0,1002.0
-42.0,14.0,229.0,-1.0,57.0,1.0,-163.0,77.0,997.0
-41.0,12.0,225.0,-2.0,56.0,1.0,-156.0,73.0,999.0
-43.0,14.0,226.0,-3.0,56.0,2.0,-161.0,75.0,1005.0
-43.0,12.0,227.0,-3.0,55.0,1.0,-162.0,73.0,1002.0
-41.0,14.0,228.0,-3.0,56.0,2.0,-161.0,73.0,1001.0
-43.0,12.0,226.0,-2.0,55.0,1.0,-159.0,76.0,1002.0
-42.0,15.0,229.0,-2.0,56.0,2.0,-162.0,75.0,1002.0
-43.0,16.0,224.0,-1.0,56.0,0.0,-164.0,71.0,1006.0
-43.0,13.0,227.0,-1.0,56.0,1.0,-160.0,75.0,1005.0
-43.0,14.0,229.0,0.0,55.0,0.0,-159.0,73.0,1001.0
-42.0,14.0,229.0,0.0,56.0,1.0,-159.0,73.0,999.0
-40.0,12.0,227.0,1.0,58.0,1.0,-160.0,70.0,1002.0
-44.0,14.0,225.0,2.0,57.0,1.0,-163.0,75.0,999.0
-43.0,17.0,226.0,2.0,58.0,1.0,-161.0,76.0,1004.0
-44.0,12.0,227.0,4.0,57.0,4.0,-157.0,78.0,998.0
-44.0,14.0,229.0,2.0,58.0,2.0,-163.0,80.0,1002.0
-43.0,16.0,229.0,1.0,57.0,3.0,-162.0,76.0,1002.0
-45.0,15.0,228.0,1.0,58.0,2.0,-162.0,76.0,1004.0
