acc1_x,acc1_y,acc1_z,gyro_x,gyro_y,gyro_z,acc2_x,acc2_y,acc2_z
4.0,-248.0,-114.0,-136.0,-736.0,-250.0,-52.0,-947.0,-306.0
9.0,-246.0,-116.0,-141.0,-745.0,-256.0,-46.0,-936.0,-308.0
11.0,-246.0,-115.0,-150.0,-755.0,-264.0,-48.0,-931.0,-310.0
12.0,-242.0,-119.0,-164.0,-761.0,-271.0,-44.0,-925.0,-310.0
12.0,-244.0,-117.0,-177.0,-768.0,-276.0,-38.0,-926.0,-307.0
13.0,-246.0,-117.0,-193.0,-776.0,-281.0,-36.0,-927.0,-313.0
13.0,-245.0,-120.0,-207.0,-780.0,-289.0,-27.0,-933.0,-313.0
18.0,-247.0,-117.0,-222.0,-786.0,-296.0,-15.0,-938.0,-310.0
22.0,-247.0,-117.0,-234.0,-791.0,-303.0,4.0,-945.0,-310.0
23.0,-250.0,-117.0,-242.0,-796.0,-310.0,10.0,-952.0,-306.0
24.0,-253.0,-119.0,-243.0,-804.0,-317.0,11.0,-959.0,-303.0
30.0,-255.0,-114.0,-239.0,-814.0,-322.0,23.0,-968.0,-296.0
29.0,-258.0,-115.0,-233.0,-824.0,-327.0,29.0,-979.0,-288.0
29.0,-260.0,-111.0,-218.0,-833.0,-329.0,24.0,-988.0,-289.0
29.0,-261.0,-112.0,-201.0,-842.0,-330.0,29.0,-996.0,-285.0
24.0,-263.0,-108.0,-184.0,-852.0,-331.0,20.0,-1001.0,-282.0
26.0,-265.0,-110.0,-166.0,-861.0,-333.0,17.0,-1003.0,-279.0
25.0,-264.0,-111.0,-150.0,-867.0,-334.0,17.0,-1009.0,-273.0
27.0,-267.0,-106.0,-134.0,-874.0,-338.0,19.0,-1018.0,-268.0
26.0,-272.0,-103.0,-119.0,-881.0,-341.0,15.0,-1022.0,-264.0
23.0,-267.0,-107.0,-107.0,-886.0,-346.0,20.0,-1028.0,-256.0
25.0,-269.0,-104.0,-96.0,-889.0,-354.0,18.0,-1028.0,-258.0
29.0,-268.0,-103.0,-90.0,-889.0,-361.0,28.0,-1028.0,-255.0
30.0,-269.0,-102.0,-88.0,-886.0,-369.0,38.0,-1023.0,-256.0
30.0,-270.0,-104.0,-90.0,-881.0,-378.0,47.0,-1027.0,-254.0
37.0,-269.0,-101.0,-92.0,-873.0,-387.0,54.0,-1024.0,-253.0
38.0,-270.0,-105.0,-95.0,-863.0,-397.0,67.0,-1023.0,-258.0
45.0,-268.0,-106.0,-98.0,-851.0,-407.0,76.0,-1029.0,-261.0
46.0,-271.0,-104.0,-101.0,-838.0,-417.0,89.0,-1025.0,-266.0
49.0,-269.0,-107.0,-101.0,-822.0,-425.0,98.0,-1022.0,-264.0
51.0,-267.0,-106.0,-99.0,-806.0,-431.0,108.0,-1013.0,-272.0
53.0,-263.0,-108.0,-95.0,-791.0,-435.0,116.0,-999.0,-273.0
52.0,-260.0,-109.0,-91.0,-773.0,-437.0,114.0,-987.0,-272.0
49.0,-256.0,-104.0,-89.0,-755.0,-436.0,124.0,-978.0,-264.0
51.0,-257.0,-106.0,-84.0,-733.0,-434.0,117.0,-972.0,-256.0
48.0,-256.0,-106.0,-72.0,-712.0,-432.0,107.0,-969.0,-260.0
45.0,-253.0,-104.0,-56.0,-692.0,-429.0,97.0,-956.0,-266.0
47.0,-252.0,-108.0,-43.0,-672.0,-425.0,87.0,-949.0,-261.0
43.0,-251.0,-105.0,-32.0,-656.0,-419.0,80.0,-948.0,-259.0
39.0,-249.0,-102.0,-22.0,-636.0,-418.0,65.0,-942.0,-255.0
36.0,-247.0,-100.0,-15.0,-616.0,-415.0,53.0,-939.0,-255.0
33.0,-247.0,-101.0,-10.0,-599.0,-411.0,44.0,-934.0,-257.0
30.0,-247.0,-105.0,-6.0,-583.0,-410.0,37.0,-937.0,-255.0
30.0,-245.0,-104.0,-2.0,-570.0,-409.0,30.0,-943.0,-255.0
29.0,-247.0,-102.0,1.0,-560.0,-408.0,23.0,-937.0,-254.0
26.0,-247.0,-100.0,2.0,-550.0,-405.0,17.0,-933.0,-253.0
20.0,-242.0,-107.0,2.0,-544.0,-403.0,13.0,-929.0,-254.0
25.0,-244.0,-104.0,-1.0,-540.0,-400.0,6.0,-919.0,-252.0
24.0,-243.0,-103.0,-6.0,-536.0,-398.0,7.0,-921.0,-250.0
22.0,-242.0,-100.0,-7.0,-529.0,-393.0,4.0,-912.0,-250.0
21.0,-238.0,-100.0,-10.0,-524.0,-387.0,5.0,-914.0,-241.0
23.0,-238.0,-103.0,-10.0,-521.0,-380.0,4.0,-899.0,-245.0
21.0,-234.0,-101.0,-15.0,-517.0,-373.0,10.0,-895.0,-241.0
25.0,-238.0,-99.0,-21.0,-512.0,-361.0,5.0,-897.0,-246.0
25.0,-235.0,-102.0,-28.0,-506.0,-348.0,12.0,-885.0,-234.0
25.0,-236.0,-95.0,-40.0,-497.0,-335.0,7.0,-889.0,-231.0
26.0,-237.0,-98.0,-56.0,-488.0,-320.0,13.0,-890.0,-223.0
25.0,-238.0,-98.0,-72.0,-479.0,-308.0,8.0,-898.0,-217.0
22.0,-253.0,-82.0,-91.0,-470.0,-295.0,16.0,-907.0,-214.0
25.0,-241.0,-96.0,-114.0,-464.0,-285.0,17.0,-918.0,-209.0
22.0,-244.0,-91.0,-139.0,-458.0,-277.0,11.0,-923.0,-211.0
26.0,-248.0,-88.0,-166.0,-457.0,-272.0,10.0,-933.0,-210.0
23.0,-245.0,-91.0,-193.0,-457.0,-265.0,9.0,-936.0,-202.0
22.0,-249.0,-88.0,-221.0,-460.0,-261.0,-1.0,-944.0,-198.0
20.0,-252.0,-89.0,-244.0,-466.0,-260.0,-3.0,-949.0,-196.0
16.0,-251.0,-87.0,-264.0,-469.0,-261.0,-14.0,-949.0,-192.0
16.0,-252.0,-85.0,-281.0,-474.0,-261.0,-9.0,-951.0,-189.0
13.0,-254.0,-87.0,-299.0,-480.0,-262.0,-23.0,-961.0,-190.0
13.0,-252.0,-84.0,-315.0,-488.0,-264.0,-32.0,-967.0,-183.0
9.0,-254.0,-84.0,-326.0,-495.0,-269.0,-33.0,-970.0,-174.0
11.0,-257.0,-84.0,-330.0,-505.0,-272.0,-38.0,-978.0,-177.0
10.0,-257.0,-84.0,-329.0,-513.0,-275.0,-35.0,-983.0,-174.0
13.0,-260.0,-85.0,-326.0,-521.0,-282.0,-34.0,-993.0,-177.0
12.0,-260.0,-85.0,-321.0,-529.0,-286.0,-31.0,-990.0,-179.0
13.0,-261.0,-83.0,-317.0,-537.0,-292.0,-28.0,-991.0,-180.0
15.0,-260.0,-84.0,-308.0,-544.0,-298.0,-29.0,-993.0,-181.0
17.0,-261.0,-90.0,-302.0,-551.0,-302.0,-24.0,-993.0,-193.0
18.0,-260.0,-89.0,-293.0,-557.0,-307.0,-14.0,-982.0,-195.0
17.0,-257.0,-87.0,-286.0,-560.0,-314.0,-9.0,-988.0,-201.0
20.0,-259.0,-90.0,-282.0,-565.0,-319.0,-7.0,-983.0,-199.0
21.0,-255.0,-90.0,-276.0,-571.0,-322.0,-6.0,-970.0,-208.0
19.0,-253.0,-93.0,-269.0,-580.0,-325.0,-4.0,-957.0,-210.0
20.0,-254.0,-93.0,-265.0,-586.0,-326.0,-5.0,-949.0,-211.0
16.0,-248.0,-95.0,-262.0,-595.0,-325.0,-16.0,-945.0,-208.0
16.0,-247.0,-93.0,-256.0,-604.0,-324.0,-17.0,-937.0,-207.0
15.0,-247.0,-91.0,-254.0,-615.0,-325.0,-23.0,-937.0,-205.0
12.0,-244.0,-91.0,-247.0,-625.0,-321.0,-26.0,-938.0,-207.0
13.0,-248.0,-91.0,-242.0,-636.0,-318.0,-30.0,-938.0,-209.0
11.0,-249.0,-92.0,-236.0,-647.0,-316.0,-33.0,-938.0,-204.0
14.0,-248.0,-94.0,-229.0,-660.0,-315.0,-33.0,-944.0,-205.0
12.0,-251.0,-93.0,-222.0,-675.0,-313.0,-36.0,-947.0,-199.0
13.0,-253.0,-92.0,-212.0,-691.0,-314.0,-32.0,-954.0,-195.0
11.0,-254.0,-86.0,-204.0,-706.0,-315.0,-32.0,-960.0,-193.0
14.0,-256.0,-90.0,-192.0,-716.0,-319.0,-32.0,-966.0,-190.0
14.0,-256.0,-90.0,-181.0,-723.0,-322.0,-24.0,-970.0,-190.0
17.0,-257.0,-87.0,-170.0,-727.0,-329.0,-16.0,-978.0,-195.0
18.0,-258.0,-87.0,-157.0,-733.0,-337.0,-4.0,-978.0,-184.0
22.0,-259.0,-86.0,-144.0,-737.0,-345.0,1.0,-973.0,-193.0
22.0,-256.0,-86.0,-133.0,-740.0,-356.0,7.0,-977.0,-187.0
26.0,-256.0,-89.0,-124.0,-745.0,-365.0,12.0,-975.0,-187.0
29.0,-256.0,-85.0,-114.0,-744.0,-373.0,21.0,-972.0,-186.0
27.0,-257.0,-86.0,-109.0,-741.0,-380.0,24.0,-977.0,-188.0
27.0,-255.0,-90.0,-103.0,-737.0,-388.0,23.0,-971.0,-186.0
28.0,-256.0,-84.0,-102.0,-732.0,-392.0,23.0,-974.0,-189.0
27.0,-256.0,-88.0,-101.0,-727.0,-396.0,30.0,-971.0,-192.0
28.0,-256.0,-87.0,-103.0,-722.0,-401.0,23.0,-976.0,-185.0
27.0,-256.0,-81.0,-103.0,-718.0,-404.0,25.0,-984.0,-185.0
27.0,-258.0,-81.0,-101.0,-713.0,-407.0,15.0,-988.0,-179.0
24.0,-262.0,-87.0,-96.0,-710.0,-408.0,17.0,-998.0,-171.0
26.0,-267.0,-76.0,-86.0,-708.0,-409.0,11.0,-1014.0,-167.0
23.0,-270.0,-78.0,-74.0,-707.0,-411.0,12.0,-1029.0,-160.0
21.0,-277.0,-77.0,-64.0,-710.0,-412.0,0.0,-1052.0,-158.0
21.0,-284.0,-75.0,-52.0,-716.0,-409.0,-1.0,-1077.0,-148.0
21.0,-286.0,-77.0,-36.0,-721.0,-403.0,-16.0,-1085.0,-142.0
18.0,-290.0,-73.0,-17.0,-726.0,-395.0,-9.0,-1103.0,-141.0
18.0,-291.0,-80.0,4.0,-730.0,-388.0,-11.0,-1115.0,-144.0
19.0,-294.0,-71.0,25.0,-729.0,-382.0,-7.0,-1114.0,-145.0
19.0,-294.0,-77.0,48.0,-730.0,-377.0,-6.0,-1121.0,-142.0
21.0,-291.0,-72.0,67.0,-729.0,-377.0,3.0,-1118.0,-140.0
20.0,-292.0,-77.0,91.0,-725.0,-377.0,4.0,-1111.0,-137.0
22.0,-290.0,-69.0,112.0,-721.0,-377.0,7.0,-1108.0,-130.0
24.0,-292.0,-71.0,136.0,-716.0,-381.0,6.0,-1105.0,-121.0
23.0,-287.0,-68.0,165.0,-713.0,-382.0,10.0,-1099.0,-116.0
21.0,-289.0,-66.0,198.0,-711.0,-381.0,1.0,-1091.0,-112.0
21.0,-288.0,-66.0,230.0,-710.0,-379.0,-7.0,-1087.0,-110.0
18.0,-286.0,-65.0,260.0,-711.0,-376.0,-13.0,-1089.0,-102.0
18.0,-285.0,-68.0,288.0,-710.0,-370.0,-22.0,-1082.0,-98.0
19.0,-285.0,-63.0,312.0,-711.0,-360.0,-13.0,-1083.0,-104.0
20.0,-281.0,-73.0,325.0,-707.0,-353.0,-1.0,-1081.0,-133.0
25.0,-281.0,-83.0,319.0,-700.0,-348.0,18.0,-1079.0,-177.0
31.0,-281.0,-97.0,290.0,-696.0,-346.0,30.0,-1082.0,-224.0
30.0,-285.0,-112.0,242.0,-696.0,-346.0,33.0,-1097.0,-287.0
27.0,-291.0,-125.0,179.0,-706.0,-351.0,32.0,-1126.0,-338.0
27.0,-302.0,-135.0,108.0,-720.0,-361.0,26.0,-1158.0,-380.0
29.0,-318.0,-136.0,35.0,-732.0,-379.0,31.0,-1194.0,-406.0
32.0,-325.0,-147.0,-24.0,-737.0,-400.0,45.0,-1236.0,-424.0
39.0,-335.0,-151.0,-65.0,-729.0,-426.0,66.0,-1276.0,-436.0
50.0,-343.0,-151.0,-73.0,-706.0,-456.0,92.0,-1297.0,-456.0
57.0,-347.0,-154.0,-67.0,-669.0,-491.0,117.0,-1312.0,-466.0
57.0,-340.0,-163.0,-47.0,-618.0,-525.0,130.0,-1306.0,-495.0
57.0,-331.0,-166.0,-29.0,-566.0,-554.0,133.0,-1283.0,-509.0
55.0,-322.0,-167.0,-18.0,-498.0,-572.0,126.0,-1232.0,-517.0
51.0,-307.0,-169.0,-14.0,-429.0,-581.0,108.0,-1185.0,-520.0
46.0,-294.0,-165.0,-22.0,-368.0,-579.0,88.0,-1129.0,-504.0
34.0,-275.0,-163.0,-37.0,-322.0,-571.0,49.0,-1070.0,-486.0
27.0,-262.0,-152.0,-58.0,-293.0,-552.0,24.0,-1011.0,-476.0
20.0,-252.0,-153.0,-86.0,-285.0,-527.0,2.0,-961.0,-465.0
10.0,-240.0,-153.0,-113.0,-303.0,-502.0,-32.0,-923.0,-448.0
1.0,-233.0,-149.0,-133.0,-348.0,-476.0,-62.0,-886.0,-448.0
-8.0,-227.0,-149.0,-145.0,-418.0,-449.0,-107.0,-864.0,-442.0
-17.0,-222.0,-148.0,-141.0,-507.0,-419.0,-140.0,-842.0,-448.0
-25.0,-217.0,-148.0,-119.0,-606.0,-393.0,-167.0,-814.0,-441.0
-26.0,-212.0,-146.0,-89.0,-706.0,-364.0,-185.0,-793.0,-442.0
-33.0,-206.0,-146.0,-51.0,-804.0,-342.0,-198.0,-774.0,-437.0
-36.0,-200.0,-145.0,-10.0,-899.0,-320.0,-207.0,-752.0,-437.0
-34.0,-192.0,-147.0,29.0,-983.0,-295.0,-208.0,-723.0,-436.0
-32.0,-188.0,-147.0,66.0,-1058.0,-267.0,-198.0,-708.0,-429.0
-25.0,-185.0,-147.0,100.0,-1117.0,-239.0,-183.0,-693.0,-426.0
-18.0,-186.0,-147.0,125.0,-1163.0,-208.0,-154.0,-689.0,-425.0
-3.0,-189.0,-146.0,138.0,-1196.0,-180.0,-108.0,-697.0,-435.0
9.0,-192.0,-149.0,143.0,-1220.0,-156.0,-51.0,-717.0,-440.0
26.0,-194.0,-151.0,137.0,-1238.0,-134.0,14.0,-739.0,-443.0
40.0,-204.0,-153.0,124.0,-1251.0,-118.0,75.0,-770.0,-450.0
58.0,-211.0,-156.0,102.0,-1261.0,-110.0,143.0,-792.0,-453.0
72.0,-216.0,-156.0,74.0,-1263.0,-107.0,194.0,-814.0,-459.0
81.0,-223.0,-149.0,40.0,-1257.0,-109.0,231.0,-840.0,-461.0
92.0,-229.0,-157.0,9.0,-1240.0,-111.0,266.0,-863.0,-458.0
97.0,-236.0,-152.0,-19.0,-1207.0,-117.0,283.0,-884.0,-446.0
98.0,-241.0,-147.0,-38.0,-1163.0,-125.0,291.0,-901.0,-441.0
98.0,-247.0,-148.0,-49.0,-1113.0,-133.0,279.0,-925.0,-434.0
88.0,-247.0,-142.0,-49.0,-1060.0,-143.0,261.0,-932.0,-425.0
80.0,-246.0,-142.0,-39.0,-1008.0,-148.0,224.0,-936.0,-421.0
70.0,-248.0,-145.0,-22.0,-962.0,-150.0,185.0,-929.0,-426.0
60.0,-247.0,-140.0,0.0,-921.0,-146.0,146.0,-928.0,-426.0
49.0,-243.0,-148.0,23.0,-886.0,-137.0,104.0,-923.0,-421.0
43.0,-243.0,-144.0,41.0,-860.0,-121.0,78.0,-922.0,-428.0
35.0,-243.0,-145.0,56.0,-841.0,-102.0,49.0,-911.0,-419.0
27.0,-243.0,-142.0,68.0,-826.0,-82.0,15.0,-913.0,-419.0
20.0,-240.0,-139.0,71.0,-819.0,-56.0,-2.0,-920.0,-412.0
21.0,-244.0,-140.0,72.0,-817.0,-29.0,-17.0,-919.0,-400.0
16.0,-244.0,-139.0,69.0,-818.0,-3.0,-20.0,-918.0,-398.0
16.0,-242.0,-140.0,63.0,-819.0,22.0,-24.0,-919.0,-398.0
16.0,-241.0,-140.0,52.0,-822.0,44.0,-17.0,-915.0,-403.0
18.0,-243.0,-141.0,40.0,-823.0,62.0,-11.0,-919.0,-398.0
21.0,-239.0,-140.0,31.0,-821.0,77.0,0.0,-917.0,-403.0
28.0,-240.0,-142.0,22.0,-818.0,90.0,8.0,-906.0,-411.0
24.0,-235.0,-143.0,15.0,-809.0,96.0,14.0,-900.0,-415.0
28.0,-238.0,-141.0,4.0,-796.0,99.0,24.0,-885.0,-413.0
30.0,-235.0,-143.0,2.0,-780.0,100.0,33.0,-892.0,-414.0
32.0,-237.0,-145.0,3.0,-762.0,96.0,35.0,-885.0,-416.0
31.0,-234.0,-140.0,9.0,-741.0,91.0,32.0,-880.0,-408.0
31.0,-232.0,-140.0,17.0,-716.0,88.0,25.0,-886.0,-404.0
28.0,-235.0,-136.0,26.0,-691.0,83.0,11.0,-885.0,-379.0
22.0,-234.0,-131.0,33.0,-665.0,83.0,7.0,-879.0,-368.0
17.0,-234.0,-130.0,40.0,-638.0,85.0,-7.0,-898.0,-342.0
15.0,-240.0,-125.0,48.0,-612.0,89.0,-28.0,-910.0,-330.0
14.0,-242.0,-123.0,61.0,-588.0,95.0,-46.0,-921.0,-319.0
6.0,-242.0,-120.0,76.0,-564.0,101.0,-58.0,-925.0,-311.0
5.0,-243.0,-121.0,89.0,-545.0,108.0,-64.0,-923.0,-311.0
1.0,-242.0,-116.0,95.0,-530.0,118.0,-66.0,-918.0,-309.0
2.0,-241.0,-114.0,97.0,-519.0,129.0,-77.0,-913.0,-305.0
0.0,-240.0,-117.0,99.0,-509.0,139.0,-78.0,-905.0,-299.0
0.0,-237.0,-113.0,98.0,-501.0,149.0,-83.0,-909.0,-300.0
-1.0,-238.0,-114.0,100.0,-493.0,160.0,-85.0,-906.0,-302.0
1.0,-234.0,-107.0,99.0,-483.0,167.0,-78.0,-890.0,-294.0
1.0,-234.0,-114.0,101.0,-471.0,173.0,-75.0,-885.0,-287.0
4.0,-233.0,-107.0,98.0,-458.0,180.0,-68.0,-869.0,-282.0
6.0,-228.0,-110.0,96.0,-443.0,182.0,-59.0,-864.0,-274.0
9.0,-225.0,-110.0,91.0,-427.0,181.0,-53.0,-856.0,-267.0
10.0,-227.0,-107.0,79.0,-411.0,177.0,-43.0,-843.0,-261.0
11.0,-225.0,-106.0,65.0,-395.0,174.0,-31.0,-846.0,-256.0
13.0,-222.0,-104.0,49.0,-378.0,167.0,-27.0,-848.0,-251.0
17.0,-225.0,-98.0,37.0,-360.0,158.0,-8.0,-845.0,-247.0
20.0,-223.0,-100.0,25.0,-344.0,150.0,-3.0,-853.0,-239.0
28.0,-230.0,-100.0,15.0,-328.0,140.0,7.0,-857.0,-236.0
26.0,-227.0,-98.0,9.0,-310.0,131.0,14.0,-862.0,-228.0
26.0,-228.0,-102.0,4.0,-292.0,120.0,20.0,-865.0,-222.0
29.0,-232.0,-95.0,5.0,-269.0,112.0,22.0,-877.0,-220.0
30.0,-235.0,-95.0,6.0,-244.0,105.0,23.0,-888.0,-216.0
28.0,-238.0,-95.0,12.0,-215.0,98.0,22.0,-892.0,-211.0
38.0,-242.0,-88.0,20.0,-185.0,93.0,21.0,-893.0,-202.0
26.0,-235.0,-88.0,28.0,-154.0,87.0,25.0,-906.0,-194.0
26.0,-241.0,-87.0,37.0,-123.0,86.0,17.0,-908.0,-182.0
25.0,-242.0,-83.0,48.0,-95.0,82.0,19.0,-922.0,-173.0
23.0,-238.0,-82.0,63.0,-71.0,82.0,12.0,-918.0,-171.0
23.0,-244.0,-80.0,73.0,-48.0,80.0,7.0,-923.0,-160.0
22.0,-242.0,-75.0,84.0,-31.0,81.0,-8.0,-922.0,-152.0
16.0,-241.0,-76.0,95.0,-12.0,82.0,-9.0,-918.0,-149.0
16.0,-238.0,-78.0,102.0,6.0,85.0,-26.0,-910.0,-145.0
12.0,-234.0,-78.0,110.0,26.0,85.0,-37.0,-910.0,-135.0
9.0,-237.0,-74.0,116.0,44.0,87.0,-47.0,-891.0,-132.0
4.0,-236.0,-75.0,122.0,64.0,88.0,-59.0,-888.0,-128.0
3.0,-238.0,-77.0,124.0,83.0,88.0,-65.0,-892.0,-136.0
1.0,-237.0,-72.0,126.0,101.0,87.0,-82.0,-889.0,-127.0
0.0,-238.0,-69.0,124.0,119.0,84.0,-82.0,-908.0,-122.0
0.0,-242.0,-71.0,126.0,131.0,77.0,-75.0,-922.0,-118.0
0.0,-246.0,-74.0,130.0,140.0,71.0,-90.0,-935.0,-110.0
1.0,-255.0,-70.0,134.0,145.0,64.0,-86.0,-956.0,-115.0
0.0,-256.0,-69.0,140.0,149.0,58.0,-91.0,-982.0,-111.0
3.0,-264.0,-65.0,147.0,158.0,53.0,-79.0,-1004.0,-106.0
0.0,-266.0,-66.0,156.0,169.0,48.0,-80.0,-1020.0,-110.0
3.0,-274.0,-71.0,163.0,182.0,44.0,-72.0,-1043.0,-110.0
4.0,-279.0,-65.0,173.0,199.0,41.0,-64.0,-1060.0,-110.0
11.0,-287.0,-61.0,183.0,218.0,38.0,-55.0,-1073.0,-105.0
10.0,-287.0,-64.0,196.0,239.0,35.0,-48.0,-1083.0,-98.0
15.0,-289.0,-64.0,210.0,262.0,35.0,-38.0,-1095.0,-88.0
11.0,-286.0,-58.0,225.0,285.0,35.0,-36.0,-1107.0,-80.0
10.0,-291.0,-63.0,238.0,305.0,38.0,-38.0,-1104.0,-77.0
9.0,-292.0,-56.0,245.0,323.0,45.0,-46.0,-1105.0,-71.0
5.0,-287.0,-54.0,246.0,340.0,58.0,-57.0,-1107.0,-60.0
5.0,-290.0,-56.0,244.0,353.0,75.0,-59.0,-1112.0,-53.0
6.0,-290.0,-53.0,238.0,368.0,96.0,-67.0,-1112.0,-39.0
8.0,-291.0,-49.0,232.0,386.0,118.0,-54.0,-1112.0,-29.0
9.0,-287.0,-43.0,231.0,409.0,139.0,-51.0,-1114.0,-8.0
10.0,-293.0,-38.0,230.0,432.0,156.0,-33.0,-1107.0,10.0
16.0,-288.0,-33.0,232.0,458.0,166.0,-15.0,-1102.0,25.0
23.0,-287.0,-27.0,237.0,486.0,168.0,14.0,-1095.0,40.0
31.0,-279.0,-23.0,246.0,513.0,161.0,36.0,-1081.0,46.0
37.0,-278.0,-31.0,253.0,539.0,149.0,64.0,-1063.0,38.0
43.0,-274.0,-38.0,254.0,563.0,132.0,79.0,-1058.0,9.0
44.0,-276.0,-50.0,246.0,581.0,113.0,81.0,-1052.0,-41.0
42.0,-279.0,-68.0,227.0,600.0,100.0,73.0,-1073.0,-101.0
40.0,-292.0,-81.0,203.0,626.0,92.0,68.0,-1113.0,-170.0
31.0,-308.0,-102.0,164.0,654.0,94.0,39.0,-1172.0,-257.0
22.0,-325.0,-126.0,94.0,682.0,110.0,-1.0,-1258.0,-345.0
9.0,-347.0,-141.0,0.0,712.0,136.0,-52.0,-1338.0,-416.0
-3.0,-367.0,-154.0,-88.0,737.0,173.0,-96.0,-1411.0,-456.0
-15.0,-384.0,-157.0,-145.0,750.0,223.0,-138.0,-1463.0,-469.0
-26.0,-391.0,-163.0,-151.0,742.0,276.0,-183.0,-1480.0,-497.0
-38.0,-389.0,-166.0,-114.0,711.0,335.0,-225.0,-1480.0,-540.0
-51.0,-383.0,-182.0,-55.0,660.0,387.0,-268.0,-1458.0,-571.0
-59.0,-375.0,-191.0,20.0,594.0,434.0,-296.0,-1415.0,-614.0
-59.0,-355.0,-200.0,97.0,528.0,469.0,-300.0,-1356.0,-656.0
-52.0,-333.0,-212.0,167.0,468.0,494.0,-279.0,-1271.0,-700.0
-40.0,-311.0,-219.0,222.0,419.0,503.0,-237.0,-1174.0,-733.0
-24.0,-283.0,-224.0,254.0,382.0,501.0,-180.0,-1080.0,-753.0
-6.0,-257.0,-225.0,265.0,358.0,492.0,-121.0,-974.0,-745.0
8.0,-231.0,-226.0,256.0,345.0,476.0,-51.0,-865.0,-746.0
27.0,-204.0,-219.0,235.0,344.0,458.0,11.0,-773.0,-733.0
37.0,-187.0,-213.0,212.0,345.0,435.0,72.0,-698.0,-706.0
55.0,-167.0,-204.0,191.0,347.0,404.0,124.0,-631.0,-661.0
68.0,-156.0,-199.0,179.0,341.0,371.0,172.0,-583.0,-623.0
72.0,-150.0,-187.0,173.0,334.0,334.0,203.0,-549.0,-592.0
77.0,-148.0,-176.0,171.0,334.0,298.0,212.0,-547.0,-555.0
77.0,-151.0,-167.0,171.0,348.0,260.0,219.0,-554.0,-515.0
79.0,-159.0,-161.0,172.0,374.0,220.0,225.0,-589.0,-477.0
76.0,-171.0,-153.0,164.0,410.0,177.0,211.0,-637.0,-462.0
75.0,-185.0,-146.0,147.0,450.0,137.0,195.0,-704.0,-438.0
64.0,-197.0,-146.0,122.0,489.0,98.0,150.0,-753.0,-420.0
50.0,-210.0,-139.0,88.0,519.0,60.0,102.0,-797.0,-404.0
37.0,-221.0,-136.0,50.0,533.0,22.0,45.0,-839.0,-385.0
17.0,-236.0,-131.0,10.0,531.0,-13.0,-8.0,-885.0,-372.0
0.0,-245.0,-126.0,-28.0,515.0,-43.0,-62.0,-927.0,-351.0
-11.0,-255.0,-124.0,-61.0,488.0,-70.0,-119.0,-967.0,-343.0
-25.0,-262.0,-123.0,-91.0,458.0,-95.0,-171.0,-996.0,-341.0
-33.0,-261.0,-125.0,-120.0,423.0,-118.0,-220.0,-1012.0,-329.0
-50.0,-268.0,-122.0,-148.0,386.0,-135.0,-271.0,-1024.0,-330.0
-61.0,-268.0,-118.0,-176.0,345.0,-148.0,-298.0,-1020.0,-321.0
-65.0,-267.0,-119.0,-198.0,300.0,-162.0,-318.0,-1017.0,-312.0
-65.0,-262.0,-116.0,-213.0,248.0,-175.0,-327.0,-1000.0,-310.0
-66.0,-256.0,-116.0,-221.0,193.0,-189.0,-330.0,-976.0,-302.0
-60.0,-250.0,-114.0,-217.0,135.0,-201.0,-309.0,-954.0,-289.0
-53.0,-241.0,-112.0,-204.0,81.0,-218.0,-283.0,-926.0,-289.0
-38.0,-237.0,-108.0,-186.0,28.0,-236.0,-229.0,-890.0,-277.0
-25.0,-232.0,-111.0,-168.0,-20.0,-255.0,-185.0,-875.0,-273.0
-13.0,-227.0,-112.0,-150.0,-62.0,-270.0,-145.0,-857.0,-280.0
-3.0,-221.0,-110.0,-134.0,-102.0,-282.0,-101.0,-841.0,-287.0
1.0,-215.0,-110.0,-126.0,-139.0,-292.0,-72.0,-830.0,-286.0
10.0,-217.0,-117.0,-124.0,-175.0,-297.0,-46.0,-820.0,-296.0
15.0,-214.0,-117.0,-128.0,-208.0,-300.0,-26.0,-814.0,-307.0
21.0,-214.0,-121.0,-137.0,-235.0,-303.0,-7.0,-805.0,-318.0
21.0,-210.0,-123.0,-146.0,-261.0,-304.0,-2.0,-804.0,-327.0
21.0,-212.0,-122.0,-155.0,-283.0,-306.0,-1.0,-800.0,-335.0
19.0,-210.0,-126.0,-158.0,-300.0,-307.0,4.0,-803.0,-351.0
18.0,-217.0,-127.0,-161.0,-317.0,-306.0,2.0,-812.0,-352.0
20.0,-219.0,-130.0,-163.0,-331.0,-307.0,-14.0,-820.0,-359.0
14.0,-222.0,-129.0,-164.0,-340.0,-309.0,-20.0,-831.0,-365.0
13.0,-227.0,-129.0,-167.0,-347.0,-312.0,-28.0,-849.0,-365.0
12.0,-230.0,-129.0,-171.0,-350.0,-317.0,-36.0,-863.0,-364.0
7.0,-229.0,-131.0,-177.0,-353.0,-324.0,-45.0,-874.0,-358.0
7.0,-238.0,-129.0,-177.0,-352.0,-329.0,-44.0,-897.0,-343.0
8.0,-240.0,-125.0,-175.0,-355.0,-335.0,-45.0,-917.0,-332.0
7.0,-241.0,-120.0,-168.0,-358.0,-339.0,-44.0,-921.0,-322.0
15.0,-245.0,-120.0,-160.0,-363.0,-342.0,-32.0,-917.0,-317.0
17.0,-243.0,-120.0,-150.0,-366.0,-341.0,-21.0,-917.0,-307.0
20.0,-246.0,-112.0,-137.0,-371.0,-339.0,-4.0,-922.0,-296.0
27.0,-244.0,-113.0,-124.0,-379.0,-335.0,7.0,-922.0,-287.0
27.0,-244.0,-108.0,-108.0,-386.0,-328.0,24.0,-916.0,-276.0
32.0,-243.0,-109.0,-90.0,-393.0,-318.0,45.0,-925.0,-267.0
35.0,-243.0,-106.0,-67.0,-398.0,-305.0,58.0,-924.0,-252.0
37.0,-241.0,-98.0,-46.0,-403.0,-290.0,73.0,-923.0,-239.0
39.0,-244.0,-96.0,-27.0,-407.0,-274.0,75.0,-923.0,-231.0
42.0,-246.0,-94.0,-10.0,-414.0,-256.0,75.0,-922.0,-224.0
41.0,-244.0,-98.0,3.0,-415.0,-237.0,79.0,-925.0,-220.0
40.0,-242.0,-93.0,10.0,-414.0,-217.0,69.0,-917.0,-213.0
37.0,-239.0,-96.0,6.0,-409.0,-196.0,60.0,-919.0,-216.0
37.0,-240.0,-93.0,-4.0,-400.0,-183.0,49.0,-913.0,-216.0
30.0,-240.0,-95.0,-21.0,-390.0,-165.0,39.0,-908.0,-216.0
29.0,-234.0,-95.0,-41.0,-376.0,-148.0,33.0,-891.0,-221.0
28.0,-233.0,-98.0,-62.0,-361.0,-132.0,27.0,-883.0,-223.0
23.0,-232.0,-99.0,-86.0,-344.0,-118.0,14.0,-875.0,-223.0
23.0,-229.0,-98.0,-105.0,-323.0,-102.0,7.0,-869.0,-216.0
24.0,-228.0,-96.0,-125.0,-303.0,-87.0,1.0,-866.0,-221.0
16.0,-228.0,-96.0,-146.0,-283.0,-75.0,2.0,-858.0,-214.0
24.0,-226.0,-93.0,-162.0,-265.0,-64.0,3.0,-850.0,-206.0
22.0,-227.0,-92.0,-178.0,-246.0,-58.0,6.0,-855.0,-210.0
22.0,-228.0,-90.0,-188.0,-231.0,-49.0,2.0,-859.0,-202.0
23.0,-233.0,-92.0,-192.0,-219.0,-44.0,1.0,-878.0,-201.0
24.0,-235.0,-91.0,-191.0,-211.0,-40.0,-1.0,-892.0,-195.0
23.0,-242.0,-89.0,-187.0,-207.0,-35.0,0.0,-911.0,-189.0
21.0,-247.0,-86.0,-177.0,-203.0,-33.0,1.0,-931.0,-181.0
19.0,-253.0,-83.0,-166.0,-201.0,-30.0,-8.0,-952.0,-173.0
20.0,-257.0,-81.0,-151.0,-201.0,-26.0,0.0,-983.0,-160.0
28.0,-264.0,-81.0,-133.0,-196.0,-23.0,17.0,-1001.0,-155.0
25.0,-266.0,-79.0,-110.0,-186.0,-23.0,14.0,-1013.0,-164.0
22.0,-269.0,-82.0,-80.0,-176.0,-23.0,11.0,-1019.0,-160.0
22.0,-270.0,-81.0,-48.0,-175.0,-23.0,7.0,-1025.0,-161.0
22.0,-272.0,-81.0,-19.0,-181.0,-24.0,5.0,-1031.0,-168.0
21.0,-269.0,-83.0,1.0,-192.0,-24.0,-3.0,-1018.0,-182.0
17.0,-266.0,-84.0,14.0,-208.0,-25.0,-13.0,-1008.0,-183.0
11.0,-266.0,-86.0,25.0,-227.0,-21.0,-28.0,-1005.0,-182.0
11.0,-265.0,-83.0,41.0,-247.0,-14.0,-47.0,-1010.0,-178.0
2.0,-262.0,-88.0,58.0,-269.0,-5.0,-60.0,-1007.0,-167.0
1.0,-267.0,-78.0,79.0,-292.0,4.0,-75.0,-1008.0,-147.0
3.0,-264.0,-76.0,101.0,-309.0,13.0,-74.0,-1009.0,-129.0
3.0,-262.0,-72.0,123.0,-320.0,21.0,-72.0,-1013.0,-116.0
3.0,-267.0,-68.0,140.0,-323.0,25.0,-62.0,-1014.0,-108.0
6.0,-267.0,-66.0,154.0,-322.0,25.0,-49.0,-1020.0,-102.0
11.0,-268.0,-68.0,162.0,-320.0,21.0,-38.0,-1020.0,-95.0
14.0,-267.0,-61.0,166.0,-317.0,12.0,-12.0,-1024.0,-88.0
20.0,-269.0,-61.0,170.0,-315.0,1.0,-1.0,-1022.0,-88.0
30.0,-267.0,-69.0,170.0,-312.0,-11.0,17.0,-1030.0,-78.0
30.0,-272.0,-57.0,169.0,-307.0,-26.0,31.0,-1034.0,-67.0
28.0,-271.0,-49.0,170.0,-300.0,-40.0,36.0,-1045.0,-47.0
32.0,-277.0,-46.0,173.0,-291.0,-56.0,40.0,-1057.0,-24.0
28.0,-281.0,-41.0,177.0,-279.0,-69.0,37.0,-1063.0,-7.0
27.0,-280.0,-35.0,181.0,-271.0,-83.0,21.0,-1074.0,13.0
21.0,-275.0,-35.0,187.0,-266.0,-97.0,5.0,-1072.0,27.0
15.0,-275.0,-27.0,188.0,-266.0,-108.0,-17.0,-1061.0,41.0
11.0,-272.0,-32.0,186.0,-271.0,-117.0,-28.0,-1054.0,43.0
7.0,-268.0,-34.0,178.0,-284.0,-124.0,-40.0,-1034.0,28.0
3.0,-267.0,-44.0,158.0,-302.0,-127.0,-48.0,-1022.0,-10.0
4.0,-268.0,-49.0,121.0,-331.0,-125.0,-54.0,-1028.0,-51.0
3.0,-278.0,-67.0,68.0,-367.0,-125.0,-72.0,-1063.0,-103.0
-2.0,-293.0,-89.0,-2.0,-411.0,-129.0,-94.0,-1109.0,-171.0
-7.0,-306.0,-108.0,-95.0,-455.0,-139.0,-105.0,-1159.0,-237.0
-1.0,-319.0,-122.0,-206.0,-492.0,-153.0,-100.0,-1209.0,-318.0
8.0,-334.0,-137.0,-315.0,-518.0,-172.0,-66.0,-1266.0,-378.0
18.0,-342.0,-147.0,-400.0,-521.0,-195.0,-25.0,-1308.0,-426.0
35.0,-354.0,-159.0,-439.0,-504.0,-223.0,38.0,-1338.0,-469.0
55.0,-361.0,-167.0,-431.0,-471.0,-254.0,94.0,-1364.0,-519.0
63.0,-367.0,-175.0,-388.0,-431.0,-284.0,144.0,-1388.0,-552.0
73.0,-369.0,-181.0,-320.0,-384.0,-317.0,187.0,-1400.0,-563.0
82.0,-367.0,-182.0,-239.0,-331.0,-349.0,219.0,-1385.0,-574.0
79.0,-357.0,-188.0,-158.0,-273.0,-377.0,221.0,-1360.0,-590.0
77.0,-344.0,-184.0,-87.0,-208.0,-398.0,206.0,-1307.0,-606.0
69.0,-326.0,-193.0,-31.0,-144.0,-410.0,178.0,-1242.0,-607.0
64.0,-311.0,-190.0,15.0,-82.0,-414.0,150.0,-1171.0,-607.0
52.0,-292.0,-196.0,52.0,-34.0,-413.0,113.0,-1091.0,-612.0
35.0,-270.0,-185.0,81.0,-2.0,-412.0,60.0,-1017.0,-612.0
25.0,-250.0,-190.0,109.0,7.0,-408.0,22.0,-941.0,-607.0
13.0,-228.0,-187.0,134.0,-4.0,-406.0,-32.0,-849.0,-595.0
2.0,-203.0,-185.0,170.0,-31.0,-403.0,-69.0,-764.0,-579.0
-11.0,-186.0,-172.0,210.0,-70.0,-393.0,-121.0,-691.0,-551.0
-17.0,-168.0,-166.0,255.0,-112.0,-376.0,-149.0,-621.0,-499.0
-24.0,-156.0,-153.0,300.0,-158.0,-349.0,-173.0,-573.0,-455.0
-26.0,-145.0,-147.0,344.0,-207.0,-313.0,-180.0,-536.0,-423.0
-26.0,-139.0,-132.0,377.0,-245.0,-268.0,-180.0,-522.0,-387.0
-23.0,-140.0,-129.0,391.0,-272.0,-218.0,-183.0,-526.0,-346.0
-24.0,-148.0,-121.0,383.0,-284.0,-164.0,-171.0,-558.0,-329.0
-15.0,-164.0,-114.0,353.0,-289.0,-110.0,-151.0,-595.0,-305.0
-9.0,-171.0,-114.0,298.0,-295.0,-56.0,-112.0,-646.0,-298.0
1.0,-187.0,-116.0,230.0,-303.0,-7.0,-70.0,-712.0,-295.0
13.0,-203.0,-116.0,154.0,-311.0,37.0,-37.0,-779.0,-303.0
25.0,-221.0,-116.0,79.0,-312.0,72.0,1.0,-837.0,-307.0
32.0,-240.0,-119.0,12.0,-303.0,97.0,39.0,-912.0,-318.0
41.0,-254.0,-123.0,-47.0,-286.0,112.0,76.0,-963.0,-322.0
53.0,-269.0,-123.0,-100.0,-259.0,116.0,115.0,-1018.0,-337.0
60.0,-277.0,-128.0,-146.0,-229.0,110.0,136.0,-1065.0,-343.0
61.0,-287.0,-126.0,-180.0,-196.0,98.0,159.0,-1098.0,-352.0
68.0,-295.0,-129.0,-205.0,-163.0,84.0,175.0,-1120.0,-369.0
66.0,-300.0,-134.0,-222.0,-127.0,67.0,173.0,-1134.0,-378.0
65.0,-296.0,-135.0,-233.0,-90.0,58.0,160.0,-1128.0,-391.0
61.0,-292.0,-140.0,-234.0,-54.0,59.0,147.0,-1115.0,-412.0
55.0,-289.0,-148.0,-227.0,-18.0,68.0,121.0,-1093.0,-419.0
46.0,-278.0,-145.0,-207.0,17.0,87.0,87.0,-1060.0,-427.0
37.0,-271.0,-141.0,-171.0,53.0,112.0,59.0,-1026.0,-422.0
26.0,-263.0,-144.0,-128.0,85.0,142.0,18.0,-990.0,-415.0
17.0,-254.0,-138.0,-84.0,115.0,172.0,-27.0,-965.0,-403.0
10.0,-252.0,-137.0,-43.0,140.0,199.0,-53.0,-940.0,-398.0
2.0,-243.0,-135.0,-12.0,162.0,223.0,-72.0,-918.0,-386.0
0.0,-240.0,-134.0,7.0,179.0,237.0,-94.0,-902.0,-384.0
-9.0,-230.0,-132.0,19.0,192.0,247.0,-111.0,-869.0,-382.0
-7.0,-227.0,-135.0,22.0,201.0,252.0,-110.0,-855.0,-382.0
-7.0,-223.0,-135.0,20.0,206.0,252.0,-112.0,-844.0,-387.0
-1.0,-224.0,-139.0,14.0,208.0,245.0,-108.0,-831.0,-389.0
-4.0,-223.0,-137.0,6.0,208.0,236.0,-101.0,-832.0,-395.0
-1.0,-221.0,-137.0,-7.0,207.0,227.0,-86.0,-831.0,-396.0
2.0,-223.0,-142.0,-21.0,205.0,218.0,-66.0,-830.0,-390.0
7.0,-218.0,-139.0,-34.0,206.0,213.0,-52.0,-832.0,-397.0
13.0,-226.0,-136.0,-43.0,209.0,213.0,-31.0,-854.0,-387.0
19.0,-231.0,-134.0,-47.0,215.0,218.0,-18.0,-863.0,-375.0
19.0,-231.0,-132.0,-48.0,219.0,223.0,-6.0,-875.0,-362.0
21.0,-238.0,-125.0,-45.0,225.0,227.0,5.0,-886.0,-343.0
23.0,-238.0,-120.0,-40.0,229.0,234.0,7.0,-902.0,-327.0
25.0,-238.0,-121.0,-35.0,231.0,240.0,7.0,-910.0,-315.0
21.0,-238.0,-118.0,-30.0,233.0,245.0,1.0,-907.0,-300.0
18.0,-237.0,-113.0,-31.0,236.0,245.0,-13.0,-905.0,-287.0
15.0,-235.0,-110.0,-29.0,238.0,245.0,-33.0,-884.0,-272.0
11.0,-231.0,-107.0,-32.0,244.0,240.0,-41.0,-879.0,-260.0
4.0,-226.0,-104.0,-33.0,251.0,235.0,-59.0,-864.0,-250.0
2.0,-226.0,-99.0,-37.0,258.0,226.0,-70.0,-850.0,-238.0
4.0,-226.0,-100.0,-45.0,269.0,216.0,-80.0,-851.0,-231.0
0.0,-226.0,-93.0,-49.0,277.0,206.0,-85.0,-849.0,-219.0
-2.0,-225.0,-91.0,-53.0,286.0,194.0,-82.0,-853.0,-212.0
0.0,-230.0,-90.0,-58.0,295.0,182.0,-84.0,-863.0,-207.0
4.0,-236.0,-92.0,-61.0,306.0,170.0,-78.0,-877.0,-203.0
14.0,-229.0,-98.0,-67.0,316.0,158.0,-62.0,-887.0,-200.0
5.0,-238.0,-90.0,-73.0,323.0,148.0,-50.0,-911.0,-200.0
8.0,-240.0,-92.0,-76.0,331.0,139.0,-47.0,-916.0,-200.0
14.0,-245.0,-86.0,-83.0,336.0,131.0,-34.0,-925.0,-206.0
15.0,-246.0,-96.0,-91.0,341.0,125.0,-28.0,-927.0,-217.0
19.0,-246.0,-93.0,-97.0,345.0,118.0,-24.0,-935.0,-215.0
15.0,-246.0,-96.0,-103.0,349.0,111.0,-12.0,-932.0,-221.0
18.0,-242.0,-96.0,-110.0,352.0,104.0,-17.0,-925.0,-221.0
16.0,-243.0,-97.0,-116.0,354.0,97.0,-16.0,-920.0,-223.0
13.0,-240.0,-97.0,-122.0,354.0,93.0,-28.0,-915.0,-228.0
12.0,-237.0,-97.0,-128.0,355.0,89.0,-38.0,-899.0,-226.0
9.0,-238.0,-96.0,-135.0,356.0,86.0,-51.0,-899.0,-221.0
2.0,-231.0,-95.0,-140.0,358.0,85.0,-67.0,-894.0,-222.0
2.0,-236.0,-95.0,-146.0,360.0,83.0,-86.0,-888.0,-219.0
-2.0,-236.0,-94.0,-150.0,365.0,83.0,-99.0,-904.0,-216.0
-9.0,-236.0,-91.0,-156.0,368.0,81.0,-111.0,-907.0,-213.0
-7.0,-246.0,-92.0,-160.0,369.0,79.0,-122.0,-920.0,-205.0
-15.0,-243.0,-92.0,-167.0,367.0,78.0,-136.0,-932.0,-200.0
-15.0,-249.0,-93.0,-173.0,361.0,72.0,-141.0,-942.0,-201.0
-17.0,-249.0,-88.0,-178.0,353.0,68.0,-142.0,-954.0,-199.0
-19.0,-251.0,-89.0,-182.0,345.0,65.0,-154.0,-966.0,-203.0
-18.0,-256.0,-88.0,-187.0,335.0,58.0,-153.0,-977.0,-204.0
-15.0,-255.0,-97.0,-189.0,326.0,51.0,-161.0,-980.0,-212.0
-17.0,-259.0,-94.0,-195.0,316.0,44.0,-156.0,-982.0,-215.0
-17.0,-257.0,-95.0,-196.0,308.0,34.0,-153.0,-985.0,-222.0
-17.0,-256.0,-97.0,-196.0,297.0,25.0,-152.0,-984.0,-226.0
-17.0,-256.0,-98.0,-199.0,287.0,14.0,-148.0,-985.0,-234.0
-13.0,-258.0,-100.0,-197.0,277.0,6.0,-151.0,-978.0,-237.0
-18.0,-257.0,-95.0,-194.0,265.0,-1.0,-140.0,-977.0,-236.0
-14.0,-257.0,-99.0,-193.0,254.0,-8.0,-140.0,-972.0,-230.0
-14.0,-259.0,-94.0,-188.0,240.0,-14.0,-138.0,-982.0,-223.0
-14.0,-256.0,-95.0,-179.0,228.0,-16.0,-136.0,-988.0,-214.0
-13.0,-258.0,-94.0,-165.0,217.0,-15.0,-136.0,-992.0,-203.0
-13.0,-260.0,-92.0,-148.0,202.0,-12.0,-141.0,-997.0,-197.0
-14.0,-263.0,-88.0,-133.0,188.0,-7.0,-140.0,-1001.0,-201.0
-16.0,-266.0,-86.0,-117.0,179.0,-1.0,-143.0,-1002.0,-196.0
-16.0,-262.0,-85.0,-104.0,170.0,4.0,-152.0,-1009.0,-189.0
-20.0,-268.0,-90.0,-91.0,162.0,11.0,-150.0,-1019.0,-192.0
-18.0,-267.0,-88.0,-81.0,156.0,14.0,-157.0,-1027.0,-182.0
-20.0,-269.0,-79.0,-67.0,154.0,13.0,-158.0,-1019.0,-184.0
-19.0,-266.0,-83.0,-47.0,149.0,13.0,-153.0,-1012.0,-180.0
-17.0,-266.0,-87.0,-28.0,142.0,9.0,-152.0,-1003.0,-171.0
-15.0,-262.0,-82.0,-14.0,134.0,4.0,-147.0,-1001.0,-166.0
-14.0,-258.0,-77.0,0.0,128.0,0.0,-135.0,-995.0,-151.0
-9.0,-263.0,-74.0,19.0,124.0,-7.0,-124.0,-995.0,-143.0
-8.0,-262.0,-74.0,38.0,122.0,-14.0,-116.0,-993.0,-137.0
-4.0,-257.0,-69.0,54.0,127.0,-21.0,-105.0,-988.0,-133.0
1.0,-258.0,-70.0,71.0,134.0,-29.0,-90.0,-983.0,-121.0
0.0,-257.0,-73.0,81.0,142.0,-36.0,-77.0,-977.0,-119.0
4.0,-255.0,-72.0,87.0,152.0,-43.0,-68.0,-964.0,-112.0
5.0,-254.0,-67.0,85.0,161.0,-47.0,-62.0,-964.0,-116.0
8.0,-252.0,-71.0,80.0,170.0,-52.0,-43.0,-957.0,-116.0
11.0,-254.0,-72.0,68.0,179.0,-55.0,-37.0,-961.0,-133.0
13.0,-252.0,-74.0,53.0,191.0,-55.0,-30.0,-968.0,-143.0
18.0,-256.0,-79.0,36.0,203.0,-48.0,-8.0,-982.0,-164.0
20.0,-262.0,-89.0,14.0,215.0,-40.0,-3.0,-1003.0,-189.0
19.0,-268.0,-93.0,-19.0,225.0,-27.0,-8.0,-1035.0,-211.0
17.0,-280.0,-99.0,-58.0,225.0,-8.0,-20.0,-1075.0,-243.0
12.0,-288.0,-105.0,-104.0,219.0,14.0,-37.0,-1103.0,-258.0
3.0,-294.0,-109.0,-145.0,206.0,41.0,-55.0,-1125.0,-284.0
0.0,-300.0,-114.0,-172.0,186.0,70.0,-86.0,-1151.0,-296.0
-11.0,-308.0,-115.0,-182.0,164.0,103.0,-125.0,-1170.0,-305.0
-17.0,-310.0,-118.0,-174.0,137.0,136.0,-161.0,-1179.0,-320.0
-29.0,-310.0,-124.0,-156.0,111.0,163.0,-183.0,-1182.0,-336.0
-31.0,-313.0,-124.0,-129.0,87.0,189.0,-197.0,-1183.0,-338.0
-29.0,-315.0,-128.0,-95.0,63.0,212.0,-191.0,-1187.0,-352.0
-28.0,-311.0,-128.0,-61.0,40.0,227.0,-187.0,-1174.0,-358.0
-19.0,-310.0,-127.0,-28.0,17.0,238.0,-158.0,-1166.0,-366.0
-14.0,-305.0,-129.0,3.0,-3.0,241.0,-120.0,-1158.0,-364.0
-1.0,-298.0,-129.0,37.0,-22.0,240.0,-95.0,-1141.0,-366.0
4.0,-295.0,-131.0,67.0,-40.0,233.0,-65.0,-1115.0,-364.0
10.0,-288.0,-128.0,96.0,-59.0,223.0,-37.0,-1094.0,-370.0
20.0,-277.0,-131.0,121.0,-75.0,211.0,-17.0,-1068.0,-369.0
27.0,-270.0,-129.0,143.0,-85.0,197.0,12.0,-1031.0,-378.0
33.0,-264.0,-131.0,161.0,-88.0,183.0,40.0,-1003.0,-379.0
39.0,-254.0,-134.0,177.0,-84.0,167.0,65.0,-963.0,-377.0
51.0,-245.0,-129.0,188.0,-70.0,151.0,84.0,-934.0,-374.0
48.0,-239.0,-133.0,195.0,-52.0,134.0,93.0,-915.0,-373.0
50.0,-232.0,-131.0,198.0,-30.0,118.0,103.0,-879.0,-377.0
49.0,-226.0,-139.0,195.0,-4.0,99.0,104.0,-849.0,-372.0
49.0,-218.0,-132.0,184.0,26.0,84.0,101.0,-831.0,-373.0
52.0,-211.0,-133.0,165.0,57.0,70.0,118.0,-815.0,-370.0
54.0,-207.0,-129.0,146.0,85.0,57.0,128.0,-803.0,-361.0
58.0,-212.0,-131.0,124.0,124.0,48.0,132.0,-784.0,-349.0
58.0,-203.0,-128.0,103.0,164.0,40.0,130.0,-772.0,-350.0
55.0,-201.0,-129.0,84.0,205.0,36.0,129.0,-760.0,-352.0
54.0,-198.0,-128.0,64.0,244.0,34.0,118.0,-745.0,-349.0
52.0,-194.0,-127.0,46.0,276.0,36.0,109.0,-735.0,-347.0
50.0,-196.0,-128.0,27.0,303.0,39.0,101.0,-725.0,-351.0
48.0,-192.0,-131.0,5.0,325.0,47.0,92.0,-721.0,-358.0
45.0,-192.0,-131.0,-23.0,343.0,53.0,88.0,-717.0,-362.0
39.0,-192.0,-132.0,-50.0,355.0,62.0,71.0,-715.0,-371.0
39.0,-190.0,-126.0,-76.0,361.0,73.0,61.0,-719.0,-367.0
36.0,-193.0,-131.0,-99.0,364.0,84.0,54.0,-727.0,-351.0
33.0,-200.0,-126.0,-121.0,361.0,93.0,42.0,-752.0,-345.0
33.0,-208.0,-128.0,-139.0,355.0,104.0,35.0,-784.0,-342.0
28.0,-218.0,-122.0,-155.0,348.0,112.0,22.0,-818.0,-334.0
24.0,-228.0,-123.0,-169.0,340.0,121.0,16.0,-858.0,-324.0
20.0,-238.0,-119.0,-180.0,330.0,125.0,9.0,-902.0,-316.0
23.0,-252.0,-116.0,-187.0,317.0,128.0,1.0,-939.0,-308.0
23.0,-259.0,-114.0,-190.0,301.0,129.0,8.0,-971.0,-304.0
27.0,-263.0,-114.0,-190.0,285.0,124.0,14.0,-998.0,-304.0
26.0,-266.0,-118.0,-191.0,271.0,117.0,21.0,-1020.0,-313.0
30.0,-271.0,-122.0,-192.0,256.0,108.0,28.0,-1032.0,-318.0
29.0,-274.0,-122.0,-192.0,246.0,97.0,34.0,-1045.0,-316.0
31.0,-278.0,-118.0,-186.0,235.0,89.0,36.0,-1054.0,-308.0
31.0,-279.0,-121.0,-168.0,223.0,77.0,36.0,-1056.0,-315.0
33.0,-275.0,-118.0,-151.0,213.0,65.0,43.0,-1052.0,-311.0
33.0,-272.0,-116.0,-131.0,203.0,53.0,41.0,-1034.0,-318.0
29.0,-271.0,-118.0,-110.0,199.0,43.0,43.0,-1031.0,-314.0
29.0,-271.0,-120.0,-97.0,195.0,31.0,32.0,-1021.0,-309.0
26.0,-271.0,-116.0,-90.0,193.0,18.0,24.0,-1025.0,-305.0
29.0,-268.0,-115.0,-89.0,192.0,3.0,15.0,-1025.0,-310.0
20.0,-267.0,-117.0,-93.0,192.0,-14.0,-3.0,-1023.0,-308.0
14.0,-268.0,-111.0,-101.0,189.0,-31.0,-14.0,-1025.0,-302.0
16.0,-271.0,-115.0,-111.0,182.0,-51.0,-28.0,-1018.0,-305.0
11.0,-268.0,-118.0,-125.0,174.0,-73.0,-32.0,-1018.0,-302.0
13.0,-268.0,-120.0,-138.0,164.0,-93.0,-36.0,-1018.0,-316.0
10.0,-263.0,-117.0,-151.0,154.0,-117.0,-39.0,-1007.0,-319.0
11.0,-265.0,-119.0,-157.0,146.0,-137.0,-40.0,-998.0,-322.0
7.0,-261.0,-120.0,-158.0,136.0,-154.0,-49.0,-991.0,-309.0
8.0,-259.0,-118.0,-150.0,130.0,-165.0,-47.0,-981.0,-305.0
7.0,-256.0,-118.0,-137.0,127.0,-174.0,-52.0,-972.0,-302.0
8.0,-258.0,-114.0,-122.0,123.0,-179.0,-49.0,-966.0,-297.0
7.0,-252.0,-113.0,-109.0,119.0,-184.0,-50.0,-958.0,-294.0
8.0,-252.0,-109.0,-98.0,115.0,-186.0,-47.0,-950.0,-278.0
12.0,-246.0,-110.0,-88.0,111.0,-186.0,-43.0,-948.0,-271.0
13.0,-248.0,-111.0,-80.0,105.0,-187.0,-29.0,-940.0,-265.0
18.0,-246.0,-104.0,-80.0,96.0,-189.0,-19.0,-939.0,-253.0
18.0,-246.0,-106.0,-79.0,88.0,-191.0,-5.0,-930.0,-247.0
22.0,-243.0,-102.0,-82.0,78.0,-192.0,12.0,-927.0,-240.0
22.0,-243.0,-99.0,-90.0,72.0,-194.0,19.0,-923.0,-231.0
29.0,-243.0,-103.0,-97.0,64.0,-197.0,32.0,-920.0,-237.0
32.0,-241.0,-97.0,-106.0,61.0,-200.0,39.0,-917.0,-223.0
35.0,-241.0,-99.0,-117.0,58.0,-202.0,55.0,-921.0,-223.0
40.0,-241.0,-97.0,-124.0,56.0,-207.0,73.0,-911.0,-226.0
40.0,-240.0,-95.0,-133.0,57.0,-210.0,80.0,-911.0,-223.0
46.0,-236.0,-95.0,-138.0,58.0,-209.0,83.0,-909.0,-222.0
46.0,-239.0,-95.0,-143.0,59.0,-207.0,90.0,-909.0,-216.0
45.0,-237.0,-94.0,-147.0,62.0,-206.0,88.0,-902.0,-213.0
47.0,-237.0,-91.0,-152.0,65.0,-201.0,87.0,-901.0,-213.0
44.0,-238.0,-96.0,-159.0,67.0,-195.0,85.0,-901.0,-210.0
44.0,-238.0,-93.0,-162.0,67.0,-188.0,84.0,-896.0,-200.0
39.0,-237.0,-84.0,-163.0,69.0,-179.0,78.0,-887.0,-198.0
40.0,-234.0,-89.0,-165.0,71.0,-169.0,64.0,-887.0,-197.0
38.0,-232.0,-87.0,-166.0,75.0,-157.0,57.0,-885.0,-196.0
35.0,-231.0,-88.0,-166.0,78.0,-143.0,55.0,-877.0,-195.0
32.0,-232.0,-87.0,-168.0,82.0,-130.0,45.0,-882.0,-190.0
32.0,-233.0,-89.0,-168.0,86.0,-118.0,43.0,-879.0,-187.0
29.0,-236.0,-88.0,-166.0,85.0,-106.0,32.0,-881.0,-182.0
27.0,-235.0,-85.0,-162.0,84.0,-94.0,28.0,-886.0,-179.0
26.0,-236.0,-85.0,-158.0,79.0,-84.0,20.0,-899.0,-178.0
32.0,-246.0,-86.0,-154.0,72.0,-73.0,14.0,-918.0,-178.0
21.0,-245.0,-83.0,-151.0,64.0,-65.0,7.0,-921.0,-173.0
22.0,-247.0,-83.0,-145.0,53.0,-58.0,1.0,-940.0,-173.0
18.0,-249.0,-82.0,-143.0,41.0,-51.0,-3.0,-946.0,-164.0
15.0,-247.0,-83.0,-139.0,28.0,-46.0,-4.0,-949.0,-171.0
19.0,-251.0,-79.0,-137.0,14.0,-46.0,-7.0,-949.0,-168.0
17.0,-252.0,-82.0,-135.0,-2.0,-45.0,-16.0,-957.0,-168.0
19.0,-254.0,-80.0,-131.0,-17.0,-44.0,-15.0,-965.0,-165.0
14.0,-255.0,-83.0,-126.0,-34.0,-43.0,-21.0,-968.0,-162.0
11.0,-254.0,-78.0,-120.0,-54.0,-41.0,-31.0,-964.0,-161.0
11.0,-255.0,-78.0,-108.0,-75.0,-40.0,-39.0,-964.0,-156.0
9.0,-256.0,-77.0,-96.0,-98.0,-37.0,-37.0,-973.0,-152.0
8.0,-256.0,-75.0,-82.0,-118.0,-32.0,-47.0,-978.0,-144.0
6.0,-257.0,-76.0,-67.0,-135.0,-26.0,-45.0,-986.0,-143.0
8.0,-258.0,-74.0,-56.0,-153.0,-23.0,-50.0,-986.0,-148.0
10.0,-261.0,-76.0,-46.0,-170.0,-20.0,-45.0,-1000.0,-147.0
6.0,-265.0,-75.0,-34.0,-189.0,-15.0,-48.0,-1003.0,-150.0
5.0,-265.0,-77.0,-20.0,-210.0,-12.0,-49.0,-1004.0,-148.0
5.0,-268.0,-78.0,-2.0,-232.0,-4.0,-48.0,-1016.0,-152.0
9.0,-268.0,-82.0,18.0,-256.0,0.0,-48.0,-1017.0,-155.0
9.0,-268.0,-81.0,38.0,-281.0,5.0,-41.0,-1024.0,-158.0
6.0,-272.0,-75.0,56.0,-305.0,8.0,-44.0,-1034.0,-161.0
13.0,-275.0,-78.0,73.0,-329.0,13.0,-40.0,-1040.0,-148.0
11.0,-281.0,-70.0,89.0,-350.0,18.0,-35.0,-1065.0,-135.0
12.0,-282.0,-68.0,112.0,-373.0,23.0,-32.0,-1075.0,-126.0
10.0,-285.0,-73.0,139.0,-393.0,25.0,-31.0,-1076.0,-134.0
11.0,-285.0,-74.0,168.0,-408.0,24.0,-35.0,-1082.0,-137.0
13.0,-289.0,-72.0,192.0,-420.0,19.0,-33.0,-1087.0,-134.0
13.0,-286.0,-75.0,209.0,-429.0,10.0,-33.0,-1079.0,-131.0
14.0,-285.0,-72.0,219.0,-438.0,-1.0,-26.0,-1090.0,-135.0
16.0,-284.0,-70.0,223.0,-446.0,-15.0,-19.0,-1089.0,-134.0
18.0,-284.0,-71.0,226.0,-457.0,-33.0,-11.0,-1083.0,-135.0
21.0,-283.0,-73.0,226.0,-472.0,-51.0,3.0,-1071.0,-129.0
23.0,-275.0,-67.0,222.0,-491.0,-70.0,5.0,-1049.0,-120.0
19.0,-268.0,-69.0,220.0,-514.0,-86.0,3.0,-1030.0,-111.0
22.0,-272.0,-63.0,222.0,-537.0,-99.0,-3.0,-1024.0,-88.0
21.0,-269.0,-58.0,229.0,-562.0,-111.0,-11.0,-1020.0,-66.0
13.0,-268.0,-52.0,242.0,-583.0,-118.0,-17.0,-1026.0,-47.0
14.0,-271.0,-44.0,252.0,-603.0,-124.0,-28.0,-1028.0,-12.0
8.0,-269.0,-36.0,266.0,-623.0,-126.0,-42.0,-1036.0,16.0
5.0,-271.0,-32.0,278.0,-643.0,-128.0,-55.0,-1043.0,35.0
2.0,-273.0,-27.0,286.0,-665.0,-130.0,-64.0,-1050.0,46.0
0.0,-271.0,-27.0,283.0,-690.0,-131.0,-91.0,-1044.0,52.0
-2.0,-271.0,-28.0,272.0,-716.0,-132.0,-94.0,-1045.0,47.0
0.0,-267.0,-33.0,253.0,-740.0,-135.0,-86.0,-1041.0,33.0
9.0,-270.0,-42.0,226.0,-755.0,-141.0,-60.0,-1036.0,-1.0
17.0,-271.0,-51.0,190.0,-763.0,-149.0,-29.0,-1041.0,-38.0
22.0,-273.0,-64.0,145.0,-767.0,-160.0,-1.0,-1065.0,-94.0
23.0,-280.0,-82.0,89.0,-778.0,-176.0,16.0,-1088.0,-151.0
28.0,-287.0,-97.0,20.0,-798.0,-197.0,30.0,-1114.0,-225.0
30.0,-299.0,-109.0,-62.0,-825.0,-223.0,37.0,-1149.0,-277.0
39.0,-312.0,-118.0,-142.0,-839.0,-248.0,53.0,-1183.0,-304.0
47.0,-324.0,-119.0,-198.0,-825.0,-270.0,85.0,-1221.0,-311.0
57.0,-331.0,-117.0,-210.0,-781.0,-293.0,118.0,-1260.0,-319.0
67.0,-338.0,-125.0,-190.0,-714.0,-314.0,152.0,-1286.0,-328.0
77.0,-340.0,-132.0,-150.0,-634.0,-331.0,204.0,-1290.0,-358.0
89.0,-340.0,-134.0,-104.0,-552.0,-348.0,243.0,-1291.0,-381.0
103.0,-335.0,-140.0,-58.0,-474.0,-362.0,294.0,-1277.0,-416.0
110.0,-333.0,-147.0,-12.0,-388.0,-374.0,339.0,-1267.0,-425.0
96.0,-328.0,-156.0,23.0,-318.0,-376.0,288.0,-1243.0,-461.0
91.0,-320.0,-165.0,49.0,-281.0,-375.0,260.0,-1214.0,-504.0
73.0,-314.0,-172.0,58.0,-251.0,-378.0,205.0,-1189.0,-543.0
62.0,-308.0,-177.0,49.0,-230.0,-378.0,150.0,-1160.0,-560.0
49.0,-296.0,-182.0,38.0,-218.0,-381.0,93.0,-1119.0,-570.0
38.0,-288.0,-180.0,20.0,-218.0,-383.0,60.0,-1093.0,-586.0
29.0,-277.0,-191.0,0.0,-224.0,-391.0,9.0,-1048.0,-587.0
15.0,-263.0,-183.0,-21.0,-238.0,-401.0,-28.0,-995.0,-578.0
2.0,-250.0,-177.0,-30.0,-262.0,-409.0,-79.0,-934.0,-557.0
-11.0,-228.0,-172.0,-23.0,-293.0,-416.0,-126.0,-856.0,-540.0
-21.0,-216.0,-163.0,-1.0,-332.0,-414.0,-168.0,-789.0,-496.0
-31.0,-195.0,-157.0,34.0,-371.0,-405.0,-206.0,-717.0,-475.0
-37.0,-178.0,-148.0,80.0,-411.0,-382.0,-228.0,-647.0,-444.0
-41.0,-164.0,-144.0,130.0,-446.0,-350.0,-234.0,-602.0,-424.0
-40.0,-151.0,-139.0,173.0,-477.0,-311.0,-231.0,-560.0,-407.0
-36.0,-144.0,-139.0,197.0,-506.0,-270.0,-215.0,-533.0,-390.0
-34.0,-142.0,-136.0,198.0,-530.0,-229.0,-194.0,-520.0,-371.0
-16.0,-139.0,-127.0,180.0,-548.0,-188.0,-158.0,-520.0,-347.0
-3.0,-145.0,-124.0,151.0,-558.0,-147.0,-112.0,-538.0,-333.0
9.0,-152.0,-121.0,107.0,-565.0,-111.0,-60.0,-575.0,-328.0
24.0,-167.0,-125.0,54.0,-573.0,-81.0,-9.0,-618.0,-322.0
36.0,-179.0,-122.0,-2.0,-576.0,-59.0,52.0,-671.0,-321.0
52.0,-194.0,-125.0,-58.0,-572.0,-42.0,99.0,-740.0,-321.0
66.0,-216.0,-123.0,-109.0,-560.0,-32.0,161.0,-801.0,-329.0
75.0,-233.0,-120.0,-157.0,-536.0,-28.0,209.0,-867.0,-319.0
87.0,-249.0,-119.0,-196.0,-495.0,-24.0,239.0,-931.0,-317.0
91.0,-261.0,-118.0,-225.0,-442.0,-23.0,270.0,-990.0,-317.0
93.0,-274.0,-117.0,-244.0,-379.0,-24.0,282.0,-1037.0,-311.0
98.0,-285.0,-120.0,-253.0,-308.0,-21.0,285.0,-1080.0,-313.0
97.0,-298.0,-123.0,-251.0,-236.0,-11.0,283.0,-1119.0,-316.0
93.0,-298.0,-121.0,-244.0,-163.0,5.0,273.0,-1136.0,-321.0
84.0,-304.0,-122.0,-223.0,-95.0,29.0,253.0,-1142.0,-326.0
77.0,-304.0,-119.0,-200.0,-29.0,60.0,215.0,-1150.0,-329.0
69.0,-301.0,-121.0,-170.0,32.0,97.0,192.0,-1139.0,-332.0
63.0,-294.0,-125.0,-135.0,91.0,139.0,156.0,-1121.0,-335.0
51.0,-287.0,-124.0,-101.0,147.0,180.0,122.0,-1094.0,-334.0
43.0,-277.0,-124.0,-70.0,199.0,222.0,93.0,-1069.0,-326.0
40.0,-272.0,-121.0,-44.0,246.0,263.0,63.0,-1026.0,-321.0
31.0,-263.0,-117.0,-24.0,285.0,297.0,42.0,-990.0,-307.0
25.0,-256.0,-121.0,-8.0,316.0,327.0,11.0,-968.0,-313.0
23.0,-249.0,-120.0,4.0,344.0,349.0,-2.0,-942.0,-314.0
20.0,-239.0,-116.0,9.0,370.0,362.0,-15.0,-918.0,-319.0
18.0,-238.0,-122.0,9.0,395.0,370.0,-14.0,-904.0,-319.0
17.0,-233.0,-125.0,4.0,414.0,374.0,-24.0,-881.0,-323.0
17.0,-233.0,-125.0,-5.0,432.0,375.0,-23.0,-878.0,-333.0
16.0,-232.0,-125.0,-10.0,448.0,372.0,-23.0,-869.0,-338.0
17.0,-231.0,-128.0,-16.0,463.0,368.0,-24.0,-868.0,-339.0
19.0,-229.0,-126.0,-22.0,478.0,363.0,-19.0,-878.0,-350.0
16.0,-236.0,-124.0,-27.0,493.0,358.0,-20.0,-881.0,-339.0
17.0,-237.0,-125.0,-33.0,505.0,357.0,-24.0,-894.0,-333.0
14.0,-240.0,-123.0,-39.0,517.0,356.0,-27.0,-909.0,-325.0
13.0,-248.0,-118.0,-48.0,526.0,356.0,-33.0,-919.0,-308.0
12.0,-244.0,-116.0,-54.0,532.0,357.0,-33.0,-936.0,-298.0
10.0,-248.0,-110.0,-60.0,539.0,359.0,-46.0,-941.0,-272.0
7.0,-250.0,-102.0,-66.0,543.0,360.0,-49.0,-948.0,-258.0
2.0,-250.0,-99.0,-71.0,544.0,361.0,-61.0,-951.0,-246.0
2.0,-249.0,-94.0,-74.0,544.0,358.0,-65.0,-948.0,-226.0
2.0,-249.0,-90.0,-76.0,541.0,356.0,-73.0,-942.0,-214.0
0.0,-246.0,-90.0,-73.0,539.0,355.0,-86.0,-941.0,-198.0
0.0,-245.0,-85.0,-70.0,534.0,351.0,-89.0,-925.0,-183.0
-1.0,-238.0,-86.0,-66.0,528.0,347.0,-94.0,-916.0,-175.0
-3.0,-235.0,-80.0,-61.0,521.0,341.0,-95.0,-910.0,-168.0
-2.0,-234.0,-80.0,-59.0,515.0,335.0,-90.0,-886.0,-152.0
-2.0,-229.0,-75.0,-58.0,508.0,327.0,-96.0,-872.0,-146.0
0.0,-226.0,-76.0,-62.0,502.0,319.0,-93.0,-864.0,-140.0
0.0,-227.0,-70.0,-68.0,499.0,307.0,-88.0,-860.0,-126.0
1.0,-226.0,-70.0,-72.0,495.0,296.0,-87.0,-852.0,-131.0
1.0,-223.0,-68.0,-80.0,489.0,283.0,-64.0,-852.0,-127.0
4.0,-228.0,-73.0,-93.0,485.0,267.0,-57.0,-863.0,-121.0
8.0,-226.0,-69.0,-104.0,480.0,252.0,-50.0,-868.0,-123.0
13.0,-229.0,-72.0,-115.0,477.0,239.0,-39.0,-874.0,-133.0
14.0,-232.0,-76.0,-124.0,476.0,228.0,-26.0,-881.0,-137.0
16.0,-235.0,-75.0,-135.0,475.0,218.0,-20.0,-885.0,-134.0
19.0,-239.0,-77.0,-145.0,473.0,209.0,-12.0,-892.0,-140.0
20.0,-236.0,-77.0,-155.0,472.0,204.0,-8.0,-904.0,-140.0
18.0,-237.0,-74.0,-160.0,473.0,201.0,-7.0,-909.0,-147.0
18.0,-237.0,-76.0,-163.0,473.0,201.0,0.0,-919.0,-149.0
18.0,-242.0,-82.0,-167.0,477.0,200.0,-4.0,-921.0,-147.0
19.0,-244.0,-77.0,-166.0,483.0,202.0,-6.0,-928.0,-149.0
20.0,-245.0,-75.0,-165.0,490.0,203.0,-12.0,-932.0,-152.0
22.0,-247.0,-77.0,-160.0,495.0,204.0,-8.0,-942.0,-150.0
18.0,-249.0,-77.0,-151.0,500.0,202.0,-8.0,-945.0,-143.0
20.0,-253.0,-72.0,-141.0,504.0,199.0,-15.0,-952.0,-148.0
18.0,-256.0,-72.0,-124.0,505.0,195.0,-20.0,-968.0,-143.0
17.0,-257.0,-78.0,-106.0,503.0,190.0,-19.0,-977.0,-137.0
17.0,-261.0,-77.0,-87.0,502.0,187.0,-21.0,-991.0,-140.0
17.0,-265.0,-74.0,-69.0,501.0,183.0,-15.0,-1003.0,-132.0
15.0,-266.0,-69.0,-51.0,499.0,180.0,-18.0,-1022.0,-131.0
13.0,-270.0,-71.0,-32.0,495.0,176.0,-28.0,-1029.0,-128.0
16.0,-274.0,-71.0,-16.0,490.0,174.0,-29.0,-1052.0,-126.0
10.0,-275.0,-73.0,-1.0,484.0,170.0,-34.0,-1055.0,-131.0
9.0,-277.0,-73.0,13.0,476.0,169.0,-35.0,-1062.0,-131.0
8.0,-279.0,-75.0,28.0,471.0,169.0,-43.0,-1069.0,-134.0
4.0,-278.0,-79.0,42.0,465.0,171.0,-51.0,-1070.0,-141.0
5.0,-281.0,-73.0,55.0,462.0,171.0,-62.0,-1072.0,-140.0
3.0,-281.0,-74.0,66.0,457.0,174.0,-76.0,-1075.0,-142.0
-2.0,-281.0,-79.0,75.0,452.0,176.0,-84.0,-1080.0,-131.0
-3.0,-286.0,-68.0,88.0,444.0,180.0,-99.0,-1085.0,-127.0
-5.0,-290.0,-70.0,106.0,435.0,187.0,-102.0,-1091.0,-123.0
-8.0,-283.0,-70.0,132.0,425.0,196.0,-106.0,-1083.0,-130.0
-11.0,-283.0,-73.0,156.0,417.0,208.0,-112.0,-1095.0,-135.0
-3.0,-285.0,-75.0,178.0,413.0,220.0,-108.0,-1083.0,-146.0
-3.0,-283.0,-77.0,195.0,411.0,231.0,-105.0,-1079.0,-149.0
6.0,-272.0,-84.0,203.0,415.0,238.0,-93.0,-1067.0,-148.0
0.0,-269.0,-74.0,209.0,423.0,240.0,-89.0,-1050.0,-140.0
0.0,-265.0,-70.0,210.0,432.0,242.0,-78.0,-1026.0,-125.0
2.0,-264.0,-68.0,208.0,438.0,241.0,-71.0,-1010.0,-100.0
7.0,-260.0,-59.0,196.0,445.0,239.0,-60.0,-997.0,-70.0
11.0,-257.0,-52.0,186.0,451.0,236.0,-44.0,-985.0,-46.0
14.0,-256.0,-43.0,171.0,459.0,231.0,-30.0,-981.0,-17.0
17.0,-253.0,-43.0,151.0,470.0,225.0,-3.0,-967.0,3.0
28.0,-251.0,-35.0,130.0,483.0,213.0,16.0,-965.0,23.0
35.0,-252.0,-34.0,109.0,502.0,200.0,50.0,-957.0,30.0
44.0,-251.0,-30.0,86.0,521.0,188.0,85.0,-953.0,37.0
47.0,-252.0,-31.0,64.0,545.0,176.0,101.0,-965.0,31.0
53.0,-255.0,-46.0,40.0,567.0,167.0,117.0,-983.0,1.0
59.0,-261.0,-54.0,8.0,594.0,159.0,137.0,-1002.0,-46.0
55.0,-271.0,-67.0,-33.0,631.0,159.0,128.0,-1052.0,-100.0
61.0,-281.0,-89.0,-89.0,664.0,158.0,153.0,-1084.0,-170.0
58.0,-296.0,-95.0,-160.0,698.0,159.0,132.0,-1127.0,-221.0
47.0,-310.0,-101.0,-239.0,721.0,172.0,94.0,-1179.0,-269.0
43.0,-328.0,-109.0,-309.0,736.0,197.0,70.0,-1241.0,-277.0
27.0,-335.0,-110.0,-352.0,752.0,224.0,16.0,-1289.0,-282.0
10.0,-346.0,-112.0,-358.0,763.0,264.0,-30.0,-1332.0,-294.0
10.0,-348.0,-120.0,-334.0,760.0,306.0,-44.0,-1340.0,-310.0
5.0,-352.0,-117.0,-303.0,765.0,349.0,-71.0,-1334.0,-311.0
-18.0,-346.0,-120.0,-270.0,766.0,384.0,-121.0,-1323.0,-323.0
-12.0,-340.0,-131.0,-220.0,739.0,400.0,-133.0,-1299.0,-390.0
-13.0,-331.0,-144.0,-160.0,714.0,400.0,-131.0,-1281.0,-424.0
-9.0,-326.0,-156.0,-127.0,706.0,403.0,-116.0,-1254.0,-460.0
-3.0,-319.0,-161.0,-118.0,696.0,401.0,-104.0,-1217.0,-490.0
0.0,-309.0,-170.0,-119.0,679.0,395.0,-86.0,-1181.0,-516.0
5.0,-296.0,-171.0,-130.0,667.0,391.0,-65.0,-1140.0,-531.0
11.0,-284.0,-175.0,-144.0,663.0,385.0,-41.0,-1092.0,-547.0
18.0,-267.0,-177.0,-156.0,671.0,380.0,-18.0,-1023.0,-552.0
24.0,-250.0,-178.0,-166.0,690.0,372.0,4.0,-953.0,-564.0
35.0,-230.0,-181.0,-161.0,721.0,358.0,40.0,-872.0,-569.0
45.0,-208.0,-173.0,-148.0,761.0,335.0,72.0,-793.0,-561.0
49.0,-191.0,-178.0,-123.0,804.0,307.0,100.0,-715.0,-552.0
58.0,-175.0,-171.0,-88.0,849.0,275.0,132.0,-652.0,-522.0
68.0,-165.0,-165.0,-52.0,892.0,241.0,153.0,-601.0,-503.0
65.0,-155.0,-159.0,-16.0,939.0,204.0,163.0,-572.0,-475.0
65.0,-153.0,-158.0,15.0,981.0,167.0,170.0,-552.0,-461.0
62.0,-153.0,-152.0,35.0,1022.0,135.0,160.0,-570.0,-452.0
62.0,-156.0,-148.0,35.0,1055.0,102.0,149.0,-581.0,-435.0
56.0,-165.0,-144.0,17.0,1074.0,80.0,133.0,-617.0,-419.0
49.0,-175.0,-139.0,-12.0,1081.0,61.0,104.0,-654.0,-396.0
37.0,-188.0,-134.0,-46.0,1074.0,52.0,56.0,-706.0,-376.0
22.0,-199.0,-126.0,-85.0,1049.0,52.0,6.0,-758.0,-364.0
8.0,-208.0,-126.0,-129.0,1015.0,57.0,-42.0,-802.0,-343.0
0.0,-224.0,-126.0,-172.0,969.0,65.0,-80.0,-848.0,-338.0
-11.0,-232.0,-122.0,-209.0,923.0,78.0,-124.0,-890.0,-326.0
-18.0,-246.0,-122.0,-239.0,875.0,89.0,-154.0,-936.0,-330.0
-29.0,-255.0,-121.0,-264.0,825.0,99.0,-185.0,-965.0,-319.0
-33.0,-262.0,-121.0,-282.0,773.0,105.0,-209.0,-995.0,-313.0
-41.0,-265.0,-116.0,-291.0,721.0,106.0,-225.0,-1015.0,-309.0
-41.0,-271.0,-117.0,-297.0,669.0,103.0,-231.0,-1025.0,-307.0
-46.0,-268.0,-116.0,-298.0,622.0,98.0,-236.0,-1037.0,-305.0
-42.0,-272.0,-120.0,-294.0,581.0,84.0,-230.0,-1030.0,-313.0
-33.0,-271.0,-123.0,-296.0,546.0,61.0,-207.0,-1027.0,-322.0
-22.0,-268.0,-125.0,-298.0,519.0,30.0,-161.0,-1020.0,-332.0
-9.0,-264.0,-120.0,-299.0,497.0,-6.0,-115.0,-1010.0,-330.0
1.0,-267.0,-120.0,-294.0,480.0,-46.0,-70.0,-999.0,-329.0
14.0,-265.0,-121.0,-279.0,464.0,-86.0,-32.0,-996.0,-325.0
25.0,-259.0,-118.0,-254.0,453.0,-123.0,14.0,-988.0,-320.0
35.0,-258.0,-122.0,-224.0,445.0,-156.0,57.0,-974.0,-322.0
44.0,-253.0,-116.0,-194.0,437.0,-183.0,87.0,-951.0,-321.0
49.0,-247.0,-120.0,-169.0,433.0,-205.0,102.0,-937.0,-326.0
57.0,-244.0,-124.0,-145.0,437.0,-220.0,117.0,-917.0,-325.0
53.0,-239.0,-120.0,-123.0,445.0,-228.0,125.0,-906.0,-332.0
51.0,-231.0,-125.0,-109.0,459.0,-231.0,116.0,-885.0,-336.0
51.0,-233.0,-126.0,-98.0,475.0,-228.0,105.0,-871.0,-333.0
43.0,-230.0,-121.0,-94.0,493.0,-221.0,89.0,-864.0,-334.0
41.0,-224.0,-122.0,-93.0,509.0,-209.0,74.0,-862.0,-337.0
34.0,-227.0,-122.0,-94.0,523.0,-198.0,60.0,-851.0,-333.0
31.0,-225.0,-121.0,-97.0,534.0,-189.0,45.0,-849.0,-334.0
28.0,-225.0,-125.0,-101.0,539.0,-177.0,26.0,-850.0,-326.0
24.0,-229.0,-118.0,-102.0,542.0,-169.0,10.0,-845.0,-325.0
20.0,-226.0,-120.0,-103.0,540.0,-164.0,-3.0,-861.0,-309.0
16.0,-227.0,-117.0,-102.0,532.0,-164.0,-11.0,-852.0,-304.0
16.0,-226.0,-113.0,-104.0,520.0,-167.0,-14.0,-863.0,-296.0
19.0,-229.0,-113.0,-104.0,506.0,-172.0,-7.0,-859.0,-284.0
19.0,-224.0,-111.0,-102.0,490.0,-177.0,-4.0,-863.0,-267.0
20.0,-227.0,-101.0,-97.0,475.0,-185.0,-3.0,-862.0,-261.0
25.0,-232.0,-102.0,-89.0,461.0,-190.0,5.0,-869.0,-253.0
23.0,-229.0,-102.0,-83.0,448.0,-194.0,18.0,-865.0,-235.0
29.0,-229.0,-100.0,-78.0,437.0,-199.0,32.0,-870.0,-227.0
33.0,-228.0,-95.0,-75.0,426.0,-201.0,45.0,-869.0,-218.0
32.0,-226.0,-93.0,-73.0,416.0,-202.0,51.0,-868.0,-212.0
36.0,-231.0,-90.0,-73.0,406.0,-201.0,65.0,-873.0,-203.0
39.0,-231.0,-88.0,-73.0,395.0,-197.0,67.0,-870.0,-194.0
38.0,-231.0,-87.0,-74.0,386.0,-192.0,68.0,-879.0,-187.0
41.0,-236.0,-84.0,-80.0,377.0,-184.0,74.0,-886.0,-186.0
36.0,-236.0,-86.0,-84.0,368.0,-172.0,61.0,-897.0,-175.0
36.0,-241.0,-78.0,-85.0,355.0,-162.0,52.0,-913.0,-166.0
29.0,-242.0,-81.0,-84.0,339.0,-149.0,46.0,-914.0,-162.0
27.0,-240.0,-77.0,-80.0,324.0,-137.0,36.0,-927.0,-154.0
30.0,-244.0,-76.0,-75.0,309.0,-124.0,19.0,-929.0,-150.0
21.0,-248.0,-80.0,-65.0,299.0,-114.0,9.0,-935.0,-149.0
22.0,-248.0,-78.0,-54.0,289.0,-103.0,-1.0,-941.0,-159.0
18.0,-249.0,-81.0,-44.0,280.0,-94.0,-5.0,-940.0,-154.0
18.0,-247.0,-77.0,-33.0,268.0,-88.0,-5.0,-939.0,-149.0
17.0,-248.0,-77.0,-22.0,255.0,-83.0,-10.0,-936.0,-152.0
20.0,-243.0,-81.0,-8.0,236.0,-79.0,-3.0,-932.0,-153.0
19.0,-243.0,-78.0,7.0,216.0,-76.0,1.0,-923.0,-153.0
22.0,-240.0,-79.0,21.0,194.0,-69.0,8.0,-909.0,-153.0
21.0,-238.0,-79.0,35.0,169.0,-61.0,-4.0,-909.0,-154.0
21.0,-239.0,-79.0,49.0,142.0,-52.0,-2.0,-896.0,-154.0
20.0,-236.0,-79.0,61.0,114.0,-41.0,-6.0,-892.0,-153.0
17.0,-242.0,-76.0,72.0,87.0,-30.0,-7.0,-896.0,-148.0
17.0,-237.0,-76.0,85.0,61.0,-17.0,-16.0,-908.0,-143.0
13.0,-243.0,-75.0,98.0,36.0,-5.0,-25.0,-915.0,-133.0
13.0,-247.0,-69.0,113.0,7.0,9.0,-31.0,-935.0,-123.0
11.0,-253.0,-66.0,129.0,-25.0,23.0,-30.0,-957.0,-115.0
14.0,-260.0,-68.0,148.0,-60.0,35.0,-28.0,-987.0,-98.0
15.0,-266.0,-66.0,168.0,-94.0,44.0,-22.0,-1025.0,-87.0
18.0,-276.0,-62.0,190.0,-121.0,52.0,-8.0,-1062.0,-84.0
21.0,-283.0,-63.0,209.0,-138.0,56.0,7.0,-1085.0,-88.0
27.0,-286.0,-63.0,223.0,-146.0,55.0,18.0,-1096.0,-96.0
32.0,-287.0,-67.0,227.0,-143.0,50.0,37.0,-1104.0,-109.0
37.0,-291.0,-74.0,221.0,-132.0,44.0,54.0,-1101.0,-127.0
43.0,-289.0,-72.0,213.0,-117.0,36.0,80.0,-1094.0,-137.0
51.0,-290.0,-77.0,199.0,-103.0,26.0,106.0,-1101.0,-150.0
57.0,-286.0,-76.0,183.0,-90.0,15.0,127.0,-1101.0,-153.0
60.0,-290.0,-77.0,171.0,-80.0,4.0,140.0,-1105.0,-142.0
64.0,-291.0,-72.0,162.0,-69.0,-9.0,168.0,-1113.0,-133.0
68.0,-292.0,-66.0,156.0,-54.0,-23.0,180.0,-1124.0,-109.0
69.0,-298.0,-61.0,153.0,-42.0,-40.0,196.0,-1123.0,-77.0
71.0,-299.0,-50.0,151.0,-26.0,-60.0,200.0,-1136.0,-47.0
72.0,-300.0,-47.0,148.0,-12.0,-82.0,193.0,-1135.0,-25.0
66.0,-299.0,-45.0,150.0,-2.0,-100.0,181.0,-1140.0,-9.0
62.0,-295.0,-36.0,154.0,3.0,-113.0,158.0,-1130.0,18.0
50.0,-294.0,-29.0,156.0,6.0,-124.0,119.0,-1128.0,44.0
42.0,-297.0,-19.0,162.0,3.0,-130.0,83.0,-1126.0,67.0
29.0,-291.0,-16.0,171.0,-1.0,-131.0,36.0,-1120.0,97.0
17.0,-286.0,-8.0,176.0,-5.0,-128.0,-7.0,-1114.0,115.0
11.0,-291.0,-11.0,177.0,-13.0,-127.0,-36.0,-1111.0,111.0
8.0,-291.0,-18.0,166.0,-16.0,-122.0,-45.0,-1105.0,78.0
14.0,-286.0,-35.0,136.0,-18.0,-124.0,-43.0,-1109.0,28.0
14.0,-288.0,-53.0,80.0,-28.0,-134.0,-23.0,-1118.0,-29.0
20.0,-300.0,-69.0,2.0,-56.0,-149.0,0.0,-1150.0,-127.0
20.0,-311.0,-104.0,-103.0,-100.0,-173.0,5.0,-1198.0,-240.0
20.0,-331.0,-128.0,-234.0,-152.0,-198.0,6.0,-1279.0,-342.0
22.0,-348.0,-137.0,-364.0,-202.0,-218.0,10.0,-1349.0,-409.0
28.0,-374.0,-146.0,-458.0,-234.0,-233.0,18.0,-1408.0,-442.0
34.0,-382.0,-157.0,-489.0,-240.0,-246.0,48.0,-1456.0,-473.0
53.0,-391.0,-166.0,-463.0,-222.0,-267.0,97.0,-1473.0,-502.0
69.0,-386.0,-172.0,-398.0,-176.0,-301.0,169.0,-1463.0,-531.0
80.0,-381.0,-183.0,-319.0,-111.0,-345.0,232.0,-1441.0,-577.0
90.0,-370.0,-191.0,-250.0,-41.0,-390.0,261.0,-1396.0,-620.0
87.0,-355.0,-198.0,-195.0,16.0,-427.0,255.0,-1337.0,-658.0
78.0,-336.0,-209.0,-146.0,47.0,-447.0,206.0,-1258.0,-692.0
61.0,-304.0,-214.0,-109.0,66.0,-443.0,139.0,-1167.0,-713.0
43.0,-282.0,-220.0,-89.0,81.0,-426.0,83.0,-1083.0,-714.0
37.0,-273.0,-209.0,-71.0,90.0,-397.0,53.0,-991.0,-717.0
19.0,-240.0,-213.0,-51.0,103.0,-374.0,6.0,-902.0,-707.0
11.0,-215.0,-206.0,-34.0,105.0,-354.0,-36.0,-823.0,-687.0
1.0,-197.0,-200.0,-15.0,94.0,-343.0,-80.0,-749.0,-657.0
-14.0,-185.0,-195.0,6.0,64.0,-337.0,-121.0,-683.0,-633.0
-25.0,-169.0,-187.0,35.0,14.0,-336.0,-163.0,-624.0,-592.0
-30.0,-158.0,-174.0,73.0,-47.0,-335.0,-187.0,-583.0,-555.0
-30.0,-155.0,-161.0,126.0,-116.0,-333.0,-188.0,-549.0,-513.0
-35.0,-145.0,-155.0,183.0,-182.0,-328.0,-200.0,-533.0,-473.0
-35.0,-144.0,-150.0,237.0,-242.0,-318.0,-211.0,-529.0,-446.0
-37.0,-151.0,-145.0,273.0,-299.0,-299.0,-212.0,-549.0,-418.0
-31.0,-157.0,-135.0,288.0,-347.0,-274.0,-202.0,-584.0,-390.0
-28.0,-166.0,-130.0,278.0,-382.0,-247.0,-185.0,-629.0,-366.0
-17.0,-183.0,-123.0,246.0,-403.0,-222.0,-165.0,-672.0,-334.0
-8.0,-195.0,-118.0,205.0,-413.0,-184.0,-136.0,-730.0,-310.0
1.0,-208.0,-113.0,164.0,-411.0,-139.0,-92.0,-788.0,-298.0
11.0,-221.0,-111.0,119.0,-399.0,-92.0,-51.0,-829.0,-287.0
24.0,-232.0,-111.0,78.0,-382.0,-46.0,-10.0,-867.0,-294.0
33.0,-236.0,-118.0,34.0,-366.0,-5.0,34.0,-910.0,-300.0
47.0,-246.0,-116.0,-12.0,-350.0,31.0,84.0,-942.0,-304.0
61.0,-257.0,-126.0,-55.0,-337.0,62.0,135.0,-970.0,-323.0
71.0,-263.0,-127.0,-96.0,-325.0,83.0,181.0,-992.0,-336.0
78.0,-268.0,-125.0,-137.0,-314.0,100.0,209.0,-1010.0,-343.0
84.0,-269.0,-128.0,-170.0,-296.0,112.0,234.0,-1022.0,-364.0
87.0,-269.0,-129.0,-196.0,-270.0,122.0,250.0,-1023.0,-370.0
87.0,-265.0,-134.0,-209.0,-238.0,131.0,251.0,-1015.0,-366.0
83.0,-263.0,-130.0,-208.0,-198.0,142.0,240.0,-1004.0,-376.0
79.0,-261.0,-128.0,-194.0,-149.0,155.0,222.0,-990.0,-370.0
75.0,-261.0,-127.0,-168.0,-98.0,173.0,192.0,-960.0,-356.0
61.0,-252.0,-123.0,-135.0,-48.0,191.0,154.0,-951.0,-347.0
53.0,-245.0,-120.0,-95.0,-1.0,211.0,113.0,-937.0,-331.0
44.0,-244.0,-117.0,-60.0,39.0,228.0,76.0,-923.0,-320.0
36.0,-237.0,-119.0,-31.0,73.0,242.0,47.0,-903.0,-311.0
24.0,-234.0,-115.0,-8.0,102.0,252.0,9.0,-875.0,-302.0
20.0,-231.0,-110.0,14.0,123.0,258.0,-16.0,-870.0,-298.0
12.0,-225.0,-116.0,29.0,138.0,262.0,-36.0,-858.0,-288.0
9.0,-224.0,-112.0,41.0,149.0,262.0,-54.0,-845.0,-292.0
1.0,-222.0,-113.0,51.0,158.0,261.0,-64.0,-848.0,-290.0
4.0,-226.0,-117.0,61.0,163.0,263.0,-78.0,-845.0,-290.0
0.0,-222.0,-112.0,63.0,168.0,264.0,-77.0,-844.0,-288.0
1.0,-226.0,-111.0,59.0,171.0,266.0,-77.0,-852.0,-291.0
2.0,-223.0,-115.0,54.0,175.0,269.0,-75.0,-851.0,-292.0
2.0,-225.0,-112.0,47.0,178.0,275.0,-63.0,-855.0,-293.0
7.0,-227.0,-114.0,37.0,180.0,281.0,-50.0,-857.0,-296.0
12.0,-229.0,-112.0,31.0,183.0,290.0,-34.0,-862.0,-294.0
13.0,-229.0,-115.0,23.0,183.0,297.0,-26.0,-867.0,-296.0
17.0,-231.0,-110.0,13.0,182.0,305.0,-17.0,-873.0,-287.0
15.0,-228.0,-110.0,3.0,179.0,311.0,-15.0,-879.0,-281.0
17.0,-234.0,-108.0,-4.0,173.0,316.0,-12.0,-885.0,-266.0
14.0,-233.0,-103.0,-9.0,170.0,319.0,-26.0,-893.0,-255.0
9.0,-237.0,-102.0,-12.0,168.0,319.0,-36.0,-905.0,-241.0
11.0,-238.0,-95.0,-14.0,170.0,316.0,-47.0,-906.0,-219.0
6.0,-235.0,-92.0,-14.0,174.0,310.0,-58.0,-903.0,-208.0
6.0,-234.0,-88.0,-16.0,182.0,300.0,-60.0,-887.0,-201.0
1.0,-233.0,-86.0,-18.0,192.0,290.0,-74.0,-881.0,-191.0
1.0,-233.0,-86.0,-19.0,202.0,275.0,-75.0,-876.0,-185.0
0.0,-224.0,-81.0,-22.0,209.0,260.0,-82.0,-870.0,-176.0
2.0,-229.0,-80.0,-23.0,218.0,246.0,-81.0,-866.0,-165.0
4.0,-230.0,-79.0,-19.0,225.0,233.0,-69.0,-866.0,-155.0
3.0,-229.0,-76.0,-15.0,229.0,223.0,-60.0,-870.0,-150.0
8.0,-231.0,-76.0,-11.0,237.0,214.0,-44.0,-878.0,-145.0
13.0,-233.0,-74.0,-8.0,242.0,206.0,-36.0,-877.0,-132.0
16.0,-234.0,-72.0,-8.0,249.0,201.0,-27.0,-883.0,-129.0
20.0,-235.0,-75.0,-7.0,260.0,197.0,-7.0,-901.0,-132.0
19.0,-235.0,-75.0,-9.0,271.0,193.0,1.0,-907.0,-125.0
24.0,-238.0,-71.0,-9.0,283.0,192.0,15.0,-912.0,-135.0
22.0,-240.0,-70.0,-12.0,294.0,185.0,14.0,-914.0,-131.0
26.0,-240.0,-72.0,-12.0,302.0,181.0,16.0,-920.0,-127.0
28.0,-244.0,-77.0,-12.0,314.0,176.0,22.0,-925.0,-121.0
24.0,-243.0,-71.0,-8.0,322.0,170.0,18.0,-926.0,-126.0
26.0,-245.0,-69.0,-2.0,328.0,165.0,15.0,-932.0,-126.0
24.0,-244.0,-69.0,2.0,335.0,157.0,15.0,-930.0,-126.0
26.0,-245.0,-69.0,8.0,342.0,150.0,14.0,-931.0,-125.0
24.0,-245.0,-70.0,14.0,352.0,143.0,10.0,-934.0,-124.0
18.0,-246.0,-72.0,24.0,364.0,135.0,8.0,-939.0,-126.0
24.0,-250.0,-67.0,33.0,380.0,130.0,2.0,-951.0,-118.0
21.0,-255.0,-68.0,42.0,397.0,126.0,-5.0,-969.0,-118.0
16.0,-258.0,-65.0,57.0,418.0,121.0,-1.0,-984.0,-99.0
24.0,-268.0,-64.0,75.0,440.0,114.0,2.0,-1013.0,-91.0
20.0,-271.0,-59.0,93.0,459.0,109.0,2.0,-1026.0,-83.0
19.0,-275.0,-61.0,111.0,473.0,105.0,-1.0,-1056.0,-79.0
19.0,-280.0,-61.0,127.0,481.0,103.0,-4.0,-1065.0,-79.0
14.0,-281.0,-60.0,139.0,483.0,103.0,-16.0,-1077.0,-80.0
14.0,-285.0,-60.0,147.0,482.0,107.0,-23.0,-1084.0,-79.0
11.0,-285.0,-62.0,151.0,483.0,115.0,-33.0,-1088.0,-85.0
9.0,-285.0,-64.0,150.0,491.0,128.0,-41.0,-1095.0,-88.0
11.0,-288.0,-60.0,145.0,510.0,145.0,-47.0,-1101.0,-92.0
9.0,-279.0,-71.0,137.0,534.0,165.0,-47.0,-1107.0,-89.0
9.0,-286.0,-63.0,132.0,564.0,184.0,-44.0,-1101.0,-82.0
8.0,-286.0,-60.0,126.0,594.0,200.0,-44.0,-1100.0,-72.0
5.0,-286.0,-54.0,121.0,615.0,215.0,-54.0,-1089.0,-54.0
4.0,-283.0,-51.0,117.0,631.0,232.0,-55.0,-1086.0,-26.0
4.0,-286.0,-42.0,114.0,646.0,245.0,-60.0,-1083.0,-6.0
8.0,-284.0,-32.0,111.0,661.0,260.0,-64.0,-1085.0,24.0
13.0,-290.0,-27.0,112.0,681.0,271.0,-52.0,-1089.0,42.0
-1.0,-269.0,-30.0,116.0,701.0,282.0,-48.0,-1076.0,57.0
18.0,-286.0,-16.0,123.0,716.0,288.0,-27.0,-1066.0,60.0
33.0,-272.0,-31.0,126.0,734.0,290.0,0.0,-1066.0,57.0
30.0,-274.0,-23.0,124.0,748.0,291.0,29.0,-1063.0,39.0
16.0,-295.0,-35.0,112.0,763.0,284.0,37.0,-1075.0,6.0
35.0,-274.0,-48.0,94.0,779.0,280.0,48.0,-1096.0,-45.0
29.0,-294.0,-69.0,67.0,801.0,275.0,60.0,-1141.0,-118.0
39.0,-311.0,-98.0,22.0,826.0,274.0,58.0,-1190.0,-204.0
29.0,-335.0,-116.0,-49.0,851.0,281.0,37.0,-1247.0,-299.0
17.0,-329.0,-119.0,-140.0,871.0,296.0,15.0,-1312.0,-379.0
10.0,-352.0,-152.0,-235.0,890.0,319.0,-8.0,-1386.0,-432.0
25.0,-349.0,-165.0,-309.0,906.0,355.0,-30.0,-1446.0,-463.0
6.0,-389.0,-157.0,-344.0,916.0,399.0,-55.0,-1490.0,-479.0
0.0,-391.0,-161.0,-331.0,908.0,446.0,-97.0,-1507.0,-502.0
-11.0,-393.0,-169.0,-280.0,881.0,497.0,-123.0,-1488.0,-535.0
-17.0,-383.0,-181.0,-203.0,843.0,540.0,-147.0,-1454.0,-567.0
-23.0,-365.0,-164.0,-113.0,800.0,576.0,-148.0,-1391.0,-594.0
-11.0,-348.0,-194.0,-22.0,757.0,597.0,-130.0,-1312.0,-630.0
-1.0,-318.0,-202.0,54.0,716.0,606.0,-94.0,-1207.0,-657.0
7.0,-294.0,-208.0,109.0,677.0,600.0,-50.0,-1107.0,-680.0
18.0,-261.0,-207.0,143.0,639.0,587.0,-3.0,-1004.0,-686.0
31.0,-238.0,-208.0,161.0,609.0,571.0,35.0,-910.0,-683.0
41.0,-214.0,-206.0,164.0,591.0,556.0,68.0,-811.0,-667.0
51.0,-194.0,-196.0,161.0,585.0,537.0,100.0,-738.0,-641.0
60.0,-182.0,-192.0,155.0,595.0,514.0,136.0,-662.0,-622.0
64.0,-166.0,-184.0,151.0,611.0,495.0,160.0,-611.0,-590.0
69.0,-158.0,-176.0,150.0,631.0,472.0,184.0,-585.0,-553.0
73.0,-154.0,-166.0,151.0,655.0,446.0,198.0,-568.0,-514.0
74.0,-153.0,-159.0,150.0,680.0,417.0,202.0,-566.0,-476.0
72.0,-154.0,-153.0,147.0,707.0,381.0,201.0,-578.0,-452.0
72.0,-161.0,-143.0,134.0,734.0,345.0,205.0,-595.0,-426.0
73.0,-173.0,-134.0,113.0,762.0,307.0,187.0,-623.0,-395.0
66.0,-180.0,-130.0,86.0,785.0,269.0,174.0,-679.0,-378.0
60.0,-193.0,-127.0,54.0,803.0,230.0,149.0,-728.0,-351.0
52.0,-204.0,-123.0,19.0,814.0,191.0,120.0,-776.0,-331.0
45.0,-215.0,-119.0,-20.0,815.0,154.0,93.0,-809.0,-313.0
34.0,-224.0,-115.0,-58.0,799.0,116.0,56.0,-842.0,-301.0
24.0,-236.0,-114.0,-97.0,778.0,79.0,21.0,-885.0,-297.0
13.0,-239.0,-113.0,-133.0,752.0,43.0,-33.0,-914.0,-297.0
1.0,-245.0,-112.0,-167.0,726.0,12.0,-73.0,-935.0,-285.0
-7.0,-249.0,-113.0,-204.0,700.0,-18.0,-114.0,-953.0,-277.0
-22.0,-255.0,-104.0,-236.0,675.0,-41.0,-164.0,-960.0,-273.0
-34.0,-255.0,-102.0,-263.0,645.0,-59.0,-198.0,-970.0,-263.0
-39.0,-254.0,-104.0,-284.0,610.0,-72.0,-224.0,-972.0,-256.0
-46.0,-256.0,-101.0,-294.0,570.0,-83.0,-247.0,-972.0,-243.0
-46.0,-256.0,-100.0,-299.0,526.0,-91.0,-255.0,-968.0,-240.0
-45.0,-259.0,-97.0,-293.0,473.0,-102.0,-257.0,-958.0,-230.0
-44.0,-246.0,-101.0,-285.0,422.0,-112.0,-238.0,-941.0,-226.0
-37.0,-247.0,-99.0,-270.0,373.0,-123.0,-216.0,-926.0,-235.0
-26.0,-238.0,-99.0,-253.0,326.0,-135.0,-180.0,-911.0,-233.0
-17.0,-236.0,-98.0,-236.0,286.0,-149.0,-140.0,-895.0,-229.0
-1.0,-234.0,-99.0,-218.0,254.0,-162.0,-99.0,-880.0,-232.0
4.0,-231.0,-100.0,-199.0,227.0,-171.0,-54.0,-873.0,-229.0
13.0,-228.0,-96.0,-180.0,204.0,-180.0,-20.0,-859.0,-232.0
21.0,-226.0,-105.0,-163.0,187.0,-188.0,10.0,-857.0,-245.0
29.0,-225.0,-99.0,-154.0,174.0,-196.0,33.0,-849.0,-255.0
32.0,-224.0,-107.0,-144.0,164.0,-203.0,54.0,-838.0,-263.0
37.0,-223.0,-106.0,-137.0,154.0,-207.0,68.0,-834.0,-271.0
37.0,-221.0,-108.0,-138.0,145.0,-211.0,67.0,-841.0,-275.0
37.0,-224.0,-110.0,-139.0,136.0,-215.0,65.0,-844.0,-284.0
34.0,-228.0,-113.0,-142.0,127.0,-218.0,59.0,-856.0,-290.0
31.0,-227.0,-114.0,-148.0,120.0,-221.0,42.0,-865.0,-291.0
28.0,-230.0,-115.0,-154.0,111.0,-223.0,30.0,-867.0,-300.0
26.0,-235.0,-115.0,-158.0,107.0,-226.0,16.0,-871.0,-294.0
24.0,-233.0,-118.0,-164.0,107.0,-230.0,6.0,-882.0,-297.0
17.0,-236.0,-114.0,-169.0,106.0,-235.0,-6.0,-886.0,-292.0
18.0,-234.0,-112.0,-173.0,104.0,-241.0,-15.0,-888.0,-290.0
25.0,-239.0,-117.0,-174.0,101.0,-247.0,-15.0,-891.0,-288.0
14.0,-236.0,-110.0,-171.0,98.0,-254.0,-22.0,-893.0,-278.0
19.0,-237.0,-104.0,-165.0,91.0,-258.0,-8.0,-909.0,-266.0
19.0,-243.0,-103.0,-152.0,79.0,-262.0,-5.0,-913.0,-250.0
24.0,-242.0,-100.0,-135.0,63.0,-263.0,-1.0,-915.0,-230.0
22.0,-242.0,-93.0,-112.0,45.0,-262.0,5.0,-921.0,-216.0
21.0,-244.0,-90.0,-86.0,24.0,-258.0,13.0,-917.0,-210.0
26.0,-242.0,-86.0,-61.0,1.0,-253.0,15.0,-925.0,-194.0
24.0,-243.0,-85.0,-34.0,-24.0,-245.0,20.0,-923.0,-179.0
25.0,-243.0,-85.0,-12.0,-53.0,-235.0,22.0,-919.0,-176.0
25.0,-238.0,-83.0,3.0,-77.0,-227.0,19.0,-916.0,-173.0
30.0,-243.0,-81.0,10.0,-102.0,-215.0,26.0,-917.0,-167.0
28.0,-238.0,-82.0,12.0,-122.0,-203.0,23.0,-918.0,-167.0
27.0,-242.0,-75.0,9.0,-139.0,-193.0,20.0,-913.0,-150.0
26.0,-240.0,-75.0,5.0,-155.0,-180.0,23.0,-917.0,-149.0
25.0,-240.0,-78.0,0.0,-172.0,-168.0,14.0,-919.0,-152.0
25.0,-244.0,-78.0,-6.0,-184.0,-159.0,9.0,-926.0,-148.0
22.0,-240.0,-75.0,-13.0,-197.0,-150.0,4.0,-925.0,-149.0
21.0,-245.0,-80.0,-24.0,-207.0,-142.0,0.0,-926.0,-144.0
21.0,-244.0,-78.0,-35.0,-219.0,-138.0,-1.0,-932.0,-146.0
21.0,-244.0,-74.0,-45.0,-235.0,-133.0,-11.0,-928.0,-141.0
18.0,-245.0,-74.0,-44.0,-249.0,-128.0,-9.0,-929.0,-136.0
22.0,-247.0,-75.0,-37.0,-263.0,-121.0,-1.0,-931.0,-132.0
17.0,-245.0,-74.0,-25.0,-277.0,-111.0,-9.0,-933.0,-122.0
18.0,-244.0,-68.0,-7.0,-290.0,-100.0,-11.0,-925.0,-112.0
17.0,-243.0,-67.0,13.0,-301.0,-86.0,-11.0,-927.0,-107.0
17.0,-246.0,-69.0,33.0,-313.0,-71.0,-16.0,-929.0,-101.0
20.0,-246.0,-63.0,53.0,-324.0,-57.0,-9.0,-935.0,-95.0
18.0,-243.0,-63.0,67.0,-336.0,-42.0,-4.0,-938.0,-96.0
18.0,-248.0,-63.0,79.0,-348.0,-29.0,0.0,-944.0,-90.0
20.0,-253.0,-65.0,94.0,-366.0,-17.0,-2.0,-955.0,-95.0
17.0,-255.0,-65.0,106.0,-389.0,-7.0,-2.0,-967.0,-100.0
17.0,-256.0,-67.0,116.0,-411.0,4.0,0.0,-981.0,-95.0
20.0,-265.0,-63.0,125.0,-428.0,15.0,0.0,-1003.0,-88.0
21.0,-272.0,-60.0,135.0,-441.0,26.0,3.0,-1023.0,-81.0
24.0,-275.0,-60.0,146.0,-449.0,33.0,11.0,-1045.0,-80.0
26.0,-280.0,-60.0,152.0,-448.0,38.0,16.0,-1064.0,-76.0
31.0,-283.0,-56.0,150.0,-440.0,41.0,24.0,-1076.0,-69.0
34.0,-284.0,-56.0,147.0,-428.0,40.0,39.0,-1075.0,-69.0
40.0,-280.0,-62.0,134.0,-408.0,37.0,63.0,-1080.0,-80.0
47.0,-276.0,-60.0,116.0,-383.0,32.0,98.0,-1067.0,-84.0
52.0,-278.0,-59.0,93.0,-359.0,22.0,127.0,-1062.0,-89.0
58.0,-275.0,-64.0,72.0,-341.0,8.0,145.0,-1062.0,-86.0
62.0,-278.0,-60.0,61.0,-332.0,-7.0,154.0,-1066.0,-75.0
60.0,-278.0,-53.0,53.0,-331.0,-24.0,145.0,-1073.0,-58.0
58.0,-281.0,-51.0,54.0,-335.0,-35.0,131.0,-1077.0,-26.0
49.0,-285.0,-41.0,61.0,-340.0,-45.0,107.0,-1088.0,10.0
42.0,-289.0,-30.0,73.0,-345.0,-50.0,81.0,-1099.0,59.0
33.0,-292.0,-13.0,95.0,-351.0,-49.0,47.0,-1114.0,99.0
23.0,-296.0,-6.0,129.0,-358.0,-44.0,10.0,-1123.0,126.0
17.0,-298.0,-1.0,165.0,-362.0,-33.0,-21.0,-1127.0,139.0
9.0,-295.0,-6.0,196.0,-361.0,-24.0,-37.0,-1132.0,130.0
7.0,-301.0,-14.0,211.0,-354.0,-21.0,-44.0,-1140.0,92.0
16.0,-300.0,-32.0,197.0,-346.0,-26.0,-28.0,-1161.0,28.0
18.0,-307.0,-60.0,151.0,-340.0,-43.0,1.0,-1184.0,-60.0
24.0,-316.0,-82.0,78.0,-345.0,-71.0,26.0,-1229.0,-179.0
34.0,-330.0,-113.0,-33.0,-358.0,-105.0,49.0,-1289.0,-311.0
42.0,-344.0,-145.0,-183.0,-380.0,-141.0,71.0,-1346.0,-428.0
45.0,-366.0,-168.0,-337.0,-400.0,-176.0,96.0,-1414.0,-510.0
62.0,-389.0,-179.0,-459.0,-406.0,-215.0,145.0,-1484.0,-566.0
75.0,-407.0,-180.0,-530.0,-389.0,-263.0,202.0,-1553.0,-590.0
93.0,-415.0,-190.0,-550.0,-345.0,-320.0,268.0,-1596.0,-612.0
115.0,-422.0,-193.0,-528.0,-276.0,-387.0,336.0,-1600.0,-633.0
126.0,-413.0,-205.0,-470.0,-182.0,-459.0,389.0,-1555.0,-658.0
128.0,-401.0,-198.0,-391.0,-89.0,-522.0,387.0,-1510.0,-668.0
107.0,-379.0,-209.0,-297.0,-11.0,-561.0,327.0,-1426.0,-691.0
87.0,-351.0,-217.0,-204.0,49.0,-578.0,248.0,-1331.0,-722.0
66.0,-321.0,-225.0,-121.0,97.0,-573.0,170.0,-1205.0,-745.0
52.0,-283.0,-224.0,-64.0,133.0,-553.0,109.0,-1077.0,-756.0
34.0,-248.0,-227.0,-3.0,158.0,-523.0,51.0,-943.0,-767.0
20.0,-214.0,-225.0,42.0,172.0,-491.0,-9.0,-807.0,-748.0
3.0,-179.0,-219.0,78.0,172.0,-459.0,-53.0,-693.0,-726.0
-8.0,-159.0,-203.0,110.0,168.0,-425.0,-106.0,-598.0,-673.0
-18.0,-137.0,-194.0,136.0,164.0,-390.0,-151.0,-509.0,-633.0
-28.0,-129.0,-182.0,155.0,148.0,-359.0,-182.0,-473.0,-578.0
-33.0,-126.0,-168.0,164.0,125.0,-334.0,-204.0,-458.0,-516.0
-23.0,-126.0,-159.0,163.0,81.0,-309.0,-202.0,-472.0,-471.0
-31.0,-137.0,-147.0,149.0,24.0,-279.0,-194.0,-503.0,-429.0
-27.0,-149.0,-136.0,124.0,-32.0,-240.0,-189.0,-546.0,-381.0
-20.0,-168.0,-123.0,88.0,-76.0,-192.0,-175.0,-619.0,-341.0
-17.0,-188.0,-119.0,52.0,-110.0,-138.0,-146.0,-699.0,-310.0
-10.0,-203.0,-115.0,21.0,-129.0,-82.0,-115.0,-775.0,-294.0
1.0,-223.0,-112.0,-9.0,-140.0,-33.0,-80.0,-839.0,-297.0
6.0,-237.0,-115.0,-36.0,-138.0,27.0,-50.0,-901.0,-299.0
20.0,-252.0,-119.0,-59.0,-123.0,90.0,-7.0,-952.0,-314.0
32.0,-260.0,-128.0,-79.0,-105.0,149.0,37.0,-990.0,-327.0
46.0,-267.0,-127.0,-102.0,-85.0,202.0,85.0,-1013.0,-349.0
59.0,-270.0,-135.0,-124.0,-62.0,243.0,129.0,-1028.0,-369.0
65.0,-273.0,-131.0,-144.0,-37.0,276.0,169.0,-1038.0,-378.0
75.0,-276.0,-132.0,-168.0,-7.0,300.0,196.0,-1042.0,-392.0
82.0,-273.0,-137.0,-191.0,30.0,314.0,222.0,-1032.0,-389.0
84.0,-269.0,-135.0,-207.0,73.0,324.0,243.0,-1025.0,-390.0
88.0,-262.0,-136.0,-216.0,122.0,327.0,247.0,-1008.0,-385.0
87.0,-266.0,-135.0,-214.0,179.0,330.0,252.0,-997.0,-381.0
85.0,-258.0,-132.0,-198.0,237.0,337.0,245.0,-972.0,-375.0
78.0,-249.0,-134.0,-175.0,299.0,346.0,226.0,-947.0,-372.0
67.0,-243.0,-131.0,-146.0,357.0,361.0,191.0,-928.0,-372.0
56.0,-238.0,-132.0,-114.0,407.0,381.0,146.0,-908.0,-369.0
46.0,-235.0,-132.0,-83.0,446.0,400.0,95.0,-880.0,-370.0
31.0,-227.0,-131.0,-53.0,474.0,421.0,50.0,-872.0,-369.0
19.0,-226.0,-130.0,-26.0,493.0,435.0,4.0,-863.0,-369.0
10.0,-229.0,-136.0,-11.0,501.0,446.0,-42.0,-852.0,-373.0
-2.0,-224.0,-136.0,-5.0,501.0,454.0,-88.0,-849.0,-377.0
-10.0,-225.0,-132.0,-6.0,496.0,460.0,-126.0,-849.0,-377.0
-19.0,-222.0,-131.0,-12.0,489.0,464.0,-163.0,-850.0,-374.0
-27.0,-226.0,-135.0,-20.0,480.0,463.0,-189.0,-859.0,-375.0
-37.0,-229.0,-131.0,-27.0,470.0,458.0,-217.0,-856.0,-372.0
-40.0,-230.0,-131.0,-36.0,459.0,451.0,-236.0,-872.0,-361.0
-42.0,-229.0,-128.0,-42.0,444.0,441.0,-241.0,-861.0,-345.0
-41.0,-228.0,-127.0,-47.0,422.0,427.0,-231.0,-867.0,-340.0
-36.0,-230.0,-119.0,-55.0,399.0,412.0,-221.0,-869.0,-328.0
-31.0,-231.0,-119.0,-66.0,376.0,401.0,-205.0,-866.0,-313.0
-28.0,-227.0,-118.0,-79.0,351.0,392.0,-180.0,-869.0,-306.0
-19.0,-230.0,-116.0,-97.0,326.0,382.0,-161.0,-872.0,-303.0
-13.0,-228.0,-113.0,-115.0,300.0,375.0,-137.0,-866.0,-294.0
-6.0,-232.0,-106.0,-139.0,276.0,368.0,-111.0,-870.0,-268.0
-4.0,-231.0,-103.0,-158.0,253.0,363.0,-93.0,-878.0,-260.0
1.0,-230.0,-100.0,-173.0,232.0,359.0,-78.0,-878.0,-245.0
0.0,-235.0,-99.0,-189.0,218.0,357.0,-80.0,-881.0,-232.0
1.0,-232.0,-98.0,-204.0,206.0,352.0,-67.0,-872.0,-220.0
4.0,-230.0,-93.0,-219.0,197.0,349.0,-74.0,-877.0,-207.0
3.0,-231.0,-91.0,-231.0,191.0,340.0,-77.0,-877.0,-206.0
-1.0,-230.0,-87.0,-239.0,187.0,332.0,-73.0,-875.0,-193.0
-2.0,-232.0,-90.0,-248.0,187.0,321.0,-78.0,-877.0,-187.0
1.0,-235.0,-84.0,-256.0,185.0,312.0,-87.0,-881.0,-187.0
0.0,-232.0,-89.0,-262.0,185.0,302.0,-93.0,-885.0,-185.0
0.0,-235.0,-91.0,-269.0,187.0,294.0,-90.0,-889.0,-189.0
-1.0,-235.0,-89.0,-275.0,188.0,284.0,-92.0,-891.0,-190.0
1.0,-239.0,-89.0,-280.0,191.0,274.0,-90.0,-912.0,-198.0
1.0,-243.0,-92.0,-284.0,197.0,266.0,-86.0,-921.0,-193.0
1.0,-244.0,-88.0,-283.0,203.0,258.0,-80.0,-923.0,-185.0
2.0,-247.0,-88.0,-282.0,208.0,248.0,-73.0,-931.0,-180.0
2.0,-247.0,-83.0,-281.0,210.0,241.0,-68.0,-939.0,-180.0
4.0,-250.0,-84.0,-278.0,208.0,238.0,-57.0,-948.0,-176.0
8.0,-253.0,-85.0,-274.0,205.0,230.0,-50.0,-960.0,-175.0
8.0,-253.0,-87.0,-264.0,201.0,227.0,-48.0,-962.0,-179.0
9.0,-256.0,-83.0,-250.0,199.0,226.0,-45.0,-966.0,-174.0
10.0,-255.0,-82.0,-237.0,199.0,225.0,-36.0,-968.0,-172.0
14.0,-256.0,-76.0,-220.0,204.0,225.0,-35.0,-975.0,-162.0
13.0,-257.0,-76.0,-199.0,213.0,227.0,-32.0,-977.0,-156.0
15.0,-256.0,-74.0,-180.0,227.0,229.0,-30.0,-981.0,-156.0
12.0,-255.0,-76.0,-162.0,243.0,230.0,-31.0,-978.0,-152.0
19.0,-258.0,-82.0,-143.0,258.0,230.0,-28.0,-974.0,-150.0
18.0,-256.0,-78.0,-128.0,274.0,230.0,-19.0,-969.0,-152.0
20.0,-253.0,-76.0,-120.0,289.0,227.0,-12.0,-963.0,-144.0
25.0,-255.0,-76.0,-112.0,303.0,223.0,-2.0,-965.0,-150.0
20.0,-255.0,-79.0,-101.0,320.0,217.0,0.0,-963.0,-147.0
21.0,-254.0,-78.0,-90.0,333.0,212.0,-2.0,-968.0,-143.0
22.0,-256.0,-76.0,-77.0,348.0,210.0,6.0,-967.0,-145.0
23.0,-256.0,-78.0,-60.0,365.0,206.0,6.0,-966.0,-143.0
21.0,-255.0,-70.0,-40.0,381.0,201.0,1.0,-960.0,-136.0
23.0,-254.0,-73.0,-21.0,398.0,196.0,4.0,-969.0,-133.0
23.0,-246.0,-83.0,-2.0,417.0,190.0,-2.0,-970.0,-127.0
19.0,-257.0,-73.0,17.0,439.0,183.0,-8.0,-984.0,-120.0
19.0,-263.0,-68.0,37.0,462.0,179.0,-11.0,-993.0,-110.0
19.0,-263.0,-68.0,60.0,489.0,173.0,-14.0,-1007.0,-106.0
20.0,-267.0,-64.0,82.0,521.0,165.0,-7.0,-1016.0,-107.0
25.0,-269.0,-66.0,105.0,561.0,157.0,0.0,-1023.0,-101.0
27.0,-274.0,-65.0,127.0,603.0,148.0,15.0,-1036.0,-98.0
32.0,-274.0,-62.0,147.0,651.0,136.0,37.0,-1046.0,-85.0
38.0,-275.0,-58.0,165.0,705.0,127.0,60.0,-1060.0,-71.0
45.0,-277.0,-56.0,184.0,762.0,118.0,77.0,-1070.0,-51.0
51.0,-282.0,-50.0,204.0,821.0,107.0,98.0,-1072.0,-43.0
53.0,-281.0,-47.0,226.0,887.0,97.0,106.0,-1071.0,-36.0
54.0,-282.0,-48.0,248.0,953.0,87.0,114.0,-1065.0,-31.0
53.0,-278.0,-47.0,262.0,1011.0,79.0,115.0,-1062.0,-28.0
49.0,-273.0,-45.0,271.0,1052.0,67.0,120.0,-1054.0,-16.0
50.0,-269.0,-40.0,281.0,1088.0,56.0,103.0,-1031.0,-1.0
53.0,-269.0,-40.0,287.0,1122.0,45.0,103.0,-1028.0,8.0
48.0,-267.0,-33.0,290.0,1153.0,34.0,94.0,-1019.0,26.0
39.0,-264.0,-31.0,287.0,1177.0,30.0,76.0,-1014.0,35.0
35.0,-261.0,-27.0,279.0,1195.0,29.0,64.0,-1005.0,44.0
33.0,-262.0,-30.0,267.0,1209.0,30.0,49.0,-1002.0,50.0
30.0,-260.0,-31.0,252.0,1225.0,34.0,36.0,-1002.0,46.0
25.0,-257.0,-37.0,237.0,1238.0,41.0,24.0,-993.0,28.0
16.0,-256.0,-46.0,219.0,1246.0,52.0,2.0,-988.0,-3.0
9.0,-258.0,-59.0,197.0,1247.0,67.0,-34.0,-987.0,-72.0
0.0,-258.0,-77.0,170.0,1240.0,82.0,-72.0,-1000.0,-142.0
-10.0,-266.0,-99.0,141.0,1225.0,96.0,-117.0,-1009.0,-221.0
-29.0,-270.0,-119.0,106.0,1199.0,112.0,-192.0,-1040.0,-310.0
-48.0,-280.0,-140.0,66.0,1165.0,128.0,-263.0,-1082.0,-404.0
-68.0,-290.0,-161.0,21.0,1119.0,148.0,-338.0,-1124.0,-492.0
-88.0,-309.0,-179.0,-30.0,1066.0,175.0,-406.0,-1185.0,-567.0
-100.0,-324.0,-192.0,-83.0,1000.0,210.0,-459.0,-1243.0,-620.0
-110.0,-340.0,-208.0,-129.0,922.0,248.0,-498.0,-1304.0,-680.0
-114.0,-354.0,-215.0,-160.0,832.0,294.0,-511.0,-1352.0,-709.0
-114.0,-363.0,-223.0,-174.0,729.0,339.0,-513.0,-1390.0,-739.0
-103.0,-372.0,-223.0,-172.0,618.0,384.0,-471.0,-1409.0,-754.0
-90.0,-373.0,-225.0,-148.0,506.0,420.0,-424.0,-1406.0,-763.0
-68.0,-362.0,-228.0,-101.0,399.0,447.0,-338.0,-1387.0,-771.0
-41.0,-351.0,-233.0,-37.0,312.0,453.0,-243.0,-1330.0,-777.0
-13.0,-335.0,-232.0,38.0,251.0,438.0,-145.0,-1256.0,-781.0
16.0,-313.0,-228.0,120.0,218.0,405.0,-33.0,-1175.0,-771.0
47.0,-294.0,-224.0,195.0,205.0,360.0,86.0,-1100.0,-743.0
77.0,-273.0,-214.0,264.0,208.0,306.0,196.0,-1019.0,-710.0
98.0,-254.0,-205.0,328.0,226.0,252.0,292.0,-944.0,-686.0
118.0,-231.0,-197.0,389.0,262.0,195.0,356.0,-860.0,-660.0
133.0,-207.0,-199.0,444.0,319.0,140.0,402.0,-778.0,-638.0
133.0,-187.0,-194.0,486.0,398.0,91.0,418.0,-698.0,-623.0
128.0,-176.0,-192.0,506.0,485.0,54.0,402.0,-655.0,-606.0
120.0,-169.0,-184.0,503.0,566.0,26.0,357.0,-638.0,-584.0
103.0,-170.0,-175.0,474.0,636.0,9.0,306.0,-635.0,-555.0
82.0,-176.0,-172.0,428.0,693.0,-1.0,239.0,-654.0,-520.0
57.0,-184.0,-151.0,364.0,741.0,-10.0,161.0,-681.0,-489.0
31.0,-194.0,-154.0,293.0,774.0,-15.0,78.0,-725.0,-463.0
27.0,-208.0,-142.0,211.0,791.0,-21.0,4.0,-773.0,-437.0
3.0,-210.0,-155.0,127.0,788.0,-31.0,-60.0,-819.0,-419.0
-24.0,-241.0,-147.0,45.0,763.0,-45.0,-120.0,-851.0,-405.0
-28.0,-237.0,-141.0,-31.0,723.0,-60.0,-171.0,-882.0,-378.0
-33.0,-260.0,-107.0,-91.0,665.0,-74.0,-216.0,-915.0,-375.0
-43.0,-248.0,-141.0,-146.0,603.0,-89.0,-254.0,-935.0,-379.0
-57.0,-252.0,-127.0,-186.0,537.0,-96.0,-291.0,-972.0,-372.0
-57.0,-262.0,-138.0,-214.0,476.0,-100.0,-305.0,-1006.0,-374.0
-55.0,-262.0,-152.0,-234.0,421.0,-108.0,-293.0,-1037.0,-377.0
-58.0,-273.0,-145.0,-250.0,374.0,-118.0,-278.0,-1037.0,-370.0
-39.0,-274.0,-126.0,-258.0,328.0,-128.0,-242.0,-1054.0,-369.0
-36.0,-283.0,-141.0,-259.0,285.0,-143.0,-210.0,-1052.0,-364.0
-8.0,-273.0,-120.0,-249.0,245.0,-160.0,-161.0,-1033.0,-342.0
-4.0,-265.0,-112.0,-232.0,205.0,-186.0,-106.0,-1013.0,-338.0
-12.0,-278.0,-123.0,-210.0,174.0,-215.0,-55.0,-995.0,-329.0
25.0,-256.0,-128.0,-189.0,151.0,-246.0,0.0,-971.0,-324.0
26.0,-251.0,-120.0,-177.0,138.0,-272.0,28.0,-953.0,-321.0
28.0,-247.0,-111.0,-168.0,125.0,-296.0,58.0,-932.0,-316.0
35.0,-249.0,-108.0,-163.0,117.0,-313.0,75.0,-906.0,-305.0
30.0,-231.0,-134.0,-162.0,115.0,-326.0,88.0,-883.0,-302.0
50.0,-235.0,-120.0,-152.0,123.0,-334.0,99.0,-872.0,-305.0
46.0,-216.0,-116.0,-129.0,140.0,-337.0,93.0,-854.0,-311.0
36.0,-231.0,-115.0,-108.0,158.0,-336.0,86.0,-831.0,-305.0
33.0,-205.0,-114.0,-103.0,167.0,-329.0,73.0,-814.0,-302.0
35.0,-214.0,-116.0,-108.0,171.0,-323.0,57.0,-808.0,-302.0
28.0,-220.0,-117.0,-117.0,171.0,-315.0,38.0,-809.0,-302.0
17.0,-219.0,-117.0,-125.0,169.0,-305.0,19.0,-811.0,-295.0
23.0,-210.0,-107.0,-132.0,164.0,-299.0,1.0,-805.0,-288.0
17.0,-210.0,-114.0,-135.0,157.0,-290.0,-22.0,-801.0,-286.0
16.0,-213.0,-106.0,-137.0,148.0,-279.0,-29.0,-792.0,-288.0
12.0,-208.0,-111.0,-137.0,142.0,-270.0,-34.0,-794.0,-285.0
12.0,-211.0,-114.0,-138.0,136.0,-267.0,-42.0,-794.0,-285.0
17.0,-215.0,-109.0,-137.0,130.0,-268.0,-36.0,-795.0,-274.0
14.0,-211.0,-105.0,-134.0,122.0,-271.0,-34.0,-801.0,-273.0
19.0,-216.0,-106.0,-129.0,110.0,-277.0,-14.0,-807.0,-264.0
24.0,-217.0,-108.0,-122.0,95.0,-285.0,2.0,-820.0,-263.0
44.0,-212.0,-118.0,-117.0,81.0,-293.0,21.0,-828.0,-264.0
36.0,-228.0,-103.0,-113.0,69.0,-304.0,44.0,-840.0,-271.0
36.0,-227.0,-110.0,-110.0,60.0,-312.0,58.0,-856.0,-269.0
46.0,-228.0,-107.0,-105.0,57.0,-320.0,83.0,-857.0,-261.0
46.0,-230.0,-104.0,-99.0,56.0,-324.0,98.0,-860.0,-262.0
53.0,-232.0,-103.0,-91.0,57.0,-325.0,110.0,-867.0,-250.0
50.0,-230.0,-98.0,-83.0,59.0,-324.0,118.0,-867.0,-242.0
53.0,-232.0,-97.0,-71.0,60.0,-318.0,122.0,-865.0,-235.0
52.0,-230.0,-97.0,-62.0,60.0,-307.0,114.0,-871.0,-225.0
49.0,-230.0,-89.0,-53.0,63.0,-290.0,100.0,-878.0,-217.0
44.0,-235.0,-99.0,-44.0,61.0,-277.0,93.0,-869.0,-214.0
42.0,-230.0,-91.0,-36.0,62.0,-256.0,77.0,-868.0,-199.0
37.0,-232.0,-93.0,-29.0,62.0,-237.0,57.0,-870.0,-196.0
31.0,-228.0,-91.0,-27.0,60.0,-214.0,42.0,-863.0,-195.0
28.0,-230.0,-92.0,-24.0,59.0,-192.0,21.0,-871.0,-191.0
24.0,-233.0,-90.0,-22.0,58.0,-173.0,15.0,-866.0,-191.0
22.0,-228.0,-87.0,-23.0,59.0,-156.0,2.0,-865.0,-187.0
21.0,-233.0,-85.0,-24.0,60.0,-140.0,-7.0,-873.0,-187.0
19.0,-231.0,-89.0,-28.0,62.0,-126.0,-4.0,-874.0,-186.0
17.0,-232.0,-88.0,-30.0,65.0,-113.0,-6.0,-875.0,-197.0
20.0,-232.0,-87.0,-34.0,73.0,-102.0,0.0,-872.0,-198.0
22.0,-228.0,-87.0,-38.0,85.0,-93.0,0.0,-866.0,-192.0
24.0,-227.0,-86.0,-45.0,97.0,-86.0,9.0,-864.0,-198.0
27.0,-228.0,-92.0,-51.0,108.0,-78.0,12.0,-865.0,-197.0
32.0,-230.0,-85.0,-58.0,118.0,-72.0,33.0,-866.0,-195.0
34.0,-231.0,-85.0,-66.0,123.0,-65.0,46.0,-867.0,-191.0
34.0,-232.0,-87.0,-68.0,125.0,-58.0,51.0,-876.0,-182.0
38.0,-236.0,-81.0,-65.0,123.0,-50.0,57.0,-892.0,-181.0
37.0,-238.0,-85.0,-61.0,118.0,-44.0,66.0,-908.0,-171.0
36.0,-241.0,-83.0,-56.0,112.0,-39.0,59.0,-918.0,-164.0
37.0,-248.0,-76.0,-54.0,107.0,-31.0,57.0,-933.0,-149.0
32.0,-250.0,-73.0,-49.0,105.0,-23.0,48.0,-943.0,-138.0
29.0,-253.0,-76.0,-41.0,100.0,-17.0,35.0,-960.0,-133.0
25.0,-256.0,-75.0,-29.0,94.0,-9.0,22.0,-966.0,-137.0
25.0,-255.0,-75.0,-23.0,87.0,-4.0,14.0,-961.0,-139.0
22.0,-252.0,-75.0,-19.0,77.0,0.0,4.0,-965.0,-149.0
18.0,-253.0,-76.0,-18.0,67.0,0.0,-2.0,-963.0,-146.0
17.0,-251.0,-81.0,-21.0,58.0,5.0,-14.0,-959.0,-154.0
19.0,-251.0,-77.0,-28.0,53.0,8.0,-13.0,-953.0,-163.0
17.0,-251.0,-82.0,-38.0,51.0,9.0,-16.0,-946.0,-176.0
17.0,-248.0,-78.0,-54.0,40.0,11.0,-17.0,-949.0,-169.0
17.0,-250.0,-83.0,-65.0,22.0,11.0,-13.0,-950.0,-160.0
18.0,-252.0,-80.0,-75.0,-4.0,12.0,-14.0,-955.0,-150.0
16.0,-254.0,-76.0,-80.0,-36.0,15.0,-9.0,-962.0,-137.0
18.0,-254.0,-72.0,-85.0,-67.0,17.0,-10.0,-970.0,-132.0
17.0,-257.0,-74.0,-83.0,-94.0,22.0,-5.0,-976.0,-127.0
17.0,-258.0,-72.0,-83.0,-119.0,29.0,-7.0,-988.0,-131.0
17.0,-259.0,-72.0,-79.0,-139.0,37.0,-8.0,-991.0,-131.0
17.0,-265.0,-70.0,-73.0,-155.0,44.0,-5.0,-1004.0,-134.0
20.0,-265.0,-72.0,-65.0,-169.0,50.0,-2.0,-1013.0,-131.0
26.0,-270.0,-73.0,-54.0,-174.0,54.0,11.0,-1028.0,-132.0
24.0,-274.0,-73.0,-37.0,-174.0,53.0,31.0,-1041.0,-139.0
31.0,-274.0,-74.0,-21.0,-172.0,48.0,49.0,-1053.0,-136.0
37.0,-277.0,-73.0,-9.0,-166.0,37.0,66.0,-1065.0,-144.0
44.0,-280.0,-74.0,-3.0,-163.0,24.0,83.0,-1075.0,-142.0
47.0,-283.0,-78.0,5.0,-159.0,9.0,98.0,-1078.0,-132.0
51.0,-283.0,-71.0,11.0,-156.0,-8.0,108.0,-1083.0,-123.0
53.0,-286.0,-68.0,16.0,-149.0,-24.0,110.0,-1090.0,-111.0
52.0,-285.0,-61.0,22.0,-140.0,-40.0,118.0,-1090.0,-93.0
52.0,-290.0,-56.0,28.0,-134.0,-57.0,106.0,-1096.0,-70.0
44.0,-289.0,-54.0,39.0,-129.0,-71.0,90.0,-1106.0,-50.0
43.0,-290.0,-47.0,46.0,-123.0,-87.0,78.0,-1108.0,-29.0
34.0,-288.0,-40.0,51.0,-120.0,-99.0,58.0,-1104.0,-6.0
30.0,-288.0,-41.0,52.0,-119.0,-110.0,38.0,-1103.0,13.0
24.0,-286.0,-37.0,48.0,-121.0,-117.0,6.0,-1091.0,22.0
17.0,-282.0,-34.0,39.0,-127.0,-123.0,-17.0,-1077.0,30.0
11.0,-278.0,-32.0,26.0,-134.0,-125.0,-35.0,-1063.0,36.0
3.0,-270.0,-32.0,10.0,-148.0,-127.0,-56.0,-1034.0,40.0
2.0,-264.0,-35.0,-9.0,-167.0,-128.0,-70.0,-1015.0,38.0
2.0,-258.0,-35.0,-26.0,-185.0,-126.0,-78.0,-1000.0,38.0
1.0,-255.0,-36.0,-46.0,-205.0,-123.0,-68.0,-985.0,25.0
4.0,-256.0,-38.0,-69.0,-227.0,-119.0,-54.0,-987.0,16.0
11.0,-260.0,-50.0,-95.0,-250.0,-114.0,-34.0,-990.0,-19.0
31.0,-263.0,-61.0,-128.0,-279.0,-115.0,-4.0,-1010.0,-48.0
23.0,-275.0,-65.0,-168.0,-308.0,-116.0,15.0,-1041.0,-85.0
29.0,-283.0,-69.0,-206.0,-337.0,-121.0,32.0,-1086.0,-110.0
32.0,-293.0,-73.0,-236.0,-360.0,-128.0,44.0,-1123.0,-132.0
38.0,-305.0,-78.0,-253.0,-371.0,-134.0,57.0,-1154.0,-156.0
36.0,-307.0,-88.0,-256.0,-365.0,-143.0,70.0,-1165.0,-191.0
31.0,-316.0,-98.0,-238.0,-360.0,-148.0,33.0,-1181.0,-232.0
36.0,-302.0,-119.0,-184.0,-369.0,-157.0,64.0,-1153.0,-315.0
41.0,-300.0,-126.0,-148.0,-343.0,-173.0,84.0,-1141.0,-354.0
61.0,-300.0,-138.0,-122.0,-305.0,-174.0,141.0,-1142.0,-393.0
71.0,-299.0,-144.0,-111.0,-268.0,-167.0,188.0,-1143.0,-427.0
73.0,-296.0,-151.0,-131.0,-229.0,-161.0,200.0,-1122.0,-445.0
75.0,-297.0,-157.0,-172.0,-205.0,-149.0,218.0,-1141.0,-462.0
65.0,-296.0,-161.0,-215.0,-207.0,-149.0,185.0,-1118.0,-490.0
63.0,-302.0,-178.0,-241.0,-244.0,-158.0,170.0,-1148.0,-554.0
58.0,-310.0,-189.0,-269.0,-301.0,-147.0,148.0,-1185.0,-599.0
56.0,-313.0,-193.0,-305.0,-347.0,-154.0,130.0,-1194.0,-617.0
54.0,-315.0,-199.0,-341.0,-380.0,-176.0,125.0,-1184.0,-646.0
55.0,-315.0,-200.0,-355.0,-403.0,-195.0,117.0,-1173.0,-659.0
48.0,-306.0,-202.0,-332.0,-417.0,-212.0,87.0,-1148.0,-678.0
36.0,-287.0,-212.0,-287.0,-416.0,-233.0,60.0,-1097.0,-686.0
34.0,-272.0,-206.0,-232.0,-395.0,-248.0,41.0,-1026.0,-673.0
12.0,-249.0,-197.0,-168.0,-360.0,-253.0,-28.0,-949.0,-649.0
3.0,-234.0,-196.0,-101.0,-329.0,-246.0,-65.0,-874.0,-620.0
-7.0,-217.0,-183.0,-35.0,-301.0,-229.0,-111.0,-813.0,-583.0
-15.0,-199.0,-173.0,22.0,-280.0,-206.0,-142.0,-750.0,-547.0
-21.0,-187.0,-161.0,68.0,-268.0,-176.0,-156.0,-696.0,-495.0
-19.0,-180.0,-152.0,101.0,-270.0,-144.0,-173.0,-663.0,-456.0
-21.0,-175.0,-144.0,126.0,-286.0,-116.0,-168.0,-657.0,-419.0
-17.0,-178.0,-135.0,138.0,-314.0,-89.0,-150.0,-667.0,-394.0
-16.0,-185.0,-132.0,135.0,-343.0,-64.0,-141.0,-687.0,-372.0
-3.0,-191.0,-131.0,121.0,-373.0,-42.0,-108.0,-719.0,-361.0
2.0,-201.0,-128.0,96.0,-398.0,-23.0,-71.0,-752.0,-360.0
12.0,-210.0,-130.0,63.0,-415.0,-7.0,-46.0,-789.0,-360.0
22.0,-220.0,-131.0,25.0,-428.0,10.0,1.0,-826.0,-367.0
34.0,-235.0,-130.0,-9.0,-434.0,24.0,44.0,-887.0,-370.0
43.0,-248.0,-136.0,-39.0,-437.0,36.0,80.0,-940.0,-372.0
52.0,-259.0,-134.0,-62.0,-435.0,45.0,99.0,-993.0,-372.0
56.0,-270.0,-128.0,-68.0,-425.0,52.0,130.0,-1025.0,-373.0
61.0,-277.0,-134.0,-67.0,-405.0,58.0,139.0,-1054.0,-375.0
60.0,-285.0,-130.0,-65.0,-374.0,66.0,149.0,-1078.0,-374.0
64.0,-289.0,-131.0,-62.0,-339.0,80.0,151.0,-1093.0,-367.0
61.0,-285.0,-127.0,-59.0,-298.0,96.0,151.0,-1088.0,-364.0
61.0,-282.0,-130.0,-57.0,-260.0,115.0,140.0,-1076.0,-363.0
53.0,-278.0,-132.0,-55.0,-222.0,133.0,109.0,-1063.0,-369.0
45.0,-268.0,-130.0,-53.0,-187.0,152.0,87.0,-1032.0,-368.0
42.0,-261.0,-130.0,-47.0,-151.0,169.0,68.0,-1002.0,-362.0
36.0,-258.0,-129.0,-35.0,-114.0,187.0,53.0,-970.0,-355.0
31.0,-250.0,-130.0,-19.0,-79.0,203.0,36.0,-942.0,-340.0
25.0,-237.0,-120.0,1.0,-47.0,216.0,15.0,-908.0,-341.0
25.0,-234.0,-125.0,17.0,-22.0,228.0,7.0,-876.0,-339.0
21.0,-229.0,-125.0,26.0,-8.0,238.0,-6.0,-855.0,-340.0
18.0,-220.0,-126.0,32.0,0.0,243.0,-13.0,-830.0,-338.0
16.0,-219.0,-124.0,33.0,2.0,246.0,-23.0,-822.0,-337.0
13.0,-213.0,-125.0,33.0,0.0,244.0,-27.0,-803.0,-341.0
13.0,-213.0,-123.0,27.0,-7.0,245.0,-33.0,-799.0,-332.0
14.0,-215.0,-128.0,23.0,-13.0,244.0,-32.0,-804.0,-323.0
13.0,-216.0,-117.0,18.0,-19.0,243.0,-30.0,-813.0,-316.0
13.0,-213.0,-120.0,15.0,-21.0,240.0,-34.0,-821.0,-314.0
15.0,-217.0,-113.0,8.0,-24.0,241.0,-34.0,-829.0,-300.0
11.0,-225.0,-111.0,0.0,-25.0,239.0,-32.0,-839.0,-299.0
11.0,-225.0,-111.0,-10.0,-23.0,241.0,-32.0,-848.0,-291.0
12.0,-232.0,-114.0,-17.0,-20.0,245.0,-35.0,-866.0,-284.0
14.0,-233.0,-108.0,-21.0,-19.0,251.0,-33.0,-883.0,-275.0
9.0,-236.0,-107.0,-24.0,-21.0,257.0,-38.0,-899.0,-266.0
9.0,-242.0,-107.0,-21.0,-24.0,264.0,-45.0,-912.0,-263.0
8.0,-243.0,-105.0,-17.0,-26.0,270.0,-47.0,-919.0,-252.0
6.0,-245.0,-99.0,-10.0,-23.0,278.0,-55.0,-925.0,-246.0
2.0,-245.0,-98.0,-7.0,-17.0,283.0,-66.0,-940.0,-232.0
1.0,-248.0,-94.0,-4.0,-9.0,287.0,-74.0,-935.0,-217.0
-2.0,-245.0,-89.0,-7.0,-1.0,291.0,-88.0,-942.0,-194.0
-3.0,-247.0,-86.0,-11.0,4.0,291.0,-97.0,-936.0,-192.0
-1.0,-245.0,-89.0,-17.0,8.0,289.0,-99.0,-940.0,-187.0
-1.0,-245.0,-87.0,-24.0,6.0,287.0,-92.0,-933.0,-186.0
-2.0,-243.0,-85.0,-31.0,4.0,283.0,-92.0,-928.0,-184.0
0.0,-241.0,-82.0,-38.0,5.0,278.0,-86.0,-922.0,-181.0
0.0,-240.0,-85.0,-42.0,6.0,273.0,-80.0,-919.0,-174.0
1.0,-238.0,-78.0,-45.0,11.0,266.0,-69.0,-912.0,-171.0
3.0,-236.0,-84.0,-50.0,18.0,256.0,-67.0,-902.0,-173.0
5.0,-237.0,-84.0,-58.0,23.0,248.0,-60.0,-902.0,-169.0
8.0,-238.0,-83.0,-67.0,28.0,238.0,-49.0,-891.0,-171.0
16.0,-235.0,-79.0,-80.0,34.0,229.0,-36.0,-904.0,-167.0
18.0,-236.0,-78.0,-92.0,41.0,222.0,-27.0,-891.0,-169.0
19.0,-233.0,-80.0,-104.0,48.0,213.0,-13.0,-891.0,-160.0
24.0,-235.0,-82.0,-116.0,56.0,206.0,0.0,-891.0,-167.0
24.0,-236.0,-86.0,-126.0,65.0,202.0,13.0,-892.0,-162.0
30.0,-238.0,-79.0,-134.0,80.0,199.0,21.0,-898.0,-167.0
28.0,-238.0,-82.0,-138.0,99.0,200.0,26.0,-909.0,-165.0
27.0,-248.0,-86.0,-142.0,120.0,200.0,36.0,-910.0,-169.0
28.0,-241.0,-80.0,-143.0,140.0,202.0,28.0,-910.0,-158.0
31.0,-242.0,-81.0,-146.0,162.0,202.0,27.0,-915.0,-169.0
31.0,-244.0,-79.0,-146.0,182.0,203.0,28.0,-917.0,-169.0
26.0,-241.0,-78.0,-144.0,201.0,202.0,22.0,-923.0,-165.0
31.0,-246.0,-86.0,-136.0,220.0,200.0,20.0,-925.0,-164.0
26.0,-246.0,-78.0,-123.0,237.0,195.0,16.0,-937.0,-158.0
23.0,-250.0,-79.0,-106.0,255.0,190.0,11.0,-946.0,-154.0
22.0,-254.0,-78.0,-85.0,275.0,185.0,3.0,-957.0,-147.0
26.0,-244.0,-81.0,-61.0,296.0,178.0,2.0,-969.0,-149.0
24.0,-261.0,-73.0,-37.0,321.0,171.0,11.0,-985.0,-141.0
27.0,-264.0,-72.0,-13.0,348.0,163.0,13.0,-997.0,-139.0
30.0,-267.0,-73.0,12.0,377.0,152.0,27.0,-1012.0,-128.0
35.0,-271.0,-63.0,36.0,406.0,142.0,35.0,-1026.0,-122.0
31.0,-273.0,-65.0,59.0,433.0,132.0,52.0,-1041.0,-115.0
36.0,-277.0,-66.0,82.0,457.0,118.0,52.0,-1048.0,-106.0
31.0,-274.0,-68.0,104.0,474.0,106.0,52.0,-1051.0,-106.0
29.0,-272.0,-69.0,121.0,483.0,93.0,37.0,-1051.0,-105.0
18.0,-276.0,-64.0,134.0,488.0,83.0,18.0,-1046.0,-98.0
22.0,-279.0,-63.0,143.0,494.0,81.0,-12.0,-1048.0,-98.0
10.0,-275.0,-64.0,149.0,505.0,82.0,-39.0,-1061.0,-93.0
5.0,-277.0,-66.0,151.0,521.0,90.0,-60.0,-1059.0,-93.0
2.0,-276.0,-61.0,149.0,540.0,102.0,-80.0,-1060.0,-87.0
-5.0,-281.0,-66.0,146.0,561.0,115.0,-93.0,-1064.0,-78.0
-4.0,-277.0,-55.0,141.0,580.0,125.0,-97.0,-1065.0,-59.0
-1.0,-279.0,-50.0,138.0,603.0,137.0,-99.0,-1064.0,-41.0
-2.0,-278.0,-48.0,142.0,627.0,145.0,-101.0,-1064.0,-26.0
0.0,-276.0,-47.0,152.0,650.0,152.0,-80.0,-1067.0,-10.0
2.0,-280.0,-37.0,163.0,668.0,159.0,-81.0,-1067.0,8.0
6.0,-279.0,-31.0,175.0,685.0,163.0,-55.0,-1065.0,31.0
11.0,-277.0,-30.0,188.0,699.0,167.0,-55.0,-1063.0,48.0
9.0,-276.0,-29.0,197.0,707.0,175.0,-45.0,-1061.0,56.0
18.0,-282.0,-34.0,200.0,717.0,181.0,-33.0,-1059.0,59.0
14.0,-274.0,-31.0,189.0,723.0,187.0,-28.0,-1056.0,45.0
15.0,-273.0,-41.0,172.0,728.0,190.0,-22.0,-1058.0,18.0
17.0,-278.0,-50.0,143.0,733.0,195.0,-18.0,-1066.0,-26.0
15.0,-283.0,-64.0,104.0,735.0,198.0,-18.0,-1086.0,-77.0
14.0,-289.0,-72.0,52.0,738.0,207.0,-24.0,-1123.0,-142.0
10.0,-303.0,-90.0,-10.0,743.0,217.0,-39.0,-1161.0,-199.0
5.0,-317.0,-105.0,-78.0,747.0,233.0,-66.0,-1216.0,-260.0
0.0,-330.0,-118.0,-142.0,751.0,252.0,-80.0,-1262.0,-305.0
-4.0,-339.0,-127.0,-193.0,754.0,274.0,-97.0,-1298.0,-342.0
-9.0,-347.0,-129.0,-220.0,746.0,293.0,-120.0,-1325.0,-377.0
-15.0,-352.0,-138.0,-218.0,732.0,311.0,-137.0,-1341.0,-409.0
-15.0,-353.0,-145.0,-191.0,705.0,324.0,-151.0,-1334.0,-435.0
-21.0,-344.0,-152.0,-145.0,668.0,335.0,-160.0,-1314.0,-458.0
-19.0,-340.0,-164.0,-88.0,624.0,342.0,-156.0,-1292.0,-493.0
-14.0,-332.0,-170.0,-31.0,581.0,340.0,-145.0,-1267.0,-533.0
-6.0,-321.0,-182.0,22.0,545.0,334.0,-108.0,-1223.0,-570.0
2.0,-313.0,-190.0,64.0,515.0,323.0,-75.0,-1179.0,-596.0
12.0,-298.0,-193.0,95.0,487.0,310.0,-37.0,-1143.0,-618.0
24.0,-288.0,-194.0,113.0,464.0,297.0,-2.0,-1094.0,-628.0
31.0,-276.0,-200.0,127.0,447.0,291.0,22.0,-1033.0,-640.0
35.0,-261.0,-202.0,134.0,433.0,288.0,57.0,-984.0,-639.0
47.0,-250.0,-197.0,139.0,432.0,286.0,79.0,-931.0,-643.0
50.0,-236.0,-195.0,139.0,436.0,282.0,106.0,-877.0,-640.0
55.0,-223.0,-194.0,141.0,448.0,275.0,123.0,-823.0,-624.0
59.0,-209.0,-191.0,146.0,464.0,266.0,130.0,-782.0,-605.0
58.0,-203.0,-185.0,161.0,490.0,250.0,135.0,-753.0,-577.0
56.0,-196.0,-179.0,185.0,524.0,232.0,129.0,-722.0,-553.0
57.0,-192.0,-167.0,205.0,567.0,209.0,117.0,-707.0,-521.0
52.0,-189.0,-166.0,221.0,611.0,179.0,113.0,-699.0,-488.0
55.0,-187.0,-162.0,227.0,654.0,144.0,113.0,-694.0,-478.0
52.0,-185.0,-157.0,217.0,689.0,110.0,103.0,-695.0,-462.0
50.0,-188.0,-150.0,193.0,717.0,78.0,105.0,-709.0,-453.0
48.0,-192.0,-148.0,154.0,737.0,45.0,93.0,-723.0,-443.0
40.0,-196.0,-144.0,105.0,746.0,16.0,73.0,-740.0,-437.0
28.0,-200.0,-142.0,52.0,745.0,-11.0,41.0,-762.0,-422.0
23.0,-208.0,-140.0,1.0,734.0,-32.0,8.0,-782.0,-412.0
10.0,-213.0,-143.0,-50.0,714.0,-50.0,-33.0,-804.0,-398.0
1.0,-219.0,-131.0,-96.0,684.0,-66.0,-66.0,-820.0,-381.0
-9.0,-224.0,-129.0,-141.0,643.0,-80.0,-108.0,-843.0,-364.0
-19.0,-232.0,-127.0,-184.0,593.0,-93.0,-152.0,-876.0,-348.0
-33.0,-239.0,-127.0,-226.0,540.0,-106.0,-186.0,-917.0,-336.0
-28.0,-232.0,-96.0,-263.0,484.0,-118.0,-222.0,-937.0,-327.0
-46.0,-252.0,-118.0,-298.0,431.0,-132.0,-253.0,-957.0,-323.0
-49.0,-255.0,-120.0,-324.0,384.0,-148.0,-270.0,-968.0,-320.0
-47.0,-257.0,-119.0,-342.0,341.0,-165.0,-272.0,-988.0,-314.0
-44.0,-258.0,-119.0,-351.0,300.0,-185.0,-251.0,-989.0,-318.0
-36.0,-260.0,-114.0,-352.0,268.0,-209.0,-225.0,-993.0,-318.0
-27.0,-260.0,-120.0,-339.0,239.0,-235.0,-196.0,-993.0,-321.0
-15.0,-258.0,-123.0,-317.0,213.0,-262.0,-153.0,-984.0,-321.0
-7.0,-257.0,-122.0,-292.0,190.0,-288.0,-109.0,-969.0,-319.0
8.0,-254.0,-121.0,-260.0,169.0,-313.0,-69.0,-958.0,-318.0
14.0,-247.0,-121.0,-230.0,149.0,-335.0,-34.0,-943.0,-324.0
23.0,-242.0,-121.0,-200.0,132.0,-352.0,-1.0,-924.0,-321.0
28.0,-240.0,-119.0,-172.0,117.0,-365.0,20.0,-909.0,-324.0
33.0,-237.0,-126.0,-145.0,106.0,-372.0,38.0,-887.0,-326.0
34.0,-234.0,-127.0,-126.0,97.0,-375.0,55.0,-884.0,-324.0
35.0,-232.0,-124.0,-110.0,89.0,-373.0,56.0,-875.0,-329.0
38.0,-231.0,-124.0,-101.0,82.0,-370.0,59.0,-871.0,-330.0
38.0,-230.0,-124.0,-100.0,77.0,-364.0,57.0,-861.0,-332.0
28.0,-226.0,-123.0,-105.0,74.0,-359.0,52.0,-859.0,-336.0
29.0,-225.0,-123.0,-116.0,74.0,-353.0,45.0,-855.0,-331.0
31.0,-227.0,-122.0,-127.0,77.0,-348.0,33.0,-862.0,-328.0
30.0,-228.0,-120.0,-140.0,81.0,-344.0,26.0,-865.0,-322.0
27.0,-230.0,-124.0,-151.0,82.0,-341.0,17.0,-869.0,-318.0
28.0,-229.0,-113.0,-161.0,83.0,-339.0,16.0,-867.0,-310.0
24.0,-232.0,-113.0,-170.0,83.0,-338.0,17.0,-869.0,-303.0
27.0,-230.0,-112.0,-182.0,83.0,-339.0,23.0,-874.0,-294.0
29.0,-231.0,-107.0,-188.0,82.0,-338.0,24.0,-876.0,-273.0
29.0,-234.0,-102.0,-188.0,78.0,-336.0,26.0,-884.0,-254.0
33.0,-238.0,-101.0,-181.0,72.0,-332.0,40.0,-891.0,-244.0
34.0,-241.0,-97.0,-169.0,62.0,-329.0,47.0,-898.0,-227.0
34.0,-239.0,-94.0,-153.0,51.0,-324.0,55.0,-907.0,-212.0
39.0,-240.0,-91.0,-135.0,36.0,-320.0,66.0,-906.0,-208.0
38.0,-234.0,-88.0,-119.0,22.0,-314.0,66.0,-893.0,-195.0
42.0,-236.0,-88.0,-102.0,10.0,-309.0,69.0,-891.0,-193.0
41.0,-239.0,-85.0,-90.0,-1.0,-301.0,75.0,-894.0,-177.0
37.0,-234.0,-84.0,-81.0,-12.0,-293.0,75.0,-886.0,-173.0
38.0,-232.0,-80.0,-77.0,-24.0,-288.0,70.0,-881.0,-167.0
38.0,-234.0,-79.0,-75.0,-34.0,-282.0,59.0,-880.0,-158.0
37.0,-230.0,-79.0,-75.0,-47.0,-276.0,54.0,-875.0,-152.0
32.0,-231.0,-80.0,-75.0,-57.0,-270.0,53.0,-871.0,-151.0
31.0,-230.0,-75.0,-81.0,-66.0,-265.0,47.0,-870.0,-148.0
30.0,-229.0,-74.0,-88.0,-74.0,-257.0,35.0,-865.0,-139.0
28.0,-227.0,-75.0,-99.0,-79.0,-247.0,30.0,-860.0,-143.0
29.0,-228.0,-78.0,-110.0,-81.0,-236.0,24.0,-857.0,-146.0
28.0,-226.0,-81.0,-123.0,-81.0,-225.0,18.0,-859.0,-153.0
23.0,-226.0,-79.0,-136.0,-85.0,-213.0,19.0,-852.0,-159.0
25.0,-228.0,-81.0,-146.0,-88.0,-200.0,14.0,-859.0,-160.0
28.0,-227.0,-81.0,-154.0,-93.0,-186.0,26.0,-860.0,-169.0
34.0,-232.0,-83.0,-159.0,-97.0,-172.0,40.0,-869.0,-169.0
31.0,-231.0,-84.0,-152.0,-103.0,-161.0,43.0,-880.0,-159.0
34.0,-234.0,-78.0,-139.0,-108.0,-148.0,58.0,-886.0,-161.0
36.0,-235.0,-80.0,-124.0,-114.0,-135.0,56.0,-888.0,-164.0
38.0,-238.0,-82.0,-103.0,-126.0,-119.0,60.0,-904.0,-159.0
37.0,-240.0,-74.0,-80.0,-138.0,-105.0,64.0,-910.0,-156.0
36.0,-245.0,-81.0,-56.0,-153.0,-89.0,60.0,-922.0,-152.0
39.0,-246.0,-76.0,-32.0,-165.0,-75.0,58.0,-937.0,-154.0
33.0,-248.0,-79.0,-10.0,-179.0,-63.0,58.0,-941.0,-149.0
30.0,-254.0,-80.0,13.0,-196.0,-52.0,54.0,-957.0,-145.0
29.0,-256.0,-71.0,39.0,-215.0,-38.0,38.0,-975.0,-136.0
26.0,-262.0,-71.0,68.0,-241.0,-29.0,25.0,-995.0,-117.0
27.0,-266.0,-70.0,101.0,-265.0,-19.0,15.0,-1013.0,-119.0
21.0,-268.0,-69.0,128.0,-290.0,-7.0,8.0,-1029.0,-113.0
22.0,-276.0,-67.0,148.0,-308.0,1.0,0.0,-1053.0,-113.0
20.0,-277.0,-68.0,165.0,-322.0,3.0,-4.0,-1058.0,-113.0
15.0,-275.0,-69.0,174.0,-333.0,4.0,-9.0,-1062.0,-111.0
17.0,-276.0,-68.0,182.0,-341.0,7.0,-15.0,-1063.0,-114.0
18.0,-278.0,-71.0,185.0,-343.0,4.0,-11.0,-1056.0,-114.0
22.0,-276.0,-66.0,187.0,-341.0,1.0,-5.0,-1054.0,-109.0
22.0,-275.0,-66.0,189.0,-341.0,-3.0,4.0,-1059.0,-95.0
24.0,-276.0,-66.0,193.0,-347.0,-9.0,14.0,-1055.0,-90.0
29.0,-278.0,-57.0,198.0,-355.0,-16.0,30.0,-1049.0,-83.0
32.0,-272.0,-57.0,204.0,-365.0,-22.0,50.0,-1046.0,-76.0
39.0,-274.0,-57.0,213.0,-374.0,-28.0,72.0,-1049.0,-72.0
50.0,-272.0,-53.0,223.0,-376.0,-33.0,91.0,-1044.0,-54.0
52.0,-276.0,-46.0,235.0,-373.0,-39.0,115.0,-1056.0,-26.0
56.0,-278.0,-48.0,249.0,-367.0,-46.0,133.0,-1053.0,-11.0
62.0,-274.0,-40.0,265.0,-358.0,-58.0,155.0,-1059.0,3.0
68.0,-276.0,-39.0,273.0,-345.0,-73.0,172.0,-1063.0,19.0
67.0,-278.0,-28.0,273.0,-331.0,-90.0,186.0,-1067.0,38.0
69.0,-280.0,-26.0,269.0,-314.0,-109.0,190.0,-1069.0,55.0
67.0,-277.0,-24.0,260.0,-298.0,-128.0,185.0,-1071.0,66.0
71.0,-279.0,-19.0,244.0,-278.0,-145.0,182.0,-1079.0,82.0
63.0,-277.0,-17.0,217.0,-250.0,-155.0,175.0,-1075.0,73.0
63.0,-277.0,-21.0,184.0,-225.0,-169.0,149.0,-1065.0,64.0
55.0,-276.0,-24.0,147.0,-204.0,-178.0,134.0,-1064.0,56.0
47.0,-276.0,-35.0,107.0,-191.0,-183.0,105.0,-1058.0,30.0
43.0,-273.0,-41.0,65.0,-187.0,-187.0,86.0,-1063.0,2.0
35.0,-268.0,-48.0,21.0,-191.0,-188.0,59.0,-1063.0,-40.0
33.0,-280.0,-61.0,-29.0,-205.0,-186.0,50.0,-1074.0,-86.0
31.0,-284.0,-75.0,-84.0,-227.0,-185.0,42.0,-1103.0,-131.0
27.0,-295.0,-87.0,-138.0,-255.0,-182.0,33.0,-1133.0,-177.0
30.0,-308.0,-95.0,-185.0,-284.0,-179.0,32.0,-1171.0,-222.0
30.0,-319.0,-107.0,-217.0,-301.0,-173.0,31.0,-1204.0,-265.0
33.0,-323.0,-113.0,-232.0,-305.0,-166.0,47.0,-1241.0,-306.0
39.0,-334.0,-125.0,-233.0,-294.0,-159.0,59.0,-1277.0,-342.0
45.0,-338.0,-134.0,-221.0,-272.0,-157.0,81.0,-1290.0,-378.0
54.0,-338.0,-141.0,-200.0,-236.0,-161.0,111.0,-1299.0,-418.0
62.0,-348.0,-152.0,-174.0,-192.0,-169.0,144.0,-1304.0,-455.0
70.0,-341.0,-166.0,-150.0,-149.0,-183.0,174.0,-1303.0,-493.0
66.0,-339.0,-175.0,-131.0,-108.0,-202.0,186.0,-1299.0,-541.0
67.0,-335.0,-184.0,-119.0,-75.0,-220.0,179.0,-1283.0,-576.0
64.0,-329.0,-191.0,-115.0,-49.0,-245.0,151.0,-1244.0,-614.0
55.0,-319.0,-197.0,-118.0,-30.0,-271.0,127.0,-1212.0,-642.0
42.0,-310.0,-203.0,-122.0,-14.0,-300.0,94.0,-1172.0,-674.0
27.0,-300.0,-206.0,-114.0,-10.0,-329.0,37.0,-1138.0,-689.0
20.0,-283.0,-210.0,-102.0,-12.0,-360.0,-1.0,-1094.0,-704.0
11.0,-270.0,-211.0,-92.0,-10.0,-391.0,-32.0,-1031.0,-710.0
4.0,-256.0,-215.0,-85.0,-16.0,-421.0,-60.0,-970.0,-709.0
-2.0,-241.0,-210.0,-71.0,-32.0,-444.0,-102.0,-906.0,-698.0
-12.0,-220.0,-201.0,-49.0,-55.0,-456.0,-126.0,-828.0,-664.0
-16.0,-206.0,-193.0,-14.0,-82.0,-455.0,-146.0,-766.0,-628.0
-22.0,-190.0,-181.0,30.0,-112.0,-437.0,-172.0,-708.0,-586.0
-24.0,-180.0,-174.0,69.0,-144.0,-404.0,-174.0,-669.0,-558.0
-22.0,-173.0,-173.0,106.0,-181.0,-362.0,-174.0,-642.0,-527.0
-23.0,-169.0,-161.0,127.0,-218.0,-311.0,-172.0,-632.0,-494.0
-23.0,-175.0,-150.0,137.0,-244.0,-257.0,-174.0,-644.0,-452.0
-20.0,-179.0,-147.0,135.0,-271.0,-198.0,-158.0,-667.0,-437.0
-10.0,-187.0,-142.0,122.0,-297.0,-136.0,-121.0,-699.0,-415.0
-1.0,-192.0,-141.0,95.0,-323.0,-82.0,-85.0,-729.0,-408.0
5.0,-204.0,-136.0,59.0,-343.0,-32.0,-55.0,-764.0,-387.0
14.0,-210.0,-132.0,22.0,-354.0,12.0,-27.0,-804.0,-379.0
25.0,-217.0,-130.0,-10.0,-350.0,45.0,18.0,-843.0,-373.0
37.0,-231.0,-133.0,-41.0,-334.0,71.0,62.0,-877.0,-369.0
50.0,-240.0,-134.0,-70.0,-311.0,90.0,100.0,-918.0,-377.0
59.0,-249.0,-130.0,-103.0,-286.0,104.0,135.0,-948.0,-375.0
64.0,-255.0,-131.0,-138.0,-256.0,113.0,171.0,-976.0,-372.0
72.0,-262.0,-128.0,-175.0,-224.0,117.0,196.0,-1002.0,-362.0
74.0,-266.0,-127.0,-207.0,-192.0,124.0,210.0,-1018.0,-363.0
75.0,-269.0,-129.0,-234.0,-163.0,133.0,211.0,-1032.0,-357.0
77.0,-273.0,-129.0,-251.0,-133.0,143.0,211.0,-1032.0,-351.0
72.0,-270.0,-129.0,-262.0,-100.0,156.0,195.0,-1032.0,-348.0
67.0,-262.0,-128.0,-264.0,-68.0,169.0,177.0,-1008.0,-349.0
61.0,-259.0,-127.0,-255.0,-37.0,186.0,150.0,-992.0,-350.0
55.0,-258.0,-127.0,-237.0,-9.0,206.0,112.0,-964.0,-340.0
41.0,-253.0,-123.0,-212.0,9.0,226.0,77.0,-942.0,-331.0
32.0,-245.0,-124.0,-180.0,23.0,243.0,43.0,-923.0,-324.0
29.0,-245.0,-119.0,-148.0,38.0,262.0,19.0,-914.0,-310.0
17.0,-238.0,-120.0,-113.0,49.0,278.0,-12.0,-890.0,-309.0
13.0,-233.0,-115.0,-80.0,55.0,287.0,-40.0,-876.0,-303.0
8.0,-231.0,-118.0,-53.0,62.0,294.0,-53.0,-865.0,-299.0
1.0,-230.0,-113.0,-30.0,69.0,296.0,-74.0,-863.0,-297.0
-2.0,-228.0,-112.0,-16.0,75.0,296.0,-93.0,-860.0,-292.0
0.0,-232.0,-113.0,-6.0,76.0,296.0,-93.0,-876.0,-284.0
-3.0,-233.0,-112.0,0.0,76.0,295.0,-97.0,-876.0,-281.0
-1.0,-231.0,-106.0,-1.0,72.0,292.0,-90.0,-889.0,-275.0
1.0,-235.0,-105.0,-5.0,65.0,290.0,-79.0,-887.0,-268.0
3.0,-238.0,-106.0,-17.0,60.0,287.0,-64.0,-890.0,-257.0
6.0,-237.0,-108.0,-29.0,48.0,286.0,-56.0,-906.0,-255.0
10.0,-242.0,-103.0,-40.0,31.0,287.0,-50.0,-910.0,-251.0
12.0,-241.0,-103.0,-52.0,15.0,291.0,-42.0,-916.0,-246.0
14.0,-243.0,-93.0,-65.0,4.0,293.0,-33.0,-917.0,-240.0
21.0,-227.0,-119.0,-76.0,-4.0,297.0,-20.0,-921.0,-233.0
14.0,-242.0,-94.0,-85.0,-7.0,300.0,-16.0,-911.0,-224.0
11.0,-240.0,-93.0,-94.0,-5.0,305.0,-33.0,-913.0,-205.0
9.0,-240.0,-89.0,-98.0,-3.0,309.0,-42.0,-916.0,-202.0
7.0,-237.0,-87.0,-102.0,2.0,312.0,-53.0,-914.0,-191.0
8.0,-241.0,-88.0,-105.0,16.0,313.0,-60.0,-904.0,-192.0
8.0,-236.0,-89.0,-110.0,29.0,312.0,-63.0,-897.0,-193.0
3.0,-236.0,-86.0,-113.0,42.0,310.0,-62.0,-888.0,-190.0
3.0,-236.0,-84.0,-115.0,54.0,305.0,-61.0,-892.0,-187.0
6.0,-238.0,-85.0,-111.0,64.0,299.0,-67.0,-903.0,-188.0
10.0,-240.0,-85.0,-101.0,76.0,293.0,-57.0,-911.0,-189.0
13.0,-239.0,-83.0,-85.0,90.0,288.0,-42.0,-915.0,-182.0
15.0,-240.0,-84.0,-68.0,106.0,281.0,-26.0,-906.0,-176.0
20.0,-239.0,-83.0,-50.0,123.0,273.0,-12.0,-908.0,-173.0
25.0,-240.0,-80.0,-38.0,140.0,268.0,-1.0,-907.0,-167.0
27.0,-237.0,-81.0,-29.0,158.0,261.0,14.0,-900.0,-159.0
29.0,-236.0,-79.0,-26.0,175.0,254.0,31.0,-901.0,-155.0
30.0,-237.0,-78.0,-27.0,189.0,246.0,40.0,-897.0,-154.0
31.0,-233.0,-79.0,-37.0,201.0,239.0,46.0,-888.0,-154.0
34.0,-233.0,-75.0,-46.0,210.0,235.0,45.0,-879.0,-155.0
30.0,-232.0,-73.0,-55.0,218.0,230.0,42.0,-881.0,-153.0
31.0,-231.0,-76.0,-63.0,225.0,227.0,27.0,-874.0,-150.0
27.0,-232.0,-77.0,-71.0,233.0,222.0,15.0,-876.0,-145.0
23.0,-231.0,-76.0,-71.0,241.0,217.0,8.0,-877.0,-147.0
21.0,-231.0,-74.0,-71.0,249.0,212.0,-2.0,-874.0,-139.0
17.0,-234.0,-71.0,-70.0,259.0,205.0,-12.0,-884.0,-131.0
13.0,-234.0,-78.0,-65.0,268.0,198.0,-28.0,-886.0,-131.0
12.0,-239.0,-70.0,-58.0,276.0,192.0,-36.0,-902.0,-129.0
10.0,-242.0,-69.0,-54.0,284.0,185.0,-37.0,-921.0,-129.0
10.0,-250.0,-68.0,-45.0,294.0,177.0,-39.0,-932.0,-118.0
13.0,-250.0,-65.0,-33.0,304.0,170.0,-36.0,-953.0,-112.0
13.0,-256.0,-66.0,-19.0,316.0,163.0,-35.0,-967.0,-97.0
11.0,-260.0,-68.0,-4.0,329.0,159.0,-31.0,-990.0,-101.0
15.0,-263.0,-66.0,14.0,342.0,154.0,-22.0,-999.0,-101.0
22.0,-264.0,-66.0,32.0,354.0,145.0,-1.0,-1003.0,-99.0
19.0,-263.0,-65.0,58.0,367.0,133.0,-3.0,-1004.0,-98.0
21.0,-265.0,-65.0,85.0,380.0,121.0,0.0,-997.0,-100.0
18.0,-267.0,-66.0,108.0,394.0,109.0,-11.0,-996.0,-95.0
18.0,-260.0,-68.0,127.0,404.0,101.0,-15.0,-990.0,-104.0
18.0,-258.0,-69.0,134.0,414.0,93.0,-25.0,-990.0,-97.0
11.0,-258.0,-64.0,141.0,427.0,90.0,-27.0,-996.0,-91.0
11.0,-260.0,-64.0,145.0,442.0,87.0,-38.0,-1001.0,-92.0
10.0,-264.0,-64.0,145.0,460.0,85.0,-52.0,-1003.0,-90.0
6.0,-261.0,-63.0,139.0,478.0,84.0,-63.0,-1005.0,-86.0
5.0,-261.0,-63.0,133.0,493.0,84.0,-70.0,-1001.0,-78.0
0.0,-260.0,-57.0,124.0,503.0,85.0,-77.0,-1000.0,-74.0
0.0,-263.0,-59.0,118.0,506.0,90.0,-95.0,-1003.0,-64.0
-4.0,-263.0,-56.0,112.0,507.0,96.0,-105.0,-1006.0,-47.0
-6.0,-266.0,-47.0,108.0,508.0,107.0,-105.0,-1011.0,-29.0
-5.0,-269.0,-50.0,111.0,509.0,118.0,-110.0,-1023.0,-14.0
-5.0,-273.0,-37.0,115.0,515.0,128.0,-109.0,-1038.0,12.0
-3.0,-275.0,-31.0,126.0,526.0,140.0,-98.0,-1049.0,34.0
1.0,-277.0,-24.0,138.0,541.0,151.0,-81.0,-1063.0,53.0
6.0,-278.0,-18.0,148.0,559.0,161.0,-57.0,-1068.0,79.0
17.0,-278.0,-16.0,157.0,579.0,170.0,-22.0,-1070.0,95.0
27.0,-277.0,-13.0,158.0,596.0,173.0,23.0,-1066.0,100.0
38.0,-273.0,-18.0,155.0,609.0,171.0,66.0,-1059.0,91.0
47.0,-273.0,-25.0,148.0,621.0,165.0,93.0,-1052.0,69.0
58.0,-273.0,-34.0,136.0,636.0,156.0,129.0,-1037.0,39.0
63.0,-270.0,-43.0,124.0,662.0,140.0,151.0,-1027.0,-1.0
63.0,-269.0,-53.0,111.0,700.0,126.0,162.0,-1031.0,-50.0
60.0,-273.0,-65.0,96.0,752.0,113.0,161.0,-1043.0,-95.0
63.0,-280.0,-81.0,75.0,810.0,101.0,156.0,-1065.0,-139.0
56.0,-291.0,-85.0,51.0,870.0,88.0,129.0,-1103.0,-195.0
43.0,-302.0,-96.0,22.0,918.0,81.0,92.0,-1153.0,-232.0
30.0,-318.0,-113.0,-12.0,947.0,83.0,45.0,-1202.0,-274.0
15.0,-330.0,-125.0,-40.0,959.0,91.0,-23.0,-1259.0,-323.0
1.0,-340.0,-133.0,-65.0,956.0,110.0,-84.0,-1309.0,-380.0
-18.0,-350.0,-148.0,-82.0,943.0,137.0,-146.0,-1345.0,-451.0
-35.0,-357.0,-160.0,-92.0,916.0,169.0,-207.0,-1370.0,-497.0
-52.0,-360.0,-172.0,-96.0,872.0,208.0,-279.0,-1381.0,-544.0
-60.0,-362.0,-187.0,-100.0,817.0,249.0,-309.0,-1394.0,-591.0
-64.0,-362.0,-194.0,-103.0,757.0,293.0,-310.0,-1392.0,-636.0
-61.0,-361.0,-202.0,-102.0,701.0,332.0,-305.0,-1375.0,-676.0
-55.0,-352.0,-211.0,-98.0,646.0,364.0,-277.0,-1338.0,-704.0
-40.0,-337.0,-218.0,-86.0,587.0,387.0,-225.0,-1283.0,-737.0
-17.0,-318.0,-226.0,-66.0,521.0,403.0,-161.0,-1206.0,-761.0
0.0,-300.0,-233.0,-38.0,454.0,410.0,-85.0,-1131.0,-779.0
12.0,-278.0,-231.0,-8.0,393.0,413.0,-38.0,-1053.0,-785.0
29.0,-259.0,-231.0,24.0,341.0,414.0,20.0,-975.0,-772.0
39.0,-247.0,-223.0,53.0,303.0,406.0,68.0,-925.0,-750.0
53.0,-230.0,-214.0,80.0,279.0,391.0,101.0,-864.0,-712.0
62.0,-218.0,-208.0,110.0,273.0,367.0,136.0,-808.0,-668.0
64.0,-202.0,-188.0,144.0,279.0,332.0,158.0,-764.0,-607.0
71.0,-191.0,-175.0,174.0,297.0,287.0,183.0,-719.0,-558.0
74.0,-185.0,-167.0,201.0,322.0,235.0,203.0,-686.0,-516.0
73.0,-179.0,-158.0,219.0,351.0,182.0,205.0,-676.0,-488.0
71.0,-181.0,-157.0,219.0,379.0,132.0,197.0,-684.0,-463.0
68.0,-190.0,-151.0,203.0,404.0,85.0,180.0,-702.0,-445.0
58.0,-191.0,-145.0,174.0,424.0,44.0,152.0,-720.0,-432.0
49.0,-200.0,-143.0,136.0,434.0,5.0,104.0,-749.0,-407.0
34.0,-209.0,-131.0,92.0,433.0,-23.0,57.0,-788.0,-392.0
20.0,-215.0,-129.0,47.0,417.0,-60.0,4.0,-813.0,-370.0
2.0,-224.0,-128.0,-1.0,390.0,-96.0,-60.0,-844.0,-351.0
-14.0,-229.0,-126.0,-46.0,356.0,-128.0,-122.0,-864.0,-332.0
-28.0,-232.0,-123.0,-89.0,313.0,-159.0,-171.0,-885.0,-327.0
-44.0,-237.0,-116.0,-132.0,267.0,-187.0,-226.0,-901.0,-317.0
-56.0,-242.0,-123.0,-171.0,211.0,-214.0,-281.0,-917.0,-309.0
-64.0,-243.0,-114.0,-206.0,150.0,-242.0,-319.0,-921.0,-308.0
-69.0,-244.0,-114.0,-237.0,89.0,-267.0,-343.0,-926.0,-298.0
-69.0,-241.0,-110.0,-263.0,27.0,-290.0,-352.0,-924.0,-292.0
-65.0,-242.0,-116.0,-283.0,-31.0,-313.0,-336.0,-919.0,-288.0
-59.0,-239.0,-110.0,-300.0,-83.0,-340.0,-306.0,-919.0,-291.0
-47.0,-240.0,-111.0,-310.0,-128.0,-367.0,-262.0,-913.0,-291.0
-29.0,-242.0,-111.0,-314.0,-166.0,-396.0,-206.0,-916.0,-276.0
-12.0,-241.0,-110.0,-312.0,-200.0,-422.0,-128.0,-910.0,-278.0
2.0,-238.0,-112.0,-304.0,-227.0,-441.0,-70.0,-897.0,-272.0
14.0,-236.0,-109.0,-300.0,-251.0,-456.0,-26.0,-884.0,-275.0
26.0,-230.0,-104.0,-295.0,-272.0,-463.0,23.0,-872.0,-273.0
34.0,-227.0,-111.0,-289.0,-289.0,-465.0,56.0,-876.0,-282.0
43.0,-229.0,-110.0,-281.0,-302.0,-465.0,92.0,-864.0,-285.0
51.0,-229.0,-113.0,-265.0,-312.0,-460.0,119.0,-859.0,-284.0
57.0,-229.0,-105.0,-243.0,-315.0,-454.0,149.0,-861.0,-278.0
64.0,-230.0,-111.0,-219.0,-315.0,-447.0,163.0,-863.0,-279.0
66.0,-230.0,-108.0,-202.0,-311.0,-439.0,169.0,-864.0,-279.0
66.0,-233.0,-108.0,-188.0,-303.0,-430.0,171.0,-871.0,-274.0
64.0,-230.0,-108.0,-175.0,-294.0,-424.0,166.0,-875.0,-271.0
66.0,-235.0,-104.0,-168.0,-282.0,-417.0,162.0,-883.0,-266.0
57.0,-229.0,-102.0,-167.0,-267.0,-409.0,135.0,-871.0,-262.0
50.0,-229.0,-103.0,-168.0,-250.0,-402.0,115.0,-867.0,-263.0
47.0,-229.0,-107.0,-168.0,-231.0,-395.0,95.0,-868.0,-260.0
46.0,-226.0,-108.0,-174.0,-209.0,-393.0,83.0,-862.0,-267.0
44.0,-228.0,-107.0,-182.0,-192.0,-392.0,85.0,-858.0,-255.0
45.0,-225.0,-103.0,-193.0,-169.0,-390.0,89.0,-855.0,-238.0
44.0,-230.0,-96.0,-202.0,-145.0,-382.0,87.0,-859.0,-218.0
40.0,-227.0,-91.0,-203.0,-128.0,-372.0,74.0,-861.0,-210.0
37.0,-229.0,-93.0,-198.0,-123.0,-364.0,65.0,-867.0,-206.0
30.0,-228.0,-93.0,-187.0,-130.0,-356.0,46.0,-859.0,-208.0
26.0,-234.0,-90.0,-179.0,-143.0,-347.0,16.0,-872.0,-201.0
24.0,-230.0,-90.0,-171.0,-165.0,-335.0,35.0,-868.0,-198.0
19.0,-234.0,-89.0,-158.0,-182.0,-325.0,4.0,-884.0,-187.0
22.0,-241.0,-84.0,-143.0,-208.0,-310.0,-2.0,-913.0,-189.0
25.0,-237.0,-85.0,-119.0,-234.0,-298.0,15.0,-906.0,-189.0
30.0,-238.0,-81.0,-107.0,-249.0,-287.0,41.0,-894.0,-176.0
36.0,-234.0,-85.0,-101.0,-253.0,-276.0,53.0,-896.0,-165.0
37.0,-238.0,-79.0,-97.0,-251.0,-262.0,62.0,-901.0,-152.0
40.0,-239.0,-81.0,-94.0,-249.0,-245.0,69.0,-910.0,-160.0
40.0,-241.0,-82.0,-96.0,-249.0,-228.0,72.0,-915.0,-158.0
43.0,-241.0,-77.0,-100.0,-250.0,-212.0,74.0,-916.0,-162.0
42.0,-239.0,-84.0,-103.0,-245.0,-199.0,77.0,-917.0,-158.0
44.0,-238.0,-79.0,-106.0,-238.0,-186.0,80.0,-906.0,-152.0
42.0,-236.0,-77.0,-108.0,-232.0,-174.0,82.0,-914.0,-148.0
42.0,-239.0,-76.0,-111.0,-227.0,-162.0,81.0,-911.0,-140.0
43.0,-238.0,-73.0,-113.0,-223.0,-152.0,80.0,-913.0,-130.0
42.0,-240.0,-72.0,-114.0,-216.0,-140.0,79.0,-917.0,-128.0
41.0,-238.0,-76.0,-111.0,-206.0,-130.0,79.0,-917.0,-129.0
40.0,-241.0,-71.0,-108.0,-198.0,-120.0,76.0,-920.0,-128.0
39.0,-243.0,-73.0,-103.0,-192.0,-110.0,65.0,-925.0,-126.0
38.0,-247.0,-68.0,-95.0,-188.0,-100.0,58.0,-926.0,-118.0
36.0,-247.0,-67.0,-83.0,-186.0,-88.0,53.0,-930.0,-123.0
30.0,-249.0,-66.0,-68.0,-188.0,-77.0,32.0,-945.0,-112.0
29.0,-252.0,-66.0,-47.0,-197.0,-61.0,27.0,-960.0,-95.0
26.0,-258.0,-62.0,-19.0,-207.0,-48.0,14.0,-972.0,-86.0
20.0,-259.0,-61.0,12.0,-222.0,-35.0,9.0,-996.0,-82.0
21.0,-267.0,-61.0,44.0,-241.0,-24.0,2.0,-1013.0,-77.0
19.0,-271.0,-62.0,73.0,-260.0,-14.0,3.0,-1025.0,-76.0
19.0,-273.0,-61.0,99.0,-277.0,-8.0,1.0,-1036.0,-88.0
22.0,-274.0,-63.0,120.0,-288.0,-5.0,4.0,-1047.0,-83.0
17.0,-279.0,-60.0,137.0,-299.0,-1.0,-7.0,-1062.0,-84.0
20.0,-282.0,-63.0,149.0,-308.0,4.0,-12.0,-1073.0,-79.0
22.0,-285.0,-60.0,162.0,-317.0,5.0,-2.0,-1073.0,-72.0
24.0,-282.0,-60.0,172.0,-329.0,6.0,7.0,-1076.0,-65.0
30.0,-285.0,-56.0,177.0,-336.0,6.0,25.0,-1085.0,-66.0
31.0,-289.0,-47.0,178.0,-336.0,3.0,45.0,-1077.0,-77.0
36.0,-279.0,-62.0,169.0,-331.0,0.0,59.0,-1073.0,-80.0
43.0,-272.0,-61.0,157.0,-324.0,-6.0,76.0,-1056.0,-83.0
48.0,-268.0,-66.0,139.0,-319.0,-13.0,91.0,-1028.0,-89.0
51.0,-263.0,-64.0,119.0,-316.0,-22.0,100.0,-1011.0,-86.0
50.0,-262.0,-62.0,100.0,-318.0,-28.0,104.0,-998.0,-79.0
47.0,-259.0,-47.0,88.0,-322.0,-33.0,111.0,-988.0,-49.0
46.0,-264.0,-42.0,87.0,-327.0,-36.0,101.0,-991.0,-10.0
45.0,-263.0,-30.0,96.0,-332.0,-40.0,93.0,-1002.0,27.0
45.0,-269.0,-23.0,112.0,-338.0,-45.0,90.0,-1022.0,72.0
42.0,-277.0,-20.0,126.0,-347.0,-57.0,75.0,-1047.0,89.0
33.0,-283.0,-15.0,131.0,-352.0,-70.0,58.0,-1085.0,106.0
26.0,-288.0,-13.0,124.0,-362.0,-90.0,39.0,-1115.0,106.0
28.0,-294.0,-20.0,103.0,-371.0,-112.0,19.0,-1135.0,75.0
21.0,-297.0,-36.0,56.0,-384.0,-137.0,6.0,-1146.0,24.0
21.0,-301.0,-58.0,-8.0,-399.0,-168.0,5.0,-1161.0,-45.0
20.0,-307.0,-76.0,-86.0,-421.0,-199.0,4.0,-1182.0,-129.0
18.0,-314.0,-98.0,-176.0,-452.0,-227.0,4.0,-1200.0,-223.0
23.0,-320.0,-117.0,-276.0,-487.0,-252.0,10.0,-1225.0,-310.0
26.0,-326.0,-133.0,-365.0,-515.0,-274.0,27.0,-1263.0,-385.0
36.0,-337.0,-148.0,-425.0,-530.0,-297.0,53.0,-1286.0,-437.0
50.0,-348.0,-155.0,-446.0,-525.0,-316.0,96.0,-1318.0,-469.0
61.0,-353.0,-165.0,-421.0,-503.0,-337.0,135.0,-1341.0,-492.0
74.0,-357.0,-170.0,-369.0,-465.0,-361.0,181.0,-1358.0,-511.0
81.0,-358.0,-175.0,-303.0,-412.0,-386.0,220.0,-1358.0,-547.0
82.0,-347.0,-183.0,-240.0,-354.0,-412.0,251.0,-1329.0,-569.0
90.0,-335.0,-188.0,-185.0,-292.0,-437.0,252.0,-1277.0,-613.0
86.0,-319.0,-202.0,-143.0,-235.0,-456.0,240.0,-1197.0,-661.0
73.0,-293.0,-212.0,-121.0,-182.0,-460.0,202.0,-1118.0,-704.0
63.0,-267.0,-222.0,-119.0,-135.0,-455.0,154.0,-1025.0,-743.0
54.0,-246.0,-229.0,-126.0,-94.0,-443.0,118.0,-940.0,-761.0
47.0,-231.0,-233.0,-137.0,-58.0,-432.0,91.0,-858.0,-774.0
38.0,-214.0,-226.0,-147.0,-27.0,-429.0,75.0,-803.0,-764.0
37.0,-206.0,-222.0,-153.0,-12.0,-436.0,51.0,-758.0,-742.0
25.0,-196.0,-214.0,-148.0,-19.0,-449.0,11.0,-736.0,-710.0
13.0,-196.0,-200.0,-139.0,-45.0,-461.0,-23.0,-730.0,-665.0
9.0,-195.0,-189.0,-132.0,-80.0,-465.0,-43.0,-737.0,-621.0
3.0,-198.0,-181.0,-129.0,-123.0,-461.0,-58.0,-749.0,-579.0
0.0,-202.0,-173.0,-128.0,-172.0,-447.0,-66.0,-758.0,-544.0
-2.0,-206.0,-165.0,-133.0,-222.0,-418.0,-87.0,-773.0,-506.0
-1.0,-211.0,-163.0,-140.0,-271.0,-375.0,-101.0,-797.0,-487.0
-9.0,-221.0,-156.0,-147.0,-316.0,-322.0,-113.0,-828.0,-472.0
-11.0,-227.0,-152.0,-162.0,-349.0,-261.0,-130.0,-856.0,-456.0
-13.0,-232.0,-149.0,-180.0,-369.0,-200.0,-139.0,-884.0,-443.0
-6.0,-242.0,-147.0,-198.0,-378.0,-137.0,-127.0,-911.0,-437.0
-1.0,-244.0,-147.0,-220.0,-379.0,-81.0,-104.0,-927.0,-439.0
4.0,-248.0,-152.0,-244.0,-372.0,-27.0,-60.0,-937.0,-450.0
14.0,-246.0,-154.0,-265.0,-360.0,18.0,-17.0,-946.0,-453.0
31.0,-251.0,-158.0,-290.0,-347.0,57.0,30.0,-949.0,-463.0
45.0,-248.0,-158.0,-317.0,-339.0,84.0,80.0,-946.0,-479.0
56.0,-249.0,-160.0,-345.0,-328.0,100.0,134.0,-938.0,-498.0
66.0,-245.0,-166.0,-382.0,-321.0,108.0,172.0,-924.0,-501.0
69.0,-241.0,-167.0,-417.0,-313.0,112.0,200.0,-914.0,-511.0
77.0,-240.0,-170.0,-447.0,-303.0,110.0,219.0,-904.0,-510.0
78.0,-237.0,-164.0,-463.0,-292.0,106.0,225.0,-889.0,-502.0
79.0,-238.0,-157.0,-466.0,-283.0,99.0,213.0,-879.0,-485.0
73.0,-232.0,-158.0,-454.0,-267.0,95.0,194.0,-870.0,-469.0
67.0,-234.0,-149.0,-430.0,-252.0,95.0,171.0,-870.0,-450.0
62.0,-228.0,-146.0,-393.0,-237.0,99.0,138.0,-855.0,-429.0
53.0,-231.0,-141.0,-348.0,-225.0,104.0,105.0,-849.0,-418.0
44.0,-225.0,-140.0,-298.0,-213.0,113.0,74.0,-849.0,-404.0
34.0,-226.0,-137.0,-251.0,-203.0,128.0,58.0,-848.0,-387.0
30.0,-224.0,-135.0,-205.0,-196.0,145.0,30.0,-839.0,-382.0
26.0,-223.0,-131.0,-167.0,-189.0,162.0,12.0,-833.0,-370.0
20.0,-222.0,-128.0,-130.0,-185.0,184.0,0.0,-827.0,-358.0
18.0,-220.0,-120.0,-96.0,-184.0,204.0,-20.0,-830.0,-345.0
18.0,-220.0,-123.0,-69.0,-186.0,224.0,-15.0,-826.0,-329.0
18.0,-218.0,-120.0,-44.0,-188.0,240.0,-16.0,-820.0,-312.0
18.0,-219.0,-119.0,-27.0,-193.0,254.0,-8.0,-826.0,-304.0
19.0,-226.0,-116.0,-15.0,-198.0,265.0,6.0,-827.0,-285.0
25.0,-221.0,-110.0,-9.0,-198.0,273.0,12.0,-832.0,-267.0
29.0,-225.0,-103.0,-13.0,-196.0,277.0,21.0,-843.0,-253.0
32.0,-224.0,-98.0,-27.0,-191.0,277.0,35.0,-845.0,-240.0
35.0,-226.0,-98.0,-50.0,-183.0,273.0,46.0,-851.0,-229.0
35.0,-225.0,-95.0,-77.0,-172.0,269.0,58.0,-852.0,-223.0
50.0,-232.0,-89.0,-104.0,-162.0,262.0,70.0,-852.0,-214.0
41.0,-224.0,-94.0,-125.0,-149.0,254.0,75.0,-852.0,-210.0
42.0,-225.0,-92.0,-145.0,-133.0,248.0,74.0,-846.0,-199.0
41.0,-225.0,-90.0,-169.0,-114.0,245.0,74.0,-846.0,-188.0
39.0,-226.0,-82.0,-190.0,-88.0,242.0,69.0,-849.0,-179.0
40.0,-227.0,-82.0,-208.0,-59.0,242.0,67.0,-854.0,-177.0
35.0,-224.0,-83.0,-226.0,-23.0,240.0,59.0,-847.0,-168.0
35.0,-220.0,-79.0,-244.0,14.0,234.0,62.0,-848.0,-162.0
34.0,-222.0,-76.0,-266.0,53.0,230.0,58.0,-842.0,-148.0
36.0,-224.0,-79.0,-290.0,83.0,225.0,54.0,-832.0,-151.0
35.0,-220.0,-81.0,-318.0,105.0,221.0,55.0,-832.0,-165.0
34.0,-217.0,-81.0,-346.0,123.0,217.0,49.0,-825.0,-172.0
34.0,-217.0,-85.0,-373.0,132.0,212.0,54.0,-829.0,-179.0
33.0,-219.0,-86.0,-390.0,137.0,208.0,55.0,-826.0,-188.0
36.0,-222.0,-88.0,-400.0,142.0,208.0,55.0,-832.0,-194.0
36.0,-221.0,-93.0,-403.0,145.0,207.0,53.0,-841.0,-198.0
36.0,-227.0,-91.0,-399.0,150.0,209.0,52.0,-849.0,-204.0
34.0,-227.0,-91.0,-391.0,153.0,214.0,49.0,-862.0,-201.0
35.0,-229.0,-95.0,-379.0,158.0,221.0,45.0,-872.0,-203.0
36.0,-232.0,-98.0,-366.0,163.0,229.0,47.0,-885.0,-220.0
37.0,-233.0,-107.0,-357.0,168.0,239.0,53.0,-879.0,-237.0
33.0,-242.0,-94.0,-376.0,198.0,280.0,51.0,-898.0,-222.0
29.0,-240.0,-109.0,-396.0,183.0,294.0,40.0,-917.0,-262.0
32.0,-241.0,-112.0,-375.0,145.0,265.0,33.0,-897.0,-289.0
34.0,-242.0,-120.0,-357.0,130.0,250.0,41.0,-921.0,-300.0
30.0,-248.0,-119.0,-349.0,129.0,249.0,41.0,-924.0,-300.0
35.0,-247.0,-117.0,-347.0,133.0,252.0,39.0,-935.0,-311.0
28.0,-249.0,-118.0,-351.0,144.0,261.0,33.0,-937.0,-311.0
31.0,-246.0,-123.0,-344.0,157.0,252.0,32.0,-940.0,-322.0
28.0,-249.0,-125.0,-339.0,188.0,244.0,33.0,-934.0,-323.0
30.0,-248.0,-119.0,-336.0,224.0,235.0,33.0,-944.0,-328.0
31.0,-252.0,-120.0,-327.0,266.0,229.0,32.0,-947.0,-318.0
29.0,-253.0,-116.0,-312.0,309.0,226.0,31.0,-956.0,-303.0
31.0,-256.0,-114.0,-283.0,355.0,223.0,34.0,-967.0,-301.0
25.0,-250.0,-111.0,-229.0,407.0,222.0,11.0,-947.0,-289.0
19.0,-238.0,-102.0,-197.0,432.0,229.0,1.0,-915.0,-259.0
21.0,-233.0,-99.0,-200.0,435.0,237.0,0.0,-881.0,-237.0
14.0,-226.0,-94.0,-223.0,425.0,242.0,-9.0,-866.0,-213.0
16.0,-224.0,-89.0,-253.0,414.0,249.0,-18.0,-861.0,-199.0
13.0,-225.0,-90.0,-290.0,403.0,252.0,-30.0,-853.0,-199.0
11.0,-225.0,-94.0,-331.0,399.0,252.0,-51.0,-843.0,-206.0
14.0,-221.0,-95.0,-379.0,397.0,252.0,-50.0,-829.0,-215.0
1.0,-222.0,-93.0,-445.0,411.0,277.0,-68.0,-840.0,-214.0
0.0,-211.0,-103.0,-510.0,389.0,266.0,-92.0,-800.0,-246.0
-6.0,-202.0,-107.0,-579.0,355.0,234.0,-106.0,-773.0,-265.0
-4.0,-205.0,-103.0,-641.0,329.0,210.0,-116.0,-770.0,-287.0
-12.0,-200.0,-116.0,-697.0,308.0,190.0,-116.0,-765.0,-297.0
-12.0,-205.0,-118.0,-758.0,290.0,177.0,-126.0,-784.0,-306.0
-11.0,-205.0,-123.0,-815.0,269.0,162.0,-127.0,-786.0,-313.0
-13.0,-209.0,-123.0,-865.0,248.0,153.0,-122.0,-797.0,-319.0
-11.0,-211.0,-118.0,-911.0,226.0,144.0,-120.0,-805.0,-320.0
-13.0,-215.0,-125.0,-953.0,201.0,138.0,-117.0,-827.0,-321.0
-5.0,-221.0,-124.0,-993.0,173.0,137.0,-108.0,-840.0,-337.0
-4.0,-226.0,-129.0,-1027.0,145.0,139.0,-100.0,-852.0,-354.0
-2.0,-228.0,-137.0,-1056.0,118.0,142.0,-91.0,-857.0,-383.0
0.0,-226.0,-141.0,-1076.0,90.0,146.0,-77.0,-868.0,-405.0
4.0,-230.0,-139.0,-1084.0,61.0,148.0,-60.0,-868.0,-417.0
7.0,-230.0,-146.0,-1085.0,33.0,153.0,-48.0,-866.0,-430.0
9.0,-229.0,-148.0,-1083.0,10.0,157.0,-39.0,-866.0,-442.0
16.0,-228.0,-150.0,-1083.0,-1.0,159.0,-30.0,-856.0,-448.0
15.0,-224.0,-152.0,-1086.0,-1.0,161.0,-19.0,-843.0,-448.0
18.0,-218.0,-156.0,-1099.0,3.0,157.0,-17.0,-823.0,-450.0
44.0,-202.0,-198.0,-1120.0,13.0,149.0,4.0,-801.0,-447.0
25.0,-206.0,-156.0,-1148.0,23.0,137.0,6.0,-781.0,-447.0
24.0,-200.0,-150.0,-1180.0,35.0,126.0,16.0,-762.0,-439.0
26.0,-195.0,-146.0,-1219.0,42.0,114.0,21.0,-746.0,-429.0
26.0,-194.0,-142.0,-1262.0,48.0,107.0,23.0,-742.0,-423.0
23.0,-194.0,-140.0,-1306.0,52.0,100.0,14.0,-747.0,-416.0
19.0,-193.0,-144.0,-1354.0,51.0,98.0,1.0,-737.0,-416.0
18.0,-195.0,-145.0,-1408.0,47.0,95.0,-13.0,-739.0,-421.0
13.0,-193.0,-147.0,-1465.0,34.0,94.0,-34.0,-731.0,-429.0
7.0,-192.0,-149.0,-1525.0,14.0,95.0,-54.0,-729.0,-432.0
0.0,-192.0,-146.0,-1581.0,-8.0,98.0,-77.0,-724.0,-433.0
-4.0,-192.0,-151.0,-1630.0,-34.0,105.0,-104.0,-721.0,-449.0
-11.0,-192.0,-149.0,-1675.0,-66.0,113.0,-118.0,-720.0,-443.0
-12.0,-188.0,-156.0,-1719.0,-100.0,122.0,-129.0,-711.0,-456.0
-11.0,-179.0,-173.0,-1765.0,-137.0,131.0,-144.0,-708.0,-479.0
-18.0,-188.0,-167.0,-1809.0,-180.0,138.0,-153.0,-700.0,-506.0
-23.0,-184.0,-177.0,-1851.0,-225.0,146.0,-153.0,-701.0,-525.0
-16.0,-183.0,-181.0,-1892.0,-266.0,156.0,-148.0,-699.0,-555.0
-18.0,-184.0,-184.0,-1931.0,-297.0,171.0,-151.0,-694.0,-582.0
-14.0,-185.0,-189.0,-1964.0,-318.0,186.0,-142.0,-688.0,-592.0
-13.0,-186.0,-189.0,-1991.0,-334.0,199.0,-129.0,-687.0,-601.0
-7.0,-186.0,-190.0,-2009.0,-342.0,214.0,-113.0,-701.0,-591.0
-3.0,-190.0,-186.0,-2014.0,-344.0,233.0,-101.0,-703.0,-577.0
1.0,-191.0,-179.0,-2006.0,-337.0,249.0,-80.0,-704.0,-556.0
7.0,-194.0,-168.0,-1991.0,-321.0,273.0,-59.0,-713.0,-527.0
13.0,-190.0,-165.0,-1974.0,-300.0,293.0,-37.0,-714.0,-496.0
22.0,-189.0,-154.0,-1950.0,-276.0,312.0,0.0,-714.0,-474.0
32.0,-192.0,-155.0,-1929.0,-243.0,332.0,31.0,-722.0,-454.0
44.0,-192.0,-154.0,-1909.0,-207.0,348.0,72.0,-712.0,-436.0
57.0,-191.0,-147.0,-1888.0,-168.0,365.0,116.0,-711.0,-423.0
61.0,-189.0,-145.0,-1864.0,-123.0,383.0,150.0,-700.0,-411.0
73.0,-179.0,-137.0,-1840.0,-72.0,401.0,191.0,-674.0,-390.0
82.0,-175.0,-135.0,-1819.0,-17.0,415.0,225.0,-645.0,-380.0
88.0,-160.0,-140.0,-1811.0,48.0,429.0,250.0,-605.0,-381.0
89.0,-146.0,-141.0,-1826.0,132.0,445.0,255.0,-551.0,-385.0
86.0,-135.0,-141.0,-1852.0,230.0,461.0,253.0,-500.0,-403.0
82.0,-121.0,-146.0,-1882.0,341.0,479.0,221.0,-449.0,-419.0
76.0,-112.0,-147.0,-1911.0,464.0,499.0,199.0,-408.0,-426.0
66.0,-103.0,-152.0,-1936.0,592.0,522.0,176.0,-381.0,-428.0
61.0,-99.0,-147.0,-1961.0,723.0,547.0,136.0,-354.0,-419.0
56.0,-96.0,-143.0,-1983.0,850.0,573.0,108.0,-331.0,-406.0
45.0,-85.0,-140.0,-1991.0,969.0,594.0,88.0,-311.0,-387.0
41.0,-82.0,-130.0,-1991.0,1073.0,608.0,72.0,-286.0,-368.0
39.0,-82.0,-129.0,-1985.0,1165.0,618.0,46.0,-281.0,-348.0
32.0,-79.0,-126.0,-1983.0,1243.0,626.0,26.0,-277.0,-344.0
19.0,-79.0,-129.0,-1989.0,1299.0,631.0,0.0,-276.0,-334.0
11.0,-77.0,-126.0,-2004.0,1343.0,636.0,-33.0,-274.0,-344.0
2.0,-75.0,-135.0,-2017.0,1373.0,646.0,-64.0,-263.0,-353.0
0.0,-66.0,-134.0,-2035.0,1395.0,656.0,-88.0,-237.0,-379.0
-3.0,-67.0,-138.0,-2061.0,1421.0,664.0,-103.0,-225.0,-388.0
-9.0,-63.0,-138.0,-2092.0,1438.0,668.0,-121.0,-217.0,-380.0
-10.0,-55.0,-142.0,-2124.0,1447.0,665.0,-124.0,-193.0,-384.0
-9.0,-57.0,-136.0,-2156.0,1446.0,657.0,-125.0,-178.0,-377.0
-15.0,-49.0,-133.0,-2193.0,1429.0,639.0,-146.0,-171.0,-372.0
-27.0,-49.0,-128.0,-2230.0,1398.0,621.0,-180.0,-169.0,-350.0
-22.0,-52.0,-130.0,-2256.0,1364.0,603.0,-171.0,-160.0,-355.0
-25.0,-46.0,-134.0,-2272.0,1344.0,573.0,-176.0,-151.0,-361.0
-34.0,-46.0,-134.0,-2291.0,1326.0,540.0,-213.0,-148.0,-373.0
-46.0,-47.0,-140.0,-2312.0,1301.0,506.0,-258.0,-147.0,-382.0
-54.0,-49.0,-150.0,-2336.0,1253.0,474.0,-291.0,-159.0,-427.0
-56.0,-50.0,-163.0,-2362.0,1194.0,445.0,-300.0,-155.0,-477.0
-52.0,-53.0,-178.0,-2398.0,1137.0,412.0,-288.0,-168.0,-540.0
-47.0,-51.0,-194.0,-2437.0,1087.0,372.0,-264.0,-166.0,-609.0
-39.0,-48.0,-211.0,-2484.0,1042.0,321.0,-224.0,-158.0,-679.0
-30.0,-45.0,-217.0,-2536.0,986.0,258.0,-191.0,-143.0,-719.0
-17.0,-50.0,-226.0,-2585.0,893.0,183.0,-146.0,-159.0,-740.0
-20.0,-61.0,-234.0,-2617.0,763.0,95.0,-141.0,-200.0,-778.0
-19.0,-81.0,-243.0,-2624.0,595.0,4.0,-143.0,-268.0,-817.0
-35.0,-119.0,-246.0,-2584.0,406.0,-106.0,-192.0,-402.0,-825.0
-50.0,-157.0,-243.0,-2477.0,223.0,-220.0,-254.0,-535.0,-808.0
-66.0,-185.0,-227.0,-2332.0,39.0,-311.0,-301.0,-664.0,-755.0
-80.0,-210.0,-203.0,-2185.0,-135.0,-372.0,-360.0,-779.0,-682.0
-95.0,-235.0,-185.0,-2062.0,-289.0,-399.0,-439.0,-858.0,-573.0
-104.0,-242.0,-162.0,-1957.0,-413.0,-399.0,-486.0,-913.0,-489.0
-113.0,-240.0,-144.0,-1892.0,-496.0,-384.0,-513.0,-911.0,-420.0
-105.0,-227.0,-132.0,-1878.0,-543.0,-365.0,-503.0,-858.0,-387.0
-96.0,-199.0,-141.0,-1916.0,-569.0,-356.0,-460.0,-778.0,-393.0
-80.0,-176.0,-153.0,-2002.0,-584.0,-371.0,-404.0,-677.0,-436.0
-59.0,-160.0,-173.0,-2118.0,-592.0,-384.0,-307.0,-601.0,-510.0
-25.0,-148.0,-187.0,-2224.0,-591.0,-404.0,-194.0,-550.0,-594.0
11.0,-124.0,-210.0,-2314.0,-592.0,-421.0,-54.0,-465.0,-666.0
54.0,-134.0,-212.0,-2382.0,-611.0,-443.0,93.0,-485.0,-682.0
79.0,-125.0,-214.0,-2335.0,-615.0,-486.0,222.0,-431.0,-695.0
117.0,-118.0,-202.0,-2225.0,-624.0,-503.0,383.0,-375.0,-659.0
140.0,-103.0,-195.0,-2089.0,-608.0,-491.0,456.0,-358.0,-622.0
166.0,-117.0,-183.0,-1963.0,-556.0,-432.0,516.0,-403.0,-557.0
184.0,-128.0,-169.0,-1837.0,-479.0,-388.0,587.0,-433.0,-501.0
