acc1_x,acc1_y,acc1_z,gyro_x,gyro_y,gyro_z,acc2_x,acc2_y,acc2_z
24.0,-245.0,-130.0,-39.0,21.0,-10.0,6.0,-932.0,-373.0
23.0,-241.0,-130.0,-43.0,20.0,-8.0,6.0,-929.0,-372.0
24.0,-245.0,-131.0,-43.0,20.0,-8.0,7.0,-930.0,-372.0
24.0,-247.0,-133.0,-45.0,18.0,-8.0,2.0,-929.0,-371.0
15.0,-245.0,-134.0,-44.0,18.0,-8.0,7.0,-924.0,-371.0
25.0,-247.0,-133.0,-44.0,18.0,-8.0,7.0,-929.0,-371.0
21.0,-242.0,-131.0,-44.0,18.0,-8.0,2.0,-928.0,-370.0
22.0,-243.0,-135.0,-43.0,18.0,-6.0,1.0,-926.0,-370.0
21.0,-245.0,-132.0,-45.0,18.0,-6.0,1.0,-929.0,-369.0
22.0,-244.0,-129.0,-45.0,16.0,-5.0,3.0,-929.0,-370.0
24.0,-246.0,-130.0,-47.0,15.0,-3.0,-1.0,-930.0,-369.0
23.0,-246.0,-131.0,-48.0,14.0,-2.0,1.0,-930.0,-368.0
19.0,-244.0,-129.0,-50.0,15.0,-1.0,0.0,-931.0,-371.0
19.0,-245.0,-131.0,-52.0,12.0,-1.0,0.0,-934.0,-371.0
21.0,-248.0,-132.0,-53.0,10.0,-2.0,-2.0,-930.0,-373.0
20.0,-246.0,-131.0,-54.0,9.0,-1.0,-2.0,-933.0,-372.0
18.0,-245.0,-132.0,-56.0,8.0,-1.0,-10.0,-932.0,-370.0
20.0,-248.0,-132.0,-56.0,7.0,-2.0,-11.0,-927.0,-373.0
21.0,-244.0,-131.0,-57.0,5.0,-1.0,-8.0,-932.0,-371.0
20.0,-247.0,-130.0,-58.0,2.0,-1.0,-15.0,-933.0,-368.0
18.0,-246.0,-131.0,-56.0,0.0,0.0,-12.0,-932.0,-372.0
24.0,-248.0,-134.0,-57.0,-1.0,1.0,-8.0,-926.0,-370.0
17.0,-244.0,-133.0,-58.0,-4.0,0.0,-10.0,-932.0,-369.0
17.0,-245.0,-130.0,-58.0,-5.0,1.0,-8.0,-927.0,-370.0
18.0,-245.0,-131.0,-58.0,-6.0,1.0,-17.0,-926.0,-370.0
19.0,-245.0,-135.0,-59.0,-7.0,-1.0,-13.0,-928.0,-369.0
20.0,-245.0,-133.0,-59.0,-8.0,0.0,-14.0,-926.0,-369.0
18.0,-243.0,-129.0,-61.0,-10.0,0.0,-12.0,-924.0,-364.0
22.0,-245.0,-129.0,-64.0,-11.0,0.0,-10.0,-928.0,-365.0
20.0,-246.0,-130.0,-68.0,-11.0,-1.0,-9.0,-927.0,-365.0
18.0,-244.0,-130.0,-71.0,-10.0,0.0,-12.0,-932.0,-366.0
18.0,-245.0,-131.0,-75.0,-11.0,-1.0,-12.0,-928.0,-364.0
19.0,-245.0,-128.0,-79.0,-10.0,0.0,-10.0,-927.0,-367.0
17.0,-243.0,-130.0,-81.0,-11.0,0.0,-12.0,-929.0,-369.0
21.0,-248.0,-131.0,-82.0,-12.0,-1.0,-9.0,-930.0,-368.0
19.0,-244.0,-128.0,-82.0,-12.0,-3.0,1.0,-930.0,-367.0
21.0,-246.0,-130.0,-82.0,-11.0,-2.0,-4.0,-932.0,-367.0
20.0,-247.0,-132.0,-81.0,-10.0,-2.0,0.0,-928.0,-361.0
20.0,-245.0,-133.0,-80.0,-9.0,-5.0,-1.0,-936.0,-366.0
20.0,-247.0,-130.0,-79.0,-8.0,-6.0,-1.0,-931.0,-365.0
23.0,-251.0,-126.0,-78.0,-8.0,-8.0,-1.0,-928.0,-364.0
18.0,-249.0,-127.0,-76.0,-9.0,-9.0,-3.0,-934.0,-366.0
19.0,-245.0,-131.0,-76.0,-8.0,-9.0,-6.0,-931.0,-359.0
19.0,-249.0,-128.0,-76.0,-10.0,-11.0,-13.0,-932.0,-366.0
18.0,-244.0,-130.0,-74.0,-10.0,-9.0,-8.0,-934.0,-367.0
16.0,-246.0,-129.0,-73.0,-12.0,-11.0,-18.0,-930.0,-365.0
16.0,-244.0,-128.0,-73.0,-13.0,-12.0,-15.0,-930.0,-367.0
16.0,-245.0,-132.0,-74.0,-15.0,-13.0,-23.0,-928.0,-368.0
19.0,-246.0,-128.0,-74.0,-19.0,-12.0,-27.0,-928.0,-369.0
14.0,-247.0,-131.0,-75.0,-21.0,-13.0,-25.0,-930.0,-369.0
14.0,-245.0,-131.0,-76.0,-25.0,-15.0,-30.0,-928.0,-369.0
14.0,-243.0,-132.0,-77.0,-27.0,-17.0,-30.0,-925.0,-369.0
14.0,-245.0,-131.0,-80.0,-31.0,-17.0,-30.0,-924.0,-370.0
15.0,-246.0,-129.0,-81.0,-33.0,-18.0,-25.0,-926.0,-372.0
14.0,-246.0,-132.0,-84.0,-35.0,-20.0,-24.0,-927.0,-374.0
13.0,-244.0,-131.0,-85.0,-36.0,-22.0,-27.0,-931.0,-369.0
16.0,-246.0,-130.0,-88.0,-37.0,-23.0,-28.0,-927.0,-372.0
13.0,-245.0,-133.0,-90.0,-38.0,-22.0,-22.0,-932.0,-369.0
13.0,-245.0,-132.0,-89.0,-41.0,-23.0,-27.0,-936.0,-370.0
18.0,-248.0,-134.0,-90.0,-43.0,-25.0,-23.0,-934.0,-372.0
15.0,-246.0,-131.0,-90.0,-44.0,-26.0,-19.0,-930.0,-368.0
19.0,-246.0,-130.0,-88.0,-46.0,-27.0,-24.0,-936.0,-369.0
18.0,-249.0,-131.0,-87.0,-45.0,-28.0,-22.0,-934.0,-365.0
15.0,-244.0,-129.0,-81.0,-46.0,-30.0,-17.0,-933.0,-370.0
18.0,-249.0,-132.0,-79.0,-45.0,-32.0,-15.0,-933.0,-365.0
17.0,-247.0,-135.0,-77.0,-45.0,-34.0,-20.0,-938.0,-371.0
15.0,-245.0,-131.0,-75.0,-44.0,-36.0,-14.0,-930.0,-369.0
16.0,-242.0,-129.0,-74.0,-43.0,-39.0,-18.0,-935.0,-368.0
15.0,-245.0,-132.0,-73.0,-41.0,-39.0,-10.0,-935.0,-367.0
29.0,-248.0,-116.0,-74.0,-42.0,-37.0,-18.0,-932.0,-370.0
18.0,-245.0,-129.0,-76.0,-41.0,-39.0,-11.0,-926.0,-369.0
21.0,-245.0,-130.0,-78.0,-41.0,-39.0,-14.0,-926.0,-369.0
20.0,-245.0,-129.0,-79.0,-41.0,-39.0,-17.0,-929.0,-365.0
16.0,-242.0,-131.0,-79.0,-41.0,-39.0,-14.0,-925.0,-365.0
17.0,-243.0,-132.0,-81.0,-41.0,-39.0,-17.0,-926.0,-369.0
19.0,-241.0,-128.0,-82.0,-40.0,-39.0,-12.0,-922.0,-366.0
16.0,-242.0,-132.0,-85.0,-38.0,-39.0,-13.0,-922.0,-367.0
21.0,-241.0,-129.0,-88.0,-34.0,-37.0,-9.0,-917.0,-365.0
19.0,-243.0,-129.0,-93.0,-32.0,-39.0,-3.0,-923.0,-364.0
21.0,-242.0,-127.0,-96.0,-28.0,-38.0,4.0,-921.0,-359.0
22.0,-243.0,-131.0,-101.0,-23.0,-36.0,7.0,-925.0,-358.0
23.0,-244.0,-130.0,-103.0,-17.0,-36.0,10.0,-928.0,-360.0
28.0,-244.0,-129.0,-106.0,-12.0,-34.0,13.0,-924.0,-364.0
30.0,-247.0,-130.0,-106.0,-6.0,-33.0,20.0,-922.0,-360.0
25.0,-246.0,-131.0,-110.0,1.0,-32.0,25.0,-919.0,-360.0
29.0,-242.0,-128.0,-112.0,8.0,-31.0,31.0,-922.0,-359.0
30.0,-243.0,-128.0,-114.0,15.0,-33.0,33.0,-925.0,-351.0
28.0,-243.0,-129.0,-117.0,22.0,-32.0,34.0,-928.0,-349.0
32.0,-246.0,-130.0,-122.0,30.0,-33.0,41.0,-933.0,-358.0
32.0,-245.0,-129.0,-128.0,38.0,-31.0,35.0,-934.0,-345.0
30.0,-245.0,-127.0,-131.0,47.0,-30.0,37.0,-933.0,-357.0
33.0,-247.0,-127.0,-136.0,57.0,-30.0,34.0,-936.0,-356.0
32.0,-250.0,-128.0,-139.0,65.0,-28.0,32.0,-938.0,-352.0
30.0,-248.0,-128.0,-142.0,73.0,-27.0,32.0,-938.0,-349.0
29.0,-250.0,-126.0,-142.0,83.0,-24.0,25.0,-942.0,-350.0
28.0,-249.0,-130.0,-142.0,94.0,-23.0,20.0,-943.0,-355.0
29.0,-247.0,-125.0,-138.0,102.0,-24.0,22.0,-938.0,-350.0
29.0,-249.0,-125.0,-135.0,111.0,-24.0,15.0,-941.0,-346.0
26.0,-249.0,-132.0,-131.0,120.0,-24.0,18.0,-938.0,-351.0
27.0,-247.0,-129.0,-127.0,128.0,-24.0,12.0,-933.0,-353.0
25.0,-245.0,-128.0,-126.0,135.0,-26.0,17.0,-933.0,-348.0
25.0,-246.0,-130.0,-123.0,145.0,-28.0,13.0,-931.0,-358.0
24.0,-244.0,-131.0,-121.0,154.0,-30.0,14.0,-929.0,-365.0
24.0,-243.0,-129.0,-122.0,162.0,-32.0,12.0,-929.0,-360.0
22.0,-244.0,-130.0,-121.0,166.0,-33.0,11.0,-926.0,-364.0
25.0,-242.0,-133.0,-120.0,171.0,-34.0,12.0,-926.0,-367.0
21.0,-244.0,-131.0,-119.0,176.0,-36.0,17.0,-921.0,-367.0
23.0,-243.0,-131.0,-120.0,180.0,-38.0,12.0,-921.0,-365.0
24.0,-244.0,-129.0,-119.0,179.0,-41.0,9.0,-928.0,-367.0
24.0,-246.0,-130.0,-117.0,179.0,-44.0,9.0,-924.0,-364.0
23.0,-245.0,-132.0,-118.0,179.0,-47.0,7.0,-925.0,-367.0
22.0,-249.0,-131.0,-116.0,179.0,-49.0,4.0,-931.0,-369.0
23.0,-248.0,-129.0,-117.0,179.0,-54.0,6.0,-941.0,-368.0
20.0,-247.0,-130.0,-116.0,177.0,-57.0,0.0,-940.0,-370.0
22.0,-250.0,-127.0,-115.0,174.0,-59.0,-1.0,-944.0,-373.0
17.0,-251.0,-131.0,-112.0,169.0,-60.0,0.0,-948.0,-371.0
22.0,-252.0,-131.0,-103.0,166.0,-65.0,-4.0,-951.0,-372.0
21.0,-253.0,-128.0,-95.0,162.0,-68.0,-5.0,-953.0,-367.0
21.0,-251.0,-131.0,-83.0,158.0,-70.0,-16.0,-950.0,-371.0
18.0,-253.0,-132.0,-73.0,156.0,-72.0,-10.0,-950.0,-369.0
16.0,-249.0,-132.0,-64.0,155.0,-75.0,-10.0,-952.0,-369.0
17.0,-253.0,-134.0,-53.0,153.0,-79.0,-11.0,-949.0,-366.0
18.0,-252.0,-130.0,-41.0,150.0,-83.0,-19.0,-948.0,-365.0
17.0,-252.0,-128.0,-28.0,149.0,-88.0,-17.0,-951.0,-364.0
18.0,-251.0,-131.0,-13.0,152.0,-94.0,-9.0,-948.0,-363.0
22.0,-252.0,-132.0,-1.0,155.0,-99.0,-17.0,-953.0,-364.0
18.0,-249.0,-129.0,6.0,158.0,-103.0,-10.0,-951.0,-365.0
19.0,-251.0,-131.0,14.0,162.0,-105.0,-7.0,-945.0,-365.0
18.0,-250.0,-130.0,19.0,163.0,-108.0,-12.0,-946.0,-368.0
17.0,-250.0,-131.0,25.0,162.0,-110.0,-8.0,-943.0,-367.0
22.0,-249.0,-132.0,29.0,157.0,-112.0,-8.0,-945.0,-373.0
19.0,-250.0,-130.0,30.0,148.0,-112.0,-4.0,-942.0,-368.0
21.0,-249.0,-129.0,34.0,139.0,-111.0,-5.0,-940.0,-360.0
20.0,-249.0,-128.0,38.0,125.0,-111.0,-2.0,-944.0,-348.0
21.0,-248.0,-126.0,41.0,114.0,-113.0,3.0,-938.0,-348.0
20.0,-248.0,-128.0,46.0,106.0,-116.0,3.0,-939.0,-344.0
20.0,-248.0,-123.0,47.0,102.0,-118.0,-2.0,-937.0,-344.0
24.0,-247.0,-125.0,47.0,99.0,-121.0,5.0,-938.0,-340.0
23.0,-245.0,-126.0,45.0,98.0,-125.0,11.0,-929.0,-338.0
27.0,-249.0,-126.0,40.0,96.0,-129.0,10.0,-937.0,-340.0
25.0,-244.0,-125.0,35.0,96.0,-135.0,13.0,-933.0,-341.0
22.0,-245.0,-124.0,26.0,94.0,-140.0,16.0,-933.0,-340.0
26.0,-245.0,-126.0,20.0,94.0,-141.0,16.0,-935.0,-336.0
28.0,-248.0,-127.0,11.0,94.0,-141.0,16.0,-934.0,-340.0
27.0,-246.0,-128.0,2.0,95.0,-139.0,24.0,-936.0,-343.0
26.0,-251.0,-124.0,-11.0,98.0,-138.0,35.0,-940.0,-360.0
30.0,-246.0,-130.0,-21.0,99.0,-133.0,39.0,-939.0,-355.0
35.0,-251.0,-130.0,-28.0,101.0,-133.0,47.0,-941.0,-363.0
39.0,-249.0,-134.0,-37.0,103.0,-129.0,54.0,-936.0,-369.0
39.0,-246.0,-131.0,-45.0,110.0,-127.0,68.0,-941.0,-371.0
44.0,-248.0,-132.0,-54.0,122.0,-126.0,79.0,-936.0,-378.0
50.0,-247.0,-133.0,-60.0,135.0,-127.0,91.0,-931.0,-385.0
48.0,-244.0,-136.0,-66.0,149.0,-127.0,98.0,-931.0,-390.0
49.0,-245.0,-136.0,-74.0,163.0,-128.0,106.0,-931.0,-393.0
52.0,-245.0,-136.0,-79.0,174.0,-127.0,121.0,-932.0,-386.0
54.0,-243.0,-133.0,-83.0,183.0,-129.0,119.0,-927.0,-374.0
53.0,-247.0,-131.0,-87.0,188.0,-126.0,127.0,-932.0,-371.0
51.0,-247.0,-129.0,-86.0,189.0,-124.0,116.0,-937.0,-360.0
52.0,-248.0,-127.0,-84.0,189.0,-116.0,111.0,-941.0,-353.0
50.0,-251.0,-124.0,-82.0,188.0,-106.0,108.0,-943.0,-348.0
51.0,-249.0,-129.0,-87.0,188.0,-96.0,98.0,-939.0,-347.0
48.0,-250.0,-129.0,-93.0,193.0,-87.0,102.0,-941.0,-358.0
46.0,-246.0,-129.0,-103.0,200.0,-79.0,93.0,-938.0,-357.0
48.0,-248.0,-127.0,-113.0,208.0,-73.0,86.0,-936.0,-358.0
44.0,-246.0,-131.0,-122.0,216.0,-70.0,88.0,-933.0,-357.0
41.0,-245.0,-128.0,-127.0,220.0,-69.0,78.0,-929.0,-351.0
45.0,-245.0,-127.0,-128.0,221.0,-70.0,72.0,-922.0,-346.0
40.0,-245.0,-123.0,-125.0,218.0,-72.0,69.0,-923.0,-339.0
38.0,-241.0,-127.0,-121.0,211.0,-72.0,62.0,-918.0,-332.0
36.0,-241.0,-127.0,-120.0,201.0,-72.0,58.0,-919.0,-328.0
32.0,-242.0,-119.0,-123.0,193.0,-72.0,52.0,-919.0,-324.0
32.0,-243.0,-124.0,-127.0,186.0,-72.0,45.0,-918.0,-318.0
33.0,-246.0,-124.0,-130.0,176.0,-74.0,42.0,-925.0,-316.0
32.0,-246.0,-117.0,-134.0,166.0,-78.0,34.0,-932.0,-306.0
29.0,-250.0,-120.0,-136.0,157.0,-84.0,30.0,-937.0,-305.0
28.0,-250.0,-116.0,-138.0,149.0,-90.0,23.0,-947.0,-305.0
25.0,-252.0,-119.0,-136.0,142.0,-93.0,12.0,-952.0,-304.0
25.0,-253.0,-121.0,-136.0,138.0,-99.0,14.0,-959.0,-305.0
22.0,-255.0,-120.0,-133.0,136.0,-107.0,6.0,-958.0,-307.0
26.0,-256.0,-118.0,-130.0,134.0,-116.0,8.0,-963.0,-316.0
23.0,-256.0,-122.0,-129.0,135.0,-128.0,24.0,-960.0,-319.0
30.0,-256.0,-117.0,-127.0,133.0,-141.0,30.0,-962.0,-319.0
30.0,-254.0,-118.0,-121.0,129.0,-155.0,35.0,-961.0,-322.0
33.0,-255.0,-120.0,-116.0,121.0,-169.0,52.0,-962.0,-312.0
37.0,-252.0,-117.0,-112.0,107.0,-183.0,65.0,-951.0,-314.0
38.0,-248.0,-117.0,-109.0,92.0,-197.0,74.0,-952.0,-309.0
45.0,-252.0,-117.0,-107.0,74.0,-211.0,87.0,-950.0,-310.0
44.0,-252.0,-115.0,-108.0,61.0,-222.0,97.0,-951.0,-310.0
50.0,-254.0,-116.0,-110.0,49.0,-230.0,109.0,-949.0,-306.0
51.0,-251.0,-118.0,-111.0,41.0,-237.0,118.0,-959.0,-305.0
52.0,-250.0,-118.0,-110.0,36.0,-239.0,120.0,-958.0,-304.0
56.0,-252.0,-112.0,-103.0,28.0,-238.0,126.0,-964.0,-301.0
55.0,-255.0,-114.0,-94.0,23.0,-234.0,134.0,-963.0,-300.0
58.0,-256.0,-118.0,-79.0,20.0,-226.0,133.0,-963.0,-300.0
59.0,-256.0,-117.0,-60.0,16.0,-217.0,143.0,-963.0,-301.0
55.0,-254.0,-115.0,-39.0,18.0,-209.0,144.0,-960.0,-304.0
63.0,-253.0,-118.0,-16.0,24.0,-197.0,151.0,-952.0,-305.0
64.0,-248.0,-115.0,8.0,34.0,-184.0,158.0,-946.0,-311.0
63.0,-249.0,-116.0,27.0,46.0,-174.0,165.0,-946.0,-304.0
64.0,-248.0,-113.0,44.0,58.0,-163.0,169.0,-936.0,-303.0
64.0,-248.0,-116.0,57.0,68.0,-154.0,165.0,-930.0,-302.0
62.0,-239.0,-113.0,67.0,74.0,-147.0,163.0,-923.0,-297.0
64.0,-241.0,-117.0,71.0,79.0,-140.0,164.0,-917.0,-304.0
61.0,-242.0,-111.0,70.0,82.0,-135.0,154.0,-913.0,-293.0
60.0,-236.0,-110.0,65.0,85.0,-127.0,147.0,-903.0,-285.0
58.0,-238.0,-108.0,52.0,84.0,-122.0,136.0,-895.0,-277.0
54.0,-236.0,-110.0,37.0,79.0,-113.0,124.0,-900.0,-273.0
51.0,-235.0,-111.0,17.0,74.0,-106.0,115.0,-899.0,-265.0
48.0,-238.0,-102.0,-5.0,68.0,-100.0,105.0,-904.0,-266.0
46.0,-239.0,-108.0,-26.0,61.0,-96.0,89.0,-898.0,-260.0
53.0,-243.0,-110.0,-43.0,50.0,-87.0,83.0,-909.0,-254.0
40.0,-241.0,-102.0,-55.0,40.0,-79.0,80.0,-913.0,-252.0
37.0,-241.0,-101.0,-63.0,32.0,-71.0,75.0,-920.0,-253.0
45.0,-244.0,-99.0,-70.0,27.0,-64.0,75.0,-922.0,-246.0
40.0,-245.0,-102.0,-74.0,23.0,-56.0,77.0,-926.0,-249.0
40.0,-242.0,-102.0,-77.0,20.0,-51.0,75.0,-927.0,-247.0
42.0,-247.0,-103.0,-77.0,17.0,-47.0,75.0,-927.0,-247.0
42.0,-248.0,-99.0,-77.0,11.0,-44.0,75.0,-937.0,-245.0
42.0,-250.0,-103.0,-75.0,3.0,-41.0,79.0,-938.0,-236.0
42.0,-247.0,-100.0,-71.0,-5.0,-38.0,74.0,-942.0,-240.0
40.0,-252.0,-96.0,-66.0,-12.0,-36.0,74.0,-946.0,-231.0
39.0,-250.0,-98.0,-57.0,-24.0,-35.0,73.0,-947.0,-226.0
39.0,-253.0,-92.0,-48.0,-38.0,-31.0,73.0,-949.0,-229.0
36.0,-252.0,-99.0,-40.0,-55.0,-25.0,70.0,-948.0,-230.0
36.0,-250.0,-95.0,-32.0,-74.0,-21.0,68.0,-955.0,-226.0
37.0,-253.0,-98.0,-26.0,-93.0,-16.0,73.0,-946.0,-223.0
36.0,-254.0,-96.0,-21.0,-110.0,-10.0,59.0,-955.0,-226.0
36.0,-252.0,-96.0,-18.0,-125.0,-2.0,60.0,-954.0,-229.0
35.0,-253.0,-95.0,-18.0,-141.0,5.0,54.0,-958.0,-235.0
33.0,-253.0,-98.0,-21.0,-158.0,11.0,58.0,-959.0,-234.0
34.0,-253.0,-97.0,-25.0,-172.0,16.0,51.0,-967.0,-235.0
36.0,-255.0,-98.0,-31.0,-187.0,21.0,52.0,-962.0,-235.0
31.0,-256.0,-96.0,-35.0,-204.0,25.0,45.0,-970.0,-232.0
32.0,-257.0,-98.0,-36.0,-221.0,25.0,42.0,-977.0,-231.0
32.0,-257.0,-96.0,-34.0,-236.0,26.0,43.0,-986.0,-231.0
34.0,-260.0,-93.0,-30.0,-253.0,26.0,38.0,-987.0,-226.0
31.0,-262.0,-94.0,-28.0,-269.0,24.0,54.0,-999.0,-215.0
36.0,-265.0,-96.0,-24.0,-284.0,21.0,48.0,-1007.0,-210.0
39.0,-270.0,-93.0,-16.0,-300.0,18.0,62.0,-1019.0,-214.0
37.0,-271.0,-91.0,-7.0,-314.0,16.0,62.0,-1026.0,-205.0
40.0,-271.0,-87.0,4.0,-327.0,13.0,67.0,-1028.0,-207.0
39.0,-272.0,-91.0,15.0,-335.0,10.0,69.0,-1037.0,-206.0
39.0,-272.0,-94.0,24.0,-346.0,9.0,77.0,-1041.0,-210.0
41.0,-273.0,-92.0,33.0,-359.0,7.0,76.0,-1044.0,-213.0
41.0,-274.0,-98.0,43.0,-376.0,5.0,85.0,-1037.0,-217.0
45.0,-275.0,-93.0,60.0,-396.0,1.0,87.0,-1044.0,-211.0
44.0,-277.0,-87.0,79.0,-415.0,-3.0,91.0,-1052.0,-206.0
49.0,-277.0,-84.0,99.0,-432.0,-7.0,92.0,-1058.0,-197.0
46.0,-276.0,-81.0,122.0,-447.0,-14.0,91.0,-1056.0,-178.0
44.0,-275.0,-78.0,147.0,-463.0,-17.0,89.0,-1061.0,-156.0
44.0,-278.0,-74.0,170.0,-477.0,-21.0,81.0,-1061.0,-142.0
41.0,-277.0,-73.0,188.0,-490.0,-23.0,74.0,-1060.0,-123.0
38.0,-277.0,-67.0,200.0,-499.0,-24.0,77.0,-1063.0,-113.0
37.0,-276.0,-66.0,209.0,-513.0,-23.0,67.0,-1061.0,-95.0
38.0,-276.0,-64.0,210.0,-523.0,-22.0,65.0,-1066.0,-86.0
37.0,-279.0,-63.0,208.0,-533.0,-19.0,68.0,-1069.0,-94.0
42.0,-279.0,-69.0,196.0,-542.0,-14.0,80.0,-1074.0,-110.0
47.0,-281.0,-74.0,167.0,-548.0,-9.0,95.0,-1081.0,-139.0
53.0,-289.0,-86.0,122.0,-551.0,-11.0,114.0,-1095.0,-179.0
56.0,-287.0,-95.0,54.0,-553.0,-16.0,132.0,-1116.0,-216.0
53.0,-294.0,-107.0,-42.0,-555.0,-27.0,133.0,-1127.0,-273.0
51.0,-294.0,-119.0,-159.0,-564.0,-43.0,104.0,-1143.0,-316.0
44.0,-303.0,-126.0,-291.0,-578.0,-53.0,90.0,-1169.0,-344.0
45.0,-311.0,-130.0,-413.0,-592.0,-61.0,80.0,-1188.0,-365.0
48.0,-316.0,-133.0,-496.0,-598.0,-72.0,98.0,-1204.0,-383.0
57.0,-320.0,-136.0,-517.0,-581.0,-89.0,135.0,-1216.0,-392.0
70.0,-320.0,-140.0,-488.0,-542.0,-112.0,186.0,-1217.0,-417.0
83.0,-321.0,-150.0,-417.0,-480.0,-138.0,236.0,-1209.0,-446.0
97.0,-317.0,-158.0,-342.0,-407.0,-154.0,282.0,-1195.0,-479.0
101.0,-308.0,-164.0,-282.0,-338.0,-167.0,303.0,-1162.0,-499.0
104.0,-300.0,-168.0,-237.0,-292.0,-170.0,298.0,-1134.0,-525.0
99.0,-294.0,-176.0,-199.0,-255.0,-160.0,294.0,-1111.0,-549.0
95.0,-287.0,-181.0,-163.0,-239.0,-141.0,283.0,-1090.0,-560.0
84.0,-283.0,-183.0,-127.0,-243.0,-115.0,255.0,-1075.0,-574.0
79.0,-278.0,-186.0,-93.0,-252.0,-83.0,236.0,-1062.0,-586.0
73.0,-269.0,-187.0,-61.0,-272.0,-59.0,207.0,-1017.0,-589.0
70.0,-257.0,-192.0,-24.0,-297.0,-28.0,198.0,-966.0,-602.0
67.0,-244.0,-195.0,23.0,-324.0,-6.0,184.0,-918.0,-619.0
58.0,-227.0,-195.0,70.0,-360.0,15.0,153.0,-855.0,-624.0
51.0,-211.0,-193.0,107.0,-399.0,34.0,122.0,-798.0,-620.0
45.0,-197.0,-189.0,137.0,-441.0,48.0,88.0,-742.0,-600.0
34.0,-182.0,-175.0,164.0,-480.0,53.0,55.0,-690.0,-569.0
30.0,-170.0,-172.0,187.0,-507.0,53.0,39.0,-643.0,-535.0
23.0,-166.0,-163.0,204.0,-518.0,50.0,17.0,-611.0,-500.0
30.0,-158.0,-159.0,216.0,-519.0,50.0,16.0,-590.0,-475.0
28.0,-153.0,-156.0,216.0,-510.0,53.0,30.0,-576.0,-470.0
29.0,-155.0,-153.0,193.0,-494.0,61.0,57.0,-577.0,-466.0
43.0,-158.0,-153.0,147.0,-468.0,78.0,72.0,-587.0,-468.0
50.0,-163.0,-157.0,82.0,-435.0,99.0,95.0,-608.0,-456.0
52.0,-170.0,-149.0,14.0,-398.0,122.0,109.0,-645.0,-453.0
56.0,-184.0,-150.0,-48.0,-362.0,146.0,123.0,-678.0,-446.0
62.0,-191.0,-149.0,-97.0,-324.0,168.0,141.0,-718.0,-441.0
63.0,-204.0,-152.0,-134.0,-284.0,186.0,153.0,-757.0,-440.0
66.0,-210.0,-146.0,-157.0,-241.0,201.0,166.0,-794.0,-428.0
67.0,-216.0,-144.0,-164.0,-195.0,213.0,176.0,-817.0,-430.0
70.0,-227.0,-145.0,-156.0,-140.0,217.0,181.0,-839.0,-425.0
69.0,-228.0,-147.0,-140.0,-83.0,216.0,188.0,-857.0,-434.0
71.0,-234.0,-152.0,-126.0,-20.0,212.0,189.0,-871.0,-440.0
70.0,-235.0,-152.0,-116.0,44.0,211.0,182.0,-888.0,-447.0
68.0,-241.0,-155.0,-117.0,105.0,216.0,180.0,-909.0,-460.0
67.0,-245.0,-156.0,-126.0,160.0,229.0,169.0,-925.0,-462.0
62.0,-250.0,-161.0,-144.0,206.0,252.0,144.0,-934.0,-472.0
55.0,-250.0,-157.0,-163.0,247.0,282.0,125.0,-944.0,-481.0
49.0,-252.0,-160.0,-178.0,278.0,319.0,97.0,-950.0,-481.0
43.0,-255.0,-162.0,-181.0,301.0,354.0,80.0,-957.0,-492.0
39.0,-253.0,-163.0,-174.0,319.0,385.0,65.0,-956.0,-497.0
33.0,-255.0,-167.0,-154.0,331.0,417.0,55.0,-954.0,-501.0
32.0,-253.0,-168.0,-123.0,341.0,448.0,37.0,-944.0,-503.0
26.0,-250.0,-165.0,-82.0,350.0,477.0,27.0,-942.0,-504.0
27.0,-247.0,-163.0,-43.0,357.0,501.0,22.0,-925.0,-500.0
29.0,-240.0,-164.0,-6.0,369.0,519.0,22.0,-910.0,-496.0
30.0,-235.0,-162.0,24.0,386.0,533.0,32.0,-900.0,-493.0
29.0,-232.0,-162.0,47.0,404.0,541.0,38.0,-878.0,-488.0
32.0,-229.0,-161.0,65.0,423.0,539.0,32.0,-862.0,-493.0
32.0,-225.0,-162.0,69.0,443.0,538.0,36.0,-848.0,-490.0
31.0,-223.0,-163.0,69.0,463.0,530.0,34.0,-835.0,-484.0
30.0,-222.0,-160.0,65.0,485.0,522.0,32.0,-827.0,-480.0
29.0,-215.0,-157.0,63.0,502.0,509.0,30.0,-820.0,-471.0
27.0,-218.0,-153.0,53.0,516.0,501.0,22.0,-823.0,-458.0
27.0,-216.0,-146.0,38.0,521.0,497.0,15.0,-823.0,-441.0
23.0,-218.0,-145.0,17.0,521.0,499.0,1.0,-825.0,-426.0
19.0,-220.0,-140.0,-9.0,519.0,500.0,-3.0,-828.0,-411.0
16.0,-220.0,-136.0,-26.0,518.0,502.0,-12.0,-839.0,-393.0
15.0,-228.0,-133.0,-38.0,517.0,501.0,-26.0,-849.0,-378.0
10.0,-225.0,-133.0,-47.0,514.0,500.0,-34.0,-858.0,-369.0
7.0,-228.0,-131.0,-56.0,510.0,499.0,-49.0,-864.0,-357.0
7.0,-234.0,-122.0,-62.0,509.0,500.0,-58.0,-870.0,-345.0
3.0,-233.0,-124.0,-72.0,506.0,501.0,-68.0,-879.0,-329.0
-1.0,-236.0,-121.0,-77.0,499.0,504.0,-81.0,-887.0,-317.0
-4.0,-238.0,-118.0,-65.0,493.0,500.0,-92.0,-896.0,-311.0
0.0,-241.0,-115.0,-38.0,491.0,493.0,-96.0,-900.0,-301.0
-1.0,-241.0,-110.0,1.0,489.0,481.0,-91.0,-908.0,-289.0
-1.0,-239.0,-111.0,37.0,484.0,470.0,-90.0,-905.0,-287.0
1.0,-240.0,-112.0,64.0,476.0,458.0,-74.0,-901.0,-271.0
1.0,-235.0,-110.0,82.0,469.0,444.0,-78.0,-891.0,-273.0
4.0,-235.0,-103.0,93.0,463.0,435.0,-72.0,-885.0,-270.0
5.0,-235.0,-101.0,103.0,462.0,418.0,-66.0,-878.0,-260.0
8.0,-230.0,-101.0,114.0,459.0,402.0,-55.0,-871.0,-255.0
11.0,-231.0,-101.0,120.0,452.0,389.0,-41.0,-867.0,-247.0
13.0,-225.0,-101.0,121.0,442.0,376.0,-31.0,-852.0,-241.0
18.0,-224.0,-97.0,120.0,432.0,354.0,-28.0,-847.0,-233.0
15.0,-223.0,-99.0,116.0,423.0,330.0,-21.0,-842.0,-231.0
17.0,-223.0,-98.0,104.0,414.0,309.0,-26.0,-840.0,-241.0
17.0,-222.0,-100.0,77.0,399.0,294.0,-24.0,-835.0,-245.0
14.0,-217.0,-105.0,46.0,380.0,286.0,-25.0,-829.0,-250.0
13.0,-220.0,-103.0,10.0,360.0,275.0,-28.0,-827.0,-247.0
12.0,-222.0,-105.0,-15.0,337.0,262.0,-29.0,-826.0,-249.0
11.0,-218.0,-102.0,-33.0,314.0,248.0,-36.0,-833.0,-252.0
10.0,-222.0,-104.0,-44.0,292.0,234.0,-45.0,-836.0,-247.0
6.0,-224.0,-107.0,-47.0,267.0,223.0,-46.0,-843.0,-250.0
3.0,-224.0,-106.0,-47.0,244.0,213.0,-52.0,-851.0,-250.0
4.0,-226.0,-101.0,-42.0,224.0,204.0,-59.0,-859.0,-245.0
4.0,-232.0,-99.0,-37.0,213.0,192.0,-55.0,-865.0,-231.0
4.0,-232.0,-91.0,-31.0,203.0,179.0,-58.0,-874.0,-215.0
3.0,-236.0,-95.0,-22.0,191.0,169.0,-62.0,-900.0,-211.0
5.0,-241.0,-93.0,-11.0,181.0,159.0,-64.0,-910.0,-216.0
1.0,-241.0,-94.0,-2.0,176.0,151.0,-69.0,-922.0,-219.0
2.0,-251.0,-99.0,4.0,178.0,141.0,-68.0,-937.0,-219.0
5.0,-250.0,-92.0,6.0,181.0,130.0,-65.0,-947.0,-214.0
6.0,-256.0,-88.0,13.0,187.0,124.0,-56.0,-976.0,-207.0
7.0,-262.0,-85.0,26.0,192.0,116.0,-45.0,-997.0,-189.0
10.0,-267.0,-90.0,47.0,194.0,109.0,-34.0,-1018.0,-195.0
8.0,-283.0,-93.0,71.0,192.0,103.0,-42.0,-1038.0,-203.0
11.0,-275.0,-94.0,94.0,186.0,105.0,-41.0,-1052.0,-210.0
12.0,-277.0,-99.0,111.0,176.0,108.0,-42.0,-1052.0,-235.0
9.0,-276.0,-104.0,116.0,168.0,114.0,-47.0,-1062.0,-258.0
5.0,-276.0,-104.0,114.0,161.0,124.0,-49.0,-1060.0,-277.0
5.0,-275.0,-111.0,109.0,153.0,137.0,-56.0,-1057.0,-277.0
3.0,-275.0,-110.0,99.0,146.0,145.0,-60.0,-1060.0,-271.0
2.0,-277.0,-111.0,96.0,142.0,145.0,-61.0,-1062.0,-260.0
7.0,-279.0,-106.0,100.0,139.0,144.0,-63.0,-1062.0,-258.0
5.0,-278.0,-103.0,103.0,139.0,142.0,-57.0,-1066.0,-253.0
10.0,-279.0,-99.0,98.0,144.0,138.0,-55.0,-1073.0,-240.0
14.0,-279.0,-96.0,84.0,150.0,138.0,-42.0,-1078.0,-227.0
19.0,-285.0,-90.0,68.0,156.0,137.0,-16.0,-1083.0,-206.0
24.0,-289.0,-82.0,46.0,167.0,134.0,17.0,-1094.0,-176.0
31.0,-291.0,-73.0,29.0,181.0,133.0,34.0,-1110.0,-145.0
35.0,-293.0,-67.0,17.0,200.0,132.0,55.0,-1122.0,-115.0
45.0,-297.0,-64.0,14.0,225.0,131.0,86.0,-1128.0,-97.0
56.0,-297.0,-63.0,13.0,256.0,129.0,122.0,-1140.0,-86.0
67.0,-301.0,-66.0,16.0,303.0,128.0,158.0,-1142.0,-90.0
81.0,-298.0,-77.0,20.0,359.0,132.0,221.0,-1153.0,-121.0
98.0,-307.0,-85.0,13.0,429.0,129.0,281.0,-1165.0,-176.0
105.0,-305.0,-105.0,-15.0,520.0,129.0,306.0,-1174.0,-246.0
106.0,-302.0,-131.0,-71.0,635.0,149.0,310.0,-1177.0,-356.0
97.0,-305.0,-165.0,-172.0,763.0,198.0,285.0,-1180.0,-482.0
72.0,-308.0,-184.0,-333.0,884.0,258.0,219.0,-1188.0,-576.0
62.0,-319.0,-188.0,-518.0,952.0,314.0,155.0,-1212.0,-604.0
33.0,-328.0,-186.0,-669.0,945.0,365.0,49.0,-1255.0,-591.0
11.0,-341.0,-182.0,-742.0,878.0,424.0,-16.0,-1288.0,-569.0
-2.0,-345.0,-182.0,-723.0,772.0,489.0,-92.0,-1307.0,-567.0
-16.0,-343.0,-185.0,-641.0,669.0,552.0,-150.0,-1300.0,-586.0
-32.0,-335.0,-187.0,-528.0,591.0,603.0,-198.0,-1260.0,-611.0
-41.0,-323.0,-194.0,-393.0,531.0,635.0,-226.0,-1208.0,-636.0
-46.0,-312.0,-203.0,-255.0,478.0,641.0,-255.0,-1160.0,-662.0
-53.0,-295.0,-209.0,-133.0,424.0,630.0,-278.0,-1110.0,-684.0
-53.0,-281.0,-214.0,-37.0,378.0,609.0,-284.0,-1060.0,-693.0
-49.0,-267.0,-213.0,44.0,340.0,582.0,-282.0,-996.0,-700.0
-54.0,-249.0,-213.0,115.0,309.0,550.0,-283.0,-937.0,-699.0
-55.0,-229.0,-208.0,175.0,271.0,512.0,-288.0,-844.0,-685.0
-49.0,-208.0,-202.0,237.0,225.0,473.0,-270.0,-770.0,-647.0
-37.0,-190.0,-190.0,307.0,185.0,434.0,-222.0,-690.0,-609.0
-19.0,-167.0,-180.0,383.0,159.0,396.0,-169.0,-609.0,-564.0
-1.0,-149.0,-177.0,455.0,161.0,359.0,-107.0,-553.0,-537.0
19.0,-131.0,-171.0,508.0,194.0,319.0,-28.0,-483.0,-510.0
38.0,-120.0,-166.0,525.0,252.0,283.0,50.0,-442.0,-499.0
56.0,-115.0,-165.0,499.0,329.0,254.0,127.0,-429.0,-491.0
66.0,-121.0,-162.0,426.0,426.0,220.0,156.0,-443.0,-482.0
72.0,-126.0,-159.0,309.0,521.0,182.0,177.0,-484.0,-468.0
71.0,-140.0,-159.0,155.0,612.0,140.0,179.0,-546.0,-468.0
63.0,-162.0,-155.0,-21.0,698.0,94.0,152.0,-617.0,-452.0
57.0,-184.0,-151.0,-182.0,776.0,60.0,131.0,-692.0,-437.0
48.0,-200.0,-145.0,-304.0,838.0,33.0,96.0,-773.0,-424.0
37.0,-228.0,-140.0,-387.0,873.0,2.0,58.0,-844.0,-402.0
25.0,-243.0,-137.0,-421.0,881.0,-23.0,9.0,-916.0,-385.0
6.0,-255.0,-136.0,-414.0,865.0,-40.0,-55.0,-966.0,-388.0
-12.0,-268.0,-139.0,-381.0,833.0,-50.0,-118.0,-1004.0,-393.0
-27.0,-274.0,-141.0,-336.0,786.0,-54.0,-185.0,-1028.0,-412.0
-45.0,-279.0,-142.0,-288.0,726.0,-54.0,-235.0,-1042.0,-433.0
-56.0,-278.0,-150.0,-243.0,658.0,-56.0,-297.0,-1050.0,-446.0
-65.0,-277.0,-155.0,-202.0,589.0,-65.0,-333.0,-1056.0,-475.0
-71.0,-271.0,-159.0,-164.0,529.0,-80.0,-363.0,-1021.0,-486.0
-80.0,-266.0,-162.0,-131.0,470.0,-101.0,-373.0,-996.0,-488.0
-73.0,-258.0,-160.0,-102.0,408.0,-128.0,-354.0,-965.0,-491.0
-59.0,-248.0,-156.0,-65.0,337.0,-168.0,-308.0,-943.0,-467.0
-45.0,-243.0,-152.0,-19.0,263.0,-218.0,-249.0,-907.0,-445.0
-27.0,-234.0,-145.0,38.0,199.0,-282.0,-189.0,-885.0,-434.0
-2.0,-223.0,-150.0,87.0,142.0,-349.0,-130.0,-853.0,-415.0
0.0,-219.0,-138.0,123.0,95.0,-406.0,-76.0,-838.0,-397.0
11.0,-215.0,-135.0,149.0,58.0,-455.0,-33.0,-812.0,-384.0
25.0,-210.0,-134.0,168.0,31.0,-498.0,14.0,-800.0,-383.0
31.0,-207.0,-134.0,178.0,12.0,-539.0,41.0,-778.0,-387.0
38.0,-206.0,-140.0,172.0,-3.0,-570.0,60.0,-777.0,-386.0
45.0,-205.0,-138.0,144.0,-11.0,-595.0,80.0,-769.0,-397.0
44.0,-200.0,-139.0,104.0,-12.0,-612.0,89.0,-768.0,-408.0
45.0,-198.0,-135.0,51.0,-9.0,-623.0,89.0,-763.0,-412.0
45.0,-199.0,-141.0,1.0,0.0,-626.0,86.0,-762.0,-415.0
41.0,-204.0,-143.0,-49.0,11.0,-625.0,78.0,-763.0,-411.0
40.0,-205.0,-140.0,-93.0,19.0,-616.0,75.0,-775.0,-411.0
38.0,-207.0,-141.0,-138.0,21.0,-592.0,66.0,-797.0,-411.0
35.0,-213.0,-140.0,-190.0,20.0,-566.0,54.0,-806.0,-400.0
34.0,-219.0,-133.0,-234.0,18.0,-538.0,50.0,-823.0,-387.0
28.0,-222.0,-125.0,-257.0,12.0,-513.0,43.0,-840.0,-367.0
31.0,-226.0,-129.0,-246.0,5.0,-495.0,32.0,-844.0,-355.0
25.0,-228.0,-132.0,-227.0,-1.0,-486.0,20.0,-855.0,-353.0
27.0,-233.0,-123.0,-205.0,-6.0,-472.0,14.0,-870.0,-343.0
27.0,-235.0,-119.0,-178.0,-17.0,-448.0,17.0,-881.0,-326.0
26.0,-234.0,-116.0,-153.0,-31.0,-426.0,18.0,-885.0,-310.0
27.0,-236.0,-113.0,-130.0,-46.0,-401.0,21.0,-886.0,-302.0
29.0,-236.0,-111.0,-96.0,-63.0,-374.0,34.0,-887.0,-284.0
32.0,-238.0,-108.0,-53.0,-82.0,-353.0,42.0,-885.0,-272.0
30.0,-238.0,-104.0,-12.0,-94.0,-334.0,40.0,-882.0,-265.0
35.0,-236.0,-106.0,23.0,-102.0,-312.0,46.0,-884.0,-255.0
31.0,-232.0,-101.0,51.0,-109.0,-295.0,54.0,-878.0,-241.0
36.0,-230.0,-97.0,78.0,-113.0,-283.0,62.0,-863.0,-225.0
37.0,-224.0,-94.0,115.0,-110.0,-276.0,69.0,-836.0,-217.0
39.0,-220.0,-96.0,145.0,-107.0,-271.0,72.0,-826.0,-219.0
42.0,-217.0,-95.0,165.0,-102.0,-267.0,67.0,-810.0,-219.0
40.0,-208.0,-93.0,167.0,-96.0,-267.0,69.0,-797.0,-221.0
39.0,-207.0,-95.0,152.0,-90.0,-268.0,72.0,-787.0,-219.0
39.0,-204.0,-99.0,123.0,-83.0,-269.0,65.0,-781.0,-225.0
38.0,-203.0,-92.0,88.0,-80.0,-265.0,65.0,-769.0,-223.0
38.0,-205.0,-94.0,53.0,-82.0,-259.0,68.0,-775.0,-216.0
37.0,-205.0,-93.0,24.0,-91.0,-249.0,65.0,-783.0,-214.0
35.0,-208.0,-90.0,-10.0,-102.0,-239.0,65.0,-795.0,-215.0
35.0,-213.0,-88.0,-35.0,-109.0,-227.0,56.0,-809.0,-199.0
33.0,-218.0,-89.0,-48.0,-118.0,-210.0,53.0,-834.0,-194.0
29.0,-226.0,-89.0,-48.0,-131.0,-189.0,37.0,-854.0,-189.0
26.0,-231.0,-89.0,-40.0,-154.0,-159.0,20.0,-877.0,-196.0
21.0,-238.0,-94.0,-28.0,-186.0,-127.0,10.0,-899.0,-206.0
17.0,-239.0,-94.0,-17.0,-223.0,-91.0,2.0,-917.0,-213.0
15.0,-248.0,-100.0,-5.0,-265.0,-57.0,-9.0,-933.0,-228.0
13.0,-249.0,-102.0,11.0,-308.0,-19.0,-27.0,-942.0,-239.0
11.0,-252.0,-103.0,23.0,-353.0,19.0,-45.0,-958.0,-254.0
8.0,-261.0,-103.0,39.0,-396.0,55.0,-49.0,-980.0,-257.0
5.0,-263.0,-103.0,61.0,-432.0,89.0,-54.0,-1002.0,-252.0
3.0,-276.0,-100.0,91.0,-462.0,124.0,-63.0,-1031.0,-234.0
2.0,-283.0,-93.0,128.0,-482.0,153.0,-62.0,-1072.0,-223.0
8.0,-293.0,-93.0,163.0,-506.0,175.0,-57.0,-1111.0,-210.0
17.0,-304.0,-88.0,195.0,-519.0,184.0,-31.0,-1143.0,-199.0
28.0,-317.0,-85.0,233.0,-514.0,179.0,15.0,-1192.0,-179.0
42.0,-323.0,-77.0,276.0,-492.0,160.0,73.0,-1230.0,-158.0
57.0,-331.0,-78.0,325.0,-458.0,133.0,133.0,-1252.0,-142.0
73.0,-330.0,-78.0,378.0,-419.0,88.0,187.0,-1258.0,-151.0
83.0,-325.0,-80.0,421.0,-379.0,33.0,235.0,-1242.0,-174.0
97.0,-320.0,-87.0,442.0,-341.0,-33.0,277.0,-1209.0,-188.0
106.0,-309.0,-85.0,439.0,-306.0,-106.0,313.0,-1182.0,-196.0
115.0,-302.0,-76.0,420.0,-273.0,-184.0,337.0,-1155.0,-169.0
119.0,-298.0,-71.0,400.0,-237.0,-265.0,365.0,-1141.0,-103.0
121.0,-299.0,-56.0,395.0,-195.0,-340.0,368.0,-1134.0,-57.0
117.0,-297.0,-50.0,401.0,-147.0,-401.0,352.0,-1128.0,-32.0
110.0,-297.0,-48.0,411.0,-93.0,-447.0,330.0,-1132.0,-33.0
101.0,-300.0,-55.0,404.0,-33.0,-462.0,294.0,-1147.0,-71.0
86.0,-302.0,-71.0,365.0,22.0,-456.0,262.0,-1162.0,-141.0
78.0,-301.0,-96.0,281.0,72.0,-429.0,207.0,-1178.0,-252.0
63.0,-308.0,-133.0,136.0,111.0,-375.0,142.0,-1197.0,-388.0
38.0,-314.0,-166.0,-74.0,139.0,-305.0,61.0,-1228.0,-510.0
14.0,-323.0,-200.0,-328.0,145.0,-248.0,-13.0,-1279.0,-627.0
2.0,-343.0,-222.0,-605.0,133.0,-224.0,-77.0,-1332.0,-713.0
-6.0,-369.0,-226.0,-863.0,130.0,-227.0,-112.0,-1412.0,-747.0
-9.0,-389.0,-217.0,-1052.0,142.0,-252.0,-124.0,-1488.0,-734.0
7.0,-410.0,-209.0,-1130.0,173.0,-286.0,-70.0,-1542.0,-706.0
33.0,-417.0,-210.0,-1082.0,211.0,-343.0,24.0,-1555.0,-692.0
56.0,-412.0,-217.0,-910.0,265.0,-429.0,116.0,-1543.0,-714.0
64.0,-397.0,-230.0,-665.0,329.0,-506.0,158.0,-1504.0,-763.0
59.0,-379.0,-244.0,-415.0,381.0,-555.0,144.0,-1431.0,-825.0
45.0,-353.0,-255.0,-200.0,387.0,-567.0,105.0,-1336.0,-876.0
34.0,-321.0,-260.0,-25.0,338.0,-552.0,65.0,-1210.0,-898.0
26.0,-293.0,-255.0,150.0,249.0,-527.0,33.0,-1099.0,-873.0
21.0,-259.0,-239.0,341.0,145.0,-497.0,13.0,-974.0,-823.0
19.0,-231.0,-225.0,541.0,41.0,-457.0,7.0,-871.0,-768.0
17.0,-200.0,-212.0,717.0,-65.0,-402.0,-2.0,-751.0,-710.0
13.0,-167.0,-203.0,859.0,-174.0,-341.0,-20.0,-643.0,-663.0
16.0,-138.0,-198.0,963.0,-284.0,-278.0,-17.0,-525.0,-636.0
14.0,-113.0,-189.0,1021.0,-382.0,-222.0,-17.0,-414.0,-609.0
15.0,-85.0,-186.0,1022.0,-451.0,-180.0,-21.0,-320.0,-578.0
13.0,-65.0,-175.0,971.0,-488.0,-152.0,-36.0,-252.0,-542.0
5.0,-59.0,-162.0,861.0,-504.0,-128.0,-52.0,-225.0,-499.0
4.0,-59.0,-155.0,689.0,-504.0,-98.0,-69.0,-221.0,-456.0
1.0,-64.0,-142.0,473.0,-490.0,-58.0,-83.0,-249.0,-418.0
0.0,-81.0,-136.0,235.0,-473.0,-14.0,-105.0,-301.0,-388.0
-12.0,-100.0,-132.0,-11.0,-453.0,37.0,-118.0,-378.0,-368.0
-8.0,-126.0,-127.0,-239.0,-436.0,96.0,-114.0,-463.0,-333.0
0.0,-146.0,-124.0,-430.0,-420.0,152.0,-93.0,-575.0,-322.0
7.0,-172.0,-114.0,-566.0,-398.0,201.0,-55.0,-653.0,-314.0
16.0,-196.0,-120.0,-652.0,-371.0,240.0,-23.0,-739.0,-313.0
29.0,-213.0,-118.0,-694.0,-337.0,270.0,14.0,-805.0,-313.0
35.0,-227.0,-125.0,-702.0,-298.0,291.0,51.0,-856.0,-327.0
46.0,-240.0,-129.0,-682.0,-255.0,299.0,90.0,-902.0,-356.0
54.0,-247.0,-132.0,-639.0,-209.0,291.0,115.0,-928.0,-387.0
60.0,-255.0,-142.0,-590.0,-162.0,275.0,140.0,-954.0,-416.0
66.0,-261.0,-151.0,-539.0,-121.0,257.0,156.0,-974.0,-440.0
64.0,-264.0,-152.0,-493.0,-90.0,240.0,171.0,-993.0,-454.0
65.0,-269.0,-154.0,-449.0,-66.0,227.0,172.0,-1007.0,-448.0
65.0,-269.0,-148.0,-392.0,-41.0,218.0,170.0,-1017.0,-448.0
65.0,-271.0,-147.0,-320.0,-17.0,212.0,161.0,-1014.0,-432.0
62.0,-271.0,-145.0,-229.0,3.0,208.0,150.0,-1014.0,-424.0
56.0,-267.0,-144.0,-126.0,17.0,209.0,132.0,-1006.0,-421.0
51.0,-265.0,-137.0,-24.0,25.0,217.0,117.0,-993.0,-404.0
45.0,-257.0,-138.0,69.0,32.0,231.0,78.0,-972.0,-390.0
34.0,-254.0,-137.0,147.0,34.0,252.0,50.0,-952.0,-388.0
27.0,-249.0,-134.0,206.0,34.0,272.0,13.0,-933.0,-374.0
18.0,-244.0,-129.0,247.0,37.0,287.0,-26.0,-911.0,-369.0
8.0,-237.0,-129.0,286.0,38.0,298.0,-46.0,-887.0,-369.0
2.0,-231.0,-129.0,306.0,45.0,308.0,-75.0,-874.0,-370.0
-3.0,-227.0,-135.0,301.0,54.0,321.0,-104.0,-862.0,-370.0
-9.0,-221.0,-131.0,273.0,62.0,339.0,-119.0,-846.0,-366.0
-10.0,-216.0,-129.0,236.0,72.0,352.0,-124.0,-824.0,-365.0
-13.0,-214.0,-131.0,199.0,79.0,361.0,-137.0,-802.0,-367.0
-10.0,-210.0,-129.0,158.0,78.0,370.0,-126.0,-795.0,-370.0
-6.0,-206.0,-130.0,112.0,73.0,381.0,-111.0,-782.0,-374.0
-5.0,-207.0,-127.0,57.0,70.0,394.0,-105.0,-780.0,-367.0
0.0,-205.0,-128.0,-2.0,72.0,408.0,-94.0,-781.0,-355.0
2.0,-203.0,-126.0,-57.0,76.0,417.0,-75.0,-778.0,-338.0
5.0,-206.0,-125.0,-98.0,77.0,424.0,-61.0,-781.0,-323.0
9.0,-208.0,-121.0,-133.0,70.0,432.0,-49.0,-795.0,-330.0
10.0,-213.0,-120.0,-172.0,58.0,440.0,-41.0,-805.0,-331.0
10.0,-216.0,-126.0,-217.0,48.0,446.0,-41.0,-822.0,-332.0
13.0,-223.0,-124.0,-260.0,39.0,450.0,-32.0,-854.0,-318.0
14.0,-233.0,-119.0,-285.0,36.0,449.0,-34.0,-872.0,-303.0
15.0,-240.0,-114.0,-284.0,43.0,444.0,-24.0,-904.0,-288.0
16.0,-246.0,-104.0,-260.0,59.0,433.0,-27.0,-927.0,-273.0
18.0,-251.0,-107.0,-216.0,80.0,419.0,-25.0,-941.0,-261.0
15.0,-252.0,-104.0,-164.0,99.0,403.0,-20.0,-948.0,-252.0
15.0,-251.0,-101.0,-107.0,117.0,387.0,-20.0,-949.0,-242.0
17.0,-250.0,-97.0,-49.0,133.0,367.0,-26.0,-942.0,-231.0
13.0,-249.0,-94.0,11.0,150.0,345.0,-31.0,-932.0,-225.0
15.0,-245.0,-95.0,72.0,165.0,322.0,-32.0,-919.0,-212.0
12.0,-240.0,-95.0,127.0,182.0,298.0,-38.0,-898.0,-210.0
11.0,-233.0,-96.0,170.0,198.0,274.0,-48.0,-876.0,-205.0
12.0,-225.0,-89.0,202.0,212.0,249.0,-48.0,-852.0,-193.0
8.0,-219.0,-81.0,226.0,229.0,224.0,-46.0,-831.0,-187.0
12.0,-216.0,-81.0,230.0,244.0,200.0,-50.0,-812.0,-175.0
9.0,-208.0,-85.0,217.0,261.0,180.0,-46.0,-801.0,-161.0
9.0,-205.0,-78.0,186.0,275.0,166.0,-41.0,-783.0,-155.0
13.0,-202.0,-76.0,138.0,288.0,155.0,-40.0,-776.0,-147.0
12.0,-205.0,-80.0,84.0,301.0,145.0,-36.0,-787.0,-143.0
15.0,-205.0,-74.0,26.0,314.0,133.0,-33.0,-788.0,-143.0
13.0,-212.0,-78.0,-29.0,326.0,120.0,-21.0,-811.0,-144.0
17.0,-219.0,-75.0,-73.0,336.0,105.0,-11.0,-833.0,-144.0
26.0,-231.0,-79.0,-98.0,351.0,87.0,1.0,-861.0,-143.0
30.0,-237.0,-79.0,-106.0,373.0,62.0,13.0,-899.0,-145.0
31.0,-249.0,-78.0,-93.0,403.0,38.0,33.0,-932.0,-146.0
34.0,-257.0,-81.0,-63.0,438.0,13.0,49.0,-967.0,-152.0
40.0,-265.0,-86.0,-25.0,479.0,-8.0,69.0,-1005.0,-157.0
42.0,-272.0,-83.0,23.0,518.0,-20.0,80.0,-1031.0,-164.0
43.0,-278.0,-78.0,78.0,554.0,-23.0,87.0,-1061.0,-158.0
43.0,-286.0,-71.0,137.0,586.0,-21.0,78.0,-1081.0,-138.0
40.0,-293.0,-69.0,198.0,616.0,-15.0,61.0,-1107.0,-122.0
28.0,-296.0,-70.0,259.0,639.0,3.0,30.0,-1122.0,-124.0
18.0,-301.0,-74.0,312.0,647.0,29.0,1.0,-1130.0,-136.0
5.0,-300.0,-81.0,343.0,645.0,64.0,-45.0,-1143.0,-164.0
-9.0,-298.0,-89.0,362.0,640.0,99.0,-103.0,-1147.0,-185.0
-25.0,-299.0,-91.0,358.0,633.0,137.0,-177.0,-1142.0,-210.0
-37.0,-298.0,-97.0,330.0,613.0,176.0,-220.0,-1139.0,-211.0
-43.0,-297.0,-88.0,283.0,591.0,215.0,-255.0,-1148.0,-205.0
-42.0,-304.0,-84.0,221.0,574.0,255.0,-238.0,-1162.0,-187.0
-32.0,-306.0,-77.0,165.0,568.0,290.0,-203.0,-1172.0,-146.0
-17.0,-312.0,-62.0,134.0,572.0,311.0,-150.0,-1177.0,-95.0
1.0,-310.0,-55.0,137.0,578.0,316.0,-76.0,-1177.0,-50.0
22.0,-310.0,-42.0,174.0,583.0,307.0,4.0,-1172.0,-5.0
45.0,-304.0,-38.0,234.0,589.0,280.0,77.0,-1148.0,10.0
64.0,-298.0,-46.0,294.0,597.0,243.0,150.0,-1133.0,-17.0
76.0,-297.0,-63.0,346.0,622.0,201.0,206.0,-1131.0,-77.0
81.0,-299.0,-80.0,365.0,674.0,170.0,228.0,-1143.0,-163.0
77.0,-306.0,-115.0,341.0,751.0,147.0,204.0,-1180.0,-297.0
56.0,-310.0,-154.0,247.0,852.0,142.0,137.0,-1210.0,-450.0
33.0,-313.0,-198.0,58.0,974.0,158.0,48.0,-1234.0,-620.0
12.0,-323.0,-232.0,-205.0,1086.0,190.0,-32.0,-1279.0,-752.0
-19.0,-336.0,-233.0,-485.0,1149.0,235.0,-144.0,-1297.0,-793.0
-45.0,-356.0,-235.0,-672.0,1129.0,331.0,-234.0,-1360.0,-788.0
-71.0,-371.0,-234.0,-746.0,1023.0,435.0,-338.0,-1406.0,-792.0
-96.0,-374.0,-244.0,-740.0,862.0,541.0,-430.0,-1421.0,-813.0
-107.0,-374.0,-247.0,-686.0,693.0,646.0,-486.0,-1408.0,-834.0
-109.0,-365.0,-245.0,-597.0,546.0,755.0,-493.0,-1361.0,-838.0
-100.0,-343.0,-246.0,-466.0,430.0,849.0,-469.0,-1287.0,-842.0
-71.0,-320.0,-253.0,-283.0,337.0,907.0,-378.0,-1186.0,-851.0
-45.0,-292.0,-247.0,-63.0,265.0,915.0,-273.0,-1084.0,-863.0
-13.0,-263.0,-251.0,178.0,218.0,880.0,-149.0,-977.0,-846.0
9.0,-240.0,-233.0,417.0,195.0,797.0,-58.0,-864.0,-798.0
18.0,-210.0,-223.0,642.0,197.0,684.0,-6.0,-770.0,-744.0
16.0,-187.0,-209.0,829.0,203.0,557.0,-7.0,-691.0,-687.0
19.0,-164.0,-205.0,944.0,196.0,440.0,-10.0,-608.0,-643.0
12.0,-142.0,-191.0,975.0,172.0,341.0,-33.0,-524.0,-607.0
23.0,-126.0,-186.0,935.0,140.0,278.0,-7.0,-467.0,-581.0
41.0,-113.0,-181.0,840.0,114.0,240.0,68.0,-430.0,-564.0
62.0,-112.0,-176.0,702.0,119.0,210.0,151.0,-433.0,-544.0
75.0,-120.0,-165.0,530.0,158.0,170.0,201.0,-455.0,-493.0
79.0,-130.0,-144.0,345.0,209.0,127.0,229.0,-516.0,-423.0
87.0,-154.0,-130.0,167.0,262.0,77.0,250.0,-593.0,-354.0
89.0,-179.0,-122.0,14.0,312.0,27.0,248.0,-694.0,-313.0
78.0,-200.0,-117.0,-115.0,359.0,-20.0,218.0,-776.0,-303.0
64.0,-221.0,-115.0,-227.0,397.0,-64.0,161.0,-857.0,-301.0
45.0,-237.0,-125.0,-324.0,420.0,-97.0,82.0,-927.0,-325.0
25.0,-248.0,-130.0,-402.0,429.0,-126.0,0.0,-951.0,-366.0
0.0,-256.0,-140.0,-456.0,432.0,-153.0,-88.0,-975.0,-393.0
-22.0,-260.0,-142.0,-483.0,422.0,-187.0,-174.0,-987.0,-424.0
-42.0,-263.0,-147.0,-493.0,397.0,-225.0,-258.0,-981.0,-429.0
-64.0,-258.0,-148.0,-489.0,353.0,-262.0,-327.0,-981.0,-437.0
-84.0,-258.0,-147.0,-478.0,286.0,-296.0,-389.0,-968.0,-436.0
-94.0,-253.0,-145.0,-460.0,198.0,-330.0,-448.0,-950.0,-427.0
-111.0,-245.0,-136.0,-435.0,97.0,-363.0,-490.0,-934.0,-401.0
-115.0,-245.0,-130.0,-395.0,-9.0,-398.0,-514.0,-911.0,-374.0
-117.0,-234.0,-121.0,-339.0,-124.0,-434.0,-513.0,-888.0,-350.0
-105.0,-228.0,-121.0,-273.0,-239.0,-476.0,-492.0,-853.0,-323.0
-94.0,-220.0,-115.0,-195.0,-354.0,-524.0,-443.0,-827.0,-305.0
-77.0,-216.0,-114.0,-113.0,-470.0,-575.0,-382.0,-806.0,-301.0
-61.0,-209.0,-120.0,-48.0,-585.0,-632.0,-308.0,-793.0,-302.0
-34.0,-206.0,-121.0,-9.0,-687.0,-685.0,-230.0,-785.0,-309.0
-17.0,-202.0,-123.0,-3.0,-764.0,-731.0,-168.0,-772.0,-325.0
-2.0,-202.0,-125.0,-20.0,-814.0,-769.0,-95.0,-767.0,-341.0
15.0,-197.0,-127.0,-51.0,-839.0,-796.0,-35.0,-765.0,-341.0
29.0,-204.0,-129.0,-84.0,-848.0,-820.0,18.0,-764.0,-336.0
43.0,-205.0,-123.0,-127.0,-847.0,-838.0,76.0,-776.0,-339.0
55.0,-210.0,-127.0,-167.0,-836.0,-850.0,115.0,-791.0,-334.0
64.0,-216.0,-124.0,-207.0,-819.0,-850.0,153.0,-812.0,-322.0
69.0,-220.0,-117.0,-244.0,-793.0,-844.0,173.0,-828.0,-311.0
70.0,-226.0,-116.0,-269.0,-764.0,-825.0,187.0,-841.0,-298.0
70.0,-231.0,-113.0,-281.0,-739.0,-807.0,184.0,-863.0,-298.0
68.0,-232.0,-111.0,-277.0,-719.0,-790.0,187.0,-880.0,-291.0
64.0,-234.0,-110.0,-257.0,-701.0,-780.0,169.0,-877.0,-291.0
61.0,-237.0,-112.0,-217.0,-688.0,-759.0,154.0,-880.0,-291.0
59.0,-236.0,-113.0,-176.0,-678.0,-739.0,141.0,-885.0,-289.0
57.0,-235.0,-109.0,-139.0,-672.0,-715.0,134.0,-879.0,-285.0
53.0,-233.0,-106.0,-103.0,-670.0,-686.0,122.0,-879.0,-272.0
50.0,-233.0,-109.0,-65.0,-669.0,-653.0,98.0,-874.0,-266.0
40.0,-231.0,-109.0,-28.0,-666.0,-619.0,83.0,-875.0,-268.0
37.0,-232.0,-102.0,4.0,-664.0,-583.0,67.0,-863.0,-267.0
38.0,-230.0,-108.0,28.0,-657.0,-548.0,61.0,-863.0,-260.0
32.0,-227.0,-104.0,51.0,-647.0,-519.0,39.0,-856.0,-246.0
28.0,-223.0,-101.0,76.0,-634.0,-489.0,26.0,-845.0,-238.0
28.0,-224.0,-96.0,104.0,-622.0,-460.0,25.0,-840.0,-225.0
25.0,-218.0,-94.0,127.0,-609.0,-435.0,28.0,-831.0,-210.0
30.0,-220.0,-92.0,144.0,-596.0,-416.0,40.0,-820.0,-207.0
30.0,-214.0,-93.0,152.0,-580.0,-400.0,39.0,-826.0,-201.0
32.0,-214.0,-89.0,147.0,-561.0,-385.0,43.0,-825.0,-194.0
32.0,-217.0,-90.0,127.0,-543.0,-370.0,48.0,-826.0,-192.0
33.0,-218.0,-85.0,98.0,-530.0,-352.0,39.0,-822.0,-186.0
29.0,-218.0,-89.0,68.0,-526.0,-331.0,34.0,-831.0,-175.0
29.0,-217.0,-86.0,42.0,-535.0,-310.0,31.0,-832.0,-177.0
25.0,-221.0,-80.0,19.0,-549.0,-288.0,33.0,-840.0,-171.0
26.0,-224.0,-82.0,6.0,-563.0,-266.0,23.0,-853.0,-168.0
23.0,-229.0,-81.0,-3.0,-574.0,-242.0,13.0,-872.0,-169.0
25.0,-235.0,-81.0,-2.0,-578.0,-217.0,7.0,-893.0,-167.0
19.0,-241.0,-84.0,8.0,-588.0,-191.0,-2.0,-915.0,-162.0
19.0,-250.0,-79.0,21.0,-602.0,-166.0,-8.0,-935.0,-165.0
21.0,-255.0,-81.0,37.0,-613.0,-140.0,2.0,-960.0,-177.0
30.0,-259.0,-84.0,58.0,-618.0,-113.0,17.0,-985.0,-180.0
31.0,-269.0,-83.0,90.0,-621.0,-88.0,27.0,-1010.0,-175.0
32.0,-273.0,-80.0,130.0,-626.0,-62.0,47.0,-1034.0,-175.0
41.0,-283.0,-82.0,178.0,-634.0,-31.0,66.0,-1065.0,-179.0
54.0,-289.0,-86.0,233.0,-630.0,-5.0,102.0,-1092.0,-189.0
55.0,-292.0,-92.0,291.0,-605.0,9.0,129.0,-1115.0,-203.0
62.0,-295.0,-93.0,335.0,-566.0,15.0,143.0,-1124.0,-213.0
60.0,-294.0,-97.0,356.0,-537.0,10.0,146.0,-1125.0,-223.0
56.0,-294.0,-98.0,355.0,-523.0,-4.0,128.0,-1126.0,-235.0
56.0,-290.0,-105.0,337.0,-523.0,-21.0,115.0,-1123.0,-249.0
50.0,-292.0,-99.0,301.0,-521.0,-42.0,98.0,-1116.0,-246.0
44.0,-292.0,-95.0,259.0,-512.0,-71.0,80.0,-1111.0,-222.0
44.0,-295.0,-85.0,231.0,-496.0,-106.0,72.0,-1109.0,-179.0
31.0,-293.0,-68.0,226.0,-483.0,-143.0,62.0,-1109.0,-126.0
37.0,-293.0,-61.0,242.0,-471.0,-182.0,58.0,-1112.0,-74.0
39.0,-292.0,-50.0,274.0,-458.0,-217.0,59.0,-1109.0,-7.0
36.0,-290.0,-34.0,314.0,-447.0,-247.0,65.0,-1110.0,42.0
33.0,-290.0,-16.0,357.0,-437.0,-276.0,59.0,-1111.0,82.0
33.0,-289.0,-7.0,391.0,-426.0,-299.0,42.0,-1108.0,113.0
23.0,-289.0,-10.0,404.0,-423.0,-314.0,10.0,-1108.0,132.0
12.0,-286.0,-6.0,393.0,-421.0,-322.0,-32.0,-1111.0,125.0
1.0,-288.0,-12.0,347.0,-423.0,-327.0,-69.0,-1122.0,95.0
-3.0,-291.0,-33.0,255.0,-435.0,-329.0,-99.0,-1142.0,35.0
0.0,-302.0,-59.0,107.0,-452.0,-329.0,-86.0,-1174.0,-72.0
-4.0,-304.0,-92.0,-113.0,-473.0,-326.0,-97.0,-1196.0,-209.0
-12.0,-310.0,-132.0,-391.0,-493.0,-306.0,-129.0,-1230.0,-382.0
-16.0,-321.0,-171.0,-704.0,-509.0,-275.0,-146.0,-1269.0,-526.0
-12.0,-343.0,-189.0,-996.0,-525.0,-256.0,-141.0,-1321.0,-595.0
3.0,-364.0,-191.0,-1192.0,-539.0,-264.0,-93.0,-1374.0,-613.0
30.0,-380.0,-187.0,-1245.0,-543.0,-302.0,1.0,-1421.0,-595.0
63.0,-384.0,-188.0,-1159.0,-523.0,-357.0,125.0,-1426.0,-586.0
100.0,-381.0,-196.0,-968.0,-489.0,-409.0,267.0,-1422.0,-626.0
129.0,-362.0,-222.0,-751.0,-444.0,-464.0,382.0,-1393.0,-689.0
140.0,-356.0,-224.0,-557.0,-395.0,-523.0,432.0,-1351.0,-744.0
132.0,-338.0,-234.0,-424.0,-350.0,-562.0,423.0,-1281.0,-782.0
120.0,-321.0,-247.0,-273.0,-321.0,-576.0,388.0,-1211.0,-817.0
110.0,-307.0,-254.0,-141.0,-309.0,-566.0,332.0,-1161.0,-857.0
95.0,-294.0,-252.0,-26.0,-307.0,-543.0,287.0,-1104.0,-867.0
86.0,-276.0,-241.0,94.0,-304.0,-520.0,263.0,-1036.0,-829.0
85.0,-256.0,-235.0,245.0,-306.0,-512.0,247.0,-957.0,-797.0
82.0,-232.0,-230.0,439.0,-320.0,-534.0,240.0,-864.0,-766.0
79.0,-201.0,-226.0,649.0,-333.0,-571.0,232.0,-724.0,-746.0
68.0,-166.0,-221.0,825.0,-333.0,-602.0,195.0,-612.0,-728.0
61.0,-139.0,-212.0,931.0,-323.0,-609.0,144.0,-516.0,-691.0
45.0,-117.0,-194.0,964.0,-311.0,-598.0,91.0,-427.0,-629.0
21.0,-99.0,-178.0,932.0,-312.0,-574.0,8.0,-371.0,-563.0
3.0,-93.0,-160.0,846.0,-321.0,-530.0,-76.0,-350.0,-491.0
-15.0,-89.0,-142.0,704.0,-335.0,-456.0,-142.0,-349.0,-420.0
-25.0,-98.0,-128.0,522.0,-356.0,-384.0,-183.0,-381.0,-353.0
-34.0,-113.0,-113.0,313.0,-378.0,-282.0,-204.0,-450.0,-284.0
-37.0,-135.0,-100.0,100.0,-393.0,-175.0,-215.0,-533.0,-232.0
-33.0,-162.0,-94.0,-98.0,-395.0,-70.0,-211.0,-630.0,-202.0
-28.0,-191.0,-84.0,-266.0,-385.0,29.0,-192.0,-725.0,-183.0
-14.0,-211.0,-87.0,-388.0,-363.0,117.0,-148.0,-803.0,-185.0
2.0,-230.0,-96.0,-458.0,-338.0,193.0,-87.0,-874.0,-216.0
22.0,-244.0,-107.0,-504.0,-307.0,261.0,-9.0,-930.0,-258.0
37.0,-248.0,-119.0,-532.0,-274.0,320.0,65.0,-949.0,-314.0
56.0,-253.0,-129.0,-544.0,-239.0,367.0,129.0,-962.0,-365.0
71.0,-255.0,-141.0,-546.0,-208.0,395.0,190.0,-965.0,-401.0
83.0,-256.0,-146.0,-542.0,-183.0,401.0,229.0,-962.0,-429.0
93.0,-258.0,-152.0,-528.0,-161.0,388.0,277.0,-969.0,-442.0
102.0,-257.0,-148.0,-501.0,-135.0,365.0,302.0,-966.0,-448.0
109.0,-258.0,-148.0,-450.0,-95.0,348.0,324.0,-964.0,-437.0
112.0,-256.0,-141.0,-378.0,-40.0,337.0,335.0,-958.0,-424.0
110.0,-252.0,-141.0,-294.0,25.0,333.0,330.0,-951.0,-414.0
102.0,-252.0,-140.0,-206.0,94.0,344.0,313.0,-938.0,-396.0
90.0,-243.0,-131.0,-119.0,162.0,366.0,268.0,-916.0,-377.0
73.0,-238.0,-130.0,-36.0,228.0,394.0,201.0,-904.0,-370.0
63.0,-235.0,-128.0,31.0,284.0,420.0,147.0,-875.0,-354.0
46.0,-230.0,-131.0,71.0,327.0,436.0,99.0,-870.0,-363.0
28.0,-229.0,-133.0,76.0,360.0,453.0,43.0,-862.0,-367.0
17.0,-225.0,-130.0,52.0,383.0,472.0,-10.0,-858.0,-374.0
9.0,-226.0,-133.0,15.0,402.0,483.0,-48.0,-848.0,-374.0
0.0,-224.0,-133.0,-16.0,417.0,483.0,-82.0,-849.0,-386.0
-7.0,-224.0,-139.0,-45.0,433.0,481.0,-113.0,-846.0,-390.0
-14.0,-224.0,-135.0,-66.0,449.0,473.0,-143.0,-840.0,-383.0
-21.0,-222.0,-133.0,-69.0,461.0,468.0,-152.0,-845.0,-378.0
-23.0,-221.0,-130.0,-62.0,463.0,469.0,-177.0,-846.0,-370.0
-26.0,-224.0,-129.0,-58.0,447.0,477.0,-175.0,-840.0,-360.0
-23.0,-221.0,-126.0,-56.0,417.0,482.0,-167.0,-831.0,-344.0
-17.0,-220.0,-124.0,-55.0,380.0,489.0,-152.0,-826.0,-334.0
-12.0,-214.0,-116.0,-54.0,345.0,488.0,-136.0,-817.0,-316.0
-2.0,-214.0,-123.0,-58.0,316.0,485.0,-108.0,-811.0,-306.0
1.0,-217.0,-115.0,-66.0,299.0,479.0,-77.0,-823.0,-297.0
7.0,-217.0,-111.0,-79.0,291.0,468.0,-54.0,-827.0,-272.0
10.0,-221.0,-105.0,-96.0,290.0,453.0,-32.0,-842.0,-259.0
19.0,-229.0,-104.0,-107.0,292.0,439.0,-16.0,-857.0,-242.0
18.0,-230.0,-100.0,-115.0,296.0,428.0,-9.0,-877.0,-225.0
22.0,-234.0,-95.0,-118.0,299.0,411.0,-3.0,-886.0,-206.0
18.0,-240.0,-90.0,-106.0,304.0,392.0,-4.0,-913.0,-195.0
19.0,-243.0,-86.0,-77.0,309.0,372.0,-7.0,-923.0,-179.0
18.0,-246.0,-81.0,-31.0,317.0,349.0,-13.0,-930.0,-172.0
15.0,-245.0,-80.0,20.0,320.0,322.0,-20.0,-925.0,-176.0
14.0,-244.0,-83.0,73.0,320.0,296.0,-17.0,-918.0,-180.0
17.0,-239.0,-88.0,121.0,316.0,271.0,-21.0,-897.0,-187.0
16.0,-231.0,-90.0,154.0,308.0,250.0,-22.0,-879.0,-197.0
18.0,-226.0,-93.0,167.0,300.0,235.0,-23.0,-853.0,-207.0
19.0,-222.0,-92.0,165.0,291.0,224.0,-17.0,-834.0,-206.0
16.0,-215.0,-93.0,147.0,285.0,217.0,-22.0,-820.0,-204.0
15.0,-212.0,-90.0,117.0,283.0,212.0,-19.0,-804.0,-201.0
14.0,-210.0,-87.0,80.0,284.0,208.0,-25.0,-799.0,-192.0
11.0,-206.0,-85.0,40.0,286.0,205.0,-30.0,-808.0,-176.0
14.0,-215.0,-84.0,-5.0,285.0,204.0,-32.0,-815.0,-166.0
15.0,-220.0,-77.0,-45.0,284.0,200.0,-33.0,-823.0,-152.0
12.0,-225.0,-78.0,-73.0,286.0,197.0,-38.0,-840.0,-137.0
14.0,-230.0,-70.0,-85.0,288.0,190.0,-36.0,-866.0,-124.0
16.0,-241.0,-68.0,-84.0,298.0,180.0,-35.0,-899.0,-113.0
14.0,-247.0,-66.0,-70.0,318.0,170.0,-35.0,-926.0,-109.0
17.0,-254.0,-66.0,-49.0,347.0,156.0,-31.0,-947.0,-107.0
14.0,-254.0,-63.0,-26.0,385.0,144.0,-28.0,-968.0,-97.0
15.0,-262.0,-65.0,-5.0,424.0,135.0,-26.0,-1003.0,-98.0
19.0,-268.0,-66.0,17.0,460.0,131.0,-16.0,-1018.0,-101.0
15.0,-272.0,-64.0,39.0,486.0,134.0,-18.0,-1032.0,-108.0
18.0,-278.0,-62.0,65.0,505.0,137.0,-15.0,-1049.0,-94.0
15.0,-280.0,-70.0,98.0,517.0,144.0,-22.0,-1076.0,-108.0
12.0,-286.0,-73.0,125.0,522.0,156.0,-34.0,-1091.0,-131.0
9.0,-284.0,-81.0,137.0,523.0,170.0,-45.0,-1097.0,-173.0
4.0,-285.0,-88.0,123.0,524.0,186.0,-59.0,-1100.0,-196.0
1.0,-288.0,-94.0,94.0,524.0,205.0,-66.0,-1105.0,-206.0
0.0,-290.0,-89.0,64.0,516.0,219.0,-81.0,-1113.0,-208.0
0.0,-293.0,-89.0,44.0,499.0,229.0,-94.0,-1128.0,-195.0
0.0,-297.0,-87.0,35.0,480.0,233.0,-85.0,-1134.0,-183.0
3.0,-301.0,-82.0,36.0,467.0,236.0,-69.0,-1142.0,-166.0
12.0,-301.0,-72.0,50.0,467.0,232.0,-48.0,-1146.0,-135.0
18.0,-299.0,-65.0,77.0,476.0,224.0,-14.0,-1142.0,-97.0
28.0,-300.0,-61.0,116.0,494.0,209.0,19.0,-1132.0,-70.0
35.0,-291.0,-52.0,157.0,513.0,187.0,51.0,-1114.0,-37.0
45.0,-285.0,-47.0,204.0,537.0,160.0,84.0,-1098.0,-17.0
56.0,-281.0,-40.0,244.0,567.0,130.0,126.0,-1079.0,-10.0
72.0,-282.0,-48.0,270.0,601.0,101.0,179.0,-1077.0,-24.0
80.0,-284.0,-59.0,274.0,646.0,73.0,213.0,-1095.0,-56.0
74.0,-293.0,-76.0,239.0,714.0,58.0,214.0,-1138.0,-124.0
71.0,-306.0,-97.0,160.0,791.0,64.0,192.0,-1175.0,-220.0
60.0,-316.0,-134.0,34.0,874.0,86.0,138.0,-1215.0,-358.0
33.0,-321.0,-169.0,-135.0,961.0,118.0,52.0,-1273.0,-502.0
5.0,-333.0,-193.0,-334.0,1036.0,169.0,-48.0,-1295.0,-609.0
-19.0,-344.0,-203.0,-516.0,1059.0,231.0,-139.0,-1338.0,-666.0
-49.0,-357.0,-209.0,-636.0,1019.0,296.0,-239.0,-1360.0,-680.0
-70.0,-364.0,-213.0,-672.0,931.0,364.0,-334.0,-1378.0,-697.0
-93.0,-367.0,-221.0,-643.0,829.0,446.0,-426.0,-1381.0,-735.0
-109.0,-358.0,-232.0,-582.0,739.0,557.0,-488.0,-1370.0,-773.0
-109.0,-354.0,-235.0,-518.0,652.0,691.0,-504.0,-1339.0,-795.0
-108.0,-337.0,-234.0,-438.0,549.0,825.0,-486.0,-1285.0,-787.0
-91.0,-320.0,-230.0,-322.0,417.0,941.0,-432.0,-1198.0,-774.0
-64.0,-296.0,-222.0,-158.0,265.0,1015.0,-334.0,-1088.0,-762.0
-33.0,-276.0,-223.0,47.0,121.0,1032.0,-193.0,-996.0,-723.0
-2.0,-255.0,-211.0,277.0,11.0,1007.0,-83.0,-918.0,-690.0
27.0,-233.0,-204.0,502.0,-54.0,948.0,22.0,-838.0,-653.0
50.0,-205.0,-197.0,699.0,-61.0,870.0,106.0,-740.0,-629.0
62.0,-182.0,-197.0,855.0,-23.0,776.0,154.0,-652.0,-636.0
69.0,-156.0,-204.0,929.0,21.0,672.0,187.0,-584.0,-676.0
75.0,-141.0,-212.0,892.0,59.0,578.0,202.0,-529.0,-682.0
80.0,-128.0,-204.0,762.0,104.0,484.0,218.0,-501.0,-664.0
87.0,-133.0,-196.0,579.0,159.0,395.0,245.0,-501.0,-615.0
93.0,-142.0,-174.0,383.0,223.0,295.0,266.0,-534.0,-540.0
91.0,-154.0,-151.0,218.0,289.0,193.0,260.0,-590.0,-440.0
90.0,-175.0,-129.0,94.0,348.0,97.0,251.0,-656.0,-369.0
76.0,-191.0,-122.0,3.0,397.0,10.0,200.0,-726.0,-320.0
64.0,-206.0,-118.0,-78.0,438.0,-63.0,165.0,-790.0,-307.0
48.0,-224.0,-119.0,-157.0,465.0,-122.0,93.0,-843.0,-319.0
28.0,-234.0,-129.0,-238.0,476.0,-169.0,22.0,-900.0,-352.0
9.0,-248.0,-138.0,-306.0,474.0,-212.0,-62.0,-939.0,-383.0
-16.0,-255.0,-141.0,-386.0,462.0,-246.0,-149.0,-968.0,-412.0
-37.0,-261.0,-147.0,-444.0,436.0,-277.0,-223.0,-995.0,-423.0
-54.0,-267.0,-146.0,-477.0,396.0,-309.0,-293.0,-1016.0,-433.0
-75.0,-273.0,-147.0,-486.0,339.0,-342.0,-361.0,-1026.0,-433.0
-88.0,-272.0,-146.0,-468.0,279.0,-373.0,-411.0,-1041.0,-434.0
-101.0,-274.0,-146.0,-435.0,187.0,-402.0,-457.0,-1028.0,-421.0
-114.0,-270.0,-136.0,-384.0,77.0,-428.0,-508.0,-1012.0,-407.0
-122.0,-265.0,-136.0,-317.0,-43.0,-454.0,-532.0,-998.0,-389.0
-121.0,-255.0,-128.0,-241.0,-172.0,-480.0,-536.0,-972.0,-368.0
-121.0,-254.0,-121.0,-154.0,-302.0,-510.0,-526.0,-939.0,-342.0
-95.0,-230.0,-126.0,-61.0,-432.0,-539.0,-484.0,-908.0,-320.0
-84.0,-229.0,-120.0,39.0,-558.0,-585.0,-418.0,-871.0,-317.0
-66.0,-224.0,-124.0,123.0,-673.0,-637.0,-346.0,-850.0,-311.0
-49.0,-214.0,-124.0,179.0,-776.0,-696.0,-279.0,-824.0,-320.0
-27.0,-210.0,-126.0,202.0,-856.0,-751.0,-204.0,-805.0,-337.0
-1.0,-205.0,-128.0,186.0,-916.0,-802.0,-119.0,-789.0,-349.0
18.0,-198.0,-129.0,146.0,-945.0,-839.0,-37.0,-755.0,-351.0
37.0,-198.0,-129.0,97.0,-950.0,-870.0,51.0,-749.0,-360.0
46.0,-193.0,-132.0,42.0,-938.0,-902.0,102.0,-744.0,-363.0
62.0,-197.0,-131.0,-24.0,-921.0,-925.0,149.0,-760.0,-354.0
66.0,-201.0,-124.0,-103.0,-899.0,-938.0,170.0,-770.0,-338.0
74.0,-213.0,-115.0,-184.0,-878.0,-930.0,197.0,-808.0,-315.0
78.0,-221.0,-113.0,-262.0,-864.0,-908.0,219.0,-837.0,-294.0
84.0,-228.0,-112.0,-322.0,-847.0,-883.0,236.0,-865.0,-270.0
82.0,-234.0,-100.0,-342.0,-817.0,-866.0,238.0,-880.0,-252.0
78.0,-241.0,-99.0,-319.0,-782.0,-850.0,219.0,-888.0,-238.0
68.0,-237.0,-106.0,-274.0,-753.0,-825.0,197.0,-905.0,-233.0
66.0,-232.0,-99.0,-216.0,-737.0,-801.0,178.0,-886.0,-242.0
59.0,-236.0,-98.0,-158.0,-728.0,-772.0,146.0,-885.0,-235.0
54.0,-234.0,-97.0,-103.0,-720.0,-744.0,122.0,-877.0,-234.0
52.0,-233.0,-96.0,-46.0,-714.0,-709.0,115.0,-875.0,-223.0
46.0,-231.0,-93.0,-2.0,-708.0,-671.0,94.0,-874.0,-218.0
40.0,-232.0,-92.0,31.0,-706.0,-625.0,83.0,-873.0,-213.0
38.0,-230.0,-91.0,49.0,-708.0,-574.0,65.0,-866.0,-203.0
37.0,-228.0,-86.0,65.0,-709.0,-524.0,55.0,-850.0,-199.0
33.0,-225.0,-88.0,90.0,-701.0,-482.0,45.0,-835.0,-196.0
28.0,-216.0,-90.0,122.0,-686.0,-447.0,32.0,-820.0,-184.0
28.0,-212.0,-83.0,154.0,-668.0,-418.0,33.0,-804.0,-183.0
28.0,-211.0,-87.0,175.0,-652.0,-397.0,25.0,-791.0,-183.0
28.0,-201.0,-82.0,181.0,-640.0,-379.0,30.0,-772.0,-179.0
28.0,-197.0,-87.0,164.0,-631.0,-361.0,23.0,-768.0,-179.0
30.0,-198.0,-83.0,130.0,-623.0,-341.0,27.0,-764.0,-173.0
28.0,-199.0,-88.0,81.0,-616.0,-316.0,21.0,-764.0,-177.0
26.0,-201.0,-81.0,15.0,-609.0,-289.0,17.0,-769.0,-181.0
28.0,-205.0,-87.0,-58.0,-605.0,-263.0,21.0,-781.0,-182.0
25.0,-208.0,-86.0,-124.0,-602.0,-241.0,14.0,-798.0,-179.0
23.0,-217.0,-87.0,-175.0,-606.0,-220.0,6.0,-821.0,-175.0
22.0,-224.0,-78.0,-206.0,-614.0,-202.0,6.0,-845.0,-164.0
21.0,-235.0,-77.0,-214.0,-621.0,-183.0,-3.0,-878.0,-153.0
16.0,-243.0,-76.0,-201.0,-628.0,-163.0,-5.0,-919.0,-145.0
18.0,-251.0,-75.0,-168.0,-638.0,-143.0,-11.0,-949.0,-147.0
19.0,-259.0,-78.0,-123.0,-648.0,-123.0,-14.0,-977.0,-146.0
19.0,-266.0,-75.0,-72.0,-656.0,-102.0,-5.0,-1005.0,-152.0
26.0,-273.0,-80.0,-19.0,-662.0,-78.0,14.0,-1024.0,-160.0
32.0,-273.0,-80.0,36.0,-659.0,-58.0,39.0,-1048.0,-154.0
36.0,-279.0,-76.0,96.0,-647.0,-39.0,55.0,-1061.0,-152.0
43.0,-285.0,-79.0,160.0,-630.0,-23.0,84.0,-1069.0,-158.0
57.0,-286.0,-78.0,224.0,-604.0,-11.0,132.0,-1087.0,-162.0
63.0,-285.0,-83.0,277.0,-570.0,-16.0,164.0,-1103.0,-175.0
69.0,-288.0,-83.0,312.0,-530.0,-31.0,183.0,-1102.0,-186.0
71.0,-288.0,-90.0,328.0,-495.0,-57.0,192.0,-1099.0,-195.0
71.0,-284.0,-90.0,323.0,-472.0,-88.0,200.0,-1096.0,-210.0
70.0,-283.0,-94.0,295.0,-456.0,-123.0,204.0,-1089.0,-214.0
76.0,-285.0,-94.0,250.0,-439.0,-157.0,207.0,-1086.0,-213.0
74.0,-286.0,-84.0,204.0,-414.0,-190.0,199.0,-1087.0,-197.0
66.0,-282.0,-76.0,167.0,-381.0,-223.0,184.0,-1088.0,-170.0
68.0,-292.0,-72.0,148.0,-351.0,-250.0,174.0,-1092.0,-125.0
67.0,-289.0,-62.0,154.0,-327.0,-272.0,169.0,-1093.0,-80.0
62.0,-288.0,-52.0,176.0,-308.0,-293.0,155.0,-1096.0,-41.0
60.0,-286.0,-38.0,206.0,-298.0,-313.0,145.0,-1093.0,10.0
51.0,-286.0,-29.0,238.0,-295.0,-334.0,130.0,-1095.0,47.0
47.0,-284.0,-24.0,265.0,-298.0,-353.0,104.0,-1096.0,71.0
38.0,-283.0,-17.0,280.0,-303.0,-370.0,72.0,-1095.0,95.0
29.0,-284.0,-17.0,279.0,-304.0,-385.0,24.0,-1084.0,97.0
15.0,-279.0,-19.0,250.0,-305.0,-391.0,-23.0,-1084.0,74.0
3.0,-279.0,-29.0,190.0,-307.0,-391.0,-66.0,-1087.0,41.0
-1.0,-283.0,-48.0,87.0,-319.0,-380.0,-94.0,-1112.0,-12.0
-8.0,-291.0,-68.0,-60.0,-344.0,-364.0,-106.0,-1137.0,-103.0
-11.0,-300.0,-99.0,-258.0,-379.0,-350.0,-131.0,-1173.0,-232.0
-20.0,-306.0,-132.0,-499.0,-412.0,-334.0,-156.0,-1192.0,-365.0
-22.0,-318.0,-155.0,-748.0,-433.0,-318.0,-162.0,-1227.0,-466.0
-8.0,-340.0,-164.0,-948.0,-445.0,-330.0,-131.0,-1288.0,-497.0
13.0,-358.0,-165.0,-1044.0,-452.0,-371.0,-55.0,-1341.0,-503.0
42.0,-374.0,-165.0,-1030.0,-445.0,-430.0,34.0,-1381.0,-506.0
65.0,-374.0,-173.0,-927.0,-423.0,-484.0,128.0,-1402.0,-541.0
90.0,-374.0,-186.0,-786.0,-393.0,-535.0,259.0,-1401.0,-593.0
101.0,-376.0,-189.0,-632.0,-355.0,-584.0,328.0,-1389.0,-663.0
113.0,-359.0,-214.0,-489.0,-307.0,-622.0,352.0,-1364.0,-705.0
102.0,-357.0,-226.0,-353.0,-271.0,-654.0,317.0,-1343.0,-747.0
89.0,-349.0,-238.0,-239.0,-267.0,-652.0,274.0,-1321.0,-794.0
70.0,-342.0,-242.0,-144.0,-288.0,-627.0,205.0,-1290.0,-816.0
56.0,-334.0,-246.0,-37.0,-326.0,-596.0,143.0,-1241.0,-826.0
46.0,-321.0,-241.0,104.0,-374.0,-573.0,112.0,-1185.0,-816.0
37.0,-299.0,-238.0,279.0,-427.0,-559.0,71.0,-1123.0,-805.0
24.0,-273.0,-234.0,470.0,-489.0,-545.0,24.0,-1027.0,-787.0
15.0,-246.0,-228.0,650.0,-562.0,-522.0,-19.0,-920.0,-771.0
6.0,-208.0,-221.0,815.0,-639.0,-505.0,-44.0,-771.0,-739.0
2.0,-172.0,-214.0,968.0,-696.0,-497.0,-67.0,-639.0,-710.0
0.0,-139.0,-200.0,1081.0,-720.0,-497.0,-94.0,-513.0,-658.0
-7.0,-110.0,-189.0,1139.0,-717.0,-493.0,-111.0,-409.0,-594.0
-12.0,-88.0,-174.0,1127.0,-704.0,-478.0,-136.0,-331.0,-533.0
-20.0,-73.0,-155.0,1049.0,-700.0,-447.0,-163.0,-282.0,-479.0
-24.0,-68.0,-147.0,897.0,-706.0,-398.0,-182.0,-269.0,-434.0
-28.0,-73.0,-140.0,671.0,-718.0,-328.0,-198.0,-302.0,-397.0
-30.0,-90.0,-128.0,393.0,-735.0,-241.0,-197.0,-359.0,-354.0
-23.0,-117.0,-117.0,98.0,-744.0,-148.0,-182.0,-454.0,-313.0
-19.0,-146.0,-111.0,-176.0,-743.0,-57.0,-164.0,-561.0,-282.0
-8.0,-178.0,-102.0,-399.0,-730.0,26.0,-116.0,-670.0,-262.0
9.0,-201.0,-101.0,-556.0,-707.0,99.0,-58.0,-766.0,-256.0
25.0,-229.0,-111.0,-637.0,-679.0,155.0,5.0,-846.0,-269.0
44.0,-245.0,-122.0,-652.0,-640.0,197.0,63.0,-915.0,-310.0
59.0,-255.0,-134.0,-637.0,-598.0,229.0,122.0,-952.0,-362.0
70.0,-259.0,-139.0,-611.0,-556.0,260.0,179.0,-983.0,-415.0
81.0,-268.0,-149.0,-590.0,-521.0,285.0,222.0,-1011.0,-439.0
93.0,-276.0,-151.0,-581.0,-496.0,307.0,269.0,-1044.0,-451.0
105.0,-280.0,-151.0,-566.0,-467.0,316.0,296.0,-1064.0,-449.0
109.0,-282.0,-146.0,-535.0,-428.0,314.0,322.0,-1067.0,-435.0
116.0,-279.0,-145.0,-476.0,-373.0,307.0,333.0,-1065.0,-422.0
115.0,-277.0,-134.0,-394.0,-307.0,306.0,346.0,-1037.0,-400.0
109.0,-277.0,-133.0,-300.0,-246.0,318.0,321.0,-1029.0,-377.0
96.0,-265.0,-128.0,-196.0,-197.0,344.0,289.0,-1005.0,-369.0
84.0,-261.0,-127.0,-91.0,-152.0,381.0,236.0,-981.0,-353.0
71.0,-257.0,-126.0,2.0,-113.0,419.0,183.0,-957.0,-340.0
60.0,-248.0,-128.0,74.0,-80.0,450.0,142.0,-934.0,-345.0
48.0,-241.0,-125.0,121.0,-51.0,474.0,105.0,-917.0,-342.0
44.0,-236.0,-126.0,145.0,-16.0,486.0,74.0,-883.0,-343.0
33.0,-229.0,-127.0,160.0,22.0,485.0,28.0,-858.0,-339.0
15.0,-224.0,-129.0,162.0,57.0,482.0,-16.0,-850.0,-355.0
7.0,-220.0,-126.0,130.0,84.0,488.0,-47.0,-836.0,-348.0
-2.0,-214.0,-123.0,86.0,102.0,482.0,-97.0,-817.0,-335.0
-12.0,-214.0,-127.0,52.0,110.0,469.0,-131.0,-813.0,-332.0
-16.0,-211.0,-124.0,13.0,110.0,463.0,-153.0,-809.0,-339.0
-22.0,-213.0,-127.0,-40.0,102.0,460.0,-169.0,-808.0,-329.0
-28.0,-214.0,-120.0,-89.0,84.0,457.0,-187.0,-810.0,-316.0
-28.0,-213.0,-119.0,-118.0,60.0,456.0,-196.0,-801.0,-309.0
-33.0,-208.0,-118.0,-143.0,33.0,448.0,-195.0,-800.0,-308.0
-30.0,-209.0,-119.0,-166.0,7.0,440.0,-192.0,-797.0,-305.0
-28.0,-210.0,-116.0,-185.0,-19.0,434.0,-183.0,-801.0,-298.0
-24.0,-211.0,-110.0,-208.0,-44.0,425.0,-178.0,-807.0,-289.0
-17.0,-215.0,-112.0,-235.0,-66.0,412.0,-154.0,-820.0,-277.0
-13.0,-220.0,-107.0,-262.0,-88.0,395.0,-134.0,-834.0,-263.0
-5.0,-227.0,-104.0,-278.0,-104.0,369.0,-115.0,-852.0,-244.0
0.0,-234.0,-101.0,-275.0,-115.0,337.0,-99.0,-878.0,-233.0
0.0,-239.0,-103.0,-256.0,-123.0,305.0,-80.0,-894.0,-223.0
3.0,-244.0,-93.0,-225.0,-132.0,280.0,-67.0,-914.0,-216.0
2.0,-244.0,-96.0,-180.0,-139.0,252.0,-56.0,-926.0,-212.0
7.0,-246.0,-92.0,-127.0,-144.0,226.0,-61.0,-924.0,-203.0
8.0,-245.0,-89.0,-71.0,-145.0,202.0,-55.0,-919.0,-198.0
6.0,-240.0,-90.0,-14.0,-144.0,176.0,-55.0,-911.0,-193.0
6.0,-237.0,-86.0,42.0,-138.0,151.0,-61.0,-886.0,-189.0
4.0,-233.0,-85.0,90.0,-131.0,124.0,-64.0,-880.0,-177.0
2.0,-229.0,-80.0,131.0,-121.0,99.0,-73.0,-872.0,-160.0
1.0,-229.0,-79.0,160.0,-109.0,75.0,-82.0,-858.0,-161.0
0.0,-223.0,-79.0,171.0,-92.0,57.0,-82.0,-853.0,-152.0
2.0,-222.0,-79.0,164.0,-79.0,40.0,-75.0,-834.0,-152.0
1.0,-217.0,-78.0,139.0,-66.0,25.0,-79.0,-828.0,-150.0
2.0,-219.0,-77.0,99.0,-55.0,9.0,-69.0,-823.0,-157.0
2.0,-216.0,-79.0,51.0,-49.0,-7.0,-64.0,-823.0,-153.0
5.0,-217.0,-78.0,-6.0,-47.0,-21.0,-59.0,-828.0,-151.0
7.0,-220.0,-75.0,-61.0,-47.0,-35.0,-47.0,-839.0,-139.0
12.0,-227.0,-79.0,-107.0,-47.0,-49.0,-41.0,-853.0,-132.0
21.0,-229.0,-68.0,-144.0,-46.0,-64.0,-35.0,-873.0,-123.0
13.0,-239.0,-67.0,-168.0,-44.0,-78.0,-26.0,-907.0,-121.0
18.0,-246.0,-67.0,-178.0,-40.0,-89.0,-9.0,-928.0,-111.0
19.0,-255.0,-70.0,-176.0,-32.0,-100.0,-6.0,-949.0,-108.0
20.0,-258.0,-63.0,-160.0,-19.0,-114.0,-7.0,-969.0,-98.0
25.0,-261.0,-65.0,-132.0,-3.0,-123.0,3.0,-994.0,-95.0
26.0,-270.0,-66.0,-97.0,16.0,-131.0,12.0,-1010.0,-105.0
25.0,-272.0,-65.0,-53.0,36.0,-136.0,15.0,-1028.0,-109.0
27.0,-274.0,-65.0,-7.0,57.0,-137.0,13.0,-1041.0,-98.0
19.0,-279.0,-66.0,39.0,74.0,-131.0,-7.0,-1052.0,-100.0
13.0,-280.0,-66.0,87.0,80.0,-120.0,-28.0,-1062.0,-95.0
11.0,-279.0,-69.0,128.0,75.0,-103.0,-43.0,-1073.0,-119.0
7.0,-282.0,-81.0,149.0,71.0,-82.0,-48.0,-1070.0,-144.0
6.0,-279.0,-83.0,143.0,76.0,-57.0,-59.0,-1068.0,-174.0
8.0,-279.0,-87.0,113.0,86.0,-32.0,-56.0,-1077.0,-185.0
11.0,-280.0,-87.0,74.0,96.0,-7.0,-48.0,-1077.0,-188.0
11.0,-282.0,-90.0,34.0,101.0,13.0,-39.0,-1080.0,-185.0
15.0,-289.0,-85.0,-2.0,99.0,32.0,-33.0,-1091.0,-178.0
21.0,-289.0,-79.0,-34.0,100.0,49.0,3.0,-1103.0,-159.0
36.0,-295.0,-69.0,-56.0,110.0,62.0,43.0,-1113.0,-124.0
44.0,-295.0,-65.0,-55.0,132.0,67.0,83.0,-1123.0,-93.0
55.0,-292.0,-56.0,-34.0,164.0,66.0,120.0,-1122.0,-65.0
57.0,-293.0,-55.0,-1.0,201.0,59.0,134.0,-1112.0,-42.0
62.0,-289.0,-47.0,34.0,238.0,48.0,143.0,-1099.0,-28.0
63.0,-285.0,-50.0,64.0,275.0,39.0,157.0,-1091.0,-22.0
72.0,-282.0,-53.0,86.0,319.0,27.0,175.0,-1081.0,-45.0
77.0,-285.0,-56.0,90.0,381.0,14.0,206.0,-1104.0,-55.0
75.0,-296.0,-65.0,81.0,467.0,2.0,189.0,-1143.0,-83.0
63.0,-313.0,-79.0,52.0,562.0,5.0,144.0,-1197.0,-159.0
40.0,-320.0,-118.0,-16.0,657.0,31.0,54.0,-1235.0,-301.0
15.0,-326.0,-159.0,-160.0,751.0,76.0,-40.0,-1277.0,-473.0
-15.0,-333.0,-190.0,-381.0,836.0,137.0,-146.0,-1313.0,-613.0
-45.0,-347.0,-207.0,-622.0,874.0,204.0,-230.0,-1348.0,-676.0
-64.0,-365.0,-207.0,-811.0,824.0,268.0,-315.0,-1394.0,-680.0
-91.0,-376.0,-204.0,-893.0,694.0,326.0,-412.0,-1417.0,-676.0
-106.0,-380.0,-209.0,-869.0,538.0,394.0,-486.0,-1424.0,-685.0
-120.0,-378.0,-215.0,-777.0,403.0,481.0,-536.0,-1421.0,-720.0
-125.0,-365.0,-222.0,-668.0,294.0,571.0,-548.0,-1383.0,-741.0
-117.0,-350.0,-226.0,-547.0,193.0,654.0,-521.0,-1315.0,-763.0
-103.0,-324.0,-229.0,-404.0,81.0,714.0,-468.0,-1206.0,-768.0
-76.0,-299.0,-225.0,-224.0,-42.0,746.0,-373.0,-1105.0,-762.0
-47.0,-278.0,-221.0,-7.0,-160.0,749.0,-258.0,-1007.0,-738.0
-18.0,-253.0,-216.0,219.0,-256.0,710.0,-158.0,-920.0,-717.0
1.0,-228.0,-208.0,441.0,-316.0,646.0,-87.0,-826.0,-689.0
16.0,-204.0,-207.0,629.0,-341.0,564.0,-31.0,-748.0,-672.0
33.0,-181.0,-205.0,756.0,-340.0,480.0,29.0,-666.0,-676.0
45.0,-161.0,-211.0,810.0,-321.0,402.0,77.0,-598.0,-691.0
52.0,-145.0,-213.0,782.0,-293.0,330.0,114.0,-548.0,-697.0
58.0,-134.0,-211.0,678.0,-269.0,258.0,135.0,-516.0,-683.0
62.0,-133.0,-201.0,528.0,-242.0,189.0,148.0,-514.0,-637.0
71.0,-141.0,-185.0,360.0,-208.0,118.0,177.0,-544.0,-589.0
70.0,-157.0,-168.0,198.0,-161.0,43.0,188.0,-595.0,-524.0
76.0,-171.0,-150.0,64.0,-101.0,-26.0,204.0,-643.0,-457.0
74.0,-189.0,-137.0,-21.0,-23.0,-93.0,192.0,-698.0,-392.0
71.0,-201.0,-129.0,-59.0,55.0,-159.0,185.0,-747.0,-353.0
59.0,-213.0,-125.0,-74.0,119.0,-221.0,142.0,-809.0,-342.0
41.0,-226.0,-124.0,-92.0,146.0,-274.0,84.0,-853.0,-333.0
23.0,-239.0,-124.0,-118.0,134.0,-314.0,18.0,-905.0,-335.0
5.0,-251.0,-128.0,-152.0,98.0,-345.0,-55.0,-947.0,-359.0
-14.0,-258.0,-132.0,-191.0,53.0,-368.0,-134.0,-989.0,-371.0
-38.0,-265.0,-137.0,-227.0,7.0,-384.0,-235.0,-1016.0,-382.0
-55.0,-274.0,-140.0,-258.0,-47.0,-401.0,-308.0,-1043.0,-396.0
-75.0,-274.0,-139.0,-278.0,-110.0,-419.0,-367.0,-1055.0,-415.0
-87.0,-276.0,-143.0,-284.0,-184.0,-439.0,-410.0,-1057.0,-418.0
-97.0,-275.0,-142.0,-271.0,-268.0,-459.0,-452.0,-1039.0,-423.0
-114.0,-270.0,-136.0,-244.0,-362.0,-478.0,-478.0,-1017.0,-430.0
-106.0,-264.0,-142.0,-202.0,-466.0,-498.0,-482.0,-991.0,-419.0
-102.0,-254.0,-140.0,-142.0,-580.0,-525.0,-475.0,-953.0,-401.0
-91.0,-243.0,-139.0,-70.0,-701.0,-554.0,-427.0,-920.0,-389.0
-78.0,-233.0,-133.0,9.0,-822.0,-591.0,-375.0,-880.0,-382.0
-56.0,-228.0,-133.0,86.0,-936.0,-640.0,-297.0,-848.0,-382.0
-37.0,-216.0,-133.0,145.0,-1036.0,-690.0,-222.0,-821.0,-381.0
-16.0,-211.0,-133.0,173.0,-1113.0,-742.0,-157.0,-806.0,-374.0
0.0,-204.0,-133.0,169.0,-1158.0,-789.0,-90.0,-792.0,-373.0
19.0,-201.0,-133.0,149.0,-1178.0,-828.0,-19.0,-765.0,-368.0
35.0,-194.0,-132.0,122.0,-1182.0,-858.0,37.0,-741.0,-366.0
45.0,-192.0,-119.0,88.0,-1176.0,-881.0,85.0,-723.0,-369.0
53.0,-188.0,-133.0,43.0,-1158.0,-891.0,120.0,-719.0,-374.0
65.0,-188.0,-133.0,-20.0,-1133.0,-893.0,153.0,-726.0,-373.0
68.0,-192.0,-134.0,-98.0,-1106.0,-892.0,178.0,-731.0,-363.0
74.0,-199.0,-129.0,-182.0,-1075.0,-883.0,197.0,-754.0,-348.0
72.0,-205.0,-124.0,-260.0,-1041.0,-871.0,209.0,-781.0,-334.0
75.0,-215.0,-122.0,-322.0,-1004.0,-858.0,212.0,-810.0,-326.0
71.0,-224.0,-121.0,-360.0,-967.0,-844.0,192.0,-835.0,-312.0
60.0,-226.0,-114.0,-361.0,-932.0,-824.0,164.0,-859.0,-302.0
54.0,-235.0,-113.0,-327.0,-905.0,-798.0,135.0,-877.0,-300.0
47.0,-242.0,-113.0,-282.0,-884.0,-768.0,107.0,-901.0,-297.0
43.0,-245.0,-110.0,-228.0,-862.0,-738.0,82.0,-912.0,-280.0
41.0,-248.0,-107.0,-168.0,-847.0,-706.0,70.0,-925.0,-263.0
35.0,-250.0,-102.0,-105.0,-835.0,-675.0,55.0,-930.0,-247.0
30.0,-249.0,-96.0,-49.0,-827.0,-645.0,48.0,-935.0,-238.0
32.0,-247.0,-92.0,6.0,-819.0,-617.0,41.0,-933.0,-217.0
32.0,-245.0,-94.0,65.0,-812.0,-585.0,30.0,-922.0,-219.0
25.0,-238.0,-99.0,119.0,-805.0,-551.0,30.0,-899.0,-214.0
27.0,-232.0,-93.0,161.0,-798.0,-514.0,23.0,-861.0,-209.0
31.0,-225.0,-92.0,189.0,-791.0,-480.0,32.0,-838.0,-209.0
29.0,-217.0,-89.0,202.0,-777.0,-450.0,36.0,-815.0,-208.0
34.0,-211.0,-93.0,202.0,-761.0,-425.0,48.0,-801.0,-199.0
38.0,-206.0,-91.0,191.0,-743.0,-405.0,65.0,-791.0,-198.0
38.0,-207.0,-89.0,162.0,-724.0,-389.0,70.0,-781.0,-192.0
45.0,-207.0,-89.0,121.0,-706.0,-373.0,82.0,-781.0,-191.0
46.0,-205.0,-84.0,71.0,-686.0,-359.0,91.0,-785.0,-182.0
43.0,-204.0,-85.0,19.0,-668.0,-345.0,93.0,-791.0,-179.0
43.0,-211.0,-85.0,-32.0,-655.0,-330.0,90.0,-801.0,-179.0
43.0,-213.0,-85.0,-81.0,-650.0,-316.0,77.0,-808.0,-181.0
40.0,-218.0,-86.0,-114.0,-653.0,-299.0,77.0,-816.0,-179.0
43.0,-221.0,-84.0,-147.0,-660.0,-279.0,78.0,-829.0,-180.0
42.0,-224.0,-85.0,-171.0,-664.0,-260.0,77.0,-842.0,-178.0
43.0,-228.0,-82.0,-184.0,-665.0,-240.0,77.0,-858.0,-174.0
39.0,-235.0,-83.0,-187.0,-664.0,-220.0,77.0,-888.0,-169.0
43.0,-242.0,-82.0,-177.0,-662.0,-202.0,72.0,-922.0,-154.0
41.0,-253.0,-75.0,-152.0,-660.0,-187.0,76.0,-948.0,-145.0
39.0,-257.0,-71.0,-113.0,-655.0,-169.0,83.0,-976.0,-141.0
48.0,-263.0,-81.0,-64.0,-646.0,-156.0,102.0,-999.0,-148.0
51.0,-273.0,-71.0,-15.0,-637.0,-145.0,115.0,-1021.0,-139.0
54.0,-274.0,-74.0,38.0,-624.0,-137.0,126.0,-1048.0,-139.0
60.0,-282.0,-72.0,96.0,-612.0,-130.0,138.0,-1062.0,-138.0
61.0,-287.0,-78.0,153.0,-601.0,-129.0,151.0,-1081.0,-145.0
64.0,-288.0,-80.0,204.0,-582.0,-136.0,155.0,-1095.0,-158.0
62.0,-289.0,-85.0,238.0,-557.0,-144.0,153.0,-1097.0,-180.0
59.0,-288.0,-92.0,250.0,-535.0,-156.0,145.0,-1101.0,-186.0
53.0,-289.0,-91.0,245.0,-519.0,-164.0,127.0,-1099.0,-207.0
49.0,-283.0,-95.0,225.0,-509.0,-172.0,119.0,-1088.0,-224.0
48.0,-283.0,-99.0,195.0,-499.0,-175.0,99.0,-1089.0,-235.0
50.0,-288.0,-102.0,164.0,-479.0,-179.0,91.0,-1089.0,-233.0
46.0,-289.0,-92.0,138.0,-449.0,-185.0,95.0,-1102.0,-214.0
50.0,-290.0,-90.0,129.0,-411.0,-192.0,100.0,-1110.0,-185.0
56.0,-295.0,-76.0,134.0,-379.0,-208.0,118.0,-1113.0,-155.0
61.0,-297.0,-73.0,152.0,-358.0,-221.0,136.0,-1108.0,-124.0
60.0,-291.0,-64.0,175.0,-344.0,-234.0,156.0,-1114.0,-80.0
64.0,-290.0,-54.0,198.0,-332.0,-249.0,154.0,-1113.0,-44.0
57.0,-291.0,-39.0,215.0,-322.0,-265.0,137.0,-1112.0,3.0
52.0,-291.0,-31.0,230.0,-316.0,-284.0,109.0,-1112.0,36.0
38.0,-288.0,-26.0,239.0,-314.0,-302.0,75.0,-1109.0,59.0
33.0,-288.0,-22.0,238.0,-318.0,-316.0,34.0,-1110.0,62.0
17.0,-287.0,-30.0,227.0,-328.0,-321.0,4.0,-1108.0,39.0
14.0,-290.0,-43.0,193.0,-337.0,-318.0,-24.0,-1124.0,-14.0
6.0,-293.0,-63.0,120.0,-347.0,-312.0,-53.0,-1142.0,-101.0
-2.0,-297.0,-97.0,-18.0,-361.0,-307.0,-99.0,-1166.0,-218.0
-22.0,-301.0,-131.0,-222.0,-391.0,-299.0,-166.0,-1183.0,-356.0
-41.0,-314.0,-161.0,-474.0,-437.0,-282.0,-233.0,-1215.0,-467.0
-49.0,-333.0,-175.0,-730.0,-500.0,-266.0,-253.0,-1286.0,-540.0
-37.0,-355.0,-179.0,-946.0,-560.0,-278.0,-219.0,-1356.0,-554.0
-12.0,-380.0,-171.0,-1070.0,-599.0,-328.0,-154.0,-1420.0,-541.0
5.0,-391.0,-167.0,-1075.0,-608.0,-405.0,-65.0,-1468.0,-528.0
31.0,-397.0,-168.0,-971.0,-595.0,-491.0,18.0,-1485.0,-538.0
50.0,-394.0,-181.0,-805.0,-568.0,-575.0,90.0,-1482.0,-566.0
61.0,-385.0,-193.0,-623.0,-537.0,-653.0,143.0,-1452.0,-617.0
62.0,-371.0,-204.0,-449.0,-499.0,-717.0,157.0,-1407.0,-662.0
63.0,-353.0,-218.0,-298.0,-458.0,-754.0,150.0,-1342.0,-716.0
56.0,-331.0,-237.0,-173.0,-427.0,-774.0,130.0,-1270.0,-772.0
47.0,-314.0,-242.0,-72.0,-410.0,-772.0,93.0,-1194.0,-819.0
41.0,-298.0,-242.0,0.0,-413.0,-738.0,77.0,-1127.0,-837.0
35.0,-275.0,-239.0,85.0,-453.0,-686.0,62.0,-1044.0,-825.0
26.0,-254.0,-235.0,203.0,-528.0,-631.0,39.0,-958.0,-795.0
19.0,-227.0,-216.0,350.0,-628.0,-578.0,8.0,-855.0,-738.0
12.0,-195.0,-201.0,516.0,-732.0,-526.0,-20.0,-737.0,-679.0
1.0,-164.0,-194.0,673.0,-829.0,-467.0,-49.0,-621.0,-625.0
0.0,-136.0,-190.0,792.0,-924.0,-399.0,-78.0,-518.0,-590.0
0.0,-109.0,-177.0,853.0,-1015.0,-333.0,-90.0,-430.0,-560.0
-4.0,-90.0,-173.0,840.0,-1091.0,-274.0,-106.0,-350.0,-512.0
-9.0,-75.0,-162.0,765.0,-1143.0,-221.0,-112.0,-293.0,-469.0
-10.0,-68.0,-147.0,644.0,-1174.0,-177.0,-122.0,-261.0,-430.0
-9.0,-75.0,-139.0,492.0,-1192.0,-135.0,-115.0,-296.0,-381.0
-3.0,-92.0,-128.0,305.0,-1203.0,-92.0,-106.0,-353.0,-357.0
1.0,-112.0,-127.0,106.0,-1203.0,-48.0,-90.0,-427.0,-331.0
9.0,-132.0,-123.0,-85.0,-1185.0,1.0,-60.0,-514.0,-328.0
19.0,-157.0,-124.0,-245.0,-1141.0,48.0,-16.0,-597.0,-331.0
32.0,-180.0,-127.0,-374.0,-1074.0,92.0,32.0,-692.0,-327.0
45.0,-201.0,-121.0,-467.0,-993.0,131.0,79.0,-770.0,-329.0
60.0,-220.0,-127.0,-525.0,-909.0,167.0,134.0,-827.0,-345.0
76.0,-236.0,-129.0,-558.0,-827.0,200.0,184.0,-878.0,-370.0
80.0,-244.0,-141.0,-576.0,-754.0,225.0,233.0,-928.0,-396.0
92.0,-255.0,-146.0,-581.0,-690.0,239.0,268.0,-961.0,-422.0
98.0,-267.0,-149.0,-570.0,-636.0,243.0,293.0,-999.0,-442.0
106.0,-274.0,-152.0,-539.0,-586.0,237.0,311.0,-1023.0,-452.0
111.0,-282.0,-154.0,-490.0,-531.0,223.0,321.0,-1050.0,-461.0
104.0,-281.0,-157.0,-427.0,-476.0,212.0,319.0,-1062.0,-468.0
99.0,-280.0,-158.0,-356.0,-425.0,205.0,298.0,-1057.0,-464.0
87.0,-276.0,-153.0,-282.0,-385.0,200.0,252.0,-1041.0,-462.0
72.0,-275.0,-148.0,-207.0,-357.0,204.0,196.0,-1031.0,-446.0
58.0,-265.0,-138.0,-141.0,-339.0,214.0,138.0,-1013.0,-416.0
43.0,-260.0,-134.0,-78.0,-326.0,228.0,84.0,-983.0,-395.0
28.0,-255.0,-132.0,-26.0,-317.0,248.0,27.0,-965.0,-379.0
13.0,-245.0,-130.0,5.0,-313.0,273.0,-28.0,-940.0,-371.0
4.0,-240.0,-128.0,19.0,-310.0,299.0,-65.0,-912.0,-351.0
-3.0,-233.0,-127.0,32.0,-312.0,318.0,-92.0,-891.0,-345.0
-8.0,-232.0,-126.0,43.0,-313.0,337.0,-125.0,-879.0,-344.0
-21.0,-228.0,-124.0,41.0,-315.0,357.0,-160.0,-862.0,-325.0
-24.0,-224.0,-119.0,39.0,-316.0,374.0,-182.0,-859.0,-325.0
-27.0,-229.0,-123.0,40.0,-323.0,389.0,-188.0,-838.0,-321.0
-30.0,-222.0,-122.0,38.0,-328.0,399.0,-189.0,-840.0,-321.0
-28.0,-219.0,-117.0,30.0,-335.0,402.0,-194.0,-840.0,-321.0
-27.0,-219.0,-123.0,19.0,-342.0,399.0,-186.0,-826.0,-319.0
-25.0,-217.0,-118.0,13.0,-347.0,394.0,-172.0,-816.0,-310.0
-18.0,-210.0,-117.0,10.0,-350.0,386.0,-162.0,-815.0,-307.0
-14.0,-213.0,-120.0,3.0,-348.0,379.0,-140.0,-807.0,-310.0
-4.0,-210.0,-116.0,-16.0,-348.0,373.0,-109.0,-799.0,-316.0
1.0,-210.0,-119.0,-45.0,-348.0,366.0,-91.0,-791.0,-310.0
4.0,-205.0,-118.0,-78.0,-346.0,357.0,-66.0,-784.0,-306.0
9.0,-207.0,-119.0,-119.0,-344.0,345.0,-60.0,-789.0,-308.0
9.0,-211.0,-122.0,-162.0,-340.0,330.0,-45.0,-797.0,-307.0
12.0,-213.0,-111.0,-209.0,-333.0,314.0,-40.0,-809.0,-304.0
13.0,-218.0,-111.0,-246.0,-326.0,299.0,-32.0,-829.0,-290.0
15.0,-227.0,-111.0,-270.0,-315.0,281.0,-30.0,-862.0,-285.0
18.0,-233.0,-110.0,-280.0,-306.0,264.0,-16.0,-884.0,-267.0
21.0,-243.0,-104.0,-269.0,-292.0,243.0,-12.0,-908.0,-261.0
21.0,-246.0,-103.0,-242.0,-273.0,223.0,-16.0,-924.0,-246.0
22.0,-247.0,-100.0,-199.0,-254.0,207.0,-12.0,-930.0,-246.0
19.0,-249.0,-103.0,-148.0,-232.0,193.0,-11.0,-939.0,-240.0
16.0,-249.0,-99.0,-94.0,-208.0,182.0,-16.0,-932.0,-229.0
17.0,-247.0,-96.0,-41.0,-181.0,173.0,-18.0,-927.0,-225.0
16.0,-239.0,-93.0,10.0,-150.0,164.0,-22.0,-918.0,-219.0
16.0,-239.0,-93.0,52.0,-120.0,151.0,-28.0,-893.0,-211.0
14.0,-230.0,-88.0,81.0,-88.0,143.0,-33.0,-885.0,-200.0
16.0,-231.0,-84.0,98.0,-56.0,135.0,-32.0,-871.0,-185.0
7.0,-229.0,-73.0,107.0,-30.0,130.0,-30.0,-860.0,-172.0
11.0,-226.0,-80.0,102.0,-8.0,127.0,-33.0,-853.0,-156.0
13.0,-222.0,-76.0,86.0,8.0,121.0,-34.0,-853.0,-149.0
15.0,-219.0,-75.0,65.0,21.0,110.0,-31.0,-848.0,-146.0
15.0,-223.0,-77.0,44.0,32.0,101.0,-25.0,-853.0,-147.0
18.0,-227.0,-76.0,22.0,46.0,88.0,-20.0,-858.0,-147.0
18.0,-227.0,-81.0,-2.0,65.0,72.0,-12.0,-865.0,-150.0
16.0,-234.0,-78.0,-13.0,86.0,52.0,-3.0,-885.0,-152.0
23.0,-238.0,-80.0,-11.0,110.0,25.0,-1.0,-910.0,-153.0
24.0,-246.0,-81.0,1.0,140.0,-1.0,12.0,-927.0,-156.0
26.0,-253.0,-84.0,23.0,175.0,-26.0,15.0,-955.0,-150.0
30.0,-258.0,-76.0,54.0,212.0,-47.0,27.0,-973.0,-149.0
30.0,-266.0,-76.0,92.0,254.0,-65.0,40.0,-999.0,-145.0
35.0,-269.0,-76.0,133.0,295.0,-75.0,48.0,-1019.0,-135.0
31.0,-276.0,-74.0,175.0,333.0,-79.0,43.0,-1045.0,-131.0
22.0,-280.0,-71.0,216.0,365.0,-74.0,-1.0,-1055.0,-126.0
11.0,-275.0,-75.0,257.0,379.0,-59.0,-35.0,-1061.0,-127.0
0.0,-276.0,-76.0,293.0,372.0,-38.0,-75.0,-1065.0,-144.0
-9.0,-276.0,-83.0,312.0,354.0,-13.0,-116.0,-1063.0,-169.0
-18.0,-275.0,-89.0,308.0,338.0,11.0,-158.0,-1069.0,-190.0
-30.0,-277.0,-90.0,282.0,325.0,36.0,-192.0,-1067.0,-206.0
-38.0,-279.0,-91.0,235.0,312.0,65.0,-222.0,-1082.0,-210.0
-46.0,-284.0,-92.0,179.0,289.0,94.0,-242.0,-1093.0,-204.0
-40.0,-291.0,-89.0,117.0,264.0,127.0,-238.0,-1117.0,-185.0
-32.0,-298.0,-80.0,59.0,244.0,162.0,-205.0,-1148.0,-158.0
-25.0,-305.0,-69.0,15.0,236.0,188.0,-168.0,-1166.0,-117.0
-10.0,-310.0,-63.0,-1.0,224.0,207.0,-127.0,-1183.0,-74.0
2.0,-315.0,-48.0,17.0,211.0,215.0,-83.0,-1192.0,-33.0
9.0,-315.0,-44.0,60.0,197.0,211.0,-41.0,-1195.0,-13.0
21.0,-313.0,-41.0,118.0,190.0,199.0,-6.0,-1190.0,4.0
32.0,-310.0,-39.0,181.0,193.0,181.0,32.0,-1173.0,9.0
47.0,-304.0,-43.0,243.0,204.0,157.0,90.0,-1151.0,-5.0
59.0,-299.0,-59.0,289.0,225.0,129.0,138.0,-1140.0,-47.0
61.0,-301.0,-68.0,312.0,264.0,99.0,171.0,-1141.0,-97.0
62.0,-304.0,-86.0,313.0,322.0,78.0,152.0,-1165.0,-160.0
45.0,-316.0,-112.0,287.0,402.0,72.0,82.0,-1195.0,-260.0
20.0,-315.0,-142.0,210.0,496.0,82.0,-11.0,-1220.0,-404.0
-5.0,-318.0,-177.0,68.0,604.0,104.0,-117.0,-1227.0,-543.0
-34.0,-320.0,-201.0,-121.0,704.0,137.0,-210.0,-1240.0,-641.0
-57.0,-329.0,-206.0,-276.0,742.0,178.0,-287.0,-1270.0,-682.0
-79.0,-342.0,-204.0,-418.0,689.0,227.0,-354.0,-1302.0,-671.0
-93.0,-351.0,-202.0,-481.0,572.0,291.0,-426.0,-1323.0,-671.0
-110.0,-349.0,-211.0,-478.0,440.0,371.0,-495.0,-1322.0,-688.0
-115.0,-341.0,-218.0,-441.0,315.0,466.0,-518.0,-1293.0,-724.0
-112.0,-328.0,-221.0,-387.0,199.0,567.0,-508.0,-1237.0,-740.0
-94.0,-315.0,-224.0,-310.0,81.0,648.0,-442.0,-1182.0,-756.0
-67.0,-296.0,-222.0,-194.0,-14.0,692.0,-354.0,-1100.0,-758.0
-36.0,-272.0,-228.0,-33.0,-128.0,697.0,-239.0,-1016.0,-766.0
-6.0,-252.0,-228.0,152.0,-226.0,669.0,-120.0,-919.0,-764.0
17.0,-237.0,-224.0,337.0,-300.0,619.0,-4.0,-849.0,-745.0
31.0,-217.0,-219.0,503.0,-342.0,557.0,40.0,-787.0,-717.0
42.0,-200.0,-217.0,638.0,-349.0,489.0,69.0,-737.0,-716.0
46.0,-188.0,-217.0,721.0,-333.0,425.0,84.0,-698.0,-718.0
56.0,-178.0,-222.0,730.0,-314.0,379.0,122.0,-655.0,-720.0
65.0,-167.0,-213.0,668.0,-285.0,325.0,155.0,-632.0,-688.0
69.0,-167.0,-202.0,564.0,-239.0,270.0,187.0,-626.0,-638.0
78.0,-169.0,-184.0,442.0,-179.0,203.0,213.0,-646.0,-575.0
81.0,-179.0,-166.0,313.0,-111.0,126.0,224.0,-671.0,-496.0
85.0,-188.0,-153.0,194.0,-48.0,54.0,233.0,-713.0,-435.0
83.0,-197.0,-132.0,95.0,16.0,-17.0,231.0,-755.0,-382.0
78.0,-213.0,-129.0,21.0,81.0,-86.0,210.0,-807.0,-349.0
71.0,-222.0,-127.0,-45.0,139.0,-155.0,182.0,-866.0,-333.0
61.0,-240.0,-125.0,-110.0,182.0,-221.0,139.0,-919.0,-337.0
44.0,-250.0,-123.0,-175.0,206.0,-280.0,81.0,-960.0,-342.0
25.0,-259.0,-129.0,-233.0,213.0,-336.0,11.0,-991.0,-361.0
9.0,-268.0,-133.0,-276.0,212.0,-387.0,-52.0,-1010.0,-384.0
-11.0,-268.0,-136.0,-305.0,207.0,-435.0,-126.0,-1022.0,-396.0
-31.0,-269.0,-144.0,-314.0,189.0,-480.0,-182.0,-1021.0,-415.0
-47.0,-267.0,-143.0,-301.0,153.0,-523.0,-245.0,-1003.0,-417.0
-62.0,-257.0,-139.0,-267.0,103.0,-557.0,-304.0,-976.0,-419.0
-78.0,-248.0,-139.0,-219.0,32.0,-584.0,-356.0,-937.0,-416.0
-89.0,-239.0,-140.0,-166.0,-54.0,-601.0,-411.0,-905.0,-405.0
-101.0,-228.0,-135.0,-119.0,-154.0,-612.0,-451.0,-867.0,-387.0
-103.0,-218.0,-134.0,-82.0,-266.0,-617.0,-460.0,-825.0,-367.0
-99.0,-211.0,-129.0,-51.0,-386.0,-623.0,-453.0,-799.0,-349.0
-90.0,-203.0,-127.0,-26.0,-503.0,-634.0,-424.0,-774.0,-332.0
-71.0,-200.0,-121.0,2.0,-616.0,-651.0,-372.0,-755.0,-318.0
-49.0,-202.0,-115.0,29.0,-715.0,-679.0,-296.0,-755.0,-312.0
-36.0,-199.0,-119.0,43.0,-794.0,-710.0,-223.0,-744.0,-312.0
-14.0,-196.0,-120.0,42.0,-843.0,-740.0,-163.0,-740.0,-308.0
3.0,-192.0,-123.0,25.0,-862.0,-760.0,-89.0,-730.0,-322.0
20.0,-190.0,-126.0,-4.0,-864.0,-773.0,-24.0,-725.0,-334.0
38.0,-190.0,-126.0,-45.0,-854.0,-783.0,48.0,-718.0,-332.0
57.0,-191.0,-126.0,-98.0,-833.0,-793.0,123.0,-720.0,-328.0
66.0,-193.0,-121.0,-159.0,-806.0,-799.0,170.0,-734.0,-321.0
76.0,-199.0,-112.0,-227.0,-767.0,-800.0,209.0,-763.0,-304.0
86.0,-206.0,-111.0,-291.0,-724.0,-787.0,239.0,-792.0,-277.0
94.0,-219.0,-108.0,-341.0,-680.0,-762.0,273.0,-821.0,-256.0
92.0,-224.0,-99.0,-375.0,-637.0,-736.0,272.0,-853.0,-243.0
89.0,-235.0,-102.0,-389.0,-594.0,-706.0,268.0,-879.0,-245.0
87.0,-241.0,-103.0,-383.0,-556.0,-682.0,252.0,-906.0,-243.0
81.0,-246.0,-103.0,-357.0,-521.0,-655.0,233.0,-922.0,-246.0
73.0,-248.0,-101.0,-310.0,-491.0,-625.0,207.0,-926.0,-252.0
69.0,-250.0,-99.0,-248.0,-465.0,-592.0,183.0,-936.0,-251.0
62.0,-250.0,-100.0,-177.0,-440.0,-562.0,160.0,-935.0,-239.0
55.0,-250.0,-102.0,-92.0,-417.0,-535.0,123.0,-935.0,-245.0
48.0,-246.0,-101.0,-8.0,-398.0,-504.0,101.0,-926.0,-233.0
42.0,-244.0,-99.0,71.0,-381.0,-470.0,79.0,-905.0,-228.0
35.0,-234.0,-95.0,142.0,-369.0,-432.0,57.0,-887.0,-218.0
32.0,-226.0,-90.0,203.0,-360.0,-394.0,49.0,-867.0,-212.0
32.0,-224.0,-89.0,249.0,-350.0,-358.0,37.0,-852.0,-198.0
32.0,-219.0,-87.0,286.0,-338.0,-328.0,34.0,-827.0,-190.0
29.0,-215.0,-84.0,312.0,-324.0,-303.0,23.0,-816.0,-178.0
26.0,-210.0,-87.0,318.0,-312.0,-280.0,23.0,-808.0,-173.0
24.0,-207.0,-84.0,301.0,-300.0,-257.0,32.0,-797.0,-169.0
30.0,-207.0,-77.0,269.0,-289.0,-236.0,36.0,-790.0,-168.0
33.0,-207.0,-79.0,226.0,-278.0,-218.0,45.0,-795.0,-163.0
33.0,-205.0,-80.0,176.0,-269.0,-196.0,42.0,-793.0,-165.0
32.0,-210.0,-81.0,114.0,-268.0,-172.0,51.0,-802.0,-157.0
33.0,-212.0,-81.0,48.0,-279.0,-150.0,51.0,-808.0,-153.0
34.0,-217.0,-76.0,-11.0,-299.0,-129.0,51.0,-827.0,-147.0
31.0,-224.0,-72.0,-63.0,-321.0,-112.0,44.0,-853.0,-140.0
31.0,-233.0,-72.0,-94.0,-336.0,-98.0,41.0,-868.0,-130.0
25.0,-235.0,-71.0,-102.0,-351.0,-89.0,25.0,-888.0,-127.0
22.0,-243.0,-74.0,-99.0,-366.0,-81.0,11.0,-922.0,-119.0
24.0,-252.0,-71.0,-87.0,-383.0,-72.0,11.0,-949.0,-121.0
21.0,-256.0,-72.0,-71.0,-393.0,-63.0,6.0,-972.0,-122.0
23.0,-262.0,-69.0,-47.0,-400.0,-54.0,4.0,-991.0,-132.0
22.0,-264.0,-73.0,-17.0,-399.0,-49.0,10.0,-1014.0,-135.0
27.0,-276.0,-71.0,18.0,-387.0,-43.0,28.0,-1050.0,-133.0
30.0,-282.0,-73.0,62.0,-371.0,-40.0,39.0,-1080.0,-137.0
37.0,-288.0,-77.0,109.0,-347.0,-39.0,54.0,-1095.0,-147.0
45.0,-291.0,-84.0,157.0,-315.0,-39.0,95.0,-1104.0,-166.0
51.0,-293.0,-84.0,194.0,-278.0,-41.0,116.0,-1116.0,-182.0
52.0,-293.0,-86.0,217.0,-247.0,-50.0,115.0,-1112.0,-192.0
49.0,-291.0,-89.0,225.0,-230.0,-67.0,119.0,-1114.0,-193.0
51.0,-289.0,-90.0,224.0,-232.0,-83.0,118.0,-1109.0,-199.0
50.0,-288.0,-92.0,212.0,-243.0,-102.0,102.0,-1101.0,-207.0
46.0,-282.0,-88.0,196.0,-249.0,-121.0,93.0,-1077.0,-195.0
42.0,-276.0,-84.0,181.0,-245.0,-139.0,81.0,-1064.0,-177.0
37.0,-271.0,-77.0,176.0,-238.0,-157.0,56.0,-1043.0,-138.0
32.0,-270.0,-63.0,184.0,-231.0,-168.0,41.0,-1022.0,-111.0
28.0,-267.0,-56.0,207.0,-231.0,-183.0,23.0,-1008.0,-59.0
22.0,-263.0,-45.0,233.0,-234.0,-195.0,6.0,-1002.0,-12.0
20.0,-261.0,-35.0,256.0,-241.0,-206.0,5.0,-1000.0,25.0
19.0,-262.0,-26.0,266.0,-254.0,-217.0,-6.0,-999.0,59.0
13.0,-258.0,-19.0,259.0,-272.0,-230.0,-20.0,-997.0,93.0
7.0,-261.0,-8.0,238.0,-296.0,-239.0,-36.0,-1003.0,107.0
0.0,-264.0,-10.0,204.0,-320.0,-253.0,-68.0,-1026.0,110.0
-13.0,-268.0,-17.0,158.0,-349.0,-272.0,-108.0,-1040.0,96.0
-23.0,-274.0,-27.0,94.0,-381.0,-289.0,-140.0,-1080.0,51.0
-19.0,-290.0,-58.0,-10.0,-421.0,-302.0,-137.0,-1127.0,-36.0
-18.0,-301.0,-87.0,-162.0,-467.0,-306.0,-144.0,-1167.0,-161.0
-10.0,-309.0,-128.0,-364.0,-511.0,-302.0,-143.0,-1202.0,-304.0
-9.0,-317.0,-160.0,-599.0,-541.0,-298.0,-131.0,-1228.0,-449.0
-4.0,-332.0,-185.0,-840.0,-554.0,-312.0,-112.0,-1278.0,-563.0
2.0,-347.0,-194.0,-1045.0,-553.0,-345.0,-91.0,-1333.0,-623.0
18.0,-374.0,-195.0,-1178.0,-557.0,-402.0,-25.0,-1396.0,-649.0
51.0,-388.0,-206.0,-1228.0,-564.0,-491.0,69.0,-1452.0,-665.0
79.0,-403.0,-215.0,-1190.0,-565.0,-593.0,199.0,-1505.0,-723.0
108.0,-412.0,-220.0,-1090.0,-551.0,-685.0,305.0,-1538.0,-742.0
117.0,-413.0,-227.0,-940.0,-531.0,-766.0,364.0,-1540.0,-767.0
112.0,-408.0,-240.0,-738.0,-531.0,-818.0,357.0,-1520.0,-807.0
101.0,-394.0,-253.0,-515.0,-553.0,-840.0,317.0,-1472.0,-862.0
92.0,-374.0,-259.0,-292.0,-585.0,-837.0,265.0,-1385.0,-897.0
73.0,-349.0,-261.0,-55.0,-615.0,-821.0,213.0,-1295.0,-911.0
65.0,-325.0,-261.0,196.0,-633.0,-788.0,174.0,-1193.0,-909.0
59.0,-295.0,-262.0,449.0,-648.0,-749.0,142.0,-1086.0,-885.0
52.0,-258.0,-253.0,692.0,-667.0,-711.0,101.0,-955.0,-868.0
41.0,-222.0,-255.0,908.0,-690.0,-660.0,73.0,-818.0,-850.0
38.0,-184.0,-244.0,1077.0,-715.0,-605.0,60.0,-683.0,-820.0
32.0,-149.0,-227.0,1184.0,-734.0,-550.0,38.0,-554.0,-777.0
28.0,-120.0,-215.0,1228.0,-735.0,-496.0,23.0,-441.0,-704.0
19.0,-91.0,-197.0,1210.0,-718.0,-442.0,-7.0,-350.0,-632.0
13.0,-77.0,-179.0,1126.0,-695.0,-385.0,-39.0,-295.0,-563.0
3.0,-67.0,-162.0,974.0,-680.0,-322.0,-65.0,-273.0,-499.0
2.0,-72.0,-149.0,767.0,-670.0,-250.0,-80.0,-303.0,-438.0
1.0,-92.0,-134.0,517.0,-663.0,-164.0,-78.0,-363.0,-383.0
0.0,-116.0,-118.0,249.0,-657.0,-74.0,-80.0,-458.0,-323.0
4.0,-148.0,-113.0,-9.0,-648.0,19.0,-59.0,-568.0,-288.0
12.0,-179.0,-111.0,-229.0,-637.0,106.0,-44.0,-665.0,-267.0
22.0,-204.0,-107.0,-393.0,-617.0,183.0,-7.0,-770.0,-260.0
33.0,-224.0,-113.0,-497.0,-587.0,249.0,38.0,-849.0,-274.0
47.0,-245.0,-120.0,-554.0,-552.0,306.0,83.0,-916.0,-309.0
55.0,-253.0,-128.0,-579.0,-517.0,356.0,133.0,-959.0,-339.0
71.0,-262.0,-136.0,-585.0,-485.0,403.0,188.0,-987.0,-376.0
81.0,-265.0,-145.0,-573.0,-459.0,443.0,225.0,-1006.0,-418.0
92.0,-269.0,-146.0,-547.0,-439.0,476.0,266.0,-1016.0,-443.0
99.0,-271.0,-155.0,-510.0,-413.0,500.0,297.0,-1016.0,-464.0
110.0,-267.0,-156.0,-473.0,-378.0,507.0,322.0,-1006.0,-471.0
115.0,-266.0,-156.0,-413.0,-328.0,500.0,335.0,-1000.0,-471.0
113.0,-259.0,-159.0,-342.0,-266.0,483.0,341.0,-980.0,-471.0
111.0,-252.0,-156.0,-256.0,-193.0,461.0,332.0,-948.0,-471.0
98.0,-245.0,-161.0,-168.0,-116.0,448.0,295.0,-920.0,-476.0
87.0,-239.0,-154.0,-98.0,-45.0,450.0,254.0,-887.0,-463.0
65.0,-230.0,-148.0,-50.0,1.0,467.0,180.0,-857.0,-439.0
49.0,-223.0,-143.0,-15.0,46.0,485.0,94.0,-845.0,-422.0
35.0,-221.0,-138.0,11.0,84.0,505.0,45.0,-832.0,-400.0
25.0,-221.0,-139.0,27.0,117.0,522.0,9.0,-823.0,-390.0
18.0,-217.0,-132.0,33.0,146.0,528.0,-24.0,-811.0,-373.0
3.0,-215.0,-129.0,35.0,171.0,520.0,-66.0,-814.0,-367.0
-8.0,-217.0,-129.0,24.0,191.0,510.0,-111.0,-829.0,-364.0
-17.0,-222.0,-128.0,-13.0,201.0,509.0,-152.0,-846.0,-342.0
-23.0,-222.0,-122.0,-63.0,204.0,513.0,-183.0,-850.0,-327.0
-27.0,-227.0,-120.0,-102.0,200.0,510.0,-205.0,-856.0,-321.0
-36.0,-229.0,-117.0,-116.0,193.0,500.0,-212.0,-853.0,-320.0
-38.0,-230.0,-122.0,-111.0,181.0,492.0,-219.0,-860.0,-315.0
-36.0,-226.0,-122.0,-109.0,166.0,484.0,-211.0,-860.0,-319.0
-34.0,-227.0,-121.0,-109.0,148.0,477.0,-212.0,-861.0,-325.0
-32.0,-225.0,-124.0,-117.0,127.0,474.0,-199.0,-850.0,-324.0
-29.0,-224.0,-124.0,-134.0,102.0,472.0,-188.0,-852.0,-329.0
-22.0,-223.0,-125.0,-157.0,73.0,467.0,-170.0,-845.0,-331.0
-16.0,-221.0,-125.0,-183.0,42.0,460.0,-144.0,-844.0,-340.0
-11.0,-224.0,-125.0,-212.0,10.0,449.0,-117.0,-852.0,-341.0
-4.0,-226.0,-123.0,-243.0,-23.0,433.0,-96.0,-854.0,-335.0
1.0,-229.0,-126.0,-270.0,-49.0,416.0,-72.0,-863.0,-324.0
9.0,-232.0,-115.0,-279.0,-66.0,392.0,-54.0,-870.0,-311.0
10.0,-235.0,-112.0,-276.0,-74.0,363.0,-44.0,-879.0,-297.0
15.0,-237.0,-110.0,-259.0,-78.0,335.0,-30.0,-888.0,-278.0
20.0,-235.0,-110.0,-238.0,-73.0,306.0,-8.0,-908.0,-265.0
24.0,-243.0,-104.0,-214.0,-61.0,278.0,-1.0,-911.0,-259.0
25.0,-241.0,-101.0,-186.0,-41.0,251.0,12.0,-905.0,-254.0
28.0,-239.0,-101.0,-158.0,-20.0,227.0,20.0,-901.0,-242.0
29.0,-239.0,-97.0,-138.0,0.0,206.0,30.0,-904.0,-232.0
31.0,-237.0,-97.0,-119.0,22.0,185.0,27.0,-889.0,-232.0
32.0,-240.0,-94.0,-106.0,41.0,168.0,35.0,-899.0,-225.0
31.0,-233.0,-106.0,-96.0,60.0,151.0,43.0,-897.0,-213.0
39.0,-240.0,-92.0,-92.0,79.0,132.0,52.0,-904.0,-207.0
42.0,-240.0,-92.0,-89.0,99.0,112.0,62.0,-908.0,-200.0
42.0,-241.0,-88.0,-87.0,121.0,95.0,65.0,-921.0,-200.0
39.0,-241.0,-84.0,-88.0,146.0,81.0,70.0,-925.0,-193.0
37.0,-243.0,-87.0,-93.0,172.0,69.0,64.0,-934.0,-194.0
36.0,-247.0,-92.0,-97.0,198.0,61.0,56.0,-936.0,-194.0
31.0,-249.0,-88.0,-100.0,222.0,55.0,47.0,-947.0,-195.0
28.0,-253.0,-92.0,-100.0,241.0,53.0,27.0,-956.0,-193.0
22.0,-256.0,-87.0,-91.0,255.0,52.0,13.0,-970.0,-194.0
18.0,-258.0,-84.0,-74.0,263.0,53.0,-1.0,-993.0,-187.0
20.0,-270.0,-88.0,-43.0,268.0,54.0,-7.0,-1014.0,-178.0
17.0,-278.0,-78.0,0.0,273.0,55.0,-8.0,-1044.0,-174.0
18.0,-282.0,-82.0,57.0,283.0,57.0,-12.0,-1065.0,-163.0
18.0,-286.0,-77.0,127.0,296.0,61.0,-17.0,-1077.0,-150.0
10.0,-284.0,-77.0,205.0,310.0,67.0,-39.0,-1079.0,-145.0
4.0,-284.0,-80.0,288.0,316.0,78.0,-59.0,-1081.0,-146.0
1.0,-279.0,-82.0,369.0,308.0,89.0,-78.0,-1066.0,-177.0
1.0,-273.0,-97.0,435.0,299.0,100.0,-89.0,-1043.0,-203.0
1.0,-263.0,-102.0,482.0,301.0,110.0,-84.0,-1012.0,-230.0
3.0,-256.0,-105.0,500.0,316.0,114.0,-71.0,-975.0,-261.0
6.0,-245.0,-106.0,492.0,335.0,115.0,-69.0,-943.0,-266.0
5.0,-235.0,-107.0,471.0,355.0,111.0,-51.0,-911.0,-261.0
12.0,-227.0,-104.0,443.0,365.0,100.0,-37.0,-875.0,-247.0
16.0,-220.0,-95.0,416.0,371.0,85.0,-21.0,-842.0,-215.0
24.0,-215.0,-87.0,396.0,374.0,66.0,-1.0,-817.0,-187.0
23.0,-208.0,-80.0,375.0,379.0,41.0,5.0,-793.0,-164.0
30.0,-206.0,-76.0,353.0,396.0,10.0,23.0,-774.0,-144.0
36.0,-202.0,-74.0,326.0,429.0,-27.0,42.0,-774.0,-129.0
43.0,-204.0,-74.0,283.0,486.0,-65.0,72.0,-773.0,-125.0
54.0,-211.0,-71.0,226.0,563.0,-102.0,100.0,-801.0,-135.0
61.0,-221.0,-84.0,154.0,660.0,-131.0,128.0,-842.0,-156.0
66.0,-236.0,-93.0,66.0,765.0,-152.0,155.0,-900.0,-189.0
65.0,-251.0,-98.0,-34.0,868.0,-158.0,169.0,-961.0,-233.0
64.0,-269.0,-114.0,-145.0,960.0,-150.0,169.0,-1030.0,-287.0
59.0,-288.0,-130.0,-272.0,1033.0,-120.0,138.0,-1105.0,-354.0
40.0,-304.0,-139.0,-409.0,1077.0,-67.0,78.0,-1168.0,-432.0
14.0,-321.0,-159.0,-554.0,1069.0,13.0,4.0,-1248.0,-488.0
-10.0,-333.0,-169.0,-698.0,1011.0,121.0,-107.0,-1311.0,-538.0
-26.0,-354.0,-181.0,-809.0,908.0,260.0,-176.0,-1362.0,-577.0
-45.0,-371.0,-188.0,-873.0,779.0,409.0,-232.0,-1416.0,-608.0
-51.0,-384.0,-193.0,-878.0,636.0,557.0,-249.0,-1460.0,-633.0
-48.0,-393.0,-197.0,-815.0,497.0,682.0,-255.0,-1483.0,-641.0
-41.0,-394.0,-194.0,-682.0,375.0,783.0,-218.0,-1473.0,-638.0
-27.0,-389.0,-191.0,-465.0,271.0,846.0,-182.0,-1437.0,-617.0
-8.0,-379.0,-189.0,-175.0,189.0,872.0,-118.0,-1381.0,-608.0
13.0,-359.0,-189.0,155.0,137.0,857.0,-40.0,-1315.0,-602.0
32.0,-326.0,-192.0,481.0,128.0,809.0,39.0,-1207.0,-607.0
48.0,-297.0,-192.0,763.0,158.0,732.0,97.0,-1104.0,-612.0
61.0,-265.0,-195.0,972.0,205.0,643.0,138.0,-982.0,-622.0
62.0,-227.0,-201.0,1087.0,248.0,554.0,151.0,-864.0,-625.0
64.0,-199.0,-198.0,1108.0,275.0,465.0,158.0,-756.0,-633.0
57.0,-176.0,-197.0,1041.0,283.0,373.0,145.0,-665.0,-631.0
52.0,-158.0,-191.0,908.0,282.0,287.0,111.0,-602.0,-609.0
40.0,-142.0,-182.0,732.0,272.0,207.0,58.0,-544.0,-573.0
31.0,-134.0,-177.0,536.0,250.0,130.0,35.0,-525.0,-548.0
21.0,-131.0,-169.0,333.0,226.0,58.0,3.0,-510.0,-503.0
15.0,-129.0,-160.0,138.0,197.0,-1.0,-17.0,-509.0,-474.0
25.0,-135.0,-156.0,-42.0,173.0,-45.0,7.0,-520.0,-472.0
31.0,-143.0,-154.0,-202.0,169.0,-80.0,32.0,-538.0,-464.0
32.0,-152.0,-156.0,-335.0,181.0,-104.0,44.0,-568.0,-458.0
43.0,-161.0,-156.0,-445.0,204.0,-109.0,74.0,-615.0,-452.0
41.0,-175.0,-148.0,-539.0,232.0,-108.0,79.0,-659.0,-438.0
43.0,-190.0,-145.0,-617.0,254.0,-103.0,76.0,-715.0,-435.0
39.0,-210.0,-144.0,-681.0,265.0,-96.0,71.0,-769.0,-420.0
33.0,-225.0,-142.0,-723.0,260.0,-80.0,53.0,-825.0,-399.0
21.0,-242.0,-136.0,-725.0,239.0,-63.0,16.0,-887.0,-391.0
12.0,-256.0,-137.0,-685.0,203.0,-50.0,-17.0,-943.0,-384.0
9.0,-267.0,-133.0,-613.0,159.0,-33.0,-39.0,-990.0,-390.0
2.0,-272.0,-137.0,-522.0,109.0,-12.0,-57.0,-1021.0,-392.0
0.0,-278.0,-139.0,-407.0,51.0,13.0,-66.0,-1041.0,-395.0
-2.0,-281.0,-138.0,-289.0,-11.0,25.0,-91.0,-1041.0,-399.0
-6.0,-274.0,-139.0,-172.0,-75.0,30.0,-100.0,-1033.0,-409.0
-5.0,-273.0,-141.0,-70.0,-134.0,32.0,-108.0,-1019.0,-418.0
-10.0,-263.0,-142.0,5.0,-180.0,20.0,-113.0,-997.0,-417.0
-3.0,-256.0,-145.0,56.0,-217.0,3.0,-103.0,-957.0,-419.0
0.0,-242.0,-135.0,91.0,-242.0,-22.0,-92.0,-919.0,-426.0
4.0,-230.0,-146.0,107.0,-258.0,-50.0,-76.0,-875.0,-440.0
6.0,-220.0,-152.0,98.0,-271.0,-78.0,-54.0,-837.0,-450.0
11.0,-210.0,-157.0,70.0,-281.0,-107.0,-34.0,-800.0,-462.0
22.0,-206.0,-156.0,29.0,-284.0,-135.0,-13.0,-771.0,-473.0
25.0,-200.0,-156.0,-21.0,-286.0,-161.0,14.0,-756.0,-466.0
33.0,-193.0,-158.0,-78.0,-281.0,-185.0,34.0,-746.0,-475.0
35.0,-195.0,-155.0,-139.0,-275.0,-201.0,55.0,-738.0,-473.0
40.0,-196.0,-156.0,-202.0,-267.0,-208.0,68.0,-739.0,-471.0
44.0,-193.0,-153.0,-264.0,-267.0,-204.0,82.0,-736.0,-466.0
42.0,-197.0,-154.0,-320.0,-273.0,-198.0,82.0,-742.0,-450.0
40.0,-196.0,-152.0,-362.0,-287.0,-187.0,79.0,-750.0,-453.0
43.0,-199.0,-153.0,-395.0,-309.0,-166.0,78.0,-756.0,-451.0
40.0,-201.0,-152.0,-426.0,-332.0,-138.0,78.0,-762.0,-458.0
42.0,-201.0,-155.0,-454.0,-350.0,-109.0,77.0,-764.0,-467.0
39.0,-203.0,-158.0,-475.0,-356.0,-78.0,70.0,-773.0,-471.0
43.0,-207.0,-160.0,-491.0,-349.0,-49.0,71.0,-774.0,-476.0
42.0,-208.0,-159.0,-497.0,-328.0,-28.0,64.0,-778.0,-485.0
42.0,-207.0,-159.0,-493.0,-299.0,-8.0,65.0,-779.0,-477.0
43.0,-210.0,-162.0,-479.0,-259.0,5.0,67.0,-788.0,-475.0
44.0,-210.0,-161.0,-459.0,-210.0,13.0,78.0,-794.0,-483.0
46.0,-216.0,-165.0,-435.0,-149.0,19.0,71.0,-806.0,-491.0
46.0,-218.0,-164.0,-420.0,-85.0,21.0,82.0,-816.0,-508.0
50.0,-221.0,-171.0,-411.0,-22.0,22.0,88.0,-824.0,-513.0
46.0,-221.0,-165.0,-405.0,34.0,22.0,90.0,-829.0,-515.0
47.0,-228.0,-169.0,-397.0,75.0,28.0,90.0,-846.0,-503.0
42.0,-227.0,-165.0,-386.0,100.0,40.0,90.0,-851.0,-499.0
43.0,-233.0,-160.0,-376.0,112.0,58.0,77.0,-865.0,-492.0
38.0,-233.0,-162.0,-367.0,116.0,74.0,75.0,-865.0,-479.0
37.0,-233.0,-158.0,-348.0,111.0,89.0,59.0,-874.0,-478.0
30.0,-230.0,-159.0,-327.0,100.0,109.0,38.0,-876.0,-487.0
25.0,-231.0,-164.0,-315.0,90.0,130.0,19.0,-869.0,-489.0
22.0,-229.0,-164.0,-310.0,84.0,157.0,-1.0,-867.0,-492.0
15.0,-226.0,-159.0,-313.0,80.0,183.0,-24.0,-856.0,-484.0
10.0,-227.0,-163.0,-317.0,77.0,208.0,-35.0,-847.0,-478.0
12.0,-226.0,-155.0,-314.0,73.0,230.0,-54.0,-842.0,-455.0
12.0,-223.0,-147.0,-304.0,66.0,249.0,-53.0,-823.0,-430.0
6.0,-218.0,-141.0,-288.0,61.0,265.0,-59.0,-813.0,-406.0
7.0,-216.0,-132.0,-270.0,58.0,275.0,-60.0,-812.0,-374.0
8.0,-210.0,-132.0,-253.0,60.0,283.0,-56.0,-808.0,-367.0
9.0,-212.0,-130.0,-247.0,73.0,287.0,-53.0,-798.0,-360.0
5.0,-207.0,-132.0,-253.0,91.0,292.0,-49.0,-791.0,-370.0
10.0,-206.0,-130.0,-281.0,101.0,295.0,-39.0,-786.0,-379.0
11.0,-205.0,-133.0,-330.0,105.0,296.0,-37.0,-787.0,-380.0
13.0,-204.0,-135.0,-394.0,98.0,297.0,-25.0,-786.0,-381.0
14.0,-206.0,-133.0,-464.0,79.0,294.0,-23.0,-789.0,-374.0
16.0,-209.0,-135.0,-528.0,58.0,289.0,-14.0,-800.0,-371.0
21.0,-219.0,-133.0,-581.0,32.0,283.0,-6.0,-819.0,-375.0
19.0,-221.0,-131.0,-620.0,10.0,276.0,1.0,-833.0,-376.0
23.0,-225.0,-131.0,-651.0,-6.0,266.0,4.0,-854.0,-374.0
20.0,-229.0,-133.0,-669.0,-24.0,250.0,10.0,-873.0,-375.0
22.0,-238.0,-134.0,-672.0,-53.0,237.0,9.0,-887.0,-374.0
22.0,-238.0,-133.0,-665.0,-85.0,221.0,0.0,-888.0,-383.0
19.0,-237.0,-141.0,-651.0,-118.0,205.0,0.0,-890.0,-386.0
17.0,-234.0,-135.0,-634.0,-144.0,190.0,-15.0,-895.0,-390.0
18.0,-238.0,-135.0,-622.0,-159.0,176.0,-20.0,-885.0,-385.0
16.0,-236.0,-134.0,-607.0,-167.0,162.0,-29.0,-890.0,-372.0
13.0,-239.0,-131.0,-595.0,-172.0,150.0,-45.0,-889.0,-361.0
8.0,-238.0,-129.0,-584.0,-180.0,138.0,-43.0,-901.0,-355.0
11.0,-241.0,-127.0,-577.0,-186.0,127.0,-44.0,-915.0,-341.0
9.0,-245.0,-125.0,-572.0,-192.0,116.0,-37.0,-925.0,-337.0
16.0,-247.0,-125.0,-573.0,-203.0,108.0,-26.0,-938.0,-329.0
22.0,-248.0,-124.0,-577.0,-219.0,104.0,-2.0,-944.0,-332.0
32.0,-249.0,-122.0,-588.0,-233.0,100.0,24.0,-951.0,-332.0
40.0,-250.0,-117.0,-603.0,-243.0,100.0,60.0,-951.0,-324.0
40.0,-248.0,-121.0,-617.0,-252.0,102.0,74.0,-949.0,-305.0
44.0,-250.0,-111.0,-628.0,-267.0,107.0,83.0,-946.0,-287.0
44.0,-247.0,-108.0,-630.0,-296.0,117.0,88.0,-941.0,-272.0
45.0,-248.0,-106.0,-632.0,-334.0,131.0,81.0,-936.0,-268.0
39.0,-242.0,-106.0,-639.0,-377.0,145.0,75.0,-926.0,-259.0
36.0,-242.0,-101.0,-651.0,-421.0,155.0,67.0,-925.0,-252.0
32.0,-239.0,-101.0,-667.0,-465.0,163.0,50.0,-918.0,-240.0
27.0,-241.0,-99.0,-683.0,-509.0,167.0,27.0,-916.0,-229.0
21.0,-241.0,-99.0,-699.0,-552.0,169.0,13.0,-915.0,-228.0
16.0,-239.0,-100.0,-716.0,-584.0,164.0,-10.0,-921.0,-240.0
15.0,-243.0,-114.0,-740.0,-597.0,157.0,-34.0,-930.0,-274.0
7.0,-247.0,-118.0,-781.0,-586.0,151.0,-56.0,-940.0,-309.0
0.0,-246.0,-131.0,-840.0,-559.0,144.0,-83.0,-954.0,-361.0
-4.0,-252.0,-148.0,-908.0,-515.0,133.0,-101.0,-963.0,-407.0
-3.0,-258.0,-159.0,-978.0,-458.0,118.0,-111.0,-981.0,-463.0
-9.0,-260.0,-168.0,-1053.0,-400.0,98.0,-123.0,-995.0,-509.0
-11.0,-268.0,-172.0,-1129.0,-351.0,75.0,-126.0,-1007.0,-543.0
-6.0,-269.0,-180.0,-1194.0,-324.0,50.0,-114.0,-1027.0,-559.0
-9.0,-274.0,-177.0,-1233.0,-324.0,27.0,-122.0,-1036.0,-556.0
-2.0,-280.0,-174.0,-1242.0,-345.0,11.0,-98.0,-1046.0,-553.0
0.0,-282.0,-181.0,-1219.0,-379.0,-9.0,-88.0,-1061.0,-553.0
4.0,-283.0,-174.0,-1168.0,-419.0,-24.0,-71.0,-1065.0,-550.0
6.0,-285.0,-178.0,-1100.0,-448.0,-37.0,-55.0,-1070.0,-550.0
10.0,-286.0,-178.0,-1024.0,-462.0,-49.0,-44.0,-1072.0,-555.0
5.0,-278.0,-182.0,-954.0,-463.0,-54.0,-48.0,-1067.0,-571.0
4.0,-279.0,-188.0,-893.0,-467.0,-52.0,-60.0,-1061.0,-593.0
4.0,-277.0,-191.0,-850.0,-489.0,-45.0,-68.0,-1044.0,-605.0
-4.0,-268.0,-192.0,-823.0,-530.0,-30.0,-75.0,-1014.0,-620.0
-4.0,-262.0,-194.0,-809.0,-589.0,-4.0,-85.0,-998.0,-623.0
-10.0,-258.0,-198.0,-806.0,-658.0,26.0,-104.0,-972.0,-626.0
-9.0,-252.0,-194.0,-803.0,-729.0,61.0,-119.0,-954.0,-616.0
-10.0,-249.0,-190.0,-796.0,-788.0,87.0,-116.0,-933.0,-616.0
-8.0,-246.0,-195.0,-776.0,-827.0,112.0,-123.0,-922.0,-629.0
0.0,-243.0,-199.0,-745.0,-829.0,129.0,-108.0,-913.0,-638.0
3.0,-240.0,-206.0,-704.0,-799.0,125.0,-77.0,-890.0,-650.0
8.0,-235.0,-208.0,-651.0,-737.0,105.0,-69.0,-864.0,-684.0
8.0,-224.0,-219.0,-600.0,-642.0,80.0,-66.0,-831.0,-721.0
15.0,-210.0,-229.0,-580.0,-527.0,55.0,-35.0,-793.0,-757.0
20.0,-201.0,-232.0,-599.0,-418.0,26.0,-10.0,-752.0,-766.0
23.0,-194.0,-224.0,-639.0,-336.0,-6.0,9.0,-724.0,-739.0
28.0,-198.0,-219.0,-672.0,-275.0,-30.0,14.0,-729.0,-718.0
29.0,-199.0,-217.0,-697.0,-219.0,-52.0,12.0,-749.0,-704.0
22.0,-207.0,-208.0,-703.0,-155.0,-75.0,-12.0,-761.0,-688.0
15.0,-208.0,-210.0,-682.0,-85.0,-91.0,-44.0,-780.0,-685.0
8.0,-213.0,-210.0,-644.0,-15.0,-101.0,-67.0,-791.0,-680.0
-6.0,-213.0,-209.0,-594.0,43.0,-108.0,-112.0,-799.0,-685.0
-13.0,-214.0,-218.0,-539.0,95.0,-108.0,-151.0,-803.0,-693.0
-22.0,-212.0,-215.0,-487.0,147.0,-104.0,-180.0,-796.0,-705.0
-31.0,-209.0,-214.0,-448.0,197.0,-91.0,-211.0,-784.0,-709.0
-37.0,-206.0,-219.0,-416.0,251.0,-72.0,-238.0,-780.0,-718.0
-41.0,-205.0,-221.0,-388.0,306.0,-51.0,-261.0,-763.0,-710.0
-45.0,-201.0,-211.0,-364.0,364.0,-23.0,-264.0,-758.0,-693.0
-43.0,-200.0,-208.0,-337.0,414.0,9.0,-265.0,-744.0,-682.0
-42.0,-197.0,-204.0,-307.0,455.0,36.0,-257.0,-734.0,-666.0
-40.0,-198.0,-202.0,-274.0,491.0,60.0,-252.0,-729.0,-649.0
-44.0,-192.0,-202.0,-236.0,517.0,82.0,-241.0,-718.0,-635.0
-41.0,-191.0,-193.0,-194.0,531.0,95.0,-243.0,-707.0,-621.0
-43.0,-187.0,-191.0,-157.0,535.0,106.0,-251.0,-680.0,-604.0
-46.0,-180.0,-189.0,-119.0,531.0,117.0,-259.0,-666.0,-599.0
-47.0,-176.0,-191.0,-94.0,528.0,131.0,-264.0,-655.0,-598.0
-46.0,-174.0,-191.0,-85.0,537.0,147.0,-272.0,-639.0,-606.0
-46.0,-166.0,-193.0,-89.0,553.0,166.0,-276.0,-628.0,-613.0
-51.0,-164.0,-192.0,-109.0,574.0,181.0,-285.0,-615.0,-610.0
-56.0,-163.0,-192.0,-143.0,596.0,186.0,-301.0,-615.0,-606.0
-65.0,-165.0,-189.0,-185.0,615.0,184.0,-327.0,-617.0,-588.0
-70.0,-170.0,-185.0,-229.0,629.0,171.0,-352.0,-628.0,-577.0
-83.0,-179.0,-182.0,-262.0,640.0,160.0,-400.0,-651.0,-554.0
-89.0,-186.0,-176.0,-276.0,650.0,157.0,-425.0,-687.0,-539.0
-97.0,-193.0,-169.0,-265.0,658.0,161.0,-464.0,-712.0,-506.0
-102.0,-199.0,-163.0,-235.0,658.0,168.0,-472.0,-737.0,-497.0
-102.0,-208.0,-159.0,-190.0,647.0,182.0,-478.0,-762.0,-491.0
-100.0,-209.0,-157.0,-141.0,626.0,195.0,-479.0,-784.0,-484.0
-102.0,-211.0,-161.0,-79.0,598.0,219.0,-470.0,-788.0,-489.0
-98.0,-213.0,-168.0,-10.0,570.0,254.0,-457.0,-795.0,-512.0
-96.0,-214.0,-176.0,54.0,538.0,293.0,-445.0,-793.0,-547.0
-88.0,-208.0,-184.0,105.0,504.0,328.0,-425.0,-791.0,-570.0
-78.0,-208.0,-194.0,146.0,469.0,357.0,-402.0,-772.0,-588.0
-67.0,-206.0,-187.0,179.0,434.0,379.0,-361.0,-761.0,-596.0
-61.0,-197.0,-185.0,209.0,400.0,392.0,-319.0,-750.0,-596.0
-51.0,-199.0,-187.0,240.0,369.0,394.0,-276.0,-735.0,-584.0
-43.0,-195.0,-184.0,265.0,336.0,382.0,-243.0,-728.0,-573.0
-32.0,-191.0,-183.0,282.0,300.0,366.0,-215.0,-717.0,-569.0
-31.0,-187.0,-187.0,282.0,258.0,342.0,-196.0,-706.0,-587.0
-26.0,-186.0,-195.0,257.0,212.0,310.0,-192.0,-685.0,-616.0
-28.0,-179.0,-208.0,212.0,172.0,279.0,-186.0,-671.0,-661.0
-28.0,-175.0,-218.0,156.0,140.0,249.0,-195.0,-658.0,-708.0
-34.0,-176.0,-229.0,84.0,115.0,220.0,-215.0,-645.0,-758.0
-43.0,-170.0,-240.0,10.0,94.0,192.0,-244.0,-638.0,-795.0
-52.0,-175.0,-246.0,-68.0,76.0,167.0,-278.0,-649.0,-823.0
-53.0,-181.0,-251.0,-142.0,56.0,138.0,-297.0,-660.0,-838.0
-58.0,-187.0,-247.0,-204.0,33.0,104.0,-307.0,-676.0,-843.0
-59.0,-189.0,-250.0,-259.0,8.0,69.0,-305.0,-697.0,-841.0
-58.0,-191.0,-250.0,-307.0,-13.0,40.0,-305.0,-712.0,-849.0
-55.0,-194.0,-256.0,-347.0,-29.0,19.0,-303.0,-724.0,-861.0
-53.0,-200.0,-257.0,-377.0,-35.0,16.0,-291.0,-741.0,-872.0
-48.0,-201.0,-257.0,-398.0,-27.0,27.0,-279.0,-755.0,-889.0
-43.0,-207.0,-259.0,-401.0,0.0,50.0,-266.0,-768.0,-889.0
-37.0,-210.0,-256.0,-387.0,46.0,80.0,-230.0,-781.0,-892.0
-28.0,-214.0,-255.0,-354.0,102.0,111.0,-206.0,-790.0,-887.0
-19.0,-215.0,-257.0,-315.0,156.0,143.0,-177.0,-805.0,-875.0
-12.0,-221.0,-259.0,-273.0,201.0,171.0,-144.0,-818.0,-870.0
-8.0,-225.0,-256.0,-231.0,229.0,191.0,-126.0,-825.0,-866.0
-2.0,-226.0,-255.0,-192.0,255.0,202.0,-106.0,-854.0,-853.0
0.0,-229.0,-245.0,-156.0,274.0,203.0,-99.0,-853.0,-841.0
-2.0,-231.0,-241.0,-124.0,286.0,198.0,-98.0,-861.0,-815.0
-3.0,-229.0,-235.0,-93.0,291.0,194.0,-104.0,-851.0,-786.0
-5.0,-230.0,-229.0,-64.0,289.0,187.0,-111.0,-854.0,-768.0
-7.0,-229.0,-223.0,-40.0,287.0,184.0,-123.0,-851.0,-744.0
-11.0,-225.0,-218.0,-26.0,286.0,184.0,-135.0,-847.0,-721.0
-16.0,-222.0,-216.0,-19.0,284.0,186.0,-150.0,-833.0,-714.0
-16.0,-219.0,-219.0,-18.0,281.0,196.0,-161.0,-821.0,-718.0
-25.0,-216.0,-220.0,-20.0,278.0,216.0,-177.0,-811.0,-710.0
-27.0,-212.0,-217.0,-24.0,271.0,241.0,-180.0,-796.0,-717.0
-27.0,-212.0,-221.0,-31.0,263.0,270.0,-193.0,-789.0,-713.0
-30.0,-210.0,-213.0,-32.0,255.0,300.0,-202.0,-785.0,-711.0
-30.0,-210.0,-211.0,-31.0,252.0,329.0,-212.0,-775.0,-708.0
-33.0,-206.0,-212.0,-22.0,256.0,351.0,-218.0,-768.0,-696.0
-30.0,-201.0,-212.0,-11.0,267.0,372.0,-217.0,-762.0,-697.0
-33.0,-202.0,-208.0,1.0,282.0,392.0,-210.0,-749.0,-680.0
-32.0,-196.0,-205.0,13.0,299.0,409.0,-210.0,-728.0,-674.0
-31.0,-192.0,-202.0,25.0,318.0,421.0,-209.0,-713.0,-658.0
-30.0,-184.0,-200.0,32.0,335.0,428.0,-208.0,-698.0,-649.0
-27.0,-184.0,-203.0,33.0,344.0,434.0,-205.0,-676.0,-644.0
-31.0,-176.0,-200.0,23.0,351.0,434.0,-203.0,-659.0,-647.0
-31.0,-174.0,-195.0,-1.0,353.0,429.0,-198.0,-649.0,-634.0
-33.0,-170.0,-194.0,-36.0,355.0,422.0,-208.0,-636.0,-629.0
-32.0,-168.0,-196.0,-81.0,357.0,416.0,-212.0,-639.0,-626.0
-32.0,-171.0,-197.0,-138.0,358.0,406.0,-211.0,-634.0,-628.0
-35.0,-170.0,-196.0,-198.0,362.0,400.0,-218.0,-635.0,-628.0
-35.0,-173.0,-193.0,-261.0,362.0,397.0,-225.0,-651.0,-622.0
-40.0,-178.0,-193.0,-315.0,361.0,392.0,-227.0,-659.0,-623.0
-40.0,-179.0,-198.0,-358.0,356.0,394.0,-229.0,-667.0,-622.0
-37.0,-186.0,-196.0,-387.0,351.0,392.0,-226.0,-678.0,-630.0
-39.0,-185.0,-197.0,-404.0,346.0,388.0,-230.0,-698.0,-632.0
-37.0,-190.0,-199.0,-410.0,339.0,385.0,-224.0,-705.0,-637.0
-34.0,-192.0,-197.0,-403.0,336.0,379.0,-214.0,-715.0,-649.0
-32.0,-193.0,-194.0,-387.0,334.0,372.0,-205.0,-727.0,-644.0
-32.0,-194.0,-201.0,-361.0,339.0,362.0,-201.0,-732.0,-636.0
-22.0,-195.0,-196.0,-327.0,346.0,349.0,-182.0,-739.0,-639.0
-24.0,-198.0,-198.0,-291.0,358.0,338.0,-177.0,-733.0,-647.0
-16.0,-198.0,-195.0,-257.0,366.0,328.0,-162.0,-745.0,-644.0
-7.0,-197.0,-201.0,-229.0,374.0,317.0,-159.0,-747.0,-644.0
-20.0,-199.0,-196.0,-207.0,370.0,307.0,-163.0,-748.0,-636.0
-23.0,-203.0,-195.0,-189.0,356.0,303.0,-168.0,-759.0,-635.0
-20.0,-207.0,-196.0,-169.0,335.0,300.0,-186.0,-772.0,-638.0
-30.0,-207.0,-200.0,-150.0,309.0,299.0,-192.0,-769.0,-650.0
-33.0,-209.0,-209.0,-132.0,281.0,302.0,-210.0,-773.0,-663.0
-38.0,-208.0,-208.0,-113.0,262.0,306.0,-222.0,-772.0,-692.0
-37.0,-205.0,-210.0,-97.0,250.0,312.0,-238.0,-779.0,-700.0
-45.0,-203.0,-216.0,-80.0,241.0,311.0,-255.0,-768.0,-712.0
-48.0,-204.0,-216.0,-58.0,234.0,308.0,-271.0,-757.0,-712.0
-48.0,-198.0,-219.0,-33.0,225.0,302.0,-273.0,-744.0,-725.0
-52.0,-195.0,-220.0,-5.0,215.0,293.0,-283.0,-732.0,-731.0
-48.0,-192.0,-220.0,20.0,204.0,284.0,-284.0,-716.0,-736.0
-52.0,-187.0,-221.0,44.0,194.0,271.0,-283.0,-700.0,-732.0
-51.0,-184.0,-217.0,67.0,189.0,256.0,-289.0,-676.0,-732.0
-52.0,-180.0,-218.0,85.0,184.0,239.0,-281.0,-663.0,-722.0
-48.0,-170.0,-222.0,99.0,178.0,227.0,-264.0,-649.0,-726.0
-43.0,-170.0,-214.0,101.0,171.0,214.0,-254.0,-632.0,-717.0
-41.0,-167.0,-216.0,101.0,164.0,202.0,-242.0,-619.0,-718.0
-35.0,-163.0,-217.0,93.0,154.0,187.0,-232.0,-614.0,-716.0
-31.0,-165.0,-217.0,73.0,148.0,178.0,-222.0,-614.0,-708.0
-28.0,-167.0,-216.0,47.0,144.0,173.0,-198.0,-615.0,-708.0
-24.0,-168.0,-213.0,13.0,148.0,170.0,-180.0,-624.0,-702.0
-20.0,-171.0,-213.0,-19.0,158.0,170.0,-166.0,-633.0,-693.0
-20.0,-174.0,-211.0,-52.0,172.0,171.0,-162.0,-649.0,-689.0
-18.0,-177.0,-203.0,-76.0,187.0,172.0,-162.0,-657.0,-681.0
-14.0,-186.0,-206.0,-95.0,201.0,172.0,-152.0,-673.0,-672.0
-15.0,-188.0,-208.0,-104.0,215.0,170.0,-151.0,-684.0,-664.0
-12.0,-189.0,-204.0,-106.0,230.0,170.0,-140.0,-697.0,-677.0
-12.0,-191.0,-207.0,-99.0,249.0,167.0,-139.0,-707.0,-679.0
-12.0,-192.0,-204.0,-83.0,266.0,164.0,-133.0,-714.0,-676.0
-8.0,-194.0,-211.0,-62.0,283.0,159.0,-134.0,-709.0,-685.0
-7.0,-194.0,-209.0,-36.0,298.0,156.0,-125.0,-717.0,-682.0
-8.0,-191.0,-212.0,-10.0,308.0,153.0,-129.0,-709.0,-686.0
-7.0,-192.0,-207.0,15.0,314.0,151.0,-121.0,-708.0,-686.0
-9.0,-191.0,-210.0,43.0,322.0,150.0,-112.0,-706.0,-687.0
-5.0,-188.0,-208.0,68.0,330.0,151.0,-108.0,-693.0,-684.0
-4.0,-189.0,-208.0,91.0,338.0,153.0,-110.0,-684.0,-679.0
-7.0,-184.0,-208.0,107.0,346.0,156.0,-108.0,-681.0,-680.0
-1.0,-182.0,-209.0,118.0,353.0,158.0,-106.0,-672.0,-676.0
-4.0,-182.0,-208.0,123.0,363.0,162.0,-109.0,-668.0,-676.0
-5.0,-182.0,-208.0,126.0,378.0,165.0,-106.0,-662.0,-665.0
-2.0,-180.0,-207.0,124.0,398.0,169.0,-103.0,-663.0,-667.0
-5.0,-181.0,-203.0,122.0,423.0,170.0,-107.0,-665.0,-658.0
-4.0,-179.0,-201.0,122.0,451.0,169.0,-111.0,-667.0,-656.0
-4.0,-184.0,-203.0,117.0,479.0,169.0,-112.0,-672.0,-651.0
-4.0,-184.0,-203.0,115.0,507.0,167.0,-111.0,-682.0,-652.0
-6.0,-184.0,-200.0,113.0,536.0,163.0,-110.0,-689.0,-649.0
-6.0,-184.0,-201.0,109.0,563.0,160.0,-108.0,-701.0,-648.0
-6.0,-190.0,-202.0,108.0,585.0,158.0,-118.0,-709.0,-643.0
-5.0,-193.0,-195.0,108.0,602.0,156.0,-113.0,-707.0,-647.0
-11.0,-190.0,-202.0,110.0,613.0,153.0,-122.0,-717.0,-647.0
-12.0,-189.0,-202.0,115.0,621.0,152.0,-127.0,-715.0,-657.0
-12.0,-192.0,-200.0,120.0,627.0,151.0,-137.0,-714.0,-660.0
-13.0,-191.0,-205.0,123.0,631.0,149.0,-138.0,-713.0,-661.0
-11.0,-191.0,-203.0,122.0,634.0,147.0,-136.0,-710.0,-674.0
-14.0,-191.0,-207.0,122.0,642.0,144.0,-138.0,-706.0,-673.0
-12.0,-192.0,-208.0,122.0,651.0,145.0,-140.0,-702.0,-669.0
-10.0,-191.0,-206.0,123.0,660.0,143.0,-139.0,-705.0,-666.0
-14.0,-191.0,-203.0,122.0,674.0,141.0,-142.0,-707.0,-660.0
-10.0,-190.0,-199.0,121.0,690.0,138.0,-138.0,-702.0,-654.0
-11.0,-188.0,-199.0,120.0,706.0,136.0,-136.0,-702.0,-654.0
-9.0,-190.0,-201.0,120.0,723.0,133.0,-136.0,-701.0,-656.0
-9.0,-188.0,-199.0,118.0,742.0,130.0,-131.0,-700.0,-647.0
-5.0,-191.0,-198.0,111.0,760.0,130.0,-121.0,-706.0,-653.0
-4.0,-188.0,-204.0,104.0,778.0,129.0,-121.0,-710.0,-651.0
-1.0,-189.0,-200.0,96.0,797.0,127.0,-110.0,-715.0,-645.0
-2.0,-194.0,-201.0,88.0,811.0,124.0,-112.0,-710.0,-655.0
-6.0,-192.0,-201.0,78.0,826.0,121.0,-113.0,-717.0,-655.0
-3.0,-192.0,-203.0,68.0,842.0,120.0,-112.0,-721.0,-654.0
-4.0,-193.0,-203.0,60.0,857.0,116.0,-112.0,-722.0,-656.0
-7.0,-193.0,-203.0,54.0,874.0,113.0,-111.0,-727.0,-654.0
0.0,-195.0,-204.0,51.0,888.0,109.0,-106.0,-724.0,-657.0
-2.0,-193.0,-204.0,50.0,900.0,102.0,-108.0,-728.0,-659.0
0.0,-194.0,-205.0,52.0,914.0,94.0,-103.0,-727.0,-663.0
0.0,-194.0,-202.0,55.0,926.0,87.0,-104.0,-724.0,-659.0
-1.0,-190.0,-212.0,59.0,937.0,78.0,-99.0,-723.0,-657.0
0.0,-193.0,-205.0,65.0,948.0,67.0,-104.0,-722.0,-658.0
-1.0,-192.0,-202.0,71.0,958.0,55.0,-95.0,-719.0,-657.0
-3.0,-190.0,-206.0,80.0,966.0,41.0,-92.0,-719.0,-661.0
0.0,-192.0,-205.0,82.0,972.0,30.0,-100.0,-714.0,-660.0
-2.0,-192.0,-205.0,85.0,974.0,19.0,-103.0,-713.0,-661.0
-4.0,-190.0,-203.0,87.0,974.0,8.0,-112.0,-708.0,-661.0
-10.0,-190.0,-203.0,85.0,973.0,0.0,-112.0,-708.0,-666.0
-10.0,-188.0,-206.0,85.0,969.0,-7.0,-120.0,-702.0,-665.0
-10.0,-189.0,-205.0,81.0,964.0,-13.0,-123.0,-697.0,-674.0
-12.0,-186.0,-205.0,73.0,959.0,-17.0,-124.0,-696.0,-669.0
-9.0,-188.0,-207.0,65.0,955.0,-19.0,-124.0,-687.0,-673.0
-7.0,-187.0,-209.0,55.0,952.0,-22.0,-126.0,-691.0,-673.0
-9.0,-185.0,-206.0,42.0,946.0,-23.0,-125.0,-693.0,-677.0
-8.0,-186.0,-210.0,27.0,938.0,-25.0,-118.0,-682.0,-680.0
-5.0,-184.0,-210.0,15.0,930.0,-26.0,-115.0,-682.0,-685.0
-4.0,-183.0,-211.0,1.0,921.0,-29.0,-104.0,-677.0,-683.0
-6.0,-184.0,-211.0,-9.0,910.0,-32.0,-102.0,-677.0,-683.0
-3.0,-180.0,-204.0,-18.0,894.0,-34.0,-100.0,-680.0,-685.0
-5.0,-184.0,-207.0,-21.0,874.0,-35.0,-99.0,-670.0,-685.0
-2.0,-184.0,-211.0,-25.0,849.0,-37.0,-93.0,-673.0,-694.0
0.0,-182.0,-214.0,-29.0,820.0,-39.0,-97.0,-673.0,-688.0
-2.0,-182.0,-211.0,-32.0,788.0,-40.0,-97.0,-672.0,-688.0
-3.0,-182.0,-211.0,-34.0,758.0,-44.0,-95.0,-682.0,-686.0
0.0,-184.0,-209.0,-37.0,728.0,-48.0,-94.0,-677.0,-684.0
-1.0,-187.0,-208.0,-37.0,700.0,-54.0,-97.0,-683.0,-681.0
0.0,-184.0,-205.0,-37.0,674.0,-62.0,-95.0,-683.0,-663.0
0.0,-186.0,-204.0,-35.0,644.0,-71.0,-96.0,-684.0,-654.0
-3.0,-185.0,-199.0,-30.0,618.0,-80.0,-99.0,-684.0,-644.0
-1.0,-186.0,-196.0,-26.0,594.0,-89.0,-106.0,-684.0,-638.0
-5.0,-183.0,-193.0,-22.0,573.0,-98.0,-107.0,-683.0,-620.0
-5.0,-185.0,-193.0,-19.0,556.0,-104.0,-110.0,-689.0,-613.0
-7.0,-182.0,-189.0,-12.0,541.0,-108.0,-108.0,-684.0,-604.0
-1.0,-186.0,-190.0,-7.0,530.0,-112.0,-101.0,-694.0,-596.0
-3.0,-189.0,-185.0,-3.0,525.0,-115.0,-94.0,-686.0,-589.0
-5.0,-186.0,-183.0,0.0,522.0,-117.0,-96.0,-695.0,-581.0
1.0,-190.0,-184.0,3.0,523.0,-117.0,-91.0,-700.0,-572.0
4.0,-190.0,-183.0,7.0,524.0,-118.0,-87.0,-705.0,-572.0
5.0,-191.0,-179.0,11.0,528.0,-121.0,-72.0,-704.0,-559.0
6.0,-188.0,-181.0,15.0,530.0,-124.0,-66.0,-708.0,-555.0
7.0,-190.0,-177.0,21.0,532.0,-126.0,-62.0,-712.0,-549.0
9.0,-190.0,-172.0,27.0,532.0,-129.0,-59.0,-709.0,-539.0
7.0,-192.0,-171.0,32.0,533.0,-133.0,-52.0,-712.0,-536.0
9.0,-191.0,-171.0,38.0,534.0,-137.0,-49.0,-714.0,-519.0
11.0,-191.0,-168.0,48.0,535.0,-144.0,-44.0,-716.0,-517.0
11.0,-191.0,-167.0,57.0,542.0,-151.0,-38.0,-715.0,-512.0
13.0,-191.0,-168.0,68.0,553.0,-160.0,-35.0,-715.0,-505.0
14.0,-192.0,-164.0,79.0,570.0,-169.0,-33.0,-716.0,-494.0
16.0,-189.0,-162.0,91.0,594.0,-177.0,-28.0,-710.0,-494.0
16.0,-192.0,-160.0,107.0,622.0,-184.0,-24.0,-709.0,-488.0
19.0,-190.0,-159.0,123.0,649.0,-189.0,-23.0,-704.0,-474.0
16.0,-182.0,-158.0,138.0,678.0,-195.0,-14.0,-688.0,-472.0
15.0,-183.0,-154.0,146.0,706.0,-198.0,-21.0,-692.0,-460.0
16.0,-181.0,-151.0,145.0,727.0,-199.0,-19.0,-681.0,-452.0
18.0,-178.0,-147.0,136.0,744.0,-198.0,-19.0,-668.0,-437.0
17.0,-173.0,-150.0,113.0,758.0,-190.0,-26.0,-648.0,-442.0
17.0,-170.0,-145.0,78.0,767.0,-180.0,-22.0,-643.0,-425.0
14.0,-169.0,-144.0,32.0,771.0,-169.0,-29.0,-632.0,-422.0
12.0,-168.0,-144.0,-27.0,768.0,-157.0,-36.0,-628.0,-418.0
9.0,-166.0,-147.0,-94.0,761.0,-142.0,-43.0,-629.0,-415.0
11.0,-167.0,-147.0,-174.0,755.0,-126.0,-47.0,-635.0,-421.0
10.0,-170.0,-143.0,-260.0,754.0,-109.0,-52.0,-646.0,-429.0
8.0,-174.0,-148.0,-356.0,762.0,-90.0,-51.0,-657.0,-437.0
8.0,-177.0,-150.0,-454.0,777.0,-73.0,-61.0,-673.0,-448.0
5.0,-180.0,-152.0,-548.0,801.0,-58.0,-68.0,-697.0,-454.0
0.0,-192.0,-153.0,-634.0,824.0,-46.0,-90.0,-720.0,-459.0
8.0,-194.0,-164.0,-707.0,845.0,-34.0,-108.0,-750.0,-464.0
-10.0,-205.0,-166.0,-772.0,866.0,-21.0,-126.0,-778.0,-491.0
-11.0,-215.0,-165.0,-822.0,889.0,-4.0,-134.0,-810.0,-495.0
-14.0,-221.0,-172.0,-864.0,924.0,17.0,-150.0,-839.0,-532.0
-15.0,-229.0,-176.0,-888.0,973.0,37.0,-152.0,-863.0,-546.0
-13.0,-233.0,-181.0,-888.0,1031.0,57.0,-144.0,-881.0,-555.0
-8.0,-237.0,-177.0,-865.0,1092.0,69.0,-131.0,-883.0,-566.0
-3.0,-237.0,-182.0,-818.0,1148.0,78.0,-118.0,-879.0,-565.0
0.0,-235.0,-179.0,-753.0,1198.0,87.0,-102.0,-870.0,-555.0
2.0,-229.0,-176.0,-676.0,1242.0,102.0,-95.0,-850.0,-545.0
3.0,-220.0,-171.0,-587.0,1279.0,115.0,-82.0,-814.0,-538.0
5.0,-209.0,-175.0,-484.0,1315.0,128.0,-70.0,-785.0,-534.0
2.0,-195.0,-171.0,-379.0,1356.0,142.0,-84.0,-734.0,-521.0
-3.0,-187.0,-171.0,-288.0,1396.0,158.0,-102.0,-688.0,-520.0
-9.0,-169.0,-168.0,-217.0,1433.0,180.0,-124.0,-644.0,-512.0
-18.0,-157.0,-171.0,-163.0,1460.0,210.0,-150.0,-590.0,-507.0
-30.0,-143.0,-166.0,-126.0,1472.0,249.0,-183.0,-530.0,-514.0
-38.0,-124.0,-168.0,-118.0,1461.0,295.0,-217.0,-481.0,-516.0
-44.0,-113.0,-173.0,-136.0,1433.0,340.0,-247.0,-422.0,-522.0
-55.0,-98.0,-171.0,-182.0,1396.0,384.0,-286.0,-374.0,-526.0
-63.0,-89.0,-172.0,-250.0,1352.0,427.0,-313.0,-336.0,-535.0
-70.0,-76.0,-174.0,-338.0,1297.0,471.0,-344.0,-297.0,-529.0
-74.0,-72.0,-172.0,-446.0,1231.0,510.0,-366.0,-269.0,-521.0
-81.0,-66.0,-170.0,-565.0,1159.0,546.0,-385.0,-241.0,-521.0
-79.0,-62.0,-173.0,-689.0,1085.0,578.0,-396.0,-230.0,-517.0
-80.0,-64.0,-168.0,-815.0,1015.0,608.0,-386.0,-234.0,-500.0
-75.0,-66.0,-165.0,-937.0,956.0,638.0,-375.0,-242.0,-496.0
-70.0,-72.0,-164.0,-1053.0,910.0,664.0,-356.0,-262.0,-483.0
-66.0,-77.0,-158.0,-1163.0,885.0,685.0,-346.0,-300.0,-465.0
-62.0,-89.0,-154.0,-1257.0,885.0,704.0,-339.0,-324.0,-454.0
-64.0,-100.0,-149.0,-1323.0,906.0,720.0,-339.0,-359.0,-436.0
-64.0,-111.0,-148.0,-1354.0,947.0,736.0,-338.0,-412.0,-439.0
-63.0,-126.0,-152.0,-1351.0,999.0,747.0,-338.0,-456.0,-437.0
-60.0,-132.0,-152.0,-1317.0,1050.0,757.0,-314.0,-480.0,-457.0
-49.0,-144.0,-158.0,-1245.0,1093.0,763.0,-276.0,-517.0,-461.0
-38.0,-152.0,-155.0,-1137.0,1118.0,752.0,-242.0,-532.0,-468.0
-30.0,-155.0,-159.0,-981.0,1124.0,740.0,-200.0,-531.0,-483.0
-16.0,-147.0,-169.0,-790.0,1112.0,728.0,-148.0,-513.0,-497.0
-2.0,-133.0,-173.0,-591.0,1078.0,714.0,-89.0,-476.0,-534.0
9.0,-120.0,-182.0,-417.0,1032.0,715.0,-44.0,-423.0,-555.0
23.0,-97.0,-182.0,-302.0,982.0,732.0,11.0,-354.0,-563.0
38.0,-79.0,-177.0,-239.0,935.0,763.0,66.0,-281.0,-559.0
57.0,-65.0,-176.0,-224.0,898.0,796.0,129.0,-226.0,-545.0
68.0,-55.0,-172.0,-233.0,888.0,828.0,172.0,-181.0,-536.0
82.0,-48.0,-166.0,-254.0,916.0,858.0,221.0,-150.0,-504.0
93.0,-40.0,-171.0,-287.0,984.0,886.0,256.0,-125.0,-493.0
99.0,-33.0,-163.0,-327.0,1088.0,922.0,276.0,-106.0,-491.0
99.0,-27.0,-168.0,-382.0,1210.0,957.0,287.0,-86.0,-498.0
99.0,-28.0,-166.0,-447.0,1340.0,980.0,285.0,-80.0,-498.0
96.0,-28.0,-163.0,-515.0,1461.0,985.0,272.0,-78.0,-493.0
88.0,-35.0,-155.0,-565.0,1569.0,981.0,241.0,-113.0,-443.0
71.0,-48.0,-149.0,-589.0,1688.0,973.0,190.0,-159.0,-451.0
66.0,-64.0,-149.0,-595.0,1825.0,967.0,161.0,-216.0,-428.0
56.0,-76.0,-144.0,-587.0,1970.0,960.0,126.0,-257.0,-413.0
55.0,-88.0,-137.0,-547.0,2109.0,953.0,108.0,-299.0,-382.0
50.0,-94.0,-129.0,-469.0,2240.0,951.0,102.0,-316.0,-369.0
50.0,-93.0,-134.0,-357.0,2362.0,950.0,95.0,-324.0,-388.0
51.0,-91.0,-143.0,-241.0,2474.0,955.0,107.0,-324.0,-403.0
55.0,-87.0,-143.0,-138.0,2554.0,952.0,123.0,-297.0,-414.0
54.0,-81.0,-144.0,-45.0,2597.0,950.0,143.0,-281.0,-391.0
61.0,-79.0,-136.0,46.0,2613.0,957.0,153.0,-270.0,-379.0
65.0,-77.0,-128.0,143.0,2624.0,969.0,179.0,-252.0,-340.0
80.0,-74.0,-124.0,251.0,2656.0,981.0,215.0,-238.0,-312.0
91.0,-69.0,-115.0,368.0,2717.0,984.0,258.0,-225.0,-290.0
100.0,-66.0,-112.0,480.0,2801.0,976.0,294.0,-216.0,-275.0
101.0,-61.0,-109.0,570.0,2886.0,957.0,306.0,-183.0,-266.0
106.0,-54.0,-110.0,636.0,2942.0,935.0,312.0,-162.0,-267.0
105.0,-46.0,-109.0,669.0,2977.0,908.0,325.0,-143.0,-286.0
110.0,-41.0,-118.0,670.0,3007.0,872.0,332.0,-131.0,-296.0
110.0,-40.0,-109.0,639.0,3049.0,823.0,323.0,-134.0,-283.0
108.0,-52.0,-111.0,596.0,3098.0,761.0,325.0,-167.0,-267.0
109.0,-69.0,-107.0,551.0,3150.0,685.0,325.0,-228.0,-251.0
110.0,-89.0,-90.0,514.0,3201.0,593.0,334.0,-302.0,-197.0
112.0,-117.0,-73.0,514.0,3230.0,491.0,349.0,-408.0,-135.0
122.0,-149.0,-68.0,573.0,3249.0,385.0,369.0,-514.0,-109.0
143.0,-180.0,-66.0,682.0,3294.0,278.0,448.0,-629.0,-95.0
146.0,-201.0,-62.0,846.0,3370.0,164.0,456.0,-714.0,-80.0
165.0,-225.0,-76.0,1065.0,3490.0,76.0,497.0,-799.0,-133.0
190.0,-243.0,-78.0,1294.0,3650.0,2.0,601.0,-874.0,-136.0
219.0,-267.0,-79.0,1552.0,3840.0,-59.0,701.0,-952.0,-148.0
257.0,-294.0,-72.0,1847.0,4044.0,-98.0,850.0,-1049.0,-117.0
328.0,-318.0,-71.0,2160.0,4261.0,-134.0,1091.0,-1144.0,-111.0
411.0,-337.0,-90.0,2481.0,4536.0,-201.0,1392.0,-1220.0,-170.0
524.0,-357.0,-112.0,2780.0,4900.0,-298.0,1800.0,-1322.0,-245.0
622.0,-357.0,-120.0,3046.0,5290.0,-473.0,2205.0,-1327.0,-279.0
685.0,-325.0,-157.0,3290.0,5593.0,-711.0,2522.0,-1239.0,-397.0
685.0,-284.0,-210.0,3439.0,5698.0,-963.0,2596.0,-1100.0,-618.0
669.0,-274.0,-220.0,3374.0,5632.0,-1170.0,2512.0,-1049.0,-727.0
682.0,-307.0,-188.0,3128.0,5604.0,-1337.0,2523.0,-1154.0,-614.0
660.0,-361.0,-134.0,2802.0,5717.0,-1528.0,2471.0,-1364.0,-426.0
623.0,-432.0,-47.0,2486.0,5883.0,-1697.0,2359.0,-1595.0,-109.0
557.0,-505.0,48.0,2319.0,5922.0,-1827.0,2184.0,-1857.0,338.0
473.0,-571.0,109.0,2349.0,5766.0,-1959.0,1890.0,-2168.0,581.0
415.0,-626.0,129.0,2486.0,5471.0,-2013.0,1569.0,-2399.0,671.0
363.0,-662.0,127.0,2616.0,5130.0,-1870.0,1373.0,-2561.0,649.0
395.0,-712.0,103.0,2667.0,4800.0,-1503.0,1512.0,-2786.0,572.0
511.0,-779.0,60.0,2618.0,4481.0,-1204.0,1936.0,-3077.0,394.0
597.0,-828.0,39.0,2334.0,4206.0,-1171.0,2253.0,-3285.0,287.0
694.0,-879.0,33.0,1862.0,3973.0,-1245.0,2649.0,-3461.0,279.0
757.0,-905.0,28.0,1414.0,3820.0,-1297.0,2858.0,-3511.0,236.0
745.0,-903.0,2.0,1222.0,3714.0,-1175.0,2845.0,-3470.0,124.0
674.0,-899.0,-43.0,1361.0,3508.0,-872.0,2609.0,-3424.0,-28.0
577.0,-882.0,-89.0,1693.0,3108.0,-558.0,2255.0,-3375.0,-234.0
464.0,-821.0,-123.0,1971.0,2676.0,-390.0,1797.0,-3151.0,-364.0
358.0,-739.0,-127.0,2150.0,2147.0,-295.0,1355.0,-2836.0,-384.0
266.0,-652.0,-103.0,2315.0,1734.0,-222.0,987.0,-2487.0,-302.0
196.0,-564.0,-78.0,2558.0,1447.0,-181.0,709.0,-2125.0,-188.0
141.0,-476.0,-46.0,2893.0,1264.0,-201.0,472.0,-1781.0,-41.0
106.0,-384.0,-21.0,3313.0,1145.0,-275.0,332.0,-1416.0,75.0
78.0,-284.0,9.0,3812.0,1103.0,-431.0,208.0,-1025.0,185.0
20.0,-175.0,60.0,4365.0,1153.0,-663.0,-5.0,-600.0,409.0
15.0,-63.0,45.0,4924.0,1225.0,-953.0,-56.0,-172.0,382.0
32.0,43.0,6.0,5355.0,1420.0,-1201.0,-19.0,172.0,253.0
64.0,129.0,-7.0,5513.0,1761.0,-1342.0,102.0,462.0,180.0
102.0,187.0,-2.0,5361.0,2123.0,-1484.0,267.0,660.0,193.0
173.0,223.0,-8.0,4964.0,2401.0,-1640.0,535.0,807.0,171.0
232.0,237.0,3.0,4457.0,2637.0,-1782.0,765.0,876.0,204.0
277.0,224.0,0.0,3949.0,2824.0,-1852.0,957.0,836.0,200.0
315.0,180.0,-17.0,3460.0,2940.0,-1859.0,1143.0,683.0,119.0
307.0,125.0,-31.0,3002.0,2960.0,-1855.0,1129.0,473.0,68.0
305.0,57.0,-43.0,2561.0,2855.0,-1831.0,1100.0,195.0,21.0
342.0,-28.0,-20.0,2118.0,2767.0,-1730.0,1228.0,-109.0,79.0
383.0,-122.0,23.0,1776.0,2768.0,-1632.0,1364.0,-396.0,251.0
254.0,-180.0,56.0,1680.0,2910.0,-1578.0,989.0,-567.0,363.0
45.0,-218.0,-87.0,1957.0,3304.0,-1539.0,274.0,-767.0,-106.0
-101.0,-219.0,-66.0,2130.0,3623.0,-1519.0,-548.0,-784.0,-151.0
32.0,-217.0,-55.0,2296.0,3972.0,-1506.0,102.0,-662.0,28.0
45.0,-169.0,68.0,2661.0,3608.0,-2002.0,272.0,-435.0,387.0
265.0,-162.0,14.0,3581.0,2533.0,-2369.0,1268.0,-580.0,236.0
570.0,-196.0,118.0,4195.0,1754.0,-2351.0,2136.0,-755.0,660.0
574.0,-174.0,185.0,4466.0,1677.0,-2265.0,1988.0,-640.0,946.0
516.0,-129.0,179.0,4601.0,2311.0,-2108.0,1723.0,-483.0,918.0
390.0,-52.0,132.0,4513.0,3253.0,-1833.0,1287.0,-199.0,724.0
279.0,27.0,88.0,4203.0,4061.0,-1457.0,920.0,40.0,529.0
213.0,83.0,46.0,3674.0,4547.0,-956.0,731.0,239.0,369.0
170.0,136.0,50.0,2972.0,4699.0,-414.0,587.0,475.0,409.0
138.0,168.0,92.0,2309.0,4601.0,113.0,454.0,612.0,567.0
62.0,169.0,152.0,1831.0,4384.0,545.0,192.0,632.0,814.0
-66.0,163.0,234.0,1523.0,4044.0,839.0,-301.0,609.0,1122.0
-154.0,132.0,261.0,1369.0,3512.0,1084.0,-584.0,465.0,1221.0
-177.0,94.0,291.0,1226.0,2864.0,1291.0,-722.0,341.0,1341.0
-207.0,57.0,295.0,1135.0,2321.0,1464.0,-851.0,188.0,1347.0
-187.0,21.0,293.0,1112.0,2022.0,1611.0,-790.0,98.0,1344.0
-185.0,21.0,289.0,1168.0,1883.0,1616.0,-785.0,115.0,1356.0
-143.0,43.0,271.0,1294.0,1755.0,1537.0,-654.0,142.0,1284.0
-95.0,77.0,262.0,1335.0,1570.0,1487.0,-421.0,231.0,1223.0
-87.0,148.0,287.0,1244.0,1305.0,1495.0,-402.0,530.0,1302.0
-80.0,211.0,284.0,1227.0,1061.0,1490.0,-382.0,793.0,1325.0
-53.0,251.0,284.0,1299.0,890.0,1402.0,-292.0,954.0,1336.0
-23.0,282.0,291.0,1321.0,747.0,1237.0,-162.0,1059.0,1325.0
-2.0,315.0,298.0,1204.0,594.0,1045.0,-97.0,1164.0,1357.0
32.0,323.0,303.0,982.0,452.0,888.0,46.0,1210.0,1393.0
45.0,317.0,315.0,690.0,353.0,745.0,109.0,1199.0,1439.0
61.0,300.0,311.0,364.0,311.0,633.0,148.0,1123.0,1441.0
57.0,273.0,307.0,12.0,325.0,537.0,127.0,1045.0,1412.0
44.0,246.0,297.0,-327.0,384.0,461.0,101.0,938.0,1387.0
31.0,205.0,287.0,-614.0,451.0,420.0,60.0,805.0,1356.0
25.0,162.0,275.0,-833.0,479.0,407.0,33.0,659.0,1309.0
17.0,126.0,259.0,-988.0,460.0,406.0,14.0,509.0,1243.0
13.0,85.0,244.0,-1106.0,405.0,405.0,-1.0,346.0,1173.0
19.0,55.0,228.0,-1211.0,320.0,407.0,12.0,221.0,1077.0
14.0,26.0,213.0,-1296.0,218.0,421.0,6.0,97.0,1025.0
16.0,3.0,204.0,-1374.0,113.0,472.0,8.0,14.0,988.0
14.0,-15.0,194.0,-1427.0,-3.0,539.0,15.0,-43.0,950.0
15.0,-23.0,184.0,-1424.0,-123.0,594.0,9.0,-78.0,898.0
8.0,-28.0,170.0,-1388.0,-244.0,641.0,-20.0,-87.0,854.0
1.0,-28.0,161.0,-1316.0,-360.0,689.0,-54.0,-90.0,815.0
-6.0,-23.0,148.0,-1226.0,-467.0,736.0,-99.0,-73.0,785.0
-9.0,-15.0,155.0,-1132.0,-550.0,766.0,-108.0,-26.0,782.0
-13.0,-2.0,152.0,-1024.0,-603.0,768.0,-136.0,5.0,783.0
-24.0,4.0,159.0,-912.0,-617.0,747.0,-164.0,36.0,799.0
-35.0,6.0,167.0,-819.0,-604.0,707.0,-206.0,25.0,834.0
-40.0,19.0,175.0,-799.0,-612.0,625.0,-221.0,66.0,867.0
-38.0,25.0,176.0,-826.0,-628.0,555.0,-230.0,98.0,881.0
-27.0,23.0,197.0,-875.0,-624.0,521.0,-211.0,116.0,881.0
-29.0,37.0,172.0,-940.0,-600.0,480.0,-183.0,127.0,856.0
-15.0,34.0,164.0,-1009.0,-559.0,420.0,-147.0,133.0,817.0
-3.0,38.0,155.0,-1071.0,-513.0,352.0,-114.0,148.0,811.0
2.0,36.0,154.0,-1118.0,-475.0,288.0,-70.0,143.0,797.0
11.0,28.0,151.0,-1153.0,-462.0,232.0,-36.0,120.0,797.0
7.0,27.0,152.0,-1169.0,-474.0,186.0,-40.0,111.0,785.0
10.0,22.0,146.0,-1161.0,-491.0,160.0,-31.0,93.0,749.0
9.0,18.0,134.0,-1138.0,-496.0,153.0,-30.0,85.0,719.0
17.0,15.0,139.0,-1109.0,-482.0,155.0,-14.0,85.0,713.0
24.0,16.0,136.0,-1073.0,-457.0,164.0,4.0,76.0,728.0
24.0,16.0,152.0,-1025.0,-432.0,184.0,27.0,85.0,764.0
29.0,15.0,159.0,-976.0,-411.0,214.0,23.0,81.0,792.0
25.0,12.0,171.0,-919.0,-396.0,236.0,31.0,72.0,841.0
21.0,12.0,172.0,-848.0,-396.0,244.0,8.0,59.0,872.0
29.0,7.0,181.0,-778.0,-384.0,255.0,30.0,46.0,886.0
40.0,0.0,184.0,-716.0,-339.0,252.0,60.0,23.0,896.0
23.0,1.0,200.0,-656.0,-265.0,243.0,28.0,7.0,965.0
1.0,-7.0,217.0,-586.0,-207.0,231.0,-57.0,-9.0,1035.0
-16.0,-11.0,234.0,-513.0,-183.0,231.0,-127.0,-35.0,1081.0
-16.0,-20.0,234.0,-454.0,-193.0,240.0,-146.0,-58.0,1127.0
0.0,-31.0,241.0,-412.0,-220.0,252.0,-93.0,-108.0,1150.0
5.0,-36.0,245.0,-378.0,-256.0,244.0,-40.0,-139.0,1161.0
9.0,-44.0,252.0,-359.0,-297.0,222.0,-24.0,-161.0,1173.0
21.0,-54.0,250.0,-346.0,-347.0,200.0,15.0,-193.0,1168.0
23.0,-58.0,252.0,-344.0,-401.0,180.0,32.0,-221.0,1176.0
19.0,-63.0,248.0,-346.0,-462.0,168.0,11.0,-243.0,1175.0
20.0,-73.0,251.0,-350.0,-541.0,166.0,10.0,-294.0,1167.0
23.0,-84.0,246.0,-368.0,-643.0,147.0,41.0,-336.0,1161.0
35.0,-93.0,245.0,-399.0,-760.0,113.0,72.0,-361.0,1153.0
44.0,-101.0,241.0,-424.0,-871.0,80.0,111.0,-388.0,1138.0
57.0,-111.0,236.0,-443.0,-959.0,58.0,161.0,-428.0,1113.0
71.0,-121.0,232.0,-456.0,-1026.0,37.0,225.0,-461.0,1092.0
86.0,-128.0,229.0,-464.0,-1082.0,9.0,280.0,-489.0,1068.0
99.0,-134.0,219.0,-458.0,-1120.0,-15.0,316.0,-518.0,1039.0
120.0,-139.0,214.0,-443.0,-1134.0,-32.0,385.0,-534.0,1027.0
133.0,-148.0,208.0,-411.0,-1138.0,-51.0,420.0,-559.0,1014.0
137.0,-149.0,209.0,-366.0,-1132.0,-59.0,447.0,-557.0,996.0
152.0,-152.0,199.0,-313.0,-1123.0,-63.0,484.0,-569.0,977.0
152.0,-150.0,202.0,-255.0,-1114.0,-62.0,501.0,-567.0,956.0
154.0,-147.0,192.0,-198.0,-1108.0,-52.0,499.0,-552.0,925.0
