acc1_x,acc1_y,acc1_z,gyro_x,gyro_y,gyro_z,acc2_x,acc2_y,acc2_z
-15.0,-251.0,43.0,-7.0,65.0,0.0,-22.0,-974.0,133.0
-17.0,-252.0,45.0,-6.0,66.0,0.0,-29.0,-969.0,135.0
-13.0,-249.0,46.0,-5.0,67.0,0.0,-27.0,-968.0,139.0
-18.0,-246.0,43.0,-6.0,65.0,-1.0,-28.0,-966.0,130.0
-14.0,-251.0,43.0,-6.0,66.0,-2.0,-24.0,-965.0,139.0
-18.0,-254.0,51.0,-6.0,66.0,-2.0,-27.0,-965.0,136.0
-12.0,-249.0,46.0,-8.0,68.0,-1.0,-25.0,-968.0,136.0
-14.0,-250.0,46.0,-9.0,70.0,-1.0,-20.0,-972.0,134.0
-14.0,-250.0,44.0,-8.0,69.0,0.0,-26.0,-974.0,136.0
-16.0,-253.0,45.0,-8.0,70.0,1.0,-20.0,-971.0,143.0
-14.0,-249.0,45.0,-11.0,70.0,-1.0,-19.0,-967.0,143.0
-13.0,-249.0,47.0,-10.0,70.0,0.0,-15.0,-971.0,143.0
-11.0,-250.0,42.0,-8.0,74.0,0.0,-16.0,-963.0,143.0
-11.0,-249.0,47.0,-9.0,75.0,-3.0,-17.0,-963.0,144.0
-10.0,-248.0,44.0,-14.0,77.0,-3.0,-18.0,-962.0,141.0
-13.0,-247.0,48.0,-18.0,80.0,-3.0,-24.0,-968.0,136.0
-14.0,-249.0,44.0,-21.0,79.0,-4.0,-25.0,-969.0,140.0
-15.0,-249.0,44.0,-21.0,76.0,-3.0,-30.0,-965.0,138.0
-14.0,-252.0,42.0,-19.0,75.0,-5.0,-16.0,-968.0,141.0
-12.0,-251.0,44.0,-17.0,75.0,-5.0,-19.0,-966.0,141.0
-10.0,-251.0,47.0,-17.0,74.0,-7.0,-17.0,-967.0,145.0
-14.0,-252.0,45.0,-15.0,74.0,-9.0,-14.0,-972.0,144.0
-12.0,-252.0,45.0,-14.0,75.0,-9.0,-19.0,-962.0,143.0
-12.0,-249.0,46.0,-16.0,75.0,-10.0,-21.0,-966.0,142.0
-15.0,-248.0,46.0,-19.0,76.0,-12.0,-23.0,-960.0,145.0
-12.0,-249.0,45.0,-24.0,74.0,-15.0,-32.0,-958.0,147.0
-17.0,-248.0,47.0,-30.0,74.0,-16.0,-30.0,-960.0,143.0
-15.0,-247.0,46.0,-35.0,77.0,-16.0,-32.0,-967.0,140.0
-17.0,-251.0,50.0,-38.0,80.0,-21.0,-29.0,-971.0,141.0
-13.0,-251.0,43.0,-45.0,80.0,-24.0,-20.0,-975.0,134.0
-11.0,-254.0,46.0,-50.0,86.0,-24.0,-11.0,-986.0,136.0
-11.0,-255.0,46.0,-55.0,93.0,-26.0,-16.0,-986.0,137.0
-10.0,-250.0,41.0,-55.0,101.0,-28.0,-17.0,-983.0,135.0
-12.0,-255.0,45.0,-54.0,106.0,-29.0,-12.0,-982.0,132.0
-15.0,-250.0,48.0,-51.0,110.0,-33.0,-23.0,-968.0,135.0
-22.0,-247.0,46.0,-45.0,119.0,-36.0,-41.0,-956.0,143.0
-19.0,-247.0,46.0,-39.0,128.0,-41.0,-50.0,-952.0,144.0
-21.0,-244.0,48.0,-42.0,132.0,-48.0,-46.0,-948.0,146.0
-16.0,-246.0,45.0,-44.0,139.0,-53.0,-47.0,-945.0,143.0
-16.0,-246.0,44.0,-46.0,144.0,-55.0,-33.0,-948.0,143.0
-14.0,-249.0,44.0,-48.0,147.0,-58.0,-20.0,-960.0,144.0
-13.0,-249.0,46.0,-52.0,149.0,-61.0,-22.0,-959.0,150.0
-17.0,-248.0,48.0,-46.0,156.0,-62.0,-30.0,-961.0,147.0
-16.0,-248.0,46.0,-44.0,157.0,-65.0,-32.0,-955.0,150.0
-14.0,-247.0,45.0,-50.0,158.0,-68.0,-27.0,-957.0,144.0
-10.0,-247.0,45.0,-57.0,160.0,-70.0,-29.0,-955.0,141.0
-16.0,-248.0,46.0,-61.0,168.0,-73.0,-29.0,-960.0,135.0
-13.0,-250.0,46.0,-62.0,175.0,-75.0,-35.0,-964.0,136.0
-16.0,-249.0,44.0,-58.0,180.0,-77.0,-38.0,-960.0,143.0
-17.0,-249.0,43.0,-51.0,185.0,-80.0,-35.0,-973.0,147.0
-18.0,-249.0,47.0,-47.0,188.0,-84.0,-34.0,-969.0,150.0
-17.0,-251.0,46.0,-47.0,194.0,-84.0,-34.0,-971.0,149.0
-17.0,-249.0,44.0,-49.0,200.0,-84.0,-34.0,-973.0,141.0
-16.0,-255.0,44.0,-56.0,200.0,-82.0,-30.0,-986.0,138.0
-13.0,-253.0,48.0,-59.0,199.0,-80.0,-28.0,-990.0,136.0
-14.0,-254.0,50.0,-56.0,207.0,-78.0,-33.0,-980.0,142.0
-12.0,-256.0,46.0,-48.0,217.0,-76.0,-33.0,-983.0,143.0
-15.0,-252.0,47.0,-40.0,224.0,-77.0,-27.0,-975.0,144.0
-16.0,-252.0,47.0,-35.0,230.0,-76.0,-34.0,-970.0,139.0
-18.0,-249.0,43.0,-32.0,237.0,-76.0,-40.0,-964.0,136.0
-16.0,-246.0,43.0,-32.0,241.0,-78.0,-32.0,-957.0,126.0
-14.0,-246.0,43.0,-37.0,245.0,-77.0,-30.0,-955.0,123.0
-19.0,-243.0,43.0,-41.0,246.0,-77.0,-31.0,-948.0,124.0
-17.0,-249.0,40.0,-47.0,249.0,-77.0,-35.0,-958.0,129.0
-17.0,-249.0,39.0,-56.0,250.0,-75.0,-45.0,-965.0,122.0
-21.0,-249.0,40.0,-57.0,248.0,-75.0,-47.0,-972.0,118.0
-25.0,-249.0,40.0,-57.0,244.0,-73.0,-53.0,-969.0,119.0
-23.0,-249.0,44.0,-49.0,241.0,-76.0,-66.0,-965.0,126.0
-24.0,-250.0,43.0,-46.0,237.0,-74.0,-62.0,-968.0,122.0
-24.0,-250.0,39.0,-43.0,238.0,-72.0,-68.0,-966.0,123.0
-26.0,-249.0,40.0,-41.0,236.0,-71.0,-75.0,-962.0,126.0
-27.0,-252.0,39.0,-40.0,236.0,-70.0,-76.0,-966.0,122.0
-26.0,-251.0,39.0,-40.0,232.0,-70.0,-85.0,-967.0,122.0
-25.0,-249.0,38.0,-40.0,228.0,-67.0,-71.0,-959.0,121.0
-27.0,-250.0,44.0,-42.0,229.0,-65.0,-82.0,-970.0,129.0
-28.0,-252.0,42.0,-38.0,224.0,-62.0,-80.0,-969.0,139.0
-25.0,-252.0,45.0,-33.0,218.0,-58.0,-76.0,-970.0,133.0
-27.0,-249.0,43.0,-31.0,215.0,-52.0,-81.0,-968.0,138.0
-32.0,-249.0,46.0,-29.0,209.0,-50.0,-76.0,-964.0,141.0
-26.0,-249.0,44.0,-30.0,201.0,-47.0,-72.0,-966.0,136.0
-27.0,-249.0,45.0,-34.0,197.0,-45.0,-73.0,-961.0,140.0
-27.0,-248.0,55.0,-35.0,194.0,-43.0,-61.0,-963.0,137.0
-22.0,-251.0,45.0,-40.0,191.0,-41.0,-62.0,-961.0,143.0
-26.0,-246.0,45.0,-43.0,190.0,-38.0,-62.0,-958.0,148.0
-22.0,-248.0,46.0,-43.0,186.0,-37.0,-61.0,-958.0,141.0
-25.0,-247.0,41.0,-45.0,181.0,-40.0,-65.0,-957.0,140.0
-26.0,-246.0,44.0,-55.0,173.0,-40.0,-70.0,-953.0,141.0
-31.0,-247.0,44.0,-62.0,164.0,-39.0,-79.0,-957.0,146.0
-29.0,-248.0,45.0,-68.0,152.0,-38.0,-88.0,-958.0,149.0
-30.0,-248.0,43.0,-74.0,140.0,-36.0,-78.0,-960.0,139.0
-31.0,-248.0,45.0,-77.0,131.0,-33.0,-85.0,-953.0,140.0
-28.0,-247.0,43.0,-78.0,124.0,-28.0,-80.0,-950.0,131.0
-32.0,-248.0,42.0,-82.0,120.0,-22.0,-92.0,-952.0,124.0
-36.0,-247.0,39.0,-90.0,115.0,-15.0,-96.0,-954.0,120.0
-33.0,-248.0,43.0,-100.0,108.0,-7.0,-93.0,-962.0,119.0
-30.0,-249.0,42.0,-106.0,98.0,-2.0,-86.0,-960.0,118.0
-32.0,-248.0,41.0,-109.0,92.0,3.0,-89.0,-965.0,123.0
-29.0,-248.0,43.0,-105.0,83.0,8.0,-83.0,-959.0,124.0
-27.0,-249.0,42.0,-95.0,76.0,14.0,-77.0,-958.0,125.0
-29.0,-248.0,44.0,-90.0,74.0,19.0,-86.0,-965.0,134.0
-32.0,-251.0,44.0,-86.0,72.0,23.0,-91.0,-964.0,138.0
-31.0,-248.0,42.0,-83.0,51.0,27.0,-85.0,-964.0,135.0
-29.0,-248.0,41.0,-82.0,34.0,28.0,-86.0,-968.0,128.0
-32.0,-249.0,37.0,-85.0,32.0,30.0,-78.0,-968.0,120.0
-28.0,-251.0,40.0,-87.0,35.0,32.0,-86.0,-975.0,119.0
-28.0,-253.0,39.0,-90.0,30.0,32.0,-78.0,-979.0,110.0
-24.0,-258.0,37.0,-91.0,22.0,31.0,-71.0,-992.0,106.0
-21.0,-254.0,34.0,-91.0,17.0,31.0,-53.0,-1000.0,105.0
-25.0,-255.0,37.0,-92.0,20.0,31.0,-53.0,-1001.0,106.0
-22.0,-258.0,39.0,-92.0,20.0,26.0,-56.0,-992.0,114.0
-21.0,-254.0,36.0,-96.0,14.0,22.0,-55.0,-994.0,114.0
-18.0,-253.0,42.0,-96.0,12.0,19.0,-36.0,-988.0,119.0
-17.0,-251.0,39.0,-91.0,14.0,14.0,-33.0,-971.0,123.0
-21.0,-249.0,40.0,-86.0,17.0,10.0,-47.0,-966.0,115.0
-26.0,-248.0,39.0,-79.0,19.0,10.0,-61.0,-972.0,117.0
-18.0,-248.0,34.0,-69.0,14.0,8.0,-45.0,-966.0,109.0
-17.0,-249.0,39.0,-52.0,11.0,7.0,-30.0,-962.0,104.0
-10.0,-247.0,35.0,-37.0,12.0,9.0,-18.0,-944.0,98.0
-7.0,-244.0,35.0,-40.0,17.0,9.0,-1.0,-944.0,94.0
-10.0,-245.0,29.0,-57.0,22.0,6.0,-8.0,-940.0,74.0
-11.0,-243.0,27.0,-82.0,33.0,6.0,-11.0,-950.0,69.0
-6.0,-249.0,24.0,-110.0,46.0,2.0,0.0,-960.0,59.0
-2.0,-252.0,25.0,-135.0,64.0,-5.0,22.0,-976.0,54.0
5.0,-254.0,22.0,-158.0,87.0,-17.0,44.0,-985.0,44.0
7.0,-259.0,16.0,-174.0,117.0,-30.0,60.0,-1007.0,39.0
13.0,-262.0,20.0,-193.0,151.0,-46.0,86.0,-1020.0,32.0
18.0,-262.0,17.0,-210.0,182.0,-64.0,104.0,-1027.0,38.0
21.0,-269.0,24.0,-221.0,210.0,-88.0,116.0,-1040.0,58.0
18.0,-273.0,28.0,-224.0,241.0,-113.0,116.0,-1055.0,74.0
20.0,-268.0,33.0,-226.0,263.0,-142.0,108.0,-1057.0,96.0
22.0,-272.0,37.0,-227.0,278.0,-171.0,111.0,-1046.0,106.0
23.0,-266.0,37.0,-231.0,293.0,-197.0,117.0,-1034.0,112.0
17.0,-266.0,40.0,-232.0,319.0,-223.0,101.0,-1027.0,115.0
18.0,-259.0,41.0,-238.0,341.0,-244.0,93.0,-1017.0,112.0
11.0,-258.0,41.0,-248.0,356.0,-263.0,90.0,-1000.0,125.0
13.0,-252.0,39.0,-254.0,366.0,-274.0,91.0,-978.0,126.0
12.0,-242.0,35.0,-252.0,375.0,-282.0,87.0,-934.0,100.0
16.0,-240.0,43.0,-264.0,370.0,-281.0,86.0,-911.0,112.0
20.0,-236.0,40.0,-267.0,376.0,-268.0,97.0,-903.0,129.0
14.0,-233.0,47.0,-254.0,397.0,-247.0,91.0,-890.0,153.0
11.0,-242.0,55.0,-240.0,406.0,-222.0,79.0,-920.0,191.0
7.0,-243.0,65.0,-206.0,398.0,-205.0,59.0,-928.0,200.0
2.0,-243.0,62.0,-191.0,372.0,-185.0,48.0,-936.0,206.0
-1.0,-247.0,58.0,-199.0,342.0,-171.0,32.0,-960.0,198.0
-7.0,-255.0,64.0,-221.0,304.0,-159.0,15.0,-984.0,212.0
-7.0,-264.0,63.0,-231.0,264.0,-145.0,4.0,-1009.0,216.0
-11.0,-265.0,60.0,-214.0,231.0,-138.0,-7.0,-1022.0,209.0
-19.0,-265.0,62.0,-202.0,200.0,-134.0,-26.0,-1031.0,195.0
-16.0,-275.0,60.0,-197.0,174.0,-129.0,-26.0,-1050.0,204.0
-17.0,-274.0,53.0,-193.0,138.0,-149.0,-22.0,-1074.0,185.0
-15.0,-274.0,51.0,-192.0,100.0,-178.0,-32.0,-1079.0,172.0
-15.0,-277.0,56.0,-204.0,76.0,-200.0,-18.0,-1088.0,166.0
-14.0,-279.0,53.0,-196.0,50.0,-220.0,-10.0,-1088.0,172.0
-10.0,-277.0,50.0,-162.0,31.0,-239.0,3.0,-1078.0,162.0
-2.0,-276.0,43.0,-125.0,18.0,-261.0,10.0,-1064.0,142.0
0.0,-269.0,42.0,-96.0,3.0,-273.0,39.0,-1047.0,126.0
5.0,-261.0,36.0,-87.0,-3.0,-288.0,64.0,-1026.0,106.0
8.0,-261.0,38.0,-100.0,-17.0,-306.0,66.0,-1011.0,106.0
8.0,-257.0,38.0,-115.0,-31.0,-313.0,62.0,-1011.0,102.0
8.0,-254.0,37.0,-130.0,-40.0,-317.0,73.0,-998.0,100.0
11.0,-255.0,37.0,-142.0,-45.0,-315.0,85.0,-981.0,107.0
15.0,-253.0,35.0,-143.0,-47.0,-315.0,97.0,-971.0,94.0
14.0,-248.0,34.0,-143.0,-47.0,-320.0,90.0,-963.0,97.0
15.0,-247.0,32.0,-143.0,-48.0,-326.0,91.0,-950.0,96.0
17.0,-246.0,36.0,-141.0,-52.0,-324.0,106.0,-947.0,95.0
18.0,-246.0,39.0,-140.0,-59.0,-325.0,113.0,-943.0,105.0
23.0,-249.0,34.0,-137.0,-67.0,-326.0,121.0,-948.0,95.0
21.0,-243.0,25.0,-133.0,-77.0,-327.0,122.0,-939.0,70.0
22.0,-246.0,27.0,-152.0,-84.0,-331.0,124.0,-941.0,70.0
17.0,-245.0,25.0,-184.0,-92.0,-332.0,109.0,-955.0,65.0
16.0,-247.0,24.0,-220.0,-92.0,-333.0,100.0,-946.0,65.0
20.0,-248.0,28.0,-245.0,-93.0,-331.0,104.0,-954.0,73.0
19.0,-248.0,29.0,-252.0,-96.0,-327.0,114.0,-957.0,73.0
23.0,-251.0,27.0,-243.0,-93.0,-320.0,120.0,-967.0,70.0
23.0,-253.0,30.0,-229.0,-93.0,-308.0,122.0,-972.0,70.0
21.0,-256.0,29.0,-213.0,-99.0,-296.0,125.0,-981.0,60.0
21.0,-253.0,28.0,-203.0,-108.0,-282.0,130.0,-982.0,68.0
22.0,-258.0,25.0,-195.0,-118.0,-266.0,112.0,-1004.0,58.0
20.0,-262.0,31.0,-201.0,-126.0,-252.0,117.0,-1009.0,65.0
24.0,-263.0,33.0,-215.0,-134.0,-239.0,130.0,-1013.0,69.0
25.0,-266.0,29.0,-225.0,-138.0,-231.0,126.0,-1020.0,84.0
21.0,-267.0,34.0,-225.0,-138.0,-224.0,133.0,-1028.0,87.0
20.0,-266.0,37.0,-213.0,-133.0,-219.0,126.0,-1030.0,99.0
24.0,-263.0,31.0,-191.0,-131.0,-216.0,137.0,-1020.0,101.0
22.0,-264.0,30.0,-167.0,-129.0,-213.0,125.0,-1021.0,87.0
27.0,-265.0,30.0,-148.0,-128.0,-209.0,129.0,-1014.0,82.0
24.0,-263.0,30.0,-128.0,-125.0,-205.0,137.0,-1016.0,77.0
28.0,-258.0,26.0,-109.0,-116.0,-198.0,143.0,-1009.0,73.0
25.0,-255.0,30.0,-89.0,-104.0,-194.0,137.0,-995.0,70.0
15.0,-257.0,27.0,-75.0,-94.0,-189.0,132.0,-981.0,65.0
25.0,-255.0,28.0,-71.0,-90.0,-187.0,124.0,-973.0,61.0
27.0,-251.0,23.0,-66.0,-90.0,-184.0,135.0,-972.0,59.0
22.0,-251.0,23.0,-69.0,-89.0,-189.0,135.0,-969.0,64.0
27.0,-250.0,26.0,-70.0,-84.0,-187.0,136.0,-969.0,62.0
23.0,-251.0,26.0,-75.0,-79.0,-184.0,127.0,-967.0,62.0
24.0,-254.0,22.0,-85.0,-78.0,-176.0,132.0,-972.0,54.0
26.0,-252.0,23.0,-101.0,-75.0,-171.0,123.0,-971.0,58.0
23.0,-255.0,28.0,-122.0,-71.0,-161.0,118.0,-974.0,67.0
19.0,-253.0,25.0,-135.0,-75.0,-156.0,115.0,-980.0,81.0
19.0,-254.0,29.0,-137.0,-86.0,-147.0,121.0,-976.0,88.0
23.0,-253.0,34.0,-137.0,-95.0,-142.0,122.0,-971.0,94.0
18.0,-251.0,36.0,-133.0,-103.0,-135.0,118.0,-964.0,98.0
23.0,-249.0,35.0,-127.0,-108.0,-125.0,127.0,-961.0,99.0
22.0,-248.0,30.0,-119.0,-112.0,-120.0,120.0,-945.0,88.0
22.0,-245.0,30.0,-119.0,-116.0,-116.0,122.0,-943.0,73.0
19.0,-247.0,29.0,-132.0,-126.0,-110.0,113.0,-943.0,74.0
19.0,-245.0,31.0,-149.0,-137.0,-104.0,109.0,-948.0,69.0
16.0,-248.0,24.0,-165.0,-149.0,-96.0,101.0,-956.0,62.0
15.0,-247.0,20.0,-177.0,-155.0,-83.0,104.0,-957.0,65.0
14.0,-251.0,25.0,-192.0,-162.0,-68.0,97.0,-963.0,64.0
16.0,-252.0,26.0,-200.0,-171.0,-50.0,99.0,-977.0,69.0
19.0,-261.0,25.0,-206.0,-176.0,-36.0,97.0,-978.0,69.0
16.0,-253.0,26.0,-211.0,-179.0,-27.0,97.0,-972.0,75.0
16.0,-250.0,25.0,-218.0,-185.0,-19.0,105.0,-968.0,74.0
16.0,-248.0,27.0,-220.0,-195.0,-15.0,103.0,-948.0,75.0
21.0,-247.0,31.0,-220.0,-201.0,-10.0,111.0,-944.0,74.0
27.0,-243.0,29.0,-216.0,-197.0,-5.0,123.0,-936.0,77.0
24.0,-243.0,28.0,-204.0,-187.0,-2.0,122.0,-925.0,71.0
22.0,-242.0,27.0,-194.0,-178.0,2.0,118.0,-922.0,69.0
22.0,-241.0,24.0,-198.0,-177.0,7.0,119.0,-919.0,64.0
23.0,-239.0,24.0,-215.0,-181.0,12.0,123.0,-919.0,64.0
27.0,-236.0,28.0,-238.0,-179.0,14.0,135.0,-917.0,68.0
23.0,-237.0,35.0,-254.0,-173.0,23.0,133.0,-914.0,82.0
24.0,-240.0,33.0,-261.0,-165.0,30.0,134.0,-912.0,97.0
25.0,-238.0,31.0,-262.0,-166.0,42.0,139.0,-909.0,100.0
31.0,-241.0,33.0,-261.0,-171.0,55.0,152.0,-916.0,103.0
30.0,-239.0,37.0,-256.0,-172.0,66.0,152.0,-919.0,101.0
29.0,-240.0,35.0,-251.0,-171.0,73.0,149.0,-922.0,101.0
24.0,-240.0,36.0,-244.0,-170.0,78.0,146.0,-925.0,98.0
22.0,-239.0,39.0,-235.0,-175.0,78.0,131.0,-927.0,101.0
26.0,-244.0,38.0,-233.0,-190.0,80.0,130.0,-929.0,100.0
18.0,-239.0,35.0,-233.0,-209.0,81.0,117.0,-919.0,100.0
22.0,-239.0,30.0,-238.0,-221.0,80.0,121.0,-915.0,89.0
19.0,-235.0,31.0,-241.0,-221.0,81.0,122.0,-909.0,88.0
20.0,-233.0,29.0,-247.0,-219.0,84.0,113.0,-894.0,83.0
21.0,-229.0,28.0,-255.0,-213.0,90.0,110.0,-888.0,78.0
21.0,-229.0,34.0,-261.0,-205.0,100.0,114.0,-872.0,85.0
27.0,-226.0,33.0,-262.0,-198.0,112.0,133.0,-877.0,92.0
25.0,-234.0,35.0,-258.0,-192.0,119.0,127.0,-886.0,90.0
27.0,-233.0,36.0,-260.0,-189.0,127.0,140.0,-901.0,102.0
25.0,-241.0,42.0,-267.0,-190.0,134.0,138.0,-924.0,112.0
25.0,-248.0,42.0,-272.0,-199.0,142.0,132.0,-951.0,131.0
29.0,-249.0,47.0,-273.0,-216.0,145.0,141.0,-971.0,140.0
26.0,-257.0,46.0,-270.0,-232.0,145.0,150.0,-1002.0,143.0
31.0,-263.0,43.0,-267.0,-243.0,139.0,168.0,-1020.0,145.0
34.0,-272.0,41.0,-269.0,-247.0,132.0,174.0,-1045.0,126.0
38.0,-278.0,39.0,-276.0,-247.0,115.0,178.0,-1072.0,106.0
33.0,-281.0,34.0,-283.0,-245.0,99.0,170.0,-1087.0,90.0
32.0,-287.0,33.0,-288.0,-238.0,79.0,153.0,-1111.0,85.0
23.0,-290.0,32.0,-289.0,-231.0,57.0,138.0,-1120.0,84.0
21.0,-294.0,35.0,-276.0,-230.0,40.0,122.0,-1139.0,99.0
25.0,-295.0,40.0,-257.0,-247.0,20.0,132.0,-1148.0,105.0
22.0,-300.0,38.0,-233.0,-257.0,9.0,138.0,-1146.0,113.0
27.0,-298.0,40.0,-206.0,-261.0,0.0,146.0,-1155.0,116.0
28.0,-304.0,36.0,-186.0,-265.0,-1.0,158.0,-1157.0,135.0
34.0,-301.0,48.0,-170.0,-267.0,-4.0,173.0,-1164.0,138.0
33.0,-305.0,45.0,-160.0,-272.0,-4.0,186.0,-1179.0,136.0
36.0,-309.0,39.0,-158.0,-274.0,-2.0,169.0,-1184.0,120.0
34.0,-311.0,38.0,-162.0,-275.0,7.0,174.0,-1205.0,102.0
33.0,-313.0,31.0,-170.0,-269.0,15.0,177.0,-1214.0,79.0
36.0,-313.0,27.0,-179.0,-253.0,26.0,189.0,-1219.0,60.0
36.0,-315.0,26.0,-185.0,-222.0,39.0,177.0,-1219.0,51.0
31.0,-314.0,19.0,-184.0,-176.0,54.0,161.0,-1219.0,40.0
34.0,-313.0,14.0,-182.0,-134.0,69.0,160.0,-1215.0,40.0
34.0,-315.0,15.0,-185.0,-100.0,85.0,179.0,-1224.0,35.0
38.0,-321.0,11.0,-197.0,-68.0,98.0,193.0,-1247.0,13.0
42.0,-334.0,1.0,-218.0,-39.0,109.0,200.0,-1273.0,-22.0
38.0,-338.0,-8.0,-242.0,-8.0,114.0,184.0,-1302.0,-62.0
43.0,-347.0,-19.0,-256.0,26.0,118.0,202.0,-1348.0,-113.0
46.0,-358.0,-28.0,-259.0,67.0,113.0,221.0,-1381.0,-146.0
53.0,-364.0,-32.0,-251.0,112.0,110.0,236.0,-1395.0,-174.0
53.0,-363.0,-31.0,-231.0,165.0,108.0,242.0,-1404.0,-183.0
49.0,-363.0,-27.0,-195.0,214.0,100.0,230.0,-1383.0,-168.0
46.0,-355.0,-24.0,-156.0,252.0,83.0,222.0,-1370.0,-154.0
40.0,-348.0,-22.0,-136.0,270.0,59.0,209.0,-1345.0,-139.0
40.0,-336.0,-17.0,-142.0,270.0,40.0,188.0,-1322.0,-130.0
29.0,-328.0,-20.0,-156.0,260.0,29.0,162.0,-1273.0,-120.0
25.0,-318.0,-19.0,-153.0,242.0,30.0,131.0,-1233.0,-117.0
17.0,-307.0,-20.0,-123.0,234.0,46.0,100.0,-1177.0,-127.0
7.0,-289.0,-26.0,-75.0,233.0,82.0,75.0,-1099.0,-153.0
4.0,-271.0,-35.0,-28.0,235.0,126.0,51.0,-1038.0,-176.0
1.0,-254.0,-39.0,7.0,234.0,175.0,37.0,-991.0,-211.0
-2.0,-246.0,-43.0,15.0,227.0,225.0,19.0,-943.0,-225.0
-2.0,-241.0,-51.0,0.0,217.0,271.0,6.0,-925.0,-241.0
-6.0,-240.0,-55.0,-29.0,208.0,310.0,-2.0,-918.0,-254.0
-10.0,-247.0,-53.0,-66.0,202.0,342.0,-16.0,-939.0,-255.0
-16.0,-249.0,-49.0,-102.0,196.0,362.0,-33.0,-958.0,-253.0
-21.0,-260.0,-47.0,-128.0,185.0,378.0,-52.0,-998.0,-234.0
-24.0,-269.0,-45.0,-139.0,172.0,388.0,-59.0,-1036.0,-220.0
-22.0,-274.0,-37.0,-138.0,150.0,390.0,-55.0,-1064.0,-202.0
-16.0,-281.0,-38.0,-130.0,121.0,386.0,-32.0,-1092.0,-192.0
-14.0,-285.0,-42.0,-124.0,86.0,377.0,-16.0,-1103.0,-191.0
-7.0,-286.0,-43.0,-127.0,51.0,375.0,6.0,-1113.0,-211.0
-3.0,-291.0,-43.0,-140.0,22.0,378.0,21.0,-1119.0,-225.0
-1.0,-292.0,-45.0,-152.0,6.0,382.0,22.0,-1124.0,-232.0
-3.0,-288.0,-51.0,-160.0,-6.0,387.0,12.0,-1116.0,-242.0
-6.0,-289.0,-55.0,-164.0,-19.0,387.0,4.0,-1111.0,-261.0
-14.0,-285.0,-53.0,-170.0,-35.0,383.0,-16.0,-1099.0,-263.0
-18.0,-280.0,-55.0,-182.0,-52.0,376.0,-30.0,-1083.0,-262.0
-12.0,-277.0,-46.0,-190.0,-73.0,367.0,-32.0,-1077.0,-249.0
-16.0,-274.0,-45.0,-187.0,-96.0,357.0,-36.0,-1062.0,-230.0
-14.0,-267.0,-45.0,-171.0,-111.0,347.0,-20.0,-1044.0,-222.0
-7.0,-269.0,-37.0,-144.0,-115.0,344.0,-2.0,-1022.0,-196.0
-7.0,-262.0,-28.0,-115.0,-107.0,344.0,-8.0,-1013.0,-176.0
-7.0,-255.0,-30.0,-80.0,-83.0,352.0,5.0,-986.0,-157.0
-9.0,-253.0,-24.0,-52.0,-51.0,355.0,-7.0,-964.0,-148.0
-9.0,-246.0,-22.0,-33.0,-28.0,358.0,-10.0,-943.0,-136.0
-12.0,-245.0,-22.0,-21.0,-17.0,357.0,-18.0,-930.0,-137.0
-13.0,-240.0,-21.0,-13.0,-17.0,355.0,-20.0,-925.0,-133.0
-9.0,-244.0,-20.0,-8.0,-20.0,361.0,-8.0,-925.0,-127.0
-8.0,-245.0,-20.0,6.0,-23.0,365.0,7.0,-930.0,-115.0
-2.0,-246.0,-21.0,25.0,-17.0,365.0,18.0,-933.0,-125.0
2.0,-249.0,-20.0,41.0,-6.0,360.0,28.0,-946.0,-123.0
0.0,-248.0,-22.0,49.0,10.0,353.0,32.0,-949.0,-121.0
0.0,-247.0,-30.0,39.0,25.0,351.0,23.0,-962.0,-129.0
-4.0,-252.0,-25.0,16.0,37.0,355.0,18.0,-975.0,-139.0
0.0,-256.0,-28.0,-9.0,47.0,362.0,17.0,-984.0,-145.0
-7.0,-258.0,-21.0,-14.0,59.0,367.0,-1.0,-984.0,-145.0
-7.0,-256.0,-24.0,6.0,78.0,370.0,-8.0,-986.0,-163.0
-4.0,-254.0,-31.0,31.0,102.0,372.0,-2.0,-992.0,-170.0
-15.0,-258.0,-35.0,47.0,129.0,370.0,-21.0,-986.0,-177.0
-15.0,-260.0,-24.0,47.0,143.0,370.0,-33.0,-1007.0,-130.0
-14.0,-259.0,-19.0,66.0,138.0,358.0,-33.0,-992.0,-120.0
-24.0,-249.0,-19.0,95.0,136.0,345.0,-67.0,-964.0,-117.0
-26.0,-250.0,-21.0,123.0,145.0,346.0,-78.0,-975.0,-108.0
-24.0,-246.0,-27.0,119.0,153.0,349.0,-60.0,-958.0,-143.0
-29.0,-247.0,-17.0,66.0,168.0,336.0,-88.0,-946.0,-116.0
-39.0,-245.0,-11.0,34.0,176.0,336.0,-117.0,-939.0,-82.0
-48.0,-246.0,-9.0,39.0,177.0,346.0,-158.0,-946.0,-80.0
-55.0,-242.0,-13.0,53.0,179.0,358.0,-178.0,-925.0,-89.0
-56.0,-238.0,-13.0,65.0,171.0,370.0,-190.0,-917.0,-76.0
-62.0,-237.0,-9.0,90.0,152.0,386.0,-209.0,-911.0,-73.0
-50.0,-233.0,-12.0,119.0,129.0,410.0,-186.0,-899.0,-84.0
-40.0,-228.0,-20.0,140.0,115.0,418.0,-147.0,-876.0,-132.0
-39.0,-226.0,-21.0,125.0,123.0,410.0,-144.0,-866.0,-135.0
-48.0,-220.0,-19.0,97.0,132.0,405.0,-150.0,-858.0,-127.0
-43.0,-222.0,-19.0,79.0,123.0,409.0,-138.0,-868.0,-117.0
-42.0,-229.0,-20.0,76.0,103.0,406.0,-122.0,-873.0,-117.0
-32.0,-227.0,-20.0,72.0,90.0,397.0,-99.0,-881.0,-115.0
-28.0,-232.0,-10.0,68.0,84.0,386.0,-81.0,-889.0,-87.0
-26.0,-231.0,-6.0,86.0,84.0,374.0,-81.0,-888.0,-83.0
-32.0,-229.0,-13.0,110.0,88.0,362.0,-85.0,-890.0,-86.0
-23.0,-234.0,-7.0,127.0,98.0,361.0,-72.0,-898.0,-71.0
-28.0,-231.0,-4.0,143.0,102.0,363.0,-70.0,-891.0,-57.0
-22.0,-228.0,-4.0,155.0,100.0,363.0,-49.0,-884.0,-60.0
-17.0,-227.0,-6.0,167.0,98.0,366.0,-34.0,-891.0,-60.0
-20.0,-228.0,-8.0,178.0,104.0,372.0,-45.0,-885.0,-67.0
-21.0,-230.0,-11.0,178.0,109.0,371.0,-58.0,-892.0,-77.0
-24.0,-229.0,-11.0,167.0,112.0,371.0,-62.0,-881.0,-81.0
-24.0,-221.0,-16.0,152.0,114.0,377.0,-70.0,-864.0,-86.0
-29.0,-215.0,-21.0,134.0,121.0,382.0,-74.0,-852.0,-99.0
-35.0,-214.0,-19.0,116.0,128.0,388.0,-91.0,-835.0,-100.0
-28.0,-212.0,-28.0,113.0,129.0,392.0,-106.0,-823.0,-118.0
-33.0,-200.0,-22.0,87.0,129.0,389.0,-87.0,-796.0,-156.0
-33.0,-208.0,-19.0,45.0,141.0,386.0,-106.0,-809.0,-121.0
-38.0,-210.0,-17.0,21.0,147.0,383.0,-117.0,-817.0,-98.0
-45.0,-218.0,-11.0,0.0,145.0,371.0,-148.0,-841.0,-70.0
-42.0,-226.0,-3.0,-9.0,128.0,366.0,-143.0,-864.0,-52.0
-47.0,-234.0,2.0,-11.0,110.0,358.0,-151.0,-892.0,-31.0
-45.0,-238.0,10.0,-2.0,90.0,359.0,-146.0,-911.0,-4.0
-38.0,-236.0,4.0,31.0,88.0,365.0,-136.0,-907.0,-16.0
-39.0,-234.0,-1.0,62.0,105.0,373.0,-139.0,-908.0,-29.0
-41.0,-232.0,-3.0,71.0,113.0,376.0,-138.0,-902.0,-45.0
-45.0,-229.0,-1.0,62.0,108.0,374.0,-142.0,-890.0,-33.0
-49.0,-226.0,3.0,53.0,99.0,371.0,-154.0,-877.0,-26.0
-48.0,-223.0,-3.0,50.0,88.0,370.0,-159.0,-868.0,-38.0
-49.0,-222.0,-1.0,52.0,85.0,368.0,-167.0,-860.0,-45.0
-49.0,-221.0,-2.0,54.0,87.0,370.0,-164.0,-848.0,-44.0
-49.0,-219.0,-1.0,60.0,90.0,368.0,-159.0,-843.0,-44.0
-46.0,-222.0,-3.0,70.0,93.0,366.0,-162.0,-845.0,-43.0
-52.0,-217.0,-1.0,86.0,100.0,363.0,-163.0,-842.0,-28.0
-45.0,-222.0,2.0,100.0,97.0,353.0,-159.0,-853.0,-21.0
-45.0,-225.0,5.0,114.0,94.0,341.0,-149.0,-861.0,-10.0
-46.0,-225.0,5.0,127.0,94.0,337.0,-143.0,-866.0,1.0
-45.0,-227.0,9.0,137.0,97.0,324.0,-142.0,-870.0,-12.0
-48.0,-225.0,6.0,128.0,100.0,310.0,-151.0,-868.0,-11.0
-43.0,-224.0,6.0,111.0,106.0,301.0,-145.0,-873.0,-6.0
-44.0,-224.0,7.0,86.0,117.0,298.0,-142.0,-876.0,0.0
-39.0,-227.0,11.0,57.0,138.0,294.0,-137.0,-877.0,-7.0
-42.0,-228.0,10.0,30.0,165.0,288.0,-137.0,-880.0,13.0
-43.0,-236.0,18.0,25.0,184.0,289.0,-141.0,-900.0,39.0
-40.0,-237.0,19.0,50.0,194.0,277.0,-142.0,-904.0,44.0
-42.0,-238.0,22.0,90.0,196.0,261.0,-133.0,-918.0,49.0
-41.0,-241.0,27.0,139.0,204.0,251.0,-135.0,-923.0,55.0
-42.0,-245.0,30.0,187.0,204.0,240.0,-140.0,-925.0,74.0
-41.0,-239.0,23.0,238.0,198.0,229.0,-121.0,-922.0,58.0
-35.0,-237.0,22.0,265.0,195.0,211.0,-123.0,-909.0,59.0
-39.0,-235.0,24.0,273.0,198.0,201.0,-111.0,-905.0,71.0
-37.0,-231.0,35.0,275.0,197.0,190.0,-111.0,-901.0,87.0
-38.0,-232.0,36.0,285.0,196.0,174.0,-113.0,-894.0,102.0
-42.0,-226.0,32.0,305.0,197.0,156.0,-137.0,-874.0,88.0
-48.0,-219.0,28.0,317.0,203.0,144.0,-156.0,-855.0,74.0
-57.0,-214.0,24.0,305.0,209.0,139.0,-183.0,-847.0,60.0
-62.0,-209.0,27.0,272.0,201.0,133.0,-199.0,-829.0,61.0
-60.0,-202.0,22.0,237.0,181.0,130.0,-206.0,-798.0,63.0
-58.0,-198.0,19.0,207.0,168.0,131.0,-206.0,-779.0,49.0
-63.0,-195.0,18.0,179.0,167.0,131.0,-209.0,-775.0,36.0
-59.0,-198.0,17.0,160.0,169.0,129.0,-214.0,-779.0,35.0
-60.0,-200.0,16.0,150.0,168.0,122.0,-206.0,-788.0,33.0
-57.0,-208.0,14.0,142.0,168.0,110.0,-203.0,-806.0,25.0
-55.0,-215.0,14.0,134.0,168.0,97.0,-197.0,-829.0,27.0
-55.0,-218.0,15.0,120.0,171.0,81.0,-185.0,-853.0,26.0
-49.0,-226.0,18.0,102.0,178.0,59.0,-169.0,-872.0,37.0
-47.0,-234.0,18.0,81.0,187.0,33.0,-161.0,-899.0,39.0
-45.0,-239.0,22.0,58.0,198.0,7.0,-154.0,-910.0,52.0
-43.0,-237.0,20.0,41.0,201.0,-21.0,-134.0,-921.0,44.0
-53.0,-243.0,15.0,32.0,205.0,-48.0,-154.0,-929.0,48.0
-53.0,-242.0,21.0,22.0,214.0,-71.0,-171.0,-937.0,47.0
-59.0,-241.0,17.0,9.0,221.0,-90.0,-198.0,-938.0,39.0
-65.0,-245.0,13.0,-23.0,225.0,-106.0,-223.0,-949.0,24.0
-73.0,-246.0,10.0,-68.0,220.0,-116.0,-256.0,-959.0,0.0
-79.0,-249.0,3.0,-124.0,215.0,-110.0,-270.0,-982.0,-11.0
-80.0,-257.0,7.0,-175.0,209.0,-92.0,-287.0,-1006.0,-20.0
-78.0,-264.0,7.0,-211.0,207.0,-68.0,-278.0,-1029.0,-14.0
-76.0,-271.0,8.0,-224.0,209.0,-39.0,-267.0,-1048.0,1.0
-71.0,-274.0,8.0,-215.0,214.0,-10.0,-259.0,-1070.0,9.0
-71.0,-279.0,14.0,-187.0,222.0,11.0,-246.0,-1082.0,19.0
-62.0,-282.0,18.0,-153.0,229.0,29.0,-220.0,-1093.0,25.0
-59.0,-281.0,17.0,-118.0,235.0,41.0,-202.0,-1097.0,34.0
-52.0,-286.0,17.0,-92.0,247.0,49.0,-172.0,-1102.0,31.0
-52.0,-285.0,17.0,-73.0,258.0,52.0,-172.0,-1110.0,29.0
-55.0,-285.0,15.0,-65.0,269.0,48.0,-180.0,-1110.0,28.0
-54.0,-287.0,17.0,-69.0,274.0,45.0,-175.0,-1113.0,24.0
-52.0,-286.0,10.0,-78.0,273.0,49.0,-165.0,-1117.0,19.0
-53.0,-290.0,11.0,-86.0,272.0,47.0,-175.0,-1127.0,8.0
-58.0,-291.0,10.0,-89.0,263.0,39.0,-194.0,-1129.0,-8.0
-65.0,-292.0,7.0,-88.0,254.0,35.0,-213.0,-1139.0,-12.0
-71.0,-294.0,4.0,-83.0,246.0,36.0,-235.0,-1152.0,-14.0
-78.0,-301.0,6.0,-80.0,235.0,48.0,-262.0,-1163.0,-13.0
-87.0,-300.0,5.0,-82.0,218.0,48.0,-291.0,-1179.0,-13.0
-95.0,-311.0,4.0,-93.0,187.0,55.0,-347.0,-1202.0,-23.0
-105.0,-313.0,-1.0,-115.0,157.0,78.0,-380.0,-1239.0,-34.0
-113.0,-324.0,-2.0,-141.0,128.0,115.0,-398.0,-1271.0,-32.0
-117.0,-335.0,0.0,-153.0,108.0,147.0,-411.0,-1304.0,-29.0
-114.0,-343.0,4.0,-149.0,85.0,165.0,-397.0,-1336.0,-9.0
-99.0,-343.0,16.0,-130.0,58.0,189.0,-349.0,-1342.0,10.0
-76.0,-343.0,18.0,-105.0,33.0,211.0,-265.0,-1337.0,17.0
-59.0,-341.0,11.0,-81.0,26.0,228.0,-209.0,-1331.0,28.0
-56.0,-333.0,15.0,-53.0,42.0,233.0,-184.0,-1296.0,27.0
-56.0,-325.0,11.0,-19.0,68.0,232.0,-182.0,-1275.0,19.0
-49.0,-316.0,3.0,15.0,74.0,213.0,-169.0,-1225.0,-19.0
-46.0,-307.0,-12.0,36.0,57.0,170.0,-144.0,-1184.0,-77.0
-39.0,-292.0,-24.0,36.0,49.0,128.0,-136.0,-1144.0,-128.0
-39.0,-282.0,-31.0,27.0,68.0,78.0,-116.0,-1096.0,-163.0
-35.0,-278.0,-38.0,22.0,100.0,32.0,-112.0,-1064.0,-186.0
-46.0,-264.0,-42.0,24.0,126.0,-22.0,-151.0,-1035.0,-209.0
-60.0,-258.0,-42.0,27.0,135.0,-73.0,-195.0,-1019.0,-217.0
-70.0,-259.0,-47.0,19.0,125.0,-120.0,-238.0,-1016.0,-221.0
-75.0,-257.0,-42.0,-1.0,105.0,-159.0,-261.0,-1021.0,-221.0
-72.0,-265.0,-41.0,-29.0,82.0,-187.0,-261.0,-1036.0,-210.0
-73.0,-271.0,-38.0,-65.0,61.0,-202.0,-257.0,-1059.0,-196.0
-73.0,-280.0,-32.0,-97.0,47.0,-205.0,-257.0,-1097.0,-172.0
-69.0,-287.0,-27.0,-121.0,41.0,-201.0,-240.0,-1118.0,-161.0
-65.0,-296.0,-20.0,-135.0,39.0,-193.0,-232.0,-1142.0,-127.0
-60.0,-299.0,-20.0,-140.0,37.0,-183.0,-212.0,-1151.0,-121.0
-55.0,-300.0,-17.0,-131.0,33.0,-164.0,-185.0,-1159.0,-107.0
-50.0,-302.0,-15.0,-107.0,31.0,-149.0,-152.0,-1162.0,-100.0
-44.0,-300.0,-16.0,-75.0,33.0,-144.0,-144.0,-1158.0,-99.0
-43.0,-299.0,-18.0,-39.0,37.0,-141.0,-131.0,-1151.0,-103.0
-40.0,-295.0,-18.0,-8.0,40.0,-137.0,-120.0,-1140.0,-111.0
-37.0,-290.0,-21.0,14.0,40.0,-136.0,-106.0,-1120.0,-122.0
-31.0,-286.0,-23.0,23.0,37.0,-136.0,-94.0,-1112.0,-136.0
-29.0,-281.0,-24.0,23.0,36.0,-141.0,-79.0,-1091.0,-144.0
-27.0,-277.0,-26.0,20.0,43.0,-144.0,-68.0,-1079.0,-145.0
-20.0,-274.0,-28.0,20.0,47.0,-154.0,-56.0,-1065.0,-149.0
-19.0,-270.0,-25.0,16.0,50.0,-166.0,-40.0,-1050.0,-143.0
-16.0,-264.0,-31.0,14.0,55.0,-186.0,-33.0,-1034.0,-154.0
-12.0,-266.0,-34.0,5.0,63.0,-210.0,-24.0,-1030.0,-165.0
-13.0,-269.0,-30.0,-7.0,72.0,-237.0,-29.0,-1032.0,-169.0
-16.0,-274.0,-28.0,-18.0,80.0,-260.0,-29.0,-1041.0,-165.0
-14.0,-271.0,-30.0,-26.0,85.0,-277.0,-21.0,-1056.0,-169.0
-13.0,-275.0,-36.0,-30.0,95.0,-291.0,-19.0,-1069.0,-177.0
-12.0,-282.0,-37.0,-32.0,117.0,-308.0,-20.0,-1086.0,-181.0
-14.0,-283.0,-34.0,-34.0,145.0,-327.0,-19.0,-1098.0,-184.0
-12.0,-282.0,-35.0,-44.0,170.0,-344.0,-23.0,-1098.0,-177.0
-15.0,-281.0,-28.0,-61.0,186.0,-363.0,-33.0,-1097.0,-161.0
-16.0,-282.0,-30.0,-75.0,203.0,-375.0,-33.0,-1100.0,-146.0
-15.0,-284.0,-24.0,-94.0,220.0,-391.0,-41.0,-1108.0,-139.0
-18.0,-287.0,-18.0,-116.0,239.0,-409.0,-41.0,-1108.0,-126.0
-22.0,-287.0,-20.0,-129.0,255.0,-425.0,-44.0,-1111.0,-114.0
-17.0,-287.0,-17.0,-131.0,274.0,-437.0,-38.0,-1104.0,-109.0
-21.0,-283.0,-17.0,-117.0,295.0,-444.0,-48.0,-1097.0,-97.0
-19.0,-278.0,-18.0,-94.0,324.0,-445.0,-49.0,-1084.0,-108.0
-20.0,-276.0,-23.0,-73.0,356.0,-441.0,-59.0,-1061.0,-119.0
-24.0,-272.0,-19.0,-60.0,385.0,-439.0,-57.0,-1053.0,-120.0
-21.0,-271.0,-16.0,-52.0,401.0,-447.0,-49.0,-1045.0,-101.0
-20.0,-263.0,-16.0,-43.0,402.0,-454.0,-43.0,-1027.0,-94.0
-19.0,-259.0,-11.0,-35.0,394.0,-454.0,-46.0,-1009.0,-82.0
-23.0,-253.0,-13.0,-30.0,386.0,-442.0,-60.0,-977.0,-79.0
-25.0,-251.0,-12.0,-26.0,378.0,-425.0,-73.0,-965.0,-77.0
-30.0,-248.0,-14.0,-26.0,368.0,-407.0,-90.0,-957.0,-87.0
-35.0,-248.0,-10.0,-25.0,356.0,-391.0,-90.0,-957.0,-104.0
-28.0,-246.0,-22.0,-32.0,344.0,-387.0,-94.0,-943.0,-123.0
-27.0,-246.0,-27.0,-44.0,336.0,-388.0,-84.0,-939.0,-139.0
-27.0,-242.0,-27.0,-49.0,334.0,-397.0,-81.0,-924.0,-157.0
-28.0,-238.0,-32.0,-56.0,340.0,-400.0,-90.0,-909.0,-176.0
-29.0,-238.0,-32.0,-83.0,347.0,-400.0,-86.0,-902.0,-175.0
-32.0,-229.0,-29.0,-120.0,351.0,-400.0,-93.0,-895.0,-156.0
-30.0,-231.0,-23.0,-151.0,348.0,-409.0,-93.0,-888.0,-135.0
-30.0,-235.0,-18.0,-166.0,342.0,-422.0,-88.0,-890.0,-118.0
-29.0,-230.0,-19.0,-165.0,331.0,-439.0,-82.0,-891.0,-113.0
-26.0,-234.0,-16.0,-166.0,320.0,-458.0,-78.0,-903.0,-97.0
-22.0,-235.0,-15.0,-164.0,311.0,-474.0,-62.0,-903.0,-99.0
-16.0,-234.0,-14.0,-165.0,303.0,-486.0,-43.0,-901.0,-96.0
-10.0,-232.0,-13.0,-165.0,297.0,-491.0,-17.0,-888.0,-82.0
-9.0,-229.0,-12.0,-161.0,286.0,-500.0,3.0,-887.0,-79.0
-5.0,-222.0,-9.0,-156.0,270.0,-517.0,14.0,-861.0,-74.0
-4.0,-226.0,-8.0,-140.0,247.0,-532.0,5.0,-858.0,-65.0
-11.0,-220.0,-5.0,-118.0,231.0,-545.0,-12.0,-847.0,-62.0
-15.0,-211.0,-11.0,-97.0,215.0,-558.0,-31.0,-833.0,-76.0
-21.0,-211.0,-12.0,-88.0,203.0,-568.0,-54.0,-818.0,-88.0
-24.0,-205.0,-20.0,-89.0,192.0,-573.0,-67.0,-790.0,-105.0
-25.0,-202.0,-19.0,-96.0,184.0,-573.0,-68.0,-770.0,-116.0
-23.0,-195.0,-9.0,-89.0,177.0,-576.0,-54.0,-752.0,-90.0
-16.0,-187.0,-23.0,-55.0,169.0,-573.0,-39.0,-738.0,-113.0
-16.0,-184.0,-28.0,-57.0,179.0,-564.0,-35.0,-712.0,-150.0
-20.0,-181.0,-21.0,-103.0,187.0,-552.0,-41.0,-708.0,-123.0
-13.0,-182.0,-20.0,-141.0,178.0,-539.0,-27.0,-699.0,-120.0
-8.0,-181.0,-18.0,-176.0,166.0,-533.0,-7.0,-691.0,-119.0
-2.0,-179.0,-19.0,-207.0,156.0,-531.0,31.0,-698.0,-111.0
-1.0,-181.0,-18.0,-239.0,151.0,-534.0,29.0,-703.0,-99.0
-10.0,-182.0,-14.0,-275.0,149.0,-534.0,-12.0,-706.0,-105.0
-11.0,-184.0,-19.0,-308.0,139.0,-529.0,-31.0,-715.0,-101.0
-14.0,-184.0,-18.0,-326.0,120.0,-527.0,-27.0,-721.0,-97.0
-14.0,-194.0,-10.0,-322.0,94.0,-524.0,-20.0,-735.0,-81.0
-5.0,-198.0,-14.0,-291.0,66.0,-523.0,12.0,-766.0,-92.0
0.0,-208.0,-15.0,-243.0,46.0,-531.0,33.0,-798.0,-83.0
1.0,-212.0,-15.0,-186.0,38.0,-540.0,35.0,-815.0,-88.0
2.0,-210.0,-17.0,-149.0,44.0,-533.0,35.0,-813.0,-96.0
-2.0,-212.0,-15.0,-141.0,53.0,-518.0,11.0,-812.0,-84.0
-11.0,-210.0,-2.0,-154.0,49.0,-500.0,-7.0,-814.0,-49.0
-11.0,-206.0,-5.0,-153.0,31.0,-481.0,-6.0,-808.0,-46.0
-5.0,-204.0,-1.0,-164.0,14.0,-459.0,2.0,-800.0,-58.0
-6.0,-209.0,5.0,-192.0,4.0,-438.0,8.0,-801.0,-23.0
0.0,-213.0,8.0,-201.0,-12.0,-411.0,19.0,-813.0,-13.0
0.0,-208.0,4.0,-202.0,-32.0,-389.0,40.0,-814.0,-25.0
10.0,-208.0,-5.0,-205.0,-48.0,-364.0,67.0,-811.0,-43.0
12.0,-208.0,-1.0,-222.0,-59.0,-344.0,83.0,-813.0,-48.0
16.0,-210.0,-7.0,-238.0,-69.0,-337.0,99.0,-810.0,-62.0
21.0,-214.0,-12.0,-252.0,-74.0,-323.0,116.0,-821.0,-70.0
21.0,-218.0,-11.0,-272.0,-76.0,-306.0,116.0,-838.0,-81.0
26.0,-221.0,-17.0,-283.0,-77.0,-297.0,140.0,-853.0,-103.0
33.0,-229.0,-19.0,-305.0,-81.0,-295.0,149.0,-878.0,-119.0
29.0,-236.0,-19.0,-330.0,-81.0,-288.0,146.0,-897.0,-126.0
26.0,-242.0,-20.0,-355.0,-70.0,-277.0,130.0,-933.0,-130.0
19.0,-249.0,-17.0,-376.0,-48.0,-272.0,117.0,-962.0,-101.0
15.0,-257.0,-11.0,-375.0,-30.0,-266.0,112.0,-998.0,-84.0
15.0,-265.0,-10.0,-350.0,-23.0,-257.0,109.0,-1019.0,-80.0
18.0,-270.0,-7.0,-307.0,-22.0,-239.0,116.0,-1033.0,-68.0
19.0,-270.0,-7.0,-249.0,-19.0,-220.0,116.0,-1031.0,-60.0
19.0,-268.0,-5.0,-181.0,-22.0,-203.0,115.0,-1024.0,-57.0
18.0,-259.0,-7.0,-112.0,-32.0,-185.0,123.0,-998.0,-76.0
26.0,-254.0,-9.0,-76.0,-47.0,-172.0,141.0,-982.0,-69.0
26.0,-249.0,-7.0,-87.0,-64.0,-176.0,140.0,-965.0,-69.0
26.0,-248.0,-9.0,-120.0,-79.0,-177.0,136.0,-947.0,-73.0
30.0,-245.0,-2.0,-165.0,-80.0,-172.0,138.0,-938.0,-67.0
27.0,-240.0,-3.0,-200.0,-73.0,-165.0,142.0,-932.0,-43.0
30.0,-243.0,1.0,-220.0,-58.0,-158.0,145.0,-927.0,-27.0
33.0,-242.0,6.0,-227.0,-34.0,-152.0,161.0,-933.0,-10.0
36.0,-247.0,11.0,-223.0,-8.0,-142.0,176.0,-942.0,7.0
35.0,-253.0,16.0,-211.0,13.0,-134.0,180.0,-969.0,21.0
35.0,-256.0,19.0,-197.0,31.0,-128.0,171.0,-981.0,34.0
35.0,-261.0,23.0,-184.0,40.0,-123.0,166.0,-1008.0,51.0
34.0,-263.0,24.0,-168.0,52.0,-123.0,175.0,-1017.0,66.0
35.0,-263.0,27.0,-145.0,66.0,-128.0,178.0,-1015.0,72.0
34.0,-256.0,30.0,-121.0,78.0,-131.0,173.0,-1006.0,75.0
31.0,-253.0,28.0,-105.0,85.0,-135.0,159.0,-976.0,62.0
33.0,-246.0,24.0,-102.0,86.0,-131.0,168.0,-951.0,51.0
34.0,-242.0,19.0,-108.0,86.0,-124.0,165.0,-923.0,43.0
34.0,-231.0,16.0,-114.0,88.0,-112.0,174.0,-904.0,26.0
34.0,-233.0,11.0,-124.0,90.0,-97.0,165.0,-890.0,15.0
33.0,-228.0,12.0,-135.0,91.0,-83.0,161.0,-883.0,20.0
33.0,-230.0,14.0,-140.0,91.0,-64.0,152.0,-893.0,30.0
28.0,-239.0,21.0,-134.0,91.0,-46.0,141.0,-904.0,43.0
25.0,-245.0,30.0,-122.0,83.0,-22.0,139.0,-927.0,65.0
22.0,-248.0,29.0,-113.0,73.0,3.0,114.0,-952.0,74.0
8.0,-251.0,30.0,-111.0,64.0,27.0,86.0,-978.0,85.0
9.0,-261.0,32.0,-117.0,59.0,45.0,58.0,-1006.0,76.0
8.0,-264.0,25.0,-130.0,59.0,67.0,58.0,-1032.0,62.0
4.0,-271.0,26.0,-144.0,63.0,93.0,62.0,-1063.0,57.0
3.0,-286.0,26.0,-144.0,70.0,119.0,52.0,-1091.0,63.0
5.0,-291.0,32.0,-124.0,65.0,141.0,54.0,-1116.0,88.0
8.0,-290.0,35.0,-88.0,52.0,155.0,85.0,-1118.0,87.0
19.0,-291.0,28.0,-54.0,36.0,155.0,140.0,-1131.0,57.0
47.0,-294.0,5.0,-54.0,22.0,140.0,215.0,-1143.0,-1.0
66.0,-298.0,-11.0,-105.0,16.0,109.0,286.0,-1165.0,-76.0
78.0,-311.0,-28.0,-187.0,31.0,79.0,331.0,-1197.0,-130.0
80.0,-319.0,-35.0,-258.0,77.0,43.0,354.0,-1227.0,-173.0
87.0,-326.0,-41.0,-280.0,137.0,9.0,360.0,-1245.0,-195.0
86.0,-329.0,-45.0,-252.0,211.0,-16.0,357.0,-1256.0,-219.0
79.0,-324.0,-50.0,-198.0,288.0,-31.0,343.0,-1245.0,-241.0
69.0,-319.0,-44.0,-140.0,366.0,-38.0,316.0,-1230.0,-232.0
54.0,-321.0,-39.0,-98.0,416.0,-37.0,263.0,-1231.0,-197.0
32.0,-324.0,-29.0,-85.0,424.0,-35.0,177.0,-1262.0,-175.0
19.0,-336.0,-30.0,-94.0,406.0,-27.0,116.0,-1293.0,-164.0
4.0,-347.0,-30.0,-116.0,380.0,-21.0,64.0,-1346.0,-170.0
-2.0,-366.0,-35.0,-145.0,354.0,-28.0,25.0,-1406.0,-190.0
-8.0,-376.0,-40.0,-171.0,327.0,-39.0,14.0,-1459.0,-207.0
0.0,-388.0,-50.0,-174.0,294.0,-45.0,41.0,-1492.0,-232.0
13.0,-392.0,-58.0,-135.0,276.0,-34.0,94.0,-1509.0,-272.0
28.0,-384.0,-69.0,-46.0,297.0,-26.0,119.0,-1496.0,-324.0
11.0,-377.0,-77.0,77.0,341.0,8.0,98.0,-1454.0,-352.0
1.0,-355.0,-82.0,194.0,382.0,41.0,51.0,-1381.0,-365.0
-11.0,-327.0,-78.0,268.0,376.0,70.0,16.0,-1256.0,-361.0
-13.0,-307.0,-79.0,289.0,319.0,99.0,-2.0,-1175.0,-360.0
-11.0,-286.0,-86.0,267.0,234.0,125.0,8.0,-1119.0,-386.0
0.0,-278.0,-91.0,215.0,148.0,147.0,30.0,-1074.0,-427.0
4.0,-271.0,-102.0,148.0,89.0,162.0,50.0,-1056.0,-460.0
1.0,-266.0,-106.0,68.0,67.0,171.0,51.0,-1040.0,-472.0
1.0,-269.0,-106.0,-5.0,69.0,180.0,31.0,-1047.0,-475.0
-3.0,-278.0,-103.0,-68.0,60.0,188.0,12.0,-1069.0,-463.0
-12.0,-280.0,-93.0,-115.0,29.0,189.0,0.0,-1097.0,-424.0
-14.0,-293.0,-84.0,-142.0,-20.0,185.0,-13.0,-1120.0,-381.0
-15.0,-301.0,-68.0,-146.0,-68.0,173.0,-26.0,-1146.0,-330.0
-21.0,-306.0,-57.0,-130.0,-112.0,155.0,-36.0,-1166.0,-276.0
-19.0,-307.0,-56.0,-100.0,-149.0,137.0,-45.0,-1171.0,-263.0
-19.0,-303.0,-56.0,-51.0,-183.0,126.0,-49.0,-1160.0,-269.0
-19.0,-297.0,-63.0,9.0,-208.0,121.0,-48.0,-1145.0,-295.0
-16.0,-290.0,-74.0,66.0,-213.0,124.0,-37.0,-1115.0,-326.0
-16.0,-279.0,-75.0,110.0,-206.0,133.0,-33.0,-1084.0,-350.0
-13.0,-270.0,-82.0,132.0,-193.0,152.0,-28.0,-1054.0,-374.0
-15.0,-267.0,-82.0,127.0,-183.0,176.0,-18.0,-1030.0,-380.0
-14.0,-263.0,-80.0,104.0,-182.0,202.0,-17.0,-1023.0,-381.0
-13.0,-262.0,-81.0,74.0,-193.0,230.0,-16.0,-1019.0,-364.0
-9.0,-264.0,-74.0,46.0,-210.0,256.0,-8.0,-1019.0,-344.0
-9.0,-265.0,-70.0,31.0,-224.0,281.0,-7.0,-1036.0,-322.0
-9.0,-272.0,-64.0,25.0,-227.0,304.0,-13.0,-1036.0,-304.0
-13.0,-268.0,-58.0,23.0,-224.0,327.0,-29.0,-1046.0,-288.0
-16.0,-273.0,-53.0,26.0,-213.0,352.0,-36.0,-1054.0,-261.0
-19.0,-275.0,-51.0,38.0,-200.0,375.0,-34.0,-1059.0,-237.0
-12.0,-274.0,-43.0,55.0,-188.0,394.0,-34.0,-1061.0,-224.0
-12.0,-271.0,-43.0,86.0,-177.0,408.0,-21.0,-1057.0,-221.0
-9.0,-270.0,-47.0,121.0,-172.0,414.0,-15.0,-1050.0,-225.0
-8.0,-265.0,-45.0,158.0,-168.0,414.0,-6.0,-1030.0,-219.0
-8.0,-261.0,-47.0,190.0,-164.0,410.0,-7.0,-1011.0,-224.0
-15.0,-252.0,-44.0,213.0,-162.0,403.0,-28.0,-973.0,-222.0
-20.0,-247.0,-42.0,227.0,-161.0,398.0,-49.0,-946.0,-224.0
-28.0,-242.0,-45.0,225.0,-166.0,391.0,-73.0,-926.0,-211.0
-26.0,-240.0,-44.0,219.0,-169.0,387.0,-81.0,-915.0,-212.0
-24.0,-236.0,-47.0,207.0,-164.0,382.0,-70.0,-906.0,-215.0
-23.0,-237.0,-42.0,190.0,-151.0,367.0,-74.0,-904.0,-219.0
-26.0,-230.0,-44.0,169.0,-132.0,349.0,-80.0,-906.0,-220.0
-27.0,-228.0,-50.0,144.0,-119.0,333.0,-81.0,-907.0,-223.0
-28.0,-235.0,-47.0,118.0,-111.0,322.0,-84.0,-909.0,-215.0
-29.0,-241.0,-43.0,100.0,-107.0,315.0,-84.0,-916.0,-219.0
-32.0,-241.0,-43.0,85.0,-113.0,315.0,-91.0,-922.0,-210.0
-29.0,-242.0,-36.0,79.0,-112.0,314.0,-83.0,-929.0,-185.0
-31.0,-244.0,-34.0,81.0,-110.0,313.0,-87.0,-934.0,-178.0
-25.0,-245.0,-25.0,80.0,-107.0,317.0,-70.0,-937.0,-157.0
-19.0,-244.0,-22.0,81.0,-101.0,321.0,-57.0,-937.0,-141.0
-16.0,-245.0,-22.0,93.0,-90.0,323.0,-36.0,-938.0,-140.0
-10.0,-242.0,-21.0,106.0,-73.0,318.0,-28.0,-922.0,-126.0
-9.0,-237.0,-27.0,127.0,-60.0,320.0,-12.0,-909.0,-141.0
-11.0,-236.0,-28.0,139.0,-45.0,324.0,-9.0,-905.0,-155.0
-9.0,-235.0,-28.0,147.0,-32.0,327.0,-12.0,-896.0,-170.0
-12.0,-233.0,-34.0,154.0,-18.0,331.0,-30.0,-896.0,-177.0
-19.0,-236.0,-33.0,157.0,-8.0,334.0,-35.0,-893.0,-173.0
-20.0,-230.0,-32.0,161.0,-3.0,339.0,-49.0,-887.0,-168.0
-23.0,-231.0,-31.0,167.0,7.0,342.0,-65.0,-886.0,-164.0
-27.0,-228.0,-34.0,168.0,15.0,344.0,-79.0,-874.0,-166.0
-31.0,-227.0,-31.0,162.0,18.0,347.0,-99.0,-871.0,-173.0
-32.0,-226.0,-32.0,151.0,18.0,350.0,-97.0,-862.0,-170.0
-35.0,-225.0,-33.0,142.0,16.0,352.0,-100.0,-861.0,-178.0
-37.0,-221.0,-36.0,143.0,13.0,354.0,-109.0,-865.0,-183.0
-33.0,-225.0,-31.0,150.0,10.0,352.0,-113.0,-859.0,-184.0
-37.0,-221.0,-35.0,161.0,2.0,346.0,-122.0,-851.0,-189.0
-39.0,-216.0,-34.0,167.0,-4.0,342.0,-129.0,-846.0,-185.0
-42.0,-215.0,-35.0,159.0,-12.0,340.0,-138.0,-843.0,-175.0
-43.0,-219.0,-32.0,140.0,-21.0,337.0,-138.0,-841.0,-158.0
-40.0,-217.0,-27.0,123.0,-33.0,338.0,-128.0,-842.0,-145.0
-36.0,-220.0,-26.0,109.0,-48.0,339.0,-123.0,-850.0,-146.0
-39.0,-219.0,-23.0,105.0,-61.0,341.0,-126.0,-852.0,-154.0
-41.0,-224.0,-27.0,102.0,-66.0,341.0,-137.0,-855.0,-156.0
-46.0,-220.0,-27.0,98.0,-69.0,339.0,-146.0,-861.0,-156.0
-47.0,-227.0,-25.0,91.0,-76.0,341.0,-145.0,-863.0,-144.0
-47.0,-224.0,-27.0,84.0,-83.0,342.0,-149.0,-871.0,-152.0
-45.0,-225.0,-23.0,76.0,-93.0,339.0,-156.0,-870.0,-143.0
-53.0,-226.0,-21.0,77.0,-102.0,334.0,-161.0,-875.0,-138.0
-53.0,-227.0,-25.0,89.0,-114.0,329.0,-175.0,-871.0,-136.0
-55.0,-223.0,-25.0,105.0,-125.0,322.0,-187.0,-866.0,-130.0
-52.0,-226.0,-21.0,122.0,-140.0,321.0,-184.0,-854.0,-121.0
-50.0,-221.0,-24.0,133.0,-154.0,322.0,-171.0,-851.0,-126.0
-51.0,-217.0,-20.0,132.0,-165.0,325.0,-172.0,-850.0,-127.0
-48.0,-215.0,-20.0,123.0,-173.0,335.0,-163.0,-839.0,-126.0
-50.0,-218.0,-20.0,124.0,-179.0,349.0,-161.0,-838.0,-138.0
-49.0,-215.0,-22.0,136.0,-185.0,362.0,-153.0,-835.0,-129.0
-48.0,-214.0,-18.0,158.0,-187.0,371.0,-153.0,-832.0,-135.0
-46.0,-217.0,-25.0,183.0,-190.0,374.0,-158.0,-834.0,-140.0
-48.0,-212.0,-21.0,193.0,-193.0,375.0,-153.0,-827.0,-129.0
-42.0,-215.0,-22.0,199.0,-200.0,375.0,-147.0,-823.0,-139.0
-42.0,-208.0,-29.0,198.0,-203.0,376.0,-142.0,-810.0,-151.0
-42.0,-203.0,-31.0,187.0,-199.0,378.0,-127.0,-797.0,-158.0
-43.0,-202.0,-28.0,162.0,-191.0,378.0,-139.0,-795.0,-148.0
-39.0,-204.0,-33.0,151.0,-199.0,384.0,-126.0,-796.0,-166.0
-31.0,-205.0,-37.0,131.0,-200.0,384.0,-100.0,-798.0,-182.0
-29.0,-208.0,-33.0,94.0,-185.0,378.0,-104.0,-809.0,-178.0
-39.0,-216.0,-27.0,59.0,-163.0,379.0,-125.0,-825.0,-159.0
-36.0,-221.0,-17.0,34.0,-150.0,382.0,-110.0,-840.0,-102.0
-36.0,-216.0,-29.0,38.0,-145.0,371.0,-115.0,-846.0,-149.0
-37.0,-218.0,-19.0,23.0,-145.0,352.0,-115.0,-859.0,-108.0
-36.0,-226.0,-18.0,1.0,-151.0,338.0,-116.0,-873.0,-101.0
-33.0,-232.0,-19.0,-35.0,-146.0,325.0,-103.0,-904.0,-104.0
-35.0,-235.0,-15.0,-70.0,-136.0,317.0,-101.0,-904.0,-102.0
-34.0,-232.0,-17.0,-92.0,-123.0,312.0,-102.0,-907.0,-111.0
-34.0,-238.0,-14.0,-103.0,-100.0,314.0,-107.0,-907.0,-99.0
-38.0,-240.0,-15.0,-83.0,-79.0,316.0,-120.0,-911.0,-85.0
-41.0,-240.0,-11.0,-39.0,-65.0,316.0,-130.0,-902.0,-86.0
-47.0,-232.0,-15.0,15.0,-60.0,316.0,-144.0,-894.0,-96.0
-49.0,-230.0,-20.0,43.0,-63.0,314.0,-157.0,-890.0,-118.0
-47.0,-231.0,-23.0,25.0,-85.0,311.0,-154.0,-895.0,-129.0
-43.0,-230.0,-22.0,-12.0,-112.0,303.0,-141.0,-898.0,-123.0
-44.0,-230.0,-25.0,-47.0,-120.0,298.0,-146.0,-896.0,-137.0
-51.0,-229.0,-19.0,-79.0,-108.0,293.0,-165.0,-900.0,-116.0
-55.0,-235.0,-11.0,-98.0,-100.0,288.0,-179.0,-908.0,-88.0
-58.0,-239.0,-13.0,-104.0,-97.0,288.0,-193.0,-915.0,-73.0
-59.0,-240.0,-9.0,-104.0,-100.0,284.0,-204.0,-925.0,-64.0
-59.0,-246.0,-3.0,-103.0,-98.0,280.0,-199.0,-939.0,-63.0
-54.0,-247.0,-5.0,-99.0,-85.0,273.0,-190.0,-954.0,-60.0
-57.0,-248.0,-7.0,-98.0,-75.0,267.0,-199.0,-954.0,-47.0
-61.0,-249.0,-2.0,-91.0,-79.0,262.0,-199.0,-957.0,-35.0
-53.0,-249.0,-6.0,-86.0,-90.0,253.0,-180.0,-961.0,-49.0
-60.0,-248.0,-2.0,-93.0,-92.0,241.0,-199.0,-956.0,-42.0
-60.0,-252.0,-3.0,-95.0,-97.0,239.0,-200.0,-977.0,-40.0
-58.0,-250.0,-2.0,-99.0,-107.0,237.0,-196.0,-979.0,-45.0
-56.0,-249.0,-3.0,-103.0,-107.0,233.0,-181.0,-969.0,-53.0
-53.0,-250.0,-1.0,-104.0,-100.0,230.0,-180.0,-953.0,-59.0
-54.0,-248.0,-5.0,-101.0,-91.0,229.0,-166.0,-956.0,-69.0
-52.0,-247.0,-10.0,-95.0,-86.0,223.0,-160.0,-956.0,-62.0
-51.0,-245.0,-11.0,-85.0,-81.0,217.0,-176.0,-935.0,-70.0
-57.0,-239.0,-8.0,-79.0,-92.0,209.0,-182.0,-930.0,-75.0
-58.0,-240.0,-12.0,-81.0,-111.0,204.0,-188.0,-921.0,-87.0
-53.0,-237.0,-11.0,-88.0,-121.0,197.0,-176.0,-920.0,-93.0
-49.0,-239.0,-15.0,-99.0,-110.0,194.0,-159.0,-919.0,-82.0
-50.0,-236.0,-7.0,-112.0,-86.0,192.0,-164.0,-912.0,-73.0
-52.0,-235.0,-1.0,-127.0,-65.0,189.0,-175.0,-912.0,-36.0
-53.0,-240.0,0.0,-144.0,-60.0,189.0,-187.0,-917.0,-27.0
-57.0,-240.0,8.0,-160.0,-64.0,183.0,-188.0,-922.0,-11.0
-59.0,-242.0,7.0,-172.0,-69.0,172.0,-186.0,-931.0,2.0
-59.0,-241.0,5.0,-174.0,-68.0,158.0,-201.0,-929.0,-6.0
-63.0,-242.0,5.0,-170.0,-63.0,149.0,-207.0,-940.0,-17.0
-63.0,-245.0,-4.0,-162.0,-59.0,143.0,-206.0,-937.0,-33.0
-60.0,-245.0,-3.0,-154.0,-56.0,135.0,-213.0,-943.0,-52.0
-63.0,-244.0,-9.0,-147.0,-50.0,129.0,-211.0,-940.0,-66.0
-62.0,-239.0,-11.0,-148.0,-43.0,127.0,-218.0,-924.0,-77.0
-63.0,-235.0,-11.0,-155.0,-33.0,127.0,-216.0,-915.0,-83.0
-63.0,-238.0,-9.0,-163.0,-26.0,127.0,-214.0,-909.0,-76.0
-65.0,-233.0,-10.0,-168.0,-22.0,123.0,-223.0,-907.0,-68.0
-66.0,-235.0,-7.0,-172.0,-28.0,120.0,-231.0,-904.0,-58.0
-69.0,-232.0,-1.0,-185.0,-48.0,114.0,-245.0,-902.0,-38.0
-70.0,-236.0,0.0,-198.0,-76.0,111.0,-256.0,-905.0,-23.0
-72.0,-238.0,2.0,-207.0,-100.0,108.0,-265.0,-917.0,-15.0
-70.0,-239.0,14.0,-208.0,-115.0,102.0,-269.0,-922.0,-3.0
-78.0,-245.0,12.0,-201.0,-115.0,92.0,-274.0,-935.0,11.0
-80.0,-247.0,13.0,-193.0,-117.0,79.0,-281.0,-947.0,9.0
-81.0,-247.0,14.0,-183.0,-114.0,69.0,-289.0,-957.0,19.0
-81.0,-251.0,11.0,-166.0,-110.0,61.0,-289.0,-963.0,24.0
-76.0,-249.0,18.0,-136.0,-106.0,51.0,-270.0,-967.0,31.0
-70.0,-252.0,17.0,-97.0,-96.0,37.0,-252.0,-978.0,33.0
-68.0,-253.0,16.0,-56.0,-87.0,22.0,-236.0,-974.0,28.0
-64.0,-251.0,16.0,-17.0,-76.0,0.0,-218.0,-976.0,29.0
-60.0,-252.0,17.0,17.0,-70.0,-14.0,-213.0,-971.0,35.0
-59.0,-250.0,24.0,47.0,-62.0,-28.0,-204.0,-963.0,39.0
-59.0,-244.0,19.0,73.0,-46.0,-37.0,-205.0,-947.0,33.0
-59.0,-242.0,11.0,89.0,-28.0,-44.0,-199.0,-932.0,22.0
-61.0,-238.0,9.0,94.0,-14.0,-49.0,-197.0,-916.0,-2.0
-56.0,-235.0,-3.0,93.0,-8.0,-48.0,-190.0,-904.0,-21.0
-54.0,-227.0,-1.0,87.0,3.0,-52.0,-183.0,-888.0,-43.0
-52.0,-228.0,-9.0,75.0,23.0,-59.0,-180.0,-880.0,-61.0
-57.0,-225.0,-8.0,52.0,49.0,-69.0,-190.0,-873.0,-66.0
-60.0,-223.0,-5.0,19.0,57.0,-81.0,-195.0,-871.0,-60.0
-56.0,-227.0,-1.0,-9.0,51.0,-94.0,-189.0,-886.0,-39.0
-51.0,-233.0,8.0,-25.0,52.0,-105.0,-174.0,-904.0,-6.0
-50.0,-240.0,14.0,-30.0,76.0,-120.0,-172.0,-929.0,20.0
-54.0,-246.0,19.0,-28.0,111.0,-131.0,-186.0,-951.0,43.0
-62.0,-251.0,19.0,-29.0,142.0,-142.0,-208.0,-976.0,42.0
-71.0,-257.0,15.0,-48.0,162.0,-147.0,-235.0,-1010.0,28.0
-77.0,-266.0,7.0,-80.0,163.0,-143.0,-266.0,-1040.0,-10.0
-78.0,-270.0,-2.0,-121.0,161.0,-131.0,-274.0,-1071.0,-30.0
-75.0,-278.0,0.0,-158.0,166.0,-114.0,-271.0,-1083.0,-39.0
-72.0,-281.0,-2.0,-181.0,182.0,-97.0,-257.0,-1099.0,-27.0
-66.0,-283.0,5.0,-176.0,202.0,-82.0,-236.0,-1104.0,-8.0
-64.0,-280.0,6.0,-155.0,224.0,-73.0,-221.0,-1095.0,-3.0
-58.0,-280.0,5.0,-122.0,245.0,-71.0,-210.0,-1090.0,-2.0
-62.0,-276.0,4.0,-88.0,257.0,-75.0,-207.0,-1074.0,-18.0
-56.0,-271.0,-8.0,-67.0,258.0,-86.0,-194.0,-1058.0,-51.0
-51.0,-269.0,-13.0,-69.0,249.0,-79.0,-176.0,-1046.0,-79.0
-54.0,-264.0,-16.0,-85.0,256.0,-109.0,-167.0,-1034.0,-92.0
-51.0,-263.0,-14.0,-106.0,249.0,-141.0,-165.0,-1025.0,-93.0
-55.0,-262.0,-8.0,-121.0,253.0,-164.0,-180.0,-1021.0,-80.0
-58.0,-267.0,-1.0,-130.0,262.0,-183.0,-191.0,-1039.0,-41.0
-63.0,-273.0,8.0,-126.0,275.0,-199.0,-213.0,-1052.0,-12.0
-63.0,-278.0,14.0,-106.0,282.0,-200.0,-230.0,-1066.0,12.0
-70.0,-275.0,19.0,-74.0,296.0,-203.0,-247.0,-1082.0,35.0
-72.0,-278.0,14.0,-44.0,295.0,-207.0,-254.0,-1088.0,30.0
-75.0,-280.0,10.0,-26.0,280.0,-200.0,-266.0,-1097.0,21.0
-77.0,-280.0,11.0,-25.0,261.0,-182.0,-265.0,-1097.0,4.0
-68.0,-283.0,1.0,-34.0,238.0,-159.0,-241.0,-1105.0,-11.0
-59.0,-283.0,4.0,-46.0,221.0,-133.0,-202.0,-1104.0,-18.0
-46.0,-283.0,4.0,-48.0,221.0,-107.0,-157.0,-1099.0,-12.0
-37.0,-280.0,3.0,-35.0,237.0,-87.0,-113.0,-1091.0,-18.0
-28.0,-274.0,3.0,-15.0,261.0,-74.0,-81.0,-1079.0,-25.0
-20.0,-276.0,6.0,4.0,294.0,-55.0,-58.0,-1074.0,-23.0
-24.0,-271.0,1.0,17.0,332.0,-72.0,-66.0,-1054.0,-22.0
-31.0,-265.0,2.0,21.0,359.0,-89.0,-82.0,-1044.0,-22.0
-37.0,-260.0,2.0,21.0,375.0,-104.0,-109.0,-1025.0,-22.0
-44.0,-261.0,0.0,17.0,384.0,-118.0,-139.0,-1015.0,-36.0
-53.0,-258.0,-5.0,13.0,385.0,-124.0,-172.0,-1017.0,-57.0
-61.0,-257.0,-11.0,11.0,384.0,-140.0,-206.0,-1010.0,-73.0
-67.0,-259.0,-14.0,12.0,368.0,-156.0,-227.0,-1009.0,-97.0
-76.0,-258.0,-19.0,19.0,346.0,-170.0,-259.0,-1013.0,-119.0
-81.0,-262.0,-18.0,31.0,316.0,-182.0,-287.0,-1025.0,-125.0
-87.0,-266.0,-20.0,50.0,279.0,-189.0,-307.0,-1038.0,-122.0
-88.0,-269.0,-20.0,64.0,240.0,-185.0,-322.0,-1051.0,-130.0
-92.0,-273.0,-21.0,68.0,202.0,-179.0,-335.0,-1066.0,-130.0
-97.0,-277.0,-22.0,61.0,168.0,-170.0,-340.0,-1090.0,-135.0
-96.0,-281.0,-27.0,51.0,139.0,-161.0,-339.0,-1101.0,-144.0
-91.0,-289.0,-30.0,42.0,118.0,-149.0,-334.0,-1112.0,-165.0
-81.0,-292.0,-35.0,42.0,107.0,-131.0,-296.0,-1132.0,-185.0
-79.0,-287.0,-39.0,57.0,101.0,-126.0,-280.0,-1119.0,-193.0
-79.0,-285.0,-39.0,88.0,106.0,-123.0,-283.0,-1109.0,-200.0
-74.0,-278.0,-41.0,123.0,115.0,-112.0,-272.0,-1088.0,-211.0
-67.0,-273.0,-43.0,151.0,128.0,-96.0,-248.0,-1060.0,-219.0
-65.0,-270.0,-54.0,173.0,148.0,-82.0,-228.0,-1043.0,-250.0
-61.0,-263.0,-57.0,184.0,171.0,-77.0,-220.0,-1021.0,-278.0
-54.0,-258.0,-63.0,189.0,190.0,-80.0,-184.0,-1008.0,-309.0
-47.0,-260.0,-75.0,190.0,211.0,-80.0,-167.0,-1011.0,-335.0
-47.0,-263.0,-81.0,186.0,233.0,-92.0,-166.0,-1018.0,-367.0
-52.0,-266.0,-80.0,179.0,250.0,-112.0,-172.0,-1036.0,-379.0
-49.0,-277.0,-84.0,186.0,257.0,-128.0,-163.0,-1058.0,-383.0
-48.0,-283.0,-81.0,197.0,257.0,-146.0,-158.0,-1095.0,-380.0
-44.0,-293.0,-83.0,212.0,255.0,-167.0,-143.0,-1115.0,-363.0
-44.0,-298.0,-77.0,224.0,248.0,-188.0,-140.0,-1149.0,-340.0
-43.0,-305.0,-70.0,227.0,239.0,-211.0,-132.0,-1180.0,-324.0
-38.0,-311.0,-68.0,221.0,228.0,-233.0,-118.0,-1203.0,-318.0
-38.0,-316.0,-63.0,206.0,209.0,-252.0,-106.0,-1231.0,-306.0
-34.0,-321.0,-64.0,192.0,188.0,-265.0,-93.0,-1255.0,-305.0
-27.0,-326.0,-60.0,180.0,167.0,-274.0,-68.0,-1276.0,-303.0
-21.0,-334.0,-63.0,167.0,151.0,-280.0,-45.0,-1312.0,-292.0
-22.0,-342.0,-59.0,157.0,140.0,-281.0,-60.0,-1327.0,-287.0
-29.0,-345.0,-52.0,151.0,134.0,-277.0,-83.0,-1340.0,-260.0
-41.0,-341.0,-47.0,160.0,132.0,-276.0,-118.0,-1332.0,-236.0
-48.0,-336.0,-42.0,183.0,121.0,-278.0,-141.0,-1298.0,-231.0
-47.0,-333.0,-44.0,212.0,99.0,-285.0,-138.0,-1288.0,-223.0
-45.0,-330.0,-45.0,230.0,70.0,-303.0,-127.0,-1268.0,-211.0
-36.0,-325.0,-45.0,244.0,43.0,-319.0,-104.0,-1247.0,-207.0
-33.0,-318.0,-41.0,262.0,37.0,-336.0,-93.0,-1223.0,-213.0
-28.0,-310.0,-40.0,283.0,44.0,-355.0,-91.0,-1202.0,-213.0
-31.0,-301.0,-39.0,299.0,52.0,-372.0,-89.0,-1164.0,-217.0
-36.0,-291.0,-37.0,302.0,55.0,-385.0,-104.0,-1124.0,-194.0
-35.0,-282.0,-31.0,312.0,57.0,-383.0,-112.0,-1092.0,-178.0
-43.0,-276.0,-26.0,338.0,51.0,-382.0,-130.0,-1082.0,-164.0
-49.0,-272.0,-25.0,357.0,34.0,-385.0,-148.0,-1052.0,-158.0
-48.0,-266.0,-24.0,361.0,17.0,-385.0,-157.0,-1043.0,-152.0
-46.0,-261.0,-31.0,343.0,7.0,-385.0,-162.0,-1027.0,-170.0
-48.0,-260.0,-29.0,292.0,11.0,-383.0,-158.0,-1018.0,-159.0
-52.0,-262.0,-30.0,232.0,17.0,-377.0,-167.0,-1027.0,-147.0
-55.0,-267.0,-26.0,176.0,15.0,-366.0,-181.0,-1036.0,-143.0
-54.0,-267.0,-27.0,135.0,10.0,-347.0,-181.0,-1048.0,-144.0
-51.0,-266.0,-27.0,109.0,11.0,-321.0,-173.0,-1034.0,-149.0
-48.0,-265.0,-23.0,103.0,18.0,-290.0,-164.0,-1034.0,-143.0
-48.0,-266.0,-21.0,104.0,28.0,-266.0,-153.0,-1035.0,-141.0
-54.0,-263.0,-19.0,97.0,27.0,-257.0,-173.0,-1029.0,-122.0
-53.0,-264.0,-20.0,84.0,16.0,-246.0,-187.0,-1035.0,-114.0
-52.0,-265.0,-20.0,66.0,-3.0,-234.0,-166.0,-1035.0,-116.0
-45.0,-263.0,-19.0,49.0,-24.0,-230.0,-142.0,-1031.0,-117.0
-42.0,-263.0,-19.0,45.0,-42.0,-228.0,-138.0,-1024.0,-126.0
-36.0,-262.0,-21.0,52.0,-50.0,-225.0,-114.0,-1015.0,-123.0
-31.0,-258.0,-25.0,75.0,-62.0,-219.0,-89.0,-999.0,-127.0
-26.0,-254.0,-27.0,105.0,-72.0,-215.0,-64.0,-992.0,-151.0
-18.0,-255.0,-34.0,121.0,-77.0,-215.0,-42.0,-981.0,-180.0
-18.0,-249.0,-31.0,104.0,-79.0,-213.0,-39.0,-975.0,-172.0
-16.0,-252.0,-31.0,87.0,-85.0,-208.0,-27.0,-976.0,-168.0
-13.0,-250.0,-31.0,71.0,-84.0,-205.0,-21.0,-973.0,-173.0
-8.0,-251.0,-31.0,54.0,-73.0,-206.0,-8.0,-976.0,-163.0
-7.0,-254.0,-26.0,36.0,-62.0,-215.0,-2.0,-982.0,-147.0
-11.0,-255.0,-24.0,26.0,-59.0,-228.0,-19.0,-998.0,-134.0
-15.0,-255.0,-20.0,27.0,-61.0,-237.0,-25.0,-1002.0,-131.0
-15.0,-258.0,-21.0,39.0,-66.0,-241.0,-27.0,-1005.0,-127.0
-13.0,-257.0,-21.0,60.0,-67.0,-251.0,-22.0,-994.0,-137.0
-11.0,-259.0,-28.0,86.0,-68.0,-261.0,-12.0,-983.0,-142.0
-9.0,-253.0,-29.0,110.0,-67.0,-277.0,-14.0,-978.0,-149.0
-10.0,-249.0,-30.0,122.0,-73.0,-293.0,-11.0,-965.0,-166.0
-8.0,-248.0,-33.0,125.0,-80.0,-311.0,-6.0,-951.0,-165.0
-9.0,-240.0,-33.0,122.0,-87.0,-334.0,-10.0,-928.0,-170.0
-8.0,-233.0,-33.0,112.0,-94.0,-354.0,-16.0,-904.0,-179.0
-12.0,-228.0,-31.0,88.0,-98.0,-371.0,-18.0,-876.0,-164.0
-8.0,-222.0,-30.0,68.0,-111.0,-388.0,-12.0,-853.0,-171.0
-8.0,-215.0,-30.0,52.0,-119.0,-400.0,-8.0,-820.0,-157.0
-5.0,-203.0,-25.0,49.0,-123.0,-407.0,0.0,-791.0,-155.0
0.0,-195.0,-35.0,63.0,-128.0,-412.0,17.0,-752.0,-161.0
0.0,-187.0,-36.0,78.0,-129.0,-419.0,27.0,-719.0,-176.0
4.0,-185.0,-35.0,80.0,-130.0,-425.0,39.0,-695.0,-173.0
9.0,-178.0,-34.0,79.0,-134.0,-429.0,53.0,-679.0,-171.0
8.0,-173.0,-24.0,76.0,-135.0,-435.0,56.0,-661.0,-160.0
5.0,-171.0,-30.0,82.0,-135.0,-441.0,49.0,-657.0,-165.0
0.0,-173.0,-30.0,83.0,-131.0,-442.0,22.0,-658.0,-176.0
-3.0,-174.0,-32.0,69.0,-124.0,-437.0,9.0,-676.0,-168.0
-4.0,-178.0,-29.0,47.0,-120.0,-429.0,1.0,-677.0,-165.0
-3.0,-178.0,-30.0,24.0,-114.0,-421.0,2.0,-681.0,-165.0
-4.0,-180.0,-25.0,6.0,-109.0,-413.0,6.0,-681.0,-155.0
-4.0,-175.0,-26.0,-7.0,-103.0,-403.0,17.0,-690.0,-147.0
0.0,-180.0,-21.0,-22.0,-102.0,-398.0,24.0,-698.0,-137.0
-3.0,-178.0,-16.0,-34.0,-105.0,-400.0,20.0,-713.0,-121.0
-6.0,-186.0,-18.0,-40.0,-110.0,-404.0,9.0,-724.0,-105.0
-12.0,-187.0,-12.0,-33.0,-119.0,-406.0,-18.0,-721.0,-88.0
-14.0,-189.0,-14.0,-11.0,-140.0,-401.0,-20.0,-729.0,-84.0
-8.0,-191.0,-6.0,21.0,-172.0,-394.0,-9.0,-732.0,-71.0
-4.0,-192.0,-7.0,70.0,-205.0,-384.0,0.0,-742.0,-73.0
-5.0,-193.0,-11.0,113.0,-217.0,-371.0,4.0,-752.0,-84.0
-6.0,-191.0,-17.0,127.0,-215.0,-360.0,-3.0,-744.0,-98.0
-12.0,-196.0,-9.0,103.0,-210.0,-345.0,-17.0,-762.0,-75.0
-13.0,-192.0,-14.0,77.0,-206.0,-331.0,-29.0,-754.0,-86.0
-14.0,-188.0,-12.0,29.0,-192.0,-325.0,-30.0,-738.0,-83.0
-14.0,-188.0,-4.0,-33.0,-179.0,-324.0,-34.0,-736.0,-45.0
-8.0,-199.0,7.0,-60.0,-180.0,-319.0,-13.0,-760.0,-14.0
-2.0,-205.0,5.0,-36.0,-185.0,-319.0,10.0,-781.0,-18.0
0.0,-202.0,-1.0,-5.0,-174.0,-321.0,23.0,-787.0,-42.0
3.0,-208.0,-5.0,-1.0,-153.0,-316.0,34.0,-795.0,-50.0
8.0,-207.0,-1.0,-15.0,-135.0,-305.0,70.0,-805.0,-57.0
17.0,-213.0,1.0,-28.0,-122.0,-290.0,104.0,-827.0,-34.0
26.0,-220.0,-4.0,-20.0,-104.0,-273.0,128.0,-844.0,-37.0
38.0,-227.0,-17.0,-28.0,-69.0,-262.0,168.0,-893.0,-109.0
37.0,-236.0,-9.0,-115.0,-30.0,-269.0,176.0,-915.0,-64.0
37.0,-245.0,-7.0,-184.0,-18.0,-267.0,178.0,-928.0,-52.0
41.0,-250.0,-3.0,-226.0,-14.0,-267.0,177.0,-961.0,-43.0
38.0,-256.0,0.0,-245.0,-10.0,-273.0,184.0,-1002.0,-21.0
42.0,-267.0,8.0,-229.0,0.0,-269.0,195.0,-1023.0,-16.0
42.0,-271.0,9.0,-194.0,17.0,-266.0,195.0,-1033.0,-6.0
38.0,-268.0,12.0,-141.0,31.0,-265.0,188.0,-1031.0,8.0
40.0,-263.0,2.0,-87.0,40.0,-254.0,190.0,-1019.0,-47.0
35.0,-262.0,-3.0,-80.0,58.0,-251.0,170.0,-1018.0,-49.0
33.0,-263.0,-11.0,-98.0,70.0,-249.0,158.0,-1018.0,-70.0
31.0,-257.0,-9.0,-125.0,85.0,-246.0,152.0,-1011.0,-81.0
29.0,-260.0,-12.0,-148.0,104.0,-238.0,141.0,-1008.0,-84.0
29.0,-261.0,-14.0,-166.0,123.0,-225.0,141.0,-1007.0,-83.0
27.0,-260.0,-6.0,-180.0,142.0,-216.0,134.0,-1009.0,-66.0
23.0,-260.0,-5.0,-185.0,155.0,-213.0,128.0,-1009.0,-57.0
21.0,-262.0,-1.0,-190.0,171.0,-213.0,122.0,-1015.0,-50.0
21.0,-262.0,-1.0,-197.0,183.0,-208.0,112.0,-1015.0,-50.0
20.0,-259.0,-2.0,-207.0,189.0,-200.0,123.0,-1011.0,-42.0
22.0,-259.0,7.0,-216.0,190.0,-193.0,122.0,-1011.0,-16.0
16.0,-264.0,11.0,-200.0,189.0,-189.0,113.0,-1014.0,0.0
25.0,-263.0,-6.0,-160.0,199.0,-181.0,134.0,-1025.0,-63.0
21.0,-267.0,0.0,-172.0,232.0,-189.0,118.0,-1033.0,-33.0
23.0,-267.0,-6.0,-194.0,248.0,-190.0,120.0,-1030.0,-51.0
17.0,-263.0,-5.0,-218.0,264.0,-192.0,115.0,-1022.0,-50.0
16.0,-256.0,-3.0,-242.0,282.0,-195.0,107.0,-1003.0,-39.0
17.0,-254.0,-3.0,-251.0,292.0,-193.0,102.0,-977.0,-40.0
12.0,-248.0,-5.0,-254.0,293.0,-193.0,95.0,-956.0,-51.0
14.0,-245.0,-2.0,-260.0,290.0,-192.0,89.0,-949.0,-43.0
13.0,-246.0,2.0,-271.0,288.0,-188.0,80.0,-951.0,-28.0
9.0,-247.0,1.0,-282.0,284.0,-177.0,81.0,-957.0,-15.0
12.0,-246.0,5.0,-293.0,285.0,-167.0,78.0,-951.0,-2.0
14.0,-248.0,11.0,-295.0,286.0,-154.0,87.0,-954.0,8.0
16.0,-249.0,12.0,-288.0,291.0,-144.0,96.0,-957.0,16.0
18.0,-248.0,14.0,-272.0,296.0,-135.0,102.0,-953.0,22.0
23.0,-249.0,14.0,-255.0,297.0,-130.0,119.0,-955.0,21.0
21.0,-247.0,13.0,-236.0,293.0,-123.0,119.0,-939.0,17.0
22.0,-244.0,8.0,-223.0,287.0,-118.0,116.0,-929.0,11.0
20.0,-240.0,9.0,-208.0,279.0,-115.0,112.0,-918.0,10.0
19.0,-235.0,10.0,-199.0,267.0,-105.0,111.0,-902.0,3.0
15.0,-230.0,7.0,-192.0,249.0,-95.0,113.0,-889.0,-2.0
19.0,-229.0,4.0,-189.0,223.0,-87.0,105.0,-870.0,-6.0
14.0,-225.0,5.0,-184.0,196.0,-77.0,88.0,-861.0,-25.0
8.0,-221.0,-5.0,-179.0,171.0,-70.0,75.0,-851.0,-39.0
5.0,-215.0,-4.0,-174.0,148.0,-65.0,60.0,-836.0,-58.0
6.0,-215.0,0.0,-167.0,133.0,-61.0,52.0,-824.0,-56.0
5.0,-212.0,-4.0,-164.0,126.0,-58.0,40.0,-816.0,-55.0
1.0,-209.0,-6.0,-166.0,119.0,-54.0,39.0,-806.0,-48.0
1.0,-209.0,-1.0,-173.0,115.0,-47.0,37.0,-809.0,-37.0
-2.0,-213.0,2.0,-186.0,117.0,-37.0,33.0,-826.0,-21.0
3.0,-222.0,6.0,-203.0,115.0,-20.0,39.0,-850.0,-13.0
0.0,-232.0,11.0,-220.0,110.0,2.0,46.0,-895.0,10.0
3.0,-243.0,19.0,-232.0,98.0,21.0,57.0,-925.0,22.0
8.0,-253.0,17.0,-237.0,76.0,47.0,72.0,-969.0,33.0
10.0,-263.0,22.0,-234.0,58.0,75.0,77.0,-1014.0,41.0
9.0,-270.0,24.0,-220.0,43.0,99.0,88.0,-1046.0,50.0
12.0,-270.0,26.0,-205.0,25.0,123.0,96.0,-1054.0,57.0
19.0,-277.0,25.0,-179.0,10.0,143.0,106.0,-1061.0,63.0
20.0,-277.0,28.0,-144.0,3.0,158.0,114.0,-1059.0,64.0
18.0,-269.0,20.0,-97.0,4.0,163.0,125.0,-1051.0,49.0
20.0,-267.0,15.0,-54.0,7.0,161.0,124.0,-1027.0,29.0
22.0,-258.0,14.0,-23.0,13.0,152.0,128.0,-1008.0,9.0
24.0,-250.0,4.0,-2.0,26.0,137.0,137.0,-957.0,-24.0
27.0,-246.0,-3.0,11.0,52.0,123.0,140.0,-939.0,-45.0
33.0,-244.0,-4.0,15.0,91.0,107.0,141.0,-922.0,-64.0
32.0,-240.0,-11.0,5.0,133.0,88.0,159.0,-912.0,-75.0
37.0,-239.0,-12.0,-8.0,174.0,68.0,176.0,-911.0,-71.0
45.0,-241.0,-1.0,-20.0,217.0,44.0,191.0,-919.0,-62.0
46.0,-248.0,-3.0,-37.0,256.0,24.0,210.0,-947.0,-51.0
50.0,-254.0,0.0,-59.0,281.0,4.0,234.0,-979.0,-39.0
54.0,-266.0,-2.0,-93.0,300.0,-21.0,249.0,-1036.0,-36.0
54.0,-282.0,7.0,-141.0,308.0,-53.0,252.0,-1089.0,-17.0
52.0,-293.0,4.0,-189.0,311.0,-95.0,248.0,-1139.0,-11.0
55.0,-311.0,5.0,-238.0,311.0,-125.0,250.0,-1198.0,-3.0
53.0,-326.0,11.0,-272.0,316.0,-146.0,238.0,-1252.0,13.0
46.0,-336.0,12.0,-278.0,321.0,-163.0,224.0,-1280.0,16.0
33.0,-341.0,14.0,-256.0,320.0,-171.0,187.0,-1313.0,19.0
23.0,-346.0,10.0,-214.0,314.0,-176.0,129.0,-1326.0,6.0
5.0,-339.0,7.0,-165.0,303.0,-175.0,77.0,-1296.0,-10.0
-6.0,-325.0,8.0,-118.0,285.0,-171.0,27.0,-1271.0,-15.0
-19.0,-320.0,4.0,-71.0,257.0,-170.0,-23.0,-1232.0,-12.0
-29.0,-310.0,4.0,-26.0,220.0,-165.0,-61.0,-1203.0,-14.0
-27.0,-304.0,6.0,14.0,168.0,-160.0,-69.0,-1175.0,-16.0
-25.0,-305.0,0.0,39.0,112.0,-149.0,-64.0,-1170.0,-13.0
-20.0,-308.0,2.0,46.0,58.0,-134.0,-35.0,-1180.0,-19.0
-11.0,-309.0,1.0,45.0,18.0,-115.0,-8.0,-1186.0,-27.0
-9.0,-312.0,-7.0,49.0,-6.0,-91.0,10.0,-1208.0,-60.0
-1.0,-318.0,-15.0,62.0,-10.0,-67.0,25.0,-1236.0,-98.0
4.0,-327.0,-26.0,83.0,-4.0,-46.0,46.0,-1262.0,-136.0
14.0,-341.0,-28.0,107.0,9.0,-30.0,90.0,-1291.0,-163.0
19.0,-347.0,-38.0,126.0,23.0,-25.0,110.0,-1347.0,-186.0
19.0,-351.0,-37.0,133.0,36.0,-29.0,115.0,-1354.0,-186.0
22.0,-351.0,-35.0,134.0,52.0,-38.0,123.0,-1365.0,-186.0
32.0,-353.0,-33.0,134.0,79.0,-48.0,148.0,-1362.0,-184.0
34.0,-351.0,-32.0,136.0,116.0,-54.0,164.0,-1354.0,-187.0
35.0,-349.0,-37.0,131.0,149.0,-63.0,169.0,-1349.0,-195.0
35.0,-347.0,-43.0,113.0,159.0,-75.0,175.0,-1347.0,-211.0
40.0,-344.0,-50.0,78.0,143.0,-72.0,201.0,-1344.0,-234.0
45.0,-344.0,-52.0,31.0,125.0,-57.0,227.0,-1348.0,-252.0
49.0,-350.0,-55.0,-15.0,119.0,-30.0,237.0,-1355.0,-255.0
48.0,-350.0,-51.0,-46.0,125.0,1.0,226.0,-1350.0,-261.0
43.0,-348.0,-53.0,-61.0,134.0,36.0,216.0,-1343.0,-259.0
37.0,-344.0,-50.0,-64.0,144.0,65.0,193.0,-1317.0,-257.0
31.0,-335.0,-54.0,-56.0,155.0,80.0,171.0,-1296.0,-244.0
24.0,-327.0,-49.0,-44.0,168.0,85.0,147.0,-1269.0,-231.0
20.0,-321.0,-46.0,-26.0,178.0,88.0,121.0,-1231.0,-226.0
13.0,-311.0,-47.0,-5.0,183.0,92.0,100.0,-1202.0,-225.0
5.0,-305.0,-45.0,11.0,185.0,98.0,71.0,-1173.0,-238.0
0.0,-300.0,-49.0,23.0,182.0,107.0,41.0,-1161.0,-241.0
-2.0,-295.0,-51.0,33.0,171.0,118.0,24.0,-1139.0,-252.0
-1.0,-293.0,-53.0,47.0,153.0,133.0,32.0,-1131.0,-258.0
-1.0,-289.0,-59.0,59.0,129.0,153.0,29.0,-1117.0,-264.0
0.0,-286.0,-58.0,65.0,107.0,173.0,38.0,-1107.0,-264.0
2.0,-285.0,-54.0,73.0,92.0,189.0,42.0,-1097.0,-270.0
1.0,-278.0,-56.0,76.0,82.0,201.0,51.0,-1089.0,-272.0
0.0,-278.0,-52.0,72.0,74.0,210.0,46.0,-1092.0,-264.0
0.0,-279.0,-51.0,69.0,66.0,219.0,38.0,-1098.0,-260.0
-1.0,-284.0,-49.0,67.0,55.0,230.0,30.0,-1098.0,-243.0
-3.0,-287.0,-50.0,68.0,36.0,243.0,30.0,-1116.0,-234.0
-4.0,-291.0,-43.0,73.0,12.0,258.0,24.0,-1118.0,-220.0
-6.0,-291.0,-42.0,87.0,-14.0,273.0,11.0,-1120.0,-214.0
-12.0,-290.0,-40.0,109.0,-40.0,294.0,-11.0,-1114.0,-209.0
-17.0,-288.0,-41.0,139.0,-64.0,313.0,-31.0,-1111.0,-207.0
-21.0,-285.0,-41.0,175.0,-79.0,334.0,-51.0,-1110.0,-204.0
-26.0,-281.0,-41.0,210.0,-87.0,352.0,-69.0,-1082.0,-208.0
-26.0,-278.0,-47.0,237.0,-94.0,370.0,-74.0,-1076.0,-219.0
-30.0,-271.0,-45.0,252.0,-112.0,387.0,-78.0,-1052.0,-220.0
-28.0,-263.0,-45.0,264.0,-139.0,408.0,-71.0,-1022.0,-242.0
-25.0,-254.0,-51.0,263.0,-163.0,426.0,-64.0,-987.0,-235.0
-20.0,-251.0,-49.0,252.0,-182.0,440.0,-54.0,-963.0,-231.0
-19.0,-249.0,-42.0,242.0,-191.0,445.0,-42.0,-940.0,-219.0
-18.0,-244.0,-35.0,237.0,-187.0,441.0,-34.0,-925.0,-204.0
-18.0,-237.0,-35.0,231.0,-176.0,436.0,-45.0,-911.0,-180.0
-18.0,-235.0,-30.0,223.0,-163.0,437.0,-43.0,-896.0,-155.0
-20.0,-231.0,-24.0,212.0,-160.0,439.0,-38.0,-889.0,-134.0
-15.0,-231.0,-16.0,208.0,-160.0,442.0,-37.0,-888.0,-109.0
-14.0,-227.0,-17.0,215.0,-161.0,446.0,-20.0,-886.0,-104.0
-7.0,-227.0,-16.0,233.0,-158.0,446.0,-7.0,-879.0,-91.0
-5.0,-226.0,-15.0,251.0,-151.0,446.0,7.0,-873.0,-91.0
-3.0,-226.0,-16.0,263.0,-138.0,444.0,4.0,-865.0,-95.0
-4.0,-224.0,-13.0,265.0,-128.0,439.0,10.0,-864.0,-103.0
-1.0,-224.0,-16.0,256.0,-120.0,437.0,7.0,-865.0,-102.0
0.0,-220.0,-19.0,239.0,-106.0,439.0,24.0,-863.0,-103.0
0.0,-224.0,-17.0,210.0,-89.0,447.0,32.0,-865.0,-104.0
2.0,-224.0,-14.0,180.0,-68.0,457.0,36.0,-868.0,-88.0
5.0,-219.0,-17.0,164.0,-50.0,470.0,54.0,-860.0,-77.0
6.0,-222.0,-12.0,167.0,-23.0,484.0,51.0,-847.0,-70.0
7.0,-223.0,-11.0,192.0,11.0,500.0,47.0,-843.0,-67.0
5.0,-219.0,-14.0,217.0,57.0,508.0,37.0,-841.0,-82.0
4.0,-215.0,-17.0,238.0,101.0,507.0,46.0,-823.0,-100.0
3.0,-208.0,-18.0,261.0,139.0,505.0,41.0,-804.0,-120.0
5.0,-202.0,-28.0,278.0,165.0,506.0,50.0,-786.0,-157.0
7.0,-195.0,-39.0,272.0,185.0,512.0,54.0,-772.0,-189.0
6.0,-193.0,-40.0,237.0,195.0,515.0,51.0,-768.0,-198.0
-4.0,-198.0,-26.0,193.0,204.0,514.0,13.0,-767.0,-170.0
-11.0,-201.0,-28.0,188.0,202.0,516.0,-11.0,-780.0,-153.0
-11.0,-202.0,-22.0,192.0,196.0,511.0,-30.0,-775.0,-137.0
-15.0,-201.0,-18.0,204.0,196.0,504.0,-40.0,-770.0,-105.0
-19.0,-198.0,-18.0,229.0,203.0,500.0,-42.0,-767.0,-104.0
-18.0,-198.0,-13.0,249.0,219.0,497.0,-44.0,-762.0,-100.0
-19.0,-193.0,-16.0,255.0,237.0,488.0,-48.0,-755.0,-114.0
-17.0,-196.0,-18.0,248.0,253.0,474.0,-53.0,-759.0,-121.0
-19.0,-196.0,-19.0,227.0,266.0,456.0,-56.0,-753.0,-117.0
-23.0,-199.0,-18.0,210.0,272.0,440.0,-71.0,-750.0,-115.0
-25.0,-196.0,-22.0,203.0,272.0,424.0,-71.0,-758.0,-113.0
-27.0,-195.0,-20.0,202.0,268.0,408.0,-81.0,-763.0,-109.0
-24.0,-193.0,-17.0,203.0,263.0,396.0,-78.0,-751.0,-100.0
-28.0,-198.0,-17.0,204.0,261.0,384.0,-84.0,-750.0,-100.0
-31.0,-197.0,-15.0,204.0,257.0,373.0,-91.0,-750.0,-88.0
-35.0,-194.0,-12.0,199.0,249.0,359.0,-99.0,-755.0,-97.0
-35.0,-197.0,-15.0,191.0,231.0,346.0,-100.0,-762.0,-94.0
-40.0,-201.0,-7.0,171.0,205.0,330.0,-120.0,-786.0,-73.0
-44.0,-201.0,-5.0,163.0,170.0,318.0,-139.0,-786.0,-60.0
-46.0,-200.0,-6.0,164.0,147.0,317.0,-151.0,-783.0,-51.0
-44.0,-200.0,-1.0,164.0,138.0,320.0,-149.0,-782.0,-42.0
-42.0,-198.0,-4.0,166.0,135.0,323.0,-144.0,-785.0,-36.0
-38.0,-202.0,-2.0,169.0,130.0,329.0,-137.0,-790.0,-49.0
-38.0,-205.0,-5.0,161.0,122.0,327.0,-114.0,-802.0,-60.0
-36.0,-211.0,-8.0,142.0,115.0,317.0,-112.0,-817.0,-67.0
-40.0,-215.0,-6.0,113.0,111.0,312.0,-126.0,-833.0,-69.0
-40.0,-219.0,-10.0,80.0,105.0,310.0,-127.0,-855.0,-80.0
-36.0,-227.0,-13.0,42.0,97.0,312.0,-122.0,-869.0,-69.0
-38.0,-227.0,-7.0,22.0,82.0,313.0,-119.0,-880.0,-58.0
-32.0,-230.0,-9.0,29.0,77.0,319.0,-106.0,-891.0,-63.0
-31.0,-231.0,-10.0,34.0,83.0,315.0,-97.0,-892.0,-81.0
-30.0,-229.0,-9.0,19.0,89.0,306.0,-90.0,-895.0,-78.0
-22.0,-233.0,-14.0,-23.0,96.0,295.0,-70.0,-899.0,-98.0
-26.0,-231.0,-14.0,-90.0,115.0,287.0,-71.0,-895.0,-82.0
-35.0,-236.0,0.0,-150.0,131.0,284.0,-100.0,-914.0,-35.0
-42.0,-246.0,13.0,-174.0,110.0,284.0,-124.0,-942.0,19.0
-32.0,-237.0,-3.0,-169.0,70.0,280.0,-107.0,-923.0,-55.0
-36.0,-235.0,6.0,-210.0,58.0,258.0,-108.0,-918.0,-16.0
-42.0,-241.0,10.0,-231.0,66.0,260.0,-137.0,-923.0,12.0
-43.0,-250.0,11.0,-223.0,82.0,281.0,-138.0,-957.0,6.0
-43.0,-252.0,8.0,-208.0,90.0,286.0,-141.0,-974.0,1.0
-42.0,-255.0,11.0,-186.0,91.0,280.0,-142.0,-984.0,-2.0
-46.0,-260.0,8.0,-157.0,83.0,270.0,-144.0,-996.0,1.0
-46.0,-253.0,10.0,-119.0,74.0,266.0,-141.0,-979.0,-8.0
-47.0,-252.0,8.0,-84.0,67.0,264.0,-149.0,-976.0,0.0
-50.0,-248.0,12.0,-53.0,58.0,266.0,-149.0,-971.0,8.0
-49.0,-249.0,14.0,-29.0,44.0,261.0,-154.0,-967.0,17.0
-47.0,-247.0,15.0,-16.0,29.0,253.0,-159.0,-960.0,27.0
-50.0,-246.0,19.0,-16.0,13.0,244.0,-162.0,-953.0,31.0
-51.0,-245.0,17.0,-22.0,-3.0,239.0,-161.0,-953.0,39.0
-49.0,-247.0,21.0,-28.0,-16.0,234.0,-161.0,-951.0,42.0
-49.0,-246.0,17.0,-33.0,-24.0,228.0,-170.0,-946.0,36.0
-51.0,-248.0,12.0,-43.0,-28.0,223.0,-173.0,-950.0,26.0
-55.0,-246.0,12.0,-58.0,-33.0,220.0,-181.0,-953.0,17.0
-53.0,-242.0,8.0,-75.0,-38.0,218.0,-182.0,-943.0,12.0
-56.0,-242.0,9.0,-91.0,-44.0,218.0,-188.0,-931.0,-1.0
-59.0,-243.0,6.0,-106.0,-50.0,215.0,-194.0,-930.0,-10.0
-58.0,-240.0,6.0,-124.0,-57.0,214.0,-200.0,-927.0,-16.0
-60.0,-238.0,3.0,-142.0,-62.0,214.0,-202.0,-922.0,-26.0
-57.0,-238.0,3.0,-162.0,-65.0,211.0,-193.0,-917.0,-22.0
-54.0,-237.0,-3.0,-171.0,-62.0,206.0,-187.0,-912.0,-38.0
-56.0,-235.0,-1.0,-174.0,-56.0,204.0,-182.0,-909.0,-43.0
-54.0,-235.0,-4.0,-172.0,-51.0,203.0,-186.0,-910.0,-45.0
-50.0,-233.0,-5.0,-170.0,-48.0,199.0,-170.0,-909.0,-43.0
-46.0,-236.0,8.0,-169.0,-50.0,193.0,-176.0,-905.0,-24.0
-51.0,-234.0,3.0,-167.0,-58.0,190.0,-165.0,-903.0,-18.0
-50.0,-234.0,4.0,-169.0,-64.0,185.0,-166.0,-909.0,-8.0
-51.0,-236.0,7.0,-171.0,-71.0,179.0,-166.0,-915.0,1.0
-48.0,-234.0,7.0,-172.0,-78.0,171.0,-158.0,-915.0,-1.0
-50.0,-236.0,11.0,-180.0,-77.0,165.0,-160.0,-916.0,2.0
-47.0,-238.0,10.0,-187.0,-73.0,161.0,-154.0,-918.0,15.0
-50.0,-240.0,13.0,-186.0,-74.0,152.0,-157.0,-926.0,25.0
-47.0,-246.0,15.0,-177.0,-88.0,142.0,-155.0,-932.0,29.0
-50.0,-247.0,22.0,-158.0,-110.0,133.0,-159.0,-935.0,28.0
-47.0,-246.0,13.0,-129.0,-127.0,121.0,-155.0,-932.0,22.0
-45.0,-241.0,9.0,-98.0,-137.0,114.0,-148.0,-934.0,6.0
-45.0,-237.0,6.0,-73.0,-139.0,103.0,-148.0,-922.0,0.0
-44.0,-237.0,2.0,-53.0,-133.0,92.0,-149.0,-912.0,-20.0
-44.0,-232.0,-3.0,-36.0,-122.0,78.0,-144.0,-895.0,-31.0
-40.0,-230.0,-2.0,-20.0,-112.0,64.0,-138.0,-882.0,-42.0
-38.0,-229.0,0.0,-1.0,-100.0,48.0,-120.0,-880.0,-38.0
-36.0,-228.0,2.0,21.0,-93.0,28.0,-111.0,-883.0,-32.0
-33.0,-231.0,1.0,41.0,-85.0,1.0,-95.0,-893.0,-22.0
-32.0,-231.0,5.0,61.0,-73.0,-32.0,-103.0,-896.0,-13.0
-33.0,-235.0,12.0,75.0,-56.0,-64.0,-107.0,-904.0,-2.0
-36.0,-236.0,12.0,82.0,-35.0,-98.0,-120.0,-904.0,10.0
-39.0,-234.0,18.0,88.0,-11.0,-124.0,-130.0,-918.0,34.0
-41.0,-240.0,21.0,88.0,17.0,-145.0,-148.0,-920.0,58.0
-47.0,-240.0,31.0,86.0,42.0,-160.0,-153.0,-928.0,79.0
-49.0,-243.0,37.0,79.0,58.0,-173.0,-165.0,-937.0,97.0
-48.0,-246.0,33.0,74.0,69.0,-184.0,-161.0,-942.0,95.0
-43.0,-246.0,32.0,73.0,83.0,-196.0,-156.0,-949.0,88.0
-42.0,-247.0,26.0,78.0,107.0,-206.0,-144.0,-945.0,67.0
-40.0,-243.0,24.0,81.0,136.0,-215.0,-127.0,-940.0,54.0
-36.0,-241.0,18.0,78.0,165.0,-222.0,-112.0,-927.0,41.0
-33.0,-242.0,13.0,66.0,193.0,-226.0,-105.0,-922.0,34.0
-31.0,-234.0,15.0,45.0,221.0,-228.0,-95.0,-913.0,23.0
-29.0,-233.0,15.0,18.0,242.0,-227.0,-89.0,-908.0,19.0
-29.0,-235.0,11.0,-15.0,256.0,-224.0,-81.0,-916.0,22.0
-33.0,-241.0,17.0,-51.0,263.0,-221.0,-94.0,-923.0,23.0
-38.0,-246.0,13.0,-87.0,264.0,-217.0,-109.0,-951.0,31.0
-45.0,-250.0,11.0,-124.0,254.0,-209.0,-133.0,-975.0,16.0
-50.0,-259.0,6.0,-163.0,239.0,-197.0,-154.0,-1008.0,3.0
-56.0,-266.0,10.0,-197.0,225.0,-185.0,-179.0,-1043.0,-8.0
-60.0,-277.0,4.0,-224.0,216.0,-170.0,-199.0,-1066.0,-12.0
-62.0,-281.0,6.0,-233.0,214.0,-151.0,-214.0,-1082.0,-7.0
-65.0,-283.0,9.0,-225.0,218.0,-128.0,-217.0,-1099.0,10.0
-65.0,-282.0,14.0,-202.0,228.0,-105.0,-222.0,-1103.0,23.0
-66.0,-280.0,19.0,-169.0,238.0,-83.0,-222.0,-1098.0,38.0
-64.0,-281.0,25.0,-141.0,251.0,-65.0,-218.0,-1093.0,48.0
-61.0,-277.0,25.0,-122.0,259.0,-47.0,-212.0,-1083.0,60.0
-60.0,-271.0,27.0,-119.0,266.0,-28.0,-204.0,-1065.0,62.0
-57.0,-266.0,25.0,-125.0,266.0,-8.0,-189.0,-1054.0,66.0
-51.0,-264.0,24.0,-136.0,262.0,8.0,-171.0,-1036.0,63.0
-50.0,-261.0,25.0,-145.0,256.0,23.0,-163.0,-1026.0,60.0
-51.0,-257.0,23.0,-152.0,253.0,38.0,-167.0,-1019.0,49.0
-50.0,-260.0,21.0,-156.0,250.0,52.0,-162.0,-1018.0,43.0
-51.0,-263.0,21.0,-158.0,253.0,63.0,-164.0,-1020.0,36.0
-51.0,-264.0,15.0,-160.0,258.0,75.0,-163.0,-1034.0,29.0
-55.0,-267.0,16.0,-162.0,270.0,81.0,-176.0,-1038.0,29.0
-57.0,-269.0,19.0,-162.0,283.0,88.0,-195.0,-1052.0,33.0
-60.0,-275.0,18.0,-159.0,295.0,93.0,-203.0,-1069.0,35.0
-62.0,-276.0,17.0,-156.0,299.0,98.0,-202.0,-1086.0,29.0
-61.0,-278.0,17.0,-151.0,297.0,103.0,-200.0,-1096.0,34.0
-61.0,-284.0,14.0,-147.0,293.0,108.0,-203.0,-1103.0,22.0
-65.0,-286.0,15.0,-142.0,288.0,114.0,-206.0,-1113.0,15.0
-67.0,-291.0,11.0,-138.0,283.0,119.0,-229.0,-1132.0,9.0
-71.0,-295.0,10.0,-138.0,273.0,125.0,-241.0,-1141.0,-3.0
-70.0,-295.0,3.0,-144.0,256.0,134.0,-240.0,-1157.0,-18.0
-69.0,-305.0,6.0,-154.0,239.0,143.0,-243.0,-1174.0,-28.0
-67.0,-307.0,4.0,-158.0,229.0,154.0,-237.0,-1187.0,-26.0
-67.0,-311.0,1.0,-151.0,225.0,164.0,-230.0,-1202.0,-35.0
-65.0,-312.0,-1.0,-144.0,224.0,173.0,-229.0,-1208.0,-43.0
-64.0,-312.0,-5.0,-134.0,223.0,187.0,-224.0,-1215.0,-49.0
-60.0,-314.0,-6.0,-122.0,213.0,197.0,-209.0,-1216.0,-61.0
-61.0,-314.0,-9.0,-111.0,202.0,205.0,-200.0,-1213.0,-75.0
-64.0,-312.0,-16.0,-96.0,190.0,207.0,-206.0,-1210.0,-96.0
-64.0,-312.0,-20.0,-84.0,179.0,209.0,-222.0,-1215.0,-126.0
-73.0,-311.0,-29.0,-77.0,160.0,208.0,-237.0,-1221.0,-164.0
-75.0,-316.0,-40.0,-80.0,133.0,207.0,-253.0,-1228.0,-202.0
-73.0,-323.0,-46.0,-92.0,108.0,221.0,-258.0,-1253.0,-246.0
-73.0,-322.0,-55.0,-103.0,107.0,204.0,-257.0,-1253.0,-268.0
-63.0,-322.0,-59.0,-106.0,91.0,183.0,-222.0,-1242.0,-272.0
-51.0,-314.0,-54.0,-97.0,83.0,170.0,-184.0,-1219.0,-270.0
-44.0,-309.0,-54.0,-77.0,94.0,164.0,-145.0,-1188.0,-259.0
-38.0,-298.0,-46.0,-50.0,111.0,162.0,-121.0,-1153.0,-231.0
-36.0,-286.0,-44.0,-28.0,132.0,160.0,-114.0,-1109.0,-220.0
-37.0,-271.0,-43.0,-24.0,147.0,150.0,-106.0,-1056.0,-212.0
-38.0,-261.0,-41.0,-46.0,142.0,133.0,-111.0,-1018.0,-214.0
-33.0,-252.0,-43.0,-95.0,131.0,113.0,-106.0,-994.0,-207.0
-31.0,-251.0,-37.0,-153.0,125.0,86.0,-94.0,-973.0,-204.0
-35.0,-250.0,-44.0,-209.0,120.0,55.0,-80.0,-968.0,-198.0
-28.0,-252.0,-38.0,-254.0,115.0,22.0,-93.0,-975.0,-197.0
-36.0,-260.0,-38.0,-281.0,120.0,-15.0,-114.0,-1002.0,-188.0
-44.0,-263.0,-33.0,-285.0,130.0,-53.0,-149.0,-1029.0,-178.0
-52.0,-269.0,-29.0,-277.0,139.0,-99.0,-170.0,-1052.0,-161.0
-50.0,-279.0,-24.0,-262.0,142.0,-150.0,-182.0,-1072.0,-139.0
-55.0,-283.0,-19.0,-240.0,140.0,-199.0,-173.0,-1091.0,-108.0
-54.0,-285.0,-16.0,-208.0,136.0,-242.0,-182.0,-1104.0,-100.0
-52.0,-286.0,-12.0,-167.0,127.0,-277.0,-172.0,-1109.0,-93.0
-48.0,-291.0,-16.0,-121.0,119.0,-297.0,-164.0,-1115.0,-102.0
-51.0,-289.0,-19.0,-73.0,113.0,-304.0,-174.0,-1115.0,-122.0
-56.0,-288.0,-24.0,-25.0,109.0,-303.0,-187.0,-1115.0,-144.0
-53.0,-289.0,-30.0,22.0,102.0,-298.0,-176.0,-1116.0,-156.0
-52.0,-286.0,-34.0,62.0,88.0,-293.0,-168.0,-1107.0,-181.0
-50.0,-286.0,-39.0,93.0,72.0,-286.0,-165.0,-1106.0,-197.0
-49.0,-284.0,-42.0,105.0,58.0,-281.0,-160.0,-1108.0,-205.0
-46.0,-286.0,-45.0,112.0,43.0,-278.0,-149.0,-1107.0,-210.0
-45.0,-284.0,-45.0,117.0,33.0,-279.0,-146.0,-1110.0,-223.0
-41.0,-287.0,-46.0,117.0,30.0,-282.0,-135.0,-1108.0,-225.0
-44.0,-287.0,-47.0,114.0,31.0,-289.0,-137.0,-1114.0,-225.0
-42.0,-290.0,-45.0,107.0,35.0,-297.0,-133.0,-1110.0,-230.0
-40.0,-285.0,-43.0,100.0,45.0,-306.0,-126.0,-1119.0,-229.0
-38.0,-291.0,-44.0,93.0,57.0,-318.0,-126.0,-1122.0,-224.0
-38.0,-293.0,-45.0,90.0,77.0,-333.0,-114.0,-1127.0,-218.0
-31.0,-291.0,-39.0,91.0,100.0,-345.0,-101.0,-1130.0,-210.0
-29.0,-291.0,-39.0,94.0,125.0,-358.0,-83.0,-1130.0,-198.0
-26.0,-290.0,-38.0,98.0,156.0,-368.0,-72.0,-1120.0,-207.0
-22.0,-289.0,-43.0,99.0,191.0,-380.0,-66.0,-1114.0,-209.0
-21.0,-287.0,-47.0,94.0,220.0,-387.0,-66.0,-1110.0,-218.0
-28.0,-285.0,-47.0,91.0,252.0,-391.0,-75.0,-1098.0,-220.0
-25.0,-285.0,-39.0,94.0,263.0,-394.0,-60.0,-1088.0,-202.0
-25.0,-279.0,-35.0,102.0,247.0,-397.0,-48.0,-1074.0,-180.0
-22.0,-277.0,-29.0,107.0,223.0,-405.0,-58.0,-1075.0,-163.0
-24.0,-277.0,-33.0,104.0,204.0,-416.0,-61.0,-1069.0,-156.0
-23.0,-276.0,-33.0,92.0,194.0,-429.0,-73.0,-1075.0,-173.0
-28.0,-276.0,-28.0,67.0,195.0,-442.0,-74.0,-1068.0,-156.0
-24.0,-271.0,-24.0,44.0,205.0,-450.0,-70.0,-1061.0,-151.0
-20.0,-268.0,-26.0,24.0,223.0,-450.0,-66.0,-1048.0,-147.0
-25.0,-263.0,-27.0,1.0,244.0,-454.0,-72.0,-1028.0,-159.0
-30.0,-263.0,-21.0,-21.0,266.0,-453.0,-96.0,-1020.0,-131.0
-34.0,-263.0,-19.0,-22.0,275.0,-435.0,-110.0,-1016.0,-132.0
-40.0,-261.0,-20.0,-1.0,266.0,-425.0,-124.0,-1015.0,-133.0
-45.0,-263.0,-28.0,30.0,246.0,-419.0,-144.0,-1013.0,-144.0
-45.0,-258.0,-29.0,54.0,227.0,-409.0,-144.0,-1005.0,-157.0
-42.0,-256.0,-30.0,69.0,209.0,-402.0,-138.0,-1009.0,-169.0
-42.0,-254.0,-37.0,74.0,199.0,-396.0,-131.0,-997.0,-175.0
-42.0,-256.0,-34.0,71.0,193.0,-391.0,-122.0,-1000.0,-175.0
-36.0,-253.0,-32.0,63.0,194.0,-384.0,-114.0,-984.0,-169.0
-35.0,-249.0,-33.0,52.0,193.0,-374.0,-104.0,-981.0,-164.0
-33.0,-251.0,-31.0,30.0,190.0,-369.0,-97.0,-972.0,-159.0
-32.0,-251.0,-27.0,7.0,188.0,-365.0,-95.0,-974.0,-145.0
-31.0,-252.0,-28.0,-12.0,181.0,-370.0,-90.0,-966.0,-147.0
-27.0,-254.0,-26.0,-36.0,172.0,-372.0,-86.0,-965.0,-140.0
-28.0,-247.0,-22.0,-51.0,160.0,-375.0,-75.0,-962.0,-131.0
-24.0,-247.0,-22.0,-59.0,153.0,-379.0,-70.0,-957.0,-134.0
-21.0,-247.0,-23.0,-53.0,143.0,-385.0,-50.0,-946.0,-135.0
-16.0,-243.0,-22.0,-35.0,130.0,-390.0,-39.0,-930.0,-137.0
-17.0,-241.0,-22.0,-12.0,122.0,-394.0,-37.0,-916.0,-136.0
-20.0,-232.0,-24.0,14.0,117.0,-394.0,-39.0,-895.0,-143.0
-17.0,-225.0,-22.0,25.0,117.0,-393.0,-49.0,-873.0,-133.0
-16.0,-222.0,-20.0,34.0,121.0,-384.0,-33.0,-847.0,-123.0
-15.0,-213.0,-16.0,46.0,128.0,-378.0,-29.0,-818.0,-106.0
-13.0,-210.0,-16.0,64.0,138.0,-375.0,-21.0,-808.0,-90.0
-7.0,-208.0,-12.0,84.0,146.0,-380.0,-9.0,-798.0,-85.0
-7.0,-207.0,-14.0,96.0,150.0,-389.0,-1.0,-799.0,-85.0
-8.0,-211.0,-10.0,93.0,148.0,-406.0,-12.0,-813.0,-82.0
-9.0,-213.0,-9.0,80.0,143.0,-427.0,-10.0,-818.0,-76.0
-8.0,-215.0,-15.0,70.0,137.0,-446.0,-4.0,-820.0,-83.0
0.0,-213.0,-17.0,63.0,138.0,-456.0,20.0,-823.0,-94.0
0.0,-212.0,-16.0,72.0,147.0,-462.0,25.0,-820.0,-91.0
1.0,-211.0,-20.0,102.0,158.0,-467.0,31.0,-813.0,-113.0
1.0,-204.0,-22.0,118.0,175.0,-470.0,28.0,-791.0,-138.0
0.0,-199.0,-19.0,105.0,186.0,-468.0,18.0,-765.0,-122.0
1.0,-190.0,-20.0,83.0,185.0,-464.0,27.0,-740.0,-130.0
1.0,-188.0,-18.0,50.0,181.0,-462.0,32.0,-725.0,-118.0
7.0,-185.0,-15.0,18.0,173.0,-457.0,41.0,-719.0,-103.0
8.0,-185.0,-17.0,-2.0,171.0,-455.0,67.0,-709.0,-101.0
13.0,-184.0,-9.0,-18.0,177.0,-452.0,90.0,-714.0,-71.0
13.0,-187.0,-4.0,-14.0,183.0,-460.0,94.0,-723.0,-51.0
21.0,-191.0,-10.0,-2.0,192.0,-471.0,106.0,-722.0,-68.0
23.0,-183.0,-12.0,-23.0,220.0,-477.0,129.0,-727.0,-85.0
14.0,-194.0,-3.0,-68.0,253.0,-475.0,83.0,-749.0,-37.0
12.0,-197.0,-6.0,-94.0,274.0,-468.0,66.0,-754.0,-58.0
7.0,-195.0,-8.0,-117.0,290.0,-454.0,61.0,-758.0,-60.0
6.0,-204.0,-3.0,-130.0,289.0,-432.0,65.0,-791.0,-46.0
9.0,-212.0,-7.0,-123.0,280.0,-412.0,66.0,-817.0,-59.0
4.0,-213.0,-5.0,-112.0,275.0,-402.0,67.0,-820.0,-58.0
12.0,-214.0,-6.0,-103.0,275.0,-374.0,77.0,-822.0,-61.0
12.0,-215.0,-3.0,-95.0,279.0,-350.0,77.0,-835.0,-46.0
10.0,-218.0,3.0,-76.0,281.0,-329.0,85.0,-842.0,-24.0
14.0,-224.0,-1.0,-44.0,277.0,-312.0,82.0,-854.0,-40.0
9.0,-225.0,2.0,-24.0,265.0,-306.0,75.0,-863.0,-35.0
7.0,-228.0,2.0,-10.0,249.0,-305.0,63.0,-870.0,-21.0
6.0,-228.0,-11.0,-1.0,233.0,-302.0,53.0,-888.0,-62.0
6.0,-235.0,-4.0,-28.0,234.0,-298.0,59.0,-915.0,-64.0
3.0,-240.0,-2.0,-73.0,236.0,-305.0,42.0,-921.0,-44.0
3.0,-242.0,1.0,-98.0,235.0,-306.0,45.0,-917.0,-47.0
2.0,-237.0,-2.0,-101.0,244.0,-304.0,39.0,-916.0,-67.0
1.0,-240.0,-9.0,-101.0,260.0,-295.0,42.0,-917.0,-72.0
1.0,-240.0,-9.0,-103.0,274.0,-286.0,32.0,-921.0,-69.0
0.0,-241.0,-7.0,-109.0,280.0,-276.0,31.0,-924.0,-70.0
2.0,-241.0,-9.0,-117.0,281.0,-266.0,35.0,-917.0,-67.0
7.0,-231.0,-6.0,-137.0,278.0,-259.0,61.0,-908.0,-61.0
13.0,-235.0,-1.0,-161.0,271.0,-254.0,82.0,-899.0,-40.0
15.0,-235.0,1.0,-180.0,263.0,-243.0,90.0,-895.0,-36.0
14.0,-236.0,-4.0,-191.0,263.0,-234.0,94.0,-905.0,-48.0
15.0,-237.0,-2.0,-203.0,266.0,-230.0,93.0,-911.0,-41.0
15.0,-238.0,-2.0,-203.0,263.0,-228.0,92.0,-914.0,-47.0
18.0,-239.0,-2.0,-193.0,258.0,-229.0,90.0,-916.0,-52.0
15.0,-231.0,-7.0,-191.0,259.0,-229.0,96.0,-906.0,-60.0
16.0,-231.0,-8.0,-202.0,266.0,-218.0,102.0,-904.0,-64.0
17.0,-233.0,-10.0,-229.0,279.0,-210.0,103.0,-903.0,-68.0
17.0,-232.0,-7.0,-268.0,288.0,-205.0,97.0,-904.0,-62.0
18.0,-235.0,-12.0,-307.0,290.0,-200.0,100.0,-899.0,-67.0
18.0,-236.0,-6.0,-343.0,285.0,-194.0,101.0,-912.0,-53.0
19.0,-241.0,-3.0,-369.0,274.0,-197.0,107.0,-930.0,-43.0
18.0,-245.0,4.0,-383.0,268.0,-206.0,107.0,-934.0,-38.0
18.0,-252.0,2.0,-382.0,268.0,-195.0,101.0,-947.0,-25.0
15.0,-252.0,3.0,-364.0,268.0,-180.0,95.0,-956.0,-10.0
13.0,-250.0,5.0,-329.0,261.0,-163.0,93.0,-966.0,-5.0
16.0,-251.0,5.0,-281.0,243.0,-147.0,97.0,-964.0,-14.0
11.0,-249.0,-2.0,-232.0,228.0,-133.0,91.0,-960.0,-21.0
12.0,-246.0,1.0,-192.0,209.0,-126.0,95.0,-943.0,-40.0
16.0,-244.0,-7.0,-172.0,192.0,-104.0,95.0,-926.0,-62.0
16.0,-237.0,-9.0,-171.0,187.0,-83.0,101.0,-912.0,-69.0
18.0,-231.0,-11.0,-182.0,189.0,-66.0,104.0,-901.0,-81.0
18.0,-234.0,-12.0,-194.0,196.0,-52.0,102.0,-891.0,-78.0
14.0,-229.0,-10.0,-204.0,201.0,-41.0,94.0,-893.0,-72.0
15.0,-235.0,-3.0,-207.0,201.0,-34.0,96.0,-894.0,-60.0
13.0,-236.0,-5.0,-204.0,198.0,-28.0,81.0,-906.0,-51.0
12.0,-239.0,2.0,-199.0,192.0,-23.0,72.0,-914.0,-32.0
10.0,-239.0,5.0,-196.0,184.0,-18.0,76.0,-923.0,-22.0
8.0,-243.0,7.0,-194.0,175.0,-15.0,76.0,-929.0,-8.0
9.0,-248.0,9.0,-186.0,162.0,-13.0,65.0,-943.0,-1.0
3.0,-250.0,9.0,-171.0,143.0,-10.0,55.0,-954.0,6.0
1.0,-252.0,11.0,-146.0,124.0,-1.0,43.0,-966.0,13.0
1.0,-252.0,14.0,-114.0,104.0,8.0,40.0,-970.0,18.0
5.0,-254.0,11.0,-85.0,81.0,18.0,49.0,-977.0,24.0
6.0,-258.0,19.0,-62.0,55.0,32.0,49.0,-982.0,34.0
1.0,-255.0,16.0,-44.0,28.0,45.0,46.0,-982.0,33.0
2.0,-255.0,13.0,-27.0,-4.0,60.0,50.0,-1002.0,23.0
7.0,-257.0,17.0,-14.0,-40.0,74.0,68.0,-1004.0,18.0
8.0,-256.0,15.0,-2.0,-76.0,83.0,77.0,-993.0,13.0
13.0,-258.0,13.0,14.0,-98.0,87.0,86.0,-991.0,13.0
15.0,-255.0,10.0,33.0,-113.0,90.0,88.0,-987.0,-5.0
14.0,-257.0,4.0,53.0,-119.0,93.0,89.0,-992.0,-26.0
10.0,-253.0,2.0,64.0,-115.0,95.0,84.0,-993.0,-32.0
13.0,-260.0,2.0,71.0,-109.0,97.0,79.0,-995.0,-23.0
14.0,-259.0,9.0,82.0,-109.0,95.0,81.0,-1003.0,-14.0
7.0,-259.0,11.0,98.0,-117.0,93.0,73.0,-1002.0,-6.0
14.0,-259.0,3.0,116.0,-133.0,89.0,90.0,-1008.0,-15.0
19.0,-262.0,1.0,125.0,-153.0,79.0,111.0,-1012.0,-27.0
24.0,-267.0,-3.0,125.0,-171.0,66.0,131.0,-1027.0,-42.0
26.0,-270.0,-7.0,106.0,-179.0,45.0,141.0,-1044.0,-56.0
31.0,-275.0,-8.0,70.0,-187.0,17.0,148.0,-1067.0,-59.0
32.0,-285.0,-2.0,24.0,-196.0,-13.0,158.0,-1104.0,-49.0
25.0,-288.0,2.0,-19.0,-200.0,-47.0,146.0,-1122.0,-40.0
18.0,-300.0,3.0,-51.0,-209.0,-84.0,120.0,-1152.0,-21.0
8.0,-304.0,11.0,-64.0,-221.0,-119.0,83.0,-1172.0,1.0
0.0,-309.0,9.0,-56.0,-234.0,-154.0,48.0,-1180.0,6.0
-4.0,-305.0,11.0,-29.0,-248.0,-186.0,18.0,-1173.0,7.0
-5.0,-302.0,11.0,11.0,-262.0,-203.0,16.0,-1162.0,2.0
-4.0,-295.0,12.0,56.0,-272.0,-207.0,25.0,-1139.0,13.0
1.0,-289.0,11.0,98.0,-279.0,-206.0,43.0,-1107.0,10.0
8.0,-280.0,11.0,138.0,-285.0,-195.0,71.0,-1084.0,12.0
19.0,-275.0,10.0,171.0,-292.0,-177.0,110.0,-1062.0,8.0
27.0,-271.0,7.0,193.0,-300.0,-159.0,142.0,-1055.0,-4.0
32.0,-270.0,0.0,192.0,-304.0,-137.0,167.0,-1052.0,-23.0
38.0,-271.0,-9.0,168.0,-299.0,-117.0,183.0,-1059.0,-52.0
38.0,-279.0,-16.0,118.0,-284.0,-97.0,196.0,-1083.0,-101.0
42.0,-286.0,-23.0,55.0,-263.0,-77.0,191.0,-1117.0,-133.0
40.0,-297.0,-30.0,-5.0,-241.0,-59.0,192.0,-1156.0,-167.0
31.0,-307.0,-36.0,-43.0,-215.0,-53.0,170.0,-1191.0,-187.0
39.0,-318.0,-47.0,-48.0,-201.0,-44.0,173.0,-1234.0,-205.0
36.0,-329.0,-46.0,-25.0,-188.0,-31.0,174.0,-1267.0,-224.0
34.0,-339.0,-47.0,13.0,-176.0,-27.0,171.0,-1287.0,-240.0
36.0,-339.0,-50.0,51.0,-170.0,-29.0,183.0,-1311.0,-248.0
39.0,-341.0,-52.0,78.0,-168.0,-34.0,195.0,-1322.0,-259.0
40.0,-341.0,-61.0,81.0,-169.0,-34.0,198.0,-1326.0,-279.0
39.0,-343.0,-64.0,60.0,-168.0,-32.0,192.0,-1325.0,-303.0
37.0,-340.0,-72.0,20.0,-161.0,-30.0,187.0,-1337.0,-323.0
44.0,-348.0,-78.0,-34.0,-150.0,-30.0,211.0,-1351.0,-345.0
50.0,-355.0,-74.0,-93.0,-139.0,-26.0,236.0,-1378.0,-358.0
49.0,-353.0,-78.0,-147.0,-115.0,-26.0,234.0,-1375.0,-347.0
45.0,-354.0,-73.0,-176.0,-81.0,-19.0,214.0,-1362.0,-340.0
35.0,-342.0,-68.0,-174.0,-49.0,-19.0,177.0,-1338.0,-328.0
28.0,-337.0,-69.0,-155.0,-43.0,-24.0,157.0,-1297.0,-327.0
27.0,-328.0,-76.0,-135.0,-64.0,-32.0,148.0,-1267.0,-341.0
27.0,-322.0,-78.0,-120.0,-99.0,-41.0,138.0,-1243.0,-369.0
28.0,-314.0,-86.0,-111.0,-131.0,-37.0,145.0,-1213.0,-383.0
28.0,-309.0,-84.0,-100.0,-140.0,-25.0,140.0,-1186.0,-393.0
23.0,-302.0,-86.0,-77.0,-124.0,-11.0,130.0,-1155.0,-397.0
21.0,-294.0,-84.0,-47.0,-94.0,-2.0,116.0,-1125.0,-395.0
20.0,-286.0,-89.0,-16.0,-69.0,0.0,106.0,-1105.0,-393.0
19.0,-282.0,-81.0,6.0,-61.0,-4.0,102.0,-1090.0,-385.0
14.0,-276.0,-80.0,11.0,-64.0,-11.0,85.0,-1079.0,-368.0
8.0,-275.0,-73.0,7.0,-68.0,-14.0,64.0,-1074.0,-331.0
0.0,-278.0,-63.0,-6.0,-72.0,-15.0,36.0,-1075.0,-288.0
-3.0,-282.0,-52.0,-19.0,-79.0,-10.0,29.0,-1083.0,-250.0
0.0,-283.0,-41.0,-30.0,-95.0,1.0,20.0,-1101.0,-214.0
-1.0,-290.0,-38.0,-33.0,-111.0,16.0,21.0,-1115.0,-191.0
-2.0,-291.0,-38.0,-31.0,-114.0,32.0,20.0,-1121.0,-187.0
1.0,-294.0,-35.0,-27.0,-110.0,50.0,24.0,-1119.0,-190.0
1.0,-290.0,-36.0,-23.0,-104.0,71.0,38.0,-1122.0,-190.0
4.0,-286.0,-37.0,-15.0,-106.0,92.0,53.0,-1110.0,-185.0
5.0,-284.0,-36.0,-7.0,-115.0,114.0,60.0,-1097.0,-179.0
10.0,-280.0,-34.0,-2.0,-125.0,140.0,72.0,-1088.0,-176.0
7.0,-275.0,-33.0,-5.0,-137.0,165.0,71.0,-1070.0,-174.0
4.0,-267.0,-32.0,-10.0,-147.0,191.0,58.0,-1057.0,-165.0
3.0,-268.0,-31.0,-16.0,-156.0,213.0,53.0,-1042.0,-175.0
3.0,-264.0,-32.0,-22.0,-163.0,239.0,51.0,-1025.0,-182.0
4.0,-262.0,-41.0,-28.0,-171.0,262.0,52.0,-1012.0,-195.0
0.0,-257.0,-45.0,-39.0,-183.0,285.0,48.0,-992.0,-215.0
2.0,-254.0,-51.0,-54.0,-187.0,305.0,46.0,-984.0,-235.0
1.0,-255.0,-54.0,-69.0,-169.0,325.0,41.0,-977.0,-253.0
0.0,-251.0,-52.0,-87.0,-138.0,343.0,30.0,-983.0,-262.0
1.0,-254.0,-55.0,-103.0,-124.0,360.0,32.0,-982.0,-268.0
1.0,-252.0,-56.0,-106.0,-127.0,375.0,37.0,-972.0,-262.0
1.0,-253.0,-51.0,-95.0,-126.0,381.0,32.0,-966.0,-239.0
1.0,-251.0,-42.0,-72.0,-102.0,375.0,37.0,-965.0,-211.0
0.0,-248.0,-31.0,-48.0,-68.0,361.0,28.0,-953.0,-182.0
-5.0,-248.0,-28.0,-31.0,-38.0,349.0,7.0,-951.0,-146.0
-12.0,-248.0,-20.0,-21.0,-22.0,339.0,-14.0,-946.0,-131.0
-14.0,-246.0,-18.0,-12.0,-19.0,334.0,-20.0,-940.0,-117.0
-14.0,-248.0,-20.0,8.0,-27.0,325.0,-22.0,-938.0,-114.0
-14.0,-244.0,-20.0,31.0,-36.0,313.0,-29.0,-940.0,-117.0
-13.0,-244.0,-18.0,47.0,-34.0,302.0,-31.0,-938.0,-102.0
-14.0,-243.0,-15.0,54.0,-29.0,294.0,-32.0,-923.0,-91.0
-15.0,-238.0,-12.0,56.0,-23.0,292.0,-27.0,-920.0,-66.0
-15.0,-238.0,-12.0,63.0,-18.0,297.0,-28.0,-914.0,-84.0
-10.0,-238.0,-14.0,72.0,-6.0,307.0,-24.0,-917.0,-89.0
-13.0,-235.0,-14.0,75.0,-1.0,317.0,-28.0,-914.0,-99.0
-12.0,-234.0,-19.0,75.0,-4.0,327.0,-23.0,-905.0,-107.0
-11.0,-233.0,-19.0,75.0,-11.0,335.0,-11.0,-903.0,-109.0
-7.0,-233.0,-18.0,79.0,-14.0,337.0,-4.0,-891.0,-110.0
-5.0,-227.0,-19.0,88.0,-10.0,341.0,8.0,-881.0,-111.0
-6.0,-224.0,-17.0,102.0,2.0,350.0,11.0,-870.0,-100.0
-2.0,-220.0,-19.0,118.0,20.0,362.0,11.0,-853.0,-108.0
-2.0,-217.0,-20.0,121.0,40.0,375.0,20.0,-838.0,-115.0
0.0,-214.0,-20.0,108.0,61.0,383.0,21.0,-826.0,-124.0
-2.0,-213.0,-20.0,72.0,78.0,385.0,10.0,-820.0,-117.0
-11.0,-212.0,-17.0,41.0,80.0,382.0,-7.0,-824.0,-97.0
-12.0,-220.0,-11.0,37.0,72.0,380.0,-30.0,-834.0,-94.0
-22.0,-218.0,-13.0,48.0,64.0,383.0,-47.0,-845.0,-88.0
-22.0,-223.0,-17.0,70.0,61.0,393.0,-68.0,-855.0,-98.0
-28.0,-223.0,-14.0,85.0,62.0,398.0,-80.0,-861.0,-101.0
-30.0,-222.0,-17.0,98.0,60.0,407.0,-94.0,-852.0,-101.0
-30.0,-217.0,-19.0,119.0,58.0,414.0,-88.0,-846.0,-102.0
-31.0,-215.0,-12.0,137.0,57.0,415.0,-85.0,-831.0,-90.0
-21.0,-217.0,-18.0,161.0,56.0,425.0,-73.0,-826.0,-82.0
-19.0,-211.0,-19.0,187.0,64.0,432.0,-51.0,-819.0,-100.0
-18.0,-204.0,-23.0,193.0,79.0,435.0,-36.0,-800.0,-118.0
-14.0,-209.0,-18.0,176.0,85.0,433.0,-33.0,-798.0,-112.0
-15.0,-206.0,-16.0,162.0,85.0,433.0,-27.0,-797.0,-103.0
-12.0,-204.0,-17.0,164.0,80.0,428.0,-21.0,-792.0,-105.0
-11.0,-205.0,-21.0,169.0,79.0,427.0,-14.0,-791.0,-116.0
-12.0,-205.0,-20.0,177.0,83.0,432.0,-21.0,-793.0,-115.0
-16.0,-205.0,-21.0,188.0,86.0,435.0,-30.0,-798.0,-111.0
-18.0,-209.0,-18.0,202.0,78.0,437.0,-49.0,-808.0,-111.0
-20.0,-211.0,-18.0,217.0,65.0,439.0,-55.0,-808.0,-107.0
-23.0,-211.0,-17.0,231.0,54.0,439.0,-66.0,-814.0,-97.0
-26.0,-213.0,-13.0,241.0,43.0,441.0,-74.0,-837.0,-92.0
-30.0,-220.0,-7.0,250.0,34.0,453.0,-88.0,-845.0,-70.0
-33.0,-221.0,-8.0,265.0,32.0,465.0,-99.0,-863.0,-71.0
-35.0,-220.0,-16.0,269.0,32.0,465.0,-103.0,-858.0,-90.0
-36.0,-217.0,-17.0,252.0,34.0,466.0,-113.0,-851.0,-106.0
-37.0,-222.0,-19.0,220.0,33.0,466.0,-121.0,-854.0,-116.0
-37.0,-225.0,-14.0,182.0,33.0,461.0,-124.0,-863.0,-99.0
-38.0,-226.0,-14.0,166.0,26.0,461.0,-113.0,-873.0,-87.0
-38.0,-228.0,-17.0,186.0,17.0,465.0,-107.0,-892.0,-101.0
-35.0,-231.0,-15.0,203.0,15.0,464.0,-108.0,-899.0,-91.0
-34.0,-236.0,-16.0,215.0,12.0,462.0,-101.0,-909.0,-93.0
-27.0,-231.0,-28.0,215.0,9.0,452.0,-89.0,-898.0,-140.0
-31.0,-226.0,-20.0,159.0,9.0,434.0,-102.0,-888.0,-141.0
-34.0,-225.0,-20.0,67.0,5.0,426.0,-105.0,-871.0,-109.0
-36.0,-227.0,-10.0,-12.0,-5.0,420.0,-107.0,-875.0,-95.0
-41.0,-227.0,-16.0,-61.0,-14.0,420.0,-129.0,-872.0,-93.0
-46.0,-234.0,-5.0,-80.0,-24.0,427.0,-135.0,-895.0,-61.0
-41.0,-245.0,-5.0,-57.0,-56.0,420.0,-123.0,-925.0,-48.0
-38.0,-247.0,1.0,-14.0,-94.0,399.0,-115.0,-955.0,-35.0
-39.0,-253.0,0.0,49.0,-124.0,389.0,-120.0,-970.0,-30.0
-45.0,-251.0,-6.0,112.0,-138.0,391.0,-146.0,-962.0,-61.0
-50.0,-244.0,-12.0,147.0,-139.0,401.0,-156.0,-941.0,-82.0
-52.0,-239.0,-13.0,149.0,-139.0,403.0,-172.0,-920.0,-92.0
-54.0,-233.0,-18.0,136.0,-137.0,405.0,-182.0,-902.0,-99.0
-56.0,-229.0,-15.0,115.0,-140.0,404.0,-181.0,-889.0,-90.0
-54.0,-229.0,-15.0,96.0,-147.0,403.0,-184.0,-884.0,-81.0
-53.0,-226.0,-12.0,83.0,-158.0,397.0,-184.0,-875.0,-81.0
-51.0,-226.0,-12.0,66.0,-169.0,395.0,-175.0,-870.0,-81.0
-51.0,-225.0,-6.0,44.0,-177.0,393.0,-161.0,-870.0,-65.0
-49.0,-224.0,-3.0,26.0,-184.0,390.0,-143.0,-867.0,-49.0
-40.0,-223.0,1.0,21.0,-195.0,388.0,-136.0,-869.0,-32.0
-40.0,-224.0,-1.0,26.0,-208.0,389.0,-138.0,-880.0,-21.0
-39.0,-234.0,5.0,27.0,-219.0,393.0,-137.0,-898.0,-8.0
-46.0,-233.0,10.0,29.0,-227.0,397.0,-144.0,-908.0,-4.0
-46.0,-239.0,13.0,22.0,-228.0,393.0,-152.0,-917.0,9.0
-53.0,-239.0,11.0,15.0,-231.0,386.0,-180.0,-917.0,10.0
-58.0,-240.0,14.0,9.0,-238.0,378.0,-187.0,-921.0,18.0
-62.0,-236.0,17.0,8.0,-244.0,371.0,-202.0,-920.0,19.0
-63.0,-240.0,9.0,11.0,-251.0,367.0,-204.0,-925.0,22.0
-58.0,-238.0,6.0,15.0,-256.0,361.0,-198.0,-915.0,3.0
-54.0,-237.0,7.0,10.0,-251.0,354.0,-184.0,-916.0,1.0
-49.0,-228.0,11.0,1.0,-244.0,345.0,-181.0,-910.0,4.0
-52.0,-236.0,12.0,-1.0,-240.0,330.0,-182.0,-910.0,15.0
-51.0,-238.0,20.0,9.0,-240.0,313.0,-166.0,-915.0,30.0
-50.0,-240.0,24.0,22.0,-239.0,295.0,-161.0,-921.0,51.0
-48.0,-242.0,29.0,41.0,-233.0,274.0,-160.0,-936.0,75.0
-45.0,-246.0,35.0,56.0,-223.0,254.0,-156.0,-939.0,99.0
-47.0,-246.0,35.0,74.0,-211.0,236.0,-149.0,-948.0,108.0
-46.0,-245.0,44.0,95.0,-203.0,219.0,-152.0,-948.0,119.0
-44.0,-247.0,42.0,117.0,-194.0,202.0,-145.0,-947.0,131.0
-42.0,-244.0,42.0,140.0,-185.0,187.0,-143.0,-927.0,126.0
-43.0,-234.0,36.0,157.0,-171.0,173.0,-139.0,-910.0,117.0
-39.0,-225.0,36.0,162.0,-160.0,158.0,-133.0,-871.0,109.0
-43.0,-218.0,37.0,153.0,-150.0,143.0,-137.0,-846.0,106.0
-40.0,-213.0,39.0,132.0,-138.0,133.0,-139.0,-830.0,108.0
-39.0,-209.0,40.0,97.0,-123.0,126.0,-132.0,-819.0,115.0
-36.0,-208.0,41.0,55.0,-103.0,121.0,-109.0,-818.0,117.0
-30.0,-210.0,41.0,8.0,-79.0,113.0,-98.0,-823.0,123.0
-26.0,-217.0,39.0,-27.0,-49.0,102.0,-82.0,-841.0,117.0
-20.0,-221.0,37.0,-47.0,-18.0,89.0,-49.0,-856.0,107.0
-10.0,-229.0,27.0,-55.0,9.0,73.0,-21.0,-882.0,66.0
-1.0,-238.0,18.0,-66.0,35.0,49.0,18.0,-921.0,38.0
0.0,-246.0,18.0,-84.0,61.0,14.0,30.0,-950.0,36.0
0.0,-257.0,20.0,-91.0,96.0,-29.0,27.0,-981.0,45.0
-8.0,-258.0,31.0,-65.0,141.0,-79.0,-2.0,-1009.0,70.0
-33.0,-264.0,23.0,-18.0,181.0,-116.0,-75.0,-1020.0,65.0
-57.0,-268.0,7.0,16.0,198.0,-127.0,-173.0,-1051.0,17.0
-81.0,-281.0,-14.0,-1.0,189.0,-108.0,-264.0,-1094.0,-69.0
-103.0,-291.0,-25.0,-77.0,176.0,-62.0,-360.0,-1149.0,-131.0
-121.0,-310.0,-36.0,-185.0,165.0,1.0,-427.0,-1209.0,-165.0
-126.0,-324.0,-28.0,-287.0,152.0,71.0,-448.0,-1264.0,-171.0
-121.0,-338.0,-16.0,-338.0,124.0,134.0,-432.0,-1309.0,-109.0
-111.0,-345.0,-1.0,-313.0,85.0,184.0,-392.0,-1335.0,-53.0
-105.0,-341.0,10.0,-218.0,48.0,214.0,-368.0,-1319.0,2.0
-96.0,-332.0,21.0,-87.0,11.0,233.0,-344.0,-1283.0,41.0
-90.0,-316.0,22.0,36.0,-8.0,237.0,-327.0,-1233.0,44.0
-81.0,-303.0,12.0,111.0,6.0,239.0,-297.0,-1179.0,28.0
-76.0,-289.0,-3.0,106.0,51.0,246.0,-281.0,-1141.0,-22.0
-79.0,-283.0,-14.0,33.0,112.0,244.0,-290.0,-1123.0,-74.0
-79.0,-284.0,-21.0,-64.0,154.0,240.0,-283.0,-1116.0,-102.0
-75.0,-293.0,-28.0,-138.0,168.0,232.0,-273.0,-1136.0,-145.0
-72.0,-303.0,-35.0,-172.0,167.0,239.0,-271.0,-1161.0,-181.0
-67.0,-315.0,-35.0,-154.0,177.0,214.0,-232.0,-1214.0,-181.0
-52.0,-318.0,-37.0,-84.0,184.0,154.0,-182.0,-1227.0,-178.0
-51.0,-317.0,-36.0,1.0,211.0,99.0,-161.0,-1239.0,-178.0
-50.0,-324.0,-29.0,59.0,264.0,48.0,-168.0,-1247.0,-180.0
-50.0,-314.0,-32.0,80.0,320.0,-11.0,-156.0,-1223.0,-176.0
-40.0,-314.0,-35.0,67.0,350.0,-79.0,-120.0,-1214.0,-180.0
-25.0,-311.0,-37.0,32.0,368.0,-147.0,-74.0,-1199.0,-192.0
-20.0,-310.0,-39.0,-11.0,399.0,-209.0,-56.0,-1187.0,-203.0
-26.0,-309.0,-41.0,-46.0,450.0,-259.0,-75.0,-1195.0,-215.0
-32.0,-312.0,-43.0,-70.0,500.0,-297.0,-91.0,-1200.0,-211.0
-30.0,-313.0,-39.0,-80.0,534.0,-317.0,-82.0,-1208.0,-192.0
-28.0,-312.0,-35.0,-77.0,553.0,-319.0,-73.0,-1217.0,-180.0
-27.0,-319.0,-27.0,-72.0,574.0,-305.0,-79.0,-1219.0,-173.0
-34.0,-316.0,-31.0,-74.0,609.0,-274.0,-94.0,-1224.0,-171.0
-39.0,-314.0,-28.0,-75.0,640.0,-239.0,-118.0,-1230.0,-147.0
-47.0,-314.0,-24.0,-68.0,650.0,-211.0,-145.0,-1225.0,-130.0
-58.0,-309.0,-20.0,-45.0,644.0,-192.0,-193.0,-1189.0,-135.0
-61.0,-302.0,-28.0,-16.0,623.0,-175.0,-196.0,-1178.0,-137.0
-62.0,-293.0,-29.0,21.0,611.0,-175.0,-208.0,-1146.0,-155.0
-67.0,-282.0,-35.0,59.0,600.0,-187.0,-223.0,-1111.0,-185.0
-64.0,-274.0,-41.0,88.0,587.0,-194.0,-227.0,-1068.0,-201.0
-63.0,-267.0,-50.0,108.0,568.0,-204.0,-220.0,-1037.0,-225.0
-58.0,-261.0,-50.0,121.0,556.0,-220.0,-197.0,-1029.0,-239.0
-54.0,-263.0,-48.0,132.0,551.0,-240.0,-182.0,-1021.0,-244.0
-47.0,-263.0,-50.0,137.0,543.0,-251.0,-153.0,-1029.0,-245.0
-36.0,-268.0,-48.0,129.0,527.0,-261.0,-120.0,-1039.0,-241.0
-27.0,-271.0,-50.0,113.0,517.0,-273.0,-83.0,-1055.0,-237.0
-23.0,-275.0,-51.0,91.0,524.0,-287.0,-66.0,-1074.0,-231.0
-23.0,-279.0,-45.0,63.0,542.0,-303.0,-60.0,-1088.0,-225.0
-24.0,-287.0,-41.0,27.0,547.0,-317.0,-66.0,-1115.0,-214.0
-22.0,-297.0,-39.0,-1.0,533.0,-339.0,-52.0,-1148.0,-214.0
-21.0,-304.0,-44.0,-14.0,516.0,-365.0,-45.0,-1171.0,-204.0
-25.0,-310.0,-44.0,-12.0,504.0,-388.0,-60.0,-1182.0,-201.0
-28.0,-309.0,-39.0,-4.0,499.0,-407.0,-68.0,-1193.0,-203.0
-30.0,-307.0,-38.0,13.0,495.0,-430.0,-82.0,-1189.0,-196.0
-32.0,-309.0,-39.0,32.0,492.0,-451.0,-96.0,-1184.0,-197.0
-38.0,-305.0,-32.0,54.0,491.0,-468.0,-103.0,-1167.0,-184.0
-37.0,-299.0,-34.0,77.0,486.0,-478.0,-112.0,-1151.0,-169.0
-38.0,-289.0,-34.0,99.0,476.0,-488.0,-114.0,-1130.0,-175.0
-43.0,-284.0,-38.0,106.0,470.0,-499.0,-134.0,-1096.0,-188.0
-45.0,-278.0,-38.0,92.0,477.0,-501.0,-151.0,-1071.0,-193.0
-50.0,-267.0,-38.0,64.0,480.0,-497.0,-169.0,-1047.0,-192.0
-50.0,-263.0,-38.0,33.0,471.0,-500.0,-168.0,-1028.0,-182.0
-45.0,-257.0,-39.0,9.0,460.0,-503.0,-148.0,-1018.0,-192.0
-56.0,-252.0,-36.0,-24.0,459.0,-506.0,-162.0,-1006.0,-179.0
-53.0,-260.0,-29.0,-44.0,455.0,-501.0,-166.0,-1005.0,-164.0
-50.0,-258.0,-25.0,-42.0,437.0,-487.0,-155.0,-1013.0,-145.0
-44.0,-265.0,-26.0,-25.0,403.0,-470.0,-138.0,-1023.0,-139.0
-39.0,-266.0,-27.0,-6.0,373.0,-455.0,-123.0,-1032.0,-140.0
-39.0,-267.0,-25.0,9.0,341.0,-444.0,-111.0,-1043.0,-147.0
-38.0,-268.0,-25.0,15.0,314.0,-434.0,-99.0,-1050.0,-146.0
-35.0,-269.0,-30.0,23.0,294.0,-426.0,-105.0,-1046.0,-154.0
-32.0,-267.0,-28.0,41.0,289.0,-417.0,-99.0,-1040.0,-156.0
-32.0,-262.0,-31.0,59.0,288.0,-410.0,-97.0,-1027.0,-154.0
-28.0,-259.0,-29.0,71.0,288.0,-401.0,-83.0,-1013.0,-161.0
-24.0,-252.0,-31.0,75.0,288.0,-389.0,-62.0,-978.0,-159.0
-15.0,-248.0,-32.0,72.0,286.0,-377.0,-32.0,-952.0,-172.0
-11.0,-244.0,-35.0,56.0,286.0,-372.0,-16.0,-935.0,-179.0
-6.0,-244.0,-36.0,26.0,281.0,-368.0,-6.0,-925.0,-179.0
-3.0,-239.0,-32.0,-5.0,276.0,-367.0,17.0,-923.0,-179.0
-1.0,-241.0,-34.0,-31.0,270.0,-370.0,19.0,-924.0,-172.0
-2.0,-243.0,-33.0,-52.0,269.0,-377.0,24.0,-926.0,-166.0
-2.0,-242.0,-30.0,-67.0,269.0,-386.0,17.0,-927.0,-154.0
-7.0,-241.0,-21.0,-82.0,273.0,-393.0,4.0,-929.0,-142.0
-7.0,-242.0,-23.0,-96.0,279.0,-400.0,1.0,-923.0,-142.0
-9.0,-237.0,-26.0,-115.0,282.0,-404.0,-9.0,-918.0,-145.0
-9.0,-236.0,-25.0,-148.0,284.0,-411.0,-16.0,-907.0,-145.0
-8.0,-231.0,-18.0,-183.0,276.0,-420.0,-23.0,-884.0,-126.0
-16.0,-227.0,-20.0,-200.0,261.0,-423.0,-30.0,-872.0,-121.0
-15.0,-224.0,-19.0,-198.0,245.0,-427.0,-35.0,-865.0,-106.0
-21.0,-219.0,-18.0,-184.0,227.0,-434.0,-47.0,-854.0,-100.0
-25.0,-215.0,-16.0,-161.0,206.0,-440.0,-62.0,-835.0,-94.0
-17.0,-212.0,-15.0,-132.0,180.0,-448.0,-44.0,-823.0,-113.0
-23.0,-214.0,-18.0,-101.0,164.0,-454.0,-48.0,-823.0,-106.0
-22.0,-212.0,-20.0,-62.0,155.0,-464.0,-64.0,-814.0,-117.0
-24.0,-210.0,-23.0,-23.0,146.0,-475.0,-70.0,-804.0,-128.0
-22.0,-203.0,-24.0,9.0,139.0,-481.0,-64.0,-785.0,-131.0
-20.0,-198.0,-23.0,31.0,137.0,-482.0,-51.0,-763.0,-142.0
-13.0,-191.0,-26.0,49.0,141.0,-486.0,-27.0,-740.0,-151.0
-14.0,-182.0,-29.0,49.0,152.0,-495.0,-31.0,-692.0,-168.0
-15.0,-178.0,-23.0,21.0,158.0,-494.0,-33.0,-689.0,-143.0
-16.0,-179.0,-20.0,-10.0,167.0,-484.0,-37.0,-683.0,-125.0
-17.0,-178.0,-19.0,-47.0,171.0,-475.0,-37.0,-688.0,-122.0
-12.0,-183.0,-14.0,-79.0,161.0,-459.0,-17.0,-700.0,-98.0
-10.0,-183.0,-12.0,-102.0,146.0,-450.0,-12.0,-712.0,-97.0
-8.0,-187.0,-13.0,-113.0,130.0,-449.0,0.0,-721.0,-92.0
-8.0,-187.0,-8.0,-112.0,115.0,-451.0,6.0,-728.0,-83.0
-3.0,-194.0,-9.0,-100.0,106.0,-452.0,7.0,-734.0,-70.0
-4.0,-189.0,-6.0,-88.0,96.0,-453.0,9.0,-729.0,-62.0
-1.0,-189.0,-4.0,-74.0,81.0,-448.0,16.0,-723.0,-54.0
0.0,-190.0,-9.0,-61.0,64.0,-442.0,21.0,-721.0,-51.0
3.0,-190.0,-8.0,-49.0,52.0,-431.0,33.0,-731.0,-52.0
3.0,-190.0,-9.0,-48.0,47.0,-421.0,47.0,-736.0,-60.0
7.0,-191.0,-6.0,-53.0,41.0,-404.0,60.0,-733.0,-58.0
13.0,-193.0,-14.0,-52.0,37.0,-373.0,83.0,-748.0,-73.0
13.0,-199.0,-14.0,-65.0,40.0,-351.0,82.0,-773.0,-78.0
14.0,-208.0,-9.0,-84.0,39.0,-337.0,80.0,-796.0,-74.0
15.0,-210.0,-10.0,-92.0,34.0,-327.0,95.0,-808.0,-85.0
23.0,-211.0,-17.0,-88.0,32.0,-312.0,129.0,-820.0,-118.0
26.0,-222.0,-17.0,-89.0,49.0,-301.0,135.0,-841.0,-84.0
32.0,-223.0,-10.0,-67.0,69.0,-300.0,157.0,-858.0,-82.0
35.0,-223.0,-16.0,-41.0,93.0,-302.0,157.0,-846.0,-101.0
35.0,-218.0,-10.0,-42.0,135.0,-293.0,170.0,-845.0,-89.0
31.0,-218.0,-9.0,-46.0,170.0,-281.0,158.0,-848.0,-65.0
29.0,-221.0,-15.0,-35.0,183.0,-261.0,139.0,-851.0,-80.0
23.0,-225.0,-11.0,-43.0,186.0,-240.0,133.0,-861.0,-81.0
19.0,-227.0,-17.0,-60.0,177.0,-222.0,108.0,-873.0,-89.0
20.0,-233.0,-16.0,-80.0,165.0,-203.0,116.0,-894.0,-92.0
23.0,-238.0,-11.0,-100.0,150.0,-191.0,117.0,-904.0,-85.0
20.0,-239.0,-11.0,-110.0,141.0,-178.0,123.0,-918.0,-79.0
24.0,-242.0,-15.0,-106.0,140.0,-166.0,118.0,-934.0,-87.0
24.0,-246.0,-17.0,-98.0,148.0,-158.0,134.0,-938.0,-89.0
29.0,-249.0,-14.0,-88.0,168.0,-156.0,144.0,-939.0,-85.0
30.0,-249.0,-12.0,-72.0,193.0,-153.0,152.0,-949.0,-82.0
30.0,-249.0,-12.0,-61.0,218.0,-149.0,152.0,-958.0,-80.0
30.0,-249.0,-6.0,-49.0,235.0,-144.0,146.0,-956.0,-64.0
28.0,-249.0,-10.0,-36.0,246.0,-141.0,144.0,-956.0,-63.0
27.0,-247.0,-12.0,-32.0,255.0,-143.0,140.0,-950.0,-74.0
31.0,-246.0,-13.0,-38.0,263.0,-145.0,145.0,-947.0,-78.0
26.0,-247.0,-14.0,-52.0,272.0,-138.0,137.0,-942.0,-92.0
25.0,-246.0,-16.0,-77.0,274.0,-134.0,130.0,-954.0,-90.0
21.0,-248.0,-11.0,-95.0,267.0,-135.0,126.0,-955.0,-90.0
23.0,-249.0,-14.0,-103.0,258.0,-136.0,121.0,-958.0,-93.0
22.0,-247.0,-13.0,-103.0,253.0,-136.0,119.0,-957.0,-91.0
21.0,-247.0,-17.0,-106.0,244.0,-133.0,111.0,-954.0,-100.0
19.0,-248.0,-19.0,-114.0,240.0,-126.0,114.0,-941.0,-104.0
21.0,-242.0,-15.0,-119.0,246.0,-121.0,118.0,-925.0,-99.0
21.0,-239.0,-17.0,-119.0,260.0,-117.0,121.0,-919.0,-96.0
23.0,-238.0,-12.0,-117.0,280.0,-113.0,125.0,-912.0,-94.0
26.0,-236.0,-19.0,-116.0,299.0,-111.0,136.0,-906.0,-92.0
26.0,-234.0,-14.0,-121.0,314.0,-106.0,137.0,-901.0,-90.0
27.0,-237.0,-11.0,-126.0,324.0,-99.0,142.0,-901.0,-84.0
26.0,-234.0,-13.0,-135.0,329.0,-88.0,134.0,-901.0,-81.0
26.0,-235.0,-17.0,-141.0,324.0,-74.0,132.0,-902.0,-85.0
22.0,-232.0,-16.0,-146.0,313.0,-60.0,128.0,-911.0,-96.0
18.0,-235.0,-17.0,-158.0,299.0,-50.0,120.0,-905.0,-97.0
18.0,-238.0,-15.0,-172.0,282.0,-43.0,107.0,-903.0,-94.0
13.0,-237.0,-9.0,-182.0,262.0,-38.0,94.0,-896.0,-81.0
11.0,-233.0,-10.0,-177.0,243.0,-34.0,87.0,-892.0,-77.0
5.0,-228.0,-10.0,-166.0,226.0,-28.0,64.0,-883.0,-66.0
0.0,-230.0,-7.0,-156.0,208.0,-21.0,50.0,-887.0,-63.0
-2.0,-230.0,-6.0,-146.0,189.0,-15.0,29.0,-894.0,-54.0
-6.0,-232.0,-1.0,-142.0,161.0,-9.0,9.0,-895.0,-41.0
-8.0,-238.0,0.0,-143.0,129.0,1.0,-3.0,-907.0,-22.0
-11.0,-241.0,9.0,-143.0,100.0,9.0,-5.0,-918.0,-11.0
-17.0,-243.0,10.0,-140.0,67.0,19.0,-21.0,-938.0,-2.0
-13.0,-249.0,10.0,-135.0,26.0,30.0,-10.0,-956.0,6.0
-8.0,-249.0,12.0,-130.0,-13.0,42.0,11.0,-969.0,18.0
0.0,-254.0,16.0,-118.0,-44.0,54.0,21.0,-977.0,23.0
0.0,-254.0,15.0,-100.0,-61.0,63.0,37.0,-988.0,24.0
3.0,-253.0,16.0,-84.0,-78.0,69.0,52.0,-982.0,25.0
6.0,-255.0,11.0,-74.0,-97.0,71.0,57.0,-984.0,24.0
9.0,-258.0,17.0,-66.0,-119.0,71.0,77.0,-977.0,4.0
12.0,-252.0,11.0,-61.0,-141.0,68.0,89.0,-963.0,2.0
14.0,-245.0,-3.0,-54.0,-161.0,64.0,101.0,-948.0,-12.0
12.0,-245.0,-1.0,-52.0,-182.0,56.0,90.0,-934.0,-33.0
10.0,-243.0,-4.0,-56.0,-203.0,47.0,82.0,-927.0,-40.0
10.0,-242.0,1.0,-64.0,-227.0,41.0,79.0,-923.0,-22.0
10.0,-242.0,3.0,-66.0,-243.0,37.0,79.0,-926.0,-19.0
7.0,-243.0,6.0,-66.0,-248.0,32.0,70.0,-938.0,-11.0
5.0,-247.0,11.0,-64.0,-247.0,31.0,59.0,-958.0,0.0
3.0,-252.0,11.0,-63.0,-252.0,32.0,53.0,-976.0,5.0
1.0,-262.0,13.0,-62.0,-255.0,36.0,50.0,-1011.0,8.0
3.0,-271.0,13.0,-57.0,-258.0,38.0,42.0,-1038.0,11.0
2.0,-281.0,11.0,-43.0,-259.0,43.0,49.0,-1056.0,4.0
4.0,-279.0,3.0,-25.0,-254.0,45.0,60.0,-1087.0,-23.0
9.0,-291.0,-7.0,-8.0,-242.0,65.0,87.0,-1117.0,-58.0
21.0,-298.0,-8.0,8.0,-220.0,82.0,101.0,-1149.0,-69.0
22.0,-304.0,-7.0,33.0,-202.0,93.0,127.0,-1170.0,-74.0
33.0,-311.0,-3.0,75.0,-192.0,93.0,156.0,-1184.0,-69.0
41.0,-312.0,2.0,117.0,-187.0,83.0,192.0,-1195.0,-33.0
49.0,-308.0,4.0,149.0,-184.0,67.0,233.0,-1189.0,-8.0
58.0,-308.0,9.0,156.0,-171.0,39.0,258.0,-1194.0,4.0
60.0,-310.0,15.0,139.0,-158.0,2.0,267.0,-1193.0,15.0
59.0,-309.0,12.0,115.0,-139.0,-46.0,271.0,-1192.0,18.0
49.0,-306.0,11.0,93.0,-107.0,-102.0,232.0,-1192.0,4.0
40.0,-312.0,6.0,75.0,-63.0,-149.0,183.0,-1195.0,3.0
29.0,-309.0,6.0,75.0,-20.0,-188.0,150.0,-1190.0,-17.0
22.0,-311.0,3.0,92.0,21.0,-216.0,130.0,-1190.0,-31.0
20.0,-305.0,-1.0,114.0,54.0,-234.0,123.0,-1177.0,-34.0
29.0,-300.0,-2.0,136.0,79.0,-230.0,136.0,-1163.0,-34.0
32.0,-299.0,0.0,157.0,102.0,-218.0,166.0,-1150.0,-38.0
41.0,-300.0,1.0,180.0,109.0,-203.0,197.0,-1151.0,-35.0
46.0,-304.0,5.0,202.0,104.0,-190.0,223.0,-1167.0,-19.0
55.0,-313.0,6.0,226.0,93.0,-177.0,249.0,-1198.0,-17.0
56.0,-321.0,-3.0,254.0,84.0,-169.0,268.0,-1245.0,-43.0
57.0,-332.0,-8.0,280.0,84.0,-174.0,264.0,-1275.0,-65.0
60.0,-340.0,-14.0,302.0,99.0,-170.0,259.0,-1313.0,-95.0
57.0,-344.0,-22.0,312.0,133.0,-164.0,254.0,-1335.0,-112.0
48.0,-348.0,-20.0,312.0,174.0,-159.0,218.0,-1346.0,-124.0
29.0,-342.0,-16.0,308.0,210.0,-156.0,166.0,-1335.0,-114.0
29.0,-334.0,-16.0,313.0,233.0,-156.0,150.0,-1291.0,-92.0
35.0,-331.0,-19.0,323.0,228.0,-146.0,179.0,-1276.0,-108.0
47.0,-327.0,-30.0,331.0,210.0,-133.0,208.0,-1269.0,-155.0
44.0,-321.0,-47.0,327.0,214.0,-109.0,211.0,-1255.0,-202.0
36.0,-317.0,-56.0,317.0,243.0,-76.0,192.0,-1243.0,-266.0
23.0,-312.0,-62.0,294.0,277.0,-41.0,131.0,-1220.0,-303.0
9.0,-314.0,-68.0,264.0,302.0,-5.0,83.0,-1208.0,-309.0
1.0,-311.0,-72.0,240.0,318.0,37.0,47.0,-1187.0,-326.0
-1.0,-302.0,-76.0,214.0,321.0,86.0,36.0,-1177.0,-334.0
9.0,-302.0,-76.0,182.0,316.0,130.0,70.0,-1165.0,-340.0
23.0,-303.0,-72.0,135.0,309.0,164.0,119.0,-1171.0,-340.0
31.0,-305.0,-73.0,76.0,312.0,177.0,149.0,-1180.0,-343.0
34.0,-310.0,-67.0,1.0,333.0,170.0,174.0,-1204.0,-317.0
34.0,-321.0,-58.0,-71.0,353.0,154.0,165.0,-1223.0,-284.0
27.0,-325.0,-52.0,-117.0,369.0,137.0,144.0,-1242.0,-252.0
16.0,-326.0,-43.0,-119.0,373.0,119.0,107.0,-1253.0,-209.0
9.0,-326.0,-36.0,-82.0,367.0,104.0,72.0,-1248.0,-191.0
3.0,-322.0,-37.0,-21.0,350.0,93.0,44.0,-1232.0,-184.0
1.0,-314.0,-39.0,46.0,325.0,96.0,40.0,-1206.0,-195.0
0.0,-305.0,-45.0,106.0,307.0,111.0,37.0,-1173.0,-231.0
3.0,-295.0,-53.0,154.0,304.0,139.0,53.0,-1136.0,-258.0
11.0,-282.0,-60.0,178.0,323.0,176.0,68.0,-1093.0,-281.0
9.0,-271.0,-66.0,179.0,355.0,211.0,78.0,-1049.0,-306.0
10.0,-259.0,-65.0,156.0,383.0,244.0,82.0,-1015.0,-309.0
6.0,-256.0,-66.0,115.0,394.0,273.0,72.0,-998.0,-310.0
9.0,-255.0,-65.0,58.0,383.0,297.0,68.0,-986.0,-305.0
3.0,-256.0,-55.0,4.0,360.0,313.0,53.0,-1001.0,-267.0
-2.0,-257.0,-58.0,-35.0,320.0,324.0,20.0,-1028.0,-244.0
-11.0,-269.0,-47.0,-56.0,272.0,334.0,-5.0,-1051.0,-226.0
-8.0,-279.0,-42.0,-59.0,227.0,349.0,-8.0,-1073.0,-211.0
-7.0,-281.0,-41.0,-48.0,197.0,362.0,-3.0,-1087.0,-216.0
-7.0,-281.0,-44.0,-36.0,188.0,376.0,0.0,-1092.0,-219.0
-8.0,-282.0,-49.0,-27.0,192.0,385.0,-4.0,-1093.0,-223.0
-8.0,-282.0,-49.0,-19.0,195.0,391.0,-5.0,-1080.0,-235.0
-9.0,-278.0,-50.0,-14.0,193.0,392.0,-10.0,-1076.0,-241.0
-14.0,-272.0,-52.0,-7.0,187.0,391.0,-17.0,-1050.0,-252.0
-13.0,-265.0,-57.0,-1.0,176.0,383.0,-23.0,-1041.0,-255.0
-15.0,-258.0,-55.0,2.0,158.0,376.0,-22.0,-1009.0,-268.0
-11.0,-257.0,-55.0,5.0,142.0,372.0,-14.0,-993.0,-271.0
-8.0,-255.0,-54.0,10.0,133.0,370.0,-16.0,-975.0,-267.0
-10.0,-249.0,-55.0,18.0,129.0,365.0,-15.0,-960.0,-256.0
-14.0,-247.0,-48.0,22.0,129.0,361.0,-28.0,-937.0,-226.0
-15.0,-245.0,-40.0,21.0,125.0,360.0,-40.0,-935.0,-194.0
-21.0,-244.0,-32.0,18.0,122.0,360.0,-52.0,-925.0,-170.0
-21.0,-243.0,-24.0,10.0,118.0,362.0,-60.0,-922.0,-134.0
-22.0,-241.0,-19.0,3.0,112.0,362.0,-58.0,-930.0,-113.0
-18.0,-245.0,-12.0,0.0,103.0,361.0,-42.0,-933.0,-88.0
-14.0,-246.0,-12.0,-1.0,98.0,361.0,-38.0,-942.0,-82.0
-18.0,-248.0,-10.0,6.0,94.0,362.0,-36.0,-952.0,-71.0
-17.0,-248.0,-4.0,19.0,93.0,364.0,-28.0,-951.0,-68.0
-12.0,-245.0,-12.0,34.0,91.0,369.0,-17.0,-947.0,-78.0
-11.0,-245.0,-14.0,46.0,92.0,375.0,-10.0,-940.0,-77.0
-5.0,-245.0,-11.0,61.0,97.0,385.0,9.0,-932.0,-90.0
-6.0,-244.0,-16.0,77.0,103.0,397.0,6.0,-929.0,-97.0
-2.0,-236.0,-18.0,87.0,114.0,415.0,12.0,-911.0,-99.0
-2.0,-231.0,-15.0,103.0,125.0,437.0,22.0,-890.0,-108.0
0.0,-225.0,-19.0,115.0,139.0,456.0,21.0,-866.0,-118.0
1.0,-223.0,-20.0,112.0,160.0,473.0,25.0,-855.0,-139.0
-2.0,-216.0,-23.0,97.0,178.0,487.0,21.0,-839.0,-137.0
-2.0,-212.0,-34.0,72.0,186.0,499.0,17.0,-823.0,-175.0
-3.0,-208.0,-35.0,35.0,192.0,506.0,19.0,-808.0,-191.0
-2.0,-206.0,-33.0,-22.0,191.0,510.0,11.0,-800.0,-167.0
-1.0,-204.0,-24.0,-55.0,193.0,516.0,4.0,-801.0,-139.0
-12.0,-204.0,-23.0,-54.0,212.0,520.0,-15.0,-794.0,-135.0
-16.0,-204.0,-22.0,-53.0,240.0,521.0,-23.0,-791.0,-118.0
-23.0,-208.0,-14.0,-48.0,256.0,522.0,-53.0,-799.0,-98.0
-27.0,-208.0,-14.0,-33.0,260.0,519.0,-81.0,-807.0,-82.0
-31.0,-209.0,-15.0,-5.0,248.0,513.0,-96.0,-810.0,-89.0
-34.0,-208.0,-15.0,13.0,230.0,510.0,-100.0,-811.0,-93.0
-32.0,-214.0,-17.0,22.0,214.0,508.0,-103.0,-817.0,-87.0
-33.0,-216.0,-14.0,23.0,201.0,508.0,-96.0,-830.0,-85.0
-33.0,-213.0,-10.0,27.0,191.0,506.0,-102.0,-828.0,-82.0
-33.0,-214.0,-11.0,35.0,183.0,503.0,-95.0,-831.0,-81.0
-31.0,-219.0,-5.0,53.0,172.0,498.0,-93.0,-838.0,-62.0
-26.0,-213.0,-12.0,87.0,158.0,492.0,-76.0,-829.0,-77.0
-27.0,-213.0,-19.0,119.0,153.0,483.0,-73.0,-823.0,-99.0
-26.0,-207.0,-20.0,124.0,151.0,471.0,-84.0,-803.0,-116.0
-32.0,-205.0,-18.0,108.0,145.0,468.0,-89.0,-800.0,-111.0
-32.0,-208.0,-19.0,95.0,130.0,469.0,-90.0,-800.0,-110.0
-31.0,-207.0,-16.0,84.0,111.0,469.0,-87.0,-805.0,-105.0
-36.0,-210.0,-19.0,82.0,95.0,466.0,-100.0,-815.0,-102.0
-33.0,-214.0,-17.0,86.0,81.0,463.0,-102.0,-822.0,-113.0
-34.0,-213.0,-18.0,89.0,69.0,456.0,-104.0,-827.0,-117.0
-38.0,-214.0,-19.0,86.0,56.0,449.0,-111.0,-836.0,-108.0
-38.0,-216.0,-15.0,77.0,48.0,444.0,-116.0,-842.0,-99.0
-41.0,-218.0,-12.0,66.0,34.0,441.0,-132.0,-844.0,-81.0
-47.0,-217.0,-7.0,64.0,8.0,436.0,-148.0,-846.0,-58.0
-49.0,-215.0,1.0,75.0,-22.0,432.0,-160.0,-842.0,-36.0
-48.0,-216.0,-2.0,94.0,-49.0,435.0,-151.0,-839.0,-48.0
-45.0,-215.0,0.0,98.0,-67.0,435.0,-152.0,-840.0,-50.0
-48.0,-218.0,2.0,92.0,-88.0,437.0,-168.0,-837.0,-23.0
-46.0,-204.0,-16.0,90.0,-115.0,440.0,-155.0,-824.0,-89.0
-51.0,-208.0,-9.0,40.0,-119.0,442.0,-170.0,-806.0,-82.0
-51.0,-208.0,-7.0,-14.0,-114.0,447.0,-160.0,-814.0,-75.0
-43.0,-222.0,-9.0,-54.0,-128.0,442.0,-146.0,-843.0,-63.0
-39.0,-229.0,-12.0,-73.0,-158.0,422.0,-115.0,-885.0,-79.0
-34.0,-239.0,-8.0,-91.0,-178.0,392.0,-107.0,-911.0,-74.0
-32.0,-245.0,-4.0,-102.0,-179.0,366.0,-107.0,-935.0,-63.0
-43.0,-247.0,-1.0,-103.0,-170.0,351.0,-131.0,-950.0,-43.0
-48.0,-249.0,2.0,-87.0,-163.0,346.0,-154.0,-958.0,-22.0
-50.0,-248.0,-1.0,-62.0,-163.0,337.0,-154.0,-953.0,-32.0
-48.0,-241.0,1.0,-45.0,-174.0,323.0,-157.0,-942.0,-41.0
-47.0,-243.0,-4.0,-30.0,-190.0,306.0,-155.0,-919.0,-49.0
-50.0,-236.0,-4.0,-11.0,-204.0,293.0,-156.0,-914.0,-56.0
-49.0,-233.0,-12.0,8.0,-211.0,288.0,-154.0,-896.0,-69.0
-49.0,-227.0,-11.0,18.0,-213.0,287.0,-164.0,-881.0,-78.0
-51.0,-224.0,-14.0,11.0,-217.0,286.0,-173.0,-874.0,-91.0
-48.0,-225.0,-14.0,-6.0,-227.0,282.0,-171.0,-866.0,-83.0
-49.0,-221.0,-10.0,-27.0,-242.0,271.0,-166.0,-857.0,-71.0
-51.0,-221.0,-9.0,-44.0,-257.0,260.0,-181.0,-855.0,-64.0
-50.0,-223.0,-3.0,-54.0,-266.0,252.0,-177.0,-864.0,-55.0
-51.0,-226.0,1.0,-57.0,-270.0,245.0,-177.0,-868.0,-38.0
-50.0,-227.0,-1.0,-50.0,-274.0,236.0,-179.0,-874.0,-33.0
-52.0,-232.0,3.0,-46.0,-279.0,227.0,-171.0,-899.0,-21.0
-56.0,-236.0,5.0,-34.0,-286.0,210.0,-182.0,-922.0,-19.0
-58.0,-242.0,1.0,-25.0,-297.0,193.0,-184.0,-926.0,-29.0
-54.0,-242.0,3.0,-24.0,-304.0,181.0,-179.0,-931.0,-25.0
-52.0,-245.0,4.0,-29.0,-303.0,168.0,-177.0,-938.0,-16.0
-53.0,-245.0,11.0,-26.0,-299.0,153.0,-182.0,-940.0,3.0
-55.0,-244.0,10.0,-11.0,-293.0,143.0,-190.0,-942.0,-6.0
-56.0,-241.0,7.0,-7.0,-283.0,135.0,-184.0,-931.0,-12.0
-54.0,-238.0,2.0,-11.0,-275.0,125.0,-183.0,-918.0,-22.0
-53.0,-240.0,2.0,-18.0,-272.0,116.0,-181.0,-925.0,-35.0
-49.0,-243.0,0.0,-20.0,-270.0,108.0,-167.0,-927.0,-33.0
-43.0,-242.0,3.0,-17.0,-267.0,101.0,-161.0,-929.0,-23.0
-44.0,-246.0,12.0,-8.0,-262.0,96.0,-137.0,-937.0,9.0
-35.0,-247.0,18.0,10.0,-256.0,88.0,-117.0,-944.0,27.0
-41.0,-245.0,25.0,29.0,-249.0,77.0,-119.0,-950.0,49.0
-40.0,-247.0,27.0,39.0,-249.0,67.0,-130.0,-941.0,66.0
-43.0,-246.0,30.0,54.0,-257.0,52.0,-141.0,-953.0,85.0
-44.0,-244.0,28.0,77.0,-268.0,36.0,-143.0,-931.0,79.0
-42.0,-239.0,27.0,94.0,-273.0,22.0,-142.0,-919.0,69.0
-44.0,-236.0,22.0,91.0,-269.0,10.0,-147.0,-913.0,59.0
-52.0,-233.0,22.0,82.0,-267.0,2.0,-162.0,-902.0,41.0
-53.0,-229.0,17.0,73.0,-269.0,-10.0,-171.0,-879.0,34.0
-51.0,-220.0,13.0,68.0,-273.0,-24.0,-175.0,-859.0,22.0
-51.0,-219.0,13.0,59.0,-278.0,-37.0,-176.0,-844.0,8.0
-49.0,-216.0,11.0,41.0,-278.0,-47.0,-168.0,-836.0,5.0
-50.0,-214.0,11.0,19.0,-273.0,-55.0,-165.0,-835.0,14.0
-46.0,-216.0,6.0,-4.0,-266.0,-60.0,-164.0,-836.0,10.0
-48.0,-214.0,12.0,-29.0,-258.0,-61.0,-153.0,-845.0,14.0
-42.0,-222.0,9.0,-56.0,-251.0,-66.0,-150.0,-860.0,11.0
-43.0,-223.0,14.0,-80.0,-248.0,-74.0,-146.0,-872.0,20.0
-43.0,-231.0,19.0,-96.0,-245.0,-86.0,-139.0,-888.0,24.0
-42.0,-237.0,14.0,-100.0,-239.0,-100.0,-137.0,-904.0,25.0
-39.0,-238.0,12.0,-100.0,-233.0,-115.0,-131.0,-920.0,19.0
-43.0,-245.0,14.0,-100.0,-222.0,-133.0,-146.0,-944.0,11.0
-45.0,-248.0,11.0,-104.0,-207.0,-153.0,-143.0,-957.0,11.0
-44.0,-248.0,10.0,-103.0,-194.0,-172.0,-148.0,-966.0,7.0
-46.0,-250.0,5.0,-103.0,-181.0,-186.0,-147.0,-975.0,-2.0
-44.0,-253.0,6.0,-104.0,-169.0,-201.0,-151.0,-976.0,-2.0
-46.0,-252.0,6.0,-103.0,-161.0,-217.0,-146.0,-983.0,-15.0
-46.0,-253.0,8.0,-99.0,-159.0,-229.0,-148.0,-985.0,-8.0
-46.0,-255.0,9.0,-89.0,-160.0,-240.0,-146.0,-997.0,-5.0
-42.0,-253.0,11.0,-78.0,-161.0,-246.0,-136.0,-990.0,6.0
-41.0,-252.0,11.0,-69.0,-158.0,-249.0,-136.0,-986.0,15.0
-45.0,-253.0,15.0,-65.0,-151.0,-252.0,-138.0,-978.0,23.0
-46.0,-249.0,20.0,-76.0,-145.0,-250.0,-151.0,-976.0,35.0
-52.0,-248.0,19.0,-97.0,-142.0,-246.0,-167.0,-985.0,41.0
-51.0,-255.0,21.0,-123.0,-142.0,-237.0,-182.0,-984.0,45.0
-51.0,-256.0,19.0,-141.0,-147.0,-222.0,-183.0,-1005.0,43.0
-52.0,-258.0,20.0,-144.0,-145.0,-208.0,-179.0,-1001.0,36.0
-53.0,-257.0,16.0,-139.0,-137.0,-192.0,-173.0,-1011.0,21.0
-52.0,-260.0,13.0,-131.0,-125.0,-178.0,-174.0,-1007.0,7.0
-55.0,-260.0,2.0,-126.0,-120.0,-163.0,-169.0,-1008.0,-6.0
-53.0,-256.0,6.0,-122.0,-123.0,-149.0,-172.0,-1004.0,-15.0
-49.0,-254.0,9.0,-112.0,-125.0,-140.0,-160.0,-997.0,-7.0
-45.0,-256.0,10.0,-105.0,-125.0,-132.0,-150.0,-980.0,-6.0
-49.0,-253.0,6.0,-98.0,-113.0,-128.0,-155.0,-986.0,-5.0
-45.0,-252.0,8.0,-101.0,-106.0,-134.0,-147.0,-981.0,-19.0
-43.0,-255.0,4.0,-110.0,-105.0,-138.0,-138.0,-994.0,-26.0
-40.0,-257.0,-4.0,-120.0,-106.0,-148.0,-125.0,-1016.0,-49.0
-39.0,-265.0,-9.0,-129.0,-120.0,-163.0,-117.0,-1038.0,-81.0
-40.0,-275.0,-19.0,-140.0,-153.0,-188.0,-119.0,-1073.0,-106.0
-45.0,-287.0,-24.0,-151.0,-190.0,-218.0,-136.0,-1111.0,-124.0
-47.0,-294.0,-19.0,-158.0,-211.0,-251.0,-145.0,-1146.0,-111.0
-53.0,-301.0,-5.0,-159.0,-207.0,-273.0,-173.0,-1166.0,-68.0
-63.0,-303.0,8.0,-146.0,-182.0,-276.0,-223.0,-1173.0,-5.0
-87.0,-301.0,23.0,-131.0,-154.0,-252.0,-294.0,-1171.0,55.0
-114.0,-299.0,35.0,-129.0,-152.0,-206.0,-393.0,-1173.0,91.0
-125.0,-308.0,33.0,-156.0,-187.0,-139.0,-444.0,-1198.0,102.0
-127.0,-313.0,36.0,-202.0,-245.0,-61.0,-452.0,-1236.0,101.0
-118.0,-326.0,36.0,-249.0,-307.0,23.0,-427.0,-1272.0,99.0
-98.0,-339.0,38.0,-274.0,-356.0,98.0,-358.0,-1300.0,111.0
-75.0,-343.0,41.0,-257.0,-390.0,160.0,-269.0,-1335.0,117.0
-52.0,-347.0,42.0,-198.0,-399.0,197.0,-185.0,-1340.0,125.0
-38.0,-349.0,36.0,-131.0,-388.0,214.0,-118.0,-1341.0,109.0
-25.0,-346.0,28.0,-48.0,-372.0,219.0,-73.0,-1337.0,86.0
-20.0,-339.0,22.0,11.0,-352.0,217.0,-66.0,-1306.0,58.0
-29.0,-331.0,16.0,41.0,-326.0,215.0,-73.0,-1290.0,24.0
-41.0,-331.0,7.0,55.0,-297.0,213.0,-117.0,-1276.0,-3.0
-50.0,-319.0,6.0,74.0,-278.0,192.0,-152.0,-1239.0,-28.0
-57.0,-309.0,-3.0,109.0,-275.0,161.0,-185.0,-1189.0,-43.0
-64.0,-296.0,-7.0,157.0,-278.0,127.0,-224.0,-1144.0,-63.0
-80.0,-282.0,-13.0,199.0,-284.0,95.0,-279.0,-1100.0,-76.0
-92.0,-269.0,-15.0,220.0,-291.0,65.0,-324.0,-1062.0,-95.0
-96.0,-261.0,-20.0,216.0,-305.0,40.0,-347.0,-1041.0,-124.0
-90.0,-255.0,-33.0,186.0,-328.0,19.0,-332.0,-1014.0,-158.0
-83.0,-253.0,-41.0,136.0,-359.0,8.0,-298.0,-1003.0,-190.0
-70.0,-252.0,-49.0,85.0,-385.0,6.0,-258.0,-987.0,-219.0
-60.0,-250.0,-49.0,46.0,-396.0,10.0,-223.0,-970.0,-252.0
-65.0,-248.0,-57.0,23.0,-393.0,20.0,-225.0,-968.0,-272.0
-69.0,-248.0,-64.0,4.0,-391.0,28.0,-247.0,-969.0,-282.0
-74.0,-246.0,-60.0,-28.0,-402.0,31.0,-264.0,-958.0,-285.0
-76.0,-244.0,-59.0,-82.0,-428.0,35.0,-266.0,-957.0,-264.0
-71.0,-247.0,-51.0,-167.0,-459.0,46.0,-254.0,-966.0,-240.0
-70.0,-250.0,-38.0,-269.0,-482.0,53.0,-253.0,-977.0,-203.0
-71.0,-254.0,-28.0,-355.0,-497.0,60.0,-246.0,-997.0,-155.0
-65.0,-258.0,-16.0,-401.0,-505.0,71.0,-238.0,-1012.0,-111.0
-64.0,-264.0,-12.0,-404.0,-509.0,88.0,-227.0,-1022.0,-87.0
-59.0,-268.0,-11.0,-384.0,-511.0,104.0,-216.0,-1036.0,-80.0
-61.0,-265.0,-10.0,-358.0,-517.0,100.0,-212.0,-1038.0,-80.0
-64.0,-266.0,-18.0,-330.0,-521.0,81.0,-212.0,-1031.0,-96.0
-63.0,-264.0,-17.0,-296.0,-528.0,48.0,-209.0,-1021.0,-110.0
-61.0,-262.0,-25.0,-253.0,-544.0,7.0,-206.0,-1015.0,-122.0
-63.0,-260.0,-23.0,-205.0,-571.0,-44.0,-212.0,-1007.0,-146.0
-62.0,-257.0,-33.0,-158.0,-609.0,-93.0,-211.0,-992.0,-166.0
-65.0,-255.0,-36.0,-124.0,-655.0,-140.0,-217.0,-993.0,-183.0
-64.0,-254.0,-42.0,-115.0,-703.0,-180.0,-216.0,-982.0,-199.0
-64.0,-253.0,-40.0,-139.0,-750.0,-215.0,-213.0,-999.0,-202.0
-63.0,-258.0,-36.0,-185.0,-795.0,-247.0,-217.0,-1011.0,-183.0
-63.0,-262.0,-27.0,-230.0,-842.0,-273.0,-216.0,-1021.0,-157.0
-65.0,-262.0,-21.0,-263.0,-890.0,-288.0,-218.0,-1035.0,-116.0
-63.0,-267.0,-17.0,-277.0,-937.0,-296.0,-211.0,-1045.0,-102.0
-61.0,-271.0,-15.0,-275.0,-977.0,-298.0,-212.0,-1055.0,-91.0
-61.0,-270.0,-14.0,-263.0,-1007.0,-297.0,-201.0,-1054.0,-83.0
-55.0,-272.0,-11.0,-243.0,-1030.0,-297.0,-192.0,-1055.0,-80.0
-51.0,-271.0,-13.0,-215.0,-1048.0,-293.0,-174.0,-1050.0,-85.0
-49.0,-272.0,-16.0,-179.0,-1062.0,-297.0,-157.0,-1052.0,-104.0
-51.0,-267.0,-20.0,-139.0,-1074.0,-297.0,-161.0,-1046.0,-120.0
-49.0,-269.0,-25.0,-98.0,-1089.0,-296.0,-156.0,-1029.0,-141.0
-49.0,-258.0,-28.0,-65.0,-1106.0,-290.0,-152.0,-1010.0,-160.0
-45.0,-254.0,-28.0,-45.0,-1121.0,-281.0,-149.0,-983.0,-165.0
-46.0,-248.0,-29.0,-31.0,-1136.0,-271.0,-145.0,-956.0,-152.0
-45.0,-246.0,-23.0,-16.0,-1156.0,-259.0,-145.0,-937.0,-144.0
-42.0,-245.0,-27.0,-7.0,-1173.0,-250.0,-131.0,-931.0,-146.0
-40.0,-241.0,-29.0,-9.0,-1183.0,-241.0,-117.0,-932.0,-145.0
-37.0,-248.0,-23.0,-23.0,-1189.0,-229.0,-112.0,-949.0,-143.0
-36.0,-249.0,-23.0,-41.0,-1198.0,-225.0,-104.0,-965.0,-135.0
-30.0,-249.0,-23.0,-52.0,-1210.0,-226.0,-93.0,-975.0,-125.0
-27.0,-256.0,-20.0,-58.0,-1228.0,-228.0,-76.0,-984.0,-117.0
-24.0,-258.0,-16.0,-60.0,-1244.0,-229.0,-66.0,-1000.0,-102.0
-29.0,-258.0,-10.0,-63.0,-1264.0,-231.0,-77.0,-1014.0,-84.0
-31.0,-263.0,-10.0,-67.0,-1289.0,-231.0,-85.0,-1029.0,-59.0
-36.0,-273.0,-5.0,-66.0,-1314.0,-231.0,-101.0,-1048.0,-41.0
-36.0,-274.0,-4.0,-58.0,-1336.0,-234.0,-112.0,-1062.0,-44.0
-40.0,-274.0,-3.0,-44.0,-1352.0,-235.0,-120.0,-1072.0,-56.0
-39.0,-279.0,-17.0,-21.0,-1353.0,-237.0,-129.0,-1073.0,-82.0
-42.0,-274.0,-22.0,6.0,-1344.0,-239.0,-129.0,-1064.0,-123.0
-42.0,-272.0,-30.0,26.0,-1326.0,-241.0,-140.0,-1062.0,-161.0
-42.0,-266.0,-35.0,29.0,-1307.0,-243.0,-130.0,-1042.0,-173.0
-37.0,-262.0,-34.0,31.0,-1297.0,-243.0,-122.0,-1016.0,-183.0
-38.0,-257.0,-32.0,30.0,-1288.0,-241.0,-115.0,-1011.0,-176.0
-35.0,-256.0,-32.0,19.0,-1280.0,-242.0,-108.0,-1004.0,-164.0
-35.0,-256.0,-25.0,-1.0,-1276.0,-248.0,-104.0,-1003.0,-151.0
-37.0,-257.0,-27.0,-29.0,-1275.0,-249.0,-111.0,-1006.0,-137.0
-37.0,-258.0,-23.0,-53.0,-1269.0,-248.0,-116.0,-1012.0,-137.0
-39.0,-263.0,-20.0,-65.0,-1265.0,-243.0,-125.0,-1016.0,-117.0
-39.0,-259.0,-18.0,-66.0,-1267.0,-234.0,-117.0,-1012.0,-105.0
-41.0,-260.0,-16.0,-58.0,-1277.0,-231.0,-118.0,-1012.0,-98.0
-39.0,-257.0,-16.0,-49.0,-1290.0,-226.0,-115.0,-1003.0,-96.0
-36.0,-254.0,-19.0,-44.0,-1301.0,-217.0,-111.0,-976.0,-110.0
-35.0,-248.0,-24.0,-45.0,-1301.0,-210.0,-105.0,-966.0,-125.0
-31.0,-247.0,-26.0,-49.0,-1292.0,-206.0,-92.0,-954.0,-131.0
-25.0,-239.0,-20.0,-56.0,-1281.0,-206.0,-87.0,-935.0,-130.0
-26.0,-240.0,-22.0,-66.0,-1275.0,-210.0,-81.0,-919.0,-127.0
-29.0,-233.0,-20.0,-73.0,-1271.0,-216.0,-82.0,-903.0,-124.0
-30.0,-230.0,-22.0,-74.0,-1268.0,-226.0,-85.0,-895.0,-126.0
-31.0,-229.0,-24.0,-82.0,-1271.0,-234.0,-95.0,-876.0,-133.0
-36.0,-224.0,-23.0,-93.0,-1276.0,-239.0,-107.0,-868.0,-136.0
-39.0,-223.0,-22.0,-108.0,-1287.0,-241.0,-117.0,-862.0,-140.0
-42.0,-223.0,-25.0,-123.0,-1307.0,-242.0,-125.0,-861.0,-134.0
-48.0,-223.0,-18.0,-135.0,-1331.0,-239.0,-143.0,-867.0,-126.0
-44.0,-225.0,-19.0,-134.0,-1357.0,-234.0,-149.0,-871.0,-114.0
-46.0,-226.0,-23.0,-130.0,-1382.0,-234.0,-154.0,-869.0,-123.0
-53.0,-222.0,-25.0,-131.0,-1409.0,-234.0,-171.0,-863.0,-136.0
-56.0,-217.0,-27.0,-134.0,-1439.0,-232.0,-184.0,-848.0,-148.0
-55.0,-216.0,-24.0,-134.0,-1467.0,-230.0,-185.0,-831.0,-133.0
-53.0,-214.0,-27.0,-116.0,-1501.0,-230.0,-187.0,-828.0,-140.0
-58.0,-208.0,-25.0,-98.0,-1531.0,-229.0,-199.0,-811.0,-140.0
-62.0,-207.0,-24.0,-92.0,-1562.0,-222.0,-208.0,-809.0,-150.0
-63.0,-201.0,-28.0,-96.0,-1595.0,-212.0,-215.0,-798.0,-148.0
-67.0,-203.0,-32.0,-118.0,-1628.0,-198.0,-224.0,-795.0,-155.0
-68.0,-203.0,-29.0,-147.0,-1666.0,-185.0,-240.0,-796.0,-161.0
-76.0,-209.0,-19.0,-179.0,-1710.0,-169.0,-257.0,-801.0,-130.0
-73.0,-207.0,-25.0,-182.0,-1771.0,-152.0,-264.0,-811.0,-142.0
-77.0,-214.0,-27.0,-182.0,-1830.0,-137.0,-275.0,-815.0,-136.0
-78.0,-211.0,-28.0,-173.0,-1895.0,-114.0,-277.0,-829.0,-142.0
-73.0,-214.0,-25.0,-152.0,-1960.0,-87.0,-252.0,-829.0,-149.0
-68.0,-212.0,-32.0,-126.0,-2022.0,-58.0,-233.0,-828.0,-172.0
-64.0,-214.0,-36.0,-107.0,-2077.0,-35.0,-222.0,-825.0,-182.0
-63.0,-217.0,-38.0,-86.0,-2138.0,-14.0,-208.0,-832.0,-186.0
-59.0,-225.0,-40.0,-52.0,-2196.0,6.0,-200.0,-853.0,-206.0
-58.0,-233.0,-42.0,9.0,-2251.0,27.0,-195.0,-880.0,-215.0
-59.0,-240.0,-47.0,99.0,-2304.0,45.0,-194.0,-911.0,-237.0
-59.0,-242.0,-61.0,200.0,-2354.0,60.0,-191.0,-924.0,-275.0
-57.0,-245.0,-73.0,278.0,-2383.0,70.0,-192.0,-935.0,-318.0
-50.0,-235.0,-80.0,301.0,-2383.0,76.0,-178.0,-929.0,-344.0
-47.0,-233.0,-71.0,263.0,-2369.0,81.0,-153.0,-916.0,-330.0
-41.0,-232.0,-63.0,191.0,-2359.0,89.0,-126.0,-906.0,-299.0
-35.0,-228.0,-53.0,105.0,-2360.0,91.0,-104.0,-896.0,-253.0
-33.0,-233.0,-44.0,17.0,-2382.0,83.0,-93.0,-897.0,-219.0
-32.0,-235.0,-37.0,-47.0,-2426.0,74.0,-85.0,-907.0,-193.0
-31.0,-244.0,-32.0,-84.0,-2478.0,70.0,-82.0,-929.0,-176.0
-28.0,-251.0,-28.0,-104.0,-2524.0,75.0,-83.0,-961.0,-150.0
-24.0,-256.0,-21.0,-116.0,-2560.0,89.0,-65.0,-996.0,-128.0
-21.0,-266.0,-16.0,-120.0,-2582.0,99.0,-52.0,-1033.0,-101.0
-22.0,-278.0,-16.0,-119.0,-2585.0,106.0,-36.0,-1065.0,-83.0
-24.0,-283.0,-8.0,-114.0,-2580.0,108.0,-36.0,-1098.0,-63.0
-24.0,-287.0,-8.0,-107.0,-2588.0,99.0,-50.0,-1113.0,-50.0
-26.0,-292.0,-3.0,-100.0,-2609.0,83.0,-69.0,-1137.0,-47.0
-27.0,-295.0,-7.0,-89.0,-2635.0,68.0,-69.0,-1139.0,-60.0
-30.0,-294.0,-10.0,-73.0,-2663.0,52.0,-83.0,-1141.0,-65.0
-33.0,-291.0,-14.0,-55.0,-2678.0,36.0,-94.0,-1131.0,-80.0
-36.0,-288.0,-19.0,-38.0,-2683.0,22.0,-103.0,-1110.0,-99.0
-38.0,-280.0,-21.0,-35.0,-2684.0,10.0,-131.0,-1094.0,-111.0
-45.0,-274.0,-26.0,-41.0,-2687.0,5.0,-141.0,-1070.0,-140.0
-46.0,-267.0,-33.0,-63.0,-2694.0,8.0,-144.0,-1057.0,-162.0
-46.0,-264.0,-40.0,-90.0,-2708.0,16.0,-132.0,-1040.0,-190.0
-44.0,-261.0,-45.0,-118.0,-2717.0,28.0,-142.0,-1027.0,-204.0
-42.0,-258.0,-47.0,-146.0,-2732.0,41.0,-136.0,-1008.0,-221.0
-40.0,-260.0,-50.0,-175.0,-2748.0,57.0,-109.0,-1011.0,-221.0
-29.0,-256.0,-45.0,-200.0,-2761.0,73.0,-77.0,-1002.0,-220.0
-20.0,-256.0,-45.0,-218.0,-2761.0,87.0,-54.0,-998.0,-207.0
-16.0,-256.0,-44.0,-230.0,-2744.0,105.0,-29.0,-1012.0,-200.0
-13.0,-262.0,-34.0,-246.0,-2723.0,118.0,-22.0,-1017.0,-185.0
-10.0,-264.0,-33.0,-258.0,-2703.0,128.0,-11.0,-1026.0,-168.0
-12.0,-270.0,-32.0,-262.0,-2690.0,131.0,5.0,-1033.0,-153.0
-2.0,-266.0,-22.0,-254.0,-2680.0,131.0,19.0,-1036.0,-144.0
-2.0,-265.0,-23.0,-239.0,-2668.0,134.0,19.0,-1029.0,-133.0
2.0,-266.0,-22.0,-213.0,-2649.0,147.0,31.0,-1019.0,-125.0
7.0,-262.0,-26.0,-183.0,-2624.0,165.0,55.0,-1017.0,-134.0
12.0,-260.0,-27.0,-168.0,-2595.0,177.0,88.0,-1018.0,-143.0
26.0,-260.0,-24.0,-174.0,-2559.0,187.0,114.0,-1006.0,-147.0
26.0,-257.0,-31.0,-190.0,-2510.0,196.0,119.0,-1007.0,-141.0
21.0,-260.0,-21.0,-199.0,-2444.0,202.0,112.0,-1009.0,-133.0
15.0,-262.0,-19.0,-195.0,-2373.0,199.0,84.0,-1005.0,-113.0
6.0,-259.0,-14.0,-178.0,-2322.0,195.0,61.0,-998.0,-86.0
2.0,-254.0,-13.0,-157.0,-2288.0,193.0,46.0,-972.0,-66.0
2.0,-245.0,-6.0,-141.0,-2259.0,201.0,44.0,-952.0,-49.0
7.0,-242.0,-2.0,-134.0,-2223.0,216.0,50.0,-933.0,-43.0
8.0,-240.0,1.0,-141.0,-2177.0,228.0,58.0,-924.0,-26.0
10.0,-236.0,2.0,-152.0,-2127.0,233.0,59.0,-913.0,-20.0
7.0,-237.0,5.0,-160.0,-2085.0,232.0,62.0,-910.0,-3.0
7.0,-236.0,9.0,-163.0,-2052.0,232.0,52.0,-909.0,-1.0
5.0,-233.0,9.0,-156.0,-2030.0,231.0,54.0,-894.0,2.0
8.0,-232.0,8.0,-139.0,-2009.0,228.0,64.0,-886.0,-7.0
14.0,-229.0,1.0,-118.0,-1979.0,224.0,77.0,-872.0,-16.0
16.0,-224.0,1.0,-97.0,-1934.0,220.0,91.0,-867.0,-35.0
21.0,-228.0,-6.0,-80.0,-1870.0,222.0,109.0,-865.0,-43.0
25.0,-222.0,-5.0,-67.0,-1786.0,227.0,117.0,-848.0,-57.0
27.0,-215.0,-11.0,-59.0,-1696.0,232.0,129.0,-828.0,-63.0
24.0,-213.0,-10.0,-67.0,-1620.0,231.0,130.0,-822.0,-77.0
19.0,-210.0,-13.0,-98.0,-1577.0,224.0,108.0,-818.0,-82.0
13.0,-209.0,-10.0,-147.0,-1571.0,212.0,90.0,-832.0,-79.0
13.0,-218.0,-5.0,-197.0,-1583.0,196.0,81.0,-836.0,-69.0
5.0,-219.0,-6.0,-237.0,-1598.0,184.0,66.0,-843.0,-57.0
6.0,-226.0,-5.0,-255.0,-1596.0,176.0,55.0,-861.0,-54.0
2.0,-231.0,-9.0,-254.0,-1573.0,177.0,47.0,-874.0,-55.0
2.0,-233.0,-3.0,-244.0,-1533.0,181.0,35.0,-895.0,-55.0
-2.0,-237.0,-1.0,-227.0,-1491.0,187.0,20.0,-907.0,-41.0
-6.0,-238.0,3.0,-205.0,-1454.0,190.0,14.0,-912.0,-33.0
-11.0,-237.0,4.0,-185.0,-1424.0,194.0,-18.0,-909.0,-27.0
-14.0,-236.0,7.0,-168.0,-1408.0,198.0,-23.0,-907.0,-9.0
-17.0,-234.0,10.0,-161.0,-1406.0,206.0,-35.0,-904.0,-4.0
-19.0,-236.0,7.0,-157.0,-1410.0,217.0,-47.0,-902.0,5.0
-24.0,-233.0,11.0,-162.0,-1419.0,232.0,-69.0,-896.0,0.0
-29.0,-233.0,6.0,-170.0,-1436.0,251.0,-86.0,-894.0,4.0
-36.0,-235.0,11.0,-182.0,-1457.0,276.0,-112.0,-908.0,0.0
-41.0,-232.0,8.0,-194.0,-1479.0,300.0,-130.0,-914.0,3.0
-47.0,-235.0,11.0,-199.0,-1501.0,326.0,-139.0,-916.0,12.0
-51.0,-242.0,8.0,-192.0,-1518.0,351.0,-167.0,-927.0,-2.0
-62.0,-248.0,0.0,-178.0,-1527.0,376.0,-196.0,-946.0,-24.0
-63.0,-254.0,-10.0,-169.0,-1539.0,397.0,-221.0,-972.0,-61.0
-69.0,-259.0,-19.0,-175.0,-1542.0,412.0,-238.0,-1017.0,-121.0
-71.0,-266.0,-32.0,-195.0,-1542.0,416.0,-255.0,-1045.0,-174.0
