acc1_x,acc1_y,acc1_z,gyro_x,gyro_y,gyro_z,acc2_x,acc2_y,acc2_z
-3.0,-254.0,24.0,-30.0,62.0,-4.0,22.0,-992.0,54.0
-1.0,-254.0,25.0,-31.0,61.0,-5.0,19.0,-992.0,60.0
-1.0,-256.0,21.0,-29.0,61.0,-6.0,25.0,-987.0,61.0
-3.0,-256.0,25.0,-28.0,62.0,-5.0,17.0,-981.0,56.0
-4.0,-255.0,26.0,-27.0,62.0,-4.0,18.0,-981.0,60.0
0.0,-255.0,27.0,-27.0,63.0,-5.0,20.0,-982.0,60.0
-3.0,-253.0,24.0,-28.0,63.0,-5.0,16.0,-980.0,58.0
-5.0,-249.0,24.0,-31.0,63.0,-4.0,20.0,-976.0,55.0
-5.0,-252.0,26.0,-32.0,63.0,-3.0,19.0,-980.0,60.0
-4.0,-254.0,27.0,-33.0,63.0,-3.0,17.0,-981.0,60.0
-1.0,-253.0,27.0,-34.0,61.0,-4.0,18.0,-982.0,61.0
-1.0,-254.0,26.0,-35.0,60.0,-3.0,18.0,-980.0,61.0
-1.0,-253.0,25.0,-35.0,60.0,-3.0,19.0,-984.0,62.0
-2.0,-255.0,25.0,-36.0,61.0,-2.0,16.0,-983.0,63.0
-6.0,-256.0,25.0,-35.0,60.0,-2.0,15.0,-988.0,61.0
0.0,-257.0,23.0,-34.0,60.0,-1.0,16.0,-990.0,60.0
-2.0,-259.0,23.0,-35.0,56.0,-1.0,12.0,-992.0,54.0
-2.0,-256.0,18.0,-35.0,56.0,-1.0,19.0,-993.0,55.0
-1.0,-254.0,23.0,-34.0,58.0,-1.0,17.0,-983.0,60.0
-1.0,-255.0,26.0,-34.0,59.0,-1.0,19.0,-982.0,61.0
-2.0,-254.0,25.0,-34.0,60.0,0.0,17.0,-1001.0,60.0
-3.0,-252.0,24.0,-35.0,60.0,-1.0,21.0,-987.0,60.0
-4.0,-253.0,29.0,-35.0,59.0,-1.0,16.0,-981.0,57.0
-2.0,-253.0,25.0,-35.0,59.0,0.0,19.0,-985.0,58.0
-2.0,-254.0,21.0,-35.0,61.0,-1.0,17.0,-984.0,60.0
0.0,-256.0,24.0,-33.0,60.0,-2.0,17.0,-978.0,57.0
-3.0,-257.0,23.0,-34.0,61.0,-1.0,18.0,-978.0,58.0
-1.0,-252.0,24.0,-34.0,62.0,-1.0,18.0,-974.0,56.0
-3.0,-250.0,23.0,-37.0,61.0,-3.0,19.0,-991.0,52.0
-5.0,-255.0,23.0,-39.0,62.0,-4.0,21.0,-982.0,53.0
-1.0,-252.0,23.0,-42.0,63.0,-2.0,23.0,-979.0,57.0
-1.0,-256.0,24.0,-43.0,65.0,-1.0,15.0,-984.0,52.0
-4.0,-254.0,21.0,-44.0,65.0,-1.0,20.0,-992.0,50.0
-1.0,-256.0,21.0,-45.0,65.0,-1.0,22.0,-991.0,55.0
0.0,-258.0,23.0,-43.0,66.0,-1.0,26.0,-1003.0,54.0
-4.0,-254.0,22.0,-38.0,66.0,0.0,25.0,-990.0,54.0
-2.0,-254.0,25.0,-36.0,66.0,-1.0,25.0,-983.0,56.0
-1.0,-256.0,27.0,-35.0,67.0,-1.0,23.0,-985.0,54.0
-5.0,-254.0,23.0,-34.0,64.0,-1.0,18.0,-982.0,56.0
-4.0,-254.0,26.0,-35.0,65.0,-1.0,20.0,-976.0,57.0
-3.0,-253.0,23.0,-37.0,65.0,-4.0,10.0,-984.0,56.0
-6.0,-254.0,22.0,-37.0,65.0,-4.0,16.0,-982.0,61.0
-2.0,-253.0,24.0,-34.0,66.0,-4.0,17.0,-982.0,57.0
-5.0,-252.0,28.0,-33.0,66.0,-3.0,21.0,-977.0,54.0
-4.0,-252.0,23.0,-34.0,67.0,-5.0,20.0,-981.0,58.0
-1.0,-254.0,25.0,-35.0,67.0,-4.0,20.0,-975.0,51.0
-6.0,-252.0,23.0,-36.0,67.0,-3.0,12.0,-979.0,50.0
-2.0,-255.0,25.0,-39.0,65.0,-1.0,20.0,-981.0,53.0
-2.0,-253.0,22.0,-42.0,65.0,-1.0,16.0,-984.0,49.0
-6.0,-255.0,23.0,-45.0,65.0,-2.0,14.0,-985.0,52.0
-5.0,-257.0,25.0,-48.0,65.0,-3.0,19.0,-995.0,47.0
-4.0,-257.0,23.0,-47.0,66.0,-2.0,20.0,-993.0,50.0
-3.0,-258.0,23.0,-43.0,66.0,-3.0,27.0,-999.0,53.0
-4.0,-251.0,21.0,-38.0,67.0,-3.0,20.0,-986.0,52.0
-2.0,-254.0,26.0,-36.0,66.0,-4.0,20.0,-985.0,57.0
-4.0,-255.0,26.0,-36.0,64.0,-4.0,17.0,-983.0,59.0
-2.0,-255.0,23.0,-38.0,66.0,-4.0,18.0,-976.0,61.0
-6.0,-251.0,26.0,-41.0,64.0,-4.0,18.0,-982.0,59.0
-2.0,-254.0,24.0,-42.0,64.0,-4.0,18.0,-978.0,64.0
-5.0,-252.0,27.0,-43.0,66.0,-4.0,10.0,-981.0,61.0
-2.0,-254.0,25.0,-44.0,65.0,-4.0,15.0,-975.0,58.0
-2.0,-252.0,25.0,-46.0,65.0,-5.0,20.0,-976.0,54.0
-1.0,-258.0,21.0,-46.0,63.0,-4.0,18.0,-994.0,46.0
0.0,-256.0,22.0,-46.0,65.0,-5.0,20.0,-992.0,48.0
-2.0,-255.0,22.0,-45.0,65.0,-5.0,25.0,-986.0,43.0
0.0,-257.0,15.0,-44.0,67.0,-2.0,23.0,-992.0,46.0
-2.0,-256.0,21.0,-44.0,68.0,-1.0,18.0,-982.0,49.0
-4.0,-252.0,18.0,-43.0,66.0,0.0,19.0,-983.0,53.0
-3.0,-255.0,20.0,-42.0,65.0,2.0,16.0,-993.0,58.0
-1.0,-255.0,22.0,-41.0,65.0,1.0,20.0,-991.0,56.0
-4.0,-253.0,23.0,-40.0,63.0,2.0,15.0,-990.0,60.0
-2.0,-254.0,22.0,-36.0,62.0,0.0,16.0,-982.0,56.0
-2.0,-254.0,21.0,-32.0,62.0,-1.0,17.0,-984.0,54.0
-5.0,-252.0,23.0,-30.0,61.0,-1.0,17.0,-977.0,58.0
-4.0,-253.0,25.0,-31.0,60.0,-1.0,15.0,-979.0,54.0
-1.0,-256.0,20.0,-33.0,59.0,-2.0,14.0,-982.0,52.0
-1.0,-255.0,23.0,-34.0,60.0,-2.0,20.0,-992.0,55.0
-4.0,-252.0,23.0,-35.0,60.0,-1.0,21.0,-982.0,53.0
-3.0,-252.0,26.0,-34.0,60.0,-1.0,15.0,-983.0,54.0
-1.0,-256.0,23.0,-35.0,59.0,-2.0,14.0,-990.0,58.0
-2.0,-251.0,27.0,-35.0,60.0,-2.0,16.0,-979.0,58.0
-5.0,-255.0,24.0,-36.0,59.0,-2.0,14.0,-986.0,56.0
-3.0,-255.0,21.0,-37.0,57.0,0.0,17.0,-983.0,53.0
-2.0,-254.0,25.0,-38.0,56.0,-1.0,18.0,-974.0,55.0
-1.0,-257.0,24.0,-41.0,56.0,-1.0,15.0,-977.0,52.0
-4.0,-255.0,24.0,-43.0,56.0,0.0,14.0,-983.0,54.0
-2.0,-252.0,23.0,-45.0,54.0,-2.0,20.0,-986.0,54.0
-2.0,-255.0,26.0,-46.0,55.0,-2.0,19.0,-983.0,52.0
-2.0,-255.0,29.0,-45.0,55.0,-1.0,16.0,-985.0,55.0
0.0,-254.0,23.0,-43.0,53.0,-2.0,18.0,-979.0,59.0
-1.0,-251.0,23.0,-42.0,52.0,-2.0,21.0,-984.0,57.0
-4.0,-253.0,23.0,-44.0,52.0,-2.0,21.0,-970.0,57.0
0.0,-254.0,26.0,-46.0,53.0,-1.0,19.0,-980.0,56.0
-1.0,-254.0,23.0,-49.0,53.0,-2.0,18.0,-977.0,53.0
-2.0,-253.0,24.0,-54.0,51.0,-1.0,15.0,-978.0,53.0
-2.0,-254.0,24.0,-58.0,52.0,-1.0,14.0,-991.0,52.0
-3.0,-255.0,25.0,-60.0,51.0,-1.0,17.0,-984.0,55.0
-2.0,-255.0,22.0,-58.0,52.0,1.0,19.0,-985.0,55.0
-3.0,-254.0,24.0,-56.0,52.0,1.0,21.0,-984.0,52.0
0.0,-257.0,22.0,-53.0,51.0,0.0,20.0,-992.0,55.0
-1.0,-258.0,22.0,-50.0,51.0,1.0,20.0,-992.0,58.0
0.0,-256.0,23.0,-47.0,50.0,2.0,23.0,-997.0,53.0
-2.0,-253.0,20.0,-45.0,50.0,2.0,21.0,-984.0,54.0
-2.0,-253.0,24.0,-44.0,49.0,1.0,27.0,-985.0,54.0
-2.0,-257.0,23.0,-43.0,51.0,2.0,18.0,-987.0,54.0
-5.0,-253.0,22.0,-44.0,53.0,0.0,21.0,-983.0,54.0
-3.0,-253.0,22.0,-44.0,53.0,1.0,20.0,-976.0,49.0
0.0,-254.0,24.0,-45.0,57.0,0.0,16.0,-981.0,54.0
-6.0,-254.0,26.0,-46.0,57.0,0.0,19.0,-991.0,52.0
-1.0,-255.0,23.0,-46.0,58.0,-1.0,18.0,-980.0,51.0
-3.0,-255.0,23.0,-46.0,59.0,0.0,21.0,-981.0,56.0
0.0,-256.0,22.0,-44.0,60.0,1.0,26.0,-981.0,50.0
-2.0,-256.0,22.0,-42.0,59.0,1.0,22.0,-982.0,51.0
0.0,-256.0,19.0,-40.0,58.0,-1.0,18.0,-991.0,47.0
-1.0,-253.0,20.0,-40.0,57.0,-2.0,20.0,-985.0,50.0
-5.0,-253.0,19.0,-40.0,57.0,-3.0,20.0,-978.0,53.0
-2.0,-253.0,22.0,-42.0,56.0,-2.0,18.0,-983.0,48.0
-5.0,-255.0,22.0,-43.0,56.0,-2.0,18.0,-977.0,48.0
-3.0,-256.0,24.0,-43.0,59.0,-1.0,17.0,-980.0,52.0
-4.0,-255.0,23.0,-44.0,60.0,0.0,15.0,-996.0,54.0
-5.0,-255.0,22.0,-44.0,59.0,-1.0,16.0,-992.0,49.0
-3.0,-256.0,20.0,-44.0,58.0,-1.0,16.0,-995.0,47.0
0.0,-256.0,20.0,-40.0,58.0,-2.0,14.0,-992.0,49.0
-3.0,-257.0,21.0,-40.0,58.0,-2.0,16.0,-987.0,46.0
-1.0,-256.0,22.0,-37.0,58.0,-4.0,15.0,-992.0,48.0
-2.0,-254.0,23.0,-35.0,57.0,-6.0,18.0,-983.0,47.0
-1.0,-254.0,22.0,-33.0,57.0,-7.0,18.0,-980.0,48.0
-1.0,-254.0,17.0,-31.0,58.0,-6.0,19.0,-980.0,43.0
-2.0,-253.0,20.0,-32.0,58.0,-5.0,19.0,-973.0,44.0
-2.0,-253.0,18.0,-35.0,57.0,-6.0,19.0,-978.0,45.0
-3.0,-255.0,21.0,-38.0,59.0,-6.0,20.0,-981.0,46.0
-3.0,-254.0,21.0,-40.0,62.0,-7.0,21.0,-986.0,46.0
-4.0,-259.0,20.0,-40.0,63.0,-5.0,21.0,-994.0,48.0
-5.0,-258.0,26.0,-39.0,64.0,-7.0,22.0,-987.0,49.0
-3.0,-255.0,20.0,-36.0,64.0,-6.0,16.0,-993.0,50.0
-4.0,-251.0,21.0,-34.0,63.0,-7.0,20.0,-994.0,52.0
-2.0,-254.0,21.0,-32.0,62.0,-5.0,17.0,-987.0,46.0
-2.0,-256.0,22.0,-33.0,61.0,-4.0,19.0,-984.0,48.0
-2.0,-254.0,18.0,-36.0,62.0,-3.0,15.0,-985.0,47.0
-3.0,-256.0,18.0,-38.0,64.0,-4.0,19.0,-981.0,44.0
-4.0,-251.0,20.0,-39.0,64.0,-5.0,17.0,-981.0,43.0
-3.0,-255.0,20.0,-38.0,66.0,-5.0,16.0,-982.0,40.0
0.0,-256.0,16.0,-38.0,67.0,-4.0,16.0,-989.0,44.0
-1.0,-255.0,22.0,-36.0,67.0,-4.0,19.0,-994.0,43.0
-1.0,-258.0,23.0,-34.0,68.0,-3.0,22.0,-982.0,43.0
-3.0,-253.0,21.0,-32.0,69.0,-4.0,22.0,-981.0,43.0
0.0,-251.0,20.0,-30.0,71.0,-3.0,26.0,-986.0,41.0
1.0,-256.0,20.0,-31.0,72.0,-2.0,29.0,-980.0,39.0
-1.0,-252.0,15.0,-33.0,75.0,-3.0,32.0,-980.0,35.0
0.0,-256.0,18.0,-35.0,79.0,-4.0,27.0,-986.0,36.0
0.0,-256.0,17.0,-37.0,83.0,-4.0,26.0,-985.0,37.0
-2.0,-255.0,20.0,-36.0,86.0,-6.0,25.0,-992.0,44.0
0.0,-254.0,19.0,-33.0,87.0,-7.0,22.0,-984.0,47.0
-1.0,-255.0,21.0,-29.0,88.0,-9.0,24.0,-983.0,46.0
-3.0,-254.0,23.0,-24.0,90.0,-9.0,19.0,-985.0,43.0
-4.0,-249.0,20.0,-21.0,90.0,-9.0,20.0,-978.0,49.0
0.0,-252.0,18.0,-20.0,90.0,-9.0,18.0,-978.0,41.0
-2.0,-249.0,20.0,-21.0,90.0,-9.0,17.0,-975.0,43.0
-2.0,-256.0,20.0,-26.0,90.0,-9.0,18.0,-983.0,43.0
-3.0,-254.0,20.0,-32.0,92.0,-11.0,20.0,-974.0,40.0
-2.0,-253.0,21.0,-35.0,92.0,-12.0,23.0,-994.0,41.0
-4.0,-256.0,21.0,-37.0,94.0,-13.0,19.0,-986.0,37.0
-7.0,-255.0,16.0,-37.0,93.0,-13.0,19.0,-998.0,38.0
0.0,-258.0,17.0,-33.0,92.0,-14.0,19.0,-991.0,38.0
-3.0,-256.0,20.0,-31.0,91.0,-14.0,21.0,-1007.0,40.0
-1.0,-258.0,18.0,-28.0,93.0,-15.0,19.0,-999.0,40.0
0.0,-258.0,18.0,-27.0,95.0,-16.0,19.0,-1003.0,38.0
-3.0,-256.0,21.0,-22.0,94.0,-14.0,17.0,-1003.0,39.0
-1.0,-260.0,21.0,-17.0,93.0,-14.0,17.0,-1005.0,40.0
-4.0,-255.0,22.0,-11.0,93.0,-15.0,13.0,-1001.0,45.0
-2.0,-256.0,20.0,-7.0,94.0,-15.0,15.0,-993.0,42.0
-4.0,-254.0,20.0,-3.0,95.0,-13.0,20.0,-994.0,43.0
-2.0,-256.0,19.0,-3.0,95.0,-13.0,11.0,-994.0,43.0
-2.0,-257.0,21.0,0.0,95.0,-13.0,15.0,-992.0,34.0
-2.0,-258.0,16.0,1.0,95.0,-12.0,18.0,-993.0,35.0
-4.0,-257.0,16.0,3.0,97.0,-12.0,19.0,-996.0,31.0
-1.0,-255.0,16.0,5.0,99.0,-11.0,18.0,-997.0,33.0
-3.0,-255.0,21.0,4.0,99.0,-12.0,25.0,-993.0,38.0
-1.0,-256.0,19.0,3.0,101.0,-11.0,23.0,-985.0,42.0
1.0,-265.0,19.0,0.0,99.0,-11.0,20.0,-985.0,44.0
-2.0,-254.0,22.0,0.0,94.0,-9.0,21.0,-987.0,47.0
-3.0,-255.0,23.0,2.0,90.0,-9.0,18.0,-988.0,41.0
-6.0,-256.0,22.0,4.0,88.0,-8.0,11.0,-1002.0,47.0
-4.0,-257.0,15.0,7.0,87.0,-8.0,16.0,-1005.0,40.0
-2.0,-260.0,20.0,9.0,85.0,-9.0,11.0,-1002.0,40.0
-6.0,-257.0,23.0,12.0,84.0,-6.0,16.0,-1002.0,42.0
-6.0,-257.0,22.0,15.0,82.0,-7.0,11.0,-997.0,47.0
-4.0,-256.0,15.0,17.0,81.0,-6.0,15.0,-990.0,43.0
-4.0,-254.0,25.0,20.0,80.0,-5.0,14.0,-992.0,45.0
-1.0,-257.0,18.0,21.0,79.0,-3.0,15.0,-983.0,41.0
-4.0,-255.0,20.0,20.0,77.0,-3.0,18.0,-986.0,38.0
-4.0,-257.0,21.0,19.0,74.0,-1.0,11.0,-984.0,38.0
-5.0,-255.0,20.0,18.0,74.0,0.0,12.0,-993.0,32.0
-3.0,-258.0,15.0,19.0,74.0,0.0,8.0,-1001.0,37.0
-5.0,-257.0,16.0,22.0,72.0,1.0,12.0,-1001.0,37.0
-2.0,-259.0,18.0,24.0,70.0,-2.0,11.0,-1004.0,34.0
-8.0,-255.0,19.0,30.0,69.0,-1.0,11.0,-1001.0,34.0
-1.0,-256.0,20.0,33.0,68.0,-2.0,14.0,-994.0,35.0
-3.0,-255.0,19.0,34.0,65.0,-2.0,13.0,-996.0,35.0
-3.0,-254.0,15.0,34.0,66.0,0.0,20.0,-998.0,34.0
-2.0,-255.0,15.0,33.0,65.0,0.0,18.0,-991.0,32.0
-3.0,-255.0,21.0,33.0,65.0,0.0,14.0,-976.0,36.0
-4.0,-255.0,16.0,30.0,63.0,0.0,17.0,-981.0,33.0
-5.0,-251.0,19.0,25.0,62.0,0.0,16.0,-980.0,36.0
-4.0,-255.0,17.0,23.0,60.0,0.0,15.0,-984.0,31.0
-3.0,-251.0,18.0,20.0,60.0,-1.0,12.0,-982.0,31.0
-2.0,-253.0,13.0,18.0,60.0,0.0,15.0,-983.0,29.0
-3.0,-255.0,18.0,15.0,61.0,1.0,18.0,-982.0,39.0
0.0,-253.0,20.0,14.0,61.0,0.0,16.0,-977.0,38.0
-1.0,-251.0,19.0,13.0,63.0,0.0,17.0,-974.0,39.0
-1.0,-253.0,17.0,10.0,65.0,0.0,15.0,-972.0,40.0
-3.0,-252.0,20.0,4.0,66.0,1.0,18.0,-972.0,39.0
-2.0,-251.0,20.0,-3.0,70.0,1.0,17.0,-970.0,34.0
0.0,-252.0,16.0,-12.0,69.0,1.0,22.0,-977.0,32.0
-3.0,-254.0,18.0,-18.0,71.0,4.0,28.0,-976.0,32.0
-2.0,-256.0,19.0,-23.0,72.0,4.0,29.0,-977.0,33.0
-1.0,-256.0,17.0,-25.0,76.0,0.0,32.0,-983.0,37.0
0.0,-254.0,18.0,-24.0,76.0,-1.0,28.0,-983.0,39.0
0.0,-256.0,18.0,-21.0,76.0,-3.0,29.0,-985.0,41.0
-1.0,-253.0,17.0,-22.0,74.0,-5.0,25.0,-983.0,40.0
-1.0,-253.0,22.0,-24.0,73.0,-8.0,21.0,-979.0,38.0
-1.0,-253.0,22.0,-29.0,75.0,-8.0,20.0,-977.0,37.0
0.0,-251.0,27.0,-34.0,75.0,-8.0,18.0,-981.0,34.0
-4.0,-252.0,17.0,-38.0,75.0,-9.0,22.0,-979.0,39.0
-3.0,-255.0,16.0,-37.0,74.0,-11.0,18.0,-978.0,37.0
0.0,-256.0,19.0,-36.0,74.0,-11.0,26.0,-979.0,40.0
-3.0,-250.0,17.0,-32.0,77.0,-10.0,21.0,-981.0,38.0
-3.0,-254.0,21.0,-31.0,76.0,-10.0,22.0,-980.0,33.0
-1.0,-253.0,15.0,-31.0,75.0,-8.0,20.0,-977.0,34.0
0.0,-255.0,20.0,-36.0,74.0,-8.0,23.0,-981.0,27.0
0.0,-254.0,18.0,-39.0,76.0,-6.0,24.0,-993.0,31.0
-2.0,-255.0,16.0,-40.0,74.0,-4.0,27.0,-994.0,38.0
-1.0,-256.0,20.0,-40.0,77.0,-4.0,29.0,-995.0,33.0
-4.0,-258.0,17.0,-36.0,77.0,-3.0,24.0,-1002.0,31.0
-3.0,-257.0,20.0,-33.0,76.0,-5.0,29.0,-1002.0,34.0
-1.0,-256.0,22.0,-30.0,73.0,-3.0,22.0,-994.0,37.0
-1.0,-257.0,18.0,-28.0,70.0,-5.0,23.0,-1000.0,37.0
-5.0,-256.0,17.0,-25.0,68.0,-6.0,23.0,-1004.0,33.0
0.0,-258.0,17.0,-21.0,66.0,-7.0,23.0,-988.0,35.0
0.0,-255.0,18.0,-21.0,64.0,-7.0,23.0,-988.0,32.0
-2.0,-255.0,20.0,-21.0,63.0,-7.0,20.0,-985.0,41.0
0.0,-255.0,20.0,-24.0,62.0,-7.0,17.0,-985.0,40.0
-4.0,-253.0,21.0,-24.0,61.0,-8.0,20.0,-990.0,41.0
0.0,-254.0,22.0,-26.0,60.0,-8.0,23.0,-982.0,37.0
2.0,-260.0,24.0,-26.0,61.0,-8.0,23.0,-982.0,33.0
-5.0,-253.0,18.0,-29.0,60.0,-7.0,23.0,-982.0,38.0
-1.0,-256.0,19.0,-31.0,59.0,-9.0,17.0,-980.0,34.0
-1.0,-252.0,18.0,-33.0,56.0,-8.0,23.0,-975.0,35.0
-1.0,-252.0,18.0,-35.0,53.0,-6.0,20.0,-981.0,35.0
-1.0,-254.0,18.0,-38.0,51.0,-4.0,26.0,-976.0,36.0
-3.0,-254.0,18.0,-40.0,51.0,-4.0,25.0,-981.0,40.0
-3.0,-255.0,19.0,-43.0,51.0,-3.0,19.0,-990.0,40.0
-1.0,-256.0,17.0,-42.0,51.0,-2.0,25.0,-987.0,41.0
-5.0,-253.0,19.0,-42.0,51.0,-2.0,21.0,-984.0,37.0
0.0,-254.0,19.0,-42.0,51.0,-1.0,24.0,-981.0,37.0
-4.0,-253.0,18.0,-42.0,51.0,-1.0,25.0,-984.0,37.0
0.0,-255.0,17.0,-43.0,51.0,-3.0,23.0,-981.0,41.0
-1.0,-252.0,20.0,-46.0,52.0,-3.0,18.0,-982.0,38.0
-3.0,-257.0,20.0,-50.0,53.0,-4.0,23.0,-981.0,37.0
0.0,-254.0,20.0,-54.0,52.0,-3.0,16.0,-979.0,41.0
0.0,-255.0,19.0,-56.0,51.0,-2.0,20.0,-983.0,38.0
0.0,-255.0,19.0,-54.0,51.0,-4.0,21.0,-984.0,37.0
-1.0,-258.0,20.0,-54.0,54.0,-5.0,22.0,-987.0,38.0
0.0,-257.0,16.0,-54.0,54.0,-3.0,31.0,-994.0,33.0
-1.0,-257.0,17.0,-56.0,54.0,-3.0,28.0,-998.0,39.0
0.0,-256.0,18.0,-56.0,57.0,-3.0,30.0,-993.0,37.0
-6.0,-255.0,16.0,-54.0,58.0,-4.0,33.0,-991.0,35.0
-1.0,-255.0,17.0,-50.0,59.0,-5.0,26.0,-985.0,34.0
-1.0,-253.0,16.0,-49.0,60.0,-4.0,27.0,-983.0,38.0
0.0,-256.0,16.0,-48.0,60.0,-4.0,29.0,-992.0,31.0
0.0,-257.0,21.0,-50.0,61.0,-4.0,30.0,-987.0,33.0
-1.0,-256.0,18.0,-51.0,61.0,-4.0,25.0,-998.0,37.0
-1.0,-257.0,13.0,-51.0,62.0,-3.0,28.0,-992.0,41.0
-1.0,-257.0,17.0,-50.0,62.0,-2.0,26.0,-1005.0,37.0
0.0,-257.0,19.0,-46.0,63.0,-1.0,24.0,-1003.0,35.0
0.0,-252.0,13.0,-44.0,63.0,0.0,23.0,-998.0,28.0
-3.0,-255.0,19.0,-43.0,63.0,1.0,21.0,-1001.0,27.0
-2.0,-256.0,18.0,-44.0,64.0,0.0,25.0,-992.0,30.0
-3.0,-256.0,17.0,-43.0,64.0,1.0,25.0,-991.0,35.0
-1.0,-254.0,20.0,-42.0,65.0,2.0,25.0,-986.0,38.0
-1.0,-253.0,20.0,-41.0,64.0,1.0,18.0,-981.0,37.0
-2.0,-255.0,17.0,-39.0,68.0,0.0,26.0,-983.0,42.0
0.0,-256.0,18.0,-38.0,70.0,-2.0,24.0,-992.0,36.0
-2.0,-253.0,18.0,-36.0,74.0,-1.0,21.0,-987.0,36.0
0.0,-256.0,18.0,-34.0,77.0,-3.0,22.0,-998.0,32.0
1.0,-256.0,12.0,-33.0,78.0,-4.0,22.0,-993.0,32.0
0.0,-256.0,17.0,-35.0,81.0,-4.0,25.0,-987.0,30.0
1.0,-254.0,12.0,-37.0,84.0,-2.0,32.0,-981.0,33.0
-1.0,-255.0,15.0,-38.0,85.0,-3.0,26.0,-981.0,30.0
-2.0,-257.0,19.0,-40.0,87.0,-3.0,26.0,-995.0,23.0
-1.0,-260.0,17.0,-39.0,88.0,-2.0,22.0,-998.0,30.0
-1.0,-257.0,17.0,-36.0,91.0,-3.0,24.0,-1007.0,35.0
-1.0,-257.0,18.0,-30.0,90.0,-3.0,20.0,-993.0,36.0
0.0,-257.0,18.0,-26.0,90.0,-5.0,21.0,-992.0,36.0
-1.0,-255.0,18.0,-24.0,90.0,-5.0,19.0,-992.0,37.0
-4.0,-256.0,18.0,-24.0,90.0,-6.0,23.0,-991.0,35.0
-5.0,-253.0,16.0,-23.0,89.0,-6.0,17.0,-986.0,31.0
0.0,-255.0,16.0,-24.0,89.0,-6.0,21.0,-985.0,31.0
-2.0,-257.0,16.0,-26.0,89.0,-6.0,21.0,-997.0,30.0
-4.0,-258.0,13.0,-25.0,89.0,-6.0,20.0,-989.0,27.0
-6.0,-259.0,16.0,-23.0,89.0,-5.0,18.0,-1003.0,28.0
-3.0,-256.0,18.0,-20.0,88.0,-2.0,18.0,-1004.0,25.0
-3.0,-256.0,11.0,-16.0,90.0,0.0,17.0,-997.0,30.0
-3.0,-257.0,17.0,-12.0,92.0,2.0,16.0,-993.0,29.0
0.0,-254.0,14.0,-10.0,93.0,1.0,13.0,-992.0,35.0
-3.0,-255.0,16.0,-9.0,94.0,0.0,17.0,-992.0,32.0
-2.0,-257.0,13.0,-9.0,94.0,0.0,17.0,-983.0,33.0
-5.0,-258.0,18.0,-8.0,94.0,1.0,17.0,-991.0,28.0
-3.0,-257.0,21.0,-9.0,92.0,-1.0,14.0,-994.0,33.0
-16.0,-259.0,19.0,-7.0,91.0,-1.0,17.0,-995.0,32.0
-1.0,-260.0,18.0,-4.0,92.0,-2.0,19.0,-986.0,29.0
-3.0,-254.0,20.0,2.0,93.0,-5.0,19.0,-982.0,26.0
-1.0,-253.0,16.0,8.0,94.0,-6.0,21.0,-978.0,25.0
0.0,-252.0,18.0,10.0,94.0,-6.0,25.0,-982.0,30.0
-3.0,-253.0,16.0,10.0,94.0,-6.0,18.0,-975.0,30.0
-1.0,-251.0,15.0,6.0,94.0,-6.0,22.0,-982.0,25.0
-6.0,-255.0,17.0,3.0,94.0,-7.0,20.0,-982.0,19.0
-3.0,-256.0,17.0,0.0,93.0,-8.0,17.0,-986.0,21.0
0.0,-254.0,15.0,1.0,95.0,-8.0,17.0,-993.0,24.0
-4.0,-255.0,21.0,2.0,98.0,-7.0,20.0,-992.0,24.0
-4.0,-254.0,16.0,3.0,99.0,-8.0,14.0,-989.0,30.0
-4.0,-255.0,15.0,3.0,101.0,-9.0,18.0,-994.0,28.0
-2.0,-256.0,18.0,3.0,102.0,-9.0,22.0,-990.0,21.0
-3.0,-257.0,16.0,4.0,104.0,-10.0,20.0,-991.0,27.0
-5.0,-253.0,15.0,5.0,104.0,-11.0,14.0,-981.0,27.0
-2.0,-258.0,15.0,5.0,103.0,-11.0,17.0,-984.0,26.0
-4.0,-254.0,11.0,6.0,102.0,-11.0,14.0,-983.0,33.0
-5.0,-252.0,13.0,5.0,103.0,-10.0,18.0,-981.0,26.0
-4.0,-251.0,12.0,5.0,102.0,-10.0,12.0,-975.0,27.0
-7.0,-250.0,12.0,1.0,101.0,-11.0,15.0,-978.0,24.0
-1.0,-255.0,12.0,-2.0,100.0,-11.0,11.0,-981.0,21.0
-8.0,-258.0,13.0,-4.0,98.0,-11.0,13.0,-984.0,18.0
-5.0,-255.0,18.0,-7.0,97.0,-9.0,16.0,-996.0,22.0
-3.0,-256.0,14.0,-8.0,97.0,-9.0,14.0,-985.0,20.0
-2.0,-256.0,13.0,-10.0,96.0,-7.0,6.0,-988.0,20.0
-8.0,-258.0,16.0,-10.0,96.0,-7.0,12.0,-991.0,18.0
-6.0,-254.0,13.0,-9.0,95.0,-9.0,12.0,-997.0,21.0
-5.0,-257.0,12.0,-7.0,95.0,-8.0,10.0,-997.0,18.0
-4.0,-255.0,14.0,-5.0,94.0,-8.0,10.0,-992.0,23.0
-4.0,-257.0,16.0,-2.0,91.0,-7.0,11.0,-991.0,18.0
-7.0,-254.0,15.0,-1.0,90.0,-7.0,14.0,-990.0,15.0
-2.0,-255.0,11.0,-1.0,87.0,-8.0,13.0,-998.0,16.0
-6.0,-259.0,18.0,-3.0,84.0,-7.0,12.0,-1000.0,18.0
-4.0,-255.0,13.0,-3.0,83.0,-5.0,12.0,-1000.0,18.0
-6.0,-258.0,15.0,-2.0,81.0,-5.0,17.0,-994.0,20.0
0.0,-258.0,13.0,1.0,81.0,-3.0,12.0,-994.0,22.0
-4.0,-258.0,16.0,5.0,78.0,-3.0,15.0,-999.0,21.0
-2.0,-258.0,14.0,4.0,75.0,-3.0,18.0,-993.0,23.0
-2.0,-255.0,12.0,3.0,74.0,-3.0,16.0,-979.0,23.0
-3.0,-257.0,15.0,0.0,71.0,-3.0,18.0,-980.0,19.0
-2.0,-255.0,14.0,-2.0,70.0,-2.0,16.0,-979.0,23.0
-3.0,-253.0,14.0,-6.0,68.0,-1.0,17.0,-977.0,27.0
-1.0,-250.0,13.0,-10.0,65.0,-2.0,21.0,-978.0,23.0
0.0,-254.0,14.0,-15.0,63.0,-1.0,16.0,-978.0,20.0
-1.0,-252.0,18.0,-21.0,62.0,1.0,20.0,-981.0,24.0
-2.0,-254.0,18.0,-27.0,59.0,0.0,21.0,-981.0,23.0
0.0,-253.0,15.0,-32.0,58.0,-1.0,21.0,-1000.0,29.0
-1.0,-259.0,14.0,-32.0,55.0,0.0,24.0,-1000.0,29.0
0.0,-257.0,18.0,-32.0,55.0,1.0,28.0,-989.0,26.0
0.0,-259.0,16.0,-29.0,52.0,0.0,27.0,-1003.0,28.0
-2.0,-255.0,17.0,-26.0,51.0,1.0,24.0,-1003.0,28.0
-2.0,-254.0,15.0,-23.0,51.0,0.0,22.0,-985.0,25.0
-2.0,-255.0,12.0,-22.0,51.0,1.0,25.0,-986.0,24.0
-4.0,-253.0,11.0,-22.0,49.0,1.0,17.0,-979.0,22.0
-4.0,-254.0,15.0,-25.0,48.0,3.0,25.0,-980.0,23.0
-2.0,-254.0,14.0,-28.0,48.0,1.0,26.0,-984.0,24.0
-2.0,-256.0,15.0,-32.0,46.0,0.0,21.0,-995.0,30.0
0.0,-255.0,16.0,-34.0,46.0,2.0,21.0,-993.0,30.0
-1.0,-256.0,13.0,-34.0,46.0,2.0,20.0,-986.0,21.0
-2.0,-256.0,13.0,-34.0,45.0,3.0,25.0,-993.0,26.0
-1.0,-257.0,14.0,-32.0,44.0,3.0,22.0,-994.0,24.0
-5.0,-255.0,13.0,-27.0,43.0,5.0,22.0,-993.0,25.0
-2.0,-256.0,13.0,-24.0,44.0,3.0,18.0,-992.0,24.0
-1.0,-256.0,19.0,-23.0,44.0,3.0,20.0,-995.0,26.0
-8.0,-251.0,-4.0,-24.0,43.0,2.0,19.0,-991.0,29.0
-1.0,-254.0,18.0,-24.0,42.0,2.0,18.0,-991.0,35.0
8.0,-254.0,18.0,-24.0,42.0,1.0,21.0,-998.0,27.0
-5.0,-261.0,24.0,-22.0,43.0,0.0,24.0,-988.0,30.0
6.0,-252.0,11.0,-20.0,44.0,-1.0,27.0,-988.0,28.0
-4.0,-257.0,28.0,-19.0,44.0,1.0,26.0,-988.0,24.0
0.0,-255.0,12.0,-20.0,44.0,2.0,25.0,-992.0,22.0
5.0,-248.0,13.0,-20.0,48.0,2.0,30.0,-993.0,25.0
0.0,-247.0,9.0,-22.0,48.0,1.0,31.0,-987.0,23.0
-5.0,-255.0,9.0,-21.0,47.0,0.0,23.0,-989.0,31.0
-1.0,-256.0,7.0,-20.0,49.0,0.0,25.0,-983.0,27.0
0.0,-255.0,19.0,-20.0,48.0,-1.0,21.0,-993.0,23.0
0.0,-255.0,17.0,-21.0,48.0,-2.0,20.0,-982.0,27.0
-5.0,-256.0,14.0,-21.0,48.0,-2.0,22.0,-989.0,27.0
-1.0,-255.0,17.0,-23.0,49.0,-2.0,19.0,-990.0,28.0
10.0,-248.0,5.0,-24.0,48.0,-3.0,18.0,-994.0,30.0
-9.0,-271.0,14.0,-25.0,46.0,-3.0,8.0,-984.0,34.0
-7.0,-251.0,25.0,-26.0,46.0,-3.0,16.0,-987.0,37.0
-16.0,-259.0,20.0,-26.0,44.0,-3.0,9.0,-999.0,38.0
-8.0,-255.0,17.0,-28.0,41.0,-2.0,10.0,-994.0,32.0
-1.0,-266.0,17.0,-28.0,39.0,-1.0,12.0,-984.0,32.0
-2.0,-246.0,19.0,-27.0,39.0,-1.0,13.0,-990.0,29.0
-6.0,-257.0,17.0,-25.0,41.0,1.0,18.0,-990.0,25.0
-4.0,-250.0,15.0,-24.0,42.0,1.0,12.0,-984.0,26.0
-3.0,-257.0,14.0,-24.0,41.0,3.0,15.0,-976.0,32.0
-11.0,-260.0,21.0,-25.0,40.0,5.0,13.0,-983.0,30.0
-6.0,-252.0,17.0,-28.0,40.0,5.0,16.0,-980.0,31.0
-3.0,-253.0,20.0,-30.0,38.0,5.0,18.0,-981.0,32.0
-3.0,-253.0,19.0,-32.0,37.0,5.0,17.0,-984.0,32.0
-7.0,-256.0,19.0,-34.0,38.0,5.0,18.0,-985.0,35.0
-9.0,-251.0,21.0,-34.0,38.0,6.0,15.0,-985.0,37.0
-6.0,-248.0,19.0,-34.0,40.0,4.0,16.0,-997.0,35.0
-11.0,-255.0,7.0,-33.0,40.0,2.0,13.0,-983.0,31.0
-4.0,-251.0,23.0,-29.0,42.0,1.0,20.0,-989.0,35.0
7.0,-256.0,10.0,-30.0,43.0,0.0,17.0,-987.0,30.0
1.0,-252.0,19.0,-33.0,44.0,-1.0,18.0,-985.0,28.0
0.0,-254.0,27.0,-35.0,45.0,0.0,19.0,-986.0,32.0
-1.0,-260.0,13.0,-36.0,46.0,-1.0,23.0,-994.0,32.0
-2.0,-255.0,20.0,-37.0,49.0,1.0,20.0,-996.0,26.0
-3.0,-254.0,16.0,-35.0,52.0,-1.0,24.0,-993.0,33.0
-1.0,-262.0,18.0,-35.0,53.0,0.0,22.0,-997.0,32.0
-2.0,-257.0,14.0,-34.0,54.0,1.0,25.0,-1000.0,29.0
-1.0,-257.0,21.0,-31.0,55.0,0.0,28.0,-1003.0,36.0
-2.0,-256.0,19.0,-27.0,57.0,0.0,28.0,-1000.0,31.0
-1.0,-256.0,15.0,-24.0,59.0,1.0,24.0,-995.0,28.0
0.0,-259.0,18.0,-20.0,61.0,1.0,29.0,-994.0,29.0
-2.0,-259.0,14.0,-18.0,63.0,0.0,29.0,-990.0,29.0
-4.0,-250.0,21.0,-14.0,63.0,2.0,28.0,-991.0,28.0
1.0,-260.0,25.0,-11.0,65.0,1.0,26.0,-981.0,33.0
-2.0,-250.0,17.0,-8.0,67.0,0.0,23.0,-988.0,29.0
-4.0,-258.0,19.0,-8.0,69.0,0.0,25.0,-986.0,30.0
-1.0,-255.0,12.0,-7.0,72.0,0.0,20.0,-989.0,24.0
-3.0,-262.0,22.0,-6.0,74.0,-1.0,23.0,-995.0,26.0
0.0,-253.0,10.0,-7.0,76.0,-2.0,23.0,-999.0,25.0
-7.0,-259.0,13.0,-3.0,76.0,-1.0,22.0,-992.0,27.0
-3.0,-260.0,16.0,-1.0,77.0,-2.0,16.0,-991.0,23.0
-5.0,-249.0,13.0,1.0,79.0,-4.0,21.0,-990.0,25.0
-2.0,-254.0,14.0,4.0,80.0,-5.0,24.0,-994.0,25.0
-5.0,-255.0,15.0,6.0,81.0,-5.0,18.0,-981.0,28.0
-1.0,-255.0,14.0,5.0,84.0,-5.0,17.0,-983.0,24.0
-1.0,-256.0,13.0,4.0,83.0,-5.0,18.0,-993.0,25.0
-2.0,-256.0,19.0,4.0,83.0,-7.0,14.0,-995.0,22.0
-7.0,-247.0,5.0,3.0,82.0,-7.0,13.0,-992.0,23.0
1.0,-250.0,11.0,3.0,83.0,-6.0,18.0,-1001.0,19.0
-3.0,-251.0,13.0,2.0,85.0,-5.0,15.0,-1002.0,17.0
-3.0,-257.0,15.0,4.0,87.0,-4.0,17.0,-1001.0,16.0
-9.0,-256.0,14.0,4.0,89.0,-4.0,20.0,-997.0,18.0
0.0,-256.0,21.0,5.0,90.0,-3.0,17.0,-999.0,18.0
-1.0,-260.0,9.0,6.0,90.0,-4.0,19.0,-995.0,17.0
0.0,-261.0,9.0,6.0,90.0,-4.0,19.0,-990.0,21.0
-4.0,-258.0,14.0,6.0,93.0,-3.0,22.0,-993.0,15.0
-8.0,-255.0,9.0,5.0,93.0,-3.0,23.0,-983.0,17.0
-3.0,-256.0,13.0,5.0,95.0,-3.0,25.0,-983.0,16.0
-1.0,-256.0,15.0,3.0,93.0,-4.0,19.0,-984.0,16.0
1.0,-256.0,14.0,1.0,93.0,-4.0,24.0,-982.0,16.0
0.0,-254.0,10.0,-4.0,94.0,-4.0,26.0,-982.0,14.0
-6.0,-259.0,13.0,-9.0,96.0,-6.0,21.0,-984.0,18.0
-2.0,-255.0,18.0,-11.0,96.0,-6.0,23.0,-992.0,20.0
0.0,-251.0,13.0,-11.0,94.0,-7.0,19.0,-985.0,20.0
-6.0,-257.0,12.0,-13.0,93.0,-7.0,19.0,-979.0,18.0
-6.0,-254.0,19.0,-15.0,90.0,-9.0,18.0,-981.0,18.0
-6.0,-251.0,17.0,-18.0,91.0,-8.0,14.0,-980.0,14.0
-4.0,-260.0,12.0,-24.0,92.0,-7.0,16.0,-985.0,15.0
-5.0,-253.0,11.0,-30.0,90.0,-7.0,12.0,-992.0,13.0
-1.0,-252.0,14.0,-34.0,89.0,-5.0,15.0,-984.0,13.0
-5.0,-259.0,6.0,-36.0,89.0,-5.0,16.0,-991.0,10.0
-2.0,-259.0,6.0,-37.0,87.0,-4.0,16.0,-989.0,11.0
4.0,-265.0,14.0,-36.0,87.0,-2.0,14.0,-992.0,11.0
-5.0,-256.0,12.0,-35.0,87.0,-1.0,14.0,-994.0,10.0
-10.0,-263.0,11.0,-35.0,84.0,-2.0,11.0,-982.0,15.0
-3.0,-254.0,14.0,-37.0,83.0,-3.0,14.0,-979.0,18.0
-4.0,-256.0,13.0,-40.0,80.0,-4.0,12.0,-980.0,17.0
-5.0,-252.0,13.0,-44.0,79.0,-5.0,12.0,-981.0,15.0
-5.0,-254.0,15.0,-51.0,77.0,-5.0,11.0,-978.0,13.0
-15.0,-251.0,22.0,-55.0,73.0,-7.0,10.0,-984.0,16.0
-1.0,-255.0,14.0,-58.0,73.0,-7.0,19.0,-987.0,17.0
-1.0,-257.0,11.0,-58.0,71.0,-5.0,18.0,-979.0,19.0
-4.0,-255.0,16.0,-60.0,71.0,-5.0,18.0,-986.0,19.0
-9.0,-257.0,16.0,-60.0,71.0,-5.0,16.0,-993.0,20.0
-3.0,-255.0,12.0,-59.0,68.0,-5.0,16.0,-993.0,21.0
0.0,-257.0,13.0,-59.0,66.0,-4.0,19.0,-987.0,24.0
-3.0,-255.0,11.0,-59.0,63.0,-2.0,18.0,-979.0,20.0
-6.0,-255.0,17.0,-62.0,61.0,-1.0,19.0,-988.0,19.0
-7.0,-270.0,17.0,-63.0,60.0,-2.0,19.0,-983.0,20.0
-5.0,-255.0,15.0,-64.0,60.0,-1.0,15.0,-989.0,19.0
-3.0,-254.0,16.0,-66.0,61.0,0.0,13.0,-992.0,18.0
-5.0,-255.0,14.0,-67.0,59.0,2.0,20.0,-988.0,22.0
-3.0,-255.0,16.0,-65.0,59.0,0.0,17.0,-987.0,14.0
2.0,-257.0,13.0,-63.0,59.0,1.0,20.0,-987.0,18.0
-3.0,-257.0,12.0,-58.0,60.0,0.0,21.0,-994.0,14.0
-1.0,-256.0,12.0,-57.0,60.0,0.0,17.0,-1006.0,16.0
0.0,-259.0,12.0,-56.0,58.0,0.0,17.0,-1005.0,16.0
0.0,-258.0,13.0,-56.0,57.0,0.0,13.0,-1002.0,21.0
-1.0,-259.0,11.0,-55.0,56.0,0.0,12.0,-1003.0,28.0
-4.0,-258.0,16.0,-52.0,52.0,0.0,10.0,-994.0,25.0
-3.0,-258.0,11.0,-48.0,52.0,-1.0,18.0,-1004.0,20.0
-1.0,-256.0,13.0,-47.0,51.0,-1.0,12.0,-998.0,19.0
-6.0,-257.0,15.0,-46.0,50.0,-1.0,12.0,-995.0,18.0
-2.0,-254.0,11.0,-45.0,49.0,-1.0,15.0,-995.0,16.0
-6.0,-255.0,11.0,-47.0,49.0,-1.0,15.0,-979.0,12.0
-4.0,-257.0,12.0,-49.0,50.0,-1.0,16.0,-993.0,10.0
-2.0,-255.0,9.0,-49.0,53.0,0.0,16.0,-985.0,19.0
-2.0,-256.0,19.0,-51.0,54.0,-2.0,16.0,-983.0,11.0
-3.0,-254.0,11.0,-55.0,53.0,-2.0,17.0,-991.0,16.0
-2.0,-255.0,11.0,-58.0,53.0,0.0,12.0,-983.0,15.0
-2.0,-254.0,11.0,-58.0,53.0,1.0,13.0,-981.0,15.0
-2.0,-254.0,13.0,-58.0,51.0,1.0,9.0,-981.0,17.0
-6.0,-254.0,12.0,-56.0,48.0,1.0,15.0,-985.0,11.0
-3.0,-254.0,11.0,-57.0,46.0,1.0,14.0,-986.0,13.0
-5.0,-255.0,9.0,-63.0,47.0,3.0,13.0,-986.0,14.0
-3.0,-257.0,8.0,-69.0,47.0,3.0,19.0,-1001.0,8.0
-1.0,-253.0,13.0,-71.0,47.0,5.0,15.0,-999.0,11.0
-4.0,-256.0,9.0,-70.0,46.0,5.0,15.0,-1006.0,8.0
-3.0,-259.0,11.0,-67.0,45.0,6.0,8.0,-1005.0,9.0
-3.0,-256.0,11.0,-63.0,42.0,7.0,12.0,-999.0,8.0
-7.0,-257.0,12.0,-59.0,41.0,8.0,10.0,-1002.0,10.0
-5.0,-254.0,10.0,-53.0,40.0,8.0,11.0,-994.0,10.0
0.0,-257.0,8.0,-50.0,41.0,9.0,11.0,-995.0,1.0
-1.0,-258.0,11.0,-46.0,42.0,9.0,13.0,-987.0,5.0
-3.0,-255.0,9.0,-42.0,43.0,10.0,17.0,-985.0,1.0
-3.0,-254.0,9.0,-43.0,43.0,10.0,16.0,-985.0,4.0
-2.0,-258.0,11.0,-46.0,45.0,10.0,16.0,-981.0,2.0
-1.0,-256.0,12.0,-51.0,46.0,12.0,17.0,-984.0,6.0
-2.0,-257.0,8.0,-56.0,43.0,12.0,16.0,-1003.0,6.0
-2.0,-259.0,14.0,-56.0,42.0,11.0,17.0,-999.0,14.0
-1.0,-256.0,12.0,-53.0,38.0,12.0,17.0,-1000.0,8.0
-4.0,-258.0,10.0,-49.0,36.0,10.0,19.0,-998.0,12.0
-4.0,-257.0,14.0,-45.0,36.0,10.0,17.0,-1001.0,15.0
-3.0,-257.0,14.0,-44.0,38.0,10.0,15.0,-988.0,14.0
-2.0,-257.0,8.0,-42.0,37.0,11.0,15.0,-989.0,11.0
-3.0,-254.0,12.0,-42.0,39.0,12.0,17.0,-987.0,9.0
-1.0,-254.0,13.0,-44.0,40.0,11.0,20.0,-987.0,6.0
-6.0,-259.0,12.0,-44.0,40.0,12.0,15.0,-993.0,1.0
-2.0,-255.0,13.0,-45.0,42.0,14.0,19.0,-993.0,0.0
-3.0,-258.0,13.0,-44.0,42.0,14.0,16.0,-999.0,4.0
-5.0,-258.0,8.0,-41.0,42.0,12.0,21.0,-1006.0,1.0
-3.0,-258.0,8.0,-38.0,41.0,10.0,20.0,-1002.0,1.0
-2.0,-258.0,8.0,-29.0,39.0,7.0,20.0,-1002.0,-4.0
-1.0,-257.0,6.0,-22.0,39.0,7.0,17.0,-1005.0,-7.0
0.0,-260.0,3.0,-17.0,38.0,4.0,15.0,-1009.0,-7.0
-6.0,-255.0,5.0,-11.0,38.0,2.0,16.0,-1002.0,-11.0
-5.0,-257.0,4.0,-8.0,37.0,0.0,14.0,-997.0,-16.0
-7.0,-261.0,3.0,-6.0,38.0,3.0,14.0,-1009.0,-12.0
0.0,-261.0,5.0,0.0,40.0,3.0,11.0,-1003.0,-22.0
-5.0,-257.0,2.0,7.0,40.0,3.0,14.0,-1009.0,-25.0
-2.0,-262.0,4.0,17.0,38.0,6.0,14.0,-1006.0,-33.0
-4.0,-258.0,0.0,25.0,36.0,7.0,16.0,-1011.0,-38.0
-3.0,-258.0,-2.0,35.0,36.0,8.0,20.0,-1011.0,-54.0
-1.0,-259.0,-6.0,42.0,38.0,9.0,22.0,-1007.0,-68.0
-1.0,-260.0,-14.0,49.0,41.0,11.0,25.0,-1013.0,-82.0
0.0,-259.0,-16.0,54.0,46.0,12.0,26.0,-1009.0,-92.0
0.0,-259.0,-17.0,55.0,50.0,13.0,25.0,-1009.0,-108.0
-2.0,-261.0,-20.0,50.0,57.0,13.0,26.0,-1009.0,-119.0
-6.0,-260.0,-20.0,34.0,64.0,12.0,12.0,-1008.0,-140.0
-9.0,-257.0,-38.0,9.0,64.0,10.0,6.0,-1002.0,-154.0
-4.0,-256.0,-29.0,-28.0,57.0,14.0,6.0,-1001.0,-176.0
-9.0,-255.0,-37.0,-80.0,45.0,19.0,-2.0,-996.0,-190.0
-11.0,-254.0,-45.0,-151.0,28.0,27.0,-15.0,-984.0,-213.0
-11.0,-250.0,-48.0,-235.0,12.0,40.0,-11.0,-966.0,-243.0
-14.0,-247.0,-56.0,-331.0,0.0,56.0,-21.0,-963.0,-262.0
-12.0,-247.0,-56.0,-426.0,-1.0,74.0,-25.0,-956.0,-275.0
-14.0,-248.0,-62.0,-513.0,6.0,93.0,-31.0,-962.0,-292.0
-13.0,-253.0,-65.0,-585.0,21.0,110.0,-35.0,-970.0,-294.0
-20.0,-249.0,-61.0,-646.0,35.0,128.0,-43.0,-966.0,-293.0
-22.0,-249.0,-61.0,-698.0,49.0,147.0,-60.0,-964.0,-292.0
-23.0,-249.0,-66.0,-746.0,54.0,166.0,-70.0,-963.0,-292.0
-28.0,-249.0,-67.0,-781.0,53.0,183.0,-81.0,-962.0,-309.0
-34.0,-247.0,-75.0,-794.0,45.0,200.0,-86.0,-964.0,-337.0
-27.0,-251.0,-79.0,-786.0,41.0,215.0,-83.0,-963.0,-364.0
-28.0,-248.0,-86.0,-766.0,37.0,224.0,-80.0,-947.0,-386.0
-24.0,-244.0,-88.0,-737.0,34.0,230.0,-74.0,-929.0,-416.0
-22.0,-234.0,-96.0,-710.0,30.0,234.0,-59.0,-915.0,-441.0
-17.0,-231.0,-106.0,-691.0,25.0,240.0,-50.0,-887.0,-459.0
-10.0,-222.0,-113.0,-679.0,25.0,247.0,-28.0,-849.0,-482.0
-9.0,-217.0,-111.0,-676.0,25.0,251.0,-6.0,-820.0,-500.0
-6.0,-202.0,-118.0,-683.0,23.0,244.0,14.0,-794.0,-509.0
-2.0,-198.0,-121.0,-705.0,19.0,224.0,25.0,-744.0,-533.0
5.0,-181.0,-126.0,-748.0,21.0,201.0,39.0,-710.0,-546.0
9.0,-177.0,-126.0,-816.0,28.0,176.0,56.0,-679.0,-558.0
7.0,-164.0,-128.0,-884.0,41.0,149.0,74.0,-643.0,-560.0
10.0,-157.0,-132.0,-935.0,54.0,121.0,61.0,-596.0,-573.0
5.0,-145.0,-138.0,-961.0,68.0,98.0,49.0,-551.0,-587.0
3.0,-133.0,-138.0,-976.0,80.0,76.0,30.0,-513.0,-589.0
1.0,-122.0,-135.0,-981.0,96.0,60.0,11.0,-462.0,-600.0
-5.0,-111.0,-135.0,-985.0,116.0,45.0,-8.0,-411.0,-581.0
-6.0,-100.0,-135.0,-990.0,130.0,29.0,-9.0,-361.0,-576.0
-8.0,-88.0,-131.0,-997.0,132.0,7.0,-14.0,-318.0,-569.0
-8.0,-73.0,-125.0,-1004.0,129.0,-10.0,-18.0,-271.0,-551.0
-7.0,-65.0,-122.0,-1002.0,127.0,-27.0,-19.0,-226.0,-525.0
-8.0,-53.0,-110.0,-988.0,125.0,-45.0,-20.0,-190.0,-483.0
-7.0,-49.0,-102.0,-960.0,124.0,-62.0,-20.0,-157.0,-444.0
-9.0,-36.0,-85.0,-932.0,123.0,-78.0,-26.0,-120.0,-395.0
-8.0,-26.0,-82.0,-918.0,117.0,-83.0,-24.0,-108.0,-375.0
9.0,-23.0,-51.0,-912.0,112.0,-78.0,39.0,-82.0,-248.0
20.0,-18.0,-31.0,-910.0,110.0,-91.0,75.0,-72.0,-171.0
28.0,-22.0,-15.0,-932.0,130.0,-103.0,115.0,-80.0,-101.0
36.0,-22.0,3.0,-981.0,170.0,-116.0,132.0,-88.0,-31.0
38.0,-35.0,14.0,-1041.0,220.0,-126.0,147.0,-110.0,32.0
35.0,-33.0,32.0,-1132.0,261.0,-123.0,154.0,-103.0,84.0
31.0,-41.0,36.0,-1217.0,300.0,-110.0,129.0,-159.0,113.0
27.0,-50.0,36.0,-1320.0,360.0,-97.0,118.0,-193.0,112.0
24.0,-52.0,37.0,-1435.0,421.0,-74.0,114.0,-208.0,118.0
27.0,-53.0,36.0,-1551.0,467.0,-56.0,136.0,-215.0,128.0
13.0,-55.0,38.0,-1663.0,487.0,-29.0,54.0,-208.0,114.0
13.0,-64.0,47.0,-1764.0,512.0,42.0,77.0,-228.0,154.0
7.0,-66.0,43.0,-1802.0,517.0,105.0,42.0,-243.0,144.0
-6.0,-68.0,42.0,-1810.0,509.0,156.0,-8.0,-264.0,128.0
-22.0,-75.0,41.0,-1826.0,506.0,198.0,-69.0,-284.0,142.0
-34.0,-81.0,47.0,-1840.0,496.0,228.0,-107.0,-305.0,158.0
-36.0,-85.0,40.0,-1831.0,472.0,251.0,-121.0,-305.0,125.0
-38.0,-83.0,15.0,-1790.0,451.0,276.0,-141.0,-305.0,55.0
-42.0,-88.0,3.0,-1731.0,448.0,297.0,-137.0,-324.0,-15.0
-35.0,-103.0,-6.0,-1660.0,459.0,309.0,-110.0,-366.0,-63.0
-27.0,-119.0,-9.0,-1576.0,469.0,320.0,-96.0,-422.0,-70.0
-26.0,-131.0,-8.0,-1465.0,479.0,319.0,-87.0,-471.0,-56.0
-25.0,-141.0,-13.0,-1306.0,488.0,304.0,-77.0,-520.0,-88.0
-26.0,-149.0,-8.0,-1119.0,515.0,291.0,-82.0,-539.0,-81.0
-41.0,-141.0,-12.0,-898.0,556.0,280.0,-143.0,-525.0,-80.0
-62.0,-140.0,-10.0,-688.0,571.0,283.0,-208.0,-534.0,-86.0
-81.0,-155.0,6.0,-547.0,520.0,294.0,-300.0,-568.0,-37.0
-129.0,-168.0,-4.0,-415.0,386.0,319.0,-449.0,-641.0,-40.0
-157.0,-191.0,0.0,-324.0,196.0,415.0,-559.0,-732.0,-36.0
-134.0,-221.0,4.0,-256.0,-11.0,556.0,-485.0,-844.0,-27.0
-169.0,-270.0,37.0,-218.0,-200.0,620.0,-605.0,-1041.0,96.0
-137.0,-375.0,102.0,-101.0,-388.0,693.0,-466.0,-1396.0,277.0
-80.0,-302.0,21.0,267.0,-586.0,678.0,-312.0,-1164.0,-2.0
39.0,-322.0,46.0,401.0,-596.0,561.0,155.0,-1224.0,137.0
33.0,-293.0,58.0,461.0,-380.0,422.0,163.0,-1112.0,191.0
79.0,-262.0,43.0,479.0,-246.0,475.0,343.0,-1017.0,122.0
94.0,-249.0,37.0,428.0,-103.0,475.0,376.0,-960.0,100.0
43.0,-230.0,30.0,347.0,0.0,333.0,210.0,-888.0,71.0
49.0,-225.0,4.0,286.0,15.0,185.0,223.0,-851.0,-8.0
49.0,-199.0,-12.0,207.0,4.0,39.0,207.0,-794.0,-64.0
68.0,-220.0,-21.0,104.0,24.0,-35.0,276.0,-808.0,-123.0
55.0,-269.0,3.0,56.0,78.0,-94.0,285.0,-962.0,-49.0
24.0,-272.0,36.0,185.0,42.0,-172.0,129.0,-1011.0,81.0
31.0,-291.0,45.0,497.0,-80.0,-254.0,179.0,-1065.0,140.0
-1.0,-308.0,32.0,858.0,-149.0,-378.0,17.0,-1150.0,106.0
-24.0,-318.0,27.0,1126.0,-143.0,-407.0,-61.0,-1214.0,68.0
-52.0,-297.0,-18.0,1226.0,-124.0,-393.0,-183.0,-1175.0,-60.0
-45.0,-277.0,-74.0,1162.0,-53.0,-281.0,-153.0,-1108.0,-303.0
-60.0,-270.0,-101.0,986.0,57.0,-166.0,-201.0,-1080.0,-435.0
-55.0,-271.0,-98.0,797.0,106.0,-68.0,-170.0,-1069.0,-452.0
-77.0,-292.0,-63.0,663.0,77.0,-26.0,-250.0,-1124.0,-356.0
-68.0,-316.0,-31.0,640.0,-75.0,-5.0,-227.0,-1194.0,-198.0
-44.0,-333.0,-15.0,769.0,-224.0,-7.0,-147.0,-1223.0,-99.0
-16.0,-329.0,-14.0,1009.0,-306.0,10.0,-65.0,-1248.0,-88.0
0.0,-322.0,-23.0,1245.0,-361.0,48.0,44.0,-1238.0,-127.0
26.0,-298.0,-82.0,1418.0,-392.0,93.0,126.0,-1180.0,-315.0
29.0,-294.0,-86.0,1417.0,-339.0,148.0,140.0,-1175.0,-389.0
37.0,-307.0,-98.0,1237.0,-182.0,157.0,162.0,-1197.0,-442.0
59.0,-338.0,-108.0,998.0,-63.0,161.0,240.0,-1298.0,-468.0
57.0,-361.0,-89.0,853.0,55.0,119.0,276.0,-1386.0,-412.0
69.0,-373.0,-71.0,842.0,132.0,31.0,294.0,-1425.0,-345.0
61.0,-388.0,-68.0,919.0,194.0,-75.0,267.0,-1460.0,-311.0
23.0,-398.0,-80.0,1015.0,253.0,-168.0,151.0,-1524.0,-354.0
-12.0,-398.0,-94.0,1067.0,303.0,-238.0,8.0,-1541.0,-428.0
-61.0,-398.0,-104.0,1029.0,334.0,-280.0,-175.0,-1567.0,-452.0
-88.0,-400.0,-93.0,931.0,340.0,-310.0,-320.0,-1567.0,-403.0
-111.0,-409.0,-67.0,813.0,319.0,-336.0,-392.0,-1595.0,-307.0
-126.0,-422.0,-53.0,754.0,259.0,-356.0,-433.0,-1633.0,-257.0
-119.0,-424.0,-47.0,794.0,174.0,-378.0,-427.0,-1627.0,-243.0
-122.0,-426.0,-55.0,930.0,98.0,-400.0,-406.0,-1611.0,-251.0
-86.0,-406.0,-47.0,1101.0,34.0,-413.0,-302.0,-1555.0,-230.0
-52.0,-396.0,-36.0,1255.0,-7.0,-402.0,-163.0,-1516.0,-191.0
-12.0,-377.0,-29.0,1352.0,-26.0,-382.0,-12.0,-1467.0,-179.0
16.0,-366.0,-31.0,1391.0,-38.0,-349.0,110.0,-1425.0,-176.0
34.0,-360.0,-40.0,1387.0,-38.0,-304.0,181.0,-1402.0,-199.0
52.0,-358.0,-46.0,1346.0,-16.0,-265.0,248.0,-1400.0,-223.0
55.0,-356.0,-50.0,1273.0,20.0,-243.0,252.0,-1391.0,-243.0
45.0,-365.0,-59.0,1188.0,68.0,-230.0,214.0,-1424.0,-269.0
21.0,-378.0,-63.0,1088.0,121.0,-228.0,143.0,-1458.0,-304.0
1.0,-387.0,-67.0,985.0,171.0,-226.0,54.0,-1503.0,-309.0
-28.0,-399.0,-63.0,892.0,208.0,-220.0,-34.0,-1543.0,-297.0
-45.0,-410.0,-59.0,830.0,230.0,-205.0,-107.0,-1585.0,-282.0
-53.0,-417.0,-52.0,805.0,230.0,-180.0,-159.0,-1622.0,-263.0
-57.0,-428.0,-47.0,808.0,219.0,-155.0,-174.0,-1641.0,-247.0
-58.0,-424.0,-35.0,829.0,190.0,-129.0,-166.0,-1653.0,-210.0
-52.0,-430.0,-20.0,867.0,143.0,-103.0,-156.0,-1658.0,-146.0
-44.0,-431.0,-9.0,916.0,83.0,-77.0,-125.0,-1663.0,-78.0
-37.0,-429.0,8.0,972.0,22.0,-55.0,-96.0,-1660.0,-11.0
-28.0,-422.0,28.0,1026.0,-30.0,-39.0,-59.0,-1631.0,56.0
-13.0,-410.0,37.0,1087.0,-66.0,-23.0,1.0,-1593.0,91.0
3.0,-401.0,37.0,1167.0,-91.0,-11.0,56.0,-1551.0,108.0
9.0,-385.0,45.0,1248.0,-102.0,-4.0,77.0,-1502.0,132.0
13.0,-374.0,54.0,1327.0,-96.0,0.0,95.0,-1451.0,158.0
17.0,-357.0,57.0,1401.0,-72.0,-8.0,106.0,-1385.0,172.0
17.0,-340.0,53.0,1467.0,-47.0,-25.0,109.0,-1336.0,164.0
10.0,-332.0,40.0,1518.0,-27.0,-38.0,90.0,-1281.0,139.0
2.0,-321.0,34.0,1552.0,-21.0,-44.0,62.0,-1256.0,81.0
-3.0,-319.0,27.0,1567.0,-21.0,-49.0,35.0,-1254.0,41.0
-5.0,-324.0,21.0,1569.0,-25.0,-48.0,11.0,-1250.0,39.0
5.0,-333.0,19.0,1563.0,-27.0,-44.0,63.0,-1287.0,49.0
44.0,-347.0,57.0,1581.0,-21.0,-41.0,212.0,-1340.0,168.0
39.0,-389.0,65.0,1612.0,1.0,-37.0,208.0,-1512.0,227.0
-32.0,-435.0,39.0,1593.0,32.0,-20.0,-70.0,-1681.0,116.0
-98.0,-488.0,43.0,1539.0,55.0,-9.0,-318.0,-1902.0,128.0
-145.0,-548.0,70.0,1445.0,35.0,7.0,-505.0,-2158.0,218.0
-167.0,-603.0,111.0,1262.0,-14.0,23.0,-585.0,-2381.0,370.0
-166.0,-659.0,174.0,1042.0,-75.0,24.0,-572.0,-2608.0,683.0
-133.0,-711.0,200.0,839.0,-139.0,23.0,-437.0,-2831.0,774.0
-84.0,-719.0,165.0,670.0,-131.0,4.0,-246.0,-2808.0,611.0
-42.0,-668.0,74.0,592.0,-66.0,-19.0,-98.0,-2550.0,215.0
-15.0,-570.0,-39.0,684.0,17.0,-6.0,-4.0,-2148.0,-225.0
-2.0,-449.0,-128.0,934.0,58.0,40.0,44.0,-1651.0,-561.0
12.0,-304.0,-162.0,1179.0,46.0,101.0,97.0,-1157.0,-710.0
24.0,-182.0,-169.0,1211.0,1.0,155.0,130.0,-734.0,-729.0
23.0,-110.0,-153.0,945.0,-33.0,186.0,130.0,-474.0,-668.0
18.0,-87.0,-113.0,528.0,-34.0,195.0,90.0,-383.0,-511.0
10.0,-111.0,-61.0,154.0,-14.0,170.0,52.0,-434.0,-307.0
3.0,-154.0,1.0,-19.0,26.0,113.0,26.0,-560.0,-67.0
5.0,-182.0,28.0,-21.0,87.0,50.0,46.0,-665.0,60.0
8.0,-194.0,39.0,22.0,147.0,-3.0,59.0,-734.0,113.0
15.0,-190.0,44.0,28.0,193.0,-43.0,88.0,-747.0,136.0
10.0,-185.0,47.0,-33.0,215.0,-66.0,83.0,-729.0,158.0
6.0,-179.0,53.0,-139.0,207.0,-74.0,64.0,-701.0,171.0
0.0,-168.0,61.0,-239.0,164.0,-72.0,39.0,-672.0,191.0
-7.0,-167.0,66.0,-316.0,102.0,-53.0,20.0,-654.0,212.0
-11.0,-175.0,76.0,-350.0,28.0,-29.0,5.0,-660.0,252.0
-13.0,-185.0,88.0,-325.0,-44.0,-9.0,-12.0,-690.0,305.0
-13.0,-196.0,105.0,-252.0,-106.0,3.0,-18.0,-733.0,353.0
-9.0,-212.0,111.0,-147.0,-156.0,6.0,-15.0,-796.0,411.0
-9.0,-224.0,120.0,-20.0,-186.0,0.0,-17.0,-844.0,438.0
-11.0,-232.0,128.0,124.0,-207.0,-9.0,-13.0,-888.0,470.0
-7.0,-243.0,127.0,276.0,-214.0,-18.0,2.0,-917.0,465.0
-11.0,-250.0,120.0,432.0,-216.0,-25.0,-2.0,-942.0,444.0
-8.0,-260.0,117.0,591.0,-214.0,-34.0,5.0,-974.0,419.0
-9.0,-262.0,103.0,742.0,-205.0,-45.0,12.0,-1007.0,373.0
-3.0,-264.0,95.0,880.0,-189.0,-63.0,15.0,-1022.0,335.0
-6.0,-266.0,80.0,995.0,-170.0,-84.0,10.0,-1026.0,302.0
-6.0,-261.0,78.0,1083.0,-150.0,-107.0,7.0,-1019.0,277.0
-8.0,-260.0,72.0,1142.0,-131.0,-125.0,4.0,-1015.0,251.0
-6.0,-259.0,68.0,1182.0,-109.0,-135.0,-2.0,-1004.0,240.0
-10.0,-256.0,67.0,1205.0,-92.0,-138.0,-10.0,-987.0,236.0
-17.0,-250.0,65.0,1220.0,-74.0,-133.0,-26.0,-977.0,241.0
-18.0,-251.0,65.0,1227.0,-61.0,-124.0,-38.0,-972.0,228.0
-17.0,-251.0,66.0,1222.0,-63.0,-117.0,-37.0,-977.0,225.0
-17.0,-250.0,64.0,1200.0,-64.0,-102.0,-39.0,-974.0,211.0
-18.0,-254.0,62.0,1162.0,-64.0,-87.0,-37.0,-985.0,196.0
-19.0,-254.0,55.0,1111.0,-63.0,-72.0,-37.0,-997.0,184.0
-18.0,-258.0,49.0,1052.0,-61.0,-66.0,-45.0,-1005.0,170.0
-18.0,-259.0,50.0,995.0,-61.0,-58.0,-40.0,-1016.0,159.0
-16.0,-257.0,45.0,944.0,-49.0,-50.0,-23.0,-1019.0,145.0
-9.0,-261.0,47.0,904.0,-37.0,-39.0,-20.0,-1018.0,130.0
-12.0,-257.0,41.0,880.0,-28.0,-29.0,-7.0,-1017.0,121.0
-4.0,-254.0,39.0,864.0,-23.0,-19.0,5.0,-989.0,115.0
-1.0,-252.0,35.0,848.0,-22.0,-11.0,25.0,-980.0,108.0
-1.0,-250.0,42.0,823.0,-22.0,-4.0,29.0,-964.0,115.0
2.0,-242.0,45.0,793.0,-16.0,-2.0,37.0,-948.0,127.0
5.0,-240.0,49.0,762.0,0.0,1.0,53.0,-922.0,153.0
6.0,-236.0,53.0,731.0,17.0,3.0,57.0,-914.0,171.0
6.0,-232.0,61.0,703.0,32.0,1.0,64.0,-909.0,193.0
10.0,-234.0,61.0,681.0,43.0,-1.0,66.0,-897.0,220.0
6.0,-230.0,67.0,661.0,47.0,-3.0,62.0,-902.0,228.0
7.0,-233.0,71.0,641.0,52.0,-6.0,59.0,-905.0,247.0
6.0,-239.0,81.0,622.0,55.0,-5.0,55.0,-910.0,269.0
7.0,-235.0,83.0,610.0,61.0,-5.0,59.0,-912.0,296.0
6.0,-238.0,94.0,606.0,66.0,-9.0,55.0,-915.0,315.0
3.0,-235.0,94.0,610.0,71.0,-14.0,53.0,-917.0,335.0
3.0,-235.0,96.0,611.0,72.0,-17.0,51.0,-917.0,346.0
-3.0,-233.0,99.0,609.0,68.0,-13.0,28.0,-912.0,357.0
-3.0,-231.0,104.0,597.0,57.0,-6.0,20.0,-903.0,362.0
0.0,-230.0,100.0,579.0,51.0,0.0,24.0,-895.0,370.0
-1.0,-224.0,106.0,562.0,47.0,7.0,22.0,-884.0,381.0
0.0,-225.0,105.0,550.0,45.0,7.0,18.0,-873.0,386.0
-4.0,-223.0,108.0,540.0,39.0,7.0,24.0,-870.0,397.0
-2.0,-224.0,108.0,538.0,30.0,1.0,18.0,-866.0,404.0
-2.0,-223.0,108.0,540.0,21.0,-6.0,17.0,-863.0,395.0
-2.0,-223.0,109.0,548.0,18.0,-13.0,20.0,-859.0,407.0
-4.0,-220.0,112.0,557.0,16.0,-17.0,19.0,-860.0,412.0
-5.0,-220.0,113.0,569.0,12.0,-20.0,19.0,-855.0,418.0
-4.0,-221.0,113.0,581.0,8.0,-21.0,15.0,-851.0,413.0
-3.0,-219.0,112.0,593.0,5.0,-24.0,12.0,-851.0,426.0
-7.0,-217.0,119.0,598.0,0.0,-27.0,10.0,-851.0,438.0
-8.0,-214.0,121.0,594.0,-3.0,-26.0,7.0,-834.0,450.0
-4.0,-210.0,122.0,585.0,-4.0,-26.0,14.0,-823.0,453.0
-1.0,-208.0,124.0,574.0,-3.0,-25.0,17.0,-817.0,456.0
-3.0,-205.0,121.0,561.0,2.0,-22.0,15.0,-815.0,456.0
-3.0,-209.0,122.0,545.0,8.0,-25.0,14.0,-825.0,454.0
-2.0,-214.0,118.0,528.0,12.0,-27.0,17.0,-828.0,449.0
-7.0,-213.0,119.0,513.0,13.0,-27.0,10.0,-835.0,452.0
-4.0,-217.0,117.0,505.0,14.0,-27.0,13.0,-842.0,448.0
-3.0,-222.0,120.0,510.0,13.0,-26.0,11.0,-853.0,450.0
-5.0,-220.0,124.0,526.0,12.0,-23.0,14.0,-854.0,449.0
-4.0,-224.0,123.0,552.0,10.0,-23.0,12.0,-860.0,455.0
-2.0,-222.0,118.0,583.0,7.0,-23.0,14.0,-863.0,451.0
-6.0,-224.0,119.0,609.0,7.0,-25.0,22.0,-860.0,449.0
0.0,-221.0,120.0,631.0,4.0,-30.0,27.0,-850.0,447.0
0.0,-220.0,118.0,642.0,3.0,-32.0,33.0,-854.0,449.0
3.0,-217.0,121.0,645.0,3.0,-34.0,39.0,-846.0,444.0
8.0,-215.0,118.0,641.0,4.0,-36.0,43.0,-846.0,441.0
1.0,-216.0,117.0,628.0,3.0,-34.0,44.0,-844.0,443.0
3.0,-216.0,120.0,614.0,2.0,-34.0,47.0,-838.0,445.0
5.0,-218.0,120.0,598.0,2.0,-29.0,51.0,-841.0,442.0
6.0,-218.0,121.0,581.0,2.0,-24.0,50.0,-836.0,444.0
3.0,-215.0,118.0,564.0,3.0,-20.0,52.0,-840.0,438.0
1.0,-212.0,117.0,545.0,4.0,-17.0,46.0,-838.0,435.0
4.0,-215.0,118.0,520.0,5.0,-15.0,43.0,-841.0,435.0
3.0,-217.0,115.0,490.0,7.0,-15.0,36.0,-847.0,427.0
0.0,-217.0,114.0,458.0,9.0,-14.0,33.0,-847.0,418.0
3.0,-216.0,115.0,424.0,17.0,-13.0,29.0,-854.0,419.0
-2.0,-216.0,113.0,392.0,27.0,-11.0,33.0,-847.0,416.0
2.0,-217.0,113.0,367.0,39.0,-9.0,30.0,-852.0,425.0
0.0,-220.0,117.0,349.0,49.0,-9.0,37.0,-846.0,431.0
0.0,-216.0,116.0,336.0,57.0,-9.0,35.0,-847.0,442.0
-1.0,-218.0,118.0,326.0,62.0,-7.0,35.0,-848.0,445.0
-2.0,-218.0,121.0,317.0,65.0,0.0,26.0,-851.0,453.0
0.0,-218.0,118.0,305.0,67.0,5.0,28.0,-851.0,443.0
-1.0,-222.0,117.0,287.0,69.0,11.0,28.0,-862.0,439.0
-1.0,-221.0,117.0,262.0,67.0,13.0,28.0,-870.0,440.0
0.0,-223.0,120.0,231.0,63.0,14.0,13.0,-872.0,450.0
-5.0,-220.0,122.0,200.0,56.0,14.0,9.0,-870.0,452.0
-7.0,-222.0,123.0,171.0,52.0,17.0,9.0,-868.0,456.0
-2.0,-223.0,123.0,143.0,46.0,21.0,5.0,-864.0,454.0
-7.0,-222.0,121.0,117.0,45.0,25.0,13.0,-865.0,456.0
-7.0,-220.0,123.0,95.0,54.0,30.0,7.0,-868.0,450.0
-4.0,-222.0,120.0,75.0,61.0,34.0,8.0,-859.0,447.0
-7.0,-223.0,122.0,60.0,68.0,38.0,6.0,-860.0,455.0
-4.0,-221.0,122.0,50.0,73.0,39.0,14.0,-860.0,456.0
-7.0,-222.0,120.0,47.0,73.0,38.0,8.0,-865.0,453.0
-5.0,-224.0,125.0,48.0,73.0,39.0,9.0,-858.0,454.0
-7.0,-219.0,121.0,50.0,73.0,40.0,8.0,-856.0,453.0
-3.0,-223.0,119.0,49.0,73.0,42.0,10.0,-856.0,452.0
-4.0,-217.0,122.0,48.0,72.0,44.0,21.0,-852.0,453.0
-2.0,-218.0,124.0,46.0,73.0,48.0,24.0,-847.0,457.0
0.0,-218.0,124.0,45.0,74.0,48.0,20.0,-847.0,466.0
1.0,-219.0,123.0,45.0,72.0,49.0,23.0,-844.0,471.0
0.0,-219.0,130.0,41.0,69.0,47.0,21.0,-839.0,466.0
0.0,-216.0,125.0,38.0,65.0,41.0,22.0,-838.0,469.0
0.0,-213.0,122.0,31.0,64.0,38.0,21.0,-839.0,463.0
-3.0,-214.0,127.0,24.0,64.0,36.0,23.0,-836.0,467.0
-3.0,-217.0,125.0,16.0,68.0,32.0,18.0,-842.0,469.0
-1.0,-212.0,127.0,7.0,70.0,29.0,19.0,-841.0,474.0
-2.0,-216.0,126.0,-1.0,73.0,26.0,17.0,-836.0,476.0
-3.0,-213.0,130.0,-5.0,76.0,25.0,21.0,-833.0,480.0
-4.0,-215.0,129.0,-8.0,77.0,24.0,15.0,-835.0,483.0
-2.0,-218.0,132.0,-8.0,76.0,19.0,16.0,-840.0,489.0
-5.0,-216.0,129.0,-5.0,73.0,16.0,11.0,-843.0,483.0
-6.0,-217.0,128.0,1.0,70.0,14.0,7.0,-844.0,482.0
-6.0,-218.0,127.0,5.0,66.0,11.0,-2.0,-844.0,483.0
-9.0,-217.0,129.0,10.0,65.0,11.0,4.0,-842.0,487.0
-6.0,-216.0,127.0,17.0,63.0,11.0,2.0,-844.0,490.0
-8.0,-222.0,127.0,25.0,62.0,10.0,0.0,-844.0,487.0
-10.0,-219.0,128.0,33.0,64.0,9.0,-3.0,-848.0,480.0
-8.0,-219.0,129.0,43.0,64.0,7.0,-4.0,-845.0,484.0
-9.0,-217.0,125.0,50.0,65.0,4.0,-2.0,-848.0,479.0
-10.0,-217.0,126.0,57.0,67.0,1.0,-8.0,-841.0,476.0
-9.0,-217.0,125.0,60.0,71.0,-3.0,-6.0,-848.0,470.0
-9.0,-219.0,125.0,61.0,72.0,-5.0,-3.0,-850.0,467.0
-8.0,-219.0,126.0,61.0,74.0,-5.0,-2.0,-847.0,473.0
-10.0,-217.0,126.0,60.0,75.0,-7.0,-3.0,-851.0,468.0
-10.0,-215.0,123.0,55.0,75.0,-8.0,-3.0,-850.0,467.0
-5.0,-219.0,125.0,48.0,76.0,-6.0,3.0,-848.0,466.0
-7.0,-218.0,128.0,42.0,76.0,-7.0,10.0,-853.0,473.0
-5.0,-222.0,125.0,40.0,74.0,-7.0,12.0,-852.0,473.0
-2.0,-225.0,125.0,42.0,71.0,-8.0,16.0,-855.0,467.0
-1.0,-218.0,126.0,44.0,70.0,-8.0,13.0,-855.0,471.0
0.0,-220.0,125.0,46.0,72.0,-9.0,18.0,-855.0,474.0
-1.0,-220.0,128.0,47.0,73.0,-8.0,23.0,-855.0,466.0
-1.0,-221.0,123.0,46.0,73.0,-9.0,20.0,-852.0,470.0
-1.0,-217.0,126.0,41.0,74.0,-11.0,23.0,-848.0,468.0
-2.0,-221.0,129.0,34.0,73.0,-11.0,28.0,-852.0,466.0
-3.0,-221.0,122.0,29.0,73.0,-13.0,29.0,-854.0,468.0
-3.0,-219.0,129.0,26.0,74.0,-15.0,26.0,-860.0,470.0
1.0,-225.0,125.0,28.0,73.0,-16.0,25.0,-863.0,458.0
0.0,-221.0,123.0,32.0,73.0,-16.0,26.0,-856.0,453.0
0.0,-215.0,118.0,33.0,72.0,-16.0,30.0,-847.0,440.0
0.0,-218.0,121.0,30.0,72.0,-17.0,23.0,-850.0,442.0
0.0,-216.0,119.0,21.0,74.0,-15.0,29.0,-847.0,442.0
-2.0,-216.0,122.0,9.0,75.0,-14.0,23.0,-843.0,448.0
0.0,-216.0,125.0,-5.0,77.0,-14.0,26.0,-838.0,460.0
0.0,-218.0,125.0,-12.0,78.0,-14.0,26.0,-842.0,465.0
-1.0,-217.0,124.0,-17.0,79.0,-14.0,16.0,-845.0,472.0
-1.0,-218.0,130.0,-19.0,80.0,-14.0,17.0,-843.0,479.0
-1.0,-219.0,128.0,-21.0,80.0,-12.0,16.0,-848.0,476.0
-7.0,-218.0,126.0,-25.0,79.0,-10.0,19.0,-849.0,477.0
-4.0,-220.0,124.0,-28.0,80.0,-9.0,12.0,-851.0,478.0
-4.0,-219.0,128.0,-28.0,82.0,-8.0,15.0,-854.0,477.0
-4.0,-218.0,131.0,-21.0,82.0,-10.0,15.0,-847.0,482.0
-3.0,-216.0,130.0,-12.0,81.0,-12.0,17.0,-848.0,483.0
-5.0,-215.0,131.0,0.0,82.0,-13.0,16.0,-847.0,486.0
-6.0,-216.0,127.0,13.0,80.0,-13.0,18.0,-846.0,482.0
-3.0,-218.0,131.0,22.0,81.0,-13.0,14.0,-844.0,478.0
-5.0,-215.0,128.0,29.0,80.0,-11.0,16.0,-844.0,481.0
-3.0,-221.0,127.0,32.0,78.0,-8.0,17.0,-841.0,480.0
0.0,-217.0,125.0,31.0,78.0,-7.0,13.0,-839.0,485.0
-7.0,-212.0,129.0,27.0,77.0,-4.0,19.0,-837.0,478.0
-5.0,-215.0,131.0,19.0,76.0,-3.0,15.0,-842.0,484.0
-4.0,-216.0,131.0,16.0,75.0,-1.0,9.0,-837.0,494.0
-5.0,-218.0,131.0,10.0,75.0,2.0,10.0,-841.0,487.0
-6.0,-215.0,131.0,5.0,75.0,2.0,12.0,-841.0,487.0
-6.0,-216.0,131.0,2.0,74.0,2.0,7.0,-845.0,480.0
-6.0,-214.0,126.0,6.0,75.0,1.0,10.0,-840.0,482.0
-4.0,-215.0,126.0,11.0,77.0,0.0,9.0,-840.0,478.0
-1.0,-213.0,128.0,14.0,80.0,0.0,13.0,-843.0,471.0
-4.0,-216.0,125.0,13.0,82.0,1.0,17.0,-841.0,464.0
-2.0,-215.0,122.0,10.0,83.0,0.0,13.0,-835.0,471.0
-2.0,-211.0,127.0,8.0,82.0,0.0,18.0,-830.0,467.0
-4.0,-213.0,124.0,5.0,81.0,-1.0,21.0,-840.0,467.0
-3.0,-214.0,127.0,2.0,80.0,-3.0,22.0,-834.0,475.0
-1.0,-214.0,125.0,-5.0,79.0,-6.0,23.0,-837.0,474.0
-1.0,-216.0,126.0,-11.0,78.0,-8.0,30.0,-834.0,470.0
1.0,-217.0,126.0,-18.0,76.0,-11.0,30.0,-842.0,474.0
0.0,-221.0,126.0,-21.0,75.0,-13.0,23.0,-848.0,474.0
-3.0,-218.0,128.0,-15.0,78.0,-15.0,28.0,-851.0,470.0
0.0,-221.0,126.0,-6.0,79.0,-20.0,20.0,-853.0,462.0
-4.0,-221.0,124.0,4.0,82.0,-22.0,13.0,-855.0,460.0
-6.0,-221.0,121.0,13.0,86.0,-23.0,10.0,-856.0,455.0
-7.0,-222.0,125.0,19.0,88.0,-24.0,9.0,-850.0,455.0
-8.0,-220.0,120.0,21.0,92.0,-26.0,6.0,-852.0,462.0
-9.0,-222.0,124.0,24.0,94.0,-24.0,1.0,-854.0,457.0
-8.0,-222.0,123.0,24.0,96.0,-23.0,-4.0,-855.0,458.0
-6.0,-220.0,126.0,24.0,99.0,-23.0,-3.0,-857.0,456.0
-9.0,-222.0,125.0,26.0,102.0,-23.0,-10.0,-859.0,459.0
-9.0,-222.0,130.0,30.0,105.0,-23.0,0.0,-861.0,465.0
-10.0,-222.0,125.0,30.0,107.0,-22.0,-6.0,-863.0,464.0
-10.0,-222.0,124.0,29.0,109.0,-19.0,-6.0,-867.0,466.0
-9.0,-223.0,123.0,31.0,110.0,-16.0,-11.0,-865.0,468.0
-11.0,-227.0,120.0,42.0,107.0,-13.0,-3.0,-874.0,459.0
-10.0,-228.0,119.0,65.0,101.0,-9.0,1.0,-870.0,449.0
-8.0,-225.0,119.0,91.0,93.0,-1.0,-3.0,-871.0,449.0
-6.0,-225.0,118.0,121.0,85.0,10.0,14.0,-876.0,441.0
-7.0,-218.0,123.0,149.0,76.0,18.0,16.0,-862.0,440.0
0.0,-218.0,117.0,169.0,63.0,29.0,24.0,-852.0,442.0
-1.0,-216.0,121.0,182.0,52.0,36.0,32.0,-839.0,454.0
2.0,-213.0,125.0,187.0,40.0,42.0,38.0,-828.0,460.0
2.0,-209.0,125.0,180.0,35.0,46.0,40.0,-817.0,471.0
3.0,-209.0,129.0,162.0,35.0,48.0,45.0,-813.0,477.0
4.0,-205.0,126.0,139.0,40.0,47.0,55.0,-808.0,483.0
5.0,-207.0,127.0,114.0,45.0,46.0,53.0,-804.0,485.0
5.0,-211.0,130.0,90.0,46.0,42.0,55.0,-820.0,493.0
7.0,-210.0,130.0,74.0,50.0,39.0,57.0,-821.0,491.0
8.0,-210.0,130.0,63.0,54.0,37.0,59.0,-829.0,497.0
6.0,-216.0,134.0,58.0,61.0,36.0,57.0,-836.0,506.0
4.0,-213.0,133.0,62.0,61.0,35.0,53.0,-836.0,501.0
3.0,-214.0,131.0,67.0,60.0,35.0,52.0,-833.0,501.0
3.0,-213.0,133.0,68.0,59.0,33.0,47.0,-828.0,504.0
1.0,-214.0,135.0,65.0,57.0,31.0,37.0,-832.0,511.0
-1.0,-213.0,134.0,60.0,51.0,29.0,31.0,-829.0,505.0
-1.0,-211.0,132.0,48.0,44.0,28.0,21.0,-823.0,506.0
-1.0,-208.0,133.0,33.0,42.0,27.0,17.0,-820.0,507.0
-4.0,-211.0,134.0,16.0,43.0,25.0,13.0,-817.0,503.0
-8.0,-210.0,135.0,-3.0,45.0,21.0,1.0,-825.0,499.0
-8.0,-212.0,137.0,-16.0,49.0,16.0,-1.0,-821.0,500.0
-10.0,-205.0,134.0,-27.0,52.0,13.0,-1.0,-823.0,507.0
-13.0,-207.0,135.0,-36.0,56.0,10.0,-12.0,-824.0,505.0
-12.0,-210.0,134.0,-42.0,59.0,7.0,-14.0,-816.0,504.0
-11.0,-211.0,136.0,-44.0,60.0,5.0,-18.0,-815.0,508.0
-14.0,-209.0,132.0,-44.0,63.0,4.0,-20.0,-821.0,506.0
-11.0,-212.0,133.0,-46.0,64.0,3.0,-21.0,-816.0,502.0
-12.0,-208.0,133.0,-48.0,64.0,1.0,-15.0,-816.0,499.0
-13.0,-209.0,133.0,-50.0,67.0,3.0,-24.0,-811.0,492.0
-9.0,-211.0,132.0,-53.0,68.0,3.0,-21.0,-813.0,494.0
-13.0,-209.0,131.0,-57.0,70.0,2.0,-23.0,-812.0,495.0
-14.0,-208.0,135.0,-64.0,72.0,0.0,-22.0,-817.0,493.0
-15.0,-209.0,133.0,-70.0,73.0,-4.0,-22.0,-812.0,493.0
-12.0,-211.0,132.0,-77.0,74.0,-6.0,-19.0,-816.0,491.0
-14.0,-207.0,132.0,-84.0,77.0,-9.0,-20.0,-819.0,497.0
-10.0,-212.0,131.0,-93.0,81.0,-12.0,-17.0,-827.0,497.0
-12.0,-209.0,128.0,-103.0,86.0,-14.0,-11.0,-822.0,495.0
-9.0,-209.0,133.0,-113.0,87.0,-18.0,-17.0,-821.0,500.0
-12.0,-211.0,135.0,-120.0,90.0,-23.0,-8.0,-824.0,505.0
-11.0,-209.0,136.0,-126.0,92.0,-25.0,-8.0,-828.0,504.0
-12.0,-209.0,135.0,-130.0,93.0,-27.0,1.0,-823.0,502.0
-8.0,-216.0,133.0,-136.0,92.0,-28.0,-5.0,-834.0,493.0
-7.0,-212.0,142.0,-141.0,92.0,-28.0,5.0,-833.0,490.0
-7.0,-218.0,134.0,-147.0,89.0,-28.0,4.0,-843.0,486.0
-8.0,-213.0,130.0,-149.0,87.0,-28.0,3.0,-841.0,482.0
-6.0,-216.0,127.0,-150.0,86.0,-28.0,5.0,-843.0,477.0
-5.0,-218.0,131.0,-149.0,87.0,-28.0,11.0,-844.0,480.0
-7.0,-215.0,130.0,-148.0,87.0,-29.0,14.0,-845.0,473.0
-4.0,-218.0,127.0,-145.0,87.0,-30.0,10.0,-852.0,472.0
-3.0,-217.0,127.0,-143.0,84.0,-29.0,16.0,-851.0,466.0
-3.0,-218.0,122.0,-142.0,79.0,-29.0,13.0,-849.0,466.0
-5.0,-217.0,126.0,-140.0,76.0,-28.0,14.0,-843.0,455.0
-2.0,-219.0,123.0,-137.0,72.0,-27.0,14.0,-846.0,458.0
-3.0,-219.0,121.0,-135.0,69.0,-25.0,18.0,-848.0,459.0
-5.0,-217.0,121.0,-138.0,67.0,-24.0,14.0,-850.0,459.0
-2.0,-217.0,122.0,-145.0,65.0,-22.0,23.0,-848.0,464.0
-1.0,-219.0,126.0,-153.0,63.0,-19.0,24.0,-844.0,464.0
-1.0,-221.0,125.0,-159.0,61.0,-16.0,23.0,-849.0,460.0
-1.0,-220.0,124.0,-162.0,59.0,-14.0,27.0,-853.0,472.0
0.0,-220.0,130.0,-167.0,57.0,-10.0,32.0,-857.0,470.0
-2.0,-222.0,122.0,-166.0,54.0,-6.0,31.0,-862.0,474.0
-1.0,-222.0,124.0,-162.0,49.0,-3.0,30.0,-868.0,468.0
1.0,-227.0,122.0,-155.0,45.0,1.0,37.0,-869.0,464.0
0.0,-223.0,123.0,-145.0,42.0,4.0,38.0,-868.0,460.0
2.0,-226.0,118.0,-131.0,42.0,7.0,42.0,-868.0,457.0
0.0,-224.0,124.0,-115.0,44.0,8.0,36.0,-866.0,455.0
0.0,-222.0,123.0,-96.0,45.0,9.0,38.0,-862.0,455.0
2.0,-225.0,121.0,-77.0,44.0,9.0,38.0,-855.0,457.0
0.0,-217.0,124.0,-61.0,43.0,9.0,32.0,-856.0,457.0
-2.0,-219.0,121.0,-46.0,45.0,10.0,28.0,-851.0,452.0
0.0,-219.0,121.0,-35.0,45.0,11.0,31.0,-850.0,455.0
-2.0,-220.0,118.0,-29.0,47.0,11.0,23.0,-852.0,457.0
-2.0,-221.0,119.0,-27.0,50.0,10.0,23.0,-849.0,461.0
-3.0,-219.0,123.0,-29.0,54.0,10.0,18.0,-843.0,463.0
-2.0,-219.0,123.0,-34.0,56.0,12.0,10.0,-841.0,466.0
-7.0,-215.0,124.0,-42.0,61.0,12.0,10.0,-842.0,463.0
-1.0,-218.0,124.0,-48.0,64.0,12.0,10.0,-844.0,458.0
-4.0,-215.0,124.0,-52.0,66.0,12.0,9.0,-848.0,463.0
-5.0,-218.0,124.0,-55.0,68.0,12.0,13.0,-853.0,468.0
-2.0,-221.0,124.0,-53.0,67.0,12.0,11.0,-851.0,468.0
-3.0,-219.0,125.0,-47.0,65.0,12.0,11.0,-852.0,467.0
-5.0,-220.0,127.0,-39.0,64.0,13.0,10.0,-849.0,474.0
-6.0,-220.0,122.0,-30.0,64.0,13.0,9.0,-854.0,466.0
-7.0,-217.0,125.0,-22.0,63.0,15.0,10.0,-852.0,476.0
-2.0,-219.0,127.0,-16.0,65.0,14.0,10.0,-850.0,470.0
-3.0,-224.0,122.0,-11.0,63.0,16.0,4.0,-850.0,460.0
-12.0,-213.0,128.0,-8.0,64.0,17.0,8.0,-851.0,464.0
-5.0,-218.0,122.0,-6.0,66.0,19.0,9.0,-846.0,466.0
-5.0,-218.0,126.0,-4.0,69.0,21.0,8.0,-847.0,467.0
-7.0,-215.0,124.0,-4.0,70.0,20.0,13.0,-844.0,463.0
-7.0,-216.0,127.0,-4.0,70.0,22.0,16.0,-837.0,464.0
-3.0,-217.0,121.0,-7.0,71.0,22.0,17.0,-837.0,469.0
-5.0,-216.0,125.0,-12.0,70.0,21.0,16.0,-843.0,465.0
-5.0,-218.0,129.0,-16.0,68.0,21.0,19.0,-841.0,462.0
0.0,-217.0,127.0,-21.0,67.0,22.0,15.0,-845.0,462.0
-2.0,-216.0,128.0,-24.0,65.0,23.0,13.0,-845.0,467.0
-7.0,-218.0,128.0,-28.0,65.0,23.0,19.0,-844.0,470.0
-6.0,-217.0,125.0,-30.0,65.0,22.0,18.0,-835.0,471.0
-3.0,-216.0,127.0,-33.0,66.0,24.0,14.0,-841.0,469.0
-3.0,-217.0,127.0,-33.0,69.0,24.0,14.0,-840.0,476.0
-5.0,-215.0,129.0,-36.0,69.0,24.0,16.0,-838.0,478.0
-4.0,-214.0,126.0,-39.0,71.0,24.0,17.0,-838.0,476.0
-3.0,-217.0,128.0,-42.0,73.0,23.0,12.0,-839.0,483.0
-5.0,-218.0,129.0,-45.0,71.0,22.0,9.0,-839.0,476.0
-8.0,-214.0,129.0,-47.0,72.0,23.0,7.0,-837.0,484.0
-8.0,-216.0,124.0,-50.0,72.0,24.0,-2.0,-840.0,474.0
-6.0,-217.0,129.0,-52.0,70.0,25.0,-1.0,-843.0,471.0
-9.0,-216.0,126.0,-59.0,69.0,27.0,-4.0,-842.0,469.0
-11.0,-214.0,122.0,-68.0,66.0,28.0,-5.0,-844.0,461.0
-10.0,-217.0,125.0,-78.0,65.0,25.0,-7.0,-843.0,454.0
-10.0,-218.0,123.0,-89.0,62.0,23.0,-6.0,-844.0,453.0
-7.0,-218.0,121.0,-98.0,61.0,24.0,-9.0,-848.0,451.0
-8.0,-219.0,122.0,-109.0,60.0,21.0,5.0,-847.0,460.0
-8.0,-219.0,121.0,-117.0,58.0,18.0,10.0,-850.0,455.0
-3.0,-218.0,118.0,-125.0,58.0,16.0,9.0,-853.0,454.0
-7.0,-218.0,121.0,-131.0,58.0,14.0,13.0,-858.0,453.0
-4.0,-219.0,122.0,-132.0,60.0,13.0,17.0,-853.0,454.0
-4.0,-224.0,128.0,-132.0,60.0,13.0,13.0,-859.0,456.0
-7.0,-222.0,122.0,-129.0,61.0,11.0,8.0,-854.0,455.0
-4.0,-224.0,122.0,-126.0,60.0,10.0,14.0,-858.0,459.0
-8.0,-224.0,124.0,-120.0,60.0,9.0,13.0,-860.0,466.0
-1.0,-224.0,125.0,-113.0,59.0,7.0,10.0,-863.0,461.0
-3.0,-222.0,122.0,-105.0,59.0,4.0,10.0,-864.0,460.0
-1.0,-224.0,118.0,-96.0,57.0,3.0,10.0,-862.0,450.0
-6.0,-222.0,124.0,-87.0,58.0,3.0,9.0,-866.0,450.0
-7.0,-226.0,123.0,-77.0,59.0,3.0,0.0,-865.0,446.0
-8.0,-222.0,121.0,-71.0,59.0,4.0,6.0,-864.0,449.0
-10.0,-221.0,120.0,-64.0,61.0,3.0,1.0,-860.0,451.0
-8.0,-219.0,120.0,-59.0,61.0,2.0,2.0,-860.0,445.0
-7.0,-221.0,122.0,-54.0,61.0,2.0,-2.0,-858.0,447.0
-6.0,-222.0,119.0,-52.0,62.0,3.0,1.0,-862.0,445.0
-9.0,-220.0,119.0,-50.0,63.0,3.0,4.0,-861.0,449.0
-5.0,-223.0,121.0,-50.0,65.0,2.0,0.0,-865.0,442.0
-8.0,-224.0,121.0,-50.0,65.0,-2.0,0.0,-859.0,441.0
-8.0,-223.0,120.0,-50.0,65.0,-5.0,8.0,-866.0,446.0
-7.0,-221.0,121.0,-48.0,64.0,-5.0,9.0,-867.0,450.0
-7.0,-224.0,121.0,-46.0,64.0,-6.0,7.0,-858.0,442.0
-6.0,-224.0,117.0,-46.0,62.0,-8.0,9.0,-858.0,440.0
-5.0,-222.0,121.0,-45.0,61.0,-8.0,11.0,-859.0,446.0
-4.0,-220.0,119.0,-43.0,62.0,-10.0,9.0,-860.0,445.0
-6.0,-223.0,119.0,-40.0,62.0,-11.0,8.0,-859.0,443.0
-3.0,-222.0,120.0,-38.0,63.0,-12.0,15.0,-863.0,447.0
-6.0,-221.0,119.0,-37.0,65.0,-12.0,13.0,-861.0,450.0
-3.0,-222.0,117.0,-38.0,67.0,-14.0,17.0,-862.0,441.0
-2.0,-220.0,121.0,-39.0,68.0,-15.0,13.0,-862.0,438.0
-2.0,-220.0,122.0,-38.0,69.0,-16.0,14.0,-860.0,444.0
-2.0,-219.0,122.0,-37.0,70.0,-18.0,19.0,-862.0,445.0
-5.0,-217.0,121.0,-35.0,69.0,-17.0,18.0,-857.0,446.0
-6.0,-220.0,118.0,-32.0,69.0,-16.0,23.0,-858.0,439.0
-6.0,-223.0,121.0,-27.0,70.0,-16.0,14.0,-857.0,445.0
-7.0,-220.0,119.0,-22.0,67.0,-16.0,14.0,-861.0,450.0
-5.0,-220.0,118.0,-15.0,66.0,-15.0,9.0,-859.0,446.0
-6.0,-222.0,119.0,-10.0,66.0,-13.0,8.0,-855.0,446.0
-6.0,-220.0,119.0,-7.0,65.0,-12.0,5.0,-857.0,446.0
-5.0,-222.0,121.0,-4.0,66.0,-11.0,3.0,-857.0,446.0
-7.0,-221.0,122.0,-3.0,66.0,-11.0,6.0,-856.0,449.0
-5.0,-219.0,122.0,-3.0,69.0,-11.0,10.0,-854.0,448.0
-7.0,-221.0,115.0,-6.0,69.0,-10.0,2.0,-856.0,442.0
-8.0,-222.0,118.0,-8.0,67.0,-10.0,11.0,-855.0,441.0
-5.0,-220.0,119.0,-9.0,66.0,-13.0,9.0,-855.0,440.0
-5.0,-223.0,117.0,-8.0,67.0,-15.0,9.0,-859.0,437.0
-5.0,-224.0,123.0,-9.0,67.0,-18.0,8.0,-857.0,445.0
-2.0,-220.0,123.0,-9.0,68.0,-20.0,9.0,-857.0,451.0
-5.0,-220.0,119.0,-8.0,69.0,-21.0,17.0,-857.0,449.0
-7.0,-224.0,124.0,-7.0,68.0,-22.0,12.0,-863.0,450.0
-2.0,-223.0,123.0,-4.0,68.0,-24.0,11.0,-865.0,456.0
-7.0,-223.0,121.0,3.0,69.0,-26.0,13.0,-869.0,451.0
-1.0,-228.0,121.0,15.0,69.0,-29.0,14.0,-875.0,448.0
-7.0,-227.0,120.0,28.0,71.0,-33.0,13.0,-876.0,444.0
-6.0,-227.0,120.0,42.0,74.0,-33.0,9.0,-874.0,442.0
-4.0,-225.0,120.0,56.0,80.0,-32.0,7.0,-874.0,447.0
-3.0,-222.0,122.0,65.0,83.0,-33.0,9.0,-871.0,445.0
-6.0,-224.0,120.0,71.0,86.0,-30.0,14.0,-862.0,441.0
-2.0,-224.0,119.0,75.0,86.0,-30.0,11.0,-864.0,451.0
-5.0,-220.0,122.0,75.0,84.0,-29.0,13.0,-855.0,445.0
-5.0,-220.0,121.0,73.0,82.0,-29.0,17.0,-858.0,440.0
-4.0,-221.0,119.0,69.0,79.0,-28.0,15.0,-861.0,446.0
0.0,-221.0,118.0,69.0,78.0,-29.0,16.0,-859.0,441.0
-1.0,-221.0,119.0,70.0,76.0,-28.0,19.0,-861.0,451.0
-2.0,-221.0,122.0,74.0,73.0,-26.0,15.0,-859.0,449.0
-6.0,-222.0,124.0,79.0,71.0,-23.0,14.0,-862.0,448.0
-6.0,-223.0,120.0,80.0,68.0,-23.0,12.0,-856.0,449.0
-1.0,-221.0,121.0,78.0,67.0,-22.0,11.0,-857.0,446.0
-3.0,-222.0,125.0,75.0,69.0,-19.0,12.0,-860.0,454.0
-5.0,-222.0,121.0,76.0,71.0,-19.0,11.0,-855.0,450.0
-6.0,-217.0,122.0,79.0,71.0,-18.0,5.0,-856.0,456.0
-5.0,-218.0,119.0,83.0,70.0,-17.0,7.0,-854.0,450.0
-7.0,-219.0,117.0,87.0,68.0,-16.0,12.0,-852.0,446.0
-6.0,-217.0,119.0,88.0,66.0,-15.0,18.0,-848.0,440.0
-5.0,-216.0,120.0,89.0,64.0,-15.0,13.0,-847.0,443.0
-5.0,-212.0,119.0,86.0,65.0,-14.0,18.0,-842.0,448.0
-4.0,-215.0,119.0,81.0,66.0,-11.0,15.0,-838.0,458.0
0.0,-217.0,125.0,77.0,67.0,-7.0,20.0,-838.0,455.0
0.0,-216.0,124.0,73.0,67.0,-7.0,16.0,-835.0,466.0
0.0,-219.0,120.0,71.0,69.0,-7.0,14.0,-845.0,467.0
-1.0,-217.0,128.0,69.0,70.0,-5.0,14.0,-843.0,466.0
-1.0,-218.0,124.0,68.0,70.0,-5.0,16.0,-849.0,472.0
-1.0,-217.0,124.0,69.0,70.0,-3.0,13.0,-847.0,471.0
-3.0,-220.0,126.0,70.0,71.0,-3.0,17.0,-845.0,470.0
-6.0,-216.0,126.0,73.0,70.0,-3.0,15.0,-846.0,468.0
-4.0,-217.0,125.0,76.0,69.0,-3.0,16.0,-842.0,477.0
0.0,-217.0,128.0,77.0,69.0,-4.0,14.0,-843.0,473.0
-2.0,-216.0,127.0,79.0,68.0,-6.0,18.0,-847.0,477.0
-6.0,-217.0,122.0,82.0,68.0,-6.0,16.0,-847.0,474.0
-5.0,-215.0,125.0,81.0,66.0,-4.0,13.0,-846.0,470.0
-3.0,-217.0,121.0,80.0,65.0,-4.0,12.0,-845.0,468.0
0.0,-216.0,124.0,76.0,65.0,-4.0,10.0,-847.0,467.0
-2.0,-217.0,126.0,72.0,66.0,-3.0,10.0,-842.0,463.0
-4.0,-214.0,124.0,68.0,68.0,-3.0,19.0,-845.0,472.0
-1.0,-218.0,129.0,69.0,69.0,-4.0,16.0,-847.0,468.0
-1.0,-222.0,128.0,70.0,71.0,-4.0,11.0,-840.0,474.0
-5.0,-219.0,126.0,73.0,71.0,-4.0,13.0,-848.0,479.0
-4.0,-215.0,126.0,75.0,69.0,-6.0,9.0,-845.0,480.0
-5.0,-217.0,128.0,78.0,68.0,-5.0,12.0,-845.0,478.0
-2.0,-217.0,128.0,82.0,67.0,-5.0,14.0,-845.0,477.0
-5.0,-218.0,127.0,89.0,67.0,-6.0,9.0,-846.0,474.0
-5.0,-217.0,122.0,92.0,67.0,-4.0,10.0,-846.0,473.0
-4.0,-220.0,127.0,94.0,68.0,-4.0,11.0,-847.0,474.0
-2.0,-217.0,126.0,92.0,66.0,-3.0,11.0,-842.0,473.0
-4.0,-216.0,129.0,87.0,66.0,-3.0,14.0,-843.0,471.0
-3.0,-217.0,127.0,83.0,67.0,-3.0,9.0,-837.0,474.0
-7.0,-214.0,125.0,79.0,66.0,-3.0,12.0,-835.0,479.0
-4.0,-215.0,126.0,75.0,64.0,-3.0,10.0,-831.0,477.0
-5.0,-215.0,129.0,69.0,65.0,-2.0,13.0,-830.0,481.0
-2.0,-214.0,131.0,63.0,65.0,-1.0,12.0,-830.0,482.0
-6.0,-214.0,128.0,58.0,67.0,-1.0,12.0,-831.0,482.0
-4.0,-215.0,129.0,55.0,66.0,-2.0,13.0,-832.0,483.0
-2.0,-216.0,130.0,53.0,67.0,-1.0,13.0,-835.0,487.0
-2.0,-214.0,131.0,53.0,68.0,-4.0,16.0,-836.0,487.0
-1.0,-212.0,128.0,56.0,68.0,-2.0,19.0,-835.0,491.0
-4.0,-214.0,131.0,58.0,68.0,-2.0,20.0,-837.0,489.0
-1.0,-213.0,131.0,62.0,69.0,-2.0,17.0,-829.0,487.0
-5.0,-213.0,129.0,61.0,70.0,-3.0,18.0,-830.0,486.0
-5.0,-210.0,130.0,58.0,69.0,-1.0,15.0,-825.0,478.0
-3.0,-214.0,128.0,52.0,68.0,0.0,20.0,-829.0,475.0
-7.0,-210.0,127.0,41.0,68.0,-2.0,17.0,-826.0,474.0
-1.0,-211.0,127.0,30.0,65.0,-2.0,17.0,-830.0,478.0
-1.0,-215.0,131.0,19.0,66.0,-4.0,14.0,-830.0,480.0
-1.0,-207.0,131.0,12.0,66.0,-2.0,13.0,-831.0,485.0
-4.0,-215.0,130.0,11.0,64.0,-1.0,13.0,-830.0,479.0
-5.0,-215.0,126.0,12.0,63.0,-1.0,12.0,-835.0,483.0
-10.0,-213.0,127.0,13.0,63.0,2.0,15.0,-841.0,483.0
-6.0,-217.0,127.0,14.0,64.0,1.0,8.0,-841.0,484.0
-8.0,-216.0,127.0,12.0,63.0,1.0,14.0,-842.0,481.0
-6.0,-216.0,124.0,11.0,63.0,2.0,7.0,-849.0,481.0
-6.0,-216.0,131.0,10.0,65.0,1.0,10.0,-847.0,477.0
-4.0,-219.0,127.0,14.0,65.0,1.0,10.0,-844.0,478.0
-6.0,-216.0,124.0,19.0,65.0,0.0,9.0,-842.0,480.0
-7.0,-215.0,128.0,27.0,65.0,-1.0,9.0,-840.0,474.0
-6.0,-215.0,125.0,29.0,65.0,-1.0,9.0,-845.0,469.0
-2.0,-217.0,126.0,27.0,65.0,-1.0,10.0,-845.0,473.0
-5.0,-216.0,125.0,23.0,65.0,-2.0,10.0,-845.0,467.0
-6.0,-215.0,122.0,18.0,63.0,-5.0,14.0,-843.0,469.0
-4.0,-219.0,125.0,12.0,63.0,-5.0,11.0,-844.0,477.0
-5.0,-218.0,128.0,8.0,61.0,-4.0,7.0,-853.0,472.0
-4.0,-221.0,130.0,3.0,59.0,-4.0,8.0,-848.0,476.0
-6.0,-218.0,128.0,-1.0,57.0,-4.0,11.0,-850.0,478.0
-4.0,-219.0,127.0,-2.0,59.0,-4.0,13.0,-849.0,476.0
-3.0,-219.0,129.0,3.0,61.0,-4.0,13.0,-851.0,474.0
-5.0,-218.0,127.0,9.0,63.0,-3.0,15.0,-848.0,479.0
-3.0,-219.0,127.0,13.0,64.0,-4.0,15.0,-854.0,473.0
0.0,-220.0,125.0,18.0,63.0,-5.0,19.0,-846.0,476.0
-3.0,-221.0,126.0,19.0,63.0,-7.0,19.0,-848.0,472.0
-3.0,-216.0,125.0,19.0,63.0,-6.0,16.0,-847.0,471.0
-2.0,-217.0,125.0,15.0,63.0,-5.0,14.0,-848.0,470.0
-5.0,-216.0,127.0,11.0,65.0,-4.0,18.0,-847.0,474.0
-1.0,-217.0,128.0,5.0,66.0,-3.0,18.0,-846.0,475.0
-1.0,-217.0,129.0,0.0,68.0,-4.0,21.0,-844.0,480.0
-3.0,-221.0,128.0,-1.0,67.0,-4.0,17.0,-850.0,482.0
-4.0,-217.0,131.0,1.0,66.0,-3.0,16.0,-847.0,483.0
-2.0,-219.0,130.0,6.0,66.0,-4.0,15.0,-849.0,485.0
-5.0,-219.0,130.0,13.0,68.0,-4.0,18.0,-849.0,482.0
-1.0,-218.0,126.0,21.0,69.0,-3.0,19.0,-847.0,481.0
-2.0,-218.0,129.0,30.0,69.0,-5.0,16.0,-848.0,483.0
-4.0,-218.0,126.0,38.0,67.0,-4.0,11.0,-842.0,483.0
-7.0,-216.0,130.0,46.0,65.0,-4.0,14.0,-842.0,484.0
-2.0,-215.0,132.0,51.0,65.0,-2.0,13.0,-840.0,482.0
-4.0,-215.0,130.0,52.0,63.0,0.0,19.0,-833.0,484.0
-4.0,-213.0,130.0,52.0,62.0,0.0,15.0,-832.0,482.0
-2.0,-215.0,129.0,53.0,62.0,3.0,17.0,-833.0,488.0
0.0,-216.0,129.0,56.0,63.0,2.0,17.0,-833.0,485.0
-5.0,-215.0,133.0,60.0,63.0,1.0,11.0,-833.0,488.0
-15.0,-220.0,127.0,67.0,64.0,-1.0,15.0,-834.0,492.0
-3.0,-216.0,129.0,72.0,65.0,-1.0,15.0,-837.0,489.0
-5.0,-215.0,132.0,79.0,63.0,-3.0,17.0,-834.0,492.0
-2.0,-215.0,130.0,88.0,63.0,-4.0,19.0,-835.0,492.0
-1.0,-216.0,133.0,96.0,63.0,-5.0,19.0,-832.0,488.0
0.0,-214.0,132.0,101.0,62.0,-7.0,17.0,-833.0,494.0
0.0,-213.0,135.0,105.0,63.0,-7.0,17.0,-834.0,491.0
-3.0,-214.0,133.0,107.0,63.0,-6.0,20.0,-830.0,495.0
-1.0,-216.0,134.0,107.0,60.0,-6.0,21.0,-829.0,496.0
-7.0,-215.0,134.0,107.0,59.0,-5.0,21.0,-834.0,493.0
-3.0,-215.0,133.0,105.0,58.0,-3.0,18.0,-835.0,496.0
-3.0,-217.0,134.0,107.0,57.0,-2.0,14.0,-837.0,496.0
-3.0,-215.0,133.0,110.0,58.0,-1.0,14.0,-841.0,495.0
0.0,-218.0,134.0,113.0,58.0,0.0,13.0,-839.0,495.0
-3.0,-217.0,136.0,119.0,59.0,0.0,18.0,-838.0,493.0
-4.0,-215.0,132.0,125.0,59.0,-2.0,22.0,-840.0,497.0
-1.0,-213.0,133.0,130.0,61.0,-4.0,15.0,-838.0,499.0
-2.0,-217.0,132.0,132.0,61.0,-4.0,12.0,-830.0,503.0
-3.0,-213.0,136.0,130.0,63.0,-6.0,13.0,-836.0,496.0
-6.0,-217.0,135.0,128.0,65.0,-6.0,13.0,-838.0,505.0
-2.0,-217.0,132.0,127.0,67.0,-6.0,12.0,-839.0,503.0
-6.0,-216.0,133.0,129.0,68.0,-9.0,5.0,-840.0,498.0
-5.0,-216.0,136.0,136.0,70.0,-10.0,6.0,-835.0,498.0
-7.0,-217.0,131.0,142.0,69.0,-11.0,9.0,-835.0,490.0
-3.0,-215.0,128.0,145.0,69.0,-10.0,9.0,-831.0,487.0
-5.0,-212.0,131.0,146.0,68.0,-8.0,9.0,-827.0,486.0
-4.0,-212.0,130.0,146.0,68.0,-10.0,17.0,-819.0,492.0
-4.0,-212.0,135.0,145.0,68.0,-11.0,15.0,-824.0,498.0
-2.0,-211.0,133.0,143.0,69.0,-11.0,15.0,-826.0,494.0
-1.0,-210.0,136.0,143.0,68.0,-10.0,17.0,-820.0,504.0
-3.0,-212.0,136.0,144.0,69.0,-8.0,16.0,-819.0,512.0
-1.0,-211.0,134.0,145.0,69.0,-7.0,26.0,-818.0,512.0
-1.0,-208.0,139.0,143.0,68.0,-7.0,22.0,-823.0,509.0
-1.0,-208.0,136.0,139.0,70.0,-5.0,25.0,-816.0,516.0
0.0,-206.0,136.0,132.0,70.0,-5.0,26.0,-805.0,514.0
-1.0,-205.0,141.0,123.0,69.0,-3.0,28.0,-809.0,523.0
-2.0,-206.0,136.0,112.0,68.0,-2.0,21.0,-803.0,521.0
-1.0,-205.0,139.0,104.0,67.0,-2.0,22.0,-803.0,521.0
0.0,-205.0,139.0,95.0,67.0,-1.0,24.0,-800.0,522.0
-4.0,-208.0,143.0,85.0,66.0,1.0,20.0,-802.0,521.0
-5.0,-203.0,140.0,80.0,64.0,3.0,20.0,-807.0,525.0
-4.0,-206.0,139.0,74.0,62.0,2.0,17.0,-800.0,521.0
-1.0,-206.0,140.0,68.0,61.0,2.0,18.0,-805.0,522.0
-1.0,-209.0,141.0,63.0,61.0,1.0,18.0,-808.0,520.0
-9.0,-202.0,130.0,56.0,64.0,2.0,16.0,-804.0,527.0
-3.0,-205.0,139.0,45.0,65.0,2.0,20.0,-804.0,528.0
-1.0,-205.0,142.0,38.0,69.0,-1.0,19.0,-800.0,534.0
-2.0,-203.0,142.0,29.0,71.0,-1.0,24.0,-801.0,534.0
0.0,-209.0,139.0,19.0,71.0,1.0,20.0,-799.0,529.0
0.0,-207.0,138.0,9.0,72.0,0.0,16.0,-805.0,530.0
-2.0,-201.0,141.0,-2.0,71.0,-1.0,14.0,-799.0,530.0
-3.0,-206.0,141.0,-15.0,71.0,-1.0,14.0,-795.0,524.0
-1.0,-204.0,138.0,-26.0,69.0,-1.0,10.0,-799.0,523.0
-3.0,-204.0,146.0,-38.0,69.0,-1.0,8.0,-797.0,523.0
-6.0,-206.0,136.0,-50.0,69.0,0.0,6.0,-802.0,524.0
-7.0,-204.0,142.0,-57.0,69.0,1.0,3.0,-805.0,521.0
-7.0,-209.0,140.0,-63.0,68.0,3.0,4.0,-805.0,520.0
-4.0,-208.0,136.0,-68.0,69.0,3.0,7.0,-810.0,515.0
-4.0,-208.0,138.0,-73.0,69.0,3.0,3.0,-811.0,514.0
-4.0,-210.0,136.0,-80.0,70.0,3.0,1.0,-810.0,509.0
-4.0,-209.0,137.0,-91.0,73.0,3.0,-5.0,-814.0,514.0
-7.0,-207.0,136.0,-105.0,77.0,4.0,4.0,-813.0,511.0
-9.0,-206.0,139.0,-125.0,79.0,4.0,0.0,-817.0,519.0
-8.0,-209.0,141.0,-145.0,80.0,4.0,5.0,-820.0,526.0
-6.0,-213.0,143.0,-164.0,79.0,1.0,4.0,-818.0,534.0
-7.0,-208.0,137.0,-184.0,77.0,-2.0,7.0,-815.0,528.0
-5.0,-204.0,140.0,-208.0,79.0,-3.0,5.0,-805.0,532.0
-4.0,-205.0,139.0,-247.0,82.0,-6.0,9.0,-807.0,526.0
-5.0,-202.0,140.0,-297.0,83.0,-4.0,16.0,-809.0,522.0
-4.0,-200.0,140.0,-360.0,87.0,-5.0,20.0,-799.0,530.0
-1.0,-199.0,147.0,-441.0,89.0,-9.0,26.0,-797.0,547.0
-3.0,-199.0,151.0,-532.0,85.0,-11.0,21.0,-803.0,555.0
-4.0,-207.0,144.0,-624.0,79.0,-15.0,24.0,-810.0,555.0
2.0,-209.0,144.0,-714.0,76.0,-18.0,24.0,-818.0,538.0
-4.0,-199.0,133.0,-826.0,75.0,-19.0,16.0,-801.0,497.0
0.0,-191.0,125.0,-980.0,79.0,-14.0,21.0,-776.0,479.0
0.0,-187.0,121.0,-1167.0,84.0,-8.0,31.0,-754.0,464.0
2.0,-187.0,123.0,-1364.0,93.0,1.0,42.0,-752.0,458.0
3.0,-191.0,111.0,-1561.0,97.0,16.0,45.0,-753.0,434.0
3.0,-189.0,110.0,-1766.0,101.0,30.0,38.0,-764.0,401.0
-4.0,-189.0,99.0,-1983.0,102.0,40.0,13.0,-775.0,368.0
-8.0,-192.0,93.0,-2201.0,99.0,48.0,4.0,-780.0,350.0
-12.0,-203.0,99.0,-2385.0,92.0,61.0,-2.0,-805.0,351.0
-5.0,-226.0,108.0,-2480.0,86.0,74.0,11.0,-859.0,392.0
8.0,-252.0,124.0,-2448.0,80.0,99.0,58.0,-931.0,444.0
9.0,-275.0,139.0,-2284.0,77.0,123.0,67.0,-1042.0,524.0
3.0,-292.0,142.0,-2023.0,75.0,130.0,45.0,-1089.0,529.0
-13.0,-283.0,139.0,-1719.0,69.0,104.0,15.0,-1097.0,487.0
-16.0,-286.0,111.0,-1438.0,59.0,66.0,-21.0,-1089.0,422.0
-17.0,-271.0,97.0,-1221.0,37.0,36.0,-26.0,-1051.0,345.0
-14.0,-254.0,77.0,-1066.0,19.0,21.0,-21.0,-992.0,282.0
-8.0,-238.0,76.0,-957.0,14.0,11.0,-2.0,-914.0,258.0
-3.0,-223.0,70.0,-877.0,19.0,6.0,14.0,-854.0,248.0
-7.0,-214.0,69.0,-822.0,28.0,10.0,4.0,-821.0,244.0
-8.0,-209.0,71.0,-797.0,33.0,17.0,-5.0,-820.0,253.0
-13.0,-214.0,80.0,-787.0,39.0,20.0,-15.0,-830.0,270.0
-16.0,-222.0,85.0,-771.0,43.0,16.0,-32.0,-850.0,289.0
-17.0,-223.0,90.0,-757.0,39.0,14.0,-33.0,-865.0,310.0
-16.0,-226.0,96.0,-750.0,31.0,18.0,-35.0,-876.0,325.0
-21.0,-225.0,101.0,-746.0,19.0,23.0,-43.0,-881.0,350.0
-17.0,-229.0,103.0,-739.0,6.0,25.0,-37.0,-879.0,365.0
-19.0,-227.0,100.0,-727.0,-5.0,27.0,-45.0,-876.0,357.0
-19.0,-221.0,95.0,-714.0,-15.0,25.0,-35.0,-861.0,343.0
-17.0,-218.0,97.0,-703.0,-23.0,26.0,-36.0,-850.0,332.0
-14.0,-213.0,94.0,-708.0,-29.0,27.0,-25.0,-830.0,333.0
-12.0,-210.0,94.0,-727.0,-31.0,32.0,-14.0,-823.0,327.0
-9.0,-208.0,92.0,-763.0,-30.0,36.0,-5.0,-811.0,328.0
-2.0,-211.0,92.0,-806.0,-21.0,37.0,7.0,-813.0,331.0
0.0,-212.0,88.0,-843.0,-17.0,42.0,28.0,-829.0,312.0
2.0,-222.0,97.0,-870.0,-13.0,44.0,37.0,-856.0,326.0
3.0,-224.0,90.0,-880.0,-7.0,41.0,48.0,-867.0,336.0
1.0,-225.0,97.0,-885.0,-6.0,38.0,39.0,-884.0,342.0
2.0,-224.0,96.0,-904.0,-7.0,31.0,31.0,-874.0,357.0
1.0,-224.0,99.0,-926.0,-16.0,24.0,38.0,-862.0,358.0
3.0,-221.0,95.0,-945.0,-20.0,22.0,47.0,-857.0,333.0
3.0,-218.0,86.0,-971.0,-17.0,20.0,49.0,-845.0,304.0
5.0,-212.0,85.0,-1003.0,-8.0,18.0,47.0,-839.0,284.0
1.0,-207.0,82.0,-1044.0,1.0,16.0,46.0,-824.0,281.0
6.0,-213.0,81.0,-1090.0,2.0,17.0,49.0,-834.0,277.0
2.0,-214.0,77.0,-1135.0,6.0,13.0,46.0,-842.0,272.0
0.0,-217.0,78.0,-1172.0,12.0,2.0,43.0,-846.0,268.0
2.0,-218.0,73.0,-1197.0,20.0,-6.0,47.0,-851.0,263.0
1.0,-221.0,72.0,-1214.0,33.0,-14.0,33.0,-860.0,260.0
-1.0,-221.0,79.0,-1235.0,42.0,-23.0,17.0,-859.0,274.0
-8.0,-221.0,80.0,-1262.0,45.0,-22.0,-4.0,-865.0,284.0
-13.0,-219.0,70.0,-1289.0,46.0,-16.0,-13.0,-857.0,271.0
-15.0,-220.0,65.0,-1304.0,45.0,-7.0,-12.0,-859.0,241.0
-14.0,-218.0,55.0,-1310.0,41.0,-1.0,-20.0,-854.0,201.0
-10.0,-221.0,57.0,-1324.0,35.0,8.0,-27.0,-863.0,188.0
-17.0,-226.0,58.0,-1344.0,25.0,21.0,-31.0,-878.0,194.0
-16.0,-228.0,55.0,-1358.0,4.0,34.0,-24.0,-883.0,190.0
-7.0,-231.0,57.0,-1362.0,-16.0,43.0,7.0,-886.0,189.0
-7.0,-231.0,48.0,-1353.0,-44.0,48.0,-4.0,-897.0,163.0
-7.0,-236.0,41.0,-1345.0,-67.0,51.0,-5.0,-898.0,127.0
-7.0,-250.0,40.0,-1344.0,-77.0,51.0,20.0,-994.0,85.0
-4.0,-256.0,26.0,-1333.0,-78.0,50.0,11.0,-980.0,66.0
-6.0,-270.0,11.0,-1280.0,-63.0,43.0,10.0,-1024.0,26.0
-2.0,-283.0,3.0,-1196.0,-37.0,31.0,7.0,-1069.0,-20.0
2.0,-295.0,-4.0,-1096.0,5.0,11.0,41.0,-1117.0,-48.0
11.0,-302.0,1.0,-999.0,51.0,-4.0,82.0,-1142.0,-47.0
12.0,-314.0,16.0,-877.0,101.0,-25.0,82.0,-1191.0,17.0
14.0,-313.0,13.0,-743.0,145.0,-43.0,83.0,-1208.0,17.0
11.0,-320.0,9.0,-648.0,194.0,-54.0,98.0,-1229.0,6.0
19.0,-337.0,-4.0,-606.0,226.0,-56.0,105.0,-1277.0,-40.0
14.0,-362.0,-5.0,-594.0,259.0,-60.0,95.0,-1389.0,-51.0
12.0,-390.0,5.0,-567.0,283.0,-51.0,81.0,-1488.0,-19.0
22.0,-381.0,38.0,-515.0,278.0,-18.0,83.0,-1478.0,55.0
3.0,-373.0,46.0,-438.0,251.0,2.0,31.0,-1466.0,116.0
3.0,-379.0,34.0,-406.0,208.0,76.0,67.0,-1457.0,105.0
2.0,-366.0,16.0,-424.0,210.0,111.0,61.0,-1426.0,43.0
-9.0,-403.0,-4.0,-462.0,213.0,18.0,-13.0,-1644.0,-63.0
-44.0,-398.0,-2.0,-629.0,245.0,67.0,-106.0,-1590.0,-6.0
-60.0,-422.0,32.0,-814.0,285.0,93.0,-188.0,-1657.0,66.0
-63.0,-439.0,51.0,-930.0,282.0,115.0,-194.0,-1725.0,167.0
-68.0,-463.0,73.0,-995.0,249.0,141.0,-203.0,-1812.0,240.0
-65.0,-479.0,89.0,-1070.0,168.0,187.0,-186.0,-1885.0,301.0
-72.0,-482.0,85.0,-1167.0,58.0,241.0,-210.0,-1909.0,298.0
-72.0,-493.0,90.0,-1282.0,-52.0,293.0,-227.0,-1960.0,309.0
-63.0,-495.0,94.0,-1447.0,-137.0,338.0,-183.0,-1963.0,330.0
-36.0,-500.0,91.0,-1608.0,-186.0,356.0,-73.0,-1964.0,297.0
-10.0,-504.0,77.0,-1709.0,-193.0,337.0,22.0,-1976.0,255.0
3.0,-507.0,66.0,-1763.0,-165.0,289.0,79.0,-1982.0,215.0
21.0,-503.0,55.0,-1803.0,-104.0,231.0,138.0,-1961.0,172.0
30.0,-490.0,46.0,-1842.0,-27.0,175.0,164.0,-1911.0,144.0
29.0,-484.0,41.0,-1871.0,50.0,123.0,170.0,-1880.0,114.0
18.0,-480.0,38.0,-1891.0,115.0,81.0,126.0,-1875.0,117.0
3.0,-472.0,29.0,-1903.0,159.0,48.0,79.0,-1849.0,89.0
-12.0,-461.0,13.0,-1919.0,179.0,13.0,30.0,-1795.0,31.0
-26.0,-459.0,-5.0,-1936.0,184.0,-13.0,-34.0,-1779.0,-43.0
-38.0,-452.0,-21.0,-1930.0,175.0,-27.0,-88.0,-1752.0,-121.0
-47.0,-447.0,-35.0,-1901.0,160.0,-31.0,-127.0,-1734.0,-185.0
-51.0,-449.0,-47.0,-1849.0,142.0,-27.0,-148.0,-1737.0,-229.0
-48.0,-450.0,-60.0,-1775.0,119.0,-13.0,-134.0,-1723.0,-275.0
-37.0,-446.0,-73.0,-1679.0,98.0,13.0,-101.0,-1718.0,-333.0
-27.0,-435.0,-88.0,-1558.0,91.0,43.0,-71.0,-1674.0,-403.0
-14.0,-419.0,-104.0,-1437.0,103.0,82.0,-34.0,-1617.0,-447.0
-10.0,-409.0,-110.0,-1353.0,137.0,120.0,-7.0,-1573.0,-478.0
-1.0,-401.0,-119.0,-1291.0,186.0,133.0,27.0,-1561.0,-515.0
2.0,-369.0,-114.0,-1224.0,255.0,142.0,54.0,-1444.0,-507.0
1.0,-363.0,-111.0,-1197.0,293.0,214.0,54.0,-1410.0,-508.0
-5.0,-365.0,-107.0,-1232.0,325.0,244.0,10.0,-1418.0,-476.0
-14.0,-377.0,-100.0,-1273.0,343.0,256.0,-24.0,-1458.0,-466.0
-23.0,-393.0,-99.0,-1259.0,347.0,269.0,-53.0,-1510.0,-457.0
-27.0,-403.0,-99.0,-1186.0,362.0,276.0,-67.0,-1548.0,-456.0
-30.0,-418.0,-98.0,-1085.0,378.0,279.0,-77.0,-1587.0,-451.0
-24.0,-421.0,-93.0,-951.0,389.0,271.0,-49.0,-1594.0,-444.0
-21.0,-418.0,-91.0,-782.0,391.0,261.0,-47.0,-1589.0,-438.0
-24.0,-413.0,-89.0,-583.0,390.0,248.0,-54.0,-1562.0,-416.0
-26.0,-404.0,-85.0,-367.0,378.0,233.0,-70.0,-1538.0,-395.0
-37.0,-396.0,-84.0,-149.0,364.0,211.0,-96.0,-1505.0,-400.0
-38.0,-381.0,-81.0,40.0,321.0,185.0,-105.0,-1443.0,-370.0
-32.0,-362.0,-76.0,215.0,270.0,153.0,-78.0,-1372.0,-347.0
-32.0,-341.0,-68.0,382.0,240.0,125.0,-81.0,-1297.0,-335.0
-33.0,-328.0,-76.0,525.0,209.0,104.0,-79.0,-1242.0,-337.0
-34.0,-313.0,-68.0,629.0,177.0,77.0,-90.0,-1184.0,-320.0
-46.0,-302.0,-59.0,694.0,117.0,62.0,-139.0,-1160.0,-283.0
-58.0,-296.0,-53.0,741.0,42.0,50.0,-186.0,-1132.0,-254.0
-58.0,-288.0,-46.0,790.0,-35.0,22.0,-187.0,-1113.0,-211.0
-67.0,-275.0,-39.0,824.0,-119.0,-12.0,-231.0,-1062.0,-219.0
-70.0,-266.0,-42.0,822.0,-160.0,-26.0,-237.0,-1043.0,-189.0
-60.0,-262.0,-32.0,806.0,-181.0,-16.0,-192.0,-1002.0,-162.0
-60.0,-259.0,-50.0,796.0,-205.0,23.0,-213.0,-1019.0,-232.0
-51.0,-249.0,-59.0,761.0,-161.0,0.0,-190.0,-994.0,-281.0
-44.0,-242.0,-44.0,680.0,-66.0,-59.0,-147.0,-928.0,-231.0
-46.0,-244.0,-48.0,601.0,20.0,-98.0,-160.0,-943.0,-215.0
-41.0,-235.0,-33.0,553.0,45.0,-138.0,-111.0,-946.0,-162.0
-23.0,-254.0,-20.0,527.0,-8.0,-177.0,-48.0,-952.0,-160.0
-4.0,-247.0,-35.0,514.0,-94.0,-229.0,26.0,-941.0,-154.0
14.0,-233.0,-28.0,518.0,-186.0,-254.0,78.0,-904.0,-157.0
27.0,-221.0,-32.0,540.0,-247.0,-256.0,132.0,-863.0,-161.0
29.0,-210.0,-40.0,560.0,-273.0,-253.0,150.0,-822.0,-180.0
29.0,-191.0,-38.0,566.0,-268.0,-245.0,142.0,-733.0,-192.0
27.0,-176.0,-41.0,576.0,-234.0,-234.0,135.0,-667.0,-220.0
28.0,-146.0,-44.0,561.0,-208.0,-219.0,134.0,-561.0,-231.0
18.0,-132.0,-60.0,541.0,-209.0,-221.0,92.0,-514.0,-265.0
10.0,-114.0,-66.0,526.0,-217.0,-238.0,50.0,-425.0,-302.0
2.0,-83.0,-64.0,497.0,-195.0,-241.0,15.0,-326.0,-296.0
-2.0,-66.0,-63.0,471.0,-162.0,-230.0,-8.0,-256.0,-280.0
-9.0,-47.0,-54.0,436.0,-131.0,-212.0,-25.0,-192.0,-255.0
-21.0,-59.0,-66.0,384.0,-96.0,-186.0,-65.0,-192.0,-245.0
0.0,-36.0,-25.0,281.0,-52.0,-146.0,11.0,-107.0,-144.0
-2.0,-48.0,-26.0,207.0,-26.0,-117.0,-6.0,-176.0,-145.0
-2.0,-61.0,-20.0,117.0,8.0,-82.0,1.0,-241.0,-94.0
-1.0,-86.0,-6.0,33.0,31.0,-39.0,5.0,-333.0,-65.0
0.0,-115.0,1.0,-53.0,33.0,4.0,19.0,-432.0,-33.0
-6.0,-138.0,11.0,-100.0,16.0,44.0,-2.0,-531.0,4.0
-9.0,-168.0,24.0,-116.0,-4.0,90.0,-12.0,-630.0,37.0
-7.0,-189.0,27.0,-90.0,-20.0,138.0,-8.0,-720.0,62.0
-14.0,-214.0,32.0,-21.0,-33.0,184.0,-18.0,-806.0,80.0
-14.0,-231.0,37.0,80.0,-28.0,222.0,-29.0,-871.0,94.0
-20.0,-243.0,38.0,191.0,-19.0,255.0,-46.0,-919.0,101.0
-23.0,-254.0,38.0,312.0,-10.0,291.0,-51.0,-958.0,110.0
-25.0,-258.0,35.0,444.0,-15.0,316.0,-72.0,-987.0,96.0
-23.0,-259.0,30.0,586.0,-32.0,326.0,-67.0,-979.0,80.0
-27.0,-255.0,28.0,742.0,-65.0,324.0,-68.0,-947.0,64.0
-25.0,-239.0,20.0,909.0,-108.0,320.0,-62.0,-898.0,40.0
-27.0,-225.0,13.0,1080.0,-141.0,302.0,-68.0,-833.0,13.0
-22.0,-208.0,-5.0,1230.0,-156.0,286.0,-73.0,-758.0,-61.0
-19.0,-180.0,-22.0,1331.0,-139.0,263.0,-63.0,-676.0,-121.0
-7.0,-151.0,-35.0,1380.0,-93.0,239.0,-30.0,-592.0,-184.0
-10.0,-134.0,-41.0,1394.0,-38.0,184.0,9.0,-526.0,-214.0
0.0,-112.0,-38.0,1395.0,-2.0,101.0,-10.0,-434.0,-188.0
-3.0,-73.0,-65.0,1406.0,15.0,39.0,-29.0,-320.0,-252.0
0.0,-42.0,-80.0,1322.0,69.0,41.0,8.0,-189.0,-347.0
10.0,-25.0,-81.0,1127.0,125.0,57.0,54.0,-115.0,-344.0
14.0,-8.0,-75.0,907.0,145.0,41.0,60.0,-33.0,-327.0
30.0,-9.0,-59.0,708.0,149.0,37.0,133.0,-32.0,-305.0
32.0,-23.0,-49.0,551.0,151.0,31.0,147.0,-77.0,-240.0
28.0,-48.0,-31.0,465.0,170.0,2.0,123.0,-150.0,-187.0
21.0,-65.0,-18.0,451.0,179.0,-9.0,112.0,-221.0,-131.0
27.0,-86.0,-18.0,498.0,168.0,7.0,130.0,-293.0,-113.0
27.0,-101.0,-20.0,566.0,143.0,28.0,137.0,-354.0,-104.0
29.0,-112.0,-20.0,635.0,116.0,45.0,141.0,-398.0,-109.0
28.0,-122.0,-18.0,710.0,84.0,56.0,140.0,-440.0,-120.0
29.0,-122.0,-25.0,788.0,53.0,62.0,134.0,-462.0,-138.0
27.0,-125.0,-27.0,848.0,34.0,73.0,128.0,-464.0,-160.0
22.0,-124.0,-31.0,884.0,26.0,84.0,110.0,-463.0,-158.0
13.0,-120.0,-33.0,909.0,33.0,86.0,83.0,-460.0,-160.0
16.0,-123.0,-30.0,910.0,50.0,87.0,80.0,-460.0,-167.0
11.0,-120.0,-32.0,896.0,71.0,83.0,63.0,-456.0,-173.0
7.0,-117.0,-37.0,869.0,90.0,85.0,36.0,-451.0,-180.0
-5.0,-118.0,-37.0,832.0,107.0,96.0,6.0,-461.0,-200.0
-11.0,-121.0,-39.0,780.0,110.0,107.0,-21.0,-465.0,-204.0
-22.0,-126.0,-44.0,733.0,93.0,103.0,-58.0,-488.0,-215.0
-43.0,-136.0,-52.0,683.0,60.0,95.0,-142.0,-544.0,-238.0
-54.0,-157.0,-42.0,628.0,24.0,95.0,-188.0,-602.0,-220.0
-60.0,-173.0,-45.0,600.0,-11.0,84.0,-207.0,-664.0,-206.0
-68.0,-177.0,-43.0,593.0,-43.0,52.0,-241.0,-680.0,-207.0
-71.0,-183.0,-42.0,601.0,-74.0,14.0,-254.0,-692.0,-205.0
-67.0,-181.0,-49.0,612.0,-105.0,-15.0,-247.0,-696.0,-213.0
-72.0,-179.0,-48.0,612.0,-130.0,-32.0,-261.0,-691.0,-243.0
-71.0,-176.0,-56.0,586.0,-137.0,-27.0,-265.0,-676.0,-259.0
-67.0,-173.0,-54.0,550.0,-140.0,-14.0,-257.0,-664.0,-260.0
-69.0,-169.0,-53.0,515.0,-153.0,2.0,-246.0,-659.0,-257.0
-63.0,-172.0,-55.0,478.0,-173.0,4.0,-221.0,-675.0,-248.0
-57.0,-177.0,-54.0,422.0,-186.0,-7.0,-199.0,-701.0,-254.0
-49.0,-186.0,-50.0,347.0,-194.0,-24.0,-157.0,-745.0,-225.0
-42.0,-202.0,-44.0,264.0,-203.0,-45.0,-125.0,-803.0,-214.0
-34.0,-224.0,-40.0,188.0,-211.0,-64.0,-113.0,-860.0,-202.0
-26.0,-241.0,-36.0,120.0,-214.0,-75.0,-86.0,-925.0,-191.0
-16.0,-260.0,-28.0,71.0,-216.0,-84.0,-39.0,-1001.0,-172.0
-19.0,-274.0,-20.0,53.0,-218.0,-100.0,-37.0,-1048.0,-155.0
-17.0,-285.0,-17.0,79.0,-215.0,-112.0,-34.0,-1084.0,-120.0
-21.0,-288.0,-9.0,148.0,-218.0,-117.0,-34.0,-1103.0,-81.0
-21.0,-289.0,-6.0,235.0,-226.0,-123.0,-48.0,-1107.0,-60.0
-21.0,-281.0,0.0,316.0,-240.0,-122.0,-38.0,-1081.0,-38.0
-17.0,-271.0,0.0,384.0,-256.0,-116.0,-34.0,-1047.0,-43.0
-13.0,-260.0,0.0,419.0,-261.0,-109.0,-26.0,-1006.0,-33.0
-5.0,-247.0,-6.0,434.0,-256.0,-101.0,11.0,-959.0,-49.0
-1.0,-234.0,-10.0,417.0,-245.0,-98.0,32.0,-910.0,-69.0
10.0,-226.0,-13.0,376.0,-227.0,-101.0,57.0,-884.0,-78.0
11.0,-228.0,-16.0,324.0,-196.0,-99.0,73.0,-881.0,-91.0
12.0,-231.0,-17.0,264.0,-158.0,-99.0,83.0,-886.0,-87.0
10.0,-237.0,-12.0,207.0,-125.0,-100.0,75.0,-912.0,-82.0
17.0,-250.0,-4.0,171.0,-98.0,-106.0,90.0,-933.0,-65.0
12.0,-259.0,-10.0,178.0,-74.0,-118.0,79.0,-1000.0,-84.0
14.0,-264.0,-11.0,179.0,-49.0,-120.0,88.0,-1018.0,-69.0
18.0,-266.0,-7.0,174.0,-24.0,-125.0,100.0,-1032.0,-65.0
24.0,-266.0,-5.0,173.0,12.0,-134.0,127.0,-1019.0,-49.0
25.0,-259.0,-3.0,182.0,51.0,-148.0,134.0,-1016.0,-55.0
25.0,-258.0,-2.0,189.0,97.0,-159.0,132.0,-1000.0,-45.0
23.0,-256.0,-1.0,193.0,144.0,-164.0,128.0,-983.0,-42.0
17.0,-248.0,-1.0,198.0,180.0,-168.0,106.0,-962.0,-34.0
12.0,-247.0,0.0,196.0,208.0,-174.0,80.0,-952.0,-24.0
10.0,-247.0,1.0,191.0,223.0,-176.0,70.0,-945.0,-16.0
1.0,-245.0,5.0,180.0,232.0,-180.0,46.0,-938.0,-16.0
2.0,-245.0,8.0,163.0,247.0,-175.0,33.0,-937.0,-1.0
-2.0,-243.0,11.0,150.0,265.0,-170.0,10.0,-933.0,0.0
-6.0,-239.0,6.0,132.0,284.0,-160.0,14.0,-918.0,-1.0
-9.0,-237.0,11.0,105.0,303.0,-153.0,-5.0,-919.0,0.0
-6.0,-242.0,9.0,84.0,324.0,-161.0,-14.0,-925.0,-12.0
-7.0,-241.0,8.0,57.0,341.0,-160.0,-4.0,-926.0,-18.0
-4.0,-243.0,1.0,32.0,358.0,-160.0,11.0,-931.0,-21.0
-1.0,-244.0,2.0,11.0,378.0,-162.0,18.0,-938.0,-21.0
-7.0,-248.0,6.0,-13.0,401.0,-167.0,19.0,-963.0,-21.0
-5.0,-251.0,4.0,-36.0,422.0,-171.0,10.0,-974.0,-9.0
-6.0,-255.0,13.0,-53.0,430.0,-170.0,3.0,-977.0,19.0
-4.0,-251.0,21.0,-59.0,429.0,-170.0,19.0,-981.0,36.0
3.0,-252.0,19.0,-53.0,424.0,-171.0,37.0,-971.0,38.0
3.0,-252.0,18.0,-50.0,434.0,-170.0,33.0,-970.0,42.0
-2.0,-252.0,19.0,-55.0,448.0,-162.0,16.0,-976.0,40.0
-8.0,-255.0,22.0,-55.0,457.0,-151.0,8.0,-971.0,40.0
-5.0,-254.0,17.0,-44.0,457.0,-143.0,4.0,-977.0,33.0
-9.0,-249.0,10.0,-30.0,453.0,-137.0,5.0,-980.0,23.0
-7.0,-254.0,15.0,-22.0,461.0,-132.0,-4.0,-976.0,21.0
-11.0,-254.0,11.0,-11.0,475.0,-130.0,-3.0,-978.0,17.0
-10.0,-253.0,12.0,-2.0,487.0,-131.0,-3.0,-986.0,13.0
-8.0,-256.0,11.0,-1.0,491.0,-137.0,-5.0,-991.0,12.0
-7.0,-259.0,15.0,-2.0,490.0,-144.0,0.0,-995.0,21.0
-6.0,-258.0,20.0,4.0,489.0,-153.0,8.0,-1008.0,28.0
-5.0,-259.0,17.0,27.0,488.0,-162.0,13.0,-1003.0,39.0
-3.0,-261.0,17.0,56.0,492.0,-170.0,19.0,-1003.0,37.0
-4.0,-257.0,17.0,82.0,499.0,-177.0,16.0,-999.0,30.0
-1.0,-252.0,16.0,95.0,501.0,-184.0,19.0,-984.0,21.0
0.0,-251.0,12.0,89.0,498.0,-190.0,27.0,-968.0,15.0
0.0,-246.0,13.0,72.0,489.0,-195.0,33.0,-959.0,17.0
0.0,-249.0,14.0,52.0,484.0,-194.0,35.0,-955.0,16.0
0.0,-250.0,18.0,37.0,478.0,-192.0,32.0,-963.0,28.0
-7.0,-253.0,17.0,29.0,464.0,-189.0,20.0,-974.0,41.0
-5.0,-257.0,22.0,25.0,442.0,-185.0,11.0,-995.0,50.0
-11.0,-257.0,27.0,19.0,414.0,-180.0,-9.0,-1005.0,66.0
-16.0,-254.0,31.0,17.0,386.0,-173.0,-19.0,-1005.0,72.0
-18.0,-255.0,30.0,15.0,364.0,-166.0,-31.0,-998.0,75.0
-20.0,-253.0,30.0,16.0,344.0,-160.0,-37.0,-976.0,70.0
-22.0,-250.0,23.0,13.0,329.0,-156.0,-49.0,-965.0,60.0
-21.0,-246.0,22.0,5.0,319.0,-150.0,-63.0,-961.0,47.0
-26.0,-247.0,21.0,-10.0,308.0,-145.0,-67.0,-961.0,42.0
-22.0,-250.0,14.0,-30.0,301.0,-140.0,-60.0,-962.0,36.0
-20.0,-249.0,14.0,-52.0,296.0,-128.0,-50.0,-978.0,31.0
-20.0,-253.0,16.0,-70.0,292.0,-118.0,-53.0,-980.0,27.0
-19.0,-254.0,14.0,-81.0,285.0,-103.0,-49.0,-993.0,19.0
-21.0,-260.0,11.0,-95.0,275.0,-90.0,-46.0,-1012.0,8.0
-17.0,-261.0,11.0,-113.0,262.0,-81.0,-33.0,-1020.0,-4.0
-14.0,-265.0,6.0,-132.0,244.0,-77.0,-16.0,-1026.0,-4.0
-8.0,-264.0,12.0,-143.0,231.0,-75.0,2.0,-1030.0,1.0
-8.0,-269.0,24.0,-136.0,225.0,-71.0,4.0,-1036.0,19.0
-16.0,-268.0,26.0,-109.0,216.0,-64.0,-7.0,-1037.0,44.0
-15.0,-266.0,29.0,-70.0,200.0,-55.0,-21.0,-1030.0,67.0
-18.0,-264.0,27.0,-30.0,176.0,-47.0,-34.0,-1022.0,75.0
-17.0,-261.0,24.0,-9.0,153.0,-41.0,-37.0,-1010.0,56.0
-18.0,-254.0,21.0,-14.0,140.0,-37.0,-38.0,-993.0,40.0
-19.0,-253.0,14.0,-32.0,140.0,-33.0,-44.0,-987.0,19.0
-19.0,-255.0,11.0,-52.0,145.0,-29.0,-42.0,-986.0,7.0
-15.0,-256.0,11.0,-64.0,149.0,-26.0,-34.0,-980.0,-3.0
-18.0,-251.0,5.0,-71.0,151.0,-21.0,-34.0,-986.0,-8.0
-12.0,-254.0,10.0,-71.0,152.0,-15.0,-31.0,-982.0,-3.0
-16.0,-252.0,11.0,-61.0,158.0,-11.0,-26.0,-983.0,1.0
-15.0,-253.0,17.0,-45.0,168.0,-7.0,-19.0,-979.0,20.0
-10.0,-258.0,19.0,-27.0,175.0,-3.0,-20.0,-984.0,41.0
-13.0,-257.0,21.0,-15.0,180.0,-2.0,-16.0,-986.0,53.0
-12.0,-256.0,22.0,-16.0,181.0,-2.0,-25.0,-1004.0,49.0
-15.0,-261.0,23.0,-32.0,181.0,0.0,-23.0,-1020.0,44.0
-18.0,-262.0,23.0,-61.0,178.0,1.0,-23.0,-1026.0,44.0
-13.0,-262.0,20.0,-82.0,165.0,-3.0,-19.0,-1024.0,40.0
-7.0,-262.0,18.0,-87.0,152.0,-7.0,-2.0,-1021.0,39.0
-9.0,-257.0,20.0,-82.0,141.0,-11.0,4.0,-1013.0,40.0
-9.0,-256.0,22.0,-67.0,137.0,-16.0,6.0,-995.0,46.0
-10.0,-249.0,24.0,-51.0,138.0,-20.0,-5.0,-970.0,50.0
-16.0,-246.0,25.0,-42.0,137.0,-24.0,-23.0,-954.0,55.0
-17.0,-245.0,24.0,-39.0,131.0,-24.0,-38.0,-939.0,55.0
-20.0,-236.0,23.0,-47.0,127.0,-26.0,-58.0,-921.0,46.0
-27.0,-239.0,16.0,-61.0,121.0,-26.0,-70.0,-915.0,40.0
-27.0,-237.0,19.0,-81.0,111.0,-23.0,-80.0,-909.0,39.0
-31.0,-236.0,17.0,-105.0,98.0,-22.0,-88.0,-915.0,30.0
-31.0,-235.0,17.0,-132.0,85.0,-19.0,-90.0,-917.0,36.0
-32.0,-241.0,16.0,-157.0,75.0,-14.0,-94.0,-926.0,34.0
-33.0,-241.0,15.0,-184.0,66.0,-8.0,-93.0,-932.0,31.0
-33.0,-244.0,18.0,-203.0,59.0,-3.0,-93.0,-946.0,34.0
-35.0,-256.0,15.0,-213.0,50.0,4.0,-96.0,-969.0,30.0
-31.0,-256.0,15.0,-220.0,42.0,8.0,-98.0,-979.0,22.0
-35.0,-259.0,14.0,-221.0,29.0,13.0,-99.0,-1006.0,32.0
-36.0,-259.0,16.0,-215.0,7.0,13.0,-98.0,-1018.0,37.0
-33.0,-262.0,16.0,-208.0,-25.0,14.0,-97.0,-1022.0,29.0
-35.0,-261.0,18.0,-209.0,-49.0,14.0,-94.0,-1023.0,35.0
-34.0,-261.0,19.0,-213.0,-69.0,15.0,-84.0,-1024.0,33.0
-28.0,-261.0,21.0,-221.0,-89.0,13.0,-83.0,-1022.0,36.0
-28.0,-260.0,21.0,-228.0,-109.0,13.0,-73.0,-1017.0,42.0
-25.0,-257.0,20.0,-234.0,-125.0,15.0,-74.0,-1011.0,51.0
-29.0,-254.0,22.0,-241.0,-141.0,21.0,-72.0,-998.0,50.0
-28.0,-256.0,24.0,-249.0,-157.0,27.0,-71.0,-995.0,43.0
-26.0,-254.0,21.0,-256.0,-174.0,33.0,-74.0,-984.0,46.0
-29.0,-253.0,17.0,-257.0,-192.0,41.0,-72.0,-968.0,40.0
-29.0,-249.0,16.0,-254.0,-209.0,48.0,-77.0,-966.0,36.0
-31.0,-250.0,15.0,-253.0,-226.0,56.0,-80.0,-966.0,29.0
-26.0,-249.0,20.0,-253.0,-245.0,63.0,-76.0,-962.0,26.0
-28.0,-248.0,15.0,-254.0,-261.0,68.0,-77.0,-965.0,29.0
-26.0,-250.0,18.0,-256.0,-278.0,71.0,-77.0,-971.0,28.0
-25.0,-254.0,15.0,-256.0,-291.0,74.0,-67.0,-975.0,34.0
-25.0,-253.0,19.0,-257.0,-303.0,77.0,-57.0,-979.0,37.0
-21.0,-252.0,19.0,-254.0,-314.0,78.0,-48.0,-980.0,39.0
-18.0,-263.0,18.0,-248.0,-320.0,79.0,-31.0,-978.0,38.0
-14.0,-258.0,22.0,-243.0,-324.0,80.0,-20.0,-999.0,40.0
-7.0,-257.0,19.0,-237.0,-324.0,81.0,-8.0,-1004.0,35.0
-6.0,-261.0,17.0,-235.0,-325.0,83.0,5.0,-1014.0,34.0
-7.0,-263.0,19.0,-234.0,-324.0,79.0,16.0,-1024.0,36.0
0.0,-264.0,18.0,-229.0,-323.0,75.0,26.0,-1032.0,39.0
2.0,-268.0,15.0,-223.0,-324.0,73.0,34.0,-1034.0,40.0
3.0,-268.0,12.0,-214.0,-320.0,69.0,45.0,-1035.0,31.0
3.0,-268.0,18.0,-205.0,-315.0,66.0,55.0,-1037.0,38.0
5.0,-263.0,21.0,-196.0,-304.0,61.0,58.0,-1025.0,37.0
7.0,-265.0,22.0,-183.0,-293.0,59.0,67.0,-1023.0,42.0
7.0,-261.0,21.0,-168.0,-280.0,53.0,59.0,-1015.0,46.0
4.0,-257.0,20.0,-155.0,-269.0,51.0,57.0,-1004.0,54.0
8.0,-253.0,22.0,-147.0,-258.0,49.0,61.0,-998.0,50.0
6.0,-257.0,22.0,-143.0,-250.0,49.0,59.0,-992.0,52.0
6.0,-260.0,20.0,-138.0,-241.0,49.0,60.0,-1002.0,45.0
7.0,-261.0,19.0,-129.0,-231.0,50.0,61.0,-1002.0,45.0
11.0,-260.0,23.0,-118.0,-219.0,52.0,58.0,-1010.0,41.0
9.0,-259.0,18.0,-109.0,-208.0,54.0,66.0,-1015.0,41.0
9.0,-263.0,19.0,-99.0,-192.0,53.0,74.0,-1015.0,39.0
10.0,-263.0,19.0,-82.0,-174.0,52.0,79.0,-1015.0,37.0
10.0,-260.0,18.0,-66.0,-153.0,48.0,80.0,-1011.0,33.0
14.0,-257.0,24.0,-55.0,-132.0,45.0,80.0,-1003.0,31.0
15.0,-255.0,19.0,-50.0,-113.0,43.0,89.0,-1003.0,34.0
15.0,-257.0,20.0,-51.0,-92.0,40.0,91.0,-992.0,34.0
14.0,-257.0,19.0,-52.0,-72.0,36.0,97.0,-995.0,39.0
16.0,-259.0,23.0,-49.0,-50.0,34.0,96.0,-997.0,42.0
17.0,-258.0,19.0,-46.0,-28.0,31.0,91.0,-1006.0,42.0
15.0,-258.0,19.0,-39.0,-10.0,25.0,94.0,-994.0,43.0
13.0,-256.0,21.0,-30.0,5.0,18.0,86.0,-1006.0,43.0
14.0,-255.0,15.0,-20.0,19.0,9.0,81.0,-1004.0,39.0
12.0,-255.0,15.0,-14.0,33.0,1.0,78.0,-986.0,29.0
8.0,-255.0,18.0,-10.0,51.0,-6.0,76.0,-993.0,31.0
7.0,-256.0,15.0,-3.0,70.0,-14.0,59.0,-992.0,27.0
6.0,-255.0,16.0,3.0,87.0,-16.0,58.0,-984.0,24.0
2.0,-252.0,15.0,3.0,102.0,-20.0,58.0,-979.0,24.0
3.0,-253.0,16.0,0.0,113.0,-24.0,55.0,-978.0,23.0
5.0,-256.0,15.0,-4.0,123.0,-24.0,53.0,-980.0,19.0
2.0,-256.0,12.0,-5.0,133.0,-26.0,53.0,-985.0,15.0
5.0,-257.0,16.0,-3.0,146.0,-25.0,52.0,-998.0,16.0
4.0,-259.0,11.0,1.0,156.0,-24.0,48.0,-1001.0,20.0
0.0,-259.0,11.0,4.0,160.0,-25.0,45.0,-1002.0,15.0
0.0,-260.0,12.0,8.0,163.0,-28.0,33.0,-1007.0,21.0
-4.0,-261.0,13.0,10.0,165.0,-27.0,30.0,-1008.0,29.0
-2.0,-261.0,17.0,14.0,167.0,-27.0,23.0,-1017.0,36.0
-3.0,-263.0,21.0,21.0,170.0,-30.0,20.0,-1018.0,40.0
-2.0,-260.0,19.0,31.0,173.0,-31.0,22.0,-1009.0,44.0
-1.0,-264.0,20.0,41.0,173.0,-33.0,26.0,-1010.0,43.0
0.0,-259.0,16.0,51.0,172.0,-32.0,22.0,-1010.0,36.0
0.0,-258.0,18.0,53.0,172.0,-31.0,20.0,-1003.0,33.0
-9.0,-259.0,16.0,51.0,171.0,-29.0,12.0,-1015.0,35.0
-11.0,-259.0,16.0,49.0,166.0,-27.0,3.0,-1016.0,28.0
-8.0,-260.0,17.0,46.0,158.0,-26.0,-6.0,-1013.0,29.0
-13.0,-259.0,14.0,49.0,149.0,-25.0,-9.0,-1010.0,24.0
-10.0,-258.0,17.0,55.0,136.0,-27.0,-10.0,-996.0,26.0
-11.0,-256.0,13.0,65.0,127.0,-29.0,-7.0,-993.0,29.0
-4.0,-254.0,13.0,73.0,121.0,-30.0,-4.0,-988.0,25.0
-8.0,-255.0,16.0,76.0,118.0,-30.0,3.0,-977.0,26.0
-9.0,-251.0,16.0,75.0,112.0,-34.0,7.0,-976.0,28.0
-6.0,-253.0,18.0,73.0,106.0,-37.0,8.0,-971.0,29.0
-8.0,-253.0,17.0,68.0,100.0,-40.0,7.0,-974.0,30.0
-6.0,-253.0,16.0,63.0,95.0,-40.0,10.0,-990.0,30.0
-4.0,-253.0,18.0,61.0,92.0,-41.0,5.0,-982.0,35.0
-6.0,-255.0,18.0,61.0,90.0,-39.0,1.0,-988.0,28.0
-11.0,-252.0,17.0,64.0,91.0,-36.0,-1.0,-980.0,18.0
-9.0,-253.0,15.0,69.0,92.0,-32.0,-8.0,-985.0,19.0
-10.0,-254.0,14.0,75.0,97.0,-29.0,-14.0,-983.0,15.0
-11.0,-253.0,14.0,79.0,97.0,-25.0,-13.0,-978.0,12.0
-7.0,-254.0,17.0,80.0,98.0,-21.0,-8.0,-974.0,19.0
-9.0,-253.0,14.0,78.0,96.0,-18.0,-5.0,-975.0,25.0
-7.0,-250.0,17.0,77.0,95.0,-13.0,0.0,-966.0,16.0
-7.0,-254.0,16.0,74.0,96.0,-9.0,2.0,-976.0,29.0
-5.0,-254.0,13.0,73.0,94.0,-5.0,5.0,-980.0,29.0
-7.0,-253.0,14.0,73.0,92.0,-3.0,14.0,-981.0,25.0
0.0,-256.0,13.0,73.0,90.0,-2.0,16.0,-980.0,20.0
-1.0,-251.0,13.0,73.0,93.0,-1.0,24.0,-977.0,22.0
0.0,-254.0,11.0,77.0,96.0,-2.0,27.0,-978.0,17.0
0.0,-254.0,12.0,80.0,103.0,-4.0,32.0,-980.0,17.0
-1.0,-255.0,12.0,83.0,110.0,-7.0,26.0,-972.0,13.0
-1.0,-253.0,12.0,83.0,118.0,-10.0,17.0,-978.0,5.0
-2.0,-252.0,13.0,75.0,127.0,-15.0,20.0,-971.0,11.0
-3.0,-254.0,11.0,66.0,130.0,-18.0,11.0,-978.0,9.0
-3.0,-254.0,14.0,54.0,133.0,-21.0,20.0,-975.0,18.0
-1.0,-253.0,12.0,49.0,135.0,-22.0,12.0,-979.0,15.0
-4.0,-254.0,16.0,48.0,139.0,-26.0,16.0,-974.0,22.0
-3.0,-253.0,15.0,50.0,144.0,-27.0,9.0,-973.0,23.0
-2.0,-252.0,11.0,52.0,151.0,-29.0,12.0,-971.0,21.0
-4.0,-252.0,13.0,49.0,157.0,-29.0,16.0,-966.0,19.0
-3.0,-252.0,11.0,46.0,161.0,-34.0,19.0,-967.0,18.0
-3.0,-249.0,10.0,41.0,168.0,-36.0,14.0,-964.0,13.0
-1.0,-252.0,9.0,32.0,174.0,-36.0,19.0,-969.0,8.0
-1.0,-251.0,12.0,27.0,181.0,-39.0,15.0,-968.0,15.0
-5.0,-249.0,14.0,21.0,188.0,-41.0,11.0,-971.0,17.0
-5.0,-250.0,13.0,15.0,192.0,-40.0,11.0,-966.0,25.0
-5.0,-250.0,11.0,7.0,198.0,-40.0,6.0,-971.0,24.0
-6.0,-250.0,16.0,-4.0,202.0,-42.0,10.0,-963.0,34.0
-6.0,-248.0,17.0,-16.0,201.0,-44.0,10.0,-966.0,29.0
-5.0,-250.0,11.0,-31.0,201.0,-46.0,10.0,-960.0,19.0
-5.0,-248.0,16.0,-43.0,202.0,-50.0,12.0,-965.0,18.0
-7.0,-247.0,14.0,-51.0,201.0,-55.0,4.0,-962.0,17.0
-9.0,-249.0,12.0,-59.0,200.0,-57.0,1.0,-964.0,20.0
-8.0,-249.0,12.0,-66.0,198.0,-60.0,-2.0,-963.0,15.0
-10.0,-250.0,13.0,-78.0,198.0,-63.0,-2.0,-970.0,18.0
-7.0,-251.0,17.0,-93.0,196.0,-68.0,-8.0,-976.0,21.0
-12.0,-253.0,14.0,-100.0,195.0,-67.0,-16.0,-978.0,23.0
-14.0,-257.0,13.0,-101.0,195.0,-69.0,-13.0,-988.0,20.0
-12.0,-257.0,11.0,-93.0,191.0,-70.0,-17.0,-992.0,20.0
-13.0,-257.0,14.0,-86.0,189.0,-73.0,-21.0,-983.0,21.0
-13.0,-254.0,14.0,-80.0,188.0,-73.0,-22.0,-989.0,18.0
-14.0,-255.0,13.0,-76.0,184.0,-72.0,-23.0,-985.0,12.0
-13.0,-251.0,10.0,-75.0,179.0,-70.0,-23.0,-977.0,11.0
-15.0,-254.0,8.0,-76.0,176.0,-68.0,-24.0,-980.0,8.0
-16.0,-253.0,8.0,-76.0,172.0,-66.0,-26.0,-977.0,8.0
-14.0,-254.0,9.0,-80.0,167.0,-64.0,-30.0,-982.0,3.0
-15.0,-254.0,9.0,-85.0,162.0,-61.0,-24.0,-991.0,1.0
-13.0,-255.0,6.0,-91.0,157.0,-58.0,-22.0,-993.0,5.0
-12.0,-256.0,13.0,-94.0,150.0,-54.0,-21.0,-997.0,4.0
-10.0,-256.0,5.0,-99.0,143.0,-48.0,-16.0,-1000.0,6.0
-11.0,-255.0,15.0,-105.0,136.0,-46.0,-12.0,-998.0,6.0
-9.0,-256.0,8.0,-110.0,130.0,-41.0,-2.0,-1008.0,5.0
-8.0,-260.0,10.0,-111.0,127.0,-39.0,-5.0,-1015.0,5.0
-8.0,-262.0,8.0,-109.0,125.0,-38.0,1.0,-1008.0,3.0
-8.0,-260.0,5.0,-106.0,123.0,-38.0,-5.0,-1012.0,-4.0
-9.0,-260.0,9.0,-101.0,120.0,-36.0,-5.0,-1014.0,5.0
-9.0,-261.0,9.0,-93.0,117.0,-34.0,-4.0,-1014.0,1.0
-8.0,-261.0,10.0,-82.0,115.0,-31.0,-2.0,-1014.0,11.0
-9.0,-262.0,8.0,-69.0,113.0,-26.0,-3.0,-1016.0,5.0
-7.0,-258.0,12.0,-55.0,110.0,-22.0,-5.0,-1019.0,7.0
-9.0,-260.0,9.0,-43.0,108.0,-15.0,2.0,-1011.0,5.0
-9.0,-259.0,9.0,-37.0,108.0,-11.0,-6.0,-1016.0,13.0
-7.0,-261.0,13.0,-30.0,106.0,-7.0,-3.0,-1013.0,11.0
-10.0,-262.0,11.0,-26.0,108.0,-3.0,-1.0,-1022.0,16.0
-7.0,-263.0,13.0,-25.0,110.0,0.0,6.0,-1019.0,15.0
-6.0,-261.0,10.0,-23.0,112.0,0.0,9.0,-1019.0,15.0
-2.0,-265.0,8.0,-19.0,115.0,-2.0,11.0,-1015.0,12.0
-1.0,-260.0,5.0,-14.0,116.0,-3.0,15.0,-1013.0,6.0
-1.0,-260.0,9.0,-8.0,118.0,-3.0,21.0,-1011.0,2.0
-1.0,-260.0,9.0,-2.0,119.0,-4.0,18.0,-1010.0,8.0
0.0,-255.0,4.0,6.0,122.0,-7.0,16.0,-1003.0,7.0
-4.0,-256.0,10.0,8.0,121.0,-6.0,15.0,-1001.0,9.0
-3.0,-252.0,10.0,8.0,120.0,-9.0,15.0,-979.0,16.0
-5.0,-255.0,12.0,7.0,118.0,-11.0,13.0,-988.0,11.0
-1.0,-256.0,11.0,1.0,116.0,-12.0,14.0,-993.0,12.0
-3.0,-257.0,13.0,-3.0,116.0,-14.0,12.0,-994.0,15.0
-6.0,-253.0,13.0,-5.0,118.0,-15.0,12.0,-999.0,20.0
-6.0,-254.0,11.0,-5.0,119.0,-16.0,7.0,-989.0,14.0
-5.0,-257.0,9.0,-8.0,120.0,-17.0,10.0,-981.0,13.0
-5.0,-256.0,11.0,-14.0,118.0,-18.0,5.0,-986.0,-1.0
-6.0,-259.0,12.0,-22.0,117.0,-17.0,9.0,-1005.0,0.0
-4.0,-258.0,10.0,-25.0,118.0,-15.0,17.0,-1007.0,8.0
-4.0,-258.0,12.0,-23.0,115.0,-13.0,16.0,-1012.0,18.0
-3.0,-258.0,11.0,-15.0,116.0,-11.0,20.0,-1013.0,19.0
-4.0,-262.0,15.0,-6.0,113.0,-11.0,16.0,-1015.0,23.0
-5.0,-259.0,16.0,2.0,111.0,-13.0,10.0,-1006.0,28.0
-5.0,-258.0,11.0,3.0,107.0,-13.0,5.0,-1004.0,25.0
-10.0,-254.0,14.0,4.0,99.0,-15.0,-5.0,-992.0,22.0
-10.0,-253.0,13.0,4.0,90.0,-17.0,-7.0,-988.0,19.0
-10.0,-252.0,15.0,5.0,80.0,-16.0,-7.0,-983.0,17.0
-8.0,-256.0,10.0,5.0,71.0,-18.0,-5.0,-980.0,7.0
-11.0,-253.0,12.0,6.0,66.0,-20.0,-5.0,-979.0,2.0
-8.0,-252.0,7.0,1.0,64.0,-21.0,-7.0,-979.0,-5.0
-10.0,-254.0,10.0,-8.0,64.0,-19.0,-9.0,-978.0,-14.0
-8.0,-255.0,2.0,-18.0,62.0,-16.0,-6.0,-981.0,-5.0
-9.0,-255.0,5.0,-26.0,62.0,-14.0,1.0,-985.0,-15.0
-9.0,-254.0,7.0,-29.0,59.0,-12.0,5.0,-998.0,-6.0
-9.0,-257.0,10.0,-26.0,54.0,-9.0,-3.0,-1002.0,-1.0
-12.0,-257.0,10.0,-21.0,48.0,-7.0,-5.0,-998.0,4.0
-12.0,-257.0,13.0,-13.0,43.0,-3.0,-12.0,-994.0,8.0
-14.0,-255.0,14.0,-5.0,37.0,-1.0,-8.0,-983.0,11.0
-12.0,-255.0,13.0,0.0,30.0,1.0,-22.0,-998.0,17.0
-13.0,-254.0,13.0,1.0,21.0,3.0,-18.0,-982.0,15.0
-13.0,-255.0,10.0,0.0,13.0,3.0,-16.0,-988.0,12.0
-12.0,-254.0,11.0,-1.0,8.0,5.0,-19.0,-983.0,10.0
-12.0,-263.0,18.0,-2.0,7.0,8.0,-21.0,-992.0,14.0
-13.0,-254.0,8.0,-4.0,4.0,8.0,-23.0,-986.0,9.0
-12.0,-253.0,9.0,-3.0,0.0,10.0,-17.0,-986.0,8.0
-11.0,-255.0,10.0,0.0,-6.0,15.0,-16.0,-981.0,2.0
-8.0,-256.0,8.0,1.0,-10.0,19.0,-18.0,-985.0,-2.0
-10.0,-254.0,8.0,-2.0,-13.0,20.0,-5.0,-981.0,-10.0
-9.0,-256.0,11.0,-8.0,-16.0,23.0,-1.0,-998.0,-1.0
-13.0,-255.0,8.0,-10.0,-20.0,25.0,-5.0,-993.0,7.0
-7.0,-258.0,9.0,-9.0,-27.0,23.0,2.0,-1003.0,5.0
-7.0,-253.0,12.0,-10.0,-29.0,22.0,2.0,-997.0,8.0
-7.0,-258.0,8.0,-12.0,-29.0,20.0,7.0,-985.0,8.0
-7.0,-255.0,12.0,-14.0,-32.0,18.0,6.0,-986.0,8.0
-5.0,-256.0,8.0,-16.0,-35.0,18.0,6.0,-985.0,8.0
-2.0,-256.0,11.0,-18.0,-36.0,16.0,14.0,-994.0,10.0
-3.0,-253.0,10.0,-20.0,-36.0,15.0,14.0,-992.0,7.0
-3.0,-254.0,7.0,-22.0,-38.0,15.0,13.0,-991.0,7.0
-6.0,-255.0,13.0,-24.0,-38.0,17.0,14.0,-990.0,6.0
-7.0,-255.0,7.0,-25.0,-39.0,17.0,11.0,-985.0,4.0
-5.0,-258.0,9.0,-25.0,-41.0,19.0,14.0,-981.0,4.0
-4.0,-250.0,9.0,-24.0,-40.0,21.0,18.0,-981.0,-1.0
0.0,-252.0,7.0,-22.0,-40.0,23.0,20.0,-981.0,-5.0
0.0,-256.0,7.0,-20.0,-37.0,23.0,21.0,-980.0,0.0
-4.0,-254.0,6.0,-21.0,-36.0,23.0,21.0,-977.0,-2.0
-4.0,-255.0,8.0,-24.0,-34.0,21.0,24.0,-990.0,-8.0
0.0,-257.0,8.0,-27.0,-28.0,21.0,24.0,-985.0,-2.0
-2.0,-257.0,10.0,-28.0,-27.0,21.0,27.0,-1002.0,-1.0
0.0,-261.0,5.0,-26.0,-26.0,20.0,25.0,-1012.0,-2.0
0.0,-262.0,9.0,-21.0,-24.0,18.0,20.0,-1010.0,3.0
-3.0,-258.0,10.0,-15.0,-22.0,15.0,22.0,-1012.0,11.0
-1.0,-260.0,6.0,-10.0,-24.0,16.0,20.0,-1010.0,8.0
-2.0,-261.0,8.0,-7.0,-25.0,15.0,12.0,-1012.0,5.0
-3.0,-260.0,7.0,-7.0,-26.0,17.0,16.0,-1002.0,10.0
-4.0,-257.0,12.0,-6.0,-27.0,18.0,13.0,-999.0,11.0
-6.0,-257.0,12.0,-7.0,-27.0,19.0,19.0,-997.0,16.0
-2.0,-256.0,13.0,-9.0,-26.0,19.0,13.0,-992.0,10.0
-3.0,-256.0,8.0,-11.0,-24.0,20.0,13.0,-984.0,13.0
-6.0,-254.0,11.0,-14.0,-22.0,21.0,14.0,-984.0,11.0
-2.0,-254.0,12.0,-12.0,-20.0,23.0,18.0,-981.0,11.0
-1.0,-253.0,13.0,-12.0,-17.0,24.0,17.0,-976.0,7.0
-2.0,-255.0,13.0,-9.0,-13.0,25.0,18.0,-984.0,12.0
-1.0,-254.0,12.0,-8.0,-9.0,25.0,17.0,-985.0,13.0
-1.0,-257.0,10.0,-10.0,-5.0,25.0,20.0,-993.0,17.0
1.0,-253.0,11.0,-12.0,-1.0,24.0,20.0,-994.0,13.0
-1.0,-260.0,11.0,-10.0,3.0,23.0,28.0,-1002.0,11.0
-2.0,-257.0,8.0,-5.0,7.0,22.0,20.0,-992.0,5.0
-1.0,-256.0,10.0,-1.0,11.0,21.0,29.0,-989.0,2.0
0.0,-253.0,13.0,2.0,16.0,17.0,28.0,-983.0,9.0
0.0,-255.0,13.0,3.0,21.0,13.0,31.0,-986.0,9.0
0.0,-253.0,13.0,0.0,23.0,10.0,31.0,-988.0,15.0
0.0,-253.0,16.0,-1.0,23.0,9.0,35.0,-993.0,16.0
0.0,-255.0,13.0,0.0,24.0,6.0,32.0,-993.0,9.0
0.0,-254.0,10.0,0.0,25.0,3.0,30.0,-991.0,12.0
0.0,-255.0,11.0,-1.0,29.0,-2.0,32.0,-982.0,13.0
0.0,-252.0,13.0,1.0,29.0,-3.0,30.0,-988.0,7.0
1.0,-254.0,9.0,4.0,33.0,-4.0,30.0,-984.0,8.0
-3.0,-254.0,8.0,7.0,36.0,-5.0,21.0,-980.0,12.0
0.0,-257.0,11.0,7.0,40.0,-3.0,27.0,-980.0,9.0
-2.0,-254.0,11.0,6.0,44.0,-3.0,25.0,-984.0,9.0
-4.0,-253.0,13.0,5.0,46.0,-3.0,24.0,-980.0,13.0
0.0,-258.0,13.0,3.0,48.0,-2.0,20.0,-986.0,13.0
-4.0,-258.0,12.0,-1.0,48.0,0.0,19.0,-995.0,13.0
-4.0,-257.0,12.0,-4.0,49.0,-1.0,13.0,-1009.0,17.0
-2.0,-258.0,10.0,-4.0,48.0,-1.0,18.0,-1014.0,16.0
-6.0,-261.0,9.0,2.0,49.0,-2.0,13.0,-1014.0,15.0
-7.0,-261.0,11.0,9.0,52.0,-2.0,15.0,-1016.0,20.0
-6.0,-264.0,17.0,15.0,57.0,-2.0,10.0,-1016.0,22.0
-2.0,-264.0,11.0,20.0,58.0,-3.0,15.0,-1014.0,17.0
-6.0,-258.0,16.0,24.0,60.0,-2.0,19.0,-1017.0,16.0
-4.0,-263.0,13.0,25.0,62.0,-5.0,15.0,-1009.0,17.0
-2.0,-260.0,13.0,28.0,65.0,-4.0,11.0,-1012.0,15.0
-7.0,-253.0,13.0,32.0,66.0,-3.0,12.0,-1002.0,14.0
-1.0,-256.0,14.0,37.0,68.0,-4.0,10.0,-984.0,12.0
-4.0,-255.0,13.0,41.0,70.0,-5.0,11.0,-978.0,11.0
-6.0,-252.0,14.0,43.0,70.0,-7.0,14.0,-979.0,4.0
-3.0,-252.0,8.0,41.0,73.0,-6.0,12.0,-972.0,9.0
-2.0,-250.0,12.0,38.0,74.0,-6.0,9.0,-968.0,10.0
-2.0,-251.0,12.0,35.0,77.0,-5.0,14.0,-970.0,9.0
-2.0,-254.0,10.0,30.0,77.0,-3.0,13.0,-975.0,11.0
-2.0,-251.0,11.0,26.0,77.0,-1.0,11.0,-971.0,9.0
-4.0,-253.0,12.0,23.0,79.0,-1.0,12.0,-981.0,8.0
-7.0,-257.0,11.0,19.0,79.0,-2.0,10.0,-989.0,12.0
-6.0,-257.0,9.0,13.0,79.0,-1.0,10.0,-1002.0,15.0
-7.0,-256.0,13.0,11.0,79.0,-1.0,10.0,-1004.0,20.0
-5.0,-258.0,13.0,13.0,80.0,0.0,7.0,-1005.0,21.0
-10.0,-257.0,17.0,18.0,80.0,0.0,4.0,-1005.0,24.0
-7.0,-256.0,15.0,24.0,80.0,-2.0,9.0,-995.0,28.0
-8.0,-255.0,14.0,30.0,81.0,-1.0,10.0,-988.0,24.0
-4.0,-255.0,15.0,33.0,82.0,-2.0,6.0,-981.0,22.0
-5.0,-252.0,17.0,31.0,82.0,-4.0,12.0,-976.0,19.0
-5.0,-249.0,8.0,28.0,83.0,-3.0,10.0,-968.0,15.0
-8.0,-249.0,14.0,22.0,84.0,-1.0,12.0,-962.0,16.0
-4.0,-249.0,11.0,13.0,83.0,-1.0,12.0,-965.0,15.0
-5.0,-249.0,10.0,4.0,82.0,-1.0,12.0,-967.0,18.0
-3.0,-253.0,15.0,-4.0,82.0,-2.0,15.0,-975.0,13.0
-2.0,-254.0,11.0,-10.0,81.0,-3.0,8.0,-979.0,15.0
-5.0,-254.0,18.0,-13.0,81.0,-5.0,14.0,-981.0,19.0
-6.0,-253.0,13.0,-13.0,80.0,-6.0,13.0,-979.0,13.0
0.0,-253.0,12.0,-14.0,80.0,-8.0,17.0,-984.0,17.0
-2.0,-256.0,14.0,-15.0,80.0,-9.0,18.0,-984.0,16.0
-1.0,-256.0,14.0,-13.0,80.0,-11.0,14.0,-996.0,24.0
-4.0,-254.0,14.0,-14.0,79.0,-13.0,14.0,-986.0,21.0
-5.0,-253.0,14.0,-18.0,78.0,-15.0,12.0,-992.0,22.0
-7.0,-256.0,17.0,-23.0,75.0,-14.0,12.0,-987.0,21.0
-6.0,-256.0,17.0,-26.0,74.0,-15.0,10.0,-982.0,19.0
-3.0,-256.0,18.0,-30.0,74.0,-13.0,14.0,-983.0,21.0
-9.0,-252.0,10.0,-32.0,74.0,-10.0,8.0,-981.0,13.0
-4.0,-254.0,12.0,-33.0,72.0,-6.0,9.0,-987.0,9.0
-6.0,-255.0,10.0,-35.0,72.0,-4.0,11.0,-985.0,9.0
-1.0,-256.0,12.0,-34.0,72.0,-3.0,4.0,-980.0,8.0
-3.0,-256.0,13.0,-33.0,73.0,1.0,11.0,-985.0,12.0
-6.0,-258.0,11.0,-30.0,71.0,2.0,19.0,-1002.0,7.0
-3.0,-255.0,8.0,-27.0,73.0,3.0,18.0,-1003.0,6.0
0.0,-258.0,12.0,-25.0,73.0,3.0,22.0,-1009.0,9.0
-6.0,-257.0,11.0,-21.0,74.0,4.0,16.0,-1014.0,12.0
-2.0,-260.0,13.0,-18.0,73.0,4.0,11.0,-1010.0,17.0
-7.0,-257.0,13.0,-14.0,73.0,3.0,15.0,-1000.0,20.0
-3.0,-256.0,18.0,-9.0,74.0,2.0,10.0,-999.0,23.0
-9.0,-257.0,15.0,-4.0,71.0,1.0,4.0,-994.0,19.0
-5.0,-252.0,14.0,-4.0,69.0,-2.0,12.0,-991.0,25.0
-5.0,-251.0,13.0,-9.0,70.0,-2.0,12.0,-989.0,21.0
-4.0,-256.0,13.0,-15.0,70.0,-3.0,14.0,-985.0,18.0
-5.0,-257.0,12.0,-20.0,71.0,-4.0,14.0,-982.0,17.0
-4.0,-255.0,14.0,-20.0,73.0,-4.0,19.0,-991.0,16.0
-2.0,-256.0,12.0,-20.0,76.0,-3.0,17.0,-1003.0,13.0
-3.0,-258.0,11.0,-19.0,80.0,-4.0,16.0,-997.0,15.0
-3.0,-254.0,15.0,-16.0,81.0,-4.0,16.0,-994.0,15.0
-8.0,-256.0,12.0,-16.0,82.0,-3.0,8.0,-1001.0,12.0
-5.0,-256.0,14.0,-18.0,83.0,-3.0,15.0,-987.0,14.0
-5.0,-257.0,14.0,-20.0,81.0,-3.0,15.0,-999.0,16.0
-4.0,-258.0,10.0,-20.0,82.0,-5.0,15.0,-1004.0,18.0
-5.0,-260.0,12.0,-18.0,81.0,-5.0,14.0,-1001.0,18.0
-7.0,-257.0,15.0,-12.0,81.0,-5.0,15.0,-999.0,20.0
-6.0,-255.0,13.0,-6.0,82.0,-6.0,13.0,-997.0,19.0
-5.0,-259.0,13.0,-2.0,82.0,-8.0,8.0,-999.0,20.0
-6.0,-255.0,10.0,-1.0,81.0,-8.0,5.0,-988.0,18.0
-3.0,-255.0,14.0,2.0,80.0,-8.0,5.0,-983.0,20.0
-4.0,-254.0,12.0,3.0,82.0,-8.0,13.0,-980.0,16.0
-6.0,-252.0,13.0,1.0,84.0,-7.0,10.0,-978.0,17.0
-4.0,-253.0,14.0,-2.0,86.0,-7.0,14.0,-984.0,18.0
-6.0,-253.0,13.0,-6.0,88.0,-8.0,12.0,-981.0,15.0
-7.0,-254.0,9.0,-14.0,87.0,-7.0,16.0,-985.0,16.0
-3.0,-255.0,11.0,-20.0,86.0,-5.0,14.0,-983.0,19.0
-6.0,-254.0,14.0,-23.0,89.0,-4.0,17.0,-992.0,19.0
-4.0,-257.0,14.0,-24.0,89.0,-6.0,10.0,-999.0,19.0
-9.0,-255.0,12.0,-21.0,91.0,-5.0,13.0,-987.0,19.0
-6.0,-258.0,12.0,-21.0,89.0,-5.0,8.0,-983.0,21.0
-3.0,-257.0,15.0,-20.0,88.0,-7.0,8.0,-981.0,15.0
-7.0,-257.0,13.0,-20.0,86.0,-5.0,5.0,-994.0,21.0
-9.0,-256.0,14.0,-21.0,86.0,-6.0,7.0,-985.0,28.0
-4.0,-255.0,13.0,-22.0,83.0,-5.0,7.0,-994.0,19.0
-9.0,-256.0,16.0,-23.0,81.0,-5.0,10.0,-985.0,19.0
-8.0,-254.0,15.0,-21.0,78.0,-3.0,7.0,-988.0,14.0
-9.0,-257.0,9.0,-20.0,78.0,-3.0,2.0,-984.0,15.0
-8.0,-253.0,12.0,-21.0,78.0,-2.0,-2.0,-984.0,16.0
-9.0,-255.0,9.0,-21.0,76.0,-1.0,-2.0,-982.0,19.0
-9.0,-253.0,7.0,-22.0,74.0,-1.0,-3.0,-981.0,14.0
-11.0,-252.0,13.0,-25.0,70.0,1.0,-3.0,-979.0,13.0
-7.0,-252.0,9.0,-26.0,68.0,2.0,0.0,-982.0,14.0
-8.0,-258.0,10.0,-29.0,66.0,2.0,-5.0,-989.0,13.0
-12.0,-254.0,11.0,-32.0,67.0,3.0,2.0,-987.0,17.0
-6.0,-257.0,10.0,-34.0,63.0,4.0,-3.0,-1002.0,19.0
-9.0,-257.0,12.0,-32.0,60.0,6.0,-2.0,-1006.0,15.0
-12.0,-256.0,6.0,-34.0,57.0,5.0,-4.0,-1005.0,16.0
-12.0,-256.0,14.0,-34.0,53.0,7.0,-1.0,-994.0,18.0
-11.0,-255.0,14.0,-33.0,50.0,8.0,-5.0,-1000.0,18.0
-10.0,-255.0,16.0,-32.0,50.0,9.0,-5.0,-984.0,25.0
-10.0,-254.0,19.0,-33.0,47.0,9.0,-5.0,-984.0,30.0
-8.0,-253.0,13.0,-35.0,47.0,9.0,-2.0,-984.0,20.0
-6.0,-255.0,13.0,-38.0,45.0,11.0,0.0,-977.0,17.0
-7.0,-252.0,9.0,-45.0,46.0,13.0,6.0,-970.0,3.0
-6.0,-255.0,4.0,-53.0,48.0,14.0,9.0,-973.0,-4.0
-4.0,-250.0,6.0,-60.0,52.0,14.0,8.0,-971.0,1.0
-7.0,-255.0,10.0,-67.0,57.0,14.0,10.0,-979.0,-4.0
-8.0,-249.0,4.0,-71.0,61.0,15.0,11.0,-973.0,1.0
-9.0,-255.0,8.0,-74.0,62.0,11.0,8.0,-976.0,6.0
-7.0,-254.0,8.0,-73.0,63.0,9.0,5.0,-981.0,3.0
-6.0,-256.0,10.0,-71.0,68.0,8.0,3.0,-991.0,10.0
-5.0,-258.0,10.0,-68.0,71.0,6.0,3.0,-993.0,14.0
-6.0,-254.0,14.0,-64.0,73.0,3.0,5.0,-988.0,14.0
-2.0,-258.0,12.0,-67.0,73.0,1.0,2.0,-992.0,16.0
-7.0,-254.0,14.0,-73.0,73.0,0.0,8.0,-998.0,17.0
-5.0,-260.0,12.0,-79.0,72.0,-1.0,8.0,-993.0,14.0
-7.0,-253.0,11.0,-82.0,72.0,2.0,4.0,-993.0,12.0
-8.0,-256.0,8.0,-82.0,73.0,2.0,-2.0,-1003.0,1.0
-9.0,-253.0,9.0,-80.0,74.0,2.0,1.0,-990.0,-1.0
-7.0,-254.0,7.0,-78.0,77.0,2.0,-1.0,-979.0,-3.0
-7.0,-255.0,5.0,-75.0,77.0,2.0,-4.0,-979.0,-5.0
-11.0,-257.0,4.0,-75.0,78.0,1.0,-6.0,-979.0,-10.0
-8.0,-253.0,6.0,-75.0,77.0,1.0,0.0,-986.0,-10.0
-9.0,-257.0,6.0,-77.0,76.0,0.0,-1.0,-991.0,-8.0
-9.0,-256.0,9.0,-78.0,76.0,1.0,1.0,-994.0,-7.0
-8.0,-258.0,8.0,-77.0,78.0,-1.0,1.0,-995.0,-7.0
-7.0,-258.0,6.0,-78.0,76.0,-3.0,9.0,-1007.0,-3.0
-3.0,-258.0,7.0,-77.0,76.0,-2.0,6.0,-1012.0,-4.0
-5.0,-263.0,16.0,-74.0,75.0,-4.0,11.0,-1012.0,3.0
-2.0,-261.0,8.0,-72.0,76.0,-3.0,14.0,-1012.0,3.0
-5.0,-262.0,8.0,-67.0,76.0,-2.0,11.0,-1007.0,9.0
-3.0,-260.0,6.0,-63.0,74.0,-2.0,2.0,-1012.0,8.0
-7.0,-259.0,12.0,-55.0,69.0,-2.0,5.0,-1009.0,6.0
-5.0,-259.0,6.0,-48.0,64.0,-3.0,4.0,-1006.0,8.0
-7.0,-260.0,11.0,-44.0,60.0,-5.0,2.0,-998.0,10.0
-9.0,-257.0,14.0,-40.0,55.0,-5.0,-2.0,-1002.0,12.0
-8.0,-260.0,14.0,-38.0,53.0,-6.0,1.0,-997.0,13.0
-7.0,-255.0,14.0,-35.0,51.0,-9.0,-3.0,-1007.0,16.0
-9.0,-257.0,15.0,-31.0,47.0,-9.0,-1.0,-1003.0,19.0
-11.0,-256.0,13.0,-25.0,45.0,-9.0,-3.0,-998.0,16.0
-6.0,-260.0,15.0,-19.0,44.0,-8.0,-3.0,-995.0,17.0
-9.0,-255.0,11.0,-14.0,41.0,-5.0,-4.0,-991.0,18.0
-8.0,-254.0,13.0,-9.0,39.0,-4.0,-1.0,-992.0,15.0
-6.0,-256.0,13.0,-7.0,37.0,-3.0,6.0,-994.0,15.0
-9.0,-255.0,10.0,-3.0,38.0,-2.0,3.0,-993.0,17.0
-10.0,-256.0,13.0,-1.0,37.0,2.0,1.0,-992.0,15.0
-9.0,-255.0,12.0,0.0,37.0,1.0,2.0,-994.0,13.0
-7.0,-257.0,12.0,2.0,34.0,2.0,3.0,-993.0,11.0
-4.0,-258.0,9.0,2.0,34.0,1.0,10.0,-993.0,11.0
-5.0,-257.0,12.0,3.0,34.0,1.0,14.0,-986.0,14.0
-4.0,-253.0,14.0,3.0,34.0,1.0,17.0,-998.0,15.0
-1.0,-254.0,14.0,4.0,36.0,0.0,19.0,-986.0,16.0
-5.0,-253.0,12.0,4.0,36.0,1.0,22.0,-981.0,15.0
0.0,-254.0,15.0,7.0,35.0,2.0,25.0,-976.0,16.0
-2.0,-255.0,9.0,10.0,36.0,0.0,20.0,-977.0,18.0
-1.0,-253.0,14.0,10.0,38.0,0.0,20.0,-980.0,19.0
0.0,-253.0,8.0,9.0,40.0,1.0,19.0,-985.0,14.0
2.0,-256.0,11.0,6.0,43.0,1.0,21.0,-975.0,15.0
0.0,-255.0,12.0,5.0,45.0,0.0,22.0,-982.0,9.0
-2.0,-253.0,12.0,6.0,49.0,0.0,20.0,-983.0,11.0
-1.0,-254.0,15.0,6.0,52.0,-1.0,23.0,-986.0,14.0
-4.0,-255.0,10.0,9.0,55.0,-2.0,19.0,-982.0,10.0
0.0,-255.0,13.0,12.0,60.0,-2.0,22.0,-976.0,8.0
0.0,-252.0,10.0,10.0,64.0,-4.0,28.0,-991.0,6.0
-1.0,-255.0,13.0,5.0,69.0,-5.0,32.0,-987.0,8.0
0.0,-257.0,9.0,-2.0,71.0,-7.0,34.0,-981.0,9.0
0.0,-256.0,10.0,-8.0,74.0,-8.0,31.0,-986.0,3.0
0.0,-257.0,11.0,-10.0,80.0,-7.0,28.0,-992.0,4.0
0.0,-253.0,7.0,-11.0,85.0,-8.0,29.0,-992.0,4.0
0.0,-256.0,12.0,-11.0,89.0,-8.0,23.0,-993.0,5.0
-1.0,-254.0,5.0,-9.0,95.0,-8.0,21.0,-987.0,-3.0
-4.0,-253.0,4.0,-7.0,97.0,-6.0,25.0,-978.0,-1.0
-5.0,-258.0,11.0,-8.0,102.0,-6.0,20.0,-980.0,-4.0
-2.0,-253.0,8.0,-10.0,108.0,-4.0,24.0,-983.0,-5.0
-4.0,-254.0,10.0,-15.0,114.0,-4.0,20.0,-983.0,-1.0
-1.0,-254.0,7.0,-21.0,118.0,-5.0,20.0,-980.0,-4.0
0.0,-256.0,6.0,-25.0,123.0,-5.0,22.0,-992.0,-2.0
0.0,-254.0,11.0,-28.0,130.0,-5.0,29.0,-994.0,-2.0
-1.0,-255.0,10.0,-32.0,138.0,-7.0,28.0,-1007.0,-1.0
-2.0,-257.0,10.0,-32.0,147.0,-9.0,26.0,-1001.0,0.0
0.0,-257.0,13.0,-32.0,154.0,-10.0,32.0,-1006.0,-3.0
0.0,-261.0,10.0,-32.0,158.0,-14.0,33.0,-1011.0,3.0
0.0,-257.0,8.0,-30.0,162.0,-17.0,30.0,-998.0,2.0
-2.0,-258.0,8.0,-25.0,165.0,-19.0,23.0,-995.0,4.0
-2.0,-259.0,6.0,-20.0,167.0,-22.0,23.0,-996.0,2.0
0.0,-258.0,8.0,-19.0,170.0,-24.0,28.0,-995.0,3.0
0.0,-257.0,13.0,-20.0,172.0,-24.0,25.0,-994.0,6.0
-1.0,-255.0,10.0,-24.0,174.0,-24.0,22.0,-993.0,3.0
0.0,-254.0,8.0,-26.0,177.0,-24.0,20.0,-982.0,3.0
-6.0,-255.0,9.0,-28.0,180.0,-23.0,17.0,-994.0,4.0
-2.0,-256.0,11.0,-29.0,181.0,-23.0,15.0,-983.0,3.0
-5.0,-258.0,9.0,-28.0,181.0,-25.0,9.0,-1000.0,1.0
-3.0,-257.0,9.0,-26.0,182.0,-22.0,7.0,-999.0,7.0
-7.0,-257.0,9.0,-23.0,182.0,-23.0,2.0,-999.0,3.0
-5.0,-267.0,3.0,-20.0,183.0,-22.0,6.0,-1002.0,7.0
-7.0,-260.0,9.0,-15.0,184.0,-22.0,2.0,-1002.0,4.0
-9.0,-255.0,14.0,-11.0,185.0,-24.0,4.0,-998.0,13.0
-7.0,-261.0,16.0,-8.0,186.0,-24.0,-4.0,-1008.0,15.0
-6.0,-259.0,12.0,-7.0,184.0,-23.0,2.0,-1009.0,20.0
-7.0,-258.0,14.0,-7.0,183.0,-22.0,1.0,-1006.0,17.0
-5.0,-259.0,14.0,-5.0,181.0,-25.0,12.0,-1004.0,12.0
-3.0,-259.0,10.0,-2.0,181.0,-25.0,11.0,-1011.0,18.0
-3.0,-258.0,11.0,5.0,182.0,-27.0,17.0,-997.0,17.0
-3.0,-257.0,11.0,11.0,183.0,-29.0,18.0,-994.0,17.0
0.0,-255.0,11.0,13.0,181.0,-30.0,21.0,-990.0,7.0
-3.0,-252.0,8.0,11.0,183.0,-30.0,18.0,-985.0,12.0
-2.0,-255.0,13.0,10.0,181.0,-34.0,22.0,-978.0,7.0
-1.0,-253.0,8.0,9.0,178.0,-32.0,19.0,-977.0,6.0
-1.0,-250.0,10.0,10.0,177.0,-32.0,18.0,-974.0,9.0
-3.0,-251.0,13.0,10.0,177.0,-31.0,23.0,-974.0,5.0
0.0,-254.0,12.0,7.0,177.0,-29.0,19.0,-981.0,13.0
-6.0,-254.0,14.0,4.0,176.0,-31.0,17.0,-982.0,10.0
-5.0,-252.0,17.0,2.0,174.0,-30.0,17.0,-986.0,19.0
-4.0,-258.0,14.0,0.0,171.0,-31.0,17.0,-999.0,19.0
-8.0,-260.0,10.0,0.0,170.0,-30.0,7.0,-995.0,16.0
-7.0,-255.0,9.0,1.0,170.0,-30.0,1.0,-1000.0,16.0
-9.0,-256.0,12.0,4.0,170.0,-29.0,1.0,-1002.0,13.0
-9.0,-253.0,12.0,7.0,168.0,-27.0,-1.0,-985.0,11.0
-9.0,-253.0,11.0,8.0,165.0,-26.0,4.0,-986.0,11.0
-7.0,-253.0,13.0,8.0,164.0,-25.0,4.0,-985.0,14.0
-7.0,-254.0,13.0,7.0,161.0,-25.0,8.0,-987.0,15.0
-6.0,-254.0,12.0,7.0,162.0,-26.0,15.0,-981.0,18.0
-1.0,-254.0,14.0,8.0,163.0,-27.0,15.0,-986.0,15.0
-4.0,-255.0,10.0,12.0,165.0,-29.0,16.0,-985.0,4.0
0.0,-253.0,12.0,15.0,168.0,-28.0,13.0,-987.0,0.0
0.0,-251.0,10.0,17.0,168.0,-29.0,22.0,-980.0,-2.0
0.0,-251.0,7.0,16.0,170.0,-28.0,29.0,-976.0,-1.0
0.0,-253.0,8.0,13.0,170.0,-28.0,24.0,-973.0,-3.0
0.0,-252.0,8.0,7.0,171.0,-28.0,24.0,-976.0,6.0
0.0,-256.0,12.0,3.0,171.0,-27.0,30.0,-980.0,2.0
-4.0,-253.0,10.0,1.0,170.0,-27.0,22.0,-986.0,7.0
0.0,-260.0,11.0,1.0,169.0,-26.0,20.0,-989.0,10.0
-4.0,-255.0,12.0,3.0,170.0,-26.0,19.0,-998.0,10.0
-6.0,-256.0,13.0,6.0,170.0,-26.0,15.0,-993.0,17.0
-4.0,-257.0,11.0,8.0,170.0,-27.0,2.0,-993.0,19.0
-7.0,-255.0,12.0,8.0,167.0,-28.0,4.0,-993.0,16.0
-8.0,-256.0,12.0,7.0,162.0,-27.0,6.0,-997.0,12.0
-7.0,-257.0,14.0,5.0,161.0,-26.0,6.0,-1000.0,10.0
-5.0,-257.0,17.0,3.0,160.0,-25.0,4.0,-992.0,12.0
-8.0,-256.0,11.0,0.0,160.0,-23.0,4.0,-996.0,5.0
-6.0,-257.0,10.0,0.0,159.0,-22.0,-1.0,-988.0,9.0
-6.0,-260.0,8.0,0.0,160.0,-21.0,-2.0,-1003.0,11.0
-10.0,-256.0,9.0,0.0,160.0,-19.0,2.0,-1004.0,5.0
-9.0,-258.0,12.0,1.0,155.0,-19.0,-6.0,-1000.0,6.0
-7.0,-258.0,11.0,5.0,155.0,-17.0,2.0,-1007.0,12.0
-9.0,-254.0,15.0,9.0,154.0,-17.0,1.0,-1006.0,15.0
-6.0,-258.0,15.0,13.0,150.0,-19.0,2.0,-990.0,11.0
-5.0,-255.0,6.0,15.0,148.0,-19.0,4.0,-986.0,9.0
-9.0,-255.0,10.0,17.0,143.0,-22.0,0.0,-987.0,10.0
-8.0,-252.0,11.0,19.0,140.0,-22.0,2.0,-988.0,9.0
-9.0,-256.0,9.0,20.0,136.0,-22.0,1.0,-986.0,6.0
-5.0,-253.0,12.0,18.0,134.0,-21.0,5.0,-984.0,12.0
-5.0,-255.0,13.0,14.0,131.0,-19.0,5.0,-984.0,4.0
-5.0,-253.0,10.0,11.0,132.0,-17.0,5.0,-985.0,7.0
-6.0,-254.0,9.0,9.0,129.0,-16.0,1.0,-985.0,3.0
-9.0,-257.0,9.0,8.0,130.0,-14.0,6.0,-986.0,4.0
-6.0,-254.0,9.0,6.0,128.0,-13.0,6.0,-999.0,6.0
-5.0,-255.0,13.0,4.0,125.0,-12.0,4.0,-992.0,6.0
-4.0,-259.0,7.0,3.0,123.0,-11.0,12.0,-998.0,7.0
-8.0,-257.0,9.0,3.0,124.0,-10.0,10.0,-1003.0,4.0
-6.0,-256.0,9.0,6.0,124.0,-10.0,13.0,-1000.0,9.0
-6.0,-257.0,9.0,9.0,122.0,-8.0,10.0,-1001.0,14.0
-6.0,-255.0,14.0,11.0,119.0,-9.0,13.0,-997.0,17.0
-5.0,-255.0,12.0,9.0,114.0,-8.0,6.0,-987.0,19.0
-9.0,-253.0,16.0,3.0,111.0,-8.0,9.0,-984.0,19.0
-7.0,-252.0,13.0,-2.0,106.0,-9.0,5.0,-983.0,20.0
-5.0,-257.0,13.0,-4.0,101.0,-10.0,9.0,-982.0,15.0
-8.0,-253.0,9.0,-3.0,99.0,-11.0,5.0,-979.0,10.0
-7.0,-254.0,10.0,-2.0,100.0,-10.0,9.0,-979.0,3.0
-5.0,-255.0,9.0,-1.0,99.0,-11.0,1.0,-970.0,5.0
-5.0,-250.0,9.0,0.0,99.0,-10.0,9.0,-980.0,5.0
-10.0,-252.0,9.0,-1.0,98.0,-11.0,0.0,-978.0,5.0
-5.0,-252.0,9.0,-4.0,96.0,-9.0,5.0,-981.0,6.0
-6.0,-254.0,13.0,-6.0,92.0,-9.0,5.0,-977.0,4.0
-5.0,-256.0,11.0,-9.0,90.0,-9.0,12.0,-985.0,5.0
-6.0,-256.0,11.0,-12.0,86.0,-9.0,14.0,-992.0,7.0
-7.0,-256.0,13.0,-13.0,83.0,-8.0,14.0,-995.0,7.0
-5.0,-257.0,12.0,-11.0,80.0,-8.0,12.0,-994.0,6.0
-6.0,-256.0,10.0,-8.0,76.0,-9.0,9.0,-988.0,11.0
-7.0,-254.0,8.0,-6.0,74.0,-10.0,5.0,-985.0,10.0
-9.0,-253.0,12.0,-7.0,72.0,-9.0,5.0,-997.0,9.0
-6.0,-260.0,12.0,-9.0,70.0,-8.0,9.0,-986.0,11.0
-8.0,-252.0,12.0,-11.0,67.0,-6.0,11.0,-991.0,10.0
-5.0,-259.0,9.0,-13.0,66.0,-7.0,10.0,-1002.0,7.0
-7.0,-256.0,11.0,-12.0,66.0,-7.0,16.0,-1002.0,9.0
-3.0,-256.0,14.0,-10.0,67.0,-6.0,10.0,-994.0,7.0
-7.0,-255.0,14.0,-8.0,67.0,-6.0,12.0,-999.0,11.0
-1.0,-257.0,12.0,-9.0,65.0,-6.0,12.0,-999.0,8.0
-6.0,-255.0,15.0,-11.0,62.0,-5.0,13.0,-997.0,12.0
-4.0,-257.0,11.0,-12.0,61.0,-5.0,12.0,-1001.0,7.0
-4.0,-257.0,11.0,-8.0,58.0,-5.0,19.0,-985.0,12.0
-1.0,-252.0,14.0,-6.0,55.0,-3.0,12.0,-991.0,7.0
-6.0,-254.0,8.0,-3.0,53.0,-3.0,15.0,-992.0,7.0
-5.0,-254.0,12.0,-3.0,53.0,-3.0,12.0,-980.0,8.0
-3.0,-255.0,10.0,-4.0,52.0,-2.0,8.0,-976.0,6.0
-3.0,-254.0,10.0,-6.0,50.0,-1.0,13.0,-981.0,10.0
-5.0,-256.0,10.0,-8.0,49.0,-1.0,15.0,-993.0,9.0
-4.0,-258.0,14.0,-9.0,49.0,2.0,12.0,-987.0,8.0
-2.0,-258.0,10.0,-9.0,50.0,3.0,12.0,-1001.0,11.0
-4.0,-258.0,15.0,-10.0,49.0,4.0,14.0,-1006.0,13.0
-4.0,-259.0,13.0,-8.0,46.0,3.0,17.0,-1008.0,20.0
0.0,-260.0,11.0,-5.0,48.0,3.0,18.0,-1014.0,16.0
-2.0,-259.0,12.0,-1.0,50.0,2.0,22.0,-1006.0,15.0
-1.0,-258.0,12.0,4.0,49.0,2.0,26.0,-998.0,14.0
-1.0,-258.0,9.0,6.0,49.0,1.0,22.0,-996.0,12.0
-2.0,-256.0,11.0,8.0,50.0,0.0,23.0,-985.0,10.0
0.0,-255.0,11.0,8.0,52.0,-2.0,27.0,-982.0,11.0
-2.0,-253.0,11.0,6.0,53.0,-1.0,22.0,-978.0,11.0
-2.0,-253.0,10.0,4.0,53.0,2.0,20.0,-980.0,8.0
-1.0,-257.0,10.0,3.0,54.0,0.0,19.0,-984.0,10.0
-3.0,-252.0,11.0,2.0,55.0,0.0,21.0,-985.0,8.0
-2.0,-254.0,11.0,4.0,57.0,2.0,15.0,-981.0,10.0
-5.0,-253.0,12.0,5.0,56.0,1.0,11.0,-985.0,11.0
-5.0,-257.0,15.0,4.0,55.0,0.0,20.0,-999.0,14.0
-3.0,-255.0,13.0,1.0,54.0,-1.0,15.0,-983.0,21.0
-1.0,-256.0,15.0,-1.0,53.0,-1.0,16.0,-997.0,16.0
-3.0,-254.0,11.0,-2.0,53.0,-2.0,19.0,-989.0,18.0
-2.0,-254.0,11.0,-2.0,53.0,-3.0,20.0,-998.0,18.0
-1.0,-255.0,11.0,-1.0,53.0,-2.0,18.0,-987.0,14.0
-1.0,-255.0,12.0,0.0,53.0,0.0,18.0,-993.0,19.0
-2.0,-253.0,14.0,0.0,53.0,1.0,22.0,-999.0,18.0
0.0,-256.0,13.0,1.0,51.0,2.0,25.0,-999.0,15.0
0.0,-258.0,15.0,5.0,51.0,2.0,23.0,-992.0,13.0
-2.0,-256.0,11.0,10.0,51.0,1.0,22.0,-986.0,14.0
-1.0,-254.0,13.0,10.0,52.0,1.0,23.0,-993.0,16.0
-6.0,-253.0,13.0,12.0,52.0,1.0,24.0,-981.0,21.0
0.0,-254.0,15.0,13.0,50.0,1.0,20.0,-983.0,17.0
-1.0,-254.0,15.0,12.0,48.0,0.0,22.0,-982.0,22.0
-3.0,-253.0,14.0,11.0,46.0,0.0,18.0,-978.0,16.0
-4.0,-254.0,15.0,9.0,47.0,-1.0,18.0,-978.0,10.0
-1.0,-256.0,12.0,7.0,46.0,1.0,20.0,-982.0,17.0
-3.0,-255.0,10.0,7.0,45.0,2.0,20.0,-981.0,13.0
-4.0,-254.0,10.0,4.0,46.0,1.0,18.0,-991.0,10.0
-1.0,-255.0,13.0,3.0,48.0,1.0,16.0,-994.0,9.0
-2.0,-257.0,15.0,2.0,49.0,1.0,17.0,-993.0,14.0
-3.0,-257.0,8.0,2.0,49.0,1.0,19.0,-1005.0,13.0
-2.0,-260.0,13.0,2.0,49.0,1.0,19.0,-1002.0,17.0
0.0,-258.0,13.0,2.0,52.0,-1.0,19.0,-1006.0,20.0
-2.0,-257.0,16.0,1.0,53.0,-1.0,18.0,-999.0,25.0
-1.0,-259.0,17.0,-1.0,54.0,-2.0,21.0,-994.0,24.0
-4.0,-255.0,18.0,-3.0,53.0,-3.0,21.0,-1001.0,29.0
-4.0,-257.0,12.0,-3.0,54.0,-4.0,24.0,-994.0,22.0
-4.0,-257.0,10.0,0.0,56.0,-4.0,20.0,-1002.0,19.0
0.0,-259.0,9.0,1.0,57.0,-3.0,26.0,-998.0,7.0
-3.0,-252.0,12.0,1.0,60.0,-4.0,23.0,-978.0,5.0
-3.0,-251.0,14.0,2.0,63.0,-5.0,18.0,-978.0,13.0
0.0,-254.0,21.0,1.0,67.0,-4.0,21.0,-974.0,11.0
-1.0,-253.0,12.0,-2.0,69.0,-2.0,23.0,-981.0,19.0
-4.0,-254.0,10.0,-3.0,67.0,-2.0,19.0,-986.0,17.0
-5.0,-253.0,14.0,-5.0,65.0,-2.0,17.0,-993.0,19.0
-1.0,-257.0,12.0,-4.0,62.0,-2.0,21.0,-990.0,10.0
-1.0,-258.0,16.0,-4.0,63.0,-3.0,20.0,-999.0,23.0
-3.0,-255.0,15.0,2.0,65.0,-4.0,12.0,-1006.0,24.0
-7.0,-256.0,15.0,6.0,64.0,-5.0,11.0,-994.0,29.0
-6.0,-257.0,11.0,9.0,62.0,-5.0,14.0,-991.0,28.0
-6.0,-254.0,16.0,9.0,61.0,-4.0,14.0,-993.0,27.0
-6.0,-256.0,14.0,9.0,60.0,-2.0,11.0,-987.0,25.0
-7.0,-256.0,16.0,6.0,60.0,-3.0,8.0,-982.0,21.0
-7.0,-253.0,16.0,4.0,63.0,-4.0,9.0,-981.0,19.0
-8.0,-251.0,12.0,-1.0,64.0,-1.0,3.0,-978.0,18.0
-9.0,-253.0,9.0,-5.0,64.0,0.0,11.0,-980.0,22.0
-5.0,-253.0,16.0,-6.0,63.0,0.0,11.0,-980.0,18.0
-1.0,-257.0,13.0,-7.0,61.0,0.0,8.0,-986.0,18.0
-2.0,-257.0,14.0,-7.0,61.0,2.0,17.0,-994.0,19.0
-6.0,-256.0,12.0,-9.0,60.0,2.0,15.0,-993.0,24.0
-2.0,-257.0,12.0,-10.0,60.0,2.0,15.0,-1006.0,21.0
-9.0,-255.0,14.0,-9.0,60.0,1.0,17.0,-993.0,19.0
-5.0,-256.0,14.0,-6.0,60.0,-2.0,14.0,-1000.0,21.0
-4.0,-255.0,15.0,-4.0,58.0,0.0,13.0,-991.0,20.0
-3.0,-255.0,13.0,-5.0,57.0,-1.0,13.0,-984.0,19.0
-1.0,-256.0,14.0,-6.0,56.0,-1.0,17.0,-984.0,22.0
-4.0,-255.0,12.0,-8.0,56.0,1.0,14.0,-978.0,21.0
-3.0,-254.0,14.0,-10.0,56.0,1.0,11.0,-981.0,21.0
-2.0,-254.0,12.0,-13.0,54.0,1.0,14.0,-981.0,18.0
-4.0,-252.0,15.0,-16.0,54.0,1.0,11.0,-996.0,20.0
-4.0,-255.0,15.0,-17.0,52.0,2.0,8.0,-1002.0,16.0
-1.0,-255.0,13.0,-15.0,50.0,2.0,10.0,-1002.0,20.0
-1.0,-257.0,15.0,-10.0,49.0,2.0,13.0,-998.0,18.0
-3.0,-254.0,16.0,-5.0,48.0,2.0,15.0,-999.0,20.0
-4.0,-255.0,13.0,-2.0,49.0,4.0,13.0,-987.0,19.0
-1.0,-255.0,12.0,-2.0,48.0,3.0,12.0,-992.0,17.0
-4.0,-255.0,10.0,-2.0,45.0,3.0,7.0,-986.0,21.0
-6.0,-254.0,15.0,-6.0,43.0,2.0,14.0,-984.0,22.0
-6.0,-253.0,13.0,-7.0,42.0,1.0,13.0,-983.0,18.0
-2.0,-254.0,13.0,-8.0,41.0,1.0,15.0,-991.0,21.0
-5.0,-257.0,16.0,-8.0,40.0,1.0,10.0,-996.0,22.0
-5.0,-253.0,16.0,-7.0,39.0,1.0,7.0,-984.0,20.0
-3.0,-258.0,12.0,-7.0,40.0,1.0,10.0,-990.0,23.0
-9.0,-255.0,15.0,-5.0,39.0,1.0,10.0,-986.0,19.0
-5.0,-255.0,15.0,-1.0,35.0,0.0,11.0,-982.0,21.0
-5.0,-256.0,11.0,-2.0,34.0,0.0,10.0,-981.0,19.0
-10.0,-254.0,13.0,-4.0,34.0,-1.0,10.0,-979.0,18.0
-3.0,-255.0,17.0,-4.0,31.0,2.0,10.0,-990.0,15.0
-4.0,-255.0,13.0,-6.0,27.0,2.0,12.0,-992.0,19.0
-1.0,-257.0,16.0,-7.0,26.0,3.0,15.0,-983.0,18.0
-4.0,-254.0,14.0,-8.0,29.0,5.0,14.0,-991.0,20.0
-5.0,-256.0,15.0,-8.0,29.0,5.0,11.0,-990.0,20.0
-4.0,-255.0,16.0,-9.0,28.0,5.0,17.0,-988.0,22.0
-5.0,-252.0,13.0,-8.0,27.0,5.0,9.0,-985.0,22.0
-4.0,-255.0,17.0,-9.0,27.0,6.0,15.0,-980.0,20.0
-1.0,-258.0,14.0,-12.0,28.0,5.0,10.0,-994.0,18.0
-3.0,-257.0,12.0,-14.0,27.0,6.0,7.0,-982.0,21.0
-5.0,-253.0,15.0,-16.0,26.0,6.0,13.0,-993.0,21.0
-5.0,-256.0,16.0,-16.0,25.0,6.0,12.0,-987.0,19.0
-1.0,-256.0,11.0,-16.0,25.0,6.0,13.0,-987.0,20.0
-3.0,-255.0,13.0,-16.0,25.0,5.0,15.0,-988.0,24.0
-2.0,-254.0,17.0,-16.0,25.0,5.0,15.0,-994.0,18.0
-2.0,-257.0,11.0,-16.0,26.0,7.0,16.0,-983.0,20.0
-4.0,-254.0,13.0,-17.0,27.0,6.0,13.0,-998.0,23.0
-4.0,-254.0,14.0,-17.0,27.0,7.0,17.0,-994.0,18.0
-3.0,-256.0,17.0,-14.0,28.0,6.0,18.0,-987.0,19.0
-5.0,-253.0,16.0,-13.0,30.0,8.0,19.0,-991.0,19.0
-4.0,-254.0,11.0,-13.0,31.0,8.0,15.0,-986.0,19.0
-4.0,-256.0,16.0,-11.0,31.0,8.0,20.0,-1005.0,21.0
0.0,-258.0,14.0,-7.0,34.0,8.0,22.0,-1003.0,20.0
-1.0,-258.0,14.0,-5.0,36.0,4.0,19.0,-999.0,16.0
-3.0,-257.0,13.0,1.0,38.0,5.0,16.0,-1002.0,21.0
-2.0,-256.0,16.0,3.0,37.0,4.0,14.0,-992.0,17.0
-6.0,-254.0,13.0,3.0,37.0,3.0,20.0,-985.0,17.0
-6.0,-254.0,16.0,1.0,37.0,3.0,17.0,-983.0,22.0
0.0,-252.0,12.0,-2.0,37.0,3.0,19.0,-981.0,19.0
-2.0,-253.0,16.0,-4.0,42.0,2.0,17.0,-982.0,19.0
-4.0,-251.0,14.0,-7.0,41.0,2.0,14.0,-981.0,21.0
-2.0,-252.0,12.0,-9.0,43.0,2.0,17.0,-985.0,24.0
0.0,-259.0,14.0,-10.0,45.0,2.0,17.0,-983.0,19.0
-3.0,-254.0,11.0,-12.0,46.0,2.0,20.0,-993.0,20.0
-3.0,-256.0,16.0,-10.0,46.0,3.0,19.0,-988.0,19.0
-4.0,-256.0,12.0,-9.0,48.0,2.0,18.0,-998.0,21.0
-1.0,-257.0,15.0,-9.0,47.0,3.0,15.0,-983.0,23.0
-8.0,-253.0,12.0,-11.0,45.0,2.0,13.0,-994.0,20.0
-5.0,-253.0,13.0,-12.0,44.0,2.0,14.0,-990.0,17.0
-2.0,-255.0,16.0,-12.0,44.0,1.0,13.0,-983.0,19.0
-7.0,-254.0,11.0,-13.0,44.0,1.0,14.0,-985.0,19.0
-7.0,-258.0,12.0,-13.0,45.0,2.0,16.0,-986.0,17.0
-6.0,-253.0,14.0,-14.0,44.0,4.0,14.0,-983.0,22.0
-3.0,-258.0,16.0,-14.0,44.0,4.0,14.0,-991.0,18.0
-5.0,-257.0,14.0,-15.0,45.0,5.0,13.0,-991.0,22.0
-3.0,-256.0,12.0,-13.0,46.0,6.0,14.0,-999.0,17.0
-4.0,-255.0,18.0,-12.0,43.0,4.0,14.0,-980.0,18.0
-4.0,-255.0,16.0,-14.0,45.0,2.0,18.0,-993.0,15.0
-2.0,-257.0,12.0,-15.0,48.0,3.0,20.0,-998.0,18.0
0.0,-256.0,14.0,-17.0,49.0,4.0,20.0,-988.0,18.0
-1.0,-257.0,11.0,-17.0,51.0,4.0,17.0,-993.0,14.0
-3.0,-257.0,13.0,-15.0,50.0,3.0,22.0,-983.0,15.0
-2.0,-256.0,14.0,-15.0,50.0,2.0,19.0,-987.0,13.0
-2.0,-257.0,13.0,-14.0,52.0,2.0,23.0,-989.0,13.0
-4.0,-253.0,10.0,-17.0,50.0,2.0,21.0,-989.0,12.0
-1.0,-257.0,13.0,-17.0,48.0,2.0,20.0,-992.0,15.0
-4.0,-254.0,13.0,-15.0,49.0,0.0,12.0,-994.0,13.0
-4.0,-257.0,14.0,-10.0,50.0,2.0,15.0,-997.0,22.0
-2.0,-255.0,14.0,-6.0,51.0,3.0,15.0,-984.0,20.0
-5.0,-256.0,13.0,-6.0,52.0,2.0,9.0,-987.0,18.0
-3.0,-254.0,17.0,-7.0,53.0,2.0,14.0,-984.0,19.0
-1.0,-256.0,10.0,-9.0,52.0,2.0,14.0,-985.0,19.0
-2.0,-255.0,11.0,-12.0,53.0,2.0,14.0,-988.0,16.0
-3.0,-257.0,16.0,-14.0,53.0,0.0,16.0,-999.0,17.0
-4.0,-257.0,11.0,-15.0,55.0,0.0,17.0,-995.0,21.0
-4.0,-258.0,12.0,-14.0,53.0,-1.0,15.0,-994.0,19.0
-5.0,-257.0,15.0,-11.0,52.0,0.0,13.0,-1002.0,19.0
0.0,-260.0,13.0,-10.0,53.0,0.0,16.0,-995.0,23.0
-4.0,-257.0,14.0,-7.0,52.0,0.0,17.0,-993.0,20.0
-3.0,-255.0,12.0,-4.0,51.0,0.0,13.0,-986.0,18.0
-3.0,-255.0,16.0,-6.0,51.0,-1.0,14.0,-978.0,20.0
-5.0,-255.0,14.0,-9.0,50.0,-1.0,13.0,-983.0,21.0
-6.0,-253.0,14.0,-15.0,48.0,1.0,15.0,-980.0,25.0
-5.0,-255.0,14.0,-20.0,50.0,0.0,17.0,-984.0,19.0
-3.0,-256.0,11.0,-22.0,54.0,-1.0,14.0,-983.0,20.0
-2.0,-255.0,9.0,-20.0,55.0,1.0,16.0,-982.0,11.0
-5.0,-253.0,10.0,-19.0,56.0,1.0,18.0,-983.0,5.0
-6.0,-250.0,11.0,-17.0,59.0,0.0,14.0,-976.0,4.0
-2.0,-256.0,8.0,-19.0,60.0,0.0,15.0,-981.0,3.0
-2.0,-254.0,11.0,-22.0,61.0,0.0,17.0,-982.0,13.0
-2.0,-256.0,14.0,-27.0,58.0,-1.0,21.0,-989.0,16.0
-2.0,-256.0,16.0,-30.0,56.0,-1.0,15.0,-984.0,19.0
-6.0,-256.0,16.0,-29.0,54.0,0.0,10.0,-992.0,21.0
-5.0,-256.0,13.0,-25.0,55.0,-3.0,15.0,-987.0,20.0
-5.0,-257.0,13.0,-23.0,54.0,-3.0,11.0,-999.0,20.0
-12.0,-257.0,14.0,-21.0,54.0,-3.0,12.0,-994.0,18.0
-3.0,-259.0,11.0,-21.0,52.0,-1.0,11.0,-998.0,25.0
-2.0,-256.0,15.0,-22.0,53.0,0.0,18.0,-997.0,26.0
-3.0,-255.0,18.0,-23.0,52.0,1.0,18.0,-995.0,23.0
-6.0,-255.0,17.0,-23.0,53.0,3.0,12.0,-1000.0,20.0
-3.0,-254.0,15.0,-22.0,54.0,2.0,13.0,-990.0,16.0
-4.0,-255.0,14.0,-24.0,54.0,5.0,15.0,-992.0,19.0
-3.0,-256.0,14.0,-24.0,52.0,4.0,18.0,-992.0,18.0
-2.0,-256.0,16.0,-19.0,56.0,4.0,18.0,-991.0,22.0
-3.0,-254.0,14.0,-15.0,56.0,3.0,17.0,-988.0,22.0
-7.0,-254.0,15.0,-15.0,58.0,3.0,12.0,-988.0,18.0
-6.0,-255.0,11.0,-13.0,58.0,3.0,12.0,-981.0,15.0
-3.0,-255.0,13.0,-13.0,57.0,2.0,21.0,-993.0,15.0
-3.0,-256.0,12.0,-15.0,56.0,1.0,11.0,-990.0,11.0
0.0,-257.0,11.0,-17.0,56.0,1.0,13.0,-996.0,13.0
-1.0,-258.0,14.0,-16.0,58.0,0.0,20.0,-989.0,17.0
-5.0,-253.0,13.0,-13.0,58.0,0.0,15.0,-988.0,19.0
-8.0,-254.0,15.0,-10.0,58.0,-1.0,14.0,-983.0,17.0
-6.0,-254.0,12.0,-11.0,59.0,0.0,10.0,-981.0,23.0
