acc1_x,acc1_y,acc1_z,gyro_x,gyro_y,gyro_z,acc2_x,acc2_y,acc2_z
-6.0,-250.0,-72.0,-7.0,75.0,-5.0,-48.0,-954.0,-226.0
-8.0,-248.0,-71.0,-8.0,75.0,-5.0,-47.0,-955.0,-224.0
-7.0,-246.0,-70.0,-11.0,76.0,-6.0,-46.0,-957.0,-221.0
-7.0,-248.0,-68.0,-15.0,76.0,-5.0,-47.0,-957.0,-219.0
-4.0,-249.0,-73.0,-17.0,77.0,-7.0,-47.0,-961.0,-217.0
-11.0,-250.0,-73.0,-18.0,77.0,-6.0,-48.0,-966.0,-212.0
-5.0,-246.0,-68.0,-17.0,77.0,-7.0,-47.0,-958.0,-211.0
-7.0,-251.0,-70.0,-14.0,78.0,-7.0,-57.0,-961.0,-209.0
-6.0,-247.0,-68.0,-9.0,80.0,-7.0,-53.0,-966.0,-211.0
-5.0,-251.0,-72.0,-9.0,80.0,-5.0,-56.0,-956.0,-209.0
-7.0,-248.0,-69.0,-7.0,77.0,-6.0,-54.0,-961.0,-209.0
-7.0,-249.0,-68.0,-7.0,76.0,-5.0,-57.0,-953.0,-209.0
-9.0,-250.0,-67.0,-9.0,77.0,-7.0,-52.0,-951.0,-210.0
-8.0,-246.0,-68.0,-11.0,76.0,-3.0,-56.0,-952.0,-213.0
-9.0,-246.0,-68.0,-14.0,73.0,-4.0,-55.0,-951.0,-210.0
-8.0,-247.0,-70.0,-17.0,74.0,0.0,-60.0,-954.0,-206.0
-9.0,-247.0,-70.0,-19.0,72.0,-1.0,-60.0,-958.0,-208.0
-9.0,-248.0,-70.0,-20.0,72.0,0.0,-59.0,-953.0,-208.0
-8.0,-247.0,-73.0,-21.0,72.0,-4.0,-57.0,-955.0,-209.0
-9.0,-251.0,-70.0,-18.0,72.0,-1.0,-58.0,-962.0,-217.0
-7.0,-251.0,-72.0,-18.0,72.0,-4.0,-58.0,-959.0,-215.0
-6.0,-248.0,-73.0,-15.0,72.0,-1.0,-53.0,-952.0,-216.0
-7.0,-246.0,-69.0,-15.0,72.0,-6.0,-56.0,-954.0,-216.0
-7.0,-248.0,-70.0,-16.0,73.0,-5.0,-57.0,-956.0,-219.0
-8.0,-251.0,-69.0,-17.0,73.0,-8.0,-57.0,-959.0,-212.0
-8.0,-250.0,-70.0,-18.0,72.0,-4.0,-55.0,-961.0,-211.0
-9.0,-248.0,-63.0,-19.0,72.0,-6.0,-54.0,-961.0,-213.0
-8.0,-248.0,-70.0,-19.0,71.0,-5.0,-54.0,-969.0,-206.0
-7.0,-249.0,-69.0,-17.0,69.0,-7.0,-58.0,-962.0,-208.0
-8.0,-251.0,-69.0,-13.0,68.0,-5.0,-56.0,-957.0,-209.0
-7.0,-250.0,-69.0,-10.0,69.0,-7.0,-55.0,-957.0,-212.0
-9.0,-246.0,-71.0,-10.0,69.0,-4.0,-55.0,-954.0,-211.0
-7.0,-248.0,-69.0,-10.0,68.0,-6.0,-60.0,-959.0,-211.0
-10.0,-245.0,-70.0,-11.0,68.0,-2.0,-53.0,-951.0,-216.0
-8.0,-245.0,-68.0,-13.0,67.0,-4.0,-56.0,-952.0,-210.0
-7.0,-248.0,-70.0,-15.0,68.0,-2.0,-57.0,-953.0,-214.0
-6.0,-248.0,-67.0,-18.0,65.0,-5.0,-57.0,-954.0,-211.0
-8.0,-249.0,-72.0,-20.0,64.0,-3.0,-55.0,-960.0,-212.0
-5.0,-250.0,-71.0,-22.0,63.0,-6.0,-53.0,-962.0,-213.0
-6.0,-251.0,-70.0,-22.0,62.0,-5.0,-56.0,-964.0,-211.0
-6.0,-252.0,-68.0,-21.0,62.0,-6.0,-56.0,-961.0,-213.0
-7.0,-251.0,-72.0,-18.0,60.0,-4.0,-59.0,-962.0,-213.0
-7.0,-249.0,-72.0,-16.0,61.0,-5.0,-59.0,-961.0,-207.0
-6.0,-253.0,-68.0,-13.0,61.0,-5.0,-60.0,-961.0,-213.0
-10.0,-246.0,-74.0,-13.0,61.0,-6.0,-61.0,-959.0,-208.0
-8.0,-249.0,-72.0,-12.0,60.0,-5.0,-59.0,-957.0,-209.0
-8.0,-247.0,-66.0,-10.0,60.0,-4.0,-58.0,-956.0,-208.0
-6.0,-249.0,-68.0,-9.0,61.0,-2.0,-56.0,-956.0,-209.0
-10.0,-248.0,-69.0,-8.0,62.0,-3.0,-57.0,-961.0,-208.0
-7.0,-249.0,-70.0,-12.0,60.0,-4.0,-56.0,-956.0,-208.0
-7.0,-249.0,-70.0,-12.0,60.0,-4.0,-55.0,-955.0,-208.0
-5.0,-249.0,-71.0,-11.0,59.0,-3.0,-55.0,-955.0,-210.0
-3.0,-250.0,-69.0,-11.0,59.0,-4.0,-55.0,-962.0,-215.0
-9.0,-248.0,-63.0,-12.0,58.0,-4.0,-57.0,-957.0,-208.0
-8.0,-247.0,-69.0,-13.0,58.0,-5.0,-53.0,-954.0,-208.0
-8.0,-247.0,-71.0,-14.0,60.0,-4.0,-56.0,-958.0,-212.0
-6.0,-250.0,-68.0,-16.0,58.0,-4.0,-51.0,-954.0,-215.0
-7.0,-249.0,-70.0,-15.0,57.0,-5.0,-53.0,-963.0,-208.0
-7.0,-248.0,-70.0,-14.0,59.0,-4.0,-54.0,-956.0,-212.0
-5.0,-250.0,-65.0,-13.0,59.0,-4.0,-56.0,-957.0,-211.0
-8.0,-247.0,-65.0,-12.0,59.0,-4.0,-55.0,-959.0,-208.0
-5.0,-249.0,-69.0,-10.0,59.0,-5.0,-51.0,-959.0,-206.0
-9.0,-247.0,-69.0,-9.0,59.0,-4.0,-50.0,-955.0,-212.0
-7.0,-247.0,-68.0,-7.0,58.0,-4.0,-48.0,-954.0,-213.0
-6.0,-248.0,-68.0,-8.0,57.0,-3.0,-48.0,-951.0,-210.0
-6.0,-247.0,-72.0,-10.0,57.0,-4.0,-51.0,-954.0,-210.0
-6.0,-248.0,-69.0,-12.0,57.0,-3.0,-51.0,-958.0,-210.0
-6.0,-246.0,-70.0,-13.0,57.0,-4.0,-49.0,-955.0,-209.0
-7.0,-246.0,-68.0,-15.0,58.0,-2.0,-50.0,-954.0,-217.0
-8.0,-247.0,-71.0,-15.0,57.0,-3.0,-53.0,-961.0,-210.0
-6.0,-247.0,-69.0,-15.0,58.0,-1.0,-50.0,-957.0,-212.0
-7.0,-250.0,-66.0,-15.0,55.0,-3.0,-54.0,-959.0,-211.0
-7.0,-249.0,-68.0,-16.0,54.0,-2.0,-57.0,-956.0,-220.0
-8.0,-250.0,-71.0,-16.0,54.0,-3.0,-53.0,-958.0,-218.0
-6.0,-250.0,-68.0,-18.0,54.0,-1.0,-55.0,-965.0,-212.0
-9.0,-252.0,-70.0,-17.0,55.0,-4.0,-58.0,-964.0,-213.0
-8.0,-247.0,-70.0,-14.0,54.0,-2.0,-60.0,-961.0,-212.0
-8.0,-248.0,-65.0,-11.0,54.0,-5.0,-56.0,-963.0,-207.0
-10.0,-248.0,-66.0,-9.0,52.0,-3.0,-60.0,-966.0,-210.0
-7.0,-251.0,-67.0,-8.0,49.0,-5.0,-56.0,-959.0,-206.0
-7.0,-251.0,-68.0,-6.0,46.0,-3.0,-58.0,-964.0,-212.0
-8.0,-252.0,-75.0,-7.0,44.0,-4.0,-59.0,-961.0,-206.0
-12.0,-245.0,-73.0,-6.0,41.0,-2.0,-62.0,-956.0,-209.0
-9.0,-248.0,-69.0,-8.0,38.0,-1.0,-62.0,-953.0,-206.0
-9.0,-246.0,-66.0,-6.0,36.0,3.0,-59.0,-952.0,-209.0
-8.0,-247.0,-70.0,-5.0,30.0,0.0,-62.0,-955.0,-213.0
-10.0,-249.0,-67.0,-5.0,27.0,3.0,-63.0,-948.0,-212.0
-9.0,-250.0,-68.0,-4.0,23.0,1.0,-63.0,-960.0,-216.0
-12.0,-249.0,-68.0,-3.0,21.0,2.0,-62.0,-957.0,-216.0
-11.0,-249.0,-69.0,-1.0,20.0,-1.0,-60.0,-951.0,-212.0
-8.0,-248.0,-69.0,-1.0,20.0,1.0,-62.0,-953.0,-214.0
-10.0,-248.0,-68.0,-2.0,20.0,-1.0,-60.0,-955.0,-212.0
-8.0,-247.0,-72.0,-2.0,19.0,1.0,-59.0,-952.0,-212.0
-7.0,-249.0,-71.0,-1.0,19.0,-3.0,-58.0,-957.0,-209.0
-11.0,-248.0,-68.0,-1.0,18.0,0.0,-59.0,-958.0,-213.0
-6.0,-249.0,-71.0,-1.0,16.0,-3.0,-55.0,-957.0,-209.0
-5.0,-248.0,-69.0,-2.0,16.0,-2.0,-51.0,-958.0,-208.0
-9.0,-247.0,-71.0,-2.0,15.0,-6.0,-51.0,-954.0,-207.0
-5.0,-251.0,-66.0,-1.0,16.0,-4.0,-44.0,-957.0,-206.0
-5.0,-248.0,-69.0,0.0,16.0,-5.0,-49.0,-951.0,-212.0
-5.0,-248.0,-70.0,-2.0,17.0,-3.0,-50.0,-953.0,-215.0
-6.0,-248.0,-71.0,-4.0,19.0,-4.0,-42.0,-951.0,-209.0
-4.0,-250.0,-69.0,-6.0,21.0,-4.0,-46.0,-952.0,-208.0
-5.0,-245.0,-68.0,-7.0,20.0,-6.0,-47.0,-955.0,-211.0
-8.0,-246.0,-67.0,-9.0,22.0,-5.0,-44.0,-953.0,-215.0
-5.0,-248.0,-71.0,-10.0,23.0,-5.0,-48.0,-953.0,-212.0
-4.0,-247.0,-69.0,-12.0,25.0,-4.0,-41.0,-955.0,-211.0
-8.0,-246.0,-70.0,-11.0,26.0,-4.0,-43.0,-955.0,-211.0
-3.0,-249.0,-70.0,-10.0,27.0,-3.0,-44.0,-954.0,-212.0
-6.0,-244.0,-66.0,-10.0,30.0,-5.0,-46.0,-953.0,-212.0
-5.0,-248.0,-66.0,-10.0,31.0,-5.0,-49.0,-955.0,-214.0
-6.0,-248.0,-70.0,-12.0,34.0,-6.0,-50.0,-954.0,-215.0
-4.0,-247.0,-68.0,-13.0,36.0,-7.0,-56.0,-953.0,-212.0
-6.0,-249.0,-76.0,-15.0,38.0,-8.0,-43.0,-957.0,-219.0
-5.0,-247.0,-72.0,-17.0,39.0,-7.0,-47.0,-960.0,-209.0
-4.0,-249.0,-68.0,-19.0,39.0,-8.0,-54.0,-960.0,-210.0
-6.0,-250.0,-68.0,-16.0,40.0,-9.0,-50.0,-960.0,-208.0
-7.0,-251.0,-66.0,-14.0,42.0,-8.0,-52.0,-960.0,-208.0
-7.0,-251.0,-65.0,-12.0,43.0,-9.0,-52.0,-958.0,-210.0
-4.0,-250.0,-68.0,-10.0,44.0,-9.0,-50.0,-956.0,-212.0
-4.0,-249.0,-69.0,-13.0,45.0,-10.0,-57.0,-952.0,-215.0
-8.0,-246.0,-72.0,-12.0,47.0,-9.0,-52.0,-957.0,-212.0
-7.0,-249.0,-71.0,-14.0,48.0,-9.0,-52.0,-957.0,-209.0
-8.0,-247.0,-70.0,-14.0,48.0,-8.0,-50.0,-954.0,-207.0
-6.0,-248.0,-67.0,-15.0,48.0,-8.0,-55.0,-954.0,-214.0
-7.0,-248.0,-71.0,-16.0,48.0,-7.0,-52.0,-957.0,-212.0
-8.0,-250.0,-67.0,-15.0,50.0,-8.0,-55.0,-962.0,-212.0
-6.0,-248.0,-72.0,-15.0,52.0,-7.0,-58.0,-956.0,-211.0
-9.0,-247.0,-70.0,-16.0,51.0,-8.0,-55.0,-953.0,-208.0
-9.0,-246.0,-66.0,-18.0,51.0,-6.0,-51.0,-955.0,-205.0
-10.0,-251.0,-68.0,-19.0,53.0,-7.0,-60.0,-956.0,-204.0
-7.0,-247.0,-67.0,-20.0,52.0,-5.0,-56.0,-959.0,-207.0
-10.0,-247.0,-65.0,-22.0,53.0,-9.0,-56.0,-959.0,-206.0
-8.0,-251.0,-65.0,-23.0,52.0,-8.0,-54.0,-957.0,-206.0
-9.0,-250.0,-71.0,-22.0,50.0,-9.0,-58.0,-963.0,-206.0
-10.0,-250.0,-68.0,-18.0,52.0,-8.0,-59.0,-956.0,-204.0
-10.0,-245.0,-67.0,-18.0,53.0,-10.0,-59.0,-954.0,-211.0
-8.0,-247.0,-70.0,-16.0,52.0,-9.0,-63.0,-954.0,-209.0
-10.0,-246.0,-68.0,-15.0,52.0,-10.0,-61.0,-952.0,-209.0
-7.0,-249.0,-68.0,-17.0,53.0,-7.0,-59.0,-953.0,-210.0
-6.0,-245.0,-66.0,-18.0,52.0,-9.0,-52.0,-956.0,-213.0
-11.0,-246.0,-67.0,-22.0,53.0,-6.0,-54.0,-954.0,-211.0
-6.0,-246.0,-68.0,-24.0,55.0,-8.0,-55.0,-948.0,-209.0
-9.0,-250.0,-65.0,-25.0,53.0,-6.0,-59.0,-956.0,-206.0
-9.0,-248.0,-70.0,-25.0,55.0,-10.0,-55.0,-964.0,-205.0
-7.0,-248.0,-65.0,-26.0,55.0,-7.0,-55.0,-963.0,-207.0
-8.0,-248.0,-68.0,-26.0,54.0,-10.0,-56.0,-958.0,-210.0
-7.0,-250.0,-69.0,-24.0,54.0,-8.0,-55.0,-962.0,-206.0
-8.0,-248.0,-71.0,-24.0,56.0,-11.0,-59.0,-963.0,-209.0
-7.0,-247.0,-67.0,-25.0,58.0,-9.0,-56.0,-963.0,-205.0
-8.0,-248.0,-63.0,-23.0,58.0,-10.0,-57.0,-959.0,-206.0
-6.0,-249.0,-68.0,-24.0,59.0,-9.0,-58.0,-958.0,-205.0
-10.0,-247.0,-67.0,-24.0,58.0,-10.0,-55.0,-957.0,-206.0
-8.0,-246.0,-69.0,-23.0,57.0,-7.0,-59.0,-954.0,-212.0
-10.0,-246.0,-66.0,-24.0,57.0,-9.0,-59.0,-958.0,-204.0
-7.0,-251.0,-68.0,-25.0,57.0,-7.0,-59.0,-955.0,-209.0
-11.0,-251.0,-66.0,-24.0,53.0,-11.0,-60.0,-964.0,-215.0
-11.0,-256.0,-68.0,-25.0,53.0,-10.0,-60.0,-966.0,-211.0
-8.0,-251.0,-67.0,-25.0,52.0,-11.0,-57.0,-966.0,-208.0
-7.0,-251.0,-71.0,-20.0,53.0,-9.0,-62.0,-965.0,-206.0
-8.0,-250.0,-73.0,-15.0,53.0,-10.0,-59.0,-965.0,-210.0
-9.0,-249.0,-70.0,-12.0,54.0,-9.0,-60.0,-957.0,-213.0
-10.0,-246.0,-68.0,-11.0,54.0,-10.0,-55.0,-959.0,-214.0
-7.0,-247.0,-68.0,-13.0,55.0,-7.0,-56.0,-953.0,-212.0
-8.0,-246.0,-64.0,-14.0,54.0,-8.0,-59.0,-963.0,-208.0
-9.0,-248.0,-67.0,-14.0,54.0,-5.0,-56.0,-954.0,-207.0
-10.0,-248.0,-70.0,-14.0,54.0,-6.0,-55.0,-961.0,-207.0
-5.0,-251.0,-70.0,-17.0,56.0,-6.0,-56.0,-965.0,-212.0
-4.0,-251.0,-70.0,-16.0,56.0,-4.0,-49.0,-967.0,-207.0
-5.0,-247.0,-70.0,-14.0,57.0,-5.0,-45.0,-966.0,-209.0
-6.0,-249.0,-68.0,-11.0,58.0,-7.0,-54.0,-965.0,-213.0
-7.0,-249.0,-67.0,-11.0,59.0,-5.0,-50.0,-965.0,-205.0
-6.0,-252.0,-71.0,-13.0,61.0,-6.0,-51.0,-964.0,-206.0
-9.0,-246.0,-69.0,-12.0,62.0,-6.0,-51.0,-964.0,-202.0
-8.0,-247.0,-68.0,-10.0,62.0,-8.0,-55.0,-964.0,-201.0
-8.0,-250.0,-65.0,-7.0,63.0,-8.0,-59.0,-959.0,-197.0
-9.0,-252.0,-65.0,-4.0,63.0,-7.0,-59.0,-963.0,-196.0
-8.0,-249.0,-66.0,0.0,61.0,-8.0,-52.0,-966.0,-201.0
-7.0,-250.0,-67.0,2.0,61.0,-5.0,-55.0,-954.0,-206.0
-8.0,-246.0,-69.0,1.0,64.0,-7.0,-53.0,-950.0,-212.0
-6.0,-245.0,-72.0,-2.0,66.0,-6.0,-50.0,-952.0,-214.0
-7.0,-246.0,-69.0,-8.0,67.0,-7.0,-50.0,-961.0,-212.0
-8.0,-246.0,-67.0,-15.0,68.0,-7.0,-50.0,-952.0,-218.0
-7.0,-248.0,-66.0,-21.0,70.0,-7.0,-51.0,-953.0,-208.0
-9.0,-249.0,-68.0,-23.0,69.0,-5.0,-53.0,-959.0,-207.0
-7.0,-250.0,-68.0,-23.0,71.0,-5.0,-57.0,-963.0,-204.0
-11.0,-248.0,-68.0,-20.0,72.0,-4.0,-58.0,-961.0,-200.0
-9.0,-250.0,-67.0,-17.0,74.0,-5.0,-54.0,-966.0,-200.0
-8.0,-248.0,-65.0,-14.0,74.0,-3.0,-55.0,-967.0,-202.0
-7.0,-248.0,-66.0,-10.0,75.0,-5.0,-52.0,-964.0,-202.0
-8.0,-251.0,-66.0,-8.0,75.0,-2.0,-50.0,-962.0,-202.0
-9.0,-250.0,-66.0,-6.0,77.0,-5.0,-50.0,-955.0,-203.0
-9.0,-247.0,-67.0,-6.0,79.0,-4.0,-57.0,-958.0,-200.0
-7.0,-248.0,-68.0,-8.0,80.0,-5.0,-55.0,-958.0,-200.0
-10.0,-246.0,-68.0,-10.0,81.0,-5.0,-59.0,-958.0,-202.0
-7.0,-247.0,-71.0,-11.0,81.0,-6.0,-50.0,-955.0,-207.0
-6.0,-249.0,-67.0,-13.0,83.0,-4.0,-49.0,-954.0,-201.0
-10.0,-248.0,-66.0,-16.0,83.0,-5.0,-58.0,-961.0,-206.0
-9.0,-248.0,-69.0,-14.0,80.0,-3.0,-53.0,-960.0,-209.0
-6.0,-249.0,-68.0,-13.0,78.0,-6.0,-61.0,-954.0,-208.0
-9.0,-248.0,-69.0,-13.0,81.0,-4.0,-52.0,-956.0,-208.0
-6.0,-246.0,-69.0,-13.0,80.0,-6.0,-61.0,-955.0,-207.0
-8.0,-250.0,-68.0,-12.0,81.0,-2.0,-60.0,-960.0,-205.0
-10.0,-250.0,-65.0,-13.0,81.0,-6.0,-58.0,-957.0,-207.0
-9.0,-249.0,-71.0,-13.0,81.0,-3.0,-57.0,-962.0,-207.0
-8.0,-249.0,-65.0,-14.0,81.0,-5.0,-51.0,-957.0,-203.0
-7.0,-247.0,-70.0,-13.0,82.0,-3.0,-57.0,-955.0,-205.0
-10.0,-249.0,-65.0,-12.0,81.0,-5.0,-53.0,-959.0,-209.0
-9.0,-247.0,-65.0,-11.0,82.0,-2.0,-57.0,-959.0,-208.0
-7.0,-248.0,-72.0,-10.0,82.0,-4.0,-51.0,-956.0,-207.0
-6.0,-249.0,-74.0,-12.0,81.0,-4.0,-54.0,-958.0,-212.0
-8.0,-250.0,-65.0,-12.0,81.0,-5.0,-58.0,-963.0,-207.0
-8.0,-249.0,-65.0,-13.0,81.0,-4.0,-58.0,-958.0,-206.0
-4.0,-250.0,-67.0,-12.0,80.0,-6.0,-52.0,-960.0,-205.0
-6.0,-248.0,-69.0,-12.0,81.0,-3.0,-58.0,-954.0,-209.0
-6.0,-250.0,-70.0,-9.0,81.0,-4.0,-55.0,-965.0,-210.0
-11.0,-246.0,-69.0,-7.0,80.0,-2.0,-56.0,-962.0,-209.0
-9.0,-249.0,-71.0,-5.0,79.0,-4.0,-58.0,-958.0,-210.0
-7.0,-249.0,-69.0,-6.0,80.0,-2.0,-53.0,-956.0,-208.0
-9.0,-249.0,-69.0,-8.0,79.0,-4.0,-59.0,-959.0,-207.0
-10.0,-248.0,-67.0,-9.0,80.0,-3.0,-59.0,-959.0,-206.0
-7.0,-250.0,-66.0,-7.0,80.0,-5.0,-57.0,-962.0,-206.0
-10.0,-251.0,-72.0,-4.0,79.0,-4.0,-59.0,-954.0,-203.0
-8.0,-249.0,-70.0,-1.0,78.0,-4.0,-59.0,-957.0,-208.0
-8.0,-248.0,-69.0,0.0,81.0,-4.0,-60.0,-955.0,-207.0
-11.0,-248.0,-65.0,0.0,79.0,-4.0,-58.0,-952.0,-203.0
-9.0,-246.0,-65.0,-4.0,78.0,-1.0,-60.0,-951.0,-198.0
-10.0,-246.0,-69.0,-9.0,77.0,-2.0,-57.0,-952.0,-203.0
-6.0,-248.0,-68.0,-11.0,77.0,-1.0,-56.0,-952.0,-203.0
-5.0,-248.0,-67.0,-14.0,77.0,-2.0,-57.0,-956.0,-203.0
-9.0,-248.0,-67.0,-15.0,76.0,-2.0,-59.0,-961.0,-210.0
-7.0,-249.0,-66.0,-15.0,77.0,-4.0,-54.0,-956.0,-204.0
-6.0,-250.0,-68.0,-14.0,77.0,-4.0,-56.0,-961.0,-204.0
-8.0,-249.0,-67.0,-14.0,80.0,-4.0,-52.0,-958.0,-207.0
-9.0,-247.0,-65.0,-14.0,82.0,-5.0,-57.0,-954.0,-204.0
-7.0,-248.0,-67.0,-13.0,81.0,-4.0,-54.0,-955.0,-205.0
-6.0,-248.0,-70.0,-13.0,82.0,-4.0,-53.0,-954.0,-206.0
-5.0,-251.0,-66.0,-13.0,81.0,-3.0,-57.0,-958.0,-210.0
-9.0,-245.0,-74.0,-14.0,83.0,-4.0,-58.0,-956.0,-208.0
-8.0,-247.0,-71.0,-16.0,82.0,-4.0,-59.0,-958.0,-209.0
-9.0,-247.0,-68.0,-16.0,80.0,-4.0,-53.0,-963.0,-207.0
-8.0,-246.0,-70.0,-18.0,81.0,-4.0,-56.0,-954.0,-209.0
-8.0,-249.0,-73.0,-16.0,81.0,-3.0,-60.0,-961.0,-208.0
-8.0,-251.0,-71.0,-18.0,79.0,-3.0,-58.0,-962.0,-210.0
-9.0,-247.0,-69.0,-15.0,80.0,-5.0,-56.0,-956.0,-208.0
-9.0,-248.0,-71.0,-13.0,80.0,-2.0,-55.0,-965.0,-205.0
-6.0,-249.0,-66.0,-12.0,79.0,-4.0,-56.0,-960.0,-203.0
-8.0,-246.0,-69.0,-11.0,79.0,-2.0,-55.0,-961.0,-211.0
-8.0,-249.0,-68.0,-11.0,79.0,-3.0,-59.0,-959.0,-204.0
-11.0,-248.0,-68.0,-11.0,78.0,-2.0,-58.0,-960.0,-204.0
-8.0,-249.0,-68.0,-15.0,77.0,-3.0,-65.0,-957.0,-210.0
-11.0,-249.0,-65.0,-18.0,76.0,0.0,-60.0,-958.0,-204.0
-8.0,-249.0,-69.0,-17.0,73.0,-3.0,-56.0,-958.0,-205.0
-8.0,-248.0,-66.0,-17.0,74.0,-3.0,-60.0,-959.0,-203.0
-11.0,-246.0,-71.0,-17.0,73.0,-7.0,-59.0,-954.0,-204.0
-11.0,-247.0,-63.0,-16.0,71.0,-3.0,-55.0,-950.0,-208.0
-8.0,-248.0,-70.0,-17.0,70.0,-7.0,-52.0,-949.0,-207.0
-6.0,-249.0,-68.0,-22.0,70.0,-5.0,-60.0,-959.0,-208.0
-9.0,-250.0,-70.0,-24.0,70.0,-9.0,-59.0,-957.0,-207.0
-8.0,-250.0,-70.0,-27.0,68.0,-6.0,-61.0,-955.0,-207.0
-10.0,-249.0,-67.0,-25.0,65.0,-8.0,-60.0,-961.0,-209.0
-8.0,-249.0,-70.0,-23.0,66.0,-5.0,-60.0,-957.0,-211.0
-11.0,-247.0,-68.0,-20.0,65.0,-8.0,-64.0,-961.0,-206.0
-9.0,-249.0,-72.0,-22.0,63.0,-5.0,-64.0,-955.0,-209.0
-8.0,-249.0,-64.0,-22.0,63.0,-7.0,-56.0,-963.0,-205.0
-10.0,-246.0,-73.0,-24.0,63.0,-5.0,-56.0,-959.0,-206.0
-10.0,-249.0,-69.0,-25.0,62.0,-7.0,-63.0,-964.0,-204.0
-9.0,-248.0,-68.0,-23.0,61.0,-4.0,-54.0,-959.0,-203.0
-9.0,-250.0,-70.0,-24.0,58.0,-6.0,-58.0,-959.0,-201.0
-9.0,-250.0,-66.0,-22.0,57.0,-6.0,-64.0,-965.0,-206.0
-10.0,-249.0,-67.0,-20.0,56.0,-7.0,-59.0,-962.0,-206.0
-11.0,-248.0,-66.0,-19.0,56.0,-5.0,-55.0,-957.0,-205.0
-8.0,-248.0,-71.0,-17.0,56.0,-8.0,-51.0,-958.0,-208.0
-7.0,-251.0,-68.0,-19.0,55.0,-6.0,-55.0,-955.0,-208.0
-10.0,-246.0,-69.0,-19.0,54.0,-9.0,-59.0,-951.0,-209.0
-9.0,-248.0,-70.0,-20.0,57.0,-7.0,-59.0,-952.0,-212.0
-6.0,-248.0,-70.0,-21.0,56.0,-10.0,-55.0,-964.0,-213.0
-9.0,-249.0,-66.0,-22.0,55.0,-5.0,-54.0,-954.0,-209.0
-10.0,-248.0,-70.0,-24.0,57.0,-6.0,-52.0,-956.0,-208.0
-8.0,-248.0,-70.0,-22.0,57.0,-5.0,-53.0,-958.0,-207.0
-8.0,-248.0,-69.0,-21.0,57.0,-4.0,-52.0,-958.0,-209.0
-9.0,-248.0,-65.0,-21.0,57.0,-4.0,-54.0,-960.0,-210.0
-6.0,-249.0,-68.0,-20.0,57.0,-5.0,-54.0,-958.0,-214.0
-6.0,-248.0,-69.0,-20.0,57.0,-5.0,-59.0,-958.0,-207.0
-5.0,-250.0,-71.0,-20.0,57.0,-5.0,-53.0,-962.0,-210.0
-7.0,-250.0,-69.0,-19.0,58.0,-4.0,-59.0,-958.0,-212.0
-9.0,-249.0,-66.0,-18.0,58.0,-4.0,-56.0,-958.0,-206.0
-8.0,-249.0,-69.0,-16.0,59.0,-3.0,-60.0,-966.0,-206.0
-5.0,-243.0,-74.0,-16.0,58.0,-5.0,-52.0,-955.0,-205.0
-10.0,-249.0,-71.0,-17.0,57.0,-4.0,-59.0,-959.0,-200.0
-7.0,-250.0,-70.0,-18.0,59.0,-3.0,-54.0,-960.0,-204.0
-8.0,-249.0,-70.0,-18.0,59.0,-4.0,-58.0,-954.0,-207.0
-8.0,-247.0,-70.0,-18.0,58.0,-2.0,-52.0,-957.0,-209.0
-9.0,-247.0,-70.0,-17.0,58.0,-2.0,-55.0,-958.0,-208.0
-6.0,-248.0,-68.0,-18.0,58.0,-2.0,-54.0,-957.0,-208.0
-8.0,-248.0,-67.0,-18.0,58.0,-3.0,-57.0,-956.0,-208.0
-7.0,-249.0,-67.0,-20.0,59.0,-2.0,-59.0,-949.0,-211.0
-10.0,-245.0,-65.0,-22.0,61.0,-3.0,-60.0,-955.0,-209.0
-8.0,-248.0,-68.0,-22.0,59.0,-2.0,-52.0,-953.0,-213.0
-11.0,-248.0,-71.0,-21.0,60.0,-4.0,-52.0,-953.0,-212.0
-11.0,-246.0,-68.0,-24.0,60.0,-5.0,-59.0,-953.0,-210.0
-9.0,-249.0,-66.0,-24.0,61.0,-5.0,-59.0,-953.0,-210.0
-9.0,-249.0,-69.0,-24.0,60.0,-3.0,-61.0,-959.0,-203.0
-6.0,-248.0,-69.0,-25.0,61.0,-6.0,-61.0,-958.0,-206.0
-9.0,-250.0,-67.0,-24.0,59.0,-5.0,-59.0,-963.0,-207.0
-9.0,-251.0,-70.0,-22.0,59.0,-7.0,-58.0,-963.0,-206.0
-7.0,-248.0,-68.0,-22.0,58.0,-5.0,-59.0,-958.0,-208.0
-10.0,-248.0,-68.0,-19.0,57.0,-6.0,-59.0,-956.0,-208.0
-11.0,-247.0,-66.0,-20.0,56.0,-3.0,-59.0,-951.0,-210.0
-7.0,-249.0,-71.0,-20.0,58.0,-5.0,-54.0,-951.0,-215.0
1.0,-243.0,-71.0,-22.0,58.0,-2.0,-55.0,-950.0,-214.0
-10.0,-246.0,-68.0,-26.0,58.0,-3.0,-56.0,-949.0,-212.0
-8.0,-246.0,-70.0,-27.0,58.0,-1.0,-55.0,-956.0,-216.0
-5.0,-248.0,-69.0,-27.0,59.0,-2.0,-55.0,-958.0,-212.0
-7.0,-249.0,-67.0,-27.0,59.0,1.0,-53.0,-959.0,-213.0
-5.0,-250.0,-68.0,-26.0,59.0,-2.0,-58.0,-960.0,-210.0
-9.0,-249.0,-68.0,-27.0,59.0,-1.0,-55.0,-956.0,-210.0
-6.0,-246.0,-71.0,-27.0,58.0,-4.0,-51.0,-956.0,-209.0
-7.0,-249.0,-68.0,-26.0,59.0,-3.0,-50.0,-966.0,-211.0
-4.0,-250.0,-70.0,-23.0,61.0,-6.0,-54.0,-960.0,-212.0
-4.0,-250.0,-70.0,-24.0,61.0,-2.0,-52.0,-959.0,-207.0
-6.0,-250.0,-69.0,-22.0,63.0,-4.0,-54.0,-962.0,-211.0
-9.0,-248.0,-65.0,-22.0,64.0,-3.0,-56.0,-956.0,-209.0
-8.0,-248.0,-69.0,-23.0,66.0,-6.0,-55.0,-956.0,-210.0
-7.0,-246.0,-70.0,-24.0,65.0,-2.0,-56.0,-955.0,-212.0
-8.0,-251.0,-66.0,-25.0,64.0,-4.0,-56.0,-953.0,-213.0
-10.0,-247.0,-72.0,-25.0,65.0,-2.0,-59.0,-956.0,-207.0
-6.0,-248.0,-66.0,-26.0,65.0,-3.0,-54.0,-953.0,-208.0
-9.0,-249.0,-70.0,-26.0,66.0,-3.0,-55.0,-955.0,-209.0
-7.0,-247.0,-68.0,-27.0,66.0,-5.0,-57.0,-956.0,-208.0
-6.0,-252.0,-70.0,-26.0,66.0,-2.0,-54.0,-959.0,-207.0
-7.0,-251.0,-70.0,-27.0,66.0,-5.0,-59.0,-958.0,-209.0
-6.0,-252.0,-65.0,-28.0,68.0,-4.0,-56.0,-958.0,-217.0
-9.0,-249.0,-69.0,-27.0,67.0,-7.0,-60.0,-962.0,-209.0
-7.0,-250.0,-68.0,-27.0,69.0,-5.0,-59.0,-962.0,-209.0
-6.0,-250.0,-70.0,-25.0,70.0,-6.0,-61.0,-959.0,-208.0
-9.0,-248.0,-69.0,-26.0,71.0,-5.0,-59.0,-958.0,-210.0
-9.0,-249.0,-68.0,-25.0,69.0,-6.0,-57.0,-960.0,-208.0
-7.0,-250.0,-69.0,-25.0,70.0,-3.0,-56.0,-962.0,-209.0
-8.0,-249.0,-65.0,-26.0,68.0,-5.0,-56.0,-961.0,-208.0
-9.0,-247.0,-68.0,-23.0,67.0,-3.0,-51.0,-956.0,-205.0
-10.0,-248.0,-68.0,-21.0,67.0,-4.0,-55.0,-962.0,-206.0
-7.0,-248.0,-71.0,-18.0,67.0,-4.0,-52.0,-956.0,-204.0
-8.0,-247.0,-70.0,-18.0,66.0,-4.0,-53.0,-954.0,-207.0
-8.0,-248.0,-66.0,-18.0,67.0,-4.0,-52.0,-950.0,-208.0
-7.0,-249.0,-67.0,-21.0,67.0,-5.0,-52.0,-951.0,-205.0
-8.0,-248.0,-65.0,-24.0,66.0,-5.0,-54.0,-951.0,-206.0
-9.0,-247.0,-66.0,-26.0,66.0,-5.0,-54.0,-956.0,-207.0
-8.0,-248.0,-68.0,-28.0,66.0,-6.0,-56.0,-959.0,-210.0
-8.0,-249.0,-65.0,-27.0,65.0,-5.0,-53.0,-953.0,-208.0
-8.0,-249.0,-66.0,-25.0,65.0,-5.0,-56.0,-954.0,-215.0
-5.0,-248.0,-70.0,-22.0,67.0,-3.0,-58.0,-954.0,-217.0
-8.0,-247.0,-71.0,-21.0,67.0,-4.0,-51.0,-952.0,-212.0
-6.0,-246.0,-74.0,-20.0,69.0,-3.0,-55.0,-954.0,-216.0
-11.0,-245.0,-67.0,-24.0,70.0,-4.0,-50.0,-957.0,-207.0
-10.0,-246.0,-69.0,-29.0,71.0,-4.0,-53.0,-953.0,-206.0
-6.0,-247.0,-68.0,-32.0,73.0,-5.0,-52.0,-962.0,-216.0
-8.0,-249.0,-66.0,-34.0,72.0,-5.0,-54.0,-958.0,-205.0
-7.0,-250.0,-66.0,-33.0,73.0,-7.0,-52.0,-961.0,-200.0
-5.0,-248.0,-69.0,-30.0,72.0,-4.0,-49.0,-961.0,-209.0
-5.0,-248.0,-69.0,-28.0,72.0,-6.0,-55.0,-959.0,-213.0
-8.0,-246.0,-74.0,-26.0,74.0,-4.0,-50.0,-965.0,-217.0
-4.0,-250.0,-70.0,-22.0,75.0,-6.0,-48.0,-956.0,-213.0
-6.0,-247.0,-70.0,-22.0,75.0,-3.0,-50.0,-957.0,-210.0
-6.0,-247.0,-68.0,-22.0,75.0,-6.0,-52.0,-953.0,-207.0
-8.0,-244.0,-66.0,-25.0,76.0,-5.0,-54.0,-951.0,-204.0
-7.0,-247.0,-69.0,-27.0,75.0,-6.0,-53.0,-953.0,-204.0
-8.0,-247.0,-69.0,-30.0,76.0,-3.0,-55.0,-960.0,-197.0
-9.0,-248.0,-67.0,-30.0,77.0,-5.0,-56.0,-960.0,-202.0
-6.0,-251.0,-65.0,-26.0,77.0,-5.0,-55.0,-965.0,-207.0
-7.0,-249.0,-67.0,-19.0,78.0,-7.0,-52.0,-964.0,-214.0
-5.0,-250.0,-72.0,-14.0,77.0,-5.0,-51.0,-960.0,-224.0
-6.0,-247.0,-72.0,-11.0,77.0,-8.0,-47.0,-950.0,-227.0
-8.0,-245.0,-71.0,-14.0,77.0,-5.0,-49.0,-951.0,-228.0
-8.0,-247.0,-77.0,-22.0,79.0,-7.0,-46.0,-949.0,-231.0
-9.0,-249.0,-70.0,-29.0,82.0,-5.0,-47.0,-950.0,-225.0
-3.0,-248.0,-73.0,-37.0,84.0,-7.0,-47.0,-955.0,-223.0
-6.0,-249.0,-70.0,-42.0,84.0,-5.0,-49.0,-961.0,-214.0
-6.0,-254.0,-73.0,-43.0,85.0,-7.0,-49.0,-966.0,-209.0
-8.0,-251.0,-64.0,-39.0,84.0,-3.0,-55.0,-967.0,-205.0
-9.0,-251.0,-70.0,-32.0,83.0,-5.0,-59.0,-966.0,-203.0
-10.0,-251.0,-69.0,-25.0,81.0,-5.0,-56.0,-967.0,-207.0
-8.0,-248.0,-68.0,-22.0,81.0,-7.0,-59.0,-965.0,-209.0
-10.0,-248.0,-65.0,-18.0,80.0,-5.0,-60.0,-958.0,-206.0
-9.0,-248.0,-65.0,-16.0,78.0,-7.0,-62.0,-957.0,-212.0
-7.0,-246.0,-73.0,-17.0,78.0,-4.0,-61.0,-949.0,-211.0
-10.0,-247.0,-72.0,-17.0,79.0,-5.0,-63.0,-955.0,-209.0
-8.0,-247.0,-70.0,-19.0,77.0,-4.0,-59.0,-953.0,-211.0
-8.0,-248.0,-71.0,-21.0,77.0,-5.0,-52.0,-952.0,-212.0
-9.0,-245.0,-70.0,-25.0,77.0,-3.0,-59.0,-954.0,-218.0
-8.0,-248.0,-71.0,-26.0,76.0,-5.0,-58.0,-958.0,-211.0
-7.0,-250.0,-71.0,-26.0,74.0,-3.0,-57.0,-959.0,-215.0
-6.0,-246.0,-72.0,-26.0,76.0,-3.0,-55.0,-957.0,-218.0
-7.0,-247.0,-72.0,-23.0,75.0,-3.0,-53.0,-958.0,-214.0
-6.0,-250.0,-66.0,-23.0,76.0,-5.0,-53.0,-963.0,-212.0
-8.0,-250.0,-72.0,-23.0,75.0,-4.0,-51.0,-956.0,-215.0
-9.0,-245.0,-70.0,-24.0,75.0,-6.0,-52.0,-960.0,-212.0
-5.0,-247.0,-70.0,-25.0,77.0,-5.0,-52.0,-957.0,-216.0
-9.0,-249.0,-71.0,-26.0,74.0,-7.0,-56.0,-961.0,-211.0
-6.0,-251.0,-72.0,-28.0,74.0,-4.0,-56.0,-957.0,-213.0
-8.0,-249.0,-67.0,-28.0,73.0,-4.0,-53.0,-957.0,-208.0
-6.0,-246.0,-70.0,-29.0,72.0,-3.0,-51.0,-956.0,-213.0
-7.0,-250.0,-67.0,-28.0,71.0,-4.0,-55.0,-962.0,-212.0
-8.0,-251.0,-71.0,-24.0,71.0,-4.0,-57.0,-958.0,-216.0
-8.0,-250.0,-69.0,-21.0,73.0,-2.0,-58.0,-955.0,-211.0
-8.0,-247.0,-69.0,-20.0,72.0,-4.0,-58.0,-954.0,-214.0
-7.0,-248.0,-68.0,-18.0,71.0,-3.0,-59.0,-956.0,-216.0
-9.0,-247.0,-64.0,-17.0,70.0,-4.0,-56.0,-951.0,-213.0
-9.0,-247.0,-70.0,-19.0,70.0,-4.0,-54.0,-948.0,-215.0
-9.0,-247.0,-68.0,-23.0,68.0,-6.0,-60.0,-949.0,-215.0
-8.0,-243.0,-68.0,-28.0,68.0,-6.0,-57.0,-953.0,-211.0
-6.0,-246.0,-68.0,-32.0,69.0,-5.0,-56.0,-952.0,-213.0
-10.0,-248.0,-73.0,-33.0,68.0,-6.0,-59.0,-953.0,-210.0
-8.0,-249.0,-73.0,-34.0,68.0,-6.0,-54.0,-963.0,-217.0
-6.0,-248.0,-69.0,-30.0,68.0,-4.0,-61.0,-962.0,-208.0
-9.0,-248.0,-71.0,-27.0,66.0,-5.0,-61.0,-958.0,-212.0
-8.0,-250.0,-67.0,-25.0,68.0,-4.0,-61.0,-950.0,-211.0
-9.0,-250.0,-70.0,-23.0,66.0,-4.0,-64.0,-954.0,-212.0
-6.0,-246.0,-66.0,-22.0,67.0,-3.0,-63.0,-953.0,-213.0
-6.0,-249.0,-67.0,-24.0,67.0,-4.0,-55.0,-954.0,-210.0
-6.0,-248.0,-72.0,-26.0,66.0,-3.0,-56.0,-955.0,-214.0
-10.0,-245.0,-70.0,-29.0,68.0,-5.0,-53.0,-955.0,-212.0
-7.0,-247.0,-68.0,-31.0,64.0,-3.0,-52.0,-960.0,-214.0
-7.0,-251.0,-69.0,-30.0,64.0,-5.0,-52.0,-956.0,-221.0
-6.0,-249.0,-75.0,-31.0,63.0,-4.0,-54.0,-955.0,-216.0
-7.0,-250.0,-69.0,-27.0,63.0,-7.0,-54.0,-959.0,-219.0
-7.0,-250.0,-71.0,-28.0,62.0,-4.0,-54.0,-954.0,-218.0
-10.0,-248.0,-71.0,-28.0,63.0,-7.0,-58.0,-957.0,-217.0
-7.0,-252.0,-71.0,-28.0,64.0,-6.0,-59.0,-958.0,-215.0
-9.0,-247.0,-69.0,-27.0,63.0,-6.0,-58.0,-957.0,-217.0
-8.0,-248.0,-70.0,-25.0,61.0,-5.0,-56.0,-955.0,-218.0
-8.0,-249.0,-73.0,-23.0,59.0,-8.0,-57.0,-960.0,-213.0
-8.0,-249.0,-71.0,-22.0,57.0,-4.0,-56.0,-959.0,-219.0
-6.0,-249.0,-72.0,-24.0,58.0,-5.0,-55.0,-952.0,-215.0
-7.0,-249.0,-69.0,-24.0,57.0,-4.0,-53.0,-950.0,-217.0
-10.0,-247.0,-71.0,-27.0,56.0,-5.0,-54.0,-950.0,-218.0
-6.0,-252.0,-72.0,-29.0,57.0,-3.0,-50.0,-955.0,-218.0
-8.0,-249.0,-69.0,-28.0,58.0,-6.0,-51.0,-956.0,-215.0
-6.0,-247.0,-72.0,-30.0,57.0,-5.0,-53.0,-954.0,-213.0
-4.0,-251.0,-71.0,-29.0,57.0,-7.0,-50.0,-958.0,-214.0
-5.0,-251.0,-66.0,-26.0,59.0,-4.0,-52.0,-956.0,-212.0
-10.0,-247.0,-70.0,-25.0,60.0,-6.0,-49.0,-959.0,-208.0
-7.0,-247.0,-68.0,-25.0,59.0,-3.0,-52.0,-956.0,-212.0
-8.0,-249.0,-70.0,-22.0,58.0,-6.0,-53.0,-954.0,-212.0
-8.0,-251.0,-69.0,-22.0,59.0,-3.0,-54.0,-961.0,-217.0
-7.0,-250.0,-69.0,-22.0,58.0,-7.0,-53.0,-958.0,-211.0
-7.0,-250.0,-70.0,-23.0,57.0,-5.0,-55.0,-954.0,-215.0
-11.0,-246.0,-71.0,-22.0,56.0,-6.0,-55.0,-957.0,-216.0
-7.0,-247.0,-71.0,-23.0,56.0,-6.0,-53.0,-957.0,-214.0
-5.0,-250.0,-71.0,-22.0,56.0,-8.0,-51.0,-960.0,-216.0
-8.0,-249.0,-67.0,-21.0,56.0,-6.0,-53.0,-956.0,-217.0
-8.0,-247.0,-71.0,-23.0,57.0,-8.0,-54.0,-960.0,-213.0
-6.0,-251.0,-72.0,-22.0,56.0,-7.0,-51.0,-960.0,-214.0
-10.0,-247.0,-70.0,-19.0,57.0,-6.0,-53.0,-957.0,-211.0
-7.0,-246.0,-70.0,-19.0,57.0,-5.0,-49.0,-957.0,-214.0
-7.0,-246.0,-67.0,-19.0,58.0,-7.0,-46.0,-952.0,-214.0
-8.0,-247.0,-72.0,-22.0,59.0,-6.0,-50.0,-952.0,-219.0
-8.0,-247.0,-71.0,-23.0,60.0,-7.0,-50.0,-953.0,-216.0
-6.0,-248.0,-73.0,-25.0,60.0,-7.0,-49.0,-953.0,-216.0
-6.0,-250.0,-69.0,-24.0,62.0,-6.0,-51.0,-954.0,-217.0
-9.0,-247.0,-71.0,-25.0,61.0,-7.0,-50.0,-953.0,-217.0
-8.0,-249.0,-71.0,-25.0,63.0,-6.0,-50.0,-953.0,-216.0
-7.0,-247.0,-67.0,-27.0,64.0,-6.0,-46.0,-958.0,-219.0
-9.0,-245.0,-70.0,-28.0,64.0,-6.0,-48.0,-956.0,-218.0
-11.0,-248.0,-69.0,-29.0,65.0,-7.0,-50.0,-960.0,-220.0
-4.0,-253.0,-71.0,-28.0,64.0,-4.0,-48.0,-956.0,-216.0
-8.0,-247.0,-70.0,-26.0,65.0,-7.0,-49.0,-959.0,-215.0
-7.0,-248.0,-69.0,-24.0,64.0,-7.0,-52.0,-962.0,-216.0
-7.0,-249.0,-68.0,-23.0,65.0,-8.0,-52.0,-964.0,-216.0
-7.0,-249.0,-66.0,-21.0,65.0,-6.0,-48.0,-960.0,-213.0
-6.0,-248.0,-70.0,-19.0,66.0,-8.0,-53.0,-955.0,-214.0
-10.0,-246.0,-71.0,-18.0,66.0,-6.0,-54.0,-958.0,-216.0
-9.0,-248.0,-71.0,-18.0,66.0,-7.0,-52.0,-957.0,-216.0
-4.0,-250.0,-71.0,-16.0,67.0,-5.0,-53.0,-957.0,-213.0
-6.0,-247.0,-70.0,-15.0,67.0,-7.0,-56.0,-955.0,-217.0
-10.0,-247.0,-65.0,-15.0,67.0,-5.0,-58.0,-956.0,-217.0
-6.0,-250.0,-73.0,-14.0,67.0,-6.0,-54.0,-958.0,-216.0
-9.0,-251.0,-70.0,-13.0,67.0,-3.0,-55.0,-959.0,-215.0
-5.0,-250.0,-71.0,-12.0,67.0,-4.0,-57.0,-956.0,-221.0
-7.0,-246.0,-72.0,-9.0,66.0,-2.0,-58.0,-957.0,-225.0
-6.0,-249.0,-71.0,-10.0,66.0,-3.0,-50.0,-953.0,-217.0
-9.0,-248.0,-73.0,-9.0,66.0,-2.0,-55.0,-960.0,-221.0
-7.0,-249.0,-71.0,-9.0,66.0,-4.0,-54.0,-959.0,-219.0
-7.0,-249.0,-71.0,-11.0,68.0,-2.0,-51.0,-961.0,-218.0
-8.0,-249.0,-71.0,-10.0,68.0,-4.0,-49.0,-961.0,-221.0
-8.0,-250.0,-73.0,-10.0,68.0,-2.0,-52.0,-961.0,-214.0
-5.0,-250.0,-71.0,-7.0,68.0,-4.0,-51.0,-959.0,-215.0
-7.0,-250.0,-67.0,-4.0,67.0,-2.0,-50.0,-958.0,-213.0
-8.0,-247.0,-69.0,-3.0,67.0,-5.0,-49.0,-958.0,-218.0
-4.0,-247.0,-71.0,-1.0,69.0,-3.0,-53.0,-954.0,-218.0
-8.0,-247.0,-70.0,-2.0,67.0,-7.0,-53.0,-951.0,-215.0
-8.0,-246.0,-68.0,-2.0,67.0,-4.0,-57.0,-951.0,-215.0
-6.0,-244.0,-72.0,-6.0,66.0,-6.0,-58.0,-954.0,-213.0
-11.0,-244.0,-72.0,-9.0,68.0,-4.0,-51.0,-950.0,-208.0
-6.0,-244.0,-66.0,-13.0,70.0,-6.0,-57.0,-952.0,-212.0
-9.0,-245.0,-71.0,-13.0,70.0,-3.0,-59.0,-955.0,-210.0
-6.0,-248.0,-68.0,-14.0,70.0,-5.0,-59.0,-955.0,-214.0
-8.0,-249.0,-74.0,-11.0,70.0,-2.0,-53.0,-957.0,-217.0
-9.0,-249.0,-70.0,-9.0,69.0,-4.0,-59.0,-959.0,-213.0
-6.0,-248.0,-70.0,-7.0,69.0,-2.0,-53.0,-957.0,-218.0
-9.0,-248.0,-73.0,-7.0,70.0,-4.0,-48.0,-952.0,-217.0
-5.0,-249.0,-68.0,-7.0,72.0,-3.0,-52.0,-958.0,-221.0
-8.0,-248.0,-72.0,-6.0,71.0,-5.0,-59.0,-958.0,-215.0
-8.0,-250.0,-68.0,-8.0,69.0,-4.0,-57.0,-956.0,-217.0
-5.0,-246.0,-70.0,-8.0,68.0,-4.0,-54.0,-956.0,-219.0
-5.0,-248.0,-72.0,-9.0,69.0,-3.0,-56.0,-957.0,-222.0
-9.0,-242.0,-70.0,-7.0,70.0,-6.0,-54.0,-958.0,-220.0
-9.0,-247.0,-73.0,-6.0,70.0,-7.0,-51.0,-961.0,-218.0
-6.0,-249.0,-73.0,-6.0,69.0,-7.0,-57.0,-955.0,-216.0
-10.0,-247.0,-70.0,-5.0,69.0,-6.0,-54.0,-951.0,-218.0
-9.0,-246.0,-70.0,-5.0,70.0,-4.0,-50.0,-949.0,-218.0
-7.0,-246.0,-74.0,-7.0,72.0,-3.0,-48.0,-953.0,-217.0
-4.0,-248.0,-70.0,-8.0,70.0,-4.0,-55.0,-950.0,-218.0
-8.0,-246.0,-72.0,-9.0,71.0,-4.0,-53.0,-954.0,-219.0
-9.0,-249.0,-72.0,-10.0,72.0,-4.0,-57.0,-955.0,-220.0
-8.0,-249.0,-73.0,-12.0,72.0,-6.0,-55.0,-954.0,-209.0
-9.0,-249.0,-70.0,-15.0,70.0,-5.0,-57.0,-954.0,-213.0
-9.0,-249.0,-69.0,-16.0,69.0,-6.0,-57.0,-952.0,-214.0
-10.0,-248.0,-69.0,-16.0,68.0,-6.0,-61.0,-956.0,-213.0
-9.0,-249.0,-72.0,-13.0,68.0,-5.0,-59.0,-965.0,-217.0
-7.0,-251.0,-72.0,-11.0,67.0,-5.0,-58.0,-962.0,-218.0
-5.0,-249.0,-69.0,-9.0,67.0,-5.0,-58.0,-956.0,-218.0
-7.0,-249.0,-70.0,-6.0,68.0,-4.0,-57.0,-958.0,-217.0
-7.0,-248.0,-65.0,-8.0,67.0,-4.0,-55.0,-952.0,-219.0
-6.0,-249.0,-69.0,-10.0,67.0,-4.0,-58.0,-955.0,-222.0
-9.0,-249.0,-72.0,-12.0,66.0,-5.0,-51.0,-957.0,-216.0
-7.0,-247.0,-70.0,-12.0,68.0,-5.0,-52.0,-960.0,-216.0
-6.0,-247.0,-71.0,-12.0,68.0,-5.0,-51.0,-956.0,-216.0
-7.0,-249.0,-72.0,-13.0,68.0,-4.0,-51.0,-957.0,-219.0
-7.0,-246.0,-69.0,-12.0,70.0,-5.0,-47.0,-959.0,-214.0
-8.0,-249.0,-73.0,-9.0,69.0,-5.0,-50.0,-962.0,-214.0
-7.0,-248.0,-69.0,-8.0,70.0,-7.0,-55.0,-958.0,-218.0
-7.0,-251.0,-72.0,-7.0,71.0,-4.0,-47.0,-960.0,-221.0
-5.0,-250.0,-69.0,-7.0,70.0,-7.0,-53.0,-952.0,-218.0
-7.0,-249.0,-70.0,-8.0,70.0,-6.0,-55.0,-954.0,-217.0
-8.0,-246.0,-70.0,-7.0,70.0,-9.0,-54.0,-960.0,-220.0
-8.0,-248.0,-73.0,-7.0,71.0,-7.0,-56.0,-952.0,-215.0
-10.0,-249.0,-71.0,-6.0,71.0,-8.0,-61.0,-950.0,-215.0
-10.0,-243.0,-69.0,-5.0,70.0,-4.0,-55.0,-952.0,-212.0
-9.0,-247.0,-70.0,-6.0,70.0,-7.0,-59.0,-956.0,-207.0
-7.0,-246.0,-73.0,-7.0,71.0,-4.0,-60.0,-951.0,-210.0
-8.0,-247.0,-70.0,-9.0,71.0,-6.0,-61.0,-953.0,-219.0
-9.0,-248.0,-73.0,-9.0,70.0,-4.0,-55.0,-961.0,-215.0
-9.0,-246.0,-72.0,-8.0,71.0,-7.0,-52.0,-954.0,-217.0
-6.0,-250.0,-70.0,-8.0,71.0,-4.0,-53.0,-956.0,-216.0
-6.0,-248.0,-71.0,-9.0,70.0,-7.0,-47.0,-953.0,-222.0
-6.0,-246.0,-70.0,-12.0,70.0,-4.0,-49.0,-952.0,-217.0
-7.0,-248.0,-72.0,-13.0,71.0,-6.0,-52.0,-954.0,-220.0
-7.0,-249.0,-70.0,-15.0,70.0,-4.0,-56.0,-958.0,-221.0
-3.0,-244.0,-72.0,-15.0,69.0,-8.0,-56.0,-955.0,-215.0
-8.0,-249.0,-68.0,-13.0,65.0,-5.0,-55.0,-963.0,-220.0
-7.0,-248.0,-72.0,-12.0,67.0,-7.0,-54.0,-964.0,-213.0
-8.0,-250.0,-66.0,-11.0,68.0,-4.0,-59.0,-962.0,-216.0
-8.0,-247.0,-65.0,-7.0,68.0,-4.0,-60.0,-957.0,-210.0
-9.0,-252.0,-68.0,-3.0,68.0,-1.0,-59.0,-958.0,-211.0
-8.0,-250.0,-68.0,-3.0,67.0,-3.0,-60.0,-955.0,-212.0
-6.0,-246.0,-68.0,-1.0,67.0,-2.0,-53.0,-955.0,-211.0
-10.0,-245.0,-72.0,-1.0,67.0,-4.0,-55.0,-955.0,-215.0
-6.0,-248.0,-69.0,-2.0,67.0,-3.0,-57.0,-953.0,-210.0
-11.0,-248.0,-69.0,-3.0,66.0,-4.0,-57.0,-953.0,-213.0
-9.0,-248.0,-68.0,-5.0,67.0,-4.0,-61.0,-955.0,-214.0
-8.0,-247.0,-69.0,-4.0,66.0,-6.0,-58.0,-956.0,-208.0
-6.0,-251.0,-69.0,-4.0,66.0,-4.0,-54.0,-955.0,-210.0
-10.0,-248.0,-69.0,-4.0,67.0,-4.0,-55.0,-954.0,-215.0
-8.0,-251.0,-72.0,-3.0,64.0,-3.0,-52.0,-953.0,-211.0
-7.0,-247.0,-70.0,-4.0,63.0,-6.0,-56.0,-957.0,-210.0
-8.0,-249.0,-71.0,-4.0,63.0,-5.0,-52.0,-957.0,-215.0
-10.0,-246.0,-69.0,-6.0,63.0,-5.0,-55.0,-952.0,-215.0
-9.0,-248.0,-72.0,-8.0,62.0,-4.0,-55.0,-954.0,-216.0
-9.0,-249.0,-66.0,-10.0,64.0,-6.0,-54.0,-958.0,-213.0
-8.0,-248.0,-70.0,-11.0,64.0,-5.0,-56.0,-964.0,-215.0
1.0,-244.0,-69.0,-10.0,64.0,-3.0,-52.0,-960.0,-216.0
-7.0,-251.0,-67.0,-8.0,66.0,-5.0,-49.0,-957.0,-212.0
-5.0,-249.0,-70.0,-8.0,63.0,-5.0,-53.0,-960.0,-216.0
-9.0,-247.0,-69.0,-7.0,64.0,-7.0,-51.0,-955.0,-204.0
-6.0,-247.0,-69.0,-6.0,62.0,-5.0,-54.0,-963.0,-205.0
-7.0,-248.0,-65.0,-6.0,62.0,-7.0,-55.0,-952.0,-207.0
-9.0,-248.0,-70.0,-4.0,61.0,-7.0,-55.0,-952.0,-209.0
-8.0,-246.0,-73.0,-6.0,60.0,-7.0,-52.0,-947.0,-212.0
-8.0,-246.0,-70.0,-10.0,60.0,-6.0,-55.0,-948.0,-210.0
-10.0,-247.0,-71.0,-13.0,59.0,-7.0,-57.0,-952.0,-214.0
-7.0,-246.0,-68.0,-15.0,61.0,-5.0,-58.0,-952.0,-208.0
-9.0,-248.0,-70.0,-20.0,61.0,-6.0,-61.0,-954.0,-211.0
-6.0,-248.0,-71.0,-20.0,61.0,-4.0,-54.0,-957.0,-214.0
-7.0,-248.0,-69.0,-22.0,61.0,-7.0,-57.0,-959.0,-205.0
-8.0,-250.0,-69.0,-20.0,59.0,-6.0,-56.0,-963.0,-210.0
-6.0,-248.0,-70.0,-19.0,58.0,-9.0,-59.0,-964.0,-207.0
-9.0,-249.0,-71.0,-15.0,59.0,-6.0,-59.0,-965.0,-215.0
-8.0,-248.0,-67.0,-13.0,60.0,-7.0,-59.0,-959.0,-222.0
-7.0,-249.0,-67.0,-11.0,60.0,-5.0,-56.0,-958.0,-215.0
-8.0,-247.0,-72.0,-10.0,61.0,-8.0,-57.0,-952.0,-219.0
-8.0,-249.0,-67.0,-10.0,60.0,-6.0,-54.0,-957.0,-215.0
-8.0,-252.0,-71.0,-10.0,59.0,-6.0,-48.0,-956.0,-214.0
-7.0,-249.0,-66.0,-10.0,61.0,-3.0,-52.0,-956.0,-211.0
-7.0,-248.0,-68.0,-11.0,61.0,-6.0,-51.0,-954.0,-213.0
-6.0,-248.0,-69.0,-13.0,59.0,-3.0,-48.0,-958.0,-212.0
-4.0,-252.0,-69.0,-12.0,60.0,-5.0,-50.0,-964.0,-213.0
-7.0,-250.0,-71.0,-13.0,60.0,-3.0,-51.0,-962.0,-210.0
-5.0,-251.0,-69.0,-12.0,60.0,-5.0,-54.0,-958.0,-208.0
-6.0,-247.0,-70.0,-11.0,61.0,-2.0,-55.0,-962.0,-206.0
-7.0,-253.0,-72.0,-10.0,60.0,-5.0,-54.0,-957.0,-212.0
-9.0,-250.0,-67.0,-11.0,61.0,-3.0,-60.0,-959.0,-210.0
-7.0,-247.0,-70.0,-10.0,60.0,-6.0,-52.0,-964.0,-210.0
-9.0,-247.0,-64.0,-9.0,60.0,-4.0,-53.0,-955.0,-208.0
-9.0,-247.0,-68.0,-9.0,62.0,-5.0,-55.0,-954.0,-212.0
-9.0,-247.0,-71.0,-8.0,62.0,-4.0,-55.0,-949.0,-205.0
-5.0,-248.0,-67.0,-11.0,62.0,-6.0,-52.0,-951.0,-208.0
-8.0,-248.0,-66.0,-12.0,62.0,-4.0,-54.0,-951.0,-206.0
-7.0,-246.0,-69.0,-13.0,63.0,-4.0,-56.0,-960.0,-205.0
-8.0,-251.0,-67.0,-14.0,61.0,-1.0,-55.0,-964.0,-210.0
-8.0,-250.0,-67.0,-13.0,58.0,-3.0,-56.0,-955.0,-211.0
-10.0,-247.0,-73.0,-15.0,58.0,-2.0,-59.0,-962.0,-216.0
-7.0,-250.0,-66.0,-14.0,58.0,-3.0,-55.0,-966.0,-210.0
-8.0,-249.0,-71.0,-10.0,59.0,-2.0,-50.0,-955.0,-211.0
-10.0,-248.0,-67.0,-8.0,61.0,-4.0,-58.0,-963.0,-213.0
-4.0,-250.0,-70.0,-6.0,60.0,-5.0,-55.0,-961.0,-213.0
-7.0,-249.0,-69.0,-6.0,60.0,-4.0,-57.0,-957.0,-210.0
-7.0,-247.0,-64.0,-8.0,61.0,-3.0,-54.0,-953.0,-210.0
-6.0,-247.0,-71.0,-10.0,62.0,-4.0,-56.0,-952.0,-212.0
-9.0,-249.0,-69.0,-11.0,61.0,-3.0,-54.0,-958.0,-210.0
-5.0,-250.0,-66.0,-12.0,60.0,-4.0,-55.0,-962.0,-211.0
-9.0,-247.0,-69.0,-12.0,60.0,-3.0,-50.0,-959.0,-206.0
-6.0,-250.0,-66.0,-10.0,59.0,-6.0,-48.0,-960.0,-206.0
-7.0,-248.0,-65.0,-8.0,60.0,-6.0,-57.0,-958.0,-210.0
-8.0,-246.0,-68.0,-6.0,62.0,-6.0,-59.0,-953.0,-208.0
-9.0,-250.0,-67.0,-6.0,61.0,-7.0,-57.0,-954.0,-203.0
-9.0,-248.0,-68.0,-9.0,60.0,-5.0,-58.0,-955.0,-209.0
-6.0,-247.0,-66.0,-10.0,61.0,-5.0,-54.0,-954.0,-211.0
-9.0,-245.0,-65.0,-10.0,63.0,-4.0,-56.0,-952.0,-211.0
-8.0,-248.0,-71.0,-11.0,63.0,-4.0,-54.0,-949.0,-212.0
-5.0,-248.0,-70.0,-11.0,64.0,-3.0,-55.0,-954.0,-211.0
-6.0,-248.0,-69.0,-11.0,65.0,-3.0,-48.0,-951.0,-211.0
-6.0,-248.0,-69.0,-12.0,67.0,-4.0,-49.0,-953.0,-211.0
-6.0,-247.0,-66.0,-14.0,69.0,-3.0,-49.0,-954.0,-206.0
-6.0,-248.0,-68.0,-16.0,69.0,-4.0,-55.0,-960.0,-207.0
-5.0,-251.0,-70.0,-16.0,69.0,-5.0,-52.0,-964.0,-206.0
-4.0,-241.0,-70.0,-16.0,68.0,-5.0,-58.0,-965.0,-210.0
-7.0,-249.0,-70.0,-15.0,68.0,-5.0,-55.0,-963.0,-212.0
-7.0,-250.0,-70.0,-13.0,68.0,-4.0,-53.0,-959.0,-210.0
-9.0,-250.0,-72.0,-11.0,69.0,-6.0,-57.0,-963.0,-211.0
-7.0,-251.0,-68.0,-9.0,70.0,-3.0,-57.0,-957.0,-213.0
-8.0,-247.0,-68.0,-7.0,69.0,-6.0,-54.0,-957.0,-205.0
-7.0,-248.0,-69.0,-9.0,68.0,-4.0,-58.0,-956.0,-208.0
-10.0,-248.0,-67.0,-11.0,68.0,-5.0,-53.0,-959.0,-209.0
-9.0,-246.0,-67.0,-12.0,68.0,-3.0,-58.0,-955.0,-206.0
-4.0,-249.0,-64.0,-12.0,68.0,-4.0,-54.0,-954.0,-207.0
-8.0,-248.0,-66.0,-11.0,67.0,-3.0,-55.0,-955.0,-206.0
-7.0,-248.0,-72.0,-10.0,66.0,-4.0,-53.0,-957.0,-210.0
-9.0,-247.0,-70.0,-9.0,68.0,-2.0,-56.0,-953.0,-209.0
-5.0,-248.0,-65.0,-10.0,70.0,-4.0,-57.0,-956.0,-211.0
-7.0,-245.0,-72.0,-10.0,70.0,-1.0,-53.0,-952.0,-208.0
-8.0,-248.0,-71.0,-14.0,70.0,-5.0,-54.0,-953.0,-213.0
-8.0,-251.0,-70.0,-15.0,69.0,-2.0,-53.0,-958.0,-214.0
-9.0,-249.0,-71.0,-17.0,67.0,-3.0,-50.0,-961.0,-206.0
-10.0,-249.0,-75.0,-17.0,68.0,-2.0,-52.0,-957.0,-207.0
-8.0,-248.0,-71.0,-17.0,71.0,-6.0,-59.0,-962.0,-204.0
-7.0,-247.0,-69.0,-14.0,71.0,-4.0,-53.0,-952.0,-211.0
-8.0,-250.0,-69.0,-14.0,70.0,-6.0,-52.0,-959.0,-211.0
-8.0,-249.0,-70.0,-14.0,69.0,-5.0,-53.0,-960.0,-208.0
-7.0,-251.0,-68.0,-15.0,69.0,-7.0,-53.0,-962.0,-209.0
-10.0,-248.0,-68.0,-15.0,69.0,-4.0,-57.0,-958.0,-207.0
-9.0,-247.0,-72.0,-14.0,68.0,-4.0,-55.0,-955.0,-207.0
-7.0,-251.0,-64.0,-14.0,67.0,-3.0,-60.0,-958.0,-209.0
-9.0,-248.0,-71.0,-11.0,67.0,-4.0,-56.0,-957.0,-209.0
-7.0,-249.0,-69.0,-11.0,67.0,-1.0,-54.0,-956.0,-210.0
-5.0,-251.0,-70.0,-11.0,67.0,-3.0,-52.0,-956.0,-206.0
-8.0,-247.0,-67.0,-12.0,68.0,-1.0,-51.0,-958.0,-209.0
-6.0,-250.0,-68.0,-14.0,68.0,-3.0,-55.0,-961.0,-210.0
-5.0,-252.0,-69.0,-14.0,68.0,-2.0,-50.0,-957.0,-211.0
-9.0,-247.0,-70.0,-13.0,67.0,-4.0,-51.0,-960.0,-213.0
-7.0,-248.0,-71.0,-13.0,68.0,-3.0,-53.0,-952.0,-211.0
-9.0,-248.0,-71.0,-15.0,68.0,-3.0,-55.0,-954.0,-211.0
-6.0,-248.0,-68.0,-16.0,68.0,-3.0,-53.0,-956.0,-214.0
-7.0,-248.0,-68.0,-17.0,69.0,-4.0,-51.0,-951.0,-211.0
-6.0,-249.0,-67.0,-18.0,67.0,-3.0,-49.0,-953.0,-210.0
-8.0,-248.0,-68.0,-19.0,69.0,-3.0,-52.0,-960.0,-206.0
-4.0,-250.0,-68.0,-18.0,68.0,-2.0,-51.0,-957.0,-213.0
-6.0,-245.0,-69.0,-18.0,68.0,-3.0,-57.0,-963.0,-213.0
-8.0,-248.0,-71.0,-17.0,68.0,-5.0,-54.0,-959.0,-214.0
-7.0,-250.0,-72.0,-16.0,68.0,-5.0,-54.0,-957.0,-211.0
-10.0,-250.0,-64.0,-16.0,67.0,-5.0,-56.0,-955.0,-216.0
-11.0,-247.0,-69.0,-16.0,65.0,-4.0,-56.0,-953.0,-213.0
-4.0,-253.0,-69.0,-19.0,63.0,-5.0,-60.0,-958.0,-215.0
-10.0,-247.0,-70.0,-20.0,63.0,-5.0,-61.0,-963.0,-215.0
-11.0,-247.0,-71.0,-20.0,64.0,-6.0,-60.0,-956.0,-212.0
-10.0,-249.0,-70.0,-17.0,63.0,-5.0,-63.0,-964.0,-213.0
-9.0,-252.0,-67.0,-16.0,61.0,-5.0,-58.0,-967.0,-211.0
-6.0,-251.0,-67.0,-13.0,61.0,-3.0,-53.0,-964.0,-212.0
-7.0,-250.0,-71.0,-11.0,60.0,-2.0,-56.0,-961.0,-212.0
-7.0,-248.0,-71.0,-8.0,59.0,-3.0,-58.0,-961.0,-213.0
-9.0,-249.0,-69.0,-8.0,61.0,-3.0,-56.0,-956.0,-206.0
-7.0,-249.0,-70.0,-7.0,60.0,-2.0,-51.0,-955.0,-209.0
-8.0,-248.0,-67.0,-8.0,62.0,-4.0,-53.0,-954.0,-209.0
-9.0,-245.0,-70.0,-9.0,63.0,-2.0,-52.0,-955.0,-209.0
-4.0,-247.0,-70.0,-11.0,61.0,-3.0,-49.0,-951.0,-210.0
-7.0,-246.0,-66.0,-13.0,62.0,-1.0,-52.0,-954.0,-209.0
-6.0,-247.0,-69.0,-15.0,61.0,-3.0,-46.0,-955.0,-210.0
-4.0,-245.0,-67.0,-16.0,62.0,-3.0,-46.0,-956.0,-207.0
-6.0,-248.0,-66.0,-17.0,62.0,-4.0,-53.0,-956.0,-211.0
-7.0,-251.0,-69.0,-16.0,63.0,-4.0,-47.0,-954.0,-209.0
-6.0,-247.0,-69.0,-18.0,64.0,-6.0,-55.0,-955.0,-213.0
-8.0,-246.0,-67.0,-19.0,66.0,-2.0,-52.0,-955.0,-214.0
-6.0,-246.0,-69.0,-21.0,67.0,-5.0,-51.0,-957.0,-209.0
-7.0,-248.0,-69.0,-22.0,68.0,-4.0,-53.0,-955.0,-207.0
-9.0,-249.0,-67.0,-21.0,69.0,-6.0,-55.0,-954.0,-206.0
-9.0,-250.0,-67.0,-21.0,71.0,-3.0,-53.0,-959.0,-201.0
-8.0,-247.0,-67.0,-19.0,70.0,-6.0,-56.0,-955.0,-208.0
-7.0,-249.0,-66.0,-17.0,73.0,-5.0,-56.0,-957.0,-209.0
-9.0,-248.0,-70.0,-16.0,71.0,-8.0,-52.0,-956.0,-212.0
-9.0,-248.0,-69.0,-16.0,70.0,-5.0,-53.0,-957.0,-212.0
-11.0,-246.0,-69.0,-18.0,70.0,-8.0,-52.0,-953.0,-210.0
-6.0,-247.0,-71.0,-19.0,71.0,-5.0,-48.0,-950.0,-214.0
-6.0,-247.0,-68.0,-23.0,72.0,-6.0,-52.0,-955.0,-215.0
-4.0,-250.0,-66.0,-26.0,72.0,-3.0,-53.0,-953.0,-215.0
-9.0,-247.0,-73.0,-29.0,72.0,-5.0,-47.0,-955.0,-216.0
-5.0,-252.0,-72.0,-29.0,71.0,-4.0,-57.0,-952.0,-212.0
-7.0,-250.0,-67.0,-29.0,71.0,-4.0,-54.0,-961.0,-209.0
-7.0,-251.0,-64.0,-26.0,71.0,-3.0,-55.0,-960.0,-209.0
-11.0,-247.0,-70.0,-22.0,70.0,-4.0,-54.0,-957.0,-209.0
-6.0,-249.0,-71.0,-20.0,71.0,-3.0,-59.0,-961.0,-210.0
-11.0,-248.0,-69.0,-20.0,71.0,-3.0,-56.0,-960.0,-212.0
-9.0,-246.0,-66.0,-18.0,70.0,-2.0,-59.0,-956.0,-213.0
-8.0,-249.0,-65.0,-18.0,70.0,-4.0,-54.0,-958.0,-200.0
-9.0,-246.0,-68.0,-17.0,71.0,-3.0,-57.0,-957.0,-206.0
-8.0,-248.0,-70.0,-16.0,70.0,-4.0,-57.0,-957.0,-212.0
-7.0,-248.0,-69.0,-15.0,71.0,-5.0,-55.0,-952.0,-209.0
-9.0,-247.0,-70.0,-17.0,70.0,-5.0,-52.0,-956.0,-210.0
-8.0,-249.0,-69.0,-16.0,70.0,-4.0,-60.0,-955.0,-214.0
-8.0,-250.0,-67.0,-16.0,68.0,-4.0,-52.0,-956.0,-212.0
-9.0,-248.0,-68.0,-17.0,69.0,-2.0,-54.0,-961.0,-211.0
-5.0,-248.0,-72.0,-17.0,68.0,-2.0,-54.0,-954.0,-211.0
-11.0,-247.0,-73.0,-17.0,68.0,-3.0,-56.0,-957.0,-214.0
-7.0,-250.0,-68.0,-15.0,65.0,-3.0,-55.0,-956.0,-212.0
-7.0,-248.0,-66.0,-17.0,66.0,-2.0,-58.0,-959.0,-212.0
-8.0,-248.0,-71.0,-15.0,65.0,-3.0,-54.0,-965.0,-215.0
-7.0,-248.0,-70.0,-15.0,64.0,-2.0,-60.0,-958.0,-208.0
-5.0,-247.0,-67.0,-16.0,64.0,-2.0,-52.0,-958.0,-209.0
-7.0,-249.0,-66.0,-16.0,64.0,-4.0,-54.0,-956.0,-208.0
-10.0,-247.0,-66.0,-15.0,65.0,-3.0,-51.0,-959.0,-206.0
-8.0,-247.0,-69.0,-14.0,64.0,-5.0,-54.0,-958.0,-207.0
-6.0,-250.0,-69.0,-14.0,62.0,-5.0,-48.0,-956.0,-209.0
-7.0,-249.0,-68.0,-13.0,64.0,-4.0,-51.0,-957.0,-208.0
-6.0,-246.0,-66.0,-11.0,64.0,-4.0,-45.0,-957.0,-210.0
-8.0,-247.0,-67.0,-12.0,64.0,-5.0,-52.0,-950.0,-209.0
-7.0,-247.0,-68.0,-13.0,64.0,-3.0,-53.0,-955.0,-208.0
-5.0,-250.0,-72.0,-15.0,63.0,-6.0,-53.0,-957.0,-210.0
-6.0,-249.0,-67.0,-15.0,63.0,-4.0,-54.0,-956.0,-208.0
-9.0,-250.0,-72.0,-17.0,61.0,-5.0,-58.0,-955.0,-209.0
-9.0,-247.0,-71.0,-19.0,61.0,-3.0,-56.0,-955.0,-210.0
-9.0,-246.0,-70.0,-21.0,61.0,-6.0,-60.0,-956.0,-211.0
-8.0,-248.0,-71.0,-20.0,60.0,-4.0,-59.0,-960.0,-211.0
-9.0,-248.0,-66.0,-18.0,61.0,-6.0,-60.0,-959.0,-212.0
-10.0,-247.0,-69.0,-17.0,60.0,-4.0,-65.0,-963.0,-205.0
-8.0,-248.0,-69.0,-16.0,59.0,-7.0,-62.0,-961.0,-203.0
-10.0,-247.0,-67.0,-14.0,58.0,-5.0,-56.0,-954.0,-209.0
-9.0,-249.0,-66.0,-15.0,56.0,-6.0,-57.0,-956.0,-207.0
-8.0,-250.0,-69.0,-16.0,57.0,-3.0,-58.0,-956.0,-207.0
-7.0,-248.0,-70.0,-16.0,58.0,-5.0,-49.0,-955.0,-213.0
-6.0,-248.0,-72.0,-17.0,57.0,-3.0,-50.0,-957.0,-212.0
-4.0,-248.0,-69.0,-17.0,55.0,-4.0,-51.0,-953.0,-216.0
-8.0,-248.0,-70.0,-18.0,58.0,-2.0,-49.0,-955.0,-213.0
-7.0,-250.0,-71.0,-19.0,58.0,-5.0,-51.0,-961.0,-211.0
-4.0,-249.0,-69.0,-19.0,58.0,-2.0,-40.0,-955.0,-218.0
-6.0,-246.0,-72.0,-18.0,60.0,-3.0,-47.0,-956.0,-212.0
-5.0,-250.0,-67.0,-19.0,59.0,-3.0,-44.0,-958.0,-210.0
-6.0,-248.0,-71.0,-21.0,60.0,-6.0,-45.0,-961.0,-212.0
-8.0,-249.0,-67.0,-22.0,62.0,-4.0,-48.0,-957.0,-214.0
-11.0,-246.0,-75.0,-20.0,62.0,-6.0,-52.0,-956.0,-211.0
-7.0,-246.0,-69.0,-19.0,64.0,-4.0,-50.0,-957.0,-213.0
-6.0,-248.0,-69.0,-22.0,66.0,-5.0,-57.0,-954.0,-213.0
-6.0,-250.0,-69.0,-21.0,66.0,-4.0,-51.0,-958.0,-211.0
-5.0,-249.0,-66.0,-21.0,65.0,-7.0,-54.0,-958.0,-211.0
-7.0,-250.0,-70.0,-22.0,66.0,-6.0,-52.0,-952.0,-215.0
-7.0,-247.0,-69.0,-20.0,66.0,-6.0,-52.0,-958.0,-213.0
-8.0,-247.0,-70.0,-20.0,67.0,-6.0,-56.0,-961.0,-214.0
-7.0,-250.0,-69.0,-21.0,67.0,-6.0,-53.0,-961.0,-215.0
-9.0,-248.0,-69.0,-19.0,65.0,-2.0,-59.0,-953.0,-213.0
-8.0,-251.0,-67.0,-16.0,65.0,-4.0,-60.0,-955.0,-209.0
-8.0,-247.0,-71.0,-16.0,66.0,-3.0,-55.0,-952.0,-216.0
-6.0,-249.0,-69.0,-15.0,64.0,-5.0,-58.0,-961.0,-211.0
-7.0,-247.0,-70.0,-16.0,66.0,-3.0,-53.0,-960.0,-211.0
-8.0,-249.0,-68.0,-16.0,66.0,-4.0,-50.0,-962.0,-208.0
-8.0,-249.0,-71.0,-17.0,66.0,-3.0,-50.0,-957.0,-208.0
-6.0,-250.0,-69.0,-18.0,64.0,-4.0,-52.0,-957.0,-206.0
-5.0,-250.0,-69.0,-16.0,63.0,-3.0,-51.0,-962.0,-207.0
-6.0,-249.0,-70.0,-15.0,61.0,-3.0,-53.0,-959.0,-211.0
-8.0,-245.0,-74.0,-16.0,62.0,-3.0,-49.0,-956.0,-215.0
-4.0,-246.0,-70.0,-13.0,63.0,-5.0,-57.0,-953.0,-212.0
-8.0,-246.0,-67.0,-15.0,65.0,-3.0,-51.0,-953.0,-210.0
-8.0,-246.0,-67.0,-17.0,65.0,-4.0,-54.0,-953.0,-208.0
-8.0,-248.0,-72.0,-19.0,65.0,-6.0,-56.0,-953.0,-214.0
-6.0,-248.0,-71.0,-22.0,65.0,-7.0,-50.0,-954.0,-210.0
-10.0,-245.0,-70.0,-23.0,65.0,-6.0,-56.0,-954.0,-211.0
-10.0,-249.0,-69.0,-24.0,63.0,-6.0,-51.0,-954.0,-210.0
-7.0,-248.0,-69.0,-23.0,65.0,-6.0,-56.0,-956.0,-215.0
-7.0,-248.0,-70.0,-22.0,65.0,-4.0,-60.0,-955.0,-213.0
-10.0,-247.0,-72.0,-22.0,65.0,-5.0,-56.0,-956.0,-209.0
-10.0,-250.0,-67.0,-21.0,64.0,-4.0,-58.0,-960.0,-213.0
-8.0,-247.0,-70.0,-22.0,62.0,-7.0,-60.0,-962.0,-212.0
-8.0,-249.0,-65.0,-22.0,61.0,-6.0,-59.0,-958.0,-212.0
-6.0,-250.0,-68.0,-22.0,59.0,-6.0,-57.0,-963.0,-211.0
-8.0,-251.0,-72.0,-20.0,59.0,-5.0,-57.0,-963.0,-208.0
-10.0,-247.0,-71.0,-20.0,59.0,-5.0,-54.0,-960.0,-211.0
-9.0,-250.0,-68.0,-16.0,59.0,-5.0,-49.0,-957.0,-211.0
-8.0,-248.0,-69.0,-14.0,59.0,-6.0,-51.0,-959.0,-214.0
-6.0,-249.0,-72.0,-11.0,60.0,-5.0,-51.0,-954.0,-211.0
-7.0,-246.0,-71.0,-8.0,60.0,-6.0,-42.0,-955.0,-214.0
-6.0,-249.0,-69.0,-9.0,61.0,-4.0,-44.0,-953.0,-210.0
-6.0,-246.0,-64.0,-11.0,62.0,-6.0,-50.0,-955.0,-214.0
-7.0,-246.0,-69.0,-13.0,62.0,-3.0,-45.0,-954.0,-211.0
-4.0,-249.0,-68.0,-15.0,64.0,-6.0,-49.0,-955.0,-211.0
-5.0,-248.0,-69.0,-16.0,65.0,-4.0,-49.0,-952.0,-211.0
-6.0,-248.0,-72.0,-18.0,64.0,-7.0,-52.0,-956.0,-207.0
-6.0,-247.0,-70.0,-18.0,65.0,-5.0,-50.0,-956.0,-210.0
-6.0,-248.0,-67.0,-21.0,66.0,-7.0,-52.0,-955.0,-210.0
-7.0,-248.0,-68.0,-23.0,65.0,-4.0,-59.0,-952.0,-212.0
-8.0,-246.0,-69.0,-26.0,63.0,-6.0,-57.0,-952.0,-212.0
-9.0,-248.0,-68.0,-27.0,61.0,-3.0,-55.0,-952.0,-209.0
-8.0,-251.0,-65.0,-28.0,58.0,-5.0,-57.0,-961.0,-209.0
-8.0,-252.0,-68.0,-28.0,56.0,-4.0,-61.0,-960.0,-206.0
-10.0,-250.0,-72.0,-29.0,54.0,-5.0,-65.0,-967.0,-212.0
-10.0,-251.0,-69.0,-28.0,53.0,-1.0,-62.0,-965.0,-210.0
-10.0,-252.0,-68.0,-27.0,51.0,-1.0,-72.0,-966.0,-213.0
-12.0,-248.0,-74.0,-27.0,46.0,1.0,-73.0,-968.0,-220.0
-10.0,-251.0,-72.0,-33.0,38.0,0.0,-68.0,-965.0,-221.0
-12.0,-249.0,-71.0,-43.0,31.0,6.0,-71.0,-966.0,-221.0
-12.0,-254.0,-69.0,-49.0,21.0,6.0,-65.0,-973.0,-213.0
-11.0,-253.0,-67.0,-45.0,13.0,8.0,-72.0,-978.0,-214.0
-11.0,-256.0,-69.0,-29.0,7.0,5.0,-68.0,-974.0,-211.0
-10.0,-254.0,-68.0,-6.0,1.0,2.0,-68.0,-971.0,-219.0
-11.0,-247.0,-72.0,12.0,-3.0,-1.0,-73.0,-962.0,-227.0
-12.0,-248.0,-78.0,16.0,-9.0,0.0,-70.0,-951.0,-230.0
-10.0,-244.0,-74.0,8.0,-17.0,0.0,-72.0,-953.0,-233.0
-9.0,-248.0,-73.0,-5.0,-21.0,6.0,-67.0,-960.0,-228.0
-12.0,-251.0,-70.0,-14.0,-24.0,7.0,-61.0,-969.0,-228.0
-9.0,-254.0,-72.0,-11.0,-29.0,11.0,-64.0,-970.0,-226.0
-8.0,-251.0,-71.0,2.0,-34.0,8.0,-65.0,-976.0,-223.0
-10.0,-252.0,-72.0,24.0,-37.0,5.0,-53.0,-970.0,-224.0
-7.0,-247.0,-74.0,39.0,-43.0,1.0,-51.0,-950.0,-222.0
-6.0,-243.0,-72.0,46.0,-45.0,0.0,-49.0,-940.0,-221.0
-5.0,-241.0,-72.0,41.0,-44.0,0.0,-42.0,-935.0,-219.0
-5.0,-241.0,-70.0,27.0,-45.0,1.0,-46.0,-931.0,-213.0
-9.0,-242.0,-68.0,10.0,-45.0,2.0,-50.0,-939.0,-210.0
-9.0,-245.0,-67.0,-5.0,-51.0,2.0,-60.0,-947.0,-205.0
-12.0,-250.0,-67.0,-16.0,-58.0,3.0,-60.0,-961.0,-207.0
-11.0,-251.0,-71.0,-18.0,-63.0,4.0,-63.0,-965.0,-207.0
-7.0,-253.0,-67.0,-13.0,-72.0,7.0,-60.0,-967.0,-207.0
-10.0,-255.0,-67.0,-2.0,-80.0,10.0,-64.0,-970.0,-208.0
-10.0,-252.0,-70.0,8.0,-92.0,13.0,-72.0,-968.0,-211.0
-11.0,-250.0,-71.0,11.0,-102.0,14.0,-72.0,-958.0,-216.0
-10.0,-248.0,-71.0,11.0,-115.0,17.0,-71.0,-958.0,-220.0
-14.0,-246.0,-69.0,11.0,-124.0,19.0,-69.0,-953.0,-220.0
-12.0,-249.0,-76.0,7.0,-133.0,20.0,-78.0,-957.0,-220.0
-14.0,-244.0,-73.0,3.0,-142.0,21.0,-86.0,-948.0,-223.0
-17.0,-244.0,-71.0,2.0,-155.0,23.0,-94.0,-947.0,-224.0
-17.0,-248.0,-72.0,-1.0,-169.0,23.0,-99.0,-945.0,-225.0
-16.0,-245.0,-75.0,-4.0,-184.0,23.0,-97.0,-946.0,-227.0
-14.0,-246.0,-75.0,-6.0,-201.0,20.0,-101.0,-947.0,-225.0
-17.0,-246.0,-72.0,-7.0,-216.0,20.0,-98.0,-945.0,-225.0
-16.0,-244.0,-74.0,-6.0,-234.0,14.0,-101.0,-940.0,-236.0
-15.0,-242.0,-73.0,-8.0,-249.0,11.0,-83.0,-934.0,-237.0
-20.0,-241.0,-76.0,-11.0,-263.0,4.0,-96.0,-932.0,-233.0
-15.0,-242.0,-76.0,-15.0,-276.0,-1.0,-95.0,-934.0,-240.0
-16.0,-238.0,-77.0,-21.0,-289.0,-7.0,-97.0,-929.0,-234.0
-12.0,-243.0,-76.0,-31.0,-304.0,-9.0,-95.0,-935.0,-241.0
-15.0,-241.0,-78.0,-40.0,-317.0,-15.0,-87.0,-935.0,-242.0
-13.0,-242.0,-77.0,-47.0,-329.0,-18.0,-93.0,-940.0,-243.0
-18.0,-245.0,-74.0,-53.0,-342.0,-25.0,-99.0,-945.0,-238.0
-14.0,-245.0,-76.0,-55.0,-360.0,-27.0,-103.0,-945.0,-232.0
-18.0,-244.0,-75.0,-55.0,-378.0,-36.0,-103.0,-943.0,-242.0
-17.0,-245.0,-79.0,-59.0,-399.0,-37.0,-95.0,-944.0,-240.0
-22.0,-243.0,-78.0,-65.0,-412.0,-41.0,-103.0,-948.0,-246.0
-20.0,-245.0,-72.0,-69.0,-427.0,-42.0,-107.0,-943.0,-243.0
-20.0,-246.0,-78.0,-72.0,-444.0,-46.0,-111.0,-937.0,-242.0
-24.0,-241.0,-75.0,-73.0,-460.0,-46.0,-113.0,-939.0,-244.0
-26.0,-244.0,-80.0,-74.0,-481.0,-53.0,-118.0,-930.0,-245.0
-27.0,-239.0,-80.0,-75.0,-500.0,-56.0,-120.0,-923.0,-250.0
-24.0,-240.0,-81.0,-78.0,-520.0,-62.0,-116.0,-927.0,-256.0
-25.0,-238.0,-76.0,-81.0,-540.0,-64.0,-124.0,-917.0,-256.0
-25.0,-239.0,-80.0,-90.0,-559.0,-71.0,-128.0,-914.0,-263.0
-25.0,-237.0,-83.0,-97.0,-580.0,-77.0,-126.0,-917.0,-267.0
-26.0,-239.0,-86.0,-109.0,-602.0,-84.0,-133.0,-922.0,-266.0
-30.0,-242.0,-79.0,-119.0,-621.0,-90.0,-146.0,-921.0,-261.0
-31.0,-241.0,-76.0,-128.0,-640.0,-98.0,-152.0,-929.0,-251.0
-32.0,-243.0,-78.0,-136.0,-663.0,-101.0,-152.0,-926.0,-251.0
-29.0,-242.0,-74.0,-146.0,-682.0,-106.0,-146.0,-934.0,-244.0
-29.0,-243.0,-75.0,-148.0,-694.0,-108.0,-140.0,-937.0,-226.0
-26.0,-246.0,-74.0,-146.0,-704.0,-111.0,-129.0,-942.0,-222.0
-22.0,-244.0,-74.0,-138.0,-715.0,-112.0,-118.0,-939.0,-224.0
-22.0,-246.0,-72.0,-127.0,-727.0,-118.0,-117.0,-938.0,-222.0
-21.0,-242.0,-75.0,-116.0,-741.0,-121.0,-114.0,-925.0,-223.0
-20.0,-239.0,-76.0,-108.0,-757.0,-132.0,-107.0,-918.0,-226.0
-20.0,-236.0,-71.0,-110.0,-774.0,-140.0,-101.0,-905.0,-240.0
-20.0,-234.0,-75.0,-121.0,-780.0,-148.0,-101.0,-905.0,-243.0
-20.0,-233.0,-75.0,-138.0,-788.0,-156.0,-97.0,-900.0,-247.0
-17.0,-233.0,-80.0,-159.0,-793.0,-163.0,-98.0,-905.0,-246.0
-17.0,-237.0,-75.0,-181.0,-798.0,-168.0,-104.0,-912.0,-250.0
-18.0,-240.0,-82.0,-201.0,-802.0,-171.0,-105.0,-915.0,-256.0
-20.0,-234.0,-82.0,-214.0,-807.0,-171.0,-104.0,-930.0,-257.0
-20.0,-241.0,-81.0,-223.0,-814.0,-172.0,-108.0,-944.0,-264.0
-23.0,-242.0,-83.0,-230.0,-822.0,-171.0,-115.0,-945.0,-261.0
-22.0,-246.0,-86.0,-235.0,-833.0,-172.0,-127.0,-948.0,-271.0
-28.0,-246.0,-83.0,-237.0,-846.0,-171.0,-128.0,-949.0,-271.0
-31.0,-243.0,-85.0,-242.0,-866.0,-166.0,-136.0,-949.0,-273.0
-33.0,-244.0,-86.0,-247.0,-882.0,-162.0,-145.0,-948.0,-268.0
-33.0,-244.0,-84.0,-249.0,-898.0,-154.0,-154.0,-945.0,-268.0
-36.0,-246.0,-83.0,-249.0,-912.0,-150.0,-165.0,-948.0,-272.0
-36.0,-243.0,-85.0,-248.0,-924.0,-144.0,-167.0,-940.0,-279.0
-34.0,-243.0,-85.0,-246.0,-934.0,-140.0,-165.0,-940.0,-285.0
-32.0,-244.0,-87.0,-251.0,-944.0,-136.0,-166.0,-945.0,-290.0
-35.0,-245.0,-90.0,-255.0,-950.0,-136.0,-163.0,-932.0,-290.0
-35.0,-244.0,-90.0,-258.0,-957.0,-134.0,-166.0,-932.0,-290.0
-36.0,-244.0,-89.0,-259.0,-963.0,-137.0,-165.0,-939.0,-291.0
-36.0,-245.0,-89.0,-257.0,-966.0,-136.0,-167.0,-937.0,-290.0
-37.0,-244.0,-87.0,-253.0,-973.0,-140.0,-172.0,-933.0,-293.0
-40.0,-241.0,-90.0,-248.0,-978.0,-137.0,-172.0,-934.0,-295.0
-37.0,-242.0,-90.0,-244.0,-981.0,-140.0,-172.0,-938.0,-301.0
-34.0,-244.0,-90.0,-242.0,-982.0,-137.0,-166.0,-930.0,-311.0
-34.0,-242.0,-100.0,-240.0,-982.0,-139.0,-157.0,-938.0,-316.0
-32.0,-245.0,-87.0,-241.0,-979.0,-137.0,-146.0,-939.0,-309.0
-22.0,-241.0,-90.0,-241.0,-975.0,-137.0,-149.0,-946.0,-303.0
-29.0,-246.0,-88.0,-245.0,-971.0,-134.0,-143.0,-948.0,-296.0
-29.0,-247.0,-86.0,-247.0,-962.0,-134.0,-142.0,-957.0,-288.0
-26.0,-249.0,-87.0,-249.0,-953.0,-130.0,-132.0,-966.0,-272.0
-18.0,-256.0,-83.0,-250.0,-943.0,-129.0,-117.0,-974.0,-270.0
-16.0,-253.0,-82.0,-246.0,-928.0,-123.0,-99.0,-987.0,-257.0
-12.0,-259.0,-82.0,-233.0,-910.0,-118.0,-90.0,-990.0,-244.0
-10.0,-259.0,-80.0,-215.0,-891.0,-111.0,-62.0,-1002.0,-255.0
-8.0,-260.0,-74.0,-199.0,-868.0,-116.0,-59.0,-1011.0,-250.0
-7.0,-259.0,-76.0,-173.0,-842.0,-117.0,-53.0,-1008.0,-250.0
-10.0,-257.0,-77.0,-139.0,-823.0,-124.0,-55.0,-1002.0,-250.0
-9.0,-255.0,-80.0,-109.0,-803.0,-122.0,-63.0,-980.0,-243.0
-11.0,-250.0,-77.0,-90.0,-784.0,-123.0,-63.0,-966.0,-237.0
-12.0,-249.0,-70.0,-84.0,-765.0,-119.0,-82.0,-960.0,-219.0
-12.0,-247.0,-67.0,-81.0,-747.0,-121.0,-98.0,-951.0,-206.0
-20.0,-244.0,-65.0,-78.0,-730.0,-121.0,-107.0,-945.0,-200.0
-20.0,-245.0,-62.0,-78.0,-721.0,-126.0,-108.0,-933.0,-184.0
-24.0,-239.0,-60.0,-79.0,-710.0,-131.0,-121.0,-929.0,-179.0
-29.0,-243.0,-58.0,-81.0,-699.0,-139.0,-140.0,-915.0,-176.0
-33.0,-235.0,-60.0,-83.0,-687.0,-145.0,-155.0,-917.0,-174.0
-31.0,-239.0,-62.0,-87.0,-672.0,-154.0,-161.0,-915.0,-173.0
-35.0,-237.0,-54.0,-89.0,-657.0,-162.0,-156.0,-915.0,-168.0
-32.0,-239.0,-59.0,-91.0,-640.0,-173.0,-172.0,-909.0,-170.0
-39.0,-236.0,-60.0,-95.0,-622.0,-182.0,-177.0,-912.0,-173.0
-40.0,-235.0,-60.0,-103.0,-608.0,-193.0,-175.0,-910.0,-177.0
-36.0,-238.0,-61.0,-112.0,-596.0,-200.0,-172.0,-914.0,-177.0
-34.0,-237.0,-60.0,-123.0,-589.0,-211.0,-165.0,-921.0,-177.0
-32.0,-240.0,-61.0,-133.0,-581.0,-224.0,-160.0,-921.0,-172.0
-32.0,-246.0,-62.0,-146.0,-572.0,-234.0,-145.0,-933.0,-171.0
-31.0,-248.0,-59.0,-146.0,-562.0,-242.0,-146.0,-953.0,-166.0
-32.0,-247.0,-55.0,-137.0,-550.0,-246.0,-142.0,-958.0,-160.0
-32.0,-251.0,-57.0,-125.0,-537.0,-252.0,-148.0,-963.0,-163.0
-32.0,-254.0,-54.0,-121.0,-522.0,-248.0,-159.0,-966.0,-145.0
-33.0,-255.0,-50.0,-109.0,-503.0,-241.0,-169.0,-969.0,-130.0
-34.0,-253.0,-49.0,-94.0,-487.0,-233.0,-170.0,-970.0,-129.0
-34.0,-251.0,-47.0,-80.0,-471.0,-226.0,-169.0,-956.0,-123.0
-32.0,-248.0,-55.0,-67.0,-459.0,-221.0,-147.0,-956.0,-136.0
-28.0,-252.0,-50.0,-70.0,-443.0,-223.0,-143.0,-965.0,-129.0
-26.0,-254.0,-41.0,-69.0,-416.0,-221.0,-139.0,-961.0,-102.0
-29.0,-248.0,-53.0,-30.0,-399.0,-228.0,-138.0,-954.0,-135.0
-28.0,-247.0,-49.0,-21.0,-387.0,-233.0,-138.0,-947.0,-135.0
-26.0,-245.0,-49.0,-17.0,-364.0,-236.0,-126.0,-940.0,-137.0
-24.0,-244.0,-54.0,-13.0,-344.0,-241.0,-136.0,-938.0,-149.0
-36.0,-242.0,-47.0,-21.0,-327.0,-254.0,-131.0,-935.0,-146.0
-23.0,-242.0,-51.0,-21.0,-305.0,-266.0,-130.0,-926.0,-142.0
-27.0,-238.0,-56.0,-12.0,-283.0,-281.0,-134.0,-919.0,-143.0
-26.0,-239.0,-54.0,-9.0,-262.0,-292.0,-137.0,-915.0,-145.0
-30.0,-234.0,-56.0,-18.0,-242.0,-305.0,-143.0,-908.0,-152.0
-31.0,-236.0,-57.0,-38.0,-224.0,-312.0,-145.0,-915.0,-162.0
-34.0,-244.0,-57.0,-69.0,-205.0,-316.0,-156.0,-930.0,-158.0
-36.0,-247.0,-52.0,-106.0,-183.0,-311.0,-168.0,-960.0,-144.0
-40.0,-254.0,-50.0,-117.0,-169.0,-309.0,-185.0,-983.0,-124.0
-44.0,-261.0,-46.0,-99.0,-163.0,-305.0,-205.0,-1000.0,-122.0
-48.0,-259.0,-49.0,-66.0,-162.0,-310.0,-219.0,-1002.0,-117.0
-50.0,-256.0,-46.0,-28.0,-158.0,-314.0,-230.0,-987.0,-119.0
-53.0,-251.0,-50.0,7.0,-155.0,-325.0,-238.0,-960.0,-121.0
-59.0,-245.0,-51.0,28.0,-149.0,-329.0,-246.0,-948.0,-127.0
-59.0,-242.0,-54.0,33.0,-139.0,-336.0,-260.0,-934.0,-133.0
-64.0,-239.0,-48.0,28.0,-131.0,-336.0,-264.0,-924.0,-131.0
-62.0,-239.0,-52.0,19.0,-125.0,-341.0,-277.0,-927.0,-132.0
-68.0,-241.0,-57.0,10.0,-122.0,-341.0,-286.0,-925.0,-148.0
-69.0,-240.0,-55.0,1.0,-117.0,-344.0,-297.0,-928.0,-152.0
-76.0,-240.0,-52.0,-4.0,-121.0,-346.0,-313.0,-927.0,-158.0
-83.0,-245.0,-57.0,-15.0,-125.0,-352.0,-344.0,-936.0,-158.0
-100.0,-247.0,-55.0,-28.0,-131.0,-349.0,-405.0,-945.0,-152.0
-109.0,-250.0,-58.0,-42.0,-154.0,-341.0,-451.0,-977.0,-163.0
-116.0,-262.0,-64.0,-50.0,-206.0,-329.0,-472.0,-1010.0,-206.0
-114.0,-265.0,-87.0,-45.0,-277.0,-330.0,-467.0,-1033.0,-290.0
-108.0,-264.0,-104.0,-43.0,-345.0,-321.0,-450.0,-1034.0,-361.0
-109.0,-265.0,-118.0,-63.0,-395.0,-303.0,-443.0,-1032.0,-396.0
-104.0,-268.0,-121.0,-101.0,-430.0,-267.0,-439.0,-1050.0,-418.0
-107.0,-275.0,-115.0,-132.0,-455.0,-233.0,-437.0,-1063.0,-414.0
-106.0,-280.0,-110.0,-131.0,-491.0,-195.0,-420.0,-1070.0,-389.0
-99.0,-279.0,-103.0,-83.0,-525.0,-165.0,-415.0,-1069.0,-360.0
-98.0,-268.0,-102.0,-27.0,-565.0,-134.0,-400.0,-1047.0,-352.0
-87.0,-261.0,-107.0,19.0,-612.0,-104.0,-370.0,-1015.0,-356.0
-75.0,-252.0,-109.0,46.0,-655.0,-68.0,-307.0,-973.0,-377.0
-60.0,-245.0,-113.0,47.0,-688.0,-30.0,-251.0,-947.0,-387.0
-42.0,-237.0,-115.0,28.0,-706.0,9.0,-181.0,-931.0,-404.0
-20.0,-240.0,-120.0,-4.0,-710.0,44.0,-113.0,-923.0,-417.0
3.0,-243.0,-123.0,-31.0,-701.0,75.0,-27.0,-929.0,-418.0
24.0,-241.0,-118.0,-37.0,-674.0,95.0,46.0,-936.0,-402.0
38.0,-247.0,-112.0,-21.0,-637.0,101.0,117.0,-930.0,-384.0
54.0,-240.0,-107.0,10.0,-606.0,90.0,186.0,-931.0,-359.0
67.0,-237.0,-106.0,49.0,-575.0,62.0,236.0,-922.0,-356.0
77.0,-231.0,-112.0,73.0,-547.0,21.0,269.0,-900.0,-361.0
77.0,-221.0,-111.0,75.0,-533.0,-29.0,291.0,-884.0,-373.0
89.0,-224.0,-106.0,50.0,-528.0,-68.0,309.0,-887.0,-369.0
90.0,-230.0,-107.0,-3.0,-519.0,-101.0,311.0,-898.0,-369.0
83.0,-234.0,-107.0,-65.0,-508.0,-133.0,293.0,-918.0,-370.0
76.0,-242.0,-108.0,-122.0,-505.0,-168.0,259.0,-952.0,-362.0
63.0,-251.0,-105.0,-166.0,-512.0,-205.0,214.0,-969.0,-356.0
51.0,-254.0,-105.0,-190.0,-528.0,-242.0,173.0,-1002.0,-362.0
38.0,-257.0,-111.0,-201.0,-554.0,-281.0,117.0,-1010.0,-383.0
29.0,-262.0,-119.0,-214.0,-582.0,-337.0,81.0,-1015.0,-404.0
20.0,-263.0,-124.0,-241.0,-613.0,-385.0,53.0,-1032.0,-432.0
13.0,-266.0,-126.0,-274.0,-638.0,-440.0,32.0,-1052.0,-445.0
7.0,-275.0,-126.0,-305.0,-653.0,-489.0,2.0,-1072.0,-451.0
-2.0,-282.0,-123.0,-320.0,-666.0,-540.0,-26.0,-1100.0,-437.0
-9.0,-291.0,-119.0,-313.0,-688.0,-580.0,-57.0,-1124.0,-412.0
-11.0,-297.0,-114.0,-285.0,-717.0,-610.0,-72.0,-1142.0,-393.0
-11.0,-299.0,-107.0,-248.0,-750.0,-620.0,-73.0,-1153.0,-370.0
-7.0,-297.0,-103.0,-203.0,-784.0,-620.0,-59.0,-1148.0,-331.0
-4.0,-292.0,-91.0,-149.0,-813.0,-605.0,-32.0,-1132.0,-311.0
1.0,-289.0,-95.0,-88.0,-838.0,-584.0,-17.0,-1121.0,-295.0
7.0,-284.0,-89.0,-29.0,-855.0,-553.0,8.0,-1094.0,-288.0
11.0,-278.0,-88.0,43.0,-881.0,-538.0,32.0,-1070.0,-281.0
24.0,-268.0,-88.0,97.0,-908.0,-524.0,66.0,-1032.0,-277.0
37.0,-255.0,-80.0,137.0,-933.0,-512.0,107.0,-999.0,-280.0
42.0,-244.0,-91.0,164.0,-949.0,-485.0,143.0,-953.0,-278.0
52.0,-237.0,-90.0,177.0,-953.0,-461.0,175.0,-919.0,-290.0
57.0,-230.0,-91.0,184.0,-952.0,-435.0,197.0,-898.0,-297.0
61.0,-226.0,-92.0,182.0,-947.0,-414.0,210.0,-885.0,-290.0
62.0,-219.0,-88.0,170.0,-945.0,-392.0,217.0,-879.0,-281.0
69.0,-224.0,-87.0,147.0,-945.0,-379.0,235.0,-882.0,-283.0
67.0,-225.0,-85.0,119.0,-948.0,-366.0,237.0,-878.0,-273.0
64.0,-227.0,-85.0,90.0,-948.0,-364.0,219.0,-887.0,-262.0
58.0,-227.0,-81.0,59.0,-958.0,-355.0,217.0,-894.0,-251.0
65.0,-238.0,-87.0,39.0,-968.0,-344.0,214.0,-918.0,-263.0
57.0,-238.0,-83.0,18.0,-968.0,-341.0,201.0,-940.0,-263.0
49.0,-246.0,-78.0,1.0,-971.0,-346.0,171.0,-951.0,-254.0
40.0,-250.0,-75.0,-4.0,-981.0,-349.0,131.0,-963.0,-245.0
34.0,-254.0,-73.0,13.0,-997.0,-351.0,93.0,-968.0,-227.0
19.0,-249.0,-71.0,59.0,-1014.0,-341.0,38.0,-955.0,-218.0
4.0,-245.0,-67.0,119.0,-1033.0,-323.0,-2.0,-940.0,-214.0
-7.0,-237.0,-66.0,175.0,-1058.0,-301.0,-41.0,-911.0,-208.0
-10.0,-230.0,-72.0,218.0,-1092.0,-284.0,-67.0,-896.0,-218.0
-10.0,-224.0,-77.0,232.0,-1138.0,-273.0,-61.0,-878.0,-239.0
-7.0,-219.0,-80.0,224.0,-1191.0,-264.0,-50.0,-868.0,-256.0
-11.0,-217.0,-80.0,202.0,-1219.0,-251.0,-62.0,-851.0,-246.0
-13.0,-210.0,-79.0,200.0,-1242.0,-225.0,-67.0,-846.0,-240.0
-10.0,-217.0,-77.0,222.0,-1265.0,-193.0,-62.0,-842.0,-228.0
-12.0,-215.0,-76.0,269.0,-1283.0,-154.0,-68.0,-833.0,-237.0
-10.0,-210.0,-84.0,320.0,-1291.0,-107.0,-61.0,-824.0,-265.0
-6.0,-207.0,-91.0,359.0,-1302.0,-56.0,-40.0,-805.0,-287.0
1.0,-202.0,-98.0,387.0,-1309.0,-12.0,-25.0,-789.0,-315.0
12.0,-194.0,-96.0,408.0,-1315.0,20.0,18.0,-757.0,-320.0
21.0,-185.0,-100.0,427.0,-1324.0,48.0,54.0,-725.0,-327.0
26.0,-175.0,-104.0,432.0,-1320.0,79.0,73.0,-696.0,-353.0
25.0,-170.0,-106.0,402.0,-1318.0,116.0,91.0,-681.0,-369.0
31.0,-167.0,-114.0,320.0,-1331.0,138.0,93.0,-683.0,-384.0
28.0,-176.0,-121.0,226.0,-1342.0,154.0,94.0,-701.0,-395.0
23.0,-184.0,-119.0,143.0,-1347.0,179.0,73.0,-728.0,-399.0
17.0,-196.0,-117.0,95.0,-1347.0,205.0,45.0,-780.0,-391.0
8.0,-204.0,-116.0,77.0,-1359.0,226.0,14.0,-809.0,-386.0
2.0,-215.0,-102.0,67.0,-1381.0,234.0,-11.0,-835.0,-341.0
-7.0,-220.0,-98.0,77.0,-1408.0,248.0,-37.0,-856.0,-321.0
-6.0,-228.0,-99.0,103.0,-1442.0,261.0,-38.0,-876.0,-330.0
-11.0,-233.0,-104.0,111.0,-1488.0,257.0,-53.0,-906.0,-332.0
-11.0,-246.0,-100.0,91.0,-1537.0,233.0,-61.0,-951.0,-327.0
-12.0,-259.0,-98.0,57.0,-1586.0,189.0,-65.0,-1015.0,-326.0
-11.0,-278.0,-97.0,47.0,-1606.0,132.0,-73.0,-1073.0,-321.0
-6.0,-294.0,-114.0,82.0,-1599.0,66.0,-60.0,-1126.0,-366.0
-5.0,-303.0,-125.0,128.0,-1566.0,-28.0,-51.0,-1153.0,-420.0
3.0,-303.0,-140.0,180.0,-1514.0,-123.0,-32.0,-1163.0,-465.0
9.0,-296.0,-146.0,233.0,-1458.0,-221.0,-14.0,-1150.0,-504.0
14.0,-283.0,-139.0,278.0,-1416.0,-303.0,13.0,-1090.0,-510.0
16.0,-261.0,-141.0,314.0,-1399.0,-359.0,41.0,-1013.0,-487.0
28.0,-239.0,-130.0,330.0,-1388.0,-368.0,76.0,-934.0,-444.0
37.0,-229.0,-115.0,325.0,-1361.0,-348.0,100.0,-896.0,-391.0
41.0,-220.0,-96.0,303.0,-1314.0,-306.0,128.0,-877.0,-328.0
49.0,-220.0,-87.0,274.0,-1244.0,-255.0,140.0,-865.0,-278.0
43.0,-221.0,-79.0,228.0,-1183.0,-204.0,132.0,-869.0,-249.0
37.0,-221.0,-76.0,173.0,-1132.0,-151.0,110.0,-885.0,-216.0
33.0,-232.0,-65.0,110.0,-1090.0,-95.0,97.0,-912.0,-194.0
35.0,-243.0,-62.0,46.0,-1064.0,-46.0,93.0,-942.0,-187.0
35.0,-255.0,-63.0,-11.0,-1035.0,7.0,95.0,-987.0,-184.0
30.0,-261.0,-65.0,-47.0,-989.0,48.0,82.0,-1013.0,-183.0
23.0,-266.0,-58.0,-65.0,-940.0,90.0,55.0,-1034.0,-169.0
19.0,-271.0,-54.0,-70.0,-903.0,126.0,44.0,-1053.0,-152.0
7.0,-270.0,-52.0,-63.0,-885.0,160.0,5.0,-1059.0,-132.0
-2.0,-270.0,-48.0,-65.0,-873.0,185.0,-45.0,-1065.0,-121.0
-12.0,-281.0,-43.0,-83.0,-848.0,218.0,-89.0,-1076.0,-88.0
-27.0,-280.0,-32.0,-102.0,-829.0,233.0,-144.0,-1086.0,-64.0
-43.0,-286.0,-30.0,-103.0,-820.0,248.0,-187.0,-1107.0,-49.0
-49.0,-294.0,-26.0,-87.0,-811.0,262.0,-224.0,-1133.0,-39.0
-59.0,-304.0,-29.0,-55.0,-808.0,284.0,-258.0,-1158.0,-40.0
-70.0,-308.0,-31.0,-10.0,-809.0,301.0,-294.0,-1176.0,-44.0
-75.0,-308.0,-32.0,37.0,-823.0,320.0,-310.0,-1175.0,-42.0
-75.0,-307.0,-32.0,85.0,-847.0,333.0,-325.0,-1174.0,-67.0
-73.0,-305.0,-35.0,120.0,-870.0,343.0,-308.0,-1164.0,-69.0
-67.0,-301.0,-34.0,151.0,-887.0,348.0,-297.0,-1152.0,-66.0
-75.0,-291.0,-39.0,186.0,-893.0,348.0,-313.0,-1122.0,-79.0
-63.0,-282.0,-38.0,211.0,-923.0,344.0,-284.0,-1085.0,-80.0
-52.0,-273.0,-42.0,217.0,-951.0,339.0,-234.0,-1052.0,-97.0
-53.0,-266.0,-40.0,205.0,-951.0,333.0,-226.0,-1037.0,-82.0
-52.0,-266.0,-34.0,196.0,-958.0,331.0,-223.0,-1027.0,-73.0
-48.0,-265.0,-35.0,188.0,-970.0,326.0,-225.0,-1013.0,-74.0
-47.0,-259.0,-37.0,182.0,-980.0,327.0,-217.0,-1008.0,-73.0
-39.0,-259.0,-33.0,169.0,-978.0,345.0,-184.0,-1013.0,-78.0
-34.0,-262.0,-32.0,157.0,-953.0,360.0,-177.0,-1009.0,-66.0
-36.0,-261.0,-29.0,170.0,-923.0,363.0,-173.0,-1012.0,-51.0
-41.0,-259.0,-28.0,200.0,-899.0,355.0,-190.0,-999.0,-28.0
-47.0,-254.0,-23.0,224.0,-885.0,352.0,-208.0,-973.0,-22.0
-49.0,-246.0,-18.0,227.0,-875.0,355.0,-219.0,-956.0,-18.0
-47.0,-239.0,-21.0,221.0,-859.0,368.0,-211.0,-932.0,-19.0
-47.0,-237.0,-27.0,216.0,-839.0,381.0,-204.0,-921.0,-32.0
-41.0,-239.0,-22.0,212.0,-811.0,396.0,-194.0,-916.0,-21.0
-35.0,-240.0,-23.0,222.0,-786.0,405.0,-164.0,-916.0,-18.0
-26.0,-241.0,-29.0,239.0,-764.0,412.0,-139.0,-907.0,-42.0
-22.0,-233.0,-34.0,249.0,-728.0,406.0,-133.0,-901.0,-62.0
-19.0,-234.0,-28.0,245.0,-686.0,392.0,-117.0,-898.0,-47.0
-19.0,-233.0,-23.0,237.0,-650.0,368.0,-104.0,-897.0,-27.0
-15.0,-232.0,-24.0,237.0,-610.0,350.0,-98.0,-890.0,-27.0
-13.0,-231.0,-22.0,236.0,-577.0,334.0,-97.0,-889.0,-18.0
-19.0,-225.0,-24.0,228.0,-549.0,318.0,-103.0,-881.0,-27.0
-28.0,-229.0,-30.0,199.0,-527.0,306.0,-133.0,-874.0,-45.0
-27.0,-229.0,-34.0,150.0,-511.0,307.0,-142.0,-891.0,-57.0
-31.0,-236.0,-28.0,91.0,-495.0,295.0,-159.0,-908.0,-66.0
-39.0,-244.0,-39.0,46.0,-469.0,291.0,-182.0,-931.0,-68.0
-43.0,-254.0,-31.0,24.0,-440.0,283.0,-202.0,-965.0,-63.0
-45.0,-255.0,-31.0,32.0,-416.0,275.0,-214.0,-972.0,-37.0
-56.0,-243.0,-16.0,71.0,-403.0,270.0,-245.0,-920.0,3.0
-51.0,-240.0,-29.0,145.0,-408.0,305.0,-219.0,-930.0,-66.0
-50.0,-242.0,-40.0,151.0,-402.0,296.0,-223.0,-945.0,-100.0
-60.0,-240.0,-25.0,96.0,-370.0,260.0,-266.0,-921.0,-29.0
-62.0,-244.0,-17.0,85.0,-352.0,255.0,-259.0,-930.0,-8.0
-68.0,-235.0,-17.0,123.0,-349.0,252.0,-287.0,-896.0,9.0
-70.0,-224.0,-22.0,172.0,-352.0,253.0,-293.0,-869.0,-27.0
-68.0,-222.0,-27.0,163.0,-350.0,275.0,-278.0,-871.0,-36.0
-61.0,-225.0,-26.0,111.0,-333.0,290.0,-265.0,-878.0,-29.0
-59.0,-234.0,-32.0,70.0,-326.0,301.0,-259.0,-910.0,-11.0
-51.0,-227.0,-7.0,49.0,-275.0,295.0,-199.0,-859.0,30.0
-65.0,-226.0,-22.0,91.0,-267.0,291.0,-284.0,-871.0,-29.0
-62.0,-231.0,-17.0,92.0,-305.0,300.0,-272.0,-890.0,-1.0
-74.0,-230.0,-14.0,97.0,-321.0,294.0,-294.0,-885.0,12.0
-74.0,-233.0,-6.0,111.0,-344.0,278.0,-311.0,-892.0,11.0
-70.0,-238.0,-17.0,119.0,-357.0,280.0,-304.0,-899.0,14.0
-71.0,-239.0,-22.0,133.0,-329.0,284.0,-308.0,-916.0,-13.0
-71.0,-241.0,-25.0,140.0,-299.0,290.0,-308.0,-929.0,-49.0
-71.0,-241.0,-40.0,147.0,-290.0,287.0,-296.0,-920.0,-92.0
-76.0,-237.0,-52.0,154.0,-310.0,290.0,-313.0,-914.0,-145.0
-75.0,-245.0,-56.0,142.0,-340.0,302.0,-314.0,-933.0,-163.0
-75.0,-251.0,-39.0,119.0,-371.0,314.0,-308.0,-968.0,-117.0
-69.0,-259.0,-45.0,145.0,-384.0,315.0,-301.0,-975.0,-95.0
-67.0,-260.0,-38.0,222.0,-376.0,312.0,-298.0,-985.0,-89.0
-60.0,-253.0,-40.0,290.0,-378.0,299.0,-269.0,-984.0,-81.0
-61.0,-253.0,-26.0,321.0,-378.0,284.0,-246.0,-954.0,-41.0
-66.0,-246.0,-30.0,332.0,-367.0,277.0,-302.0,-935.0,-51.0
-76.0,-242.0,-31.0,333.0,-309.0,274.0,-332.0,-935.0,-57.0
-72.0,-247.0,-24.0,331.0,-310.0,268.0,-299.0,-940.0,-35.0
-53.0,-248.0,-31.0,355.0,-340.0,251.0,-246.0,-949.0,-42.0
-40.0,-243.0,-32.0,387.0,-329.0,233.0,-194.0,-938.0,-58.0
-26.0,-235.0,-29.0,405.0,-290.0,222.0,-129.0,-913.0,-43.0
-29.0,-230.0,-38.0,417.0,-243.0,212.0,-159.0,-896.0,-67.0
-57.0,-228.0,-49.0,399.0,-161.0,208.0,-259.0,-878.0,-115.0
-64.0,-228.0,-40.0,366.0,-83.0,201.0,-261.0,-879.0,-89.0
-55.0,-229.0,-34.0,342.0,-103.0,194.0,-246.0,-886.0,-65.0
-45.0,-228.0,-32.0,349.0,-130.0,187.0,-207.0,-877.0,-47.0
-41.0,-224.0,-27.0,380.0,-102.0,186.0,-189.0,-858.0,-48.0
-46.0,-218.0,-37.0,396.0,-34.0,196.0,-216.0,-854.0,-67.0
-47.0,-220.0,-32.0,371.0,7.0,209.0,-214.0,-857.0,-57.0
-48.0,-217.0,-30.0,340.0,32.0,217.0,-227.0,-853.0,-41.0
-45.0,-221.0,-20.0,314.0,63.0,219.0,-216.0,-862.0,-20.0
-44.0,-224.0,-17.0,297.0,115.0,225.0,-212.0,-866.0,-2.0
-55.0,-224.0,-15.0,285.0,166.0,227.0,-233.0,-870.0,6.0
-52.0,-230.0,-15.0,275.0,198.0,238.0,-237.0,-887.0,10.0
-52.0,-232.0,-15.0,260.0,222.0,238.0,-226.0,-897.0,17.0
-46.0,-237.0,-11.0,247.0,255.0,241.0,-217.0,-907.0,16.0
-41.0,-240.0,-9.0,241.0,299.0,239.0,-199.0,-917.0,31.0
-43.0,-241.0,-6.0,242.0,345.0,246.0,-204.0,-921.0,35.0
-48.0,-241.0,-5.0,251.0,405.0,252.0,-219.0,-919.0,49.0
-56.0,-237.0,-5.0,269.0,448.0,264.0,-254.0,-906.0,60.0
-65.0,-233.0,-2.0,287.0,484.0,272.0,-275.0,-892.0,58.0
-72.0,-224.0,-2.0,299.0,507.0,283.0,-296.0,-876.0,64.0
-75.0,-219.0,5.0,305.0,523.0,287.0,-324.0,-846.0,62.0
-81.0,-209.0,-4.0,297.0,537.0,295.0,-344.0,-825.0,52.0
-85.0,-207.0,-9.0,270.0,543.0,300.0,-358.0,-811.0,39.0
-88.0,-211.0,-10.0,229.0,539.0,311.0,-378.0,-820.0,20.0
-97.0,-213.0,-11.0,187.0,531.0,319.0,-398.0,-835.0,33.0
-98.0,-221.0,-6.0,157.0,526.0,330.0,-403.0,-858.0,44.0
-94.0,-231.0,-5.0,134.0,519.0,336.0,-404.0,-883.0,58.0
-90.0,-236.0,0.0,114.0,522.0,339.0,-379.0,-899.0,66.0
-89.0,-241.0,8.0,107.0,538.0,343.0,-377.0,-911.0,83.0
-89.0,-247.0,8.0,107.0,543.0,348.0,-372.0,-934.0,87.0
-83.0,-248.0,13.0,122.0,540.0,350.0,-362.0,-945.0,115.0
-79.0,-244.0,12.0,149.0,538.0,355.0,-345.0,-938.0,118.0
-79.0,-237.0,9.0,180.0,545.0,357.0,-338.0,-914.0,107.0
-79.0,-231.0,5.0,206.0,550.0,363.0,-347.0,-880.0,73.0
-82.0,-221.0,0.0,232.0,548.0,364.0,-352.0,-843.0,54.0
-82.0,-207.0,-10.0,251.0,536.0,367.0,-351.0,-809.0,30.0
-80.0,-200.0,-18.0,260.0,516.0,361.0,-341.0,-771.0,-3.0
-87.0,-194.0,-21.0,254.0,496.0,353.0,-359.0,-750.0,-9.0
-91.0,-193.0,-19.0,211.0,475.0,343.0,-378.0,-736.0,-12.0
-95.0,-192.0,-18.0,150.0,459.0,331.0,-398.0,-745.0,-9.0
-99.0,-198.0,-20.0,92.0,456.0,306.0,-410.0,-773.0,-12.0
-96.0,-205.0,-18.0,51.0,460.0,282.0,-406.0,-791.0,-6.0
-96.0,-214.0,-14.0,28.0,466.0,259.0,-405.0,-818.0,2.0
-98.0,-220.0,-10.0,14.0,471.0,249.0,-410.0,-847.0,26.0
-105.0,-229.0,-3.0,7.0,475.0,246.0,-433.0,-870.0,55.0
-111.0,-233.0,-2.0,11.0,478.0,244.0,-455.0,-885.0,60.0
-109.0,-233.0,-3.0,33.0,459.0,231.0,-456.0,-887.0,48.0
-107.0,-229.0,-7.0,63.0,422.0,220.0,-454.0,-867.0,41.0
-107.0,-220.0,-6.0,95.0,393.0,217.0,-448.0,-844.0,32.0
-107.0,-212.0,-10.0,122.0,390.0,218.0,-449.0,-811.0,22.0
-112.0,-198.0,-16.0,137.0,391.0,222.0,-445.0,-779.0,0.0
-110.0,-191.0,-20.0,135.0,373.0,222.0,-460.0,-732.0,-13.0
-112.0,-182.0,-21.0,118.0,343.0,222.0,-454.0,-705.0,-13.0
-113.0,-179.0,-14.0,80.0,312.0,217.0,-459.0,-681.0,-5.0
-118.0,-175.0,-12.0,31.0,286.0,211.0,-478.0,-681.0,16.0
-119.0,-182.0,-11.0,-24.0,277.0,201.0,-488.0,-699.0,22.0
-118.0,-186.0,-5.0,-85.0,273.0,195.0,-482.0,-721.0,34.0
-119.0,-191.0,-7.0,-139.0,272.0,184.0,-495.0,-756.0,42.0
-122.0,-208.0,-5.0,-186.0,271.0,174.0,-495.0,-799.0,51.0
-123.0,-218.0,-2.0,-225.0,275.0,152.0,-499.0,-840.0,52.0
-118.0,-226.0,-7.0,-257.0,286.0,132.0,-490.0,-875.0,29.0
-113.0,-238.0,-17.0,-269.0,299.0,111.0,-476.0,-908.0,12.0
-115.0,-246.0,-19.0,-265.0,321.0,100.0,-486.0,-927.0,-2.0
-116.0,-247.0,-21.0,-240.0,348.0,96.0,-487.0,-935.0,-9.0
-117.0,-243.0,-26.0,-195.0,371.0,105.0,-484.0,-919.0,-31.0
-115.0,-239.0,-32.0,-146.0,382.0,117.0,-480.0,-909.0,-58.0
-105.0,-226.0,-33.0,-104.0,406.0,134.0,-432.0,-864.0,-80.0
-97.0,-214.0,-39.0,-57.0,395.0,146.0,-401.0,-829.0,-86.0
-95.0,-199.0,-46.0,-26.0,374.0,167.0,-398.0,-784.0,-119.0
-91.0,-191.0,-43.0,-29.0,367.0,177.0,-384.0,-738.0,-112.0
-91.0,-183.0,-39.0,-51.0,371.0,183.0,-378.0,-709.0,-93.0
-97.0,-176.0,-36.0,-99.0,387.0,173.0,-401.0,-687.0,-76.0
-107.0,-173.0,-29.0,-146.0,395.0,167.0,-427.0,-678.0,-49.0
-119.0,-174.0,-27.0,-194.0,400.0,154.0,-475.0,-680.0,-37.0
-125.0,-181.0,-20.0,-251.0,398.0,140.0,-526.0,-704.0,-16.0
-137.0,-191.0,-16.0,-311.0,404.0,114.0,-568.0,-736.0,4.0
-152.0,-200.0,-14.0,-381.0,416.0,95.0,-623.0,-783.0,6.0
-164.0,-213.0,-17.0,-446.0,433.0,87.0,-667.0,-822.0,13.0
-172.0,-228.0,-20.0,-484.0,444.0,86.0,-706.0,-861.0,-18.0
-177.0,-236.0,-30.0,-482.0,436.0,77.0,-715.0,-884.0,-40.0
-173.0,-231.0,-35.0,-446.0,414.0,76.0,-672.0,-889.0,-83.0
-169.0,-225.0,-40.0,-397.0,395.0,85.0,-684.0,-855.0,-83.0
-161.0,-221.0,-46.0,-325.0,388.0,97.0,-654.0,-836.0,-114.0
-154.0,-203.0,-50.0,-271.0,363.0,106.0,-629.0,-800.0,-120.0
-144.0,-193.0,-55.0,-224.0,343.0,119.0,-591.0,-746.0,-142.0
-138.0,-182.0,-66.0,-190.0,341.0,124.0,-565.0,-694.0,-179.0
-131.0,-161.0,-64.0,-169.0,358.0,127.0,-529.0,-636.0,-192.0
-119.0,-144.0,-73.0,-168.0,366.0,132.0,-501.0,-576.0,-224.0
-114.0,-141.0,-74.0,-217.0,380.0,151.0,-470.0,-554.0,-234.0
-107.0,-139.0,-74.0,-290.0,404.0,158.0,-449.0,-539.0,-235.0
-108.0,-140.0,-73.0,-359.0,436.0,156.0,-457.0,-545.0,-238.0
-116.0,-139.0,-75.0,-423.0,479.0,148.0,-470.0,-553.0,-227.0
-125.0,-148.0,-77.0,-487.0,525.0,153.0,-500.0,-587.0,-234.0
-133.0,-158.0,-73.0,-564.0,570.0,151.0,-532.0,-624.0,-224.0
-138.0,-173.0,-68.0,-617.0,588.0,152.0,-562.0,-660.0,-207.0
-141.0,-183.0,-59.0,-655.0,607.0,154.0,-574.0,-699.0,-182.0
-146.0,-188.0,-61.0,-679.0,634.0,153.0,-589.0,-735.0,-168.0
-146.0,-199.0,-51.0,-698.0,649.0,155.0,-589.0,-768.0,-145.0
-141.0,-207.0,-51.0,-710.0,651.0,161.0,-581.0,-794.0,-139.0
-138.0,-211.0,-53.0,-712.0,641.0,161.0,-558.0,-817.0,-139.0
-131.0,-212.0,-55.0,-701.0,630.0,157.0,-534.0,-819.0,-149.0
-123.0,-205.0,-58.0,-687.0,618.0,148.0,-499.0,-806.0,-167.0
-117.0,-202.0,-58.0,-677.0,607.0,137.0,-483.0,-787.0,-192.0
-109.0,-195.0,-65.0,-680.0,607.0,130.0,-445.0,-753.0,-210.0
-99.0,-188.0,-74.0,-704.0,610.0,132.0,-424.0,-726.0,-237.0
-93.0,-180.0,-77.0,-738.0,602.0,142.0,-373.0,-707.0,-245.0
-84.0,-171.0,-79.0,-784.0,593.0,156.0,-349.0,-679.0,-261.0
-71.0,-177.0,-82.0,-830.0,602.0,178.0,-296.0,-685.0,-263.0
-68.0,-174.0,-89.0,-863.0,622.0,187.0,-283.0,-680.0,-283.0
-73.0,-207.0,-97.0,-899.0,659.0,216.0,-294.0,-794.0,-311.0
-36.0,-253.0,-67.0,-867.0,672.0,327.0,-226.0,-927.0,-225.0
-43.0,-236.0,-78.0,-713.0,724.0,367.0,-186.0,-907.0,-224.0
-43.0,-241.0,-78.0,-602.0,821.0,377.0,-221.0,-919.0,-246.0
-40.0,-242.0,-70.0,-569.0,890.0,449.0,-193.0,-937.0,-218.0
-43.0,-245.0,-72.0,-570.0,950.0,517.0,-199.0,-941.0,-222.0
-34.0,-244.0,-72.0,-560.0,988.0,558.0,-162.0,-925.0,-222.0
-36.0,-232.0,-78.0,-524.0,1014.0,577.0,-166.0,-905.0,-243.0
-36.0,-229.0,-74.0,-489.0,1036.0,599.0,-170.0,-876.0,-221.0
-41.0,-231.0,-61.0,-458.0,1060.0,628.0,-188.0,-880.0,-182.0
-61.0,-226.0,-58.0,-407.0,1088.0,652.0,-259.0,-863.0,-173.0
-83.0,-217.0,-64.0,-340.0,1104.0,658.0,-335.0,-844.0,-184.0
-94.0,-209.0,-69.0,-282.0,1104.0,657.0,-391.0,-811.0,-210.0
-110.0,-201.0,-81.0,-249.0,1110.0,630.0,-452.0,-784.0,-261.0
-115.0,-194.0,-81.0,-236.0,1122.0,588.0,-486.0,-762.0,-289.0
-136.0,-195.0,-95.0,-233.0,1152.0,538.0,-540.0,-756.0,-312.0
-140.0,-206.0,-99.0,-239.0,1157.0,520.0,-560.0,-796.0,-355.0
-116.0,-249.0,-116.0,-263.0,1099.0,531.0,-514.0,-887.0,-353.0
-110.0,-249.0,-92.0,-305.0,1020.0,601.0,-497.0,-904.0,-291.0
-83.0,-262.0,-93.0,-217.0,994.0,588.0,-349.0,-975.0,-300.0
-84.0,-266.0,-85.0,-66.0,995.0,421.0,-361.0,-1004.0,-275.0
-95.0,-256.0,-94.0,58.0,971.0,257.0,-393.0,-999.0,-290.0
-89.0,-254.0,-88.0,112.0,919.0,194.0,-365.0,-978.0,-273.0
-81.0,-258.0,-86.0,127.0,873.0,183.0,-346.0,-978.0,-274.0
-90.0,-252.0,-76.0,98.0,824.0,211.0,-368.0,-1009.0,-282.0
-77.0,-238.0,-62.0,8.0,759.0,298.0,-321.0,-893.0,-183.0
-71.0,-225.0,-60.0,63.0,704.0,260.0,-281.0,-851.0,-174.0
-88.0,-206.0,-62.0,152.0,684.0,77.0,-358.0,-805.0,-185.0
-97.0,-198.0,-72.0,180.0,633.0,-27.0,-394.0,-789.0,-233.0
-97.0,-205.0,-82.0,97.0,570.0,-62.0,-385.0,-819.0,-266.0
-89.0,-197.0,-76.0,0.0,525.0,-55.0,-374.0,-760.0,-244.0
-85.0,-200.0,-84.0,-1.0,512.0,-90.0,-351.0,-766.0,-272.0
-92.0,-201.0,-95.0,14.0,497.0,-143.0,-380.0,-792.0,-325.0
-95.0,-208.0,-98.0,-1.0,476.0,-176.0,-393.0,-813.0,-343.0
-96.0,-223.0,-96.0,-33.0,458.0,-188.0,-403.0,-852.0,-335.0
-99.0,-242.0,-91.0,-43.0,424.0,-195.0,-396.0,-914.0,-310.0
-99.0,-252.0,-85.0,-20.0,352.0,-195.0,-399.0,-964.0,-296.0
-91.0,-261.0,-89.0,28.0,277.0,-196.0,-381.0,-1015.0,-290.0
-83.0,-270.0,-105.0,88.0,226.0,-174.0,-352.0,-1046.0,-338.0
-86.0,-298.0,-125.0,132.0,207.0,-154.0,-365.0,-1160.0,-430.0
-75.0,-282.0,-106.0,131.0,188.0,-90.0,-333.0,-1066.0,-367.0
-71.0,-283.0,-114.0,271.0,170.0,-86.0,-297.0,-1059.0,-377.0
-79.0,-272.0,-122.0,446.0,153.0,-148.0,-338.0,-1046.0,-434.0
-85.0,-263.0,-131.0,554.0,149.0,-187.0,-353.0,-1026.0,-449.0
-87.0,-259.0,-128.0,609.0,147.0,-198.0,-358.0,-1014.0,-443.0
-92.0,-258.0,-122.0,636.0,146.0,-216.0,-384.0,-1003.0,-415.0
-97.0,-246.0,-108.0,658.0,145.0,-256.0,-403.0,-936.0,-360.0
-102.0,-241.0,-97.0,680.0,136.0,-305.0,-421.0,-942.0,-323.0
-99.0,-251.0,-94.0,669.0,131.0,-330.0,-418.0,-974.0,-294.0
-104.0,-264.0,-90.0,641.0,123.0,-350.0,-419.0,-1013.0,-284.0
-96.0,-270.0,-99.0,627.0,107.0,-371.0,-413.0,-1054.0,-321.0
-95.0,-281.0,-103.0,628.0,115.0,-402.0,-397.0,-1091.0,-343.0
-83.0,-292.0,-108.0,646.0,93.0,-428.0,-371.0,-1092.0,-344.0
-84.0,-294.0,-104.0,709.0,77.0,-456.0,-357.0,-1131.0,-363.0
-72.0,-304.0,-110.0,786.0,92.0,-472.0,-324.0,-1154.0,-376.0
-62.0,-306.0,-112.0,879.0,136.0,-484.0,-277.0,-1158.0,-396.0
-62.0,-300.0,-120.0,962.0,174.0,-490.0,-267.0,-1141.0,-410.0
-82.0,-281.0,-145.0,1009.0,183.0,-483.0,-312.0,-1103.0,-498.0
-55.0,-281.0,-121.0,970.0,114.0,-452.0,-269.0,-1095.0,-477.0
-47.0,-279.0,-131.0,950.0,65.0,-449.0,-219.0,-1080.0,-462.0
-46.0,-280.0,-127.0,959.0,87.0,-505.0,-221.0,-1093.0,-448.0
-54.0,-278.0,-124.0,928.0,97.0,-534.0,-232.0,-1106.0,-427.0
-56.0,-291.0,-114.0,890.0,95.0,-559.0,-258.0,-1128.0,-406.0
-64.0,-293.0,-104.0,845.0,77.0,-575.0,-269.0,-1128.0,-381.0
-62.0,-305.0,-99.0,810.0,18.0,-603.0,-270.0,-1166.0,-352.0
-55.0,-310.0,-100.0,807.0,-18.0,-649.0,-249.0,-1189.0,-340.0
-63.0,-304.0,-94.0,805.0,-16.0,-687.0,-259.0,-1187.0,-321.0
-52.0,-309.0,-91.0,799.0,-21.0,-692.0,-226.0,-1191.0,-305.0
-39.0,-305.0,-89.0,798.0,-25.0,-705.0,-208.0,-1185.0,-306.0
-33.0,-308.0,-86.0,808.0,-6.0,-701.0,-174.0,-1174.0,-273.0
-34.0,-305.0,-73.0,829.0,18.0,-698.0,-170.0,-1176.0,-230.0
-35.0,-308.0,-61.0,863.0,51.0,-673.0,-171.0,-1185.0,-194.0
-41.0,-313.0,-62.0,911.0,101.0,-646.0,-188.0,-1197.0,-176.0
-44.0,-313.0,-57.0,965.0,125.0,-627.0,-209.0,-1203.0,-175.0
-48.0,-314.0,-61.0,1021.0,126.0,-618.0,-218.0,-1204.0,-179.0
-52.0,-313.0,-65.0,1068.0,116.0,-612.0,-229.0,-1206.0,-185.0
-55.0,-314.0,-58.0,1115.0,116.0,-608.0,-245.0,-1206.0,-186.0
-63.0,-314.0,-57.0,1157.0,124.0,-601.0,-274.0,-1198.0,-159.0
-71.0,-311.0,-44.0,1193.0,145.0,-603.0,-308.0,-1199.0,-137.0
-78.0,-323.0,-41.0,1216.0,150.0,-595.0,-343.0,-1200.0,-124.0
-79.0,-316.0,-44.0,1228.0,107.0,-601.0,-344.0,-1206.0,-101.0
-76.0,-310.0,-40.0,1238.0,60.0,-617.0,-325.0,-1203.0,-93.0
-67.0,-309.0,-40.0,1235.0,39.0,-632.0,-289.0,-1205.0,-79.0
-49.0,-309.0,-44.0,1216.0,31.0,-635.0,-255.0,-1196.0,-85.0
-48.0,-308.0,-45.0,1185.0,65.0,-645.0,-233.0,-1189.0,-104.0
-47.0,-307.0,-44.0,1160.0,89.0,-631.0,-210.0,-1185.0,-106.0
-43.0,-308.0,-48.0,1156.0,97.0,-619.0,-206.0,-1185.0,-114.0
-42.0,-307.0,-48.0,1175.0,110.0,-600.0,-215.0,-1176.0,-120.0
-53.0,-306.0,-42.0,1207.0,121.0,-570.0,-228.0,-1172.0,-98.0
-55.0,-309.0,-35.0,1249.0,105.0,-532.0,-243.0,-1184.0,-83.0
-52.0,-309.0,-33.0,1300.0,61.0,-500.0,-236.0,-1180.0,-68.0
-48.0,-300.0,-23.0,1344.0,44.0,-474.0,-231.0,-1155.0,-27.0
-47.0,-286.0,-13.0,1375.0,23.0,-443.0,-207.0,-1108.0,10.0
-66.0,-266.0,-15.0,1387.0,-8.0,-409.0,-268.0,-1043.0,19.0
-52.0,-256.0,-14.0,1354.0,-103.0,-369.0,-229.0,-987.0,12.0
-42.0,-244.0,-21.0,1286.0,-170.0,-356.0,-188.0,-939.0,-16.0
-41.0,-227.0,-22.0,1178.0,-198.0,-346.0,-177.0,-896.0,-10.0
-38.0,-225.0,-20.0,1045.0,-229.0,-338.0,-159.0,-879.0,-13.0
-42.0,-222.0,-22.0,914.0,-267.0,-337.0,-191.0,-872.0,-8.0
-15.0,-230.0,-23.0,784.0,-300.0,-350.0,-51.0,-905.0,-12.0
-68.0,-237.0,-24.0,675.0,-251.0,-399.0,-257.0,-928.0,-29.0
-63.0,-252.0,-27.0,561.0,-327.0,-349.0,-218.0,-998.0,-58.0
-34.0,-261.0,-32.0,484.0,-484.0,-310.0,-148.0,-1021.0,-64.0
-27.0,-256.0,-37.0,450.0,-539.0,-302.0,-129.0,-993.0,-64.0
-19.0,-235.0,-28.0,425.0,-566.0,-293.0,-96.0,-910.0,-45.0
-12.0,-218.0,-32.0,388.0,-618.0,-287.0,-64.0,-860.0,-49.0
-12.0,-211.0,-25.0,318.0,-654.0,-272.0,-67.0,-835.0,-35.0
-11.0,-208.0,-23.0,231.0,-692.0,-257.0,-66.0,-824.0,-32.0
-16.0,-208.0,-26.0,145.0,-741.0,-245.0,-80.0,-817.0,-39.0
-25.0,-208.0,-30.0,81.0,-793.0,-230.0,-113.0,-812.0,-47.0
-37.0,-214.0,-23.0,38.0,-839.0,-207.0,-141.0,-831.0,-23.0
-30.0,-220.0,-23.0,28.0,-893.0,-192.0,-141.0,-840.0,-22.0
-34.0,-214.0,-16.0,33.0,-948.0,-179.0,-150.0,-832.0,-15.0
-38.0,-216.0,-8.0,36.0,-997.0,-173.0,-160.0,-835.0,19.0
-38.0,-211.0,-8.0,38.0,-1045.0,-165.0,-167.0,-825.0,32.0
-39.0,-208.0,-2.0,29.0,-1090.0,-166.0,-177.0,-823.0,56.0
-40.0,-209.0,1.0,12.0,-1140.0,-164.0,-182.0,-816.0,69.0
-39.0,-211.0,6.0,-3.0,-1180.0,-168.0,-181.0,-827.0,72.0
-40.0,-218.0,0.0,-20.0,-1214.0,-168.0,-175.0,-837.0,75.0
-41.0,-221.0,4.0,-33.0,-1241.0,-178.0,-180.0,-854.0,79.0
-39.0,-225.0,5.0,-41.0,-1264.0,-185.0,-177.0,-865.0,87.0
-25.0,-222.0,8.0,-48.0,-1281.0,-198.0,-165.0,-880.0,96.0
-30.0,-224.0,24.0,-44.0,-1297.0,-208.0,-146.0,-896.0,110.0
-18.0,-243.0,20.0,-34.0,-1306.0,-221.0,-132.0,-909.0,121.0
-19.0,-243.0,22.0,-13.0,-1306.0,-222.0,-106.0,-926.0,148.0
-14.0,-249.0,29.0,24.0,-1305.0,-226.0,-81.0,-943.0,161.0
-4.0,-251.0,19.0,73.0,-1296.0,-225.0,-65.0,-953.0,179.0
-10.0,-257.0,31.0,134.0,-1279.0,-224.0,-47.0,-965.0,211.0
0.0,-246.0,47.0,188.0,-1263.0,-222.0,-57.0,-965.0,239.0
-6.0,-249.0,55.0,239.0,-1247.0,-225.0,-47.0,-963.0,266.0
5.0,-241.0,64.0,284.0,-1171.0,-259.0,-46.0,-948.0,292.0
-13.0,-246.0,61.0,320.0,-1074.0,-276.0,-84.0,-945.0,329.0
-25.0,-248.0,70.0,351.0,-1092.0,-274.0,-116.0,-923.0,335.0
-15.0,-243.0,73.0,391.0,-1133.0,-286.0,-104.0,-925.0,343.0
4.0,-246.0,72.0,419.0,-1124.0,-290.0,-30.0,-924.0,353.0
-10.0,-235.0,79.0,445.0,-1044.0,-340.0,-72.0,-902.0,362.0
-50.0,-241.0,80.0,464.0,-981.0,-356.0,-149.0,-887.0,359.0
-28.0,-245.0,79.0,472.0,-1011.0,-351.0,-106.0,-899.0,380.0
-6.0,-228.0,90.0,489.0,-1045.0,-344.0,-88.0,-898.0,381.0
24.0,-236.0,100.0,503.0,-1035.0,-341.0,-35.0,-904.0,407.0
-3.0,-238.0,103.0,535.0,-949.0,-396.0,28.0,-899.0,418.0
-23.0,-217.0,96.0,555.0,-851.0,-408.0,-97.0,-878.0,409.0
-38.0,-231.0,87.0,536.0,-887.0,-389.0,-71.0,-883.0,399.0
-7.0,-230.0,111.0,529.0,-905.0,-390.0,-59.0,-880.0,410.0
-5.0,-245.0,105.0,525.0,-869.0,-392.0,-55.0,-884.0,419.0
-9.0,-236.0,92.0,520.0,-837.0,-399.0,-59.0,-880.0,406.0
-7.0,-229.0,86.0,514.0,-797.0,-406.0,-60.0,-882.0,416.0
-3.0,-233.0,94.0,505.0,-760.0,-410.0,-56.0,-897.0,437.0
-1.0,-233.0,90.0,524.0,-659.0,-507.0,4.0,-900.0,448.0
-46.0,-226.0,107.0,550.0,-474.0,-514.0,-178.0,-864.0,443.0
-9.0,-244.0,97.0,511.0,-565.0,-453.0,-55.0,-911.0,477.0
-4.0,-233.0,98.0,511.0,-530.0,-470.0,-45.0,-908.0,447.0
-2.0,-237.0,107.0,504.0,-449.0,-471.0,-58.0,-908.0,471.0
-4.0,-244.0,97.0,500.0,-428.0,-467.0,-45.0,-916.0,460.0
-5.0,-245.0,102.0,500.0,-404.0,-468.0,-39.0,-913.0,461.0
-10.0,-238.0,86.0,500.0,-375.0,-476.0,-61.0,-919.0,452.0
10.0,-254.0,92.0,486.0,-357.0,-475.0,-20.0,-934.0,446.0
-13.0,-252.0,76.0,478.0,-309.0,-493.0,-27.0,-936.0,405.0
-4.0,-246.0,89.0,464.0,-259.0,-498.0,-43.0,-952.0,423.0
-2.0,-252.0,78.0,443.0,-207.0,-507.0,-23.0,-963.0,403.0
-1.0,-237.0,73.0,428.0,-157.0,-514.0,-80.0,-955.0,391.0
2.0,-256.0,70.0,414.0,-130.0,-512.0,-10.0,-987.0,377.0
5.0,-261.0,75.0,406.0,-103.0,-506.0,-26.0,-1008.0,359.0
6.0,-269.0,74.0,401.0,-85.0,-494.0,-12.0,-1022.0,365.0
1.0,-265.0,63.0,422.0,-41.0,-497.0,-29.0,-1029.0,337.0
12.0,-272.0,70.0,428.0,-20.0,-478.0,-3.0,-1043.0,342.0
3.0,-273.0,69.0,431.0,5.0,-478.0,-14.0,-1033.0,337.0
21.0,-271.0,77.0,431.0,23.0,-470.0,18.0,-1037.0,323.0
10.0,-264.0,73.0,426.0,51.0,-471.0,14.0,-1023.0,318.0
22.0,-262.0,63.0,418.0,58.0,-464.0,42.0,-1034.0,320.0
17.0,-251.0,60.0,423.0,76.0,-472.0,34.0,-1010.0,288.0
9.0,-250.0,48.0,417.0,85.0,-477.0,15.0,-990.0,269.0
33.0,-257.0,53.0,391.0,79.0,-483.0,64.0,-998.0,269.0
11.0,-249.0,42.0,382.0,102.0,-502.0,14.0,-968.0,222.0
13.0,-249.0,66.0,354.0,126.0,-503.0,31.0,-970.0,255.0
36.0,-266.0,58.0,326.0,156.0,-498.0,96.0,-1006.0,248.0
22.0,-248.0,39.0,302.0,186.0,-486.0,50.0,-992.0,231.0
14.0,-264.0,37.0,272.0,242.0,-479.0,20.0,-987.0,235.0
23.0,-262.0,50.0,277.0,254.0,-480.0,65.0,-1008.0,264.0
10.0,-253.0,39.0,311.0,272.0,-490.0,53.0,-1000.0,229.0
28.0,-259.0,53.0,324.0,290.0,-478.0,68.0,-1003.0,248.0
3.0,-253.0,52.0,342.0,320.0,-462.0,26.0,-978.0,267.0
25.0,-254.0,32.0,363.0,352.0,-456.0,-38.0,-964.0,255.0
-1.0,-247.0,44.0,377.0,365.0,-436.0,13.0,-983.0,272.0
-4.0,-255.0,47.0,385.0,372.0,-424.0,-13.0,-977.0,252.0
10.0,-247.0,62.0,392.0,368.0,-411.0,-18.0,-970.0,253.0
9.0,-253.0,44.0,401.0,358.0,-394.0,-11.0,-970.0,235.0
18.0,-251.0,35.0,401.0,354.0,-367.0,20.0,-983.0,240.0
11.0,-262.0,44.0,408.0,368.0,-353.0,-2.0,-978.0,243.0
5.0,-260.0,46.0,414.0,377.0,-334.0,-11.0,-971.0,255.0
-4.0,-259.0,68.0,417.0,380.0,-324.0,0.0,-972.0,256.0
-5.0,-247.0,45.0,422.0,399.0,-321.0,-27.0,-961.0,244.0
-11.0,-255.0,53.0,414.0,415.0,-311.0,-43.0,-951.0,248.0
-8.0,-245.0,50.0,403.0,424.0,-293.0,-53.0,-943.0,250.0
-17.0,-242.0,44.0,406.0,420.0,-281.0,-85.0,-928.0,245.0
-6.0,-242.0,46.0,401.0,405.0,-254.0,-50.0,-927.0,253.0
-1.0,-238.0,49.0,379.0,405.0,-234.0,-28.0,-923.0,258.0
-1.0,-236.0,45.0,347.0,413.0,-226.0,-25.0,-920.0,245.0
13.0,-247.0,36.0,315.0,433.0,-218.0,11.0,-929.0,243.0
11.0,-243.0,42.0,285.0,459.0,-217.0,-8.0,-931.0,236.0
-3.0,-246.0,53.0,271.0,479.0,-208.0,-18.0,-937.0,246.0
5.0,-251.0,40.0,275.0,495.0,-204.0,-16.0,-950.0,246.0
-9.0,-249.0,46.0,287.0,511.0,-199.0,-54.0,-951.0,259.0
-4.0,-251.0,55.0,295.0,509.0,-189.0,-41.0,-953.0,261.0
-9.0,-251.0,45.0,298.0,508.0,-187.0,-59.0,-951.0,260.0
-3.0,-248.0,55.0,302.0,499.0,-184.0,-69.0,-949.0,263.0
6.0,-253.0,41.0,313.0,486.0,-180.0,-1.0,-953.0,258.0
7.0,-253.0,39.0,321.0,493.0,-196.0,-11.0,-956.0,246.0
4.0,-248.0,47.0,316.0,497.0,-209.0,-3.0,-956.0,245.0
2.0,-248.0,50.0,321.0,506.0,-248.0,-37.0,-946.0,271.0
-16.0,-239.0,58.0,350.0,501.0,-281.0,-83.0,-916.0,289.0
-11.0,-233.0,66.0,372.0,473.0,-250.0,-65.0,-906.0,312.0
-14.0,-235.0,63.0,381.0,449.0,-213.0,-62.0,-898.0,333.0
-4.0,-228.0,67.0,373.0,405.0,-204.0,-29.0,-904.0,340.0
-2.0,-238.0,67.0,350.0,386.0,-217.0,-25.0,-906.0,329.0
-20.0,-236.0,75.0,312.0,384.0,-231.0,-70.0,-908.0,346.0
-12.0,-252.0,73.0,301.0,361.0,-228.0,-62.0,-930.0,361.0
-12.0,-249.0,73.0,312.0,337.0,-236.0,-79.0,-935.0,362.0
-20.0,-249.0,79.0,330.0,317.0,-233.0,-86.0,-953.0,363.0
-12.0,-253.0,80.0,350.0,286.0,-227.0,-81.0,-954.0,383.0
-20.0,-254.0,82.0,370.0,265.0,-229.0,-103.0,-953.0,385.0
-10.0,-259.0,92.0,391.0,233.0,-227.0,-93.0,-952.0,418.0
-11.0,-248.0,91.0,420.0,196.0,-225.0,-69.0,-948.0,420.0
-9.0,-244.0,90.0,450.0,168.0,-235.0,-58.0,-934.0,432.0
-12.0,-243.0,94.0,476.0,135.0,-233.0,-62.0,-920.0,444.0
-13.0,-235.0,95.0,498.0,108.0,-232.0,-79.0,-906.0,435.0
-20.0,-220.0,108.0,502.0,70.0,-216.0,-77.0,-900.0,442.0
-4.0,-232.0,86.0,491.0,25.0,-201.0,-31.0,-901.0,412.0
-1.0,-235.0,80.0,452.0,0.0,-182.0,-22.0,-913.0,394.0
5.0,-237.0,84.0,403.0,-28.0,-169.0,-10.0,-918.0,401.0
0.0,-240.0,81.0,376.0,-38.0,-159.0,-23.0,-917.0,406.0
-12.0,-235.0,93.0,367.0,-37.0,-141.0,-71.0,-900.0,420.0
-14.0,-230.0,91.0,361.0,-51.0,-109.0,-79.0,-882.0,435.0
-4.0,-226.0,89.0,343.0,-75.0,-80.0,-39.0,-873.0,420.0
9.0,-229.0,83.0,309.0,-88.0,-59.0,-2.0,-883.0,404.0
17.0,-228.0,88.0,268.0,-101.0,-45.0,17.0,-900.0,404.0
10.0,-237.0,83.0,252.0,-105.0,-30.0,9.0,-903.0,406.0
10.0,-238.0,85.0,261.0,-108.0,-19.0,13.0,-913.0,404.0
10.0,-241.0,88.0,281.0,-126.0,-7.0,16.0,-920.0,402.0
10.0,-238.0,77.0,308.0,-131.0,-3.0,14.0,-909.0,381.0
16.0,-234.0,87.0,336.0,-126.0,1.0,17.0,-905.0,379.0
14.0,-236.0,78.0,360.0,-122.0,0.0,35.0,-901.0,374.0
22.0,-231.0,72.0,372.0,-121.0,-4.0,46.0,-887.0,362.0
20.0,-231.0,76.0,369.0,-111.0,-14.0,44.0,-883.0,358.0
20.0,-230.0,75.0,360.0,-96.0,-21.0,57.0,-883.0,362.0
22.0,-232.0,82.0,352.0,-84.0,-30.0,66.0,-885.0,383.0
22.0,-232.0,87.0,347.0,-79.0,-37.0,50.0,-891.0,414.0
15.0,-233.0,87.0,340.0,-79.0,-52.0,43.0,-901.0,418.0
21.0,-234.0,92.0,312.0,-75.0,-63.0,50.0,-903.0,442.0
16.0,-243.0,96.0,280.0,-65.0,-76.0,42.0,-918.0,443.0
11.0,-244.0,96.0,260.0,-62.0,-84.0,20.0,-932.0,451.0
13.0,-242.0,96.0,248.0,-64.0,-98.0,24.0,-933.0,452.0
16.0,-242.0,97.0,241.0,-67.0,-109.0,44.0,-931.0,445.0
14.0,-240.0,105.0,233.0,-72.0,-131.0,28.0,-920.0,461.0
25.0,-241.0,105.0,223.0,-67.0,-155.0,24.0,-934.0,485.0
3.0,-238.0,108.0,229.0,-66.0,-243.0,-8.0,-899.0,505.0
3.0,-224.0,114.0,260.0,-100.0,-268.0,-3.0,-863.0,492.0
22.0,-219.0,100.0,285.0,-126.0,-195.0,52.0,-842.0,457.0
31.0,-218.0,101.0,300.0,-108.0,-113.0,97.0,-841.0,445.0
31.0,-211.0,94.0,307.0,-87.0,-98.0,104.0,-828.0,440.0
42.0,-214.0,96.0,302.0,-79.0,-98.0,133.0,-825.0,455.0
42.0,-214.0,94.0,289.0,-67.0,-99.0,126.0,-833.0,458.0
39.0,-215.0,103.0,255.0,-31.0,-107.0,109.0,-844.0,467.0
28.0,-215.0,111.0,216.0,13.0,-133.0,102.0,-833.0,498.0
22.0,-212.0,116.0,188.0,32.0,-175.0,59.0,-828.0,531.0
20.0,-216.0,125.0,182.0,43.0,-171.0,51.0,-826.0,553.0
22.0,-211.0,125.0,185.0,53.0,-126.0,62.0,-827.0,554.0
32.0,-216.0,129.0,180.0,68.0,-87.0,100.0,-835.0,565.0
26.0,-213.0,129.0,172.0,77.0,-73.0,79.0,-826.0,574.0
26.0,-213.0,122.0,154.0,93.0,-64.0,78.0,-834.0,561.0
19.0,-219.0,115.0,129.0,104.0,-65.0,56.0,-847.0,531.0
17.0,-224.0,118.0,103.0,90.0,-68.0,43.0,-853.0,532.0
18.0,-233.0,124.0,89.0,76.0,-77.0,44.0,-883.0,558.0
6.0,-225.0,104.0,94.0,79.0,-87.0,15.0,-883.0,521.0
6.0,-226.0,110.0,48.0,53.0,-100.0,4.0,-857.0,511.0
9.0,-232.0,117.0,11.0,-1.0,-108.0,9.0,-887.0,524.0
9.0,-234.0,114.0,23.0,-27.0,-112.0,13.0,-887.0,514.0
13.0,-233.0,104.0,57.0,-38.0,-110.0,33.0,-881.0,479.0
20.0,-229.0,100.0,87.0,-51.0,-109.0,49.0,-876.0,467.0
25.0,-227.0,99.0,115.0,-60.0,-107.0,60.0,-866.0,459.0
25.0,-220.0,97.0,141.0,-56.0,-106.0,71.0,-852.0,449.0
26.0,-214.0,96.0,153.0,-53.0,-98.0,79.0,-833.0,447.0
27.0,-206.0,99.0,138.0,-53.0,-94.0,85.0,-812.0,453.0
31.0,-209.0,102.0,113.0,-59.0,-85.0,93.0,-807.0,476.0
28.0,-206.0,106.0,104.0,-66.0,-76.0,95.0,-803.0,462.0
21.0,-201.0,98.0,89.0,-68.0,-62.0,68.0,-785.0,460.0
16.0,-201.0,103.0,63.0,-75.0,-43.0,39.0,-784.0,474.0
21.0,-206.0,100.0,36.0,-89.0,-20.0,59.0,-793.0,472.0
22.0,-209.0,99.0,13.0,-111.0,-1.0,66.0,-799.0,452.0
22.0,-208.0,91.0,-3.0,-120.0,24.0,63.0,-814.0,440.0
26.0,-210.0,96.0,-8.0,-117.0,47.0,78.0,-823.0,439.0
26.0,-210.0,99.0,-11.0,-116.0,81.0,79.0,-825.0,449.0
35.0,-220.0,96.0,-10.0,-120.0,105.0,107.0,-851.0,444.0
33.0,-226.0,98.0,-22.0,-122.0,117.0,100.0,-863.0,454.0
21.0,-224.0,101.0,-33.0,-118.0,125.0,72.0,-867.0,464.0
22.0,-234.0,103.0,-44.0,-123.0,132.0,62.0,-890.0,473.0
28.0,-239.0,106.0,-54.0,-127.0,132.0,81.0,-909.0,489.0
30.0,-244.0,107.0,-55.0,-143.0,125.0,96.0,-931.0,490.0
36.0,-252.0,107.0,-50.0,-157.0,111.0,111.0,-950.0,505.0
44.0,-256.0,119.0,-35.0,-179.0,100.0,137.0,-972.0,527.0
45.0,-259.0,118.0,-10.0,-200.0,91.0,149.0,-996.0,523.0
52.0,-264.0,112.0,22.0,-208.0,84.0,164.0,-1017.0,516.0
48.0,-264.0,117.0,56.0,-213.0,69.0,170.0,-1027.0,533.0
39.0,-265.0,130.0,104.0,-221.0,57.0,134.0,-1027.0,575.0
47.0,-263.0,131.0,154.0,-235.0,56.0,138.0,-1004.0,576.0
41.0,-256.0,120.0,218.0,-242.0,44.0,123.0,-967.0,540.0
35.0,-242.0,108.0,264.0,-247.0,39.0,104.0,-913.0,513.0
36.0,-232.0,103.0,299.0,-256.0,38.0,101.0,-892.0,476.0
24.0,-222.0,98.0,321.0,-249.0,34.0,77.0,-866.0,448.0
22.0,-217.0,97.0,323.0,-235.0,29.0,57.0,-846.0,445.0
18.0,-211.0,95.0,313.0,-222.0,26.0,51.0,-829.0,448.0
21.0,-211.0,92.0,310.0,-207.0,32.0,59.0,-821.0,440.0
22.0,-212.0,93.0,312.0,-194.0,39.0,67.0,-812.0,453.0
21.0,-206.0,97.0,333.0,-172.0,38.0,65.0,-806.0,451.0
22.0,-207.0,100.0,336.0,-148.0,40.0,55.0,-805.0,460.0
15.0,-205.0,106.0,313.0,-131.0,40.0,43.0,-805.0,487.0
14.0,-214.0,115.0,282.0,-130.0,51.0,55.0,-840.0,541.0
20.0,-226.0,115.0,280.0,-129.0,53.0,64.0,-868.0,536.0
13.0,-227.0,115.0,300.0,-140.0,57.0,21.0,-869.0,520.0
7.0,-214.0,108.0,303.0,-166.0,63.0,10.0,-846.0,510.0
12.0,-220.0,113.0,272.0,-190.0,65.0,19.0,-855.0,517.0
9.0,-225.0,108.0,244.0,-206.0,71.0,20.0,-880.0,510.0
19.0,-233.0,108.0,244.0,-235.0,89.0,41.0,-888.0,496.0
21.0,-238.0,102.0,270.0,-249.0,94.0,38.0,-905.0,452.0
7.0,-238.0,94.0,297.0,-241.0,95.0,8.0,-909.0,452.0
18.0,-239.0,104.0,333.0,-221.0,87.0,40.0,-922.0,457.0
4.0,-237.0,100.0,368.0,-192.0,84.0,0.0,-907.0,442.0
0.0,-237.0,92.0,389.0,-189.0,96.0,9.0,-920.0,435.0
5.0,-238.0,90.0,392.0,-196.0,107.0,-6.0,-914.0,420.0
15.0,-242.0,101.0,393.0,-204.0,119.0,21.0,-910.0,459.0
10.0,-240.0,97.0,417.0,-202.0,131.0,26.0,-917.0,470.0
6.0,-234.0,100.0,442.0,-211.0,142.0,-10.0,-898.0,478.0
5.0,-233.0,109.0,445.0,-224.0,161.0,-1.0,-885.0,499.0
14.0,-223.0,116.0,442.0,-239.0,171.0,16.0,-852.0,525.0
11.0,-215.0,116.0,439.0,-254.0,185.0,16.0,-834.0,526.0
7.0,-209.0,120.0,434.0,-254.0,207.0,-2.0,-803.0,522.0
4.0,-207.0,114.0,427.0,-254.0,231.0,10.0,-813.0,538.0
0.0,-204.0,115.0,425.0,-272.0,248.0,-15.0,-782.0,507.0
3.0,-194.0,109.0,418.0,-289.0,274.0,-11.0,-778.0,474.0
4.0,-197.0,104.0,398.0,-298.0,299.0,9.0,-760.0,487.0
6.0,-193.0,94.0,393.0,-293.0,317.0,3.0,-745.0,451.0
2.0,-193.0,92.0,380.0,-286.0,328.0,-14.0,-738.0,437.0
11.0,-193.0,105.0,348.0,-307.0,342.0,7.0,-747.0,470.0
16.0,-196.0,115.0,323.0,-320.0,337.0,44.0,-755.0,526.0
21.0,-200.0,130.0,302.0,-317.0,333.0,51.0,-769.0,582.0
35.0,-202.0,145.0,266.0,-335.0,337.0,96.0,-782.0,638.0
20.0,-198.0,133.0,239.0,-343.0,347.0,60.0,-793.0,599.0
33.0,-216.0,131.0,184.0,-388.0,379.0,106.0,-832.0,592.0
36.0,-232.0,130.0,172.0,-409.0,392.0,114.0,-887.0,574.0
35.0,-238.0,126.0,194.0,-435.0,398.0,110.0,-906.0,566.0
48.0,-243.0,123.0,233.0,-473.0,407.0,155.0,-929.0,574.0
52.0,-243.0,119.0,287.0,-478.0,416.0,165.0,-921.0,532.0
57.0,-259.0,116.0,318.0,-460.0,440.0,113.0,-1009.0,503.0
84.0,-237.0,145.0,346.0,-411.0,449.0,297.0,-880.0,639.0
62.0,-217.0,121.0,470.0,-420.0,425.0,224.0,-847.0,560.0
79.0,-208.0,132.0,492.0,-445.0,434.0,284.0,-809.0,584.0
73.0,-193.0,139.0,458.0,-463.0,463.0,253.0,-734.0,602.0
90.0,-184.0,154.0,433.0,-453.0,440.0,304.0,-707.0,676.0
76.0,-171.0,131.0,424.0,-393.0,406.0,266.0,-667.0,628.0
81.0,-165.0,136.0,390.0,-338.0,362.0,291.0,-660.0,620.0
71.0,-162.0,131.0,323.0,-274.0,329.0,247.0,-640.0,568.0
66.0,-164.0,126.0,240.0,-227.0,296.0,227.0,-634.0,584.0
74.0,-169.0,121.0,179.0,-185.0,258.0,249.0,-657.0,563.0
64.0,-172.0,120.0,145.0,-121.0,209.0,213.0,-657.0,571.0
50.0,-155.0,115.0,116.0,-57.0,171.0,174.0,-621.0,533.0
23.0,-203.0,89.0,41.0,-22.0,144.0,105.0,-737.0,492.0
71.0,-156.0,153.0,-125.0,60.0,119.0,247.0,-586.0,615.0
68.0,-136.0,127.0,-101.0,67.0,41.0,263.0,-544.0,609.0
61.0,-148.0,105.0,-66.0,25.0,-23.0,204.0,-585.0,506.0
63.0,-160.0,114.0,-170.0,31.0,-38.0,219.0,-628.0,515.0
66.0,-177.0,120.0,-254.0,39.0,-50.0,229.0,-699.0,560.0
65.0,-191.0,132.0,-285.0,58.0,-59.0,229.0,-737.0,582.0
59.0,-199.0,132.0,-278.0,80.0,-69.0,208.0,-780.0,590.0
53.0,-210.0,136.0,-250.0,102.0,-75.0,180.0,-794.0,611.0
41.0,-209.0,139.0,-219.0,130.0,-74.0,136.0,-808.0,615.0
49.0,-224.0,144.0,-194.0,157.0,-63.0,143.0,-837.0,646.0
21.0,-208.0,135.0,-153.0,206.0,-71.0,66.0,-809.0,602.0
30.0,-205.0,130.0,-140.0,212.0,-55.0,92.0,-795.0,579.0
33.0,-201.0,129.0,-141.0,228.0,-43.0,108.0,-780.0,573.0
45.0,-196.0,119.0,-146.0,251.0,-28.0,126.0,-759.0,542.0
47.0,-196.0,115.0,-150.0,278.0,-17.0,141.0,-760.0,528.0
43.0,-197.0,119.0,-162.0,302.0,-1.0,131.0,-775.0,521.0
34.0,-209.0,123.0,-186.0,330.0,9.0,107.0,-794.0,555.0
33.0,-211.0,120.0,-189.0,347.0,22.0,99.0,-819.0,548.0
32.0,-213.0,119.0,-176.0,366.0,33.0,97.0,-823.0,532.0
33.0,-216.0,114.0,-154.0,390.0,53.0,94.0,-824.0,525.0
34.0,-216.0,118.0,-128.0,407.0,66.0,104.0,-840.0,504.0
27.0,-217.0,110.0,-106.0,421.0,78.0,85.0,-842.0,521.0
26.0,-223.0,118.0,-100.0,439.0,87.0,70.0,-857.0,531.0
33.0,-234.0,117.0,-98.0,454.0,95.0,104.0,-901.0,529.0
36.0,-246.0,120.0,-94.0,469.0,90.0,116.0,-932.0,538.0
33.0,-257.0,127.0,-71.0,483.0,96.0,100.0,-969.0,545.0
19.0,-258.0,134.0,-42.0,490.0,101.0,47.0,-992.0,592.0
12.0,-259.0,149.0,-12.0,487.0,102.0,10.0,-979.0,645.0
4.0,-251.0,149.0,16.0,468.0,92.0,-4.0,-950.0,656.0
6.0,-232.0,140.0,29.0,441.0,84.0,-6.0,-895.0,638.0
4.0,-221.0,134.0,36.0,405.0,73.0,-4.0,-854.0,594.0
2.0,-217.0,125.0,30.0,367.0,70.0,-7.0,-824.0,575.0
-19.0,-246.0,121.0,-1.0,339.0,48.0,-106.0,-958.0,524.0
6.0,-186.0,142.0,-91.0,325.0,6.0,16.0,-694.0,643.0
7.0,-180.0,123.0,-9.0,278.0,-13.0,-1.0,-690.0,541.0
3.0,-191.0,127.0,-21.0,266.0,6.0,2.0,-733.0,555.0
5.0,-194.0,126.0,-69.0,245.0,13.0,-5.0,-756.0,560.0
5.0,-202.0,129.0,-102.0,226.0,12.0,0.0,-783.0,561.0
3.0,-210.0,132.0,-125.0,203.0,7.0,-14.0,-801.0,569.0
-2.0,-208.0,129.0,-137.0,180.0,5.0,-18.0,-809.0,579.0
-3.0,-214.0,129.0,-145.0,155.0,-1.0,-26.0,-828.0,575.0
0.0,-219.0,128.0,-154.0,134.0,-7.0,-25.0,-836.0,579.0
0.0,-216.0,128.0,-155.0,112.0,-9.0,-18.0,-838.0,571.0
-1.0,-238.0,117.0,-145.0,94.0,-8.0,3.0,-912.0,525.0
-1.0,-202.0,127.0,-144.0,72.0,-14.0,-14.0,-769.0,570.0
1.0,-200.0,117.0,-57.0,69.0,32.0,-18.0,-764.0,532.0
0.0,-199.0,125.0,-34.0,80.0,83.0,-25.0,-760.0,556.0
-6.0,-197.0,123.0,-23.0,77.0,115.0,-57.0,-755.0,559.0
-14.0,-194.0,130.0,-23.0,74.0,141.0,-85.0,-744.0,569.0
-20.0,-191.0,127.0,-39.0,63.0,161.0,-99.0,-733.0,579.0
-17.0,-189.0,125.0,-64.0,43.0,175.0,-105.0,-723.0,557.0
-19.0,-188.0,123.0,-97.0,22.0,184.0,-97.0,-724.0,542.0
-13.0,-190.0,118.0,-127.0,2.0,192.0,-86.0,-740.0,525.0
-12.0,-198.0,123.0,-160.0,-17.0,191.0,-76.0,-758.0,539.0
-11.0,-204.0,121.0,-181.0,-34.0,184.0,-63.0,-785.0,563.0
-9.0,-209.0,131.0,-193.0,-57.0,174.0,-66.0,-796.0,569.0
-6.0,-207.0,129.0,-190.0,-85.0,179.0,-41.0,-801.0,573.0
0.0,-211.0,127.0,-176.0,-105.0,192.0,-24.0,-809.0,567.0
4.0,-214.0,128.0,-161.0,-120.0,207.0,-1.0,-822.0,574.0
5.0,-214.0,130.0,-150.0,-135.0,217.0,4.0,-832.0,581.0
12.0,-213.0,127.0,-148.0,-148.0,229.0,17.0,-827.0,568.0
11.0,-210.0,122.0,-159.0,-162.0,237.0,28.0,-818.0,532.0
21.0,-206.0,109.0,-179.0,-169.0,247.0,55.0,-810.0,508.0
26.0,-205.0,100.0,-208.0,-167.0,252.0,70.0,-800.0,464.0
26.0,-204.0,93.0,-240.0,-162.0,260.0,75.0,-795.0,439.0
29.0,-205.0,89.0,-269.0,-147.0,262.0,86.0,-797.0,420.0
21.0,-208.0,91.0,-291.0,-125.0,265.0,69.0,-805.0,432.0
20.0,-215.0,93.0,-301.0,-104.0,259.0,64.0,-829.0,424.0
17.0,-217.0,93.0,-298.0,-85.0,258.0,40.0,-839.0,436.0
12.0,-221.0,97.0,-279.0,-64.0,256.0,20.0,-842.0,445.0
10.0,-226.0,96.0,-258.0,-50.0,266.0,7.0,-859.0,468.0
8.0,-231.0,110.0,-226.0,-44.0,284.0,13.0,-887.0,496.0
18.0,-240.0,94.0,-188.0,-37.0,310.0,32.0,-923.0,472.0
14.0,-244.0,111.0,-161.0,-43.0,341.0,22.0,-919.0,502.0
17.0,-239.0,122.0,-127.0,-41.0,360.0,28.0,-905.0,542.0
16.0,-234.0,118.0,-89.0,-47.0,376.0,47.0,-908.0,531.0
27.0,-231.0,129.0,-89.0,-51.0,412.0,76.0,-883.0,566.0
25.0,-228.0,123.0,-87.0,-53.0,446.0,73.0,-869.0,558.0
23.0,-222.0,124.0,-96.0,-45.0,485.0,66.0,-862.0,544.0
21.0,-222.0,124.0,-111.0,-30.0,524.0,59.0,-860.0,555.0
22.0,-224.0,126.0,-123.0,-17.0,560.0,50.0,-863.0,564.0
19.0,-226.0,127.0,-130.0,-4.0,592.0,45.0,-866.0,568.0
20.0,-228.0,130.0,-135.0,-9.0,614.0,45.0,-869.0,579.0
16.0,-222.0,128.0,-136.0,-11.0,627.0,46.0,-863.0,569.0
18.0,-225.0,126.0,-140.0,-6.0,645.0,35.0,-864.0,559.0
13.0,-226.0,124.0,-152.0,-7.0,658.0,24.0,-869.0,553.0
6.0,-224.0,123.0,-168.0,-5.0,662.0,3.0,-865.0,538.0
0.0,-220.0,119.0,-194.0,-8.0,660.0,-11.0,-857.0,532.0
3.0,-221.0,110.0,-227.0,-24.0,656.0,-9.0,-854.0,510.0
10.0,-228.0,106.0,-265.0,-28.0,647.0,14.0,-872.0,473.0
23.0,-235.0,96.0,-287.0,-16.0,634.0,56.0,-895.0,455.0
24.0,-241.0,100.0,-304.0,5.0,619.0,56.0,-909.0,445.0
25.0,-246.0,92.0,-303.0,22.0,610.0,67.0,-929.0,433.0
29.0,-247.0,99.0,-291.0,42.0,597.0,76.0,-951.0,453.0
35.0,-253.0,99.0,-268.0,59.0,588.0,101.0,-954.0,468.0
32.0,-254.0,109.0,-231.0,81.0,567.0,92.0,-952.0,499.0
13.0,-245.0,110.0,-194.0,91.0,548.0,30.0,-934.0,500.0
26.0,-242.0,118.0,-169.0,86.0,538.0,84.0,-939.0,528.0
25.0,-236.0,116.0,-138.0,92.0,502.0,60.0,-901.0,537.0
18.0,-225.0,126.0,-109.0,99.0,468.0,44.0,-862.0,545.0
6.0,-219.0,124.0,-90.0,99.0,443.0,-10.0,-835.0,552.0
-7.0,-204.0,121.0,-82.0,84.0,440.0,-48.0,-797.0,534.0
1.0,-204.0,110.0,-85.0,68.0,443.0,-23.0,-793.0,514.0
2.0,-200.0,113.0,-89.0,82.0,426.0,-23.0,-775.0,505.0
-17.0,-192.0,113.0,-99.0,96.0,418.0,-103.0,-738.0,510.0
-14.0,-192.0,107.0,-112.0,90.0,431.0,-89.0,-733.0,489.0
-24.0,-191.0,110.0,-134.0,75.0,442.0,-117.0,-729.0,511.0
-30.0,-188.0,105.0,-155.0,47.0,461.0,-121.0,-728.0,494.0
-17.0,-197.0,109.0,-176.0,20.0,489.0,-133.0,-744.0,493.0
-34.0,-197.0,99.0,-193.0,8.0,503.0,-151.0,-758.0,476.0
-24.0,-205.0,102.0,-205.0,-1.0,504.0,-116.0,-789.0,468.0
-16.0,-211.0,106.0,-209.0,11.0,508.0,-103.0,-809.0,478.0
-23.0,-214.0,97.0,-201.0,23.0,503.0,-105.0,-835.0,452.0
-7.0,-231.0,99.0,-194.0,36.0,502.0,-63.0,-874.0,468.0
-13.0,-232.0,106.0,-180.0,56.0,488.0,-92.0,-886.0,474.0
-20.0,-228.0,106.0,-169.0,70.0,474.0,-91.0,-890.0,488.0
-11.0,-237.0,106.0,-151.0,79.0,447.0,-88.0,-901.0,497.0
-23.0,-237.0,109.0,-137.0,91.0,428.0,-131.0,-898.0,507.0
-23.0,-232.0,120.0,-126.0,89.0,407.0,-110.0,-893.0,533.0
-27.0,-223.0,117.0,-113.0,99.0,379.0,-129.0,-861.0,543.0
-31.0,-215.0,125.0,-96.0,112.0,344.0,-140.0,-831.0,554.0
-25.0,-204.0,114.0,-90.0,109.0,338.0,-135.0,-791.0,519.0
-12.0,-205.0,102.0,-98.0,117.0,337.0,-90.0,-798.0,491.0
-31.0,-197.0,97.0,-104.0,158.0,331.0,-123.0,-777.0,452.0
-14.0,-209.0,96.0,-120.0,153.0,341.0,-113.0,-789.0,445.0
-8.0,-215.0,94.0,-121.0,178.0,342.0,-79.0,-823.0,407.0
-41.0,-208.0,88.0,-118.0,215.0,339.0,-174.0,-819.0,428.0
-37.0,-218.0,88.0,-136.0,210.0,364.0,-167.0,-845.0,415.0
-47.0,-215.0,90.0,-136.0,226.0,362.0,-201.0,-846.0,426.0
-34.0,-230.0,102.0,-150.0,221.0,371.0,-177.0,-871.0,469.0
-42.0,-233.0,107.0,-168.0,231.0,366.0,-191.0,-887.0,485.0
-63.0,-229.0,107.0,-174.0,268.0,342.0,-266.0,-888.0,494.0
-58.0,-237.0,108.0,-195.0,241.0,344.0,-262.0,-905.0,499.0
-52.0,-245.0,110.0,-209.0,215.0,341.0,-240.0,-929.0,489.0
-54.0,-249.0,104.0,-209.0,199.0,330.0,-225.0,-951.0,482.0
-44.0,-256.0,106.0,-195.0,190.0,321.0,-212.0,-966.0,473.0
-48.0,-256.0,101.0,-176.0,186.0,316.0,-215.0,-974.0,464.0
-41.0,-260.0,103.0,-155.0,184.0,312.0,-195.0,-1002.0,463.0
-41.0,-262.0,98.0,-121.0,176.0,308.0,-192.0,-1004.0,449.0
-44.0,-258.0,98.0,-93.0,179.0,300.0,-197.0,-984.0,459.0
-44.0,-255.0,98.0,-57.0,179.0,284.0,-201.0,-969.0,453.0
-45.0,-251.0,99.0,-42.0,178.0,272.0,-206.0,-947.0,451.0
4.0,-266.0,100.0,-28.0,191.0,228.0,-39.0,-986.0,471.0
-83.0,-225.0,94.0,31.0,277.0,143.0,-320.0,-874.0,434.0
-57.0,-227.0,106.0,-1.0,213.0,176.0,-255.0,-858.0,486.0
-50.0,-222.0,97.0,-17.0,178.0,172.0,-232.0,-845.0,444.0
-40.0,-217.0,97.0,-5.0,178.0,136.0,-178.0,-833.0,456.0
-64.0,-207.0,93.0,8.0,204.0,97.0,-258.0,-804.0,420.0
-54.0,-213.0,91.0,0.0,194.0,96.0,-245.0,-814.0,421.0
-53.0,-220.0,93.0,-12.0,181.0,92.0,-234.0,-833.0,432.0
-59.0,-219.0,91.0,-14.0,179.0,86.0,-242.0,-838.0,437.0
-64.0,-219.0,90.0,-10.0,173.0,82.0,-285.0,-840.0,436.0
-66.0,-219.0,103.0,-11.0,154.0,89.0,-289.0,-834.0,468.0
-62.0,-210.0,103.0,-7.0,112.0,95.0,-260.0,-809.0,470.0
-60.0,-205.0,99.0,-11.0,85.0,102.0,-259.0,-792.0,454.0
-65.0,-197.0,89.0,-19.0,66.0,112.0,-274.0,-762.0,424.0
-56.0,-199.0,83.0,-40.0,41.0,128.0,-229.0,-789.0,407.0
-62.0,-204.0,84.0,-56.0,46.0,120.0,-259.0,-791.0,392.0
-59.0,-212.0,88.0,-78.0,50.0,124.0,-256.0,-821.0,409.0
-65.0,-217.0,90.0,-79.0,40.0,116.0,-275.0,-837.0,419.0
-67.0,-227.0,92.0,-72.0,31.0,112.0,-284.0,-876.0,434.0
-57.0,-240.0,94.0,-79.0,31.0,112.0,-258.0,-903.0,441.0
-60.0,-246.0,98.0,-61.0,36.0,104.0,-252.0,-923.0,450.0
-52.0,-258.0,95.0,-22.0,38.0,90.0,-255.0,-963.0,436.0
-60.0,-260.0,98.0,22.0,37.0,81.0,-242.0,-1004.0,443.0
-61.0,-265.0,108.0,55.0,34.0,67.0,-263.0,-1007.0,477.0
-61.0,-261.0,120.0,93.0,18.0,57.0,-260.0,-979.0,535.0
-61.0,-251.0,124.0,141.0,-12.0,46.0,-253.0,-938.0,540.0
-54.0,-238.0,115.0,184.0,-43.0,45.0,-221.0,-898.0,513.0
-44.0,-227.0,103.0,215.0,-60.0,38.0,-199.0,-863.0,476.0
-38.0,-218.0,93.0,232.0,-66.0,36.0,-179.0,-843.0,441.0
-29.0,-215.0,92.0,246.0,-56.0,11.0,-128.0,-833.0,424.0
-41.0,-209.0,91.0,256.0,-26.0,-40.0,-191.0,-803.0,428.0
-50.0,-204.0,94.0,254.0,-18.0,-62.0,-225.0,-797.0,435.0
-45.0,-205.0,96.0,246.0,-25.0,-43.0,-202.0,-790.0,451.0
-37.0,-206.0,100.0,228.0,-18.0,-40.0,-177.0,-800.0,453.0
-37.0,-212.0,99.0,209.0,5.0,-52.0,-178.0,-816.0,464.0
-37.0,-220.0,98.0,189.0,22.0,-72.0,-178.0,-838.0,465.0
-42.0,-226.0,101.0,179.0,35.0,-88.0,-188.0,-857.0,471.0
-39.0,-238.0,104.0,179.0,43.0,-104.0,-179.0,-893.0,487.0
-48.0,-241.0,110.0,190.0,42.0,-124.0,-213.0,-916.0,509.0
-51.0,-246.0,119.0,206.0,36.0,-141.0,-231.0,-920.0,530.0
-53.0,-249.0,130.0,227.0,31.0,-136.0,-237.0,-941.0,573.0
-53.0,-245.0,128.0,256.0,18.0,-131.0,-230.0,-927.0,576.0
-55.0,-242.0,129.0,284.0,-7.0,-131.0,-238.0,-915.0,574.0
-53.0,-235.0,128.0,315.0,-41.0,-135.0,-230.0,-895.0,569.0
-51.0,-228.0,120.0,354.0,-68.0,-139.0,-225.0,-883.0,545.0
-49.0,-221.0,112.0,378.0,-92.0,-145.0,-211.0,-860.0,528.0
-45.0,-215.0,115.0,399.0,-115.0,-143.0,-199.0,-835.0,524.0
-49.0,-212.0,110.0,409.0,-137.0,-135.0,-216.0,-818.0,502.0
-44.0,-207.0,110.0,405.0,-134.0,-116.0,-204.0,-815.0,474.0
-48.0,-212.0,100.0,353.0,-109.0,-75.0,-214.0,-831.0,468.0
-45.0,-222.0,111.0,272.0,-81.0,-13.0,-218.0,-859.0,486.0
-50.0,-229.0,107.0,225.0,-64.0,34.0,-217.0,-871.0,504.0
-53.0,-230.0,109.0,214.0,-63.0,56.0,-239.0,-886.0,502.0
-47.0,-239.0,117.0,199.0,-74.0,88.0,-200.0,-909.0,527.0
-41.0,-247.0,125.0,181.0,-84.0,124.0,-189.0,-938.0,553.0
-37.0,-251.0,126.0,203.0,-75.0,133.0,-173.0,-934.0,568.0
-35.0,-243.0,128.0,279.0,-89.0,93.0,-162.0,-910.0,568.0
-32.0,-231.0,127.0,369.0,-122.0,27.0,-153.0,-866.0,561.0
-29.0,-215.0,127.0,431.0,-147.0,-31.0,-137.0,-823.0,564.0
-22.0,-206.0,125.0,461.0,-148.0,-83.0,-121.0,-788.0,555.0
-20.0,-192.0,121.0,463.0,-153.0,-127.0,-109.0,-745.0,558.0
-20.0,-189.0,124.0,450.0,-151.0,-164.0,-106.0,-724.0,549.0
-31.0,-183.0,118.0,430.0,-144.0,-195.0,-120.0,-713.0,533.0
-26.0,-184.0,115.0,388.0,-150.0,-208.0,-118.0,-708.0,522.0
-30.0,-184.0,118.0,340.0,-139.0,-228.0,-136.0,-714.0,510.0
-30.0,-186.0,114.0,275.0,-130.0,-235.0,-139.0,-724.0,516.0
-27.0,-190.0,109.0,236.0,-130.0,-250.0,-132.0,-728.0,497.0
-29.0,-189.0,108.0,198.0,-128.0,-256.0,-144.0,-728.0,496.0
-30.0,-195.0,110.0,165.0,-120.0,-254.0,-134.0,-751.0,503.0
-26.0,-198.0,107.0,143.0,-110.0,-240.0,-125.0,-770.0,492.0
-27.0,-203.0,111.0,127.0,-94.0,-227.0,-127.0,-788.0,505.0
-24.0,-212.0,110.0,115.0,-76.0,-210.0,-119.0,-804.0,511.0
-23.0,-213.0,116.0,111.0,-65.0,-200.0,-112.0,-832.0,523.0
-29.0,-217.0,116.0,111.0,-63.0,-195.0,-142.0,-842.0,529.0
-29.0,-220.0,116.0,110.0,-58.0,-196.0,-137.0,-849.0,540.0
-30.0,-217.0,119.0,112.0,-56.0,-190.0,-135.0,-846.0,541.0
-26.0,-216.0,121.0,130.0,-61.0,-192.0,-123.0,-834.0,543.0
-20.0,-210.0,111.0,154.0,-61.0,-194.0,-117.0,-827.0,522.0
-25.0,-205.0,117.0,155.0,-48.0,-202.0,-122.0,-807.0,518.0
-19.0,-205.0,113.0,147.0,-46.0,-194.0,-107.0,-797.0,516.0
-14.0,-209.0,117.0,139.0,-42.0,-188.0,-92.0,-801.0,516.0
-15.0,-205.0,110.0,132.0,-33.0,-182.0,-88.0,-796.0,526.0
-15.0,-206.0,118.0,128.0,-27.0,-180.0,-90.0,-795.0,532.0
-12.0,-206.0,123.0,126.0,-23.0,-169.0,-64.0,-805.0,547.0
-12.0,-205.0,127.0,126.0,-22.0,-168.0,-83.0,-798.0,565.0
-23.0,-204.0,122.0,143.0,-12.0,-159.0,-107.0,-798.0,545.0
-20.0,-207.0,125.0,135.0,-7.0,-143.0,-102.0,-798.0,546.0
-12.0,-208.0,119.0,109.0,-12.0,-125.0,-97.0,-797.0,547.0
-14.0,-208.0,125.0,95.0,-11.0,-113.0,-71.0,-807.0,558.0
-11.0,-209.0,123.0,97.0,-10.0,-101.0,-62.0,-802.0,557.0
-8.0,-205.0,126.0,104.0,-4.0,-95.0,-48.0,-798.0,555.0
-10.0,-201.0,125.0,105.0,9.0,-87.0,-63.0,-788.0,570.0
-10.0,-199.0,129.0,104.0,15.0,-75.0,-56.0,-777.0,574.0
-6.0,-200.0,123.0,100.0,22.0,-61.0,-52.0,-770.0,578.0
-8.0,-198.0,131.0,92.0,34.0,-57.0,-58.0,-759.0,586.0
-9.0,-200.0,129.0,80.0,50.0,-49.0,-67.0,-762.0,584.0
-11.0,-198.0,129.0,70.0,50.0,-41.0,-61.0,-763.0,578.0
-7.0,-200.0,129.0,58.0,51.0,-38.0,-65.0,-776.0,573.0
-10.0,-202.0,130.0,43.0,55.0,-41.0,-57.0,-788.0,574.0
-7.0,-207.0,131.0,31.0,61.0,-46.0,-57.0,-797.0,583.0
-11.0,-209.0,131.0,33.0,61.0,-56.0,-67.0,-803.0,590.0
-11.0,-211.0,131.0,45.0,66.0,-61.0,-80.0,-808.0,582.0
-20.0,-208.0,130.0,52.0,74.0,-68.0,-100.0,-806.0,574.0
-16.0,-212.0,132.0,48.0,79.0,-67.0,-100.0,-821.0,572.0
-18.0,-213.0,132.0,43.0,77.0,-69.0,-97.0,-824.0,581.0
-12.0,-218.0,129.0,46.0,80.0,-74.0,-95.0,-830.0,574.0
-19.0,-214.0,131.0,51.0,87.0,-88.0,-96.0,-830.0,574.0
-16.0,-217.0,128.0,52.0,89.0,-102.0,-94.0,-832.0,580.0
-14.0,-217.0,133.0,47.0,93.0,-116.0,-73.0,-836.0,587.0
-12.0,-220.0,136.0,47.0,91.0,-130.0,-80.0,-841.0,594.0
-12.0,-220.0,129.0,58.0,100.0,-143.0,-90.0,-846.0,574.0
-17.0,-222.0,129.0,56.0,116.0,-152.0,-100.0,-846.0,576.0
-21.0,-220.0,128.0,58.0,129.0,-151.0,-105.0,-858.0,572.0
-15.0,-226.0,137.0,66.0,127.0,-150.0,-104.0,-859.0,584.0
-15.0,-221.0,131.0,89.0,126.0,-148.0,-90.0,-852.0,587.0
-15.0,-220.0,133.0,117.0,136.0,-147.0,-90.0,-842.0,592.0
-14.0,-214.0,134.0,137.0,140.0,-140.0,-85.0,-833.0,588.0
-12.0,-214.0,131.0,151.0,138.0,-132.0,-75.0,-823.0,582.0
-16.0,-207.0,122.0,165.0,144.0,-122.0,-92.0,-807.0,564.0
-20.0,-206.0,122.0,162.0,147.0,-111.0,-98.0,-799.0,562.0
-16.0,-207.0,124.0,150.0,141.0,-95.0,-100.0,-799.0,552.0
-15.0,-204.0,122.0,144.0,134.0,-87.0,-94.0,-794.0,552.0
-18.0,-200.0,117.0,139.0,138.0,-78.0,-100.0,-790.0,541.0
-21.0,-203.0,123.0,133.0,142.0,-70.0,-110.0,-785.0,543.0
-19.0,-202.0,120.0,125.0,140.0,-63.0,-119.0,-784.0,545.0
-22.0,-201.0,122.0,119.0,144.0,-60.0,-118.0,-784.0,548.0
-26.0,-203.0,123.0,111.0,143.0,-52.0,-117.0,-782.0,556.0
-24.0,-200.0,126.0,103.0,132.0,-51.0,-123.0,-768.0,562.0
-30.0,-199.0,120.0,106.0,129.0,-47.0,-136.0,-773.0,537.0
-29.0,-197.0,120.0,90.0,135.0,-43.0,-139.0,-768.0,546.0
-26.0,-202.0,120.0,70.0,138.0,-36.0,-134.0,-774.0,552.0
-27.0,-202.0,122.0,65.0,135.0,-36.0,-137.0,-782.0,562.0
-27.0,-200.0,124.0,65.0,134.0,-33.0,-136.0,-779.0,566.0
-30.0,-200.0,125.0,60.0,134.0,-33.0,-135.0,-776.0,569.0
-29.0,-201.0,123.0,53.0,134.0,-29.0,-135.0,-784.0,572.0
-28.0,-202.0,135.0,47.0,133.0,-32.0,-129.0,-783.0,585.0
-29.0,-202.0,134.0,44.0,131.0,-33.0,-135.0,-785.0,575.0
-27.0,-203.0,132.0,38.0,132.0,-38.0,-142.0,-779.0,585.0
-31.0,-200.0,130.0,29.0,134.0,-35.0,-141.0,-786.0,570.0
-30.0,-203.0,128.0,5.0,138.0,-38.0,-141.0,-791.0,576.0
-29.0,-208.0,129.0,-12.0,136.0,-39.0,-135.0,-798.0,575.0
-32.0,-204.0,131.0,-16.0,136.0,-43.0,-136.0,-793.0,573.0
-30.0,-202.0,130.0,-19.0,135.0,-44.0,-137.0,-796.0,570.0
-30.0,-205.0,125.0,-22.0,135.0,-50.0,-140.0,-791.0,572.0
-32.0,-205.0,130.0,-24.0,134.0,-50.0,-142.0,-790.0,582.0
-29.0,-204.0,132.0,-26.0,132.0,-51.0,-141.0,-795.0,582.0
-24.0,-207.0,129.0,-30.0,126.0,-51.0,-127.0,-796.0,582.0
-22.0,-205.0,127.0,-30.0,120.0,-56.0,-113.0,-793.0,580.0
-23.0,-206.0,126.0,-19.0,118.0,-60.0,-119.0,-799.0,574.0
-20.0,-211.0,128.0,-16.0,125.0,-64.0,-111.0,-801.0,574.0
-21.0,-208.0,130.0,-18.0,128.0,-62.0,-113.0,-804.0,592.0
-22.0,-211.0,134.0,-12.0,132.0,-63.0,-115.0,-810.0,590.0
-25.0,-210.0,135.0,-9.0,133.0,-62.0,-113.0,-811.0,588.0
-23.0,-213.0,133.0,-6.0,129.0,-59.0,-113.0,-820.0,594.0
-22.0,-213.0,136.0,4.0,122.0,-54.0,-122.0,-819.0,595.0
-23.0,-214.0,135.0,17.0,111.0,-52.0,-120.0,-820.0,589.0
-24.0,-213.0,132.0,26.0,100.0,-49.0,-121.0,-825.0,577.0
-29.0,-223.0,133.0,33.0,89.0,-47.0,-122.0,-825.0,576.0
-20.0,-214.0,126.0,34.0,80.0,-44.0,-114.0,-823.0,572.0
-21.0,-210.0,131.0,32.0,71.0,-45.0,-107.0,-815.0,568.0
-18.0,-211.0,127.0,28.0,65.0,-46.0,-108.0,-807.0,570.0
-18.0,-209.0,128.0,22.0,63.0,-48.0,-102.0,-795.0,572.0
-19.0,-204.0,130.0,16.0,59.0,-52.0,-107.0,-790.0,581.0
-23.0,-202.0,133.0,15.0,56.0,-54.0,-100.0,-786.0,582.0
-20.0,-201.0,127.0,12.0,54.0,-54.0,-110.0,-782.0,587.0
-22.0,-200.0,133.0,9.0,51.0,-55.0,-113.0,-781.0,590.0
-23.0,-202.0,131.0,5.0,49.0,-58.0,-117.0,-781.0,586.0
-23.0,-201.0,135.0,2.0,50.0,-59.0,-107.0,-776.0,595.0
-27.0,-202.0,134.0,7.0,49.0,-60.0,-119.0,-780.0,596.0
-24.0,-204.0,140.0,6.0,53.0,-58.0,-119.0,-779.0,594.0
-28.0,-200.0,137.0,5.0,53.0,-58.0,-130.0,-782.0,599.0
-30.0,-203.0,133.0,4.0,57.0,-54.0,-141.0,-793.0,587.0
-25.0,-211.0,135.0,-8.0,59.0,-51.0,-131.0,-796.0,597.0
-28.0,-210.0,133.0,-13.0,56.0,-47.0,-130.0,-801.0,590.0
-28.0,-209.0,134.0,-10.0,57.0,-45.0,-131.0,-804.0,590.0
-29.0,-209.0,133.0,-5.0,54.0,-41.0,-135.0,-807.0,589.0
-29.0,-208.0,135.0,-2.0,49.0,-39.0,-142.0,-806.0,594.0
-29.0,-210.0,133.0,1.0,45.0,-33.0,-138.0,-801.0,592.0
-28.0,-211.0,133.0,1.0,41.0,-31.0,-139.0,-808.0,589.0
-31.0,-207.0,130.0,3.0,34.0,-27.0,-138.0,-806.0,590.0
-29.0,-210.0,134.0,4.0,31.0,-25.0,-133.0,-812.0,582.0
-27.0,-209.0,131.0,4.0,28.0,-20.0,-132.0,-808.0,575.0
-25.0,-212.0,128.0,7.0,25.0,-21.0,-125.0,-806.0,571.0
-21.0,-212.0,130.0,8.0,25.0,-17.0,-122.0,-802.0,576.0
-21.0,-207.0,130.0,11.0,24.0,-20.0,-119.0,-801.0,573.0
-19.0,-209.0,130.0,10.0,24.0,-17.0,-108.0,-799.0,571.0
-18.0,-206.0,127.0,10.0,24.0,-21.0,-103.0,-791.0,570.0
-18.0,-205.0,128.0,9.0,26.0,-20.0,-100.0,-792.0,570.0
-15.0,-207.0,125.0,5.0,30.0,-25.0,-93.0,-791.0,571.0
-15.0,-202.0,126.0,2.0,34.0,-25.0,-89.0,-792.0,570.0
-15.0,-202.0,127.0,0.0,35.0,-29.0,-88.0,-785.0,571.0
-13.0,-203.0,128.0,-1.0,32.0,-26.0,-80.0,-786.0,570.0
-12.0,-203.0,128.0,-4.0,32.0,-29.0,-77.0,-783.0,567.0
-12.0,-206.0,127.0,-5.0,35.0,-25.0,-74.0,-783.0,568.0
-11.0,-206.0,129.0,-9.0,33.0,-26.0,-81.0,-794.0,574.0
-11.0,-205.0,125.0,-9.0,34.0,-22.0,-80.0,-795.0,574.0
-11.0,-210.0,129.0,-9.0,36.0,-22.0,-75.0,-796.0,583.0
-12.0,-209.0,132.0,-8.0,40.0,-19.0,-77.0,-801.0,584.0
-12.0,-210.0,132.0,-8.0,44.0,-21.0,-81.0,-800.0,590.0
-12.0,-211.0,133.0,-9.0,46.0,-19.0,-79.0,-804.0,592.0
-12.0,-208.0,133.0,-7.0,47.0,-20.0,-76.0,-804.0,590.0
-11.0,-215.0,145.0,-4.0,48.0,-18.0,-75.0,-807.0,597.0
-10.0,-210.0,130.0,-3.0,51.0,-19.0,-73.0,-804.0,598.0
-12.0,-212.0,133.0,-1.0,56.0,-16.0,-78.0,-806.0,596.0
-13.0,-209.0,132.0,4.0,59.0,-19.0,-76.0,-803.0,599.0
-12.0,-206.0,136.0,8.0,63.0,-17.0,-76.0,-805.0,598.0
-11.0,-206.0,133.0,13.0,67.0,-16.0,-77.0,-797.0,602.0
-12.0,-205.0,133.0,12.0,71.0,-15.0,-75.0,-799.0,597.0
-10.0,-206.0,134.0,12.0,77.0,-15.0,-74.0,-794.0,600.0
-12.0,-206.0,134.0,10.0,80.0,-16.0,-72.0,-791.0,597.0
-12.0,-206.0,135.0,7.0,81.0,-16.0,-76.0,-792.0,603.0
-12.0,-204.0,130.0,4.0,88.0,-16.0,-78.0,-789.0,601.0
-12.0,-204.0,136.0,-4.0,94.0,-17.0,-86.0,-782.0,598.0
-12.0,-206.0,133.0,-10.0,96.0,-15.0,-91.0,-773.0,592.0
-11.0,-205.0,133.0,-15.0,95.0,-15.0,-79.0,-778.0,591.0
-16.0,-202.0,132.0,-19.0,96.0,-15.0,-89.0,-783.0,594.0
-16.0,-203.0,133.0,-26.0,96.0,-14.0,-88.0,-784.0,589.0
-17.0,-203.0,130.0,-28.0,97.0,-14.0,-88.0,-784.0,592.0
-18.0,-205.0,134.0,-31.0,97.0,-12.0,-86.0,-785.0,593.0
-12.0,-206.0,133.0,-34.0,97.0,-11.0,-91.0,-793.0,591.0
-16.0,-206.0,130.0,-39.0,98.0,-8.0,-95.0,-797.0,588.0
-18.0,-205.0,133.0,-43.0,98.0,-7.0,-95.0,-798.0,587.0
-17.0,-209.0,128.0,-42.0,96.0,-3.0,-100.0,-799.0,588.0
-17.0,-209.0,131.0,-41.0,95.0,-3.0,-106.0,-803.0,591.0
-14.0,-214.0,133.0,-39.0,93.0,0.0,-104.0,-802.0,588.0
-17.0,-211.0,128.0,-36.0,89.0,2.0,-104.0,-801.0,586.0
-20.0,-210.0,128.0,-32.0,88.0,3.0,-106.0,-802.0,585.0
-21.0,-209.0,127.0,-27.0,86.0,2.0,-106.0,-809.0,586.0
-20.0,-208.0,133.0,-22.0,85.0,4.0,-107.0,-801.0,588.0
-17.0,-209.0,130.0,-20.0,84.0,1.0,-107.0,-798.0,586.0
-20.0,-207.0,134.0,-19.0,82.0,3.0,-107.0,-796.0,587.0
-19.0,-208.0,131.0,-17.0,83.0,-1.0,-105.0,-787.0,587.0
-20.0,-207.0,130.0,-18.0,84.0,0.0,-104.0,-791.0,581.0
-18.0,-205.0,130.0,-18.0,84.0,-3.0,-107.0,-790.0,588.0
-17.0,-203.0,135.0,-19.0,84.0,-3.0,-108.0,-790.0,587.0
-21.0,-203.0,133.0,-23.0,84.0,-7.0,-107.0,-790.0,586.0
-21.0,-203.0,133.0,-27.0,85.0,-6.0,-106.0,-796.0,587.0
-20.0,-206.0,135.0,-28.0,84.0,-10.0,-107.0,-802.0,585.0
-20.0,-205.0,134.0,-29.0,85.0,-10.0,-105.0,-800.0,591.0
-19.0,-208.0,133.0,-28.0,84.0,-14.0,-107.0,-802.0,590.0
-20.0,-208.0,133.0,-26.0,81.0,-11.0,-104.0,-803.0,587.0
-17.0,-206.0,133.0,-24.0,81.0,-14.0,-107.0,-801.0,590.0
-20.0,-207.0,134.0,-22.0,81.0,-11.0,-105.0,-799.0,586.0
-17.0,-208.0,132.0,-20.0,82.0,-12.0,-107.0,-803.0,590.0
-20.0,-213.0,127.0,-20.0,81.0,-8.0,-107.0,-803.0,592.0
-21.0,-206.0,131.0,-20.0,82.0,-10.0,-105.0,-794.0,593.0
-19.0,-206.0,137.0,-21.0,81.0,-7.0,-108.0,-797.0,594.0
-22.0,-208.0,132.0,-20.0,80.0,-9.0,-118.0,-797.0,592.0
-23.0,-207.0,132.0,-20.0,78.0,-6.0,-115.0,-803.0,588.0
-19.0,-208.0,131.0,-18.0,76.0,-10.0,-116.0,-802.0,587.0
-22.0,-207.0,130.0,-18.0,77.0,-9.0,-111.0,-804.0,580.0
-20.0,-209.0,132.0,-15.0,74.0,-13.0,-107.0,-803.0,576.0
-20.0,-209.0,132.0,-12.0,72.0,-12.0,-109.0,-803.0,577.0
-24.0,-205.0,131.0,-10.0,69.0,-14.0,-108.0,-804.0,577.0
-19.0,-209.0,131.0,-7.0,68.0,-11.0,-109.0,-800.0,574.0
-21.0,-208.0,126.0,-4.0,68.0,-14.0,-104.0,-801.0,580.0
-18.0,-208.0,131.0,-5.0,66.0,-9.0,-107.0,-803.0,576.0
-20.0,-207.0,129.0,-4.0,65.0,-9.0,-107.0,-797.0,583.0
-20.0,-205.0,129.0,-4.0,65.0,-6.0,-107.0,-798.0,580.0
-20.0,-206.0,131.0,-4.0,65.0,-6.0,-108.0,-799.0,582.0
-20.0,-205.0,132.0,-4.0,65.0,-5.0,-104.0,-798.0,584.0
-18.0,-207.0,134.0,-2.0,64.0,-4.0,-104.0,-799.0,589.0
-21.0,-205.0,134.0,-1.0,62.0,-4.0,-103.0,-798.0,583.0
-23.0,-206.0,132.0,-2.0,60.0,-4.0,-106.0,-800.0,587.0
-17.0,-206.0,133.0,0.0,59.0,-5.0,-103.0,-798.0,585.0
-19.0,-204.0,134.0,1.0,59.0,-4.0,-103.0,-800.0,588.0
-19.0,-209.0,133.0,2.0,58.0,-5.0,-104.0,-797.0,589.0
-18.0,-207.0,129.0,2.0,58.0,-6.0,-105.0,-796.0,591.0
-19.0,-206.0,133.0,2.0,55.0,-5.0,-101.0,-798.0,583.0
-20.0,-206.0,130.0,3.0,55.0,-5.0,-105.0,-794.0,591.0
-16.0,-207.0,128.0,3.0,56.0,-7.0,-106.0,-800.0,588.0
-16.0,-205.0,130.0,4.0,56.0,-5.0,-106.0,-799.0,588.0
-19.0,-206.0,133.0,3.0,58.0,-6.0,-109.0,-791.0,584.0
-20.0,-202.0,131.0,2.0,59.0,-6.0,-105.0,-789.0,586.0
-19.0,-203.0,132.0,0.0,59.0,-8.0,-104.0,-794.0,587.0
-20.0,-201.0,131.0,-3.0,59.0,-7.0,-97.0,-793.0,585.0
-18.0,-205.0,132.0,-6.0,59.0,-6.0,-101.0,-786.0,581.0
-20.0,-206.0,136.0,-9.0,58.0,-5.0,-104.0,-791.0,588.0
-19.0,-204.0,133.0,-10.0,56.0,-6.0,-103.0,-790.0,589.0
-15.0,-205.0,131.0,-10.0,56.0,-5.0,-102.0,-796.0,590.0
-17.0,-205.0,133.0,-10.0,54.0,-7.0,-103.0,-794.0,586.0
-19.0,-206.0,132.0,-13.0,57.0,-5.0,-101.0,-796.0,589.0
-16.0,-208.0,129.0,-14.0,56.0,-9.0,-102.0,-793.0,588.0
-17.0,-208.0,130.0,-14.0,57.0,-8.0,-98.0,-801.0,584.0
-17.0,-206.0,134.0,-13.0,56.0,-11.0,-96.0,-796.0,584.0
-19.0,-207.0,132.0,-13.0,57.0,-8.0,-100.0,-797.0,590.0
-13.0,-208.0,134.0,-13.0,59.0,-11.0,-99.0,-797.0,591.0
-15.0,-207.0,134.0,-14.0,61.0,-11.0,-93.0,-793.0,591.0
-17.0,-203.0,133.0,-14.0,61.0,-13.0,-97.0,-797.0,590.0
-17.0,-206.0,131.0,-14.0,63.0,-9.0,-94.0,-794.0,591.0
-15.0,-205.0,131.0,-16.0,62.0,-11.0,-95.0,-793.0,592.0
-17.0,-204.0,130.0,-18.0,66.0,-10.0,-92.0,-796.0,589.0
-16.0,-203.0,132.0,-20.0,66.0,-12.0,-98.0,-796.0,589.0
-16.0,-206.0,134.0,-21.0,67.0,-10.0,-95.0,-797.0,591.0
-18.0,-204.0,134.0,-25.0,67.0,-12.0,-98.0,-792.0,592.0
-18.0,-204.0,131.0,-28.0,68.0,-8.0,-93.0,-791.0,589.0
-17.0,-202.0,133.0,-29.0,68.0,-10.0,-93.0,-796.0,592.0
-20.0,-206.0,133.0,-30.0,67.0,-8.0,-96.0,-800.0,586.0
-18.0,-206.0,130.0,-31.0,68.0,-10.0,-98.0,-801.0,588.0
-15.0,-206.0,131.0,-32.0,66.0,-7.0,-102.0,-804.0,589.0
-14.0,-208.0,132.0,-33.0,67.0,-9.0,-101.0,-802.0,592.0
-17.0,-205.0,133.0,-33.0,68.0,-6.0,-98.0,-798.0,590.0
-18.0,-207.0,135.0,-32.0,69.0,-7.0,-100.0,-796.0,587.0
-17.0,-206.0,129.0,-34.0,68.0,-5.0,-98.0,-796.0,595.0
-20.0,-205.0,131.0,-34.0,68.0,-6.0,-98.0,-794.0,589.0
-18.0,-206.0,132.0,-36.0,67.0,-3.0,-98.0,-796.0,584.0
-20.0,-204.0,134.0,-35.0,67.0,-5.0,-98.0,-793.0,587.0
-19.0,-205.0,132.0,-34.0,67.0,-2.0,-100.0,-794.0,588.0
-20.0,-205.0,130.0,-33.0,68.0,-4.0,-96.0,-796.0,586.0
-21.0,-205.0,129.0,-34.0,67.0,-3.0,-100.0,-796.0,586.0
-20.0,-208.0,134.0,-33.0,68.0,-4.0,-102.0,-799.0,586.0
-21.0,-207.0,132.0,-32.0,68.0,-3.0,-99.0,-797.0,583.0
-21.0,-205.0,131.0,-32.0,67.0,-5.0,-103.0,-800.0,586.0
-19.0,-207.0,132.0,-30.0,66.0,-5.0,-100.0,-794.0,587.0
-17.0,-209.0,133.0,-29.0,65.0,-5.0,-100.0,-800.0,589.0
-20.0,-205.0,131.0,-26.0,65.0,-6.0,-103.0,-791.0,588.0
-19.0,-207.0,133.0,-26.0,65.0,-6.0,-102.0,-798.0,587.0
-15.0,-208.0,134.0,-26.0,65.0,-7.0,-106.0,-796.0,588.0
-19.0,-204.0,131.0,-27.0,64.0,-10.0,-103.0,-797.0,588.0
-18.0,-210.0,129.0,-27.0,66.0,-9.0,-102.0,-797.0,590.0
-14.0,-207.0,136.0,-26.0,66.0,-9.0,-102.0,-796.0,587.0
-18.0,-206.0,132.0,-23.0,66.0,-9.0,-103.0,-789.0,586.0
-20.0,-206.0,128.0,-23.0,67.0,-9.0,-103.0,-796.0,587.0
-18.0,-207.0,132.0,-22.0,67.0,-9.0,-106.0,-799.0,588.0
-17.0,-205.0,130.0,-21.0,68.0,-6.0,-105.0,-793.0,586.0
-22.0,-206.0,135.0,-22.0,66.0,-10.0,-106.0,-798.0,589.0
-19.0,-208.0,131.0,-21.0,67.0,-6.0,-103.0,-793.0,582.0
-20.0,-207.0,132.0,-23.0,65.0,-7.0,-101.0,-795.0,585.0
-18.0,-207.0,130.0,-24.0,66.0,-7.0,-101.0,-796.0,583.0
-17.0,-205.0,127.0,-25.0,66.0,-8.0,-105.0,-798.0,586.0
-25.0,-203.0,132.0,-25.0,64.0,-6.0,-102.0,-796.0,580.0
-18.0,-206.0,121.0,-23.0,65.0,-7.0,-101.0,-796.0,583.0
-17.0,-205.0,133.0,-20.0,66.0,-6.0,-97.0,-794.0,584.0
-15.0,-207.0,132.0,-20.0,66.0,-6.0,-103.0,-796.0,586.0
-19.0,-206.0,130.0,-21.0,66.0,-4.0,-104.0,-794.0,588.0
-19.0,-206.0,129.0,-22.0,64.0,-6.0,-99.0,-795.0,585.0
-19.0,-207.0,131.0,-21.0,65.0,-4.0,-103.0,-802.0,582.0
-13.0,-210.0,131.0,-22.0,66.0,-6.0,-103.0,-797.0,587.0
-17.0,-207.0,130.0,-20.0,67.0,-4.0,-102.0,-803.0,587.0
-17.0,-210.0,129.0,-20.0,67.0,-6.0,-96.0,-803.0,585.0
-19.0,-208.0,133.0,-21.0,66.0,-4.0,-102.0,-800.0,587.0
-19.0,-206.0,129.0,-21.0,65.0,-7.0,-105.0,-797.0,581.0
-17.0,-209.0,132.0,-20.0,66.0,-5.0,-100.0,-802.0,582.0
-19.0,-207.0,130.0,-18.0,65.0,-7.0,-103.0,-798.0,581.0
-18.0,-208.0,132.0,-18.0,66.0,-5.0,-102.0,-804.0,582.0
-16.0,-208.0,134.0,-18.0,65.0,-8.0,-100.0,-798.0,586.0
-14.0,-209.0,132.0,-16.0,66.0,-7.0,-100.0,-800.0,583.0
-19.0,-206.0,129.0,-15.0,67.0,-6.0,-101.0,-800.0,587.0
-18.0,-207.0,132.0,-16.0,68.0,-4.0,-102.0,-791.0,574.0
-18.0,-205.0,132.0,-14.0,69.0,-5.0,-98.0,-799.0,583.0
-21.0,-208.0,130.0,-14.0,70.0,-2.0,-102.0,-796.0,587.0
-20.0,-204.0,133.0,-15.0,70.0,-4.0,-103.0,-799.0,583.0
-19.0,-204.0,129.0,-15.0,68.0,-1.0,-105.0,-796.0,586.0
-16.0,-207.0,130.0,-16.0,67.0,-4.0,-100.0,-800.0,581.0
-20.0,-207.0,133.0,-14.0,67.0,-1.0,-103.0,-802.0,579.0
-20.0,-208.0,132.0,-14.0,66.0,-2.0,-104.0,-797.0,586.0
-18.0,-207.0,129.0,-13.0,64.0,-2.0,-103.0,-805.0,582.0
-15.0,-209.0,129.0,-10.0,62.0,-4.0,-103.0,-801.0,582.0
-20.0,-205.0,130.0,-9.0,62.0,-1.0,-104.0,-799.0,589.0
-20.0,-210.0,133.0,-6.0,61.0,-4.0,-105.0,-799.0,584.0
-20.0,-209.0,132.0,-5.0,62.0,-3.0,-99.0,-798.0,586.0
-21.0,-205.0,133.0,-3.0,62.0,-5.0,-104.0,-797.0,583.0
-15.0,-208.0,131.0,-2.0,63.0,-4.0,-100.0,-791.0,588.0
-19.0,-207.0,135.0,-3.0,62.0,-5.0,-98.0,-797.0,585.0
-17.0,-205.0,130.0,-2.0,62.0,-3.0,-95.0,-795.0,590.0
-16.0,-209.0,131.0,-4.0,61.0,-4.0,-98.0,-792.0,588.0
-17.0,-208.0,129.0,-3.0,61.0,-3.0,-99.0,-793.0,584.0
-17.0,-208.0,132.0,-3.0,59.0,-3.0,-99.0,-792.0,593.0
-20.0,-204.0,132.0,-4.0,60.0,-2.0,-99.0,-797.0,590.0
-12.0,-209.0,130.0,-4.0,61.0,0.0,-98.0,-800.0,582.0
-19.0,-209.0,131.0,-2.0,60.0,1.0,-97.0,-804.0,586.0
-18.0,-209.0,133.0,2.0,59.0,3.0,-104.0,-801.0,592.0
-18.0,-206.0,136.0,8.0,56.0,4.0,-95.0,-802.0,604.0
-20.0,-209.0,138.0,13.0,52.0,6.0,-102.0,-797.0,606.0
-20.0,-208.0,139.0,14.0,51.0,9.0,-105.0,-805.0,602.0
-20.0,-210.0,134.0,16.0,51.0,9.0,-109.0,-824.0,595.0
-22.0,-212.0,128.0,13.0,48.0,2.0,-111.0,-823.0,589.0
-19.0,-214.0,126.0,17.0,50.0,-4.0,-107.0,-824.0,570.0
