acc1_x,acc1_y,acc1_z,gyro_x,gyro_y,gyro_z,acc2_x,acc2_y,acc2_z
-19.0,-251.0,45.0,3.0,74.0,2.0,-40.0,-974.0,138.0
-16.0,-249.0,43.0,4.0,75.0,3.0,-42.0,-970.0,132.0
-18.0,-250.0,43.0,2.0,75.0,3.0,-40.0,-962.0,140.0
-18.0,-249.0,45.0,1.0,76.0,3.0,-39.0,-967.0,142.0
-18.0,-251.0,46.0,0.0,76.0,1.0,-43.0,-966.0,142.0
-12.0,-254.0,44.0,2.0,74.0,0.0,-39.0,-974.0,146.0
-17.0,-250.0,46.0,2.0,72.0,-1.0,-35.0,-971.0,141.0
-18.0,-250.0,45.0,0.0,72.0,-3.0,-32.0,-964.0,141.0
-19.0,-249.0,44.0,-3.0,71.0,-4.0,-35.0,-968.0,140.0
-18.0,-251.0,46.0,-5.0,69.0,-5.0,-36.0,-967.0,136.0
-17.0,-251.0,45.0,-7.0,69.0,-5.0,-34.0,-967.0,139.0
-18.0,-252.0,44.0,-9.0,68.0,-4.0,-34.0,-967.0,136.0
-15.0,-249.0,45.0,-13.0,68.0,-4.0,-33.0,-971.0,138.0
-16.0,-252.0,44.0,-15.0,67.0,-5.0,-35.0,-966.0,140.0
-15.0,-251.0,48.0,-13.0,66.0,-4.0,-37.0,-969.0,139.0
-29.0,-251.0,54.0,-10.0,67.0,-4.0,-33.0,-971.0,142.0
-18.0,-250.0,43.0,-10.0,66.0,-3.0,-33.0,-973.0,142.0
-17.0,-249.0,43.0,-11.0,65.0,-4.0,-34.0,-966.0,136.0
-18.0,-251.0,44.0,-13.0,67.0,-4.0,-34.0,-964.0,129.0
-18.0,-249.0,46.0,-15.0,65.0,-4.0,-36.0,-974.0,140.0
-15.0,-250.0,45.0,-14.0,64.0,-5.0,-37.0,-970.0,140.0
-18.0,-249.0,41.0,-13.0,63.0,-6.0,-36.0,-966.0,135.0
-14.0,-248.0,45.0,-13.0,62.0,-3.0,-42.0,-968.0,146.0
-16.0,-248.0,43.0,-12.0,63.0,-3.0,-37.0,-966.0,141.0
-17.0,-252.0,47.0,-10.0,65.0,-2.0,-39.0,-968.0,136.0
-18.0,-250.0,46.0,-11.0,66.0,-3.0,-41.0,-969.0,136.0
-18.0,-250.0,44.0,-13.0,67.0,-3.0,-39.0,-965.0,129.0
-20.0,-248.0,43.0,-15.0,68.0,-2.0,-38.0,-969.0,132.0
-18.0,-249.0,42.0,-18.0,67.0,-4.0,-42.0,-971.0,129.0
-18.0,-252.0,44.0,-20.0,65.0,-6.0,-39.0,-970.0,136.0
-18.0,-251.0,45.0,-22.0,64.0,-4.0,-40.0,-971.0,136.0
-19.0,-251.0,43.0,-20.0,65.0,-3.0,-37.0,-977.0,137.0
-17.0,-253.0,43.0,-18.0,64.0,-2.0,-40.0,-976.0,139.0
-19.0,-249.0,43.0,-15.0,64.0,-1.0,-39.0,-971.0,125.0
-18.0,-252.0,45.0,-11.0,64.0,0.0,-41.0,-977.0,125.0
-15.0,-252.0,46.0,-5.0,65.0,0.0,-38.0,-981.0,130.0
-18.0,-249.0,47.0,2.0,66.0,1.0,-37.0,-970.0,126.0
-21.0,-250.0,44.0,8.0,66.0,2.0,-33.0,-979.0,134.0
-16.0,-253.0,46.0,12.0,66.0,1.0,-39.0,-972.0,140.0
-16.0,-253.0,44.0,15.0,68.0,2.0,-38.0,-971.0,136.0
-19.0,-249.0,46.0,15.0,68.0,1.0,-39.0,-964.0,141.0
-15.0,-252.0,45.0,14.0,69.0,2.0,-43.0,-970.0,134.0
-18.0,-251.0,43.0,14.0,71.0,1.0,-38.0,-962.0,138.0
-18.0,-249.0,43.0,12.0,73.0,2.0,-41.0,-968.0,132.0
-20.0,-251.0,45.0,9.0,75.0,1.0,-37.0,-969.0,128.0
-19.0,-248.0,44.0,3.0,76.0,1.0,-44.0,-967.0,135.0
-18.0,-248.0,43.0,-5.0,76.0,0.0,-44.0,-959.0,138.0
-19.0,-250.0,44.0,-9.0,75.0,-1.0,-37.0,-961.0,140.0
-21.0,-248.0,45.0,-10.0,75.0,-1.0,-39.0,-967.0,141.0
-19.0,-250.0,45.0,-6.0,75.0,-2.0,-33.0,-972.0,145.0
-17.0,-250.0,46.0,-3.0,73.0,-2.0,-37.0,-975.0,141.0
-18.0,-251.0,45.0,0.0,70.0,0.0,-38.0,-970.0,142.0
-18.0,-251.0,43.0,3.0,71.0,1.0,-36.0,-968.0,142.0
-15.0,-253.0,45.0,6.0,72.0,1.0,-37.0,-969.0,136.0
-17.0,-254.0,45.0,11.0,72.0,2.0,-35.0,-976.0,140.0
-18.0,-252.0,44.0,19.0,71.0,1.0,-36.0,-973.0,142.0
-17.0,-253.0,44.0,24.0,72.0,1.0,-35.0,-974.0,139.0
-17.0,-250.0,45.0,31.0,69.0,3.0,-34.0,-975.0,140.0
-18.0,-252.0,42.0,33.0,66.0,4.0,-35.0,-972.0,146.0
-16.0,-247.0,45.0,36.0,67.0,5.0,-33.0,-968.0,142.0
-18.0,-247.0,44.0,35.0,69.0,6.0,-32.0,-970.0,144.0
-17.0,-250.0,45.0,32.0,66.0,4.0,-33.0,-965.0,143.0
-16.0,-248.0,45.0,28.0,67.0,4.0,-37.0,-964.0,142.0
-19.0,-249.0,46.0,24.0,66.0,3.0,-33.0,-962.0,141.0
-19.0,-247.0,45.0,18.0,64.0,0.0,-38.0,-960.0,146.0
-18.0,-249.0,44.0,13.0,63.0,-1.0,-38.0,-962.0,140.0
-21.0,-249.0,43.0,9.0,62.0,-1.0,-40.0,-960.0,142.0
-19.0,-248.0,45.0,5.0,64.0,-2.0,-38.0,-961.0,142.0
-19.0,-249.0,44.0,2.0,64.0,-1.0,-34.0,-961.0,139.0
-16.0,-248.0,42.0,-3.0,64.0,0.0,-39.0,-965.0,140.0
-18.0,-249.0,45.0,-5.0,65.0,-2.0,-38.0,-963.0,141.0
-17.0,-254.0,44.0,-9.0,67.0,-3.0,-34.0,-966.0,141.0
-19.0,-251.0,45.0,-7.0,68.0,-3.0,-42.0,-967.0,143.0
-20.0,-248.0,44.0,-5.0,69.0,-3.0,-41.0,-970.0,148.0
-16.0,-251.0,45.0,-5.0,69.0,-3.0,-36.0,-968.0,137.0
-17.0,-250.0,46.0,-10.0,67.0,-4.0,-39.0,-965.0,137.0
-18.0,-250.0,48.0,-15.0,67.0,-5.0,-40.0,-962.0,141.0
-19.0,-250.0,49.0,-16.0,66.0,-4.0,-41.0,-962.0,141.0
-20.0,-250.0,46.0,-14.0,68.0,-3.0,-37.0,-964.0,150.0
-17.0,-250.0,45.0,-16.0,71.0,-2.0,-39.0,-967.0,143.0
-18.0,-248.0,44.0,-19.0,71.0,-3.0,-44.0,-962.0,141.0
-19.0,-243.0,48.0,-22.0,71.0,-2.0,-42.0,-966.0,144.0
-20.0,-249.0,47.0,-21.0,70.0,-1.0,-41.0,-970.0,147.0
-19.0,-253.0,44.0,-18.0,70.0,-1.0,-38.0,-971.0,145.0
-21.0,-249.0,44.0,-15.0,72.0,-1.0,-43.0,-974.0,140.0
-17.0,-254.0,47.0,-12.0,72.0,0.0,-42.0,-977.0,147.0
-18.0,-253.0,47.0,-8.0,71.0,0.0,-41.0,-965.0,148.0
-17.0,-252.0,49.0,-4.0,71.0,1.0,-41.0,-972.0,150.0
-17.0,-251.0,47.0,0.0,71.0,1.0,-37.0,-973.0,156.0
-17.0,-251.0,47.0,-1.0,71.0,1.0,-40.0,-968.0,155.0
-15.0,-249.0,49.0,-4.0,73.0,1.0,-37.0,-966.0,152.0
-15.0,-250.0,45.0,-9.0,71.0,-1.0,-41.0,-958.0,148.0
-17.0,-248.0,47.0,-17.0,69.0,-4.0,-35.0,-960.0,148.0
-18.0,-249.0,47.0,-22.0,69.0,-3.0,-37.0,-963.0,152.0
-18.0,-250.0,48.0,-22.0,69.0,-4.0,-37.0,-967.0,148.0
-17.0,-251.0,46.0,-20.0,68.0,-3.0,-37.0,-969.0,149.0
-19.0,-251.0,50.0,-19.0,69.0,-3.0,-38.0,-969.0,144.0
-21.0,-252.0,46.0,-18.0,69.0,-4.0,-39.0,-974.0,148.0
-21.0,-250.0,47.0,-16.0,69.0,-4.0,-44.0,-969.0,142.0
-20.0,-251.0,45.0,-16.0,70.0,-3.0,-39.0,-970.0,145.0
-18.0,-251.0,45.0,-15.0,70.0,-1.0,-37.0,-970.0,145.0
-21.0,-249.0,45.0,-13.0,70.0,-1.0,-42.0,-964.0,146.0
-19.0,-252.0,47.0,-10.0,70.0,-3.0,-40.0,-966.0,145.0
-22.0,-252.0,52.0,-10.0,70.0,-4.0,-44.0,-970.0,144.0
-15.0,-250.0,44.0,-10.0,71.0,-3.0,-39.0,-966.0,147.0
-20.0,-248.0,46.0,-13.0,71.0,-3.0,-41.0,-966.0,143.0
-21.0,-250.0,46.0,-17.0,72.0,-3.0,-37.0,-964.0,141.0
-17.0,-251.0,44.0,-22.0,70.0,-3.0,-35.0,-969.0,142.0
-21.0,-249.0,47.0,-23.0,72.0,-4.0,-35.0,-971.0,144.0
-16.0,-252.0,44.0,-24.0,73.0,-5.0,-37.0,-969.0,146.0
-20.0,-248.0,44.0,-24.0,73.0,-4.0,-36.0,-974.0,142.0
-18.0,-250.0,42.0,-24.0,71.0,-4.0,-40.0,-973.0,139.0
-15.0,-249.0,45.0,-26.0,70.0,-5.0,-41.0,-972.0,137.0
-18.0,-251.0,44.0,-26.0,70.0,-5.0,-35.0,-974.0,138.0
-19.0,-250.0,44.0,-23.0,70.0,-4.0,-35.0,-973.0,141.0
-20.0,-249.0,48.0,-22.0,70.0,-4.0,-36.0,-969.0,140.0
-18.0,-252.0,47.0,-21.0,68.0,-5.0,-34.0,-970.0,133.0
-17.0,-252.0,44.0,-21.0,66.0,-6.0,-37.0,-973.0,140.0
-20.0,-249.0,46.0,-22.0,67.0,-7.0,-39.0,-974.0,135.0
-19.0,-252.0,43.0,-22.0,68.0,-7.0,-35.0,-975.0,137.0
-18.0,-250.0,45.0,-24.0,69.0,-7.0,-37.0,-976.0,131.0
-21.0,-251.0,46.0,-23.0,68.0,-5.0,-39.0,-968.0,133.0
-21.0,-251.0,41.0,-21.0,70.0,-6.0,-40.0,-969.0,126.0
-18.0,-250.0,41.0,-20.0,70.0,-6.0,-37.0,-965.0,126.0
-13.0,-254.0,40.0,-18.0,71.0,-6.0,-35.0,-958.0,126.0
-19.0,-247.0,45.0,-18.0,72.0,-5.0,-37.0,-966.0,129.0
-16.0,-252.0,39.0,-18.0,73.0,-4.0,-37.0,-968.0,131.0
-20.0,-251.0,44.0,-17.0,71.0,-4.0,-37.0,-969.0,130.0
-17.0,-250.0,45.0,-16.0,70.0,-3.0,-39.0,-971.0,134.0
-16.0,-253.0,44.0,-14.0,70.0,-3.0,-39.0,-971.0,131.0
-17.0,-252.0,43.0,-11.0,68.0,-2.0,-39.0,-973.0,131.0
-18.0,-249.0,43.0,-9.0,69.0,-1.0,-36.0,-972.0,129.0
-20.0,-249.0,43.0,-7.0,68.0,-1.0,-38.0,-969.0,133.0
-16.0,-251.0,41.0,-7.0,68.0,0.0,-39.0,-963.0,129.0
-20.0,-249.0,43.0,-8.0,68.0,-2.0,-37.0,-965.0,132.0
-17.0,-251.0,39.0,-9.0,67.0,-2.0,-37.0,-963.0,131.0
-18.0,-252.0,42.0,-10.0,68.0,-2.0,-38.0,-973.0,134.0
-16.0,-249.0,42.0,-14.0,70.0,-3.0,-37.0,-970.0,136.0
-17.0,-249.0,46.0,-15.0,69.0,-1.0,-36.0,-968.0,139.0
-18.0,-252.0,44.0,-15.0,71.0,-1.0,-37.0,-963.0,134.0
-16.0,-250.0,43.0,-15.0,70.0,-3.0,-33.0,-972.0,136.0
-15.0,-251.0,46.0,-17.0,69.0,-1.0,-36.0,-966.0,140.0
-16.0,-254.0,43.0,-19.0,69.0,-4.0,-34.0,-971.0,140.0
-19.0,-251.0,45.0,-20.0,67.0,-3.0,-40.0,-971.0,146.0
-19.0,-251.0,48.0,-17.0,67.0,-2.0,-34.0,-977.0,142.0
-17.0,-251.0,44.0,-14.0,66.0,-3.0,-35.0,-976.0,141.0
-8.0,-247.0,47.0,-10.0,67.0,-2.0,-34.0,-975.0,141.0
-17.0,-252.0,42.0,-7.0,65.0,-1.0,-43.0,-968.0,140.0
-17.0,-252.0,48.0,-6.0,66.0,-2.0,-36.0,-972.0,142.0
-17.0,-251.0,46.0,-3.0,67.0,-3.0,-41.0,-972.0,141.0
-22.0,-250.0,46.0,0.0,67.0,-3.0,-41.0,-968.0,140.0
-19.0,-248.0,48.0,-1.0,69.0,-1.0,-39.0,-961.0,144.0
-19.0,-249.0,44.0,-4.0,69.0,-1.0,-35.0,-964.0,144.0
-17.0,-250.0,46.0,-8.0,69.0,-2.0,-38.0,-965.0,138.0
-17.0,-247.0,46.0,-10.0,71.0,-2.0,-39.0,-959.0,142.0
-18.0,-248.0,47.0,-10.0,71.0,-2.0,-34.0,-964.0,144.0
-20.0,-249.0,45.0,-10.0,71.0,-2.0,-37.0,-965.0,142.0
-18.0,-249.0,46.0,-11.0,72.0,-4.0,-38.0,-970.0,143.0
-16.0,-252.0,45.0,-11.0,71.0,-1.0,-37.0,-968.0,147.0
-18.0,-248.0,45.0,-7.0,69.0,-1.0,-37.0,-973.0,147.0
-17.0,-251.0,46.0,-1.0,70.0,0.0,-39.0,-972.0,151.0
-19.0,-247.0,45.0,3.0,70.0,1.0,-38.0,-973.0,147.0
-18.0,-252.0,46.0,5.0,68.0,1.0,-37.0,-966.0,143.0
-18.0,-249.0,46.0,5.0,66.0,1.0,-40.0,-965.0,149.0
-16.0,-252.0,44.0,6.0,66.0,1.0,-42.0,-970.0,147.0
-20.0,-252.0,45.0,5.0,65.0,0.0,-37.0,-967.0,143.0
-19.0,-249.0,43.0,2.0,65.0,-1.0,-45.0,-964.0,147.0
-18.0,-248.0,48.0,-1.0,65.0,-1.0,-42.0,-967.0,145.0
-17.0,-251.0,44.0,-5.0,66.0,-5.0,-40.0,-965.0,143.0
-20.0,-249.0,46.0,-7.0,65.0,-4.0,-34.0,-968.0,148.0
-19.0,-248.0,46.0,-9.0,67.0,-5.0,-39.0,-968.0,146.0
-17.0,-251.0,49.0,-11.0,67.0,-7.0,-40.0,-971.0,143.0
-17.0,-250.0,44.0,-14.0,69.0,-5.0,-39.0,-964.0,146.0
-17.0,-249.0,48.0,-12.0,69.0,-3.0,-36.0,-964.0,143.0
-16.0,-250.0,43.0,-13.0,70.0,-4.0,-34.0,-967.0,144.0
-19.0,-250.0,47.0,-11.0,71.0,-4.0,-40.0,-969.0,140.0
-19.0,-249.0,46.0,-9.0,72.0,-4.0,-40.0,-963.0,146.0
-18.0,-248.0,43.0,-8.0,71.0,-4.0,-36.0,-967.0,138.0
-16.0,-250.0,45.0,-8.0,72.0,-4.0,-43.0,-967.0,145.0
-20.0,-249.0,47.0,-7.0,74.0,-5.0,-38.0,-964.0,141.0
-16.0,-250.0,44.0,-10.0,73.0,-4.0,-39.0,-964.0,143.0
-18.0,-248.0,43.0,-15.0,71.0,-8.0,-38.0,-966.0,147.0
-20.0,-250.0,46.0,-21.0,68.0,-8.0,-35.0,-964.0,141.0
-18.0,-249.0,49.0,-25.0,67.0,-9.0,-35.0,-969.0,149.0
-22.0,-250.0,47.0,-26.0,66.0,-8.0,-40.0,-977.0,145.0
-18.0,-253.0,45.0,-26.0,65.0,-6.0,-39.0,-972.0,142.0
-19.0,-251.0,47.0,-26.0,64.0,-7.0,-42.0,-976.0,141.0
-18.0,-250.0,46.0,-24.0,63.0,-6.0,-35.0,-978.0,142.0
-18.0,-252.0,46.0,-20.0,65.0,-4.0,-38.0,-976.0,142.0
-18.0,-253.0,46.0,-17.0,65.0,-4.0,-40.0,-974.0,142.0
-20.0,-250.0,40.0,-13.0,65.0,-3.0,-41.0,-978.0,144.0
-17.0,-253.0,45.0,-10.0,66.0,-3.0,-36.0,-979.0,142.0
-17.0,-255.0,45.0,-5.0,65.0,-2.0,-38.0,-978.0,140.0
-16.0,-250.0,46.0,-2.0,67.0,-2.0,-39.0,-969.0,140.0
-18.0,-251.0,45.0,4.0,66.0,0.0,-35.0,-965.0,136.0
-18.0,-250.0,44.0,6.0,66.0,0.0,-38.0,-968.0,130.0
-16.0,-249.0,45.0,10.0,67.0,2.0,-40.0,-968.0,139.0
-20.0,-250.0,44.0,10.0,67.0,2.0,-37.0,-957.0,131.0
-17.0,-247.0,40.0,8.0,68.0,4.0,-39.0,-961.0,134.0
-16.0,-248.0,44.0,5.0,68.0,6.0,-45.0,-964.0,138.0
-19.0,-248.0,48.0,4.0,70.0,5.0,-38.0,-955.0,137.0
-16.0,-249.0,46.0,0.0,71.0,6.0,-42.0,-958.0,142.0
-18.0,-246.0,46.0,-3.0,72.0,6.0,-45.0,-959.0,138.0
-17.0,-246.0,46.0,-15.0,72.0,5.0,-39.0,-955.0,140.0
-18.0,-247.0,45.0,-27.0,70.0,1.0,-40.0,-955.0,142.0
-16.0,-249.0,46.0,-33.0,71.0,-1.0,-39.0,-959.0,149.0
-19.0,-248.0,47.0,-32.0,68.0,-3.0,-38.0,-971.0,149.0
-17.0,-251.0,46.0,-31.0,69.0,-5.0,-37.0,-966.0,147.0
-16.0,-251.0,47.0,-31.0,67.0,-3.0,-33.0,-973.0,150.0
-16.0,-250.0,45.0,-30.0,64.0,-4.0,-33.0,-973.0,147.0
-15.0,-256.0,49.0,-30.0,61.0,-2.0,-32.0,-970.0,151.0
-18.0,-263.0,47.0,-27.0,59.0,-1.0,-38.0,-975.0,146.0
-18.0,-252.0,49.0,-22.0,58.0,0.0,-38.0,-976.0,145.0
-16.0,-250.0,48.0,-17.0,57.0,0.0,-34.0,-972.0,150.0
-18.0,-250.0,44.0,-12.0,56.0,-2.0,-37.0,-969.0,144.0
-17.0,-250.0,48.0,-10.0,57.0,-2.0,-41.0,-963.0,144.0
-18.0,-248.0,46.0,-11.0,55.0,-5.0,-38.0,-963.0,144.0
-18.0,-249.0,47.0,-14.0,56.0,-5.0,-45.0,-961.0,141.0
-18.0,-248.0,45.0,-17.0,55.0,-6.0,-42.0,-963.0,141.0
-21.0,-251.0,45.0,-17.0,57.0,-8.0,-45.0,-962.0,141.0
-21.0,-248.0,46.0,-18.0,58.0,-8.0,-45.0,-966.0,136.0
-19.0,-249.0,44.0,-21.0,61.0,-8.0,-46.0,-964.0,141.0
-21.0,-250.0,44.0,-23.0,61.0,-7.0,-46.0,-971.0,135.0
-20.0,-252.0,47.0,-23.0,63.0,-6.0,-44.0,-968.0,144.0
-19.0,-250.0,46.0,-21.0,65.0,-6.0,-47.0,-971.0,143.0
-21.0,-252.0,47.0,-16.0,65.0,-6.0,-41.0,-975.0,143.0
-20.0,-250.0,46.0,-13.0,65.0,-4.0,-39.0,-973.0,140.0
-18.0,-252.0,45.0,-11.0,67.0,-3.0,-41.0,-969.0,139.0
-18.0,-249.0,44.0,-10.0,65.0,-1.0,-46.0,-965.0,140.0
-16.0,-251.0,43.0,-8.0,66.0,-2.0,-38.0,-965.0,146.0
-17.0,-249.0,44.0,-6.0,69.0,-2.0,-41.0,-964.0,141.0
-19.0,-248.0,43.0,-8.0,66.0,-3.0,-38.0,-962.0,138.0
-17.0,-250.0,46.0,-16.0,69.0,-3.0,-43.0,-959.0,140.0
-14.0,-255.0,45.0,-23.0,69.0,-2.0,-42.0,-963.0,140.0
-21.0,-248.0,47.0,-26.0,67.0,-5.0,-39.0,-963.0,142.0
-18.0,-250.0,44.0,-26.0,70.0,-4.0,-35.0,-971.0,143.0
-16.0,-251.0,46.0,-24.0,71.0,-4.0,-34.0,-970.0,140.0
-17.0,-253.0,38.0,-21.0,70.0,-5.0,-37.0,-978.0,140.0
-16.0,-251.0,45.0,-17.0,70.0,-5.0,-36.0,-973.0,137.0
-16.0,-251.0,45.0,-16.0,71.0,-6.0,-33.0,-974.0,140.0
-17.0,-251.0,47.0,-13.0,70.0,-6.0,-33.0,-976.0,139.0
-16.0,-249.0,47.0,-9.0,70.0,-6.0,-28.0,-972.0,144.0
-15.0,-252.0,44.0,-5.0,69.0,-8.0,-36.0,-968.0,142.0
-17.0,-251.0,45.0,-2.0,68.0,-7.0,-32.0,-970.0,143.0
-18.0,-249.0,46.0,-2.0,69.0,-8.0,-31.0,-966.0,140.0
-15.0,-250.0,45.0,-4.0,67.0,-10.0,-30.0,-966.0,139.0
-20.0,-249.0,46.0,-5.0,69.0,-11.0,-32.0,-959.0,139.0
-14.0,-252.0,43.0,-6.0,70.0,-12.0,-34.0,-968.0,141.0
-14.0,-252.0,46.0,-3.0,70.0,-11.0,-34.0,-968.0,141.0
-15.0,-251.0,46.0,-3.0,71.0,-12.0,-36.0,-969.0,145.0
-17.0,-250.0,43.0,-5.0,74.0,-11.0,-37.0,-966.0,142.0
-18.0,-252.0,44.0,-8.0,77.0,-12.0,-33.0,-970.0,136.0
-17.0,-249.0,45.0,-9.0,75.0,-13.0,-33.0,-967.0,136.0
-17.0,-248.0,44.0,-11.0,76.0,-13.0,-34.0,-971.0,137.0
-15.0,-248.0,44.0,-12.0,77.0,-14.0,-29.0,-968.0,132.0
-15.0,-260.0,41.0,-11.0,76.0,-15.0,-33.0,-966.0,136.0
-15.0,-252.0,45.0,-11.0,76.0,-14.0,-35.0,-966.0,140.0
-16.0,-253.0,46.0,-9.0,76.0,-12.0,-30.0,-966.0,142.0
-18.0,-250.0,46.0,-6.0,76.0,-11.0,-33.0,-970.0,142.0
-17.0,-251.0,45.0,-4.0,75.0,-10.0,-32.0,-973.0,142.0
-16.0,-255.0,45.0,0.0,75.0,-8.0,-30.0,-972.0,139.0
-15.0,-253.0,46.0,0.0,74.0,-6.0,-34.0,-973.0,135.0
-17.0,-252.0,44.0,1.0,73.0,-4.0,-33.0,-975.0,139.0
-17.0,-251.0,43.0,5.0,71.0,-2.0,-37.0,-980.0,138.0
-19.0,-251.0,49.0,9.0,71.0,-1.0,-34.0,-977.0,140.0
-18.0,-252.0,44.0,14.0,71.0,1.0,-36.0,-973.0,140.0
-19.0,-250.0,47.0,16.0,72.0,2.0,-36.0,-973.0,141.0
-18.0,-251.0,45.0,15.0,72.0,2.0,-37.0,-966.0,136.0
-20.0,-248.0,45.0,12.0,71.0,1.0,-40.0,-962.0,138.0
-17.0,-249.0,45.0,10.0,71.0,0.0,-43.0,-960.0,137.0
-17.0,-248.0,42.0,7.0,71.0,-1.0,-39.0,-956.0,142.0
-20.0,-247.0,46.0,2.0,70.0,-1.0,-42.0,-959.0,143.0
-17.0,-250.0,47.0,-5.0,70.0,-1.0,-38.0,-961.0,140.0
-19.0,-248.0,47.0,-9.0,70.0,-1.0,-41.0,-961.0,142.0
-18.0,-248.0,44.0,-15.0,71.0,-2.0,-41.0,-963.0,143.0
-19.0,-248.0,48.0,-19.0,70.0,-3.0,-42.0,-970.0,146.0
-18.0,-250.0,46.0,-21.0,70.0,-1.0,-41.0,-968.0,144.0
-20.0,-251.0,47.0,-23.0,67.0,-1.0,-44.0,-974.0,147.0
-19.0,-252.0,46.0,-23.0,69.0,-1.0,-43.0,-969.0,148.0
-19.0,-250.0,46.0,-22.0,69.0,1.0,-42.0,-968.0,153.0
-21.0,-249.0,46.0,-20.0,67.0,0.0,-39.0,-965.0,147.0
-18.0,-249.0,47.0,-20.0,66.0,0.0,-40.0,-966.0,146.0
-20.0,-248.0,45.0,-21.0,66.0,-2.0,-43.0,-964.0,140.0
-16.0,-248.0,46.0,-24.0,65.0,-2.0,-44.0,-967.0,144.0
-17.0,-251.0,46.0,-27.0,66.0,-1.0,-45.0,-959.0,145.0
-21.0,-250.0,44.0,-28.0,65.0,-2.0,-41.0,-966.0,147.0
-16.0,-251.0,43.0,-27.0,66.0,-3.0,-38.0,-965.0,147.0
-20.0,-251.0,48.0,-24.0,65.0,-3.0,-44.0,-970.0,152.0
-21.0,-252.0,47.0,-21.0,65.0,-2.0,-43.0,-978.0,150.0
-19.0,-252.0,44.0,-17.0,65.0,-1.0,-44.0,-972.0,147.0
-20.0,-252.0,50.0,-17.0,65.0,1.0,-40.0,-968.0,148.0
-19.0,-251.0,46.0,-18.0,65.0,-1.0,-40.0,-971.0,141.0
-18.0,-250.0,44.0,-15.0,66.0,0.0,-38.0,-968.0,148.0
-17.0,-250.0,48.0,-16.0,65.0,-1.0,-40.0,-966.0,146.0
-17.0,-248.0,48.0,-18.0,64.0,-1.0,-37.0,-963.0,149.0
-17.0,-251.0,47.0,-20.0,63.0,-2.0,-34.0,-963.0,148.0
-15.0,-251.0,46.0,-19.0,62.0,-4.0,-33.0,-964.0,144.0
-17.0,-250.0,47.0,-18.0,60.0,-3.0,-37.0,-964.0,143.0
-18.0,-249.0,46.0,-20.0,58.0,-4.0,-41.0,-966.0,141.0
-21.0,-246.0,49.0,-20.0,58.0,-3.0,-35.0,-968.0,145.0
-19.0,-250.0,48.0,-18.0,57.0,-5.0,-38.0,-970.0,142.0
-19.0,-253.0,45.0,-14.0,59.0,-3.0,-40.0,-974.0,141.0
-17.0,-252.0,46.0,-12.0,60.0,-1.0,-37.0,-973.0,141.0
-18.0,-254.0,42.0,-10.0,62.0,0.0,-41.0,-969.0,139.0
-21.0,-250.0,44.0,-8.0,65.0,1.0,-38.0,-969.0,141.0
-19.0,-250.0,44.0,-5.0,66.0,0.0,-42.0,-967.0,138.0
-16.0,-250.0,44.0,-6.0,67.0,-1.0,-36.0,-973.0,145.0
-20.0,-251.0,44.0,-8.0,66.0,0.0,-35.0,-969.0,142.0
-18.0,-249.0,47.0,-13.0,67.0,-1.0,-36.0,-969.0,129.0
-16.0,-250.0,46.0,-18.0,66.0,-2.0,-40.0,-963.0,141.0
-18.0,-247.0,45.0,-20.0,67.0,-2.0,-36.0,-963.0,139.0
-18.0,-253.0,43.0,-21.0,66.0,-1.0,-36.0,-968.0,141.0
-17.0,-252.0,46.0,-22.0,67.0,1.0,-38.0,-974.0,137.0
-17.0,-250.0,44.0,-22.0,65.0,2.0,-41.0,-972.0,139.0
-17.0,-253.0,44.0,-21.0,66.0,2.0,-36.0,-974.0,139.0
-19.0,-253.0,49.0,-19.0,67.0,4.0,-36.0,-970.0,138.0
-17.0,-252.0,44.0,-15.0,67.0,4.0,-36.0,-974.0,133.0
-18.0,-251.0,41.0,-14.0,65.0,2.0,-35.0,-973.0,127.0
-16.0,-248.0,43.0,-16.0,65.0,1.0,-39.0,-962.0,131.0
-18.0,-248.0,44.0,-22.0,65.0,-2.0,-39.0,-960.0,138.0
-17.0,-256.0,48.0,-24.0,66.0,-3.0,-42.0,-966.0,145.0
-21.0,-248.0,45.0,-25.0,68.0,-4.0,-35.0,-965.0,143.0
-14.0,-254.0,46.0,-27.0,69.0,-6.0,-33.0,-968.0,141.0
-13.0,-251.0,43.0,-32.0,68.0,-5.0,-30.0,-970.0,134.0
-16.0,-249.0,45.0,-36.0,66.0,-6.0,-32.0,-963.0,131.0
-15.0,-249.0,46.0,-38.0,66.0,-7.0,-29.0,-969.0,129.0
-17.0,-250.0,44.0,-37.0,66.0,-8.0,-38.0,-970.0,142.0
-13.0,-255.0,46.0,-31.0,66.0,-6.0,-32.0,-974.0,135.0
-17.0,-251.0,43.0,-24.0,68.0,-6.0,-38.0,-977.0,132.0
-16.0,-251.0,45.0,-18.0,69.0,-7.0,-35.0,-977.0,133.0
-17.0,-252.0,45.0,-14.0,69.0,-4.0,-40.0,-975.0,140.0
-18.0,-249.0,42.0,-12.0,69.0,-4.0,-40.0,-969.0,133.0
-18.0,-251.0,44.0,-13.0,69.0,-5.0,-37.0,-965.0,139.0
-19.0,-248.0,45.0,-14.0,69.0,-7.0,-39.0,-963.0,145.0
-16.0,-249.0,45.0,-14.0,70.0,-8.0,-41.0,-966.0,140.0
-19.0,-250.0,45.0,-16.0,70.0,-9.0,-36.0,-965.0,140.0
-20.0,-249.0,44.0,-20.0,69.0,-10.0,-40.0,-961.0,145.0
-18.0,-251.0,43.0,-25.0,69.0,-10.0,-40.0,-965.0,133.0
-18.0,-251.0,44.0,-25.0,67.0,-10.0,-39.0,-969.0,138.0
-21.0,-253.0,44.0,-24.0,69.0,-10.0,-41.0,-973.0,140.0
-19.0,-252.0,46.0,-20.0,70.0,-8.0,-39.0,-976.0,136.0
-16.0,-253.0,48.0,-14.0,71.0,-8.0,-40.0,-979.0,142.0
-15.0,-250.0,43.0,-7.0,70.0,-5.0,-37.0,-974.0,141.0
-17.0,-251.0,47.0,-3.0,71.0,-5.0,-35.0,-973.0,137.0
-16.0,-251.0,47.0,-1.0,72.0,-5.0,-40.0,-974.0,140.0
-17.0,-251.0,45.0,0.0,72.0,-4.0,-37.0,-969.0,138.0
-18.0,-251.0,44.0,1.0,73.0,-2.0,-39.0,-969.0,132.0
-16.0,-251.0,44.0,2.0,73.0,-2.0,-38.0,-965.0,138.0
-19.0,-250.0,45.0,2.0,74.0,-1.0,-42.0,-968.0,132.0
-19.0,-252.0,45.0,3.0,74.0,-1.0,-40.0,-967.0,139.0
-20.0,-249.0,46.0,5.0,74.0,1.0,-43.0,-963.0,137.0
-16.0,-250.0,46.0,6.0,75.0,4.0,-39.0,-969.0,138.0
-20.0,-250.0,46.0,6.0,74.0,2.0,-40.0,-971.0,141.0
-19.0,-250.0,46.0,4.0,74.0,0.0,-46.0,-969.0,142.0
-19.0,-251.0,44.0,2.0,72.0,2.0,-45.0,-968.0,134.0
-20.0,-252.0,46.0,-2.0,73.0,0.0,-39.0,-970.0,139.0
-19.0,-252.0,48.0,-3.0,74.0,-1.0,-38.0,-972.0,141.0
-18.0,-250.0,43.0,-1.0,75.0,-1.0,-43.0,-974.0,142.0
-15.0,-253.0,44.0,-1.0,76.0,-1.0,-44.0,-965.0,142.0
-18.0,-250.0,43.0,2.0,76.0,1.0,-41.0,-963.0,144.0
-20.0,-249.0,46.0,5.0,76.0,1.0,-35.0,-967.0,143.0
-17.0,-251.0,49.0,8.0,73.0,1.0,-34.0,-971.0,140.0
-20.0,-250.0,44.0,10.0,71.0,1.0,-36.0,-970.0,141.0
-16.0,-249.0,47.0,11.0,68.0,2.0,-37.0,-968.0,142.0
-21.0,-252.0,41.0,11.0,65.0,1.0,-34.0,-969.0,137.0
-18.0,-252.0,44.0,9.0,63.0,0.0,-36.0,-968.0,136.0
-15.0,-252.0,45.0,9.0,61.0,1.0,-38.0,-964.0,139.0
-17.0,-252.0,47.0,9.0,60.0,0.0,-41.0,-970.0,139.0
-17.0,-248.0,46.0,10.0,61.0,2.0,-42.0,-967.0,140.0
-19.0,-248.0,44.0,10.0,62.0,2.0,-37.0,-968.0,135.0
-22.0,-249.0,44.0,8.0,63.0,2.0,-35.0,-963.0,132.0
-15.0,-250.0,40.0,6.0,62.0,1.0,-35.0,-961.0,128.0
-19.0,-247.0,43.0,1.0,62.0,-1.0,-39.0,-961.0,130.0
-15.0,-248.0,44.0,-2.0,61.0,-1.0,-38.0,-969.0,134.0
-17.0,-251.0,45.0,-3.0,64.0,-2.0,-40.0,-969.0,132.0
-20.0,-251.0,44.0,-2.0,65.0,-1.0,-36.0,-972.0,136.0
-18.0,-249.0,46.0,0.0,66.0,0.0,-37.0,-973.0,143.0
-17.0,-252.0,42.0,0.0,68.0,-1.0,-37.0,-973.0,136.0
-20.0,-250.0,41.0,2.0,67.0,1.0,-37.0,-970.0,133.0
-21.0,-252.0,46.0,1.0,67.0,2.0,-37.0,-971.0,131.0
-15.0,-252.0,43.0,1.0,67.0,1.0,-37.0,-970.0,136.0
-17.0,-251.0,45.0,5.0,67.0,-1.0,-35.0,-963.0,137.0
-18.0,-249.0,46.0,7.0,67.0,0.0,-34.0,-963.0,140.0
-17.0,-248.0,41.0,7.0,65.0,0.0,-38.0,-961.0,142.0
-18.0,-248.0,46.0,3.0,64.0,-1.0,-43.0,-957.0,137.0
-22.0,-247.0,47.0,0.0,64.0,-2.0,-38.0,-962.0,142.0
-20.0,-244.0,48.0,-3.0,62.0,-2.0,-39.0,-966.0,147.0
-20.0,-250.0,44.0,-1.0,63.0,-2.0,-39.0,-969.0,150.0
-17.0,-248.0,45.0,0.0,63.0,-2.0,-37.0,-966.0,145.0
-20.0,-248.0,44.0,-3.0,64.0,-4.0,-40.0,-963.0,144.0
-19.0,-249.0,44.0,-6.0,63.0,-5.0,-38.0,-960.0,141.0
-18.0,-248.0,46.0,-10.0,63.0,-4.0,-37.0,-966.0,146.0
-19.0,-249.0,47.0,-16.0,65.0,-5.0,-39.0,-966.0,154.0
-20.0,-250.0,46.0,-19.0,66.0,-5.0,-34.0,-970.0,151.0
-19.0,-253.0,47.0,-24.0,67.0,-6.0,-33.0,-970.0,152.0
-16.0,-254.0,46.0,-26.0,67.0,-5.0,-40.0,-970.0,156.0
-19.0,-251.0,50.0,-28.0,66.0,-5.0,-34.0,-967.0,151.0
-19.0,-250.0,47.0,-28.0,66.0,-5.0,-36.0,-968.0,152.0
-18.0,-252.0,48.0,-27.0,65.0,-4.0,-38.0,-965.0,151.0
-18.0,-250.0,45.0,-30.0,64.0,-7.0,-38.0,-965.0,151.0
-17.0,-250.0,47.0,-33.0,64.0,-5.0,-38.0,-959.0,152.0
-18.0,-250.0,48.0,-35.0,65.0,-6.0,-39.0,-965.0,156.0
-17.0,-248.0,49.0,-35.0,65.0,-8.0,-35.0,-966.0,152.0
-15.0,-250.0,47.0,-34.0,66.0,-8.0,-39.0,-964.0,152.0
-18.0,-250.0,46.0,-37.0,66.0,-8.0,-39.0,-972.0,162.0
-19.0,-253.0,48.0,-37.0,68.0,-9.0,-36.0,-964.0,158.0
-17.0,-254.0,46.0,-35.0,67.0,-9.0,-37.0,-970.0,160.0
-18.0,-250.0,47.0,-33.0,70.0,-8.0,-34.0,-970.0,159.0
-20.0,-252.0,44.0,-30.0,70.0,-8.0,-37.0,-971.0,155.0
-17.0,-251.0,50.0,-25.0,69.0,-8.0,-34.0,-973.0,155.0
-19.0,-252.0,48.0,-20.0,69.0,-6.0,-33.0,-971.0,152.0
-16.0,-253.0,47.0,-16.0,69.0,-5.0,-36.0,-972.0,154.0
-17.0,-250.0,49.0,-13.0,69.0,-4.0,-39.0,-966.0,154.0
-18.0,-249.0,47.0,-12.0,70.0,-4.0,-39.0,-965.0,151.0
-17.0,-249.0,47.0,-14.0,68.0,-3.0,-38.0,-968.0,148.0
-17.0,-248.0,46.0,-17.0,70.0,-4.0,-34.0,-963.0,151.0
-17.0,-249.0,47.0,-21.0,70.0,-5.0,-37.0,-963.0,149.0
-19.0,-248.0,45.0,-25.0,71.0,-4.0,-39.0,-960.0,147.0
-18.0,-248.0,48.0,-29.0,72.0,-3.0,-36.0,-964.0,143.0
-15.0,-250.0,49.0,-35.0,69.0,-4.0,-34.0,-959.0,140.0
-20.0,-249.0,45.0,-38.0,70.0,-6.0,-36.0,-967.0,143.0
-18.0,-250.0,46.0,-40.0,69.0,-5.0,-32.0,-974.0,140.0
-17.0,-249.0,44.0,-40.0,67.0,-5.0,-34.0,-969.0,138.0
-20.0,-252.0,44.0,-37.0,68.0,-3.0,-33.0,-968.0,135.0
-15.0,-253.0,43.0,-33.0,66.0,-3.0,-38.0,-977.0,136.0
-18.0,-251.0,45.0,-31.0,64.0,-2.0,-34.0,-976.0,133.0
-17.0,-250.0,44.0,-26.0,63.0,-2.0,-39.0,-974.0,130.0
-19.0,-253.0,47.0,-22.0,62.0,-2.0,-33.0,-968.0,133.0
-18.0,-252.0,42.0,-22.0,60.0,-1.0,-40.0,-973.0,132.0
-17.0,-247.0,37.0,-23.0,60.0,-2.0,-33.0,-969.0,128.0
-18.0,-249.0,42.0,-23.0,62.0,-2.0,-41.0,-968.0,126.0
-18.0,-250.0,43.0,-28.0,62.0,-3.0,-39.0,-963.0,129.0
-20.0,-249.0,45.0,-34.0,64.0,-4.0,-37.0,-969.0,124.0
-20.0,-251.0,41.0,-37.0,66.0,-4.0,-37.0,-962.0,126.0
-16.0,-250.0,44.0,-42.0,66.0,-3.0,-34.0,-972.0,129.0
-18.0,-250.0,42.0,-46.0,68.0,-2.0,-35.0,-968.0,125.0
-16.0,-251.0,44.0,-48.0,68.0,-2.0,-38.0,-970.0,126.0
-18.0,-251.0,42.0,-50.0,67.0,-3.0,-32.0,-970.0,127.0
-18.0,-251.0,45.0,-48.0,66.0,-3.0,-34.0,-968.0,127.0
-19.0,-249.0,43.0,-44.0,63.0,-3.0,-34.0,-971.0,129.0
-16.0,-253.0,45.0,-40.0,63.0,-4.0,-34.0,-971.0,129.0
-19.0,-252.0,44.0,-36.0,62.0,-4.0,-34.0,-974.0,130.0
-19.0,-249.0,44.0,-34.0,60.0,-5.0,-37.0,-967.0,128.0
-19.0,-251.0,45.0,-35.0,59.0,-4.0,-35.0,-967.0,124.0
-18.0,-249.0,43.0,-36.0,59.0,-3.0,-44.0,-962.0,125.0
-19.0,-250.0,42.0,-36.0,60.0,-3.0,-42.0,-965.0,124.0
-20.0,-248.0,43.0,-37.0,61.0,-5.0,-42.0,-965.0,128.0
-17.0,-250.0,44.0,-40.0,63.0,-4.0,-36.0,-970.0,122.0
-19.0,-250.0,45.0,-42.0,64.0,-4.0,-42.0,-964.0,129.0
-20.0,-250.0,44.0,-45.0,65.0,-5.0,-36.0,-971.0,127.0
-21.0,-250.0,43.0,-46.0,66.0,-7.0,-35.0,-977.0,123.0
-12.0,-254.0,46.0,-43.0,66.0,-6.0,-39.0,-971.0,131.0
-20.0,-250.0,44.0,-41.0,65.0,-6.0,-40.0,-973.0,139.0
-15.0,-251.0,45.0,-38.0,65.0,-6.0,-37.0,-976.0,135.0
-16.0,-252.0,40.0,-35.0,64.0,-7.0,-34.0,-972.0,132.0
-17.0,-251.0,44.0,-32.0,62.0,-5.0,-35.0,-975.0,133.0
-16.0,-251.0,44.0,-28.0,62.0,-5.0,-35.0,-973.0,135.0
-19.0,-252.0,44.0,-24.0,61.0,-3.0,-39.0,-970.0,134.0
-19.0,-248.0,43.0,-21.0,60.0,-4.0,-40.0,-972.0,134.0
-18.0,-249.0,39.0,-22.0,62.0,-6.0,-39.0,-966.0,138.0
-19.0,-247.0,47.0,-25.0,60.0,-6.0,-39.0,-963.0,131.0
-19.0,-249.0,42.0,-33.0,60.0,-8.0,-42.0,-963.0,133.0
-18.0,-248.0,46.0,-39.0,61.0,-9.0,-40.0,-965.0,141.0
-16.0,-249.0,45.0,-46.0,62.0,-11.0,-42.0,-963.0,140.0
-19.0,-249.0,44.0,-52.0,63.0,-12.0,-35.0,-971.0,145.0
-18.0,-248.0,44.0,-55.0,65.0,-11.0,-36.0,-969.0,143.0
-15.0,-254.0,47.0,-59.0,66.0,-13.0,-33.0,-974.0,143.0
-15.0,-252.0,46.0,-60.0,67.0,-15.0,-33.0,-975.0,146.0
-19.0,-252.0,46.0,-58.0,65.0,-14.0,-42.0,-974.0,146.0
-19.0,-252.0,46.0,-53.0,64.0,-14.0,-35.0,-976.0,149.0
-17.0,-251.0,46.0,-48.0,65.0,-15.0,-37.0,-980.0,145.0
-20.0,-249.0,43.0,-48.0,66.0,-15.0,-37.0,-973.0,139.0
-19.0,-252.0,41.0,-51.0,66.0,-14.0,-33.0,-971.0,142.0
-16.0,-252.0,46.0,-53.0,65.0,-13.0,-34.0,-970.0,145.0
-14.0,-248.0,47.0,-52.0,66.0,-12.0,-34.0,-979.0,149.0
-16.0,-250.0,47.0,-50.0,68.0,-10.0,-39.0,-974.0,148.0
-17.0,-249.0,46.0,-49.0,68.0,-9.0,-35.0,-969.0,146.0
-17.0,-250.0,42.0,-50.0,68.0,-8.0,-37.0,-967.0,146.0
-18.0,-249.0,48.0,-53.0,67.0,-8.0,-39.0,-966.0,142.0
-20.0,-252.0,43.0,-54.0,66.0,-9.0,-33.0,-968.0,143.0
-17.0,-249.0,44.0,-54.0,67.0,-8.0,-35.0,-969.0,136.0
-19.0,-249.0,44.0,-53.0,66.0,-7.0,-35.0,-968.0,134.0
-16.0,-249.0,45.0,-51.0,66.0,-7.0,-35.0,-966.0,140.0
-18.0,-249.0,45.0,-50.0,66.0,-7.0,-37.0,-971.0,135.0
-16.0,-251.0,43.0,-48.0,66.0,-7.0,-33.0,-974.0,129.0
-19.0,-249.0,44.0,-45.0,66.0,-6.0,-38.0,-968.0,136.0
-15.0,-251.0,42.0,-41.0,67.0,-4.0,-37.0,-971.0,135.0
-18.0,-253.0,43.0,-41.0,66.0,-3.0,-34.0,-971.0,125.0
-15.0,-254.0,41.0,-39.0,65.0,-3.0,-38.0,-973.0,127.0
-16.0,-254.0,41.0,-38.0,66.0,-3.0,-36.0,-973.0,128.0
-16.0,-253.0,43.0,-37.0,67.0,-4.0,-34.0,-975.0,126.0
-16.0,-254.0,44.0,-35.0,68.0,-3.0,-33.0,-974.0,124.0
-18.0,-252.0,44.0,-33.0,68.0,-4.0,-39.0,-974.0,128.0
-17.0,-252.0,39.0,-32.0,67.0,-6.0,-41.0,-977.0,126.0
-14.0,-252.0,42.0,-34.0,65.0,-5.0,-34.0,-970.0,121.0
-18.0,-247.0,40.0,-34.0,65.0,-5.0,-31.0,-970.0,115.0
-19.0,-247.0,39.0,-35.0,64.0,-4.0,-36.0,-965.0,119.0
-19.0,-249.0,36.0,-33.0,65.0,-5.0,-33.0,-966.0,117.0
-15.0,-254.0,40.0,-30.0,65.0,-4.0,-36.0,-963.0,116.0
-16.0,-251.0,42.0,-30.0,67.0,-3.0,-38.0,-966.0,116.0
-15.0,-249.0,41.0,-30.0,66.0,-4.0,-36.0,-965.0,117.0
-17.0,-251.0,41.0,-32.0,68.0,-4.0,-32.0,-972.0,110.0
-17.0,-253.0,41.0,-30.0,70.0,-5.0,-35.0,-973.0,117.0
-19.0,-251.0,37.0,-27.0,73.0,-6.0,-33.0,-975.0,119.0
-16.0,-251.0,39.0,-25.0,72.0,-5.0,-34.0,-975.0,115.0
-20.0,-250.0,34.0,-26.0,71.0,-5.0,-37.0,-971.0,110.0
-17.0,-249.0,39.0,-29.0,69.0,-7.0,-33.0,-973.0,113.0
-16.0,-253.0,40.0,-29.0,70.0,-6.0,-36.0,-973.0,114.0
-18.0,-253.0,41.0,-23.0,70.0,-7.0,-33.0,-983.0,116.0
-15.0,-254.0,42.0,-16.0,69.0,-6.0,-33.0,-986.0,118.0
-18.0,-253.0,40.0,-10.0,68.0,-4.0,-40.0,-984.0,113.0
-16.0,-250.0,37.0,-8.0,67.0,-3.0,-38.0,-975.0,110.0
-17.0,-252.0,39.0,-7.0,64.0,-3.0,-34.0,-983.0,112.0
-14.0,-253.0,39.0,-8.0,65.0,-3.0,-39.0,-974.0,119.0
-16.0,-253.0,40.0,-6.0,64.0,-2.0,-36.0,-973.0,119.0
-16.0,-254.0,41.0,-3.0,66.0,0.0,-34.0,-972.0,118.0
-17.0,-249.0,42.0,2.0,66.0,0.0,-37.0,-970.0,125.0
-28.0,-243.0,34.0,0.0,64.0,2.0,-38.0,-969.0,111.0
-17.0,-249.0,40.0,-3.0,64.0,3.0,-33.0,-962.0,117.0
-17.0,-250.0,38.0,2.0,67.0,3.0,-35.0,-971.0,108.0
-17.0,-249.0,42.0,10.0,69.0,4.0,-35.0,-966.0,114.0
-16.0,-250.0,41.0,14.0,70.0,5.0,-40.0,-969.0,114.0
-18.0,-251.0,41.0,11.0,73.0,3.0,-37.0,-962.0,121.0
-23.0,-248.0,44.0,2.0,74.0,3.0,-41.0,-967.0,122.0
-18.0,-248.0,42.0,-2.0,75.0,1.0,-34.0,-971.0,126.0
-19.0,-250.0,44.0,-4.0,76.0,1.0,-39.0,-976.0,126.0
-17.0,-253.0,41.0,-3.0,77.0,0.0,-35.0,-978.0,128.0
-14.0,-250.0,43.0,1.0,77.0,0.0,-33.0,-977.0,126.0
-18.0,-253.0,42.0,8.0,77.0,1.0,-32.0,-975.0,131.0
-16.0,-255.0,42.0,14.0,76.0,4.0,-39.0,-977.0,127.0
-15.0,-255.0,45.0,22.0,76.0,5.0,-26.0,-977.0,139.0
-17.0,-250.0,45.0,27.0,74.0,7.0,-39.0,-975.0,137.0
-16.0,-250.0,44.0,31.0,74.0,8.0,-34.0,-966.0,127.0
-18.0,-250.0,44.0,31.0,73.0,8.0,-35.0,-965.0,139.0
-16.0,-251.0,45.0,31.0,72.0,8.0,-33.0,-966.0,141.0
-17.0,-251.0,44.0,30.0,71.0,8.0,-31.0,-966.0,141.0
-18.0,-248.0,46.0,30.0,70.0,6.0,-37.0,-969.0,142.0
-16.0,-250.0,43.0,29.0,70.0,6.0,-37.0,-968.0,136.0
-23.0,-244.0,38.0,24.0,70.0,7.0,-37.0,-962.0,138.0
-18.0,-249.0,45.0,14.0,70.0,4.0,-39.0,-958.0,132.0
-19.0,-249.0,44.0,4.0,72.0,2.0,-38.0,-962.0,140.0
-19.0,-248.0,44.0,-4.0,73.0,0.0,-41.0,-962.0,136.0
-19.0,-250.0,46.0,-6.0,72.0,-1.0,-32.0,-970.0,139.0
-17.0,-253.0,43.0,-7.0,73.0,-1.0,-37.0,-968.0,140.0
-19.0,-249.0,45.0,-5.0,71.0,-1.0,-36.0,-971.0,139.0
-18.0,-253.0,43.0,-5.0,69.0,-2.0,-37.0,-970.0,140.0
-20.0,-251.0,45.0,-4.0,69.0,0.0,-31.0,-974.0,135.0
-20.0,-251.0,44.0,-2.0,67.0,0.0,-34.0,-975.0,138.0
-18.0,-252.0,44.0,2.0,67.0,0.0,-40.0,-978.0,136.0
-21.0,-251.0,43.0,8.0,68.0,2.0,-40.0,-977.0,134.0
-15.0,-251.0,42.0,15.0,70.0,4.0,-35.0,-978.0,135.0
-19.0,-248.0,45.0,20.0,72.0,4.0,-41.0,-970.0,129.0
-19.0,-249.0,40.0,18.0,73.0,4.0,-33.0,-962.0,123.0
-18.0,-248.0,43.0,11.0,75.0,3.0,-35.0,-961.0,132.0
-18.0,-247.0,43.0,5.0,77.0,2.0,-40.0,-962.0,136.0
-19.0,-248.0,45.0,0.0,80.0,1.0,-41.0,-965.0,141.0
-17.0,-250.0,45.0,-3.0,82.0,3.0,-39.0,-966.0,142.0
-16.0,-250.0,42.0,-5.0,82.0,2.0,-43.0,-969.0,142.0
-17.0,-251.0,45.0,-6.0,77.0,2.0,-36.0,-971.0,136.0
-19.0,-250.0,45.0,-6.0,75.0,3.0,-42.0,-973.0,136.0
-21.0,-250.0,47.0,-3.0,74.0,3.0,-34.0,-977.0,130.0
-19.0,-252.0,42.0,2.0,72.0,1.0,-40.0,-972.0,131.0
-18.0,-250.0,43.0,8.0,70.0,1.0,-41.0,-976.0,127.0
-16.0,-252.0,42.0,12.0,69.0,1.0,-40.0,-969.0,126.0
-20.0,-250.0,45.0,13.0,68.0,1.0,-39.0,-961.0,132.0
-18.0,-250.0,43.0,8.0,70.0,0.0,-38.0,-970.0,132.0
-16.0,-249.0,43.0,3.0,69.0,-1.0,-40.0,-962.0,130.0
-15.0,-251.0,40.0,-1.0,70.0,-1.0,-42.0,-963.0,127.0
-16.0,-250.0,44.0,-3.0,72.0,-2.0,-38.0,-970.0,134.0
-20.0,-250.0,43.0,-3.0,73.0,0.0,-38.0,-970.0,133.0
-20.0,-251.0,41.0,-5.0,72.0,1.0,-38.0,-972.0,129.0
-18.0,-249.0,43.0,-7.0,70.0,2.0,-41.0,-970.0,127.0
-18.0,-249.0,39.0,-10.0,69.0,1.0,-38.0,-969.0,125.0
-17.0,-252.0,43.0,-11.0,72.0,0.0,-41.0,-974.0,127.0
-15.0,-253.0,43.0,-9.0,72.0,0.0,-38.0,-976.0,128.0
-19.0,-251.0,43.0,-8.0,72.0,0.0,-38.0,-975.0,128.0
-16.0,-250.0,45.0,-5.0,71.0,1.0,-38.0,-973.0,130.0
-17.0,-253.0,40.0,-2.0,72.0,3.0,-35.0,-977.0,128.0
-19.0,-251.0,45.0,-1.0,71.0,1.0,-38.0,-975.0,125.0
-20.0,-250.0,44.0,1.0,71.0,3.0,-36.0,-973.0,130.0
-16.0,-251.0,44.0,0.0,71.0,2.0,-39.0,-974.0,130.0
-19.0,-250.0,42.0,0.0,71.0,4.0,-33.0,-972.0,129.0
-14.0,-252.0,41.0,1.0,71.0,2.0,-38.0,-965.0,128.0
-16.0,-252.0,45.0,3.0,71.0,2.0,-35.0,-975.0,132.0
-15.0,-253.0,44.0,2.0,68.0,2.0,-33.0,-969.0,129.0
-17.0,-249.0,44.0,-2.0,69.0,1.0,-38.0,-970.0,126.0
-20.0,-249.0,43.0,-4.0,69.0,0.0,-33.0,-968.0,130.0
-18.0,-251.0,44.0,-5.0,68.0,1.0,-41.0,-965.0,132.0
-16.0,-249.0,48.0,-5.0,69.0,0.0,-38.0,-972.0,127.0
-17.0,-251.0,44.0,-6.0,68.0,-1.0,-37.0,-972.0,129.0
-18.0,-250.0,43.0,-6.0,69.0,-1.0,-38.0,-969.0,135.0
-17.0,-251.0,45.0,-5.0,69.0,-1.0,-39.0,-976.0,138.0
-18.0,-250.0,42.0,-6.0,67.0,0.0,-37.0,-972.0,126.0
-19.0,-250.0,42.0,-5.0,66.0,0.0,-36.0,-973.0,130.0
-17.0,-252.0,42.0,-2.0,67.0,-1.0,-38.0,-975.0,131.0
-14.0,-252.0,45.0,0.0,69.0,-1.0,-37.0,-970.0,129.0
-17.0,-255.0,42.0,2.0,69.0,-1.0,-41.0,-973.0,136.0
-19.0,-249.0,41.0,4.0,70.0,-2.0,-41.0,-969.0,129.0
-19.0,-251.0,42.0,5.0,71.0,-1.0,-42.0,-972.0,130.0
-19.0,-250.0,43.0,5.0,70.0,-1.0,-36.0,-969.0,129.0
-14.0,-249.0,44.0,6.0,70.0,-1.0,-38.0,-966.0,138.0
-16.0,-249.0,45.0,5.0,70.0,-1.0,-36.0,-968.0,130.0
-18.0,-253.0,43.0,5.0,70.0,-1.0,-40.0,-971.0,132.0
-17.0,-251.0,44.0,1.0,70.0,-1.0,-37.0,-968.0,131.0
-11.0,-248.0,53.0,-2.0,70.0,-1.0,-38.0,-966.0,136.0
-18.0,-251.0,45.0,-3.0,70.0,-1.0,-41.0,-966.0,132.0
-17.0,-251.0,43.0,-1.0,70.0,-1.0,-38.0,-974.0,135.0
-20.0,-250.0,45.0,1.0,70.0,0.0,-34.0,-974.0,129.0
-18.0,-250.0,45.0,2.0,69.0,0.0,-38.0,-972.0,131.0
-15.0,-251.0,44.0,4.0,70.0,-1.0,-38.0,-972.0,131.0
-18.0,-250.0,44.0,6.0,70.0,-1.0,-42.0,-968.0,140.0
-18.0,-252.0,44.0,8.0,68.0,-1.0,-39.0,-969.0,131.0
-18.0,-249.0,44.0,11.0,70.0,0.0,-40.0,-971.0,134.0
-20.0,-250.0,45.0,11.0,70.0,0.0,-36.0,-969.0,141.0
-18.0,-250.0,43.0,8.0,69.0,-1.0,-42.0,-971.0,138.0
-17.0,-250.0,42.0,5.0,67.0,-1.0,-36.0,-969.0,142.0
-18.0,-251.0,44.0,3.0,69.0,-2.0,-35.0,-966.0,140.0
-15.0,-249.0,46.0,1.0,70.0,-2.0,-38.0,-973.0,144.0
-16.0,-252.0,43.0,-2.0,72.0,-1.0,-35.0,-967.0,144.0
-16.0,-253.0,42.0,-6.0,72.0,-1.0,-37.0,-962.0,133.0
-19.0,-250.0,44.0,-10.0,69.0,-1.0,-35.0,-966.0,135.0
-16.0,-251.0,42.0,-12.0,71.0,-2.0,-37.0,-970.0,139.0
-18.0,-252.0,46.0,-12.0,72.0,-3.0,-37.0,-968.0,141.0
-18.0,-249.0,44.0,-7.0,72.0,-2.0,-34.0,-967.0,136.0
-19.0,-249.0,44.0,-6.0,72.0,-1.0,-40.0,-970.0,133.0
-25.0,-250.0,46.0,-4.0,74.0,0.0,-34.0,-969.0,136.0
-20.0,-248.0,44.0,-4.0,73.0,-1.0,-42.0,-967.0,132.0
-19.0,-250.0,46.0,-3.0,72.0,0.0,-42.0,-967.0,131.0
-17.0,-250.0,44.0,-3.0,72.0,-1.0,-38.0,-972.0,136.0
-17.0,-249.0,43.0,-3.0,71.0,0.0,-39.0,-969.0,140.0
-19.0,-250.0,44.0,-3.0,71.0,1.0,-45.0,-964.0,140.0
-18.0,-250.0,43.0,-4.0,69.0,0.0,-41.0,-967.0,136.0
-17.0,-251.0,46.0,-6.0,71.0,1.0,-45.0,-970.0,141.0
-19.0,-251.0,47.0,-7.0,70.0,0.0,-39.0,-966.0,142.0
-19.0,-248.0,46.0,-9.0,70.0,0.0,-38.0,-970.0,136.0
-17.0,-253.0,47.0,-11.0,72.0,-1.0,-42.0,-962.0,141.0
-18.0,-248.0,46.0,-12.0,70.0,-1.0,-39.0,-963.0,139.0
-18.0,-248.0,42.0,-13.0,71.0,-2.0,-41.0,-966.0,141.0
-21.0,-248.0,45.0,-13.0,71.0,-3.0,-39.0,-965.0,140.0
-18.0,-251.0,47.0,-12.0,71.0,-3.0,-39.0,-966.0,140.0
-18.0,-249.0,44.0,-12.0,71.0,-3.0,-39.0,-970.0,139.0
-18.0,-248.0,43.0,-12.0,69.0,-2.0,-37.0,-967.0,141.0
-18.0,-249.0,43.0,-15.0,69.0,-3.0,-34.0,-966.0,137.0
-15.0,-253.0,44.0,-17.0,69.0,-2.0,-38.0,-968.0,141.0
-16.0,-250.0,42.0,-17.0,69.0,-2.0,-37.0,-969.0,132.0
-19.0,-252.0,44.0,-15.0,68.0,-2.0,-35.0,-971.0,133.0
-17.0,-252.0,42.0,-14.0,68.0,-3.0,-38.0,-973.0,136.0
-22.0,-250.0,54.0,-14.0,68.0,-3.0,-40.0,-973.0,133.0
-18.0,-252.0,40.0,-13.0,69.0,-4.0,-43.0,-971.0,136.0
-21.0,-253.0,44.0,-11.0,69.0,-3.0,-36.0,-977.0,135.0
-17.0,-255.0,46.0,-7.0,71.0,-4.0,-37.0,-964.0,131.0
-20.0,-251.0,45.0,-6.0,72.0,-3.0,-40.0,-966.0,139.0
-17.0,-250.0,46.0,-5.0,71.0,-3.0,-42.0,-970.0,130.0
-17.0,-250.0,44.0,-4.0,71.0,-2.0,-38.0,-966.0,132.0
-19.0,-251.0,47.0,-6.0,71.0,-2.0,-36.0,-971.0,136.0
-19.0,-251.0,42.0,-9.0,69.0,-2.0,-35.0,-965.0,138.0
-17.0,-249.0,45.0,-10.0,69.0,-2.0,-36.0,-969.0,135.0
-19.0,-251.0,45.0,-11.0,67.0,-2.0,-34.0,-969.0,136.0
-20.0,-249.0,44.0,-11.0,66.0,-2.0,-38.0,-965.0,137.0
-16.0,-251.0,43.0,-14.0,67.0,-2.0,-43.0,-966.0,128.0
-16.0,-250.0,43.0,-16.0,65.0,-2.0,-36.0,-970.0,133.0
-18.0,-254.0,42.0,-17.0,67.0,-1.0,-36.0,-969.0,131.0
-15.0,-252.0,45.0,-15.0,67.0,0.0,-37.0,-972.0,130.0
-21.0,-252.0,42.0,-14.0,68.0,-1.0,-34.0,-974.0,134.0
-23.0,-251.0,40.0,-12.0,68.0,-1.0,-39.0,-972.0,128.0
-19.0,-254.0,46.0,-12.0,68.0,0.0,-34.0,-970.0,131.0
-20.0,-249.0,43.0,-11.0,67.0,1.0,-38.0,-973.0,131.0
-19.0,-253.0,44.0,-11.0,66.0,0.0,-38.0,-969.0,139.0
-19.0,-251.0,45.0,-10.0,68.0,0.0,-36.0,-968.0,135.0
-11.0,-251.0,51.0,-8.0,69.0,-1.0,-41.0,-970.0,134.0
-19.0,-251.0,45.0,-8.0,68.0,-3.0,-37.0,-973.0,142.0
-17.0,-249.0,44.0,-9.0,68.0,-2.0,-39.0,-973.0,135.0
-15.0,-250.0,41.0,-13.0,67.0,-5.0,-37.0,-964.0,130.0
-18.0,-248.0,43.0,-17.0,65.0,-4.0,-35.0,-969.0,131.0
-17.0,-247.0,45.0,-17.0,65.0,-5.0,-36.0,-965.0,138.0
-15.0,-251.0,45.0,-17.0,66.0,-6.0,-39.0,-965.0,131.0
-17.0,-250.0,45.0,-19.0,67.0,-5.0,-40.0,-966.0,135.0
-18.0,-249.0,42.0,-22.0,67.0,-5.0,-34.0,-962.0,131.0
-17.0,-248.0,44.0,-22.0,66.0,-7.0,-34.0,-963.0,136.0
-18.0,-251.0,44.0,-22.0,67.0,-6.0,-39.0,-964.0,139.0
-22.0,-251.0,47.0,-17.0,68.0,-6.0,-38.0,-973.0,132.0
-17.0,-251.0,45.0,-13.0,67.0,-7.0,-38.0,-974.0,132.0
-19.0,-252.0,45.0,-12.0,66.0,-6.0,-43.0,-971.0,131.0
-17.0,-251.0,42.0,-11.0,65.0,-6.0,-39.0,-971.0,138.0
-17.0,-255.0,45.0,-10.0,63.0,-7.0,-40.0,-975.0,132.0
-19.0,-251.0,40.0,-9.0,63.0,-7.0,-41.0,-971.0,130.0
-19.0,-250.0,42.0,-7.0,63.0,-6.0,-37.0,-971.0,126.0
-21.0,-250.0,45.0,-5.0,64.0,-6.0,-39.0,-975.0,131.0
-21.0,-250.0,42.0,0.0,64.0,-5.0,-35.0,-974.0,135.0
-17.0,-254.0,45.0,6.0,66.0,-4.0,-41.0,-977.0,132.0
-20.0,-251.0,46.0,8.0,66.0,-4.0,-44.0,-975.0,133.0
-20.0,-253.0,42.0,8.0,66.0,-4.0,-39.0,-970.0,138.0
-15.0,-252.0,44.0,5.0,66.0,-4.0,-42.0,-971.0,131.0
-20.0,-251.0,44.0,3.0,68.0,-4.0,-41.0,-973.0,134.0
-17.0,-251.0,44.0,2.0,69.0,-6.0,-37.0,-966.0,131.0
-16.0,-251.0,43.0,1.0,68.0,-5.0,-34.0,-966.0,130.0
-17.0,-250.0,44.0,3.0,69.0,-2.0,-36.0,-966.0,129.0
-17.0,-251.0,41.0,5.0,69.0,-1.0,-38.0,-972.0,125.0
-17.0,-250.0,42.0,4.0,69.0,-1.0,-35.0,-965.0,128.0
-21.0,-248.0,42.0,1.0,70.0,-1.0,-39.0,-961.0,124.0
-19.0,-249.0,45.0,0.0,72.0,0.0,-39.0,-966.0,129.0
-17.0,-252.0,43.0,-2.0,73.0,0.0,-40.0,-966.0,133.0
-21.0,-248.0,48.0,-3.0,74.0,-2.0,-41.0,-963.0,140.0
-18.0,-253.0,46.0,-5.0,72.0,-2.0,-41.0,-970.0,129.0
-16.0,-249.0,45.0,-8.0,73.0,-3.0,-43.0,-963.0,140.0
-17.0,-250.0,46.0,-10.0,72.0,-5.0,-36.0,-964.0,140.0
-19.0,-249.0,46.0,-8.0,72.0,-5.0,-37.0,-969.0,141.0
-17.0,-251.0,44.0,-5.0,72.0,-5.0,-38.0,-972.0,143.0
-19.0,-252.0,46.0,-3.0,74.0,-6.0,-39.0,-969.0,141.0
-17.0,-250.0,47.0,-5.0,73.0,-5.0,-35.0,-973.0,140.0
-14.0,-249.0,45.0,-8.0,75.0,-4.0,-39.0,-970.0,143.0
-19.0,-251.0,46.0,-6.0,76.0,-5.0,-34.0,-969.0,144.0
-17.0,-252.0,48.0,-2.0,74.0,-5.0,-35.0,-972.0,148.0
-12.0,-252.0,40.0,-2.0,71.0,-6.0,-36.0,-969.0,141.0
-15.0,-250.0,44.0,-5.0,67.0,-4.0,-38.0,-968.0,138.0
-17.0,-249.0,46.0,-6.0,65.0,-7.0,-37.0,-970.0,142.0
-17.0,-250.0,47.0,-4.0,64.0,-8.0,-38.0,-971.0,142.0
-17.0,-250.0,43.0,-3.0,64.0,-8.0,-37.0,-977.0,142.0
-20.0,-250.0,39.0,-4.0,64.0,-7.0,-38.0,-969.0,135.0
-18.0,-251.0,45.0,-6.0,64.0,-7.0,-41.0,-969.0,135.0
-17.0,-251.0,43.0,-7.0,65.0,-7.0,-43.0,-972.0,140.0
-17.0,-253.0,43.0,-8.0,66.0,-6.0,-39.0,-966.0,140.0
-18.0,-250.0,44.0,-6.0,65.0,-7.0,-42.0,-967.0,141.0
-20.0,-249.0,44.0,-4.0,65.0,-5.0,-41.0,-969.0,141.0
-16.0,-250.0,43.0,-6.0,64.0,-5.0,-38.0,-965.0,142.0
-18.0,-249.0,46.0,-7.0,65.0,-5.0,-39.0,-966.0,141.0
-19.0,-249.0,43.0,-9.0,66.0,-5.0,-35.0,-966.0,140.0
-18.0,-250.0,45.0,-9.0,68.0,-4.0,-36.0,-968.0,142.0
-19.0,-250.0,42.0,-7.0,68.0,-2.0,-38.0,-969.0,140.0
-19.0,-249.0,46.0,-7.0,70.0,-2.0,-38.0,-970.0,141.0
-17.0,-247.0,45.0,-8.0,69.0,-2.0,-43.0,-968.0,138.0
-19.0,-251.0,45.0,-9.0,70.0,-2.0,-35.0,-970.0,132.0
-19.0,-250.0,45.0,-10.0,70.0,0.0,-37.0,-965.0,133.0
-17.0,-250.0,42.0,-14.0,70.0,-1.0,-40.0,-962.0,134.0
-19.0,-246.0,47.0,-20.0,70.0,0.0,-41.0,-964.0,134.0
-18.0,-250.0,45.0,-22.0,72.0,1.0,-39.0,-964.0,140.0
-18.0,-252.0,44.0,-18.0,72.0,-1.0,-32.0,-970.0,145.0
-20.0,-252.0,47.0,-12.0,68.0,-2.0,-39.0,-976.0,143.0
-19.0,-252.0,43.0,-7.0,63.0,-5.0,-37.0,-974.0,130.0
-20.0,-252.0,42.0,-7.0,59.0,-5.0,-45.0,-975.0,134.0
-17.0,-252.0,43.0,-7.0,58.0,-5.0,-41.0,-973.0,127.0
-20.0,-249.0,40.0,-5.0,57.0,-5.0,-39.0,-974.0,128.0
-19.0,-250.0,45.0,-2.0,59.0,-5.0,-40.0,-968.0,141.0
-16.0,-251.0,45.0,0.0,60.0,-4.0,-40.0,-969.0,136.0
-21.0,-248.0,44.0,2.0,61.0,-3.0,-39.0,-965.0,141.0
-16.0,-248.0,42.0,0.0,62.0,-4.0,-34.0,-968.0,138.0
-16.0,-250.0,43.0,-5.0,63.0,-3.0,-41.0,-968.0,131.0
-14.0,-251.0,44.0,-10.0,64.0,-2.0,-30.0,-966.0,133.0
-18.0,-249.0,44.0,-10.0,65.0,-1.0,-35.0,-974.0,129.0
-16.0,-253.0,43.0,-7.0,68.0,3.0,-39.0,-981.0,126.0
-18.0,-253.0,40.0,-1.0,68.0,3.0,-37.0,-975.0,127.0
-18.0,-249.0,45.0,5.0,69.0,3.0,-34.0,-977.0,130.0
-18.0,-251.0,42.0,12.0,67.0,4.0,-37.0,-975.0,135.0
-18.0,-251.0,47.0,18.0,67.0,4.0,-36.0,-976.0,136.0
-19.0,-251.0,44.0,20.0,66.0,5.0,-41.0,-970.0,140.0
-17.0,-249.0,45.0,19.0,63.0,7.0,-39.0,-958.0,133.0
-19.0,-246.0,44.0,13.0,60.0,7.0,-42.0,-959.0,132.0
-20.0,-248.0,41.0,7.0,59.0,8.0,-46.0,-963.0,127.0
-21.0,-248.0,43.0,2.0,60.0,8.0,-43.0,-965.0,133.0
-19.0,-250.0,43.0,2.0,62.0,9.0,-39.0,-966.0,140.0
-18.0,-251.0,45.0,2.0,63.0,11.0,-40.0,-963.0,135.0
-18.0,-250.0,42.0,3.0,63.0,12.0,-42.0,-971.0,139.0
-17.0,-250.0,41.0,4.0,63.0,12.0,-41.0,-973.0,133.0
-19.0,-251.0,45.0,4.0,63.0,12.0,-42.0,-974.0,133.0
-17.0,-253.0,45.0,4.0,62.0,11.0,-36.0,-968.0,135.0
-16.0,-254.0,42.0,4.0,62.0,11.0,-36.0,-978.0,128.0
-19.0,-252.0,42.0,5.0,62.0,10.0,-37.0,-974.0,124.0
-15.0,-249.0,42.0,6.0,64.0,12.0,-36.0,-969.0,129.0
-17.0,-248.0,43.0,6.0,66.0,13.0,-35.0,-962.0,124.0
-18.0,-248.0,41.0,6.0,69.0,13.0,-33.0,-958.0,122.0
-15.0,-249.0,43.0,7.0,70.0,13.0,-35.0,-963.0,128.0
-13.0,-248.0,43.0,11.0,72.0,11.0,-29.0,-955.0,129.0
-19.0,-249.0,42.0,12.0,73.0,10.0,-34.0,-964.0,128.0
-13.0,-249.0,45.0,10.0,72.0,9.0,-35.0,-966.0,131.0
-16.0,-250.0,43.0,6.0,72.0,2.0,-31.0,-969.0,130.0
-19.0,-249.0,45.0,4.0,74.0,-2.0,-27.0,-970.0,131.0
-18.0,-251.0,43.0,2.0,73.0,-6.0,-38.0,-977.0,128.0
-17.0,-251.0,44.0,-1.0,75.0,-9.0,-32.0,-981.0,131.0
-11.0,-248.0,46.0,-2.0,74.0,-10.0,-35.0,-972.0,135.0
-17.0,-250.0,43.0,-3.0,75.0,-13.0,-34.0,-975.0,131.0
-18.0,-249.0,43.0,-5.0,76.0,-13.0,-38.0,-976.0,133.0
-19.0,-252.0,42.0,-8.0,77.0,-14.0,-38.0,-974.0,131.0
-20.0,-250.0,46.0,-14.0,78.0,-14.0,-41.0,-968.0,133.0
-18.0,-251.0,44.0,-19.0,79.0,-14.0,-36.0,-964.0,135.0
-17.0,-250.0,45.0,-20.0,82.0,-12.0,-35.0,-961.0,140.0
-14.0,-250.0,43.0,-23.0,84.0,-11.0,-35.0,-958.0,136.0
-15.0,-250.0,43.0,-31.0,87.0,-10.0,-34.0,-955.0,136.0
-17.0,-250.0,44.0,-41.0,90.0,-9.0,-39.0,-956.0,142.0
-17.0,-249.0,47.0,-54.0,94.0,-11.0,-32.0,-957.0,140.0
-19.0,-245.0,48.0,-64.0,97.0,-10.0,-35.0,-949.0,142.0
-16.0,-247.0,44.0,-68.0,101.0,-12.0,-34.0,-953.0,147.0
-16.0,-247.0,45.0,-74.0,102.0,-14.0,-34.0,-950.0,147.0
-16.0,-245.0,47.0,-82.0,100.0,-18.0,-30.0,-948.0,150.0
-14.0,-247.0,48.0,-88.0,100.0,-20.0,-29.0,-960.0,145.0
-14.0,-247.0,46.0,-98.0,100.0,-19.0,-31.0,-957.0,148.0
-14.0,-246.0,46.0,-109.0,100.0,-18.0,-36.0,-956.0,145.0
-19.0,-248.0,49.0,-118.0,99.0,-14.0,-47.0,-952.0,148.0
-20.0,-245.0,49.0,-123.0,96.0,-15.0,-53.0,-949.0,157.0
-23.0,-247.0,52.0,-132.0,89.0,-21.0,-62.0,-949.0,171.0
-23.0,-245.0,50.0,-150.0,80.0,-33.0,-53.0,-949.0,176.0
-23.0,-243.0,55.0,-178.0,69.0,-52.0,-63.0,-950.0,172.0
-22.0,-246.0,51.0,-213.0,58.0,-69.0,-47.0,-950.0,168.0
-23.0,-249.0,51.0,-245.0,49.0,-86.0,-48.0,-955.0,164.0
-20.0,-250.0,50.0,-269.0,46.0,-100.0,-53.0,-963.0,163.0
-21.0,-249.0,50.0,-280.0,46.0,-106.0,-47.0,-971.0,160.0
-20.0,-255.0,46.0,-280.0,50.0,-105.0,-53.0,-975.0,152.0
-23.0,-251.0,45.0,-273.0,58.0,-101.0,-55.0,-971.0,144.0
-24.0,-251.0,43.0,-263.0,73.0,-92.0,-56.0,-971.0,131.0
-22.0,-256.0,43.0,-255.0,91.0,-84.0,-60.0,-975.0,123.0
-22.0,-251.0,44.0,-248.0,110.0,-75.0,-63.0,-976.0,126.0
-21.0,-256.0,45.0,-241.0,129.0,-67.0,-55.0,-988.0,135.0
-22.0,-256.0,44.0,-233.0,138.0,-58.0,-49.0,-999.0,136.0
-19.0,-261.0,43.0,-225.0,137.0,-49.0,-43.0,-1008.0,136.0
-20.0,-261.0,44.0,-211.0,127.0,-44.0,-46.0,-1002.0,138.0
-17.0,-260.0,42.0,-187.0,103.0,-46.0,-37.0,-993.0,127.0
-18.0,-253.0,44.0,-159.0,65.0,-55.0,-26.0,-982.0,122.0
-15.0,-252.0,41.0,-140.0,12.0,-74.0,-12.0,-959.0,117.0
-15.0,-245.0,36.0,-131.0,-46.0,-100.0,-11.0,-947.0,104.0
-12.0,-241.0,34.0,-141.0,-101.0,-131.0,-8.0,-929.0,92.0
-11.0,-238.0,31.0,-160.0,-134.0,-160.0,-20.0,-920.0,86.0
-17.0,-241.0,32.0,-184.0,-136.0,-183.0,-35.0,-929.0,86.0
-28.0,-248.0,36.0,-204.0,-105.0,-203.0,-39.0,-936.0,88.0
-20.0,-249.0,38.0,-216.0,-50.0,-210.0,-57.0,-947.0,97.0
-17.0,-248.0,35.0,-221.0,9.0,-210.0,-48.0,-959.0,103.0
0.0,-248.0,34.0,-217.0,85.0,-177.0,17.0,-968.0,103.0
-27.0,-261.0,43.0,-234.0,185.0,-101.0,-72.0,-1016.0,133.0
-35.0,-257.0,42.0,-231.0,203.0,-99.0,-100.0,-1007.0,128.0
-30.0,-251.0,37.0,-216.0,168.0,-142.0,-90.0,-975.0,113.0
-25.0,-250.0,35.0,-213.0,134.0,-173.0,-64.0,-975.0,104.0
-20.0,-250.0,39.0,-229.0,111.0,-182.0,-53.0,-976.0,108.0
-20.0,-252.0,38.0,-239.0,94.0,-173.0,-48.0,-978.0,109.0
-18.0,-251.0,39.0,-239.0,81.0,-160.0,-37.0,-977.0,110.0
-18.0,-250.0,39.0,-236.0,68.0,-146.0,-37.0,-967.0,114.0
-15.0,-249.0,41.0,-239.0,52.0,-137.0,-36.0,-965.0,123.0
-15.0,-249.0,41.0,-251.0,41.0,-127.0,-35.0,-957.0,125.0
-21.0,-247.0,42.0,-269.0,35.0,-114.0,-44.0,-960.0,128.0
-20.0,-249.0,45.0,-287.0,30.0,-110.0,-43.0,-961.0,125.0
-18.0,-248.0,40.0,-304.0,22.0,-109.0,-50.0,-964.0,120.0
-24.0,-246.0,37.0,-322.0,18.0,-109.0,-47.0,-959.0,115.0
-19.0,-248.0,40.0,-341.0,16.0,-108.0,-42.0,-953.0,112.0
-15.0,-248.0,39.0,-356.0,14.0,-113.0,-40.0,-958.0,105.0
-17.0,-253.0,39.0,-369.0,16.0,-107.0,-41.0,-968.0,107.0
-19.0,-252.0,36.0,-374.0,13.0,-110.0,-36.0,-975.0,106.0
-22.0,-248.0,28.0,-374.0,7.0,-117.0,-29.0,-966.0,93.0
-13.0,-248.0,32.0,-381.0,3.0,-118.0,-27.0,-965.0,91.0
-11.0,-248.0,34.0,-390.0,2.0,-120.0,-20.0,-962.0,93.0
-14.0,-250.0,32.0,-400.0,7.0,-116.0,-15.0,-965.0,88.0
-9.0,-249.0,31.0,-403.0,15.0,-110.0,-8.0,-968.0,90.0
-7.0,-251.0,35.0,-403.0,21.0,-105.0,2.0,-962.0,86.0
-8.0,-249.0,32.0,-409.0,21.0,-102.0,4.0,-958.0,89.0
-10.0,-244.0,29.0,-421.0,18.0,-104.0,2.0,-957.0,85.0
-10.0,-246.0,34.0,-442.0,12.0,-108.0,2.0,-952.0,82.0
-5.0,-249.0,31.0,-463.0,5.0,-113.0,10.0,-963.0,71.0
-6.0,-250.0,31.0,-483.0,4.0,-113.0,11.0,-968.0,74.0
-2.0,-250.0,28.0,-496.0,1.0,-117.0,13.0,-972.0,72.0
-5.0,-249.0,28.0,-509.0,-7.0,-126.0,17.0,-971.0,66.0
0.0,-252.0,26.0,-527.0,-12.0,-133.0,21.0,-977.0,55.0
-4.0,-251.0,22.0,-541.0,-13.0,-135.0,12.0,-969.0,59.0
0.0,-250.0,24.0,-554.0,-15.0,-136.0,26.0,-975.0,48.0
0.0,-254.0,21.0,-565.0,-16.0,-138.0,30.0,-977.0,44.0
-4.0,-254.0,17.0,-574.0,-20.0,-141.0,30.0,-972.0,36.0
-2.0,-253.0,16.0,-580.0,-22.0,-143.0,21.0,-975.0,27.0
-4.0,-252.0,16.0,-589.0,-25.0,-141.0,22.0,-985.0,19.0
1.0,-253.0,11.0,-600.0,-22.0,-139.0,17.0,-978.0,18.0
-2.0,-252.0,9.0,-610.0,-19.0,-133.0,21.0,-980.0,6.0
1.0,-250.0,3.0,-618.0,-11.0,-129.0,25.0,-982.0,8.0
0.0,-253.0,11.0,-632.0,-6.0,-125.0,31.0,-973.0,3.0
2.0,-253.0,8.0,-649.0,-2.0,-123.0,35.0,-973.0,1.0
2.0,-249.0,8.0,-665.0,0.0,-119.0,37.0,-970.0,4.0
2.0,-252.0,9.0,-683.0,6.0,-110.0,41.0,-972.0,-2.0
0.0,-251.0,7.0,-706.0,15.0,-99.0,42.0,-969.0,-7.0
0.0,-248.0,6.0,-728.0,15.0,-98.0,32.0,-962.0,-14.0
3.0,-248.0,6.0,-752.0,15.0,-100.0,48.0,-964.0,-22.0
1.0,-252.0,4.0,-778.0,17.0,-101.0,43.0,-966.0,-17.0
2.0,-251.0,2.0,-801.0,14.0,-103.0,40.0,-968.0,-24.0
15.0,-270.0,-3.0,-816.0,12.0,-110.0,36.0,-1010.0,-43.0
4.0,-251.0,3.0,-838.0,5.0,-127.0,45.0,-967.0,-33.0
1.0,-253.0,-4.0,-841.0,-2.0,-113.0,45.0,-984.0,-46.0
1.0,-255.0,-3.0,-849.0,-3.0,-109.0,38.0,-981.0,-53.0
0.0,-253.0,-5.0,-859.0,-2.0,-102.0,33.0,-989.0,-53.0
1.0,-260.0,-4.0,-861.0,0.0,-98.0,34.0,-992.0,-53.0
4.0,-257.0,-7.0,-860.0,2.0,-94.0,46.0,-1001.0,-69.0
0.0,-252.0,-9.0,-870.0,3.0,-97.0,36.0,-997.0,-73.0
1.0,-256.0,-11.0,-885.0,2.0,-100.0,36.0,-978.0,-77.0
1.0,-254.0,-10.0,-907.0,1.0,-104.0,42.0,-988.0,-74.0
1.0,-256.0,-10.0,-925.0,-1.0,-109.0,30.0,-993.0,-78.0
1.0,-256.0,-12.0,-939.0,-3.0,-108.0,37.0,-995.0,-80.0
0.0,-250.0,-17.0,-950.0,-2.0,-113.0,36.0,-991.0,-89.0
5.0,-258.0,-15.0,-955.0,-3.0,-116.0,45.0,-988.0,-93.0
5.0,-268.0,-18.0,-958.0,-1.0,-119.0,50.0,-1021.0,-105.0
2.0,-249.0,-17.0,-965.0,2.0,-133.0,34.0,-961.0,-99.0
3.0,-252.0,-19.0,-960.0,5.0,-121.0,42.0,-968.0,-117.0
0.0,-252.0,-19.0,-960.0,9.0,-119.0,33.0,-970.0,-117.0
1.0,-249.0,-19.0,-965.0,14.0,-118.0,40.0,-964.0,-126.0
2.0,-251.0,-21.0,-973.0,19.0,-122.0,40.0,-966.0,-125.0
2.0,-251.0,-24.0,-983.0,25.0,-125.0,47.0,-972.0,-125.0
2.0,-253.0,-21.0,-997.0,32.0,-126.0,48.0,-973.0,-122.0
1.0,-250.0,-24.0,-1014.0,35.0,-124.0,55.0,-967.0,-128.0
5.0,-251.0,-23.0,-1034.0,42.0,-121.0,54.0,-971.0,-125.0
2.0,-251.0,-25.0,-1052.0,43.0,-121.0,51.0,-961.0,-136.0
2.0,-249.0,-22.0,-1060.0,46.0,-116.0,42.0,-951.0,-134.0
4.0,-250.0,-24.0,-1059.0,47.0,-112.0,41.0,-960.0,-135.0
0.0,-249.0,-25.0,-1052.0,48.0,-110.0,35.0,-959.0,-138.0
-5.0,-249.0,-22.0,-1046.0,51.0,-115.0,37.0,-1011.0,-152.0
-2.0,-250.0,-24.0,-1041.0,54.0,-115.0,27.0,-956.0,-142.0
1.0,-252.0,-27.0,-1025.0,53.0,-105.0,36.0,-967.0,-144.0
1.0,-256.0,-32.0,-1014.0,56.0,-105.0,42.0,-993.0,-162.0
8.0,-262.0,-37.0,-1020.0,62.0,-104.0,62.0,-1013.0,-185.0
6.0,-251.0,-35.0,-1041.0,69.0,-109.0,36.0,-994.0,-186.0
0.0,-255.0,-38.0,-1056.0,68.0,-107.0,30.0,-983.0,-192.0
0.0,-255.0,-37.0,-1058.0,68.0,-105.0,25.0,-973.0,-194.0
1.0,-258.0,-38.0,-1049.0,70.0,-100.0,29.0,-978.0,-201.0
-2.0,-254.0,-42.0,-1049.0,72.0,-98.0,29.0,-986.0,-214.0
-8.0,-247.0,-43.0,-1066.0,75.0,-97.0,2.0,-961.0,-220.0
0.0,-250.0,-50.0,-1082.0,81.0,-91.0,36.0,-971.0,-237.0
-7.0,-248.0,-45.0,-1104.0,85.0,-93.0,-2.0,-953.0,-231.0
-13.0,-247.0,-46.0,-1113.0,85.0,-86.0,-13.0,-935.0,-230.0
0.0,-249.0,-48.0,-1101.0,82.0,-78.0,25.0,-958.0,-236.0
1.0,-250.0,-51.0,-1092.0,84.0,-89.0,46.0,-969.0,-253.0
0.0,-248.0,-58.0,-1109.0,91.0,-98.0,30.0,-962.0,-274.0
-4.0,-246.0,-57.0,-1140.0,103.0,-110.0,13.0,-959.0,-274.0
3.0,-244.0,-57.0,-1168.0,102.0,-112.0,41.0,-928.0,-278.0
1.0,-247.0,-60.0,-1168.0,101.0,-103.0,32.0,-936.0,-290.0
7.0,-249.0,-65.0,-1171.0,107.0,-93.0,72.0,-965.0,-308.0
1.0,-247.0,-65.0,-1184.0,114.0,-93.0,32.0,-946.0,-307.0
0.0,-246.0,-59.0,-1190.0,113.0,-85.0,23.0,-921.0,-293.0
7.0,-248.0,-64.0,-1174.0,109.0,-82.0,51.0,-948.0,-307.0
2.0,-252.0,-68.0,-1166.0,108.0,-90.0,38.0,-962.0,-317.0
3.0,-250.0,-73.0,-1180.0,109.0,-91.0,34.0,-957.0,-335.0
0.0,-244.0,-73.0,-1204.0,110.0,-86.0,16.0,-934.0,-335.0
0.0,-247.0,-76.0,-1216.0,103.0,-77.0,34.0,-948.0,-339.0
-3.0,-249.0,-77.0,-1225.0,101.0,-83.0,15.0,-962.0,-352.0
-5.0,-251.0,-78.0,-1244.0,98.0,-84.0,5.0,-959.0,-349.0
1.0,-248.0,-80.0,-1261.0,94.0,-81.0,33.0,-951.0,-352.0
3.0,-249.0,-82.0,-1268.0,95.0,-86.0,38.0,-959.0,-369.0
1.0,-248.0,-85.0,-1283.0,103.0,-91.0,25.0,-956.0,-388.0
-5.0,-252.0,-82.0,-1305.0,126.0,-70.0,13.0,-966.0,-373.0
2.0,-249.0,-74.0,-1305.0,128.0,-77.0,43.0,-954.0,-367.0
-3.0,-255.0,-80.0,-1274.0,114.0,-91.0,13.0,-968.0,-376.0
5.0,-255.0,-85.0,-1247.0,104.0,-91.0,37.0,-963.0,-399.0
13.0,-250.0,-95.0,-1228.0,107.0,-91.0,81.0,-961.0,-405.0
6.0,-250.0,-93.0,-1220.0,118.0,-102.0,53.0,-960.0,-420.0
10.0,-251.0,-93.0,-1219.0,121.0,-95.0,65.0,-951.0,-422.0
16.0,-250.0,-91.0,-1206.0,117.0,-85.0,87.0,-960.0,-422.0
6.0,-250.0,-97.0,-1180.0,117.0,-82.0,82.0,-967.0,-435.0
13.0,-248.0,-96.0,-1161.0,115.0,-70.0,81.0,-954.0,-438.0
11.0,-247.0,-98.0,-1128.0,106.0,-58.0,89.0,-953.0,-445.0
14.0,-250.0,-103.0,-1094.0,94.0,-47.0,85.0,-953.0,-463.0
4.0,-244.0,-106.0,-1072.0,79.0,-46.0,52.0,-922.0,-460.0
10.0,-243.0,-111.0,-1059.0,60.0,-47.0,80.0,-919.0,-490.0
6.0,-239.0,-111.0,-1051.0,46.0,-37.0,57.0,-908.0,-491.0
2.0,-223.0,-118.0,-1043.0,37.0,-33.0,37.0,-891.0,-495.0
6.0,-226.0,-114.0,-1051.0,25.0,-35.0,52.0,-859.0,-505.0
7.0,-217.0,-114.0,-1070.0,18.0,-42.0,47.0,-842.0,-507.0
5.0,-216.0,-118.0,-1089.0,19.0,-42.0,38.0,-834.0,-519.0
5.0,-212.0,-119.0,-1118.0,20.0,-46.0,50.0,-816.0,-520.0
5.0,-211.0,-120.0,-1149.0,22.0,-52.0,48.0,-811.0,-521.0
7.0,-206.0,-125.0,-1181.0,30.0,-54.0,66.0,-800.0,-553.0
4.0,-213.0,-125.0,-1226.0,57.0,-38.0,46.0,-815.0,-547.0
3.0,-212.0,-130.0,-1268.0,68.0,-50.0,50.0,-821.0,-563.0
2.0,-217.0,-129.0,-1294.0,67.0,-69.0,41.0,-830.0,-579.0
1.0,-207.0,-131.0,-1322.0,75.0,-95.0,32.0,-794.0,-579.0
8.0,-215.0,-132.0,-1347.0,85.0,-100.0,51.0,-823.0,-600.0
7.0,-213.0,-141.0,-1368.0,96.0,-91.0,45.0,-828.0,-611.0
9.0,-215.0,-147.0,-1392.0,105.0,-88.0,56.0,-829.0,-637.0
9.0,-219.0,-151.0,-1420.0,114.0,-86.0,58.0,-844.0,-654.0
8.0,-223.0,-152.0,-1433.0,127.0,-75.0,56.0,-845.0,-655.0
9.0,-219.0,-153.0,-1420.0,134.0,-61.0,62.0,-834.0,-661.0
2.0,-217.0,-148.0,-1411.0,144.0,-48.0,62.0,-827.0,-651.0
7.0,-211.0,-156.0,-1398.0,140.0,-42.0,52.0,-801.0,-665.0
4.0,-207.0,-151.0,-1378.0,137.0,-42.0,42.0,-789.0,-669.0
10.0,-203.0,-158.0,-1362.0,126.0,-45.0,71.0,-798.0,-685.0
-5.0,-204.0,-153.0,-1356.0,120.0,-67.0,35.0,-735.0,-679.0
8.0,-193.0,-164.0,-1353.0,109.0,-59.0,61.0,-745.0,-707.0
9.0,-197.0,-159.0,-1360.0,114.0,-38.0,68.0,-743.0,-712.0
10.0,-184.0,-168.0,-1379.0,111.0,-37.0,59.0,-721.0,-732.0
7.0,-189.0,-171.0,-1405.0,112.0,-37.0,71.0,-727.0,-732.0
10.0,-186.0,-169.0,-1434.0,108.0,-35.0,68.0,-713.0,-742.0
10.0,-187.0,-168.0,-1460.0,112.0,-43.0,55.0,-713.0,-749.0
3.0,-186.0,-173.0,-1486.0,104.0,-64.0,40.0,-704.0,-755.0
10.0,-185.0,-178.0,-1498.0,94.0,-95.0,59.0,-697.0,-762.0
10.0,-185.0,-183.0,-1507.0,85.0,-111.0,66.0,-697.0,-777.0
9.0,-185.0,-180.0,-1515.0,78.0,-117.0,55.0,-701.0,-787.0
12.0,-184.0,-188.0,-1520.0,73.0,-120.0,57.0,-689.0,-796.0
-2.0,-189.0,-176.0,-1535.0,71.0,-128.0,65.0,-798.0,-814.0
13.0,-176.0,-188.0,-1564.0,58.0,-141.0,75.0,-660.0,-804.0
3.0,-177.0,-194.0,-1578.0,52.0,-121.0,46.0,-659.0,-806.0
5.0,-177.0,-192.0,-1582.0,43.0,-120.0,33.0,-657.0,-814.0
3.0,-170.0,-193.0,-1590.0,38.0,-119.0,35.0,-655.0,-831.0
8.0,-175.0,-193.0,-1609.0,34.0,-114.0,52.0,-658.0,-825.0
6.0,-173.0,-191.0,-1630.0,28.0,-120.0,55.0,-652.0,-819.0
8.0,-169.0,-193.0,-1637.0,16.0,-126.0,56.0,-643.0,-829.0
14.0,-171.0,-196.0,-1638.0,6.0,-133.0,64.0,-637.0,-838.0
10.0,-168.0,-196.0,-1645.0,-2.0,-136.0,70.0,-635.0,-837.0
27.0,-196.0,-212.0,-1646.0,-6.0,-150.0,90.0,-713.0,-859.0
25.0,-159.0,-199.0,-1660.0,-16.0,-188.0,110.0,-586.0,-845.0
23.0,-162.0,-196.0,-1651.0,-15.0,-160.0,99.0,-600.0,-839.0
21.0,-159.0,-201.0,-1641.0,-13.0,-147.0,94.0,-588.0,-852.0
21.0,-156.0,-201.0,-1643.0,-10.0,-138.0,97.0,-570.0,-860.0
26.0,-160.0,-199.0,-1653.0,-1.0,-121.0,108.0,-574.0,-854.0
17.0,-157.0,-200.0,-1660.0,8.0,-115.0,86.0,-584.0,-854.0
18.0,-152.0,-203.0,-1651.0,10.0,-139.0,84.0,-560.0,-864.0
18.0,-150.0,-203.0,-1638.0,14.0,-152.0,101.0,-562.0,-867.0
21.0,-148.0,-204.0,-1625.0,24.0,-159.0,95.0,-554.0,-876.0
22.0,-149.0,-206.0,-1612.0,36.0,-163.0,103.0,-550.0,-884.0
21.0,-147.0,-209.0,-1601.0,49.0,-166.0,108.0,-548.0,-896.0
23.0,-130.0,-206.0,-1615.0,60.0,-187.0,91.0,-475.0,-884.0
24.0,-136.0,-208.0,-1612.0,75.0,-169.0,103.0,-502.0,-907.0
22.0,-138.0,-209.0,-1605.0,85.0,-158.0,103.0,-506.0,-906.0
22.0,-137.0,-212.0,-1586.0,98.0,-153.0,107.0,-499.0,-914.0
19.0,-132.0,-216.0,-1566.0,106.0,-149.0,105.0,-492.0,-920.0
22.0,-129.0,-211.0,-1554.0,113.0,-152.0,100.0,-475.0,-923.0
25.0,-124.0,-214.0,-1550.0,114.0,-156.0,106.0,-453.0,-930.0
20.0,-119.0,-219.0,-1556.0,118.0,-154.0,96.0,-440.0,-942.0
16.0,-116.0,-223.0,-1569.0,126.0,-163.0,81.0,-414.0,-944.0
27.0,-86.0,-231.0,-1595.0,128.0,-197.0,53.0,-350.0,-943.0
19.0,-103.0,-225.0,-1615.0,134.0,-184.0,84.0,-376.0,-967.0
15.0,-107.0,-226.0,-1628.0,137.0,-171.0,56.0,-392.0,-962.0
13.0,-106.0,-227.0,-1630.0,130.0,-175.0,65.0,-378.0,-989.0
9.0,-102.0,-237.0,-1642.0,127.0,-173.0,51.0,-369.0,-998.0
8.0,-99.0,-233.0,-1658.0,123.0,-182.0,48.0,-366.0,-1002.0
12.0,-95.0,-236.0,-1678.0,116.0,-187.0,63.0,-358.0,-1011.0
11.0,-101.0,-241.0,-1701.0,111.0,-185.0,61.0,-376.0,-1029.0
14.0,-95.0,-243.0,-1734.0,109.0,-190.0,74.0,-342.0,-1032.0
2.0,-82.0,-236.0,-1773.0,115.0,-191.0,23.0,-336.0,-1012.0
15.0,-89.0,-247.0,-1809.0,119.0,-197.0,82.0,-310.0,-1055.0
13.0,-91.0,-249.0,-1825.0,127.0,-180.0,68.0,-330.0,-1057.0
17.0,-91.0,-252.0,-1820.0,130.0,-171.0,76.0,-321.0,-1074.0
22.0,-86.0,-256.0,-1814.0,134.0,-157.0,95.0,-320.0,-1098.0
16.0,-93.0,-258.0,-1823.0,142.0,-130.0,77.0,-335.0,-1090.0
19.0,-90.0,-264.0,-1812.0,133.0,-142.0,79.0,-309.0,-1119.0
15.0,-88.0,-264.0,-1782.0,131.0,-162.0,79.0,-305.0,-1120.0
17.0,-88.0,-261.0,-1755.0,132.0,-171.0,83.0,-303.0,-1124.0
18.0,-84.0,-265.0,-1731.0,131.0,-176.0,87.0,-298.0,-1141.0
9.0,-76.0,-262.0,-1725.0,132.0,-185.0,48.0,-321.0,-1135.0
25.0,-74.0,-272.0,-1730.0,138.0,-192.0,96.0,-261.0,-1158.0
24.0,-77.0,-270.0,-1716.0,148.0,-167.0,89.0,-274.0,-1158.0
16.0,-78.0,-270.0,-1687.0,149.0,-161.0,77.0,-276.0,-1152.0
19.0,-81.0,-276.0,-1657.0,151.0,-158.0,89.0,-287.0,-1165.0
26.0,-80.0,-276.0,-1644.0,163.0,-160.0,103.0,-287.0,-1176.0
28.0,-87.0,-277.0,-1644.0,172.0,-160.0,104.0,-287.0,-1166.0
23.0,-79.0,-277.0,-1635.0,178.0,-155.0,105.0,-276.0,-1172.0
26.0,-80.0,-275.0,-1612.0,181.0,-149.0,116.0,-264.0,-1173.0
22.0,-79.0,-277.0,-1575.0,183.0,-143.0,103.0,-267.0,-1180.0
29.0,-78.0,-276.0,-1529.0,186.0,-134.0,116.0,-265.0,-1182.0
24.0,-76.0,-278.0,-1472.0,185.0,-133.0,116.0,-261.0,-1191.0
33.0,-124.0,-294.0,-1414.0,182.0,-136.0,124.0,-374.0,-1234.0
31.0,-71.0,-291.0,-1372.0,181.0,-153.0,133.0,-230.0,-1220.0
23.0,-76.0,-288.0,-1305.0,183.0,-123.0,106.0,-249.0,-1220.0
22.0,-76.0,-290.0,-1217.0,177.0,-112.0,105.0,-249.0,-1223.0
21.0,-79.0,-287.0,-1124.0,175.0,-105.0,97.0,-253.0,-1226.0
18.0,-74.0,-287.0,-1036.0,169.0,-99.0,88.0,-245.0,-1217.0
18.0,-72.0,-288.0,-956.0,163.0,-96.0,84.0,-235.0,-1218.0
17.0,-67.0,-288.0,-883.0,161.0,-93.0,87.0,-218.0,-1215.0
21.0,-61.0,-285.0,-814.0,158.0,-92.0,90.0,-197.0,-1214.0
23.0,-59.0,-283.0,-744.0,156.0,-91.0,102.0,-184.0,-1218.0
21.0,-52.0,-283.0,-679.0,156.0,-88.0,106.0,-171.0,-1210.0
34.0,-42.0,-291.0,-623.0,157.0,-84.0,119.0,-159.0,-1207.0
34.0,-50.0,-286.0,-580.0,159.0,-80.0,133.0,-149.0,-1205.0
32.0,-46.0,-283.0,-546.0,161.0,-76.0,150.0,-142.0,-1200.0
38.0,-42.0,-278.0,-516.0,166.0,-69.0,145.0,-130.0,-1197.0
35.0,-42.0,-278.0,-487.0,169.0,-66.0,145.0,-120.0,-1190.0
36.0,-39.0,-278.0,-464.0,176.0,-60.0,147.0,-115.0,-1191.0
31.0,-39.0,-278.0,-443.0,181.0,-57.0,136.0,-114.0,-1182.0
32.0,-39.0,-279.0,-424.0,185.0,-54.0,132.0,-116.0,-1183.0
31.0,-37.0,-277.0,-411.0,190.0,-55.0,123.0,-113.0,-1185.0
24.0,-37.0,-279.0,-402.0,195.0,-57.0,110.0,-111.0,-1179.0
26.0,-35.0,-277.0,-398.0,197.0,-60.0,108.0,-106.0,-1179.0
21.0,-35.0,-278.0,-395.0,202.0,-60.0,96.0,-108.0,-1178.0
26.0,-38.0,-274.0,-390.0,206.0,-61.0,99.0,-116.0,-1174.0
24.0,-35.0,-272.0,-379.0,209.0,-60.0,99.0,-114.0,-1166.0
21.0,-37.0,-272.0,-361.0,207.0,-57.0,96.0,-106.0,-1166.0
24.0,-35.0,-274.0,-336.0,203.0,-53.0,106.0,-103.0,-1168.0
30.0,-35.0,-277.0,-306.0,197.0,-48.0,113.0,-112.0,-1163.0
29.0,-35.0,-274.0,-271.0,192.0,-40.0,122.0,-104.0,-1165.0
29.0,-37.0,-276.0,-234.0,185.0,-32.0,121.0,-99.0,-1166.0
32.0,-37.0,-275.0,-196.0,178.0,-24.0,129.0,-102.0,-1169.0
28.0,-36.0,-275.0,-156.0,171.0,-13.0,134.0,-104.0,-1167.0
37.0,-31.0,-271.0,-116.0,168.0,-1.0,132.0,-106.0,-1168.0
31.0,-39.0,-275.0,-79.0,167.0,7.0,132.0,-112.0,-1165.0
31.0,-37.0,-273.0,-46.0,168.0,16.0,134.0,-111.0,-1161.0
29.0,-36.0,-271.0,-18.0,172.0,26.0,136.0,-111.0,-1160.0
32.0,-42.0,-273.0,10.0,174.0,37.0,128.0,-114.0,-1150.0
30.0,-37.0,-269.0,38.0,175.0,46.0,121.0,-113.0,-1153.0
29.0,-38.0,-269.0,67.0,179.0,57.0,123.0,-105.0,-1142.0
27.0,-37.0,-273.0,102.0,179.0,72.0,120.0,-108.0,-1145.0
27.0,-36.0,-268.0,139.0,180.0,85.0,117.0,-113.0,-1139.0
24.0,-40.0,-273.0,171.0,178.0,96.0,110.0,-116.0,-1143.0
24.0,-43.0,-267.0,202.0,175.0,106.0,105.0,-122.0,-1131.0
21.0,-43.0,-266.0,231.0,173.0,115.0,98.0,-121.0,-1141.0
23.0,-41.0,-271.0,261.0,169.0,120.0,95.0,-126.0,-1135.0
23.0,-41.0,-269.0,293.0,166.0,128.0,94.0,-120.0,-1146.0
19.0,-43.0,-270.0,323.0,163.0,135.0,90.0,-129.0,-1154.0
25.0,-44.0,-273.0,353.0,163.0,141.0,95.0,-140.0,-1152.0
20.0,-46.0,-273.0,378.0,161.0,145.0,99.0,-146.0,-1163.0
23.0,-44.0,-273.0,405.0,158.0,151.0,103.0,-148.0,-1163.0
21.0,-46.0,-273.0,434.0,154.0,158.0,100.0,-138.0,-1169.0
24.0,-50.0,-276.0,465.0,149.0,165.0,106.0,-148.0,-1170.0
23.0,-49.0,-279.0,498.0,145.0,169.0,97.0,-150.0,-1175.0
26.0,-49.0,-275.0,532.0,142.0,176.0,102.0,-145.0,-1176.0
30.0,-48.0,-273.0,565.0,138.0,180.0,107.0,-153.0,-1172.0
23.0,-47.0,-273.0,600.0,135.0,184.0,110.0,-147.0,-1171.0
26.0,-46.0,-276.0,634.0,132.0,188.0,105.0,-149.0,-1170.0
23.0,-46.0,-275.0,665.0,128.0,192.0,107.0,-154.0,-1157.0
22.0,-49.0,-272.0,695.0,125.0,195.0,105.0,-152.0,-1162.0
23.0,-51.0,-272.0,722.0,125.0,199.0,106.0,-160.0,-1157.0
27.0,-55.0,-270.0,744.0,128.0,202.0,116.0,-166.0,-1149.0
27.0,-52.0,-268.0,763.0,124.0,206.0,113.0,-175.0,-1158.0
26.0,-52.0,-271.0,780.0,125.0,211.0,113.0,-171.0,-1159.0
25.0,-55.0,-273.0,797.0,127.0,219.0,114.0,-172.0,-1158.0
28.0,-52.0,-271.0,809.0,125.0,225.0,129.0,-167.0,-1151.0
30.0,-55.0,-275.0,823.0,128.0,229.0,122.0,-174.0,-1152.0
28.0,-55.0,-269.0,840.0,128.0,234.0,130.0,-173.0,-1149.0
31.0,-53.0,-271.0,861.0,133.0,236.0,131.0,-173.0,-1149.0
35.0,-52.0,-267.0,875.0,134.0,234.0,140.0,-181.0,-1143.0
35.0,-58.0,-271.0,886.0,133.0,230.0,142.0,-194.0,-1145.0
36.0,-59.0,-272.0,897.0,134.0,230.0,147.0,-199.0,-1141.0
36.0,-58.0,-269.0,901.0,130.0,228.0,145.0,-204.0,-1144.0
36.0,-66.0,-272.0,901.0,129.0,229.0,145.0,-218.0,-1146.0
33.0,-64.0,-270.0,896.0,134.0,232.0,146.0,-214.0,-1134.0
35.0,-64.0,-265.0,886.0,134.0,233.0,141.0,-223.0,-1132.0
33.0,-73.0,-266.0,881.0,129.0,237.0,131.0,-233.0,-1134.0
27.0,-71.0,-269.0,871.0,125.0,238.0,129.0,-246.0,-1133.0
31.0,-77.0,-265.0,865.0,121.0,233.0,138.0,-256.0,-1128.0
35.0,-79.0,-262.0,865.0,121.0,224.0,145.0,-272.0,-1114.0
35.0,-78.0,-263.0,881.0,120.0,213.0,154.0,-282.0,-1110.0
33.0,-80.0,-257.0,899.0,123.0,207.0,143.0,-280.0,-1100.0
32.0,-83.0,-256.0,913.0,123.0,209.0,140.0,-293.0,-1089.0
31.0,-86.0,-254.0,918.0,117.0,205.0,134.0,-303.0,-1075.0
31.0,-90.0,-256.0,924.0,107.0,203.0,130.0,-311.0,-1076.0
27.0,-94.0,-253.0,936.0,100.0,204.0,112.0,-324.0,-1077.0
25.0,-93.0,-251.0,948.0,89.0,206.0,114.0,-330.0,-1072.0
25.0,-97.0,-253.0,959.0,76.0,214.0,122.0,-340.0,-1076.0
27.0,-100.0,-246.0,973.0,64.0,218.0,112.0,-351.0,-1058.0
26.0,-103.0,-243.0,988.0,51.0,219.0,118.0,-362.0,-1047.0
26.0,-103.0,-244.0,1013.0,44.0,218.0,123.0,-364.0,-1030.0
29.0,-106.0,-243.0,1039.0,34.0,222.0,134.0,-379.0,-1026.0
31.0,-109.0,-235.0,1067.0,27.0,215.0,130.0,-382.0,-1009.0
31.0,-104.0,-234.0,1096.0,26.0,215.0,136.0,-391.0,-1014.0
26.0,-104.0,-229.0,1114.0,24.0,218.0,123.0,-379.0,-977.0
31.0,-109.0,-226.0,1129.0,7.0,211.0,129.0,-379.0,-972.0
30.0,-109.0,-225.0,1145.0,-1.0,198.0,123.0,-392.0,-974.0
27.0,-106.0,-214.0,1163.0,-2.0,188.0,114.0,-393.0,-968.0
23.0,-108.0,-225.0,1171.0,-6.0,181.0,111.0,-401.0,-956.0
23.0,-113.0,-218.0,1171.0,-14.0,179.0,110.0,-405.0,-949.0
23.0,-115.0,-217.0,1175.0,-25.0,189.0,114.0,-421.0,-940.0
18.0,-114.0,-217.0,1173.0,-38.0,183.0,96.0,-427.0,-923.0
21.0,-120.0,-215.0,1166.0,-49.0,166.0,83.0,-441.0,-923.0
19.0,-120.0,-209.0,1153.0,-53.0,148.0,86.0,-451.0,-914.0
18.0,-119.0,-209.0,1132.0,-59.0,133.0,86.0,-442.0,-903.0
21.0,-121.0,-209.0,1111.0,-67.0,118.0,88.0,-443.0,-894.0
16.0,-123.0,-206.0,1098.0,-78.0,108.0,88.0,-461.0,-888.0
12.0,-115.0,-201.0,1087.0,-90.0,90.0,87.0,-443.0,-879.0
17.0,-125.0,-204.0,1083.0,-101.0,86.0,91.0,-468.0,-883.0
18.0,-124.0,-203.0,1065.0,-112.0,66.0,84.0,-467.0,-864.0
17.0,-124.0,-203.0,1051.0,-120.0,43.0,96.0,-464.0,-865.0
20.0,-120.0,-199.0,1033.0,-121.0,24.0,99.0,-463.0,-862.0
19.0,-124.0,-201.0,1016.0,-123.0,11.0,91.0,-463.0,-860.0
13.0,-122.0,-197.0,998.0,-122.0,2.0,75.0,-457.0,-853.0
15.0,-126.0,-197.0,977.0,-123.0,-6.0,68.0,-472.0,-842.0
12.0,-131.0,-194.0,954.0,-125.0,-19.0,63.0,-474.0,-838.0
12.0,-127.0,-197.0,926.0,-128.0,-29.0,59.0,-480.0,-836.0
11.0,-128.0,-196.0,903.0,-136.0,-38.0,56.0,-485.0,-833.0
7.0,-131.0,-195.0,882.0,-144.0,-46.0,42.0,-493.0,-827.0
11.0,-133.0,-190.0,864.0,-156.0,-54.0,37.0,-506.0,-832.0
-1.0,-135.0,-192.0,850.0,-169.0,-61.0,25.0,-510.0,-830.0
1.0,-140.0,-193.0,844.0,-186.0,-60.0,34.0,-526.0,-833.0
0.0,-140.0,-192.0,832.0,-201.0,-71.0,11.0,-532.0,-821.0
0.0,-139.0,-196.0,821.0,-215.0,-83.0,16.0,-531.0,-838.0
1.0,-142.0,-194.0,803.0,-225.0,-93.0,17.0,-532.0,-836.0
1.0,-147.0,-197.0,790.0,-235.0,-101.0,23.0,-539.0,-833.0
1.0,-150.0,-194.0,786.0,-244.0,-108.0,30.0,-559.0,-836.0
2.0,-150.0,-194.0,783.0,-255.0,-118.0,37.0,-576.0,-821.0
8.0,-158.0,-192.0,785.0,-269.0,-124.0,52.0,-594.0,-821.0
11.0,-159.0,-194.0,787.0,-286.0,-132.0,59.0,-594.0,-818.0
14.0,-160.0,-191.0,796.0,-303.0,-136.0,75.0,-603.0,-812.0
15.0,-163.0,-190.0,811.0,-320.0,-140.0,84.0,-619.0,-817.0
16.0,-164.0,-191.0,821.0,-337.0,-144.0,87.0,-609.0,-819.0
23.0,-167.0,-187.0,835.0,-347.0,-153.0,83.0,-612.0,-808.0
22.0,-164.0,-190.0,857.0,-352.0,-165.0,106.0,-611.0,-813.0
17.0,-163.0,-185.0,872.0,-361.0,-160.0,98.0,-607.0,-812.0
16.0,-161.0,-186.0,884.0,-368.0,-158.0,86.0,-617.0,-794.0
17.0,-167.0,-182.0,894.0,-374.0,-157.0,77.0,-630.0,-780.0
13.0,-164.0,-183.0,911.0,-383.0,-159.0,73.0,-618.0,-781.0
10.0,-168.0,-183.0,935.0,-389.0,-154.0,60.0,-628.0,-777.0
9.0,-165.0,-178.0,959.0,-396.0,-156.0,58.0,-615.0,-779.0
12.0,-174.0,-181.0,977.0,-403.0,-154.0,45.0,-651.0,-780.0
0.0,-167.0,-178.0,968.0,-411.0,-162.0,32.0,-636.0,-777.0
0.0,-168.0,-181.0,953.0,-421.0,-167.0,13.0,-639.0,-783.0
-2.0,-164.0,-185.0,940.0,-430.0,-175.0,10.0,-623.0,-794.0
0.0,-164.0,-184.0,921.0,-430.0,-179.0,13.0,-631.0,-791.0
0.0,-166.0,-180.0,901.0,-430.0,-182.0,13.0,-642.0,-788.0
0.0,-172.0,-183.0,895.0,-433.0,-188.0,10.0,-643.0,-787.0
1.0,-171.0,-178.0,900.0,-428.0,-194.0,19.0,-643.0,-786.0
-2.0,-171.0,-181.0,905.0,-431.0,-199.0,16.0,-650.0,-775.0
0.0,-170.0,-179.0,915.0,-437.0,-205.0,16.0,-643.0,-769.0
1.0,-171.0,-177.0,935.0,-443.0,-207.0,29.0,-639.0,-766.0
6.0,-166.0,-177.0,958.0,-450.0,-211.0,33.0,-638.0,-761.0
4.0,-169.0,-176.0,980.0,-460.0,-213.0,39.0,-637.0,-760.0
2.0,-165.0,-180.0,991.0,-469.0,-214.0,37.0,-629.0,-763.0
6.0,-166.0,-177.0,999.0,-479.0,-214.0,38.0,-632.0,-766.0
8.0,-165.0,-181.0,999.0,-484.0,-212.0,49.0,-629.0,-784.0
2.0,-164.0,-184.0,986.0,-481.0,-216.0,38.0,-639.0,-787.0
4.0,-158.0,-179.0,963.0,-475.0,-216.0,50.0,-604.0,-783.0
1.0,-168.0,-180.0,951.0,-470.0,-213.0,31.0,-625.0,-785.0
0.0,-162.0,-178.0,940.0,-464.0,-211.0,18.0,-616.0,-779.0
1.0,-163.0,-178.0,935.0,-458.0,-209.0,24.0,-624.0,-778.0
0.0,-167.0,-174.0,926.0,-450.0,-211.0,16.0,-622.0,-761.0
-7.0,-169.0,-178.0,916.0,-452.0,-212.0,-2.0,-610.0,-767.0
-15.0,-152.0,-171.0,906.0,-449.0,-205.0,-1.0,-595.0,-731.0
3.0,-171.0,-170.0,902.0,-438.0,-184.0,30.0,-650.0,-737.0
0.0,-170.0,-171.0,893.0,-428.0,-194.0,18.0,-643.0,-737.0
3.0,-169.0,-169.0,880.0,-419.0,-205.0,30.0,-636.0,-726.0
4.0,-172.0,-166.0,874.0,-418.0,-211.0,35.0,-655.0,-740.0
4.0,-168.0,-166.0,840.0,-402.0,-208.0,42.0,-646.0,-734.0
7.0,-168.0,-168.0,813.0,-389.0,-214.0,48.0,-647.0,-725.0
2.0,-168.0,-165.0,802.0,-382.0,-223.0,35.0,-645.0,-719.0
9.0,-159.0,-160.0,795.0,-378.0,-229.0,37.0,-622.0,-714.0
-2.0,-172.0,-168.0,804.0,-380.0,-230.0,14.0,-665.0,-727.0
1.0,-171.0,-170.0,784.0,-369.0,-219.0,16.0,-654.0,-724.0
-1.0,-170.0,-163.0,762.0,-357.0,-215.0,12.0,-647.0,-701.0
-1.0,-165.0,-165.0,758.0,-359.0,-212.0,15.0,-626.0,-698.0
-1.0,-159.0,-158.0,770.0,-368.0,-204.0,17.0,-599.0,-698.0
-4.0,-173.0,-160.0,793.0,-380.0,-195.0,6.0,-655.0,-698.0
-8.0,-170.0,-158.0,793.0,-388.0,-187.0,-7.0,-655.0,-682.0
-4.0,-173.0,-156.0,806.0,-400.0,-184.0,-9.0,-654.0,-690.0
-11.0,-170.0,-156.0,816.0,-413.0,-185.0,-17.0,-636.0,-686.0
-2.0,-152.0,-159.0,822.0,-427.0,-190.0,12.0,-573.0,-691.0
-16.0,-174.0,-161.0,836.0,-439.0,-201.0,-42.0,-665.0,-688.0
-8.0,-169.0,-152.0,807.0,-447.0,-200.0,-27.0,-661.0,-678.0
-16.0,-171.0,-149.0,776.0,-450.0,-201.0,-45.0,-650.0,-657.0
-16.0,-173.0,-146.0,767.0,-459.0,-201.0,-46.0,-662.0,-651.0
-14.0,-169.0,-142.0,762.0,-466.0,-211.0,-28.0,-616.0,-628.0
-20.0,-176.0,-146.0,766.0,-476.0,-223.0,-54.0,-670.0,-627.0
-20.0,-177.0,-142.0,746.0,-477.0,-229.0,-64.0,-673.0,-612.0
-18.0,-175.0,-142.0,716.0,-474.0,-239.0,-59.0,-664.0,-603.0
-20.0,-173.0,-139.0,696.0,-471.0,-248.0,-61.0,-649.0,-609.0
-13.0,-172.0,-137.0,681.0,-467.0,-249.0,-42.0,-656.0,-603.0
-13.0,-167.0,-133.0,671.0,-463.0,-250.0,-13.0,-586.0,-576.0
-22.0,-182.0,-134.0,673.0,-471.0,-248.0,-50.0,-685.0,-598.0
-13.0,-186.0,-131.0,635.0,-475.0,-249.0,-36.0,-720.0,-573.0
-20.0,-171.0,-123.0,612.0,-489.0,-267.0,-70.0,-663.0,-553.0
-15.0,-181.0,-125.0,639.0,-505.0,-261.0,-32.0,-703.0,-556.0
-19.0,-181.0,-124.0,653.0,-516.0,-274.0,-49.0,-664.0,-552.0
-14.0,-168.0,-128.0,670.0,-538.0,-272.0,-28.0,-631.0,-551.0
-16.0,-179.0,-127.0,670.0,-548.0,-255.0,-48.0,-684.0,-564.0
-24.0,-178.0,-123.0,640.0,-559.0,-246.0,-74.0,-679.0,-541.0
-27.0,-171.0,-120.0,627.0,-582.0,-249.0,-80.0,-662.0,-543.0
-34.0,-175.0,-120.0,631.0,-609.0,-245.0,-108.0,-666.0,-533.0
-35.0,-178.0,-115.0,641.0,-639.0,-246.0,-99.0,-671.0,-525.0
-32.0,-169.0,-114.0,668.0,-671.0,-249.0,-98.0,-596.0,-494.0
-42.0,-183.0,-120.0,712.0,-717.0,-245.0,-141.0,-684.0,-523.0
-31.0,-175.0,-120.0,698.0,-739.0,-230.0,-97.0,-666.0,-512.0
-26.0,-170.0,-118.0,684.0,-754.0,-221.0,-89.0,-660.0,-518.0
-27.0,-170.0,-114.0,678.0,-772.0,-218.0,-84.0,-648.0,-519.0
-21.0,-171.0,-118.0,663.0,-789.0,-211.0,-73.0,-651.0,-521.0
-30.0,-150.0,-115.0,648.0,-807.0,-202.0,-91.0,-522.0,-500.0
-22.0,-187.0,-123.0,649.0,-826.0,-176.0,-53.0,-739.0,-537.0
-20.0,-194.0,-117.0,583.0,-837.0,-196.0,-55.0,-740.0,-520.0
-26.0,-195.0,-119.0,542.0,-843.0,-207.0,-70.0,-753.0,-514.0
-18.0,-193.0,-121.0,525.0,-850.0,-211.0,-52.0,-754.0,-532.0
-19.0,-191.0,-121.0,509.0,-850.0,-218.0,-45.0,-728.0,-536.0
-14.0,-189.0,-121.0,502.0,-852.0,-214.0,-32.0,-724.0,-548.0
-14.0,-187.0,-113.0,509.0,-861.0,-207.0,-35.0,-698.0,-508.0
-13.0,-197.0,-113.0,543.0,-879.0,-202.0,-32.0,-756.0,-512.0
-18.0,-197.0,-104.0,565.0,-888.0,-213.0,-44.0,-745.0,-484.0
-15.0,-193.0,-104.0,610.0,-906.0,-214.0,-38.0,-732.0,-478.0
-19.0,-196.0,-105.0,659.0,-928.0,-201.0,-50.0,-736.0,-481.0
-22.0,-200.0,-103.0,703.0,-955.0,-190.0,-71.0,-751.0,-478.0
-25.0,-193.0,-111.0,745.0,-986.0,-169.0,-116.0,-674.0,-484.0
-28.0,-206.0,-106.0,782.0,-1011.0,-149.0,-84.0,-797.0,-477.0
-39.0,-210.0,-102.0,798.0,-1043.0,-165.0,-113.0,-796.0,-468.0
-43.0,-211.0,-98.0,812.0,-1073.0,-176.0,-145.0,-800.0,-449.0
-63.0,-224.0,-91.0,840.0,-1125.0,-198.0,-213.0,-829.0,-409.0
-53.0,-214.0,-91.0,886.0,-1214.0,-247.0,-185.0,-822.0,-426.0
-48.0,-209.0,-88.0,895.0,-1266.0,-323.0,-146.0,-781.0,-420.0
-33.0,-195.0,-99.0,894.0,-1266.0,-334.0,-113.0,-756.0,-449.0
-34.0,-190.0,-96.0,827.0,-1243.0,-285.0,-89.0,-753.0,-440.0
5.0,-183.0,-97.0,715.0,-1231.0,-258.0,-1.0,-729.0,-452.0
-2.0,-197.0,-84.0,568.0,-1163.0,-216.0,19.0,-739.0,-392.0
-17.0,-195.0,-76.0,486.0,-1126.0,-186.0,-32.0,-752.0,-360.0
-15.0,-209.0,-72.0,456.0,-1125.0,-165.0,-24.0,-799.0,-339.0
-17.0,-216.0,-73.0,432.0,-1142.0,-171.0,-44.0,-820.0,-328.0
-25.0,-213.0,-74.0,415.0,-1162.0,-178.0,-67.0,-819.0,-328.0
-27.0,-213.0,-71.0,418.0,-1183.0,-183.0,-72.0,-817.0,-333.0
-25.0,-214.0,-74.0,429.0,-1203.0,-182.0,-80.0,-815.0,-337.0
-29.0,-212.0,-79.0,443.0,-1223.0,-185.0,-87.0,-810.0,-345.0
-33.0,-210.0,-76.0,447.0,-1250.0,-185.0,-93.0,-814.0,-356.0
-33.0,-215.0,-79.0,452.0,-1280.0,-177.0,-105.0,-832.0,-353.0
-42.0,-201.0,-73.0,451.0,-1314.0,-175.0,-157.0,-762.0,-337.0
-38.0,-220.0,-72.0,457.0,-1352.0,-165.0,-114.0,-845.0,-337.0
-37.0,-219.0,-74.0,442.0,-1397.0,-183.0,-125.0,-844.0,-339.0
-39.0,-215.0,-77.0,426.0,-1437.0,-192.0,-129.0,-838.0,-348.0
-48.0,-211.0,-81.0,422.0,-1482.0,-218.0,-159.0,-813.0,-353.0
-52.0,-204.0,-86.0,417.0,-1528.0,-236.0,-149.0,-800.0,-354.0
-38.0,-200.0,-83.0,404.0,-1555.0,-232.0,-131.0,-778.0,-381.0
-35.0,-198.0,-78.0,369.0,-1566.0,-219.0,-113.0,-768.0,-367.0
-38.0,-199.0,-75.0,335.0,-1575.0,-209.0,-117.0,-776.0,-347.0
-41.0,-200.0,-74.0,310.0,-1590.0,-209.0,-126.0,-784.0,-333.0
-63.0,-206.0,-62.0,296.0,-1619.0,-220.0,-194.0,-774.0,-289.0
-43.0,-208.0,-63.0,316.0,-1694.0,-242.0,-143.0,-789.0,-314.0
-30.0,-197.0,-66.0,296.0,-1726.0,-260.0,-111.0,-781.0,-296.0
-21.0,-202.0,-60.0,263.0,-1718.0,-255.0,-61.0,-782.0,-293.0
-37.0,-204.0,-57.0,233.0,-1707.0,-254.0,-113.0,-795.0,-276.0
-35.0,-206.0,-61.0,219.0,-1723.0,-248.0,-117.0,-805.0,-274.0
-37.0,-208.0,-60.0,216.0,-1728.0,-246.0,-117.0,-806.0,-269.0
-39.0,-206.0,-58.0,219.0,-1733.0,-254.0,-115.0,-799.0,-264.0
-33.0,-200.0,-56.0,217.0,-1742.0,-265.0,-96.0,-785.0,-270.0
-29.0,-199.0,-56.0,209.0,-1758.0,-280.0,-86.0,-776.0,-264.0
-25.0,-194.0,-58.0,195.0,-1780.0,-301.0,-71.0,-746.0,-265.0
-23.0,-185.0,-64.0,178.0,-1804.0,-319.0,-70.0,-724.0,-267.0
-23.0,-181.0,-58.0,160.0,-1827.0,-336.0,-73.0,-699.0,-270.0
-27.0,-171.0,-61.0,140.0,-1847.0,-348.0,-82.0,-664.0,-287.0
-29.0,-164.0,-63.0,120.0,-1864.0,-351.0,-93.0,-642.0,-291.0
-29.0,-160.0,-67.0,102.0,-1884.0,-349.0,-87.0,-613.0,-304.0
-28.0,-148.0,-67.0,78.0,-1910.0,-350.0,-98.0,-576.0,-305.0
-25.0,-143.0,-54.0,53.0,-1940.0,-346.0,-103.0,-543.0,-315.0
-39.0,-134.0,-71.0,22.0,-1975.0,-349.0,-139.0,-520.0,-327.0
-45.0,-122.0,-72.0,-14.0,-2020.0,-347.0,-155.0,-474.0,-342.0
-45.0,-124.0,-75.0,-51.0,-2069.0,-336.0,-157.0,-485.0,-348.0
-49.0,-119.0,-86.0,-52.0,-2100.0,-331.0,-182.0,-445.0,-375.0
-50.0,-102.0,-86.0,-58.0,-2127.0,-326.0,-178.0,-403.0,-392.0
-47.0,-93.0,-93.0,-76.0,-2168.0,-320.0,-164.0,-364.0,-413.0
-44.0,-87.0,-95.0,-102.0,-2213.0,-315.0,-156.0,-336.0,-428.0
-40.0,-84.0,-102.0,-131.0,-2253.0,-315.0,-140.0,-318.0,-437.0
-31.0,-84.0,-102.0,-161.0,-2282.0,-323.0,-114.0,-313.0,-447.0
-27.0,-83.0,-106.0,-193.0,-2295.0,-337.0,-93.0,-306.0,-458.0
-18.0,-81.0,-100.0,-226.0,-2293.0,-353.0,-62.0,-301.0,-453.0
-3.0,-77.0,-103.0,-253.0,-2281.0,-365.0,-9.0,-293.0,-451.0
9.0,-79.0,-99.0,-273.0,-2258.0,-374.0,27.0,-288.0,-442.0
15.0,-74.0,-100.0,-286.0,-2229.0,-379.0,68.0,-278.0,-440.0
29.0,-68.0,-96.0,-296.0,-2200.0,-381.0,112.0,-259.0,-438.0
41.0,-66.0,-94.0,-307.0,-2168.0,-380.0,157.0,-242.0,-421.0
50.0,-58.0,-92.0,-317.0,-2132.0,-381.0,200.0,-217.0,-413.0
58.0,-56.0,-87.0,-337.0,-2093.0,-383.0,237.0,-192.0,-397.0
63.0,-46.0,-90.0,-358.0,-2068.0,-388.0,249.0,-162.0,-395.0
63.0,-37.0,-86.0,-383.0,-2057.0,-390.0,266.0,-125.0,-387.0
65.0,-25.0,-100.0,-416.0,-2054.0,-393.0,274.0,-96.0,-413.0
71.0,-19.0,-89.0,-466.0,-2048.0,-405.0,275.0,-57.0,-413.0
69.0,-13.0,-82.0,-530.0,-2036.0,-422.0,280.0,-41.0,-378.0
76.0,-18.0,-80.0,-582.0,-2025.0,-437.0,296.0,-40.0,-369.0
78.0,-13.0,-81.0,-627.0,-2010.0,-456.0,316.0,-34.0,-371.0
73.0,-20.0,-78.0,-674.0,-1998.0,-475.0,305.0,-41.0,-363.0
73.0,-25.0,-83.0,-712.0,-1984.0,-488.0,302.0,-67.0,-369.0
68.0,-29.0,-81.0,-736.0,-1950.0,-502.0,271.0,-81.0,-363.0
62.0,-29.0,-81.0,-753.0,-1920.0,-511.0,245.0,-96.0,-355.0
57.0,-34.0,-80.0,-769.0,-1889.0,-516.0,221.0,-116.0,-367.0
53.0,-37.0,-85.0,-805.0,-1853.0,-514.0,208.0,-126.0,-378.0
34.0,-40.0,-86.0,-865.0,-1819.0,-505.0,158.0,-146.0,-374.0
28.0,-48.0,-85.0,-931.0,-1802.0,-487.0,114.0,-179.0,-381.0
25.0,-53.0,-86.0,-976.0,-1780.0,-475.0,91.0,-184.0,-385.0
11.0,-51.0,-88.0,-1035.0,-1753.0,-475.0,66.0,-185.0,-375.0
5.0,-57.0,-81.0,-1097.0,-1742.0,-477.0,33.0,-196.0,-358.0
1.0,-57.0,-77.0,-1134.0,-1737.0,-478.0,19.0,-201.0,-342.0
10.0,-50.0,-84.0,-1094.0,-1751.0,-483.0,47.0,-186.0,-368.0
19.0,-43.0,-92.0,-1112.0,-1741.0,-497.0,81.0,-151.0,-432.0
33.0,-39.0,-97.0,-1197.0,-1705.0,-513.0,145.0,-132.0,-448.0
46.0,-34.0,-109.0,-1253.0,-1681.0,-549.0,211.0,-113.0,-482.0
77.0,-30.0,-117.0,-1301.0,-1660.0,-587.0,270.0,-117.0,-497.0
78.0,-40.0,-115.0,-1349.0,-1637.0,-629.0,320.0,-123.0,-499.0
78.0,-43.0,-116.0,-1396.0,-1614.0,-660.0,317.0,-136.0,-494.0
64.0,-51.0,-98.0,-1430.0,-1604.0,-662.0,265.0,-176.0,-445.0
50.0,-66.0,-91.0,-1440.0,-1608.0,-634.0,210.0,-236.0,-413.0
31.0,-87.0,-84.0,-1437.0,-1627.0,-592.0,152.0,-320.0,-388.0
15.0,-105.0,-87.0,-1439.0,-1661.0,-552.0,66.0,-410.0,-402.0
-40.0,-140.0,-100.0,-1465.0,-1709.0,-514.0,-100.0,-506.0,-422.0
-82.0,-161.0,-117.0,-1503.0,-1764.0,-456.0,-285.0,-605.0,-512.0
-117.0,-183.0,-152.0,-1569.0,-1804.0,-359.0,-424.0,-710.0,-622.0
-125.0,-208.0,-179.0,-1666.0,-1826.0,-250.0,-474.0,-805.0,-757.0
-121.0,-230.0,-219.0,-1762.0,-1833.0,-169.0,-467.0,-891.0,-913.0
-97.0,-241.0,-262.0,-1875.0,-1825.0,-130.0,-375.0,-928.0,-1087.0
-65.0,-245.0,-288.0,-2002.0,-1808.0,-122.0,-256.0,-930.0,-1205.0
-40.0,-236.0,-300.0,-2102.0,-1766.0,-133.0,-157.0,-902.0,-1278.0
-10.0,-213.0,-319.0,-2152.0,-1695.0,-108.0,-59.0,-826.0,-1324.0
22.0,-189.0,-343.0,-2174.0,-1601.0,-22.0,70.0,-733.0,-1422.0
62.0,-162.0,-375.0,-2206.0,-1485.0,96.0,212.0,-623.0,-1537.0
95.0,-140.0,-406.0,-2261.0,-1333.0,244.0,331.0,-546.0,-1684.0
113.0,-140.0,-453.0,-2352.0,-1170.0,410.0,436.0,-524.0,-1894.0
115.0,-152.0,-517.0,-2466.0,-1038.0,585.0,437.0,-556.0,-2139.0
125.0,-166.0,-581.0,-2599.0,-917.0,770.0,463.0,-639.0,-2406.0
132.0,-219.0,-621.0,-2740.0,-759.0,985.0,493.0,-806.0,-2593.0
124.0,-313.0,-668.0,-2876.0,-585.0,1188.0,495.0,-1152.0,-2760.0
102.0,-419.0,-670.0,-3113.0,-456.0,1354.0,423.0,-1597.0,-2823.0
26.0,-493.0,-650.0,-3359.0,-246.0,1523.0,221.0,-1904.0,-2739.0
-136.0,-511.0,-582.0,-3545.0,-168.0,1501.0,-394.0,-1980.0,-2491.0
-149.0,-556.0,-465.0,-3632.0,-251.0,1708.0,-573.0,-2039.0,-2116.0
-238.0,-531.0,-333.0,-3444.0,-332.0,2051.0,-816.0,-2014.0,-1536.0
-333.0,-501.0,-172.0,-2974.0,-718.0,2188.0,-1150.0,-1886.0,-715.0
-413.0,-376.0,-58.0,-2175.0,-1178.0,1965.0,-1626.0,-1333.0,-299.0
-448.0,-266.0,9.0,-1274.0,-1318.0,1859.0,-1754.0,-952.0,1.0
-429.0,-172.0,28.0,-603.0,-1422.0,1794.0,-1640.0,-674.0,79.0
-399.0,-98.0,20.0,-333.0,-1520.0,1777.0,-1547.0,-435.0,66.0
-378.0,-43.0,-15.0,-481.0,-1667.0,1835.0,-1441.0,-266.0,-65.0
-276.0,-95.0,-37.0,-873.0,-1905.0,1978.0,-1084.0,-376.0,-174.0
-218.0,-138.0,-74.0,-1060.0,-2074.0,2003.0,-831.0,-518.0,-317.0
-193.0,-189.0,-93.0,-984.0,-2224.0,1961.0,-723.0,-692.0,-410.0
-162.0,-228.0,-89.0,-829.0,-2393.0,1916.0,-620.0,-853.0,-413.0
-138.0,-283.0,-71.0,-745.0,-2513.0,1855.0,-528.0,-1097.0,-337.0
-142.0,-298.0,-48.0,-794.0,-2544.0,1764.0,-547.0,-1159.0,-216.0
-171.0,-258.0,-28.0,-891.0,-2496.0,1665.0,-676.0,-997.0,-136.0
-187.0,-202.0,1.0,-957.0,-2432.0,1569.0,-747.0,-790.0,-93.0
-228.0,-162.0,11.0,-1011.0,-2393.0,1473.0,-887.0,-650.0,25.0
-257.0,-165.0,54.0,-1069.0,-2425.0,1437.0,-961.0,-653.0,193.0
-250.0,-189.0,99.0,-1101.0,-2533.0,1441.0,-945.0,-741.0,348.0
-258.0,-202.0,121.0,-1067.0,-2693.0,1430.0,-967.0,-796.0,440.0
-267.0,-189.0,109.0,-985.0,-2858.0,1434.0,-1007.0,-743.0,411.0
-257.0,-177.0,66.0,-955.0,-3031.0,1463.0,-1001.0,-700.0,253.0
-307.0,-184.0,37.0,-1007.0,-3141.0,1457.0,-1141.0,-751.0,135.0
-331.0,-218.0,14.0,-1125.0,-3301.0,1504.0,-1276.0,-870.0,48.0
-355.0,-245.0,-8.0,-1143.0,-3399.0,1542.0,-1389.0,-933.0,-49.0
-370.0,-240.0,-46.0,-1007.0,-3365.0,1592.0,-1445.0,-926.0,-201.0
-385.0,-227.0,-85.0,-837.0,-3302.0,1650.0,-1496.0,-863.0,-353.0
-430.0,-224.0,-102.0,-652.0,-3276.0,1717.0,-1642.0,-861.0,-403.0
-386.0,-249.0,-111.0,-445.0,-3330.0,1810.0,-1507.0,-959.0,-458.0
-391.0,-254.0,-115.0,-299.0,-3431.0,1853.0,-1509.0,-973.0,-509.0
-474.0,-281.0,-105.0,-189.0,-3545.0,1940.0,-1767.0,-1047.0,-456.0
-547.0,-310.0,-145.0,15.0,-3690.0,2117.0,-2071.0,-1168.0,-555.0
-578.0,-317.0,-225.0,271.0,-3812.0,2321.0,-2001.0,-1312.0,-861.0
-685.0,-311.0,-252.0,448.0,-3825.0,2539.0,-2653.0,-1234.0,-1050.0
-745.0,-326.0,-273.0,566.0,-3870.0,2894.0,-2840.0,-1292.0,-1084.0
-899.0,-350.0,-284.0,696.0,-3851.0,3158.0,-3435.0,-1384.0,-1139.0
-925.0,-382.0,-280.0,825.0,-3943.0,3476.0,-3565.0,-1510.0,-1144.0
-820.0,-424.0,-245.0,994.0,-4010.0,3713.0,-3210.0,-1683.0,-1031.0
-798.0,-381.0,-200.0,1179.0,-3892.0,3784.0,-3122.0,-1534.0,-844.0
-508.0,-374.0,-156.0,1258.0,-3800.0,3963.0,-2183.0,-1459.0,-684.0
-322.0,-351.0,-108.0,1264.0,-3598.0,3995.0,-1366.0,-1372.0,-502.0
-181.0,-347.0,-63.0,1297.0,-3282.0,4044.0,-787.0,-1316.0,-314.0
-106.0,-348.0,-20.0,1386.0,-2924.0,4211.0,-466.0,-1339.0,-131.0
-48.0,-357.0,1.0,1489.0,-2548.0,4368.0,-214.0,-1364.0,-8.0
-98.0,-327.0,19.0,1569.0,-2229.0,4359.0,-338.0,-1268.0,45.0
-175.0,-299.0,2.0,1646.0,-1998.0,4286.0,-677.0,-1154.0,8.0
-234.0,-261.0,-16.0,1671.0,-1870.0,4133.0,-934.0,-1034.0,-80.0
-280.0,-208.0,-26.0,1631.0,-1751.0,3916.0,-1123.0,-854.0,-123.0
-380.0,-132.0,-46.0,1540.0,-1632.0,3700.0,-1490.0,-567.0,-189.0
-396.0,-92.0,-47.0,1399.0,-1570.0,3571.0,-1558.0,-385.0,-206.0
-351.0,-70.0,-88.0,1288.0,-1570.0,3459.0,-1417.0,-305.0,-383.0
-281.0,-50.0,-80.0,1175.0,-1495.0,3279.0,-1157.0,-232.0,-360.0
-242.0,-31.0,-37.0,1021.0,-1321.0,3058.0,-986.0,-135.0,-194.0
-228.0,-4.0,25.0,882.0,-1158.0,2877.0,-909.0,-43.0,38.0
-185.0,19.0,63.0,840.0,-1074.0,2757.0,-778.0,60.0,194.0
-157.0,48.0,76.0,839.0,-964.0,2629.0,-660.0,203.0,266.0
-149.0,91.0,73.0,863.0,-715.0,2498.0,-623.0,350.0,269.0
-190.0,97.0,62.0,878.0,-422.0,2390.0,-796.0,386.0,216.0
-227.0,109.0,23.0,896.0,-117.0,2353.0,-999.0,400.0,50.0
-290.0,80.0,-28.0,838.0,221.0,2443.0,-1193.0,317.0,-127.0
-344.0,96.0,-79.0,812.0,445.0,2429.0,-1374.0,348.0,-329.0
-401.0,106.0,-76.0,838.0,597.0,2319.0,-1631.0,411.0,-330.0
-450.0,143.0,-66.0,930.0,696.0,2068.0,-1761.0,540.0,-273.0
-471.0,178.0,-46.0,1015.0,756.0,1736.0,-1872.0,661.0,-221.0
-475.0,209.0,-36.0,1034.0,769.0,1373.0,-1897.0,779.0,-157.0
-474.0,249.0,-23.0,1012.0,770.0,982.0,-1906.0,933.0,-96.0
-458.0,289.0,-17.0,1002.0,747.0,645.0,-1815.0,1129.0,-85.0
-460.0,309.0,-13.0,1042.0,717.0,315.0,-1819.0,1191.0,-63.0
-411.0,308.0,-16.0,1135.0,695.0,57.0,-1679.0,1183.0,-71.0
-401.0,289.0,-8.0,1196.0,721.0,-157.0,-1619.0,1116.0,-56.0
-399.0,254.0,5.0,1218.0,751.0,-308.0,-1601.0,988.0,12.0
-383.0,214.0,24.0,1220.0,740.0,-397.0,-1543.0,837.0,64.0
-370.0,181.0,41.0,1187.0,726.0,-457.0,-1464.0,672.0,140.0
-333.0,155.0,43.0,1096.0,689.0,-497.0,-1359.0,553.0,169.0
-296.0,128.0,54.0,839.0,623.0,-527.0,-1204.0,447.0,174.0
-250.0,102.0,64.0,515.0,533.0,-540.0,-1014.0,356.0,215.0
-199.0,102.0,71.0,163.0,418.0,-541.0,-848.0,327.0,258.0
-155.0,100.0,91.0,-177.0,303.0,-522.0,-598.0,343.0,328.0
-112.0,103.0,115.0,-437.0,195.0,-480.0,-473.0,384.0,402.0
-93.0,112.0,115.0,-566.0,82.0,-403.0,-354.0,432.0,428.0
-67.0,113.0,112.0,-594.0,-22.0,-329.0,-261.0,452.0,428.0
-59.0,121.0,109.0,-547.0,-102.0,-259.0,-231.0,475.0,410.0
-45.0,118.0,107.0,-449.0,-149.0,-158.0,-174.0,468.0,399.0
-34.0,101.0,110.0,-310.0,-170.0,-50.0,-129.0,433.0,405.0
-30.0,80.0,111.0,-131.0,-173.0,42.0,-110.0,362.0,406.0
-34.0,60.0,106.0,56.0,-170.0,96.0,-126.0,278.0,397.0
-45.0,44.0,104.0,206.0,-166.0,108.0,-156.0,197.0,372.0
-59.0,30.0,98.0,301.0,-160.0,80.0,-215.0,133.0,354.0
-68.0,27.0,94.0,345.0,-162.0,26.0,-259.0,106.0,331.0
-79.0,20.0,85.0,366.0,-173.0,-36.0,-325.0,90.0,297.0
-95.0,19.0,66.0,380.0,-179.0,-100.0,-365.0,85.0,236.0
-108.0,28.0,46.0,380.0,-174.0,-177.0,-411.0,96.0,162.0
-121.0,36.0,32.0,351.0,-160.0,-260.0,-471.0,139.0,105.0
-130.0,45.0,21.0,309.0,-139.0,-339.0,-520.0,178.0,56.0
-142.0,56.0,11.0,257.0,-110.0,-415.0,-561.0,203.0,23.0
-151.0,66.0,1.0,195.0,-71.0,-485.0,-596.0,242.0,-2.0
-162.0,78.0,3.0,137.0,-12.0,-542.0,-630.0,292.0,-24.0
-175.0,89.0,6.0,99.0,62.0,-578.0,-690.0,355.0,0.0
-187.0,106.0,10.0,94.0,120.0,-582.0,-747.0,421.0,16.0
-184.0,130.0,3.0,112.0,163.0,-571.0,-742.0,479.0,35.0
-218.0,145.0,28.0,131.0,195.0,-552.0,-896.0,557.0,70.0
-200.0,146.0,28.0,134.0,189.0,-475.0,-824.0,556.0,92.0
-212.0,152.0,28.0,108.0,194.0,-454.0,-850.0,566.0,90.0
-230.0,156.0,31.0,35.0,208.0,-460.0,-917.0,582.0,100.0
-263.0,152.0,36.0,-56.0,210.0,-458.0,-1056.0,569.0,112.0
-303.0,144.0,32.0,-140.0,184.0,-433.0,-1193.0,544.0,101.0
-324.0,135.0,20.0,-213.0,151.0,-404.0,-1282.0,491.0,53.0
-351.0,128.0,6.0,-277.0,134.0,-390.0,-1384.0,466.0,-1.0
-362.0,123.0,-8.0,-327.0,130.0,-386.0,-1462.0,455.0,-58.0
-370.0,126.0,-22.0,-372.0,149.0,-397.0,-1481.0,460.0,-125.0
-377.0,133.0,-31.0,-409.0,193.0,-423.0,-1514.0,487.0,-145.0
-373.0,137.0,-33.0,-415.0,240.0,-432.0,-1499.0,530.0,-163.0
-379.0,144.0,-26.0,-388.0,281.0,-431.0,-1496.0,558.0,-144.0
-367.0,154.0,-22.0,-321.0,300.0,-411.0,-1470.0,587.0,-122.0
-355.0,163.0,-21.0,-239.0,314.0,-371.0,-1441.0,613.0,-114.0
-346.0,170.0,-17.0,-178.0,319.0,-333.0,-1391.0,638.0,-88.0
-340.0,171.0,-10.0,-127.0,314.0,-282.0,-1363.0,646.0,-63.0
-324.0,169.0,-9.0,-76.0,295.0,-206.0,-1307.0,646.0,-56.0
-316.0,171.0,-8.0,-42.0,284.0,-134.0,-1241.0,653.0,-43.0
-317.0,181.0,8.0,-25.0,284.0,-72.0,-1263.0,688.0,-2.0
-356.0,177.0,20.0,21.0,274.0,-11.0,-1407.0,679.0,49.0
-377.0,149.0,14.0,115.0,254.0,47.0,-1466.0,581.0,42.0
-363.0,131.0,11.0,199.0,261.0,83.0,-1436.0,482.0,29.0
-339.0,107.0,11.0,232.0,303.0,92.0,-1372.0,399.0,20.0
-330.0,91.0,14.0,229.0,352.0,68.0,-1313.0,340.0,31.0
-312.0,81.0,12.0,223.0,391.0,32.0,-1239.0,310.0,27.0
-292.0,75.0,15.0,217.0,413.0,-2.0,-1174.0,287.0,23.0
-277.0,64.0,17.0,213.0,415.0,-24.0,-1128.0,252.0,39.0
-269.0,57.0,21.0,220.0,410.0,-40.0,-1066.0,209.0,65.0
-261.0,46.0,29.0,232.0,402.0,-46.0,-1031.0,161.0,80.0
-266.0,37.0,31.0,238.0,385.0,-62.0,-1042.0,134.0,87.0
-255.0,41.0,23.0,234.0,351.0,-87.0,-1019.0,142.0,62.0
-256.0,43.0,24.0,202.0,340.0,-72.0,-1005.0,159.0,69.0
-230.0,22.0,13.0,167.0,341.0,-48.0,-912.0,65.0,29.0
-222.0,19.0,3.0,101.0,339.0,-76.0,-876.0,70.0,0.0
-216.0,20.0,-2.0,47.0,350.0,-93.0,-866.0,77.0,-37.0
-216.0,16.0,-10.0,22.0,369.0,-67.0,-863.0,59.0,-73.0
-206.0,6.0,-13.0,16.0,405.0,-37.0,-822.0,18.0,-91.0
-201.0,-2.0,-18.0,23.0,448.0,-31.0,-795.0,-4.0,-109.0
-201.0,-5.0,-17.0,42.0,486.0,-25.0,-789.0,-17.0,-93.0
-218.0,-6.0,-11.0,84.0,508.0,-10.0,-849.0,-20.0,-77.0
-218.0,-2.0,-10.0,155.0,498.0,-9.0,-862.0,-20.0,-84.0
-216.0,-6.0,-20.0,216.0,498.0,1.0,-841.0,-40.0,-88.0
-220.0,-4.0,-13.0,237.0,506.0,1.0,-868.0,-32.0,-85.0
-229.0,-5.0,-12.0,232.0,499.0,-14.0,-891.0,-18.0,-79.0
-244.0,-3.0,-14.0,228.0,467.0,-41.0,-945.0,-12.0,-89.0
-239.0,5.0,-19.0,225.0,426.0,-80.0,-938.0,15.0,-97.0
-234.0,9.0,-20.0,229.0,416.0,-113.0,-915.0,33.0,-103.0
-241.0,12.0,-28.0,239.0,422.0,-133.0,-946.0,51.0,-124.0
-246.0,15.0,-24.0,239.0,424.0,-139.0,-959.0,67.0,-131.0
-253.0,21.0,-29.0,237.0,408.0,-154.0,-1002.0,76.0,-145.0
-260.0,21.0,-32.0,229.0,391.0,-178.0,-1033.0,73.0,-160.0
-257.0,22.0,-31.0,200.0,396.0,-195.0,-1033.0,82.0,-162.0
-261.0,18.0,-28.0,159.0,429.0,-165.0,-1028.0,63.0,-149.0
-266.0,14.0,-31.0,120.0,449.0,-137.0,-1049.0,51.0,-150.0
-252.0,5.0,-35.0,99.0,456.0,-128.0,-1002.0,19.0,-170.0
-259.0,4.0,-30.0,90.0,480.0,-122.0,-1044.0,17.0,-161.0
-253.0,4.0,-35.0,99.0,511.0,-110.0,-1015.0,14.0,-167.0
-239.0,1.0,-35.0,117.0,567.0,-69.0,-962.0,2.0,-178.0
-243.0,-3.0,-33.0,120.0,639.0,-12.0,-944.0,-19.0,-173.0
-242.0,-5.0,-38.0,121.0,709.0,43.0,-946.0,-32.0,-186.0
-241.0,-2.0,-44.0,118.0,765.0,94.0,-951.0,-19.0,-212.0
-241.0,4.0,-52.0,100.0,802.0,128.0,-945.0,0.0,-229.0
-245.0,6.0,-58.0,75.0,824.0,162.0,-950.0,2.0,-263.0
-257.0,7.0,-68.0,49.0,839.0,189.0,-981.0,19.0,-284.0
-248.0,8.0,-68.0,30.0,843.0,226.0,-968.0,24.0,-302.0
-250.0,8.0,-73.0,25.0,839.0,253.0,-976.0,28.0,-313.0
-250.0,6.0,-78.0,28.0,812.0,271.0,-983.0,26.0,-334.0
-250.0,1.0,-82.0,38.0,780.0,277.0,-983.0,11.0,-359.0
-259.0,5.0,-91.0,49.0,738.0,260.0,-1004.0,18.0,-390.0
-258.0,7.0,-93.0,64.0,712.0,266.0,-1031.0,11.0,-427.0
-260.0,3.0,-99.0,75.0,691.0,278.0,-1028.0,6.0,-445.0
-259.0,3.0,-106.0,97.0,672.0,284.0,-1042.0,10.0,-461.0
-260.0,5.0,-105.0,116.0,649.0,282.0,-1038.0,16.0,-482.0
-261.0,6.0,-115.0,125.0,628.0,269.0,-1032.0,20.0,-494.0
-261.0,9.0,-119.0,132.0,613.0,258.0,-1037.0,48.0,-504.0
-265.0,11.0,-117.0,142.0,598.0,243.0,-1051.0,44.0,-509.0
-257.0,10.0,-117.0,140.0,577.0,230.0,-1032.0,40.0,-505.0
-258.0,10.0,-112.0,145.0,574.0,219.0,-1034.0,44.0,-496.0
-257.0,12.0,-110.0,156.0,568.0,219.0,-1031.0,48.0,-482.0
-256.0,11.0,-113.0,159.0,554.0,218.0,-1017.0,52.0,-488.0
-256.0,16.0,-111.0,148.0,539.0,208.0,-1022.0,60.0,-484.0
-255.0,18.0,-114.0,126.0,527.0,191.0,-1000.0,66.0,-486.0
-250.0,16.0,-109.0,95.0,511.0,171.0,-978.0,65.0,-488.0
-245.0,15.0,-108.0,64.0,493.0,147.0,-957.0,65.0,-466.0
-245.0,9.0,-98.0,44.0,468.0,127.0,-954.0,63.0,-456.0
-243.0,14.0,-99.0,36.0,438.0,113.0,-947.0,56.0,-434.0
-245.0,12.0,-99.0,37.0,406.0,103.0,-953.0,56.0,-429.0
-238.0,10.0,-90.0,41.0,377.0,94.0,-933.0,46.0,-408.0
-246.0,14.0,-92.0,58.0,351.0,92.0,-945.0,49.0,-413.0
-243.0,13.0,-92.0,56.0,317.0,86.0,-942.0,64.0,-401.0
-242.0,18.0,-87.0,45.0,280.0,79.0,-947.0,67.0,-381.0
-242.0,15.0,-84.0,38.0,246.0,75.0,-944.0,69.0,-365.0
-242.0,19.0,-78.0,40.0,218.0,75.0,-946.0,76.0,-354.0
-240.0,22.0,-77.0,40.0,189.0,76.0,-945.0,90.0,-343.0
-241.0,21.0,-75.0,40.0,163.0,80.0,-950.0,92.0,-338.0
-243.0,25.0,-72.0,42.0,142.0,86.0,-952.0,96.0,-329.0
-245.0,27.0,-72.0,49.0,127.0,91.0,-961.0,100.0,-324.0
-247.0,26.0,-72.0,54.0,114.0,96.0,-976.0,103.0,-325.0
-249.0,23.0,-76.0,60.0,104.0,108.0,-979.0,107.0,-328.0
-249.0,31.0,-75.0,68.0,104.0,122.0,-982.0,114.0,-336.0
-254.0,31.0,-78.0,78.0,113.0,136.0,-994.0,118.0,-342.0
-256.0,29.0,-77.0,90.0,129.0,149.0,-1001.0,126.0,-336.0
-255.0,34.0,-75.0,106.0,145.0,164.0,-1002.0,124.0,-335.0
-255.0,37.0,-74.0,119.0,160.0,175.0,-1005.0,135.0,-327.0
-256.0,39.0,-73.0,133.0,170.0,179.0,-1001.0,141.0,-322.0
-254.0,36.0,-69.0,138.0,175.0,180.0,-997.0,148.0,-314.0
-258.0,39.0,-73.0,143.0,177.0,178.0,-1001.0,155.0,-310.0
-252.0,38.0,-69.0,141.0,178.0,178.0,-1003.0,159.0,-305.0
-253.0,43.0,-69.0,136.0,177.0,174.0,-1000.0,166.0,-305.0
-252.0,42.0,-64.0,131.0,176.0,170.0,-995.0,160.0,-299.0
-253.0,42.0,-66.0,136.0,180.0,166.0,-993.0,165.0,-300.0
-253.0,44.0,-66.0,143.0,182.0,160.0,-991.0,170.0,-302.0
-252.0,42.0,-66.0,149.0,184.0,152.0,-984.0,162.0,-301.0
-251.0,45.0,-64.0,154.0,190.0,144.0,-986.0,168.0,-303.0
-246.0,46.0,-68.0,154.0,197.0,136.0,-982.0,176.0,-308.0
-249.0,41.0,-71.0,151.0,206.0,127.0,-977.0,161.0,-308.0
-251.0,41.0,-71.0,148.0,214.0,111.0,-988.0,169.0,-312.0
-253.0,43.0,-72.0,149.0,226.0,102.0,-990.0,165.0,-314.0
-256.0,43.0,-72.0,167.0,237.0,96.0,-991.0,169.0,-323.0
-253.0,42.0,-73.0,184.0,240.0,90.0,-989.0,171.0,-325.0
-251.0,49.0,-76.0,194.0,243.0,83.0,-989.0,192.0,-333.0
-253.0,55.0,-74.0,195.0,246.0,77.0,-997.0,205.0,-328.0
-254.0,54.0,-76.0,188.0,243.0,71.0,-999.0,209.0,-331.0
-252.0,52.0,-77.0,175.0,241.0,62.0,-987.0,202.0,-331.0
-250.0,56.0,-78.0,165.0,237.0,53.0,-990.0,206.0,-333.0
-251.0,57.0,-77.0,150.0,230.0,45.0,-993.0,210.0,-340.0
-253.0,54.0,-78.0,130.0,220.0,36.0,-991.0,219.0,-347.0
-254.0,60.0,-79.0,108.0,212.0,29.0,-995.0,214.0,-353.0
-260.0,50.0,-87.0,89.0,204.0,21.0,-990.0,211.0,-358.0
-252.0,55.0,-83.0,78.0,198.0,15.0,-992.0,210.0,-368.0
-253.0,51.0,-84.0,68.0,194.0,10.0,-988.0,205.0,-378.0
-252.0,54.0,-86.0,53.0,194.0,8.0,-995.0,202.0,-382.0
-252.0,51.0,-87.0,39.0,192.0,7.0,-996.0,192.0,-393.0
-251.0,53.0,-92.0,32.0,191.0,7.0,-984.0,201.0,-400.0
-252.0,55.0,-89.0,28.0,191.0,6.0,-994.0,197.0,-407.0
-250.0,52.0,-93.0,23.0,189.0,3.0,-988.0,199.0,-403.0
-253.0,54.0,-89.0,17.0,189.0,-2.0,-988.0,194.0,-401.0
-252.0,53.0,-88.0,11.0,189.0,-6.0,-985.0,191.0,-409.0
-252.0,51.0,-95.0,5.0,190.0,-12.0,-984.0,188.0,-414.0
-245.0,50.0,-94.0,-2.0,190.0,-18.0,-981.0,190.0,-413.0
-245.0,48.0,-94.0,-7.0,187.0,-24.0,-967.0,188.0,-419.0
-244.0,43.0,-90.0,-8.0,177.0,-26.0,-969.0,172.0,-412.0
-245.0,38.0,-90.0,-6.0,164.0,-28.0,-966.0,160.0,-406.0
-245.0,37.0,-94.0,-1.0,147.0,-32.0,-956.0,144.0,-407.0
-244.0,34.0,-88.0,-1.0,125.0,-33.0,-952.0,131.0,-395.0
-240.0,31.0,-86.0,2.0,101.0,-35.0,-942.0,126.0,-387.0
-240.0,31.0,-85.0,5.0,80.0,-36.0,-938.0,122.0,-375.0
-240.0,31.0,-83.0,9.0,62.0,-33.0,-940.0,114.0,-364.0
-238.0,29.0,-84.0,11.0,47.0,-27.0,-939.0,116.0,-361.0
-239.0,30.0,-82.0,10.0,35.0,-22.0,-936.0,113.0,-363.0
-239.0,31.0,-74.0,10.0,29.0,-22.0,-935.0,112.0,-354.0
-243.0,26.0,-77.0,21.0,28.0,-20.0,-948.0,118.0,-348.0
-243.0,28.0,-77.0,31.0,32.0,-11.0,-949.0,109.0,-346.0
-237.0,26.0,-80.0,34.0,34.0,0.0,-939.0,115.0,-339.0
-244.0,32.0,-77.0,33.0,39.0,3.0,-951.0,110.0,-345.0
-239.0,28.0,-76.0,28.0,41.0,2.0,-944.0,114.0,-339.0
-240.0,28.0,-73.0,20.0,52.0,3.0,-951.0,115.0,-342.0
-242.0,30.0,-75.0,9.0,63.0,10.0,-951.0,107.0,-338.0
-241.0,24.0,-75.0,0.0,74.0,17.0,-948.0,94.0,-330.0
-241.0,21.0,-73.0,-5.0,89.0,23.0,-945.0,93.0,-337.0
-238.0,18.0,-77.0,-3.0,109.0,31.0,-943.0,83.0,-336.0
-242.0,18.0,-75.0,-2.0,127.0,44.0,-945.0,78.0,-327.0
-242.0,18.0,-71.0,4.0,142.0,55.0,-949.0,74.0,-325.0
-240.0,19.0,-69.0,14.0,154.0,67.0,-947.0,83.0,-313.0
-242.0,21.0,-69.0,28.0,167.0,78.0,-946.0,85.0,-319.0
-232.0,24.0,-71.0,31.0,178.0,89.0,-929.0,88.0,-316.0
-245.0,29.0,-67.0,32.0,186.0,89.0,-956.0,109.0,-320.0
-246.0,28.0,-74.0,32.0,196.0,97.0,-956.0,107.0,-314.0
-241.0,29.0,-72.0,32.0,204.0,104.0,-942.0,115.0,-315.0
-242.0,31.0,-71.0,33.0,221.0,109.0,-949.0,121.0,-317.0
-243.0,32.0,-71.0,30.0,240.0,113.0,-954.0,115.0,-315.0
-246.0,31.0,-71.0,24.0,252.0,110.0,-930.0,121.0,-327.0
-241.0,32.0,-75.0,3.0,265.0,90.0,-937.0,125.0,-342.0
-263.0,33.0,-73.0,-14.0,288.0,94.0,-1039.0,121.0,-319.0
-258.0,42.0,-74.0,-4.0,289.0,111.0,-1021.0,156.0,-340.0
-254.0,41.0,-79.0,0.0,280.0,107.0,-1003.0,154.0,-343.0
-254.0,42.0,-81.0,-7.0,276.0,100.0,-999.0,161.0,-359.0
-252.0,39.0,-82.0,-19.0,278.0,91.0,-993.0,155.0,-366.0
-251.0,39.0,-85.0,-29.0,282.0,83.0,-989.0,160.0,-378.0
-254.0,38.0,-87.0,-36.0,285.0,77.0,-982.0,150.0,-384.0
-248.0,41.0,-92.0,-42.0,282.0,70.0,-977.0,152.0,-398.0
-247.0,39.0,-85.0,-44.0,281.0,65.0,-972.0,151.0,-388.0
-244.0,40.0,-89.0,-45.0,274.0,60.0,-968.0,150.0,-405.0
-246.0,38.0,-89.0,-45.0,269.0,56.0,-966.0,160.0,-409.0
-248.0,42.0,-96.0,-50.0,259.0,53.0,-974.0,157.0,-415.0
-251.0,44.0,-95.0,-57.0,246.0,48.0,-976.0,171.0,-429.0
-246.0,47.0,-97.0,-67.0,235.0,39.0,-972.0,179.0,-430.0
-248.0,46.0,-96.0,-74.0,221.0,33.0,-969.0,179.0,-427.0
-246.0,47.0,-94.0,-78.0,209.0,27.0,-970.0,183.0,-427.0
-242.0,43.0,-96.0,-81.0,199.0,20.0,-964.0,179.0,-429.0
-245.0,48.0,-97.0,-86.0,191.0,15.0,-959.0,175.0,-438.0
-244.0,46.0,-98.0,-89.0,184.0,12.0,-950.0,181.0,-440.0
-240.0,46.0,-99.0,-91.0,179.0,10.0,-946.0,178.0,-438.0
-239.0,44.0,-102.0,-89.0,174.0,10.0,-944.0,171.0,-439.0
-239.0,41.0,-99.0,-86.0,167.0,10.0,-944.0,171.0,-437.0
-241.0,44.0,-97.0,-83.0,158.0,12.0,-945.0,170.0,-435.0
-240.0,45.0,-99.0,-83.0,149.0,11.0,-942.0,174.0,-433.0
-242.0,46.0,-99.0,-83.0,140.0,8.0,-945.0,176.0,-429.0
-241.0,43.0,-98.0,-85.0,129.0,8.0,-944.0,170.0,-426.0
-242.0,45.0,-96.0,-88.0,117.0,6.0,-950.0,177.0,-422.0
-241.0,43.0,-92.0,-90.0,106.0,4.0,-940.0,174.0,-423.0
-239.0,44.0,-90.0,-97.0,95.0,3.0,-937.0,175.0,-415.0
-238.0,41.0,-88.0,-105.0,86.0,5.0,-939.0,170.0,-404.0
-237.0,40.0,-91.0,-110.0,74.0,5.0,-937.0,166.0,-397.0
-237.0,42.0,-89.0,-114.0,61.0,2.0,-930.0,161.0,-387.0
-235.0,39.0,-87.0,-117.0,50.0,0.0,-933.0,149.0,-381.0
-235.0,41.0,-82.0,-122.0,37.0,-1.0,-927.0,152.0,-377.0
-234.0,39.0,-86.0,-126.0,25.0,-5.0,-919.0,146.0,-385.0
-235.0,36.0,-86.0,-124.0,21.0,-11.0,-922.0,135.0,-382.0
-238.0,35.0,-90.0,-118.0,23.0,-17.0,-944.0,148.0,-388.0
-237.0,35.0,-89.0,-112.0,29.0,-16.0,-938.0,147.0,-401.0
-241.0,35.0,-94.0,-105.0,42.0,-13.0,-956.0,145.0,-415.0
-241.0,35.0,-92.0,-95.0,62.0,-3.0,-951.0,143.0,-419.0
-244.0,34.0,-95.0,-84.0,79.0,4.0,-964.0,143.0,-417.0
-246.0,36.0,-88.0,-74.0,87.0,7.0,-968.0,139.0,-417.0
-248.0,27.0,-86.0,-65.0,88.0,9.0,-962.0,138.0,-412.0
-247.0,34.0,-91.0,-57.0,85.0,12.0,-968.0,138.0,-406.0
-245.0,33.0,-90.0,-48.0,77.0,13.0,-963.0,140.0,-410.0
-248.0,36.0,-90.0,-42.0,64.0,13.0,-970.0,134.0,-407.0
-247.0,33.0,-90.0,-36.0,53.0,13.0,-973.0,141.0,-399.0
-247.0,36.0,-87.0,-35.0,40.0,10.0,-974.0,141.0,-404.0
-250.0,41.0,-91.0,-35.0,28.0,7.0,-970.0,150.0,-404.0
-246.0,39.0,-92.0,-36.0,22.0,0.0,-977.0,147.0,-397.0
-250.0,38.0,-88.0,-33.0,21.0,-1.0,-968.0,147.0,-401.0
-248.0,37.0,-86.0,-33.0,21.0,-1.0,-974.0,147.0,-394.0
-248.0,38.0,-85.0,-31.0,22.0,-2.0,-972.0,141.0,-393.0
-249.0,38.0,-88.0,-30.0,22.0,-3.0,-971.0,150.0,-391.0
-245.0,39.0,-88.0,-29.0,19.0,-8.0,-971.0,146.0,-389.0
-240.0,36.0,-89.0,-31.0,18.0,-8.0,-963.0,148.0,-393.0
-245.0,38.0,-89.0,-32.0,20.0,-8.0,-961.0,150.0,-388.0
-243.0,38.0,-88.0,-34.0,24.0,-4.0,-951.0,140.0,-390.0
-245.0,41.0,-85.0,-37.0,25.0,-4.0,-954.0,144.0,-388.0
-242.0,38.0,-84.0,-38.0,25.0,-4.0,-948.0,143.0,-384.0
-241.0,38.0,-86.0,-38.0,26.0,-3.0,-947.0,144.0,-383.0
-243.0,37.0,-84.0,-39.0,28.0,-2.0,-950.0,146.0,-382.0
-240.0,37.0,-88.0,-38.0,27.0,0.0,-953.0,151.0,-386.0
-240.0,39.0,-87.0,-39.0,29.0,-1.0,-949.0,152.0,-388.0
-247.0,35.0,-83.0,-38.0,30.0,1.0,-950.0,157.0,-386.0
-242.0,41.0,-84.0,-37.0,30.0,2.0,-947.0,158.0,-385.0
-241.0,42.0,-88.0,-36.0,30.0,2.0,-948.0,159.0,-386.0
-241.0,42.0,-85.0,-36.0,30.0,3.0,-948.0,160.0,-388.0
-240.0,41.0,-86.0,-36.0,36.0,4.0,-944.0,168.0,-388.0
-242.0,41.0,-87.0,-36.0,39.0,5.0,-943.0,165.0,-388.0
-241.0,42.0,-89.0,-34.0,42.0,8.0,-950.0,165.0,-392.0
-242.0,40.0,-89.0,-34.0,45.0,8.0,-946.0,167.0,-393.0
-241.0,41.0,-84.0,-33.0,47.0,9.0,-947.0,157.0,-389.0
-242.0,43.0,-86.0,-33.0,46.0,9.0,-947.0,163.0,-388.0
-241.0,41.0,-88.0,-34.0,44.0,11.0,-945.0,164.0,-382.0
-240.0,40.0,-88.0,-35.0,45.0,11.0,-942.0,164.0,-382.0
-241.0,43.0,-84.0,-38.0,46.0,13.0,-942.0,161.0,-385.0
-239.0,40.0,-88.0,-39.0,47.0,12.0,-940.0,164.0,-386.0
-241.0,43.0,-85.0,-38.0,49.0,14.0,-944.0,154.0,-385.0
-241.0,43.0,-89.0,-41.0,49.0,12.0,-939.0,161.0,-386.0
-238.0,41.0,-86.0,-43.0,47.0,13.0,-943.0,160.0,-385.0
-239.0,42.0,-89.0,-44.0,47.0,10.0,-940.0,158.0,-385.0
-241.0,41.0,-84.0,-46.0,46.0,11.0,-946.0,159.0,-387.0
-239.0,39.0,-86.0,-48.0,48.0,13.0,-943.0,157.0,-383.0
-244.0,37.0,-85.0,-49.0,49.0,15.0,-952.0,158.0,-382.0
-241.0,41.0,-86.0,-47.0,50.0,15.0,-952.0,155.0,-382.0
-238.0,42.0,-86.0,-46.0,54.0,20.0,-949.0,153.0,-387.0
-245.0,38.0,-86.0,-46.0,57.0,21.0,-959.0,151.0,-386.0
-243.0,40.0,-85.0,-44.0,60.0,23.0,-972.0,157.0,-383.0
-244.0,37.0,-84.0,-42.0,63.0,25.0,-955.0,152.0,-383.0
-246.0,39.0,-86.0,-43.0,63.0,22.0,-961.0,155.0,-389.0
-244.0,40.0,-91.0,-48.0,63.0,22.0,-963.0,160.0,-386.0
-246.0,44.0,-90.0,-49.0,60.0,18.0,-969.0,164.0,-396.0
-246.0,41.0,-91.0,-52.0,55.0,15.0,-968.0,163.0,-400.0
-248.0,42.0,-86.0,-55.0,53.0,12.0,-981.0,164.0,-399.0
-248.0,41.0,-94.0,-56.0,51.0,10.0,-980.0,158.0,-402.0
-247.0,42.0,-94.0,-57.0,46.0,8.0,-979.0,167.0,-408.0
-247.0,42.0,-90.0,-55.0,44.0,6.0,-977.0,167.0,-403.0
-249.0,44.0,-85.0,-53.0,43.0,4.0,-979.0,163.0,-400.0
-249.0,42.0,-89.0,-48.0,42.0,3.0,-977.0,155.0,-399.0
-245.0,39.0,-87.0,-40.0,42.0,3.0,-971.0,163.0,-391.0
-243.0,40.0,-87.0,-33.0,41.0,1.0,-970.0,160.0,-390.0
-242.0,40.0,-87.0,-26.0,45.0,-1.0,-959.0,155.0,-390.0
-241.0,43.0,-88.0,-20.0,51.0,-4.0,-949.0,155.0,-384.0
-239.0,41.0,-87.0,-16.0,57.0,-6.0,-955.0,157.0,-386.0
-242.0,40.0,-86.0,-12.0,63.0,-6.0,-949.0,161.0,-385.0
-242.0,39.0,-85.0,-8.0,69.0,-7.0,-948.0,165.0,-382.0
-241.0,52.0,-86.0,-1.0,73.0,-9.0,-947.0,158.0,-374.0
-241.0,41.0,-84.0,1.0,73.0,-9.0,-951.0,158.0,-367.0
-241.0,41.0,-84.0,0.0,74.0,-6.0,-950.0,158.0,-369.0
-244.0,43.0,-83.0,-5.0,75.0,-3.0,-951.0,158.0,-372.0
-241.0,42.0,-83.0,-7.0,74.0,-1.0,-951.0,160.0,-372.0
-245.0,40.0,-86.0,-9.0,73.0,0.0,-955.0,170.0,-381.0
-243.0,41.0,-85.0,-13.0,74.0,1.0,-951.0,160.0,-378.0
-241.0,41.0,-84.0,-14.0,70.0,3.0,-955.0,159.0,-377.0
-239.0,41.0,-81.0,-16.0,67.0,2.0,-950.0,163.0,-381.0
-245.0,43.0,-86.0,-19.0,66.0,1.0,-951.0,169.0,-380.0
-243.0,45.0,-84.0,-20.0,66.0,2.0,-953.0,164.0,-387.0
-242.0,45.0,-87.0,-19.0,65.0,5.0,-958.0,170.0,-385.0
-244.0,43.0,-86.0,-19.0,66.0,5.0,-948.0,173.0,-384.0
-242.0,40.0,-87.0,-17.0,69.0,6.0,-952.0,172.0,-386.0
-238.0,46.0,-84.0,-14.0,71.0,8.0,-949.0,166.0,-383.0
-241.0,43.0,-85.0,-13.0,71.0,9.0,-942.0,164.0,-386.0
-240.0,43.0,-86.0,-12.0,71.0,9.0,-944.0,161.0,-383.0
-243.0,44.0,-87.0,-8.0,70.0,10.0,-946.0,161.0,-388.0
-241.0,42.0,-89.0,-7.0,70.0,12.0,-950.0,155.0,-384.0
-243.0,38.0,-86.0,-4.0,72.0,12.0,-952.0,154.0,-389.0
-247.0,42.0,-87.0,-1.0,72.0,11.0,-955.0,152.0,-386.0
-243.0,40.0,-87.0,2.0,70.0,10.0,-954.0,154.0,-393.0
-237.0,43.0,-89.0,8.0,67.0,10.0,-963.0,161.0,-390.0
-244.0,44.0,-86.0,11.0,64.0,10.0,-961.0,159.0,-389.0
-243.0,41.0,-87.0,12.0,60.0,10.0,-962.0,165.0,-386.0
-247.0,40.0,-87.0,18.0,57.0,7.0,-961.0,165.0,-385.0
-242.0,39.0,-85.0,22.0,54.0,6.0,-961.0,163.0,-392.0
-244.0,44.0,-87.0,25.0,52.0,6.0,-957.0,166.0,-399.0
-246.0,40.0,-88.0,24.0,48.0,4.0,-963.0,167.0,-395.0
-245.0,40.0,-93.0,24.0,46.0,3.0,-961.0,159.0,-390.0
-245.0,41.0,-87.0,28.0,42.0,4.0,-960.0,159.0,-391.0
-247.0,41.0,-84.0,36.0,30.0,0.0,-956.0,156.0,-384.0
-245.0,41.0,-87.0,47.0,15.0,-5.0,-960.0,158.0,-385.0
-245.0,43.0,-84.0,55.0,9.0,-7.0,-961.0,161.0,-382.0
-244.0,42.0,-90.0,54.0,5.0,-8.0,-961.0,160.0,-384.0
-244.0,41.0,-86.0,47.0,8.0,-7.0,-960.0,162.0,-380.0
-243.0,41.0,-91.0,41.0,14.0,-5.0,-959.0,157.0,-383.0
-244.0,41.0,-84.0,37.0,22.0,-3.0,-969.0,154.0,-387.0
-243.0,43.0,-88.0,37.0,28.0,-2.0,-963.0,168.0,-388.0
-244.0,44.0,-88.0,32.0,35.0,1.0,-963.0,167.0,-389.0
-245.0,42.0,-84.0,25.0,43.0,2.0,-964.0,171.0,-388.0
-244.0,42.0,-85.0,23.0,51.0,2.0,-962.0,173.0,-386.0
-243.0,43.0,-86.0,25.0,56.0,0.0,-952.0,171.0,-382.0
-243.0,43.0,-83.0,28.0,58.0,-1.0,-953.0,167.0,-379.0
-248.0,41.0,-83.0,24.0,61.0,-3.0,-946.0,164.0,-378.0
-242.0,43.0,-85.0,17.0,65.0,-4.0,-953.0,172.0,-377.0
-242.0,40.0,-84.0,7.0,64.0,-4.0,-950.0,162.0,-377.0
-239.0,41.0,-84.0,2.0,62.0,-4.0,-937.0,164.0,-377.0
-246.0,42.0,-86.0,-2.0,62.0,-8.0,-959.0,160.0,-380.0
-245.0,39.0,-82.0,-3.0,61.0,-3.0,-953.0,158.0,-372.0
-239.0,43.0,-87.0,4.0,57.0,0.0,-959.0,166.0,-379.0
-242.0,42.0,-85.0,8.0,53.0,2.0,-953.0,162.0,-373.0
-244.0,42.0,-82.0,6.0,49.0,2.0,-963.0,167.0,-372.0
-243.0,41.0,-84.0,6.0,41.0,2.0,-955.0,164.0,-373.0
-247.0,43.0,-85.0,5.0,36.0,0.0,-956.0,160.0,-376.0
-241.0,44.0,-85.0,3.0,36.0,0.0,-952.0,162.0,-371.0
-243.0,39.0,-82.0,-1.0,38.0,0.0,-958.0,158.0,-373.0
-243.0,45.0,-85.0,-5.0,42.0,-1.0,-959.0,169.0,-377.0
-244.0,43.0,-84.0,-8.0,50.0,-4.0,-955.0,168.0,-378.0
-244.0,42.0,-88.0,-13.0,58.0,-5.0,-957.0,168.0,-381.0
-240.0,43.0,-86.0,-15.0,64.0,-7.0,-958.0,170.0,-383.0
-242.0,44.0,-84.0,-15.0,68.0,-9.0,-958.0,171.0,-381.0
-246.0,42.0,-83.0,-14.0,70.0,-9.0,-961.0,166.0,-384.0
-244.0,43.0,-82.0,-14.0,72.0,-10.0,-955.0,167.0,-385.0
-243.0,45.0,-85.0,-15.0,72.0,-9.0,-958.0,166.0,-384.0
-246.0,43.0,-84.0,-16.0,73.0,-9.0,-959.0,164.0,-385.0
-240.0,45.0,-82.0,-17.0,73.0,-7.0,-955.0,170.0,-384.0
-239.0,40.0,-86.0,-19.0,73.0,-5.0,-958.0,167.0,-384.0
-242.0,42.0,-84.0,-19.0,69.0,-9.0,-958.0,165.0,-383.0
-244.0,42.0,-86.0,-20.0,68.0,-9.0,-954.0,165.0,-381.0
-244.0,45.0,-85.0,-22.0,69.0,-9.0,-960.0,161.0,-381.0
-244.0,41.0,-85.0,-24.0,71.0,-8.0,-954.0,161.0,-381.0
-245.0,40.0,-84.0,-26.0,74.0,-8.0,-953.0,155.0,-379.0
-245.0,39.0,-84.0,-26.0,78.0,-6.0,-950.0,151.0,-384.0
-245.0,42.0,-85.0,-26.0,78.0,-5.0,-955.0,150.0,-378.0
-241.0,42.0,-82.0,-23.0,75.0,-4.0,-949.0,154.0,-380.0
-244.0,43.0,-88.0,-22.0,75.0,-4.0,-954.0,152.0,-380.0
-243.0,41.0,-86.0,-21.0,71.0,-4.0,-957.0,156.0,-376.0
-242.0,40.0,-83.0,-22.0,68.0,-5.0,-954.0,161.0,-384.0
-243.0,43.0,-86.0,-23.0,63.0,-5.0,-955.0,160.0,-380.0
-244.0,42.0,-85.0,-24.0,61.0,-5.0,-954.0,158.0,-378.0
-244.0,41.0,-86.0,-27.0,57.0,-5.0,-955.0,163.0,-382.0
-242.0,40.0,-86.0,-28.0,54.0,-6.0,-952.0,160.0,-381.0
-248.0,43.0,-83.0,-29.0,51.0,-6.0,-953.0,160.0,-379.0
-242.0,41.0,-85.0,-30.0,48.0,-6.0,-954.0,156.0,-376.0
-243.0,38.0,-85.0,-26.0,48.0,-5.0,-959.0,157.0,-373.0
-242.0,40.0,-86.0,-24.0,47.0,-5.0,-955.0,152.0,-373.0
-240.0,44.0,-80.0,-21.0,46.0,-5.0,-953.0,160.0,-377.0
-241.0,43.0,-83.0,-21.0,47.0,-4.0,-955.0,160.0,-377.0
-243.0,42.0,-80.0,-22.0,51.0,-5.0,-956.0,157.0,-374.0
-243.0,40.0,-85.0,-22.0,57.0,-3.0,-956.0,159.0,-371.0
-242.0,40.0,-85.0,-25.0,65.0,-2.0,-958.0,158.0,-377.0
-247.0,44.0,-85.0,-26.0,72.0,-1.0,-960.0,160.0,-378.0
-244.0,43.0,-86.0,-28.0,79.0,-1.0,-960.0,161.0,-382.0
-246.0,44.0,-85.0,-31.0,84.0,-2.0,-954.0,170.0,-385.0
-243.0,42.0,-87.0,-33.0,87.0,-1.0,-962.0,165.0,-381.0
-242.0,39.0,-84.0,-34.0,88.0,-2.0,-957.0,162.0,-381.0
-243.0,40.0,-86.0,-35.0,89.0,-2.0,-958.0,159.0,-381.0
-243.0,39.0,-85.0,-37.0,90.0,-1.0,-959.0,155.0,-385.0
-241.0,40.0,-87.0,-39.0,89.0,0.0,-959.0,160.0,-382.0
-242.0,40.0,-85.0,-39.0,88.0,-2.0,-950.0,160.0,-386.0
-243.0,38.0,-86.0,-38.0,84.0,-1.0,-954.0,163.0,-378.0
-241.0,42.0,-82.0,-36.0,80.0,-3.0,-953.0,154.0,-376.0
-243.0,41.0,-85.0,-32.0,76.0,-3.0,-951.0,158.0,-376.0
-244.0,41.0,-84.0,-31.0,72.0,-3.0,-953.0,161.0,-378.0
-240.0,42.0,-84.0,-31.0,71.0,-1.0,-950.0,164.0,-380.0
-246.0,45.0,-85.0,-30.0,72.0,-1.0,-953.0,156.0,-380.0
-242.0,44.0,-88.0,-29.0,70.0,-2.0,-953.0,164.0,-381.0
-243.0,38.0,-84.0,-31.0,70.0,-3.0,-954.0,160.0,-383.0
-236.0,42.0,-86.0,-29.0,68.0,-3.0,-953.0,166.0,-381.0
-242.0,40.0,-87.0,-28.0,67.0,-4.0,-958.0,160.0,-381.0
-243.0,41.0,-86.0,-28.0,69.0,-6.0,-961.0,167.0,-381.0
-243.0,42.0,-88.0,-27.0,70.0,-7.0,-958.0,167.0,-381.0
-242.0,43.0,-87.0,-28.0,71.0,-6.0,-959.0,166.0,-387.0
-244.0,44.0,-86.0,-30.0,74.0,-5.0,-952.0,170.0,-378.0
-244.0,43.0,-84.0,-28.0,73.0,-6.0,-958.0,161.0,-383.0
-243.0,40.0,-87.0,-28.0,73.0,-7.0,-957.0,165.0,-380.0
-246.0,41.0,-85.0,-28.0,75.0,-6.0,-950.0,158.0,-384.0
-246.0,42.0,-84.0,-28.0,78.0,-3.0,-956.0,161.0,-385.0
-244.0,39.0,-84.0,-28.0,78.0,-2.0,-959.0,161.0,-380.0
-244.0,40.0,-87.0,-29.0,80.0,-2.0,-955.0,158.0,-381.0
-240.0,43.0,-86.0,-26.0,80.0,-1.0,-955.0,156.0,-383.0
-244.0,41.0,-86.0,-26.0,79.0,0.0,-959.0,158.0,-382.0
-241.0,40.0,-83.0,-24.0,75.0,0.0,-955.0,166.0,-382.0
-243.0,44.0,-84.0,-25.0,73.0,0.0,-957.0,161.0,-380.0
-241.0,41.0,-87.0,-26.0,71.0,2.0,-953.0,163.0,-384.0
-241.0,39.0,-87.0,-27.0,68.0,0.0,-958.0,165.0,-383.0
-245.0,44.0,-84.0,-28.0,67.0,0.0,-955.0,168.0,-381.0
-243.0,42.0,-83.0,-30.0,64.0,0.0,-954.0,159.0,-380.0
-246.0,41.0,-85.0,-30.0,65.0,-1.0,-960.0,157.0,-379.0
-244.0,41.0,-87.0,-31.0,63.0,-1.0,-958.0,166.0,-379.0
-245.0,36.0,-85.0,-33.0,64.0,-2.0,-959.0,165.0,-385.0
-241.0,43.0,-85.0,-36.0,65.0,-2.0,-960.0,162.0,-381.0
-244.0,43.0,-85.0,-37.0,65.0,-3.0,-957.0,161.0,-380.0
-241.0,41.0,-86.0,-37.0,68.0,0.0,-956.0,164.0,-379.0
-246.0,43.0,-86.0,-34.0,69.0,0.0,-959.0,158.0,-378.0
-245.0,41.0,-82.0,-31.0,69.0,-1.0,-955.0,164.0,-384.0
-245.0,44.0,-85.0,-32.0,69.0,-2.0,-955.0,170.0,-381.0
-243.0,42.0,-84.0,-32.0,72.0,-2.0,-953.0,169.0,-384.0
-244.0,46.0,-86.0,-30.0,70.0,-2.0,-956.0,169.0,-384.0
-245.0,42.0,-87.0,-28.0,69.0,-3.0,-961.0,164.0,-381.0
-241.0,38.0,-83.0,-25.0,66.0,-4.0,-955.0,158.0,-378.0
-241.0,43.0,-84.0,-22.0,65.0,-3.0,-958.0,162.0,-379.0
-242.0,41.0,-84.0,-22.0,64.0,-3.0,-955.0,163.0,-374.0
-244.0,45.0,-83.0,-23.0,63.0,-4.0,-957.0,165.0,-379.0
-243.0,43.0,-83.0,-27.0,61.0,-3.0,-957.0,169.0,-378.0
-244.0,43.0,-85.0,-30.0,59.0,-3.0,-961.0,162.0,-381.0
-244.0,41.0,-87.0,-32.0,58.0,-4.0,-954.0,170.0,-374.0
-246.0,45.0,-83.0,-36.0,58.0,-6.0,-956.0,161.0,-372.0
-244.0,42.0,-86.0,-38.0,58.0,-6.0,-958.0,164.0,-375.0
-243.0,44.0,-84.0,-40.0,59.0,-7.0,-960.0,167.0,-380.0
-244.0,46.0,-85.0,-42.0,59.0,-8.0,-957.0,167.0,-375.0
-241.0,44.0,-86.0,-42.0,60.0,-9.0,-961.0,158.0,-380.0
-248.0,39.0,-83.0,-44.0,60.0,-9.0,-958.0,167.0,-383.0
-243.0,39.0,-86.0,-44.0,63.0,-8.0,-957.0,164.0,-383.0
-244.0,42.0,-85.0,-42.0,64.0,-8.0,-957.0,165.0,-382.0
-245.0,41.0,-84.0,-40.0,66.0,-6.0,-955.0,167.0,-384.0
-241.0,43.0,-85.0,-41.0,67.0,-8.0,-956.0,164.0,-380.0
-245.0,42.0,-86.0,-40.0,69.0,-6.0,-959.0,164.0,-384.0
-241.0,40.0,-87.0,-40.0,70.0,-4.0,-954.0,162.0,-381.0
-244.0,41.0,-84.0,-40.0,71.0,-6.0,-949.0,158.0,-381.0
-241.0,41.0,-84.0,-39.0,70.0,-6.0,-953.0,163.0,-377.0
-242.0,43.0,-84.0,-38.0,69.0,-7.0,-952.0,159.0,-380.0
-242.0,41.0,-86.0,-37.0,69.0,-7.0,-954.0,161.0,-375.0
-244.0,42.0,-85.0,-37.0,71.0,-8.0,-955.0,161.0,-376.0
-243.0,40.0,-85.0,-37.0,72.0,-9.0,-954.0,161.0,-378.0
-243.0,45.0,-85.0,-38.0,73.0,-7.0,-957.0,165.0,-377.0
-244.0,40.0,-85.0,-39.0,71.0,-8.0,-962.0,162.0,-375.0
-243.0,43.0,-85.0,-40.0,71.0,-8.0,-950.0,163.0,-381.0
-244.0,44.0,-85.0,-38.0,71.0,-8.0,-958.0,163.0,-377.0
-241.0,41.0,-85.0,-39.0,72.0,-8.0,-957.0,166.0,-377.0
-245.0,44.0,-84.0,-41.0,72.0,-9.0,-955.0,162.0,-381.0
-243.0,39.0,-83.0,-42.0,74.0,-10.0,-958.0,169.0,-377.0
-246.0,43.0,-86.0,-43.0,76.0,-9.0,-955.0,163.0,-379.0
-244.0,45.0,-86.0,-43.0,78.0,-8.0,-956.0,162.0,-380.0
-247.0,43.0,-93.0,-42.0,77.0,-8.0,-962.0,170.0,-381.0
-243.0,42.0,-85.0,-42.0,79.0,-7.0,-952.0,165.0,-383.0
-244.0,43.0,-82.0,-41.0,79.0,-7.0,-956.0,161.0,-381.0
-241.0,42.0,-86.0,-39.0,79.0,-5.0,-956.0,158.0,-380.0
-243.0,42.0,-86.0,-38.0,80.0,-6.0,-956.0,167.0,-382.0
-244.0,42.0,-86.0,-36.0,81.0,-7.0,-956.0,167.0,-385.0
-244.0,44.0,-84.0,-36.0,79.0,-6.0,-959.0,171.0,-381.0
-245.0,42.0,-87.0,-34.0,79.0,-6.0,-954.0,167.0,-381.0
-243.0,42.0,-86.0,-33.0,78.0,-7.0,-953.0,171.0,-377.0
-241.0,41.0,-88.0,-31.0,78.0,-6.0,-954.0,166.0,-383.0
-243.0,42.0,-85.0,-31.0,74.0,-8.0,-953.0,168.0,-380.0
-240.0,44.0,-86.0,-30.0,73.0,-7.0,-953.0,168.0,-380.0
-244.0,44.0,-87.0,-29.0,72.0,-8.0,-953.0,165.0,-384.0
-243.0,42.0,-89.0,-28.0,71.0,-7.0,-959.0,164.0,-383.0
-244.0,37.0,-89.0,-26.0,67.0,-8.0,-953.0,165.0,-386.0
-246.0,44.0,-86.0,-21.0,65.0,-8.0,-952.0,162.0,-384.0
-243.0,42.0,-84.0,-18.0,67.0,-7.0,-956.0,168.0,-388.0
-244.0,44.0,-85.0,-17.0,67.0,-7.0,-953.0,167.0,-388.0
-244.0,43.0,-84.0,-18.0,70.0,-7.0,-956.0,173.0,-386.0
-243.0,42.0,-86.0,-20.0,70.0,-8.0,-955.0,174.0,-388.0
-244.0,43.0,-86.0,-21.0,69.0,-8.0,-959.0,167.0,-384.0
-243.0,49.0,-79.0,-20.0,69.0,-10.0,-959.0,167.0,-385.0
-242.0,41.0,-89.0,-17.0,70.0,-12.0,-962.0,164.0,-382.0
-244.0,42.0,-85.0,-15.0,70.0,-13.0,-964.0,166.0,-381.0
-243.0,41.0,-87.0,-14.0,72.0,-14.0,-963.0,167.0,-386.0
-242.0,42.0,-84.0,-15.0,73.0,-15.0,-963.0,160.0,-383.0
-247.0,39.0,-85.0,-13.0,74.0,-15.0,-954.0,156.0,-384.0
-241.0,37.0,-85.0,-10.0,78.0,-15.0,-956.0,161.0,-385.0
-242.0,42.0,-86.0,-9.0,80.0,-15.0,-955.0,164.0,-382.0
-243.0,41.0,-86.0,-10.0,80.0,-13.0,-953.0,164.0,-383.0
-241.0,46.0,-87.0,-13.0,78.0,-11.0,-951.0,164.0,-378.0
-243.0,37.0,-85.0,-19.0,76.0,-9.0,-951.0,163.0,-373.0
-241.0,40.0,-81.0,-23.0,74.0,-7.0,-954.0,158.0,-368.0
-241.0,38.0,-82.0,-26.0,72.0,-7.0,-947.0,155.0,-366.0
-241.0,39.0,-83.0,-28.0,68.0,-2.0,-949.0,155.0,-369.0
-243.0,41.0,-83.0,-29.0,70.0,-1.0,-951.0,153.0,-377.0
-244.0,39.0,-83.0,-32.0,70.0,1.0,-950.0,156.0,-378.0
-245.0,43.0,-84.0,-32.0,73.0,1.0,-952.0,157.0,-377.0
-242.0,44.0,-84.0,-32.0,75.0,1.0,-957.0,170.0,-378.0
-242.0,42.0,-84.0,-33.0,79.0,0.0,-953.0,170.0,-379.0
-243.0,42.0,-84.0,-36.0,84.0,1.0,-955.0,170.0,-382.0
-244.0,42.0,-84.0,-40.0,86.0,-1.0,-959.0,172.0,-380.0
-243.0,44.0,-85.0,-43.0,86.0,-2.0,-961.0,163.0,-384.0
-251.0,43.0,-88.0,-44.0,85.0,-3.0,-952.0,166.0,-385.0
-240.0,43.0,-89.0,-46.0,85.0,-2.0,-956.0,165.0,-382.0
-244.0,42.0,-84.0,-46.0,83.0,-3.0,-960.0,164.0,-381.0
-243.0,44.0,-86.0,-45.0,78.0,-1.0,-956.0,166.0,-386.0
-244.0,46.0,-85.0,-44.0,77.0,-3.0,-958.0,163.0,-384.0
-243.0,40.0,-87.0,-40.0,76.0,-1.0,-963.0,167.0,-384.0
-244.0,40.0,-85.0,-37.0,77.0,-1.0,-957.0,166.0,-381.0
-243.0,44.0,-86.0,-33.0,76.0,0.0,-957.0,165.0,-384.0
-244.0,42.0,-87.0,-28.0,74.0,-4.0,-955.0,171.0,-384.0
-245.0,42.0,-80.0,-23.0,72.0,-3.0,-954.0,171.0,-381.0
-241.0,43.0,-84.0,-21.0,69.0,-3.0,-956.0,170.0,-381.0
-245.0,43.0,-88.0,-22.0,68.0,-2.0,-957.0,167.0,-380.0
-243.0,43.0,-87.0,-22.0,67.0,-4.0,-957.0,173.0,-380.0
-243.0,45.0,-85.0,-23.0,68.0,-3.0,-961.0,170.0,-384.0
-245.0,43.0,-86.0,-26.0,68.0,-4.0,-959.0,170.0,-385.0
-244.0,43.0,-89.0,-27.0,68.0,-5.0,-957.0,171.0,-384.0
-242.0,45.0,-88.0,-28.0,65.0,-7.0,-964.0,175.0,-383.0
-244.0,46.0,-84.0,-35.0,62.0,-6.0,-967.0,171.0,-383.0
-241.0,44.0,-85.0,-37.0,61.0,-6.0,-954.0,166.0,-383.0
-241.0,43.0,-86.0,-35.0,60.0,-7.0,-957.0,167.0,-380.0
-243.0,41.0,-83.0,-40.0,59.0,-5.0,-948.0,162.0,-378.0
-239.0,40.0,-84.0,-38.0,60.0,-4.0,-954.0,160.0,-382.0
-242.0,44.0,-84.0,-35.0,62.0,-4.0,-954.0,162.0,-378.0
-244.0,44.0,-86.0,-33.0,62.0,-2.0,-953.0,170.0,-383.0
-243.0,42.0,-86.0,-38.0,63.0,-2.0,-958.0,167.0,-378.0
-243.0,41.0,-83.0,-35.0,67.0,0.0,-948.0,168.0,-377.0
-243.0,42.0,-85.0,-31.0,71.0,0.0,-953.0,167.0,-384.0
-244.0,42.0,-87.0,-31.0,71.0,0.0,-955.0,168.0,-379.0
-242.0,40.0,-85.0,-31.0,75.0,0.0,-958.0,162.0,-384.0
-242.0,44.0,-84.0,-31.0,75.0,-1.0,-951.0,165.0,-386.0
-244.0,44.0,-87.0,-31.0,74.0,0.0,-955.0,167.0,-387.0
-244.0,43.0,-90.0,-31.0,72.0,-2.0,-958.0,169.0,-385.0
-243.0,40.0,-89.0,-32.0,69.0,-2.0,-954.0,167.0,-384.0
-239.0,42.0,-86.0,-31.0,65.0,-3.0,-958.0,172.0,-383.0
-244.0,43.0,-87.0,-31.0,63.0,-3.0,-955.0,169.0,-380.0
-248.0,47.0,-86.0,-33.0,62.0,-2.0,-966.0,172.0,-386.0
-245.0,42.0,-85.0,-38.0,59.0,-1.0,-968.0,165.0,-374.0
-245.0,40.0,-90.0,-33.0,60.0,-1.0,-955.0,162.0,-386.0
-245.0,41.0,-86.0,-26.0,61.0,-1.0,-957.0,162.0,-390.0
-243.0,43.0,-88.0,-19.0,63.0,-3.0,-954.0,163.0,-388.0
-241.0,41.0,-88.0,-12.0,63.0,-3.0,-957.0,158.0,-387.0
-244.0,42.0,-87.0,-8.0,65.0,-1.0,-955.0,167.0,-386.0
-241.0,42.0,-86.0,-2.0,66.0,0.0,-952.0,162.0,-385.0
-243.0,41.0,-83.0,1.0,66.0,0.0,-960.0,169.0,-383.0
-244.0,46.0,-87.0,3.0,67.0,-1.0,-956.0,163.0,-381.0
-244.0,44.0,-84.0,2.0,67.0,-1.0,-958.0,167.0,-381.0
-243.0,44.0,-85.0,1.0,66.0,0.0,-959.0,167.0,-381.0
-243.0,43.0,-84.0,2.0,65.0,0.0,-958.0,172.0,-375.0
-240.0,41.0,-86.0,3.0,66.0,1.0,-957.0,160.0,-383.0
-244.0,41.0,-87.0,1.0,67.0,2.0,-958.0,167.0,-384.0
-243.0,42.0,-86.0,0.0,69.0,1.0,-958.0,171.0,-384.0
-243.0,41.0,-87.0,0.0,68.0,1.0,-960.0,168.0,-380.0
-243.0,43.0,-85.0,-1.0,67.0,2.0,-958.0,169.0,-380.0
-242.0,45.0,-82.0,-2.0,68.0,1.0,-956.0,170.0,-379.0
-242.0,43.0,-85.0,-2.0,68.0,2.0,-956.0,167.0,-378.0
-244.0,42.0,-84.0,-3.0,67.0,2.0,-953.0,168.0,-375.0
-241.0,46.0,-84.0,-2.0,67.0,3.0,-951.0,163.0,-377.0
-241.0,39.0,-85.0,-1.0,67.0,3.0,-958.0,165.0,-374.0
-244.0,44.0,-82.0,1.0,67.0,5.0,-952.0,170.0,-379.0
-244.0,43.0,-85.0,1.0,68.0,3.0,-950.0,166.0,-377.0
-244.0,41.0,-86.0,4.0,68.0,3.0,-953.0,161.0,-373.0
-242.0,41.0,-84.0,4.0,70.0,3.0,-955.0,167.0,-375.0
-244.0,40.0,-81.0,6.0,71.0,3.0,-956.0,166.0,-379.0
-243.0,43.0,-84.0,6.0,73.0,4.0,-955.0,168.0,-381.0
-243.0,41.0,-84.0,5.0,74.0,2.0,-955.0,167.0,-378.0
-241.0,41.0,-84.0,4.0,75.0,3.0,-957.0,161.0,-380.0
-236.0,55.0,-92.0,5.0,78.0,4.0,-956.0,166.0,-380.0
-246.0,42.0,-84.0,5.0,79.0,3.0,-956.0,163.0,-382.0
-243.0,42.0,-87.0,5.0,76.0,3.0,-960.0,170.0,-383.0
-246.0,41.0,-88.0,4.0,75.0,3.0,-955.0,174.0,-383.0
-244.0,42.0,-85.0,5.0,75.0,1.0,-962.0,171.0,-380.0
-244.0,43.0,-89.0,5.0,72.0,2.0,-959.0,171.0,-386.0
-246.0,44.0,-86.0,7.0,72.0,2.0,-959.0,171.0,-388.0
-243.0,45.0,-89.0,9.0,71.0,2.0,-958.0,170.0,-384.0
-242.0,45.0,-85.0,11.0,70.0,3.0,-962.0,166.0,-382.0
-242.0,44.0,-85.0,12.0,69.0,3.0,-962.0,167.0,-380.0
-243.0,46.0,-89.0,13.0,70.0,3.0,-960.0,171.0,-381.0
-243.0,42.0,-86.0,13.0,72.0,4.0,-954.0,168.0,-385.0
-241.0,45.0,-84.0,13.0,73.0,4.0,-957.0,170.0,-384.0
-242.0,44.0,-85.0,12.0,72.0,4.0,-951.0,167.0,-380.0
-239.0,41.0,-88.0,13.0,73.0,3.0,-953.0,168.0,-384.0
-244.0,44.0,-85.0,11.0,74.0,2.0,-954.0,166.0,-379.0
-243.0,44.0,-85.0,9.0,77.0,2.0,-955.0,166.0,-379.0
-243.0,44.0,-87.0,8.0,77.0,-1.0,-955.0,164.0,-381.0
-241.0,45.0,-84.0,7.0,77.0,-2.0,-955.0,165.0,-383.0
-244.0,44.0,-86.0,7.0,75.0,-2.0,-955.0,165.0,-384.0
-242.0,43.0,-85.0,7.0,72.0,-4.0,-951.0,168.0,-378.0
-244.0,43.0,-86.0,6.0,72.0,-4.0,-953.0,165.0,-379.0
-243.0,43.0,-94.0,6.0,70.0,-3.0,-957.0,167.0,-379.0
-236.0,40.0,-71.0,6.0,69.0,-3.0,-951.0,164.0,-383.0
-241.0,44.0,-104.0,6.0,69.0,-3.0,-962.0,168.0,-381.0
-243.0,43.0,-82.0,4.0,71.0,-1.0,-955.0,171.0,-385.0
-249.0,43.0,-88.0,4.0,73.0,-1.0,-958.0,170.0,-386.0
-241.0,53.0,-85.0,2.0,71.0,0.0,-955.0,169.0,-390.0
-249.0,44.0,-86.0,0.0,72.0,1.0,-953.0,168.0,-382.0
-241.0,44.0,-80.0,-2.0,69.0,4.0,-954.0,164.0,-385.0
-248.0,46.0,-82.0,-2.0,65.0,2.0,-956.0,162.0,-376.0
-247.0,41.0,-67.0,-1.0,62.0,1.0,-958.0,165.0,-377.0
-244.0,41.0,-85.0,1.0,60.0,-1.0,-961.0,165.0,-382.0
-243.0,47.0,-88.0,4.0,58.0,-1.0,-955.0,161.0,-386.0
-243.0,41.0,-85.0,5.0,56.0,-1.0,-956.0,161.0,-380.0
-243.0,42.0,-85.0,8.0,56.0,-2.0,-957.0,164.0,-381.0
-237.0,41.0,-81.0,10.0,57.0,-1.0,-956.0,169.0,-385.0
-242.0,30.0,-73.0,9.0,56.0,-1.0,-952.0,169.0,-383.0
-246.0,35.0,-98.0,9.0,59.0,0.0,-956.0,171.0,-380.0
-248.0,44.0,-98.0,9.0,59.0,1.0,-954.0,165.0,-386.0
-247.0,43.0,-76.0,9.0,59.0,0.0,-954.0,163.0,-385.0
-243.0,43.0,-86.0,10.0,58.0,0.0,-956.0,169.0,-376.0
-243.0,47.0,-83.0,11.0,56.0,-1.0,-956.0,165.0,-382.0
-236.0,44.0,-79.0,10.0,55.0,-3.0,-957.0,163.0,-382.0
-250.0,36.0,-87.0,8.0,54.0,-2.0,-958.0,166.0,-381.0
-245.0,43.0,-78.0,9.0,53.0,-3.0,-955.0,171.0,-380.0
-247.0,63.0,-87.0,11.0,54.0,-4.0,-954.0,170.0,-381.0
-243.0,40.0,-88.0,12.0,53.0,-4.0,-953.0,165.0,-387.0
-243.0,40.0,-84.0,13.0,53.0,-5.0,-951.0,168.0,-381.0
-245.0,44.0,-84.0,16.0,53.0,-5.0,-953.0,164.0,-380.0
-242.0,42.0,-87.0,16.0,54.0,-6.0,-955.0,168.0,-380.0
-243.0,49.0,-89.0,16.0,56.0,-5.0,-956.0,166.0,-385.0
-250.0,39.0,-76.0,15.0,53.0,-4.0,-953.0,169.0,-386.0
-237.0,43.0,-87.0,12.0,54.0,-3.0,-954.0,167.0,-379.0
-233.0,38.0,-91.0,9.0,56.0,-2.0,-958.0,164.0,-383.0
-244.0,28.0,-79.0,6.0,53.0,-4.0,-957.0,163.0,-381.0
-245.0,62.0,-90.0,6.0,51.0,-2.0,-958.0,168.0,-376.0
-248.0,40.0,-105.0,5.0,50.0,-1.0,-953.0,164.0,-377.0
-238.0,37.0,-94.0,7.0,50.0,-2.0,-951.0,158.0,-372.0
-245.0,37.0,-72.0,7.0,52.0,-1.0,-954.0,161.0,-380.0
-244.0,54.0,-103.0,6.0,56.0,-1.0,-955.0,167.0,-384.0
-236.0,43.0,-84.0,4.0,58.0,0.0,-957.0,167.0,-380.0
-246.0,46.0,-85.0,2.0,59.0,-1.0,-961.0,171.0,-381.0
-243.0,43.0,-87.0,0.0,58.0,-4.0,-961.0,171.0,-383.0
-247.0,45.0,-86.0,3.0,59.0,-4.0,-959.0,171.0,-385.0
-243.0,43.0,-82.0,4.0,58.0,-3.0,-956.0,171.0,-382.0
-237.0,40.0,-96.0,4.0,59.0,-5.0,-956.0,163.0,-381.0
-245.0,44.0,-84.0,6.0,60.0,-5.0,-957.0,165.0,-381.0
-251.0,35.0,-78.0,6.0,60.0,-5.0,-956.0,159.0,-387.0
-241.0,41.0,-87.0,10.0,60.0,-5.0,-955.0,162.0,-383.0
-237.0,45.0,-84.0,15.0,58.0,-6.0,-963.0,164.0,-383.0
-240.0,41.0,-80.0,19.0,58.0,-5.0,-952.0,159.0,-379.0
-244.0,39.0,-86.0,25.0,56.0,-6.0,-952.0,156.0,-383.0
-242.0,44.0,-81.0,28.0,57.0,-6.0,-958.0,160.0,-375.0
-242.0,38.0,-85.0,30.0,58.0,-6.0,-954.0,166.0,-382.0
-241.0,36.0,-84.0,27.0,61.0,-5.0,-958.0,165.0,-383.0
-247.0,37.0,-86.0,23.0,61.0,-5.0,-955.0,162.0,-378.0
-244.0,54.0,-87.0,20.0,60.0,-4.0,-955.0,163.0,-377.0
-239.0,42.0,-83.0,18.0,59.0,-3.0,-955.0,159.0,-369.0
-246.0,41.0,-84.0,15.0,57.0,-2.0,-962.0,152.0,-371.0
-242.0,40.0,-83.0,13.0,57.0,-3.0,-956.0,157.0,-379.0
-241.0,42.0,-85.0,12.0,60.0,0.0,-956.0,159.0,-382.0
-238.0,32.0,-83.0,14.0,64.0,1.0,-963.0,162.0,-380.0
-240.0,21.0,-76.0,15.0,64.0,1.0,-957.0,168.0,-382.0
-233.0,43.0,-81.0,15.0,66.0,3.0,-951.0,167.0,-383.0
-235.0,31.0,-63.0,13.0,65.0,2.0,-954.0,166.0,-380.0
-221.0,36.0,-78.0,11.0,67.0,1.0,-949.0,168.0,-379.0
-244.0,41.0,-82.0,8.0,69.0,1.0,-954.0,162.0,-380.0
-245.0,49.0,-84.0,2.0,70.0,2.0,-959.0,169.0,-387.0
-242.0,37.0,-90.0,-6.0,70.0,3.0,-953.0,169.0,-383.0
-247.0,49.0,-79.0,-11.0,70.0,2.0,-954.0,169.0,-379.0
-247.0,42.0,-84.0,-12.0,67.0,1.0,-957.0,166.0,-383.0
-239.0,41.0,-88.0,-8.0,63.0,-1.0,-957.0,161.0,-381.0
-245.0,41.0,-88.0,-4.0,58.0,0.0,-955.0,163.0,-378.0
-244.0,40.0,-87.0,1.0,56.0,-1.0,-957.0,165.0,-380.0
-245.0,45.0,-84.0,4.0,54.0,-1.0,-956.0,167.0,-383.0
-248.0,40.0,-85.0,4.0,51.0,-2.0,-965.0,171.0,-384.0
-241.0,43.0,-84.0,6.0,50.0,-1.0,-959.0,170.0,-383.0
-244.0,48.0,-88.0,9.0,47.0,-3.0,-962.0,162.0,-380.0
-239.0,37.0,-77.0,11.0,45.0,-3.0,-960.0,167.0,-378.0
-240.0,45.0,-88.0,13.0,43.0,-3.0,-959.0,169.0,-376.0
-251.0,45.0,-80.0,17.0,43.0,-6.0,-954.0,165.0,-378.0
-242.0,44.0,-81.0,16.0,46.0,-4.0,-961.0,166.0,-380.0
-246.0,39.0,-81.0,14.0,46.0,-6.0,-957.0,168.0,-385.0
-245.0,40.0,-90.0,12.0,48.0,-8.0,-957.0,171.0,-381.0
-244.0,44.0,-82.0,11.0,51.0,-9.0,-958.0,161.0,-377.0
-243.0,41.0,-90.0,12.0,52.0,-7.0,-958.0,160.0,-380.0
-247.0,39.0,-85.0,15.0,54.0,-9.0,-962.0,171.0,-375.0
-245.0,42.0,-85.0,16.0,55.0,-9.0,-954.0,168.0,-379.0
-243.0,40.0,-85.0,15.0,57.0,-9.0,-959.0,167.0,-378.0
-243.0,41.0,-85.0,16.0,58.0,-8.0,-954.0,164.0,-383.0
-249.0,42.0,-92.0,16.0,59.0,-10.0,-960.0,163.0,-380.0
-242.0,41.0,-90.0,15.0,59.0,-10.0,-952.0,170.0,-377.0
-233.0,54.0,-101.0,13.0,57.0,-11.0,-953.0,163.0,-375.0
-241.0,38.0,-81.0,7.0,56.0,-9.0,-953.0,160.0,-376.0
-247.0,40.0,-85.0,5.0,55.0,-8.0,-954.0,153.0,-375.0
-247.0,31.0,-92.0,4.0,58.0,-10.0,-955.0,158.0,-376.0
-242.0,41.0,-83.0,2.0,58.0,-9.0,-954.0,157.0,-376.0
-244.0,42.0,-82.0,2.0,58.0,-8.0,-956.0,160.0,-380.0
-244.0,42.0,-82.0,-3.0,59.0,-5.0,-956.0,161.0,-378.0
-242.0,41.0,-86.0,-5.0,58.0,-5.0,-954.0,161.0,-377.0
-240.0,39.0,-85.0,-7.0,58.0,-6.0,-956.0,164.0,-380.0
-243.0,43.0,-88.0,-9.0,57.0,-3.0,-955.0,168.0,-376.0
-244.0,41.0,-87.0,-13.0,54.0,-4.0,-952.0,165.0,-380.0
-245.0,41.0,-84.0,-18.0,54.0,-4.0,-957.0,162.0,-378.0
-244.0,40.0,-87.0,-22.0,52.0,-3.0,-954.0,161.0,-380.0
-240.0,34.0,-68.0,-21.0,48.0,-4.0,-955.0,156.0,-380.0
-243.0,40.0,-86.0,-22.0,44.0,-5.0,-952.0,161.0,-378.0
-244.0,38.0,-84.0,-20.0,38.0,-5.0,-962.0,153.0,-376.0
-244.0,42.0,-85.0,-16.0,35.0,-8.0,-959.0,156.0,-376.0
-245.0,38.0,-84.0,-14.0,35.0,-8.0,-955.0,159.0,-375.0
-243.0,45.0,-83.0,-13.0,36.0,-7.0,-956.0,156.0,-376.0
-244.0,42.0,-87.0,-11.0,40.0,-6.0,-954.0,158.0,-380.0
-247.0,41.0,-84.0,-9.0,43.0,-5.0,-960.0,159.0,-382.0
-246.0,42.0,-85.0,-7.0,44.0,-5.0,-954.0,165.0,-379.0
-243.0,40.0,-84.0,-4.0,46.0,-5.0,-959.0,158.0,-379.0
-242.0,42.0,-85.0,-4.0,50.0,-3.0,-953.0,161.0,-368.0
-242.0,39.0,-85.0,-6.0,53.0,-2.0,-956.0,165.0,-378.0
-245.0,42.0,-83.0,-9.0,54.0,-2.0,-955.0,158.0,-371.0
-243.0,41.0,-84.0,-11.0,57.0,-3.0,-951.0,158.0,-374.0
-243.0,41.0,-82.0,-12.0,61.0,-2.0,-956.0,157.0,-371.0
-243.0,45.0,-85.0,-14.0,63.0,0.0,-951.0,160.0,-369.0
-243.0,39.0,-85.0,-14.0,62.0,1.0,-956.0,158.0,-373.0
-246.0,43.0,-79.0,-15.0,64.0,2.0,-955.0,160.0,-364.0
-243.0,42.0,-85.0,-16.0,64.0,4.0,-958.0,162.0,-369.0
-244.0,41.0,-86.0,-16.0,65.0,3.0,-962.0,161.0,-370.0
-244.0,40.0,-81.0,-17.0,65.0,3.0,-959.0,164.0,-374.0
-246.0,44.0,-86.0,-18.0,65.0,3.0,-957.0,161.0,-373.0
-242.0,39.0,-82.0,-18.0,64.0,2.0,-954.0,161.0,-371.0
-244.0,43.0,-84.0,-15.0,62.0,3.0,-956.0,158.0,-369.0
-244.0,40.0,-84.0,-16.0,62.0,2.0,-955.0,166.0,-371.0
-245.0,40.0,-84.0,-17.0,63.0,2.0,-962.0,165.0,-374.0
