acc1_x,acc1_y,acc1_z,gyro_x,gyro_y,gyro_z,acc2_x,acc2_y,acc2_z
-1.0,-146.0,-206.0,-191.0,-8.0,16.0,19.0,-590.0,-858.0
-3.0,-144.0,-213.0,-189.0,-9.0,24.0,16.0,-594.0,-854.0
-3.0,-147.0,-212.0,-190.0,-8.0,29.0,5.0,-591.0,-845.0
-4.0,-147.0,-205.0,-187.0,-6.0,36.0,3.0,-593.0,-854.0
-4.0,-147.0,-209.0,-189.0,-1.0,40.0,-10.0,-598.0,-842.0
-7.0,-151.0,-209.0,-183.0,2.0,44.0,-14.0,-600.0,-845.0
-7.0,-143.0,-209.0,-172.0,3.0,48.0,-17.0,-602.0,-849.0
-8.0,-150.0,-204.0,-167.0,10.0,51.0,-29.0,-604.0,-842.0
-11.0,-147.0,-205.0,-166.0,17.0,53.0,-31.0,-605.0,-839.0
-12.0,-150.0,-207.0,-161.0,23.0,56.0,-37.0,-606.0,-845.0
-16.0,-153.0,-198.0,-153.0,25.0,56.0,-44.0,-614.0,-838.0
-11.0,-151.0,-204.0,-143.0,26.0,57.0,-54.0,-612.0,-840.0
-21.0,-151.0,-208.0,-132.0,25.0,53.0,-65.0,-618.0,-849.0
-23.0,-151.0,-204.0,-119.0,23.0,48.0,-69.0,-611.0,-846.0
-26.0,-148.0,-207.0,-105.0,21.0,43.0,-81.0,-606.0,-846.0
-26.0,-160.0,-210.0,-90.0,15.0,38.0,-79.0,-607.0,-852.0
-31.0,-152.0,-211.0,-73.0,8.0,32.0,-95.0,-607.0,-854.0
-27.0,-149.0,-208.0,-56.0,1.0,26.0,-91.0,-606.0,-858.0
-32.0,-146.0,-210.0,-39.0,-9.0,17.0,-100.0,-599.0,-863.0
-28.0,-148.0,-211.0,-22.0,-19.0,5.0,-108.0,-595.0,-866.0
-30.0,-148.0,-210.0,-5.0,-31.0,-5.0,-105.0,-592.0,-868.0
-30.0,-145.0,-212.0,12.0,-44.0,-16.0,-102.0,-589.0,-872.0
-35.0,-142.0,-211.0,25.0,-56.0,-27.0,-114.0,-592.0,-875.0
-31.0,-144.0,-211.0,38.0,-69.0,-39.0,-111.0,-587.0,-885.0
-34.0,-142.0,-216.0,50.0,-81.0,-51.0,-120.0,-585.0,-881.0
-32.0,-142.0,-213.0,61.0,-94.0,-64.0,-113.0,-585.0,-876.0
-37.0,-149.0,-211.0,71.0,-104.0,-77.0,-115.0,-588.0,-882.0
-34.0,-146.0,-214.0,79.0,-117.0,-88.0,-113.0,-589.0,-887.0
-32.0,-141.0,-219.0,90.0,-127.0,-102.0,-111.0,-586.0,-886.0
-26.0,-145.0,-218.0,101.0,-138.0,-112.0,-98.0,-592.0,-883.0
-30.0,-145.0,-213.0,109.0,-145.0,-124.0,-95.0,-580.0,-885.0
-25.0,-143.0,-217.0,116.0,-152.0,-134.0,-87.0,-585.0,-894.0
-24.0,-146.0,-216.0,120.0,-160.0,-148.0,-84.0,-586.0,-888.0
-23.0,-145.0,-214.0,127.0,-166.0,-159.0,-77.0,-584.0,-890.0
-24.0,-141.0,-214.0,134.0,-173.0,-169.0,-77.0,-582.0,-884.0
-21.0,-145.0,-213.0,141.0,-177.0,-181.0,-72.0,-582.0,-876.0
-20.0,-140.0,-212.0,151.0,-183.0,-191.0,-61.0,-582.0,-878.0
-17.0,-143.0,-212.0,156.0,-184.0,-199.0,-62.0,-578.0,-878.0
-16.0,-143.0,-215.0,159.0,-188.0,-207.0,-57.0,-577.0,-875.0
-16.0,-141.0,-217.0,164.0,-193.0,-214.0,-52.0,-572.0,-878.0
-18.0,-138.0,-209.0,164.0,-196.0,-222.0,-48.0,-574.0,-875.0
-17.0,-141.0,-214.0,163.0,-200.0,-228.0,-48.0,-569.0,-873.0
-14.0,-143.0,-210.0,158.0,-202.0,-235.0,-42.0,-570.0,-867.0
-15.0,-138.0,-214.0,153.0,-207.0,-242.0,-44.0,-568.0,-874.0
-14.0,-142.0,-211.0,145.0,-210.0,-246.0,-42.0,-567.0,-869.0
-18.0,-139.0,-212.0,139.0,-215.0,-252.0,-40.0,-567.0,-870.0
-11.0,-140.0,-213.0,134.0,-217.0,-258.0,-42.0,-573.0,-873.0
-12.0,-140.0,-215.0,134.0,-222.0,-263.0,-37.0,-574.0,-872.0
-17.0,-141.0,-215.0,135.0,-225.0,-267.0,-37.0,-578.0,-871.0
-13.0,-143.0,-210.0,137.0,-228.0,-273.0,-38.0,-579.0,-868.0
-14.0,-142.0,-213.0,143.0,-233.0,-278.0,-38.0,-579.0,-876.0
-14.0,-143.0,-215.0,147.0,-233.0,-282.0,-38.0,-582.0,-875.0
-14.0,-142.0,-211.0,156.0,-236.0,-283.0,-36.0,-577.0,-873.0
-14.0,-142.0,-211.0,170.0,-238.0,-288.0,-37.0,-583.0,-874.0
-12.0,-145.0,-216.0,182.0,-238.0,-289.0,-36.0,-586.0,-871.0
-10.0,-145.0,-217.0,193.0,-239.0,-290.0,-33.0,-590.0,-870.0
-12.0,-145.0,-208.0,204.0,-240.0,-290.0,-34.0,-588.0,-870.0
-9.0,-141.0,-214.0,211.0,-241.0,-291.0,-33.0,-588.0,-866.0
-13.0,-144.0,-207.0,218.0,-241.0,-290.0,-31.0,-590.0,-869.0
-11.0,-145.0,-212.0,221.0,-239.0,-291.0,-22.0,-596.0,-867.0
-7.0,-146.0,-211.0,226.0,-239.0,-291.0,-22.0,-590.0,-867.0
-9.0,-145.0,-209.0,227.0,-237.0,-292.0,-19.0,-593.0,-860.0
-9.0,-148.0,-211.0,235.0,-234.0,-291.0,-17.0,-599.0,-866.0
-10.0,-147.0,-212.0,240.0,-231.0,-289.0,-14.0,-601.0,-863.0
-7.0,-151.0,-207.0,244.0,-226.0,-289.0,-10.0,-606.0,-862.0
-4.0,-147.0,-213.0,251.0,-224.0,-289.0,-9.0,-599.0,-864.0
-4.0,-151.0,-212.0,257.0,-219.0,-287.0,-4.0,-607.0,-857.0
-9.0,-152.0,-212.0,261.0,-213.0,-283.0,0.0,-609.0,-854.0
-4.0,-153.0,-208.0,269.0,-214.0,-283.0,3.0,-611.0,-854.0
-5.0,-148.0,-209.0,275.0,-210.0,-281.0,-2.0,-615.0,-855.0
-4.0,-152.0,-208.0,283.0,-207.0,-278.0,4.0,-615.0,-854.0
-2.0,-150.0,-210.0,290.0,-204.0,-272.0,7.0,-616.0,-853.0
-2.0,-152.0,-210.0,297.0,-200.0,-267.0,4.0,-608.0,-852.0
-3.0,-151.0,-210.0,302.0,-194.0,-261.0,0.0,-620.0,-861.0
-2.0,-152.0,-210.0,302.0,-189.0,-254.0,0.0,-611.0,-845.0
-3.0,-151.0,-207.0,301.0,-182.0,-247.0,6.0,-614.0,-847.0
-4.0,-152.0,-203.0,296.0,-174.0,-240.0,0.0,-620.0,-845.0
-3.0,-150.0,-206.0,289.0,-165.0,-233.0,5.0,-618.0,-834.0
-5.0,-154.0,-204.0,289.0,-161.0,-225.0,3.0,-624.0,-843.0
-3.0,-153.0,-207.0,299.0,-159.0,-219.0,4.0,-629.0,-841.0
-5.0,-151.0,-200.0,309.0,-155.0,-208.0,-2.0,-627.0,-835.0
-7.0,-156.0,-203.0,317.0,-151.0,-200.0,-2.0,-632.0,-835.0
-4.0,-156.0,-201.0,319.0,-143.0,-193.0,-5.0,-633.0,-828.0
-4.0,-154.0,-202.0,326.0,-140.0,-185.0,-4.0,-633.0,-828.0
-4.0,-154.0,-203.0,335.0,-135.0,-177.0,-1.0,-633.0,-827.0
-4.0,-155.0,-201.0,346.0,-131.0,-167.0,3.0,-630.0,-828.0
-3.0,-158.0,-201.0,350.0,-125.0,-161.0,-3.0,-627.0,-817.0
-4.0,-154.0,-200.0,355.0,-122.0,-153.0,-4.0,-629.0,-812.0
-3.0,-159.0,-199.0,358.0,-117.0,-145.0,-4.0,-628.0,-813.0
-5.0,-154.0,-199.0,363.0,-113.0,-138.0,-6.0,-629.0,-814.0
-4.0,-155.0,-200.0,362.0,-105.0,-128.0,-8.0,-629.0,-811.0
-5.0,-154.0,-199.0,358.0,-100.0,-120.0,-9.0,-626.0,-807.0
-3.0,-152.0,-196.0,356.0,-95.0,-110.0,-13.0,-628.0,-811.0
-4.0,-154.0,-201.0,356.0,-92.0,-101.0,-11.0,-624.0,-810.0
-6.0,-155.0,-201.0,357.0,-88.0,-91.0,-12.0,-624.0,-806.0
-9.0,-153.0,-199.0,356.0,-83.0,-83.0,-15.0,-635.0,-808.0
-7.0,-156.0,-196.0,357.0,-78.0,-78.0,-19.0,-630.0,-808.0
-7.0,-155.0,-198.0,359.0,-72.0,-73.0,-19.0,-631.0,-804.0
-7.0,-155.0,-200.0,366.0,-69.0,-70.0,-16.0,-637.0,-805.0
-7.0,-159.0,-201.0,376.0,-64.0,-70.0,-17.0,-638.0,-811.0
-6.0,-156.0,-201.0,381.0,-61.0,-69.0,-19.0,-635.0,-810.0
-12.0,-154.0,-202.0,388.0,-58.0,-70.0,-15.0,-638.0,-818.0
-8.0,-160.0,-198.0,393.0,-52.0,-69.0,-26.0,-641.0,-817.0
-4.0,-162.0,-205.0,405.0,-56.0,-72.0,-21.0,-640.0,-816.0
-12.0,-160.0,-202.0,417.0,-56.0,-71.0,-25.0,-650.0,-822.0
-11.0,-161.0,-201.0,431.0,-58.0,-71.0,-25.0,-650.0,-821.0
-9.0,-162.0,-202.0,443.0,-62.0,-70.0,-29.0,-656.0,-820.0
-10.0,-160.0,-201.0,450.0,-65.0,-68.0,-26.0,-659.0,-819.0
-12.0,-163.0,-196.0,455.0,-66.0,-65.0,-33.0,-656.0,-813.0
-13.0,-161.0,-194.0,460.0,-69.0,-64.0,-35.0,-655.0,-811.0
-12.0,-161.0,-197.0,461.0,-70.0,-64.0,-36.0,-652.0,-808.0
-13.0,-162.0,-202.0,457.0,-70.0,-63.0,-40.0,-653.0,-806.0
-16.0,-158.0,-197.0,451.0,-70.0,-61.0,-45.0,-659.0,-804.0
-18.0,-158.0,-196.0,445.0,-69.0,-62.0,-39.0,-655.0,-795.0
-14.0,-162.0,-196.0,438.0,-67.0,-61.0,-46.0,-652.0,-793.0
-17.0,-161.0,-194.0,432.0,-63.0,-62.0,-41.0,-656.0,-789.0
-14.0,-158.0,-195.0,425.0,-61.0,-63.0,-35.0,-651.0,-784.0
-13.0,-159.0,-193.0,416.0,-58.0,-64.0,-41.0,-651.0,-779.0
-15.0,-158.0,-188.0,407.0,-54.0,-66.0,-37.0,-645.0,-773.0
-12.0,-160.0,-191.0,398.0,-48.0,-67.0,-41.0,-644.0,-786.0
-11.0,-160.0,-193.0,391.0,-47.0,-67.0,-37.0,-653.0,-777.0
-7.0,-160.0,-191.0,381.0,-38.0,-67.0,-33.0,-648.0,-776.0
-9.0,-160.0,-191.0,372.0,-31.0,-67.0,-22.0,-660.0,-770.0
-10.0,-166.0,-188.0,367.0,-26.0,-66.0,-24.0,-660.0,-768.0
-10.0,-167.0,-193.0,367.0,-21.0,-65.0,-19.0,-662.0,-769.0
-4.0,-164.0,-189.0,367.0,-17.0,-68.0,-11.0,-673.0,-770.0
-4.0,-169.0,-186.0,367.0,-13.0,-66.0,-6.0,-675.0,-769.0
-4.0,-167.0,-189.0,371.0,-10.0,-64.0,-8.0,-679.0,-769.0
-6.0,-165.0,-191.0,374.0,-7.0,-60.0,-4.0,-683.0,-767.0
-5.0,-170.0,-188.0,377.0,-2.0,-55.0,-3.0,-689.0,-767.0
-4.0,-171.0,-189.0,383.0,2.0,-52.0,-1.0,-683.0,-762.0
-2.0,-173.0,-190.0,385.0,7.0,-47.0,1.0,-688.0,-760.0
-3.0,-167.0,-191.0,385.0,13.0,-42.0,0.0,-688.0,-763.0
-5.0,-166.0,-187.0,381.0,19.0,-34.0,5.0,-687.0,-762.0
-3.0,-169.0,-187.0,377.0,24.0,-28.0,0.0,-675.0,-756.0
1.0,-170.0,-195.0,373.0,31.0,-21.0,1.0,-682.0,-754.0
-4.0,-167.0,-187.0,367.0,36.0,-15.0,1.0,-681.0,-751.0
-3.0,-165.0,-186.0,359.0,41.0,-9.0,-1.0,-682.0,-751.0
-3.0,-168.0,-186.0,350.0,48.0,-2.0,-4.0,-681.0,-743.0
-2.0,-168.0,-184.0,342.0,53.0,3.0,-2.0,-683.0,-743.0
-7.0,-165.0,-184.0,336.0,59.0,9.0,-7.0,-685.0,-738.0
-4.0,-166.0,-180.0,333.0,63.0,16.0,-12.0,-685.0,-736.0
-4.0,-169.0,-182.0,328.0,69.0,21.0,-12.0,-692.0,-729.0
-9.0,-169.0,-178.0,326.0,76.0,28.0,-15.0,-688.0,-732.0
-9.0,-171.0,-176.0,323.0,83.0,32.0,-20.0,-688.0,-729.0
-8.0,-175.0,-180.0,319.0,90.0,39.0,-23.0,-695.0,-726.0
-15.0,-172.0,-181.0,315.0,98.0,45.0,-20.0,-697.0,-728.0
-7.0,-174.0,-178.0,309.0,107.0,46.0,-24.0,-697.0,-730.0
-7.0,-172.0,-181.0,303.0,117.0,50.0,-24.0,-696.0,-728.0
-8.0,-174.0,-179.0,296.0,127.0,50.0,-21.0,-700.0,-730.0
-10.0,-174.0,-181.0,295.0,135.0,51.0,-22.0,-703.0,-734.0
-10.0,-173.0,-182.0,296.0,141.0,52.0,-28.0,-706.0,-730.0
-14.0,-175.0,-179.0,297.0,147.0,53.0,-26.0,-709.0,-733.0
-10.0,-173.0,-179.0,294.0,156.0,53.0,-30.0,-714.0,-725.0
-9.0,-175.0,-180.0,290.0,167.0,54.0,-34.0,-708.0,-726.0
-7.0,-177.0,-179.0,292.0,170.0,53.0,-31.0,-709.0,-728.0
-6.0,-174.0,-178.0,297.0,174.0,55.0,-35.0,-710.0,-733.0
-11.0,-178.0,-176.0,304.0,173.0,54.0,-31.0,-707.0,-732.0
-12.0,-172.0,-181.0,309.0,173.0,54.0,-30.0,-705.0,-733.0
-12.0,-175.0,-177.0,308.0,175.0,53.0,-36.0,-705.0,-735.0
-12.0,-177.0,-179.0,305.0,177.0,50.0,-37.0,-706.0,-736.0
-12.0,-174.0,-177.0,305.0,175.0,49.0,-36.0,-709.0,-727.0
-12.0,-175.0,-181.0,305.0,171.0,48.0,-32.0,-707.0,-730.0
-13.0,-176.0,-178.0,304.0,166.0,48.0,-40.0,-711.0,-731.0
-14.0,-177.0,-178.0,298.0,166.0,46.0,-40.0,-709.0,-729.0
-15.0,-176.0,-180.0,290.0,164.0,47.0,-47.0,-708.0,-733.0
-18.0,-172.0,-182.0,288.0,159.0,45.0,-41.0,-713.0,-729.0
-14.0,-177.0,-180.0,294.0,151.0,40.0,-47.0,-711.0,-730.0
-15.0,-176.0,-174.0,301.0,142.0,36.0,-40.0,-712.0,-734.0
-15.0,-175.0,-181.0,301.0,136.0,35.0,-40.0,-709.0,-743.0
-18.0,-176.0,-182.0,300.0,132.0,32.0,-38.0,-710.0,-738.0
-12.0,-176.0,-182.0,299.0,130.0,32.0,-44.0,-708.0,-737.0
-11.0,-175.0,-179.0,299.0,127.0,30.0,-43.0,-709.0,-740.0
-15.0,-178.0,-179.0,297.0,124.0,28.0,-45.0,-707.0,-733.0
-14.0,-177.0,-181.0,297.0,121.0,27.0,-47.0,-710.0,-737.0
-18.0,-175.0,-180.0,298.0,119.0,28.0,-44.0,-710.0,-737.0
-12.0,-174.0,-179.0,298.0,117.0,27.0,-45.0,-708.0,-729.0
-16.0,-175.0,-175.0,293.0,116.0,28.0,-38.0,-706.0,-723.0
-15.0,-172.0,-178.0,292.0,114.0,28.0,-43.0,-707.0,-726.0
-18.0,-177.0,-181.0,287.0,110.0,28.0,-43.0,-711.0,-722.0
-14.0,-175.0,-176.0,282.0,106.0,27.0,-36.0,-710.0,-719.0
-13.0,-177.0,-172.0,277.0,103.0,26.0,-38.0,-712.0,-715.0
-16.0,-176.0,-173.0,267.0,100.0,24.0,-40.0,-717.0,-718.0
-16.0,-173.0,-173.0,259.0,94.0,23.0,-45.0,-720.0,-714.0
-13.0,-177.0,-174.0,251.0,90.0,21.0,-46.0,-724.0,-722.0
-18.0,-176.0,-174.0,244.0,88.0,18.0,-46.0,-716.0,-711.0
-20.0,-174.0,-174.0,246.0,91.0,9.0,-55.0,-709.0,-694.0
-14.0,-179.0,-169.0,255.0,98.0,3.0,-59.0,-721.0,-689.0
-20.0,-174.0,-173.0,256.0,98.0,-2.0,-48.0,-716.0,-695.0
-14.0,-176.0,-178.0,247.0,95.0,-6.0,-47.0,-729.0,-715.0
-13.0,-179.0,-181.0,231.0,92.0,-8.0,-42.0,-731.0,-728.0
-23.0,-177.0,-175.0,212.0,92.0,-16.0,-44.0,-729.0,-721.0
-12.0,-181.0,-176.0,200.0,91.0,-20.0,-34.0,-733.0,-727.0
-12.0,-180.0,-180.0,188.0,85.0,-24.0,-37.0,-730.0,-737.0
-13.0,-180.0,-179.0,173.0,68.0,-28.0,-36.0,-740.0,-741.0
-8.0,-182.0,-187.0,154.0,53.0,-32.0,-27.0,-737.0,-751.0
-13.0,-180.0,-185.0,135.0,40.0,-37.0,-25.0,-722.0,-758.0
-8.0,-175.0,-188.0,114.0,27.0,-41.0,-26.0,-723.0,-751.0
-14.0,-181.0,-184.0,103.0,16.0,-46.0,-34.0,-726.0,-748.0
-11.0,-179.0,-180.0,100.0,5.0,-51.0,-33.0,-733.0,-742.0
-14.0,-184.0,-180.0,97.0,-3.0,-53.0,-34.0,-741.0,-736.0
-15.0,-182.0,-180.0,93.0,-6.0,-56.0,-37.0,-745.0,-736.0
-9.0,-186.0,-184.0,90.0,-9.0,-54.0,-37.0,-745.0,-727.0
-14.0,-185.0,-178.0,91.0,-10.0,-52.0,-36.0,-742.0,-724.0
-11.0,-187.0,-178.0,99.0,-12.0,-49.0,-37.0,-762.0,-717.0
-9.0,-189.0,-173.0,105.0,-11.0,-46.0,-30.0,-755.0,-714.0
-11.0,-187.0,-173.0,106.0,-11.0,-42.0,-29.0,-752.0,-714.0
-10.0,-186.0,-171.0,110.0,-12.0,-37.0,-35.0,-747.0,-699.0
-8.0,-184.0,-174.0,117.0,-16.0,-37.0,-33.0,-741.0,-700.0
-11.0,-180.0,-171.0,124.0,-20.0,-36.0,-29.0,-736.0,-704.0
-10.0,-178.0,-175.0,130.0,-25.0,-39.0,-19.0,-726.0,-700.0
-12.0,-180.0,-176.0,133.0,-31.0,-42.0,-18.0,-729.0,-709.0
-7.0,-175.0,-173.0,134.0,-36.0,-45.0,-15.0,-722.0,-703.0
-4.0,-180.0,-174.0,130.0,-40.0,-46.0,-16.0,-726.0,-715.0
-7.0,-177.0,-175.0,124.0,-44.0,-49.0,-17.0,-727.0,-709.0
-6.0,-182.0,-179.0,116.0,-48.0,-49.0,-10.0,-726.0,-714.0
-4.0,-181.0,-179.0,104.0,-50.0,-49.0,-10.0,-734.0,-722.0
-5.0,-181.0,-175.0,93.0,-52.0,-50.0,-13.0,-736.0,-724.0
-5.0,-178.0,-178.0,84.0,-49.0,-49.0,-17.0,-737.0,-720.0
-6.0,-182.0,-176.0,78.0,-46.0,-50.0,-14.0,-735.0,-719.0
-11.0,-181.0,-179.0,72.0,-45.0,-50.0,-15.0,-744.0,-724.0
-6.0,-184.0,-181.0,64.0,-40.0,-48.0,-14.0,-742.0,-721.0
-12.0,-185.0,-187.0,58.0,-38.0,-46.0,-14.0,-744.0,-726.0
-7.0,-185.0,-179.0,53.0,-35.0,-42.0,-14.0,-745.0,-728.0
-7.0,-184.0,-178.0,49.0,-32.0,-39.0,-19.0,-751.0,-729.0
-10.0,-184.0,-178.0,46.0,-30.0,-35.0,-15.0,-747.0,-726.0
-10.0,-184.0,-179.0,41.0,-28.0,-32.0,-24.0,-749.0,-732.0
-10.0,-182.0,-181.0,40.0,-26.0,-30.0,-23.0,-743.0,-729.0
-9.0,-182.0,-177.0,39.0,-23.0,-28.0,-24.0,-743.0,-737.0
-9.0,-185.0,-181.0,33.0,-21.0,-27.0,-27.0,-741.0,-737.0
-8.0,-184.0,-180.0,25.0,-20.0,-25.0,-25.0,-741.0,-737.0
-8.0,-184.0,-178.0,16.0,-18.0,-23.0,-22.0,-740.0,-737.0
-4.0,-185.0,-180.0,8.0,-17.0,-22.0,-13.0,-742.0,-734.0
-5.0,-180.0,-181.0,1.0,-16.0,-21.0,-8.0,-747.0,-734.0
-4.0,-186.0,-178.0,-5.0,-16.0,-22.0,-6.0,-749.0,-731.0
-4.0,-184.0,-180.0,-9.0,-17.0,-20.0,-1.0,-751.0,-730.0
-4.0,-183.0,-178.0,-13.0,-18.0,-21.0,-1.0,-752.0,-732.0
-2.0,-186.0,-178.0,-12.0,-18.0,-17.0,2.0,-750.0,-726.0
-2.0,-186.0,-178.0,-14.0,-18.0,-18.0,3.0,-747.0,-730.0
-2.0,-185.0,-182.0,-9.0,-17.0,-15.0,7.0,-749.0,-728.0
-3.0,-184.0,-177.0,-5.0,-19.0,-13.0,2.0,-742.0,-728.0
0.0,-185.0,-177.0,-1.0,-18.0,-8.0,0.0,-749.0,-736.0
-5.0,-183.0,-180.0,1.0,-16.0,-4.0,0.0,-744.0,-733.0
-5.0,-183.0,-181.0,5.0,-11.0,1.0,-4.0,-746.0,-733.0
-9.0,-184.0,-187.0,8.0,-7.0,6.0,-5.0,-743.0,-730.0
-4.0,-183.0,-180.0,11.0,-2.0,13.0,-7.0,-747.0,-728.0
-9.0,-184.0,-177.0,14.0,1.0,18.0,-11.0,-745.0,-732.0
-4.0,-185.0,-183.0,17.0,5.0,23.0,-7.0,-742.0,-732.0
-7.0,-182.0,-177.0,18.0,8.0,27.0,-9.0,-739.0,-726.0
-4.0,-181.0,-178.0,18.0,10.0,32.0,-15.0,-740.0,-728.0
-6.0,-181.0,-177.0,16.0,14.0,37.0,-14.0,-740.0,-729.0
-7.0,-179.0,-179.0,12.0,17.0,40.0,-13.0,-735.0,-734.0
-5.0,-179.0,-177.0,8.0,18.0,44.0,-14.0,-738.0,-727.0
-8.0,-180.0,-184.0,5.0,21.0,46.0,-14.0,-730.0,-725.0
-9.0,-180.0,-178.0,-1.0,22.0,48.0,-15.0,-735.0,-728.0
-13.0,-181.0,-181.0,-4.0,24.0,50.0,-13.0,-733.0,-722.0
-5.0,-179.0,-178.0,-7.0,26.0,50.0,-11.0,-736.0,-725.0
-8.0,-180.0,-178.0,-11.0,30.0,50.0,-16.0,-739.0,-721.0
-4.0,-183.0,-178.0,-17.0,33.0,51.0,-12.0,-734.0,-719.0
-6.0,-179.0,-176.0,-18.0,36.0,55.0,-11.0,-735.0,-723.0
-5.0,-184.0,-176.0,-20.0,42.0,56.0,-14.0,-740.0,-724.0
-4.0,-182.0,-177.0,-23.0,47.0,57.0,-10.0,-728.0,-720.0
-6.0,-179.0,-178.0,-25.0,53.0,59.0,-16.0,-737.0,-720.0
-10.0,-182.0,-181.0,-25.0,59.0,61.0,-15.0,-737.0,-709.0
-4.0,-183.0,-177.0,-24.0,64.0,64.0,-16.0,-734.0,-723.0
-6.0,-181.0,-175.0,-23.0,70.0,66.0,-18.0,-736.0,-707.0
-3.0,-181.0,-178.0,-25.0,76.0,68.0,-15.0,-732.0,-715.0
-8.0,-181.0,-176.0,-27.0,79.0,70.0,-23.0,-727.0,-717.0
-8.0,-185.0,-176.0,-28.0,83.0,72.0,-18.0,-729.0,-718.0
-9.0,-183.0,-175.0,-28.0,88.0,73.0,-23.0,-730.0,-714.0
-9.0,-181.0,-178.0,-30.0,91.0,74.0,-15.0,-738.0,-720.0
-6.0,-181.0,-170.0,-31.0,94.0,74.0,-29.0,-738.0,-707.0
-8.0,-185.0,-177.0,-30.0,97.0,76.0,-16.0,-741.0,-704.0
-5.0,-185.0,-176.0,-31.0,99.0,76.0,-24.0,-738.0,-702.0
-10.0,-187.0,-173.0,-30.0,100.0,77.0,-27.0,-745.0,-712.0
-13.0,-184.0,-174.0,-28.0,101.0,77.0,-28.0,-744.0,-703.0
-14.0,-186.0,-177.0,-27.0,101.0,77.0,-32.0,-747.0,-708.0
-11.0,-186.0,-175.0,-26.0,104.0,75.0,-36.0,-752.0,-710.0
-13.0,-186.0,-175.0,-27.0,106.0,74.0,-33.0,-755.0,-720.0
-9.0,-186.0,-178.0,-30.0,105.0,69.0,-35.0,-754.0,-718.0
-11.0,-185.0,-176.0,-32.0,103.0,63.0,-37.0,-743.0,-723.0
-13.0,-182.0,-178.0,-34.0,99.0,60.0,-43.0,-747.0,-727.0
-15.0,-183.0,-180.0,-39.0,93.0,55.0,-39.0,-748.0,-733.0
-12.0,-181.0,-182.0,-46.0,86.0,49.0,-39.0,-744.0,-731.0
-19.0,-181.0,-178.0,-50.0,78.0,46.0,-40.0,-735.0,-734.0
-15.0,-180.0,-182.0,-54.0,70.0,39.0,-47.0,-744.0,-737.0
-15.0,-178.0,-182.0,-56.0,64.0,35.0,-42.0,-745.0,-737.0
-16.0,-184.0,-182.0,-55.0,57.0,31.0,-46.0,-739.0,-743.0
-18.0,-185.0,-184.0,-48.0,52.0,30.0,-48.0,-733.0,-739.0
-15.0,-182.0,-181.0,-41.0,45.0,30.0,-51.0,-720.0,-740.0
-15.0,-176.0,-184.0,-36.0,38.0,32.0,-46.0,-710.0,-739.0
-17.0,-175.0,-184.0,-30.0,32.0,33.0,-52.0,-708.0,-747.0
-19.0,-173.0,-178.0,-25.0,22.0,33.0,-51.0,-709.0,-738.0
-20.0,-175.0,-180.0,-20.0,12.0,32.0,-57.0,-707.0,-731.0
-19.0,-173.0,-178.0,-14.0,-2.0,31.0,-57.0,-710.0,-728.0
-19.0,-178.0,-176.0,-7.0,-18.0,31.0,-68.0,-710.0,-726.0
-24.0,-173.0,-180.0,2.0,-35.0,33.0,-73.0,-706.0,-720.0
-21.0,-176.0,-175.0,12.0,-47.0,34.0,-78.0,-702.0,-720.0
-24.0,-169.0,-173.0,20.0,-59.0,36.0,-76.0,-692.0,-722.0
-22.0,-171.0,-178.0,27.0,-69.0,35.0,-82.0,-687.0,-725.0
-23.0,-169.0,-180.0,28.0,-80.0,35.0,-81.0,-684.0,-724.0
-25.0,-163.0,-176.0,30.0,-91.0,33.0,-91.0,-677.0,-728.0
-26.0,-163.0,-175.0,27.0,-98.0,31.0,-85.0,-675.0,-729.0
-26.0,-166.0,-177.0,23.0,-106.0,26.0,-85.0,-666.0,-725.0
-23.0,-164.0,-177.0,16.0,-110.0,20.0,-77.0,-667.0,-729.0
-20.0,-167.0,-177.0,7.0,-116.0,10.0,-69.0,-673.0,-724.0
-20.0,-167.0,-179.0,-5.0,-122.0,-1.0,-73.0,-679.0,-723.0
-19.0,-167.0,-174.0,-15.0,-127.0,-12.0,-60.0,-679.0,-728.0
-17.0,-166.0,-174.0,-23.0,-133.0,-21.0,-64.0,-682.0,-719.0
-17.0,-168.0,-185.0,-30.0,-138.0,-32.0,-54.0,-692.0,-716.0
-13.0,-173.0,-173.0,-36.0,-143.0,-41.0,-46.0,-688.0,-719.0
-13.0,-169.0,-175.0,-39.0,-147.0,-49.0,-52.0,-696.0,-720.0
-14.0,-172.0,-179.0,-42.0,-151.0,-57.0,-47.0,-697.0,-713.0
-8.0,-171.0,-177.0,-42.0,-153.0,-65.0,-39.0,-698.0,-716.0
-10.0,-176.0,-177.0,-42.0,-154.0,-72.0,-31.0,-699.0,-705.0
-11.0,-172.0,-175.0,-38.0,-152.0,-78.0,-24.0,-700.0,-704.0
-5.0,-169.0,-175.0,-35.0,-148.0,-85.0,-18.0,-694.0,-708.0
-7.0,-166.0,-178.0,-31.0,-142.0,-93.0,-7.0,-687.0,-706.0
-6.0,-169.0,-170.0,-28.0,-136.0,-100.0,-4.0,-687.0,-701.0
-2.0,-168.0,-174.0,-26.0,-130.0,-111.0,-1.0,-682.0,-701.0
-5.0,-170.0,-164.0,-24.0,-123.0,-118.0,2.0,-675.0,-696.0
-3.0,-169.0,-170.0,-21.0,-116.0,-124.0,0.0,-682.0,-686.0
-4.0,-164.0,-168.0,-16.0,-106.0,-127.0,-3.0,-682.0,-681.0
-2.0,-166.0,-168.0,-16.0,-95.0,-130.0,-9.0,-679.0,-681.0
-4.0,-167.0,-168.0,-17.0,-84.0,-134.0,-2.0,-672.0,-677.0
-3.0,-166.0,-168.0,-19.0,-71.0,-139.0,0.0,-668.0,-679.0
-2.0,-165.0,-169.0,-23.0,-61.0,-142.0,1.0,-670.0,-684.0
1.0,-164.0,-169.0,-30.0,-49.0,-148.0,4.0,-671.0,-676.0
-1.0,-165.0,-168.0,-37.0,-40.0,-153.0,3.0,-666.0,-676.0
-3.0,-165.0,-163.0,-44.0,-32.0,-158.0,-3.0,-672.0,-682.0
-2.0,-165.0,-172.0,-50.0,-23.0,-163.0,-1.0,-672.0,-682.0
-5.0,-163.0,-169.0,-54.0,-13.0,-167.0,1.0,-677.0,-673.0
-4.0,-167.0,-171.0,-59.0,-3.0,-171.0,-2.0,-680.0,-682.0
-6.0,-165.0,-170.0,-59.0,8.0,-173.0,-2.0,-686.0,-685.0
-2.0,-164.0,-169.0,-60.0,17.0,-176.0,-4.0,-682.0,-690.0
-5.0,-169.0,-172.0,-63.0,27.0,-177.0,-9.0,-685.0,-690.0
-1.0,-168.0,-168.0,-63.0,37.0,-178.0,-2.0,-684.0,-689.0
-4.0,-173.0,-170.0,-66.0,44.0,-181.0,0.0,-696.0,-693.0
-3.0,-173.0,-176.0,-64.0,52.0,-183.0,4.0,-708.0,-689.0
-3.0,-179.0,-169.0,-57.0,57.0,-183.0,-3.0,-717.0,-687.0
-1.0,-180.0,-171.0,-47.0,64.0,-181.0,-2.0,-729.0,-688.0
-2.0,-180.0,-171.0,-36.0,70.0,-175.0,-2.0,-735.0,-693.0
-4.0,-179.0,-175.0,-25.0,75.0,-169.0,-5.0,-732.0,-695.0
-6.0,-182.0,-176.0,-17.0,79.0,-161.0,-6.0,-733.0,-706.0
-4.0,-182.0,-174.0,-14.0,84.0,-157.0,-4.0,-718.0,-709.0
-4.0,-175.0,-174.0,-11.0,86.0,-150.0,-6.0,-715.0,-703.0
-4.0,-177.0,-177.0,-13.0,88.0,-144.0,-7.0,-704.0,-711.0
-4.0,-174.0,-175.0,-13.0,88.0,-139.0,-3.0,-702.0,-706.0
-1.0,-174.0,-175.0,-13.0,88.0,-131.0,-2.0,-702.0,-707.0
-4.0,-170.0,-171.0,-14.0,87.0,-123.0,1.0,-695.0,-704.0
-3.0,-171.0,-171.0,-15.0,84.0,-116.0,5.0,-690.0,-690.0
0.0,-169.0,-175.0,-14.0,79.0,-109.0,12.0,-686.0,-687.0
-2.0,-167.0,-170.0,-16.0,73.0,-100.0,9.0,-682.0,-687.0
-2.0,-165.0,-169.0,-16.0,64.0,-94.0,10.0,-681.0,-677.0
-1.0,-166.0,-165.0,-19.0,55.0,-88.0,9.0,-672.0,-676.0
-2.0,-164.0,-169.0,-24.0,48.0,-82.0,7.0,-671.0,-682.0
-3.0,-163.0,-167.0,-33.0,40.0,-77.0,1.0,-666.0,-675.0
-6.0,-162.0,-167.0,-42.0,35.0,-70.0,-2.0,-664.0,-673.0
-5.0,-161.0,-167.0,-54.0,31.0,-64.0,0.0,-649.0,-683.0
-4.0,-164.0,-166.0,-72.0,26.0,-55.0,-1.0,-656.0,-679.0
-3.0,-162.0,-164.0,-86.0,22.0,-51.0,3.0,-662.0,-670.0
0.0,-164.0,-170.0,-102.0,18.0,-47.0,10.0,-667.0,-674.0
-1.0,-168.0,-169.0,-116.0,14.0,-44.0,7.0,-675.0,-680.0
0.0,-166.0,-165.0,-130.0,11.0,-42.0,6.0,-683.0,-671.0
-1.0,-176.0,-164.0,-140.0,7.0,-42.0,7.0,-683.0,-674.0
-2.0,-169.0,-164.0,-152.0,2.0,-45.0,9.0,-685.0,-673.0
1.0,-170.0,-165.0,-160.0,-5.0,-48.0,10.0,-692.0,-675.0
0.0,-172.0,-168.0,-168.0,-13.0,-54.0,2.0,-695.0,-675.0
-5.0,-173.0,-169.0,-176.0,-20.0,-61.0,0.0,-706.0,-681.0
-4.0,-174.0,-168.0,-184.0,-27.0,-66.0,-1.0,-705.0,-688.0
-4.0,-176.0,-172.0,-191.0,-31.0,-72.0,-12.0,-709.0,-702.0
-8.0,-172.0,-170.0,-199.0,-33.0,-77.0,-18.0,-717.0,-702.0
-11.0,-174.0,-175.0,-205.0,-36.0,-79.0,-33.0,-711.0,-702.0
-15.0,-171.0,-184.0,-210.0,-39.0,-80.0,-41.0,-709.0,-709.0
-10.0,-176.0,-177.0,-218.0,-42.0,-82.0,-42.0,-707.0,-726.0
-9.0,-174.0,-182.0,-223.0,-42.0,-81.0,-48.0,-706.0,-724.0
-14.0,-177.0,-180.0,-227.0,-42.0,-77.0,-56.0,-706.0,-731.0
-15.0,-175.0,-181.0,-233.0,-39.0,-78.0,-46.0,-712.0,-733.0
-12.0,-176.0,-181.0,-233.0,-33.0,-77.0,-45.0,-710.0,-732.0
-12.0,-177.0,-179.0,-234.0,-28.0,-77.0,-40.0,-711.0,-732.0
-13.0,-178.0,-186.0,-232.0,-26.0,-80.0,-35.0,-716.0,-737.0
-11.0,-176.0,-180.0,-229.0,-27.0,-86.0,-32.0,-708.0,-737.0
-14.0,-174.0,-184.0,-225.0,-27.0,-94.0,-37.0,-704.0,-740.0
-12.0,-173.0,-184.0,-224.0,-31.0,-101.0,-36.0,-697.0,-750.0
-13.0,-172.0,-182.0,-222.0,-38.0,-104.0,-38.0,-696.0,-752.0
-15.0,-169.0,-188.0,-221.0,-45.0,-106.0,-41.0,-688.0,-755.0
-16.0,-165.0,-185.0,-220.0,-53.0,-109.0,-32.0,-679.0,-749.0
-12.0,-171.0,-189.0,-223.0,-62.0,-110.0,-39.0,-679.0,-755.0
-15.0,-167.0,-187.0,-225.0,-70.0,-113.0,-38.0,-678.0,-756.0
-14.0,-168.0,-186.0,-224.0,-80.0,-116.0,-41.0,-682.0,-754.0
-13.0,-169.0,-186.0,-224.0,-86.0,-120.0,-34.0,-687.0,-752.0
-12.0,-171.0,-184.0,-223.0,-92.0,-122.0,-39.0,-687.0,-746.0
-12.0,-172.0,-187.0,-222.0,-97.0,-127.0,-35.0,-687.0,-751.0
-12.0,-170.0,-188.0,-221.0,-100.0,-131.0,-29.0,-691.0,-763.0
-5.0,-171.0,-186.0,-221.0,-102.0,-135.0,-31.0,-689.0,-766.0
-9.0,-168.0,-183.0,-221.0,-106.0,-140.0,-28.0,-682.0,-768.0
-11.0,-168.0,-188.0,-225.0,-107.0,-145.0,-27.0,-677.0,-770.0
-13.0,-170.0,-188.0,-232.0,-108.0,-150.0,-24.0,-683.0,-770.0
-11.0,-168.0,-191.0,-241.0,-113.0,-156.0,-26.0,-684.0,-770.0
-10.0,-169.0,-189.0,-252.0,-115.0,-162.0,-29.0,-685.0,-773.0
-10.0,-171.0,-195.0,-262.0,-117.0,-170.0,-30.0,-686.0,-779.0
-8.0,-174.0,-193.0,-272.0,-120.0,-175.0,-26.0,-699.0,-782.0
-11.0,-172.0,-192.0,-281.0,-122.0,-182.0,-27.0,-700.0,-779.0
-8.0,-174.0,-194.0,-288.0,-125.0,-187.0,-27.0,-702.0,-788.0
-8.0,-175.0,-195.0,-294.0,-129.0,-192.0,-27.0,-705.0,-790.0
-5.0,-172.0,-195.0,-299.0,-131.0,-194.0,-22.0,-710.0,-796.0
-6.0,-174.0,-195.0,-302.0,-131.0,-197.0,-18.0,-707.0,-800.0
-8.0,-171.0,-196.0,-308.0,-130.0,-198.0,-17.0,-698.0,-805.0
-1.0,-175.0,-191.0,-314.0,-131.0,-198.0,-13.0,-692.0,-815.0
-4.0,-170.0,-202.0,-323.0,-128.0,-198.0,-12.0,-691.0,-816.0
-4.0,-170.0,-203.0,-332.0,-126.0,-197.0,-6.0,-687.0,-818.0
-6.0,-164.0,-202.0,-339.0,-125.0,-195.0,1.0,-683.0,-820.0
-1.0,-169.0,-200.0,-347.0,-122.0,-193.0,10.0,-685.0,-820.0
-2.0,-167.0,-199.0,-350.0,-119.0,-191.0,10.0,-687.0,-812.0
-3.0,-170.0,-199.0,-345.0,-118.0,-187.0,16.0,-686.0,-810.0
2.0,-169.0,-198.0,-334.0,-119.0,-186.0,21.0,-686.0,-802.0
2.0,-171.0,-199.0,-320.0,-120.0,-182.0,23.0,-685.0,-809.0
0.0,-167.0,-196.0,-306.0,-120.0,-180.0,23.0,-682.0,-806.0
3.0,-170.0,-195.0,-294.0,-118.0,-175.0,25.0,-681.0,-803.0
1.0,-165.0,-200.0,-282.0,-117.0,-171.0,27.0,-678.0,-808.0
2.0,-164.0,-201.0,-270.0,-116.0,-165.0,22.0,-672.0,-810.0
2.0,-162.0,-200.0,-259.0,-115.0,-158.0,27.0,-662.0,-814.0
5.0,-165.0,-199.0,-250.0,-116.0,-150.0,29.0,-660.0,-814.0
2.0,-164.0,-200.0,-244.0,-114.0,-146.0,28.0,-661.0,-818.0
1.0,-164.0,-202.0,-241.0,-112.0,-141.0,33.0,-665.0,-822.0
4.0,-162.0,-205.0,-239.0,-111.0,-138.0,28.0,-658.0,-809.0
1.0,-165.0,-200.0,-238.0,-108.0,-134.0,26.0,-665.0,-817.0
3.0,-160.0,-203.0,-238.0,-110.0,-129.0,22.0,-663.0,-817.0
1.0,-164.0,-201.0,-241.0,-109.0,-126.0,19.0,-658.0,-819.0
-1.0,-163.0,-200.0,-240.0,-114.0,-119.0,16.0,-656.0,-830.0
0.0,-160.0,-202.0,-241.0,-118.0,-113.0,9.0,-649.0,-829.0
-2.0,-160.0,-202.0,-253.0,-114.0,-109.0,11.0,-650.0,-826.0
-4.0,-157.0,-205.0,-258.0,-114.0,-104.0,12.0,-647.0,-830.0
-3.0,-156.0,-204.0,-266.0,-110.0,-104.0,6.0,-643.0,-836.0
-6.0,-158.0,-206.0,-275.0,-105.0,-103.0,-3.0,-637.0,-837.0
-3.0,-156.0,-205.0,-289.0,-103.0,-86.0,5.0,-640.0,-835.0
-4.0,-152.0,-208.0,-293.0,-103.0,-90.0,-1.0,-631.0,-841.0
-7.0,-154.0,-206.0,-286.0,-106.0,-93.0,-13.0,-628.0,-844.0
-6.0,-153.0,-208.0,-279.0,-106.0,-93.0,-12.0,-617.0,-847.0
-10.0,-149.0,-205.0,-275.0,-100.0,-95.0,-15.0,-613.0,-846.0
-12.0,-144.0,-202.0,-267.0,-93.0,-97.0,-20.0,-602.0,-835.0
-11.0,-143.0,-204.0,-254.0,-93.0,-101.0,-27.0,-589.0,-837.0
-10.0,-143.0,-206.0,-250.0,-91.0,-104.0,-33.0,-571.0,-838.0
-13.0,-135.0,-204.0,-241.0,-97.0,-112.0,-40.0,-559.0,-838.0
-15.0,-137.0,-206.0,-236.0,-98.0,-118.0,-46.0,-563.0,-838.0
-14.0,-135.0,-208.0,-241.0,-102.0,-129.0,-42.0,-561.0,-865.0
-18.0,-138.0,-209.0,-274.0,-105.0,-141.0,-41.0,-564.0,-865.0
-15.0,-137.0,-209.0,-315.0,-103.0,-148.0,-26.0,-571.0,-862.0
-21.0,-134.0,-214.0,-365.0,-102.0,-154.0,-60.0,-563.0,-872.0
-18.0,-141.0,-212.0,-406.0,-113.0,-173.0,-50.0,-574.0,-875.0
-19.0,-143.0,-209.0,-443.0,-132.0,-186.0,-54.0,-583.0,-876.0
-19.0,-145.0,-220.0,-478.0,-150.0,-189.0,-61.0,-595.0,-875.0
-21.0,-149.0,-211.0,-503.0,-163.0,-187.0,-62.0,-600.0,-869.0
-16.0,-151.0,-212.0,-510.0,-177.0,-186.0,-54.0,-607.0,-871.0
-11.0,-150.0,-212.0,-502.0,-191.0,-186.0,-37.0,-609.0,-875.0
-10.0,-146.0,-212.0,-496.0,-196.0,-188.0,-32.0,-600.0,-874.0
-7.0,-144.0,-215.0,-486.0,-192.0,-194.0,-19.0,-585.0,-873.0
-4.0,-139.0,-215.0,-476.0,-180.0,-194.0,-5.0,-573.0,-873.0
-1.0,-137.0,-217.0,-459.0,-169.0,-191.0,3.0,-558.0,-878.0
-3.0,-132.0,-216.0,-448.0,-154.0,-189.0,5.0,-546.0,-872.0
0.0,-129.0,-213.0,-438.0,-141.0,-189.0,17.0,-537.0,-881.0
4.0,-128.0,-209.0,-445.0,-125.0,-179.0,33.0,-515.0,-878.0
1.0,-127.0,-212.0,-459.0,-110.0,-173.0,20.0,-495.0,-872.0
0.0,-119.0,-217.0,-463.0,-101.0,-183.0,24.0,-491.0,-873.0
0.0,-122.0,-215.0,-472.0,-97.0,-185.0,25.0,-482.0,-875.0
-1.0,-118.0,-212.0,-480.0,-97.0,-186.0,21.0,-486.0,-877.0
-1.0,-118.0,-214.0,-492.0,-103.0,-184.0,15.0,-481.0,-884.0
-4.0,-119.0,-212.0,-503.0,-113.0,-181.0,6.0,-487.0,-873.0
-3.0,-120.0,-212.0,-515.0,-125.0,-175.0,-4.0,-481.0,-884.0
-18.0,-123.0,-220.0,-529.0,-138.0,-171.0,-28.0,-515.0,-894.0
-7.0,-115.0,-213.0,-549.0,-153.0,-152.0,-21.0,-464.0,-876.0
-18.0,-112.0,-218.0,-557.0,-172.0,-162.0,-36.0,-466.0,-882.0
-16.0,-109.0,-210.0,-560.0,-193.0,-163.0,-41.0,-461.0,-886.0
-21.0,-116.0,-207.0,-567.0,-208.0,-162.0,-52.0,-455.0,-877.0
-20.0,-110.0,-212.0,-581.0,-220.0,-160.0,-65.0,-449.0,-879.0
-24.0,-108.0,-216.0,-587.0,-233.0,-158.0,-73.0,-445.0,-877.0
-16.0,-105.0,-211.0,-604.0,-242.0,-142.0,-49.0,-425.0,-873.0
-18.0,-101.0,-216.0,-632.0,-249.0,-152.0,-61.0,-416.0,-878.0
-18.0,-99.0,-211.0,-665.0,-260.0,-164.0,-49.0,-403.0,-871.0
-13.0,-96.0,-209.0,-696.0,-274.0,-176.0,-45.0,-394.0,-871.0
-15.0,-94.0,-217.0,-732.0,-288.0,-185.0,-37.0,-384.0,-866.0
-13.0,-95.0,-210.0,-774.0,-296.0,-194.0,-38.0,-380.0,-857.0
-6.0,-93.0,-212.0,-817.0,-304.0,-192.0,-23.0,-392.0,-870.0
-8.0,-92.0,-206.0,-884.0,-310.0,-207.0,-30.0,-377.0,-861.0
-12.0,-91.0,-215.0,-936.0,-315.0,-232.0,-21.0,-369.0,-877.0
-5.0,-89.0,-213.0,-989.0,-323.0,-252.0,-14.0,-360.0,-886.0
-11.0,-93.0,-216.0,-1050.0,-332.0,-266.0,-15.0,-376.0,-892.0
-20.0,-88.0,-226.0,-1121.0,-341.0,-288.0,-11.0,-368.0,-907.0
-8.0,-82.0,-224.0,-1199.0,-346.0,-289.0,-20.0,-342.0,-914.0
-11.0,-81.0,-229.0,-1265.0,-356.0,-315.0,-27.0,-344.0,-934.0
-14.0,-83.0,-234.0,-1329.0,-369.0,-335.0,-34.0,-351.0,-945.0
-14.0,-80.0,-235.0,-1394.0,-384.0,-346.0,-25.0,-364.0,-951.0
-20.0,-85.0,-234.0,-1459.0,-400.0,-359.0,-61.0,-331.0,-961.0
-30.0,-86.0,-240.0,-1503.0,-411.0,-368.0,-92.0,-360.0,-980.0
-26.0,-81.0,-243.0,-1547.0,-424.0,-362.0,-83.0,-333.0,-980.0
-31.0,-84.0,-243.0,-1580.0,-437.0,-379.0,-93.0,-346.0,-987.0
-29.0,-74.0,-249.0,-1618.0,-452.0,-389.0,-87.0,-334.0,-1011.0
-27.0,-73.0,-248.0,-1648.0,-459.0,-380.0,-93.0,-304.0,-1012.0
-28.0,-71.0,-247.0,-1673.0,-473.0,-402.0,-90.0,-312.0,-1001.0
-20.0,-64.0,-247.0,-1706.0,-488.0,-399.0,-57.0,-255.0,-1013.0
-23.0,-61.0,-248.0,-1724.0,-501.0,-414.0,-75.0,-248.0,-1010.0
-23.0,-59.0,-248.0,-1732.0,-518.0,-441.0,-64.0,-230.0,-995.0
-8.0,-62.0,-247.0,-1731.0,-527.0,-438.0,-33.0,-252.0,-999.0
-13.0,-53.0,-240.0,-1723.0,-525.0,-425.0,-34.0,-220.0,-985.0
-7.0,-58.0,-239.0,-1702.0,-527.0,-452.0,-13.0,-220.0,-982.0
-5.0,-54.0,-239.0,-1686.0,-532.0,-460.0,3.0,-214.0,-966.0
-2.0,-60.0,-241.0,-1669.0,-523.0,-450.0,20.0,-258.0,-991.0
-2.0,-52.0,-240.0,-1678.0,-512.0,-423.0,11.0,-206.0,-982.0
-4.0,-51.0,-238.0,-1678.0,-517.0,-445.0,18.0,-205.0,-984.0
4.0,-50.0,-244.0,-1684.0,-526.0,-456.0,33.0,-203.0,-984.0
13.0,-49.0,-244.0,-1693.0,-525.0,-450.0,56.0,-207.0,-994.0
10.0,-53.0,-246.0,-1702.0,-524.0,-432.0,45.0,-212.0,-991.0
18.0,-55.0,-237.0,-1724.0,-517.0,-405.0,86.0,-205.0,-980.0
7.0,-52.0,-237.0,-1748.0,-502.0,-406.0,43.0,-196.0,-968.0
11.0,-47.0,-230.0,-1758.0,-491.0,-417.0,57.0,-192.0,-956.0
11.0,-49.0,-235.0,-1756.0,-483.0,-408.0,69.0,-197.0,-970.0
14.0,-53.0,-236.0,-1763.0,-478.0,-392.0,62.0,-209.0,-973.0
9.0,-53.0,-239.0,-1775.0,-478.0,-379.0,57.0,-208.0,-972.0
12.0,-53.0,-241.0,-1799.0,-475.0,-367.0,45.0,-226.0,-985.0
2.0,-39.0,-239.0,-1841.0,-467.0,-339.0,35.0,-169.0,-950.0
4.0,-44.0,-240.0,-1854.0,-462.0,-350.0,34.0,-168.0,-982.0
2.0,-34.0,-246.0,-1878.0,-464.0,-356.0,17.0,-159.0,-998.0
2.0,-37.0,-249.0,-1909.0,-462.0,-349.0,36.0,-146.0,-1006.0
0.0,-24.0,-247.0,-1955.0,-456.0,-316.0,40.0,-120.0,-1022.0
-5.0,-21.0,-252.0,-1998.0,-454.0,-311.0,-11.0,-104.0,-1036.0
-3.0,-24.0,-251.0,-2033.0,-447.0,-323.0,-2.0,-83.0,-1026.0
0.0,-40.0,-259.0,-2055.0,-438.0,-319.0,3.0,-147.0,-1066.0
1.0,-18.0,-258.0,-2084.0,-432.0,-326.0,18.0,-59.0,-1060.0
-4.0,-17.0,-264.0,-2110.0,-419.0,-308.0,-6.0,-78.0,-1089.0
-5.0,-22.0,-263.0,-2150.0,-410.0,-308.0,-4.0,-86.0,-1081.0
-4.0,-17.0,-262.0,-2184.0,-398.0,-317.0,-14.0,-82.0,-1073.0
-8.0,-19.0,-257.0,-2217.0,-383.0,-294.0,-9.0,-81.0,-1052.0
-12.0,-20.0,-264.0,-2242.0,-369.0,-311.0,-29.0,-84.0,-1086.0
-14.0,-15.0,-254.0,-2272.0,-346.0,-337.0,-36.0,-60.0,-1053.0
-14.0,-24.0,-260.0,-2288.0,-331.0,-331.0,-39.0,-93.0,-1093.0
-7.0,-28.0,-264.0,-2306.0,-318.0,-310.0,-21.0,-103.0,-1082.0
-16.0,-18.0,-263.0,-2327.0,-302.0,-308.0,-49.0,-88.0,-1083.0
-18.0,-24.0,-258.0,-2343.0,-293.0,-317.0,-49.0,-83.0,-1068.0
-19.0,-28.0,-266.0,-2352.0,-296.0,-325.0,-42.0,-139.0,-1100.0
-18.0,-16.0,-262.0,-2377.0,-314.0,-330.0,-38.0,-74.0,-1087.0
-21.0,-22.0,-261.0,-2381.0,-329.0,-314.0,-52.0,-75.0,-1069.0
-16.0,-26.0,-266.0,-2350.0,-337.0,-326.0,-44.0,-96.0,-1087.0
-14.0,-34.0,-268.0,-2317.0,-344.0,-339.0,-37.0,-120.0,-1105.0
-15.0,-35.0,-267.0,-2298.0,-344.0,-349.0,-31.0,-110.0,-1099.0
-25.0,-28.0,-268.0,-2283.0,-338.0,-376.0,-60.0,-98.0,-1116.0
-14.0,-24.0,-270.0,-2265.0,-329.0,-380.0,-39.0,-88.0,-1106.0
-17.0,-29.0,-264.0,-2210.0,-320.0,-405.0,-49.0,-96.0,-1103.0
-22.0,-28.0,-275.0,-2146.0,-309.0,-428.0,-55.0,-86.0,-1109.0
-18.0,-21.0,-268.0,-2079.0,-293.0,-447.0,-58.0,-76.0,-1114.0
-18.0,-16.0,-267.0,-2009.0,-275.0,-465.0,-64.0,-55.0,-1103.0
-14.0,-12.0,-259.0,-1940.0,-260.0,-485.0,-51.0,-32.0,-1087.0
-23.0,-7.0,-258.0,-1873.0,-242.0,-513.0,-56.0,-8.0,-1062.0
-19.0,-4.0,-259.0,-1786.0,-229.0,-536.0,-52.0,-11.0,-1050.0
-18.0,-6.0,-250.0,-1703.0,-219.0,-560.0,-55.0,-15.0,-1034.0
-21.0,-2.0,-251.0,-1623.0,-210.0,-586.0,-58.0,-10.0,-1018.0
-22.0,-4.0,-247.0,-1552.0,-207.0,-615.0,-53.0,-22.0,-1015.0
-18.0,-4.0,-240.0,-1488.0,-202.0,-649.0,-54.0,-25.0,-992.0
-14.0,-10.0,-239.0,-1427.0,-201.0,-684.0,-53.0,-27.0,-984.0
-18.0,2.0,-237.0,-1370.0,-201.0,-722.0,-51.0,-24.0,-970.0
-21.0,-3.0,-231.0,-1324.0,-206.0,-763.0,-52.0,-19.0,-958.0
-15.0,-9.0,-229.0,-1286.0,-215.0,-804.0,-52.0,-20.0,-951.0
-16.0,-7.0,-227.0,-1254.0,-224.0,-848.0,-39.0,-22.0,-941.0
-14.0,-6.0,-229.0,-1227.0,-240.0,-891.0,-37.0,-21.0,-927.0
-11.0,-2.0,-225.0,-1200.0,-261.0,-935.0,-33.0,-14.0,-923.0
-15.0,-3.0,-228.0,-1171.0,-281.0,-976.0,-35.0,-3.0,-926.0
-11.0,0.0,-221.0,-1141.0,-298.0,-1014.0,-36.0,1.0,-918.0
-10.0,1.0,-218.0,-1116.0,-313.0,-1054.0,-25.0,10.0,-906.0
-9.0,2.0,-216.0,-1093.0,-321.0,-1092.0,-24.0,21.0,-893.0
-12.0,4.0,-220.0,-1067.0,-330.0,-1128.0,-25.0,25.0,-884.0
-4.0,6.0,-217.0,-1040.0,-342.0,-1168.0,-30.0,30.0,-891.0
-13.0,7.0,-218.0,-1011.0,-351.0,-1208.0,-28.0,35.0,-899.0
-15.0,10.0,-217.0,-981.0,-357.0,-1246.0,-41.0,42.0,-900.0
-20.0,9.0,-219.0,-948.0,-362.0,-1284.0,-54.0,41.0,-902.0
-21.0,11.0,-220.0,-911.0,-371.0,-1321.0,-64.0,44.0,-911.0
-22.0,14.0,-222.0,-874.0,-380.0,-1357.0,-72.0,53.0,-913.0
-25.0,12.0,-218.0,-836.0,-388.0,-1392.0,-84.0,58.0,-918.0
-30.0,16.0,-220.0,-800.0,-398.0,-1427.0,-96.0,70.0,-917.0
-30.0,19.0,-222.0,-763.0,-410.0,-1464.0,-105.0,80.0,-913.0
-33.0,17.0,-217.0,-723.0,-423.0,-1498.0,-123.0,86.0,-913.0
-42.0,29.0,-217.0,-677.0,-436.0,-1530.0,-140.0,96.0,-901.0
-42.0,27.0,-218.0,-631.0,-450.0,-1563.0,-145.0,105.0,-895.0
-45.0,32.0,-213.0,-584.0,-462.0,-1591.0,-159.0,113.0,-887.0
-50.0,29.0,-220.0,-544.0,-473.0,-1619.0,-177.0,115.0,-894.0
-50.0,30.0,-219.0,-505.0,-487.0,-1643.0,-187.0,125.0,-890.0
-51.0,35.0,-215.0,-479.0,-503.0,-1667.0,-182.0,131.0,-878.0
-51.0,32.0,-216.0,-454.0,-521.0,-1687.0,-190.0,136.0,-890.0
-48.0,32.0,-214.0,-431.0,-539.0,-1703.0,-176.0,134.0,-881.0
-49.0,29.0,-210.0,-407.0,-556.0,-1718.0,-177.0,136.0,-873.0
-48.0,33.0,-206.0,-380.0,-577.0,-1733.0,-167.0,133.0,-863.0
-43.0,37.0,-205.0,-357.0,-598.0,-1748.0,-160.0,142.0,-856.0
-43.0,35.0,-208.0,-332.0,-623.0,-1763.0,-155.0,143.0,-844.0
-43.0,34.0,-200.0,-305.0,-650.0,-1774.0,-146.0,149.0,-836.0
-42.0,35.0,-200.0,-275.0,-677.0,-1781.0,-152.0,139.0,-825.0
-40.0,34.0,-195.0,-243.0,-700.0,-1787.0,-140.0,128.0,-815.0
-39.0,28.0,-193.0,-207.0,-720.0,-1794.0,-139.0,118.0,-795.0
-37.0,27.0,-189.0,-172.0,-737.0,-1798.0,-121.0,103.0,-783.0
-33.0,23.0,-188.0,-142.0,-754.0,-1796.0,-115.0,93.0,-763.0
-30.0,18.0,-177.0,-113.0,-770.0,-1793.0,-102.0,80.0,-745.0
-18.0,8.0,-176.0,-79.0,-786.0,-1783.0,-79.0,50.0,-724.0
-19.0,11.0,-171.0,-54.0,-801.0,-1773.0,-60.0,29.0,-696.0
-10.0,4.0,-166.0,-26.0,-818.0,-1761.0,-47.0,20.0,-681.0
-14.0,0.0,-159.0,15.0,-835.0,-1751.0,-31.0,6.0,-647.0
-11.0,-1.0,-149.0,61.0,-853.0,-1736.0,-34.0,-15.0,-606.0
-11.0,-10.0,-144.0,111.0,-876.0,-1718.0,-29.0,-37.0,-584.0
-5.0,-12.0,-138.0,160.0,-899.0,-1702.0,-25.0,-54.0,-565.0
-9.0,-18.0,-134.0,218.0,-923.0,-1685.0,-25.0,-60.0,-527.0
-5.0,-20.0,-128.0,282.0,-945.0,-1663.0,-14.0,-82.0,-508.0
-3.0,-23.0,-125.0,349.0,-972.0,-1640.0,-14.0,-81.0,-493.0
-7.0,-23.0,-115.0,424.0,-998.0,-1613.0,-18.0,-76.0,-478.0
-9.0,-22.0,-117.0,504.0,-1026.0,-1582.0,-28.0,-80.0,-458.0
-7.0,-21.0,-114.0,581.0,-1054.0,-1554.0,-24.0,-80.0,-456.0
-12.0,-20.0,-113.0,650.0,-1074.0,-1523.0,-20.0,-75.0,-444.0
-4.0,-16.0,-106.0,709.0,-1096.0,-1495.0,-16.0,-68.0,-426.0
-5.0,-13.0,-101.0,756.0,-1116.0,-1462.0,-4.0,-68.0,-430.0
-3.0,-15.0,-105.0,795.0,-1137.0,-1433.0,6.0,-66.0,-409.0
3.0,-14.0,-101.0,826.0,-1159.0,-1400.0,13.0,-66.0,-407.0
4.0,-14.0,-100.0,854.0,-1182.0,-1367.0,24.0,-44.0,-405.0
3.0,-7.0,-101.0,876.0,-1207.0,-1330.0,20.0,-34.0,-397.0
5.0,-4.0,-95.0,897.0,-1228.0,-1301.0,21.0,-16.0,-386.0
5.0,0.0,-95.0,916.0,-1244.0,-1274.0,21.0,5.0,-380.0
0.0,6.0,-92.0,934.0,-1260.0,-1240.0,3.0,21.0,-370.0
-8.0,8.0,-87.0,953.0,-1277.0,-1198.0,-12.0,43.0,-354.0
-12.0,18.0,-81.0,975.0,-1300.0,-1153.0,-27.0,57.0,-337.0
-13.0,23.0,-78.0,1006.0,-1319.0,-1101.0,-54.0,71.0,-313.0
-21.0,19.0,-74.0,1042.0,-1345.0,-1037.0,-87.0,73.0,-300.0
-23.0,12.0,-75.0,1084.0,-1373.0,-963.0,-92.0,52.0,-290.0
-33.0,12.0,-72.0,1130.0,-1400.0,-897.0,-120.0,39.0,-279.0
-43.0,7.0,-67.0,1181.0,-1428.0,-844.0,-151.0,36.0,-265.0
-31.0,14.0,-63.0,1226.0,-1469.0,-823.0,-119.0,53.0,-253.0
-30.0,12.0,-65.0,1249.0,-1480.0,-745.0,-116.0,48.0,-253.0
-32.0,4.0,-67.0,1269.0,-1457.0,-638.0,-132.0,13.0,-250.0
-38.0,8.0,-69.0,1285.0,-1415.0,-548.0,-159.0,12.0,-265.0
-39.0,6.0,-69.0,1277.0,-1365.0,-481.0,-170.0,33.0,-263.0
-42.0,21.0,-64.0,1251.0,-1315.0,-420.0,-169.0,70.0,-256.0
-40.0,34.0,-61.0,1222.0,-1273.0,-356.0,-154.0,128.0,-247.0
-29.0,43.0,-59.0,1202.0,-1251.0,-275.0,-122.0,161.0,-231.0
-29.0,61.0,-59.0,1195.0,-1255.0,-191.0,-119.0,204.0,-221.0
-19.0,66.0,-59.0,1175.0,-1269.0,-101.0,-74.0,238.0,-231.0
-12.0,63.0,-58.0,1108.0,-1280.0,-2.0,-56.0,246.0,-235.0
-12.0,64.0,-66.0,1016.0,-1294.0,70.0,-47.0,229.0,-252.0
-15.0,58.0,-84.0,889.0,-1294.0,110.0,-62.0,204.0,-316.0
-18.0,54.0,-94.0,694.0,-1279.0,140.0,-92.0,177.0,-387.0
-35.0,42.0,-124.0,433.0,-1256.0,157.0,-114.0,86.0,-516.0
-73.0,14.0,-155.0,124.0,-1249.0,152.0,-279.0,18.0,-640.0
-122.0,-27.0,-200.0,-230.0,-1280.0,129.0,-464.0,-167.0,-845.0
-201.0,-78.0,-267.0,-651.0,-1345.0,114.0,-714.0,-403.0,-1061.0
-290.0,-125.0,-313.0,-1128.0,-1445.0,93.0,-1196.0,-611.0,-1334.0
-431.0,-128.0,-345.0,-1635.0,-1630.0,86.0,-1612.0,-568.0,-1475.0
-485.0,-35.0,-276.0,-2059.0,-2093.0,217.0,-1830.0,-163.0,-1220.0
-587.0,155.0,-143.0,-2278.0,-2903.0,467.0,-2127.0,612.0,-661.0
-619.0,295.0,-65.0,-2147.0,-4288.0,801.0,-2358.0,1210.0,-322.0
-779.0,398.0,-38.0,-1659.0,-5283.0,933.0,-3156.0,1733.0,-173.0
-947.0,542.0,8.0,-761.0,-6031.0,953.0,-3821.0,2288.0,-14.0
-1175.0,621.0,-121.0,148.0,-6606.0,1023.0,-4505.0,2473.0,-420.0
-1263.0,650.0,-275.0,539.0,-7066.0,929.0,-5082.0,2456.0,-1071.0
-1354.0,677.0,-266.0,348.0,-7116.0,593.0,-5421.0,2653.0,-1127.0
-1463.0,701.0,-241.0,-245.0,-7041.0,250.0,-5876.0,2754.0,-1013.0
-1208.0,793.0,-201.0,-527.0,-6898.0,589.0,-4893.0,3165.0,-964.0
-1070.0,829.0,-129.0,-501.0,-7375.0,1430.0,-4114.0,3247.0,-187.0
-1087.0,626.0,-327.0,-482.0,-7382.0,2299.0,-4623.0,2900.0,-1372.0
-939.0,366.0,-199.0,-26.0,-5994.0,2779.0,-3893.0,1630.0,-871.0
-643.0,131.0,27.0,626.0,-5173.0,2387.0,-2622.0,658.0,140.0
-663.0,63.0,156.0,1246.0,-5011.0,1647.0,-2533.0,245.0,629.0
-762.0,89.0,150.0,1568.0,-5300.0,1421.0,-3047.0,295.0,602.0
-665.0,131.0,20.0,1439.0,-5664.0,1704.0,-2789.0,396.0,161.0
-642.0,178.0,-71.0,864.0,-5459.0,1857.0,-2722.0,609.0,-337.0
-586.0,142.0,-125.0,-6.0,-4730.0,2017.0,-2441.0,454.0,-518.0
-436.0,63.0,-153.0,-878.0,-3893.0,2318.0,-1825.0,168.0,-643.0
-354.0,-4.0,-145.0,-1580.0,-3235.0,2590.0,-1455.0,-61.0,-617.0
-328.0,-60.0,-116.0,-2055.0,-2889.0,2812.0,-1307.0,-273.0,-453.0
-345.0,-121.0,-41.0,-2174.0,-2735.0,2947.0,-1378.0,-435.0,-144.0
-335.0,-136.0,24.0,-1841.0,-2651.0,3013.0,-1389.0,-436.0,83.0
-336.0,-82.0,51.0,-1141.0,-2511.0,2917.0,-1417.0,-240.0,207.0
-321.0,-21.0,52.0,-285.0,-2183.0,2732.0,-1409.0,-31.0,257.0
-291.0,20.0,53.0,565.0,-1654.0,2519.0,-1248.0,172.0,218.0
-223.0,86.0,56.0,1293.0,-1011.0,2151.0,-1015.0,417.0,213.0
-185.0,137.0,67.0,1935.0,-343.0,1648.0,-856.0,588.0,264.0
-177.0,171.0,76.0,2541.0,267.0,1034.0,-792.0,713.0,333.0
-161.0,200.0,69.0,3062.0,766.0,422.0,-710.0,812.0,313.0
-145.0,210.0,65.0,3345.0,1111.0,-52.0,-620.0,831.0,264.0
-149.0,215.0,72.0,3385.0,1354.0,-397.0,-657.0,838.0,280.0
-165.0,205.0,88.0,3253.0,1588.0,-617.0,-740.0,788.0,341.0
-209.0,197.0,96.0,3047.0,1886.0,-724.0,-892.0,735.0,383.0
-214.0,182.0,106.0,2765.0,2203.0,-712.0,-948.0,671.0,423.0
-211.0,163.0,117.0,2430.0,2555.0,-638.0,-892.0,593.0,448.0
-203.0,138.0,108.0,2083.0,2905.0,-565.0,-863.0,494.0,422.0
-186.0,115.0,105.0,1755.0,3234.0,-479.0,-810.0,388.0,426.0
-191.0,92.0,107.0,1428.0,3492.0,-402.0,-794.0,331.0,425.0
-191.0,79.0,108.0,1138.0,3602.0,-317.0,-767.0,289.0,429.0
-196.0,67.0,115.0,892.0,3577.0,-242.0,-780.0,222.0,454.0
-195.0,61.0,122.0,691.0,3430.0,-168.0,-783.0,218.0,497.0
-194.0,52.0,131.0,575.0,3187.0,-62.0,-762.0,190.0,550.0
-179.0,43.0,129.0,559.0,2867.0,70.0,-684.0,164.0,505.0
-172.0,35.0,119.0,585.0,2484.0,205.0,-645.0,128.0,466.0
-165.0,36.0,102.0,598.0,2020.0,293.0,-652.0,109.0,421.0
-171.0,23.0,90.0,599.0,1502.0,358.0,-623.0,73.0,354.0
-175.0,32.0,70.0,568.0,963.0,355.0,-639.0,93.0,278.0
-173.0,46.0,62.0,508.0,441.0,310.0,-668.0,148.0,238.0
-174.0,51.0,48.0,455.0,-28.0,252.0,-665.0,170.0,189.0
-163.0,63.0,31.0,400.0,-409.0,145.0,-644.0,217.0,131.0
-145.0,84.0,27.0,320.0,-684.0,9.0,-596.0,295.0,101.0
-131.0,104.0,30.0,209.0,-860.0,-145.0,-531.0,383.0,112.0
-117.0,114.0,34.0,63.0,-942.0,-253.0,-463.0,426.0,129.0
-110.0,110.0,47.0,-110.0,-940.0,-369.0,-447.0,408.0,168.0
-109.0,106.0,53.0,-269.0,-868.0,-505.0,-468.0,388.0,211.0
-117.0,104.0,58.0,-410.0,-754.0,-644.0,-490.0,367.0,224.0
-127.0,90.0,62.0,-586.0,-620.0,-768.0,-543.0,359.0,226.0
-134.0,96.0,61.0,-745.0,-479.0,-857.0,-580.0,352.0,240.0
-137.0,93.0,63.0,-883.0,-344.0,-896.0,-586.0,346.0,239.0
-134.0,101.0,57.0,-991.0,-205.0,-867.0,-587.0,378.0,224.0
-143.0,120.0,47.0,-1073.0,-57.0,-740.0,-603.0,438.0,181.0
-157.0,137.0,28.0,-1158.0,84.0,-513.0,-657.0,534.0,112.0
-177.0,162.0,7.0,-1266.0,220.0,-208.0,-744.0,622.0,18.0
-203.0,182.0,-14.0,-1350.0,370.0,134.0,-842.0,718.0,-50.0
-248.0,192.0,-9.0,-1357.0,484.0,451.0,-992.0,762.0,-52.0
-269.0,194.0,-32.0,-1291.0,475.0,698.0,-1072.0,771.0,-111.0
-289.0,186.0,-71.0,-1246.0,425.0,834.0,-1179.0,743.0,-286.0
-306.0,176.0,-118.0,-1183.0,532.0,877.0,-1255.0,721.0,-471.0
-318.0,167.0,-126.0,-1056.0,725.0,871.0,-1264.0,683.0,-508.0
-311.0,164.0,-117.0,-879.0,814.0,818.0,-1243.0,655.0,-487.0
-306.0,155.0,-104.0,-704.0,763.0,726.0,-1201.0,642.0,-424.0
-300.0,157.0,-91.0,-537.0,635.0,620.0,-1174.0,639.0,-370.0
-289.0,155.0,-73.0,-388.0,503.0,532.0,-1141.0,641.0,-299.0
-277.0,159.0,-57.0,-252.0,398.0,462.0,-1112.0,654.0,-241.0
-276.0,172.0,-42.0,-118.0,316.0,386.0,-1096.0,682.0,-170.0
-269.0,178.0,-26.0,16.0,237.0,299.0,-1090.0,730.0,-114.0
-263.0,191.0,-25.0,147.0,166.0,216.0,-1075.0,764.0,-109.0
-260.0,199.0,-35.0,246.0,128.0,140.0,-1046.0,792.0,-128.0
-255.0,199.0,-38.0,311.0,149.0,76.0,-1040.0,800.0,-153.0
-251.0,195.0,-43.0,349.0,221.0,22.0,-1017.0,776.0,-180.0
-252.0,184.0,-42.0,368.0,325.0,-21.0,-1030.0,740.0,-195.0
-251.0,175.0,-51.0,384.0,428.0,-57.0,-1019.0,694.0,-203.0
-248.0,163.0,-53.0,409.0,527.0,-89.0,-1009.0,654.0,-229.0
-255.0,155.0,-60.0,445.0,614.0,-100.0,-1028.0,619.0,-255.0
-255.0,142.0,-73.0,498.0,688.0,-84.0,-1035.0,583.0,-280.0
-261.0,138.0,-75.0,561.0,746.0,-69.0,-1044.0,562.0,-301.0
-262.0,133.0,-76.0,629.0,787.0,-61.0,-1070.0,544.0,-317.0
-270.0,129.0,-75.0,682.0,797.0,-58.0,-1076.0,514.0,-324.0
-256.0,128.0,-90.0,710.0,799.0,-70.0,-1026.0,495.0,-366.0
-250.0,125.0,-85.0,698.0,823.0,-85.0,-1013.0,476.0,-365.0
-268.0,120.0,-72.0,672.0,831.0,-88.0,-1069.0,458.0,-312.0
-251.0,111.0,-81.0,646.0,807.0,-79.0,-1015.0,438.0,-332.0
-237.0,111.0,-76.0,593.0,814.0,-87.0,-966.0,423.0,-328.0
-244.0,106.0,-64.0,522.0,826.0,-96.0,-966.0,395.0,-278.0
-241.0,99.0,-61.0,455.0,819.0,-96.0,-959.0,380.0,-257.0
-230.0,92.0,-63.0,403.0,816.0,-93.0,-933.0,356.0,-247.0
-221.0,88.0,-60.0,370.0,827.0,-80.0,-900.0,339.0,-249.0
-218.0,80.0,-56.0,355.0,848.0,-66.0,-868.0,311.0,-241.0
-206.0,73.0,-54.0,349.0,864.0,-52.0,-839.0,280.0,-232.0
-209.0,68.0,-56.0,353.0,875.0,-38.0,-833.0,253.0,-233.0
-205.0,63.0,-60.0,362.0,879.0,-19.0,-825.0,248.0,-239.0
-205.0,66.0,-63.0,367.0,877.0,-6.0,-831.0,250.0,-256.0
-210.0,70.0,-71.0,361.0,876.0,23.0,-836.0,265.0,-281.0
-212.0,75.0,-75.0,341.0,880.0,63.0,-858.0,282.0,-316.0
-217.0,83.0,-80.0,316.0,896.0,107.0,-877.0,297.0,-344.0
-217.0,91.0,-89.0,283.0,918.0,157.0,-891.0,339.0,-373.0
-231.0,100.0,-92.0,259.0,950.0,226.0,-927.0,384.0,-387.0
-236.0,113.0,-95.0,237.0,989.0,299.0,-958.0,424.0,-401.0
-231.0,122.0,-94.0,207.0,1023.0,373.0,-935.0,470.0,-394.0
-205.0,126.0,-84.0,162.0,1061.0,437.0,-839.0,496.0,-364.0
-179.0,124.0,-86.0,112.0,1092.0,474.0,-757.0,496.0,-309.0
-160.0,130.0,-73.0,82.0,1110.0,467.0,-650.0,512.0,-301.0
-152.0,131.0,-80.0,69.0,1114.0,428.0,-617.0,524.0,-326.0
-153.0,132.0,-90.0,68.0,1109.0,383.0,-612.0,517.0,-375.0
-164.0,132.0,-98.0,63.0,1081.0,338.0,-652.0,521.0,-418.0
-176.0,130.0,-116.0,55.0,1029.0,302.0,-685.0,511.0,-490.0
-190.0,125.0,-127.0,34.0,958.0,271.0,-734.0,492.0,-520.0
-200.0,111.0,-135.0,22.0,883.0,237.0,-809.0,436.0,-555.0
-218.0,94.0,-137.0,21.0,799.0,205.0,-859.0,368.0,-568.0
-233.0,75.0,-146.0,29.0,709.0,163.0,-915.0,282.0,-607.0
-248.0,57.0,-156.0,60.0,645.0,121.0,-966.0,224.0,-650.0
-251.0,48.0,-170.0,130.0,615.0,101.0,-980.0,202.0,-684.0
-256.0,54.0,-175.0,186.0,568.0,96.0,-1007.0,205.0,-714.0
-259.0,63.0,-173.0,219.0,494.0,95.0,-1024.0,242.0,-738.0
-259.0,74.0,-175.0,224.0,399.0,112.0,-1011.0,270.0,-732.0
-257.0,86.0,-182.0,218.0,297.0,139.0,-1005.0,325.0,-743.0
-251.0,100.0,-176.0,196.0,206.0,165.0,-978.0,372.0,-736.0
-242.0,106.0,-170.0,167.0,121.0,184.0,-966.0,407.0,-711.0
-234.0,120.0,-163.0,123.0,40.0,196.0,-927.0,459.0,-679.0
-227.0,129.0,-152.0,71.0,-29.0,185.0,-909.0,489.0,-647.0
-222.0,129.0,-146.0,15.0,-80.0,172.0,-878.0,507.0,-610.0
-227.0,133.0,-138.0,-51.0,-104.0,159.0,-856.0,519.0,-581.0
-204.0,128.0,-134.0,-118.0,-104.0,144.0,-821.0,511.0,-568.0
-199.0,132.0,-131.0,-180.0,-85.0,123.0,-800.0,514.0,-556.0
-194.0,128.0,-134.0,-234.0,-51.0,104.0,-777.0,494.0,-561.0
-184.0,122.0,-134.0,-277.0,-6.0,85.0,-739.0,486.0,-568.0
-174.0,122.0,-141.0,-314.0,50.0,64.0,-705.0,485.0,-589.0
-176.0,129.0,-140.0,-348.0,112.0,54.0,-715.0,507.0,-586.0
-188.0,133.0,-138.0,-388.0,151.0,63.0,-735.0,527.0,-578.0
-192.0,133.0,-137.0,-430.0,164.0,71.0,-752.0,532.0,-568.0
-199.0,136.0,-132.0,-467.0,156.0,71.0,-780.0,538.0,-562.0
-200.0,132.0,-132.0,-495.0,132.0,61.0,-793.0,528.0,-550.0
-204.0,134.0,-135.0,-508.0,97.0,48.0,-798.0,519.0,-554.0
-198.0,132.0,-131.0,-518.0,60.0,30.0,-791.0,521.0,-554.0
-197.0,136.0,-134.0,-533.0,22.0,11.0,-792.0,539.0,-553.0
-198.0,140.0,-135.0,-542.0,-15.0,-17.0,-790.0,568.0,-556.0
-197.0,145.0,-128.0,-548.0,-52.0,-49.0,-778.0,576.0,-543.0
-198.0,149.0,-132.0,-545.0,-86.0,-83.0,-786.0,589.0,-532.0
-203.0,147.0,-125.0,-536.0,-122.0,-122.0,-798.0,580.0,-511.0
-204.0,141.0,-118.0,-520.0,-160.0,-167.0,-809.0,570.0,-493.0
-211.0,143.0,-120.0,-499.0,-200.0,-211.0,-823.0,559.0,-496.0
-215.0,135.0,-117.0,-479.0,-239.0,-244.0,-855.0,549.0,-488.0
-224.0,135.0,-115.0,-459.0,-282.0,-266.0,-879.0,541.0,-477.0
-223.0,134.0,-109.0,-437.0,-328.0,-279.0,-899.0,532.0,-463.0
-227.0,133.0,-115.0,-414.0,-371.0,-281.0,-909.0,533.0,-458.0
-230.0,136.0,-108.0,-382.0,-412.0,-274.0,-923.0,534.0,-446.0
-230.0,131.0,-107.0,-348.0,-449.0,-266.0,-916.0,532.0,-436.0
-230.0,131.0,-101.0,-314.0,-483.0,-257.0,-923.0,516.0,-417.0
-228.0,130.0,-99.0,-277.0,-498.0,-244.0,-922.0,513.0,-398.0
-228.0,128.0,-93.0,-233.0,-513.0,-247.0,-909.0,513.0,-384.0
-222.0,128.0,-84.0,-202.0,-515.0,-233.0,-882.0,505.0,-368.0
-212.0,125.0,-83.0,-170.0,-504.0,-213.0,-868.0,503.0,-349.0
-213.0,125.0,-77.0,-139.0,-483.0,-197.0,-849.0,489.0,-328.0
-200.0,126.0,-70.0,-116.0,-466.0,-189.0,-831.0,488.0,-311.0
-201.0,126.0,-69.0,-95.0,-443.0,-177.0,-814.0,472.0,-294.0
-197.0,119.0,-69.0,-79.0,-420.0,-162.0,-806.0,461.0,-280.0
-199.0,116.0,-66.0,-61.0,-398.0,-149.0,-798.0,455.0,-262.0
-194.0,113.0,-60.0,-43.0,-381.0,-138.0,-791.0,444.0,-259.0
-198.0,113.0,-62.0,-25.0,-364.0,-127.0,-798.0,442.0,-251.0
-200.0,111.0,-60.0,-12.0,-357.0,-119.0,-805.0,426.0,-244.0
-201.0,107.0,-59.0,5.0,-355.0,-114.0,-811.0,420.0,-245.0
-204.0,112.0,-60.0,20.0,-354.0,-104.0,-816.0,433.0,-253.0
-203.0,109.0,-60.0,33.0,-352.0,-92.0,-817.0,435.0,-257.0
-207.0,114.0,-61.0,44.0,-341.0,-78.0,-826.0,440.0,-252.0
-210.0,118.0,-67.0,54.0,-325.0,-64.0,-838.0,450.0,-266.0
-208.0,116.0,-68.0,60.0,-301.0,-52.0,-846.0,456.0,-281.0
-213.0,120.0,-70.0,63.0,-271.0,-42.0,-850.0,459.0,-287.0
-214.0,124.0,-72.0,62.0,-234.0,-35.0,-855.0,471.0,-296.0
-210.0,124.0,-73.0,61.0,-193.0,-31.0,-854.0,479.0,-303.0
-214.0,123.0,-72.0,57.0,-153.0,-31.0,-868.0,479.0,-311.0
-212.0,123.0,-73.0,53.0,-112.0,-33.0,-863.0,483.0,-322.0
-215.0,126.0,-79.0,46.0,-72.0,-34.0,-868.0,490.0,-323.0
-215.0,124.0,-76.0,42.0,-40.0,-34.0,-867.0,487.0,-326.0
-221.0,125.0,-79.0,38.0,-12.0,-38.0,-875.0,494.0,-329.0
-220.0,123.0,-81.0,32.0,9.0,-40.0,-879.0,487.0,-341.0
-222.0,125.0,-80.0,29.0,23.0,-42.0,-887.0,487.0,-337.0
-224.0,122.0,-90.0,28.0,30.0,-45.0,-892.0,483.0,-349.0
-222.0,125.0,-82.0,29.0,37.0,-47.0,-889.0,482.0,-353.0
-222.0,123.0,-83.0,25.0,41.0,-49.0,-888.0,485.0,-355.0
-221.0,124.0,-82.0,21.0,46.0,-50.0,-895.0,487.0,-362.0
-221.0,125.0,-83.0,20.0,49.0,-51.0,-892.0,480.0,-363.0
-223.0,126.0,-87.0,18.0,53.0,-50.0,-892.0,489.0,-361.0
-222.0,124.0,-87.0,17.0,54.0,-49.0,-890.0,491.0,-365.0
-221.0,126.0,-87.0,19.0,56.0,-49.0,-889.0,489.0,-363.0
-218.0,125.0,-85.0,20.0,56.0,-49.0,-888.0,488.0,-357.0
-220.0,128.0,-83.0,26.0,56.0,-47.0,-888.0,498.0,-353.0
-220.0,123.0,-79.0,33.0,56.0,-48.0,-891.0,498.0,-355.0
-222.0,127.0,-79.0,44.0,55.0,-48.0,-892.0,500.0,-353.0
-221.0,129.0,-85.0,57.0,56.0,-46.0,-892.0,501.0,-351.0
-224.0,127.0,-80.0,72.0,59.0,-45.0,-890.0,498.0,-340.0
-224.0,127.0,-81.0,89.0,63.0,-45.0,-893.0,504.0,-343.0
-221.0,125.0,-81.0,110.0,71.0,-47.0,-894.0,501.0,-340.0
-224.0,127.0,-79.0,129.0,77.0,-43.0,-888.0,498.0,-342.0
-219.0,124.0,-83.0,145.0,84.0,-40.0,-889.0,494.0,-341.0
-219.0,125.0,-82.0,159.0,88.0,-33.0,-889.0,488.0,-340.0
-217.0,124.0,-81.0,172.0,90.0,-22.0,-877.0,477.0,-342.0
-221.0,123.0,-85.0,181.0,91.0,-10.0,-874.0,470.0,-338.0
-221.0,117.0,-80.0,191.0,91.0,-1.0,-869.0,463.0,-335.0
-219.0,123.0,-82.0,200.0,88.0,11.0,-868.0,459.0,-339.0
-215.0,118.0,-81.0,208.0,83.0,24.0,-859.0,455.0,-337.0
-215.0,118.0,-82.0,214.0,80.0,35.0,-858.0,450.0,-343.0
-215.0,116.0,-79.0,217.0,77.0,45.0,-857.0,442.0,-339.0
-213.0,112.0,-82.0,218.0,77.0,58.0,-856.0,441.0,-338.0
-211.0,116.0,-81.0,219.0,80.0,67.0,-848.0,436.0,-343.0
-209.0,109.0,-80.0,216.0,83.0,76.0,-855.0,435.0,-341.0
-214.0,114.0,-83.0,209.0,90.0,84.0,-854.0,438.0,-354.0
-214.0,114.0,-85.0,200.0,98.0,93.0,-855.0,434.0,-356.0
-210.0,117.0,-88.0,191.0,107.0,100.0,-861.0,452.0,-366.0
-215.0,118.0,-88.0,177.0,117.0,107.0,-852.0,450.0,-362.0
-208.0,119.0,-97.0,164.0,126.0,112.0,-853.0,457.0,-373.0
-210.0,117.0,-91.0,150.0,134.0,117.0,-849.0,455.0,-384.0
-211.0,117.0,-90.0,134.0,140.0,119.0,-848.0,457.0,-388.0
-211.0,114.0,-95.0,119.0,143.0,121.0,-848.0,459.0,-390.0
-215.0,124.0,-100.0,102.0,142.0,123.0,-851.0,464.0,-396.0
-211.0,123.0,-96.0,84.0,140.0,121.0,-846.0,470.0,-402.0
-215.0,122.0,-96.0,66.0,136.0,118.0,-856.0,476.0,-406.0
-215.0,124.0,-103.0,49.0,128.0,116.0,-855.0,476.0,-408.0
-214.0,123.0,-104.0,32.0,118.0,112.0,-860.0,483.0,-410.0
-219.0,123.0,-103.0,18.0,107.0,104.0,-872.0,489.0,-420.0
-222.0,125.0,-102.0,6.0,97.0,97.0,-875.0,491.0,-421.0
-219.0,126.0,-98.0,-5.0,89.0,89.0,-883.0,502.0,-429.0
-222.0,128.0,-104.0,-16.0,78.0,80.0,-882.0,502.0,-430.0
-221.0,128.0,-101.0,-24.0,68.0,70.0,-885.0,503.0,-434.0
-221.0,131.0,-102.0,-30.0,56.0,60.0,-885.0,502.0,-427.0
-221.0,128.0,-103.0,-37.0,45.0,49.0,-888.0,506.0,-428.0
-220.0,127.0,-100.0,-41.0,32.0,39.0,-880.0,506.0,-429.0
-222.0,127.0,-101.0,-47.0,19.0,28.0,-881.0,509.0,-419.0
-220.0,129.0,-98.0,-52.0,7.0,20.0,-877.0,508.0,-418.0
-220.0,129.0,-96.0,-56.0,-3.0,10.0,-881.0,507.0,-414.0
-218.0,130.0,-99.0,-60.0,-13.0,2.0,-876.0,505.0,-409.0
-222.0,131.0,-104.0,-64.0,-20.0,-5.0,-877.0,511.0,-402.0
-219.0,128.0,-97.0,-67.0,-27.0,-12.0,-875.0,508.0,-392.0
-215.0,129.0,-95.0,-69.0,-35.0,-18.0,-869.0,506.0,-397.0
-214.0,128.0,-94.0,-69.0,-41.0,-25.0,-867.0,505.0,-390.0
-215.0,128.0,-91.0,-69.0,-45.0,-31.0,-876.0,503.0,-384.0
-215.0,128.0,-91.0,-67.0,-48.0,-35.0,-869.0,500.0,-381.0
-214.0,128.0,-86.0,-62.0,-52.0,-39.0,-860.0,501.0,-376.0
-216.0,128.0,-89.0,-58.0,-54.0,-42.0,-863.0,497.0,-368.0
-212.0,128.0,-86.0,-53.0,-57.0,-45.0,-858.0,496.0,-367.0
-212.0,127.0,-89.0,-46.0,-58.0,-47.0,-861.0,499.0,-370.0
-213.0,125.0,-84.0,-38.0,-60.0,-47.0,-862.0,494.0,-364.0
-213.0,122.0,-88.0,-31.0,-62.0,-49.0,-855.0,496.0,-363.0
-211.0,128.0,-83.0,-24.0,-62.0,-47.0,-858.0,496.0,-358.0
-213.0,127.0,-87.0,-17.0,-61.0,-45.0,-855.0,494.0,-354.0
-212.0,127.0,-86.0,-10.0,-64.0,-43.0,-853.0,494.0,-353.0
-212.0,124.0,-81.0,-4.0,-63.0,-40.0,-851.0,491.0,-350.0
-212.0,124.0,-80.0,0.0,-62.0,-38.0,-852.0,484.0,-350.0
-213.0,125.0,-83.0,3.0,-58.0,-33.0,-850.0,487.0,-341.0
-214.0,124.0,-81.0,5.0,-56.0,-28.0,-851.0,482.0,-345.0
-218.0,124.0,-77.0,8.0,-50.0,-26.0,-854.0,486.0,-344.0
-214.0,124.0,-85.0,12.0,-41.0,-21.0,-852.0,478.0,-342.0
-214.0,126.0,-79.0,12.0,-35.0,-16.0,-854.0,479.0,-345.0
-216.0,122.0,-86.0,13.0,-28.0,-13.0,-859.0,478.0,-349.0
-213.0,122.0,-83.0,13.0,-21.0,-7.0,-857.0,479.0,-348.0
-213.0,124.0,-83.0,13.0,-14.0,-2.0,-859.0,478.0,-346.0
-214.0,122.0,-85.0,15.0,-7.0,1.0,-856.0,485.0,-345.0
-215.0,126.0,-84.0,15.0,-3.0,5.0,-859.0,479.0,-356.0
-213.0,125.0,-83.0,16.0,2.0,8.0,-856.0,489.0,-347.0
-213.0,124.0,-86.0,18.0,6.0,10.0,-856.0,490.0,-355.0
-212.0,123.0,-82.0,21.0,10.0,13.0,-859.0,487.0,-356.0
-214.0,124.0,-86.0,22.0,15.0,16.0,-857.0,487.0,-356.0
-212.0,129.0,-86.0,25.0,18.0,16.0,-860.0,492.0,-354.0
-212.0,122.0,-84.0,28.0,20.0,16.0,-858.0,498.0,-357.0
-211.0,123.0,-83.0,32.0,22.0,14.0,-864.0,498.0,-360.0
-214.0,126.0,-83.0,36.0,25.0,12.0,-865.0,497.0,-361.0
-216.0,127.0,-87.0,41.0,26.0,12.0,-867.0,494.0,-362.0
-216.0,128.0,-86.0,46.0,29.0,11.0,-868.0,500.0,-362.0
-213.0,126.0,-86.0,49.0,30.0,8.0,-870.0,495.0,-360.0
-218.0,129.0,-85.0,54.0,31.0,7.0,-869.0,496.0,-361.0
-218.0,128.0,-87.0,58.0,33.0,7.0,-861.0,497.0,-362.0
-217.0,127.0,-83.0,63.0,35.0,5.0,-869.0,498.0,-359.0
-215.0,125.0,-84.0,68.0,35.0,5.0,-872.0,500.0,-366.0
-219.0,126.0,-90.0,72.0,38.0,4.0,-872.0,498.0,-365.0
-214.0,125.0,-86.0,76.0,39.0,4.0,-873.0,496.0,-360.0
-219.0,122.0,-84.0,80.0,42.0,4.0,-870.0,496.0,-368.0
-216.0,126.0,-85.0,82.0,41.0,5.0,-869.0,496.0,-364.0
-218.0,127.0,-87.0,84.0,42.0,7.0,-868.0,496.0,-364.0
-216.0,128.0,-87.0,86.0,43.0,7.0,-867.0,494.0,-361.0
-213.0,126.0,-85.0,89.0,44.0,8.0,-871.0,499.0,-370.0
-216.0,126.0,-85.0,91.0,46.0,8.0,-865.0,491.0,-363.0
-214.0,128.0,-83.0,92.0,46.0,8.0,-868.0,501.0,-362.0
-217.0,129.0,-87.0,93.0,47.0,10.0,-860.0,500.0,-363.0
-215.0,124.0,-84.0,95.0,48.0,9.0,-863.0,495.0,-361.0
-218.0,129.0,-86.0,95.0,51.0,7.0,-863.0,495.0,-357.0
-214.0,131.0,-84.0,96.0,53.0,6.0,-860.0,499.0,-359.0
-216.0,126.0,-79.0,96.0,55.0,5.0,-856.0,499.0,-365.0
-213.0,125.0,-86.0,97.0,57.0,4.0,-857.0,495.0,-365.0
-215.0,127.0,-88.0,97.0,57.0,4.0,-855.0,495.0,-369.0
-214.0,125.0,-88.0,99.0,58.0,2.0,-855.0,489.0,-364.0
-214.0,128.0,-84.0,98.0,60.0,1.0,-855.0,491.0,-363.0
-212.0,124.0,-86.0,96.0,61.0,1.0,-856.0,492.0,-369.0
-212.0,121.0,-91.0,94.0,60.0,-1.0,-855.0,493.0,-370.0
-211.0,126.0,-89.0,92.0,58.0,-1.0,-855.0,490.0,-374.0
-214.0,125.0,-91.0,89.0,57.0,0.0,-857.0,495.0,-375.0
-212.0,124.0,-92.0,86.0,55.0,1.0,-858.0,488.0,-374.0
-212.0,124.0,-90.0,82.0,54.0,0.0,-851.0,492.0,-377.0
-213.0,128.0,-88.0,79.0,54.0,0.0,-855.0,491.0,-379.0
-217.0,129.0,-93.0,75.0,53.0,-1.0,-861.0,485.0,-382.0
-216.0,125.0,-91.0,71.0,50.0,-1.0,-858.0,492.0,-381.0
-212.0,126.0,-90.0,66.0,47.0,-3.0,-861.0,498.0,-380.0
-215.0,126.0,-90.0,62.0,46.0,-6.0,-860.0,493.0,-382.0
-216.0,125.0,-94.0,56.0,42.0,-6.0,-859.0,495.0,-384.0
-214.0,126.0,-92.0,51.0,42.0,-7.0,-857.0,495.0,-380.0
-217.0,125.0,-95.0,47.0,41.0,-9.0,-860.0,487.0,-386.0
-217.0,127.0,-90.0,43.0,38.0,-10.0,-861.0,488.0,-383.0
-217.0,127.0,-90.0,40.0,36.0,-13.0,-862.0,494.0,-386.0
-213.0,124.0,-91.0,36.0,32.0,-12.0,-865.0,491.0,-387.0
-215.0,125.0,-92.0,30.0,30.0,-15.0,-865.0,492.0,-385.0
-214.0,124.0,-92.0,29.0,27.0,-16.0,-861.0,491.0,-386.0
-215.0,126.0,-92.0,25.0,26.0,-17.0,-861.0,491.0,-386.0
-217.0,128.0,-91.0,21.0,22.0,-17.0,-865.0,490.0,-385.0
-216.0,127.0,-90.0,20.0,20.0,-19.0,-864.0,492.0,-381.0
-215.0,126.0,-94.0,18.0,17.0,-18.0,-858.0,497.0,-380.0
-217.0,128.0,-91.0,16.0,14.0,-18.0,-861.0,496.0,-383.0
-216.0,127.0,-95.0,15.0,13.0,-18.0,-858.0,494.0,-381.0
-213.0,126.0,-94.0,12.0,11.0,-19.0,-860.0,492.0,-379.0
-212.0,125.0,-88.0,12.0,8.0,-18.0,-863.0,494.0,-381.0
-214.0,122.0,-88.0,9.0,5.0,-17.0,-858.0,498.0,-377.0
-216.0,122.0,-86.0,8.0,3.0,-18.0,-862.0,497.0,-384.0
-214.0,125.0,-89.0,7.0,1.0,-19.0,-861.0,493.0,-382.0
-213.0,126.0,-88.0,7.0,1.0,-18.0,-860.0,492.0,-373.0
-214.0,128.0,-87.0,8.0,0.0,-17.0,-856.0,491.0,-374.0
-217.0,128.0,-91.0,8.0,-1.0,-16.0,-857.0,492.0,-375.0
-214.0,129.0,-90.0,6.0,-2.0,-15.0,-856.0,492.0,-377.0
-215.0,125.0,-94.0,6.0,-3.0,-16.0,-865.0,498.0,-371.0
-215.0,126.0,-92.0,5.0,-5.0,-15.0,-856.0,491.0,-375.0
-210.0,120.0,-87.0,5.0,-5.0,-15.0,-859.0,495.0,-370.0
-213.0,127.0,-90.0,6.0,-7.0,-14.0,-858.0,491.0,-373.0
-213.0,127.0,-84.0,8.0,-9.0,-12.0,-857.0,498.0,-373.0
-214.0,125.0,-87.0,9.0,-10.0,-10.0,-859.0,491.0,-365.0
-215.0,125.0,-88.0,10.0,-10.0,-10.0,-859.0,489.0,-366.0
-214.0,125.0,-85.0,11.0,-10.0,-10.0,-858.0,493.0,-369.0
-214.0,126.0,-87.0,13.0,-10.0,-8.0,-856.0,496.0,-367.0
-212.0,125.0,-87.0,14.0,-9.0,-7.0,-857.0,492.0,-359.0
-212.0,127.0,-87.0,17.0,-9.0,-7.0,-852.0,493.0,-362.0
-214.0,125.0,-85.0,16.0,-7.0,-7.0,-860.0,494.0,-368.0
-213.0,125.0,-88.0,17.0,-6.0,-4.0,-856.0,497.0,-367.0
-213.0,126.0,-86.0,19.0,-3.0,-2.0,-862.0,494.0,-360.0
-218.0,125.0,-88.0,21.0,-2.0,-2.0,-854.0,496.0,-363.0
-216.0,127.0,-91.0,23.0,2.0,0.0,-859.0,495.0,-360.0
-214.0,127.0,-81.0,24.0,6.0,3.0,-855.0,495.0,-358.0
-213.0,127.0,-86.0,26.0,9.0,4.0,-855.0,497.0,-357.0
-211.0,128.0,-84.0,28.0,15.0,6.0,-864.0,495.0,-362.0
-213.0,128.0,-84.0,28.0,18.0,7.0,-856.0,493.0,-355.0
-216.0,128.0,-83.0,29.0,23.0,8.0,-857.0,495.0,-357.0
-212.0,127.0,-87.0,31.0,27.0,8.0,-862.0,496.0,-357.0
-215.0,123.0,-82.0,33.0,32.0,11.0,-856.0,494.0,-359.0
-213.0,125.0,-85.0,34.0,36.0,12.0,-852.0,498.0,-356.0
-213.0,125.0,-86.0,34.0,39.0,14.0,-864.0,496.0,-361.0
-210.0,128.0,-87.0,35.0,43.0,14.0,-861.0,492.0,-362.0
-218.0,128.0,-86.0,36.0,48.0,15.0,-864.0,498.0,-366.0
-213.0,127.0,-84.0,36.0,52.0,15.0,-860.0,501.0,-365.0
-217.0,128.0,-85.0,36.0,52.0,14.0,-865.0,503.0,-369.0
-215.0,129.0,-86.0,38.0,55.0,14.0,-866.0,504.0,-365.0
-216.0,129.0,-88.0,39.0,57.0,14.0,-866.0,505.0,-366.0
-215.0,128.0,-88.0,42.0,61.0,14.0,-862.0,507.0,-368.0
-216.0,129.0,-90.0,45.0,65.0,13.0,-860.0,503.0,-372.0
-213.0,126.0,-88.0,47.0,66.0,13.0,-859.0,504.0,-372.0
-214.0,127.0,-87.0,50.0,66.0,13.0,-858.0,502.0,-373.0
-213.0,127.0,-89.0,54.0,65.0,11.0,-860.0,503.0,-369.0
-212.0,127.0,-90.0,56.0,65.0,9.0,-852.0,501.0,-369.0
-213.0,124.0,-84.0,58.0,65.0,9.0,-857.0,500.0,-372.0
-214.0,128.0,-90.0,59.0,62.0,8.0,-851.0,496.0,-369.0
-210.0,126.0,-90.0,61.0,61.0,9.0,-856.0,499.0,-369.0
-211.0,127.0,-91.0,61.0,60.0,8.0,-858.0,497.0,-379.0
-211.0,126.0,-90.0,61.0,58.0,6.0,-852.0,494.0,-369.0
-213.0,127.0,-93.0,59.0,59.0,6.0,-862.0,495.0,-375.0
-214.0,129.0,-91.0,59.0,58.0,6.0,-850.0,496.0,-375.0
-213.0,127.0,-87.0,57.0,57.0,6.0,-851.0,493.0,-374.0
-210.0,121.0,-87.0,54.0,57.0,6.0,-853.0,488.0,-374.0
-215.0,128.0,-89.0,51.0,59.0,8.0,-854.0,493.0,-374.0
-216.0,127.0,-93.0,47.0,59.0,11.0,-851.0,491.0,-378.0
-215.0,125.0,-91.0,44.0,58.0,11.0,-853.0,492.0,-382.0
-213.0,127.0,-91.0,41.0,58.0,14.0,-852.0,496.0,-381.0
-215.0,128.0,-92.0,38.0,59.0,16.0,-854.0,499.0,-385.0
-214.0,126.0,-91.0,34.0,58.0,18.0,-857.0,501.0,-382.0
-212.0,128.0,-91.0,30.0,58.0,19.0,-855.0,501.0,-380.0
-214.0,126.0,-94.0,27.0,58.0,20.0,-850.0,504.0,-380.0
-214.0,128.0,-92.0,25.0,58.0,22.0,-851.0,503.0,-378.0
-213.0,129.0,-94.0,23.0,56.0,22.0,-851.0,502.0,-379.0
-211.0,128.0,-87.0,22.0,55.0,22.0,-860.0,504.0,-380.0
-213.0,129.0,-89.0,22.0,51.0,20.0,-850.0,501.0,-383.0
-213.0,128.0,-99.0,22.0,48.0,19.0,-853.0,505.0,-380.0
-213.0,128.0,-88.0,21.0,43.0,16.0,-858.0,504.0,-383.0
-212.0,128.0,-93.0,22.0,40.0,16.0,-851.0,503.0,-383.0
-213.0,128.0,-90.0,22.0,37.0,12.0,-855.0,508.0,-386.0
-212.0,128.0,-90.0,23.0,33.0,9.0,-851.0,503.0,-388.0
-213.0,129.0,-93.0,24.0,30.0,7.0,-856.0,505.0,-387.0
-214.0,128.0,-90.0,23.0,26.0,5.0,-858.0,502.0,-382.0
-215.0,129.0,-89.0,24.0,22.0,3.0,-858.0,504.0,-382.0
-214.0,129.0,-92.0,24.0,18.0,1.0,-852.0,509.0,-384.0
-208.0,128.0,-91.0,24.0,15.0,0.0,-852.0,513.0,-375.0
-213.0,128.0,-93.0,25.0,13.0,-1.0,-854.0,504.0,-386.0
-214.0,129.0,-93.0,27.0,10.0,-4.0,-851.0,503.0,-377.0
-217.0,128.0,-97.0,28.0,9.0,-3.0,-855.0,503.0,-372.0
-214.0,129.0,-94.0,28.0,7.0,-4.0,-849.0,502.0,-376.0
-214.0,129.0,-89.0,28.0,8.0,-5.0,-856.0,501.0,-371.0
-214.0,129.0,-90.0,31.0,8.0,-6.0,-854.0,505.0,-373.0
-211.0,129.0,-91.0,30.0,10.0,-7.0,-853.0,502.0,-376.0
-216.0,128.0,-88.0,31.0,12.0,-8.0,-852.0,502.0,-374.0
-212.0,128.0,-88.0,31.0,12.0,-8.0,-852.0,500.0,-374.0
-214.0,129.0,-91.0,31.0,15.0,-7.0,-852.0,499.0,-376.0
-214.0,128.0,-91.0,30.0,18.0,-8.0,-851.0,504.0,-372.0
-212.0,127.0,-87.0,30.0,20.0,-8.0,-851.0,502.0,-378.0
-215.0,128.0,-91.0,31.0,22.0,-4.0,-851.0,503.0,-372.0
-217.0,129.0,-91.0,32.0,23.0,-7.0,-854.0,506.0,-373.0
-214.0,128.0,-86.0,33.0,24.0,-6.0,-853.0,499.0,-380.0
-212.0,128.0,-89.0,32.0,25.0,-5.0,-849.0,505.0,-369.0
-213.0,127.0,-91.0,31.0,26.0,-5.0,-851.0,503.0,-375.0
-215.0,129.0,-91.0,33.0,24.0,-2.0,-849.0,506.0,-369.0
-214.0,129.0,-88.0,32.0,24.0,-2.0,-849.0,503.0,-371.0
-213.0,128.0,-85.0,34.0,25.0,-2.0,-849.0,505.0,-372.0
-212.0,127.0,-87.0,35.0,26.0,-3.0,-851.0,505.0,-369.0
-216.0,130.0,-88.0,35.0,28.0,-3.0,-850.0,507.0,-376.0
-213.0,129.0,-86.0,36.0,29.0,-4.0,-849.0,504.0,-373.0
-211.0,130.0,-89.0,38.0,32.0,-4.0,-855.0,504.0,-372.0
-212.0,128.0,-92.0,41.0,33.0,-5.0,-851.0,504.0,-374.0
-211.0,128.0,-89.0,44.0,33.0,-6.0,-853.0,506.0,-382.0
-210.0,127.0,-85.0,45.0,33.0,-6.0,-851.0,504.0,-379.0
-211.0,127.0,-90.0,47.0,33.0,-7.0,-857.0,503.0,-377.0
-212.0,129.0,-90.0,48.0,31.0,-7.0,-847.0,504.0,-378.0
-212.0,128.0,-87.0,49.0,28.0,-6.0,-852.0,502.0,-379.0
-213.0,127.0,-89.0,50.0,26.0,-8.0,-858.0,504.0,-380.0
-212.0,128.0,-88.0,52.0,25.0,-8.0,-859.0,504.0,-380.0
-211.0,132.0,-90.0,53.0,24.0,-8.0,-850.0,501.0,-379.0
-213.0,128.0,-90.0,54.0,22.0,-8.0,-850.0,504.0,-380.0
-214.0,129.0,-91.0,54.0,19.0,-7.0,-852.0,502.0,-385.0
-213.0,128.0,-92.0,55.0,20.0,-8.0,-849.0,504.0,-373.0
-213.0,131.0,-90.0,55.0,20.0,-8.0,-849.0,506.0,-378.0
-211.0,129.0,-93.0,55.0,19.0,-8.0,-854.0,500.0,-376.0
-212.0,128.0,-90.0,55.0,17.0,-9.0,-851.0,505.0,-378.0
-211.0,128.0,-94.0,56.0,16.0,-11.0,-849.0,507.0,-380.0
-212.0,129.0,-93.0,56.0,15.0,-10.0,-855.0,504.0,-381.0
-213.0,128.0,-90.0,56.0,15.0,-10.0,-854.0,504.0,-385.0
-215.0,129.0,-95.0,55.0,15.0,-12.0,-855.0,509.0,-380.0
-211.0,128.0,-90.0,55.0,14.0,-12.0,-856.0,503.0,-376.0
-214.0,131.0,-92.0,55.0,14.0,-12.0,-853.0,505.0,-385.0
-210.0,124.0,-92.0,54.0,13.0,-13.0,-851.0,502.0,-383.0
-213.0,129.0,-91.0,54.0,12.0,-13.0,-858.0,511.0,-380.0
-211.0,128.0,-93.0,52.0,9.0,-12.0,-851.0,505.0,-382.0
-214.0,129.0,-90.0,52.0,8.0,-13.0,-851.0,506.0,-379.0
-213.0,129.0,-94.0,52.0,7.0,-14.0,-849.0,505.0,-380.0
-209.0,127.0,-92.0,53.0,6.0,-16.0,-849.0,503.0,-381.0
-214.0,127.0,-89.0,53.0,5.0,-16.0,-845.0,507.0,-377.0
-212.0,129.0,-92.0,52.0,3.0,-17.0,-853.0,506.0,-377.0
-213.0,127.0,-90.0,52.0,1.0,-17.0,-855.0,502.0,-382.0
-213.0,125.0,-87.0,52.0,0.0,-17.0,-851.0,509.0,-376.0
-213.0,128.0,-90.0,53.0,-1.0,-19.0,-853.0,502.0,-376.0
-213.0,130.0,-97.0,52.0,-3.0,-19.0,-852.0,505.0,-377.0
-211.0,127.0,-93.0,52.0,-3.0,-20.0,-852.0,504.0,-379.0
-212.0,129.0,-91.0,51.0,-2.0,-20.0,-854.0,502.0,-383.0
-213.0,127.0,-89.0,52.0,-3.0,-21.0,-852.0,499.0,-378.0
-215.0,128.0,-88.0,53.0,-4.0,-20.0,-851.0,502.0,-376.0
-211.0,128.0,-89.0,53.0,-5.0,-20.0,-855.0,504.0,-375.0
-213.0,127.0,-90.0,53.0,-5.0,-20.0,-849.0,502.0,-379.0
-212.0,128.0,-91.0,51.0,-4.0,-19.0,-856.0,500.0,-380.0
-213.0,127.0,-90.0,51.0,-4.0,-21.0,-848.0,504.0,-372.0
-211.0,128.0,-90.0,51.0,-3.0,-17.0,-849.0,503.0,-378.0
-214.0,128.0,-93.0,49.0,-2.0,-18.0,-846.0,503.0,-375.0
-210.0,121.0,-89.0,49.0,-1.0,-16.0,-850.0,503.0,-373.0
-213.0,127.0,-90.0,49.0,-2.0,-17.0,-854.0,501.0,-372.0
-213.0,127.0,-90.0,50.0,0.0,-17.0,-851.0,503.0,-375.0
-213.0,129.0,-90.0,49.0,0.0,-17.0,-848.0,503.0,-374.0
-213.0,127.0,-92.0,50.0,-1.0,-17.0,-852.0,503.0,-376.0
-211.0,127.0,-87.0,50.0,-1.0,-17.0,-856.0,500.0,-374.0
-213.0,129.0,-85.0,50.0,1.0,-15.0,-851.0,500.0,-376.0
-212.0,124.0,-88.0,50.0,1.0,-16.0,-853.0,498.0,-375.0
-212.0,131.0,-92.0,49.0,1.0,-15.0,-849.0,498.0,-377.0
-213.0,128.0,-88.0,51.0,1.0,-15.0,-853.0,501.0,-376.0
-213.0,127.0,-86.0,50.0,0.0,-15.0,-850.0,501.0,-379.0
-213.0,127.0,-88.0,49.0,-1.0,-14.0,-849.0,504.0,-373.0
-216.0,130.0,-89.0,50.0,-2.0,-14.0,-850.0,502.0,-375.0
-213.0,129.0,-91.0,51.0,-2.0,-15.0,-858.0,502.0,-382.0
-213.0,128.0,-87.0,50.0,-3.0,-13.0,-852.0,500.0,-375.0
-214.0,129.0,-87.0,50.0,-3.0,-14.0,-853.0,505.0,-369.0
-215.0,129.0,-91.0,50.0,-3.0,-16.0,-856.0,502.0,-375.0
-212.0,127.0,-92.0,50.0,-3.0,-14.0,-859.0,504.0,-373.0
-211.0,127.0,-90.0,50.0,-3.0,-15.0,-851.0,500.0,-374.0
-213.0,127.0,-92.0,51.0,-3.0,-14.0,-854.0,503.0,-368.0
-213.0,130.0,-90.0,52.0,-3.0,-16.0,-852.0,500.0,-373.0
-215.0,127.0,-90.0,53.0,-2.0,-17.0,-853.0,503.0,-371.0
-213.0,127.0,-87.0,52.0,-1.0,-15.0,-848.0,500.0,-375.0
-213.0,129.0,-88.0,52.0,-2.0,-15.0,-855.0,500.0,-371.0
-212.0,127.0,-89.0,54.0,-3.0,-16.0,-853.0,505.0,-372.0
-213.0,128.0,-91.0,53.0,-2.0,-15.0,-854.0,503.0,-372.0
-212.0,127.0,-90.0,53.0,-1.0,-16.0,-856.0,502.0,-375.0
-215.0,127.0,-90.0,53.0,-1.0,-15.0,-852.0,499.0,-370.0
-212.0,127.0,-88.0,55.0,-1.0,-15.0,-852.0,500.0,-375.0
-212.0,128.0,-90.0,54.0,0.0,-15.0,-856.0,504.0,-371.0
-210.0,129.0,-89.0,55.0,1.0,-14.0,-858.0,501.0,-368.0
-214.0,129.0,-89.0,55.0,1.0,-15.0,-851.0,503.0,-372.0
-212.0,128.0,-92.0,56.0,1.0,-14.0,-856.0,499.0,-374.0
-213.0,128.0,-85.0,56.0,1.0,-15.0,-854.0,502.0,-377.0
-216.0,129.0,-86.0,57.0,0.0,-13.0,-854.0,501.0,-373.0
-215.0,130.0,-88.0,58.0,-1.0,-13.0,-851.0,503.0,-377.0
-211.0,128.0,-89.0,57.0,-1.0,-13.0,-860.0,501.0,-371.0
-214.0,128.0,-88.0,57.0,0.0,-13.0,-853.0,500.0,-370.0
-211.0,127.0,-92.0,58.0,-1.0,-15.0,-855.0,504.0,-373.0
-211.0,126.0,-91.0,58.0,-1.0,-15.0,-855.0,502.0,-379.0
-212.0,128.0,-85.0,58.0,0.0,-15.0,-854.0,503.0,-376.0
-214.0,126.0,-89.0,59.0,0.0,-15.0,-855.0,497.0,-377.0
-210.0,127.0,-89.0,60.0,-2.0,-13.0,-856.0,498.0,-367.0
-214.0,128.0,-91.0,59.0,-2.0,-15.0,-852.0,502.0,-373.0
-213.0,126.0,-92.0,58.0,-1.0,-14.0,-856.0,504.0,-369.0
-213.0,127.0,-89.0,59.0,-1.0,-15.0,-850.0,502.0,-369.0
-214.0,128.0,-88.0,59.0,-1.0,-16.0,-852.0,503.0,-373.0
-211.0,125.0,-90.0,59.0,-2.0,-14.0,-854.0,498.0,-374.0
-213.0,127.0,-86.0,57.0,-3.0,-15.0,-857.0,498.0,-376.0
-213.0,129.0,-93.0,57.0,-2.0,-15.0,-855.0,498.0,-378.0
-214.0,127.0,-88.0,54.0,-3.0,-14.0,-852.0,504.0,-374.0
-213.0,129.0,-89.0,52.0,-2.0,-15.0,-854.0,498.0,-378.0
-214.0,128.0,-91.0,52.0,-1.0,-13.0,-855.0,503.0,-371.0
-214.0,128.0,-90.0,50.0,-2.0,-13.0,-856.0,502.0,-373.0
-213.0,126.0,-87.0,49.0,-2.0,-13.0,-855.0,504.0,-377.0
-213.0,127.0,-92.0,48.0,0.0,-14.0,-853.0,506.0,-371.0
-213.0,127.0,-92.0,48.0,2.0,-15.0,-861.0,501.0,-374.0
-213.0,127.0,-92.0,50.0,4.0,-16.0,-860.0,506.0,-376.0
-211.0,126.0,-91.0,53.0,2.0,-15.0,-850.0,508.0,-372.0
-212.0,127.0,-90.0,53.0,1.0,-17.0,-849.0,512.0,-372.0
-217.0,130.0,-87.0,55.0,-1.0,-17.0,-864.0,506.0,-379.0
-214.0,131.0,-91.0,55.0,-3.0,-17.0,-858.0,503.0,-378.0
-213.0,128.0,-84.0,59.0,-3.0,-19.0,-852.0,502.0,-368.0
-208.0,128.0,-92.0,59.0,-5.0,-20.0,-850.0,501.0,-372.0
-212.0,125.0,-87.0,59.0,-6.0,-21.0,-856.0,502.0,-371.0
-208.0,125.0,-88.0,60.0,-5.0,-21.0,-851.0,501.0,-371.0
-211.0,125.0,-89.0,61.0,-7.0,-21.0,-856.0,494.0,-374.0
-213.0,128.0,-91.0,60.0,-7.0,-22.0,-852.0,502.0,-370.0
-210.0,125.0,-86.0,58.0,-7.0,-21.0,-848.0,491.0,-368.0
-213.0,128.0,-92.0,58.0,-8.0,-20.0,-855.0,496.0,-372.0
-211.0,126.0,-83.0,59.0,-8.0,-21.0,-853.0,494.0,-372.0
-210.0,125.0,-88.0,56.0,-8.0,-20.0,-855.0,494.0,-367.0
-212.0,128.0,-88.0,55.0,-7.0,-19.0,-856.0,494.0,-371.0
-213.0,124.0,-90.0,54.0,-6.0,-17.0,-857.0,497.0,-375.0
-214.0,124.0,-91.0,51.0,-4.0,-16.0,-852.0,496.0,-374.0
-215.0,126.0,-93.0,49.0,-4.0,-15.0,-855.0,497.0,-379.0
-217.0,128.0,-90.0,47.0,-3.0,-14.0,-857.0,498.0,-371.0
-213.0,126.0,-91.0,46.0,-4.0,-11.0,-862.0,497.0,-373.0
-213.0,127.0,-84.0,45.0,-4.0,-10.0,-858.0,504.0,-372.0
-213.0,126.0,-88.0,45.0,-2.0,-8.0,-852.0,505.0,-383.0
-215.0,128.0,-86.0,45.0,-3.0,-10.0,-855.0,506.0,-371.0
-213.0,127.0,-87.0,44.0,-4.0,-9.0,-855.0,499.0,-371.0
-213.0,128.0,-88.0,43.0,-5.0,-9.0,-856.0,499.0,-369.0
-215.0,126.0,-89.0,45.0,-7.0,-9.0,-857.0,499.0,-368.0
-216.0,128.0,-84.0,45.0,-8.0,-10.0,-857.0,503.0,-368.0
-216.0,129.0,-85.0,46.0,-6.0,-11.0,-858.0,502.0,-365.0
-212.0,127.0,-91.0,46.0,-8.0,-11.0,-857.0,502.0,-363.0
-215.0,131.0,-95.0,47.0,-7.0,-12.0,-852.0,503.0,-372.0
-214.0,128.0,-88.0,47.0,-8.0,-13.0,-855.0,502.0,-377.0
-212.0,127.0,-87.0,47.0,-7.0,-13.0,-864.0,503.0,-368.0
-213.0,126.0,-91.0,48.0,-8.0,-15.0,-862.0,502.0,-370.0
-215.0,124.0,-87.0,48.0,-10.0,-17.0,-859.0,499.0,-377.0
-214.0,128.0,-88.0,50.0,-10.0,-17.0,-859.0,499.0,-374.0
-213.0,125.0,-86.0,51.0,-13.0,-16.0,-862.0,505.0,-366.0
-212.0,127.0,-85.0,53.0,-17.0,-17.0,-858.0,506.0,-370.0
-213.0,127.0,-88.0,55.0,-17.0,-20.0,-855.0,500.0,-372.0
-211.0,126.0,-86.0,56.0,-16.0,-22.0,-855.0,500.0,-369.0
-213.0,128.0,-89.0,58.0,-18.0,-22.0,-852.0,503.0,-368.0
-219.0,128.0,-86.0,58.0,-18.0,-21.0,-859.0,502.0,-369.0
-214.0,127.0,-88.0,59.0,-18.0,-23.0,-860.0,503.0,-366.0
-215.0,128.0,-90.0,60.0,-18.0,-22.0,-858.0,500.0,-365.0
-216.0,128.0,-85.0,61.0,-16.0,-22.0,-856.0,496.0,-367.0
-214.0,129.0,-84.0,60.0,-14.0,-22.0,-861.0,498.0,-364.0
-214.0,128.0,-88.0,59.0,-13.0,-21.0,-853.0,495.0,-367.0
-214.0,127.0,-85.0,60.0,-10.0,-20.0,-862.0,497.0,-369.0
-215.0,127.0,-89.0,58.0,-7.0,-18.0,-856.0,495.0,-366.0
-212.0,126.0,-87.0,58.0,-5.0,-18.0,-858.0,497.0,-363.0
-214.0,128.0,-92.0,59.0,-3.0,-18.0,-857.0,497.0,-365.0
-211.0,122.0,-85.0,58.0,-1.0,-17.0,-859.0,500.0,-366.0
-219.0,128.0,-87.0,58.0,2.0,-17.0,-855.0,495.0,-371.0
-216.0,126.0,-89.0,55.0,2.0,-16.0,-856.0,499.0,-363.0
-210.0,125.0,-86.0,55.0,5.0,-14.0,-856.0,505.0,-361.0
-213.0,128.0,-85.0,55.0,5.0,-12.0,-853.0,498.0,-370.0
-212.0,126.0,-90.0,53.0,4.0,-12.0,-853.0,502.0,-365.0
-216.0,130.0,-86.0,53.0,5.0,-12.0,-855.0,496.0,-362.0
-214.0,126.0,-89.0,53.0,6.0,-11.0,-859.0,501.0,-373.0
-212.0,128.0,-87.0,54.0,7.0,-14.0,-859.0,504.0,-370.0
-215.0,125.0,-85.0,54.0,6.0,-14.0,-862.0,501.0,-373.0
-214.0,127.0,-91.0,54.0,6.0,-16.0,-867.0,500.0,-375.0
-213.0,122.0,-90.0,54.0,7.0,-15.0,-864.0,502.0,-370.0
-218.0,127.0,-89.0,55.0,6.0,-16.0,-865.0,500.0,-370.0
-217.0,128.0,-87.0,57.0,6.0,-18.0,-858.0,500.0,-373.0
-215.0,125.0,-89.0,58.0,4.0,-18.0,-863.0,503.0,-376.0
-216.0,127.0,-88.0,60.0,1.0,-19.0,-868.0,503.0,-370.0
-216.0,128.0,-95.0,62.0,-5.0,-21.0,-860.0,500.0,-376.0
-214.0,127.0,-93.0,64.0,-9.0,-21.0,-860.0,503.0,-375.0
-216.0,128.0,-89.0,65.0,-14.0,-25.0,-869.0,502.0,-376.0
-217.0,127.0,-89.0,66.0,-18.0,-26.0,-869.0,500.0,-378.0
-216.0,128.0,-90.0,68.0,-23.0,-28.0,-868.0,504.0,-371.0
-217.0,125.0,-92.0,71.0,-28.0,-30.0,-873.0,501.0,-377.0
-215.0,123.0,-89.0,71.0,-33.0,-31.0,-869.0,503.0,-377.0
-225.0,126.0,-92.0,72.0,-36.0,-32.0,-873.0,503.0,-373.0
-217.0,127.0,-87.0,75.0,-40.0,-35.0,-872.0,502.0,-378.0
-217.0,127.0,-87.0,76.0,-40.0,-37.0,-872.0,503.0,-375.0
-217.0,127.0,-89.0,77.0,-43.0,-36.0,-868.0,501.0,-374.0
-215.0,128.0,-90.0,78.0,-47.0,-39.0,-865.0,503.0,-376.0
-215.0,127.0,-88.0,77.0,-48.0,-41.0,-870.0,503.0,-370.0
-216.0,125.0,-83.0,78.0,-48.0,-42.0,-864.0,500.0,-368.0
-212.0,125.0,-84.0,80.0,-47.0,-41.0,-866.0,499.0,-359.0
-213.0,123.0,-87.0,81.0,-45.0,-40.0,-856.0,500.0,-357.0
-217.0,129.0,-86.0,82.0,-40.0,-39.0,-854.0,495.0,-345.0
-211.0,126.0,-82.0,81.0,-34.0,-39.0,-852.0,499.0,-348.0
-213.0,121.0,-87.0,81.0,-27.0,-37.0,-851.0,496.0,-340.0
-210.0,124.0,-81.0,80.0,-20.0,-36.0,-849.0,489.0,-340.0
-211.0,125.0,-77.0,80.0,-11.0,-33.0,-843.0,489.0,-336.0
-209.0,124.0,-79.0,78.0,0.0,-32.0,-837.0,486.0,-335.0
-211.0,124.0,-78.0,78.0,11.0,-30.0,-846.0,471.0,-338.0
-211.0,124.0,-81.0,79.0,21.0,-26.0,-848.0,479.0,-342.0
-211.0,122.0,-83.0,78.0,31.0,-21.0,-855.0,473.0,-345.0
-209.0,123.0,-81.0,77.0,42.0,-17.0,-855.0,470.0,-345.0
-214.0,124.0,-82.0,75.0,50.0,-12.0,-852.0,477.0,-351.0
-209.0,121.0,-86.0,75.0,56.0,-8.0,-852.0,481.0,-357.0
-213.0,121.0,-83.0,73.0,62.0,-2.0,-857.0,481.0,-362.0
-216.0,129.0,-89.0,74.0,65.0,2.0,-851.0,480.0,-361.0
-216.0,124.0,-90.0,75.0,64.0,4.0,-856.0,485.0,-370.0
-214.0,124.0,-90.0,75.0,61.0,5.0,-857.0,487.0,-369.0
-211.0,124.0,-87.0,75.0,58.0,4.0,-856.0,490.0,-370.0
-213.0,126.0,-90.0,77.0,54.0,3.0,-860.0,488.0,-377.0
-214.0,125.0,-89.0,77.0,49.0,3.0,-857.0,485.0,-376.0
-215.0,125.0,-91.0,75.0,46.0,3.0,-864.0,486.0,-374.0
-214.0,127.0,-87.0,75.0,40.0,2.0,-861.0,501.0,-377.0
-217.0,128.0,-88.0,75.0,37.0,2.0,-862.0,502.0,-378.0
-218.0,127.0,-89.0,74.0,34.0,3.0,-864.0,500.0,-378.0
-215.0,127.0,-87.0,74.0,31.0,2.0,-865.0,504.0,-376.0
-211.0,128.0,-89.0,73.0,30.0,2.0,-861.0,505.0,-382.0
-214.0,126.0,-89.0,73.0,27.0,0.0,-872.0,503.0,-376.0
-214.0,129.0,-90.0,73.0,23.0,-1.0,-867.0,500.0,-378.0
-218.0,128.0,-90.0,73.0,22.0,-3.0,-868.0,503.0,-381.0
-217.0,128.0,-91.0,74.0,17.0,-4.0,-861.0,500.0,-379.0
-215.0,127.0,-90.0,72.0,13.0,-5.0,-866.0,495.0,-387.0
-217.0,127.0,-90.0,71.0,8.0,-7.0,-866.0,503.0,-381.0
-212.0,124.0,-92.0,68.0,4.0,-8.0,-860.0,497.0,-380.0
-214.0,125.0,-93.0,66.0,0.0,-10.0,-864.0,495.0,-371.0
-215.0,128.0,-90.0,65.0,-3.0,-12.0,-862.0,492.0,-374.0
-215.0,125.0,-86.0,61.0,-6.0,-11.0,-857.0,495.0,-374.0
-215.0,125.0,-90.0,57.0,-8.0,-12.0,-859.0,497.0,-383.0
-216.0,127.0,-89.0,55.0,-11.0,-12.0,-861.0,487.0,-372.0
-215.0,126.0,-88.0,51.0,-12.0,-11.0,-860.0,490.0,-377.0
-214.0,126.0,-86.0,46.0,-13.0,-8.0,-858.0,486.0,-371.0
-215.0,123.0,-85.0,41.0,-15.0,-9.0,-867.0,492.0,-374.0
-216.0,125.0,-91.0,38.0,-14.0,-7.0,-858.0,485.0,-375.0
-211.0,120.0,-87.0,32.0,-14.0,-6.0,-856.0,485.0,-378.0
-217.0,128.0,-90.0,27.0,-14.0,-3.0,-857.0,491.0,-370.0
-215.0,126.0,-87.0,21.0,-13.0,-2.0,-859.0,489.0,-368.0
-213.0,127.0,-88.0,15.0,-14.0,-3.0,-859.0,492.0,-368.0
-215.0,124.0,-86.0,10.0,-12.0,-1.0,-861.0,489.0,-371.0
-214.0,127.0,-87.0,5.0,-12.0,1.0,-859.0,497.0,-369.0
-215.0,127.0,-89.0,3.0,-12.0,1.0,-863.0,500.0,-374.0
-213.0,126.0,-91.0,-1.0,-11.0,3.0,-858.0,499.0,-371.0
-215.0,126.0,-88.0,-2.0,-12.0,-1.0,-859.0,497.0,-370.0
-213.0,128.0,-91.0,-2.0,-12.0,-3.0,-866.0,503.0,-372.0
-212.0,127.0,-87.0,-5.0,-14.0,-4.0,-857.0,505.0,-372.0
-213.0,128.0,-87.0,-4.0,-14.0,-7.0,-861.0,503.0,-366.0
-215.0,128.0,-84.0,-5.0,-15.0,-8.0,-857.0,503.0,-372.0
-212.0,127.0,-86.0,-3.0,-15.0,-11.0,-858.0,503.0,-368.0
-213.0,128.0,-88.0,-2.0,-17.0,-12.0,-859.0,503.0,-369.0
-215.0,130.0,-93.0,-1.0,-18.0,-14.0,-859.0,504.0,-366.0
-215.0,127.0,-85.0,0.0,-17.0,-18.0,-857.0,500.0,-364.0
-213.0,127.0,-84.0,0.0,-18.0,-19.0,-856.0,500.0,-363.0
-213.0,127.0,-86.0,2.0,-18.0,-20.0,-863.0,497.0,-361.0
-215.0,123.0,-82.0,5.0,-17.0,-20.0,-856.0,499.0,-357.0
-212.0,127.0,-82.0,6.0,-15.0,-20.0,-859.0,499.0,-354.0
-217.0,127.0,-81.0,9.0,-12.0,-19.0,-859.0,499.0,-354.0
-216.0,124.0,-83.0,10.0,-10.0,-18.0,-859.0,495.0,-353.0
-214.0,129.0,-86.0,13.0,-6.0,-16.0,-861.0,495.0,-343.0
-213.0,126.0,-81.0,16.0,-2.0,-15.0,-858.0,499.0,-354.0
-212.0,126.0,-84.0,20.0,3.0,-15.0,-863.0,495.0,-347.0
-211.0,123.0,-83.0,23.0,9.0,-13.0,-865.0,493.0,-347.0
-212.0,126.0,-82.0,25.0,13.0,-10.0,-857.0,496.0,-344.0
-214.0,126.0,-83.0,28.0,20.0,-6.0,-858.0,489.0,-340.0
-215.0,125.0,-82.0,29.0,26.0,-4.0,-860.0,493.0,-340.0
-214.0,125.0,-81.0,32.0,32.0,-3.0,-864.0,486.0,-345.0
-215.0,126.0,-86.0,35.0,36.0,1.0,-858.0,488.0,-348.0
-216.0,127.0,-88.0,37.0,42.0,6.0,-865.0,489.0,-344.0
-214.0,126.0,-81.0,39.0,49.0,8.0,-860.0,494.0,-356.0
-217.0,126.0,-83.0,39.0,53.0,11.0,-868.0,489.0,-357.0
-215.0,126.0,-88.0,40.0,56.0,15.0,-859.0,493.0,-354.0
-217.0,125.0,-87.0,42.0,62.0,17.0,-860.0,491.0,-353.0
-210.0,125.0,-80.0,43.0,66.0,19.0,-864.0,491.0,-359.0
-216.0,126.0,-85.0,44.0,68.0,23.0,-867.0,491.0,-360.0
-216.0,129.0,-85.0,42.0,71.0,24.0,-864.0,489.0,-367.0
-215.0,126.0,-83.0,42.0,73.0,28.0,-862.0,494.0,-363.0
-212.0,125.0,-83.0,41.0,74.0,29.0,-864.0,490.0,-362.0
-216.0,128.0,-87.0,41.0,75.0,32.0,-871.0,497.0,-361.0
-216.0,127.0,-87.0,42.0,77.0,34.0,-862.0,491.0,-366.0
-215.0,125.0,-86.0,41.0,77.0,35.0,-866.0,498.0,-368.0
-213.0,126.0,-87.0,39.0,77.0,34.0,-862.0,502.0,-374.0
-216.0,128.0,-91.0,37.0,78.0,36.0,-860.0,501.0,-374.0
-216.0,127.0,-90.0,36.0,77.0,36.0,-865.0,505.0,-370.0
-221.0,126.0,-91.0,36.0,77.0,37.0,-864.0,505.0,-374.0
-215.0,128.0,-89.0,38.0,76.0,37.0,-862.0,501.0,-383.0
-217.0,129.0,-93.0,39.0,71.0,37.0,-867.0,504.0,-380.0
-212.0,126.0,-92.0,39.0,66.0,35.0,-865.0,504.0,-381.0
-216.0,129.0,-96.0,41.0,59.0,32.0,-861.0,510.0,-382.0
-216.0,130.0,-92.0,41.0,51.0,31.0,-861.0,509.0,-386.0
-215.0,129.0,-92.0,42.0,44.0,28.0,-854.0,503.0,-378.0
-216.0,129.0,-91.0,41.0,35.0,24.0,-859.0,504.0,-380.0
-214.0,129.0,-87.0,42.0,27.0,22.0,-857.0,504.0,-377.0
-215.0,127.0,-93.0,43.0,20.0,19.0,-855.0,506.0,-373.0
-216.0,128.0,-85.0,43.0,16.0,17.0,-851.0,505.0,-378.0
-213.0,128.0,-87.0,41.0,11.0,13.0,-853.0,503.0,-377.0
-215.0,130.0,-88.0,41.0,7.0,10.0,-852.0,504.0,-376.0
-213.0,129.0,-89.0,41.0,4.0,8.0,-851.0,500.0,-379.0
-213.0,129.0,-88.0,39.0,2.0,5.0,-859.0,500.0,-375.0
-214.0,130.0,-91.0,37.0,-2.0,3.0,-851.0,504.0,-378.0
-213.0,128.0,-89.0,35.0,-4.0,2.0,-850.0,504.0,-369.0
-214.0,126.0,-85.0,33.0,-6.0,3.0,-854.0,504.0,-372.0
-212.0,129.0,-91.0,31.0,-7.0,3.0,-854.0,504.0,-377.0
-213.0,128.0,-89.0,28.0,-8.0,4.0,-853.0,505.0,-376.0
-211.0,129.0,-86.0,26.0,-10.0,1.0,-853.0,501.0,-371.0
-209.0,129.0,-89.0,23.0,-10.0,2.0,-848.0,503.0,-366.0
-211.0,125.0,-86.0,24.0,-13.0,2.0,-852.0,507.0,-369.0
-212.0,127.0,-87.0,23.0,-12.0,2.0,-851.0,504.0,-365.0
-211.0,128.0,-85.0,22.0,-13.0,0.0,-851.0,504.0,-364.0
-212.0,130.0,-88.0,21.0,-14.0,-1.0,-857.0,506.0,-362.0
-214.0,128.0,-85.0,22.0,-14.0,-1.0,-854.0,505.0,-360.0
-212.0,128.0,-84.0,22.0,-13.0,-4.0,-854.0,504.0,-358.0
-213.0,130.0,-86.0,22.0,-10.0,-4.0,-861.0,505.0,-358.0
-215.0,132.0,-87.0,22.0,-6.0,-6.0,-855.0,506.0,-365.0
-215.0,128.0,-87.0,22.0,-3.0,-8.0,-869.0,509.0,-366.0
-216.0,134.0,-87.0,23.0,1.0,-9.0,-860.0,504.0,-364.0
-219.0,131.0,-90.0,23.0,3.0,-10.0,-866.0,514.0,-366.0
-213.0,128.0,-89.0,25.0,6.0,-11.0,-865.0,513.0,-365.0
-214.0,128.0,-90.0,26.0,6.0,-13.0,-862.0,514.0,-368.0
-216.0,129.0,-89.0,28.0,6.0,-15.0,-866.0,506.0,-370.0
-216.0,129.0,-86.0,29.0,6.0,-17.0,-868.0,506.0,-367.0
-212.0,132.0,-87.0,32.0,5.0,-17.0,-859.0,508.0,-364.0
-214.0,130.0,-82.0,33.0,5.0,-17.0,-861.0,506.0,-363.0
-214.0,127.0,-84.0,37.0,4.0,-17.0,-859.0,507.0,-363.0
-214.0,128.0,-85.0,39.0,3.0,-19.0,-859.0,504.0,-363.0
-213.0,129.0,-87.0,40.0,4.0,-21.0,-857.0,508.0,-358.0
-211.0,127.0,-87.0,43.0,3.0,-21.0,-857.0,504.0,-364.0
-213.0,127.0,-83.0,45.0,4.0,-21.0,-856.0,505.0,-362.0
-213.0,126.0,-86.0,45.0,6.0,-23.0,-852.0,501.0,-356.0
-212.0,128.0,-87.0,47.0,7.0,-22.0,-857.0,508.0,-359.0
-213.0,128.0,-87.0,47.0,8.0,-21.0,-854.0,503.0,-355.0
-213.0,129.0,-84.0,49.0,9.0,-20.0,-859.0,501.0,-364.0
-212.0,129.0,-83.0,50.0,12.0,-19.0,-856.0,504.0,-357.0
-214.0,128.0,-86.0,51.0,14.0,-19.0,-854.0,504.0,-363.0
-213.0,128.0,-86.0,51.0,17.0,-17.0,-856.0,505.0,-357.0
-212.0,129.0,-81.0,51.0,18.0,-17.0,-855.0,497.0,-353.0
-213.0,127.0,-82.0,52.0,21.0,-16.0,-853.0,500.0,-356.0
-210.0,130.0,-83.0,52.0,24.0,-15.0,-848.0,499.0,-357.0
-215.0,128.0,-88.0,51.0,26.0,-13.0,-852.0,501.0,-358.0
-214.0,128.0,-87.0,50.0,28.0,-12.0,-849.0,501.0,-358.0
-213.0,128.0,-85.0,49.0,30.0,-8.0,-851.0,498.0,-362.0
-211.0,128.0,-83.0,49.0,32.0,-9.0,-854.0,500.0,-360.0
-212.0,128.0,-86.0,49.0,35.0,-6.0,-851.0,503.0,-359.0
-211.0,128.0,-83.0,48.0,38.0,-7.0,-856.0,502.0,-360.0
-214.0,127.0,-86.0,48.0,39.0,-5.0,-857.0,501.0,-363.0
-213.0,128.0,-85.0,49.0,42.0,-6.0,-857.0,503.0,-358.0
-213.0,129.0,-84.0,49.0,46.0,-4.0,-856.0,503.0,-367.0
-214.0,124.0,-89.0,49.0,49.0,-3.0,-852.0,502.0,-366.0
-213.0,128.0,-88.0,50.0,50.0,-1.0,-852.0,501.0,-365.0
-211.0,128.0,-80.0,50.0,51.0,-2.0,-857.0,499.0,-361.0
-213.0,128.0,-88.0,48.0,51.0,-2.0,-857.0,500.0,-362.0
-213.0,129.0,-83.0,49.0,51.0,-2.0,-855.0,500.0,-365.0
-211.0,127.0,-89.0,49.0,50.0,1.0,-850.0,498.0,-364.0
-211.0,123.0,-86.0,47.0,51.0,1.0,-852.0,496.0,-365.0
-214.0,126.0,-85.0,49.0,50.0,2.0,-854.0,497.0,-367.0
-213.0,127.0,-87.0,47.0,49.0,2.0,-849.0,504.0,-369.0
-212.0,130.0,-86.0,44.0,50.0,5.0,-855.0,498.0,-367.0
-214.0,129.0,-89.0,43.0,50.0,7.0,-854.0,498.0,-366.0
-217.0,128.0,-90.0,40.0,50.0,7.0,-857.0,501.0,-364.0
-216.0,130.0,-91.0,36.0,52.0,11.0,-858.0,500.0,-363.0
-215.0,124.0,-84.0,36.0,54.0,10.0,-858.0,501.0,-368.0
-213.0,128.0,-89.0,35.0,57.0,11.0,-854.0,503.0,-371.0
-213.0,129.0,-90.0,34.0,58.0,13.0,-852.0,507.0,-372.0
-212.0,129.0,-87.0,32.0,57.0,14.0,-855.0,503.0,-370.0
-211.0,128.0,-87.0,29.0,59.0,17.0,-854.0,504.0,-365.0
-210.0,126.0,-89.0,27.0,59.0,16.0,-858.0,504.0,-367.0
-214.0,128.0,-90.0,27.0,57.0,15.0,-850.0,503.0,-373.0
-215.0,130.0,-87.0,27.0,55.0,15.0,-858.0,502.0,-374.0
-213.0,123.0,-88.0,25.0,53.0,14.0,-856.0,505.0,-372.0
-212.0,127.0,-91.0,24.0,52.0,15.0,-856.0,505.0,-376.0
-212.0,129.0,-87.0,23.0,49.0,14.0,-853.0,504.0,-376.0
-213.0,131.0,-94.0,21.0,47.0,11.0,-856.0,507.0,-372.0
-216.0,131.0,-88.0,21.0,43.0,10.0,-850.0,508.0,-378.0
-211.0,126.0,-87.0,23.0,40.0,9.0,-853.0,504.0,-377.0
-211.0,127.0,-93.0,24.0,36.0,8.0,-858.0,507.0,-375.0
-211.0,130.0,-87.0,24.0,32.0,5.0,-859.0,507.0,-378.0
-212.0,128.0,-88.0,25.0,29.0,6.0,-859.0,508.0,-373.0
-209.0,129.0,-89.0,25.0,26.0,3.0,-862.0,512.0,-373.0
-213.0,128.0,-90.0,26.0,24.0,0.0,-856.0,508.0,-376.0
-215.0,129.0,-85.0,25.0,22.0,0.0,-858.0,510.0,-377.0
-216.0,134.0,-91.0,27.0,21.0,-1.0,-853.0,505.0,-374.0
-214.0,128.0,-88.0,28.0,21.0,-3.0,-854.0,508.0,-372.0
-215.0,131.0,-91.0,28.0,19.0,-2.0,-852.0,510.0,-373.0
-212.0,128.0,-91.0,28.0,19.0,-3.0,-851.0,509.0,-370.0
-212.0,131.0,-91.0,28.0,18.0,-3.0,-854.0,503.0,-366.0
-212.0,129.0,-88.0,29.0,20.0,-2.0,-850.0,505.0,-363.0
-211.0,127.0,-88.0,28.0,19.0,-3.0,-851.0,510.0,-364.0
-213.0,130.0,-89.0,29.0,21.0,-3.0,-853.0,505.0,-363.0
-211.0,128.0,-89.0,29.0,23.0,0.0,-851.0,508.0,-368.0
-212.0,129.0,-83.0,29.0,24.0,1.0,-854.0,503.0,-366.0
-211.0,129.0,-85.0,29.0,26.0,3.0,-847.0,505.0,-365.0
-211.0,128.0,-86.0,31.0,28.0,3.0,-846.0,509.0,-364.0
-212.0,129.0,-85.0,31.0,29.0,2.0,-847.0,505.0,-364.0
-210.0,128.0,-85.0,32.0,30.0,3.0,-853.0,503.0,-363.0
-211.0,127.0,-88.0,33.0,32.0,2.0,-848.0,511.0,-368.0
-214.0,131.0,-88.0,33.0,35.0,3.0,-845.0,505.0,-364.0
-210.0,128.0,-84.0,35.0,36.0,3.0,-855.0,507.0,-367.0
-210.0,132.0,-88.0,37.0,37.0,5.0,-852.0,509.0,-368.0
-212.0,128.0,-86.0,38.0,39.0,5.0,-851.0,505.0,-367.0
-213.0,128.0,-88.0,38.0,39.0,5.0,-849.0,506.0,-367.0
-216.0,130.0,-91.0,40.0,40.0,6.0,-848.0,504.0,-367.0
-213.0,133.0,-84.0,41.0,42.0,6.0,-851.0,506.0,-369.0
-215.0,132.0,-89.0,42.0,42.0,7.0,-848.0,504.0,-371.0
-212.0,129.0,-87.0,42.0,43.0,6.0,-849.0,510.0,-367.0
-213.0,124.0,-82.0,44.0,42.0,8.0,-852.0,509.0,-375.0
-212.0,129.0,-88.0,43.0,41.0,9.0,-851.0,507.0,-363.0
-210.0,129.0,-87.0,44.0,43.0,9.0,-848.0,511.0,-371.0
-214.0,130.0,-84.0,45.0,44.0,8.0,-847.0,507.0,-366.0
-207.0,128.0,-85.0,45.0,44.0,8.0,-852.0,507.0,-369.0
-210.0,128.0,-86.0,45.0,46.0,8.0,-850.0,511.0,-368.0
-215.0,133.0,-88.0,45.0,45.0,9.0,-850.0,512.0,-378.0
-210.0,130.0,-88.0,45.0,45.0,9.0,-846.0,509.0,-373.0
-210.0,128.0,-87.0,45.0,46.0,9.0,-851.0,509.0,-375.0
-213.0,127.0,-89.0,45.0,46.0,8.0,-852.0,511.0,-377.0
-212.0,128.0,-87.0,44.0,46.0,9.0,-849.0,509.0,-370.0
-217.0,130.0,-86.0,44.0,46.0,8.0,-854.0,512.0,-374.0
-212.0,130.0,-84.0,42.0,46.0,9.0,-852.0,511.0,-371.0
-211.0,130.0,-90.0,43.0,45.0,5.0,-854.0,513.0,-372.0
-210.0,132.0,-87.0,42.0,45.0,7.0,-841.0,511.0,-374.0
-211.0,129.0,-89.0,43.0,43.0,6.0,-849.0,509.0,-378.0
-212.0,128.0,-87.0,42.0,43.0,5.0,-851.0,514.0,-373.0
-211.0,130.0,-89.0,43.0,43.0,5.0,-843.0,513.0,-376.0
-210.0,131.0,-89.0,44.0,41.0,5.0,-848.0,505.0,-373.0
-211.0,131.0,-89.0,44.0,41.0,5.0,-852.0,515.0,-376.0
-212.0,131.0,-91.0,45.0,40.0,4.0,-849.0,508.0,-382.0
-209.0,129.0,-89.0,44.0,40.0,3.0,-849.0,512.0,-375.0
-208.0,128.0,-90.0,44.0,40.0,4.0,-846.0,508.0,-371.0
-211.0,130.0,-90.0,42.0,38.0,4.0,-839.0,511.0,-373.0
-212.0,129.0,-89.0,43.0,38.0,1.0,-846.0,508.0,-370.0
-211.0,131.0,-85.0,40.0,37.0,3.0,-839.0,508.0,-377.0
-212.0,128.0,-87.0,41.0,35.0,3.0,-847.0,508.0,-378.0
-206.0,127.0,-90.0,41.0,36.0,3.0,-849.0,509.0,-371.0
-212.0,131.0,-92.0,42.0,35.0,1.0,-849.0,508.0,-375.0
-213.0,133.0,-93.0,40.0,35.0,0.0,-846.0,515.0,-375.0
-213.0,132.0,-89.0,39.0,34.0,0.0,-847.0,514.0,-369.0
-211.0,128.0,-90.0,39.0,34.0,1.0,-847.0,511.0,-369.0
-209.0,131.0,-87.0,38.0,34.0,2.0,-851.0,512.0,-379.0
-213.0,130.0,-89.0,38.0,33.0,0.0,-848.0,509.0,-374.0
-210.0,130.0,-89.0,37.0,33.0,1.0,-848.0,513.0,-375.0
-212.0,131.0,-88.0,37.0,33.0,2.0,-847.0,513.0,-375.0
-212.0,131.0,-86.0,36.0,34.0,1.0,-848.0,510.0,-372.0
-210.0,132.0,-92.0,36.0,34.0,0.0,-840.0,511.0,-372.0
-211.0,132.0,-88.0,34.0,33.0,0.0,-843.0,517.0,-372.0
-210.0,130.0,-88.0,33.0,34.0,-1.0,-848.0,516.0,-376.0
-212.0,129.0,-89.0,33.0,34.0,-2.0,-844.0,513.0,-374.0
-209.0,131.0,-88.0,32.0,33.0,-1.0,-849.0,515.0,-378.0
-211.0,129.0,-90.0,30.0,31.0,0.0,-840.0,509.0,-377.0
-209.0,130.0,-89.0,31.0,32.0,-2.0,-845.0,519.0,-376.0
-211.0,130.0,-90.0,31.0,30.0,-3.0,-845.0,514.0,-376.0
-209.0,131.0,-88.0,30.0,29.0,-3.0,-846.0,516.0,-372.0
-212.0,129.0,-93.0,31.0,27.0,-4.0,-847.0,509.0,-376.0
-212.0,130.0,-87.0,30.0,24.0,-4.0,-848.0,514.0,-381.0
-211.0,128.0,-93.0,30.0,21.0,-4.0,-850.0,510.0,-375.0
-209.0,132.0,-92.0,29.0,19.0,-4.0,-849.0,511.0,-381.0
-212.0,132.0,-92.0,26.0,19.0,-2.0,-853.0,512.0,-380.0
-211.0,130.0,-91.0,25.0,18.0,-1.0,-843.0,514.0,-372.0
-211.0,131.0,-90.0,22.0,16.0,-3.0,-843.0,510.0,-372.0
-214.0,129.0,-90.0,21.0,13.0,-3.0,-840.0,516.0,-371.0
-214.0,132.0,-93.0,21.0,11.0,-4.0,-849.0,518.0,-377.0
-213.0,132.0,-95.0,22.0,8.0,-4.0,-847.0,520.0,-378.0
-213.0,132.0,-92.0,21.0,8.0,-6.0,-849.0,516.0,-377.0
-214.0,132.0,-91.0,22.0,5.0,-6.0,-851.0,520.0,-380.0
-210.0,133.0,-88.0,23.0,4.0,-8.0,-851.0,521.0,-379.0
-212.0,132.0,-90.0,25.0,5.0,-8.0,-847.0,522.0,-377.0
-213.0,132.0,-92.0,29.0,5.0,-10.0,-853.0,523.0,-374.0
-212.0,133.0,-92.0,33.0,3.0,-11.0,-846.0,524.0,-375.0
-210.0,132.0,-91.0,36.0,3.0,-13.0,-847.0,522.0,-380.0
-212.0,132.0,-88.0,39.0,-1.0,-16.0,-848.0,519.0,-374.0
-208.0,129.0,-86.0,43.0,-5.0,-18.0,-843.0,515.0,-377.0
-214.0,128.0,-83.0,45.0,-7.0,-18.0,-842.0,517.0,-378.0
-210.0,130.0,-87.0,47.0,-8.0,-19.0,-842.0,509.0,-379.0
-211.0,130.0,-89.0,48.0,-10.0,-20.0,-845.0,511.0,-374.0
-213.0,130.0,-91.0,49.0,-9.0,-20.0,-843.0,509.0,-370.0
-209.0,129.0,-90.0,48.0,-8.0,-20.0,-847.0,507.0,-372.0
-209.0,128.0,-86.0,44.0,-6.0,-19.0,-840.0,505.0,-373.0
-210.0,128.0,-90.0,41.0,-5.0,-19.0,-840.0,506.0,-371.0
-210.0,127.0,-86.0,38.0,-5.0,-16.0,-843.0,505.0,-373.0
-211.0,130.0,-90.0,34.0,-3.0,-14.0,-842.0,504.0,-365.0
-211.0,130.0,-85.0,31.0,-2.0,-13.0,-840.0,508.0,-372.0
-210.0,133.0,-87.0,25.0,1.0,-10.0,-847.0,503.0,-368.0
-208.0,129.0,-83.0,23.0,3.0,-8.0,-848.0,507.0,-376.0
-211.0,129.0,-87.0,19.0,5.0,-5.0,-843.0,513.0,-375.0
-213.0,132.0,-88.0,16.0,7.0,-2.0,-852.0,510.0,-370.0
-213.0,130.0,-88.0,13.0,7.0,-3.0,-842.0,512.0,-372.0
-208.0,130.0,-90.0,12.0,11.0,-1.0,-848.0,516.0,-373.0
-211.0,132.0,-87.0,11.0,12.0,1.0,-848.0,520.0,-376.0
-212.0,130.0,-87.0,13.0,13.0,1.0,-844.0,518.0,-373.0
-213.0,131.0,-86.0,13.0,15.0,1.0,-843.0,517.0,-372.0
-212.0,131.0,-90.0,14.0,14.0,2.0,-848.0,517.0,-372.0
-211.0,135.0,-91.0,14.0,14.0,-1.0,-850.0,519.0,-371.0
-211.0,131.0,-84.0,18.0,14.0,-1.0,-847.0,520.0,-368.0
-207.0,133.0,-89.0,20.0,14.0,-2.0,-847.0,520.0,-368.0
-212.0,131.0,-90.0,24.0,12.0,-4.0,-848.0,518.0,-373.0
-209.0,134.0,-88.0,27.0,10.0,-5.0,-845.0,516.0,-365.0
-209.0,131.0,-88.0,30.0,10.0,-7.0,-850.0,520.0,-373.0
-210.0,132.0,-88.0,33.0,10.0,-8.0,-849.0,521.0,-369.0
-209.0,131.0,-86.0,36.0,9.0,-7.0,-850.0,517.0,-367.0
-209.0,132.0,-88.0,39.0,9.0,-8.0,-844.0,520.0,-373.0
-211.0,130.0,-88.0,41.0,8.0,-9.0,-848.0,518.0,-365.0
-212.0,132.0,-89.0,42.0,8.0,-11.0,-850.0,518.0,-377.0
-208.0,130.0,-89.0,45.0,8.0,-10.0,-848.0,521.0,-372.0
-208.0,132.0,-89.0,46.0,10.0,-12.0,-848.0,523.0,-370.0
-205.0,132.0,-89.0,48.0,10.0,-12.0,-848.0,518.0,-372.0
-211.0,132.0,-89.0,50.0,11.0,-13.0,-844.0,519.0,-365.0
-210.0,131.0,-87.0,52.0,11.0,-12.0,-848.0,520.0,-365.0
-211.0,130.0,-90.0,53.0,12.0,-14.0,-848.0,518.0,-372.0
-207.0,131.0,-91.0,54.0,12.0,-13.0,-847.0,521.0,-368.0
-208.0,129.0,-88.0,57.0,12.0,-14.0,-845.0,517.0,-369.0
-212.0,134.0,-90.0,57.0,14.0,-16.0,-846.0,518.0,-366.0
-215.0,131.0,-88.0,58.0,14.0,-17.0,-842.0,517.0,-365.0
-206.0,130.0,-87.0,60.0,15.0,-17.0,-848.0,519.0,-374.0
-208.0,129.0,-87.0,61.0,15.0,-19.0,-845.0,515.0,-371.0
-213.0,131.0,-86.0,62.0,15.0,-19.0,-847.0,518.0,-372.0
-210.0,128.0,-86.0,63.0,15.0,-20.0,-845.0,514.0,-375.0
-214.0,133.0,-83.0,65.0,13.0,-19.0,-846.0,519.0,-374.0
-212.0,132.0,-88.0,66.0,12.0,-19.0,-846.0,518.0,-370.0
-209.0,129.0,-87.0,64.0,12.0,-20.0,-850.0,514.0,-370.0
-210.0,130.0,-87.0,65.0,11.0,-21.0,-850.0,516.0,-371.0
-210.0,132.0,-89.0,65.0,10.0,-19.0,-841.0,516.0,-371.0
-209.0,130.0,-90.0,64.0,9.0,-19.0,-845.0,519.0,-371.0
-210.0,131.0,-91.0,63.0,8.0,-20.0,-847.0,513.0,-375.0
-210.0,129.0,-89.0,63.0,6.0,-20.0,-839.0,517.0,-375.0
-210.0,133.0,-91.0,63.0,7.0,-21.0,-845.0,514.0,-369.0
-215.0,132.0,-92.0,65.0,9.0,-21.0,-849.0,517.0,-373.0
-211.0,135.0,-89.0,64.0,10.0,-20.0,-848.0,515.0,-377.0
-212.0,130.0,-90.0,64.0,9.0,-23.0,-847.0,518.0,-372.0
-213.0,129.0,-90.0,64.0,10.0,-21.0,-850.0,519.0,-374.0
-212.0,129.0,-89.0,62.0,9.0,-24.0,-844.0,515.0,-374.0
-212.0,132.0,-89.0,61.0,7.0,-23.0,-848.0,507.0,-374.0
-210.0,131.0,-88.0,61.0,6.0,-23.0,-842.0,515.0,-371.0
-210.0,130.0,-90.0,60.0,5.0,-23.0,-849.0,512.0,-371.0
-212.0,131.0,-89.0,58.0,2.0,-24.0,-850.0,511.0,-374.0
-211.0,131.0,-88.0,57.0,0.0,-23.0,-852.0,509.0,-374.0
-213.0,130.0,-89.0,56.0,0.0,-23.0,-845.0,511.0,-375.0
-215.0,133.0,-86.0,54.0,-2.0,-21.0,-845.0,508.0,-373.0
-214.0,131.0,-88.0,54.0,-4.0,-21.0,-851.0,514.0,-372.0
-213.0,129.0,-88.0,52.0,-5.0,-21.0,-848.0,512.0,-374.0
-210.0,131.0,-85.0,52.0,-5.0,-20.0,-847.0,510.0,-369.0
-210.0,128.0,-85.0,52.0,-3.0,-19.0,-846.0,516.0,-374.0
-213.0,131.0,-89.0,50.0,-4.0,-20.0,-841.0,514.0,-367.0
-209.0,129.0,-88.0,49.0,-3.0,-20.0,-848.0,509.0,-371.0
-212.0,133.0,-90.0,49.0,-2.0,-20.0,-842.0,509.0,-370.0
-211.0,127.0,-86.0,47.0,-2.0,-20.0,-849.0,507.0,-370.0
-212.0,129.0,-86.0,46.0,-2.0,-19.0,-840.0,508.0,-368.0
-213.0,132.0,-87.0,45.0,-2.0,-18.0,-848.0,513.0,-367.0
-216.0,129.0,-94.0,44.0,-2.0,-17.0,-849.0,513.0,-374.0
-212.0,129.0,-90.0,44.0,-3.0,-16.0,-851.0,511.0,-371.0
-212.0,132.0,-86.0,44.0,-2.0,-16.0,-847.0,509.0,-373.0
-213.0,131.0,-87.0,42.0,-2.0,-17.0,-851.0,512.0,-374.0
-212.0,129.0,-83.0,41.0,-2.0,-17.0,-850.0,517.0,-377.0
-212.0,131.0,-90.0,42.0,-3.0,-15.0,-849.0,511.0,-372.0
-213.0,128.0,-88.0,42.0,-3.0,-15.0,-848.0,508.0,-371.0
-215.0,131.0,-89.0,43.0,-4.0,-16.0,-851.0,517.0,-373.0
-211.0,127.0,-87.0,42.0,-2.0,-16.0,-852.0,515.0,-373.0
-212.0,130.0,-86.0,43.0,-3.0,-16.0,-848.0,518.0,-371.0
-209.0,129.0,-88.0,43.0,-3.0,-17.0,-849.0,518.0,-366.0
-206.0,135.0,-89.0,44.0,-3.0,-18.0,-847.0,513.0,-366.0
-213.0,131.0,-88.0,43.0,-3.0,-17.0,-849.0,510.0,-365.0
-211.0,130.0,-91.0,44.0,-3.0,-19.0,-849.0,505.0,-375.0
-211.0,130.0,-86.0,44.0,-2.0,-19.0,-852.0,514.0,-372.0
-211.0,131.0,-89.0,44.0,-2.0,-19.0,-853.0,517.0,-366.0
-211.0,130.0,-85.0,43.0,-2.0,-18.0,-848.0,511.0,-374.0
-210.0,130.0,-86.0,42.0,-2.0,-19.0,-848.0,510.0,-365.0
-214.0,131.0,-86.0,42.0,-3.0,-20.0,-845.0,510.0,-367.0
-210.0,127.0,-87.0,42.0,-4.0,-19.0,-844.0,506.0,-363.0
-213.0,129.0,-87.0,43.0,-5.0,-18.0,-845.0,515.0,-365.0
-210.0,127.0,-86.0,44.0,-5.0,-17.0,-850.0,513.0,-362.0
-212.0,127.0,-86.0,44.0,-5.0,-17.0,-851.0,509.0,-366.0
-208.0,128.0,-86.0,44.0,-2.0,-15.0,-852.0,511.0,-370.0
-212.0,133.0,-89.0,43.0,-2.0,-16.0,-847.0,510.0,-370.0
-212.0,129.0,-87.0,44.0,-1.0,-18.0,-851.0,512.0,-363.0
-212.0,129.0,-86.0,46.0,1.0,-16.0,-846.0,519.0,-365.0
-211.0,132.0,-88.0,46.0,2.0,-16.0,-846.0,510.0,-364.0
-212.0,128.0,-87.0,48.0,2.0,-16.0,-847.0,507.0,-363.0
-212.0,129.0,-86.0,49.0,2.0,-17.0,-848.0,511.0,-368.0
-212.0,132.0,-84.0,49.0,3.0,-15.0,-856.0,504.0,-363.0
-208.0,129.0,-84.0,50.0,4.0,-13.0,-848.0,510.0,-365.0
-214.0,130.0,-87.0,50.0,6.0,-14.0,-847.0,512.0,-359.0
-214.0,131.0,-93.0,51.0,7.0,-15.0,-851.0,510.0,-366.0
-212.0,133.0,-89.0,51.0,6.0,-13.0,-848.0,512.0,-363.0
-212.0,128.0,-86.0,52.0,6.0,-13.0,-847.0,516.0,-367.0
-212.0,128.0,-84.0,51.0,7.0,-13.0,-851.0,511.0,-363.0
-214.0,132.0,-87.0,50.0,8.0,-13.0,-852.0,512.0,-370.0
-212.0,130.0,-88.0,50.0,10.0,-10.0,-853.0,511.0,-363.0
-213.0,129.0,-87.0,50.0,11.0,-10.0,-850.0,513.0,-364.0
-214.0,129.0,-93.0,51.0,10.0,-10.0,-851.0,513.0,-367.0
-212.0,129.0,-90.0,50.0,11.0,-8.0,-850.0,510.0,-367.0
-213.0,128.0,-86.0,52.0,11.0,-7.0,-847.0,508.0,-366.0
-210.0,128.0,-86.0,53.0,13.0,-8.0,-853.0,514.0,-363.0
-209.0,125.0,-86.0,53.0,14.0,-8.0,-855.0,509.0,-367.0
-214.0,129.0,-92.0,53.0,15.0,-8.0,-846.0,506.0,-368.0
-213.0,128.0,-89.0,54.0,15.0,-7.0,-852.0,512.0,-366.0
-211.0,129.0,-87.0,53.0,16.0,-8.0,-853.0,517.0,-371.0
-210.0,128.0,-85.0,53.0,15.0,-7.0,-854.0,520.0,-368.0
-211.0,128.0,-85.0,55.0,14.0,-8.0,-850.0,512.0,-363.0
-210.0,129.0,-88.0,55.0,14.0,-9.0,-854.0,513.0,-371.0
-213.0,131.0,-87.0,55.0,13.0,-9.0,-844.0,514.0,-373.0
-214.0,129.0,-92.0,56.0,11.0,-10.0,-848.0,512.0,-369.0
-208.0,128.0,-84.0,55.0,10.0,-10.0,-846.0,516.0,-371.0
-214.0,128.0,-87.0,55.0,11.0,-10.0,-851.0,510.0,-368.0
-212.0,131.0,-90.0,56.0,9.0,-12.0,-846.0,513.0,-368.0
-211.0,129.0,-87.0,55.0,8.0,-12.0,-847.0,513.0,-370.0
-214.0,131.0,-88.0,57.0,8.0,-13.0,-850.0,512.0,-367.0
-213.0,128.0,-87.0,57.0,6.0,-13.0,-854.0,515.0,-371.0
-211.0,129.0,-85.0,57.0,5.0,-11.0,-848.0,509.0,-367.0
-211.0,129.0,-88.0,56.0,4.0,-11.0,-845.0,517.0,-368.0
-212.0,129.0,-87.0,56.0,3.0,-13.0,-850.0,505.0,-371.0
-212.0,132.0,-84.0,56.0,3.0,-14.0,-851.0,513.0,-365.0
-210.0,129.0,-88.0,57.0,3.0,-15.0,-850.0,516.0,-370.0
-215.0,129.0,-88.0,57.0,3.0,-14.0,-847.0,512.0,-364.0
-214.0,130.0,-90.0,56.0,2.0,-14.0,-854.0,515.0,-373.0
-216.0,128.0,-89.0,55.0,2.0,-14.0,-852.0,515.0,-369.0
-210.0,129.0,-86.0,55.0,1.0,-15.0,-848.0,511.0,-372.0
-212.0,132.0,-88.0,57.0,1.0,-14.0,-849.0,515.0,-366.0
-211.0,134.0,-86.0,56.0,1.0,-16.0,-855.0,508.0,-372.0
-209.0,129.0,-91.0,56.0,-1.0,-15.0,-847.0,510.0,-361.0
-212.0,128.0,-85.0,55.0,-2.0,-14.0,-848.0,511.0,-361.0
-211.0,127.0,-84.0,55.0,-2.0,-15.0,-851.0,509.0,-368.0
-209.0,130.0,-85.0,54.0,-2.0,-14.0,-852.0,509.0,-364.0
-213.0,129.0,-88.0,54.0,-3.0,-13.0,-851.0,503.0,-359.0
-212.0,127.0,-87.0,52.0,-2.0,-12.0,-848.0,512.0,-370.0
-211.0,127.0,-84.0,51.0,-3.0,-11.0,-846.0,509.0,-369.0
-219.0,134.0,-86.0,51.0,0.0,-13.0,-848.0,512.0,-370.0
-213.0,130.0,-91.0,48.0,-1.0,-10.0,-854.0,517.0,-368.0
-212.0,128.0,-86.0,47.0,0.0,-12.0,-856.0,514.0,-365.0
-213.0,132.0,-91.0,47.0,0.0,-10.0,-859.0,515.0,-365.0
-214.0,130.0,-90.0,45.0,2.0,-9.0,-855.0,516.0,-367.0
-212.0,129.0,-89.0,47.0,3.0,-9.0,-858.0,519.0,-362.0
-213.0,130.0,-86.0,47.0,4.0,-10.0,-853.0,518.0,-367.0
-212.0,130.0,-88.0,50.0,4.0,-12.0,-852.0,516.0,-367.0
-214.0,129.0,-92.0,52.0,3.0,-13.0,-855.0,511.0,-371.0
-215.0,129.0,-83.0,55.0,1.0,-15.0,-853.0,514.0,-365.0
-211.0,130.0,-88.0,57.0,0.0,-16.0,-848.0,517.0,-368.0
-212.0,126.0,-88.0,59.0,-2.0,-16.0,-852.0,516.0,-363.0
-210.0,132.0,-89.0,61.0,-2.0,-18.0,-852.0,509.0,-368.0
-209.0,127.0,-86.0,60.0,-3.0,-18.0,-848.0,511.0,-362.0
-210.0,128.0,-86.0,59.0,-4.0,-19.0,-851.0,507.0,-361.0
-213.0,131.0,-89.0,59.0,-4.0,-18.0,-847.0,510.0,-369.0
-210.0,130.0,-84.0,58.0,-4.0,-18.0,-843.0,509.0,-364.0
-211.0,127.0,-85.0,57.0,-2.0,-17.0,-851.0,502.0,-361.0
-213.0,121.0,-88.0,56.0,-2.0,-16.0,-848.0,507.0,-362.0
-211.0,129.0,-88.0,55.0,-2.0,-15.0,-855.0,502.0,-364.0
-208.0,129.0,-90.0,52.0,-1.0,-15.0,-850.0,501.0,-363.0
-215.0,127.0,-87.0,50.0,0.0,-12.0,-852.0,504.0,-367.0
-212.0,131.0,-86.0,48.0,2.0,-10.0,-856.0,507.0,-366.0
-216.0,130.0,-89.0,47.0,2.0,-10.0,-854.0,506.0,-367.0
-214.0,129.0,-90.0,46.0,2.0,-9.0,-853.0,506.0,-370.0
-212.0,130.0,-90.0,45.0,4.0,-6.0,-851.0,516.0,-369.0
-211.0,128.0,-89.0,43.0,4.0,-5.0,-849.0,517.0,-365.0
-211.0,130.0,-90.0,42.0,2.0,-3.0,-858.0,517.0,-363.0
-213.0,126.0,-90.0,42.0,2.0,-2.0,-855.0,516.0,-366.0
-212.0,130.0,-86.0,43.0,2.0,-1.0,-851.0,513.0,-365.0
-208.0,131.0,-89.0,42.0,0.0,-3.0,-854.0,515.0,-364.0
-212.0,135.0,-83.0,43.0,1.0,-4.0,-850.0,511.0,-366.0
-213.0,128.0,-79.0,43.0,0.0,-5.0,-857.0,514.0,-364.0
-212.0,129.0,-85.0,44.0,-1.0,-7.0,-855.0,516.0,-366.0
-213.0,132.0,-88.0,44.0,-2.0,-7.0,-857.0,513.0,-365.0
-211.0,131.0,-88.0,46.0,-3.0,-9.0,-854.0,514.0,-364.0
-211.0,129.0,-88.0,46.0,-3.0,-10.0,-854.0,514.0,-366.0
-215.0,131.0,-91.0,47.0,-4.0,-13.0,-855.0,513.0,-368.0
-214.0,129.0,-89.0,47.0,-4.0,-12.0,-852.0,515.0,-362.0
-213.0,130.0,-85.0,48.0,-5.0,-13.0,-858.0,510.0,-369.0
-211.0,133.0,-84.0,49.0,-7.0,-13.0,-858.0,515.0,-365.0
-215.0,129.0,-88.0,49.0,-8.0,-15.0,-852.0,515.0,-363.0
-213.0,130.0,-90.0,52.0,-9.0,-16.0,-856.0,511.0,-364.0
-217.0,136.0,-84.0,52.0,-10.0,-16.0,-853.0,515.0,-367.0
-213.0,129.0,-86.0,54.0,-11.0,-17.0,-855.0,514.0,-365.0
-213.0,132.0,-85.0,55.0,-12.0,-16.0,-855.0,509.0,-367.0
-212.0,128.0,-85.0,56.0,-14.0,-18.0,-852.0,508.0,-358.0
-212.0,128.0,-88.0,57.0,-13.0,-19.0,-851.0,511.0,-362.0
-213.0,131.0,-85.0,57.0,-12.0,-19.0,-849.0,516.0,-361.0
-211.0,128.0,-86.0,58.0,-12.0,-20.0,-853.0,511.0,-362.0
-213.0,128.0,-84.0,60.0,-11.0,-23.0,-848.0,505.0,-357.0
-214.0,129.0,-88.0,59.0,-10.0,-23.0,-854.0,512.0,-360.0
-214.0,130.0,-87.0,57.0,-8.0,-20.0,-854.0,508.0,-360.0
-211.0,130.0,-86.0,58.0,-6.0,-19.0,-849.0,509.0,-360.0
-213.0,128.0,-87.0,58.0,-3.0,-19.0,-852.0,507.0,-365.0
-212.0,129.0,-84.0,56.0,-2.0,-19.0,-849.0,506.0,-357.0
-211.0,127.0,-86.0,56.0,0.0,-18.0,-846.0,505.0,-357.0
-209.0,125.0,-86.0,56.0,1.0,-18.0,-853.0,503.0,-360.0
-210.0,129.0,-84.0,54.0,3.0,-17.0,-850.0,508.0,-364.0
-212.0,127.0,-85.0,53.0,5.0,-16.0,-852.0,508.0,-360.0
-211.0,130.0,-85.0,52.0,5.0,-13.0,-845.0,506.0,-360.0
-212.0,128.0,-84.0,50.0,7.0,-12.0,-852.0,506.0,-359.0
-210.0,130.0,-85.0,47.0,8.0,-11.0,-850.0,506.0,-360.0
-213.0,130.0,-86.0,48.0,9.0,-9.0,-850.0,506.0,-362.0
-209.0,127.0,-92.0,46.0,10.0,-8.0,-848.0,505.0,-356.0
-212.0,130.0,-86.0,46.0,10.0,-8.0,-853.0,507.0,-356.0
-213.0,133.0,-84.0,46.0,12.0,-7.0,-859.0,511.0,-359.0
-214.0,130.0,-84.0,45.0,14.0,-6.0,-854.0,511.0,-364.0
-212.0,130.0,-88.0,44.0,17.0,-7.0,-850.0,508.0,-362.0
-213.0,130.0,-89.0,44.0,19.0,-8.0,-858.0,508.0,-362.0
-211.0,129.0,-85.0,43.0,18.0,-7.0,-851.0,506.0,-360.0
-214.0,132.0,-86.0,43.0,17.0,-7.0,-850.0,506.0,-364.0
-215.0,134.0,-88.0,43.0,16.0,-8.0,-856.0,504.0,-363.0
-214.0,129.0,-90.0,42.0,16.0,-7.0,-847.0,512.0,-363.0
-213.0,131.0,-88.0,41.0,15.0,-9.0,-853.0,510.0,-369.0
-212.0,130.0,-84.0,39.0,14.0,-7.0,-853.0,511.0,-367.0
-204.0,130.0,-83.0,38.0,12.0,-7.0,-857.0,511.0,-361.0
-210.0,128.0,-85.0,36.0,11.0,-7.0,-852.0,510.0,-363.0
-213.0,130.0,-89.0,36.0,10.0,-8.0,-853.0,513.0,-362.0
-210.0,129.0,-89.0,34.0,12.0,-7.0,-857.0,510.0,-364.0
-217.0,131.0,-84.0,35.0,12.0,-9.0,-853.0,517.0,-363.0
-215.0,131.0,-83.0,34.0,11.0,-10.0,-854.0,511.0,-365.0
-212.0,129.0,-90.0,33.0,11.0,-12.0,-855.0,519.0,-364.0
-212.0,130.0,-88.0,32.0,9.0,-12.0,-859.0,516.0,-362.0
-212.0,131.0,-92.0,33.0,8.0,-14.0,-851.0,513.0,-370.0
-216.0,131.0,-87.0,33.0,7.0,-16.0,-855.0,513.0,-368.0
-212.0,131.0,-84.0,32.0,4.0,-15.0,-858.0,520.0,-372.0
-214.0,129.0,-89.0,33.0,3.0,-17.0,-856.0,511.0,-363.0
-213.0,131.0,-89.0,33.0,2.0,-19.0,-856.0,513.0,-369.0
-211.0,131.0,-87.0,33.0,0.0,-18.0,-855.0,518.0,-365.0
-212.0,130.0,-85.0,34.0,-1.0,-18.0,-854.0,509.0,-364.0
-212.0,129.0,-90.0,35.0,-3.0,-19.0,-856.0,519.0,-360.0
-210.0,129.0,-86.0,36.0,-6.0,-21.0,-853.0,512.0,-361.0
-213.0,134.0,-87.0,37.0,-8.0,-19.0,-863.0,513.0,-366.0
-213.0,129.0,-84.0,38.0,-10.0,-22.0,-853.0,518.0,-363.0
-211.0,129.0,-88.0,39.0,-12.0,-23.0,-853.0,515.0,-362.0
-211.0,131.0,-86.0,39.0,-13.0,-22.0,-851.0,514.0,-360.0
-213.0,128.0,-85.0,40.0,-14.0,-24.0,-854.0,511.0,-360.0
-207.0,131.0,-95.0,41.0,-14.0,-22.0,-850.0,509.0,-362.0
-213.0,128.0,-84.0,44.0,-14.0,-22.0,-851.0,504.0,-355.0
-213.0,128.0,-86.0,45.0,-12.0,-25.0,-853.0,511.0,-353.0
-212.0,130.0,-85.0,47.0,-12.0,-24.0,-855.0,513.0,-359.0
-212.0,130.0,-83.0,49.0,-11.0,-22.0,-857.0,514.0,-351.0
-213.0,133.0,-85.0,49.0,-9.0,-24.0,-851.0,513.0,-349.0
-212.0,130.0,-84.0,50.0,-8.0,-23.0,-851.0,510.0,-359.0
-213.0,129.0,-85.0,51.0,-7.0,-24.0,-848.0,508.0,-361.0
-215.0,131.0,-83.0,53.0,-5.0,-23.0,-853.0,515.0,-358.0
-214.0,132.0,-85.0,54.0,-5.0,-23.0,-858.0,506.0,-354.0
-214.0,132.0,-84.0,56.0,-3.0,-21.0,-856.0,504.0,-355.0
-217.0,129.0,-80.0,56.0,-2.0,-22.0,-852.0,505.0,-358.0
-213.0,128.0,-86.0,56.0,0.0,-23.0,-859.0,503.0,-359.0
-216.0,129.0,-85.0,58.0,1.0,-20.0,-863.0,507.0,-358.0
-211.0,128.0,-80.0,58.0,1.0,-18.0,-856.0,507.0,-354.0
-210.0,128.0,-83.0,57.0,4.0,-17.0,-857.0,504.0,-347.0
-212.0,127.0,-82.0,57.0,6.0,-15.0,-859.0,504.0,-353.0
-211.0,128.0,-85.0,58.0,8.0,-13.0,-847.0,503.0,-349.0
-215.0,127.0,-82.0,57.0,11.0,-10.0,-862.0,504.0,-347.0
-215.0,129.0,-83.0,56.0,13.0,-8.0,-856.0,504.0,-356.0
-210.0,129.0,-83.0,55.0,16.0,-9.0,-853.0,504.0,-352.0
-217.0,129.0,-80.0,54.0,19.0,-8.0,-855.0,506.0,-358.0
-214.0,130.0,-84.0,54.0,22.0,-6.0,-856.0,505.0,-358.0
-214.0,127.0,-84.0,51.0,23.0,-4.0,-857.0,503.0,-354.0
-213.0,129.0,-82.0,50.0,25.0,-4.0,-851.0,505.0,-354.0
-215.0,128.0,-88.0,49.0,26.0,-2.0,-860.0,506.0,-356.0
-214.0,130.0,-87.0,48.0,28.0,-2.0,-854.0,508.0,-355.0
-211.0,128.0,-85.0,48.0,29.0,-2.0,-855.0,509.0,-357.0
-214.0,128.0,-86.0,46.0,28.0,-1.0,-857.0,510.0,-358.0
-213.0,131.0,-86.0,46.0,27.0,0.0,-854.0,504.0,-363.0
-217.0,129.0,-91.0,45.0,26.0,-1.0,-853.0,504.0,-359.0
-212.0,128.0,-81.0,46.0,26.0,0.0,-857.0,508.0,-361.0
-210.0,125.0,-84.0,44.0,26.0,0.0,-852.0,511.0,-363.0
-213.0,129.0,-86.0,44.0,25.0,-2.0,-858.0,506.0,-360.0
-214.0,129.0,-87.0,44.0,23.0,-2.0,-857.0,506.0,-364.0
-213.0,130.0,-87.0,43.0,22.0,-1.0,-856.0,510.0,-366.0
-213.0,131.0,-87.0,43.0,19.0,-2.0,-857.0,506.0,-361.0
-212.0,130.0,-85.0,43.0,20.0,-2.0,-857.0,512.0,-363.0
-214.0,132.0,-85.0,44.0,18.0,-2.0,-858.0,514.0,-365.0
-214.0,129.0,-82.0,44.0,18.0,-3.0,-853.0,512.0,-362.0
-214.0,131.0,-91.0,43.0,16.0,-3.0,-852.0,510.0,-360.0
-212.0,131.0,-83.0,44.0,15.0,-3.0,-849.0,507.0,-366.0
-213.0,129.0,-83.0,43.0,16.0,-4.0,-854.0,511.0,-360.0
-209.0,132.0,-84.0,44.0,15.0,-4.0,-853.0,511.0,-366.0
-214.0,126.0,-87.0,43.0,14.0,-3.0,-853.0,510.0,-358.0
-213.0,132.0,-88.0,44.0,13.0,-3.0,-855.0,512.0,-362.0
-213.0,129.0,-85.0,45.0,13.0,-4.0,-854.0,511.0,-364.0
-214.0,129.0,-88.0,42.0,11.0,-4.0,-858.0,509.0,-360.0
-214.0,130.0,-87.0,42.0,10.0,-2.0,-857.0,507.0,-356.0
-213.0,129.0,-88.0,43.0,11.0,-4.0,-856.0,516.0,-355.0
-213.0,131.0,-86.0,42.0,11.0,-3.0,-855.0,510.0,-361.0
-214.0,128.0,-84.0,44.0,9.0,-3.0,-857.0,512.0,-357.0
-212.0,130.0,-87.0,42.0,9.0,-5.0,-855.0,515.0,-355.0
-216.0,131.0,-87.0,43.0,9.0,-6.0,-852.0,510.0,-357.0
-215.0,130.0,-86.0,44.0,7.0,-5.0,-856.0,511.0,-363.0
-212.0,133.0,-84.0,44.0,9.0,-2.0,-855.0,513.0,-358.0
-214.0,130.0,-83.0,44.0,9.0,-4.0,-853.0,515.0,-358.0
-211.0,130.0,-86.0,46.0,8.0,-4.0,-854.0,513.0,-357.0
-214.0,128.0,-85.0,46.0,7.0,-5.0,-850.0,515.0,-357.0
-216.0,129.0,-85.0,46.0,8.0,-6.0,-848.0,515.0,-359.0
-211.0,131.0,-81.0,48.0,7.0,-6.0,-851.0,511.0,-358.0
-212.0,129.0,-85.0,49.0,8.0,-6.0,-857.0,511.0,-361.0
-210.0,128.0,-83.0,49.0,6.0,-7.0,-850.0,509.0,-356.0
-211.0,129.0,-83.0,48.0,7.0,-7.0,-853.0,508.0,-356.0
-210.0,129.0,-85.0,49.0,7.0,-8.0,-854.0,506.0,-359.0
-214.0,128.0,-91.0,49.0,8.0,-6.0,-854.0,509.0,-362.0
-211.0,131.0,-86.0,48.0,9.0,-6.0,-858.0,515.0,-359.0
-213.0,131.0,-86.0,49.0,10.0,-4.0,-855.0,515.0,-356.0
-213.0,133.0,-86.0,48.0,11.0,-4.0,-851.0,512.0,-360.0
-214.0,133.0,-84.0,49.0,12.0,-5.0,-853.0,507.0,-359.0
-209.0,128.0,-86.0,48.0,13.0,-5.0,-855.0,509.0,-365.0
-215.0,131.0,-87.0,47.0,13.0,-5.0,-855.0,514.0,-358.0
-214.0,132.0,-84.0,48.0,12.0,-5.0,-852.0,507.0,-358.0
-214.0,130.0,-81.0,48.0,13.0,-5.0,-854.0,517.0,-359.0
-213.0,127.0,-89.0,48.0,14.0,-6.0,-855.0,509.0,-355.0
-214.0,129.0,-87.0,48.0,15.0,-6.0,-853.0,512.0,-358.0
-217.0,132.0,-91.0,48.0,14.0,-7.0,-855.0,511.0,-358.0
-213.0,129.0,-84.0,48.0,15.0,-7.0,-853.0,515.0,-361.0
-215.0,130.0,-87.0,47.0,14.0,-7.0,-857.0,515.0,-362.0
-217.0,130.0,-88.0,46.0,16.0,-7.0,-861.0,517.0,-358.0
-213.0,130.0,-87.0,45.0,16.0,-8.0,-862.0,510.0,-362.0
-214.0,132.0,-85.0,46.0,17.0,-8.0,-858.0,519.0,-362.0
-213.0,131.0,-84.0,48.0,16.0,-10.0,-855.0,517.0,-362.0
-211.0,130.0,-87.0,48.0,16.0,-10.0,-860.0,517.0,-364.0
-210.0,132.0,-86.0,49.0,14.0,-10.0,-859.0,510.0,-361.0
-214.0,129.0,-85.0,50.0,14.0,-11.0,-857.0,516.0,-360.0
-214.0,129.0,-85.0,52.0,12.0,-13.0,-853.0,514.0,-359.0
-216.0,128.0,-86.0,53.0,11.0,-15.0,-852.0,510.0,-359.0
-213.0,128.0,-85.0,55.0,8.0,-16.0,-854.0,512.0,-355.0
-212.0,129.0,-83.0,56.0,7.0,-16.0,-853.0,508.0,-358.0
-211.0,129.0,-84.0,56.0,8.0,-15.0,-862.0,509.0,-357.0
-214.0,129.0,-86.0,55.0,8.0,-16.0,-856.0,504.0,-363.0
-214.0,129.0,-86.0,55.0,9.0,-16.0,-850.0,506.0,-360.0
-211.0,127.0,-86.0,55.0,10.0,-15.0,-854.0,508.0,-360.0
-212.0,129.0,-86.0,54.0,11.0,-15.0,-849.0,506.0,-357.0
-214.0,128.0,-88.0,54.0,11.0,-14.0,-854.0,507.0,-362.0
-214.0,130.0,-83.0,53.0,12.0,-13.0,-854.0,509.0,-364.0
-212.0,126.0,-83.0,52.0,13.0,-12.0,-856.0,507.0,-364.0
-213.0,130.0,-91.0,50.0,15.0,-9.0,-855.0,508.0,-363.0
-214.0,128.0,-86.0,49.0,12.0,-7.0,-858.0,508.0,-362.0
-213.0,127.0,-86.0,48.0,12.0,-7.0,-851.0,508.0,-363.0
-213.0,132.0,-87.0,47.0,11.0,-6.0,-856.0,509.0,-360.0
-212.0,128.0,-86.0,45.0,10.0,-4.0,-847.0,510.0,-363.0
-214.0,130.0,-85.0,45.0,7.0,-3.0,-856.0,515.0,-362.0
-213.0,129.0,-83.0,45.0,6.0,-2.0,-848.0,511.0,-367.0
-211.0,130.0,-88.0,46.0,5.0,-3.0,-852.0,515.0,-355.0
-213.0,129.0,-86.0,45.0,3.0,-2.0,-853.0,515.0,-363.0
-216.0,130.0,-82.0,44.0,2.0,-2.0,-852.0,515.0,-362.0
-214.0,133.0,-83.0,45.0,0.0,-3.0,-852.0,512.0,-359.0
-207.0,130.0,-90.0,45.0,-2.0,-5.0,-860.0,516.0,-357.0
-213.0,130.0,-83.0,47.0,-2.0,-6.0,-858.0,518.0,-364.0
-212.0,129.0,-81.0,47.0,-2.0,-9.0,-857.0,515.0,-361.0
-214.0,131.0,-84.0,45.0,-1.0,-10.0,-858.0,512.0,-359.0
-215.0,130.0,-84.0,47.0,-2.0,-10.0,-859.0,515.0,-358.0
-213.0,130.0,-84.0,48.0,-2.0,-12.0,-856.0,517.0,-360.0
-212.0,129.0,-86.0,49.0,-2.0,-11.0,-857.0,520.0,-354.0
-215.0,128.0,-80.0,50.0,-3.0,-12.0,-860.0,518.0,-358.0
-214.0,130.0,-82.0,50.0,-3.0,-12.0,-855.0,518.0,-364.0
-213.0,130.0,-84.0,51.0,-4.0,-12.0,-858.0,513.0,-356.0
-213.0,130.0,-87.0,51.0,-6.0,-14.0,-853.0,516.0,-356.0
-202.0,130.0,-88.0,52.0,-7.0,-14.0,-857.0,510.0,-359.0
-214.0,130.0,-85.0,51.0,-5.0,-14.0,-854.0,518.0,-353.0
-212.0,132.0,-82.0,52.0,-4.0,-15.0,-849.0,515.0,-354.0
-211.0,128.0,-81.0,53.0,-5.0,-16.0,-855.0,514.0,-359.0
-212.0,129.0,-85.0,54.0,-4.0,-15.0,-850.0,513.0,-357.0
-213.0,130.0,-80.0,55.0,-3.0,-16.0,-852.0,514.0,-357.0
-213.0,129.0,-81.0,56.0,-2.0,-15.0,-849.0,511.0,-355.0
-214.0,129.0,-85.0,54.0,0.0,-15.0,-854.0,513.0,-356.0
-215.0,131.0,-85.0,54.0,2.0,-15.0,-856.0,510.0,-353.0
-213.0,130.0,-88.0,53.0,3.0,-15.0,-856.0,508.0,-353.0
-213.0,130.0,-78.0,53.0,6.0,-14.0,-857.0,506.0,-352.0
-213.0,129.0,-80.0,52.0,8.0,-12.0,-854.0,503.0,-354.0
-212.0,130.0,-81.0,52.0,10.0,-12.0,-852.0,514.0,-355.0
-213.0,128.0,-85.0,52.0,10.0,-12.0,-852.0,513.0,-351.0
-212.0,128.0,-83.0,52.0,13.0,-10.0,-848.0,509.0,-354.0
-212.0,128.0,-79.0,51.0,15.0,-10.0,-853.0,508.0,-355.0
-213.0,128.0,-84.0,50.0,17.0,-8.0,-855.0,505.0,-354.0
-212.0,130.0,-87.0,49.0,17.0,-6.0,-851.0,513.0,-355.0
-212.0,129.0,-83.0,48.0,19.0,-6.0,-852.0,512.0,-357.0
-212.0,129.0,-85.0,48.0,19.0,-5.0,-848.0,510.0,-351.0
-213.0,129.0,-83.0,47.0,20.0,-6.0,-858.0,513.0,-350.0
-210.0,128.0,-78.0,47.0,21.0,-5.0,-854.0,512.0,-350.0
-214.0,129.0,-80.0,48.0,24.0,-6.0,-858.0,515.0,-355.0
-214.0,128.0,-85.0,48.0,24.0,-6.0,-857.0,517.0,-361.0
-214.0,130.0,-84.0,47.0,24.0,-5.0,-859.0,516.0,-361.0
-214.0,130.0,-83.0,47.0,27.0,-6.0,-859.0,509.0,-357.0
-214.0,128.0,-85.0,48.0,26.0,-6.0,-851.0,509.0,-363.0
-212.0,129.0,-85.0,49.0,25.0,-7.0,-855.0,505.0,-354.0
-211.0,129.0,-83.0,51.0,25.0,-6.0,-855.0,506.0,-359.0
-214.0,130.0,-85.0,50.0,25.0,-5.0,-850.0,512.0,-359.0
-212.0,129.0,-88.0,52.0,23.0,-7.0,-855.0,512.0,-354.0
-214.0,129.0,-84.0,50.0,21.0,-9.0,-854.0,511.0,-358.0
-215.0,125.0,-90.0,49.0,23.0,-7.0,-855.0,506.0,-358.0
-212.0,130.0,-85.0,47.0,23.0,-5.0,-849.0,507.0,-352.0
-210.0,128.0,-83.0,47.0,23.0,-4.0,-852.0,505.0,-356.0
-213.0,128.0,-86.0,46.0,25.0,-4.0,-852.0,505.0,-361.0
-213.0,129.0,-83.0,47.0,26.0,-5.0,-855.0,510.0,-359.0
-213.0,129.0,-82.0,47.0,26.0,-3.0,-858.0,506.0,-356.0
-215.0,130.0,-84.0,46.0,27.0,-1.0,-851.0,507.0,-354.0
-210.0,128.0,-82.0,45.0,29.0,0.0,-850.0,510.0,-357.0
-214.0,131.0,-83.0,45.0,29.0,-1.0,-856.0,507.0,-350.0
-215.0,131.0,-88.0,44.0,32.0,0.0,-860.0,505.0,-354.0
-214.0,130.0,-83.0,45.0,33.0,2.0,-850.0,512.0,-360.0
-213.0,138.0,-94.0,44.0,33.0,1.0,-853.0,509.0,-360.0
-210.0,129.0,-86.0,44.0,34.0,0.0,-856.0,513.0,-359.0
-215.0,131.0,-87.0,45.0,34.0,1.0,-852.0,514.0,-361.0
-211.0,128.0,-89.0,44.0,34.0,1.0,-859.0,513.0,-360.0
-215.0,132.0,-85.0,42.0,35.0,1.0,-855.0,510.0,-358.0
-211.0,130.0,-83.0,42.0,35.0,1.0,-853.0,516.0,-362.0
-211.0,128.0,-84.0,43.0,35.0,2.0,-857.0,513.0,-362.0
-215.0,129.0,-92.0,42.0,34.0,1.0,-854.0,511.0,-361.0
-211.0,130.0,-85.0,43.0,33.0,1.0,-854.0,515.0,-360.0
-212.0,130.0,-86.0,44.0,32.0,1.0,-851.0,514.0,-363.0
-212.0,130.0,-88.0,44.0,31.0,2.0,-855.0,517.0,-362.0
-210.0,129.0,-92.0,45.0,31.0,0.0,-852.0,518.0,-360.0
-212.0,133.0,-84.0,46.0,31.0,-2.0,-850.0,513.0,-362.0
-212.0,129.0,-83.0,47.0,32.0,-2.0,-849.0,513.0,-358.0
-213.0,130.0,-88.0,47.0,33.0,-2.0,-853.0,514.0,-362.0
-211.0,131.0,-87.0,48.0,33.0,-3.0,-853.0,513.0,-360.0
-214.0,130.0,-85.0,48.0,33.0,-3.0,-854.0,516.0,-360.0
-215.0,133.0,-85.0,48.0,34.0,-4.0,-853.0,513.0,-360.0
-209.0,129.0,-87.0,48.0,34.0,-4.0,-853.0,511.0,-360.0
-214.0,134.0,-83.0,49.0,35.0,-5.0,-850.0,512.0,-361.0
-210.0,128.0,-84.0,49.0,36.0,-4.0,-848.0,514.0,-355.0
-214.0,132.0,-87.0,48.0,34.0,-3.0,-848.0,513.0,-364.0
-211.0,127.0,-85.0,49.0,34.0,-4.0,-858.0,509.0,-354.0
-212.0,131.0,-86.0,47.0,34.0,-4.0,-855.0,508.0,-360.0
-214.0,131.0,-83.0,48.0,35.0,-5.0,-852.0,517.0,-363.0
-212.0,129.0,-84.0,48.0,36.0,-5.0,-857.0,511.0,-357.0
-211.0,132.0,-86.0,49.0,35.0,-4.0,-851.0,513.0,-360.0
-213.0,129.0,-83.0,48.0,36.0,-5.0,-853.0,509.0,-358.0
-211.0,130.0,-84.0,49.0,37.0,-3.0,-850.0,512.0,-365.0
-209.0,129.0,-85.0,49.0,37.0,-4.0,-848.0,515.0,-361.0
-213.0,129.0,-90.0,49.0,36.0,-5.0,-851.0,512.0,-361.0
-213.0,129.0,-85.0,48.0,38.0,-5.0,-851.0,511.0,-360.0
-212.0,129.0,-84.0,47.0,39.0,-3.0,-850.0,514.0,-366.0
-209.0,126.0,-82.0,46.0,39.0,-4.0,-855.0,512.0,-362.0
-211.0,130.0,-87.0,46.0,39.0,-4.0,-854.0,516.0,-363.0
-210.0,128.0,-85.0,45.0,39.0,-5.0,-851.0,513.0,-359.0
-212.0,129.0,-86.0,45.0,40.0,-2.0,-849.0,508.0,-360.0
-212.0,129.0,-85.0,45.0,39.0,-2.0,-852.0,512.0,-364.0
-213.0,132.0,-83.0,44.0,40.0,-2.0,-852.0,515.0,-361.0
-212.0,128.0,-89.0,44.0,39.0,-3.0,-852.0,513.0,-364.0
-214.0,131.0,-92.0,43.0,39.0,-2.0,-853.0,514.0,-364.0
-211.0,130.0,-83.0,44.0,39.0,-3.0,-853.0,508.0,-361.0
-208.0,128.0,-85.0,44.0,39.0,-3.0,-849.0,512.0,-365.0
-211.0,129.0,-88.0,45.0,40.0,-4.0,-851.0,517.0,-365.0
-211.0,128.0,-85.0,44.0,40.0,-4.0,-855.0,512.0,-364.0
-212.0,130.0,-88.0,43.0,38.0,-3.0,-851.0,507.0,-365.0
-212.0,130.0,-85.0,43.0,38.0,-3.0,-852.0,510.0,-368.0
-212.0,132.0,-86.0,44.0,37.0,-2.0,-849.0,514.0,-363.0
-210.0,132.0,-86.0,43.0,37.0,-3.0,-845.0,517.0,-368.0
-212.0,131.0,-88.0,43.0,37.0,-2.0,-845.0,517.0,-370.0
-210.0,130.0,-89.0,44.0,36.0,-1.0,-853.0,517.0,-363.0
-212.0,128.0,-84.0,44.0,35.0,-3.0,-851.0,512.0,-374.0
-211.0,128.0,-80.0,43.0,36.0,-2.0,-845.0,514.0,-367.0
-212.0,129.0,-85.0,43.0,34.0,-1.0,-851.0,512.0,-365.0
-209.0,129.0,-86.0,43.0,33.0,-2.0,-856.0,516.0,-364.0
-209.0,129.0,-91.0,43.0,33.0,-2.0,-845.0,514.0,-366.0
-211.0,131.0,-85.0,43.0,33.0,-1.0,-848.0,511.0,-366.0
-213.0,131.0,-88.0,43.0,32.0,-2.0,-849.0,518.0,-364.0
-210.0,128.0,-83.0,43.0,31.0,-1.0,-853.0,511.0,-365.0
-209.0,131.0,-84.0,43.0,31.0,-1.0,-848.0,516.0,-362.0
-212.0,129.0,-87.0,42.0,33.0,0.0,-851.0,520.0,-365.0
-211.0,128.0,-84.0,43.0,32.0,-1.0,-849.0,516.0,-363.0
-215.0,129.0,-88.0,42.0,32.0,-2.0,-851.0,514.0,-363.0
-211.0,131.0,-88.0,43.0,33.0,-2.0,-849.0,516.0,-366.0
-212.0,132.0,-89.0,42.0,32.0,-1.0,-847.0,511.0,-365.0
-220.0,132.0,-91.0,43.0,33.0,-2.0,-843.0,514.0,-364.0
-212.0,128.0,-91.0,43.0,31.0,-2.0,-849.0,510.0,-363.0
-213.0,129.0,-89.0,42.0,32.0,-2.0,-847.0,517.0,-364.0
-213.0,131.0,-85.0,43.0,32.0,-1.0,-849.0,513.0,-364.0
-209.0,130.0,-83.0,42.0,31.0,-2.0,-846.0,515.0,-369.0
-213.0,133.0,-89.0,43.0,32.0,-3.0,-847.0,514.0,-369.0
-212.0,131.0,-87.0,42.0,32.0,0.0,-849.0,516.0,-369.0
-209.0,130.0,-87.0,41.0,32.0,2.0,-848.0,516.0,-363.0
-213.0,133.0,-88.0,41.0,32.0,1.0,-849.0,514.0,-364.0
-210.0,131.0,-88.0,42.0,31.0,1.0,-848.0,515.0,-363.0
-212.0,131.0,-86.0,41.0,32.0,0.0,-850.0,517.0,-359.0
-210.0,127.0,-88.0,42.0,32.0,0.0,-848.0,515.0,-362.0
-210.0,129.0,-89.0,43.0,33.0,1.0,-851.0,518.0,-365.0
-214.0,132.0,-86.0,42.0,35.0,0.0,-843.0,516.0,-366.0
-212.0,131.0,-85.0,43.0,35.0,2.0,-846.0,517.0,-368.0
-212.0,132.0,-84.0,43.0,35.0,-1.0,-848.0,516.0,-364.0
-211.0,130.0,-87.0,44.0,36.0,0.0,-851.0,518.0,-367.0
-213.0,131.0,-90.0,44.0,36.0,0.0,-846.0,522.0,-360.0
-207.0,129.0,-90.0,44.0,37.0,1.0,-851.0,512.0,-364.0
-209.0,130.0,-84.0,44.0,36.0,2.0,-851.0,521.0,-366.0
-211.0,130.0,-87.0,44.0,39.0,2.0,-845.0,516.0,-366.0
-214.0,129.0,-87.0,45.0,39.0,1.0,-848.0,510.0,-366.0
-213.0,129.0,-85.0,45.0,39.0,1.0,-850.0,518.0,-366.0
-211.0,132.0,-85.0,46.0,40.0,0.0,-848.0,513.0,-365.0
-211.0,130.0,-83.0,45.0,39.0,-1.0,-846.0,520.0,-362.0
-210.0,129.0,-83.0,46.0,39.0,1.0,-852.0,514.0,-373.0
-213.0,130.0,-86.0,46.0,40.0,1.0,-843.0,516.0,-366.0
-211.0,132.0,-86.0,45.0,42.0,2.0,-845.0,519.0,-370.0
-213.0,133.0,-86.0,45.0,41.0,3.0,-841.0,514.0,-369.0
-213.0,132.0,-85.0,46.0,40.0,2.0,-847.0,516.0,-367.0
-209.0,134.0,-86.0,46.0,41.0,3.0,-842.0,518.0,-368.0
-211.0,131.0,-89.0,46.0,41.0,3.0,-841.0,514.0,-367.0
-210.0,131.0,-86.0,45.0,41.0,2.0,-842.0,520.0,-360.0
-214.0,133.0,-91.0,45.0,40.0,5.0,-845.0,517.0,-368.0
-210.0,130.0,-88.0,45.0,40.0,6.0,-842.0,517.0,-370.0
-209.0,132.0,-90.0,44.0,39.0,3.0,-845.0,522.0,-372.0
-211.0,134.0,-90.0,43.0,38.0,3.0,-852.0,520.0,-368.0
-213.0,132.0,-89.0,42.0,38.0,2.0,-847.0,527.0,-368.0
-211.0,132.0,-89.0,43.0,39.0,2.0,-848.0,524.0,-370.0
-214.0,137.0,-89.0,44.0,39.0,3.0,-852.0,524.0,-368.0
-212.0,130.0,-89.0,48.0,40.0,-1.0,-846.0,524.0,-380.0
-213.0,132.0,-91.0,48.0,38.0,-2.0,-846.0,526.0,-371.0
-213.0,132.0,-89.0,52.0,37.0,-2.0,-845.0,521.0,-371.0
-212.0,134.0,-90.0,55.0,35.0,-5.0,-838.0,525.0,-367.0
-211.0,129.0,-87.0,57.0,32.0,-7.0,-838.0,524.0,-371.0
-212.0,131.0,-89.0,58.0,29.0,-9.0,-845.0,515.0,-364.0
-211.0,131.0,-85.0,60.0,27.0,-9.0,-840.0,519.0,-375.0
-212.0,130.0,-86.0,60.0,27.0,-11.0,-841.0,515.0,-370.0
-211.0,130.0,-90.0,58.0,25.0,-10.0,-842.0,517.0,-368.0
-206.0,130.0,-88.0,58.0,25.0,-10.0,-841.0,513.0,-368.0
-212.0,129.0,-88.0,55.0,26.0,-8.0,-844.0,508.0,-372.0
-212.0,131.0,-91.0,52.0,26.0,-9.0,-847.0,515.0,-367.0
-211.0,130.0,-87.0,49.0,25.0,-8.0,-842.0,513.0,-370.0
-213.0,133.0,-89.0,48.0,25.0,-7.0,-845.0,506.0,-374.0
-211.0,129.0,-84.0,45.0,26.0,-7.0,-843.0,509.0,-367.0
-209.0,131.0,-89.0,43.0,28.0,-4.0,-851.0,512.0,-370.0
-209.0,131.0,-85.0,40.0,30.0,-1.0,-849.0,516.0,-373.0
-210.0,131.0,-91.0,37.0,32.0,2.0,-849.0,517.0,-374.0
-210.0,130.0,-92.0,35.0,34.0,4.0,-855.0,518.0,-376.0
-214.0,131.0,-91.0,32.0,34.0,4.0,-847.0,518.0,-373.0
-212.0,136.0,-86.0,31.0,35.0,5.0,-848.0,521.0,-373.0
-210.0,132.0,-91.0,30.0,37.0,7.0,-847.0,524.0,-367.0
-210.0,132.0,-89.0,30.0,38.0,8.0,-848.0,522.0,-377.0
-215.0,134.0,-91.0,31.0,38.0,8.0,-843.0,524.0,-377.0
-214.0,136.0,-93.0,30.0,37.0,7.0,-841.0,522.0,-377.0
-212.0,132.0,-90.0,31.0,38.0,7.0,-840.0,519.0,-374.0
-209.0,133.0,-81.0,33.0,36.0,6.0,-842.0,520.0,-369.0
-210.0,132.0,-89.0,33.0,35.0,4.0,-850.0,521.0,-370.0
-210.0,132.0,-89.0,34.0,34.0,3.0,-842.0,524.0,-371.0
-211.0,130.0,-88.0,37.0,32.0,1.0,-841.0,526.0,-371.0
-210.0,129.0,-87.0,38.0,29.0,0.0,-842.0,521.0,-373.0
-212.0,132.0,-87.0,40.0,28.0,-3.0,-846.0,522.0,-378.0
-211.0,132.0,-87.0,41.0,28.0,-4.0,-846.0,522.0,-368.0
-211.0,131.0,-88.0,43.0,26.0,-4.0,-841.0,524.0,-374.0
-213.0,136.0,-92.0,45.0,25.0,-4.0,-843.0,520.0,-374.0
-209.0,130.0,-87.0,47.0,23.0,-4.0,-844.0,521.0,-377.0
-213.0,131.0,-92.0,49.0,22.0,-7.0,-844.0,524.0,-367.0
-210.0,132.0,-88.0,50.0,21.0,-8.0,-845.0,524.0,-372.0
-212.0,135.0,-87.0,52.0,20.0,-7.0,-839.0,520.0,-374.0
-211.0,134.0,-88.0,53.0,20.0,-9.0,-841.0,522.0,-370.0
-211.0,132.0,-86.0,54.0,20.0,-10.0,-846.0,520.0,-372.0
-211.0,131.0,-89.0,56.0,21.0,-10.0,-844.0,521.0,-373.0
-211.0,130.0,-89.0,57.0,22.0,-11.0,-843.0,522.0,-370.0
-209.0,130.0,-88.0,57.0,23.0,-11.0,-837.0,520.0,-373.0
-213.0,135.0,-90.0,57.0,23.0,-11.0,-841.0,518.0,-366.0
-210.0,132.0,-89.0,57.0,24.0,-12.0,-837.0,519.0,-373.0
-214.0,132.0,-89.0,58.0,28.0,-12.0,-841.0,519.0,-365.0
-210.0,136.0,-88.0,57.0,28.0,-12.0,-836.0,520.0,-365.0
-210.0,126.0,-84.0,57.0,29.0,-12.0,-845.0,523.0,-371.0
-219.0,136.0,-86.0,57.0,30.0,-11.0,-845.0,520.0,-380.0
-208.0,130.0,-91.0,58.0,31.0,-10.0,-845.0,520.0,-372.0
-208.0,133.0,-92.0,59.0,33.0,-11.0,-847.0,517.0,-377.0
-210.0,132.0,-89.0,59.0,31.0,-11.0,-840.0,522.0,-377.0
-210.0,132.0,-90.0,60.0,30.0,-11.0,-844.0,520.0,-373.0
-212.0,131.0,-88.0,60.0,29.0,-12.0,-843.0,514.0,-372.0
-209.0,129.0,-85.0,61.0,29.0,-11.0,-836.0,520.0,-376.0
-212.0,132.0,-90.0,62.0,27.0,-14.0,-838.0,516.0,-371.0
-210.0,130.0,-86.0,62.0,26.0,-15.0,-847.0,522.0,-374.0
-212.0,134.0,-87.0,63.0,27.0,-14.0,-842.0,522.0,-372.0
-210.0,130.0,-87.0,65.0,28.0,-14.0,-847.0,518.0,-375.0
-211.0,132.0,-89.0,66.0,27.0,-15.0,-847.0,522.0,-371.0
-211.0,131.0,-87.0,66.0,27.0,-16.0,-840.0,518.0,-375.0
-208.0,131.0,-90.0,67.0,27.0,-17.0,-843.0,518.0,-376.0
-208.0,130.0,-94.0,68.0,28.0,-17.0,-840.0,520.0,-380.0
-211.0,132.0,-92.0,68.0,26.0,-16.0,-843.0,521.0,-376.0
-207.0,132.0,-89.0,67.0,27.0,-16.0,-839.0,512.0,-378.0
-212.0,133.0,-89.0,66.0,26.0,-15.0,-842.0,514.0,-379.0
-210.0,131.0,-90.0,65.0,24.0,-15.0,-841.0,516.0,-376.0
-212.0,130.0,-91.0,64.0,23.0,-15.0,-843.0,519.0,-377.0
-205.0,128.0,-90.0,62.0,22.0,-17.0,-836.0,516.0,-373.0
-209.0,130.0,-93.0,62.0,22.0,-15.0,-842.0,518.0,-373.0
-211.0,130.0,-93.0,60.0,20.0,-13.0,-837.0,516.0,-375.0
-211.0,131.0,-90.0,59.0,20.0,-12.0,-839.0,517.0,-373.0
-211.0,130.0,-86.0,57.0,21.0,-11.0,-843.0,518.0,-374.0
-209.0,132.0,-90.0,56.0,22.0,-10.0,-839.0,519.0,-374.0
-209.0,131.0,-91.0,54.0,22.0,-10.0,-850.0,515.0,-371.0
-208.0,128.0,-86.0,53.0,23.0,-9.0,-849.0,519.0,-373.0
-211.0,132.0,-92.0,52.0,25.0,-9.0,-842.0,517.0,-379.0
-211.0,131.0,-89.0,51.0,26.0,-8.0,-836.0,515.0,-375.0
-207.0,129.0,-88.0,51.0,26.0,-8.0,-841.0,517.0,-372.0
-205.0,132.0,-92.0,49.0,25.0,-8.0,-840.0,516.0,-378.0
-211.0,132.0,-91.0,46.0,26.0,-7.0,-848.0,514.0,-377.0
-207.0,132.0,-90.0,45.0,24.0,-5.0,-841.0,512.0,-382.0
-211.0,131.0,-86.0,46.0,25.0,-7.0,-840.0,522.0,-382.0
-209.0,131.0,-87.0,46.0,25.0,-4.0,-840.0,516.0,-380.0
-210.0,130.0,-90.0,46.0,24.0,-4.0,-840.0,520.0,-373.0
-209.0,133.0,-91.0,46.0,24.0,-4.0,-845.0,522.0,-375.0
-210.0,133.0,-90.0,45.0,22.0,-6.0,-840.0,517.0,-375.0
-211.0,134.0,-90.0,46.0,20.0,-5.0,-841.0,523.0,-376.0
-209.0,130.0,-88.0,46.0,20.0,-5.0,-841.0,518.0,-378.0
-207.0,131.0,-93.0,48.0,16.0,-5.0,-846.0,521.0,-379.0
-209.0,130.0,-95.0,48.0,17.0,-6.0,-844.0,517.0,-377.0
-210.0,130.0,-90.0,50.0,16.0,-7.0,-843.0,519.0,-379.0
-209.0,132.0,-91.0,52.0,14.0,-7.0,-840.0,517.0,-379.0
-209.0,130.0,-88.0,51.0,14.0,-6.0,-838.0,523.0,-373.0
-209.0,131.0,-91.0,54.0,13.0,-7.0,-843.0,519.0,-378.0
-209.0,130.0,-86.0,54.0,13.0,-10.0,-839.0,523.0,-376.0
-208.0,131.0,-91.0,54.0,12.0,-10.0,-839.0,518.0,-381.0
-210.0,130.0,-86.0,54.0,11.0,-10.0,-840.0,520.0,-372.0
-208.0,132.0,-89.0,55.0,11.0,-10.0,-836.0,519.0,-373.0
-209.0,132.0,-91.0,56.0,11.0,-9.0,-845.0,521.0,-377.0
-212.0,130.0,-88.0,56.0,10.0,-8.0,-841.0,518.0,-377.0
-212.0,140.0,-94.0,56.0,11.0,-8.0,-839.0,518.0,-374.0
