acc1_x,acc1_y,acc1_z,gyro_x,gyro_y,gyro_z,acc2_x,acc2_y,acc2_z
-20.0,-186.0,-181.0,8.0,124.0,78.0,-81.0,-753.0,-738.0
-24.0,-188.0,-178.0,17.0,117.0,77.0,-82.0,-749.0,-733.0
-23.0,-185.0,-181.0,29.0,106.0,73.0,-80.0,-738.0,-733.0
-26.0,-180.0,-179.0,41.0,96.0,71.0,-82.0,-730.0,-733.0
-25.0,-176.0,-180.0,54.0,84.0,67.0,-82.0,-724.0,-731.0
-27.0,-175.0,-183.0,67.0,72.0,64.0,-80.0,-713.0,-726.0
-21.0,-179.0,-178.0,79.0,58.0,60.0,-76.0,-711.0,-727.0
-25.0,-174.0,-177.0,88.0,45.0,54.0,-74.0,-704.0,-724.0
-23.0,-170.0,-178.0,94.0,32.0,50.0,-74.0,-696.0,-717.0
-21.0,-168.0,-175.0,96.0,20.0,45.0,-63.0,-693.0,-723.0
-16.0,-175.0,-176.0,94.0,8.0,40.0,-58.0,-699.0,-711.0
-18.0,-170.0,-176.0,90.0,0.0,36.0,-54.0,-701.0,-721.0
-14.0,-174.0,-177.0,83.0,-9.0,35.0,-51.0,-706.0,-723.0
-14.0,-179.0,-183.0,71.0,-15.0,34.0,-40.0,-707.0,-732.0
-16.0,-174.0,-178.0,60.0,-22.0,36.0,-37.0,-721.0,-730.0
-13.0,-175.0,-180.0,45.0,-24.0,37.0,-43.0,-726.0,-734.0
-9.0,-181.0,-182.0,31.0,-26.0,40.0,-32.0,-729.0,-733.0
-6.0,-182.0,-177.0,22.0,-25.0,42.0,-22.0,-740.0,-738.0
-11.0,-183.0,-180.0,16.0,-24.0,43.0,-23.0,-744.0,-741.0
-6.0,-184.0,-180.0,13.0,-23.0,45.0,-20.0,-744.0,-737.0
-9.0,-188.0,-181.0,15.0,-20.0,46.0,-15.0,-750.0,-741.0
-6.0,-184.0,-183.0,21.0,-18.0,48.0,-13.0,-748.0,-744.0
-5.0,-185.0,-185.0,28.0,-16.0,48.0,-14.0,-752.0,-751.0
-13.0,-186.0,-183.0,38.0,-13.0,49.0,-20.0,-758.0,-745.0
-7.0,-185.0,-187.0,50.0,-11.0,50.0,-21.0,-753.0,-742.0
-8.0,-188.0,-183.0,60.0,-10.0,51.0,-19.0,-756.0,-737.0
-16.0,-190.0,-181.0,72.0,-9.0,49.0,-19.0,-755.0,-740.0
-10.0,-187.0,-180.0,84.0,-7.0,50.0,-26.0,-757.0,-743.0
-7.0,-186.0,-182.0,97.0,-5.0,50.0,-29.0,-752.0,-736.0
-13.0,-183.0,-181.0,106.0,-6.0,46.0,-32.0,-754.0,-745.0
-8.0,-186.0,-181.0,114.0,-4.0,44.0,-36.0,-742.0,-746.0
-11.0,-183.0,-179.0,120.0,0.0,42.0,-36.0,-741.0,-744.0
-12.0,-183.0,-184.0,126.0,4.0,38.0,-35.0,-740.0,-746.0
-10.0,-180.0,-187.0,131.0,8.0,37.0,-29.0,-734.0,-746.0
-9.0,-182.0,-184.0,135.0,12.0,33.0,-28.0,-730.0,-741.0
-12.0,-182.0,-185.0,142.0,18.0,29.0,-27.0,-734.0,-745.0
-11.0,-178.0,-180.0,148.0,25.0,24.0,-21.0,-721.0,-736.0
-9.0,-182.0,-178.0,155.0,32.0,20.0,-15.0,-731.0,-742.0
-5.0,-180.0,-184.0,158.0,38.0,14.0,-21.0,-727.0,-741.0
-7.0,-177.0,-183.0,160.0,44.0,10.0,-17.0,-726.0,-746.0
-9.0,-180.0,-186.0,162.0,49.0,5.0,-20.0,-716.0,-751.0
-7.0,-181.0,-185.0,165.0,55.0,0.0,-24.0,-722.0,-750.0
-9.0,-177.0,-181.0,166.0,62.0,-4.0,-20.0,-719.0,-747.0
-8.0,-177.0,-186.0,166.0,67.0,-9.0,-28.0,-722.0,-753.0
-11.0,-179.0,-181.0,164.0,71.0,-13.0,-27.0,-714.0,-745.0
-8.0,-181.0,-182.0,163.0,76.0,-16.0,-26.0,-719.0,-750.0
-10.0,-178.0,-179.0,161.0,78.0,-17.0,-32.0,-718.0,-746.0
-14.0,-179.0,-182.0,159.0,78.0,-21.0,-45.0,-726.0,-752.0
-19.0,-185.0,-185.0,156.0,77.0,-22.0,-46.0,-728.0,-746.0
-16.0,-178.0,-183.0,153.0,74.0,-25.0,-50.0,-728.0,-747.0
-18.0,-178.0,-182.0,152.0,69.0,-27.0,-52.0,-723.0,-738.0
-15.0,-181.0,-182.0,151.0,66.0,-30.0,-54.0,-727.0,-737.0
-16.0,-179.0,-182.0,152.0,61.0,-36.0,-59.0,-727.0,-732.0
-20.0,-175.0,-182.0,151.0,54.0,-41.0,-58.0,-732.0,-731.0
-19.0,-181.0,-177.0,152.0,48.0,-46.0,-61.0,-728.0,-730.0
-18.0,-179.0,-179.0,153.0,43.0,-49.0,-61.0,-730.0,-722.0
-18.0,-178.0,-180.0,158.0,39.0,-55.0,-56.0,-725.0,-722.0
-17.0,-178.0,-174.0,161.0,36.0,-62.0,-60.0,-729.0,-708.0
-17.0,-179.0,-176.0,164.0,33.0,-69.0,-63.0,-733.0,-706.0
-16.0,-178.0,-172.0,170.0,32.0,-76.0,-56.0,-733.0,-712.0
-17.0,-182.0,-173.0,175.0,31.0,-80.0,-55.0,-730.0,-707.0
-16.0,-182.0,-175.0,179.0,30.0,-86.0,-49.0,-735.0,-706.0
-16.0,-182.0,-173.0,185.0,30.0,-89.0,-53.0,-731.0,-700.0
-12.0,-185.0,-173.0,190.0,30.0,-92.0,-49.0,-732.0,-703.0
-17.0,-181.0,-173.0,194.0,30.0,-96.0,-45.0,-732.0,-703.0
-13.0,-181.0,-171.0,197.0,30.0,-98.0,-43.0,-734.0,-697.0
-16.0,-179.0,-177.0,200.0,32.0,-100.0,-40.0,-734.0,-712.0
-18.0,-176.0,-174.0,201.0,30.0,-102.0,-42.0,-732.0,-703.0
-17.0,-179.0,-175.0,201.0,30.0,-103.0,-41.0,-738.0,-706.0
-15.0,-181.0,-177.0,204.0,29.0,-104.0,-34.0,-734.0,-707.0
-16.0,-178.0,-177.0,203.0,30.0,-104.0,-43.0,-741.0,-720.0
-16.0,-181.0,-176.0,205.0,30.0,-102.0,-39.0,-736.0,-712.0
-13.0,-185.0,-176.0,206.0,31.0,-101.0,-41.0,-748.0,-713.0
-12.0,-183.0,-177.0,206.0,30.0,-100.0,-34.0,-745.0,-721.0
-12.0,-187.0,-175.0,207.0,30.0,-99.0,-38.0,-750.0,-721.0
-10.0,-186.0,-176.0,206.0,30.0,-96.0,-34.0,-749.0,-720.0
-12.0,-190.0,-176.0,204.0,31.0,-95.0,-35.0,-749.0,-724.0
-14.0,-187.0,-174.0,202.0,30.0,-92.0,-33.0,-758.0,-720.0
-12.0,-186.0,-176.0,201.0,30.0,-90.0,-26.0,-755.0,-720.0
-10.0,-191.0,-175.0,199.0,28.0,-87.0,-29.0,-755.0,-720.0
-9.0,-188.0,-174.0,197.0,27.0,-86.0,-27.0,-751.0,-710.0
-9.0,-187.0,-169.0,196.0,26.0,-82.0,-27.0,-752.0,-711.0
-8.0,-186.0,-174.0,195.0,25.0,-81.0,-24.0,-754.0,-708.0
-7.0,-188.0,-174.0,195.0,23.0,-80.0,-25.0,-759.0,-705.0
-8.0,-187.0,-172.0,194.0,22.0,-77.0,-24.0,-754.0,-706.0
-11.0,-185.0,-175.0,193.0,19.0,-75.0,-29.0,-750.0,-694.0
-8.0,-185.0,-168.0,192.0,17.0,-74.0,-23.0,-756.0,-693.0
-10.0,-186.0,-172.0,192.0,14.0,-72.0,-19.0,-747.0,-688.0
-11.0,-186.0,-169.0,195.0,13.0,-72.0,-28.0,-751.0,-690.0
-10.0,-185.0,-167.0,199.0,12.0,-70.0,-32.0,-749.0,-688.0
-8.0,-185.0,-171.0,201.0,10.0,-67.0,-31.0,-740.0,-685.0
-9.0,-184.0,-165.0,200.0,9.0,-64.0,-24.0,-745.0,-682.0
-7.0,-185.0,-170.0,201.0,5.0,-61.0,-19.0,-743.0,-679.0
-7.0,-184.0,-171.0,201.0,2.0,-59.0,-26.0,-745.0,-679.0
-6.0,-185.0,-166.0,201.0,0.0,-58.0,-19.0,-748.0,-676.0
-7.0,-184.0,-167.0,200.0,-3.0,-60.0,-12.0,-740.0,-671.0
-8.0,-183.0,-164.0,199.0,-4.0,-59.0,-14.0,-741.0,-678.0
-7.0,-186.0,-168.0,195.0,-4.0,-59.0,-20.0,-752.0,-667.0
-7.0,-181.0,-163.0,192.0,-6.0,-57.0,-15.0,-747.0,-675.0
-6.0,-182.0,-163.0,189.0,-7.0,-57.0,-9.0,-750.0,-672.0
-7.0,-185.0,-162.0,185.0,-6.0,-55.0,-12.0,-748.0,-672.0
-4.0,-188.0,-160.0,180.0,-9.0,-55.0,-10.0,-754.0,-670.0
-6.0,-190.0,-167.0,173.0,-11.0,-53.0,-16.0,-763.0,-671.0
-6.0,-188.0,-172.0,167.0,-14.0,-52.0,-24.0,-770.0,-668.0
-9.0,-188.0,-167.0,160.0,-18.0,-48.0,-24.0,-764.0,-660.0
-6.0,-191.0,-165.0,152.0,-19.0,-46.0,-24.0,-770.0,-669.0
-12.0,-188.0,-166.0,145.0,-19.0,-44.0,-25.0,-770.0,-664.0
-10.0,-191.0,-166.0,136.0,-20.0,-44.0,-27.0,-771.0,-674.0
-6.0,-192.0,-167.0,127.0,-19.0,-41.0,-27.0,-777.0,-666.0
-6.0,-192.0,-168.0,119.0,-18.0,-42.0,-23.0,-776.0,-675.0
-4.0,-194.0,-163.0,110.0,-17.0,-40.0,-23.0,-785.0,-666.0
-6.0,-193.0,-168.0,103.0,-14.0,-40.0,-20.0,-777.0,-673.0
-8.0,-191.0,-162.0,95.0,-12.0,-40.0,-19.0,-783.0,-669.0
-11.0,-187.0,-166.0,89.0,-9.0,-40.0,-18.0,-782.0,-668.0
-4.0,-191.0,-164.0,85.0,-7.0,-43.0,-15.0,-778.0,-669.0
-5.0,-190.0,-164.0,85.0,-8.0,-46.0,-10.0,-776.0,-661.0
-4.0,-189.0,-163.0,86.0,-5.0,-50.0,-5.0,-771.0,-667.0
-3.0,-188.0,-165.0,86.0,-4.0,-53.0,0.0,-771.0,-669.0
-4.0,-188.0,-168.0,86.0,-3.0,-54.0,-1.0,-769.0,-672.0
-4.0,-186.0,-166.0,83.0,-2.0,-54.0,-3.0,-761.0,-676.0
-3.0,-187.0,-170.0,78.0,2.0,-52.0,-1.0,-758.0,-681.0
-4.0,-186.0,-170.0,73.0,6.0,-53.0,-1.0,-753.0,-681.0
-3.0,-187.0,-168.0,66.0,11.0,-50.0,6.0,-747.0,-687.0
0.0,-186.0,-170.0,59.0,16.0,-47.0,7.0,-753.0,-683.0
5.0,-184.0,-175.0,52.0,18.0,-44.0,10.0,-761.0,-679.0
0.0,-189.0,-168.0,46.0,21.0,-42.0,8.0,-770.0,-681.0
-2.0,-192.0,-171.0,41.0,21.0,-40.0,6.0,-772.0,-677.0
-4.0,-191.0,-166.0,40.0,21.0,-35.0,9.0,-780.0,-678.0
-3.0,-192.0,-167.0,40.0,23.0,-31.0,0.0,-788.0,-676.0
-2.0,-196.0,-163.0,40.0,25.0,-28.0,3.0,-787.0,-678.0
-3.0,-191.0,-166.0,38.0,28.0,-24.0,4.0,-786.0,-675.0
-5.0,-191.0,-165.0,36.0,30.0,-21.0,-1.0,-787.0,-677.0
-5.0,-193.0,-167.0,34.0,29.0,-21.0,-5.0,-786.0,-672.0
-4.0,-194.0,-166.0,33.0,27.0,-18.0,-8.0,-790.0,-662.0
-6.0,-194.0,-163.0,32.0,23.0,-16.0,-10.0,-790.0,-658.0
-11.0,-195.0,-162.0,33.0,14.0,-14.0,-15.0,-790.0,-647.0
-6.0,-194.0,-155.0,38.0,7.0,-14.0,-19.0,-792.0,-633.0
-6.0,-195.0,-154.0,43.0,-2.0,-14.0,-24.0,-800.0,-625.0
-5.0,-196.0,-149.0,51.0,-12.0,-17.0,-18.0,-797.0,-619.0
-7.0,-192.0,-151.0,58.0,-23.0,-22.0,-28.0,-796.0,-614.0
-11.0,-194.0,-151.0,65.0,-35.0,-29.0,-26.0,-801.0,-608.0
-12.0,-195.0,-146.0,70.0,-49.0,-32.0,-31.0,-798.0,-602.0
-8.0,-193.0,-146.0,75.0,-61.0,-40.0,-37.0,-802.0,-597.0
-11.0,-196.0,-146.0,76.0,-73.0,-46.0,-39.0,-802.0,-604.0
-11.0,-199.0,-150.0,76.0,-87.0,-54.0,-38.0,-808.0,-604.0
-11.0,-200.0,-143.0,72.0,-99.0,-61.0,-36.0,-813.0,-608.0
-17.0,-189.0,-151.0,66.0,-109.0,-70.0,-41.0,-816.0,-607.0
-12.0,-201.0,-152.0,61.0,-118.0,-73.0,-40.0,-817.0,-606.0
-13.0,-198.0,-150.0,55.0,-126.0,-79.0,-31.0,-818.0,-608.0
-9.0,-200.0,-151.0,51.0,-133.0,-81.0,-25.0,-815.0,-625.0
-8.0,-200.0,-155.0,46.0,-138.0,-85.0,-22.0,-816.0,-624.0
-4.0,-198.0,-157.0,42.0,-142.0,-87.0,-13.0,-812.0,-627.0
-3.0,-197.0,-155.0,37.0,-144.0,-87.0,-6.0,-807.0,-629.0
-3.0,-197.0,-156.0,32.0,-145.0,-85.0,1.0,-804.0,-632.0
-2.0,-195.0,-154.0,27.0,-146.0,-83.0,7.0,-805.0,-633.0
3.0,-200.0,-160.0,22.0,-144.0,-81.0,11.0,-808.0,-641.0
2.0,-197.0,-156.0,18.0,-140.0,-78.0,23.0,-814.0,-644.0
0.0,-198.0,-169.0,12.0,-136.0,-74.0,31.0,-807.0,-642.0
5.0,-194.0,-158.0,11.0,-128.0,-69.0,33.0,-807.0,-644.0
6.0,-197.0,-163.0,8.0,-121.0,-64.0,38.0,-803.0,-658.0
8.0,-196.0,-162.0,7.0,-110.0,-58.0,42.0,-799.0,-653.0
10.0,-194.0,-162.0,7.0,-100.0,-54.0,47.0,-796.0,-654.0
11.0,-192.0,-163.0,9.0,-88.0,-47.0,47.0,-787.0,-653.0
10.0,-194.0,-161.0,11.0,-75.0,-43.0,50.0,-791.0,-655.0
12.0,-192.0,-161.0,15.0,-61.0,-36.0,62.0,-785.0,-658.0
14.0,-193.0,-162.0,17.0,-47.0,-30.0,56.0,-785.0,-643.0
11.0,-193.0,-162.0,21.0,-34.0,-23.0,63.0,-785.0,-648.0
11.0,-194.0,-154.0,22.0,-20.0,-15.0,58.0,-776.0,-643.0
8.0,-191.0,-157.0,27.0,-6.0,-9.0,49.0,-780.0,-642.0
11.0,-191.0,-161.0,28.0,5.0,-1.0,56.0,-783.0,-644.0
9.0,-191.0,-157.0,27.0,16.0,6.0,52.0,-777.0,-643.0
10.0,-191.0,-157.0,26.0,26.0,13.0,43.0,-776.0,-641.0
9.0,-192.0,-160.0,25.0,35.0,21.0,41.0,-775.0,-640.0
8.0,-191.0,-157.0,22.0,42.0,28.0,42.0,-771.0,-643.0
7.0,-191.0,-157.0,17.0,49.0,35.0,36.0,-774.0,-638.0
5.0,-188.0,-160.0,14.0,54.0,43.0,28.0,-773.0,-633.0
5.0,-186.0,-157.0,10.0,58.0,49.0,25.0,-777.0,-639.0
3.0,-192.0,-158.0,5.0,60.0,54.0,25.0,-772.0,-641.0
0.0,-191.0,-159.0,-2.0,61.0,59.0,17.0,-777.0,-642.0
4.0,-191.0,-157.0,-8.0,61.0,64.0,15.0,-777.0,-639.0
0.0,-191.0,-161.0,-14.0,59.0,68.0,9.0,-777.0,-637.0
-2.0,-191.0,-159.0,-21.0,57.0,71.0,6.0,-773.0,-638.0
-3.0,-192.0,-161.0,-29.0,55.0,72.0,6.0,-781.0,-643.0
-3.0,-193.0,-157.0,-35.0,53.0,75.0,4.0,-782.0,-637.0
-4.0,-190.0,-158.0,-42.0,50.0,75.0,2.0,-785.0,-638.0
-3.0,-194.0,-156.0,-48.0,48.0,76.0,-3.0,-788.0,-636.0
-4.0,-195.0,-160.0,-52.0,44.0,72.0,-5.0,-794.0,-641.0
-4.0,-195.0,-158.0,-57.0,40.0,71.0,-10.0,-790.0,-646.0
-4.0,-195.0,-157.0,-61.0,37.0,67.0,-4.0,-788.0,-646.0
-6.0,-198.0,-158.0,-66.0,35.0,65.0,-10.0,-795.0,-647.0
-4.0,-200.0,-155.0,-69.0,31.0,58.0,-8.0,-795.0,-651.0
-5.0,-194.0,-162.0,-74.0,29.0,54.0,-13.0,-795.0,-655.0
-4.0,-199.0,-158.0,-76.0,27.0,50.0,-10.0,-794.0,-653.0
-5.0,-195.0,-159.0,-78.0,22.0,46.0,-10.0,-799.0,-656.0
-5.0,-196.0,-163.0,-78.0,18.0,40.0,-12.0,-793.0,-653.0
-5.0,-194.0,-161.0,-78.0,15.0,35.0,-12.0,-794.0,-652.0
-7.0,-192.0,-162.0,-78.0,13.0,30.0,-14.0,-794.0,-656.0
-5.0,-193.0,-162.0,-75.0,10.0,25.0,-12.0,-792.0,-664.0
-6.0,-194.0,-163.0,-73.0,9.0,19.0,-12.0,-787.0,-659.0
-6.0,-192.0,-165.0,-71.0,6.0,17.0,-11.0,-786.0,-671.0
-5.0,-192.0,-166.0,-69.0,3.0,12.0,-6.0,-777.0,-666.0
-4.0,-189.0,-168.0,-68.0,0.0,7.0,-8.0,-776.0,-674.0
-3.0,-191.0,-168.0,-65.0,-2.0,7.0,-1.0,-776.0,-671.0
-3.0,-191.0,-166.0,-64.0,-4.0,3.0,-4.0,-771.0,-670.0
-2.0,-191.0,-169.0,-63.0,-7.0,1.0,6.0,-767.0,-680.0
-3.0,-190.0,-166.0,-61.0,-6.0,-2.0,0.0,-768.0,-673.0
1.0,-190.0,-166.0,-60.0,-8.0,-5.0,9.0,-770.0,-678.0
-2.0,-191.0,-168.0,-59.0,-8.0,-8.0,7.0,-770.0,-681.0
-4.0,-192.0,-167.0,-59.0,-8.0,-10.0,9.0,-773.0,-672.0
-3.0,-189.0,-169.0,-58.0,-7.0,-12.0,9.0,-772.0,-675.0
1.0,-186.0,-167.0,-57.0,-5.0,-10.0,12.0,-768.0,-683.0
-3.0,-190.0,-172.0,-58.0,-2.0,-8.0,13.0,-761.0,-680.0
-1.0,-190.0,-167.0,-58.0,1.0,-10.0,16.0,-769.0,-687.0
1.0,-188.0,-171.0,-56.0,2.0,-12.0,18.0,-775.0,-685.0
-2.0,-187.0,-171.0,-56.0,5.0,-13.0,10.0,-771.0,-686.0
0.0,-189.0,-169.0,-56.0,9.0,-13.0,12.0,-771.0,-689.0
-1.0,-189.0,-172.0,-56.0,13.0,-13.0,7.0,-774.0,-692.0
-3.0,-192.0,-173.0,-56.0,19.0,-12.0,3.0,-772.0,-696.0
0.0,-193.0,-173.0,-57.0,27.0,-10.0,-1.0,-772.0,-704.0
-2.0,-189.0,-176.0,-60.0,34.0,-9.0,-5.0,-769.0,-699.0
-3.0,-186.0,-171.0,-60.0,38.0,-9.0,-3.0,-765.0,-698.0
-6.0,-187.0,-172.0,-58.0,42.0,-8.0,-4.0,-763.0,-704.0
3.0,-189.0,-165.0,-53.0,44.0,-6.0,-8.0,-750.0,-694.0
-4.0,-186.0,-172.0,-46.0,45.0,-7.0,-10.0,-755.0,-696.0
-5.0,-187.0,-174.0,-40.0,42.0,-10.0,-14.0,-760.0,-707.0
-10.0,-187.0,-174.0,-38.0,41.0,-9.0,-12.0,-754.0,-713.0
-7.0,-190.0,-174.0,-36.0,39.0,-9.0,-21.0,-752.0,-703.0
-13.0,-184.0,-176.0,-35.0,36.0,-8.0,-23.0,-746.0,-706.0
-11.0,-186.0,-173.0,-36.0,32.0,-6.0,-29.0,-755.0,-718.0
-10.0,-184.0,-176.0,-38.0,29.0,-2.0,-31.0,-753.0,-722.0
-10.0,-184.0,-183.0,-42.0,28.0,-2.0,-27.0,-751.0,-723.0
-12.0,-183.0,-178.0,-46.0,27.0,0.0,-32.0,-747.0,-726.0
-12.0,-186.0,-173.0,-47.0,24.0,2.0,-30.0,-747.0,-720.0
-13.0,-181.0,-182.0,-49.0,21.0,3.0,-30.0,-742.0,-723.0
-8.0,-184.0,-175.0,-48.0,15.0,1.0,-27.0,-747.0,-720.0
-6.0,-185.0,-179.0,-46.0,11.0,0.0,-16.0,-747.0,-728.0
-6.0,-183.0,-177.0,-43.0,5.0,-5.0,-20.0,-741.0,-726.0
-7.0,-181.0,-178.0,-40.0,-1.0,-9.0,-9.0,-744.0,-722.0
-6.0,-185.0,-177.0,-37.0,-8.0,-11.0,-8.0,-745.0,-725.0
-4.0,-185.0,-178.0,-33.0,-14.0,-15.0,-14.0,-752.0,-725.0
-8.0,-187.0,-174.0,-28.0,-20.0,-17.0,-13.0,-750.0,-722.0
-4.0,-183.0,-178.0,-23.0,-26.0,-21.0,-10.0,-754.0,-732.0
-8.0,-182.0,-182.0,-19.0,-31.0,-24.0,-11.0,-750.0,-731.0
-5.0,-188.0,-182.0,-15.0,-34.0,-24.0,-19.0,-751.0,-733.0
-9.0,-185.0,-184.0,-11.0,-35.0,-23.0,-19.0,-745.0,-741.0
-5.0,-182.0,-181.0,-7.0,-40.0,-24.0,-15.0,-745.0,-737.0
-7.0,-185.0,-185.0,-3.0,-41.0,-21.0,-12.0,-744.0,-740.0
-9.0,-181.0,-183.0,-2.0,-43.0,-19.0,-15.0,-740.0,-744.0
-8.0,-184.0,-183.0,-1.0,-45.0,-18.0,-16.0,-736.0,-743.0
-8.0,-182.0,-179.0,1.0,-48.0,-18.0,-18.0,-739.0,-736.0
-9.0,-179.0,-183.0,1.0,-52.0,-17.0,-24.0,-740.0,-739.0
-9.0,-180.0,-184.0,5.0,-56.0,-15.0,-13.0,-731.0,-736.0
-7.0,-176.0,-181.0,7.0,-59.0,-20.0,-20.0,-737.0,-737.0
-5.0,-181.0,-179.0,10.0,-63.0,-21.0,-19.0,-733.0,-733.0
-6.0,-179.0,-185.0,13.0,-65.0,-21.0,-14.0,-731.0,-735.0
-9.0,-178.0,-175.0,15.0,-68.0,-24.0,-17.0,-733.0,-738.0
-8.0,-180.0,-179.0,16.0,-69.0,-27.0,-14.0,-728.0,-733.0
-6.0,-177.0,-182.0,17.0,-69.0,-27.0,-17.0,-723.0,-729.0
-6.0,-177.0,-176.0,19.0,-69.0,-31.0,-17.0,-722.0,-732.0
-6.0,-177.0,-179.0,19.0,-69.0,-33.0,-17.0,-718.0,-728.0
-8.0,-178.0,-181.0,21.0,-67.0,-34.0,-14.0,-718.0,-728.0
-5.0,-176.0,-177.0,23.0,-66.0,-34.0,-22.0,-721.0,-737.0
-8.0,-177.0,-183.0,27.0,-65.0,-35.0,-15.0,-719.0,-731.0
-10.0,-177.0,-183.0,29.0,-64.0,-34.0,-19.0,-712.0,-730.0
-10.0,-176.0,-183.0,32.0,-61.0,-33.0,-15.0,-710.0,-729.0
-8.0,-178.0,-178.0,33.0,-61.0,-30.0,-21.0,-713.0,-732.0
-8.0,-177.0,-177.0,34.0,-64.0,-28.0,-15.0,-713.0,-736.0
-6.0,-179.0,-177.0,35.0,-66.0,-27.0,-13.0,-716.0,-730.0
-4.0,-178.0,-179.0,35.0,-67.0,-24.0,-14.0,-727.0,-733.0
-6.0,-177.0,-178.0,34.0,-70.0,-23.0,-8.0,-721.0,-731.0
-4.0,-179.0,-181.0,34.0,-73.0,-21.0,-13.0,-728.0,-728.0
-4.0,-181.0,-177.0,32.0,-76.0,-21.0,-7.0,-725.0,-730.0
-5.0,-180.0,-180.0,33.0,-78.0,-19.0,-7.0,-732.0,-721.0
-6.0,-179.0,-179.0,33.0,-80.0,-20.0,-9.0,-734.0,-728.0
-5.0,-183.0,-176.0,36.0,-82.0,-21.0,-10.0,-740.0,-729.0
-6.0,-185.0,-176.0,39.0,-83.0,-22.0,-20.0,-745.0,-728.0
-4.0,-186.0,-179.0,44.0,-83.0,-22.0,-10.0,-743.0,-733.0
-3.0,-187.0,-179.0,51.0,-82.0,-23.0,-13.0,-743.0,-730.0
-5.0,-188.0,-181.0,59.0,-81.0,-21.0,-11.0,-746.0,-729.0
-5.0,-185.0,-182.0,68.0,-79.0,-21.0,-15.0,-753.0,-729.0
-9.0,-186.0,-179.0,79.0,-77.0,-17.0,-19.0,-752.0,-733.0
-5.0,-186.0,-179.0,91.0,-76.0,-17.0,-19.0,-750.0,-726.0
-4.0,-184.0,-177.0,104.0,-72.0,-17.0,-16.0,-748.0,-725.0
-5.0,-189.0,-180.0,116.0,-70.0,-19.0,-13.0,-748.0,-719.0
-4.0,-184.0,-178.0,127.0,-69.0,-19.0,-16.0,-750.0,-713.0
-5.0,-187.0,-176.0,138.0,-69.0,-19.0,-15.0,-747.0,-704.0
-8.0,-186.0,-182.0,145.0,-65.0,-21.0,-10.0,-745.0,-711.0
-4.0,-184.0,-175.0,151.0,-63.0,-24.0,-21.0,-752.0,-703.0
-11.0,-183.0,-168.0,155.0,-61.0,-25.0,-20.0,-743.0,-703.0
-9.0,-183.0,-170.0,157.0,-62.0,-27.0,-22.0,-745.0,-705.0
-6.0,-187.0,-174.0,158.0,-61.0,-29.0,-30.0,-742.0,-706.0
-11.0,-182.0,-175.0,158.0,-59.0,-30.0,-28.0,-746.0,-709.0
-10.0,-186.0,-174.0,160.0,-59.0,-31.0,-27.0,-745.0,-707.0
-13.0,-182.0,-176.0,160.0,-56.0,-31.0,-33.0,-745.0,-712.0
-8.0,-185.0,-177.0,164.0,-54.0,-31.0,-36.0,-754.0,-703.0
-9.0,-185.0,-171.0,171.0,-51.0,-33.0,-32.0,-756.0,-710.0
-10.0,-186.0,-175.0,178.0,-49.0,-36.0,-33.0,-754.0,-707.0
-13.0,-187.0,-173.0,184.0,-47.0,-38.0,-29.0,-762.0,-706.0
-11.0,-186.0,-175.0,192.0,-49.0,-39.0,-28.0,-764.0,-703.0
-11.0,-190.0,-176.0,204.0,-50.0,-42.0,-25.0,-769.0,-698.0
-4.0,-188.0,-172.0,215.0,-49.0,-44.0,-30.0,-766.0,-698.0
-9.0,-188.0,-172.0,226.0,-48.0,-46.0,-30.0,-770.0,-714.0
-10.0,-189.0,-174.0,234.0,-48.0,-47.0,-23.0,-769.0,-701.0
-7.0,-187.0,-175.0,240.0,-46.0,-49.0,-23.0,-764.0,-708.0
-10.0,-186.0,-174.0,244.0,-46.0,-53.0,-20.0,-765.0,-702.0
-6.0,-186.0,-172.0,250.0,-45.0,-55.0,-23.0,-758.0,-707.0
-11.0,-190.0,-173.0,252.0,-46.0,-57.0,-24.0,-764.0,-697.0
-12.0,-190.0,-175.0,255.0,-44.0,-58.0,-27.0,-765.0,-699.0
-9.0,-190.0,-171.0,260.0,-46.0,-59.0,-32.0,-761.0,-695.0
-11.0,-189.0,-170.0,266.0,-44.0,-61.0,-33.0,-765.0,-691.0
-9.0,-189.0,-167.0,270.0,-44.0,-65.0,-25.0,-765.0,-686.0
-13.0,-190.0,-172.0,276.0,-44.0,-70.0,-29.0,-772.0,-690.0
-8.0,-189.0,-170.0,280.0,-46.0,-72.0,-28.0,-770.0,-695.0
-8.0,-190.0,-172.0,284.0,-45.0,-75.0,-28.0,-768.0,-693.0
-11.0,-191.0,-174.0,284.0,-47.0,-79.0,-32.0,-769.0,-691.0
-14.0,-188.0,-174.0,281.0,-47.0,-84.0,-34.0,-771.0,-691.0
-14.0,-188.0,-171.0,277.0,-48.0,-88.0,-33.0,-771.0,-694.0
-14.0,-190.0,-166.0,274.0,-48.0,-92.0,-38.0,-771.0,-688.0
-12.0,-190.0,-169.0,270.0,-47.0,-96.0,-34.0,-770.0,-689.0
-13.0,-190.0,-170.0,269.0,-47.0,-99.0,-36.0,-770.0,-685.0
-10.0,-194.0,-167.0,267.0,-47.0,-100.0,-37.0,-763.0,-684.0
-13.0,-188.0,-166.0,266.0,-48.0,-105.0,-42.0,-767.0,-684.0
-15.0,-188.0,-167.0,267.0,-50.0,-105.0,-38.0,-765.0,-685.0
-13.0,-188.0,-169.0,266.0,-52.0,-108.0,-35.0,-759.0,-684.0
-9.0,-187.0,-169.0,265.0,-54.0,-110.0,-39.0,-759.0,-671.0
-13.0,-187.0,-169.0,265.0,-53.0,-113.0,-33.0,-762.0,-681.0
-8.0,-189.0,-168.0,265.0,-55.0,-115.0,-33.0,-758.0,-682.0
-9.0,-187.0,-166.0,264.0,-56.0,-116.0,-28.0,-759.0,-679.0
-10.0,-187.0,-170.0,263.0,-55.0,-119.0,-30.0,-754.0,-677.0
-13.0,-188.0,-166.0,261.0,-56.0,-119.0,-33.0,-758.0,-683.0
-10.0,-189.0,-167.0,260.0,-57.0,-120.0,-27.0,-756.0,-675.0
-8.0,-189.0,-170.0,261.0,-57.0,-119.0,-22.0,-759.0,-670.0
-5.0,-187.0,-166.0,260.0,-57.0,-118.0,-25.0,-760.0,-665.0
-8.0,-189.0,-167.0,259.0,-57.0,-117.0,-24.0,-754.0,-665.0
-4.0,-190.0,-166.0,259.0,-56.0,-118.0,-25.0,-762.0,-664.0
-6.0,-189.0,-162.0,258.0,-53.0,-118.0,-13.0,-756.0,-656.0
-6.0,-187.0,-159.0,255.0,-51.0,-118.0,-18.0,-768.0,-656.0
-4.0,-189.0,-159.0,252.0,-49.0,-117.0,-12.0,-765.0,-656.0
-6.0,-191.0,-160.0,248.0,-46.0,-115.0,-7.0,-770.0,-649.0
-5.0,-190.0,-163.0,242.0,-42.0,-113.0,-8.0,-770.0,-656.0
-2.0,-191.0,-158.0,235.0,-35.0,-110.0,-5.0,-775.0,-653.0
-5.0,-189.0,-164.0,228.0,-29.0,-106.0,-2.0,-778.0,-657.0
-4.0,-191.0,-165.0,220.0,-22.0,-103.0,4.0,-780.0,-647.0
-3.0,-192.0,-156.0,212.0,-16.0,-100.0,1.0,-783.0,-653.0
-2.0,-191.0,-160.0,206.0,-11.0,-93.0,2.0,-780.0,-655.0
-2.0,-192.0,-159.0,198.0,-4.0,-89.0,-2.0,-785.0,-650.0
0.0,-194.0,-160.0,191.0,1.0,-83.0,1.0,-780.0,-651.0
-3.0,-193.0,-157.0,186.0,6.0,-81.0,0.0,-782.0,-642.0
-3.0,-192.0,-162.0,182.0,11.0,-74.0,3.0,-785.0,-645.0
-4.0,-195.0,-163.0,180.0,15.0,-69.0,2.0,-786.0,-641.0
-2.0,-193.0,-158.0,176.0,18.0,-61.0,2.0,-779.0,-645.0
-3.0,-192.0,-156.0,172.0,22.0,-57.0,3.0,-784.0,-642.0
-6.0,-190.0,-159.0,168.0,26.0,-51.0,-1.0,-786.0,-643.0
-3.0,-192.0,-161.0,163.0,29.0,-43.0,-5.0,-781.0,-642.0
-5.0,-192.0,-159.0,157.0,32.0,-36.0,-10.0,-776.0,-634.0
-4.0,-188.0,-160.0,150.0,37.0,-29.0,-4.0,-774.0,-642.0
-5.0,-192.0,-154.0,143.0,39.0,-20.0,-4.0,-775.0,-640.0
-4.0,-191.0,-156.0,137.0,42.0,-12.0,-3.0,-763.0,-639.0
-4.0,-188.0,-161.0,130.0,46.0,-5.0,-10.0,-770.0,-634.0
-4.0,-187.0,-155.0,124.0,50.0,-1.0,-3.0,-765.0,-636.0
-3.0,-190.0,-159.0,118.0,54.0,7.0,-5.0,-769.0,-634.0
-4.0,-192.0,-160.0,111.0,57.0,14.0,-7.0,-770.0,-639.0
-4.0,-189.0,-159.0,103.0,61.0,19.0,-9.0,-761.0,-643.0
-3.0,-189.0,-161.0,94.0,65.0,24.0,-4.0,-768.0,-642.0
-6.0,-193.0,-156.0,86.0,70.0,30.0,-8.0,-766.0,-646.0
-8.0,-189.0,-159.0,77.0,74.0,36.0,-5.0,-768.0,-648.0
-4.0,-189.0,-157.0,68.0,78.0,41.0,-7.0,-772.0,-645.0
-4.0,-189.0,-162.0,59.0,83.0,45.0,-9.0,-770.0,-652.0
-6.0,-191.0,-162.0,49.0,88.0,51.0,-5.0,-773.0,-649.0
-4.0,-190.0,-159.0,40.0,93.0,56.0,-10.0,-780.0,-659.0
-5.0,-191.0,-164.0,34.0,98.0,59.0,-8.0,-778.0,-653.0
-4.0,-193.0,-159.0,26.0,106.0,63.0,-12.0,-782.0,-656.0
-7.0,-191.0,-163.0,21.0,112.0,68.0,-10.0,-782.0,-652.0
-4.0,-194.0,-164.0,17.0,116.0,69.0,-13.0,-783.0,-660.0
-7.0,-192.0,-167.0,15.0,121.0,71.0,-15.0,-784.0,-668.0
-8.0,-196.0,-163.0,13.0,127.0,75.0,-13.0,-781.0,-665.0
-5.0,-192.0,-162.0,11.0,131.0,79.0,-16.0,-783.0,-664.0
-4.0,-193.0,-163.0,10.0,136.0,81.0,-14.0,-783.0,-669.0
-5.0,-190.0,-165.0,9.0,139.0,83.0,-16.0,-785.0,-659.0
-5.0,-193.0,-166.0,8.0,142.0,85.0,-20.0,-782.0,-668.0
-4.0,-192.0,-165.0,7.0,145.0,85.0,-25.0,-785.0,-671.0
-6.0,-191.0,-164.0,6.0,146.0,86.0,-20.0,-785.0,-671.0
-7.0,-191.0,-161.0,5.0,147.0,89.0,-28.0,-780.0,-672.0
-12.0,-190.0,-163.0,2.0,147.0,90.0,-30.0,-782.0,-671.0
-8.0,-193.0,-164.0,-1.0,148.0,92.0,-33.0,-781.0,-669.0
-12.0,-191.0,-163.0,-4.0,149.0,95.0,-21.0,-785.0,-664.0
-9.0,-192.0,-159.0,-8.0,147.0,95.0,-30.0,-786.0,-666.0
-8.0,-194.0,-161.0,-11.0,147.0,97.0,-31.0,-781.0,-670.0
-9.0,-192.0,-162.0,-13.0,147.0,99.0,-29.0,-779.0,-664.0
-8.0,-192.0,-159.0,-15.0,146.0,98.0,-29.0,-782.0,-656.0
-8.0,-192.0,-163.0,-18.0,144.0,99.0,-37.0,-786.0,-659.0
-14.0,-191.0,-164.0,-20.0,141.0,100.0,-32.0,-784.0,-656.0
-14.0,-191.0,-163.0,-24.0,139.0,101.0,-33.0,-781.0,-661.0
-13.0,-192.0,-162.0,-29.0,136.0,100.0,-35.0,-783.0,-662.0
-9.0,-194.0,-163.0,-35.0,134.0,99.0,-34.0,-789.0,-666.0
-11.0,-193.0,-165.0,-39.0,131.0,99.0,-28.0,-791.0,-668.0
-14.0,-195.0,-168.0,-46.0,128.0,99.0,-33.0,-781.0,-663.0
-9.0,-197.0,-159.0,-52.0,126.0,100.0,-30.0,-786.0,-667.0
-8.0,-193.0,-165.0,-60.0,125.0,100.0,-29.0,-780.0,-666.0
-11.0,-191.0,-166.0,-67.0,122.0,101.0,-30.0,-783.0,-662.0
-9.0,-194.0,-161.0,-72.0,119.0,103.0,-25.0,-783.0,-656.0
-11.0,-192.0,-164.0,-78.0,116.0,105.0,-26.0,-785.0,-651.0
-11.0,-192.0,-159.0,-82.0,113.0,105.0,-26.0,-785.0,-646.0
-10.0,-192.0,-158.0,-84.0,112.0,102.0,-24.0,-780.0,-649.0
-10.0,-194.0,-161.0,-85.0,109.0,102.0,-28.0,-785.0,-648.0
-11.0,-191.0,-163.0,-85.0,105.0,102.0,-30.0,-782.0,-645.0
-7.0,-195.0,-160.0,-82.0,103.0,97.0,-26.0,-785.0,-648.0
-11.0,-194.0,-152.0,-78.0,99.0,96.0,-39.0,-786.0,-645.0
-13.0,-196.0,-160.0,-75.0,97.0,94.0,-34.0,-788.0,-643.0
-12.0,-196.0,-160.0,-71.0,94.0,91.0,-36.0,-790.0,-645.0
-13.0,-192.0,-159.0,-68.0,91.0,87.0,-38.0,-796.0,-647.0
-14.0,-194.0,-163.0,-63.0,88.0,86.0,-42.0,-799.0,-649.0
-17.0,-194.0,-161.0,-60.0,86.0,83.0,-45.0,-798.0,-644.0
-13.0,-195.0,-159.0,-55.0,82.0,81.0,-41.0,-795.0,-650.0
-15.0,-195.0,-155.0,-50.0,78.0,79.0,-44.0,-799.0,-653.0
-9.0,-195.0,-161.0,-49.0,75.0,78.0,-47.0,-793.0,-656.0
-14.0,-197.0,-159.0,-45.0,73.0,76.0,-45.0,-793.0,-652.0
-11.0,-202.0,-158.0,-41.0,70.0,74.0,-43.0,-785.0,-652.0
-16.0,-195.0,-154.0,-37.0,68.0,69.0,-39.0,-792.0,-649.0
-12.0,-194.0,-159.0,-34.0,65.0,66.0,-42.0,-792.0,-652.0
-13.0,-193.0,-158.0,-31.0,60.0,62.0,-38.0,-789.0,-642.0
-13.0,-194.0,-158.0,-29.0,56.0,55.0,-37.0,-792.0,-646.0
-12.0,-193.0,-163.0,-27.0,53.0,50.0,-40.0,-792.0,-650.0
-12.0,-194.0,-157.0,-28.0,49.0,49.0,-46.0,-787.0,-646.0
-13.0,-194.0,-162.0,-31.0,47.0,45.0,-30.0,-799.0,-647.0
-13.0,-194.0,-161.0,-32.0,44.0,39.0,-33.0,-798.0,-656.0
-9.0,-195.0,-163.0,-34.0,41.0,35.0,-30.0,-783.0,-649.0
-9.0,-193.0,-160.0,-35.0,37.0,35.0,-28.0,-783.0,-646.0
-11.0,-193.0,-161.0,-37.0,35.0,36.0,-31.0,-789.0,-656.0
-16.0,-195.0,-160.0,-39.0,31.0,32.0,-23.0,-794.0,-648.0
-8.0,-194.0,-160.0,-42.0,29.0,30.0,-28.0,-790.0,-657.0
-8.0,-193.0,-164.0,-44.0,26.0,29.0,-32.0,-787.0,-657.0
-8.0,-191.0,-161.0,-47.0,23.0,27.0,-30.0,-776.0,-657.0
-10.0,-191.0,-163.0,-45.0,22.0,29.0,-24.0,-779.0,-650.0
-7.0,-190.0,-161.0,-39.0,20.0,27.0,-18.0,-772.0,-662.0
-8.0,-188.0,-168.0,-33.0,17.0,24.0,-24.0,-760.0,-658.0
-9.0,-190.0,-169.0,-26.0,15.0,18.0,-29.0,-775.0,-660.0
-12.0,-195.0,-163.0,-19.0,13.0,16.0,-34.0,-785.0,-669.0
-11.0,-194.0,-169.0,-18.0,8.0,18.0,-36.0,-781.0,-670.0
-6.0,-192.0,-164.0,-20.0,7.0,16.0,-30.0,-778.0,-678.0
-14.0,-186.0,-170.0,-25.0,9.0,14.0,-34.0,-787.0,-666.0
-17.0,-191.0,-168.0,-27.0,12.0,12.0,-38.0,-780.0,-674.0
-12.0,-193.0,-171.0,-26.0,15.0,12.0,-41.0,-776.0,-675.0
-12.0,-192.0,-166.0,-23.0,16.0,11.0,-39.0,-781.0,-681.0
-14.0,-192.0,-167.0,-23.0,17.0,9.0,-40.0,-784.0,-683.0
-12.0,-192.0,-168.0,-19.0,19.0,5.0,-40.0,-780.0,-681.0
-12.0,-192.0,-169.0,-17.0,19.0,3.0,-38.0,-785.0,-678.0
-14.0,-193.0,-167.0,-12.0,22.0,1.0,-36.0,-783.0,-682.0
-15.0,-192.0,-165.0,-9.0,22.0,-2.0,-33.0,-782.0,-681.0
-13.0,-193.0,-170.0,-7.0,21.0,-4.0,-37.0,-779.0,-686.0
-15.0,-188.0,-170.0,-5.0,21.0,-8.0,-37.0,-778.0,-680.0
-19.0,-190.0,-174.0,-4.0,22.0,-11.0,-38.0,-778.0,-679.0
-13.0,-189.0,-167.0,-3.0,21.0,-15.0,-37.0,-773.0,-683.0
-11.0,-188.0,-171.0,-1.0,20.0,-20.0,-44.0,-773.0,-684.0
-11.0,-190.0,-170.0,3.0,20.0,-22.0,-36.0,-768.0,-684.0
-12.0,-190.0,-171.0,2.0,21.0,-25.0,-40.0,-771.0,-686.0
-12.0,-190.0,-168.0,6.0,19.0,-25.0,-38.0,-770.0,-683.0
-16.0,-190.0,-171.0,8.0,20.0,-28.0,-35.0,-771.0,-687.0
-13.0,-189.0,-170.0,11.0,16.0,-31.0,-42.0,-776.0,-688.0
-12.0,-191.0,-169.0,13.0,14.0,-33.0,-38.0,-773.0,-691.0
-12.0,-189.0,-168.0,18.0,11.0,-36.0,-43.0,-770.0,-690.0
-13.0,-191.0,-168.0,22.0,9.0,-38.0,-42.0,-766.0,-693.0
-15.0,-191.0,-173.0,25.0,5.0,-40.0,-46.0,-768.0,-690.0
-16.0,-190.0,-173.0,29.0,3.0,-43.0,-45.0,-768.0,-694.0
-15.0,-188.0,-170.0,34.0,0.0,-45.0,-43.0,-771.0,-696.0
-13.0,-191.0,-170.0,38.0,-2.0,-47.0,-46.0,-769.0,-702.0
-11.0,-189.0,-168.0,41.0,-5.0,-47.0,-43.0,-766.0,-700.0
-17.0,-189.0,-177.0,45.0,-9.0,-48.0,-38.0,-770.0,-696.0
-15.0,-189.0,-170.0,49.0,-11.0,-51.0,-42.0,-770.0,-691.0
-11.0,-192.0,-174.0,52.0,-14.0,-53.0,-45.0,-772.0,-702.0
-14.0,-188.0,-169.0,55.0,-18.0,-54.0,-47.0,-769.0,-699.0
-14.0,-187.0,-170.0,58.0,-20.0,-56.0,-42.0,-768.0,-694.0
-15.0,-187.0,-169.0,59.0,-22.0,-57.0,-42.0,-765.0,-691.0
-9.0,-190.0,-173.0,60.0,-25.0,-60.0,-39.0,-770.0,-699.0
-14.0,-187.0,-174.0,64.0,-28.0,-61.0,-40.0,-759.0,-699.0
-11.0,-189.0,-167.0,64.0,-29.0,-63.0,-41.0,-765.0,-700.0
-15.0,-188.0,-170.0,64.0,-31.0,-64.0,-41.0,-765.0,-696.0
-14.0,-187.0,-173.0,65.0,-35.0,-67.0,-39.0,-763.0,-690.0
-13.0,-183.0,-173.0,66.0,-38.0,-68.0,-39.0,-759.0,-692.0
-11.0,-186.0,-173.0,68.0,-41.0,-70.0,-38.0,-761.0,-692.0
-13.0,-186.0,-173.0,71.0,-44.0,-70.0,-37.0,-755.0,-690.0
-14.0,-186.0,-175.0,72.0,-47.0,-70.0,-36.0,-755.0,-694.0
-13.0,-188.0,-172.0,76.0,-49.0,-70.0,-39.0,-754.0,-700.0
-12.0,-188.0,-176.0,79.0,-51.0,-71.0,-38.0,-747.0,-699.0
-15.0,-188.0,-177.0,83.0,-53.0,-69.0,-34.0,-754.0,-696.0
-9.0,-185.0,-173.0,86.0,-54.0,-67.0,-35.0,-756.0,-702.0
-11.0,-186.0,-174.0,88.0,-56.0,-67.0,-35.0,-752.0,-700.0
-11.0,-188.0,-175.0,89.0,-57.0,-64.0,-36.0,-751.0,-694.0
-8.0,-188.0,-173.0,89.0,-58.0,-64.0,-30.0,-754.0,-695.0
-7.0,-188.0,-172.0,89.0,-60.0,-63.0,-30.0,-754.0,-692.0
-10.0,-185.0,-174.0,88.0,-61.0,-64.0,-26.0,-754.0,-698.0
-10.0,-187.0,-175.0,90.0,-61.0,-62.0,-21.0,-751.0,-700.0
-9.0,-186.0,-169.0,90.0,-61.0,-63.0,-27.0,-755.0,-696.0
-4.0,-193.0,-173.0,90.0,-62.0,-61.0,-21.0,-757.0,-692.0
-6.0,-188.0,-172.0,88.0,-62.0,-61.0,-23.0,-753.0,-690.0
-7.0,-183.0,-173.0,87.0,-63.0,-61.0,-20.0,-752.0,-692.0
-7.0,-187.0,-171.0,86.0,-64.0,-62.0,-23.0,-756.0,-697.0
-7.0,-185.0,-173.0,87.0,-65.0,-60.0,-21.0,-755.0,-693.0
-5.0,-188.0,-169.0,86.0,-66.0,-60.0,-16.0,-765.0,-694.0
-5.0,-186.0,-173.0,85.0,-66.0,-59.0,-14.0,-761.0,-689.0
-9.0,-188.0,-170.0,86.0,-65.0,-60.0,-14.0,-764.0,-692.0
-8.0,-189.0,-173.0,88.0,-65.0,-59.0,-16.0,-764.0,-687.0
-6.0,-192.0,-166.0,89.0,-65.0,-58.0,-15.0,-762.0,-688.0
-5.0,-185.0,-172.0,93.0,-65.0,-61.0,-16.0,-765.0,-685.0
-6.0,-189.0,-168.0,95.0,-63.0,-60.0,-14.0,-767.0,-684.0
-7.0,-191.0,-167.0,97.0,-63.0,-61.0,-21.0,-770.0,-683.0
-17.0,-189.0,-167.0,102.0,-62.0,-62.0,-18.0,-764.0,-685.0
-6.0,-190.0,-169.0,106.0,-60.0,-63.0,-24.0,-770.0,-680.0
-10.0,-188.0,-168.0,108.0,-60.0,-64.0,-20.0,-772.0,-681.0
-9.0,-189.0,-170.0,109.0,-59.0,-61.0,-19.0,-772.0,-684.0
-8.0,-192.0,-166.0,111.0,-57.0,-62.0,-20.0,-775.0,-678.0
-6.0,-187.0,-167.0,111.0,-56.0,-63.0,-25.0,-776.0,-682.0
-9.0,-190.0,-163.0,111.0,-54.0,-64.0,-25.0,-773.0,-678.0
-10.0,-188.0,-168.0,112.0,-53.0,-63.0,-21.0,-771.0,-678.0
-6.0,-189.0,-164.0,112.0,-53.0,-65.0,-21.0,-776.0,-676.0
-10.0,-189.0,-167.0,113.0,-50.0,-65.0,-23.0,-772.0,-677.0
-8.0,-193.0,-164.0,112.0,-48.0,-66.0,-22.0,-774.0,-679.0
-6.0,-189.0,-166.0,112.0,-46.0,-66.0,-19.0,-770.0,-674.0
-9.0,-191.0,-167.0,111.0,-44.0,-66.0,-20.0,-769.0,-670.0
-6.0,-190.0,-166.0,111.0,-42.0,-68.0,-14.0,-775.0,-677.0
-7.0,-191.0,-165.0,109.0,-39.0,-67.0,-17.0,-774.0,-672.0
-4.0,-193.0,-162.0,108.0,-37.0,-67.0,-17.0,-782.0,-671.0
-7.0,-193.0,-166.0,107.0,-35.0,-66.0,-15.0,-776.0,-668.0
-4.0,-193.0,-164.0,108.0,-34.0,-63.0,-16.0,-779.0,-670.0
-8.0,-191.0,-160.0,107.0,-32.0,-61.0,-13.0,-773.0,-667.0
-4.0,-192.0,-166.0,106.0,-30.0,-59.0,-10.0,-772.0,-663.0
-6.0,-192.0,-166.0,107.0,-28.0,-57.0,-10.0,-776.0,-658.0
-5.0,-188.0,-159.0,107.0,-26.0,-56.0,-6.0,-774.0,-661.0
-3.0,-190.0,-166.0,109.0,-24.0,-52.0,-9.0,-771.0,-655.0
-4.0,-191.0,-162.0,109.0,-23.0,-48.0,0.0,-770.0,-665.0
-5.0,-188.0,-164.0,106.0,-21.0,-46.0,-5.0,-774.0,-667.0
-5.0,-187.0,-163.0,104.0,-20.0,-43.0,-8.0,-770.0,-658.0
-3.0,-188.0,-162.0,103.0,-19.0,-41.0,-4.0,-769.0,-657.0
-4.0,-189.0,-165.0,101.0,-18.0,-39.0,-5.0,-768.0,-666.0
-4.0,-190.0,-162.0,96.0,-18.0,-39.0,-9.0,-766.0,-655.0
-6.0,-189.0,-164.0,91.0,-16.0,-36.0,-6.0,-774.0,-662.0
-3.0,-193.0,-160.0,88.0,-14.0,-34.0,-7.0,-771.0,-652.0
-4.0,-192.0,-162.0,84.0,-13.0,-32.0,-13.0,-770.0,-661.0
-9.0,-193.0,-162.0,81.0,-11.0,-29.0,-9.0,-772.0,-670.0
-4.0,-190.0,-161.0,76.0,-11.0,-27.0,-11.0,-774.0,-664.0
-5.0,-191.0,-164.0,69.0,-7.0,-26.0,-16.0,-781.0,-664.0
-7.0,-192.0,-166.0,65.0,-6.0,-24.0,-21.0,-778.0,-659.0
-6.0,-192.0,-165.0,62.0,-7.0,-20.0,-25.0,-776.0,-654.0
-6.0,-192.0,-162.0,59.0,-6.0,-19.0,-16.0,-777.0,-653.0
-7.0,-192.0,-160.0,57.0,-5.0,-20.0,-22.0,-774.0,-658.0
-4.0,-194.0,-166.0,58.0,-4.0,-19.0,-19.0,-770.0,-658.0
-4.0,-193.0,-162.0,56.0,-3.0,-19.0,-23.0,-771.0,-652.0
-7.0,-189.0,-167.0,55.0,-2.0,-16.0,-21.0,-775.0,-656.0
-6.0,-191.0,-167.0,55.0,2.0,-18.0,-17.0,-778.0,-654.0
-6.0,-191.0,-154.0,53.0,5.0,-20.0,-12.0,-777.0,-651.0
-9.0,-190.0,-158.0,52.0,9.0,-20.0,-17.0,-775.0,-651.0
-4.0,-192.0,-159.0,50.0,12.0,-20.0,-15.0,-781.0,-658.0
-9.0,-190.0,-161.0,47.0,16.0,-19.0,-13.0,-782.0,-645.0
-4.0,-192.0,-162.0,45.0,20.0,-19.0,-18.0,-782.0,-647.0
-4.0,-193.0,-158.0,42.0,22.0,-18.0,-18.0,-787.0,-649.0
-6.0,-189.0,-158.0,38.0,24.0,-19.0,-15.0,-784.0,-653.0
-8.0,-193.0,-161.0,34.0,26.0,-18.0,-18.0,-785.0,-652.0
-6.0,-192.0,-163.0,33.0,28.0,-18.0,-12.0,-784.0,-646.0
-8.0,-193.0,-161.0,33.0,30.0,-16.0,-20.0,-782.0,-646.0
-6.0,-192.0,-161.0,30.0,30.0,-17.0,-17.0,-780.0,-647.0
-5.0,-197.0,-156.0,30.0,30.0,-16.0,-15.0,-787.0,-648.0
-5.0,-193.0,-161.0,27.0,28.0,-17.0,-25.0,-786.0,-650.0
-11.0,-195.0,-156.0,26.0,26.0,-17.0,-16.0,-784.0,-650.0
-6.0,-194.0,-164.0,27.0,25.0,-18.0,-16.0,-789.0,-651.0
-9.0,-192.0,-161.0,26.0,25.0,-18.0,-20.0,-784.0,-650.0
-6.0,-193.0,-160.0,25.0,24.0,-16.0,-20.0,-787.0,-660.0
-12.0,-190.0,-158.0,23.0,24.0,-18.0,-16.0,-780.0,-657.0
-7.0,-192.0,-161.0,22.0,24.0,-17.0,-19.0,-784.0,-651.0
-7.0,-194.0,-159.0,20.0,25.0,-16.0,-19.0,-787.0,-654.0
-9.0,-192.0,-161.0,19.0,26.0,-16.0,-20.0,-780.0,-659.0
-7.0,-197.0,-164.0,18.0,27.0,-17.0,-22.0,-787.0,-655.0
-10.0,-195.0,-162.0,17.0,28.0,-15.0,-19.0,-786.0,-659.0
-7.0,-193.0,-161.0,15.0,29.0,-13.0,-18.0,-780.0,-657.0
-4.0,-192.0,-161.0,15.0,30.0,-11.0,-17.0,-785.0,-658.0
-3.0,-193.0,-160.0,16.0,31.0,-12.0,-18.0,-786.0,-663.0
-6.0,-192.0,-163.0,16.0,32.0,-10.0,-17.0,-782.0,-650.0
-6.0,-193.0,-164.0,17.0,33.0,-9.0,-12.0,-788.0,-656.0
-4.0,-194.0,-164.0,15.0,33.0,-8.0,-12.0,-783.0,-657.0
-3.0,-192.0,-159.0,12.0,34.0,-7.0,-10.0,-784.0,-656.0
-5.0,-195.0,-164.0,11.0,36.0,-5.0,-6.0,-784.0,-656.0
-4.0,-192.0,-166.0,9.0,37.0,-4.0,-6.0,-782.0,-652.0
-3.0,-192.0,-161.0,7.0,38.0,-2.0,-12.0,-782.0,-662.0
-3.0,-192.0,-155.0,4.0,39.0,-1.0,-9.0,-779.0,-659.0
-6.0,-191.0,-162.0,2.0,40.0,1.0,-11.0,-776.0,-657.0
-6.0,-191.0,-161.0,0.0,42.0,2.0,-13.0,-780.0,-652.0
-8.0,-193.0,-162.0,-3.0,44.0,4.0,-12.0,-777.0,-657.0
-6.0,-189.0,-161.0,-6.0,46.0,6.0,-7.0,-783.0,-662.0
-4.0,-191.0,-161.0,-9.0,48.0,9.0,-9.0,-782.0,-650.0
-4.0,-191.0,-161.0,-14.0,48.0,12.0,-13.0,-777.0,-653.0
-3.0,-190.0,-166.0,-15.0,49.0,14.0,-7.0,-777.0,-651.0
-3.0,-190.0,-165.0,-18.0,50.0,15.0,-11.0,-775.0,-653.0
-3.0,-190.0,-158.0,-22.0,52.0,15.0,-10.0,-780.0,-648.0
-5.0,-192.0,-165.0,-24.0,51.0,17.0,-13.0,-780.0,-656.0
-3.0,-195.0,-166.0,-28.0,53.0,19.0,-6.0,-776.0,-663.0
-4.0,-191.0,-158.0,-29.0,52.0,21.0,-15.0,-776.0,-664.0
-6.0,-191.0,-161.0,-30.0,53.0,21.0,-10.0,-773.0,-661.0
-5.0,-192.0,-163.0,-31.0,55.0,23.0,-9.0,-778.0,-661.0
-7.0,-192.0,-162.0,-32.0,56.0,24.0,-6.0,-781.0,-666.0
-5.0,-191.0,-167.0,-34.0,56.0,27.0,-6.0,-777.0,-662.0
-4.0,-191.0,-163.0,-36.0,58.0,28.0,-13.0,-775.0,-667.0
-4.0,-190.0,-164.0,-36.0,59.0,29.0,-14.0,-782.0,-667.0
-5.0,-192.0,-168.0,-38.0,62.0,32.0,-15.0,-779.0,-668.0
-5.0,-193.0,-162.0,-40.0,63.0,32.0,-14.0,-783.0,-662.0
-4.0,-194.0,-163.0,-42.0,64.0,34.0,-11.0,-784.0,-667.0
-4.0,-194.0,-163.0,-45.0,67.0,36.0,-11.0,-788.0,-673.0
-4.0,-194.0,-166.0,-48.0,68.0,36.0,-12.0,-787.0,-668.0
-4.0,-195.0,-164.0,-51.0,69.0,38.0,-14.0,-777.0,-665.0
-6.0,-191.0,-163.0,-52.0,70.0,38.0,-13.0,-783.0,-668.0
-4.0,-194.0,-159.0,-54.0,73.0,39.0,-10.0,-785.0,-669.0
-4.0,-192.0,-163.0,-58.0,73.0,41.0,-15.0,-780.0,-668.0
-4.0,-193.0,-167.0,-59.0,74.0,43.0,-14.0,-784.0,-667.0
-8.0,-192.0,-167.0,-61.0,75.0,43.0,-9.0,-775.0,-668.0
-7.0,-193.0,-166.0,-64.0,74.0,44.0,-11.0,-780.0,-670.0
-7.0,-195.0,-164.0,-64.0,75.0,43.0,-14.0,-783.0,-670.0
-7.0,-193.0,-168.0,-66.0,75.0,43.0,-15.0,-778.0,-668.0
-14.0,-186.0,-166.0,-66.0,76.0,44.0,-10.0,-786.0,-668.0
-5.0,-190.0,-163.0,-68.0,75.0,45.0,-16.0,-779.0,-671.0
-4.0,-192.0,-164.0,-69.0,74.0,45.0,-16.0,-782.0,-673.0
-7.0,-192.0,-165.0,-68.0,74.0,46.0,-14.0,-778.0,-673.0
-8.0,-191.0,-167.0,-69.0,75.0,46.0,-18.0,-783.0,-673.0
-4.0,-193.0,-167.0,-69.0,74.0,46.0,-21.0,-771.0,-669.0
-7.0,-193.0,-170.0,-70.0,74.0,47.0,-14.0,-778.0,-672.0
-6.0,-191.0,-165.0,-70.0,73.0,46.0,-18.0,-778.0,-677.0
-4.0,-193.0,-166.0,-72.0,72.0,47.0,-16.0,-780.0,-673.0
-3.0,-194.0,-164.0,-70.0,73.0,47.0,-11.0,-780.0,-674.0
-5.0,-199.0,-166.0,-71.0,72.0,47.0,-8.0,-778.0,-676.0
-7.0,-189.0,-168.0,-70.0,72.0,47.0,-13.0,-778.0,-674.0
-7.0,-194.0,-168.0,-69.0,72.0,49.0,-13.0,-776.0,-678.0
-5.0,-192.0,-167.0,-68.0,72.0,49.0,-14.0,-779.0,-678.0
-5.0,-191.0,-168.0,-66.0,73.0,47.0,-12.0,-778.0,-674.0
-4.0,-190.0,-172.0,-63.0,74.0,48.0,-12.0,-776.0,-676.0
-7.0,-191.0,-167.0,-61.0,74.0,49.0,-13.0,-770.0,-678.0
-4.0,-192.0,-168.0,-60.0,75.0,50.0,-12.0,-777.0,-672.0
-4.0,-195.0,-169.0,-58.0,74.0,50.0,-14.0,-780.0,-679.0
-6.0,-190.0,-164.0,-55.0,74.0,50.0,-16.0,-777.0,-675.0
-5.0,-192.0,-168.0,-55.0,75.0,50.0,-15.0,-771.0,-675.0
-8.0,-191.0,-163.0,-53.0,76.0,50.0,-15.0,-772.0,-673.0
-4.0,-189.0,-170.0,-51.0,78.0,50.0,-13.0,-770.0,-680.0
-6.0,-189.0,-168.0,-48.0,81.0,52.0,-5.0,-770.0,-683.0
-3.0,-191.0,-169.0,-45.0,82.0,52.0,-2.0,-771.0,-683.0
-4.0,-186.0,-167.0,-40.0,85.0,52.0,-4.0,-769.0,-681.0
-3.0,-189.0,-168.0,-36.0,88.0,53.0,-6.0,-766.0,-678.0
-4.0,-190.0,-170.0,-32.0,90.0,55.0,-4.0,-769.0,-682.0
-6.0,-191.0,-169.0,-28.0,90.0,55.0,-6.0,-768.0,-680.0
-3.0,-191.0,-167.0,-22.0,93.0,55.0,-4.0,-771.0,-688.0
-4.0,-190.0,-168.0,-17.0,95.0,58.0,-5.0,-775.0,-689.0
-3.0,-188.0,-171.0,-14.0,97.0,58.0,-4.0,-766.0,-686.0
-2.0,-188.0,-167.0,-12.0,100.0,59.0,-7.0,-771.0,-685.0
-4.0,-192.0,-168.0,-8.0,105.0,57.0,-9.0,-769.0,-685.0
-5.0,-190.0,-173.0,-2.0,110.0,59.0,-12.0,-774.0,-689.0
-6.0,-192.0,-172.0,-1.0,113.0,61.0,-10.0,-780.0,-694.0
-4.0,-193.0,-171.0,-5.0,117.0,61.0,-9.0,-781.0,-695.0
-4.0,-191.0,-170.0,-11.0,121.0,64.0,-12.0,-771.0,-706.0
-8.0,-190.0,-174.0,-14.0,126.0,65.0,-15.0,-774.0,-696.0
-4.0,-187.0,-173.0,-13.0,130.0,67.0,-13.0,-763.0,-691.0
-4.0,-188.0,-172.0,-10.0,133.0,69.0,-14.0,-762.0,-696.0
-7.0,-188.0,-171.0,-2.0,131.0,71.0,-14.0,-763.0,-692.0
-5.0,-186.0,-170.0,4.0,130.0,68.0,-18.0,-757.0,-695.0
-8.0,-188.0,-173.0,11.0,128.0,68.0,-21.0,-764.0,-699.0
-5.0,-185.0,-172.0,16.0,125.0,66.0,-15.0,-749.0,-695.0
-5.0,-185.0,-172.0,19.0,125.0,63.0,-14.0,-748.0,-700.0
-8.0,-186.0,-172.0,23.0,123.0,61.0,-19.0,-750.0,-701.0
-6.0,-185.0,-171.0,24.0,120.0,58.0,-24.0,-755.0,-700.0
-7.0,-183.0,-170.0,26.0,119.0,55.0,-19.0,-750.0,-695.0
-6.0,-184.0,-174.0,27.0,117.0,52.0,-18.0,-749.0,-700.0
-6.0,-185.0,-169.0,29.0,116.0,52.0,-22.0,-747.0,-698.0
-5.0,-185.0,-174.0,28.0,115.0,49.0,-28.0,-753.0,-705.0
-10.0,-190.0,-173.0,28.0,113.0,48.0,-28.0,-748.0,-709.0
-14.0,-185.0,-177.0,28.0,112.0,47.0,-32.0,-754.0,-703.0
-11.0,-187.0,-173.0,28.0,111.0,46.0,-29.0,-755.0,-713.0
-13.0,-185.0,-172.0,31.0,109.0,46.0,-29.0,-759.0,-703.0
-10.0,-186.0,-177.0,34.0,106.0,44.0,-26.0,-747.0,-719.0
-10.0,-187.0,-175.0,40.0,102.0,42.0,-30.0,-753.0,-718.0
-7.0,-184.0,-173.0,46.0,98.0,39.0,-27.0,-752.0,-703.0
-9.0,-186.0,-172.0,51.0,94.0,37.0,-29.0,-751.0,-711.0
-6.0,-187.0,-175.0,55.0,88.0,35.0,-26.0,-751.0,-712.0
-10.0,-186.0,-171.0,59.0,83.0,31.0,-23.0,-749.0,-713.0
-8.0,-183.0,-177.0,62.0,80.0,27.0,-27.0,-750.0,-703.0
-11.0,-183.0,-175.0,64.0,78.0,24.0,-18.0,-747.0,-705.0
-8.0,-187.0,-176.0,65.0,74.0,24.0,-16.0,-754.0,-708.0
-5.0,-188.0,-181.0,68.0,71.0,21.0,-17.0,-751.0,-701.0
-6.0,-183.0,-176.0,67.0,69.0,18.0,-16.0,-749.0,-705.0
-5.0,-184.0,-174.0,68.0,66.0,17.0,-17.0,-742.0,-705.0
-4.0,-185.0,-174.0,67.0,62.0,15.0,-14.0,-747.0,-704.0
-4.0,-184.0,-176.0,66.0,58.0,14.0,-14.0,-752.0,-710.0
-7.0,-186.0,-177.0,64.0,55.0,12.0,-21.0,-744.0,-703.0
-7.0,-183.0,-174.0,64.0,54.0,11.0,-19.0,-743.0,-711.0
-5.0,-185.0,-179.0,65.0,51.0,9.0,-16.0,-749.0,-698.0
-7.0,-188.0,-175.0,64.0,47.0,8.0,-17.0,-748.0,-705.0
-5.0,-185.0,-171.0,65.0,45.0,7.0,-15.0,-748.0,-707.0
-8.0,-183.0,-177.0,65.0,42.0,7.0,-16.0,-744.0,-708.0
-11.0,-187.0,-180.0,64.0,39.0,6.0,-16.0,-746.0,-712.0
-5.0,-185.0,-176.0,66.0,38.0,5.0,-18.0,-746.0,-706.0
-6.0,-184.0,-173.0,67.0,36.0,3.0,-19.0,-739.0,-704.0
-10.0,-184.0,-174.0,68.0,33.0,0.0,-17.0,-743.0,-711.0
-8.0,-182.0,-175.0,71.0,31.0,1.0,-18.0,-748.0,-710.0
-9.0,-185.0,-177.0,72.0,27.0,-1.0,-12.0,-753.0,-703.0
-7.0,-183.0,-175.0,75.0,26.0,-3.0,-19.0,-755.0,-704.0
-6.0,-187.0,-171.0,77.0,23.0,-4.0,-16.0,-754.0,-702.0
-7.0,-186.0,-176.0,81.0,22.0,-7.0,-18.0,-758.0,-711.0
-5.0,-189.0,-173.0,83.0,20.0,-6.0,-21.0,-759.0,-713.0
-9.0,-187.0,-176.0,87.0,19.0,-8.0,-15.0,-754.0,-703.0
-6.0,-189.0,-171.0,90.0,18.0,-10.0,-21.0,-764.0,-701.0
-6.0,-187.0,-176.0,94.0,17.0,-11.0,-18.0,-756.0,-698.0
-10.0,-188.0,-168.0,96.0,16.0,-12.0,-18.0,-758.0,-693.0
-8.0,-187.0,-172.0,99.0,17.0,-14.0,-15.0,-764.0,-700.0
-8.0,-188.0,-177.0,102.0,16.0,-15.0,-20.0,-773.0,-697.0
-6.0,-190.0,-175.0,105.0,13.0,-19.0,-20.0,-764.0,-700.0
-8.0,-188.0,-174.0,108.0,12.0,-21.0,-19.0,-763.0,-693.0
-5.0,-189.0,-169.0,109.0,11.0,-24.0,-18.0,-756.0,-691.0
-7.0,-184.0,-174.0,111.0,10.0,-25.0,-19.0,-756.0,-695.0
-8.0,-187.0,-170.0,111.0,6.0,-28.0,-16.0,-756.0,-689.0
-11.0,-184.0,-171.0,111.0,4.0,-29.0,-20.0,-756.0,-694.0
-9.0,-186.0,-166.0,111.0,2.0,-28.0,-24.0,-757.0,-690.0
-9.0,-176.0,-174.0,111.0,-1.0,-30.0,-15.0,-752.0,-690.0
-6.0,-187.0,-170.0,110.0,-4.0,-29.0,-19.0,-755.0,-688.0
-5.0,-188.0,-169.0,108.0,-7.0,-31.0,-20.0,-753.0,-691.0
-8.0,-187.0,-168.0,108.0,-11.0,-33.0,-19.0,-753.0,-690.0
-8.0,-188.0,-168.0,108.0,-14.0,-34.0,-19.0,-751.0,-694.0
-10.0,-188.0,-170.0,106.0,-19.0,-35.0,-26.0,-756.0,-683.0
-9.0,-184.0,-173.0,106.0,-21.0,-34.0,-23.0,-759.0,-688.0
-10.0,-184.0,-171.0,106.0,-26.0,-37.0,-16.0,-758.0,-687.0
-4.0,-185.0,-174.0,107.0,-29.0,-39.0,-21.0,-758.0,-682.0
-4.0,-191.0,-161.0,108.0,-31.0,-41.0,-21.0,-762.0,-686.0
-5.0,-185.0,-170.0,109.0,-35.0,-41.0,-21.0,-763.0,-684.0
-9.0,-189.0,-172.0,110.0,-38.0,-42.0,-27.0,-761.0,-688.0
-9.0,-189.0,-168.0,111.0,-40.0,-42.0,-26.0,-764.0,-686.0
-9.0,-190.0,-170.0,113.0,-41.0,-42.0,-25.0,-764.0,-680.0
-7.0,-190.0,-169.0,115.0,-42.0,-43.0,-17.0,-766.0,-684.0
-6.0,-190.0,-167.0,115.0,-46.0,-43.0,-21.0,-772.0,-684.0
-9.0,-191.0,-167.0,116.0,-47.0,-43.0,-21.0,-766.0,-681.0
-6.0,-190.0,-162.0,117.0,-47.0,-43.0,-21.0,-766.0,-678.0
-8.0,-189.0,-170.0,119.0,-48.0,-44.0,-22.0,-759.0,-680.0
-7.0,-189.0,-169.0,120.0,-48.0,-43.0,-20.0,-762.0,-682.0
-6.0,-185.0,-170.0,122.0,-49.0,-45.0,-17.0,-764.0,-682.0
-7.0,-187.0,-169.0,122.0,-50.0,-44.0,-17.0,-769.0,-684.0
-8.0,-187.0,-168.0,123.0,-48.0,-44.0,-14.0,-756.0,-682.0
-6.0,-190.0,-173.0,125.0,-48.0,-46.0,-15.0,-760.0,-681.0
-4.0,-188.0,-171.0,126.0,-47.0,-48.0,-11.0,-765.0,-688.0
-6.0,-190.0,-169.0,125.0,-45.0,-49.0,-11.0,-770.0,-682.0
-5.0,-190.0,-170.0,126.0,-45.0,-49.0,-13.0,-765.0,-682.0
-6.0,-189.0,-171.0,125.0,-41.0,-50.0,-6.0,-768.0,-685.0
-5.0,-193.0,-169.0,125.0,-39.0,-51.0,-12.0,-772.0,-684.0
-4.0,-189.0,-167.0,126.0,-37.0,-50.0,-9.0,-769.0,-684.0
-6.0,-189.0,-171.0,127.0,-35.0,-50.0,-6.0,-769.0,-683.0
3.0,-188.0,-171.0,126.0,-32.0,-50.0,-2.0,-767.0,-683.0
-6.0,-190.0,-167.0,125.0,-29.0,-48.0,-9.0,-770.0,-684.0
-4.0,-188.0,-166.0,124.0,-25.0,-47.0,1.0,-769.0,-688.0
-4.0,-187.0,-170.0,123.0,-23.0,-46.0,-3.0,-767.0,-687.0
-4.0,-188.0,-167.0,123.0,-19.0,-46.0,-7.0,-766.0,-683.0
-4.0,-189.0,-166.0,122.0,-17.0,-43.0,0.0,-762.0,-682.0
-4.0,-187.0,-166.0,122.0,-14.0,-41.0,0.0,-766.0,-685.0
-2.0,-189.0,-169.0,119.0,-12.0,-38.0,-1.0,-762.0,-679.0
-3.0,-184.0,-170.0,117.0,-11.0,-37.0,-5.0,-762.0,-682.0
-4.0,-186.0,-170.0,115.0,-9.0,-34.0,-8.0,-760.0,-682.0
-3.0,-187.0,-170.0,113.0,-7.0,-33.0,-1.0,-762.0,-679.0
-3.0,-186.0,-165.0,111.0,-6.0,-31.0,-3.0,-754.0,-676.0
-1.0,-191.0,-168.0,108.0,-5.0,-29.0,-4.0,-757.0,-678.0
-4.0,-187.0,-167.0,105.0,-3.0,-28.0,-8.0,-754.0,-686.0
-4.0,-186.0,-172.0,101.0,-1.0,-26.0,-8.0,-755.0,-680.0
-4.0,-187.0,-168.0,99.0,2.0,-25.0,-6.0,-755.0,-680.0
-4.0,-187.0,-171.0,96.0,4.0,-22.0,-10.0,-752.0,-681.0
-4.0,-188.0,-170.0,93.0,5.0,-21.0,-8.0,-759.0,-680.0
-4.0,-186.0,-167.0,91.0,5.0,-20.0,-3.0,-763.0,-682.0
-6.0,-186.0,-171.0,88.0,8.0,-20.0,-7.0,-765.0,-683.0
-5.0,-187.0,-168.0,85.0,9.0,-18.0,-8.0,-764.0,-685.0
-7.0,-190.0,-169.0,83.0,10.0,-19.0,-11.0,-765.0,-684.0
-6.0,-189.0,-172.0,81.0,11.0,-18.0,-15.0,-767.0,-676.0
-4.0,-191.0,-168.0,79.0,11.0,-17.0,-13.0,-769.0,-682.0
-4.0,-192.0,-171.0,79.0,12.0,-16.0,-13.0,-771.0,-682.0
-5.0,-187.0,-170.0,80.0,12.0,-16.0,-17.0,-770.0,-682.0
-8.0,-188.0,-167.0,80.0,13.0,-17.0,-9.0,-770.0,-685.0
-4.0,-191.0,-171.0,81.0,13.0,-14.0,-8.0,-772.0,-681.0
-6.0,-188.0,-170.0,82.0,14.0,-14.0,-14.0,-773.0,-687.0
-6.0,-190.0,-168.0,81.0,14.0,-14.0,-13.0,-767.0,-683.0
-6.0,-187.0,-170.0,84.0,12.0,-14.0,-6.0,-765.0,-688.0
-5.0,-190.0,-169.0,85.0,11.0,-14.0,-8.0,-771.0,-683.0
-8.0,-188.0,-165.0,85.0,12.0,-11.0,-8.0,-766.0,-685.0
-11.0,-192.0,-173.0,86.0,10.0,-10.0,-10.0,-762.0,-685.0
2.0,-194.0,-178.0,84.0,9.0,-8.0,-7.0,-768.0,-677.0
3.0,-190.0,-174.0,83.0,7.0,-8.0,-7.0,-771.0,-677.0
-5.0,-194.0,-170.0,81.0,6.0,-8.0,-11.0,-768.0,-672.0
-5.0,-194.0,-165.0,79.0,6.0,-9.0,-8.0,-771.0,-673.0
-1.0,-190.0,-161.0,75.0,6.0,-9.0,-7.0,-769.0,-672.0
1.0,-196.0,-161.0,73.0,7.0,-9.0,-11.0,-769.0,-667.0
-4.0,-181.0,-166.0,71.0,6.0,-8.0,-10.0,-770.0,-669.0
-3.0,-185.0,-165.0,70.0,8.0,-7.0,-9.0,-768.0,-664.0
-8.0,-187.0,-167.0,68.0,10.0,-5.0,-10.0,-766.0,-671.0
-4.0,-188.0,-162.0,67.0,12.0,-5.0,-10.0,-763.0,-667.0
-3.0,-187.0,-163.0,65.0,15.0,-4.0,-10.0,-766.0,-671.0
-1.0,-191.0,-168.0,62.0,16.0,-3.0,-11.0,-767.0,-673.0
-11.0,-192.0,-167.0,61.0,18.0,-2.0,-9.0,-766.0,-666.0
-6.0,-189.0,-170.0,59.0,20.0,-1.0,-8.0,-767.0,-673.0
-3.0,-193.0,-173.0,57.0,23.0,-2.0,-9.0,-763.0,-666.0
-4.0,-180.0,-161.0,55.0,25.0,-1.0,-7.0,-765.0,-669.0
0.0,-184.0,-166.0,50.0,25.0,-3.0,-7.0,-764.0,-669.0
-8.0,-194.0,-166.0,45.0,27.0,-3.0,-11.0,-759.0,-674.0
-4.0,-183.0,-166.0,40.0,28.0,-4.0,-7.0,-765.0,-672.0
-9.0,-186.0,-164.0,38.0,30.0,-3.0,-16.0,-760.0,-670.0
-9.0,-189.0,-163.0,32.0,31.0,-2.0,-13.0,-764.0,-675.0
-8.0,-191.0,-155.0,28.0,34.0,-3.0,-7.0,-770.0,-672.0
-8.0,-186.0,-167.0,24.0,34.0,-3.0,-15.0,-768.0,-673.0
-8.0,-190.0,-167.0,21.0,36.0,-3.0,-12.0,-767.0,-674.0
-6.0,-185.0,-171.0,18.0,36.0,-1.0,-11.0,-771.0,-677.0
0.0,-187.0,-164.0,16.0,37.0,0.0,-11.0,-770.0,-675.0
-4.0,-193.0,-159.0,15.0,37.0,1.0,-11.0,-772.0,-684.0
-5.0,-192.0,-160.0,14.0,35.0,2.0,-13.0,-772.0,-680.0
-5.0,-194.0,-160.0,13.0,35.0,2.0,-14.0,-771.0,-680.0
-5.0,-189.0,-168.0,12.0,35.0,2.0,-14.0,-771.0,-675.0
-5.0,-191.0,-168.0,11.0,37.0,3.0,-15.0,-773.0,-683.0
-4.0,-188.0,-170.0,11.0,36.0,2.0,-12.0,-771.0,-683.0
-4.0,-191.0,-173.0,12.0,36.0,2.0,-13.0,-772.0,-682.0
-5.0,-193.0,-174.0,12.0,37.0,3.0,-12.0,-774.0,-687.0
-3.0,-192.0,-167.0,13.0,36.0,6.0,-13.0,-768.0,-683.0
-7.0,-190.0,-174.0,14.0,35.0,7.0,-13.0,-769.0,-685.0
-9.0,-187.0,-171.0,15.0,37.0,7.0,-16.0,-770.0,-679.0
-6.0,-191.0,-165.0,16.0,37.0,7.0,-10.0,-767.0,-674.0
-8.0,-184.0,-173.0,18.0,37.0,9.0,-12.0,-765.0,-680.0
-6.0,-188.0,-166.0,18.0,37.0,11.0,-17.0,-770.0,-679.0
-7.0,-190.0,-168.0,19.0,37.0,11.0,-15.0,-771.0,-683.0
-5.0,-192.0,-174.0,21.0,38.0,11.0,-14.0,-768.0,-679.0
-5.0,-189.0,-169.0,23.0,39.0,12.0,-12.0,-771.0,-686.0
-8.0,-183.0,-164.0,24.0,40.0,10.0,-13.0,-765.0,-684.0
-4.0,-189.0,-168.0,26.0,40.0,10.0,-13.0,-772.0,-685.0
-5.0,-190.0,-169.0,29.0,41.0,12.0,-12.0,-772.0,-679.0
-5.0,-192.0,-169.0,28.0,40.0,12.0,-18.0,-771.0,-684.0
-6.0,-191.0,-171.0,30.0,41.0,12.0,-16.0,-768.0,-685.0
-4.0,-193.0,-171.0,32.0,41.0,13.0,-10.0,-763.0,-689.0
-5.0,-190.0,-173.0,33.0,41.0,13.0,-16.0,-769.0,-685.0
-8.0,-185.0,-171.0,33.0,42.0,13.0,-10.0,-767.0,-688.0
-8.0,-185.0,-174.0,35.0,41.0,13.0,-13.0,-762.0,-690.0
-8.0,-189.0,-172.0,36.0,42.0,14.0,-13.0,-761.0,-685.0
-4.0,-186.0,-171.0,36.0,41.0,13.0,-13.0,-765.0,-682.0
-9.0,-186.0,-167.0,37.0,42.0,14.0,-16.0,-763.0,-685.0
-7.0,-186.0,-166.0,37.0,41.0,14.0,-24.0,-761.0,-684.0
-9.0,-185.0,-168.0,37.0,37.0,14.0,-16.0,-764.0,-683.0
-6.0,-188.0,-167.0,35.0,37.0,14.0,-13.0,-758.0,-682.0
-8.0,-185.0,-167.0,33.0,37.0,14.0,-20.0,-759.0,-682.0
-11.0,-187.0,-169.0,31.0,35.0,13.0,-25.0,-765.0,-691.0
-6.0,-189.0,-169.0,30.0,35.0,13.0,-22.0,-769.0,-682.0
-13.0,-185.0,-173.0,30.0,34.0,12.0,-29.0,-766.0,-683.0
-10.0,-187.0,-165.0,30.0,32.0,12.0,-21.0,-763.0,-686.0
-8.0,-188.0,-171.0,30.0,31.0,12.0,-29.0,-765.0,-686.0
-11.0,-190.0,-173.0,30.0,31.0,12.0,-23.0,-761.0,-689.0
-12.0,-187.0,-175.0,29.0,28.0,10.0,-24.0,-760.0,-684.0
-9.0,-188.0,-172.0,27.0,26.0,10.0,-25.0,-760.0,-688.0
-9.0,-188.0,-167.0,26.0,22.0,6.0,-27.0,-758.0,-692.0
-11.0,-186.0,-170.0,23.0,19.0,5.0,-28.0,-758.0,-686.0
-10.0,-186.0,-172.0,21.0,17.0,3.0,-28.0,-755.0,-684.0
-11.0,-188.0,-171.0,20.0,14.0,1.0,-27.0,-764.0,-689.0
-10.0,-186.0,-169.0,16.0,11.0,-2.0,-30.0,-759.0,-686.0
-9.0,-191.0,-169.0,14.0,8.0,-4.0,-34.0,-762.0,-681.0
-8.0,-190.0,-170.0,13.0,6.0,-6.0,-30.0,-760.0,-678.0
-9.0,-185.0,-166.0,12.0,5.0,-7.0,-29.0,-770.0,-684.0
-8.0,-186.0,-174.0,10.0,3.0,-7.0,-31.0,-761.0,-678.0
-10.0,-189.0,-173.0,6.0,0.0,-8.0,-24.0,-767.0,-687.0
-10.0,-186.0,-167.0,3.0,-3.0,-9.0,-26.0,-767.0,-692.0
-8.0,-190.0,-169.0,-2.0,-5.0,-10.0,-27.0,-761.0,-688.0
-12.0,-187.0,-171.0,-3.0,-8.0,-10.0,-27.0,-765.0,-690.0
-7.0,-188.0,-168.0,-3.0,-11.0,-12.0,-28.0,-764.0,-687.0
-9.0,-189.0,-173.0,-5.0,-12.0,-12.0,-25.0,-766.0,-685.0
-9.0,-189.0,-168.0,-7.0,-13.0,-11.0,-27.0,-765.0,-689.0
-12.0,-188.0,-162.0,-8.0,-14.0,-14.0,-20.0,-761.0,-687.0
-13.0,-185.0,-167.0,-9.0,-16.0,-14.0,-20.0,-758.0,-686.0
-12.0,-188.0,-167.0,-11.0,-18.0,-16.0,-25.0,-761.0,-685.0
-5.0,-189.0,-174.0,-11.0,-19.0,-16.0,-25.0,-756.0,-684.0
-11.0,-186.0,-171.0,-8.0,-22.0,-17.0,-27.0,-761.0,-684.0
-12.0,-187.0,-167.0,-7.0,-23.0,-20.0,-24.0,-763.0,-682.0
-7.0,-189.0,-169.0,-7.0,-22.0,-20.0,-23.0,-758.0,-687.0
-7.0,-186.0,-170.0,-3.0,-24.0,-22.0,-26.0,-762.0,-684.0
-8.0,-187.0,-169.0,0.0,-25.0,-22.0,-26.0,-759.0,-697.0
-10.0,-187.0,-175.0,1.0,-24.0,-23.0,-23.0,-766.0,-692.0
-12.0,-187.0,-171.0,5.0,-25.0,-24.0,-23.0,-764.0,-689.0
-11.0,-190.0,-169.0,9.0,-23.0,-25.0,-24.0,-763.0,-694.0
-10.0,-186.0,-169.0,10.0,-25.0,-27.0,-27.0,-766.0,-694.0
-8.0,-187.0,-172.0,12.0,-26.0,-29.0,-28.0,-769.0,-692.0
-10.0,-190.0,-172.0,11.0,-26.0,-28.0,-27.0,-764.0,-691.0
-7.0,-187.0,-169.0,15.0,-28.0,-29.0,-31.0,-770.0,-692.0
-11.0,-188.0,-174.0,14.0,-29.0,-32.0,-25.0,-761.0,-691.0
-9.0,-190.0,-172.0,15.0,-30.0,-33.0,-24.0,-765.0,-689.0
-11.0,-188.0,-172.0,16.0,-32.0,-34.0,-27.0,-762.0,-689.0
-10.0,-187.0,-170.0,16.0,-34.0,-35.0,-31.0,-763.0,-692.0
-11.0,-186.0,-171.0,15.0,-38.0,-35.0,-29.0,-752.0,-687.0
-6.0,-188.0,-169.0,18.0,-40.0,-35.0,-25.0,-760.0,-688.0
-9.0,-189.0,-167.0,18.0,-42.0,-36.0,-28.0,-757.0,-689.0
-8.0,-185.0,-171.0,20.0,-45.0,-38.0,-26.0,-752.0,-688.0
-10.0,-186.0,-168.0,22.0,-46.0,-39.0,-22.0,-751.0,-690.0
-12.0,-188.0,-169.0,24.0,-47.0,-38.0,-21.0,-754.0,-690.0
-7.0,-189.0,-170.0,26.0,-48.0,-40.0,-22.0,-756.0,-688.0
-12.0,-187.0,-169.0,27.0,-50.0,-40.0,-25.0,-754.0,-691.0
-6.0,-187.0,-171.0,31.0,-51.0,-40.0,-23.0,-751.0,-689.0
-7.0,-187.0,-171.0,33.0,-53.0,-42.0,-26.0,-755.0,-695.0
-8.0,-189.0,-170.0,34.0,-52.0,-42.0,-26.0,-762.0,-700.0
-9.0,-186.0,-170.0,37.0,-52.0,-44.0,-26.0,-763.0,-694.0
-8.0,-188.0,-176.0,38.0,-54.0,-45.0,-26.0,-756.0,-690.0
-6.0,-188.0,-173.0,39.0,-55.0,-45.0,-25.0,-758.0,-689.0
-9.0,-189.0,-170.0,43.0,-56.0,-46.0,-21.0,-759.0,-693.0
-10.0,-190.0,-171.0,44.0,-58.0,-47.0,-26.0,-758.0,-689.0
-11.0,-185.0,-161.0,45.0,-59.0,-47.0,-23.0,-757.0,-690.0
-9.0,-187.0,-171.0,47.0,-61.0,-49.0,-24.0,-762.0,-692.0
-8.0,-189.0,-169.0,48.0,-61.0,-50.0,-20.0,-760.0,-694.0
-10.0,-188.0,-179.0,50.0,-61.0,-51.0,-23.0,-755.0,-689.0
-9.0,-187.0,-172.0,53.0,-62.0,-52.0,-19.0,-760.0,-697.0
-6.0,-187.0,-173.0,54.0,-64.0,-52.0,-21.0,-764.0,-695.0
-5.0,-188.0,-170.0,55.0,-64.0,-53.0,-22.0,-758.0,-693.0
-11.0,-190.0,-177.0,57.0,-66.0,-55.0,-20.0,-762.0,-694.0
-6.0,-188.0,-171.0,58.0,-66.0,-56.0,-23.0,-762.0,-697.0
-6.0,-188.0,-171.0,59.0,-66.0,-53.0,-17.0,-766.0,-700.0
-6.0,-190.0,-174.0,60.0,-67.0,-55.0,-18.0,-767.0,-693.0
-16.0,-180.0,-170.0,61.0,-69.0,-56.0,-18.0,-758.0,-701.0
-5.0,-189.0,-167.0,63.0,-69.0,-56.0,-19.0,-755.0,-692.0
-5.0,-189.0,-167.0,63.0,-70.0,-55.0,-16.0,-755.0,-690.0
-8.0,-184.0,-173.0,64.0,-71.0,-55.0,-19.0,-750.0,-688.0
-5.0,-187.0,-171.0,63.0,-73.0,-56.0,-19.0,-752.0,-693.0
-8.0,-185.0,-173.0,60.0,-74.0,-56.0,-17.0,-756.0,-691.0
-7.0,-187.0,-170.0,59.0,-74.0,-57.0,-18.0,-750.0,-686.0
-11.0,-183.0,-174.0,55.0,-75.0,-56.0,-18.0,-755.0,-695.0
-5.0,-186.0,-172.0,52.0,-76.0,-56.0,-15.0,-751.0,-694.0
-6.0,-186.0,-170.0,48.0,-74.0,-55.0,-16.0,-752.0,-691.0
-4.0,-190.0,-168.0,45.0,-75.0,-53.0,-16.0,-750.0,-682.0
-6.0,-190.0,-173.0,42.0,-73.0,-53.0,-15.0,-745.0,-688.0
-5.0,-188.0,-169.0,38.0,-72.0,-53.0,-15.0,-746.0,-690.0
-4.0,-187.0,-168.0,36.0,-71.0,-50.0,-12.0,-755.0,-690.0
-5.0,-187.0,-171.0,34.0,-69.0,-51.0,-9.0,-763.0,-687.0
-6.0,-187.0,-170.0,32.0,-66.0,-50.0,-6.0,-756.0,-693.0
-4.0,-187.0,-171.0,31.0,-65.0,-50.0,-7.0,-755.0,-688.0
-7.0,-185.0,-168.0,30.0,-61.0,-48.0,-9.0,-758.0,-691.0
-4.0,-185.0,-172.0,27.0,-58.0,-45.0,-12.0,-763.0,-689.0
-3.0,-188.0,-171.0,23.0,-54.0,-43.0,-10.0,-766.0,-689.0
-3.0,-191.0,-172.0,22.0,-52.0,-40.0,-10.0,-767.0,-692.0
-6.0,-192.0,-168.0,18.0,-48.0,-37.0,-8.0,-768.0,-691.0
-4.0,-189.0,-169.0,16.0,-47.0,-34.0,-12.0,-762.0,-692.0
-5.0,-185.0,-170.0,15.0,-42.0,-31.0,-7.0,-762.0,-690.0
-4.0,-189.0,-170.0,13.0,-37.0,-29.0,-11.0,-761.0,-688.0
-7.0,-183.0,-166.0,13.0,-32.0,-29.0,-10.0,-755.0,-690.0
-4.0,-188.0,-169.0,13.0,-30.0,-25.0,-13.0,-761.0,-696.0
-7.0,-186.0,-173.0,12.0,-27.0,-23.0,-12.0,-754.0,-692.0
-5.0,-185.0,-174.0,11.0,-23.0,-22.0,-11.0,-751.0,-693.0
-5.0,-186.0,-170.0,11.0,-19.0,-20.0,-15.0,-751.0,-696.0
-5.0,-187.0,-170.0,11.0,-18.0,-19.0,-13.0,-760.0,-697.0
-6.0,-182.0,-168.0,11.0,-15.0,-19.0,-14.0,-753.0,-703.0
-8.0,-186.0,-176.0,12.0,-14.0,-15.0,-16.0,-753.0,-697.0
-5.0,-185.0,-173.0,11.0,-11.0,-15.0,-24.0,-755.0,-694.0
-7.0,-186.0,-174.0,10.0,-10.0,-14.0,-22.0,-750.0,-689.0
-10.0,-182.0,-169.0,7.0,-8.0,-12.0,-20.0,-750.0,-687.0
-8.0,-184.0,-171.0,6.0,-6.0,-10.0,-19.0,-752.0,-691.0
-8.0,-183.0,-167.0,2.0,-6.0,-8.0,-20.0,-743.0,-692.0
-9.0,-186.0,-172.0,2.0,-5.0,-6.0,-23.0,-742.0,-685.0
-7.0,-182.0,-172.0,0.0,-6.0,-7.0,-18.0,-748.0,-683.0
-6.0,-184.0,-167.0,-2.0,-7.0,-4.0,-19.0,-740.0,-686.0
-7.0,-185.0,-171.0,-1.0,-6.0,-3.0,-14.0,-750.0,-683.0
-6.0,-188.0,-170.0,-1.0,-7.0,-5.0,-18.0,-749.0,-687.0
-5.0,-188.0,-173.0,1.0,-7.0,-6.0,-13.0,-757.0,-690.0
-7.0,-187.0,-171.0,3.0,-6.0,-4.0,-15.0,-753.0,-694.0
-6.0,-188.0,-170.0,5.0,-5.0,-4.0,-16.0,-764.0,-696.0
-7.0,-187.0,-173.0,7.0,-4.0,-4.0,-18.0,-761.0,-707.0
-9.0,-187.0,-173.0,10.0,-2.0,-1.0,-20.0,-763.0,-703.0
-7.0,-185.0,-174.0,12.0,-1.0,-1.0,-19.0,-766.0,-702.0
-8.0,-187.0,-177.0,13.0,-1.0,0.0,-17.0,-768.0,-702.0
-11.0,-189.0,-176.0,15.0,-1.0,1.0,-23.0,-769.0,-696.0
-7.0,-188.0,-175.0,18.0,0.0,3.0,-17.0,-764.0,-701.0
-8.0,-188.0,-170.0,17.0,0.0,1.0,-21.0,-758.0,-697.0
-8.0,-187.0,-172.0,17.0,0.0,1.0,-22.0,-765.0,-699.0
-15.0,-187.0,-174.0,18.0,-1.0,2.0,-20.0,-757.0,-693.0
-7.0,-186.0,-175.0,18.0,1.0,2.0,-24.0,-766.0,-691.0
-7.0,-187.0,-176.0,19.0,2.0,2.0,-22.0,-756.0,-695.0
-9.0,-186.0,-173.0,19.0,3.0,2.0,-20.0,-750.0,-694.0
-9.0,-184.0,-173.0,22.0,4.0,2.0,-20.0,-752.0,-694.0
-9.0,-183.0,-171.0,22.0,5.0,5.0,-20.0,-743.0,-694.0
-9.0,-183.0,-174.0,22.0,8.0,4.0,-16.0,-746.0,-696.0
-9.0,-186.0,-171.0,23.0,8.0,3.0,-25.0,-742.0,-693.0
-9.0,-179.0,-172.0,23.0,8.0,3.0,-22.0,-742.0,-691.0
-9.0,-185.0,-173.0,23.0,12.0,3.0,-17.0,-742.0,-690.0
-8.0,-183.0,-170.0,23.0,12.0,2.0,-22.0,-745.0,-698.0
-5.0,-188.0,-169.0,22.0,14.0,2.0,-20.0,-746.0,-692.0
-10.0,-186.0,-172.0,21.0,15.0,1.0,-22.0,-747.0,-695.0
-6.0,-185.0,-173.0,20.0,16.0,2.0,-20.0,-754.0,-702.0
-7.0,-185.0,-173.0,19.0,18.0,2.0,-22.0,-752.0,-698.0
-5.0,-189.0,-172.0,18.0,17.0,-1.0,-25.0,-754.0,-689.0
-11.0,-185.0,-174.0,15.0,18.0,0.0,-23.0,-752.0,-702.0
-9.0,-187.0,-176.0,15.0,18.0,1.0,-21.0,-752.0,-694.0
-10.0,-183.0,-172.0,12.0,19.0,2.0,-18.0,-753.0,-701.0
-7.0,-184.0,-176.0,13.0,19.0,2.0,-25.0,-749.0,-703.0
-9.0,-186.0,-172.0,11.0,20.0,2.0,-24.0,-753.0,-693.0
-11.0,-185.0,-171.0,10.0,20.0,3.0,-22.0,-753.0,-701.0
-8.0,-186.0,-173.0,9.0,20.0,2.0,-29.0,-752.0,-698.0
-6.0,-188.0,-174.0,8.0,20.0,2.0,-24.0,-750.0,-697.0
-9.0,-184.0,-172.0,9.0,21.0,3.0,-23.0,-748.0,-696.0
-6.0,-186.0,-174.0,7.0,21.0,2.0,-23.0,-750.0,-696.0
-7.0,-186.0,-171.0,6.0,21.0,4.0,-20.0,-748.0,-695.0
-7.0,-186.0,-172.0,4.0,22.0,4.0,-28.0,-751.0,-689.0
-10.0,-185.0,-171.0,3.0,22.0,4.0,-23.0,-746.0,-693.0
-6.0,-188.0,-177.0,2.0,23.0,3.0,-24.0,-751.0,-698.0
-10.0,-188.0,-171.0,0.0,25.0,4.0,-25.0,-750.0,-695.0
-8.0,-184.0,-171.0,2.0,24.0,5.0,-22.0,-755.0,-698.0
-10.0,-185.0,-173.0,4.0,25.0,3.0,-21.0,-756.0,-707.0
-6.0,-187.0,-173.0,6.0,26.0,1.0,-24.0,-752.0,-706.0
-11.0,-184.0,-178.0,8.0,28.0,0.0,-30.0,-751.0,-705.0
-12.0,-185.0,-174.0,10.0,28.0,2.0,-25.0,-755.0,-706.0
-11.0,-184.0,-175.0,12.0,30.0,2.0,-27.0,-749.0,-706.0
-6.0,-185.0,-173.0,14.0,29.0,2.0,-26.0,-741.0,-708.0
-10.0,-184.0,-177.0,14.0,29.0,0.0,-31.0,-741.0,-708.0
-7.0,-182.0,-175.0,14.0,28.0,0.0,-30.0,-750.0,-713.0
-13.0,-185.0,-174.0,14.0,28.0,-1.0,-32.0,-752.0,-704.0
-11.0,-186.0,-169.0,15.0,27.0,-2.0,-29.0,-746.0,-707.0
-13.0,-183.0,-173.0,16.0,26.0,-2.0,-30.0,-751.0,-706.0
-8.0,-185.0,-173.0,15.0,25.0,-2.0,-28.0,-744.0,-706.0
-10.0,-182.0,-181.0,13.0,23.0,-4.0,-33.0,-743.0,-695.0
-9.0,-181.0,-171.0,12.0,23.0,-3.0,-34.0,-745.0,-702.0
-11.0,-181.0,-174.0,11.0,21.0,-4.0,-30.0,-743.0,-719.0
-11.0,-181.0,-176.0,11.0,19.0,-3.0,-26.0,-744.0,-704.0
-11.0,-183.0,-174.0,10.0,17.0,-3.0,-30.0,-737.0,-702.0
-13.0,-182.0,-176.0,11.0,18.0,-2.0,-29.0,-740.0,-710.0
-11.0,-183.0,-177.0,11.0,18.0,-2.0,-31.0,-739.0,-716.0
-12.0,-186.0,-179.0,10.0,17.0,-3.0,-25.0,-736.0,-710.0
-7.0,-181.0,-174.0,9.0,17.0,-2.0,-26.0,-743.0,-715.0
-11.0,-181.0,-177.0,8.0,18.0,-1.0,-29.0,-738.0,-718.0
-12.0,-184.0,-176.0,7.0,18.0,-2.0,-26.0,-740.0,-718.0
-13.0,-187.0,-177.0,7.0,18.0,-2.0,-25.0,-741.0,-717.0
-11.0,-183.0,-174.0,8.0,18.0,-2.0,-30.0,-743.0,-715.0
-6.0,-184.0,-174.0,8.0,19.0,-2.0,-25.0,-740.0,-709.0
-9.0,-181.0,-176.0,8.0,18.0,-3.0,-26.0,-742.0,-713.0
-8.0,-186.0,-176.0,8.0,18.0,-5.0,-28.0,-743.0,-713.0
-10.0,-181.0,-174.0,7.0,17.0,-6.0,-26.0,-741.0,-721.0
-12.0,-181.0,-178.0,7.0,16.0,-5.0,-29.0,-739.0,-722.0
-8.0,-183.0,-175.0,5.0,16.0,-6.0,-30.0,-739.0,-720.0
-10.0,-182.0,-178.0,4.0,17.0,-3.0,-27.0,-736.0,-719.0
-9.0,-183.0,-179.0,4.0,16.0,-5.0,-31.0,-739.0,-715.0
-9.0,-180.0,-176.0,3.0,15.0,-6.0,-34.0,-737.0,-719.0
-9.0,-179.0,-179.0,2.0,15.0,-5.0,-36.0,-735.0,-722.0
-12.0,-183.0,-177.0,0.0,15.0,-5.0,-30.0,-739.0,-723.0
-10.0,-183.0,-175.0,-2.0,12.0,-5.0,-33.0,-728.0,-721.0
-13.0,-179.0,-176.0,-5.0,12.0,-4.0,-36.0,-731.0,-716.0
-11.0,-181.0,-177.0,-7.0,8.0,-4.0,-31.0,-728.0,-725.0
-10.0,-183.0,-179.0,-6.0,9.0,-3.0,-28.0,-732.0,-718.0
-12.0,-181.0,-176.0,-9.0,8.0,-2.0,-36.0,-729.0,-725.0
-10.0,-183.0,-175.0,-10.0,7.0,-3.0,-35.0,-728.0,-729.0
-7.0,-179.0,-175.0,-10.0,7.0,-3.0,-33.0,-733.0,-720.0
-12.0,-184.0,-181.0,-11.0,5.0,-4.0,-34.0,-729.0,-733.0
-7.0,-180.0,-184.0,-13.0,4.0,-5.0,-31.0,-732.0,-725.0
-12.0,-181.0,-181.0,-14.0,5.0,-4.0,-32.0,-726.0,-727.0
-12.0,-180.0,-175.0,-14.0,4.0,-2.0,-33.0,-729.0,-729.0
-12.0,-180.0,-180.0,-14.0,4.0,-2.0,-32.0,-727.0,-727.0
-10.0,-180.0,-180.0,-15.0,4.0,-2.0,-28.0,-728.0,-726.0
-10.0,-182.0,-180.0,-14.0,4.0,-2.0,-27.0,-727.0,-732.0
-12.0,-179.0,-179.0,-15.0,4.0,-2.0,-28.0,-731.0,-726.0
-7.0,-182.0,-178.0,-14.0,4.0,-4.0,-32.0,-724.0,-728.0
-8.0,-180.0,-177.0,-15.0,3.0,-4.0,-27.0,-726.0,-724.0
-9.0,-181.0,-181.0,-15.0,4.0,-3.0,-33.0,-725.0,-728.0
-10.0,-177.0,-176.0,-14.0,3.0,-4.0,-34.0,-730.0,-728.0
-10.0,-177.0,-178.0,-15.0,4.0,-4.0,-30.0,-726.0,-729.0
-13.0,-178.0,-178.0,-17.0,3.0,-4.0,-32.0,-723.0,-732.0
-11.0,-180.0,-182.0,-16.0,4.0,-4.0,-36.0,-726.0,-729.0
-10.0,-179.0,-181.0,-18.0,3.0,-4.0,-30.0,-723.0,-729.0
-12.0,-178.0,-179.0,-19.0,3.0,-6.0,-35.0,-725.0,-733.0
-10.0,-178.0,-179.0,-19.0,1.0,-5.0,-38.0,-722.0,-730.0
-12.0,-179.0,-179.0,-21.0,0.0,-6.0,-36.0,-721.0,-731.0
-11.0,-179.0,-183.0,-21.0,0.0,-9.0,-39.0,-724.0,-729.0
-13.0,-178.0,-175.0,-21.0,0.0,-9.0,-37.0,-722.0,-727.0
-13.0,-175.0,-180.0,-23.0,-3.0,-8.0,-43.0,-721.0,-729.0
-14.0,-179.0,-181.0,-25.0,-4.0,-10.0,-34.0,-728.0,-728.0
-13.0,-178.0,-172.0,-27.0,-5.0,-12.0,-34.0,-728.0,-735.0
-11.0,-184.0,-175.0,-27.0,-6.0,-13.0,-37.0,-730.0,-729.0
-13.0,-178.0,-180.0,-28.0,-7.0,-14.0,-39.0,-728.0,-736.0
-13.0,-179.0,-179.0,-31.0,-9.0,-14.0,-36.0,-725.0,-727.0
-10.0,-178.0,-178.0,-32.0,-11.0,-15.0,-38.0,-718.0,-738.0
-11.0,-181.0,-180.0,-34.0,-13.0,-14.0,-39.0,-724.0,-735.0
-12.0,-180.0,-180.0,-36.0,-14.0,-16.0,-30.0,-727.0,-736.0
-13.0,-182.0,-180.0,-38.0,-16.0,-17.0,-36.0,-727.0,-739.0
-14.0,-178.0,-182.0,-37.0,-19.0,-16.0,-35.0,-730.0,-735.0
-14.0,-178.0,-184.0,-38.0,-22.0,-16.0,-37.0,-722.0,-737.0
-14.0,-177.0,-178.0,-38.0,-24.0,-16.0,-37.0,-723.0,-736.0
-15.0,-181.0,-179.0,-39.0,-26.0,-18.0,-37.0,-722.0,-732.0
-15.0,-176.0,-182.0,-39.0,-27.0,-19.0,-38.0,-720.0,-739.0
-11.0,-177.0,-180.0,-40.0,-29.0,-20.0,-37.0,-726.0,-730.0
-13.0,-178.0,-181.0,-42.0,-33.0,-20.0,-43.0,-712.0,-736.0
-10.0,-177.0,-183.0,-42.0,-34.0,-20.0,-41.0,-716.0,-737.0
-16.0,-175.0,-179.0,-42.0,-35.0,-18.0,-44.0,-716.0,-735.0
-14.0,-176.0,-182.0,-43.0,-38.0,-20.0,-44.0,-721.0,-739.0
-15.0,-173.0,-188.0,-43.0,-40.0,-20.0,-41.0,-714.0,-737.0
-14.0,-176.0,-182.0,-46.0,-43.0,-20.0,-39.0,-713.0,-741.0
-13.0,-174.0,-183.0,-44.0,-45.0,-20.0,-43.0,-712.0,-743.0
-10.0,-178.0,-182.0,-44.0,-49.0,-22.0,-44.0,-709.0,-738.0
-13.0,-171.0,-184.0,-45.0,-51.0,-23.0,-44.0,-708.0,-740.0
-13.0,-175.0,-184.0,-43.0,-54.0,-25.0,-40.0,-709.0,-742.0
-13.0,-176.0,-181.0,-43.0,-57.0,-26.0,-46.0,-705.0,-743.0
-12.0,-174.0,-182.0,-44.0,-59.0,-28.0,-45.0,-701.0,-739.0
-14.0,-172.0,-181.0,-44.0,-63.0,-27.0,-41.0,-703.0,-743.0
-16.0,-172.0,-183.0,-44.0,-66.0,-29.0,-40.0,-703.0,-747.0
-14.0,-174.0,-185.0,-47.0,-67.0,-30.0,-42.0,-699.0,-742.0
-13.0,-175.0,-181.0,-51.0,-68.0,-32.0,-41.0,-702.0,-753.0
-14.0,-169.0,-185.0,-56.0,-70.0,-32.0,-33.0,-699.0,-755.0
-12.0,-173.0,-185.0,-64.0,-69.0,-32.0,-32.0,-700.0,-759.0
-10.0,-174.0,-187.0,-74.0,-70.0,-30.0,-37.0,-703.0,-755.0
-10.0,-176.0,-187.0,-85.0,-73.0,-31.0,-34.0,-697.0,-759.0
-14.0,-174.0,-185.0,-96.0,-72.0,-30.0,-36.0,-704.0,-753.0
-13.0,-174.0,-190.0,-105.0,-73.0,-32.0,-42.0,-705.0,-762.0
-12.0,-176.0,-182.0,-110.0,-73.0,-31.0,-39.0,-712.0,-753.0
-13.0,-178.0,-184.0,-117.0,-76.0,-32.0,-37.0,-717.0,-754.0
-15.0,-179.0,-185.0,-119.0,-78.0,-35.0,-39.0,-712.0,-752.0
-15.0,-178.0,-185.0,-119.0,-80.0,-36.0,-44.0,-717.0,-751.0
-17.0,-176.0,-184.0,-116.0,-85.0,-36.0,-48.0,-721.0,-747.0
-14.0,-177.0,-186.0,-109.0,-88.0,-38.0,-47.0,-716.0,-753.0
-20.0,-177.0,-187.0,-103.0,-91.0,-39.0,-52.0,-717.0,-747.0
-18.0,-180.0,-179.0,-94.0,-97.0,-42.0,-52.0,-711.0,-748.0
-22.0,-173.0,-188.0,-84.0,-100.0,-42.0,-52.0,-706.0,-748.0
-17.0,-174.0,-187.0,-78.0,-104.0,-44.0,-57.0,-700.0,-752.0
-17.0,-172.0,-186.0,-71.0,-109.0,-45.0,-54.0,-703.0,-749.0
-19.0,-171.0,-182.0,-66.0,-113.0,-47.0,-48.0,-696.0,-752.0
-17.0,-174.0,-181.0,-64.0,-116.0,-47.0,-48.0,-695.0,-751.0
-16.0,-174.0,-181.0,-63.0,-117.0,-49.0,-50.0,-693.0,-748.0
-15.0,-171.0,-182.0,-61.0,-120.0,-50.0,-50.0,-697.0,-743.0
-19.0,-172.0,-184.0,-61.0,-121.0,-54.0,-56.0,-703.0,-744.0
-18.0,-175.0,-178.0,-57.0,-124.0,-58.0,-51.0,-701.0,-741.0
-19.0,-173.0,-187.0,-54.0,-126.0,-60.0,-54.0,-700.0,-735.0
-18.0,-176.0,-188.0,-51.0,-129.0,-64.0,-55.0,-705.0,-740.0
-18.0,-175.0,-177.0,-49.0,-130.0,-66.0,-55.0,-709.0,-750.0
-19.0,-173.0,-187.0,-45.0,-132.0,-68.0,-61.0,-703.0,-743.0
-20.0,-172.0,-182.0,-44.0,-134.0,-70.0,-61.0,-707.0,-748.0
-18.0,-174.0,-184.0,-41.0,-135.0,-70.0,-58.0,-705.0,-750.0
-18.0,-170.0,-183.0,-39.0,-135.0,-70.0,-58.0,-697.0,-756.0
-19.0,-171.0,-186.0,-39.0,-137.0,-71.0,-57.0,-694.0,-751.0
-18.0,-172.0,-184.0,-37.0,-139.0,-71.0,-59.0,-691.0,-752.0
-19.0,-169.0,-182.0,-36.0,-141.0,-72.0,-56.0,-687.0,-751.0
-20.0,-167.0,-183.0,-33.0,-145.0,-72.0,-57.0,-680.0,-755.0
-16.0,-168.0,-186.0,-32.0,-148.0,-71.0,-55.0,-674.0,-755.0
-17.0,-167.0,-185.0,-33.0,-152.0,-70.0,-55.0,-670.0,-758.0
-20.0,-168.0,-193.0,-32.0,-154.0,-69.0,-57.0,-660.0,-753.0
-16.0,-162.0,-186.0,-33.0,-157.0,-70.0,-49.0,-659.0,-757.0
-16.0,-163.0,-185.0,-33.0,-159.0,-70.0,-54.0,-647.0,-755.0
-19.0,-163.0,-183.0,-34.0,-162.0,-71.0,-54.0,-657.0,-752.0
-18.0,-159.0,-188.0,-36.0,-164.0,-74.0,-60.0,-650.0,-753.0
-18.0,-161.0,-188.0,-37.0,-167.0,-74.0,-54.0,-656.0,-753.0
-24.0,-159.0,-185.0,-41.0,-168.0,-73.0,-63.0,-652.0,-758.0
-22.0,-160.0,-186.0,-43.0,-167.0,-74.0,-56.0,-652.0,-755.0
-20.0,-162.0,-186.0,-44.0,-166.0,-74.0,-63.0,-652.0,-756.0
-18.0,-161.0,-181.0,-47.0,-166.0,-71.0,-62.0,-654.0,-751.0
-15.0,-158.0,-185.0,-48.0,-165.0,-70.0,-52.0,-648.0,-762.0
-19.0,-157.0,-186.0,-47.0,-164.0,-69.0,-52.0,-638.0,-760.0
-18.0,-157.0,-186.0,-48.0,-162.0,-69.0,-47.0,-646.0,-761.0
-13.0,-158.0,-184.0,-44.0,-157.0,-67.0,-45.0,-638.0,-752.0
-12.0,-156.0,-182.0,-40.0,-154.0,-69.0,-38.0,-636.0,-745.0
-12.0,-157.0,-181.0,-35.0,-148.0,-72.0,-33.0,-633.0,-744.0
-9.0,-155.0,-185.0,-26.0,-142.0,-70.0,-30.0,-627.0,-738.0
-8.0,-154.0,-178.0,-16.0,-133.0,-71.0,-30.0,-628.0,-732.0
-10.0,-153.0,-176.0,-5.0,-124.0,-71.0,-14.0,-617.0,-724.0
-5.0,-152.0,-179.0,4.0,-115.0,-72.0,-15.0,-612.0,-733.0
-7.0,-147.0,-179.0,9.0,-104.0,-73.0,-15.0,-602.0,-729.0
-10.0,-141.0,-185.0,10.0,-92.0,-75.0,-11.0,-585.0,-738.0
-9.0,-138.0,-183.0,8.0,-79.0,-74.0,-13.0,-578.0,-739.0
-4.0,-136.0,-184.0,3.0,-68.0,-71.0,-14.0,-567.0,-743.0
-9.0,-133.0,-180.0,-7.0,-56.0,-67.0,-21.0,-552.0,-750.0
-10.0,-131.0,-181.0,-20.0,-46.0,-57.0,-25.0,-549.0,-745.0
-7.0,-130.0,-187.0,-38.0,-34.0,-46.0,-25.0,-531.0,-752.0
-8.0,-129.0,-187.0,-62.0,-23.0,-36.0,-24.0,-533.0,-748.0
-8.0,-130.0,-189.0,-87.0,-10.0,-26.0,-23.0,-536.0,-747.0
-6.0,-135.0,-183.0,-111.0,1.0,-14.0,-16.0,-550.0,-743.0
-5.0,-139.0,-185.0,-135.0,11.0,-1.0,-19.0,-561.0,-747.0
-5.0,-139.0,-182.0,-159.0,20.0,9.0,-11.0,-577.0,-750.0
-4.0,-141.0,-185.0,-182.0,28.0,21.0,-9.0,-590.0,-742.0
-6.0,-147.0,-186.0,-206.0,38.0,31.0,-7.0,-597.0,-750.0
-4.0,-151.0,-185.0,-231.0,47.0,40.0,-11.0,-612.0,-751.0
-5.0,-152.0,-190.0,-258.0,56.0,51.0,-9.0,-624.0,-758.0
-5.0,-156.0,-192.0,-288.0,63.0,63.0,-8.0,-637.0,-769.0
-4.0,-157.0,-190.0,-316.0,71.0,70.0,-15.0,-648.0,-773.0
-8.0,-161.0,-192.0,-344.0,77.0,80.0,-20.0,-661.0,-789.0
-7.0,-163.0,-192.0,-367.0,81.0,87.0,-27.0,-674.0,-788.0
-12.0,-164.0,-196.0,-383.0,84.0,95.0,-32.0,-676.0,-789.0
-11.0,-169.0,-194.0,-394.0,86.0,103.0,-30.0,-672.0,-791.0
-10.0,-168.0,-191.0,-399.0,85.0,107.0,-37.0,-671.0,-788.0
-15.0,-168.0,-193.0,-398.0,87.0,108.0,-42.0,-665.0,-789.0
-16.0,-159.0,-195.0,-391.0,89.0,106.0,-49.0,-658.0,-786.0
-19.0,-158.0,-195.0,-382.0,90.0,105.0,-59.0,-642.0,-787.0
-20.0,-157.0,-196.0,-369.0,88.0,104.0,-63.0,-636.0,-787.0
-22.0,-153.0,-195.0,-354.0,87.0,101.0,-74.0,-628.0,-794.0
-23.0,-148.0,-196.0,-339.0,82.0,96.0,-76.0,-609.0,-801.0
-21.0,-147.0,-195.0,-328.0,77.0,90.0,-79.0,-599.0,-792.0
-24.0,-145.0,-194.0,-319.0,70.0,86.0,-72.0,-586.0,-798.0
-24.0,-143.0,-194.0,-316.0,59.0,76.0,-88.0,-576.0,-799.0
-25.0,-140.0,-197.0,-316.0,48.0,69.0,-95.0,-567.0,-795.0
-27.0,-139.0,-194.0,-318.0,34.0,63.0,-93.0,-563.0,-790.0
-28.0,-140.0,-193.0,-325.0,21.0,57.0,-91.0,-558.0,-788.0
-31.0,-131.0,-196.0,-337.0,9.0,49.0,-103.0,-558.0,-793.0
-30.0,-132.0,-191.0,-358.0,-2.0,43.0,-108.0,-554.0,-799.0
-29.0,-131.0,-198.0,-387.0,-13.0,39.0,-107.0,-550.0,-798.0
-32.0,-134.0,-196.0,-422.0,-23.0,33.0,-114.0,-543.0,-803.0
-34.0,-131.0,-198.0,-466.0,-33.0,29.0,-110.0,-545.0,-810.0
-30.0,-129.0,-199.0,-515.0,-44.0,26.0,-111.0,-529.0,-814.0
-35.0,-128.0,-201.0,-571.0,-53.0,24.0,-113.0,-531.0,-825.0
-33.0,-127.0,-203.0,-629.0,-60.0,22.0,-113.0,-526.0,-837.0
-31.0,-126.0,-201.0,-693.0,-66.0,21.0,-106.0,-514.0,-843.0
-28.0,-126.0,-204.0,-758.0,-70.0,15.0,-103.0,-512.0,-859.0
-28.0,-121.0,-214.0,-825.0,-71.0,12.0,-95.0,-504.0,-861.0
-29.0,-121.0,-210.0,-889.0,-70.0,9.0,-94.0,-501.0,-869.0
-25.0,-122.0,-209.0,-949.0,-68.0,9.0,-89.0,-498.0,-871.0
-27.0,-121.0,-213.0,-1001.0,-64.0,9.0,-84.0,-489.0,-872.0
-25.0,-119.0,-212.0,-1046.0,-60.0,7.0,-84.0,-488.0,-873.0
-28.0,-122.0,-214.0,-1090.0,-55.0,4.0,-89.0,-490.0,-878.0
-26.0,-124.0,-207.0,-1119.0,-51.0,2.0,-92.0,-495.0,-869.0
-24.0,-126.0,-208.0,-1138.0,-44.0,1.0,-96.0,-505.0,-864.0
-25.0,-125.0,-207.0,-1147.0,-36.0,3.0,-89.0,-515.0,-861.0
-27.0,-131.0,-214.0,-1145.0,-32.0,2.0,-98.0,-522.0,-856.0
-30.0,-132.0,-210.0,-1136.0,-25.0,2.0,-97.0,-525.0,-866.0
-30.0,-128.0,-208.0,-1119.0,-21.0,1.0,-103.0,-531.0,-867.0
-29.0,-130.0,-207.0,-1095.0,-19.0,5.0,-94.0,-542.0,-863.0
-24.0,-130.0,-214.0,-1068.0,-17.0,7.0,-85.0,-524.0,-871.0
-23.0,-127.0,-218.0,-1044.0,-16.0,1.0,-71.0,-520.0,-891.0
-19.0,-129.0,-220.0,-1024.0,-18.0,-5.0,-69.0,-514.0,-899.0
-19.0,-124.0,-220.0,-1010.0,-25.0,-11.0,-61.0,-504.0,-904.0
-22.0,-127.0,-226.0,-1000.0,-33.0,-18.0,-53.0,-508.0,-922.0
-15.0,-125.0,-222.0,-996.0,-45.0,-24.0,-55.0,-514.0,-936.0
-22.0,-120.0,-230.0,-993.0,-56.0,-32.0,-60.0,-489.0,-942.0
-21.0,-119.0,-236.0,-990.0,-68.0,-48.0,-62.0,-487.0,-951.0
-23.0,-122.0,-233.0,-989.0,-76.0,-58.0,-66.0,-478.0,-959.0
-26.0,-116.0,-236.0,-985.0,-86.0,-66.0,-80.0,-471.0,-965.0
-25.0,-113.0,-236.0,-980.0,-95.0,-73.0,-76.0,-453.0,-970.0
-23.0,-114.0,-240.0,-973.0,-103.0,-81.0,-85.0,-451.0,-978.0
-24.0,-107.0,-241.0,-974.0,-109.0,-74.0,-69.0,-431.0,-983.0
-28.0,-102.0,-241.0,-970.0,-116.0,-87.0,-94.0,-410.0,-992.0
-27.0,-98.0,-240.0,-968.0,-123.0,-99.0,-95.0,-396.0,-984.0
-29.0,-99.0,-241.0,-962.0,-128.0,-108.0,-104.0,-389.0,-990.0
-29.0,-97.0,-242.0,-955.0,-132.0,-112.0,-107.0,-394.0,-987.0
-27.0,-93.0,-236.0,-953.0,-135.0,-105.0,-95.0,-378.0,-975.0
-30.0,-88.0,-243.0,-947.0,-136.0,-111.0,-99.0,-360.0,-987.0
-33.0,-88.0,-245.0,-946.0,-133.0,-118.0,-97.0,-351.0,-972.0
-29.0,-89.0,-235.0,-942.0,-127.0,-123.0,-90.0,-350.0,-975.0
-23.0,-88.0,-234.0,-938.0,-119.0,-127.0,-85.0,-355.0,-970.0
-24.0,-97.0,-239.0,-933.0,-110.0,-136.0,-75.0,-379.0,-965.0
-23.0,-95.0,-236.0,-917.0,-98.0,-154.0,-93.0,-387.0,-972.0
-24.0,-79.0,-234.0,-897.0,-91.0,-167.0,-82.0,-330.0,-960.0
-24.0,-76.0,-231.0,-869.0,-86.0,-185.0,-87.0,-305.0,-952.0
-27.0,-74.0,-227.0,-843.0,-81.0,-195.0,-88.0,-295.0,-941.0
-28.0,-75.0,-227.0,-822.0,-76.0,-197.0,-91.0,-300.0,-940.0
-25.0,-75.0,-230.0,-813.0,-69.0,-198.0,-96.0,-297.0,-931.0
-28.0,-71.0,-220.0,-812.0,-60.0,-201.0,-96.0,-300.0,-935.0
-31.0,-78.0,-224.0,-820.0,-48.0,-192.0,-98.0,-314.0,-937.0
-26.0,-71.0,-221.0,-831.0,-41.0,-177.0,-89.0,-286.0,-921.0
-29.0,-71.0,-221.0,-840.0,-32.0,-183.0,-97.0,-288.0,-924.0
-28.0,-72.0,-227.0,-844.0,-21.0,-183.0,-88.0,-297.0,-924.0
-25.0,-70.0,-226.0,-855.0,-8.0,-186.0,-93.0,-282.0,-924.0
-26.0,-70.0,-227.0,-858.0,5.0,-177.0,-93.0,-289.0,-932.0
-32.0,-82.0,-230.0,-860.0,16.0,-167.0,-93.0,-337.0,-947.0
-28.0,-65.0,-230.0,-875.0,29.0,-155.0,-95.0,-271.0,-942.0
-30.0,-65.0,-231.0,-880.0,40.0,-154.0,-102.0,-274.0,-952.0
-33.0,-66.0,-231.0,-889.0,50.0,-153.0,-103.0,-267.0,-958.0
-28.0,-64.0,-236.0,-902.0,60.0,-151.0,-90.0,-269.0,-965.0
-26.0,-67.0,-242.0,-916.0,67.0,-144.0,-85.0,-291.0,-969.0
-22.0,-60.0,-229.0,-940.0,75.0,-135.0,-57.0,-249.0,-959.0
-18.0,-58.0,-238.0,-956.0,77.0,-137.0,-68.0,-235.0,-966.0
-18.0,-60.0,-236.0,-970.0,77.0,-146.0,-55.0,-229.0,-971.0
-16.0,-55.0,-241.0,-984.0,78.0,-152.0,-49.0,-216.0,-976.0
-13.0,-56.0,-238.0,-998.0,72.0,-155.0,-52.0,-230.0,-985.0
-12.0,-53.0,-236.0,-1016.0,63.0,-147.0,-29.0,-200.0,-959.0
-13.0,-49.0,-236.0,-1018.0,53.0,-163.0,-41.0,-198.0,-962.0
-9.0,-48.0,-232.0,-1014.0,46.0,-172.0,-33.0,-190.0,-955.0
-14.0,-51.0,-236.0,-1005.0,37.0,-179.0,-35.0,-195.0,-956.0
-11.0,-52.0,-235.0,-999.0,31.0,-166.0,-23.0,-195.0,-955.0
-20.0,-45.0,-237.0,-987.0,26.0,-170.0,-52.0,-182.0,-968.0
-16.0,-44.0,-237.0,-973.0,25.0,-176.0,-46.0,-177.0,-962.0
-19.0,-41.0,-236.0,-955.0,29.0,-174.0,-49.0,-172.0,-963.0
-15.0,-47.0,-234.0,-939.0,33.0,-165.0,-45.0,-182.0,-972.0
-17.0,-40.0,-234.0,-931.0,36.0,-146.0,-57.0,-147.0,-965.0
-16.0,-37.0,-237.0,-919.0,40.0,-152.0,-54.0,-145.0,-973.0
-15.0,-39.0,-237.0,-908.0,46.0,-155.0,-47.0,-139.0,-964.0
-17.0,-39.0,-237.0,-897.0,49.0,-152.0,-45.0,-126.0,-973.0
-22.0,-30.0,-239.0,-887.0,51.0,-147.0,-49.0,-128.0,-978.0
-19.0,-22.0,-230.0,-889.0,48.0,-122.0,-32.0,-97.0,-957.0
-20.0,-22.0,-235.0,-886.0,43.0,-124.0,-55.0,-83.0,-964.0
-16.0,-22.0,-226.0,-877.0,42.0,-135.0,-53.0,-67.0,-958.0
-13.0,-17.0,-237.0,-865.0,40.0,-132.0,-38.0,-62.0,-960.0
-15.0,-12.0,-236.0,-860.0,34.0,-122.0,-40.0,-47.0,-954.0
-17.0,-3.0,-231.0,-864.0,25.0,-103.0,-49.0,-15.0,-935.0
-17.0,0.0,-228.0,-852.0,17.0,-105.0,-60.0,-4.0,-953.0
-20.0,4.0,-227.0,-843.0,14.0,-110.0,-63.0,21.0,-942.0
-19.0,6.0,-225.0,-833.0,11.0,-99.0,-69.0,18.0,-947.0
-22.0,14.0,-222.0,-828.0,7.0,-66.0,-59.0,47.0,-925.0
-29.0,14.0,-222.0,-819.0,8.0,-69.0,-89.0,55.0,-917.0
-23.0,19.0,-216.0,-809.0,20.0,-78.0,-87.0,88.0,-893.0
-24.0,24.0,-218.0,-797.0,29.0,-65.0,-83.0,80.0,-886.0
-26.0,15.0,-216.0,-794.0,38.0,-47.0,-83.0,74.0,-879.0
-27.0,13.0,-215.0,-799.0,51.0,-36.0,-105.0,50.0,-880.0
-26.0,20.0,-208.0,-813.0,71.0,-34.0,-92.0,76.0,-872.0
-28.0,16.0,-210.0,-835.0,89.0,-16.0,-98.0,43.0,-874.0
-21.0,17.0,-211.0,-873.0,103.0,19.0,-81.0,71.0,-860.0
-23.0,22.0,-212.0,-918.0,118.0,11.0,-79.0,75.0,-877.0
-21.0,21.0,-208.0,-970.0,144.0,4.0,-70.0,78.0,-857.0
-21.0,19.0,-206.0,-1020.0,161.0,19.0,-62.0,66.0,-855.0
-16.0,27.0,-204.0,-1081.0,172.0,41.0,-54.0,95.0,-841.0
-20.0,26.0,-202.0,-1130.0,175.0,49.0,-71.0,108.0,-829.0
-18.0,32.0,-200.0,-1173.0,184.0,47.0,-67.0,118.0,-818.0
-19.0,32.0,-195.0,-1220.0,188.0,64.0,-60.0,125.0,-812.0
-21.0,36.0,-194.0,-1271.0,183.0,92.0,-73.0,137.0,-805.0
-21.0,47.0,-191.0,-1319.0,185.0,85.0,-72.0,168.0,-790.0
-22.0,42.0,-193.0,-1356.0,188.0,91.0,-66.0,157.0,-785.0
-19.0,50.0,-186.0,-1402.0,191.0,94.0,-51.0,175.0,-774.0
-23.0,52.0,-187.0,-1442.0,186.0,107.0,-80.0,194.0,-778.0
-28.0,42.0,-188.0,-1472.0,182.0,102.0,-90.0,166.0,-777.0
-23.0,56.0,-186.0,-1504.0,179.0,94.0,-73.0,200.0,-773.0
-22.0,47.0,-194.0,-1525.0,172.0,104.0,-71.0,185.0,-776.0
-22.0,57.0,-192.0,-1541.0,166.0,106.0,-76.0,220.0,-783.0
-19.0,49.0,-194.0,-1525.0,171.0,104.0,-68.0,215.0,-785.0
-24.0,51.0,-196.0,-1486.0,178.0,105.0,-87.0,205.0,-801.0
-23.0,52.0,-193.0,-1442.0,191.0,101.0,-87.0,204.0,-789.0
-26.0,49.0,-198.0,-1389.0,199.0,110.0,-89.0,189.0,-791.0
-20.0,49.0,-195.0,-1339.0,207.0,115.0,-72.0,182.0,-805.0
-23.0,51.0,-195.0,-1292.0,219.0,130.0,-84.0,195.0,-804.0
-23.0,47.0,-201.0,-1234.0,236.0,129.0,-80.0,186.0,-832.0
-22.0,46.0,-205.0,-1168.0,252.0,129.0,-79.0,190.0,-833.0
-22.0,50.0,-200.0,-1072.0,264.0,129.0,-68.0,205.0,-842.0
-19.0,55.0,-201.0,-980.0,278.0,129.0,-67.0,217.0,-839.0
-19.0,55.0,-199.0,-883.0,288.0,130.0,-63.0,219.0,-819.0
-25.0,55.0,-194.0,-785.0,294.0,124.0,-64.0,209.0,-811.0
-17.0,54.0,-192.0,-683.0,294.0,116.0,-58.0,225.0,-786.0
-21.0,57.0,-189.0,-570.0,284.0,112.0,-59.0,220.0,-791.0
-18.0,54.0,-194.0,-452.0,271.0,103.0,-55.0,223.0,-788.0
-16.0,52.0,-191.0,-333.0,257.0,95.0,-44.0,228.0,-789.0
-14.0,55.0,-189.0,-215.0,239.0,87.0,-48.0,213.0,-784.0
-10.0,51.0,-192.0,-100.0,216.0,78.0,-39.0,212.0,-789.0
-9.0,50.0,-191.0,7.0,195.0,62.0,-37.0,209.0,-775.0
-12.0,51.0,-190.0,103.0,172.0,44.0,-28.0,216.0,-769.0
-14.0,53.0,-187.0,193.0,145.0,29.0,-39.0,212.0,-765.0
-17.0,52.0,-182.0,272.0,123.0,11.0,-55.0,207.0,-763.0
-24.0,49.0,-184.0,347.0,109.0,-15.0,-70.0,208.0,-750.0
-23.0,54.0,-180.0,417.0,105.0,-43.0,-85.0,208.0,-743.0
-29.0,58.0,-176.0,490.0,110.0,-68.0,-96.0,220.0,-737.0
-29.0,59.0,-177.0,554.0,116.0,-94.0,-102.0,224.0,-734.0
-31.0,57.0,-176.0,604.0,127.0,-115.0,-113.0,204.0,-726.0
-32.0,51.0,-176.0,627.0,136.0,-123.0,-114.0,211.0,-724.0
-31.0,49.0,-175.0,644.0,148.0,-132.0,-116.0,190.0,-735.0
-30.0,52.0,-182.0,672.0,154.0,-135.0,-106.0,189.0,-750.0
-28.0,55.0,-184.0,704.0,160.0,-132.0,-98.0,208.0,-751.0
-28.0,54.0,-182.0,738.0,159.0,-123.0,-95.0,211.0,-767.0
-24.0,53.0,-188.0,763.0,154.0,-110.0,-87.0,226.0,-777.0
-23.0,58.0,-188.0,784.0,152.0,-97.0,-80.0,230.0,-776.0
-18.0,62.0,-191.0,798.0,151.0,-80.0,-69.0,241.0,-779.0
-16.0,61.0,-194.0,810.0,153.0,-64.0,-51.0,240.0,-785.0
-13.0,60.0,-190.0,818.0,160.0,-49.0,-50.0,233.0,-788.0
-14.0,58.0,-193.0,832.0,168.0,-40.0,-46.0,230.0,-791.0
-15.0,54.0,-193.0,851.0,175.0,-34.0,-54.0,210.0,-791.0
-15.0,52.0,-193.0,873.0,180.0,-32.0,-50.0,206.0,-788.0
-17.0,54.0,-194.0,900.0,183.0,-35.0,-56.0,211.0,-783.0
-15.0,55.0,-189.0,930.0,190.0,-37.0,-61.0,207.0,-767.0
-16.0,54.0,-182.0,966.0,205.0,-43.0,-60.0,207.0,-750.0
-19.0,50.0,-178.0,1009.0,221.0,-45.0,-67.0,210.0,-747.0
-14.0,49.0,-179.0,1062.0,238.0,-48.0,-56.0,202.0,-729.0
-19.0,49.0,-175.0,1125.0,247.0,-52.0,-67.0,199.0,-729.0
-18.0,45.0,-179.0,1194.0,251.0,-58.0,-64.0,180.0,-732.0
-19.0,39.0,-182.0,1259.0,254.0,-65.0,-72.0,165.0,-735.0
-22.0,39.0,-178.0,1310.0,254.0,-74.0,-74.0,153.0,-737.0
-19.0,34.0,-176.0,1342.0,256.0,-84.0,-77.0,146.0,-736.0
-22.0,33.0,-175.0,1374.0,263.0,-95.0,-72.0,122.0,-730.0
-21.0,29.0,-180.0,1410.0,278.0,-106.0,-59.0,100.0,-724.0
-13.0,17.0,-173.0,1447.0,297.0,-119.0,-52.0,81.0,-699.0
-13.0,10.0,-166.0,1487.0,314.0,-136.0,-40.0,59.0,-694.0
-11.0,9.0,-160.0,1531.0,331.0,-152.0,-25.0,33.0,-685.0
-5.0,5.0,-166.0,1576.0,348.0,-163.0,-22.0,19.0,-675.0
-4.0,-2.0,-164.0,1628.0,365.0,-173.0,-6.0,1.0,-668.0
-1.0,-9.0,-163.0,1687.0,380.0,-184.0,17.0,-30.0,-657.0
5.0,-17.0,-159.0,1748.0,393.0,-196.0,27.0,-59.0,-651.0
7.0,-22.0,-155.0,1809.0,405.0,-205.0,37.0,-91.0,-642.0
9.0,-27.0,-155.0,1873.0,421.0,-207.0,43.0,-114.0,-628.0
8.0,-37.0,-150.0,1943.0,439.0,-212.0,49.0,-142.0,-618.0
8.0,-43.0,-153.0,2012.0,459.0,-213.0,46.0,-166.0,-614.0
10.0,-51.0,-146.0,2093.0,480.0,-205.0,49.0,-197.0,-607.0
10.0,-55.0,-147.0,2161.0,503.0,-194.0,44.0,-211.0,-596.0
7.0,-60.0,-139.0,2234.0,524.0,-177.0,45.0,-230.0,-582.0
7.0,-66.0,-135.0,2313.0,546.0,-163.0,36.0,-249.0,-550.0
7.0,-71.0,-130.0,2408.0,562.0,-150.0,37.0,-281.0,-517.0
10.0,-77.0,-125.0,2519.0,572.0,-141.0,50.0,-306.0,-492.0
11.0,-87.0,-118.0,2634.0,577.0,-133.0,50.0,-336.0,-468.0
9.0,-93.0,-118.0,2744.0,577.0,-123.0,46.0,-368.0,-465.0
9.0,-103.0,-113.0,2848.0,574.0,-114.0,46.0,-407.0,-451.0
10.0,-113.0,-114.0,2941.0,573.0,-99.0,41.0,-448.0,-455.0
11.0,-120.0,-121.0,3016.0,578.0,-82.0,40.0,-482.0,-469.0
6.0,-137.0,-115.0,3066.0,591.0,-64.0,32.0,-534.0,-475.0
10.0,-153.0,-119.0,3100.0,615.0,-42.0,34.0,-613.0,-468.0
0.0,-178.0,-120.0,3127.0,649.0,-22.0,22.0,-712.0,-482.0
3.0,-193.0,-143.0,3136.0,686.0,0.0,17.0,-779.0,-570.0
13.0,-221.0,-168.0,3116.0,723.0,29.0,46.0,-904.0,-676.0
20.0,-244.0,-193.0,3075.0,751.0,49.0,88.0,-984.0,-766.0
28.0,-259.0,-219.0,3017.0,782.0,64.0,117.0,-1075.0,-906.0
27.0,-271.0,-264.0,2921.0,829.0,90.0,99.0,-1131.0,-1073.0
24.0,-266.0,-296.0,2754.0,883.0,121.0,121.0,-1117.0,-1196.0
53.0,-255.0,-321.0,2529.0,921.0,135.0,216.0,-1043.0,-1297.0
68.0,-256.0,-353.0,2329.0,928.0,129.0,314.0,-1058.0,-1485.0
73.0,-264.0,-435.0,2109.0,888.0,132.0,333.0,-1133.0,-1812.0
65.0,-272.0,-553.0,1693.0,801.0,210.0,343.0,-1204.0,-2255.0
102.0,-265.0,-709.0,916.0,725.0,352.0,459.0,-1221.0,-2867.0
150.0,-324.0,-924.0,-257.0,631.0,384.0,644.0,-1431.0,-3689.0
237.0,-428.0,-1109.0,-1610.0,440.0,358.0,1099.0,-1806.0,-4654.0
371.0,-521.0,-1352.0,-2550.0,196.0,447.0,1652.0,-2055.0,-5604.0
348.0,-619.0,-1539.0,-2750.0,126.0,666.0,1474.0,-2422.0,-6557.0
334.0,-521.0,-1533.0,-2534.0,438.0,635.0,1490.0,-1902.0,-6568.0
263.0,-575.0,-1304.0,-1356.0,957.0,659.0,1110.0,-1725.0,-5757.0
330.0,-709.0,-1070.0,1447.0,1711.0,432.0,1334.0,-2215.0,-4536.0
372.0,-811.0,-759.0,5444.0,2243.0,-63.0,1633.0,-2755.0,-3196.0
224.0,-759.0,-679.0,9374.0,2314.0,-540.0,1131.0,-2776.0,-2807.0
131.0,-611.0,-691.0,12308.0,2265.0,-956.0,757.0,-2402.0,-2694.0
53.0,-522.0,-656.0,14101.0,2060.0,-1280.0,340.0,-1998.0,-2471.0
-53.0,-454.0,-537.0,15031.0,1824.0,-1426.0,-114.0,-1818.0,-1984.0
-121.0,-376.0,-381.0,15320.0,1539.0,-1388.0,-416.0,-1528.0,-1366.0
-131.0,-289.0,-221.0,15244.0,1327.0,-1155.0,-522.0,-1242.0,-771.0
-84.0,-230.0,-20.0,14960.0,1302.0,-829.0,-354.0,-1044.0,-25.0
-32.0,-196.0,165.0,14431.0,1329.0,-689.0,-116.0,-922.0,882.0
15.0,-230.0,348.0,13637.0,1204.0,-760.0,92.0,-1152.0,1553.0
33.0,-294.0,406.0,12478.0,928.0,-998.0,152.0,-1415.0,1759.0
37.0,-147.0,273.0,11033.0,588.0,-1295.0,143.0,-885.0,1279.0
37.0,111.0,59.0,9474.0,310.0,-1454.0,136.0,114.0,426.0
23.0,227.0,-77.0,7851.0,155.0,-1514.0,96.0,748.0,-282.0
-31.0,262.0,-155.0,6334.0,38.0,-1532.0,-85.0,934.0,-630.0
-73.0,194.0,-198.0,5194.0,-70.0,-1471.0,-239.0,763.0,-764.0
-90.0,77.0,-261.0,4627.0,-212.0,-1409.0,-318.0,441.0,-1006.0
-83.0,-28.0,-311.0,4672.0,-339.0,-1408.0,-319.0,-21.0,-1254.0
-36.0,-151.0,-349.0,5209.0,-268.0,-1493.0,-159.0,-466.0,-1397.0
26.0,-260.0,-356.0,6036.0,19.0,-1534.0,80.0,-902.0,-1403.0
87.0,-356.0,-348.0,6903.0,448.0,-1448.0,290.0,-1326.0,-1375.0
118.0,-395.0,-348.0,7459.0,719.0,-1223.0,488.0,-1622.0,-1387.0
121.0,-394.0,-334.0,7400.0,856.0,-939.0,516.0,-1680.0,-1305.0
122.0,-360.0,-293.0,6878.0,912.0,-686.0,491.0,-1521.0,-1165.0
127.0,-311.0,-242.0,6240.0,1000.0,-506.0,509.0,-1317.0,-960.0
123.0,-254.0,-193.0,5678.0,1161.0,-403.0,489.0,-1081.0,-759.0
87.0,-190.0,-158.0,5232.0,1300.0,-363.0,370.0,-852.0,-620.0
64.0,-145.0,-137.0,4829.0,1349.0,-354.0,259.0,-614.0,-531.0
43.0,-90.0,-97.0,4395.0,1303.0,-348.0,173.0,-431.0,-382.0
47.0,-49.0,-55.0,3901.0,1209.0,-358.0,173.0,-266.0,-222.0
31.0,-27.0,-15.0,3379.0,1148.0,-351.0,125.0,-188.0,-69.0
37.0,-16.0,8.0,2902.0,1091.0,-312.0,148.0,-127.0,45.0
43.0,-10.0,39.0,2529.0,1072.0,-276.0,152.0,-64.0,172.0
23.0,8.0,80.0,2315.0,1066.0,-253.0,75.0,39.0,316.0
45.0,32.0,122.0,2294.0,1058.0,-263.0,123.0,115.0,473.0
21.0,8.0,147.0,2457.0,1124.0,-289.0,83.0,79.0,591.0
-7.0,-48.0,171.0,2686.0,1173.0,-347.0,-43.0,-174.0,720.0
34.0,-96.0,202.0,2979.0,1223.0,-471.0,56.0,-337.0,836.0
113.0,-112.0,211.0,3325.0,1374.0,-518.0,347.0,-428.0,875.0
189.0,-111.0,244.0,3582.0,1534.0,-446.0,682.0,-463.0,994.0
194.0,-119.0,284.0,3711.0,1612.0,-310.0,759.0,-475.0,1134.0
173.0,-126.0,322.0,3762.0,1584.0,-124.0,672.0,-536.0,1326.0
139.0,-140.0,385.0,3792.0,1418.0,54.0,565.0,-583.0,1615.0
97.0,-128.0,425.0,3830.0,1140.0,172.0,421.0,-527.0,1731.0
28.0,-106.0,445.0,3810.0,806.0,224.0,94.0,-478.0,1849.0
-9.0,-90.0,470.0,3681.0,451.0,221.0,-117.0,-408.0,1918.0
-19.0,-54.0,472.0,3432.0,158.0,205.0,-114.0,-261.0,1929.0
19.0,-2.0,465.0,3105.0,21.0,177.0,9.0,-64.0,1906.0
43.0,42.0,461.0,2764.0,32.0,132.0,86.0,97.0,1881.0
54.0,73.0,449.0,2453.0,124.0,51.0,139.0,225.0,1836.0
71.0,100.0,427.0,2199.0,263.0,-65.0,220.0,374.0,1734.0
88.0,130.0,400.0,2006.0,410.0,-202.0,280.0,482.0,1631.0
103.0,137.0,390.0,1879.0,529.0,-313.0,346.0,548.0,1588.0
108.0,125.0,376.0,1863.0,580.0,-382.0,391.0,498.0,1549.0
131.0,105.0,349.0,1939.0,557.0,-435.0,452.0,425.0,1452.0
140.0,91.0,339.0,2028.0,495.0,-486.0,515.0,353.0,1389.0
150.0,73.0,316.0,2087.0,393.0,-529.0,579.0,256.0,1300.0
172.0,56.0,275.0,2079.0,240.0,-559.0,645.0,180.0,1156.0
191.0,24.0,238.0,1940.0,68.0,-529.0,739.0,74.0,1017.0
185.0,3.0,216.0,1708.0,-51.0,-419.0,726.0,-35.0,893.0
162.0,-13.0,185.0,1473.0,-118.0,-305.0,629.0,-94.0,765.0
131.0,11.0,170.0,1257.0,-131.0,-181.0,496.0,5.0,712.0
95.0,47.0,182.0,1085.0,-103.0,-10.0,371.0,123.0,742.0
58.0,83.0,196.0,940.0,-65.0,182.0,200.0,293.0,814.0
36.0,112.0,212.0,794.0,-51.0,313.0,98.0,446.0,871.0
-10.0,132.0,241.0,649.0,-90.0,408.0,-57.0,531.0,958.0
23.0,176.0,229.0,534.0,-223.0,372.0,32.0,707.0,926.0
26.0,190.0,224.0,406.0,-247.0,418.0,62.0,730.0,898.0
15.0,190.0,214.0,233.0,-199.0,514.0,35.0,727.0,878.0
6.0,172.0,213.0,8.0,-163.0,535.0,-4.0,643.0,869.0
-2.0,141.0,206.0,-203.0,-153.0,485.0,-33.0,537.0,844.0
1.0,111.0,204.0,-368.0,-157.0,432.0,-10.0,424.0,827.0
7.0,71.0,191.0,-462.0,-162.0,356.0,2.0,278.0,805.0
8.0,47.0,196.0,-511.0,-158.0,274.0,16.0,157.0,807.0
23.0,21.0,191.0,-537.0,-147.0,174.0,64.0,67.0,806.0
30.0,-9.0,194.0,-542.0,-133.0,76.0,86.0,-33.0,813.0
33.0,-26.0,190.0,-524.0,-123.0,-5.0,101.0,-109.0,792.0
35.0,-51.0,181.0,-509.0,-117.0,-45.0,119.0,-192.0,756.0
52.0,-60.0,174.0,-505.0,-95.0,-49.0,157.0,-254.0,711.0
63.0,-71.0,167.0,-531.0,-60.0,-32.0,212.0,-298.0,682.0
80.0,-79.0,166.0,-565.0,1.0,10.0,272.0,-324.0,678.0
92.0,-88.0,168.0,-590.0,61.0,54.0,316.0,-361.0,694.0
96.0,-91.0,178.0,-581.0,118.0,102.0,347.0,-380.0,715.0
92.0,-94.0,175.0,-517.0,185.0,165.0,335.0,-382.0,742.0
88.0,-91.0,183.0,-427.0,240.0,234.0,325.0,-373.0,760.0
82.0,-86.0,191.0,-350.0,272.0,297.0,298.0,-360.0,789.0
70.0,-87.0,199.0,-285.0,291.0,354.0,252.0,-350.0,825.0
59.0,-83.0,213.0,-211.0,300.0,406.0,194.0,-336.0,882.0
50.0,-82.0,227.0,-120.0,302.0,441.0,164.0,-311.0,934.0
47.0,-69.0,236.0,-27.0,294.0,462.0,147.0,-286.0,973.0
50.0,-61.0,245.0,50.0,284.0,469.0,161.0,-256.0,1009.0
59.0,-58.0,260.0,102.0,284.0,452.0,191.0,-231.0,1043.0
63.0,-52.0,272.0,144.0,296.0,418.0,216.0,-215.0,1111.0
71.0,-46.0,286.0,188.0,314.0,371.0,243.0,-200.0,1170.0
73.0,-45.0,300.0,238.0,338.0,316.0,248.0,-193.0,1220.0
66.0,-52.0,309.0,285.0,366.0,260.0,215.0,-209.0,1267.0
63.0,-55.0,315.0,319.0,401.0,210.0,206.0,-227.0,1295.0
65.0,-57.0,315.0,346.0,442.0,160.0,200.0,-249.0,1314.0
63.0,-65.0,325.0,375.0,476.0,104.0,199.0,-261.0,1328.0
58.0,-77.0,310.0,407.0,494.0,30.0,186.0,-318.0,1317.0
67.0,-86.0,315.0,414.0,494.0,7.0,214.0,-367.0,1303.0
72.0,-103.0,312.0,395.0,481.0,-1.0,243.0,-414.0,1269.0
73.0,-107.0,306.0,365.0,454.0,-14.0,256.0,-448.0,1236.0
71.0,-115.0,296.0,344.0,406.0,-25.0,262.0,-489.0,1201.0
76.0,-125.0,280.0,321.0,348.0,-6.0,269.0,-513.0,1159.0
84.0,-121.0,265.0,293.0,286.0,22.0,289.0,-503.0,1101.0
73.0,-125.0,255.0,262.0,238.0,31.0,266.0,-519.0,1049.0
74.0,-125.0,244.0,217.0,200.0,48.0,268.0,-525.0,999.0
69.0,-125.0,235.0,177.0,176.0,84.0,236.0,-529.0,965.0
60.0,-128.0,222.0,137.0,156.0,120.0,222.0,-529.0,924.0
57.0,-129.0,213.0,97.0,144.0,150.0,205.0,-545.0,884.0
59.0,-132.0,208.0,64.0,140.0,168.0,183.0,-552.0,863.0
56.0,-130.0,202.0,51.0,142.0,185.0,171.0,-557.0,830.0
49.0,-132.0,191.0,49.0,148.0,201.0,159.0,-555.0,808.0
47.0,-129.0,187.0,57.0,157.0,212.0,148.0,-543.0,796.0
44.0,-127.0,185.0,70.0,166.0,221.0,143.0,-524.0,768.0
42.0,-120.0,184.0,90.0,175.0,226.0,143.0,-504.0,752.0
48.0,-120.0,175.0,119.0,184.0,225.0,150.0,-497.0,732.0
44.0,-114.0,175.0,151.0,192.0,215.0,146.0,-469.0,725.0
49.0,-107.0,169.0,180.0,194.0,206.0,149.0,-444.0,711.0
44.0,-106.0,172.0,209.0,196.0,198.0,146.0,-444.0,695.0
43.0,-100.0,169.0,222.0,191.0,181.0,151.0,-432.0,692.0
48.0,-93.0,168.0,220.0,183.0,165.0,159.0,-400.0,702.0
45.0,-87.0,167.0,212.0,170.0,163.0,148.0,-375.0,693.0
45.0,-96.0,174.0,188.0,154.0,167.0,141.0,-401.0,710.0
46.0,-95.0,175.0,152.0,139.0,137.0,146.0,-407.0,724.0
48.0,-101.0,182.0,114.0,131.0,116.0,151.0,-421.0,743.0
49.0,-99.0,185.0,93.0,122.0,106.0,157.0,-417.0,765.0
50.0,-107.0,187.0,85.0,111.0,103.0,156.0,-441.0,774.0
54.0,-109.0,188.0,89.0,108.0,89.0,172.0,-442.0,792.0
52.0,-112.0,196.0,111.0,106.0,50.0,167.0,-436.0,816.0
50.0,-115.0,196.0,146.0,106.0,4.0,167.0,-467.0,811.0
45.0,-115.0,203.0,148.0,108.0,13.0,163.0,-470.0,825.0
47.0,-118.0,204.0,135.0,107.0,39.0,159.0,-477.0,839.0
47.0,-124.0,208.0,132.0,105.0,50.0,144.0,-507.0,852.0
44.0,-132.0,207.0,160.0,102.0,43.0,132.0,-535.0,844.0
43.0,-134.0,209.0,191.0,100.0,19.0,134.0,-556.0,840.0
41.0,-132.0,201.0,226.0,98.0,-42.0,129.0,-520.0,843.0
28.0,-148.0,205.0,294.0,98.0,-119.0,96.0,-606.0,832.0
37.0,-153.0,208.0,303.0,75.0,-43.0,117.0,-627.0,852.0
40.0,-146.0,203.0,292.0,57.0,-25.0,119.0,-609.0,851.0
27.0,-149.0,196.0,309.0,73.0,-42.0,90.0,-625.0,825.0
35.0,-153.0,198.0,328.0,87.0,-45.0,94.0,-621.0,825.0
35.0,-150.0,190.0,336.0,89.0,-48.0,101.0,-615.0,811.0
35.0,-149.0,193.0,330.0,95.0,-46.0,108.0,-612.0,811.0
42.0,-145.0,190.0,350.0,118.0,-54.0,108.0,-595.0,788.0
58.0,-168.0,193.0,399.0,142.0,-59.0,172.0,-633.0,797.0
27.0,-115.0,188.0,589.0,195.0,29.0,124.0,-558.0,757.0
36.0,-136.0,214.0,301.0,80.0,66.0,120.0,-586.0,880.0
38.0,-147.0,206.0,121.0,53.0,-37.0,92.0,-592.0,864.0
36.0,-141.0,202.0,157.0,115.0,-56.0,117.0,-592.0,831.0
44.0,-136.0,205.0,156.0,108.0,-40.0,141.0,-568.0,837.0
46.0,-128.0,201.0,139.0,89.0,-32.0,150.0,-560.0,828.0
42.0,-130.0,199.0,109.0,78.0,-42.0,140.0,-546.0,851.0
47.0,-128.0,206.0,84.0,70.0,-44.0,146.0,-524.0,861.0
42.0,-128.0,205.0,59.0,55.0,-56.0,128.0,-531.0,859.0
42.0,-128.0,210.0,30.0,46.0,-45.0,135.0,-537.0,855.0
40.0,-125.0,204.0,8.0,42.0,-36.0,132.0,-530.0,844.0
40.0,-128.0,203.0,-19.0,41.0,-27.0,123.0,-540.0,840.0
38.0,-128.0,199.0,-44.0,36.0,-18.0,121.0,-546.0,832.0
38.0,-130.0,193.0,-69.0,31.0,-13.0,115.0,-553.0,826.0
41.0,-129.0,201.0,-86.0,26.0,-12.0,122.0,-536.0,817.0
38.0,-128.0,192.0,-98.0,21.0,-10.0,128.0,-536.0,803.0
43.0,-140.0,191.0,-107.0,22.0,-8.0,132.0,-581.0,792.0
40.0,-135.0,191.0,-117.0,27.0,7.0,122.0,-567.0,789.0
39.0,-133.0,192.0,-140.0,29.0,37.0,127.0,-568.0,791.0
45.0,-152.0,190.0,-165.0,29.0,58.0,149.0,-624.0,792.0
49.0,-157.0,187.0,-148.0,37.0,55.0,158.0,-641.0,777.0
51.0,-148.0,191.0,-127.0,38.0,51.0,164.0,-610.0,783.0
56.0,-160.0,190.0,-120.0,44.0,54.0,193.0,-662.0,793.0
60.0,-179.0,191.0,-85.0,67.0,42.0,209.0,-720.0,783.0
64.0,-160.0,185.0,-35.0,90.0,51.0,208.0,-658.0,784.0
71.0,-163.0,187.0,12.0,106.0,102.0,252.0,-673.0,775.0
57.0,-143.0,189.0,75.0,107.0,124.0,192.0,-590.0,772.0
39.0,-102.0,184.0,134.0,75.0,136.0,143.0,-436.0,774.0
31.0,-98.0,187.0,176.0,48.0,95.0,107.0,-392.0,761.0
33.0,-87.0,188.0,240.0,45.0,22.0,110.0,-348.0,771.0
43.0,-81.0,185.0,313.0,43.0,-37.0,130.0,-343.0,764.0
48.0,-81.0,185.0,379.0,44.0,-82.0,155.0,-333.0,768.0
57.0,-92.0,186.0,452.0,48.0,-100.0,189.0,-363.0,774.0
51.0,-92.0,188.0,524.0,40.0,-110.0,185.0,-385.0,781.0
42.0,-90.0,187.0,575.0,21.0,-104.0,140.0,-377.0,778.0
35.0,-84.0,186.0,574.0,15.0,-82.0,117.0,-361.0,774.0
33.0,-80.0,185.0,499.0,12.0,-46.0,103.0,-342.0,776.0
34.0,-77.0,191.0,386.0,9.0,-9.0,106.0,-344.0,793.0
36.0,-80.0,203.0,253.0,0.0,15.0,111.0,-351.0,818.0
41.0,-83.0,214.0,116.0,-17.0,34.0,125.0,-372.0,863.0
35.0,-87.0,216.0,-1.0,-30.0,41.0,106.0,-392.0,899.0
41.0,-86.0,224.0,-108.0,-48.0,38.0,123.0,-369.0,934.0
43.0,-92.0,231.0,-199.0,-68.0,37.0,131.0,-391.0,955.0
48.0,-90.0,239.0,-256.0,-66.0,63.0,146.0,-393.0,968.0
40.0,-103.0,238.0,-275.0,-49.0,97.0,117.0,-428.0,973.0
28.0,-107.0,240.0,-294.0,-44.0,91.0,90.0,-452.0,992.0
39.0,-120.0,242.0,-307.0,-58.0,50.0,135.0,-491.0,993.0
45.0,-122.0,241.0,-304.0,-79.0,9.0,137.0,-480.0,1003.0
56.0,-128.0,239.0,-272.0,-97.0,-24.0,181.0,-516.0,985.0
31.0,-97.0,239.0,-216.0,-101.0,-56.0,95.0,-411.0,985.0
22.0,-68.0,229.0,-134.0,-79.0,-21.0,61.0,-317.0,958.0
35.0,-73.0,226.0,-77.0,-48.0,34.0,101.0,-314.0,931.0
47.0,-83.0,222.0,-65.0,-27.0,38.0,145.0,-347.0,927.0
46.0,-88.0,226.0,-55.0,-11.0,11.0,137.0,-351.0,924.0
48.0,-91.0,220.0,-13.0,-2.0,-14.0,149.0,-353.0,905.0
46.0,-95.0,212.0,67.0,20.0,-38.0,141.0,-386.0,868.0
41.0,-89.0,209.0,138.0,51.0,-21.0,135.0,-376.0,853.0
38.0,-85.0,207.0,170.0,70.0,2.0,125.0,-353.0,847.0
43.0,-81.0,207.0,171.0,82.0,24.0,128.0,-351.0,856.0
50.0,-82.0,212.0,162.0,92.0,36.0,147.0,-346.0,864.0
49.0,-83.0,215.0,152.0,91.0,42.0,147.0,-354.0,882.0
44.0,-91.0,218.0,145.0,78.0,41.0,156.0,-366.0,897.0
50.0,-89.0,219.0,151.0,58.0,36.0,152.0,-376.0,910.0
46.0,-90.0,226.0,168.0,47.0,40.0,147.0,-378.0,925.0
48.0,-92.0,227.0,176.0,35.0,48.0,149.0,-371.0,930.0
49.0,-88.0,226.0,175.0,27.0,57.0,145.0,-376.0,940.0
45.0,-91.0,231.0,159.0,19.0,62.0,146.0,-373.0,947.0
48.0,-87.0,232.0,141.0,13.0,63.0,152.0,-380.0,953.0
51.0,-91.0,235.0,124.0,3.0,65.0,163.0,-388.0,951.0
52.0,-93.0,235.0,110.0,-5.0,60.0,160.0,-388.0,959.0
55.0,-92.0,233.0,99.0,-13.0,58.0,173.0,-397.0,956.0
55.0,-96.0,230.0,86.0,-18.0,61.0,176.0,-401.0,950.0
55.0,-96.0,234.0,77.0,-19.0,63.0,176.0,-408.0,944.0
52.0,-97.0,231.0,61.0,-19.0,57.0,170.0,-413.0,946.0
55.0,-99.0,227.0,41.0,-22.0,50.0,176.0,-414.0,945.0
53.0,-99.0,227.0,27.0,-23.0,45.0,173.0,-419.0,936.0
54.0,-101.0,228.0,21.0,-26.0,39.0,178.0,-409.0,941.0
55.0,-99.0,225.0,22.0,-24.0,36.0,180.0,-409.0,929.0
55.0,-100.0,224.0,27.0,-23.0,35.0,170.0,-415.0,920.0
51.0,-98.0,220.0,31.0,-21.0,30.0,171.0,-415.0,918.0
50.0,-97.0,222.0,38.0,-17.0,26.0,172.0,-419.0,898.0
52.0,-104.0,218.0,45.0,-10.0,21.0,170.0,-423.0,899.0
52.0,-100.0,212.0,55.0,-4.0,16.0,171.0,-419.0,887.0
53.0,-103.0,214.0,65.0,4.0,13.0,162.0,-419.0,879.0
51.0,-101.0,210.0,73.0,10.0,6.0,165.0,-416.0,874.0
49.0,-100.0,211.0,79.0,14.0,2.0,164.0,-418.0,878.0
52.0,-99.0,209.0,84.0,18.0,-3.0,161.0,-420.0,868.0
48.0,-98.0,211.0,87.0,20.0,-11.0,157.0,-420.0,860.0
51.0,-103.0,211.0,88.0,21.0,-16.0,162.0,-416.0,864.0
51.0,-100.0,207.0,86.0,23.0,-20.0,157.0,-425.0,862.0
49.0,-102.0,213.0,84.0,25.0,-24.0,164.0,-426.0,863.0
51.0,-105.0,209.0,82.0,25.0,-27.0,157.0,-431.0,864.0
51.0,-103.0,207.0,79.0,26.0,-30.0,164.0,-441.0,860.0
51.0,-105.0,208.0,78.0,26.0,-31.0,167.0,-447.0,861.0
51.0,-107.0,205.0,82.0,28.0,-33.0,170.0,-442.0,850.0
50.0,-112.0,204.0,86.0,30.0,-37.0,165.0,-445.0,851.0
50.0,-105.0,208.0,90.0,31.0,-38.0,164.0,-443.0,849.0
50.0,-107.0,204.0,92.0,33.0,-38.0,163.0,-444.0,851.0
52.0,-106.0,209.0,97.0,35.0,-40.0,168.0,-441.0,858.0
51.0,-108.0,207.0,102.0,36.0,-41.0,164.0,-441.0,851.0
52.0,-107.0,205.0,105.0,40.0,-42.0,162.0,-449.0,845.0
47.0,-104.0,205.0,107.0,42.0,-41.0,160.0,-451.0,848.0
54.0,-110.0,206.0,107.0,45.0,-38.0,161.0,-450.0,846.0
53.0,-111.0,207.0,105.0,47.0,-35.0,154.0,-454.0,856.0
49.0,-110.0,209.0,101.0,49.0,-34.0,164.0,-454.0,855.0
46.0,-113.0,208.0,94.0,51.0,-33.0,158.0,-462.0,851.0
48.0,-111.0,208.0,86.0,52.0,-27.0,160.0,-458.0,861.0
49.0,-109.0,206.0,74.0,54.0,-22.0,159.0,-456.0,854.0
47.0,-111.0,207.0,66.0,54.0,-18.0,154.0,-455.0,857.0
51.0,-111.0,209.0,54.0,55.0,-14.0,153.0,-457.0,870.0
51.0,-111.0,208.0,45.0,56.0,-12.0,159.0,-455.0,859.0
46.0,-111.0,210.0,39.0,57.0,-9.0,152.0,-455.0,868.0
48.0,-110.0,208.0,31.0,55.0,-7.0,149.0,-452.0,865.0
45.0,-110.0,210.0,29.0,53.0,-7.0,148.0,-454.0,855.0
48.0,-108.0,211.0,26.0,52.0,-4.0,147.0,-454.0,860.0
41.0,-107.0,207.0,28.0,48.0,-3.0,139.0,-454.0,861.0
42.0,-110.0,210.0,28.0,44.0,-3.0,140.0,-456.0,859.0
45.0,-112.0,207.0,30.0,39.0,-1.0,137.0,-457.0,862.0
44.0,-108.0,209.0,32.0,34.0,-2.0,133.0,-455.0,859.0
41.0,-108.0,207.0,37.0,31.0,-4.0,139.0,-453.0,854.0
42.0,-108.0,210.0,40.0,24.0,-5.0,130.0,-455.0,852.0
42.0,-107.0,208.0,42.0,21.0,-7.0,134.0,-454.0,857.0
40.0,-110.0,204.0,45.0,17.0,-7.0,135.0,-449.0,861.0
45.0,-107.0,208.0,45.0,10.0,-8.0,121.0,-452.0,857.0
40.0,-110.0,205.0,48.0,6.0,-8.0,130.0,-448.0,858.0
38.0,-105.0,211.0,48.0,0.0,-8.0,125.0,-444.0,859.0
40.0,-109.0,208.0,46.0,-5.0,-10.0,130.0,-445.0,860.0
42.0,-104.0,210.0,43.0,-11.0,-9.0,130.0,-444.0,860.0
41.0,-103.0,208.0,39.0,-17.0,-8.0,133.0,-439.0,858.0
41.0,-107.0,209.0,35.0,-22.0,-8.0,130.0,-444.0,860.0
39.0,-104.0,207.0,29.0,-27.0,-7.0,127.0,-437.0,863.0
40.0,-104.0,209.0,26.0,-32.0,-5.0,130.0,-441.0,867.0
42.0,-105.0,211.0,24.0,-37.0,-4.0,132.0,-432.0,870.0
39.0,-105.0,213.0,23.0,-38.0,-4.0,136.0,-434.0,874.0
42.0,-103.0,215.0,24.0,-41.0,-2.0,134.0,-427.0,881.0
41.0,-101.0,216.0,22.0,-41.0,1.0,133.0,-430.0,883.0
46.0,-103.0,215.0,27.0,-42.0,4.0,139.0,-422.0,889.0
46.0,-100.0,211.0,30.0,-41.0,5.0,130.0,-421.0,883.0
45.0,-101.0,215.0,34.0,-41.0,8.0,138.0,-420.0,891.0
40.0,-98.0,217.0,39.0,-40.0,9.0,138.0,-420.0,885.0
48.0,-101.0,213.0,44.0,-38.0,11.0,137.0,-420.0,886.0
43.0,-98.0,216.0,50.0,-33.0,12.0,138.0,-418.0,886.0
42.0,-94.0,212.0,56.0,-29.0,14.0,140.0,-419.0,887.0
43.0,-98.0,216.0,58.0,-24.0,14.0,143.0,-412.0,883.0
43.0,-97.0,212.0,63.0,-18.0,16.0,145.0,-414.0,880.0
46.0,-99.0,216.0,70.0,-13.0,19.0,142.0,-409.0,885.0
46.0,-100.0,218.0,74.0,-9.0,20.0,147.0,-415.0,884.0
45.0,-98.0,221.0,82.0,-4.0,25.0,149.0,-403.0,888.0
42.0,-98.0,210.0,92.0,1.0,32.0,150.0,-406.0,885.0
48.0,-93.0,211.0,110.0,2.0,50.0,166.0,-370.0,885.0
37.0,-106.0,213.0,128.0,10.0,65.0,120.0,-443.0,879.0
38.0,-97.0,218.0,108.0,13.0,38.0,111.0,-423.0,887.0
41.0,-96.0,218.0,93.0,19.0,28.0,132.0,-416.0,892.0
43.0,-95.0,218.0,90.0,23.0,27.0,142.0,-405.0,897.0
45.0,-96.0,218.0,89.0,22.0,29.0,142.0,-403.0,899.0
44.0,-97.0,217.0,89.0,22.0,26.0,147.0,-412.0,886.0
45.0,-98.0,221.0,88.0,23.0,24.0,144.0,-405.0,894.0
48.0,-96.0,218.0,92.0,23.0,21.0,145.0,-403.0,886.0
46.0,-99.0,213.0,93.0,21.0,19.0,147.0,-408.0,898.0
46.0,-94.0,218.0,90.0,18.0,18.0,149.0,-406.0,892.0
47.0,-96.0,220.0,87.0,14.0,14.0,147.0,-405.0,895.0
50.0,-98.0,218.0,83.0,13.0,13.0,145.0,-400.0,887.0
46.0,-95.0,218.0,75.0,8.0,13.0,144.0,-410.0,891.0
47.0,-99.0,217.0,69.0,3.0,4.0,146.0,-407.0,891.0
50.0,-101.0,217.0,67.0,-1.0,2.0,154.0,-410.0,884.0
48.0,-98.0,219.0,58.0,-5.0,7.0,157.0,-404.0,884.0
51.0,-102.0,215.0,45.0,-9.0,7.0,153.0,-411.0,893.0
48.0,-97.0,213.0,50.0,-4.0,3.0,152.0,-418.0,885.0
46.0,-98.0,213.0,57.0,2.0,2.0,153.0,-415.0,884.0
54.0,-101.0,216.0,54.0,2.0,0.0,148.0,-418.0,887.0
49.0,-94.0,214.0,52.0,1.0,-2.0,154.0,-414.0,885.0
50.0,-101.0,214.0,55.0,3.0,-1.0,153.0,-418.0,886.0
47.0,-98.0,213.0,59.0,5.0,-4.0,149.0,-410.0,879.0
49.0,-100.0,212.0,55.0,6.0,-4.0,148.0,-417.0,879.0
48.0,-100.0,218.0,50.0,5.0,-6.0,154.0,-419.0,880.0
50.0,-102.0,214.0,52.0,8.0,-7.0,153.0,-424.0,875.0
52.0,-102.0,214.0,53.0,11.0,-8.0,154.0,-421.0,879.0
47.0,-99.0,215.0,54.0,14.0,-7.0,153.0,-418.0,884.0
45.0,-96.0,216.0,53.0,16.0,-8.0,146.0,-419.0,878.0
45.0,-100.0,212.0,49.0,17.0,-7.0,149.0,-426.0,877.0
47.0,-105.0,215.0,41.0,15.0,-8.0,153.0,-423.0,880.0
47.0,-103.0,216.0,37.0,15.0,-9.0,145.0,-427.0,881.0
44.0,-101.0,214.0,34.0,16.0,-8.0,149.0,-426.0,882.0
49.0,-103.0,214.0,33.0,17.0,-8.0,152.0,-426.0,887.0
46.0,-101.0,213.0,33.0,19.0,-8.0,143.0,-429.0,878.0
47.0,-102.0,218.0,9.0,-6.0,-22.0,140.0,-416.0,882.0
49.0,-105.0,214.0,-18.0,-30.0,-17.0,157.0,-422.0,871.0
50.0,-105.0,213.0,-12.0,-26.0,-15.0,160.0,-430.0,879.0
54.0,-105.0,218.0,4.0,-9.0,-14.0,150.0,-438.0,881.0
45.0,-101.0,212.0,20.0,6.0,-10.0,155.0,-436.0,875.0
49.0,-103.0,216.0,34.0,16.0,-10.0,151.0,-435.0,874.0
47.0,-101.0,215.0,43.0,20.0,-9.0,154.0,-434.0,870.0
48.0,-106.0,214.0,48.0,22.0,-7.0,151.0,-431.0,880.0
50.0,-103.0,213.0,50.0,21.0,-6.0,151.0,-430.0,870.0
46.0,-103.0,212.0,48.0,17.0,-5.0,151.0,-430.0,864.0
48.0,-106.0,209.0,45.0,16.0,-6.0,148.0,-433.0,872.0
49.0,-105.0,210.0,46.0,18.0,-8.0,153.0,-441.0,871.0
47.0,-105.0,213.0,47.0,16.0,-9.0,154.0,-443.0,871.0
47.0,-103.0,212.0,49.0,14.0,-9.0,153.0,-433.0,866.0
50.0,-104.0,212.0,49.0,10.0,-8.0,149.0,-432.0,873.0
47.0,-103.0,212.0,49.0,9.0,-9.0,153.0,-438.0,868.0
45.0,-102.0,214.0,49.0,9.0,-7.0,150.0,-426.0,867.0
47.0,-107.0,214.0,46.0,6.0,-7.0,150.0,-440.0,875.0
45.0,-104.0,214.0,43.0,3.0,-9.0,148.0,-436.0,872.0
48.0,-104.0,212.0,43.0,5.0,-9.0,151.0,-436.0,878.0
48.0,-107.0,215.0,41.0,3.0,-13.0,151.0,-434.0,875.0
48.0,-105.0,211.0,40.0,2.0,-11.0,149.0,-431.0,881.0
47.0,-105.0,215.0,39.0,0.0,-13.0,151.0,-433.0,879.0
47.0,-103.0,214.0,37.0,1.0,-15.0,148.0,-430.0,873.0
45.0,-101.0,214.0,39.0,2.0,-14.0,148.0,-431.0,868.0
49.0,-106.0,214.0,41.0,3.0,-12.0,148.0,-434.0,874.0
46.0,-103.0,216.0,44.0,3.0,-12.0,146.0,-431.0,876.0
49.0,-105.0,214.0,46.0,5.0,-12.0,147.0,-423.0,877.0
46.0,-101.0,217.0,48.0,4.0,-12.0,146.0,-426.0,874.0
43.0,-106.0,220.0,49.0,4.0,-9.0,151.0,-430.0,878.0
44.0,-104.0,213.0,52.0,5.0,-9.0,151.0,-429.0,881.0
48.0,-103.0,211.0,53.0,6.0,-8.0,149.0,-427.0,881.0
47.0,-102.0,213.0,54.0,8.0,-7.0,151.0,-429.0,887.0
47.0,-102.0,212.0,57.0,8.0,-5.0,148.0,-427.0,878.0
45.0,-102.0,214.0,58.0,7.0,-7.0,142.0,-429.0,880.0
44.0,-102.0,215.0,58.0,7.0,-7.0,146.0,-424.0,880.0
45.0,-99.0,210.0,59.0,8.0,-5.0,142.0,-423.0,879.0
45.0,-102.0,219.0,59.0,7.0,-5.0,143.0,-424.0,876.0
46.0,-98.0,212.0,59.0,6.0,-5.0,145.0,-424.0,882.0
49.0,-100.0,208.0,58.0,7.0,-4.0,143.0,-422.0,883.0
44.0,-101.0,218.0,58.0,5.0,-4.0,148.0,-422.0,881.0
44.0,-99.0,212.0,56.0,5.0,-5.0,146.0,-419.0,880.0
44.0,-99.0,214.0,55.0,6.0,-6.0,150.0,-421.0,883.0
45.0,-99.0,216.0,56.0,6.0,-5.0,147.0,-418.0,879.0
44.0,-99.0,209.0,53.0,6.0,-4.0,150.0,-423.0,880.0
46.0,-99.0,211.0,50.0,7.0,-3.0,147.0,-411.0,879.0
46.0,-98.0,216.0,47.0,8.0,-3.0,143.0,-416.0,873.0
47.0,-98.0,217.0,42.0,7.0,-1.0,148.0,-410.0,882.0
48.0,-100.0,212.0,39.0,10.0,1.0,148.0,-415.0,886.0
44.0,-99.0,214.0,37.0,12.0,1.0,147.0,-421.0,890.0
48.0,-100.0,214.0,35.0,14.0,0.0,144.0,-422.0,884.0
46.0,-100.0,214.0,35.0,15.0,0.0,147.0,-424.0,888.0
47.0,-100.0,215.0,34.0,16.0,-2.0,150.0,-423.0,879.0
49.0,-103.0,215.0,34.0,16.0,-3.0,149.0,-425.0,883.0
47.0,-101.0,211.0,36.0,17.0,-4.0,147.0,-421.0,879.0
44.0,-98.0,214.0,37.0,16.0,-6.0,148.0,-425.0,881.0
44.0,-99.0,213.0,39.0,16.0,-8.0,149.0,-426.0,877.0
44.0,-97.0,213.0,43.0,15.0,-8.0,147.0,-424.0,879.0
51.0,-104.0,216.0,48.0,16.0,-9.0,149.0,-418.0,877.0
45.0,-101.0,211.0,53.0,16.0,-8.0,146.0,-425.0,872.0
44.0,-97.0,216.0,57.0,16.0,-10.0,147.0,-421.0,874.0
41.0,-100.0,214.0,61.0,18.0,-11.0,148.0,-422.0,874.0
46.0,-101.0,215.0,63.0,17.0,-10.0,146.0,-422.0,877.0
45.0,-104.0,214.0,65.0,18.0,-9.0,139.0,-420.0,878.0
44.0,-104.0,214.0,66.0,20.0,-10.0,138.0,-421.0,883.0
44.0,-101.0,210.0,63.0,20.0,-11.0,142.0,-427.0,887.0
43.0,-101.0,213.0,58.0,20.0,-11.0,143.0,-429.0,884.0
45.0,-101.0,220.0,53.0,18.0,-10.0,146.0,-427.0,887.0
45.0,-102.0,213.0,49.0,17.0,-10.0,143.0,-431.0,884.0
45.0,-106.0,214.0,44.0,16.0,-10.0,144.0,-433.0,885.0
44.0,-105.0,212.0,41.0,16.0,-10.0,142.0,-440.0,889.0
45.0,-103.0,214.0,40.0,15.0,-10.0,141.0,-438.0,880.0
45.0,-104.0,210.0,41.0,15.0,-11.0,143.0,-431.0,878.0
45.0,-101.0,215.0,42.0,14.0,-10.0,145.0,-433.0,874.0
43.0,-100.0,217.0,44.0,14.0,-11.0,140.0,-428.0,880.0
47.0,-101.0,214.0,45.0,15.0,-13.0,147.0,-427.0,879.0
49.0,-102.0,214.0,48.0,15.0,-11.0,148.0,-427.0,869.0
45.0,-103.0,217.0,47.0,15.0,-12.0,149.0,-426.0,877.0
45.0,-103.0,216.0,48.0,16.0,-11.0,149.0,-426.0,879.0
46.0,-104.0,212.0,45.0,18.0,-10.0,149.0,-422.0,872.0
46.0,-106.0,217.0,42.0,20.0,-7.0,147.0,-425.0,871.0
46.0,-103.0,216.0,40.0,22.0,-6.0,152.0,-430.0,874.0
47.0,-99.0,207.0,36.0,22.0,-6.0,148.0,-426.0,870.0
44.0,-102.0,207.0,34.0,22.0,-4.0,150.0,-433.0,873.0
51.0,-103.0,215.0,31.0,23.0,-3.0,153.0,-428.0,873.0
47.0,-102.0,211.0,28.0,22.0,-3.0,156.0,-428.0,872.0
48.0,-101.0,213.0,27.0,23.0,-5.0,152.0,-431.0,873.0
46.0,-103.0,213.0,27.0,23.0,-4.0,151.0,-431.0,878.0
48.0,-103.0,213.0,28.0,23.0,-4.0,151.0,-427.0,877.0
50.0,-103.0,215.0,28.0,23.0,-5.0,159.0,-428.0,880.0
48.0,-102.0,206.0,30.0,22.0,-6.0,153.0,-428.0,875.0
47.0,-103.0,210.0,31.0,22.0,-8.0,153.0,-427.0,873.0
46.0,-100.0,212.0,33.0,21.0,-9.0,152.0,-430.0,873.0
52.0,-101.0,209.0,33.0,19.0,-10.0,152.0,-429.0,876.0
42.0,-95.0,212.0,35.0,17.0,-11.0,149.0,-427.0,882.0
49.0,-99.0,210.0,38.0,16.0,-10.0,150.0,-424.0,875.0
46.0,-101.0,212.0,37.0,15.0,-12.0,151.0,-426.0,876.0
49.0,-103.0,212.0,36.0,15.0,-12.0,152.0,-423.0,875.0
47.0,-100.0,208.0,35.0,15.0,-13.0,147.0,-420.0,886.0
47.0,-101.0,214.0,34.0,15.0,-15.0,149.0,-425.0,882.0
43.0,-101.0,214.0,31.0,16.0,-14.0,151.0,-426.0,878.0
44.0,-97.0,210.0,31.0,15.0,-16.0,152.0,-425.0,881.0
46.0,-101.0,214.0,27.0,16.0,-15.0,148.0,-424.0,888.0
45.0,-101.0,214.0,26.0,17.0,-17.0,146.0,-427.0,878.0
47.0,-102.0,214.0,24.0,17.0,-15.0,149.0,-428.0,879.0
46.0,-102.0,214.0,20.0,16.0,-15.0,148.0,-424.0,885.0
47.0,-103.0,216.0,19.0,16.0,-16.0,150.0,-429.0,882.0
47.0,-102.0,210.0,18.0,16.0,-16.0,152.0,-427.0,883.0
48.0,-105.0,211.0,17.0,16.0,-16.0,153.0,-429.0,876.0
48.0,-102.0,213.0,17.0,16.0,-16.0,145.0,-427.0,880.0
47.0,-103.0,215.0,18.0,16.0,-17.0,150.0,-438.0,879.0
45.0,-102.0,215.0,19.0,17.0,-16.0,145.0,-430.0,872.0
44.0,-103.0,216.0,19.0,15.0,-15.0,150.0,-429.0,878.0
46.0,-104.0,213.0,19.0,15.0,-16.0,147.0,-425.0,879.0
44.0,-98.0,212.0,20.0,15.0,-16.0,143.0,-424.0,868.0
48.0,-102.0,213.0,23.0,14.0,-15.0,148.0,-423.0,868.0
42.0,-100.0,211.0,24.0,13.0,-14.0,149.0,-427.0,878.0
46.0,-102.0,210.0,26.0,13.0,-13.0,149.0,-425.0,867.0
46.0,-101.0,211.0,29.0,10.0,-16.0,148.0,-428.0,868.0
46.0,-101.0,210.0,31.0,9.0,-18.0,147.0,-427.0,870.0
45.0,-100.0,209.0,32.0,10.0,-18.0,147.0,-425.0,871.0
44.0,-104.0,212.0,34.0,9.0,-18.0,150.0,-433.0,863.0
43.0,-101.0,208.0,32.0,9.0,-18.0,146.0,-433.0,859.0
44.0,-101.0,210.0,33.0,9.0,-19.0,144.0,-434.0,872.0
47.0,-104.0,210.0,32.0,9.0,-20.0,148.0,-434.0,877.0
47.0,-104.0,215.0,32.0,8.0,-18.0,145.0,-432.0,874.0
46.0,-105.0,214.0,31.0,8.0,-17.0,145.0,-436.0,882.0
44.0,-100.0,207.0,29.0,8.0,-17.0,144.0,-433.0,875.0
46.0,-105.0,209.0,27.0,10.0,-16.0,145.0,-431.0,880.0
46.0,-102.0,210.0,28.0,11.0,-18.0,139.0,-434.0,879.0
43.0,-101.0,213.0,27.0,12.0,-17.0,143.0,-429.0,872.0
47.0,-107.0,217.0,27.0,13.0,-15.0,145.0,-433.0,881.0
47.0,-105.0,215.0,28.0,15.0,-16.0,142.0,-436.0,886.0
49.0,-107.0,215.0,28.0,18.0,-14.0,143.0,-438.0,879.0
45.0,-100.0,212.0,26.0,18.0,-13.0,140.0,-441.0,889.0
46.0,-105.0,212.0,27.0,18.0,-15.0,149.0,-435.0,880.0
43.0,-106.0,209.0,26.0,19.0,-13.0,142.0,-435.0,881.0
43.0,-105.0,212.0,26.0,19.0,-13.0,153.0,-437.0,880.0
45.0,-103.0,214.0,25.0,20.0,-13.0,144.0,-435.0,880.0
48.0,-105.0,211.0,24.0,20.0,-14.0,144.0,-434.0,878.0
46.0,-102.0,212.0,25.0,19.0,-14.0,142.0,-435.0,877.0
44.0,-103.0,210.0,26.0,21.0,-13.0,145.0,-430.0,876.0
45.0,-102.0,212.0,26.0,21.0,-13.0,147.0,-431.0,869.0
46.0,-102.0,211.0,25.0,22.0,-13.0,149.0,-428.0,869.0
46.0,-104.0,215.0,25.0,22.0,-13.0,148.0,-430.0,875.0
46.0,-101.0,212.0,26.0,23.0,-12.0,146.0,-429.0,870.0
51.0,-104.0,215.0,25.0,23.0,-12.0,146.0,-429.0,868.0
48.0,-107.0,211.0,26.0,26.0,-12.0,153.0,-432.0,866.0
50.0,-104.0,216.0,26.0,25.0,-12.0,145.0,-430.0,872.0
47.0,-104.0,208.0,26.0,27.0,-14.0,148.0,-432.0,865.0
46.0,-107.0,210.0,28.0,26.0,-15.0,146.0,-426.0,871.0
45.0,-104.0,213.0,29.0,26.0,-15.0,149.0,-429.0,870.0
47.0,-106.0,210.0,30.0,26.0,-15.0,145.0,-431.0,869.0
45.0,-102.0,213.0,31.0,26.0,-17.0,143.0,-434.0,873.0
50.0,-106.0,210.0,31.0,27.0,-18.0,145.0,-427.0,870.0
44.0,-101.0,211.0,33.0,28.0,-19.0,144.0,-430.0,875.0
43.0,-105.0,209.0,34.0,28.0,-17.0,146.0,-441.0,876.0
47.0,-103.0,213.0,36.0,29.0,-17.0,149.0,-434.0,869.0
44.0,-102.0,213.0,38.0,31.0,-16.0,144.0,-431.0,878.0
43.0,-104.0,211.0,39.0,32.0,-14.0,142.0,-430.0,875.0
47.0,-105.0,215.0,40.0,32.0,-14.0,143.0,-435.0,869.0
47.0,-103.0,214.0,42.0,32.0,-13.0,151.0,-431.0,874.0
47.0,-104.0,212.0,44.0,33.0,-12.0,147.0,-430.0,875.0
45.0,-101.0,211.0,44.0,32.0,-10.0,148.0,-434.0,872.0
46.0,-103.0,213.0,47.0,30.0,-9.0,150.0,-440.0,878.0
46.0,-103.0,212.0,46.0,27.0,-9.0,147.0,-438.0,874.0
47.0,-104.0,212.0,48.0,25.0,-9.0,149.0,-436.0,876.0
46.0,-102.0,214.0,48.0,22.0,-10.0,147.0,-441.0,870.0
45.0,-106.0,210.0,49.0,19.0,-11.0,142.0,-435.0,866.0
44.0,-101.0,210.0,47.0,18.0,-12.0,150.0,-436.0,875.0
46.0,-101.0,209.0,47.0,16.0,-12.0,148.0,-438.0,867.0
47.0,-103.0,211.0,47.0,13.0,-14.0,147.0,-440.0,867.0
46.0,-103.0,210.0,46.0,9.0,-13.0,144.0,-430.0,875.0
47.0,-104.0,210.0,44.0,8.0,-14.0,149.0,-440.0,875.0
44.0,-101.0,210.0,43.0,6.0,-13.0,147.0,-437.0,869.0
48.0,-102.0,213.0,42.0,6.0,-15.0,144.0,-439.0,878.0
47.0,-102.0,214.0,41.0,5.0,-16.0,148.0,-436.0,879.0
48.0,-103.0,212.0,39.0,5.0,-16.0,144.0,-436.0,873.0
48.0,-107.0,212.0,39.0,1.0,-16.0,148.0,-440.0,870.0
46.0,-104.0,214.0,37.0,2.0,-17.0,150.0,-437.0,874.0
44.0,-101.0,215.0,37.0,0.0,-17.0,149.0,-433.0,878.0
45.0,-102.0,214.0,38.0,1.0,-18.0,147.0,-427.0,871.0
47.0,-104.0,213.0,37.0,1.0,-18.0,143.0,-433.0,878.0
45.0,-100.0,213.0,37.0,1.0,-17.0,149.0,-435.0,871.0
47.0,-107.0,214.0,35.0,2.0,-18.0,147.0,-437.0,874.0
46.0,-104.0,213.0,36.0,4.0,-16.0,147.0,-440.0,868.0
45.0,-101.0,214.0,36.0,4.0,-15.0,150.0,-433.0,875.0
46.0,-103.0,215.0,36.0,4.0,-15.0,147.0,-438.0,879.0
46.0,-102.0,211.0,39.0,5.0,-16.0,139.0,-434.0,880.0
43.0,-104.0,212.0,38.0,7.0,-14.0,140.0,-433.0,864.0
44.0,-108.0,212.0,37.0,6.0,-14.0,140.0,-434.0,874.0
45.0,-106.0,210.0,35.0,4.0,-16.0,144.0,-436.0,871.0
44.0,-103.0,206.0,34.0,3.0,-15.0,148.0,-435.0,877.0
46.0,-105.0,213.0,34.0,4.0,-13.0,146.0,-438.0,878.0
45.0,-105.0,211.0,33.0,3.0,-12.0,148.0,-438.0,867.0
46.0,-106.0,215.0,32.0,3.0,-13.0,146.0,-434.0,871.0
45.0,-102.0,211.0,33.0,4.0,-12.0,147.0,-436.0,874.0
48.0,-105.0,214.0,33.0,4.0,-12.0,151.0,-431.0,873.0
45.0,-105.0,217.0,32.0,4.0,-12.0,150.0,-435.0,873.0
47.0,-105.0,211.0,32.0,4.0,-11.0,149.0,-437.0,871.0
47.0,-104.0,210.0,32.0,4.0,-11.0,147.0,-434.0,868.0
46.0,-105.0,210.0,29.0,5.0,-9.0,156.0,-434.0,868.0
46.0,-101.0,210.0,28.0,5.0,-11.0,150.0,-432.0,874.0
51.0,-105.0,221.0,26.0,6.0,-11.0,147.0,-434.0,868.0
46.0,-105.0,212.0,26.0,7.0,-9.0,149.0,-429.0,875.0
48.0,-105.0,210.0,25.0,9.0,-11.0,151.0,-436.0,867.0
47.0,-102.0,212.0,25.0,10.0,-11.0,152.0,-441.0,873.0
46.0,-105.0,214.0,25.0,8.0,-9.0,144.0,-438.0,868.0
48.0,-106.0,208.0,26.0,9.0,-12.0,149.0,-432.0,871.0
44.0,-103.0,209.0,26.0,10.0,-13.0,147.0,-435.0,868.0
45.0,-106.0,215.0,30.0,11.0,-12.0,147.0,-433.0,872.0
47.0,-102.0,212.0,33.0,12.0,-14.0,147.0,-428.0,879.0
47.0,-103.0,209.0,38.0,13.0,-14.0,147.0,-433.0,865.0
49.0,-105.0,212.0,43.0,15.0,-15.0,142.0,-430.0,864.0
41.0,-101.0,204.0,49.0,15.0,-16.0,147.0,-435.0,865.0
47.0,-105.0,208.0,57.0,16.0,-14.0,143.0,-429.0,867.0
43.0,-103.0,208.0,63.0,17.0,-13.0,145.0,-437.0,857.0
44.0,-104.0,211.0,70.0,16.0,-13.0,147.0,-436.0,863.0
45.0,-104.0,209.0,72.0,15.0,-14.0,143.0,-431.0,862.0
45.0,-106.0,206.0,73.0,14.0,-13.0,143.0,-434.0,864.0
47.0,-104.0,209.0,70.0,12.0,-14.0,143.0,-441.0,862.0
47.0,-109.0,211.0,67.0,13.0,-15.0,147.0,-435.0,865.0
43.0,-103.0,208.0,61.0,10.0,-15.0,145.0,-435.0,865.0
42.0,-101.0,208.0,53.0,9.0,-16.0,146.0,-441.0,876.0
47.0,-107.0,214.0,47.0,7.0,-15.0,147.0,-445.0,869.0
41.0,-105.0,208.0,39.0,4.0,-16.0,148.0,-439.0,875.0
49.0,-110.0,212.0,34.0,2.0,-16.0,148.0,-444.0,880.0
46.0,-108.0,218.0,30.0,5.0,-16.0,150.0,-447.0,876.0
42.0,-105.0,212.0,30.0,5.0,-15.0,150.0,-446.0,883.0
45.0,-108.0,212.0,32.0,5.0,-17.0,147.0,-444.0,881.0
48.0,-108.0,216.0,34.0,6.0,-18.0,149.0,-443.0,874.0
46.0,-108.0,216.0,37.0,6.0,-18.0,146.0,-438.0,879.0
50.0,-103.0,215.0,40.0,6.0,-17.0,145.0,-434.0,878.0
48.0,-105.0,214.0,43.0,7.0,-16.0,150.0,-432.0,872.0
48.0,-104.0,213.0,44.0,8.0,-17.0,149.0,-437.0,867.0
49.0,-104.0,210.0,46.0,10.0,-16.0,149.0,-436.0,867.0
46.0,-102.0,212.0,46.0,12.0,-14.0,150.0,-436.0,865.0
47.0,-105.0,214.0,46.0,14.0,-13.0,151.0,-437.0,868.0
47.0,-104.0,211.0,46.0,17.0,-14.0,151.0,-433.0,868.0
47.0,-103.0,209.0,46.0,19.0,-11.0,151.0,-438.0,869.0
45.0,-103.0,212.0,47.0,21.0,-11.0,153.0,-438.0,873.0
46.0,-104.0,211.0,48.0,21.0,-9.0,150.0,-436.0,870.0
46.0,-107.0,214.0,49.0,21.0,-12.0,148.0,-433.0,874.0
48.0,-104.0,214.0,49.0,21.0,-12.0,148.0,-435.0,870.0
45.0,-99.0,209.0,50.0,20.0,-14.0,149.0,-432.0,877.0
48.0,-108.0,209.0,53.0,19.0,-14.0,146.0,-431.0,871.0
46.0,-104.0,208.0,55.0,19.0,-14.0,145.0,-431.0,865.0
45.0,-104.0,211.0,56.0,17.0,-14.0,147.0,-430.0,869.0
46.0,-101.0,210.0,56.0,15.0,-16.0,148.0,-428.0,874.0
45.0,-100.0,215.0,54.0,14.0,-17.0,148.0,-428.0,866.0
45.0,-101.0,211.0,55.0,12.0,-17.0,145.0,-424.0,866.0
48.0,-100.0,212.0,54.0,13.0,-17.0,150.0,-429.0,873.0
45.0,-103.0,214.0,56.0,12.0,-15.0,146.0,-424.0,872.0
48.0,-101.0,213.0,56.0,11.0,-17.0,147.0,-429.0,873.0
44.0,-98.0,212.0,57.0,13.0,-16.0,148.0,-423.0,874.0
49.0,-103.0,213.0,58.0,13.0,-16.0,145.0,-427.0,878.0
46.0,-103.0,215.0,61.0,14.0,-15.0,141.0,-426.0,878.0
40.0,-104.0,215.0,62.0,14.0,-14.0,149.0,-429.0,868.0
45.0,-106.0,213.0,66.0,15.0,-12.0,148.0,-426.0,870.0
47.0,-100.0,209.0,67.0,15.0,-12.0,141.0,-431.0,868.0
47.0,-102.0,212.0,68.0,14.0,-12.0,143.0,-429.0,864.0
46.0,-101.0,212.0,69.0,16.0,-10.0,146.0,-434.0,870.0
43.0,-102.0,206.0,70.0,17.0,-9.0,148.0,-428.0,865.0
45.0,-103.0,210.0,71.0,17.0,-9.0,143.0,-431.0,865.0
46.0,-106.0,210.0,72.0,17.0,-8.0,147.0,-433.0,864.0
44.0,-108.0,207.0,74.0,18.0,-8.0,146.0,-431.0,863.0
46.0,-99.0,211.0,73.0,19.0,-7.0,145.0,-433.0,854.0
43.0,-102.0,212.0,75.0,19.0,-6.0,145.0,-435.0,858.0
48.0,-106.0,213.0,74.0,19.0,-3.0,147.0,-427.0,861.0
45.0,-99.0,210.0,74.0,20.0,-4.0,146.0,-427.0,864.0
50.0,-103.0,208.0,75.0,20.0,-3.0,149.0,-429.0,859.0
48.0,-103.0,207.0,74.0,21.0,-2.0,149.0,-428.0,861.0
46.0,-105.0,210.0,75.0,22.0,-1.0,148.0,-432.0,861.0
48.0,-101.0,205.0,76.0,20.0,-2.0,150.0,-435.0,867.0
44.0,-101.0,210.0,77.0,19.0,-4.0,152.0,-435.0,864.0
45.0,-107.0,208.0,75.0,18.0,-4.0,148.0,-434.0,862.0
45.0,-103.0,210.0,78.0,19.0,-7.0,148.0,-436.0,869.0
45.0,-100.0,212.0,80.0,19.0,-9.0,146.0,-439.0,868.0
45.0,-106.0,210.0,82.0,18.0,-10.0,145.0,-437.0,862.0
46.0,-108.0,213.0,86.0,19.0,-10.0,145.0,-442.0,868.0
46.0,-107.0,214.0,94.0,18.0,-12.0,145.0,-441.0,872.0
46.0,-106.0,208.0,104.0,21.0,-11.0,147.0,-440.0,874.0
47.0,-104.0,211.0,112.0,21.0,-10.0,146.0,-440.0,874.0
44.0,-102.0,210.0,123.0,23.0,-11.0,144.0,-441.0,866.0
48.0,-104.0,210.0,133.0,27.0,-9.0,146.0,-427.0,869.0
46.0,-105.0,211.0,143.0,28.0,-6.0,149.0,-437.0,866.0
42.0,-99.0,209.0,152.0,29.0,-5.0,145.0,-427.0,861.0
44.0,-106.0,210.0,159.0,29.0,-4.0,143.0,-435.0,865.0
48.0,-103.0,206.0,167.0,29.0,-4.0,146.0,-435.0,864.0
46.0,-105.0,208.0,172.0,28.0,-4.0,149.0,-429.0,859.0
44.0,-101.0,209.0,175.0,28.0,-2.0,145.0,-435.0,859.0
45.0,-103.0,208.0,174.0,25.0,-4.0,146.0,-429.0,871.0
44.0,-101.0,213.0,170.0,23.0,-3.0,142.0,-432.0,860.0
45.0,-101.0,208.0,167.0,22.0,-5.0,149.0,-429.0,868.0
47.0,-98.0,214.0,160.0,20.0,-5.0,151.0,-427.0,865.0
47.0,-102.0,214.0,151.0,18.0,-6.0,147.0,-427.0,867.0
44.0,-99.0,211.0,142.0,16.0,-6.0,148.0,-425.0,873.0
44.0,-102.0,209.0,132.0,13.0,-7.0,147.0,-423.0,878.0
43.0,-96.0,211.0,122.0,9.0,-8.0,149.0,-422.0,876.0
43.0,-96.0,212.0,112.0,4.0,-9.0,150.0,-424.0,874.0
45.0,-100.0,212.0,100.0,1.0,-11.0,148.0,-421.0,881.0
42.0,-98.0,208.0,87.0,-2.0,-11.0,149.0,-423.0,884.0
46.0,-99.0,214.0,77.0,-6.0,-14.0,149.0,-423.0,881.0
46.0,-101.0,216.0,67.0,-10.0,-13.0,148.0,-422.0,895.0
47.0,-103.0,217.0,57.0,-14.0,-14.0,145.0,-418.0,883.0
46.0,-99.0,217.0,50.0,-16.0,-15.0,145.0,-423.0,894.0
45.0,-101.0,218.0,44.0,-18.0,-16.0,144.0,-428.0,899.0
47.0,-102.0,216.0,40.0,-18.0,-15.0,147.0,-425.0,895.0
45.0,-99.0,216.0,36.0,-18.0,-16.0,145.0,-425.0,895.0
46.0,-106.0,220.0,33.0,-15.0,-13.0,141.0,-427.0,898.0
46.0,-102.0,216.0,33.0,-13.0,-13.0,146.0,-422.0,895.0
47.0,-107.0,216.0,32.0,-10.0,-13.0,149.0,-431.0,897.0
49.0,-110.0,216.0,33.0,-7.0,-14.0,147.0,-437.0,898.0
45.0,-100.0,217.0,35.0,-4.0,-11.0,144.0,-428.0,893.0
46.0,-104.0,215.0,39.0,0.0,-10.0,148.0,-430.0,889.0
43.0,-102.0,219.0,42.0,4.0,-8.0,149.0,-426.0,886.0
45.0,-101.0,215.0,46.0,8.0,-5.0,147.0,-425.0,892.0
46.0,-103.0,217.0,51.0,9.0,-5.0,149.0,-428.0,891.0
48.0,-103.0,213.0,57.0,11.0,-4.0,149.0,-426.0,881.0
46.0,-100.0,213.0,63.0,13.0,-4.0,150.0,-418.0,881.0
47.0,-99.0,212.0,68.0,12.0,-3.0,152.0,-417.0,874.0
44.0,-99.0,213.0,73.0,11.0,-2.0,148.0,-412.0,878.0
43.0,-97.0,209.0,75.0,10.0,-2.0,149.0,-412.0,865.0
48.0,-98.0,206.0,77.0,8.0,-2.0,149.0,-414.0,865.0
46.0,-97.0,211.0,76.0,6.0,-2.0,144.0,-409.0,862.0
46.0,-96.0,209.0,75.0,5.0,-4.0,148.0,-412.0,857.0
47.0,-99.0,209.0,71.0,3.0,-6.0,150.0,-414.0,865.0
47.0,-100.0,210.0,68.0,1.0,-5.0,153.0,-414.0,859.0
48.0,-101.0,210.0,65.0,0.0,-7.0,148.0,-416.0,859.0
46.0,-101.0,207.0,66.0,-1.0,-11.0,151.0,-412.0,864.0
48.0,-101.0,211.0,66.0,0.0,-14.0,153.0,-423.0,875.0
47.0,-105.0,212.0,68.0,-2.0,-16.0,150.0,-423.0,879.0
46.0,-99.0,213.0,71.0,-3.0,-15.0,153.0,-425.0,875.0
43.0,-100.0,216.0,75.0,-6.0,-18.0,154.0,-423.0,882.0
48.0,-101.0,215.0,82.0,-9.0,-22.0,153.0,-424.0,891.0
48.0,-103.0,217.0,88.0,-13.0,-25.0,148.0,-427.0,891.0
47.0,-103.0,218.0,93.0,-19.0,-27.0,148.0,-419.0,897.0
47.0,-99.0,215.0,100.0,-22.0,-29.0,147.0,-423.0,898.0
46.0,-102.0,216.0,106.0,-25.0,-30.0,147.0,-425.0,899.0
47.0,-101.0,220.0,112.0,-28.0,-32.0,148.0,-425.0,897.0
47.0,-100.0,219.0,118.0,-29.0,-32.0,146.0,-422.0,896.0
49.0,-97.0,217.0,124.0,-29.0,-34.0,150.0,-418.0,897.0
44.0,-104.0,216.0,133.0,-22.0,-27.0,154.0,-417.0,899.0
46.0,-98.0,214.0,140.0,-16.0,-27.0,140.0,-417.0,886.0
46.0,-98.0,211.0,143.0,-13.0,-30.0,137.0,-411.0,887.0
44.0,-95.0,210.0,140.0,-16.0,-33.0,144.0,-410.0,875.0
46.0,-94.0,212.0,138.0,-13.0,-29.0,153.0,-399.0,865.0
47.0,-98.0,207.0,132.0,-14.0,-30.0,149.0,-410.0,865.0
49.0,-95.0,212.0,122.0,-13.0,-32.0,152.0,-411.0,862.0
51.0,-96.0,209.0,113.0,-8.0,-29.0,163.0,-404.0,861.0
50.0,-98.0,208.0,111.0,0.0,-25.0,154.0,-409.0,860.0
50.0,-103.0,208.0,101.0,3.0,-29.0,158.0,-421.0,859.0
45.0,-95.0,215.0,88.0,-2.0,-34.0,142.0,-396.0,872.0
44.0,-93.0,210.0,89.0,-5.0,-25.0,144.0,-397.0,870.0
45.0,-92.0,213.0,88.0,-6.0,-18.0,146.0,-398.0,880.0
43.0,-93.0,214.0,82.0,-6.0,-12.0,142.0,-395.0,879.0
42.0,-95.0,213.0,73.0,-11.0,-12.0,136.0,-402.0,884.0
46.0,-100.0,215.0,65.0,-23.0,-20.0,146.0,-409.0,886.0
45.0,-100.0,214.0,54.0,-25.0,-19.0,151.0,-422.0,881.0
48.0,-104.0,218.0,48.0,-16.0,-17.0,148.0,-423.0,885.0
45.0,-102.0,214.0,45.0,-1.0,-15.0,150.0,-428.0,889.0
49.0,-102.0,216.0,47.0,8.0,-14.0,148.0,-426.0,883.0
45.0,-106.0,215.0,48.0,15.0,-14.0,144.0,-426.0,891.0
45.0,-103.0,213.0,52.0,19.0,-13.0,150.0,-427.0,887.0
44.0,-104.0,217.0,58.0,22.0,-11.0,149.0,-416.0,890.0
47.0,-99.0,217.0,62.0,23.0,-8.0,150.0,-428.0,891.0
49.0,-104.0,215.0,70.0,23.0,-8.0,150.0,-425.0,892.0
46.0,-104.0,215.0,75.0,23.0,-6.0,150.0,-422.0,891.0
46.0,-100.0,219.0,79.0,21.0,-3.0,157.0,-429.0,892.0
47.0,-103.0,215.0,83.0,23.0,-3.0,158.0,-424.0,881.0
49.0,-101.0,213.0,82.0,26.0,-1.0,155.0,-427.0,883.0
47.0,-100.0,218.0,79.0,29.0,1.0,154.0,-430.0,885.0
49.0,-102.0,213.0,75.0,31.0,3.0,157.0,-424.0,888.0
50.0,-99.0,213.0,73.0,32.0,7.0,155.0,-425.0,885.0
50.0,-100.0,211.0,72.0,34.0,9.0,155.0,-428.0,887.0
47.0,-100.0,210.0,75.0,35.0,13.0,148.0,-420.0,877.0
46.0,-102.0,212.0,76.0,34.0,12.0,144.0,-420.0,863.0
40.0,-103.0,214.0,79.0,27.0,8.0,136.0,-401.0,862.0
41.0,-100.0,210.0,81.0,17.0,1.0,154.0,-418.0,871.0
48.0,-99.0,207.0,86.0,13.0,8.0,160.0,-419.0,871.0
49.0,-95.0,210.0,96.0,16.0,9.0,154.0,-407.0,865.0
49.0,-99.0,211.0,105.0,21.0,11.0,154.0,-409.0,867.0
47.0,-98.0,212.0,112.0,20.0,13.0,154.0,-412.0,871.0
46.0,-97.0,214.0,113.0,18.0,10.0,151.0,-414.0,876.0
44.0,-96.0,210.0,114.0,16.0,9.0,150.0,-412.0,881.0
46.0,-100.0,212.0,112.0,15.0,9.0,151.0,-411.0,867.0
46.0,-95.0,210.0,112.0,6.0,4.0,144.0,-407.0,875.0
45.0,-98.0,214.0,105.0,-2.0,3.0,149.0,-400.0,882.0
44.0,-91.0,213.0,96.0,-11.0,2.0,155.0,-409.0,883.0
45.0,-94.0,216.0,87.0,-17.0,-2.0,158.0,-400.0,887.0
49.0,-96.0,214.0,74.0,-20.0,0.0,158.0,-399.0,890.0
47.0,-93.0,218.0,62.0,-22.0,1.0,157.0,-397.0,890.0
48.0,-95.0,215.0,53.0,-26.0,-8.0,148.0,-399.0,892.0
54.0,-98.0,217.0,49.0,-32.0,-10.0,163.0,-400.0,900.0
50.0,-96.0,219.0,52.0,-28.0,-7.0,157.0,-403.0,896.0
51.0,-98.0,218.0,59.0,-21.0,-8.0,163.0,-401.0,897.0
48.0,-96.0,217.0,66.0,-11.0,-10.0,157.0,-399.0,894.0
46.0,-94.0,219.0,70.0,-4.0,-7.0,158.0,-401.0,894.0
48.0,-96.0,223.0,72.0,-5.0,-7.0,157.0,-395.0,898.0
49.0,-95.0,220.0,73.0,-7.0,-8.0,154.0,-395.0,891.0
49.0,-95.0,217.0,72.0,-5.0,-7.0,156.0,-396.0,884.0
51.0,-93.0,216.0,72.0,-2.0,-4.0,161.0,-403.0,889.0
48.0,-94.0,214.0,71.0,1.0,-5.0,156.0,-393.0,894.0
51.0,-97.0,217.0,68.0,5.0,-6.0,156.0,-398.0,891.0
48.0,-95.0,217.0,67.0,9.0,-6.0,159.0,-397.0,896.0
48.0,-94.0,218.0,66.0,13.0,-1.0,154.0,-397.0,896.0
48.0,-94.0,217.0,64.0,15.0,-2.0,150.0,-405.0,891.0
48.0,-95.0,220.0,63.0,18.0,-3.0,153.0,-408.0,896.0
48.0,-95.0,214.0,64.0,21.0,-4.0,152.0,-407.0,892.0
51.0,-95.0,213.0,64.0,23.0,-2.0,151.0,-405.0,886.0
45.0,-94.0,219.0,63.0,25.0,-2.0,153.0,-406.0,896.0
51.0,-101.0,215.0,62.0,23.0,-2.0,153.0,-405.0,887.0
46.0,-97.0,214.0,62.0,23.0,-5.0,151.0,-407.0,896.0
46.0,-96.0,215.0,61.0,22.0,-4.0,152.0,-410.0,888.0
46.0,-98.0,219.0,59.0,19.0,-3.0,159.0,-403.0,883.0
50.0,-99.0,215.0,59.0,18.0,-6.0,153.0,-401.0,895.0
49.0,-96.0,216.0,59.0,16.0,-4.0,154.0,-402.0,887.0
47.0,-96.0,218.0,61.0,19.0,-2.0,151.0,-405.0,887.0
48.0,-96.0,214.0,64.0,22.0,-1.0,150.0,-396.0,883.0
47.0,-95.0,216.0,68.0,26.0,2.0,148.0,-399.0,878.0
49.0,-100.0,216.0,73.0,31.0,5.0,148.0,-407.0,882.0
46.0,-99.0,214.0,79.0,37.0,6.0,145.0,-408.0,882.0
45.0,-96.0,213.0,84.0,44.0,6.0,147.0,-409.0,876.0
46.0,-97.0,213.0,88.0,49.0,4.0,149.0,-402.0,883.0
45.0,-95.0,213.0,89.0,51.0,2.0,151.0,-410.0,874.0
51.0,-98.0,211.0,89.0,50.0,3.0,155.0,-409.0,882.0
48.0,-99.0,214.0,93.0,48.0,4.0,149.0,-414.0,872.0
49.0,-99.0,216.0,97.0,44.0,2.0,157.0,-408.0,875.0
48.0,-100.0,214.0,105.0,37.0,-1.0,151.0,-414.0,875.0
48.0,-97.0,209.0,114.0,31.0,-5.0,143.0,-406.0,873.0
51.0,-95.0,216.0,126.0,20.0,-7.0,162.0,-401.0,880.0
51.0,-103.0,214.0,139.0,14.0,-4.0,153.0,-402.0,879.0
48.0,-101.0,217.0,150.0,9.0,-5.0,157.0,-400.0,867.0
45.0,-99.0,215.0,154.0,5.0,-3.0,148.0,-405.0,873.0
47.0,-95.0,214.0,158.0,0.0,-3.0,157.0,-405.0,877.0
50.0,-98.0,215.0,163.0,0.0,1.0,151.0,-405.0,876.0
48.0,-96.0,215.0,165.0,2.0,4.0,156.0,-406.0,881.0
52.0,-94.0,211.0,170.0,10.0,11.0,165.0,-395.0,872.0
52.0,-92.0,212.0,177.0,22.0,21.0,177.0,-384.0,878.0
76.0,-77.0,200.0,196.0,34.0,55.0,275.0,-303.0,874.0
40.0,-103.0,204.0,218.0,83.0,104.0,147.0,-432.0,838.0
27.0,-104.0,218.0,187.0,113.0,68.0,87.0,-440.0,883.0
31.0,-101.0,224.0,154.0,103.0,26.0,94.0,-417.0,928.0
40.0,-100.0,223.0,146.0,77.0,11.0,119.0,-412.0,923.0
45.0,-96.0,220.0,146.0,46.0,3.0,135.0,-402.0,913.0
47.0,-96.0,219.0,133.0,21.0,1.0,143.0,-392.0,902.0
45.0,-90.0,219.0,113.0,8.0,2.0,146.0,-390.0,898.0
46.0,-94.0,217.0,88.0,2.0,4.0,139.0,-386.0,899.0
44.0,-89.0,214.0,65.0,2.0,3.0,142.0,-391.0,899.0
48.0,-95.0,219.0,47.0,2.0,3.0,149.0,-393.0,903.0
44.0,-95.0,221.0,40.0,-2.0,1.0,149.0,-396.0,903.0
46.0,-96.0,220.0,40.0,-6.0,-1.0,154.0,-398.0,900.0
44.0,-94.0,219.0,42.0,-10.0,-1.0,149.0,-401.0,895.0
41.0,-93.0,206.0,45.0,-12.0,-2.0,149.0,-397.0,897.0
45.0,-93.0,215.0,49.0,-10.0,-4.0,148.0,-399.0,890.0
45.0,-92.0,218.0,50.0,-13.0,-3.0,144.0,-397.0,888.0
46.0,-94.0,217.0,52.0,-15.0,-5.0,147.0,-393.0,892.0
46.0,-95.0,212.0,57.0,-19.0,-9.0,151.0,-395.0,895.0
49.0,-91.0,214.0,59.0,-22.0,-8.0,155.0,-388.0,892.0
48.0,-94.0,217.0,64.0,-19.0,-7.0,155.0,-392.0,896.0
49.0,-96.0,218.0,69.0,-14.0,-5.0,154.0,-390.0,893.0
47.0,-93.0,218.0,77.0,-7.0,-1.0,149.0,-387.0,898.0
48.0,-91.0,221.0,82.0,-2.0,0.0,150.0,-388.0,894.0
44.0,-93.0,218.0,83.0,2.0,-1.0,146.0,-385.0,897.0
