acc1_x,acc1_y,acc1_z,gyro_x,gyro_y,gyro_z,acc2_x,acc2_y,acc2_z
8.0,-253.0,-12.0,48.0,8.0,-7.0,29.0,-1026.0,-1.0
5.0,-251.0,-10.0,51.0,9.0,-8.0,30.0,-1029.0,-7.0
6.0,-255.0,-8.0,55.0,8.0,-8.0,26.0,-1024.0,-9.0
7.0,-253.0,-10.0,57.0,8.0,-7.0,25.0,-1025.0,-14.0
5.0,-250.0,-9.0,59.0,11.0,-7.0,26.0,-1027.0,-6.0
7.0,-254.0,-6.0,61.0,11.0,-7.0,24.0,-1023.0,-9.0
7.0,-251.0,-7.0,61.0,10.0,-6.0,25.0,-1030.0,-10.0
4.0,-253.0,-9.0,60.0,11.0,-7.0,23.0,-1023.0,-4.0
4.0,-250.0,-10.0,60.0,10.0,-9.0,23.0,-1030.0,-9.0
7.0,-249.0,-10.0,61.0,11.0,-9.0,20.0,-1023.0,-7.0
6.0,-251.0,-8.0,59.0,12.0,-9.0,23.0,-1025.0,-10.0
6.0,-249.0,-11.0,57.0,11.0,-10.0,22.0,-1019.0,-1.0
6.0,-251.0,-9.0,56.0,11.0,-10.0,24.0,-1017.0,-6.0
7.0,-252.0,-7.0,55.0,11.0,-9.0,20.0,-1015.0,-8.0
1.0,-251.0,-9.0,52.0,11.0,-10.0,22.0,-1022.0,-7.0
8.0,-251.0,-6.0,51.0,10.0,-9.0,25.0,-1016.0,-10.0
4.0,-250.0,-7.0,51.0,10.0,-8.0,25.0,-1016.0,-7.0
9.0,-252.0,-5.0,49.0,10.0,-7.0,25.0,-1018.0,-11.0
5.0,-253.0,-11.0,49.0,10.0,-7.0,22.0,-1015.0,-11.0
8.0,-253.0,-14.0,49.0,7.0,-7.0,24.0,-1022.0,-9.0
7.0,-248.0,-10.0,47.0,9.0,-4.0,24.0,-1020.0,-9.0
2.0,-249.0,-9.0,45.0,8.0,-5.0,29.0,-1013.0,-8.0
7.0,-252.0,-8.0,45.0,8.0,-2.0,24.0,-1021.0,-8.0
8.0,-252.0,-9.0,44.0,9.0,-3.0,24.0,-1024.0,-10.0
8.0,-254.0,-10.0,44.0,8.0,-5.0,22.0,-1021.0,-4.0
3.0,-253.0,-10.0,42.0,7.0,-6.0,20.0,-1016.0,-9.0
6.0,-252.0,-11.0,43.0,7.0,-7.0,24.0,-1023.0,-8.0
6.0,-252.0,-11.0,42.0,9.0,-8.0,27.0,-1022.0,-11.0
4.0,-253.0,-8.0,43.0,10.0,-6.0,18.0,-1021.0,-5.0
4.0,-252.0,-11.0,43.0,11.0,-6.0,21.0,-1027.0,-5.0
6.0,-251.0,-7.0,45.0,10.0,-7.0,24.0,-1021.0,-12.0
6.0,-253.0,-15.0,47.0,9.0,-8.0,18.0,-1017.0,-10.0
6.0,-253.0,-10.0,50.0,8.0,-5.0,25.0,-1020.0,-11.0
4.0,-250.0,-10.0,52.0,7.0,-4.0,21.0,-1024.0,-11.0
4.0,-253.0,-10.0,52.0,7.0,-3.0,24.0,-1023.0,-8.0
5.0,-251.0,-12.0,53.0,6.0,-3.0,21.0,-1024.0,-9.0
10.0,-248.0,-7.0,52.0,7.0,-3.0,21.0,-1022.0,-6.0
6.0,-250.0,-11.0,53.0,8.0,-6.0,20.0,-1018.0,-10.0
4.0,-254.0,-8.0,53.0,9.0,-7.0,25.0,-1024.0,-10.0
3.0,-250.0,-11.0,52.0,8.0,-11.0,21.0,-1023.0,-8.0
5.0,-253.0,-7.0,51.0,8.0,-12.0,22.0,-1020.0,-6.0
6.0,-251.0,-9.0,51.0,7.0,-11.0,20.0,-1022.0,-9.0
5.0,-248.0,-9.0,51.0,8.0,-12.0,25.0,-1018.0,-7.0
3.0,-248.0,-7.0,51.0,9.0,-14.0,20.0,-1019.0,-7.0
6.0,-252.0,-8.0,54.0,8.0,-14.0,22.0,-1019.0,-12.0
8.0,-252.0,-10.0,53.0,9.0,-14.0,21.0,-1023.0,-11.0
5.0,-252.0,-7.0,55.0,10.0,-11.0,25.0,-1024.0,-9.0
4.0,-251.0,-5.0,55.0,9.0,-13.0,23.0,-1022.0,-12.0
6.0,-252.0,-10.0,56.0,9.0,-11.0,25.0,-1019.0,-11.0
10.0,-251.0,-9.0,56.0,9.0,-9.0,25.0,-1019.0,-10.0
7.0,-251.0,-8.0,56.0,8.0,-10.0,24.0,-1018.0,-9.0
5.0,-252.0,-10.0,55.0,8.0,-7.0,23.0,-1026.0,-6.0
7.0,-254.0,-12.0,54.0,8.0,-9.0,25.0,-1021.0,-7.0
8.0,-255.0,-9.0,53.0,7.0,-9.0,19.0,-1022.0,-2.0
8.0,-251.0,-10.0,54.0,9.0,-10.0,26.0,-1024.0,-5.0
8.0,-253.0,-9.0,56.0,9.0,-9.0,27.0,-1018.0,-8.0
6.0,-251.0,-11.0,56.0,10.0,-9.0,26.0,-1020.0,-5.0
8.0,-252.0,-10.0,57.0,9.0,-10.0,20.0,-1021.0,-9.0
7.0,-251.0,-8.0,57.0,7.0,-10.0,23.0,-1018.0,-7.0
5.0,-251.0,-10.0,56.0,8.0,-8.0,19.0,-1021.0,-7.0
6.0,-251.0,-8.0,53.0,9.0,-9.0,26.0,-1018.0,-6.0
6.0,-251.0,-9.0,50.0,9.0,-9.0,21.0,-1018.0,-8.0
6.0,-252.0,-12.0,48.0,10.0,-9.0,25.0,-1017.0,-9.0
5.0,-252.0,-11.0,46.0,11.0,-9.0,23.0,-1021.0,-7.0
7.0,-251.0,-7.0,46.0,12.0,-9.0,26.0,-1018.0,-6.0
8.0,-252.0,-7.0,46.0,12.0,-9.0,24.0,-1019.0,-6.0
6.0,-252.0,-8.0,47.0,12.0,-9.0,23.0,-1019.0,-8.0
7.0,-254.0,-10.0,47.0,12.0,-9.0,23.0,-1025.0,-6.0
6.0,-254.0,-9.0,45.0,11.0,-9.0,25.0,-1026.0,-10.0
8.0,-255.0,-12.0,46.0,10.0,-9.0,22.0,-1026.0,-8.0
6.0,-251.0,-6.0,46.0,10.0,-8.0,18.0,-1026.0,-12.0
4.0,-251.0,-7.0,47.0,9.0,-8.0,23.0,-1026.0,-16.0
7.0,-253.0,-7.0,49.0,6.0,-9.0,24.0,-1023.0,-11.0
4.0,-253.0,-10.0,52.0,4.0,-9.0,18.0,-1024.0,-7.0
5.0,-253.0,-9.0,55.0,5.0,-10.0,19.0,-1026.0,-11.0
7.0,-253.0,-8.0,60.0,5.0,-10.0,22.0,-1023.0,-8.0
3.0,-254.0,-12.0,61.0,5.0,-11.0,19.0,-1022.0,-8.0
6.0,-254.0,-9.0,64.0,6.0,-13.0,23.0,-1020.0,-11.0
17.0,-251.0,-8.0,65.0,8.0,-13.0,23.0,-1018.0,-7.0
7.0,-253.0,-9.0,67.0,7.0,-13.0,23.0,-1020.0,-10.0
6.0,-253.0,-12.0,68.0,7.0,-13.0,24.0,-1015.0,-13.0
7.0,-251.0,-9.0,68.0,8.0,-15.0,25.0,-1011.0,-3.0
2.0,-251.0,-8.0,70.0,9.0,-15.0,23.0,-1016.0,-6.0
6.0,-251.0,-12.0,71.0,9.0,-14.0,24.0,-1020.0,-7.0
7.0,-252.0,-12.0,74.0,8.0,-16.0,27.0,-1023.0,-11.0
3.0,-252.0,-6.0,74.0,7.0,-15.0,26.0,-1017.0,-1.0
8.0,-252.0,-10.0,75.0,8.0,-13.0,24.0,-1026.0,-8.0
4.0,-250.0,-8.0,75.0,8.0,-13.0,23.0,-1019.0,-4.0
3.0,-250.0,-9.0,76.0,6.0,-12.0,20.0,-1021.0,-2.0
7.0,-253.0,-9.0,74.0,6.0,-12.0,24.0,-1019.0,-6.0
6.0,-250.0,-7.0,71.0,6.0,-10.0,22.0,-1025.0,7.0
5.0,-249.0,-11.0,71.0,6.0,-11.0,24.0,-1024.0,2.0
6.0,-252.0,-5.0,72.0,4.0,-9.0,20.0,-1029.0,2.0
8.0,-255.0,-9.0,74.0,4.0,-9.0,24.0,-1024.0,3.0
8.0,-252.0,-5.0,75.0,2.0,-8.0,26.0,-1028.0,0.0
7.0,-254.0,-7.0,80.0,0.0,-8.0,23.0,-1031.0,3.0
5.0,-249.0,-5.0,83.0,-2.0,-10.0,22.0,-1026.0,-7.0
8.0,-252.0,-11.0,83.0,-3.0,-11.0,23.0,-1022.0,-6.0
5.0,-250.0,-6.0,81.0,-1.0,-10.0,26.0,-1020.0,-11.0
7.0,-251.0,-10.0,75.0,2.0,-11.0,23.0,-1017.0,-9.0
5.0,-249.0,-12.0,70.0,4.0,-13.0,21.0,-1016.0,-10.0
6.0,-253.0,-7.0,65.0,5.0,-13.0,22.0,-1014.0,-4.0
7.0,-253.0,-10.0,60.0,6.0,-13.0,22.0,-1016.0,-6.0
10.0,-253.0,-8.0,57.0,6.0,-13.0,27.0,-1023.0,-3.0
5.0,-253.0,-7.0,53.0,9.0,-13.0,24.0,-1021.0,-6.0
6.0,-254.0,-12.0,52.0,11.0,-13.0,21.0,-1026.0,-6.0
6.0,-251.0,-7.0,51.0,12.0,-14.0,26.0,-1025.0,-1.0
7.0,-252.0,-9.0,51.0,11.0,-14.0,27.0,-1027.0,-6.0
5.0,-252.0,-5.0,54.0,11.0,-13.0,26.0,-1025.0,3.0
6.0,-253.0,-10.0,55.0,10.0,-13.0,28.0,-1023.0,0.0
8.0,-253.0,-6.0,60.0,10.0,-12.0,25.0,-1022.0,0.0
7.0,-256.0,-7.0,62.0,10.0,-14.0,27.0,-1015.0,-5.0
4.0,-253.0,-5.0,64.0,8.0,-12.0,27.0,-1021.0,-4.0
10.0,-250.0,-7.0,66.0,8.0,-12.0,31.0,-1020.0,-10.0
7.0,-250.0,-12.0,66.0,7.0,-13.0,25.0,-1013.0,-8.0
5.0,-248.0,-11.0,67.0,9.0,-12.0,27.0,-1017.0,-9.0
10.0,-253.0,-10.0,65.0,8.0,-10.0,25.0,-1012.0,-17.0
5.0,-251.0,-8.0,62.0,8.0,-7.0,27.0,-1014.0,-11.0
6.0,-252.0,-7.0,60.0,8.0,-9.0,21.0,-1021.0,-12.0
7.0,-251.0,-8.0,60.0,9.0,-8.0,25.0,-1020.0,-12.0
8.0,-250.0,-6.0,58.0,9.0,-7.0,25.0,-1019.0,-6.0
5.0,-251.0,-10.0,58.0,9.0,-7.0,21.0,-1021.0,-5.0
6.0,-249.0,-9.0,58.0,9.0,-7.0,22.0,-1015.0,-11.0
8.0,-249.0,-11.0,57.0,9.0,-7.0,24.0,-1018.0,-11.0
6.0,-250.0,-10.0,55.0,9.0,-7.0,25.0,-1018.0,-7.0
6.0,-254.0,-7.0,54.0,8.0,-7.0,21.0,-1016.0,-13.0
5.0,-252.0,-13.0,56.0,9.0,-10.0,20.0,-1020.0,-6.0
7.0,-255.0,-11.0,55.0,10.0,-10.0,23.0,-1015.0,-12.0
4.0,-253.0,-10.0,53.0,9.0,-8.0,20.0,-1017.0,-10.0
7.0,-250.0,-11.0,52.0,11.0,-10.0,26.0,-1018.0,-10.0
7.0,-252.0,-10.0,51.0,12.0,-10.0,19.0,-1024.0,-9.0
6.0,-252.0,-9.0,48.0,12.0,-9.0,23.0,-1024.0,-7.0
6.0,-250.0,-10.0,48.0,11.0,-9.0,25.0,-1020.0,-11.0
6.0,-252.0,-11.0,45.0,12.0,-11.0,23.0,-1020.0,-4.0
7.0,-252.0,-4.0,47.0,11.0,-10.0,20.0,-1022.0,-7.0
6.0,-252.0,-8.0,47.0,12.0,-10.0,22.0,-1021.0,-7.0
4.0,-251.0,-11.0,48.0,10.0,-8.0,23.0,-1023.0,-11.0
5.0,-252.0,-7.0,50.0,11.0,-8.0,19.0,-1021.0,-4.0
5.0,-251.0,-6.0,51.0,11.0,-9.0,21.0,-1018.0,-7.0
9.0,-253.0,-7.0,51.0,11.0,-11.0,18.0,-1019.0,-2.0
6.0,-252.0,-12.0,50.0,11.0,-10.0,20.0,-1023.0,-1.0
5.0,-253.0,-5.0,48.0,11.0,-12.0,22.0,-1019.0,-9.0
7.0,-253.0,-9.0,48.0,11.0,-13.0,19.0,-1022.0,-4.0
5.0,-253.0,-6.0,47.0,10.0,-13.0,25.0,-1022.0,-4.0
7.0,-252.0,-6.0,45.0,9.0,-14.0,18.0,-1022.0,-3.0
4.0,-251.0,-6.0,45.0,9.0,-16.0,25.0,-1028.0,-5.0
5.0,-255.0,-7.0,46.0,9.0,-16.0,18.0,-1026.0,-3.0
6.0,-252.0,-4.0,46.0,7.0,-17.0,22.0,-1030.0,1.0
2.0,-252.0,-8.0,46.0,7.0,-20.0,22.0,-1020.0,-6.0
4.0,-247.0,-8.0,46.0,6.0,-18.0,27.0,-1021.0,-2.0
9.0,-250.0,-6.0,44.0,7.0,-19.0,31.0,-1013.0,-1.0
4.0,-253.0,-9.0,43.0,7.0,-21.0,25.0,-1017.0,-2.0
7.0,-250.0,-5.0,39.0,8.0,-20.0,27.0,-1013.0,-3.0
7.0,-242.0,-8.0,37.0,7.0,-21.0,24.0,-1018.0,-3.0
9.0,-249.0,-6.0,34.0,9.0,-21.0,25.0,-1017.0,-3.0
7.0,-250.0,-6.0,32.0,9.0,-21.0,25.0,-1016.0,4.0
8.0,-250.0,-8.0,28.0,10.0,-21.0,28.0,-1020.0,1.0
7.0,-248.0,-6.0,24.0,10.0,-22.0,23.0,-1013.0,-4.0
5.0,-251.0,-8.0,20.0,10.0,-22.0,28.0,-1021.0,-3.0
7.0,-250.0,-8.0,19.0,11.0,-22.0,26.0,-1019.0,2.0
7.0,-252.0,-5.0,16.0,11.0,-22.0,22.0,-1018.0,0.0
2.0,-250.0,-8.0,14.0,11.0,-23.0,20.0,-1023.0,-1.0
6.0,-250.0,-6.0,13.0,11.0,-25.0,21.0,-1022.0,0.0
6.0,-250.0,-5.0,12.0,11.0,-26.0,18.0,-1019.0,-3.0
3.0,-254.0,-6.0,10.0,11.0,-24.0,20.0,-1022.0,0.0
5.0,-250.0,-8.0,9.0,9.0,-25.0,21.0,-1018.0,-6.0
7.0,-252.0,-10.0,7.0,7.0,-26.0,18.0,-1021.0,-4.0
8.0,-253.0,-10.0,6.0,9.0,-29.0,22.0,-1018.0,-3.0
5.0,-254.0,-13.0,5.0,9.0,-29.0,21.0,-1024.0,-4.0
6.0,-251.0,-9.0,3.0,9.0,-28.0,27.0,-1024.0,-2.0
9.0,-254.0,-10.0,3.0,10.0,-29.0,24.0,-1026.0,-7.0
7.0,-254.0,-9.0,4.0,10.0,-28.0,25.0,-1030.0,-4.0
7.0,-252.0,-10.0,10.0,10.0,-28.0,25.0,-1029.0,-9.0
5.0,-252.0,-12.0,14.0,9.0,-28.0,28.0,-1024.0,-10.0
10.0,-254.0,-11.0,18.0,10.0,-27.0,28.0,-1024.0,-12.0
8.0,-250.0,-10.0,20.0,9.0,-26.0,27.0,-1016.0,-14.0
9.0,-251.0,-13.0,22.0,9.0,-26.0,24.0,-1024.0,-15.0
5.0,-253.0,-10.0,25.0,9.0,-24.0,21.0,-1027.0,-16.0
7.0,-252.0,-9.0,25.0,10.0,-22.0,28.0,-1016.0,-16.0
10.0,-251.0,-9.0,28.0,11.0,-22.0,24.0,-1023.0,-15.0
6.0,-253.0,-12.0,29.0,12.0,-21.0,24.0,-1020.0,-18.0
7.0,-251.0,-15.0,31.0,14.0,-20.0,24.0,-1023.0,-13.0
9.0,-253.0,-10.0,34.0,13.0,-20.0,26.0,-1022.0,-20.0
5.0,-252.0,-13.0,37.0,12.0,-21.0,24.0,-1019.0,-12.0
6.0,-252.0,-17.0,38.0,12.0,-19.0,26.0,-1022.0,-11.0
8.0,-253.0,-14.0,41.0,13.0,-19.0,27.0,-1018.0,-9.0
5.0,-250.0,-9.0,43.0,12.0,-19.0,30.0,-1023.0,-18.0
5.0,-249.0,-12.0,43.0,14.0,-18.0,28.0,-1028.0,-14.0
9.0,-252.0,-10.0,43.0,13.0,-16.0,37.0,-1015.0,-10.0
6.0,-249.0,-11.0,44.0,12.0,-15.0,31.0,-1021.0,-19.0
8.0,-249.0,-13.0,43.0,12.0,-16.0,32.0,-1015.0,-14.0
9.0,-253.0,-8.0,40.0,11.0,-14.0,30.0,-1018.0,-12.0
7.0,-251.0,-10.0,40.0,9.0,-13.0,26.0,-1016.0,-14.0
9.0,-254.0,-13.0,40.0,11.0,-13.0,31.0,-1022.0,-16.0
8.0,-251.0,-12.0,40.0,10.0,-13.0,27.0,-1019.0,-11.0
8.0,-253.0,-12.0,39.0,10.0,-14.0,28.0,-1021.0,-16.0
7.0,-253.0,-13.0,39.0,10.0,-15.0,30.0,-1020.0,-16.0
7.0,-255.0,-6.0,40.0,11.0,-14.0,25.0,-1018.0,-16.0
5.0,-250.0,-10.0,41.0,12.0,-15.0,26.0,-1024.0,-12.0
7.0,-251.0,-9.0,42.0,13.0,-16.0,31.0,-1021.0,-10.0
6.0,-252.0,-10.0,42.0,15.0,-16.0,31.0,-1023.0,-14.0
8.0,-251.0,-6.0,43.0,13.0,-16.0,28.0,-1019.0,-13.0
7.0,-246.0,-11.0,44.0,12.0,-16.0,29.0,-1022.0,-12.0
5.0,-251.0,-8.0,45.0,12.0,-16.0,26.0,-1021.0,-18.0
9.0,-251.0,-11.0,45.0,12.0,-16.0,24.0,-1021.0,-10.0
11.0,-253.0,-7.0,44.0,12.0,-17.0,27.0,-1019.0,-14.0
7.0,-251.0,-12.0,46.0,11.0,-17.0,27.0,-1017.0,-12.0
8.0,-249.0,-11.0,45.0,11.0,-15.0,25.0,-1019.0,-16.0
8.0,-252.0,-9.0,48.0,12.0,-16.0,27.0,-1018.0,-16.0
6.0,-249.0,-13.0,49.0,11.0,-16.0,26.0,-1020.0,-24.0
6.0,-249.0,-9.0,49.0,11.0,-16.0,30.0,-1021.0,-16.0
7.0,-256.0,-12.0,49.0,12.0,-14.0,26.0,-1029.0,-12.0
7.0,-252.0,-13.0,48.0,9.0,-14.0,26.0,-1021.0,-12.0
8.0,-253.0,-9.0,47.0,10.0,-12.0,28.0,-1024.0,-12.0
5.0,-250.0,-9.0,48.0,9.0,-15.0,26.0,-1021.0,-14.0
4.0,-254.0,-12.0,49.0,9.0,-15.0,24.0,-1025.0,-16.0
4.0,-251.0,-14.0,50.0,10.0,-13.0,25.0,-1023.0,-10.0
8.0,-253.0,-11.0,52.0,10.0,-13.0,25.0,-1023.0,-11.0
9.0,-254.0,-10.0,53.0,10.0,-13.0,26.0,-1022.0,-8.0
6.0,-252.0,-12.0,54.0,10.0,-11.0,25.0,-1015.0,-10.0
6.0,-256.0,-11.0,55.0,12.0,-13.0,29.0,-1021.0,-10.0
11.0,-253.0,-7.0,55.0,13.0,-13.0,29.0,-1025.0,-7.0
10.0,-254.0,-6.0,53.0,12.0,-14.0,30.0,-1021.0,-11.0
9.0,-252.0,-9.0,53.0,12.0,-14.0,26.0,-1023.0,-8.0
8.0,-253.0,-9.0,53.0,11.0,-13.0,28.0,-1018.0,-12.0
20.0,-254.0,1.0,54.0,10.0,-13.0,28.0,-1024.0,-12.0
10.0,-253.0,-3.0,55.0,10.0,-15.0,25.0,-1023.0,-7.0
7.0,-249.0,-10.0,57.0,9.0,-15.0,31.0,-1023.0,-14.0
5.0,-246.0,-9.0,58.0,10.0,-15.0,25.0,-1021.0,-5.0
7.0,-252.0,-12.0,61.0,10.0,-17.0,29.0,-1022.0,-5.0
8.0,-251.0,-12.0,60.0,9.0,-16.0,31.0,-1022.0,-14.0
8.0,-253.0,-11.0,60.0,10.0,-17.0,31.0,-1018.0,-15.0
6.0,-251.0,-7.0,60.0,11.0,-18.0,27.0,-1016.0,-9.0
10.0,-252.0,-10.0,59.0,11.0,-17.0,33.0,-1021.0,-15.0
7.0,-252.0,-12.0,59.0,13.0,-17.0,33.0,-1017.0,-20.0
10.0,-251.0,-9.0,59.0,15.0,-18.0,35.0,-1019.0,-7.0
8.0,-250.0,-9.0,60.0,18.0,-16.0,35.0,-1020.0,-12.0
8.0,-251.0,-13.0,59.0,18.0,-18.0,38.0,-1017.0,-15.0
8.0,-252.0,-11.0,59.0,19.0,-17.0,25.0,-1022.0,-1.0
9.0,-254.0,-9.0,59.0,19.0,-17.0,27.0,-1023.0,-10.0
8.0,-251.0,-7.0,57.0,20.0,-19.0,32.0,-1028.0,-6.0
5.0,-253.0,-10.0,58.0,21.0,-18.0,29.0,-1025.0,-10.0
5.0,-253.0,-5.0,59.0,20.0,-20.0,33.0,-1027.0,-12.0
7.0,-253.0,-11.0,59.0,19.0,-19.0,28.0,-1022.0,-1.0
8.0,-252.0,-8.0,61.0,17.0,-19.0,27.0,-1027.0,-4.0
7.0,-253.0,-9.0,63.0,17.0,-19.0,24.0,-1025.0,-8.0
9.0,-252.0,-6.0,67.0,17.0,-19.0,26.0,-1024.0,-14.0
9.0,-251.0,-9.0,70.0,15.0,-18.0,28.0,-1024.0,-4.0
8.0,-253.0,-10.0,73.0,14.0,-17.0,26.0,-1017.0,-11.0
7.0,-250.0,-10.0,74.0,14.0,-17.0,27.0,-1020.0,-15.0
6.0,-252.0,-13.0,74.0,14.0,-16.0,27.0,-1015.0,-18.0
8.0,-252.0,-14.0,71.0,13.0,-12.0,29.0,-1012.0,-23.0
9.0,-253.0,-8.0,69.0,12.0,-12.0,23.0,-1019.0,-18.0
5.0,-249.0,-12.0,66.0,12.0,-12.0,25.0,-1014.0,-13.0
7.0,-255.0,-9.0,64.0,14.0,-11.0,27.0,-1018.0,-18.0
7.0,-250.0,-9.0,64.0,14.0,-11.0,25.0,-1017.0,-10.0
7.0,-250.0,-9.0,64.0,15.0,-10.0,23.0,-1020.0,-6.0
6.0,-251.0,-9.0,67.0,15.0,-11.0,24.0,-1021.0,-10.0
8.0,-249.0,-6.0,69.0,16.0,-10.0,23.0,-1017.0,-6.0
7.0,-253.0,-9.0,69.0,16.0,-10.0,27.0,-1021.0,-8.0
6.0,-254.0,-7.0,71.0,16.0,-7.0,26.0,-1024.0,-8.0
6.0,-252.0,-8.0,73.0,16.0,-9.0,27.0,-1031.0,-10.0
6.0,-251.0,-9.0,75.0,16.0,-12.0,28.0,-1024.0,-9.0
7.0,-251.0,-10.0,75.0,15.0,-16.0,30.0,-1021.0,-9.0
6.0,-250.0,-7.0,76.0,15.0,-17.0,27.0,-1016.0,-8.0
7.0,-251.0,-10.0,74.0,15.0,-15.0,26.0,-1014.0,-11.0
5.0,-251.0,-11.0,73.0,13.0,-17.0,26.0,-1011.0,-14.0
7.0,-250.0,-11.0,72.0,12.0,-16.0,27.0,-1021.0,-9.0
8.0,-249.0,-9.0,74.0,12.0,-14.0,27.0,-1012.0,-15.0
8.0,-255.0,-8.0,74.0,12.0,-13.0,29.0,-1016.0,-10.0
8.0,-242.0,2.0,75.0,12.0,-13.0,28.0,-1021.0,-10.0
5.0,-252.0,-12.0,75.0,14.0,-14.0,29.0,-1016.0,-12.0
8.0,-251.0,-10.0,77.0,15.0,-14.0,26.0,-1014.0,-9.0
8.0,-248.0,-10.0,78.0,15.0,-13.0,27.0,-1015.0,-10.0
10.0,-251.0,-12.0,78.0,15.0,-12.0,31.0,-1019.0,-15.0
8.0,-253.0,-10.0,77.0,14.0,-13.0,31.0,-1017.0,-12.0
9.0,-251.0,-9.0,77.0,14.0,-13.0,26.0,-1017.0,-11.0
6.0,-252.0,-10.0,79.0,15.0,-14.0,30.0,-1013.0,-11.0
9.0,-253.0,-11.0,77.0,17.0,-14.0,28.0,-1020.0,-15.0
8.0,-251.0,-10.0,76.0,17.0,-14.0,30.0,-1024.0,-12.0
9.0,-253.0,-11.0,75.0,17.0,-15.0,27.0,-1023.0,-8.0
7.0,-250.0,-9.0,74.0,16.0,-14.0,30.0,-1018.0,-9.0
8.0,-253.0,-9.0,75.0,17.0,-15.0,28.0,-1016.0,-10.0
10.0,-253.0,-6.0,76.0,16.0,-13.0,27.0,-1021.0,-12.0
7.0,-251.0,-11.0,75.0,17.0,-13.0,29.0,-1020.0,-6.0
3.0,-248.0,-7.0,76.0,17.0,-13.0,28.0,-1018.0,-9.0
11.0,-254.0,-7.0,75.0,17.0,-13.0,28.0,-1023.0,-5.0
7.0,-250.0,-8.0,75.0,16.0,-13.0,27.0,-1022.0,-5.0
9.0,-251.0,-8.0,76.0,16.0,-12.0,32.0,-1020.0,-5.0
10.0,-249.0,-4.0,78.0,17.0,-11.0,27.0,-1014.0,-6.0
7.0,-254.0,-7.0,78.0,17.0,-13.0,30.0,-1021.0,-1.0
7.0,-252.0,-9.0,76.0,17.0,-13.0,31.0,-1021.0,-8.0
6.0,-251.0,-8.0,74.0,16.0,-12.0,29.0,-1023.0,-4.0
8.0,-252.0,-6.0,75.0,15.0,-11.0,23.0,-1024.0,-8.0
8.0,-253.0,-8.0,76.0,14.0,-13.0,30.0,-1024.0,-7.0
9.0,-249.0,-8.0,75.0,13.0,-13.0,30.0,-1022.0,-2.0
9.0,-254.0,-8.0,76.0,12.0,-11.0,29.0,-1026.0,-7.0
9.0,-250.0,-8.0,76.0,11.0,-12.0,28.0,-1027.0,-7.0
7.0,-250.0,-12.0,77.0,11.0,-13.0,26.0,-1024.0,-9.0
6.0,-252.0,-11.0,78.0,13.0,-12.0,25.0,-1025.0,-5.0
7.0,-250.0,-5.0,80.0,13.0,-14.0,31.0,-1022.0,-10.0
11.0,-252.0,-9.0,78.0,13.0,-12.0,25.0,-1018.0,-4.0
9.0,-251.0,-9.0,76.0,12.0,-12.0,33.0,-1022.0,-11.0
7.0,-247.0,-9.0,75.0,12.0,-11.0,35.0,-1017.0,-6.0
12.0,-253.0,-9.0,73.0,11.0,-10.0,31.0,-1018.0,-7.0
14.0,-256.0,-10.0,72.0,10.0,-11.0,32.0,-1020.0,-6.0
9.0,-252.0,-7.0,72.0,10.0,-10.0,31.0,-1018.0,-3.0
9.0,-254.0,-8.0,71.0,10.0,-11.0,27.0,-1021.0,2.0
8.0,-253.0,-10.0,72.0,10.0,-14.0,31.0,-1020.0,2.0
6.0,-251.0,-4.0,71.0,9.0,-14.0,28.0,-1025.0,5.0
10.0,-252.0,-4.0,71.0,9.0,-15.0,29.0,-1015.0,2.0
9.0,-252.0,-5.0,71.0,10.0,-14.0,25.0,-1025.0,-2.0
8.0,-254.0,-3.0,69.0,11.0,-14.0,26.0,-1023.0,5.0
10.0,-253.0,-3.0,68.0,12.0,-15.0,30.0,-1024.0,3.0
7.0,-250.0,-12.0,68.0,12.0,-14.0,27.0,-1021.0,8.0
10.0,-246.0,-6.0,68.0,11.0,-16.0,34.0,-1018.0,5.0
8.0,-252.0,-6.0,69.0,11.0,-14.0,32.0,-1022.0,7.0
10.0,-253.0,-6.0,68.0,10.0,-14.0,36.0,-1021.0,0.0
10.0,-256.0,-2.0,70.0,11.0,-13.0,36.0,-1022.0,4.0
8.0,-253.0,-4.0,72.0,12.0,-13.0,35.0,-1023.0,3.0
7.0,-251.0,-5.0,73.0,12.0,-15.0,30.0,-1023.0,6.0
7.0,-252.0,-8.0,75.0,14.0,-14.0,34.0,-1019.0,4.0
10.0,-251.0,-5.0,76.0,15.0,-14.0,30.0,-1019.0,8.0
8.0,-253.0,-8.0,77.0,17.0,-15.0,29.0,-1028.0,8.0
9.0,-253.0,-4.0,77.0,18.0,-13.0,27.0,-1016.0,7.0
8.0,-253.0,-4.0,77.0,17.0,-13.0,31.0,-1024.0,6.0
4.0,-254.0,-9.0,78.0,15.0,-12.0,27.0,-1020.0,5.0
8.0,-253.0,-6.0,78.0,16.0,-10.0,30.0,-1021.0,7.0
8.0,-252.0,-7.0,78.0,16.0,-8.0,26.0,-1019.0,5.0
8.0,-252.0,-3.0,78.0,14.0,-9.0,34.0,-1020.0,3.0
10.0,-250.0,-8.0,79.0,13.0,-9.0,28.0,-1018.0,5.0
8.0,-252.0,-8.0,78.0,13.0,-11.0,28.0,-1022.0,3.0
5.0,-252.0,-9.0,77.0,12.0,-12.0,32.0,-1020.0,4.0
9.0,-249.0,-5.0,76.0,13.0,-11.0,32.0,-1015.0,0.0
5.0,-250.0,-8.0,76.0,12.0,-11.0,30.0,-1017.0,3.0
10.0,-253.0,-7.0,75.0,12.0,-10.0,30.0,-1015.0,7.0
8.0,-250.0,-6.0,76.0,12.0,-11.0,34.0,-1024.0,4.0
7.0,-249.0,-8.0,76.0,11.0,-12.0,32.0,-1021.0,-3.0
8.0,-250.0,-8.0,75.0,12.0,-13.0,33.0,-1020.0,-4.0
7.0,-253.0,-8.0,76.0,11.0,-13.0,28.0,-1017.0,2.0
7.0,-248.0,-6.0,75.0,11.0,-12.0,30.0,-1023.0,1.0
8.0,-254.0,-6.0,75.0,11.0,-10.0,32.0,-1020.0,0.0
9.0,-253.0,-5.0,73.0,13.0,-8.0,27.0,-1022.0,3.0
6.0,-250.0,-5.0,74.0,13.0,-7.0,27.0,-1025.0,6.0
7.0,-253.0,-4.0,73.0,14.0,-10.0,24.0,-1025.0,7.0
5.0,-239.0,-3.0,73.0,15.0,-11.0,26.0,-1029.0,7.0
9.0,-256.0,-5.0,73.0,14.0,-10.0,26.0,-1034.0,3.0
7.0,-253.0,-5.0,75.0,14.0,-13.0,25.0,-1022.0,4.0
6.0,-252.0,-4.0,77.0,13.0,-12.0,22.0,-1023.0,7.0
8.0,-252.0,-7.0,78.0,14.0,-11.0,27.0,-1019.0,6.0
6.0,-254.0,-4.0,81.0,13.0,-14.0,30.0,-1023.0,9.0
6.0,-252.0,-4.0,80.0,12.0,-13.0,34.0,-1017.0,7.0
10.0,-251.0,-4.0,82.0,11.0,-12.0,34.0,-1019.0,4.0
7.0,-252.0,-8.0,80.0,10.0,-13.0,33.0,-1027.0,3.0
4.0,-250.0,-6.0,80.0,10.0,-13.0,28.0,-1016.0,-2.0
7.0,-252.0,-1.0,79.0,11.0,-13.0,28.0,-1020.0,4.0
11.0,-254.0,-6.0,78.0,10.0,-17.0,29.0,-1025.0,3.0
8.0,-250.0,-8.0,78.0,10.0,-16.0,29.0,-1018.0,4.0
10.0,-251.0,-1.0,77.0,12.0,-15.0,27.0,-1015.0,4.0
8.0,-253.0,-8.0,78.0,14.0,-14.0,27.0,-1020.0,4.0
8.0,-254.0,-4.0,77.0,14.0,-16.0,28.0,-1025.0,10.0
8.0,-252.0,-6.0,77.0,15.0,-16.0,33.0,-1020.0,3.0
12.0,-252.0,-3.0,77.0,16.0,-15.0,36.0,-1020.0,8.0
9.0,-250.0,-7.0,78.0,14.0,-16.0,31.0,-1016.0,5.0
8.0,-253.0,0.0,77.0,15.0,-14.0,27.0,-1020.0,10.0
9.0,-248.0,-6.0,77.0,15.0,-12.0,33.0,-1021.0,10.0
8.0,-251.0,-5.0,76.0,14.0,-11.0,26.0,-1022.0,6.0
7.0,-254.0,-5.0,73.0,12.0,-11.0,29.0,-1020.0,8.0
7.0,-252.0,-7.0,73.0,11.0,-11.0,26.0,-1024.0,8.0
6.0,-251.0,-12.0,72.0,10.0,-11.0,28.0,-1025.0,3.0
8.0,-253.0,-5.0,72.0,9.0,-10.0,30.0,-1023.0,7.0
8.0,-249.0,-5.0,72.0,10.0,-11.0,31.0,-1031.0,11.0
8.0,-253.0,-7.0,73.0,10.0,-12.0,29.0,-1028.0,8.0
9.0,-254.0,-3.0,75.0,12.0,-14.0,30.0,-1024.0,7.0
8.0,-253.0,-4.0,77.0,13.0,-13.0,31.0,-1017.0,11.0
7.0,-253.0,-5.0,79.0,12.0,-13.0,27.0,-1027.0,12.0
8.0,-254.0,-2.0,81.0,12.0,-13.0,28.0,-1023.0,6.0
7.0,-254.0,-5.0,84.0,11.0,-15.0,30.0,-1024.0,8.0
8.0,-252.0,-6.0,85.0,10.0,-15.0,29.0,-1024.0,4.0
10.0,-252.0,-7.0,85.0,10.0,-13.0,23.0,-1023.0,11.0
7.0,-250.0,-7.0,86.0,10.0,-13.0,28.0,-1023.0,8.0
7.0,-249.0,-6.0,87.0,10.0,-13.0,30.0,-1017.0,7.0
10.0,-251.0,-3.0,88.0,10.0,-13.0,32.0,-1018.0,9.0
7.0,-250.0,-6.0,86.0,12.0,-15.0,33.0,-1018.0,6.0
10.0,-253.0,-4.0,84.0,12.0,-16.0,30.0,-1019.0,11.0
8.0,-249.0,-5.0,83.0,12.0,-13.0,29.0,-1016.0,13.0
9.0,-249.0,-5.0,81.0,13.0,-13.0,35.0,-1020.0,8.0
11.0,-251.0,-5.0,80.0,13.0,-13.0,29.0,-1017.0,5.0
9.0,-252.0,-2.0,80.0,13.0,-13.0,34.0,-1020.0,7.0
9.0,-250.0,-8.0,82.0,14.0,-13.0,28.0,-1020.0,9.0
8.0,-251.0,-6.0,83.0,14.0,-13.0,31.0,-1023.0,8.0
9.0,-249.0,-4.0,84.0,15.0,-12.0,32.0,-1024.0,7.0
6.0,-252.0,-2.0,85.0,14.0,-13.0,33.0,-1025.0,9.0
8.0,-254.0,-7.0,86.0,16.0,-12.0,32.0,-1033.0,7.0
9.0,-254.0,-4.0,85.0,15.0,-13.0,27.0,-1025.0,13.0
7.0,-255.0,-6.0,84.0,14.0,-14.0,26.0,-1030.0,17.0
8.0,-254.0,-3.0,84.0,13.0,-14.0,30.0,-1021.0,15.0
11.0,-256.0,0.0,82.0,12.0,-16.0,30.0,-1025.0,14.0
9.0,-252.0,-1.0,84.0,12.0,-19.0,28.0,-1028.0,20.0
9.0,-255.0,-3.0,85.0,10.0,-19.0,31.0,-1038.0,22.0
7.0,-255.0,-5.0,89.0,9.0,-19.0,31.0,-1028.0,18.0
6.0,-254.0,-5.0,94.0,8.0,-19.0,27.0,-1029.0,10.0
7.0,-254.0,-3.0,101.0,9.0,-19.0,30.0,-1027.0,16.0
8.0,-252.0,-2.0,105.0,8.0,-19.0,35.0,-1024.0,14.0
11.0,-253.0,-7.0,108.0,9.0,-18.0,32.0,-1023.0,8.0
9.0,-249.0,-8.0,106.0,10.0,-18.0,33.0,-1013.0,9.0
4.0,-250.0,-8.0,100.0,11.0,-15.0,35.0,-1023.0,10.0
10.0,-250.0,-4.0,96.0,12.0,-13.0,33.0,-1015.0,7.0
8.0,-248.0,-3.0,91.0,13.0,-12.0,32.0,-1014.0,19.0
8.0,-252.0,-6.0,88.0,14.0,-11.0,29.0,-1017.0,19.0
10.0,-253.0,3.0,85.0,14.0,-8.0,31.0,-1022.0,17.0
9.0,-253.0,0.0,84.0,14.0,-6.0,29.0,-1022.0,19.0
10.0,-254.0,-1.0,85.0,15.0,-5.0,34.0,-1023.0,20.0
9.0,-251.0,-4.0,86.0,15.0,-4.0,31.0,-1018.0,26.0
8.0,-252.0,-5.0,88.0,14.0,-1.0,34.0,-1020.0,20.0
8.0,-254.0,0.0,90.0,13.0,-2.0,29.0,-1019.0,22.0
8.0,-252.0,-1.0,91.0,14.0,-1.0,31.0,-1023.0,20.0
10.0,-254.0,-4.0,94.0,13.0,-2.0,27.0,-1020.0,25.0
6.0,-250.0,-3.0,96.0,12.0,-2.0,26.0,-1014.0,15.0
7.0,-251.0,-4.0,96.0,13.0,0.0,27.0,-1012.0,16.0
10.0,-246.0,-5.0,94.0,12.0,0.0,27.0,-1011.0,16.0
8.0,-248.0,-8.0,92.0,12.0,-1.0,28.0,-1011.0,17.0
9.0,-251.0,-6.0,89.0,10.0,-3.0,33.0,-1013.0,18.0
10.0,-251.0,-5.0,86.0,11.0,-1.0,30.0,-1010.0,15.0
9.0,-252.0,-4.0,82.0,11.0,1.0,30.0,-1020.0,12.0
10.0,-253.0,-2.0,80.0,10.0,3.0,28.0,-1015.0,20.0
10.0,-251.0,-1.0,77.0,11.0,2.0,27.0,-1016.0,21.0
8.0,-252.0,-4.0,75.0,11.0,1.0,27.0,-1014.0,17.0
5.0,-251.0,1.0,73.0,12.0,-1.0,27.0,-1023.0,23.0
7.0,-250.0,0.0,71.0,10.0,-4.0,26.0,-1025.0,21.0
8.0,-255.0,-3.0,69.0,9.0,-5.0,22.0,-1023.0,22.0
6.0,-252.0,-4.0,68.0,10.0,-8.0,21.0,-1020.0,25.0
7.0,-253.0,0.0,69.0,9.0,-10.0,25.0,-1017.0,21.0
5.0,-253.0,4.0,70.0,9.0,-13.0,28.0,-1024.0,22.0
6.0,-249.0,2.0,70.0,10.0,-17.0,26.0,-1025.0,24.0
8.0,-251.0,1.0,68.0,10.0,-19.0,27.0,-1023.0,20.0
5.0,-253.0,2.0,69.0,10.0,-19.0,25.0,-1022.0,27.0
9.0,-251.0,-4.0,69.0,12.0,-21.0,31.0,-1023.0,22.0
7.0,-252.0,-1.0,69.0,13.0,-21.0,30.0,-1024.0,21.0
8.0,-252.0,-1.0,70.0,13.0,-20.0,31.0,-1019.0,24.0
7.0,-256.0,-3.0,72.0,13.0,-21.0,32.0,-1021.0,22.0
7.0,-255.0,2.0,71.0,13.0,-19.0,31.0,-1020.0,18.0
10.0,-252.0,-4.0,70.0,13.0,-18.0,29.0,-1021.0,25.0
8.0,-251.0,4.0,71.0,14.0,-18.0,30.0,-1018.0,24.0
8.0,-250.0,0.0,71.0,14.0,-15.0,29.0,-1021.0,17.0
7.0,-253.0,-4.0,70.0,15.0,-14.0,30.0,-1023.0,25.0
9.0,-251.0,-1.0,70.0,15.0,-14.0,35.0,-1024.0,20.0
8.0,-253.0,-3.0,70.0,15.0,-14.0,35.0,-1024.0,21.0
7.0,-250.0,-2.0,70.0,15.0,-14.0,35.0,-1025.0,27.0
8.0,-253.0,2.0,70.0,15.0,-14.0,29.0,-1031.0,27.0
7.0,-256.0,-1.0,70.0,15.0,-12.0,31.0,-1026.0,27.0
10.0,-253.0,1.0,70.0,13.0,-13.0,25.0,-1027.0,22.0
9.0,-253.0,0.0,70.0,14.0,-12.0,25.0,-1032.0,25.0
8.0,-255.0,-2.0,70.0,14.0,-15.0,25.0,-1031.0,28.0
7.0,-255.0,2.0,73.0,12.0,-16.0,30.0,-1026.0,26.0
11.0,-253.0,2.0,74.0,10.0,-19.0,27.0,-1026.0,24.0
9.0,-254.0,2.0,75.0,8.0,-18.0,30.0,-1029.0,27.0
9.0,-253.0,-1.0,78.0,7.0,-18.0,31.0,-1024.0,29.0
7.0,-252.0,4.0,78.0,6.0,-18.0,33.0,-1023.0,30.0
10.0,-256.0,2.0,79.0,6.0,-16.0,35.0,-1021.0,29.0
12.0,-252.0,0.0,78.0,5.0,-17.0,34.0,-1020.0,29.0
9.0,-255.0,-2.0,78.0,5.0,-18.0,39.0,-1022.0,28.0
8.0,-248.0,6.0,75.0,5.0,-18.0,31.0,-1023.0,22.0
11.0,-251.0,-1.0,75.0,5.0,-19.0,32.0,-1025.0,23.0
9.0,-252.0,0.0,75.0,6.0,-19.0,35.0,-1017.0,24.0
10.0,-250.0,-1.0,73.0,9.0,-18.0,33.0,-1018.0,28.0
7.0,-252.0,1.0,74.0,10.0,-18.0,37.0,-1018.0,27.0
12.0,-250.0,2.0,73.0,10.0,-17.0,33.0,-1020.0,25.0
10.0,-252.0,-1.0,75.0,10.0,-17.0,35.0,-1017.0,22.0
10.0,-248.0,2.0,75.0,11.0,-15.0,40.0,-1022.0,26.0
10.0,-249.0,5.0,76.0,10.0,-16.0,37.0,-1016.0,31.0
9.0,-251.0,0.0,76.0,9.0,-15.0,29.0,-1022.0,31.0
5.0,-249.0,3.0,77.0,9.0,-13.0,30.0,-1021.0,29.0
4.0,-251.0,0.0,78.0,11.0,-13.0,33.0,-1024.0,27.0
9.0,-253.0,2.0,79.0,13.0,-13.0,28.0,-1023.0,34.0
9.0,-251.0,3.0,82.0,13.0,-13.0,29.0,-1026.0,28.0
6.0,-254.0,-1.0,84.0,13.0,-13.0,34.0,-1024.0,31.0
11.0,-254.0,-2.0,85.0,14.0,-14.0,32.0,-1019.0,27.0
9.0,-250.0,-3.0,87.0,14.0,-14.0,32.0,-1024.0,29.0
6.0,-253.0,4.0,89.0,14.0,-14.0,28.0,-1021.0,24.0
6.0,-252.0,0.0,90.0,16.0,-15.0,24.0,-1021.0,27.0
8.0,-253.0,2.0,92.0,16.0,-16.0,32.0,-1029.0,20.0
5.0,-251.0,-1.0,90.0,16.0,-15.0,27.0,-1021.0,27.0
7.0,-254.0,-2.0,90.0,16.0,-17.0,30.0,-1022.0,29.0
7.0,-250.0,0.0,91.0,16.0,-16.0,29.0,-1023.0,28.0
7.0,-253.0,-1.0,91.0,15.0,-14.0,24.0,-1019.0,28.0
10.0,-251.0,1.0,90.0,15.0,-16.0,32.0,-1020.0,29.0
9.0,-252.0,0.0,90.0,15.0,-15.0,31.0,-1021.0,25.0
8.0,-252.0,2.0,91.0,15.0,-15.0,32.0,-1020.0,26.0
9.0,-251.0,1.0,95.0,15.0,-15.0,31.0,-1023.0,26.0
9.0,-252.0,0.0,94.0,14.0,-15.0,34.0,-1018.0,29.0
9.0,-251.0,1.0,93.0,15.0,-17.0,31.0,-1025.0,21.0
10.0,-250.0,-1.0,93.0,14.0,-16.0,34.0,-1023.0,27.0
11.0,-256.0,1.0,92.0,14.0,-15.0,34.0,-1022.0,29.0
10.0,-254.0,3.0,91.0,14.0,-13.0,33.0,-1025.0,33.0
9.0,-249.0,1.0,89.0,15.0,-14.0,35.0,-1022.0,25.0
10.0,-252.0,0.0,85.0,15.0,-15.0,38.0,-1018.0,29.0
10.0,-250.0,3.0,84.0,15.0,-15.0,36.0,-1023.0,24.0
8.0,-252.0,5.0,80.0,15.0,-16.0,37.0,-1020.0,29.0
9.0,-253.0,1.0,79.0,16.0,-15.0,33.0,-1024.0,37.0
8.0,-252.0,1.0,78.0,14.0,-16.0,33.0,-1019.0,33.0
10.0,-250.0,0.0,76.0,15.0,-17.0,33.0,-1026.0,31.0
10.0,-253.0,2.0,77.0,17.0,-16.0,35.0,-1022.0,25.0
5.0,-251.0,5.0,77.0,16.0,-13.0,33.0,-1025.0,34.0
9.0,-251.0,8.0,78.0,16.0,-14.0,30.0,-1020.0,33.0
8.0,-253.0,2.0,81.0,17.0,-15.0,32.0,-1024.0,29.0
9.0,-253.0,2.0,83.0,16.0,-16.0,28.0,-1021.0,39.0
9.0,-251.0,2.0,84.0,16.0,-15.0,27.0,-1021.0,32.0
11.0,-255.0,5.0,83.0,16.0,-16.0,36.0,-1020.0,40.0
7.0,-255.0,1.0,83.0,15.0,-16.0,31.0,-1016.0,35.0
9.0,-254.0,-1.0,84.0,14.0,-15.0,29.0,-1025.0,35.0
10.0,-253.0,-2.0,83.0,14.0,-14.0,32.0,-1023.0,34.0
9.0,-252.0,4.0,83.0,12.0,-14.0,27.0,-1024.0,33.0
7.0,-250.0,1.0,83.0,12.0,-14.0,29.0,-1020.0,30.0
9.0,-250.0,6.0,83.0,10.0,-14.0,35.0,-1024.0,35.0
8.0,-253.0,0.0,81.0,10.0,-14.0,35.0,-1025.0,35.0
9.0,-252.0,2.0,81.0,10.0,-14.0,32.0,-1026.0,33.0
11.0,-254.0,0.0,82.0,9.0,-12.0,30.0,-1025.0,31.0
8.0,-254.0,3.0,82.0,9.0,-13.0,33.0,-1027.0,33.0
7.0,-252.0,4.0,84.0,9.0,-14.0,32.0,-1023.0,37.0
11.0,-254.0,4.0,87.0,10.0,-15.0,36.0,-1020.0,32.0
10.0,-255.0,8.0,86.0,10.0,-16.0,27.0,-1023.0,38.0
10.0,-254.0,3.0,89.0,10.0,-17.0,35.0,-1030.0,46.0
9.0,-251.0,9.0,92.0,10.0,-18.0,32.0,-1023.0,32.0
8.0,-250.0,5.0,94.0,10.0,-19.0,25.0,-1023.0,44.0
9.0,-251.0,3.0,94.0,8.0,-20.0,33.0,-1022.0,38.0
8.0,-254.0,7.0,95.0,10.0,-21.0,30.0,-1021.0,40.0
7.0,-254.0,-1.0,97.0,9.0,-21.0,29.0,-1024.0,44.0
7.0,-248.0,7.0,96.0,9.0,-23.0,31.0,-1021.0,40.0
11.0,-254.0,7.0,96.0,8.0,-25.0,30.0,-1026.0,41.0
7.0,-253.0,1.0,94.0,8.0,-25.0,27.0,-1023.0,44.0
6.0,-253.0,3.0,93.0,8.0,-25.0,28.0,-1024.0,45.0
6.0,-253.0,7.0,94.0,8.0,-27.0,29.0,-1021.0,44.0
8.0,-253.0,4.0,93.0,8.0,-26.0,28.0,-1024.0,44.0
5.0,-250.0,8.0,93.0,8.0,-27.0,27.0,-1024.0,40.0
8.0,-254.0,5.0,92.0,9.0,-27.0,28.0,-1025.0,43.0
5.0,-250.0,2.0,95.0,9.0,-24.0,27.0,-1024.0,34.0
6.0,-255.0,11.0,96.0,9.0,-23.0,26.0,-1024.0,39.0
8.0,-252.0,3.0,97.0,8.0,-23.0,25.0,-1018.0,42.0
7.0,-253.0,6.0,98.0,8.0,-21.0,28.0,-1018.0,40.0
8.0,-250.0,5.0,97.0,8.0,-18.0,29.0,-1018.0,44.0
7.0,-251.0,3.0,98.0,9.0,-17.0,31.0,-1011.0,45.0
8.0,-247.0,5.0,96.0,8.0,-20.0,27.0,-1013.0,45.0
7.0,-253.0,3.0,95.0,9.0,-17.0,29.0,-1016.0,49.0
8.0,-250.0,8.0,93.0,7.0,-15.0,36.0,-1016.0,47.0
9.0,-251.0,5.0,91.0,8.0,-13.0,27.0,-1017.0,39.0
9.0,-251.0,-2.0,87.0,7.0,-13.0,29.0,-1017.0,39.0
9.0,-254.0,4.0,84.0,6.0,-12.0,31.0,-1021.0,40.0
9.0,-253.0,3.0,83.0,7.0,-12.0,37.0,-1019.0,35.0
9.0,-251.0,5.0,84.0,8.0,-11.0,29.0,-1018.0,37.0
9.0,-250.0,5.0,85.0,10.0,-10.0,30.0,-1018.0,34.0
7.0,-251.0,3.0,85.0,9.0,-9.0,35.0,-1015.0,33.0
11.0,-251.0,2.0,85.0,8.0,-7.0,31.0,-1016.0,33.0
8.0,-251.0,0.0,85.0,8.0,-6.0,37.0,-1014.0,37.0
10.0,-249.0,-2.0,86.0,10.0,-5.0,33.0,-1013.0,38.0
8.0,-249.0,0.0,87.0,10.0,-6.0,38.0,-1014.0,37.0
11.0,-250.0,4.0,85.0,10.0,-7.0,38.0,-1014.0,36.0
12.0,-252.0,5.0,82.0,12.0,-8.0,38.0,-1015.0,35.0
13.0,-251.0,2.0,81.0,12.0,-9.0,46.0,-1008.0,46.0
9.0,-250.0,7.0,79.0,12.0,-9.0,39.0,-1017.0,38.0
11.0,-251.0,4.0,75.0,12.0,-11.0,42.0,-1022.0,35.0
10.0,-253.0,3.0,71.0,12.0,-11.0,35.0,-1019.0,40.0
8.0,-253.0,4.0,68.0,14.0,-12.0,43.0,-1024.0,44.0
12.0,-249.0,3.0,65.0,13.0,-13.0,41.0,-1024.0,40.0
10.0,-250.0,1.0,63.0,12.0,-14.0,46.0,-1019.0,48.0
11.0,-251.0,6.0,62.0,12.0,-16.0,35.0,-1026.0,38.0
10.0,-251.0,2.0,62.0,12.0,-15.0,38.0,-1026.0,43.0
9.0,-255.0,7.0,64.0,11.0,-16.0,37.0,-1037.0,45.0
11.0,-256.0,3.0,69.0,10.0,-13.0,39.0,-1034.0,49.0
11.0,-256.0,8.0,73.0,9.0,-13.0,33.0,-1038.0,47.0
7.0,-253.0,3.0,80.0,7.0,-12.0,34.0,-1037.0,49.0
7.0,-253.0,7.0,83.0,6.0,-12.0,39.0,-1024.0,43.0
12.0,-256.0,4.0,83.0,6.0,-11.0,33.0,-1025.0,34.0
8.0,-251.0,5.0,80.0,7.0,-12.0,37.0,-1026.0,46.0
11.0,-253.0,8.0,77.0,9.0,-11.0,34.0,-1023.0,49.0
10.0,-255.0,7.0,75.0,10.0,-11.0,34.0,-1027.0,52.0
9.0,-252.0,8.0,72.0,10.0,-9.0,34.0,-1026.0,53.0
9.0,-253.0,7.0,74.0,9.0,-10.0,26.0,-1032.0,55.0
9.0,-253.0,7.0,74.0,10.0,-10.0,31.0,-1034.0,55.0
9.0,-254.0,7.0,76.0,11.0,-12.0,29.0,-1037.0,57.0
9.0,-254.0,3.0,78.0,10.0,-12.0,33.0,-1032.0,53.0
10.0,-254.0,8.0,82.0,11.0,-15.0,39.0,-1034.0,60.0
8.0,-255.0,7.0,83.0,10.0,-15.0,41.0,-1031.0,64.0
10.0,-255.0,7.0,85.0,8.0,-16.0,30.0,-1033.0,63.0
10.0,-254.0,8.0,86.0,9.0,-17.0,34.0,-1033.0,63.0
11.0,-255.0,9.0,88.0,8.0,-17.0,37.0,-1033.0,56.0
8.0,-255.0,9.0,90.0,9.0,-18.0,35.0,-1024.0,58.0
7.0,-253.0,9.0,90.0,9.0,-19.0,32.0,-1028.0,60.0
11.0,-253.0,6.0,90.0,8.0,-19.0,38.0,-1026.0,59.0
10.0,-254.0,6.0,91.0,8.0,-18.0,36.0,-1026.0,59.0
11.0,-252.0,7.0,93.0,6.0,-18.0,33.0,-1027.0,55.0
7.0,-252.0,6.0,95.0,7.0,-19.0,34.0,-1024.0,55.0
9.0,-252.0,7.0,98.0,8.0,-20.0,33.0,-1022.0,55.0
9.0,-252.0,9.0,99.0,8.0,-20.0,32.0,-1029.0,56.0
9.0,-254.0,6.0,102.0,7.0,-19.0,37.0,-1028.0,52.0
9.0,-250.0,7.0,102.0,9.0,-20.0,36.0,-1022.0,59.0
12.0,-253.0,10.0,103.0,7.0,-22.0,30.0,-1025.0,62.0
11.0,-255.0,9.0,102.0,7.0,-25.0,40.0,-1024.0,56.0
9.0,-254.0,12.0,104.0,6.0,-25.0,34.0,-1027.0,57.0
10.0,-253.0,10.0,105.0,6.0,-25.0,36.0,-1029.0,64.0
12.0,-250.0,8.0,105.0,9.0,-25.0,33.0,-1023.0,58.0
9.0,-250.0,6.0,106.0,11.0,-23.0,31.0,-1024.0,57.0
10.0,-253.0,8.0,106.0,12.0,-23.0,37.0,-1021.0,60.0
7.0,-250.0,8.0,103.0,12.0,-21.0,33.0,-1023.0,62.0
12.0,-252.0,7.0,103.0,14.0,-21.0,34.0,-1023.0,65.0
7.0,-250.0,7.0,101.0,15.0,-23.0,39.0,-1024.0,60.0
11.0,-249.0,7.0,100.0,14.0,-22.0,27.0,-1021.0,59.0
9.0,-253.0,9.0,99.0,13.0,-22.0,34.0,-1020.0,60.0
11.0,-254.0,8.0,96.0,13.0,-21.0,40.0,-1023.0,55.0
7.0,-254.0,6.0,94.0,12.0,-19.0,35.0,-1023.0,57.0
9.0,-250.0,2.0,93.0,11.0,-19.0,37.0,-1019.0,56.0
10.0,-252.0,6.0,91.0,11.0,-19.0,35.0,-1022.0,58.0
13.0,-247.0,0.0,92.0,12.0,-17.0,37.0,-1019.0,58.0
8.0,-252.0,9.0,90.0,12.0,-18.0,32.0,-1020.0,59.0
8.0,-248.0,7.0,89.0,12.0,-18.0,36.0,-1021.0,63.0
11.0,-253.0,6.0,88.0,11.0,-17.0,36.0,-1024.0,57.0
11.0,-253.0,6.0,89.0,11.0,-18.0,40.0,-1022.0,57.0
11.0,-251.0,7.0,90.0,11.0,-19.0,37.0,-1022.0,61.0
13.0,-253.0,10.0,88.0,10.0,-19.0,34.0,-1019.0,59.0
10.0,-251.0,12.0,87.0,10.0,-20.0,31.0,-1021.0,57.0
12.0,-253.0,8.0,86.0,10.0,-20.0,32.0,-1023.0,55.0
9.0,-250.0,6.0,86.0,9.0,-20.0,32.0,-1024.0,64.0
10.0,-252.0,8.0,88.0,8.0,-21.0,32.0,-1024.0,58.0
11.0,-253.0,8.0,88.0,7.0,-23.0,36.0,-1023.0,58.0
10.0,-251.0,8.0,91.0,6.0,-23.0,42.0,-1029.0,57.0
11.0,-254.0,9.0,93.0,9.0,-24.0,40.0,-1029.0,63.0
11.0,-248.0,8.0,95.0,12.0,-25.0,38.0,-1019.0,59.0
10.0,-254.0,8.0,95.0,12.0,-24.0,31.0,-1023.0,60.0
10.0,-250.0,7.0,96.0,10.0,-21.0,32.0,-1019.0,56.0
9.0,-247.0,8.0,96.0,9.0,-17.0,31.0,-1019.0,59.0
9.0,-254.0,7.0,95.0,10.0,-18.0,36.0,-1015.0,50.0
7.0,-251.0,9.0,92.0,10.0,-15.0,37.0,-1017.0,59.0
12.0,-251.0,9.0,88.0,10.0,-15.0,36.0,-1023.0,58.0
11.0,-253.0,9.0,84.0,13.0,-15.0,41.0,-1018.0,60.0
12.0,-254.0,10.0,81.0,12.0,-18.0,37.0,-1022.0,64.0
11.0,-251.0,8.0,76.0,11.0,-19.0,40.0,-1029.0,60.0
10.0,-255.0,11.0,72.0,12.0,-18.0,34.0,-1025.0,64.0
8.0,-254.0,9.0,69.0,12.0,-18.0,36.0,-1026.0,62.0
10.0,-255.0,13.0,67.0,13.0,-18.0,36.0,-1039.0,65.0
7.0,-253.0,13.0,70.0,12.0,-18.0,35.0,-1032.0,66.0
9.0,-257.0,8.0,75.0,13.0,-19.0,39.0,-1033.0,65.0
10.0,-253.0,9.0,80.0,13.0,-20.0,39.0,-1036.0,67.0
10.0,-254.0,11.0,88.0,13.0,-21.0,40.0,-1039.0,66.0
10.0,-255.0,12.0,93.0,12.0,-22.0,41.0,-1030.0,71.0
11.0,-254.0,11.0,100.0,11.0,-23.0,39.0,-1031.0,68.0
8.0,-254.0,9.0,106.0,11.0,-23.0,37.0,-1028.0,68.0
12.0,-256.0,11.0,110.0,10.0,-25.0,31.0,-1024.0,68.0
12.0,-251.0,7.0,114.0,10.0,-25.0,37.0,-1026.0,65.0
11.0,-254.0,6.0,115.0,9.0,-24.0,35.0,-1026.0,71.0
9.0,-251.0,10.0,115.0,10.0,-26.0,34.0,-1021.0,69.0
9.0,-252.0,12.0,114.0,10.0,-26.0,38.0,-1022.0,61.0
9.0,-251.0,11.0,112.0,10.0,-25.0,35.0,-1018.0,66.0
12.0,-251.0,9.0,108.0,9.0,-23.0,35.0,-1020.0,68.0
13.0,-254.0,11.0,107.0,10.0,-22.0,36.0,-1019.0,65.0
9.0,-253.0,9.0,106.0,10.0,-22.0,33.0,-1018.0,70.0
10.0,-250.0,9.0,105.0,11.0,-23.0,38.0,-1017.0,64.0
12.0,-249.0,9.0,104.0,11.0,-23.0,36.0,-1021.0,67.0
12.0,-251.0,8.0,101.0,11.0,-26.0,35.0,-1020.0,64.0
10.0,-252.0,10.0,102.0,11.0,-25.0,37.0,-1022.0,68.0
12.0,-250.0,12.0,101.0,11.0,-24.0,34.0,-1026.0,67.0
11.0,-251.0,9.0,102.0,11.0,-23.0,35.0,-1023.0,72.0
11.0,-255.0,11.0,100.0,13.0,-24.0,37.0,-1020.0,67.0
10.0,-255.0,10.0,99.0,15.0,-24.0,37.0,-1019.0,70.0
11.0,-252.0,9.0,100.0,15.0,-24.0,37.0,-1023.0,71.0
12.0,-250.0,14.0,100.0,16.0,-23.0,38.0,-1016.0,71.0
10.0,-252.0,12.0,99.0,17.0,-22.0,33.0,-1020.0,74.0
13.0,-250.0,11.0,99.0,18.0,-23.0,41.0,-1022.0,73.0
8.0,-247.0,11.0,97.0,17.0,-23.0,36.0,-1015.0,73.0
13.0,-250.0,9.0,97.0,19.0,-20.0,37.0,-1021.0,74.0
14.0,-251.0,12.0,95.0,18.0,-21.0,39.0,-1021.0,70.0
12.0,-249.0,9.0,95.0,19.0,-19.0,44.0,-1026.0,71.0
13.0,-250.0,9.0,95.0,19.0,-20.0,39.0,-1024.0,67.0
10.0,-255.0,9.0,96.0,20.0,-20.0,37.0,-1025.0,69.0
9.0,-254.0,11.0,97.0,21.0,-22.0,35.0,-1022.0,73.0
11.0,-251.0,11.0,97.0,20.0,-22.0,39.0,-1025.0,68.0
14.0,-255.0,11.0,96.0,19.0,-22.0,46.0,-1029.0,73.0
11.0,-252.0,8.0,95.0,17.0,-23.0,45.0,-1030.0,70.0
15.0,-255.0,9.0,95.0,17.0,-24.0,42.0,-1018.0,78.0
10.0,-251.0,12.0,97.0,18.0,-25.0,43.0,-1024.0,71.0
7.0,-249.0,12.0,99.0,20.0,-24.0,46.0,-1022.0,69.0
11.0,-251.0,9.0,101.0,18.0,-25.0,47.0,-1024.0,74.0
13.0,-249.0,11.0,104.0,19.0,-23.0,47.0,-1023.0,69.0
13.0,-251.0,9.0,106.0,19.0,-23.0,49.0,-1019.0,72.0
15.0,-253.0,13.0,107.0,20.0,-23.0,45.0,-1032.0,71.0
13.0,-254.0,10.0,109.0,19.0,-24.0,44.0,-1024.0,71.0
11.0,-252.0,10.0,108.0,21.0,-24.0,45.0,-1020.0,75.0
10.0,-253.0,9.0,109.0,21.0,-26.0,41.0,-1018.0,74.0
13.0,-251.0,11.0,110.0,19.0,-24.0,44.0,-1022.0,74.0
13.0,-252.0,9.0,111.0,20.0,-24.0,43.0,-1022.0,76.0
12.0,-251.0,15.0,113.0,19.0,-24.0,39.0,-1023.0,74.0
11.0,-251.0,12.0,114.0,17.0,-22.0,45.0,-1025.0,71.0
13.0,-253.0,9.0,116.0,16.0,-20.0,42.0,-1020.0,76.0
13.0,-251.0,11.0,116.0,16.0,-18.0,37.0,-1019.0,75.0
13.0,-251.0,12.0,121.0,14.0,-16.0,40.0,-1019.0,74.0
10.0,-252.0,10.0,123.0,13.0,-18.0,44.0,-1018.0,74.0
9.0,-250.0,12.0,125.0,14.0,-18.0,43.0,-1019.0,82.0
12.0,-254.0,10.0,124.0,14.0,-16.0,39.0,-1018.0,72.0
15.0,-252.0,13.0,124.0,14.0,-14.0,45.0,-1021.0,79.0
13.0,-250.0,14.0,124.0,13.0,-13.0,42.0,-1028.0,75.0
12.0,-252.0,13.0,124.0,12.0,-13.0,40.0,-1019.0,76.0
13.0,-248.0,13.0,124.0,13.0,-13.0,41.0,-1012.0,80.0
14.0,-249.0,12.0,123.0,14.0,-13.0,49.0,-1011.0,79.0
15.0,-250.0,13.0,126.0,13.0,-15.0,49.0,-1014.0,73.0
14.0,-253.0,9.0,127.0,13.0,-17.0,55.0,-1015.0,79.0
17.0,-249.0,11.0,126.0,13.0,-14.0,56.0,-1018.0,81.0
17.0,-251.0,15.0,127.0,15.0,-16.0,48.0,-1014.0,82.0
14.0,-250.0,10.0,127.0,13.0,-13.0,38.0,-1016.0,85.0
10.0,-250.0,12.0,125.0,13.0,-9.0,37.0,-1015.0,79.0
11.0,-251.0,14.0,121.0,13.0,-6.0,39.0,-1021.0,82.0
10.0,-252.0,13.0,119.0,11.0,-4.0,39.0,-1025.0,81.0
12.0,-252.0,12.0,116.0,10.0,-3.0,38.0,-1025.0,82.0
9.0,-251.0,14.0,114.0,9.0,-5.0,38.0,-1017.0,78.0
13.0,-251.0,11.0,114.0,8.0,-4.0,40.0,-1023.0,79.0
12.0,-251.0,10.0,113.0,10.0,-5.0,39.0,-1019.0,82.0
11.0,-249.0,11.0,110.0,12.0,-5.0,44.0,-1020.0,81.0
10.0,-253.0,17.0,107.0,15.0,-7.0,39.0,-1026.0,80.0
12.0,-253.0,10.0,104.0,17.0,-8.0,38.0,-1023.0,76.0
12.0,-255.0,14.0,101.0,17.0,-12.0,38.0,-1026.0,92.0
16.0,-253.0,12.0,100.0,18.0,-14.0,45.0,-1024.0,89.0
13.0,-255.0,14.0,100.0,17.0,-18.0,43.0,-1027.0,94.0
10.0,-252.0,14.0,100.0,16.0,-22.0,36.0,-1023.0,96.0
8.0,-252.0,17.0,99.0,14.0,-20.0,23.0,-1025.0,87.0
7.0,-253.0,16.0,99.0,12.0,-17.0,18.0,-1025.0,97.0
7.0,-255.0,17.0,100.0,7.0,-17.0,27.0,-1025.0,96.0
12.0,-254.0,12.0,102.0,6.0,-16.0,33.0,-1026.0,94.0
11.0,-254.0,16.0,105.0,5.0,-17.0,33.0,-1021.0,86.0
11.0,-254.0,10.0,112.0,4.0,-20.0,35.0,-1026.0,87.0
12.0,-250.0,16.0,118.0,5.0,-22.0,34.0,-1017.0,78.0
12.0,-252.0,13.0,123.0,5.0,-20.0,33.0,-1025.0,84.0
15.0,-249.0,11.0,126.0,6.0,-21.0,36.0,-1022.0,87.0
11.0,-250.0,12.0,126.0,8.0,-20.0,41.0,-1021.0,89.0
12.0,-251.0,12.0,125.0,9.0,-20.0,44.0,-1024.0,91.0
12.0,-251.0,16.0,124.0,10.0,-20.0,44.0,-1021.0,93.0
11.0,-252.0,16.0,123.0,11.0,-20.0,45.0,-1022.0,93.0
11.0,-251.0,15.0,122.0,13.0,-19.0,45.0,-1024.0,96.0
14.0,-254.0,13.0,123.0,15.0,-17.0,41.0,-1022.0,93.0
11.0,-254.0,16.0,122.0,16.0,-16.0,39.0,-1022.0,96.0
11.0,-253.0,15.0,119.0,18.0,-14.0,40.0,-1025.0,99.0
9.0,-254.0,19.0,119.0,18.0,-14.0,38.0,-1020.0,110.0
11.0,-255.0,21.0,119.0,18.0,-16.0,38.0,-1026.0,103.0
7.0,-254.0,19.0,121.0,19.0,-16.0,33.0,-1029.0,102.0
10.0,-254.0,18.0,125.0,17.0,-17.0,37.0,-1031.0,101.0
10.0,-253.0,17.0,127.0,18.0,-18.0,38.0,-1024.0,100.0
10.0,-252.0,21.0,128.0,18.0,-21.0,41.0,-1025.0,102.0
12.0,-253.0,17.0,131.0,19.0,-24.0,44.0,-1025.0,103.0
13.0,-252.0,20.0,137.0,19.0,-27.0,46.0,-1028.0,107.0
10.0,-252.0,17.0,142.0,19.0,-27.0,44.0,-1028.0,111.0
12.0,-255.0,20.0,148.0,20.0,-28.0,42.0,-1035.0,107.0
16.0,-257.0,16.0,154.0,18.0,-26.0,46.0,-1027.0,103.0
14.0,-255.0,19.0,160.0,17.0,-25.0,42.0,-1025.0,101.0
14.0,-253.0,19.0,163.0,18.0,-25.0,44.0,-1021.0,100.0
14.0,-252.0,14.0,164.0,18.0,-22.0,48.0,-1018.0,98.0
13.0,-248.0,15.0,159.0,20.0,-21.0,48.0,-1019.0,104.0
14.0,-247.0,19.0,153.0,22.0,-22.0,47.0,-1019.0,100.0
15.0,-251.0,18.0,146.0,22.0,-23.0,49.0,-1017.0,101.0
15.0,-252.0,18.0,142.0,23.0,-24.0,47.0,-1018.0,101.0
13.0,-255.0,19.0,137.0,21.0,-25.0,46.0,-1019.0,109.0
12.0,-251.0,19.0,135.0,21.0,-26.0,44.0,-1021.0,108.0
11.0,-249.0,22.0,133.0,23.0,-27.0,46.0,-1020.0,111.0
12.0,-252.0,21.0,133.0,23.0,-26.0,44.0,-1020.0,118.0
11.0,-251.0,21.0,135.0,26.0,-29.0,46.0,-1024.0,113.0
14.0,-251.0,23.0,137.0,25.0,-31.0,47.0,-1027.0,122.0
19.0,-253.0,26.0,140.0,26.0,-35.0,69.0,-1035.0,120.0
17.0,-255.0,22.0,145.0,27.0,-40.0,51.0,-1025.0,123.0
13.0,-253.0,21.0,150.0,25.0,-40.0,48.0,-1023.0,132.0
9.0,-253.0,23.0,152.0,23.0,-35.0,39.0,-1026.0,137.0
13.0,-257.0,22.0,156.0,23.0,-32.0,36.0,-1026.0,123.0
11.0,-254.0,25.0,157.0,21.0,-30.0,38.0,-1027.0,127.0
15.0,-255.0,21.0,158.0,22.0,-29.0,48.0,-1024.0,123.0
12.0,-249.0,25.0,158.0,22.0,-30.0,52.0,-1021.0,123.0
14.0,-250.0,20.0,156.0,22.0,-31.0,51.0,-1024.0,118.0
17.0,-254.0,24.0,157.0,23.0,-29.0,49.0,-1027.0,120.0
14.0,-252.0,25.0,159.0,24.0,-29.0,49.0,-1025.0,123.0
15.0,-254.0,22.0,161.0,26.0,-27.0,48.0,-1027.0,118.0
13.0,-255.0,23.0,163.0,27.0,-27.0,48.0,-1023.0,118.0
14.0,-254.0,26.0,163.0,28.0,-25.0,50.0,-1024.0,121.0
12.0,-253.0,22.0,162.0,28.0,-23.0,48.0,-1025.0,118.0
16.0,-255.0,22.0,162.0,31.0,-24.0,47.0,-1021.0,115.0
15.0,-251.0,23.0,162.0,31.0,-24.0,54.0,-1026.0,129.0
14.0,-255.0,23.0,164.0,30.0,-24.0,50.0,-1024.0,122.0
14.0,-250.0,22.0,167.0,34.0,-21.0,48.0,-1020.0,122.0
16.0,-251.0,24.0,169.0,36.0,-21.0,52.0,-1021.0,117.0
16.0,-252.0,24.0,170.0,37.0,-18.0,53.0,-1021.0,122.0
18.0,-252.0,24.0,172.0,39.0,-18.0,52.0,-1019.0,118.0
16.0,-253.0,22.0,174.0,41.0,-16.0,55.0,-1017.0,121.0
14.0,-253.0,23.0,174.0,41.0,-15.0,54.0,-1020.0,120.0
15.0,-252.0,20.0,175.0,41.0,-13.0,57.0,-1022.0,120.0
17.0,-251.0,20.0,176.0,42.0,-13.0,53.0,-1017.0,115.0
16.0,-249.0,20.0,176.0,44.0,-14.0,50.0,-1017.0,122.0
15.0,-249.0,20.0,177.0,43.0,-13.0,48.0,-1022.0,123.0
12.0,-248.0,19.0,178.0,44.0,-13.0,49.0,-1022.0,117.0
13.0,-250.0,24.0,176.0,45.0,-13.0,46.0,-1020.0,114.0
15.0,-251.0,24.0,175.0,44.0,-11.0,48.0,-1021.0,119.0
13.0,-251.0,22.0,175.0,44.0,-11.0,51.0,-1016.0,117.0
12.0,-251.0,21.0,177.0,42.0,-11.0,47.0,-1017.0,111.0
13.0,-249.0,23.0,178.0,43.0,-12.0,43.0,-1021.0,116.0
8.0,-253.0,21.0,178.0,43.0,-10.0,40.0,-1023.0,121.0
14.0,-251.0,27.0,179.0,43.0,-10.0,38.0,-1024.0,120.0
13.0,-251.0,23.0,179.0,42.0,-12.0,43.0,-1022.0,120.0
13.0,-251.0,26.0,182.0,40.0,-12.0,46.0,-1024.0,121.0
12.0,-251.0,20.0,184.0,40.0,-14.0,41.0,-1017.0,122.0
11.0,-252.0,27.0,188.0,40.0,-14.0,40.0,-1024.0,120.0
12.0,-249.0,22.0,190.0,38.0,-17.0,41.0,-1016.0,126.0
10.0,-250.0,21.0,191.0,36.0,-16.0,43.0,-1015.0,126.0
27.0,-244.0,27.0,194.0,34.0,-17.0,36.0,-1017.0,125.0
9.0,-249.0,23.0,196.0,31.0,-18.0,40.0,-1018.0,120.0
7.0,-250.0,21.0,198.0,29.0,-18.0,40.0,-1018.0,113.0
11.0,-250.0,20.0,200.0,27.0,-18.0,38.0,-1008.0,115.0
9.0,-251.0,21.0,201.0,25.0,-15.0,29.0,-1013.0,121.0
7.0,-248.0,24.0,200.0,24.0,-17.0,38.0,-1007.0,118.0
13.0,-248.0,22.0,201.0,23.0,-18.0,30.0,-1005.0,119.0
9.0,-248.0,19.0,200.0,23.0,-17.0,27.0,-1008.0,118.0
7.0,-247.0,23.0,202.0,23.0,-16.0,36.0,-1008.0,117.0
11.0,-251.0,25.0,206.0,24.0,-14.0,39.0,-1008.0,125.0
12.0,-247.0,23.0,207.0,26.0,-16.0,37.0,-1006.0,125.0
12.0,-249.0,27.0,209.0,25.0,-15.0,36.0,-1009.0,130.0
11.0,-250.0,29.0,212.0,25.0,-16.0,43.0,-1012.0,129.0
8.0,-252.0,29.0,213.0,24.0,-17.0,37.0,-1012.0,139.0
13.0,-250.0,30.0,212.0,23.0,-18.0,44.0,-1017.0,132.0
11.0,-251.0,25.0,209.0,22.0,-20.0,38.0,-1014.0,141.0
12.0,-252.0,23.0,209.0,21.0,-20.0,34.0,-1015.0,136.0
7.0,-251.0,30.0,205.0,19.0,-20.0,34.0,-1016.0,140.0
11.0,-249.0,29.0,202.0,19.0,-22.0,39.0,-1018.0,133.0
13.0,-251.0,25.0,200.0,20.0,-24.0,41.0,-1011.0,136.0
10.0,-250.0,28.0,200.0,23.0,-23.0,38.0,-1016.0,137.0
12.0,-251.0,28.0,202.0,23.0,-26.0,41.0,-1017.0,132.0
10.0,-248.0,30.0,203.0,23.0,-26.0,41.0,-1010.0,134.0
11.0,-250.0,25.0,207.0,22.0,-24.0,38.0,-1012.0,143.0
11.0,-250.0,25.0,210.0,21.0,-23.0,39.0,-1012.0,143.0
9.0,-250.0,30.0,211.0,21.0,-24.0,37.0,-1011.0,145.0
9.0,-248.0,29.0,213.0,20.0,-24.0,32.0,-1011.0,140.0
12.0,-245.0,28.0,215.0,19.0,-25.0,35.0,-1010.0,150.0
12.0,-248.0,31.0,218.0,20.0,-27.0,31.0,-1009.0,152.0
11.0,-247.0,29.0,223.0,20.0,-25.0,35.0,-1002.0,149.0
15.0,-252.0,29.0,224.0,19.0,-23.0,33.0,-1006.0,142.0
15.0,-255.0,31.0,222.0,18.0,-20.0,41.0,-1008.0,145.0
13.0,-249.0,33.0,220.0,18.0,-21.0,42.0,-1011.0,153.0
12.0,-249.0,32.0,218.0,18.0,-20.0,44.0,-1015.0,150.0
13.0,-248.0,33.0,217.0,18.0,-20.0,38.0,-1014.0,160.0
11.0,-250.0,32.0,219.0,19.0,-23.0,48.0,-1009.0,158.0
12.0,-249.0,34.0,222.0,20.0,-23.0,41.0,-1002.0,155.0
17.0,-248.0,32.0,224.0,22.0,-24.0,42.0,-1004.0,158.0
13.0,-245.0,36.0,224.0,22.0,-21.0,34.0,-1003.0,154.0
15.0,-247.0,34.0,221.0,24.0,-20.0,40.0,-1007.0,156.0
14.0,-249.0,27.0,219.0,24.0,-19.0,43.0,-1006.0,158.0
13.0,-247.0,29.0,216.0,25.0,-19.0,47.0,-1004.0,156.0
15.0,-248.0,41.0,216.0,27.0,-19.0,43.0,-1008.0,162.0
9.0,-247.0,35.0,215.0,29.0,-18.0,39.0,-1006.0,165.0
12.0,-247.0,34.0,217.0,28.0,-18.0,35.0,-1007.0,162.0
11.0,-249.0,34.0,214.0,28.0,-16.0,35.0,-1007.0,158.0
11.0,-249.0,34.0,212.0,27.0,-16.0,38.0,-1007.0,161.0
8.0,-249.0,37.0,210.0,29.0,-17.0,39.0,-1009.0,162.0
9.0,-247.0,34.0,207.0,30.0,-17.0,40.0,-1006.0,171.0
14.0,-251.0,34.0,208.0,33.0,-18.0,39.0,-1015.0,168.0
11.0,-250.0,34.0,210.0,32.0,-19.0,41.0,-1018.0,172.0
13.0,-250.0,35.0,214.0,36.0,-20.0,47.0,-1017.0,180.0
14.0,-253.0,37.0,221.0,39.0,-23.0,48.0,-1016.0,182.0
14.0,-252.0,38.0,231.0,41.0,-24.0,47.0,-1024.0,184.0
14.0,-252.0,40.0,236.0,42.0,-25.0,40.0,-1023.0,181.0
12.0,-254.0,41.0,240.0,43.0,-25.0,45.0,-1021.0,183.0
10.0,-251.0,38.0,241.0,44.0,-23.0,44.0,-1029.0,185.0
15.0,-252.0,38.0,243.0,44.0,-25.0,43.0,-1018.0,185.0
12.0,-253.0,42.0,246.0,45.0,-25.0,43.0,-1027.0,186.0
12.0,-253.0,41.0,250.0,44.0,-24.0,38.0,-1021.0,192.0
11.0,-252.0,38.0,257.0,45.0,-26.0,39.0,-1021.0,202.0
12.0,-252.0,41.0,265.0,47.0,-25.0,41.0,-1022.0,192.0
14.0,-250.0,41.0,274.0,51.0,-28.0,46.0,-1018.0,197.0
14.0,-249.0,41.0,281.0,56.0,-30.0,44.0,-1012.0,195.0
31.0,-249.0,43.0,285.0,60.0,-30.0,82.0,-1009.0,198.0
10.0,-249.0,41.0,290.0,66.0,-34.0,34.0,-1015.0,192.0
10.0,-251.0,43.0,284.0,64.0,-29.0,35.0,-1008.0,189.0
12.0,-249.0,44.0,281.0,64.0,-27.0,44.0,-1009.0,197.0
11.0,-247.0,42.0,285.0,66.0,-24.0,40.0,-1006.0,201.0
13.0,-248.0,43.0,291.0,69.0,-23.0,39.0,-1006.0,205.0
12.0,-245.0,45.0,297.0,71.0,-23.0,38.0,-1009.0,207.0
11.0,-249.0,46.0,301.0,74.0,-21.0,30.0,-997.0,210.0
12.0,-245.0,42.0,301.0,74.0,-15.0,40.0,-1009.0,213.0
15.0,-244.0,49.0,301.0,74.0,-15.0,41.0,-1005.0,214.0
13.0,-247.0,41.0,299.0,74.0,-13.0,45.0,-1001.0,213.0
12.0,-245.0,45.0,299.0,75.0,-10.0,40.0,-1002.0,216.0
17.0,-248.0,46.0,297.0,77.0,-9.0,38.0,-1001.0,213.0
21.0,-248.0,47.0,295.0,80.0,-9.0,64.0,-1003.0,220.0
6.0,-244.0,45.0,304.0,91.0,-19.0,27.0,-998.0,213.0
7.0,-249.0,44.0,304.0,89.0,-10.0,34.0,-1012.0,215.0
14.0,-249.0,49.0,293.0,86.0,-8.0,43.0,-1005.0,223.0
14.0,-247.0,48.0,291.0,84.0,-7.0,50.0,-1018.0,223.0
15.0,-247.0,53.0,292.0,85.0,-6.0,41.0,-1006.0,223.0
11.0,-251.0,53.0,294.0,85.0,-8.0,47.0,-1017.0,232.0
16.0,-249.0,48.0,294.0,86.0,-8.0,41.0,-1009.0,224.0
12.0,-248.0,48.0,296.0,83.0,-9.0,45.0,-1010.0,234.0
23.0,-245.0,55.0,305.0,89.0,-14.0,85.0,-994.0,251.0
15.0,-246.0,53.0,324.0,96.0,-25.0,67.0,-1006.0,244.0
10.0,-245.0,46.0,330.0,100.0,-25.0,30.0,-1000.0,220.0
5.0,-248.0,42.0,324.0,94.0,-21.0,21.0,-999.0,206.0
16.0,-248.0,47.0,309.0,84.0,-16.0,39.0,-1010.0,208.0
17.0,-248.0,48.0,307.0,83.0,-18.0,48.0,-1008.0,221.0
16.0,-245.0,53.0,315.0,87.0,-25.0,50.0,-1008.0,223.0
13.0,-248.0,49.0,322.0,90.0,-31.0,50.0,-1003.0,232.0
14.0,-247.0,55.0,327.0,93.0,-33.0,48.0,-1005.0,230.0
15.0,-247.0,53.0,334.0,97.0,-33.0,49.0,-1005.0,233.0
37.0,-245.0,59.0,347.0,106.0,-40.0,108.0,-995.0,274.0
16.0,-247.0,52.0,376.0,124.0,-46.0,56.0,-1011.0,256.0
8.0,-250.0,53.0,383.0,126.0,-39.0,14.0,-1009.0,242.0
14.0,-246.0,52.0,375.0,118.0,-24.0,46.0,-1003.0,247.0
11.0,-246.0,54.0,372.0,117.0,-22.0,26.0,-1005.0,240.0
8.0,-247.0,53.0,373.0,117.0,-16.0,33.0,-1002.0,243.0
13.0,-246.0,50.0,374.0,116.0,-15.0,37.0,-1001.0,231.0
19.0,-244.0,54.0,375.0,120.0,-18.0,62.0,-999.0,241.0
13.0,-243.0,50.0,379.0,128.0,-21.0,48.0,-1005.0,244.0
19.0,-250.0,56.0,380.0,131.0,-19.0,55.0,-1006.0,250.0
19.0,-251.0,58.0,388.0,133.0,-22.0,54.0,-1010.0,256.0
11.0,-251.0,59.0,407.0,138.0,-23.0,35.0,-1017.0,266.0
14.0,-250.0,61.0,424.0,138.0,-22.0,43.0,-1008.0,271.0
8.0,-251.0,58.0,445.0,144.0,-25.0,29.0,-1012.0,270.0
12.0,-248.0,64.0,457.0,146.0,-24.0,32.0,-1018.0,264.0
8.0,-250.0,57.0,466.0,153.0,-26.0,33.0,-1021.0,270.0
14.0,-248.0,58.0,472.0,161.0,-28.0,36.0,-1013.0,273.0
12.0,-250.0,62.0,477.0,170.0,-32.0,34.0,-1022.0,273.0
7.0,-250.0,62.0,484.0,176.0,-33.0,31.0,-1014.0,275.0
10.0,-254.0,66.0,490.0,177.0,-30.0,28.0,-1024.0,281.0
9.0,-251.0,62.0,499.0,177.0,-28.0,29.0,-1013.0,284.0
5.0,-247.0,66.0,509.0,180.0,-29.0,21.0,-1015.0,282.0
10.0,-249.0,61.0,517.0,187.0,-30.0,26.0,-1017.0,288.0
7.0,-251.0,65.0,526.0,194.0,-33.0,21.0,-1011.0,280.0
4.0,-250.0,66.0,535.0,201.0,-38.0,15.0,-1014.0,285.0
8.0,-250.0,66.0,540.0,210.0,-40.0,19.0,-1008.0,290.0
13.0,-248.0,59.0,546.0,215.0,-43.0,30.0,-1007.0,289.0
13.0,-248.0,64.0,556.0,221.0,-53.0,28.0,-1004.0,277.0
14.0,-250.0,58.0,560.0,226.0,-54.0,33.0,-1004.0,268.0
10.0,-246.0,52.0,551.0,228.0,-59.0,22.0,-1012.0,260.0
12.0,-250.0,59.0,540.0,223.0,-57.0,35.0,-1011.0,256.0
10.0,-249.0,59.0,532.0,219.0,-58.0,36.0,-1010.0,260.0
13.0,-250.0,55.0,532.0,217.0,-58.0,33.0,-1017.0,263.0
14.0,-251.0,59.0,534.0,216.0,-57.0,36.0,-1015.0,259.0
12.0,-255.0,63.0,533.0,223.0,-57.0,37.0,-1026.0,260.0
10.0,-250.0,61.0,532.0,226.0,-53.0,39.0,-1027.0,262.0
13.0,-254.0,61.0,530.0,230.0,-51.0,48.0,-1038.0,269.0
16.0,-257.0,58.0,533.0,234.0,-44.0,61.0,-1035.0,265.0
17.0,-254.0,59.0,535.0,239.0,-39.0,66.0,-1040.0,257.0
20.0,-257.0,55.0,543.0,245.0,-34.0,74.0,-1050.0,255.0
23.0,-260.0,55.0,550.0,251.0,-25.0,61.0,-1054.0,241.0
13.0,-255.0,54.0,551.0,260.0,-13.0,50.0,-1046.0,235.0
11.0,-254.0,49.0,547.0,267.0,-1.0,42.0,-1037.0,228.0
8.0,-256.0,48.0,533.0,270.0,16.0,28.0,-1040.0,214.0
8.0,-254.0,51.0,512.0,268.0,35.0,29.0,-1037.0,215.0
9.0,-257.0,46.0,493.0,268.0,50.0,25.0,-1036.0,210.0
8.0,-253.0,50.0,483.0,270.0,58.0,18.0,-1024.0,219.0
4.0,-250.0,45.0,478.0,273.0,54.0,24.0,-1021.0,217.0
2.0,-250.0,41.0,473.0,276.0,52.0,10.0,-1006.0,210.0
4.0,-247.0,41.0,462.0,277.0,59.0,13.0,-1020.0,196.0
4.0,-248.0,42.0,442.0,278.0,63.0,1.0,-997.0,199.0
1.0,-247.0,38.0,426.0,274.0,61.0,-4.0,-1004.0,196.0
5.0,-243.0,39.0,408.0,273.0,52.0,12.0,-997.0,187.0
6.0,-240.0,37.0,393.0,278.0,54.0,20.0,-994.0,186.0
1.0,-246.0,37.0,376.0,292.0,59.0,-5.0,-999.0,174.0
1.0,-246.0,35.0,349.0,296.0,64.0,3.0,-1003.0,168.0
1.0,-245.0,32.0,325.0,300.0,63.0,0.0,-1004.0,157.0
15.0,-242.0,35.0,314.0,312.0,55.0,34.0,-979.0,172.0
13.0,-242.0,39.0,318.0,340.0,53.0,31.0,-991.0,168.0
13.0,-246.0,31.0,321.0,362.0,59.0,40.0,-989.0,159.0
17.0,-244.0,31.0,325.0,381.0,65.0,48.0,-987.0,159.0
22.0,-239.0,33.0,331.0,398.0,65.0,74.0,-971.0,166.0
22.0,-233.0,34.0,346.0,422.0,60.0,78.0,-956.0,164.0
28.0,-227.0,39.0,366.0,450.0,59.0,87.0,-937.0,179.0
38.0,-224.0,38.0,402.0,486.0,53.0,136.0,-917.0,172.0
23.0,-219.0,28.0,444.0,536.0,37.0,70.0,-898.0,164.0
20.0,-222.0,31.0,444.0,575.0,59.0,59.0,-914.0,145.0
15.0,-216.0,28.0,417.0,603.0,77.0,29.0,-891.0,134.0
4.0,-213.0,26.0,402.0,621.0,94.0,-2.0,-881.0,121.0
-3.0,-213.0,21.0,400.0,636.0,102.0,-14.0,-864.0,127.0
-9.0,-210.0,16.0,401.0,646.0,105.0,-35.0,-862.0,96.0
-4.0,-207.0,20.0,384.0,661.0,104.0,-3.0,-848.0,109.0
-13.0,-200.0,13.0,378.0,677.0,89.0,-67.0,-816.0,88.0
-20.0,-202.0,5.0,367.0,680.0,90.0,-85.0,-845.0,53.0
-20.0,-203.0,8.0,334.0,691.0,91.0,-83.0,-834.0,50.0
-20.0,-200.0,7.0,310.0,703.0,87.0,-89.0,-816.0,39.0
-21.0,-197.0,-2.0,302.0,715.0,81.0,-80.0,-813.0,20.0
-13.0,-195.0,-3.0,298.0,723.0,70.0,-63.0,-790.0,10.0
-5.0,-189.0,-2.0,290.0,732.0,60.0,-33.0,-765.0,11.0
-9.0,-183.0,-9.0,281.0,746.0,47.0,-41.0,-743.0,-7.0
-15.0,-178.0,-13.0,263.0,758.0,35.0,-58.0,-721.0,-15.0
-17.0,-172.0,-17.0,239.0,767.0,37.0,-62.0,-712.0,-45.0
-10.0,-176.0,-14.0,203.0,769.0,39.0,-62.0,-709.0,-32.0
-10.0,-175.0,-17.0,180.0,768.0,41.0,-26.0,-709.0,-54.0
-10.0,-181.0,-14.0,164.0,772.0,44.0,-44.0,-722.0,-49.0
-1.0,-167.0,-14.0,173.0,771.0,30.0,7.0,-658.0,-26.0
3.0,-173.0,-22.0,219.0,773.0,24.0,17.0,-713.0,-65.0
2.0,-163.0,1.0,235.0,802.0,30.0,23.0,-656.0,-2.0
7.0,-161.0,1.0,286.0,810.0,26.0,35.0,-649.0,11.0
8.0,-159.0,-8.0,349.0,830.0,17.0,30.0,-641.0,-1.0
-2.0,-157.0,-10.0,379.0,863.0,24.0,0.0,-641.0,-35.0
-3.0,-155.0,-23.0,365.0,881.0,45.0,-14.0,-642.0,-64.0
-3.0,-154.0,-27.0,337.0,891.0,67.0,-8.0,-631.0,-76.0
1.0,-156.0,-30.0,314.0,900.0,83.0,0.0,-632.0,-86.0
0.0,-161.0,-30.0,312.0,913.0,97.0,-3.0,-655.0,-91.0
-4.0,-169.0,-31.0,322.0,923.0,116.0,-18.0,-682.0,-92.0
-10.0,-178.0,-22.0,329.0,924.0,144.0,-12.0,-710.0,-95.0
-4.0,-179.0,-26.0,338.0,919.0,175.0,-20.0,-723.0,-85.0
-4.0,-179.0,-20.0,361.0,916.0,205.0,-16.0,-732.0,-67.0
-4.0,-180.0,-27.0,409.0,911.0,235.0,-12.0,-719.0,-52.0
-4.0,-180.0,-16.0,472.0,903.0,256.0,-15.0,-720.0,-42.0
-3.0,-175.0,-12.0,538.0,891.0,275.0,0.0,-706.0,-31.0
1.0,-176.0,-10.0,601.0,880.0,285.0,7.0,-704.0,-18.0
-3.0,-177.0,-3.0,665.0,864.0,292.0,-1.0,-708.0,7.0
-7.0,-179.0,1.0,734.0,846.0,295.0,-27.0,-711.0,24.0
-9.0,-181.0,9.0,804.0,830.0,301.0,-40.0,-720.0,47.0
-7.0,-185.0,9.0,875.0,828.0,308.0,-50.0,-739.0,72.0
-16.0,-183.0,9.0,959.0,840.0,313.0,-62.0,-744.0,75.0
-17.0,-183.0,13.0,1017.0,860.0,317.0,-78.0,-743.0,71.0
-25.0,-176.0,14.0,1056.0,878.0,322.0,-91.0,-721.0,80.0
-26.0,-172.0,19.0,1075.0,889.0,328.0,-100.0,-701.0,88.0
-24.0,-168.0,19.0,1081.0,887.0,332.0,-107.0,-682.0,104.0
-23.0,-163.0,26.0,1086.0,872.0,332.0,-95.0,-665.0,119.0
-23.0,-160.0,28.0,1091.0,841.0,332.0,-90.0,-645.0,146.0
-20.0,-157.0,35.0,1103.0,801.0,333.0,-82.0,-642.0,168.0
-18.0,-159.0,32.0,1123.0,759.0,338.0,-87.0,-645.0,178.0
-25.0,-159.0,39.0,1147.0,716.0,349.0,-100.0,-649.0,193.0
-28.0,-168.0,49.0,1187.0,677.0,374.0,-117.0,-673.0,212.0
-33.0,-175.0,59.0,1257.0,640.0,413.0,-143.0,-705.0,252.0
-35.0,-188.0,66.0,1373.0,598.0,472.0,-143.0,-746.0,282.0
-28.0,-196.0,65.0,1530.0,568.0,543.0,-122.0,-774.0,274.0
-17.0,-201.0,58.0,1702.0,563.0,623.0,-98.0,-797.0,254.0
-4.0,-205.0,51.0,1868.0,585.0,700.0,-38.0,-810.0,242.0
14.0,-206.0,59.0,2022.0,633.0,764.0,28.0,-819.0,258.0
22.0,-206.0,70.0,2182.0,687.0,816.0,67.0,-821.0,306.0
24.0,-200.0,73.0,2346.0,732.0,869.0,78.0,-817.0,334.0
14.0,-200.0,74.0,2485.0,750.0,929.0,45.0,-808.0,333.0
3.0,-202.0,78.0,2571.0,737.0,986.0,5.0,-807.0,340.0
-25.0,-199.0,84.0,2613.0,706.0,1034.0,-78.0,-812.0,373.0
-41.0,-206.0,110.0,2620.0,659.0,1076.0,-147.0,-824.0,420.0
-85.0,-204.0,128.0,2625.0,601.0,1118.0,-349.0,-845.0,553.0
-91.0,-222.0,145.0,2648.0,515.0,1176.0,-371.0,-915.0,612.0
-114.0,-233.0,164.0,2671.0,438.0,1217.0,-474.0,-939.0,696.0
-129.0,-240.0,209.0,2738.0,356.0,1271.0,-543.0,-944.0,874.0
-104.0,-251.0,216.0,2904.0,261.0,1297.0,-411.0,-998.0,922.0
-46.0,-262.0,222.0,3096.0,210.0,1250.0,-186.0,-1074.0,951.0
9.0,-297.0,242.0,3284.0,224.0,1163.0,1.0,-1182.0,1033.0
-80.0,-308.0,295.0,3495.0,277.0,1068.0,-317.0,-1220.0,1224.0
-118.0,-323.0,348.0,3751.0,221.0,1085.0,-501.0,-1286.0,1453.0
-59.0,-331.0,364.0,3988.0,43.0,1101.0,-228.0,-1346.0,1531.0
-15.0,-341.0,383.0,4168.0,-71.0,1035.0,-111.0,-1374.0,1588.0
-28.0,-335.0,435.0,4366.0,-95.0,1015.0,-185.0,-1348.0,1798.0
-22.0,-354.0,480.0,4622.0,-91.0,1029.0,-131.0,-1406.0,1961.0
-66.0,-348.0,536.0,4889.0,-92.0,998.0,-274.0,-1423.0,2156.0
-104.0,-336.0,597.0,5097.0,-164.0,967.0,-466.0,-1379.0,2459.0
-77.0,-314.0,657.0,5295.0,-269.0,977.0,-397.0,-1288.0,2691.0
-66.0,-264.0,701.0,5468.0,-331.0,968.0,-352.0,-1123.0,2871.0
-33.0,-224.0,694.0,5555.0,-337.0,928.0,-263.0,-970.0,2873.0
-32.0,-185.0,683.0,5501.0,-235.0,859.0,-220.0,-803.0,2807.0
-72.0,-126.0,644.0,5318.0,-60.0,718.0,-344.0,-584.0,2629.0
-153.0,-35.0,602.0,5055.0,116.0,576.0,-714.0,-173.0,2457.0
-222.0,31.0,598.0,4748.0,196.0,551.0,-947.0,62.0,2465.0
-254.0,65.0,613.0,4478.0,164.0,607.0,-1106.0,212.0,2492.0
-304.0,89.0,572.0,4293.0,118.0,674.0,-1315.0,311.0,2296.0
-343.0,122.0,460.0,4113.0,97.0,753.0,-1434.0,419.0,1883.0
-339.0,127.0,381.0,3866.0,43.0,833.0,-1398.0,461.0,1572.0
-375.0,145.0,323.0,3594.0,-61.0,845.0,-1516.0,541.0,1340.0
-394.0,151.0,290.0,3452.0,-178.0,840.0,-1590.0,573.0,1228.0
-394.0,158.0,272.0,3379.0,-319.0,825.0,-1590.0,607.0,1103.0
-389.0,170.0,258.0,3339.0,-476.0,772.0,-1558.0,678.0,1060.0
-376.0,193.0,247.0,3317.0,-669.0,695.0,-1509.0,754.0,1021.0
-369.0,215.0,259.0,3251.0,-917.0,609.0,-1455.0,828.0,1050.0
-358.0,231.0,256.0,3136.0,-1222.0,498.0,-1422.0,882.0,1041.0
-322.0,250.0,252.0,2950.0,-1572.0,360.0,-1294.0,952.0,1055.0
-295.0,266.0,277.0,2708.0,-1889.0,171.0,-1216.0,1024.0,1136.0
-256.0,265.0,277.0,2443.0,-2093.0,-6.0,-1064.0,1003.0,1152.0
-218.0,242.0,281.0,2161.0,-2189.0,-187.0,-952.0,966.0,1172.0
-184.0,228.0,264.0,1869.0,-2213.0,-377.0,-790.0,860.0,1100.0
-144.0,200.0,243.0,1571.0,-2174.0,-564.0,-635.0,745.0,985.0
-137.0,163.0,244.0,1262.0,-2083.0,-715.0,-610.0,578.0,1016.0
-131.0,118.0,219.0,988.0,-1971.0,-807.0,-548.0,427.0,906.0
-103.0,79.0,167.0,743.0,-1903.0,-811.0,-458.0,284.0,718.0
-90.0,65.0,141.0,517.0,-1869.0,-731.0,-371.0,221.0,582.0
-46.0,59.0,129.0,303.0,-1864.0,-562.0,-191.0,194.0,551.0
4.0,56.0,132.0,111.0,-1884.0,-384.0,11.0,173.0,560.0
57.0,63.0,136.0,-68.0,-1894.0,-250.0,175.0,204.0,583.0
65.0,75.0,145.0,-248.0,-1858.0,-173.0,242.0,259.0,595.0
80.0,77.0,143.0,-422.0,-1825.0,-93.0,317.0,284.0,619.0
120.0,72.0,140.0,-549.0,-1795.0,-33.0,421.0,282.0,610.0
141.0,66.0,142.0,-604.0,-1718.0,-27.0,503.0,259.0,595.0
155.0,62.0,134.0,-593.0,-1562.0,-44.0,555.0,250.0,568.0
152.0,60.0,139.0,-544.0,-1307.0,-43.0,545.0,229.0,584.0
145.0,51.0,151.0,-469.0,-1013.0,-8.0,531.0,200.0,622.0
139.0,51.0,161.0,-386.0,-742.0,56.0,502.0,200.0,661.0
127.0,51.0,162.0,-310.0,-508.0,124.0,465.0,191.0,690.0
114.0,54.0,165.0,-246.0,-303.0,174.0,410.0,194.0,683.0
93.0,56.0,168.0,-198.0,-127.0,205.0,338.0,204.0,697.0
64.0,55.0,167.0,-155.0,8.0,212.0,234.0,204.0,709.0
34.0,59.0,172.0,-118.0,95.0,200.0,127.0,221.0,705.0
6.0,65.0,169.0,-92.0,160.0,180.0,-1.0,248.0,708.0
-17.0,72.0,174.0,-79.0,204.0,154.0,-93.0,275.0,712.0
-36.0,80.0,172.0,-68.0,219.0,122.0,-160.0,303.0,707.0
-60.0,89.0,169.0,-47.0,207.0,86.0,-252.0,339.0,712.0
-71.0,91.0,173.0,-26.0,175.0,59.0,-301.0,360.0,720.0
-74.0,97.0,174.0,-12.0,121.0,39.0,-321.0,379.0,724.0
-74.0,106.0,179.0,-7.0,58.0,16.0,-313.0,404.0,739.0
-67.0,109.0,187.0,-17.0,-10.0,-9.0,-295.0,428.0,780.0
-52.0,112.0,199.0,-28.0,-74.0,-41.0,-234.0,428.0,811.0
-34.0,113.0,203.0,-44.0,-134.0,-85.0,-160.0,430.0,853.0
-11.0,114.0,214.0,-70.0,-185.0,-137.0,-77.0,429.0,892.0
12.0,108.0,225.0,-104.0,-225.0,-207.0,13.0,422.0,924.0
32.0,107.0,232.0,-150.0,-259.0,-262.0,81.0,415.0,969.0
47.0,101.0,245.0,-209.0,-294.0,-309.0,154.0,383.0,1009.0
49.0,90.0,257.0,-276.0,-327.0,-338.0,161.0,354.0,1062.0
51.0,78.0,264.0,-342.0,-362.0,-347.0,160.0,308.0,1102.0
58.0,68.0,273.0,-415.0,-402.0,-356.0,188.0,264.0,1131.0
59.0,62.0,275.0,-450.0,-432.0,-365.0,192.0,231.0,1161.0
60.0,58.0,281.0,-457.0,-450.0,-367.0,203.0,206.0,1188.0
70.0,56.0,289.0,-452.0,-462.0,-357.0,231.0,202.0,1204.0
66.0,60.0,294.0,-443.0,-464.0,-350.0,219.0,217.0,1243.0
74.0,62.0,306.0,-430.0,-458.0,-340.0,250.0,246.0,1269.0
81.0,68.0,313.0,-403.0,-426.0,-333.0,271.0,263.0,1296.0
88.0,74.0,324.0,-376.0,-386.0,-331.0,290.0,280.0,1331.0
87.0,85.0,328.0,-364.0,-342.0,-337.0,283.0,316.0,1364.0
90.0,84.0,332.0,-362.0,-285.0,-346.0,289.0,333.0,1381.0
84.0,93.0,325.0,-353.0,-204.0,-361.0,290.0,362.0,1335.0
102.0,101.0,304.0,-341.0,-131.0,-386.0,348.0,383.0,1258.0
114.0,108.0,281.0,-335.0,-77.0,-433.0,407.0,411.0,1183.0
122.0,112.0,280.0,-353.0,-51.0,-500.0,430.0,427.0,1175.0
110.0,109.0,280.0,-394.0,5.0,-546.0,380.0,406.0,1152.0
90.0,87.0,297.0,-442.0,118.0,-530.0,302.0,334.0,1222.0
71.0,58.0,324.0,-410.0,261.0,-479.0,256.0,241.0,1317.0
53.0,41.0,330.0,-279.0,373.0,-420.0,161.0,174.0,1382.0
45.0,32.0,328.0,-108.0,410.0,-365.0,130.0,127.0,1355.0
41.0,24.0,325.0,38.0,402.0,-312.0,129.0,88.0,1337.0
40.0,14.0,319.0,128.0,389.0,-261.0,125.0,38.0,1330.0
46.0,-1.0,322.0,165.0,394.0,-209.0,126.0,3.0,1302.0
51.0,-5.0,311.0,158.0,427.0,-146.0,125.0,-41.0,1276.0
52.0,-11.0,302.0,115.0,476.0,-81.0,161.0,-74.0,1241.0
58.0,-18.0,292.0,40.0,525.0,-28.0,182.0,-99.0,1217.0
52.0,-21.0,284.0,-48.0,570.0,19.0,163.0,-119.0,1188.0
37.0,-25.0,277.0,-138.0,606.0,55.0,111.0,-129.0,1156.0
8.0,-27.0,266.0,-224.0,631.0,85.0,18.0,-134.0,1126.0
-2.0,-30.0,265.0,-302.0,642.0,114.0,-47.0,-138.0,1111.0
-16.0,-29.0,260.0,-370.0,633.0,129.0,-86.0,-130.0,1090.0
-25.0,-23.0,257.0,-423.0,609.0,114.0,-111.0,-116.0,1066.0
-31.0,-17.0,250.0,-468.0,579.0,87.0,-134.0,-88.0,1041.0
-32.0,-15.0,247.0,-513.0,546.0,64.0,-141.0,-86.0,1012.0
-32.0,-16.0,236.0,-559.0,515.0,48.0,-164.0,-69.0,993.0
-40.0,-19.0,233.0,-603.0,489.0,46.0,-193.0,-82.0,973.0
-44.0,-23.0,231.0,-634.0,463.0,57.0,-206.0,-104.0,966.0
-50.0,-35.0,229.0,-653.0,434.0,72.0,-221.0,-145.0,952.0
-49.0,-52.0,231.0,-654.0,407.0,94.0,-230.0,-210.0,973.0
-51.0,-68.0,234.0,-632.0,371.0,116.0,-231.0,-274.0,981.0
-47.0,-83.0,236.0,-586.0,335.0,134.0,-216.0,-334.0,989.0
-44.0,-97.0,237.0,-528.0,302.0,141.0,-210.0,-382.0,994.0
-48.0,-102.0,247.0,-461.0,274.0,141.0,-204.0,-424.0,1009.0
-50.0,-105.0,237.0,-383.0,249.0,136.0,-217.0,-435.0,1008.0
-48.0,-107.0,243.0,-298.0,226.0,125.0,-212.0,-429.0,1007.0
-50.0,-100.0,246.0,-211.0,204.0,105.0,-215.0,-407.0,1007.0
-48.0,-93.0,237.0,-126.0,184.0,93.0,-219.0,-385.0,1017.0
-46.0,-86.0,239.0,-42.0,164.0,86.0,-206.0,-348.0,1004.0
-40.0,-78.0,242.0,34.0,146.0,77.0,-202.0,-322.0,1012.0
-41.0,-71.0,243.0,114.0,128.0,73.0,-194.0,-278.0,1003.0
-36.0,-63.0,240.0,165.0,113.0,73.0,-185.0,-242.0,1010.0
-37.0,-52.0,240.0,210.0,100.0,71.0,-173.0,-219.0,1008.0
-30.0,-51.0,243.0,257.0,86.0,71.0,-164.0,-186.0,1003.0
-32.0,-48.0,238.0,301.0,65.0,73.0,-161.0,-181.0,1017.0
-36.0,-40.0,242.0,339.0,39.0,73.0,-157.0,-170.0,1019.0
-30.0,-40.0,244.0,363.0,17.0,73.0,-156.0,-167.0,1022.0
-32.0,-42.0,245.0,375.0,-1.0,71.0,-152.0,-168.0,1022.0
-29.0,-39.0,244.0,375.0,-17.0,68.0,-150.0,-178.0,1028.0
-32.0,-40.0,244.0,354.0,-23.0,64.0,-149.0,-179.0,1025.0
-33.0,-42.0,251.0,313.0,-18.0,67.0,-143.0,-179.0,1039.0
-31.0,-49.0,258.0,268.0,-13.0,66.0,-160.0,-203.0,1062.0
-40.0,-53.0,260.0,239.0,-20.0,54.0,-175.0,-217.0,1082.0
-35.0,-53.0,261.0,204.0,-31.0,43.0,-174.0,-226.0,1088.0
-37.0,-49.0,264.0,153.0,-27.0,42.0,-172.0,-236.0,1098.0
-39.0,-53.0,265.0,101.0,-13.0,41.0,-175.0,-234.0,1108.0
-35.0,-56.0,267.0,51.0,3.0,39.0,-173.0,-240.0,1113.0
-37.0,-55.0,263.0,3.0,19.0,32.0,-172.0,-246.0,1105.0
-36.0,-54.0,261.0,-38.0,37.0,25.0,-170.0,-245.0,1105.0
-37.0,-57.0,263.0,-74.0,50.0,17.0,-179.0,-246.0,1111.0
-37.0,-57.0,265.0,-100.0,54.0,9.0,-184.0,-240.0,1101.0
-40.0,-56.0,264.0,-118.0,51.0,3.0,-196.0,-232.0,1101.0
-40.0,-56.0,265.0,-129.0,45.0,-2.0,-193.0,-227.0,1093.0
-39.0,-57.0,259.0,-130.0,36.0,-7.0,-196.0,-228.0,1092.0
-42.0,-55.0,258.0,-122.0,23.0,-8.0,-199.0,-231.0,1079.0
-41.0,-56.0,255.0,-110.0,11.0,-10.0,-198.0,-229.0,1068.0
-41.0,-56.0,259.0,-91.0,-2.0,-12.0,-190.0,-231.0,1069.0
-39.0,-57.0,255.0,-74.0,-14.0,-15.0,-185.0,-234.0,1060.0
-38.0,-58.0,255.0,-56.0,-26.0,-15.0,-184.0,-239.0,1057.0
-39.0,-58.0,254.0,-39.0,-36.0,-15.0,-178.0,-243.0,1054.0
-36.0,-60.0,254.0,-20.0,-46.0,-14.0,-175.0,-245.0,1057.0
-36.0,-62.0,252.0,-3.0,-55.0,-12.0,-178.0,-253.0,1054.0
-38.0,-58.0,251.0,15.0,-60.0,-14.0,-173.0,-240.0,1050.0
-32.0,-60.0,254.0,35.0,-63.0,-14.0,-174.0,-234.0,1052.0
-31.0,-57.0,253.0,53.0,-66.0,-13.0,-156.0,-229.0,1059.0
-29.0,-52.0,256.0,68.0,-69.0,-14.0,-155.0,-219.0,1057.0
-35.0,-50.0,249.0,80.0,-67.0,-14.0,-157.0,-212.0,1051.0
-28.0,-47.0,252.0,93.0,-64.0,-13.0,-154.0,-203.0,1052.0
-25.0,-46.0,253.0,104.0,-64.0,-13.0,-138.0,-191.0,1053.0
-27.0,-44.0,249.0,113.0,-61.0,-14.0,-142.0,-179.0,1056.0
-27.0,-39.0,252.0,122.0,-56.0,-15.0,-131.0,-163.0,1051.0
-24.0,-41.0,251.0,129.0,-48.0,-13.0,-121.0,-158.0,1050.0
-20.0,-35.0,253.0,135.0,-43.0,-13.0,-123.0,-149.0,1045.0
-21.0,-32.0,252.0,136.0,-36.0,-11.0,-120.0,-139.0,1045.0
-21.0,-29.0,252.0,139.0,-30.0,-7.0,-121.0,-126.0,1045.0
-22.0,-26.0,249.0,140.0,-27.0,-3.0,-120.0,-119.0,1051.0
-19.0,-25.0,250.0,143.0,-24.0,2.0,-117.0,-119.0,1039.0
-19.0,-25.0,248.0,143.0,-24.0,6.0,-119.0,-99.0,1040.0
-23.0,-23.0,247.0,141.0,-24.0,14.0,-115.0,-91.0,1036.0
-22.0,-23.0,254.0,141.0,-23.0,23.0,-116.0,-87.0,1041.0
-24.0,-17.0,250.0,135.0,-25.0,30.0,-123.0,-75.0,1043.0
-24.0,-15.0,248.0,131.0,-26.0,38.0,-125.0,-69.0,1049.0
-25.0,-13.0,252.0,128.0,-30.0,46.0,-136.0,-62.0,1051.0
-28.0,-11.0,254.0,124.0,-37.0,51.0,-142.0,-56.0,1055.0
-30.0,-9.0,251.0,120.0,-42.0,57.0,-144.0,-56.0,1058.0
-26.0,-8.0,252.0,116.0,-48.0,60.0,-141.0,-49.0,1062.0
-28.0,-7.0,256.0,112.0,-53.0,61.0,-141.0,-52.0,1064.0
-32.0,-11.0,255.0,113.0,-59.0,64.0,-140.0,-46.0,1069.0
-29.0,-9.0,258.0,116.0,-68.0,68.0,-141.0,-49.0,1072.0
-28.0,-11.0,256.0,119.0,-76.0,65.0,-140.0,-52.0,1079.0
-27.0,-7.0,255.0,123.0,-84.0,60.0,-136.0,-50.0,1080.0
-30.0,-8.0,262.0,125.0,-93.0,54.0,-137.0,-48.0,1080.0
-24.0,-6.0,262.0,128.0,-101.0,48.0,-136.0,-46.0,1086.0
-26.0,-9.0,263.0,127.0,-110.0,43.0,-123.0,-46.0,1095.0
-25.0,-8.0,263.0,128.0,-121.0,37.0,-128.0,-44.0,1089.0
-23.0,-4.0,267.0,130.0,-133.0,31.0,-120.0,-43.0,1091.0
-23.0,-5.0,266.0,130.0,-141.0,27.0,-115.0,-42.0,1094.0
-21.0,-4.0,264.0,130.0,-150.0,24.0,-109.0,-34.0,1100.0
-18.0,-5.0,264.0,126.0,-157.0,23.0,-106.0,-35.0,1099.0
-14.0,-4.0,265.0,123.0,-163.0,20.0,-95.0,-34.0,1097.0
-16.0,-5.0,264.0,122.0,-166.0,17.0,-90.0,-33.0,1092.0
-10.0,-4.0,265.0,121.0,-169.0,15.0,-85.0,-20.0,1097.0
-8.0,-3.0,263.0,122.0,-170.0,11.0,-75.0,-26.0,1096.0
-4.0,-4.0,263.0,121.0,-168.0,8.0,-61.0,-28.0,1094.0
-5.0,-6.0,261.0,120.0,-167.0,5.0,-47.0,-22.0,1098.0
-5.0,-1.0,262.0,120.0,-164.0,-1.0,-40.0,-19.0,1100.0
-2.0,-4.0,264.0,119.0,-159.0,-4.0,-36.0,-20.0,1098.0
-1.0,-3.0,263.0,115.0,-152.0,-6.0,-31.0,-21.0,1098.0
1.0,-2.0,263.0,111.0,-146.0,-5.0,-25.0,-25.0,1101.0
4.0,-5.0,263.0,105.0,-139.0,-7.0,-23.0,-33.0,1098.0
0.0,-6.0,264.0,97.0,-131.0,-5.0,-19.0,-36.0,1095.0
5.0,-5.0,265.0,87.0,-124.0,-8.0,-14.0,-37.0,1092.0
12.0,-6.0,269.0,75.0,-116.0,-8.0,-11.0,-44.0,1096.0
7.0,-7.0,266.0,60.0,-106.0,-8.0,-13.0,-49.0,1097.0
3.0,-9.0,262.0,45.0,-97.0,-7.0,-12.0,-52.0,1093.0
6.0,-8.0,263.0,29.0,-87.0,-6.0,-7.0,-52.0,1095.0
5.0,-10.0,264.0,12.0,-77.0,-8.0,-10.0,-56.0,1099.0
5.0,-11.0,262.0,-2.0,-67.0,-7.0,-12.0,-60.0,1090.0
3.0,-13.0,263.0,-17.0,-56.0,-6.0,-13.0,-60.0,1092.0
2.0,-14.0,263.0,-30.0,-48.0,-8.0,-11.0,-69.0,1090.0
5.0,-18.0,263.0,-42.0,-37.0,-7.0,-16.0,-77.0,1087.0
3.0,-18.0,263.0,-51.0,-28.0,-8.0,-10.0,-79.0,1088.0
4.0,-17.0,263.0,-60.0,-18.0,-9.0,-16.0,-83.0,1080.0
1.0,-22.0,263.0,-66.0,-9.0,-11.0,-14.0,-90.0,1088.0
2.0,-21.0,261.0,-69.0,2.0,-12.0,-20.0,-97.0,1084.0
1.0,-23.0,261.0,-72.0,12.0,-12.0,-20.0,-100.0,1076.0
-1.0,-21.0,258.0,-72.0,18.0,-15.0,-21.0,-106.0,1072.0
5.0,-27.0,262.0,-71.0,26.0,-17.0,-28.0,-113.0,1071.0
-3.0,-25.0,259.0,-68.0,32.0,-19.0,-25.0,-118.0,1072.0
-2.0,-29.0,256.0,-62.0,40.0,-21.0,-29.0,-125.0,1069.0
-2.0,-30.0,253.0,-54.0,46.0,-25.0,-37.0,-121.0,1070.0
-1.0,-30.0,257.0,-46.0,52.0,-29.0,-41.0,-135.0,1065.0
-3.0,-30.0,256.0,-41.0,57.0,-31.0,-37.0,-131.0,1062.0
-6.0,-28.0,254.0,-34.0,61.0,-33.0,-42.0,-140.0,1060.0
-3.0,-34.0,258.0,-30.0,63.0,-34.0,-44.0,-142.0,1054.0
-6.0,-30.0,250.0,-27.0,67.0,-37.0,-48.0,-143.0,1051.0
-4.0,-32.0,252.0,-23.0,69.0,-38.0,-49.0,-147.0,1052.0
-4.0,-32.0,253.0,-20.0,71.0,-38.0,-54.0,-146.0,1053.0
-4.0,-33.0,251.0,-18.0,73.0,-41.0,-53.0,-144.0,1049.0
-7.0,-37.0,251.0,-14.0,74.0,-39.0,-59.0,-153.0,1056.0
-5.0,-36.0,251.0,-13.0,76.0,-40.0,-57.0,-159.0,1061.0
-5.0,-36.0,251.0,-10.0,76.0,-42.0,-62.0,-152.0,1055.0
-7.0,-39.0,252.0,-8.0,76.0,-43.0,-62.0,-161.0,1057.0
-6.0,-37.0,255.0,-7.0,78.0,-44.0,-58.0,-159.0,1056.0
-4.0,-38.0,254.0,-5.0,78.0,-45.0,-67.0,-160.0,1055.0
-12.0,-38.0,254.0,-3.0,80.0,-42.0,-73.0,-166.0,1055.0
-12.0,-38.0,251.0,0.0,78.0,-40.0,-78.0,-162.0,1061.0
-12.0,-39.0,254.0,3.0,77.0,-35.0,-77.0,-166.0,1059.0
-12.0,-40.0,251.0,7.0,78.0,-36.0,-79.0,-162.0,1056.0
-13.0,-41.0,251.0,10.0,77.0,-35.0,-87.0,-165.0,1060.0
-15.0,-37.0,251.0,16.0,76.0,-32.0,-89.0,-167.0,1059.0
-16.0,-38.0,253.0,23.0,76.0,-29.0,-91.0,-161.0,1060.0
-15.0,-40.0,258.0,29.0,76.0,-27.0,-97.0,-160.0,1061.0
-17.0,-37.0,258.0,36.0,75.0,-26.0,-101.0,-163.0,1064.0
-18.0,-38.0,255.0,41.0,75.0,-24.0,-104.0,-161.0,1062.0
-19.0,-35.0,256.0,48.0,73.0,-20.0,-110.0,-159.0,1063.0
-21.0,-34.0,254.0,56.0,70.0,-19.0,-107.0,-157.0,1064.0
-21.0,-34.0,251.0,63.0,70.0,-18.0,-113.0,-155.0,1062.0
-25.0,-33.0,255.0,69.0,67.0,-16.0,-113.0,-152.0,1061.0
-22.0,-34.0,255.0,78.0,66.0,-16.0,-119.0,-149.0,1061.0
-23.0,-34.0,254.0,85.0,63.0,-12.0,-125.0,-142.0,1058.0
-25.0,-34.0,254.0,92.0,59.0,-12.0,-122.0,-145.0,1058.0
-23.0,-32.0,253.0,97.0,55.0,-12.0,-126.0,-141.0,1063.0
-26.0,-35.0,257.0,101.0,51.0,-7.0,-132.0,-141.0,1067.0
-28.0,-32.0,260.0,103.0,46.0,-6.0,-136.0,-128.0,1069.0
-31.0,-29.0,258.0,104.0,39.0,-5.0,-133.0,-135.0,1066.0
-28.0,-29.0,260.0,103.0,35.0,-4.0,-133.0,-132.0,1073.0
-27.0,-27.0,259.0,101.0,30.0,-4.0,-136.0,-124.0,1071.0
-26.0,-29.0,258.0,100.0,26.0,-4.0,-138.0,-126.0,1075.0
-26.0,-31.0,260.0,104.0,22.0,-3.0,-136.0,-130.0,1076.0
-24.0,-33.0,255.0,111.0,18.0,-7.0,-127.0,-124.0,1066.0
-25.0,-29.0,256.0,121.0,15.0,-7.0,-131.0,-124.0,1062.0
-22.0,-27.0,254.0,131.0,8.0,-8.0,-135.0,-120.0,1057.0
-27.0,-23.0,256.0,140.0,1.0,-7.0,-130.0,-112.0,1051.0
-23.0,-25.0,250.0,148.0,-5.0,-6.0,-124.0,-110.0,1051.0
-23.0,-23.0,253.0,157.0,-9.0,-6.0,-125.0,-104.0,1043.0
-25.0,-23.0,255.0,162.0,-12.0,-2.0,-121.0,-99.0,1053.0
-21.0,-20.0,262.0,165.0,-13.0,-1.0,-120.0,-92.0,1062.0
-21.0,-18.0,256.0,165.0,-15.0,0.0,-115.0,-87.0,1061.0
-23.0,-19.0,257.0,163.0,-14.0,2.0,-116.0,-86.0,1061.0
-20.0,-18.0,257.0,157.0,-13.0,3.0,-116.0,-85.0,1064.0
-19.0,-15.0,255.0,148.0,-13.0,5.0,-113.0,-80.0,1063.0
-19.0,-20.0,258.0,137.0,-11.0,4.0,-104.0,-81.0,1067.0
-19.0,-17.0,261.0,130.0,-8.0,4.0,-103.0,-77.0,1073.0
-16.0,-14.0,261.0,122.0,-6.0,5.0,-96.0,-72.0,1071.0
-16.0,-14.0,258.0,112.0,-4.0,4.0,-103.0,-81.0,1079.0
-11.0,-15.0,259.0,106.0,-3.0,5.0,-94.0,-76.0,1078.0
-14.0,-17.0,262.0,100.0,-2.0,5.0,-91.0,-73.0,1075.0
-14.0,-15.0,258.0,93.0,-2.0,5.0,-90.0,-82.0,1086.0
-15.0,-16.0,262.0,87.0,-3.0,4.0,-93.0,-79.0,1083.0
-13.0,-17.0,260.0,79.0,-3.0,3.0,-89.0,-80.0,1083.0
-13.0,-18.0,256.0,71.0,-5.0,0.0,-88.0,-84.0,1081.0
-10.0,-17.0,258.0,65.0,-6.0,0.0,-77.0,-85.0,1087.0
-10.0,-17.0,256.0,59.0,-6.0,-1.0,-77.0,-82.0,1083.0
-9.0,-18.0,261.0,54.0,-8.0,-1.0,-79.0,-82.0,1087.0
-11.0,-15.0,261.0,48.0,-9.0,-1.0,-71.0,-81.0,1087.0
-10.0,-17.0,259.0,44.0,-8.0,-3.0,-71.0,-89.0,1073.0
-11.0,-18.0,258.0,39.0,-9.0,-4.0,-77.0,-92.0,1082.0
-9.0,-18.0,258.0,35.0,-9.0,-4.0,-71.0,-90.0,1077.0
-10.0,-21.0,257.0,32.0,-9.0,-7.0,-70.0,-90.0,1078.0
-8.0,-21.0,260.0,28.0,-10.0,-7.0,-73.0,-87.0,1076.0
-6.0,-21.0,257.0,24.0,-9.0,-8.0,-69.0,-86.0,1070.0
-8.0,-18.0,259.0,22.0,-11.0,-9.0,-69.0,-88.0,1074.0
-7.0,-20.0,259.0,17.0,-12.0,-10.0,-71.0,-91.0,1071.0
-11.0,-21.0,259.0,15.0,-12.0,-10.0,-71.0,-99.0,1074.0
-9.0,-19.0,257.0,11.0,-12.0,-12.0,-74.0,-96.0,1066.0
-8.0,-22.0,254.0,7.0,-12.0,-12.0,-67.0,-101.0,1070.0
-7.0,-23.0,257.0,4.0,-12.0,-14.0,-70.0,-101.0,1069.0
-10.0,-21.0,253.0,3.0,-10.0,-15.0,-68.0,-105.0,1062.0
-8.0,-24.0,259.0,0.0,-8.0,-16.0,-75.0,-107.0,1064.0
-6.0,-26.0,259.0,0.0,-6.0,-15.0,-72.0,-107.0,1072.0
-11.0,-25.0,259.0,1.0,-4.0,-15.0,-69.0,-113.0,1069.0
-13.0,-24.0,255.0,1.0,-3.0,-15.0,-69.0,-114.0,1065.0
-7.0,-23.0,256.0,2.0,-1.0,-15.0,-71.0,-116.0,1071.0
-9.0,-27.0,257.0,4.0,0.0,-16.0,-76.0,-115.0,1068.0
-12.0,-26.0,259.0,5.0,2.0,-15.0,-72.0,-115.0,1066.0
-5.0,-26.0,257.0,8.0,3.0,-16.0,-66.0,-116.0,1067.0
-7.0,-28.0,255.0,10.0,5.0,-13.0,-80.0,-115.0,1068.0
-11.0,-23.0,257.0,12.0,7.0,-15.0,-75.0,-119.0,1070.0
-11.0,-25.0,253.0,15.0,8.0,-16.0,-80.0,-122.0,1064.0
-11.0,-27.0,256.0,15.0,8.0,-16.0,-81.0,-117.0,1066.0
-12.0,-27.0,258.0,17.0,9.0,-15.0,-80.0,-120.0,1069.0
-8.0,-29.0,261.0,19.0,9.0,-15.0,-75.0,-115.0,1069.0
-13.0,-24.0,256.0,20.0,9.0,-16.0,-79.0,-119.0,1073.0
-10.0,-26.0,255.0,21.0,9.0,-16.0,-82.0,-119.0,1070.0
-13.0,-26.0,256.0,21.0,9.0,-17.0,-79.0,-116.0,1068.0
-11.0,-25.0,254.0,22.0,10.0,-17.0,-79.0,-122.0,1065.0
-13.0,-27.0,258.0,24.0,10.0,-16.0,-79.0,-119.0,1067.0
-12.0,-28.0,256.0,31.0,11.0,-19.0,-81.0,-119.0,1068.0
-13.0,-26.0,258.0,38.0,13.0,-19.0,-86.0,-121.0,1060.0
-13.0,-27.0,256.0,49.0,16.0,-21.0,-80.0,-124.0,1063.0
-12.0,-30.0,255.0,59.0,16.0,-20.0,-81.0,-131.0,1056.0
-15.0,-27.0,254.0,71.0,19.0,-20.0,-84.0,-130.0,1054.0
-16.0,-31.0,253.0,83.0,20.0,-19.0,-79.0,-134.0,1051.0
-15.0,-33.0,251.0,94.0,22.0,-18.0,-79.0,-137.0,1056.0
-9.0,-34.0,250.0,108.0,24.0,-16.0,-81.0,-145.0,1051.0
-10.0,-33.0,250.0,119.0,24.0,-16.0,-80.0,-139.0,1055.0
-14.0,-33.0,254.0,130.0,25.0,-16.0,-86.0,-135.0,1055.0
-12.0,-32.0,255.0,141.0,27.0,-15.0,-82.0,-133.0,1056.0
-14.0,-30.0,252.0,149.0,29.0,-14.0,-84.0,-133.0,1059.0
-12.0,-33.0,255.0,157.0,26.0,-11.0,-86.0,-125.0,1060.0
-15.0,-26.0,255.0,162.0,25.0,-10.0,-90.0,-119.0,1066.0
-8.0,-27.0,256.0,165.0,22.0,-11.0,-92.0,-116.0,1065.0
-7.0,-26.0,263.0,168.0,20.0,-10.0,-90.0,-110.0,1070.0
-13.0,-22.0,255.0,170.0,15.0,-13.0,-91.0,-109.0,1069.0
-14.0,-21.0,257.0,171.0,10.0,-14.0,-91.0,-99.0,1066.0
-14.0,-22.0,259.0,167.0,7.0,-13.0,-83.0,-104.0,1075.0
-13.0,-19.0,256.0,167.0,7.0,-11.0,-93.0,-100.0,1073.0
-13.0,-19.0,259.0,163.0,7.0,-10.0,-87.0,-89.0,1065.0
-14.0,-17.0,258.0,162.0,9.0,-7.0,-92.0,-94.0,1072.0
-14.0,-21.0,257.0,158.0,12.0,-8.0,-91.0,-93.0,1071.0
-16.0,-19.0,260.0,151.0,15.0,-10.0,-90.0,-96.0,1074.0
-20.0,-19.0,254.0,143.0,16.0,-13.0,-96.0,-96.0,1077.0
-15.0,-23.0,260.0,136.0,15.0,-14.0,-94.0,-94.0,1075.0
-16.0,-20.0,259.0,130.0,18.0,-16.0,-93.0,-97.0,1072.0
-15.0,-22.0,258.0,125.0,23.0,-14.0,-95.0,-93.0,1068.0
-15.0,-21.0,258.0,121.0,25.0,-14.0,-96.0,-100.0,1075.0
-16.0,-18.0,258.0,118.0,29.0,-12.0,-91.0,-93.0,1074.0
-15.0,-22.0,258.0,116.0,29.0,-13.0,-90.0,-91.0,1069.0
-14.0,-21.0,257.0,116.0,30.0,-11.0,-94.0,-96.0,1072.0
-16.0,-19.0,260.0,117.0,31.0,-12.0,-92.0,-94.0,1066.0
-16.0,-20.0,259.0,118.0,30.0,-10.0,-91.0,-90.0,1071.0
-18.0,-17.0,254.0,120.0,27.0,-10.0,-95.0,-93.0,1071.0
-16.0,-19.0,252.0,121.0,23.0,-10.0,-91.0,-85.0,1073.0
-15.0,-19.0,259.0,122.0,22.0,-10.0,-94.0,-89.0,1071.0
-12.0,-22.0,261.0,121.0,20.0,-12.0,-95.0,-84.0,1071.0
-12.0,-18.0,261.0,122.0,16.0,-10.0,-90.0,-82.0,1070.0
-15.0,-13.0,256.0,122.0,13.0,-11.0,-91.0,-84.0,1071.0
-15.0,-18.0,258.0,120.0,11.0,-11.0,-91.0,-84.0,1072.0
-15.0,-17.0,260.0,120.0,9.0,-10.0,-92.0,-78.0,1077.0
-16.0,-16.0,260.0,117.0,8.0,-12.0,-85.0,-78.0,1072.0
-13.0,-14.0,257.0,113.0,7.0,-10.0,-88.0,-80.0,1073.0
-11.0,-18.0,257.0,111.0,6.0,-9.0,-90.0,-79.0,1080.0
-13.0,-17.0,261.0,107.0,6.0,-9.0,-86.0,-81.0,1075.0
-12.0,-16.0,261.0,104.0,7.0,-9.0,-83.0,-76.0,1075.0
-12.0,-17.0,259.0,101.0,7.0,-9.0,-89.0,-82.0,1077.0
-14.0,-15.0,258.0,97.0,6.0,-9.0,-86.0,-82.0,1073.0
-13.0,-15.0,257.0,93.0,7.0,-9.0,-87.0,-80.0,1080.0
-13.0,-15.0,261.0,89.0,7.0,-10.0,-81.0,-82.0,1074.0
-14.0,-16.0,260.0,82.0,6.0,-10.0,-87.0,-83.0,1072.0
-15.0,-17.0,257.0,79.0,6.0,-10.0,-84.0,-80.0,1074.0
-14.0,-18.0,253.0,77.0,6.0,-10.0,-83.0,-79.0,1070.0
-11.0,-19.0,257.0,76.0,7.0,-9.0,-82.0,-86.0,1075.0
-16.0,-16.0,255.0,73.0,6.0,-9.0,-83.0,-82.0,1074.0
-12.0,-17.0,255.0,73.0,6.0,-8.0,-83.0,-86.0,1074.0
-14.0,-21.0,259.0,72.0,7.0,-8.0,-81.0,-87.0,1072.0
-13.0,-23.0,259.0,73.0,7.0,-8.0,-85.0,-88.0,1075.0
-13.0,-19.0,259.0,76.0,7.0,-8.0,-77.0,-92.0,1063.0
-10.0,-20.0,258.0,76.0,7.0,-10.0,-82.0,-92.0,1068.0
-12.0,-18.0,260.0,77.0,9.0,-9.0,-82.0,-91.0,1068.0
-10.0,-19.0,261.0,80.0,9.0,-10.0,-81.0,-87.0,1066.0
-14.0,-20.0,258.0,81.0,10.0,-8.0,-81.0,-94.0,1073.0
-14.0,-17.0,259.0,83.0,11.0,-10.0,-82.0,-89.0,1066.0
-11.0,-21.0,259.0,86.0,11.0,-10.0,-82.0,-86.0,1068.0
-11.0,-19.0,256.0,87.0,11.0,-11.0,-82.0,-92.0,1069.0
-14.0,-20.0,255.0,88.0,14.0,-11.0,-83.0,-91.0,1067.0
-8.0,-20.0,260.0,89.0,15.0,-10.0,-87.0,-92.0,1068.0
-11.0,-16.0,258.0,88.0,17.0,-8.0,-82.0,-90.0,1073.0
-10.0,-22.0,255.0,91.0,19.0,-12.0,-79.0,-91.0,1073.0
-13.0,-21.0,257.0,91.0,21.0,-11.0,-81.0,-96.0,1067.0
-11.0,-20.0,258.0,92.0,22.0,-11.0,-83.0,-91.0,1069.0
-12.0,-21.0,258.0,92.0,22.0,-12.0,-83.0,-94.0,1076.0
-10.0,-23.0,258.0,93.0,20.0,-12.0,-79.0,-86.0,1070.0
-13.0,-19.0,257.0,97.0,19.0,-12.0,-83.0,-90.0,1069.0
-10.0,-21.0,258.0,99.0,20.0,-12.0,-83.0,-94.0,1070.0
-14.0,-18.0,258.0,101.0,21.0,-11.0,-81.0,-89.0,1068.0
-13.0,-17.0,255.0,104.0,20.0,-12.0,-82.0,-92.0,1067.0
-14.0,-21.0,259.0,107.0,21.0,-12.0,-84.0,-86.0,1070.0
-13.0,-17.0,256.0,109.0,22.0,-11.0,-84.0,-88.0,1068.0
-12.0,-18.0,259.0,110.0,22.0,-11.0,-77.0,-89.0,1068.0
-14.0,-18.0,259.0,114.0,24.0,-11.0,-84.0,-82.0,1074.0
-14.0,-19.0,259.0,116.0,24.0,-10.0,-87.0,-88.0,1074.0
-12.0,-17.0,255.0,117.0,23.0,-11.0,-84.0,-83.0,1073.0
-14.0,-16.0,256.0,116.0,22.0,-11.0,-86.0,-82.0,1069.0
-14.0,-16.0,258.0,113.0,21.0,-12.0,-90.0,-83.0,1067.0
-14.0,-16.0,255.0,111.0,22.0,-10.0,-87.0,-81.0,1069.0
-14.0,-18.0,260.0,111.0,23.0,-12.0,-85.0,-84.0,1074.0
-13.0,-17.0,256.0,112.0,22.0,-10.0,-89.0,-89.0,1070.0
-14.0,-20.0,259.0,113.0,22.0,-10.0,-85.0,-84.0,1075.0
-16.0,-21.0,259.0,114.0,20.0,-10.0,-87.0,-84.0,1066.0
-16.0,-16.0,258.0,111.0,22.0,-9.0,-81.0,-79.0,1072.0
-15.0,-17.0,257.0,110.0,23.0,-10.0,-90.0,-83.0,1072.0
-15.0,-20.0,254.0,110.0,25.0,-10.0,-87.0,-76.0,1079.0
-15.0,-15.0,258.0,110.0,25.0,-10.0,-90.0,-80.0,1074.0
-13.0,-17.0,257.0,111.0,24.0,-10.0,-83.0,-80.0,1072.0
-11.0,-16.0,256.0,113.0,23.0,-12.0,-87.0,-77.0,1072.0
-10.0,-17.0,258.0,113.0,25.0,-12.0,-86.0,-72.0,1074.0
-11.0,-16.0,260.0,112.0,27.0,-11.0,-91.0,-78.0,1073.0
-13.0,-17.0,258.0,111.0,27.0,-9.0,-84.0,-74.0,1071.0
-14.0,-15.0,261.0,111.0,29.0,-8.0,-89.0,-80.0,1069.0
-13.0,-16.0,260.0,112.0,28.0,-9.0,-86.0,-65.0,1078.0
-14.0,-13.0,256.0,111.0,26.0,-8.0,-93.0,-76.0,1065.0
-16.0,-17.0,260.0,108.0,24.0,-10.0,-95.0,-74.0,1067.0
-13.0,-14.0,256.0,106.0,25.0,-7.0,-81.0,-75.0,1074.0
-13.0,-16.0,261.0,102.0,27.0,-8.0,-94.0,-68.0,1070.0
-11.0,-15.0,261.0,98.0,24.0,-7.0,-87.0,-72.0,1078.0
-16.0,-12.0,258.0,95.0,20.0,-6.0,-89.0,-66.0,1077.0
-12.0,-12.0,256.0,88.0,16.0,-7.0,-88.0,-68.0,1078.0
-12.0,-11.0,262.0,81.0,14.0,-6.0,-93.0,-65.0,1077.0
-13.0,-13.0,264.0,71.0,14.0,-6.0,-90.0,-58.0,1074.0
-16.0,-13.0,258.0,62.0,14.0,-5.0,-88.0,-63.0,1083.0
-14.0,-8.0,260.0,56.0,11.0,-6.0,-84.0,-55.0,1081.0
-14.0,-10.0,257.0,51.0,9.0,-7.0,-88.0,-56.0,1079.0
-14.0,-13.0,262.0,44.0,8.0,-6.0,-86.0,-57.0,1076.0
-16.0,-11.0,262.0,36.0,9.0,-9.0,-93.0,-57.0,1082.0
-14.0,-12.0,257.0,28.0,9.0,-8.0,-90.0,-55.0,1085.0
-15.0,-13.0,261.0,23.0,12.0,-9.0,-87.0,-63.0,1080.0
-15.0,-10.0,262.0,20.0,14.0,-8.0,-87.0,-60.0,1075.0
-15.0,-12.0,259.0,16.0,16.0,-8.0,-90.0,-65.0,1076.0
-16.0,-17.0,258.0,15.0,16.0,-9.0,-89.0,-65.0,1074.0
-14.0,-14.0,260.0,12.0,17.0,-8.0,-92.0,-72.0,1083.0
-16.0,-16.0,257.0,12.0,18.0,-8.0,-86.0,-71.0,1074.0
-13.0,-13.0,261.0,12.0,17.0,-8.0,-89.0,-68.0,1076.0
-15.0,-15.0,255.0,11.0,15.0,-10.0,-86.0,-70.0,1075.0
-16.0,-15.0,262.0,11.0,15.0,-9.0,-88.0,-76.0,1083.0
-18.0,-13.0,259.0,8.0,14.0,-8.0,-89.0,-67.0,1075.0
-16.0,-14.0,261.0,5.0,12.0,-10.0,-92.0,-74.0,1082.0
-13.0,-15.0,260.0,1.0,10.0,-10.0,-93.0,-70.0,1078.0
-14.0,-15.0,261.0,-7.0,9.0,-9.0,-91.0,-77.0,1086.0
-15.0,-20.0,262.0,-14.0,10.0,-8.0,-99.0,-72.0,1085.0
-14.0,-18.0,261.0,-17.0,11.0,-10.0,-89.0,-76.0,1093.0
-15.0,-15.0,260.0,-20.0,14.0,-9.0,-93.0,-80.0,1090.0
-14.0,-18.0,259.0,-17.0,13.0,-11.0,-93.0,-88.0,1075.0
-17.0,-16.0,261.0,-13.0,11.0,-13.0,-95.0,-90.0,1070.0
-14.0,-19.0,259.0,-6.0,6.0,-15.0,-94.0,-86.0,1067.0
-17.0,-16.0,256.0,1.0,3.0,-14.0,-88.0,-84.0,1059.0
-12.0,-18.0,254.0,9.0,1.0,-13.0,-91.0,-85.0,1063.0
-13.0,-17.0,252.0,17.0,3.0,-13.0,-93.0,-84.0,1057.0
-17.0,-20.0,257.0,24.0,3.0,-13.0,-87.0,-82.0,1064.0
-11.0,-19.0,255.0,27.0,3.0,-12.0,-92.0,-84.0,1064.0
-14.0,-14.0,250.0,30.0,5.0,-10.0,-87.0,-79.0,1065.0
-16.0,-15.0,255.0,28.0,7.0,-10.0,-92.0,-79.0,1063.0
-14.0,-15.0,255.0,24.0,9.0,-9.0,-89.0,-73.0,1070.0
-15.0,-19.0,253.0,16.0,11.0,-11.0,-95.0,-68.0,1066.0
-14.0,-15.0,260.0,11.0,13.0,-11.0,-90.0,-77.0,1074.0
-14.0,-14.0,261.0,3.0,16.0,-9.0,-92.0,-75.0,1068.0
-16.0,-18.0,258.0,-2.0,18.0,-9.0,-94.0,-77.0,1073.0
-17.0,-17.0,260.0,-4.0,19.0,-8.0,-90.0,-79.0,1071.0
-16.0,-15.0,259.0,-9.0,19.0,-6.0,-96.0,-84.0,1073.0
-15.0,-17.0,256.0,-13.0,20.0,-7.0,-94.0,-86.0,1078.0
-16.0,-19.0,259.0,-16.0,21.0,-6.0,-97.0,-89.0,1068.0
-18.0,-18.0,262.0,-19.0,19.0,-4.0,-96.0,-93.0,1070.0
-19.0,-17.0,256.0,-23.0,18.0,-3.0,-97.0,-94.0,1069.0
-17.0,-21.0,257.0,-24.0,16.0,-2.0,-102.0,-97.0,1071.0
-13.0,-20.0,261.0,-25.0,17.0,-1.0,-101.0,-103.0,1069.0
-16.0,-22.0,257.0,-25.0,15.0,-1.0,-102.0,-100.0,1075.0
-16.0,-24.0,259.0,-24.0,12.0,0.0,-99.0,-95.0,1073.0
-16.0,-20.0,256.0,-22.0,11.0,0.0,-100.0,-99.0,1070.0
-15.0,-22.0,256.0,-19.0,10.0,-1.0,-94.0,-101.0,1066.0
-15.0,-21.0,254.0,-16.0,8.0,-2.0,-92.0,-102.0,1070.0
-10.0,-23.0,257.0,-12.0,8.0,-2.0,-86.0,-103.0,1069.0
-12.0,-26.0,258.0,-8.0,7.0,-1.0,-81.0,-109.0,1072.0
-10.0,-26.0,257.0,-4.0,6.0,-2.0,-80.0,-107.0,1069.0
-13.0,-23.0,257.0,2.0,4.0,-4.0,-77.0,-106.0,1069.0
-12.0,-25.0,259.0,8.0,2.0,-2.0,-72.0,-106.0,1070.0
-11.0,-24.0,256.0,15.0,-1.0,-3.0,-76.0,-110.0,1066.0
-11.0,-24.0,257.0,20.0,-2.0,-2.0,-75.0,-109.0,1069.0
-10.0,-23.0,258.0,23.0,-5.0,-3.0,-71.0,-110.0,1060.0
-9.0,-25.0,256.0,25.0,-6.0,-5.0,-76.0,-107.0,1066.0
-8.0,-24.0,252.0,28.0,-9.0,-2.0,-72.0,-106.0,1059.0
-10.0,-24.0,257.0,33.0,-9.0,-1.0,-69.0,-105.0,1063.0
-9.0,-23.0,255.0,37.0,-7.0,3.0,-73.0,-96.0,1059.0
-6.0,-23.0,254.0,40.0,-5.0,4.0,-53.0,-113.0,1051.0
-12.0,-23.0,259.0,36.0,-1.0,2.0,-78.0,-99.0,1061.0
-9.0,-22.0,253.0,34.0,-2.0,5.0,-69.0,-102.0,1058.0
-8.0,-25.0,256.0,27.0,-2.0,9.0,-70.0,-96.0,1066.0
-11.0,-13.0,254.0,23.0,1.0,14.0,-65.0,-92.0,1064.0
-4.0,-20.0,252.0,18.0,7.0,21.0,-68.0,-85.0,1069.0
-7.0,-12.0,253.0,15.0,15.0,30.0,-62.0,-79.0,1072.0
-6.0,-12.0,257.0,7.0,22.0,37.0,-48.0,-75.0,1071.0
-4.0,-8.0,259.0,-5.0,30.0,42.0,-45.0,-69.0,1083.0
-5.0,-12.0,256.0,-25.0,36.0,45.0,-60.0,-63.0,1088.0
-10.0,-11.0,262.0,-53.0,46.0,44.0,-76.0,-64.0,1085.0
-14.0,-9.0,260.0,-90.0,57.0,37.0,-95.0,-63.0,1082.0
-16.0,-17.0,259.0,-139.0,61.0,28.0,-107.0,-81.0,1086.0
-20.0,-15.0,258.0,-207.0,62.0,13.0,-110.0,-89.0,1082.0
-24.0,-20.0,260.0,-261.0,62.0,-4.0,-122.0,-91.0,1083.0
-24.0,-21.0,258.0,-295.0,66.0,-23.0,-133.0,-88.0,1071.0
-28.0,-21.0,257.0,-307.0,76.0,-35.0,-137.0,-91.0,1058.0
-27.0,-20.0,253.0,-299.0,86.0,-42.0,-133.0,-91.0,1052.0
-23.0,-24.0,252.0,-277.0,91.0,-46.0,-129.0,-94.0,1043.0
-24.0,-19.0,252.0,-249.0,88.0,-44.0,-135.0,-88.0,1045.0
-28.0,-18.0,254.0,-215.0,80.0,-40.0,-135.0,-84.0,1050.0
-26.0,-17.0,256.0,-175.0,76.0,-36.0,-133.0,-83.0,1063.0
-25.0,-16.0,263.0,-133.0,76.0,-29.0,-133.0,-89.0,1078.0
-28.0,-21.0,269.0,-90.0,74.0,-23.0,-138.0,-91.0,1113.0
-25.0,-25.0,272.0,-37.0,52.0,-15.0,-135.0,-111.0,1125.0
-25.0,-31.0,273.0,34.0,13.0,-6.0,-121.0,-124.0,1123.0
-19.0,-33.0,268.0,115.0,-32.0,2.0,-109.0,-131.0,1117.0
-11.0,-37.0,265.0,201.0,-77.0,18.0,-85.0,-140.0,1097.0
-14.0,-35.0,261.0,287.0,-128.0,36.0,-80.0,-136.0,1087.0
-15.0,-27.0,256.0,374.0,-182.0,54.0,-84.0,-123.0,1066.0
-14.0,-26.0,251.0,449.0,-226.0,64.0,-94.0,-109.0,1052.0
-16.0,-22.0,252.0,492.0,-246.0,64.0,-101.0,-96.0,1039.0
-14.0,-16.0,248.0,496.0,-237.0,50.0,-92.0,-81.0,1025.0
-14.0,-12.0,244.0,457.0,-200.0,26.0,-89.0,-78.0,1021.0
-13.0,-6.0,242.0,386.0,-144.0,-5.0,-93.0,-73.0,1009.0
-12.0,-4.0,241.0,285.0,-73.0,-37.0,-104.0,-51.0,1021.0
-17.0,-4.0,249.0,163.0,2.0,-62.0,-105.0,-34.0,1033.0
-16.0,1.0,255.0,42.0,63.0,-83.0,-107.0,-23.0,1052.0
-13.0,3.0,258.0,-80.0,101.0,-96.0,-95.0,-10.0,1067.0
-12.0,1.0,264.0,-204.0,123.0,-103.0,-78.0,-7.0,1093.0
-8.0,3.0,268.0,-330.0,130.0,-103.0,-72.0,-6.0,1101.0
-6.0,0.0,267.0,-450.0,119.0,-98.0,-53.0,-16.0,1113.0
-3.0,-6.0,266.0,-555.0,98.0,-86.0,-44.0,-37.0,1120.0
-3.0,-11.0,266.0,-633.0,75.0,-68.0,-36.0,-71.0,1122.0
1.0,-27.0,269.0,-673.0,50.0,-50.0,-24.0,-109.0,1121.0
2.0,-41.0,267.0,-666.0,24.0,-33.0,-21.0,-151.0,1125.0
5.0,-52.0,272.0,-611.0,1.0,-13.0,-5.0,-203.0,1121.0
3.0,-61.0,267.0,-511.0,-21.0,1.0,-8.0,-232.0,1113.0
3.0,-64.0,263.0,-370.0,-41.0,14.0,-9.0,-244.0,1095.0
3.0,-64.0,258.0,-201.0,-55.0,22.0,-17.0,-245.0,1073.0
3.0,-62.0,254.0,-28.0,-64.0,25.0,-18.0,-233.0,1064.0
0.0,-53.0,251.0,135.0,-66.0,23.0,-21.0,-203.0,1049.0
1.0,-42.0,251.0,275.0,-61.0,16.0,-29.0,-172.0,1046.0
-2.0,-34.0,246.0,381.0,-50.0,8.0,-32.0,-131.0,1035.0
1.0,-23.0,248.0,447.0,-29.0,-4.0,-39.0,-93.0,1034.0
-2.0,-7.0,251.0,468.0,3.0,-10.0,-44.0,-52.0,1045.0
-4.0,-1.0,253.0,440.0,34.0,-15.0,-46.0,-25.0,1049.0
-5.0,6.0,256.0,368.0,58.0,-11.0,-64.0,-7.0,1063.0
-9.0,1.0,256.0,268.0,68.0,-2.0,-72.0,-2.0,1057.0
-13.0,1.0,258.0,155.0,62.0,8.0,-74.0,-14.0,1066.0
-11.0,-4.0,256.0,17.0,50.0,19.0,-75.0,-34.0,1062.0
-14.0,-11.0,256.0,-78.0,37.0,29.0,-84.0,-59.0,1057.0
-13.0,-20.0,254.0,-149.0,26.0,36.0,-86.0,-95.0,1059.0
-17.0,-30.0,256.0,-197.0,15.0,41.0,-95.0,-124.0,1055.0
-22.0,-37.0,250.0,-223.0,2.0,39.0,-109.0,-155.0,1053.0
-22.0,-44.0,252.0,-233.0,-12.0,31.0,-117.0,-190.0,1052.0
-24.0,-49.0,256.0,-232.0,-29.0,21.0,-130.0,-202.0,1050.0
-28.0,-47.0,255.0,-218.0,-43.0,8.0,-135.0,-210.0,1062.0
-26.0,-50.0,252.0,-187.0,-52.0,-3.0,-139.0,-210.0,1066.0
-26.0,-50.0,251.0,-143.0,-53.0,-12.0,-134.0,-201.0,1060.0
-22.0,-46.0,249.0,-84.0,-38.0,-22.0,-123.0,-176.0,1060.0
-21.0,-36.0,251.0,-19.0,-14.0,-30.0,-117.0,-156.0,1056.0
-20.0,-34.0,253.0,37.0,15.0,-36.0,-113.0,-132.0,1062.0
-16.0,-25.0,254.0,77.0,39.0,-35.0,-106.0,-110.0,1073.0
-14.0,-25.0,260.0,98.0,54.0,-30.0,-102.0,-108.0,1073.0
-15.0,-21.0,261.0,98.0,61.0,-25.0,-97.0,-97.0,1088.0
-19.0,-18.0,263.0,82.0,64.0,-20.0,-99.0,-99.0,1090.0
-15.0,-21.0,263.0,55.0,60.0,-15.0,-96.0,-105.0,1091.0
-16.0,-25.0,263.0,25.0,56.0,-13.0,-98.0,-114.0,1094.0
-19.0,-28.0,256.0,-4.0,55.0,-13.0,-97.0,-127.0,1082.0
-16.0,-34.0,260.0,-24.0,55.0,-12.0,-96.0,-138.0,1078.0
-16.0,-37.0,262.0,-34.0,56.0,-10.0,-93.0,-145.0,1068.0
-15.0,-34.0,256.0,-31.0,55.0,-10.0,-93.0,-153.0,1062.0
-15.0,-37.0,257.0,-21.0,52.0,-8.0,-96.0,-160.0,1057.0
-14.0,-40.0,254.0,-5.0,47.0,-9.0,-99.0,-159.0,1047.0
-15.0,-38.0,246.0,14.0,40.0,-8.0,-95.0,-152.0,1051.0
-16.0,-34.0,252.0,35.0,33.0,-8.0,-89.0,-153.0,1044.0
-15.0,-34.0,251.0,54.0,26.0,-8.0,-90.0,-141.0,1050.0
-4.0,-30.0,261.0,69.0,20.0,-7.0,-82.0,-146.0,1055.0
-9.0,-30.0,254.0,77.0,15.0,-10.0,-84.0,-134.0,1058.0
-17.0,-23.0,260.0,82.0,12.0,-11.0,-79.0,-126.0,1060.0
-14.0,-24.0,256.0,82.0,11.0,-10.0,-87.0,-121.0,1061.0
-9.0,-25.0,257.0,74.0,8.0,-12.0,-79.0,-113.0,1067.0
-12.0,-27.0,256.0,64.0,4.0,-13.0,-81.0,-118.0,1065.0
-13.0,-25.0,255.0,53.0,-1.0,-13.0,-82.0,-123.0,1064.0
-12.0,-27.0,259.0,44.0,-5.0,-13.0,-83.0,-122.0,1071.0
-9.0,-29.0,258.0,36.0,-8.0,-15.0,-87.0,-126.0,1067.0
-11.0,-30.0,256.0,29.0,-11.0,-14.0,-83.0,-124.0,1065.0
-16.0,-30.0,256.0,27.0,-15.0,-13.0,-84.0,-128.0,1065.0
-14.0,-33.0,261.0,27.0,-15.0,-13.0,-89.0,-134.0,1064.0
-13.0,-30.0,254.0,32.0,-17.0,-16.0,-87.0,-130.0,1071.0
-13.0,-30.0,257.0,37.0,-16.0,-17.0,-78.0,-140.0,1061.0
-14.0,-31.0,254.0,44.0,-16.0,-18.0,-84.0,-129.0,1061.0
-13.0,-30.0,257.0,52.0,-16.0,-21.0,-88.0,-134.0,1062.0
-10.0,-31.0,253.0,60.0,-14.0,-21.0,-92.0,-127.0,1069.0
-12.0,-29.0,260.0,66.0,-12.0,-21.0,-85.0,-127.0,1060.0
-12.0,-30.0,256.0,71.0,-10.0,-22.0,-93.0,-126.0,1061.0
-15.0,-32.0,252.0,76.0,-8.0,-23.0,-84.0,-125.0,1060.0
-14.0,-30.0,254.0,77.0,-4.0,-21.0,-94.0,-125.0,1062.0
-15.0,-28.0,254.0,82.0,0.0,-21.0,-89.0,-125.0,1064.0
-11.0,-28.0,252.0,85.0,2.0,-19.0,-90.0,-125.0,1059.0
-11.0,-32.0,254.0,88.0,4.0,-19.0,-89.0,-126.0,1062.0
-14.0,-35.0,254.0,91.0,4.0,-18.0,-87.0,-129.0,1057.0
-31.0,-45.0,259.0,93.0,5.0,-17.0,-87.0,-127.0,1055.0
-14.0,-29.0,250.0,96.0,5.0,-17.0,-88.0,-129.0,1062.0
-14.0,-28.0,250.0,96.0,3.0,-15.0,-89.0,-129.0,1063.0
-11.0,-30.0,255.0,97.0,5.0,-15.0,-84.0,-127.0,1065.0
-16.0,-31.0,256.0,97.0,3.0,-13.0,-88.0,-131.0,1065.0
-15.0,-31.0,257.0,97.0,3.0,-11.0,-86.0,-125.0,1066.0
-10.0,-29.0,255.0,96.0,3.0,-10.0,-85.0,-123.0,1068.0
-11.0,-28.0,256.0,94.0,2.0,-8.0,-80.0,-122.0,1067.0
-11.0,-27.0,261.0,90.0,2.0,-7.0,-78.0,-119.0,1061.0
-10.0,-26.0,259.0,86.0,2.0,-4.0,-86.0,-116.0,1071.0
-7.0,-30.0,257.0,83.0,2.0,-4.0,-76.0,-118.0,1069.0
-10.0,-25.0,256.0,77.0,1.0,-1.0,-77.0,-115.0,1071.0
-10.0,-25.0,260.0,72.0,1.0,-1.0,-79.0,-121.0,1075.0
-12.0,-28.0,259.0,68.0,1.0,-2.0,-72.0,-118.0,1071.0
-10.0,-30.0,258.0,67.0,1.0,-3.0,-76.0,-117.0,1071.0
-12.0,-29.0,256.0,68.0,0.0,-2.0,-74.0,-124.0,1071.0
-10.0,-25.0,256.0,70.0,0.0,-3.0,-76.0,-119.0,1069.0
-9.0,-30.0,257.0,76.0,-1.0,-3.0,-77.0,-127.0,1077.0
-10.0,-30.0,260.0,81.0,1.0,-4.0,-75.0,-127.0,1069.0
-12.0,-29.0,259.0,85.0,1.0,-6.0,-71.0,-130.0,1071.0
-7.0,-32.0,257.0,87.0,3.0,-5.0,-75.0,-129.0,1072.0
-11.0,-25.0,259.0,87.0,4.0,-8.0,-76.0,-129.0,1075.0
-11.0,-29.0,257.0,85.0,6.0,-10.0,-79.0,-126.0,1071.0
-7.0,-31.0,257.0,81.0,8.0,-12.0,-72.0,-129.0,1071.0
-7.0,-28.0,259.0,75.0,11.0,-12.0,-74.0,-127.0,1072.0
-9.0,-30.0,259.0,70.0,17.0,-13.0,-70.0,-125.0,1080.0
-6.0,-30.0,257.0,65.0,19.0,-14.0,-70.0,-122.0,1078.0
-6.0,-30.0,258.0,60.0,23.0,-13.0,-71.0,-123.0,1081.0
-9.0,-26.0,254.0,57.0,26.0,-14.0,-71.0,-124.0,1080.0
-6.0,-30.0,263.0,57.0,27.0,-15.0,-76.0,-129.0,1079.0
-9.0,-30.0,257.0,58.0,25.0,-17.0,-78.0,-132.0,1076.0
-12.0,-27.0,260.0,60.0,22.0,-17.0,-81.0,-128.0,1062.0
-13.0,-27.0,255.0,66.0,15.0,-18.0,-80.0,-124.0,1060.0
-14.0,-30.0,253.0,69.0,11.0,-20.0,-80.0,-121.0,1053.0
-10.0,-27.0,252.0,73.0,10.0,-18.0,-79.0,-122.0,1060.0
-13.0,-28.0,251.0,77.0,10.0,-17.0,-83.0,-113.0,1065.0
-10.0,-28.0,253.0,79.0,11.0,-17.0,-79.0,-120.0,1056.0
-8.0,-24.0,255.0,81.0,13.0,-17.0,-76.0,-110.0,1067.0
-11.0,-24.0,253.0,79.0,16.0,-16.0,-80.0,-110.0,1062.0
-13.0,-22.0,255.0,73.0,18.0,-17.0,-84.0,-111.0,1055.0
-14.0,-22.0,257.0,66.0,19.0,-16.0,-84.0,-109.0,1061.0
-12.0,-26.0,258.0,59.0,22.0,-13.0,-82.0,-112.0,1068.0
-11.0,-27.0,257.0,52.0,22.0,-14.0,-81.0,-111.0,1062.0
-14.0,-27.0,255.0,47.0,22.0,-15.0,-85.0,-121.0,1068.0
-16.0,-28.0,255.0,42.0,22.0,-15.0,-81.0,-124.0,1079.0
-12.0,-27.0,259.0,41.0,19.0,-15.0,-90.0,-124.0,1067.0
-13.0,-27.0,258.0,43.0,17.0,-13.0,-88.0,-125.0,1063.0
-9.0,-30.0,259.0,50.0,14.0,-13.0,-83.0,-125.0,1069.0
-15.0,-30.0,262.0,56.0,10.0,-13.0,-83.0,-135.0,1068.0
-13.0,-30.0,257.0,64.0,7.0,-13.0,-91.0,-126.0,1072.0
-15.0,-30.0,259.0,69.0,6.0,-13.0,-91.0,-124.0,1062.0
-14.0,-27.0,258.0,73.0,8.0,-14.0,-90.0,-117.0,1066.0
-14.0,-27.0,258.0,75.0,8.0,-16.0,-91.0,-120.0,1068.0
-12.0,-28.0,259.0,73.0,11.0,-16.0,-87.0,-117.0,1065.0
-12.0,-27.0,259.0,68.0,15.0,-18.0,-86.0,-115.0,1071.0
-14.0,-22.0,259.0,60.0,19.0,-16.0,-87.0,-110.0,1070.0
-14.0,-22.0,258.0,53.0,21.0,-16.0,-91.0,-104.0,1069.0
-14.0,-23.0,254.0,45.0,23.0,-14.0,-87.0,-110.0,1073.0
-14.0,-23.0,255.0,41.0,24.0,-13.0,-84.0,-110.0,1069.0
-9.0,-28.0,258.0,40.0,23.0,-12.0,-78.0,-110.0,1067.0
-12.0,-25.0,256.0,37.0,18.0,-10.0,-83.0,-116.0,1068.0
-11.0,-29.0,257.0,39.0,14.0,-7.0,-81.0,-118.0,1066.0
-9.0,-30.0,257.0,43.0,10.0,-6.0,-78.0,-126.0,1070.0
-11.0,-29.0,256.0,46.0,6.0,-4.0,-78.0,-124.0,1063.0
-14.0,-29.0,256.0,50.0,2.0,-4.0,-83.0,-128.0,1061.0
-13.0,-29.0,256.0,51.0,1.0,-4.0,-81.0,-125.0,1071.0
-10.0,-32.0,257.0,51.0,-1.0,-5.0,-84.0,-133.0,1069.0
-12.0,-31.0,260.0,48.0,-1.0,-5.0,-78.0,-128.0,1074.0
-14.0,-31.0,257.0,43.0,1.0,-6.0,-82.0,-126.0,1071.0
-12.0,-26.0,258.0,40.0,4.0,-6.0,-82.0,-127.0,1073.0
-14.0,-26.0,254.0,36.0,7.0,-8.0,-86.0,-121.0,1075.0
-14.0,-27.0,257.0,31.0,10.0,-9.0,-84.0,-120.0,1065.0
-11.0,-27.0,259.0,29.0,12.0,-9.0,-83.0,-115.0,1070.0
-11.0,-28.0,258.0,27.0,13.0,-9.0,-81.0,-116.0,1068.0
-13.0,-25.0,253.0,28.0,13.0,-11.0,-87.0,-121.0,1067.0
-11.0,-28.0,256.0,31.0,12.0,-12.0,-80.0,-121.0,1069.0
-10.0,-28.0,254.0,35.0,10.0,-9.0,-80.0,-118.0,1063.0
-14.0,-28.0,256.0,40.0,8.0,-9.0,-78.0,-116.0,1058.0
-11.0,-28.0,253.0,43.0,6.0,-10.0,-82.0,-123.0,1069.0
-11.0,-29.0,253.0,47.0,4.0,-12.0,-75.0,-123.0,1065.0
-11.0,-29.0,254.0,53.0,4.0,-11.0,-80.0,-125.0,1063.0
-11.0,-28.0,254.0,56.0,2.0,-10.0,-75.0,-128.0,1065.0
-11.0,-31.0,257.0,59.0,3.0,-12.0,-74.0,-127.0,1072.0
-8.0,-29.0,261.0,60.0,3.0,-12.0,-77.0,-125.0,1074.0
-14.0,-30.0,259.0,62.0,4.0,-14.0,-78.0,-129.0,1070.0
-9.0,-29.0,259.0,61.0,5.0,-14.0,-79.0,-125.0,1074.0
-15.0,-27.0,258.0,61.0,5.0,-14.0,-77.0,-124.0,1071.0
-13.0,-31.0,259.0,58.0,6.0,-13.0,-82.0,-125.0,1065.0
-11.0,-26.0,254.0,57.0,8.0,-16.0,-78.0,-120.0,1070.0
-13.0,-27.0,260.0,54.0,7.0,-15.0,-80.0,-119.0,1067.0
-16.0,-26.0,253.0,52.0,6.0,-14.0,-81.0,-119.0,1065.0
-9.0,-28.0,255.0,49.0,4.0,-15.0,-80.0,-117.0,1067.0
-12.0,-26.0,254.0,46.0,4.0,-14.0,-82.0,-116.0,1063.0
-11.0,-26.0,256.0,43.0,4.0,-13.0,-80.0,-118.0,1063.0
-12.0,-26.0,256.0,40.0,4.0,-12.0,-88.0,-117.0,1062.0
-12.0,-26.0,256.0,37.0,4.0,-12.0,-80.0,-119.0,1066.0
-8.0,-31.0,254.0,37.0,4.0,-10.0,-84.0,-122.0,1070.0
-14.0,-29.0,254.0,40.0,4.0,-11.0,-83.0,-120.0,1069.0
-10.0,-27.0,255.0,43.0,5.0,-9.0,-85.0,-124.0,1069.0
-13.0,-29.0,255.0,50.0,5.0,-9.0,-90.0,-124.0,1065.0
-15.0,-29.0,255.0,55.0,6.0,-9.0,-89.0,-125.0,1073.0
-13.0,-30.0,254.0,60.0,8.0,-9.0,-88.0,-127.0,1070.0
-10.0,-29.0,255.0,65.0,8.0,-10.0,-84.0,-125.0,1073.0
-13.0,-29.0,261.0,66.0,9.0,-13.0,-87.0,-124.0,1066.0
-11.0,-28.0,258.0,68.0,13.0,-12.0,-84.0,-123.0,1072.0
-11.0,-28.0,257.0,67.0,15.0,-14.0,-79.0,-124.0,1075.0
-13.0,-27.0,261.0,65.0,17.0,-13.0,-78.0,-117.0,1076.0
-12.0,-27.0,256.0,61.0,19.0,-12.0,-81.0,-117.0,1073.0
-9.0,-28.0,260.0,54.0,21.0,-13.0,-80.0,-111.0,1071.0
-11.0,-28.0,258.0,47.0,20.0,-12.0,-73.0,-123.0,1072.0
-8.0,-28.0,263.0,39.0,20.0,-11.0,-75.0,-113.0,1068.0
-8.0,-24.0,256.0,34.0,18.0,-11.0,-72.0,-113.0,1073.0
-10.0,-27.0,260.0,29.0,15.0,-9.0,-75.0,-113.0,1073.0
-10.0,-26.0,257.0,30.0,12.0,-8.0,-76.0,-112.0,1066.0
-7.0,-28.0,257.0,30.0,10.0,-4.0,-71.0,-121.0,1070.0
-11.0,-25.0,259.0,33.0,8.0,-6.0,-73.0,-124.0,1072.0
-12.0,-28.0,256.0,37.0,7.0,-3.0,-72.0,-124.0,1065.0
-12.0,-28.0,258.0,42.0,6.0,-5.0,-78.0,-125.0,1068.0
-11.0,-27.0,258.0,47.0,5.0,-4.0,-77.0,-125.0,1063.0
-13.0,-29.0,256.0,51.0,6.0,-6.0,-79.0,-122.0,1069.0
-11.0,-28.0,260.0,52.0,6.0,-8.0,-79.0,-124.0,1066.0
-11.0,-27.0,255.0,52.0,9.0,-9.0,-77.0,-127.0,1072.0
-10.0,-29.0,254.0,49.0,10.0,-11.0,-79.0,-124.0,1068.0
-12.0,-31.0,258.0,47.0,11.0,-12.0,-78.0,-118.0,1064.0
-12.0,-25.0,258.0,43.0,12.0,-12.0,-79.0,-122.0,1068.0
-12.0,-29.0,256.0,37.0,12.0,-12.0,-82.0,-124.0,1067.0
-11.0,-29.0,257.0,35.0,12.0,-12.0,-82.0,-123.0,1067.0
-14.0,-28.0,258.0,32.0,13.0,-13.0,-81.0,-121.0,1068.0
-12.0,-32.0,255.0,31.0,12.0,-12.0,-80.0,-122.0,1062.0
-9.0,-29.0,255.0,33.0,12.0,-12.0,-77.0,-123.0,1060.0
-8.0,-28.0,255.0,36.0,12.0,-13.0,-79.0,-125.0,1063.0
-7.0,-41.0,255.0,42.0,13.0,-14.0,-80.0,-126.0,1060.0
-13.0,-29.0,259.0,49.0,13.0,-13.0,-79.0,-123.0,1057.0
-11.0,-29.0,253.0,57.0,13.0,-10.0,-79.0,-124.0,1058.0
-13.0,-30.0,256.0,63.0,14.0,-9.0,-85.0,-122.0,1061.0
-12.0,-26.0,256.0,69.0,15.0,-9.0,-83.0,-123.0,1066.0
-10.0,-26.0,258.0,72.0,14.0,-9.0,-90.0,-123.0,1066.0
-14.0,-28.0,255.0,73.0,14.0,-9.0,-87.0,-123.0,1073.0
-12.0,-26.0,257.0,70.0,15.0,-11.0,-84.0,-123.0,1070.0
-11.0,-28.0,257.0,68.0,15.0,-12.0,-84.0,-122.0,1067.0
-9.0,-31.0,259.0,61.0,16.0,-9.0,-79.0,-120.0,1067.0
-13.0,-27.0,259.0,55.0,16.0,-10.0,-82.0,-121.0,1071.0
-11.0,-28.0,260.0,50.0,15.0,-8.0,-83.0,-116.0,1072.0
-10.0,-27.0,255.0,44.0,11.0,-7.0,-84.0,-123.0,1074.0
-9.0,-29.0,259.0,39.0,9.0,-7.0,-77.0,-117.0,1072.0
-10.0,-28.0,256.0,35.0,7.0,-7.0,-77.0,-117.0,1070.0
-13.0,-25.0,258.0,35.0,7.0,-8.0,-87.0,-115.0,1068.0
-13.0,-28.0,258.0,36.0,5.0,-7.0,-86.0,-119.0,1064.0
-13.0,-24.0,257.0,38.0,5.0,-7.0,-79.0,-118.0,1069.0
-13.0,-28.0,256.0,41.0,6.0,-9.0,-71.0,-118.0,1071.0
-12.0,-29.0,255.0,43.0,7.0,-11.0,-76.0,-120.0,1066.0
-9.0,-27.0,256.0,46.0,12.0,-10.0,-76.0,-124.0,1066.0
-11.0,-27.0,259.0,46.0,14.0,-9.0,-82.0,-117.0,1070.0
-13.0,-28.0,256.0,47.0,15.0,-10.0,-82.0,-120.0,1069.0
-13.0,-26.0,256.0,47.0,17.0,-11.0,-80.0,-120.0,1069.0
-13.0,-28.0,258.0,47.0,19.0,-12.0,-83.0,-119.0,1066.0
-8.0,-29.0,260.0,47.0,21.0,-13.0,-79.0,-121.0,1069.0
-13.0,-28.0,257.0,49.0,21.0,-11.0,-85.0,-123.0,1070.0
-11.0,-27.0,258.0,50.0,19.0,-9.0,-83.0,-124.0,1065.0
-11.0,-28.0,259.0,49.0,19.0,-9.0,-81.0,-122.0,1065.0
-12.0,-27.0,257.0,49.0,17.0,-8.0,-76.0,-122.0,1069.0
-9.0,-28.0,257.0,50.0,14.0,-9.0,-81.0,-122.0,1066.0
-11.0,-28.0,257.0,51.0,13.0,-10.0,-84.0,-124.0,1067.0
-8.0,-28.0,256.0,54.0,11.0,-9.0,-79.0,-129.0,1067.0
-7.0,-43.0,239.0,56.0,9.0,-9.0,-81.0,-127.0,1065.0
-11.0,-27.0,258.0,59.0,8.0,-10.0,-81.0,-125.0,1064.0
-8.0,-30.0,255.0,61.0,7.0,-11.0,-79.0,-124.0,1065.0
-12.0,-28.0,257.0,62.0,8.0,-11.0,-78.0,-124.0,1064.0
-8.0,-29.0,256.0,63.0,10.0,-10.0,-76.0,-120.0,1064.0
-14.0,-27.0,253.0,63.0,11.0,-10.0,-73.0,-123.0,1069.0
-11.0,-26.0,256.0,65.0,10.0,-12.0,-82.0,-118.0,1065.0
-12.0,-26.0,255.0,66.0,12.0,-12.0,-80.0,-118.0,1062.0
-13.0,-27.0,257.0,66.0,11.0,-11.0,-80.0,-118.0,1067.0
-13.0,-25.0,257.0,68.0,12.0,-11.0,-76.0,-112.0,1070.0
-9.0,-27.0,257.0,69.0,12.0,-12.0,-80.0,-116.0,1064.0
-11.0,-27.0,253.0,69.0,12.0,-14.0,-74.0,-113.0,1070.0
-11.0,-23.0,259.0,68.0,10.0,-13.0,-79.0,-113.0,1066.0
-14.0,-26.0,255.0,69.0,11.0,-15.0,-81.0,-118.0,1065.0
-14.0,-25.0,258.0,69.0,11.0,-14.0,-80.0,-121.0,1063.0
-8.0,-26.0,254.0,70.0,12.0,-15.0,-81.0,-119.0,1063.0
-9.0,-26.0,256.0,72.0,14.0,-16.0,-76.0,-124.0,1064.0
-8.0,-28.0,256.0,75.0,14.0,-18.0,-82.0,-122.0,1066.0
-14.0,-29.0,259.0,79.0,16.0,-18.0,-80.0,-120.0,1061.0
-13.0,-27.0,256.0,87.0,16.0,-18.0,-78.0,-119.0,1066.0
-13.0,-29.0,256.0,92.0,16.0,-17.0,-82.0,-124.0,1061.0
-10.0,-32.0,256.0,98.0,17.0,-19.0,-83.0,-124.0,1068.0
-12.0,-28.0,256.0,101.0,17.0,-19.0,-83.0,-124.0,1063.0
-15.0,-26.0,258.0,103.0,17.0,-17.0,-89.0,-127.0,1067.0
-12.0,-29.0,255.0,104.0,16.0,-16.0,-86.0,-123.0,1068.0
-16.0,-28.0,254.0,102.0,14.0,-16.0,-88.0,-123.0,1070.0
-15.0,-26.0,259.0,97.0,14.0,-14.0,-86.0,-123.0,1072.0
-14.0,-24.0,258.0,90.0,14.0,-13.0,-79.0,-124.0,1077.0
-11.0,-29.0,261.0,82.0,15.0,-13.0,-85.0,-118.0,1074.0
-14.0,-26.0,260.0,76.0,16.0,-13.0,-90.0,-116.0,1078.0
-11.0,-26.0,255.0,70.0,14.0,-15.0,-85.0,-122.0,1078.0
-15.0,-27.0,256.0,69.0,16.0,-12.0,-82.0,-116.0,1079.0
-15.0,-27.0,258.0,70.0,16.0,-11.0,-85.0,-121.0,1072.0
-11.0,-30.0,258.0,75.0,14.0,-13.0,-88.0,-122.0,1067.0
-13.0,-28.0,258.0,80.0,12.0,-12.0,-83.0,-121.0,1066.0
-10.0,-28.0,254.0,83.0,9.0,-11.0,-82.0,-116.0,1057.0
-12.0,-24.0,255.0,88.0,7.0,-11.0,-78.0,-119.0,1049.0
-10.0,-29.0,255.0,92.0,7.0,-11.0,-76.0,-118.0,1055.0
-11.0,-28.0,254.0,98.0,7.0,-11.0,-81.0,-112.0,1061.0
-12.0,-28.0,256.0,102.0,7.0,-11.0,-81.0,-118.0,1060.0
-12.0,-25.0,255.0,106.0,7.0,-12.0,-80.0,-112.0,1063.0
-9.0,-26.0,254.0,108.0,10.0,-13.0,-76.0,-112.0,1064.0
-8.0,-26.0,255.0,108.0,10.0,-13.0,-82.0,-106.0,1068.0
-12.0,-23.0,254.0,109.0,11.0,-15.0,-80.0,-113.0,1065.0
-12.0,-28.0,255.0,108.0,11.0,-15.0,-77.0,-108.0,1065.0
-11.0,-24.0,252.0,107.0,13.0,-15.0,-77.0,-108.0,1069.0
-9.0,-21.0,261.0,108.0,14.0,-16.0,-79.0,-110.0,1071.0
-9.0,-24.0,259.0,108.0,14.0,-16.0,-77.0,-109.0,1065.0
-11.0,-21.0,261.0,108.0,15.0,-16.0,-75.0,-105.0,1062.0
-11.0,-23.0,254.0,108.0,15.0,-18.0,-80.0,-97.0,1067.0
-10.0,-21.0,257.0,107.0,14.0,-17.0,-76.0,-107.0,1065.0
-12.0,-22.0,257.0,107.0,15.0,-16.0,-79.0,-103.0,1067.0
-10.0,-21.0,256.0,107.0,12.0,-18.0,-76.0,-101.0,1074.0
-12.0,-21.0,262.0,110.0,9.0,-18.0,-70.0,-108.0,1078.0
-12.0,-25.0,263.0,114.0,6.0,-19.0,-81.0,-107.0,1088.0
-10.0,-24.0,262.0,119.0,2.0,-21.0,-77.0,-107.0,1089.0
-12.0,-25.0,262.0,126.0,-4.0,-20.0,-78.0,-114.0,1098.0
-13.0,-24.0,266.0,137.0,-12.0,-22.0,-75.0,-116.0,1102.0
-12.0,-26.0,265.0,147.0,-21.0,-23.0,-78.0,-120.0,1104.0
-11.0,-28.0,264.0,156.0,-28.0,-22.0,-83.0,-114.0,1101.0
-9.0,-24.0,264.0,161.0,-35.0,-21.0,-77.0,-110.0,1094.0
-13.0,-22.0,264.0,159.0,-40.0,-17.0,-71.0,-106.0,1081.0
-5.0,-24.0,261.0,148.0,-44.0,-15.0,-71.0,-104.0,1074.0
-12.0,-22.0,256.0,130.0,-45.0,-15.0,-67.0,-99.0,1070.0
-10.0,-16.0,255.0,108.0,-47.0,-10.0,-61.0,-96.0,1061.0
-10.0,-14.0,257.0,87.0,-50.0,-8.0,-69.0,-99.0,1064.0
-12.0,-23.0,257.0,70.0,-51.0,-6.0,-62.0,-97.0,1060.0
-7.0,-21.0,256.0,56.0,-52.0,-2.0,-61.0,-99.0,1056.0
-7.0,-24.0,254.0,45.0,-48.0,0.0,-59.0,-103.0,1062.0
-9.0,-20.0,255.0,35.0,-42.0,1.0,-68.0,-98.0,1061.0
-6.0,-24.0,254.0,30.0,-33.0,1.0,-62.0,-103.0,1062.0
-6.0,-22.0,255.0,29.0,-25.0,1.0,-66.0,-104.0,1060.0
-11.0,-22.0,254.0,28.0,-16.0,0.0,-69.0,-105.0,1058.0
-9.0,-24.0,257.0,31.0,-8.0,-2.0,-74.0,-101.0,1063.0
-9.0,-26.0,255.0,37.0,1.0,-6.0,-71.0,-107.0,1065.0
-8.0,-25.0,254.0,46.0,10.0,-6.0,-78.0,-109.0,1063.0
-12.0,-25.0,254.0,55.0,20.0,-9.0,-75.0,-112.0,1060.0
-11.0,-28.0,257.0,66.0,26.0,-9.0,-81.0,-110.0,1059.0
-10.0,-27.0,253.0,77.0,30.0,-15.0,-86.0,-109.0,1065.0
-13.0,-24.0,254.0,85.0,30.0,-15.0,-87.0,-112.0,1060.0
-10.0,-27.0,255.0,92.0,29.0,-16.0,-92.0,-108.0,1065.0
-9.0,-26.0,252.0,96.0,27.0,-17.0,-80.0,-109.0,1055.0
-15.0,-23.0,254.0,99.0,26.0,-16.0,-84.0,-105.0,1062.0
-9.0,-24.0,253.0,99.0,26.0,-15.0,-88.0,-104.0,1058.0
-13.0,-21.0,252.0,97.0,27.0,-14.0,-83.0,-104.0,1062.0
-9.0,-25.0,253.0,95.0,27.0,-14.0,-82.0,-103.0,1057.0
-11.0,-23.0,257.0,90.0,30.0,-15.0,-79.0,-102.0,1062.0
-12.0,-25.0,258.0,89.0,33.0,-17.0,-85.0,-110.0,1062.0
-11.0,-27.0,255.0,88.0,35.0,-19.0,-83.0,-112.0,1061.0
-13.0,-26.0,258.0,90.0,34.0,-19.0,-87.0,-115.0,1064.0
-16.0,-25.0,258.0,91.0,32.0,-21.0,-83.0,-112.0,1062.0
-11.0,-23.0,256.0,93.0,30.0,-22.0,-87.0,-110.0,1065.0
-11.0,-24.0,256.0,94.0,27.0,-23.0,-85.0,-102.0,1066.0
-13.0,-23.0,258.0,94.0,24.0,-20.0,-81.0,-94.0,1066.0
-8.0,-24.0,258.0,95.0,20.0,-18.0,-80.0,-99.0,1065.0
-10.0,-20.0,257.0,98.0,18.0,-16.0,-77.0,-101.0,1068.0
-10.0,-21.0,258.0,97.0,13.0,-14.0,-79.0,-96.0,1072.0
-11.0,-22.0,259.0,95.0,10.0,-10.0,-79.0,-92.0,1079.0
-15.0,-20.0,248.0,92.0,4.0,-7.0,-74.0,-98.0,1071.0
-7.0,-22.0,257.0,90.0,-1.0,-4.0,-76.0,-95.0,1074.0
-9.0,-25.0,262.0,89.0,-5.0,-3.0,-71.0,-97.0,1076.0
-10.0,-23.0,260.0,92.0,-6.0,-3.0,-73.0,-96.0,1072.0
-8.0,-21.0,255.0,96.0,-5.0,-4.0,-77.0,-100.0,1067.0
-10.0,-19.0,257.0,102.0,-2.0,-4.0,-70.0,-93.0,1063.0
-7.0,-20.0,254.0,111.0,3.0,-4.0,-69.0,-95.0,1065.0
-6.0,-22.0,257.0,118.0,8.0,-8.0,-63.0,-95.0,1061.0
-11.0,-21.0,255.0,126.0,14.0,-8.0,-74.0,-94.0,1062.0
-10.0,-21.0,261.0,131.0,17.0,-7.0,-71.0,-89.0,1059.0
-9.0,-19.0,255.0,134.0,21.0,-9.0,-71.0,-90.0,1067.0
-10.0,-21.0,257.0,134.0,24.0,-10.0,-71.0,-85.0,1069.0
-11.0,-17.0,256.0,132.0,26.0,-10.0,-74.0,-86.0,1066.0
-8.0,-17.0,253.0,126.0,27.0,-10.0,-71.0,-83.0,1069.0
-11.0,-16.0,255.0,118.0,29.0,-10.0,-70.0,-88.0,1068.0
-7.0,-17.0,258.0,109.0,32.0,-9.0,-70.0,-82.0,1074.0
-10.0,-19.0,259.0,102.0,33.0,-8.0,-76.0,-82.0,1073.0
-14.0,-17.0,256.0,95.0,34.0,-7.0,-74.0,-87.0,1074.0
-11.0,-18.0,262.0,89.0,31.0,-9.0,-76.0,-84.0,1072.0
-8.0,-18.0,258.0,84.0,29.0,-9.0,-82.0,-93.0,1073.0
-7.0,-20.0,258.0,82.0,28.0,-11.0,-73.0,-89.0,1071.0
-9.0,-21.0,260.0,84.0,26.0,-11.0,-76.0,-92.0,1080.0
-11.0,-18.0,258.0,88.0,27.0,-13.0,-79.0,-90.0,1071.0
-14.0,-18.0,257.0,94.0,29.0,-13.0,-78.0,-80.0,1070.0
-13.0,-20.0,260.0,102.0,30.0,-13.0,-78.0,-84.0,1081.0
-11.0,-18.0,262.0,112.0,31.0,-15.0,-79.0,-87.0,1078.0
-9.0,-20.0,256.0,119.0,31.0,-16.0,-78.0,-83.0,1071.0
-8.0,-19.0,260.0,121.0,32.0,-19.0,-74.0,-80.0,1076.0
-5.0,-17.0,256.0,122.0,32.0,-19.0,-70.0,-81.0,1072.0
-10.0,-20.0,260.0,122.0,29.0,-17.0,-70.0,-84.0,1078.0
-12.0,-17.0,257.0,121.0,27.0,-16.0,-71.0,-84.0,1076.0
-14.0,-17.0,258.0,115.0,27.0,-18.0,-74.0,-83.0,1076.0
-14.0,-19.0,258.0,113.0,28.0,-17.0,-83.0,-88.0,1078.0
-10.0,-19.0,258.0,112.0,28.0,-16.0,-82.0,-86.0,1071.0
-13.0,-22.0,260.0,112.0,25.0,-16.0,-83.0,-94.0,1069.0
-12.0,-21.0,257.0,111.0,25.0,-16.0,-83.0,-90.0,1072.0
-11.0,-20.0,258.0,112.0,25.0,-18.0,-84.0,-95.0,1068.0
-14.0,-18.0,256.0,112.0,24.0,-18.0,-83.0,-92.0,1076.0
-14.0,-19.0,256.0,113.0,24.0,-20.0,-85.0,-95.0,1069.0
-9.0,-21.0,259.0,113.0,23.0,-22.0,-82.0,-94.0,1071.0
-12.0,-21.0,258.0,113.0,21.0,-21.0,-85.0,-94.0,1067.0
-12.0,-18.0,257.0,110.0,21.0,-21.0,-77.0,-95.0,1066.0
-11.0,-19.0,256.0,105.0,21.0,-19.0,-82.0,-98.0,1064.0
-11.0,-22.0,257.0,101.0,23.0,-18.0,-78.0,-93.0,1075.0
-10.0,-23.0,258.0,97.0,24.0,-18.0,-79.0,-98.0,1069.0
-12.0,-22.0,258.0,95.0,24.0,-16.0,-78.0,-95.0,1067.0
-13.0,-20.0,257.0,95.0,22.0,-17.0,-83.0,-92.0,1072.0
-12.0,-20.0,258.0,96.0,22.0,-15.0,-80.0,-88.0,1066.0
-12.0,-17.0,258.0,97.0,23.0,-14.0,-83.0,-91.0,1070.0
-11.0,-19.0,255.0,100.0,23.0,-12.0,-82.0,-86.0,1072.0
-7.0,-21.0,255.0,101.0,26.0,-12.0,-81.0,-88.0,1063.0
-14.0,-17.0,256.0,105.0,28.0,-12.0,-78.0,-87.0,1066.0
-13.0,-16.0,255.0,110.0,30.0,-15.0,-80.0,-87.0,1066.0
-9.0,-20.0,258.0,115.0,30.0,-14.0,-77.0,-85.0,1071.0
-12.0,-15.0,256.0,120.0,30.0,-16.0,-79.0,-89.0,1065.0
-14.0,-15.0,256.0,123.0,32.0,-17.0,-75.0,-80.0,1066.0
-11.0,-19.0,256.0,125.0,33.0,-16.0,-80.0,-84.0,1068.0
-12.0,-17.0,258.0,127.0,34.0,-16.0,-85.0,-78.0,1065.0
-9.0,-17.0,257.0,128.0,38.0,-16.0,-75.0,-79.0,1073.0
-10.0,-20.0,258.0,128.0,36.0,-16.0,-80.0,-80.0,1070.0
-12.0,-14.0,261.0,129.0,34.0,-16.0,-80.0,-80.0,1075.0
-10.0,-15.0,259.0,130.0,32.0,-16.0,-74.0,-76.0,1070.0
-9.0,-17.0,258.0,129.0,29.0,-16.0,-79.0,-78.0,1078.0
-14.0,-12.0,258.0,130.0,24.0,-15.0,-79.0,-79.0,1075.0
-12.0,-15.0,261.0,127.0,19.0,-13.0,-76.0,-68.0,1076.0
-9.0,-12.0,257.0,126.0,15.0,-12.0,-77.0,-76.0,1070.0
-13.0,-13.0,256.0,121.0,14.0,-12.0,-81.0,-69.0,1071.0
-12.0,-14.0,261.0,121.0,12.0,-11.0,-86.0,-69.0,1077.0
-9.0,-15.0,259.0,119.0,9.0,-11.0,-77.0,-68.0,1072.0
-11.0,-16.0,260.0,119.0,9.0,-11.0,-82.0,-75.0,1070.0
-14.0,-17.0,255.0,119.0,10.0,-12.0,-81.0,-70.0,1073.0
-13.0,-17.0,256.0,119.0,9.0,-11.0,-77.0,-75.0,1080.0
-9.0,-16.0,260.0,119.0,9.0,-12.0,-86.0,-70.0,1073.0
-14.0,-14.0,260.0,121.0,11.0,-14.0,-80.0,-64.0,1073.0
-14.0,-11.0,257.0,121.0,12.0,-14.0,-80.0,-62.0,1077.0
-15.0,-14.0,260.0,122.0,12.0,-13.0,-86.0,-67.0,1073.0
-13.0,-14.0,259.0,119.0,13.0,-12.0,-84.0,-70.0,1072.0
-13.0,-14.0,257.0,117.0,15.0,-12.0,-83.0,-69.0,1075.0
-8.0,-16.0,259.0,112.0,16.0,-12.0,-79.0,-62.0,1075.0
-8.0,-10.0,256.0,106.0,16.0,-11.0,-79.0,-63.0,1082.0
-13.0,-13.0,263.0,99.0,16.0,-12.0,-80.0,-61.0,1076.0
-10.0,-12.0,256.0,94.0,17.0,-12.0,-82.0,-66.0,1077.0
-6.0,-16.0,257.0,89.0,19.0,-12.0,-78.0,-62.0,1081.0
-15.0,-13.0,257.0,83.0,19.0,-11.0,-80.0,-64.0,1075.0
-11.0,-15.0,260.0,81.0,16.0,-12.0,-82.0,-60.0,1072.0
-11.0,-15.0,260.0,77.0,15.0,-10.0,-81.0,-64.0,1073.0
-13.0,-10.0,259.0,76.0,13.0,-10.0,-77.0,-60.0,1076.0
-10.0,-13.0,258.0,76.0,12.0,-10.0,-79.0,-64.0,1074.0
-9.0,-14.0,259.0,76.0,11.0,-9.0,-80.0,-62.0,1074.0
-12.0,-15.0,256.0,78.0,9.0,-8.0,-78.0,-63.0,1078.0
-9.0,-11.0,255.0,80.0,9.0,-6.0,-78.0,-61.0,1077.0
-11.0,-16.0,260.0,80.0,8.0,-6.0,-76.0,-64.0,1074.0
-12.0,-12.0,259.0,82.0,8.0,-5.0,-85.0,-58.0,1079.0
-9.0,-12.0,260.0,82.0,8.0,-6.0,-79.0,-62.0,1074.0
-14.0,-14.0,259.0,83.0,8.0,-5.0,-80.0,-70.0,1077.0
-12.0,-16.0,260.0,84.0,6.0,-7.0,-77.0,-64.0,1075.0
-12.0,-15.0,258.0,85.0,7.0,-7.0,-78.0,-69.0,1075.0
-12.0,-19.0,258.0,86.0,6.0,-7.0,-83.0,-65.0,1069.0
-14.0,-11.0,254.0,88.0,7.0,-7.0,-79.0,-69.0,1073.0
-11.0,-14.0,257.0,88.0,8.0,-9.0,-81.0,-68.0,1076.0
-12.0,-12.0,254.0,88.0,10.0,-10.0,-80.0,-61.0,1077.0
-11.0,-14.0,260.0,86.0,11.0,-7.0,-79.0,-64.0,1076.0
-13.0,-13.0,261.0,82.0,12.0,-8.0,-80.0,-63.0,1073.0
-10.0,-12.0,261.0,76.0,16.0,-11.0,-78.0,-63.0,1079.0
-10.0,-14.0,265.0,70.0,19.0,-11.0,-79.0,-64.0,1082.0
-12.0,-12.0,263.0,64.0,21.0,-10.0,-81.0,-69.0,1091.0
-12.0,-16.0,262.0,62.0,23.0,-12.0,-81.0,-70.0,1086.0
-13.0,-16.0,263.0,65.0,25.0,-13.0,-80.0,-70.0,1077.0
-11.0,-19.0,258.0,71.0,23.0,-13.0,-80.0,-78.0,1068.0
-13.0,-15.0,256.0,78.0,19.0,-14.0,-84.0,-70.0,1067.0
-13.0,-13.0,258.0,85.0,16.0,-12.0,-82.0,-72.0,1058.0
-13.0,-11.0,254.0,94.0,14.0,-12.0,-77.0,-70.0,1062.0
-10.0,-13.0,253.0,104.0,15.0,-10.0,-82.0,-69.0,1060.0
-11.0,-15.0,256.0,113.0,15.0,-11.0,-79.0,-68.0,1067.0
-10.0,-13.0,259.0,119.0,14.0,-11.0,-79.0,-65.0,1071.0
-13.0,-12.0,258.0,124.0,13.0,-9.0,-80.0,-53.0,1068.0
-11.0,-12.0,260.0,124.0,11.0,-8.0,-78.0,-58.0,1066.0
-10.0,-10.0,257.0,122.0,10.0,-8.0,-79.0,-50.0,1067.0
-11.0,-10.0,253.0,118.0,9.0,-8.0,-81.0,-52.0,1072.0
-11.0,-12.0,259.0,113.0,9.0,-8.0,-82.0,-49.0,1072.0
-14.0,-7.0,261.0,108.0,11.0,-9.0,-79.0,-47.0,1074.0
-13.0,-7.0,257.0,102.0,13.0,-9.0,-76.0,-44.0,1069.0
-15.0,-6.0,255.0,95.0,15.0,-6.0,-86.0,-50.0,1075.0
-10.0,-11.0,258.0,88.0,16.0,-5.0,-81.0,-47.0,1078.0
-13.0,-6.0,259.0,79.0,21.0,-3.0,-76.0,-48.0,1070.0
-8.0,-7.0,259.0,71.0,23.0,-3.0,-72.0,-48.0,1077.0
-14.0,-7.0,261.0,69.0,22.0,-4.0,-77.0,-56.0,1076.0
-9.0,-9.0,262.0,69.0,17.0,-8.0,-77.0,-51.0,1083.0
-9.0,-11.0,257.0,68.0,15.0,-8.0,-76.0,-57.0,1078.0
-7.0,-10.0,260.0,68.0,12.0,-7.0,-77.0,-56.0,1078.0
-15.0,-7.0,260.0,69.0,10.0,-9.0,-83.0,-59.0,1073.0
-9.0,-14.0,256.0,68.0,9.0,-10.0,-78.0,-56.0,1075.0
-8.0,-12.0,258.0,68.0,9.0,-9.0,-81.0,-53.0,1070.0
-12.0,-12.0,259.0,68.0,9.0,-9.0,-79.0,-55.0,1077.0
-11.0,-10.0,258.0,68.0,8.0,-8.0,-82.0,-56.0,1076.0
-13.0,-6.0,260.0,64.0,9.0,-7.0,-82.0,-50.0,1071.0
-12.0,-12.0,262.0,61.0,8.0,-6.0,-81.0,-53.0,1072.0
-11.0,-8.0,259.0,57.0,7.0,-7.0,-78.0,-50.0,1076.0
-11.0,-8.0,260.0,51.0,6.0,-5.0,-83.0,-47.0,1078.0
-10.0,-8.0,260.0,46.0,5.0,-5.0,-81.0,-49.0,1079.0
-13.0,-8.0,260.0,39.0,5.0,-4.0,-82.0,-52.0,1079.0
-12.0,-10.0,258.0,33.0,5.0,-7.0,-78.0,-45.0,1082.0
-11.0,-7.0,258.0,28.0,4.0,-6.0,-82.0,-54.0,1071.0
-9.0,-7.0,261.0,22.0,5.0,-5.0,-79.0,-49.0,1078.0
-10.0,-11.0,257.0,18.0,5.0,-6.0,-84.0,-53.0,1074.0
-14.0,-13.0,260.0,15.0,8.0,-6.0,-83.0,-52.0,1069.0
-10.0,-12.0,255.0,13.0,7.0,-5.0,-81.0,-56.0,1070.0
-12.0,-10.0,263.0,11.0,9.0,-5.0,-77.0,-52.0,1078.0
-11.0,-12.0,260.0,8.0,8.0,-5.0,-84.0,-50.0,1076.0
-9.0,-5.0,260.0,5.0,8.0,-4.0,-83.0,-54.0,1074.0
-13.0,-8.0,261.0,1.0,8.0,-3.0,-79.0,-59.0,1078.0
-16.0,-8.0,261.0,-1.0,6.0,-2.0,-81.0,-53.0,1075.0
-13.0,-11.0,260.0,-4.0,7.0,-2.0,-83.0,-51.0,1071.0
-7.0,-13.0,260.0,-6.0,5.0,-3.0,-80.0,-60.0,1079.0
-13.0,-9.0,257.0,-7.0,6.0,-2.0,-85.0,-54.0,1075.0
-11.0,-11.0,257.0,-11.0,5.0,-3.0,-83.0,-56.0,1080.0
-10.0,-14.0,259.0,-11.0,5.0,-2.0,-77.0,-61.0,1075.0
-11.0,-14.0,256.0,-11.0,6.0,-3.0,-80.0,-59.0,1070.0
-6.0,-12.0,259.0,-11.0,7.0,-4.0,-79.0,-62.0,1074.0
-7.0,-14.0,254.0,-11.0,8.0,-5.0,-78.0,-65.0,1081.0
-7.0,-14.0,259.0,-10.0,9.0,-7.0,-77.0,-61.0,1074.0
-13.0,-15.0,254.0,-11.0,9.0,-7.0,-79.0,-65.0,1071.0
-10.0,-13.0,258.0,-10.0,11.0,-6.0,-82.0,-63.0,1076.0
-8.0,-15.0,261.0,-11.0,12.0,-7.0,-76.0,-66.0,1077.0
-11.0,-14.0,258.0,-10.0,13.0,-8.0,-79.0,-64.0,1074.0
-12.0,-13.0,257.0,-12.0,14.0,-6.0,-81.0,-64.0,1076.0
-11.0,-10.0,258.0,-13.0,13.0,-6.0,-80.0,-60.0,1076.0
-13.0,-12.0,259.0,-13.0,13.0,-5.0,-80.0,-65.0,1075.0
-13.0,-10.0,261.0,-15.0,13.0,-8.0,-79.0,-72.0,1072.0
-11.0,-17.0,261.0,-19.0,12.0,-6.0,-81.0,-69.0,1069.0
-11.0,-13.0,259.0,-21.0,11.0,-5.0,-85.0,-66.0,1079.0
-13.0,-14.0,260.0,-24.0,11.0,-6.0,-76.0,-66.0,1068.0
-11.0,-16.0,261.0,-26.0,10.0,-4.0,-81.0,-68.0,1075.0
-13.0,-13.0,260.0,-29.0,8.0,-4.0,-84.0,-67.0,1071.0
-9.0,-13.0,256.0,-32.0,8.0,-5.0,-82.0,-67.0,1082.0
-11.0,-17.0,259.0,-34.0,8.0,-6.0,-78.0,-70.0,1078.0
-11.0,-13.0,261.0,-38.0,9.0,-5.0,-76.0,-70.0,1075.0
-11.0,-16.0,259.0,-40.0,10.0,-6.0,-78.0,-63.0,1075.0
-11.0,-17.0,263.0,-42.0,9.0,-6.0,-80.0,-72.0,1078.0
-11.0,-15.0,256.0,-43.0,11.0,-6.0,-76.0,-71.0,1081.0
-9.0,-18.0,259.0,-45.0,12.0,-4.0,-79.0,-66.0,1078.0
-9.0,-15.0,260.0,-43.0,13.0,-4.0,-77.0,-78.0,1071.0
-15.0,-13.0,257.0,-43.0,13.0,-4.0,-76.0,-79.0,1081.0
-11.0,-16.0,259.0,-40.0,13.0,-5.0,-80.0,-78.0,1070.0
-12.0,-16.0,259.0,-37.0,13.0,-5.0,-81.0,-80.0,1074.0
-12.0,-15.0,261.0,-35.0,13.0,-5.0,-79.0,-77.0,1072.0
-12.0,-15.0,259.0,-33.0,13.0,-5.0,-79.0,-80.0,1073.0
-11.0,-16.0,259.0,-33.0,14.0,-5.0,-78.0,-76.0,1069.0
-12.0,-17.0,257.0,-32.0,14.0,-6.0,-78.0,-80.0,1073.0
-10.0,-17.0,258.0,-28.0,14.0,-6.0,-82.0,-80.0,1074.0
-9.0,-19.0,259.0,-27.0,14.0,-6.0,-77.0,-81.0,1074.0
-12.0,-16.0,259.0,-25.0,14.0,-6.0,-78.0,-78.0,1074.0
-12.0,-13.0,261.0,-24.0,15.0,-5.0,-84.0,-74.0,1071.0
-11.0,-19.0,258.0,-25.0,15.0,-5.0,-77.0,-74.0,1072.0
-12.0,-18.0,258.0,-25.0,14.0,-5.0,-82.0,-78.0,1073.0
-15.0,-14.0,259.0,-27.0,13.0,-5.0,-76.0,-82.0,1073.0
-12.0,-7.0,256.0,-29.0,13.0,-5.0,-71.0,-72.0,1073.0
-12.0,-19.0,256.0,-30.0,11.0,-6.0,-80.0,-81.0,1068.0
-13.0,-13.0,258.0,-30.0,12.0,-4.0,-76.0,-81.0,1067.0
-14.0,-15.0,255.0,-32.0,12.0,-4.0,-76.0,-80.0,1070.0
-10.0,-14.0,257.0,-33.0,10.0,-5.0,-77.0,-80.0,1070.0
-12.0,-14.0,257.0,-35.0,9.0,-3.0,-86.0,-79.0,1069.0
-10.0,-18.0,258.0,-36.0,8.0,-3.0,-79.0,-82.0,1069.0
-12.0,-15.0,258.0,-36.0,8.0,-4.0,-82.0,-82.0,1071.0
-12.0,-14.0,261.0,-36.0,8.0,-5.0,-76.0,-84.0,1072.0
-7.0,-17.0,257.0,-36.0,9.0,-5.0,-75.0,-79.0,1068.0
-12.0,-20.0,257.0,-36.0,10.0,-5.0,-83.0,-82.0,1071.0
-11.0,-18.0,257.0,-34.0,11.0,-4.0,-77.0,-85.0,1066.0
-12.0,-16.0,257.0,-34.0,12.0,-3.0,-77.0,-78.0,1074.0
-11.0,-18.0,259.0,-33.0,14.0,-5.0,-80.0,-83.0,1068.0
-10.0,-15.0,257.0,-31.0,14.0,-5.0,-81.0,-83.0,1066.0
-11.0,-22.0,259.0,-31.0,16.0,-5.0,-75.0,-87.0,1072.0
-13.0,-16.0,261.0,-28.0,15.0,-5.0,-77.0,-86.0,1070.0
-12.0,-17.0,262.0,-28.0,15.0,-5.0,-78.0,-89.0,1072.0
-11.0,-19.0,257.0,-29.0,15.0,-4.0,-78.0,-88.0,1078.0
-14.0,-17.0,255.0,-28.0,15.0,-3.0,-74.0,-87.0,1071.0
-9.0,-16.0,257.0,-28.0,16.0,-3.0,-81.0,-85.0,1078.0
-11.0,-17.0,257.0,-29.0,15.0,-3.0,-82.0,-91.0,1078.0
-13.0,-20.0,263.0,-30.0,15.0,-3.0,-76.0,-93.0,1070.0
-12.0,-18.0,258.0,-31.0,13.0,-3.0,-82.0,-92.0,1074.0
-13.0,-21.0,259.0,-32.0,14.0,-2.0,-78.0,-94.0,1076.0
-12.0,-22.0,255.0,-34.0,14.0,-2.0,-81.0,-96.0,1070.0
-12.0,-20.0,257.0,-35.0,14.0,-3.0,-81.0,-97.0,1076.0
-11.0,-23.0,256.0,-34.0,15.0,-2.0,-78.0,-94.0,1067.0
-9.0,-23.0,259.0,-33.0,16.0,-1.0,-76.0,-98.0,1074.0
-9.0,-22.0,263.0,-31.0,16.0,-4.0,-76.0,-94.0,1075.0
-11.0,-19.0,258.0,-31.0,18.0,-5.0,-76.0,-100.0,1074.0
-13.0,-20.0,258.0,-31.0,17.0,-3.0,-77.0,-103.0,1067.0
-12.0,-20.0,259.0,-30.0,16.0,-3.0,-82.0,-99.0,1071.0
-9.0,-23.0,260.0,-29.0,14.0,-3.0,-84.0,-100.0,1070.0
-10.0,-22.0,259.0,-25.0,14.0,-5.0,-78.0,-100.0,1069.0
-12.0,-21.0,259.0,-24.0,13.0,-3.0,-78.0,-104.0,1067.0
-9.0,-26.0,257.0,-24.0,13.0,-3.0,-80.0,-99.0,1068.0
-12.0,-20.0,256.0,-24.0,13.0,-3.0,-75.0,-95.0,1072.0
-8.0,-22.0,256.0,-23.0,12.0,-2.0,-80.0,-104.0,1069.0
-12.0,-20.0,258.0,-23.0,12.0,-3.0,-80.0,-105.0,1070.0
-11.0,-24.0,257.0,-22.0,13.0,-4.0,-77.0,-95.0,1070.0
-13.0,-23.0,256.0,-23.0,13.0,-3.0,-77.0,-95.0,1063.0
-13.0,-22.0,256.0,-24.0,14.0,-4.0,-80.0,-100.0,1070.0
-11.0,-22.0,258.0,-24.0,13.0,-3.0,-79.0,-105.0,1067.0
-12.0,-19.0,258.0,-23.0,14.0,-3.0,-78.0,-105.0,1066.0
-9.0,-24.0,257.0,-22.0,15.0,-3.0,-76.0,-98.0,1068.0
-6.0,-22.0,258.0,-21.0,14.0,-2.0,-78.0,-103.0,1068.0
-8.0,-23.0,256.0,-22.0,14.0,-4.0,-77.0,-102.0,1065.0
-11.0,-23.0,259.0,-22.0,15.0,-5.0,-81.0,-109.0,1067.0
-13.0,-22.0,259.0,-22.0,15.0,-4.0,-84.0,-103.0,1067.0
-11.0,-25.0,260.0,-20.0,16.0,-3.0,-75.0,-104.0,1072.0
-12.0,-22.0,257.0,-19.0,15.0,-5.0,-84.0,-108.0,1064.0
-12.0,-25.0,256.0,-19.0,15.0,-4.0,-77.0,-106.0,1064.0
-12.0,-22.0,259.0,-18.0,16.0,-3.0,-79.0,-106.0,1068.0
-11.0,-21.0,260.0,-16.0,16.0,-5.0,-81.0,-104.0,1070.0
-12.0,-24.0,258.0,-13.0,16.0,-7.0,-81.0,-105.0,1069.0
-10.0,-26.0,256.0,-9.0,17.0,-7.0,-81.0,-107.0,1062.0
-12.0,-24.0,257.0,-6.0,19.0,-6.0,-81.0,-107.0,1068.0
-15.0,-25.0,257.0,-3.0,19.0,-5.0,-76.0,-108.0,1071.0
-12.0,-24.0,256.0,0.0,18.0,-5.0,-85.0,-108.0,1070.0
-13.0,-24.0,258.0,1.0,18.0,-5.0,-81.0,-108.0,1070.0
-8.0,-28.0,257.0,2.0,18.0,-5.0,-79.0,-103.0,1066.0
-13.0,-25.0,258.0,2.0,17.0,-5.0,-84.0,-107.0,1068.0
-12.0,-21.0,255.0,2.0,15.0,-7.0,-81.0,-114.0,1066.0
-12.0,-22.0,258.0,3.0,16.0,-6.0,-83.0,-110.0,1063.0
-10.0,-26.0,257.0,3.0,18.0,-6.0,-80.0,-109.0,1071.0
-15.0,-23.0,254.0,2.0,18.0,-5.0,-78.0,-108.0,1066.0
-10.0,-22.0,254.0,2.0,18.0,-6.0,-83.0,-110.0,1065.0
-10.0,-25.0,256.0,0.0,16.0,-5.0,-81.0,-110.0,1066.0
-12.0,-24.0,257.0,-3.0,15.0,-3.0,-77.0,-106.0,1063.0
-11.0,-24.0,257.0,-4.0,13.0,-3.0,-83.0,-104.0,1066.0
-12.0,-22.0,257.0,-4.0,11.0,-3.0,-75.0,-107.0,1067.0
-12.0,-22.0,255.0,-6.0,10.0,-6.0,-77.0,-104.0,1066.0
-10.0,-25.0,257.0,-7.0,9.0,-5.0,-72.0,-104.0,1072.0
-13.0,-22.0,254.0,-8.0,8.0,-6.0,-79.0,-113.0,1069.0
-12.0,-26.0,262.0,-9.0,8.0,-8.0,-77.0,-111.0,1074.0
-12.0,-26.0,261.0,-7.0,9.0,-7.0,-88.0,-114.0,1071.0
-12.0,-27.0,259.0,-6.0,11.0,-9.0,-80.0,-111.0,1070.0
-13.0,-27.0,259.0,-2.0,15.0,-11.0,-87.0,-112.0,1079.0
-12.0,-25.0,259.0,4.0,18.0,-8.0,-87.0,-110.0,1075.0
-13.0,-24.0,261.0,7.0,20.0,-8.0,-83.0,-114.0,1065.0
-13.0,-25.0,259.0,10.0,22.0,-6.0,-84.0,-111.0,1076.0
-12.0,-30.0,257.0,11.0,22.0,-7.0,-83.0,-117.0,1065.0
-13.0,-26.0,261.0,14.0,23.0,-6.0,-80.0,-119.0,1070.0
-13.0,-30.0,255.0,17.0,23.0,-5.0,-81.0,-116.0,1062.0
-13.0,-28.0,258.0,21.0,22.0,-6.0,-74.0,-118.0,1070.0
-12.0,-31.0,261.0,21.0,20.0,-8.0,-87.0,-115.0,1062.0
-11.0,-29.0,259.0,21.0,19.0,-8.0,-78.0,-118.0,1063.0
-14.0,-28.0,257.0,18.0,16.0,-10.0,-85.0,-122.0,1062.0
-16.0,-27.0,257.0,16.0,14.0,-8.0,-85.0,-116.0,1065.0
-14.0,-25.0,256.0,11.0,12.0,-9.0,-81.0,-121.0,1074.0
-11.0,-28.0,258.0,4.0,13.0,-9.0,-86.0,-119.0,1076.0
-13.0,-25.0,261.0,0.0,14.0,-9.0,-87.0,-116.0,1084.0
-11.0,-28.0,258.0,-5.0,15.0,-9.0,-81.0,-121.0,1072.0
-13.0,-28.0,258.0,-7.0,18.0,-8.0,-81.0,-116.0,1073.0
-11.0,-28.0,260.0,-5.0,20.0,-9.0,-80.0,-121.0,1077.0
-12.0,-29.0,257.0,0.0,23.0,-8.0,-80.0,-123.0,1069.0
-13.0,-28.0,254.0,6.0,24.0,-6.0,-83.0,-123.0,1066.0
-12.0,-26.0,254.0,10.0,22.0,-7.0,-78.0,-114.0,1064.0
-10.0,-27.0,257.0,13.0,20.0,-7.0,-74.0,-118.0,1054.0
-14.0,-29.0,254.0,16.0,20.0,-8.0,-80.0,-122.0,1056.0
-11.0,-27.0,256.0,19.0,19.0,-7.0,-76.0,-119.0,1062.0
-11.0,-27.0,256.0,22.0,18.0,-8.0,-78.0,-121.0,1064.0
-12.0,-28.0,256.0,26.0,17.0,-6.0,-77.0,-118.0,1064.0
-12.0,-26.0,256.0,29.0,15.0,-8.0,-75.0,-116.0,1069.0
-9.0,-26.0,253.0,30.0,16.0,-7.0,-76.0,-113.0,1067.0
-11.0,-23.0,255.0,27.0,15.0,-4.0,-82.0,-115.0,1067.0
-8.0,-26.0,257.0,26.0,15.0,-6.0,-80.0,-117.0,1066.0
-14.0,-26.0,259.0,25.0,15.0,-7.0,-76.0,-114.0,1068.0
-13.0,-25.0,258.0,23.0,16.0,-8.0,-77.0,-109.0,1068.0
-13.0,-24.0,257.0,23.0,16.0,-9.0,-82.0,-112.0,1069.0
-12.0,-24.0,257.0,23.0,18.0,-9.0,-79.0,-115.0,1067.0
-7.0,-29.0,255.0,21.0,19.0,-9.0,-86.0,-114.0,1067.0
-10.0,-27.0,258.0,18.0,20.0,-10.0,-85.0,-117.0,1071.0
-11.0,-24.0,261.0,16.0,19.0,-10.0,-81.0,-118.0,1069.0
-12.0,-26.0,258.0,15.0,17.0,-10.0,-79.0,-121.0,1062.0
-13.0,-27.0,251.0,15.0,18.0,-10.0,-82.0,-114.0,1070.0
-12.0,-28.0,258.0,14.0,17.0,-8.0,-85.0,-115.0,1065.0
-12.0,-24.0,258.0,13.0,16.0,-8.0,-80.0,-118.0,1067.0
-16.0,-27.0,254.0,9.0,14.0,-7.0,-81.0,-117.0,1071.0
-10.0,-29.0,263.0,6.0,14.0,-8.0,-89.0,-120.0,1066.0
-9.0,-27.0,256.0,6.0,14.0,-7.0,-81.0,-119.0,1073.0
-10.0,-28.0,257.0,4.0,15.0,-8.0,-91.0,-122.0,1069.0
-15.0,-29.0,258.0,4.0,15.0,-8.0,-86.0,-123.0,1070.0
-13.0,-27.0,258.0,3.0,16.0,-6.0,-82.0,-121.0,1070.0
-13.0,-27.0,258.0,3.0,17.0,-7.0,-89.0,-122.0,1066.0
-9.0,-28.0,255.0,3.0,19.0,-8.0,-84.0,-121.0,1065.0
-10.0,-32.0,258.0,2.0,19.0,-7.0,-85.0,-123.0,1066.0
-11.0,-32.0,254.0,3.0,19.0,-9.0,-79.0,-123.0,1068.0
-13.0,-30.0,256.0,4.0,18.0,-9.0,-80.0,-123.0,1069.0
-14.0,-25.0,258.0,5.0,16.0,-8.0,-81.0,-128.0,1066.0
-10.0,-31.0,257.0,6.0,18.0,-8.0,-84.0,-125.0,1066.0
-10.0,-28.0,258.0,6.0,16.0,-8.0,-82.0,-127.0,1065.0
-14.0,-31.0,253.0,8.0,16.0,-6.0,-84.0,-127.0,1063.0
-13.0,-28.0,256.0,9.0,14.0,-7.0,-85.0,-126.0,1062.0
-12.0,-30.0,258.0,10.0,14.0,-7.0,-88.0,-124.0,1063.0
-11.0,-33.0,259.0,14.0,13.0,-7.0,-87.0,-136.0,1062.0
-12.0,-31.0,253.0,16.0,12.0,-5.0,-85.0,-128.0,1060.0
-11.0,-31.0,257.0,19.0,10.0,-8.0,-87.0,-128.0,1056.0
-11.0,-30.0,252.0,20.0,12.0,-8.0,-81.0,-130.0,1062.0
-12.0,-30.0,257.0,26.0,13.0,-8.0,-84.0,-126.0,1064.0
-11.0,-27.0,255.0,28.0,15.0,-7.0,-87.0,-126.0,1064.0
-13.0,-29.0,255.0,31.0,16.0,-7.0,-80.0,-123.0,1064.0
-14.0,-27.0,255.0,34.0,17.0,-8.0,-80.0,-132.0,1063.0
-11.0,-28.0,260.0,35.0,17.0,-8.0,-80.0,-125.0,1066.0
-4.0,-32.0,257.0,37.0,21.0,-9.0,-75.0,-131.0,1069.0
-4.0,-30.0,255.0,38.0,28.0,-11.0,-57.0,-129.0,1066.0
-4.0,-29.0,259.0,38.0,35.0,-15.0,-54.0,-124.0,1067.0
-7.0,-26.0,259.0,38.0,34.0,-16.0,-57.0,-120.0,1071.0
-12.0,-25.0,253.0,39.0,28.0,-11.0,-70.0,-117.0,1062.0
-15.0,-26.0,253.0,39.0,17.0,-5.0,-92.0,-113.0,1066.0
-19.0,-31.0,251.0,35.0,6.0,0.0,-98.0,-124.0,1062.0
-18.0,-29.0,255.0,32.0,-2.0,3.0,-107.0,-124.0,1061.0
-16.0,-35.0,256.0,29.0,-7.0,5.0,-112.0,-136.0,1056.0
-19.0,-34.0,255.0,29.0,-5.0,5.0,-108.0,-144.0,1058.0
-21.0,-34.0,258.0,30.0,-2.0,3.0,-98.0,-145.0,1061.0
-12.0,-36.0,252.0,32.0,4.0,-2.0,-98.0,-149.0,1064.0
-17.0,-34.0,255.0,36.0,11.0,-7.0,-91.0,-145.0,1066.0
-12.0,-34.0,259.0,45.0,15.0,-10.0,-82.0,-145.0,1071.0
-13.0,-35.0,256.0,54.0,18.0,-13.0,-82.0,-148.0,1074.0
-13.0,-36.0,259.0,65.0,15.0,-16.0,-79.0,-136.0,1080.0
-11.0,-35.0,258.0,73.0,11.0,-17.0,-76.0,-139.0,1077.0
-11.0,-28.0,259.0,79.0,7.0,-19.0,-77.0,-125.0,1069.0
-8.0,-28.0,258.0,82.0,4.0,-20.0,-78.0,-122.0,1070.0
-10.0,-29.0,259.0,83.0,1.0,-20.0,-75.0,-119.0,1069.0
-11.0,-24.0,256.0,82.0,-2.0,-19.0,-75.0,-116.0,1068.0
-13.0,-24.0,252.0,82.0,-1.0,-17.0,-70.0,-111.0,1066.0
-9.0,-24.0,255.0,79.0,0.0,-17.0,-74.0,-111.0,1060.0
-10.0,-25.0,250.0,76.0,1.0,-13.0,-71.0,-113.0,1047.0
-10.0,-26.0,253.0,73.0,4.0,-12.0,-73.0,-119.0,1052.0
-14.0,-27.0,251.0,70.0,6.0,-11.0,-75.0,-123.0,1054.0
-12.0,-27.0,255.0,66.0,9.0,-9.0,-80.0,-127.0,1062.0
-13.0,-29.0,256.0,63.0,12.0,-7.0,-81.0,-124.0,1057.0
-13.0,-31.0,255.0,61.0,14.0,-6.0,-83.0,-141.0,1063.0
-14.0,-31.0,255.0,57.0,17.0,-6.0,-84.0,-135.0,1064.0
-14.0,-27.0,255.0,58.0,20.0,-7.0,-85.0,-128.0,1070.0
-12.0,-29.0,261.0,56.0,23.0,-6.0,-94.0,-135.0,1070.0
-14.0,-29.0,257.0,57.0,24.0,-6.0,-91.0,-126.0,1069.0
-13.0,-28.0,256.0,58.0,24.0,-5.0,-87.0,-127.0,1075.0
-12.0,-29.0,255.0,57.0,24.0,-7.0,-91.0,-122.0,1072.0
-13.0,-27.0,255.0,58.0,22.0,-9.0,-83.0,-123.0,1075.0
-12.0,-29.0,255.0,59.0,20.0,-8.0,-82.0,-118.0,1075.0
-12.0,-28.0,260.0,60.0,17.0,-10.0,-88.0,-128.0,1067.0
-12.0,-29.0,256.0,62.0,15.0,-12.0,-82.0,-122.0,1068.0
-12.0,-29.0,260.0,64.0,13.0,-11.0,-78.0,-120.0,1072.0
-11.0,-31.0,256.0,68.0,8.0,-14.0,-78.0,-123.0,1065.0
-11.0,-29.0,258.0,70.0,6.0,-13.0,-78.0,-126.0,1063.0
-13.0,-31.0,254.0,74.0,3.0,-14.0,-79.0,-121.0,1072.0
-14.0,-25.0,255.0,78.0,3.0,-13.0,-77.0,-125.0,1069.0
-8.0,-31.0,253.0,81.0,4.0,-13.0,-80.0,-123.0,1061.0
-15.0,-28.0,255.0,81.0,5.0,-12.0,-83.0,-126.0,1062.0
-11.0,-28.0,253.0,81.0,5.0,-12.0,-80.0,-123.0,1065.0
-13.0,-25.0,257.0,81.0,5.0,-12.0,-76.0,-124.0,1062.0
-11.0,-30.0,256.0,81.0,5.0,-11.0,-83.0,-126.0,1070.0
-15.0,-31.0,257.0,80.0,6.0,-10.0,-83.0,-125.0,1060.0
-11.0,-28.0,258.0,78.0,9.0,-11.0,-80.0,-131.0,1070.0
-10.0,-29.0,258.0,78.0,11.0,-11.0,-83.0,-126.0,1068.0
