acc1_x,acc1_y,acc1_z,gyro_x,gyro_y,gyro_z,acc2_x,acc2_y,acc2_z
-9.0,-235.0,-113.0,94.0,19.0,-21.0,-1.0,-894.0,-502.0
-9.0,-236.0,-113.0,101.0,20.0,-20.0,-3.0,-897.0,-502.0
-6.0,-235.0,-115.0,108.0,19.0,-20.0,-7.0,-890.0,-502.0
-9.0,-234.0,-112.0,113.0,20.0,-21.0,-6.0,-890.0,-502.0
-9.0,-231.0,-110.0,115.0,20.0,-21.0,-3.0,-888.0,-497.0
-7.0,-229.0,-114.0,115.0,21.0,-20.0,-7.0,-886.0,-503.0
-5.0,-230.0,-111.0,113.0,19.0,-20.0,-7.0,-884.0,-499.0
-9.0,-226.0,-114.0,108.0,18.0,-22.0,-2.0,-878.0,-504.0
-9.0,-233.0,-109.0,104.0,16.0,-22.0,-7.0,-886.0,-501.0
-7.0,-233.0,-112.0,98.0,14.0,-21.0,-6.0,-882.0,-499.0
-2.0,-235.0,-114.0,95.0,13.0,-22.0,-5.0,-891.0,-504.0
-8.0,-233.0,-110.0,91.0,12.0,-24.0,-5.0,-892.0,-499.0
-6.0,-233.0,-113.0,87.0,11.0,-24.0,-5.0,-893.0,-503.0
-4.0,-233.0,-113.0,84.0,15.0,-24.0,1.0,-896.0,-502.0
-2.0,-236.0,-109.0,82.0,18.0,-25.0,-2.0,-894.0,-502.0
-3.0,-234.0,-107.0,82.0,21.0,-25.0,1.0,-903.0,-502.0
-7.0,-234.0,-112.0,86.0,24.0,-27.0,1.0,-902.0,-496.0
-1.0,-236.0,-109.0,88.0,26.0,-26.0,4.0,-898.0,-498.0
-2.0,-239.0,-111.0,92.0,26.0,-24.0,8.0,-898.0,-499.0
-2.0,-238.0,-112.0,94.0,28.0,-24.0,10.0,-902.0,-498.0
-3.0,-235.0,-113.0,99.0,28.0,-23.0,16.0,-898.0,-494.0
-1.0,-234.0,-106.0,103.0,30.0,-20.0,10.0,-895.0,-488.0
-1.0,-234.0,-108.0,108.0,33.0,-20.0,16.0,-894.0,-485.0
0.0,-235.0,-104.0,107.0,39.0,-18.0,14.0,-893.0,-483.0
-2.0,-235.0,-109.0,107.0,44.0,-15.0,18.0,-891.0,-486.0
0.0,-231.0,-106.0,106.0,50.0,-12.0,14.0,-887.0,-484.0
-1.0,-234.0,-110.0,103.0,55.0,-10.0,14.0,-888.0,-482.0
-1.0,-231.0,-107.0,97.0,58.0,-8.0,16.0,-882.0,-478.0
0.0,-232.0,-104.0,92.0,61.0,-8.0,13.0,-884.0,-479.0
-4.0,-231.0,-108.0,86.0,62.0,-9.0,13.0,-886.0,-474.0
-5.0,-229.0,-108.0,77.0,63.0,-7.0,7.0,-878.0,-480.0
-1.0,-233.0,-109.0,70.0,63.0,-7.0,0.0,-887.0,-472.0
-2.0,-231.0,-107.0,62.0,63.0,-8.0,8.0,-880.0,-477.0
-1.0,-230.0,-104.0,56.0,65.0,-8.0,13.0,-884.0,-476.0
-4.0,-234.0,-106.0,50.0,65.0,-9.0,15.0,-887.0,-473.0
0.0,-236.0,-104.0,46.0,65.0,-10.0,12.0,-893.0,-474.0
-4.0,-240.0,-104.0,43.0,67.0,-9.0,12.0,-893.0,-474.0
-1.0,-236.0,-105.0,40.0,66.0,-8.0,15.0,-900.0,-473.0
-5.0,-234.0,-105.0,35.0,64.0,-7.0,13.0,-897.0,-476.0
-4.0,-235.0,-106.0,32.0,64.0,-5.0,17.0,-902.0,-468.0
-3.0,-237.0,-112.0,30.0,63.0,-3.0,12.0,-903.0,-477.0
-2.0,-236.0,-107.0,28.0,62.0,0.0,18.0,-902.0,-479.0
-3.0,-236.0,-108.0,26.0,62.0,2.0,15.0,-902.0,-484.0
0.0,-237.0,-105.0,25.0,60.0,5.0,15.0,-907.0,-476.0
0.0,-239.0,-110.0,25.0,58.0,7.0,17.0,-912.0,-480.0
-2.0,-241.0,-105.0,29.0,57.0,9.0,18.0,-912.0,-480.0
0.0,-236.0,-107.0,33.0,56.0,12.0,14.0,-917.0,-485.0
-3.0,-239.0,-104.0,37.0,58.0,12.0,17.0,-916.0,-480.0
-2.0,-241.0,-107.0,41.0,59.0,12.0,12.0,-915.0,-479.0
-2.0,-241.0,-108.0,46.0,63.0,11.0,16.0,-911.0,-477.0
-5.0,-238.0,-108.0,49.0,66.0,9.0,18.0,-910.0,-475.0
-2.0,-240.0,-100.0,53.0,70.0,5.0,15.0,-912.0,-472.0
-2.0,-237.0,-100.0,56.0,76.0,3.0,14.0,-903.0,-468.0
0.0,-239.0,-104.0,57.0,81.0,2.0,18.0,-908.0,-465.0
0.0,-239.0,-106.0,57.0,85.0,-1.0,16.0,-901.0,-468.0
0.0,-236.0,-103.0,55.0,88.0,-2.0,17.0,-896.0,-468.0
0.0,-235.0,-106.0,56.0,93.0,-2.0,21.0,-903.0,-464.0
-1.0,-236.0,-105.0,52.0,97.0,-6.0,18.0,-891.0,-464.0
-2.0,-237.0,-101.0,50.0,101.0,-6.0,17.0,-895.0,-462.0
-1.0,-234.0,-102.0,47.0,102.0,-6.0,13.0,-893.0,-464.0
-1.0,-235.0,-101.0,43.0,105.0,-6.0,15.0,-901.0,-462.0
-4.0,-235.0,-101.0,39.0,106.0,-5.0,13.0,-895.0,-469.0
-4.0,-235.0,-102.0,35.0,107.0,-5.0,13.0,-895.0,-462.0
-4.0,-233.0,-103.0,31.0,110.0,-5.0,12.0,-894.0,-466.0
-6.0,-236.0,-104.0,30.0,110.0,-3.0,11.0,-897.0,-466.0
-6.0,-237.0,-104.0,30.0,110.0,-2.0,12.0,-899.0,-461.0
0.0,-239.0,-101.0,31.0,109.0,-2.0,10.0,-896.0,-464.0
-2.0,-237.0,-102.0,33.0,109.0,-2.0,10.0,-900.0,-466.0
-5.0,-234.0,-103.0,33.0,109.0,-2.0,14.0,-903.0,-466.0
-2.0,-236.0,-103.0,33.0,111.0,-2.0,9.0,-897.0,-464.0
-4.0,-234.0,-103.0,33.0,111.0,-3.0,9.0,-898.0,-465.0
-4.0,-236.0,-102.0,34.0,112.0,-3.0,10.0,-903.0,-465.0
-1.0,-237.0,-102.0,32.0,113.0,-2.0,8.0,-897.0,-466.0
-3.0,-237.0,-105.0,31.0,115.0,-1.0,14.0,-899.0,-464.0
-1.0,-235.0,-107.0,30.0,116.0,-1.0,19.0,-899.0,-470.0
-3.0,-237.0,-104.0,29.0,120.0,-1.0,15.0,-901.0,-464.0
-2.0,-236.0,-101.0,27.0,123.0,-1.0,13.0,-903.0,-465.0
-1.0,-239.0,-104.0,26.0,125.0,-1.0,15.0,-901.0,-462.0
0.0,-239.0,-105.0,26.0,128.0,-1.0,16.0,-899.0,-464.0
-2.0,-235.0,-98.0,26.0,130.0,-3.0,11.0,-900.0,-462.0
1.0,-237.0,-102.0,26.0,133.0,-2.0,17.0,-899.0,-463.0
-3.0,-236.0,-106.0,26.0,133.0,-4.0,14.0,-901.0,-464.0
-3.0,-233.0,-103.0,27.0,135.0,-3.0,11.0,-903.0,-458.0
-1.0,-237.0,-102.0,27.0,136.0,-4.0,10.0,-904.0,-463.0
0.0,-232.0,-102.0,26.0,139.0,-2.0,16.0,-901.0,-463.0
0.0,-237.0,-103.0,24.0,137.0,-4.0,12.0,-898.0,-463.0
-3.0,-236.0,-102.0,23.0,139.0,-4.0,17.0,-898.0,-461.0
-3.0,-237.0,-102.0,22.0,140.0,-5.0,11.0,-905.0,-459.0
0.0,-239.0,-103.0,20.0,139.0,-6.0,15.0,-903.0,-460.0
-4.0,-237.0,-100.0,19.0,139.0,-7.0,19.0,-900.0,-457.0
0.0,-239.0,-100.0,17.0,137.0,-7.0,18.0,-904.0,-460.0
-2.0,-237.0,-102.0,13.0,135.0,-6.0,13.0,-904.0,-458.0
0.0,-237.0,-101.0,10.0,133.0,-6.0,19.0,-907.0,-453.0
-1.0,-238.0,-98.0,7.0,129.0,-4.0,13.0,-903.0,-450.0
-4.0,-237.0,-103.0,5.0,127.0,-4.0,10.0,-906.0,-449.0
0.0,-239.0,-96.0,4.0,124.0,-3.0,12.0,-906.0,-450.0
-3.0,-235.0,-99.0,2.0,120.0,0.0,13.0,-908.0,-449.0
-4.0,-239.0,-99.0,0.0,118.0,1.0,13.0,-906.0,-448.0
-1.0,-238.0,-97.0,-1.0,114.0,4.0,13.0,-911.0,-447.0
-4.0,-241.0,-102.0,1.0,111.0,5.0,13.0,-909.0,-448.0
-5.0,-238.0,-100.0,3.0,109.0,5.0,11.0,-912.0,-455.0
-1.0,-240.0,-100.0,4.0,107.0,5.0,11.0,-913.0,-455.0
-5.0,-237.0,-101.0,6.0,105.0,5.0,15.0,-916.0,-447.0
-4.0,-242.0,-103.0,9.0,102.0,7.0,13.0,-910.0,-452.0
-2.0,-241.0,-99.0,11.0,100.0,7.0,13.0,-913.0,-449.0
0.0,-240.0,-98.0,12.0,97.0,5.0,18.0,-911.0,-449.0
-5.0,-237.0,-100.0,11.0,94.0,5.0,12.0,-909.0,-450.0
-2.0,-238.0,-100.0,5.0,89.0,7.0,17.0,-911.0,-454.0
-5.0,-238.0,-100.0,-2.0,86.0,7.0,16.0,-910.0,-452.0
-3.0,-243.0,-102.0,-7.0,83.0,10.0,16.0,-909.0,-452.0
0.0,-241.0,-98.0,-14.0,81.0,10.0,13.0,-911.0,-452.0
-3.0,-241.0,-100.0,-21.0,78.0,9.0,12.0,-918.0,-451.0
-7.0,-242.0,-100.0,-26.0,80.0,8.0,13.0,-918.0,-454.0
-3.0,-244.0,-99.0,-26.0,79.0,7.0,11.0,-921.0,-450.0
-2.0,-242.0,-99.0,-26.0,79.0,7.0,11.0,-922.0,-449.0
-5.0,-244.0,-99.0,-23.0,79.0,5.0,11.0,-925.0,-452.0
-1.0,-242.0,-97.0,-19.0,81.0,2.0,12.0,-921.0,-457.0
-6.0,-241.0,-102.0,-13.0,83.0,0.0,10.0,-918.0,-459.0
-2.0,-241.0,-98.0,-6.0,86.0,-2.0,15.0,-920.0,-450.0
0.0,-241.0,-100.0,-2.0,90.0,-5.0,17.0,-918.0,-456.0
-1.0,-241.0,-100.0,3.0,94.0,-5.0,16.0,-908.0,-456.0
-1.0,-240.0,-101.0,7.0,97.0,-8.0,17.0,-906.0,-456.0
0.0,-236.0,-100.0,8.0,104.0,-10.0,22.0,-903.0,-458.0
-2.0,-235.0,-103.0,9.0,108.0,-9.0,23.0,-900.0,-458.0
-2.0,-238.0,-99.0,7.0,112.0,-9.0,16.0,-895.0,-458.0
-1.0,-234.0,-103.0,3.0,116.0,-10.0,18.0,-897.0,-457.0
0.0,-233.0,-102.0,0.0,121.0,-11.0,24.0,-889.0,-457.0
-4.0,-229.0,-101.0,-6.0,120.0,-9.0,24.0,-892.0,-451.0
-1.0,-234.0,-101.0,-13.0,119.0,-9.0,29.0,-891.0,-451.0
-2.0,-232.0,-97.0,-18.0,118.0,-8.0,23.0,-883.0,-451.0
0.0,-232.0,-100.0,-25.0,116.0,-7.0,17.0,-887.0,-454.0
-1.0,-232.0,-99.0,-33.0,113.0,-6.0,18.0,-889.0,-455.0
-2.0,-232.0,-102.0,-41.0,109.0,-5.0,17.0,-886.0,-454.0
0.0,-232.0,-102.0,-49.0,107.0,-4.0,17.0,-889.0,-451.0
-2.0,-236.0,-97.0,-55.0,103.0,-3.0,14.0,-893.0,-453.0
-3.0,-234.0,-99.0,-63.0,100.0,-5.0,20.0,-893.0,-451.0
-1.0,-237.0,-102.0,-67.0,98.0,-4.0,15.0,-899.0,-457.0
-3.0,-236.0,-103.0,-70.0,96.0,-3.0,16.0,-898.0,-459.0
-5.0,-236.0,-102.0,-72.0,95.0,-3.0,14.0,-906.0,-461.0
0.0,-235.0,-100.0,-71.0,94.0,-5.0,18.0,-908.0,-458.0
-1.0,-241.0,-104.0,-68.0,95.0,-7.0,25.0,-909.0,-466.0
0.0,-239.0,-103.0,-65.0,95.0,-8.0,19.0,-915.0,-464.0
0.0,-241.0,-102.0,-62.0,96.0,-8.0,20.0,-909.0,-462.0
0.0,-238.0,-102.0,-57.0,98.0,-9.0,23.0,-915.0,-466.0
0.0,-236.0,-103.0,-54.0,98.0,-9.0,23.0,-911.0,-466.0
0.0,-240.0,-99.0,-51.0,100.0,-8.0,31.0,-910.0,-463.0
1.0,-236.0,-102.0,-48.0,100.0,-7.0,33.0,-907.0,-458.0
0.0,-239.0,-102.0,-48.0,100.0,-5.0,31.0,-908.0,-458.0
1.0,-238.0,-101.0,-50.0,100.0,-3.0,30.0,-904.0,-460.0
1.0,-236.0,-104.0,-55.0,99.0,1.0,26.0,-899.0,-454.0
-2.0,-234.0,-100.0,-65.0,98.0,4.0,27.0,-901.0,-456.0
-2.0,-235.0,-100.0,-72.0,96.0,9.0,21.0,-904.0,-455.0
0.0,-238.0,-98.0,-82.0,94.0,12.0,16.0,-899.0,-453.0
-2.0,-237.0,-98.0,-90.0,92.0,17.0,14.0,-901.0,-454.0
-6.0,-234.0,-100.0,-98.0,91.0,19.0,7.0,-908.0,-446.0
-5.0,-237.0,-97.0,-105.0,92.0,20.0,1.0,-902.0,-449.0
-4.0,-237.0,-100.0,-110.0,94.0,20.0,8.0,-909.0,-448.0
-4.0,-236.0,-101.0,-116.0,97.0,20.0,9.0,-911.0,-451.0
-3.0,-241.0,-98.0,-119.0,102.0,20.0,8.0,-910.0,-451.0
-2.0,-239.0,-102.0,-122.0,105.0,18.0,12.0,-908.0,-450.0
-3.0,-238.0,-103.0,-123.0,109.0,16.0,11.0,-908.0,-449.0
-4.0,-238.0,-101.0,-126.0,112.0,13.0,13.0,-905.0,-456.0
-3.0,-240.0,-100.0,-127.0,114.0,13.0,17.0,-907.0,-457.0
0.0,-233.0,-99.0,-128.0,115.0,11.0,13.0,-903.0,-465.0
0.0,-235.0,-98.0,-128.0,115.0,12.0,18.0,-903.0,-462.0
0.0,-234.0,-105.0,-131.0,116.0,11.0,24.0,-894.0,-464.0
-1.0,-236.0,-101.0,-133.0,116.0,11.0,26.0,-898.0,-468.0
0.0,-236.0,-105.0,-134.0,117.0,12.0,27.0,-899.0,-471.0
-1.0,-234.0,-104.0,-138.0,118.0,12.0,26.0,-895.0,-473.0
-2.0,-235.0,-109.0,-139.0,119.0,14.0,26.0,-897.0,-480.0
0.0,-235.0,-108.0,-141.0,118.0,16.0,26.0,-897.0,-485.0
0.0,-233.0,-107.0,-142.0,117.0,17.0,28.0,-896.0,-484.0
1.0,-235.0,-108.0,-140.0,116.0,19.0,30.0,-894.0,-487.0
1.0,-236.0,-108.0,-137.0,115.0,19.0,25.0,-898.0,-489.0
0.0,-235.0,-113.0,-135.0,114.0,20.0,28.0,-902.0,-494.0
0.0,-237.0,-112.0,-129.0,114.0,20.0,26.0,-899.0,-486.0
0.0,-236.0,-109.0,-124.0,114.0,20.0,29.0,-900.0,-490.0
1.0,-235.0,-108.0,-121.0,115.0,21.0,27.0,-904.0,-487.0
0.0,-238.0,-112.0,-117.0,118.0,21.0,28.0,-907.0,-488.0
0.0,-233.0,-113.0,-114.0,119.0,20.0,31.0,-903.0,-490.0
0.0,-238.0,-111.0,-110.0,122.0,18.0,30.0,-899.0,-498.0
1.0,-234.0,-110.0,-104.0,126.0,17.0,29.0,-902.0,-488.0
0.0,-235.0,-109.0,-98.0,129.0,15.0,30.0,-897.0,-493.0
2.0,-232.0,-112.0,-93.0,132.0,12.0,29.0,-894.0,-497.0
2.0,-232.0,-111.0,-88.0,138.0,11.0,35.0,-891.0,-492.0
2.0,-231.0,-109.0,-86.0,140.0,11.0,37.0,-886.0,-497.0
2.0,-229.0,-112.0,-85.0,144.0,9.0,42.0,-886.0,-492.0
5.0,-229.0,-110.0,-86.0,149.0,7.0,42.0,-874.0,-496.0
5.0,-229.0,-111.0,-90.0,153.0,8.0,47.0,-876.0,-497.0
6.0,-228.0,-114.0,-94.0,157.0,8.0,53.0,-867.0,-501.0
5.0,-227.0,-112.0,-99.0,161.0,9.0,50.0,-868.0,-502.0
7.0,-228.0,-115.0,-105.0,166.0,8.0,55.0,-863.0,-505.0
8.0,-226.0,-117.0,-115.0,172.0,9.0,58.0,-864.0,-503.0
7.0,-223.0,-117.0,-124.0,178.0,10.0,68.0,-865.0,-510.0
9.0,-226.0,-120.0,-130.0,185.0,13.0,62.0,-861.0,-509.0
9.0,-226.0,-113.0,-139.0,193.0,17.0,61.0,-867.0,-506.0
8.0,-225.0,-114.0,-146.0,202.0,19.0,64.0,-861.0,-512.0
10.0,-229.0,-113.0,-150.0,212.0,22.0,62.0,-868.0,-507.0
12.0,-227.0,-112.0,-156.0,223.0,25.0,67.0,-864.0,-505.0
9.0,-226.0,-113.0,-161.0,234.0,28.0,73.0,-867.0,-504.0
14.0,-228.0,-113.0,-168.0,245.0,29.0,71.0,-862.0,-500.0
10.0,-226.0,-111.0,-176.0,256.0,29.0,61.0,-858.0,-504.0
5.0,-223.0,-114.0,-185.0,266.0,29.0,57.0,-867.0,-503.0
8.0,-222.0,-111.0,-195.0,276.0,27.0,65.0,-861.0,-497.0
8.0,-225.0,-113.0,-208.0,285.0,25.0,60.0,-860.0,-500.0
9.0,-224.0,-112.0,-219.0,291.0,23.0,66.0,-864.0,-503.0
8.0,-226.0,-111.0,-229.0,297.0,20.0,63.0,-864.0,-501.0
8.0,-226.0,-109.0,-240.0,303.0,19.0,73.0,-868.0,-496.0
10.0,-227.0,-110.0,-247.0,307.0,17.0,73.0,-867.0,-499.0
12.0,-227.0,-110.0,-253.0,309.0,17.0,73.0,-869.0,-492.0
10.0,-230.0,-108.0,-253.0,309.0,18.0,78.0,-873.0,-489.0
10.0,-226.0,-112.0,-251.0,305.0,20.0,75.0,-875.0,-489.0
13.0,-232.0,-113.0,-247.0,303.0,24.0,74.0,-878.0,-485.0
13.0,-232.0,-106.0,-239.0,299.0,33.0,73.0,-886.0,-484.0
13.0,-232.0,-107.0,-231.0,292.0,41.0,77.0,-887.0,-481.0
9.0,-231.0,-109.0,-224.0,286.0,50.0,71.0,-890.0,-476.0
11.0,-232.0,-108.0,-214.0,281.0,59.0,74.0,-887.0,-470.0
8.0,-232.0,-103.0,-205.0,275.0,69.0,69.0,-886.0,-473.0
8.0,-232.0,-106.0,-197.0,269.0,78.0,66.0,-890.0,-470.0
10.0,-234.0,-104.0,-193.0,264.0,89.0,62.0,-893.0,-466.0
7.0,-236.0,-104.0,-194.0,262.0,99.0,61.0,-894.0,-458.0
3.0,-235.0,-101.0,-198.0,257.0,108.0,61.0,-898.0,-465.0
7.0,-237.0,-99.0,-205.0,256.0,118.0,57.0,-894.0,-461.0
6.0,-235.0,-103.0,-217.0,253.0,124.0,54.0,-902.0,-459.0
6.0,-236.0,-104.0,-230.0,251.0,131.0,54.0,-903.0,-455.0
5.0,-235.0,-100.0,-242.0,248.0,136.0,51.0,-905.0,-461.0
7.0,-240.0,-99.0,-255.0,246.0,143.0,49.0,-914.0,-465.0
5.0,-241.0,-104.0,-265.0,246.0,149.0,49.0,-913.0,-467.0
7.0,-240.0,-103.0,-270.0,244.0,153.0,52.0,-918.0,-468.0
4.0,-241.0,-107.0,-271.0,243.0,161.0,50.0,-916.0,-469.0
4.0,-242.0,-106.0,-266.0,243.0,166.0,54.0,-918.0,-474.0
3.0,-239.0,-109.0,-256.0,243.0,173.0,56.0,-920.0,-480.0
5.0,-243.0,-105.0,-241.0,244.0,180.0,64.0,-918.0,-479.0
6.0,-236.0,-104.0,-224.0,246.0,186.0,62.0,-911.0,-482.0
8.0,-241.0,-107.0,-206.0,250.0,191.0,70.0,-910.0,-484.0
11.0,-239.0,-106.0,-190.0,255.0,195.0,61.0,-912.0,-486.0
10.0,-237.0,-108.0,-176.0,261.0,200.0,69.0,-901.0,-486.0
12.0,-238.0,-112.0,-163.0,267.0,208.0,71.0,-893.0,-488.0
14.0,-234.0,-110.0,-155.0,274.0,212.0,78.0,-894.0,-489.0
11.0,-235.0,-111.0,-151.0,280.0,218.0,81.0,-891.0,-489.0
13.0,-234.0,-112.0,-151.0,287.0,228.0,81.0,-891.0,-492.0
11.0,-232.0,-108.0,-154.0,293.0,231.0,84.0,-893.0,-492.0
14.0,-234.0,-110.0,-157.0,299.0,237.0,83.0,-891.0,-490.0
13.0,-235.0,-111.0,-164.0,305.0,242.0,83.0,-895.0,-495.0
13.0,-233.0,-112.0,-171.0,312.0,247.0,81.0,-901.0,-493.0
12.0,-237.0,-113.0,-181.0,320.0,252.0,78.0,-902.0,-501.0
15.0,-238.0,-116.0,-191.0,333.0,255.0,83.0,-909.0,-507.0
14.0,-240.0,-115.0,-201.0,345.0,257.0,88.0,-907.0,-515.0
15.0,-239.0,-117.0,-210.0,360.0,259.0,91.0,-915.0,-524.0
17.0,-239.0,-121.0,-218.0,372.0,259.0,91.0,-913.0,-536.0
18.0,-245.0,-119.0,-221.0,384.0,258.0,96.0,-918.0,-540.0
16.0,-243.0,-122.0,-220.0,392.0,257.0,99.0,-917.0,-539.0
19.0,-243.0,-121.0,-215.0,398.0,257.0,90.0,-917.0,-545.0
15.0,-242.0,-124.0,-202.0,400.0,257.0,90.0,-911.0,-540.0
10.0,-239.0,-119.0,-188.0,398.0,258.0,83.0,-909.0,-538.0
15.0,-234.0,-120.0,-174.0,392.0,260.0,72.0,-908.0,-525.0
9.0,-235.0,-119.0,-160.0,385.0,264.0,67.0,-899.0,-530.0
3.0,-233.0,-116.0,-149.0,373.0,267.0,53.0,-893.0,-521.0
2.0,-234.0,-118.0,-142.0,361.0,273.0,44.0,-883.0,-519.0
3.0,-232.0,-117.0,-138.0,349.0,276.0,32.0,-875.0,-519.0
0.0,-226.0,-118.0,-138.0,336.0,281.0,20.0,-876.0,-513.0
-2.0,-229.0,-119.0,-139.0,323.0,285.0,19.0,-873.0,-511.0
-3.0,-225.0,-116.0,-144.0,313.0,288.0,8.0,-868.0,-511.0
-4.0,-227.0,-116.0,-148.0,299.0,290.0,4.0,-864.0,-513.0
-7.0,-226.0,-114.0,-153.0,286.0,294.0,-3.0,-864.0,-509.0
-9.0,-225.0,-112.0,-159.0,268.0,294.0,-4.0,-867.0,-508.0
-8.0,-226.0,-115.0,-163.0,251.0,297.0,-8.0,-866.0,-505.0
-8.0,-226.0,-116.0,-167.0,234.0,297.0,-3.0,-860.0,-510.0
-9.0,-225.0,-111.0,-175.0,214.0,297.0,-5.0,-866.0,-516.0
-9.0,-224.0,-112.0,-185.0,195.0,299.0,-1.0,-864.0,-521.0
-9.0,-226.0,-118.0,-198.0,176.0,299.0,2.0,-865.0,-523.0
-6.0,-226.0,-121.0,-212.0,160.0,299.0,6.0,-865.0,-536.0
-7.0,-225.0,-122.0,-230.0,144.0,302.0,6.0,-870.0,-550.0
-8.0,-226.0,-125.0,-248.0,133.0,302.0,11.0,-875.0,-558.0
-4.0,-229.0,-129.0,-266.0,124.0,303.0,14.0,-876.0,-571.0
-2.0,-228.0,-134.0,-282.0,114.0,302.0,11.0,-885.0,-586.0
-4.0,-233.0,-139.0,-293.0,107.0,298.0,14.0,-891.0,-603.0
-8.0,-234.0,-148.0,-298.0,98.0,294.0,11.0,-897.0,-613.0
-3.0,-238.0,-147.0,-294.0,89.0,289.0,14.0,-901.0,-630.0
-5.0,-238.0,-145.0,-280.0,83.0,283.0,11.0,-907.0,-638.0
-4.0,-239.0,-148.0,-257.0,77.0,274.0,9.0,-900.0,-653.0
-4.0,-237.0,-151.0,-231.0,68.0,268.0,6.0,-899.0,-661.0
-4.0,-235.0,-155.0,-202.0,60.0,261.0,5.0,-892.0,-672.0
-7.0,-236.0,-155.0,-176.0,53.0,255.0,1.0,-881.0,-671.0
-9.0,-229.0,-158.0,-158.0,48.0,247.0,-4.0,-874.0,-689.0
-7.0,-226.0,-154.0,-150.0,44.0,240.0,-6.0,-861.0,-692.0
-10.0,-224.0,-161.0,-143.0,43.0,239.0,-20.0,-854.0,-692.0
-15.0,-221.0,-158.0,-140.0,39.0,237.0,-30.0,-846.0,-689.0
-18.0,-217.0,-154.0,-137.0,31.0,235.0,-44.0,-840.0,-689.0
-21.0,-217.0,-151.0,-126.0,18.0,237.0,-65.0,-828.0,-677.0
-28.0,-213.0,-154.0,-108.0,2.0,234.0,-79.0,-818.0,-666.0
-31.0,-212.0,-149.0,-81.0,-16.0,232.0,-84.0,-811.0,-642.0
-31.0,-207.0,-144.0,-54.0,-37.0,226.0,-97.0,-795.0,-635.0
-32.0,-204.0,-141.0,-28.0,-59.0,222.0,-106.0,-782.0,-624.0
-36.0,-199.0,-139.0,-7.0,-83.0,215.0,-113.0,-762.0,-610.0
-38.0,-194.0,-139.0,5.0,-106.0,212.0,-122.0,-741.0,-600.0
-38.0,-192.0,-134.0,8.0,-128.0,208.0,-126.0,-728.0,-587.0
-40.0,-189.0,-130.0,7.0,-150.0,209.0,-135.0,-726.0,-577.0
-42.0,-184.0,-128.0,-3.0,-169.0,207.0,-138.0,-720.0,-564.0
-40.0,-189.0,-128.0,-17.0,-183.0,209.0,-144.0,-720.0,-560.0
-44.0,-187.0,-124.0,-37.0,-192.0,214.0,-145.0,-721.0,-549.0
-40.0,-191.0,-128.0,-61.0,-194.0,221.0,-141.0,-727.0,-552.0
-41.0,-194.0,-124.0,-88.0,-186.0,227.0,-138.0,-740.0,-553.0
-36.0,-197.0,-127.0,-116.0,-168.0,234.0,-127.0,-755.0,-553.0
-36.0,-199.0,-127.0,-143.0,-139.0,244.0,-116.0,-776.0,-553.0
-31.0,-209.0,-128.0,-166.0,-100.0,252.0,-107.0,-800.0,-558.0
-31.0,-211.0,-127.0,-188.0,-56.0,259.0,-102.0,-816.0,-559.0
-30.0,-216.0,-128.0,-208.0,-14.0,267.0,-91.0,-831.0,-565.0
-29.0,-217.0,-127.0,-227.0,26.0,273.0,-87.0,-843.0,-566.0
-31.0,-224.0,-131.0,-246.0,61.0,277.0,-94.0,-864.0,-576.0
-30.0,-229.0,-139.0,-270.0,93.0,282.0,-97.0,-870.0,-587.0
-31.0,-231.0,-134.0,-294.0,121.0,286.0,-112.0,-890.0,-597.0
-39.0,-233.0,-141.0,-317.0,148.0,288.0,-117.0,-898.0,-615.0
-40.0,-238.0,-144.0,-333.0,173.0,288.0,-131.0,-910.0,-628.0
-42.0,-240.0,-147.0,-342.0,192.0,289.0,-149.0,-918.0,-647.0
-48.0,-244.0,-150.0,-344.0,204.0,286.0,-153.0,-927.0,-656.0
-51.0,-243.0,-150.0,-339.0,211.0,280.0,-162.0,-929.0,-662.0
-53.0,-247.0,-150.0,-327.0,211.0,274.0,-179.0,-939.0,-665.0
-56.0,-249.0,-151.0,-305.0,202.0,269.0,-194.0,-950.0,-658.0
-61.0,-248.0,-151.0,-275.0,181.0,267.0,-207.0,-950.0,-655.0
-65.0,-255.0,-153.0,-235.0,155.0,268.0,-214.0,-953.0,-645.0
-64.0,-251.0,-144.0,-198.0,121.0,272.0,-215.0,-952.0,-634.0
-64.0,-251.0,-144.0,-146.0,90.0,279.0,-215.0,-942.0,-627.0
-60.0,-246.0,-143.0,-95.0,66.0,286.0,-213.0,-932.0,-622.0
-61.0,-240.0,-143.0,-53.0,42.0,293.0,-208.0,-917.0,-613.0
-57.0,-234.0,-142.0,-18.0,19.0,304.0,-197.0,-899.0,-614.0
-53.0,-231.0,-140.0,10.0,5.0,311.0,-187.0,-887.0,-605.0
-48.0,-230.0,-134.0,28.0,-6.0,322.0,-170.0,-875.0,-605.0
-44.0,-227.0,-138.0,37.0,-12.0,334.0,-153.0,-861.0,-600.0
-41.0,-219.0,-134.0,40.0,-15.0,343.0,-144.0,-845.0,-591.0
-38.0,-216.0,-134.0,41.0,-14.0,351.0,-129.0,-843.0,-589.0
-36.0,-217.0,-133.0,41.0,-11.0,357.0,-113.0,-825.0,-580.0
-31.0,-216.0,-131.0,36.0,-7.0,361.0,-114.0,-830.0,-572.0
-30.0,-219.0,-129.0,33.0,-3.0,363.0,-104.0,-816.0,-565.0
-32.0,-214.0,-127.0,28.0,0.0,368.0,-102.0,-812.0,-569.0
-33.0,-209.0,-125.0,22.0,1.0,370.0,-96.0,-810.0,-564.0
-33.0,-209.0,-126.0,14.0,-2.0,370.0,-101.0,-803.0,-560.0
-32.0,-207.0,-126.0,6.0,-6.0,370.0,-109.0,-803.0,-560.0
-37.0,-207.0,-128.0,0.0,-11.0,370.0,-109.0,-802.0,-558.0
-37.0,-206.0,-124.0,-4.0,-17.0,366.0,-116.0,-800.0,-556.0
-40.0,-208.0,-123.0,-4.0,-25.0,362.0,-129.0,-802.0,-551.0
-38.0,-206.0,-122.0,-2.0,-34.0,356.0,-134.0,-803.0,-547.0
-43.0,-207.0,-125.0,2.0,-41.0,349.0,-137.0,-805.0,-553.0
-43.0,-210.0,-123.0,2.0,-45.0,342.0,-142.0,-803.0,-549.0
-44.0,-207.0,-123.0,3.0,-43.0,335.0,-145.0,-802.0,-548.0
-42.0,-213.0,-125.0,5.0,-37.0,326.0,-150.0,-810.0,-549.0
-40.0,-211.0,-123.0,6.0,-26.0,318.0,-151.0,-808.0,-543.0
-42.0,-212.0,-124.0,5.0,-10.0,310.0,-152.0,-824.0,-546.0
-43.0,-215.0,-120.0,4.0,8.0,304.0,-150.0,-821.0,-547.0
-44.0,-215.0,-121.0,3.0,28.0,297.0,-148.0,-824.0,-551.0
-42.0,-216.0,-124.0,-1.0,50.0,291.0,-148.0,-831.0,-550.0
-42.0,-218.0,-123.0,-1.0,71.0,286.0,-150.0,-832.0,-554.0
-45.0,-218.0,-125.0,-1.0,90.0,279.0,-156.0,-840.0,-550.0
-42.0,-218.0,-126.0,2.0,108.0,276.0,-154.0,-841.0,-551.0
-47.0,-217.0,-122.0,7.0,123.0,271.0,-160.0,-838.0,-552.0
-46.0,-217.0,-125.0,16.0,140.0,264.0,-162.0,-841.0,-554.0
-47.0,-221.0,-126.0,26.0,152.0,258.0,-161.0,-841.0,-554.0
-46.0,-218.0,-126.0,36.0,164.0,251.0,-170.0,-839.0,-553.0
-51.0,-218.0,-124.0,48.0,174.0,242.0,-179.0,-832.0,-552.0
-52.0,-215.0,-122.0,62.0,180.0,233.0,-176.0,-829.0,-549.0
-53.0,-217.0,-123.0,75.0,184.0,222.0,-186.0,-829.0,-546.0
-53.0,-215.0,-125.0,87.0,184.0,215.0,-189.0,-831.0,-545.0
-56.0,-213.0,-122.0,97.0,183.0,206.0,-194.0,-821.0,-544.0
-54.0,-213.0,-124.0,106.0,179.0,195.0,-198.0,-817.0,-539.0
-60.0,-213.0,-121.0,111.0,173.0,184.0,-206.0,-814.0,-543.0
-57.0,-209.0,-119.0,114.0,169.0,171.0,-208.0,-811.0,-527.0
-60.0,-209.0,-119.0,114.0,165.0,159.0,-208.0,-815.0,-532.0
-58.0,-210.0,-117.0,114.0,161.0,147.0,-208.0,-810.0,-515.0
-59.0,-210.0,-115.0,113.0,158.0,136.0,-210.0,-803.0,-515.0
-58.0,-210.0,-115.0,110.0,153.0,123.0,-205.0,-804.0,-508.0
-58.0,-207.0,-115.0,107.0,149.0,113.0,-205.0,-808.0,-503.0
-58.0,-211.0,-113.0,101.0,144.0,105.0,-207.0,-808.0,-500.0
-57.0,-207.0,-109.0,94.0,138.0,99.0,-204.0,-808.0,-501.0
-56.0,-209.0,-111.0,84.0,134.0,91.0,-199.0,-813.0,-494.0
-55.0,-212.0,-110.0,73.0,135.0,86.0,-192.0,-813.0,-494.0
-52.0,-217.0,-109.0,61.0,137.0,81.0,-188.0,-816.0,-492.0
-52.0,-213.0,-110.0,49.0,143.0,74.0,-183.0,-827.0,-491.0
-51.0,-215.0,-106.0,40.0,151.0,72.0,-171.0,-826.0,-490.0
-50.0,-216.0,-112.0,32.0,164.0,66.0,-177.0,-833.0,-492.0
-46.0,-217.0,-110.0,27.0,175.0,61.0,-170.0,-839.0,-493.0
-51.0,-217.0,-107.0,23.0,190.0,56.0,-166.0,-841.0,-499.0
-49.0,-220.0,-113.0,22.0,201.0,52.0,-167.0,-852.0,-506.0
-49.0,-221.0,-114.0,21.0,210.0,48.0,-165.0,-852.0,-507.0
-49.0,-222.0,-114.0,22.0,216.0,46.0,-164.0,-860.0,-510.0
-48.0,-222.0,-117.0,27.0,223.0,45.0,-161.0,-857.0,-522.0
-51.0,-223.0,-115.0,31.0,228.0,44.0,-168.0,-855.0,-520.0
-51.0,-224.0,-122.0,39.0,233.0,43.0,-168.0,-854.0,-524.0
-47.0,-223.0,-119.0,50.0,240.0,44.0,-172.0,-851.0,-525.0
-50.0,-220.0,-122.0,61.0,246.0,43.0,-175.0,-849.0,-529.0
-48.0,-217.0,-119.0,68.0,252.0,41.0,-178.0,-840.0,-535.0
-52.0,-214.0,-117.0,72.0,261.0,37.0,-180.0,-840.0,-532.0
-51.0,-218.0,-119.0,73.0,270.0,36.0,-179.0,-835.0,-529.0
-52.0,-216.0,-121.0,71.0,277.0,33.0,-181.0,-834.0,-524.0
-52.0,-214.0,-119.0,65.0,282.0,31.0,-184.0,-831.0,-524.0
-51.0,-215.0,-116.0,60.0,284.0,30.0,-189.0,-827.0,-518.0
-55.0,-215.0,-115.0,50.0,283.0,26.0,-190.0,-826.0,-510.0
-55.0,-213.0,-118.0,38.0,281.0,22.0,-196.0,-823.0,-517.0
-59.0,-213.0,-113.0,26.0,275.0,18.0,-199.0,-823.0,-513.0
-60.0,-212.0,-116.0,11.0,272.0,12.0,-205.0,-827.0,-512.0
-61.0,-214.0,-118.0,-4.0,268.0,6.0,-212.0,-826.0,-509.0
-61.0,-212.0,-116.0,-19.0,264.0,0.0,-211.0,-829.0,-515.0
-62.0,-217.0,-115.0,-32.0,263.0,-4.0,-218.0,-832.0,-508.0
-63.0,-216.0,-113.0,-46.0,259.0,-9.0,-216.0,-831.0,-509.0
-63.0,-214.0,-115.0,-54.0,255.0,-12.0,-215.0,-824.0,-511.0
-59.0,-211.0,-111.0,-59.0,251.0,-11.0,-217.0,-829.0,-512.0
-61.0,-214.0,-113.0,-63.0,249.0,-12.0,-218.0,-829.0,-511.0
-60.0,-212.0,-116.0,-66.0,249.0,-11.0,-217.0,-823.0,-515.0
-62.0,-209.0,-114.0,-67.0,250.0,-13.0,-213.0,-820.0,-513.0
-61.0,-212.0,-115.0,-69.0,255.0,-15.0,-211.0,-820.0,-513.0
-60.0,-213.0,-115.0,-74.0,261.0,-16.0,-212.0,-817.0,-514.0
-57.0,-211.0,-118.0,-78.0,269.0,-20.0,-213.0,-820.0,-516.0
-59.0,-216.0,-120.0,-82.0,279.0,-25.0,-210.0,-818.0,-516.0
-56.0,-213.0,-118.0,-87.0,291.0,-29.0,-204.0,-818.0,-523.0
-58.0,-213.0,-122.0,-93.0,305.0,-34.0,-201.0,-817.0,-534.0
-52.0,-214.0,-123.0,-101.0,317.0,-43.0,-192.0,-818.0,-553.0
-56.0,-213.0,-128.0,-113.0,324.0,-52.0,-190.0,-819.0,-559.0
-56.0,-211.0,-133.0,-129.0,327.0,-59.0,-199.0,-814.0,-566.0
-62.0,-210.0,-132.0,-148.0,319.0,-65.0,-219.0,-821.0,-576.0
-68.0,-213.0,-137.0,-169.0,306.0,-72.0,-240.0,-823.0,-591.0
-75.0,-213.0,-137.0,-189.0,283.0,-77.0,-261.0,-831.0,-600.0
-76.0,-217.0,-141.0,-214.0,258.0,-80.0,-284.0,-838.0,-609.0
-83.0,-217.0,-145.0,-239.0,233.0,-77.0,-313.0,-846.0,-621.0
-89.0,-221.0,-142.0,-270.0,210.0,-68.0,-328.0,-856.0,-622.0
-98.0,-227.0,-143.0,-300.0,189.0,-55.0,-349.0,-881.0,-621.0
-94.0,-230.0,-137.0,-328.0,172.0,-36.0,-352.0,-897.0,-612.0
-89.0,-235.0,-137.0,-352.0,159.0,-18.0,-341.0,-912.0,-610.0
-84.0,-245.0,-140.0,-374.0,151.0,-1.0,-316.0,-930.0,-619.0
-79.0,-248.0,-142.0,-391.0,153.0,13.0,-293.0,-948.0,-622.0
-74.0,-251.0,-143.0,-404.0,158.0,26.0,-267.0,-962.0,-620.0
-67.0,-256.0,-147.0,-409.0,166.0,38.0,-242.0,-981.0,-624.0
-63.0,-259.0,-145.0,-404.0,170.0,50.0,-228.0,-988.0,-623.0
-61.0,-260.0,-146.0,-392.0,169.0,61.0,-215.0,-1011.0,-630.0
-58.0,-262.0,-143.0,-368.0,172.0,72.0,-201.0,-1018.0,-636.0
-57.0,-265.0,-145.0,-340.0,174.0,81.0,-197.0,-1022.0,-637.0
-53.0,-265.0,-147.0,-310.0,182.0,88.0,-188.0,-1018.0,-642.0
-55.0,-257.0,-149.0,-280.0,196.0,93.0,-190.0,-1005.0,-641.0
-55.0,-252.0,-148.0,-255.0,213.0,97.0,-192.0,-980.0,-649.0
-56.0,-250.0,-146.0,-233.0,233.0,101.0,-193.0,-963.0,-642.0
-61.0,-247.0,-148.0,-219.0,249.0,108.0,-209.0,-940.0,-652.0
-62.0,-244.0,-148.0,-215.0,266.0,113.0,-219.0,-919.0,-654.0
-65.0,-235.0,-151.0,-225.0,277.0,119.0,-230.0,-912.0,-659.0
-68.0,-233.0,-153.0,-251.0,283.0,123.0,-244.0,-905.0,-665.0
-72.0,-233.0,-153.0,-289.0,281.0,123.0,-259.0,-898.0,-681.0
-75.0,-233.0,-160.0,-334.0,273.0,121.0,-269.0,-902.0,-685.0
-79.0,-234.0,-160.0,-383.0,253.0,116.0,-281.0,-909.0,-690.0
-81.0,-239.0,-163.0,-430.0,225.0,107.0,-293.0,-917.0,-700.0
-85.0,-240.0,-163.0,-477.0,191.0,95.0,-314.0,-922.0,-711.0
-86.0,-247.0,-172.0,-516.0,155.0,83.0,-318.0,-947.0,-727.0
-90.0,-251.0,-172.0,-549.0,118.0,72.0,-326.0,-967.0,-740.0
-89.0,-257.0,-172.0,-574.0,78.0,65.0,-330.0,-998.0,-754.0
-92.0,-262.0,-178.0,-588.0,38.0,56.0,-346.0,-1014.0,-776.0
-98.0,-263.0,-178.0,-594.0,-3.0,49.0,-348.0,-1032.0,-784.0
-101.0,-270.0,-186.0,-588.0,-43.0,47.0,-358.0,-1039.0,-788.0
-105.0,-271.0,-183.0,-567.0,-77.0,45.0,-368.0,-1048.0,-796.0
-105.0,-268.0,-186.0,-537.0,-104.0,43.0,-377.0,-1048.0,-803.0
-107.0,-269.0,-190.0,-501.0,-122.0,41.0,-386.0,-1045.0,-802.0
-105.0,-267.0,-189.0,-466.0,-130.0,36.0,-389.0,-1041.0,-817.0
-102.0,-264.0,-188.0,-435.0,-133.0,31.0,-383.0,-1028.0,-826.0
-102.0,-266.0,-195.0,-411.0,-130.0,23.0,-376.0,-1020.0,-831.0
-100.0,-260.0,-192.0,-396.0,-124.0,12.0,-361.0,-1014.0,-839.0
-93.0,-257.0,-193.0,-387.0,-117.0,-2.0,-345.0,-986.0,-844.0
-91.0,-251.0,-200.0,-381.0,-112.0,-18.0,-327.0,-968.0,-845.0
-80.0,-248.0,-199.0,-377.0,-103.0,-39.0,-295.0,-950.0,-848.0
-68.0,-244.0,-200.0,-372.0,-92.0,-62.0,-260.0,-932.0,-851.0
-60.0,-241.0,-199.0,-366.0,-73.0,-83.0,-225.0,-912.0,-850.0
-49.0,-236.0,-199.0,-361.0,-47.0,-105.0,-193.0,-893.0,-856.0
-40.0,-227.0,-198.0,-353.0,-17.0,-128.0,-154.0,-868.0,-853.0
-34.0,-218.0,-197.0,-344.0,19.0,-152.0,-114.0,-844.0,-846.0
-21.0,-214.0,-197.0,-335.0,56.0,-179.0,-89.0,-809.0,-846.0
-18.0,-202.0,-197.0,-323.0,100.0,-206.0,-68.0,-785.0,-836.0
-14.0,-196.0,-195.0,-311.0,137.0,-233.0,-35.0,-743.0,-832.0
-8.0,-187.0,-193.0,-303.0,184.0,-259.0,-16.0,-715.0,-836.0
-2.0,-181.0,-196.0,-298.0,227.0,-278.0,-3.0,-686.0,-841.0
0.0,-181.0,-195.0,-299.0,267.0,-301.0,17.0,-671.0,-835.0
1.0,-170.0,-194.0,-301.0,304.0,-320.0,23.0,-654.0,-836.0
0.0,-170.0,-197.0,-307.0,334.0,-337.0,27.0,-636.0,-836.0
1.0,-169.0,-195.0,-312.0,360.0,-350.0,26.0,-636.0,-836.0
0.0,-165.0,-190.0,-314.0,378.0,-360.0,24.0,-633.0,-828.0
0.0,-165.0,-190.0,-312.0,388.0,-366.0,18.0,-628.0,-813.0
0.0,-166.0,-185.0,-304.0,389.0,-372.0,8.0,-623.0,-805.0
-5.0,-165.0,-181.0,-289.0,380.0,-376.0,-2.0,-631.0,-801.0
-4.0,-168.0,-179.0,-273.0,363.0,-378.0,-8.0,-627.0,-783.0
-11.0,-164.0,-180.0,-259.0,344.0,-378.0,-19.0,-632.0,-781.0
-4.0,-168.0,-177.0,-247.0,323.0,-380.0,-19.0,-637.0,-783.0
-11.0,-168.0,-180.0,-236.0,301.0,-381.0,-16.0,-638.0,-782.0
-8.0,-169.0,-180.0,-226.0,282.0,-383.0,-18.0,-643.0,-777.0
-7.0,-173.0,-181.0,-216.0,266.0,-385.0,-11.0,-649.0,-776.0
-6.0,-173.0,-178.0,-203.0,253.0,-384.0,-6.0,-656.0,-770.0
-3.0,-173.0,-175.0,-191.0,244.0,-384.0,-2.0,-656.0,-769.0
-1.0,-174.0,-180.0,-181.0,236.0,-385.0,11.0,-658.0,-770.0
0.0,-178.0,-174.0,-172.0,232.0,-384.0,21.0,-671.0,-767.0
1.0,-182.0,-178.0,-161.0,229.0,-383.0,34.0,-677.0,-765.0
4.0,-183.0,-177.0,-150.0,228.0,-380.0,33.0,-684.0,-765.0
4.0,-184.0,-178.0,-138.0,232.0,-378.0,38.0,-692.0,-766.0
7.0,-190.0,-172.0,-125.0,235.0,-373.0,41.0,-707.0,-768.0
8.0,-192.0,-175.0,-109.0,242.0,-371.0,38.0,-718.0,-766.0
5.0,-192.0,-176.0,-89.0,247.0,-368.0,45.0,-727.0,-766.0
0.0,-190.0,-175.0,-61.0,251.0,-365.0,37.0,-731.0,-764.0
5.0,-194.0,-173.0,-29.0,256.0,-363.0,30.0,-735.0,-760.0
3.0,-197.0,-174.0,8.0,259.0,-361.0,35.0,-732.0,-755.0
1.0,-197.0,-169.0,50.0,260.0,-359.0,27.0,-732.0,-746.0
0.0,-193.0,-170.0,93.0,261.0,-357.0,20.0,-735.0,-740.0
-5.0,-192.0,-167.0,134.0,261.0,-356.0,13.0,-735.0,-731.0
-4.0,-194.0,-164.0,180.0,256.0,-355.0,-4.0,-728.0,-715.0
-6.0,-193.0,-154.0,222.0,246.0,-352.0,-4.0,-724.0,-715.0
-10.0,-189.0,-158.0,258.0,234.0,-347.0,-15.0,-721.0,-706.0
-11.0,-188.0,-154.0,284.0,219.0,-342.0,-15.0,-715.0,-694.0
-13.0,-187.0,-156.0,311.0,206.0,-336.0,-21.0,-716.0,-691.0
-14.0,-185.0,-154.0,331.0,187.0,-331.0,-31.0,-710.0,-689.0
-16.0,-186.0,-152.0,347.0,166.0,-327.0,-32.0,-705.0,-679.0
-13.0,-183.0,-156.0,365.0,144.0,-322.0,-32.0,-696.0,-680.0
-13.0,-183.0,-155.0,376.0,120.0,-317.0,-34.0,-694.0,-676.0
-14.0,-184.0,-148.0,385.0,100.0,-309.0,-32.0,-691.0,-670.0
-12.0,-182.0,-154.0,391.0,82.0,-302.0,-26.0,-685.0,-682.0
-13.0,-180.0,-153.0,395.0,67.0,-294.0,-19.0,-685.0,-675.0
-14.0,-179.0,-154.0,399.0,57.0,-286.0,-14.0,-680.0,-679.0
-8.0,-174.0,-158.0,403.0,50.0,-275.0,-14.0,-673.0,-680.0
-5.0,-177.0,-155.0,407.0,48.0,-267.0,-3.0,-672.0,-682.0
-3.0,-180.0,-155.0,411.0,50.0,-258.0,4.0,-672.0,-680.0
-5.0,-175.0,-155.0,413.0,56.0,-250.0,6.0,-672.0,-680.0
-1.0,-180.0,-152.0,415.0,65.0,-242.0,9.0,-673.0,-683.0
0.0,-178.0,-157.0,414.0,79.0,-233.0,14.0,-672.0,-682.0
-1.0,-176.0,-155.0,411.0,92.0,-228.0,18.0,-672.0,-683.0
1.0,-178.0,-156.0,406.0,110.0,-224.0,23.0,-675.0,-679.0
4.0,-179.0,-153.0,401.0,130.0,-222.0,29.0,-670.0,-685.0
1.0,-176.0,-153.0,395.0,152.0,-223.0,33.0,-668.0,-672.0
2.0,-174.0,-156.0,391.0,174.0,-221.0,39.0,-664.0,-672.0
7.0,-176.0,-152.0,387.0,199.0,-220.0,38.0,-666.0,-665.0
4.0,-173.0,-150.0,384.0,223.0,-223.0,48.0,-665.0,-659.0
6.0,-177.0,-151.0,382.0,247.0,-223.0,50.0,-669.0,-656.0
7.0,-177.0,-148.0,381.0,268.0,-226.0,50.0,-668.0,-640.0
9.0,-178.0,-143.0,380.0,283.0,-229.0,53.0,-669.0,-632.0
6.0,-178.0,-146.0,377.0,293.0,-235.0,50.0,-674.0,-626.0
7.0,-180.0,-141.0,373.0,298.0,-241.0,43.0,-680.0,-624.0
1.0,-183.0,-140.0,369.0,302.0,-247.0,42.0,-689.0,-610.0
2.0,-178.0,-140.0,364.0,301.0,-250.0,35.0,-694.0,-607.0
1.0,-184.0,-138.0,356.0,297.0,-254.0,28.0,-704.0,-601.0
-1.0,-183.0,-137.0,348.0,290.0,-256.0,27.0,-704.0,-597.0
6.0,-194.0,-141.0,345.0,282.0,-256.0,25.0,-710.0,-600.0
-3.0,-186.0,-137.0,342.0,272.0,-254.0,17.0,-708.0,-601.0
0.0,-188.0,-137.0,343.0,262.0,-253.0,13.0,-720.0,-601.0
-1.0,-188.0,-142.0,341.0,254.0,-257.0,10.0,-717.0,-606.0
-5.0,-186.0,-136.0,340.0,246.0,-258.0,9.0,-717.0,-608.0
-4.0,-188.0,-137.0,334.0,241.0,-263.0,4.0,-716.0,-608.0
-4.0,-186.0,-137.0,323.0,237.0,-271.0,1.0,-717.0,-605.0
-1.0,-187.0,-136.0,316.0,238.0,-278.0,6.0,-719.0,-593.0
0.0,-186.0,-135.0,302.0,239.0,-286.0,14.0,-718.0,-588.0
0.0,-186.0,-134.0,292.0,238.0,-297.0,15.0,-714.0,-583.0
0.0,-185.0,-133.0,277.0,237.0,-305.0,25.0,-710.0,-581.0
1.0,-186.0,-131.0,259.0,241.0,-310.0,25.0,-712.0,-583.0
0.0,-185.0,-129.0,232.0,246.0,-316.0,35.0,-713.0,-578.0
4.0,-184.0,-135.0,202.0,254.0,-321.0,38.0,-710.0,-580.0
5.0,-184.0,-132.0,170.0,268.0,-325.0,46.0,-706.0,-578.0
9.0,-184.0,-133.0,137.0,284.0,-324.0,48.0,-703.0,-576.0
10.0,-180.0,-132.0,104.0,299.0,-322.0,55.0,-697.0,-575.0
10.0,-181.0,-129.0,70.0,312.0,-316.0,62.0,-690.0,-570.0
13.0,-179.0,-128.0,40.0,326.0,-307.0,68.0,-684.0,-569.0
16.0,-178.0,-130.0,8.0,340.0,-296.0,80.0,-686.0,-569.0
18.0,-178.0,-129.0,-22.0,353.0,-280.0,92.0,-678.0,-562.0
18.0,-177.0,-125.0,-47.0,364.0,-263.0,93.0,-676.0,-559.0
14.0,-180.0,-126.0,-71.0,373.0,-243.0,104.0,-674.0,-561.0
19.0,-178.0,-129.0,-91.0,381.0,-223.0,102.0,-674.0,-560.0
19.0,-177.0,-123.0,-107.0,384.0,-201.0,108.0,-674.0,-554.0
24.0,-180.0,-126.0,-117.0,383.0,-178.0,114.0,-679.0,-549.0
24.0,-181.0,-123.0,-120.0,379.0,-156.0,122.0,-686.0,-550.0
22.0,-184.0,-125.0,-117.0,370.0,-138.0,124.0,-690.0,-548.0
25.0,-186.0,-119.0,-111.0,358.0,-120.0,134.0,-701.0,-544.0
26.0,-189.0,-123.0,-101.0,343.0,-106.0,133.0,-715.0,-540.0
26.0,-190.0,-120.0,-89.0,328.0,-91.0,133.0,-725.0,-540.0
27.0,-194.0,-120.0,-74.0,314.0,-81.0,143.0,-731.0,-527.0
28.0,-198.0,-119.0,-61.0,295.0,-71.0,139.0,-741.0,-519.0
27.0,-200.0,-116.0,-48.0,278.0,-64.0,145.0,-753.0,-513.0
30.0,-202.0,-116.0,-36.0,262.0,-59.0,141.0,-762.0,-522.0
26.0,-202.0,-121.0,-27.0,245.0,-55.0,140.0,-780.0,-527.0
29.0,-205.0,-124.0,-24.0,227.0,-53.0,138.0,-768.0,-523.0
30.0,-204.0,-117.0,-23.0,209.0,-51.0,137.0,-785.0,-527.0
27.0,-203.0,-123.0,-26.0,193.0,-48.0,133.0,-785.0,-532.0
23.0,-205.0,-118.0,-27.0,177.0,-42.0,127.0,-795.0,-535.0
25.0,-208.0,-123.0,-30.0,165.0,-34.0,123.0,-795.0,-539.0
22.0,-209.0,-121.0,-34.0,153.0,-23.0,117.0,-805.0,-542.0
23.0,-213.0,-121.0,-37.0,147.0,-13.0,112.0,-806.0,-535.0
18.0,-211.0,-122.0,-36.0,142.0,1.0,104.0,-813.0,-545.0
20.0,-215.0,-121.0,-32.0,133.0,12.0,105.0,-823.0,-551.0
18.0,-215.0,-125.0,-24.0,126.0,25.0,103.0,-830.0,-552.0
19.0,-217.0,-122.0,-6.0,117.0,41.0,110.0,-825.0,-557.0
22.0,-217.0,-128.0,15.0,115.0,56.0,107.0,-822.0,-559.0
22.0,-213.0,-129.0,39.0,109.0,70.0,120.0,-807.0,-565.0
26.0,-211.0,-132.0,57.0,106.0,90.0,122.0,-805.0,-574.0
28.0,-209.0,-128.0,69.0,104.0,107.0,133.0,-795.0,-578.0
26.0,-203.0,-132.0,73.0,100.0,123.0,132.0,-793.0,-574.0
28.0,-206.0,-128.0,72.0,94.0,138.0,142.0,-791.0,-568.0
30.0,-206.0,-125.0,66.0,85.0,151.0,145.0,-794.0,-566.0
28.0,-205.0,-124.0,56.0,74.0,158.0,144.0,-793.0,-558.0
30.0,-209.0,-130.0,44.0,60.0,162.0,143.0,-799.0,-561.0
28.0,-210.0,-126.0,33.0,50.0,163.0,138.0,-803.0,-563.0
28.0,-209.0,-130.0,19.0,38.0,167.0,135.0,-809.0,-573.0
29.0,-212.0,-131.0,4.0,29.0,165.0,138.0,-811.0,-588.0
30.0,-216.0,-135.0,-15.0,22.0,160.0,139.0,-828.0,-611.0
29.0,-218.0,-143.0,-35.0,21.0,148.0,141.0,-838.0,-616.0
34.0,-227.0,-147.0,-60.0,28.0,131.0,142.0,-858.0,-633.0
35.0,-233.0,-147.0,-85.0,41.0,106.0,155.0,-886.0,-649.0
38.0,-240.0,-149.0,-107.0,60.0,77.0,168.0,-895.0,-659.0
42.0,-238.0,-153.0,-126.0,79.0,46.0,181.0,-911.0,-678.0
40.0,-247.0,-154.0,-144.0,101.0,16.0,202.0,-917.0,-676.0
47.0,-242.0,-154.0,-163.0,120.0,-12.0,206.0,-923.0,-683.0
43.0,-248.0,-155.0,-182.0,134.0,-41.0,195.0,-937.0,-689.0
38.0,-247.0,-157.0,-202.0,142.0,-66.0,175.0,-941.0,-695.0
36.0,-247.0,-164.0,-228.0,141.0,-83.0,167.0,-942.0,-709.0
30.0,-248.0,-170.0,-264.0,143.0,-97.0,149.0,-946.0,-737.0
28.0,-249.0,-175.0,-308.0,150.0,-100.0,137.0,-953.0,-759.0
22.0,-248.0,-182.0,-354.0,164.0,-100.0,120.0,-960.0,-787.0
19.0,-251.0,-187.0,-397.0,179.0,-93.0,112.0,-955.0,-811.0
17.0,-252.0,-192.0,-434.0,192.0,-78.0,94.0,-960.0,-829.0
14.0,-251.0,-200.0,-458.0,196.0,-61.0,90.0,-963.0,-852.0
12.0,-252.0,-202.0,-467.0,188.0,-41.0,88.0,-963.0,-874.0
16.0,-250.0,-211.0,-461.0,170.0,-23.0,98.0,-959.0,-907.0
19.0,-250.0,-216.0,-445.0,143.0,-6.0,121.0,-947.0,-924.0
27.0,-254.0,-216.0,-421.0,109.0,5.0,143.0,-946.0,-937.0
32.0,-252.0,-214.0,-397.0,73.0,9.0,151.0,-961.0,-933.0
36.0,-257.0,-215.0,-380.0,36.0,4.0,173.0,-976.0,-932.0
38.0,-262.0,-212.0,-365.0,11.0,-9.0,187.0,-1004.0,-920.0
41.0,-265.0,-213.0,-357.0,-1.0,-29.0,191.0,-1016.0,-915.0
42.0,-266.0,-208.0,-360.0,-8.0,-42.0,195.0,-1025.0,-906.0
43.0,-268.0,-206.0,-375.0,-10.0,-61.0,200.0,-1030.0,-905.0
47.0,-268.0,-210.0,-394.0,-9.0,-72.0,210.0,-1019.0,-900.0
49.0,-273.0,-208.0,-417.0,-4.0,-72.0,207.0,-1014.0,-909.0
41.0,-262.0,-212.0,-442.0,2.0,-60.0,200.0,-1011.0,-920.0
44.0,-258.0,-215.0,-470.0,14.0,-43.0,197.0,-988.0,-925.0
41.0,-253.0,-215.0,-497.0,29.0,-18.0,192.0,-966.0,-936.0
43.0,-247.0,-214.0,-519.0,50.0,10.0,188.0,-942.0,-936.0
39.0,-242.0,-215.0,-539.0,75.0,40.0,188.0,-915.0,-940.0
39.0,-236.0,-218.0,-550.0,97.0,68.0,181.0,-897.0,-939.0
39.0,-231.0,-212.0,-558.0,113.0,90.0,176.0,-878.0,-935.0
37.0,-224.0,-216.0,-564.0,119.0,106.0,168.0,-856.0,-934.0
33.0,-219.0,-215.0,-567.0,118.0,117.0,149.0,-834.0,-925.0
25.0,-215.0,-213.0,-570.0,105.0,124.0,136.0,-819.0,-917.0
17.0,-210.0,-211.0,-573.0,82.0,126.0,110.0,-798.0,-910.0
9.0,-204.0,-206.0,-572.0,51.0,123.0,81.0,-787.0,-896.0
7.0,-202.0,-205.0,-566.0,17.0,121.0,38.0,-764.0,-879.0
-4.0,-194.0,-203.0,-553.0,-21.0,120.0,14.0,-745.0,-869.0
-10.0,-192.0,-196.0,-536.0,-57.0,118.0,-19.0,-722.0,-856.0
-17.0,-186.0,-197.0,-514.0,-90.0,119.0,-49.0,-698.0,-847.0
-24.0,-185.0,-192.0,-486.0,-123.0,125.0,-78.0,-682.0,-838.0
-29.0,-175.0,-191.0,-458.0,-154.0,131.0,-94.0,-664.0,-826.0
-36.0,-173.0,-195.0,-430.0,-179.0,140.0,-111.0,-645.0,-820.0
-36.0,-169.0,-189.0,-404.0,-198.0,148.0,-115.0,-636.0,-814.0
-37.0,-163.0,-190.0,-382.0,-211.0,157.0,-120.0,-625.0,-813.0
-34.0,-162.0,-188.0,-365.0,-221.0,162.0,-122.0,-610.0,-808.0
-36.0,-158.0,-187.0,-351.0,-231.0,169.0,-116.0,-601.0,-809.0
-33.0,-160.0,-188.0,-345.0,-239.0,174.0,-107.0,-599.0,-807.0
-30.0,-161.0,-188.0,-343.0,-245.0,178.0,-97.0,-606.0,-803.0
-27.0,-160.0,-186.0,-341.0,-248.0,183.0,-82.0,-611.0,-805.0
-26.0,-165.0,-187.0,-339.0,-247.0,188.0,-72.0,-618.0,-812.0
-17.0,-168.0,-186.0,-335.0,-249.0,192.0,-50.0,-633.0,-810.0
-17.0,-167.0,-191.0,-331.0,-247.0,195.0,-44.0,-639.0,-811.0
-11.0,-172.0,-189.0,-325.0,-246.0,197.0,-34.0,-643.0,-811.0
-10.0,-171.0,-190.0,-318.0,-244.0,196.0,-25.0,-651.0,-814.0
-12.0,-175.0,-191.0,-313.0,-244.0,194.0,-29.0,-654.0,-814.0
-11.0,-173.0,-188.0,-305.0,-245.0,190.0,-23.0,-658.0,-817.0
-7.0,-176.0,-191.0,-297.0,-247.0,185.0,-18.0,-657.0,-822.0
-13.0,-176.0,-191.0,-285.0,-246.0,180.0,-23.0,-665.0,-820.0
-14.0,-177.0,-187.0,-272.0,-249.0,172.0,-32.0,-663.0,-814.0
-17.0,-179.0,-187.0,-258.0,-255.0,166.0,-40.0,-669.0,-809.0
-19.0,-178.0,-186.0,-242.0,-265.0,157.0,-48.0,-678.0,-803.0
-23.0,-179.0,-182.0,-226.0,-278.0,150.0,-62.0,-685.0,-800.0
-20.0,-182.0,-185.0,-205.0,-293.0,144.0,-68.0,-679.0,-787.0
-26.0,-183.0,-181.0,-181.0,-307.0,139.0,-78.0,-689.0,-784.0
-26.0,-184.0,-180.0,-154.0,-324.0,139.0,-78.0,-691.0,-779.0
-29.0,-184.0,-181.0,-122.0,-338.0,138.0,-86.0,-697.0,-771.0
-29.0,-185.0,-179.0,-89.0,-351.0,139.0,-93.0,-694.0,-769.0
-31.0,-184.0,-176.0,-54.0,-361.0,140.0,-91.0,-690.0,-766.0
-27.0,-182.0,-174.0,-20.0,-366.0,143.0,-94.0,-687.0,-755.0
-26.0,-181.0,-171.0,12.0,-367.0,147.0,-94.0,-678.0,-751.0
-28.0,-180.0,-166.0,40.0,-362.0,151.0,-86.0,-678.0,-744.0
-27.0,-180.0,-169.0,62.0,-353.0,155.0,-84.0,-674.0,-740.0
-27.0,-175.0,-167.0,80.0,-338.0,164.0,-81.0,-674.0,-732.0
-26.0,-175.0,-168.0,91.0,-317.0,169.0,-81.0,-671.0,-719.0
-19.0,-179.0,-165.0,99.0,-292.0,176.0,-76.0,-675.0,-716.0
-20.0,-177.0,-161.0,104.0,-264.0,182.0,-64.0,-674.0,-719.0
-20.0,-180.0,-161.0,108.0,-234.0,189.0,-67.0,-675.0,-713.0
-17.0,-184.0,-160.0,114.0,-206.0,191.0,-57.0,-674.0,-713.0
-16.0,-179.0,-165.0,120.0,-178.0,195.0,-54.0,-676.0,-716.0
-17.0,-178.0,-166.0,125.0,-155.0,192.0,-46.0,-675.0,-720.0
-15.0,-181.0,-167.0,130.0,-137.0,188.0,-38.0,-680.0,-725.0
-14.0,-178.0,-165.0,137.0,-122.0,178.0,-40.0,-680.0,-729.0
-15.0,-179.0,-168.0,145.0,-112.0,167.0,-40.0,-677.0,-736.0
-15.0,-179.0,-170.0,157.0,-109.0,155.0,-38.0,-677.0,-734.0
-13.0,-181.0,-166.0,166.0,-108.0,141.0,-37.0,-677.0,-732.0
-19.0,-179.0,-168.0,177.0,-114.0,125.0,-46.0,-672.0,-733.0
-20.0,-178.0,-164.0,188.0,-124.0,110.0,-50.0,-666.0,-731.0
-23.0,-174.0,-165.0,197.0,-143.0,93.0,-67.0,-656.0,-733.0
-26.0,-171.0,-168.0,203.0,-166.0,80.0,-78.0,-648.0,-732.0
-28.0,-168.0,-166.0,209.0,-196.0,67.0,-79.0,-644.0,-727.0
-30.0,-167.0,-165.0,214.0,-228.0,57.0,-90.0,-637.0,-716.0
-31.0,-165.0,-165.0,219.0,-261.0,47.0,-100.0,-630.0,-717.0
-33.0,-164.0,-164.0,222.0,-292.0,40.0,-107.0,-629.0,-714.0
-34.0,-168.0,-162.0,224.0,-320.0,36.0,-106.0,-630.0,-709.0
-35.0,-167.0,-161.0,229.0,-346.0,33.0,-112.0,-637.0,-706.0
-35.0,-169.0,-161.0,237.0,-365.0,34.0,-113.0,-642.0,-696.0
-36.0,-167.0,-158.0,249.0,-383.0,34.0,-118.0,-635.0,-695.0
-37.0,-164.0,-162.0,261.0,-399.0,38.0,-114.0,-642.0,-692.0
-32.0,-170.0,-159.0,276.0,-409.0,42.0,-116.0,-643.0,-685.0
-33.0,-168.0,-155.0,291.0,-415.0,47.0,-110.0,-643.0,-678.0
-31.0,-170.0,-152.0,306.0,-419.0,56.0,-104.0,-644.0,-677.0
-29.0,-167.0,-152.0,320.0,-419.0,63.0,-101.0,-642.0,-657.0
-28.0,-168.0,-148.0,332.0,-421.0,70.0,-98.0,-638.0,-657.0
-28.0,-167.0,-145.0,341.0,-422.0,78.0,-94.0,-636.0,-648.0
-26.0,-166.0,-147.0,344.0,-421.0,84.0,-95.0,-632.0,-640.0
-32.0,-163.0,-143.0,346.0,-424.0,92.0,-90.0,-622.0,-631.0
-32.0,-162.0,-144.0,346.0,-425.0,99.0,-97.0,-623.0,-625.0
-29.0,-162.0,-141.0,342.0,-427.0,102.0,-97.0,-617.0,-621.0
-29.0,-154.0,-142.0,336.0,-430.0,104.0,-95.0,-605.0,-612.0
-26.0,-157.0,-136.0,327.0,-432.0,106.0,-98.0,-599.0,-615.0
-31.0,-157.0,-137.0,313.0,-432.0,109.0,-99.0,-597.0,-609.0
-31.0,-155.0,-140.0,299.0,-434.0,109.0,-105.0,-593.0,-604.0
-30.0,-155.0,-138.0,283.0,-435.0,105.0,-108.0,-591.0,-601.0
-33.0,-157.0,-139.0,267.0,-439.0,103.0,-110.0,-583.0,-599.0
-35.0,-152.0,-137.0,252.0,-442.0,100.0,-116.0,-579.0,-605.0
-36.0,-152.0,-138.0,238.0,-446.0,95.0,-124.0,-574.0,-603.0
-37.0,-152.0,-134.0,225.0,-451.0,91.0,-137.0,-576.0,-596.0
-38.0,-151.0,-134.0,213.0,-458.0,89.0,-141.0,-579.0,-598.0
-41.0,-153.0,-135.0,202.0,-463.0,89.0,-144.0,-582.0,-596.0
-42.0,-157.0,-135.0,191.0,-467.0,91.0,-152.0,-587.0,-597.0
-44.0,-157.0,-139.0,181.0,-471.0,94.0,-156.0,-588.0,-608.0
-46.0,-155.0,-139.0,169.0,-470.0,96.0,-158.0,-594.0,-607.0
-44.0,-159.0,-140.0,156.0,-466.0,100.0,-158.0,-602.0,-610.0
-43.0,-162.0,-142.0,140.0,-461.0,106.0,-161.0,-608.0,-614.0
-45.0,-160.0,-145.0,126.0,-454.0,112.0,-162.0,-634.0,-614.0
-45.0,-165.0,-140.0,110.0,-442.0,117.0,-156.0,-640.0,-620.0
-44.0,-172.0,-142.0,93.0,-431.0,123.0,-157.0,-656.0,-625.0
-42.0,-173.0,-146.0,76.0,-418.0,127.0,-155.0,-662.0,-629.0
-45.0,-177.0,-148.0,58.0,-405.0,132.0,-157.0,-675.0,-630.0
-43.0,-181.0,-146.0,40.0,-389.0,136.0,-156.0,-681.0,-634.0
-46.0,-183.0,-147.0,23.0,-373.0,136.0,-154.0,-691.0,-640.0
-44.0,-184.0,-146.0,11.0,-357.0,134.0,-154.0,-701.0,-638.0
-46.0,-189.0,-146.0,3.0,-342.0,132.0,-158.0,-710.0,-642.0
-46.0,-187.0,-148.0,-2.0,-325.0,127.0,-162.0,-720.0,-648.0
-45.0,-190.0,-146.0,-3.0,-314.0,120.0,-155.0,-723.0,-648.0
-47.0,-191.0,-146.0,-2.0,-297.0,109.0,-160.0,-730.0,-651.0
-45.0,-193.0,-149.0,0.0,-285.0,98.0,-167.0,-734.0,-647.0
-47.0,-192.0,-146.0,4.0,-269.0,82.0,-162.0,-731.0,-648.0
-48.0,-191.0,-145.0,8.0,-257.0,67.0,-171.0,-735.0,-646.0
-47.0,-192.0,-147.0,13.0,-246.0,51.0,-174.0,-732.0,-640.0
-52.0,-189.0,-144.0,16.0,-233.0,35.0,-177.0,-732.0,-633.0
-52.0,-188.0,-143.0,21.0,-223.0,23.0,-177.0,-733.0,-627.0
-49.0,-189.0,-143.0,25.0,-213.0,9.0,-183.0,-723.0,-620.0
-52.0,-187.0,-143.0,27.0,-204.0,-3.0,-181.0,-727.0,-610.0
-50.0,-186.0,-140.0,26.0,-194.0,-12.0,-184.0,-717.0,-610.0
-51.0,-186.0,-139.0,25.0,-185.0,-20.0,-184.0,-716.0,-607.0
-50.0,-184.0,-137.0,23.0,-177.0,-30.0,-192.0,-709.0,-601.0
-54.0,-184.0,-138.0,19.0,-166.0,-39.0,-189.0,-710.0,-602.0
-54.0,-184.0,-137.0,12.0,-158.0,-46.0,-196.0,-707.0,-596.0
-58.0,-184.0,-136.0,4.0,-148.0,-53.0,-198.0,-710.0,-591.0
-57.0,-186.0,-133.0,-8.0,-141.0,-61.0,-204.0,-709.0,-590.0
-56.0,-185.0,-136.0,-19.0,-134.0,-70.0,-207.0,-715.0,-582.0
-58.0,-188.0,-132.0,-31.0,-126.0,-79.0,-214.0,-722.0,-578.0
-58.0,-189.0,-131.0,-44.0,-121.0,-87.0,-213.0,-727.0,-577.0
-60.0,-192.0,-134.0,-53.0,-119.0,-97.0,-217.0,-738.0,-571.0
-60.0,-194.0,-134.0,-60.0,-116.0,-106.0,-214.0,-744.0,-577.0
-60.0,-193.0,-133.0,-66.0,-116.0,-118.0,-213.0,-745.0,-572.0
-62.0,-197.0,-131.0,-71.0,-118.0,-130.0,-218.0,-753.0,-573.0
-57.0,-200.0,-132.0,-75.0,-118.0,-140.0,-215.0,-763.0,-575.0
-61.0,-201.0,-131.0,-78.0,-117.0,-150.0,-215.0,-777.0,-576.0
-60.0,-200.0,-128.0,-81.0,-116.0,-159.0,-213.0,-784.0,-577.0
-60.0,-201.0,-130.0,-83.0,-114.0,-166.0,-215.0,-786.0,-578.0
-61.0,-203.0,-132.0,-85.0,-113.0,-174.0,-210.0,-788.0,-579.0
-59.0,-205.0,-139.0,-84.0,-109.0,-184.0,-212.0,-794.0,-584.0
-59.0,-205.0,-135.0,-84.0,-103.0,-194.0,-210.0,-795.0,-582.0
-61.0,-209.0,-137.0,-85.0,-98.0,-201.0,-213.0,-796.0,-591.0
-62.0,-209.0,-136.0,-87.0,-90.0,-209.0,-215.0,-797.0,-589.0
-61.0,-206.0,-134.0,-90.0,-83.0,-220.0,-218.0,-798.0,-594.0
-62.0,-210.0,-137.0,-94.0,-74.0,-227.0,-221.0,-799.0,-601.0
-63.0,-209.0,-139.0,-99.0,-66.0,-232.0,-225.0,-803.0,-603.0
-64.0,-209.0,-137.0,-103.0,-56.0,-239.0,-228.0,-803.0,-606.0
-60.0,-211.0,-141.0,-108.0,-44.0,-246.0,-229.0,-807.0,-604.0
-60.0,-208.0,-140.0,-112.0,-33.0,-252.0,-229.0,-809.0,-609.0
-63.0,-210.0,-140.0,-116.0,-22.0,-259.0,-230.0,-808.0,-613.0
-63.0,-209.0,-142.0,-122.0,-7.0,-262.0,-233.0,-810.0,-615.0
-66.0,-212.0,-140.0,-127.0,9.0,-266.0,-234.0,-818.0,-613.0
-67.0,-209.0,-139.0,-131.0,24.0,-269.0,-236.0,-818.0,-614.0
-69.0,-212.0,-141.0,-135.0,36.0,-272.0,-245.0,-822.0,-613.0
-67.0,-216.0,-141.0,-135.0,46.0,-273.0,-242.0,-826.0,-615.0
-68.0,-219.0,-142.0,-133.0,53.0,-268.0,-244.0,-833.0,-612.0
-69.0,-217.0,-142.0,-129.0,60.0,-263.0,-244.0,-842.0,-625.0
-64.0,-220.0,-144.0,-123.0,64.0,-256.0,-243.0,-850.0,-628.0
-64.0,-221.0,-146.0,-114.0,65.0,-250.0,-233.0,-843.0,-643.0
-63.0,-218.0,-151.0,-105.0,66.0,-245.0,-224.0,-842.0,-669.0
-65.0,-218.0,-152.0,-97.0,65.0,-240.0,-230.0,-836.0,-683.0
-68.0,-216.0,-159.0,-88.0,60.0,-235.0,-248.0,-833.0,-686.0
-73.0,-218.0,-159.0,-82.0,47.0,-228.0,-271.0,-828.0,-694.0
-86.0,-215.0,-164.0,-76.0,21.0,-218.0,-312.0,-827.0,-708.0
-94.0,-214.0,-167.0,-78.0,-10.0,-204.0,-344.0,-817.0,-714.0
-105.0,-211.0,-167.0,-89.0,-48.0,-186.0,-372.0,-817.0,-728.0
-108.0,-213.0,-172.0,-107.0,-77.0,-163.0,-396.0,-820.0,-748.0
-112.0,-212.0,-174.0,-135.0,-95.0,-139.0,-416.0,-829.0,-750.0
-111.0,-214.0,-175.0,-168.0,-103.0,-116.0,-419.0,-832.0,-762.0
-108.0,-218.0,-177.0,-199.0,-106.0,-94.0,-399.0,-845.0,-765.0
-102.0,-221.0,-176.0,-222.0,-108.0,-74.0,-381.0,-864.0,-769.0
-94.0,-229.0,-178.0,-240.0,-114.0,-56.0,-345.0,-872.0,-764.0
-78.0,-233.0,-171.0,-250.0,-127.0,-45.0,-323.0,-890.0,-771.0
-81.0,-238.0,-178.0,-253.0,-147.0,-37.0,-299.0,-908.0,-780.0
-77.0,-245.0,-179.0,-258.0,-173.0,-31.0,-277.0,-925.0,-786.0
-78.0,-248.0,-183.0,-266.0,-204.0,-27.0,-272.0,-956.0,-796.0
-73.0,-256.0,-188.0,-277.0,-234.0,-26.0,-268.0,-976.0,-803.0
-71.0,-263.0,-189.0,-288.0,-261.0,-27.0,-260.0,-1006.0,-814.0
-71.0,-263.0,-190.0,-296.0,-279.0,-33.0,-261.0,-1023.0,-824.0
-75.0,-261.0,-197.0,-301.0,-284.0,-40.0,-268.0,-1023.0,-831.0
-77.0,-265.0,-192.0,-304.0,-277.0,-44.0,-294.0,-1022.0,-837.0
-82.0,-263.0,-191.0,-297.0,-258.0,-48.0,-317.0,-1017.0,-847.0
-87.0,-260.0,-197.0,-284.0,-237.0,-52.0,-330.0,-1014.0,-847.0
-92.0,-260.0,-193.0,-267.0,-214.0,-57.0,-342.0,-1010.0,-852.0
-96.0,-260.0,-199.0,-244.0,-188.0,-66.0,-353.0,-1013.0,-856.0
-96.0,-260.0,-200.0,-222.0,-162.0,-80.0,-364.0,-1008.0,-865.0
-98.0,-259.0,-205.0,-207.0,-134.0,-98.0,-365.0,-1010.0,-875.0
-99.0,-261.0,-208.0,-196.0,-107.0,-116.0,-370.0,-1009.0,-888.0
-98.0,-261.0,-207.0,-194.0,-86.0,-135.0,-365.0,-1008.0,-894.0
-93.0,-262.0,-210.0,-196.0,-61.0,-155.0,-356.0,-1005.0,-902.0
-94.0,-261.0,-209.0,-201.0,-42.0,-172.0,-345.0,-1008.0,-905.0
-90.0,-257.0,-212.0,-205.0,-26.0,-196.0,-336.0,-993.0,-914.0
-87.0,-253.0,-211.0,-206.0,-17.0,-223.0,-321.0,-974.0,-916.0
-82.0,-248.0,-216.0,-202.0,-11.0,-257.0,-308.0,-954.0,-927.0
-79.0,-245.0,-210.0,-194.0,-7.0,-296.0,-292.0,-919.0,-930.0
-75.0,-235.0,-216.0,-184.0,-5.0,-339.0,-274.0,-900.0,-937.0
-71.0,-231.0,-217.0,-174.0,-4.0,-384.0,-261.0,-874.0,-944.0
-67.0,-221.0,-220.0,-166.0,2.0,-429.0,-248.0,-853.0,-942.0
-62.0,-217.0,-217.0,-159.0,13.0,-470.0,-225.0,-835.0,-939.0
-56.0,-213.0,-213.0,-153.0,29.0,-505.0,-194.0,-813.0,-930.0
-49.0,-210.0,-210.0,-145.0,50.0,-537.0,-176.0,-803.0,-914.0
-42.0,-207.0,-207.0,-135.0,76.0,-559.0,-142.0,-791.0,-902.0
-33.0,-206.0,-204.0,-119.0,105.0,-577.0,-111.0,-779.0,-885.0
-26.0,-204.0,-202.0,-100.0,136.0,-590.0,-92.0,-764.0,-865.0
-14.0,-197.0,-201.0,-75.0,172.0,-596.0,-69.0,-741.0,-855.0
-13.0,-190.0,-193.0,-46.0,209.0,-606.0,-41.0,-726.0,-840.0
-5.0,-186.0,-195.0,-15.0,247.0,-613.0,-17.0,-707.0,-834.0
0.0,-181.0,-193.0,15.0,285.0,-619.0,0.0,-684.0,-829.0
1.0,-174.0,-194.0,40.0,325.0,-622.0,21.0,-653.0,-831.0
5.0,-168.0,-194.0,58.0,363.0,-623.0,35.0,-625.0,-829.0
7.0,-161.0,-196.0,68.0,400.0,-626.0,46.0,-600.0,-829.0
9.0,-150.0,-196.0,69.0,430.0,-628.0,52.0,-573.0,-831.0
9.0,-149.0,-194.0,63.0,454.0,-630.0,59.0,-552.0,-826.0
10.0,-144.0,-189.0,51.0,468.0,-632.0,70.0,-536.0,-826.0
14.0,-141.0,-189.0,37.0,471.0,-631.0,70.0,-531.0,-817.0
13.0,-140.0,-192.0,23.0,469.0,-631.0,73.0,-525.0,-817.0
18.0,-141.0,-193.0,6.0,461.0,-629.0,67.0,-529.0,-818.0
12.0,-143.0,-190.0,-8.0,450.0,-624.0,75.0,-538.0,-820.0
9.0,-145.0,-191.0,-22.0,436.0,-619.0,65.0,-550.0,-817.0
11.0,-151.0,-196.0,-32.0,422.0,-612.0,69.0,-567.0,-818.0
13.0,-155.0,-192.0,-38.0,407.0,-607.0,67.0,-583.0,-820.0
14.0,-162.0,-187.0,-44.0,388.0,-603.0,75.0,-608.0,-811.0
14.0,-168.0,-192.0,-42.0,369.0,-599.0,74.0,-630.0,-815.0
10.0,-171.0,-191.0,-38.0,346.0,-595.0,72.0,-653.0,-813.0
10.0,-177.0,-186.0,-30.0,320.0,-590.0,72.0,-671.0,-810.0
7.0,-180.0,-190.0,-20.0,292.0,-585.0,66.0,-687.0,-805.0
10.0,-185.0,-184.0,-3.0,263.0,-580.0,61.0,-707.0,-804.0
10.0,-191.0,-183.0,19.0,241.0,-574.0,58.0,-716.0,-794.0
7.0,-193.0,-182.0,43.0,218.0,-566.0,62.0,-732.0,-782.0
3.0,-196.0,-174.0,73.0,195.0,-561.0,50.0,-742.0,-769.0
6.0,-199.0,-170.0,105.0,176.0,-550.0,48.0,-751.0,-753.0
1.0,-198.0,-169.0,139.0,156.0,-538.0,42.0,-749.0,-739.0
3.0,-201.0,-161.0,172.0,137.0,-525.0,36.0,-749.0,-719.0
0.0,-200.0,-160.0,203.0,114.0,-510.0,33.0,-755.0,-705.0
0.0,-196.0,-155.0,234.0,94.0,-495.0,21.0,-750.0,-689.0
-1.0,-198.0,-155.0,264.0,71.0,-480.0,18.0,-749.0,-673.0
-4.0,-195.0,-155.0,290.0,52.0,-461.0,14.0,-733.0,-667.0
-3.0,-194.0,-150.0,313.0,33.0,-445.0,15.0,-726.0,-661.0
-3.0,-189.0,-150.0,333.0,13.0,-430.0,5.0,-720.0,-662.0
-4.0,-187.0,-150.0,353.0,-6.0,-414.0,5.0,-715.0,-657.0
-2.0,-183.0,-154.0,370.0,-24.0,-401.0,12.0,-698.0,-666.0
-4.0,-177.0,-154.0,384.0,-40.0,-388.0,10.0,-684.0,-677.0
0.0,-180.0,-155.0,398.0,-53.0,-377.0,16.0,-674.0,-683.0
0.0,-174.0,-155.0,407.0,-62.0,-364.0,19.0,-659.0,-691.0
2.0,-175.0,-156.0,413.0,-68.0,-355.0,28.0,-654.0,-697.0
2.0,-170.0,-160.0,410.0,-67.0,-348.0,38.0,-635.0,-707.0
3.0,-166.0,-163.0,403.0,-63.0,-343.0,42.0,-622.0,-715.0
5.0,-158.0,-165.0,393.0,-54.0,-338.0,50.0,-610.0,-711.0
10.0,-160.0,-161.0,379.0,-40.0,-332.0,56.0,-604.0,-718.0
8.0,-154.0,-162.0,363.0,-24.0,-325.0,59.0,-601.0,-713.0
11.0,-161.0,-161.0,345.0,-4.0,-319.0,70.0,-603.0,-703.0
14.0,-161.0,-161.0,328.0,17.0,-316.0,77.0,-605.0,-696.0
17.0,-160.0,-155.0,314.0,42.0,-309.0,88.0,-608.0,-682.0
19.0,-163.0,-150.0,299.0,70.0,-304.0,91.0,-621.0,-672.0
17.0,-164.0,-148.0,288.0,98.0,-299.0,95.0,-623.0,-658.0
21.0,-164.0,-142.0,280.0,128.0,-295.0,102.0,-635.0,-647.0
21.0,-167.0,-144.0,274.0,161.0,-293.0,105.0,-643.0,-629.0
22.0,-169.0,-143.0,270.0,193.0,-291.0,102.0,-650.0,-621.0
23.0,-173.0,-137.0,267.0,223.0,-290.0,108.0,-654.0,-613.0
22.0,-178.0,-144.0,266.0,253.0,-292.0,107.0,-652.0,-609.0
22.0,-173.0,-136.0,268.0,280.0,-293.0,112.0,-658.0,-605.0
22.0,-175.0,-137.0,271.0,304.0,-295.0,105.0,-666.0,-600.0
22.0,-174.0,-135.0,277.0,323.0,-296.0,104.0,-661.0,-594.0
23.0,-175.0,-134.0,282.0,338.0,-297.0,106.0,-658.0,-588.0
24.0,-176.0,-131.0,289.0,347.0,-296.0,101.0,-663.0,-591.0
23.0,-174.0,-134.0,295.0,350.0,-296.0,106.0,-666.0,-588.0
16.0,-174.0,-135.0,299.0,347.0,-294.0,101.0,-660.0,-583.0
17.0,-175.0,-132.0,299.0,342.0,-291.0,94.0,-660.0,-578.0
15.0,-173.0,-131.0,296.0,332.0,-286.0,81.0,-660.0,-580.0
9.0,-173.0,-132.0,289.0,317.0,-280.0,73.0,-657.0,-575.0
11.0,-176.0,-128.0,278.0,301.0,-271.0,59.0,-651.0,-575.0
6.0,-173.0,-131.0,262.0,285.0,-263.0,55.0,-656.0,-570.0
4.0,-174.0,-130.0,241.0,267.0,-257.0,43.0,-656.0,-569.0
1.0,-172.0,-129.0,219.0,253.0,-252.0,40.0,-651.0,-564.0
3.0,-175.0,-127.0,201.0,240.0,-246.0,31.0,-658.0,-566.0
2.0,-177.0,-126.0,185.0,228.0,-244.0,21.0,-662.0,-555.0
0.0,-174.0,-127.0,172.0,215.0,-242.0,15.0,-668.0,-559.0
-2.0,-175.0,-126.0,158.0,205.0,-241.0,12.0,-668.0,-556.0
0.0,-178.0,-128.0,144.0,194.0,-241.0,10.0,-671.0,-566.0
0.0,-176.0,-128.0,130.0,189.0,-239.0,15.0,-667.0,-556.0
0.0,-177.0,-126.0,117.0,184.0,-238.0,30.0,-674.0,-554.0
0.0,-179.0,-120.0,105.0,183.0,-233.0,37.0,-672.0,-554.0
5.0,-177.0,-127.0,93.0,183.0,-228.0,39.0,-673.0,-556.0
8.0,-180.0,-126.0,80.0,187.0,-223.0,49.0,-678.0,-558.0
8.0,-180.0,-129.0,68.0,192.0,-216.0,58.0,-680.0,-565.0
12.0,-180.0,-129.0,53.0,200.0,-212.0,78.0,-685.0,-570.0
17.0,-181.0,-132.0,39.0,208.0,-210.0,87.0,-684.0,-572.0
22.0,-184.0,-133.0,25.0,220.0,-205.0,106.0,-695.0,-575.0
18.0,-184.0,-132.0,10.0,233.0,-204.0,114.0,-704.0,-579.0
27.0,-187.0,-132.0,-7.0,240.0,-200.0,128.0,-712.0,-581.0
29.0,-190.0,-132.0,-21.0,249.0,-195.0,135.0,-724.0,-589.0
31.0,-192.0,-135.0,-34.0,257.0,-191.0,146.0,-734.0,-590.0
35.0,-196.0,-137.0,-47.0,261.0,-185.0,153.0,-747.0,-598.0
31.0,-200.0,-138.0,-58.0,269.0,-178.0,157.0,-755.0,-596.0
34.0,-202.0,-135.0,-68.0,276.0,-172.0,159.0,-770.0,-598.0
35.0,-204.0,-135.0,-71.0,282.0,-165.0,166.0,-785.0,-600.0
33.0,-206.0,-134.0,-73.0,286.0,-157.0,158.0,-797.0,-591.0
36.0,-211.0,-134.0,-74.0,289.0,-150.0,156.0,-805.0,-590.0
33.0,-213.0,-132.0,-67.0,291.0,-140.0,154.0,-805.0,-589.0
31.0,-214.0,-132.0,-57.0,290.0,-130.0,154.0,-810.0,-587.0
30.0,-215.0,-134.0,-41.0,291.0,-119.0,147.0,-814.0,-576.0
32.0,-214.0,-133.0,-22.0,289.0,-105.0,145.0,-817.0,-583.0
25.0,-214.0,-130.0,-2.0,290.0,-89.0,139.0,-813.0,-578.0
23.0,-209.0,-119.0,15.0,287.0,-72.0,130.0,-807.0,-571.0
25.0,-211.0,-129.0,30.0,283.0,-55.0,132.0,-808.0,-571.0
23.0,-209.0,-129.0,39.0,281.0,-39.0,126.0,-805.0,-566.0
22.0,-209.0,-127.0,50.0,277.0,-24.0,120.0,-794.0,-556.0
21.0,-207.0,-126.0,56.0,273.0,-8.0,120.0,-793.0,-560.0
22.0,-206.0,-125.0,63.0,270.0,9.0,114.0,-787.0,-554.0
20.0,-203.0,-125.0,65.0,267.0,20.0,110.0,-788.0,-550.0
20.0,-202.0,-121.0,62.0,261.0,31.0,105.0,-783.0,-548.0
22.0,-200.0,-126.0,56.0,258.0,44.0,110.0,-781.0,-550.0
20.0,-201.0,-122.0,46.0,255.0,57.0,108.0,-783.0,-547.0
21.0,-205.0,-121.0,36.0,255.0,69.0,110.0,-781.0,-542.0
22.0,-204.0,-117.0,26.0,255.0,80.0,113.0,-785.0,-541.0
21.0,-204.0,-119.0,13.0,256.0,90.0,112.0,-786.0,-535.0
21.0,-206.0,-120.0,4.0,253.0,99.0,110.0,-786.0,-536.0
22.0,-207.0,-117.0,-8.0,249.0,108.0,114.0,-787.0,-540.0
23.0,-204.0,-121.0,-17.0,243.0,118.0,113.0,-787.0,-535.0
24.0,-205.0,-120.0,-25.0,235.0,128.0,124.0,-784.0,-534.0
26.0,-205.0,-119.0,-29.0,226.0,139.0,127.0,-775.0,-539.0
26.0,-205.0,-122.0,-32.0,216.0,150.0,124.0,-782.0,-533.0
22.0,-206.0,-121.0,-34.0,206.0,161.0,126.0,-782.0,-539.0
25.0,-203.0,-121.0,-40.0,197.0,170.0,128.0,-788.0,-541.0
25.0,-209.0,-119.0,-45.0,185.0,180.0,130.0,-797.0,-550.0
23.0,-206.0,-120.0,-53.0,175.0,185.0,128.0,-800.0,-549.0
26.0,-212.0,-125.0,-65.0,166.0,191.0,128.0,-809.0,-551.0
22.0,-214.0,-125.0,-74.0,158.0,195.0,119.0,-817.0,-549.0
23.0,-214.0,-125.0,-83.0,150.0,196.0,118.0,-824.0,-556.0
25.0,-216.0,-126.0,-90.0,149.0,199.0,124.0,-825.0,-557.0
23.0,-215.0,-128.0,-94.0,149.0,206.0,129.0,-831.0,-567.0
30.0,-217.0,-130.0,-98.0,154.0,210.0,131.0,-833.0,-569.0
27.0,-216.0,-133.0,-101.0,163.0,216.0,138.0,-832.0,-577.0
28.0,-219.0,-138.0,-105.0,173.0,222.0,136.0,-833.0,-581.0
34.0,-219.0,-136.0,-107.0,185.0,230.0,146.0,-831.0,-594.0
30.0,-214.0,-140.0,-112.0,201.0,238.0,149.0,-827.0,-603.0
32.0,-216.0,-139.0,-119.0,215.0,247.0,154.0,-827.0,-613.0
35.0,-219.0,-141.0,-126.0,231.0,254.0,158.0,-830.0,-624.0
36.0,-217.0,-142.0,-137.0,243.0,260.0,164.0,-831.0,-626.0
37.0,-220.0,-147.0,-147.0,264.0,258.0,174.0,-845.0,-632.0
39.0,-224.0,-149.0,-162.0,289.0,248.0,176.0,-858.0,-649.0
43.0,-231.0,-153.0,-184.0,316.0,231.0,192.0,-870.0,-664.0
48.0,-234.0,-153.0,-207.0,337.0,206.0,200.0,-879.0,-684.0
46.0,-235.0,-167.0,-229.0,352.0,174.0,212.0,-893.0,-708.0
48.0,-240.0,-172.0,-247.0,363.0,139.0,225.0,-907.0,-744.0
48.0,-243.0,-178.0,-264.0,369.0,104.0,222.0,-917.0,-776.0
50.0,-242.0,-194.0,-280.0,369.0,73.0,206.0,-935.0,-792.0
35.0,-250.0,-179.0,-292.0,360.0,44.0,174.0,-963.0,-804.0
28.0,-259.0,-188.0,-298.0,344.0,27.0,151.0,-997.0,-818.0
19.0,-264.0,-197.0,-310.0,326.0,5.0,118.0,-1019.0,-839.0
13.0,-264.0,-205.0,-325.0,311.0,-8.0,90.0,-1023.0,-864.0
14.0,-263.0,-205.0,-339.0,302.0,-7.0,81.0,-1015.0,-890.0
14.0,-259.0,-212.0,-350.0,304.0,8.0,79.0,-997.0,-913.0
15.0,-258.0,-215.0,-354.0,309.0,35.0,82.0,-974.0,-931.0
17.0,-251.0,-223.0,-353.0,308.0,69.0,93.0,-962.0,-945.0
23.0,-250.0,-220.0,-355.0,300.0,99.0,108.0,-956.0,-958.0
29.0,-249.0,-221.0,-358.0,290.0,120.0,136.0,-939.0,-959.0
39.0,-243.0,-219.0,-358.0,283.0,138.0,174.0,-921.0,-958.0
48.0,-238.0,-221.0,-359.0,280.0,153.0,225.0,-897.0,-949.0
61.0,-233.0,-213.0,-364.0,279.0,166.0,259.0,-874.0,-928.0
64.0,-227.0,-211.0,-377.0,278.0,180.0,290.0,-866.0,-911.0
71.0,-229.0,-210.0,-407.0,269.0,186.0,314.0,-870.0,-908.0
74.0,-231.0,-210.0,-454.0,260.0,182.0,321.0,-873.0,-900.0
72.0,-232.0,-203.0,-519.0,253.0,167.0,321.0,-893.0,-893.0
73.0,-239.0,-213.0,-592.0,251.0,148.0,310.0,-898.0,-903.0
72.0,-236.0,-209.0,-655.0,256.0,132.0,303.0,-902.0,-907.0
69.0,-241.0,-212.0,-712.0,271.0,120.0,290.0,-910.0,-917.0
63.0,-240.0,-213.0,-755.0,291.0,113.0,281.0,-907.0,-921.0
57.0,-245.0,-218.0,-785.0,318.0,110.0,254.0,-913.0,-932.0
52.0,-240.0,-221.0,-806.0,344.0,108.0,225.0,-910.0,-936.0
42.0,-240.0,-217.0,-814.0,367.0,116.0,195.0,-898.0,-937.0
35.0,-233.0,-217.0,-803.0,386.0,131.0,166.0,-888.0,-935.0
29.0,-226.0,-216.0,-769.0,399.0,156.0,143.0,-873.0,-930.0
24.0,-229.0,-210.0,-718.0,405.0,188.0,124.0,-854.0,-911.0
17.0,-226.0,-203.0,-656.0,404.0,228.0,96.0,-847.0,-888.0
11.0,-220.0,-198.0,-591.0,397.0,274.0,78.0,-837.0,-855.0
9.0,-218.0,-191.0,-528.0,390.0,319.0,61.0,-837.0,-825.0
4.0,-217.0,-182.0,-479.0,378.0,359.0,49.0,-822.0,-802.0
2.0,-207.0,-178.0,-441.0,366.0,398.0,41.0,-812.0,-780.0
0.0,-205.0,-178.0,-418.0,354.0,435.0,38.0,-790.0,-765.0
5.0,-205.0,-173.0,-406.0,341.0,466.0,34.0,-764.0,-754.0
3.0,-200.0,-171.0,-400.0,331.0,491.0,39.0,-755.0,-752.0
3.0,-197.0,-169.0,-396.0,325.0,514.0,40.0,-735.0,-748.0
4.0,-189.0,-167.0,-393.0,324.0,532.0,47.0,-723.0,-739.0
8.0,-185.0,-170.0,-390.0,325.0,546.0,50.0,-711.0,-732.0
11.0,-184.0,-162.0,-389.0,327.0,555.0,55.0,-694.0,-728.0
7.0,-180.0,-166.0,-391.0,331.0,561.0,50.0,-689.0,-719.0
7.0,-178.0,-164.0,-391.0,333.0,566.0,59.0,-677.0,-712.0
9.0,-177.0,-164.0,-388.0,332.0,567.0,58.0,-665.0,-702.0
12.0,-174.0,-164.0,-379.0,329.0,567.0,58.0,-661.0,-714.0
6.0,-173.0,-173.0,-366.0,323.0,563.0,56.0,-650.0,-729.0
6.0,-168.0,-172.0,-353.0,309.0,556.0,53.0,-640.0,-743.0
8.0,-167.0,-174.0,-339.0,287.0,548.0,44.0,-632.0,-754.0
1.0,-163.0,-182.0,-325.0,259.0,535.0,36.0,-607.0,-772.0
1.0,-164.0,-183.0,-309.0,227.0,520.0,28.0,-607.0,-783.0
-5.0,-159.0,-184.0,-299.0,193.0,503.0,8.0,-608.0,-802.0
-11.0,-158.0,-187.0,-298.0,154.0,489.0,-21.0,-606.0,-818.0
-20.0,-161.0,-196.0,-308.0,112.0,474.0,-43.0,-602.0,-834.0
-21.0,-164.0,-198.0,-320.0,73.0,458.0,-66.0,-616.0,-843.0
-23.0,-166.0,-195.0,-330.0,39.0,444.0,-75.0,-636.0,-856.0
-26.0,-174.0,-200.0,-335.0,15.0,435.0,-85.0,-654.0,-857.0
-27.0,-179.0,-202.0,-328.0,2.0,431.0,-94.0,-677.0,-857.0
-30.0,-182.0,-198.0,-314.0,-4.0,433.0,-87.0,-691.0,-856.0
-27.0,-190.0,-197.0,-294.0,0.0,439.0,-94.0,-710.0,-841.0
-27.0,-194.0,-195.0,-266.0,9.0,450.0,-84.0,-731.0,-828.0
-23.0,-199.0,-190.0,-229.0,25.0,464.0,-74.0,-747.0,-821.0
-20.0,-204.0,-186.0,-189.0,47.0,480.0,-61.0,-766.0,-800.0
-17.0,-206.0,-182.0,-146.0,74.0,498.0,-43.0,-785.0,-782.0
-10.0,-206.0,-174.0,-99.0,101.0,514.0,-27.0,-802.0,-765.0
-7.0,-212.0,-168.0,-51.0,133.0,532.0,-10.0,-808.0,-747.0
-1.0,-212.0,-167.0,-4.0,163.0,547.0,7.0,-810.0,-728.0
1.0,-214.0,-165.0,39.0,193.0,559.0,26.0,-811.0,-712.0
3.0,-214.0,-162.0,80.0,220.0,569.0,35.0,-812.0,-696.0
7.0,-212.0,-158.0,116.0,244.0,576.0,47.0,-809.0,-693.0
6.0,-210.0,-156.0,151.0,261.0,580.0,53.0,-801.0,-691.0
7.0,-212.0,-153.0,183.0,269.0,580.0,61.0,-798.0,-690.0
11.0,-207.0,-157.0,215.0,267.0,576.0,62.0,-788.0,-690.0
7.0,-201.0,-156.0,243.0,256.0,564.0,58.0,-769.0,-688.0
3.0,-195.0,-161.0,266.0,233.0,549.0,58.0,-752.0,-694.0
6.0,-192.0,-162.0,284.0,206.0,534.0,54.0,-733.0,-699.0
4.0,-189.0,-161.0,299.0,176.0,514.0,48.0,-718.0,-703.0
4.0,-185.0,-160.0,306.0,141.0,492.0,40.0,-701.0,-707.0
0.0,-183.0,-161.0,314.0,104.0,471.0,28.0,-691.0,-706.0
-3.0,-180.0,-164.0,316.0,67.0,449.0,15.0,-676.0,-699.0
-6.0,-176.0,-161.0,321.0,38.0,427.0,-7.0,-663.0,-706.0
-9.0,-172.0,-160.0,324.0,1.0,407.0,-20.0,-661.0,-700.0
-14.0,-171.0,-159.0,326.0,-37.0,393.0,-37.0,-655.0,-695.0
-22.0,-170.0,-156.0,326.0,-73.0,376.0,-61.0,-650.0,-693.0
-22.0,-169.0,-156.0,328.0,-108.0,365.0,-78.0,-647.0,-684.0
-27.0,-167.0,-150.0,333.0,-143.0,355.0,-84.0,-647.0,-680.0
-31.0,-170.0,-151.0,342.0,-177.0,348.0,-99.0,-643.0,-669.0
-35.0,-176.0,-149.0,352.0,-207.0,345.0,-106.0,-652.0,-665.0
-34.0,-170.0,-150.0,361.0,-238.0,344.0,-113.0,-651.0,-658.0
-31.0,-178.0,-148.0,373.0,-264.0,347.0,-110.0,-658.0,-653.0
-37.0,-177.0,-149.0,387.0,-289.0,353.0,-114.0,-662.0,-653.0
-35.0,-179.0,-149.0,403.0,-309.0,357.0,-116.0,-664.0,-650.0
-31.0,-178.0,-147.0,420.0,-325.0,365.0,-112.0,-669.0,-638.0
-31.0,-178.0,-150.0,438.0,-338.0,369.0,-106.0,-671.0,-641.0
-30.0,-180.0,-147.0,454.0,-349.0,374.0,-100.0,-675.0,-645.0
-29.0,-177.0,-146.0,470.0,-356.0,378.0,-93.0,-671.0,-636.0
-26.0,-176.0,-147.0,486.0,-358.0,381.0,-86.0,-675.0,-641.0
-23.0,-178.0,-147.0,500.0,-360.0,379.0,-79.0,-676.0,-634.0
-23.0,-175.0,-146.0,511.0,-362.0,377.0,-66.0,-670.0,-636.0
-17.0,-180.0,-141.0,520.0,-361.0,373.0,-55.0,-673.0,-631.0
-14.0,-176.0,-149.0,527.0,-361.0,366.0,-46.0,-668.0,-626.0
-15.0,-178.0,-144.0,533.0,-362.0,358.0,-36.0,-667.0,-622.0
-12.0,-176.0,-143.0,537.0,-362.0,351.0,-29.0,-666.0,-626.0
-12.0,-171.0,-137.0,539.0,-361.0,343.0,-29.0,-667.0,-619.0
-10.0,-173.0,-138.0,538.0,-359.0,334.0,-22.0,-660.0,-612.0
-11.0,-171.0,-140.0,534.0,-355.0,327.0,-26.0,-658.0,-613.0
-10.0,-176.0,-140.0,530.0,-351.0,321.0,-19.0,-657.0,-606.0
-10.0,-171.0,-137.0,523.0,-348.0,315.0,-18.0,-654.0,-602.0
-11.0,-170.0,-142.0,516.0,-346.0,308.0,-26.0,-652.0,-604.0
-14.0,-172.0,-141.0,510.0,-343.0,302.0,-30.0,-652.0,-603.0
-13.0,-172.0,-139.0,503.0,-344.0,296.0,-34.0,-647.0,-606.0
-16.0,-170.0,-137.0,498.0,-342.0,290.0,-37.0,-649.0,-603.0
-17.0,-172.0,-134.0,494.0,-338.0,285.0,-45.0,-652.0,-598.0
-17.0,-169.0,-138.0,489.0,-335.0,282.0,-54.0,-649.0,-596.0
-23.0,-168.0,-139.0,484.0,-331.0,277.0,-70.0,-646.0,-597.0
-21.0,-169.0,-135.0,477.0,-329.0,272.0,-75.0,-644.0,-590.0
-23.0,-171.0,-137.0,467.0,-329.0,270.0,-78.0,-640.0,-589.0
-29.0,-168.0,-135.0,456.0,-330.0,266.0,-88.0,-646.0,-590.0
-31.0,-167.0,-131.0,447.0,-332.0,267.0,-101.0,-643.0,-589.0
-35.0,-166.0,-134.0,434.0,-335.0,268.0,-111.0,-639.0,-596.0
-38.0,-165.0,-139.0,419.0,-336.0,268.0,-124.0,-644.0,-592.0
-40.0,-167.0,-138.0,403.0,-334.0,267.0,-130.0,-640.0,-598.0
-41.0,-170.0,-138.0,382.0,-331.0,269.0,-142.0,-646.0,-601.0
-41.0,-171.0,-141.0,359.0,-328.0,270.0,-147.0,-652.0,-592.0
-43.0,-169.0,-138.0,331.0,-323.0,268.0,-151.0,-657.0,-595.0
-43.0,-175.0,-136.0,301.0,-316.0,267.0,-148.0,-664.0,-602.0
-44.0,-175.0,-135.0,272.0,-311.0,263.0,-152.0,-672.0,-601.0
-43.0,-176.0,-135.0,239.0,-303.0,259.0,-152.0,-682.0,-594.0
-46.0,-178.0,-132.0,207.0,-297.0,255.0,-152.0,-687.0,-591.0
-45.0,-182.0,-132.0,175.0,-295.0,248.0,-155.0,-695.0,-592.0
-44.0,-183.0,-133.0,145.0,-294.0,243.0,-147.0,-714.0,-585.0
-43.0,-189.0,-134.0,114.0,-295.0,236.0,-154.0,-718.0,-583.0
-42.0,-192.0,-130.0,86.0,-302.0,227.0,-147.0,-726.0,-579.0
-43.0,-192.0,-132.0,61.0,-309.0,216.0,-148.0,-740.0,-583.0
-44.0,-194.0,-131.0,38.0,-317.0,205.0,-155.0,-746.0,-576.0
-45.0,-196.0,-131.0,20.0,-326.0,193.0,-153.0,-748.0,-570.0
-46.0,-196.0,-132.0,3.0,-334.0,182.0,-154.0,-749.0,-573.0
-46.0,-195.0,-130.0,-13.0,-342.0,166.0,-155.0,-752.0,-580.0
-46.0,-196.0,-133.0,-27.0,-347.0,153.0,-159.0,-754.0,-577.0
-48.0,-193.0,-129.0,-42.0,-348.0,139.0,-165.0,-752.0,-575.0
-47.0,-192.0,-131.0,-54.0,-346.0,123.0,-162.0,-752.0,-575.0
-51.0,-194.0,-130.0,-67.0,-343.0,105.0,-167.0,-746.0,-574.0
-50.0,-193.0,-127.0,-77.0,-337.0,87.0,-173.0,-747.0,-572.0
-47.0,-195.0,-127.0,-86.0,-328.0,66.0,-176.0,-744.0,-575.0
-49.0,-193.0,-130.0,-95.0,-319.0,46.0,-176.0,-735.0,-571.0
-51.0,-192.0,-132.0,-105.0,-309.0,26.0,-180.0,-739.0,-565.0
-52.0,-191.0,-126.0,-118.0,-299.0,9.0,-181.0,-738.0,-560.0
-51.0,-194.0,-126.0,-130.0,-282.0,-7.0,-185.0,-735.0,-563.0
-52.0,-192.0,-126.0,-143.0,-267.0,-23.0,-187.0,-738.0,-561.0
-54.0,-192.0,-124.0,-155.0,-251.0,-37.0,-189.0,-743.0,-556.0
-52.0,-197.0,-131.0,-167.0,-235.0,-49.0,-192.0,-747.0,-558.0
-51.0,-202.0,-129.0,-176.0,-220.0,-65.0,-191.0,-756.0,-560.0
-52.0,-200.0,-125.0,-180.0,-206.0,-80.0,-188.0,-769.0,-558.0
-53.0,-203.0,-126.0,-184.0,-194.0,-96.0,-186.0,-781.0,-558.0
-55.0,-206.0,-123.0,-182.0,-179.0,-114.0,-183.0,-789.0,-557.0
-55.0,-205.0,-127.0,-180.0,-166.0,-130.0,-182.0,-798.0,-555.0
-52.0,-211.0,-125.0,-176.0,-155.0,-145.0,-183.0,-805.0,-553.0
-51.0,-214.0,-130.0,-171.0,-146.0,-159.0,-187.0,-822.0,-552.0
-52.0,-213.0,-124.0,-165.0,-138.0,-169.0,-188.0,-831.0,-554.0
-55.0,-218.0,-125.0,-156.0,-135.0,-180.0,-194.0,-840.0,-555.0
-57.0,-218.0,-127.0,-147.0,-129.0,-192.0,-196.0,-843.0,-555.0
-59.0,-218.0,-131.0,-138.0,-128.0,-200.0,-205.0,-846.0,-561.0
-58.0,-220.0,-127.0,-128.0,-128.0,-210.0,-207.0,-844.0,-570.0
-61.0,-218.0,-127.0,-120.0,-128.0,-220.0,-215.0,-838.0,-574.0
-61.0,-214.0,-131.0,-110.0,-128.0,-227.0,-219.0,-834.0,-574.0
-64.0,-218.0,-130.0,-99.0,-126.0,-233.0,-221.0,-825.0,-573.0
-62.0,-215.0,-129.0,-88.0,-119.0,-238.0,-227.0,-827.0,-569.0
-64.0,-213.0,-133.0,-79.0,-112.0,-241.0,-230.0,-823.0,-570.0
-64.0,-215.0,-132.0,-76.0,-103.0,-243.0,-234.0,-824.0,-567.0
-67.0,-213.0,-127.0,-72.0,-91.0,-243.0,-235.0,-820.0,-563.0
-64.0,-214.0,-129.0,-70.0,-79.0,-242.0,-228.0,-824.0,-569.0
-62.0,-214.0,-128.0,-72.0,-65.0,-244.0,-228.0,-825.0,-568.0
-62.0,-214.0,-131.0,-70.0,-49.0,-246.0,-215.0,-820.0,-568.0
-61.0,-213.0,-130.0,-70.0,-35.0,-249.0,-209.0,-823.0,-571.0
-57.0,-215.0,-130.0,-70.0,-19.0,-255.0,-205.0,-820.0,-572.0
-55.0,-213.0,-129.0,-72.0,-4.0,-262.0,-194.0,-819.0,-571.0
-52.0,-215.0,-128.0,-74.0,11.0,-268.0,-188.0,-828.0,-581.0
-51.0,-216.0,-133.0,-78.0,24.0,-273.0,-183.0,-823.0,-590.0
-49.0,-215.0,-133.0,-84.0,36.0,-279.0,-175.0,-825.0,-596.0
-51.0,-213.0,-138.0,-94.0,47.0,-284.0,-173.0,-820.0,-605.0
-48.0,-214.0,-144.0,-103.0,58.0,-289.0,-169.0,-818.0,-616.0
-50.0,-212.0,-146.0,-114.0,72.0,-293.0,-167.0,-816.0,-639.0
-48.0,-209.0,-150.0,-126.0,82.0,-297.0,-161.0,-808.0,-662.0
-45.0,-208.0,-157.0,-137.0,95.0,-304.0,-158.0,-800.0,-683.0
-43.0,-209.0,-156.0,-141.0,107.0,-303.0,-161.0,-803.0,-689.0
-53.0,-213.0,-154.0,-134.0,116.0,-295.0,-180.0,-811.0,-681.0
-59.0,-216.0,-154.0,-117.0,111.0,-277.0,-206.0,-835.0,-676.0
-67.0,-220.0,-150.0,-95.0,90.0,-248.0,-241.0,-845.0,-668.0
-79.0,-226.0,-150.0,-71.0,55.0,-217.0,-265.0,-859.0,-657.0
-86.0,-225.0,-149.0,-51.0,15.0,-186.0,-305.0,-865.0,-659.0
-87.0,-223.0,-152.0,-43.0,-23.0,-156.0,-322.0,-870.0,-666.0
-89.0,-226.0,-150.0,-49.0,-53.0,-132.0,-331.0,-870.0,-671.0
-89.0,-224.0,-152.0,-69.0,-76.0,-110.0,-331.0,-862.0,-676.0
-88.0,-223.0,-152.0,-101.0,-94.0,-96.0,-328.0,-861.0,-676.0
-87.0,-217.0,-151.0,-138.0,-112.0,-84.0,-324.0,-846.0,-674.0
-88.0,-216.0,-153.0,-181.0,-138.0,-79.0,-320.0,-840.0,-678.0
-88.0,-212.0,-155.0,-220.0,-176.0,-79.0,-322.0,-831.0,-689.0
-88.0,-212.0,-160.0,-274.0,-222.0,-82.0,-322.0,-828.0,-705.0
-88.0,-215.0,-164.0,-338.0,-264.0,-85.0,-320.0,-834.0,-709.0
-87.0,-219.0,-163.0,-403.0,-315.0,-82.0,-315.0,-850.0,-716.0
-85.0,-224.0,-167.0,-463.0,-362.0,-78.0,-308.0,-869.0,-727.0
-78.0,-235.0,-168.0,-512.0,-393.0,-69.0,-291.0,-892.0,-732.0
-76.0,-238.0,-174.0,-542.0,-403.0,-56.0,-275.0,-920.0,-746.0
-69.0,-244.0,-175.0,-558.0,-392.0,-36.0,-264.0,-936.0,-761.0
-68.0,-249.0,-181.0,-555.0,-360.0,-12.0,-251.0,-951.0,-785.0
-64.0,-250.0,-185.0,-543.0,-310.0,17.0,-239.0,-956.0,-812.0
-64.0,-249.0,-201.0,-526.0,-249.0,44.0,-219.0,-969.0,-852.0
-61.0,-254.0,-208.0,-511.0,-182.0,68.0,-210.0,-977.0,-895.0
-53.0,-259.0,-214.0,-498.0,-110.0,81.0,-190.0,-998.0,-930.0
-50.0,-263.0,-224.0,-486.0,-41.0,81.0,-182.0,-1007.0,-968.0
-46.0,-273.0,-236.0,-474.0,27.0,72.0,-167.0,-1025.0,-985.0
-44.0,-273.0,-229.0,-458.0,90.0,53.0,-164.0,-1032.0,-994.0
-49.0,-268.0,-232.0,-432.0,152.0,24.0,-160.0,-1032.0,-995.0
-49.0,-269.0,-228.0,-396.0,208.0,-8.0,-174.0,-1033.0,-990.0
-53.0,-264.0,-232.0,-359.0,259.0,-43.0,-185.0,-1016.0,-991.0
-55.0,-255.0,-232.0,-330.0,301.0,-82.0,-187.0,-983.0,-983.0
-56.0,-249.0,-226.0,-317.0,334.0,-120.0,-199.0,-964.0,-980.0
-61.0,-248.0,-227.0,-322.0,363.0,-152.0,-207.0,-947.0,-972.0
-61.0,-245.0,-224.0,-347.0,379.0,-173.0,-216.0,-928.0,-969.0
-65.0,-238.0,-225.0,-383.0,385.0,-187.0,-234.0,-919.0,-966.0
-65.0,-235.0,-223.0,-424.0,379.0,-192.0,-240.0,-905.0,-958.0
-67.0,-233.0,-224.0,-462.0,365.0,-193.0,-252.0,-893.0,-959.0
-65.0,-233.0,-228.0,-490.0,345.0,-192.0,-250.0,-876.0,-966.0
-67.0,-227.0,-224.0,-505.0,325.0,-187.0,-241.0,-869.0,-958.0
-65.0,-228.0,-221.0,-503.0,310.0,-183.0,-228.0,-861.0,-945.0
-59.0,-226.0,-221.0,-486.0,302.0,-181.0,-211.0,-849.0,-947.0
-58.0,-222.0,-216.0,-454.0,304.0,-179.0,-197.0,-846.0,-928.0
-56.0,-219.0,-212.0,-409.0,307.0,-177.0,-184.0,-839.0,-912.0
-49.0,-216.0,-208.0,-352.0,319.0,-177.0,-161.0,-825.0,-900.0
-43.0,-215.0,-198.0,-286.0,336.0,-177.0,-148.0,-813.0,-868.0
-31.0,-213.0,-196.0,-216.0,357.0,-180.0,-129.0,-800.0,-854.0
-29.0,-207.0,-192.0,-145.0,382.0,-184.0,-107.0,-785.0,-829.0
-28.0,-196.0,-183.0,-78.0,411.0,-191.0,-93.0,-749.0,-814.0
-21.0,-190.0,-182.0,-22.0,441.0,-197.0,-71.0,-727.0,-792.0
-19.0,-182.0,-179.0,14.0,472.0,-203.0,-64.0,-693.0,-778.0
-13.0,-175.0,-175.0,50.0,497.0,-209.0,-45.0,-664.0,-757.0
-11.0,-164.0,-171.0,70.0,511.0,-217.0,-31.0,-630.0,-738.0
-7.0,-161.0,-167.0,74.0,525.0,-224.0,-12.0,-599.0,-730.0
-6.0,-152.0,-167.0,63.0,532.0,-232.0,-3.0,-577.0,-727.0
-3.0,-148.0,-165.0,37.0,534.0,-237.0,1.0,-561.0,-711.0
-2.0,-146.0,-161.0,2.0,529.0,-245.0,6.0,-550.0,-701.0
-2.0,-148.0,-157.0,-37.0,519.0,-252.0,7.0,-553.0,-691.0
-3.0,-146.0,-159.0,-71.0,505.0,-260.0,10.0,-557.0,-685.0
-1.0,-150.0,-158.0,-101.0,488.0,-266.0,10.0,-566.0,-678.0
-4.0,-155.0,-156.0,-123.0,466.0,-273.0,0.0,-587.0,-680.0
-3.0,-162.0,-153.0,-135.0,441.0,-278.0,-4.0,-599.0,-677.0
-7.0,-164.0,-153.0,-138.0,416.0,-287.0,-7.0,-626.0,-681.0
-8.0,-169.0,-154.0,-138.0,394.0,-294.0,-12.0,-645.0,-684.0
-10.0,-174.0,-157.0,-131.0,375.0,-303.0,-18.0,-662.0,-694.0
-8.0,-181.0,-162.0,-121.0,362.0,-311.0,-15.0,-678.0,-703.0
-10.0,-185.0,-162.0,-102.0,347.0,-319.0,-27.0,-694.0,-710.0
-15.0,-186.0,-166.0,-83.0,331.0,-323.0,-29.0,-714.0,-719.0
-16.0,-192.0,-167.0,-60.0,312.0,-328.0,-32.0,-727.0,-730.0
-14.0,-198.0,-169.0,-36.0,294.0,-331.0,-34.0,-738.0,-740.0
-15.0,-198.0,-172.0,-11.0,278.0,-331.0,-36.0,-742.0,-744.0
-16.0,-198.0,-174.0,19.0,263.0,-332.0,-40.0,-754.0,-754.0
-14.0,-200.0,-175.0,50.0,250.0,-331.0,-32.0,-763.0,-743.0
-13.0,-203.0,-169.0,85.0,243.0,-328.0,-32.0,-762.0,-741.0
-12.0,-204.0,-166.0,120.0,234.0,-325.0,-27.0,-765.0,-731.0
-11.0,-200.0,-160.0,156.0,226.0,-321.0,-16.0,-769.0,-710.0
-10.0,-201.0,-155.0,196.0,215.0,-317.0,-18.0,-761.0,-693.0
-10.0,-198.0,-157.0,237.0,207.0,-312.0,-17.0,-753.0,-685.0
-8.0,-198.0,-152.0,275.0,199.0,-305.0,-14.0,-744.0,-664.0
-7.0,-192.0,-146.0,308.0,190.0,-301.0,-8.0,-730.0,-649.0
-3.0,-187.0,-143.0,337.0,184.0,-296.0,-4.0,-712.0,-628.0
-6.0,-185.0,-144.0,360.0,178.0,-293.0,4.0,-706.0,-621.0
0.0,-181.0,-140.0,379.0,175.0,-290.0,11.0,-690.0,-615.0
-1.0,-177.0,-138.0,393.0,172.0,-288.0,9.0,-677.0,-603.0
-4.0,-178.0,-137.0,404.0,165.0,-285.0,12.0,-671.0,-598.0
-2.0,-174.0,-135.0,411.0,155.0,-283.0,12.0,-660.0,-610.0
-2.0,-177.0,-137.0,417.0,140.0,-283.0,19.0,-660.0,-604.0
0.0,-172.0,-140.0,418.0,123.0,-281.0,14.0,-654.0,-601.0
-3.0,-171.0,-141.0,419.0,104.0,-280.0,16.0,-660.0,-609.0
0.0,-172.0,-141.0,419.0,89.0,-278.0,20.0,-662.0,-622.0
-2.0,-175.0,-144.0,413.0,81.0,-278.0,18.0,-659.0,-630.0
0.0,-177.0,-147.0,408.0,76.0,-277.0,19.0,-668.0,-632.0
0.0,-176.0,-148.0,401.0,74.0,-276.0,26.0,-675.0,-653.0
2.0,-181.0,-149.0,390.0,76.0,-276.0,22.0,-679.0,-654.0
-1.0,-181.0,-151.0,384.0,80.0,-275.0,20.0,-687.0,-660.0
1.0,-183.0,-152.0,378.0,86.0,-273.0,26.0,-693.0,-661.0
4.0,-184.0,-154.0,375.0,92.0,-270.0,32.0,-698.0,-665.0
3.0,-184.0,-152.0,374.0,99.0,-266.0,25.0,-710.0,-672.0
0.0,-186.0,-150.0,376.0,106.0,-258.0,31.0,-708.0,-667.0
2.0,-188.0,-153.0,376.0,111.0,-250.0,31.0,-712.0,-666.0
0.0,-186.0,-154.0,379.0,115.0,-239.0,25.0,-712.0,-666.0
3.0,-184.0,-149.0,383.0,117.0,-229.0,27.0,-716.0,-659.0
2.0,-187.0,-148.0,385.0,120.0,-218.0,29.0,-714.0,-659.0
1.0,-187.0,-149.0,387.0,124.0,-204.0,33.0,-711.0,-653.0
0.0,-185.0,-147.0,391.0,127.0,-192.0,26.0,-709.0,-648.0
1.0,-184.0,-144.0,395.0,133.0,-180.0,30.0,-704.0,-643.0
2.0,-183.0,-146.0,395.0,137.0,-169.0,24.0,-699.0,-638.0
1.0,-182.0,-146.0,396.0,142.0,-158.0,27.0,-690.0,-634.0
0.0,-182.0,-145.0,398.0,143.0,-151.0,23.0,-683.0,-631.0
1.0,-180.0,-143.0,398.0,146.0,-143.0,27.0,-677.0,-626.0
1.0,-177.0,-143.0,400.0,149.0,-137.0,32.0,-671.0,-625.0
2.0,-173.0,-145.0,400.0,152.0,-131.0,31.0,-672.0,-618.0
3.0,-174.0,-138.0,397.0,156.0,-129.0,31.0,-661.0,-614.0
4.0,-173.0,-139.0,392.0,160.0,-128.0,38.0,-653.0,-607.0
6.0,-173.0,-142.0,382.0,167.0,-128.0,39.0,-649.0,-611.0
5.0,-169.0,-141.0,368.0,177.0,-130.0,40.0,-645.0,-610.0
5.0,-173.0,-140.0,352.0,189.0,-132.0,44.0,-646.0,-613.0
4.0,-170.0,-144.0,331.0,200.0,-136.0,43.0,-646.0,-615.0
4.0,-171.0,-142.0,307.0,209.0,-139.0,40.0,-647.0,-619.0
6.0,-172.0,-142.0,279.0,217.0,-143.0,49.0,-653.0,-629.0
5.0,-175.0,-145.0,251.0,222.0,-149.0,48.0,-665.0,-623.0
8.0,-179.0,-143.0,223.0,228.0,-153.0,46.0,-673.0,-622.0
7.0,-182.0,-143.0,198.0,233.0,-160.0,48.0,-689.0,-620.0
11.0,-190.0,-135.0,179.0,241.0,-166.0,45.0,-701.0,-624.0
4.0,-185.0,-138.0,164.0,247.0,-171.0,44.0,-717.0,-617.0
2.0,-192.0,-139.0,156.0,254.0,-176.0,39.0,-731.0,-613.0
2.0,-194.0,-140.0,153.0,260.0,-178.0,39.0,-731.0,-613.0
3.0,-199.0,-138.0,154.0,265.0,-179.0,34.0,-742.0,-606.0
1.0,-198.0,-138.0,158.0,270.0,-177.0,34.0,-746.0,-602.0
1.0,-196.0,-135.0,165.0,273.0,-174.0,34.0,-743.0,-596.0
3.0,-192.0,-132.0,167.0,273.0,-171.0,34.0,-747.0,-588.0
1.0,-194.0,-133.0,169.0,271.0,-171.0,31.0,-735.0,-581.0
3.0,-191.0,-129.0,170.0,271.0,-166.0,33.0,-734.0,-578.0
1.0,-187.0,-129.0,169.0,269.0,-161.0,38.0,-722.0,-572.0
3.0,-186.0,-129.0,166.0,268.0,-155.0,38.0,-716.0,-570.0
5.0,-186.0,-130.0,157.0,270.0,-149.0,46.0,-713.0,-570.0
5.0,-183.0,-126.0,142.0,274.0,-146.0,49.0,-704.0,-566.0
7.0,-183.0,-129.0,125.0,275.0,-141.0,50.0,-707.0,-567.0
9.0,-186.0,-125.0,103.0,277.0,-139.0,60.0,-703.0,-559.0
7.0,-185.0,-125.0,79.0,275.0,-134.0,55.0,-712.0,-560.0
12.0,-187.0,-125.0,52.0,274.0,-129.0,62.0,-715.0,-562.0
9.0,-188.0,-130.0,24.0,268.0,-126.0,72.0,-726.0,-558.0
9.0,-192.0,-130.0,-3.0,262.0,-122.0,71.0,-730.0,-565.0
11.0,-196.0,-130.0,-29.0,255.0,-115.0,74.0,-747.0,-567.0
12.0,-198.0,-133.0,-52.0,251.0,-110.0,72.0,-751.0,-564.0
15.0,-195.0,-122.0,-67.0,245.0,-103.0,82.0,-759.0,-569.0
13.0,-203.0,-132.0,-79.0,243.0,-95.0,74.0,-775.0,-571.0
11.0,-203.0,-128.0,-85.0,240.0,-87.0,79.0,-775.0,-576.0
15.0,-204.0,-132.0,-89.0,237.0,-80.0,82.0,-787.0,-575.0
15.0,-207.0,-137.0,-89.0,240.0,-72.0,87.0,-795.0,-577.0
14.0,-210.0,-133.0,-89.0,243.0,-64.0,92.0,-800.0,-582.0
19.0,-209.0,-135.0,-87.0,249.0,-56.0,95.0,-798.0,-579.0
16.0,-211.0,-132.0,-84.0,254.0,-50.0,98.0,-803.0,-576.0
20.0,-211.0,-133.0,-79.0,262.0,-43.0,100.0,-804.0,-577.0
17.0,-210.0,-130.0,-70.0,270.0,-34.0,107.0,-809.0,-576.0
19.0,-212.0,-133.0,-63.0,280.0,-26.0,110.0,-803.0,-577.0
22.0,-210.0,-131.0,-59.0,289.0,-18.0,115.0,-799.0,-573.0
24.0,-207.0,-131.0,-60.0,299.0,-11.0,113.0,-800.0,-578.0
23.0,-209.0,-127.0,-62.0,309.0,-1.0,116.0,-804.0,-563.0
21.0,-208.0,-131.0,-70.0,318.0,7.0,108.0,-796.0,-571.0
18.0,-208.0,-127.0,-81.0,324.0,13.0,108.0,-796.0,-564.0
20.0,-209.0,-128.0,-93.0,327.0,22.0,110.0,-795.0,-568.0
20.0,-206.0,-128.0,-108.0,330.0,28.0,104.0,-798.0,-563.0
18.0,-211.0,-127.0,-124.0,333.0,33.0,99.0,-796.0,-556.0
18.0,-210.0,-129.0,-136.0,333.0,38.0,92.0,-800.0,-555.0
15.0,-207.0,-127.0,-148.0,329.0,44.0,85.0,-798.0,-555.0
14.0,-209.0,-123.0,-156.0,324.0,48.0,79.0,-797.0,-558.0
11.0,-210.0,-128.0,-163.0,314.0,54.0,75.0,-800.0,-553.0
10.0,-211.0,-124.0,-167.0,304.0,58.0,66.0,-804.0,-553.0
6.0,-208.0,-124.0,-169.0,292.0,64.0,61.0,-806.0,-550.0
7.0,-212.0,-124.0,-170.0,281.0,66.0,54.0,-807.0,-551.0
8.0,-215.0,-123.0,-170.0,270.0,70.0,54.0,-812.0,-550.0
5.0,-213.0,-124.0,-167.0,264.0,73.0,58.0,-816.0,-553.0
6.0,-210.0,-126.0,-162.0,258.0,78.0,58.0,-816.0,-548.0
10.0,-213.0,-125.0,-157.0,253.0,82.0,61.0,-821.0,-559.0
10.0,-214.0,-126.0,-153.0,248.0,86.0,71.0,-828.0,-558.0
12.0,-213.0,-123.0,-151.0,245.0,90.0,81.0,-820.0,-566.0
13.0,-215.0,-131.0,-150.0,242.0,96.0,87.0,-820.0,-565.0
15.0,-213.0,-127.0,-153.0,240.0,101.0,87.0,-829.0,-569.0
13.0,-216.0,-130.0,-156.0,237.0,106.0,91.0,-827.0,-563.0
17.0,-219.0,-131.0,-158.0,232.0,111.0,95.0,-826.0,-566.0
18.0,-215.0,-126.0,-163.0,226.0,116.0,98.0,-831.0,-568.0
20.0,-220.0,-130.0,-166.0,216.0,122.0,98.0,-830.0,-555.0
17.0,-218.0,-126.0,-164.0,210.0,125.0,98.0,-836.0,-555.0
19.0,-223.0,-124.0,-158.0,201.0,127.0,95.0,-845.0,-552.0
16.0,-223.0,-124.0,-150.0,188.0,128.0,96.0,-847.0,-548.0
17.0,-222.0,-123.0,-138.0,177.0,130.0,94.0,-846.0,-550.0
16.0,-223.0,-118.0,-125.0,168.0,132.0,98.0,-845.0,-545.0
21.0,-216.0,-117.0,-111.0,162.0,134.0,97.0,-846.0,-548.0
18.0,-216.0,-123.0,-99.0,162.0,138.0,105.0,-836.0,-554.0
20.0,-215.0,-126.0,-93.0,164.0,142.0,102.0,-831.0,-554.0
20.0,-214.0,-129.0,-89.0,167.0,144.0,109.0,-821.0,-558.0
22.0,-212.0,-126.0,-89.0,172.0,150.0,117.0,-809.0,-558.0
19.0,-208.0,-124.0,-92.0,178.0,154.0,116.0,-811.0,-557.0
25.0,-212.0,-124.0,-97.0,182.0,158.0,121.0,-809.0,-553.0
26.0,-210.0,-123.0,-100.0,183.0,160.0,129.0,-808.0,-548.0
30.0,-213.0,-121.0,-101.0,183.0,161.0,131.0,-810.0,-547.0
29.0,-213.0,-118.0,-97.0,186.0,164.0,134.0,-810.0,-555.0
25.0,-214.0,-125.0,-95.0,194.0,165.0,131.0,-818.0,-554.0
25.0,-215.0,-129.0,-97.0,207.0,165.0,136.0,-825.0,-564.0
29.0,-220.0,-133.0,-105.0,224.0,164.0,143.0,-828.0,-570.0
32.0,-217.0,-133.0,-119.0,248.0,160.0,146.0,-830.0,-589.0
37.0,-218.0,-138.0,-131.0,279.0,156.0,159.0,-833.0,-599.0
40.0,-221.0,-141.0,-152.0,314.0,151.0,173.0,-843.0,-610.0
44.0,-223.0,-142.0,-173.0,344.0,140.0,188.0,-852.0,-620.0
42.0,-225.0,-143.0,-199.0,377.0,131.0,193.0,-870.0,-627.0
43.0,-236.0,-144.0,-227.0,403.0,119.0,191.0,-893.0,-628.0
38.0,-244.0,-145.0,-258.0,421.0,101.0,179.0,-922.0,-633.0
35.0,-252.0,-148.0,-286.0,434.0,81.0,169.0,-972.0,-640.0
32.0,-266.0,-148.0,-308.0,442.0,62.0,151.0,-1024.0,-664.0
32.0,-271.0,-156.0,-324.0,449.0,39.0,139.0,-1061.0,-686.0
29.0,-282.0,-166.0,-337.0,458.0,17.0,139.0,-1093.0,-724.0
31.0,-288.0,-177.0,-349.0,475.0,0.0,144.0,-1105.0,-764.0
38.0,-288.0,-184.0,-366.0,500.0,-9.0,161.0,-1093.0,-803.0
42.0,-282.0,-192.0,-387.0,534.0,-13.0,189.0,-1075.0,-841.0
44.0,-278.0,-196.0,-405.0,568.0,-12.0,206.0,-1058.0,-859.0
47.0,-277.0,-202.0,-409.0,597.0,-6.0,218.0,-1055.0,-857.0
52.0,-281.0,-195.0,-396.0,613.0,-7.0,230.0,-1064.0,-848.0
50.0,-285.0,-193.0,-357.0,616.0,-9.0,233.0,-1082.0,-830.0
48.0,-290.0,-189.0,-298.0,605.0,-13.0,226.0,-1101.0,-810.0
45.0,-287.0,-191.0,-224.0,586.0,-14.0,218.0,-1089.0,-811.0
43.0,-281.0,-190.0,-144.0,561.0,-6.0,201.0,-1066.0,-821.0
34.0,-269.0,-194.0,-73.0,532.0,13.0,174.0,-1029.0,-849.0
30.0,-254.0,-204.0,-20.0,501.0,51.0,150.0,-954.0,-880.0
26.0,-234.0,-210.0,7.0,477.0,104.0,143.0,-894.0,-914.0
26.0,-217.0,-217.0,8.0,460.0,164.0,129.0,-827.0,-936.0
25.0,-209.0,-222.0,-19.0,451.0,223.0,123.0,-793.0,-950.0
21.0,-200.0,-220.0,-74.0,448.0,268.0,102.0,-766.0,-951.0
15.0,-204.0,-221.0,-152.0,437.0,301.0,91.0,-782.0,-946.0
10.0,-205.0,-216.0,-241.0,422.0,323.0,66.0,-805.0,-931.0
8.0,-216.0,-213.0,-332.0,399.0,338.0,72.0,-842.0,-922.0
10.0,-233.0,-211.0,-415.0,372.0,341.0,63.0,-882.0,-912.0
9.0,-241.0,-208.0,-489.0,341.0,335.0,70.0,-917.0,-911.0
9.0,-248.0,-212.0,-549.0,306.0,320.0,77.0,-949.0,-917.0
14.0,-257.0,-213.0,-595.0,269.0,301.0,89.0,-980.0,-918.0
19.0,-263.0,-214.0,-623.0,238.0,283.0,106.0,-1008.0,-922.0
25.0,-266.0,-217.0,-631.0,216.0,273.0,125.0,-1024.0,-940.0
27.0,-269.0,-221.0,-621.0,209.0,273.0,144.0,-1019.0,-952.0
33.0,-268.0,-224.0,-593.0,214.0,281.0,163.0,-1016.0,-964.0
39.0,-261.0,-222.0,-551.0,228.0,296.0,174.0,-1002.0,-962.0
38.0,-259.0,-219.0,-509.0,247.0,317.0,188.0,-973.0,-958.0
44.0,-253.0,-215.0,-445.0,265.0,340.0,197.0,-955.0,-951.0
44.0,-247.0,-213.0,-372.0,281.0,366.0,202.0,-924.0,-927.0
44.0,-244.0,-209.0,-293.0,294.0,382.0,197.0,-899.0,-903.0
42.0,-237.0,-204.0,-210.0,302.0,404.0,183.0,-874.0,-882.0
34.0,-229.0,-198.0,-128.0,303.0,425.0,169.0,-848.0,-850.0
29.0,-218.0,-193.0,-54.0,299.0,443.0,141.0,-821.0,-829.0
21.0,-207.0,-187.0,6.0,291.0,455.0,113.0,-787.0,-816.0
10.0,-196.0,-183.0,50.0,275.0,461.0,72.0,-738.0,-801.0
2.0,-185.0,-185.0,76.0,250.0,462.0,40.0,-713.0,-792.0
-6.0,-178.0,-179.0,88.0,222.0,458.0,9.0,-675.0,-780.0
-13.0,-168.0,-180.0,87.0,188.0,454.0,-32.0,-648.0,-771.0
-20.0,-161.0,-174.0,77.0,151.0,448.0,-67.0,-627.0,-771.0
-29.0,-156.0,-177.0,56.0,116.0,444.0,-99.0,-590.0,-777.0
-33.0,-150.0,-178.0,26.0,83.0,442.0,-117.0,-573.0,-771.0
-38.0,-147.0,-177.0,-9.0,53.0,439.0,-127.0,-568.0,-773.0
-35.0,-149.0,-175.0,-46.0,28.0,437.0,-140.0,-560.0,-772.0
-44.0,-149.0,-176.0,-80.0,7.0,435.0,-144.0,-566.0,-766.0
-42.0,-152.0,-176.0,-110.0,-11.0,432.0,-145.0,-571.0,-769.0
-38.0,-155.0,-176.0,-134.0,-25.0,425.0,-144.0,-585.0,-761.0
-42.0,-157.0,-174.0,-146.0,-41.0,419.0,-141.0,-594.0,-757.0
-40.0,-159.0,-174.0,-152.0,-57.0,410.0,-131.0,-615.0,-757.0
-38.0,-163.0,-177.0,-153.0,-74.0,402.0,-118.0,-618.0,-759.0
-37.0,-164.0,-174.0,-150.0,-95.0,393.0,-107.0,-632.0,-754.0
-30.0,-170.0,-173.0,-147.0,-116.0,382.0,-98.0,-645.0,-769.0
-27.0,-173.0,-174.0,-139.0,-139.0,370.0,-83.0,-655.0,-770.0
-26.0,-174.0,-176.0,-129.0,-162.0,354.0,-78.0,-661.0,-773.0
-24.0,-176.0,-180.0,-114.0,-186.0,340.0,-76.0,-667.0,-772.0
-23.0,-181.0,-179.0,-100.0,-209.0,325.0,-76.0,-678.0,-776.0
-23.0,-182.0,-177.0,-85.0,-232.0,314.0,-76.0,-683.0,-773.0
-23.0,-182.0,-175.0,-70.0,-253.0,301.0,-67.0,-688.0,-773.0
-21.0,-183.0,-178.0,-56.0,-268.0,290.0,-58.0,-702.0,-769.0
-18.0,-187.0,-178.0,-42.0,-281.0,281.0,-54.0,-703.0,-765.0
-18.0,-187.0,-176.0,-26.0,-288.0,269.0,-47.0,-710.0,-759.0
-16.0,-190.0,-173.0,-9.0,-291.0,259.0,-44.0,-714.0,-745.0
-15.0,-191.0,-170.0,8.0,-288.0,251.0,-41.0,-725.0,-735.0
-10.0,-191.0,-169.0,27.0,-280.0,242.0,-32.0,-726.0,-727.0
-13.0,-192.0,-166.0,41.0,-269.0,235.0,-30.0,-730.0,-713.0
-11.0,-193.0,-167.0,60.0,-255.0,231.0,-23.0,-738.0,-711.0
-7.0,-195.0,-166.0,78.0,-241.0,229.0,-27.0,-734.0,-708.0
-12.0,-191.0,-160.0,96.0,-226.0,230.0,-25.0,-730.0,-698.0
-14.0,-190.0,-161.0,115.0,-208.0,231.0,-26.0,-733.0,-698.0
-12.0,-188.0,-161.0,133.0,-193.0,238.0,-21.0,-734.0,-694.0
-9.0,-191.0,-157.0,150.0,-178.0,241.0,-30.0,-727.0,-695.0
-14.0,-187.0,-161.0,164.0,-164.0,249.0,-31.0,-719.0,-692.0
-11.0,-189.0,-160.0,178.0,-154.0,253.0,-26.0,-719.0,-688.0
-9.0,-186.0,-155.0,188.0,-144.0,259.0,-29.0,-710.0,-686.0
-10.0,-188.0,-156.0,201.0,-135.0,263.0,-26.0,-705.0,-676.0
-8.0,-184.0,-157.0,209.0,-126.0,264.0,-20.0,-706.0,-671.0
-8.0,-183.0,-155.0,217.0,-120.0,264.0,-22.0,-691.0,-666.0
-11.0,-182.0,-151.0,222.0,-117.0,262.0,-20.0,-690.0,-660.0
-9.0,-179.0,-149.0,224.0,-116.0,259.0,-22.0,-678.0,-656.0
-11.0,-176.0,-146.0,226.0,-116.0,252.0,-23.0,-671.0,-651.0
-14.0,-173.0,-147.0,224.0,-121.0,248.0,-35.0,-664.0,-649.0
-14.0,-171.0,-148.0,221.0,-132.0,242.0,-33.0,-650.0,-641.0
-14.0,-167.0,-149.0,217.0,-144.0,237.0,-42.0,-644.0,-643.0
-18.0,-165.0,-143.0,212.0,-159.0,233.0,-49.0,-638.0,-631.0
-19.0,-166.0,-145.0,207.0,-175.0,228.0,-54.0,-628.0,-633.0
-19.0,-165.0,-147.0,202.0,-189.0,224.0,-60.0,-627.0,-631.0
-21.0,-166.0,-141.0,197.0,-206.0,217.0,-69.0,-620.0,-631.0
-23.0,-161.0,-144.0,194.0,-223.0,216.0,-69.0,-620.0,-624.0
-24.0,-161.0,-142.0,192.0,-243.0,213.0,-73.0,-609.0,-626.0
-25.0,-164.0,-143.0,192.0,-265.0,211.0,-80.0,-625.0,-628.0
-27.0,-162.0,-142.0,192.0,-285.0,212.0,-80.0,-623.0,-622.0
-27.0,-166.0,-143.0,195.0,-305.0,216.0,-90.0,-629.0,-624.0
-30.0,-167.0,-144.0,196.0,-321.0,217.0,-95.0,-641.0,-625.0
-30.0,-167.0,-144.0,200.0,-331.0,218.0,-101.0,-647.0,-619.0
-29.0,-172.0,-142.0,203.0,-338.0,218.0,-101.0,-648.0,-623.0
-31.0,-175.0,-143.0,206.0,-340.0,218.0,-104.0,-658.0,-627.0
-33.0,-174.0,-144.0,210.0,-338.0,218.0,-101.0,-673.0,-624.0
-28.0,-177.0,-144.0,214.0,-333.0,218.0,-100.0,-674.0,-619.0
-30.0,-180.0,-142.0,218.0,-327.0,217.0,-98.0,-684.0,-617.0
-30.0,-183.0,-141.0,223.0,-321.0,219.0,-94.0,-689.0,-613.0
-30.0,-181.0,-140.0,229.0,-313.0,220.0,-89.0,-693.0,-607.0
-29.0,-185.0,-141.0,234.0,-304.0,222.0,-92.0,-697.0,-606.0
-28.0,-184.0,-139.0,240.0,-294.0,224.0,-89.0,-704.0,-606.0
-23.0,-185.0,-136.0,246.0,-286.0,225.0,-83.0,-704.0,-596.0
-25.0,-184.0,-134.0,249.0,-275.0,226.0,-78.0,-703.0,-598.0
-26.0,-184.0,-136.0,249.0,-263.0,229.0,-74.0,-699.0,-592.0
-22.0,-182.0,-136.0,250.0,-253.0,233.0,-65.0,-699.0,-588.0
-21.0,-183.0,-136.0,249.0,-245.0,233.0,-69.0,-688.0,-588.0
-25.0,-180.0,-135.0,246.0,-241.0,238.0,-67.0,-686.0,-583.0
-24.0,-179.0,-132.0,243.0,-238.0,243.0,-70.0,-674.0,-581.0
-29.0,-172.0,-132.0,240.0,-236.0,248.0,-76.0,-668.0,-587.0
-24.0,-173.0,-134.0,234.0,-232.0,250.0,-76.0,-662.0,-581.0
-26.0,-172.0,-131.0,226.0,-231.0,252.0,-81.0,-655.0,-580.0
-24.0,-170.0,-133.0,217.0,-226.0,252.0,-80.0,-657.0,-585.0
-28.0,-173.0,-131.0,201.0,-220.0,252.0,-84.0,-649.0,-583.0
-29.0,-171.0,-136.0,185.0,-215.0,250.0,-92.0,-647.0,-579.0
-32.0,-170.0,-134.0,170.0,-214.0,248.0,-95.0,-652.0,-582.0
-33.0,-171.0,-134.0,155.0,-217.0,245.0,-100.0,-654.0,-581.0
-33.0,-172.0,-130.0,142.0,-225.0,240.0,-110.0,-661.0,-571.0
-38.0,-175.0,-130.0,129.0,-238.0,233.0,-120.0,-662.0,-574.0
-39.0,-175.0,-131.0,117.0,-253.0,224.0,-135.0,-666.0,-579.0
-41.0,-177.0,-134.0,103.0,-275.0,215.0,-140.0,-676.0,-582.0
-46.0,-179.0,-134.0,90.0,-296.0,204.0,-155.0,-681.0,-579.0
-48.0,-179.0,-134.0,79.0,-317.0,190.0,-162.0,-691.0,-582.0
-50.0,-184.0,-134.0,68.0,-336.0,180.0,-175.0,-694.0,-580.0
-53.0,-183.0,-133.0,60.0,-349.0,164.0,-186.0,-708.0,-589.0
-54.0,-185.0,-135.0,55.0,-361.0,149.0,-185.0,-719.0,-590.0
-53.0,-191.0,-134.0,52.0,-366.0,133.0,-192.0,-722.0,-591.0
-54.0,-195.0,-138.0,51.0,-366.0,115.0,-195.0,-736.0,-591.0
-56.0,-194.0,-134.0,52.0,-363.0,98.0,-196.0,-741.0,-590.0
-53.0,-195.0,-135.0,58.0,-353.0,82.0,-201.0,-751.0,-590.0
-55.0,-196.0,-130.0,66.0,-340.0,64.0,-196.0,-752.0,-585.0
-55.0,-198.0,-132.0,76.0,-322.0,49.0,-190.0,-755.0,-583.0
-50.0,-200.0,-129.0,85.0,-302.0,33.0,-187.0,-752.0,-573.0
-52.0,-197.0,-130.0,92.0,-278.0,19.0,-188.0,-756.0,-576.0
-51.0,-197.0,-128.0,97.0,-253.0,6.0,-188.0,-749.0,-575.0
-48.0,-197.0,-127.0,96.0,-225.0,-8.0,-183.0,-746.0,-569.0
-50.0,-197.0,-122.0,93.0,-196.0,-21.0,-186.0,-746.0,-567.0
-50.0,-197.0,-128.0,84.0,-168.0,-34.0,-183.0,-755.0,-562.0
-52.0,-196.0,-124.0,78.0,-140.0,-47.0,-182.0,-758.0,-558.0
-50.0,-201.0,-123.0,69.0,-115.0,-59.0,-182.0,-760.0,-546.0
-50.0,-200.0,-124.0,59.0,-99.0,-70.0,-179.0,-775.0,-541.0
-49.0,-202.0,-119.0,50.0,-80.0,-78.0,-173.0,-784.0,-538.0
-50.0,-205.0,-120.0,41.0,-68.0,-88.0,-180.0,-790.0,-534.0
-48.0,-206.0,-120.0,36.0,-60.0,-98.0,-164.0,-795.0,-526.0
-48.0,-204.0,-122.0,32.0,-55.0,-109.0,-164.0,-805.0,-531.0
-46.0,-212.0,-121.0,32.0,-54.0,-120.0,-159.0,-803.0,-536.0
-45.0,-210.0,-123.0,34.0,-54.0,-131.0,-159.0,-810.0,-544.0
-52.0,-210.0,-125.0,35.0,-57.0,-145.0,-163.0,-806.0,-548.0
-51.0,-209.0,-126.0,39.0,-60.0,-157.0,-163.0,-811.0,-549.0
-50.0,-209.0,-126.0,44.0,-66.0,-169.0,-177.0,-806.0,-558.0
-52.0,-209.0,-128.0,46.0,-68.0,-181.0,-179.0,-809.0,-565.0
-52.0,-209.0,-123.0,46.0,-70.0,-192.0,-184.0,-806.0,-561.0
-54.0,-208.0,-129.0,41.0,-68.0,-201.0,-189.0,-802.0,-561.0
-53.0,-205.0,-124.0,33.0,-63.0,-209.0,-190.0,-806.0,-561.0
-55.0,-208.0,-126.0,22.0,-57.0,-215.0,-191.0,-807.0,-560.0
-55.0,-208.0,-124.0,11.0,-49.0,-220.0,-184.0,-812.0,-558.0
-53.0,-213.0,-127.0,0.0,-42.0,-222.0,-182.0,-813.0,-556.0
-49.0,-217.0,-126.0,-9.0,-34.0,-226.0,-180.0,-817.0,-553.0
-51.0,-213.0,-123.0,-16.0,-27.0,-227.0,-186.0,-825.0,-552.0
-52.0,-216.0,-127.0,-19.0,-23.0,-228.0,-181.0,-830.0,-549.0
-51.0,-212.0,-125.0,-22.0,-20.0,-230.0,-180.0,-832.0,-549.0
-55.0,-215.0,-122.0,-26.0,-17.0,-229.0,-184.0,-832.0,-545.0
-54.0,-216.0,-122.0,-32.0,-19.0,-229.0,-190.0,-829.0,-553.0
-56.0,-212.0,-127.0,-40.0,-17.0,-230.0,-193.0,-828.0,-551.0
-56.0,-211.0,-127.0,-52.0,-14.0,-228.0,-205.0,-813.0,-559.0
-55.0,-210.0,-124.0,-67.0,-7.0,-227.0,-197.0,-808.0,-560.0
-57.0,-210.0,-126.0,-86.0,4.0,-224.0,-199.0,-813.0,-556.0
-59.0,-206.0,-126.0,-107.0,17.0,-220.0,-200.0,-812.0,-561.0
-56.0,-210.0,-127.0,-132.0,28.0,-215.0,-196.0,-813.0,-564.0
-54.0,-213.0,-129.0,-156.0,38.0,-211.0,-189.0,-819.0,-560.0
-53.0,-212.0,-130.0,-178.0,44.0,-209.0,-184.0,-828.0,-565.0
-53.0,-216.0,-135.0,-198.0,48.0,-204.0,-174.0,-830.0,-570.0
-52.0,-219.0,-135.0,-217.0,48.0,-199.0,-174.0,-843.0,-590.0
-52.0,-219.0,-139.0,-235.0,38.0,-191.0,-171.0,-850.0,-605.0
-53.0,-222.0,-141.0,-254.0,24.0,-183.0,-172.0,-858.0,-622.0
-55.0,-224.0,-148.0,-272.0,4.0,-170.0,-188.0,-859.0,-651.0
-59.0,-225.0,-153.0,-288.0,-14.0,-154.0,-196.0,-866.0,-675.0
-61.0,-224.0,-159.0,-308.0,-33.0,-134.0,-216.0,-865.0,-696.0
-65.0,-227.0,-162.0,-329.0,-44.0,-115.0,-236.0,-866.0,-723.0
-69.0,-227.0,-169.0,-349.0,-54.0,-101.0,-255.0,-864.0,-734.0
-69.0,-225.0,-169.0,-372.0,-58.0,-91.0,-262.0,-870.0,-745.0
-73.0,-229.0,-173.0,-391.0,-63.0,-83.0,-269.0,-876.0,-758.0
-71.0,-234.0,-171.0,-408.0,-60.0,-79.0,-264.0,-891.0,-767.0
-66.0,-239.0,-175.0,-422.0,-57.0,-70.0,-255.0,-908.0,-774.0
-69.0,-241.0,-179.0,-433.0,-50.0,-58.0,-245.0,-929.0,-775.0
-65.0,-247.0,-183.0,-441.0,-37.0,-41.0,-232.0,-944.0,-781.0
-64.0,-249.0,-183.0,-444.0,-28.0,-24.0,-233.0,-962.0,-781.0
-63.0,-254.0,-182.0,-442.0,-24.0,-5.0,-220.0,-977.0,-789.0
-57.0,-255.0,-180.0,-434.0,-25.0,8.0,-212.0,-982.0,-789.0
-59.0,-256.0,-182.0,-417.0,-30.0,16.0,-211.0,-976.0,-794.0
-60.0,-249.0,-185.0,-401.0,-35.0,22.0,-207.0,-962.0,-796.0
-60.0,-247.0,-184.0,-384.0,-32.0,27.0,-211.0,-944.0,-801.0
-65.0,-240.0,-192.0,-369.0,-25.0,33.0,-224.0,-923.0,-810.0
-66.0,-237.0,-189.0,-363.0,-11.0,38.0,-244.0,-907.0,-817.0
-69.0,-232.0,-190.0,-362.0,6.0,44.0,-257.0,-895.0,-823.0
-75.0,-229.0,-191.0,-364.0,24.0,45.0,-277.0,-888.0,-820.0
-78.0,-232.0,-192.0,-370.0,38.0,41.0,-280.0,-881.0,-813.0
-78.0,-233.0,-185.0,-377.0,52.0,36.0,-293.0,-893.0,-808.0
-78.0,-236.0,-185.0,-388.0,60.0,28.0,-297.0,-905.0,-806.0
-83.0,-241.0,-190.0,-401.0,61.0,22.0,-309.0,-920.0,-805.0
-84.0,-246.0,-185.0,-415.0,60.0,17.0,-310.0,-926.0,-809.0
-86.0,-248.0,-190.0,-434.0,60.0,13.0,-310.0,-951.0,-817.0
-81.0,-252.0,-193.0,-454.0,59.0,11.0,-314.0,-964.0,-827.0
-85.0,-254.0,-196.0,-477.0,59.0,9.0,-313.0,-972.0,-836.0
-82.0,-251.0,-199.0,-503.0,57.0,1.0,-308.0,-979.0,-855.0
-80.0,-259.0,-200.0,-525.0,54.0,-13.0,-290.0,-984.0,-874.0
-78.0,-253.0,-207.0,-545.0,49.0,-33.0,-279.0,-982.0,-891.0
-73.0,-253.0,-212.0,-561.0,44.0,-60.0,-270.0,-977.0,-903.0
-70.0,-254.0,-213.0,-571.0,38.0,-89.0,-264.0,-966.0,-916.0
-68.0,-249.0,-213.0,-573.0,31.0,-119.0,-253.0,-954.0,-926.0
-66.0,-249.0,-217.0,-572.0,25.0,-149.0,-237.0,-942.0,-935.0
-63.0,-244.0,-216.0,-564.0,24.0,-177.0,-221.0,-927.0,-938.0
-53.0,-242.0,-217.0,-550.0,35.0,-201.0,-195.0,-919.0,-937.0
-47.0,-245.0,-216.0,-525.0,58.0,-217.0,-172.0,-907.0,-933.0
-43.0,-238.0,-207.0,-497.0,88.0,-227.0,-155.0,-899.0,-928.0
-39.0,-236.0,-211.0,-468.0,121.0,-239.0,-143.0,-892.0,-921.0
-37.0,-231.0,-211.0,-430.0,146.0,-249.0,-126.0,-880.0,-909.0
-31.0,-230.0,-203.0,-384.0,181.0,-264.0,-116.0,-853.0,-887.0
-27.0,-220.0,-203.0,-329.0,214.0,-275.0,-92.0,-835.0,-866.0
-24.0,-217.0,-196.0,-273.0,246.0,-291.0,-79.0,-809.0,-849.0
-22.0,-206.0,-193.0,-215.0,275.0,-307.0,-68.0,-791.0,-828.0
-20.0,-202.0,-185.0,-157.0,297.0,-321.0,-59.0,-752.0,-802.0
-22.0,-190.0,-182.0,-107.0,314.0,-330.0,-47.0,-720.0,-792.0
-16.0,-185.0,-181.0,-64.0,325.0,-337.0,-47.0,-684.0,-786.0
-14.0,-175.0,-184.0,-38.0,330.0,-344.0,-44.0,-660.0,-768.0
-13.0,-163.0,-179.0,-22.0,335.0,-345.0,-43.0,-631.0,-767.0
-17.0,-158.0,-174.0,-21.0,338.0,-343.0,-44.0,-602.0,-759.0
-15.0,-150.0,-170.0,-31.0,340.0,-340.0,-46.0,-579.0,-748.0
-13.0,-146.0,-170.0,-51.0,337.0,-335.0,-41.0,-552.0,-737.0
-12.0,-146.0,-166.0,-78.0,333.0,-332.0,-41.0,-545.0,-728.0
-16.0,-141.0,-164.0,-110.0,324.0,-327.0,-39.0,-542.0,-710.0
-11.0,-141.0,-159.0,-142.0,311.0,-320.0,-40.0,-538.0,-708.0
-14.0,-145.0,-162.0,-173.0,298.0,-313.0,-36.0,-543.0,-709.0
-14.0,-144.0,-163.0,-204.0,285.0,-306.0,-37.0,-546.0,-704.0
-11.0,-146.0,-165.0,-232.0,277.0,-300.0,-32.0,-550.0,-712.0
-7.0,-154.0,-165.0,-260.0,273.0,-296.0,-28.0,-565.0,-724.0
-3.0,-150.0,-166.0,-284.0,272.0,-295.0,-20.0,-584.0,-729.0
-5.0,-157.0,-172.0,-303.0,277.0,-297.0,-13.0,-593.0,-741.0
-7.0,-162.0,-173.0,-317.0,285.0,-303.0,-3.0,-614.0,-745.0
-1.0,-165.0,-176.0,-326.0,295.0,-310.0,0.0,-638.0,-766.0
-3.0,-174.0,-182.0,-330.0,307.0,-315.0,9.0,-656.0,-773.0
2.0,-179.0,-184.0,-330.0,318.0,-316.0,16.0,-668.0,-778.0
0.0,-177.0,-180.0,-323.0,335.0,-319.0,20.0,-687.0,-788.0
0.0,-185.0,-188.0,-308.0,350.0,-321.0,19.0,-700.0,-798.0
2.0,-188.0,-187.0,-291.0,369.0,-325.0,31.0,-712.0,-804.0
5.0,-194.0,-187.0,-264.0,384.0,-325.0,28.0,-721.0,-797.0
2.0,-195.0,-185.0,-230.0,396.0,-329.0,33.0,-732.0,-801.0
1.0,-198.0,-182.0,-186.0,400.0,-327.0,21.0,-731.0,-782.0
0.0,-199.0,-179.0,-133.0,396.0,-323.0,28.0,-746.0,-776.0
-2.0,-198.0,-174.0,-74.0,384.0,-319.0,16.0,-744.0,-764.0
-7.0,-197.0,-170.0,-14.0,369.0,-311.0,8.0,-742.0,-742.0
-3.0,-195.0,-166.0,42.0,348.0,-303.0,-3.0,-730.0,-733.0
-8.0,-190.0,-162.0,82.0,325.0,-293.0,-7.0,-720.0,-718.0
-7.0,-186.0,-162.0,122.0,302.0,-286.0,-9.0,-707.0,-701.0
-9.0,-182.0,-160.0,154.0,283.0,-278.0,-18.0,-694.0,-686.0
-9.0,-179.0,-155.0,173.0,262.0,-275.0,-19.0,-682.0,-678.0
-13.0,-176.0,-151.0,187.0,244.0,-270.0,-18.0,-674.0,-664.0
-10.0,-176.0,-146.0,193.0,227.0,-265.0,-29.0,-666.0,-661.0
-10.0,-171.0,-150.0,196.0,214.0,-262.0,-21.0,-657.0,-657.0
-11.0,-171.0,-150.0,195.0,203.0,-258.0,-24.0,-647.0,-654.0
-9.0,-169.0,-150.0,194.0,195.0,-256.0,-19.0,-640.0,-663.0
-10.0,-167.0,-151.0,194.0,189.0,-257.0,-16.0,-637.0,-670.0
-8.0,-164.0,-153.0,192.0,186.0,-258.0,-9.0,-631.0,-678.0
-7.0,-166.0,-153.0,192.0,184.0,-259.0,-2.0,-618.0,-674.0
-2.0,-162.0,-157.0,193.0,183.0,-261.0,5.0,-617.0,-685.0
0.0,-162.0,-159.0,197.0,188.0,-263.0,13.0,-607.0,-685.0
-2.0,-162.0,-157.0,201.0,194.0,-263.0,15.0,-603.0,-686.0
2.0,-159.0,-156.0,204.0,206.0,-264.0,22.0,-598.0,-691.0
3.0,-157.0,-160.0,206.0,222.0,-263.0,27.0,-594.0,-696.0
5.0,-157.0,-160.0,206.0,241.0,-263.0,30.0,-596.0,-694.0
4.0,-152.0,-161.0,204.0,262.0,-261.0,39.0,-593.0,-700.0
4.0,-156.0,-161.0,201.0,281.0,-259.0,42.0,-590.0,-703.0
7.0,-157.0,-160.0,197.0,298.0,-257.0,44.0,-589.0,-698.0
2.0,-154.0,-156.0,188.0,308.0,-254.0,43.0,-598.0,-703.0
4.0,-156.0,-156.0,177.0,314.0,-250.0,43.0,-592.0,-695.0
3.0,-161.0,-155.0,165.0,315.0,-247.0,40.0,-602.0,-688.0
6.0,-164.0,-154.0,154.0,315.0,-243.0,37.0,-614.0,-683.0
5.0,-165.0,-152.0,146.0,313.0,-242.0,34.0,-627.0,-682.0
0.0,-170.0,-153.0,140.0,310.0,-239.0,35.0,-640.0,-670.0
0.0,-174.0,-153.0,141.0,301.0,-236.0,28.0,-651.0,-672.0
0.0,-173.0,-150.0,144.0,289.0,-234.0,19.0,-661.0,-662.0
0.0,-177.0,-151.0,151.0,276.0,-232.0,15.0,-668.0,-659.0
-5.0,-178.0,-152.0,163.0,260.0,-231.0,6.0,-673.0,-661.0
-8.0,-182.0,-154.0,175.0,242.0,-228.0,-4.0,-682.0,-658.0
-8.0,-182.0,-149.0,191.0,223.0,-228.0,-8.0,-693.0,-657.0
-12.0,-182.0,-152.0,206.0,204.0,-228.0,-15.0,-694.0,-656.0
-8.0,-182.0,-147.0,220.0,184.0,-229.0,-17.0,-690.0,-659.0
-9.0,-181.0,-147.0,233.0,165.0,-231.0,-15.0,-684.0,-658.0
-11.0,-179.0,-149.0,243.0,150.0,-231.0,-12.0,-687.0,-659.0
-3.0,-178.0,-152.0,250.0,137.0,-231.0,-9.0,-674.0,-658.0
-4.0,-175.0,-150.0,252.0,130.0,-229.0,-2.0,-674.0,-663.0
-1.0,-174.0,-150.0,250.0,126.0,-226.0,10.0,-665.0,-663.0
1.0,-172.0,-155.0,245.0,123.0,-223.0,16.0,-652.0,-673.0
5.0,-171.0,-150.0,233.0,123.0,-220.0,27.0,-646.0,-677.0
4.0,-169.0,-154.0,214.0,125.0,-213.0,39.0,-641.0,-677.0
6.0,-167.0,-157.0,192.0,132.0,-208.0,42.0,-638.0,-677.0
11.0,-171.0,-158.0,167.0,139.0,-205.0,55.0,-639.0,-688.0
12.0,-170.0,-153.0,138.0,152.0,-201.0,61.0,-650.0,-691.0
11.0,-175.0,-160.0,108.0,170.0,-197.0,69.0,-658.0,-687.0
13.0,-178.0,-155.0,81.0,187.0,-197.0,68.0,-671.0,-687.0
16.0,-182.0,-154.0,60.0,205.0,-193.0,78.0,-685.0,-688.0
16.0,-183.0,-152.0,42.0,224.0,-194.0,84.0,-694.0,-687.0
16.0,-186.0,-158.0,37.0,241.0,-197.0,87.0,-712.0,-691.0
15.0,-187.0,-156.0,39.0,259.0,-202.0,87.0,-719.0,-688.0
15.0,-192.0,-156.0,50.0,271.0,-207.0,86.0,-724.0,-686.0
14.0,-194.0,-158.0,72.0,279.0,-209.0,85.0,-729.0,-680.0
13.0,-194.0,-157.0,100.0,280.0,-214.0,80.0,-729.0,-674.0
12.0,-195.0,-155.0,125.0,278.0,-220.0,72.0,-727.0,-679.0
10.0,-189.0,-154.0,146.0,273.0,-224.0,72.0,-725.0,-674.0
12.0,-186.0,-157.0,161.0,265.0,-233.0,66.0,-722.0,-682.0
10.0,-188.0,-153.0,162.0,260.0,-239.0,57.0,-722.0,-674.0
9.0,-191.0,-155.0,155.0,258.0,-246.0,58.0,-722.0,-668.0
11.0,-190.0,-152.0,143.0,254.0,-252.0,51.0,-718.0,-660.0
8.0,-189.0,-154.0,126.0,249.0,-257.0,55.0,-717.0,-664.0
6.0,-187.0,-150.0,110.0,245.0,-261.0,47.0,-721.0,-652.0
8.0,-189.0,-150.0,97.0,240.0,-262.0,53.0,-722.0,-655.0
7.0,-188.0,-149.0,86.0,235.0,-260.0,50.0,-722.0,-658.0
7.0,-190.0,-150.0,78.0,233.0,-256.0,55.0,-718.0,-654.0
8.0,-188.0,-149.0,72.0,231.0,-251.0,60.0,-720.0,-657.0
9.0,-191.0,-148.0,70.0,229.0,-246.0,55.0,-726.0,-659.0
13.0,-191.0,-151.0,68.0,226.0,-243.0,61.0,-726.0,-656.0
11.0,-193.0,-148.0,72.0,226.0,-236.0,62.0,-730.0,-655.0
12.0,-195.0,-149.0,76.0,226.0,-227.0,68.0,-734.0,-658.0
13.0,-191.0,-146.0,84.0,227.0,-218.0,74.0,-742.0,-656.0
11.0,-196.0,-148.0,94.0,227.0,-206.0,77.0,-744.0,-654.0
14.0,-194.0,-147.0,103.0,224.0,-196.0,81.0,-743.0,-650.0
16.0,-197.0,-150.0,110.0,223.0,-186.0,92.0,-743.0,-652.0
14.0,-196.0,-148.0,115.0,220.0,-175.0,92.0,-747.0,-648.0
18.0,-195.0,-148.0,118.0,219.0,-166.0,100.0,-748.0,-643.0
20.0,-199.0,-145.0,122.0,215.0,-156.0,104.0,-749.0,-636.0
16.0,-198.0,-147.0,124.0,212.0,-147.0,105.0,-750.0,-631.0
20.0,-196.0,-143.0,127.0,210.0,-138.0,106.0,-746.0,-630.0
21.0,-196.0,-144.0,129.0,204.0,-132.0,109.0,-748.0,-626.0
21.0,-195.0,-141.0,131.0,202.0,-127.0,107.0,-749.0,-617.0
20.0,-195.0,-141.0,132.0,195.0,-123.0,110.0,-744.0,-609.0
22.0,-196.0,-140.0,132.0,186.0,-120.0,105.0,-738.0,-610.0
20.0,-193.0,-136.0,129.0,179.0,-115.0,101.0,-737.0,-603.0
20.0,-192.0,-138.0,122.0,167.0,-110.0,106.0,-740.0,-597.0
17.0,-190.0,-136.0,114.0,154.0,-105.0,103.0,-732.0,-590.0
19.0,-193.0,-134.0,103.0,141.0,-100.0,98.0,-736.0,-587.0
21.0,-196.0,-132.0,89.0,130.0,-94.0,99.0,-736.0,-594.0
19.0,-196.0,-135.0,76.0,121.0,-90.0,100.0,-749.0,-592.0
19.0,-197.0,-137.0,60.0,112.0,-83.0,95.0,-751.0,-597.0
16.0,-197.0,-141.0,45.0,105.0,-77.0,93.0,-750.0,-594.0
19.0,-200.0,-133.0,33.0,99.0,-68.0,100.0,-765.0,-603.0
15.0,-199.0,-142.0,24.0,94.0,-60.0,94.0,-779.0,-605.0
21.0,-202.0,-144.0,19.0,89.0,-50.0,96.0,-774.0,-614.0
18.0,-206.0,-145.0,18.0,86.0,-40.0,98.0,-781.0,-618.0
16.0,-206.0,-141.0,19.0,82.0,-28.0,97.0,-788.0,-619.0
14.0,-206.0,-142.0,24.0,77.0,-14.0,100.0,-791.0,-615.0
19.0,-208.0,-143.0,32.0,70.0,-1.0,102.0,-789.0,-622.0
18.0,-208.0,-144.0,40.0,65.0,11.0,98.0,-794.0,-625.0
19.0,-208.0,-142.0,46.0,56.0,20.0,100.0,-799.0,-618.0
19.0,-210.0,-141.0,51.0,49.0,26.0,98.0,-797.0,-614.0
16.0,-206.0,-133.0,56.0,40.0,31.0,103.0,-801.0,-603.0
16.0,-209.0,-140.0,66.0,32.0,35.0,101.0,-797.0,-604.0
19.0,-207.0,-137.0,77.0,26.0,37.0,105.0,-797.0,-596.0
22.0,-205.0,-135.0,90.0,19.0,41.0,112.0,-794.0,-589.0
22.0,-204.0,-134.0,101.0,13.0,41.0,113.0,-784.0,-588.0
24.0,-204.0,-131.0,110.0,8.0,43.0,117.0,-775.0,-584.0
25.0,-204.0,-132.0,112.0,4.0,45.0,119.0,-753.0,-586.0
23.0,-196.0,-133.0,107.0,-4.0,47.0,121.0,-761.0,-583.0
25.0,-199.0,-132.0,97.0,-11.0,50.0,117.0,-755.0,-574.0
24.0,-199.0,-129.0,83.0,-17.0,55.0,122.0,-756.0,-578.0
25.0,-197.0,-130.0,66.0,-22.0,61.0,117.0,-755.0,-572.0
23.0,-197.0,-133.0,47.0,-29.0,66.0,119.0,-756.0,-579.0
28.0,-196.0,-140.0,27.0,-31.0,73.0,116.0,-758.0,-588.0
26.0,-199.0,-141.0,8.0,-30.0,82.0,123.0,-754.0,-596.0
26.0,-198.0,-141.0,-10.0,-26.0,90.0,130.0,-755.0,-606.0
28.0,-199.0,-142.0,-22.0,-21.0,101.0,135.0,-756.0,-621.0
30.0,-202.0,-146.0,-37.0,-17.0,107.0,139.0,-758.0,-629.0
33.0,-203.0,-149.0,-52.0,-11.0,115.0,138.0,-760.0,-638.0
30.0,-199.0,-152.0,-68.0,-6.0,121.0,145.0,-769.0,-665.0
29.0,-201.0,-157.0,-88.0,-1.0,125.0,143.0,-770.0,-685.0
34.0,-207.0,-163.0,-107.0,5.0,127.0,146.0,-788.0,-702.0
37.0,-214.0,-159.0,-124.0,17.0,121.0,161.0,-812.0,-711.0
42.0,-219.0,-166.0,-138.0,33.0,103.0,177.0,-835.0,-714.0
45.0,-230.0,-168.0,-145.0,53.0,74.0,201.0,-869.0,-722.0
47.0,-233.0,-166.0,-146.0,79.0,37.0,220.0,-891.0,-731.0
54.0,-243.0,-165.0,-142.0,107.0,-2.0,229.0,-910.0,-737.0
50.0,-246.0,-165.0,-134.0,134.0,-41.0,227.0,-926.0,-735.0
50.0,-248.0,-169.0,-123.0,155.0,-71.0,225.0,-946.0,-745.0
46.0,-250.0,-172.0,-113.0,170.0,-97.0,205.0,-963.0,-744.0
39.0,-256.0,-176.0,-104.0,178.0,-115.0,179.0,-974.0,-753.0
32.0,-254.0,-175.0,-102.0,181.0,-127.0,153.0,-979.0,-775.0
23.0,-252.0,-183.0,-109.0,181.0,-132.0,123.0,-969.0,-789.0
22.0,-251.0,-186.0,-127.0,188.0,-128.0,107.0,-955.0,-813.0
23.0,-250.0,-196.0,-155.0,203.0,-119.0,104.0,-943.0,-830.0
18.0,-245.0,-194.0,-184.0,220.0,-105.0,94.0,-926.0,-837.0
16.0,-241.0,-195.0,-213.0,239.0,-85.0,89.0,-923.0,-845.0
12.0,-240.0,-194.0,-239.0,246.0,-68.0,89.0,-918.0,-846.0
18.0,-241.0,-196.0,-258.0,242.0,-54.0,96.0,-912.0,-851.0
23.0,-236.0,-195.0,-270.0,228.0,-46.0,117.0,-898.0,-846.0
28.0,-232.0,-192.0,-271.0,206.0,-41.0,138.0,-883.0,-836.0
33.0,-231.0,-191.0,-257.0,182.0,-37.0,158.0,-868.0,-825.0
36.0,-230.0,-185.0,-232.0,148.0,-40.0,179.0,-862.0,-803.0
44.0,-230.0,-180.0,-206.0,108.0,-49.0,207.0,-871.0,-797.0
46.0,-234.0,-178.0,-186.0,63.0,-62.0,220.0,-890.0,-796.0
49.0,-240.0,-185.0,-176.0,24.0,-77.0,235.0,-914.0,-797.0
54.0,-247.0,-190.0,-182.0,-9.0,-93.0,243.0,-936.0,-804.0
55.0,-254.0,-184.0,-198.0,-32.0,-108.0,241.0,-966.0,-812.0
54.0,-263.0,-193.0,-225.0,-47.0,-120.0,236.0,-1009.0,-825.0
57.0,-271.0,-197.0,-253.0,-55.0,-130.0,241.0,-1036.0,-839.0
55.0,-277.0,-200.0,-279.0,-52.0,-135.0,239.0,-1066.0,-858.0
54.0,-282.0,-204.0,-295.0,-35.0,-134.0,242.0,-1074.0,-877.0
53.0,-279.0,-210.0,-300.0,-7.0,-122.0,245.0,-1066.0,-911.0
55.0,-272.0,-218.0,-295.0,31.0,-99.0,238.0,-1058.0,-936.0
55.0,-267.0,-221.0,-278.0,69.0,-65.0,230.0,-1016.0,-957.0
50.0,-260.0,-226.0,-255.0,98.0,-26.0,225.0,-968.0,-979.0
45.0,-246.0,-227.0,-230.0,129.0,18.0,206.0,-931.0,-987.0
40.0,-233.0,-229.0,-213.0,148.0,51.0,191.0,-890.0,-982.0
36.0,-225.0,-221.0,-198.0,152.0,86.0,170.0,-856.0,-975.0
36.0,-219.0,-223.0,-185.0,148.0,117.0,163.0,-827.0,-956.0
31.0,-212.0,-216.0,-167.0,134.0,140.0,147.0,-804.0,-936.0
28.0,-210.0,-210.0,-148.0,115.0,155.0,129.0,-789.0,-911.0
18.0,-204.0,-201.0,-128.0,94.0,166.0,105.0,-770.0,-879.0
15.0,-199.0,-192.0,-108.0,70.0,170.0,79.0,-755.0,-848.0
7.0,-196.0,-187.0,-88.0,47.0,173.0,58.0,-733.0,-809.0
2.0,-187.0,-179.0,-67.0,25.0,173.0,38.0,-711.0,-789.0
0.0,-183.0,-178.0,-46.0,5.0,174.0,19.0,-687.0,-771.0
-1.0,-179.0,-172.0,-30.0,-12.0,178.0,8.0,-666.0,-742.0
-7.0,-168.0,-165.0,-20.0,-29.0,182.0,0.0,-649.0,-727.0
-7.0,-167.0,-162.0,-21.0,-44.0,188.0,-7.0,-632.0,-713.0
-8.0,-162.0,-158.0,-29.0,-53.0,196.0,-10.0,-617.0,-702.0
-8.0,-161.0,-162.0,-45.0,-57.0,204.0,-16.0,-598.0,-695.0
-7.0,-157.0,-158.0,-68.0,-55.0,211.0,-16.0,-592.0,-688.0
-8.0,-153.0,-158.0,-92.0,-49.0,219.0,-12.0,-585.0,-693.0
-8.0,-152.0,-162.0,-121.0,-40.0,223.0,-6.0,-578.0,-701.0
-2.0,-155.0,-163.0,-153.0,-36.0,229.0,-1.0,-574.0,-705.0
0.0,-153.0,-164.0,-187.0,-32.0,234.0,12.0,-583.0,-722.0
0.0,-156.0,-167.0,-219.0,-26.0,241.0,17.0,-582.0,-734.0
1.0,-159.0,-171.0,-248.0,-18.0,247.0,21.0,-600.0,-749.0
1.0,-162.0,-175.0,-273.0,-15.0,252.0,32.0,-615.0,-753.0
3.0,-170.0,-178.0,-295.0,-12.0,257.0,32.0,-633.0,-767.0
1.0,-167.0,-182.0,-308.0,-16.0,260.0,35.0,-647.0,-781.0
2.0,-175.0,-183.0,-316.0,-22.0,263.0,31.0,-658.0,-789.0
0.0,-179.0,-187.0,-317.0,-38.0,262.0,32.0,-672.0,-798.0
0.0,-180.0,-182.0,-309.0,-57.0,260.0,27.0,-680.0,-799.0
0.0,-184.0,-185.0,-299.0,-84.0,257.0,20.0,-690.0,-805.0
-3.0,-186.0,-188.0,-285.0,-114.0,254.0,10.0,-696.0,-812.0
-8.0,-187.0,-190.0,-269.0,-146.0,250.0,1.0,-707.0,-814.0
-12.0,-187.0,-188.0,-251.0,-179.0,246.0,-20.0,-715.0,-813.0
-10.0,-188.0,-191.0,-229.0,-207.0,244.0,-33.0,-714.0,-813.0
-16.0,-192.0,-184.0,-210.0,-234.0,244.0,-46.0,-721.0,-813.0
-19.0,-192.0,-181.0,-185.0,-259.0,243.0,-58.0,-728.0,-802.0
-23.0,-192.0,-186.0,-156.0,-276.0,242.0,-67.0,-727.0,-800.0
-24.0,-190.0,-184.0,-128.0,-297.0,243.0,-68.0,-732.0,-795.0
-26.0,-193.0,-183.0,-101.0,-311.0,244.0,-77.0,-726.0,-794.0
-20.0,-194.0,-182.0,-75.0,-317.0,243.0,-74.0,-730.0,-779.0
-21.0,-193.0,-181.0,-47.0,-318.0,246.0,-78.0,-735.0,-775.0
-22.0,-191.0,-179.0,-20.0,-312.0,250.0,-76.0,-729.0,-767.0
-19.0,-190.0,-177.0,8.0,-300.0,255.0,-71.0,-725.0,-755.0
-19.0,-189.0,-177.0,35.0,-278.0,260.0,-58.0,-719.0,-742.0
-12.0,-194.0,-173.0,62.0,-249.0,266.0,-49.0,-716.0,-739.0
-13.0,-187.0,-170.0,87.0,-219.0,274.0,-36.0,-709.0,-726.0
-23.0,-196.0,-164.0,106.0,-184.0,283.0,-26.0,-705.0,-728.0
-4.0,-169.0,-172.0,122.0,-150.0,288.0,-11.0,-687.0,-726.0
-12.0,-174.0,-164.0,135.0,-115.0,293.0,1.0,-691.0,-725.0
-6.0,-177.0,-170.0,142.0,-85.0,297.0,11.0,-679.0,-729.0
0.0,-174.0,-181.0,142.0,-58.0,299.0,19.0,-673.0,-727.0
0.0,-179.0,-174.0,137.0,-34.0,302.0,22.0,-669.0,-734.0
2.0,-176.0,-174.0,128.0,-15.0,302.0,27.0,-657.0,-735.0
2.0,-170.0,-166.0,115.0,2.0,302.0,25.0,-657.0,-733.0
6.0,-167.0,-165.0,99.0,11.0,298.0,31.0,-648.0,-736.0
1.0,-169.0,-168.0,86.0,13.0,295.0,25.0,-648.0,-731.0
0.0,-168.0,-170.0,78.0,7.0,289.0,14.0,-645.0,-728.0
0.0,-170.0,-165.0,70.0,-4.0,281.0,13.0,-647.0,-726.0
-3.0,-172.0,-170.0,65.0,-20.0,275.0,-2.0,-653.0,-726.0
-3.0,-178.0,-157.0,60.0,-40.0,266.0,-14.0,-645.0,-717.0
-13.0,-175.0,-166.0,56.0,-64.0,258.0,-19.0,-650.0,-711.0
-13.0,-169.0,-159.0,59.0,-90.0,249.0,-27.0,-652.0,-707.0
-22.0,-177.0,-156.0,66.0,-118.0,237.0,-38.0,-655.0,-707.0
-17.0,-172.0,-162.0,75.0,-145.0,230.0,-43.0,-655.0,-697.0
-17.0,-168.0,-164.0,88.0,-173.0,222.0,-49.0,-661.0,-692.0
-22.0,-172.0,-153.0,102.0,-199.0,214.0,-62.0,-662.0,-686.0
-22.0,-180.0,-161.0,117.0,-222.0,209.0,-65.0,-665.0,-684.0
-22.0,-175.0,-153.0,132.0,-242.0,206.0,-69.0,-666.0,-677.0
-25.0,-174.0,-158.0,148.0,-257.0,203.0,-74.0,-668.0,-674.0
-35.0,-177.0,-164.0,163.0,-271.0,203.0,-74.0,-672.0,-667.0
-24.0,-178.0,-150.0,178.0,-280.0,205.0,-68.0,-674.0,-667.0
-22.0,-179.0,-152.0,192.0,-286.0,208.0,-71.0,-675.0,-666.0
-18.0,-181.0,-152.0,204.0,-288.0,212.0,-63.0,-680.0,-662.0
-19.0,-180.0,-148.0,216.0,-285.0,217.0,-49.0,-682.0,-663.0
-17.0,-175.0,-140.0,229.0,-278.0,226.0,-43.0,-683.0,-659.0
-12.0,-179.0,-155.0,240.0,-269.0,231.0,-42.0,-681.0,-660.0
-9.0,-182.0,-153.0,254.0,-258.0,235.0,-31.0,-685.0,-653.0
-8.0,-187.0,-154.0,265.0,-247.0,240.0,-22.0,-685.0,-654.0
-10.0,-170.0,-165.0,275.0,-236.0,244.0,-20.0,-681.0,-650.0
5.0,-173.0,-153.0,285.0,-223.0,248.0,-16.0,-679.0,-644.0
-7.0,-185.0,-151.0,293.0,-209.0,252.0,-16.0,-681.0,-640.0
-4.0,-182.0,-149.0,300.0,-195.0,252.0,-11.0,-673.0,-648.0
-16.0,-166.0,-151.0,303.0,-182.0,253.0,-13.0,-672.0,-639.0
-4.0,-166.0,-144.0,302.0,-170.0,252.0,-19.0,-672.0,-633.0
-5.0,-158.0,-145.0,297.0,-160.0,250.0,-17.0,-660.0,-635.0
-8.0,-171.0,-142.0,289.0,-155.0,244.0,-24.0,-663.0,-630.0
-13.0,-175.0,-146.0,278.0,-152.0,240.0,-31.0,-656.0,-640.0
-16.0,-173.0,-145.0,268.0,-157.0,236.0,-39.0,-661.0,-632.0
-18.0,-174.0,-145.0,257.0,-159.0,234.0,-47.0,-661.0,-631.0
-22.0,-174.0,-144.0,245.0,-168.0,233.0,-61.0,-666.0,-628.0
-24.0,-172.0,-155.0,234.0,-180.0,232.0,-70.0,-667.0,-631.0
-23.0,-182.0,-148.0,221.0,-195.0,235.0,-79.0,-672.0,-632.0
-35.0,-177.0,-134.0,210.0,-210.0,239.0,-86.0,-673.0,-635.0
-40.0,-182.0,-138.0,197.0,-227.0,242.0,-95.0,-680.0,-640.0
-34.0,-170.0,-150.0,188.0,-245.0,247.0,-102.0,-682.0,-646.0
-24.0,-198.0,-145.0,174.0,-258.0,253.0,-102.0,-693.0,-650.0
-36.0,-177.0,-156.0,160.0,-273.0,259.0,-112.0,-694.0,-650.0
-33.0,-197.0,-149.0,147.0,-283.0,264.0,-112.0,-704.0,-657.0
-33.0,-184.0,-160.0,131.0,-292.0,267.0,-111.0,-712.0,-655.0
-47.0,-168.0,-149.0,118.0,-298.0,273.0,-115.0,-717.0,-655.0
-36.0,-193.0,-157.0,106.0,-304.0,277.0,-113.0,-720.0,-649.0
-35.0,-187.0,-148.0,91.0,-305.0,281.0,-115.0,-726.0,-643.0
-36.0,-187.0,-147.0,76.0,-309.0,285.0,-114.0,-726.0,-647.0
-31.0,-189.0,-146.0,61.0,-312.0,286.0,-113.0,-724.0,-637.0
-27.0,-193.0,-140.0,46.0,-312.0,286.0,-109.0,-730.0,-636.0
-22.0,-189.0,-136.0,32.0,-310.0,285.0,-104.0,-725.0,-634.0
-42.0,-190.0,-143.0,17.0,-303.0,279.0,-99.0,-725.0,-633.0
-23.0,-184.0,-143.0,2.0,-294.0,274.0,-100.0,-722.0,-638.0
-38.0,-185.0,-158.0,-12.0,-287.0,269.0,-97.0,-722.0,-641.0
-34.0,-202.0,-143.0,-24.0,-275.0,261.0,-95.0,-720.0,-639.0
-27.0,-195.0,-147.0,-33.0,-263.0,253.0,-97.0,-718.0,-644.0
-31.0,-185.0,-145.0,-40.0,-255.0,244.0,-101.0,-719.0,-642.0
-31.0,-187.0,-148.0,-47.0,-246.0,234.0,-101.0,-719.0,-652.0
-30.0,-188.0,-151.0,-51.0,-237.0,225.0,-100.0,-718.0,-641.0
-35.0,-191.0,-145.0,-57.0,-229.0,213.0,-109.0,-724.0,-640.0
-35.0,-197.0,-146.0,-56.0,-223.0,200.0,-120.0,-724.0,-644.0
-38.0,-191.0,-146.0,-56.0,-223.0,188.0,-129.0,-725.0,-647.0
-41.0,-193.0,-148.0,-56.0,-222.0,175.0,-138.0,-725.0,-653.0
-41.0,-192.0,-151.0,-57.0,-222.0,160.0,-149.0,-727.0,-652.0
-43.0,-195.0,-148.0,-58.0,-223.0,149.0,-154.0,-729.0,-656.0
-42.0,-184.0,-146.0,-59.0,-225.0,138.0,-166.0,-729.0,-660.0
-47.0,-189.0,-145.0,-61.0,-225.0,129.0,-171.0,-734.0,-661.0
-48.0,-199.0,-124.0,-62.0,-223.0,116.0,-182.0,-733.0,-661.0
-63.0,-193.0,-155.0,-63.0,-219.0,105.0,-187.0,-725.0,-659.0
-53.0,-196.0,-158.0,-61.0,-215.0,93.0,-193.0,-730.0,-657.0
-78.0,-188.0,-176.0,-54.0,-212.0,83.0,-192.0,-730.0,-658.0
-58.0,-194.0,-145.0,-48.0,-210.0,72.0,-201.0,-729.0,-654.0
-54.0,-176.0,-150.0,-41.0,-207.0,63.0,-201.0,-730.0,-645.0
-61.0,-189.0,-145.0,-33.0,-200.0,52.0,-203.0,-720.0,-640.0
-58.0,-186.0,-141.0,-24.0,-192.0,43.0,-203.0,-722.0,-637.0
-52.0,-177.0,-141.0,-17.0,-183.0,33.0,-197.0,-718.0,-634.0
-54.0,-188.0,-145.0,-11.0,-170.0,24.0,-201.0,-714.0,-632.0
-53.0,-187.0,-143.0,-2.0,-155.0,17.0,-190.0,-719.0,-621.0
-50.0,-187.0,-143.0,3.0,-138.0,9.0,-188.0,-720.0,-620.0
-48.0,-187.0,-145.0,6.0,-120.0,3.0,-180.0,-715.0,-614.0
-46.0,-191.0,-141.0,9.0,-103.0,-6.0,-165.0,-718.0,-617.0
-48.0,-182.0,-138.0,10.0,-86.0,-13.0,-163.0,-718.0,-608.0
-46.0,-187.0,-137.0,11.0,-69.0,-18.0,-159.0,-718.0,-603.0
-42.0,-180.0,-139.0,9.0,-56.0,-24.0,-161.0,-721.0,-604.0
-38.0,-193.0,-140.0,6.0,-43.0,-27.0,-153.0,-721.0,-601.0
-45.0,-187.0,-135.0,0.0,-32.0,-31.0,-153.0,-723.0,-600.0
-43.0,-188.0,-135.0,-6.0,-23.0,-35.0,-149.0,-726.0,-593.0
-41.0,-191.0,-136.0,-13.0,-14.0,-38.0,-153.0,-727.0,-590.0
-46.0,-188.0,-137.0,-23.0,-1.0,-43.0,-149.0,-729.0,-586.0
-43.0,-189.0,-137.0,-32.0,11.0,-48.0,-148.0,-727.0,-590.0
-45.0,-188.0,-135.0,-44.0,24.0,-51.0,-152.0,-732.0,-592.0
-43.0,-190.0,-137.0,-59.0,37.0,-59.0,-153.0,-732.0,-592.0
-46.0,-192.0,-136.0,-72.0,49.0,-64.0,-158.0,-738.0,-592.0
-46.0,-193.0,-136.0,-88.0,59.0,-70.0,-163.0,-748.0,-597.0
-48.0,-202.0,-142.0,-107.0,69.0,-75.0,-172.0,-755.0,-604.0
-50.0,-199.0,-139.0,-125.0,81.0,-80.0,-173.0,-765.0,-603.0
-49.0,-200.0,-139.0,-141.0,95.0,-86.0,-173.0,-781.0,-610.0
-50.0,-203.0,-143.0,-154.0,107.0,-91.0,-183.0,-787.0,-614.0
-52.0,-207.0,-142.0,-164.0,119.0,-99.0,-185.0,-790.0,-612.0
-51.0,-209.0,-143.0,-171.0,131.0,-106.0,-190.0,-801.0,-625.0
-51.0,-212.0,-143.0,-175.0,142.0,-114.0,-190.0,-811.0,-631.0
-52.0,-212.0,-145.0,-172.0,154.0,-121.0,-186.0,-819.0,-631.0
-55.0,-212.0,-140.0,-166.0,164.0,-130.0,-189.0,-827.0,-632.0
-50.0,-218.0,-140.0,-155.0,171.0,-137.0,-187.0,-834.0,-630.0
-55.0,-214.0,-147.0,-139.0,176.0,-144.0,-182.0,-830.0,-631.0
-52.0,-217.0,-146.0,-117.0,178.0,-150.0,-184.0,-834.0,-631.0
-51.0,-216.0,-143.0,-93.0,178.0,-155.0,-184.0,-829.0,-630.0
-51.0,-216.0,-141.0,-66.0,177.0,-158.0,-181.0,-818.0,-629.0
-53.0,-209.0,-145.0,-36.0,176.0,-159.0,-180.0,-810.0,-627.0
-50.0,-209.0,-144.0,-13.0,175.0,-159.0,-187.0,-801.0,-629.0
-54.0,-205.0,-143.0,5.0,175.0,-157.0,-185.0,-794.0,-630.0
-51.0,-205.0,-146.0,15.0,173.0,-155.0,-189.0,-782.0,-625.0
-57.0,-196.0,-143.0,17.0,173.0,-153.0,-192.0,-762.0,-626.0
-56.0,-196.0,-146.0,11.0,172.0,-150.0,-195.0,-763.0,-625.0
-56.0,-192.0,-146.0,-1.0,174.0,-147.0,-195.0,-758.0,-626.0
-56.0,-196.0,-139.0,-15.0,176.0,-146.0,-190.0,-749.0,-619.0
-52.0,-193.0,-142.0,-29.0,178.0,-146.0,-184.0,-749.0,-627.0
-51.0,-193.0,-148.0,-49.0,183.0,-142.0,-179.0,-752.0,-632.0
-46.0,-195.0,-146.0,-69.0,193.0,-142.0,-168.0,-747.0,-637.0
-47.0,-196.0,-147.0,-90.0,205.0,-137.0,-172.0,-756.0,-642.0
-52.0,-200.0,-142.0,-112.0,213.0,-130.0,-173.0,-774.0,-636.0
-58.0,-205.0,-146.0,-129.0,215.0,-118.0,-193.0,-792.0,-631.0
-57.0,-210.0,-147.0,-140.0,209.0,-103.0,-205.0,-817.0,-630.0
-60.0,-216.0,-147.0,-148.0,195.0,-85.0,-214.0,-841.0,-629.0
-63.0,-224.0,-147.0,-153.0,179.0,-67.0,-214.0,-857.0,-635.0
-58.0,-230.0,-146.0,-161.0,165.0,-53.0,-206.0,-876.0,-642.0
-56.0,-231.0,-148.0,-169.0,156.0,-44.0,-194.0,-889.0,-647.0
-51.0,-231.0,-150.0,-176.0,145.0,-39.0,-182.0,-891.0,-646.0
-49.0,-229.0,-151.0,-181.0,136.0,-40.0,-160.0,-883.0,-659.0
-44.0,-229.0,-154.0,-183.0,126.0,-44.0,-147.0,-876.0,-661.0
-37.0,-225.0,-156.0,-182.0,121.0,-50.0,-128.0,-879.0,-676.0
-31.0,-232.0,-156.0,-181.0,115.0,-56.0,-104.0,-866.0,-691.0
-31.0,-229.0,-157.0,-184.0,111.0,-60.0,-99.0,-877.0,-703.0
-30.0,-231.0,-164.0,-190.0,109.0,-56.0,-96.0,-880.0,-708.0
-32.0,-232.0,-165.0,-196.0,106.0,-51.0,-98.0,-884.0,-713.0
-34.0,-231.0,-164.0,-198.0,105.0,-42.0,-105.0,-878.0,-713.0
-36.0,-231.0,-162.0,-192.0,104.0,-30.0,-123.0,-875.0,-712.0
-41.0,-229.0,-165.0,-175.0,99.0,-16.0,-137.0,-868.0,-717.0
-46.0,-226.0,-161.0,-148.0,91.0,0.0,-155.0,-853.0,-706.0
-51.0,-221.0,-156.0,-107.0,80.0,20.0,-179.0,-842.0,-703.0
-57.0,-217.0,-158.0,-59.0,67.0,40.0,-195.0,-835.0,-693.0
-63.0,-213.0,-154.0,-12.0,53.0,56.0,-214.0,-818.0,-691.0
-70.0,-212.0,-160.0,29.0,38.0,70.0,-238.0,-809.0,-679.0
-70.0,-204.0,-155.0,56.0,17.0,78.0,-253.0,-803.0,-675.0
-74.0,-206.0,-156.0,67.0,-5.0,80.0,-269.0,-798.0,-677.0
-80.0,-203.0,-151.0,60.0,-29.0,76.0,-281.0,-793.0,-678.0
-80.0,-201.0,-154.0,34.0,-51.0,69.0,-296.0,-795.0,-677.0
-83.0,-205.0,-154.0,-2.0,-72.0,62.0,-308.0,-802.0,-678.0
-86.0,-209.0,-156.0,-49.0,-92.0,53.0,-314.0,-808.0,-681.0
-82.0,-212.0,-160.0,-96.0,-110.0,44.0,-310.0,-824.0,-684.0
-85.0,-215.0,-161.0,-143.0,-127.0,38.0,-314.0,-837.0,-691.0
-84.0,-219.0,-163.0,-181.0,-140.0,32.0,-316.0,-847.0,-702.0
-83.0,-224.0,-163.0,-217.0,-151.0,28.0,-310.0,-862.0,-721.0
-84.0,-225.0,-172.0,-246.0,-153.0,24.0,-313.0,-870.0,-735.0
-85.0,-230.0,-176.0,-273.0,-154.0,19.0,-312.0,-888.0,-755.0
-85.0,-231.0,-180.0,-298.0,-149.0,17.0,-305.0,-893.0,-783.0
-78.0,-234.0,-185.0,-322.0,-140.0,18.0,-293.0,-898.0,-802.0
-75.0,-236.0,-193.0,-344.0,-123.0,18.0,-279.0,-902.0,-834.0
-73.0,-236.0,-201.0,-367.0,-100.0,18.0,-272.0,-910.0,-865.0
-72.0,-236.0,-209.0,-384.0,-71.0,14.0,-262.0,-915.0,-899.0
-66.0,-241.0,-217.0,-394.0,-40.0,8.0,-253.0,-915.0,-928.0
-65.0,-243.0,-222.0,-392.0,-4.0,-4.0,-247.0,-917.0,-953.0
-65.0,-245.0,-228.0,-381.0,36.0,-17.0,-238.0,-929.0,-976.0
-65.0,-248.0,-232.0,-355.0,76.0,-29.0,-234.0,-931.0,-989.0
-60.0,-252.0,-227.0,-313.0,119.0,-37.0,-233.0,-940.0,-1001.0
-61.0,-252.0,-240.0,-261.0,160.0,-43.0,-227.0,-949.0,-1009.0
-61.0,-250.0,-237.0,-204.0,203.0,-49.0,-216.0,-951.0,-1013.0
-62.0,-249.0,-234.0,-163.0,241.0,-53.0,-215.0,-944.0,-1006.0
-60.0,-243.0,-231.0,-118.0,275.0,-57.0,-209.0,-930.0,-999.0
-57.0,-239.0,-227.0,-88.0,297.0,-63.0,-206.0,-916.0,-980.0
-54.0,-236.0,-225.0,-72.0,318.0,-72.0,-195.0,-907.0,-974.0
-54.0,-232.0,-223.0,-72.0,336.0,-78.0,-198.0,-883.0,-963.0
-53.0,-225.0,-222.0,-84.0,350.0,-88.0,-193.0,-868.0,-950.0
-53.0,-225.0,-218.0,-104.0,359.0,-97.0,-190.0,-859.0,-948.0
-58.0,-221.0,-218.0,-130.0,362.0,-105.0,-196.0,-851.0,-940.0
-57.0,-222.0,-212.0,-160.0,360.0,-112.0,-194.0,-844.0,-930.0
-55.0,-217.0,-215.0,-186.0,356.0,-116.0,-194.0,-844.0,-924.0
-57.0,-216.0,-212.0,-205.0,351.0,-120.0,-191.0,-839.0,-918.0
-54.0,-217.0,-209.0,-212.0,344.0,-122.0,-188.0,-825.0,-908.0
-51.0,-218.0,-206.0,-209.0,335.0,-122.0,-178.0,-823.0,-900.0
-50.0,-212.0,-203.0,-194.0,327.0,-119.0,-175.0,-815.0,-884.0
-48.0,-213.0,-203.0,-171.0,324.0,-116.0,-166.0,-803.0,-874.0
-44.0,-208.0,-200.0,-139.0,322.0,-113.0,-154.0,-791.0,-858.0
-39.0,-202.0,-197.0,-103.0,326.0,-108.0,-140.0,-773.0,-850.0
-36.0,-197.0,-195.0,-63.0,332.0,-107.0,-120.0,-747.0,-830.0
-33.0,-190.0,-188.0,-24.0,339.0,-104.0,-103.0,-726.0,-815.0
-27.0,-183.0,-186.0,13.0,346.0,-101.0,-87.0,-701.0,-797.0
-21.0,-179.0,-180.0,44.0,355.0,-98.0,-69.0,-675.0,-789.0
-19.0,-172.0,-177.0,66.0,360.0,-93.0,-62.0,-639.0,-777.0
-16.0,-163.0,-176.0,78.0,366.0,-85.0,-42.0,-622.0,-770.0
-10.0,-159.0,-174.0,80.0,376.0,-80.0,-32.0,-588.0,-760.0
-6.0,-156.0,-170.0,72.0,387.0,-74.0,-18.0,-574.0,-758.0
-4.0,-149.0,-177.0,60.0,402.0,-71.0,-7.0,-567.0,-750.0
0.0,-151.0,-170.0,45.0,420.0,-69.0,10.0,-554.0,-746.0
1.0,-145.0,-171.0,30.0,442.0,-66.0,19.0,-547.0,-748.0
3.0,-143.0,-174.0,16.0,468.0,-68.0,32.0,-549.0,-744.0
5.0,-147.0,-172.0,2.0,498.0,-72.0,41.0,-547.0,-750.0
7.0,-147.0,-175.0,-11.0,530.0,-78.0,46.0,-547.0,-762.0
7.0,-148.0,-174.0,-24.0,562.0,-88.0,46.0,-562.0,-765.0
8.0,-154.0,-175.0,-30.0,590.0,-96.0,46.0,-566.0,-756.0
9.0,-156.0,-176.0,-31.0,610.0,-105.0,40.0,-582.0,-764.0
5.0,-158.0,-175.0,-27.0,625.0,-115.0,38.0,-589.0,-766.0
4.0,-161.0,-177.0,-14.0,636.0,-125.0,36.0,-611.0,-763.0
2.0,-169.0,-176.0,4.0,646.0,-134.0,27.0,-638.0,-767.0
2.0,-174.0,-178.0,26.0,651.0,-143.0,20.0,-648.0,-770.0
1.0,-176.0,-175.0,48.0,653.0,-151.0,21.0,-663.0,-769.0
0.0,-180.0,-180.0,67.0,648.0,-159.0,16.0,-675.0,-769.0
-1.0,-182.0,-176.0,91.0,637.0,-163.0,13.0,-688.0,-771.0
-6.0,-184.0,-181.0,114.0,621.0,-166.0,8.0,-698.0,-775.0
-4.0,-187.0,-179.0,134.0,598.0,-167.0,7.0,-708.0,-776.0
-6.0,-188.0,-178.0,150.0,573.0,-165.0,10.0,-714.0,-769.0
-4.0,-192.0,-176.0,164.0,543.0,-163.0,4.0,-728.0,-767.0
-7.0,-194.0,-172.0,179.0,511.0,-159.0,3.0,-739.0,-754.0
-6.0,-198.0,-169.0,194.0,477.0,-153.0,-3.0,-745.0,-747.0
-6.0,-197.0,-165.0,211.0,441.0,-146.0,0.0,-749.0,-731.0
-9.0,-199.0,-162.0,230.0,404.0,-140.0,-17.0,-758.0,-721.0
-11.0,-200.0,-158.0,250.0,367.0,-132.0,-23.0,-750.0,-707.0
-14.0,-198.0,-160.0,272.0,332.0,-123.0,-27.0,-754.0,-696.0
-14.0,-200.0,-155.0,295.0,299.0,-115.0,-34.0,-752.0,-685.0
-15.0,-198.0,-151.0,320.0,273.0,-107.0,-45.0,-748.0,-675.0
-17.0,-190.0,-151.0,344.0,252.0,-99.0,-48.0,-729.0,-665.0
-18.0,-188.0,-150.0,369.0,238.0,-94.0,-45.0,-724.0,-654.0
-18.0,-187.0,-148.0,394.0,224.0,-91.0,-53.0,-706.0,-652.0
-18.0,-184.0,-148.0,417.0,212.0,-87.0,-54.0,-694.0,-647.0
-19.0,-184.0,-148.0,437.0,199.0,-84.0,-51.0,-688.0,-640.0
-20.0,-179.0,-147.0,452.0,186.0,-83.0,-51.0,-676.0,-639.0
-17.0,-175.0,-146.0,463.0,174.0,-81.0,-50.0,-667.0,-642.0
-16.0,-175.0,-149.0,466.0,162.0,-81.0,-46.0,-658.0,-641.0
-14.0,-173.0,-150.0,463.0,151.0,-82.0,-43.0,-650.0,-648.0
-15.0,-169.0,-150.0,456.0,145.0,-82.0,-33.0,-643.0,-658.0
-13.0,-169.0,-154.0,447.0,142.0,-81.0,-31.0,-638.0,-664.0
-9.0,-167.0,-154.0,436.0,145.0,-81.0,-24.0,-637.0,-669.0
-8.0,-165.0,-152.0,425.0,149.0,-83.0,-17.0,-633.0,-673.0
-6.0,-166.0,-155.0,416.0,158.0,-85.0,-2.0,-632.0,-681.0
-1.0,-168.0,-154.0,405.0,168.0,-85.0,5.0,-633.0,-678.0
-3.0,-165.0,-151.0,395.0,181.0,-88.0,15.0,-644.0,-673.0
1.0,-170.0,-156.0,386.0,195.0,-89.0,25.0,-643.0,-665.0
1.0,-170.0,-154.0,376.0,213.0,-93.0,35.0,-645.0,-669.0
4.0,-174.0,-150.0,371.0,233.0,-95.0,43.0,-662.0,-667.0
6.0,-174.0,-151.0,366.0,252.0,-97.0,42.0,-668.0,-658.0
6.0,-177.0,-149.0,366.0,271.0,-99.0,50.0,-676.0,-653.0
9.0,-183.0,-146.0,368.0,288.0,-103.0,54.0,-685.0,-640.0
5.0,-183.0,-144.0,372.0,300.0,-109.0,50.0,-694.0,-635.0
6.0,-186.0,-145.0,379.0,310.0,-111.0,52.0,-706.0,-631.0
5.0,-187.0,-143.0,386.0,318.0,-116.0,51.0,-720.0,-623.0
5.0,-191.0,-143.0,395.0,321.0,-120.0,38.0,-727.0,-620.0
2.0,-191.0,-143.0,404.0,320.0,-124.0,38.0,-732.0,-609.0
0.0,-193.0,-140.0,414.0,317.0,-127.0,23.0,-735.0,-615.0
-3.0,-194.0,-142.0,422.0,309.0,-127.0,17.0,-735.0,-611.0
-5.0,-195.0,-140.0,427.0,296.0,-128.0,13.0,-742.0,-606.0
-7.0,-194.0,-139.0,429.0,277.0,-128.0,-1.0,-740.0,-607.0
-10.0,-194.0,-142.0,430.0,259.0,-129.0,-7.0,-741.0,-610.0
