acc1_x,acc1_y,acc1_z,gyro_x,gyro_y,gyro_z,acc2_x,acc2_y,acc2_z
-11.0,-237.0,-96.0,-5.0,68.0,-4.0,-12.0,-909.0,-458.0
-10.0,-236.0,-101.0,-7.0,68.0,-3.0,-9.0,-907.0,-458.0
-11.0,-240.0,-101.0,-9.0,67.0,-3.0,-10.0,-910.0,-456.0
-7.0,-239.0,-100.0,-11.0,67.0,-4.0,-11.0,-906.0,-452.0
-11.0,-236.0,-99.0,-14.0,68.0,-4.0,-6.0,-906.0,-459.0
-20.0,-235.0,-100.0,-17.0,68.0,-5.0,-6.0,-909.0,-454.0
-8.0,-238.0,-100.0,-18.0,69.0,-6.0,-7.0,-907.0,-453.0
-8.0,-238.0,-101.0,-20.0,70.0,-5.0,-8.0,-903.0,-458.0
-7.0,-238.0,-102.0,-21.0,69.0,-3.0,-6.0,-903.0,-453.0
-8.0,-236.0,-101.0,-20.0,71.0,-3.0,-5.0,-904.0,-457.0
-9.0,-239.0,-101.0,-19.0,71.0,-4.0,-10.0,-907.0,-456.0
-8.0,-239.0,-101.0,-18.0,72.0,-2.0,-11.0,-904.0,-459.0
-6.0,-239.0,-101.0,-17.0,73.0,-3.0,-11.0,-903.0,-460.0
-5.0,-238.0,-101.0,-15.0,74.0,-3.0,-9.0,-910.0,-458.0
-7.0,-237.0,-98.0,-13.0,74.0,-2.0,-6.0,-905.0,-458.0
-12.0,-233.0,-100.0,-11.0,73.0,-2.0,-3.0,-904.0,-455.0
-9.0,-239.0,-100.0,-10.0,72.0,-1.0,-9.0,-907.0,-457.0
-8.0,-238.0,-97.0,-11.0,71.0,-2.0,-8.0,-906.0,-459.0
-5.0,-220.0,-105.0,-11.0,72.0,-3.0,-6.0,-911.0,-457.0
-12.0,-241.0,-99.0,-11.0,69.0,-3.0,-10.0,-901.0,-454.0
-5.0,-239.0,-102.0,-14.0,70.0,-2.0,-6.0,-901.0,-460.0
-9.0,-235.0,-98.0,-13.0,69.0,-3.0,-7.0,-907.0,-460.0
-8.0,-237.0,-99.0,-13.0,69.0,-3.0,-6.0,-906.0,-457.0
-7.0,-238.0,-103.0,-13.0,68.0,-3.0,-4.0,-902.0,-458.0
-8.0,-238.0,-101.0,-13.0,68.0,-4.0,-10.0,-909.0,-460.0
-8.0,-236.0,-107.0,-11.0,66.0,-6.0,-9.0,-905.0,-457.0
-8.0,-239.0,-102.0,-11.0,66.0,-5.0,-9.0,-905.0,-458.0
-9.0,-240.0,-101.0,-9.0,65.0,-6.0,-9.0,-900.0,-456.0
-7.0,-236.0,-100.0,-8.0,65.0,-5.0,-7.0,-906.0,-459.0
-12.0,-236.0,-100.0,-8.0,65.0,-6.0,-10.0,-907.0,-460.0
-10.0,-238.0,-98.0,-8.0,64.0,-7.0,-8.0,-905.0,-461.0
-11.0,-236.0,-101.0,-9.0,65.0,-6.0,-5.0,-905.0,-457.0
-10.0,-236.0,-100.0,-10.0,65.0,-5.0,-14.0,-909.0,-457.0
-12.0,-236.0,-100.0,-10.0,64.0,-5.0,-11.0,-912.0,-458.0
-10.0,-237.0,-104.0,-10.0,64.0,-5.0,-9.0,-910.0,-461.0
-7.0,-240.0,-100.0,-11.0,66.0,-4.0,-10.0,-911.0,-460.0
-10.0,-238.0,-101.0,-10.0,68.0,-2.0,-10.0,-909.0,-459.0
-9.0,-235.0,-105.0,-9.0,68.0,-4.0,-10.0,-906.0,-458.0
-9.0,-237.0,-101.0,-9.0,69.0,-3.0,-12.0,-908.0,-458.0
-11.0,-239.0,-98.0,-6.0,70.0,-4.0,-12.0,-905.0,-463.0
-8.0,-238.0,-102.0,-6.0,70.0,-2.0,-14.0,-904.0,-460.0
-9.0,-238.0,-100.0,-4.0,70.0,-2.0,-9.0,-905.0,-460.0
-8.0,-239.0,-101.0,-3.0,71.0,-3.0,-16.0,-906.0,-457.0
-8.0,-238.0,-100.0,-3.0,70.0,-2.0,-10.0,-908.0,-453.0
-12.0,-236.0,-103.0,-4.0,71.0,-1.0,-5.0,-907.0,-458.0
-6.0,-237.0,-101.0,-4.0,71.0,-1.0,-9.0,-909.0,-459.0
-11.0,-237.0,-98.0,-6.0,71.0,-1.0,-11.0,-910.0,-452.0
-10.0,-239.0,-102.0,-6.0,70.0,-2.0,-11.0,-906.0,-449.0
-10.0,-238.0,-92.0,-6.0,69.0,0.0,-10.0,-909.0,-456.0
-11.0,-236.0,-99.0,-8.0,68.0,-2.0,-15.0,-904.0,-453.0
-11.0,-236.0,-104.0,-7.0,69.0,-2.0,-9.0,-910.0,-461.0
-9.0,-238.0,-103.0,-8.0,69.0,-2.0,-14.0,-905.0,-460.0
-10.0,-237.0,-99.0,-8.0,69.0,-2.0,-13.0,-905.0,-458.0
-9.0,-238.0,-99.0,-8.0,70.0,-2.0,-13.0,-909.0,-456.0
-8.0,-238.0,-100.0,-8.0,69.0,-2.0,-14.0,-908.0,-457.0
-10.0,-240.0,-104.0,-8.0,70.0,-3.0,-6.0,-902.0,-455.0
-7.0,-235.0,-99.0,-8.0,70.0,-1.0,-10.0,-908.0,-455.0
-10.0,-236.0,-98.0,-8.0,70.0,-3.0,-11.0,-907.0,-459.0
-8.0,-240.0,-96.0,-9.0,71.0,-2.0,-6.0,-907.0,-456.0
-7.0,-240.0,-100.0,-10.0,72.0,-2.0,-10.0,-907.0,-455.0
-8.0,-239.0,-101.0,-12.0,70.0,-2.0,-8.0,-906.0,-460.0
-6.0,-238.0,-101.0,-14.0,71.0,-2.0,-9.0,-905.0,-461.0
-9.0,-236.0,-101.0,-15.0,71.0,-1.0,-10.0,-906.0,-456.0
-10.0,-235.0,-99.0,-16.0,71.0,-2.0,-8.0,-905.0,-455.0
-10.0,-237.0,-102.0,-15.0,71.0,-2.0,-4.0,-901.0,-462.0
-9.0,-240.0,-98.0,-16.0,71.0,-2.0,-11.0,-899.0,-460.0
-7.0,-237.0,-102.0,-17.0,71.0,-2.0,-11.0,-904.0,-459.0
-10.0,-235.0,-100.0,-16.0,72.0,-3.0,-8.0,-903.0,-461.0
-9.0,-237.0,-100.0,-17.0,71.0,-2.0,-11.0,-905.0,-457.0
-9.0,-237.0,-102.0,-15.0,72.0,-2.0,-7.0,-908.0,-453.0
-7.0,-229.0,-99.0,-14.0,70.0,-3.0,-5.0,-910.0,-456.0
-9.0,-236.0,-100.0,-14.0,70.0,-4.0,-2.0,-909.0,-458.0
-10.0,-237.0,-100.0,-13.0,70.0,-5.0,-7.0,-910.0,-457.0
-8.0,-240.0,-103.0,-13.0,69.0,-4.0,-10.0,-904.0,-456.0
-8.0,-237.0,-100.0,-12.0,69.0,-4.0,-11.0,-913.0,-458.0
-8.0,-236.0,-102.0,-11.0,70.0,-4.0,-3.0,-909.0,-455.0
-9.0,-238.0,-99.0,-10.0,69.0,-5.0,-12.0,-910.0,-452.0
-7.0,-239.0,-99.0,-10.0,69.0,-5.0,-6.0,-909.0,-455.0
-10.0,-239.0,-104.0,-9.0,68.0,-5.0,-8.0,-910.0,-455.0
-10.0,-239.0,-99.0,-10.0,69.0,-6.0,-5.0,-911.0,-455.0
-11.0,-238.0,-103.0,-9.0,69.0,-5.0,-9.0,-907.0,-456.0
-8.0,-239.0,-100.0,-8.0,67.0,-4.0,-7.0,-906.0,-455.0
-10.0,-239.0,-96.0,-8.0,68.0,-5.0,-13.0,-907.0,-454.0
-9.0,-237.0,-100.0,-8.0,69.0,-5.0,-10.0,-903.0,-458.0
-7.0,-237.0,-101.0,-7.0,69.0,-4.0,-12.0,-907.0,-457.0
-10.0,-240.0,-99.0,-8.0,69.0,-4.0,-10.0,-905.0,-460.0
-8.0,-238.0,-99.0,-10.0,69.0,-3.0,-9.0,-908.0,-459.0
-9.0,-238.0,-100.0,-11.0,69.0,-4.0,-8.0,-904.0,-456.0
-8.0,-237.0,-97.0,-12.0,69.0,-4.0,-10.0,-908.0,-454.0
-9.0,-235.0,-99.0,-13.0,69.0,-3.0,-12.0,-905.0,-456.0
-7.0,-238.0,-99.0,-14.0,69.0,-3.0,-12.0,-905.0,-456.0
-11.0,-235.0,-102.0,-16.0,69.0,-4.0,-5.0,-907.0,-457.0
-7.0,-238.0,-104.0,-15.0,69.0,-2.0,-8.0,-908.0,-456.0
-10.0,-237.0,-102.0,-15.0,70.0,-2.0,-10.0,-901.0,-456.0
-9.0,-234.0,-101.0,-17.0,70.0,-2.0,-10.0,-903.0,-458.0
-10.0,-239.0,-101.0,-17.0,69.0,-2.0,-11.0,-907.0,-458.0
-7.0,-240.0,-101.0,-18.0,72.0,-4.0,-9.0,-905.0,-459.0
-10.0,-238.0,-104.0,-17.0,71.0,-3.0,-7.0,-905.0,-458.0
-12.0,-236.0,-105.0,-17.0,71.0,-3.0,-5.0,-907.0,-459.0
-9.0,-237.0,-100.0,-17.0,69.0,-2.0,-8.0,-908.0,-455.0
-7.0,-239.0,-100.0,-17.0,70.0,-4.0,-6.0,-904.0,-462.0
-6.0,-237.0,-101.0,-17.0,69.0,-3.0,-9.0,-906.0,-460.0
-10.0,-238.0,-97.0,-17.0,71.0,-4.0,-8.0,-907.0,-466.0
-5.0,-239.0,-101.0,-15.0,70.0,-1.0,-10.0,-909.0,-456.0
-10.0,-237.0,-96.0,-17.0,69.0,-2.0,-13.0,-903.0,-456.0
-11.0,-236.0,-100.0,-15.0,69.0,-4.0,-8.0,-912.0,-460.0
-10.0,-236.0,-102.0,-16.0,68.0,-4.0,-16.0,-906.0,-454.0
-8.0,-237.0,-103.0,-16.0,70.0,-5.0,-5.0,-911.0,-457.0
-11.0,-238.0,-97.0,-17.0,71.0,-5.0,-9.0,-905.0,-461.0
-9.0,-238.0,-101.0,-17.0,68.0,-6.0,-9.0,-911.0,-457.0
-11.0,-237.0,-102.0,-17.0,69.0,-5.0,-7.0,-912.0,-455.0
-8.0,-237.0,-100.0,-18.0,68.0,-5.0,-13.0,-906.0,-459.0
-8.0,-237.0,-99.0,-16.0,68.0,-5.0,-8.0,-912.0,-453.0
-10.0,-236.0,-98.0,-18.0,68.0,-5.0,-7.0,-904.0,-457.0
-9.0,-239.0,-101.0,-17.0,69.0,-4.0,-6.0,-906.0,-458.0
-10.0,-238.0,-102.0,-20.0,69.0,-5.0,-11.0,-911.0,-458.0
-9.0,-240.0,-103.0,-18.0,69.0,-5.0,-8.0,-909.0,-461.0
-10.0,-237.0,-100.0,-16.0,68.0,-6.0,-14.0,-906.0,-455.0
-10.0,-237.0,-99.0,-16.0,68.0,-5.0,-7.0,-907.0,-460.0
-11.0,-237.0,-101.0,-17.0,68.0,-5.0,-5.0,-903.0,-460.0
-10.0,-238.0,-100.0,-17.0,67.0,-4.0,-6.0,-907.0,-460.0
-8.0,-238.0,-97.0,-17.0,67.0,-4.0,-9.0,-910.0,-456.0
-9.0,-236.0,-104.0,-16.0,67.0,-4.0,-8.0,-907.0,-460.0
-7.0,-239.0,-100.0,-17.0,68.0,-4.0,-11.0,-908.0,-460.0
-6.0,-241.0,-97.0,-16.0,69.0,-5.0,-12.0,-908.0,-456.0
-10.0,-235.0,-102.0,-16.0,69.0,-3.0,-5.0,-911.0,-454.0
-7.0,-238.0,-102.0,-17.0,69.0,-3.0,-12.0,-907.0,-458.0
-10.0,-236.0,-101.0,-18.0,68.0,-3.0,-12.0,-904.0,-459.0
-7.0,-242.0,-99.0,-17.0,69.0,-3.0,-9.0,-906.0,-457.0
-10.0,-239.0,-99.0,-16.0,70.0,-3.0,-7.0,-909.0,-459.0
-6.0,-239.0,-100.0,-16.0,69.0,-3.0,-11.0,-911.0,-459.0
-9.0,-238.0,-102.0,-15.0,71.0,-4.0,-6.0,-907.0,-458.0
-9.0,-239.0,-98.0,-15.0,71.0,-3.0,-1.0,-905.0,-454.0
-9.0,-242.0,-99.0,-14.0,69.0,-2.0,-11.0,-909.0,-459.0
-7.0,-237.0,-103.0,-15.0,70.0,-2.0,-6.0,-909.0,-455.0
-6.0,-237.0,-99.0,-15.0,69.0,-3.0,-12.0,-905.0,-456.0
-7.0,-238.0,-101.0,-16.0,69.0,-5.0,-5.0,-908.0,-458.0
-10.0,-237.0,-99.0,-16.0,70.0,-4.0,-4.0,-904.0,-452.0
-7.0,-238.0,-100.0,-16.0,67.0,-4.0,-8.0,-908.0,-457.0
-9.0,-239.0,-99.0,-17.0,67.0,-4.0,-5.0,-907.0,-453.0
-10.0,-241.0,-100.0,-18.0,67.0,-4.0,1.0,-913.0,-453.0
-7.0,-238.0,-99.0,-19.0,69.0,-3.0,-6.0,-909.0,-453.0
-6.0,-241.0,-99.0,-18.0,69.0,-2.0,-8.0,-907.0,-455.0
-11.0,-239.0,-102.0,-16.0,68.0,-2.0,-10.0,-910.0,-453.0
-12.0,-236.0,-102.0,-17.0,70.0,-3.0,-9.0,-906.0,-455.0
-8.0,-238.0,-101.0,-16.0,70.0,-3.0,-12.0,-907.0,-462.0
-11.0,-236.0,-100.0,-15.0,71.0,-2.0,-12.0,-909.0,-460.0
-10.0,-234.0,-101.0,-14.0,70.0,-3.0,-16.0,-908.0,-463.0
-8.0,-238.0,-103.0,-14.0,70.0,-2.0,-11.0,-907.0,-464.0
-9.0,-237.0,-101.0,-13.0,70.0,-3.0,-8.0,-903.0,-464.0
-10.0,-237.0,-102.0,-13.0,72.0,-4.0,-9.0,-898.0,-460.0
-11.0,-235.0,-102.0,-11.0,72.0,-4.0,-9.0,-900.0,-460.0
-9.0,-237.0,-97.0,-13.0,71.0,-4.0,-7.0,-903.0,-462.0
-11.0,-234.0,-102.0,-16.0,70.0,-3.0,-9.0,-901.0,-464.0
-8.0,-238.0,-100.0,-18.0,71.0,-5.0,-3.0,-903.0,-461.0
-8.0,-236.0,-103.0,-19.0,70.0,-5.0,-6.0,-902.0,-461.0
-10.0,-232.0,-103.0,-21.0,70.0,-5.0,-9.0,-903.0,-463.0
-8.0,-239.0,-105.0,-21.0,70.0,-7.0,-7.0,-909.0,-455.0
-9.0,-237.0,-102.0,-20.0,70.0,-6.0,-9.0,-912.0,-455.0
-6.0,-239.0,-99.0,-18.0,69.0,-6.0,-8.0,-906.0,-460.0
-7.0,-241.0,-99.0,-15.0,68.0,-7.0,-5.0,-914.0,-458.0
-9.0,-238.0,-103.0,-13.0,69.0,-6.0,-9.0,-905.0,-463.0
-10.0,-238.0,-100.0,-11.0,70.0,-7.0,-9.0,-906.0,-461.0
-9.0,-236.0,-101.0,-9.0,71.0,-6.0,-10.0,-904.0,-465.0
-8.0,-232.0,-100.0,-7.0,69.0,-6.0,-7.0,-904.0,-464.0
-7.0,-236.0,-101.0,-7.0,71.0,-4.0,-8.0,-906.0,-467.0
-5.0,-238.0,-100.0,-8.0,69.0,-3.0,-8.0,-904.0,-463.0
-4.0,-241.0,-101.0,-8.0,69.0,-3.0,-9.0,-909.0,-462.0
-7.0,-236.0,-101.0,-8.0,68.0,-2.0,-8.0,-908.0,-462.0
-5.0,-237.0,-106.0,-7.0,68.0,0.0,-6.0,-907.0,-465.0
-8.0,-240.0,-102.0,-8.0,67.0,0.0,-10.0,-910.0,-458.0
-8.0,-240.0,-102.0,-9.0,68.0,1.0,-6.0,-908.0,-459.0
-7.0,-240.0,-103.0,-9.0,67.0,2.0,-2.0,-910.0,-453.0
-9.0,-240.0,-100.0,-10.0,66.0,1.0,-12.0,-913.0,-457.0
-8.0,-239.0,-97.0,-10.0,67.0,0.0,-7.0,-910.0,-454.0
-7.0,-239.0,-99.0,-8.0,66.0,0.0,-10.0,-908.0,-455.0
-9.0,-236.0,-101.0,-6.0,65.0,-1.0,-10.0,-906.0,-452.0
-11.0,-234.0,-101.0,-4.0,67.0,-2.0,-11.0,-908.0,-456.0
-11.0,-238.0,-99.0,-2.0,68.0,-2.0,-8.0,-908.0,-454.0
-9.0,-238.0,-108.0,-3.0,67.0,-4.0,-8.0,-907.0,-457.0
-8.0,-237.0,-103.0,-2.0,67.0,-3.0,-10.0,-905.0,-453.0
-5.0,-238.0,-99.0,-3.0,68.0,-3.0,-10.0,-903.0,-451.0
-9.0,-237.0,-103.0,-4.0,68.0,-5.0,-13.0,-909.0,-456.0
-10.0,-237.0,-99.0,-5.0,68.0,-4.0,-6.0,-905.0,-457.0
-6.0,-238.0,-99.0,-6.0,68.0,-2.0,-8.0,-906.0,-456.0
-4.0,-238.0,-102.0,-7.0,68.0,-3.0,-9.0,-908.0,-452.0
-9.0,-238.0,-100.0,-8.0,69.0,-3.0,-9.0,-906.0,-460.0
-9.0,-236.0,-101.0,-9.0,69.0,-3.0,-10.0,-906.0,-461.0
-9.0,-240.0,-103.0,-10.0,69.0,-3.0,-7.0,-906.0,-456.0
-6.0,-241.0,-100.0,-10.0,69.0,-1.0,-7.0,-905.0,-462.0
-9.0,-238.0,-97.0,-11.0,70.0,-1.0,-9.0,-908.0,-463.0
-9.0,-238.0,-101.0,-10.0,70.0,-1.0,-7.0,-903.0,-461.0
-6.0,-238.0,-99.0,-10.0,69.0,-1.0,-7.0,-909.0,-454.0
-5.0,-236.0,-98.0,-10.0,68.0,-3.0,-11.0,-911.0,-454.0
-7.0,-237.0,-95.0,-12.0,69.0,-1.0,-6.0,-907.0,-458.0
-11.0,-236.0,-98.0,-9.0,69.0,-2.0,-7.0,-905.0,-459.0
-10.0,-238.0,-101.0,-10.0,68.0,-2.0,-6.0,-906.0,-458.0
-7.0,-236.0,-102.0,-10.0,66.0,0.0,-8.0,-910.0,-455.0
-5.0,-240.0,-101.0,-10.0,67.0,-1.0,-7.0,-909.0,-452.0
-8.0,-235.0,-95.0,-10.0,67.0,-1.0,-11.0,-912.0,-457.0
-8.0,-238.0,-97.0,-9.0,67.0,-2.0,-11.0,-906.0,-458.0
-11.0,-236.0,-104.0,-9.0,66.0,-2.0,-5.0,-904.0,-456.0
-7.0,-238.0,-103.0,-10.0,67.0,-2.0,-11.0,-907.0,-454.0
-7.0,-236.0,-104.0,-10.0,67.0,-1.0,-9.0,-908.0,-453.0
-7.0,-241.0,-100.0,-11.0,68.0,-1.0,-8.0,-905.0,-456.0
-7.0,-238.0,-103.0,-10.0,68.0,-2.0,-8.0,-903.0,-454.0
-11.0,-236.0,-101.0,-12.0,66.0,-3.0,-8.0,-910.0,-452.0
-10.0,-236.0,-101.0,-13.0,67.0,-2.0,-8.0,-909.0,-455.0
-7.0,-239.0,-100.0,-13.0,66.0,-1.0,-5.0,-905.0,-461.0
-8.0,-236.0,-98.0,-13.0,67.0,-2.0,-9.0,-908.0,-454.0
-11.0,-238.0,-102.0,-14.0,65.0,-2.0,-16.0,-909.0,-451.0
-11.0,-241.0,-98.0,-16.0,66.0,-3.0,-8.0,-909.0,-452.0
-9.0,-237.0,-102.0,-16.0,66.0,-2.0,-12.0,-905.0,-452.0
-11.0,-235.0,-97.0,-16.0,68.0,-1.0,-9.0,-906.0,-456.0
-9.0,-239.0,-94.0,-16.0,69.0,-2.0,-6.0,-905.0,-460.0
-10.0,-237.0,-99.0,-15.0,69.0,-1.0,-12.0,-905.0,-457.0
-9.0,-236.0,-100.0,-15.0,70.0,0.0,-6.0,-907.0,-456.0
-6.0,-236.0,-101.0,-14.0,70.0,-1.0,-13.0,-901.0,-458.0
-10.0,-236.0,-102.0,-14.0,70.0,-1.0,-10.0,-905.0,-457.0
-8.0,-236.0,-101.0,-13.0,69.0,-2.0,-7.0,-906.0,-456.0
-10.0,-238.0,-102.0,-13.0,70.0,-1.0,-11.0,-905.0,-460.0
-9.0,-238.0,-100.0,-12.0,69.0,0.0,-6.0,-906.0,-461.0
-8.0,-234.0,-105.0,-12.0,69.0,-1.0,-5.0,-908.0,-458.0
-9.0,-240.0,-101.0,-12.0,69.0,-1.0,-10.0,-903.0,-458.0
-8.0,-239.0,-100.0,-15.0,68.0,-1.0,-11.0,-908.0,-459.0
-9.0,-240.0,-99.0,-16.0,67.0,-1.0,-9.0,-908.0,-457.0
-9.0,-239.0,-102.0,-18.0,68.0,-1.0,-7.0,-905.0,-461.0
-11.0,-235.0,-101.0,-18.0,67.0,-1.0,-14.0,-908.0,-456.0
-7.0,-239.0,-99.0,-19.0,68.0,-2.0,-12.0,-911.0,-453.0
-11.0,-238.0,-101.0,-18.0,67.0,-2.0,-9.0,-909.0,-454.0
-11.0,-237.0,-98.0,-17.0,67.0,-2.0,-10.0,-912.0,-455.0
-10.0,-238.0,-101.0,-16.0,68.0,-1.0,-9.0,-907.0,-460.0
-9.0,-236.0,-102.0,-16.0,70.0,-2.0,-14.0,-903.0,-462.0
-9.0,-238.0,-99.0,-14.0,68.0,-2.0,-9.0,-908.0,-458.0
-7.0,-238.0,-103.0,-15.0,69.0,-3.0,-10.0,-900.0,-459.0
-10.0,-235.0,-101.0,-14.0,69.0,0.0,-11.0,-910.0,-456.0
-4.0,-240.0,-100.0,-14.0,70.0,-3.0,-7.0,-904.0,-456.0
-9.0,-238.0,-102.0,-15.0,70.0,0.0,-3.0,-909.0,-461.0
-11.0,-238.0,-102.0,-16.0,71.0,0.0,-9.0,-903.0,-454.0
-9.0,-238.0,-103.0,-15.0,70.0,-1.0,-6.0,-906.0,-458.0
-9.0,-237.0,-102.0,-17.0,71.0,0.0,-15.0,-904.0,-463.0
-10.0,-235.0,-101.0,-19.0,72.0,-1.0,-12.0,-904.0,-459.0
-10.0,-236.0,-100.0,-18.0,70.0,-2.0,-12.0,-909.0,-462.0
-10.0,-237.0,-98.0,-18.0,70.0,-1.0,-10.0,-907.0,-454.0
-9.0,-236.0,-104.0,-18.0,70.0,-1.0,-6.0,-906.0,-453.0
-9.0,-239.0,-101.0,-17.0,69.0,-1.0,-15.0,-908.0,-459.0
-7.0,-234.0,-102.0,-15.0,69.0,-1.0,-7.0,-907.0,-458.0
-10.0,-239.0,-98.0,-16.0,70.0,-2.0,-10.0,-905.0,-456.0
-8.0,-235.0,-105.0,-16.0,68.0,-3.0,-8.0,-909.0,-461.0
-9.0,-234.0,-101.0,-14.0,67.0,-4.0,-8.0,-908.0,-457.0
-7.0,-239.0,-101.0,-13.0,68.0,-4.0,-9.0,-909.0,-463.0
-8.0,-239.0,-102.0,-13.0,66.0,-4.0,-4.0,-909.0,-457.0
-8.0,-238.0,-102.0,-14.0,67.0,-4.0,-5.0,-902.0,-460.0
-10.0,-237.0,-102.0,-13.0,68.0,-3.0,-11.0,-911.0,-456.0
-9.0,-236.0,-100.0,-13.0,65.0,-4.0,-10.0,-907.0,-459.0
-8.0,-240.0,-101.0,-13.0,66.0,-2.0,-13.0,-905.0,-456.0
-7.0,-237.0,-101.0,-14.0,67.0,-3.0,-4.0,-907.0,-451.0
-8.0,-241.0,-100.0,-14.0,66.0,-3.0,-7.0,-912.0,-452.0
-8.0,-237.0,-101.0,-13.0,67.0,-3.0,-9.0,-911.0,-456.0
-7.0,-238.0,-101.0,-14.0,67.0,-4.0,-9.0,-907.0,-457.0
-13.0,-234.0,-98.0,-13.0,68.0,-2.0,-6.0,-908.0,-457.0
-11.0,-239.0,-103.0,-12.0,70.0,-2.0,-12.0,-909.0,-459.0
-9.0,-236.0,-102.0,-12.0,68.0,-3.0,-10.0,-913.0,-457.0
-11.0,-236.0,-98.0,-11.0,69.0,-2.0,-13.0,-906.0,-459.0
-9.0,-238.0,-103.0,-10.0,70.0,-1.0,-8.0,-907.0,-460.0
-8.0,-239.0,-98.0,-11.0,70.0,-1.0,-12.0,-910.0,-457.0
-8.0,-237.0,-95.0,-10.0,69.0,0.0,-13.0,-906.0,-460.0
-9.0,-237.0,-105.0,-9.0,69.0,-2.0,-9.0,-906.0,-454.0
-11.0,-237.0,-100.0,-10.0,70.0,-3.0,-9.0,-905.0,-457.0
-8.0,-237.0,-102.0,-10.0,69.0,-2.0,-8.0,-906.0,-455.0
-7.0,-238.0,-101.0,-10.0,69.0,-3.0,-8.0,-908.0,-458.0
-9.0,-237.0,-97.0,-11.0,70.0,-3.0,-12.0,-907.0,-457.0
-11.0,-236.0,-105.0,-11.0,70.0,-3.0,-12.0,-906.0,-458.0
-10.0,-237.0,-98.0,-11.0,71.0,-4.0,-11.0,-907.0,-457.0
-8.0,-238.0,-102.0,-12.0,68.0,-3.0,-10.0,-907.0,-461.0
-7.0,-238.0,-98.0,-12.0,69.0,-3.0,-9.0,-907.0,-457.0
-7.0,-236.0,-98.0,-12.0,69.0,-4.0,-7.0,-904.0,-460.0
-8.0,-237.0,-100.0,-13.0,69.0,-3.0,-13.0,-909.0,-457.0
-8.0,-238.0,-101.0,-13.0,70.0,-3.0,-8.0,-908.0,-450.0
-7.0,-238.0,-103.0,-11.0,70.0,-4.0,-14.0,-908.0,-457.0
-10.0,-238.0,-102.0,-11.0,69.0,-3.0,-8.0,-907.0,-456.0
-11.0,-238.0,-103.0,-10.0,70.0,-5.0,-10.0,-908.0,-457.0
-8.0,-240.0,-101.0,-12.0,70.0,-4.0,-10.0,-907.0,-455.0
-10.0,-236.0,-99.0,-12.0,70.0,-4.0,-4.0,-905.0,-453.0
-8.0,-238.0,-101.0,-13.0,69.0,-4.0,-9.0,-909.0,-454.0
-10.0,-236.0,-99.0,-12.0,69.0,-3.0,-8.0,-908.0,-454.0
-5.0,-241.0,-99.0,-12.0,69.0,-4.0,-6.0,-908.0,-460.0
-11.0,-230.0,-106.0,-12.0,68.0,-4.0,-5.0,-907.0,-457.0
-7.0,-239.0,-104.0,-12.0,70.0,-4.0,-12.0,-908.0,-454.0
-10.0,-239.0,-102.0,-11.0,70.0,-3.0,-14.0,-903.0,-459.0
-9.0,-237.0,-104.0,-13.0,70.0,-5.0,-12.0,-909.0,-459.0
-8.0,-237.0,-101.0,-11.0,70.0,-5.0,-9.0,-906.0,-462.0
-8.0,-237.0,-101.0,-11.0,69.0,-5.0,-5.0,-908.0,-456.0
-9.0,-237.0,-100.0,-10.0,68.0,-4.0,-6.0,-905.0,-457.0
-8.0,-236.0,-103.0,-10.0,70.0,-5.0,-12.0,-908.0,-462.0
-11.0,-234.0,-99.0,-10.0,70.0,-6.0,-5.0,-906.0,-457.0
-10.0,-237.0,-100.0,-10.0,70.0,-5.0,-8.0,-904.0,-459.0
-10.0,-236.0,-100.0,-9.0,70.0,-5.0,-10.0,-904.0,-461.0
-10.0,-239.0,-98.0,-9.0,70.0,-6.0,-8.0,-908.0,-462.0
-9.0,-240.0,-101.0,-9.0,69.0,-6.0,-12.0,-909.0,-464.0
-8.0,-237.0,-105.0,-8.0,68.0,-5.0,-13.0,-905.0,-458.0
-9.0,-239.0,-99.0,-9.0,69.0,-5.0,-6.0,-907.0,-457.0
-9.0,-242.0,-99.0,-8.0,68.0,-5.0,-7.0,-909.0,-456.0
-7.0,-238.0,-103.0,-7.0,68.0,-5.0,-9.0,-907.0,-456.0
-9.0,-239.0,-101.0,-7.0,67.0,-5.0,-9.0,-910.0,-460.0
-7.0,-238.0,-100.0,-6.0,70.0,-4.0,-5.0,-908.0,-458.0
-9.0,-237.0,-99.0,-6.0,69.0,-5.0,-11.0,-906.0,-459.0
-10.0,-237.0,-101.0,-7.0,68.0,-5.0,-8.0,-909.0,-457.0
-5.0,-241.0,-98.0,-6.0,68.0,-7.0,-9.0,-906.0,-458.0
-6.0,-238.0,-99.0,-8.0,70.0,-5.0,-11.0,-903.0,-455.0
-8.0,-241.0,-108.0,-7.0,67.0,-6.0,-9.0,-909.0,-454.0
-7.0,-237.0,-98.0,-8.0,68.0,-6.0,-5.0,-905.0,-455.0
-5.0,-239.0,-102.0,-10.0,69.0,-5.0,-6.0,-906.0,-460.0
-8.0,-238.0,-101.0,-10.0,67.0,-5.0,-6.0,-909.0,-462.0
-7.0,-237.0,-97.0,-11.0,68.0,-5.0,-7.0,-903.0,-455.0
-7.0,-237.0,-100.0,-10.0,69.0,-3.0,-6.0,-912.0,-459.0
-10.0,-239.0,-101.0,-9.0,69.0,-2.0,-7.0,-911.0,-454.0
-9.0,-238.0,-103.0,-10.0,70.0,-3.0,-10.0,-909.0,-457.0
-4.0,-239.0,-97.0,-9.0,72.0,-4.0,-13.0,-906.0,-450.0
-10.0,-236.0,-101.0,-8.0,71.0,-4.0,-7.0,-910.0,-457.0
-13.0,-239.0,-102.0,-9.0,71.0,-3.0,-14.0,-906.0,-452.0
-12.0,-234.0,-103.0,-9.0,71.0,-3.0,-13.0,-906.0,-458.0
-10.0,-238.0,-100.0,-8.0,72.0,-3.0,-12.0,-907.0,-457.0
-7.0,-237.0,-98.0,-9.0,71.0,-4.0,-9.0,-902.0,-460.0
-8.0,-237.0,-100.0,-10.0,71.0,-2.0,-6.0,-903.0,-455.0
-8.0,-239.0,-101.0,-9.0,71.0,-2.0,-8.0,-907.0,-461.0
-11.0,-236.0,-101.0,-11.0,72.0,-2.0,-7.0,-908.0,-456.0
-8.0,-237.0,-102.0,-12.0,71.0,-4.0,-6.0,-909.0,-449.0
-11.0,-236.0,-99.0,-12.0,71.0,-3.0,-7.0,-908.0,-458.0
-10.0,-239.0,-100.0,-13.0,70.0,-3.0,-8.0,-910.0,-455.0
-9.0,-239.0,-103.0,-14.0,69.0,-4.0,-1.0,-907.0,-457.0
-4.0,-233.0,-96.0,-15.0,70.0,-6.0,-10.0,-910.0,-455.0
-11.0,-236.0,-103.0,-15.0,70.0,-7.0,-6.0,-906.0,-456.0
-9.0,-243.0,-101.0,-12.0,71.0,-7.0,-5.0,-910.0,-456.0
-8.0,-241.0,-100.0,-12.0,72.0,-7.0,-9.0,-909.0,-460.0
-8.0,-236.0,-101.0,-10.0,72.0,-7.0,-6.0,-911.0,-455.0
-11.0,-237.0,-104.0,-8.0,72.0,-7.0,-7.0,-907.0,-460.0
-11.0,-235.0,-97.0,-6.0,70.0,-7.0,-12.0,-906.0,-460.0
-11.0,-236.0,-100.0,-3.0,71.0,-6.0,-5.0,-904.0,-458.0
-9.0,-241.0,-103.0,-2.0,71.0,-6.0,-7.0,-909.0,-457.0
-9.0,-237.0,-102.0,-1.0,70.0,-5.0,-9.0,-910.0,-457.0
-9.0,-233.0,-104.0,-2.0,71.0,-4.0,-5.0,-908.0,-456.0
-7.0,-242.0,-102.0,-1.0,68.0,-2.0,-7.0,-909.0,-455.0
-9.0,-238.0,-98.0,-1.0,68.0,-2.0,-10.0,-906.0,-465.0
-8.0,-239.0,-101.0,-1.0,67.0,-2.0,-11.0,-913.0,-455.0
-10.0,-240.0,-97.0,-1.0,67.0,0.0,-9.0,-911.0,-451.0
-10.0,-237.0,-101.0,-2.0,68.0,-2.0,-10.0,-909.0,-459.0
-9.0,-238.0,-100.0,-1.0,68.0,-1.0,-8.0,-912.0,-448.0
-7.0,-237.0,-99.0,-1.0,67.0,-1.0,-10.0,-905.0,-455.0
-8.0,-238.0,-101.0,-1.0,67.0,0.0,-10.0,-910.0,-455.0
-8.0,-240.0,-98.0,-1.0,68.0,0.0,-10.0,-914.0,-451.0
-10.0,-237.0,-97.0,-1.0,70.0,-2.0,-10.0,-907.0,-448.0
-13.0,-238.0,-101.0,-2.0,68.0,-3.0,-6.0,-910.0,-449.0
-8.0,-237.0,-98.0,-1.0,67.0,-1.0,-7.0,-907.0,-455.0
-8.0,-237.0,-99.0,1.0,67.0,-3.0,-12.0,-906.0,-457.0
-12.0,-236.0,-100.0,0.0,67.0,-4.0,-8.0,-907.0,-457.0
-9.0,-238.0,-98.0,-2.0,68.0,-3.0,-6.0,-908.0,-454.0
-9.0,-239.0,-99.0,-4.0,68.0,-2.0,-8.0,-907.0,-457.0
-8.0,-237.0,-101.0,-4.0,69.0,-2.0,-3.0,-904.0,-459.0
-7.0,-238.0,-100.0,-5.0,67.0,-1.0,-9.0,-909.0,-459.0
-9.0,-236.0,-100.0,-6.0,70.0,-2.0,-6.0,-907.0,-458.0
-12.0,-236.0,-99.0,-7.0,70.0,-2.0,-10.0,-910.0,-458.0
-9.0,-233.0,-103.0,-8.0,73.0,-2.0,-6.0,-905.0,-460.0
-10.0,-237.0,-101.0,-9.0,74.0,-3.0,-7.0,-904.0,-458.0
-6.0,-238.0,-100.0,-9.0,73.0,-2.0,-2.0,-905.0,-455.0
-4.0,-241.0,-104.0,-9.0,73.0,-2.0,-3.0,-906.0,-460.0
-9.0,-241.0,-101.0,-8.0,72.0,-2.0,-9.0,-908.0,-455.0
-9.0,-240.0,-99.0,-7.0,72.0,-3.0,-6.0,-910.0,-457.0
-7.0,-237.0,-100.0,-7.0,71.0,-4.0,-5.0,-900.0,-455.0
-10.0,-238.0,-100.0,-7.0,72.0,-2.0,-9.0,-907.0,-454.0
-9.0,-240.0,-98.0,-7.0,70.0,-3.0,-6.0,-907.0,-454.0
-7.0,-239.0,-100.0,-7.0,68.0,-3.0,-5.0,-909.0,-450.0
-13.0,-238.0,-102.0,-6.0,69.0,-3.0,-7.0,-908.0,-454.0
-6.0,-240.0,-98.0,-5.0,68.0,-3.0,-9.0,-903.0,-458.0
-10.0,-238.0,-101.0,-5.0,68.0,-5.0,-8.0,-907.0,-456.0
-5.0,-238.0,-95.0,-5.0,68.0,-4.0,-7.0,-913.0,-450.0
-9.0,-238.0,-100.0,-4.0,67.0,-3.0,-6.0,-910.0,-458.0
-9.0,-237.0,-99.0,-3.0,67.0,-3.0,-8.0,-910.0,-452.0
-5.0,-239.0,-100.0,-4.0,66.0,-2.0,-5.0,-909.0,-454.0
-8.0,-237.0,-100.0,-3.0,65.0,-3.0,-12.0,-907.0,-455.0
-10.0,-238.0,-99.0,-4.0,66.0,-4.0,-10.0,-909.0,-449.0
-13.0,-236.0,-101.0,-4.0,66.0,-4.0,-5.0,-910.0,-456.0
-11.0,-238.0,-99.0,-6.0,64.0,-4.0,-9.0,-911.0,-454.0
-7.0,-239.0,-98.0,-6.0,66.0,-4.0,-5.0,-913.0,-456.0
-8.0,-240.0,-99.0,-7.0,66.0,-3.0,-9.0,-909.0,-453.0
-9.0,-240.0,-99.0,-8.0,67.0,-3.0,-11.0,-908.0,-456.0
-11.0,-235.0,-101.0,-8.0,68.0,-3.0,-7.0,-910.0,-452.0
-8.0,-240.0,-98.0,-8.0,68.0,-2.0,-4.0,-910.0,-453.0
-7.0,-238.0,-99.0,-9.0,67.0,-1.0,-11.0,-912.0,-457.0
-9.0,-236.0,-100.0,-8.0,69.0,-2.0,-4.0,-910.0,-453.0
-6.0,-239.0,-100.0,-8.0,69.0,-3.0,-8.0,-907.0,-455.0
-10.0,-237.0,-100.0,-8.0,70.0,-2.0,-5.0,-907.0,-452.0
-9.0,-240.0,-101.0,-6.0,69.0,-2.0,-6.0,-906.0,-456.0
-6.0,-238.0,-99.0,-6.0,68.0,-3.0,-2.0,-906.0,-457.0
-8.0,-235.0,-102.0,-6.0,69.0,-3.0,-11.0,-908.0,-454.0
-8.0,-235.0,-100.0,-7.0,68.0,-2.0,-6.0,-911.0,-459.0
-7.0,-238.0,-97.0,-7.0,69.0,-2.0,-11.0,-911.0,-454.0
-9.0,-239.0,-101.0,-7.0,69.0,-2.0,-9.0,-910.0,-449.0
-8.0,-241.0,-99.0,-8.0,67.0,-3.0,-6.0,-910.0,-452.0
-7.0,-238.0,-102.0,-9.0,69.0,-4.0,-9.0,-912.0,-447.0
-9.0,-239.0,-99.0,-9.0,69.0,-4.0,-7.0,-907.0,-450.0
-8.0,-239.0,-100.0,-10.0,68.0,-4.0,-12.0,-910.0,-448.0
-8.0,-238.0,-104.0,-10.0,68.0,-4.0,-7.0,-908.0,-454.0
-11.0,-239.0,-99.0,-10.0,68.0,-4.0,-8.0,-910.0,-458.0
-10.0,-236.0,-101.0,-10.0,68.0,-4.0,-8.0,-904.0,-449.0
-8.0,-240.0,-97.0,-9.0,68.0,-4.0,-10.0,-910.0,-456.0
-7.0,-239.0,-102.0,-9.0,68.0,-5.0,-9.0,-908.0,-449.0
-11.0,-238.0,-98.0,-10.0,69.0,-3.0,-6.0,-907.0,-451.0
-7.0,-237.0,-104.0,-11.0,69.0,-2.0,-12.0,-907.0,-448.0
-8.0,-238.0,-99.0,-12.0,69.0,-2.0,-14.0,-911.0,-448.0
-5.0,-239.0,-97.0,-12.0,70.0,-1.0,-9.0,-911.0,-451.0
-7.0,-239.0,-98.0,-13.0,71.0,-1.0,-2.0,-909.0,-447.0
-9.0,-237.0,-99.0,-14.0,71.0,-1.0,-6.0,-909.0,-452.0
-9.0,-238.0,-100.0,-14.0,71.0,-1.0,-12.0,-906.0,-450.0
-9.0,-240.0,-99.0,-13.0,71.0,-1.0,-12.0,-909.0,-451.0
-11.0,-238.0,-102.0,-14.0,71.0,-3.0,-8.0,-911.0,-453.0
-10.0,-237.0,-101.0,-12.0,70.0,-2.0,-7.0,-907.0,-450.0
-12.0,-237.0,-105.0,-12.0,70.0,-2.0,-4.0,-910.0,-458.0
-6.0,-239.0,-101.0,-12.0,70.0,-3.0,-9.0,-908.0,-452.0
-8.0,-240.0,-98.0,-14.0,70.0,-4.0,-9.0,-907.0,-456.0
-9.0,-237.0,-102.0,-14.0,68.0,-4.0,-8.0,-908.0,-457.0
-10.0,-237.0,-101.0,-15.0,68.0,-5.0,-8.0,-911.0,-456.0
-10.0,-240.0,-98.0,-14.0,67.0,-3.0,-12.0,-911.0,-457.0
-5.0,-240.0,-100.0,-13.0,67.0,-4.0,-7.0,-913.0,-452.0
-7.0,-239.0,-99.0,-15.0,66.0,-3.0,-6.0,-907.0,-454.0
-8.0,-238.0,-98.0,-15.0,67.0,-3.0,-9.0,-904.0,-450.0
-8.0,-237.0,-100.0,-14.0,66.0,-3.0,-8.0,-910.0,-453.0
-9.0,-239.0,-102.0,-13.0,66.0,-4.0,-7.0,-910.0,-456.0
-10.0,-236.0,-101.0,-13.0,67.0,-3.0,-5.0,-907.0,-452.0
-7.0,-241.0,-99.0,-13.0,66.0,-3.0,-12.0,-904.0,-459.0
-9.0,-240.0,-98.0,-12.0,67.0,-3.0,-9.0,-902.0,-458.0
-7.0,-238.0,-99.0,-12.0,68.0,-2.0,-11.0,-908.0,-457.0
-11.0,-238.0,-100.0,-10.0,69.0,-1.0,-14.0,-906.0,-455.0
-8.0,-240.0,-101.0,-10.0,70.0,-2.0,-13.0,-909.0,-451.0
-9.0,-239.0,-98.0,-10.0,70.0,-2.0,-9.0,-909.0,-455.0
-11.0,-235.0,-100.0,-11.0,71.0,-1.0,-8.0,-911.0,-455.0
-5.0,-239.0,-102.0,-12.0,71.0,0.0,-8.0,-906.0,-456.0
-8.0,-240.0,-104.0,-12.0,72.0,1.0,-13.0,-912.0,-458.0
-7.0,-240.0,-101.0,-12.0,70.0,-2.0,-8.0,-908.0,-454.0
-9.0,-241.0,-100.0,-12.0,70.0,-2.0,-8.0,-907.0,-455.0
-7.0,-230.0,-100.0,-10.0,70.0,-1.0,-5.0,-908.0,-454.0
-8.0,-239.0,-102.0,-12.0,68.0,-1.0,-5.0,-913.0,-455.0
-6.0,-237.0,-98.0,-12.0,68.0,-3.0,-7.0,-907.0,-453.0
-8.0,-237.0,-98.0,-11.0,68.0,-2.0,-11.0,-913.0,-457.0
-9.0,-239.0,-99.0,-12.0,68.0,-3.0,-4.0,-908.0,-452.0
-8.0,-238.0,-103.0,-11.0,69.0,-2.0,-9.0,-907.0,-455.0
-7.0,-240.0,-97.0,-10.0,67.0,-4.0,-8.0,-908.0,-457.0
-8.0,-238.0,-99.0,-11.0,67.0,-3.0,-8.0,-906.0,-451.0
-7.0,-239.0,-101.0,-11.0,67.0,-4.0,-8.0,-910.0,-459.0
-10.0,-240.0,-101.0,-11.0,67.0,-2.0,-10.0,-913.0,-453.0
-8.0,-239.0,-99.0,-11.0,66.0,-4.0,-11.0,-910.0,-451.0
-10.0,-234.0,-104.0,-10.0,69.0,-3.0,-6.0,-910.0,-455.0
-10.0,-239.0,-99.0,-10.0,68.0,-3.0,-14.0,-915.0,-449.0
-7.0,-238.0,-101.0,-12.0,68.0,-3.0,-13.0,-909.0,-453.0
-9.0,-239.0,-102.0,-11.0,66.0,-4.0,-12.0,-908.0,-455.0
-8.0,-239.0,-99.0,-11.0,67.0,-4.0,-10.0,-909.0,-452.0
-6.0,-239.0,-100.0,-11.0,68.0,-3.0,-8.0,-909.0,-454.0
-10.0,-241.0,-104.0,-10.0,69.0,-4.0,-10.0,-910.0,-453.0
-8.0,-237.0,-97.0,-11.0,67.0,-3.0,-7.0,-912.0,-455.0
-9.0,-239.0,-101.0,-11.0,67.0,-3.0,-3.0,-904.0,-453.0
-8.0,-239.0,-102.0,-10.0,68.0,-2.0,-12.0,-908.0,-453.0
-8.0,-237.0,-99.0,-10.0,67.0,-2.0,-6.0,-908.0,-450.0
-4.0,-241.0,-102.0,-10.0,67.0,-3.0,-6.0,-907.0,-452.0
-8.0,-236.0,-98.0,-12.0,67.0,-2.0,-3.0,-910.0,-447.0
-8.0,-236.0,-99.0,-11.0,67.0,-3.0,-1.0,-909.0,-450.0
-8.0,-240.0,-99.0,-12.0,66.0,-2.0,-5.0,-908.0,-449.0
-8.0,-239.0,-99.0,-12.0,66.0,-2.0,-9.0,-909.0,-451.0
-10.0,-240.0,-101.0,-12.0,66.0,-3.0,-13.0,-909.0,-451.0
-9.0,-236.0,-100.0,-13.0,66.0,-3.0,-8.0,-909.0,-449.0
-9.0,-238.0,-98.0,-11.0,68.0,-2.0,-8.0,-908.0,-450.0
-5.0,-240.0,-98.0,-11.0,68.0,-4.0,-7.0,-910.0,-449.0
-9.0,-236.0,-100.0,-11.0,69.0,-3.0,-8.0,-912.0,-451.0
-2.0,-241.0,-90.0,-10.0,70.0,-3.0,-8.0,-914.0,-453.0
-10.0,-237.0,-97.0,-10.0,70.0,-2.0,-7.0,-908.0,-451.0
-8.0,-242.0,-97.0,-10.0,70.0,-3.0,-8.0,-912.0,-449.0
-9.0,-238.0,-98.0,-10.0,71.0,-3.0,-6.0,-906.0,-453.0
-10.0,-239.0,-99.0,-9.0,70.0,-2.0,-8.0,-907.0,-452.0
-8.0,-239.0,-97.0,-10.0,70.0,-3.0,-12.0,-904.0,-457.0
-11.0,-237.0,-100.0,-10.0,70.0,-2.0,-11.0,-905.0,-452.0
-10.0,-237.0,-98.0,-11.0,70.0,-1.0,-8.0,-906.0,-450.0
-7.0,-240.0,-97.0,-12.0,70.0,-3.0,-8.0,-910.0,-455.0
-7.0,-241.0,-102.0,-12.0,69.0,-2.0,-8.0,-909.0,-452.0
-12.0,-240.0,-97.0,-13.0,70.0,-2.0,-7.0,-907.0,-454.0
-12.0,-235.0,-97.0,-13.0,71.0,-2.0,-5.0,-909.0,-455.0
-9.0,-240.0,-101.0,-13.0,72.0,-2.0,-8.0,-907.0,-449.0
-7.0,-237.0,-98.0,-13.0,71.0,-3.0,-5.0,-908.0,-450.0
-9.0,-235.0,-96.0,-13.0,72.0,-2.0,-9.0,-912.0,-455.0
-8.0,-241.0,-94.0,-14.0,72.0,-2.0,-9.0,-909.0,-447.0
-9.0,-236.0,-99.0,-14.0,72.0,-2.0,-10.0,-908.0,-451.0
-9.0,-241.0,-100.0,-14.0,71.0,-4.0,-8.0,-908.0,-450.0
-7.0,-237.0,-102.0,-14.0,72.0,-3.0,-4.0,-911.0,-452.0
-6.0,-237.0,-99.0,-13.0,72.0,-4.0,-5.0,-910.0,-453.0
-9.0,-239.0,-101.0,-13.0,72.0,-3.0,-7.0,-910.0,-456.0
-10.0,-239.0,-99.0,-13.0,71.0,-2.0,-8.0,-911.0,-451.0
-10.0,-236.0,-96.0,-13.0,71.0,-3.0,-5.0,-908.0,-457.0
-10.0,-238.0,-102.0,-12.0,69.0,-3.0,-7.0,-910.0,-449.0
-7.0,-241.0,-101.0,-13.0,71.0,-2.0,-3.0,-914.0,-453.0
-10.0,-240.0,-96.0,-13.0,71.0,-4.0,-6.0,-911.0,-451.0
-11.0,-236.0,-101.0,-13.0,70.0,-4.0,-10.0,-906.0,-453.0
-9.0,-239.0,-99.0,-12.0,70.0,-3.0,-5.0,-909.0,-453.0
-7.0,-237.0,-100.0,-13.0,70.0,-4.0,-11.0,-906.0,-452.0
-9.0,-239.0,-101.0,-13.0,70.0,-4.0,-8.0,-907.0,-456.0
-8.0,-239.0,-102.0,-13.0,69.0,-4.0,-9.0,-910.0,-454.0
-5.0,-238.0,-101.0,-13.0,67.0,-4.0,-8.0,-909.0,-455.0
-8.0,-238.0,-100.0,-14.0,68.0,-4.0,-10.0,-910.0,-450.0
-7.0,-238.0,-99.0,-14.0,68.0,-4.0,-12.0,-914.0,-453.0
-7.0,-239.0,-101.0,-13.0,68.0,-4.0,-8.0,-908.0,-453.0
-8.0,-237.0,-101.0,-13.0,67.0,-2.0,-8.0,-910.0,-452.0
-11.0,-239.0,-102.0,-12.0,67.0,-4.0,-12.0,-908.0,-451.0
-8.0,-239.0,-99.0,-12.0,68.0,-3.0,-9.0,-914.0,-453.0
-9.0,-238.0,-99.0,-13.0,68.0,-3.0,-10.0,-909.0,-455.0
-7.0,-237.0,-98.0,-12.0,66.0,-4.0,-7.0,-906.0,-451.0
-8.0,-237.0,-98.0,-11.0,68.0,-3.0,-3.0,-908.0,-454.0
-8.0,-239.0,-100.0,-11.0,68.0,-3.0,-7.0,-905.0,-451.0
-9.0,-238.0,-101.0,-12.0,67.0,-3.0,-4.0,-906.0,-453.0
-9.0,-239.0,-99.0,-12.0,68.0,-3.0,-9.0,-908.0,-454.0
-10.0,-236.0,-101.0,-11.0,70.0,-4.0,-7.0,-910.0,-454.0
-8.0,-238.0,-99.0,-11.0,68.0,-2.0,-7.0,-910.0,-452.0
-8.0,-239.0,-100.0,-13.0,68.0,-3.0,-6.0,-906.0,-455.0
-8.0,-238.0,-99.0,-11.0,68.0,-3.0,-6.0,-906.0,-456.0
-8.0,-240.0,-99.0,-12.0,68.0,-3.0,-6.0,-902.0,-453.0
-10.0,-236.0,-101.0,-13.0,69.0,-4.0,-4.0,-914.0,-447.0
-10.0,-240.0,-100.0,-13.0,69.0,-4.0,-7.0,-912.0,-454.0
-10.0,-235.0,-100.0,-12.0,69.0,-4.0,-6.0,-906.0,-455.0
-11.0,-239.0,-104.0,-12.0,69.0,-4.0,-7.0,-906.0,-452.0
-8.0,-237.0,-98.0,-13.0,69.0,-4.0,-2.0,-912.0,-457.0
-8.0,-241.0,-99.0,-13.0,69.0,-4.0,-10.0,-908.0,-452.0
-7.0,-242.0,-101.0,-13.0,67.0,-3.0,-7.0,-910.0,-453.0
-9.0,-239.0,-100.0,-12.0,68.0,-3.0,-5.0,-909.0,-453.0
-8.0,-237.0,-102.0,-12.0,69.0,-4.0,-13.0,-909.0,-451.0
-6.0,-237.0,-98.0,-12.0,69.0,-4.0,-3.0,-906.0,-454.0
-7.0,-241.0,-101.0,-11.0,68.0,-4.0,-9.0,-911.0,-458.0
-9.0,-240.0,-99.0,-11.0,67.0,-2.0,-8.0,-910.0,-456.0
-9.0,-235.0,-99.0,-11.0,67.0,-2.0,-8.0,-905.0,-454.0
-5.0,-239.0,-98.0,-11.0,68.0,-3.0,-8.0,-908.0,-454.0
-9.0,-240.0,-100.0,-11.0,68.0,-3.0,-10.0,-912.0,-449.0
-10.0,-238.0,-101.0,-12.0,69.0,-4.0,-7.0,-905.0,-453.0
-9.0,-237.0,-97.0,-12.0,68.0,-5.0,-6.0,-910.0,-452.0
-8.0,-239.0,-99.0,-14.0,68.0,-5.0,-6.0,-909.0,-451.0
-8.0,-238.0,-103.0,-13.0,68.0,-4.0,-11.0,-913.0,-448.0
-10.0,-236.0,-97.0,-13.0,70.0,-3.0,-8.0,-912.0,-450.0
-10.0,-238.0,-97.0,-12.0,68.0,-2.0,-6.0,-913.0,-451.0
-7.0,-239.0,-102.0,-12.0,68.0,-2.0,-9.0,-910.0,-453.0
-10.0,-240.0,-97.0,-13.0,68.0,-3.0,-9.0,-907.0,-453.0
-8.0,-238.0,-100.0,-13.0,68.0,-3.0,-9.0,-909.0,-452.0
-8.0,-239.0,-97.0,-13.0,68.0,-3.0,-11.0,-904.0,-454.0
-9.0,-239.0,-98.0,-13.0,70.0,-4.0,-7.0,-908.0,-450.0
-7.0,-240.0,-99.0,-13.0,70.0,-2.0,-9.0,-909.0,-451.0
-6.0,-239.0,-95.0,-13.0,70.0,-2.0,-7.0,-911.0,-447.0
-12.0,-237.0,-104.0,-13.0,70.0,-3.0,-11.0,-907.0,-452.0
-8.0,-238.0,-102.0,-14.0,70.0,-1.0,-5.0,-906.0,-451.0
-11.0,-239.0,-100.0,-14.0,69.0,-3.0,-4.0,-908.0,-450.0
-10.0,-238.0,-95.0,-13.0,69.0,-1.0,-7.0,-908.0,-456.0
-6.0,-239.0,-101.0,-14.0,69.0,-2.0,-10.0,-906.0,-454.0
-9.0,-239.0,-97.0,-14.0,69.0,-1.0,-16.0,-911.0,-451.0
-11.0,-238.0,-96.0,-13.0,69.0,-3.0,-10.0,-904.0,-455.0
-10.0,-240.0,-97.0,-13.0,70.0,-2.0,-7.0,-909.0,-455.0
-8.0,-238.0,-101.0,-13.0,71.0,-3.0,-6.0,-912.0,-453.0
-8.0,-235.0,-98.0,-13.0,70.0,-3.0,-10.0,-904.0,-458.0
-7.0,-236.0,-103.0,-12.0,69.0,-3.0,-10.0,-907.0,-452.0
-9.0,-239.0,-101.0,-12.0,70.0,-2.0,-4.0,-912.0,-459.0
-9.0,-238.0,-99.0,-13.0,69.0,-3.0,-12.0,-909.0,-453.0
-9.0,-236.0,-99.0,-12.0,68.0,-4.0,-14.0,-908.0,-450.0
-10.0,-237.0,-101.0,-11.0,69.0,-3.0,-9.0,-908.0,-456.0
-8.0,-240.0,-102.0,-12.0,69.0,-2.0,-8.0,-911.0,-450.0
-10.0,-241.0,-99.0,-12.0,69.0,-2.0,-7.0,-911.0,-449.0
-9.0,-237.0,-100.0,-12.0,70.0,-3.0,-10.0,-907.0,-450.0
-7.0,-239.0,-97.0,-12.0,69.0,-4.0,-8.0,-913.0,-454.0
-8.0,-237.0,-95.0,-12.0,68.0,-2.0,-6.0,-907.0,-449.0
-8.0,-239.0,-98.0,-13.0,69.0,-3.0,-2.0,-910.0,-456.0
-10.0,-239.0,-96.0,-13.0,69.0,-4.0,-6.0,-913.0,-453.0
-3.0,-239.0,-98.0,-12.0,69.0,-3.0,-8.0,-908.0,-450.0
-10.0,-238.0,-102.0,-13.0,68.0,-3.0,-10.0,-908.0,-453.0
-7.0,-238.0,-100.0,-13.0,68.0,-2.0,-10.0,-904.0,-452.0
-9.0,-238.0,-97.0,-13.0,69.0,-3.0,-10.0,-913.0,-454.0
-9.0,-240.0,-97.0,-13.0,69.0,-4.0,-6.0,-909.0,-459.0
-8.0,-238.0,-101.0,-12.0,69.0,-3.0,-6.0,-910.0,-457.0
-9.0,-238.0,-98.0,-12.0,70.0,-4.0,-6.0,-909.0,-453.0
-9.0,-239.0,-101.0,-12.0,68.0,-3.0,-7.0,-907.0,-453.0
-8.0,-240.0,-98.0,-12.0,67.0,-3.0,-9.0,-909.0,-450.0
-10.0,-237.0,-99.0,-12.0,68.0,-4.0,-6.0,-908.0,-454.0
-10.0,-237.0,-100.0,-13.0,69.0,-4.0,-5.0,-910.0,-455.0
-6.0,-239.0,-100.0,-11.0,68.0,-3.0,-5.0,-906.0,-455.0
-8.0,-241.0,-101.0,-12.0,68.0,-3.0,-7.0,-907.0,-453.0
-8.0,-239.0,-101.0,-13.0,67.0,-3.0,-11.0,-909.0,-453.0
-3.0,-241.0,-97.0,-14.0,66.0,-4.0,-6.0,-902.0,-451.0
-6.0,-236.0,-97.0,-12.0,68.0,-4.0,-10.0,-906.0,-450.0
-7.0,-237.0,-100.0,-12.0,67.0,-5.0,-7.0,-907.0,-458.0
-8.0,-238.0,-99.0,-12.0,69.0,-4.0,-9.0,-910.0,-453.0
-10.0,-237.0,-99.0,-12.0,69.0,-3.0,-9.0,-910.0,-449.0
-6.0,-241.0,-100.0,-12.0,68.0,-3.0,-7.0,-910.0,-455.0
-8.0,-239.0,-100.0,-11.0,69.0,-4.0,-9.0,-911.0,-452.0
-9.0,-237.0,-98.0,-10.0,68.0,-2.0,-7.0,-910.0,-452.0
-9.0,-239.0,-98.0,-12.0,69.0,-3.0,-8.0,-907.0,-453.0
-5.0,-241.0,-101.0,-12.0,68.0,-2.0,-10.0,-909.0,-454.0
-8.0,-239.0,-94.0,-13.0,69.0,-3.0,-5.0,-907.0,-454.0
-5.0,-238.0,-100.0,-14.0,69.0,-3.0,-7.0,-907.0,-449.0
-9.0,-238.0,-97.0,-14.0,69.0,-3.0,-12.0,-908.0,-454.0
-8.0,-240.0,-101.0,-13.0,69.0,-2.0,-9.0,-908.0,-454.0
-6.0,-237.0,-98.0,-12.0,68.0,-2.0,-7.0,-908.0,-452.0
-9.0,-242.0,-99.0,-12.0,68.0,-3.0,-10.0,-910.0,-450.0
-6.0,-237.0,-101.0,-11.0,68.0,-2.0,-13.0,-909.0,-455.0
-10.0,-238.0,-102.0,-11.0,68.0,-3.0,-10.0,-910.0,-454.0
-6.0,-239.0,-101.0,-10.0,69.0,-3.0,-7.0,-909.0,-453.0
-24.0,-232.0,-115.0,-10.0,67.0,-2.0,-9.0,-913.0,-449.0
-14.0,-239.0,-100.0,-13.0,67.0,-1.0,-7.0,-909.0,-451.0
-10.0,-244.0,-104.0,-13.0,68.0,-2.0,-6.0,-908.0,-457.0
-15.0,-237.0,-101.0,-12.0,68.0,-3.0,-6.0,-912.0,-451.0
-5.0,-243.0,-98.0,-13.0,66.0,-4.0,-9.0,-911.0,-454.0
-10.0,-236.0,-107.0,-12.0,68.0,-4.0,-4.0,-911.0,-449.0
-10.0,-232.0,-98.0,-12.0,67.0,-3.0,-6.0,-907.0,-452.0
-4.0,-231.0,-104.0,-13.0,67.0,-2.0,-7.0,-912.0,-449.0
-3.0,-237.0,-95.0,-13.0,68.0,-3.0,-9.0,-906.0,-447.0
-27.0,-239.0,-114.0,-12.0,69.0,-2.0,-9.0,-910.0,-455.0
-7.0,-243.0,-99.0,-14.0,68.0,-3.0,-7.0,-905.0,-452.0
-9.0,-233.0,-102.0,-14.0,68.0,-3.0,-10.0,-906.0,-453.0
-7.0,-240.0,-103.0,-13.0,69.0,-2.0,-9.0,-908.0,-453.0
-10.0,-239.0,-100.0,-13.0,69.0,-2.0,-7.0,-909.0,-454.0
-8.0,-240.0,-99.0,-13.0,70.0,-3.0,-8.0,-908.0,-450.0
-10.0,-234.0,-103.0,-13.0,71.0,-3.0,-8.0,-909.0,-450.0
-10.0,-234.0,-103.0,-12.0,70.0,-4.0,-10.0,-910.0,-452.0
-7.0,-237.0,-98.0,-13.0,69.0,-3.0,-9.0,-909.0,-452.0
-9.0,-232.0,-94.0,-13.0,69.0,-3.0,-10.0,-906.0,-453.0
-12.0,-241.0,-94.0,-14.0,69.0,-2.0,-11.0,-909.0,-452.0
-5.0,-236.0,-105.0,-15.0,70.0,-3.0,-9.0,-911.0,-453.0
-7.0,-234.0,-101.0,-14.0,69.0,-3.0,-8.0,-910.0,-452.0
-3.0,-247.0,-100.0,-15.0,68.0,-2.0,-7.0,-914.0,-451.0
-9.0,-240.0,-108.0,-15.0,69.0,-2.0,-5.0,-909.0,-451.0
-6.0,-245.0,-105.0,-13.0,69.0,-2.0,-13.0,-911.0,-449.0
-6.0,-243.0,-78.0,-13.0,69.0,-2.0,-7.0,-912.0,-454.0
-11.0,-237.0,-101.0,-14.0,70.0,-2.0,-11.0,-911.0,-457.0
-23.0,-231.0,-115.0,-14.0,70.0,-1.0,-13.0,-915.0,-452.0
-9.0,-237.0,-103.0,-15.0,69.0,-1.0,-7.0,-911.0,-452.0
-8.0,-237.0,-96.0,-15.0,68.0,-3.0,-9.0,-910.0,-458.0
-9.0,-237.0,-100.0,-15.0,69.0,-3.0,-9.0,-908.0,-456.0
-8.0,-236.0,-97.0,-13.0,70.0,-3.0,-9.0,-907.0,-452.0
-14.0,-240.0,-97.0,-13.0,70.0,-4.0,-2.0,-909.0,-452.0
-15.0,-239.0,-97.0,-12.0,70.0,-3.0,-6.0,-912.0,-450.0
-11.0,-238.0,-94.0,-13.0,72.0,-1.0,-9.0,-908.0,-454.0
-10.0,-240.0,-102.0,-14.0,70.0,-2.0,-3.0,-908.0,-451.0
-10.0,-238.0,-101.0,-16.0,69.0,-2.0,-4.0,-909.0,-449.0
-12.0,-237.0,-95.0,-17.0,71.0,-2.0,-8.0,-910.0,-446.0
-8.0,-239.0,-99.0,-18.0,71.0,-1.0,-6.0,-911.0,-447.0
-11.0,-245.0,-104.0,-19.0,72.0,-1.0,-8.0,-912.0,-452.0
-11.0,-238.0,-103.0,-21.0,69.0,-2.0,-9.0,-910.0,-453.0
-9.0,-237.0,-97.0,-22.0,69.0,-2.0,-15.0,-910.0,-455.0
-12.0,-240.0,-94.0,-21.0,68.0,-2.0,-12.0,-907.0,-453.0
-7.0,-236.0,-101.0,-21.0,65.0,-2.0,-12.0,-912.0,-455.0
-9.0,-239.0,-100.0,-20.0,66.0,-1.0,-15.0,-908.0,-454.0
-10.0,-239.0,-100.0,-20.0,67.0,-2.0,-10.0,-902.0,-455.0
-9.0,-237.0,-99.0,-19.0,69.0,-2.0,-5.0,-909.0,-459.0
-9.0,-225.0,-96.0,-19.0,70.0,-1.0,-10.0,-908.0,-452.0
-5.0,-231.0,-99.0,-19.0,73.0,1.0,1.0,-909.0,-461.0
-7.0,-236.0,-89.0,-18.0,72.0,-1.0,-4.0,-909.0,-455.0
-9.0,-240.0,-96.0,-18.0,73.0,0.0,-6.0,-909.0,-459.0
-6.0,-236.0,-102.0,-18.0,72.0,-1.0,-5.0,-904.0,-458.0
-9.0,-234.0,-99.0,-18.0,72.0,-3.0,-3.0,-903.0,-457.0
-9.0,-236.0,-92.0,-19.0,73.0,-5.0,-9.0,-904.0,-461.0
-3.0,-239.0,-94.0,-19.0,71.0,-3.0,-6.0,-908.0,-455.0
-4.0,-241.0,-107.0,-19.0,73.0,-5.0,-5.0,-909.0,-457.0
-9.0,-239.0,-96.0,-20.0,72.0,-4.0,-1.0,-915.0,-456.0
-7.0,-238.0,-98.0,-19.0,70.0,-6.0,-7.0,-910.0,-453.0
-11.0,-237.0,-101.0,-19.0,72.0,-5.0,-7.0,-911.0,-455.0
-10.0,-238.0,-98.0,-17.0,69.0,-5.0,-6.0,-913.0,-452.0
-7.0,-242.0,-100.0,-17.0,69.0,-3.0,-10.0,-915.0,-452.0
-9.0,-238.0,-96.0,-17.0,67.0,-2.0,-8.0,-911.0,-451.0
-8.0,-242.0,-99.0,-17.0,67.0,-3.0,-7.0,-913.0,-451.0
0.0,-240.0,-93.0,-18.0,65.0,-1.0,-11.0,-915.0,-448.0
-7.0,-245.0,-108.0,-18.0,64.0,-3.0,-11.0,-911.0,-450.0
-12.0,-239.0,-94.0,-20.0,66.0,-2.0,-12.0,-910.0,-451.0
-12.0,-237.0,-98.0,-21.0,67.0,-1.0,-10.0,-909.0,-448.0
-8.0,-236.0,-95.0,-21.0,65.0,0.0,-7.0,-907.0,-452.0
-17.0,-241.0,-93.0,-23.0,67.0,-1.0,-11.0,-908.0,-448.0
-9.0,-236.0,-100.0,-21.0,67.0,-2.0,-13.0,-903.0,-451.0
-11.0,-235.0,-98.0,-21.0,67.0,-3.0,-14.0,-906.0,-451.0
-8.0,-238.0,-97.0,-20.0,68.0,-3.0,-9.0,-910.0,-454.0
-5.0,-236.0,-104.0,-19.0,68.0,-3.0,-7.0,-908.0,-456.0
-5.0,-230.0,-107.0,-19.0,70.0,-3.0,-8.0,-907.0,-458.0
-8.0,-239.0,-97.0,-20.0,70.0,-1.0,-4.0,-905.0,-454.0
-10.0,-237.0,-100.0,-21.0,70.0,-2.0,-3.0,-904.0,-458.0
-10.0,-238.0,-98.0,-21.0,71.0,-1.0,-6.0,-904.0,-457.0
-11.0,-235.0,-99.0,-23.0,71.0,-1.0,-1.0,-907.0,-458.0
-6.0,-226.0,-91.0,-23.0,73.0,-1.0,-6.0,-909.0,-460.0
-5.0,-236.0,-104.0,-24.0,74.0,0.0,-8.0,-906.0,-458.0
-8.0,-235.0,-99.0,-27.0,74.0,1.0,-5.0,-908.0,-457.0
-3.0,-231.0,-113.0,-29.0,75.0,0.0,-9.0,-908.0,-456.0
1.0,-235.0,-119.0,-30.0,74.0,-1.0,-7.0,-903.0,-455.0
-8.0,-234.0,-110.0,-30.0,74.0,1.0,-7.0,-903.0,-456.0
-6.0,-238.0,-103.0,-31.0,73.0,1.0,-7.0,-904.0,-461.0
-6.0,-234.0,-103.0,-31.0,73.0,0.0,-7.0,-908.0,-457.0
-3.0,-237.0,-98.0,-32.0,73.0,0.0,-10.0,-908.0,-459.0
-4.0,-245.0,-99.0,-32.0,71.0,0.0,-7.0,-907.0,-452.0
-10.0,-239.0,-103.0,-31.0,71.0,0.0,-4.0,-906.0,-455.0
-21.0,-242.0,-93.0,-32.0,70.0,0.0,-11.0,-910.0,-456.0
-8.0,-239.0,-98.0,-32.0,70.0,-1.0,-7.0,-907.0,-453.0
-9.0,-238.0,-102.0,-33.0,68.0,-1.0,-6.0,-907.0,-448.0
-10.0,-238.0,-97.0,-34.0,68.0,-2.0,-7.0,-904.0,-455.0
-7.0,-242.0,-98.0,-35.0,68.0,-1.0,-10.0,-911.0,-453.0
-11.0,-239.0,-105.0,-36.0,69.0,-1.0,-13.0,-913.0,-458.0
-3.0,-240.0,-98.0,-36.0,69.0,0.0,-8.0,-907.0,-452.0
-14.0,-241.0,-101.0,-36.0,67.0,0.0,-13.0,-912.0,-450.0
-3.0,-240.0,-104.0,-37.0,69.0,-1.0,-12.0,-910.0,-453.0
-6.0,-237.0,-100.0,-38.0,69.0,-1.0,-10.0,-910.0,-450.0
-10.0,-240.0,-103.0,-37.0,68.0,0.0,-9.0,-908.0,-453.0
-10.0,-236.0,-98.0,-36.0,68.0,1.0,-7.0,-907.0,-458.0
-10.0,-228.0,-109.0,-36.0,69.0,0.0,-7.0,-908.0,-457.0
-7.0,-238.0,-99.0,-37.0,69.0,-1.0,-7.0,-907.0,-455.0
-7.0,-235.0,-100.0,-37.0,68.0,-1.0,-9.0,-906.0,-454.0
-8.0,-237.0,-101.0,-36.0,69.0,-3.0,-6.0,-909.0,-454.0
-10.0,-235.0,-101.0,-37.0,68.0,-1.0,-7.0,-907.0,-456.0
-2.0,-242.0,-99.0,-38.0,68.0,-2.0,-7.0,-909.0,-459.0
-12.0,-236.0,-100.0,-37.0,68.0,-2.0,-5.0,-911.0,-460.0
-11.0,-236.0,-102.0,-36.0,69.0,-4.0,-5.0,-908.0,-460.0
-8.0,-238.0,-99.0,-35.0,70.0,-4.0,-9.0,-909.0,-461.0
-9.0,-237.0,-101.0,-34.0,68.0,-4.0,-8.0,-906.0,-461.0
-13.0,-238.0,-97.0,-34.0,68.0,-3.0,-8.0,-907.0,-461.0
-10.0,-238.0,-101.0,-35.0,68.0,-3.0,-7.0,-901.0,-458.0
-10.0,-237.0,-99.0,-35.0,68.0,-4.0,-10.0,-906.0,-458.0
-9.0,-238.0,-102.0,-35.0,67.0,-3.0,-9.0,-905.0,-459.0
-12.0,-235.0,-103.0,-36.0,66.0,-3.0,-13.0,-907.0,-463.0
-13.0,-237.0,-101.0,-36.0,66.0,-3.0,-9.0,-907.0,-464.0
-12.0,-234.0,-103.0,-37.0,65.0,-2.0,-9.0,-906.0,-460.0
-8.0,-237.0,-104.0,-37.0,65.0,-2.0,-11.0,-908.0,-462.0
-9.0,-238.0,-103.0,-39.0,65.0,-1.0,-8.0,-910.0,-462.0
-8.0,-233.0,-101.0,-39.0,67.0,-2.0,-13.0,-910.0,-462.0
-9.0,-236.0,-103.0,-39.0,68.0,-2.0,-12.0,-908.0,-461.0
-12.0,-234.0,-102.0,-38.0,67.0,0.0,-10.0,-904.0,-464.0
-9.0,-238.0,-100.0,-35.0,70.0,-1.0,-7.0,-908.0,-458.0
-11.0,-238.0,-101.0,-36.0,70.0,-1.0,-9.0,-905.0,-461.0
-8.0,-240.0,-100.0,-35.0,69.0,-1.0,-4.0,-907.0,-458.0
-9.0,-235.0,-98.0,-33.0,70.0,0.0,-9.0,-907.0,-456.0
-8.0,-239.0,-104.0,-32.0,72.0,-1.0,-6.0,-907.0,-460.0
-9.0,-239.0,-103.0,-34.0,72.0,-2.0,-6.0,-910.0,-467.0
-8.0,-236.0,-102.0,-36.0,73.0,-2.0,-7.0,-907.0,-461.0
-9.0,-239.0,-103.0,-39.0,71.0,-1.0,-9.0,-909.0,-462.0
-10.0,-236.0,-103.0,-39.0,70.0,-2.0,-7.0,-908.0,-457.0
-4.0,-238.0,-104.0,-41.0,72.0,-3.0,-8.0,-901.0,-461.0
-6.0,-235.0,-101.0,-41.0,71.0,-2.0,-7.0,-904.0,-464.0
-8.0,-238.0,-101.0,-43.0,71.0,-1.0,-9.0,-902.0,-460.0
-8.0,-237.0,-101.0,-44.0,71.0,-1.0,-8.0,-903.0,-460.0
-9.0,-235.0,-104.0,-46.0,69.0,0.0,-13.0,-908.0,-457.0
-8.0,-236.0,-100.0,-47.0,67.0,-1.0,-10.0,-902.0,-460.0
-11.0,-237.0,-99.0,-47.0,67.0,-3.0,-8.0,-908.0,-461.0
-10.0,-237.0,-102.0,-48.0,66.0,-2.0,-9.0,-904.0,-459.0
-8.0,-237.0,-101.0,-49.0,66.0,-3.0,-6.0,-905.0,-458.0
-9.0,-236.0,-96.0,-51.0,64.0,-3.0,-5.0,-906.0,-460.0
-9.0,-236.0,-98.0,-51.0,68.0,-3.0,-9.0,-906.0,-459.0
-9.0,-239.0,-105.0,-49.0,68.0,-5.0,-9.0,-912.0,-457.0
-7.0,-239.0,-102.0,-48.0,65.0,-4.0,-6.0,-902.0,-464.0
-8.0,-238.0,-101.0,-47.0,66.0,-4.0,-8.0,-905.0,-462.0
-9.0,-240.0,-100.0,-44.0,65.0,-5.0,-9.0,-906.0,-464.0
-7.0,-238.0,-101.0,-44.0,65.0,-3.0,-6.0,-901.0,-461.0
-8.0,-236.0,-104.0,-46.0,66.0,-3.0,-7.0,-908.0,-460.0
-10.0,-236.0,-102.0,-46.0,67.0,-3.0,-10.0,-906.0,-463.0
-6.0,-239.0,-99.0,-48.0,68.0,-2.0,-10.0,-904.0,-463.0
-7.0,-237.0,-104.0,-50.0,66.0,-3.0,-7.0,-904.0,-461.0
-5.0,-238.0,-104.0,-51.0,67.0,-3.0,-8.0,-902.0,-459.0
-9.0,-234.0,-105.0,-52.0,68.0,-4.0,-11.0,-905.0,-473.0
-8.0,-238.0,-101.0,-53.0,68.0,-3.0,-8.0,-904.0,-464.0
-11.0,-239.0,-106.0,-55.0,68.0,-3.0,-10.0,-898.0,-468.0
-9.0,-236.0,-100.0,-55.0,69.0,-3.0,-5.0,-902.0,-469.0
-7.0,-239.0,-102.0,-56.0,69.0,-1.0,-7.0,-899.0,-466.0
-8.0,-236.0,-101.0,-56.0,68.0,-4.0,-9.0,-904.0,-465.0
-7.0,-240.0,-100.0,-56.0,68.0,-4.0,-7.0,-904.0,-468.0
-5.0,-238.0,-100.0,-57.0,68.0,-3.0,-10.0,-905.0,-469.0
-10.0,-238.0,-105.0,-58.0,67.0,-4.0,-5.0,-901.0,-466.0
-8.0,-237.0,-105.0,-58.0,66.0,-4.0,-11.0,-905.0,-469.0
-9.0,-237.0,-106.0,-57.0,66.0,-4.0,-10.0,-904.0,-467.0
-9.0,-236.0,-103.0,-57.0,66.0,-4.0,-9.0,-901.0,-469.0
-9.0,-238.0,-103.0,-56.0,65.0,-5.0,-4.0,-904.0,-469.0
-9.0,-236.0,-106.0,-55.0,66.0,-4.0,-10.0,-900.0,-470.0
-8.0,-238.0,-102.0,-54.0,66.0,-5.0,-4.0,-904.0,-471.0
-11.0,-235.0,-107.0,-53.0,67.0,-4.0,-14.0,-903.0,-473.0
-4.0,-240.0,-103.0,-54.0,67.0,-6.0,-11.0,-899.0,-468.0
-8.0,-236.0,-104.0,-53.0,66.0,-5.0,-13.0,-901.0,-470.0
-11.0,-234.0,-101.0,-52.0,66.0,-6.0,-7.0,-906.0,-469.0
-9.0,-236.0,-104.0,-52.0,65.0,-5.0,-8.0,-902.0,-471.0
-9.0,-237.0,-104.0,-53.0,66.0,-5.0,-8.0,-902.0,-470.0
-8.0,-236.0,-103.0,-52.0,66.0,-4.0,-12.0,-895.0,-474.0
-7.0,-238.0,-106.0,-53.0,67.0,-4.0,-12.0,-900.0,-468.0
-9.0,-238.0,-103.0,-53.0,67.0,-3.0,-7.0,-901.0,-469.0
-8.0,-236.0,-104.0,-53.0,68.0,-4.0,-7.0,-898.0,-473.0
-7.0,-234.0,-104.0,-53.0,68.0,-3.0,-12.0,-898.0,-469.0
-9.0,-236.0,-106.0,-53.0,67.0,-3.0,-8.0,-897.0,-468.0
-11.0,-236.0,-105.0,-52.0,68.0,-4.0,-7.0,-903.0,-469.0
-11.0,-235.0,-104.0,-52.0,67.0,-3.0,-8.0,-900.0,-468.0
-10.0,-236.0,-104.0,-50.0,66.0,-3.0,-11.0,-899.0,-474.0
-12.0,-231.0,-104.0,-50.0,66.0,-2.0,-8.0,-901.0,-469.0
-8.0,-235.0,-103.0,-50.0,66.0,-3.0,-9.0,-898.0,-470.0
-8.0,-238.0,-104.0,-50.0,66.0,-3.0,-12.0,-895.0,-475.0
-9.0,-237.0,-100.0,-52.0,65.0,-4.0,-10.0,-896.0,-470.0
-8.0,-237.0,-108.0,-52.0,66.0,-5.0,-14.0,-900.0,-471.0
-9.0,-235.0,-105.0,-52.0,66.0,-5.0,-10.0,-896.0,-473.0
-8.0,-236.0,-103.0,-54.0,66.0,-5.0,-10.0,-898.0,-478.0
-7.0,-237.0,-103.0,-55.0,66.0,-5.0,-13.0,-899.0,-476.0
-10.0,-234.0,-104.0,-56.0,67.0,-4.0,-10.0,-895.0,-472.0
-10.0,-236.0,-105.0,-56.0,67.0,-5.0,-6.0,-898.0,-474.0
-9.0,-233.0,-108.0,-58.0,67.0,-6.0,-2.0,-900.0,-479.0
-8.0,-232.0,-106.0,-62.0,67.0,-5.0,-9.0,-894.0,-472.0
-9.0,-234.0,-104.0,-64.0,67.0,-6.0,-12.0,-897.0,-476.0
-8.0,-234.0,-109.0,-70.0,65.0,-8.0,-9.0,-897.0,-483.0
-7.0,-238.0,-105.0,-78.0,64.0,-8.0,-10.0,-896.0,-485.0
-5.0,-235.0,-109.0,-91.0,61.0,-9.0,-8.0,-898.0,-482.0
-10.0,-233.0,-106.0,-105.0,59.0,-13.0,-5.0,-900.0,-479.0
-10.0,-238.0,-110.0,-124.0,56.0,-14.0,-10.0,-903.0,-482.0
-8.0,-234.0,-104.0,-147.0,52.0,-20.0,-12.0,-906.0,-479.0
-9.0,-236.0,-104.0,-176.0,48.0,-24.0,-6.0,-906.0,-468.0
-7.0,-234.0,-103.0,-203.0,46.0,-31.0,-11.0,-904.0,-461.0
-4.0,-237.0,-100.0,-233.0,41.0,-37.0,-2.0,-905.0,-454.0
-7.0,-237.0,-98.0,-262.0,34.0,-42.0,4.0,-899.0,-439.0
-10.0,-233.0,-98.0,-296.0,31.0,-48.0,4.0,-901.0,-446.0
-4.0,-232.0,-97.0,-338.0,29.0,-58.0,-3.0,-893.0,-442.0
-7.0,-229.0,-99.0,-389.0,36.0,-67.0,-3.0,-891.0,-452.0
-8.0,-232.0,-102.0,-447.0,43.0,-79.0,-4.0,-887.0,-459.0
-3.0,-231.0,-99.0,-510.0,52.0,-92.0,4.0,-883.0,-468.0
-7.0,-227.0,-109.0,-571.0,61.0,-107.0,7.0,-874.0,-485.0
-4.0,-224.0,-111.0,-627.0,65.0,-120.0,5.0,-866.0,-493.0
-2.0,-225.0,-111.0,-669.0,68.0,-129.0,6.0,-866.0,-501.0
-1.0,-224.0,-116.0,-695.0,63.0,-131.0,9.0,-860.0,-508.0
-3.0,-226.0,-116.0,-706.0,56.0,-133.0,14.0,-854.0,-509.0
-2.0,-225.0,-116.0,-696.0,52.0,-132.0,15.0,-848.0,-507.0
-1.0,-222.0,-116.0,-673.0,53.0,-129.0,7.0,-845.0,-506.0
-6.0,-222.0,-113.0,-635.0,53.0,-123.0,1.0,-840.0,-501.0
-10.0,-219.0,-108.0,-594.0,55.0,-118.0,-8.0,-831.0,-496.0
-12.0,-220.0,-108.0,-550.0,57.0,-114.0,-18.0,-831.0,-487.0
-13.0,-215.0,-109.0,-515.0,60.0,-108.0,-30.0,-830.0,-484.0
-15.0,-217.0,-106.0,-486.0,61.0,-102.0,-37.0,-825.0,-482.0
-17.0,-214.0,-105.0,-470.0,62.0,-97.0,-40.0,-823.0,-485.0
-16.0,-218.0,-109.0,-465.0,64.0,-89.0,-45.0,-827.0,-484.0
-17.0,-216.0,-110.0,-472.0,65.0,-80.0,-53.0,-835.0,-493.0
-17.0,-217.0,-112.0,-488.0,68.0,-69.0,-50.0,-841.0,-494.0
-20.0,-221.0,-115.0,-507.0,66.0,-60.0,-53.0,-842.0,-501.0
-15.0,-220.0,-112.0,-530.0,68.0,-51.0,-48.0,-845.0,-507.0
-17.0,-223.0,-119.0,-549.0,68.0,-41.0,-38.0,-854.0,-518.0
-14.0,-227.0,-117.0,-558.0,69.0,-32.0,-28.0,-865.0,-515.0
-9.0,-227.0,-119.0,-559.0,69.0,-25.0,-14.0,-869.0,-529.0
-7.0,-225.0,-116.0,-550.0,68.0,-20.0,1.0,-871.0,-533.0
-7.0,-231.0,-118.0,-538.0,65.0,-17.0,4.0,-868.0,-532.0
0.0,-228.0,-118.0,-521.0,63.0,-16.0,19.0,-869.0,-533.0
-1.0,-229.0,-120.0,-501.0,57.0,-18.0,25.0,-871.0,-534.0
2.0,-225.0,-115.0,-483.0,53.0,-20.0,38.0,-866.0,-532.0
2.0,-227.0,-117.0,-471.0,50.0,-26.0,37.0,-863.0,-520.0
4.0,-225.0,-114.0,-465.0,45.0,-31.0,37.0,-858.0,-526.0
2.0,-225.0,-117.0,-463.0,39.0,-33.0,41.0,-852.0,-516.0
2.0,-224.0,-117.0,-467.0,35.0,-38.0,40.0,-850.0,-529.0
1.0,-221.0,-114.0,-474.0,31.0,-42.0,40.0,-846.0,-524.0
0.0,-220.0,-118.0,-480.0,27.0,-43.0,35.0,-841.0,-519.0
0.0,-221.0,-118.0,-488.0,25.0,-45.0,32.0,-839.0,-526.0
0.0,-222.0,-116.0,-496.0,20.0,-44.0,26.0,-842.0,-530.0
0.0,-217.0,-120.0,-503.0,17.0,-43.0,24.0,-840.0,-539.0
-1.0,-219.0,-124.0,-508.0,15.0,-40.0,14.0,-839.0,-542.0
-4.0,-220.0,-126.0,-511.0,13.0,-36.0,9.0,-844.0,-542.0
-6.0,-219.0,-122.0,-514.0,13.0,-30.0,4.0,-845.0,-550.0
-8.0,-219.0,-122.0,-514.0,15.0,-22.0,1.0,-844.0,-555.0
-6.0,-217.0,-128.0,-515.0,17.0,-15.0,-3.0,-851.0,-552.0
-8.0,-224.0,-124.0,-517.0,19.0,-6.0,-14.0,-853.0,-555.0
-11.0,-223.0,-126.0,-520.0,23.0,2.0,-20.0,-863.0,-553.0
-12.0,-227.0,-127.0,-522.0,30.0,9.0,-16.0,-855.0,-555.0
-9.0,-223.0,-123.0,-526.0,39.0,17.0,-7.0,-852.0,-556.0
-7.0,-225.0,-123.0,-531.0,46.0,22.0,-8.0,-850.0,-555.0
-7.0,-221.0,-126.0,-537.0,53.0,25.0,-8.0,-846.0,-555.0
-7.0,-220.0,-127.0,-544.0,61.0,27.0,-7.0,-845.0,-557.0
-7.0,-217.0,-124.0,-554.0,67.0,28.0,-2.0,-836.0,-555.0
-3.0,-212.0,-125.0,-567.0,71.0,30.0,-1.0,-835.0,-559.0
-8.0,-216.0,-124.0,-580.0,73.0,32.0,0.0,-829.0,-556.0
-1.0,-214.0,-128.0,-593.0,74.0,35.0,3.0,-822.0,-560.0
-3.0,-212.0,-129.0,-607.0,74.0,40.0,14.0,-818.0,-559.0
-4.0,-213.0,-129.0,-617.0,73.0,42.0,6.0,-821.0,-565.0
-2.0,-211.0,-126.0,-629.0,71.0,44.0,8.0,-814.0,-563.0
-6.0,-208.0,-130.0,-637.0,70.0,47.0,5.0,-807.0,-566.0
-4.0,-211.0,-135.0,-648.0,69.0,48.0,4.0,-801.0,-571.0
-8.0,-210.0,-130.0,-655.0,67.0,51.0,-3.0,-799.0,-571.0
-2.0,-206.0,-131.0,-664.0,66.0,53.0,-3.0,-798.0,-574.0
-9.0,-207.0,-130.0,-673.0,65.0,53.0,-6.0,-796.0,-575.0
-5.0,-208.0,-133.0,-682.0,65.0,55.0,-4.0,-799.0,-580.0
-5.0,-211.0,-131.0,-695.0,66.0,57.0,-2.0,-797.0,-584.0
-10.0,-204.0,-134.0,-709.0,67.0,57.0,0.0,-800.0,-585.0
-7.0,-209.0,-138.0,-726.0,69.0,61.0,-3.0,-799.0,-597.0
-8.0,-206.0,-140.0,-740.0,71.0,61.0,2.0,-798.0,-602.0
-4.0,-208.0,-136.0,-752.0,71.0,58.0,2.0,-799.0,-610.0
-8.0,-206.0,-138.0,-763.0,72.0,54.0,-3.0,-796.0,-613.0
-4.0,-211.0,-142.0,-772.0,70.0,49.0,3.0,-796.0,-624.0
-5.0,-207.0,-146.0,-782.0,70.0,42.0,5.0,-799.0,-631.0
-1.0,-209.0,-146.0,-793.0,73.0,33.0,8.0,-798.0,-636.0
-6.0,-207.0,-146.0,-807.0,75.0,26.0,6.0,-797.0,-644.0
0.0,-207.0,-149.0,-824.0,76.0,18.0,12.0,-794.0,-658.0
-2.0,-204.0,-154.0,-844.0,84.0,11.0,11.0,-787.0,-669.0
0.0,-200.0,-158.0,-867.0,92.0,3.0,14.0,-779.0,-674.0
0.0,-200.0,-162.0,-892.0,102.0,-3.0,15.0,-760.0,-692.0
2.0,-192.0,-161.0,-920.0,111.0,-5.0,16.0,-749.0,-702.0
0.0,-191.0,-164.0,-948.0,121.0,-5.0,18.0,-732.0,-710.0
-1.0,-188.0,-165.0,-976.0,131.0,-7.0,16.0,-722.0,-725.0
-2.0,-185.0,-166.0,-999.0,141.0,-4.0,13.0,-703.0,-732.0
-3.0,-178.0,-171.0,-1018.0,150.0,1.0,17.0,-692.0,-737.0
-2.0,-182.0,-172.0,-1036.0,158.0,2.0,10.0,-686.0,-750.0
-2.0,-182.0,-178.0,-1051.0,166.0,7.0,4.0,-684.0,-752.0
-2.0,-184.0,-176.0,-1068.0,171.0,11.0,1.0,-682.0,-764.0
-9.0,-180.0,-174.0,-1088.0,172.0,15.0,-7.0,-683.0,-771.0
-8.0,-179.0,-180.0,-1110.0,173.0,18.0,-6.0,-686.0,-776.0
-11.0,-179.0,-185.0,-1132.0,172.0,22.0,-15.0,-687.0,-785.0
-10.0,-183.0,-181.0,-1150.0,169.0,24.0,-22.0,-689.0,-790.0
-12.0,-184.0,-185.0,-1162.0,167.0,29.0,-23.0,-695.0,-793.0
-9.0,-187.0,-185.0,-1169.0,163.0,29.0,-26.0,-703.0,-795.0
-15.0,-187.0,-182.0,-1173.0,160.0,28.0,-29.0,-711.0,-798.0
-10.0,-188.0,-183.0,-1178.0,158.0,28.0,-29.0,-718.0,-798.0
-14.0,-188.0,-185.0,-1185.0,154.0,25.0,-27.0,-716.0,-805.0
-12.0,-186.0,-186.0,-1196.0,149.0,23.0,-29.0,-715.0,-808.0
-12.0,-185.0,-188.0,-1205.0,139.0,24.0,-23.0,-715.0,-820.0
-12.0,-185.0,-190.0,-1209.0,132.0,23.0,-28.0,-709.0,-820.0
-12.0,-186.0,-190.0,-1206.0,121.0,25.0,-26.0,-699.0,-831.0
-8.0,-187.0,-194.0,-1200.0,115.0,27.0,-21.0,-713.0,-842.0
-10.0,-187.0,-196.0,-1188.0,110.0,27.0,-21.0,-709.0,-845.0
-9.0,-186.0,-195.0,-1175.0,104.0,30.0,-17.0,-706.0,-851.0
-7.0,-189.0,-199.0,-1154.0,101.0,34.0,-10.0,-708.0,-856.0
-5.0,-190.0,-202.0,-1133.0,99.0,43.0,-4.0,-714.0,-867.0
-2.0,-191.0,-201.0,-1104.0,97.0,49.0,8.0,-712.0,-872.0
-3.0,-187.0,-207.0,-1071.0,95.0,60.0,8.0,-711.0,-889.0
0.0,-188.0,-211.0,-1029.0,95.0,70.0,13.0,-715.0,-902.0
1.0,-188.0,-214.0,-983.0,97.0,76.0,14.0,-710.0,-916.0
1.0,-189.0,-213.0,-939.0,99.0,85.0,17.0,-705.0,-929.0
0.0,-186.0,-221.0,-899.0,106.0,93.0,7.0,-708.0,-947.0
-5.0,-187.0,-226.0,-864.0,113.0,102.0,6.0,-696.0,-968.0
-3.0,-184.0,-232.0,-838.0,123.0,113.0,10.0,-684.0,-987.0
-1.0,-183.0,-240.0,-816.0,134.0,125.0,13.0,-674.0,-1015.0
-1.0,-175.0,-247.0,-798.0,148.0,133.0,15.0,-662.0,-1048.0
1.0,-170.0,-246.0,-783.0,158.0,139.0,14.0,-647.0,-1064.0
-2.0,-168.0,-257.0,-773.0,166.0,143.0,14.0,-626.0,-1088.0
-4.0,-161.0,-262.0,-768.0,172.0,144.0,12.0,-597.0,-1115.0
-4.0,-154.0,-269.0,-771.0,176.0,144.0,8.0,-578.0,-1130.0
-4.0,-148.0,-270.0,-777.0,180.0,140.0,-3.0,-552.0,-1149.0
-2.0,-140.0,-275.0,-782.0,180.0,133.0,-2.0,-539.0,-1162.0
-2.0,-141.0,-277.0,-790.0,180.0,125.0,-9.0,-521.0,-1174.0
-6.0,-137.0,-277.0,-795.0,184.0,112.0,-10.0,-519.0,-1176.0
-5.0,-138.0,-278.0,-798.0,187.0,96.0,-1.0,-516.0,-1180.0
0.0,-138.0,-275.0,-803.0,193.0,76.0,15.0,-523.0,-1181.0
1.0,-144.0,-280.0,-805.0,199.0,52.0,22.0,-537.0,-1179.0
4.0,-153.0,-277.0,-812.0,208.0,21.0,30.0,-565.0,-1178.0
2.0,-158.0,-275.0,-817.0,216.0,-9.0,36.0,-590.0,-1176.0
3.0,-166.0,-277.0,-826.0,219.0,-46.0,36.0,-625.0,-1176.0
1.0,-173.0,-275.0,-834.0,218.0,-83.0,25.0,-654.0,-1174.0
1.0,-183.0,-276.0,-841.0,212.0,-118.0,17.0,-672.0,-1176.0
-6.0,-184.0,-275.0,-842.0,204.0,-149.0,6.0,-688.0,-1172.0
-7.0,-187.0,-276.0,-836.0,194.0,-167.0,-13.0,-707.0,-1178.0
-9.0,-193.0,-274.0,-822.0,184.0,-174.0,-23.0,-721.0,-1171.0
-11.0,-196.0,-273.0,-796.0,177.0,-170.0,-27.0,-734.0,-1166.0
-10.0,-199.0,-275.0,-759.0,172.0,-157.0,-29.0,-746.0,-1158.0
-12.0,-204.0,-271.0,-710.0,165.0,-141.0,-29.0,-753.0,-1149.0
-12.0,-201.0,-266.0,-650.0,154.0,-125.0,-20.0,-765.0,-1141.0
-6.0,-205.0,-264.0,-579.0,138.0,-111.0,-10.0,-764.0,-1130.0
-8.0,-203.0,-261.0,-502.0,118.0,-102.0,-3.0,-759.0,-1119.0
-2.0,-203.0,-256.0,-421.0,96.0,-97.0,6.0,-749.0,-1107.0
-3.0,-196.0,-258.0,-333.0,76.0,-93.0,11.0,-729.0,-1098.0
0.0,-189.0,-250.0,-246.0,58.0,-87.0,7.0,-705.0,-1080.0
4.0,-184.0,-248.0,-160.0,47.0,-81.0,14.0,-674.0,-1076.0
0.0,-179.0,-245.0,-79.0,44.0,-77.0,20.0,-654.0,-1058.0
0.0,-170.0,-242.0,-2.0,46.0,-72.0,21.0,-634.0,-1044.0
1.0,-167.0,-243.0,59.0,55.0,-69.0,21.0,-610.0,-1026.0
0.0,-159.0,-234.0,107.0,68.0,-74.0,15.0,-591.0,-1004.0
0.0,-157.0,-228.0,142.0,84.0,-76.0,17.0,-578.0,-990.0
0.0,-153.0,-227.0,165.0,101.0,-77.0,10.0,-563.0,-974.0
-3.0,-150.0,-224.0,171.0,116.0,-73.0,15.0,-557.0,-967.0
0.0,-147.0,-223.0,165.0,133.0,-74.0,11.0,-556.0,-959.0
1.0,-149.0,-219.0,153.0,147.0,-75.0,15.0,-550.0,-952.0
0.0,-144.0,-220.0,141.0,156.0,-79.0,15.0,-538.0,-946.0
2.0,-146.0,-219.0,133.0,169.0,-72.0,27.0,-550.0,-944.0
1.0,-147.0,-215.0,123.0,179.0,-67.0,27.0,-548.0,-941.0
1.0,-144.0,-220.0,113.0,185.0,-63.0,27.0,-555.0,-947.0
2.0,-150.0,-217.0,109.0,193.0,-57.0,25.0,-556.0,-950.0
4.0,-155.0,-219.0,115.0,198.0,-53.0,26.0,-558.0,-949.0
0.0,-152.0,-220.0,128.0,199.0,-46.0,20.0,-571.0,-952.0
0.0,-156.0,-221.0,149.0,199.0,-40.0,17.0,-578.0,-952.0
-2.0,-157.0,-220.0,179.0,197.0,-31.0,18.0,-578.0,-955.0
-3.0,-159.0,-220.0,217.0,193.0,-21.0,9.0,-594.0,-956.0
-5.0,-162.0,-223.0,257.0,189.0,-13.0,9.0,-607.0,-956.0
-6.0,-166.0,-222.0,301.0,185.0,-6.0,2.0,-621.0,-951.0
-3.0,-171.0,-221.0,341.0,180.0,-1.0,0.0,-631.0,-950.0
-3.0,-174.0,-223.0,392.0,176.0,3.0,-2.0,-643.0,-954.0
-5.0,-171.0,-216.0,449.0,174.0,16.0,10.0,-653.0,-945.0
-2.0,-177.0,-219.0,508.0,170.0,23.0,-5.0,-660.0,-942.0
-5.0,-178.0,-216.0,561.0,168.0,20.0,-9.0,-660.0,-934.0
-7.0,-179.0,-213.0,617.0,162.0,12.0,-12.0,-665.0,-928.0
-5.0,-178.0,-213.0,668.0,159.0,14.0,-3.0,-665.0,-916.0
-4.0,-179.0,-213.0,712.0,153.0,16.0,-3.0,-659.0,-906.0
0.0,-178.0,-210.0,757.0,149.0,23.0,7.0,-659.0,-900.0
2.0,-171.0,-205.0,800.0,149.0,27.0,13.0,-657.0,-895.0
0.0,-172.0,-205.0,841.0,148.0,29.0,12.0,-653.0,-881.0
0.0,-173.0,-204.0,878.0,148.0,32.0,18.0,-647.0,-869.0
0.0,-175.0,-199.0,915.0,148.0,37.0,21.0,-647.0,-855.0
1.0,-170.0,-195.0,950.0,148.0,41.0,25.0,-636.0,-854.0
1.0,-168.0,-194.0,984.0,147.0,45.0,31.0,-629.0,-845.0
4.0,-165.0,-198.0,1017.0,147.0,52.0,32.0,-608.0,-848.0
2.0,-162.0,-191.0,1049.0,146.0,56.0,34.0,-608.0,-844.0
2.0,-159.0,-197.0,1079.0,148.0,62.0,36.0,-599.0,-849.0
1.0,-156.0,-195.0,1104.0,149.0,70.0,37.0,-591.0,-845.0
4.0,-158.0,-203.0,1127.0,152.0,80.0,39.0,-584.0,-849.0
6.0,-152.0,-198.0,1146.0,154.0,91.0,38.0,-568.0,-857.0
4.0,-153.0,-202.0,1156.0,156.0,104.0,45.0,-571.0,-861.0
7.0,-151.0,-198.0,1162.0,159.0,116.0,38.0,-560.0,-860.0
7.0,-148.0,-200.0,1165.0,162.0,125.0,41.0,-556.0,-859.0
8.0,-155.0,-199.0,1170.0,166.0,146.0,55.0,-565.0,-871.0
6.0,-153.0,-203.0,1172.0,168.0,165.0,41.0,-568.0,-865.0
3.0,-153.0,-198.0,1166.0,173.0,169.0,35.0,-568.0,-857.0
1.0,-152.0,-199.0,1162.0,173.0,170.0,28.0,-565.0,-850.0
2.0,-153.0,-195.0,1167.0,171.0,176.0,19.0,-560.0,-849.0
2.0,-148.0,-197.0,1175.0,167.0,181.0,18.0,-550.0,-839.0
-2.0,-141.0,-198.0,1187.0,163.0,193.0,14.0,-547.0,-842.0
-1.0,-145.0,-193.0,1198.0,164.0,201.0,10.0,-542.0,-844.0
0.0,-143.0,-194.0,1210.0,163.0,205.0,2.0,-536.0,-841.0
-1.0,-146.0,-189.0,1220.0,162.0,204.0,10.0,-535.0,-821.0
-5.0,-142.0,-189.0,1231.0,161.0,201.0,9.0,-524.0,-817.0
-4.0,-139.0,-185.0,1236.0,158.0,198.0,-2.0,-521.0,-810.0
-1.0,-136.0,-187.0,1237.0,156.0,193.0,4.0,-506.0,-802.0
-5.0,-131.0,-186.0,1231.0,153.0,194.0,-1.0,-495.0,-806.0
-3.0,-129.0,-183.0,1219.0,149.0,192.0,-4.0,-478.0,-797.0
-1.0,-123.0,-187.0,1202.0,148.0,189.0,-1.0,-467.0,-798.0
-4.0,-121.0,-185.0,1177.0,150.0,185.0,-2.0,-448.0,-793.0
-1.0,-119.0,-185.0,1143.0,148.0,179.0,0.0,-436.0,-796.0
-2.0,-112.0,-187.0,1104.0,147.0,174.0,2.0,-424.0,-806.0
-1.0,-107.0,-188.0,1060.0,146.0,170.0,8.0,-405.0,-809.0
-2.0,-104.0,-190.0,1009.0,146.0,163.0,7.0,-384.0,-813.0
0.0,-101.0,-188.0,956.0,145.0,157.0,11.0,-375.0,-809.0
0.0,-97.0,-187.0,902.0,141.0,151.0,6.0,-360.0,-806.0
0.0,-96.0,-189.0,851.0,137.0,149.0,7.0,-355.0,-803.0
0.0,-95.0,-189.0,799.0,132.0,148.0,2.0,-348.0,-802.0
0.0,-89.0,-187.0,746.0,123.0,147.0,4.0,-331.0,-801.0
-3.0,-91.0,-188.0,697.0,112.0,142.0,1.0,-336.0,-805.0
-5.0,-85.0,-189.0,647.0,102.0,141.0,-5.0,-323.0,-801.0
-3.0,-85.0,-190.0,596.0,91.0,139.0,-8.0,-319.0,-803.0
-1.0,-86.0,-186.0,551.0,81.0,137.0,-3.0,-310.0,-801.0
-4.0,-83.0,-183.0,505.0,72.0,135.0,-4.0,-308.0,-797.0
-1.0,-83.0,-183.0,458.0,63.0,133.0,-5.0,-309.0,-794.0
-1.0,-82.0,-179.0,412.0,54.0,130.0,-4.0,-307.0,-789.0
-3.0,-79.0,-184.0,370.0,47.0,128.0,-3.0,-305.0,-790.0
-2.0,-82.0,-181.0,327.0,38.0,123.0,-2.0,-299.0,-782.0
0.0,-84.0,-178.0,286.0,31.0,120.0,7.0,-300.0,-778.0
0.0,-79.0,-179.0,247.0,27.0,116.0,0.0,-298.0,-773.0
0.0,-78.0,-177.0,205.0,22.0,112.0,5.0,-297.0,-775.0
0.0,-79.0,-177.0,164.0,20.0,108.0,7.0,-288.0,-774.0
-2.0,-80.0,-179.0,123.0,21.0,106.0,4.0,-291.0,-776.0
1.0,-78.0,-175.0,80.0,20.0,104.0,4.0,-289.0,-777.0
0.0,-79.0,-181.0,38.0,24.0,100.0,5.0,-294.0,-774.0
0.0,-77.0,-174.0,-6.0,29.0,96.0,8.0,-295.0,-778.0
1.0,-79.0,-179.0,-43.0,36.0,92.0,7.0,-293.0,-778.0
1.0,-78.0,-178.0,-78.0,46.0,88.0,14.0,-294.0,-777.0
2.0,-82.0,-181.0,-107.0,56.0,82.0,18.0,-292.0,-778.0
1.0,-76.0,-180.0,-135.0,65.0,76.0,21.0,-287.0,-780.0
3.0,-75.0,-180.0,-161.0,73.0,70.0,23.0,-278.0,-779.0
3.0,-74.0,-180.0,-186.0,77.0,66.0,28.0,-266.0,-780.0
2.0,-71.0,-180.0,-214.0,79.0,60.0,27.0,-251.0,-780.0
5.0,-67.0,-181.0,-242.0,77.0,55.0,29.0,-242.0,-778.0
4.0,-65.0,-175.0,-269.0,75.0,50.0,30.0,-237.0,-768.0
2.0,-59.0,-171.0,-301.0,72.0,47.0,29.0,-223.0,-764.0
2.0,-58.0,-172.0,-337.0,68.0,41.0,20.0,-219.0,-762.0
5.0,-57.0,-175.0,-375.0,64.0,37.0,28.0,-210.0,-751.0
2.0,-58.0,-174.0,-415.0,62.0,30.0,27.0,-202.0,-748.0
4.0,-54.0,-172.0,-456.0,63.0,26.0,31.0,-201.0,-736.0
7.0,-58.0,-165.0,-502.0,67.0,21.0,30.0,-196.0,-727.0
5.0,-56.0,-165.0,-549.0,72.0,17.0,33.0,-206.0,-716.0
3.0,-58.0,-163.0,-597.0,78.0,11.0,33.0,-210.0,-708.0
2.0,-59.0,-163.0,-645.0,84.0,8.0,34.0,-218.0,-703.0
5.0,-60.0,-164.0,-693.0,90.0,5.0,32.0,-224.0,-701.0
7.0,-66.0,-162.0,-739.0,93.0,2.0,38.0,-228.0,-705.0
4.0,-66.0,-164.0,-783.0,96.0,-3.0,37.0,-245.0,-707.0
8.0,-70.0,-161.0,-824.0,95.0,-3.0,34.0,-252.0,-706.0
7.0,-73.0,-165.0,-860.0,96.0,-1.0,39.0,-269.0,-706.0
5.0,-76.0,-163.0,-889.0,92.0,0.0,33.0,-278.0,-710.0
4.0,-80.0,-165.0,-913.0,88.0,1.0,35.0,-286.0,-711.0
5.0,-80.0,-166.0,-932.0,79.0,4.0,27.0,-292.0,-714.0
0.0,-76.0,-167.0,-946.0,66.0,5.0,30.0,-293.0,-720.0
0.0,-80.0,-165.0,-960.0,50.0,9.0,22.0,-291.0,-719.0
0.0,-83.0,-163.0,-970.0,30.0,9.0,21.0,-287.0,-728.0
-2.0,-75.0,-162.0,-976.0,3.0,7.0,20.0,-281.0,-720.0
0.0,-76.0,-163.0,-979.0,-27.0,3.0,16.0,-267.0,-702.0
-1.0,-73.0,-156.0,-978.0,-56.0,-4.0,5.0,-270.0,-691.0
-2.0,-74.0,-156.0,-966.0,-87.0,-10.0,5.0,-265.0,-662.0
-4.0,-72.0,-149.0,-956.0,-119.0,-15.0,-4.0,-263.0,-633.0
-1.0,-72.0,-138.0,-934.0,-147.0,-23.0,-5.0,-265.0,-607.0
-3.0,-71.0,-134.0,-911.0,-171.0,-32.0,-7.0,-254.0,-585.0
-3.0,-69.0,-129.0,-891.0,-187.0,-42.0,-3.0,-251.0,-568.0
-3.0,-68.0,-127.0,-883.0,-199.0,-53.0,7.0,-245.0,-561.0
1.0,-62.0,-127.0,-901.0,-209.0,-67.0,18.0,-243.0,-558.0
2.0,-62.0,-128.0,-943.0,-210.0,-80.0,24.0,-242.0,-559.0
1.0,-67.0,-128.0,-1001.0,-206.0,-87.0,31.0,-247.0,-569.0
5.0,-74.0,-136.0,-1068.0,-203.0,-91.0,29.0,-267.0,-596.0
6.0,-77.0,-150.0,-1141.0,-200.0,-95.0,34.0,-293.0,-651.0
2.0,-82.0,-165.0,-1222.0,-200.0,-99.0,37.0,-321.0,-711.0
8.0,-95.0,-182.0,-1304.0,-204.0,-104.0,42.0,-362.0,-785.0
6.0,-110.0,-196.0,-1380.0,-212.0,-110.0,41.0,-402.0,-850.0
7.0,-122.0,-215.0,-1444.0,-217.0,-110.0,36.0,-461.0,-918.0
3.0,-135.0,-226.0,-1492.0,-214.0,-105.0,34.0,-521.0,-968.0
0.0,-151.0,-240.0,-1527.0,-200.0,-95.0,16.0,-573.0,-1012.0
0.0,-170.0,-244.0,-1551.0,-181.0,-83.0,9.0,-638.0,-1043.0
-7.0,-199.0,-238.0,-1548.0,-165.0,-74.0,-9.0,-720.0,-1021.0
-18.0,-218.0,-225.0,-1490.0,-157.0,-74.0,-35.0,-812.0,-989.0
-17.0,-233.0,-224.0,-1350.0,-147.0,-73.0,-47.0,-864.0,-970.0
-25.0,-238.0,-219.0,-1148.0,-133.0,-77.0,-69.0,-886.0,-971.0
-21.0,-244.0,-223.0,-918.0,-116.0,-98.0,-75.0,-881.0,-964.0
-23.0,-233.0,-220.0,-685.0,-99.0,-125.0,-75.0,-866.0,-956.0
-22.0,-233.0,-218.0,-460.0,-75.0,-151.0,-69.0,-851.0,-945.0
-20.0,-220.0,-218.0,-249.0,-40.0,-168.0,-79.0,-823.0,-947.0
-20.0,-211.0,-214.0,-79.0,7.0,-166.0,-77.0,-789.0,-948.0
-19.0,-200.0,-224.0,40.0,62.0,-149.0,-63.0,-759.0,-953.0
-16.0,-198.0,-225.0,108.0,110.0,-122.0,-42.0,-741.0,-963.0
-10.0,-190.0,-233.0,138.0,147.0,-94.0,-17.0,-728.0,-993.0
-1.0,-191.0,-247.0,147.0,162.0,-76.0,7.0,-720.0,-1038.0
5.0,-185.0,-265.0,147.0,163.0,-69.0,38.0,-693.0,-1111.0
11.0,-186.0,-277.0,144.0,160.0,-71.0,65.0,-682.0,-1183.0
15.0,-182.0,-295.0,146.0,154.0,-78.0,77.0,-675.0,-1241.0
10.0,-188.0,-301.0,161.0,145.0,-86.0,73.0,-699.0,-1287.0
5.0,-196.0,-304.0,198.0,128.0,-101.0,51.0,-741.0,-1306.0
0.0,-223.0,-308.0,259.0,101.0,-125.0,21.0,-819.0,-1318.0
-10.0,-245.0,-310.0,340.0,76.0,-163.0,-12.0,-902.0,-1324.0
-19.0,-267.0,-303.0,433.0,57.0,-200.0,-43.0,-1010.0,-1311.0
-29.0,-292.0,-292.0,530.0,49.0,-235.0,-75.0,-1097.0,-1262.0
-40.0,-314.0,-270.0,626.0,48.0,-257.0,-114.0,-1179.0,-1176.0
-52.0,-329.0,-246.0,713.0,53.0,-265.0,-157.0,-1250.0,-1079.0
-61.0,-338.0,-222.0,788.0,54.0,-254.0,-214.0,-1288.0,-954.0
-71.0,-335.0,-198.0,840.0,52.0,-223.0,-255.0,-1284.0,-835.0
-73.0,-335.0,-162.0,861.0,42.0,-185.0,-264.0,-1281.0,-704.0
-75.0,-336.0,-126.0,870.0,23.0,-133.0,-259.0,-1288.0,-562.0
-67.0,-364.0,-92.0,905.0,9.0,-80.0,-234.0,-1409.0,-423.0
-50.0,-474.0,-41.0,1015.0,22.0,-52.0,-168.0,-1716.0,-214.0
-34.0,-575.0,-105.0,1227.0,28.0,-45.0,-92.0,-2083.0,-372.0
-16.0,-620.0,-177.0,1388.0,31.0,-58.0,-28.0,-2353.0,-682.0
-1.0,-602.0,-287.0,1559.0,30.0,-63.0,59.0,-2349.0,-1099.0
66.0,-433.0,-448.0,1725.0,-3.0,-61.0,245.0,-1755.0,-1691.0
51.0,-184.0,-596.0,1665.0,-20.0,-125.0,261.0,-997.0,-2492.0
59.0,33.0,-783.0,1299.0,-34.0,-183.0,213.0,121.0,-3242.0
41.0,212.0,-895.0,786.0,-36.0,-243.0,128.0,764.0,-3707.0
53.0,237.0,-842.0,273.0,4.0,-379.0,154.0,952.0,-3585.0
31.0,64.0,-626.0,-68.0,112.0,-405.0,114.0,385.0,-2737.0
26.0,-146.0,-435.0,-46.0,184.0,-389.0,117.0,-443.0,-1914.0
22.0,-278.0,-320.0,131.0,159.0,-393.0,123.0,-986.0,-1424.0
16.0,-343.0,-255.0,342.0,86.0,-374.0,128.0,-1233.0,-1134.0
22.0,-361.0,-191.0,663.0,-23.0,-312.0,155.0,-1325.0,-869.0
36.0,-361.0,-122.0,1110.0,-176.0,-241.0,217.0,-1314.0,-600.0
45.0,-354.0,-77.0,1622.0,-351.0,-196.0,247.0,-1295.0,-391.0
37.0,-334.0,-57.0,2097.0,-463.0,-180.0,205.0,-1264.0,-252.0
23.0,-309.0,-51.0,2428.0,-437.0,-145.0,87.0,-1164.0,-235.0
2.0,-265.0,-67.0,2564.0,-279.0,-73.0,-24.0,-995.0,-309.0
-14.0,-241.0,-96.0,2532.0,-13.0,48.0,-70.0,-942.0,-429.0
-36.0,-195.0,-120.0,2278.0,242.0,111.0,-144.0,-793.0,-514.0
-49.0,-149.0,-134.0,1913.0,450.0,72.0,-184.0,-616.0,-587.0
-48.0,-124.0,-141.0,1571.0,575.0,-5.0,-167.0,-519.0,-625.0
-45.0,-116.0,-125.0,1235.0,581.0,-104.0,-148.0,-455.0,-567.0
-39.0,-119.0,-110.0,980.0,505.0,-216.0,-103.0,-455.0,-480.0
-23.0,-142.0,-84.0,838.0,379.0,-306.0,-59.0,-522.0,-383.0
-17.0,-167.0,-56.0,822.0,241.0,-368.0,-36.0,-620.0,-279.0
-7.0,-200.0,-28.0,914.0,123.0,-388.0,-4.0,-720.0,-174.0
-7.0,-210.0,-17.0,1073.0,27.0,-390.0,11.0,-783.0,-121.0
0.0,-214.0,-13.0,1262.0,-44.0,-373.0,22.0,-797.0,-88.0
3.0,-207.0,-9.0,1447.0,-93.0,-340.0,45.0,-780.0,-81.0
7.0,-191.0,-10.0,1594.0,-119.0,-286.0,58.0,-728.0,-79.0
10.0,-181.0,-7.0,1698.0,-128.0,-222.0,56.0,-688.0,-78.0
6.0,-165.0,-13.0,1756.0,-125.0,-153.0,49.0,-644.0,-91.0
3.0,-161.0,-20.0,1767.0,-115.0,-86.0,39.0,-618.0,-125.0
4.0,-158.0,-32.0,1719.0,-104.0,-34.0,35.0,-615.0,-154.0
4.0,-159.0,-39.0,1616.0,-92.0,1.0,38.0,-633.0,-204.0
7.0,-168.0,-56.0,1464.0,-75.0,17.0,48.0,-662.0,-257.0
15.0,-180.0,-74.0,1271.0,-52.0,20.0,75.0,-721.0,-328.0
21.0,-196.0,-82.0,1051.0,-22.0,14.0,117.0,-786.0,-385.0
32.0,-217.0,-98.0,825.0,12.0,5.0,137.0,-860.0,-431.0
36.0,-242.0,-107.0,608.0,46.0,-7.0,167.0,-950.0,-478.0
41.0,-264.0,-119.0,416.0,73.0,-20.0,183.0,-1030.0,-525.0
38.0,-278.0,-133.0,250.0,98.0,-33.0,190.0,-1092.0,-577.0
36.0,-292.0,-142.0,122.0,122.0,-47.0,183.0,-1135.0,-623.0
34.0,-305.0,-149.0,59.0,142.0,-57.0,164.0,-1155.0,-657.0
26.0,-308.0,-155.0,46.0,154.0,-66.0,134.0,-1166.0,-692.0
19.0,-311.0,-160.0,109.0,155.0,-65.0,110.0,-1161.0,-712.0
7.0,-309.0,-160.0,254.0,144.0,-64.0,78.0,-1153.0,-723.0
1.0,-301.0,-161.0,468.0,128.0,-61.0,45.0,-1108.0,-707.0
-2.0,-286.0,-160.0,728.0,101.0,-56.0,15.0,-1063.0,-691.0
-8.0,-271.0,-151.0,995.0,74.0,-50.0,-2.0,-1011.0,-667.0
-10.0,-253.0,-145.0,1224.0,53.0,-47.0,-7.0,-944.0,-628.0
-12.0,-232.0,-134.0,1385.0,43.0,-49.0,-11.0,-887.0,-581.0
-7.0,-212.0,-120.0,1478.0,43.0,-54.0,-8.0,-830.0,-550.0
-6.0,-193.0,-112.0,1503.0,50.0,-67.0,-9.0,-781.0,-510.0
-5.0,-181.0,-114.0,1463.0,59.0,-80.0,-7.0,-728.0,-489.0
-4.0,-178.0,-106.0,1371.0,66.0,-92.0,10.0,-699.0,-476.0
-1.0,-172.0,-104.0,1238.0,64.0,-104.0,19.0,-683.0,-469.0
0.0,-171.0,-100.0,1075.0,54.0,-116.0,26.0,-674.0,-470.0
1.0,-173.0,-107.0,902.0,39.0,-124.0,32.0,-682.0,-481.0
2.0,-180.0,-107.0,732.0,31.0,-127.0,31.0,-699.0,-491.0
0.0,-185.0,-112.0,584.0,34.0,-125.0,27.0,-719.0,-495.0
-1.0,-194.0,-112.0,466.0,51.0,-118.0,18.0,-743.0,-498.0
-1.0,-201.0,-112.0,386.0,78.0,-104.0,11.0,-774.0,-502.0
-5.0,-207.0,-112.0,341.0,111.0,-85.0,0.0,-797.0,-497.0
-5.0,-212.0,-113.0,326.0,149.0,-64.0,-3.0,-813.0,-503.0
-8.0,-216.0,-110.0,332.0,191.0,-38.0,-8.0,-824.0,-502.0
-9.0,-218.0,-114.0,352.0,223.0,-12.0,-7.0,-831.0,-506.0
-9.0,-225.0,-113.0,380.0,244.0,16.0,-9.0,-852.0,-508.0
-8.0,-224.0,-112.0,406.0,246.0,33.0,-9.0,-857.0,-498.0
-3.0,-227.0,-107.0,427.0,234.0,43.0,2.0,-862.0,-483.0
-7.0,-228.0,-104.0,444.0,206.0,36.0,4.0,-858.0,-479.0
-4.0,-224.0,-105.0,449.0,172.0,28.0,8.0,-857.0,-469.0
-5.0,-223.0,-102.0,440.0,134.0,31.0,20.0,-853.0,-460.0
-1.0,-221.0,-103.0,417.0,99.0,35.0,17.0,-851.0,-450.0
-3.0,-216.0,-100.0,386.0,67.0,38.0,17.0,-839.0,-448.0
-2.0,-217.0,-98.0,341.0,41.0,43.0,23.0,-840.0,-443.0
0.0,-218.0,-94.0,290.0,22.0,49.0,20.0,-838.0,-440.0
1.0,-220.0,-97.0,240.0,12.0,51.0,22.0,-835.0,-442.0
0.0,-214.0,-103.0,196.0,9.0,51.0,20.0,-840.0,-447.0
0.0,-220.0,-101.0,163.0,12.0,50.0,32.0,-843.0,-454.0
1.0,-224.0,-103.0,142.0,16.0,47.0,35.0,-852.0,-453.0
3.0,-225.0,-106.0,133.0,24.0,44.0,43.0,-856.0,-470.0
5.0,-229.0,-110.0,131.0,30.0,40.0,48.0,-863.0,-475.0
9.0,-226.0,-107.0,132.0,33.0,36.0,58.0,-866.0,-489.0
8.0,-227.0,-110.0,134.0,36.0,33.0,66.0,-869.0,-500.0
11.0,-227.0,-115.0,134.0,39.0,31.0,70.0,-870.0,-505.0
13.0,-229.0,-114.0,132.0,43.0,31.0,74.0,-871.0,-510.0
14.0,-230.0,-121.0,128.0,47.0,35.0,80.0,-871.0,-520.0
14.0,-229.0,-119.0,124.0,51.0,41.0,86.0,-876.0,-525.0
19.0,-232.0,-123.0,121.0,59.0,46.0,92.0,-879.0,-522.0
15.0,-229.0,-115.0,120.0,68.0,54.0,89.0,-877.0,-519.0
16.0,-231.0,-115.0,125.0,76.0,63.0,90.0,-886.0,-513.0
16.0,-233.0,-118.0,132.0,83.0,73.0,89.0,-892.0,-505.0
15.0,-239.0,-110.0,141.0,91.0,83.0,86.0,-901.0,-495.0
13.0,-239.0,-105.0,148.0,98.0,91.0,83.0,-904.0,-482.0
12.0,-239.0,-104.0,154.0,105.0,96.0,73.0,-913.0,-471.0
11.0,-243.0,-106.0,160.0,114.0,98.0,64.0,-918.0,-458.0
5.0,-243.0,-99.0,168.0,127.0,99.0,61.0,-917.0,-442.0
7.0,-246.0,-93.0,176.0,141.0,100.0,54.0,-923.0,-434.0
1.0,-244.0,-102.0,184.0,155.0,99.0,38.0,-927.0,-425.0
2.0,-242.0,-94.0,193.0,167.0,97.0,35.0,-922.0,-418.0
0.0,-241.0,-85.0,195.0,181.0,96.0,27.0,-919.0,-412.0
0.0,-243.0,-89.0,194.0,195.0,95.0,21.0,-916.0,-413.0
0.0,-242.0,-88.0,186.0,204.0,94.0,13.0,-912.0,-409.0
0.0,-237.0,-92.0,174.0,209.0,94.0,16.0,-910.0,-416.0
-4.0,-236.0,-92.0,158.0,211.0,94.0,11.0,-910.0,-421.0
-5.0,-234.0,-93.0,141.0,212.0,96.0,9.0,-903.0,-417.0
-1.0,-234.0,-92.0,126.0,209.0,99.0,11.0,-902.0,-428.0
-5.0,-235.0,-95.0,112.0,205.0,102.0,6.0,-897.0,-433.0
-7.0,-236.0,-96.0,102.0,199.0,105.0,10.0,-893.0,-441.0
-2.0,-234.0,-98.0,94.0,189.0,109.0,8.0,-896.0,-446.0
-1.0,-234.0,-99.0,87.0,179.0,112.0,8.0,-896.0,-444.0
-5.0,-234.0,-95.0,82.0,168.0,113.0,13.0,-895.0,-452.0
0.0,-234.0,-99.0,79.0,156.0,113.0,16.0,-895.0,-455.0
0.0,-238.0,-104.0,75.0,144.0,113.0,20.0,-896.0,-458.0
0.0,-237.0,-101.0,72.0,133.0,112.0,22.0,-899.0,-455.0
0.0,-236.0,-100.0,69.0,125.0,109.0,26.0,-905.0,-456.0
1.0,-238.0,-99.0,67.0,117.0,107.0,27.0,-909.0,-452.0
-4.0,-238.0,-100.0,68.0,110.0,104.0,24.0,-912.0,-452.0
1.0,-240.0,-100.0,68.0,103.0,102.0,20.0,-916.0,-448.0
0.0,-240.0,-101.0,68.0,99.0,101.0,21.0,-918.0,-453.0
2.0,-242.0,-95.0,67.0,96.0,102.0,20.0,-922.0,-455.0
-2.0,-244.0,-99.0,65.0,95.0,102.0,16.0,-924.0,-452.0
0.0,-243.0,-102.0,65.0,96.0,103.0,14.0,-929.0,-453.0
-1.0,-245.0,-96.0,64.0,100.0,104.0,17.0,-921.0,-452.0
0.0,-243.0,-100.0,65.0,104.0,105.0,16.0,-920.0,-458.0
-4.0,-243.0,-99.0,68.0,108.0,106.0,18.0,-918.0,-457.0
-1.0,-242.0,-100.0,74.0,111.0,108.0,14.0,-917.0,-455.0
-2.0,-240.0,-99.0,81.0,116.0,108.0,17.0,-917.0,-448.0
-1.0,-241.0,-98.0,88.0,119.0,109.0,13.0,-908.0,-447.0
-4.0,-238.0,-98.0,95.0,122.0,110.0,20.0,-910.0,-447.0
-3.0,-238.0,-100.0,101.0,124.0,110.0,13.0,-908.0,-449.0
-1.0,-234.0,-100.0,103.0,127.0,109.0,17.0,-902.0,-448.0
0.0,-236.0,-97.0,103.0,129.0,109.0,12.0,-899.0,-450.0
-2.0,-237.0,-100.0,99.0,131.0,109.0,10.0,-899.0,-448.0
-1.0,-234.0,-98.0,93.0,131.0,108.0,14.0,-898.0,-452.0
-4.0,-235.0,-101.0,84.0,133.0,108.0,9.0,-896.0,-451.0
-4.0,-235.0,-100.0,73.0,132.0,110.0,11.0,-896.0,-449.0
-2.0,-233.0,-99.0,61.0,132.0,107.0,2.0,-896.0,-451.0
-7.0,-236.0,-96.0,49.0,129.0,109.0,4.0,-897.0,-451.0
-5.0,-235.0,-97.0,38.0,124.0,107.0,0.0,-904.0,-452.0
-5.0,-235.0,-98.0,29.0,118.0,107.0,2.0,-903.0,-453.0
-8.0,-236.0,-99.0,18.0,112.0,105.0,-1.0,-905.0,-449.0
-7.0,-241.0,-97.0,11.0,107.0,101.0,-5.0,-910.0,-447.0
-6.0,-239.0,-98.0,2.0,101.0,98.0,0.0,-909.0,-449.0
-10.0,-239.0,-97.0,-5.0,97.0,95.0,-4.0,-915.0,-450.0
-8.0,-241.0,-93.0,-11.0,91.0,91.0,-9.0,-916.0,-447.0
-8.0,-238.0,-97.0,-14.0,86.0,85.0,-10.0,-915.0,-450.0
-11.0,-239.0,-98.0,-14.0,80.0,82.0,-6.0,-912.0,-447.0
-11.0,-238.0,-99.0,-14.0,77.0,76.0,-9.0,-911.0,-448.0
-8.0,-237.0,-98.0,-13.0,74.0,71.0,-4.0,-911.0,-452.0
-9.0,-237.0,-100.0,-10.0,72.0,74.0,-4.0,-904.0,-451.0
-9.0,-239.0,-100.0,0.0,70.0,74.0,-6.0,-918.0,-454.0
-9.0,-240.0,-100.0,-2.0,70.0,65.0,-9.0,-912.0,-453.0
-9.0,-238.0,-98.0,-4.0,67.0,58.0,-6.0,-910.0,-451.0
-10.0,-240.0,-102.0,-6.0,66.0,56.0,-9.0,-912.0,-456.0
-6.0,-241.0,-103.0,-11.0,65.0,55.0,-9.0,-914.0,-452.0
-7.0,-237.0,-102.0,-13.0,68.0,55.0,-7.0,-912.0,-459.0
-8.0,-238.0,-103.0,-16.0,70.0,56.0,-14.0,-918.0,-460.0
-7.0,-240.0,-101.0,-19.0,72.0,60.0,-5.0,-919.0,-461.0
-9.0,-242.0,-103.0,-19.0,72.0,60.0,-8.0,-916.0,-464.0
-9.0,-242.0,-105.0,-19.0,74.0,59.0,-8.0,-916.0,-464.0
-7.0,-238.0,-101.0,-14.0,77.0,59.0,-8.0,-917.0,-467.0
-11.0,-241.0,-103.0,-10.0,79.0,58.0,-4.0,-911.0,-465.0
-9.0,-241.0,-102.0,-8.0,80.0,56.0,2.0,-915.0,-457.0
-10.0,-239.0,-100.0,-5.0,82.0,51.0,2.0,-915.0,-461.0
-3.0,-241.0,-100.0,-1.0,83.0,48.0,1.0,-911.0,-460.0
-7.0,-239.0,-100.0,2.0,84.0,45.0,-2.0,-912.0,-460.0
-9.0,-238.0,-100.0,1.0,84.0,43.0,-2.0,-912.0,-459.0
-5.0,-238.0,-97.0,-1.0,83.0,40.0,-3.0,-908.0,-458.0
-10.0,-239.0,-104.0,-4.0,84.0,34.0,-11.0,-911.0,-458.0
-9.0,-242.0,-102.0,-7.0,84.0,32.0,-5.0,-914.0,-461.0
-9.0,-240.0,-102.0,-9.0,82.0,27.0,-13.0,-911.0,-456.0
-7.0,-240.0,-97.0,-12.0,82.0,27.0,-14.0,-910.0,-459.0
-11.0,-239.0,-103.0,-13.0,79.0,27.0,-8.0,-909.0,-463.0
-10.0,-240.0,-102.0,-9.0,77.0,25.0,-12.0,-907.0,-466.0
-10.0,-238.0,-102.0,-6.0,74.0,25.0,-4.0,-903.0,-468.0
-11.0,-237.0,-104.0,-4.0,72.0,28.0,-12.0,-900.0,-467.0
-8.0,-234.0,-104.0,0.0,69.0,29.0,-15.0,-895.0,-466.0
-6.0,-235.0,-102.0,0.0,66.0,31.0,-10.0,-899.0,-467.0
-12.0,-234.0,-101.0,2.0,63.0,33.0,-11.0,-897.0,-467.0
-7.0,-238.0,-100.0,0.0,60.0,34.0,-1.0,-902.0,-465.0
-10.0,-233.0,-103.0,-2.0,56.0,31.0,-6.0,-905.0,-460.0
-7.0,-237.0,-102.0,-4.0,54.0,30.0,-7.0,-908.0,-461.0
-8.0,-238.0,-103.0,-7.0,52.0,31.0,-9.0,-910.0,-460.0
-5.0,-241.0,-100.0,-12.0,49.0,30.0,-10.0,-912.0,-448.0
-7.0,-238.0,-103.0,-17.0,47.0,30.0,-6.0,-914.0,-456.0
-9.0,-239.0,-99.0,-21.0,46.0,28.0,-10.0,-916.0,-456.0
-10.0,-238.0,-100.0,-25.0,44.0,28.0,-8.0,-914.0,-451.0
-9.0,-240.0,-101.0,-27.0,45.0,26.0,-11.0,-910.0,-454.0
-8.0,-239.0,-97.0,-29.0,45.0,23.0,-10.0,-910.0,-456.0
-8.0,-239.0,-101.0,-30.0,45.0,22.0,-8.0,-908.0,-453.0
-4.0,-241.0,-99.0,-31.0,46.0,22.0,-11.0,-908.0,-457.0
-10.0,-239.0,-99.0,-31.0,48.0,21.0,-9.0,-909.0,-455.0
-8.0,-234.0,-104.0,-31.0,49.0,21.0,-13.0,-908.0,-459.0
-8.0,-239.0,-101.0,-31.0,51.0,21.0,-8.0,-903.0,-458.0
-7.0,-237.0,-100.0,-32.0,53.0,21.0,-7.0,-904.0,-452.0
-8.0,-237.0,-100.0,-33.0,52.0,22.0,-11.0,-905.0,-455.0
-7.0,-238.0,-103.0,-34.0,52.0,22.0,-14.0,-907.0,-459.0
-11.0,-236.0,-102.0,-34.0,53.0,23.0,-12.0,-909.0,-457.0
-10.0,-238.0,-103.0,-35.0,53.0,22.0,-17.0,-909.0,-458.0
-12.0,-239.0,-102.0,-34.0,55.0,22.0,-14.0,-909.0,-459.0
-14.0,-240.0,-101.0,-34.0,56.0,21.0,-18.0,-909.0,-456.0
-12.0,-240.0,-104.0,-34.0,54.0,19.0,-24.0,-914.0,-459.0
-13.0,-238.0,-102.0,-34.0,55.0,17.0,-23.0,-914.0,-458.0
-13.0,-238.0,-102.0,-33.0,54.0,15.0,-23.0,-917.0,-457.0
-11.0,-240.0,-99.0,-33.0,54.0,13.0,-27.0,-917.0,-459.0
-11.0,-242.0,-99.0,-31.0,53.0,9.0,-27.0,-912.0,-465.0
-10.0,-238.0,-104.0,-30.0,52.0,9.0,-29.0,-915.0,-462.0
-14.0,-240.0,-97.0,-28.0,51.0,8.0,-23.0,-912.0,-459.0
-15.0,-237.0,-103.0,-26.0,51.0,7.0,-22.0,-913.0,-454.0
-14.0,-238.0,-104.0,-24.0,50.0,7.0,-18.0,-906.0,-460.0
-13.0,-239.0,-98.0,-25.0,47.0,7.0,-17.0,-907.0,-461.0
-8.0,-239.0,-105.0,-26.0,46.0,7.0,-16.0,-905.0,-461.0
-8.0,-235.0,-100.0,-28.0,45.0,9.0,-15.0,-900.0,-463.0
-9.0,-236.0,-101.0,-31.0,44.0,12.0,-7.0,-903.0,-461.0
-11.0,-236.0,-101.0,-31.0,43.0,11.0,-14.0,-901.0,-459.0
-7.0,-235.0,-100.0,-32.0,43.0,10.0,-6.0,-903.0,-460.0
-9.0,-235.0,-99.0,-32.0,42.0,9.0,-6.0,-910.0,-454.0
-10.0,-238.0,-102.0,-33.0,42.0,9.0,-8.0,-906.0,-457.0
-11.0,-236.0,-99.0,-32.0,43.0,10.0,-8.0,-912.0,-454.0
-8.0,-241.0,-99.0,-31.0,43.0,7.0,-7.0,-903.0,-453.0
-7.0,-239.0,-100.0,-31.0,44.0,6.0,-7.0,-910.0,-460.0
-10.0,-236.0,-100.0,-34.0,43.0,6.0,-8.0,-905.0,-456.0
-10.0,-234.0,-98.0,-35.0,44.0,4.0,-11.0,-903.0,-463.0
-10.0,-237.0,-101.0,-38.0,45.0,4.0,-10.0,-906.0,-459.0
-7.0,-237.0,-103.0,-39.0,46.0,3.0,-13.0,-904.0,-455.0
-10.0,-236.0,-105.0,-41.0,48.0,3.0,-11.0,-906.0,-453.0
-8.0,-233.0,-101.0,-42.0,50.0,4.0,-11.0,-903.0,-453.0
-12.0,-234.0,-101.0,-42.0,52.0,4.0,-9.0,-902.0,-452.0
-8.0,-238.0,-99.0,-41.0,53.0,6.0,-15.0,-901.0,-457.0
-8.0,-236.0,-100.0,-42.0,55.0,7.0,-15.0,-896.0,-459.0
-9.0,-235.0,-98.0,-45.0,56.0,6.0,-12.0,-900.0,-457.0
-7.0,-237.0,-102.0,-48.0,57.0,6.0,-7.0,-901.0,-464.0
-7.0,-235.0,-101.0,-51.0,57.0,6.0,-11.0,-901.0,-458.0
-8.0,-232.0,-102.0,-54.0,59.0,6.0,-11.0,-901.0,-455.0
-8.0,-236.0,-105.0,-55.0,59.0,5.0,-11.0,-903.0,-457.0
-9.0,-237.0,-103.0,-56.0,60.0,2.0,-8.0,-903.0,-458.0
-11.0,-235.0,-103.0,-57.0,61.0,1.0,-12.0,-901.0,-457.0
-7.0,-234.0,-98.0,-57.0,61.0,0.0,-11.0,-901.0,-459.0
-6.0,-241.0,-104.0,-58.0,62.0,-2.0,-16.0,-900.0,-464.0
-11.0,-238.0,-103.0,-58.0,63.0,-1.0,-16.0,-905.0,-465.0
-9.0,-236.0,-103.0,-57.0,64.0,-2.0,-13.0,-907.0,-461.0
-10.0,-240.0,-104.0,-59.0,65.0,-3.0,-17.0,-906.0,-464.0
-12.0,-238.0,-102.0,-59.0,67.0,-1.0,-20.0,-909.0,-467.0
-11.0,-238.0,-108.0,-58.0,68.0,-1.0,-18.0,-913.0,-471.0
-10.0,-238.0,-102.0,-59.0,69.0,1.0,-13.0,-910.0,-471.0
-11.0,-237.0,-101.0,-58.0,70.0,2.0,-19.0,-908.0,-471.0
-12.0,-239.0,-107.0,-56.0,71.0,3.0,-15.0,-908.0,-473.0
-9.0,-237.0,-104.0,-53.0,71.0,3.0,-13.0,-907.0,-473.0
-10.0,-238.0,-103.0,-50.0,72.0,5.0,-13.0,-907.0,-474.0
-5.0,-235.0,-104.0,-49.0,71.0,7.0,-16.0,-906.0,-472.0
-6.0,-240.0,-101.0,-46.0,71.0,4.0,-10.0,-907.0,-468.0
-8.0,-236.0,-100.0,-42.0,72.0,5.0,-11.0,-909.0,-467.0
-7.0,-236.0,-108.0,-40.0,72.0,4.0,-12.0,-908.0,-466.0
-10.0,-237.0,-106.0,-38.0,71.0,3.0,-8.0,-904.0,-461.0
-5.0,-238.0,-102.0,-36.0,74.0,2.0,-6.0,-900.0,-463.0
-11.0,-236.0,-101.0,-35.0,74.0,1.0,-6.0,-904.0,-462.0
-6.0,-237.0,-102.0,-34.0,76.0,-1.0,-8.0,-904.0,-457.0
-7.0,-233.0,-103.0,-33.0,77.0,-1.0,-8.0,-903.0,-449.0
-11.0,-234.0,-99.0,-32.0,79.0,-2.0,-5.0,-899.0,-456.0
-5.0,-235.0,-100.0,-30.0,79.0,-2.0,0.0,-905.0,-455.0
-9.0,-237.0,-100.0,-29.0,80.0,-3.0,-6.0,-904.0,-454.0
-6.0,-237.0,-100.0,-26.0,80.0,-2.0,-7.0,-902.0,-452.0
-8.0,-236.0,-101.0,-24.0,80.0,-2.0,-5.0,-899.0,-462.0
-7.0,-239.0,-99.0,-24.0,79.0,-2.0,-10.0,-902.0,-451.0
-6.0,-236.0,-102.0,-24.0,79.0,-1.0,-8.0,-906.0,-456.0
-10.0,-236.0,-99.0,-22.0,79.0,-2.0,-14.0,-903.0,-459.0
-12.0,-237.0,-101.0,-24.0,80.0,-2.0,-8.0,-906.0,-459.0
-10.0,-236.0,-104.0,-26.0,80.0,-1.0,-12.0,-906.0,-456.0
-11.0,-239.0,-104.0,-26.0,79.0,-1.0,-15.0,-903.0,-460.0
-12.0,-233.0,-101.0,-25.0,80.0,0.0,-20.0,-908.0,-467.0
-13.0,-235.0,-102.0,-25.0,78.0,0.0,-19.0,-899.0,-465.0
-12.0,-237.0,-99.0,-24.0,79.0,1.0,-24.0,-906.0,-464.0
-12.0,-235.0,-106.0,-24.0,79.0,1.0,-16.0,-904.0,-466.0
-10.0,-236.0,-100.0,-22.0,79.0,2.0,-16.0,-906.0,-466.0
-16.0,-234.0,-103.0,-20.0,78.0,2.0,-19.0,-899.0,-465.0
-12.0,-234.0,-102.0,-17.0,78.0,2.0,-17.0,-904.0,-461.0
-12.0,-231.0,-105.0,-16.0,78.0,3.0,-15.0,-899.0,-468.0
-12.0,-237.0,-101.0,-13.0,78.0,4.0,-11.0,-897.0,-462.0
-9.0,-238.0,-100.0,-11.0,76.0,5.0,-12.0,-896.0,-467.0
-11.0,-236.0,-103.0,-12.0,77.0,5.0,-8.0,-903.0,-466.0
-10.0,-236.0,-104.0,-15.0,75.0,6.0,-10.0,-898.0,-465.0
-11.0,-234.0,-105.0,-19.0,75.0,6.0,-11.0,-896.0,-468.0
-9.0,-233.0,-104.0,-25.0,73.0,4.0,-11.0,-898.0,-464.0
-10.0,-233.0,-105.0,-30.0,73.0,5.0,-7.0,-898.0,-469.0
-11.0,-233.0,-108.0,-36.0,71.0,4.0,-9.0,-902.0,-466.0
-5.0,-237.0,-102.0,-42.0,70.0,4.0,-12.0,-903.0,-467.0
-8.0,-237.0,-103.0,-46.0,67.0,4.0,-10.0,-903.0,-465.0
-12.0,-238.0,-105.0,-49.0,65.0,4.0,-7.0,-900.0,-466.0
-8.0,-237.0,-103.0,-50.0,64.0,3.0,-15.0,-900.0,-471.0
-8.0,-237.0,-101.0,-49.0,62.0,3.0,-12.0,-909.0,-467.0
-11.0,-237.0,-104.0,-47.0,62.0,5.0,-10.0,-903.0,-468.0
-10.0,-236.0,-102.0,-45.0,60.0,5.0,-9.0,-901.0,-468.0
-11.0,-237.0,-103.0,-42.0,58.0,6.0,-9.0,-903.0,-471.0
-11.0,-239.0,-107.0,-40.0,58.0,6.0,-15.0,-901.0,-468.0
-10.0,-240.0,-101.0,-37.0,57.0,6.0,-11.0,-906.0,-468.0
-11.0,-237.0,-103.0,-34.0,57.0,7.0,-19.0,-903.0,-470.0
-11.0,-239.0,-103.0,-34.0,57.0,8.0,-14.0,-905.0,-468.0
-12.0,-237.0,-104.0,-34.0,59.0,8.0,-21.0,-905.0,-468.0
-11.0,-235.0,-105.0,-37.0,58.0,8.0,-23.0,-902.0,-466.0
-12.0,-235.0,-107.0,-38.0,60.0,10.0,-19.0,-901.0,-472.0
-9.0,-235.0,-104.0,-41.0,61.0,10.0,-18.0,-904.0,-470.0
-12.0,-235.0,-108.0,-43.0,61.0,12.0,-18.0,-904.0,-471.0
-10.0,-235.0,-103.0,-45.0,61.0,14.0,-16.0,-903.0,-474.0
-9.0,-234.0,-101.0,-46.0,61.0,12.0,-14.0,-901.0,-473.0
-10.0,-236.0,-106.0,-48.0,61.0,10.0,-11.0,-895.0,-474.0
-9.0,-236.0,-102.0,-49.0,61.0,8.0,-8.0,-897.0,-468.0
-9.0,-234.0,-103.0,-51.0,61.0,8.0,-11.0,-902.0,-469.0
-9.0,-235.0,-103.0,-53.0,61.0,4.0,-7.0,-896.0,-466.0
-10.0,-236.0,-106.0,-56.0,60.0,4.0,-5.0,-900.0,-471.0
-8.0,-234.0,-103.0,-57.0,60.0,2.0,-8.0,-901.0,-469.0
-9.0,-235.0,-101.0,-59.0,61.0,1.0,-14.0,-896.0,-465.0
-12.0,-233.0,-102.0,-60.0,62.0,-2.0,-8.0,-904.0,-463.0
-10.0,-236.0,-102.0,-62.0,64.0,-3.0,-12.0,-901.0,-467.0
-9.0,-239.0,-105.0,-61.0,66.0,-2.0,-10.0,-902.0,-469.0
-7.0,-239.0,-103.0,-60.0,66.0,-3.0,-10.0,-902.0,-469.0
-8.0,-237.0,-103.0,-58.0,67.0,-4.0,-14.0,-908.0,-473.0
-10.0,-236.0,-107.0,-57.0,67.0,-3.0,-6.0,-905.0,-469.0
-11.0,-236.0,-104.0,-55.0,66.0,-3.0,-9.0,-902.0,-470.0
-9.0,-238.0,-102.0,-52.0,64.0,-4.0,-9.0,-902.0,-477.0
-10.0,-235.0,-105.0,-49.0,63.0,-4.0,-16.0,-901.0,-471.0
-10.0,-237.0,-107.0,-47.0,61.0,-5.0,-8.0,-901.0,-474.0
-10.0,-237.0,-104.0,-45.0,60.0,-6.0,-18.0,-907.0,-478.0
-12.0,-235.0,-103.0,-43.0,60.0,-6.0,-15.0,-902.0,-470.0
-10.0,-237.0,-110.0,-40.0,61.0,-7.0,-20.0,-908.0,-471.0
-10.0,-237.0,-104.0,-38.0,58.0,-6.0,-20.0,-906.0,-473.0
-10.0,-239.0,-107.0,-33.0,60.0,-5.0,-19.0,-903.0,-471.0
-13.0,-236.0,-107.0,-31.0,58.0,-5.0,-20.0,-898.0,-472.0
-11.0,-239.0,-102.0,-31.0,60.0,-4.0,-17.0,-902.0,-468.0
-12.0,-237.0,-105.0,-30.0,60.0,-4.0,-13.0,-906.0,-468.0
-12.0,-236.0,-101.0,-28.0,60.0,-3.0,-16.0,-906.0,-469.0
-12.0,-237.0,-105.0,-29.0,60.0,-3.0,-13.0,-906.0,-470.0
-12.0,-238.0,-102.0,-30.0,60.0,-3.0,-17.0,-910.0,-471.0
-11.0,-237.0,-107.0,-30.0,62.0,-3.0,-14.0,-904.0,-469.0
-11.0,-238.0,-106.0,-31.0,61.0,-3.0,-10.0,-899.0,-468.0
-12.0,-236.0,-107.0,-30.0,61.0,-2.0,-11.0,-908.0,-468.0
-9.0,-236.0,-104.0,-29.0,60.0,-2.0,-11.0,-905.0,-478.0
-8.0,-236.0,-106.0,-28.0,61.0,-1.0,-5.0,-896.0,-478.0
-9.0,-237.0,-103.0,-25.0,60.0,-1.0,-10.0,-901.0,-475.0
-7.0,-238.0,-105.0,-22.0,60.0,1.0,-6.0,-900.0,-470.0
-11.0,-234.0,-105.0,-22.0,61.0,-1.0,-11.0,-902.0,-478.0
-8.0,-235.0,-105.0,-23.0,62.0,0.0,-7.0,-896.0,-471.0
-9.0,-237.0,-107.0,-23.0,61.0,0.0,-6.0,-898.0,-470.0
-7.0,-236.0,-104.0,-25.0,60.0,-2.0,-6.0,-901.0,-471.0
-7.0,-237.0,-104.0,-27.0,61.0,-2.0,-12.0,-903.0,-471.0
-11.0,-233.0,-106.0,-30.0,60.0,-3.0,-9.0,-895.0,-478.0
-12.0,-234.0,-108.0,-33.0,60.0,-2.0,-14.0,-897.0,-473.0
-8.0,-236.0,-107.0,-36.0,60.0,-2.0,-13.0,-898.0,-471.0
-9.0,-235.0,-107.0,-39.0,61.0,-4.0,-17.0,-898.0,-477.0
-10.0,-235.0,-103.0,-40.0,61.0,-4.0,-15.0,-903.0,-477.0
-8.0,-236.0,-106.0,-43.0,61.0,-3.0,-16.0,-899.0,-482.0
-12.0,-235.0,-105.0,-43.0,61.0,-4.0,-14.0,-905.0,-475.0
-10.0,-237.0,-110.0,-44.0,61.0,-4.0,-16.0,-902.0,-477.0
-10.0,-238.0,-105.0,-44.0,62.0,-6.0,-11.0,-896.0,-478.0
-12.0,-236.0,-103.0,-45.0,61.0,-5.0,-17.0,-902.0,-474.0
-12.0,-235.0,-107.0,-43.0,64.0,-4.0,-16.0,-897.0,-474.0
-12.0,-238.0,-107.0,-41.0,66.0,-3.0,-15.0,-903.0,-475.0
-8.0,-236.0,-108.0,-39.0,67.0,-5.0,-15.0,-900.0,-475.0
-13.0,-233.0,-109.0,-37.0,68.0,-5.0,-13.0,-895.0,-478.0
-9.0,-233.0,-107.0,-34.0,70.0,-3.0,-10.0,-899.0,-478.0
-9.0,-235.0,-106.0,-33.0,71.0,-3.0,-14.0,-898.0,-475.0
-14.0,-234.0,-106.0,-33.0,71.0,-4.0,-12.0,-897.0,-479.0
-10.0,-239.0,-106.0,-32.0,71.0,-3.0,-13.0,-896.0,-468.0
-8.0,-238.0,-107.0,-31.0,71.0,-4.0,-11.0,-900.0,-479.0
-9.0,-238.0,-103.0,-32.0,71.0,-4.0,-10.0,-899.0,-476.0
-11.0,-233.0,-105.0,-33.0,68.0,-6.0,-13.0,-899.0,-476.0
-9.0,-236.0,-107.0,-33.0,67.0,-5.0,-19.0,-901.0,-479.0
-9.0,-237.0,-106.0,-33.0,68.0,-4.0,-17.0,-904.0,-476.0
-8.0,-238.0,-104.0,-33.0,68.0,-5.0,-16.0,-897.0,-481.0
-8.0,-235.0,-104.0,-31.0,66.0,-3.0,-15.0,-897.0,-477.0
-14.0,-235.0,-101.0,-28.0,67.0,-3.0,-21.0,-898.0,-477.0
-11.0,-235.0,-108.0,-27.0,68.0,-2.0,-20.0,-900.0,-476.0
-11.0,-236.0,-109.0,-26.0,69.0,-2.0,-19.0,-904.0,-474.0
-10.0,-239.0,-105.0,-26.0,70.0,-2.0,-19.0,-895.0,-481.0
-12.0,-232.0,-110.0,-26.0,69.0,-2.0,-22.0,-902.0,-480.0
-11.0,-238.0,-107.0,-25.0,69.0,-2.0,-24.0,-901.0,-481.0
-12.0,-233.0,-107.0,-25.0,70.0,-3.0,-20.0,-904.0,-477.0
-10.0,-235.0,-109.0,-25.0,70.0,-2.0,-15.0,-899.0,-481.0
-12.0,-233.0,-110.0,-22.0,70.0,-2.0,-18.0,-896.0,-483.0
-9.0,-233.0,-104.0,-21.0,69.0,-1.0,-18.0,-894.0,-485.0
-10.0,-234.0,-110.0,-20.0,69.0,0.0,-18.0,-897.0,-484.0
-4.0,-236.0,-100.0,-20.0,69.0,-3.0,-11.0,-896.0,-484.0
-12.0,-234.0,-109.0,-18.0,70.0,-1.0,-17.0,-894.0,-483.0
-8.0,-235.0,-104.0,-19.0,69.0,1.0,-11.0,-891.0,-476.0
-11.0,-235.0,-108.0,-19.0,70.0,2.0,-19.0,-896.0,-479.0
-10.0,-236.0,-107.0,-19.0,70.0,3.0,-17.0,-895.0,-479.0
-10.0,-235.0,-107.0,-21.0,69.0,3.0,-17.0,-897.0,-480.0
-8.0,-236.0,-105.0,-22.0,69.0,2.0,-15.0,-895.0,-477.0
-11.0,-236.0,-106.0,-23.0,69.0,3.0,-15.0,-900.0,-476.0
-14.0,-234.0,-107.0,-24.0,68.0,4.0,-11.0,-898.0,-480.0
-9.0,-234.0,-107.0,-25.0,67.0,3.0,-18.0,-895.0,-479.0
-9.0,-236.0,-105.0,-27.0,64.0,2.0,-17.0,-895.0,-480.0
-10.0,-235.0,-105.0,-29.0,64.0,2.0,-14.0,-896.0,-476.0
-8.0,-235.0,-104.0,-29.0,63.0,1.0,-17.0,-895.0,-475.0
-10.0,-234.0,-106.0,-30.0,62.0,2.0,-18.0,-893.0,-481.0
-13.0,-234.0,-107.0,-31.0,62.0,2.0,-17.0,-897.0,-471.0
-11.0,-235.0,-111.0,-32.0,60.0,1.0,-15.0,-900.0,-483.0
-11.0,-233.0,-107.0,-31.0,60.0,0.0,-18.0,-898.0,-481.0
-11.0,-234.0,-106.0,-32.0,60.0,1.0,-17.0,-904.0,-476.0
-10.0,-236.0,-104.0,-31.0,59.0,1.0,-19.0,-898.0,-476.0
-10.0,-235.0,-101.0,-31.0,59.0,-1.0,-21.0,-898.0,-484.0
-12.0,-237.0,-110.0,-32.0,60.0,1.0,-19.0,-901.0,-475.0
-11.0,-234.0,-106.0,-32.0,61.0,1.0,-21.0,-898.0,-483.0
-8.0,-240.0,-98.0,-32.0,62.0,1.0,-17.0,-897.0,-479.0
-10.0,-234.0,-105.0,-31.0,61.0,0.0,-18.0,-900.0,-480.0
-10.0,-235.0,-107.0,-30.0,61.0,0.0,-19.0,-897.0,-477.0
-9.0,-233.0,-104.0,-30.0,62.0,0.0,-19.0,-895.0,-478.0
-12.0,-233.0,-107.0,-31.0,62.0,-1.0,-17.0,-895.0,-483.0
-9.0,-236.0,-107.0,-32.0,61.0,-1.0,-14.0,-890.0,-478.0
-11.0,-232.0,-107.0,-31.0,63.0,-1.0,-15.0,-896.0,-485.0
-9.0,-235.0,-107.0,-30.0,62.0,-2.0,-16.0,-893.0,-481.0
-11.0,-236.0,-105.0,-30.0,62.0,-2.0,-16.0,-890.0,-481.0
-12.0,-234.0,-107.0,-30.0,61.0,-3.0,-13.0,-893.0,-480.0
-10.0,-235.0,-107.0,-28.0,61.0,-1.0,-16.0,-890.0,-479.0
-11.0,-234.0,-106.0,-29.0,61.0,-1.0,-19.0,-893.0,-476.0
-11.0,-237.0,-106.0,-29.0,61.0,0.0,-15.0,-895.0,-484.0
-13.0,-234.0,-102.0,-29.0,61.0,0.0,-15.0,-894.0,-474.0
-9.0,-234.0,-104.0,-29.0,60.0,0.0,-17.0,-897.0,-482.0
-9.0,-234.0,-108.0,-27.0,60.0,-1.0,-16.0,-896.0,-476.0
-10.0,-237.0,-107.0,-25.0,61.0,1.0,-18.0,-898.0,-483.0
-8.0,-236.0,-107.0,-25.0,60.0,-1.0,-19.0,-895.0,-480.0
-11.0,-237.0,-106.0,-24.0,62.0,0.0,-14.0,-896.0,-483.0
-12.0,-236.0,-109.0,-21.0,63.0,1.0,-12.0,-900.0,-485.0
-9.0,-235.0,-109.0,-19.0,63.0,1.0,-17.0,-901.0,-481.0
-10.0,-236.0,-108.0,-17.0,65.0,1.0,-19.0,-896.0,-483.0
-11.0,-233.0,-108.0,-15.0,65.0,1.0,-15.0,-895.0,-481.0
-9.0,-234.0,-104.0,-12.0,66.0,2.0,-16.0,-897.0,-482.0
-9.0,-238.0,-108.0,-8.0,65.0,2.0,-16.0,-899.0,-482.0
-9.0,-237.0,-106.0,-4.0,65.0,1.0,-12.0,-900.0,-486.0
-12.0,-233.0,-104.0,-1.0,66.0,2.0,-16.0,-900.0,-483.0
-8.0,-237.0,-109.0,2.0,65.0,1.0,-13.0,-896.0,-481.0
-10.0,-236.0,-107.0,6.0,66.0,0.0,-10.0,-898.0,-484.0
-9.0,-235.0,-106.0,10.0,67.0,0.0,-13.0,-895.0,-481.0
-10.0,-234.0,-108.0,11.0,68.0,1.0,-15.0,-895.0,-485.0
-11.0,-237.0,-104.0,12.0,67.0,-1.0,-9.0,-895.0,-483.0
-8.0,-234.0,-104.0,13.0,68.0,0.0,-17.0,-897.0,-486.0
-8.0,-235.0,-106.0,14.0,68.0,0.0,-14.0,-897.0,-485.0
-10.0,-237.0,-105.0,14.0,69.0,-2.0,-14.0,-896.0,-488.0
-11.0,-236.0,-107.0,13.0,69.0,-1.0,-16.0,-894.0,-483.0
-12.0,-235.0,-104.0,13.0,70.0,-3.0,-16.0,-896.0,-486.0
-10.0,-236.0,-107.0,13.0,69.0,-3.0,-20.0,-894.0,-487.0
-9.0,-236.0,-105.0,13.0,69.0,-3.0,-12.0,-895.0,-484.0
-11.0,-236.0,-109.0,11.0,68.0,-3.0,-16.0,-896.0,-484.0
-12.0,-235.0,-106.0,11.0,69.0,-2.0,-16.0,-900.0,-484.0
-11.0,-237.0,-107.0,10.0,69.0,-2.0,-17.0,-897.0,-487.0
-12.0,-236.0,-106.0,12.0,68.0,-2.0,-21.0,-898.0,-485.0
-10.0,-241.0,-107.0,11.0,68.0,-2.0,-18.0,-898.0,-483.0
-10.0,-233.0,-108.0,12.0,67.0,-1.0,-18.0,-894.0,-488.0
-13.0,-235.0,-108.0,14.0,69.0,1.0,-21.0,-898.0,-483.0
-12.0,-232.0,-105.0,15.0,69.0,0.0,-16.0,-897.0,-480.0
-11.0,-236.0,-106.0,16.0,70.0,-1.0,-12.0,-896.0,-482.0
-13.0,-233.0,-105.0,15.0,70.0,-1.0,-16.0,-901.0,-481.0
-11.0,-235.0,-107.0,15.0,69.0,-2.0,-18.0,-899.0,-477.0
-15.0,-231.0,-110.0,15.0,70.0,-3.0,-23.0,-899.0,-480.0
-11.0,-236.0,-105.0,16.0,70.0,-3.0,-18.0,-895.0,-479.0
-11.0,-234.0,-107.0,15.0,71.0,-3.0,-18.0,-897.0,-477.0
-11.0,-234.0,-105.0,16.0,71.0,-3.0,-21.0,-895.0,-482.0
-10.0,-240.0,-103.0,14.0,70.0,-3.0,-19.0,-896.0,-477.0
-13.0,-235.0,-108.0,13.0,72.0,-2.0,-19.0,-902.0,-478.0
-13.0,-233.0,-107.0,13.0,72.0,-2.0,-20.0,-897.0,-476.0
-9.0,-236.0,-105.0,11.0,72.0,-1.0,-15.0,-894.0,-479.0
-12.0,-236.0,-109.0,8.0,72.0,-2.0,-21.0,-899.0,-478.0
-10.0,-235.0,-105.0,6.0,74.0,-1.0,-21.0,-900.0,-481.0
-9.0,-237.0,-106.0,4.0,74.0,-2.0,-19.0,-900.0,-476.0
-12.0,-235.0,-106.0,4.0,73.0,-2.0,-21.0,-897.0,-475.0
-12.0,-237.0,-103.0,4.0,73.0,-2.0,-18.0,-895.0,-477.0
-14.0,-236.0,-104.0,2.0,72.0,-2.0,-20.0,-899.0,-472.0
-9.0,-235.0,-101.0,3.0,72.0,-3.0,-21.0,-898.0,-472.0
-13.0,-235.0,-106.0,3.0,72.0,-4.0,-20.0,-900.0,-477.0
-9.0,-235.0,-109.0,3.0,71.0,-3.0,-20.0,-897.0,-482.0
-13.0,-236.0,-105.0,3.0,71.0,-4.0,-18.0,-896.0,-481.0
-13.0,-236.0,-103.0,3.0,69.0,-4.0,-20.0,-898.0,-480.0
-9.0,-234.0,-104.0,1.0,71.0,-3.0,-16.0,-901.0,-471.0
-11.0,-237.0,-106.0,0.0,70.0,-2.0,-20.0,-897.0,-469.0
-11.0,-234.0,-107.0,0.0,68.0,-4.0,-22.0,-897.0,-471.0
-10.0,-238.0,-103.0,0.0,69.0,-3.0,-17.0,-895.0,-471.0
-10.0,-236.0,-102.0,1.0,70.0,-3.0,-18.0,-898.0,-476.0
-10.0,-238.0,-101.0,2.0,70.0,-3.0,-21.0,-901.0,-477.0
-13.0,-233.0,-105.0,2.0,70.0,-3.0,-17.0,-896.0,-475.0
-11.0,-236.0,-103.0,0.0,69.0,-3.0,-13.0,-903.0,-479.0
-8.0,-234.0,-103.0,1.0,70.0,-2.0,-22.0,-897.0,-478.0
-11.0,-236.0,-106.0,2.0,71.0,-3.0,-20.0,-903.0,-474.0
-10.0,-235.0,-102.0,1.0,70.0,-3.0,-21.0,-901.0,-474.0
-12.0,-235.0,-106.0,0.0,69.0,-4.0,-14.0,-903.0,-480.0
-11.0,-235.0,-101.0,2.0,70.0,-4.0,-18.0,-896.0,-474.0
-11.0,-235.0,-106.0,2.0,70.0,-4.0,-21.0,-899.0,-477.0
-13.0,-236.0,-106.0,3.0,70.0,-5.0,-15.0,-899.0,-473.0
-8.0,-237.0,-104.0,4.0,69.0,-5.0,-8.0,-901.0,-479.0
-10.0,-234.0,-104.0,4.0,69.0,-4.0,-19.0,-899.0,-475.0
-9.0,-235.0,-103.0,4.0,71.0,-4.0,-16.0,-898.0,-475.0
-12.0,-234.0,-109.0,5.0,71.0,-6.0,-13.0,-894.0,-483.0
-10.0,-235.0,-104.0,3.0,72.0,-6.0,-15.0,-896.0,-474.0
-10.0,-234.0,-106.0,2.0,71.0,-6.0,-14.0,-907.0,-474.0
-8.0,-236.0,-104.0,1.0,71.0,-8.0,-19.0,-899.0,-478.0
-11.0,-238.0,-106.0,0.0,71.0,-8.0,-12.0,-903.0,-471.0
-10.0,-234.0,-104.0,-1.0,71.0,-8.0,-22.0,-905.0,-474.0
-7.0,-235.0,-108.0,-2.0,70.0,-8.0,-17.0,-897.0,-476.0
-13.0,-238.0,-107.0,-3.0,69.0,-9.0,-15.0,-896.0,-473.0
-10.0,-234.0,-106.0,-3.0,70.0,-9.0,-18.0,-897.0,-474.0
-11.0,-238.0,-109.0,-4.0,69.0,-9.0,-18.0,-899.0,-470.0
-9.0,-235.0,-103.0,-4.0,68.0,-9.0,-19.0,-897.0,-470.0
-10.0,-236.0,-107.0,-3.0,67.0,-9.0,-16.0,-898.0,-472.0
-10.0,-238.0,-105.0,-4.0,67.0,-8.0,-18.0,-898.0,-469.0
-11.0,-235.0,-101.0,-5.0,67.0,-10.0,-17.0,-903.0,-478.0
-9.0,-238.0,-104.0,-3.0,67.0,-10.0,-16.0,-901.0,-473.0
-10.0,-236.0,-101.0,-2.0,67.0,-10.0,-18.0,-902.0,-468.0
-11.0,-233.0,-105.0,-2.0,69.0,-10.0,-17.0,-896.0,-470.0
-9.0,-236.0,-103.0,-4.0,68.0,-9.0,-20.0,-900.0,-471.0
-11.0,-235.0,-107.0,-4.0,69.0,-10.0,-14.0,-898.0,-468.0
-9.0,-237.0,-103.0,-4.0,69.0,-10.0,-14.0,-897.0,-473.0
-10.0,-235.0,-105.0,-5.0,68.0,-9.0,-13.0,-904.0,-471.0
-12.0,-234.0,-104.0,-7.0,69.0,-8.0,-12.0,-899.0,-474.0
-11.0,-235.0,-107.0,-10.0,68.0,-9.0,-18.0,-904.0,-471.0
-10.0,-236.0,-105.0,-10.0,68.0,-7.0,-14.0,-904.0,-469.0
-10.0,-236.0,-105.0,-10.0,70.0,-7.0,-19.0,-896.0,-468.0
-9.0,-234.0,-109.0,-12.0,68.0,-8.0,-19.0,-901.0,-472.0
-10.0,-236.0,-106.0,-14.0,69.0,-7.0,-18.0,-901.0,-471.0
-8.0,-236.0,-105.0,-15.0,68.0,-8.0,-19.0,-902.0,-474.0
-11.0,-236.0,-103.0,-15.0,68.0,-9.0,-20.0,-905.0,-472.0
-9.0,-236.0,-103.0,-15.0,70.0,-9.0,-16.0,-904.0,-469.0
-9.0,-239.0,-107.0,-16.0,68.0,-9.0,-16.0,-904.0,-470.0
-11.0,-236.0,-105.0,-16.0,68.0,-10.0,-21.0,-899.0,-468.0
-10.0,-235.0,-102.0,-17.0,68.0,-10.0,-19.0,-902.0,-469.0
-11.0,-236.0,-105.0,-17.0,68.0,-11.0,-18.0,-901.0,-475.0
-11.0,-234.0,-103.0,-17.0,71.0,-10.0,-17.0,-895.0,-465.0
-10.0,-236.0,-100.0,-17.0,70.0,-9.0,-19.0,-898.0,-475.0
-9.0,-236.0,-106.0,-18.0,70.0,-8.0,-17.0,-896.0,-468.0
-10.0,-235.0,-103.0,-17.0,70.0,-8.0,-19.0,-902.0,-467.0
-10.0,-234.0,-104.0,-19.0,69.0,-7.0,-15.0,-898.0,-468.0
-11.0,-236.0,-102.0,-19.0,70.0,-6.0,-18.0,-903.0,-468.0
-12.0,-236.0,-105.0,-21.0,70.0,-6.0,-13.0,-898.0,-467.0
-10.0,-234.0,-106.0,-21.0,71.0,-4.0,-15.0,-902.0,-469.0
-11.0,-236.0,-105.0,-22.0,70.0,-4.0,-17.0,-903.0,-478.0
-9.0,-235.0,-104.0,-22.0,70.0,-4.0,-19.0,-899.0,-469.0
-7.0,-238.0,-103.0,-20.0,70.0,-4.0,-18.0,-904.0,-472.0
-12.0,-238.0,-102.0,-20.0,71.0,-4.0,-18.0,-901.0,-475.0
-10.0,-237.0,-106.0,-18.0,69.0,-6.0,-11.0,-902.0,-475.0
-10.0,-236.0,-106.0,-16.0,71.0,-6.0,-12.0,-908.0,-475.0
-12.0,-239.0,-103.0,-14.0,70.0,-5.0,-12.0,-897.0,-476.0
-12.0,-235.0,-108.0,-13.0,70.0,-5.0,-16.0,-903.0,-472.0
-11.0,-237.0,-107.0,-11.0,71.0,-5.0,-15.0,-896.0,-474.0
-11.0,-235.0,-103.0,-9.0,70.0,-5.0,-9.0,-903.0,-477.0
-11.0,-237.0,-106.0,-10.0,71.0,-6.0,-16.0,-899.0,-471.0
-10.0,-235.0,-102.0,-8.0,72.0,-5.0,-11.0,-900.0,-474.0
-12.0,-237.0,-106.0,-6.0,73.0,-5.0,-22.0,-904.0,-477.0
-10.0,-233.0,-104.0,-6.0,73.0,-6.0,-9.0,-897.0,-478.0
-11.0,-236.0,-105.0,-6.0,72.0,-6.0,-13.0,-895.0,-482.0
-11.0,-236.0,-106.0,-6.0,71.0,-6.0,-17.0,-895.0,-472.0
-10.0,-238.0,-107.0,-7.0,72.0,-5.0,-16.0,-900.0,-472.0
-9.0,-237.0,-106.0,-5.0,73.0,-6.0,-19.0,-900.0,-469.0
-12.0,-237.0,-104.0,-4.0,74.0,-6.0,-14.0,-899.0,-475.0
-7.0,-236.0,-106.0,-5.0,74.0,-7.0,-17.0,-900.0,-470.0
-14.0,-233.0,-104.0,-4.0,72.0,-6.0,-19.0,-898.0,-474.0
-9.0,-236.0,-105.0,-4.0,73.0,-6.0,-15.0,-904.0,-469.0
-10.0,-235.0,-106.0,-4.0,73.0,-5.0,-17.0,-898.0,-472.0
-7.0,-236.0,-98.0,-5.0,73.0,-6.0,-16.0,-904.0,-469.0
-12.0,-235.0,-106.0,-4.0,73.0,-6.0,-20.0,-898.0,-475.0
-13.0,-236.0,-106.0,-5.0,73.0,-6.0,-17.0,-899.0,-479.0
-11.0,-234.0,-104.0,-5.0,72.0,-6.0,-18.0,-904.0,-473.0
-10.0,-234.0,-105.0,-4.0,74.0,-6.0,-17.0,-901.0,-470.0
-9.0,-234.0,-104.0,-3.0,72.0,-6.0,-19.0,-897.0,-469.0
-9.0,-238.0,-105.0,-2.0,73.0,-7.0,-18.0,-898.0,-470.0
-9.0,-235.0,-104.0,-2.0,73.0,-5.0,-17.0,-902.0,-469.0
-8.0,-237.0,-103.0,-2.0,73.0,-6.0,-18.0,-901.0,-466.0
-8.0,-235.0,-104.0,-3.0,74.0,-5.0,-17.0,-900.0,-470.0
-12.0,-240.0,-100.0,-3.0,74.0,-6.0,-12.0,-904.0,-466.0
-10.0,-232.0,-107.0,-3.0,74.0,-5.0,-15.0,-906.0,-469.0
-9.0,-235.0,-103.0,-5.0,73.0,-5.0,-20.0,-901.0,-470.0
-10.0,-235.0,-104.0,-6.0,73.0,-6.0,-16.0,-909.0,-475.0
-9.0,-236.0,-103.0,-6.0,74.0,-6.0,-17.0,-902.0,-472.0
-10.0,-236.0,-106.0,-5.0,76.0,-6.0,-11.0,-903.0,-469.0
-11.0,-234.0,-110.0,-4.0,74.0,-6.0,-18.0,-900.0,-479.0
-11.0,-235.0,-104.0,-6.0,74.0,-5.0,-15.0,-901.0,-469.0
-9.0,-235.0,-105.0,-6.0,73.0,-4.0,-16.0,-899.0,-478.0
-10.0,-234.0,-102.0,-6.0,73.0,-5.0,-15.0,-899.0,-474.0
-8.0,-236.0,-107.0,-4.0,70.0,-5.0,-18.0,-900.0,-475.0
-8.0,-239.0,-102.0,-2.0,72.0,-4.0,-14.0,-904.0,-482.0
-13.0,-233.0,-101.0,-2.0,71.0,-7.0,-19.0,-899.0,-475.0
-9.0,-237.0,-105.0,-1.0,71.0,-7.0,-18.0,-903.0,-474.0
-10.0,-238.0,-102.0,0.0,70.0,-8.0,-15.0,-901.0,-471.0
-8.0,-239.0,-103.0,1.0,69.0,-7.0,-6.0,-904.0,-476.0
-10.0,-237.0,-106.0,2.0,69.0,-9.0,-14.0,-906.0,-469.0
-12.0,-237.0,-104.0,1.0,69.0,-8.0,-14.0,-906.0,-473.0
-11.0,-236.0,-104.0,2.0,68.0,-9.0,-16.0,-902.0,-468.0
-6.0,-239.0,-107.0,4.0,69.0,-9.0,-15.0,-903.0,-470.0
-10.0,-237.0,-105.0,4.0,68.0,-8.0,-13.0,-898.0,-467.0
-8.0,-238.0,-103.0,4.0,70.0,-8.0,-10.0,-905.0,-469.0
-10.0,-238.0,-104.0,4.0,72.0,-6.0,-12.0,-903.0,-471.0
-12.0,-235.0,-102.0,5.0,71.0,-7.0,-19.0,-897.0,-471.0
-7.0,-238.0,-103.0,6.0,70.0,-7.0,-9.0,-903.0,-471.0
-10.0,-234.0,-101.0,4.0,70.0,-7.0,-12.0,-896.0,-471.0
-8.0,-237.0,-110.0,4.0,71.0,-5.0,-8.0,-899.0,-468.0
-10.0,-236.0,-104.0,4.0,70.0,-7.0,-5.0,-900.0,-466.0
-9.0,-235.0,-103.0,1.0,71.0,-5.0,-12.0,-903.0,-470.0
-8.0,-239.0,-104.0,-2.0,72.0,-5.0,-19.0,-904.0,-469.0
-10.0,-239.0,-102.0,-6.0,72.0,-6.0,-11.0,-902.0,-465.0
-8.0,-236.0,-100.0,-11.0,71.0,-6.0,-15.0,-908.0,-463.0
-12.0,-237.0,-106.0,-13.0,71.0,-4.0,-17.0,-906.0,-470.0
-13.0,-237.0,-100.0,-16.0,71.0,-5.0,-19.0,-903.0,-469.0
-13.0,-237.0,-110.0,-17.0,71.0,-5.0,-18.0,-902.0,-469.0
-10.0,-236.0,-101.0,-15.0,71.0,-5.0,-15.0,-907.0,-473.0
-10.0,-235.0,-106.0,-13.0,71.0,-5.0,-17.0,-901.0,-479.0
-8.0,-236.0,-102.0,-12.0,69.0,-3.0,-13.0,-898.0,-470.0
-10.0,-237.0,-99.0,-10.0,70.0,-2.0,-12.0,-900.0,-470.0
-9.0,-235.0,-101.0,-6.0,71.0,-2.0,-12.0,-901.0,-479.0
-8.0,-237.0,-105.0,-4.0,71.0,-1.0,-9.0,-898.0,-474.0
-10.0,-234.0,-108.0,-2.0,74.0,-2.0,-12.0,-900.0,-472.0
-10.0,-235.0,-105.0,1.0,73.0,-3.0,-14.0,-898.0,-477.0
-7.0,-237.0,-106.0,2.0,72.0,-3.0,-11.0,-901.0,-475.0
-11.0,-235.0,-108.0,4.0,72.0,-5.0,-11.0,-896.0,-470.0
-10.0,-239.0,-107.0,4.0,71.0,-5.0,-9.0,-897.0,-479.0
-9.0,-234.0,-107.0,7.0,71.0,-6.0,-10.0,-895.0,-474.0
-10.0,-237.0,-107.0,8.0,70.0,-8.0,-10.0,-897.0,-481.0
-10.0,-234.0,-105.0,10.0,68.0,-8.0,-8.0,-899.0,-479.0
-8.0,-234.0,-108.0,10.0,68.0,-8.0,-10.0,-901.0,-481.0
-7.0,-237.0,-106.0,11.0,69.0,-10.0,-9.0,-902.0,-474.0
-9.0,-238.0,-105.0,12.0,68.0,-9.0,-8.0,-904.0,-470.0
-10.0,-233.0,-105.0,11.0,67.0,-10.0,-17.0,-904.0,-468.0
-9.0,-237.0,-108.0,12.0,68.0,-8.0,-13.0,-907.0,-469.0
-10.0,-237.0,-107.0,12.0,68.0,-7.0,-17.0,-913.0,-467.0
-11.0,-237.0,-102.0,11.0,69.0,-6.0,-18.0,-908.0,-469.0
-12.0,-239.0,-101.0,13.0,70.0,-4.0,-19.0,-910.0,-468.0
-10.0,-236.0,-103.0,12.0,73.0,-5.0,-16.0,-909.0,-465.0
-15.0,-238.0,-101.0,12.0,71.0,-6.0,-18.0,-904.0,-464.0
-13.0,-238.0,-103.0,12.0,70.0,-6.0,-12.0,-905.0,-459.0
-9.0,-236.0,-103.0,12.0,71.0,-3.0,-17.0,-903.0,-466.0
-10.0,-238.0,-104.0,10.0,72.0,-1.0,-15.0,-903.0,-466.0
-12.0,-237.0,-105.0,8.0,72.0,-2.0,-19.0,-900.0,-467.0
-10.0,-236.0,-99.0,9.0,72.0,-2.0,-10.0,-902.0,-465.0
-10.0,-236.0,-104.0,8.0,70.0,-3.0,-15.0,-900.0,-465.0
-10.0,-237.0,-99.0,8.0,71.0,-2.0,-14.0,-898.0,-460.0
-8.0,-235.0,-102.0,8.0,71.0,-2.0,-13.0,-903.0,-464.0
-8.0,-239.0,-101.0,9.0,72.0,-2.0,-11.0,-900.0,-458.0
-9.0,-236.0,-97.0,7.0,71.0,-1.0,-18.0,-903.0,-457.0
-9.0,-234.0,-102.0,6.0,71.0,-1.0,-14.0,-901.0,-467.0
-14.0,-235.0,-102.0,6.0,73.0,-2.0,-14.0,-901.0,-468.0
-9.0,-234.0,-98.0,5.0,74.0,-3.0,-13.0,-902.0,-469.0
-10.0,-235.0,-101.0,3.0,74.0,-2.0,-16.0,-904.0,-469.0
-10.0,-235.0,-101.0,2.0,74.0,-2.0,-13.0,-903.0,-468.0
-11.0,-237.0,-104.0,2.0,74.0,-3.0,-12.0,-905.0,-468.0
-7.0,-238.0,-108.0,2.0,73.0,-1.0,-12.0,-903.0,-470.0
-8.0,-236.0,-101.0,1.0,74.0,-2.0,-14.0,-904.0,-470.0
-6.0,-238.0,-103.0,1.0,73.0,-2.0,-15.0,-904.0,-464.0
-12.0,-236.0,-105.0,0.0,72.0,-2.0,-17.0,-901.0,-469.0
-12.0,-237.0,-103.0,-2.0,72.0,-2.0,-13.0,-903.0,-468.0
-7.0,-241.0,-99.0,-5.0,72.0,-1.0,-13.0,-903.0,-466.0
-10.0,-236.0,-101.0,-6.0,72.0,-3.0,-10.0,-904.0,-468.0
-11.0,-237.0,-103.0,-7.0,72.0,-2.0,-15.0,-904.0,-466.0
-10.0,-237.0,-101.0,-7.0,72.0,-4.0,-13.0,-903.0,-467.0
-12.0,-237.0,-102.0,-7.0,71.0,-3.0,-13.0,-905.0,-464.0
-10.0,-237.0,-100.0,-6.0,72.0,-3.0,-12.0,-906.0,-465.0
-12.0,-236.0,-105.0,-5.0,73.0,-3.0,-11.0,-902.0,-463.0
-11.0,-237.0,-105.0,0.0,71.0,-6.0,-11.0,-903.0,-467.0
-7.0,-238.0,-99.0,1.0,71.0,-6.0,-15.0,-902.0,-467.0
-10.0,-238.0,-102.0,1.0,73.0,-5.0,-18.0,-909.0,-467.0
-8.0,-237.0,-104.0,1.0,71.0,-5.0,-17.0,-906.0,-465.0
-11.0,-239.0,-100.0,2.0,69.0,-3.0,-14.0,-905.0,-465.0
-9.0,-236.0,-103.0,2.0,70.0,-4.0,-11.0,-900.0,-464.0
-10.0,-236.0,-104.0,2.0,70.0,-2.0,-12.0,-902.0,-469.0
-10.0,-233.0,-103.0,0.0,69.0,-2.0,-11.0,-902.0,-466.0
-8.0,-235.0,-107.0,-2.0,69.0,-1.0,-14.0,-903.0,-464.0
-10.0,-234.0,-103.0,-2.0,70.0,-2.0,-8.0,-901.0,-467.0
-8.0,-237.0,-101.0,-3.0,70.0,-1.0,-12.0,-904.0,-467.0
-7.0,-237.0,-99.0,-4.0,69.0,-1.0,-13.0,-906.0,-464.0
-11.0,-239.0,-104.0,-4.0,70.0,-2.0,-17.0,-908.0,-463.0
-11.0,-236.0,-103.0,-3.0,69.0,-3.0,-18.0,-903.0,-466.0
-9.0,-238.0,-102.0,-3.0,70.0,-3.0,-13.0,-907.0,-469.0
-8.0,-240.0,-102.0,-2.0,68.0,-2.0,-14.0,-908.0,-464.0
-13.0,-237.0,-105.0,0.0,70.0,-3.0,-13.0,-906.0,-468.0
-9.0,-235.0,-102.0,1.0,69.0,-5.0,-12.0,-911.0,-465.0
-11.0,-235.0,-105.0,2.0,68.0,-5.0,-11.0,-900.0,-465.0
-6.0,-236.0,-105.0,4.0,68.0,-5.0,-15.0,-903.0,-469.0
-9.0,-236.0,-106.0,6.0,67.0,-7.0,-13.0,-905.0,-468.0
-9.0,-237.0,-109.0,8.0,66.0,-8.0,-10.0,-901.0,-470.0
-10.0,-234.0,-101.0,10.0,66.0,-8.0,-13.0,-903.0,-466.0
-8.0,-236.0,-100.0,11.0,65.0,-9.0,-13.0,-898.0,-472.0
-12.0,-235.0,-105.0,12.0,66.0,-10.0,-14.0,-899.0,-470.0
-11.0,-235.0,-104.0,12.0,67.0,-7.0,-14.0,-898.0,-473.0
-10.0,-237.0,-106.0,13.0,64.0,-8.0,-13.0,-905.0,-468.0
-11.0,-235.0,-104.0,12.0,65.0,-9.0,-15.0,-904.0,-465.0
-9.0,-237.0,-105.0,11.0,66.0,-8.0,-11.0,-903.0,-465.0
-12.0,-240.0,-101.0,9.0,66.0,-8.0,-14.0,-906.0,-460.0
-11.0,-235.0,-102.0,6.0,65.0,-8.0,-14.0,-903.0,-466.0
-11.0,-238.0,-100.0,4.0,65.0,-8.0,-11.0,-903.0,-457.0
-10.0,-238.0,-101.0,2.0,64.0,-6.0,-15.0,-907.0,-460.0
-8.0,-236.0,-101.0,0.0,65.0,-7.0,-17.0,-903.0,-458.0
-16.0,-238.0,-100.0,-2.0,65.0,-8.0,-15.0,-904.0,-457.0
-12.0,-237.0,-103.0,-4.0,65.0,-8.0,-8.0,-909.0,-456.0
-11.0,-235.0,-100.0,-4.0,67.0,-7.0,-15.0,-905.0,-456.0
-12.0,-239.0,-97.0,-5.0,67.0,-8.0,-17.0,-907.0,-457.0
-9.0,-235.0,-101.0,-5.0,68.0,-9.0,-16.0,-906.0,-460.0
-11.0,-238.0,-99.0,-5.0,68.0,-7.0,-15.0,-907.0,-459.0
-8.0,-239.0,-102.0,-6.0,68.0,-6.0,-13.0,-911.0,-458.0
-11.0,-238.0,-100.0,-7.0,70.0,-6.0,-12.0,-903.0,-457.0
-10.0,-236.0,-103.0,-8.0,71.0,-6.0,-12.0,-908.0,-464.0
-10.0,-238.0,-100.0,-11.0,71.0,-5.0,-16.0,-904.0,-460.0
-11.0,-240.0,-100.0,-13.0,69.0,-6.0,-15.0,-905.0,-456.0
-7.0,-238.0,-100.0,-14.0,71.0,-5.0,-6.0,-905.0,-460.0
-9.0,-237.0,-101.0,-17.0,71.0,-5.0,-11.0,-906.0,-456.0
-10.0,-237.0,-101.0,-17.0,71.0,-6.0,-10.0,-904.0,-459.0
-10.0,-237.0,-99.0,-18.0,71.0,-7.0,-15.0,-911.0,-459.0
-13.0,-238.0,-102.0,-17.0,69.0,-5.0,-10.0,-905.0,-456.0
-9.0,-237.0,-103.0,-18.0,69.0,-4.0,-14.0,-904.0,-457.0
-11.0,-238.0,-99.0,-18.0,69.0,-4.0,-13.0,-909.0,-460.0
-10.0,-238.0,-103.0,-18.0,70.0,-4.0,-13.0,-906.0,-464.0
-10.0,-238.0,-106.0,-18.0,69.0,-3.0,-14.0,-903.0,-461.0
-11.0,-234.0,-99.0,-18.0,69.0,-3.0,-13.0,-908.0,-461.0
-11.0,-235.0,-106.0,-17.0,66.0,-3.0,-14.0,-902.0,-460.0
-13.0,-234.0,-105.0,-18.0,68.0,-4.0,-9.0,-907.0,-462.0
-11.0,-235.0,-104.0,-17.0,67.0,-3.0,-7.0,-905.0,-462.0
-10.0,-237.0,-102.0,-17.0,68.0,-4.0,-11.0,-908.0,-462.0
-10.0,-235.0,-104.0,-18.0,67.0,-5.0,-16.0,-904.0,-467.0
-6.0,-236.0,-100.0,-18.0,68.0,-3.0,-12.0,-899.0,-466.0
-7.0,-239.0,-101.0,-16.0,70.0,-4.0,-12.0,-902.0,-461.0
-11.0,-238.0,-100.0,-15.0,68.0,-5.0,-13.0,-901.0,-468.0
-11.0,-237.0,-102.0,-15.0,69.0,-5.0,-11.0,-904.0,-467.0
-12.0,-236.0,-106.0,-14.0,69.0,-4.0,-8.0,-903.0,-465.0
-7.0,-234.0,-101.0,-14.0,71.0,-4.0,-11.0,-904.0,-464.0
-8.0,-236.0,-103.0,-15.0,71.0,-5.0,-10.0,-905.0,-465.0
-12.0,-231.0,-109.0,-16.0,72.0,-4.0,-12.0,-903.0,-468.0
-5.0,-239.0,-104.0,-15.0,72.0,-5.0,-8.0,-908.0,-466.0
-10.0,-238.0,-100.0,-15.0,71.0,-4.0,-11.0,-908.0,-464.0
-10.0,-238.0,-102.0,-15.0,71.0,-3.0,-11.0,-906.0,-465.0
-10.0,-239.0,-100.0,-14.0,69.0,-4.0,-13.0,-905.0,-466.0
-12.0,-236.0,-102.0,-15.0,70.0,-4.0,-12.0,-908.0,-465.0
-11.0,-236.0,-104.0,-14.0,70.0,-4.0,-11.0,-907.0,-462.0
-10.0,-234.0,-103.0,-14.0,69.0,-3.0,-7.0,-907.0,-459.0
-9.0,-234.0,-101.0,-13.0,69.0,-4.0,-8.0,-905.0,-463.0
-11.0,-237.0,-101.0,-12.0,69.0,-4.0,-11.0,-904.0,-466.0
-7.0,-238.0,-101.0,-12.0,69.0,-2.0,-8.0,-907.0,-461.0
-4.0,-235.0,-107.0,-11.0,69.0,-4.0,-10.0,-905.0,-464.0
-9.0,-236.0,-102.0,-11.0,70.0,-3.0,-12.0,-909.0,-460.0
-9.0,-235.0,-104.0,-10.0,68.0,-2.0,-7.0,-908.0,-463.0
-6.0,-239.0,-103.0,-12.0,69.0,-3.0,-11.0,-901.0,-460.0
-9.0,-238.0,-101.0,-12.0,69.0,-1.0,-7.0,-904.0,-462.0
-10.0,-236.0,-101.0,-13.0,70.0,-3.0,-12.0,-906.0,-461.0
-10.0,-236.0,-100.0,-14.0,69.0,-1.0,-9.0,-905.0,-463.0
-6.0,-240.0,-105.0,-15.0,69.0,1.0,-15.0,-902.0,-465.0
-12.0,-237.0,-101.0,-15.0,70.0,1.0,-16.0,-905.0,-462.0
-11.0,-236.0,-105.0,-15.0,70.0,1.0,-18.0,-907.0,-463.0
-7.0,-239.0,-101.0,-16.0,71.0,0.0,-15.0,-907.0,-469.0
-11.0,-237.0,-100.0,-17.0,72.0,1.0,-13.0,-913.0,-463.0
-11.0,-236.0,-101.0,-16.0,72.0,4.0,-17.0,-905.0,-466.0
-9.0,-235.0,-106.0,-16.0,73.0,2.0,-18.0,-902.0,-467.0
-8.0,-236.0,-105.0,-16.0,74.0,3.0,-9.0,-905.0,-465.0
-6.0,-239.0,-102.0,-16.0,73.0,3.0,-10.0,-903.0,-468.0
-8.0,-237.0,-102.0,-15.0,71.0,3.0,-10.0,-906.0,-463.0
-7.0,-237.0,-100.0,-17.0,71.0,3.0,-7.0,-908.0,-461.0
-9.0,-236.0,-102.0,-20.0,70.0,1.0,-9.0,-901.0,-456.0
-9.0,-235.0,-100.0,-24.0,69.0,2.0,-8.0,-902.0,-461.0
-9.0,-236.0,-103.0,-27.0,69.0,2.0,-8.0,-903.0,-454.0
-10.0,-235.0,-101.0,-30.0,68.0,0.0,-8.0,-904.0,-459.0
-8.0,-236.0,-103.0,-34.0,67.0,0.0,-7.0,-904.0,-457.0
-9.0,-239.0,-102.0,-36.0,68.0,-1.0,-11.0,-902.0,-459.0
-11.0,-235.0,-102.0,-37.0,69.0,-1.0,-11.0,-906.0,-457.0
-10.0,-237.0,-100.0,-36.0,69.0,-1.0,-16.0,-906.0,-458.0
-8.0,-238.0,-103.0,-36.0,70.0,-1.0,-9.0,-908.0,-461.0
-9.0,-238.0,-104.0,-35.0,70.0,-1.0,-11.0,-904.0,-464.0
-10.0,-238.0,-103.0,-33.0,68.0,-2.0,-14.0,-903.0,-463.0
-6.0,-235.0,-105.0,-33.0,69.0,-3.0,-8.0,-903.0,-467.0
-7.0,-236.0,-106.0,-31.0,69.0,-3.0,-17.0,-903.0,-465.0
-8.0,-239.0,-104.0,-30.0,70.0,-2.0,-11.0,-906.0,-466.0
-9.0,-239.0,-105.0,-31.0,71.0,-2.0,-10.0,-906.0,-466.0
-11.0,-236.0,-104.0,-32.0,70.0,-2.0,-14.0,-902.0,-468.0
-8.0,-238.0,-102.0,-33.0,69.0,-1.0,-14.0,-910.0,-462.0
-9.0,-237.0,-97.0,-35.0,69.0,0.0,-13.0,-909.0,-465.0
-10.0,-237.0,-103.0,-37.0,69.0,0.0,-16.0,-910.0,-462.0
-12.0,-239.0,-96.0,-39.0,68.0,0.0,-17.0,-908.0,-461.0
-11.0,-238.0,-106.0,-39.0,68.0,1.0,-15.0,-904.0,-461.0
-13.0,-236.0,-102.0,-39.0,67.0,1.0,-16.0,-904.0,-460.0
-12.0,-237.0,-106.0,-39.0,67.0,1.0,-16.0,-910.0,-457.0
-14.0,-237.0,-99.0,-36.0,66.0,3.0,-19.0,-904.0,-460.0
-9.0,-237.0,-104.0,-36.0,66.0,3.0,-16.0,-905.0,-463.0
-8.0,-237.0,-102.0,-36.0,67.0,3.0,-11.0,-905.0,-464.0
-10.0,-236.0,-100.0,-34.0,67.0,4.0,-11.0,-906.0,-461.0
-10.0,-236.0,-100.0,-34.0,66.0,2.0,-9.0,-899.0,-467.0
-8.0,-238.0,-102.0,-35.0,66.0,3.0,-8.0,-902.0,-463.0
-9.0,-238.0,-103.0,-35.0,65.0,3.0,-11.0,-902.0,-463.0
-11.0,-234.0,-103.0,-36.0,66.0,2.0,-11.0,-901.0,-467.0
-8.0,-234.0,-105.0,-38.0,66.0,3.0,-7.0,-899.0,-469.0
-9.0,-234.0,-105.0,-42.0,67.0,3.0,-9.0,-899.0,-464.0
-11.0,-234.0,-103.0,-45.0,67.0,3.0,-10.0,-896.0,-464.0
-9.0,-236.0,-106.0,-47.0,66.0,3.0,-8.0,-900.0,-469.0
-10.0,-231.0,-104.0,-50.0,67.0,3.0,-8.0,-905.0,-464.0
-9.0,-235.0,-101.0,-50.0,68.0,3.0,-11.0,-898.0,-470.0
-12.0,-233.0,-104.0,-50.0,69.0,1.0,-9.0,-898.0,-470.0
-8.0,-238.0,-102.0,-50.0,69.0,2.0,-16.0,-899.0,-466.0
-8.0,-236.0,-104.0,-49.0,69.0,2.0,-12.0,-904.0,-471.0
-10.0,-236.0,-104.0,-48.0,70.0,2.0,-19.0,-903.0,-469.0
-8.0,-237.0,-105.0,-47.0,70.0,2.0,-15.0,-901.0,-470.0
-13.0,-236.0,-105.0,-45.0,71.0,1.0,-16.0,-899.0,-473.0
-10.0,-236.0,-107.0,-44.0,70.0,0.0,-13.0,-903.0,-469.0
-12.0,-235.0,-105.0,-43.0,69.0,0.0,-16.0,-906.0,-470.0
-12.0,-234.0,-101.0,-44.0,70.0,0.0,-10.0,-904.0,-471.0
-7.0,-236.0,-102.0,-43.0,69.0,0.0,-14.0,-907.0,-469.0
-6.0,-237.0,-104.0,-43.0,69.0,-1.0,-9.0,-904.0,-471.0
-10.0,-237.0,-107.0,-44.0,69.0,0.0,-13.0,-901.0,-473.0
-11.0,-238.0,-102.0,-43.0,69.0,1.0,-12.0,-904.0,-465.0
-11.0,-237.0,-105.0,-45.0,68.0,0.0,-11.0,-899.0,-474.0
-10.0,-238.0,-103.0,-44.0,67.0,0.0,-16.0,-906.0,-466.0
-10.0,-235.0,-103.0,-43.0,69.0,0.0,-17.0,-903.0,-468.0
-9.0,-235.0,-104.0,-42.0,68.0,0.0,-11.0,-907.0,-468.0
-7.0,-237.0,-104.0,-41.0,70.0,2.0,-16.0,-898.0,-468.0
-10.0,-235.0,-103.0,-39.0,70.0,1.0,-15.0,-900.0,-466.0
-8.0,-236.0,-109.0,-38.0,71.0,1.0,-18.0,-898.0,-466.0
-11.0,-237.0,-101.0,-35.0,70.0,-1.0,-10.0,-899.0,-471.0
-9.0,-235.0,-104.0,-37.0,70.0,0.0,-17.0,-900.0,-469.0
-10.0,-236.0,-104.0,-36.0,70.0,1.0,-15.0,-899.0,-467.0
-10.0,-234.0,-100.0,-37.0,71.0,-1.0,-17.0,-902.0,-465.0
-8.0,-236.0,-105.0,-39.0,71.0,0.0,-12.0,-904.0,-468.0
-10.0,-238.0,-102.0,-41.0,72.0,0.0,-17.0,-896.0,-467.0
-11.0,-236.0,-106.0,-44.0,73.0,0.0,-12.0,-897.0,-467.0
-13.0,-236.0,-105.0,-47.0,74.0,0.0,-13.0,-900.0,-469.0
-9.0,-236.0,-108.0,-50.0,75.0,-1.0,-14.0,-900.0,-470.0
-12.0,-234.0,-104.0,-52.0,73.0,-2.0,-12.0,-898.0,-469.0
-13.0,-234.0,-108.0,-55.0,74.0,0.0,-13.0,-898.0,-472.0
-9.0,-233.0,-103.0,-57.0,73.0,-1.0,-14.0,-900.0,-479.0
-10.0,-232.0,-104.0,-59.0,72.0,2.0,-13.0,-902.0,-477.0
-10.0,-234.0,-105.0,-59.0,73.0,3.0,-13.0,-900.0,-481.0
-12.0,-233.0,-108.0,-58.0,72.0,3.0,-12.0,-901.0,-477.0
-10.0,-234.0,-107.0,-57.0,71.0,2.0,-8.0,-896.0,-478.0
-6.0,-237.0,-108.0,-54.0,70.0,1.0,-9.0,-900.0,-480.0
-10.0,-234.0,-107.0,-50.0,70.0,1.0,-13.0,-899.0,-481.0
-10.0,-234.0,-107.0,-48.0,69.0,0.0,-11.0,-898.0,-483.0
-10.0,-237.0,-110.0,-46.0,67.0,-1.0,-8.0,-900.0,-482.0
-11.0,-239.0,-107.0,-44.0,67.0,-3.0,-13.0,-903.0,-480.0
-10.0,-237.0,-106.0,-43.0,65.0,0.0,-10.0,-901.0,-477.0
-8.0,-236.0,-105.0,-44.0,65.0,-1.0,-11.0,-900.0,-484.0
-10.0,-236.0,-104.0,-43.0,64.0,-2.0,-14.0,-902.0,-480.0
-11.0,-236.0,-106.0,-45.0,64.0,-4.0,-20.0,-899.0,-486.0
-9.0,-236.0,-107.0,-45.0,64.0,-3.0,-16.0,-902.0,-477.0
-10.0,-235.0,-105.0,-47.0,64.0,-2.0,-15.0,-899.0,-474.0
-11.0,-235.0,-104.0,-47.0,65.0,-3.0,-19.0,-897.0,-477.0
-7.0,-237.0,-106.0,-47.0,65.0,-4.0,-17.0,-899.0,-470.0
-12.0,-234.0,-106.0,-45.0,66.0,-2.0,-13.0,-899.0,-477.0
-10.0,-234.0,-106.0,-45.0,65.0,-2.0,-11.0,-900.0,-479.0
-5.0,-237.0,-104.0,-45.0,67.0,-2.0,-14.0,-900.0,-478.0
-9.0,-236.0,-104.0,-45.0,66.0,-1.0,-14.0,-900.0,-476.0
-14.0,-230.0,-103.0,-44.0,68.0,-1.0,-17.0,-900.0,-477.0
-11.0,-236.0,-103.0,-43.0,69.0,0.0,-13.0,-899.0,-482.0
-9.0,-238.0,-105.0,-42.0,70.0,0.0,-17.0,-896.0,-478.0
-12.0,-235.0,-105.0,-41.0,70.0,0.0,-14.0,-898.0,-480.0
-10.0,-233.0,-105.0,-39.0,69.0,-1.0,-16.0,-899.0,-480.0
-11.0,-235.0,-109.0,-36.0,69.0,-2.0,-13.0,-898.0,-477.0
-9.0,-236.0,-108.0,-36.0,70.0,-3.0,-14.0,-897.0,-478.0
-12.0,-234.0,-105.0,-37.0,71.0,-4.0,-13.0,-896.0,-479.0
-9.0,-234.0,-108.0,-39.0,70.0,-3.0,-17.0,-898.0,-474.0
-9.0,-234.0,-106.0,-40.0,70.0,-5.0,-17.0,-895.0,-479.0
-10.0,-235.0,-110.0,-42.0,70.0,-5.0,-15.0,-897.0,-480.0
-7.0,-235.0,-107.0,-43.0,70.0,-4.0,-10.0,-896.0,-477.0
-11.0,-237.0,-104.0,-45.0,69.0,-5.0,-13.0,-897.0,-483.0
-10.0,-236.0,-104.0,-47.0,69.0,-3.0,-19.0,-895.0,-476.0
-10.0,-233.0,-105.0,-46.0,68.0,-3.0,-11.0,-897.0,-485.0
-10.0,-234.0,-108.0,-47.0,67.0,-4.0,-15.0,-900.0,-482.0
-9.0,-233.0,-109.0,-46.0,67.0,-3.0,-15.0,-900.0,-486.0
-11.0,-235.0,-103.0,-44.0,66.0,-2.0,-14.0,-899.0,-487.0
-10.0,-237.0,-106.0,-42.0,65.0,-2.0,-14.0,-901.0,-483.0
-8.0,-232.0,-108.0,-41.0,64.0,-2.0,-11.0,-896.0,-485.0
-10.0,-236.0,-111.0,-39.0,65.0,-2.0,-17.0,-894.0,-484.0
-11.0,-233.0,-108.0,-38.0,64.0,-3.0,-10.0,-896.0,-487.0
-9.0,-233.0,-107.0,-38.0,65.0,-2.0,-17.0,-899.0,-482.0
-11.0,-233.0,-110.0,-37.0,64.0,-3.0,-13.0,-894.0,-483.0
-13.0,-231.0,-107.0,-37.0,63.0,-4.0,-14.0,-895.0,-479.0
-11.0,-235.0,-106.0,-37.0,64.0,-2.0,-12.0,-893.0,-481.0
-10.0,-236.0,-103.0,-38.0,65.0,-2.0,-17.0,-893.0,-482.0
-13.0,-233.0,-106.0,-40.0,64.0,-2.0,-11.0,-894.0,-478.0
-10.0,-233.0,-109.0,-39.0,65.0,-2.0,-12.0,-900.0,-482.0
-9.0,-235.0,-107.0,-41.0,65.0,-2.0,-11.0,-897.0,-483.0
-9.0,-237.0,-105.0,-41.0,67.0,-2.0,-16.0,-897.0,-483.0
-8.0,-236.0,-108.0,-40.0,67.0,-1.0,-14.0,-898.0,-485.0
-12.0,-232.0,-106.0,-39.0,65.0,-2.0,-12.0,-890.0,-483.0
-11.0,-235.0,-104.0,-39.0,68.0,-2.0,-16.0,-897.0,-481.0
-8.0,-232.0,-105.0,-36.0,67.0,-3.0,-7.0,-894.0,-485.0
-8.0,-237.0,-105.0,-36.0,67.0,-3.0,-13.0,-899.0,-482.0
-12.0,-234.0,-107.0,-35.0,68.0,-2.0,-9.0,-897.0,-483.0
-11.0,-235.0,-106.0,-36.0,68.0,-2.0,-8.0,-895.0,-486.0
-10.0,-234.0,-108.0,-35.0,68.0,-2.0,-14.0,-897.0,-484.0
-11.0,-233.0,-106.0,-37.0,66.0,-2.0,-13.0,-894.0,-480.0
-8.0,-234.0,-108.0,-39.0,66.0,-2.0,-14.0,-893.0,-485.0
-7.0,-234.0,-108.0,-41.0,66.0,-1.0,-14.0,-895.0,-484.0
-10.0,-235.0,-107.0,-44.0,66.0,-2.0,-17.0,-895.0,-483.0
-7.0,-235.0,-106.0,-47.0,66.0,-1.0,-20.0,-899.0,-483.0
-8.0,-232.0,-104.0,-50.0,64.0,0.0,-22.0,-895.0,-481.0
-11.0,-235.0,-109.0,-52.0,66.0,0.0,-21.0,-892.0,-483.0
-10.0,-237.0,-105.0,-53.0,67.0,-1.0,-12.0,-899.0,-482.0
-11.0,-232.0,-107.0,-53.0,67.0,0.0,-16.0,-898.0,-487.0
-12.0,-235.0,-108.0,-52.0,67.0,0.0,-19.0,-898.0,-486.0
-7.0,-237.0,-110.0,-50.0,68.0,1.0,-19.0,-893.0,-491.0
-9.0,-233.0,-112.0,-46.0,68.0,2.0,-17.0,-894.0,-488.0
-10.0,-232.0,-105.0,-44.0,69.0,2.0,-12.0,-893.0,-487.0
-11.0,-232.0,-109.0,-43.0,68.0,-1.0,-10.0,-887.0,-483.0
-8.0,-235.0,-109.0,-43.0,70.0,-2.0,-7.0,-885.0,-488.0
-6.0,-229.0,-108.0,-45.0,68.0,-1.0,-12.0,-890.0,-487.0
-9.0,-233.0,-107.0,-48.0,68.0,-4.0,-12.0,-889.0,-488.0
-11.0,-231.0,-106.0,-51.0,68.0,-5.0,-11.0,-891.0,-483.0
-13.0,-231.0,-111.0,-55.0,67.0,-6.0,-8.0,-899.0,-481.0
-9.0,-234.0,-108.0,-58.0,68.0,-7.0,-17.0,-895.0,-484.0
-10.0,-233.0,-104.0,-59.0,69.0,-9.0,-14.0,-895.0,-486.0
-11.0,-235.0,-108.0,-60.0,70.0,-7.0,-18.0,-893.0,-486.0
-10.0,-234.0,-109.0,-60.0,71.0,-7.0,-18.0,-898.0,-486.0
-9.0,-237.0,-110.0,-59.0,71.0,-8.0,-20.0,-901.0,-484.0
-12.0,-233.0,-109.0,-56.0,72.0,-7.0,-14.0,-899.0,-491.0
-12.0,-234.0,-109.0,-54.0,73.0,-7.0,-15.0,-892.0,-493.0
-9.0,-235.0,-111.0,-50.0,71.0,-6.0,-13.0,-890.0,-491.0
-6.0,-239.0,-121.0,-48.0,72.0,-6.0,-14.0,-899.0,-488.0
-10.0,-235.0,-108.0,-46.0,72.0,-5.0,-17.0,-895.0,-484.0
-10.0,-234.0,-106.0,-44.0,72.0,-4.0,-16.0,-893.0,-489.0
-11.0,-232.0,-107.0,-42.0,72.0,-3.0,-18.0,-893.0,-494.0
-9.0,-235.0,-109.0,-42.0,71.0,-4.0,-16.0,-896.0,-489.0
-8.0,-237.0,-109.0,-40.0,70.0,-3.0,-20.0,-895.0,-486.0
-11.0,-236.0,-107.0,-42.0,71.0,0.0,-22.0,-898.0,-491.0
-11.0,-234.0,-111.0,-42.0,70.0,-1.0,-19.0,-895.0,-485.0
-11.0,-233.0,-112.0,-40.0,70.0,-1.0,-12.0,-896.0,-490.0
-10.0,-234.0,-111.0,-38.0,70.0,-3.0,-13.0,-895.0,-491.0
-5.0,-238.0,-110.0,-37.0,70.0,-1.0,-17.0,-895.0,-491.0
-8.0,-237.0,-110.0,-37.0,70.0,-2.0,-11.0,-893.0,-492.0
-12.0,-233.0,-110.0,-36.0,70.0,-3.0,-13.0,-893.0,-491.0
-9.0,-234.0,-114.0,-36.0,69.0,-4.0,-18.0,-889.0,-494.0
-11.0,-232.0,-110.0,-35.0,66.0,-6.0,-14.0,-895.0,-492.0
-11.0,-233.0,-109.0,-37.0,67.0,-5.0,-17.0,-893.0,-492.0
-6.0,-231.0,-114.0,-39.0,66.0,-4.0,-13.0,-893.0,-493.0
-12.0,-232.0,-109.0,-41.0,67.0,-7.0,-13.0,-885.0,-492.0
-9.0,-233.0,-111.0,-40.0,66.0,-6.0,-12.0,-888.0,-492.0
-8.0,-234.0,-110.0,-41.0,66.0,-5.0,-11.0,-889.0,-491.0
-7.0,-233.0,-108.0,-42.0,68.0,-6.0,-13.0,-890.0,-495.0
-9.0,-235.0,-109.0,-42.0,69.0,-5.0,-12.0,-888.0,-497.0
-9.0,-239.0,-106.0,-43.0,69.0,-5.0,-9.0,-889.0,-491.0
-9.0,-232.0,-111.0,-44.0,70.0,-6.0,-12.0,-891.0,-493.0
-8.0,-233.0,-109.0,-44.0,71.0,-6.0,-12.0,-889.0,-494.0
-9.0,-234.0,-110.0,-45.0,70.0,-6.0,-13.0,-891.0,-499.0
-10.0,-233.0,-108.0,-46.0,70.0,-6.0,-14.0,-891.0,-498.0
-12.0,-236.0,-110.0,-46.0,71.0,-6.0,-9.0,-889.0,-498.0
-8.0,-233.0,-112.0,-45.0,71.0,-6.0,-15.0,-892.0,-500.0
-8.0,-232.0,-113.0,-45.0,71.0,-6.0,-10.0,-890.0,-499.0
-9.0,-234.0,-111.0,-44.0,68.0,-7.0,-12.0,-892.0,-500.0
-8.0,-234.0,-113.0,-42.0,69.0,-6.0,-11.0,-892.0,-499.0
-8.0,-238.0,-112.0,-38.0,69.0,-6.0,-17.0,-895.0,-498.0
-6.0,-234.0,-110.0,-37.0,68.0,-6.0,-16.0,-888.0,-497.0
-13.0,-233.0,-110.0,-35.0,67.0,-6.0,-20.0,-891.0,-498.0
-12.0,-232.0,-110.0,-35.0,68.0,-6.0,-15.0,-891.0,-495.0
-10.0,-233.0,-113.0,-34.0,66.0,-6.0,-13.0,-893.0,-501.0
-8.0,-233.0,-113.0,-34.0,67.0,-6.0,-24.0,-887.0,-495.0
-9.0,-231.0,-113.0,-35.0,66.0,-6.0,-14.0,-892.0,-499.0
-9.0,-230.0,-111.0,-36.0,66.0,-5.0,-13.0,-886.0,-500.0
-11.0,-234.0,-108.0,-36.0,66.0,-5.0,-12.0,-889.0,-499.0
-8.0,-232.0,-109.0,-37.0,67.0,-4.0,-17.0,-890.0,-493.0
-9.0,-232.0,-108.0,-39.0,66.0,-3.0,-16.0,-888.0,-493.0
-10.0,-232.0,-110.0,-39.0,65.0,-3.0,-15.0,-890.0,-495.0
-16.0,-234.0,-109.0,-39.0,67.0,-2.0,-11.0,-892.0,-500.0
-12.0,-231.0,-109.0,-38.0,64.0,-2.0,-14.0,-881.0,-496.0
-9.0,-233.0,-109.0,-38.0,64.0,-1.0,-11.0,-891.0,-493.0
-9.0,-231.0,-107.0,-38.0,64.0,-2.0,-15.0,-892.0,-496.0
-8.0,-231.0,-109.0,-36.0,65.0,-3.0,-11.0,-891.0,-489.0
-11.0,-232.0,-111.0,-36.0,65.0,-2.0,-16.0,-895.0,-493.0
-9.0,-235.0,-110.0,-34.0,65.0,-1.0,-19.0,-889.0,-494.0
-10.0,-233.0,-109.0,-33.0,66.0,-2.0,-14.0,-890.0,-494.0
-7.0,-234.0,-112.0,-33.0,66.0,-2.0,-11.0,-888.0,-495.0
-7.0,-236.0,-111.0,-32.0,67.0,-2.0,-19.0,-890.0,-493.0
-9.0,-234.0,-108.0,-33.0,67.0,-2.0,-12.0,-894.0,-493.0
-12.0,-230.0,-113.0,-33.0,68.0,-3.0,-8.0,-890.0,-501.0
-10.0,-235.0,-112.0,-33.0,69.0,-2.0,-14.0,-892.0,-497.0
-8.0,-230.0,-111.0,-34.0,68.0,-2.0,-11.0,-886.0,-500.0
-11.0,-235.0,-110.0,-31.0,68.0,-3.0,-9.0,-886.0,-502.0
-10.0,-233.0,-111.0,-31.0,66.0,-3.0,-11.0,-889.0,-501.0
-9.0,-229.0,-112.0,-31.0,66.0,-4.0,-16.0,-886.0,-499.0
-9.0,-233.0,-112.0,-33.0,66.0,-5.0,-11.0,-887.0,-494.0
-9.0,-232.0,-109.0,-31.0,66.0,-4.0,-15.0,-890.0,-496.0
-7.0,-235.0,-109.0,-33.0,67.0,-3.0,-16.0,-889.0,-497.0
-11.0,-231.0,-110.0,-33.0,67.0,-2.0,-15.0,-889.0,-491.0
-12.0,-232.0,-110.0,-35.0,67.0,-2.0,-15.0,-887.0,-499.0
-9.0,-234.0,-113.0,-37.0,67.0,-4.0,-19.0,-888.0,-498.0
-9.0,-235.0,-111.0,-38.0,67.0,-1.0,-17.0,-889.0,-499.0
-10.0,-232.0,-112.0,-36.0,67.0,-1.0,-12.0,-887.0,-492.0
-8.0,-233.0,-111.0,-36.0,69.0,-1.0,-17.0,-893.0,-495.0
-10.0,-233.0,-109.0,-34.0,68.0,-2.0,-17.0,-889.0,-494.0
-10.0,-232.0,-113.0,-32.0,68.0,-2.0,-14.0,-892.0,-497.0
-13.0,-232.0,-112.0,-30.0,68.0,0.0,-10.0,-889.0,-496.0
-8.0,-235.0,-110.0,-29.0,68.0,-1.0,-11.0,-893.0,-500.0
-10.0,-231.0,-111.0,-29.0,68.0,-1.0,-14.0,-889.0,-494.0
-9.0,-235.0,-112.0,-29.0,69.0,-1.0,-16.0,-891.0,-502.0
-10.0,-233.0,-111.0,-29.0,69.0,0.0,-13.0,-889.0,-501.0
-9.0,-232.0,-111.0,-30.0,69.0,-1.0,-14.0,-889.0,-500.0
-6.0,-231.0,-111.0,-29.0,69.0,-2.0,-11.0,-887.0,-498.0
-11.0,-233.0,-114.0,-30.0,68.0,-1.0,-14.0,-884.0,-499.0
-9.0,-233.0,-115.0,-32.0,68.0,0.0,-13.0,-888.0,-503.0
-10.0,-232.0,-109.0,-33.0,67.0,0.0,-18.0,-892.0,-502.0
-8.0,-230.0,-112.0,-31.0,66.0,-1.0,-14.0,-891.0,-503.0
-9.0,-233.0,-112.0,-32.0,67.0,-1.0,-15.0,-887.0,-498.0
-10.0,-232.0,-113.0,-31.0,65.0,-1.0,-13.0,-888.0,-496.0
-10.0,-233.0,-113.0,-31.0,66.0,-2.0,-17.0,-892.0,-502.0
-7.0,-229.0,-111.0,-29.0,66.0,0.0,-15.0,-890.0,-500.0
-9.0,-232.0,-113.0,-27.0,65.0,-1.0,-15.0,-891.0,-499.0
-10.0,-234.0,-114.0,-25.0,66.0,-2.0,-11.0,-890.0,-500.0
-14.0,-232.0,-112.0,-24.0,67.0,-1.0,-14.0,-891.0,-497.0
-12.0,-235.0,-113.0,-23.0,67.0,-2.0,-15.0,-890.0,-505.0
-9.0,-235.0,-112.0,-23.0,68.0,0.0,-15.0,-891.0,-502.0
-10.0,-235.0,-111.0,-22.0,69.0,-1.0,-11.0,-882.0,-505.0
-8.0,-232.0,-117.0,-21.0,68.0,-1.0,-12.0,-889.0,-500.0
-14.0,-229.0,-115.0,-22.0,70.0,-2.0,-11.0,-886.0,-501.0
-8.0,-232.0,-116.0,-23.0,69.0,-2.0,-13.0,-889.0,-502.0
-9.0,-232.0,-113.0,-24.0,69.0,-3.0,-15.0,-885.0,-500.0
-10.0,-236.0,-110.0,-24.0,69.0,-4.0,-13.0,-888.0,-504.0
-12.0,-231.0,-108.0,-24.0,70.0,-4.0,-16.0,-885.0,-503.0
-7.0,-233.0,-112.0,-24.0,70.0,-4.0,-14.0,-889.0,-505.0
-11.0,-231.0,-111.0,-23.0,71.0,-4.0,-14.0,-886.0,-500.0
-11.0,-232.0,-113.0,-21.0,71.0,-5.0,-16.0,-888.0,-504.0
-8.0,-233.0,-112.0,-17.0,70.0,-6.0,-18.0,-891.0,-508.0
-12.0,-233.0,-117.0,-14.0,71.0,-5.0,-16.0,-888.0,-505.0
-10.0,-233.0,-113.0,-12.0,71.0,-4.0,-13.0,-885.0,-505.0
-11.0,-235.0,-115.0,-10.0,71.0,-4.0,-17.0,-884.0,-504.0
-11.0,-232.0,-113.0,-8.0,71.0,-5.0,-14.0,-887.0,-506.0
-11.0,-230.0,-112.0,-7.0,71.0,-4.0,-14.0,-887.0,-502.0
-10.0,-232.0,-112.0,-8.0,72.0,-5.0,-16.0,-886.0,-501.0
-6.0,-230.0,-114.0,-9.0,72.0,-5.0,-18.0,-888.0,-509.0
-10.0,-231.0,-108.0,-10.0,72.0,-4.0,-17.0,-883.0,-500.0
-12.0,-232.0,-115.0,-9.0,73.0,-3.0,-17.0,-886.0,-505.0
-12.0,-231.0,-112.0,-8.0,72.0,-5.0,-15.0,-893.0,-502.0
-9.0,-232.0,-112.0,-5.0,71.0,-6.0,-16.0,-890.0,-505.0
-10.0,-233.0,-112.0,-3.0,70.0,-7.0,-19.0,-890.0,-507.0
-8.0,-234.0,-114.0,2.0,70.0,-6.0,-17.0,-889.0,-506.0
-10.0,-230.0,-115.0,5.0,71.0,-7.0,-12.0,-887.0,-502.0
-11.0,-231.0,-116.0,6.0,68.0,-7.0,-11.0,-886.0,-506.0
-11.0,-232.0,-111.0,8.0,68.0,-6.0,-8.0,-889.0,-499.0
-7.0,-231.0,-115.0,9.0,68.0,-7.0,-16.0,-885.0,-499.0
-11.0,-229.0,-111.0,9.0,68.0,-7.0,-14.0,-885.0,-504.0
-10.0,-233.0,-111.0,11.0,67.0,-5.0,-12.0,-884.0,-503.0
-12.0,-232.0,-113.0,9.0,67.0,-6.0,-12.0,-888.0,-502.0
-10.0,-234.0,-116.0,11.0,67.0,-4.0,-15.0,-890.0,-500.0
-11.0,-231.0,-114.0,10.0,67.0,-5.0,-16.0,-886.0,-500.0
-8.0,-234.0,-113.0,9.0,66.0,-6.0,-15.0,-892.0,-501.0
-10.0,-231.0,-110.0,11.0,67.0,-4.0,-10.0,-888.0,-499.0
-8.0,-231.0,-113.0,12.0,68.0,-6.0,-14.0,-889.0,-503.0
-12.0,-234.0,-113.0,11.0,68.0,-7.0,-12.0,-890.0,-500.0
-10.0,-232.0,-109.0,12.0,69.0,-6.0,-14.0,-893.0,-503.0
-8.0,-235.0,-110.0,14.0,69.0,-8.0,-8.0,-890.0,-503.0
-5.0,-236.0,-117.0,13.0,68.0,-7.0,-15.0,-890.0,-501.0
-9.0,-231.0,-109.0,11.0,68.0,-7.0,-16.0,-888.0,-497.0
-9.0,-233.0,-108.0,11.0,68.0,-6.0,-15.0,-892.0,-498.0
-11.0,-234.0,-110.0,10.0,69.0,-5.0,-11.0,-888.0,-496.0
-10.0,-235.0,-111.0,8.0,68.0,-5.0,-18.0,-893.0,-494.0
-12.0,-232.0,-109.0,5.0,70.0,-5.0,-18.0,-894.0,-499.0
-12.0,-232.0,-112.0,4.0,71.0,-5.0,-18.0,-889.0,-496.0
-11.0,-232.0,-110.0,4.0,72.0,-4.0,-18.0,-892.0,-503.0
-12.0,-235.0,-111.0,3.0,72.0,-4.0,-20.0,-893.0,-496.0
-9.0,-234.0,-111.0,4.0,74.0,-3.0,-20.0,-895.0,-499.0
-10.0,-230.0,-110.0,5.0,73.0,-2.0,-13.0,-888.0,-505.0
-10.0,-232.0,-111.0,10.0,74.0,-1.0,-18.0,-889.0,-505.0
-12.0,-229.0,-111.0,13.0,73.0,-2.0,-13.0,-889.0,-498.0
-12.0,-232.0,-115.0,17.0,71.0,-1.0,-9.0,-883.0,-502.0
-11.0,-232.0,-112.0,20.0,72.0,-2.0,-8.0,-881.0,-501.0
-9.0,-232.0,-111.0,19.0,71.0,-2.0,-6.0,-880.0,-502.0
-11.0,-229.0,-110.0,17.0,70.0,-4.0,-5.0,-883.0,-493.0
-8.0,-231.0,-113.0,13.0,70.0,-5.0,-6.0,-886.0,-497.0
-9.0,-234.0,-111.0,9.0,69.0,-5.0,-7.0,-887.0,-497.0
-10.0,-235.0,-109.0,4.0,70.0,-6.0,-16.0,-890.0,-493.0
-11.0,-234.0,-110.0,2.0,71.0,-8.0,-16.0,-895.0,-491.0
-3.0,-235.0,-107.0,-1.0,72.0,-8.0,-13.0,-897.0,-497.0
-10.0,-238.0,-111.0,-2.0,73.0,-7.0,-17.0,-894.0,-493.0
-8.0,-235.0,-111.0,-2.0,74.0,-7.0,-12.0,-895.0,-492.0
-10.0,-235.0,-112.0,1.0,76.0,-8.0,-16.0,-896.0,-495.0
-9.0,-234.0,-108.0,6.0,76.0,-7.0,-11.0,-893.0,-497.0
-10.0,-232.0,-110.0,8.0,75.0,-6.0,-12.0,-894.0,-497.0
-7.0,-236.0,-109.0,12.0,74.0,-6.0,-12.0,-892.0,-497.0
-10.0,-233.0,-110.0,14.0,72.0,-6.0,-10.0,-886.0,-497.0
-12.0,-235.0,-111.0,14.0,71.0,-6.0,-14.0,-888.0,-498.0
-8.0,-233.0,-112.0,15.0,71.0,-4.0,-13.0,-890.0,-498.0
-10.0,-233.0,-110.0,15.0,69.0,-3.0,-15.0,-889.0,-496.0
-10.0,-232.0,-107.0,13.0,68.0,-2.0,-17.0,-890.0,-495.0
-9.0,-234.0,-110.0,12.0,68.0,-3.0,-18.0,-889.0,-497.0
-8.0,-234.0,-113.0,10.0,70.0,-1.0,-18.0,-889.0,-492.0
