acc1_x,acc1_y,acc1_z,gyro_x,gyro_y,gyro_z,acc2_x,acc2_y,acc2_z
1.0,-254.0,16.0,2.0,54.0,15.0,42.0,-983.0,21.0
2.0,-253.0,10.0,2.0,54.0,15.0,43.0,-983.0,13.0
3.0,-252.0,13.0,2.0,54.0,15.0,41.0,-983.0,12.0
2.0,-254.0,13.0,2.0,54.0,14.0,38.0,-981.0,13.0
1.0,-252.0,10.0,2.0,52.0,13.0,33.0,-979.0,12.0
5.0,-251.0,11.0,0.0,53.0,11.0,35.0,-978.0,14.0
0.0,-256.0,15.0,-2.0,53.0,10.0,37.0,-981.0,19.0
0.0,-256.0,13.0,-2.0,52.0,7.0,31.0,-981.0,19.0
0.0,-254.0,11.0,-1.0,51.0,5.0,36.0,-984.0,24.0
2.0,-256.0,14.0,0.0,51.0,5.0,35.0,-978.0,21.0
1.0,-255.0,13.0,2.0,52.0,3.0,33.0,-983.0,27.0
0.0,-255.0,11.0,3.0,51.0,2.0,30.0,-986.0,24.0
0.0,-253.0,13.0,4.0,53.0,1.0,30.0,-981.0,22.0
0.0,-255.0,14.0,6.0,54.0,-1.0,35.0,-983.0,26.0
-1.0,-253.0,13.0,4.0,54.0,0.0,34.0,-984.0,19.0
0.0,-255.0,13.0,4.0,57.0,-1.0,31.0,-987.0,22.0
1.0,-258.0,13.0,1.0,59.0,-1.0,35.0,-983.0,20.0
1.0,-253.0,16.0,-1.0,60.0,0.0,36.0,-985.0,18.0
1.0,-258.0,13.0,-5.0,63.0,0.0,34.0,-992.0,16.0
0.0,-256.0,13.0,-9.0,64.0,2.0,37.0,-995.0,15.0
1.0,-256.0,16.0,-9.0,64.0,3.0,37.0,-998.0,16.0
0.0,-259.0,12.0,-8.0,65.0,6.0,41.0,-1000.0,14.0
4.0,-254.0,12.0,-4.0,67.0,8.0,43.0,-998.0,18.0
1.0,-254.0,9.0,1.0,70.0,8.0,43.0,-992.0,17.0
3.0,-255.0,10.0,4.0,68.0,9.0,43.0,-991.0,16.0
0.0,-252.0,11.0,6.0,68.0,9.0,39.0,-984.0,17.0
0.0,-254.0,13.0,6.0,63.0,9.0,35.0,-979.0,17.0
1.0,-254.0,12.0,7.0,62.0,9.0,35.0,-980.0,13.0
-1.0,-251.0,13.0,3.0,61.0,9.0,32.0,-975.0,18.0
-1.0,-254.0,11.0,0.0,59.0,9.0,31.0,-979.0,15.0
0.0,-254.0,12.0,-3.0,59.0,9.0,24.0,-979.0,20.0
0.0,-257.0,13.0,-7.0,58.0,10.0,26.0,-979.0,20.0
0.0,-255.0,12.0,-11.0,58.0,11.0,29.0,-983.0,20.0
0.0,-254.0,11.0,-14.0,58.0,11.0,30.0,-985.0,22.0
-1.0,-257.0,16.0,-15.0,59.0,10.0,23.0,-983.0,17.0
-4.0,-252.0,12.0,-14.0,60.0,9.0,25.0,-998.0,23.0
0.0,-256.0,16.0,-14.0,60.0,8.0,24.0,-987.0,19.0
-3.0,-256.0,14.0,-13.0,62.0,8.0,29.0,-992.0,20.0
1.0,-255.0,14.0,-11.0,64.0,9.0,32.0,-986.0,16.0
1.0,-258.0,13.0,-9.0,65.0,6.0,34.0,-998.0,20.0
0.0,-255.0,12.0,-8.0,69.0,6.0,32.0,-986.0,19.0
1.0,-254.0,12.0,-6.0,71.0,4.0,37.0,-986.0,21.0
3.0,-254.0,11.0,-6.0,76.0,3.0,35.0,-983.0,17.0
1.0,-254.0,11.0,-5.0,77.0,3.0,37.0,-983.0,17.0
1.0,-257.0,12.0,-5.0,81.0,2.0,39.0,-984.0,19.0
3.0,-256.0,14.0,-5.0,81.0,2.0,39.0,-981.0,23.0
0.0,-256.0,11.0,-6.0,82.0,0.0,39.0,-993.0,21.0
4.0,-254.0,14.0,-5.0,84.0,-1.0,38.0,-986.0,20.0
0.0,-256.0,10.0,-4.0,86.0,-1.0,35.0,-986.0,20.0
2.0,-258.0,16.0,-2.0,88.0,-3.0,34.0,-985.0,24.0
0.0,-255.0,12.0,-3.0,89.0,-5.0,33.0,-980.0,22.0
0.0,-257.0,15.0,-6.0,88.0,-3.0,30.0,-999.0,20.0
0.0,-253.0,10.0,-7.0,89.0,-3.0,30.0,-982.0,21.0
0.0,-257.0,15.0,-12.0,89.0,-3.0,29.0,-987.0,19.0
0.0,-254.0,15.0,-16.0,88.0,-2.0,26.0,-990.0,20.0
0.0,-257.0,12.0,-18.0,85.0,-1.0,29.0,-988.0,17.0
0.0,-255.0,14.0,-17.0,84.0,2.0,29.0,-991.0,19.0
0.0,-258.0,15.0,-13.0,81.0,2.0,27.0,-998.0,18.0
1.0,-257.0,13.0,-8.0,80.0,4.0,29.0,-998.0,23.0
-1.0,-257.0,11.0,-3.0,79.0,5.0,25.0,-993.0,19.0
-2.0,-257.0,13.0,1.0,80.0,6.0,28.0,-991.0,16.0
0.0,-256.0,13.0,1.0,79.0,6.0,29.0,-988.0,18.0
2.0,-256.0,13.0,-1.0,77.0,6.0,28.0,-990.0,19.0
1.0,-253.0,12.0,-7.0,77.0,7.0,26.0,-980.0,23.0
-2.0,-255.0,16.0,-12.0,76.0,8.0,29.0,-982.0,24.0
0.0,-257.0,11.0,-18.0,76.0,9.0,27.0,-980.0,27.0
0.0,-257.0,15.0,-21.0,75.0,9.0,25.0,-980.0,20.0
-2.0,-256.0,13.0,-22.0,73.0,10.0,28.0,-981.0,17.0
-2.0,-255.0,8.0,-21.0,70.0,11.0,27.0,-982.0,22.0
-2.0,-253.0,10.0,-15.0,68.0,10.0,23.0,-984.0,19.0
-3.0,-252.0,10.0,-9.0,67.0,10.0,26.0,-978.0,16.0
-1.0,-254.0,11.0,-3.0,65.0,9.0,27.0,-983.0,15.0
0.0,-255.0,9.0,1.0,65.0,7.0,29.0,-984.0,13.0
-1.0,-252.0,11.0,-1.0,67.0,5.0,30.0,-982.0,17.0
1.0,-255.0,13.0,-6.0,69.0,2.0,31.0,-978.0,17.0
1.0,-255.0,14.0,-17.0,70.0,3.0,35.0,-983.0,19.0
0.0,-255.0,9.0,-26.0,70.0,1.0,37.0,-981.0,16.0
3.0,-255.0,12.0,-32.0,71.0,0.0,34.0,-987.0,18.0
-2.0,-257.0,12.0,-33.0,72.0,1.0,33.0,-997.0,20.0
1.0,-256.0,15.0,-28.0,73.0,2.0,28.0,-1001.0,18.0
0.0,-256.0,17.0,-21.0,74.0,2.0,29.0,-1000.0,20.0
0.0,-257.0,12.0,-11.0,74.0,2.0,28.0,-989.0,19.0
-1.0,-256.0,11.0,-2.0,71.0,4.0,31.0,-993.0,23.0
0.0,-256.0,13.0,7.0,71.0,5.0,24.0,-999.0,19.0
-1.0,-255.0,15.0,11.0,70.0,4.0,20.0,-986.0,20.0
0.0,-254.0,14.0,12.0,70.0,4.0,27.0,-982.0,20.0
0.0,-254.0,15.0,9.0,70.0,2.0,27.0,-982.0,20.0
1.0,-256.0,14.0,4.0,71.0,1.0,28.0,-983.0,22.0
0.0,-256.0,15.0,-2.0,71.0,-1.0,27.0,-986.0,20.0
0.0,-255.0,11.0,-6.0,70.0,-1.0,26.0,-991.0,20.0
1.0,-253.0,13.0,-13.0,72.0,-3.0,29.0,-984.0,19.0
0.0,-255.0,16.0,-17.0,72.0,0.0,33.0,-986.0,25.0
1.0,-256.0,13.0,-19.0,74.0,-3.0,28.0,-998.0,21.0
-1.0,-254.0,12.0,-17.0,72.0,0.0,27.0,-989.0,20.0
0.0,-254.0,10.0,-16.0,71.0,0.0,28.0,-992.0,17.0
-1.0,-260.0,17.0,-14.0,71.0,2.0,30.0,-986.0,20.0
-2.0,-253.0,9.0,-10.0,69.0,3.0,31.0,-997.0,18.0
-2.0,-255.0,10.0,-7.0,68.0,2.0,29.0,-994.0,11.0
0.0,-257.0,10.0,-4.0,66.0,3.0,28.0,-993.0,15.0
0.0,-253.0,10.0,-3.0,65.0,3.0,31.0,-989.0,14.0
0.0,-256.0,9.0,-4.0,63.0,3.0,29.0,-986.0,9.0
0.0,-256.0,13.0,-9.0,63.0,1.0,33.0,-987.0,14.0
2.0,-254.0,11.0,-12.0,62.0,1.0,32.0,-989.0,12.0
0.0,-258.0,12.0,-15.0,64.0,0.0,32.0,-994.0,11.0
1.0,-258.0,11.0,-16.0,64.0,1.0,31.0,-994.0,11.0
1.0,-256.0,11.0,-15.0,65.0,1.0,31.0,-992.0,15.0
0.0,-258.0,11.0,-11.0,64.0,0.0,31.0,-1002.0,16.0
-1.0,-256.0,13.0,-8.0,65.0,-1.0,30.0,-998.0,18.0
2.0,-254.0,12.0,-5.0,67.0,1.0,30.0,-1002.0,18.0
0.0,-254.0,10.0,-3.0,68.0,0.0,32.0,-987.0,14.0
-1.0,-257.0,11.0,-4.0,68.0,0.0,31.0,-984.0,14.0
0.0,-253.0,12.0,-3.0,68.0,-1.0,30.0,-985.0,16.0
0.0,-252.0,14.0,-5.0,70.0,-1.0,33.0,-987.0,17.0
1.0,-256.0,12.0,-6.0,71.0,-3.0,29.0,-982.0,16.0
-1.0,-253.0,11.0,-7.0,71.0,-2.0,28.0,-984.0,13.0
0.0,-253.0,12.0,-9.0,70.0,-4.0,27.0,-981.0,19.0
0.0,-254.0,12.0,-8.0,69.0,-3.0,32.0,-985.0,19.0
-2.0,-252.0,15.0,-7.0,69.0,-3.0,28.0,-985.0,19.0
0.0,-255.0,12.0,-7.0,69.0,-3.0,25.0,-987.0,21.0
-2.0,-257.0,12.0,-8.0,71.0,-4.0,25.0,-987.0,19.0
0.0,-255.0,13.0,-8.0,72.0,-5.0,28.0,-993.0,15.0
1.0,-257.0,12.0,-8.0,70.0,-4.0,24.0,-999.0,17.0
-3.0,-258.0,14.0,-7.0,71.0,-2.0,25.0,-999.0,22.0
-3.0,-254.0,12.0,-6.0,71.0,-3.0,28.0,-984.0,20.0
0.0,-258.0,11.0,-4.0,71.0,-3.0,29.0,-994.0,25.0
0.0,-254.0,11.0,-3.0,70.0,-3.0,30.0,-985.0,27.0
0.0,-254.0,17.0,-3.0,71.0,-3.0,27.0,-991.0,20.0
-2.0,-252.0,13.0,-4.0,69.0,-4.0,33.0,-982.0,19.0
0.0,-251.0,10.0,-5.0,69.0,-3.0,30.0,-986.0,20.0
0.0,-256.0,12.0,-8.0,69.0,-5.0,22.0,-983.0,23.0
0.0,-254.0,14.0,-8.0,67.0,-5.0,23.0,-981.0,22.0
0.0,-255.0,12.0,-11.0,66.0,-5.0,22.0,-977.0,19.0
-5.0,-253.0,16.0,-13.0,65.0,-4.0,25.0,-988.0,25.0
0.0,-256.0,15.0,-14.0,66.0,-4.0,26.0,-978.0,17.0
0.0,-253.0,17.0,-14.0,65.0,-4.0,28.0,-983.0,23.0
0.0,-254.0,10.0,-17.0,66.0,-4.0,28.0,-985.0,20.0
1.0,-256.0,14.0,-18.0,66.0,-4.0,29.0,-984.0,22.0
0.0,-255.0,9.0,-21.0,67.0,-4.0,29.0,-991.0,18.0
-1.0,-256.0,15.0,-23.0,66.0,-5.0,32.0,-985.0,21.0
1.0,-256.0,12.0,-24.0,67.0,-4.0,28.0,-998.0,19.0
0.0,-258.0,14.0,-25.0,67.0,-5.0,31.0,-987.0,24.0
-2.0,-257.0,13.0,-25.0,69.0,-5.0,36.0,-994.0,18.0
0.0,-257.0,11.0,-24.0,70.0,-5.0,34.0,-993.0,19.0
0.0,-257.0,14.0,-23.0,70.0,-6.0,30.0,-991.0,20.0
1.0,-257.0,10.0,-23.0,71.0,-7.0,28.0,-987.0,20.0
2.0,-254.0,10.0,-22.0,73.0,-7.0,35.0,-985.0,19.0
0.0,-258.0,13.0,-22.0,74.0,-7.0,34.0,-984.0,19.0
-2.0,-255.0,15.0,-22.0,75.0,-8.0,32.0,-981.0,20.0
1.0,-255.0,17.0,-24.0,77.0,-7.0,29.0,-985.0,21.0
0.0,-255.0,13.0,-26.0,79.0,-7.0,29.0,-985.0,20.0
0.0,-252.0,12.0,-29.0,80.0,-7.0,28.0,-992.0,25.0
0.0,-254.0,12.0,-33.0,80.0,-8.0,30.0,-979.0,21.0
0.0,-254.0,13.0,-37.0,80.0,-7.0,27.0,-982.0,20.0
0.0,-255.0,13.0,-42.0,79.0,-5.0,31.0,-982.0,26.0
0.0,-255.0,12.0,-48.0,79.0,-4.0,32.0,-991.0,20.0
-1.0,-258.0,10.0,-54.0,78.0,-4.0,26.0,-986.0,21.0
0.0,-256.0,13.0,-57.0,77.0,-5.0,28.0,-983.0,12.0
-1.0,-256.0,9.0,-60.0,78.0,-4.0,26.0,-986.0,10.0
0.0,-255.0,12.0,-62.0,78.0,-3.0,29.0,-984.0,15.0
0.0,-254.0,8.0,-62.0,79.0,-5.0,32.0,-984.0,7.0
2.0,-254.0,10.0,-62.0,80.0,-6.0,29.0,-990.0,15.0
0.0,-253.0,12.0,-62.0,80.0,-5.0,29.0,-983.0,17.0
1.0,-256.0,10.0,-62.0,81.0,-5.0,30.0,-985.0,18.0
0.0,-252.0,12.0,-63.0,82.0,-7.0,28.0,-983.0,16.0
-1.0,-255.0,17.0,-64.0,83.0,-6.0,30.0,-982.0,22.0
0.0,-252.0,14.0,-65.0,84.0,-7.0,27.0,-978.0,27.0
0.0,-255.0,15.0,-67.0,85.0,-7.0,29.0,-984.0,31.0
0.0,-252.0,12.0,-69.0,81.0,-8.0,28.0,-987.0,21.0
0.0,-256.0,14.0,-70.0,81.0,-9.0,31.0,-986.0,18.0
1.0,-254.0,13.0,-69.0,81.0,-8.0,35.0,-985.0,25.0
1.0,-257.0,11.0,-69.0,82.0,-10.0,30.0,-986.0,20.0
3.0,-255.0,12.0,-68.0,84.0,-13.0,28.0,-981.0,18.0
3.0,-256.0,15.0,-70.0,85.0,-15.0,34.0,-973.0,17.0
1.0,-255.0,8.0,-75.0,86.0,-16.0,32.0,-975.0,17.0
2.0,-253.0,14.0,-80.0,90.0,-18.0,35.0,-976.0,15.0
2.0,-255.0,11.0,-87.0,91.0,-19.0,40.0,-981.0,14.0
0.0,-253.0,15.0,-93.0,92.0,-21.0,40.0,-985.0,16.0
2.0,-255.0,13.0,-96.0,96.0,-21.0,40.0,-985.0,18.0
1.0,-254.0,11.0,-96.0,98.0,-20.0,43.0,-999.0,16.0
2.0,-257.0,13.0,-93.0,100.0,-19.0,40.0,-1003.0,16.0
0.0,-254.0,12.0,-87.0,104.0,-20.0,39.0,-998.0,15.0
1.0,-256.0,10.0,-81.0,105.0,-20.0,37.0,-986.0,14.0
0.0,-257.0,9.0,-73.0,107.0,-19.0,37.0,-993.0,16.0
1.0,-257.0,9.0,-66.0,109.0,-20.0,40.0,-992.0,15.0
5.0,-257.0,10.0,-63.0,107.0,-18.0,38.0,-986.0,10.0
3.0,-258.0,12.0,-60.0,108.0,-19.0,39.0,-998.0,12.0
2.0,-257.0,10.0,-60.0,109.0,-19.0,43.0,-998.0,10.0
2.0,-257.0,12.0,-61.0,112.0,-21.0,39.0,-986.0,15.0
3.0,-258.0,10.0,-62.0,115.0,-21.0,40.0,-991.0,8.0
1.0,-256.0,12.0,-60.0,118.0,-22.0,45.0,-993.0,13.0
3.0,-257.0,14.0,-59.0,123.0,-21.0,40.0,-1006.0,12.0
0.0,-256.0,10.0,-59.0,124.0,-21.0,41.0,-997.0,11.0
1.0,-256.0,11.0,-58.0,127.0,-21.0,40.0,-997.0,12.0
1.0,-256.0,13.0,-56.0,126.0,-19.0,36.0,-997.0,10.0
1.0,-257.0,11.0,-54.0,126.0,-18.0,34.0,-997.0,15.0
2.0,-256.0,11.0,-52.0,126.0,-17.0,33.0,-998.0,9.0
0.0,-254.0,11.0,-50.0,126.0,-16.0,35.0,-986.0,8.0
0.0,-261.0,9.0,-48.0,125.0,-15.0,32.0,-999.0,12.0
0.0,-254.0,5.0,-46.0,125.0,-16.0,35.0,-984.0,9.0
1.0,-258.0,6.0,-46.0,123.0,-17.0,29.0,-982.0,1.0
1.0,-259.0,7.0,-47.0,122.0,-17.0,35.0,-986.0,4.0
0.0,-255.0,7.0,-47.0,119.0,-17.0,38.0,-985.0,2.0
2.0,-255.0,9.0,-49.0,117.0,-16.0,38.0,-989.0,6.0
2.0,-254.0,8.0,-50.0,115.0,-16.0,37.0,-998.0,4.0
2.0,-257.0,11.0,-51.0,112.0,-14.0,34.0,-981.0,2.0
2.0,-256.0,8.0,-53.0,109.0,-14.0,37.0,-992.0,7.0
0.0,-256.0,12.0,-53.0,106.0,-11.0,40.0,-987.0,4.0
1.0,-258.0,8.0,-53.0,105.0,-8.0,37.0,-993.0,7.0
2.0,-255.0,9.0,-52.0,106.0,-7.0,36.0,-990.0,7.0
-1.0,-259.0,11.0,-51.0,108.0,-5.0,39.0,-992.0,5.0
0.0,-254.0,8.0,-50.0,110.0,-5.0,36.0,-984.0,11.0
2.0,-258.0,13.0,-49.0,112.0,-5.0,37.0,-990.0,4.0
1.0,-256.0,7.0,-50.0,112.0,-7.0,32.0,-984.0,4.0
2.0,-256.0,12.0,-51.0,112.0,-6.0,31.0,-981.0,8.0
0.0,-254.0,15.0,-55.0,114.0,-8.0,33.0,-978.0,6.0
2.0,-257.0,12.0,-57.0,115.0,-8.0,36.0,-985.0,7.0
2.0,-253.0,10.0,-59.0,114.0,-9.0,37.0,-978.0,7.0
-1.0,-254.0,9.0,-60.0,114.0,-9.0,34.0,-982.0,7.0
1.0,-252.0,10.0,-60.0,114.0,-9.0,34.0,-979.0,6.0
0.0,-253.0,10.0,-60.0,112.0,-8.0,34.0,-980.0,8.0
0.0,-254.0,11.0,-61.0,107.0,-7.0,30.0,-981.0,7.0
0.0,-256.0,13.0,-60.0,103.0,-7.0,25.0,-980.0,11.0
-1.0,-256.0,7.0,-61.0,101.0,-6.0,28.0,-985.0,8.0
0.0,-254.0,9.0,-63.0,99.0,-7.0,24.0,-982.0,5.0
0.0,-255.0,7.0,-64.0,97.0,-6.0,31.0,-983.0,4.0
0.0,-256.0,10.0,-65.0,97.0,-7.0,30.0,-987.0,5.0
-1.0,-255.0,8.0,-64.0,95.0,-6.0,29.0,-984.0,8.0
-1.0,-256.0,8.0,-61.0,94.0,-7.0,29.0,-993.0,8.0
1.0,-258.0,6.0,-58.0,93.0,-7.0,23.0,-989.0,3.0
0.0,-257.0,11.0,-54.0,92.0,-8.0,28.0,-998.0,0.0
0.0,-256.0,10.0,-50.0,92.0,-10.0,22.0,-995.0,1.0
0.0,-254.0,6.0,-47.0,89.0,-10.0,25.0,-993.0,0.0
1.0,-257.0,5.0,-46.0,89.0,-9.0,34.0,-992.0,-6.0
1.0,-257.0,7.0,-45.0,87.0,-11.0,30.0,-979.0,-1.0
0.0,-255.0,9.0,-44.0,85.0,-10.0,30.0,-986.0,-3.0
-2.0,-255.0,8.0,-43.0,81.0,-9.0,34.0,-987.0,-1.0
0.0,-253.0,8.0,-43.0,80.0,-7.0,34.0,-993.0,-5.0
0.0,-256.0,4.0,-43.0,79.0,-7.0,30.0,-991.0,2.0
0.0,-254.0,0.0,-44.0,78.0,-7.0,32.0,-986.0,-5.0
0.0,-256.0,4.0,-46.0,76.0,-7.0,32.0,-987.0,2.0
1.0,-253.0,10.0,-47.0,73.0,-7.0,34.0,-992.0,1.0
1.0,-257.0,8.0,-49.0,70.0,-6.0,33.0,-995.0,-1.0
2.0,-257.0,7.0,-50.0,69.0,-4.0,36.0,-994.0,-1.0
1.0,-259.0,6.0,-50.0,68.0,-3.0,32.0,-995.0,2.0
-1.0,-257.0,13.0,-49.0,68.0,-3.0,35.0,-995.0,-6.0
0.0,-258.0,7.0,-47.0,69.0,-4.0,39.0,-993.0,-1.0
2.0,-257.0,7.0,-43.0,68.0,-3.0,35.0,-997.0,-2.0
1.0,-258.0,7.0,-36.0,69.0,-3.0,34.0,-997.0,5.0
-1.0,-257.0,7.0,-33.0,70.0,-2.0,35.0,-991.0,-3.0
-1.0,-253.0,7.0,-30.0,68.0,-1.0,35.0,-985.0,1.0
0.0,-255.0,9.0,-27.0,69.0,0.0,32.0,-990.0,0.0
0.0,-255.0,10.0,-27.0,68.0,0.0,36.0,-993.0,-1.0
0.0,-254.0,7.0,-28.0,67.0,1.0,29.0,-987.0,2.0
0.0,-253.0,9.0,-29.0,64.0,2.0,35.0,-985.0,-4.0
0.0,-253.0,7.0,-29.0,63.0,0.0,31.0,-986.0,-3.0
0.0,-256.0,8.0,-28.0,63.0,3.0,34.0,-981.0,-5.0
0.0,-255.0,6.0,-29.0,64.0,3.0,36.0,-985.0,-4.0
1.0,-254.0,7.0,-28.0,68.0,5.0,38.0,-984.0,-2.0
1.0,-256.0,8.0,-29.0,68.0,5.0,35.0,-993.0,0.0
1.0,-256.0,6.0,-30.0,67.0,2.0,36.0,-985.0,2.0
0.0,-254.0,6.0,-32.0,70.0,0.0,40.0,-995.0,-2.0
1.0,-258.0,7.0,-36.0,70.0,-2.0,40.0,-993.0,-5.0
2.0,-256.0,11.0,-41.0,72.0,-2.0,39.0,-992.0,-6.0
0.0,-254.0,8.0,-45.0,76.0,-4.0,46.0,-988.0,0.0
1.0,-255.0,6.0,-49.0,77.0,-4.0,36.0,-994.0,-3.0
3.0,-252.0,0.0,-51.0,79.0,-6.0,36.0,-986.0,4.0
1.0,-257.0,12.0,-52.0,78.0,-5.0,36.0,-986.0,9.0
0.0,-257.0,11.0,-52.0,80.0,-5.0,31.0,-987.0,7.0
1.0,-257.0,9.0,-49.0,76.0,-2.0,32.0,-995.0,-1.0
3.0,-258.0,4.0,-43.0,74.0,-1.0,27.0,-983.0,-8.0
2.0,-255.0,7.0,-38.0,70.0,0.0,28.0,-986.0,0.0
0.0,-254.0,9.0,-36.0,69.0,1.0,28.0,-974.0,-7.0
0.0,-252.0,7.0,-32.0,72.0,0.0,35.0,-979.0,-6.0
0.0,-253.0,4.0,-34.0,74.0,1.0,35.0,-970.0,-7.0
1.0,-251.0,5.0,-39.0,77.0,-1.0,39.0,-979.0,-7.0
0.0,-252.0,6.0,-48.0,80.0,-2.0,33.0,-983.0,-7.0
1.0,-255.0,2.0,-56.0,81.0,-2.0,32.0,-981.0,-5.0
1.0,-259.0,8.0,-59.0,80.0,-2.0,36.0,-984.0,-1.0
1.0,-256.0,9.0,-59.0,81.0,-3.0,37.0,-994.0,2.0
1.0,-258.0,8.0,-55.0,82.0,-3.0,39.0,-1001.0,0.0
3.0,-257.0,9.0,-45.0,81.0,-2.0,35.0,-1002.0,-2.0
2.0,-258.0,7.0,-35.0,81.0,-3.0,32.0,-998.0,-3.0
0.0,-257.0,10.0,-26.0,77.0,-2.0,32.0,-995.0,-1.0
0.0,-257.0,7.0,-18.0,73.0,-3.0,31.0,-986.0,-4.0
0.0,-255.0,8.0,-13.0,71.0,-1.0,29.0,-988.0,-3.0
1.0,-254.0,13.0,-13.0,70.0,-1.0,31.0,-983.0,-2.0
0.0,-255.0,7.0,-15.0,68.0,-1.0,31.0,-979.0,-5.0
4.0,-259.0,5.0,-18.0,72.0,0.0,32.0,-985.0,-2.0
-2.0,-259.0,-1.0,-22.0,75.0,-1.0,28.0,-982.0,-3.0
0.0,-252.0,9.0,-26.0,79.0,-2.0,30.0,-985.0,-3.0
0.0,-254.0,8.0,-31.0,81.0,-3.0,38.0,-982.0,-6.0
2.0,-257.0,3.0,-32.0,85.0,-6.0,39.0,-985.0,-13.0
-1.0,-255.0,5.0,-34.0,87.0,-7.0,38.0,-985.0,-5.0
0.0,-253.0,5.0,-34.0,89.0,-9.0,39.0,-990.0,-9.0
0.0,-255.0,5.0,-33.0,90.0,-11.0,37.0,-997.0,-11.0
1.0,-261.0,6.0,-30.0,90.0,-13.0,35.0,-992.0,-8.0
1.0,-259.0,4.0,-27.0,88.0,-12.0,36.0,-993.0,-6.0
2.0,-259.0,10.0,-23.0,85.0,-14.0,36.0,-988.0,-8.0
0.0,-258.0,3.0,-19.0,82.0,-12.0,37.0,-1003.0,-8.0
0.0,-259.0,7.0,-18.0,80.0,-11.0,35.0,-989.0,-13.0
2.0,-258.0,3.0,-15.0,77.0,-11.0,37.0,-1002.0,-14.0
0.0,-261.0,5.0,-13.0,75.0,-10.0,35.0,-1006.0,-13.0
0.0,-259.0,3.0,-12.0,74.0,-9.0,35.0,-1009.0,-15.0
0.0,-259.0,7.0,-10.0,74.0,-6.0,34.0,-1004.0,-12.0
0.0,-258.0,5.0,-7.0,74.0,-6.0,38.0,-1004.0,-11.0
1.0,-257.0,8.0,-3.0,72.0,-6.0,35.0,-1008.0,-13.0
0.0,-258.0,3.0,2.0,71.0,-5.0,37.0,-999.0,-10.0
1.0,-255.0,8.0,6.0,72.0,-4.0,31.0,-998.0,-8.0
1.0,-255.0,6.0,9.0,72.0,-4.0,36.0,-994.0,-10.0
0.0,-256.0,2.0,13.0,71.0,-3.0,38.0,-997.0,-12.0
1.0,-252.0,5.0,13.0,72.0,-5.0,37.0,-988.0,-10.0
1.0,-252.0,5.0,10.0,71.0,-5.0,37.0,-983.0,-11.0
0.0,-255.0,8.0,5.0,74.0,-5.0,37.0,-984.0,-10.0
4.0,-255.0,5.0,0.0,74.0,-5.0,35.0,-977.0,-7.0
0.0,-254.0,5.0,-4.0,74.0,-4.0,36.0,-984.0,-8.0
0.0,-254.0,7.0,-10.0,72.0,-3.0,38.0,-987.0,-7.0
1.0,-255.0,5.0,-13.0,71.0,-4.0,36.0,-985.0,-3.0
1.0,-254.0,3.0,-12.0,71.0,-2.0,36.0,-985.0,-5.0
0.0,-256.0,7.0,-12.0,70.0,-1.0,38.0,-992.0,-6.0
1.0,-255.0,5.0,-9.0,71.0,-1.0,37.0,-986.0,0.0
1.0,-257.0,3.0,-8.0,71.0,0.0,37.0,-985.0,-3.0
1.0,-255.0,4.0,-8.0,72.0,-2.0,35.0,-983.0,-12.0
1.0,-258.0,5.0,-8.0,73.0,-4.0,39.0,-987.0,-4.0
3.0,-257.0,6.0,-7.0,73.0,-5.0,41.0,-993.0,-7.0
1.0,-255.0,10.0,-8.0,74.0,-7.0,38.0,-991.0,-5.0
3.0,-257.0,5.0,-9.0,75.0,-8.0,36.0,-991.0,-6.0
1.0,-254.0,8.0,-9.0,75.0,-8.0,40.0,-993.0,-3.0
-1.0,-253.0,8.0,-9.0,78.0,-9.0,37.0,-979.0,-10.0
2.0,-255.0,8.0,-9.0,78.0,-10.0,40.0,-991.0,-5.0
1.0,-256.0,4.0,-6.0,79.0,-9.0,34.0,-985.0,-7.0
0.0,-255.0,4.0,-8.0,81.0,-11.0,34.0,-986.0,-7.0
0.0,-253.0,1.0,-6.0,82.0,-11.0,38.0,-1001.0,-12.0
0.0,-256.0,4.0,-7.0,83.0,-11.0,37.0,-988.0,-13.0
1.0,-255.0,4.0,-7.0,85.0,-10.0,36.0,-988.0,-7.0
0.0,-254.0,5.0,-7.0,85.0,-10.0,36.0,-992.0,-10.0
1.0,-256.0,8.0,-8.0,85.0,-11.0,28.0,-987.0,-12.0
0.0,-257.0,4.0,-7.0,82.0,-10.0,31.0,-993.0,-8.0
0.0,-256.0,4.0,-8.0,78.0,-10.0,35.0,-999.0,-12.0
1.0,-253.0,4.0,-7.0,77.0,-9.0,32.0,-993.0,-5.0
0.0,-256.0,7.0,-7.0,75.0,-7.0,30.0,-997.0,-8.0
0.0,-255.0,4.0,-6.0,74.0,-4.0,32.0,-988.0,-10.0
1.0,-254.0,7.0,-5.0,71.0,-3.0,35.0,-984.0,-7.0
1.0,-256.0,8.0,-5.0,70.0,-3.0,31.0,-991.0,-7.0
-2.0,-256.0,8.0,-5.0,70.0,-2.0,31.0,-994.0,-7.0
0.0,-257.0,9.0,-4.0,70.0,-1.0,32.0,-999.0,-11.0
2.0,-253.0,6.0,-4.0,69.0,-2.0,38.0,-994.0,-11.0
2.0,-258.0,9.0,-1.0,69.0,-2.0,40.0,-996.0,-6.0
1.0,-254.0,3.0,1.0,69.0,0.0,35.0,-995.0,-5.0
2.0,-257.0,4.0,3.0,71.0,1.0,40.0,-990.0,-6.0
2.0,-258.0,3.0,3.0,69.0,0.0,36.0,-985.0,-1.0
1.0,-256.0,7.0,2.0,69.0,1.0,36.0,-991.0,-5.0
0.0,-256.0,7.0,0.0,68.0,1.0,30.0,-992.0,-6.0
1.0,-254.0,4.0,-3.0,66.0,1.0,31.0,-998.0,-3.0
0.0,-258.0,7.0,-4.0,65.0,0.0,30.0,-1002.0,-6.0
0.0,-256.0,2.0,-3.0,64.0,1.0,33.0,-997.0,-6.0
0.0,-257.0,4.0,-2.0,65.0,1.0,34.0,-999.0,-9.0
2.0,-260.0,12.0,3.0,65.0,-1.0,38.0,-993.0,-7.0
-1.0,-256.0,5.0,5.0,68.0,0.0,33.0,-988.0,-5.0
0.0,-258.0,7.0,8.0,71.0,-2.0,37.0,-988.0,-9.0
2.0,-256.0,0.0,7.0,75.0,-1.0,34.0,-986.0,-11.0
1.0,-257.0,4.0,7.0,75.0,-3.0,35.0,-983.0,-12.0
1.0,-256.0,2.0,4.0,75.0,-4.0,36.0,-980.0,-11.0
2.0,-258.0,10.0,1.0,76.0,-4.0,35.0,-984.0,-5.0
0.0,-255.0,8.0,-3.0,75.0,-5.0,37.0,-991.0,-10.0
0.0,-254.0,7.0,-6.0,74.0,-5.0,35.0,-989.0,1.0
1.0,-256.0,7.0,-8.0,73.0,-4.0,29.0,-984.0,1.0
2.0,-255.0,7.0,-9.0,72.0,-4.0,28.0,-997.0,-4.0
0.0,-252.0,5.0,-6.0,68.0,-2.0,33.0,-985.0,-2.0
-3.0,-255.0,7.0,-4.0,64.0,-1.0,26.0,-987.0,-1.0
-1.0,-253.0,5.0,-2.0,59.0,-2.0,31.0,-985.0,-1.0
0.0,-252.0,6.0,3.0,57.0,0.0,32.0,-981.0,-5.0
0.0,-252.0,8.0,6.0,54.0,0.0,32.0,-979.0,-7.0
0.0,-253.0,7.0,7.0,53.0,2.0,33.0,-977.0,-3.0
0.0,-252.0,7.0,3.0,53.0,0.0,38.0,-979.0,-9.0
-1.0,-252.0,5.0,-4.0,56.0,0.0,37.0,-986.0,-15.0
6.0,-259.0,3.0,-11.0,58.0,1.0,39.0,-988.0,-7.0
0.0,-254.0,9.0,-19.0,59.0,0.0,40.0,-995.0,-7.0
2.0,-257.0,8.0,-22.0,62.0,0.0,37.0,-1000.0,-4.0
2.0,-257.0,8.0,-22.0,63.0,-1.0,39.0,-994.0,-2.0
0.0,-257.0,3.0,-18.0,64.0,-1.0,38.0,-1004.0,1.0
0.0,-259.0,7.0,-11.0,64.0,-1.0,36.0,-1002.0,-1.0
0.0,-262.0,11.0,-2.0,63.0,-1.0,37.0,-1006.0,2.0
1.0,-258.0,7.0,8.0,60.0,1.0,34.0,-999.0,-2.0
0.0,-257.0,4.0,15.0,57.0,2.0,37.0,-1005.0,-1.0
0.0,-256.0,9.0,20.0,57.0,1.0,34.0,-985.0,-3.0
0.0,-255.0,11.0,22.0,56.0,1.0,32.0,-992.0,-2.0
1.0,-253.0,8.0,20.0,55.0,2.0,34.0,-983.0,-1.0
1.0,-253.0,7.0,13.0,54.0,3.0,29.0,-986.0,7.0
0.0,-255.0,8.0,6.0,55.0,2.0,29.0,-976.0,2.0
-1.0,-254.0,10.0,-2.0,56.0,2.0,38.0,-982.0,0.0
1.0,-256.0,9.0,-9.0,60.0,1.0,40.0,-983.0,3.0
1.0,-258.0,10.0,-14.0,64.0,-1.0,43.0,-992.0,-4.0
1.0,-258.0,6.0,-18.0,67.0,-1.0,40.0,-994.0,-1.0
1.0,-255.0,8.0,-20.0,70.0,-1.0,38.0,-998.0,0.0
2.0,-258.0,6.0,-18.0,70.0,-2.0,41.0,-992.0,-2.0
4.0,-256.0,6.0,-15.0,69.0,-2.0,40.0,-993.0,-6.0
-4.0,-259.0,4.0,-11.0,69.0,-2.0,41.0,-994.0,-4.0
1.0,-259.0,2.0,-6.0,69.0,-1.0,39.0,-1000.0,-9.0
2.0,-257.0,1.0,-1.0,66.0,-1.0,43.0,-993.0,-4.0
3.0,-257.0,8.0,4.0,66.0,-2.0,37.0,-992.0,-3.0
1.0,-256.0,7.0,6.0,66.0,-3.0,36.0,-987.0,-2.0
2.0,-256.0,7.0,9.0,66.0,-4.0,40.0,-993.0,-11.0
0.0,-253.0,5.0,9.0,65.0,-5.0,38.0,-993.0,-6.0
3.0,-257.0,9.0,9.0,64.0,-5.0,34.0,-991.0,-6.0
0.0,-258.0,4.0,5.0,66.0,-4.0,30.0,-992.0,-2.0
1.0,-257.0,6.0,2.0,66.0,-4.0,35.0,-1003.0,-4.0
0.0,-254.0,9.0,0.0,67.0,-3.0,32.0,-998.0,2.0
2.0,-255.0,11.0,0.0,67.0,-3.0,34.0,-996.0,5.0
-1.0,-257.0,7.0,1.0,67.0,-4.0,36.0,-999.0,5.0
2.0,-256.0,5.0,2.0,67.0,-1.0,36.0,-990.0,7.0
0.0,-255.0,9.0,2.0,67.0,0.0,35.0,-995.0,1.0
4.0,-255.0,11.0,3.0,66.0,3.0,37.0,-986.0,4.0
2.0,-253.0,10.0,1.0,65.0,3.0,38.0,-984.0,-2.0
0.0,-253.0,9.0,-2.0,63.0,3.0,38.0,-985.0,-3.0
2.0,-258.0,7.0,-5.0,64.0,4.0,38.0,-985.0,-3.0
1.0,-254.0,5.0,-8.0,64.0,3.0,38.0,-982.0,0.0
1.0,-253.0,7.0,-13.0,63.0,2.0,38.0,-982.0,-5.0
4.0,-255.0,4.0,-21.0,62.0,1.0,41.0,-983.0,-4.0
3.0,-253.0,3.0,-34.0,62.0,0.0,40.0,-982.0,-1.0
4.0,-252.0,7.0,-47.0,61.0,0.0,41.0,-981.0,-1.0
2.0,-256.0,8.0,-63.0,61.0,2.0,47.0,-978.0,-2.0
2.0,-256.0,7.0,-79.0,60.0,3.0,49.0,-984.0,-4.0
4.0,-258.0,9.0,-95.0,62.0,4.0,50.0,-1002.0,-6.0
3.0,-257.0,2.0,-113.0,65.0,3.0,45.0,-1006.0,-13.0
2.0,-259.0,-2.0,-137.0,71.0,-6.0,46.0,-1011.0,-29.0
8.0,-261.0,-2.0,-170.0,81.0,-15.0,58.0,-1018.0,-35.0
13.0,-261.0,-6.0,-211.0,90.0,-29.0,63.0,-1023.0,-55.0
11.0,-261.0,-9.0,-258.0,102.0,-46.0,80.0,-1016.0,-69.0
12.0,-261.0,-12.0,-304.0,117.0,-63.0,86.0,-1019.0,-80.0
15.0,-261.0,-11.0,-344.0,132.0,-75.0,90.0,-1017.0,-83.0
12.0,-261.0,-11.0,-371.0,149.0,-78.0,104.0,-1019.0,-81.0
16.0,-264.0,-12.0,-383.0,167.0,-72.0,101.0,-1025.0,-81.0
17.0,-266.0,-8.0,-378.0,180.0,-59.0,102.0,-1038.0,-75.0
13.0,-269.0,-7.0,-359.0,188.0,-43.0,98.0,-1045.0,-63.0
10.0,-268.0,-1.0,-333.0,188.0,-24.0,83.0,-1053.0,-44.0
4.0,-270.0,2.0,-303.0,178.0,-4.0,66.0,-1041.0,-23.0
2.0,-267.0,8.0,-275.0,159.0,18.0,46.0,-1031.0,-13.0
0.0,-262.0,7.0,-253.0,133.0,33.0,28.0,-1019.0,0.0
-7.0,-252.0,11.0,-236.0,106.0,44.0,12.0,-986.0,6.0
-9.0,-249.0,14.0,-230.0,80.0,51.0,-8.0,-963.0,14.0
-16.0,-247.0,11.0,-233.0,55.0,52.0,-29.0,-942.0,15.0
-17.0,-237.0,13.0,-245.0,39.0,49.0,-39.0,-926.0,13.0
-20.0,-237.0,11.0,-263.0,28.0,44.0,-47.0,-916.0,12.0
-22.0,-237.0,9.0,-283.0,28.0,40.0,-54.0,-906.0,10.0
-22.0,-236.0,11.0,-293.0,37.0,36.0,-61.0,-901.0,8.0
-22.0,-239.0,7.0,-297.0,49.0,35.0,-62.0,-910.0,16.0
-24.0,-238.0,13.0,-290.0,57.0,40.0,-72.0,-915.0,19.0
-25.0,-241.0,20.0,-270.0,60.0,50.0,-73.0,-923.0,28.0
-24.0,-247.0,18.0,-242.0,51.0,63.0,-70.0,-938.0,38.0
-24.0,-247.0,23.0,-218.0,27.0,79.0,-64.0,-948.0,51.0
-23.0,-248.0,24.0,-190.0,-16.0,97.0,-59.0,-952.0,61.0
-21.0,-251.0,24.0,-165.0,-72.0,111.0,-41.0,-961.0,59.0
-17.0,-254.0,26.0,-143.0,-132.0,123.0,-20.0,-976.0,73.0
-12.0,-256.0,29.0,-133.0,-182.0,133.0,-13.0,-998.0,77.0
-5.0,-261.0,33.0,-131.0,-237.0,143.0,11.0,-1010.0,89.0
0.0,-264.0,37.0,-133.0,-284.0,147.0,36.0,-1019.0,94.0
5.0,-263.0,35.0,-136.0,-324.0,153.0,55.0,-1019.0,98.0
9.0,-261.0,35.0,-140.0,-354.0,149.0,74.0,-1016.0,89.0
11.0,-261.0,28.0,-149.0,-376.0,147.0,90.0,-1010.0,67.0
17.0,-257.0,19.0,-169.0,-387.0,142.0,106.0,-998.0,38.0
20.0,-252.0,10.0,-202.0,-387.0,139.0,125.0,-981.0,16.0
27.0,-252.0,2.0,-244.0,-372.0,136.0,136.0,-968.0,-11.0
29.0,-253.0,2.0,-288.0,-345.0,132.0,143.0,-962.0,-25.0
28.0,-252.0,-1.0,-322.0,-308.0,129.0,139.0,-966.0,-33.0
26.0,-252.0,1.0,-342.0,-264.0,126.0,139.0,-972.0,-27.0
25.0,-254.0,6.0,-338.0,-223.0,120.0,135.0,-977.0,-10.0
23.0,-259.0,6.0,-314.0,-185.0,113.0,130.0,-983.0,2.0
25.0,-262.0,8.0,-275.0,-155.0,106.0,113.0,-998.0,7.0
18.0,-257.0,9.0,-229.0,-134.0,101.0,103.0,-1000.0,0.0
13.0,-254.0,4.0,-185.0,-122.0,98.0,92.0,-985.0,-14.0
11.0,-251.0,-3.0,-150.0,-116.0,96.0,88.0,-969.0,-26.0
13.0,-249.0,-7.0,-128.0,-115.0,95.0,80.0,-955.0,-60.0
11.0,-245.0,-17.0,-119.0,-115.0,92.0,83.0,-948.0,-73.0
8.0,-242.0,-18.0,-121.0,-117.0,89.0,70.0,-932.0,-97.0
7.0,-238.0,-20.0,-140.0,-121.0,84.0,62.0,-910.0,-119.0
1.0,-231.0,-27.0,-175.0,-133.0,75.0,44.0,-901.0,-145.0
1.0,-227.0,-34.0,-228.0,-153.0,66.0,37.0,-888.0,-173.0
2.0,-229.0,-38.0,-290.0,-184.0,58.0,41.0,-875.0,-201.0
3.0,-225.0,-41.0,-355.0,-220.0,46.0,37.0,-867.0,-211.0
3.0,-222.0,-46.0,-406.0,-251.0,35.0,31.0,-858.0,-214.0
-4.0,-220.0,-40.0,-432.0,-276.0,19.0,16.0,-848.0,-195.0
-13.0,-217.0,-35.0,-430.0,-306.0,-3.0,-19.0,-838.0,-172.0
-23.0,-220.0,-26.0,-402.0,-339.0,-32.0,-47.0,-837.0,-146.0
-26.0,-221.0,-19.0,-357.0,-369.0,-67.0,-75.0,-830.0,-129.0
-33.0,-217.0,-20.0,-306.0,-396.0,-111.0,-86.0,-820.0,-126.0
-27.0,-212.0,-19.0,-253.0,-421.0,-159.0,-95.0,-809.0,-121.0
-21.0,-204.0,-22.0,-210.0,-434.0,-207.0,-106.0,-802.0,-117.0
-40.0,-213.0,-15.0,-176.0,-436.0,-254.0,-121.0,-813.0,-113.0
-41.0,-224.0,-16.0,-162.0,-423.0,-295.0,-119.0,-848.0,-103.0
-34.0,-226.0,-17.0,-167.0,-392.0,-329.0,-111.0,-891.0,-100.0
-32.0,-240.0,-13.0,-193.0,-346.0,-353.0,-105.0,-945.0,-98.0
-35.0,-264.0,-21.0,-230.0,-291.0,-370.0,-92.0,-1017.0,-96.0
-24.0,-284.0,-18.0,-272.0,-239.0,-381.0,-72.0,-1086.0,-96.0
-19.0,-303.0,-13.0,-306.0,-188.0,-383.0,-49.0,-1161.0,-97.0
-13.0,-316.0,-16.0,-350.0,-139.0,-378.0,-28.0,-1222.0,-101.0
-8.0,-333.0,-19.0,-395.0,-100.0,-364.0,1.0,-1281.0,-113.0
-4.0,-346.0,-16.0,-437.0,-58.0,-346.0,18.0,-1339.0,-114.0
4.0,-357.0,-15.0,-460.0,-25.0,-323.0,38.0,-1373.0,-107.0
5.0,-361.0,-11.0,-460.0,-2.0,-292.0,62.0,-1385.0,-86.0
10.0,-358.0,-4.0,-422.0,6.0,-254.0,72.0,-1366.0,-56.0
12.0,-344.0,6.0,-337.0,5.0,-197.0,79.0,-1342.0,-18.0
8.0,-350.0,13.0,-206.0,2.0,-120.0,70.0,-1295.0,21.0
5.0,-338.0,18.0,-42.0,-7.0,-45.0,47.0,-1254.0,56.0
0.0,-310.0,27.0,137.0,-21.0,27.0,23.0,-1210.0,97.0
-6.0,-315.0,40.0,308.0,-39.0,90.0,18.0,-1155.0,118.0
3.0,-285.0,50.0,445.0,-62.0,141.0,17.0,-1091.0,139.0
-6.0,-282.0,47.0,531.0,-82.0,181.0,18.0,-1032.0,142.0
-1.0,-243.0,38.0,555.0,-96.0,216.0,25.0,-973.0,142.0
6.0,-230.0,38.0,526.0,-111.0,242.0,26.0,-919.0,131.0
1.0,-230.0,38.0,446.0,-119.0,260.0,37.0,-894.0,110.0
2.0,-215.0,31.0,325.0,-125.0,275.0,37.0,-857.0,91.0
0.0,-210.0,31.0,170.0,-129.0,287.0,13.0,-835.0,74.0
-9.0,-207.0,25.0,3.0,-140.0,289.0,-7.0,-820.0,67.0
-13.0,-227.0,25.0,-157.0,-151.0,296.0,-24.0,-819.0,62.0
-20.0,-211.0,33.0,-288.0,-161.0,296.0,-45.0,-829.0,53.0
-33.0,-213.0,27.0,-385.0,-167.0,290.0,-74.0,-843.0,48.0
-36.0,-224.0,20.0,-445.0,-168.0,283.0,-88.0,-864.0,25.0
-27.0,-225.0,-6.0,-477.0,-163.0,275.0,-107.0,-882.0,14.0
-26.0,-242.0,26.0,-496.0,-162.0,266.0,-106.0,-900.0,-11.0
-43.0,-232.0,4.0,-506.0,-159.0,260.0,-103.0,-909.0,-24.0
-33.0,-229.0,4.0,-514.0,-149.0,259.0,-94.0,-922.0,-33.0
-29.0,-247.0,13.0,-515.0,-130.0,262.0,-71.0,-934.0,-48.0
-30.0,-240.0,-3.0,-514.0,-107.0,267.0,-47.0,-953.0,-33.0
-6.0,-249.0,3.0,-510.0,-81.0,276.0,-17.0,-970.0,-20.0
-9.0,-252.0,11.0,-504.0,-56.0,286.0,0.0,-990.0,4.0
-4.0,-257.0,11.0,-495.0,-39.0,297.0,17.0,-1003.0,14.0
1.0,-264.0,17.0,-481.0,-29.0,312.0,30.0,-1012.0,22.0
2.0,-260.0,16.0,-465.0,-28.0,326.0,38.0,-1017.0,15.0
4.0,-271.0,18.0,-445.0,-36.0,338.0,45.0,-1021.0,13.0
3.0,-265.0,6.0,-425.0,-47.0,346.0,54.0,-1020.0,5.0
9.0,-263.0,1.0,-405.0,-52.0,352.0,63.0,-1023.0,-9.0
16.0,-266.0,-1.0,-382.0,-47.0,354.0,71.0,-1022.0,-12.0
10.0,-262.0,13.0,-354.0,-37.0,355.0,63.0,-1017.0,-15.0
8.0,-258.0,2.0,-319.0,-18.0,355.0,55.0,-1006.0,-11.0
6.0,-261.0,19.0,-269.0,3.0,353.0,50.0,-988.0,0.0
4.0,-263.0,19.0,-210.0,22.0,351.0,37.0,-984.0,12.0
3.0,-248.0,-4.0,-161.0,37.0,350.0,23.0,-975.0,19.0
6.0,-259.0,8.0,-107.0,52.0,348.0,8.0,-972.0,19.0
-7.0,-250.0,16.0,-67.0,64.0,348.0,-5.0,-970.0,25.0
-8.0,-249.0,15.0,-43.0,83.0,354.0,-17.0,-973.0,18.0
-13.0,-251.0,17.0,-36.0,105.0,361.0,-19.0,-970.0,22.0
-10.0,-251.0,12.0,-42.0,130.0,371.0,-21.0,-970.0,22.0
-10.0,-250.0,14.0,-58.0,160.0,382.0,-18.0,-975.0,25.0
-9.0,-249.0,4.0,-89.0,194.0,394.0,-6.0,-984.0,21.0
-3.0,-251.0,19.0,-132.0,228.0,401.0,-2.0,-974.0,19.0
-5.0,-248.0,27.0,-185.0,262.0,406.0,11.0,-959.0,20.0
-6.0,-245.0,5.0,-240.0,289.0,412.0,7.0,-948.0,28.0
-14.0,-234.0,8.0,-283.0,304.0,416.0,2.0,-926.0,42.0
-6.0,-239.0,11.0,-305.0,300.0,417.0,-5.0,-915.0,57.0
-7.0,-241.0,23.0,-306.0,287.0,417.0,-13.0,-908.0,68.0
-12.0,-233.0,28.0,-285.0,274.0,415.0,-23.0,-914.0,62.0
-22.0,-240.0,11.0,-256.0,264.0,414.0,-41.0,-922.0,60.0
-29.0,-241.0,22.0,-223.0,261.0,414.0,-71.0,-936.0,64.0
-29.0,-255.0,9.0,-191.0,270.0,419.0,-97.0,-969.0,49.0
-43.0,-259.0,12.0,-173.0,293.0,430.0,-137.0,-1025.0,39.0
-45.0,-271.0,11.0,-171.0,326.0,443.0,-158.0,-1061.0,27.0
-55.0,-278.0,10.0,-190.0,366.0,460.0,-187.0,-1094.0,6.0
-57.0,-286.0,5.0,-225.0,405.0,479.0,-209.0,-1123.0,-6.0
-63.0,-295.0,6.0,-269.0,448.0,497.0,-222.0,-1157.0,-19.0
-59.0,-299.0,6.0,-321.0,484.0,513.0,-222.0,-1177.0,-32.0
-57.0,-306.0,10.0,-379.0,501.0,529.0,-217.0,-1204.0,-35.0
-67.0,-316.0,10.0,-438.0,494.0,545.0,-209.0,-1228.0,-31.0
-59.0,-326.0,8.0,-492.0,453.0,560.0,-205.0,-1245.0,-20.0
-80.0,-329.0,15.0,-531.0,391.0,578.0,-199.0,-1263.0,-14.0
-60.0,-328.0,4.0,-551.0,315.0,594.0,-195.0,-1276.0,-2.0
-62.0,-322.0,31.0,-549.0,238.0,605.0,-204.0,-1283.0,1.0
-76.0,-329.0,14.0,-529.0,167.0,615.0,-222.0,-1288.0,4.0
-58.0,-339.0,17.0,-494.0,107.0,626.0,-241.0,-1292.0,6.0
-70.0,-335.0,13.0,-456.0,64.0,637.0,-270.0,-1305.0,8.0
-85.0,-337.0,18.0,-419.0,48.0,646.0,-307.0,-1329.0,-1.0
-89.0,-345.0,2.0,-394.0,63.0,651.0,-330.0,-1353.0,-27.0
-100.0,-352.0,-5.0,-389.0,96.0,650.0,-356.0,-1370.0,-43.0
-107.0,-357.0,-8.0,-412.0,137.0,641.0,-389.0,-1399.0,-63.0
-111.0,-362.0,-13.0,-466.0,171.0,628.0,-404.0,-1425.0,-82.0
-115.0,-368.0,-22.0,-546.0,189.0,614.0,-419.0,-1451.0,-100.0
-124.0,-379.0,-17.0,-637.0,192.0,604.0,-431.0,-1472.0,-113.0
-122.0,-391.0,-9.0,-716.0,182.0,597.0,-449.0,-1494.0,-110.0
-124.0,-384.0,-19.0,-763.0,164.0,595.0,-440.0,-1513.0,-104.0
-126.0,-393.0,-19.0,-779.0,142.0,592.0,-443.0,-1531.0,-101.0
-122.0,-396.0,-14.0,-766.0,118.0,588.0,-437.0,-1549.0,-117.0
-120.0,-400.0,-21.0,-731.0,95.0,587.0,-416.0,-1558.0,-130.0
-114.0,-406.0,-23.0,-692.0,66.0,592.0,-400.0,-1575.0,-146.0
-105.0,-405.0,-33.0,-633.0,29.0,591.0,-381.0,-1565.0,-174.0
-106.0,-397.0,-38.0,-558.0,-4.0,573.0,-364.0,-1546.0,-204.0
-99.0,-383.0,-58.0,-463.0,-49.0,530.0,-347.0,-1497.0,-252.0
-92.0,-364.0,-83.0,-350.0,-76.0,480.0,-339.0,-1418.0,-341.0
-88.0,-335.0,-114.0,-231.0,-78.0,406.0,-321.0,-1314.0,-494.0
-77.0,-312.0,-147.0,-124.0,-61.0,308.0,-287.0,-1191.0,-626.0
-72.0,-273.0,-188.0,-55.0,-29.0,181.0,-260.0,-1076.0,-765.0
-56.0,-246.0,-208.0,-33.0,20.0,20.0,-215.0,-950.0,-883.0
-41.0,-214.0,-220.0,-63.0,90.0,-157.0,-158.0,-830.0,-943.0
-20.0,-184.0,-213.0,-128.0,194.0,-333.0,-72.0,-703.0,-923.0
4.0,-159.0,-191.0,-199.0,315.0,-507.0,5.0,-612.0,-840.0
15.0,-137.0,-158.0,-257.0,424.0,-676.0,79.0,-525.0,-704.0
29.0,-124.0,-129.0,-288.0,492.0,-846.0,128.0,-464.0,-591.0
36.0,-114.0,-102.0,-289.0,524.0,-1012.0,169.0,-413.0,-464.0
37.0,-107.0,-73.0,-256.0,516.0,-1163.0,179.0,-380.0,-356.0
40.0,-100.0,-49.0,-195.0,474.0,-1289.0,188.0,-372.0,-251.0
30.0,-104.0,-38.0,-127.0,402.0,-1385.0,169.0,-393.0,-203.0
24.0,-115.0,-33.0,-73.0,313.0,-1445.0,124.0,-434.0,-170.0
7.0,-127.0,-26.0,-48.0,210.0,-1451.0,54.0,-496.0,-138.0
-21.0,-145.0,-19.0,-57.0,75.0,-1408.0,-38.0,-569.0,-102.0
-47.0,-168.0,-2.0,-92.0,-117.0,-1330.0,-114.0,-657.0,-60.0
-61.0,-190.0,5.0,-134.0,-375.0,-1236.0,-173.0,-750.0,-13.0
-73.0,-219.0,12.0,-170.0,-675.0,-1134.0,-214.0,-841.0,12.0
-89.0,-239.0,1.0,-196.0,-971.0,-1015.0,-269.0,-913.0,-9.0
-99.0,-252.0,-18.0,-218.0,-1202.0,-867.0,-334.0,-974.0,-74.0
-114.0,-267.0,-49.0,-255.0,-1335.0,-695.0,-407.0,-1035.0,-187.0
-129.0,-272.0,-82.0,-314.0,-1359.0,-528.0,-478.0,-1073.0,-363.0
-147.0,-276.0,-119.0,-402.0,-1298.0,-393.0,-567.0,-1087.0,-503.0
-158.0,-272.0,-142.0,-520.0,-1199.0,-300.0,-601.0,-1080.0,-607.0
-152.0,-280.0,-147.0,-655.0,-1118.0,-258.0,-578.0,-1099.0,-625.0
-132.0,-280.0,-136.0,-784.0,-1078.0,-275.0,-499.0,-1107.0,-587.0
-89.0,-305.0,-110.0,-879.0,-1073.0,-326.0,-338.0,-1167.0,-498.0
-53.0,-319.0,-76.0,-935.0,-1070.0,-396.0,-185.0,-1226.0,-358.0
-29.0,-351.0,-32.0,-943.0,-1060.0,-495.0,-85.0,-1344.0,-185.0
-16.0,-393.0,2.0,-929.0,-1031.0,-656.0,-28.0,-1508.0,-40.0
-9.0,-437.0,33.0,-939.0,-1008.0,-867.0,-5.0,-1665.0,72.0
6.0,-479.0,40.0,-954.0,-988.0,-1106.0,58.0,-1851.0,111.0
30.0,-522.0,25.0,-968.0,-944.0,-1374.0,155.0,-2024.0,59.0
57.0,-568.0,-5.0,-1006.0,-855.0,-1648.0,265.0,-2235.0,-57.0
82.0,-604.0,-46.0,-1099.0,-694.0,-1908.0,350.0,-2380.0,-219.0
96.0,-631.0,-80.0,-1238.0,-452.0,-2116.0,400.0,-2465.0,-374.0
107.0,-646.0,-107.0,-1377.0,-170.0,-2236.0,459.0,-2520.0,-492.0
128.0,-657.0,-129.0,-1476.0,92.0,-2270.0,534.0,-2535.0,-572.0
146.0,-653.0,-137.0,-1507.0,311.0,-2230.0,618.0,-2518.0,-609.0
169.0,-638.0,-131.0,-1479.0,499.0,-2122.0,682.0,-2462.0,-601.0
178.0,-618.0,-117.0,-1374.0,641.0,-1956.0,720.0,-2372.0,-551.0
170.0,-593.0,-94.0,-1192.0,834.0,-1732.0,725.0,-2270.0,-465.0
141.0,-567.0,-67.0,-945.0,1021.0,-1529.0,638.0,-2175.0,-338.0
106.0,-537.0,-42.0,-661.0,1158.0,-1283.0,508.0,-2062.0,-230.0
71.0,-496.0,-39.0,-398.0,1213.0,-1082.0,335.0,-1907.0,-197.0
52.0,-451.0,-44.0,-217.0,1194.0,-928.0,273.0,-1746.0,-209.0
55.0,-411.0,-53.0,-132.0,1143.0,-799.0,274.0,-1583.0,-231.0
64.0,-366.0,-57.0,-125.0,1104.0,-695.0,289.0,-1421.0,-276.0
67.0,-326.0,-73.0,-160.0,1078.0,-614.0,308.0,-1271.0,-326.0
69.0,-288.0,-85.0,-218.0,1048.0,-548.0,308.0,-1117.0,-381.0
79.0,-252.0,-94.0,-280.0,1035.0,-466.0,336.0,-984.0,-427.0
81.0,-224.0,-109.0,-334.0,1059.0,-372.0,346.0,-858.0,-469.0
87.0,-192.0,-117.0,-383.0,1127.0,-256.0,340.0,-747.0,-496.0
84.0,-173.0,-110.0,-405.0,1234.0,-113.0,342.0,-648.0,-484.0
78.0,-149.0,-92.0,-388.0,1348.0,54.0,333.0,-552.0,-410.0
69.0,-128.0,-85.0,-300.0,1412.0,245.0,317.0,-439.0,-383.0
54.0,-103.0,-74.0,-127.0,1379.0,463.0,277.0,-331.0,-335.0
42.0,-74.0,-54.0,143.0,1239.0,687.0,224.0,-215.0,-273.0
27.0,-42.0,-40.0,473.0,994.0,902.0,167.0,-86.0,-192.0
11.0,-1.0,-19.0,800.0,670.0,1083.0,102.0,45.0,-113.0
-11.0,35.0,-2.0,1077.0,332.0,1211.0,5.0,184.0,-35.0
-23.0,71.0,12.0,1271.0,42.0,1291.0,-66.0,302.0,25.0
-46.0,110.0,24.0,1364.0,-178.0,1313.0,-139.0,394.0,54.0
-58.0,136.0,27.0,1351.0,-325.0,1297.0,-223.0,505.0,71.0
-65.0,162.0,32.0,1261.0,-391.0,1260.0,-259.0,584.0,95.0
-66.0,176.0,35.0,1113.0,-394.0,1210.0,-287.0,655.0,109.0
-68.0,181.0,37.0,936.0,-349.0,1153.0,-291.0,688.0,130.0
-65.0,181.0,40.0,755.0,-266.0,1072.0,-284.0,670.0,136.0
-66.0,164.0,41.0,583.0,-158.0,963.0,-284.0,614.0,140.0
-63.0,144.0,44.0,435.0,-42.0,830.0,-268.0,550.0,145.0
-56.0,121.0,43.0,337.0,75.0,683.0,-245.0,473.0,144.0
-49.0,95.0,41.0,299.0,190.0,547.0,-213.0,388.0,125.0
-38.0,72.0,17.0,301.0,311.0,422.0,-174.0,305.0,48.0
-24.0,54.0,-19.0,314.0,433.0,299.0,-122.0,239.0,-71.0
8.0,42.0,-41.0,305.0,574.0,189.0,-1.0,181.0,-149.0
30.0,35.0,-98.0,262.0,727.0,90.0,101.0,139.0,-384.0
67.0,33.0,-155.0,144.0,904.0,10.0,213.0,128.0,-676.0
99.0,27.0,-223.0,-47.0,1087.0,-56.0,373.0,115.0,-948.0
124.0,26.0,-277.0,-261.0,1243.0,-105.0,492.0,121.0,-1169.0
149.0,22.0,-309.0,-428.0,1318.0,-109.0,618.0,110.0,-1305.0
184.0,4.0,-302.0,-507.0,1284.0,-45.0,763.0,45.0,-1279.0
202.0,-38.0,-273.0,-498.0,1132.0,50.0,853.0,-93.0,-1162.0
207.0,-89.0,-261.0,-456.0,922.0,150.0,842.0,-298.0,-1111.0
191.0,-157.0,-251.0,-418.0,780.0,221.0,779.0,-574.0,-1063.0
180.0,-240.0,-201.0,-394.0,738.0,212.0,740.0,-893.0,-879.0
154.0,-345.0,-95.0,-367.0,697.0,144.0,689.0,-1231.0,-542.0
138.0,-428.0,-20.0,-352.0,601.0,73.0,608.0,-1565.0,-199.0
149.0,-487.0,23.0,-380.0,486.0,19.0,613.0,-1834.0,50.0
155.0,-517.0,35.0,-476.0,474.0,48.0,634.0,-2013.0,98.0
152.0,-547.0,25.0,-638.0,648.0,208.0,600.0,-2155.0,67.0
119.0,-589.0,-13.0,-834.0,976.0,468.0,487.0,-2325.0,-61.0
58.0,-626.0,-63.0,-1062.0,1333.0,758.0,289.0,-2475.0,-287.0
-24.0,-669.0,-147.0,-1346.0,1580.0,1018.0,1.0,-2646.0,-608.0
-98.0,-708.0,-208.0,-1701.0,1650.0,1292.0,-245.0,-2798.0,-861.0
-151.0,-757.0,-244.0,-2021.0,1506.0,1584.0,-437.0,-2942.0,-1013.0
-228.0,-838.0,-271.0,-2219.0,1143.0,1890.0,-700.0,-3262.0,-1168.0
-281.0,-907.0,-241.0,-2320.0,629.0,2232.0,-904.0,-3495.0,-1096.0
-319.0,-928.0,-164.0,-2138.0,12.0,2490.0,-1063.0,-3520.0,-800.0
-324.0,-920.0,-104.0,-1499.0,-597.0,2557.0,-1137.0,-3472.0,-483.0
-307.0,-889.0,-63.0,-530.0,-1078.0,2475.0,-1108.0,-3318.0,-326.0
-280.0,-827.0,-50.0,515.0,-1392.0,2285.0,-1025.0,-3107.0,-246.0
-248.0,-739.0,-44.0,1412.0,-1531.0,2027.0,-906.0,-2795.0,-225.0
-204.0,-638.0,-54.0,2026.0,-1536.0,1773.0,-758.0,-2457.0,-242.0
-163.0,-528.0,-53.0,2325.0,-1448.0,1571.0,-610.0,-2071.0,-246.0
-134.0,-431.0,-58.0,2329.0,-1329.0,1400.0,-505.0,-1713.0,-254.0
-130.0,-343.0,-79.0,2067.0,-1263.0,1220.0,-478.0,-1419.0,-338.0
-129.0,-271.0,-114.0,1554.0,-1258.0,1030.0,-486.0,-1168.0,-490.0
-139.0,-203.0,-157.0,848.0,-1283.0,845.0,-518.0,-952.0,-647.0
-143.0,-170.0,-163.0,53.0,-1328.0,682.0,-536.0,-789.0,-694.0
-137.0,-155.0,-170.0,-696.0,-1382.0,541.0,-549.0,-688.0,-725.0
-114.0,-159.0,-181.0,-1297.0,-1359.0,386.0,-475.0,-651.0,-763.0
-94.0,-162.0,-189.0,-1693.0,-1224.0,169.0,-381.0,-619.0,-787.0
-68.0,-163.0,-188.0,-1858.0,-1018.0,-115.0,-308.0,-590.0,-787.0
-63.0,-156.0,-171.0,-1785.0,-789.0,-418.0,-267.0,-539.0,-755.0
-64.0,-144.0,-149.0,-1508.0,-580.0,-677.0,-255.0,-480.0,-675.0
-54.0,-124.0,-128.0,-1079.0,-425.0,-861.0,-213.0,-401.0,-578.0
-34.0,-110.0,-94.0,-545.0,-318.0,-988.0,-142.0,-320.0,-461.0
-16.0,-85.0,-70.0,49.0,-243.0,-1083.0,-60.0,-236.0,-335.0
16.0,-58.0,-43.0,642.0,-178.0,-1149.0,54.0,-154.0,-237.0
51.0,-24.0,-22.0,1152.0,-112.0,-1209.0,187.0,-64.0,-148.0
87.0,7.0,2.0,1506.0,-39.0,-1274.0,315.0,55.0,-25.0
113.0,57.0,12.0,1716.0,36.0,-1342.0,446.0,265.0,27.0
142.0,109.0,29.0,1790.0,96.0,-1387.0,558.0,451.0,94.0
165.0,163.0,52.0,1768.0,139.0,-1418.0,656.0,647.0,177.0
181.0,215.0,61.0,1680.0,174.0,-1458.0,711.0,845.0,210.0
194.0,258.0,63.0,1515.0,203.0,-1491.0,751.0,995.0,221.0
187.0,289.0,60.0,1289.0,221.0,-1517.0,729.0,1102.0,214.0
164.0,303.0,34.0,1085.0,217.0,-1511.0,644.0,1150.0,113.0
124.0,293.0,-3.0,797.0,190.0,-1455.0,491.0,1112.0,-30.0
93.0,263.0,-48.0,463.0,160.0,-1350.0,357.0,982.0,-209.0
62.0,220.0,-99.0,91.0,103.0,-1239.0,265.0,867.0,-373.0
27.0,189.0,-143.0,-262.0,18.0,-1152.0,160.0,742.0,-588.0
9.0,146.0,-173.0,-554.0,-73.0,-1045.0,37.0,571.0,-729.0
-16.0,107.0,-197.0,-763.0,-145.0,-955.0,-54.0,429.0,-825.0
-39.0,65.0,-203.0,-894.0,-187.0,-889.0,-143.0,277.0,-867.0
-53.0,7.0,-189.0,-947.0,-201.0,-846.0,-189.0,77.0,-827.0
-65.0,-49.0,-156.0,-913.0,-218.0,-820.0,-229.0,-134.0,-696.0
-69.0,-110.0,-114.0,-793.0,-272.0,-796.0,-241.0,-365.0,-530.0
-73.0,-177.0,-67.0,-599.0,-373.0,-778.0,-246.0,-603.0,-328.0
-80.0,-236.0,-32.0,-354.0,-520.0,-753.0,-268.0,-847.0,-186.0
-81.0,-295.0,-20.0,-97.0,-678.0,-695.0,-274.0,-1088.0,-126.0
-81.0,-361.0,-22.0,132.0,-801.0,-596.0,-279.0,-1344.0,-123.0
-85.0,-414.0,-17.0,273.0,-875.0,-430.0,-287.0,-1594.0,-103.0
-87.0,-477.0,-35.0,278.0,-903.0,-200.0,-309.0,-1937.0,-184.0
-83.0,-555.0,-62.0,103.0,-844.0,53.0,-289.0,-2253.0,-284.0
-107.0,-608.0,-61.0,-262.0,-723.0,253.0,-403.0,-2453.0,-277.0
-199.0,-672.0,-65.0,-719.0,-565.0,329.0,-740.0,-2698.0,-289.0
-223.0,-759.0,-110.0,-1205.0,-450.0,296.0,-814.0,-3065.0,-479.0
-180.0,-834.0,-142.0,-1741.0,-452.0,93.0,-615.0,-3326.0,-609.0
-56.0,-892.0,-177.0,-2138.0,-517.0,-268.0,-151.0,-3512.0,-732.0
55.0,-988.0,-218.0,-2264.0,-486.0,-689.0,263.0,-3831.0,-935.0
140.0,-1061.0,-227.0,-2141.0,-256.0,-1123.0,576.0,-4042.0,-991.0
200.0,-1079.0,-190.0,-1673.0,114.0,-1522.0,806.0,-4078.0,-900.0
228.0,-1038.0,-157.0,-825.0,467.0,-1786.0,924.0,-3921.0,-729.0
267.0,-956.0,-145.0,278.0,712.0,-1873.0,1124.0,-3593.0,-663.0
312.0,-859.0,-134.0,1350.0,895.0,-1853.0,1289.0,-3258.0,-610.0
327.0,-738.0,-111.0,2142.0,1098.0,-1769.0,1357.0,-2849.0,-510.0
316.0,-604.0,-83.0,2553.0,1337.0,-1635.0,1290.0,-2382.0,-396.0
281.0,-461.0,-62.0,2587.0,1592.0,-1469.0,1156.0,-1875.0,-290.0
227.0,-326.0,-47.0,2301.0,1818.0,-1302.0,958.0,-1391.0,-222.0
182.0,-220.0,-49.0,1782.0,1953.0,-1124.0,763.0,-962.0,-218.0
139.0,-144.0,-75.0,1142.0,1991.0,-934.0,607.0,-659.0,-312.0
117.0,-102.0,-115.0,514.0,1968.0,-740.0,504.0,-462.0,-470.0
121.0,-87.0,-150.0,-9.0,1939.0,-553.0,476.0,-359.0,-615.0
117.0,-78.0,-175.0,-381.0,1954.0,-413.0,456.0,-305.0,-761.0
112.0,-71.0,-196.0,-613.0,2030.0,-313.0,417.0,-238.0,-831.0
99.0,-57.0,-204.0,-722.0,2135.0,-211.0,382.0,-179.0,-868.0
77.0,-47.0,-204.0,-741.0,2212.0,-77.0,324.0,-151.0,-871.0
46.0,-46.0,-194.0,-720.0,2182.0,102.0,231.0,-144.0,-826.0
10.0,-41.0,-166.0,-677.0,2012.0,339.0,98.0,-120.0,-722.0
-37.0,-43.0,-138.0,-582.0,1720.0,606.0,-82.0,-125.0,-614.0
-78.0,-52.0,-107.0,-427.0,1353.0,867.0,-240.0,-153.0,-493.0
-133.0,-49.0,-70.0,-260.0,945.0,1102.0,-456.0,-152.0,-340.0
-182.0,-49.0,-31.0,1.0,539.0,1315.0,-646.0,-139.0,-189.0
-220.0,-38.0,1.0,303.0,217.0,1491.0,-796.0,-107.0,-30.0
-231.0,-22.0,35.0,624.0,-164.0,1631.0,-863.0,-79.0,101.0
-231.0,-10.0,45.0,933.0,-496.0,1705.0,-877.0,-13.0,146.0
-218.0,10.0,44.0,1183.0,-744.0,1746.0,-848.0,46.0,153.0
-202.0,33.0,43.0,1341.0,-902.0,1709.0,-808.0,116.0,147.0
-192.0,64.0,41.0,1395.0,-977.0,1593.0,-760.0,218.0,142.0
-178.0,95.0,43.0,1356.0,-983.0,1419.0,-718.0,334.0,149.0
-147.0,124.0,43.0,1255.0,-944.0,1209.0,-625.0,444.0,146.0
-108.0,143.0,40.0,1116.0,-871.0,985.0,-476.0,527.0,150.0
-65.0,152.0,40.0,961.0,-774.0,735.0,-310.0,573.0,137.0
-32.0,152.0,19.0,808.0,-651.0,459.0,-178.0,583.0,74.0
6.0,148.0,-3.0,651.0,-495.0,174.0,-50.0,566.0,-35.0
48.0,135.0,-42.0,492.0,-299.0,-93.0,122.0,527.0,-176.0
84.0,129.0,-73.0,338.0,-72.0,-328.0,311.0,485.0,-326.0
124.0,124.0,-110.0,169.0,176.0,-534.0,452.0,472.0,-475.0
155.0,121.0,-150.0,-19.0,419.0,-693.0,577.0,469.0,-658.0
173.0,117.0,-206.0,-233.0,615.0,-785.0,669.0,457.0,-876.0
192.0,114.0,-256.0,-479.0,720.0,-805.0,763.0,428.0,-1091.0
212.0,83.0,-292.0,-750.0,716.0,-760.0,852.0,350.0,-1239.0
236.0,47.0,-292.0,-987.0,632.0,-643.0,950.0,211.0,-1233.0
249.0,-17.0,-261.0,-1121.0,525.0,-457.0,994.0,-12.0,-1107.0
240.0,-82.0,-216.0,-1133.0,486.0,-224.0,936.0,-293.0,-931.0
205.0,-170.0,-169.0,-1053.0,598.0,8.0,814.0,-603.0,-741.0
153.0,-277.0,-79.0,-911.0,807.0,217.0,677.0,-929.0,-395.0
122.0,-370.0,7.0,-727.0,957.0,422.0,539.0,-1378.0,-40.0
166.0,-471.0,79.0,-539.0,952.0,632.0,704.0,-1784.0,245.0
274.0,-584.0,99.0,-454.0,850.0,873.0,1128.0,-2250.0,350.0
257.0,-659.0,78.0,-591.0,804.0,1083.0,1085.0,-2583.0,288.0
171.0,-713.0,43.0,-910.0,906.0,1228.0,763.0,-2808.0,165.0
61.0,-775.0,-6.0,-1307.0,1030.0,1352.0,368.0,-3044.0,-19.0
-53.0,-801.0,-101.0,-1717.0,1025.0,1501.0,-27.0,-3189.0,-376.0
-143.0,-855.0,-233.0,-2141.0,883.0,1680.0,-409.0,-3371.0,-880.0
-216.0,-944.0,-332.0,-2674.0,731.0,1923.0,-730.0,-3726.0,-1368.0
-263.0,-995.0,-345.0,-3130.0,627.0,2140.0,-910.0,-3862.0,-1484.0
-298.0,-1029.0,-309.0,-3075.0,517.0,2215.0,-1057.0,-3873.0,-1338.0
-340.0,-1028.0,-226.0,-2337.0,379.0,2160.0,-1231.0,-3798.0,-1004.0
-369.0,-986.0,-136.0,-988.0,129.0,1979.0,-1370.0,-3616.0,-651.0
-387.0,-894.0,-92.0,624.0,-223.0,1785.0,-1392.0,-3303.0,-446.0
-367.0,-789.0,-50.0,2079.0,-572.0,1586.0,-1354.0,-2952.0,-264.0
-334.0,-673.0,-21.0,3161.0,-838.0,1373.0,-1225.0,-2564.0,-119.0
-278.0,-560.0,-8.0,3777.0,-1018.0,1189.0,-1039.0,-2191.0,-40.0
-227.0,-450.0,-10.0,3904.0,-1129.0,1074.0,-856.0,-1829.0,-42.0
-197.0,-348.0,-37.0,3592.0,-1194.0,978.0,-709.0,-1478.0,-140.0
-165.0,-249.0,-76.0,2959.0,-1240.0,832.0,-638.0,-1101.0,-322.0
-174.0,-149.0,-138.0,2312.0,-1260.0,635.0,-688.0,-708.0,-555.0
-192.0,-62.0,-188.0,1441.0,-1240.0,466.0,-774.0,-371.0,-796.0
-242.0,32.0,-198.0,585.0,-1220.0,404.0,-935.0,10.0,-824.0
-242.0,78.0,-188.0,-153.0,-1243.0,469.0,-945.0,235.0,-794.0
-218.0,108.0,-184.0,-747.0,-1312.0,556.0,-876.0,373.0,-775.0
-171.0,103.0,-182.0,-1190.0,-1390.0,568.0,-699.0,386.0,-757.0
-121.0,83.0,-178.0,-1514.0,-1459.0,431.0,-501.0,323.0,-761.0
-84.0,58.0,-162.0,-1742.0,-1500.0,116.0,-366.0,256.0,-732.0
-58.0,29.0,-144.0,-1861.0,-1484.0,-241.0,-247.0,169.0,-630.0
-18.0,-3.0,-95.0,-1827.0,-1410.0,-548.0,-109.0,70.0,-467.0
17.0,-35.0,-45.0,-1607.0,-1283.0,-790.0,30.0,-32.0,-258.0
64.0,-57.0,4.0,-1206.0,-1110.0,-981.0,204.0,-100.0,-51.0
101.0,-59.0,41.0,-664.0,-910.0,-1137.0,354.0,-130.0,135.0
128.0,-58.0,60.0,-55.0,-703.0,-1241.0,485.0,-123.0,204.0
158.0,-47.0,74.0,525.0,-487.0,-1287.0,604.0,-91.0,259.0
169.0,-27.0,81.0,1001.0,-280.0,-1307.0,639.0,-43.0,277.0
181.0,3.0,83.0,1335.0,-100.0,-1307.0,709.0,54.0,293.0
183.0,35.0,79.0,1533.0,20.0,-1314.0,719.0,165.0,281.0
181.0,73.0,72.0,1600.0,80.0,-1330.0,718.0,304.0,250.0
167.0,113.0,58.0,1556.0,93.0,-1340.0,691.0,440.0,195.0
158.0,147.0,35.0,1437.0,81.0,-1307.0,624.0,563.0,117.0
129.0,177.0,13.0,1271.0,45.0,-1209.0,517.0,675.0,37.0
92.0,189.0,-26.0,1090.0,-22.0,-1058.0,388.0,707.0,-109.0
58.0,184.0,-53.0,887.0,-123.0,-861.0,252.0,703.0,-255.0
34.0,152.0,-89.0,668.0,-251.0,-653.0,157.0,573.0,-383.0
13.0,128.0,-133.0,440.0,-410.0,-518.0,77.0,489.0,-532.0
-6.0,105.0,-179.0,215.0,-576.0,-457.0,-2.0,405.0,-738.0
-17.0,82.0,-226.0,-5.0,-717.0,-446.0,-57.0,326.0,-937.0
-30.0,55.0,-248.0,-222.0,-796.0,-469.0,-120.0,244.0,-1056.0
-35.0,19.0,-224.0,-418.0,-786.0,-509.0,-157.0,110.0,-995.0
-48.0,-33.0,-157.0,-534.0,-727.0,-556.0,-170.0,-69.0,-737.0
-64.0,-93.0,-100.0,-524.0,-745.0,-605.0,-197.0,-296.0,-474.0
-82.0,-162.0,-86.0,-422.0,-920.0,-662.0,-242.0,-550.0,-389.0
-95.0,-227.0,-104.0,-318.0,-1199.0,-720.0,-317.0,-832.0,-440.0
-98.0,-306.0,-101.0,-294.0,-1422.0,-728.0,-356.0,-1152.0,-480.0
-85.0,-389.0,-80.0,-387.0,-1467.0,-635.0,-315.0,-1578.0,-351.0
-72.0,-482.0,-58.0,-599.0,-1332.0,-456.0,-267.0,-1944.0,-269.0
-126.0,-570.0,-38.0,-905.0,-1107.0,-255.0,-495.0,-2281.0,-177.0
-264.0,-645.0,-9.0,-1251.0,-862.0,-56.0,-1012.0,-2569.0,-68.0
-322.0,-754.0,7.0,-1543.0,-691.0,79.0,-1189.0,-3015.0,-11.0
-296.0,-871.0,-28.0,-1785.0,-713.0,-32.0,-1062.0,-3441.0,-150.0
-217.0,-982.0,-109.0,-2047.0,-837.0,-382.0,-809.0,-3880.0,-472.0
-92.0,-1106.0,-217.0,-2349.0,-871.0,-760.0,-313.0,-4359.0,-896.0
69.0,-1172.0,-277.0,-2523.0,-746.0,-1120.0,301.0,-4523.0,-1166.0
196.0,-1227.0,-314.0,-2304.0,-467.0,-1584.0,783.0,-4668.0,-1355.0
258.0,-1216.0,-288.0,-1700.0,-66.0,-2102.0,1054.0,-4599.0,-1293.0
278.0,-1105.0,-212.0,-720.0,347.0,-2404.0,1186.0,-4004.0,-910.0
324.0,-940.0,-132.0,566.0,699.0,-2441.0,1322.0,-3507.0,-638.0
344.0,-808.0,-77.0,1617.0,1010.0,-2321.0,1407.0,-3039.0,-391.0
328.0,-665.0,-24.0,2703.0,1309.0,-2120.0,1346.0,-2564.0,-181.0
299.0,-510.0,-1.0,3355.0,1519.0,-1913.0,1224.0,-2053.0,-35.0
251.0,-352.0,13.0,3477.0,1720.0,-1733.0,1057.0,-1518.0,36.0
205.0,-211.0,25.0,3082.0,1842.0,-1580.0,878.0,-1004.0,72.0
175.0,-103.0,16.0,2292.0,1868.0,-1360.0,747.0,-581.0,67.0
164.0,-39.0,-14.0,1314.0,1807.0,-1143.0,663.0,-292.0,-36.0
180.0,-18.0,-69.0,345.0,1735.0,-960.0,711.0,-159.0,-249.0
187.0,-10.0,-128.0,-498.0,1726.0,-867.0,727.0,-95.0,-471.0
180.0,-4.0,-167.0,-1167.0,1826.0,-849.0,679.0,-39.0,-710.0
169.0,-9.0,-194.0,-1651.0,2053.0,-803.0,623.0,-32.0,-817.0
150.0,-24.0,-201.0,-1961.0,2362.0,-658.0,553.0,-66.0,-854.0
108.0,-40.0,-200.0,-2114.0,2632.0,-394.0,427.0,-121.0,-834.0
55.0,-55.0,-174.0,-2109.0,2746.0,-20.0,262.0,-143.0,-748.0
-8.0,-62.0,-144.0,-1914.0,2663.0,411.0,83.0,-180.0,-640.0
-58.0,-70.0,-108.0,-1554.0,2386.0,825.0,-118.0,-190.0,-502.0
-107.0,-68.0,-73.0,-1073.0,1958.0,1178.0,-323.0,-181.0,-358.0
-157.0,-60.0,-45.0,-513.0,1449.0,1468.0,-522.0,-151.0,-244.0
-189.0,-40.0,-27.0,74.0,930.0,1696.0,-672.0,-87.0,-153.0
-215.0,-11.0,-14.0,621.0,441.0,1858.0,-773.0,1.0,-89.0
-232.0,21.0,4.0,1092.0,5.0,1965.0,-881.0,146.0,-22.0
-238.0,54.0,14.0,1477.0,-364.0,2026.0,-898.0,245.0,22.0
-236.0,95.0,30.0,1734.0,-671.0,2048.0,-914.0,358.0,74.0
-219.0,126.0,26.0,1846.0,-904.0,2031.0,-869.0,447.0,87.0
-190.0,154.0,30.0,1785.0,-1053.0,1954.0,-763.0,538.0,94.0
-139.0,175.0,24.0,1562.0,-1094.0,1813.0,-617.0,621.0,79.0
-87.0,192.0,18.0,1232.0,-1020.0,1614.0,-428.0,682.0,60.0
-45.0,196.0,17.0,861.0,-851.0,1360.0,-247.0,707.0,65.0
-3.0,180.0,3.0,518.0,-636.0,1060.0,-84.0,676.0,11.0
23.0,154.0,-19.0,230.0,-409.0,756.0,46.0,607.0,-63.0
55.0,136.0,-34.0,1.0,-187.0,493.0,172.0,544.0,-123.0
90.0,117.0,-85.0,-156.0,20.0,306.0,332.0,460.0,-379.0
132.0,101.0,-143.0,-273.0,221.0,176.0,485.0,411.0,-615.0
158.0,99.0,-209.0,-373.0,419.0,100.0,605.0,406.0,-892.0
197.0,89.0,-254.0,-451.0,557.0,78.0,798.0,384.0,-1076.0
226.0,77.0,-283.0,-490.0,524.0,88.0,940.0,350.0,-1180.0
267.0,49.0,-282.0,-501.0,359.0,119.0,1081.0,243.0,-1198.0
285.0,-3.0,-270.0,-507.0,211.0,156.0,1128.0,42.0,-1140.0
268.0,-76.0,-234.0,-534.0,248.0,212.0,1026.0,-248.0,-1004.0
221.0,-167.0,-186.0,-572.0,486.0,291.0,856.0,-589.0,-819.0
154.0,-254.0,-123.0,-607.0,726.0,365.0,640.0,-951.0,-573.0
89.0,-355.0,-49.0,-646.0,775.0,443.0,427.0,-1349.0,-273.0
39.0,-461.0,11.0,-756.0,618.0,553.0,256.0,-1921.0,30.0
93.0,-590.0,52.0,-973.0,402.0,692.0,490.0,-2432.0,191.0
110.0,-699.0,102.0,-1348.0,239.0,797.0,520.0,-2771.0,341.0
58.0,-769.0,107.0,-1816.0,184.0,929.0,333.0,-3036.0,390.0
-21.0,-841.0,38.0,-2277.0,228.0,1183.0,48.0,-3332.0,180.0
-105.0,-900.0,-79.0,-2746.0,283.0,1519.0,-257.0,-3556.0,-251.0
-199.0,-1008.0,-225.0,-3113.0,266.0,1825.0,-639.0,-3951.0,-856.0
-295.0,-1099.0,-341.0,-3566.0,208.0,2106.0,-973.0,-4266.0,-1380.0
-422.0,-1202.0,-378.0,-3782.0,103.0,2269.0,-1488.0,-4574.0,-1609.0
-478.0,-1243.0,-294.0,-3511.0,-60.0,2310.0,-1759.0,-4699.0,-1385.0
-498.0,-1166.0,-182.0,-2458.0,-269.0,2050.0,-1823.0,-4375.0,-934.0
-490.0,-1028.0,-119.0,-675.0,-567.0,1424.0,-1793.0,-3736.0,-571.0
-447.0,-866.0,-84.0,1292.0,-847.0,796.0,-1668.0,-3176.0,-414.0
-380.0,-699.0,-74.0,2973.0,-1036.0,377.0,-1424.0,-2614.0,-345.0
-294.0,-534.0,-77.0,4124.0,-1142.0,183.0,-1123.0,-2047.0,-361.0
-235.0,-363.0,-102.0,4628.0,-1223.0,81.0,-873.0,-1485.0,-424.0
-192.0,-198.0,-119.0,4455.0,-1330.0,-23.0,-712.0,-922.0,-497.0
-176.0,-51.0,-139.0,3684.0,-1488.0,-129.0,-666.0,-388.0,-564.0
-174.0,66.0,-171.0,2481.0,-1654.0,-176.0,-692.0,24.0,-700.0
-162.0,172.0,-151.0,1044.0,-1715.0,-104.0,-673.0,473.0,-632.0
-133.0,233.0,-157.0,-249.0,-1620.0,24.0,-600.0,784.0,-660.0
-105.0,248.0,-173.0,-1223.0,-1419.0,107.0,-478.0,904.0,-728.0
-67.0,215.0,-195.0,-1840.0,-1199.0,94.0,-267.0,769.0,-831.0
-29.0,139.0,-206.0,-2200.0,-1026.0,-44.0,-112.0,507.0,-869.0
6.0,76.0,-174.0,-2388.0,-919.0,-288.0,20.0,358.0,-752.0
44.0,34.0,-124.0,-2337.0,-870.0,-523.0,156.0,254.0,-579.0
91.0,10.0,-73.0,-2028.0,-850.0,-692.0,326.0,173.0,-382.0
138.0,-4.0,-27.0,-1493.0,-823.0,-813.0,510.0,112.0,-192.0
180.0,-13.0,6.0,-817.0,-757.0,-899.0,666.0,85.0,-36.0
217.0,-10.0,39.0,-106.0,-635.0,-956.0,809.0,70.0,87.0
242.0,-1.0,55.0,539.0,-460.0,-999.0,918.0,83.0,160.0
269.0,14.0,70.0,1055.0,-251.0,-1029.0,1026.0,123.0,220.0
288.0,36.0,88.0,1420.0,-39.0,-1072.0,1115.0,183.0,325.0
299.0,60.0,104.0,1635.0,165.0,-1114.0,1150.0,273.0,373.0
290.0,82.0,91.0,1691.0,356.0,-1142.0,1134.0,336.0,338.0
260.0,102.0,71.0,1602.0,529.0,-1144.0,987.0,372.0,256.0
204.0,93.0,52.0,1402.0,652.0,-1084.0,800.0,357.0,181.0
153.0,85.0,40.0,1152.0,682.0,-978.0,622.0,322.0,136.0
105.0,77.0,24.0,916.0,614.0,-844.0,454.0,294.0,80.0
67.0,70.0,10.0,721.0,466.0,-684.0,306.0,270.0,22.0
27.0,61.0,-6.0,580.0,263.0,-513.0,161.0,249.0,-47.0
1.0,49.0,-44.0,483.0,42.0,-351.0,34.0,209.0,-192.0
-28.0,44.0,-93.0,386.0,-139.0,-228.0,-80.0,173.0,-391.0
-49.0,41.0,-158.0,254.0,-236.0,-175.0,-190.0,148.0,-724.0
-66.0,39.0,-235.0,48.0,-210.0,-180.0,-324.0,112.0,-1007.0
-87.0,21.0,-284.0,-246.0,-38.0,-204.0,-391.0,40.0,-1202.0
-102.0,-27.0,-275.0,-572.0,230.0,-258.0,-425.0,-89.0,-1182.0
-108.0,-82.0,-237.0,-820.0,479.0,-334.0,-419.0,-281.0,-1041.0
-123.0,-146.0,-215.0,-929.0,553.0,-430.0,-425.0,-523.0,-940.0
-127.0,-232.0,-202.0,-939.0,359.0,-536.0,-395.0,-833.0,-882.0
-111.0,-321.0,-169.0,-908.0,-40.0,-635.0,-364.0,-1178.0,-777.0
-86.0,-431.0,-87.0,-862.0,-438.0,-638.0,-271.0,-1591.0,-488.0
-70.0,-549.0,-21.0,-812.0,-668.0,-541.0,-215.0,-2052.0,-185.0
-97.0,-657.0,27.0,-762.0,-709.0,-383.0,-288.0,-2494.0,37.0
-212.0,-743.0,39.0,-709.0,-634.0,-192.0,-708.0,-2820.0,117.0
-250.0,-815.0,10.0,-649.0,-466.0,-39.0,-921.0,-3217.0,22.0
-213.0,-866.0,-54.0,-653.0,-338.0,-76.0,-757.0,-3427.0,-242.0
-162.0,-915.0,-141.0,-788.0,-282.0,-344.0,-554.0,-3626.0,-607.0
-81.0,-982.0,-227.0,-1086.0,-216.0,-634.0,-280.0,-3900.0,-968.0
28.0,-1019.0,-250.0,-1448.0,-37.0,-799.0,158.0,-3956.0,-1067.0
117.0,-1040.0,-246.0,-1531.0,216.0,-995.0,491.0,-3970.0,-1076.0
169.0,-1045.0,-229.0,-1182.0,497.0,-1272.0,703.0,-3936.0,-1023.0
185.0,-997.0,-196.0,-485.0,761.0,-1562.0,777.0,-3721.0,-884.0
179.0,-906.0,-156.0,447.0,969.0,-1765.0,781.0,-3397.0,-724.0
174.0,-809.0,-120.0,1444.0,1109.0,-1842.0,761.0,-3037.0,-573.0
165.0,-697.0,-83.0,2322.0,1232.0,-1819.0,713.0,-2658.0,-364.0
173.0,-580.0,-47.0,2953.0,1370.0,-1752.0,704.0,-2156.0,-211.0
176.0,-456.0,-19.0,3242.0,1539.0,-1674.0,722.0,-1737.0,-90.0
172.0,-336.0,2.0,3162.0,1725.0,-1590.0,686.0,-1308.0,-7.0
152.0,-190.0,13.0,2745.0,1899.0,-1476.0,628.0,-893.0,41.0
138.0,-99.0,16.0,2063.0,2024.0,-1306.0,561.0,-532.0,59.0
158.0,-42.0,-3.0,1234.0,2080.0,-1081.0,624.0,-296.0,-12.0
182.0,-14.0,-32.0,376.0,2093.0,-878.0,706.0,-137.0,-129.0
201.0,1.0,-64.0,-371.0,2116.0,-737.0,779.0,-39.0,-270.0
216.0,4.0,-89.0,-928.0,2167.0,-651.0,833.0,9.0,-367.0
199.0,3.0,-110.0,-1262.0,2259.0,-589.0,796.0,32.0,-466.0
164.0,5.0,-126.0,-1401.0,2378.0,-485.0,668.0,48.0,-553.0
131.0,6.0,-133.0,-1380.0,2483.0,-292.0,527.0,65.0,-582.0
97.0,2.0,-139.0,-1238.0,2512.0,-8.0,402.0,65.0,-609.0
62.0,-1.0,-144.0,-1021.0,2417.0,338.0,296.0,58.0,-618.0
15.0,3.0,-129.0,-761.0,2163.0,684.0,136.0,77.0,-574.0
-35.0,10.0,-105.0,-469.0,1771.0,1008.0,-38.0,94.0,-471.0
-89.0,20.0,-70.0,-154.0,1267.0,1305.0,-261.0,141.0,-336.0
-141.0,38.0,-41.0,187.0,717.0,1561.0,-468.0,196.0,-217.0
-179.0,56.0,-23.0,535.0,200.0,1770.0,-641.0,252.0,-144.0
-202.0,68.0,-19.0,841.0,-213.0,1932.0,-763.0,299.0,-114.0
-219.0,81.0,-15.0,1056.0,-503.0,2028.0,-838.0,316.0,-95.0
-215.0,88.0,-14.0,1145.0,-697.0,2034.0,-858.0,322.0,-62.0
-205.0,79.0,-2.0,1108.0,-819.0,1943.0,-821.0,291.0,-28.0
-191.0,73.0,9.0,971.0,-894.0,1780.0,-749.0,271.0,19.0
-173.0,71.0,16.0,802.0,-932.0,1575.0,-688.0,273.0,42.0
-139.0,73.0,24.0,653.0,-911.0,1364.0,-588.0,284.0,58.0
-111.0,72.0,21.0,561.0,-827.0,1170.0,-475.0,287.0,69.0
-80.0,66.0,20.0,534.0,-692.0,1000.0,-360.0,271.0,59.0
-53.0,57.0,12.0,561.0,-535.0,840.0,-248.0,254.0,39.0
-21.0,50.0,-3.0,616.0,-369.0,686.0,-127.0,229.0,-21.0
12.0,46.0,-26.0,679.0,-203.0,539.0,-4.0,199.0,-118.0
48.0,44.0,-57.0,725.0,-18.0,407.0,129.0,191.0,-234.0
89.0,38.0,-88.0,732.0,204.0,283.0,281.0,181.0,-392.0
129.0,41.0,-116.0,701.0,469.0,152.0,471.0,180.0,-510.0
170.0,38.0,-144.0,621.0,770.0,32.0,619.0,162.0,-615.0
195.0,36.0,-163.0,497.0,1017.0,-62.0,737.0,155.0,-703.0
218.0,28.0,-183.0,331.0,1287.0,-122.0,857.0,125.0,-775.0
238.0,15.0,-199.0,123.0,1457.0,-151.0,951.0,72.0,-841.0
252.0,-22.0,-207.0,-102.0,1474.0,-169.0,1035.0,-54.0,-873.0
267.0,-69.0,-192.0,-307.0,1318.0,-184.0,1119.0,-229.0,-831.0
261.0,-132.0,-168.0,-459.0,1030.0,-223.0,1106.0,-465.0,-736.0
231.0,-199.0,-148.0,-548.0,737.0,-285.0,946.0,-720.0,-639.0
186.0,-271.0,-116.0,-561.0,596.0,-346.0,748.0,-997.0,-533.0
138.0,-346.0,-58.0,-518.0,653.0,-374.0,570.0,-1279.0,-234.0
87.0,-436.0,19.0,-451.0,810.0,-373.0,337.0,-1701.0,70.0
21.0,-511.0,84.0,-338.0,906.0,-393.0,124.0,-1997.0,310.0
-35.0,-564.0,101.0,-177.0,886.0,-355.0,-86.0,-2207.0,358.0
-66.0,-601.0,59.0,-37.0,843.0,-140.0,-203.0,-2352.0,240.0
-35.0,-616.0,-16.0,-58.0,902.0,251.0,-138.0,-2460.0,-23.0
-8.0,-614.0,-99.0,-325.0,1018.0,686.0,10.0,-2477.0,-365.0
-12.0,-601.0,-165.0,-770.0,1169.0,1044.0,7.0,-2415.0,-654.0
-73.0,-617.0,-208.0,-1252.0,1404.0,1358.0,-206.0,-2459.0,-841.0
-170.0,-662.0,-223.0,-1676.0,1685.0,1642.0,-536.0,-2589.0,-940.0
-253.0,-735.0,-202.0,-1984.0,1822.0,1888.0,-824.0,-2843.0,-911.0
-314.0,-810.0,-169.0,-2096.0,1600.0,2071.0,-1007.0,-3092.0,-792.0
-351.0,-883.0,-109.0,-1929.0,1018.0,2161.0,-1195.0,-3363.0,-541.0
-365.0,-931.0,-51.0,-1403.0,250.0,2136.0,-1256.0,-3518.0,-282.0
-352.0,-934.0,-13.0,-558.0,-504.0,1995.0,-1242.0,-3524.0,-133.0
-319.0,-898.0,-16.0,397.0,-1084.0,1795.0,-1158.0,-3434.0,-102.0
-252.0,-831.0,-15.0,1201.0,-1400.0,1587.0,-945.0,-3205.0,-101.0
-176.0,-749.0,-16.0,1740.0,-1451.0,1419.0,-667.0,-2906.0,-98.0
-105.0,-661.0,-12.0,2020.0,-1348.0,1290.0,-393.0,-2593.0,-70.0
-59.0,-578.0,5.0,2089.0,-1210.0,1181.0,-197.0,-2299.0,-27.0
-40.0,-512.0,20.0,1995.0,-1107.0,1076.0,-105.0,-2046.0,29.0
-31.0,-453.0,28.0,1774.0,-1063.0,975.0,-61.0,-1822.0,75.0
-34.0,-398.0,43.0,1494.0,-1080.0,882.0,-82.0,-1603.0,124.0
-52.0,-342.0,34.0,1220.0,-1151.0,808.0,-148.0,-1356.0,106.0
-76.0,-289.0,38.0,954.0,-1263.0,768.0,-261.0,-1124.0,112.0
-88.0,-242.0,37.0,731.0,-1368.0,795.0,-324.0,-934.0,90.0
-105.0,-186.0,12.0,533.0,-1438.0,843.0,-376.0,-757.0,37.0
-111.0,-132.0,-36.0,336.0,-1451.0,866.0,-421.0,-585.0,-134.0
-112.0,-84.0,-84.0,77.0,-1385.0,855.0,-444.0,-403.0,-331.0
-122.0,-47.0,-137.0,-263.0,-1270.0,809.0,-476.0,-246.0,-522.0
-122.0,-13.0,-169.0,-688.0,-1139.0,740.0,-492.0,-118.0,-684.0
-121.0,14.0,-176.0,-1154.0,-1029.0,652.0,-489.0,-9.0,-739.0
-93.0,26.0,-170.0,-1580.0,-976.0,555.0,-408.0,67.0,-745.0
-64.0,29.0,-154.0,-1913.0,-987.0,408.0,-274.0,114.0,-671.0
-23.0,18.0,-138.0,-2101.0,-1024.0,196.0,-88.0,92.0,-606.0
26.0,-11.0,-118.0,-2104.0,-1027.0,-67.0,93.0,27.0,-530.0
58.0,-45.0,-113.0,-1914.0,-960.0,-358.0,213.0,-86.0,-506.0
83.0,-69.0,-103.0,-1660.0,-825.0,-636.0,317.0,-181.0,-462.0
110.0,-92.0,-90.0,-1260.0,-649.0,-876.0,410.0,-255.0,-417.0
124.0,-104.0,-79.0,-809.0,-486.0,-1074.0,456.0,-306.0,-362.0
128.0,-111.0,-66.0,-354.0,-258.0,-1216.0,473.0,-339.0,-316.0
128.0,-108.0,-46.0,70.0,-17.0,-1288.0,493.0,-341.0,-233.0
120.0,-100.0,-27.0,440.0,220.0,-1339.0,453.0,-340.0,-159.0
104.0,-87.0,-13.0,736.0,441.0,-1331.0,400.0,-304.0,-89.0
78.0,-68.0,0.0,957.0,622.0,-1282.0,330.0,-239.0,-24.0
55.0,-50.0,8.0,1121.0,751.0,-1215.0,215.0,-141.0,-1.0
31.0,-17.0,12.0,1240.0,816.0,-1137.0,137.0,-38.0,12.0
18.0,11.0,11.0,1323.0,815.0,-1049.0,84.0,87.0,10.0
9.0,47.0,8.0,1379.0,772.0,-954.0,51.0,210.0,0.0
5.0,94.0,2.0,1412.0,710.0,-844.0,38.0,351.0,-5.0
0.0,129.0,2.0,1410.0,636.0,-714.0,30.0,470.0,-17.0
-5.0,159.0,1.0,1360.0,534.0,-576.0,5.0,588.0,-20.0
-16.0,188.0,0.0,1257.0,403.0,-434.0,-44.0,684.0,-30.0
-34.0,202.0,-11.0,1117.0,233.0,-300.0,-92.0,770.0,-56.0
-41.0,216.0,-22.0,966.0,27.0,-189.0,-148.0,834.0,-101.0
-38.0,216.0,-52.0,840.0,-174.0,-119.0,-136.0,832.0,-201.0
-21.0,201.0,-87.0,718.0,-339.0,-105.0,-75.0,763.0,-387.0
4.0,181.0,-133.0,568.0,-444.0,-147.0,8.0,680.0,-558.0
24.0,153.0,-174.0,369.0,-482.0,-227.0,79.0,583.0,-731.0
42.0,125.0,-210.0,122.0,-468.0,-318.0,146.0,464.0,-879.0
48.0,92.0,-232.0,-165.0,-412.0,-411.0,178.0,350.0,-955.0
61.0,52.0,-233.0,-469.0,-330.0,-488.0,232.0,202.0,-977.0
67.0,-7.0,-219.0,-762.0,-263.0,-560.0,283.0,-7.0,-936.0
80.0,-66.0,-194.0,-1000.0,-262.0,-658.0,342.0,-228.0,-822.0
81.0,-133.0,-160.0,-1138.0,-360.0,-776.0,363.0,-466.0,-693.0
83.0,-203.0,-123.0,-1165.0,-525.0,-877.0,372.0,-732.0,-568.0
87.0,-281.0,-92.0,-1094.0,-704.0,-926.0,383.0,-1011.0,-438.0
96.0,-369.0,-40.0,-951.0,-832.0,-916.0,420.0,-1440.0,-176.0
110.0,-470.0,36.0,-759.0,-853.0,-847.0,446.0,-1850.0,121.0
87.0,-569.0,106.0,-559.0,-759.0,-752.0,333.0,-2238.0,401.0
25.0,-618.0,148.0,-403.0,-557.0,-602.0,96.0,-2421.0,565.0
-128.0,-647.0,153.0,-301.0,-300.0,-407.0,-394.0,-2546.0,585.0
-217.0,-667.0,117.0,-295.0,-65.0,-158.0,-787.0,-2623.0,471.0
-246.0,-706.0,40.0,-381.0,13.0,103.0,-860.0,-2792.0,201.0
-248.0,-740.0,-60.0,-601.0,-116.0,234.0,-861.0,-2931.0,-173.0
-224.0,-806.0,-177.0,-963.0,-308.0,273.0,-849.0,-3181.0,-654.0
-163.0,-871.0,-251.0,-1448.0,-398.0,214.0,-626.0,-3413.0,-1045.0
-84.0,-894.0,-259.0,-1844.0,-389.0,-58.0,-320.0,-3481.0,-1104.0
-52.0,-894.0,-206.0,-1830.0,-248.0,-514.0,-193.0,-3366.0,-919.0
-51.0,-871.0,-124.0,-1287.0,66.0,-925.0,-161.0,-3240.0,-580.0
-37.0,-846.0,-52.0,-320.0,384.0,-1169.0,-90.0,-3131.0,-287.0
-4.0,-797.0,-15.0,809.0,575.0,-1323.0,48.0,-2969.0,-123.0
28.0,-727.0,5.0,1798.0,670.0,-1451.0,183.0,-2767.0,-35.0
59.0,-653.0,14.0,2446.0,715.0,-1534.0,289.0,-2526.0,19.0
73.0,-566.0,21.0,2682.0,733.0,-1554.0,357.0,-2254.0,49.0
82.0,-479.0,27.0,2528.0,733.0,-1508.0,371.0,-1957.0,78.0
85.0,-399.0,35.0,2066.0,734.0,-1418.0,381.0,-1659.0,97.0
101.0,-332.0,31.0,1546.0,748.0,-1314.0,421.0,-1417.0,100.0
122.0,-277.0,25.0,802.0,812.0,-1220.0,472.0,-1186.0,76.0
142.0,-240.0,21.0,58.0,949.0,-1142.0,546.0,-979.0,52.0
167.0,-225.0,13.0,-616.0,1100.0,-1079.0,670.0,-915.0,23.0
194.0,-231.0,0.0,-1169.0,1336.0,-1026.0,757.0,-924.0,-32.0
202.0,-238.0,-13.0,-1599.0,1601.0,-975.0,790.0,-949.0,-87.0
195.0,-248.0,-20.0,-1926.0,1866.0,-882.0,779.0,-952.0,-114.0
178.0,-247.0,-23.0,-2156.0,2099.0,-754.0,730.0,-946.0,-119.0
161.0,-247.0,-18.0,-2293.0,2273.0,-607.0,660.0,-934.0,-107.0
139.0,-245.0,-15.0,-2333.0,2381.0,-450.0,595.0,-921.0,-89.0
117.0,-246.0,-7.0,-2280.0,2418.0,-291.0,524.0,-910.0,-80.0
100.0,-250.0,-12.0,-2137.0,2387.0,-132.0,457.0,-912.0,-75.0
73.0,-249.0,-17.0,-1928.0,2294.0,25.0,381.0,-920.0,-88.0
52.0,-246.0,-20.0,-1679.0,2155.0,188.0,296.0,-905.0,-122.0
24.0,-236.0,-25.0,-1408.0,1981.0,360.0,158.0,-865.0,-140.0
2.0,-220.0,-32.0,-1113.0,1773.0,547.0,76.0,-816.0,-175.0
-18.0,-205.0,-37.0,-795.0,1514.0,748.0,-3.0,-732.0,-192.0
-30.0,-183.0,-48.0,-446.0,1219.0,951.0,-42.0,-657.0,-214.0
-29.0,-159.0,-44.0,-71.0,907.0,1135.0,-52.0,-558.0,-232.0
-28.0,-136.0,-46.0,325.0,601.0,1281.0,-51.0,-452.0,-228.0
-21.0,-107.0,-44.0,734.0,325.0,1375.0,-25.0,-351.0,-226.0
5.0,-80.0,-45.0,1131.0,97.0,1422.0,42.0,-251.0,-219.0
17.0,-49.0,-46.0,1493.0,-82.0,1395.0,98.0,-145.0,-221.0
33.0,-14.0,-48.0,1799.0,-205.0,1309.0,144.0,-20.0,-219.0
37.0,17.0,-47.0,2039.0,-279.0,1190.0,148.0,154.0,-210.0
39.0,63.0,-35.0,2216.0,-313.0,1076.0,146.0,290.0,-176.0
36.0,95.0,-24.0,2348.0,-321.0,983.0,131.0,416.0,-136.0
29.0,126.0,-25.0,2427.0,-317.0,923.0,106.0,508.0,-116.0
31.0,154.0,-21.0,2426.0,-308.0,902.0,106.0,572.0,-98.0
35.0,170.0,-27.0,2338.0,-284.0,888.0,121.0,627.0,-128.0
38.0,180.0,-31.0,2158.0,-228.0,864.0,124.0,666.0,-145.0
33.0,187.0,-46.0,1885.0,-137.0,845.0,109.0,689.0,-196.0
31.0,185.0,-67.0,1530.0,-2.0,862.0,99.0,674.0,-264.0
36.0,170.0,-74.0,1107.0,161.0,909.0,115.0,614.0,-316.0
47.0,141.0,-82.0,665.0,354.0,937.0,142.0,532.0,-351.0
57.0,106.0,-89.0,262.0,582.0,927.0,174.0,400.0,-388.0
65.0,70.0,-97.0,-65.0,838.0,877.0,228.0,262.0,-423.0
76.0,18.0,-115.0,-305.0,1107.0,807.0,266.0,88.0,-488.0
76.0,-27.0,-128.0,-464.0,1361.0,730.0,295.0,-96.0,-544.0
77.0,-82.0,-141.0,-548.0,1564.0,654.0,314.0,-293.0,-604.0
75.0,-139.0,-143.0,-576.0,1667.0,576.0,333.0,-510.0,-608.0
71.0,-198.0,-134.0,-577.0,1626.0,477.0,342.0,-737.0,-583.0
65.0,-252.0,-135.0,-591.0,1446.0,326.0,322.0,-961.0,-583.0
49.0,-307.0,-137.0,-677.0,1197.0,126.0,255.0,-1189.0,-594.0
25.0,-359.0,-124.0,-846.0,963.0,-96.0,172.0,-1396.0,-561.0
3.0,-415.0,-92.0,-1048.0,775.0,-312.0,90.0,-1595.0,-437.0
-19.0,-466.0,-53.0,-1193.0,605.0,-526.0,-3.0,-1824.0,-228.0
-44.0,-510.0,-17.0,-1185.0,479.0,-713.0,-142.0,-1983.0,-115.0
-65.0,-545.0,-19.0,-1048.0,465.0,-843.0,-232.0,-2100.0,-126.0
-71.0,-567.0,-58.0,-762.0,604.0,-903.0,-281.0,-2158.0,-299.0
-43.0,-562.0,-136.0,-456.0,831.0,-913.0,-188.0,-2173.0,-550.0
-31.0,-543.0,-179.0,-250.0,1194.0,-911.0,-109.0,-2119.0,-753.0
-77.0,-508.0,-197.0,-171.0,1564.0,-874.0,-257.0,-2012.0,-862.0
-141.0,-477.0,-178.0,-170.0,1841.0,-680.0,-461.0,-1880.0,-797.0
-171.0,-468.0,-143.0,-157.0,1875.0,-311.0,-562.0,-1816.0,-665.0
-151.0,-443.0,-106.0,-77.0,1648.0,86.0,-518.0,-1715.0,-519.0
-121.0,-423.0,-82.0,142.0,1296.0,357.0,-400.0,-1609.0,-392.0
-86.0,-394.0,-57.0,478.0,954.0,478.0,-293.0,-1474.0,-276.0
-54.0,-360.0,-41.0,860.0,697.0,537.0,-164.0,-1349.0,-206.0
-24.0,-322.0,-32.0,1215.0,540.0,601.0,-62.0,-1218.0,-161.0
2.0,-292.0,-34.0,1463.0,474.0,677.0,34.0,-1141.0,-164.0
21.0,-269.0,-44.0,1543.0,464.0,740.0,124.0,-1065.0,-200.0
43.0,-252.0,-58.0,1426.0,475.0,772.0,186.0,-1028.0,-255.0
59.0,-244.0,-70.0,1124.0,513.0,771.0,247.0,-1010.0,-307.0
69.0,-246.0,-75.0,692.0,572.0,729.0,288.0,-1015.0,-322.0
79.0,-258.0,-64.0,204.0,643.0,669.0,325.0,-1051.0,-308.0
94.0,-273.0,-56.0,-261.0,730.0,621.0,382.0,-1092.0,-260.0
113.0,-288.0,-47.0,-628.0,832.0,578.0,447.0,-1117.0,-218.0
133.0,-300.0,-30.0,-857.0,960.0,539.0,520.0,-1152.0,-169.0
150.0,-305.0,-25.0,-957.0,1106.0,509.0,610.0,-1153.0,-138.0
163.0,-304.0,-24.0,-937.0,1267.0,496.0,647.0,-1124.0,-127.0
159.0,-288.0,-25.0,-824.0,1428.0,505.0,647.0,-1078.0,-146.0
157.0,-270.0,-44.0,-674.0,1574.0,525.0,635.0,-1024.0,-202.0
150.0,-251.0,-60.0,-534.0,1690.0,545.0,599.0,-951.0,-266.0
134.0,-235.0,-69.0,-425.0,1776.0,571.0,560.0,-895.0,-320.0
121.0,-220.0,-85.0,-343.0,1837.0,607.0,502.0,-841.0,-374.0
102.0,-212.0,-93.0,-283.0,1888.0,649.0,433.0,-808.0,-419.0
86.0,-204.0,-104.0,-241.0,1937.0,695.0,372.0,-781.0,-449.0
66.0,-197.0,-109.0,-214.0,1990.0,731.0,294.0,-751.0,-468.0
46.0,-191.0,-108.0,-204.0,2054.0,767.0,214.0,-734.0,-476.0
25.0,-190.0,-101.0,-200.0,2128.0,797.0,132.0,-725.0,-455.0
13.0,-192.0,-95.0,-186.0,2209.0,818.0,60.0,-724.0,-418.0
0.0,-188.0,-83.0,-144.0,2296.0,834.0,13.0,-725.0,-370.0
-10.0,-193.0,-67.0,-72.0,2385.0,847.0,-33.0,-726.0,-324.0
-20.0,-191.0,-59.0,34.0,2468.0,850.0,-66.0,-724.0,-278.0
-25.0,-193.0,-51.0,165.0,2537.0,847.0,-90.0,-724.0,-239.0
-32.0,-190.0,-43.0,310.0,2595.0,842.0,-96.0,-721.0,-212.0
-28.0,-190.0,-43.0,456.0,2644.0,832.0,-94.0,-712.0,-203.0
-26.0,-183.0,-43.0,590.0,2683.0,815.0,-77.0,-697.0,-195.0
-18.0,-177.0,-42.0,706.0,2719.0,793.0,-47.0,-671.0,-201.0
-1.0,-170.0,-47.0,797.0,2756.0,758.0,-4.0,-634.0,-219.0
6.0,-157.0,-49.0,863.0,2800.0,716.0,47.0,-585.0,-235.0
22.0,-144.0,-57.0,895.0,2856.0,665.0,91.0,-542.0,-265.0
31.0,-132.0,-66.0,895.0,2922.0,603.0,130.0,-496.0,-287.0
37.0,-118.0,-76.0,866.0,2993.0,537.0,152.0,-438.0,-313.0
42.0,-101.0,-84.0,821.0,3063.0,468.0,173.0,-395.0,-342.0
42.0,-92.0,-82.0,737.0,3125.0,394.0,170.0,-354.0,-357.0
43.0,-86.0,-86.0,638.0,3163.0,323.0,174.0,-329.0,-372.0
41.0,-85.0,-86.0,525.0,3195.0,255.0,170.0,-321.0,-388.0
38.0,-83.0,-87.0,404.0,3214.0,201.0,170.0,-322.0,-395.0
32.0,-93.0,-89.0,286.0,3222.0,137.0,157.0,-345.0,-398.0
30.0,-112.0,-90.0,181.0,3218.0,85.0,137.0,-424.0,-390.0
21.0,-130.0,-90.0,92.0,3205.0,42.0,113.0,-492.0,-389.0
12.0,-147.0,-87.0,18.0,3189.0,10.0,84.0,-563.0,-385.0
5.0,-167.0,-83.0,-15.0,3161.0,-16.0,44.0,-623.0,-376.0
-1.0,-175.0,-87.0,0.0,3124.0,-44.0,24.0,-667.0,-385.0
-2.0,-186.0,-91.0,48.0,3090.0,-66.0,2.0,-698.0,-411.0
-9.0,-190.0,-105.0,114.0,3081.0,-89.0,-10.0,-719.0,-450.0
-10.0,-191.0,-112.0,185.0,3096.0,-119.0,-20.0,-727.0,-491.0
-8.0,-190.0,-122.0,241.0,3141.0,-158.0,-19.0,-722.0,-534.0
-6.0,-187.0,-128.0,279.0,3207.0,-215.0,-10.0,-719.0,-554.0
-3.0,-184.0,-136.0,293.0,3288.0,-286.0,-7.0,-704.0,-573.0
-3.0,-184.0,-130.0,286.0,3365.0,-368.0,0.0,-704.0,-564.0
-6.0,-189.0,-130.0,255.0,3417.0,-449.0,0.0,-723.0,-555.0
-12.0,-194.0,-122.0,206.0,3429.0,-524.0,-19.0,-749.0,-537.0
-17.0,-201.0,-115.0,137.0,3392.0,-586.0,-40.0,-784.0,-501.0
-30.0,-215.0,-104.0,60.0,3314.0,-630.0,-75.0,-832.0,-475.0
-47.0,-222.0,-102.0,-19.0,3211.0,-651.0,-140.0,-877.0,-450.0
-60.0,-248.0,-94.0,-90.0,3109.0,-646.0,-190.0,-942.0,-423.0
-69.0,-266.0,-85.0,-144.0,3027.0,-619.0,-237.0,-1020.0,-390.0
-78.0,-289.0,-78.0,-169.0,2979.0,-584.0,-265.0,-1096.0,-361.0
-87.0,-309.0,-75.0,-157.0,2976.0,-548.0,-314.0,-1177.0,-335.0
-101.0,-324.0,-73.0,-112.0,3017.0,-503.0,-355.0,-1245.0,-317.0
-109.0,-349.0,-77.0,-58.0,3086.0,-453.0,-393.0,-1331.0,-329.0
-115.0,-363.0,-83.0,-21.0,3159.0,-404.0,-424.0,-1412.0,-369.0
-121.0,-369.0,-93.0,-33.0,3214.0,-352.0,-437.0,-1462.0,-415.0
-125.0,-380.0,-111.0,-102.0,3228.0,-299.0,-431.0,-1510.0,-468.0
-114.0,-392.0,-118.0,-223.0,3175.0,-241.0,-380.0,-1548.0,-509.0
-96.0,-403.0,-124.0,-371.0,3029.0,-166.0,-307.0,-1586.0,-529.0
-65.0,-413.0,-116.0,-519.0,2789.0,-69.0,-167.0,-1621.0,-519.0
-22.0,-418.0,-107.0,-641.0,2483.0,20.0,2.0,-1624.0,-487.0
13.0,-413.0,-94.0,-696.0,2166.0,86.0,134.0,-1583.0,-437.0
36.0,-399.0,-84.0,-642.0,1902.0,163.0,211.0,-1517.0,-384.0
43.0,-378.0,-71.0,-489.0,1719.0,244.0,224.0,-1428.0,-336.0
46.0,-354.0,-62.0,-281.0,1618.0,310.0,217.0,-1343.0,-284.0
42.0,-323.0,-56.0,-74.0,1584.0,332.0,195.0,-1206.0,-247.0
38.0,-293.0,-41.0,105.0,1591.0,317.0,172.0,-1079.0,-209.0
31.0,-253.0,-29.0,255.0,1618.0,285.0,155.0,-970.0,-170.0
35.0,-228.0,-31.0,368.0,1650.0,249.0,144.0,-879.0,-147.0
19.0,-201.0,-35.0,421.0,1691.0,226.0,137.0,-809.0,-150.0
16.0,-185.0,-31.0,409.0,1733.0,209.0,98.0,-742.0,-156.0
0.0,-173.0,-28.0,340.0,1782.0,204.0,33.0,-691.0,-163.0
-15.0,-159.0,-31.0,241.0,1830.0,198.0,-25.0,-648.0,-165.0
-29.0,-155.0,-33.0,151.0,1871.0,194.0,-79.0,-616.0,-176.0
-33.0,-154.0,-37.0,32.0,1904.0,188.0,-118.0,-593.0,-175.0
-35.0,-152.0,-34.0,-80.0,1924.0,177.0,-124.0,-597.0,-188.0
-29.0,-156.0,-41.0,-181.0,1947.0,159.0,-103.0,-620.0,-182.0
-27.0,-161.0,-34.0,-267.0,1962.0,135.0,-71.0,-638.0,-171.0
-4.0,-175.0,-29.0,-331.0,1971.0,95.0,-4.0,-673.0,-160.0
8.0,-189.0,-25.0,-383.0,1969.0,41.0,68.0,-727.0,-146.0
38.0,-209.0,-22.0,-428.0,1972.0,-25.0,166.0,-786.0,-128.0
67.0,-216.0,-19.0,-457.0,1990.0,-90.0,283.0,-828.0,-95.0
97.0,-237.0,-13.0,-450.0,2030.0,-155.0,383.0,-882.0,-77.0
117.0,-248.0,-7.0,-418.0,2092.0,-209.0,470.0,-936.0,-59.0
139.0,-261.0,-7.0,-376.0,2169.0,-256.0,557.0,-997.0,-53.0
157.0,-276.0,-10.0,-336.0,2253.0,-291.0,629.0,-1050.0,-60.0
168.0,-287.0,-13.0,-313.0,2339.0,-323.0,673.0,-1087.0,-81.0
172.0,-295.0,-17.0,-305.0,2427.0,-341.0,697.0,-1113.0,-106.0
173.0,-293.0,-20.0,-300.0,2520.0,-346.0,690.0,-1118.0,-128.0
167.0,-291.0,-31.0,-287.0,2609.0,-323.0,668.0,-1115.0,-157.0
152.0,-289.0,-46.0,-269.0,2697.0,-274.0,616.0,-1106.0,-184.0
128.0,-296.0,-43.0,-240.0,2773.0,-211.0,538.0,-1110.0,-210.0
106.0,-292.0,-50.0,-192.0,2834.0,-137.0,455.0,-1119.0,-226.0
80.0,-294.0,-48.0,-127.0,2887.0,-57.0,365.0,-1111.0,-230.0
60.0,-294.0,-49.0,-40.0,2934.0,24.0,280.0,-1111.0,-234.0
42.0,-294.0,-48.0,68.0,2978.0,104.0,208.0,-1113.0,-241.0
18.0,-292.0,-50.0,178.0,3015.0,168.0,133.0,-1113.0,-240.0
1.0,-295.0,-48.0,280.0,3042.0,217.0,51.0,-1113.0,-234.0
-16.0,-286.0,-45.0,362.0,3058.0,251.0,-25.0,-1107.0,-219.0
-27.0,-286.0,-41.0,418.0,3061.0,266.0,-79.0,-1095.0,-203.0
-36.0,-276.0,-34.0,454.0,3055.0,269.0,-106.0,-1076.0,-181.0
-40.0,-274.0,-34.0,469.0,3045.0,265.0,-127.0,-1064.0,-157.0
-45.0,-268.0,-24.0,469.0,3032.0,251.0,-142.0,-1054.0,-135.0
-45.0,-269.0,-19.0,460.0,3017.0,228.0,-150.0,-1034.0,-102.0
-47.0,-256.0,-15.0,447.0,2991.0,195.0,-150.0,-1012.0,-86.0
-49.0,-250.0,-8.0,439.0,2952.0,165.0,-142.0,-981.0,-65.0
-44.0,-247.0,-11.0,439.0,2900.0,141.0,-135.0,-955.0,-54.0
-40.0,-243.0,-7.0,443.0,2837.0,116.0,-124.0,-927.0,-58.0
-39.0,-237.0,-11.0,443.0,2771.0,94.0,-116.0,-915.0,-71.0
-37.0,-230.0,-16.0,441.0,2702.0,77.0,-110.0,-893.0,-82.0
-38.0,-233.0,-18.0,435.0,2634.0,63.0,-107.0,-889.0,-90.0
-36.0,-231.0,-16.0,427.0,2563.0,53.0,-108.0,-895.0,-93.0
-34.0,-235.0,-12.0,416.0,2491.0,42.0,-102.0,-900.0,-92.0
-32.0,-236.0,-15.0,401.0,2424.0,30.0,-99.0,-910.0,-94.0
-33.0,-234.0,-17.0,378.0,2364.0,14.0,-86.0,-915.0,-91.0
-27.0,-235.0,-14.0,345.0,2304.0,-7.0,-76.0,-911.0,-85.0
-22.0,-238.0,-13.0,312.0,2245.0,-23.0,-59.0,-914.0,-72.0
-20.0,-237.0,-3.0,270.0,2181.0,-34.0,-46.0,-915.0,-57.0
-20.0,-237.0,-3.0,224.0,2110.0,-41.0,-32.0,-916.0,-38.0
-17.0,-235.0,4.0,177.0,2036.0,-41.0,-28.0,-912.0,-18.0
-12.0,-238.0,4.0,125.0,1962.0,-31.0,-1.0,-921.0,-6.0
-5.0,-243.0,8.0,83.0,1892.0,-13.0,13.0,-926.0,5.0
-3.0,-246.0,10.0,33.0,1835.0,12.0,28.0,-942.0,15.0
1.0,-249.0,12.0,-10.0,1796.0,39.0,40.0,-965.0,27.0
3.0,-251.0,13.0,-47.0,1752.0,66.0,55.0,-982.0,30.0
10.0,-260.0,18.0,-73.0,1712.0,91.0,79.0,-1016.0,35.0
15.0,-264.0,11.0,-86.0,1676.0,119.0,99.0,-1031.0,24.0
20.0,-275.0,15.0,-90.0,1642.0,136.0,128.0,-1052.0,19.0
25.0,-278.0,14.0,-87.0,1611.0,149.0,145.0,-1072.0,9.0
34.0,-282.0,7.0,-73.0,1581.0,152.0,177.0,-1090.0,6.0
43.0,-289.0,3.0,-44.0,1554.0,148.0,214.0,-1104.0,-13.0
54.0,-291.0,3.0,-11.0,1524.0,135.0,253.0,-1117.0,-15.0
61.0,-291.0,3.0,23.0,1490.0,115.0,274.0,-1122.0,-21.0
64.0,-293.0,0.0,61.0,1453.0,88.0,287.0,-1119.0,-25.0
63.0,-291.0,-1.0,99.0,1418.0,57.0,297.0,-1117.0,-42.0
66.0,-290.0,-3.0,134.0,1383.0,24.0,295.0,-1108.0,-47.0
62.0,-285.0,-7.0,163.0,1354.0,-5.0,289.0,-1093.0,-57.0
57.0,-274.0,-7.0,187.0,1332.0,-28.0,278.0,-1068.0,-61.0
55.0,-271.0,-11.0,210.0,1317.0,-45.0,264.0,-1048.0,-68.0
52.0,-260.0,-14.0,231.0,1313.0,-59.0,236.0,-1021.0,-81.0
50.0,-254.0,-11.0,246.0,1323.0,-69.0,221.0,-985.0,-86.0
46.0,-247.0,-16.0,258.0,1350.0,-66.0,214.0,-949.0,-95.0
44.0,-240.0,-14.0,260.0,1384.0,-64.0,193.0,-920.0,-95.0
42.0,-236.0,-17.0,255.0,1419.0,-60.0,179.0,-896.0,-91.0
34.0,-229.0,-13.0,239.0,1449.0,-53.0,167.0,-880.0,-83.0
34.0,-227.0,-10.0,217.0,1477.0,-47.0,160.0,-872.0,-70.0
37.0,-227.0,-6.0,189.0,1495.0,-41.0,163.0,-870.0,-49.0
38.0,-227.0,-2.0,162.0,1508.0,-36.0,171.0,-868.0,-29.0
38.0,-226.0,2.0,140.0,1513.0,-37.0,178.0,-876.0,-22.0
38.0,-233.0,3.0,124.0,1510.0,-42.0,192.0,-895.0,-16.0
43.0,-237.0,8.0,120.0,1503.0,-52.0,199.0,-903.0,7.0
47.0,-240.0,9.0,121.0,1493.0,-65.0,207.0,-912.0,8.0
44.0,-242.0,11.0,128.0,1481.0,-81.0,209.0,-919.0,13.0
46.0,-242.0,15.0,129.0,1467.0,-101.0,214.0,-921.0,10.0
49.0,-241.0,11.0,121.0,1454.0,-118.0,223.0,-922.0,-4.0
46.0,-243.0,4.0,103.0,1442.0,-130.0,216.0,-921.0,-12.0
46.0,-241.0,5.0,77.0,1430.0,-144.0,215.0,-919.0,-18.0
43.0,-240.0,3.0,49.0,1417.0,-148.0,210.0,-921.0,-22.0
40.0,-237.0,4.0,24.0,1403.0,-146.0,201.0,-923.0,-11.0
39.0,-240.0,5.0,7.0,1384.0,-139.0,191.0,-918.0,-16.0
36.0,-241.0,9.0,-2.0,1362.0,-128.0,180.0,-921.0,-7.0
34.0,-243.0,8.0,0.0,1335.0,-117.0,172.0,-921.0,-4.0
30.0,-244.0,12.0,11.0,1304.0,-101.0,160.0,-921.0,14.0
29.0,-243.0,11.0,28.0,1273.0,-81.0,154.0,-924.0,26.0
26.0,-240.0,19.0,48.0,1241.0,-57.0,146.0,-921.0,29.0
28.0,-241.0,15.0,65.0,1211.0,-31.0,137.0,-915.0,42.0
22.0,-239.0,21.0,78.0,1181.0,-6.0,133.0,-910.0,51.0
22.0,-232.0,26.0,88.0,1149.0,20.0,132.0,-904.0,62.0
25.0,-236.0,28.0,91.0,1118.0,48.0,125.0,-892.0,71.0
22.0,-228.0,31.0,89.0,1084.0,74.0,130.0,-887.0,82.0
24.0,-228.0,28.0,80.0,1051.0,102.0,132.0,-883.0,80.0
24.0,-227.0,31.0,62.0,1019.0,130.0,128.0,-878.0,85.0
24.0,-227.0,33.0,36.0,993.0,156.0,131.0,-877.0,89.0
26.0,-229.0,29.0,6.0,964.0,180.0,137.0,-885.0,85.0
26.0,-235.0,31.0,-24.0,936.0,200.0,136.0,-895.0,91.0
23.0,-239.0,31.0,-53.0,908.0,222.0,134.0,-915.0,101.0
19.0,-238.0,36.0,-77.0,875.0,244.0,135.0,-924.0,99.0
21.0,-246.0,38.0,-94.0,835.0,259.0,132.0,-951.0,101.0
13.0,-258.0,30.0,-108.0,788.0,271.0,128.0,-979.0,97.0
21.0,-266.0,33.0,-115.0,734.0,279.0,128.0,-1016.0,97.0
18.0,-273.0,31.0,-112.0,668.0,280.0,117.0,-1049.0,80.0
16.0,-284.0,27.0,-101.0,596.0,278.0,109.0,-1092.0,76.0
14.0,-294.0,25.0,-84.0,524.0,268.0,102.0,-1127.0,63.0
12.0,-305.0,19.0,-66.0,453.0,249.0,93.0,-1171.0,42.0
5.0,-315.0,8.0,-60.0,392.0,221.0,84.0,-1206.0,10.0
5.0,-319.0,-2.0,-70.0,350.0,183.0,66.0,-1234.0,-36.0
1.0,-323.0,-14.0,-87.0,334.0,145.0,45.0,-1250.0,-78.0
0.0,-328.0,-17.0,-100.0,347.0,107.0,32.0,-1261.0,-100.0
0.0,-326.0,-17.0,-95.0,386.0,68.0,26.0,-1253.0,-94.0
0.0,-320.0,-7.0,-57.0,431.0,25.0,34.0,-1231.0,-67.0
4.0,-318.0,2.0,26.0,473.0,-17.0,39.0,-1212.0,-34.0
4.0,-310.0,9.0,141.0,502.0,-55.0,49.0,-1170.0,-6.0
4.0,-297.0,10.0,269.0,518.0,-79.0,62.0,-1139.0,14.0
6.0,-282.0,13.0,390.0,522.0,-92.0,74.0,-1093.0,26.0
9.0,-269.0,17.0,484.0,518.0,-98.0,75.0,-1043.0,28.0
11.0,-259.0,17.0,542.0,512.0,-99.0,83.0,-1000.0,28.0
13.0,-246.0,9.0,560.0,506.0,-100.0,88.0,-944.0,18.0
14.0,-235.0,11.0,541.0,501.0,-96.0,98.0,-906.0,10.0
15.0,-226.0,7.0,494.0,501.0,-90.0,101.0,-883.0,2.0
17.0,-228.0,2.0,425.0,498.0,-85.0,105.0,-868.0,7.0
19.0,-220.0,7.0,343.0,492.0,-81.0,108.0,-859.0,0.0
20.0,-221.0,9.0,258.0,481.0,-79.0,108.0,-859.0,-1.0
17.0,-224.0,7.0,180.0,468.0,-73.0,108.0,-865.0,3.0
17.0,-225.0,6.0,112.0,453.0,-62.0,113.0,-872.0,-1.0
19.0,-229.0,5.0,61.0,441.0,-45.0,119.0,-891.0,-4.0
19.0,-236.0,3.0,32.0,432.0,-19.0,121.0,-905.0,-9.0
18.0,-241.0,5.0,16.0,432.0,12.0,108.0,-920.0,-9.0
18.0,-246.0,0.0,10.0,435.0,47.0,104.0,-943.0,-25.0
14.0,-249.0,-4.0,1.0,436.0,87.0,91.0,-966.0,-41.0
11.0,-249.0,0.0,-3.0,433.0,131.0,80.0,-972.0,-44.0
6.0,-257.0,-3.0,-5.0,427.0,173.0,53.0,-984.0,-46.0
0.0,-259.0,-1.0,-2.0,415.0,214.0,32.0,-1003.0,-53.0
-5.0,-262.0,-2.0,2.0,403.0,250.0,12.0,-1019.0,-50.0
-13.0,-263.0,-3.0,14.0,393.0,276.0,-10.0,-1022.0,-52.0
-16.0,-266.0,-5.0,28.0,391.0,292.0,-37.0,-1030.0,-55.0
-21.0,-270.0,-4.0,49.0,398.0,299.0,-58.0,-1033.0,-53.0
-24.0,-266.0,-5.0,77.0,407.0,296.0,-68.0,-1031.0,-51.0
-25.0,-266.0,0.0,103.0,423.0,286.0,-77.0,-1022.0,-43.0
-28.0,-262.0,-4.0,138.0,439.0,269.0,-84.0,-1018.0,-43.0
-32.0,-260.0,0.0,171.0,450.0,249.0,-89.0,-998.0,-33.0
-32.0,-256.0,2.0,201.0,468.0,227.0,-91.0,-983.0,-30.0
-25.0,-252.0,1.0,228.0,489.0,213.0,-78.0,-981.0,-21.0
-30.0,-254.0,5.0,247.0,507.0,193.0,-89.0,-973.0,-8.0
-33.0,-253.0,9.0,259.0,517.0,176.0,-99.0,-973.0,-4.0
-37.0,-252.0,6.0,258.0,516.0,161.0,-103.0,-972.0,-1.0
-42.0,-251.0,3.0,244.0,496.0,151.0,-114.0,-974.0,6.0
-45.0,-252.0,11.0,217.0,461.0,150.0,-125.0,-982.0,5.0
-49.0,-253.0,5.0,183.0,411.0,153.0,-147.0,-992.0,-2.0
-52.0,-257.0,4.0,142.0,359.0,161.0,-162.0,-1011.0,-6.0
-55.0,-260.0,6.0,107.0,309.0,170.0,-185.0,-1015.0,-4.0
-53.0,-262.0,5.0,79.0,275.0,181.0,-190.0,-1025.0,-7.0
-57.0,-262.0,6.0,71.0,261.0,192.0,-203.0,-1022.0,-9.0
-58.0,-261.0,2.0,72.0,265.0,207.0,-205.0,-1024.0,-14.0
-58.0,-261.0,5.0,74.0,278.0,222.0,-207.0,-1024.0,-13.0
-57.0,-263.0,3.0,73.0,297.0,237.0,-208.0,-1024.0,-20.0
-56.0,-262.0,4.0,65.0,315.0,252.0,-194.0,-1021.0,-17.0
-54.0,-262.0,3.0,53.0,328.0,268.0,-187.0,-1019.0,-18.0
-57.0,-258.0,6.0,41.0,337.0,282.0,-183.0,-1008.0,-16.0
-51.0,-257.0,7.0,31.0,337.0,296.0,-172.0,-1004.0,-12.0
-46.0,-256.0,3.0,24.0,330.0,306.0,-150.0,-994.0,-18.0
-42.0,-253.0,0.0,21.0,314.0,315.0,-137.0,-976.0,-33.0
-39.0,-250.0,-4.0,23.0,297.0,323.0,-115.0,-965.0,-33.0
-39.0,-251.0,-1.0,27.0,286.0,329.0,-98.0,-951.0,-35.0
-27.0,-245.0,-3.0,24.0,277.0,329.0,-81.0,-944.0,-44.0
-22.0,-244.0,0.0,13.0,270.0,326.0,-61.0,-930.0,-36.0
-21.0,-239.0,3.0,-1.0,265.0,323.0,-47.0,-922.0,-22.0
-21.0,-240.0,5.0,-12.0,264.0,319.0,-40.0,-921.0,-11.0
-15.0,-243.0,10.0,-23.0,265.0,312.0,-36.0,-925.0,7.0
-16.0,-244.0,15.0,-29.0,272.0,302.0,-33.0,-938.0,21.0
-16.0,-248.0,18.0,-32.0,282.0,290.0,-34.0,-947.0,25.0
-14.0,-250.0,12.0,-40.0,301.0,273.0,-42.0,-966.0,26.0
-16.0,-252.0,14.0,-54.0,324.0,252.0,-36.0,-983.0,27.0
-17.0,-259.0,12.0,-74.0,352.0,233.0,-36.0,-997.0,21.0
-19.0,-261.0,11.0,-93.0,375.0,220.0,-42.0,-1018.0,17.0
-22.0,-265.0,14.0,-108.0,391.0,207.0,-58.0,-1020.0,8.0
-23.0,-268.0,9.0,-110.0,400.0,196.0,-50.0,-1021.0,0.0
-22.0,-264.0,9.0,-104.0,410.0,185.0,-59.0,-1021.0,-3.0
-22.0,-260.0,7.0,-92.0,422.0,174.0,-63.0,-1018.0,-2.0
-21.0,-261.0,5.0,-75.0,438.0,159.0,-59.0,-1011.0,-7.0
-20.0,-258.0,6.0,-56.0,457.0,146.0,-53.0,-1005.0,-14.0
-19.0,-255.0,3.0,-46.0,477.0,134.0,-49.0,-982.0,-14.0
-17.0,-250.0,4.0,-43.0,499.0,123.0,-45.0,-969.0,-10.0
-19.0,-246.0,7.0,-42.0,520.0,111.0,-51.0,-955.0,-4.0
-17.0,-248.0,9.0,-41.0,535.0,100.0,-33.0,-940.0,6.0
-14.0,-241.0,9.0,-44.0,541.0,88.0,-26.0,-934.0,10.0
-12.0,-242.0,13.0,-51.0,543.0,77.0,-19.0,-934.0,12.0
-13.0,-245.0,13.0,-60.0,536.0,69.0,-24.0,-926.0,20.0
-13.0,-242.0,11.0,-75.0,524.0,63.0,-32.0,-923.0,18.0
-14.0,-239.0,10.0,-92.0,512.0,58.0,-35.0,-927.0,12.0
-18.0,-238.0,10.0,-110.0,498.0,51.0,-42.0,-922.0,8.0
-18.0,-240.0,10.0,-129.0,486.0,47.0,-44.0,-916.0,7.0
-21.0,-241.0,8.0,-150.0,478.0,48.0,-60.0,-918.0,0.0
-27.0,-240.0,6.0,-170.0,470.0,51.0,-70.0,-918.0,0.0
-31.0,-240.0,6.0,-186.0,462.0,56.0,-86.0,-921.0,0.0
-35.0,-243.0,5.0,-198.0,453.0,66.0,-109.0,-934.0,-3.0
-41.0,-249.0,6.0,-206.0,440.0,78.0,-135.0,-954.0,1.0
-47.0,-252.0,5.0,-213.0,421.0,88.0,-145.0,-975.0,-6.0
-49.0,-258.0,3.0,-222.0,402.0,97.0,-159.0,-1003.0,-8.0
-52.0,-262.0,3.0,-233.0,392.0,103.0,-174.0,-1025.0,-17.0
-54.0,-270.0,0.0,-240.0,386.0,109.0,-186.0,-1049.0,-15.0
-55.0,-272.0,5.0,-242.0,383.0,112.0,-194.0,-1069.0,-24.0
-58.0,-280.0,-1.0,-234.0,386.0,114.0,-194.0,-1085.0,-21.0
-55.0,-281.0,1.0,-217.0,392.0,113.0,-180.0,-1095.0,-25.0
-49.0,-283.0,1.0,-194.0,401.0,111.0,-173.0,-1096.0,-24.0
-46.0,-286.0,5.0,-172.0,409.0,115.0,-153.0,-1100.0,-24.0
-41.0,-280.0,3.0,-150.0,414.0,115.0,-137.0,-1099.0,-20.0
-39.0,-278.0,9.0,-126.0,413.0,115.0,-116.0,-1094.0,-13.0
-33.0,-283.0,9.0,-101.0,406.0,111.0,-97.0,-1087.0,-8.0
-33.0,-277.0,7.0,-77.0,398.0,107.0,-91.0,-1071.0,-4.0
-28.0,-277.0,11.0,-61.0,385.0,101.0,-81.0,-1061.0,0.0
-26.0,-268.0,13.0,-49.0,372.0,94.0,-72.0,-1050.0,9.0
-22.0,-264.0,10.0,-42.0,365.0,87.0,-68.0,-1036.0,11.0
-21.0,-258.0,11.0,-40.0,362.0,78.0,-62.0,-1014.0,12.0
-19.0,-254.0,15.0,-44.0,359.0,69.0,-55.0,-994.0,9.0
-22.0,-249.0,13.0,-53.0,361.0,61.0,-45.0,-966.0,10.0
-19.0,-246.0,15.0,-66.0,369.0,50.0,-43.0,-951.0,16.0
-18.0,-245.0,10.0,-82.0,381.0,42.0,-48.0,-942.0,13.0
-19.0,-244.0,6.0,-99.0,395.0,37.0,-53.0,-940.0,12.0
-20.0,-244.0,12.0,-114.0,409.0,30.0,-51.0,-931.0,10.0
-15.0,-244.0,13.0,-130.0,423.0,24.0,-37.0,-941.0,3.0
-16.0,-242.0,9.0,-145.0,442.0,17.0,-37.0,-935.0,13.0
-15.0,-246.0,11.0,-156.0,457.0,9.0,-33.0,-940.0,16.0
-18.0,-246.0,12.0,-164.0,477.0,1.0,-38.0,-937.0,14.0
-16.0,-244.0,11.0,-165.0,497.0,-9.0,-33.0,-940.0,18.0
-14.0,-245.0,15.0,-154.0,513.0,-22.0,-36.0,-928.0,20.0
-16.0,-243.0,12.0,-133.0,529.0,-38.0,-33.0,-926.0,11.0
-15.0,-240.0,12.0,-104.0,543.0,-59.0,-35.0,-921.0,6.0
-15.0,-235.0,0.0,-75.0,553.0,-80.0,-33.0,-916.0,-6.0
-11.0,-239.0,6.0,-50.0,564.0,-105.0,-21.0,-911.0,-21.0
-11.0,-235.0,-1.0,-33.0,572.0,-130.0,-18.0,-904.0,-23.0
-10.0,-231.0,-2.0,-28.0,580.0,-156.0,-10.0,-899.0,-29.0
-11.0,-235.0,3.0,-31.0,587.0,-182.0,-1.0,-902.0,-23.0
-8.0,-234.0,1.0,-43.0,593.0,-209.0,-2.0,-896.0,-22.0
-10.0,-237.0,6.0,-56.0,597.0,-232.0,-7.0,-913.0,-22.0
-13.0,-242.0,5.0,-66.0,594.0,-252.0,-14.0,-916.0,-13.0
-13.0,-244.0,4.0,-73.0,583.0,-264.0,-18.0,-931.0,-17.0
-13.0,-248.0,0.0,-83.0,570.0,-275.0,-27.0,-947.0,-20.0
-19.0,-252.0,5.0,-98.0,553.0,-281.0,-37.0,-963.0,-19.0
-24.0,-251.0,4.0,-113.0,534.0,-282.0,-49.0,-972.0,-22.0
-28.0,-253.0,3.0,-124.0,510.0,-282.0,-71.0,-992.0,-16.0
-28.0,-258.0,6.0,-124.0,484.0,-279.0,-82.0,-1004.0,-19.0
-37.0,-260.0,10.0,-114.0,456.0,-270.0,-97.0,-1012.0,-12.0
-39.0,-263.0,7.0,-97.0,426.0,-259.0,-107.0,-1016.0,-11.0
-38.0,-261.0,7.0,-82.0,397.0,-243.0,-126.0,-1018.0,-16.0
-43.0,-261.0,2.0,-73.0,370.0,-225.0,-137.0,-1017.0,-22.0
-45.0,-259.0,-1.0,-72.0,346.0,-206.0,-142.0,-1016.0,-28.0
-47.0,-258.0,5.0,-85.0,322.0,-185.0,-151.0,-1014.0,-34.0
-45.0,-263.0,5.0,-104.0,299.0,-167.0,-144.0,-1011.0,-31.0
-43.0,-261.0,1.0,-122.0,281.0,-149.0,-145.0,-1019.0,-38.0
-43.0,-264.0,3.0,-138.0,260.0,-130.0,-139.0,-1017.0,-54.0
-42.0,-263.0,-7.0,-145.0,238.0,-114.0,-135.0,-1032.0,-64.0
-41.0,-266.0,-9.0,-150.0,222.0,-100.0,-127.0,-1032.0,-66.0
-38.0,-268.0,-11.0,-149.0,208.0,-91.0,-110.0,-1039.0,-73.0
-39.0,-268.0,-11.0,-148.0,192.0,-80.0,-106.0,-1039.0,-75.0
-36.0,-268.0,-12.0,-145.0,175.0,-72.0,-103.0,-1037.0,-83.0
-30.0,-267.0,-12.0,-144.0,158.0,-66.0,-92.0,-1039.0,-84.0
-29.0,-267.0,-15.0,-150.0,140.0,-58.0,-76.0,-1032.0,-87.0
-27.0,-266.0,-14.0,-159.0,122.0,-50.0,-67.0,-1037.0,-90.0
-19.0,-268.0,-10.0,-166.0,108.0,-43.0,-45.0,-1030.0,-87.0
-16.0,-265.0,-11.0,-174.0,99.0,-37.0,-33.0,-1031.0,-79.0
-13.0,-259.0,-9.0,-178.0,95.0,-31.0,-24.0,-1022.0,-70.0
-10.0,-260.0,-13.0,-177.0,98.0,-28.0,-8.0,-1016.0,-65.0
-6.0,-262.0,-9.0,-171.0,101.0,-25.0,1.0,-1009.0,-62.0
-4.0,-260.0,-3.0,-163.0,107.0,-26.0,5.0,-1004.0,-57.0
-3.0,-252.0,-4.0,-152.0,114.0,-29.0,11.0,-985.0,-47.0
-2.0,-255.0,1.0,-139.0,124.0,-34.0,20.0,-979.0,-39.0
1.0,-252.0,0.0,-123.0,137.0,-43.0,18.0,-973.0,-30.0
0.0,-248.0,3.0,-108.0,150.0,-52.0,23.0,-960.0,-26.0
-4.0,-245.0,2.0,-97.0,162.0,-62.0,27.0,-956.0,-22.0
0.0,-246.0,2.0,-92.0,174.0,-72.0,23.0,-946.0,-19.0
0.0,-246.0,3.0,-93.0,186.0,-81.0,22.0,-939.0,-22.0
0.0,-244.0,0.0,-100.0,202.0,-89.0,21.0,-941.0,-23.0
0.0,-248.0,-3.0,-109.0,216.0,-97.0,19.0,-947.0,-37.0
-3.0,-248.0,-1.0,-123.0,230.0,-102.0,17.0,-954.0,-45.0
-6.0,-248.0,-4.0,-136.0,245.0,-108.0,6.0,-968.0,-48.0
-7.0,-251.0,-4.0,-149.0,255.0,-112.0,6.0,-979.0,-58.0
-5.0,-255.0,-10.0,-160.0,261.0,-111.0,1.0,-989.0,-60.0
-7.0,-258.0,-8.0,-173.0,261.0,-109.0,-5.0,-1008.0,-69.0
-13.0,-259.0,-8.0,-184.0,260.0,-104.0,-12.0,-1015.0,-71.0
-10.0,-265.0,-9.0,-195.0,259.0,-99.0,-17.0,-1023.0,-69.0
-11.0,-263.0,-6.0,-201.0,258.0,-93.0,-18.0,-1027.0,-72.0
-15.0,-265.0,-9.0,-208.0,259.0,-89.0,-23.0,-1026.0,-71.0
-12.0,-268.0,-7.0,-209.0,259.0,-86.0,-20.0,-1028.0,-72.0
-11.0,-264.0,-5.0,-208.0,260.0,-83.0,-16.0,-1024.0,-67.0
-11.0,-265.0,-9.0,-205.0,260.0,-81.0,-16.0,-1029.0,-55.0
-10.0,-263.0,-10.0,-200.0,257.0,-79.0,-14.0,-1025.0,-60.0
-14.0,-266.0,-9.0,-193.0,252.0,-74.0,-11.0,-1025.0,-55.0
-12.0,-266.0,-4.0,-184.0,244.0,-69.0,-20.0,-1026.0,-50.0
-13.0,-266.0,-4.0,-176.0,234.0,-65.0,-15.0,-1031.0,-43.0
-10.0,-267.0,-1.0,-164.0,224.0,-65.0,-18.0,-1031.0,-38.0
-12.0,-266.0,-4.0,-148.0,213.0,-64.0,-14.0,-1029.0,-41.0
-14.0,-264.0,1.0,-127.0,209.0,-66.0,-19.0,-1024.0,-43.0
-12.0,-262.0,-1.0,-103.0,206.0,-69.0,-15.0,-1020.0,-44.0
-14.0,-256.0,-3.0,-80.0,207.0,-74.0,-14.0,-1002.0,-48.0
-12.0,-259.0,-4.0,-62.0,210.0,-79.0,-15.0,-1006.0,-60.0
-13.0,-254.0,-10.0,-54.0,213.0,-84.0,-12.0,-999.0,-71.0
-10.0,-258.0,-11.0,-56.0,217.0,-87.0,-14.0,-984.0,-74.0
-10.0,-254.0,-13.0,-62.0,223.0,-91.0,-8.0,-998.0,-77.0
-8.0,-256.0,-11.0,-71.0,229.0,-93.0,-8.0,-998.0,-80.0
-7.0,-255.0,-11.0,-80.0,233.0,-93.0,-1.0,-991.0,-76.0
-4.0,-257.0,-10.0,-87.0,239.0,-91.0,8.0,-986.0,-74.0
-5.0,-254.0,-10.0,-90.0,243.0,-87.0,8.0,-1003.0,-70.0
-5.0,-254.0,-4.0,-91.0,241.0,-81.0,4.0,-985.0,-58.0
-6.0,-255.0,-5.0,-88.0,235.0,-73.0,1.0,-985.0,-53.0
-9.0,-253.0,0.0,-83.0,224.0,-65.0,6.0,-987.0,-39.0
-13.0,-256.0,1.0,-75.0,211.0,-58.0,-2.0,-994.0,-31.0
-13.0,-256.0,0.0,-68.0,190.0,-51.0,-18.0,-992.0,-23.0
-13.0,-258.0,3.0,-64.0,166.0,-42.0,-23.0,-1002.0,-19.0
-14.0,-259.0,0.0,-59.0,143.0,-35.0,-31.0,-999.0,-18.0
-17.0,-256.0,6.0,-55.0,121.0,-28.0,-32.0,-1000.0,-14.0
-17.0,-257.0,4.0,-48.0,104.0,-22.0,-38.0,-996.0,-13.0
-19.0,-254.0,4.0,-41.0,90.0,-17.0,-36.0,-984.0,-7.0
-22.0,-253.0,4.0,-35.0,81.0,-11.0,-38.0,-974.0,-6.0
-19.0,-249.0,-4.0,-32.0,71.0,-7.0,-47.0,-973.0,-17.0
-19.0,-250.0,2.0,-33.0,63.0,-3.0,-49.0,-968.0,-18.0
-21.0,-252.0,5.0,-39.0,58.0,1.0,-51.0,-955.0,-21.0
-20.0,-247.0,1.0,-50.0,57.0,1.0,-47.0,-954.0,-26.0
-18.0,-247.0,-1.0,-60.0,56.0,0.0,-44.0,-949.0,-34.0
-18.0,-247.0,-2.0,-73.0,56.0,-3.0,-36.0,-949.0,-42.0
-16.0,-247.0,-6.0,-86.0,58.0,-7.0,-26.0,-957.0,-49.0
-11.0,-248.0,-8.0,-102.0,60.0,-12.0,-20.0,-952.0,-57.0
-9.0,-250.0,-5.0,-117.0,60.0,-21.0,-8.0,-958.0,-61.0
-6.0,-251.0,-5.0,-129.0,64.0,-28.0,-1.0,-965.0,-55.0
-5.0,-253.0,-6.0,-137.0,67.0,-37.0,8.0,-962.0,-58.0
0.0,-253.0,-7.0,-138.0,70.0,-43.0,13.0,-967.0,-56.0
-1.0,-251.0,-6.0,-135.0,74.0,-50.0,18.0,-969.0,-52.0
-4.0,-253.0,-1.0,-125.0,77.0,-53.0,18.0,-963.0,-44.0
-4.0,-252.0,-4.0,-112.0,77.0,-57.0,21.0,-973.0,-43.0
-4.0,-252.0,-4.0,-100.0,78.0,-59.0,17.0,-980.0,-50.0
0.0,-253.0,-3.0,-89.0,81.0,-60.0,22.0,-977.0,-44.0
0.0,-255.0,-10.0,-81.0,85.0,-59.0,28.0,-982.0,-48.0
0.0,-254.0,-5.0,-75.0,91.0,-61.0,26.0,-984.0,-50.0
2.0,-256.0,-7.0,-73.0,98.0,-59.0,37.0,-986.0,-47.0
0.0,-259.0,0.0,-73.0,106.0,-55.0,29.0,-992.0,-40.0
2.0,-258.0,-1.0,-74.0,112.0,-50.0,35.0,-1001.0,-40.0
0.0,-259.0,3.0,-77.0,118.0,-46.0,33.0,-1002.0,-39.0
-1.0,-257.0,-2.0,-81.0,123.0,-41.0,34.0,-1001.0,-48.0
0.0,-260.0,-13.0,-82.0,126.0,-37.0,31.0,-1003.0,-66.0
0.0,-260.0,-12.0,-82.0,126.0,-35.0,31.0,-1003.0,-86.0
0.0,-256.0,-16.0,-83.0,127.0,-33.0,35.0,-987.0,-89.0
0.0,-252.0,-17.0,-84.0,127.0,-34.0,35.0,-983.0,-92.0
2.0,-251.0,-18.0,-83.0,129.0,-35.0,37.0,-969.0,-93.0
2.0,-252.0,-14.0,-83.0,129.0,-36.0,37.0,-965.0,-96.0
1.0,-250.0,-15.0,-87.0,126.0,-38.0,37.0,-959.0,-92.0
1.0,-248.0,-14.0,-93.0,121.0,-39.0,36.0,-958.0,-86.0
0.0,-247.0,-11.0,-101.0,117.0,-40.0,39.0,-962.0,-80.0
2.0,-251.0,-9.0,-107.0,110.0,-40.0,43.0,-969.0,-68.0
-1.0,-254.0,-7.0,-106.0,107.0,-40.0,36.0,-978.0,-60.0
0.0,-260.0,-5.0,-100.0,103.0,-39.0,32.0,-988.0,-53.0
-4.0,-258.0,-7.0,-89.0,97.0,-39.0,24.0,-1010.0,-55.0
-5.0,-263.0,-5.0,-76.0,93.0,-40.0,20.0,-1024.0,-62.0
-5.0,-266.0,-6.0,-60.0,89.0,-42.0,12.0,-1029.0,-63.0
-5.0,-269.0,-7.0,-45.0,83.0,-45.0,2.0,-1038.0,-69.0
-7.0,-270.0,-7.0,-32.0,78.0,-47.0,4.0,-1035.0,-72.0
-10.0,-268.0,-12.0,-18.0,74.0,-48.0,-8.0,-1037.0,-71.0
-11.0,-268.0,-11.0,-5.0,72.0,-47.0,-10.0,-1039.0,-73.0
-10.0,-267.0,-12.0,6.0,69.0,-48.0,-16.0,-1030.0,-81.0
-13.0,-265.0,-2.0,17.0,65.0,-47.0,-21.0,-1030.0,-81.0
-10.0,-266.0,-11.0,28.0,63.0,-48.0,-24.0,-1024.0,-78.0
-10.0,-261.0,-14.0,36.0,61.0,-47.0,-18.0,-1015.0,-82.0
-8.0,-259.0,-11.0,40.0,58.0,-46.0,-6.0,-1015.0,-73.0
-7.0,-262.0,-8.0,42.0,56.0,-46.0,1.0,-1009.0,-81.0
-5.0,-258.0,-14.0,41.0,53.0,-43.0,7.0,-999.0,-81.0
-6.0,-256.0,-10.0,38.0,54.0,-41.0,9.0,-995.0,-75.0
-4.0,-256.0,-12.0,33.0,53.0,-40.0,19.0,-997.0,-82.0
0.0,-255.0,-14.0,27.0,53.0,-38.0,29.0,-986.0,-74.0
1.0,-258.0,-4.0,24.0,54.0,-36.0,36.0,-983.0,-81.0
1.0,-254.0,-13.0,19.0,54.0,-36.0,39.0,-992.0,-81.0
5.0,-257.0,-9.0,18.0,56.0,-35.0,48.0,-994.0,-81.0
6.0,-260.0,-9.0,22.0,52.0,-34.0,52.0,-1003.0,-69.0
7.0,-257.0,-11.0,27.0,50.0,-32.0,52.0,-1006.0,-62.0
5.0,-261.0,-8.0,34.0,44.0,-31.0,54.0,-1005.0,-63.0
3.0,-259.0,-6.0,42.0,39.0,-26.0,55.0,-1009.0,-56.0
3.0,-260.0,-2.0,48.0,35.0,-23.0,54.0,-1009.0,-55.0
6.0,-258.0,-5.0,54.0,34.0,-18.0,54.0,-1008.0,-56.0
6.0,-259.0,-5.0,60.0,35.0,-13.0,56.0,-1007.0,-56.0
4.0,-257.0,-7.0,63.0,37.0,-9.0,55.0,-1007.0,-58.0
3.0,-259.0,-7.0,64.0,37.0,-5.0,52.0,-1002.0,-62.0
9.0,-257.0,-8.0,66.0,38.0,0.0,52.0,-999.0,-65.0
4.0,-259.0,-11.0,68.0,38.0,4.0,51.0,-999.0,-68.0
3.0,-258.0,-10.0,69.0,39.0,6.0,50.0,-992.0,-68.0
4.0,-256.0,-14.0,68.0,39.0,8.0,45.0,-987.0,-73.0
1.0,-256.0,-8.0,65.0,43.0,9.0,41.0,-1003.0,-76.0
2.0,-257.0,-11.0,64.0,47.0,8.0,37.0,-1000.0,-73.0
1.0,-256.0,-9.0,61.0,55.0,9.0,39.0,-988.0,-73.0
0.0,-257.0,-10.0,60.0,63.0,8.0,28.0,-993.0,-72.0
0.0,-258.0,-10.0,59.0,74.0,6.0,32.0,-994.0,-74.0
0.0,-258.0,-11.0,61.0,80.0,5.0,30.0,-996.0,-74.0
0.0,-256.0,-10.0,63.0,88.0,3.0,20.0,-997.0,-71.0
0.0,-257.0,-6.0,67.0,94.0,1.0,23.0,-995.0,-70.0
-3.0,-255.0,-12.0,68.0,100.0,-2.0,24.0,-984.0,-68.0
-1.0,-254.0,-11.0,70.0,107.0,-8.0,14.0,-998.0,-70.0
-3.0,-255.0,-6.0,71.0,110.0,-15.0,19.0,-990.0,-67.0
-1.0,-253.0,-6.0,71.0,115.0,-20.0,17.0,-975.0,-71.0
-3.0,-255.0,-11.0,71.0,120.0,-26.0,16.0,-976.0,-68.0
-1.0,-253.0,-7.0,70.0,120.0,-33.0,10.0,-979.0,-68.0
-1.0,-251.0,-9.0,67.0,117.0,-39.0,12.0,-974.0,-66.0
-7.0,-249.0,-10.0,61.0,116.0,-43.0,14.0,-975.0,-72.0
-7.0,-251.0,-8.0,52.0,111.0,-47.0,7.0,-969.0,-69.0
-5.0,-250.0,-8.0,43.0,105.0,-48.0,4.0,-968.0,-65.0
-6.0,-251.0,-13.0,30.0,99.0,-47.0,6.0,-975.0,-68.0
-4.0,-253.0,-8.0,18.0,92.0,-45.0,7.0,-980.0,-66.0
-5.0,-254.0,-9.0,5.0,86.0,-40.0,2.0,-979.0,-72.0
-7.0,-255.0,-10.0,-4.0,79.0,-37.0,5.0,-990.0,-74.0
-4.0,-256.0,-10.0,-8.0,72.0,-33.0,4.0,-1005.0,-72.0
-4.0,-260.0,-11.0,-7.0,65.0,-30.0,11.0,-996.0,-69.0
-3.0,-260.0,-9.0,0.0,59.0,-28.0,12.0,-1007.0,-70.0
-2.0,-260.0,-9.0,8.0,54.0,-25.0,15.0,-1008.0,-71.0
-3.0,-259.0,-12.0,17.0,49.0,-23.0,14.0,-1004.0,-72.0
-2.0,-259.0,-6.0,25.0,45.0,-21.0,14.0,-1011.0,-70.0
-3.0,-259.0,-13.0,30.0,42.0,-19.0,19.0,-1004.0,-69.0
-1.0,-257.0,-9.0,34.0,40.0,-14.0,19.0,-1004.0,-64.0
0.0,-258.0,-9.0,36.0,40.0,-12.0,20.0,-1006.0,-75.0
0.0,-257.0,-8.0,37.0,41.0,-10.0,21.0,-994.0,-71.0
-3.0,-256.0,-10.0,36.0,40.0,-10.0,20.0,-992.0,-70.0
-5.0,-254.0,-12.0,33.0,39.0,-7.0,11.0,-985.0,-70.0
-6.0,-255.0,-7.0,30.0,35.0,-6.0,10.0,-983.0,-68.0
-3.0,-259.0,-10.0,27.0,32.0,-7.0,11.0,-987.0,-69.0
-5.0,-257.0,-8.0,24.0,29.0,-7.0,12.0,-988.0,-67.0
-3.0,-257.0,-8.0,23.0,24.0,-7.0,9.0,-996.0,-66.0
-4.0,-259.0,-10.0,23.0,21.0,-8.0,7.0,-992.0,-67.0
-6.0,-258.0,-11.0,21.0,18.0,-9.0,14.0,-997.0,-64.0
-4.0,-256.0,-10.0,22.0,18.0,-13.0,15.0,-1002.0,-59.0
0.0,-257.0,-5.0,22.0,16.0,-14.0,21.0,-1004.0,-57.0
0.0,-259.0,-3.0,23.0,16.0,-16.0,22.0,-1003.0,-47.0
-2.0,-257.0,-2.0,22.0,18.0,-19.0,19.0,-997.0,-43.0
0.0,-258.0,-1.0,24.0,21.0,-21.0,20.0,-998.0,-37.0
0.0,-259.0,-5.0,27.0,20.0,-21.0,20.0,-1003.0,-55.0
-4.0,-258.0,-4.0,35.0,17.0,-20.0,22.0,-1008.0,-56.0
0.0,-259.0,-2.0,42.0,17.0,-19.0,24.0,-1004.0,-53.0
0.0,-258.0,-6.0,51.0,21.0,-19.0,23.0,-1002.0,-58.0
-3.0,-253.0,-2.0,58.0,25.0,-19.0,24.0,-977.0,-51.0
0.0,-253.0,-4.0,63.0,26.0,-17.0,21.0,-977.0,-58.0
-3.0,-251.0,-6.0,63.0,24.0,-14.0,29.0,-974.0,-54.0
-3.0,-249.0,-7.0,56.0,22.0,-12.0,29.0,-976.0,-54.0
1.0,-253.0,-4.0,49.0,22.0,-11.0,32.0,-973.0,-50.0
-1.0,-255.0,-2.0,41.0,21.0,-9.0,28.0,-981.0,-52.0
1.0,-258.0,-3.0,34.0,21.0,-7.0,28.0,-983.0,-48.0
0.0,-256.0,-4.0,27.0,24.0,-6.0,33.0,-995.0,-40.0
0.0,-253.0,0.0,24.0,28.0,-4.0,26.0,-1001.0,-47.0
2.0,-261.0,3.0,23.0,31.0,-3.0,28.0,-1010.0,-45.0
-2.0,-258.0,3.0,27.0,35.0,-3.0,31.0,-1006.0,-36.0
0.0,-259.0,-3.0,31.0,36.0,-1.0,21.0,-1003.0,-43.0
-1.0,-258.0,-3.0,38.0,36.0,-1.0,22.0,-1006.0,-38.0
-2.0,-259.0,0.0,41.0,35.0,1.0,21.0,-995.0,-43.0
-2.0,-257.0,-3.0,41.0,35.0,0.0,21.0,-1002.0,-45.0
-2.0,-254.0,-3.0,41.0,36.0,1.0,20.0,-987.0,-46.0
0.0,-253.0,-6.0,39.0,39.0,-1.0,20.0,-986.0,-46.0
-2.0,-253.0,-2.0,36.0,43.0,-5.0,22.0,-992.0,-46.0
0.0,-252.0,-6.0,32.0,48.0,-6.0,25.0,-980.0,-45.0
1.0,-252.0,-2.0,27.0,55.0,-9.0,22.0,-977.0,-48.0
-1.0,-252.0,-4.0,19.0,62.0,-12.0,22.0,-974.0,-48.0
-4.0,-250.0,-4.0,11.0,69.0,-17.0,20.0,-974.0,-51.0
0.0,-251.0,-1.0,5.0,77.0,-23.0,29.0,-974.0,-41.0
1.0,-255.0,-1.0,-2.0,83.0,-26.0,28.0,-976.0,-36.0
-2.0,-252.0,2.0,-7.0,88.0,-30.0,30.0,-980.0,-34.0
0.0,-255.0,-3.0,-8.0,92.0,-33.0,30.0,-987.0,-32.0
2.0,-253.0,3.0,-11.0,96.0,-37.0,30.0,-994.0,-24.0
0.0,-257.0,-6.0,-12.0,104.0,-39.0,38.0,-1001.0,-29.0
-2.0,-257.0,2.0,-13.0,110.0,-41.0,37.0,-994.0,-34.0
0.0,-257.0,1.0,-13.0,116.0,-41.0,37.0,-988.0,-37.0
2.0,-254.0,1.0,-15.0,124.0,-41.0,36.0,-996.0,-43.0
1.0,-255.0,-1.0,-16.0,129.0,-39.0,38.0,-995.0,-36.0
1.0,-255.0,-3.0,-17.0,130.0,-36.0,40.0,-984.0,-39.0
0.0,-252.0,-3.0,-18.0,132.0,-35.0,32.0,-983.0,-41.0
4.0,-254.0,2.0,-22.0,128.0,-32.0,38.0,-979.0,-32.0
0.0,-254.0,0.0,-30.0,124.0,-29.0,34.0,-980.0,-36.0
-1.0,-253.0,-3.0,-46.0,114.0,-24.0,31.0,-989.0,-33.0
0.0,-251.0,-3.0,-63.0,95.0,-16.0,34.0,-983.0,-36.0
0.0,-255.0,-1.0,-88.0,59.0,-8.0,27.0,-993.0,-48.0
-1.0,-256.0,-8.0,-113.0,16.0,1.0,24.0,-992.0,-56.0
-1.0,-253.0,-7.0,-131.0,-18.0,10.0,25.0,-989.0,-64.0
0.0,-258.0,-4.0,-138.0,-49.0,18.0,27.0,-992.0,-65.0
0.0,-256.0,-8.0,-138.0,-60.0,23.0,25.0,-986.0,-67.0
-1.0,-257.0,-9.0,-131.0,-52.0,26.0,16.0,-1001.0,-69.0
-2.0,-255.0,-9.0,-122.0,-28.0,28.0,18.0,-1002.0,-67.0
-2.0,-260.0,-10.0,-112.0,6.0,28.0,15.0,-1009.0,-71.0
-4.0,-258.0,-7.0,-104.0,39.0,26.0,14.0,-1010.0,-68.0
-3.0,-260.0,-10.0,-101.0,74.0,25.0,13.0,-1015.0,-64.0
-3.0,-262.0,-7.0,-98.0,104.0,25.0,4.0,-1014.0,-62.0
-7.0,-261.0,-6.0,-99.0,120.0,25.0,9.0,-1018.0,-64.0
-4.0,-262.0,-9.0,-99.0,130.0,26.0,6.0,-1022.0,-59.0
-6.0,-262.0,-10.0,-97.0,132.0,30.0,9.0,-1025.0,-65.0
-9.0,-261.0,-7.0,-98.0,132.0,33.0,6.0,-1022.0,-67.0
-2.0,-266.0,-9.0,-98.0,133.0,35.0,12.0,-1027.0,-68.0
-2.0,-266.0,-3.0,-98.0,135.0,38.0,11.0,-1028.0,-67.0
0.0,-268.0,-8.0,-93.0,140.0,40.0,14.0,-1026.0,-64.0
-4.0,-263.0,-10.0,-84.0,146.0,39.0,15.0,-1023.0,-65.0
-1.0,-262.0,-6.0,-66.0,149.0,34.0,16.0,-1020.0,-57.0
-6.0,-260.0,-1.0,-48.0,155.0,28.0,12.0,-1016.0,-50.0
0.0,-261.0,-2.0,-27.0,162.0,22.0,22.0,-1011.0,-46.0
-2.0,-262.0,-2.0,-9.0,166.0,14.0,18.0,-1010.0,-49.0
-2.0,-259.0,-2.0,1.0,170.0,7.0,22.0,-1005.0,-44.0
0.0,-256.0,-6.0,4.0,175.0,3.0,31.0,-1003.0,-45.0
3.0,-256.0,-2.0,0.0,183.0,-3.0,30.0,-995.0,-58.0
1.0,-256.0,-9.0,-7.0,191.0,-11.0,38.0,-1000.0,-55.0
3.0,-256.0,-4.0,-16.0,202.0,-12.0,44.0,-996.0,-52.0
4.0,-256.0,0.0,-23.0,216.0,-10.0,47.0,-1009.0,-44.0
1.0,-258.0,2.0,-25.0,230.0,-13.0,42.0,-1004.0,-33.0
0.0,-256.0,2.0,-20.0,236.0,-16.0,35.0,-1004.0,-26.0
1.0,-257.0,5.0,-10.0,238.0,-22.0,37.0,-985.0,-23.0
0.0,-255.0,3.0,-1.0,236.0,-28.0,32.0,-980.0,-24.0
1.0,-254.0,4.0,4.0,239.0,-33.0,33.0,-976.0,-25.0
1.0,-254.0,1.0,3.0,245.0,-37.0,30.0,-974.0,-27.0
1.0,-250.0,-1.0,0.0,256.0,-41.0,28.0,-968.0,-35.0
-2.0,-251.0,1.0,-9.0,270.0,-44.0,23.0,-968.0,-30.0
-4.0,-250.0,1.0,-16.0,285.0,-47.0,24.0,-970.0,-23.0
0.0,-250.0,3.0,-22.0,298.0,-50.0,23.0,-969.0,-20.0
0.0,-253.0,7.0,-25.0,308.0,-56.0,26.0,-970.0,-18.0
0.0,-251.0,9.0,-23.0,318.0,-63.0,32.0,-975.0,-5.0
0.0,-252.0,9.0,-15.0,331.0,-70.0,33.0,-977.0,1.0
2.0,-253.0,13.0,0.0,344.0,-79.0,38.0,-973.0,9.0
0.0,-250.0,13.0,14.0,356.0,-86.0,36.0,-975.0,19.0
2.0,-251.0,14.0,25.0,369.0,-98.0,39.0,-968.0,25.0
0.0,-252.0,19.0,31.0,380.0,-107.0,35.0,-970.0,38.0
0.0,-250.0,17.0,36.0,391.0,-116.0,33.0,-962.0,46.0
-2.0,-249.0,19.0,35.0,399.0,-123.0,30.0,-966.0,45.0
-2.0,-249.0,20.0,33.0,402.0,-127.0,23.0,-953.0,44.0
-1.0,-247.0,14.0,25.0,401.0,-129.0,28.0,-948.0,23.0
0.0,-248.0,13.0,15.0,401.0,-128.0,22.0,-945.0,17.0
-1.0,-245.0,8.0,0.0,404.0,-128.0,27.0,-952.0,2.0
1.0,-247.0,6.0,-17.0,410.0,-129.0,18.0,-942.0,1.0
-1.0,-243.0,7.0,-36.0,417.0,-126.0,16.0,-938.0,-7.0
-1.0,-243.0,6.0,-51.0,423.0,-125.0,19.0,-936.0,-5.0
-2.0,-245.0,7.0,-67.0,425.0,-121.0,15.0,-937.0,-4.0
-1.0,-245.0,6.0,-78.0,425.0,-115.0,15.0,-936.0,1.0
-5.0,-241.0,7.0,-91.0,423.0,-111.0,11.0,-939.0,12.0
-5.0,-243.0,8.0,-104.0,419.0,-108.0,7.0,-936.0,12.0
-8.0,-247.0,10.0,-122.0,416.0,-105.0,4.0,-943.0,12.0
-11.0,-253.0,12.0,-137.0,412.0,-100.0,-2.0,-952.0,13.0
-10.0,-246.0,12.0,-145.0,405.0,-97.0,-6.0,-953.0,16.0
-9.0,-250.0,12.0,-150.0,398.0,-93.0,-8.0,-957.0,19.0
-12.0,-250.0,15.0,-146.0,388.0,-88.0,-18.0,-958.0,22.0
-12.0,-251.0,15.0,-134.0,377.0,-84.0,-21.0,-963.0,16.0
-12.0,-250.0,11.0,-118.0,366.0,-77.0,-23.0,-961.0,21.0
-16.0,-250.0,10.0,-102.0,354.0,-70.0,-28.0,-961.0,12.0
-16.0,-248.0,8.0,-89.0,345.0,-62.0,-31.0,-964.0,0.0
-14.0,-248.0,-3.0,-83.0,333.0,-54.0,-32.0,-958.0,-18.0
-12.0,-248.0,1.0,-87.0,319.0,-45.0,-27.0,-955.0,-33.0
-15.0,-249.0,-7.0,-96.0,303.0,-33.0,-33.0,-956.0,-47.0
-15.0,-250.0,-5.0,-110.0,286.0,-20.0,-32.0,-959.0,-56.0
-17.0,-249.0,-5.0,-121.0,267.0,-8.0,-32.0,-962.0,-64.0
-14.0,-252.0,-7.0,-130.0,251.0,6.0,-20.0,-962.0,-67.0
-12.0,-249.0,-10.0,-132.0,237.0,19.0,-13.0,-970.0,-76.0
-9.0,-250.0,-13.0,-129.0,227.0,31.0,-9.0,-971.0,-83.0
-10.0,-252.0,-16.0,-125.0,222.0,42.0,-3.0,-968.0,-89.0
-11.0,-252.0,-19.0,-122.0,214.0,55.0,-5.0,-974.0,-101.0
-6.0,-251.0,-17.0,-119.0,206.0,69.0,3.0,-965.0,-115.0
-5.0,-250.0,-20.0,-121.0,195.0,81.0,3.0,-957.0,-121.0
-4.0,-248.0,-23.0,-127.0,187.0,92.0,8.0,-944.0,-134.0
-1.0,-244.0,-30.0,-137.0,177.0,102.0,15.0,-938.0,-138.0
2.0,-240.0,-25.0,-147.0,172.0,109.0,18.0,-926.0,-140.0
1.0,-243.0,-22.0,-159.0,167.0,111.0,29.0,-921.0,-135.0
3.0,-244.0,-20.0,-172.0,167.0,113.0,38.0,-922.0,-128.0
5.0,-242.0,-19.0,-182.0,171.0,113.0,48.0,-928.0,-119.0
11.0,-244.0,-20.0,-189.0,177.0,103.0,61.0,-940.0,-116.0
14.0,-248.0,-20.0,-197.0,188.0,95.0,88.0,-947.0,-116.0
19.0,-251.0,-18.0,-210.0,200.0,84.0,97.0,-953.0,-116.0
21.0,-251.0,-18.0,-224.0,209.0,73.0,121.0,-965.0,-114.0
24.0,-254.0,-18.0,-241.0,213.0,59.0,132.0,-981.0,-106.0
31.0,-259.0,-14.0,-254.0,212.0,44.0,145.0,-1005.0,-102.0
32.0,-264.0,-16.0,-262.0,207.0,30.0,154.0,-1019.0,-88.0
31.0,-264.0,-10.0,-264.0,197.0,18.0,151.0,-1025.0,-69.0
28.0,-264.0,-8.0,-258.0,181.0,12.0,147.0,-1034.0,-62.0
29.0,-266.0,-8.0,-250.0,163.0,9.0,145.0,-1037.0,-50.0
28.0,-271.0,-3.0,-240.0,147.0,6.0,146.0,-1040.0,-47.0
24.0,-266.0,-8.0,-231.0,138.0,5.0,133.0,-1036.0,-58.0
20.0,-269.0,-9.0,-224.0,139.0,1.0,114.0,-1031.0,-72.0
14.0,-266.0,-13.0,-231.0,146.0,-2.0,94.0,-1030.0,-88.0
7.0,-262.0,-17.0,-250.0,164.0,-5.0,75.0,-1035.0,-99.0
2.0,-267.0,-16.0,-274.0,187.0,-13.0,47.0,-1038.0,-92.0
1.0,-271.0,-15.0,-292.0,207.0,-21.0,31.0,-1044.0,-85.0
-1.0,-270.0,-5.0,-301.0,223.0,-31.0,19.0,-1050.0,-68.0
-2.0,-273.0,-3.0,-293.0,230.0,-40.0,12.0,-1052.0,-51.0
-3.0,-272.0,4.0,-270.0,229.0,-54.0,14.0,-1051.0,-26.0
-8.0,-274.0,9.0,-231.0,225.0,-67.0,10.0,-1055.0,-6.0
-8.0,-273.0,12.0,-184.0,219.0,-83.0,7.0,-1057.0,12.0
-8.0,-273.0,12.0,-134.0,202.0,-99.0,-3.0,-1053.0,23.0
-9.0,-271.0,15.0,-85.0,182.0,-114.0,-4.0,-1047.0,29.0
-12.0,-270.0,19.0,-45.0,161.0,-130.0,-4.0,-1038.0,33.0
-8.0,-264.0,15.0,-22.0,144.0,-141.0,-3.0,-1036.0,37.0
-10.0,-263.0,15.0,-13.0,132.0,-153.0,-2.0,-1032.0,33.0
-7.0,-260.0,19.0,-19.0,125.0,-159.0,4.0,-1023.0,33.0
-6.0,-260.0,16.0,-32.0,125.0,-162.0,10.0,-1015.0,25.0
-5.0,-258.0,16.0,-54.0,129.0,-166.0,12.0,-1013.0,33.0
-4.0,-256.0,19.0,-77.0,133.0,-169.0,18.0,-1010.0,30.0
0.0,-253.0,15.0,-100.0,140.0,-168.0,23.0,-987.0,34.0
0.0,-253.0,17.0,-119.0,143.0,-168.0,30.0,-975.0,27.0
4.0,-250.0,15.0,-136.0,147.0,-169.0,38.0,-968.0,23.0
3.0,-247.0,10.0,-148.0,150.0,-167.0,49.0,-953.0,25.0
9.0,-246.0,11.0,-159.0,149.0,-168.0,61.0,-945.0,22.0
9.0,-242.0,14.0,-165.0,151.0,-167.0,81.0,-926.0,8.0
17.0,-241.0,5.0,-170.0,152.0,-169.0,96.0,-917.0,-4.0
16.0,-236.0,3.0,-177.0,158.0,-173.0,106.0,-899.0,-12.0
21.0,-219.0,1.0,-185.0,165.0,-175.0,111.0,-885.0,-24.0
24.0,-229.0,-1.0,-194.0,176.0,-181.0,123.0,-872.0,-22.0
26.0,-223.0,0.0,-198.0,186.0,-190.0,130.0,-860.0,-21.0
24.0,-222.0,7.0,-194.0,198.0,-198.0,135.0,-849.0,-13.0
29.0,-217.0,7.0,-179.0,213.0,-208.0,138.0,-840.0,4.0
27.0,-215.0,13.0,-155.0,225.0,-216.0,144.0,-839.0,20.0
30.0,-219.0,17.0,-122.0,240.0,-226.0,138.0,-831.0,37.0
30.0,-212.0,18.0,-85.0,259.0,-231.0,136.0,-831.0,51.0
29.0,-216.0,29.0,-47.0,278.0,-234.0,133.0,-825.0,78.0
25.0,-213.0,32.0,-14.0,297.0,-235.0,130.0,-813.0,92.0
24.0,-212.0,36.0,15.0,311.0,-232.0,126.0,-813.0,105.0
23.0,-208.0,37.0,37.0,321.0,-220.0,121.0,-811.0,110.0
20.0,-209.0,34.0,42.0,326.0,-204.0,118.0,-809.0,102.0
18.0,-208.0,28.0,27.0,323.0,-182.0,110.0,-814.0,78.0
16.0,-212.0,24.0,-4.0,318.0,-155.0,107.0,-820.0,56.0
19.0,-214.0,17.0,-51.0,307.0,-121.0,104.0,-829.0,37.0
17.0,-215.0,17.0,-105.0,294.0,-84.0,102.0,-835.0,23.0
16.0,-214.0,15.0,-155.0,275.0,-43.0,102.0,-839.0,19.0
15.0,-217.0,13.0,-194.0,251.0,-1.0,96.0,-840.0,13.0
12.0,-217.0,11.0,-216.0,226.0,40.0,91.0,-845.0,13.0
12.0,-216.0,15.0,-228.0,208.0,82.0,82.0,-843.0,34.0
9.0,-221.0,21.0,-219.0,196.0,117.0,66.0,-847.0,47.0
6.0,-224.0,23.0,-188.0,187.0,151.0,50.0,-858.0,70.0
1.0,-227.0,30.0,-138.0,181.0,175.0,34.0,-859.0,87.0
-5.0,-226.0,40.0,-72.0,171.0,201.0,15.0,-867.0,105.0
-12.0,-230.0,43.0,3.0,156.0,224.0,-1.0,-875.0,122.0
-15.0,-229.0,44.0,81.0,133.0,247.0,-22.0,-875.0,132.0
-19.0,-229.0,44.0,151.0,101.0,267.0,-34.0,-876.0,132.0
-25.0,-221.0,39.0,206.0,62.0,289.0,-52.0,-861.0,120.0
-28.0,-215.0,39.0,241.0,19.0,311.0,-70.0,-844.0,113.0
-31.0,-207.0,30.0,250.0,-29.0,333.0,-91.0,-825.0,86.0
-34.0,-200.0,27.0,228.0,-74.0,350.0,-98.0,-794.0,54.0
-35.0,-195.0,15.0,173.0,-116.0,364.0,-102.0,-759.0,29.0
-35.0,-189.0,9.0,92.0,-153.0,370.0,-107.0,-744.0,17.0
-34.0,-185.0,8.0,1.0,-182.0,368.0,-116.0,-724.0,1.0
-39.0,-184.0,8.0,-88.0,-208.0,366.0,-126.0,-722.0,4.0
-38.0,-185.0,14.0,-163.0,-232.0,358.0,-128.0,-720.0,14.0
-39.0,-188.0,22.0,-210.0,-250.0,345.0,-140.0,-728.0,34.0
-37.0,-194.0,24.0,-229.0,-263.0,330.0,-131.0,-743.0,56.0
-36.0,-203.0,29.0,-225.0,-268.0,311.0,-109.0,-786.0,87.0
-30.0,-211.0,42.0,-205.0,-265.0,295.0,-89.0,-812.0,117.0
-21.0,-222.0,46.0,-175.0,-256.0,279.0,-68.0,-852.0,161.0
-15.0,-235.0,55.0,-140.0,-248.0,268.0,-19.0,-907.0,182.0
-4.0,-246.0,63.0,-110.0,-242.0,263.0,14.0,-952.0,199.0
-1.0,-252.0,61.0,-86.0,-247.0,260.0,36.0,-994.0,213.0
3.0,-263.0,62.0,-69.0,-256.0,262.0,49.0,-1028.0,207.0
8.0,-270.0,61.0,-67.0,-269.0,270.0,63.0,-1057.0,193.0
8.0,-274.0,51.0,-83.0,-286.0,279.0,73.0,-1077.0,177.0
12.0,-282.0,44.0,-118.0,-303.0,290.0,86.0,-1093.0,146.0
13.0,-288.0,37.0,-170.0,-320.0,300.0,88.0,-1104.0,120.0
13.0,-287.0,31.0,-231.0,-331.0,315.0,84.0,-1114.0,95.0
8.0,-290.0,29.0,-290.0,-335.0,332.0,80.0,-1121.0,81.0
9.0,-297.0,27.0,-342.0,-336.0,350.0,72.0,-1147.0,73.0
10.0,-301.0,25.0,-379.0,-330.0,369.0,62.0,-1157.0,66.0
8.0,-303.0,23.0,-398.0,-315.0,381.0,75.0,-1170.0,63.0
10.0,-304.0,25.0,-405.0,-295.0,389.0,79.0,-1178.0,65.0
20.0,-304.0,18.0,-404.0,-263.0,391.0,97.0,-1175.0,44.0
23.0,-297.0,8.0,-422.0,-222.0,384.0,120.0,-1153.0,10.0
29.0,-288.0,3.0,-478.0,-168.0,372.0,134.0,-1134.0,-31.0
33.0,-277.0,-11.0,-575.0,-105.0,356.0,155.0,-1101.0,-67.0
37.0,-272.0,-19.0,-701.0,-36.0,340.0,163.0,-1078.0,-102.0
39.0,-264.0,-24.0,-852.0,26.0,323.0,176.0,-1052.0,-138.0
40.0,-262.0,-31.0,-1014.0,75.0,306.0,186.0,-1030.0,-161.0
39.0,-265.0,-41.0,-1164.0,103.0,282.0,192.0,-1028.0,-216.0
39.0,-269.0,-60.0,-1257.0,103.0,252.0,187.0,-1044.0,-275.0
33.0,-271.0,-80.0,-1327.0,73.0,221.0,190.0,-1060.0,-334.0
32.0,-281.0,-85.0,-1327.0,8.0,183.0,187.0,-1064.0,-398.0
32.0,-285.0,-99.0,-1242.0,-63.0,134.0,175.0,-1059.0,-441.0
26.0,-278.0,-103.0,-1058.0,-159.0,74.0,153.0,-1017.0,-465.0
27.0,-264.0,-105.0,-782.0,-246.0,24.0,138.0,-958.0,-473.0
22.0,-244.0,-107.0,-445.0,-312.0,-39.0,117.0,-872.0,-463.0
12.0,-207.0,-105.0,-99.0,-360.0,-108.0,88.0,-777.0,-467.0
1.0,-175.0,-100.0,218.0,-402.0,-174.0,53.0,-667.0,-451.0
-3.0,-140.0,-97.0,480.0,-449.0,-221.0,8.0,-538.0,-436.0
-18.0,-114.0,-84.0,678.0,-505.0,-248.0,-37.0,-398.0,-386.0
-30.0,-81.0,-73.0,812.0,-569.0,-260.0,-104.0,-299.0,-332.0
-50.0,-52.0,-60.0,893.0,-635.0,-265.0,-174.0,-191.0,-270.0
-63.0,-27.0,-40.0,931.0,-692.0,-262.0,-233.0,-103.0,-204.0
-71.0,-6.0,-27.0,930.0,-741.0,-249.0,-268.0,-36.0,-149.0
-80.0,9.0,-21.0,890.0,-784.0,-238.0,-312.0,38.0,-110.0
-93.0,24.0,-16.0,816.0,-825.0,-224.0,-347.0,91.0,-87.0
-98.0,39.0,-15.0,725.0,-869.0,-194.0,-364.0,136.0,-83.0
-94.0,42.0,-16.0,619.0,-917.0,-152.0,-361.0,152.0,-97.0
-83.0,39.0,-34.0,492.0,-967.0,-103.0,-333.0,140.0,-141.0
-65.0,20.0,-54.0,327.0,-1021.0,-63.0,-267.0,70.0,-230.0
-45.0,0.0,-83.0,106.0,-1065.0,-51.0,-175.0,-47.0,-365.0
-33.0,-30.0,-105.0,-157.0,-1073.0,-68.0,-122.0,-138.0,-461.0
-21.0,-60.0,-133.0,-424.0,-1042.0,-100.0,-97.0,-231.0,-537.0
-14.0,-84.0,-136.0,-668.0,-962.0,-144.0,-58.0,-333.0,-585.0
-1.0,-109.0,-147.0,-888.0,-831.0,-197.0,-18.0,-424.0,-627.0
15.0,-132.0,-157.0,-1090.0,-645.0,-261.0,36.0,-516.0,-657.0
31.0,-157.0,-154.0,-1271.0,-404.0,-323.0,99.0,-602.0,-664.0
43.0,-184.0,-144.0,-1409.0,-124.0,-377.0,165.0,-700.0,-626.0
60.0,-217.0,-124.0,-1483.0,156.0,-414.0,242.0,-831.0,-536.0
77.0,-267.0,-72.0,-1477.0,378.0,-446.0,296.0,-956.0,-400.0
101.0,-305.0,-27.0,-1382.0,529.0,-481.0,385.0,-1105.0,-214.0
153.0,-346.0,21.0,-1206.0,623.0,-490.0,558.0,-1284.0,30.0
211.0,-381.0,69.0,-976.0,684.0,-463.0,861.0,-1426.0,210.0
241.0,-410.0,97.0,-721.0,745.0,-438.0,995.0,-1537.0,337.0
244.0,-432.0,107.0,-482.0,806.0,-445.0,1018.0,-1625.0,391.0
224.0,-444.0,103.0,-307.0,836.0,-477.0,965.0,-1707.0,369.0
205.0,-473.0,78.0,-210.0,827.0,-516.0,876.0,-1825.0,284.0
178.0,-502.0,31.0,-210.0,785.0,-559.0,770.0,-1963.0,113.0
135.0,-539.0,-28.0,-377.0,738.0,-585.0,607.0,-2127.0,-122.0
82.0,-588.0,-73.0,-746.0,711.0,-567.0,413.0,-2322.0,-300.0
-3.0,-642.0,-70.0,-1207.0,690.0,-535.0,103.0,-2525.0,-330.0
-116.0,-684.0,-56.0,-1584.0,641.0,-474.0,-315.0,-2682.0,-267.0
-201.0,-712.0,-39.0,-1737.0,564.0,-334.0,-669.0,-2775.0,-206.0
-251.0,-727.0,-39.0,-1605.0,512.0,-145.0,-966.0,-2803.0,-196.0
-305.0,-726.0,-36.0,-1196.0,518.0,23.0,-1150.0,-2756.0,-201.0
-328.0,-704.0,-31.0,-713.0,561.0,148.0,-1243.0,-2645.0,-187.0
-325.0,-658.0,-18.0,7.0,579.0,247.0,-1223.0,-2484.0,-111.0
-306.0,-599.0,13.0,746.0,549.0,320.0,-1133.0,-2264.0,12.0
-272.0,-534.0,55.0,1402.0,452.0,366.0,-1015.0,-2025.0,167.0
-237.0,-462.0,94.0,1938.0,307.0,378.0,-877.0,-1770.0,322.0
-197.0,-393.0,115.0,2330.0,132.0,361.0,-711.0,-1524.0,427.0
-151.0,-320.0,122.0,2535.0,-50.0,319.0,-549.0,-1279.0,466.0
-92.0,-248.0,106.0,2507.0,-210.0,287.0,-370.0,-1080.0,430.0
-52.0,-206.0,85.0,2228.0,-343.0,265.0,-206.0,-894.0,303.0
-27.0,-183.0,48.0,1708.0,-455.0,250.0,-73.0,-814.0,186.0
-6.0,-181.0,26.0,1026.0,-550.0,232.0,-3.0,-802.0,94.0
8.0,-204.0,23.0,298.0,-607.0,195.0,51.0,-864.0,51.0
19.0,-237.0,25.0,-353.0,-609.0,156.0,111.0,-955.0,54.0
28.0,-275.0,26.0,-833.0,-580.0,121.0,139.0,-1079.0,62.0
35.0,-312.0,15.0,-1098.0,-547.0,79.0,158.0,-1183.0,34.0
40.0,-336.0,-2.0,-1158.0,-514.0,24.0,170.0,-1269.0,-27.0
44.0,-348.0,-29.0,-1055.0,-460.0,-40.0,190.0,-1298.0,-142.0
50.0,-338.0,-70.0,-856.0,-370.0,-96.0,214.0,-1282.0,-303.0
56.0,-318.0,-115.0,-629.0,-238.0,-133.0,229.0,-1206.0,-481.0
50.0,-280.0,-171.0,-410.0,-79.0,-143.0,242.0,-1084.0,-694.0
63.0,-243.0,-186.0,-216.0,91.0,-135.0,248.0,-884.0,-801.0
66.0,-203.0,-197.0,-31.0,276.0,-103.0,260.0,-728.0,-848.0
78.0,-171.0,-204.0,164.0,470.0,-68.0,297.0,-593.0,-871.0
82.0,-133.0,-203.0,358.0,667.0,-49.0,328.0,-461.0,-864.0
101.0,-102.0,-191.0,530.0,862.0,-50.0,380.0,-346.0,-829.0
113.0,-75.0,-176.0,673.0,1043.0,-70.0,423.0,-240.0,-766.0
117.0,-45.0,-154.0,778.0,1200.0,-97.0,445.0,-133.0,-678.0
117.0,-12.0,-131.0,844.0,1325.0,-122.0,443.0,-17.0,-574.0
113.0,17.0,-107.0,881.0,1417.0,-137.0,433.0,83.0,-475.0
102.0,39.0,-82.0,883.0,1481.0,-137.0,397.0,177.0,-378.0
92.0,65.0,-56.0,858.0,1516.0,-127.0,366.0,253.0,-265.0
86.0,76.0,-38.0,802.0,1525.0,-96.0,343.0,300.0,-204.0
84.0,82.0,-31.0,717.0,1522.0,-73.0,332.0,318.0,-171.0
73.0,85.0,-29.0,608.0,1517.0,-60.0,300.0,332.0,-137.0
67.0,83.0,-20.0,476.0,1515.0,-34.0,280.0,329.0,-124.0
58.0,79.0,-14.0,335.0,1510.0,8.0,238.0,319.0,-86.0
50.0,66.0,-11.0,199.0,1489.0,70.0,215.0,267.0,-71.0
37.0,54.0,-10.0,65.0,1447.0,120.0,170.0,205.0,-66.0
23.0,41.0,-14.0,-48.0,1386.0,145.0,111.0,179.0,-75.0
13.0,35.0,-21.0,-126.0,1310.0,173.0,71.0,163.0,-103.0
1.0,40.0,-37.0,-173.0,1214.0,195.0,37.0,154.0,-169.0
-2.0,47.0,-52.0,-213.0,1115.0,206.0,4.0,155.0,-261.0
-12.0,41.0,-77.0,-248.0,1023.0,203.0,-40.0,170.0,-333.0
-11.0,33.0,-93.0,-287.0,961.0,187.0,-47.0,139.0,-410.0
-13.0,25.0,-109.0,-342.0,941.0,156.0,-66.0,100.0,-473.0
-15.0,10.0,-121.0,-416.0,956.0,110.0,-67.0,38.0,-521.0
-21.0,-14.0,-131.0,-497.0,990.0,55.0,-76.0,-50.0,-560.0
-20.0,-49.0,-141.0,-558.0,1024.0,-8.0,-82.0,-186.0,-590.0
-23.0,-91.0,-130.0,-620.0,1040.0,-85.0,-75.0,-339.0,-571.0
-30.0,-140.0,-108.0,-651.0,1025.0,-162.0,-79.0,-526.0,-476.0
-45.0,-193.0,-72.0,-650.0,936.0,-234.0,-105.0,-732.0,-330.0
-61.0,-249.0,-36.0,-623.0,745.0,-292.0,-171.0,-942.0,-198.0
-81.0,-308.0,-26.0,-606.0,462.0,-319.0,-233.0,-1187.0,-141.0
-112.0,-390.0,-17.0,-626.0,146.0,-333.0,-364.0,-1506.0,-109.0
-145.0,-459.0,5.0,-676.0,-123.0,-321.0,-496.0,-1778.0,-21.0
-208.0,-533.0,46.0,-745.0,-299.0,-294.0,-732.0,-2071.0,106.0
-303.0,-596.0,82.0,-791.0,-399.0,-263.0,-1075.0,-2310.0,266.0
-377.0,-666.0,111.0,-792.0,-500.0,-223.0,-1384.0,-2599.0,378.0
-346.0,-741.0,123.0,-804.0,-655.0,-46.0,-1296.0,-2901.0,455.0
-250.0,-815.0,95.0,-860.0,-891.0,244.0,-919.0,-3208.0,362.0
-146.0,-899.0,35.0,-1009.0,-1182.0,516.0,-530.0,-3530.0,126.0
-66.0,-966.0,6.0,-1244.0,-1451.0,708.0,-215.0,-3761.0,0.0
25.0,-1017.0,-6.0,-1395.0,-1581.0,835.0,120.0,-3920.0,-64.0
106.0,-1018.0,-10.0,-1324.0,-1551.0,840.0,422.0,-3945.0,-73.0
140.0,-975.0,-6.0,-954.0,-1396.0,652.0,586.0,-3667.0,-74.0
160.0,-896.0,-16.0,-299.0,-1150.0,393.0,673.0,-3360.0,-114.0
194.0,-808.0,-19.0,480.0,-846.0,204.0,800.0,-3026.0,-126.0
221.0,-707.0,-13.0,1223.0,-534.0,99.0,891.0,-2658.0,-99.0
237.0,-594.0,6.0,1848.0,-222.0,38.0,947.0,-2234.0,-28.0
247.0,-469.0,27.0,2317.0,90.0,-2.0,981.0,-1771.0,60.0
236.0,-344.0,43.0,2639.0,380.0,-48.0,950.0,-1311.0,121.0
220.0,-225.0,39.0,2805.0,610.0,-87.0,889.0,-888.0,117.0
195.0,-115.0,17.0,2771.0,735.0,-117.0,793.0,-497.0,64.0
164.0,-22.0,2.0,2520.0,753.0,-128.0,675.0,-151.0,-1.0
135.0,39.0,-22.0,2104.0,704.0,-116.0,557.0,98.0,-140.0
116.0,74.0,-59.0,1604.0,639.0,-99.0,446.0,263.0,-268.0
95.0,82.0,-91.0,1103.0,588.0,-102.0,379.0,290.0,-393.0
79.0,61.0,-123.0,642.0,563.0,-132.0,308.0,224.0,-512.0
45.0,28.0,-142.0,218.0,564.0,-157.0,198.0,88.0,-585.0
6.0,-10.0,-138.0,-171.0,564.0,-126.0,65.0,-51.0,-595.0
-23.0,-48.0,-123.0,-483.0,534.0,-45.0,-56.0,-164.0,-550.0
-62.0,-72.0,-98.0,-670.0,456.0,50.0,-190.0,-261.0,-456.0
-94.0,-101.0,-73.0,-713.0,341.0,127.0,-321.0,-345.0,-357.0
-134.0,-116.0,-57.0,-630.0,219.0,186.0,-478.0,-399.0,-289.0
-171.0,-117.0,-47.0,-462.0,111.0,237.0,-630.0,-419.0,-244.0
-214.0,-109.0,-42.0,-233.0,7.0,293.0,-789.0,-389.0,-202.0
-239.0,-93.0,-42.0,29.0,-113.0,357.0,-915.0,-340.0,-184.0
-258.0,-77.0,-33.0,281.0,-265.0,419.0,-976.0,-287.0,-170.0
-261.0,-54.0,-27.0,504.0,-463.0,479.0,-981.0,-198.0,-157.0
-244.0,-38.0,-26.0,685.0,-712.0,533.0,-911.0,-125.0,-158.0
-215.0,-11.0,-33.0,816.0,-996.0,555.0,-816.0,-39.0,-179.0
-182.0,11.0,-55.0,879.0,-1275.0,547.0,-680.0,46.0,-246.0
-140.0,36.0,-76.0,859.0,-1516.0,506.0,-541.0,148.0,-337.0
-97.0,65.0,-97.0,766.0,-1694.0,435.0,-379.0,239.0,-428.0
-56.0,94.0,-110.0,619.0,-1788.0,340.0,-227.0,343.0,-486.0
-4.0,120.0,-123.0,468.0,-1806.0,220.0,-48.0,453.0,-531.0
33.0,140.0,-142.0,338.0,-1763.0,83.0,118.0,553.0,-611.0
73.0,151.0,-167.0,252.0,-1696.0,-53.0,289.0,602.0,-722.0
115.0,153.0,-189.0,143.0,-1597.0,-172.0,403.0,601.0,-803.0
143.0,134.0,-202.0,-5.0,-1498.0,-273.0,526.0,529.0,-852.0
133.0,92.0,-199.0,-224.0,-1369.0,-383.0,492.0,378.0,-860.0
123.0,49.0,-185.0,-529.0,-1201.0,-445.0,446.0,195.0,-804.0
121.0,-13.0,-142.0,-845.0,-1008.0,-501.0,437.0,-2.0,-648.0
117.0,-74.0,-89.0,-1048.0,-803.0,-550.0,441.0,-226.0,-448.0
114.0,-137.0,-40.0,-1099.0,-587.0,-583.0,434.0,-461.0,-238.0
104.0,-205.0,-12.0,-1032.0,-351.0,-581.0,421.0,-701.0,-89.0
108.0,-261.0,9.0,-902.0,-80.0,-540.0,414.0,-944.0,8.0
92.0,-319.0,23.0,-767.0,188.0,-473.0,388.0,-1174.0,54.0
79.0,-375.0,27.0,-681.0,383.0,-381.0,348.0,-1465.0,89.0
68.0,-433.0,59.0,-681.0,464.0,-271.0,329.0,-1688.0,188.0
93.0,-496.0,98.0,-743.0,436.0,-142.0,438.0,-1934.0,339.0
149.0,-569.0,121.0,-799.0,326.0,-6.0,654.0,-2189.0,451.0
208.0,-645.0,155.0,-755.0,221.0,137.0,899.0,-2477.0,559.0
247.0,-718.0,107.0,-626.0,163.0,229.0,1027.0,-2801.0,413.0
203.0,-774.0,9.0,-717.0,188.0,191.0,863.0,-3079.0,44.0
43.0,-904.0,-53.0,-1167.0,279.0,-26.0,291.0,-3596.0,-235.0
-138.0,-1024.0,-38.0,-1882.0,322.0,-291.0,-416.0,-4070.0,-194.0
-269.0,-1104.0,-22.0,-2497.0,301.0,-452.0,-925.0,-4343.0,-138.0
-344.0,-1145.0,-18.0,-2723.0,279.0,-460.0,-1236.0,-4457.0,-136.0
-334.0,-1098.0,-31.0,-2400.0,303.0,-367.0,-1235.0,-4094.0,-210.0
-324.0,-981.0,-65.0,-1467.0,407.0,-336.0,-1225.0,-3580.0,-323.0
-314.0,-828.0,-45.0,-161.0,547.0,-304.0,-1178.0,-3103.0,-275.0
-295.0,-706.0,19.0,1233.0,597.0,-229.0,-1095.0,-2659.0,-46.0
-274.0,-585.0,63.0,2529.0,476.0,-154.0,-998.0,-2231.0,179.0
-238.0,-456.0,70.0,3577.0,238.0,-70.0,-878.0,-1811.0,266.0
-184.0,-331.0,45.0,4208.0,-29.0,27.0,-699.0,-1404.0,199.0
-131.0,-203.0,5.0,4287.0,-278.0,99.0,-510.0,-977.0,38.0
-83.0,-83.0,-27.0,3817.0,-511.0,156.0,-322.0,-543.0,-102.0
-39.0,17.0,-55.0,2980.0,-732.0,231.0,-147.0,-138.0,-222.0
-1.0,84.0,-83.0,2013.0,-858.0,322.0,-27.0,174.0,-335.0
19.0,119.0,-89.0,1067.0,-820.0,417.0,43.0,374.0,-381.0
33.0,109.0,-104.0,263.0,-629.0,500.0,98.0,353.0,-429.0
51.0,41.0,-116.0,-378.0,-376.0,549.0,167.0,124.0,-497.0
63.0,-20.0,-116.0,-883.0,-147.0,531.0,243.0,-93.0,-492.0
79.0,-69.0,-97.0,-1193.0,23.0,435.0,305.0,-242.0,-437.0
101.0,-99.0,-77.0,-1282.0,140.0,301.0,391.0,-325.0,-357.0
121.0,-114.0,-57.0,-1178.0,212.0,163.0,478.0,-365.0,-278.0
143.0,-116.0,-44.0,-941.0,258.0,48.0,563.0,-370.0,-229.0
169.0,-110.0,-39.0,-637.0,306.0,-42.0,657.0,-354.0,-193.0
193.0,-105.0,-30.0,-322.0,372.0,-110.0,763.0,-332.0,-177.0
216.0,-96.0,-33.0,-8.0,462.0,-172.0,847.0,-291.0,-170.0
225.0,-76.0,-33.0,278.0,593.0,-229.0,875.0,-223.0,-179.0
218.0,-63.0,-42.0,528.0,770.0,-281.0,834.0,-180.0,-214.0
204.0,-49.0,-60.0,731.0,990.0,-331.0,762.0,-126.0,-265.0
171.0,-23.0,-76.0,875.0,1226.0,-372.0,673.0,-58.0,-326.0
145.0,-2.0,-87.0,949.0,1433.0,-402.0,574.0,-1.0,-384.0
122.0,19.0,-85.0,956.0,1564.0,-419.0,487.0,79.0,-384.0
86.0,43.0,-82.0,923.0,1597.0,-430.0,383.0,171.0,-359.0
54.0,67.0,-71.0,858.0,1551.0,-417.0,277.0,256.0,-312.0
21.0,89.0,-70.0,778.0,1419.0,-385.0,145.0,330.0,-300.0
-10.0,103.0,-65.0,678.0,1229.0,-341.0,28.0,388.0,-302.0
-37.0,104.0,-74.0,548.0,999.0,-258.0,-92.0,401.0,-347.0
-45.0,88.0,-98.0,387.0,766.0,-157.0,-149.0,325.0,-414.0
-23.0,52.0,-104.0,152.0,580.0,-57.0,-72.0,174.0,-458.0
-12.0,17.0,-107.0,-146.0,451.0,-9.0,-30.0,42.0,-458.0
-13.0,-21.0,-103.0,-443.0,365.0,-6.0,-38.0,-93.0,-445.0
-17.0,-64.0,-85.0,-695.0,312.0,-18.0,-51.0,-247.0,-379.0
-31.0,-114.0,-67.0,-881.0,265.0,-35.0,-94.0,-434.0,-316.0
-52.0,-158.0,-45.0,-1012.0,194.0,-53.0,-160.0,-622.0,-218.0
-77.0,-214.0,-26.0,-1090.0,103.0,-64.0,-247.0,-825.0,-149.0
-101.0,-265.0,-35.0,-1121.0,1.0,-56.0,-364.0,-1020.0,-154.0
-127.0,-313.0,-41.0,-1128.0,-68.0,-20.0,-463.0,-1203.0,-198.0
-151.0,-361.0,-42.0,-1117.0,-71.0,35.0,-556.0,-1393.0,-201.0
-192.0,-415.0,-18.0,-1086.0,-27.0,95.0,-746.0,-1627.0,-91.0
-272.0,-467.0,19.0,-1002.0,3.0,150.0,-1075.0,-1856.0,54.0
-367.0,-532.0,57.0,-903.0,-26.0,234.0,-1392.0,-2142.0,192.0
-428.0,-617.0,87.0,-909.0,-169.0,421.0,-1570.0,-2541.0,307.0
-357.0,-780.0,110.0,-1087.0,-503.0,780.0,-1321.0,-3060.0,396.0
-229.0,-924.0,122.0,-1399.0,-983.0,1205.0,-857.0,-3603.0,457.0
-97.0,-1064.0,122.0,-1725.0,-1389.0,1550.0,-363.0,-4113.0,444.0
32.0,-1141.0,103.0,-1905.0,-1544.0,1661.0,121.0,-4410.0,391.0
145.0,-1164.0,35.0,-1751.0,-1475.0,1489.0,555.0,-4485.0,152.0
236.0,-1129.0,-68.0,-1310.0,-1261.0,1069.0,910.0,-4348.0,-221.0
258.0,-1044.0,-130.0,-726.0,-902.0,547.0,1055.0,-4054.0,-584.0
251.0,-942.0,-126.0,-55.0,-456.0,115.0,1015.0,-3528.0,-586.0
255.0,-825.0,-86.0,730.0,-13.0,-131.0,1035.0,-3069.0,-429.0
255.0,-698.0,-45.0,1604.0,382.0,-243.0,1034.0,-2580.0,-248.0
244.0,-560.0,-21.0,2471.0,723.0,-281.0,986.0,-2071.0,-125.0
220.0,-416.0,-5.0,3198.0,995.0,-284.0,901.0,-1559.0,-49.0
191.0,-266.0,16.0,3654.0,1169.0,-297.0,791.0,-1051.0,33.0
154.0,-127.0,22.0,3764.0,1188.0,-339.0,666.0,-555.0,76.0
122.0,-8.0,9.0,3514.0,1047.0,-388.0,527.0,-125.0,25.0
109.0,77.0,-27.0,2981.0,837.0,-427.0,446.0,208.0,-109.0
94.0,135.0,-80.0,2306.0,662.0,-449.0,382.0,411.0,-320.0
89.0,156.0,-126.0,1587.0,582.0,-451.0,344.0,506.0,-550.0
71.0,158.0,-152.0,885.0,581.0,-445.0,260.0,558.0,-646.0
45.0,142.0,-175.0,251.0,611.0,-419.0,156.0,482.0,-746.0
12.0,113.0,-179.0,-330.0,643.0,-352.0,36.0,377.0,-765.0
-20.0,78.0,-165.0,-826.0,653.0,-271.0,-91.0,293.0,-702.0
-68.0,62.0,-139.0,-1166.0,643.0,-208.0,-283.0,236.0,-592.0
-142.0,46.0,-97.0,-1313.0,616.0,-150.0,-499.0,199.0,-453.0
-192.0,33.0,-63.0,-1269.0,559.0,-70.0,-701.0,173.0,-313.0
-227.0,23.0,-31.0,-1124.0,457.0,35.0,-842.0,144.0,-197.0
-245.0,13.0,-8.0,-847.0,301.0,146.0,-915.0,107.0,-90.0
-253.0,11.0,10.0,-515.0,141.0,248.0,-942.0,71.0,-17.0
-241.0,-2.0,16.0,-189.0,-96.0,339.0,-921.0,41.0,34.0
-223.0,-7.0,13.0,88.0,-362.0,401.0,-836.0,-9.0,35.0
-197.0,-10.0,9.0,279.0,-642.0,456.0,-735.0,-42.0,-1.0
-163.0,-15.0,-10.0,361.0,-929.0,481.0,-608.0,-58.0,-57.0
-128.0,-13.0,-25.0,352.0,-1197.0,484.0,-481.0,-54.0,-129.0
-86.0,-12.0,-56.0,279.0,-1407.0,476.0,-327.0,-58.0,-248.0
-38.0,-18.0,-83.0,163.0,-1531.0,454.0,-159.0,-66.0,-351.0
0.0,-26.0,-106.0,30.0,-1557.0,412.0,-17.0,-90.0,-453.0
19.0,-32.0,-117.0,-103.0,-1496.0,344.0,50.0,-107.0,-500.0
28.0,-42.0,-125.0,-218.0,-1371.0,261.0,77.0,-136.0,-544.0
29.0,-46.0,-132.0,-314.0,-1216.0,175.0,93.0,-157.0,-563.0
32.0,-52.0,-135.0,-403.0,-1057.0,97.0,110.0,-185.0,-574.0
38.0,-63.0,-132.0,-488.0,-896.0,34.0,151.0,-242.0,-564.0
53.0,-86.0,-121.0,-568.0,-725.0,-13.0,201.0,-316.0,-517.0
65.0,-107.0,-96.0,-643.0,-557.0,-51.0,261.0,-409.0,-429.0
79.0,-136.0,-77.0,-725.0,-414.0,-95.0,318.0,-529.0,-336.0
92.0,-176.0,-60.0,-815.0,-298.0,-151.0,383.0,-694.0,-278.0
114.0,-221.0,-58.0,-904.0,-205.0,-208.0,429.0,-868.0,-248.0
120.0,-288.0,-54.0,-999.0,-122.0,-261.0,480.0,-1078.0,-254.0
123.0,-348.0,-57.0,-1146.0,-40.0,-306.0,499.0,-1298.0,-267.0
133.0,-421.0,-40.0,-1350.0,38.0,-344.0,531.0,-1569.0,-210.0
153.0,-522.0,3.0,-1582.0,100.0,-398.0,636.0,-1958.0,-79.0
178.0,-636.0,42.0,-1828.0,135.0,-491.0,746.0,-2372.0,109.0
169.0,-748.0,59.0,-2049.0,165.0,-610.0,728.0,-2908.0,195.0
103.0,-829.0,51.0,-2216.0,238.0,-745.0,461.0,-3227.0,178.0
-7.0,-910.0,12.0,-2301.0,363.0,-869.0,53.0,-3537.0,33.0
-125.0,-1000.0,-44.0,-2333.0,476.0,-900.0,-393.0,-3896.0,-206.0
-206.0,-1058.0,-81.0,-2322.0,538.0,-765.0,-705.0,-4117.0,-386.0
-260.0,-1056.0,-111.0,-2153.0,519.0,-564.0,-909.0,-4102.0,-508.0
-259.0,-973.0,-89.0,-1723.0,425.0,-359.0,-921.0,-3716.0,-446.0
-246.0,-862.0,-78.0,-878.0,306.0,-188.0,-880.0,-3252.0,-386.0
-230.0,-753.0,-70.0,269.0,195.0,-18.0,-828.0,-2812.0,-346.0
-199.0,-640.0,-47.0,1486.0,108.0,153.0,-738.0,-2389.0,-269.0
-173.0,-523.0,-20.0,2603.0,36.0,282.0,-632.0,-1979.0,-123.0
-137.0,-408.0,-5.0,3499.0,-21.0,371.0,-487.0,-1489.0,-32.0
-101.0,-294.0,7.0,4063.0,-65.0,429.0,-354.0,-1113.0,25.0
-67.0,-187.0,23.0,4214.0,-86.0,465.0,-237.0,-742.0,63.0
-41.0,-86.0,21.0,3933.0,-93.0,483.0,-135.0,-423.0,91.0
-14.0,-6.0,17.0,3263.0,-102.0,504.0,-28.0,-156.0,69.0
16.0,37.0,-1.0,2337.0,-104.0,515.0,64.0,10.0,-7.0
32.0,56.0,-19.0,1280.0,-73.0,489.0,122.0,87.0,-90.0
36.0,47.0,-37.0,222.0,-1.0,421.0,128.0,85.0,-154.0
37.0,14.0,-30.0,-717.0,112.0,322.0,137.0,26.0,-155.0
39.0,-27.0,-24.0,-1407.0,256.0,222.0,142.0,-74.0,-122.0
43.0,-58.0,-19.0,-1717.0,404.0,137.0,160.0,-178.0,-100.0
48.0,-84.0,-18.0,-1802.0,534.0,69.0,197.0,-271.0,-98.0
56.0,-99.0,-17.0,-1614.0,635.0,22.0,224.0,-289.0,-97.0
70.0,-96.0,-12.0,-1237.0,693.0,-20.0,295.0,-285.0,-95.0
