acc1_x,acc1_y,acc1_z,gyro_x,gyro_y,gyro_z,acc2_x,acc2_y,acc2_z
-2.0,-245.0,79.0,-24.0,69.0,-3.0,32.0,-942.0,258.0
0.0,-244.0,72.0,-22.0,68.0,-2.0,27.0,-943.0,262.0
0.0,-244.0,72.0,-18.0,68.0,-2.0,31.0,-939.0,259.0
1.0,-245.0,74.0,-12.0,68.0,-2.0,30.0,-946.0,260.0
1.0,-246.0,75.0,-4.0,67.0,-2.0,34.0,-935.0,262.0
1.0,-241.0,79.0,2.0,66.0,-2.0,32.0,-936.0,253.0
2.0,-241.0,76.0,6.0,67.0,-3.0,36.0,-934.0,258.0
1.0,-245.0,74.0,9.0,68.0,-2.0,33.0,-936.0,253.0
2.0,-242.0,77.0,12.0,68.0,-1.0,35.0,-930.0,256.0
0.0,-241.0,73.0,11.0,68.0,-3.0,30.0,-927.0,259.0
-1.0,-240.0,68.0,9.0,68.0,-4.0,33.0,-922.0,261.0
0.0,-240.0,74.0,6.0,68.0,-5.0,34.0,-930.0,264.0
1.0,-240.0,75.0,2.0,69.0,-6.0,29.0,-929.0,262.0
1.0,-242.0,76.0,-2.0,71.0,-6.0,23.0,-931.0,267.0
0.0,-241.0,74.0,-7.0,71.0,-4.0,28.0,-932.0,271.0
1.0,-245.0,76.0,-9.0,71.0,-4.0,20.0,-930.0,271.0
0.0,-243.0,78.0,-10.0,71.0,-3.0,26.0,-931.0,270.0
0.0,-246.0,79.0,-9.0,72.0,-3.0,24.0,-941.0,270.0
-4.0,-244.0,77.0,-6.0,72.0,-2.0,22.0,-940.0,267.0
-2.0,-245.0,79.0,-3.0,73.0,-2.0,23.0,-940.0,267.0
0.0,-245.0,76.0,1.0,73.0,1.0,21.0,-940.0,268.0
0.0,-245.0,75.0,4.0,73.0,0.0,23.0,-936.0,265.0
0.0,-246.0,74.0,5.0,75.0,0.0,26.0,-939.0,262.0
0.0,-246.0,73.0,5.0,74.0,1.0,26.0,-937.0,263.0
0.0,-242.0,77.0,5.0,72.0,0.0,29.0,-937.0,264.0
-2.0,-244.0,75.0,3.0,71.0,1.0,33.0,-935.0,258.0
1.0,-243.0,77.0,1.0,73.0,2.0,26.0,-937.0,262.0
1.0,-245.0,75.0,-1.0,74.0,2.0,32.0,-932.0,263.0
0.0,-240.0,75.0,-1.0,74.0,2.0,37.0,-927.0,260.0
1.0,-242.0,72.0,-3.0,75.0,2.0,36.0,-928.0,262.0
1.0,-240.0,73.0,-6.0,74.0,1.0,31.0,-928.0,265.0
1.0,-243.0,74.0,-11.0,74.0,0.0,32.0,-924.0,256.0
0.0,-241.0,74.0,-15.0,70.0,0.0,27.0,-931.0,259.0
-2.0,-242.0,74.0,-19.0,68.0,-2.0,29.0,-925.0,262.0
0.0,-242.0,76.0,-23.0,68.0,-1.0,32.0,-923.0,262.0
-2.0,-242.0,76.0,-23.0,68.0,0.0,28.0,-925.0,264.0
6.0,-242.0,74.0,-24.0,67.0,0.0,30.0,-925.0,269.0
0.0,-240.0,74.0,-24.0,67.0,0.0,31.0,-926.0,272.0
-2.0,-238.0,77.0,-26.0,67.0,0.0,23.0,-925.0,272.0
0.0,-240.0,75.0,-30.0,66.0,2.0,21.0,-929.0,269.0
0.0,-241.0,78.0,-32.0,68.0,3.0,22.0,-921.0,273.0
-6.0,-241.0,82.0,-35.0,71.0,2.0,21.0,-924.0,273.0
0.0,-241.0,78.0,-40.0,71.0,1.0,15.0,-929.0,273.0
-2.0,-244.0,78.0,-43.0,73.0,0.0,19.0,-929.0,274.0
-2.0,-240.0,76.0,-46.0,70.0,0.0,27.0,-927.0,273.0
-1.0,-242.0,74.0,-50.0,72.0,-1.0,20.0,-932.0,274.0
0.0,-243.0,77.0,-52.0,71.0,-1.0,24.0,-926.0,270.0
1.0,-245.0,74.0,-53.0,69.0,-2.0,20.0,-934.0,271.0
0.0,-241.0,75.0,-53.0,69.0,-3.0,29.0,-935.0,272.0
0.0,-242.0,77.0,-52.0,69.0,-3.0,29.0,-928.0,274.0
-2.0,-242.0,78.0,-50.0,69.0,-4.0,30.0,-931.0,276.0
0.0,-242.0,77.0,-49.0,68.0,-4.0,30.0,-930.0,272.0
0.0,-243.0,76.0,-48.0,68.0,-4.0,29.0,-928.0,273.0
1.0,-243.0,77.0,-50.0,66.0,-4.0,26.0,-932.0,274.0
0.0,-239.0,75.0,-51.0,67.0,-4.0,32.0,-931.0,270.0
0.0,-243.0,75.0,-52.0,67.0,-3.0,32.0,-935.0,266.0
0.0,-242.0,77.0,-56.0,66.0,-3.0,33.0,-930.0,264.0
2.0,-241.0,73.0,-60.0,67.0,-3.0,28.0,-936.0,263.0
0.0,-245.0,74.0,-62.0,66.0,-2.0,30.0,-938.0,255.0
-1.0,-240.0,78.0,-62.0,65.0,-2.0,24.0,-939.0,258.0
0.0,-246.0,76.0,-62.0,63.0,-3.0,23.0,-939.0,253.0
-1.0,-244.0,71.0,-58.0,60.0,-3.0,30.0,-940.0,250.0
1.0,-243.0,74.0,-53.0,59.0,-2.0,29.0,-938.0,256.0
0.0,-245.0,71.0,-49.0,58.0,-3.0,28.0,-935.0,249.0
0.0,-244.0,73.0,-45.0,59.0,-3.0,31.0,-938.0,253.0
0.0,-246.0,71.0,-42.0,60.0,-3.0,23.0,-932.0,251.0
-1.0,-241.0,74.0,-39.0,60.0,-3.0,28.0,-937.0,252.0
-1.0,-244.0,70.0,-39.0,59.0,-1.0,32.0,-931.0,249.0
0.0,-240.0,69.0,-41.0,59.0,-2.0,26.0,-936.0,247.0
0.0,-242.0,70.0,-44.0,59.0,-1.0,25.0,-937.0,250.0
0.0,-241.0,73.0,-48.0,58.0,1.0,29.0,-935.0,248.0
1.0,-243.0,74.0,-52.0,58.0,2.0,29.0,-936.0,246.0
0.0,-245.0,71.0,-55.0,58.0,3.0,30.0,-937.0,245.0
0.0,-243.0,72.0,-59.0,56.0,2.0,26.0,-932.0,246.0
0.0,-245.0,74.0,-61.0,54.0,2.0,28.0,-939.0,247.0
-1.0,-243.0,72.0,-63.0,55.0,3.0,31.0,-939.0,252.0
0.0,-242.0,70.0,-65.0,54.0,3.0,30.0,-938.0,246.0
-1.0,-244.0,68.0,-66.0,56.0,2.0,35.0,-940.0,246.0
0.0,-243.0,70.0,-68.0,58.0,4.0,33.0,-934.0,244.0
0.0,-245.0,71.0,-70.0,57.0,2.0,34.0,-931.0,242.0
1.0,-244.0,72.0,-71.0,61.0,1.0,31.0,-932.0,251.0
3.0,-241.0,71.0,-71.0,61.0,-1.0,34.0,-937.0,246.0
-1.0,-241.0,74.0,-72.0,62.0,1.0,26.0,-938.0,249.0
0.0,-244.0,69.0,-73.0,63.0,0.0,31.0,-932.0,248.0
1.0,-245.0,69.0,-73.0,64.0,-2.0,25.0,-932.0,246.0
-2.0,-242.0,68.0,-73.0,64.0,0.0,29.0,-935.0,247.0
0.0,-246.0,70.0,-73.0,64.0,0.0,28.0,-939.0,246.0
-1.0,-243.0,73.0,-75.0,67.0,-1.0,27.0,-939.0,248.0
-2.0,-247.0,70.0,-74.0,67.0,-1.0,28.0,-940.0,245.0
-1.0,-247.0,74.0,-74.0,68.0,-1.0,30.0,-941.0,250.0
0.0,-241.0,75.0,-73.0,68.0,-1.0,31.0,-940.0,252.0
0.0,-245.0,69.0,-73.0,68.0,-2.0,34.0,-939.0,251.0
-1.0,-243.0,70.0,-72.0,67.0,-3.0,29.0,-943.0,252.0
-3.0,-243.0,76.0,-72.0,66.0,-3.0,24.0,-942.0,246.0
0.0,-244.0,72.0,-74.0,68.0,-5.0,30.0,-933.0,248.0
0.0,-244.0,71.0,-75.0,69.0,-5.0,27.0,-936.0,244.0
-2.0,-244.0,71.0,-78.0,69.0,-6.0,31.0,-939.0,248.0
0.0,-246.0,70.0,-79.0,68.0,-6.0,31.0,-940.0,243.0
-1.0,-244.0,69.0,-79.0,68.0,-7.0,27.0,-938.0,237.0
-2.0,-245.0,72.0,-78.0,67.0,-6.0,28.0,-949.0,241.0
1.0,-244.0,72.0,-74.0,68.0,-4.0,28.0,-946.0,244.0
0.0,-247.0,67.0,-70.0,68.0,-3.0,29.0,-948.0,240.0
1.0,-244.0,72.0,-64.0,69.0,-3.0,26.0,-943.0,242.0
0.0,-249.0,74.0,-59.0,70.0,-1.0,33.0,-947.0,243.0
0.0,-247.0,68.0,-55.0,70.0,1.0,32.0,-943.0,236.0
-1.0,-244.0,72.0,-49.0,69.0,1.0,36.0,-943.0,245.0
0.0,-244.0,65.0,-43.0,70.0,0.0,34.0,-946.0,242.0
0.0,-247.0,68.0,-39.0,71.0,-1.0,35.0,-945.0,239.0
0.0,-246.0,68.0,-35.0,71.0,-2.0,33.0,-941.0,245.0
0.0,-245.0,70.0,-32.0,71.0,0.0,26.0,-942.0,239.0
1.0,-247.0,70.0,-30.0,71.0,-1.0,35.0,-943.0,246.0
1.0,-248.0,70.0,-27.0,72.0,-2.0,28.0,-949.0,247.0
-3.0,-243.0,73.0,-26.0,72.0,-4.0,31.0,-949.0,250.0
-3.0,-246.0,73.0,-25.0,71.0,-3.0,30.0,-955.0,247.0
0.0,-245.0,69.0,-24.0,74.0,-2.0,25.0,-951.0,246.0
-1.0,-248.0,74.0,-21.0,76.0,-2.0,26.0,-955.0,246.0
0.0,-249.0,74.0,-17.0,74.0,-1.0,32.0,-953.0,245.0
-2.0,-246.0,69.0,-12.0,77.0,-1.0,25.0,-955.0,241.0
-2.0,-248.0,71.0,-5.0,78.0,1.0,31.0,-955.0,239.0
0.0,-248.0,69.0,1.0,77.0,1.0,27.0,-958.0,236.0
0.0,-250.0,66.0,12.0,77.0,3.0,32.0,-951.0,238.0
1.0,-247.0,66.0,22.0,76.0,1.0,32.0,-948.0,231.0
0.0,-247.0,67.0,28.0,76.0,-1.0,35.0,-945.0,232.0
3.0,-247.0,67.0,34.0,76.0,-3.0,29.0,-943.0,234.0
1.0,-247.0,69.0,35.0,74.0,-5.0,31.0,-940.0,231.0
0.0,-244.0,66.0,34.0,76.0,-6.0,35.0,-941.0,233.0
0.0,-245.0,70.0,32.0,77.0,-8.0,30.0,-937.0,235.0
0.0,-240.0,68.0,28.0,80.0,-9.0,27.0,-932.0,233.0
-1.0,-242.0,68.0,22.0,83.0,-8.0,28.0,-930.0,232.0
0.0,-243.0,66.0,17.0,86.0,-9.0,28.0,-935.0,237.0
0.0,-245.0,69.0,13.0,89.0,-9.0,25.0,-936.0,234.0
0.0,-243.0,70.0,9.0,88.0,-8.0,22.0,-940.0,238.0
-1.0,-246.0,67.0,9.0,88.0,-8.0,24.0,-942.0,238.0
0.0,-247.0,66.0,9.0,88.0,-6.0,23.0,-940.0,237.0
0.0,-245.0,72.0,11.0,85.0,-5.0,24.0,-947.0,235.0
-2.0,-247.0,66.0,16.0,84.0,-2.0,16.0,-953.0,240.0
-3.0,-247.0,69.0,19.0,81.0,-3.0,25.0,-946.0,241.0
-2.0,-247.0,69.0,21.0,80.0,0.0,21.0,-950.0,241.0
0.0,-243.0,68.0,21.0,77.0,0.0,25.0,-945.0,241.0
1.0,-247.0,68.0,20.0,77.0,1.0,24.0,-947.0,239.0
0.0,-247.0,71.0,18.0,77.0,3.0,27.0,-939.0,244.0
0.0,-246.0,70.0,12.0,77.0,1.0,27.0,-936.0,243.0
2.0,-244.0,71.0,7.0,79.0,2.0,24.0,-940.0,246.0
0.0,-244.0,71.0,1.0,79.0,2.0,29.0,-938.0,244.0
0.0,-244.0,72.0,-7.0,79.0,2.0,32.0,-940.0,242.0
3.0,-247.0,74.0,-15.0,78.0,1.0,37.0,-932.0,241.0
0.0,-242.0,73.0,-22.0,78.0,0.0,37.0,-929.0,243.0
1.0,-245.0,69.0,-29.0,75.0,0.0,39.0,-936.0,246.0
0.0,-243.0,70.0,-35.0,75.0,0.0,36.0,-937.0,250.0
0.0,-239.0,73.0,-38.0,72.0,-1.0,35.0,-931.0,247.0
0.0,-243.0,71.0,-41.0,72.0,-1.0,37.0,-939.0,247.0
2.0,-244.0,72.0,-43.0,72.0,0.0,36.0,-932.0,253.0
-2.0,-241.0,75.0,-44.0,72.0,1.0,33.0,-934.0,256.0
0.0,-242.0,70.0,-44.0,73.0,0.0,33.0,-936.0,254.0
1.0,-243.0,73.0,-43.0,75.0,-1.0,29.0,-936.0,255.0
0.0,-246.0,75.0,-45.0,76.0,-1.0,24.0,-935.0,258.0
-1.0,-242.0,73.0,-46.0,79.0,-1.0,28.0,-939.0,256.0
-2.0,-245.0,74.0,-45.0,81.0,0.0,25.0,-940.0,256.0
-1.0,-244.0,75.0,-45.0,84.0,0.0,24.0,-941.0,261.0
-2.0,-246.0,73.0,-47.0,85.0,-2.0,20.0,-931.0,259.0
1.0,-242.0,74.0,-48.0,86.0,-1.0,18.0,-934.0,260.0
0.0,-244.0,72.0,-51.0,84.0,-1.0,26.0,-930.0,253.0
0.0,-241.0,72.0,-56.0,85.0,0.0,20.0,-934.0,262.0
-2.0,-242.0,76.0,-59.0,84.0,2.0,17.0,-931.0,257.0
0.0,-245.0,75.0,-65.0,82.0,3.0,20.0,-935.0,254.0
-1.0,-244.0,74.0,-68.0,80.0,3.0,21.0,-927.0,257.0
-4.0,-242.0,78.0,-72.0,79.0,3.0,28.0,-928.0,253.0
-4.0,-246.0,77.0,-77.0,77.0,3.0,21.0,-932.0,255.0
0.0,-241.0,72.0,-80.0,76.0,4.0,25.0,-933.0,255.0
0.0,-243.0,71.0,-82.0,75.0,5.0,24.0,-934.0,253.0
-4.0,-243.0,74.0,-84.0,77.0,5.0,24.0,-936.0,254.0
0.0,-245.0,70.0,-84.0,76.0,2.0,20.0,-938.0,250.0
0.0,-244.0,71.0,-83.0,79.0,3.0,27.0,-935.0,253.0
-1.0,-242.0,75.0,-78.0,81.0,1.0,19.0,-937.0,251.0
0.0,-244.0,71.0,-75.0,83.0,2.0,23.0,-938.0,247.0
-1.0,-244.0,71.0,-68.0,83.0,2.0,23.0,-941.0,252.0
0.0,-247.0,72.0,-62.0,84.0,3.0,28.0,-939.0,247.0
-1.0,-246.0,69.0,-57.0,86.0,2.0,27.0,-941.0,250.0
0.0,-247.0,72.0,-50.0,88.0,1.0,29.0,-943.0,249.0
-2.0,-247.0,72.0,-42.0,90.0,3.0,26.0,-946.0,245.0
-1.0,-247.0,69.0,-32.0,90.0,4.0,20.0,-947.0,242.0
0.0,-247.0,67.0,-26.0,89.0,5.0,18.0,-943.0,238.0
-4.0,-246.0,68.0,-20.0,89.0,4.0,22.0,-943.0,243.0
-1.0,-245.0,71.0,-13.0,88.0,4.0,19.0,-943.0,239.0
-2.0,-246.0,69.0,-7.0,85.0,4.0,18.0,-938.0,239.0
0.0,-245.0,70.0,-3.0,84.0,4.0,15.0,-941.0,236.0
-4.0,-245.0,69.0,-1.0,82.0,5.0,17.0,-945.0,230.0
-3.0,-244.0,66.0,-4.0,81.0,4.0,17.0,-935.0,236.0
-2.0,-245.0,67.0,-6.0,80.0,5.0,17.0,-933.0,234.0
0.0,-242.0,66.0,-11.0,78.0,5.0,19.0,-935.0,231.0
2.0,-241.0,64.0,-16.0,77.0,6.0,19.0,-931.0,229.0
0.0,-244.0,68.0,-21.0,76.0,9.0,19.0,-937.0,232.0
-3.0,-245.0,68.0,-26.0,74.0,10.0,21.0,-934.0,235.0
-1.0,-243.0,70.0,-30.0,76.0,12.0,20.0,-938.0,232.0
-3.0,-246.0,70.0,-32.0,77.0,13.0,26.0,-937.0,234.0
1.0,-246.0,67.0,-34.0,78.0,17.0,32.0,-936.0,237.0
1.0,-243.0,72.0,-34.0,78.0,18.0,32.0,-939.0,233.0
0.0,-244.0,66.0,-34.0,80.0,18.0,38.0,-939.0,239.0
1.0,-245.0,72.0,-33.0,78.0,19.0,35.0,-933.0,242.0
1.0,-243.0,72.0,-31.0,77.0,20.0,38.0,-935.0,240.0
2.0,-244.0,71.0,-32.0,77.0,19.0,38.0,-940.0,242.0
0.0,-242.0,69.0,-30.0,76.0,19.0,38.0,-937.0,245.0
3.0,-245.0,74.0,-29.0,73.0,17.0,44.0,-934.0,253.0
2.0,-245.0,70.0,-28.0,72.0,18.0,39.0,-940.0,251.0
1.0,-245.0,75.0,-29.0,69.0,17.0,39.0,-941.0,253.0
2.0,-247.0,75.0,-30.0,67.0,15.0,39.0,-941.0,256.0
2.0,-245.0,73.0,-31.0,65.0,16.0,38.0,-938.0,253.0
1.0,-246.0,72.0,-33.0,62.0,16.0,37.0,-941.0,248.0
1.0,-244.0,72.0,-34.0,59.0,15.0,35.0,-943.0,248.0
0.0,-244.0,71.0,-34.0,58.0,16.0,30.0,-946.0,248.0
0.0,-244.0,70.0,-35.0,55.0,15.0,27.0,-941.0,249.0
0.0,-246.0,72.0,-35.0,54.0,17.0,30.0,-947.0,249.0
1.0,-245.0,69.0,-34.0,52.0,16.0,18.0,-939.0,247.0
-2.0,-244.0,68.0,-33.0,49.0,17.0,21.0,-938.0,246.0
-3.0,-246.0,75.0,-32.0,50.0,18.0,15.0,-940.0,246.0
-2.0,-245.0,71.0,-29.0,49.0,18.0,16.0,-942.0,241.0
-6.0,-243.0,68.0,-28.0,49.0,17.0,15.0,-943.0,239.0
-3.0,-247.0,67.0,-26.0,50.0,17.0,12.0,-943.0,243.0
-6.0,-244.0,67.0,-25.0,49.0,17.0,14.0,-946.0,240.0
-4.0,-243.0,69.0,-23.0,51.0,15.0,10.0,-943.0,237.0
-4.0,-247.0,66.0,-18.0,54.0,16.0,15.0,-945.0,237.0
-2.0,-248.0,73.0,-15.0,57.0,13.0,13.0,-945.0,237.0
-3.0,-246.0,64.0,-11.0,60.0,11.0,14.0,-948.0,239.0
-4.0,-246.0,73.0,-8.0,63.0,11.0,10.0,-946.0,235.0
-1.0,-245.0,71.0,-3.0,66.0,11.0,14.0,-951.0,237.0
-4.0,-245.0,66.0,1.0,68.0,9.0,14.0,-944.0,232.0
-6.0,-247.0,69.0,4.0,68.0,7.0,12.0,-942.0,229.0
-7.0,-243.0,66.0,5.0,69.0,5.0,11.0,-946.0,232.0
-3.0,-245.0,64.0,5.0,69.0,4.0,9.0,-944.0,225.0
-3.0,-245.0,65.0,3.0,69.0,2.0,8.0,-943.0,229.0
-1.0,-246.0,66.0,1.0,69.0,1.0,10.0,-939.0,226.0
-5.0,-244.0,66.0,-4.0,68.0,0.0,5.0,-938.0,227.0
-1.0,-245.0,67.0,-8.0,68.0,-2.0,8.0,-948.0,230.0
-4.0,-243.0,64.0,-12.0,67.0,-3.0,6.0,-947.0,230.0
-5.0,-247.0,66.0,-15.0,68.0,-5.0,9.0,-945.0,226.0
-7.0,-248.0,63.0,-17.0,68.0,-4.0,8.0,-949.0,225.0
-5.0,-244.0,67.0,-14.0,72.0,-4.0,9.0,-946.0,228.0
-6.0,-248.0,68.0,-8.0,73.0,-3.0,8.0,-946.0,228.0
-5.0,-250.0,69.0,-1.0,73.0,-3.0,10.0,-948.0,227.0
-4.0,-248.0,64.0,6.0,75.0,0.0,8.0,-956.0,223.0
-4.0,-246.0,67.0,14.0,76.0,0.0,15.0,-951.0,216.0
-4.0,-247.0,66.0,19.0,77.0,1.0,15.0,-943.0,222.0
-4.0,-243.0,65.0,20.0,78.0,-1.0,19.0,-941.0,222.0
-2.0,-245.0,62.0,20.0,78.0,-2.0,18.0,-938.0,220.0
-1.0,-241.0,72.0,18.0,81.0,-2.0,21.0,-937.0,219.0
-1.0,-245.0,64.0,13.0,82.0,-6.0,22.0,-930.0,226.0
-1.0,-243.0,64.0,9.0,82.0,-7.0,22.0,-932.0,225.0
-2.0,-246.0,65.0,5.0,82.0,-7.0,23.0,-931.0,229.0
-2.0,-243.0,64.0,0.0,82.0,-8.0,23.0,-935.0,228.0
-3.0,-243.0,69.0,-4.0,83.0,-8.0,20.0,-933.0,232.0
-1.0,-245.0,68.0,-6.0,79.0,-8.0,24.0,-938.0,238.0
0.0,-242.0,70.0,-7.0,80.0,-8.0,18.0,-938.0,239.0
-2.0,-244.0,71.0,-5.0,81.0,-9.0,20.0,-941.0,236.0
1.0,-247.0,72.0,-4.0,80.0,-9.0,25.0,-942.0,246.0
0.0,-244.0,72.0,-1.0,81.0,-7.0,24.0,-941.0,242.0
-9.0,-241.0,58.0,1.0,81.0,-6.0,25.0,-943.0,238.0
0.0,-246.0,67.0,2.0,79.0,-5.0,26.0,-941.0,239.0
-1.0,-245.0,68.0,2.0,77.0,-4.0,25.0,-943.0,237.0
0.0,-242.0,68.0,1.0,75.0,-5.0,27.0,-937.0,241.0
-1.0,-243.0,67.0,-2.0,73.0,-4.0,30.0,-939.0,238.0
0.0,-243.0,69.0,-6.0,70.0,-3.0,21.0,-938.0,237.0
-2.0,-240.0,68.0,-12.0,68.0,-1.0,25.0,-938.0,239.0
0.0,-245.0,68.0,-17.0,66.0,-2.0,30.0,-938.0,241.0
0.0,-247.0,68.0,-20.0,63.0,-3.0,29.0,-942.0,240.0
-4.0,-245.0,69.0,-25.0,61.0,-2.0,22.0,-943.0,242.0
-1.0,-243.0,68.0,-27.0,62.0,-1.0,28.0,-944.0,242.0
-1.0,-244.0,72.0,-27.0,60.0,0.0,20.0,-937.0,245.0
0.0,-246.0,70.0,-25.0,58.0,1.0,24.0,-943.0,242.0
-3.0,-244.0,68.0,-24.0,58.0,2.0,23.0,-942.0,248.0
0.0,-246.0,75.0,-20.0,56.0,2.0,23.0,-941.0,241.0
-4.0,-242.0,70.0,-14.0,57.0,3.0,24.0,-940.0,248.0
-2.0,-244.0,71.0,-9.0,55.0,2.0,22.0,-941.0,246.0
0.0,-243.0,70.0,-6.0,55.0,3.0,24.0,-942.0,249.0
-2.0,-246.0,71.0,-5.0,54.0,4.0,25.0,-936.0,250.0
0.0,-243.0,73.0,-2.0,54.0,4.0,23.0,-937.0,251.0
-1.0,-246.0,70.0,-3.0,54.0,4.0,24.0,-939.0,252.0
-2.0,-246.0,76.0,-3.0,54.0,5.0,18.0,-942.0,250.0
-2.0,-244.0,72.0,-4.0,56.0,4.0,20.0,-943.0,252.0
-1.0,-246.0,73.0,-6.0,55.0,4.0,17.0,-942.0,252.0
-4.0,-245.0,72.0,-7.0,57.0,4.0,19.0,-941.0,247.0
-1.0,-246.0,72.0,-6.0,56.0,4.0,23.0,-947.0,252.0
-2.0,-244.0,73.0,-1.0,55.0,5.0,23.0,-949.0,260.0
0.0,-247.0,71.0,4.0,56.0,6.0,16.0,-951.0,253.0
-4.0,-246.0,74.0,11.0,57.0,6.0,22.0,-950.0,251.0
0.0,-247.0,73.0,20.0,61.0,7.0,24.0,-946.0,255.0
-1.0,-246.0,72.0,27.0,59.0,6.0,19.0,-948.0,252.0
-1.0,-245.0,71.0,30.0,60.0,7.0,27.0,-950.0,249.0
-2.0,-246.0,72.0,33.0,63.0,6.0,22.0,-949.0,248.0
-1.0,-247.0,73.0,38.0,62.0,5.0,30.0,-949.0,248.0
1.0,-245.0,71.0,40.0,63.0,4.0,25.0,-950.0,242.0
-2.0,-244.0,70.0,42.0,64.0,4.0,24.0,-943.0,241.0
-1.0,-246.0,70.0,44.0,62.0,3.0,21.0,-946.0,243.0
0.0,-245.0,68.0,46.0,61.0,2.0,22.0,-951.0,235.0
-2.0,-248.0,67.0,50.0,59.0,2.0,17.0,-950.0,234.0
0.0,-247.0,68.0,55.0,59.0,2.0,23.0,-950.0,230.0
-1.0,-248.0,71.0,62.0,57.0,2.0,18.0,-963.0,235.0
-2.0,-250.0,68.0,70.0,54.0,2.0,21.0,-957.0,231.0
-5.0,-248.0,65.0,83.0,51.0,3.0,15.0,-960.0,237.0
-6.0,-248.0,69.0,95.0,48.0,4.0,15.0,-963.0,237.0
-1.0,-251.0,66.0,111.0,48.0,5.0,14.0,-959.0,232.0
-4.0,-248.0,68.0,127.0,48.0,5.0,12.0,-962.0,236.0
-3.0,-248.0,69.0,145.0,50.0,3.0,14.0,-960.0,240.0
-1.0,-248.0,69.0,161.0,54.0,2.0,16.0,-953.0,244.0
0.0,-247.0,74.0,179.0,58.0,1.0,16.0,-947.0,250.0
-2.0,-247.0,73.0,192.0,63.0,0.0,15.0,-935.0,248.0
0.0,-243.0,70.0,201.0,71.0,0.0,15.0,-937.0,248.0
-3.0,-239.0,70.0,206.0,77.0,-2.0,16.0,-934.0,252.0
-1.0,-242.0,72.0,204.0,82.0,-2.0,18.0,-927.0,252.0
-3.0,-243.0,70.0,196.0,84.0,-2.0,23.0,-928.0,254.0
-2.0,-239.0,71.0,184.0,87.0,-2.0,20.0,-930.0,255.0
-2.0,-239.0,76.0,173.0,90.0,-2.0,19.0,-925.0,258.0
0.0,-240.0,73.0,160.0,92.0,0.0,20.0,-931.0,258.0
-3.0,-241.0,71.0,151.0,95.0,0.0,21.0,-931.0,254.0
0.0,-245.0,74.0,144.0,95.0,3.0,21.0,-929.0,261.0
-1.0,-246.0,72.0,141.0,96.0,4.0,18.0,-931.0,259.0
0.0,-245.0,70.0,140.0,97.0,6.0,18.0,-936.0,260.0
-4.0,-242.0,76.0,142.0,98.0,6.0,14.0,-932.0,265.0
-4.0,-244.0,76.0,145.0,97.0,7.0,17.0,-932.0,266.0
-1.0,-241.0,76.0,147.0,95.0,8.0,23.0,-936.0,268.0
-1.0,-244.0,74.0,150.0,96.0,9.0,19.0,-937.0,270.0
-8.0,-233.0,69.0,151.0,97.0,10.0,28.0,-928.0,268.0
-1.0,-241.0,79.0,151.0,95.0,7.0,20.0,-924.0,270.0
-2.0,-238.0,80.0,149.0,93.0,5.0,23.0,-922.0,270.0
-2.0,-240.0,78.0,145.0,91.0,2.0,25.0,-923.0,278.0
-1.0,-239.0,82.0,138.0,88.0,1.0,27.0,-929.0,280.0
-1.0,-239.0,77.0,130.0,83.0,-2.0,27.0,-920.0,273.0
-3.0,-241.0,79.0,119.0,79.0,-4.0,26.0,-919.0,276.0
-2.0,-240.0,76.0,107.0,75.0,-6.0,26.0,-920.0,272.0
-2.0,-239.0,79.0,94.0,72.0,-9.0,27.0,-919.0,270.0
0.0,-238.0,77.0,82.0,69.0,-8.0,29.0,-922.0,270.0
0.0,-238.0,78.0,69.0,68.0,-8.0,24.0,-920.0,277.0
-4.0,-239.0,77.0,60.0,68.0,-8.0,24.0,-917.0,279.0
0.0,-239.0,79.0,52.0,67.0,-7.0,21.0,-921.0,271.0
0.0,-239.0,76.0,47.0,65.0,-5.0,19.0,-928.0,276.0
-7.0,-240.0,78.0,45.0,64.0,-3.0,17.0,-927.0,281.0
-1.0,-242.0,79.0,42.0,63.0,-2.0,16.0,-927.0,278.0
0.0,-244.0,82.0,41.0,62.0,-1.0,14.0,-932.0,283.0
-3.0,-241.0,80.0,39.0,62.0,-1.0,17.0,-931.0,280.0
-1.0,-244.0,81.0,38.0,63.0,0.0,14.0,-935.0,282.0
-4.0,-242.0,81.0,39.0,64.0,1.0,18.0,-930.0,279.0
-5.0,-240.0,83.0,40.0,66.0,1.0,18.0,-935.0,286.0
-3.0,-243.0,83.0,43.0,66.0,1.0,18.0,-932.0,288.0
-5.0,-240.0,82.0,45.0,67.0,1.0,20.0,-926.0,288.0
-1.0,-243.0,83.0,46.0,66.0,2.0,22.0,-924.0,289.0
-1.0,-240.0,78.0,46.0,65.0,0.0,21.0,-923.0,285.0
0.0,-240.0,81.0,45.0,63.0,0.0,20.0,-926.0,284.0
-3.0,-238.0,81.0,42.0,62.0,-2.0,19.0,-923.0,286.0
-5.0,-238.0,82.0,36.0,62.0,-4.0,16.0,-919.0,285.0
0.0,-238.0,80.0,31.0,60.0,-4.0,20.0,-916.0,286.0
-1.0,-240.0,85.0,24.0,60.0,-5.0,16.0,-918.0,286.0
-2.0,-236.0,81.0,18.0,61.0,-4.0,12.0,-917.0,286.0
-4.0,-238.0,79.0,12.0,61.0,-6.0,13.0,-918.0,290.0
-2.0,-240.0,80.0,7.0,62.0,-6.0,14.0,-916.0,287.0
-4.0,-239.0,82.0,1.0,63.0,-7.0,12.0,-915.0,287.0
-1.0,-240.0,82.0,-5.0,65.0,-8.0,12.0,-921.0,287.0
-6.0,-242.0,81.0,-12.0,66.0,-8.0,10.0,-921.0,290.0
-6.0,-242.0,83.0,-16.0,68.0,-8.0,13.0,-925.0,285.0
-3.0,-245.0,83.0,-17.0,70.0,-9.0,9.0,-930.0,285.0
-1.0,-242.0,80.0,-16.0,70.0,-8.0,13.0,-929.0,284.0
-3.0,-243.0,77.0,-13.0,71.0,-7.0,16.0,-932.0,285.0
-2.0,-246.0,84.0,-4.0,71.0,-7.0,19.0,-942.0,285.0
-2.0,-246.0,80.0,5.0,71.0,-5.0,18.0,-935.0,284.0
-2.0,-245.0,81.0,14.0,69.0,-4.0,21.0,-934.0,281.0
-2.0,-242.0,80.0,23.0,69.0,-4.0,22.0,-931.0,281.0
0.0,-245.0,86.0,31.0,69.0,-4.0,26.0,-929.0,283.0
-2.0,-241.0,81.0,37.0,70.0,-4.0,23.0,-928.0,285.0
-4.0,-238.0,78.0,38.0,68.0,-6.0,23.0,-919.0,283.0
-4.0,-240.0,82.0,36.0,66.0,-5.0,19.0,-920.0,287.0
0.0,-240.0,81.0,32.0,65.0,-5.0,20.0,-916.0,286.0
-1.0,-241.0,81.0,26.0,65.0,-6.0,20.0,-918.0,286.0
-1.0,-237.0,81.0,19.0,65.0,-7.0,20.0,-917.0,284.0
-2.0,-235.0,80.0,11.0,63.0,-8.0,17.0,-918.0,287.0
0.0,-240.0,85.0,5.0,65.0,-8.0,21.0,-918.0,290.0
-2.0,-238.0,83.0,2.0,65.0,-8.0,24.0,-920.0,293.0
0.0,-232.0,79.0,1.0,65.0,-8.0,26.0,-916.0,293.0
-3.0,-236.0,85.0,0.0,66.0,-8.0,18.0,-919.0,294.0
-2.0,-236.0,85.0,-3.0,63.0,-7.0,22.0,-918.0,295.0
-2.0,-238.0,83.0,-6.0,63.0,-7.0,20.0,-916.0,293.0
0.0,-239.0,80.0,-12.0,62.0,-7.0,19.0,-921.0,291.0
-2.0,-241.0,79.0,-18.0,61.0,-6.0,21.0,-918.0,292.0
-2.0,-242.0,81.0,-24.0,59.0,-6.0,21.0,-922.0,293.0
-3.0,-241.0,80.0,-27.0,62.0,-5.0,22.0,-926.0,294.0
0.0,-241.0,85.0,-29.0,63.0,-4.0,24.0,-923.0,288.0
-2.0,-242.0,81.0,-28.0,62.0,-2.0,28.0,-926.0,291.0
0.0,-245.0,80.0,-28.0,63.0,-2.0,25.0,-931.0,288.0
1.0,-242.0,78.0,-25.0,65.0,-3.0,25.0,-937.0,287.0
1.0,-242.0,88.0,-21.0,65.0,-2.0,27.0,-934.0,285.0
0.0,-243.0,81.0,-16.0,65.0,-1.0,28.0,-932.0,285.0
0.0,-244.0,79.0,-9.0,65.0,-1.0,23.0,-928.0,289.0
0.0,-242.0,81.0,-6.0,65.0,-2.0,26.0,-931.0,290.0
0.0,-244.0,79.0,-3.0,67.0,-3.0,24.0,-928.0,288.0
-2.0,-239.0,80.0,-2.0,67.0,-2.0,24.0,-927.0,285.0
-1.0,-240.0,80.0,-2.0,68.0,-3.0,21.0,-924.0,290.0
-2.0,-241.0,83.0,-3.0,68.0,-2.0,23.0,-926.0,288.0
0.0,-241.0,82.0,-4.0,68.0,-3.0,18.0,-927.0,286.0
0.0,-241.0,80.0,-5.0,68.0,-4.0,19.0,-920.0,288.0
-1.0,-238.0,81.0,-6.0,69.0,-5.0,13.0,-921.0,290.0
-2.0,-239.0,80.0,-8.0,69.0,-7.0,15.0,-922.0,293.0
-4.0,-241.0,84.0,-8.0,69.0,-7.0,18.0,-921.0,292.0
-2.0,-243.0,81.0,-7.0,70.0,-7.0,12.0,-924.0,293.0
-6.0,-241.0,80.0,-8.0,70.0,-7.0,16.0,-925.0,290.0
-6.0,-238.0,80.0,-7.0,71.0,-8.0,14.0,-919.0,288.0
-5.0,-239.0,83.0,-7.0,72.0,-9.0,13.0,-920.0,285.0
-4.0,-239.0,81.0,-9.0,73.0,-7.0,12.0,-923.0,293.0
-4.0,-238.0,77.0,-10.0,73.0,-7.0,16.0,-921.0,291.0
0.0,-241.0,78.0,-9.0,73.0,-10.0,23.0,-920.0,286.0
-3.0,-239.0,82.0,-10.0,74.0,-9.0,21.0,-927.0,285.0
-1.0,-240.0,78.0,-12.0,72.0,-8.0,19.0,-923.0,285.0
-4.0,-240.0,80.0,-14.0,73.0,-7.0,24.0,-927.0,287.0
-2.0,-238.0,80.0,-14.0,71.0,-8.0,17.0,-923.0,290.0
-1.0,-243.0,80.0,-15.0,70.0,-5.0,23.0,-926.0,289.0
0.0,-241.0,83.0,-14.0,69.0,-4.0,29.0,-927.0,288.0
-1.0,-241.0,81.0,-15.0,70.0,-5.0,28.0,-928.0,293.0
-2.0,-242.0,81.0,-14.0,69.0,-5.0,29.0,-923.0,289.0
0.0,-241.0,84.0,-13.0,68.0,-5.0,30.0,-923.0,291.0
0.0,-241.0,85.0,-11.0,67.0,-5.0,25.0,-923.0,291.0
0.0,-241.0,80.0,-11.0,68.0,-4.0,20.0,-924.0,291.0
-2.0,-240.0,80.0,-10.0,69.0,-5.0,22.0,-922.0,291.0
0.0,-241.0,83.0,-12.0,68.0,-4.0,21.0,-920.0,291.0
-2.0,-239.0,80.0,-13.0,67.0,-5.0,20.0,-921.0,287.0
-5.0,-242.0,85.0,-16.0,69.0,-4.0,22.0,-927.0,288.0
-4.0,-243.0,82.0,-18.0,68.0,-5.0,19.0,-929.0,285.0
-3.0,-240.0,82.0,-20.0,69.0,-6.0,17.0,-925.0,290.0
-2.0,-240.0,80.0,-19.0,69.0,-4.0,19.0,-923.0,285.0
-1.0,-240.0,80.0,-21.0,69.0,-4.0,17.0,-931.0,290.0
-5.0,-242.0,76.0,-21.0,69.0,-5.0,21.0,-924.0,291.0
0.0,-242.0,83.0,-21.0,70.0,-4.0,19.0,-927.0,290.0
-2.0,-242.0,84.0,-22.0,69.0,-3.0,20.0,-933.0,284.0
-3.0,-240.0,80.0,-22.0,66.0,-3.0,23.0,-930.0,286.0
0.0,-240.0,80.0,-20.0,66.0,-3.0,21.0,-925.0,288.0
0.0,-242.0,84.0,-18.0,67.0,-1.0,19.0,-927.0,282.0
0.0,-242.0,84.0,-17.0,66.0,-2.0,24.0,-929.0,283.0
-3.0,-242.0,79.0,-16.0,64.0,-1.0,23.0,-926.0,287.0
-2.0,-242.0,81.0,-16.0,66.0,0.0,24.0,-932.0,286.0
-1.0,-241.0,80.0,-14.0,66.0,0.0,24.0,-934.0,287.0
0.0,-240.0,80.0,-15.0,66.0,-2.0,17.0,-929.0,283.0
0.0,-243.0,80.0,-15.0,65.0,-1.0,23.0,-927.0,285.0
0.0,-244.0,80.0,-17.0,67.0,-1.0,20.0,-921.0,285.0
-2.0,-241.0,80.0,-18.0,67.0,-1.0,17.0,-927.0,283.0
-2.0,-238.0,80.0,-19.0,69.0,-3.0,22.0,-920.0,284.0
-3.0,-238.0,80.0,-20.0,70.0,-4.0,20.0,-923.0,281.0
-4.0,-238.0,82.0,-20.0,70.0,-4.0,16.0,-921.0,291.0
-2.0,-240.0,82.0,-17.0,68.0,-5.0,19.0,-929.0,285.0
-1.0,-241.0,85.0,-16.0,65.0,-5.0,22.0,-923.0,286.0
-3.0,-239.0,81.0,-17.0,65.0,-5.0,17.0,-923.0,291.0
0.0,-242.0,82.0,-18.0,66.0,-4.0,17.0,-926.0,289.0
-2.0,-240.0,81.0,-18.0,68.0,-4.0,19.0,-927.0,288.0
-4.0,-240.0,79.0,-16.0,70.0,-4.0,18.0,-933.0,286.0
-2.0,-243.0,79.0,-15.0,70.0,-4.0,22.0,-924.0,286.0
-2.0,-241.0,80.0,-14.0,72.0,-4.0,23.0,-931.0,288.0
-2.0,-243.0,84.0,-15.0,72.0,-2.0,21.0,-925.0,288.0
-1.0,-241.0,84.0,-15.0,73.0,-1.0,21.0,-923.0,287.0
0.0,-244.0,80.0,-15.0,72.0,-3.0,21.0,-920.0,288.0
-3.0,-241.0,82.0,-16.0,73.0,-2.0,25.0,-925.0,289.0
-3.0,-238.0,83.0,-16.0,74.0,-3.0,22.0,-923.0,286.0
0.0,-240.0,80.0,-18.0,73.0,-3.0,19.0,-919.0,289.0
-1.0,-242.0,81.0,-17.0,73.0,-3.0,19.0,-925.0,285.0
0.0,-241.0,82.0,-20.0,72.0,-5.0,18.0,-924.0,282.0
0.0,-239.0,81.0,-21.0,72.0,-5.0,20.0,-923.0,283.0
0.0,-241.0,82.0,-22.0,72.0,-4.0,21.0,-922.0,286.0
-2.0,-242.0,78.0,-23.0,70.0,-3.0,17.0,-926.0,288.0
-4.0,-237.0,82.0,-25.0,71.0,-3.0,18.0,-920.0,283.0
-5.0,-241.0,81.0,-27.0,69.0,-4.0,15.0,-927.0,287.0
0.0,-244.0,82.0,-30.0,68.0,-4.0,17.0,-926.0,280.0
-3.0,-240.0,81.0,-30.0,67.0,-4.0,18.0,-927.0,284.0
-2.0,-241.0,77.0,-31.0,67.0,-4.0,15.0,-930.0,289.0
-1.0,-240.0,78.0,-29.0,67.0,-5.0,20.0,-929.0,285.0
-1.0,-241.0,79.0,-28.0,66.0,-4.0,20.0,-929.0,285.0
0.0,-241.0,79.0,-27.0,66.0,-3.0,22.0,-924.0,288.0
-2.0,-240.0,81.0,-23.0,66.0,-3.0,18.0,-923.0,291.0
0.0,-240.0,80.0,-21.0,67.0,-3.0,23.0,-921.0,286.0
-2.0,-242.0,79.0,-19.0,66.0,-4.0,22.0,-924.0,283.0
0.0,-241.0,77.0,-19.0,69.0,-3.0,22.0,-923.0,288.0
8.0,-236.0,82.0,-21.0,70.0,-3.0,21.0,-920.0,282.0
-3.0,-239.0,83.0,-25.0,71.0,-3.0,28.0,-918.0,286.0
0.0,-241.0,80.0,-31.0,71.0,-3.0,26.0,-923.0,284.0
0.0,-242.0,83.0,-35.0,72.0,-4.0,22.0,-923.0,290.0
-3.0,-239.0,82.0,-39.0,71.0,-3.0,25.0,-921.0,283.0
-1.0,-236.0,81.0,-44.0,69.0,-5.0,20.0,-924.0,290.0
-2.0,-237.0,83.0,-51.0,68.0,-5.0,20.0,-921.0,292.0
-3.0,-241.0,79.0,-55.0,69.0,-6.0,19.0,-924.0,284.0
-2.0,-240.0,80.0,-60.0,69.0,-7.0,20.0,-929.0,283.0
-3.0,-245.0,78.0,-60.0,68.0,-6.0,20.0,-927.0,289.0
-3.0,-242.0,80.0,-60.0,68.0,-4.0,18.0,-930.0,282.0
-3.0,-242.0,83.0,-57.0,68.0,-3.0,21.0,-927.0,284.0
0.0,-239.0,78.0,-56.0,67.0,-4.0,20.0,-926.0,281.0
-2.0,-241.0,82.0,-52.0,67.0,-4.0,20.0,-929.0,276.0
0.0,-240.0,79.0,-51.0,70.0,-4.0,25.0,-926.0,278.0
-2.0,-240.0,79.0,-52.0,69.0,-4.0,20.0,-922.0,278.0
1.0,-242.0,80.0,-52.0,69.0,-2.0,17.0,-923.0,277.0
-6.0,-240.0,80.0,-51.0,71.0,-4.0,21.0,-923.0,279.0
0.0,-240.0,79.0,-54.0,72.0,-6.0,19.0,-925.0,282.0
-2.0,-241.0,83.0,-54.0,73.0,-4.0,21.0,-927.0,282.0
-3.0,-241.0,80.0,-54.0,75.0,-4.0,18.0,-931.0,281.0
-1.0,-243.0,82.0,-53.0,75.0,-6.0,18.0,-929.0,287.0
-4.0,-241.0,80.0,-50.0,73.0,-5.0,21.0,-935.0,290.0
-1.0,-240.0,85.0,-46.0,74.0,-7.0,19.0,-931.0,285.0
-1.0,-245.0,82.0,-40.0,73.0,-7.0,15.0,-934.0,289.0
-1.0,-244.0,82.0,-35.0,73.0,-8.0,22.0,-930.0,287.0
-1.0,-243.0,81.0,-29.0,72.0,-7.0,17.0,-929.0,282.0
0.0,-240.0,78.0,-28.0,73.0,-6.0,19.0,-923.0,284.0
-3.0,-240.0,78.0,-30.0,72.0,-7.0,24.0,-922.0,283.0
0.0,-239.0,74.0,-34.0,71.0,-5.0,23.0,-920.0,277.0
0.0,-240.0,81.0,-41.0,70.0,-4.0,23.0,-920.0,277.0
-1.0,-240.0,74.0,-52.0,68.0,-4.0,25.0,-920.0,285.0
2.0,-236.0,71.0,-61.0,67.0,-3.0,19.0,-918.0,277.0
-3.0,-239.0,81.0,-71.0,67.0,-2.0,22.0,-919.0,278.0
-1.0,-240.0,79.0,-79.0,67.0,-3.0,22.0,-921.0,268.0
-1.0,-241.0,82.0,-84.0,68.0,0.0,20.0,-924.0,276.0
-2.0,-241.0,75.0,-88.0,69.0,0.0,23.0,-924.0,275.0
-4.0,-241.0,79.0,-89.0,72.0,0.0,20.0,-928.0,281.0
1.0,-246.0,83.0,-86.0,72.0,-1.0,23.0,-928.0,277.0
0.0,-243.0,83.0,-83.0,73.0,-1.0,24.0,-939.0,279.0
-3.0,-242.0,78.0,-76.0,72.0,-1.0,23.0,-938.0,278.0
0.0,-246.0,76.0,-68.0,71.0,-2.0,27.0,-933.0,276.0
-3.0,-246.0,79.0,-62.0,71.0,-2.0,27.0,-939.0,273.0
0.0,-247.0,76.0,-56.0,70.0,-5.0,26.0,-939.0,271.0
-2.0,-246.0,76.0,-48.0,69.0,-6.0,24.0,-938.0,274.0
-1.0,-243.0,75.0,-41.0,70.0,-5.0,24.0,-940.0,275.0
0.0,-244.0,78.0,-36.0,70.0,-5.0,21.0,-933.0,268.0
-1.0,-242.0,78.0,-31.0,70.0,-4.0,21.0,-937.0,272.0
-1.0,-241.0,76.0,-28.0,69.0,-3.0,19.0,-931.0,275.0
-5.0,-243.0,77.0,-26.0,70.0,-4.0,17.0,-932.0,272.0
0.0,-243.0,76.0,-27.0,70.0,-2.0,21.0,-929.0,270.0
-1.0,-245.0,77.0,-31.0,70.0,-2.0,17.0,-932.0,275.0
-4.0,-241.0,78.0,-32.0,68.0,-1.0,20.0,-927.0,271.0
-2.0,-242.0,81.0,-35.0,67.0,-2.0,19.0,-930.0,276.0
-4.0,-242.0,77.0,-36.0,67.0,-2.0,17.0,-922.0,276.0
-1.0,-241.0,79.0,-39.0,69.0,-2.0,16.0,-927.0,272.0
-1.0,-238.0,78.0,-43.0,67.0,-3.0,18.0,-925.0,274.0
-1.0,-239.0,79.0,-45.0,68.0,-3.0,18.0,-922.0,277.0
-3.0,-243.0,81.0,-48.0,69.0,-3.0,22.0,-927.0,275.0
0.0,-242.0,77.0,-49.0,71.0,-1.0,20.0,-926.0,273.0
-2.0,-241.0,78.0,-49.0,73.0,-2.0,22.0,-925.0,274.0
-1.0,-242.0,76.0,-48.0,73.0,-3.0,22.0,-929.0,275.0
-4.0,-243.0,80.0,-47.0,74.0,-2.0,28.0,-929.0,272.0
-2.0,-243.0,74.0,-46.0,74.0,-4.0,24.0,-928.0,275.0
-2.0,-243.0,79.0,-46.0,76.0,-2.0,23.0,-932.0,271.0
-1.0,-244.0,76.0,-43.0,76.0,-2.0,19.0,-932.0,271.0
-2.0,-242.0,77.0,-43.0,76.0,-2.0,18.0,-932.0,269.0
0.0,-243.0,78.0,-41.0,75.0,-1.0,19.0,-932.0,272.0
-4.0,-244.0,75.0,-40.0,73.0,-2.0,21.0,-931.0,274.0
-2.0,-243.0,75.0,-39.0,73.0,-2.0,20.0,-938.0,271.0
-4.0,-245.0,80.0,-38.0,71.0,-2.0,16.0,-936.0,270.0
0.0,-242.0,78.0,-38.0,70.0,-2.0,24.0,-937.0,269.0
0.0,-246.0,81.0,-37.0,69.0,-3.0,19.0,-933.0,273.0
-2.0,-245.0,80.0,-36.0,70.0,-4.0,20.0,-937.0,275.0
-4.0,-243.0,73.0,-35.0,71.0,-3.0,15.0,-933.0,275.0
-2.0,-241.0,79.0,-34.0,69.0,-3.0,21.0,-933.0,272.0
1.0,-244.0,77.0,-33.0,69.0,-3.0,16.0,-928.0,272.0
-3.0,-242.0,77.0,-32.0,69.0,-3.0,17.0,-935.0,268.0
0.0,-244.0,75.0,-32.0,68.0,-4.0,24.0,-931.0,274.0
0.0,-243.0,75.0,-33.0,67.0,-3.0,17.0,-928.0,269.0
-4.0,-240.0,78.0,-33.0,66.0,-3.0,22.0,-930.0,272.0
0.0,-243.0,76.0,-33.0,67.0,-2.0,22.0,-930.0,268.0
-1.0,-241.0,76.0,-33.0,66.0,-2.0,22.0,-929.0,268.0
-2.0,-243.0,74.0,-36.0,66.0,-3.0,20.0,-925.0,267.0
-1.0,-240.0,79.0,-37.0,65.0,-2.0,20.0,-931.0,265.0
0.0,-241.0,71.0,-39.0,67.0,-1.0,24.0,-931.0,265.0
0.0,-238.0,74.0,-41.0,69.0,0.0,24.0,-934.0,266.0
-2.0,-241.0,73.0,-42.0,68.0,1.0,20.0,-930.0,263.0
-4.0,-244.0,77.0,-44.0,67.0,1.0,30.0,-931.0,265.0
1.0,-244.0,75.0,-46.0,67.0,2.0,25.0,-930.0,266.0
0.0,-242.0,78.0,-46.0,67.0,1.0,23.0,-937.0,266.0
-3.0,-242.0,74.0,-45.0,68.0,1.0,22.0,-935.0,260.0
-1.0,-241.0,76.0,-42.0,69.0,-2.0,23.0,-926.0,269.0
-2.0,-243.0,76.0,-42.0,69.0,-1.0,20.0,-933.0,269.0
0.0,-244.0,77.0,-40.0,71.0,-1.0,23.0,-934.0,266.0
-3.0,-243.0,78.0,-40.0,71.0,-1.0,22.0,-932.0,269.0
-3.0,-243.0,76.0,-40.0,73.0,-1.0,22.0,-933.0,270.0
-1.0,-241.0,76.0,-40.0,71.0,0.0,20.0,-935.0,266.0
0.0,-244.0,72.0,-42.0,72.0,-2.0,17.0,-930.0,275.0
-2.0,-244.0,73.0,-43.0,72.0,-2.0,20.0,-933.0,271.0
-1.0,-245.0,73.0,-44.0,69.0,-3.0,19.0,-925.0,262.0
-2.0,-246.0,73.0,-44.0,66.0,-4.0,17.0,-934.0,264.0
-4.0,-241.0,77.0,-45.0,69.0,-3.0,13.0,-939.0,260.0
-1.0,-247.0,75.0,-47.0,68.0,-2.0,18.0,-933.0,267.0
-3.0,-243.0,71.0,-45.0,67.0,-2.0,13.0,-937.0,264.0
-4.0,-243.0,75.0,-42.0,69.0,-2.0,15.0,-938.0,266.0
-1.0,-245.0,75.0,-39.0,68.0,-1.0,19.0,-944.0,268.0
-2.0,-247.0,75.0,-32.0,67.0,-1.0,19.0,-943.0,269.0
0.0,-246.0,76.0,-27.0,65.0,-1.0,24.0,-941.0,265.0
-4.0,-244.0,79.0,-22.0,67.0,0.0,21.0,-941.0,264.0
0.0,-245.0,76.0,-20.0,66.0,-1.0,20.0,-932.0,265.0
0.0,-243.0,75.0,-15.0,65.0,-1.0,18.0,-936.0,264.0
0.0,-239.0,75.0,-12.0,65.0,0.0,19.0,-937.0,264.0
-1.0,-237.0,73.0,-10.0,67.0,-1.0,19.0,-930.0,264.0
0.0,-241.0,75.0,-12.0,67.0,-1.0,21.0,-926.0,264.0
-2.0,-242.0,77.0,-14.0,67.0,-1.0,23.0,-927.0,264.0
-5.0,-240.0,75.0,-17.0,68.0,-1.0,19.0,-926.0,263.0
-3.0,-236.0,73.0,-23.0,69.0,-3.0,22.0,-922.0,265.0
0.0,-242.0,76.0,-29.0,68.0,-4.0,18.0,-923.0,263.0
0.0,-240.0,75.0,-33.0,67.0,-3.0,22.0,-925.0,267.0
-1.0,-242.0,78.0,-38.0,68.0,-4.0,19.0,-924.0,267.0
-3.0,-241.0,77.0,-41.0,69.0,-2.0,17.0,-930.0,270.0
-2.0,-244.0,73.0,-42.0,70.0,-3.0,16.0,-933.0,270.0
0.0,-245.0,78.0,-42.0,71.0,-2.0,21.0,-933.0,272.0
-4.0,-246.0,74.0,-41.0,71.0,-4.0,18.0,-931.0,269.0
0.0,-244.0,74.0,-42.0,71.0,-3.0,19.0,-932.0,273.0
-3.0,-246.0,72.0,-40.0,71.0,-3.0,19.0,-933.0,264.0
-2.0,-246.0,75.0,-38.0,71.0,-3.0,18.0,-939.0,266.0
-3.0,-247.0,76.0,-36.0,71.0,-4.0,20.0,-937.0,265.0
-4.0,-242.0,78.0,-34.0,72.0,-4.0,23.0,-942.0,266.0
0.0,-244.0,74.0,-31.0,71.0,-2.0,18.0,-939.0,262.0
0.0,-245.0,84.0,-28.0,70.0,-3.0,20.0,-935.0,267.0
-2.0,-241.0,75.0,-27.0,72.0,-3.0,20.0,-936.0,264.0
-2.0,-244.0,74.0,-25.0,72.0,-3.0,20.0,-932.0,263.0
-2.0,-240.0,72.0,-25.0,72.0,-3.0,20.0,-932.0,261.0
0.0,-242.0,75.0,-25.0,71.0,-3.0,22.0,-933.0,266.0
-2.0,-243.0,74.0,-26.0,72.0,-3.0,23.0,-929.0,270.0
0.0,-244.0,77.0,-28.0,71.0,-4.0,24.0,-936.0,264.0
-3.0,-243.0,74.0,-29.0,71.0,-3.0,24.0,-931.0,264.0
-1.0,-245.0,78.0,-27.0,70.0,-3.0,17.0,-932.0,262.0
-1.0,-244.0,74.0,-23.0,69.0,-3.0,21.0,-931.0,256.0
-2.0,-246.0,75.0,-18.0,66.0,-2.0,19.0,-934.0,258.0
-3.0,-244.0,74.0,-15.0,66.0,-1.0,18.0,-934.0,253.0
-3.0,-243.0,73.0,-12.0,66.0,-2.0,15.0,-930.0,251.0
-4.0,-242.0,77.0,-12.0,65.0,-2.0,12.0,-932.0,250.0
-3.0,-242.0,77.0,-12.0,63.0,-2.0,9.0,-925.0,252.0
-2.0,-242.0,75.0,-12.0,61.0,-3.0,16.0,-928.0,260.0
-5.0,-241.0,74.0,-14.0,61.0,-3.0,12.0,-928.0,261.0
-5.0,-242.0,75.0,-17.0,60.0,-3.0,10.0,-923.0,262.0
0.0,-243.0,75.0,-20.0,62.0,-3.0,14.0,-927.0,254.0
-4.0,-241.0,76.0,-25.0,63.0,-2.0,17.0,-932.0,264.0
-3.0,-243.0,75.0,-27.0,65.0,-1.0,20.0,-928.0,263.0
3.0,-242.0,83.0,-30.0,67.0,-1.0,17.0,-937.0,269.0
-2.0,-243.0,77.0,-33.0,68.0,0.0,22.0,-938.0,265.0
0.0,-245.0,79.0,-30.0,70.0,0.0,23.0,-940.0,268.0
-3.0,-243.0,74.0,-30.0,70.0,0.0,31.0,-939.0,265.0
-1.0,-245.0,75.0,-26.0,70.0,0.0,26.0,-946.0,264.0
1.0,-246.0,74.0,-22.0,69.0,0.0,36.0,-940.0,259.0
0.0,-246.0,76.0,-19.0,68.0,-2.0,34.0,-945.0,256.0
-1.0,-246.0,76.0,-17.0,68.0,-2.0,30.0,-943.0,261.0
0.0,-244.0,74.0,-15.0,66.0,-2.0,27.0,-940.0,258.0
0.0,-244.0,74.0,-13.0,65.0,-3.0,26.0,-935.0,261.0
-2.0,-245.0,67.0,-10.0,65.0,-4.0,27.0,-940.0,259.0
-2.0,-245.0,74.0,-6.0,66.0,-4.0,21.0,-936.0,262.0
0.0,-242.0,72.0,-3.0,66.0,-5.0,27.0,-934.0,256.0
-3.0,-244.0,73.0,1.0,66.0,-6.0,17.0,-932.0,254.0
-4.0,-243.0,68.0,2.0,65.0,-6.0,23.0,-933.0,255.0
-2.0,-244.0,73.0,4.0,67.0,-6.0,22.0,-928.0,258.0
-3.0,-239.0,73.0,2.0,67.0,-5.0,17.0,-931.0,247.0
-1.0,-243.0,73.0,3.0,67.0,-6.0,9.0,-928.0,252.0
-4.0,-242.0,74.0,1.0,69.0,-7.0,12.0,-928.0,252.0
-5.0,-244.0,73.0,-2.0,69.0,-6.0,16.0,-930.0,252.0
-3.0,-244.0,74.0,-3.0,70.0,-5.0,14.0,-930.0,253.0
-6.0,-241.0,75.0,-6.0,71.0,-3.0,14.0,-930.0,255.0
-3.0,-247.0,67.0,-7.0,71.0,-3.0,12.0,-933.0,259.0
-4.0,-243.0,72.0,-8.0,72.0,-3.0,15.0,-934.0,261.0
0.0,-245.0,75.0,-8.0,70.0,-2.0,20.0,-939.0,262.0
-3.0,-244.0,74.0,-7.0,72.0,-2.0,21.0,-942.0,259.0
-2.0,-246.0,77.0,-6.0,71.0,-3.0,23.0,-940.0,262.0
-2.0,-247.0,76.0,-6.0,70.0,-2.0,20.0,-944.0,263.0
-3.0,-247.0,76.0,-5.0,70.0,-4.0,24.0,-939.0,264.0
0.0,-246.0,76.0,-3.0,70.0,-3.0,30.0,-937.0,264.0
-3.0,-243.0,75.0,-2.0,69.0,-5.0,25.0,-939.0,261.0
0.0,-241.0,77.0,0.0,70.0,-6.0,26.0,-935.0,266.0
0.0,-243.0,78.0,2.0,68.0,-6.0,22.0,-932.0,267.0
-4.0,-243.0,74.0,3.0,66.0,-8.0,22.0,-937.0,261.0
0.0,-245.0,73.0,3.0,65.0,-6.0,24.0,-933.0,259.0
-1.0,-244.0,75.0,2.0,66.0,-6.0,20.0,-936.0,263.0
-2.0,-244.0,72.0,4.0,66.0,-7.0,21.0,-928.0,258.0
-1.0,-243.0,75.0,3.0,68.0,-8.0,26.0,-928.0,269.0
-1.0,-242.0,81.0,2.0,69.0,-6.0,16.0,-927.0,269.0
-1.0,-243.0,77.0,0.0,69.0,-6.0,17.0,-932.0,265.0
-4.0,-241.0,75.0,1.0,71.0,-5.0,15.0,-928.0,265.0
-4.0,-241.0,73.0,-1.0,70.0,-3.0,17.0,-934.0,264.0
-4.0,-244.0,77.0,-1.0,72.0,-2.0,19.0,-931.0,264.0
-3.0,-243.0,79.0,-2.0,74.0,-2.0,16.0,-932.0,269.0
2.0,-241.0,76.0,0.0,73.0,-2.0,17.0,-937.0,268.0
-2.0,-242.0,80.0,1.0,72.0,-2.0,20.0,-932.0,267.0
-3.0,-243.0,76.0,2.0,73.0,-2.0,18.0,-931.0,268.0
-2.0,-244.0,77.0,3.0,73.0,-1.0,17.0,-938.0,262.0
-1.0,-244.0,76.0,4.0,70.0,-1.0,22.0,-937.0,263.0
0.0,-243.0,74.0,5.0,70.0,-3.0,17.0,-933.0,266.0
-5.0,-243.0,78.0,4.0,69.0,-3.0,23.0,-934.0,261.0
0.0,-245.0,74.0,5.0,67.0,-3.0,20.0,-937.0,263.0
0.0,-246.0,75.0,3.0,67.0,-2.0,25.0,-933.0,265.0
-1.0,-243.0,78.0,3.0,66.0,-3.0,25.0,-933.0,272.0
0.0,-243.0,77.0,3.0,66.0,-2.0,27.0,-932.0,264.0
-2.0,-244.0,78.0,5.0,65.0,-1.0,27.0,-930.0,261.0
-1.0,-242.0,73.0,6.0,66.0,-1.0,24.0,-935.0,266.0
0.0,-243.0,75.0,7.0,66.0,-5.0,21.0,-932.0,266.0
0.0,-245.0,77.0,7.0,66.0,-5.0,22.0,-931.0,265.0
-2.0,-244.0,77.0,9.0,66.0,-6.0,21.0,-932.0,269.0
-1.0,-243.0,77.0,10.0,68.0,-5.0,23.0,-934.0,268.0
-3.0,-242.0,77.0,11.0,68.0,-6.0,26.0,-936.0,264.0
1.0,-245.0,77.0,11.0,69.0,-7.0,22.0,-934.0,266.0
-3.0,-243.0,76.0,11.0,69.0,-6.0,25.0,-933.0,263.0
-1.0,-242.0,76.0,10.0,71.0,-7.0,18.0,-929.0,264.0
-2.0,-238.0,71.0,8.0,71.0,-6.0,25.0,-935.0,264.0
-1.0,-247.0,77.0,9.0,73.0,-7.0,19.0,-932.0,262.0
0.0,-245.0,73.0,8.0,74.0,-6.0,18.0,-934.0,270.0
0.0,-242.0,75.0,8.0,71.0,-5.0,16.0,-933.0,266.0
-1.0,-244.0,74.0,6.0,71.0,-4.0,16.0,-933.0,263.0
-3.0,-245.0,75.0,6.0,70.0,-3.0,18.0,-937.0,269.0
-4.0,-242.0,72.0,6.0,71.0,-4.0,18.0,-934.0,265.0
-3.0,-246.0,77.0,7.0,69.0,-4.0,18.0,-937.0,270.0
-6.0,-243.0,74.0,9.0,68.0,-3.0,28.0,-929.0,267.0
-3.0,-242.0,77.0,11.0,69.0,-2.0,20.0,-941.0,268.0
-4.0,-241.0,75.0,11.0,68.0,-3.0,20.0,-938.0,267.0
-1.0,-244.0,73.0,14.0,69.0,-4.0,21.0,-933.0,268.0
-3.0,-242.0,77.0,17.0,69.0,-4.0,24.0,-938.0,269.0
0.0,-246.0,76.0,17.0,70.0,-3.0,24.0,-929.0,271.0
-1.0,-242.0,74.0,19.0,70.0,-4.0,21.0,-932.0,268.0
0.0,-244.0,74.0,20.0,70.0,-3.0,22.0,-934.0,273.0
0.0,-241.0,79.0,19.0,71.0,-4.0,19.0,-931.0,268.0
0.0,-244.0,78.0,16.0,72.0,-4.0,21.0,-929.0,268.0
0.0,-243.0,78.0,15.0,72.0,-4.0,20.0,-932.0,271.0
-2.0,-240.0,80.0,12.0,71.0,-5.0,22.0,-930.0,275.0
-4.0,-241.0,79.0,10.0,70.0,-5.0,22.0,-926.0,273.0
-2.0,-239.0,72.0,7.0,69.0,-4.0,17.0,-929.0,271.0
-1.0,-244.0,76.0,7.0,69.0,-3.0,19.0,-926.0,266.0
0.0,-241.0,81.0,4.0,68.0,-4.0,19.0,-929.0,270.0
-1.0,-240.0,75.0,3.0,68.0,-4.0,18.0,-924.0,269.0
-2.0,-239.0,77.0,4.0,67.0,-5.0,18.0,-929.0,267.0
-2.0,-243.0,77.0,5.0,67.0,-3.0,18.0,-930.0,269.0
0.0,-246.0,75.0,4.0,67.0,-3.0,20.0,-933.0,269.0
-1.0,-243.0,80.0,2.0,68.0,-1.0,19.0,-937.0,272.0
1.0,-246.0,77.0,1.0,68.0,-2.0,25.0,-936.0,270.0
-1.0,-243.0,77.0,2.0,69.0,-2.0,21.0,-931.0,267.0
-1.0,-242.0,77.0,1.0,69.0,-2.0,21.0,-928.0,269.0
0.0,-240.0,81.0,0.0,69.0,-1.0,26.0,-933.0,276.0
-2.0,-245.0,76.0,1.0,69.0,-2.0,25.0,-934.0,277.0
0.0,-245.0,77.0,3.0,69.0,-3.0,23.0,-930.0,269.0
0.0,-242.0,77.0,4.0,70.0,-2.0,27.0,-930.0,268.0
0.0,-243.0,76.0,5.0,70.0,-3.0,19.0,-934.0,273.0
-1.0,-244.0,80.0,6.0,72.0,-4.0,21.0,-935.0,270.0
-4.0,-246.0,78.0,7.0,73.0,-2.0,21.0,-935.0,271.0
-1.0,-241.0,81.0,6.0,72.0,-4.0,22.0,-932.0,274.0
-6.0,-239.0,76.0,6.0,74.0,-5.0,21.0,-931.0,275.0
-1.0,-241.0,78.0,3.0,73.0,-5.0,21.0,-932.0,273.0
-2.0,-242.0,75.0,1.0,71.0,-5.0,24.0,-935.0,274.0
-1.0,-241.0,78.0,-2.0,71.0,-6.0,21.0,-934.0,276.0
2.0,-237.0,82.0,-4.0,71.0,-5.0,21.0,-935.0,277.0
-2.0,-246.0,78.0,-4.0,71.0,-5.0,19.0,-930.0,274.0
0.0,-243.0,77.0,-2.0,70.0,-5.0,19.0,-937.0,271.0
-1.0,-245.0,78.0,2.0,70.0,-4.0,16.0,-932.0,273.0
-2.0,-244.0,78.0,7.0,70.0,-4.0,16.0,-937.0,264.0
-3.0,-240.0,79.0,15.0,69.0,-5.0,16.0,-937.0,273.0
-1.0,-242.0,74.0,20.0,69.0,-4.0,18.0,-934.0,267.0
-1.0,-240.0,76.0,25.0,68.0,-4.0,18.0,-929.0,270.0
-3.0,-241.0,77.0,27.0,69.0,-5.0,19.0,-925.0,270.0
-3.0,-240.0,80.0,27.0,68.0,-7.0,18.0,-922.0,271.0
-3.0,-239.0,77.0,25.0,69.0,-6.0,16.0,-926.0,271.0
-1.0,-238.0,77.0,19.0,70.0,-7.0,16.0,-918.0,270.0
0.0,-239.0,75.0,15.0,71.0,-7.0,20.0,-921.0,272.0
-2.0,-240.0,76.0,10.0,71.0,-7.0,19.0,-925.0,278.0
-4.0,-238.0,78.0,6.0,72.0,-7.0,15.0,-927.0,278.0
-3.0,-241.0,77.0,2.0,74.0,-6.0,19.0,-925.0,280.0
0.0,-243.0,80.0,2.0,73.0,-4.0,18.0,-930.0,283.0
-1.0,-241.0,81.0,2.0,74.0,-3.0,19.0,-928.0,278.0
-2.0,-244.0,83.0,3.0,74.0,-3.0,20.0,-928.0,281.0
-2.0,-245.0,79.0,4.0,72.0,-3.0,19.0,-930.0,279.0
0.0,-243.0,82.0,4.0,71.0,-4.0,20.0,-929.0,280.0
-3.0,-242.0,81.0,5.0,71.0,-3.0,27.0,-934.0,277.0
-3.0,-242.0,79.0,3.0,69.0,-4.0,27.0,-926.0,277.0
-1.0,-241.0,76.0,2.0,69.0,-5.0,23.0,-936.0,275.0
-2.0,-241.0,79.0,-1.0,68.0,-6.0,26.0,-935.0,279.0
0.0,-242.0,79.0,-2.0,69.0,-6.0,19.0,-928.0,269.0
-1.0,-242.0,78.0,-3.0,71.0,-6.0,24.0,-925.0,271.0
-1.0,-243.0,76.0,-6.0,69.0,-4.0,26.0,-930.0,275.0
0.0,-242.0,78.0,-7.0,69.0,-5.0,19.0,-931.0,274.0
-1.0,-244.0,78.0,-8.0,68.0,-6.0,20.0,-932.0,273.0
-3.0,-240.0,75.0,-8.0,69.0,-4.0,19.0,-929.0,272.0
-4.0,-241.0,75.0,-8.0,69.0,-4.0,18.0,-930.0,274.0
-3.0,-237.0,75.0,-8.0,68.0,-2.0,26.0,-924.0,273.0
-5.0,-243.0,76.0,-7.0,68.0,-3.0,21.0,-928.0,265.0
0.0,-242.0,78.0,-7.0,66.0,-2.0,23.0,-929.0,273.0
-1.0,-240.0,77.0,-7.0,66.0,-3.0,22.0,-926.0,269.0
-3.0,-240.0,77.0,-6.0,66.0,-3.0,22.0,-929.0,271.0
-1.0,-243.0,77.0,-6.0,66.0,-2.0,20.0,-927.0,267.0
-4.0,-241.0,78.0,-4.0,66.0,-1.0,20.0,-923.0,272.0
0.0,-243.0,77.0,-5.0,66.0,-2.0,23.0,-924.0,270.0
0.0,-243.0,77.0,-5.0,67.0,-2.0,22.0,-931.0,274.0
-1.0,-241.0,75.0,-5.0,68.0,-3.0,20.0,-927.0,276.0
0.0,-242.0,79.0,-5.0,68.0,-2.0,25.0,-930.0,275.0
-2.0,-243.0,81.0,-6.0,68.0,-2.0,14.0,-931.0,279.0
-1.0,-241.0,77.0,-6.0,71.0,-2.0,24.0,-933.0,281.0
0.0,-245.0,77.0,-7.0,69.0,-3.0,21.0,-931.0,273.0
-1.0,-243.0,80.0,-6.0,71.0,-2.0,20.0,-929.0,275.0
-1.0,-244.0,82.0,-5.0,71.0,-5.0,20.0,-936.0,280.0
-1.0,-243.0,77.0,-4.0,70.0,-6.0,24.0,-934.0,279.0
-2.0,-245.0,79.0,-1.0,69.0,-5.0,21.0,-938.0,278.0
0.0,-243.0,79.0,2.0,69.0,-6.0,23.0,-931.0,274.0
-4.0,-244.0,80.0,4.0,68.0,-5.0,21.0,-930.0,280.0
-6.0,-240.0,77.0,6.0,67.0,-4.0,23.0,-926.0,278.0
-4.0,-243.0,81.0,9.0,68.0,-5.0,22.0,-929.0,279.0
0.0,-241.0,79.0,10.0,66.0,-3.0,19.0,-920.0,277.0
-2.0,-241.0,79.0,9.0,67.0,-4.0,17.0,-928.0,283.0
-4.0,-238.0,80.0,9.0,67.0,-4.0,19.0,-925.0,282.0
-2.0,-241.0,83.0,7.0,67.0,-3.0,20.0,-924.0,274.0
-2.0,-240.0,82.0,6.0,67.0,-3.0,15.0,-923.0,282.0
-2.0,-241.0,77.0,5.0,69.0,-2.0,20.0,-925.0,283.0
-3.0,-241.0,80.0,4.0,70.0,-4.0,18.0,-925.0,278.0
-3.0,-240.0,78.0,2.0,70.0,-2.0,17.0,-927.0,277.0
-1.0,-241.0,79.0,1.0,69.0,-1.0,18.0,-922.0,282.0
-2.0,-243.0,77.0,-1.0,71.0,-1.0,17.0,-926.0,277.0
0.0,-243.0,80.0,-2.0,70.0,-4.0,22.0,-931.0,281.0
0.0,-242.0,83.0,-3.0,72.0,-4.0,24.0,-932.0,285.0
0.0,-243.0,77.0,-5.0,72.0,-3.0,18.0,-928.0,280.0
1.0,-238.0,77.0,-6.0,73.0,-4.0,27.0,-927.0,279.0
0.0,-241.0,78.0,-6.0,73.0,-4.0,25.0,-931.0,276.0
-2.0,-240.0,77.0,-7.0,71.0,-5.0,30.0,-930.0,281.0
-1.0,-242.0,84.0,-6.0,71.0,-4.0,21.0,-926.0,277.0
-3.0,-243.0,81.0,-6.0,70.0,-3.0,25.0,-925.0,278.0
-1.0,-244.0,81.0,-7.0,68.0,-4.0,25.0,-930.0,282.0
-2.0,-243.0,78.0,-6.0,67.0,-4.0,22.0,-931.0,281.0
-1.0,-242.0,78.0,-6.0,68.0,-4.0,23.0,-928.0,281.0
0.0,-241.0,79.0,-5.0,67.0,-4.0,28.0,-928.0,277.0
-3.0,-242.0,77.0,-6.0,68.0,-5.0,23.0,-932.0,279.0
1.0,-245.0,76.0,-5.0,68.0,-6.0,17.0,-934.0,276.0
0.0,-242.0,78.0,-6.0,68.0,-5.0,24.0,-930.0,276.0
-2.0,-240.0,77.0,-7.0,67.0,-7.0,20.0,-930.0,275.0
-2.0,-242.0,77.0,-7.0,66.0,-6.0,17.0,-924.0,272.0
-2.0,-243.0,81.0,-8.0,68.0,-6.0,21.0,-931.0,275.0
0.0,-242.0,81.0,-8.0,69.0,-4.0,19.0,-932.0,276.0
0.0,-242.0,82.0,-8.0,69.0,-3.0,20.0,-928.0,278.0
-3.0,-242.0,80.0,-6.0,70.0,-2.0,18.0,-927.0,276.0
-3.0,-242.0,81.0,-4.0,72.0,-3.0,19.0,-929.0,273.0
0.0,-241.0,83.0,-2.0,72.0,-2.0,16.0,-931.0,281.0
-1.0,-239.0,81.0,-1.0,70.0,0.0,25.0,-924.0,277.0
-1.0,-244.0,79.0,1.0,70.0,0.0,20.0,-927.0,277.0
0.0,-241.0,78.0,2.0,69.0,-1.0,22.0,-927.0,282.0
-1.0,-242.0,79.0,3.0,71.0,-2.0,16.0,-931.0,279.0
-2.0,-242.0,80.0,2.0,71.0,-3.0,17.0,-930.0,282.0
0.0,-241.0,77.0,0.0,70.0,-2.0,21.0,-927.0,285.0
-1.0,-241.0,77.0,-1.0,71.0,-5.0,22.0,-924.0,282.0
-1.0,-241.0,79.0,-3.0,69.0,-5.0,26.0,-922.0,283.0
0.0,-241.0,79.0,-4.0,69.0,-4.0,24.0,-924.0,283.0
-5.0,-238.0,78.0,-6.0,68.0,-5.0,19.0,-924.0,281.0
0.0,-243.0,80.0,-7.0,67.0,-6.0,25.0,-930.0,277.0
0.0,-242.0,78.0,-9.0,67.0,-6.0,22.0,-923.0,280.0
-4.0,-241.0,79.0,-9.0,65.0,-5.0,19.0,-926.0,281.0
-2.0,-244.0,77.0,-10.0,66.0,-6.0,19.0,-923.0,278.0
-3.0,-242.0,80.0,-10.0,66.0,-4.0,16.0,-928.0,283.0
0.0,-242.0,76.0,-9.0,67.0,-4.0,20.0,-929.0,280.0
-4.0,-239.0,78.0,-7.0,69.0,-3.0,16.0,-931.0,279.0
0.0,-247.0,80.0,-5.0,70.0,-3.0,21.0,-930.0,280.0
-3.0,-243.0,77.0,-2.0,72.0,-2.0,20.0,-928.0,277.0
-2.0,-242.0,78.0,1.0,72.0,-2.0,21.0,-929.0,280.0
-1.0,-242.0,81.0,0.0,71.0,-3.0,23.0,-925.0,279.0
0.0,-239.0,75.0,0.0,71.0,-3.0,19.0,-930.0,283.0
-3.0,-241.0,76.0,-2.0,69.0,-3.0,23.0,-924.0,276.0
0.0,-244.0,77.0,-3.0,70.0,-2.0,31.0,-924.0,279.0
-1.0,-238.0,79.0,-4.0,69.0,-2.0,20.0,-927.0,281.0
0.0,-242.0,79.0,-7.0,68.0,-4.0,27.0,-926.0,280.0
-1.0,-241.0,76.0,-10.0,69.0,-4.0,23.0,-927.0,281.0
0.0,-238.0,82.0,-12.0,69.0,-4.0,23.0,-927.0,281.0
0.0,-243.0,76.0,-15.0,68.0,-4.0,24.0,-929.0,281.0
0.0,-239.0,81.0,-13.0,68.0,-4.0,17.0,-924.0,283.0
-1.0,-242.0,78.0,-13.0,67.0,-3.0,25.0,-930.0,278.0
-3.0,-244.0,80.0,-11.0,68.0,-4.0,25.0,-925.0,283.0
-3.0,-240.0,80.0,-8.0,69.0,-5.0,21.0,-927.0,279.0
-2.0,-242.0,82.0,-7.0,69.0,-4.0,17.0,-927.0,281.0
-3.0,-241.0,79.0,-6.0,70.0,-6.0,19.0,-932.0,279.0
-2.0,-242.0,79.0,-7.0,71.0,-4.0,17.0,-929.0,282.0
-2.0,-243.0,77.0,-9.0,71.0,-6.0,16.0,-936.0,279.0
-6.0,-238.0,81.0,-9.0,71.0,-4.0,19.0,-932.0,287.0
1.0,-240.0,81.0,-13.0,70.0,-5.0,20.0,-931.0,283.0
-2.0,-244.0,78.0,-14.0,71.0,-5.0,18.0,-932.0,283.0
-1.0,-242.0,81.0,-15.0,71.0,-6.0,17.0,-937.0,284.0
-4.0,-244.0,79.0,-15.0,70.0,-4.0,21.0,-937.0,283.0
-2.0,-243.0,76.0,-11.0,71.0,-2.0,22.0,-937.0,278.0
-3.0,-244.0,80.0,-6.0,70.0,-2.0,22.0,-938.0,282.0
-1.0,-238.0,78.0,1.0,70.0,-1.0,21.0,-934.0,276.0
0.0,-244.0,82.0,8.0,68.0,0.0,19.0,-932.0,279.0
0.0,-244.0,77.0,14.0,67.0,-2.0,24.0,-926.0,275.0
0.0,-244.0,79.0,17.0,68.0,-1.0,23.0,-932.0,276.0
0.0,-241.0,78.0,22.0,68.0,-2.0,20.0,-928.0,273.0
1.0,-240.0,78.0,22.0,68.0,-2.0,23.0,-918.0,276.0
0.0,-238.0,81.0,21.0,68.0,-4.0,21.0,-920.0,277.0
-1.0,-240.0,77.0,18.0,68.0,-5.0,21.0,-914.0,280.0
-2.0,-237.0,79.0,13.0,68.0,-6.0,19.0,-920.0,282.0
-3.0,-238.0,80.0,8.0,69.0,-5.0,14.0,-921.0,281.0
-4.0,-239.0,82.0,3.0,69.0,-5.0,19.0,-921.0,284.0
-5.0,-238.0,80.0,-1.0,70.0,-6.0,19.0,-924.0,287.0
-3.0,-242.0,80.0,-1.0,71.0,-6.0,17.0,-924.0,286.0
0.0,-243.0,83.0,-3.0,70.0,-6.0,15.0,-923.0,286.0
-3.0,-243.0,83.0,-2.0,71.0,-5.0,20.0,-934.0,286.0
-1.0,-243.0,78.0,-2.0,70.0,-3.0,19.0,-928.0,289.0
-1.0,-244.0,81.0,-2.0,70.0,-2.0,20.0,-928.0,282.0
-2.0,-243.0,77.0,0.0,71.0,-3.0,27.0,-929.0,285.0
-3.0,-240.0,80.0,-2.0,70.0,-4.0,20.0,-932.0,281.0
-2.0,-245.0,79.0,-3.0,70.0,-5.0,18.0,-931.0,283.0
0.0,-244.0,77.0,-5.0,68.0,-3.0,28.0,-932.0,281.0
2.0,-244.0,78.0,-5.0,69.0,-2.0,23.0,-929.0,279.0
-1.0,-241.0,81.0,-6.0,69.0,-2.0,24.0,-928.0,282.0
-1.0,-240.0,79.0,-8.0,69.0,-1.0,30.0,-929.0,283.0
1.0,-244.0,81.0,-9.0,69.0,-2.0,27.0,-928.0,281.0
1.0,-244.0,81.0,-9.0,69.0,-2.0,28.0,-924.0,283.0
0.0,-240.0,82.0,-8.0,68.0,-1.0,24.0,-927.0,280.0
-1.0,-242.0,79.0,-8.0,69.0,0.0,26.0,-921.0,280.0
0.0,-240.0,78.0,-7.0,69.0,-1.0,25.0,-931.0,280.0
0.0,-240.0,81.0,-5.0,68.0,-1.0,22.0,-924.0,283.0
-1.0,-243.0,76.0,-5.0,69.0,-1.0,21.0,-927.0,280.0
-1.0,-240.0,80.0,-5.0,69.0,-2.0,25.0,-927.0,282.0
0.0,-238.0,82.0,-5.0,67.0,-3.0,21.0,-924.0,279.0
-2.0,-238.0,78.0,-4.0,67.0,-3.0,27.0,-925.0,282.0
-2.0,-242.0,81.0,-6.0,68.0,-3.0,20.0,-930.0,276.0
-1.0,-244.0,78.0,-7.0,68.0,-3.0,23.0,-927.0,283.0
0.0,-241.0,83.0,-9.0,68.0,-2.0,17.0,-928.0,278.0
0.0,-243.0,79.0,-8.0,68.0,-3.0,20.0,-930.0,285.0
-1.0,-243.0,80.0,-8.0,68.0,-3.0,17.0,-928.0,284.0
0.0,-242.0,84.0,-8.0,70.0,-3.0,17.0,-926.0,289.0
-2.0,-242.0,79.0,-6.0,71.0,-3.0,20.0,-930.0,284.0
-3.0,-242.0,79.0,-4.0,69.0,-2.0,17.0,-930.0,284.0
-2.0,-241.0,81.0,-2.0,68.0,-3.0,17.0,-935.0,283.0
-1.0,-241.0,79.0,0.0,68.0,-3.0,20.0,-927.0,282.0
-1.0,-243.0,76.0,2.0,67.0,-1.0,20.0,-932.0,283.0
-1.0,-244.0,80.0,2.0,68.0,0.0,19.0,-930.0,281.0
1.0,-243.0,79.0,3.0,67.0,-1.0,19.0,-927.0,281.0
-1.0,-243.0,78.0,3.0,69.0,-1.0,26.0,-924.0,282.0
-1.0,-242.0,81.0,4.0,70.0,-2.0,20.0,-924.0,282.0
-3.0,-240.0,78.0,3.0,69.0,-2.0,22.0,-920.0,283.0
-2.0,-240.0,82.0,3.0,70.0,-2.0,22.0,-925.0,282.0
-3.0,-240.0,80.0,1.0,71.0,-2.0,27.0,-919.0,283.0
-2.0,-243.0,79.0,2.0,68.0,-4.0,19.0,-920.0,281.0
-1.0,-240.0,83.0,2.0,68.0,-4.0,25.0,-924.0,281.0
3.0,-242.0,78.0,0.0,69.0,-3.0,19.0,-922.0,281.0
-2.0,-239.0,82.0,1.0,69.0,-3.0,20.0,-923.0,282.0
-4.0,-243.0,82.0,2.0,69.0,-3.0,22.0,-926.0,288.0
-3.0,-240.0,83.0,3.0,70.0,-2.0,18.0,-923.0,287.0
-2.0,-241.0,81.0,5.0,70.0,-2.0,20.0,-929.0,287.0
0.0,-243.0,81.0,5.0,70.0,-3.0,20.0,-925.0,285.0
0.0,-243.0,80.0,5.0,70.0,-3.0,21.0,-926.0,286.0
-1.0,-240.0,79.0,7.0,70.0,-4.0,23.0,-934.0,287.0
0.0,-243.0,82.0,9.0,70.0,-4.0,20.0,-929.0,285.0
-2.0,-240.0,78.0,11.0,68.0,-4.0,17.0,-923.0,290.0
-2.0,-242.0,79.0,9.0,68.0,-3.0,19.0,-927.0,288.0
-2.0,-240.0,73.0,9.0,66.0,-4.0,19.0,-925.0,283.0
-3.0,-241.0,80.0,7.0,64.0,-5.0,14.0,-921.0,285.0
-1.0,-240.0,79.0,5.0,63.0,-3.0,18.0,-926.0,287.0
-1.0,-238.0,81.0,0.0,61.0,-2.0,17.0,-920.0,291.0
-3.0,-240.0,85.0,-7.0,59.0,-4.0,20.0,-923.0,287.0
-5.0,-241.0,80.0,-16.0,54.0,-3.0,22.0,-925.0,284.0
-1.0,-241.0,82.0,-28.0,52.0,-7.0,18.0,-923.0,277.0
-2.0,-240.0,78.0,-43.0,51.0,-9.0,14.0,-928.0,278.0
-6.0,-240.0,82.0,-58.0,50.0,-14.0,14.0,-930.0,276.0
-4.0,-242.0,81.0,-71.0,49.0,-15.0,16.0,-933.0,274.0
-5.0,-241.0,78.0,-85.0,53.0,-16.0,15.0,-926.0,276.0
0.0,-243.0,76.0,-94.0,57.0,-14.0,10.0,-927.0,274.0
0.0,-241.0,76.0,-100.0,63.0,-13.0,20.0,-931.0,272.0
0.0,-241.0,77.0,-102.0,71.0,-13.0,24.0,-933.0,271.0
0.0,-244.0,76.0,-101.0,77.0,-10.0,29.0,-933.0,274.0
-1.0,-244.0,77.0,-99.0,82.0,-12.0,24.0,-927.0,270.0
-2.0,-240.0,82.0,-97.0,86.0,-12.0,35.0,-927.0,272.0
1.0,-239.0,78.0,-95.0,85.0,-13.0,35.0,-925.0,273.0
2.0,-240.0,76.0,-99.0,84.0,-16.0,35.0,-921.0,279.0
1.0,-237.0,78.0,-107.0,84.0,-18.0,38.0,-920.0,277.0
2.0,-241.0,73.0,-115.0,84.0,-21.0,37.0,-923.0,275.0
0.0,-241.0,76.0,-127.0,79.0,-26.0,34.0,-925.0,278.0
0.0,-241.0,77.0,-137.0,73.0,-30.0,36.0,-926.0,276.0
4.0,-244.0,81.0,-144.0,64.0,-31.0,36.0,-923.0,279.0
1.0,-239.0,82.0,-150.0,55.0,-32.0,36.0,-922.0,287.0
-1.0,-239.0,80.0,-156.0,49.0,-31.0,36.0,-923.0,285.0
1.0,-242.0,82.0,-165.0,49.0,-31.0,34.0,-922.0,289.0
-2.0,-236.0,85.0,-174.0,51.0,-32.0,31.0,-919.0,290.0
0.0,-236.0,85.0,-183.0,55.0,-33.0,30.0,-910.0,290.0
-1.0,-234.0,84.0,-198.0,64.0,-31.0,24.0,-913.0,293.0
0.0,-233.0,81.0,-217.0,73.0,-30.0,27.0,-900.0,297.0
0.0,-230.0,80.0,-244.0,81.0,-31.0,28.0,-900.0,295.0
-6.0,-227.0,82.0,-280.0,86.0,-32.0,24.0,-895.0,289.0
-6.0,-230.0,85.0,-321.0,88.0,-32.0,16.0,-892.0,296.0
-5.0,-229.0,82.0,-370.0,86.0,-30.0,22.0,-894.0,284.0
-2.0,-230.0,77.0,-417.0,84.0,-29.0,21.0,-897.0,285.0
0.0,-230.0,76.0,-462.0,84.0,-29.0,25.0,-898.0,283.0
0.0,-235.0,78.0,-501.0,85.0,-28.0,22.0,-903.0,282.0
-1.0,-233.0,73.0,-535.0,87.0,-25.0,25.0,-907.0,274.0
-2.0,-235.0,77.0,-566.0,90.0,-22.0,20.0,-916.0,269.0
0.0,-236.0,71.0,-590.0,91.0,-21.0,28.0,-913.0,262.0
0.0,-242.0,75.0,-611.0,92.0,-19.0,30.0,-918.0,252.0
0.0,-239.0,70.0,-626.0,96.0,-20.0,31.0,-920.0,256.0
2.0,-239.0,76.0,-634.0,101.0,-22.0,32.0,-923.0,250.0
0.0,-238.0,71.0,-640.0,103.0,-25.0,36.0,-918.0,244.0
3.0,-239.0,72.0,-648.0,106.0,-29.0,40.0,-925.0,239.0
1.0,-242.0,65.0,-659.0,110.0,-32.0,34.0,-925.0,235.0
0.0,-241.0,67.0,-672.0,110.0,-35.0,40.0,-928.0,237.0
-1.0,-243.0,67.0,-686.0,110.0,-37.0,38.0,-930.0,230.0
2.0,-245.0,66.0,-701.0,110.0,-38.0,41.0,-933.0,234.0
1.0,-241.0,64.0,-718.0,113.0,-42.0,41.0,-929.0,228.0
3.0,-240.0,67.0,-737.0,112.0,-47.0,41.0,-925.0,231.0
0.0,-237.0,67.0,-754.0,112.0,-51.0,34.0,-925.0,227.0
0.0,-239.0,67.0,-773.0,114.0,-56.0,34.0,-918.0,221.0
0.0,-237.0,62.0,-796.0,120.0,-56.0,30.0,-917.0,214.0
0.0,-236.0,57.0,-824.0,128.0,-57.0,28.0,-908.0,209.0
-2.0,-235.0,60.0,-852.0,138.0,-54.0,18.0,-911.0,209.0
-1.0,-237.0,60.0,-882.0,149.0,-53.0,21.0,-909.0,200.0
-2.0,-233.0,56.0,-911.0,158.0,-51.0,16.0,-909.0,200.0
-3.0,-234.0,57.0,-934.0,167.0,-48.0,21.0,-902.0,201.0
-2.0,-232.0,57.0,-955.0,172.0,-44.0,15.0,-899.0,196.0
-6.0,-228.0,58.0,-976.0,176.0,-41.0,16.0,-901.0,192.0
-4.0,-236.0,55.0,-997.0,176.0,-39.0,9.0,-906.0,194.0
-5.0,-233.0,60.0,-1011.0,172.0,-36.0,11.0,-910.0,184.0
-2.0,-236.0,54.0,-1021.0,166.0,-33.0,12.0,-915.0,182.0
-3.0,-238.0,55.0,-1033.0,158.0,-29.0,10.0,-919.0,176.0
-4.0,-238.0,47.0,-1049.0,153.0,-27.0,6.0,-926.0,173.0
-5.0,-239.0,52.0,-1072.0,151.0,-27.0,12.0,-917.0,172.0
-5.0,-239.0,50.0,-1098.0,152.0,-26.0,8.0,-916.0,168.0
-1.0,-235.0,51.0,-1132.0,154.0,-27.0,17.0,-919.0,172.0
-4.0,-234.0,50.0,-1169.0,156.0,-30.0,12.0,-913.0,167.0
-2.0,-237.0,52.0,-1208.0,157.0,-30.0,19.0,-909.0,167.0
0.0,-233.0,53.0,-1251.0,157.0,-29.0,23.0,-903.0,164.0
1.0,-235.0,50.0,-1295.0,155.0,-27.0,35.0,-901.0,165.0
1.0,-235.0,54.0,-1339.0,155.0,-22.0,39.0,-901.0,175.0
5.0,-233.0,52.0,-1382.0,152.0,-16.0,47.0,-899.0,176.0
3.0,-232.0,51.0,-1420.0,149.0,-12.0,54.0,-901.0,172.0
5.0,-232.0,50.0,-1458.0,148.0,-7.0,59.0,-899.0,177.0
9.0,-232.0,55.0,-1495.0,143.0,-2.0,65.0,-900.0,183.0
7.0,-230.0,54.0,-1528.0,138.0,1.0,71.0,-894.0,185.0
11.0,-233.0,56.0,-1554.0,130.0,5.0,80.0,-899.0,182.0
14.0,-231.0,51.0,-1579.0,123.0,11.0,93.0,-895.0,183.0
17.0,-234.0,54.0,-1596.0,117.0,19.0,98.0,-895.0,173.0
17.0,-234.0,52.0,-1600.0,110.0,29.0,101.0,-899.0,171.0
16.0,-238.0,56.0,-1587.0,102.0,38.0,106.0,-912.0,176.0
15.0,-245.0,61.0,-1551.0,93.0,46.0,102.0,-928.0,196.0
11.0,-252.0,65.0,-1494.0,81.0,48.0,94.0,-972.0,230.0
13.0,-259.0,71.0,-1422.0,68.0,51.0,70.0,-1023.0,241.0
0.0,-280.0,73.0,-1356.0,47.0,59.0,37.0,-1078.0,242.0
-14.0,-294.0,71.0,-1302.0,15.0,78.0,5.0,-1138.0,238.0
-14.0,-313.0,59.0,-1258.0,-21.0,116.0,-21.0,-1211.0,202.0
-16.0,-332.0,47.0,-1233.0,-48.0,165.0,-33.0,-1286.0,147.0
-20.0,-341.0,20.0,-1229.0,-53.0,224.0,-36.0,-1338.0,55.0
-15.0,-353.0,-17.0,-1259.0,-37.0,284.0,-28.0,-1377.0,-87.0
-18.0,-362.0,-36.0,-1322.0,-8.0,336.0,-36.0,-1406.0,-178.0
-19.0,-365.0,-48.0,-1411.0,22.0,375.0,-44.0,-1421.0,-224.0
-20.0,-368.0,-52.0,-1508.0,38.0,398.0,-46.0,-1422.0,-249.0
-23.0,-372.0,-57.0,-1597.0,37.0,397.0,-46.0,-1449.0,-272.0
-23.0,-381.0,-50.0,-1678.0,27.0,385.0,-44.0,-1475.0,-250.0
-23.0,-391.0,-37.0,-1725.0,28.0,363.0,-52.0,-1511.0,-204.0
-27.0,-401.0,-21.0,-1720.0,45.0,344.0,-50.0,-1545.0,-144.0
-23.0,-408.0,-10.0,-1661.0,72.0,334.0,-61.0,-1553.0,-92.0
-20.0,-406.0,0.0,-1550.0,106.0,328.0,-47.0,-1553.0,-55.0
-20.0,-410.0,0.0,-1428.0,143.0,315.0,-43.0,-1556.0,-41.0
-21.0,-401.0,-4.0,-1250.0,175.0,285.0,-39.0,-1525.0,-46.0
-10.0,-395.0,-3.0,-1056.0,205.0,244.0,-9.0,-1496.0,-68.0
-1.0,-378.0,-17.0,-871.0,231.0,189.0,29.0,-1458.0,-97.0
5.0,-371.0,-26.0,-718.0,250.0,126.0,62.0,-1403.0,-150.0
5.0,-347.0,-49.0,-621.0,263.0,63.0,84.0,-1356.0,-205.0
10.0,-335.0,-52.0,-588.0,255.0,0.0,90.0,-1316.0,-249.0
6.0,-327.0,-61.0,-611.0,228.0,-48.0,78.0,-1274.0,-284.0
6.0,-323.0,-68.0,-664.0,186.0,-72.0,67.0,-1251.0,-310.0
7.0,-321.0,-65.0,-710.0,134.0,-90.0,56.0,-1237.0,-315.0
2.0,-320.0,-69.0,-730.0,87.0,-99.0,50.0,-1231.0,-307.0
0.0,-322.0,-57.0,-717.0,53.0,-99.0,37.0,-1230.0,-286.0
-3.0,-320.0,-53.0,-670.0,40.0,-90.0,17.0,-1233.0,-258.0
-10.0,-324.0,-51.0,-600.0,41.0,-77.0,-3.0,-1240.0,-243.0
-11.0,-322.0,-51.0,-519.0,45.0,-58.0,-15.0,-1235.0,-239.0
-16.0,-321.0,-49.0,-437.0,48.0,-40.0,-19.0,-1222.0,-237.0
-15.0,-313.0,-48.0,-363.0,53.0,-23.0,-32.0,-1206.0,-232.0
-18.0,-309.0,-49.0,-294.0,58.0,-6.0,-34.0,-1189.0,-240.0
-21.0,-302.0,-58.0,-238.0,65.0,5.0,-47.0,-1173.0,-255.0
-24.0,-297.0,-57.0,-202.0,71.0,14.0,-57.0,-1142.0,-268.0
-22.0,-286.0,-62.0,-185.0,71.0,19.0,-66.0,-1110.0,-271.0
-26.0,-273.0,-60.0,-182.0,69.0,25.0,-67.0,-1080.0,-286.0
-29.0,-267.0,-66.0,-194.0,60.0,29.0,-75.0,-1033.0,-291.0
-24.0,-256.0,-63.0,-215.0,44.0,33.0,-70.0,-1001.0,-290.0
-24.0,-249.0,-62.0,-240.0,32.0,33.0,-57.0,-968.0,-303.0
-21.0,-245.0,-67.0,-268.0,23.0,27.0,-48.0,-950.0,-307.0
-21.0,-242.0,-74.0,-300.0,21.0,15.0,-36.0,-936.0,-317.0
-14.0,-241.0,-72.0,-338.0,27.0,2.0,-24.0,-932.0,-323.0
-7.0,-237.0,-68.0,-378.0,39.0,-12.0,-7.0,-924.0,-325.0
-6.0,-239.0,-69.0,-405.0,53.0,-26.0,5.0,-923.0,-320.0
-2.0,-244.0,-69.0,-422.0,66.0,-41.0,16.0,-923.0,-322.0
0.0,-247.0,-73.0,-428.0,76.0,-54.0,22.0,-930.0,-325.0
2.0,-247.0,-74.0,-428.0,83.0,-69.0,23.0,-929.0,-325.0
0.0,-248.0,-72.0,-420.0,85.0,-86.0,24.0,-942.0,-324.0
0.0,-247.0,-73.0,-404.0,86.0,-101.0,32.0,-938.0,-328.0
1.0,-247.0,-71.0,-382.0,83.0,-117.0,38.0,-945.0,-332.0
2.0,-248.0,-75.0,-357.0,80.0,-128.0,41.0,-938.0,-330.0
3.0,-247.0,-72.0,-324.0,78.0,-138.0,41.0,-926.0,-338.0
1.0,-245.0,-72.0,-288.0,79.0,-143.0,43.0,-933.0,-334.0
2.0,-243.0,-79.0,-249.0,77.0,-143.0,39.0,-919.0,-351.0
0.0,-241.0,-77.0,-217.0,77.0,-141.0,37.0,-913.0,-347.0
1.0,-238.0,-82.0,-190.0,78.0,-137.0,35.0,-904.0,-361.0
2.0,-236.0,-82.0,-174.0,75.0,-123.0,33.0,-903.0,-362.0
0.0,-238.0,-76.0,-161.0,70.0,-110.0,28.0,-905.0,-368.0
-2.0,-241.0,-78.0,-147.0,64.0,-94.0,26.0,-902.0,-367.0
1.0,-241.0,-77.0,-132.0,58.0,-81.0,22.0,-914.0,-362.0
-4.0,-241.0,-77.0,-115.0,51.0,-68.0,18.0,-919.0,-355.0
-5.0,-244.0,-77.0,-99.0,43.0,-60.0,17.0,-927.0,-360.0
-7.0,-245.0,-73.0,-83.0,34.0,-51.0,20.0,-930.0,-358.0
0.0,-248.0,-79.0,-66.0,30.0,-47.0,20.0,-941.0,-352.0
1.0,-249.0,-81.0,-44.0,31.0,-42.0,19.0,-932.0,-362.0
-2.0,-246.0,-82.0,-20.0,36.0,-40.0,18.0,-935.0,-364.0
-3.0,-247.0,-80.0,7.0,44.0,-40.0,17.0,-934.0,-366.0
-5.0,-244.0,-83.0,37.0,52.0,-42.0,11.0,-931.0,-356.0
0.0,-244.0,-79.0,65.0,59.0,-43.0,16.0,-920.0,-348.0
-2.0,-241.0,-74.0,89.0,67.0,-45.0,14.0,-917.0,-346.0
-3.0,-240.0,-75.0,107.0,75.0,-48.0,12.0,-912.0,-342.0
-3.0,-233.0,-71.0,119.0,80.0,-51.0,9.0,-896.0,-332.0
-4.0,-233.0,-77.0,124.0,83.0,-55.0,5.0,-891.0,-326.0
-7.0,-229.0,-73.0,128.0,81.0,-59.0,4.0,-872.0,-322.0
-8.0,-224.0,-70.0,132.0,77.0,-62.0,6.0,-855.0,-318.0
-6.0,-221.0,-68.0,136.0,68.0,-66.0,-3.0,-842.0,-314.0
-8.0,-219.0,-68.0,139.0,58.0,-69.0,-5.0,-836.0,-317.0
-10.0,-214.0,-69.0,141.0,49.0,-72.0,-11.0,-831.0,-322.0
-10.0,-212.0,-73.0,135.0,40.0,-77.0,-13.0,-820.0,-328.0
-9.0,-209.0,-75.0,121.0,32.0,-82.0,-13.0,-811.0,-337.0
-11.0,-209.0,-75.0,98.0,24.0,-84.0,-22.0,-806.0,-339.0
-11.0,-206.0,-81.0,66.0,19.0,-88.0,-29.0,-801.0,-347.0
-15.0,-207.0,-80.0,30.0,17.0,-95.0,-32.0,-798.0,-366.0
-21.0,-203.0,-81.0,-7.0,15.0,-103.0,-39.0,-798.0,-368.0
-14.0,-204.0,-82.0,-42.0,13.0,-108.0,-37.0,-794.0,-370.0
-18.0,-205.0,-76.0,-74.0,11.0,-109.0,-40.0,-795.0,-357.0
-18.0,-206.0,-74.0,-99.0,8.0,-110.0,-39.0,-793.0,-360.0
-17.0,-207.0,-80.0,-120.0,2.0,-111.0,-38.0,-794.0,-359.0
-15.0,-209.0,-80.0,-132.0,-4.0,-112.0,-33.0,-800.0,-356.0
-15.0,-207.0,-77.0,-138.0,-14.0,-112.0,-31.0,-798.0,-361.0
-14.0,-207.0,-77.0,-138.0,-26.0,-111.0,-25.0,-797.0,-356.0
-14.0,-209.0,-79.0,-132.0,-40.0,-107.0,-22.0,-797.0,-352.0
-11.0,-209.0,-77.0,-121.0,-52.0,-105.0,-12.0,-797.0,-353.0
-9.0,-208.0,-79.0,-109.0,-60.0,-100.0,-4.0,-797.0,-358.0
-9.0,-208.0,-77.0,-99.0,-64.0,-96.0,2.0,-799.0,-362.0
-6.0,-206.0,-82.0,-90.0,-65.0,-90.0,2.0,-797.0,-362.0
-4.0,-205.0,-82.0,-83.0,-63.0,-88.0,12.0,-791.0,-362.0
-2.0,-203.0,-84.0,-81.0,-56.0,-87.0,19.0,-788.0,-372.0
1.0,-199.0,-82.0,-74.0,-47.0,-89.0,28.0,-773.0,-377.0
1.0,-197.0,-85.0,-69.0,-37.0,-94.0,33.0,-752.0,-381.0
3.0,-192.0,-86.0,-64.0,-24.0,-99.0,41.0,-743.0,-381.0
7.0,-189.0,-85.0,-59.0,-10.0,-104.0,43.0,-725.0,-390.0
5.0,-184.0,-88.0,-56.0,-1.0,-109.0,48.0,-697.0,-397.0
6.0,-181.0,-86.0,-56.0,12.0,-115.0,53.0,-680.0,-397.0
9.0,-173.0,-89.0,-60.0,23.0,-125.0,54.0,-659.0,-411.0
7.0,-169.0,-90.0,-68.0,35.0,-135.0,55.0,-648.0,-412.0
11.0,-169.0,-91.0,-77.0,43.0,-147.0,55.0,-626.0,-421.0
10.0,-160.0,-95.0,-84.0,50.0,-160.0,56.0,-601.0,-419.0
5.0,-155.0,-93.0,-93.0,53.0,-174.0,50.0,-593.0,-425.0
6.0,-154.0,-92.0,-99.0,53.0,-183.0,50.0,-576.0,-425.0
4.0,-148.0,-95.0,-109.0,52.0,-191.0,41.0,-568.0,-426.0
1.0,-148.0,-94.0,-123.0,49.0,-198.0,37.0,-572.0,-434.0
1.0,-149.0,-96.0,-144.0,48.0,-201.0,19.0,-558.0,-438.0
-2.0,-146.0,-98.0,-170.0,45.0,-202.0,13.0,-558.0,-444.0
-3.0,-147.0,-101.0,-204.0,39.0,-203.0,-4.0,-556.0,-448.0
-7.0,-145.0,-101.0,-239.0,36.0,-202.0,-3.0,-554.0,-447.0
-11.0,-146.0,-102.0,-274.0,28.0,-202.0,-16.0,-549.0,-447.0
-12.0,-146.0,-99.0,-303.0,22.0,-199.0,-31.0,-546.0,-447.0
-11.0,-147.0,-96.0,-325.0,17.0,-198.0,-32.0,-548.0,-442.0
-14.0,-145.0,-100.0,-337.0,13.0,-195.0,-28.0,-553.0,-442.0
-12.0,-146.0,-97.0,-343.0,9.0,-191.0,-29.0,-561.0,-431.0
-9.0,-151.0,-99.0,-345.0,9.0,-188.0,-30.0,-570.0,-434.0
-10.0,-153.0,-99.0,-346.0,17.0,-184.0,-24.0,-576.0,-447.0
-9.0,-155.0,-99.0,-349.0,27.0,-180.0,-17.0,-587.0,-456.0
-4.0,-159.0,-103.0,-353.0,38.0,-178.0,-9.0,-605.0,-454.0
-3.0,-165.0,-109.0,-357.0,52.0,-175.0,-5.0,-619.0,-470.0
-1.0,-168.0,-105.0,-359.0,68.0,-173.0,7.0,-635.0,-475.0
0.0,-167.0,-109.0,-359.0,84.0,-173.0,12.0,-645.0,-481.0
4.0,-179.0,-111.0,-355.0,95.0,-175.0,18.0,-657.0,-479.0
0.0,-176.0,-109.0,-346.0,101.0,-178.0,20.0,-670.0,-477.0
1.0,-178.0,-107.0,-336.0,96.0,-183.0,25.0,-677.0,-473.0
1.0,-182.0,-104.0,-322.0,83.0,-189.0,20.0,-691.0,-468.0
1.0,-183.0,-105.0,-311.0,66.0,-195.0,29.0,-695.0,-467.0
-3.0,-183.0,-105.0,-300.0,44.0,-199.0,17.0,-694.0,-464.0
-2.0,-180.0,-104.0,-287.0,24.0,-203.0,19.0,-693.0,-465.0
0.0,-180.0,-104.0,-275.0,9.0,-204.0,16.0,-683.0,-456.0
0.0,-178.0,-106.0,-259.0,0.0,-204.0,11.0,-675.0,-464.0
-1.0,-175.0,-109.0,-245.0,3.0,-203.0,5.0,-665.0,-468.0
0.0,-174.0,-105.0,-228.0,12.0,-202.0,4.0,-659.0,-475.0
-1.0,-171.0,-106.0,-210.0,25.0,-200.0,8.0,-657.0,-468.0
-3.0,-173.0,-108.0,-195.0,42.0,-198.0,8.0,-651.0,-477.0
0.0,-176.0,-112.0,-182.0,66.0,-192.0,15.0,-661.0,-488.0
0.0,-174.0,-113.0,-171.0,95.0,-186.0,15.0,-663.0,-486.0
2.0,-180.0,-110.0,-151.0,125.0,-177.0,26.0,-670.0,-490.0
3.0,-184.0,-115.0,-121.0,155.0,-167.0,33.0,-686.0,-486.0
6.0,-185.0,-108.0,-89.0,180.0,-153.0,40.0,-700.0,-475.0
5.0,-187.0,-104.0,-58.0,199.0,-138.0,50.0,-721.0,-468.0
6.0,-188.0,-101.0,-35.0,207.0,-119.0,56.0,-726.0,-459.0
10.0,-189.0,-97.0,-24.0,208.0,-97.0,61.0,-725.0,-447.0
11.0,-187.0,-97.0,-24.0,201.0,-74.0,71.0,-716.0,-436.0
11.0,-183.0,-92.0,-35.0,189.0,-51.0,78.0,-704.0,-418.0
11.0,-176.0,-86.0,-52.0,176.0,-32.0,77.0,-672.0,-402.0
12.0,-171.0,-85.0,-73.0,157.0,-13.0,74.0,-649.0,-390.0
10.0,-160.0,-87.0,-97.0,134.0,6.0,82.0,-626.0,-379.0
12.0,-156.0,-85.0,-120.0,114.0,20.0,80.0,-592.0,-371.0
12.0,-150.0,-88.0,-145.0,98.0,31.0,73.0,-570.0,-382.0
10.0,-143.0,-89.0,-165.0,94.0,40.0,56.0,-544.0,-399.0
9.0,-140.0,-91.0,-185.0,100.0,49.0,56.0,-531.0,-419.0
3.0,-136.0,-96.0,-199.0,116.0,54.0,44.0,-525.0,-429.0
-3.0,-138.0,-95.0,-213.0,136.0,57.0,25.0,-534.0,-443.0
-2.0,-144.0,-101.0,-230.0,161.0,63.0,1.0,-550.0,-446.0
-10.0,-154.0,-103.0,-253.0,187.0,76.0,-17.0,-573.0,-456.0
-14.0,-161.0,-104.0,-282.0,207.0,90.0,-32.0,-609.0,-463.0
-15.0,-177.0,-92.0,-299.0,223.0,103.0,-42.0,-665.0,-431.0
-18.0,-184.0,-93.0,-262.0,234.0,120.0,-49.0,-688.0,-422.0
-24.0,-192.0,-93.0,-197.0,243.0,137.0,-74.0,-717.0,-415.0
-22.0,-194.0,-94.0,-130.0,247.0,163.0,-69.0,-736.0,-417.0
-19.0,-194.0,-97.0,-77.0,245.0,184.0,-59.0,-742.0,-428.0
-18.0,-191.0,-94.0,-45.0,240.0,201.0,-44.0,-738.0,-419.0
-13.0,-192.0,-91.0,-29.0,235.0,219.0,-24.0,-739.0,-417.0
-4.0,-190.0,-90.0,-22.0,231.0,238.0,-4.0,-727.0,-415.0
0.0,-188.0,-86.0,-24.0,230.0,259.0,20.0,-722.0,-420.0
4.0,-187.0,-93.0,-30.0,230.0,283.0,47.0,-708.0,-423.0
14.0,-186.0,-94.0,-31.0,228.0,305.0,79.0,-706.0,-423.0
19.0,-188.0,-96.0,-28.0,220.0,322.0,103.0,-707.0,-416.0
19.0,-188.0,-91.0,-18.0,208.0,337.0,105.0,-715.0,-415.0
19.0,-192.0,-93.0,-5.0,186.0,346.0,106.0,-728.0,-427.0
16.0,-195.0,-99.0,14.0,157.0,351.0,102.0,-739.0,-447.0
14.0,-203.0,-105.0,40.0,124.0,356.0,89.0,-758.0,-462.0
8.0,-207.0,-106.0,77.0,96.0,363.0,70.0,-789.0,-479.0
1.0,-213.0,-112.0,125.0,77.0,366.0,45.0,-821.0,-488.0
-1.0,-221.0,-112.0,174.0,67.0,367.0,20.0,-852.0,-504.0
-7.0,-235.0,-113.0,221.0,71.0,365.0,-10.0,-896.0,-507.0
-9.0,-249.0,-110.0,280.0,88.0,363.0,-26.0,-936.0,-504.0
-11.0,-256.0,-115.0,341.0,112.0,352.0,-27.0,-977.0,-504.0
-13.0,-270.0,-106.0,406.0,145.0,334.0,-23.0,-1021.0,-487.0
-6.0,-288.0,-101.0,483.0,182.0,308.0,-1.0,-1070.0,-461.0
0.0,-294.0,-90.0,576.0,218.0,264.0,15.0,-1109.0,-439.0
-3.0,-303.0,-90.0,690.0,252.0,213.0,9.0,-1141.0,-410.0
-6.0,-303.0,-83.0,811.0,281.0,178.0,15.0,-1156.0,-379.0
-4.0,-306.0,-78.0,931.0,292.0,157.0,28.0,-1163.0,-365.0
0.0,-305.0,-79.0,1051.0,292.0,140.0,28.0,-1157.0,-345.0
0.0,-300.0,-77.0,1145.0,284.0,123.0,35.0,-1147.0,-342.0
-1.0,-294.0,-78.0,1254.0,267.0,111.0,31.0,-1124.0,-341.0
-2.0,-289.0,-74.0,1354.0,240.0,105.0,17.0,-1100.0,-336.0
-10.0,-283.0,-73.0,1449.0,213.0,109.0,13.0,-1082.0,-324.0
-8.0,-282.0,-65.0,1541.0,176.0,115.0,-4.0,-1076.0,-307.0
-9.0,-285.0,-54.0,1634.0,148.0,123.0,-5.0,-1083.0,-270.0
-10.0,-295.0,-44.0,1736.0,132.0,133.0,-5.0,-1108.0,-215.0
-9.0,-304.0,-23.0,1864.0,122.0,144.0,4.0,-1153.0,-148.0
-5.0,-332.0,5.0,2029.0,109.0,158.0,20.0,-1263.0,-14.0
-1.0,-376.0,43.0,2242.0,92.0,170.0,38.0,-1428.0,126.0
-3.0,-450.0,129.0,2536.0,78.0,169.0,45.0,-1682.0,474.0
2.0,-567.0,191.0,2990.0,64.0,154.0,58.0,-2147.0,722.0
7.0,-698.0,181.0,3545.0,46.0,115.0,114.0,-2696.0,708.0
20.0,-819.0,124.0,3963.0,17.0,32.0,151.0,-3213.0,471.0
19.0,-904.0,8.0,4067.0,27.0,-90.0,157.0,-3601.0,29.0
11.0,-953.0,-128.0,3793.0,96.0,-211.0,133.0,-3823.0,-501.0
10.0,-914.0,-294.0,3153.0,218.0,-317.0,127.0,-3752.0,-1185.0
-4.0,-822.0,-408.0,2068.0,343.0,-367.0,55.0,-3407.0,-1714.0
-45.0,-735.0,-374.0,819.0,392.0,-321.0,-89.0,-2940.0,-1541.0
-51.0,-647.0,-235.0,64.0,331.0,-208.0,-108.0,-2473.0,-1087.0
-11.0,-651.0,-142.0,20.0,156.0,-110.0,35.0,-2451.0,-675.0
0.0,-634.0,-58.0,334.0,-63.0,-60.0,89.0,-2438.0,-330.0
20.0,-582.0,25.0,671.0,-264.0,14.0,155.0,-2244.0,-10.0
51.0,-481.0,90.0,982.0,-442.0,121.0,251.0,-1877.0,262.0
57.0,-357.0,123.0,1296.0,-560.0,236.0,266.0,-1413.0,437.0
66.0,-231.0,131.0,1596.0,-602.0,359.0,275.0,-941.0,493.0
66.0,-121.0,113.0,1801.0,-551.0,426.0,263.0,-526.0,458.0
68.0,-26.0,92.0,1873.0,-393.0,391.0,259.0,-164.0,363.0
75.0,67.0,74.0,1796.0,-139.0,253.0,271.0,165.0,288.0
65.0,153.0,46.0,1531.0,135.0,94.0,245.0,457.0,158.0
49.0,217.0,27.0,1039.0,356.0,5.0,178.0,756.0,85.0
26.0,250.0,14.0,408.0,460.0,-15.0,118.0,906.0,36.0
15.0,255.0,4.0,-254.0,433.0,4.0,70.0,920.0,-15.0
8.0,221.0,1.0,-861.0,343.0,28.0,32.0,823.0,-16.0
0.0,166.0,0.0,-1330.0,251.0,14.0,9.0,621.0,-6.0
-11.0,91.0,4.0,-1619.0,200.0,-66.0,-40.0,371.0,-8.0
-19.0,13.0,11.0,-1729.0,194.0,-176.0,-80.0,101.0,7.0
-25.0,-75.0,27.0,-1663.0,222.0,-269.0,-98.0,-218.0,61.0
-29.0,-169.0,49.0,-1422.0,273.0,-329.0,-109.0,-551.0,150.0
-38.0,-239.0,80.0,-1024.0,333.0,-356.0,-113.0,-834.0,243.0
-40.0,-297.0,102.0,-538.0,354.0,-366.0,-112.0,-1063.0,364.0
-39.0,-341.0,125.0,-32.0,330.0,-358.0,-102.0,-1280.0,463.0
-38.0,-372.0,130.0,456.0,284.0,-345.0,-101.0,-1410.0,488.0
-44.0,-392.0,134.0,886.0,222.0,-335.0,-105.0,-1495.0,491.0
-37.0,-407.0,118.0,1243.0,145.0,-333.0,-108.0,-1565.0,426.0
-35.0,-429.0,79.0,1519.0,77.0,-338.0,-90.0,-1646.0,315.0
-21.0,-444.0,53.0,1705.0,36.0,-350.0,-48.0,-1710.0,199.0
-7.0,-443.0,30.0,1780.0,27.0,-365.0,-4.0,-1743.0,95.0
-2.0,-437.0,12.0,1733.0,49.0,-374.0,27.0,-1729.0,27.0
-1.0,-412.0,2.0,1583.0,85.0,-362.0,36.0,-1656.0,-24.0
0.0,-378.0,-1.0,1362.0,117.0,-304.0,44.0,-1532.0,-49.0
-1.0,-346.0,10.0,1120.0,127.0,-213.0,27.0,-1370.0,0.0
-2.0,-317.0,22.0,938.0,101.0,-109.0,34.0,-1233.0,59.0
3.0,-290.0,42.0,847.0,39.0,-10.0,51.0,-1123.0,129.0
8.0,-268.0,58.0,834.0,-37.0,80.0,72.0,-1040.0,188.0
11.0,-256.0,70.0,875.0,-101.0,173.0,81.0,-973.0,244.0
13.0,-250.0,80.0,944.0,-144.0,243.0,62.0,-950.0,284.0
9.0,-249.0,82.0,1033.0,-168.0,288.0,64.0,-953.0,299.0
5.0,-252.0,81.0,1133.0,-176.0,316.0,56.0,-960.0,303.0
10.0,-249.0,81.0,1227.0,-173.0,329.0,59.0,-953.0,297.0
9.0,-241.0,77.0,1292.0,-155.0,319.0,68.0,-922.0,282.0
13.0,-228.0,76.0,1312.0,-124.0,288.0,72.0,-879.0,255.0
19.0,-208.0,68.0,1275.0,-76.0,241.0,90.0,-815.0,239.0
26.0,-192.0,62.0,1183.0,-3.0,179.0,114.0,-767.0,219.0
30.0,-182.0,61.0,1036.0,82.0,107.0,128.0,-708.0,194.0
29.0,-165.0,60.0,851.0,167.0,33.0,139.0,-667.0,191.0
31.0,-157.0,52.0,654.0,229.0,-31.0,138.0,-629.0,184.0
28.0,-151.0,57.0,474.0,267.0,-80.0,136.0,-594.0,193.0
25.0,-149.0,59.0,335.0,278.0,-114.0,126.0,-600.0,205.0
20.0,-159.0,61.0,239.0,270.0,-128.0,112.0,-620.0,209.0
20.0,-177.0,63.0,185.0,250.0,-129.0,108.0,-666.0,222.0
15.0,-191.0,67.0,157.0,224.0,-128.0,102.0,-720.0,226.0
14.0,-209.0,65.0,142.0,199.0,-124.0,92.0,-789.0,231.0
12.0,-221.0,67.0,135.0,180.0,-116.0,83.0,-858.0,224.0
4.0,-235.0,62.0,132.0,166.0,-104.0,57.0,-908.0,220.0
1.0,-246.0,67.0,130.0,155.0,-85.0,45.0,-942.0,220.0
-1.0,-251.0,64.0,128.0,145.0,-63.0,32.0,-975.0,213.0
-3.0,-260.0,61.0,125.0,137.0,-39.0,16.0,-1005.0,207.0
-8.0,-262.0,55.0,120.0,130.0,-15.0,6.0,-1025.0,195.0
-11.0,-268.0,52.0,116.0,122.0,5.0,-3.0,-1042.0,182.0
-10.0,-271.0,50.0,111.0,110.0,20.0,-13.0,-1059.0,162.0
-12.0,-275.0,44.0,110.0,92.0,30.0,-12.0,-1070.0,145.0
-12.0,-280.0,40.0,114.0,68.0,40.0,-16.0,-1074.0,127.0
-15.0,-277.0,41.0,126.0,38.0,50.0,-19.0,-1081.0,117.0
-17.0,-280.0,39.0,155.0,7.0,56.0,-21.0,-1085.0,109.0
-16.0,-281.0,41.0,197.0,-23.0,61.0,-29.0,-1079.0,122.0
-16.0,-281.0,45.0,266.0,-48.0,65.0,-33.0,-1071.0,143.0
-24.0,-275.0,49.0,355.0,-76.0,70.0,-25.0,-1059.0,174.0
-14.0,-273.0,58.0,454.0,-99.0,78.0,-25.0,-1051.0,195.0
-13.0,-265.0,62.0,547.0,-108.0,80.0,-23.0,-1028.0,207.0
-11.0,-260.0,64.0,616.0,-105.0,80.0,-17.0,-1011.0,219.0
-10.0,-253.0,67.0,656.0,-97.0,78.0,-16.0,-973.0,233.0
-12.0,-244.0,72.0,663.0,-95.0,71.0,-10.0,-943.0,245.0
-8.0,-241.0,71.0,643.0,-100.0,66.0,-5.0,-920.0,250.0
-6.0,-231.0,68.0,601.0,-103.0,57.0,4.0,-904.0,246.0
-2.0,-222.0,65.0,539.0,-102.0,45.0,16.0,-875.0,236.0
2.0,-222.0,65.0,466.0,-96.0,31.0,24.0,-860.0,217.0
2.0,-216.0,61.0,387.0,-83.0,16.0,38.0,-848.0,206.0
3.0,-212.0,56.0,312.0,-69.0,2.0,41.0,-841.0,195.0
7.0,-213.0,52.0,245.0,-55.0,-7.0,49.0,-838.0,181.0
5.0,-216.0,48.0,188.0,-45.0,-14.0,53.0,-843.0,167.0
8.0,-221.0,49.0,140.0,-39.0,-15.0,61.0,-852.0,162.0
9.0,-226.0,46.0,109.0,-38.0,-17.0,61.0,-863.0,156.0
5.0,-228.0,48.0,91.0,-40.0,-14.0,70.0,-877.0,163.0
11.0,-235.0,51.0,87.0,-41.0,-10.0,63.0,-901.0,164.0
10.0,-241.0,46.0,92.0,-37.0,-7.0,62.0,-915.0,163.0
10.0,-247.0,51.0,102.0,-28.0,-4.0,69.0,-945.0,165.0
4.0,-250.0,50.0,114.0,-15.0,-4.0,64.0,-961.0,168.0
4.0,-256.0,54.0,129.0,-4.0,-2.0,58.0,-985.0,175.0
5.0,-256.0,53.0,139.0,4.0,2.0,54.0,-1007.0,176.0
3.0,-261.0,56.0,145.0,15.0,5.0,51.0,-1020.0,182.0
2.0,-265.0,55.0,146.0,22.0,7.0,43.0,-1038.0,182.0
3.0,-268.0,57.0,147.0,25.0,9.0,41.0,-1037.0,184.0
0.0,-271.0,53.0,150.0,28.0,9.0,38.0,-1048.0,184.0
0.0,-266.0,59.0,155.0,26.0,8.0,32.0,-1046.0,180.0
0.0,-266.0,55.0,163.0,25.0,7.0,27.0,-1031.0,183.0
0.0,-262.0,52.0,175.0,23.0,11.0,23.0,-1021.0,174.0
0.0,-259.0,52.0,189.0,20.0,17.0,25.0,-999.0,171.0
-2.0,-250.0,52.0,200.0,19.0,23.0,26.0,-974.0,175.0
0.0,-248.0,48.0,211.0,18.0,29.0,29.0,-954.0,173.0
0.0,-244.0,55.0,219.0,18.0,33.0,30.0,-934.0,177.0
1.0,-241.0,56.0,220.0,16.0,38.0,31.0,-918.0,186.0
2.0,-237.0,56.0,219.0,12.0,42.0,32.0,-911.0,194.0
1.0,-231.0,61.0,214.0,6.0,42.0,40.0,-905.0,207.0
4.0,-232.0,61.0,205.0,3.0,42.0,43.0,-893.0,213.0
4.0,-228.0,62.0,193.0,2.0,39.0,52.0,-891.0,219.0
5.0,-233.0,68.0,174.0,2.0,32.0,51.0,-888.0,220.0
4.0,-231.0,64.0,149.0,8.0,24.0,51.0,-887.0,227.0
7.0,-230.0,65.0,120.0,14.0,13.0,54.0,-892.0,229.0
7.0,-232.0,67.0,89.0,19.0,3.0,60.0,-900.0,231.0
7.0,-236.0,69.0,57.0,25.0,-8.0,55.0,-904.0,228.0
7.0,-239.0,67.0,27.0,31.0,-17.0,52.0,-916.0,225.0
2.0,-241.0,68.0,1.0,32.0,-22.0,47.0,-927.0,228.0
2.0,-243.0,65.0,-20.0,31.0,-27.0,54.0,-940.0,231.0
3.0,-246.0,65.0,-37.0,28.0,-31.0,50.0,-946.0,234.0
2.0,-249.0,68.0,-49.0,29.0,-36.0,52.0,-961.0,227.0
3.0,-249.0,67.0,-59.0,30.0,-40.0,48.0,-974.0,223.0
3.0,-250.0,69.0,-65.0,34.0,-46.0,48.0,-974.0,226.0
2.0,-256.0,67.0,-68.0,36.0,-47.0,45.0,-993.0,220.0
2.0,-255.0,66.0,-67.0,38.0,-46.0,46.0,-998.0,220.0
3.0,-259.0,66.0,-61.0,41.0,-45.0,46.0,-1001.0,222.0
4.0,-260.0,65.0,-52.0,45.0,-41.0,50.0,-1003.0,222.0
5.0,-261.0,64.0,-39.0,49.0,-35.0,50.0,-1004.0,217.0
4.0,-255.0,64.0,-27.0,56.0,-30.0,50.0,-1005.0,219.0
3.0,-255.0,64.0,-16.0,62.0,-23.0,54.0,-1001.0,220.0
7.0,-257.0,63.0,-5.0,67.0,-17.0,52.0,-985.0,214.0
1.0,-251.0,62.0,-3.0,69.0,-11.0,45.0,-981.0,210.0
1.0,-250.0,64.0,-5.0,68.0,-3.0,43.0,-972.0,209.0
0.0,-248.0,60.0,-9.0,66.0,5.0,37.0,-965.0,210.0
1.0,-247.0,64.0,-16.0,68.0,9.0,34.0,-955.0,210.0
0.0,-244.0,65.0,-23.0,71.0,13.0,25.0,-947.0,217.0
0.0,-247.0,66.0,-28.0,73.0,13.0,28.0,-948.0,219.0
-2.0,-243.0,69.0,-35.0,76.0,13.0,16.0,-938.0,219.0
-2.0,-242.0,63.0,-39.0,80.0,11.0,20.0,-933.0,227.0
-1.0,-240.0,65.0,-41.0,86.0,10.0,20.0,-923.0,224.0
0.0,-241.0,65.0,-45.0,93.0,7.0,20.0,-921.0,223.0
-2.0,-239.0,67.0,-45.0,99.0,4.0,24.0,-915.0,224.0
0.0,-239.0,67.0,-42.0,107.0,1.0,22.0,-917.0,229.0
0.0,-241.0,68.0,-39.0,112.0,-3.0,27.0,-916.0,226.0
0.0,-241.0,67.0,-35.0,117.0,-8.0,22.0,-922.0,224.0
0.0,-243.0,65.0,-33.0,121.0,-13.0,21.0,-930.0,221.0
-3.0,-242.0,65.0,-30.0,122.0,-19.0,23.0,-932.0,217.0
0.0,-246.0,62.0,-28.0,119.0,-25.0,17.0,-945.0,214.0
-3.0,-243.0,60.0,-31.0,110.0,-28.0,19.0,-947.0,208.0
0.0,-243.0,60.0,-35.0,102.0,-30.0,30.0,-952.0,200.0
-3.0,-246.0,58.0,-44.0,92.0,-31.0,31.0,-959.0,189.0
0.0,-249.0,59.0,-57.0,87.0,-31.0,35.0,-967.0,191.0
1.0,-248.0,56.0,-69.0,83.0,-33.0,44.0,-959.0,182.0
1.0,-249.0,56.0,-79.0,84.0,-33.0,48.0,-961.0,183.0
5.0,-250.0,58.0,-88.0,87.0,-34.0,54.0,-962.0,187.0
7.0,-247.0,56.0,-93.0,94.0,-31.0,63.0,-966.0,187.0
7.0,-249.0,58.0,-94.0,96.0,-28.0,68.0,-961.0,187.0
8.0,-248.0,57.0,-91.0,98.0,-25.0,68.0,-966.0,191.0
14.0,-251.0,58.0,-88.0,101.0,-21.0,74.0,-966.0,190.0
10.0,-249.0,60.0,-85.0,101.0,-20.0,79.0,-968.0,188.0
14.0,-250.0,57.0,-82.0,100.0,-19.0,86.0,-967.0,192.0
10.0,-249.0,57.0,-78.0,100.0,-17.0,86.0,-965.0,190.0
10.0,-250.0,56.0,-77.0,95.0,-17.0,86.0,-962.0,187.0
11.0,-249.0,56.0,-76.0,88.0,-15.0,81.0,-961.0,180.0
8.0,-248.0,53.0,-76.0,82.0,-15.0,78.0,-960.0,177.0
5.0,-248.0,51.0,-78.0,75.0,-13.0,72.0,-958.0,173.0
3.0,-250.0,50.0,-80.0,68.0,-10.0,57.0,-958.0,168.0
4.0,-247.0,48.0,-86.0,64.0,-8.0,52.0,-960.0,163.0
1.0,-249.0,52.0,-92.0,60.0,-6.0,48.0,-960.0,165.0
4.0,-248.0,47.0,-99.0,63.0,-3.0,48.0,-954.0,160.0
1.0,-245.0,49.0,-106.0,64.0,-2.0,46.0,-956.0,161.0
2.0,-250.0,49.0,-110.0,66.0,-2.0,42.0,-958.0,164.0
1.0,-247.0,53.0,-116.0,67.0,-2.0,37.0,-961.0,165.0
2.0,-250.0,52.0,-117.0,68.0,-3.0,40.0,-967.0,165.0
3.0,-253.0,53.0,-119.0,68.0,-3.0,40.0,-963.0,168.0
2.0,-249.0,51.0,-119.0,69.0,-6.0,43.0,-965.0,171.0
3.0,-251.0,53.0,-118.0,65.0,-8.0,43.0,-973.0,174.0
4.0,-252.0,51.0,-115.0,63.0,-5.0,51.0,-972.0,176.0
4.0,-252.0,53.0,-114.0,60.0,-4.0,53.0,-970.0,181.0
3.0,-252.0,53.0,-110.0,58.0,-4.0,54.0,-976.0,176.0
6.0,-257.0,50.0,-105.0,54.0,-4.0,55.0,-975.0,184.0
5.0,-256.0,57.0,-99.0,53.0,-2.0,53.0,-973.0,181.0
7.0,-254.0,54.0,-92.0,51.0,-2.0,55.0,-975.0,184.0
8.0,-253.0,57.0,-82.0,51.0,1.0,54.0,-976.0,183.0
6.0,-249.0,58.0,-74.0,48.0,1.0,55.0,-974.0,186.0
3.0,-249.0,53.0,-69.0,47.0,1.0,52.0,-969.0,180.0
3.0,-251.0,56.0,-65.0,47.0,3.0,54.0,-965.0,181.0
4.0,-248.0,57.0,-62.0,49.0,3.0,47.0,-960.0,184.0
3.0,-252.0,55.0,-59.0,50.0,4.0,44.0,-960.0,185.0
1.0,-248.0,52.0,-57.0,54.0,2.0,44.0,-961.0,187.0
0.0,-249.0,55.0,-56.0,56.0,-1.0,40.0,-960.0,188.0
1.0,-248.0,55.0,-55.0,58.0,-3.0,35.0,-958.0,191.0
2.0,-248.0,56.0,-51.0,60.0,-3.0,28.0,-955.0,184.0
0.0,-248.0,60.0,-48.0,60.0,-3.0,31.0,-958.0,190.0
0.0,-247.0,58.0,-45.0,59.0,-1.0,29.0,-955.0,188.0
-2.0,-248.0,55.0,-41.0,58.0,-1.0,28.0,-955.0,191.0
0.0,-248.0,58.0,-38.0,57.0,0.0,28.0,-956.0,188.0
-1.0,-249.0,55.0,-36.0,59.0,-1.0,28.0,-957.0,193.0
-2.0,-247.0,59.0,-33.0,59.0,0.0,29.0,-963.0,191.0
0.0,-247.0,56.0,-30.0,59.0,-1.0,26.0,-959.0,182.0
0.0,-248.0,56.0,-28.0,58.0,-3.0,29.0,-963.0,185.0
1.0,-252.0,54.0,-25.0,57.0,-2.0,35.0,-961.0,183.0
0.0,-251.0,53.0,-20.0,56.0,-2.0,30.0,-967.0,185.0
0.0,-251.0,54.0,-16.0,54.0,-2.0,34.0,-964.0,180.0
1.0,-250.0,51.0,-14.0,53.0,-3.0,36.0,-965.0,182.0
1.0,-248.0,56.0,-10.0,50.0,-3.0,32.0,-960.0,185.0
2.0,-250.0,55.0,-6.0,50.0,-4.0,33.0,-957.0,184.0
1.0,-247.0,54.0,-3.0,50.0,-3.0,34.0,-959.0,184.0
0.0,-246.0,57.0,0.0,49.0,-2.0,33.0,-957.0,186.0
1.0,-250.0,57.0,0.0,50.0,-2.0,36.0,-961.0,187.0
2.0,-248.0,58.0,2.0,51.0,-3.0,37.0,-959.0,186.0
1.0,-246.0,55.0,1.0,51.0,-3.0,37.0,-953.0,186.0
3.0,-249.0,52.0,0.0,52.0,-3.0,40.0,-949.0,189.0
4.0,-250.0,55.0,-3.0,54.0,-2.0,40.0,-958.0,179.0
3.0,-249.0,54.0,-7.0,57.0,-5.0,40.0,-958.0,185.0
3.0,-249.0,57.0,-10.0,58.0,-6.0,46.0,-962.0,175.0
4.0,-250.0,49.0,-10.0,60.0,-6.0,50.0,-966.0,179.0
3.0,-248.0,55.0,-8.0,61.0,-9.0,48.0,-971.0,172.0
4.0,-251.0,55.0,-3.0,59.0,-10.0,52.0,-967.0,176.0
5.0,-250.0,55.0,3.0,57.0,-8.0,51.0,-971.0,176.0
6.0,-251.0,54.0,11.0,57.0,-10.0,50.0,-974.0,176.0
4.0,-251.0,52.0,20.0,58.0,-8.0,46.0,-967.0,179.0
3.0,-253.0,54.0,27.0,58.0,-6.0,51.0,-966.0,177.0
5.0,-248.0,53.0,34.0,57.0,-7.0,48.0,-961.0,180.0
4.0,-250.0,54.0,42.0,58.0,-6.0,47.0,-967.0,180.0
3.0,-249.0,54.0,46.0,60.0,-5.0,50.0,-963.0,177.0
3.0,-250.0,55.0,47.0,61.0,-2.0,45.0,-961.0,181.0
2.0,-246.0,51.0,48.0,63.0,-4.0,46.0,-963.0,180.0
3.0,-245.0,49.0,45.0,64.0,-2.0,44.0,-958.0,180.0
5.0,-248.0,53.0,40.0,69.0,-4.0,45.0,-958.0,180.0
3.0,-247.0,55.0,36.0,70.0,-3.0,48.0,-955.0,183.0
4.0,-249.0,55.0,32.0,69.0,-3.0,47.0,-952.0,183.0
4.0,-248.0,53.0,27.0,68.0,-4.0,52.0,-951.0,188.0
5.0,-247.0,53.0,24.0,66.0,-4.0,47.0,-957.0,191.0
4.0,-246.0,54.0,20.0,63.0,-5.0,44.0,-955.0,189.0
6.0,-247.0,60.0,17.0,63.0,-4.0,52.0,-946.0,191.0
2.0,-246.0,57.0,14.0,63.0,-5.0,53.0,-949.0,195.0
3.0,-247.0,59.0,10.0,64.0,-3.0,49.0,-948.0,194.0
2.0,-246.0,60.0,8.0,64.0,-2.0,51.0,-946.0,194.0
6.0,-248.0,59.0,7.0,64.0,-1.0,49.0,-950.0,199.0
5.0,-248.0,61.0,4.0,63.0,-2.0,55.0,-951.0,199.0
4.0,-248.0,62.0,0.0,64.0,-2.0,54.0,-946.0,194.0
5.0,-247.0,55.0,-3.0,64.0,-3.0,54.0,-954.0,194.0
5.0,-246.0,58.0,-3.0,66.0,-4.0,54.0,-952.0,194.0
6.0,-249.0,59.0,0.0,64.0,-4.0,50.0,-962.0,194.0
2.0,-248.0,59.0,3.0,62.0,-5.0,52.0,-960.0,195.0
5.0,-251.0,57.0,10.0,62.0,-5.0,51.0,-964.0,193.0
4.0,-250.0,57.0,16.0,63.0,-3.0,52.0,-955.0,195.0
2.0,-246.0,56.0,23.0,64.0,-3.0,45.0,-960.0,193.0
5.0,-248.0,58.0,27.0,66.0,-4.0,45.0,-955.0,192.0
2.0,-247.0,57.0,31.0,68.0,-2.0,41.0,-949.0,194.0
6.0,-247.0,54.0,34.0,74.0,-4.0,41.0,-947.0,197.0
4.0,-247.0,58.0,37.0,77.0,-4.0,43.0,-943.0,201.0
2.0,-245.0,61.0,39.0,79.0,-2.0,42.0,-946.0,198.0
0.0,-246.0,60.0,40.0,81.0,-2.0,36.0,-949.0,207.0
1.0,-242.0,64.0,42.0,82.0,0.0,37.0,-947.0,206.0
0.0,-246.0,61.0,44.0,82.0,1.0,38.0,-945.0,208.0
0.0,-246.0,63.0,45.0,81.0,2.0,37.0,-946.0,215.0
2.0,-245.0,60.0,46.0,82.0,2.0,40.0,-946.0,211.0
1.0,-243.0,62.0,44.0,81.0,4.0,44.0,-936.0,207.0
3.0,-245.0,60.0,39.0,82.0,3.0,43.0,-935.0,204.0
3.0,-242.0,57.0,29.0,82.0,3.0,40.0,-934.0,201.0
1.0,-245.0,57.0,15.0,80.0,3.0,43.0,-941.0,190.0
1.0,-246.0,54.0,-4.0,75.0,4.0,42.0,-944.0,183.0
0.0,-247.0,53.0,-23.0,67.0,3.0,42.0,-960.0,177.0
1.0,-251.0,50.0,-40.0,59.0,0.0,34.0,-972.0,181.0
2.0,-253.0,53.0,-51.0,54.0,0.0,44.0,-986.0,179.0
3.0,-255.0,55.0,-50.0,53.0,-4.0,43.0,-994.0,183.0
1.0,-258.0,54.0,-37.0,53.0,-4.0,44.0,-988.0,190.0
2.0,-258.0,59.0,-9.0,52.0,-5.0,44.0,-997.0,195.0
2.0,-258.0,59.0,30.0,51.0,-4.0,48.0,-997.0,190.0
0.0,-256.0,55.0,71.0,48.0,-3.0,47.0,-983.0,192.0
3.0,-255.0,55.0,106.0,48.0,1.0,42.0,-974.0,190.0
3.0,-251.0,55.0,132.0,49.0,2.0,43.0,-971.0,191.0
4.0,-249.0,57.0,147.0,51.0,4.0,42.0,-956.0,186.0
1.0,-244.0,57.0,148.0,53.0,4.0,41.0,-952.0,188.0
3.0,-246.0,54.0,140.0,56.0,3.0,43.0,-944.0,191.0
1.0,-240.0,58.0,127.0,60.0,3.0,40.0,-937.0,192.0
1.0,-241.0,58.0,108.0,62.0,3.0,41.0,-935.0,195.0
2.0,-240.0,54.0,89.0,63.0,2.0,39.0,-931.0,198.0
3.0,-242.0,56.0,71.0,64.0,1.0,43.0,-936.0,204.0
0.0,-240.0,63.0,56.0,65.0,4.0,43.0,-933.0,208.0
2.0,-242.0,63.0,47.0,64.0,4.0,45.0,-937.0,208.0
3.0,-245.0,60.0,39.0,66.0,4.0,41.0,-944.0,206.0
2.0,-247.0,62.0,35.0,64.0,5.0,45.0,-950.0,212.0
4.0,-248.0,65.0,32.0,66.0,8.0,46.0,-952.0,212.0
2.0,-249.0,62.0,33.0,65.0,7.0,47.0,-951.0,217.0
0.0,-248.0,63.0,34.0,64.0,4.0,44.0,-954.0,215.0
1.0,-248.0,63.0,40.0,61.0,5.0,48.0,-961.0,212.0
4.0,-248.0,64.0,45.0,60.0,3.0,45.0,-954.0,208.0
3.0,-249.0,61.0,51.0,56.0,4.0,50.0,-960.0,211.0
5.0,-247.0,63.0,57.0,53.0,3.0,48.0,-955.0,215.0
3.0,-247.0,60.0,61.0,51.0,0.0,44.0,-952.0,207.0
5.0,-244.0,66.0,64.0,52.0,0.0,49.0,-951.0,211.0
1.0,-246.0,64.0,64.0,54.0,1.0,46.0,-949.0,216.0
2.0,-248.0,63.0,62.0,58.0,1.0,45.0,-949.0,213.0
4.0,-247.0,64.0,59.0,63.0,0.0,44.0,-942.0,213.0
3.0,-242.0,60.0,53.0,65.0,-1.0,48.0,-941.0,214.0
4.0,-244.0,67.0,45.0,68.0,-2.0,49.0,-935.0,215.0
2.0,-243.0,66.0,39.0,70.0,-3.0,41.0,-942.0,218.0
2.0,-246.0,67.0,32.0,73.0,-3.0,49.0,-939.0,220.0
2.0,-243.0,62.0,27.0,74.0,-5.0,46.0,-938.0,219.0
3.0,-247.0,63.0,23.0,76.0,-5.0,44.0,-937.0,220.0
1.0,-244.0,65.0,21.0,77.0,-5.0,43.0,-943.0,217.0
2.0,-247.0,61.0,17.0,78.0,-4.0,41.0,-940.0,220.0
1.0,-244.0,64.0,17.0,77.0,-5.0,43.0,-946.0,220.0
2.0,-243.0,64.0,14.0,75.0,-6.0,40.0,-939.0,220.0
4.0,-246.0,63.0,14.0,74.0,-6.0,41.0,-942.0,218.0
3.0,-247.0,64.0,13.0,74.0,-6.0,38.0,-947.0,212.0
2.0,-248.0,64.0,12.0,75.0,-3.0,41.0,-951.0,212.0
4.0,-247.0,62.0,12.0,75.0,-4.0,44.0,-947.0,216.0
-1.0,-247.0,64.0,12.0,73.0,-4.0,39.0,-955.0,218.0
2.0,-247.0,63.0,14.0,72.0,-4.0,40.0,-953.0,216.0
4.0,-248.0,63.0,17.0,71.0,-4.0,38.0,-952.0,213.0
1.0,-248.0,63.0,22.0,71.0,-4.0,37.0,-956.0,208.0
2.0,-248.0,62.0,25.0,70.0,-3.0,39.0,-953.0,214.0
2.0,-247.0,62.0,28.0,70.0,-2.0,41.0,-956.0,214.0
2.0,-248.0,62.0,28.0,72.0,-1.0,42.0,-953.0,212.0
1.0,-248.0,61.0,30.0,74.0,-1.0,42.0,-959.0,215.0
2.0,-248.0,63.0,31.0,74.0,-2.0,44.0,-950.0,210.0
2.0,-245.0,64.0,32.0,74.0,-3.0,38.0,-948.0,209.0
0.0,-247.0,64.0,31.0,72.0,-2.0,46.0,-952.0,210.0
2.0,-247.0,58.0,29.0,70.0,-1.0,39.0,-945.0,208.0
5.0,-245.0,64.0,25.0,69.0,-1.0,43.0,-946.0,208.0
4.0,-247.0,58.0,24.0,70.0,0.0,43.0,-946.0,210.0
4.0,-246.0,62.0,21.0,71.0,-1.0,44.0,-943.0,212.0
3.0,-245.0,62.0,19.0,71.0,0.0,45.0,-943.0,215.0
4.0,-247.0,63.0,17.0,72.0,-1.0,47.0,-946.0,212.0
3.0,-248.0,64.0,17.0,73.0,-1.0,47.0,-948.0,208.0
2.0,-247.0,63.0,18.0,73.0,-1.0,44.0,-945.0,213.0
1.0,-245.0,66.0,17.0,70.0,-1.0,45.0,-948.0,213.0
3.0,-245.0,65.0,17.0,68.0,-2.0,46.0,-945.0,216.0
2.0,-245.0,63.0,17.0,69.0,-2.0,41.0,-951.0,217.0
4.0,-247.0,54.0,16.0,70.0,0.0,47.0,-944.0,212.0
3.0,-247.0,65.0,14.0,71.0,-1.0,47.0,-948.0,211.0
3.0,-248.0,61.0,13.0,70.0,-2.0,46.0,-948.0,210.0
2.0,-248.0,63.0,12.0,70.0,-2.0,46.0,-948.0,212.0
2.0,-248.0,64.0,11.0,71.0,-1.0,45.0,-947.0,215.0
3.0,-247.0,62.0,11.0,72.0,-1.0,47.0,-948.0,211.0
4.0,-247.0,65.0,11.0,72.0,-1.0,48.0,-946.0,212.0
2.0,-246.0,63.0,12.0,69.0,-1.0,46.0,-947.0,211.0
4.0,-247.0,67.0,13.0,67.0,0.0,48.0,-950.0,220.0
1.0,-245.0,62.0,15.0,65.0,1.0,49.0,-947.0,220.0
2.0,-246.0,65.0,17.0,65.0,1.0,45.0,-945.0,219.0
3.0,-247.0,67.0,18.0,65.0,-1.0,47.0,-943.0,222.0
6.0,-245.0,62.0,18.0,67.0,1.0,45.0,-944.0,224.0
4.0,-248.0,64.0,18.0,67.0,0.0,45.0,-943.0,223.0
4.0,-248.0,64.0,16.0,70.0,-1.0,46.0,-939.0,221.0
0.0,-243.0,70.0,12.0,71.0,-1.0,47.0,-947.0,223.0
3.0,-247.0,65.0,10.0,73.0,-3.0,42.0,-949.0,224.0
1.0,-247.0,65.0,8.0,71.0,-2.0,44.0,-943.0,228.0
2.0,-247.0,65.0,8.0,70.0,-1.0,38.0,-943.0,219.0
3.0,-248.0,65.0,10.0,68.0,-1.0,40.0,-947.0,219.0
-1.0,-247.0,62.0,13.0,65.0,-1.0,37.0,-949.0,222.0
0.0,-247.0,63.0,16.0,63.0,0.0,38.0,-948.0,217.0
4.0,-248.0,71.0,17.0,62.0,0.0,36.0,-946.0,218.0
2.0,-248.0,66.0,20.0,62.0,0.0,40.0,-948.0,222.0
2.0,-246.0,64.0,23.0,61.0,0.0,43.0,-940.0,215.0
2.0,-245.0,63.0,22.0,61.0,0.0,36.0,-938.0,219.0
1.0,-247.0,63.0,21.0,61.0,-1.0,35.0,-940.0,217.0
0.0,-247.0,67.0,19.0,62.0,-3.0,38.0,-937.0,228.0
1.0,-243.0,63.0,17.0,63.0,-3.0,37.0,-933.0,223.0
2.0,-243.0,63.0,16.0,62.0,-4.0,39.0,-938.0,229.0
1.0,-245.0,67.0,15.0,64.0,-3.0,41.0,-940.0,223.0
1.0,-242.0,66.0,14.0,68.0,-5.0,38.0,-937.0,228.0
4.0,-242.0,68.0,13.0,68.0,-3.0,43.0,-943.0,228.0
4.0,-246.0,71.0,12.0,69.0,-3.0,45.0,-947.0,230.0
1.0,-245.0,66.0,12.0,70.0,-2.0,42.0,-947.0,230.0
1.0,-247.0,65.0,11.0,73.0,-1.0,42.0,-946.0,228.0
1.0,-246.0,69.0,11.0,72.0,-2.0,52.0,-943.0,231.0
3.0,-248.0,62.0,9.0,71.0,-1.0,46.0,-939.0,226.0
5.0,-245.0,65.0,6.0,70.0,0.0,47.0,-949.0,225.0
3.0,-245.0,65.0,1.0,70.0,-2.0,49.0,-946.0,219.0
4.0,-247.0,60.0,-1.0,70.0,-3.0,45.0,-944.0,223.0
2.0,-243.0,65.0,-2.0,70.0,-3.0,48.0,-947.0,227.0
2.0,-247.0,68.0,-5.0,70.0,-3.0,46.0,-948.0,224.0
7.0,-243.0,65.0,-4.0,70.0,-5.0,49.0,-954.0,224.0
4.0,-248.0,67.0,0.0,71.0,-5.0,43.0,-951.0,225.0
1.0,-247.0,65.0,3.0,70.0,-7.0,43.0,-943.0,220.0
3.0,-247.0,67.0,5.0,69.0,-6.0,42.0,-950.0,224.0
1.0,-248.0,65.0,4.0,68.0,-6.0,43.0,-948.0,220.0
2.0,-246.0,65.0,3.0,68.0,-5.0,40.0,-949.0,219.0
3.0,-247.0,63.0,3.0,68.0,-6.0,40.0,-943.0,218.0
0.0,-244.0,63.0,1.0,68.0,-7.0,43.0,-946.0,220.0
3.0,-246.0,62.0,2.0,68.0,-5.0,44.0,-944.0,222.0
2.0,-246.0,66.0,3.0,67.0,-5.0,43.0,-941.0,222.0
2.0,-245.0,65.0,3.0,68.0,-6.0,42.0,-942.0,220.0
2.0,-245.0,63.0,3.0,69.0,-4.0,40.0,-941.0,217.0
5.0,-248.0,63.0,4.0,70.0,-3.0,44.0,-944.0,220.0
2.0,-244.0,64.0,5.0,68.0,-3.0,42.0,-942.0,221.0
2.0,-243.0,64.0,4.0,68.0,-3.0,41.0,-944.0,229.0
3.0,-245.0,64.0,3.0,68.0,-2.0,44.0,-943.0,226.0
1.0,-245.0,67.0,1.0,69.0,-2.0,41.0,-948.0,227.0
1.0,-246.0,68.0,-1.0,69.0,-3.0,42.0,-942.0,229.0
3.0,-248.0,69.0,0.0,70.0,-1.0,43.0,-950.0,226.0
1.0,-247.0,66.0,0.0,69.0,0.0,49.0,-951.0,228.0
2.0,-247.0,68.0,1.0,71.0,0.0,46.0,-949.0,229.0
3.0,-247.0,67.0,2.0,72.0,-1.0,46.0,-946.0,222.0
8.0,-251.0,75.0,2.0,73.0,-3.0,47.0,-944.0,224.0
7.0,-250.0,66.0,1.0,73.0,-4.0,47.0,-944.0,228.0
2.0,-246.0,67.0,1.0,74.0,-5.0,45.0,-946.0,222.0
3.0,-245.0,65.0,0.0,73.0,-8.0,47.0,-946.0,228.0
2.0,-248.0,65.0,-3.0,73.0,-9.0,45.0,-943.0,227.0
2.0,-247.0,68.0,-3.0,72.0,-8.0,42.0,-943.0,223.0
2.0,-247.0,63.0,-5.0,73.0,-11.0,45.0,-951.0,223.0
2.0,-246.0,67.0,-5.0,73.0,-12.0,44.0,-944.0,227.0
3.0,-245.0,65.0,-5.0,73.0,-12.0,38.0,-945.0,225.0
3.0,-247.0,68.0,-5.0,73.0,-12.0,42.0,-944.0,231.0
2.0,-247.0,63.0,-3.0,74.0,-12.0,36.0,-944.0,224.0
3.0,-247.0,64.0,-3.0,72.0,-11.0,41.0,-946.0,227.0
2.0,-246.0,66.0,-2.0,71.0,-10.0,39.0,-944.0,223.0
0.0,-247.0,68.0,-1.0,72.0,-8.0,35.0,-945.0,227.0
0.0,-245.0,67.0,-2.0,72.0,-7.0,38.0,-944.0,228.0
1.0,-247.0,65.0,-3.0,74.0,-6.0,36.0,-948.0,224.0
1.0,-247.0,67.0,-1.0,74.0,-5.0,43.0,-947.0,228.0
2.0,-246.0,71.0,-2.0,73.0,-6.0,40.0,-943.0,230.0
3.0,-248.0,69.0,-1.0,73.0,-6.0,39.0,-941.0,231.0
4.0,-247.0,62.0,-1.0,72.0,-6.0,44.0,-939.0,228.0
2.0,-245.0,69.0,-1.0,72.0,-6.0,52.0,-942.0,232.0
1.0,-245.0,66.0,-1.0,72.0,-7.0,47.0,-943.0,229.0
2.0,-243.0,69.0,-3.0,73.0,-8.0,50.0,-947.0,229.0
3.0,-245.0,68.0,-2.0,72.0,-8.0,51.0,-946.0,225.0
5.0,-247.0,68.0,-2.0,71.0,-7.0,49.0,-942.0,228.0
8.0,-246.0,64.0,-3.0,70.0,-6.0,51.0,-939.0,226.0
2.0,-244.0,67.0,0.0,68.0,-5.0,47.0,-943.0,227.0
6.0,-244.0,67.0,1.0,67.0,-4.0,48.0,-948.0,230.0
4.0,-247.0,67.0,3.0,65.0,-5.0,49.0,-944.0,227.0
3.0,-245.0,69.0,4.0,64.0,-4.0,48.0,-942.0,225.0
5.0,-245.0,65.0,4.0,64.0,-3.0,46.0,-945.0,230.0
3.0,-248.0,64.0,6.0,64.0,-3.0,45.0,-943.0,231.0
4.0,-245.0,66.0,7.0,65.0,-3.0,44.0,-938.0,228.0
2.0,-244.0,66.0,8.0,66.0,-2.0,46.0,-943.0,226.0
3.0,-245.0,66.0,7.0,68.0,-1.0,45.0,-939.0,228.0
3.0,-246.0,66.0,6.0,70.0,-2.0,45.0,-940.0,229.0
3.0,-245.0,69.0,5.0,71.0,-2.0,44.0,-938.0,223.0
3.0,-242.0,67.0,3.0,72.0,-3.0,42.0,-939.0,227.0
2.0,-242.0,68.0,3.0,73.0,-4.0,42.0,-941.0,227.0
1.0,-246.0,67.0,3.0,74.0,-4.0,43.0,-944.0,233.0
0.0,-243.0,65.0,4.0,73.0,-2.0,43.0,-945.0,231.0
1.0,-246.0,64.0,5.0,74.0,-2.0,37.0,-939.0,230.0
1.0,-246.0,68.0,5.0,74.0,-1.0,40.0,-949.0,232.0
5.0,-244.0,61.0,4.0,74.0,1.0,42.0,-944.0,230.0
6.0,-246.0,67.0,2.0,74.0,1.0,41.0,-946.0,230.0
3.0,-246.0,68.0,2.0,73.0,2.0,42.0,-949.0,225.0
1.0,-247.0,65.0,0.0,72.0,1.0,42.0,-943.0,231.0
3.0,-245.0,67.0,1.0,72.0,2.0,47.0,-945.0,227.0
2.0,-245.0,65.0,-1.0,69.0,1.0,44.0,-946.0,233.0
2.0,-246.0,70.0,-1.0,68.0,1.0,40.0,-944.0,232.0
2.0,-245.0,66.0,-1.0,67.0,1.0,43.0,-941.0,227.0
1.0,-247.0,66.0,-3.0,66.0,1.0,45.0,-942.0,230.0
1.0,-245.0,66.0,-5.0,67.0,-1.0,44.0,-941.0,228.0
1.0,-245.0,67.0,-6.0,68.0,0.0,49.0,-948.0,231.0
4.0,-244.0,69.0,-7.0,70.0,-1.0,44.0,-944.0,233.0
2.0,-246.0,69.0,-6.0,70.0,-1.0,44.0,-943.0,232.0
3.0,-246.0,64.0,-5.0,71.0,-2.0,46.0,-939.0,234.0
2.0,-246.0,67.0,-3.0,70.0,-2.0,43.0,-943.0,232.0
0.0,-245.0,68.0,-1.0,69.0,-4.0,42.0,-942.0,230.0
2.0,-244.0,65.0,2.0,69.0,-4.0,41.0,-943.0,234.0
3.0,-247.0,64.0,5.0,67.0,-4.0,41.0,-944.0,231.0
3.0,-248.0,65.0,5.0,67.0,-2.0,41.0,-947.0,230.0
1.0,-247.0,65.0,6.0,68.0,-3.0,42.0,-947.0,233.0
3.0,-248.0,67.0,8.0,68.0,-3.0,42.0,-958.0,231.0
3.0,-248.0,65.0,12.0,71.0,-4.0,41.0,-955.0,233.0
-1.0,-243.0,72.0,16.0,72.0,-4.0,44.0,-951.0,226.0
3.0,-247.0,67.0,21.0,72.0,-3.0,47.0,-952.0,228.0
2.0,-245.0,69.0,26.0,71.0,-1.0,48.0,-949.0,223.0
4.0,-244.0,68.0,30.0,71.0,-1.0,47.0,-946.0,222.0
4.0,-246.0,64.0,31.0,69.0,0.0,45.0,-943.0,225.0
2.0,-246.0,68.0,29.0,68.0,0.0,45.0,-938.0,223.0
1.0,-243.0,61.0,26.0,70.0,1.0,46.0,-935.0,224.0
3.0,-244.0,67.0,20.0,68.0,-3.0,47.0,-936.0,224.0
3.0,-245.0,67.0,17.0,68.0,-3.0,40.0,-941.0,227.0
2.0,-242.0,67.0,13.0,68.0,-2.0,39.0,-937.0,227.0
2.0,-244.0,66.0,14.0,68.0,-3.0,38.0,-944.0,233.0
1.0,-244.0,66.0,13.0,71.0,-1.0,39.0,-937.0,234.0
1.0,-246.0,72.0,15.0,70.0,-1.0,36.0,-938.0,233.0
1.0,-246.0,70.0,17.0,71.0,0.0,38.0,-946.0,237.0
3.0,-246.0,69.0,20.0,71.0,2.0,37.0,-942.0,244.0
1.0,-245.0,66.0,21.0,72.0,3.0,42.0,-944.0,238.0
1.0,-243.0,66.0,24.0,71.0,1.0,37.0,-942.0,241.0
0.0,-245.0,68.0,23.0,70.0,2.0,42.0,-943.0,236.0
4.0,-243.0,68.0,23.0,70.0,4.0,44.0,-939.0,239.0
2.0,-245.0,71.0,20.0,71.0,2.0,44.0,-945.0,238.0
1.0,-247.0,74.0,16.0,71.0,-1.0,43.0,-939.0,234.0
2.0,-245.0,66.0,13.0,72.0,-2.0,50.0,-942.0,231.0
3.0,-248.0,65.0,10.0,72.0,-3.0,49.0,-950.0,231.0
3.0,-247.0,66.0,8.0,71.0,-4.0,48.0,-943.0,235.0
6.0,-248.0,69.0,8.0,71.0,-3.0,53.0,-944.0,232.0
2.0,-246.0,67.0,7.0,72.0,-4.0,50.0,-947.0,235.0
4.0,-246.0,69.0,10.0,70.0,-3.0,51.0,-944.0,238.0
5.0,-247.0,69.0,11.0,70.0,-4.0,46.0,-945.0,237.0
2.0,-245.0,68.0,15.0,70.0,-4.0,47.0,-943.0,231.0
3.0,-245.0,71.0,15.0,69.0,-3.0,44.0,-942.0,233.0
5.0,-245.0,67.0,16.0,69.0,-3.0,42.0,-935.0,233.0
3.0,-246.0,69.0,15.0,69.0,-2.0,46.0,-942.0,233.0
2.0,-242.0,71.0,17.0,68.0,-1.0,43.0,-938.0,231.0
3.0,-246.0,68.0,14.0,69.0,-1.0,41.0,-941.0,232.0
1.0,-244.0,67.0,14.0,69.0,-1.0,41.0,-940.0,232.0
3.0,-245.0,69.0,10.0,69.0,-2.0,40.0,-941.0,232.0
2.0,-242.0,63.0,7.0,71.0,-2.0,41.0,-943.0,238.0
3.0,-246.0,68.0,4.0,71.0,-2.0,37.0,-940.0,233.0
0.0,-245.0,69.0,1.0,71.0,-2.0,42.0,-941.0,235.0
5.0,-245.0,69.0,-1.0,72.0,-3.0,43.0,-943.0,232.0
1.0,-245.0,69.0,-3.0,73.0,-3.0,40.0,-942.0,240.0
2.0,-242.0,65.0,-4.0,74.0,-4.0,40.0,-942.0,232.0
2.0,-244.0,70.0,-3.0,75.0,-4.0,42.0,-942.0,239.0
2.0,-244.0,72.0,-5.0,73.0,-4.0,42.0,-938.0,240.0
4.0,-248.0,68.0,-5.0,73.0,-3.0,45.0,-942.0,239.0
5.0,-242.0,78.0,-4.0,73.0,-2.0,47.0,-941.0,242.0
6.0,-248.0,64.0,-2.0,73.0,-3.0,47.0,-944.0,243.0
7.0,-246.0,75.0,-1.0,73.0,-4.0,44.0,-937.0,241.0
10.0,-243.0,67.0,-1.0,71.0,-4.0,48.0,-937.0,244.0
0.0,-239.0,52.0,-1.0,67.0,-5.0,45.0,-939.0,242.0
-2.0,-240.0,67.0,-1.0,67.0,-4.0,42.0,-940.0,240.0
17.0,-243.0,58.0,0.0,67.0,-5.0,42.0,-940.0,242.0
2.0,-240.0,78.0,-3.0,66.0,-5.0,46.0,-934.0,232.0
3.0,-243.0,71.0,-7.0,67.0,-5.0,41.0,-938.0,235.0
0.0,-224.0,70.0,-6.0,69.0,-6.0,37.0,-945.0,237.0
2.0,-244.0,72.0,-7.0,70.0,-6.0,43.0,-939.0,237.0
3.0,-244.0,67.0,-6.0,73.0,-6.0,41.0,-938.0,241.0
3.0,-243.0,71.0,-4.0,74.0,-7.0,41.0,-939.0,243.0
3.0,-243.0,68.0,-3.0,76.0,-8.0,39.0,-941.0,241.0
6.0,-241.0,83.0,-2.0,78.0,-7.0,43.0,-942.0,241.0
5.0,-248.0,64.0,-1.0,77.0,-5.0,42.0,-941.0,240.0
1.0,-242.0,72.0,-2.0,78.0,-4.0,42.0,-941.0,238.0
4.0,-243.0,71.0,-2.0,77.0,-3.0,38.0,-942.0,238.0
2.0,-246.0,62.0,-4.0,75.0,-2.0,40.0,-941.0,245.0
7.0,-242.0,74.0,-5.0,75.0,-3.0,36.0,-942.0,243.0
2.0,-245.0,68.0,-5.0,73.0,-2.0,38.0,-934.0,238.0
3.0,-248.0,67.0,-5.0,72.0,-2.0,39.0,-948.0,239.0
6.0,-245.0,74.0,-6.0,72.0,-2.0,45.0,-940.0,241.0
8.0,-241.0,60.0,-6.0,72.0,-3.0,44.0,-946.0,237.0
2.0,-246.0,73.0,-5.0,72.0,-4.0,46.0,-941.0,238.0
4.0,-244.0,66.0,-6.0,72.0,-4.0,48.0,-942.0,244.0
2.0,-244.0,67.0,-6.0,70.0,-4.0,43.0,-942.0,238.0
2.0,-243.0,72.0,-6.0,69.0,-4.0,43.0,-945.0,245.0
2.0,-241.0,68.0,-7.0,67.0,-4.0,45.0,-946.0,239.0
1.0,-244.0,71.0,-9.0,65.0,-3.0,47.0,-941.0,239.0
2.0,-247.0,55.0,-11.0,65.0,-5.0,47.0,-939.0,242.0
-9.0,-241.0,76.0,-13.0,69.0,-4.0,45.0,-935.0,239.0
5.0,-242.0,72.0,-13.0,68.0,-3.0,46.0,-937.0,239.0
0.0,-248.0,64.0,-15.0,70.0,-4.0,43.0,-934.0,234.0
11.0,-247.0,61.0,-16.0,72.0,-4.0,51.0,-936.0,238.0
9.0,-243.0,69.0,-16.0,73.0,-3.0,46.0,-939.0,238.0
8.0,-241.0,54.0,-17.0,75.0,-3.0,45.0,-941.0,240.0
10.0,-246.0,88.0,-14.0,73.0,-2.0,45.0,-943.0,234.0
9.0,-231.0,63.0,-13.0,75.0,-1.0,43.0,-945.0,242.0
3.0,-246.0,70.0,-11.0,76.0,-1.0,37.0,-948.0,238.0
2.0,-244.0,70.0,-8.0,75.0,-2.0,43.0,-943.0,234.0
2.0,-243.0,69.0,-7.0,73.0,-2.0,45.0,-942.0,235.0
2.0,-245.0,70.0,-6.0,72.0,-2.0,39.0,-943.0,239.0
1.0,-245.0,70.0,-4.0,71.0,-3.0,37.0,-941.0,239.0
-3.0,-227.0,67.0,-1.0,70.0,-3.0,40.0,-940.0,241.0
6.0,-242.0,83.0,0.0,70.0,-2.0,39.0,-939.0,237.0
8.0,-238.0,79.0,0.0,70.0,-1.0,39.0,-937.0,244.0
4.0,-238.0,76.0,2.0,70.0,-1.0,42.0,-947.0,241.0
6.0,-251.0,65.0,2.0,68.0,-1.0,40.0,-942.0,245.0
7.0,-237.0,76.0,1.0,69.0,-1.0,40.0,-941.0,243.0
-1.0,-244.0,70.0,0.0,68.0,1.0,40.0,-934.0,244.0
7.0,-246.0,74.0,0.0,69.0,1.0,42.0,-940.0,242.0
1.0,-242.0,68.0,-2.0,68.0,1.0,38.0,-938.0,241.0
4.0,-241.0,70.0,-4.0,68.0,-2.0,47.0,-943.0,241.0
6.0,-252.0,67.0,-7.0,68.0,-3.0,46.0,-943.0,237.0
4.0,-246.0,70.0,-7.0,69.0,-1.0,49.0,-939.0,239.0
1.0,-243.0,71.0,-7.0,69.0,-3.0,48.0,-933.0,236.0
3.0,-245.0,67.0,-8.0,69.0,-3.0,49.0,-945.0,236.0
5.0,-246.0,67.0,-8.0,68.0,-1.0,50.0,-939.0,234.0
2.0,-246.0,79.0,-8.0,69.0,-1.0,42.0,-940.0,240.0
2.0,-235.0,62.0,-5.0,69.0,-3.0,42.0,-942.0,242.0
6.0,-247.0,70.0,-6.0,70.0,-2.0,41.0,-944.0,241.0
2.0,-247.0,72.0,-5.0,70.0,-2.0,46.0,-944.0,243.0
4.0,-245.0,73.0,-5.0,71.0,-2.0,39.0,-943.0,242.0
3.0,-244.0,74.0,-6.0,69.0,-2.0,43.0,-945.0,243.0
1.0,-241.0,68.0,-7.0,68.0,-3.0,42.0,-942.0,244.0
3.0,-247.0,62.0,-8.0,66.0,-4.0,43.0,-947.0,245.0
1.0,-246.0,73.0,-7.0,66.0,-3.0,38.0,-948.0,244.0
2.0,-245.0,65.0,-6.0,67.0,-3.0,37.0,-944.0,244.0
5.0,-245.0,74.0,-4.0,67.0,-2.0,38.0,-946.0,236.0
2.0,-247.0,66.0,0.0,65.0,-1.0,36.0,-945.0,241.0
4.0,-248.0,65.0,2.0,66.0,-1.0,37.0,-943.0,236.0
4.0,-245.0,68.0,5.0,65.0,0.0,40.0,-937.0,233.0
2.0,-246.0,67.0,8.0,67.0,1.0,45.0,-939.0,227.0
5.0,-250.0,64.0,6.0,68.0,2.0,44.0,-935.0,235.0
2.0,-254.0,76.0,6.0,69.0,2.0,43.0,-937.0,235.0
13.0,-248.0,71.0,5.0,69.0,1.0,47.0,-937.0,238.0
0.0,-246.0,63.0,1.0,70.0,-2.0,42.0,-938.0,242.0
2.0,-247.0,62.0,-3.0,70.0,-3.0,41.0,-934.0,244.0
1.0,-258.0,76.0,-5.0,69.0,-2.0,43.0,-935.0,246.0
0.0,-243.0,76.0,-6.0,70.0,-4.0,43.0,-939.0,244.0
3.0,-237.0,70.0,-6.0,72.0,-4.0,41.0,-940.0,247.0
2.0,-247.0,72.0,-4.0,70.0,-4.0,38.0,-936.0,249.0
1.0,-238.0,79.0,-4.0,70.0,-3.0,36.0,-939.0,249.0
-1.0,-244.0,68.0,-2.0,69.0,-2.0,36.0,-941.0,243.0
2.0,-244.0,69.0,-2.0,70.0,-2.0,41.0,-935.0,244.0
2.0,-243.0,73.0,-4.0,69.0,-4.0,36.0,-941.0,248.0
3.0,-242.0,71.0,-5.0,68.0,-3.0,41.0,-942.0,247.0
1.0,-245.0,73.0,-6.0,68.0,-4.0,49.0,-938.0,237.0
2.0,-245.0,70.0,-6.0,69.0,-4.0,40.0,-938.0,242.0
1.0,-247.0,64.0,-6.0,68.0,-4.0,45.0,-945.0,238.0
9.0,-242.0,69.0,-6.0,69.0,-5.0,49.0,-945.0,242.0
6.0,-242.0,75.0,-5.0,70.0,-4.0,48.0,-939.0,243.0
3.0,-246.0,67.0,-7.0,70.0,-4.0,48.0,-935.0,238.0
4.0,-250.0,72.0,-7.0,70.0,-6.0,47.0,-936.0,238.0
6.0,-250.0,68.0,-9.0,70.0,-4.0,51.0,-937.0,247.0
4.0,-245.0,72.0,-11.0,70.0,-3.0,43.0,-936.0,244.0
4.0,-242.0,73.0,-14.0,69.0,-2.0,45.0,-936.0,241.0
5.0,-242.0,71.0,-14.0,69.0,-1.0,43.0,-934.0,239.0
4.0,-245.0,67.0,-17.0,69.0,0.0,38.0,-938.0,241.0
2.0,-234.0,63.0,-18.0,69.0,0.0,43.0,-941.0,245.0
2.0,-243.0,70.0,-21.0,70.0,-1.0,40.0,-934.0,243.0
3.0,-243.0,70.0,-23.0,69.0,0.0,48.0,-937.0,239.0
7.0,-248.0,70.0,-25.0,69.0,1.0,42.0,-940.0,242.0
1.0,-244.0,72.0,-24.0,70.0,1.0,44.0,-947.0,238.0
4.0,-242.0,75.0,-23.0,70.0,1.0,43.0,-943.0,242.0
3.0,-246.0,68.0,-24.0,69.0,0.0,48.0,-939.0,237.0
1.0,-246.0,69.0,-23.0,67.0,-3.0,46.0,-942.0,242.0
3.0,-245.0,72.0,-24.0,66.0,-4.0,48.0,-943.0,241.0
2.0,-238.0,65.0,-24.0,63.0,-3.0,42.0,-946.0,240.0
3.0,-245.0,71.0,-24.0,65.0,-2.0,40.0,-947.0,244.0
1.0,-246.0,69.0,-23.0,66.0,-2.0,41.0,-945.0,242.0
2.0,-246.0,70.0,-22.0,67.0,-1.0,43.0,-948.0,245.0
1.0,-244.0,72.0,-21.0,68.0,0.0,42.0,-950.0,246.0
2.0,-243.0,83.0,-18.0,68.0,0.0,41.0,-946.0,240.0
1.0,-246.0,66.0,-15.0,69.0,-1.0,45.0,-951.0,247.0
3.0,-246.0,72.0,-12.0,69.0,-2.0,44.0,-942.0,246.0
3.0,-245.0,71.0,-9.0,69.0,0.0,40.0,-942.0,244.0
1.0,-246.0,71.0,-7.0,69.0,1.0,41.0,-939.0,241.0
2.0,-243.0,70.0,-7.0,69.0,0.0,42.0,-937.0,244.0
3.0,-245.0,67.0,-8.0,70.0,-3.0,47.0,-937.0,243.0
1.0,-243.0,74.0,-10.0,71.0,-2.0,39.0,-935.0,239.0
1.0,-247.0,70.0,-12.0,71.0,-3.0,39.0,-933.0,244.0
1.0,-245.0,69.0,-16.0,69.0,-2.0,39.0,-933.0,245.0
1.0,-242.0,69.0,-19.0,66.0,-1.0,43.0,-939.0,242.0
2.0,-243.0,72.0,-21.0,67.0,-1.0,41.0,-930.0,244.0
4.0,-246.0,71.0,-23.0,66.0,-1.0,41.0,-937.0,244.0
2.0,-246.0,72.0,-27.0,67.0,0.0,41.0,-942.0,245.0
0.0,-245.0,76.0,-26.0,67.0,0.0,39.0,-938.0,242.0
-1.0,-245.0,71.0,-27.0,68.0,1.0,42.0,-937.0,250.0
5.0,-249.0,73.0,-25.0,70.0,0.0,40.0,-944.0,244.0
1.0,-245.0,73.0,-23.0,72.0,0.0,39.0,-946.0,246.0
1.0,-246.0,75.0,-22.0,72.0,-1.0,43.0,-946.0,241.0
3.0,-244.0,75.0,-21.0,72.0,-1.0,45.0,-940.0,245.0
1.0,-245.0,68.0,-20.0,73.0,-2.0,43.0,-939.0,241.0
2.0,-244.0,70.0,-22.0,71.0,-2.0,44.0,-938.0,244.0
1.0,-246.0,65.0,-22.0,71.0,-2.0,43.0,-941.0,246.0
2.0,-245.0,71.0,-23.0,69.0,-2.0,41.0,-933.0,241.0
2.0,-243.0,70.0,-25.0,69.0,-2.0,39.0,-941.0,242.0
2.0,-243.0,68.0,-26.0,68.0,-2.0,45.0,-939.0,240.0
1.0,-245.0,68.0,-29.0,68.0,-2.0,42.0,-941.0,240.0
1.0,-245.0,69.0,-30.0,68.0,-2.0,40.0,-946.0,241.0
1.0,-245.0,70.0,-31.0,67.0,0.0,44.0,-939.0,242.0
1.0,-245.0,72.0,-30.0,67.0,2.0,45.0,-940.0,239.0
3.0,-244.0,69.0,-30.0,67.0,2.0,47.0,-943.0,239.0
1.0,-244.0,67.0,-28.0,67.0,2.0,41.0,-940.0,238.0
2.0,-245.0,70.0,-26.0,67.0,1.0,41.0,-943.0,246.0
2.0,-246.0,67.0,-23.0,68.0,1.0,40.0,-944.0,241.0
3.0,-245.0,74.0,-23.0,71.0,2.0,43.0,-940.0,238.0
3.0,-242.0,68.0,-21.0,72.0,0.0,44.0,-942.0,235.0
3.0,-243.0,66.0,-20.0,72.0,-1.0,42.0,-941.0,242.0
3.0,-242.0,70.0,-20.0,72.0,0.0,42.0,-940.0,236.0
0.0,-245.0,67.0,-21.0,73.0,-2.0,44.0,-944.0,241.0
3.0,-245.0,70.0,-21.0,74.0,-1.0,40.0,-940.0,236.0
1.0,-243.0,69.0,-20.0,74.0,-2.0,42.0,-937.0,237.0
0.0,-242.0,69.0,-23.0,72.0,-2.0,40.0,-943.0,236.0
4.0,-247.0,71.0,-25.0,72.0,-1.0,37.0,-942.0,242.0
0.0,-242.0,70.0,-27.0,73.0,-1.0,44.0,-934.0,246.0
2.0,-244.0,70.0,-29.0,71.0,0.0,40.0,-938.0,241.0
1.0,-245.0,69.0,-29.0,70.0,1.0,43.0,-939.0,242.0
1.0,-245.0,74.0,-29.0,69.0,2.0,42.0,-939.0,241.0
4.0,-245.0,61.0,-29.0,68.0,0.0,38.0,-941.0,243.0
1.0,-244.0,69.0,-30.0,65.0,0.0,41.0,-943.0,236.0
2.0,-248.0,69.0,-30.0,65.0,2.0,44.0,-941.0,237.0
1.0,-244.0,70.0,-31.0,65.0,3.0,43.0,-943.0,240.0
0.0,-247.0,72.0,-31.0,65.0,3.0,42.0,-941.0,237.0
2.0,-246.0,67.0,-30.0,64.0,1.0,38.0,-943.0,245.0
4.0,-246.0,67.0,-28.0,64.0,1.0,38.0,-947.0,236.0
1.0,-244.0,69.0,-25.0,64.0,2.0,41.0,-941.0,245.0
2.0,-248.0,68.0,-23.0,62.0,3.0,48.0,-942.0,238.0
3.0,-247.0,70.0,-21.0,64.0,3.0,43.0,-946.0,234.0
2.0,-244.0,67.0,-20.0,66.0,4.0,46.0,-938.0,234.0
3.0,-244.0,70.0,-20.0,66.0,3.0,47.0,-940.0,236.0
6.0,-245.0,71.0,-21.0,67.0,3.0,41.0,-942.0,233.0
0.0,-245.0,65.0,-23.0,67.0,1.0,42.0,-938.0,238.0
3.0,-245.0,69.0,-23.0,69.0,2.0,42.0,-938.0,230.0
5.0,-246.0,69.0,-25.0,69.0,2.0,43.0,-940.0,234.0
1.0,-242.0,67.0,-29.0,69.0,2.0,44.0,-936.0,235.0
1.0,-242.0,69.0,-31.0,68.0,1.0,38.0,-941.0,239.0
0.0,-242.0,67.0,-31.0,69.0,3.0,45.0,-941.0,239.0
1.0,-244.0,68.0,-32.0,68.0,2.0,40.0,-944.0,241.0
-1.0,-245.0,68.0,-32.0,68.0,1.0,38.0,-939.0,239.0
0.0,-241.0,66.0,-33.0,67.0,2.0,42.0,-945.0,243.0
-1.0,-244.0,71.0,-33.0,67.0,2.0,39.0,-945.0,237.0
2.0,-247.0,70.0,-34.0,66.0,3.0,36.0,-943.0,241.0
2.0,-246.0,71.0,-34.0,63.0,4.0,42.0,-946.0,245.0
1.0,-248.0,69.0,-32.0,63.0,5.0,38.0,-946.0,247.0
2.0,-247.0,68.0,-31.0,60.0,5.0,38.0,-946.0,241.0
2.0,-246.0,64.0,-30.0,61.0,7.0,37.0,-950.0,233.0
1.0,-247.0,67.0,-28.0,62.0,7.0,37.0,-950.0,228.0
0.0,-246.0,67.0,-25.0,62.0,8.0,41.0,-948.0,229.0
3.0,-247.0,67.0,-23.0,63.0,8.0,45.0,-945.0,231.0
4.0,-244.0,69.0,-20.0,65.0,8.0,44.0,-945.0,235.0
1.0,-241.0,66.0,-18.0,64.0,8.0,47.0,-939.0,231.0
3.0,-243.0,70.0,-16.0,63.0,4.0,45.0,-938.0,233.0
5.0,-241.0,70.0,-14.0,61.0,4.0,40.0,-932.0,233.0
1.0,-244.0,70.0,-12.0,62.0,3.0,44.0,-931.0,235.0
1.0,-243.0,69.0,-12.0,62.0,1.0,40.0,-936.0,234.0
2.0,-246.0,70.0,-14.0,64.0,0.0,40.0,-934.0,242.0
2.0,-245.0,74.0,-17.0,66.0,-2.0,37.0,-941.0,242.0
1.0,-243.0,71.0,-19.0,67.0,-2.0,40.0,-938.0,243.0
1.0,-245.0,68.0,-21.0,70.0,-1.0,39.0,-940.0,243.0
1.0,-243.0,72.0,-21.0,72.0,-1.0,42.0,-940.0,245.0
1.0,-243.0,72.0,-22.0,73.0,-1.0,35.0,-948.0,244.0
4.0,-243.0,71.0,-23.0,74.0,1.0,42.0,-943.0,244.0
2.0,-246.0,71.0,-23.0,74.0,0.0,38.0,-936.0,237.0
4.0,-245.0,69.0,-23.0,74.0,1.0,47.0,-943.0,239.0
0.0,-245.0,71.0,-23.0,75.0,0.0,41.0,-944.0,235.0
1.0,-245.0,71.0,-22.0,74.0,0.0,47.0,-945.0,239.0
3.0,-245.0,64.0,-22.0,70.0,-2.0,44.0,-942.0,241.0
1.0,-244.0,66.0,-22.0,69.0,-1.0,47.0,-946.0,232.0
1.0,-247.0,69.0,-23.0,69.0,-1.0,45.0,-941.0,234.0
3.0,-243.0,72.0,-23.0,66.0,-2.0,43.0,-942.0,235.0
2.0,-244.0,67.0,-22.0,66.0,-2.0,41.0,-943.0,231.0
3.0,-246.0,67.0,-23.0,65.0,-1.0,42.0,-942.0,233.0
0.0,-244.0,71.0,-23.0,64.0,1.0,41.0,-940.0,233.0
4.0,-245.0,66.0,-23.0,65.0,1.0,41.0,-938.0,234.0
3.0,-245.0,70.0,-22.0,65.0,2.0,39.0,-940.0,234.0
3.0,-244.0,68.0,-25.0,67.0,2.0,42.0,-935.0,235.0
1.0,-243.0,65.0,-26.0,67.0,2.0,40.0,-937.0,234.0
0.0,-241.0,71.0,-28.0,67.0,2.0,37.0,-942.0,239.0
2.0,-244.0,65.0,-30.0,68.0,3.0,39.0,-936.0,235.0
4.0,-243.0,65.0,-34.0,67.0,2.0,44.0,-941.0,233.0
1.0,-245.0,67.0,-35.0,69.0,1.0,40.0,-943.0,235.0
4.0,-245.0,65.0,-37.0,71.0,0.0,39.0,-937.0,235.0
1.0,-245.0,62.0,-40.0,72.0,-1.0,38.0,-940.0,233.0
1.0,-248.0,67.0,-43.0,73.0,-2.0,41.0,-945.0,233.0
1.0,-246.0,65.0,-43.0,72.0,-1.0,42.0,-949.0,230.0
2.0,-247.0,68.0,-44.0,73.0,-1.0,38.0,-947.0,234.0
1.0,-247.0,67.0,-42.0,74.0,0.0,38.0,-948.0,230.0
0.0,-246.0,66.0,-40.0,75.0,-1.0,41.0,-947.0,233.0
3.0,-246.0,67.0,-39.0,75.0,-1.0,40.0,-943.0,232.0
3.0,-246.0,65.0,-36.0,78.0,-2.0,43.0,-946.0,232.0
1.0,-246.0,67.0,-35.0,78.0,-3.0,40.0,-943.0,228.0
2.0,-246.0,69.0,-33.0,79.0,-3.0,44.0,-940.0,232.0
1.0,-243.0,64.0,-34.0,78.0,-2.0,52.0,-936.0,230.0
2.0,-241.0,66.0,-37.0,77.0,-4.0,48.0,-934.0,226.0
1.0,-244.0,63.0,-41.0,77.0,-4.0,51.0,-938.0,230.0
3.0,-238.0,68.0,-46.0,79.0,-6.0,50.0,-942.0,227.0
1.0,-244.0,62.0,-50.0,79.0,-6.0,45.0,-936.0,230.0
2.0,-246.0,64.0,-55.0,82.0,-7.0,41.0,-939.0,231.0
3.0,-247.0,66.0,-58.0,84.0,-6.0,41.0,-942.0,231.0
4.0,-246.0,63.0,-60.0,86.0,-6.0,36.0,-948.0,229.0
1.0,-245.0,62.0,-60.0,87.0,-5.0,38.0,-953.0,233.0
0.0,-246.0,66.0,-57.0,88.0,-4.0,32.0,-949.0,227.0
0.0,-247.0,65.0,-53.0,88.0,-4.0,29.0,-952.0,231.0
0.0,-246.0,66.0,-48.0,87.0,-3.0,27.0,-952.0,233.0
0.0,-247.0,61.0,-41.0,88.0,-1.0,25.0,-957.0,232.0
0.0,-249.0,66.0,-34.0,88.0,-1.0,24.0,-953.0,226.0
0.0,-246.0,70.0,-28.0,86.0,-1.0,30.0,-950.0,229.0
0.0,-247.0,65.0,-22.0,85.0,-1.0,33.0,-951.0,231.0
0.0,-247.0,70.0,-17.0,83.0,-2.0,30.0,-953.0,229.0
-2.0,-247.0,68.0,-12.0,79.0,-2.0,33.0,-946.0,230.0
1.0,-247.0,69.0,-10.0,76.0,-4.0,31.0,-941.0,230.0
0.0,-246.0,70.0,-9.0,74.0,-4.0,35.0,-939.0,229.0
0.0,-243.0,64.0,-10.0,72.0,-4.0,34.0,-941.0,230.0
2.0,-245.0,70.0,-11.0,72.0,-5.0,37.0,-939.0,233.0
2.0,-242.0,64.0,-15.0,72.0,-3.0,37.0,-936.0,234.0
1.0,-242.0,67.0,-19.0,72.0,-3.0,38.0,-932.0,235.0
3.0,-244.0,70.0,-23.0,71.0,-2.0,37.0,-936.0,235.0
0.0,-243.0,60.0,-27.0,72.0,-1.0,40.0,-933.0,235.0
4.0,-246.0,67.0,-29.0,72.0,-2.0,42.0,-933.0,233.0
2.0,-242.0,67.0,-31.0,73.0,-1.0,44.0,-939.0,232.0
4.0,-244.0,67.0,-33.0,73.0,-1.0,50.0,-944.0,228.0
4.0,-247.0,67.0,-35.0,74.0,-1.0,50.0,-939.0,235.0
4.0,-242.0,67.0,-35.0,74.0,-1.0,48.0,-939.0,237.0
2.0,-245.0,69.0,-34.0,74.0,-1.0,47.0,-942.0,232.0
5.0,-246.0,68.0,-32.0,74.0,-1.0,49.0,-951.0,236.0
1.0,-246.0,67.0,-32.0,73.0,-1.0,51.0,-943.0,234.0
4.0,-243.0,67.0,-28.0,75.0,-1.0,45.0,-949.0,230.0
3.0,-247.0,67.0,-26.0,75.0,-2.0,47.0,-947.0,237.0
3.0,-248.0,67.0,-24.0,75.0,-2.0,43.0,-943.0,227.0
1.0,-245.0,68.0,-23.0,74.0,-2.0,44.0,-942.0,226.0
4.0,-247.0,67.0,-23.0,73.0,-4.0,37.0,-945.0,227.0
1.0,-247.0,67.0,-22.0,72.0,-4.0,36.0,-947.0,224.0
0.0,-245.0,67.0,-21.0,71.0,-5.0,33.0,-944.0,223.0
2.0,-247.0,64.0,-21.0,70.0,-3.0,36.0,-943.0,223.0
0.0,-244.0,65.0,-21.0,70.0,-4.0,33.0,-946.0,225.0
0.0,-246.0,69.0,-19.0,67.0,-3.0,31.0,-943.0,230.0
-4.0,-244.0,65.0,-19.0,66.0,-3.0,31.0,-947.0,226.0
2.0,-244.0,67.0,-18.0,66.0,-1.0,35.0,-940.0,228.0
0.0,-247.0,68.0,-15.0,67.0,0.0,36.0,-945.0,231.0
1.0,-247.0,73.0,-15.0,67.0,1.0,34.0,-942.0,230.0
2.0,-244.0,64.0,-14.0,66.0,1.0,36.0,-940.0,227.0
1.0,-247.0,66.0,-16.0,66.0,2.0,36.0,-941.0,224.0
-2.0,-245.0,65.0,-15.0,66.0,2.0,32.0,-937.0,228.0
1.0,-246.0,67.0,-18.0,66.0,2.0,35.0,-943.0,227.0
1.0,-245.0,65.0,-18.0,66.0,-1.0,40.0,-939.0,227.0
1.0,-246.0,68.0,-21.0,64.0,0.0,40.0,-950.0,223.0
2.0,-245.0,66.0,-23.0,66.0,-1.0,42.0,-943.0,226.0
4.0,-246.0,66.0,-23.0,67.0,-1.0,45.0,-946.0,225.0
2.0,-245.0,67.0,-23.0,67.0,-2.0,40.0,-944.0,230.0
3.0,-246.0,66.0,-23.0,68.0,-2.0,42.0,-948.0,222.0
3.0,-245.0,64.0,-23.0,71.0,-2.0,48.0,-940.0,227.0
3.0,-245.0,66.0,-21.0,70.0,-4.0,44.0,-943.0,226.0
3.0,-244.0,67.0,-20.0,71.0,-4.0,38.0,-949.0,224.0
3.0,-247.0,67.0,-19.0,71.0,-3.0,44.0,-947.0,229.0
2.0,-247.0,65.0,-17.0,72.0,-3.0,42.0,-948.0,230.0
2.0,-247.0,65.0,-17.0,71.0,-5.0,40.0,-948.0,228.0
1.0,-244.0,68.0,-17.0,72.0,-6.0,44.0,-945.0,227.0
1.0,-247.0,65.0,-17.0,72.0,-6.0,42.0,-941.0,227.0
1.0,-244.0,67.0,-20.0,70.0,-3.0,35.0,-946.0,229.0
0.0,-246.0,67.0,-21.0,70.0,-4.0,35.0,-946.0,233.0
1.0,-247.0,61.0,-23.0,70.0,-2.0,37.0,-945.0,229.0
2.0,-245.0,57.0,-24.0,68.0,-2.0,37.0,-947.0,228.0
0.0,-248.0,67.0,-25.0,67.0,-3.0,34.0,-947.0,223.0
2.0,-249.0,73.0,-23.0,68.0,-1.0,39.0,-950.0,224.0
0.0,-248.0,66.0,-17.0,66.0,0.0,35.0,-946.0,221.0
1.0,-248.0,67.0,-13.0,65.0,1.0,36.0,-946.0,225.0
1.0,-247.0,63.0,-6.0,66.0,1.0,38.0,-948.0,220.0
1.0,-247.0,66.0,-1.0,65.0,2.0,40.0,-947.0,224.0
2.0,-243.0,64.0,3.0,66.0,2.0,39.0,-942.0,219.0
1.0,-244.0,63.0,4.0,64.0,-1.0,46.0,-942.0,220.0
1.0,-243.0,63.0,5.0,65.0,-2.0,37.0,-941.0,221.0
4.0,-243.0,65.0,1.0,64.0,-4.0,40.0,-939.0,222.0
1.0,-245.0,65.0,-4.0,65.0,-5.0,40.0,-937.0,222.0
1.0,-242.0,67.0,-7.0,66.0,-6.0,36.0,-944.0,220.0
1.0,-245.0,67.0,-11.0,68.0,-5.0,37.0,-939.0,227.0
2.0,-246.0,68.0,-13.0,73.0,-7.0,37.0,-939.0,231.0
3.0,-249.0,69.0,-11.0,75.0,-7.0,40.0,-942.0,231.0
1.0,-249.0,68.0,-10.0,76.0,-5.0,35.0,-946.0,236.0
0.0,-247.0,68.0,-8.0,77.0,-5.0,38.0,-953.0,232.0
2.0,-245.0,69.0,-2.0,78.0,-4.0,41.0,-947.0,234.0
0.0,-248.0,68.0,2.0,79.0,-5.0,43.0,-950.0,233.0
0.0,-248.0,63.0,5.0,77.0,-4.0,33.0,-950.0,231.0
2.0,-247.0,66.0,8.0,76.0,-2.0,40.0,-946.0,227.0
5.0,-249.0,68.0,11.0,75.0,-2.0,37.0,-951.0,229.0
2.0,-249.0,68.0,12.0,72.0,0.0,41.0,-951.0,228.0
1.0,-247.0,65.0,11.0,70.0,-1.0,40.0,-944.0,224.0
3.0,-246.0,69.0,10.0,70.0,1.0,40.0,-947.0,227.0
3.0,-245.0,67.0,9.0,69.0,0.0,44.0,-946.0,225.0
3.0,-248.0,67.0,7.0,70.0,0.0,40.0,-942.0,231.0
-2.0,-244.0,68.0,5.0,68.0,0.0,41.0,-947.0,223.0
3.0,-247.0,67.0,5.0,67.0,-1.0,35.0,-944.0,227.0
3.0,-246.0,70.0,4.0,67.0,-2.0,43.0,-942.0,225.0
1.0,-246.0,69.0,6.0,67.0,-2.0,39.0,-939.0,229.0
3.0,-246.0,67.0,8.0,67.0,-1.0,45.0,-943.0,226.0
2.0,-245.0,67.0,9.0,67.0,-1.0,43.0,-946.0,233.0
4.0,-245.0,69.0,12.0,67.0,1.0,40.0,-947.0,227.0
2.0,-244.0,66.0,11.0,67.0,0.0,43.0,-940.0,223.0
4.0,-246.0,64.0,11.0,69.0,-2.0,46.0,-943.0,228.0
1.0,-246.0,65.0,11.0,68.0,0.0,38.0,-937.0,230.0
0.0,-245.0,67.0,9.0,69.0,0.0,39.0,-949.0,228.0
1.0,-244.0,63.0,7.0,70.0,-2.0,43.0,-940.0,234.0
2.0,-246.0,65.0,2.0,70.0,-2.0,44.0,-937.0,230.0
1.0,-246.0,65.0,0.0,69.0,-2.0,40.0,-944.0,230.0
3.0,-245.0,67.0,-1.0,70.0,-2.0,39.0,-943.0,231.0
0.0,-246.0,68.0,-1.0,71.0,-1.0,40.0,-947.0,231.0
2.0,-241.0,68.0,-1.0,71.0,-2.0,37.0,-947.0,235.0
1.0,-248.0,67.0,1.0,68.0,-1.0,41.0,-945.0,235.0
1.0,-244.0,65.0,3.0,68.0,-2.0,40.0,-944.0,234.0
0.0,-245.0,70.0,7.0,66.0,-1.0,40.0,-950.0,234.0
0.0,-245.0,68.0,7.0,65.0,-1.0,38.0,-948.0,231.0
-1.0,-243.0,69.0,9.0,62.0,0.0,41.0,-948.0,232.0
3.0,-248.0,69.0,11.0,63.0,1.0,35.0,-951.0,229.0
1.0,-246.0,69.0,12.0,65.0,-1.0,35.0,-947.0,231.0
2.0,-246.0,68.0,13.0,64.0,0.0,37.0,-943.0,223.0
1.0,-241.0,66.0,13.0,65.0,1.0,36.0,-942.0,229.0
2.0,-246.0,64.0,10.0,66.0,1.0,40.0,-941.0,223.0
1.0,-245.0,66.0,9.0,66.0,-1.0,37.0,-943.0,228.0
2.0,-243.0,66.0,6.0,68.0,-2.0,38.0,-938.0,228.0
1.0,-246.0,69.0,4.0,67.0,-1.0,34.0,-938.0,230.0
1.0,-243.0,67.0,3.0,67.0,1.0,39.0,-943.0,232.0
-1.0,-244.0,68.0,5.0,69.0,0.0,38.0,-937.0,236.0
0.0,-245.0,70.0,7.0,71.0,-2.0,38.0,-938.0,233.0
1.0,-245.0,70.0,10.0,72.0,-1.0,37.0,-938.0,242.0
2.0,-245.0,69.0,12.0,72.0,0.0,38.0,-938.0,243.0
1.0,-247.0,70.0,14.0,73.0,0.0,37.0,-938.0,242.0
1.0,-247.0,69.0,17.0,75.0,0.0,38.0,-941.0,235.0
4.0,-244.0,66.0,17.0,75.0,-1.0,35.0,-942.0,238.0
0.0,-246.0,66.0,16.0,74.0,0.0,39.0,-946.0,233.0
2.0,-248.0,67.0,15.0,73.0,1.0,38.0,-944.0,234.0
1.0,-246.0,69.0,12.0,75.0,1.0,41.0,-948.0,233.0
0.0,-242.0,67.0,11.0,74.0,0.0,40.0,-947.0,230.0
1.0,-248.0,67.0,11.0,72.0,1.0,39.0,-943.0,232.0
2.0,-247.0,67.0,11.0,74.0,1.0,35.0,-947.0,233.0
2.0,-247.0,64.0,12.0,73.0,1.0,43.0,-947.0,238.0
1.0,-247.0,67.0,14.0,71.0,2.0,34.0,-946.0,234.0
1.0,-245.0,69.0,17.0,72.0,4.0,33.0,-946.0,233.0
1.0,-245.0,67.0,21.0,73.0,4.0,41.0,-946.0,233.0
1.0,-244.0,68.0,24.0,73.0,6.0,38.0,-950.0,240.0
2.0,-246.0,68.0,28.0,73.0,6.0,37.0,-946.0,233.0
1.0,-244.0,66.0,29.0,72.0,7.0,37.0,-939.0,237.0
0.0,-246.0,65.0,29.0,74.0,7.0,37.0,-943.0,235.0
0.0,-243.0,66.0,29.0,72.0,8.0,36.0,-940.0,233.0
1.0,-244.0,64.0,27.0,69.0,6.0,38.0,-935.0,233.0
1.0,-243.0,72.0,26.0,70.0,5.0,36.0,-934.0,231.0
2.0,-243.0,71.0,24.0,68.0,2.0,38.0,-936.0,235.0
1.0,-242.0,66.0,22.0,65.0,2.0,42.0,-937.0,235.0
3.0,-243.0,69.0,19.0,64.0,1.0,37.0,-933.0,239.0
0.0,-241.0,71.0,17.0,63.0,1.0,44.0,-935.0,240.0
2.0,-246.0,70.0,14.0,63.0,3.0,45.0,-941.0,244.0
2.0,-244.0,67.0,13.0,66.0,4.0,41.0,-940.0,239.0
1.0,-245.0,73.0,14.0,67.0,4.0,47.0,-943.0,243.0
0.0,-244.0,71.0,14.0,68.0,4.0,47.0,-947.0,242.0
2.0,-244.0,69.0,14.0,68.0,5.0,43.0,-950.0,246.0
2.0,-247.0,69.0,14.0,69.0,4.0,45.0,-940.0,247.0
1.0,-245.0,72.0,15.0,68.0,4.0,43.0,-947.0,245.0
5.0,-244.0,71.0,15.0,68.0,4.0,40.0,-939.0,239.0
1.0,-246.0,70.0,14.0,67.0,6.0,40.0,-943.0,244.0
2.0,-245.0,69.0,14.0,67.0,7.0,43.0,-945.0,239.0
2.0,-248.0,70.0,13.0,68.0,4.0,41.0,-942.0,240.0
5.0,-247.0,68.0,12.0,67.0,4.0,39.0,-943.0,244.0
1.0,-246.0,69.0,13.0,67.0,5.0,42.0,-942.0,242.0
2.0,-244.0,70.0,14.0,64.0,5.0,38.0,-943.0,241.0
1.0,-245.0,73.0,15.0,61.0,4.0,37.0,-939.0,236.0
1.0,-244.0,68.0,15.0,61.0,3.0,40.0,-939.0,242.0
0.0,-246.0,70.0,15.0,61.0,1.0,37.0,-941.0,241.0
0.0,-245.0,67.0,13.0,61.0,2.0,36.0,-939.0,241.0
1.0,-243.0,69.0,10.0,62.0,0.0,34.0,-938.0,245.0
0.0,-242.0,69.0,7.0,62.0,1.0,34.0,-935.0,241.0
1.0,-245.0,69.0,4.0,60.0,0.0,34.0,-932.0,240.0
0.0,-244.0,70.0,0.0,61.0,1.0,37.0,-935.0,243.0
2.0,-244.0,66.0,-3.0,61.0,2.0,36.0,-931.0,244.0
2.0,-243.0,67.0,-4.0,62.0,2.0,34.0,-941.0,244.0
1.0,-243.0,73.0,-6.0,64.0,2.0,35.0,-939.0,237.0
0.0,-245.0,71.0,-6.0,66.0,4.0,35.0,-939.0,243.0
0.0,-245.0,71.0,-6.0,68.0,6.0,33.0,-942.0,244.0
0.0,-243.0,72.0,-5.0,70.0,5.0,36.0,-941.0,242.0
0.0,-245.0,73.0,-4.0,71.0,5.0,35.0,-935.0,248.0
0.0,-245.0,75.0,-1.0,71.0,3.0,34.0,-943.0,249.0
1.0,-246.0,71.0,1.0,71.0,5.0,36.0,-942.0,256.0
2.0,-246.0,73.0,3.0,73.0,4.0,32.0,-947.0,248.0
0.0,-246.0,70.0,6.0,74.0,4.0,36.0,-942.0,248.0
2.0,-247.0,74.0,8.0,74.0,5.0,36.0,-943.0,249.0
1.0,-244.0,71.0,13.0,75.0,5.0,34.0,-944.0,245.0
0.0,-243.0,70.0,18.0,75.0,5.0,35.0,-942.0,241.0
1.0,-243.0,72.0,20.0,79.0,5.0,38.0,-941.0,240.0
1.0,-243.0,70.0,23.0,78.0,5.0,39.0,-932.0,241.0
3.0,-245.0,72.0,23.0,79.0,4.0,39.0,-933.0,238.0
0.0,-243.0,72.0,24.0,80.0,3.0,34.0,-924.0,242.0
1.0,-245.0,69.0,24.0,78.0,2.0,38.0,-929.0,244.0
0.0,-241.0,70.0,24.0,75.0,1.0,33.0,-932.0,243.0
0.0,-243.0,72.0,22.0,73.0,-1.0,34.0,-929.0,246.0
2.0,-243.0,67.0,20.0,70.0,-1.0,35.0,-931.0,245.0
1.0,-244.0,71.0,17.0,70.0,0.0,37.0,-934.0,248.0
0.0,-242.0,73.0,14.0,69.0,1.0,36.0,-939.0,246.0
2.0,-246.0,72.0,13.0,68.0,1.0,38.0,-942.0,249.0
0.0,-244.0,74.0,13.0,69.0,3.0,38.0,-946.0,249.0
2.0,-247.0,68.0,13.0,69.0,3.0,38.0,-940.0,253.0
1.0,-247.0,69.0,16.0,71.0,3.0,34.0,-943.0,250.0
1.0,-246.0,70.0,19.0,68.0,6.0,41.0,-941.0,248.0
5.0,-247.0,73.0,20.0,68.0,7.0,48.0,-943.0,251.0
4.0,-247.0,72.0,22.0,67.0,5.0,48.0,-941.0,241.0
5.0,-246.0,69.0,22.0,68.0,6.0,45.0,-951.0,249.0
1.0,-241.0,74.0,22.0,69.0,7.0,44.0,-943.0,243.0
3.0,-248.0,69.0,21.0,68.0,5.0,46.0,-946.0,246.0
2.0,-244.0,65.0,16.0,67.0,5.0,42.0,-943.0,241.0
3.0,-246.0,67.0,15.0,65.0,3.0,45.0,-941.0,239.0
3.0,-245.0,70.0,15.0,66.0,1.0,37.0,-939.0,243.0
1.0,-245.0,71.0,16.0,65.0,1.0,33.0,-947.0,242.0
2.0,-247.0,68.0,16.0,62.0,1.0,35.0,-940.0,244.0
1.0,-244.0,67.0,16.0,60.0,0.0,34.0,-939.0,243.0
1.0,-244.0,69.0,16.0,59.0,-1.0,33.0,-932.0,242.0
1.0,-245.0,70.0,13.0,58.0,-1.0,34.0,-936.0,235.0
0.0,-244.0,67.0,12.0,61.0,1.0,34.0,-937.0,240.0
1.0,-245.0,68.0,9.0,60.0,2.0,32.0,-937.0,239.0
0.0,-241.0,71.0,7.0,60.0,2.0,33.0,-943.0,237.0
1.0,-245.0,65.0,6.0,61.0,2.0,34.0,-943.0,243.0
0.0,-245.0,65.0,4.0,61.0,2.0,29.0,-943.0,236.0
0.0,-247.0,73.0,5.0,62.0,2.0,33.0,-943.0,245.0
2.0,-245.0,73.0,6.0,63.0,2.0,29.0,-946.0,245.0
0.0,-246.0,69.0,8.0,64.0,2.0,31.0,-948.0,246.0
2.0,-246.0,72.0,9.0,65.0,2.0,25.0,-943.0,250.0
0.0,-245.0,70.0,11.0,66.0,3.0,34.0,-943.0,250.0
0.0,-245.0,73.0,12.0,68.0,2.0,30.0,-942.0,245.0
0.0,-245.0,72.0,13.0,69.0,3.0,31.0,-941.0,246.0
0.0,-246.0,66.0,16.0,70.0,3.0,33.0,-943.0,251.0
1.0,-244.0,68.0,17.0,70.0,2.0,37.0,-943.0,248.0
0.0,-246.0,76.0,20.0,71.0,3.0,35.0,-941.0,248.0
2.0,-247.0,78.0,21.0,71.0,3.0,34.0,-942.0,253.0
0.0,-245.0,73.0,22.0,72.0,1.0,36.0,-942.0,248.0
1.0,-247.0,73.0,27.0,73.0,-1.0,38.0,-941.0,250.0
1.0,-246.0,74.0,29.0,74.0,-3.0,37.0,-947.0,255.0
2.0,-244.0,75.0,28.0,75.0,-4.0,34.0,-938.0,253.0
1.0,-244.0,70.0,29.0,75.0,-7.0,39.0,-935.0,255.0
2.0,-246.0,72.0,30.0,74.0,-6.0,38.0,-937.0,251.0
1.0,-243.0,72.0,30.0,77.0,-6.0,35.0,-934.0,252.0
-2.0,-243.0,72.0,30.0,77.0,-8.0,37.0,-936.0,254.0
1.0,-240.0,76.0,32.0,78.0,-8.0,33.0,-937.0,257.0
1.0,-244.0,71.0,32.0,79.0,-7.0,37.0,-936.0,254.0
0.0,-242.0,71.0,33.0,77.0,-7.0,36.0,-934.0,257.0
1.0,-245.0,76.0,34.0,76.0,-8.0,33.0,-937.0,268.0
-1.0,-241.0,74.0,33.0,76.0,-6.0,37.0,-934.0,265.0
1.0,-246.0,79.0,31.0,73.0,-5.0,37.0,-928.0,262.0
0.0,-243.0,73.0,29.0,72.0,-3.0,36.0,-940.0,263.0
0.0,-243.0,73.0,27.0,72.0,-1.0,33.0,-938.0,262.0
1.0,-244.0,75.0,24.0,69.0,0.0,32.0,-939.0,263.0
-1.0,-244.0,78.0,22.0,69.0,-1.0,32.0,-939.0,256.0
0.0,-244.0,74.0,17.0,68.0,-1.0,36.0,-935.0,257.0
0.0,-246.0,72.0,17.0,67.0,-2.0,32.0,-943.0,260.0
1.0,-246.0,74.0,18.0,64.0,-3.0,34.0,-942.0,255.0
0.0,-246.0,71.0,19.0,64.0,-2.0,35.0,-948.0,254.0
4.0,-247.0,76.0,21.0,64.0,-3.0,34.0,-950.0,252.0
3.0,-247.0,74.0,26.0,64.0,-4.0,34.0,-950.0,256.0
0.0,-247.0,74.0,31.0,64.0,-4.0,41.0,-950.0,252.0
3.0,-248.0,72.0,41.0,65.0,-5.0,35.0,-956.0,253.0
0.0,-249.0,74.0,50.0,65.0,-6.0,35.0,-946.0,258.0
0.0,-246.0,75.0,59.0,67.0,-6.0,37.0,-948.0,252.0
3.0,-248.0,72.0,67.0,67.0,-7.0,38.0,-955.0,254.0
0.0,-243.0,74.0,74.0,67.0,-6.0,37.0,-950.0,251.0
0.0,-248.0,75.0,81.0,67.0,-8.0,38.0,-949.0,253.0
0.0,-247.0,70.0,85.0,66.0,-6.0,36.0,-938.0,253.0
1.0,-246.0,70.0,88.0,67.0,-6.0,36.0,-943.0,250.0
-1.0,-242.0,75.0,92.0,66.0,-5.0,40.0,-943.0,255.0
0.0,-244.0,70.0,93.0,66.0,-5.0,37.0,-940.0,246.0
2.0,-247.0,71.0,95.0,65.0,-4.0,40.0,-946.0,250.0
1.0,-245.0,71.0,96.0,65.0,-6.0,35.0,-941.0,249.0
1.0,-245.0,74.0,99.0,64.0,-4.0,37.0,-946.0,247.0
1.0,-247.0,75.0,101.0,64.0,-5.0,38.0,-946.0,255.0
2.0,-246.0,74.0,106.0,65.0,-5.0,35.0,-941.0,257.0
1.0,-246.0,78.0,111.0,66.0,-4.0,36.0,-947.0,256.0
1.0,-246.0,73.0,118.0,67.0,-5.0,36.0,-942.0,259.0
2.0,-243.0,75.0,123.0,67.0,-5.0,35.0,-944.0,260.0
1.0,-245.0,76.0,127.0,69.0,-5.0,36.0,-939.0,256.0
0.0,-243.0,75.0,128.0,67.0,-4.0,36.0,-932.0,248.0
1.0,-243.0,71.0,124.0,65.0,-4.0,36.0,-928.0,250.0
1.0,-243.0,70.0,118.0,63.0,-5.0,37.0,-938.0,246.0
0.0,-242.0,69.0,110.0,58.0,-3.0,38.0,-933.0,247.0
0.0,-243.0,70.0,101.0,50.0,-1.0,34.0,-938.0,250.0
0.0,-245.0,72.0,96.0,45.0,-1.0,35.0,-935.0,249.0
1.0,-246.0,72.0,94.0,40.0,0.0,32.0,-942.0,251.0
1.0,-246.0,75.0,100.0,38.0,-1.0,36.0,-947.0,254.0
2.0,-246.0,74.0,110.0,36.0,2.0,35.0,-950.0,268.0
0.0,-248.0,77.0,124.0,35.0,3.0,33.0,-951.0,265.0
0.0,-248.0,77.0,142.0,38.0,4.0,28.0,-956.0,274.0
1.0,-248.0,77.0,159.0,43.0,6.0,28.0,-952.0,269.0
0.0,-247.0,78.0,178.0,50.0,6.0,20.0,-955.0,271.0
0.0,-245.0,77.0,195.0,60.0,7.0,29.0,-945.0,273.0
-1.0,-242.0,75.0,209.0,69.0,9.0,31.0,-930.0,277.0
0.0,-243.0,74.0,215.0,78.0,8.0,28.0,-924.0,268.0
0.0,-238.0,77.0,215.0,87.0,7.0,29.0,-923.0,267.0
0.0,-237.0,77.0,211.0,95.0,7.0,32.0,-917.0,266.0
0.0,-234.0,74.0,205.0,102.0,6.0,35.0,-906.0,266.0
4.0,-235.0,75.0,196.0,110.0,5.0,43.0,-900.0,267.0
4.0,-232.0,80.0,187.0,117.0,4.0,46.0,-893.0,272.0
4.0,-229.0,75.0,177.0,122.0,2.0,54.0,-892.0,283.0
8.0,-234.0,80.0,163.0,122.0,-1.0,57.0,-898.0,286.0
9.0,-234.0,81.0,147.0,120.0,-4.0,66.0,-897.0,303.0
8.0,-233.0,83.0,129.0,114.0,-7.0,68.0,-902.0,312.0
8.0,-233.0,91.0,112.0,109.0,-9.0,64.0,-902.0,316.0
8.0,-236.0,88.0,97.0,102.0,-8.0,68.0,-905.0,323.0
6.0,-236.0,90.0,86.0,95.0,-8.0,61.0,-912.0,327.0
11.0,-239.0,90.0,80.0,87.0,-5.0,70.0,-913.0,330.0
8.0,-241.0,92.0,78.0,78.0,-2.0,67.0,-912.0,330.0
4.0,-238.0,92.0,77.0,67.0,4.0,59.0,-918.0,329.0
3.0,-237.0,91.0,80.0,55.0,10.0,52.0,-916.0,319.0
4.0,-237.0,91.0,82.0,47.0,15.0,53.0,-912.0,315.0
2.0,-237.0,91.0,83.0,41.0,22.0,45.0,-905.0,314.0
3.0,-235.0,87.0,79.0,37.0,24.0,42.0,-909.0,317.0
1.0,-231.0,92.0,75.0,35.0,27.0,39.0,-901.0,319.0
0.0,-234.0,92.0,67.0,36.0,26.0,37.0,-899.0,327.0
1.0,-231.0,95.0,57.0,42.0,25.0,35.0,-892.0,329.0
0.0,-232.0,94.0,46.0,46.0,23.0,33.0,-896.0,332.0
0.0,-231.0,94.0,37.0,50.0,21.0,25.0,-894.0,333.0
-3.0,-228.0,93.0,28.0,54.0,18.0,26.0,-886.0,337.0
-2.0,-229.0,95.0,21.0,60.0,18.0,25.0,-893.0,345.0
0.0,-230.0,97.0,13.0,66.0,16.0,20.0,-891.0,345.0
0.0,-231.0,97.0,5.0,70.0,14.0,23.0,-892.0,345.0
-1.0,-230.0,96.0,-4.0,72.0,12.0,24.0,-897.0,345.0
-6.0,-227.0,95.0,-15.0,73.0,12.0,23.0,-895.0,350.0
-4.0,-232.0,97.0,-24.0,71.0,13.0,12.0,-901.0,339.0
-2.0,-230.0,95.0,-38.0,67.0,12.0,17.0,-899.0,342.0
-4.0,-233.0,94.0,-50.0,65.0,13.0,21.0,-900.0,334.0
-6.0,-235.0,90.0,-62.0,63.0,13.0,19.0,-902.0,330.0
-3.0,-234.0,89.0,-71.0,60.0,14.0,18.0,-912.0,323.0
-3.0,-239.0,89.0,-77.0,57.0,16.0,14.0,-914.0,317.0
-4.0,-239.0,92.0,-82.0,54.0,14.0,17.0,-915.0,313.0
-6.0,-238.0,90.0,-82.0,54.0,16.0,20.0,-917.0,313.0
-1.0,-239.0,84.0,-80.0,55.0,14.0,16.0,-921.0,315.0
0.0,-238.0,87.0,-76.0,56.0,14.0,22.0,-921.0,310.0
-1.0,-243.0,86.0,-69.0,59.0,12.0,21.0,-920.0,304.0
0.0,-241.0,83.0,-62.0,63.0,11.0,21.0,-918.0,305.0
0.0,-241.0,85.0,-55.0,67.0,8.0,24.0,-925.0,300.0
-2.0,-238.0,85.0,-51.0,71.0,7.0,25.0,-923.0,294.0
-2.0,-242.0,87.0,-49.0,75.0,4.0,28.0,-923.0,296.0
1.0,-239.0,82.0,-48.0,79.0,3.0,28.0,-922.0,291.0
0.0,-242.0,81.0,-49.0,82.0,-1.0,29.0,-919.0,288.0
0.0,-241.0,77.0,-52.0,82.0,-1.0,31.0,-925.0,287.0
0.0,-240.0,80.0,-54.0,83.0,-1.0,29.0,-922.0,284.0
0.0,-243.0,78.0,-58.0,85.0,0.0,32.0,-927.0,285.0
-1.0,-244.0,77.0,-58.0,85.0,1.0,35.0,-927.0,282.0
0.0,-243.0,79.0,-58.0,85.0,1.0,32.0,-941.0,279.0
1.0,-245.0,76.0,-57.0,83.0,1.0,34.0,-936.0,274.0
1.0,-246.0,80.0,-54.0,79.0,4.0,33.0,-945.0,278.0
-1.0,-247.0,80.0,-49.0,77.0,4.0,35.0,-935.0,276.0
3.0,-247.0,79.0,-44.0,74.0,7.0,37.0,-945.0,271.0
10.0,-241.0,80.0,-38.0,71.0,8.0,40.0,-939.0,276.0
1.0,-247.0,78.0,-33.0,70.0,9.0,43.0,-940.0,274.0
3.0,-246.0,76.0,-30.0,67.0,8.0,41.0,-939.0,269.0
1.0,-244.0,76.0,-28.0,65.0,6.0,40.0,-939.0,270.0
3.0,-244.0,77.0,-25.0,64.0,6.0,42.0,-935.0,270.0
4.0,-242.0,79.0,-25.0,60.0,5.0,40.0,-930.0,270.0
1.0,-244.0,75.0,-24.0,62.0,5.0,41.0,-932.0,268.0
1.0,-241.0,73.0,-26.0,61.0,5.0,39.0,-929.0,271.0
1.0,-242.0,78.0,-29.0,63.0,1.0,39.0,-929.0,267.0
2.0,-241.0,81.0,-32.0,65.0,1.0,36.0,-926.0,272.0
-4.0,-243.0,84.0,-33.0,65.0,-2.0,42.0,-928.0,278.0
2.0,-241.0,80.0,-31.0,65.0,-2.0,39.0,-924.0,275.0
0.0,-239.0,82.0,-29.0,65.0,-2.0,29.0,-927.0,273.0
0.0,-243.0,81.0,-25.0,68.0,-3.0,23.0,-929.0,280.0
1.0,-241.0,80.0,-22.0,68.0,-4.0,27.0,-928.0,282.0
0.0,-241.0,80.0,-18.0,68.0,-3.0,25.0,-923.0,286.0
-2.0,-242.0,80.0,-16.0,69.0,-4.0,25.0,-923.0,288.0
-2.0,-241.0,81.0,-13.0,67.0,-2.0,26.0,-924.0,285.0
0.0,-243.0,81.0,-12.0,67.0,-4.0,26.0,-924.0,292.0
0.0,-241.0,80.0,-11.0,67.0,-4.0,23.0,-928.0,295.0
0.0,-239.0,87.0,-10.0,67.0,-5.0,27.0,-919.0,296.0
0.0,-241.0,84.0,-9.0,68.0,-4.0,26.0,-924.0,294.0
3.0,-242.0,89.0,-7.0,70.0,-4.0,26.0,-920.0,297.0
-1.0,-241.0,88.0,-5.0,72.0,-4.0,28.0,-925.0,297.0
2.0,-241.0,85.0,-1.0,74.0,-1.0,32.0,-924.0,300.0
0.0,-240.0,87.0,2.0,74.0,-2.0,32.0,-919.0,300.0
1.0,-246.0,85.0,6.0,74.0,-2.0,35.0,-918.0,304.0
1.0,-242.0,87.0,11.0,76.0,-2.0,32.0,-919.0,304.0
3.0,-240.0,87.0,14.0,75.0,-2.0,33.0,-923.0,305.0
1.0,-241.0,86.0,16.0,77.0,-1.0,37.0,-918.0,306.0
0.0,-239.0,87.0,16.0,79.0,-2.0,36.0,-918.0,304.0
1.0,-240.0,86.0,17.0,80.0,-3.0,35.0,-919.0,304.0
0.0,-238.0,85.0,17.0,81.0,-5.0,35.0,-916.0,304.0
0.0,-237.0,85.0,16.0,81.0,-7.0,38.0,-915.0,303.0
1.0,-237.0,85.0,14.0,81.0,-8.0,35.0,-918.0,303.0
0.0,-237.0,85.0,13.0,78.0,-10.0,34.0,-916.0,300.0
-1.0,-240.0,87.0,10.0,79.0,-9.0,29.0,-919.0,306.0
-1.0,-236.0,83.0,6.0,76.0,-11.0,34.0,-919.0,302.0
0.0,-239.0,84.0,3.0,74.0,-11.0,29.0,-918.0,304.0
0.0,-237.0,84.0,2.0,74.0,-10.0,28.0,-916.0,302.0
0.0,-240.0,86.0,0.0,72.0,-10.0,32.0,-923.0,296.0
0.0,-239.0,83.0,0.0,74.0,-9.0,35.0,-919.0,298.0
1.0,-239.0,84.0,-1.0,74.0,-7.0,33.0,-919.0,302.0
1.0,-240.0,85.0,-3.0,75.0,-5.0,36.0,-923.0,303.0
0.0,-241.0,84.0,-4.0,75.0,-3.0,33.0,-924.0,300.0
0.0,-240.0,84.0,-5.0,72.0,-3.0,35.0,-923.0,299.0
3.0,-241.0,84.0,-8.0,71.0,-2.0,33.0,-922.0,299.0
3.0,-238.0,83.0,-13.0,70.0,-1.0,35.0,-920.0,294.0
-2.0,-235.0,83.0,-17.0,70.0,-2.0,35.0,-922.0,292.0
0.0,-240.0,81.0,-18.0,71.0,-3.0,35.0,-927.0,285.0
0.0,-240.0,83.0,-22.0,71.0,-5.0,36.0,-925.0,289.0
0.0,-239.0,82.0,-22.0,70.0,-2.0,33.0,-921.0,284.0
2.0,-242.0,82.0,-23.0,70.0,-3.0,37.0,-925.0,290.0
0.0,-241.0,81.0,-25.0,70.0,-4.0,34.0,-928.0,289.0
1.0,-244.0,82.0,-22.0,69.0,-4.0,35.0,-928.0,294.0
0.0,-242.0,81.0,-21.0,66.0,-4.0,31.0,-927.0,289.0
-3.0,-241.0,82.0,-18.0,66.0,-4.0,35.0,-925.0,291.0
-1.0,-241.0,84.0,-13.0,65.0,-3.0,30.0,-927.0,296.0
0.0,-238.0,83.0,-12.0,64.0,-4.0,29.0,-925.0,295.0
0.0,-240.0,84.0,-11.0,64.0,-2.0,25.0,-925.0,293.0
0.0,-245.0,81.0,-10.0,66.0,-4.0,27.0,-924.0,293.0
0.0,-245.0,83.0,-8.0,69.0,-3.0,28.0,-928.0,291.0
0.0,-241.0,83.0,-8.0,69.0,-3.0,29.0,-922.0,297.0
0.0,-241.0,82.0,-7.0,70.0,-3.0,24.0,-921.0,296.0
-1.0,-240.0,80.0,-8.0,69.0,-4.0,35.0,-919.0,294.0
