acc1_x,acc1_y,acc1_z,gyro_x,gyro_y,gyro_z,acc2_x,acc2_y,acc2_z
-5.0,-259.0,-25.0,22.0,41.0,-2.0,1.0,-1000.0,-140.0
-9.0,-254.0,-23.0,26.0,40.0,-1.0,1.0,-995.0,-140.0
-8.0,-259.0,-25.0,30.0,39.0,-2.0,1.0,-1007.0,-136.0
-6.0,-254.0,-22.0,35.0,39.0,-1.0,2.0,-996.0,-136.0
-2.0,-258.0,-32.0,42.0,38.0,-1.0,1.0,-996.0,-137.0
-14.0,-252.0,-26.0,46.0,37.0,-3.0,1.0,-988.0,-138.0
-6.0,-256.0,-24.0,49.0,40.0,-4.0,3.0,-983.0,-136.0
-6.0,-257.0,-25.0,50.0,44.0,-3.0,4.0,-980.0,-142.0
-7.0,-255.0,-27.0,50.0,47.0,-2.0,-4.0,-980.0,-136.0
-7.0,-253.0,-22.0,48.0,50.0,-1.0,0.0,-980.0,-136.0
-5.0,-251.0,-20.0,43.0,52.0,-1.0,8.0,-975.0,-142.0
-9.0,-255.0,-24.0,39.0,54.0,-1.0,0.0,-979.0,-142.0
-6.0,-256.0,-24.0,34.0,56.0,-2.0,7.0,-977.0,-137.0
-4.0,-254.0,-21.0,28.0,59.0,-1.0,1.0,-983.0,-141.0
-5.0,-254.0,-21.0,21.0,62.0,-1.0,3.0,-984.0,-138.0
-9.0,-253.0,-30.0,17.0,64.0,-2.0,11.0,-984.0,-133.0
-7.0,-255.0,-21.0,14.0,64.0,-2.0,10.0,-990.0,-134.0
-7.0,-257.0,-29.0,10.0,66.0,-3.0,4.0,-984.0,-138.0
-7.0,-257.0,-21.0,9.0,66.0,-3.0,4.0,-992.0,-136.0
-7.0,-254.0,-22.0,9.0,68.0,-3.0,4.0,-986.0,-136.0
-8.0,-258.0,-25.0,7.0,65.0,-3.0,1.0,-985.0,-139.0
-11.0,-252.0,-26.0,6.0,64.0,-3.0,2.0,-985.0,-143.0
-6.0,-255.0,-24.0,5.0,63.0,-5.0,6.0,-992.0,-142.0
-8.0,-257.0,-25.0,2.0,64.0,-4.0,5.0,-984.0,-141.0
-4.0,-254.0,-25.0,3.0,64.0,-5.0,-3.0,-987.0,-139.0
-5.0,-258.0,-24.0,2.0,66.0,-5.0,-4.0,-985.0,-140.0
-8.0,-258.0,-28.0,4.0,68.0,-5.0,-2.0,-981.0,-139.0
-10.0,-254.0,-26.0,6.0,70.0,-6.0,4.0,-992.0,-133.0
-8.0,-253.0,-29.0,9.0,73.0,-7.0,-3.0,-990.0,-138.0
-10.0,-255.0,-24.0,8.0,75.0,-6.0,1.0,-981.0,-140.0
-6.0,-254.0,-30.0,8.0,76.0,-7.0,-3.0,-981.0,-136.0
-6.0,-254.0,-20.0,6.0,77.0,-7.0,-1.0,-985.0,-137.0
-4.0,-254.0,-25.0,4.0,78.0,-6.0,5.0,-985.0,-139.0
-8.0,-255.0,-24.0,0.0,79.0,-7.0,1.0,-985.0,-139.0
-6.0,-258.0,-22.0,-4.0,78.0,-9.0,5.0,-982.0,-141.0
-7.0,-258.0,-24.0,-5.0,79.0,-7.0,-1.0,-993.0,-136.0
-2.0,-255.0,-20.0,-6.0,80.0,-10.0,6.0,-986.0,-138.0
-9.0,-255.0,-23.0,-4.0,82.0,-10.0,5.0,-984.0,-130.0
-7.0,-257.0,-24.0,1.0,82.0,-10.0,4.0,-988.0,-132.0
-3.0,-260.0,-18.0,6.0,84.0,-10.0,1.0,-992.0,-132.0
-5.0,-257.0,-25.0,11.0,84.0,-10.0,0.0,-992.0,-133.0
-3.0,-252.0,-21.0,16.0,86.0,-11.0,-1.0,-990.0,-131.0
-13.0,-253.0,-25.0,21.0,87.0,-11.0,1.0,-1002.0,-132.0
-7.0,-255.0,-18.0,21.0,88.0,-10.0,2.0,-985.0,-128.0
-9.0,-258.0,-20.0,22.0,89.0,-10.0,0.0,-983.0,-129.0
-9.0,-254.0,-23.0,22.0,89.0,-9.0,9.0,-992.0,-132.0
0.0,-255.0,-25.0,24.0,87.0,-10.0,2.0,-990.0,-135.0
-8.0,-258.0,-22.0,26.0,87.0,-9.0,0.0,-987.0,-135.0
-9.0,-255.0,-24.0,26.0,85.0,-7.0,5.0,-986.0,-135.0
-7.0,-252.0,-26.0,26.0,84.0,-6.0,-3.0,-988.0,-141.0
-7.0,-257.0,-27.0,27.0,82.0,-7.0,0.0,-983.0,-142.0
-8.0,-253.0,-23.0,25.0,82.0,-7.0,-4.0,-994.0,-137.0
-10.0,-253.0,-26.0,25.0,80.0,-8.0,-5.0,-991.0,-136.0
-6.0,-251.0,-17.0,26.0,80.0,-9.0,-4.0,-986.0,-136.0
-3.0,-262.0,-22.0,27.0,81.0,-8.0,-5.0,-985.0,-138.0
-3.0,-255.0,-15.0,28.0,79.0,-8.0,-1.0,-983.0,-135.0
-8.0,-255.0,-19.0,31.0,78.0,-9.0,-3.0,-986.0,-136.0
-8.0,-257.0,-24.0,33.0,77.0,-10.0,-3.0,-986.0,-129.0
-11.0,-248.0,-30.0,33.0,77.0,-10.0,-2.0,-983.0,-129.0
-5.0,-253.0,-30.0,31.0,77.0,-10.0,4.0,-977.0,-132.0
-8.0,-243.0,-27.0,29.0,78.0,-10.0,1.0,-984.0,-127.0
-11.0,-247.0,-30.0,24.0,78.0,-10.0,7.0,-980.0,-129.0
-1.0,-259.0,-31.0,19.0,79.0,-10.0,1.0,-980.0,-132.0
-8.0,-255.0,-21.0,15.0,77.0,-10.0,1.0,-981.0,-127.0
-7.0,-256.0,-20.0,13.0,76.0,-10.0,4.0,-978.0,-132.0
-10.0,-254.0,-20.0,12.0,74.0,-12.0,-5.0,-978.0,-123.0
-8.0,-256.0,-22.0,12.0,74.0,-11.0,-2.0,-992.0,-124.0
-8.0,-239.0,-27.0,11.0,74.0,-10.0,-6.0,-981.0,-130.0
-8.0,-253.0,-22.0,10.0,73.0,-10.0,-2.0,-990.0,-130.0
-6.0,-264.0,-19.0,8.0,75.0,-9.0,2.0,-983.0,-133.0
-8.0,-259.0,-31.0,6.0,75.0,-9.0,-7.0,-985.0,-133.0
-5.0,-251.0,-17.0,3.0,74.0,-9.0,-4.0,-985.0,-132.0
-10.0,-253.0,-18.0,1.0,77.0,-9.0,-1.0,-984.0,-131.0
-4.0,-257.0,-22.0,-1.0,75.0,-8.0,2.0,-987.0,-129.0
-5.0,-255.0,-16.0,-2.0,73.0,-7.0,2.0,-997.0,-128.0
-11.0,-259.0,-20.0,-2.0,71.0,-5.0,1.0,-997.0,-130.0
-13.0,-262.0,-26.0,-1.0,70.0,-5.0,-1.0,-995.0,-129.0
-1.0,-256.0,-30.0,2.0,68.0,-3.0,2.0,-986.0,-128.0
-6.0,-260.0,-21.0,4.0,66.0,-3.0,-2.0,-988.0,-131.0
-7.0,-257.0,-20.0,7.0,62.0,-3.0,-3.0,-992.0,-134.0
-9.0,-256.0,-21.0,10.0,58.0,-3.0,5.0,-982.0,-128.0
-6.0,-255.0,-20.0,12.0,58.0,-4.0,1.0,-986.0,-132.0
-5.0,-254.0,-24.0,11.0,57.0,-4.0,-2.0,-992.0,-133.0
-2.0,-259.0,-23.0,12.0,57.0,-4.0,1.0,-987.0,-128.0
-4.0,-258.0,-30.0,10.0,58.0,-5.0,5.0,-981.0,-130.0
-8.0,-254.0,-18.0,6.0,57.0,-5.0,3.0,-984.0,-134.0
-9.0,-251.0,-23.0,2.0,58.0,-6.0,-2.0,-992.0,-132.0
-12.0,-257.0,-22.0,-3.0,57.0,-6.0,-3.0,-986.0,-133.0
-3.0,-260.0,-23.0,-9.0,59.0,-4.0,-3.0,-992.0,-123.0
-9.0,-257.0,-17.0,-13.0,59.0,-5.0,-5.0,-994.0,-125.0
-9.0,-255.0,-25.0,-16.0,59.0,-5.0,-5.0,-991.0,-122.0
-6.0,-259.0,-16.0,-18.0,59.0,-6.0,-6.0,-995.0,-120.0
-15.0,-258.0,-23.0,-17.0,60.0,-5.0,-2.0,-994.0,-121.0
-13.0,-257.0,-15.0,-12.0,60.0,-6.0,2.0,-991.0,-125.0
-7.0,-256.0,-21.0,-7.0,61.0,-5.0,-3.0,-986.0,-121.0
-7.0,-256.0,-20.0,0.0,62.0,-7.0,1.0,-984.0,-124.0
-8.0,-256.0,-22.0,9.0,63.0,-7.0,-3.0,-986.0,-122.0
-9.0,-260.0,-21.0,17.0,63.0,-7.0,-8.0,-980.0,-130.0
-5.0,-250.0,-28.0,21.0,63.0,-8.0,0.0,-982.0,-134.0
-6.0,-250.0,-21.0,21.0,63.0,-9.0,5.0,-977.0,-137.0
-7.0,-256.0,-21.0,19.0,62.0,-9.0,-1.0,-975.0,-136.0
1.0,-248.0,-34.0,15.0,61.0,-7.0,4.0,-984.0,-134.0
-5.0,-259.0,-28.0,9.0,61.0,-7.0,0.0,-986.0,-130.0
-16.0,-255.0,-17.0,6.0,59.0,-7.0,4.0,-993.0,-130.0
-10.0,-266.0,-17.0,5.0,59.0,-5.0,1.0,-993.0,-128.0
-3.0,-262.0,-30.0,3.0,57.0,-3.0,4.0,-996.0,-126.0
-4.0,-264.0,-18.0,3.0,56.0,-4.0,6.0,-989.0,-121.0
-14.0,-258.0,-21.0,6.0,56.0,-2.0,1.0,-1001.0,-122.0
-7.0,-263.0,-26.0,7.0,53.0,-1.0,-1.0,-986.0,-123.0
-7.0,-259.0,-21.0,11.0,52.0,-2.0,4.0,-988.0,-119.0
-5.0,-255.0,-19.0,12.0,54.0,-3.0,0.0,-994.0,-122.0
-4.0,-256.0,-21.0,12.0,55.0,-3.0,2.0,-987.0,-115.0
-6.0,-252.0,-18.0,10.0,57.0,-6.0,1.0,-980.0,-119.0
-7.0,-252.0,-6.0,7.0,59.0,-7.0,-2.0,-979.0,-124.0
-3.0,-254.0,-22.0,1.0,59.0,-8.0,0.0,-981.0,-121.0
-10.0,-255.0,-29.0,-5.0,58.0,-8.0,2.0,-984.0,-118.0
-7.0,-267.0,-20.0,-13.0,56.0,-8.0,5.0,-980.0,-120.0
-9.0,-256.0,-22.0,-19.0,55.0,-7.0,2.0,-983.0,-122.0
2.0,-257.0,-22.0,-23.0,54.0,-5.0,9.0,-989.0,-128.0
-4.0,-261.0,-25.0,-25.0,54.0,-3.0,6.0,-995.0,-128.0
-7.0,-264.0,-24.0,-27.0,57.0,-3.0,2.0,-997.0,-128.0
1.0,-257.0,-18.0,-26.0,58.0,-4.0,4.0,-988.0,-131.0
-16.0,-274.0,-18.0,-23.0,59.0,-4.0,2.0,-993.0,-131.0
-23.0,-257.0,-27.0,-23.0,58.0,-4.0,4.0,-985.0,-125.0
-4.0,-257.0,-20.0,-21.0,57.0,-5.0,5.0,-993.0,-126.0
-7.0,-257.0,-22.0,-19.0,56.0,-5.0,2.0,-983.0,-123.0
-6.0,-254.0,-22.0,-18.0,57.0,-5.0,10.0,-985.0,-125.0
-3.0,-253.0,-23.0,-17.0,55.0,-6.0,4.0,-984.0,-128.0
-4.0,-258.0,-20.0,-18.0,56.0,-6.0,-3.0,-987.0,-129.0
-5.0,-262.0,-16.0,-18.0,56.0,-5.0,0.0,-991.0,-132.0
-10.0,-260.0,-14.0,-20.0,56.0,-6.0,-6.0,-986.0,-127.0
-13.0,-251.0,-24.0,-19.0,58.0,-4.0,-3.0,-993.0,-133.0
-18.0,-254.0,-21.0,-16.0,57.0,-5.0,1.0,-988.0,-120.0
-4.0,-258.0,-20.0,-14.0,56.0,-2.0,1.0,-992.0,-121.0
-8.0,-257.0,-19.0,-13.0,55.0,-2.0,-2.0,-985.0,-124.0
-7.0,-255.0,-20.0,-12.0,55.0,-2.0,-4.0,-982.0,-120.0
-8.0,-255.0,-21.0,-11.0,54.0,-1.0,3.0,-984.0,-121.0
-9.0,-267.0,-16.0,-13.0,56.0,-1.0,0.0,-983.0,-121.0
-10.0,-253.0,-21.0,-13.0,56.0,-2.0,-1.0,-985.0,-126.0
-10.0,-255.0,-22.0,-14.0,57.0,-3.0,1.0,-979.0,-127.0
-4.0,-257.0,-21.0,-18.0,58.0,-5.0,4.0,-984.0,-127.0
-6.0,-256.0,-20.0,-19.0,59.0,-3.0,1.0,-981.0,-122.0
-2.0,-251.0,-29.0,-20.0,60.0,-4.0,3.0,-986.0,-132.0
-7.0,-254.0,-19.0,-22.0,60.0,-7.0,4.0,-980.0,-129.0
-9.0,-256.0,-18.0,-22.0,59.0,-7.0,0.0,-983.0,-126.0
-6.0,-254.0,-20.0,-23.0,59.0,-7.0,2.0,-982.0,-124.0
-8.0,-253.0,-25.0,-24.0,59.0,-7.0,3.0,-998.0,-128.0
-7.0,-257.0,-19.0,-26.0,59.0,-8.0,-1.0,-990.0,-123.0
-11.0,-255.0,-20.0,-25.0,57.0,-8.0,2.0,-988.0,-124.0
-4.0,-257.0,-19.0,-24.0,56.0,-6.0,3.0,-992.0,-124.0
-8.0,-253.0,-20.0,-23.0,55.0,-5.0,9.0,-981.0,-126.0
-6.0,-266.0,-22.0,-23.0,55.0,-4.0,0.0,-993.0,-122.0
-7.0,-259.0,-20.0,-21.0,56.0,-3.0,5.0,-994.0,-123.0
-5.0,-256.0,-18.0,-19.0,58.0,-4.0,6.0,-992.0,-123.0
-9.0,-255.0,-19.0,-18.0,60.0,-3.0,-3.0,-986.0,-119.0
-11.0,-256.0,-20.0,-17.0,61.0,-3.0,1.0,-981.0,-131.0
-10.0,-252.0,-20.0,-17.0,60.0,-4.0,0.0,-985.0,-128.0
-6.0,-255.0,-24.0,-16.0,61.0,-4.0,-3.0,-996.0,-123.0
-7.0,-257.0,-20.0,-15.0,61.0,-4.0,1.0,-983.0,-132.0
-5.0,-257.0,-22.0,-16.0,61.0,-4.0,0.0,-982.0,-127.0
-6.0,-254.0,-19.0,-16.0,59.0,-5.0,1.0,-989.0,-131.0
-8.0,-253.0,-20.0,-19.0,59.0,-5.0,2.0,-981.0,-126.0
-8.0,-255.0,-21.0,-22.0,58.0,-5.0,-1.0,-992.0,-127.0
-5.0,-257.0,-21.0,-23.0,59.0,-5.0,4.0,-985.0,-128.0
-9.0,-256.0,-22.0,-27.0,59.0,-5.0,5.0,-1002.0,-128.0
-8.0,-257.0,-21.0,-27.0,60.0,-4.0,2.0,-997.0,-124.0
-8.0,-257.0,-21.0,-26.0,60.0,-4.0,3.0,-993.0,-120.0
-5.0,-257.0,-20.0,-25.0,61.0,-4.0,5.0,-1005.0,-120.0
-2.0,-259.0,-19.0,-21.0,63.0,-4.0,9.0,-986.0,-123.0
-4.0,-259.0,-24.0,-20.0,62.0,-4.0,5.0,-987.0,-121.0
-3.0,-259.0,-23.0,-17.0,63.0,-3.0,8.0,-999.0,-120.0
-9.0,-255.0,-23.0,-15.0,64.0,-6.0,4.0,-986.0,-119.0
-9.0,-256.0,-19.0,-13.0,65.0,-5.0,5.0,-980.0,-117.0
-7.0,-254.0,-19.0,-11.0,65.0,-6.0,3.0,-981.0,-125.0
-7.0,-253.0,-23.0,-11.0,64.0,-5.0,4.0,-980.0,-127.0
-10.0,-252.0,-21.0,-13.0,65.0,-6.0,6.0,-980.0,-125.0
-11.0,-253.0,-18.0,-19.0,64.0,-4.0,-3.0,-981.0,-126.0
-9.0,-258.0,-25.0,-24.0,63.0,-2.0,-6.0,-977.0,-123.0
-7.0,-252.0,-20.0,-31.0,63.0,-3.0,-1.0,-980.0,-128.0
-8.0,-255.0,-22.0,-38.0,63.0,-1.0,-7.0,-984.0,-128.0
-9.0,-256.0,-23.0,-44.0,62.0,-2.0,-6.0,-984.0,-126.0
-8.0,-257.0,-20.0,-47.0,62.0,-3.0,-3.0,-982.0,-128.0
-8.0,-256.0,-21.0,-47.0,62.0,-3.0,0.0,-991.0,-127.0
-8.0,-258.0,-21.0,-46.0,63.0,-3.0,-3.0,-984.0,-122.0
-5.0,-255.0,-21.0,-43.0,65.0,-3.0,0.0,-993.0,-121.0
-7.0,-256.0,-20.0,-42.0,66.0,-4.0,1.0,-988.0,-122.0
-5.0,-256.0,-20.0,-39.0,67.0,-3.0,2.0,-985.0,-124.0
-1.0,-256.0,-21.0,-36.0,69.0,-3.0,1.0,-983.0,-125.0
-7.0,-255.0,-22.0,-35.0,71.0,-3.0,1.0,-987.0,-128.0
-5.0,-257.0,-22.0,-38.0,74.0,-4.0,0.0,-986.0,-134.0
-20.0,-266.0,-24.0,-40.0,73.0,-3.0,2.0,-993.0,-130.0
-8.0,-256.0,-28.0,-42.0,76.0,-2.0,0.0,-994.0,-128.0
-8.0,-257.0,-24.0,-44.0,79.0,-2.0,4.0,-998.0,-135.0
-12.0,-255.0,-25.0,-47.0,81.0,-2.0,1.0,-990.0,-132.0
-8.0,-253.0,-24.0,-48.0,82.0,-1.0,-3.0,-998.0,-130.0
-6.0,-257.0,-21.0,-48.0,87.0,-1.0,-5.0,-1002.0,-133.0
-7.0,-259.0,-20.0,-46.0,90.0,0.0,-2.0,-987.0,-125.0
-5.0,-259.0,-21.0,-43.0,89.0,1.0,-4.0,-991.0,-128.0
-8.0,-259.0,-21.0,-38.0,89.0,2.0,-5.0,-1003.0,-125.0
-7.0,-258.0,-20.0,-34.0,90.0,2.0,1.0,-994.0,-128.0
-8.0,-257.0,-24.0,-28.0,89.0,1.0,0.0,-991.0,-123.0
-9.0,-257.0,-21.0,-20.0,87.0,2.0,-3.0,-992.0,-125.0
-7.0,-255.0,-22.0,-13.0,85.0,1.0,1.0,-980.0,-123.0
-6.0,-256.0,-22.0,-9.0,82.0,0.0,9.0,-976.0,-131.0
-8.0,-253.0,-24.0,-11.0,79.0,0.0,9.0,-978.0,-134.0
-7.0,-254.0,-24.0,-16.0,75.0,1.0,6.0,-978.0,-131.0
-5.0,-252.0,-25.0,-28.0,71.0,1.0,9.0,-977.0,-141.0
-5.0,-254.0,-24.0,-38.0,67.0,3.0,7.0,-973.0,-139.0
-7.0,-254.0,-21.0,-50.0,65.0,2.0,7.0,-985.0,-141.0
-7.0,-257.0,-29.0,-61.0,63.0,4.0,7.0,-988.0,-143.0
-9.0,-256.0,-25.0,-65.0,61.0,4.0,6.0,-988.0,-134.0
0.0,-257.0,-19.0,-65.0,61.0,5.0,4.0,-996.0,-134.0
-8.0,-257.0,-20.0,-64.0,60.0,7.0,1.0,-993.0,-125.0
-7.0,-257.0,-20.0,-57.0,62.0,8.0,-2.0,-999.0,-132.0
-7.0,-260.0,-22.0,-51.0,65.0,8.0,0.0,-992.0,-126.0
-8.0,-256.0,-21.0,-43.0,68.0,8.0,-3.0,-999.0,-130.0
-7.0,-256.0,-20.0,-36.0,72.0,8.0,-3.0,-988.0,-128.0
-10.0,-254.0,-23.0,-31.0,75.0,7.0,-4.0,-987.0,-133.0
-5.0,-254.0,-22.0,-28.0,79.0,4.0,1.0,-985.0,-128.0
-7.0,-254.0,-23.0,-24.0,82.0,2.0,1.0,-991.0,-133.0
-5.0,-251.0,-20.0,-23.0,86.0,3.0,2.0,-982.0,-134.0
-3.0,-254.0,-34.0,-23.0,86.0,1.0,-4.0,-989.0,-139.0
-3.0,-255.0,-26.0,-25.0,89.0,0.0,4.0,-995.0,-138.0
-3.0,-258.0,-21.0,-27.0,88.0,0.0,7.0,-982.0,-135.0
-7.0,-258.0,-25.0,-24.0,89.0,-1.0,7.0,-992.0,-139.0
-6.0,-255.0,-26.0,-23.0,90.0,-1.0,7.0,-994.0,-137.0
-7.0,-255.0,-31.0,-21.0,90.0,-1.0,5.0,-986.0,-142.0
-5.0,-253.0,-25.0,-21.0,90.0,-1.0,5.0,-985.0,-139.0
-9.0,-255.0,-21.0,-19.0,90.0,0.0,4.0,-983.0,-142.0
-6.0,-257.0,-27.0,-18.0,88.0,-1.0,2.0,-989.0,-143.0
-12.0,-251.0,-24.0,-16.0,89.0,-1.0,0.0,-985.0,-141.0
-8.0,-256.0,-27.0,-15.0,88.0,0.0,-2.0,-979.0,-144.0
-6.0,-256.0,-23.0,-16.0,89.0,1.0,1.0,-979.0,-144.0
-10.0,-253.0,-26.0,-19.0,89.0,-1.0,0.0,-993.0,-147.0
-8.0,-254.0,-25.0,-22.0,91.0,1.0,0.0,-987.0,-143.0
-7.0,-255.0,-23.0,-28.0,92.0,0.0,-2.0,-984.0,-143.0
-9.0,-255.0,-26.0,-31.0,93.0,-1.0,4.0,-981.0,-141.0
-7.0,-253.0,-25.0,-36.0,92.0,-3.0,2.0,-981.0,-142.0
-5.0,-254.0,-20.0,-40.0,91.0,-3.0,2.0,-984.0,-135.0
-9.0,-253.0,-25.0,-43.0,88.0,-2.0,-3.0,-979.0,-138.0
-7.0,-255.0,-23.0,-45.0,90.0,-2.0,2.0,-981.0,-136.0
-6.0,-253.0,-22.0,-48.0,89.0,-3.0,3.0,-985.0,-140.0
-7.0,-256.0,-22.0,-51.0,89.0,-2.0,3.0,-988.0,-136.0
-9.0,-259.0,-23.0,-52.0,88.0,-1.0,7.0,-997.0,-135.0
-5.0,-259.0,-24.0,-52.0,88.0,-2.0,8.0,-988.0,-135.0
-7.0,-257.0,-22.0,-52.0,87.0,-1.0,5.0,-992.0,-139.0
-10.0,-259.0,-24.0,-49.0,85.0,-1.0,-1.0,-987.0,-138.0
-6.0,-256.0,-26.0,-44.0,86.0,0.0,2.0,-984.0,-137.0
-6.0,-260.0,-22.0,-40.0,85.0,1.0,4.0,-985.0,-143.0
-6.0,-255.0,-22.0,-36.0,84.0,3.0,1.0,-982.0,-140.0
-7.0,-254.0,-23.0,-33.0,84.0,1.0,1.0,-981.0,-139.0
-7.0,-257.0,-21.0,-33.0,87.0,2.0,5.0,-984.0,-144.0
-8.0,-254.0,-27.0,-33.0,86.0,1.0,3.0,-982.0,-141.0
-8.0,-254.0,-22.0,-36.0,87.0,1.0,-5.0,-979.0,-140.0
-12.0,-255.0,-21.0,-41.0,87.0,1.0,-2.0,-984.0,-140.0
-8.0,-260.0,-25.0,-44.0,87.0,0.0,0.0,-982.0,-140.0
-6.0,-257.0,-23.0,-47.0,86.0,1.0,5.0,-982.0,-141.0
-9.0,-253.0,-22.0,-48.0,85.0,1.0,3.0,-982.0,-138.0
-8.0,-255.0,-25.0,-47.0,85.0,-1.0,-4.0,-984.0,-141.0
-8.0,-255.0,-22.0,-46.0,85.0,-1.0,1.0,-993.0,-141.0
-8.0,-257.0,-22.0,-44.0,84.0,-2.0,-2.0,-997.0,-138.0
-8.0,-253.0,-25.0,-43.0,83.0,-2.0,-4.0,-992.0,-141.0
-6.0,-255.0,-24.0,-43.0,81.0,-3.0,1.0,-988.0,-138.0
-8.0,-252.0,-22.0,-42.0,81.0,-1.0,-4.0,-994.0,-137.0
-8.0,-256.0,-22.0,-42.0,81.0,-1.0,-4.0,-993.0,-143.0
-8.0,-254.0,-22.0,-42.0,81.0,-1.0,-4.0,-986.0,-143.0
-5.0,-258.0,-25.0,-41.0,82.0,0.0,4.0,-985.0,-145.0
-5.0,-260.0,-27.0,-39.0,82.0,1.0,-4.0,-991.0,-141.0
-8.0,-255.0,-28.0,-36.0,82.0,0.0,-3.0,-984.0,-142.0
-5.0,-256.0,-24.0,-33.0,83.0,0.0,-1.0,-987.0,-143.0
-11.0,-254.0,-23.0,-31.0,82.0,1.0,-5.0,-998.0,-143.0
-8.0,-257.0,-25.0,-29.0,82.0,1.0,1.0,-992.0,-143.0
-8.0,-255.0,-28.0,-29.0,83.0,0.0,-1.0,-987.0,-142.0
-7.0,-257.0,-25.0,-30.0,84.0,0.0,-1.0,-983.0,-143.0
-7.0,-254.0,-21.0,-33.0,83.0,-2.0,4.0,-981.0,-146.0
-6.0,-255.0,-22.0,-37.0,83.0,-1.0,-2.0,-975.0,-142.0
-7.0,-253.0,-23.0,-44.0,84.0,-3.0,4.0,-977.0,-142.0
-9.0,-251.0,-29.0,-50.0,83.0,-4.0,8.0,-981.0,-144.0
-6.0,-254.0,-21.0,-57.0,82.0,-4.0,-1.0,-980.0,-143.0
-10.0,-257.0,-23.0,-63.0,83.0,-2.0,-1.0,-984.0,-142.0
-9.0,-258.0,-25.0,-66.0,84.0,-3.0,-4.0,-994.0,-137.0
-3.0,-258.0,-24.0,-65.0,84.0,-1.0,0.0,-982.0,-135.0
-8.0,-257.0,-22.0,-59.0,83.0,0.0,1.0,-999.0,-139.0
-7.0,-260.0,-27.0,-50.0,83.0,2.0,-7.0,-1002.0,-138.0
-7.0,-259.0,-21.0,-38.0,81.0,3.0,-2.0,-998.0,-138.0
-7.0,-258.0,-25.0,-28.0,81.0,3.0,-3.0,-994.0,-139.0
-6.0,-255.0,-25.0,-21.0,80.0,3.0,0.0,-988.0,-142.0
-8.0,-254.0,-25.0,-16.0,79.0,3.0,5.0,-986.0,-147.0
-7.0,-252.0,-26.0,-14.0,79.0,2.0,0.0,-979.0,-144.0
-9.0,-255.0,-30.0,-18.0,79.0,2.0,-4.0,-978.0,-147.0
-8.0,-251.0,-27.0,-24.0,79.0,1.0,-4.0,-976.0,-143.0
-5.0,-254.0,-23.0,-30.0,78.0,1.0,-1.0,-974.0,-145.0
-6.0,-251.0,-26.0,-36.0,76.0,0.0,-2.0,-975.0,-144.0
-6.0,-254.0,-26.0,-41.0,80.0,1.0,-2.0,-976.0,-145.0
-6.0,-258.0,-26.0,-47.0,80.0,1.0,5.0,-979.0,-144.0
-9.0,-254.0,-27.0,-53.0,83.0,1.0,-3.0,-982.0,-141.0
-7.0,-252.0,-27.0,-56.0,83.0,1.0,2.0,-984.0,-142.0
-8.0,-256.0,-28.0,-61.0,82.0,1.0,2.0,-992.0,-143.0
-7.0,-249.0,-29.0,-64.0,80.0,1.0,2.0,-980.0,-143.0
-8.0,-255.0,-24.0,-66.0,80.0,2.0,-3.0,-990.0,-142.0
-8.0,-255.0,-25.0,-67.0,79.0,2.0,-2.0,-993.0,-139.0
-8.0,-256.0,-21.0,-67.0,80.0,3.0,-5.0,-997.0,-142.0
-9.0,-253.0,-26.0,-65.0,80.0,3.0,-5.0,-985.0,-139.0
-9.0,-252.0,-25.0,-59.0,80.0,3.0,-4.0,-997.0,-143.0
-9.0,-254.0,-28.0,-53.0,80.0,2.0,-3.0,-998.0,-145.0
-10.0,-256.0,-29.0,-44.0,78.0,1.0,-6.0,-994.0,-148.0
-12.0,-252.0,-29.0,-33.0,78.0,-1.0,0.0,-983.0,-146.0
-8.0,-250.0,-27.0,-24.0,76.0,-2.0,2.0,-977.0,-148.0
-8.0,-253.0,-28.0,-19.0,74.0,-2.0,1.0,-977.0,-153.0
-10.0,-253.0,-26.0,-17.0,74.0,-4.0,1.0,-987.0,-155.0
-5.0,-255.0,-27.0,-23.0,76.0,-3.0,6.0,-977.0,-148.0
-6.0,-256.0,-27.0,-30.0,78.0,-4.0,4.0,-982.0,-153.0
-7.0,-253.0,-24.0,-39.0,82.0,-4.0,0.0,-981.0,-155.0
-6.0,-257.0,-22.0,-45.0,83.0,-4.0,1.0,-986.0,-150.0
-8.0,-261.0,-24.0,-45.0,82.0,-4.0,-4.0,-995.0,-145.0
-9.0,-257.0,-28.0,-43.0,82.0,-2.0,-6.0,-1007.0,-149.0
-9.0,-255.0,-24.0,-38.0,80.0,-2.0,-4.0,-991.0,-141.0
-11.0,-256.0,-26.0,-29.0,79.0,-4.0,-5.0,-1002.0,-148.0
-10.0,-260.0,-29.0,-22.0,77.0,-1.0,-12.0,-995.0,-145.0
-9.0,-256.0,-25.0,-18.0,74.0,0.0,-5.0,-984.0,-145.0
-19.0,-257.0,-36.0,-16.0,72.0,0.0,-7.0,-983.0,-149.0
-10.0,-256.0,-23.0,-18.0,73.0,1.0,-8.0,-980.0,-152.0
-9.0,-251.0,-27.0,-23.0,72.0,0.0,-7.0,-985.0,-145.0
-7.0,-255.0,-27.0,-29.0,73.0,1.0,-3.0,-981.0,-153.0
-8.0,-253.0,-27.0,-35.0,72.0,1.0,-3.0,-981.0,-145.0
-7.0,-254.0,-26.0,-39.0,72.0,1.0,-4.0,-979.0,-148.0
-9.0,-257.0,-25.0,-42.0,71.0,2.0,-2.0,-977.0,-150.0
-9.0,-257.0,-27.0,-43.0,70.0,0.0,-4.0,-988.0,-154.0
-8.0,-257.0,-31.0,-42.0,69.0,1.0,3.0,-985.0,-152.0
-5.0,-255.0,-26.0,-37.0,67.0,0.0,5.0,-990.0,-148.0
-5.0,-264.0,-27.0,-31.0,67.0,0.0,-3.0,-1000.0,-159.0
-7.0,-259.0,-25.0,-25.0,67.0,0.0,2.0,-999.0,-156.0
-5.0,-256.0,-30.0,-19.0,68.0,-1.0,-3.0,-992.0,-158.0
-12.0,-253.0,-29.0,-15.0,70.0,-1.0,-3.0,-993.0,-152.0
-4.0,-256.0,-29.0,-13.0,70.0,-2.0,-4.0,-994.0,-160.0
-7.0,-257.0,-28.0,-14.0,70.0,-2.0,-7.0,-991.0,-155.0
-4.0,-257.0,-28.0,-14.0,72.0,0.0,-4.0,-985.0,-157.0
-10.0,-258.0,-28.0,-18.0,73.0,1.0,1.0,-988.0,-154.0
-8.0,-256.0,-29.0,-20.0,73.0,1.0,1.0,-981.0,-148.0
-8.0,-254.0,-29.0,-24.0,72.0,1.0,1.0,-979.0,-151.0
-9.0,-254.0,-28.0,-25.0,71.0,1.0,-10.0,-982.0,-156.0
-10.0,-255.0,-27.0,-30.0,69.0,1.0,1.0,-982.0,-147.0
-12.0,-258.0,-26.0,-32.0,67.0,1.0,-1.0,-980.0,-158.0
-7.0,-256.0,-31.0,-33.0,64.0,2.0,1.0,-985.0,-159.0
-7.0,-256.0,-31.0,-34.0,63.0,3.0,-7.0,-981.0,-155.0
-7.0,-254.0,-28.0,-33.0,60.0,2.0,-3.0,-984.0,-156.0
-10.0,-252.0,-28.0,-31.0,60.0,1.0,-3.0,-988.0,-154.0
-9.0,-256.0,-29.0,-30.0,59.0,1.0,-2.0,-983.0,-147.0
-4.0,-256.0,-32.0,-30.0,61.0,1.0,-1.0,-983.0,-158.0
-8.0,-255.0,-26.0,-29.0,62.0,0.0,-1.0,-985.0,-156.0
-9.0,-251.0,-30.0,-27.0,63.0,0.0,4.0,-982.0,-158.0
-7.0,-253.0,-30.0,-26.0,65.0,-2.0,4.0,-980.0,-160.0
-8.0,-255.0,-28.0,-25.0,64.0,-1.0,-4.0,-982.0,-155.0
-7.0,-258.0,-30.0,-24.0,65.0,0.0,-1.0,-984.0,-155.0
-9.0,-254.0,-27.0,-25.0,66.0,-1.0,5.0,-979.0,-154.0
-9.0,-253.0,-30.0,-27.0,66.0,-2.0,-2.0,-982.0,-156.0
-8.0,-254.0,-31.0,-27.0,66.0,0.0,2.0,-982.0,-159.0
-9.0,-252.0,-30.0,-31.0,66.0,-2.0,-3.0,-981.0,-165.0
-8.0,-254.0,-30.0,-34.0,66.0,-3.0,-6.0,-984.0,-161.0
-8.0,-253.0,-31.0,-36.0,67.0,-2.0,-5.0,-981.0,-156.0
-8.0,-256.0,-30.0,-37.0,65.0,-2.0,-3.0,-981.0,-157.0
-3.0,-256.0,-30.0,-36.0,65.0,-4.0,-3.0,-986.0,-157.0
-10.0,-252.0,-30.0,-36.0,64.0,-5.0,-2.0,-984.0,-155.0
-7.0,-255.0,-26.0,-35.0,63.0,-4.0,0.0,-975.0,-163.0
-3.0,-256.0,-33.0,-36.0,60.0,-2.0,2.0,-985.0,-165.0
-4.0,-252.0,-31.0,-39.0,61.0,-3.0,-1.0,-982.0,-168.0
-8.0,-256.0,-34.0,-44.0,62.0,-5.0,1.0,-977.0,-170.0
-6.0,-252.0,-33.0,-51.0,65.0,-3.0,4.0,-981.0,-169.0
-6.0,-256.0,-32.0,-57.0,67.0,-4.0,1.0,-979.0,-171.0
-9.0,-255.0,-30.0,-64.0,68.0,-5.0,2.0,-981.0,-170.0
-7.0,-258.0,-34.0,-72.0,69.0,-5.0,-1.0,-992.0,-168.0
-9.0,-255.0,-35.0,-78.0,66.0,-5.0,-1.0,-986.0,-173.0
-7.0,-255.0,-30.0,-79.0,64.0,-6.0,-2.0,-985.0,-175.0
-7.0,-257.0,-31.0,-75.0,61.0,-4.0,2.0,-985.0,-177.0
-7.0,-259.0,-33.0,-69.0,59.0,-4.0,0.0,-997.0,-173.0
-8.0,-257.0,-35.0,-61.0,56.0,-2.0,-1.0,-985.0,-176.0
-9.0,-257.0,-34.0,-51.0,54.0,1.0,4.0,-991.0,-170.0
-8.0,-254.0,-34.0,-42.0,54.0,2.0,-5.0,-987.0,-173.0
-8.0,-256.0,-34.0,-38.0,55.0,3.0,-8.0,-980.0,-174.0
-7.0,-255.0,-35.0,-36.0,58.0,3.0,-7.0,-985.0,-177.0
-6.0,-256.0,-31.0,-38.0,59.0,5.0,-5.0,-984.0,-174.0
-7.0,-260.0,-34.0,-40.0,62.0,6.0,-1.0,-993.0,-172.0
-9.0,-259.0,-35.0,-41.0,63.0,5.0,-6.0,-986.0,-172.0
-7.0,-257.0,-33.0,-43.0,64.0,7.0,-3.0,-1002.0,-173.0
-10.0,-259.0,-37.0,-39.0,65.0,8.0,-4.0,-994.0,-175.0
-5.0,-262.0,-32.0,-32.0,67.0,9.0,-1.0,-997.0,-174.0
-9.0,-261.0,-34.0,-21.0,69.0,11.0,-3.0,-1003.0,-173.0
-9.0,-260.0,-32.0,-6.0,71.0,10.0,1.0,-1004.0,-174.0
-8.0,-260.0,-34.0,9.0,73.0,11.0,2.0,-999.0,-173.0
-7.0,-260.0,-33.0,24.0,74.0,13.0,-1.0,-998.0,-175.0
-6.0,-257.0,-31.0,36.0,75.0,13.0,-2.0,-992.0,-171.0
-8.0,-258.0,-33.0,47.0,79.0,14.0,-2.0,-1001.0,-167.0
-8.0,-257.0,-33.0,57.0,79.0,13.0,-1.0,-994.0,-171.0
-8.0,-253.0,-31.0,68.0,80.0,14.0,-6.0,-992.0,-170.0
-6.0,-255.0,-34.0,79.0,81.0,13.0,-3.0,-981.0,-169.0
-5.0,-254.0,-33.0,87.0,82.0,13.0,2.0,-981.0,-172.0
-9.0,-254.0,-30.0,90.0,85.0,13.0,0.0,-971.0,-172.0
-8.0,-249.0,-34.0,84.0,86.0,13.0,7.0,-969.0,-175.0
-7.0,-252.0,-33.0,72.0,87.0,13.0,1.0,-969.0,-172.0
-7.0,-250.0,-35.0,55.0,88.0,11.0,2.0,-965.0,-174.0
-5.0,-253.0,-34.0,37.0,88.0,11.0,-2.0,-972.0,-177.0
-11.0,-251.0,-33.0,18.0,86.0,9.0,-9.0,-972.0,-172.0
-8.0,-252.0,-33.0,2.0,87.0,10.0,-5.0,-977.0,-168.0
-8.0,-253.0,-33.0,-16.0,86.0,8.0,-4.0,-977.0,-171.0
-12.0,-253.0,-33.0,-33.0,84.0,8.0,-8.0,-977.0,-168.0
-13.0,-254.0,-37.0,-46.0,83.0,7.0,-9.0,-984.0,-169.0
-14.0,-257.0,-28.0,-54.0,80.0,6.0,-9.0,-987.0,-157.0
-13.0,-256.0,-25.0,-54.0,79.0,5.0,-8.0,-998.0,-163.0
-10.0,-259.0,-28.0,-52.0,76.0,4.0,-11.0,-997.0,-154.0
-7.0,-259.0,-31.0,-43.0,70.0,4.0,-12.0,-1002.0,-160.0
-9.0,-258.0,-32.0,-33.0,69.0,4.0,-9.0,-994.0,-167.0
-12.0,-254.0,-32.0,-23.0,66.0,2.0,-10.0,-993.0,-175.0
-9.0,-253.0,-34.0,-16.0,63.0,1.0,-8.0,-977.0,-178.0
-10.0,-254.0,-36.0,-14.0,60.0,1.0,-11.0,-979.0,-179.0
-11.0,-253.0,-35.0,-18.0,58.0,0.0,0.0,-985.0,-183.0
-7.0,-256.0,-35.0,-22.0,56.0,1.0,0.0,-977.0,-181.0
-10.0,-255.0,-33.0,-24.0,56.0,3.0,-2.0,-991.0,-184.0
-10.0,-256.0,-34.0,-27.0,57.0,4.0,-5.0,-992.0,-178.0
-7.0,-255.0,-34.0,-26.0,58.0,5.0,-7.0,-999.0,-175.0
-10.0,-260.0,-33.0,-23.0,61.0,5.0,-6.0,-1004.0,-174.0
-9.0,-256.0,-36.0,-19.0,66.0,6.0,-5.0,-999.0,-179.0
-8.0,-259.0,-36.0,-13.0,69.0,8.0,-9.0,-996.0,-178.0
-10.0,-259.0,-35.0,-10.0,72.0,9.0,-6.0,-1003.0,-176.0
-12.0,-257.0,-33.0,-10.0,73.0,11.0,-14.0,-995.0,-183.0
-8.0,-259.0,-29.0,-10.0,71.0,13.0,-14.0,-1003.0,-181.0
-11.0,-260.0,-31.0,-13.0,71.0,14.0,-13.0,-997.0,-175.0
-9.0,-255.0,-31.0,-15.0,68.0,16.0,-12.0,-999.0,-179.0
-10.0,-257.0,-31.0,-14.0,66.0,19.0,-9.0,-988.0,-175.0
-11.0,-258.0,-36.0,-10.0,66.0,21.0,-11.0,-988.0,-172.0
-14.0,-260.0,-29.0,-4.0,65.0,23.0,-9.0,-998.0,-172.0
-11.0,-258.0,-34.0,0.0,67.0,26.0,-5.0,-993.0,-171.0
-6.0,-256.0,-31.0,5.0,69.0,26.0,0.0,-1000.0,-170.0
-8.0,-256.0,-33.0,12.0,73.0,28.0,-4.0,-994.0,-174.0
-7.0,-254.0,-32.0,20.0,76.0,29.0,-3.0,-988.0,-177.0
-5.0,-258.0,-33.0,28.0,79.0,33.0,6.0,-987.0,-182.0
-5.0,-256.0,-38.0,31.0,84.0,32.0,2.0,-992.0,-188.0
-5.0,-259.0,-38.0,32.0,88.0,29.0,13.0,-990.0,-194.0
-4.0,-258.0,-39.0,31.0,93.0,30.0,12.0,-999.0,-190.0
-4.0,-255.0,-37.0,32.0,98.0,28.0,7.0,-1001.0,-191.0
-4.0,-257.0,-36.0,31.0,104.0,27.0,14.0,-996.0,-193.0
-3.0,-257.0,-39.0,31.0,112.0,25.0,16.0,-1000.0,-190.0
-2.0,-258.0,-36.0,31.0,118.0,24.0,11.0,-988.0,-188.0
-5.0,-255.0,-37.0,29.0,123.0,22.0,11.0,-993.0,-185.0
-5.0,-260.0,-36.0,30.0,125.0,18.0,7.0,-983.0,-182.0
-4.0,-257.0,-35.0,29.0,126.0,17.0,5.0,-984.0,-183.0
-4.0,-258.0,-40.0,24.0,127.0,19.0,1.0,-992.0,-187.0
-9.0,-256.0,-38.0,18.0,128.0,21.0,5.0,-994.0,-186.0
-10.0,-255.0,-33.0,10.0,126.0,24.0,-1.0,-993.0,-184.0
-10.0,-258.0,-35.0,0.0,125.0,27.0,0.0,-994.0,-192.0
-10.0,-258.0,-35.0,-9.0,125.0,29.0,-5.0,-994.0,-191.0
-12.0,-255.0,-39.0,-14.0,124.0,31.0,-12.0,-990.0,-189.0
-11.0,-254.0,-38.0,-18.0,124.0,31.0,-10.0,-985.0,-188.0
-11.0,-251.0,-38.0,-20.0,123.0,33.0,-16.0,-985.0,-191.0
-15.0,-254.0,-38.0,-23.0,123.0,34.0,-18.0,-976.0,-184.0
-14.0,-251.0,-36.0,-25.0,118.0,35.0,-23.0,-989.0,-188.0
-11.0,-252.0,-39.0,-29.0,114.0,34.0,-19.0,-973.0,-188.0
-14.0,-254.0,-37.0,-31.0,109.0,33.0,-25.0,-972.0,-192.0
-16.0,-252.0,-37.0,-33.0,105.0,33.0,-22.0,-974.0,-191.0
-13.0,-254.0,-37.0,-34.0,102.0,33.0,-24.0,-973.0,-194.0
-15.0,-253.0,-37.0,-34.0,99.0,30.0,-27.0,-970.0,-200.0
-20.0,-252.0,-36.0,-37.0,96.0,27.0,-36.0,-971.0,-197.0
-17.0,-250.0,-41.0,-39.0,89.0,23.0,-38.0,-965.0,-200.0
-19.0,-251.0,-36.0,-42.0,83.0,20.0,-41.0,-969.0,-199.0
-19.0,-249.0,-42.0,-47.0,79.0,20.0,-42.0,-967.0,-205.0
-22.0,-248.0,-43.0,-52.0,77.0,18.0,-46.0,-963.0,-205.0
-16.0,-252.0,-40.0,-56.0,74.0,18.0,-44.0,-966.0,-203.0
-20.0,-250.0,-36.0,-61.0,71.0,18.0,-42.0,-963.0,-205.0
-16.0,-250.0,-40.0,-65.0,69.0,20.0,-43.0,-963.0,-204.0
-18.0,-252.0,-41.0,-70.0,67.0,20.0,-41.0,-962.0,-204.0
-17.0,-249.0,-40.0,-77.0,68.0,20.0,-43.0,-960.0,-197.0
-16.0,-249.0,-36.0,-82.0,69.0,19.0,-35.0,-949.0,-202.0
-15.0,-246.0,-35.0,-86.0,69.0,20.0,-35.0,-944.0,-196.0
-16.0,-242.0,-37.0,-88.0,67.0,22.0,-30.0,-945.0,-194.0
-16.0,-243.0,-39.0,-92.0,66.0,20.0,-25.0,-939.0,-196.0
-13.0,-244.0,-39.0,-98.0,63.0,17.0,-19.0,-935.0,-196.0
-10.0,-243.0,-41.0,-109.0,59.0,13.0,-15.0,-933.0,-202.0
-11.0,-240.0,-42.0,-122.0,55.0,6.0,-7.0,-930.0,-199.0
-12.0,-244.0,-37.0,-139.0,52.0,0.0,-15.0,-935.0,-208.0
-14.0,-245.0,-41.0,-158.0,45.0,-7.0,-19.0,-932.0,-202.0
-15.0,-245.0,-44.0,-176.0,36.0,-11.0,-28.0,-929.0,-204.0
-16.0,-245.0,-41.0,-193.0,28.0,-15.0,-30.0,-928.0,-205.0
-19.0,-244.0,-42.0,-212.0,17.0,-17.0,-42.0,-930.0,-204.0
-20.0,-243.0,-41.0,-225.0,5.0,-16.0,-47.0,-926.0,-201.0
-17.0,-242.0,-40.0,-237.0,-6.0,-16.0,-45.0,-921.0,-204.0
-17.0,-239.0,-43.0,-244.0,-14.0,-12.0,-47.0,-917.0,-204.0
-17.0,-238.0,-39.0,-252.0,-21.0,-7.0,-46.0,-911.0,-204.0
-21.0,-232.0,-42.0,-259.0,-27.0,1.0,-46.0,-905.0,-207.0
-16.0,-231.0,-39.0,-272.0,-30.0,7.0,-37.0,-898.0,-206.0
-18.0,-229.0,-43.0,-289.0,-35.0,12.0,-36.0,-889.0,-212.0
-15.0,-226.0,-42.0,-308.0,-36.0,16.0,-29.0,-879.0,-210.0
-14.0,-226.0,-43.0,-331.0,-38.0,21.0,-29.0,-877.0,-214.0
-13.0,-226.0,-38.0,-355.0,-39.0,22.0,-25.0,-872.0,-212.0
-10.0,-227.0,-44.0,-380.0,-43.0,23.0,-14.0,-874.0,-216.0
-8.0,-229.0,-49.0,-409.0,-44.0,24.0,-6.0,-871.0,-221.0
-7.0,-235.0,-50.0,-442.0,-45.0,24.0,-10.0,-872.0,-226.0
-11.0,-223.0,-47.0,-474.0,-45.0,20.0,-11.0,-878.0,-222.0
-8.0,-231.0,-43.0,-508.0,-47.0,16.0,-17.0,-878.0,-225.0
-15.0,-230.0,-43.0,-540.0,-53.0,12.0,-16.0,-886.0,-215.0
-13.0,-231.0,-40.0,-567.0,-61.0,6.0,-29.0,-887.0,-207.0
-14.0,-232.0,-38.0,-587.0,-68.0,-1.0,-33.0,-893.0,-200.0
-15.0,-232.0,-38.0,-601.0,-75.0,-8.0,-31.0,-890.0,-191.0
-15.0,-233.0,-36.0,-604.0,-77.0,-12.0,-36.0,-897.0,-186.0
-18.0,-231.0,-33.0,-603.0,-78.0,-14.0,-38.0,-891.0,-183.0
-16.0,-231.0,-34.0,-596.0,-77.0,-17.0,-39.0,-896.0,-185.0
-16.0,-234.0,-32.0,-587.0,-73.0,-20.0,-39.0,-900.0,-186.0
-15.0,-234.0,-36.0,-580.0,-63.0,-21.0,-34.0,-901.0,-192.0
-15.0,-235.0,-40.0,-576.0,-50.0,-21.0,-31.0,-902.0,-198.0
-13.0,-236.0,-45.0,-570.0,-34.0,-20.0,-20.0,-902.0,-203.0
-10.0,-237.0,-42.0,-566.0,-16.0,-18.0,-23.0,-905.0,-213.0
-10.0,-237.0,-48.0,-562.0,2.0,-13.0,-14.0,-908.0,-229.0
-7.0,-236.0,-51.0,-563.0,22.0,-13.0,-8.0,-905.0,-246.0
-6.0,-236.0,-52.0,-567.0,36.0,-10.0,-2.0,-904.0,-257.0
-7.0,-235.0,-55.0,-575.0,53.0,-5.0,-1.0,-896.0,-270.0
-7.0,-232.0,-60.0,-581.0,68.0,-2.0,4.0,-893.0,-275.0
-7.0,-227.0,-64.0,-591.0,81.0,-2.0,7.0,-886.0,-284.0
-6.0,-229.0,-63.0,-601.0,92.0,0.0,4.0,-869.0,-297.0
-3.0,-230.0,-71.0,-614.0,105.0,4.0,-4.0,-863.0,-297.0
-7.0,-223.0,-65.0,-628.0,118.0,12.0,-7.0,-851.0,-292.0
-4.0,-220.0,-63.0,-640.0,130.0,15.0,-8.0,-845.0,-294.0
-5.0,-218.0,-61.0,-650.0,143.0,15.0,-11.0,-834.0,-285.0
-8.0,-217.0,-62.0,-652.0,158.0,25.0,-8.0,-822.0,-276.0
-4.0,-215.0,-56.0,-653.0,175.0,36.0,0.0,-821.0,-271.0
-1.0,-213.0,-56.0,-646.0,197.0,48.0,13.0,-816.0,-265.0
-1.0,-214.0,-55.0,-639.0,220.0,55.0,18.0,-808.0,-252.0
1.0,-213.0,-50.0,-628.0,240.0,63.0,25.0,-814.0,-246.0
1.0,-212.0,-51.0,-617.0,258.0,72.0,26.0,-816.0,-243.0
0.0,-217.0,-50.0,-609.0,273.0,82.0,31.0,-832.0,-240.0
0.0,-216.0,-53.0,-604.0,277.0,88.0,27.0,-827.0,-242.0
0.0,-216.0,-53.0,-604.0,269.0,93.0,16.0,-833.0,-246.0
-3.0,-214.0,-54.0,-613.0,255.0,98.0,8.0,-834.0,-254.0
-8.0,-213.0,-57.0,-626.0,234.0,100.0,0.0,-834.0,-265.0
-10.0,-213.0,-60.0,-643.0,211.0,101.0,-19.0,-832.0,-276.0
-14.0,-215.0,-64.0,-661.0,191.0,101.0,-30.0,-824.0,-290.0
-22.0,-210.0,-63.0,-676.0,175.0,99.0,-47.0,-820.0,-302.0
-22.0,-213.0,-69.0,-689.0,161.0,95.0,-65.0,-812.0,-307.0
-27.0,-209.0,-71.0,-699.0,150.0,93.0,-73.0,-809.0,-317.0
-30.0,-208.0,-68.0,-704.0,140.0,93.0,-84.0,-806.0,-312.0
-30.0,-209.0,-69.0,-705.0,137.0,94.0,-93.0,-804.0,-329.0
-31.0,-211.0,-64.0,-700.0,134.0,95.0,-97.0,-801.0,-324.0
-29.0,-209.0,-69.0,-690.0,132.0,95.0,-84.0,-810.0,-322.0
-27.0,-211.0,-71.0,-680.0,132.0,92.0,-80.0,-808.0,-320.0
-26.0,-211.0,-70.0,-670.0,136.0,87.0,-75.0,-818.0,-325.0
-19.0,-214.0,-69.0,-659.0,140.0,83.0,-63.0,-817.0,-325.0
-19.0,-214.0,-69.0,-653.0,144.0,74.0,-49.0,-823.0,-324.0
-16.0,-213.0,-73.0,-654.0,145.0,66.0,-30.0,-823.0,-332.0
-9.0,-216.0,-76.0,-660.0,144.0,57.0,-24.0,-827.0,-332.0
-8.0,-214.0,-78.0,-671.0,140.0,43.0,-11.0,-829.0,-337.0
-7.0,-216.0,-79.0,-688.0,136.0,27.0,-5.0,-824.0,-345.0
-7.0,-215.0,-78.0,-709.0,133.0,13.0,-2.0,-828.0,-350.0
-8.0,-217.0,-81.0,-730.0,131.0,-4.0,-7.0,-828.0,-369.0
-8.0,-214.0,-86.0,-750.0,132.0,-19.0,-6.0,-824.0,-374.0
-11.0,-213.0,-84.0,-764.0,135.0,-32.0,-7.0,-828.0,-377.0
-10.0,-216.0,-87.0,-773.0,142.0,-43.0,-15.0,-830.0,-387.0
-10.0,-214.0,-89.0,-781.0,151.0,-50.0,-17.0,-820.0,-395.0
-11.0,-212.0,-88.0,-793.0,161.0,-57.0,-18.0,-826.0,-399.0
-10.0,-212.0,-90.0,-807.0,169.0,-60.0,-23.0,-822.0,-406.0
-10.0,-214.0,-91.0,-823.0,170.0,-61.0,-18.0,-822.0,-402.0
-11.0,-211.0,-87.0,-841.0,168.0,-55.0,-14.0,-819.0,-401.0
-9.0,-216.0,-86.0,-859.0,161.0,-46.0,-13.0,-821.0,-387.0
-9.0,-217.0,-85.0,-873.0,151.0,-35.0,-6.0,-824.0,-377.0
-5.0,-211.0,-84.0,-878.0,140.0,-22.0,-1.0,-832.0,-362.0
-7.0,-217.0,-81.0,-872.0,131.0,-9.0,4.0,-835.0,-348.0
-4.0,-218.0,-80.0,-859.0,123.0,7.0,2.0,-839.0,-341.0
-6.0,-222.0,-74.0,-837.0,119.0,17.0,2.0,-845.0,-338.0
-4.0,-220.0,-75.0,-811.0,120.0,30.0,6.0,-849.0,-347.0
-3.0,-226.0,-81.0,-781.0,129.0,33.0,5.0,-855.0,-354.0
-9.0,-224.0,-82.0,-745.0,143.0,35.0,0.0,-857.0,-371.0
-9.0,-225.0,-86.0,-714.0,156.0,30.0,-6.0,-859.0,-389.0
-11.0,-227.0,-94.0,-686.0,166.0,22.0,-17.0,-862.0,-415.0
-11.0,-228.0,-103.0,-666.0,169.0,12.0,-26.0,-868.0,-447.0
-14.0,-226.0,-103.0,-660.0,168.0,-1.0,-32.0,-868.0,-468.0
-18.0,-227.0,-110.0,-666.0,156.0,-15.0,-40.0,-868.0,-487.0
-22.0,-222.0,-111.0,-683.0,138.0,-24.0,-46.0,-859.0,-505.0
-21.0,-223.0,-117.0,-711.0,112.0,-31.0,-53.0,-851.0,-511.0
-20.0,-220.0,-115.0,-746.0,83.0,-36.0,-59.0,-844.0,-518.0
-21.0,-219.0,-112.0,-782.0,54.0,-38.0,-60.0,-834.0,-506.0
-22.0,-214.0,-109.0,-816.0,27.0,-34.0,-59.0,-830.0,-494.0
-19.0,-213.0,-109.0,-844.0,7.0,-26.0,-62.0,-811.0,-474.0
-22.0,-210.0,-101.0,-866.0,-7.0,-12.0,-54.0,-806.0,-463.0
-17.0,-206.0,-96.0,-879.0,-13.0,2.0,-41.0,-807.0,-439.0
-13.0,-208.0,-95.0,-879.0,-10.0,16.0,-34.0,-797.0,-421.0
-4.0,-211.0,-95.0,-864.0,2.0,30.0,-10.0,-790.0,-407.0
-1.0,-209.0,-89.0,-839.0,27.0,41.0,8.0,-790.0,-411.0
0.0,-206.0,-90.0,-803.0,55.0,47.0,19.0,-788.0,-417.0
1.0,-206.0,-91.0,-761.0,84.0,52.0,21.0,-789.0,-422.0
0.0,-206.0,-99.0,-716.0,105.0,52.0,32.0,-793.0,-440.0
3.0,-212.0,-104.0,-676.0,117.0,53.0,36.0,-794.0,-464.0
0.0,-209.0,-111.0,-645.0,117.0,50.0,32.0,-799.0,-492.0
0.0,-215.0,-120.0,-628.0,102.0,49.0,27.0,-810.0,-514.0
-2.0,-215.0,-124.0,-624.0,76.0,49.0,23.0,-823.0,-543.0
-4.0,-218.0,-130.0,-630.0,45.0,52.0,13.0,-841.0,-557.0
-6.0,-225.0,-131.0,-650.0,13.0,55.0,6.0,-865.0,-579.0
-8.0,-230.0,-132.0,-682.0,-14.0,61.0,-9.0,-876.0,-577.0
-11.0,-235.0,-133.0,-724.0,-34.0,74.0,-19.0,-894.0,-577.0
-13.0,-236.0,-130.0,-769.0,-46.0,88.0,-32.0,-907.0,-570.0
-13.0,-240.0,-132.0,-817.0,-48.0,102.0,-37.0,-911.0,-562.0
-15.0,-241.0,-124.0,-863.0,-37.0,118.0,-31.0,-918.0,-556.0
-12.0,-243.0,-122.0,-900.0,-13.0,127.0,-31.0,-915.0,-541.0
-14.0,-236.0,-121.0,-919.0,21.0,134.0,-32.0,-910.0,-526.0
-13.0,-238.0,-118.0,-916.0,64.0,138.0,-22.0,-909.0,-520.0
-10.0,-233.0,-117.0,-891.0,106.0,137.0,-23.0,-894.0,-513.0
-10.0,-233.0,-118.0,-849.0,141.0,128.0,-17.0,-879.0,-528.0
-14.0,-225.0,-119.0,-799.0,168.0,116.0,-17.0,-861.0,-536.0
-7.0,-223.0,-132.0,-748.0,180.0,101.0,-14.0,-845.0,-552.0
-10.0,-220.0,-133.0,-703.0,181.0,84.0,-4.0,-830.0,-572.0
-9.0,-213.0,-134.0,-666.0,172.0,67.0,-9.0,-814.0,-587.0
-12.0,-212.0,-141.0,-640.0,154.0,55.0,-14.0,-807.0,-604.0
-13.0,-210.0,-139.0,-630.0,133.0,46.0,-29.0,-800.0,-610.0
-15.0,-207.0,-141.0,-633.0,108.0,39.0,-29.0,-802.0,-613.0
-22.0,-210.0,-143.0,-648.0,87.0,35.0,-47.0,-808.0,-618.0
-21.0,-216.0,-134.0,-676.0,67.0,35.0,-55.0,-820.0,-611.0
-24.0,-217.0,-140.0,-709.0,53.0,40.0,-67.0,-835.0,-609.0
-25.0,-221.0,-137.0,-741.0,40.0,47.0,-76.0,-849.0,-600.0
-26.0,-225.0,-136.0,-771.0,38.0,55.0,-79.0,-864.0,-587.0
-26.0,-227.0,-132.0,-796.0,42.0,63.0,-76.0,-866.0,-589.0
-24.0,-227.0,-132.0,-810.0,55.0,68.0,-66.0,-865.0,-583.0
-21.0,-231.0,-133.0,-816.0,72.0,71.0,-62.0,-868.0,-585.0
-20.0,-229.0,-135.0,-811.0,92.0,67.0,-62.0,-863.0,-582.0
-20.0,-221.0,-136.0,-797.0,110.0,64.0,-49.0,-854.0,-591.0
-20.0,-221.0,-137.0,-772.0,122.0,58.0,-39.0,-844.0,-599.0
-13.0,-217.0,-143.0,-739.0,129.0,53.0,-26.0,-828.0,-622.0
-11.0,-215.0,-143.0,-698.0,131.0,45.0,-25.0,-816.0,-627.0
-10.0,-215.0,-147.0,-658.0,126.0,38.0,-15.0,-804.0,-636.0
-9.0,-208.0,-148.0,-619.0,115.0,34.0,-15.0,-794.0,-647.0
-8.0,-210.0,-153.0,-586.0,102.0,34.0,-12.0,-784.0,-654.0
-4.0,-214.0,-151.0,-559.0,88.0,37.0,-5.0,-784.0,-660.0
-5.0,-206.0,-153.0,-538.0,74.0,44.0,1.0,-786.0,-657.0
-7.0,-203.0,-151.0,-519.0,63.0,51.0,4.0,-779.0,-656.0
-1.0,-205.0,-150.0,-504.0,57.0,60.0,13.0,-787.0,-651.0
0.0,-203.0,-148.0,-493.0,63.0,69.0,20.0,-787.0,-652.0
0.0,-207.0,-146.0,-481.0,74.0,78.0,32.0,-786.0,-643.0
2.0,-205.0,-147.0,-465.0,89.0,81.0,26.0,-783.0,-643.0
4.0,-205.0,-144.0,-448.0,106.0,81.0,27.0,-783.0,-640.0
1.0,-202.0,-146.0,-434.0,128.0,77.0,29.0,-783.0,-641.0
-2.0,-204.0,-147.0,-424.0,147.0,72.0,21.0,-770.0,-648.0
-5.0,-204.0,-155.0,-417.0,166.0,60.0,17.0,-793.0,-676.0
-2.0,-208.0,-157.0,-426.0,184.0,42.0,1.0,-784.0,-682.0
-8.0,-205.0,-161.0,-440.0,197.0,29.0,-10.0,-777.0,-685.0
-12.0,-205.0,-168.0,-448.0,206.0,22.0,-27.0,-767.0,-694.0
-12.0,-209.0,-169.0,-454.0,216.0,21.0,-36.0,-792.0,-712.0
-16.0,-212.0,-167.0,-467.0,225.0,20.0,-48.0,-800.0,-728.0
-21.0,-207.0,-168.0,-474.0,236.0,23.0,-60.0,-793.0,-712.0
-20.0,-203.0,-163.0,-462.0,239.0,28.0,-60.0,-780.0,-715.0
-24.0,-202.0,-170.0,-438.0,237.0,34.0,-62.0,-775.0,-714.0
-21.0,-202.0,-164.0,-416.0,231.0,38.0,-69.0,-765.0,-722.0
-23.0,-196.0,-168.0,-400.0,222.0,49.0,-63.0,-753.0,-733.0
-21.0,-196.0,-170.0,-388.0,205.0,62.0,-65.0,-737.0,-738.0
-18.0,-194.0,-176.0,-379.0,187.0,72.0,-62.0,-726.0,-719.0
-22.0,-187.0,-173.0,-367.0,171.0,81.0,-54.0,-719.0,-757.0
-20.0,-189.0,-173.0,-370.0,160.0,84.0,-55.0,-715.0,-752.0
-18.0,-190.0,-173.0,-374.0,151.0,86.0,-51.0,-720.0,-752.0
-16.0,-187.0,-174.0,-382.0,144.0,85.0,-52.0,-709.0,-758.0
-16.0,-186.0,-176.0,-392.0,136.0,82.0,-48.0,-718.0,-744.0
-19.0,-188.0,-177.0,-400.0,130.0,77.0,-55.0,-709.0,-761.0
-18.0,-186.0,-180.0,-413.0,128.0,71.0,-59.0,-708.0,-762.0
-20.0,-185.0,-180.0,-420.0,124.0,63.0,-60.0,-707.0,-775.0
-25.0,-186.0,-175.0,-423.0,120.0,56.0,-68.0,-698.0,-784.0
-23.0,-185.0,-177.0,-426.0,115.0,50.0,-70.0,-701.0,-775.0
-25.0,-187.0,-185.0,-425.0,115.0,41.0,-77.0,-709.0,-782.0
-28.0,-184.0,-181.0,-423.0,119.0,42.0,-86.0,-707.0,-784.0
-27.0,-183.0,-183.0,-423.0,121.0,44.0,-81.0,-703.0,-785.0
-24.0,-185.0,-181.0,-419.0,124.0,44.0,-82.0,-703.0,-782.0
-26.0,-187.0,-182.0,-414.0,122.0,46.0,-83.0,-708.0,-783.0
-26.0,-187.0,-179.0,-406.0,118.0,50.0,-81.0,-703.0,-778.0
-26.0,-187.0,-177.0,-395.0,109.0,55.0,-79.0,-707.0,-772.0
-26.0,-186.0,-176.0,-380.0,97.0,58.0,-79.0,-709.0,-768.0
-25.0,-186.0,-178.0,-365.0,86.0,62.0,-72.0,-708.0,-770.0
-26.0,-184.0,-176.0,-351.0,74.0,65.0,-73.0,-702.0,-774.0
-24.0,-184.0,-178.0,-339.0,59.0,70.0,-71.0,-703.0,-775.0
-24.0,-181.0,-182.0,-328.0,43.0,74.0,-71.0,-696.0,-778.0
-21.0,-184.0,-185.0,-318.0,29.0,75.0,-60.0,-695.0,-793.0
-19.0,-183.0,-184.0,-308.0,19.0,77.0,-66.0,-688.0,-794.0
-17.0,-178.0,-189.0,-302.0,15.0,79.0,-53.0,-681.0,-796.0
-19.0,-181.0,-186.0,-296.0,13.0,81.0,-46.0,-683.0,-800.0
-18.0,-181.0,-186.0,-288.0,15.0,82.0,-47.0,-680.0,-805.0
-17.0,-181.0,-187.0,-279.0,22.0,80.0,-49.0,-678.0,-806.0
-16.0,-176.0,-190.0,-272.0,27.0,81.0,-39.0,-670.0,-803.0
-15.0,-177.0,-182.0,-261.0,32.0,83.0,-40.0,-674.0,-803.0
-14.0,-179.0,-188.0,-248.0,42.0,81.0,-41.0,-668.0,-813.0
-17.0,-178.0,-189.0,-235.0,52.0,79.0,-38.0,-666.0,-814.0
-15.0,-175.0,-188.0,-226.0,62.0,77.0,-40.0,-665.0,-821.0
-19.0,-178.0,-193.0,-222.0,68.0,78.0,-43.0,-661.0,-829.0
-16.0,-176.0,-195.0,-217.0,66.0,76.0,-45.0,-664.0,-827.0
-18.0,-176.0,-191.0,-217.0,62.0,68.0,-53.0,-667.0,-825.0
-23.0,-175.0,-192.0,-216.0,57.0,64.0,-61.0,-662.0,-834.0
-23.0,-179.0,-190.0,-214.0,51.0,65.0,-68.0,-669.0,-842.0
-22.0,-179.0,-192.0,-212.0,49.0,65.0,-66.0,-677.0,-829.0
-23.0,-182.0,-189.0,-205.0,45.0,67.0,-69.0,-682.0,-826.0
-19.0,-186.0,-189.0,-195.0,39.0,73.0,-68.0,-688.0,-813.0
-18.0,-187.0,-190.0,-182.0,36.0,78.0,-56.0,-702.0,-813.0
-20.0,-180.0,-187.0,-163.0,39.0,81.0,-43.0,-706.0,-813.0
-15.0,-189.0,-191.0,-137.0,46.0,76.0,-37.0,-697.0,-811.0
-11.0,-185.0,-192.0,-113.0,49.0,77.0,-32.0,-690.0,-810.0
-9.0,-183.0,-189.0,-92.0,48.0,79.0,-21.0,-692.0,-811.0
-10.0,-182.0,-189.0,-70.0,47.0,78.0,-17.0,-678.0,-815.0
-11.0,-180.0,-194.0,-54.0,44.0,78.0,-21.0,-678.0,-818.0
-10.0,-179.0,-193.0,-43.0,44.0,75.0,-26.0,-661.0,-831.0
-13.0,-175.0,-195.0,-34.0,42.0,73.0,-34.0,-656.0,-836.0
-18.0,-171.0,-196.0,-29.0,39.0,73.0,-46.0,-651.0,-844.0
-20.0,-172.0,-200.0,-29.0,33.0,72.0,-56.0,-649.0,-849.0
-20.0,-176.0,-198.0,-33.0,26.0,72.0,-75.0,-647.0,-852.0
-22.0,-174.0,-202.0,-39.0,24.0,70.0,-75.0,-654.0,-850.0
-24.0,-174.0,-197.0,-47.0,30.0,68.0,-71.0,-664.0,-846.0
-19.0,-179.0,-198.0,-51.0,40.0,64.0,-66.0,-668.0,-836.0
-19.0,-179.0,-193.0,-46.0,52.0,55.0,-67.0,-673.0,-823.0
-19.0,-179.0,-190.0,-32.0,62.0,45.0,-58.0,-675.0,-816.0
-19.0,-181.0,-192.0,-11.0,67.0,33.0,-55.0,-681.0,-809.0
-16.0,-183.0,-185.0,14.0,68.0,21.0,-48.0,-679.0,-807.0
-19.0,-181.0,-188.0,39.0,74.0,8.0,-54.0,-685.0,-807.0
-20.0,-182.0,-188.0,55.0,75.0,5.0,-54.0,-681.0,-812.0
-18.0,-180.0,-192.0,71.0,75.0,5.0,-43.0,-681.0,-819.0
-17.0,-180.0,-194.0,83.0,76.0,5.0,-38.0,-680.0,-824.0
-21.0,-181.0,-197.0,95.0,74.0,6.0,-44.0,-672.0,-831.0
-16.0,-179.0,-193.0,104.0,69.0,9.0,-42.0,-668.0,-831.0
-17.0,-178.0,-194.0,113.0,68.0,6.0,-43.0,-659.0,-828.0
-13.0,-175.0,-194.0,119.0,68.0,3.0,-41.0,-658.0,-825.0
-17.0,-174.0,-192.0,128.0,64.0,3.0,-43.0,-655.0,-819.0
-14.0,-173.0,-190.0,140.0,57.0,2.0,-40.0,-655.0,-817.0
-15.0,-176.0,-190.0,154.0,54.0,0.0,-37.0,-657.0,-812.0
-14.0,-179.0,-185.0,169.0,49.0,-3.0,-34.0,-666.0,-805.0
-15.0,-177.0,-185.0,183.0,46.0,-8.0,-38.0,-664.0,-797.0
-14.0,-178.0,-184.0,198.0,49.0,-16.0,-46.0,-681.0,-781.0
-15.0,-183.0,-182.0,212.0,54.0,-25.0,-42.0,-686.0,-779.0
-19.0,-182.0,-179.0,225.0,59.0,-35.0,-53.0,-687.0,-769.0
-20.0,-181.0,-177.0,236.0,68.0,-43.0,-53.0,-692.0,-773.0
-20.0,-182.0,-179.0,243.0,74.0,-47.0,-54.0,-690.0,-771.0
-21.0,-184.0,-176.0,245.0,83.0,-52.0,-62.0,-683.0,-763.0
-20.0,-182.0,-179.0,245.0,87.0,-53.0,-61.0,-685.0,-770.0
-20.0,-184.0,-180.0,238.0,94.0,-50.0,-61.0,-688.0,-775.0
-21.0,-182.0,-182.0,226.0,95.0,-44.0,-59.0,-684.0,-784.0
-16.0,-184.0,-186.0,208.0,93.0,-39.0,-49.0,-691.0,-785.0
-13.0,-181.0,-183.0,189.0,89.0,-32.0,-35.0,-690.0,-796.0
-13.0,-184.0,-186.0,173.0,88.0,-24.0,-36.0,-689.0,-807.0
-10.0,-184.0,-192.0,160.0,86.0,-17.0,-21.0,-697.0,-817.0
-12.0,-183.0,-189.0,155.0,87.0,-11.0,-14.0,-707.0,-831.0
-5.0,-192.0,-199.0,157.0,87.0,-6.0,-4.0,-720.0,-841.0
-5.0,-193.0,-199.0,167.0,87.0,-3.0,-1.0,-726.0,-852.0
-2.0,-196.0,-198.0,183.0,84.0,0.0,-4.0,-733.0,-840.0
-3.0,-199.0,-194.0,206.0,80.0,3.0,7.0,-749.0,-835.0
-9.0,-202.0,-193.0,231.0,82.0,3.0,-11.0,-760.0,-825.0
-9.0,-205.0,-193.0,257.0,82.0,8.0,-17.0,-773.0,-830.0
-8.0,-204.0,-192.0,284.0,81.0,11.0,-21.0,-784.0,-829.0
-16.0,-204.0,-194.0,307.0,81.0,5.0,-35.0,-787.0,-824.0
-17.0,-202.0,-192.0,327.0,80.0,4.0,-44.0,-769.0,-812.0
-12.0,-199.0,-187.0,341.0,86.0,6.0,-37.0,-754.0,-804.0
-12.0,-195.0,-183.0,355.0,103.0,0.0,-40.0,-748.0,-794.0
-19.0,-195.0,-179.0,365.0,122.0,-3.0,-46.0,-738.0,-781.0
-23.0,-194.0,-179.0,367.0,131.0,2.0,-53.0,-742.0,-776.0
-21.0,-193.0,-181.0,363.0,130.0,3.0,-66.0,-739.0,-780.0
-20.0,-191.0,-182.0,352.0,129.0,0.0,-64.0,-730.0,-784.0
-20.0,-192.0,-188.0,333.0,127.0,-6.0,-69.0,-726.0,-793.0
-29.0,-189.0,-188.0,313.0,130.0,-13.0,-75.0,-728.0,-803.0
-31.0,-192.0,-195.0,294.0,131.0,-18.0,-101.0,-730.0,-816.0
-31.0,-193.0,-192.0,271.0,115.0,-11.0,-101.0,-735.0,-824.0
-37.0,-193.0,-196.0,253.0,97.0,-10.0,-110.0,-744.0,-851.0
-36.0,-198.0,-202.0,238.0,82.0,-8.0,-117.0,-752.0,-860.0
-40.0,-198.0,-209.0,229.0,71.0,-5.0,-114.0,-751.0,-879.0
-34.0,-200.0,-208.0,222.0,65.0,1.0,-112.0,-766.0,-897.0
-29.0,-203.0,-209.0,214.0,62.0,7.0,-102.0,-774.0,-904.0
-29.0,-205.0,-208.0,207.0,59.0,7.0,-90.0,-773.0,-892.0
-26.0,-205.0,-211.0,202.0,59.0,10.0,-84.0,-788.0,-894.0
-26.0,-208.0,-203.0,196.0,58.0,4.0,-76.0,-796.0,-888.0
-26.0,-211.0,-206.0,192.0,57.0,0.0,-72.0,-809.0,-884.0
-20.0,-211.0,-206.0,189.0,56.0,-7.0,-55.0,-822.0,-874.0
-19.0,-212.0,-202.0,197.0,58.0,-13.0,-59.0,-813.0,-855.0
-16.0,-211.0,-201.0,213.0,56.0,-16.0,-35.0,-809.0,-854.0
-13.0,-215.0,-200.0,238.0,57.0,-21.0,-25.0,-814.0,-858.0
-10.0,-212.0,-204.0,260.0,64.0,-23.0,-26.0,-810.0,-857.0
-14.0,-212.0,-203.0,274.0,74.0,-26.0,-24.0,-810.0,-860.0
-11.0,-207.0,-202.0,279.0,79.0,-29.0,-18.0,-793.0,-874.0
-9.0,-204.0,-208.0,280.0,84.0,-29.0,-13.0,-782.0,-881.0
-13.0,-199.0,-211.0,272.0,86.0,-25.0,-13.0,-764.0,-881.0
-8.0,-196.0,-210.0,261.0,84.0,-20.0,-11.0,-747.0,-898.0
-5.0,-190.0,-211.0,244.0,81.0,-17.0,-9.0,-742.0,-905.0
-9.0,-188.0,-211.0,220.0,82.0,-14.0,-13.0,-723.0,-903.0
-11.0,-191.0,-213.0,191.0,78.0,-10.0,-23.0,-724.0,-906.0
-13.0,-192.0,-208.0,159.0,74.0,-8.0,-24.0,-721.0,-906.0
-20.0,-196.0,-207.0,126.0,69.0,-9.0,-35.0,-741.0,-892.0
-13.0,-200.0,-203.0,100.0,64.0,-6.0,-38.0,-753.0,-879.0
-18.0,-201.0,-202.0,88.0,56.0,-6.0,-45.0,-767.0,-866.0
-21.0,-205.0,-197.0,82.0,49.0,-6.0,-53.0,-795.0,-849.0
-20.0,-213.0,-195.0,82.0,45.0,-8.0,-65.0,-801.0,-837.0
-27.0,-216.0,-193.0,91.0,39.0,-9.0,-76.0,-823.0,-826.0
-23.0,-220.0,-191.0,108.0,30.0,-7.0,-74.0,-839.0,-816.0
-29.0,-222.0,-188.0,130.0,22.0,-12.0,-81.0,-846.0,-810.0
-23.0,-220.0,-189.0,157.0,16.0,-15.0,-64.0,-846.0,-807.0
-15.0,-220.0,-188.0,184.0,13.0,-21.0,-50.0,-835.0,-807.0
-21.0,-214.0,-189.0,208.0,21.0,-28.0,-44.0,-821.0,-810.0
-13.0,-211.0,-194.0,219.0,21.0,-32.0,-31.0,-803.0,-819.0
-14.0,-206.0,-192.0,217.0,24.0,-36.0,-20.0,-795.0,-825.0
-11.0,-204.0,-195.0,204.0,26.0,-38.0,-19.0,-784.0,-833.0
-10.0,-202.0,-196.0,185.0,31.0,-44.0,-20.0,-780.0,-836.0
-13.0,-200.0,-200.0,161.0,31.0,-51.0,-26.0,-781.0,-847.0
-8.0,-204.0,-193.0,136.0,29.0,-54.0,-29.0,-782.0,-843.0
-15.0,-207.0,-194.0,111.0,30.0,-57.0,-32.0,-789.0,-838.0
-15.0,-210.0,-195.0,89.0,33.0,-61.0,-39.0,-801.0,-840.0
-19.0,-214.0,-201.0,70.0,34.0,-65.0,-50.0,-824.0,-843.0
-22.0,-217.0,-196.0,54.0,28.0,-72.0,-54.0,-842.0,-851.0
-29.0,-220.0,-200.0,46.0,26.0,-75.0,-82.0,-847.0,-848.0
-39.0,-229.0,-189.0,42.0,26.0,-75.0,-87.0,-850.0,-835.0
-26.0,-226.0,-192.0,39.0,32.0,-75.0,-87.0,-852.0,-828.0
-32.0,-225.0,-197.0,37.0,46.0,-72.0,-100.0,-856.0,-826.0
-29.0,-223.0,-193.0,33.0,55.0,-65.0,-97.0,-859.0,-830.0
-29.0,-225.0,-188.0,29.0,65.0,-57.0,-92.0,-858.0,-819.0
-29.0,-223.0,-187.0,23.0,67.0,-49.0,-91.0,-852.0,-823.0
-28.0,-223.0,-195.0,17.0,66.0,-44.0,-83.0,-846.0,-825.0
-27.0,-221.0,-191.0,6.0,66.0,-43.0,-86.0,-847.0,-822.0
-30.0,-219.0,-198.0,-5.0,62.0,-45.0,-79.0,-839.0,-834.0
-25.0,-218.0,-198.0,-18.0,62.0,-48.0,-82.0,-831.0,-835.0
-24.0,-220.0,-197.0,-32.0,66.0,-50.0,-74.0,-829.0,-838.0
-20.0,-220.0,-194.0,-35.0,74.0,-43.0,-59.0,-833.0,-831.0
-21.0,-221.0,-199.0,-35.0,84.0,-34.0,-61.0,-844.0,-836.0
-16.0,-223.0,-197.0,-35.0,87.0,-18.0,-44.0,-854.0,-834.0
-22.0,-225.0,-192.0,-35.0,90.0,-9.0,-49.0,-859.0,-836.0
-20.0,-223.0,-195.0,-33.0,88.0,5.0,-49.0,-863.0,-830.0
-18.0,-229.0,-194.0,-33.0,81.0,14.0,-47.0,-865.0,-827.0
-16.0,-231.0,-189.0,-31.0,75.0,18.0,-38.0,-870.0,-820.0
-19.0,-230.0,-192.0,-28.0,73.0,20.0,-41.0,-869.0,-811.0
-15.0,-231.0,-188.0,-22.0,70.0,21.0,-40.0,-876.0,-809.0
-16.0,-229.0,-182.0,-13.0,68.0,24.0,-42.0,-871.0,-799.0
-15.0,-232.0,-183.0,0.0,65.0,23.0,-46.0,-870.0,-789.0
-13.0,-229.0,-180.0,18.0,64.0,19.0,-41.0,-867.0,-782.0
-19.0,-229.0,-183.0,38.0,62.0,14.0,-42.0,-862.0,-773.0
-15.0,-226.0,-176.0,64.0,62.0,10.0,-42.0,-854.0,-771.0
-15.0,-226.0,-177.0,87.0,66.0,6.0,-41.0,-847.0,-772.0
-17.0,-218.0,-175.0,108.0,70.0,4.0,-34.0,-842.0,-766.0
-11.0,-219.0,-175.0,126.0,72.0,-2.0,-33.0,-832.0,-764.0
-14.0,-216.0,-178.0,142.0,73.0,-8.0,-28.0,-819.0,-764.0
-11.0,-213.0,-174.0,156.0,74.0,-11.0,-33.0,-809.0,-764.0
-13.0,-210.0,-173.0,169.0,76.0,-15.0,-31.0,-793.0,-769.0
-14.0,-201.0,-177.0,176.0,79.0,-16.0,-31.0,-777.0,-754.0
-15.0,-199.0,-170.0,182.0,83.0,-18.0,-32.0,-774.0,-737.0
-13.0,-200.0,-169.0,187.0,84.0,-20.0,-33.0,-761.0,-736.0
-14.0,-193.0,-166.0,191.0,85.0,-21.0,-30.0,-746.0,-715.0
-16.0,-195.0,-162.0,192.0,87.0,-21.0,-28.0,-745.0,-708.0
-13.0,-195.0,-161.0,196.0,89.0,-19.0,-35.0,-736.0,-699.0
-17.0,-195.0,-159.0,196.0,89.0,-18.0,-35.0,-741.0,-688.0
-16.0,-191.0,-156.0,196.0,87.0,-20.0,-36.0,-731.0,-682.0
-11.0,-191.0,-156.0,197.0,88.0,-20.0,-33.0,-729.0,-667.0
-15.0,-188.0,-149.0,199.0,89.0,-22.0,-32.0,-723.0,-665.0
-17.0,-184.0,-149.0,201.0,91.0,-24.0,-33.0,-709.0,-663.0
-10.0,-183.0,-147.0,202.0,94.0,-27.0,-35.0,-695.0,-654.0
-14.0,-180.0,-151.0,202.0,96.0,-29.0,-38.0,-687.0,-655.0
-23.0,-177.0,-150.0,193.0,95.0,-30.0,-42.0,-680.0,-657.0
-15.0,-177.0,-150.0,177.0,96.0,-30.0,-44.0,-671.0,-656.0
-18.0,-175.0,-152.0,156.0,94.0,-30.0,-43.0,-665.0,-656.0
-19.0,-174.0,-149.0,135.0,91.0,-30.0,-45.0,-670.0,-652.0
-16.0,-176.0,-151.0,115.0,85.0,-29.0,-45.0,-662.0,-655.0
-19.0,-176.0,-149.0,99.0,79.0,-26.0,-48.0,-667.0,-657.0
-21.0,-177.0,-153.0,87.0,74.0,-22.0,-49.0,-673.0,-657.0
-18.0,-178.0,-153.0,78.0,69.0,-18.0,-49.0,-676.0,-660.0
-18.0,-179.0,-150.0,74.0,63.0,-15.0,-45.0,-681.0,-657.0
-19.0,-181.0,-149.0,74.0,60.0,-11.0,-60.0,-690.0,-650.0
-20.0,-183.0,-149.0,74.0,59.0,-8.0,-54.0,-693.0,-648.0
-21.0,-186.0,-149.0,71.0,59.0,-6.0,-61.0,-703.0,-641.0
-16.0,-186.0,-150.0,67.0,57.0,-2.0,-60.0,-713.0,-650.0
-21.0,-183.0,-145.0,65.0,57.0,-1.0,-67.0,-716.0,-641.0
-23.0,-184.0,-150.0,63.0,54.0,2.0,-69.0,-712.0,-642.0
-24.0,-186.0,-144.0,62.0,54.0,5.0,-72.0,-706.0,-639.0
-22.0,-184.0,-147.0,60.0,49.0,10.0,-63.0,-704.0,-635.0
-22.0,-186.0,-147.0,52.0,47.0,14.0,-63.0,-706.0,-638.0
-22.0,-185.0,-150.0,44.0,43.0,17.0,-59.0,-707.0,-644.0
-18.0,-185.0,-154.0,32.0,40.0,17.0,-57.0,-708.0,-666.0
-16.0,-187.0,-156.0,19.0,39.0,17.0,-54.0,-712.0,-674.0
-19.0,-188.0,-158.0,5.0,36.0,16.0,-54.0,-715.0,-690.0
-21.0,-187.0,-158.0,-6.0,32.0,12.0,-59.0,-721.0,-703.0
-26.0,-186.0,-162.0,-17.0,27.0,10.0,-65.0,-719.0,-703.0
-23.0,-192.0,-164.0,-24.0,20.0,7.0,-69.0,-730.0,-708.0
-22.0,-194.0,-164.0,-31.0,15.0,5.0,-70.0,-734.0,-709.0
-25.0,-195.0,-162.0,-35.0,13.0,7.0,-71.0,-743.0,-710.0
-23.0,-199.0,-165.0,-36.0,11.0,7.0,-70.0,-755.0,-714.0
-25.0,-199.0,-161.0,-36.0,14.0,6.0,-79.0,-763.0,-712.0
-23.0,-200.0,-166.0,-34.0,16.0,7.0,-72.0,-766.0,-716.0
-28.0,-204.0,-164.0,-29.0,24.0,6.0,-79.0,-773.0,-707.0
-24.0,-201.0,-162.0,-22.0,29.0,7.0,-68.0,-774.0,-711.0
-26.0,-203.0,-166.0,-12.0,34.0,5.0,-72.0,-781.0,-712.0
-25.0,-203.0,-165.0,-2.0,40.0,3.0,-76.0,-783.0,-715.0
-21.0,-207.0,-162.0,8.0,46.0,1.0,-61.0,-787.0,-721.0
-19.0,-206.0,-168.0,19.0,55.0,0.0,-59.0,-791.0,-721.0
-19.0,-208.0,-165.0,26.0,62.0,3.0,-48.0,-795.0,-717.0
-19.0,-206.0,-164.0,31.0,66.0,2.0,-42.0,-790.0,-722.0
-14.0,-207.0,-163.0,38.0,69.0,4.0,-37.0,-796.0,-723.0
-14.0,-206.0,-168.0,40.0,72.0,7.0,-35.0,-795.0,-721.0
-15.0,-205.0,-170.0,42.0,74.0,8.0,-33.0,-794.0,-723.0
-15.0,-206.0,-165.0,42.0,75.0,13.0,-39.0,-796.0,-724.0
-15.0,-206.0,-166.0,41.0,77.0,15.0,-38.0,-795.0,-723.0
-12.0,-204.0,-166.0,40.0,80.0,19.0,-32.0,-796.0,-727.0
-13.0,-207.0,-165.0,43.0,84.0,21.0,-35.0,-799.0,-726.0
-10.0,-211.0,-166.0,51.0,90.0,25.0,-33.0,-806.0,-719.0
-15.0,-211.0,-164.0,60.0,96.0,26.0,-38.0,-804.0,-719.0
-17.0,-210.0,-167.0,69.0,102.0,27.0,-34.0,-803.0,-719.0
-16.0,-208.0,-168.0,77.0,108.0,30.0,-42.0,-802.0,-723.0
-16.0,-212.0,-166.0,84.0,117.0,32.0,-37.0,-802.0,-716.0
-16.0,-210.0,-163.0,88.0,125.0,34.0,-43.0,-803.0,-714.0
-19.0,-208.0,-163.0,91.0,131.0,36.0,-46.0,-799.0,-710.0
-15.0,-211.0,-163.0,93.0,135.0,39.0,-45.0,-797.0,-703.0
-17.0,-207.0,-162.0,95.0,138.0,40.0,-54.0,-795.0,-710.0
-20.0,-208.0,-163.0,95.0,138.0,39.0,-54.0,-788.0,-700.0
-19.0,-207.0,-160.0,94.0,137.0,41.0,-54.0,-789.0,-697.0
-18.0,-206.0,-161.0,93.0,136.0,43.0,-57.0,-787.0,-697.0
-21.0,-206.0,-155.0,90.0,136.0,43.0,-53.0,-790.0,-694.0
-23.0,-205.0,-158.0,85.0,135.0,46.0,-64.0,-793.0,-687.0
-20.0,-206.0,-155.0,79.0,133.0,49.0,-64.0,-801.0,-689.0
-21.0,-208.0,-155.0,76.0,130.0,50.0,-59.0,-805.0,-682.0
-21.0,-210.0,-153.0,72.0,127.0,49.0,-63.0,-804.0,-681.0
-21.0,-208.0,-156.0,68.0,123.0,48.0,-66.0,-798.0,-679.0
-21.0,-210.0,-153.0,64.0,119.0,43.0,-57.0,-798.0,-667.0
-21.0,-208.0,-154.0,58.0,118.0,38.0,-60.0,-795.0,-663.0
-24.0,-193.0,-159.0,50.0,121.0,35.0,-64.0,-794.0,-660.0
-22.0,-203.0,-151.0,39.0,122.0,29.0,-63.0,-787.0,-661.0
-24.0,-203.0,-151.0,26.0,125.0,23.0,-59.0,-780.0,-655.0
-24.0,-201.0,-151.0,10.0,127.0,19.0,-60.0,-779.0,-658.0
-19.0,-199.0,-152.0,-7.0,126.0,16.0,-55.0,-768.0,-659.0
-21.0,-198.0,-151.0,-25.0,129.0,13.0,-55.0,-763.0,-661.0
-20.0,-200.0,-154.0,-41.0,133.0,12.0,-51.0,-759.0,-663.0
-17.0,-197.0,-151.0,-58.0,131.0,12.0,-45.0,-766.0,-667.0
-15.0,-199.0,-152.0,-73.0,128.0,16.0,-46.0,-776.0,-662.0
-17.0,-200.0,-152.0,-84.0,124.0,17.0,-49.0,-777.0,-665.0
-17.0,-206.0,-152.0,-90.0,119.0,21.0,-42.0,-784.0,-672.0
-17.0,-204.0,-154.0,-90.0,114.0,25.0,-46.0,-790.0,-668.0
-14.0,-205.0,-155.0,-89.0,110.0,28.0,-39.0,-790.0,-666.0
-17.0,-205.0,-155.0,-88.0,107.0,32.0,-42.0,-787.0,-675.0
-15.0,-209.0,-157.0,-87.0,105.0,34.0,-42.0,-791.0,-673.0
-14.0,-206.0,-159.0,-83.0,108.0,33.0,-36.0,-796.0,-678.0
-20.0,-210.0,-154.0,-78.0,112.0,35.0,-43.0,-789.0,-674.0
-19.0,-207.0,-156.0,-73.0,111.0,35.0,-48.0,-785.0,-680.0
-17.0,-208.0,-155.0,-65.0,110.0,34.0,-48.0,-787.0,-681.0
-17.0,-207.0,-158.0,-55.0,109.0,35.0,-56.0,-786.0,-689.0
-21.0,-204.0,-151.0,-45.0,107.0,36.0,-60.0,-783.0,-673.0
-24.0,-201.0,-152.0,-36.0,108.0,37.0,-68.0,-778.0,-671.0
-17.0,-206.0,-166.0,-25.0,106.0,40.0,-62.0,-775.0,-679.0
-23.0,-202.0,-152.0,-19.0,103.0,41.0,-66.0,-771.0,-673.0
-23.0,-204.0,-156.0,-13.0,97.0,41.0,-60.0,-775.0,-679.0
-25.0,-201.0,-157.0,-9.0,93.0,40.0,-64.0,-769.0,-681.0
-24.0,-200.0,-156.0,-6.0,89.0,41.0,-65.0,-767.0,-688.0
-21.0,-201.0,-161.0,-6.0,83.0,39.0,-63.0,-766.0,-701.0
-19.0,-201.0,-162.0,-6.0,81.0,38.0,-64.0,-770.0,-705.0
-18.0,-199.0,-165.0,-2.0,80.0,38.0,-62.0,-779.0,-710.0
-18.0,-199.0,-164.0,-2.0,81.0,40.0,-62.0,-766.0,-711.0
-22.0,-204.0,-168.0,-2.0,82.0,37.0,-55.0,-766.0,-716.0
-21.0,-201.0,-162.0,-1.0,80.0,36.0,-61.0,-767.0,-718.0
-23.0,-199.0,-167.0,1.0,78.0,32.0,-67.0,-766.0,-718.0
-25.0,-200.0,-165.0,2.0,75.0,29.0,-68.0,-770.0,-722.0
-19.0,-208.0,-162.0,5.0,72.0,29.0,-69.0,-779.0,-714.0
-23.0,-204.0,-161.0,9.0,73.0,26.0,-69.0,-768.0,-715.0
-25.0,-201.0,-168.0,16.0,72.0,24.0,-69.0,-775.0,-707.0
-23.0,-203.0,-161.0,23.0,72.0,20.0,-70.0,-771.0,-706.0
-24.0,-202.0,-164.0,32.0,72.0,20.0,-69.0,-770.0,-706.0
-23.0,-203.0,-166.0,40.0,70.0,16.0,-68.0,-763.0,-705.0
-24.0,-201.0,-163.0,46.0,67.0,15.0,-70.0,-765.0,-706.0
-21.0,-199.0,-162.0,53.0,68.0,13.0,-70.0,-761.0,-709.0
-21.0,-198.0,-164.0,58.0,66.0,10.0,-61.0,-754.0,-705.0
-12.0,-198.0,-175.0,63.0,65.0,8.0,-64.0,-759.0,-705.0
-17.0,-201.0,-163.0,65.0,67.0,6.0,-61.0,-754.0,-704.0
-20.0,-199.0,-159.0,63.0,67.0,3.0,-63.0,-753.0,-703.0
-22.0,-197.0,-157.0,59.0,68.0,3.0,-63.0,-751.0,-698.0
-20.0,-197.0,-161.0,55.0,68.0,3.0,-59.0,-751.0,-692.0
-19.0,-197.0,-159.0,49.0,70.0,0.0,-55.0,-752.0,-692.0
-20.0,-198.0,-154.0,42.0,75.0,1.0,-60.0,-751.0,-688.0
-20.0,-200.0,-156.0,35.0,78.0,-2.0,-54.0,-756.0,-682.0
-17.0,-200.0,-159.0,28.0,82.0,0.0,-48.0,-766.0,-683.0
-16.0,-199.0,-157.0,22.0,89.0,-1.0,-42.0,-758.0,-674.0
-20.0,-198.0,-162.0,17.0,94.0,-2.0,-47.0,-769.0,-680.0
-14.0,-200.0,-160.0,13.0,95.0,0.0,-46.0,-771.0,-682.0
-18.0,-200.0,-155.0,9.0,99.0,0.0,-45.0,-768.0,-684.0
-18.0,-201.0,-157.0,4.0,99.0,0.0,-44.0,-768.0,-685.0
-21.0,-200.0,-156.0,-1.0,99.0,1.0,-47.0,-768.0,-688.0
-19.0,-200.0,-158.0,-9.0,97.0,0.0,-53.0,-763.0,-684.0
-22.0,-199.0,-156.0,-15.0,96.0,2.0,-55.0,-767.0,-691.0
-24.0,-199.0,-156.0,-24.0,96.0,5.0,-61.0,-762.0,-688.0
-25.0,-199.0,-160.0,-32.0,91.0,4.0,-62.0,-759.0,-688.0
-23.0,-200.0,-161.0,-37.0,86.0,4.0,-66.0,-763.0,-695.0
-24.0,-200.0,-159.0,-39.0,82.0,3.0,-69.0,-763.0,-691.0
-23.0,-197.0,-160.0,-41.0,76.0,4.0,-71.0,-767.0,-691.0
-26.0,-206.0,-158.0,-42.0,75.0,4.0,-68.0,-773.0,-691.0
-23.0,-201.0,-154.0,-41.0,73.0,3.0,-69.0,-762.0,-694.0
-23.0,-200.0,-159.0,-39.0,72.0,0.0,-67.0,-774.0,-691.0
-20.0,-202.0,-157.0,-36.0,70.0,-1.0,-64.0,-768.0,-688.0
-21.0,-202.0,-158.0,-34.0,69.0,-2.0,-64.0,-776.0,-689.0
-19.0,-202.0,-157.0,-33.0,67.0,-5.0,-55.0,-774.0,-689.0
-22.0,-201.0,-158.0,-31.0,66.0,-6.0,-56.0,-778.0,-690.0
-20.0,-202.0,-159.0,-29.0,67.0,-8.0,-51.0,-780.0,-694.0
-17.0,-202.0,-156.0,-30.0,67.0,-10.0,-55.0,-773.0,-698.0
-22.0,-201.0,-156.0,-31.0,67.0,-8.0,-60.0,-779.0,-695.0
-21.0,-202.0,-159.0,-31.0,66.0,-10.0,-58.0,-774.0,-693.0
-22.0,-202.0,-161.0,-31.0,64.0,-9.0,-64.0,-779.0,-694.0
-22.0,-201.0,-159.0,-33.0,65.0,-9.0,-60.0,-770.0,-696.0
-18.0,-204.0,-156.0,-34.0,66.0,-9.0,-67.0,-765.0,-696.0
-19.0,-203.0,-162.0,-35.0,63.0,-11.0,-55.0,-765.0,-693.0
-22.0,-198.0,-160.0,-36.0,62.0,-10.0,-66.0,-763.0,-695.0
-23.0,-200.0,-160.0,-37.0,60.0,-11.0,-61.0,-767.0,-695.0
-25.0,-199.0,-160.0,-37.0,58.0,-10.0,-70.0,-762.0,-696.0
-18.0,-202.0,-159.0,-39.0,55.0,-8.0,-63.0,-759.0,-693.0
-22.0,-198.0,-159.0,-39.0,53.0,-9.0,-65.0,-757.0,-694.0
-20.0,-200.0,-158.0,-41.0,53.0,-9.0,-61.0,-770.0,-687.0
-19.0,-204.0,-155.0,-41.0,52.0,-12.0,-59.0,-776.0,-689.0
-19.0,-203.0,-154.0,-41.0,55.0,-15.0,-49.0,-771.0,-684.0
-19.0,-204.0,-155.0,-39.0,58.0,-17.0,-46.0,-770.0,-681.0
-17.0,-204.0,-156.0,-32.0,60.0,-20.0,-47.0,-779.0,-678.0
-17.0,-204.0,-157.0,-25.0,64.0,-22.0,-45.0,-785.0,-676.0
-18.0,-204.0,-159.0,-18.0,66.0,-26.0,-51.0,-783.0,-680.0
-20.0,-202.0,-155.0,-12.0,68.0,-28.0,-47.0,-780.0,-675.0
-19.0,-199.0,-157.0,-8.0,69.0,-29.0,-55.0,-781.0,-679.0
-21.0,-202.0,-152.0,-6.0,68.0,-30.0,-54.0,-774.0,-671.0
-20.0,-204.0,-156.0,-5.0,67.0,-31.0,-63.0,-775.0,-680.0
-22.0,-203.0,-157.0,-2.0,66.0,-30.0,-61.0,-783.0,-684.0
-19.0,-203.0,-159.0,1.0,68.0,-31.0,-52.0,-775.0,-677.0
-19.0,-205.0,-152.0,5.0,71.0,-32.0,-56.0,-781.0,-680.0
-17.0,-205.0,-156.0,10.0,71.0,-34.0,-50.0,-782.0,-678.0
-19.0,-204.0,-152.0,15.0,70.0,-36.0,-47.0,-783.0,-682.0
-17.0,-201.0,-156.0,18.0,71.0,-35.0,-45.0,-781.0,-674.0
-18.0,-201.0,-157.0,20.0,69.0,-35.0,-44.0,-774.0,-681.0
-17.0,-203.0,-158.0,20.0,66.0,-35.0,-39.0,-778.0,-683.0
-18.0,-202.0,-156.0,20.0,63.0,-35.0,-39.0,-773.0,-682.0
-16.0,-201.0,-156.0,18.0,62.0,-35.0,-35.0,-767.0,-687.0
-17.0,-204.0,-158.0,16.0,60.0,-35.0,-39.0,-773.0,-688.0
-16.0,-198.0,-161.0,14.0,59.0,-34.0,-42.0,-774.0,-690.0
-17.0,-197.0,-155.0,9.0,60.0,-34.0,-38.0,-770.0,-691.0
-13.0,-203.0,-158.0,5.0,60.0,-31.0,-41.0,-766.0,-692.0
-13.0,-203.0,-161.0,4.0,60.0,-29.0,-44.0,-774.0,-693.0
-19.0,-202.0,-161.0,4.0,61.0,-25.0,-37.0,-773.0,-692.0
-17.0,-202.0,-158.0,5.0,62.0,-22.0,-40.0,-779.0,-692.0
-17.0,-199.0,-159.0,8.0,64.0,-19.0,-32.0,-775.0,-687.0
-15.0,-203.0,-157.0,13.0,65.0,-15.0,-35.0,-782.0,-689.0
-13.0,-204.0,-160.0,17.0,66.0,-12.0,-35.0,-788.0,-683.0
-17.0,-204.0,-152.0,21.0,68.0,-10.0,-33.0,-796.0,-685.0
-18.0,-204.0,-157.0,24.0,68.0,-7.0,-33.0,-790.0,-684.0
-14.0,-207.0,-154.0,29.0,69.0,-7.0,-33.0,-794.0,-690.0
-16.0,-206.0,-161.0,33.0,70.0,-6.0,-33.0,-792.0,-688.0
-17.0,-209.0,-160.0,41.0,70.0,-4.0,-36.0,-799.0,-693.0
-16.0,-210.0,-162.0,50.0,70.0,-3.0,-41.0,-800.0,-696.0
-17.0,-212.0,-160.0,61.0,69.0,-4.0,-42.0,-802.0,-700.0
-18.0,-211.0,-160.0,72.0,66.0,-5.0,-48.0,-798.0,-698.0
-18.0,-211.0,-158.0,81.0,65.0,-4.0,-50.0,-795.0,-701.0
-21.0,-206.0,-160.0,89.0,64.0,-5.0,-52.0,-800.0,-699.0
-19.0,-210.0,-159.0,94.0,64.0,-6.0,-57.0,-795.0,-699.0
-21.0,-203.0,-158.0,95.0,63.0,-6.0,-53.0,-787.0,-698.0
-19.0,-207.0,-158.0,94.0,63.0,-7.0,-50.0,-790.0,-693.0
-20.0,-203.0,-160.0,89.0,63.0,-7.0,-55.0,-788.0,-691.0
-19.0,-206.0,-150.0,84.0,62.0,-9.0,-48.0,-786.0,-692.0
-19.0,-202.0,-158.0,76.0,62.0,-10.0,-46.0,-782.0,-689.0
-18.0,-202.0,-160.0,67.0,62.0,-10.0,-47.0,-779.0,-688.0
-18.0,-204.0,-159.0,59.0,62.0,-12.0,-42.0,-782.0,-691.0
-15.0,-205.0,-159.0,53.0,64.0,-10.0,-43.0,-781.0,-689.0
-17.0,-206.0,-160.0,50.0,65.0,-11.0,-47.0,-785.0,-687.0
-21.0,-205.0,-154.0,51.0,65.0,-11.0,-43.0,-782.0,-686.0
-14.0,-204.0,-157.0,57.0,63.0,-10.0,-45.0,-789.0,-690.0
-13.0,-209.0,-157.0,66.0,65.0,-10.0,-37.0,-796.0,-686.0
-15.0,-207.0,-159.0,75.0,67.0,-8.0,-38.0,-792.0,-672.0
-15.0,-207.0,-156.0,81.0,68.0,-8.0,-40.0,-794.0,-681.0
-15.0,-208.0,-154.0,89.0,69.0,-7.0,-37.0,-800.0,-676.0
-15.0,-205.0,-157.0,93.0,69.0,-6.0,-32.0,-795.0,-680.0
-12.0,-209.0,-157.0,97.0,71.0,-7.0,-35.0,-798.0,-675.0
-12.0,-210.0,-153.0,98.0,71.0,-7.0,-35.0,-799.0,-677.0
-11.0,-209.0,-152.0,97.0,71.0,-5.0,-31.0,-795.0,-681.0
-14.0,-206.0,-158.0,96.0,71.0,-5.0,-31.0,-797.0,-683.0
-13.0,-206.0,-154.0,95.0,71.0,-4.0,-32.0,-791.0,-682.0
-15.0,-207.0,-156.0,93.0,72.0,-4.0,-32.0,-791.0,-681.0
-17.0,-202.0,-157.0,87.0,73.0,-3.0,-39.0,-787.0,-676.0
-16.0,-206.0,-158.0,80.0,74.0,-2.0,-43.0,-789.0,-676.0
-16.0,-204.0,-157.0,72.0,76.0,-1.0,-43.0,-784.0,-673.0
-16.0,-203.0,-155.0,66.0,76.0,-1.0,-42.0,-784.0,-671.0
-17.0,-205.0,-156.0,59.0,77.0,1.0,-44.0,-787.0,-673.0
-17.0,-204.0,-153.0,57.0,78.0,1.0,-43.0,-790.0,-663.0
-19.0,-204.0,-154.0,58.0,80.0,3.0,-49.0,-789.0,-662.0
-19.0,-209.0,-150.0,61.0,82.0,4.0,-52.0,-791.0,-667.0
-19.0,-206.0,-153.0,66.0,83.0,5.0,-46.0,-793.0,-671.0
-16.0,-208.0,-153.0,71.0,86.0,5.0,-44.0,-791.0,-665.0
-19.0,-206.0,-152.0,76.0,87.0,8.0,-48.0,-792.0,-663.0
-15.0,-207.0,-151.0,81.0,88.0,8.0,-46.0,-789.0,-665.0
-17.0,-205.0,-152.0,83.0,88.0,8.0,-46.0,-790.0,-665.0
-18.0,-206.0,-148.0,84.0,88.0,9.0,-44.0,-786.0,-663.0
-16.0,-203.0,-149.0,81.0,89.0,9.0,-46.0,-782.0,-661.0
-17.0,-203.0,-149.0,78.0,90.0,10.0,-49.0,-779.0,-662.0
-16.0,-206.0,-148.0,73.0,89.0,9.0,-43.0,-781.0,-659.0
-17.0,-203.0,-150.0,67.0,88.0,9.0,-46.0,-785.0,-651.0
-16.0,-207.0,-152.0,62.0,88.0,10.0,-41.0,-785.0,-656.0
-16.0,-203.0,-150.0,57.0,87.0,8.0,-42.0,-787.0,-659.0
-18.0,-205.0,-150.0,51.0,85.0,10.0,-47.0,-784.0,-658.0
-18.0,-203.0,-152.0,45.0,86.0,11.0,-42.0,-785.0,-656.0
-19.0,-205.0,-151.0,38.0,87.0,14.0,-49.0,-785.0,-658.0
-17.0,-206.0,-149.0,32.0,89.0,15.0,-46.0,-787.0,-658.0
-18.0,-202.0,-149.0,28.0,90.0,18.0,-45.0,-784.0,-663.0
-17.0,-205.0,-154.0,28.0,91.0,20.0,-48.0,-790.0,-661.0
-18.0,-207.0,-151.0,31.0,93.0,22.0,-46.0,-793.0,-662.0
-19.0,-207.0,-155.0,37.0,94.0,24.0,-48.0,-794.0,-662.0
-18.0,-204.0,-152.0,45.0,93.0,25.0,-43.0,-794.0,-658.0
-18.0,-208.0,-150.0,56.0,94.0,25.0,-50.0,-795.0,-657.0
-15.0,-205.0,-151.0,66.0,94.0,25.0,-43.0,-793.0,-658.0
-21.0,-205.0,-149.0,74.0,93.0,25.0,-45.0,-792.0,-656.0
-17.0,-208.0,-149.0,81.0,91.0,24.0,-43.0,-790.0,-653.0
-18.0,-202.0,-147.0,81.0,90.0,24.0,-44.0,-788.0,-657.0
-16.0,-202.0,-149.0,76.0,90.0,23.0,-49.0,-780.0,-655.0
-20.0,-204.0,-153.0,67.0,92.0,21.0,-44.0,-779.0,-656.0
-16.0,-203.0,-152.0,57.0,93.0,22.0,-45.0,-785.0,-662.0
-17.0,-204.0,-148.0,49.0,92.0,21.0,-49.0,-787.0,-663.0
-19.0,-203.0,-151.0,42.0,90.0,22.0,-53.0,-788.0,-664.0
-20.0,-205.0,-156.0,36.0,89.0,20.0,-48.0,-786.0,-660.0
-19.0,-207.0,-149.0,33.0,91.0,21.0,-54.0,-798.0,-663.0
-19.0,-209.0,-155.0,33.0,91.0,20.0,-55.0,-797.0,-661.0
-17.0,-209.0,-152.0,36.0,93.0,18.0,-48.0,-804.0,-659.0
-18.0,-211.0,-150.0,41.0,93.0,18.0,-50.0,-801.0,-659.0
-17.0,-211.0,-149.0,46.0,93.0,18.0,-49.0,-802.0,-657.0
-18.0,-211.0,-152.0,50.0,90.0,16.0,-46.0,-802.0,-658.0
-18.0,-211.0,-150.0,51.0,87.0,15.0,-48.0,-802.0,-654.0
-16.0,-212.0,-149.0,52.0,86.0,15.0,-50.0,-809.0,-656.0
-19.0,-210.0,-151.0,54.0,85.0,16.0,-47.0,-804.0,-648.0
-20.0,-211.0,-153.0,54.0,81.0,15.0,-48.0,-806.0,-656.0
-18.0,-208.0,-149.0,53.0,82.0,16.0,-47.0,-802.0,-658.0
-16.0,-212.0,-153.0,54.0,79.0,15.0,-49.0,-796.0,-655.0
-16.0,-212.0,-149.0,55.0,78.0,14.0,-49.0,-804.0,-656.0
-16.0,-211.0,-154.0,55.0,74.0,14.0,-44.0,-802.0,-655.0
-15.0,-210.0,-150.0,57.0,74.0,13.0,-45.0,-807.0,-658.0
-17.0,-210.0,-147.0,61.0,73.0,12.0,-46.0,-802.0,-654.0
-16.0,-211.0,-149.0,65.0,72.0,12.0,-41.0,-804.0,-655.0
-18.0,-212.0,-149.0,69.0,71.0,9.0,-43.0,-811.0,-653.0
-18.0,-213.0,-149.0,71.0,71.0,8.0,-38.0,-808.0,-656.0
-17.0,-210.0,-151.0,69.0,71.0,8.0,-46.0,-807.0,-658.0
-17.0,-212.0,-148.0,62.0,73.0,7.0,-47.0,-808.0,-655.0
-17.0,-209.0,-150.0,52.0,76.0,5.0,-46.0,-804.0,-658.0
-18.0,-209.0,-154.0,41.0,81.0,6.0,-53.0,-802.0,-656.0
-20.0,-208.0,-153.0,28.0,84.0,8.0,-55.0,-808.0,-656.0
-17.0,-211.0,-154.0,22.0,87.0,7.0,-44.0,-813.0,-655.0
-20.0,-212.0,-150.0,16.0,89.0,5.0,-50.0,-816.0,-658.0
-16.0,-214.0,-148.0,13.0,91.0,5.0,-45.0,-809.0,-652.0
-16.0,-214.0,-149.0,17.0,89.0,4.0,-48.0,-814.0,-655.0
-20.0,-213.0,-149.0,23.0,91.0,2.0,-42.0,-812.0,-650.0
-17.0,-214.0,-150.0,31.0,92.0,1.0,-41.0,-815.0,-652.0
-20.0,-211.0,-150.0,34.0,93.0,-2.0,-35.0,-816.0,-647.0
-18.0,-212.0,-150.0,37.0,93.0,-4.0,-40.0,-814.0,-652.0
-18.0,-210.0,-149.0,36.0,94.0,-5.0,-39.0,-814.0,-650.0
-18.0,-214.0,-150.0,32.0,94.0,-8.0,-54.0,-812.0,-651.0
-22.0,-209.0,-147.0,28.0,92.0,-7.0,-60.0,-806.0,-648.0
-23.0,-208.0,-149.0,25.0,85.0,-6.0,-65.0,-809.0,-641.0
-22.0,-209.0,-149.0,25.0,78.0,-5.0,-67.0,-797.0,-635.0
-25.0,-210.0,-147.0,26.0,72.0,-3.0,-69.0,-801.0,-627.0
-24.0,-211.0,-145.0,30.0,64.0,-1.0,-65.0,-795.0,-634.0
-22.0,-206.0,-144.0,33.0,59.0,1.0,-60.0,-798.0,-628.0
-20.0,-209.0,-145.0,37.0,56.0,1.0,-57.0,-800.0,-623.0
-20.0,-209.0,-147.0,40.0,55.0,3.0,-63.0,-794.0,-627.0
-20.0,-211.0,-143.0,41.0,57.0,4.0,-58.0,-799.0,-625.0
-22.0,-208.0,-143.0,42.0,57.0,6.0,-50.0,-805.0,-632.0
-18.0,-208.0,-145.0,41.0,57.0,5.0,-49.0,-805.0,-632.0
-20.0,-214.0,-148.0,38.0,58.0,5.0,-42.0,-809.0,-634.0
-21.0,-209.0,-142.0,36.0,58.0,3.0,-57.0,-812.0,-643.0
-19.0,-212.0,-148.0,34.0,60.0,2.0,-50.0,-817.0,-632.0
-17.0,-215.0,-147.0,35.0,59.0,1.0,-47.0,-813.0,-633.0
-19.0,-212.0,-148.0,40.0,57.0,2.0,-49.0,-818.0,-640.0
-22.0,-207.0,-147.0,45.0,56.0,1.0,-54.0,-814.0,-642.0
-23.0,-212.0,-149.0,50.0,55.0,-1.0,-55.0,-819.0,-645.0
-19.0,-212.0,-150.0,56.0,52.0,-2.0,-53.0,-811.0,-643.0
-19.0,-210.0,-148.0,62.0,52.0,-4.0,-51.0,-813.0,-644.0
-21.0,-208.0,-148.0,66.0,51.0,-5.0,-51.0,-809.0,-642.0
-20.0,-211.0,-146.0,66.0,50.0,-5.0,-55.0,-804.0,-638.0
-19.0,-209.0,-149.0,67.0,49.0,-5.0,-55.0,-804.0,-637.0
-20.0,-210.0,-143.0,63.0,48.0,-6.0,-55.0,-804.0,-634.0
-23.0,-212.0,-143.0,61.0,47.0,-8.0,-50.0,-806.0,-636.0
-21.0,-209.0,-146.0,58.0,47.0,-9.0,-49.0,-803.0,-631.0
-17.0,-207.0,-141.0,54.0,47.0,-10.0,-52.0,-801.0,-628.0
-18.0,-210.0,-145.0,53.0,48.0,-12.0,-50.0,-803.0,-628.0
-18.0,-211.0,-144.0,50.0,50.0,-14.0,-47.0,-801.0,-624.0
-16.0,-212.0,-144.0,48.0,49.0,-15.0,-57.0,-808.0,-628.0
-19.0,-211.0,-145.0,47.0,50.0,-16.0,-36.0,-806.0,-628.0
-16.0,-214.0,-142.0,47.0,50.0,-18.0,-48.0,-813.0,-632.0
-16.0,-214.0,-147.0,48.0,48.0,-19.0,-47.0,-815.0,-631.0
-20.0,-212.0,-148.0,51.0,48.0,-21.0,-45.0,-812.0,-633.0
-20.0,-213.0,-148.0,51.0,49.0,-21.0,-42.0,-812.0,-636.0
-16.0,-215.0,-148.0,52.0,50.0,-23.0,-51.0,-811.0,-636.0
-22.0,-211.0,-145.0,51.0,51.0,-24.0,-50.0,-811.0,-642.0
-19.0,-212.0,-148.0,48.0,53.0,-25.0,-49.0,-814.0,-644.0
-16.0,-211.0,-143.0,45.0,54.0,-24.0,-50.0,-814.0,-643.0
-20.0,-211.0,-147.0,43.0,55.0,-22.0,-57.0,-816.0,-646.0
-17.0,-215.0,-148.0,44.0,55.0,-21.0,-59.0,-815.0,-640.0
-21.0,-213.0,-148.0,45.0,56.0,-18.0,-59.0,-812.0,-642.0
-21.0,-213.0,-149.0,44.0,55.0,-18.0,-48.0,-814.0,-648.0
-16.0,-214.0,-148.0,44.0,55.0,-17.0,-60.0,-812.0,-642.0
-19.0,-212.0,-148.0,43.0,56.0,-17.0,-52.0,-813.0,-648.0
-19.0,-212.0,-150.0,40.0,56.0,-15.0,-52.0,-809.0,-644.0
-21.0,-211.0,-152.0,36.0,58.0,-15.0,-47.0,-814.0,-647.0
-16.0,-209.0,-148.0,29.0,60.0,-15.0,-54.0,-808.0,-650.0
-20.0,-212.0,-148.0,21.0,63.0,-16.0,-46.0,-807.0,-648.0
-20.0,-207.0,-150.0,9.0,66.0,-17.0,-53.0,-805.0,-659.0
-19.0,-208.0,-152.0,-5.0,66.0,-15.0,-47.0,-804.0,-657.0
-20.0,-210.0,-156.0,-24.0,65.0,-17.0,-49.0,-800.0,-654.0
-18.0,-209.0,-148.0,-45.0,64.0,-17.0,-57.0,-797.0,-655.0
-21.0,-210.0,-151.0,-64.0,63.0,-17.0,-63.0,-801.0,-658.0
-21.0,-209.0,-149.0,-82.0,63.0,-20.0,-61.0,-799.0,-650.0
-21.0,-207.0,-147.0,-96.0,63.0,-22.0,-63.0,-799.0,-651.0
-25.0,-207.0,-146.0,-103.0,61.0,-25.0,-65.0,-801.0,-635.0
-24.0,-209.0,-139.0,-106.0,62.0,-27.0,-62.0,-805.0,-630.0
-21.0,-208.0,-142.0,-105.0,64.0,-27.0,-63.0,-812.0,-628.0
-25.0,-213.0,-149.0,-99.0,66.0,-29.0,-61.0,-813.0,-619.0
-18.0,-214.0,-142.0,-89.0,69.0,-29.0,-58.0,-818.0,-617.0
-21.0,-215.0,-142.0,-79.0,74.0,-30.0,-59.0,-819.0,-610.0
-20.0,-213.0,-139.0,-68.0,78.0,-32.0,-59.0,-818.0,-617.0
-19.0,-214.0,-142.0,-61.0,82.0,-32.0,-54.0,-818.0,-613.0
-18.0,-215.0,-142.0,-55.0,84.0,-32.0,-46.0,-816.0,-613.0
-19.0,-216.0,-146.0,-52.0,86.0,-32.0,-43.0,-816.0,-615.0
-19.0,-214.0,-144.0,-51.0,89.0,-30.0,-44.0,-824.0,-616.0
-16.0,-214.0,-142.0,-52.0,93.0,-29.0,-45.0,-815.0,-619.0
-14.0,-212.0,-141.0,-53.0,94.0,-28.0,-40.0,-819.0,-617.0
-15.0,-216.0,-144.0,-53.0,96.0,-27.0,-39.0,-821.0,-617.0
-15.0,-215.0,-142.0,-50.0,93.0,-25.0,-40.0,-826.0,-620.0
-15.0,-217.0,-142.0,-49.0,93.0,-23.0,-35.0,-827.0,-625.0
-15.0,-214.0,-147.0,-46.0,93.0,-20.0,-34.0,-821.0,-630.0
-13.0,-215.0,-145.0,-43.0,93.0,-18.0,-29.0,-820.0,-629.0
-12.0,-218.0,-145.0,-41.0,94.0,-16.0,-30.0,-828.0,-625.0
-15.0,-215.0,-146.0,-37.0,95.0,-15.0,-32.0,-823.0,-623.0
-13.0,-215.0,-146.0,-34.0,95.0,-16.0,-30.0,-818.0,-628.0
-10.0,-212.0,-145.0,-31.0,96.0,-14.0,-33.0,-819.0,-624.0
-15.0,-214.0,-145.0,-31.0,96.0,-14.0,-33.0,-816.0,-626.0
-15.0,-214.0,-143.0,-29.0,96.0,-13.0,-33.0,-819.0,-628.0
-17.0,-214.0,-144.0,-26.0,96.0,-12.0,-39.0,-813.0,-629.0
-14.0,-216.0,-149.0,-22.0,95.0,-9.0,-39.0,-808.0,-628.0
-16.0,-213.0,-145.0,-19.0,96.0,-8.0,-35.0,-814.0,-627.0
-17.0,-212.0,-145.0,-14.0,95.0,-5.0,-41.0,-813.0,-625.0
-16.0,-213.0,-146.0,-9.0,95.0,-4.0,-40.0,-810.0,-629.0
-17.0,-213.0,-145.0,-6.0,94.0,-5.0,-43.0,-810.0,-631.0
-19.0,-212.0,-144.0,-4.0,96.0,-3.0,-40.0,-814.0,-628.0
-17.0,-213.0,-144.0,0.0,97.0,-3.0,-45.0,-815.0,-624.0
-17.0,-212.0,-147.0,5.0,96.0,-3.0,-44.0,-812.0,-632.0
-21.0,-210.0,-145.0,8.0,97.0,-3.0,-49.0,-810.0,-631.0
-19.0,-213.0,-144.0,8.0,95.0,-5.0,-49.0,-815.0,-630.0
-21.0,-210.0,-146.0,10.0,95.0,-7.0,-49.0,-806.0,-635.0
-21.0,-214.0,-148.0,9.0,94.0,-7.0,-50.0,-809.0,-633.0
-20.0,-211.0,-146.0,8.0,91.0,-6.0,-58.0,-812.0,-635.0
-20.0,-213.0,-145.0,7.0,88.0,-6.0,-58.0,-808.0,-637.0
-19.0,-212.0,-148.0,4.0,88.0,-7.0,-54.0,-809.0,-638.0
-22.0,-209.0,-147.0,1.0,85.0,-6.0,-49.0,-807.0,-639.0
-19.0,-210.0,-146.0,-2.0,84.0,-8.0,-47.0,-805.0,-640.0
-17.0,-211.0,-145.0,-6.0,83.0,-7.0,-44.0,-803.0,-637.0
-18.0,-211.0,-147.0,-9.0,81.0,-6.0,-47.0,-805.0,-639.0
-16.0,-211.0,-147.0,-11.0,80.0,-8.0,-45.0,-810.0,-636.0
-18.0,-212.0,-145.0,-14.0,78.0,-9.0,-44.0,-812.0,-634.0
-16.0,-211.0,-144.0,-15.0,75.0,-9.0,-45.0,-812.0,-637.0
-22.0,-212.0,-143.0,-13.0,73.0,-8.0,-48.0,-810.0,-638.0
-17.0,-212.0,-145.0,-11.0,72.0,-7.0,-47.0,-810.0,-637.0
-17.0,-212.0,-148.0,-9.0,71.0,-7.0,-42.0,-813.0,-639.0
-18.0,-211.0,-148.0,-7.0,70.0,-5.0,-47.0,-814.0,-638.0
-17.0,-212.0,-147.0,-6.0,70.0,-5.0,-44.0,-816.0,-637.0
-15.0,-212.0,-146.0,-7.0,70.0,-6.0,-46.0,-814.0,-639.0
-17.0,-211.0,-147.0,-5.0,68.0,-7.0,-39.0,-811.0,-643.0
-16.0,-210.0,-146.0,-6.0,68.0,-8.0,-42.0,-809.0,-641.0
-17.0,-211.0,-145.0,-7.0,65.0,-7.0,-44.0,-810.0,-642.0
-19.0,-214.0,-148.0,-8.0,65.0,-7.0,-45.0,-809.0,-643.0
-19.0,-212.0,-148.0,-8.0,64.0,-7.0,-46.0,-805.0,-638.0
-20.0,-214.0,-148.0,-8.0,60.0,-7.0,-45.0,-816.0,-641.0
-19.0,-211.0,-146.0,-7.0,58.0,-7.0,-44.0,-814.0,-641.0
-18.0,-213.0,-146.0,-6.0,56.0,-8.0,-53.0,-809.0,-641.0
-16.0,-212.0,-148.0,-7.0,55.0,-11.0,-46.0,-814.0,-644.0
-16.0,-214.0,-148.0,-8.0,55.0,-10.0,-44.0,-813.0,-641.0
-17.0,-208.0,-149.0,-9.0,53.0,-11.0,-45.0,-808.0,-643.0
-15.0,-213.0,-148.0,-12.0,53.0,-12.0,-37.0,-810.0,-643.0
-15.0,-212.0,-147.0,-14.0,52.0,-12.0,-38.0,-810.0,-644.0
-18.0,-208.0,-148.0,-14.0,52.0,-12.0,-41.0,-809.0,-643.0
-17.0,-212.0,-147.0,-15.0,52.0,-13.0,-33.0,-814.0,-643.0
-13.0,-212.0,-146.0,-15.0,52.0,-14.0,-34.0,-818.0,-648.0
-16.0,-223.0,-148.0,-13.0,53.0,-15.0,-37.0,-817.0,-640.0
-16.0,-211.0,-146.0,-11.0,52.0,-18.0,-36.0,-810.0,-643.0
-15.0,-212.0,-150.0,-12.0,51.0,-16.0,-35.0,-807.0,-641.0
-15.0,-210.0,-144.0,-12.0,52.0,-17.0,-33.0,-812.0,-642.0
-14.0,-211.0,-147.0,-12.0,50.0,-19.0,-39.0,-812.0,-642.0
-15.0,-212.0,-148.0,-13.0,49.0,-19.0,-40.0,-816.0,-637.0
-18.0,-211.0,-148.0,-16.0,47.0,-20.0,-44.0,-808.0,-647.0
-20.0,-211.0,-148.0,-19.0,48.0,-20.0,-45.0,-801.0,-643.0
-18.0,-212.0,-147.0,-22.0,47.0,-20.0,-38.0,-806.0,-643.0
-18.0,-208.0,-146.0,-25.0,48.0,-19.0,-38.0,-808.0,-631.0
-16.0,-212.0,-147.0,-27.0,47.0,-20.0,-43.0,-805.0,-634.0
-15.0,-211.0,-146.0,-30.0,47.0,-20.0,-40.0,-811.0,-641.0
-16.0,-212.0,-147.0,-30.0,48.0,-22.0,-42.0,-808.0,-634.0
-16.0,-210.0,-151.0,-32.0,49.0,-23.0,-42.0,-806.0,-633.0
-15.0,-212.0,-145.0,-34.0,47.0,-23.0,-41.0,-804.0,-639.0
-17.0,-211.0,-147.0,-35.0,46.0,-26.0,-41.0,-803.0,-636.0
-17.0,-211.0,-145.0,-39.0,46.0,-27.0,-42.0,-803.0,-636.0
-15.0,-208.0,-147.0,-42.0,46.0,-28.0,-38.0,-801.0,-634.0
-18.0,-207.0,-148.0,-43.0,47.0,-28.0,-37.0,-804.0,-636.0
-16.0,-212.0,-146.0,-42.0,49.0,-27.0,-36.0,-810.0,-634.0
-15.0,-213.0,-147.0,-42.0,52.0,-27.0,-33.0,-808.0,-632.0
-16.0,-212.0,-147.0,-39.0,52.0,-26.0,-35.0,-807.0,-630.0
-19.0,-219.0,-139.0,-35.0,52.0,-26.0,-41.0,-816.0,-631.0
-16.0,-213.0,-146.0,-34.0,52.0,-24.0,-40.0,-810.0,-632.0
-16.0,-211.0,-145.0,-32.0,51.0,-23.0,-41.0,-812.0,-635.0
-16.0,-212.0,-147.0,-30.0,52.0,-21.0,-38.0,-814.0,-637.0
-17.0,-214.0,-148.0,-30.0,52.0,-19.0,-40.0,-808.0,-636.0
-13.0,-213.0,-148.0,-28.0,53.0,-17.0,-38.0,-808.0,-645.0
-16.0,-212.0,-148.0,-30.0,54.0,-17.0,-42.0,-806.0,-639.0
-16.0,-209.0,-147.0,-35.0,55.0,-15.0,-40.0,-808.0,-646.0
-17.0,-207.0,-147.0,-41.0,57.0,-14.0,-38.0,-800.0,-634.0
-16.0,-208.0,-147.0,-48.0,58.0,-14.0,-34.0,-799.0,-638.0
-15.0,-207.0,-147.0,-58.0,59.0,-14.0,-35.0,-796.0,-638.0
-15.0,-208.0,-146.0,-66.0,59.0,-13.0,-35.0,-798.0,-636.0
-16.0,-207.0,-147.0,-73.0,61.0,-14.0,-40.0,-804.0,-633.0
-15.0,-210.0,-148.0,-77.0,62.0,-15.0,-34.0,-803.0,-633.0
-15.0,-211.0,-148.0,-78.0,63.0,-13.0,-37.0,-806.0,-638.0
-19.0,-212.0,-147.0,-75.0,63.0,-13.0,-34.0,-811.0,-634.0
-15.0,-215.0,-145.0,-71.0,63.0,-9.0,-34.0,-815.0,-634.0
-14.0,-215.0,-146.0,-66.0,62.0,-7.0,-32.0,-828.0,-640.0
-13.0,-217.0,-146.0,-57.0,60.0,-6.0,-35.0,-825.0,-639.0
-15.0,-219.0,-147.0,-46.0,58.0,-4.0,-33.0,-833.0,-645.0
-14.0,-219.0,-149.0,-34.0,55.0,-3.0,-34.0,-833.0,-654.0
-14.0,-211.0,-156.0,-25.0,53.0,-4.0,-36.0,-828.0,-655.0
-16.0,-217.0,-152.0,-20.0,52.0,-4.0,-38.0,-823.0,-662.0
-17.0,-212.0,-152.0,-18.0,51.0,-6.0,-39.0,-818.0,-658.0
-14.0,-214.0,-151.0,-22.0,50.0,-6.0,-38.0,-817.0,-659.0
-12.0,-212.0,-150.0,-28.0,52.0,-6.0,-39.0,-814.0,-659.0
-16.0,-212.0,-152.0,-36.0,53.0,-9.0,-40.0,-816.0,-658.0
-15.0,-211.0,-152.0,-44.0,55.0,-11.0,-35.0,-812.0,-657.0
-15.0,-214.0,-151.0,-53.0,54.0,-10.0,-36.0,-807.0,-653.0
-15.0,-210.0,-149.0,-60.0,53.0,-11.0,-28.0,-810.0,-657.0
-15.0,-214.0,-150.0,-66.0,52.0,-10.0,-32.0,-810.0,-656.0
-16.0,-213.0,-149.0,-69.0,49.0,-12.0,-35.0,-813.0,-651.0
-15.0,-212.0,-147.0,-69.0,47.0,-10.0,-33.0,-815.0,-650.0
-15.0,-213.0,-152.0,-67.0,46.0,-8.0,-32.0,-817.0,-656.0
-15.0,-214.0,-149.0,-65.0,44.0,-11.0,-35.0,-817.0,-655.0
-13.0,-216.0,-151.0,-60.0,41.0,-9.0,-31.0,-828.0,-655.0
-12.0,-215.0,-150.0,-55.0,36.0,-10.0,-33.0,-823.0,-652.0
-14.0,-214.0,-153.0,-50.0,35.0,-12.0,-34.0,-825.0,-659.0
-15.0,-215.0,-153.0,-48.0,31.0,-13.0,-39.0,-820.0,-662.0
-17.0,-211.0,-150.0,-47.0,30.0,-14.0,-35.0,-814.0,-663.0
-17.0,-210.0,-152.0,-47.0,30.0,-14.0,-38.0,-811.0,-661.0
-19.0,-213.0,-150.0,-51.0,30.0,-17.0,-44.0,-805.0,-660.0
-16.0,-210.0,-151.0,-55.0,28.0,-18.0,-47.0,-797.0,-662.0
-18.0,-210.0,-144.0,-60.0,26.0,-19.0,-46.0,-798.0,-662.0
-20.0,-208.0,-150.0,-68.0,22.0,-18.0,-48.0,-789.0,-658.0
-19.0,-204.0,-146.0,-73.0,21.0,-19.0,-55.0,-790.0,-653.0
-18.0,-203.0,-149.0,-80.0,17.0,-18.0,-55.0,-790.0,-655.0
-20.0,-206.0,-151.0,-87.0,15.0,-17.0,-53.0,-785.0,-650.0
-18.0,-206.0,-149.0,-94.0,13.0,-15.0,-50.0,-790.0,-656.0
-19.0,-206.0,-150.0,-100.0,12.0,-14.0,-48.0,-785.0,-646.0
-17.0,-204.0,-151.0,-106.0,13.0,-14.0,-51.0,-779.0,-649.0
-18.0,-204.0,-150.0,-111.0,14.0,-12.0,-38.0,-778.0,-645.0
-13.0,-204.0,-148.0,-113.0,17.0,-14.0,-40.0,-785.0,-654.0
-17.0,-203.0,-148.0,-117.0,21.0,-13.0,-37.0,-783.0,-648.0
-17.0,-201.0,-148.0,-120.0,23.0,-17.0,-35.0,-783.0,-641.0
-13.0,-204.0,-147.0,-121.0,25.0,-16.0,-37.0,-783.0,-637.0
-12.0,-204.0,-145.0,-121.0,28.0,-20.0,-31.0,-785.0,-642.0
-13.0,-205.0,-147.0,-121.0,30.0,-23.0,-34.0,-776.0,-633.0
-13.0,-205.0,-145.0,-120.0,30.0,-23.0,-34.0,-777.0,-632.0
-15.0,-204.0,-146.0,-117.0,31.0,-25.0,-36.0,-787.0,-633.0
-17.0,-205.0,-143.0,-113.0,30.0,-25.0,-39.0,-782.0,-630.0
-16.0,-207.0,-144.0,-108.0,27.0,-26.0,-41.0,-786.0,-631.0
-18.0,-204.0,-144.0,-102.0,23.0,-25.0,-43.0,-781.0,-623.0
-18.0,-207.0,-144.0,-96.0,21.0,-22.0,-43.0,-787.0,-628.0
-18.0,-207.0,-146.0,-88.0,16.0,-21.0,-45.0,-790.0,-628.0
-18.0,-198.0,-141.0,-80.0,13.0,-19.0,-49.0,-794.0,-625.0
-18.0,-209.0,-146.0,-75.0,11.0,-16.0,-48.0,-798.0,-626.0
-16.0,-210.0,-145.0,-69.0,11.0,-15.0,-43.0,-797.0,-627.0
-18.0,-209.0,-149.0,-62.0,9.0,-13.0,-44.0,-798.0,-631.0
-21.0,-209.0,-145.0,-60.0,13.0,-10.0,-46.0,-802.0,-626.0
-16.0,-210.0,-143.0,-62.0,17.0,-7.0,-45.0,-808.0,-619.0
-18.0,-210.0,-144.0,-67.0,26.0,-3.0,-40.0,-812.0,-612.0
-19.0,-218.0,-144.0,-73.0,36.0,4.0,-49.0,-824.0,-609.0
-19.0,-215.0,-137.0,-83.0,45.0,14.0,-50.0,-836.0,-598.0
-19.0,-220.0,-137.0,-96.0,59.0,28.0,-40.0,-847.0,-598.0
-14.0,-222.0,-136.0,-112.0,73.0,48.0,-34.0,-850.0,-592.0
-7.0,-224.0,-140.0,-129.0,88.0,70.0,-16.0,-853.0,-595.0
-4.0,-227.0,-139.0,-137.0,97.0,94.0,-2.0,-859.0,-595.0
-1.0,-230.0,-146.0,-136.0,96.0,119.0,20.0,-869.0,-615.0
2.0,-232.0,-152.0,-132.0,82.0,140.0,38.0,-882.0,-655.0
6.0,-238.0,-168.0,-134.0,57.0,159.0,53.0,-900.0,-706.0
8.0,-242.0,-181.0,-147.0,28.0,166.0,66.0,-917.0,-767.0
7.0,-248.0,-193.0,-176.0,-1.0,169.0,70.0,-937.0,-832.0
4.0,-253.0,-204.0,-217.0,-30.0,166.0,43.0,-967.0,-891.0
0.0,-254.0,-218.0,-268.0,-48.0,159.0,17.0,-980.0,-939.0
-11.0,-255.0,-226.0,-320.0,-53.0,155.0,-17.0,-973.0,-971.0
-17.0,-253.0,-237.0,-372.0,-48.0,145.0,-55.0,-972.0,-999.0
-28.0,-254.0,-233.0,-423.0,-35.0,141.0,-88.0,-969.0,-1020.0
-37.0,-252.0,-241.0,-469.0,-14.0,134.0,-114.0,-961.0,-1015.0
-41.0,-251.0,-236.0,-507.0,5.0,128.0,-133.0,-960.0,-1016.0
-45.0,-250.0,-231.0,-537.0,20.0,116.0,-147.0,-960.0,-1002.0
-49.0,-254.0,-227.0,-555.0,27.0,99.0,-163.0,-962.0,-982.0
-52.0,-255.0,-219.0,-559.0,21.0,79.0,-183.0,-971.0,-958.0
-57.0,-254.0,-220.0,-551.0,7.0,58.0,-190.0,-972.0,-938.0
-56.0,-260.0,-217.0,-532.0,-8.0,36.0,-198.0,-982.0,-932.0
-55.0,-260.0,-216.0,-511.0,-15.0,18.0,-194.0,-994.0,-939.0
-55.0,-262.0,-219.0,-490.0,-13.0,-2.0,-187.0,-1000.0,-956.0
-50.0,-262.0,-224.0,-476.0,-6.0,-22.0,-168.0,-1007.0,-973.0
-45.0,-259.0,-234.0,-471.0,8.0,-42.0,-152.0,-1012.0,-1006.0
-38.0,-260.0,-243.0,-472.0,28.0,-63.0,-126.0,-996.0,-1045.0
-30.0,-255.0,-255.0,-482.0,50.0,-79.0,-100.0,-978.0,-1079.0
-28.0,-250.0,-260.0,-498.0,74.0,-94.0,-89.0,-965.0,-1100.0
-23.0,-252.0,-257.0,-518.0,94.0,-104.0,-71.0,-955.0,-1100.0
-22.0,-250.0,-254.0,-537.0,108.0,-112.0,-63.0,-961.0,-1092.0
-23.0,-252.0,-251.0,-555.0,115.0,-121.0,-60.0,-962.0,-1070.0
-24.0,-251.0,-247.0,-569.0,112.0,-132.0,-70.0,-954.0,-1055.0
-24.0,-251.0,-242.0,-576.0,106.0,-139.0,-69.0,-955.0,-1040.0
-26.0,-250.0,-242.0,-574.0,98.0,-143.0,-77.0,-943.0,-1024.0
-22.0,-248.0,-232.0,-567.0,92.0,-145.0,-80.0,-936.0,-1007.0
-24.0,-246.0,-233.0,-555.0,91.0,-142.0,-72.0,-928.0,-1001.0
-27.0,-244.0,-231.0,-545.0,90.0,-139.0,-78.0,-926.0,-990.0
-24.0,-243.0,-227.0,-536.0,89.0,-135.0,-72.0,-919.0,-983.0
-23.0,-239.0,-229.0,-533.0,90.0,-130.0,-69.0,-913.0,-976.0
-23.0,-237.0,-229.0,-533.0,91.0,-123.0,-70.0,-901.0,-969.0
-22.0,-232.0,-222.0,-532.0,92.0,-118.0,-70.0,-885.0,-969.0
-21.0,-227.0,-222.0,-533.0,89.0,-112.0,-70.0,-867.0,-969.0
-22.0,-223.0,-225.0,-534.0,88.0,-110.0,-70.0,-850.0,-962.0
-28.0,-221.0,-220.0,-537.0,99.0,-106.0,-87.0,-841.0,-954.0
-29.0,-219.0,-219.0,-542.0,103.0,-98.0,-86.0,-830.0,-944.0
-31.0,-209.0,-219.0,-555.0,110.0,-92.0,-93.0,-815.0,-937.0
-33.0,-208.0,-214.0,-577.0,117.0,-86.0,-104.0,-806.0,-924.0
-32.0,-206.0,-211.0,-608.0,122.0,-78.0,-92.0,-799.0,-913.0
-31.0,-204.0,-208.0,-643.0,129.0,-72.0,-104.0,-793.0,-899.0
-26.0,-203.0,-209.0,-677.0,122.0,-64.0,-82.0,-782.0,-888.0
-26.0,-201.0,-204.0,-706.0,124.0,-62.0,-84.0,-761.0,-880.0
-25.0,-197.0,-203.0,-731.0,132.0,-53.0,-80.0,-745.0,-863.0
-28.0,-188.0,-198.0,-755.0,135.0,-44.0,-81.0,-724.0,-857.0
-19.0,-184.0,-204.0,-777.0,137.0,-34.0,-53.0,-721.0,-865.0
-14.0,-187.0,-201.0,-806.0,162.0,-28.0,-52.0,-703.0,-858.0
-13.0,-185.0,-198.0,-843.0,198.0,-14.0,-36.0,-698.0,-853.0
-1.0,-184.0,-192.0,-893.0,242.0,5.0,-8.0,-706.0,-844.0
0.0,-184.0,-198.0,-947.0,292.0,17.0,4.0,-697.0,-833.0
0.0,-184.0,-193.0,-1002.0,338.0,19.0,21.0,-703.0,-831.0
-1.0,-187.0,-195.0,-1044.0,371.0,14.0,19.0,-709.0,-824.0
-1.0,-187.0,-188.0,-1067.0,390.0,3.0,14.0,-707.0,-817.0
-5.0,-186.0,-188.0,-1064.0,390.0,-11.0,2.0,-710.0,-804.0
-6.0,-185.0,-177.0,-1035.0,381.0,-18.0,1.0,-706.0,-779.0
-9.0,-189.0,-170.0,-980.0,375.0,-24.0,-7.0,-703.0,-743.0
-7.0,-185.0,-167.0,-904.0,374.0,-23.0,-6.0,-692.0,-730.0
-8.0,-184.0,-161.0,-815.0,378.0,-18.0,-7.0,-687.0,-709.0
-5.0,-181.0,-159.0,-717.0,380.0,-12.0,-8.0,-672.0,-697.0
-23.0,-180.0,-154.0,-616.0,375.0,-9.0,-30.0,-667.0,-683.0
-11.0,-175.0,-159.0,-516.0,358.0,-2.0,-21.0,-648.0,-694.0
-13.0,-168.0,-161.0,-425.0,338.0,-1.0,-21.0,-631.0,-703.0
-14.0,-165.0,-163.0,-352.0,319.0,0.0,-33.0,-614.0,-710.0
-11.0,-162.0,-168.0,-299.0,291.0,-3.0,-35.0,-603.0,-720.0
-19.0,-160.0,-163.0,-258.0,266.0,-6.0,-52.0,-598.0,-714.0
-16.0,-160.0,-165.0,-232.0,237.0,-7.0,-46.0,-602.0,-724.0
-19.0,-161.0,-166.0,-216.0,224.0,-9.0,-63.0,-594.0,-727.0
-21.0,-158.0,-172.0,-207.0,217.0,-9.0,-59.0,-594.0,-733.0
-21.0,-157.0,-171.0,-211.0,213.0,-4.0,-53.0,-597.0,-734.0
-19.0,-158.0,-172.0,-223.0,208.0,1.0,-66.0,-591.0,-740.0
-19.0,-155.0,-172.0,-247.0,205.0,4.0,-51.0,-594.0,-753.0
-16.0,-161.0,-172.0,-280.0,208.0,3.0,-63.0,-602.0,-736.0
-16.0,-161.0,-174.0,-305.0,213.0,16.0,-44.0,-599.0,-753.0
-17.0,-159.0,-174.0,-335.0,218.0,29.0,-50.0,-605.0,-759.0
-13.0,-163.0,-178.0,-360.0,223.0,41.0,-34.0,-615.0,-767.0
-15.0,-162.0,-177.0,-385.0,223.0,45.0,-35.0,-616.0,-764.0
-10.0,-163.0,-177.0,-403.0,221.0,52.0,-28.0,-621.0,-771.0
-11.0,-167.0,-180.0,-411.0,213.0,50.0,-28.0,-631.0,-778.0
-13.0,-166.0,-183.0,-404.0,211.0,52.0,-24.0,-627.0,-776.0
-9.0,-163.0,-185.0,-384.0,208.0,53.0,-16.0,-634.0,-786.0
-8.0,-169.0,-185.0,-358.0,202.0,54.0,-12.0,-637.0,-792.0
-2.0,-171.0,-190.0,-320.0,199.0,54.0,1.0,-645.0,-804.0
-4.0,-176.0,-190.0,-275.0,195.0,54.0,2.0,-647.0,-801.0
-1.0,-179.0,-188.0,-225.0,193.0,51.0,5.0,-657.0,-805.0
-1.0,-179.0,-191.0,-169.0,191.0,52.0,2.0,-667.0,-814.0
-2.0,-181.0,-192.0,-111.0,187.0,52.0,4.0,-671.0,-828.0
-7.0,-182.0,-192.0,-53.0,178.0,50.0,2.0,-677.0,-823.0
-6.0,-184.0,-192.0,2.0,168.0,51.0,-1.0,-681.0,-817.0
-5.0,-181.0,-191.0,61.0,159.0,47.0,-3.0,-680.0,-814.0
-8.0,-183.0,-188.0,115.0,148.0,41.0,-4.0,-678.0,-809.0
-8.0,-180.0,-187.0,168.0,138.0,32.0,-14.0,-673.0,-803.0
-8.0,-183.0,-181.0,218.0,128.0,24.0,-12.0,-666.0,-792.0
-8.0,-177.0,-185.0,272.0,127.0,18.0,-18.0,-668.0,-791.0
-9.0,-178.0,-187.0,331.0,131.0,10.0,-24.0,-654.0,-797.0
-14.0,-172.0,-185.0,371.0,132.0,0.0,-25.0,-651.0,-793.0
-15.0,-170.0,-187.0,400.0,125.0,-13.0,-37.0,-648.0,-807.0
-14.0,-169.0,-189.0,417.0,117.0,-23.0,-32.0,-644.0,-810.0
-16.0,-168.0,-190.0,426.0,108.0,-32.0,-32.0,-636.0,-807.0
-18.0,-164.0,-192.0,429.0,101.0,-37.0,-41.0,-630.0,-808.0
-16.0,-165.0,-189.0,427.0,93.0,-37.0,-39.0,-627.0,-814.0
-12.0,-164.0,-191.0,424.0,92.0,-36.0,-26.0,-627.0,-821.0
-11.0,-167.0,-191.0,417.0,90.0,-37.0,-27.0,-623.0,-822.0
-8.0,-166.0,-194.0,414.0,88.0,-37.0,-14.0,-631.0,-831.0
-7.0,-169.0,-198.0,406.0,85.0,-38.0,-18.0,-622.0,-840.0
-8.0,-170.0,-198.0,399.0,80.0,-34.0,-10.0,-634.0,-840.0
-8.0,-169.0,-200.0,390.0,72.0,-31.0,-3.0,-637.0,-842.0
-7.0,-175.0,-196.0,382.0,57.0,-28.0,-6.0,-647.0,-839.0
-4.0,-177.0,-197.0,377.0,40.0,-24.0,-1.0,-659.0,-833.0
-8.0,-177.0,-195.0,377.0,20.0,-19.0,-8.0,-668.0,-828.0
-12.0,-180.0,-193.0,380.0,-1.0,-12.0,-7.0,-679.0,-820.0
-10.0,-182.0,-191.0,388.0,-24.0,-5.0,-5.0,-691.0,-816.0
-8.0,-185.0,-193.0,402.0,-43.0,1.0,-9.0,-702.0,-814.0
-9.0,-189.0,-191.0,417.0,-58.0,7.0,-17.0,-709.0,-814.0
-11.0,-193.0,-191.0,433.0,-68.0,13.0,-15.0,-721.0,-815.0
-13.0,-188.0,-187.0,447.0,-74.0,16.0,-19.0,-727.0,-817.0
-12.0,-192.0,-193.0,459.0,-78.0,21.0,-25.0,-731.0,-816.0
-12.0,-192.0,-194.0,467.0,-79.0,27.0,-32.0,-730.0,-818.0
-14.0,-194.0,-194.0,473.0,-80.0,31.0,-35.0,-737.0,-823.0
-17.0,-196.0,-189.0,478.0,-81.0,36.0,-44.0,-740.0,-817.0
-17.0,-198.0,-193.0,484.0,-80.0,40.0,-46.0,-744.0,-815.0
-16.0,-195.0,-188.0,493.0,-82.0,42.0,-48.0,-744.0,-821.0
-18.0,-196.0,-189.0,507.0,-83.0,42.0,-46.0,-736.0,-826.0
-17.0,-193.0,-193.0,516.0,-83.0,45.0,-49.0,-734.0,-819.0
-14.0,-190.0,-192.0,528.0,-82.0,47.0,-44.0,-733.0,-814.0
-15.0,-191.0,-191.0,541.0,-76.0,48.0,-35.0,-726.0,-806.0
-10.0,-191.0,-184.0,558.0,-69.0,45.0,-28.0,-724.0,-797.0
-10.0,-193.0,-178.0,581.0,-65.0,39.0,-23.0,-728.0,-778.0
-10.0,-192.0,-182.0,612.0,-60.0,26.0,-20.0,-726.0,-787.0
-7.0,-193.0,-172.0,640.0,-57.0,15.0,-10.0,-723.0,-753.0
-8.0,-192.0,-171.0,681.0,-57.0,0.0,-3.0,-725.0,-751.0
-5.0,-196.0,-169.0,726.0,-53.0,-6.0,-2.0,-720.0,-734.0
-9.0,-190.0,-166.0,762.0,-48.0,-15.0,-5.0,-722.0,-732.0
-6.0,-189.0,-164.0,784.0,-40.0,-22.0,1.0,-720.0,-714.0
-7.0,-186.0,-166.0,797.0,-36.0,-34.0,-8.0,-716.0,-716.0
-10.0,-183.0,-166.0,799.0,-39.0,-46.0,-20.0,-713.0,-717.0
-16.0,-183.0,-166.0,791.0,-44.0,-53.0,-30.0,-709.0,-714.0
-17.0,-184.0,-166.0,768.0,-53.0,-54.0,-46.0,-697.0,-729.0
-21.0,-177.0,-167.0,733.0,-62.0,-56.0,-50.0,-704.0,-727.0
-20.0,-183.0,-164.0,693.0,-71.0,-55.0,-63.0,-700.0,-739.0
-25.0,-183.0,-169.0,649.0,-78.0,-52.0,-69.0,-700.0,-736.0
-22.0,-180.0,-172.0,603.0,-85.0,-46.0,-69.0,-703.0,-738.0
-22.0,-185.0,-174.0,560.0,-85.0,-40.0,-69.0,-697.0,-754.0
-24.0,-183.0,-172.0,518.0,-80.0,-31.0,-68.0,-691.0,-752.0
-20.0,-183.0,-168.0,474.0,-72.0,-21.0,-71.0,-697.0,-734.0
-26.0,-182.0,-167.0,436.0,-70.0,-12.0,-64.0,-707.0,-718.0
-22.0,-189.0,-162.0,415.0,-77.0,-8.0,-61.0,-721.0,-699.0
-21.0,-189.0,-157.0,412.0,-88.0,-8.0,-54.0,-724.0,-687.0
-18.0,-192.0,-157.0,422.0,-98.0,-12.0,-56.0,-733.0,-673.0
-18.0,-196.0,-151.0,444.0,-104.0,-15.0,-53.0,-745.0,-662.0
-18.0,-196.0,-150.0,474.0,-111.0,-20.0,-44.0,-749.0,-648.0
-15.0,-198.0,-147.0,510.0,-117.0,-26.0,-47.0,-752.0,-641.0
-18.0,-197.0,-145.0,548.0,-119.0,-36.0,-48.0,-748.0,-633.0
-18.0,-198.0,-147.0,585.0,-119.0,-44.0,-50.0,-754.0,-632.0
-19.0,-197.0,-145.0,618.0,-118.0,-48.0,-42.0,-751.0,-632.0
-16.0,-198.0,-146.0,645.0,-112.0,-55.0,-43.0,-746.0,-631.0
-15.0,-198.0,-148.0,668.0,-105.0,-64.0,-36.0,-744.0,-635.0
-16.0,-193.0,-149.0,683.0,-97.0,-72.0,-39.0,-744.0,-640.0
-13.0,-196.0,-151.0,694.0,-90.0,-80.0,-36.0,-734.0,-639.0
-15.0,-195.0,-146.0,698.0,-86.0,-87.0,-35.0,-733.0,-645.0
-14.0,-192.0,-148.0,700.0,-86.0,-92.0,-34.0,-731.0,-653.0
-17.0,-188.0,-148.0,699.0,-87.0,-97.0,-34.0,-730.0,-655.0
-15.0,-192.0,-149.0,695.0,-91.0,-98.0,-35.0,-725.0,-660.0
-13.0,-191.0,-150.0,692.0,-97.0,-99.0,-32.0,-729.0,-654.0
-15.0,-190.0,-150.0,687.0,-100.0,-98.0,-31.0,-723.0,-660.0
-12.0,-191.0,-151.0,682.0,-102.0,-94.0,-21.0,-725.0,-654.0
-14.0,-188.0,-150.0,677.0,-100.0,-89.0,-31.0,-724.0,-651.0
-12.0,-188.0,-150.0,675.0,-97.0,-83.0,-29.0,-729.0,-639.0
-13.0,-190.0,-148.0,672.0,-93.0,-73.0,-31.0,-731.0,-631.0
-15.0,-194.0,-142.0,669.0,-86.0,-64.0,-34.0,-733.0,-627.0
-17.0,-193.0,-142.0,668.0,-81.0,-53.0,-29.0,-743.0,-613.0
-15.0,-196.0,-139.0,664.0,-75.0,-44.0,-32.0,-750.0,-604.0
-16.0,-198.0,-136.0,664.0,-73.0,-33.0,-36.0,-754.0,-593.0
-13.0,-202.0,-132.0,665.0,-70.0,-24.0,-43.0,-763.0,-586.0
-17.0,-201.0,-133.0,664.0,-70.0,-16.0,-35.0,-775.0,-575.0
-19.0,-203.0,-129.0,668.0,-71.0,-11.0,-34.0,-784.0,-566.0
-15.0,-204.0,-131.0,677.0,-75.0,-9.0,-41.0,-782.0,-566.0
-16.0,-205.0,-131.0,684.0,-78.0,-8.0,-44.0,-789.0,-564.0
-18.0,-207.0,-130.0,691.0,-76.0,-5.0,-40.0,-799.0,-562.0
-17.0,-209.0,-131.0,702.0,-72.0,-3.0,-42.0,-798.0,-565.0
-8.0,-208.0,-137.0,710.0,-67.0,-4.0,-50.0,-809.0,-573.0
-17.0,-213.0,-130.0,718.0,-59.0,-5.0,-40.0,-810.0,-577.0
-14.0,-213.0,-132.0,723.0,-47.0,-10.0,-44.0,-811.0,-579.0
-18.0,-213.0,-133.0,730.0,-33.0,-15.0,-46.0,-810.0,-585.0
-16.0,-212.0,-132.0,736.0,-15.0,-20.0,-39.0,-812.0,-587.0
-16.0,-211.0,-132.0,745.0,0.0,-24.0,-42.0,-818.0,-581.0
-14.0,-212.0,-130.0,752.0,18.0,-31.0,-38.0,-825.0,-574.0
-14.0,-216.0,-128.0,758.0,31.0,-38.0,-33.0,-821.0,-565.0
-14.0,-214.0,-126.0,765.0,43.0,-45.0,-25.0,-824.0,-556.0
-11.0,-213.0,-121.0,777.0,51.0,-53.0,-17.0,-818.0,-542.0
-9.0,-215.0,-121.0,791.0,54.0,-62.0,-14.0,-814.0,-524.0
-6.0,-211.0,-118.0,809.0,49.0,-70.0,-11.0,-813.0,-511.0
-7.0,-208.0,-110.0,830.0,42.0,-77.0,-3.0,-807.0,-496.0
-4.0,-208.0,-113.0,851.0,38.0,-86.0,7.0,-799.0,-495.0
-3.0,-207.0,-110.0,862.0,35.0,-90.0,7.0,-794.0,-490.0
-4.0,-204.0,-109.0,864.0,35.0,-92.0,9.0,-784.0,-484.0
-5.0,-201.0,-108.0,857.0,36.0,-90.0,5.0,-783.0,-483.0
-6.0,-204.0,-108.0,847.0,40.0,-85.0,0.0,-782.0,-484.0
-10.0,-201.0,-107.0,832.0,47.0,-77.0,-9.0,-786.0,-484.0
-10.0,-203.0,-109.0,811.0,56.0,-67.0,-12.0,-787.0,-483.0
-8.0,-204.0,-107.0,788.0,65.0,-59.0,-19.0,-791.0,-480.0
-18.0,-206.0,-107.0,766.0,71.0,-51.0,-22.0,-791.0,-486.0
-16.0,-204.0,-110.0,742.0,78.0,-41.0,-37.0,-796.0,-490.0
-17.0,-206.0,-110.0,720.0,81.0,-31.0,-40.0,-797.0,-489.0
-18.0,-203.0,-109.0,702.0,82.0,-20.0,-41.0,-799.0,-488.0
-19.0,-207.0,-110.0,691.0,82.0,-10.0,-45.0,-803.0,-491.0
-17.0,-209.0,-110.0,685.0,79.0,-1.0,-43.0,-801.0,-487.0
-17.0,-210.0,-110.0,686.0,75.0,4.0,-45.0,-806.0,-481.0
-21.0,-209.0,-105.0,692.0,71.0,8.0,-50.0,-809.0,-472.0
-20.0,-210.0,-103.0,703.0,67.0,10.0,-44.0,-811.0,-460.0
-17.0,-212.0,-99.0,721.0,63.0,8.0,-47.0,-812.0,-448.0
-20.0,-212.0,-97.0,740.0,59.0,8.0,-46.0,-815.0,-440.0
-17.0,-214.0,-95.0,761.0,54.0,7.0,-44.0,-818.0,-431.0
-17.0,-212.0,-92.0,782.0,54.0,3.0,-39.0,-817.0,-420.0
-16.0,-213.0,-93.0,801.0,56.0,1.0,-33.0,-817.0,-415.0
-16.0,-212.0,-89.0,819.0,61.0,-3.0,-47.0,-822.0,-417.0
-16.0,-213.0,-88.0,827.0,66.0,-10.0,-35.0,-819.0,-412.0
-14.0,-211.0,-86.0,829.0,72.0,-18.0,-30.0,-811.0,-401.0
-11.0,-211.0,-87.0,822.0,77.0,-24.0,-26.0,-814.0,-403.0
-12.0,-212.0,-88.0,815.0,76.0,-33.0,-24.0,-814.0,-396.0
-12.0,-212.0,-85.0,802.0,71.0,-44.0,-27.0,-807.0,-390.0
-13.0,-212.0,-87.0,792.0,62.0,-52.0,-20.0,-813.0,-389.0
-13.0,-211.0,-90.0,781.0,51.0,-61.0,-24.0,-810.0,-392.0
-19.0,-223.0,-86.0,768.0,39.0,-65.0,-26.0,-813.0,-387.0
-13.0,-213.0,-84.0,755.0,29.0,-70.0,-22.0,-813.0,-383.0
-16.0,-209.0,-88.0,740.0,22.0,-71.0,-33.0,-816.0,-391.0
-15.0,-211.0,-85.0,725.0,22.0,-72.0,-34.0,-816.0,-387.0
-15.0,-214.0,-86.0,711.0,24.0,-74.0,-37.0,-819.0,-389.0
-18.0,-215.0,-85.0,702.0,27.0,-75.0,-46.0,-826.0,-393.0
-17.0,-214.0,-83.0,695.0,31.0,-76.0,-46.0,-834.0,-386.0
-21.0,-216.0,-82.0,691.0,34.0,-78.0,-55.0,-835.0,-386.0
-20.0,-218.0,-84.0,689.0,34.0,-82.0,-49.0,-837.0,-385.0
-19.0,-221.0,-86.0,688.0,34.0,-84.0,-49.0,-841.0,-378.0
-19.0,-218.0,-81.0,693.0,38.0,-86.0,-48.0,-843.0,-373.0
-19.0,-218.0,-82.0,699.0,41.0,-87.0,-47.0,-853.0,-365.0
-19.0,-223.0,-79.0,706.0,45.0,-84.0,-42.0,-860.0,-362.0
-18.0,-222.0,-79.0,713.0,48.0,-82.0,-33.0,-856.0,-350.0
-14.0,-224.0,-74.0,723.0,49.0,-82.0,-32.0,-862.0,-343.0
-13.0,-226.0,-76.0,732.0,47.0,-82.0,-31.0,-866.0,-338.0
-13.0,-226.0,-73.0,738.0,46.0,-82.0,-18.0,-866.0,-339.0
-9.0,-225.0,-74.0,743.0,43.0,-84.0,-20.0,-866.0,-329.0
-9.0,-224.0,-69.0,748.0,40.0,-84.0,-9.0,-864.0,-329.0
-7.0,-229.0,-73.0,752.0,37.0,-84.0,-1.0,-875.0,-328.0
-8.0,-229.0,-74.0,755.0,37.0,-82.0,-2.0,-884.0,-326.0
-6.0,-228.0,-73.0,755.0,39.0,-81.0,-4.0,-888.0,-325.0
-9.0,-227.0,-78.0,753.0,40.0,-85.0,-10.0,-877.0,-329.0
-10.0,-231.0,-72.0,752.0,41.0,-86.0,-10.0,-877.0,-329.0
-10.0,-229.0,-73.0,747.0,42.0,-87.0,-13.0,-871.0,-327.0
-12.0,-227.0,-71.0,742.0,42.0,-89.0,-24.0,-867.0,-327.0
-12.0,-228.0,-68.0,734.0,43.0,-91.0,-30.0,-867.0,-327.0
-12.0,-224.0,-73.0,725.0,45.0,-91.0,-32.0,-865.0,-323.0
-11.0,-224.0,-71.0,717.0,48.0,-91.0,-33.0,-860.0,-310.0
-13.0,-223.0,-65.0,714.0,51.0,-95.0,-37.0,-862.0,-304.0
-15.0,-219.0,-65.0,708.0,54.0,-100.0,-34.0,-858.0,-299.0
-16.0,-219.0,-62.0,700.0,54.0,-100.0,-33.0,-856.0,-289.0
-15.0,-221.0,-60.0,691.0,53.0,-97.0,-40.0,-855.0,-286.0
-15.0,-221.0,-63.0,676.0,51.0,-96.0,-32.0,-854.0,-281.0
-16.0,-222.0,-63.0,660.0,48.0,-94.0,-35.0,-855.0,-283.0
-14.0,-221.0,-59.0,643.0,45.0,-93.0,-33.0,-853.0,-279.0
-12.0,-223.0,-60.0,624.0,41.0,-89.0,-31.0,-857.0,-278.0
-11.0,-224.0,-59.0,605.0,41.0,-84.0,-27.0,-856.0,-279.0
-10.0,-225.0,-63.0,585.0,41.0,-78.0,-27.0,-864.0,-270.0
-15.0,-222.0,-58.0,567.0,43.0,-70.0,-31.0,-864.0,-269.0
-17.0,-226.0,-51.0,549.0,44.0,-66.0,-26.0,-866.0,-265.0
-14.0,-229.0,-54.0,535.0,42.0,-63.0,-28.0,-874.0,-263.0
-14.0,-225.0,-53.0,521.0,38.0,-61.0,-30.0,-875.0,-252.0
-15.0,-229.0,-51.0,509.0,35.0,-57.0,-26.0,-871.0,-250.0
-23.0,-237.0,-47.0,498.0,34.0,-55.0,-23.0,-884.0,-240.0
-15.0,-230.0,-50.0,491.0,31.0,-54.0,-30.0,-884.0,-240.0
-17.0,-230.0,-51.0,487.0,31.0,-50.0,-30.0,-893.0,-239.0
-15.0,-231.0,-52.0,487.0,30.0,-50.0,-30.0,-889.0,-235.0
-14.0,-234.0,-49.0,488.0,27.0,-52.0,-21.0,-896.0,-238.0
-13.0,-235.0,-53.0,491.0,27.0,-52.0,-27.0,-896.0,-237.0
-13.0,-231.0,-47.0,494.0,27.0,-51.0,-16.0,-901.0,-240.0
-11.0,-234.0,-50.0,496.0,27.0,-47.0,-7.0,-893.0,-239.0
-7.0,-233.0,-53.0,496.0,25.0,-45.0,1.0,-890.0,-240.0
-7.0,-232.0,-49.0,493.0,27.0,-44.0,4.0,-889.0,-241.0
-8.0,-231.0,-53.0,489.0,27.0,-46.0,7.0,-888.0,-238.0
-7.0,-231.0,-54.0,483.0,29.0,-46.0,4.0,-891.0,-243.0
-2.0,-234.0,-51.0,474.0,32.0,-46.0,9.0,-895.0,-241.0
-5.0,-236.0,-48.0,461.0,35.0,-48.0,9.0,-899.0,-237.0
-6.0,-235.0,-45.0,447.0,35.0,-50.0,10.0,-902.0,-230.0
-6.0,-237.0,-47.0,432.0,36.0,-50.0,5.0,-906.0,-223.0
-8.0,-236.0,-47.0,419.0,35.0,-50.0,1.0,-908.0,-214.0
-8.0,-238.0,-46.0,406.0,34.0,-53.0,-3.0,-916.0,-219.0
-9.0,-238.0,-42.0,395.0,33.0,-55.0,-6.0,-913.0,-206.0
-6.0,-237.0,-41.0,388.0,35.0,-54.0,-15.0,-916.0,-200.0
-12.0,-240.0,-40.0,383.0,36.0,-56.0,-18.0,-913.0,-194.0
-16.0,-229.0,-36.0,381.0,32.0,-55.0,-24.0,-913.0,-195.0
-15.0,-238.0,-40.0,382.0,29.0,-54.0,-30.0,-907.0,-197.0
-18.0,-235.0,-40.0,385.0,28.0,-54.0,-33.0,-908.0,-197.0
-17.0,-232.0,-39.0,384.0,24.0,-51.0,-39.0,-902.0,-201.0
-18.0,-234.0,-45.0,376.0,19.0,-47.0,-44.0,-905.0,-209.0
-18.0,-232.0,-43.0,363.0,14.0,-44.0,-39.0,-895.0,-215.0
-16.0,-236.0,-45.0,343.0,8.0,-38.0,-36.0,-901.0,-222.0
-18.0,-235.0,-44.0,320.0,4.0,-33.0,-38.0,-904.0,-224.0
-16.0,-237.0,-47.0,296.0,1.0,-28.0,-32.0,-902.0,-223.0
-17.0,-238.0,-43.0,271.0,-1.0,-26.0,-30.0,-909.0,-220.0
-13.0,-239.0,-49.0,250.0,-1.0,-24.0,-33.0,-914.0,-218.0
-14.0,-240.0,-46.0,232.0,-4.0,-20.0,-28.0,-923.0,-214.0
-14.0,-242.0,-43.0,220.0,-10.0,-16.0,-20.0,-925.0,-216.0
-12.0,-243.0,-41.0,211.0,-16.0,-14.0,-14.0,-933.0,-210.0
-8.0,-247.0,-42.0,207.0,-22.0,-11.0,-8.0,-939.0,-216.0
-10.0,-247.0,-39.0,205.0,-24.0,-8.0,-9.0,-947.0,-201.0
-8.0,-247.0,-38.0,203.0,-25.0,-9.0,1.0,-954.0,-205.0
-6.0,-248.0,-37.0,204.0,-23.0,-8.0,6.0,-957.0,-199.0
-2.0,-249.0,-41.0,208.0,-17.0,-5.0,17.0,-965.0,-187.0
-6.0,-249.0,-37.0,212.0,-7.0,-2.0,17.0,-964.0,-188.0
-5.0,-254.0,-34.0,216.0,4.0,1.0,23.0,-972.0,-178.0
0.0,-253.0,-32.0,223.0,16.0,3.0,27.0,-973.0,-173.0
5.0,-253.0,-25.0,227.0,27.0,6.0,36.0,-972.0,-163.0
4.0,-255.0,-32.0,231.0,40.0,9.0,36.0,-972.0,-151.0
2.0,-256.0,-31.0,233.0,50.0,10.0,41.0,-970.0,-159.0
0.0,-250.0,-31.0,231.0,54.0,4.0,39.0,-968.0,-151.0
2.0,-252.0,-29.0,229.0,56.0,2.0,43.0,-962.0,-149.0
1.0,-250.0,-26.0,224.0,54.0,1.0,41.0,-964.0,-153.0
1.0,-251.0,-31.0,217.0,53.0,-1.0,37.0,-961.0,-163.0
0.0,-251.0,-31.0,208.0,50.0,-5.0,30.0,-959.0,-164.0
-2.0,-249.0,-31.0,195.0,51.0,-11.0,28.0,-963.0,-159.0
0.0,-249.0,-31.0,180.0,53.0,-14.0,18.0,-964.0,-167.0
-2.0,-250.0,-30.0,164.0,59.0,-18.0,9.0,-964.0,-163.0
-5.0,-253.0,-30.0,148.0,65.0,-22.0,-3.0,-965.0,-158.0
-9.0,-250.0,-31.0,135.0,71.0,-23.0,-5.0,-968.0,-155.0
-9.0,-252.0,-24.0,124.0,78.0,-23.0,-8.0,-969.0,-151.0
-9.0,-251.0,-21.0,117.0,82.0,-22.0,-6.0,-968.0,-140.0
-9.0,-250.0,-21.0,115.0,87.0,-20.0,-1.0,-970.0,-133.0
-7.0,-252.0,-20.0,117.0,93.0,-18.0,7.0,-970.0,-123.0
-5.0,-250.0,-18.0,120.0,101.0,-16.0,7.0,-968.0,-119.0
-6.0,-250.0,-19.0,123.0,107.0,-16.0,16.0,-967.0,-116.0
-1.0,-251.0,-20.0,125.0,110.0,-16.0,13.0,-960.0,-117.0
-6.0,-249.0,-18.0,126.0,107.0,-17.0,14.0,-960.0,-117.0
-6.0,-248.0,-20.0,122.0,101.0,-19.0,13.0,-954.0,-111.0
-6.0,-245.0,-20.0,114.0,90.0,-18.0,15.0,-951.0,-114.0
-4.0,-246.0,-19.0,106.0,79.0,-18.0,14.0,-943.0,-102.0
-5.0,-246.0,-20.0,95.0,71.0,-17.0,9.0,-942.0,-113.0
-3.0,-247.0,-17.0,81.0,66.0,-19.0,1.0,-944.0,-103.0
-4.0,-248.0,-18.0,67.0,66.0,-19.0,-5.0,-952.0,-115.0
-8.0,-248.0,-19.0,52.0,69.0,-24.0,-11.0,-951.0,-119.0
-9.0,-248.0,-23.0,38.0,75.0,-28.0,-11.0,-959.0,-124.0
-8.0,-250.0,-23.0,25.0,81.0,-32.0,-12.0,-955.0,-135.0
-8.0,-248.0,-21.0,11.0,87.0,-35.0,-17.0,-955.0,-137.0
-10.0,-247.0,-28.0,-1.0,92.0,-39.0,-12.0,-946.0,-138.0
-9.0,-246.0,-27.0,-12.0,98.0,-43.0,-6.0,-941.0,-138.0
-8.0,-246.0,-22.0,-21.0,106.0,-48.0,-4.0,-934.0,-136.0
-6.0,-244.0,-26.0,-31.0,111.0,-52.0,-4.0,-933.0,-142.0
-2.0,-245.0,-22.0,-40.0,119.0,-58.0,8.0,-935.0,-135.0
-8.0,-247.0,-22.0,-49.0,123.0,-66.0,8.0,-933.0,-136.0
-5.0,-242.0,-21.0,-57.0,128.0,-71.0,9.0,-930.0,-130.0
-7.0,-240.0,-23.0,-64.0,133.0,-78.0,10.0,-936.0,-123.0
-5.0,-245.0,-20.0,-71.0,137.0,-86.0,8.0,-930.0,-122.0
-4.0,-244.0,-20.0,-76.0,142.0,-92.0,11.0,-940.0,-126.0
-2.0,-247.0,-19.0,-83.0,145.0,-95.0,13.0,-946.0,-123.0
0.0,-246.0,-21.0,-90.0,149.0,-98.0,10.0,-952.0,-129.0
0.0,-249.0,-22.0,-102.0,153.0,-99.0,21.0,-954.0,-136.0
-2.0,-252.0,-24.0,-115.0,156.0,-100.0,19.0,-963.0,-143.0
-1.0,-249.0,-31.0,-133.0,162.0,-103.0,17.0,-962.0,-150.0
0.0,-252.0,-32.0,-157.0,168.0,-102.0,20.0,-973.0,-166.0
-4.0,-253.0,-35.0,-181.0,175.0,-105.0,15.0,-987.0,-175.0
-2.0,-257.0,-37.0,-209.0,180.0,-108.0,14.0,-1003.0,-182.0
-2.0,-260.0,-40.0,-240.0,181.0,-113.0,14.0,-1011.0,-195.0
-7.0,-262.0,-40.0,-269.0,179.0,-112.0,7.0,-1023.0,-211.0
-8.0,-265.0,-48.0,-294.0,178.0,-111.0,1.0,-1026.0,-217.0
-9.0,-268.0,-49.0,-315.0,175.0,-105.0,-3.0,-1041.0,-229.0
-12.0,-269.0,-48.0,-329.0,172.0,-94.0,-6.0,-1051.0,-236.0
-11.0,-274.0,-51.0,-335.0,164.0,-83.0,-10.0,-1064.0,-240.0
-13.0,-280.0,-49.0,-336.0,156.0,-66.0,-16.0,-1067.0,-237.0
-13.0,-280.0,-49.0,-330.0,145.0,-48.0,-19.0,-1077.0,-233.0
-14.0,-280.0,-50.0,-317.0,131.0,-27.0,-13.0,-1084.0,-237.0
-13.0,-283.0,-45.0,-299.0,118.0,-8.0,-14.0,-1089.0,-230.0
-16.0,-285.0,-47.0,-277.0,100.0,11.0,-23.0,-1099.0,-223.0
-13.0,-286.0,-46.0,-253.0,85.0,27.0,-24.0,-1102.0,-214.0
-14.0,-284.0,-46.0,-227.0,69.0,41.0,-31.0,-1102.0,-205.0
-16.0,-285.0,-39.0,-198.0,55.0,52.0,-26.0,-1092.0,-202.0
-15.0,-282.0,-39.0,-166.0,43.0,58.0,-26.0,-1085.0,-193.0
-12.0,-281.0,-36.0,-134.0,30.0,64.0,-16.0,-1070.0,-181.0
-19.0,-269.0,-37.0,-101.0,24.0,65.0,-12.0,-1057.0,-176.0
-11.0,-271.0,-31.0,-68.0,17.0,62.0,-3.0,-1042.0,-174.0
-12.0,-260.0,-31.0,-38.0,14.0,57.0,1.0,-1023.0,-177.0
-6.0,-260.0,-29.0,-10.0,12.0,50.0,5.0,-1006.0,-171.0
-1.0,-255.0,-29.0,12.0,13.0,45.0,11.0,-985.0,-161.0
-4.0,-251.0,-27.0,33.0,16.0,42.0,18.0,-967.0,-159.0
-1.0,-248.0,-26.0,50.0,22.0,39.0,23.0,-961.0,-148.0
-2.0,-250.0,-27.0,61.0,28.0,38.0,27.0,-944.0,-142.0
0.0,-246.0,-25.0,70.0,36.0,36.0,24.0,-943.0,-144.0
0.0,-240.0,-24.0,75.0,44.0,34.0,26.0,-932.0,-142.0
1.0,-246.0,-28.0,75.0,50.0,32.0,31.0,-937.0,-140.0
0.0,-244.0,-25.0,71.0,55.0,30.0,24.0,-940.0,-137.0
0.0,-245.0,-25.0,62.0,57.0,25.0,24.0,-934.0,-136.0
0.0,-247.0,-22.0,51.0,59.0,19.0,26.0,-948.0,-137.0
0.0,-245.0,-23.0,40.0,63.0,13.0,27.0,-954.0,-135.0
0.0,-248.0,-25.0,29.0,65.0,6.0,27.0,-961.0,-131.0
-1.0,-251.0,-21.0,19.0,69.0,0.0,23.0,-966.0,-133.0
0.0,-250.0,-22.0,12.0,74.0,-9.0,20.0,-970.0,-131.0
0.0,-251.0,-25.0,9.0,83.0,-15.0,15.0,-968.0,-125.0
-2.0,-254.0,-21.0,7.0,92.0,-19.0,18.0,-966.0,-128.0
-3.0,-251.0,-20.0,3.0,101.0,-23.0,19.0,-963.0,-127.0
-4.0,-250.0,-23.0,-2.0,110.0,-25.0,14.0,-959.0,-129.0
0.0,-253.0,-24.0,-10.0,116.0,-26.0,10.0,-958.0,-130.0
-9.0,-246.0,-23.0,-23.0,122.0,-31.0,-3.0,-954.0,-131.0
-5.0,-248.0,-22.0,-40.0,121.0,-31.0,1.0,-953.0,-134.0
-7.0,-248.0,-23.0,-57.0,114.0,-32.0,-2.0,-952.0,-131.0
-5.0,-248.0,-21.0,-72.0,110.0,-32.0,6.0,-955.0,-133.0
-9.0,-250.0,-23.0,-89.0,106.0,-30.0,6.0,-959.0,-135.0
-2.0,-250.0,-27.0,-102.0,101.0,-31.0,7.0,-969.0,-139.0
-8.0,-252.0,-26.0,-113.0,97.0,-27.0,10.0,-973.0,-143.0
-5.0,-256.0,-27.0,-123.0,93.0,-24.0,9.0,-986.0,-150.0
-8.0,-258.0,-29.0,-130.0,89.0,-19.0,9.0,-998.0,-154.0
-3.0,-263.0,-28.0,-133.0,86.0,-14.0,13.0,-1008.0,-159.0
-5.0,-261.0,-30.0,-133.0,83.0,-10.0,11.0,-1012.0,-164.0
-3.0,-262.0,-32.0,-128.0,81.0,-6.0,13.0,-1015.0,-170.0
-5.0,-261.0,-31.0,-118.0,80.0,-2.0,12.0,-1018.0,-173.0
-4.0,-260.0,-35.0,-105.0,79.0,0.0,10.0,-1019.0,-176.0
0.0,-262.0,-38.0,-91.0,78.0,3.0,20.0,-1020.0,-176.0
0.0,-264.0,-34.0,-77.0,80.0,5.0,28.0,-1017.0,-183.0
-3.0,-259.0,-36.0,-69.0,82.0,2.0,28.0,-1008.0,-185.0
0.0,-257.0,-38.0,-62.0,84.0,3.0,26.0,-1004.0,-185.0
-2.0,-258.0,-35.0,-57.0,86.0,5.0,20.0,-999.0,-183.0
-1.0,-258.0,-35.0,-55.0,87.0,5.0,25.0,-992.0,-184.0
-3.0,-256.0,-34.0,-54.0,88.0,5.0,24.0,-993.0,-174.0
-1.0,-257.0,-40.0,-57.0,90.0,5.0,13.0,-988.0,-169.0
-1.0,-255.0,-32.0,-61.0,92.0,6.0,20.0,-980.0,-163.0
-1.0,-258.0,-30.0,-66.0,97.0,8.0,23.0,-994.0,-168.0
-2.0,-256.0,-29.0,-69.0,104.0,10.0,14.0,-996.0,-156.0
-1.0,-258.0,-28.0,-67.0,108.0,12.0,19.0,-1002.0,-155.0
0.0,-259.0,-29.0,-61.0,113.0,14.0,22.0,-993.0,-157.0
-4.0,-260.0,-35.0,-52.0,116.0,13.0,28.0,-1005.0,-157.0
0.0,-256.0,-29.0,-38.0,118.0,12.0,23.0,-994.0,-164.0
-2.0,-255.0,-27.0,-25.0,119.0,11.0,27.0,-984.0,-167.0
0.0,-256.0,-31.0,-16.0,119.0,9.0,26.0,-991.0,-167.0
0.0,-255.0,-32.0,-11.0,119.0,7.0,27.0,-987.0,-163.0
0.0,-257.0,-31.0,-10.0,122.0,6.0,21.0,-993.0,-162.0
-1.0,-255.0,-30.0,-10.0,123.0,3.0,20.0,-983.0,-155.0
0.0,-256.0,-25.0,-9.0,123.0,2.0,19.0,-994.0,-157.0
-4.0,-254.0,-27.0,-4.0,125.0,3.0,21.0,-993.0,-152.0
-3.0,-258.0,-28.0,1.0,125.0,2.0,15.0,-986.0,-150.0
-2.0,-259.0,-24.0,10.0,124.0,3.0,16.0,-998.0,-142.0
-3.0,-254.0,-28.0,19.0,126.0,4.0,10.0,-989.0,-138.0
-3.0,-252.0,-24.0,27.0,129.0,6.0,12.0,-984.0,-143.0
-3.0,-254.0,-21.0,31.0,132.0,9.0,11.0,-977.0,-139.0
-6.0,-249.0,-24.0,34.0,132.0,10.0,10.0,-970.0,-135.0
-6.0,-248.0,-31.0,33.0,136.0,11.0,11.0,-964.0,-136.0
-2.0,-251.0,-23.0,31.0,137.0,12.0,11.0,-963.0,-138.0
-6.0,-250.0,-23.0,25.0,138.0,13.0,8.0,-957.0,-138.0
-1.0,-251.0,-24.0,18.0,138.0,14.0,9.0,-960.0,-144.0
-1.0,-252.0,-26.0,7.0,138.0,15.0,11.0,-964.0,-143.0
-4.0,-252.0,-28.0,-3.0,140.0,16.0,12.0,-972.0,-155.0
-6.0,-255.0,-32.0,-12.0,140.0,16.0,9.0,-976.0,-152.0
-2.0,-253.0,-29.0,-22.0,141.0,16.0,7.0,-985.0,-154.0
-10.0,-252.0,-30.0,-27.0,138.0,16.0,9.0,-999.0,-157.0
-7.0,-256.0,-29.0,-28.0,134.0,17.0,8.0,-1005.0,-157.0
-9.0,-257.0,-30.0,-24.0,129.0,20.0,1.0,-1008.0,-165.0
-10.0,-261.0,-30.0,-18.0,125.0,22.0,-4.0,-1009.0,-167.0
-9.0,-261.0,-32.0,-11.0,120.0,26.0,-4.0,-1013.0,-167.0
-9.0,-257.0,-34.0,-5.0,116.0,30.0,-3.0,-1013.0,-171.0
-11.0,-262.0,-32.0,-1.0,111.0,32.0,-16.0,-1009.0,-177.0
-10.0,-261.0,-36.0,1.0,110.0,35.0,-17.0,-1005.0,-177.0
-8.0,-257.0,-35.0,1.0,104.0,36.0,-4.0,-1000.0,-178.0
-10.0,-256.0,-33.0,0.0,100.0,39.0,-7.0,-1004.0,-180.0
-8.0,-255.0,-37.0,-2.0,99.0,40.0,-6.0,-990.0,-183.0
-8.0,-252.0,-36.0,-3.0,99.0,42.0,-8.0,-985.0,-183.0
-9.0,-256.0,-38.0,-4.0,99.0,42.0,-7.0,-984.0,-182.0
-8.0,-253.0,-32.0,-6.0,98.0,41.0,-7.0,-979.0,-183.0
-10.0,-253.0,-31.0,-7.0,99.0,39.0,-8.0,-975.0,-180.0
-10.0,-251.0,-37.0,-8.0,97.0,37.0,-5.0,-981.0,-180.0
-9.0,-254.0,-32.0,-12.0,98.0,33.0,-3.0,-977.0,-178.0
-11.0,-251.0,-34.0,-17.0,100.0,29.0,-4.0,-979.0,-177.0
-10.0,-253.0,-38.0,-22.0,102.0,26.0,-4.0,-984.0,-174.0
-9.0,-256.0,-36.0,-28.0,103.0,23.0,-4.0,-982.0,-177.0
-7.0,-255.0,-29.0,-32.0,106.0,18.0,-10.0,-985.0,-168.0
-11.0,-256.0,-31.0,-32.0,108.0,15.0,-4.0,-991.0,-169.0
-10.0,-257.0,-28.0,-31.0,109.0,12.0,-11.0,-986.0,-167.0
-8.0,-257.0,-30.0,-27.0,113.0,9.0,-8.0,-985.0,-168.0
-11.0,-255.0,-29.0,-20.0,114.0,6.0,-4.0,-990.0,-160.0
-9.0,-256.0,-28.0,-15.0,118.0,3.0,-8.0,-992.0,-162.0
-8.0,-255.0,-30.0,-10.0,118.0,0.0,-7.0,-981.0,-159.0
-10.0,-255.0,-33.0,-6.0,118.0,-2.0,-14.0,-991.0,-165.0
-10.0,-256.0,-31.0,-3.0,114.0,-4.0,-7.0,-981.0,-150.0
-10.0,-253.0,-28.0,-3.0,110.0,-2.0,-10.0,-981.0,-160.0
-10.0,-251.0,-30.0,-3.0,105.0,-2.0,-17.0,-973.0,-162.0
-11.0,-254.0,-33.0,-3.0,99.0,0.0,-15.0,-975.0,-156.0
-10.0,-254.0,-31.0,-6.0,97.0,1.0,-14.0,-971.0,-166.0
-10.0,-253.0,-29.0,-10.0,95.0,3.0,-14.0,-972.0,-163.0
-10.0,-251.0,-27.0,-16.0,95.0,5.0,-19.0,-972.0,-164.0
-10.0,-250.0,-29.0,-22.0,96.0,6.0,-19.0,-979.0,-163.0
-10.0,-256.0,-27.0,-28.0,95.0,6.0,-12.0,-975.0,-160.0
-14.0,-253.0,-26.0,-32.0,94.0,7.0,-19.0,-981.0,-155.0
-10.0,-252.0,-27.0,-36.0,93.0,7.0,-10.0,-986.0,-163.0
-10.0,-256.0,-31.0,-36.0,91.0,6.0,-14.0,-990.0,-164.0
-12.0,-256.0,-33.0,-35.0,91.0,5.0,-8.0,-984.0,-166.0
-9.0,-255.0,-32.0,-34.0,89.0,4.0,-13.0,-992.0,-164.0
-11.0,-252.0,-32.0,-35.0,88.0,4.0,-5.0,-988.0,-173.0
-10.0,-255.0,-31.0,-37.0,86.0,2.0,-7.0,-983.0,-167.0
-9.0,-255.0,-28.0,-39.0,86.0,0.0,-14.0,-981.0,-165.0
-10.0,-252.0,-32.0,-41.0,82.0,-3.0,-17.0,-974.0,-172.0
-8.0,-257.0,-30.0,-44.0,78.0,-3.0,-10.0,-980.0,-170.0
-10.0,-255.0,-34.0,-45.0,75.0,-3.0,-9.0,-982.0,-173.0
-13.0,-257.0,-31.0,-46.0,74.0,-3.0,-9.0,-980.0,-171.0
-11.0,-257.0,-28.0,-44.0,72.0,-5.0,-6.0,-983.0,-169.0
-9.0,-259.0,-33.0,-42.0,74.0,-4.0,-9.0,-988.0,-171.0
-6.0,-258.0,-34.0,-36.0,73.0,-4.0,-6.0,-987.0,-173.0
-9.0,-255.0,-31.0,-29.0,72.0,-4.0,-6.0,-991.0,-166.0
-10.0,-258.0,-31.0,-22.0,73.0,-1.0,-7.0,-999.0,-162.0
-8.0,-256.0,-33.0,-14.0,75.0,0.0,-2.0,-992.0,-169.0
-10.0,-257.0,-31.0,-7.0,76.0,0.0,-2.0,-998.0,-171.0
-7.0,-253.0,-34.0,0.0,78.0,1.0,-4.0,-987.0,-174.0
-7.0,-254.0,-31.0,4.0,79.0,1.0,-3.0,-985.0,-173.0
-7.0,-256.0,-33.0,4.0,79.0,1.0,-3.0,-978.0,-175.0
-10.0,-254.0,-32.0,3.0,80.0,0.0,-4.0,-984.0,-178.0
-9.0,-253.0,-33.0,-1.0,81.0,-2.0,-4.0,-981.0,-173.0
-7.0,-257.0,-34.0,-7.0,80.0,-4.0,-6.0,-976.0,-171.0
-9.0,-256.0,-29.0,-12.0,79.0,-5.0,-6.0,-981.0,-166.0
-9.0,-254.0,-33.0,-15.0,78.0,-7.0,2.0,-982.0,-166.0
-8.0,-254.0,-30.0,-17.0,77.0,-7.0,-8.0,-983.0,-168.0
-8.0,-254.0,-28.0,-15.0,76.0,-7.0,0.0,-990.0,-161.0
-10.0,-256.0,-30.0,-15.0,75.0,-8.0,-2.0,-992.0,-162.0
-8.0,-256.0,-27.0,-10.0,72.0,-9.0,-1.0,-993.0,-163.0
-10.0,-253.0,-32.0,-3.0,70.0,-7.0,-1.0,-987.0,-159.0
-7.0,-254.0,-29.0,3.0,68.0,-5.0,2.0,-986.0,-161.0
-9.0,-258.0,-30.0,10.0,67.0,-4.0,-1.0,-984.0,-159.0
-8.0,-257.0,-28.0,16.0,65.0,-2.0,0.0,-988.0,-162.0
-7.0,-257.0,-32.0,18.0,66.0,0.0,-4.0,-987.0,-166.0
-8.0,-254.0,-33.0,20.0,68.0,0.0,-8.0,-981.0,-166.0
-8.0,-255.0,-30.0,21.0,70.0,-1.0,-5.0,-987.0,-171.0
-7.0,-253.0,-28.0,20.0,70.0,-1.0,-6.0,-988.0,-160.0
-11.0,-257.0,-32.0,17.0,68.0,-1.0,-6.0,-992.0,-169.0
-7.0,-255.0,-27.0,14.0,67.0,-3.0,-1.0,-983.0,-161.0
-10.0,-254.0,-33.0,11.0,66.0,-2.0,-1.0,-990.0,-166.0
-7.0,-258.0,-31.0,9.0,63.0,-3.0,-4.0,-980.0,-165.0
-8.0,-254.0,-28.0,8.0,63.0,-3.0,-4.0,-977.0,-167.0
-7.0,-255.0,-30.0,6.0,64.0,-3.0,0.0,-976.0,-163.0
-8.0,-253.0,-30.0,5.0,65.0,-4.0,0.0,-979.0,-163.0
-8.0,-255.0,-28.0,5.0,66.0,-4.0,-7.0,-974.0,-160.0
-8.0,-256.0,-31.0,6.0,66.0,-3.0,1.0,-975.0,-169.0
-5.0,-253.0,-31.0,8.0,68.0,-5.0,-7.0,-975.0,-159.0
-7.0,-254.0,-27.0,5.0,68.0,-4.0,0.0,-973.0,-158.0
-8.0,-250.0,-31.0,2.0,68.0,-4.0,-6.0,-979.0,-160.0
-6.0,-256.0,-28.0,0.0,69.0,-5.0,-2.0,-971.0,-159.0
-7.0,-254.0,-27.0,-4.0,69.0,-3.0,7.0,-976.0,-160.0
-7.0,-253.0,-29.0,-5.0,68.0,-4.0,5.0,-977.0,-158.0
-4.0,-253.0,-31.0,-6.0,67.0,-3.0,6.0,-989.0,-161.0
-6.0,-257.0,-28.0,-3.0,68.0,-5.0,4.0,-985.0,-157.0
-6.0,-259.0,-24.0,-1.0,68.0,-6.0,2.0,-987.0,-155.0
-4.0,-259.0,-29.0,3.0,67.0,-7.0,6.0,-986.0,-156.0
-6.0,-253.0,-27.0,8.0,67.0,-8.0,-2.0,-995.0,-158.0
-7.0,-257.0,-30.0,12.0,66.0,-8.0,2.0,-987.0,-161.0
-10.0,-257.0,-34.0,15.0,67.0,-5.0,2.0,-998.0,-162.0
-7.0,-257.0,-32.0,18.0,69.0,-3.0,-2.0,-994.0,-165.0
-6.0,-256.0,-34.0,19.0,74.0,1.0,4.0,-992.0,-165.0
-8.0,-255.0,-30.0,19.0,75.0,2.0,-4.0,-993.0,-168.0
1.0,-256.0,-25.0,18.0,76.0,3.0,-3.0,-992.0,-167.0
-7.0,-256.0,-35.0,17.0,78.0,4.0,-3.0,-999.0,-166.0
-9.0,-260.0,-32.0,16.0,79.0,5.0,-5.0,-987.0,-163.0
-9.0,-255.0,-28.0,19.0,79.0,3.0,-6.0,-982.0,-162.0
-10.0,-255.0,-29.0,21.0,78.0,2.0,-5.0,-985.0,-159.0
-6.0,-256.0,-29.0,22.0,79.0,1.0,-6.0,-980.0,-155.0
-8.0,-251.0,-28.0,23.0,79.0,0.0,1.0,-979.0,-164.0
-10.0,-253.0,-32.0,24.0,81.0,0.0,1.0,-983.0,-164.0
-6.0,-254.0,-23.0,24.0,83.0,-1.0,-2.0,-975.0,-161.0
-5.0,-253.0,-36.0,24.0,84.0,-3.0,1.0,-973.0,-159.0
-8.0,-255.0,-31.0,23.0,86.0,-4.0,2.0,-980.0,-157.0
-8.0,-254.0,-25.0,21.0,86.0,-3.0,0.0,-985.0,-161.0
-6.0,-257.0,-24.0,19.0,86.0,-2.0,-1.0,-983.0,-157.0
-6.0,-255.0,-29.0,19.0,85.0,0.0,0.0,-983.0,-156.0
-6.0,-255.0,-30.0,20.0,85.0,1.0,-2.0,-985.0,-153.0
-8.0,-255.0,-27.0,21.0,83.0,3.0,4.0,-993.0,-157.0
-7.0,-255.0,-29.0,23.0,84.0,6.0,-3.0,-988.0,-150.0
-8.0,-260.0,-30.0,24.0,85.0,6.0,-3.0,-991.0,-149.0
-12.0,-252.0,-31.0,24.0,82.0,9.0,-4.0,-982.0,-153.0
-7.0,-257.0,-29.0,23.0,78.0,10.0,-9.0,-985.0,-154.0
-7.0,-256.0,-30.0,23.0,74.0,12.0,-8.0,-992.0,-154.0
-12.0,-258.0,-23.0,27.0,68.0,11.0,-7.0,-993.0,-157.0
-8.0,-256.0,-34.0,30.0,63.0,11.0,-4.0,-976.0,-160.0
-7.0,-255.0,-28.0,32.0,59.0,11.0,-8.0,-975.0,-162.0
-10.0,-251.0,-33.0,31.0,59.0,11.0,-4.0,-979.0,-163.0
-7.0,-253.0,-35.0,27.0,59.0,10.0,-8.0,-974.0,-163.0
-11.0,-255.0,-35.0,23.0,61.0,9.0,-8.0,-975.0,-164.0
-9.0,-256.0,-28.0,17.0,62.0,8.0,-8.0,-978.0,-164.0
-9.0,-254.0,-28.0,11.0,63.0,6.0,-6.0,-975.0,-157.0
-10.0,-255.0,-29.0,10.0,65.0,6.0,-9.0,-979.0,-156.0
-13.0,-252.0,-28.0,9.0,65.0,8.0,-8.0,-981.0,-151.0
-6.0,-255.0,-34.0,11.0,66.0,8.0,-5.0,-993.0,-157.0
-6.0,-256.0,-28.0,13.0,67.0,7.0,-5.0,-984.0,-146.0
-9.0,-255.0,-28.0,18.0,68.0,6.0,-5.0,-989.0,-148.0
-8.0,-252.0,-28.0,22.0,68.0,3.0,-5.0,-982.0,-146.0
-10.0,-255.0,-25.0,24.0,66.0,2.0,-2.0,-985.0,-145.0
-8.0,-256.0,-24.0,27.0,65.0,1.0,-9.0,-979.0,-145.0
-7.0,-255.0,-28.0,28.0,63.0,0.0,-6.0,-982.0,-147.0
-9.0,-254.0,-27.0,28.0,62.0,0.0,-8.0,-982.0,-146.0
-7.0,-253.0,-28.0,26.0,58.0,0.0,-7.0,-977.0,-150.0
-9.0,-252.0,-27.0,23.0,55.0,0.0,-6.0,-980.0,-149.0
-8.0,-256.0,-30.0,19.0,54.0,1.0,-5.0,-980.0,-156.0
-8.0,-252.0,-34.0,14.0,54.0,1.0,-6.0,-990.0,-164.0
-9.0,-254.0,-32.0,9.0,54.0,1.0,-7.0,-978.0,-163.0
-8.0,-252.0,-32.0,7.0,55.0,1.0,-8.0,-976.0,-161.0
-8.0,-256.0,-30.0,4.0,57.0,2.0,-5.0,-996.0,-163.0
-9.0,-257.0,-29.0,3.0,58.0,0.0,-3.0,-985.0,-158.0
-5.0,-257.0,-33.0,4.0,59.0,0.0,0.0,-994.0,-157.0
-9.0,-256.0,-29.0,8.0,61.0,-1.0,-3.0,-997.0,-156.0
-9.0,-255.0,-24.0,13.0,61.0,-2.0,-3.0,-986.0,-157.0
-9.0,-253.0,-30.0,16.0,62.0,-4.0,-3.0,-992.0,-156.0
-8.0,-253.0,-25.0,19.0,61.0,-3.0,-7.0,-988.0,-153.0
-12.0,-254.0,-28.0,20.0,60.0,-3.0,-8.0,-986.0,-152.0
-9.0,-257.0,-28.0,20.0,58.0,-5.0,-3.0,-983.0,-154.0
-6.0,-254.0,-28.0,18.0,57.0,-4.0,-6.0,-986.0,-153.0
-11.0,-255.0,-30.0,17.0,54.0,-2.0,-9.0,-979.0,-152.0
-10.0,-255.0,-29.0,18.0,53.0,-1.0,-5.0,-983.0,-156.0
-13.0,-253.0,-31.0,20.0,51.0,0.0,-9.0,-985.0,-151.0
-11.0,-253.0,-27.0,21.0,50.0,2.0,-12.0,-988.0,-155.0
-8.0,-254.0,-30.0,21.0,50.0,2.0,-5.0,-978.0,-156.0
-9.0,-257.0,-30.0,22.0,50.0,2.0,-11.0,-979.0,-155.0
-9.0,-254.0,-30.0,22.0,49.0,4.0,-10.0,-985.0,-155.0
-7.0,-256.0,-29.0,22.0,49.0,3.0,-6.0,-984.0,-154.0
-9.0,-254.0,-28.0,19.0,51.0,4.0,-6.0,-983.0,-158.0
-7.0,-256.0,-30.0,20.0,51.0,3.0,-4.0,-992.0,-160.0
-5.0,-261.0,-27.0,21.0,55.0,1.0,-3.0,-989.0,-155.0
-10.0,-254.0,-25.0,23.0,56.0,0.0,-5.0,-997.0,-148.0
-8.0,-257.0,-28.0,26.0,59.0,0.0,2.0,-987.0,-144.0
-7.0,-256.0,-30.0,28.0,58.0,-1.0,-2.0,-983.0,-144.0
-10.0,-257.0,-28.0,30.0,58.0,-2.0,-5.0,-984.0,-143.0
-9.0,-253.0,-26.0,31.0,58.0,-2.0,2.0,-981.0,-148.0
-12.0,-253.0,-24.0,31.0,56.0,-3.0,-4.0,-979.0,-147.0
-6.0,-254.0,-29.0,29.0,55.0,-3.0,-1.0,-981.0,-151.0
-8.0,-254.0,-27.0,27.0,54.0,-2.0,-5.0,-981.0,-154.0
-12.0,-254.0,-27.0,23.0,54.0,-1.0,1.0,-980.0,-152.0
-5.0,-259.0,-26.0,18.0,54.0,-2.0,1.0,-976.0,-150.0
-4.0,-257.0,-28.0,15.0,56.0,-3.0,-3.0,-983.0,-148.0
-8.0,-256.0,-27.0,13.0,56.0,-2.0,-5.0,-984.0,-150.0
-9.0,-255.0,-24.0,13.0,55.0,-3.0,-2.0,-991.0,-149.0
-10.0,-253.0,-28.0,15.0,56.0,-3.0,-5.0,-988.0,-146.0
-8.0,-255.0,-24.0,15.0,57.0,-3.0,0.0,-993.0,-151.0
-6.0,-259.0,-26.0,15.0,57.0,-2.0,-2.0,-986.0,-148.0
-7.0,-254.0,-23.0,16.0,59.0,-3.0,-8.0,-980.0,-146.0
-7.0,-257.0,-27.0,18.0,59.0,-4.0,-3.0,-982.0,-146.0
-10.0,-258.0,-27.0,19.0,60.0,-5.0,-3.0,-988.0,-146.0
-6.0,-251.0,-28.0,21.0,62.0,-6.0,-7.0,-981.0,-150.0
-6.0,-253.0,-24.0,19.0,61.0,-6.0,-5.0,-977.0,-150.0
-4.0,-255.0,-35.0,18.0,61.0,-8.0,-11.0,-975.0,-154.0
-6.0,-254.0,-27.0,15.0,60.0,-7.0,-5.0,-976.0,-148.0
-6.0,-252.0,-22.0,11.0,58.0,-7.0,-1.0,-974.0,-145.0
-7.0,-251.0,-27.0,8.0,60.0,-8.0,-3.0,-981.0,-145.0
-9.0,-254.0,-26.0,8.0,62.0,-9.0,0.0,-982.0,-144.0
-8.0,-254.0,-30.0,6.0,62.0,-10.0,2.0,-978.0,-143.0
-9.0,-255.0,-25.0,6.0,62.0,-11.0,1.0,-979.0,-142.0
-9.0,-255.0,-26.0,5.0,61.0,-9.0,-5.0,-994.0,-143.0
-10.0,-257.0,-27.0,4.0,59.0,-10.0,-1.0,-990.0,-144.0
-9.0,-256.0,-25.0,3.0,60.0,-10.0,0.0,-983.0,-144.0
-6.0,-260.0,-29.0,2.0,61.0,-9.0,4.0,-992.0,-145.0
-8.0,-258.0,-25.0,3.0,60.0,-9.0,-3.0,-983.0,-145.0
-8.0,-258.0,-27.0,6.0,62.0,-8.0,-2.0,-989.0,-140.0
-8.0,-260.0,-22.0,10.0,63.0,-8.0,4.0,-984.0,-140.0
-7.0,-256.0,-23.0,13.0,62.0,-6.0,0.0,-984.0,-141.0
-9.0,-257.0,-27.0,14.0,64.0,-7.0,-4.0,-995.0,-142.0
-8.0,-256.0,-25.0,14.0,63.0,-7.0,4.0,-991.0,-145.0
-9.0,-258.0,-25.0,14.0,65.0,-8.0,2.0,-985.0,-147.0
-8.0,-256.0,-26.0,12.0,65.0,-9.0,1.0,-997.0,-143.0
-6.0,-254.0,-25.0,9.0,68.0,-9.0,1.0,-993.0,-144.0
-5.0,-255.0,-25.0,8.0,68.0,-9.0,-1.0,-992.0,-147.0
-5.0,-256.0,-26.0,8.0,69.0,-7.0,0.0,-984.0,-143.0
-6.0,-252.0,-27.0,8.0,70.0,-7.0,3.0,-999.0,-146.0
-2.0,-255.0,-24.0,10.0,72.0,-6.0,1.0,-989.0,-143.0
-8.0,-255.0,-27.0,13.0,73.0,-7.0,-1.0,-993.0,-137.0
-8.0,-255.0,-24.0,16.0,73.0,-6.0,-1.0,-994.0,-137.0
-10.0,-257.0,-23.0,20.0,74.0,-5.0,-2.0,-994.0,-135.0
-11.0,-256.0,-24.0,26.0,74.0,-6.0,-4.0,-984.0,-137.0
-10.0,-256.0,-25.0,33.0,72.0,-7.0,-3.0,-996.0,-138.0
-8.0,-255.0,-23.0,39.0,70.0,-7.0,-2.0,-985.0,-137.0
-9.0,-254.0,-23.0,43.0,71.0,-8.0,-3.0,-985.0,-141.0
-4.0,-255.0,-27.0,45.0,71.0,-6.0,-3.0,-988.0,-139.0
-9.0,-254.0,-25.0,46.0,73.0,-6.0,1.0,-984.0,-139.0
-9.0,-254.0,-21.0,46.0,74.0,-6.0,4.0,-986.0,-139.0
-3.0,-255.0,-26.0,43.0,76.0,-4.0,-4.0,-985.0,-143.0
-8.0,-253.0,-20.0,42.0,76.0,-5.0,1.0,-982.0,-137.0
-5.0,-256.0,-27.0,41.0,78.0,-5.0,4.0,-989.0,-140.0
-5.0,-256.0,-24.0,39.0,77.0,-6.0,0.0,-986.0,-138.0
-8.0,-256.0,-26.0,38.0,80.0,-5.0,5.0,-992.0,-140.0
-7.0,-259.0,-23.0,37.0,80.0,-4.0,2.0,-986.0,-140.0
-8.0,-257.0,-25.0,37.0,79.0,-5.0,-5.0,-993.0,-139.0
-7.0,-255.0,-24.0,37.0,80.0,-4.0,1.0,-994.0,-136.0
-10.0,-256.0,-24.0,38.0,80.0,-4.0,4.0,-997.0,-133.0
-7.0,-255.0,-23.0,40.0,81.0,-6.0,-6.0,-997.0,-132.0
-3.0,-256.0,-17.0,42.0,81.0,-5.0,-4.0,-988.0,-134.0
-10.0,-256.0,-22.0,45.0,80.0,-4.0,-1.0,-997.0,-133.0
-7.0,-259.0,-23.0,48.0,79.0,-4.0,0.0,-996.0,-134.0
-10.0,-258.0,-22.0,51.0,78.0,-4.0,-2.0,-986.0,-130.0
-8.0,-259.0,-21.0,52.0,77.0,-5.0,0.0,-982.0,-132.0
-7.0,-256.0,-23.0,53.0,75.0,-2.0,-5.0,-985.0,-135.0
-6.0,-255.0,-23.0,54.0,75.0,-5.0,-5.0,-984.0,-134.0
-9.0,-254.0,-20.0,51.0,75.0,-3.0,-3.0,-984.0,-135.0
-5.0,-253.0,-23.0,47.0,76.0,-3.0,-2.0,-978.0,-134.0
-8.0,-253.0,-21.0,43.0,76.0,-4.0,2.0,-981.0,-133.0
-6.0,-256.0,-21.0,37.0,74.0,-4.0,0.0,-983.0,-127.0
-9.0,-256.0,-21.0,30.0,72.0,-4.0,-4.0,-984.0,-128.0
-6.0,-257.0,-20.0,24.0,72.0,-3.0,-2.0,-986.0,-124.0
-7.0,-256.0,-21.0,22.0,71.0,-4.0,-1.0,-992.0,-129.0
-5.0,-254.0,-20.0,21.0,70.0,-5.0,-2.0,-998.0,-122.0
-7.0,-257.0,-20.0,22.0,71.0,-4.0,5.0,-987.0,-122.0
-7.0,-258.0,-21.0,24.0,72.0,-5.0,2.0,-987.0,-121.0
-8.0,-256.0,-21.0,26.0,73.0,-4.0,2.0,-987.0,-117.0
-9.0,-255.0,-21.0,27.0,75.0,-5.0,-1.0,-991.0,-117.0
-8.0,-257.0,-21.0,28.0,75.0,-3.0,2.0,-987.0,-119.0
-9.0,-254.0,-20.0,31.0,74.0,-4.0,-4.0,-994.0,-127.0
-8.0,-256.0,-22.0,33.0,72.0,-3.0,-5.0,-981.0,-122.0
-1.0,-258.0,-23.0,37.0,70.0,-5.0,2.0,-985.0,-127.0
-9.0,-255.0,-20.0,39.0,67.0,-4.0,0.0,-986.0,-124.0
-5.0,-255.0,-23.0,41.0,64.0,-6.0,1.0,-985.0,-126.0
-8.0,-254.0,-24.0,39.0,62.0,-6.0,0.0,-979.0,-135.0
-8.0,-255.0,-21.0,32.0,62.0,-4.0,4.0,-981.0,-135.0
-8.0,-254.0,-23.0,25.0,61.0,-2.0,-5.0,-984.0,-129.0
-8.0,-257.0,-22.0,20.0,59.0,-2.0,-6.0,-989.0,-128.0
-9.0,-256.0,-20.0,17.0,57.0,-1.0,-2.0,-997.0,-126.0
-9.0,-256.0,-21.0,18.0,55.0,-1.0,-4.0,-999.0,-121.0
-7.0,-260.0,-19.0,22.0,54.0,-1.0,2.0,-1001.0,-124.0
-8.0,-257.0,-24.0,28.0,54.0,-1.0,-1.0,-1005.0,-124.0
-9.0,-258.0,-22.0,35.0,54.0,0.0,1.0,-1006.0,-124.0
-8.0,-258.0,-20.0,40.0,56.0,-1.0,-5.0,-1001.0,-116.0
-4.0,-260.0,-21.0,45.0,57.0,0.0,-6.0,-1004.0,-121.0
-8.0,-257.0,-18.0,50.0,58.0,-2.0,-5.0,-1002.0,-116.0
-7.0,-256.0,-22.0,52.0,59.0,-4.0,-8.0,-992.0,-118.0
-7.0,-256.0,-18.0,51.0,60.0,-5.0,-3.0,-982.0,-115.0
-8.0,-254.0,-19.0,50.0,60.0,-7.0,-2.0,-991.0,-116.0
-5.0,-256.0,-19.0,46.0,59.0,-6.0,1.0,-987.0,-116.0
-8.0,-257.0,-20.0,41.0,57.0,-7.0,7.0,-982.0,-118.0
-7.0,-257.0,-19.0,36.0,56.0,-8.0,2.0,-982.0,-121.0
-7.0,-250.0,-17.0,34.0,54.0,-8.0,2.0,-991.0,-121.0
-8.0,-254.0,-20.0,30.0,52.0,-8.0,0.0,-989.0,-119.0
-8.0,-257.0,-20.0,31.0,54.0,-6.0,1.0,-993.0,-119.0
-9.0,-254.0,-23.0,30.0,55.0,-5.0,-4.0,-998.0,-118.0
-6.0,-258.0,-20.0,32.0,61.0,-4.0,0.0,-998.0,-115.0
-8.0,-260.0,-18.0,36.0,63.0,-3.0,2.0,-999.0,-117.0
-8.0,-256.0,-20.0,42.0,66.0,-3.0,-2.0,-1003.0,-108.0
-8.0,-258.0,-17.0,47.0,68.0,-2.0,3.0,-1003.0,-108.0
-9.0,-255.0,-20.0,53.0,69.0,-2.0,-4.0,-1003.0,-115.0
-7.0,-253.0,-16.0,59.0,70.0,-3.0,5.0,-999.0,-113.0
-7.0,-256.0,-20.0,66.0,69.0,-3.0,0.0,-1000.0,-104.0
-11.0,-258.0,-20.0,70.0,70.0,-3.0,5.0,-998.0,-110.0
-2.0,-259.0,-20.0,74.0,71.0,-3.0,-3.0,-1003.0,-107.0
-7.0,-256.0,-20.0,76.0,72.0,-3.0,2.0,-999.0,-108.0
-8.0,-256.0,-14.0,78.0,70.0,-5.0,7.0,-992.0,-101.0
-6.0,-255.0,-18.0,78.0,68.0,-6.0,6.0,-992.0,-95.0
-7.0,-256.0,-18.0,72.0,62.0,-7.0,1.0,-992.0,-97.0
-7.0,-254.0,-22.0,51.0,56.0,-8.0,6.0,-987.0,-117.0
-7.0,-252.0,-22.0,21.0,48.0,-9.0,1.0,-981.0,-133.0
-7.0,-251.0,-27.0,-21.0,43.0,-12.0,5.0,-971.0,-150.0
-7.0,-250.0,-29.0,-69.0,42.0,-14.0,2.0,-966.0,-159.0
-9.0,-249.0,-29.0,-115.0,44.0,-15.0,-3.0,-959.0,-163.0
-7.0,-244.0,-33.0,-154.0,53.0,-15.0,0.0,-963.0,-150.0
-10.0,-250.0,-24.0,-179.0,66.0,-12.0,0.0,-966.0,-138.0
-6.0,-253.0,-20.0,-183.0,78.0,-9.0,0.0,-973.0,-116.0
-9.0,-256.0,-18.0,-167.0,87.0,-7.0,-4.0,-992.0,-95.0
-10.0,-258.0,-13.0,-134.0,91.0,-6.0,-4.0,-1000.0,-88.0
-10.0,-260.0,-9.0,-90.0,92.0,-3.0,-7.0,-1009.0,-83.0
-8.0,-263.0,-14.0,-42.0,88.0,-1.0,-4.0,-1011.0,-88.0
-8.0,-261.0,-18.0,3.0,84.0,-3.0,1.0,-1009.0,-98.0
-7.0,-261.0,-19.0,36.0,78.0,-2.0,-1.0,-1012.0,-114.0
-9.0,-255.0,-19.0,55.0,71.0,-2.0,5.0,-1002.0,-123.0
-9.0,-258.0,-23.0,58.0,65.0,-2.0,4.0,-1002.0,-128.0
-3.0,-259.0,-28.0,56.0,61.0,0.0,6.0,-1005.0,-128.0
-4.0,-259.0,-24.0,50.0,58.0,2.0,6.0,-1003.0,-127.0
-6.0,-259.0,-19.0,47.0,56.0,3.0,5.0,-1008.0,-123.0
-7.0,-260.0,-18.0,48.0,56.0,3.0,5.0,-1005.0,-119.0
-7.0,-257.0,-16.0,56.0,55.0,2.0,1.0,-1008.0,-108.0
-8.0,-258.0,-17.0,69.0,54.0,3.0,0.0,-1008.0,-100.0
-6.0,-258.0,-18.0,82.0,54.0,2.0,-5.0,-1002.0,-103.0
-7.0,-256.0,-17.0,96.0,55.0,1.0,-4.0,-1001.0,-102.0
-6.0,-257.0,-17.0,108.0,55.0,1.0,-5.0,-996.0,-106.0
-8.0,-256.0,-20.0,117.0,56.0,1.0,-1.0,-983.0,-105.0
-10.0,-254.0,-18.0,122.0,58.0,3.0,-5.0,-998.0,-106.0
-9.0,-256.0,-17.0,126.0,59.0,3.0,-8.0,-992.0,-104.0
-11.0,-257.0,-17.0,125.0,61.0,3.0,-10.0,-988.0,-106.0
-7.0,-259.0,-20.0,127.0,62.0,4.0,-8.0,-994.0,-103.0
-10.0,-261.0,-21.0,129.0,64.0,3.0,-10.0,-993.0,-104.0
-11.0,-257.0,-16.0,135.0,66.0,5.0,-11.0,-1003.0,-103.0
-10.0,-259.0,-17.0,142.0,65.0,5.0,-20.0,-995.0,-97.0
-12.0,-253.0,-18.0,147.0,65.0,4.0,-14.0,-1000.0,-101.0
-9.0,-261.0,-20.0,155.0,62.0,3.0,-6.0,-1006.0,-103.0
-6.0,-259.0,-18.0,165.0,60.0,2.0,4.0,-1006.0,-106.0
-9.0,-258.0,-19.0,177.0,61.0,2.0,-4.0,-1014.0,-104.0
-7.0,-261.0,-18.0,192.0,64.0,1.0,-6.0,-1008.0,-106.0
-6.0,-263.0,-17.0,206.0,66.0,1.0,0.0,-1010.0,-101.0
-7.0,-261.0,-20.0,222.0,66.0,-1.0,-1.0,-1010.0,-104.0
-8.0,-261.0,-18.0,237.0,65.0,-4.0,-1.0,-1011.0,-101.0
-9.0,-259.0,-18.0,251.0,65.0,-5.0,-4.0,-1011.0,-106.0
-10.0,-262.0,-17.0,262.0,63.0,-6.0,2.0,-1012.0,-103.0
-6.0,-257.0,-15.0,271.0,60.0,-5.0,-2.0,-1008.0,-108.0
-6.0,-260.0,-17.0,278.0,58.0,-7.0,1.0,-1006.0,-107.0
-8.0,-261.0,-18.0,284.0,58.0,-8.0,1.0,-1008.0,-115.0
-5.0,-257.0,-19.0,289.0,59.0,-9.0,0.0,-1003.0,-118.0
-7.0,-258.0,-16.0,293.0,61.0,-8.0,-2.0,-988.0,-114.0
-8.0,-251.0,-12.0,291.0,64.0,-9.0,-4.0,-996.0,-112.0
-7.0,-259.0,-19.0,291.0,70.0,-11.0,-4.0,-978.0,-106.0
-10.0,-254.0,-19.0,289.0,74.0,-12.0,-2.0,-991.0,-108.0
-8.0,-256.0,-19.0,286.0,76.0,-13.0,-3.0,-987.0,-102.0
-7.0,-253.0,-19.0,283.0,76.0,-14.0,-5.0,-979.0,-103.0
-9.0,-256.0,-15.0,279.0,77.0,-11.0,1.0,-979.0,-100.0
-10.0,-254.0,-17.0,274.0,76.0,-11.0,0.0,-983.0,-99.0
-10.0,-252.0,-16.0,267.0,76.0,-10.0,5.0,-980.0,-99.0
-6.0,-253.0,-16.0,259.0,74.0,-12.0,-4.0,-976.0,-95.0
-10.0,-251.0,-17.0,246.0,73.0,-12.0,-4.0,-972.0,-93.0
-8.0,-251.0,-15.0,235.0,72.0,-11.0,1.0,-974.0,-94.0
-10.0,-251.0,-14.0,218.0,70.0,-11.0,-3.0,-967.0,-90.0
-8.0,-253.0,-11.0,201.0,71.0,-9.0,-9.0,-969.0,-80.0
-9.0,-253.0,-11.0,186.0,70.0,-6.0,-5.0,-973.0,-83.0
-10.0,-249.0,-14.0,168.0,71.0,-4.0,-11.0,-973.0,-76.0
-8.0,-250.0,-13.0,154.0,73.0,0.0,-9.0,-971.0,-74.0
-9.0,-250.0,-5.0,139.0,75.0,0.0,-13.0,-976.0,-72.0
-11.0,-251.0,-4.0,125.0,77.0,2.0,-8.0,-979.0,-63.0
-8.0,-253.0,-7.0,117.0,80.0,4.0,-9.0,-978.0,-61.0
-9.0,-252.0,-7.0,111.0,79.0,5.0,-8.0,-980.0,-55.0
-11.0,-255.0,-2.0,110.0,79.0,5.0,-8.0,-987.0,-52.0
-11.0,-257.0,-5.0,109.0,79.0,4.0,-14.0,-986.0,-51.0
-18.0,-262.0,-4.0,112.0,78.0,5.0,-12.0,-986.0,-49.0
-11.0,-256.0,1.0,115.0,74.0,4.0,-16.0,-985.0,-48.0
-11.0,-254.0,-1.0,118.0,70.0,5.0,-14.0,-993.0,-38.0
-11.0,-259.0,-1.0,121.0,68.0,5.0,-14.0,-991.0,-43.0
-11.0,-261.0,-6.0,123.0,66.0,7.0,-7.0,-987.0,-43.0
-11.0,-257.0,-3.0,124.0,66.0,6.0,-11.0,-986.0,-35.0
-8.0,-257.0,-2.0,123.0,65.0,6.0,-11.0,-981.0,-39.0
-8.0,-255.0,-4.0,120.0,64.0,7.0,-7.0,-988.0,-37.0
-10.0,-257.0,-1.0,115.0,63.0,6.0,-9.0,-994.0,-38.0
-7.0,-257.0,1.0,109.0,64.0,7.0,-7.0,-990.0,-40.0
-9.0,-254.0,-2.0,105.0,65.0,7.0,-6.0,-993.0,-41.0
-9.0,-258.0,1.0,102.0,64.0,8.0,-8.0,-1000.0,-42.0
-11.0,-259.0,4.0,103.0,65.0,6.0,-9.0,-1007.0,-36.0
-13.0,-257.0,-2.0,105.0,66.0,6.0,-10.0,-1006.0,-34.0
-8.0,-260.0,0.0,110.0,64.0,5.0,2.0,-1010.0,-30.0
-11.0,-259.0,0.0,117.0,65.0,5.0,-10.0,-1006.0,-32.0
-9.0,-257.0,-2.0,125.0,64.0,4.0,-8.0,-1008.0,-29.0
-9.0,-257.0,3.0,129.0,63.0,4.0,1.0,-1014.0,-25.0
-9.0,-260.0,1.0,134.0,65.0,4.0,-5.0,-1007.0,-31.0
-10.0,-259.0,1.0,137.0,67.0,4.0,-5.0,-1007.0,-25.0
-8.0,-255.0,2.0,140.0,66.0,4.0,-2.0,-1004.0,-30.0
-8.0,-257.0,-4.0,144.0,66.0,2.0,1.0,-1006.0,-36.0
-9.0,-256.0,-3.0,146.0,64.0,0.0,-4.0,-998.0,-36.0
-5.0,-254.0,-1.0,146.0,63.0,0.0,-5.0,-994.0,-39.0
-11.0,-256.0,-2.0,145.0,61.0,1.0,-5.0,-985.0,-38.0
-10.0,-252.0,-3.0,137.0,60.0,0.0,1.0,-978.0,-41.0
-10.0,-250.0,-4.0,126.0,61.0,0.0,-2.0,-977.0,-37.0
-13.0,-250.0,-1.0,111.0,62.0,-1.0,-5.0,-975.0,-36.0
-6.0,-254.0,3.0,96.0,64.0,-1.0,3.0,-977.0,-31.0
-6.0,-252.0,-2.0,81.0,64.0,-1.0,-3.0,-973.0,-28.0
-6.0,-253.0,4.0,68.0,68.0,-1.0,-6.0,-969.0,-25.0
-6.0,-251.0,8.0,57.0,70.0,-1.0,0.0,-976.0,-15.0
-7.0,-255.0,3.0,47.0,72.0,3.0,-2.0,-978.0,-12.0
-5.0,-254.0,8.0,41.0,75.0,4.0,-4.0,-991.0,-7.0
