acc1_x,acc1_y,acc1_z,gyro_x,gyro_y,gyro_z,acc2_x,acc2_y,acc2_z
-5.0,-254.0,-22.0,-25.0,48.0,-4.0,18.0,-983.0,-119.0
-1.0,-252.0,-19.0,-26.0,49.0,-4.0,17.0,-985.0,-117.0
-3.0,-256.0,-19.0,-26.0,48.0,-6.0,13.0,-996.0,-119.0
0.0,-256.0,-20.0,-27.0,48.0,-5.0,17.0,-985.0,-120.0
-5.0,-256.0,-24.0,-29.0,48.0,-6.0,11.0,-986.0,-125.0
-2.0,-263.0,-17.0,-33.0,49.0,-5.0,16.0,-992.0,-121.0
-4.0,-257.0,-21.0,-37.0,48.0,-7.0,16.0,-1006.0,-127.0
-2.0,-256.0,-19.0,-42.0,49.0,-4.0,20.0,-998.0,-120.0
1.0,-257.0,-19.0,-48.0,49.0,-6.0,26.0,-992.0,-120.0
0.0,-258.0,-20.0,-52.0,52.0,-8.0,27.0,-999.0,-123.0
0.0,-257.0,-19.0,-52.0,56.0,-10.0,32.0,-993.0,-120.0
0.0,-255.0,-24.0,-55.0,62.0,-10.0,30.0,-993.0,-120.0
1.0,-257.0,-23.0,-61.0,70.0,-8.0,39.0,-1002.0,-133.0
5.0,-258.0,-26.0,-71.0,79.0,-9.0,47.0,-1004.0,-147.0
6.0,-262.0,-26.0,-89.0,87.0,-10.0,53.0,-1009.0,-149.0
11.0,-260.0,-28.0,-108.0,94.0,-15.0,68.0,-1018.0,-151.0
13.0,-263.0,-29.0,-132.0,103.0,-20.0,83.0,-1025.0,-145.0
11.0,-262.0,-25.0,-156.0,111.0,-25.0,82.0,-1023.0,-144.0
12.0,-265.0,-20.0,-179.0,113.0,-33.0,84.0,-1027.0,-141.0
8.0,-262.0,-24.0,-199.0,116.0,-41.0,80.0,-1031.0,-141.0
9.0,-263.0,-26.0,-217.0,116.0,-49.0,85.0,-1024.0,-145.0
10.0,-262.0,-30.0,-238.0,120.0,-57.0,78.0,-1024.0,-156.0
9.0,-261.0,-30.0,-261.0,125.0,-64.0,63.0,-1018.0,-168.0
5.0,-260.0,-30.0,-282.0,131.0,-69.0,59.0,-1012.0,-165.0
2.0,-260.0,-30.0,-302.0,138.0,-74.0,49.0,-1002.0,-170.0
1.0,-257.0,-30.0,-318.0,140.0,-77.0,35.0,-987.0,-160.0
-2.0,-255.0,-30.0,-328.0,141.0,-75.0,21.0,-986.0,-157.0
-6.0,-255.0,-29.0,-335.0,140.0,-72.0,2.0,-983.0,-155.0
-13.0,-256.0,-28.0,-341.0,131.0,-67.0,-15.0,-982.0,-146.0
-18.0,-252.0,-23.0,-345.0,119.0,-59.0,-35.0,-976.0,-149.0
-16.0,-255.0,-29.0,-346.0,102.0,-47.0,-39.0,-980.0,-152.0
-18.0,-253.0,-23.0,-340.0,92.0,-32.0,-36.0,-969.0,-144.0
-16.0,-249.0,-24.0,-330.0,85.0,-14.0,-35.0,-965.0,-141.0
-12.0,-247.0,-26.0,-313.0,80.0,5.0,-13.0,-965.0,-142.0
-7.0,-246.0,-27.0,-297.0,75.0,20.0,8.0,-951.0,-149.0
0.0,-248.0,-25.0,-289.0,67.0,30.0,20.0,-944.0,-150.0
2.0,-249.0,-24.0,-289.0,57.0,38.0,42.0,-950.0,-142.0
7.0,-248.0,-22.0,-289.0,46.0,44.0,49.0,-958.0,-133.0
9.0,-248.0,-22.0,-287.0,33.0,46.0,58.0,-958.0,-126.0
9.0,-249.0,-25.0,-282.0,21.0,47.0,74.0,-959.0,-130.0
12.0,-252.0,-22.0,-272.0,11.0,48.0,82.0,-960.0,-130.0
12.0,-251.0,-24.0,-260.0,4.0,50.0,83.0,-963.0,-127.0
15.0,-253.0,-23.0,-249.0,-3.0,51.0,88.0,-961.0,-130.0
12.0,-249.0,-24.0,-239.0,-11.0,53.0,91.0,-963.0,-134.0
11.0,-251.0,-22.0,-229.0,-24.0,55.0,86.0,-965.0,-124.0
9.0,-249.0,-20.0,-219.0,-37.0,57.0,75.0,-967.0,-125.0
9.0,-249.0,-23.0,-205.0,-51.0,60.0,66.0,-959.0,-129.0
7.0,-248.0,-23.0,-191.0,-67.0,62.0,63.0,-956.0,-134.0
4.0,-246.0,-26.0,-179.0,-80.0,63.0,55.0,-954.0,-140.0
3.0,-247.0,-28.0,-170.0,-90.0,62.0,46.0,-942.0,-151.0
2.0,-243.0,-31.0,-167.0,-99.0,57.0,38.0,-928.0,-159.0
1.0,-242.0,-28.0,-171.0,-104.0,47.0,38.0,-926.0,-157.0
0.0,-239.0,-29.0,-171.0,-105.0,35.0,31.0,-918.0,-166.0
1.0,-238.0,-33.0,-168.0,-108.0,18.0,37.0,-903.0,-166.0
2.0,-235.0,-35.0,-166.0,-106.0,-6.0,36.0,-895.0,-168.0
3.0,-230.0,-25.0,-162.0,-103.0,-33.0,38.0,-881.0,-165.0
1.0,-230.0,-26.0,-159.0,-96.0,-65.0,40.0,-872.0,-153.0
4.0,-226.0,-23.0,-149.0,-88.0,-99.0,47.0,-864.0,-135.0
4.0,-223.0,-21.0,-137.0,-80.0,-136.0,52.0,-867.0,-118.0
4.0,-224.0,-17.0,-116.0,-72.0,-174.0,51.0,-860.0,-106.0
4.0,-228.0,-8.0,-95.0,-65.0,-214.0,46.0,-880.0,-85.0
3.0,-232.0,-14.0,-78.0,-62.0,-251.0,35.0,-895.0,-78.0
0.0,-238.0,-11.0,-71.0,-60.0,-283.0,32.0,-918.0,-81.0
-1.0,-248.0,-15.0,-77.0,-62.0,-310.0,17.0,-940.0,-94.0
-7.0,-252.0,-19.0,-100.0,-64.0,-327.0,14.0,-977.0,-116.0
-6.0,-259.0,-27.0,-135.0,-64.0,-334.0,5.0,-1012.0,-139.0
-10.0,-270.0,-34.0,-177.0,-65.0,-330.0,1.0,-1044.0,-176.0
-11.0,-281.0,-42.0,-236.0,-62.0,-319.0,-3.0,-1086.0,-200.0
-11.0,-284.0,-44.0,-295.0,-56.0,-299.0,-14.0,-1106.0,-222.0
-12.0,-288.0,-51.0,-345.0,-49.0,-282.0,-17.0,-1122.0,-243.0
-17.0,-297.0,-45.0,-385.0,-43.0,-255.0,-10.0,-1135.0,-225.0
-11.0,-291.0,-48.0,-409.0,-35.0,-224.0,-13.0,-1123.0,-222.0
-13.0,-286.0,-46.0,-419.0,-26.0,-190.0,-14.0,-1115.0,-214.0
-12.0,-285.0,-41.0,-418.0,-19.0,-154.0,-18.0,-1095.0,-204.0
-12.0,-280.0,-35.0,-411.0,-13.0,-120.0,-18.0,-1070.0,-188.0
-12.0,-272.0,-33.0,-401.0,-7.0,-88.0,-6.0,-1061.0,-169.0
-5.0,-267.0,-23.0,-387.0,-6.0,-60.0,7.0,-1039.0,-145.0
-3.0,-261.0,-22.0,-369.0,-12.0,-33.0,18.0,-1023.0,-131.0
0.0,-259.0,-19.0,-351.0,-24.0,-12.0,26.0,-1014.0,-112.0
0.0,-254.0,-15.0,-340.0,-38.0,8.0,33.0,-985.0,-93.0
6.0,-250.0,-12.0,-335.0,-55.0,25.0,45.0,-979.0,-81.0
2.0,-248.0,-7.0,-333.0,-69.0,36.0,53.0,-959.0,-67.0
4.0,-244.0,-9.0,-330.0,-75.0,43.0,53.0,-940.0,-63.0
4.0,-243.0,-5.0,-328.0,-77.0,43.0,52.0,-925.0,-57.0
5.0,-245.0,-5.0,-328.0,-68.0,41.0,53.0,-926.0,-53.0
5.0,-244.0,-1.0,-326.0,-53.0,38.0,50.0,-930.0,-40.0
4.0,-246.0,-1.0,-327.0,-33.0,36.0,46.0,-933.0,-34.0
4.0,-246.0,-1.0,-334.0,-14.0,33.0,42.0,-942.0,-48.0
5.0,-248.0,-7.0,-348.0,9.0,32.0,42.0,-956.0,-56.0
2.0,-251.0,-10.0,-371.0,34.0,30.0,40.0,-979.0,-69.0
4.0,-256.0,-16.0,-399.0,59.0,31.0,44.0,-989.0,-88.0
9.0,-258.0,-21.0,-425.0,83.0,34.0,53.0,-1010.0,-115.0
7.0,-264.0,-25.0,-447.0,105.0,37.0,65.0,-1020.0,-133.0
12.0,-268.0,-31.0,-463.0,121.0,43.0,78.0,-1032.0,-142.0
12.0,-272.0,-27.0,-463.0,135.0,50.0,81.0,-1047.0,-147.0
12.0,-271.0,-28.0,-445.0,142.0,58.0,88.0,-1053.0,-148.0
11.0,-274.0,-31.0,-416.0,149.0,65.0,77.0,-1058.0,-142.0
11.0,-271.0,-19.0,-378.0,151.0,74.0,71.0,-1045.0,-140.0
7.0,-269.0,-22.0,-336.0,151.0,86.0,55.0,-1039.0,-142.0
2.0,-266.0,-24.0,-305.0,147.0,100.0,50.0,-1025.0,-142.0
1.0,-262.0,-20.0,-274.0,145.0,113.0,38.0,-1023.0,-129.0
1.0,-262.0,-20.0,-245.0,144.0,124.0,30.0,-1014.0,-120.0
0.0,-257.0,-19.0,-218.0,145.0,131.0,17.0,-984.0,-109.0
-5.0,-252.0,-17.0,-194.0,144.0,134.0,6.0,-973.0,-100.0
-11.0,-249.0,-15.0,-171.0,138.0,137.0,-14.0,-959.0,-102.0
-18.0,-243.0,-18.0,-154.0,132.0,135.0,-34.0,-934.0,-105.0
-20.0,-242.0,-18.0,-143.0,126.0,131.0,-47.0,-934.0,-110.0
-22.0,-243.0,-21.0,-135.0,118.0,124.0,-64.0,-921.0,-119.0
-24.0,-240.0,-20.0,-129.0,113.0,118.0,-75.0,-922.0,-118.0
-27.0,-239.0,-20.0,-126.0,109.0,110.0,-80.0,-923.0,-119.0
-30.0,-240.0,-21.0,-122.0,108.0,101.0,-83.0,-923.0,-122.0
-30.0,-243.0,-20.0,-117.0,107.0,93.0,-90.0,-934.0,-122.0
-32.0,-245.0,-22.0,-115.0,102.0,86.0,-90.0,-935.0,-131.0
-26.0,-247.0,-31.0,-113.0,96.0,78.0,-82.0,-948.0,-130.0
-26.0,-249.0,-22.0,-113.0,89.0,70.0,-84.0,-958.0,-134.0
-25.0,-253.0,-26.0,-111.0,81.0,64.0,-76.0,-965.0,-139.0
-24.0,-253.0,-27.0,-109.0,77.0,57.0,-55.0,-979.0,-138.0
-17.0,-255.0,-21.0,-107.0,74.0,50.0,-38.0,-993.0,-139.0
-14.0,-258.0,-24.0,-101.0,70.0,42.0,-19.0,-1002.0,-133.0
-6.0,-259.0,-21.0,-93.0,71.0,35.0,-5.0,-1002.0,-130.0
-2.0,-257.0,-19.0,-83.0,73.0,25.0,15.0,-1006.0,-121.0
1.0,-256.0,-20.0,-73.0,77.0,15.0,41.0,-1002.0,-117.0
6.0,-255.0,-17.0,-63.0,82.0,5.0,53.0,-993.0,-104.0
10.0,-253.0,-14.0,-48.0,89.0,-4.0,73.0,-991.0,-102.0
13.0,-251.0,-15.0,-34.0,99.0,-13.0,89.0,-973.0,-97.0
17.0,-251.0,-15.0,-20.0,113.0,-23.0,93.0,-976.0,-98.0
21.0,-250.0,-20.0,-8.0,127.0,-33.0,106.0,-958.0,-93.0
22.0,-248.0,-17.0,-1.0,147.0,-42.0,116.0,-943.0,-94.0
22.0,-248.0,-14.0,5.0,167.0,-52.0,118.0,-938.0,-94.0
25.0,-246.0,-12.0,8.0,186.0,-60.0,123.0,-935.0,-96.0
22.0,-243.0,-15.0,5.0,206.0,-63.0,129.0,-933.0,-93.0
24.0,-246.0,-20.0,1.0,227.0,-68.0,124.0,-932.0,-99.0
22.0,-243.0,-19.0,-5.0,249.0,-71.0,129.0,-940.0,-96.0
24.0,-247.0,-17.0,-10.0,270.0,-75.0,128.0,-942.0,-90.0
16.0,-246.0,-18.0,-15.0,287.0,-75.0,125.0,-943.0,-96.0
22.0,-248.0,-15.0,-19.0,299.0,-73.0,118.0,-955.0,-96.0
16.0,-249.0,-15.0,-23.0,313.0,-71.0,111.0,-957.0,-93.0
16.0,-248.0,-16.0,-25.0,320.0,-70.0,99.0,-961.0,-95.0
13.0,-247.0,-19.0,-27.0,326.0,-64.0,94.0,-965.0,-100.0
11.0,-252.0,-19.0,-28.0,331.0,-55.0,84.0,-961.0,-120.0
10.0,-250.0,-20.0,-34.0,338.0,-43.0,72.0,-961.0,-123.0
6.0,-253.0,-17.0,-43.0,347.0,-32.0,57.0,-963.0,-123.0
4.0,-249.0,-21.0,-49.0,359.0,-18.0,49.0,-958.0,-116.0
0.0,-249.0,-20.0,-50.0,367.0,-2.0,34.0,-960.0,-115.0
-3.0,-251.0,-20.0,-44.0,368.0,12.0,18.0,-966.0,-111.0
-2.0,-252.0,-19.0,-37.0,371.0,29.0,13.0,-964.0,-103.0
-8.0,-253.0,-18.0,-28.0,371.0,46.0,2.0,-969.0,-108.0
-11.0,-253.0,-20.0,-21.0,373.0,63.0,-5.0,-976.0,-107.0
-10.0,-255.0,-19.0,-15.0,376.0,79.0,-12.0,-981.0,-113.0
-13.0,-257.0,-17.0,-14.0,382.0,93.0,-12.0,-1001.0,-120.0
-12.0,-261.0,-18.0,-10.0,386.0,107.0,-8.0,-1009.0,-119.0
-12.0,-264.0,-19.0,-7.0,394.0,120.0,-16.0,-1019.0,-114.0
-10.0,-266.0,-19.0,1.0,400.0,128.0,-5.0,-1025.0,-104.0
-9.0,-263.0,-19.0,14.0,406.0,137.0,-7.0,-1021.0,-107.0
-9.0,-265.0,-17.0,28.0,413.0,146.0,1.0,-1025.0,-101.0
-3.0,-263.0,-17.0,51.0,425.0,152.0,12.0,-1022.0,-97.0
2.0,-263.0,-12.0,79.0,435.0,157.0,19.0,-1024.0,-96.0
0.0,-264.0,-12.0,109.0,446.0,163.0,22.0,-1019.0,-86.0
0.0,-262.0,-13.0,138.0,456.0,166.0,30.0,-1017.0,-83.0
0.0,-258.0,-11.0,161.0,462.0,169.0,35.0,-1005.0,-76.0
0.0,-256.0,-9.0,190.0,464.0,173.0,29.0,-980.0,-70.0
0.0,-253.0,-9.0,213.0,467.0,176.0,18.0,-970.0,-71.0
-5.0,-249.0,-11.0,222.0,472.0,179.0,11.0,-957.0,-73.0
-8.0,-249.0,-8.0,224.0,477.0,181.0,-2.0,-958.0,-73.0
-14.0,-250.0,-6.0,223.0,478.0,180.0,-31.0,-949.0,-66.0
-24.0,-246.0,-10.0,217.0,476.0,180.0,-58.0,-961.0,-62.0
-28.0,-249.0,-4.0,207.0,471.0,177.0,-83.0,-961.0,-62.0
-32.0,-249.0,-9.0,197.0,465.0,175.0,-90.0,-961.0,-63.0
-36.0,-247.0,-11.0,182.0,461.0,170.0,-103.0,-965.0,-79.0
-38.0,-248.0,-13.0,162.0,463.0,165.0,-115.0,-962.0,-85.0
-36.0,-249.0,-9.0,127.0,464.0,158.0,-114.0,-965.0,-85.0
-34.0,-255.0,-6.0,96.0,466.0,151.0,-101.0,-978.0,-61.0
-31.0,-259.0,-4.0,78.0,465.0,142.0,-93.0,-1019.0,-45.0
-33.0,-272.0,0.0,72.0,451.0,123.0,-93.0,-1044.0,-28.0
-31.0,-280.0,1.0,72.0,428.0,93.0,-86.0,-1081.0,-35.0
-34.0,-286.0,-6.0,70.0,416.0,63.0,-100.0,-1112.0,-61.0
-41.0,-290.0,-10.0,53.0,403.0,32.0,-122.0,-1134.0,-68.0
-45.0,-299.0,-3.0,22.0,385.0,-1.0,-140.0,-1157.0,-55.0
-51.0,-309.0,-5.0,-2.0,363.0,-37.0,-150.0,-1185.0,-35.0
-55.0,-311.0,3.0,-8.0,331.0,-72.0,-178.0,-1201.0,-23.0
-57.0,-310.0,-3.0,-6.0,292.0,-100.0,-184.0,-1206.0,-29.0
-59.0,-310.0,-6.0,8.0,260.0,-118.0,-194.0,-1205.0,-37.0
-64.0,-311.0,-9.0,22.0,228.0,-130.0,-197.0,-1202.0,-70.0
-64.0,-308.0,-11.0,37.0,203.0,-134.0,-216.0,-1192.0,-81.0
-64.0,-307.0,-16.0,58.0,178.0,-131.0,-217.0,-1184.0,-91.0
-62.0,-303.0,-16.0,77.0,151.0,-120.0,-215.0,-1174.0,-100.0
-64.0,-304.0,-17.0,94.0,128.0,-106.0,-215.0,-1172.0,-103.0
-67.0,-306.0,-23.0,104.0,106.0,-88.0,-236.0,-1178.0,-122.0
-73.0,-309.0,-36.0,112.0,75.0,-65.0,-255.0,-1193.0,-173.0
-58.0,-322.0,-48.0,101.0,41.0,-28.0,-210.0,-1252.0,-249.0
-32.0,-340.0,-67.0,52.0,23.0,27.0,-85.0,-1330.0,-290.0
-23.0,-351.0,-62.0,-37.0,17.0,69.0,-62.0,-1369.0,-300.0
-33.0,-357.0,-51.0,-141.0,-15.0,94.0,-79.0,-1390.0,-270.0
-45.0,-366.0,-31.0,-201.0,-75.0,114.0,-104.0,-1417.0,-177.0
-41.0,-375.0,-23.0,-185.0,-145.0,142.0,-111.0,-1443.0,-134.0
-37.0,-372.0,-20.0,-119.0,-208.0,169.0,-88.0,-1433.0,-124.0
-32.0,-366.0,-28.0,-47.0,-265.0,193.0,-83.0,-1404.0,-138.0
-42.0,-351.0,-23.0,15.0,-322.0,210.0,-113.0,-1364.0,-144.0
-48.0,-347.0,-28.0,67.0,-379.0,221.0,-146.0,-1336.0,-150.0
-57.0,-344.0,-27.0,124.0,-434.0,226.0,-171.0,-1316.0,-180.0
-61.0,-329.0,-46.0,180.0,-483.0,223.0,-177.0,-1285.0,-216.0
-53.0,-321.0,-58.0,205.0,-524.0,223.0,-163.0,-1245.0,-272.0
-48.0,-311.0,-64.0,187.0,-554.0,221.0,-157.0,-1209.0,-308.0
-48.0,-300.0,-70.0,149.0,-571.0,215.0,-153.0,-1170.0,-326.0
-47.0,-293.0,-69.0,120.0,-582.0,203.0,-153.0,-1141.0,-315.0
-47.0,-288.0,-62.0,107.0,-582.0,186.0,-155.0,-1097.0,-297.0
-45.0,-272.0,-62.0,120.0,-571.0,162.0,-145.0,-1055.0,-291.0
-37.0,-262.0,-63.0,151.0,-542.0,141.0,-125.0,-1017.0,-293.0
-29.0,-251.0,-61.0,180.0,-499.0,111.0,-100.0,-958.0,-305.0
-22.0,-237.0,-68.0,199.0,-448.0,76.0,-76.0,-909.0,-315.0
-16.0,-221.0,-78.0,202.0,-392.0,42.0,-51.0,-860.0,-334.0
-6.0,-210.0,-82.0,187.0,-338.0,9.0,-19.0,-808.0,-358.0
1.0,-193.0,-94.0,158.0,-282.0,-21.0,12.0,-742.0,-416.0
12.0,-172.0,-96.0,112.0,-216.0,-45.0,47.0,-673.0,-434.0
19.0,-155.0,-99.0,57.0,-144.0,-62.0,88.0,-597.0,-458.0
31.0,-138.0,-104.0,10.0,-65.0,-71.0,131.0,-538.0,-461.0
41.0,-123.0,-98.0,-27.0,10.0,-77.0,172.0,-457.0,-449.0
51.0,-111.0,-96.0,-51.0,82.0,-76.0,210.0,-409.0,-432.0
58.0,-109.0,-88.0,-70.0,144.0,-73.0,244.0,-382.0,-407.0
69.0,-105.0,-83.0,-82.0,192.0,-73.0,280.0,-382.0,-374.0
71.0,-102.0,-88.0,-83.0,225.0,-72.0,296.0,-399.0,-353.0
73.0,-119.0,-70.0,-87.0,241.0,-70.0,322.0,-450.0,-333.0
77.0,-138.0,-74.0,-104.0,244.0,-68.0,323.0,-523.0,-323.0
69.0,-162.0,-68.0,-144.0,234.0,-61.0,305.0,-621.0,-313.0
63.0,-188.0,-70.0,-209.0,219.0,-50.0,271.0,-719.0,-306.0
48.0,-221.0,-60.0,-292.0,197.0,-35.0,226.0,-821.0,-286.0
35.0,-243.0,-55.0,-369.0,166.0,-21.0,187.0,-909.0,-263.0
24.0,-263.0,-51.0,-426.0,132.0,-10.0,148.0,-1018.0,-236.0
13.0,-288.0,-45.0,-455.0,94.0,1.0,97.0,-1098.0,-224.0
8.0,-306.0,-47.0,-456.0,56.0,6.0,74.0,-1170.0,-237.0
0.0,-323.0,-52.0,-427.0,20.0,7.0,39.0,-1236.0,-248.0
-9.0,-337.0,-60.0,-373.0,-8.0,6.0,7.0,-1288.0,-279.0
-18.0,-343.0,-73.0,-311.0,-37.0,-3.0,-32.0,-1323.0,-328.0
-33.0,-342.0,-85.0,-250.0,-64.0,-16.0,-75.0,-1338.0,-381.0
-37.0,-339.0,-96.0,-197.0,-85.0,-32.0,-111.0,-1314.0,-430.0
-46.0,-335.0,-101.0,-149.0,-100.0,-48.0,-137.0,-1284.0,-454.0
-47.0,-326.0,-102.0,-93.0,-102.0,-66.0,-153.0,-1249.0,-465.0
-47.0,-313.0,-98.0,-30.0,-97.0,-87.0,-157.0,-1201.0,-458.0
-43.0,-300.0,-88.0,42.0,-85.0,-115.0,-142.0,-1124.0,-399.0
-38.0,-281.0,-80.0,126.0,-71.0,-148.0,-119.0,-1073.0,-346.0
-35.0,-265.0,-66.0,196.0,-55.0,-182.0,-100.0,-1020.0,-306.0
-28.0,-252.0,-59.0,284.0,-44.0,-213.0,-84.0,-958.0,-268.0
-29.0,-238.0,-49.0,346.0,-36.0,-239.0,-78.0,-909.0,-240.0
-22.0,-226.0,-45.0,380.0,-33.0,-259.0,-59.0,-872.0,-221.0
-17.0,-216.0,-42.0,385.0,-37.0,-277.0,-41.0,-835.0,-204.0
-11.0,-211.0,-39.0,376.0,-49.0,-294.0,-20.0,-813.0,-200.0
-7.0,-203.0,-40.0,355.0,-68.0,-305.0,1.0,-799.0,-195.0
0.0,-200.0,-39.0,323.0,-97.0,-315.0,15.0,-795.0,-201.0
0.0,-205.0,-43.0,281.0,-124.0,-321.0,35.0,-796.0,-207.0
3.0,-210.0,-43.0,231.0,-151.0,-321.0,49.0,-815.0,-212.0
6.0,-213.0,-45.0,180.0,-172.0,-322.0,68.0,-837.0,-222.0
12.0,-223.0,-44.0,125.0,-184.0,-322.0,70.0,-855.0,-224.0
11.0,-229.0,-51.0,72.0,-190.0,-318.0,83.0,-867.0,-232.0
13.0,-227.0,-49.0,22.0,-190.0,-314.0,73.0,-887.0,-232.0
12.0,-234.0,-51.0,-26.0,-183.0,-307.0,78.0,-902.0,-237.0
11.0,-234.0,-48.0,-68.0,-177.0,-300.0,78.0,-906.0,-239.0
8.0,-239.0,-51.0,-111.0,-170.0,-295.0,77.0,-909.0,-236.0
11.0,-237.0,-51.0,-145.0,-168.0,-293.0,76.0,-918.0,-226.0
8.0,-237.0,-45.0,-166.0,-167.0,-295.0,66.0,-910.0,-211.0
9.0,-236.0,-42.0,-174.0,-171.0,-302.0,62.0,-908.0,-204.0
6.0,-233.0,-35.0,-170.0,-176.0,-308.0,59.0,-897.0,-189.0
5.0,-225.0,-36.0,-160.0,-181.0,-314.0,55.0,-870.0,-181.0
8.0,-226.0,-31.0,-145.0,-185.0,-320.0,67.0,-861.0,-175.0
11.0,-222.0,-30.0,-128.0,-187.0,-324.0,70.0,-846.0,-161.0
11.0,-207.0,-27.0,-112.0,-191.0,-326.0,70.0,-831.0,-145.0
10.0,-211.0,-26.0,-96.0,-194.0,-322.0,78.0,-811.0,-141.0
11.0,-207.0,-21.0,-85.0,-199.0,-313.0,83.0,-795.0,-136.0
14.0,-204.0,-21.0,-73.0,-204.0,-300.0,90.0,-788.0,-122.0
17.0,-198.0,-18.0,-59.0,-210.0,-280.0,96.0,-782.0,-116.0
21.0,-205.0,-15.0,-39.0,-214.0,-259.0,95.0,-780.0,-96.0
18.0,-204.0,-14.0,-14.0,-220.0,-237.0,92.0,-777.0,-91.0
16.0,-206.0,-9.0,14.0,-224.0,-212.0,87.0,-787.0,-80.0
14.0,-212.0,-4.0,44.0,-229.0,-183.0,78.0,-800.0,-69.0
10.0,-213.0,-12.0,72.0,-230.0,-152.0,61.0,-818.0,-73.0
6.0,-218.0,-13.0,92.0,-229.0,-121.0,56.0,-839.0,-76.0
7.0,-225.0,-9.0,116.0,-224.0,-89.0,52.0,-853.0,-82.0
4.0,-225.0,-13.0,136.0,-218.0,-60.0,52.0,-864.0,-87.0
4.0,-226.0,-12.0,157.0,-210.0,-36.0,48.0,-866.0,-91.0
6.0,-225.0,-17.0,178.0,-198.0,-11.0,54.0,-865.0,-102.0
8.0,-227.0,-20.0,202.0,-184.0,15.0,58.0,-862.0,-117.0
10.0,-228.0,-21.0,227.0,-165.0,38.0,74.0,-861.0,-123.0
12.0,-223.0,-21.0,255.0,-143.0,58.0,78.0,-862.0,-126.0
17.0,-222.0,-21.0,281.0,-121.0,77.0,101.0,-853.0,-131.0
21.0,-223.0,-22.0,305.0,-100.0,90.0,126.0,-850.0,-131.0
28.0,-222.0,-24.0,316.0,-75.0,103.0,133.0,-850.0,-132.0
31.0,-217.0,-22.0,314.0,-56.0,114.0,155.0,-846.0,-130.0
29.0,-218.0,-17.0,302.0,-40.0,120.0,157.0,-836.0,-137.0
34.0,-214.0,-21.0,284.0,-24.0,123.0,173.0,-835.0,-139.0
38.0,-215.0,-23.0,249.0,-13.0,126.0,175.0,-839.0,-143.0
38.0,-215.0,-25.0,203.0,-2.0,125.0,177.0,-837.0,-146.0
33.0,-219.0,-32.0,148.0,8.0,124.0,171.0,-844.0,-149.0
31.0,-223.0,-29.0,91.0,14.0,123.0,150.0,-863.0,-158.0
24.0,-232.0,-29.0,31.0,18.0,122.0,132.0,-883.0,-164.0
17.0,-240.0,-28.0,-29.0,22.0,124.0,103.0,-913.0,-169.0
6.0,-248.0,-25.0,-84.0,23.0,125.0,67.0,-955.0,-151.0
1.0,-258.0,-23.0,-129.0,19.0,126.0,35.0,-1003.0,-142.0
-5.0,-267.0,-21.0,-161.0,12.0,128.0,7.0,-1039.0,-123.0
-13.0,-276.0,-16.0,-179.0,-1.0,127.0,-20.0,-1069.0,-113.0
-22.0,-280.0,-15.0,-186.0,-15.0,122.0,-51.0,-1099.0,-102.0
-28.0,-290.0,-12.0,-190.0,-34.0,114.0,-66.0,-1127.0,-87.0
-33.0,-295.0,-7.0,-188.0,-53.0,100.0,-88.0,-1144.0,-72.0
-39.0,-299.0,-7.0,-185.0,-75.0,84.0,-113.0,-1158.0,-57.0
-40.0,-305.0,-1.0,-178.0,-95.0,66.0,-132.0,-1177.0,-48.0
-47.0,-308.0,0.0,-171.0,-114.0,50.0,-146.0,-1188.0,-35.0
-51.0,-310.0,4.0,-163.0,-137.0,35.0,-161.0,-1202.0,-28.0
-53.0,-313.0,5.0,-153.0,-156.0,17.0,-165.0,-1215.0,-16.0
-50.0,-317.0,6.0,-141.0,-173.0,2.0,-156.0,-1214.0,3.0
-42.0,-310.0,11.0,-123.0,-189.0,-13.0,-148.0,-1209.0,14.0
-42.0,-315.0,20.0,-93.0,-206.0,-31.0,-131.0,-1207.0,34.0
-40.0,-312.0,24.0,-53.0,-228.0,-51.0,-106.0,-1205.0,56.0
-31.0,-314.0,29.0,-8.0,-256.0,-73.0,-80.0,-1208.0,76.0
-24.0,-317.0,37.0,31.0,-289.0,-95.0,-43.0,-1214.0,98.0
-12.0,-316.0,41.0,80.0,-327.0,-119.0,-10.0,-1222.0,118.0
-2.0,-321.0,36.0,134.0,-358.0,-142.0,19.0,-1229.0,121.0
0.0,-325.0,39.0,190.0,-396.0,-163.0,35.0,-1249.0,114.0
6.0,-330.0,38.0,246.0,-425.0,-179.0,66.0,-1268.0,103.0
17.0,-347.0,12.0,307.0,-443.0,-198.0,94.0,-1326.0,17.0
31.0,-367.0,-1.0,380.0,-441.0,-218.0,170.0,-1415.0,-48.0
28.0,-376.0,-43.0,430.0,-452.0,-262.0,162.0,-1474.0,-195.0
29.0,-377.0,-83.0,352.0,-492.0,-334.0,160.0,-1489.0,-364.0
32.0,-393.0,-97.0,141.0,-533.0,-398.0,175.0,-1542.0,-439.0
36.0,-425.0,-106.0,-97.0,-558.0,-456.0,177.0,-1648.0,-466.0
29.0,-447.0,-102.0,-262.0,-524.0,-507.0,150.0,-1728.0,-463.0
16.0,-456.0,-94.0,-315.0,-400.0,-547.0,83.0,-1749.0,-428.0
13.0,-440.0,-72.0,-259.0,-218.0,-567.0,74.0,-1689.0,-357.0
33.0,-424.0,-60.0,-118.0,-45.0,-572.0,157.0,-1610.0,-302.0
53.0,-404.0,-63.0,70.0,90.0,-573.0,233.0,-1536.0,-284.0
62.0,-375.0,-73.0,260.0,183.0,-569.0,272.0,-1425.0,-340.0
63.0,-347.0,-93.0,401.0,235.0,-561.0,293.0,-1295.0,-406.0
64.0,-308.0,-93.0,477.0,243.0,-541.0,298.0,-1164.0,-443.0
66.0,-269.0,-104.0,490.0,205.0,-505.0,313.0,-1025.0,-458.0
66.0,-239.0,-102.0,471.0,136.0,-456.0,309.0,-908.0,-448.0
62.0,-214.0,-92.0,442.0,53.0,-407.0,281.0,-812.0,-437.0
52.0,-192.0,-90.0,413.0,-26.0,-364.0,237.0,-732.0,-401.0
36.0,-169.0,-85.0,392.0,-95.0,-323.0,184.0,-662.0,-379.0
21.0,-150.0,-75.0,375.0,-171.0,-289.0,131.0,-585.0,-354.0
7.0,-133.0,-77.0,357.0,-258.0,-258.0,77.0,-525.0,-347.0
-5.0,-120.0,-81.0,341.0,-351.0,-239.0,23.0,-467.0,-351.0
-20.0,-109.0,-84.0,324.0,-441.0,-225.0,-38.0,-410.0,-377.0
-38.0,-96.0,-91.0,303.0,-518.0,-212.0,-121.0,-374.0,-400.0
-53.0,-98.0,-99.0,271.0,-585.0,-198.0,-179.0,-367.0,-431.0
-60.0,-106.0,-102.0,223.0,-627.0,-181.0,-215.0,-396.0,-457.0
-62.0,-122.0,-104.0,151.0,-641.0,-162.0,-224.0,-473.0,-462.0
-59.0,-147.0,-102.0,55.0,-626.0,-146.0,-226.0,-568.0,-457.0
-54.0,-173.0,-97.0,-54.0,-591.0,-138.0,-200.0,-673.0,-434.0
-44.0,-198.0,-88.0,-162.0,-543.0,-130.0,-162.0,-776.0,-412.0
-29.0,-229.0,-83.0,-254.0,-488.0,-119.0,-101.0,-877.0,-376.0
-18.0,-253.0,-81.0,-311.0,-428.0,-105.0,-39.0,-972.0,-363.0
1.0,-280.0,-77.0,-358.0,-364.0,-88.0,18.0,-1073.0,-348.0
12.0,-296.0,-73.0,-380.0,-314.0,-66.0,72.0,-1138.0,-345.0
24.0,-310.0,-74.0,-377.0,-255.0,-38.0,139.0,-1202.0,-346.0
37.0,-320.0,-80.0,-351.0,-202.0,-13.0,175.0,-1231.0,-360.0
52.0,-325.0,-81.0,-303.0,-158.0,22.0,235.0,-1240.0,-366.0
62.0,-315.0,-81.0,-237.0,-120.0,52.0,282.0,-1219.0,-375.0
68.0,-312.0,-83.0,-162.0,-88.0,84.0,312.0,-1188.0,-381.0
75.0,-300.0,-79.0,-92.0,-62.0,118.0,331.0,-1147.0,-377.0
78.0,-286.0,-78.0,-29.0,-39.0,159.0,338.0,-1099.0,-361.0
77.0,-276.0,-72.0,31.0,-15.0,203.0,333.0,-1060.0,-338.0
70.0,-262.0,-67.0,89.0,11.0,249.0,315.0,-1008.0,-316.0
65.0,-247.0,-59.0,149.0,36.0,287.0,296.0,-950.0,-294.0
63.0,-239.0,-59.0,200.0,60.0,317.0,277.0,-906.0,-283.0
60.0,-225.0,-56.0,233.0,82.0,338.0,253.0,-861.0,-260.0
48.0,-217.0,-53.0,258.0,107.0,351.0,230.0,-836.0,-253.0
44.0,-213.0,-53.0,271.0,127.0,358.0,201.0,-816.0,-262.0
40.0,-205.0,-60.0,269.0,152.0,358.0,173.0,-786.0,-260.0
30.0,-201.0,-55.0,259.0,176.0,358.0,147.0,-767.0,-260.0
26.0,-199.0,-54.0,243.0,202.0,355.0,129.0,-768.0,-256.0
21.0,-202.0,-51.0,224.0,226.0,352.0,105.0,-763.0,-257.0
12.0,-200.0,-55.0,199.0,250.0,348.0,84.0,-779.0,-259.0
6.0,-205.0,-57.0,173.0,269.0,347.0,53.0,-784.0,-255.0
0.0,-206.0,-54.0,149.0,287.0,347.0,35.0,-797.0,-251.0
0.0,-209.0,-52.0,126.0,301.0,349.0,23.0,-807.0,-257.0
0.0,-206.0,-54.0,103.0,312.0,351.0,7.0,-826.0,-259.0
-4.0,-217.0,-57.0,81.0,324.0,355.0,5.0,-830.0,-266.0
-4.0,-213.0,-59.0,56.0,334.0,361.0,-4.0,-829.0,-268.0
-10.0,-214.0,-57.0,24.0,346.0,366.0,-17.0,-836.0,-268.0
-11.0,-218.0,-54.0,-10.0,356.0,370.0,-15.0,-840.0,-264.0
-11.0,-222.0,-51.0,-40.0,365.0,376.0,-18.0,-849.0,-253.0
-14.0,-219.0,-51.0,-61.0,372.0,377.0,-22.0,-856.0,-246.0
-13.0,-222.0,-48.0,-78.0,378.0,383.0,-24.0,-856.0,-229.0
-13.0,-223.0,-45.0,-89.0,385.0,389.0,-26.0,-855.0,-218.0
-12.0,-221.0,-43.0,-96.0,393.0,396.0,-34.0,-856.0,-208.0
-16.0,-222.0,-39.0,-100.0,405.0,404.0,-33.0,-857.0,-207.0
-17.0,-217.0,-33.0,-105.0,420.0,406.0,-46.0,-844.0,-179.0
-21.0,-218.0,-35.0,-104.0,431.0,409.0,-52.0,-841.0,-182.0
-23.0,-216.0,-33.0,-108.0,444.0,405.0,-64.0,-839.0,-177.0
-27.0,-215.0,-35.0,-113.0,457.0,394.0,-62.0,-843.0,-173.0
-24.0,-219.0,-31.0,-120.0,470.0,383.0,-76.0,-844.0,-169.0
-20.0,-219.0,-31.0,-125.0,482.0,364.0,-73.0,-844.0,-165.0
-23.0,-221.0,-28.0,-128.0,493.0,338.0,-74.0,-853.0,-157.0
-23.0,-223.0,-29.0,-131.0,502.0,310.0,-69.0,-863.0,-157.0
-20.0,-225.0,-28.0,-131.0,511.0,278.0,-69.0,-869.0,-155.0
-20.0,-231.0,-26.0,-132.0,520.0,244.0,-63.0,-876.0,-159.0
-27.0,-232.0,-25.0,-130.0,526.0,207.0,-60.0,-880.0,-156.0
-20.0,-235.0,-24.0,-127.0,530.0,171.0,-55.0,-895.0,-151.0
-19.0,-238.0,-24.0,-122.0,531.0,135.0,-44.0,-906.0,-143.0
-18.0,-236.0,-24.0,-112.0,532.0,100.0,-39.0,-913.0,-139.0
-14.0,-241.0,-24.0,-97.0,528.0,69.0,-33.0,-923.0,-144.0
-13.0,-245.0,-25.0,-85.0,525.0,42.0,-24.0,-931.0,-140.0
-13.0,-246.0,-22.0,-72.0,520.0,20.0,-23.0,-935.0,-136.0
-11.0,-249.0,-22.0,-61.0,517.0,-1.0,-17.0,-951.0,-133.0
-11.0,-245.0,-21.0,-49.0,512.0,-20.0,-10.0,-948.0,-108.0
-11.0,-242.0,-17.0,-31.0,501.0,-38.0,-9.0,-944.0,-104.0
-9.0,-247.0,-19.0,-10.0,486.0,-54.0,-10.0,-934.0,-104.0
-8.0,-245.0,-17.0,15.0,471.0,-69.0,-8.0,-931.0,-101.0
-10.0,-242.0,-18.0,41.0,458.0,-81.0,-16.0,-925.0,-99.0
-14.0,-240.0,-17.0,65.0,446.0,-92.0,-19.0,-917.0,-95.0
-12.0,-238.0,-17.0,85.0,438.0,-102.0,-17.0,-913.0,-96.0
-14.0,-236.0,-16.0,101.0,437.0,-109.0,-26.0,-912.0,-102.0
-13.0,-235.0,-17.0,106.0,440.0,-117.0,-30.0,-903.0,-99.0
-13.0,-236.0,-15.0,113.0,445.0,-124.0,-33.0,-907.0,-94.0
-16.0,-239.0,-15.0,115.0,451.0,-133.0,-32.0,-907.0,-90.0
-17.0,-237.0,-16.0,114.0,454.0,-138.0,-35.0,-916.0,-92.0
-16.0,-239.0,-13.0,102.0,454.0,-145.0,-38.0,-917.0,-98.0
-17.0,-241.0,-12.0,81.0,449.0,-151.0,-45.0,-928.0,-97.0
-14.0,-252.0,-18.0,53.0,442.0,-152.0,-42.0,-940.0,-100.0
-13.0,-248.0,-18.0,25.0,438.0,-156.0,-41.0,-964.0,-108.0
-13.0,-253.0,-20.0,-4.0,440.0,-159.0,-32.0,-983.0,-109.0
-9.0,-259.0,-18.0,-31.0,448.0,-160.0,-16.0,-1019.0,-104.0
-8.0,-270.0,-19.0,-53.0,456.0,-159.0,-7.0,-1036.0,-108.0
-2.0,-276.0,-18.0,-70.0,466.0,-160.0,13.0,-1061.0,-99.0
0.0,-282.0,-14.0,-78.0,472.0,-157.0,26.0,-1089.0,-94.0
2.0,-286.0,-11.0,-82.0,475.0,-154.0,40.0,-1108.0,-80.0
3.0,-292.0,-7.0,-78.0,477.0,-148.0,47.0,-1133.0,-70.0
3.0,-299.0,0.0,-67.0,474.0,-147.0,56.0,-1153.0,-40.0
2.0,-305.0,3.0,-44.0,467.0,-143.0,53.0,-1170.0,-25.0
-3.0,-310.0,8.0,-18.0,454.0,-138.0,47.0,-1183.0,-3.0
-3.0,-307.0,14.0,11.0,435.0,-133.0,36.0,-1193.0,8.0
-5.0,-313.0,16.0,38.0,413.0,-126.0,11.0,-1202.0,17.0
-13.0,-312.0,13.0,61.0,390.0,-118.0,-15.0,-1202.0,15.0
-18.0,-311.0,11.0,80.0,365.0,-108.0,-38.0,-1203.0,18.0
-25.0,-310.0,13.0,97.0,343.0,-94.0,-64.0,-1198.0,24.0
-30.0,-306.0,20.0,113.0,324.0,-76.0,-79.0,-1184.0,38.0
-37.0,-305.0,19.0,137.0,310.0,-60.0,-96.0,-1179.0,44.0
-38.0,-301.0,22.0,162.0,302.0,-41.0,-105.0,-1173.0,49.0
-42.0,-299.0,25.0,181.0,296.0,-23.0,-113.0,-1160.0,62.0
-38.0,-298.0,29.0,199.0,294.0,-2.0,-109.0,-1143.0,74.0
-42.0,-290.0,25.0,214.0,294.0,17.0,-98.0,-1130.0,90.0
-33.0,-289.0,38.0,225.0,291.0,36.0,-87.0,-1117.0,94.0
-27.0,-283.0,33.0,232.0,287.0,55.0,-74.0,-1110.0,102.0
-25.0,-283.0,36.0,233.0,282.0,73.0,-50.0,-1104.0,101.0
-22.0,-277.0,31.0,230.0,274.0,90.0,-48.0,-1087.0,99.0
-31.0,-278.0,15.0,225.0,260.0,107.0,-81.0,-1089.0,47.0
-32.0,-279.0,-14.0,210.0,231.0,126.0,-89.0,-1095.0,-73.0
-4.0,-296.0,-37.0,153.0,226.0,166.0,-19.0,-1153.0,-180.0
8.0,-322.0,-52.0,40.0,271.0,237.0,65.0,-1255.0,-247.0
6.0,-336.0,-65.0,-128.0,305.0,291.0,75.0,-1327.0,-296.0
-2.0,-357.0,-52.0,-297.0,292.0,330.0,52.0,-1379.0,-271.0
-5.0,-385.0,-24.0,-381.0,232.0,371.0,39.0,-1463.0,-178.0
-5.0,-410.0,-5.0,-339.0,157.0,417.0,42.0,-1550.0,-65.0
-6.0,-407.0,-4.0,-208.0,84.0,463.0,25.0,-1552.0,-46.0
-20.0,-391.0,-10.0,-52.0,11.0,500.0,-32.0,-1496.0,-74.0
-38.0,-366.0,-20.0,97.0,-56.0,527.0,-97.0,-1416.0,-129.0
-52.0,-349.0,-43.0,237.0,-117.0,553.0,-157.0,-1338.0,-215.0
-63.0,-329.0,-70.0,337.0,-177.0,571.0,-194.0,-1267.0,-319.0
-63.0,-307.0,-95.0,381.0,-229.0,579.0,-209.0,-1190.0,-420.0
-62.0,-283.0,-113.0,369.0,-256.0,580.0,-216.0,-1102.0,-501.0
-53.0,-258.0,-130.0,321.0,-256.0,578.0,-200.0,-1022.0,-565.0
-49.0,-232.0,-134.0,274.0,-232.0,571.0,-180.0,-928.0,-593.0
-46.0,-223.0,-137.0,228.0,-196.0,558.0,-162.0,-861.0,-601.0
-41.0,-204.0,-141.0,207.0,-162.0,544.0,-145.0,-791.0,-594.0
-29.0,-189.0,-129.0,211.0,-107.0,530.0,-99.0,-701.0,-565.0
-11.0,-162.0,-121.0,228.0,-46.0,513.0,-42.0,-620.0,-526.0
5.0,-149.0,-117.0,244.0,20.0,496.0,32.0,-563.0,-490.0
27.0,-138.0,-103.0,252.0,91.0,473.0,110.0,-517.0,-465.0
50.0,-137.0,-98.0,251.0,157.0,440.0,189.0,-508.0,-440.0
64.0,-137.0,-95.0,242.0,223.0,398.0,256.0,-511.0,-436.0
81.0,-141.0,-95.0,220.0,281.0,348.0,327.0,-532.0,-432.0
98.0,-156.0,-88.0,177.0,329.0,291.0,388.0,-579.0,-407.0
112.0,-175.0,-88.0,116.0,368.0,231.0,443.0,-658.0,-394.0
117.0,-194.0,-78.0,46.0,402.0,170.0,468.0,-725.0,-373.0
109.0,-211.0,-72.0,-24.0,424.0,121.0,461.0,-798.0,-331.0
94.0,-233.0,-64.0,-86.0,430.0,81.0,399.0,-893.0,-306.0
80.0,-248.0,-67.0,-142.0,417.0,44.0,338.0,-968.0,-306.0
63.0,-267.0,-66.0,-203.0,390.0,8.0,272.0,-1047.0,-312.0
39.0,-285.0,-69.0,-269.0,352.0,-23.0,198.0,-1116.0,-316.0
18.0,-305.0,-69.0,-338.0,313.0,-52.0,116.0,-1176.0,-324.0
0.0,-320.0,-69.0,-400.0,282.0,-75.0,38.0,-1242.0,-324.0
-17.0,-334.0,-71.0,-443.0,262.0,-92.0,-41.0,-1287.0,-322.0
-37.0,-342.0,-66.0,-464.0,254.0,-105.0,-112.0,-1337.0,-313.0
-51.0,-351.0,-68.0,-458.0,254.0,-111.0,-175.0,-1351.0,-303.0
-64.0,-344.0,-66.0,-427.0,264.0,-114.0,-222.0,-1333.0,-306.0
-70.0,-337.0,-65.0,-373.0,271.0,-116.0,-248.0,-1284.0,-295.0
-69.0,-318.0,-60.0,-294.0,272.0,-121.0,-245.0,-1214.0,-293.0
-66.0,-297.0,-58.0,-201.0,260.0,-133.0,-225.0,-1142.0,-291.0
-61.0,-271.0,-58.0,-106.0,228.0,-156.0,-210.0,-1060.0,-281.0
-59.0,-253.0,-55.0,-24.0,183.0,-185.0,-192.0,-977.0,-267.0
-53.0,-237.0,-52.0,39.0,132.0,-216.0,-181.0,-907.0,-244.0
-45.0,-222.0,-46.0,84.0,79.0,-246.0,-166.0,-854.0,-234.0
-45.0,-204.0,-44.0,106.0,31.0,-274.0,-147.0,-803.0,-217.0
-41.0,-194.0,-41.0,114.0,-10.0,-299.0,-134.0,-757.0,-199.0
-36.0,-186.0,-39.0,108.0,-43.0,-320.0,-113.0,-729.0,-195.0
-31.0,-183.0,-37.0,86.0,-65.0,-336.0,-89.0,-713.0,-190.0
-20.0,-183.0,-36.0,50.0,-77.0,-350.0,-63.0,-702.0,-190.0
-16.0,-182.0,-36.0,2.0,-80.0,-359.0,-53.0,-706.0,-186.0
-10.0,-185.0,-32.0,-38.0,-83.0,-360.0,-23.0,-717.0,-172.0
-4.0,-186.0,-33.0,-93.0,-87.0,-358.0,7.0,-731.0,-174.0
0.0,-198.0,-31.0,-149.0,-95.0,-354.0,34.0,-750.0,-163.0
3.0,-199.0,-31.0,-199.0,-107.0,-347.0,52.0,-774.0,-159.0
11.0,-201.0,-32.0,-246.0,-119.0,-340.0,74.0,-788.0,-152.0
19.0,-209.0,-32.0,-291.0,-133.0,-327.0,89.0,-805.0,-157.0
23.0,-218.0,-30.0,-331.0,-142.0,-314.0,114.0,-821.0,-159.0
26.0,-218.0,-33.0,-364.0,-144.0,-302.0,131.0,-841.0,-163.0
30.0,-221.0,-26.0,-385.0,-142.0,-289.0,137.0,-852.0,-160.0
30.0,-224.0,-27.0,-394.0,-136.0,-279.0,151.0,-859.0,-150.0
31.0,-230.0,-26.0,-394.0,-127.0,-274.0,156.0,-874.0,-142.0
35.0,-229.0,-28.0,-383.0,-118.0,-271.0,167.0,-882.0,-134.0
33.0,-233.0,-19.0,-364.0,-112.0,-268.0,169.0,-894.0,-123.0
33.0,-233.0,-19.0,-340.0,-111.0,-266.0,171.0,-890.0,-114.0
35.0,-237.0,-14.0,-311.0,-115.0,-263.0,166.0,-900.0,-97.0
30.0,-232.0,-13.0,-277.0,-127.0,-259.0,164.0,-896.0,-86.0
27.0,-231.0,-14.0,-238.0,-139.0,-251.0,156.0,-893.0,-82.0
25.0,-227.0,-6.0,-200.0,-153.0,-240.0,140.0,-875.0,-72.0
23.0,-220.0,-7.0,-167.0,-167.0,-223.0,132.0,-863.0,-71.0
17.0,-222.0,-8.0,-136.0,-179.0,-204.0,113.0,-849.0,-68.0
16.0,-219.0,-12.0,-110.0,-185.0,-177.0,97.0,-838.0,-71.0
11.0,-215.0,-11.0,-93.0,-189.0,-151.0,79.0,-826.0,-75.0
6.0,-216.0,-10.0,-83.0,-192.0,-121.0,48.0,-827.0,-71.0
0.0,-210.0,-8.0,-77.0,-194.0,-88.0,36.0,-818.0,-68.0
0.0,-211.0,-10.0,-71.0,-197.0,-56.0,12.0,-814.0,-63.0
-8.0,-214.0,-5.0,-61.0,-204.0,-25.0,-3.0,-821.0,-60.0
-9.0,-215.0,-5.0,-52.0,-212.0,5.0,-12.0,-834.0,-55.0
-11.0,-216.0,-3.0,-40.0,-224.0,32.0,-24.0,-836.0,-50.0
-23.0,-216.0,-12.0,-28.0,-239.0,56.0,-27.0,-841.0,-57.0
-15.0,-219.0,-10.0,-19.0,-255.0,76.0,-25.0,-845.0,-60.0
-12.0,-217.0,-11.0,-12.0,-268.0,94.0,-20.0,-846.0,-73.0
-11.0,-222.0,-12.0,-7.0,-275.0,108.0,-9.0,-858.0,-80.0
-5.0,-226.0,-15.0,-2.0,-276.0,118.0,-1.0,-856.0,-89.0
0.0,-224.0,-15.0,7.0,-273.0,127.0,19.0,-863.0,-87.0
0.0,-227.0,-13.0,16.0,-265.0,134.0,27.0,-869.0,-80.0
4.0,-230.0,-15.0,30.0,-256.0,138.0,38.0,-880.0,-76.0
5.0,-235.0,-10.0,48.0,-247.0,143.0,47.0,-893.0,-74.0
8.0,-234.0,-14.0,66.0,-234.0,149.0,55.0,-897.0,-79.0
5.0,-235.0,-12.0,83.0,-220.0,153.0,65.0,-908.0,-87.0
12.0,-240.0,-13.0,97.0,-208.0,157.0,77.0,-915.0,-83.0
12.0,-239.0,-12.0,106.0,-200.0,155.0,82.0,-919.0,-76.0
15.0,-244.0,-9.0,111.0,-200.0,153.0,80.0,-930.0,-76.0
9.0,-247.0,-10.0,113.0,-204.0,151.0,75.0,-942.0,-70.0
8.0,-248.0,-10.0,112.0,-210.0,147.0,61.0,-953.0,-70.0
2.0,-251.0,-9.0,113.0,-215.0,147.0,47.0,-971.0,-77.0
-1.0,-253.0,-13.0,116.0,-217.0,146.0,26.0,-979.0,-81.0
0.0,-255.0,-12.0,114.0,-205.0,147.0,13.0,-994.0,-89.0
-8.0,-259.0,-17.0,106.0,-184.0,151.0,-5.0,-1006.0,-100.0
-4.0,-258.0,-19.0,91.0,-159.0,155.0,-7.0,-1015.0,-111.0
-6.0,-259.0,-19.0,65.0,-128.0,155.0,2.0,-1016.0,-121.0
-2.0,-259.0,-16.0,31.0,-104.0,153.0,9.0,-1012.0,-115.0
-4.0,-258.0,-19.0,-14.0,-92.0,139.0,20.0,-1018.0,-101.0
-1.0,-261.0,-9.0,-59.0,-94.0,118.0,31.0,-1029.0,-74.0
0.0,-266.0,-1.0,-103.0,-106.0,87.0,33.0,-1040.0,-40.0
2.0,-281.0,11.0,-140.0,-124.0,53.0,36.0,-1070.0,9.0
1.0,-291.0,24.0,-169.0,-146.0,17.0,45.0,-1118.0,49.0
0.0,-301.0,30.0,-186.0,-169.0,-21.0,47.0,-1169.0,77.0
3.0,-315.0,38.0,-197.0,-189.0,-58.0,44.0,-1213.0,97.0
2.0,-326.0,41.0,-197.0,-199.0,-90.0,43.0,-1256.0,120.0
1.0,-337.0,46.0,-184.0,-198.0,-119.0,44.0,-1293.0,140.0
3.0,-347.0,46.0,-152.0,-193.0,-146.0,54.0,-1332.0,145.0
8.0,-352.0,47.0,-103.0,-186.0,-176.0,62.0,-1352.0,137.0
8.0,-354.0,45.0,-48.0,-187.0,-204.0,68.0,-1363.0,141.0
11.0,-355.0,42.0,6.0,-188.0,-233.0,77.0,-1377.0,116.0
15.0,-360.0,41.0,59.0,-191.0,-263.0,90.0,-1375.0,125.0
13.0,-356.0,45.0,109.0,-194.0,-288.0,96.0,-1379.0,124.0
15.0,-358.0,44.0,161.0,-198.0,-315.0,91.0,-1376.0,131.0
11.0,-354.0,44.0,223.0,-203.0,-337.0,85.0,-1375.0,141.0
9.0,-351.0,47.0,287.0,-208.0,-357.0,86.0,-1361.0,147.0
12.0,-359.0,32.0,359.0,-203.0,-373.0,79.0,-1377.0,89.0
18.0,-374.0,14.0,457.0,-172.0,-382.0,107.0,-1426.0,14.0
22.0,-387.0,-30.0,551.0,-137.0,-404.0,138.0,-1516.0,-111.0
14.0,-380.0,-83.0,509.0,-120.0,-471.0,106.0,-1530.0,-370.0
14.0,-379.0,-112.0,255.0,-113.0,-538.0,106.0,-1528.0,-501.0
24.0,-408.0,-113.0,-84.0,-128.0,-595.0,131.0,-1612.0,-495.0
12.0,-443.0,-100.0,-330.0,-108.0,-647.0,81.0,-1708.0,-460.0
-8.0,-452.0,-70.0,-411.0,22.0,-668.0,0.0,-1746.0,-362.0
9.0,-437.0,-44.0,-322.0,210.0,-661.0,57.0,-1657.0,-220.0
31.0,-410.0,-36.0,-111.0,363.0,-641.0,159.0,-1558.0,-182.0
43.0,-383.0,-37.0,126.0,455.0,-629.0,207.0,-1463.0,-195.0
50.0,-352.0,-44.0,332.0,510.0,-625.0,229.0,-1356.0,-225.0
55.0,-317.0,-52.0,464.0,534.0,-608.0,243.0,-1218.0,-260.0
55.0,-275.0,-61.0,584.0,527.0,-574.0,266.0,-1074.0,-294.0
60.0,-234.0,-75.0,646.0,502.0,-523.0,273.0,-919.0,-341.0
64.0,-199.0,-87.0,649.0,445.0,-468.0,287.0,-791.0,-390.0
63.0,-171.0,-101.0,602.0,363.0,-396.0,295.0,-673.0,-441.0
67.0,-155.0,-115.0,525.0,270.0,-332.0,294.0,-599.0,-484.0
57.0,-139.0,-119.0,436.0,176.0,-286.0,274.0,-551.0,-529.0
43.0,-129.0,-126.0,347.0,77.0,-258.0,225.0,-509.0,-566.0
31.0,-129.0,-132.0,256.0,-27.0,-251.0,153.0,-494.0,-569.0
14.0,-122.0,-124.0,172.0,-134.0,-265.0,85.0,-471.0,-558.0
-2.0,-120.0,-120.0,100.0,-236.0,-291.0,27.0,-469.0,-524.0
-16.0,-124.0,-114.0,43.0,-321.0,-325.0,-51.0,-476.0,-508.0
-24.0,-128.0,-109.0,-3.0,-385.0,-363.0,-125.0,-512.0,-497.0
-53.0,-143.0,-108.0,-53.0,-420.0,-399.0,-185.0,-559.0,-488.0
-61.0,-161.0,-105.0,-118.0,-432.0,-430.0,-232.0,-624.0,-472.0
-69.0,-180.0,-100.0,-196.0,-423.0,-450.0,-268.0,-693.0,-451.0
-77.0,-198.0,-95.0,-282.0,-397.0,-459.0,-288.0,-776.0,-435.0
-76.0,-223.0,-92.0,-362.0,-359.0,-455.0,-284.0,-850.0,-427.0
-70.0,-243.0,-92.0,-426.0,-310.0,-433.0,-267.0,-933.0,-403.0
-59.0,-260.0,-84.0,-464.0,-258.0,-401.0,-218.0,-1019.0,-387.0
-50.0,-281.0,-81.0,-467.0,-202.0,-357.0,-173.0,-1077.0,-367.0
-35.0,-294.0,-76.0,-438.0,-152.0,-305.0,-111.0,-1129.0,-363.0
-20.0,-302.0,-80.0,-385.0,-110.0,-249.0,-53.0,-1157.0,-365.0
-6.0,-304.0,-82.0,-327.0,-77.0,-190.0,7.0,-1161.0,-368.0
7.0,-301.0,-80.0,-279.0,-59.0,-129.0,61.0,-1162.0,-371.0
24.0,-299.0,-79.0,-245.0,-53.0,-68.0,126.0,-1150.0,-363.0
34.0,-297.0,-79.0,-227.0,-54.0,-6.0,169.0,-1137.0,-360.0
47.0,-290.0,-82.0,-217.0,-64.0,58.0,215.0,-1121.0,-346.0
55.0,-282.0,-73.0,-205.0,-77.0,118.0,238.0,-1088.0,-328.0
60.0,-276.0,-67.0,-187.0,-87.0,174.0,272.0,-1060.0,-311.0
65.0,-269.0,-62.0,-162.0,-91.0,221.0,293.0,-1027.0,-300.0
70.0,-260.0,-59.0,-119.0,-91.0,260.0,312.0,-984.0,-275.0
75.0,-248.0,-53.0,-70.0,-85.0,290.0,321.0,-928.0,-265.0
75.0,-230.0,-55.0,-16.0,-76.0,307.0,339.0,-891.0,-247.0
81.0,-226.0,-49.0,41.0,-58.0,311.0,339.0,-850.0,-235.0
81.0,-217.0,-42.0,88.0,-38.0,309.0,333.0,-818.0,-221.0
79.0,-208.0,-40.0,126.0,-15.0,302.0,328.0,-796.0,-207.0
71.0,-199.0,-41.0,145.0,9.0,293.0,313.0,-765.0,-195.0
63.0,-195.0,-34.0,146.0,32.0,284.0,287.0,-751.0,-182.0
59.0,-195.0,-30.0,136.0,58.0,277.0,256.0,-750.0,-172.0
50.0,-196.0,-30.0,116.0,77.0,270.0,228.0,-751.0,-155.0
42.0,-196.0,-27.0,94.0,106.0,269.0,195.0,-757.0,-150.0
32.0,-199.0,-23.0,71.0,135.0,273.0,160.0,-765.0,-145.0
23.0,-203.0,-27.0,48.0,164.0,281.0,123.0,-778.0,-145.0
17.0,-204.0,-22.0,30.0,194.0,293.0,100.0,-786.0,-147.0
11.0,-208.0,-26.0,16.0,222.0,307.0,67.0,-805.0,-150.0
5.0,-210.0,-30.0,7.0,248.0,324.0,40.0,-803.0,-158.0
0.0,-208.0,-29.0,-6.0,275.0,346.0,17.0,-804.0,-171.0
-7.0,-211.0,-32.0,-23.0,299.0,362.0,8.0,-813.0,-167.0
-10.0,-211.0,-32.0,-41.0,322.0,377.0,-22.0,-821.0,-169.0
-14.0,-216.0,-32.0,-58.0,344.0,391.0,-29.0,-831.0,-160.0
-23.0,-214.0,-30.0,-70.0,365.0,397.0,-49.0,-832.0,-157.0
-22.0,-218.0,-23.0,-81.0,384.0,405.0,-74.0,-843.0,-142.0
-27.0,-219.0,-20.0,-93.0,398.0,406.0,-87.0,-842.0,-132.0
-31.0,-219.0,-21.0,-99.0,411.0,406.0,-95.0,-844.0,-123.0
-38.0,-225.0,-22.0,-103.0,424.0,404.0,-102.0,-842.0,-116.0
-37.0,-214.0,-22.0,-106.0,437.0,397.0,-113.0,-834.0,-114.0
-34.0,-215.0,-18.0,-111.0,449.0,386.0,-114.0,-835.0,-104.0
-35.0,-215.0,-19.0,-117.0,463.0,371.0,-113.0,-837.0,-103.0
-32.0,-219.0,-16.0,-122.0,480.0,350.0,-108.0,-833.0,-100.0
-34.0,-213.0,-17.0,-129.0,492.0,328.0,-105.0,-827.0,-97.0
-27.0,-213.0,-18.0,-134.0,503.0,300.0,-95.0,-830.0,-100.0
-25.0,-214.0,-14.0,-137.0,510.0,270.0,-89.0,-828.0,-100.0
-23.0,-213.0,-16.0,-135.0,517.0,238.0,-69.0,-822.0,-99.0
-19.0,-215.0,-16.0,-128.0,525.0,209.0,-48.0,-828.0,-101.0
-18.0,-216.0,-18.0,-121.0,532.0,181.0,-35.0,-837.0,-100.0
-14.0,-222.0,-16.0,-112.0,541.0,156.0,-30.0,-843.0,-105.0
-11.0,-225.0,-15.0,-104.0,549.0,133.0,-28.0,-853.0,-100.0
-8.0,-229.0,-13.0,-97.0,557.0,112.0,-16.0,-868.0,-89.0
-12.0,-228.0,-10.0,-90.0,568.0,94.0,-9.0,-884.0,-87.0
-8.0,-233.0,-9.0,-84.0,578.0,78.0,-6.0,-888.0,-84.0
-8.0,-237.0,-10.0,-78.0,587.0,65.0,4.0,-901.0,-77.0
-6.0,-238.0,-13.0,-72.0,594.0,53.0,2.0,-911.0,-73.0
-1.0,-236.0,-11.0,-68.0,602.0,43.0,13.0,-907.0,-86.0
-5.0,-236.0,-12.0,-67.0,607.0,35.0,18.0,-901.0,-90.0
-4.0,-234.0,-16.0,-69.0,609.0,27.0,17.0,-894.0,-100.0
-3.0,-231.0,-20.0,-75.0,611.0,22.0,16.0,-890.0,-112.0
-3.0,-227.0,-28.0,-79.0,614.0,18.0,18.0,-889.0,-114.0
-4.0,-229.0,-17.0,-82.0,615.0,15.0,18.0,-890.0,-112.0
-3.0,-234.0,-12.0,-76.0,616.0,10.0,15.0,-898.0,-100.0
-5.0,-238.0,-12.0,-64.0,615.0,9.0,7.0,-914.0,-80.0
-13.0,-246.0,-4.0,-51.0,613.0,3.0,-5.0,-933.0,-62.0
-10.0,-254.0,0.0,-37.0,608.0,-4.0,-17.0,-965.0,-40.0
-19.0,-263.0,6.0,-23.0,599.0,-11.0,-35.0,-1006.0,-16.0
-20.0,-268.0,8.0,-11.0,589.0,-16.0,-44.0,-1024.0,3.0
-25.0,-269.0,10.0,4.0,579.0,-19.0,-65.0,-1047.0,11.0
-27.0,-277.0,11.0,18.0,568.0,-21.0,-75.0,-1070.0,4.0
-28.0,-279.0,7.0,32.0,558.0,-22.0,-81.0,-1080.0,-16.0
-30.0,-278.0,-1.0,43.0,550.0,-22.0,-83.0,-1083.0,-38.0
-29.0,-278.0,-7.0,50.0,543.0,-20.0,-88.0,-1084.0,-56.0
-32.0,-278.0,-8.0,54.0,535.0,-16.0,-85.0,-1091.0,-70.0
-31.0,-281.0,-13.0,55.0,522.0,-15.0,-88.0,-1090.0,-77.0
-31.0,-280.0,-9.0,52.0,506.0,-12.0,-81.0,-1090.0,-77.0
-25.0,-284.0,-12.0,51.0,488.0,-8.0,-70.0,-1090.0,-75.0
-22.0,-279.0,-11.0,48.0,469.0,-6.0,-47.0,-1094.0,-68.0
-18.0,-284.0,-2.0,44.0,454.0,-1.0,-33.0,-1102.0,-59.0
-13.0,-288.0,1.0,42.0,434.0,1.0,-16.0,-1106.0,-34.0
-10.0,-289.0,6.0,45.0,411.0,3.0,-9.0,-1134.0,-24.0
-16.0,-291.0,7.0,48.0,387.0,4.0,-14.0,-1138.0,-1.0
-13.0,-298.0,14.0,58.0,359.0,4.0,-20.0,-1145.0,20.0
-16.0,-301.0,22.0,76.0,332.0,3.0,-24.0,-1152.0,34.0
-21.0,-303.0,27.0,100.0,307.0,2.0,-41.0,-1170.0,54.0
-25.0,-303.0,29.0,127.0,287.0,3.0,-65.0,-1176.0,74.0
-32.0,-307.0,41.0,159.0,271.0,8.0,-79.0,-1182.0,101.0
-39.0,-309.0,43.0,196.0,257.0,17.0,-108.0,-1186.0,121.0
-44.0,-307.0,50.0,237.0,247.0,33.0,-136.0,-1199.0,145.0
-52.0,-310.0,54.0,275.0,237.0,54.0,-153.0,-1203.0,162.0
-53.0,-307.0,51.0,312.0,227.0,77.0,-170.0,-1200.0,179.0
-55.0,-308.0,51.0,348.0,210.0,103.0,-181.0,-1192.0,180.0
-56.0,-307.0,51.0,381.0,190.0,129.0,-179.0,-1183.0,167.0
-52.0,-300.0,53.0,405.0,170.0,156.0,-171.0,-1167.0,167.0
-50.0,-296.0,47.0,427.0,149.0,186.0,-161.0,-1161.0,155.0
-52.0,-293.0,41.0,443.0,127.0,218.0,-161.0,-1144.0,140.0
-63.0,-286.0,-4.0,459.0,81.0,242.0,-196.0,-1131.0,-35.0
-56.0,-284.0,-57.0,422.0,11.0,257.0,-192.0,-1116.0,-237.0
-22.0,-314.0,-87.0,279.0,35.0,348.0,-87.0,-1237.0,-367.0
-1.0,-343.0,-123.0,78.0,132.0,468.0,20.0,-1377.0,-495.0
-1.0,-367.0,-150.0,-243.0,214.0,543.0,30.0,-1449.0,-645.0
12.0,-411.0,-133.0,-562.0,251.0,575.0,91.0,-1611.0,-574.0
30.0,-456.0,-87.0,-714.0,248.0,574.0,179.0,-1739.0,-405.0
18.0,-464.0,-67.0,-640.0,184.0,556.0,144.0,-1758.0,-319.0
-8.0,-440.0,-70.0,-428.0,60.0,538.0,32.0,-1666.0,-328.0
-27.0,-410.0,-82.0,-184.0,-78.0,525.0,-41.0,-1546.0,-380.0
-33.0,-374.0,-97.0,43.0,-191.0,515.0,-85.0,-1428.0,-448.0
-35.0,-326.0,-135.0,215.0,-263.0,513.0,-114.0,-1291.0,-548.0
-32.0,-285.0,-144.0,298.0,-289.0,521.0,-109.0,-1131.0,-615.0
-20.0,-243.0,-162.0,302.0,-278.0,534.0,-78.0,-976.0,-688.0
-12.0,-208.0,-173.0,267.0,-232.0,546.0,-45.0,-837.0,-721.0
-2.0,-187.0,-167.0,220.0,-158.0,558.0,-7.0,-737.0,-732.0
7.0,-175.0,-159.0,196.0,-77.0,566.0,31.0,-658.0,-682.0
15.0,-163.0,-145.0,212.0,-7.0,568.0,86.0,-598.0,-620.0
31.0,-150.0,-123.0,262.0,38.0,566.0,143.0,-549.0,-562.0
53.0,-144.0,-110.0,315.0,59.0,553.0,216.0,-531.0,-494.0
67.0,-141.0,-98.0,343.0,64.0,526.0,282.0,-535.0,-450.0
81.0,-155.0,-91.0,326.0,74.0,478.0,336.0,-575.0,-419.0
87.0,-174.0,-82.0,268.0,103.0,412.0,364.0,-667.0,-374.0
92.0,-202.0,-79.0,194.0,141.0,344.0,381.0,-760.0,-347.0
87.0,-225.0,-77.0,124.0,188.0,277.0,365.0,-861.0,-339.0
78.0,-247.0,-77.0,55.0,231.0,210.0,342.0,-946.0,-354.0
68.0,-267.0,-85.0,-26.0,263.0,142.0,304.0,-1028.0,-381.0
52.0,-282.0,-87.0,-118.0,286.0,73.0,244.0,-1108.0,-404.0
33.0,-303.0,-98.0,-213.0,300.0,9.0,149.0,-1167.0,-421.0
7.0,-311.0,-94.0,-301.0,300.0,-49.0,59.0,-1223.0,-421.0
-16.0,-323.0,-89.0,-378.0,284.0,-101.0,-34.0,-1256.0,-410.0
-39.0,-332.0,-87.0,-437.0,254.0,-145.0,-117.0,-1289.0,-389.0
-61.0,-340.0,-79.0,-469.0,223.0,-186.0,-208.0,-1317.0,-358.0
-79.0,-339.0,-66.0,-468.0,191.0,-218.0,-272.0,-1305.0,-310.0
-89.0,-335.0,-58.0,-434.0,169.0,-245.0,-311.0,-1289.0,-276.0
-89.0,-319.0,-50.0,-375.0,152.0,-267.0,-321.0,-1250.0,-247.0
-86.0,-305.0,-50.0,-298.0,141.0,-283.0,-316.0,-1189.0,-233.0
-77.0,-285.0,-49.0,-212.0,125.0,-295.0,-285.0,-1115.0,-236.0
-68.0,-262.0,-48.0,-131.0,108.0,-311.0,-245.0,-1042.0,-226.0
-57.0,-246.0,-41.0,-53.0,88.0,-331.0,-193.0,-934.0,-220.0
-44.0,-227.0,-40.0,18.0,61.0,-357.0,-150.0,-872.0,-206.0
-32.0,-216.0,-38.0,82.0,26.0,-390.0,-106.0,-812.0,-194.0
-27.0,-199.0,-32.0,128.0,-15.0,-423.0,-73.0,-759.0,-168.0
-15.0,-185.0,-31.0,175.0,-61.0,-454.0,-32.0,-715.0,-154.0
-7.0,-178.0,-23.0,207.0,-95.0,-478.0,-1.0,-682.0,-143.0
0.0,-175.0,-26.0,223.0,-129.0,-501.0,19.0,-665.0,-145.0
1.0,-170.0,-24.0,213.0,-158.0,-512.0,36.0,-659.0,-143.0
2.0,-167.0,-27.0,183.0,-181.0,-524.0,37.0,-652.0,-139.0
4.0,-166.0,-27.0,141.0,-205.0,-527.0,48.0,-656.0,-133.0
4.0,-172.0,-23.0,97.0,-231.0,-526.0,47.0,-668.0,-133.0
8.0,-182.0,-20.0,46.0,-254.0,-522.0,47.0,-695.0,-133.0
5.0,-184.0,-27.0,-5.0,-278.0,-512.0,42.0,-712.0,-140.0
2.0,-189.0,-27.0,-55.0,-305.0,-496.0,37.0,-742.0,-140.0
0.0,-198.0,-25.0,-106.0,-332.0,-475.0,36.0,-764.0,-144.0
0.0,-202.0,-26.0,-151.0,-355.0,-453.0,35.0,-793.0,-158.0
4.0,-207.0,-33.0,-193.0,-373.0,-426.0,36.0,-802.0,-175.0
5.0,-212.0,-37.0,-230.0,-385.0,-402.0,42.0,-813.0,-182.0
4.0,-211.0,-34.0,-258.0,-393.0,-379.0,50.0,-823.0,-181.0
7.0,-218.0,-33.0,-273.0,-396.0,-359.0,62.0,-820.0,-175.0
14.0,-216.0,-31.0,-271.0,-397.0,-345.0,75.0,-833.0,-163.0
13.0,-215.0,-25.0,-259.0,-398.0,-330.0,88.0,-829.0,-149.0
16.0,-215.0,-23.0,-245.0,-398.0,-317.0,94.0,-831.0,-135.0
20.0,-217.0,-19.0,-231.0,-398.0,-303.0,103.0,-824.0,-111.0
20.0,-212.0,-17.0,-217.0,-403.0,-289.0,114.0,-819.0,-93.0
22.0,-208.0,-14.0,-200.0,-409.0,-273.0,117.0,-807.0,-82.0
25.0,-208.0,-11.0,-182.0,-416.0,-253.0,131.0,-797.0,-69.0
24.0,-203.0,-9.0,-166.0,-423.0,-234.0,128.0,-786.0,-63.0
27.0,-202.0,-9.0,-158.0,-427.0,-212.0,128.0,-774.0,-64.0
25.0,-201.0,-8.0,-154.0,-433.0,-187.0,129.0,-770.0,-63.0
24.0,-204.0,-9.0,-156.0,-439.0,-162.0,133.0,-770.0,-60.0
24.0,-202.0,-13.0,-159.0,-446.0,-135.0,132.0,-782.0,-72.0
26.0,-207.0,-10.0,-158.0,-458.0,-112.0,125.0,-784.0,-85.0
22.0,-205.0,-13.0,-158.0,-475.0,-89.0,118.0,-792.0,-88.0
22.0,-206.0,-20.0,-154.0,-493.0,-68.0,114.0,-800.0,-99.0
18.0,-208.0,-13.0,-142.0,-507.0,-46.0,110.0,-807.0,-93.0
21.0,-213.0,-12.0,-120.0,-518.0,-23.0,104.0,-818.0,-84.0
16.0,-218.0,-8.0,-86.0,-523.0,-1.0,93.0,-830.0,-67.0
13.0,-221.0,-3.0,-42.0,-520.0,18.0,89.0,-843.0,-52.0
10.0,-220.0,-3.0,8.0,-514.0,38.0,84.0,-853.0,-37.0
9.0,-222.0,-1.0,53.0,-510.0,52.0,71.0,-859.0,-34.0
9.0,-222.0,-2.0,91.0,-505.0,66.0,72.0,-862.0,-34.0
6.0,-223.0,-5.0,115.0,-498.0,74.0,68.0,-864.0,-33.0
7.0,-227.0,-4.0,138.0,-489.0,79.0,63.0,-861.0,-39.0
10.0,-221.0,-5.0,153.0,-483.0,82.0,58.0,-845.0,-57.0
7.0,-219.0,-9.0,160.0,-478.0,80.0,53.0,-840.0,-82.0
2.0,-217.0,-17.0,157.0,-473.0,79.0,48.0,-831.0,-102.0
-1.0,-211.0,-20.0,150.0,-470.0,79.0,35.0,-824.0,-122.0
0.0,-212.0,-22.0,143.0,-467.0,79.0,15.0,-819.0,-129.0
-8.0,-213.0,-25.0,141.0,-461.0,79.0,-7.0,-826.0,-135.0
-13.0,-214.0,-25.0,140.0,-453.0,81.0,-27.0,-831.0,-143.0
-20.0,-217.0,-28.0,132.0,-446.0,85.0,-44.0,-842.0,-153.0
-23.0,-221.0,-28.0,113.0,-445.0,94.0,-60.0,-861.0,-142.0
-23.0,-226.0,-21.0,82.0,-450.0,104.0,-67.0,-870.0,-136.0
-28.0,-233.0,-16.0,42.0,-460.0,112.0,-67.0,-898.0,-109.0
-26.0,-239.0,-18.0,-2.0,-471.0,119.0,-67.0,-930.0,-89.0
-21.0,-248.0,-12.0,-52.0,-478.0,120.0,-47.0,-970.0,-75.0
-16.0,-262.0,-3.0,-110.0,-486.0,117.0,-32.0,-1023.0,-62.0
-12.0,-272.0,2.0,-170.0,-492.0,111.0,-16.0,-1071.0,-29.0
-1.0,-292.0,7.0,-229.0,-501.0,94.0,8.0,-1120.0,-2.0
0.0,-301.0,9.0,-272.0,-502.0,76.0,44.0,-1171.0,20.0
8.0,-315.0,20.0,-297.0,-498.0,55.0,68.0,-1214.0,33.0
14.0,-325.0,21.0,-306.0,-492.0,27.0,84.0,-1259.0,45.0
17.0,-336.0,28.0,-301.0,-481.0,-6.0,111.0,-1289.0,59.0
24.0,-346.0,30.0,-283.0,-471.0,-41.0,131.0,-1336.0,66.0
29.0,-354.0,26.0,-257.0,-458.0,-82.0,147.0,-1358.0,74.0
31.0,-358.0,30.0,-229.0,-448.0,-124.0,160.0,-1370.0,79.0
29.0,-357.0,33.0,-199.0,-436.0,-167.0,161.0,-1379.0,80.0
30.0,-357.0,30.0,-167.0,-424.0,-212.0,153.0,-1375.0,83.0
24.0,-353.0,31.0,-134.0,-406.0,-248.0,141.0,-1364.0,79.0
23.0,-350.0,34.0,-99.0,-383.0,-281.0,131.0,-1354.0,79.0
17.0,-344.0,32.0,-61.0,-363.0,-308.0,114.0,-1337.0,87.0
22.0,-340.0,33.0,-28.0,-350.0,-328.0,113.0,-1302.0,100.0
14.0,-329.0,40.0,11.0,-338.0,-344.0,114.0,-1273.0,115.0
16.0,-325.0,43.0,55.0,-329.0,-352.0,110.0,-1251.0,117.0
23.0,-316.0,46.0,90.0,-323.0,-355.0,117.0,-1223.0,141.0
31.0,-310.0,56.0,121.0,-315.0,-356.0,127.0,-1210.0,155.0
27.0,-310.0,51.0,141.0,-303.0,-352.0,139.0,-1205.0,163.0
27.0,-312.0,48.0,153.0,-290.0,-344.0,136.0,-1197.0,161.0
27.0,-308.0,48.0,156.0,-280.0,-337.0,140.0,-1202.0,159.0
26.0,-311.0,47.0,160.0,-269.0,-328.0,141.0,-1198.0,149.0
23.0,-310.0,41.0,163.0,-260.0,-321.0,129.0,-1204.0,128.0
21.0,-312.0,34.0,165.0,-250.0,-319.0,110.0,-1207.0,104.0
19.0,-312.0,25.0,158.0,-243.0,-316.0,118.0,-1214.0,72.0
18.0,-315.0,18.0,139.0,-229.0,-321.0,100.0,-1219.0,42.0
10.0,-317.0,10.0,118.0,-213.0,-323.0,86.0,-1231.0,16.0
6.0,-321.0,0.0,101.0,-196.0,-327.0,56.0,-1235.0,-13.0
-1.0,-316.0,-8.0,88.0,-177.0,-338.0,35.0,-1237.0,-55.0
-3.0,-317.0,-18.0,80.0,-158.0,-350.0,12.0,-1230.0,-125.0
-7.0,-312.0,-47.0,61.0,-125.0,-356.0,2.0,-1208.0,-226.0
0.0,-307.0,-74.0,26.0,-82.0,-359.0,27.0,-1194.0,-328.0
17.0,-301.0,-95.0,-20.0,-24.0,-361.0,89.0,-1169.0,-447.0
38.0,-297.0,-131.0,-80.0,44.0,-363.0,175.0,-1148.0,-564.0
64.0,-299.0,-157.0,-155.0,119.0,-363.0,274.0,-1144.0,-687.0
88.0,-297.0,-191.0,-244.0,195.0,-380.0,370.0,-1141.0,-798.0
109.0,-305.0,-211.0,-344.0,261.0,-418.0,455.0,-1160.0,-907.0
127.0,-312.0,-234.0,-451.0,317.0,-480.0,517.0,-1186.0,-1004.0
127.0,-314.0,-247.0,-563.0,357.0,-561.0,517.0,-1201.0,-1071.0
111.0,-315.0,-253.0,-655.0,382.0,-649.0,470.0,-1202.0,-1090.0
90.0,-315.0,-241.0,-698.0,402.0,-723.0,383.0,-1188.0,-1022.0
61.0,-310.0,-218.0,-666.0,423.0,-773.0,249.0,-1152.0,-936.0
27.0,-299.0,-193.0,-550.0,449.0,-796.0,152.0,-1120.0,-832.0
3.0,-291.0,-162.0,-375.0,473.0,-799.0,53.0,-1091.0,-721.0
-19.0,-288.0,-144.0,-177.0,482.0,-771.0,-19.0,-1089.0,-649.0
-37.0,-289.0,-134.0,3.0,460.0,-713.0,-88.0,-1092.0,-596.0
-55.0,-278.0,-122.0,154.0,418.0,-627.0,-151.0,-1076.0,-554.0
-73.0,-272.0,-123.0,280.0,355.0,-519.0,-230.0,-1056.0,-542.0
-87.0,-269.0,-126.0,364.0,277.0,-391.0,-290.0,-1054.0,-552.0
-94.0,-262.0,-121.0,422.0,190.0,-258.0,-326.0,-1029.0,-542.0
-95.0,-251.0,-120.0,477.0,103.0,-131.0,-335.0,-985.0,-545.0
-92.0,-240.0,-127.0,513.0,20.0,-19.0,-321.0,-933.0,-552.0
-77.0,-231.0,-124.0,511.0,-52.0,72.0,-262.0,-890.0,-543.0
-64.0,-218.0,-118.0,475.0,-118.0,135.0,-214.0,-850.0,-509.0
-50.0,-211.0,-103.0,400.0,-178.0,180.0,-163.0,-829.0,-464.0
-32.0,-210.0,-87.0,303.0,-226.0,213.0,-94.0,-823.0,-392.0
-13.0,-214.0,-70.0,219.0,-257.0,237.0,-21.0,-835.0,-327.0
6.0,-223.0,-58.0,155.0,-269.0,258.0,47.0,-859.0,-268.0
21.0,-233.0,-48.0,106.0,-271.0,276.0,108.0,-891.0,-233.0
28.0,-240.0,-47.0,67.0,-267.0,290.0,156.0,-918.0,-220.0
41.0,-248.0,-51.0,34.0,-260.0,306.0,189.0,-945.0,-236.0
46.0,-250.0,-53.0,-11.0,-255.0,324.0,213.0,-956.0,-258.0
47.0,-251.0,-62.0,-54.0,-246.0,345.0,225.0,-962.0,-292.0
54.0,-250.0,-64.0,-87.0,-230.0,361.0,236.0,-954.0,-304.0
56.0,-251.0,-68.0,-106.0,-209.0,372.0,242.0,-953.0,-312.0
54.0,-251.0,-67.0,-110.0,-186.0,379.0,237.0,-952.0,-304.0
46.0,-246.0,-65.0,-92.0,-161.0,383.0,223.0,-934.0,-304.0
46.0,-240.0,-66.0,-60.0,-137.0,380.0,208.0,-915.0,-308.0
41.0,-235.0,-63.0,-16.0,-110.0,367.0,192.0,-895.0,-296.0
35.0,-230.0,-61.0,37.0,-83.0,349.0,163.0,-877.0,-280.0
28.0,-222.0,-62.0,86.0,-53.0,329.0,144.0,-854.0,-276.0
24.0,-217.0,-58.0,125.0,-26.0,313.0,129.0,-829.0,-279.0
20.0,-210.0,-60.0,153.0,-2.0,300.0,107.0,-804.0,-277.0
14.0,-198.0,-56.0,175.0,22.0,294.0,87.0,-778.0,-262.0
10.0,-194.0,-55.0,195.0,42.0,291.0,67.0,-739.0,-263.0
6.0,-188.0,-59.0,211.0,59.0,293.0,51.0,-722.0,-266.0
3.0,-184.0,-55.0,220.0,77.0,297.0,44.0,-702.0,-275.0
2.0,-179.0,-60.0,214.0,94.0,302.0,30.0,-686.0,-276.0
0.0,-178.0,-62.0,199.0,116.0,312.0,27.0,-695.0,-275.0
1.0,-185.0,-57.0,177.0,139.0,323.0,31.0,-705.0,-264.0
0.0,-184.0,-54.0,146.0,164.0,333.0,23.0,-712.0,-256.0
1.0,-188.0,-49.0,96.0,186.0,347.0,26.0,-737.0,-241.0
0.0,-193.0,-44.0,40.0,209.0,364.0,33.0,-760.0,-228.0
2.0,-205.0,-46.0,-17.0,228.0,382.0,34.0,-789.0,-212.0
3.0,-212.0,-37.0,-67.0,249.0,400.0,35.0,-816.0,-204.0
1.0,-216.0,-35.0,-114.0,271.0,418.0,28.0,-844.0,-190.0
0.0,-222.0,-36.0,-152.0,292.0,437.0,16.0,-861.0,-185.0
-5.0,-229.0,-35.0,-177.0,314.0,451.0,11.0,-871.0,-177.0
-8.0,-231.0,-35.0,-189.0,333.0,460.0,-3.0,-891.0,-163.0
-10.0,-233.0,-29.0,-182.0,352.0,462.0,-13.0,-893.0,-163.0
-10.0,-239.0,-33.0,-165.0,366.0,456.0,-29.0,-902.0,-159.0
-16.0,-240.0,-27.0,-143.0,380.0,449.0,-36.0,-907.0,-155.0
-16.0,-241.0,-27.0,-114.0,393.0,436.0,-40.0,-910.0,-146.0
-22.0,-237.0,-21.0,-80.0,402.0,419.0,-49.0,-915.0,-135.0
-16.0,-241.0,-21.0,-46.0,411.0,402.0,-45.0,-916.0,-128.0
-15.0,-238.0,-23.0,-11.0,421.0,379.0,-44.0,-919.0,-122.0
-15.0,-240.0,-17.0,20.0,432.0,356.0,-34.0,-910.0,-120.0
-12.0,-237.0,-20.0,43.0,440.0,332.0,-17.0,-901.0,-116.0
-7.0,-231.0,-18.0,62.0,448.0,298.0,-11.0,-893.0,-116.0
-8.0,-228.0,-22.0,70.0,451.0,271.0,-8.0,-870.0,-115.0
-6.0,-221.0,-22.0,75.0,450.0,244.0,2.0,-850.0,-128.0
-4.0,-212.0,-27.0,70.0,448.0,221.0,-1.0,-825.0,-148.0
-2.0,-211.0,-28.0,56.0,456.0,206.0,4.0,-811.0,-151.0
-5.0,-206.0,-31.0,39.0,473.0,193.0,1.0,-796.0,-150.0
-4.0,-204.0,-23.0,21.0,490.0,179.0,7.0,-792.0,-142.0
-3.0,-201.0,-21.0,0.0,507.0,169.0,2.0,-788.0,-136.0
-4.0,-201.0,-20.0,-18.0,523.0,161.0,3.0,-782.0,-123.0
-2.0,-205.0,-14.0,-31.0,535.0,155.0,9.0,-790.0,-103.0
-7.0,-207.0,-14.0,-38.0,546.0,151.0,4.0,-790.0,-89.0
-4.0,-208.0,-9.0,-38.0,558.0,148.0,9.0,-800.0,-74.0
-6.0,-215.0,-10.0,-31.0,563.0,145.0,5.0,-813.0,-65.0
-4.0,-220.0,-7.0,-15.0,568.0,139.0,-2.0,-838.0,-58.0
-9.0,-224.0,-9.0,4.0,571.0,135.0,-13.0,-852.0,-62.0
-13.0,-228.0,-10.0,22.0,578.0,129.0,-18.0,-869.0,-70.0
-12.0,-234.0,-16.0,35.0,589.0,124.0,-29.0,-893.0,-77.0
-15.0,-237.0,-10.0,46.0,603.0,117.0,-33.0,-913.0,-90.0
-13.0,-242.0,-17.0,54.0,624.0,109.0,-31.0,-927.0,-97.0
-12.0,-248.0,-16.0,59.0,646.0,100.0,-34.0,-938.0,-102.0
-11.0,-247.0,-19.0,71.0,666.0,89.0,-24.0,-941.0,-109.0
-8.0,-246.0,-18.0,83.0,683.0,78.0,-11.0,-952.0,-107.0
-7.0,-249.0,-15.0,96.0,703.0,64.0,-3.0,-951.0,-103.0
-4.0,-248.0,-16.0,112.0,720.0,48.0,-1.0,-961.0,-97.0
-7.0,-249.0,-14.0,128.0,739.0,33.0,10.0,-961.0,-89.0
-7.0,-250.0,-15.0,139.0,751.0,15.0,11.0,-960.0,-84.0
-6.0,-248.0,-11.0,145.0,756.0,-5.0,8.0,-955.0,-83.0
-5.0,-246.0,-9.0,149.0,754.0,-24.0,5.0,-957.0,-84.0
-5.0,-248.0,-11.0,144.0,754.0,-40.0,-2.0,-946.0,-82.0
-10.0,-246.0,-10.0,142.0,758.0,-52.0,-10.0,-941.0,-81.0
-10.0,-243.0,-10.0,137.0,769.0,-62.0,-17.0,-938.0,-77.0
-11.0,-245.0,-10.0,127.0,781.0,-68.0,-23.0,-941.0,-86.0
-10.0,-246.0,-13.0,109.0,798.0,-71.0,-23.0,-937.0,-89.0
-9.0,-245.0,-13.0,86.0,811.0,-73.0,-11.0,-945.0,-90.0
-9.0,-245.0,-10.0,61.0,819.0,-76.0,2.0,-954.0,-78.0
-3.0,-253.0,-6.0,36.0,823.0,-81.0,13.0,-970.0,-73.0
-2.0,-255.0,-9.0,11.0,814.0,-87.0,20.0,-999.0,-64.0
-6.0,-258.0,-7.0,-15.0,797.0,-93.0,8.0,-1012.0,-66.0
-10.0,-263.0,-8.0,-37.0,771.0,-96.0,-8.0,-1020.0,-71.0
-19.0,-265.0,-6.0,-52.0,742.0,-92.0,-30.0,-1030.0,-69.0
-20.0,-272.0,-12.0,-58.0,715.0,-82.0,-48.0,-1043.0,-69.0
-28.0,-273.0,-7.0,-57.0,693.0,-71.0,-63.0,-1052.0,-61.0
-28.0,-278.0,-5.0,-47.0,677.0,-56.0,-79.0,-1073.0,-49.0
-35.0,-283.0,1.0,-33.0,652.0,-43.0,-90.0,-1099.0,-27.0
-34.0,-287.0,8.0,-14.0,623.0,-27.0,-100.0,-1115.0,-6.0
-38.0,-294.0,8.0,5.0,597.0,-16.0,-104.0,-1134.0,18.0
-40.0,-298.0,22.0,21.0,564.0,-7.0,-109.0,-1152.0,34.0
-38.0,-301.0,23.0,38.0,532.0,1.0,-122.0,-1165.0,50.0
-45.0,-307.0,18.0,50.0,497.0,6.0,-137.0,-1173.0,62.0
-50.0,-306.0,33.0,61.0,462.0,8.0,-150.0,-1182.0,85.0
-53.0,-304.0,38.0,74.0,428.0,13.0,-172.0,-1182.0,102.0
-59.0,-309.0,41.0,93.0,397.0,18.0,-197.0,-1183.0,114.0
-65.0,-307.0,47.0,115.0,368.0,24.0,-219.0,-1181.0,136.0
-68.0,-308.0,49.0,142.0,345.0,30.0,-232.0,-1188.0,158.0
-74.0,-307.0,53.0,172.0,328.0,41.0,-249.0,-1192.0,167.0
-73.0,-310.0,56.0,198.0,311.0,55.0,-260.0,-1198.0,176.0
-76.0,-311.0,54.0,219.0,293.0,71.0,-265.0,-1201.0,172.0
-78.0,-310.0,52.0,231.0,269.0,89.0,-261.0,-1210.0,167.0
-72.0,-314.0,47.0,236.0,241.0,108.0,-259.0,-1214.0,145.0
-74.0,-306.0,38.0,230.0,208.0,127.0,-244.0,-1220.0,121.0
-64.0,-317.0,33.0,218.0,169.0,149.0,-221.0,-1229.0,96.0
-64.0,-316.0,25.0,200.0,124.0,173.0,-207.0,-1244.0,65.0
-58.0,-318.0,21.0,175.0,78.0,197.0,-180.0,-1248.0,41.0
-51.0,-322.0,19.0,148.0,30.0,223.0,-157.0,-1263.0,32.0
-44.0,-327.0,12.0,125.0,-15.0,253.0,-136.0,-1270.0,20.0
-37.0,-333.0,15.0,110.0,-57.0,284.0,-107.0,-1287.0,8.0
-29.0,-339.0,11.0,106.0,-96.0,315.0,-80.0,-1296.0,-6.0
-22.0,-340.0,4.0,116.0,-128.0,339.0,-42.0,-1313.0,-18.0
-19.0,-341.0,-2.0,143.0,-154.0,347.0,-31.0,-1302.0,-43.0
-24.0,-333.0,-16.0,195.0,-177.0,344.0,-48.0,-1272.0,-105.0
-39.0,-318.0,-32.0,259.0,-208.0,329.0,-64.0,-1228.0,-187.0
-32.0,-303.0,-65.0,318.0,-239.0,310.0,-82.0,-1157.0,-292.0
-31.0,-281.0,-91.0,351.0,-269.0,289.0,-91.0,-1083.0,-408.0
-29.0,-249.0,-130.0,346.0,-284.0,273.0,-93.0,-1003.0,-504.0
-27.0,-225.0,-134.0,307.0,-281.0,261.0,-87.0,-896.0,-564.0
-20.0,-210.0,-158.0,243.0,-265.0,257.0,-74.0,-826.0,-669.0
-11.0,-194.0,-170.0,170.0,-235.0,258.0,-44.0,-748.0,-719.0
-8.0,-184.0,-169.0,107.0,-195.0,271.0,-23.0,-717.0,-739.0
1.0,-180.0,-171.0,29.0,-163.0,294.0,21.0,-700.0,-741.0
10.0,-184.0,-171.0,-46.0,-122.0,327.0,62.0,-698.0,-728.0
19.0,-190.0,-164.0,-106.0,-85.0,356.0,103.0,-727.0,-720.0
34.0,-200.0,-157.0,-150.0,-58.0,395.0,150.0,-764.0,-686.0
43.0,-216.0,-146.0,-183.0,-36.0,430.0,194.0,-826.0,-651.0
53.0,-235.0,-136.0,-212.0,-21.0,453.0,239.0,-885.0,-619.0
61.0,-249.0,-130.0,-235.0,-9.0,463.0,264.0,-940.0,-579.0
67.0,-269.0,-121.0,-254.0,2.0,467.0,284.0,-1023.0,-541.0
68.0,-283.0,-109.0,-272.0,15.0,458.0,299.0,-1082.0,-500.0
70.0,-299.0,-102.0,-281.0,27.0,433.0,313.0,-1140.0,-452.0
67.0,-304.0,-95.0,-282.0,33.0,398.0,298.0,-1157.0,-426.0
62.0,-302.0,-89.0,-286.0,29.0,350.0,280.0,-1161.0,-414.0
55.0,-298.0,-86.0,-291.0,15.0,287.0,253.0,-1145.0,-399.0
46.0,-294.0,-89.0,-299.0,-3.0,215.0,213.0,-1135.0,-402.0
33.0,-291.0,-89.0,-316.0,-23.0,133.0,172.0,-1115.0,-410.0
26.0,-290.0,-88.0,-341.0,-41.0,49.0,135.0,-1113.0,-391.0
13.0,-289.0,-81.0,-360.0,-46.0,-36.0,82.0,-1105.0,-373.0
0.0,-282.0,-73.0,-371.0,-40.0,-115.0,36.0,-1095.0,-348.0
-13.0,-284.0,-64.0,-374.0,-21.0,-187.0,-10.0,-1094.0,-317.0
-19.0,-283.0,-61.0,-370.0,6.0,-247.0,-48.0,-1078.0,-290.0
-30.0,-280.0,-54.0,-359.0,41.0,-297.0,-85.0,-1084.0,-264.0
-36.0,-276.0,-49.0,-340.0,74.0,-336.0,-108.0,-1062.0,-253.0
-37.0,-276.0,-52.0,-318.0,101.0,-364.0,-122.0,-1046.0,-241.0
-42.0,-265.0,-48.0,-291.0,115.0,-383.0,-123.0,-1036.0,-246.0
-42.0,-260.0,-47.0,-265.0,117.0,-393.0,-125.0,-1010.0,-240.0
-41.0,-252.0,-44.0,-239.0,107.0,-397.0,-122.0,-968.0,-231.0
-43.0,-245.0,-45.0,-208.0,86.0,-397.0,-132.0,-940.0,-223.0
-44.0,-236.0,-43.0,-179.0,51.0,-393.0,-135.0,-905.0,-222.0
-42.0,-225.0,-46.0,-161.0,9.0,-381.0,-126.0,-869.0,-216.0
-42.0,-221.0,-42.0,-147.0,-37.0,-368.0,-127.0,-842.0,-205.0
-40.0,-208.0,-36.0,-135.0,-83.0,-353.0,-117.0,-814.0,-199.0
-36.0,-205.0,-34.0,-127.0,-131.0,-336.0,-111.0,-789.0,-180.0
-33.0,-200.0,-32.0,-122.0,-180.0,-314.0,-97.0,-785.0,-176.0
-30.0,-202.0,-32.0,-128.0,-221.0,-294.0,-90.0,-787.0,-162.0
-31.0,-204.0,-26.0,-142.0,-256.0,-276.0,-77.0,-791.0,-155.0
-28.0,-204.0,-30.0,-159.0,-288.0,-263.0,-62.0,-786.0,-143.0
-19.0,-199.0,-27.0,-181.0,-315.0,-252.0,-49.0,-781.0,-139.0
-17.0,-198.0,-24.0,-204.0,-336.0,-249.0,-38.0,-786.0,-140.0
-12.0,-204.0,-21.0,-223.0,-355.0,-246.0,-29.0,-782.0,-129.0
-6.0,-201.0,-20.0,-237.0,-370.0,-250.0,-3.0,-782.0,-131.0
0.0,-204.0,-25.0,-244.0,-377.0,-253.0,15.0,-781.0,-124.0
2.0,-205.0,-24.0,-252.0,-375.0,-262.0,34.0,-791.0,-127.0
9.0,-206.0,-20.0,-258.0,-365.0,-270.0,55.0,-789.0,-126.0
14.0,-207.0,-22.0,-262.0,-345.0,-280.0,90.0,-798.0,-120.0
21.0,-207.0,-20.0,-267.0,-323.0,-293.0,117.0,-808.0,-117.0
30.0,-214.0,-16.0,-273.0,-297.0,-306.0,139.0,-821.0,-102.0
33.0,-218.0,-13.0,-275.0,-273.0,-317.0,163.0,-839.0,-90.0
41.0,-220.0,-8.0,-276.0,-249.0,-326.0,181.0,-845.0,-76.0
44.0,-225.0,-10.0,-276.0,-229.0,-335.0,197.0,-857.0,-65.0
46.0,-227.0,-6.0,-272.0,-212.0,-338.0,205.0,-869.0,-68.0
48.0,-229.0,-12.0,-270.0,-199.0,-338.0,208.0,-878.0,-77.0
44.0,-231.0,-16.0,-275.0,-188.0,-332.0,209.0,-887.0,-88.0
45.0,-233.0,-17.0,-283.0,-178.0,-317.0,204.0,-882.0,-104.0
41.0,-232.0,-23.0,-292.0,-178.0,-302.0,195.0,-877.0,-131.0
35.0,-222.0,-27.0,-300.0,-181.0,-281.0,170.0,-859.0,-142.0
31.0,-223.0,-25.0,-304.0,-183.0,-257.0,153.0,-851.0,-158.0
21.0,-216.0,-26.0,-300.0,-184.0,-227.0,127.0,-838.0,-151.0
15.0,-218.0,-25.0,-289.0,-185.0,-196.0,96.0,-823.0,-147.0
8.0,-212.0,-24.0,-271.0,-182.0,-164.0,66.0,-814.0,-132.0
3.0,-207.0,-20.0,-249.0,-181.0,-132.0,40.0,-804.0,-122.0
-5.0,-207.0,-19.0,-223.0,-177.0,-95.0,19.0,-797.0,-113.0
-5.0,-207.0,-12.0,-197.0,-173.0,-61.0,-6.0,-795.0,-92.0
-11.0,-208.0,-13.0,-174.0,-165.0,-28.0,-13.0,-800.0,-83.0
-12.0,-208.0,-11.0,-160.0,-157.0,4.0,-19.0,-804.0,-74.0
-12.0,-208.0,-14.0,-154.0,-149.0,33.0,-24.0,-810.0,-76.0
-9.0,-208.0,-12.0,-159.0,-141.0,56.0,-16.0,-818.0,-80.0
-7.0,-215.0,-8.0,-170.0,-135.0,76.0,-5.0,-827.0,-77.0
-5.0,-212.0,-7.0,-183.0,-133.0,89.0,3.0,-827.0,-72.0
0.0,-215.0,-11.0,-195.0,-137.0,95.0,21.0,-826.0,-65.0
3.0,-216.0,-6.0,-203.0,-144.0,97.0,42.0,-831.0,-62.0
4.0,-212.0,-9.0,-207.0,-157.0,94.0,51.0,-834.0,-53.0
9.0,-212.0,-5.0,-210.0,-171.0,85.0,64.0,-825.0,-58.0
9.0,-212.0,-8.0,-212.0,-185.0,76.0,83.0,-822.0,-72.0
14.0,-214.0,-13.0,-221.0,-197.0,64.0,90.0,-828.0,-82.0
14.0,-213.0,-16.0,-232.0,-204.0,53.0,92.0,-830.0,-92.0
18.0,-215.0,-20.0,-249.0,-210.0,41.0,92.0,-832.0,-103.0
15.0,-221.0,-16.0,-270.0,-210.0,33.0,87.0,-846.0,-116.0
11.0,-221.0,-23.0,-289.0,-205.0,24.0,81.0,-857.0,-123.0
11.0,-223.0,-21.0,-305.0,-195.0,21.0,60.0,-871.0,-124.0
3.0,-232.0,-22.0,-315.0,-184.0,20.0,48.0,-897.0,-123.0
0.0,-242.0,-19.0,-315.0,-173.0,21.0,26.0,-924.0,-115.0
-3.0,-250.0,-17.0,-309.0,-163.0,28.0,11.0,-950.0,-101.0
-11.0,-257.0,-16.0,-292.0,-159.0,35.0,-5.0,-984.0,-89.0
-16.0,-264.0,-7.0,-273.0,-163.0,44.0,-20.0,-1019.0,-72.0
-17.0,-271.0,-3.0,-254.0,-173.0,50.0,-34.0,-1038.0,-60.0
-26.0,-274.0,-4.0,-235.0,-193.0,59.0,-52.0,-1054.0,-58.0
-28.0,-273.0,-9.0,-219.0,-214.0,72.0,-68.0,-1059.0,-57.0
-27.0,-271.0,-10.0,-210.0,-231.0,84.0,-76.0,-1066.0,-76.0
-29.0,-271.0,-17.0,-210.0,-236.0,91.0,-73.0,-1059.0,-107.0
-29.0,-269.0,-23.0,-220.0,-234.0,93.0,-77.0,-1045.0,-137.0
-26.0,-263.0,-32.0,-235.0,-223.0,89.0,-75.0,-1027.0,-162.0
-20.0,-262.0,-30.0,-250.0,-207.0,82.0,-60.0,-1013.0,-176.0
-16.0,-258.0,-36.0,-268.0,-187.0,68.0,-34.0,-1012.0,-186.0
-6.0,-260.0,-34.0,-283.0,-169.0,46.0,8.0,-1017.0,-177.0
3.0,-260.0,-29.0,-294.0,-154.0,20.0,47.0,-1018.0,-154.0
13.0,-267.0,-20.0,-298.0,-148.0,-13.0,86.0,-1033.0,-123.0
23.0,-272.0,-11.0,-300.0,-145.0,-48.0,124.0,-1057.0,-94.0
33.0,-283.0,-6.0,-298.0,-144.0,-85.0,152.0,-1082.0,-64.0
37.0,-294.0,3.0,-297.0,-145.0,-120.0,180.0,-1132.0,-21.0
40.0,-303.0,10.0,-288.0,-145.0,-151.0,179.0,-1174.0,4.0
35.0,-317.0,14.0,-278.0,-144.0,-181.0,174.0,-1207.0,19.0
30.0,-318.0,15.0,-264.0,-145.0,-207.0,155.0,-1234.0,29.0
29.0,-327.0,15.0,-253.0,-140.0,-231.0,139.0,-1258.0,21.0
24.0,-328.0,17.0,-248.0,-129.0,-251.0,127.0,-1265.0,24.0
15.0,-323.0,15.0,-246.0,-114.0,-270.0,106.0,-1257.0,23.0
10.0,-323.0,17.0,-240.0,-101.0,-282.0,88.0,-1247.0,29.0
6.0,-315.0,20.0,-230.0,-91.0,-289.0,72.0,-1227.0,36.0
3.0,-313.0,18.0,-213.0,-89.0,-292.0,59.0,-1214.0,43.0
4.0,-307.0,18.0,-191.0,-86.0,-295.0,50.0,-1185.0,42.0
2.0,-300.0,18.0,-161.0,-78.0,-301.0,57.0,-1168.0,37.0
6.0,-301.0,14.0,-122.0,-62.0,-313.0,55.0,-1149.0,22.0
2.0,-295.0,5.0,-85.0,-39.0,-327.0,51.0,-1139.0,3.0
7.0,-297.0,1.0,-60.0,-13.0,-348.0,53.0,-1146.0,-26.0
8.0,-303.0,-7.0,-46.0,20.0,-379.0,61.0,-1165.0,-63.0
11.0,-311.0,-17.0,-47.0,65.0,-416.0,71.0,-1203.0,-97.0
15.0,-322.0,-34.0,-61.0,118.0,-458.0,87.0,-1251.0,-163.0
17.0,-335.0,-52.0,-97.0,183.0,-503.0,97.0,-1285.0,-241.0
21.0,-348.0,-77.0,-146.0,253.0,-546.0,104.0,-1347.0,-331.0
23.0,-362.0,-98.0,-212.0,321.0,-587.0,118.0,-1394.0,-418.0
24.0,-373.0,-114.0,-278.0,388.0,-620.0,134.0,-1427.0,-495.0
31.0,-374.0,-135.0,-333.0,438.0,-644.0,150.0,-1438.0,-589.0
44.0,-368.0,-130.0,-357.0,471.0,-647.0,190.0,-1420.0,-653.0
43.0,-367.0,-168.0,-358.0,495.0,-630.0,222.0,-1390.0,-710.0
51.0,-361.0,-173.0,-336.0,511.0,-604.0,247.0,-1350.0,-763.0
69.0,-340.0,-178.0,-296.0,536.0,-582.0,263.0,-1309.0,-777.0
63.0,-320.0,-176.0,-236.0,559.0,-568.0,276.0,-1258.0,-768.0
58.0,-314.0,-163.0,-157.0,580.0,-554.0,271.0,-1198.0,-729.0
62.0,-296.0,-149.0,-61.0,596.0,-543.0,275.0,-1141.0,-679.0
60.0,-278.0,-132.0,41.0,599.0,-542.0,264.0,-1073.0,-610.0
56.0,-264.0,-123.0,140.0,591.0,-550.0,256.0,-1008.0,-553.0
48.0,-247.0,-115.0,220.0,567.0,-562.0,237.0,-928.0,-505.0
49.0,-226.0,-112.0,276.0,532.0,-573.0,211.0,-849.0,-492.0
35.0,-207.0,-111.0,294.0,491.0,-578.0,171.0,-788.0,-492.0
20.0,-186.0,-115.0,274.0,452.0,-570.0,116.0,-724.0,-508.0
3.0,-175.0,-119.0,220.0,413.0,-548.0,48.0,-682.0,-513.0
-1.0,-175.0,-113.0,149.0,378.0,-511.0,15.0,-664.0,-504.0
-6.0,-165.0,-113.0,83.0,349.0,-465.0,1.0,-654.0,-492.0
-3.0,-167.0,-96.0,21.0,319.0,-416.0,7.0,-655.0,-462.0
-4.0,-179.0,-91.0,-46.0,271.0,-375.0,6.0,-673.0,-421.0
-11.0,-182.0,-82.0,-121.0,204.0,-336.0,6.0,-697.0,-379.0
-4.0,-187.0,-71.0,-202.0,130.0,-295.0,13.0,-751.0,-344.0
-2.0,-216.0,-72.0,-270.0,60.0,-252.0,28.0,-830.0,-327.0
8.0,-224.0,-77.0,-333.0,7.0,-212.0,36.0,-874.0,-324.0
8.0,-245.0,-67.0,-392.0,-20.0,-167.0,57.0,-941.0,-323.0
8.0,-253.0,-58.0,-439.0,-35.0,-121.0,68.0,-985.0,-322.0
9.0,-275.0,-67.0,-473.0,-56.0,-77.0,73.0,-1023.0,-313.0
15.0,-264.0,-65.0,-482.0,-78.0,-36.0,85.0,-1038.0,-312.0
11.0,-264.0,-68.0,-465.0,-104.0,0.0,84.0,-1008.0,-315.0
18.0,-252.0,-66.0,-440.0,-133.0,34.0,98.0,-955.0,-311.0
22.0,-246.0,-69.0,-404.0,-150.0,64.0,106.0,-927.0,-309.0
20.0,-233.0,-60.0,-365.0,-151.0,84.0,115.0,-909.0,-312.0
25.0,-228.0,-62.0,-329.0,-144.0,93.0,130.0,-888.0,-298.0
31.0,-236.0,-61.0,-296.0,-133.0,86.0,139.0,-893.0,-304.0
34.0,-241.0,-59.0,-273.0,-118.0,70.0,160.0,-888.0,-295.0
39.0,-227.0,-63.0,-267.0,-101.0,50.0,178.0,-870.0,-281.0
48.0,-219.0,-41.0,-263.0,-87.0,27.0,189.0,-841.0,-257.0
40.0,-211.0,-52.0,-258.0,-76.0,-1.0,201.0,-816.0,-232.0
47.0,-205.0,-36.0,-257.0,-77.0,-27.0,207.0,-790.0,-217.0
44.0,-194.0,-41.0,-255.0,-94.0,-56.0,209.0,-758.0,-207.0
46.0,-187.0,-41.0,-253.0,-114.0,-83.0,201.0,-725.0,-214.0
43.0,-182.0,-45.0,-254.0,-136.0,-99.0,183.0,-702.0,-230.0
18.0,-170.0,-42.0,-259.0,-153.0,-105.0,160.0,-681.0,-238.0
24.0,-171.0,-49.0,-267.0,-168.0,-101.0,127.0,-675.0,-243.0
13.0,-181.0,-49.0,-290.0,-182.0,-83.0,90.0,-680.0,-245.0
6.0,-185.0,-47.0,-329.0,-194.0,-55.0,51.0,-712.0,-226.0
-3.0,-190.0,-41.0,-370.0,-213.0,-14.0,10.0,-745.0,-204.0
-16.0,-197.0,-33.0,-414.0,-234.0,31.0,-42.0,-779.0,-165.0
-26.0,-213.0,-24.0,-449.0,-248.0,95.0,-95.0,-800.0,-121.0
-41.0,-212.0,-12.0,-466.0,-249.0,170.0,-117.0,-815.0,-82.0
-36.0,-215.0,-5.0,-458.0,-231.0,246.0,-137.0,-833.0,-42.0
-54.0,-226.0,24.0,-424.0,-202.0,323.0,-138.0,-850.0,-2.0
-29.0,-233.0,33.0,-367.0,-170.0,389.0,-128.0,-869.0,22.0
-23.0,-232.0,14.0,-298.0,-136.0,446.0,-107.0,-868.0,31.0
-20.0,-228.0,1.0,-224.0,-92.0,487.0,-65.0,-862.0,23.0
2.0,-220.0,-3.0,-146.0,-30.0,513.0,2.0,-846.0,-3.0
25.0,-215.0,-2.0,-78.0,51.0,520.0,85.0,-811.0,-43.0
57.0,-209.0,-5.0,-23.0,145.0,508.0,178.0,-739.0,-67.0
63.0,-179.0,-14.0,27.0,252.0,481.0,253.0,-678.0,-85.0
84.0,-163.0,-8.0,74.0,384.0,440.0,339.0,-611.0,-67.0
112.0,-155.0,3.0,131.0,505.0,369.0,447.0,-569.0,-9.0
132.0,-147.0,27.0,205.0,583.0,268.0,550.0,-536.0,72.0
143.0,-134.0,49.0,279.0,584.0,142.0,576.0,-511.0,152.0
124.0,-128.0,56.0,332.0,500.0,13.0,526.0,-467.0,198.0
104.0,-120.0,58.0,336.0,365.0,-74.0,449.0,-456.0,184.0
86.0,-111.0,35.0,287.0,231.0,-107.0,361.0,-454.0,133.0
44.0,-121.0,11.0,203.0,136.0,-99.0,234.0,-476.0,43.0
9.0,-130.0,-10.0,97.0,102.0,-61.0,65.0,-511.0,-60.0
-24.0,-145.0,-34.0,-33.0,114.0,4.0,-120.0,-585.0,-197.0
-61.0,-161.0,-58.0,-180.0,154.0,83.0,-246.0,-688.0,-277.0
-97.0,-207.0,-69.0,-309.0,213.0,167.0,-375.0,-810.0,-354.0
-125.0,-232.0,-90.0,-394.0,279.0,249.0,-452.0,-930.0,-420.0
-154.0,-268.0,-95.0,-417.0,338.0,323.0,-498.0,-1072.0,-441.0
-122.0,-306.0,-88.0,-403.0,371.0,372.0,-466.0,-1164.0,-405.0
-101.0,-323.0,-68.0,-380.0,377.0,391.0,-377.0,-1241.0,-324.0
-71.0,-331.0,-61.0,-343.0,362.0,382.0,-262.0,-1274.0,-289.0
-54.0,-327.0,-69.0,-309.0,324.0,345.0,-174.0,-1256.0,-306.0
-43.0,-293.0,-103.0,-287.0,267.0,293.0,-124.0,-1187.0,-383.0
-37.0,-265.0,-115.0,-273.0,220.0,243.0,-107.0,-1075.0,-499.0
-23.0,-242.0,-155.0,-271.0,187.0,201.0,-65.0,-889.0,-638.0
-18.0,-187.0,-167.0,-284.0,171.0,176.0,-35.0,-730.0,-731.0
-22.0,-154.0,-183.0,-319.0,163.0,168.0,8.0,-586.0,-767.0
8.0,-123.0,-170.0,-365.0,152.0,177.0,62.0,-480.0,-708.0
35.0,-102.0,-128.0,-394.0,128.0,185.0,123.0,-413.0,-583.0
41.0,-107.0,-88.0,-395.0,86.0,192.0,176.0,-368.0,-415.0
50.0,-101.0,-37.0,-340.0,47.0,191.0,221.0,-362.0,-230.0
62.0,-110.0,-3.0,-227.0,4.0,186.0,261.0,-377.0,-66.0
70.0,-119.0,18.0,-66.0,-23.0,179.0,304.0,-420.0,48.0
72.0,-131.0,21.0,104.0,-32.0,154.0,314.0,-485.0,52.0
62.0,-137.0,-6.0,217.0,-28.0,119.0,267.0,-522.0,-44.0
53.0,-141.0,-40.0,230.0,-7.0,90.0,228.0,-543.0,-209.0
43.0,-139.0,-71.0,166.0,43.0,74.0,193.0,-552.0,-336.0
29.0,-135.0,-107.0,51.0,96.0,65.0,156.0,-538.0,-452.0
26.0,-129.0,-134.0,-89.0,141.0,65.0,121.0,-510.0,-564.0
24.0,-128.0,-149.0,-236.0,175.0,75.0,81.0,-457.0,-635.0
-4.0,-105.0,-149.0,-361.0,196.0,90.0,14.0,-402.0,-646.0
-14.0,-97.0,-132.0,-438.0,207.0,111.0,-30.0,-350.0,-610.0
-3.0,-88.0,-141.0,-478.0,218.0,131.0,-37.0,-304.0,-570.0
-9.0,-69.0,-132.0,-509.0,231.0,148.0,-30.0,-271.0,-565.0
-8.0,-65.0,-138.0,-547.0,243.0,161.0,-21.0,-241.0,-591.0
-13.0,-54.0,-149.0,-602.0,254.0,166.0,-23.0,-199.0,-620.0
-15.0,-41.0,-145.0,-676.0,258.0,163.0,-48.0,-151.0,-615.0
-23.0,-29.0,-131.0,-768.0,240.0,152.0,-76.0,-107.0,-573.0
-28.0,-22.0,-112.0,-853.0,196.0,137.0,-97.0,-77.0,-497.0
-42.0,-21.0,-91.0,-912.0,128.0,117.0,-138.0,-67.0,-398.0
-50.0,-23.0,-69.0,-936.0,46.0,89.0,-176.0,-75.0,-314.0
-57.0,-30.0,-60.0,-924.0,-41.0,56.0,-206.0,-96.0,-267.0
-60.0,-33.0,-59.0,-898.0,-126.0,18.0,-224.0,-114.0,-262.0
-63.0,-36.0,-55.0,-880.0,-217.0,-22.0,-224.0,-124.0,-260.0
-65.0,-42.0,-58.0,-875.0,-310.0,-57.0,-227.0,-150.0,-259.0
-62.0,-46.0,-55.0,-882.0,-393.0,-83.0,-230.0,-161.0,-259.0
-62.0,-48.0,-62.0,-906.0,-459.0,-96.0,-238.0,-180.0,-275.0
-63.0,-45.0,-67.0,-950.0,-506.0,-95.0,-239.0,-173.0,-308.0
-60.0,-39.0,-76.0,-1016.0,-549.0,-83.0,-219.0,-152.0,-333.0
-59.0,-31.0,-79.0,-1104.0,-594.0,-55.0,-201.0,-110.0,-352.0
-48.0,-19.0,-84.0,-1207.0,-641.0,-18.0,-162.0,-70.0,-377.0
-40.0,-8.0,-103.0,-1329.0,-690.0,28.0,-138.0,-23.0,-421.0
-27.0,9.0,-98.0,-1475.0,-744.0,80.0,-105.0,28.0,-458.0
-21.0,22.0,-106.0,-1633.0,-789.0,140.0,-82.0,83.0,-469.0
-7.0,26.0,-103.0,-1788.0,-817.0,201.0,-41.0,107.0,-456.0
11.0,15.0,-89.0,-1914.0,-812.0,266.0,24.0,93.0,-408.0
30.0,6.0,-72.0,-1991.0,-780.0,333.0,111.0,50.0,-336.0
53.0,-15.0,-58.0,-2014.0,-728.0,399.0,185.0,-8.0,-264.0
62.0,-31.0,-41.0,-1998.0,-658.0,457.0,240.0,-73.0,-197.0
73.0,-52.0,-33.0,-1968.0,-580.0,510.0,307.0,-180.0,-160.0
91.0,-78.0,-34.0,-1907.0,-500.0,551.0,354.0,-266.0,-177.0
95.0,-99.0,-42.0,-1844.0,-437.0,583.0,392.0,-371.0,-188.0
104.0,-121.0,-42.0,-1799.0,-379.0,605.0,425.0,-448.0,-206.0
109.0,-133.0,-41.0,-1787.0,-332.0,617.0,434.0,-506.0,-201.0
109.0,-144.0,-31.0,-1818.0,-257.0,634.0,419.0,-538.0,-179.0
105.0,-149.0,-41.0,-1873.0,-135.0,656.0,406.0,-570.0,-183.0
99.0,-147.0,-60.0,-1919.0,2.0,673.0,397.0,-565.0,-258.0
96.0,-142.0,-87.0,-1969.0,123.0,676.0,388.0,-549.0,-365.0
83.0,-135.0,-98.0,-2016.0,230.0,659.0,343.0,-504.0,-431.0
69.0,-125.0,-100.0,-2045.0,328.0,623.0,284.0,-458.0,-438.0
49.0,-118.0,-99.0,-2037.0,418.0,569.0,196.0,-422.0,-433.0
28.0,-101.0,-111.0,-2006.0,491.0,501.0,117.0,-367.0,-496.0
11.0,-83.0,-137.0,-2000.0,535.0,437.0,48.0,-306.0,-588.0
-4.0,-65.0,-162.0,-2044.0,572.0,385.0,-9.0,-249.0,-676.0
-21.0,-61.0,-184.0,-2114.0,613.0,349.0,-74.0,-233.0,-769.0
-32.0,-65.0,-212.0,-2196.0,669.0,325.0,-105.0,-253.0,-873.0
-41.0,-71.0,-263.0,-2294.0,731.0,297.0,-141.0,-277.0,-1046.0
-52.0,-90.0,-323.0,-2460.0,780.0,265.0,-186.0,-339.0,-1284.0
-59.0,-116.0,-417.0,-2685.0,837.0,236.0,-221.0,-437.0,-1637.0
-82.0,-139.0,-599.0,-2937.0,946.0,215.0,-318.0,-526.0,-2266.0
-131.0,-154.0,-907.0,-3148.0,1199.0,233.0,-544.0,-532.0,-3792.0
-150.0,-156.0,-1478.0,-3288.0,1683.0,282.0,-694.0,-665.0,-6196.0
-94.0,-219.0,-2061.0,-4023.0,2309.0,208.0,-306.0,-1078.0,-8192.0
362.0,-638.0,-2078.0,-5964.0,2334.0,-244.0,1478.0,-2610.0,-8192.0
848.0,-1313.0,-1607.0,-8011.0,2069.0,-1220.0,3324.0,-4995.0,-6975.0
764.0,-1820.0,-850.0,-9027.0,2452.0,-2207.0,3251.0,-6905.0,-3805.0
305.0,-2034.0,-288.0,-8823.0,2496.0,-2509.0,1451.0,-7667.0,-1362.0
152.0,-2112.0,-274.0,-7111.0,2261.0,-2087.0,820.0,-7984.0,-1194.0
-179.0,-1920.0,-334.0,-4811.0,2159.0,-1827.0,-405.0,-7469.0,-1478.0
-372.0,-1513.0,-146.0,-3242.0,1728.0,-1402.0,-1153.0,-6077.0,-794.0
-509.0,-1069.0,20.0,-2483.0,940.0,-818.0,-1780.0,-4334.0,-19.0
-534.0,-638.0,108.0,-2073.0,212.0,-65.0,-2009.0,-2648.0,330.0
-451.0,-268.0,231.0,-1736.0,-175.0,632.0,-1680.0,-867.0,970.0
-374.0,31.0,396.0,-1407.0,-359.0,1049.0,-1450.0,211.0,1622.0
-359.0,246.0,497.0,-1291.0,-539.0,1340.0,-1379.0,926.0,2000.0
-269.0,390.0,489.0,-1491.0,-564.0,1626.0,-1176.0,1322.0,1991.0
-209.0,428.0,411.0,-1973.0,-243.0,1754.0,-953.0,1488.0,1716.0
-175.0,462.0,331.0,-2882.0,190.0,1617.0,-791.0,1558.0,1391.0
-150.0,428.0,300.0,-4196.0,499.0,1227.0,-625.0,1482.0,1270.0
-130.0,343.0,283.0,-5519.0,579.0,744.0,-542.0,1314.0,1177.0
-53.0,234.0,195.0,-6176.0,494.0,330.0,-293.0,1002.0,901.0
45.0,135.0,55.0,-6343.0,454.0,-54.0,74.0,658.0,365.0
104.0,61.0,-54.0,-6122.0,541.0,-457.0,319.0,352.0,-104.0
154.0,0.0,-119.0,-5824.0,759.0,-728.0,566.0,48.0,-476.0
187.0,-48.0,-141.0,-5602.0,1021.0,-970.0,704.0,-125.0,-576.0
209.0,-60.0,-144.0,-5410.0,1286.0,-1087.0,813.0,-158.0,-598.0
218.0,-36.0,-154.0,-5189.0,1463.0,-1137.0,859.0,-74.0,-645.0
211.0,-42.0,-127.0,-4944.0,1519.0,-1232.0,829.0,-26.0,-530.0
218.0,0.0,-156.0,-4487.0,1610.0,-1176.0,841.0,99.0,-665.0
209.0,38.0,-200.0,-3974.0,1760.0,-1022.0,798.0,252.0,-836.0
187.0,65.0,-223.0,-3540.0,1830.0,-970.0,757.0,350.0,-948.0
173.0,71.0,-261.0,-3094.0,1751.0,-957.0,710.0,384.0,-1099.0
153.0,74.0,-303.0,-2617.0,1546.0,-878.0,648.0,393.0,-1265.0
118.0,78.0,-330.0,-2139.0,1254.0,-734.0,508.0,407.0,-1386.0
92.0,75.0,-344.0,-1697.0,989.0,-573.0,379.0,380.0,-1447.0
66.0,68.0,-339.0,-1270.0,847.0,-377.0,260.0,385.0,-1432.0
52.0,82.0,-348.0,-775.0,773.0,-162.0,227.0,390.0,-1476.0
72.0,105.0,-336.0,-325.0,678.0,52.0,293.0,443.0,-1433.0
69.0,144.0,-264.0,-69.0,581.0,230.0,295.0,569.0,-1187.0
61.0,200.0,-214.0,26.0,487.0,350.0,232.0,766.0,-953.0
50.0,270.0,-184.0,4.0,463.0,426.0,171.0,1009.0,-799.0
35.0,332.0,-174.0,-76.0,519.0,476.0,109.0,1265.0,-719.0
33.0,381.0,-180.0,-180.0,589.0,516.0,109.0,1453.0,-736.0
42.0,416.0,-206.0,-298.0,646.0,523.0,123.0,1602.0,-819.0
54.0,411.0,-239.0,-396.0,696.0,486.0,164.0,1640.0,-979.0
57.0,381.0,-261.0,-454.0,732.0,396.0,196.0,1516.0,-1119.0
67.0,321.0,-276.0,-433.0,746.0,276.0,253.0,1277.0,-1171.0
69.0,259.0,-266.0,-391.0,752.0,143.0,264.0,1047.0,-1125.0
64.0,214.0,-241.0,-350.0,753.0,32.0,246.0,871.0,-1028.0
57.0,171.0,-212.0,-310.0,740.0,-35.0,219.0,708.0,-916.0
50.0,146.0,-180.0,-249.0,700.0,-70.0,188.0,572.0,-775.0
32.0,115.0,-154.0,-156.0,635.0,-94.0,138.0,470.0,-664.0
16.0,97.0,-135.0,-66.0,548.0,-108.0,100.0,406.0,-618.0
5.0,83.0,-139.0,-8.0,443.0,-111.0,39.0,350.0,-608.0
0.0,67.0,-149.0,34.0,339.0,-95.0,8.0,291.0,-648.0
-2.0,53.0,-158.0,74.0,258.0,-74.0,-3.0,236.0,-685.0
3.0,43.0,-164.0,110.0,214.0,-62.0,14.0,196.0,-707.0
18.0,40.0,-164.0,141.0,206.0,-58.0,59.0,189.0,-710.0
22.0,44.0,-164.0,178.0,240.0,-67.0,98.0,207.0,-709.0
38.0,57.0,-169.0,238.0,287.0,-93.0,141.0,249.0,-729.0
61.0,81.0,-161.0,307.0,316.0,-127.0,239.0,345.0,-716.0
92.0,121.0,-173.0,382.0,315.0,-192.0,356.0,474.0,-765.0
76.0,176.0,-181.0,452.0,278.0,-299.0,357.0,685.0,-741.0
952.0,684.0,-322.0,360.0,-215.0,-724.0,5211.0,2800.0,-3293.0
-626.0,1116.0,-1334.0,346.0,-3790.0,-1916.0,-914.0,1984.0,-1433.0
66.0,787.0,-603.0,2782.0,37.0,-763.0,645.0,3666.0,-4604.0
1.0,108.0,427.0,2181.0,1966.0,181.0,408.0,-700.0,684.0
212.0,463.0,160.0,-301.0,59.0,-405.0,860.0,1970.0,599.0
-1.0,842.0,-474.0,-702.0,-1418.0,-855.0,-104.0,3180.0,-1729.0
13.0,719.0,-479.0,-867.0,-1351.0,-749.0,-253.0,2926.0,-2020.0
18.0,237.0,-374.0,-772.0,-469.0,-461.0,-13.0,914.0,-1541.0
9.0,351.0,-326.0,-657.0,197.0,-300.0,-3.0,1473.0,-1327.0
26.0,217.0,-239.0,-711.0,438.0,-189.0,51.0,946.0,-1079.0
137.0,252.0,-363.0,-641.0,463.0,-131.0,579.0,1016.0,-1461.0
103.0,176.0,-563.0,-626.0,168.0,-117.0,435.0,788.0,-2311.0
148.0,30.0,-743.0,-516.0,-163.0,-93.0,612.0,206.0,-3087.0
209.0,14.0,-765.0,-452.0,-420.0,-65.0,827.0,132.0,-3203.0
230.0,97.0,-817.0,-479.0,-674.0,-56.0,890.0,448.0,-3434.0
202.0,178.0,-789.0,-547.0,-853.0,-59.0,750.0,871.0,-3266.0
192.0,245.0,-743.0,-535.0,-946.0,-66.0,685.0,1092.0,-3120.0
160.0,271.0,-723.0,-437.0,-1047.0,-75.0,569.0,1138.0,-2986.0
118.0,330.0,-751.0,-388.0,-1086.0,-99.0,420.0,1379.0,-3135.0
136.0,328.0,-722.0,-452.0,-1016.0,-105.0,513.0,1365.0,-3063.0
109.0,289.0,-689.0,-560.0,-835.0,-111.0,334.0,1248.0,-2929.0
99.0,237.0,-630.0,-637.0,-543.0,-98.0,351.0,1070.0,-2705.0
71.0,196.0,-540.0,-698.0,-178.0,-80.0,220.0,843.0,-2365.0
45.0,171.0,-467.0,-787.0,199.0,-63.0,163.0,700.0,-2008.0
46.0,78.0,-404.0,-920.0,481.0,-30.0,80.0,403.0,-1685.0
-57.0,7.0,-340.0,-1016.0,624.0,56.0,-158.0,187.0,-1473.0
76.0,-101.0,-333.0,-863.0,619.0,300.0,186.0,-334.0,-1393.0
35.0,-54.0,-287.0,-694.0,643.0,290.0,138.0,-118.0,-1198.0
59.0,-43.0,-243.0,-542.0,595.0,294.0,257.0,-111.0,-1038.0
49.0,2.0,-228.0,-373.0,546.0,250.0,236.0,95.0,-1003.0
70.0,-47.0,-196.0,-250.0,471.0,186.0,296.0,-167.0,-891.0
37.0,12.0,-212.0,-102.0,391.0,47.0,202.0,76.0,-933.0
74.0,51.0,-233.0,-101.0,292.0,-5.0,324.0,201.0,-978.0
92.0,70.0,-200.0,-242.0,247.0,-49.0,344.0,330.0,-882.0
112.0,19.0,-148.0,-265.0,211.0,-115.0,393.0,89.0,-625.0
91.0,118.0,-167.0,-161.0,186.0,-206.0,374.0,469.0,-703.0
73.0,174.0,-168.0,-121.0,130.0,-226.0,329.0,679.0,-707.0
88.0,152.0,-140.0,-78.0,93.0,-170.0,335.0,583.0,-566.0
90.0,123.0,-101.0,64.0,28.0,-152.0,337.0,504.0,-432.0
64.0,111.0,-84.0,212.0,-72.0,-147.0,279.0,485.0,-387.0
22.0,101.0,-114.0,311.0,-219.0,-153.0,140.0,422.0,-485.0
35.0,139.0,-141.0,316.0,-345.0,-142.0,124.0,540.0,-606.0
29.0,164.0,-158.0,191.0,-375.0,-91.0,112.0,671.0,-690.0
1.0,150.0,-141.0,60.0,-337.0,-62.0,7.0,606.0,-639.0
-9.0,156.0,-143.0,-12.0,-280.0,-49.0,-53.0,603.0,-609.0
-10.0,41.0,-129.0,-22.0,-229.0,-34.0,-60.0,270.0,-556.0
-3.0,4.0,-150.0,101.0,-159.0,-22.0,-24.0,69.0,-630.0
7.0,-5.0,-172.0,201.0,-110.0,-14.0,32.0,-3.0,-737.0
28.0,-48.0,-179.0,241.0,-47.0,-8.0,82.0,-156.0,-761.0
44.0,-53.0,-176.0,291.0,4.0,3.0,166.0,-181.0,-768.0
44.0,-55.0,-173.0,312.0,52.0,10.0,178.0,-181.0,-755.0
45.0,-34.0,-177.0,323.0,63.0,20.0,192.0,-110.0,-759.0
47.0,12.0,-176.0,313.0,44.0,27.0,188.0,73.0,-781.0
49.0,50.0,-182.0,289.0,12.0,34.0,201.0,220.0,-786.0
46.0,73.0,-187.0,288.0,-25.0,39.0,203.0,312.0,-797.0
55.0,88.0,-195.0,324.0,-61.0,42.0,219.0,397.0,-810.0
56.0,100.0,-199.0,395.0,-97.0,44.0,232.0,439.0,-842.0
56.0,106.0,-208.0,493.0,-137.0,47.0,221.0,457.0,-887.0
46.0,95.0,-216.0,606.0,-179.0,50.0,185.0,417.0,-925.0
43.0,87.0,-233.0,722.0,-214.0,52.0,178.0,379.0,-1009.0
51.0,75.0,-256.0,807.0,-230.0,58.0,181.0,328.0,-1105.0
44.0,69.0,-279.0,852.0,-224.0,61.0,171.0,306.0,-1164.0
37.0,48.0,-288.0,855.0,-201.0,70.0,138.0,248.0,-1212.0
46.0,48.0,-292.0,818.0,-179.0,76.0,171.0,209.0,-1223.0
43.0,37.0,-305.0,756.0,-164.0,79.0,164.0,179.0,-1278.0
56.0,28.0,-319.0,703.0,-145.0,79.0,208.0,141.0,-1357.0
48.0,27.0,-334.0,661.0,-109.0,74.0,179.0,145.0,-1413.0
47.0,32.0,-340.0,617.0,-63.0,70.0,179.0,141.0,-1440.0
53.0,23.0,-337.0,549.0,-20.0,64.0,195.0,136.0,-1425.0
49.0,25.0,-338.0,471.0,19.0,57.0,194.0,112.0,-1400.0
57.0,30.0,-325.0,374.0,43.0,49.0,212.0,152.0,-1378.0
59.0,33.0,-314.0,278.0,52.0,38.0,220.0,172.0,-1332.0
50.0,40.0,-303.0,209.0,53.0,31.0,183.0,196.0,-1282.0
53.0,35.0,-294.0,162.0,66.0,23.0,190.0,173.0,-1252.0
57.0,36.0,-289.0,133.0,74.0,16.0,214.0,183.0,-1222.0
44.0,40.0,-277.0,112.0,73.0,5.0,165.0,191.0,-1180.0
43.0,28.0,-270.0,109.0,85.0,2.0,171.0,144.0,-1148.0
50.0,28.0,-264.0,107.0,87.0,-6.0,193.0,156.0,-1133.0
47.0,31.0,-267.0,99.0,93.0,-9.0,184.0,154.0,-1127.0
46.0,29.0,-261.0,88.0,99.0,-13.0,189.0,160.0,-1109.0
47.0,30.0,-255.0,81.0,103.0,-15.0,187.0,155.0,-1079.0
47.0,30.0,-248.0,75.0,108.0,-17.0,183.0,151.0,-1057.0
49.0,27.0,-242.0,71.0,114.0,-18.0,204.0,150.0,-1032.0
47.0,22.0,-233.0,76.0,112.0,-18.0,185.0,140.0,-1022.0
47.0,23.0,-240.0,83.0,108.0,-16.0,183.0,127.0,-1014.0
52.0,23.0,-237.0,88.0,108.0,-15.0,208.0,127.0,-995.0
46.0,23.0,-228.0,80.0,105.0,-15.0,188.0,118.0,-981.0
46.0,21.0,-230.0,72.0,103.0,-14.0,183.0,125.0,-991.0
45.0,26.0,-224.0,61.0,100.0,-12.0,186.0,133.0,-978.0
44.0,33.0,-234.0,55.0,97.0,-9.0,176.0,166.0,-989.0
48.0,20.0,-227.0,39.0,95.0,-4.0,178.0,114.0,-985.0
45.0,18.0,-223.0,35.0,98.0,0.0,183.0,102.0,-956.0
44.0,32.0,-229.0,43.0,96.0,2.0,187.0,138.0,-990.0
41.0,36.0,-225.0,33.0,85.0,-1.0,177.0,169.0,-970.0
43.0,30.0,-233.0,32.0,68.0,-2.0,177.0,145.0,-990.0
44.0,26.0,-231.0,30.0,46.0,1.0,185.0,133.0,-997.0
48.0,20.0,-236.0,26.0,26.0,0.0,177.0,117.0,-1011.0
45.0,27.0,-239.0,22.0,6.0,-1.0,173.0,144.0,-1028.0
44.0,31.0,-240.0,12.0,-9.0,0.0,172.0,171.0,-1034.0
42.0,26.0,-250.0,17.0,-22.0,-1.0,175.0,141.0,-1054.0
42.0,29.0,-252.0,15.0,-32.0,-2.0,171.0,159.0,-1069.0
42.0,31.0,-251.0,10.0,-36.0,-3.0,170.0,164.0,-1072.0
41.0,30.0,-254.0,9.0,-37.0,-4.0,163.0,155.0,-1074.0
46.0,28.0,-258.0,12.0,-36.0,-6.0,166.0,149.0,-1080.0
47.0,40.0,-257.0,11.0,-33.0,-7.0,165.0,160.0,-1083.0
44.0,31.0,-253.0,10.0,-29.0,-7.0,175.0,164.0,-1090.0
46.0,32.0,-255.0,12.0,-26.0,-8.0,173.0,160.0,-1087.0
45.0,31.0,-258.0,14.0,-25.0,-10.0,178.0,165.0,-1088.0
46.0,31.0,-258.0,14.0,-19.0,-11.0,187.0,159.0,-1097.0
40.0,32.0,-260.0,11.0,-13.0,-12.0,161.0,166.0,-1104.0
42.0,32.0,-255.0,6.0,-5.0,-14.0,176.0,163.0,-1089.0
43.0,33.0,-257.0,5.0,-3.0,-15.0,175.0,169.0,-1084.0
45.0,36.0,-258.0,6.0,-3.0,-15.0,176.0,170.0,-1096.0
42.0,34.0,-259.0,2.0,0.0,-16.0,172.0,172.0,-1094.0
41.0,34.0,-256.0,-4.0,1.0,-18.0,173.0,172.0,-1099.0
43.0,33.0,-258.0,-15.0,3.0,-19.0,174.0,173.0,-1092.0
44.0,31.0,-254.0,-26.0,3.0,-21.0,174.0,174.0,-1094.0
44.0,34.0,-254.0,-35.0,5.0,-20.0,173.0,177.0,-1089.0
45.0,34.0,-255.0,-41.0,7.0,-20.0,170.0,181.0,-1088.0
44.0,33.0,-253.0,-48.0,11.0,-20.0,167.0,179.0,-1089.0
42.0,37.0,-254.0,-50.0,14.0,-19.0,170.0,180.0,-1082.0
41.0,36.0,-252.0,-53.0,19.0,-20.0,163.0,177.0,-1073.0
39.0,34.0,-255.0,-54.0,25.0,-19.0,163.0,172.0,-1073.0
42.0,33.0,-250.0,-55.0,29.0,-17.0,164.0,174.0,-1064.0
39.0,38.0,-252.0,-54.0,36.0,-18.0,165.0,180.0,-1061.0
42.0,38.0,-250.0,-50.0,40.0,-19.0,165.0,182.0,-1074.0
40.0,35.0,-248.0,-52.0,46.0,-15.0,163.0,169.0,-1061.0
42.0,33.0,-244.0,-49.0,52.0,-16.0,165.0,176.0,-1050.0
42.0,34.0,-249.0,-42.0,57.0,-17.0,167.0,175.0,-1053.0
44.0,35.0,-250.0,-42.0,59.0,-14.0,162.0,174.0,-1061.0
41.0,41.0,-245.0,-45.0,61.0,-15.0,165.0,185.0,-1036.0
42.0,35.0,-246.0,-37.0,60.0,-14.0,162.0,171.0,-1047.0
42.0,38.0,-247.0,-34.0,59.0,-16.0,164.0,172.0,-1051.0
42.0,33.0,-246.0,-32.0,58.0,-14.0,164.0,177.0,-1052.0
41.0,36.0,-247.0,-27.0,57.0,-13.0,160.0,175.0,-1053.0
41.0,38.0,-246.0,-27.0,57.0,-11.0,159.0,179.0,-1054.0
41.0,34.0,-250.0,-22.0,57.0,-10.0,155.0,188.0,-1064.0
41.0,33.0,-251.0,-17.0,59.0,-9.0,158.0,178.0,-1076.0
39.0,37.0,-257.0,-18.0,61.0,-7.0,158.0,184.0,-1065.0
40.0,36.0,-251.0,-17.0,64.0,-6.0,160.0,173.0,-1067.0
43.0,36.0,-246.0,-18.0,63.0,-5.0,160.0,183.0,-1070.0
41.0,38.0,-249.0,-16.0,62.0,-4.0,165.0,182.0,-1068.0
41.0,37.0,-249.0,-14.0,62.0,-5.0,167.0,180.0,-1063.0
41.0,37.0,-252.0,-10.0,60.0,-3.0,165.0,180.0,-1066.0
38.0,38.0,-249.0,-6.0,59.0,-2.0,161.0,178.0,-1064.0
41.0,36.0,-249.0,1.0,57.0,-2.0,166.0,173.0,-1065.0
39.0,34.0,-256.0,5.0,58.0,-1.0,159.0,175.0,-1073.0
40.0,34.0,-248.0,8.0,60.0,-1.0,160.0,174.0,-1081.0
40.0,36.0,-253.0,11.0,63.0,-2.0,158.0,173.0,-1085.0
38.0,36.0,-251.0,12.0,69.0,0.0,156.0,172.0,-1078.0
37.0,35.0,-248.0,8.0,77.0,-1.0,159.0,169.0,-1076.0
39.0,34.0,-249.0,6.0,80.0,0.0,161.0,174.0,-1074.0
44.0,36.0,-254.0,4.0,82.0,1.0,160.0,173.0,-1071.0
42.0,38.0,-250.0,5.0,85.0,2.0,166.0,176.0,-1074.0
44.0,35.0,-252.0,6.0,83.0,2.0,167.0,174.0,-1079.0
42.0,30.0,-255.0,7.0,87.0,3.0,172.0,174.0,-1075.0
42.0,35.0,-251.0,6.0,89.0,2.0,165.0,170.0,-1073.0
43.0,33.0,-252.0,2.0,91.0,1.0,166.0,171.0,-1069.0
43.0,33.0,-250.0,0.0,93.0,0.0,168.0,170.0,-1068.0
39.0,36.0,-252.0,-4.0,93.0,-2.0,164.0,166.0,-1064.0
40.0,32.0,-251.0,-8.0,98.0,-1.0,163.0,164.0,-1068.0
40.0,34.0,-250.0,-9.0,101.0,-1.0,165.0,174.0,-1068.0
42.0,34.0,-250.0,-6.0,100.0,-1.0,169.0,171.0,-1064.0
43.0,31.0,-247.0,-2.0,101.0,0.0,169.0,171.0,-1074.0
40.0,32.0,-251.0,2.0,101.0,-1.0,169.0,164.0,-1070.0
41.0,31.0,-249.0,1.0,104.0,0.0,166.0,165.0,-1066.0
43.0,30.0,-249.0,-3.0,106.0,-1.0,168.0,164.0,-1058.0
43.0,32.0,-246.0,-5.0,108.0,0.0,166.0,164.0,-1054.0
39.0,30.0,-245.0,-9.0,110.0,0.0,164.0,167.0,-1058.0
41.0,32.0,-248.0,-11.0,111.0,0.0,165.0,161.0,-1054.0
40.0,35.0,-247.0,-13.0,111.0,0.0,164.0,164.0,-1060.0
42.0,34.0,-246.0,-14.0,111.0,2.0,164.0,171.0,-1060.0
40.0,33.0,-252.0,-12.0,112.0,1.0,164.0,169.0,-1056.0
43.0,34.0,-249.0,-13.0,114.0,3.0,166.0,169.0,-1061.0
42.0,33.0,-250.0,-11.0,112.0,2.0,169.0,170.0,-1062.0
43.0,33.0,-253.0,-10.0,113.0,3.0,170.0,167.0,-1065.0
41.0,35.0,-253.0,-9.0,115.0,4.0,164.0,169.0,-1068.0
47.0,34.0,-254.0,-8.0,115.0,3.0,168.0,168.0,-1069.0
43.0,33.0,-251.0,-8.0,114.0,4.0,175.0,173.0,-1068.0
43.0,34.0,-252.0,-9.0,116.0,4.0,164.0,163.0,-1072.0
41.0,39.0,-249.0,-11.0,115.0,3.0,176.0,170.0,-1071.0
44.0,33.0,-249.0,-10.0,117.0,3.0,171.0,174.0,-1067.0
44.0,34.0,-250.0,-11.0,117.0,2.0,171.0,168.0,-1066.0
41.0,35.0,-248.0,-10.0,114.0,2.0,173.0,169.0,-1061.0
41.0,36.0,-248.0,-9.0,112.0,2.0,171.0,171.0,-1060.0
44.0,33.0,-249.0,-7.0,109.0,1.0,172.0,169.0,-1065.0
44.0,36.0,-246.0,-7.0,109.0,1.0,180.0,172.0,-1056.0
42.0,33.0,-249.0,-7.0,108.0,0.0,168.0,164.0,-1059.0
42.0,33.0,-244.0,-9.0,104.0,0.0,176.0,170.0,-1061.0
44.0,33.0,-247.0,-11.0,102.0,-1.0,172.0,169.0,-1057.0
45.0,32.0,-249.0,-14.0,99.0,-2.0,171.0,171.0,-1058.0
46.0,34.0,-248.0,-16.0,97.0,-2.0,173.0,170.0,-1058.0
44.0,34.0,-248.0,-13.0,97.0,-2.0,168.0,171.0,-1057.0
43.0,36.0,-252.0,-12.0,95.0,-2.0,172.0,169.0,-1065.0
45.0,35.0,-246.0,-15.0,96.0,-2.0,171.0,169.0,-1063.0
44.0,35.0,-248.0,-11.0,93.0,-1.0,171.0,173.0,-1053.0
41.0,37.0,-252.0,-5.0,91.0,-3.0,173.0,169.0,-1066.0
43.0,33.0,-252.0,-6.0,91.0,-2.0,174.0,173.0,-1061.0
45.0,34.0,-247.0,-9.0,92.0,-1.0,169.0,171.0,-1058.0
46.0,36.0,-247.0,-9.0,92.0,-1.0,171.0,175.0,-1069.0
46.0,36.0,-248.0,-10.0,93.0,-1.0,174.0,174.0,-1066.0
47.0,34.0,-248.0,-10.0,93.0,1.0,174.0,172.0,-1063.0
42.0,37.0,-252.0,-8.0,94.0,1.0,177.0,170.0,-1066.0
45.0,33.0,-250.0,-8.0,95.0,0.0,181.0,174.0,-1065.0
44.0,34.0,-249.0,-6.0,94.0,2.0,182.0,171.0,-1063.0
46.0,33.0,-249.0,-2.0,92.0,1.0,178.0,173.0,-1065.0
44.0,35.0,-250.0,0.0,91.0,1.0,175.0,172.0,-1063.0
45.0,34.0,-249.0,0.0,90.0,0.0,174.0,173.0,-1066.0
49.0,34.0,-247.0,0.0,88.0,1.0,202.0,173.0,-1057.0
45.0,35.0,-247.0,-2.0,91.0,-1.0,171.0,174.0,-1064.0
44.0,35.0,-246.0,-4.0,90.0,1.0,174.0,172.0,-1059.0
46.0,34.0,-250.0,-3.0,89.0,0.0,182.0,171.0,-1058.0
43.0,35.0,-252.0,-2.0,86.0,-1.0,170.0,169.0,-1063.0
44.0,36.0,-251.0,-1.0,86.0,0.0,174.0,169.0,-1063.0
45.0,35.0,-249.0,0.0,86.0,0.0,176.0,173.0,-1063.0
45.0,34.0,-249.0,0.0,85.0,0.0,175.0,166.0,-1067.0
45.0,34.0,-250.0,0.0,86.0,1.0,176.0,170.0,-1069.0
45.0,31.0,-253.0,1.0,88.0,0.0,177.0,166.0,-1067.0
46.0,32.0,-255.0,1.0,90.0,1.0,187.0,165.0,-1061.0
46.0,33.0,-252.0,2.0,94.0,0.0,185.0,165.0,-1071.0
44.0,31.0,-250.0,0.0,98.0,1.0,169.0,164.0,-1065.0
46.0,30.0,-253.0,1.0,99.0,1.0,178.0,168.0,-1064.0
47.0,33.0,-250.0,3.0,98.0,2.0,174.0,169.0,-1063.0
43.0,34.0,-250.0,7.0,97.0,1.0,175.0,164.0,-1060.0
45.0,32.0,-249.0,8.0,94.0,1.0,194.0,166.0,-1056.0
50.0,30.0,-248.0,10.0,88.0,1.0,170.0,170.0,-1056.0
44.0,32.0,-251.0,8.0,87.0,-1.0,171.0,167.0,-1060.0
45.0,32.0,-250.0,9.0,84.0,-1.0,172.0,169.0,-1061.0
45.0,32.0,-250.0,8.0,85.0,-1.0,174.0,154.0,-1064.0
44.0,32.0,-248.0,5.0,82.0,-1.0,175.0,166.0,-1061.0
46.0,33.0,-248.0,1.0,80.0,-1.0,176.0,172.0,-1065.0
43.0,33.0,-250.0,-1.0,84.0,0.0,162.0,168.0,-1062.0
45.0,30.0,-249.0,-4.0,86.0,0.0,175.0,162.0,-1062.0
47.0,33.0,-241.0,-4.0,87.0,0.0,181.0,170.0,-1048.0
46.0,31.0,-248.0,5.0,89.0,0.0,176.0,158.0,-1059.0
45.0,32.0,-246.0,5.0,85.0,0.0,181.0,165.0,-1060.0
46.0,31.0,-248.0,3.0,81.0,1.0,183.0,166.0,-1065.0
46.0,32.0,-253.0,2.0,80.0,0.0,175.0,168.0,-1067.0
47.0,34.0,-249.0,3.0,81.0,0.0,175.0,170.0,-1067.0
42.0,36.0,-251.0,8.0,85.0,1.0,158.0,164.0,-1066.0
47.0,33.0,-249.0,9.0,86.0,2.0,176.0,164.0,-1057.0
43.0,34.0,-248.0,9.0,83.0,1.0,182.0,164.0,-1061.0
49.0,36.0,-248.0,8.0,81.0,-1.0,197.0,168.0,-1061.0
51.0,31.0,-252.0,6.0,81.0,0.0,186.0,171.0,-1067.0
44.0,30.0,-248.0,10.0,85.0,-2.0,176.0,161.0,-1063.0
42.0,33.0,-248.0,8.0,78.0,-2.0,169.0,159.0,-1060.0
49.0,33.0,-247.0,6.0,80.0,-1.0,181.0,166.0,-1069.0
45.0,32.0,-252.0,6.0,79.0,1.0,177.0,166.0,-1070.0
49.0,31.0,-246.0,7.0,81.0,0.0,185.0,163.0,-1064.0
45.0,31.0,-251.0,12.0,88.0,0.0,183.0,156.0,-1063.0
44.0,32.0,-250.0,6.0,86.0,-1.0,180.0,160.0,-1069.0
43.0,33.0,-244.0,2.0,87.0,0.0,181.0,168.0,-1052.0
47.0,30.0,-248.0,4.0,88.0,0.0,179.0,161.0,-1059.0
45.0,32.0,-249.0,3.0,86.0,1.0,183.0,166.0,-1063.0
46.0,37.0,-244.0,2.0,88.0,0.0,172.0,177.0,-1069.0
53.0,30.0,-245.0,6.0,92.0,-1.0,207.0,159.0,-1057.0
45.0,34.0,-246.0,3.0,90.0,0.0,196.0,157.0,-1060.0
47.0,33.0,-248.0,0.0,89.0,0.0,183.0,165.0,-1064.0
45.0,36.0,-249.0,1.0,85.0,0.0,184.0,158.0,-1055.0
46.0,33.0,-248.0,2.0,83.0,0.0,187.0,154.0,-1057.0
48.0,30.0,-249.0,-1.0,84.0,1.0,185.0,167.0,-1056.0
48.0,28.0,-250.0,3.0,88.0,-2.0,180.0,154.0,-1059.0
46.0,30.0,-251.0,1.0,83.0,-2.0,182.0,160.0,-1059.0
48.0,31.0,-245.0,4.0,82.0,-1.0,192.0,170.0,-1070.0
45.0,33.0,-250.0,7.0,80.0,1.0,183.0,162.0,-1064.0
43.0,37.0,-251.0,7.0,80.0,0.0,181.0,164.0,-1059.0
44.0,33.0,-249.0,7.0,78.0,-1.0,183.0,162.0,-1061.0
49.0,29.0,-246.0,4.0,76.0,-1.0,203.0,162.0,-1059.0
44.0,32.0,-248.0,4.0,73.0,-2.0,186.0,154.0,-1058.0
48.0,33.0,-251.0,5.0,73.0,-2.0,196.0,156.0,-1062.0
54.0,30.0,-248.0,6.0,75.0,-3.0,212.0,160.0,-1054.0
46.0,28.0,-246.0,1.0,72.0,-3.0,173.0,155.0,-1055.0
45.0,33.0,-248.0,1.0,69.0,-4.0,182.0,163.0,-1059.0
46.0,31.0,-249.0,0.0,66.0,-4.0,179.0,160.0,-1058.0
45.0,30.0,-246.0,-1.0,65.0,-3.0,180.0,157.0,-1058.0
48.0,29.0,-242.0,0.0,64.0,-3.0,183.0,159.0,-1052.0
44.0,34.0,-246.0,1.0,63.0,-4.0,179.0,167.0,-1056.0
46.0,35.0,-248.0,2.0,60.0,-5.0,180.0,164.0,-1054.0
46.0,31.0,-250.0,-6.0,59.0,-4.0,181.0,154.0,-1069.0
47.0,32.0,-246.0,-6.0,59.0,-3.0,182.0,172.0,-1034.0
48.0,31.0,-249.0,3.0,55.0,-4.0,183.0,161.0,-1068.0
44.0,31.0,-247.0,3.0,53.0,-5.0,174.0,160.0,-1068.0
46.0,31.0,-249.0,1.0,53.0,-4.0,181.0,165.0,-1067.0
47.0,30.0,-251.0,-1.0,55.0,-4.0,183.0,165.0,-1068.0
46.0,29.0,-251.0,-2.0,56.0,-4.0,179.0,158.0,-1069.0
46.0,32.0,-250.0,-3.0,56.0,-4.0,179.0,164.0,-1066.0
46.0,33.0,-252.0,-2.0,55.0,-4.0,177.0,161.0,-1067.0
47.0,29.0,-250.0,-2.0,58.0,-3.0,176.0,154.0,-1070.0
45.0,33.0,-249.0,-4.0,59.0,-2.0,177.0,162.0,-1067.0
46.0,34.0,-250.0,-5.0,62.0,-3.0,176.0,163.0,-1065.0
43.0,33.0,-251.0,-6.0,64.0,-3.0,176.0,164.0,-1062.0
47.0,31.0,-251.0,-5.0,64.0,-4.0,186.0,154.0,-1074.0
41.0,28.0,-249.0,-2.0,70.0,-4.0,184.0,150.0,-1055.0
48.0,29.0,-250.0,-2.0,62.0,-5.0,193.0,155.0,-1058.0
43.0,29.0,-248.0,-3.0,61.0,-4.0,174.0,165.0,-1055.0
45.0,31.0,-251.0,-3.0,60.0,-4.0,182.0,165.0,-1062.0
47.0,34.0,-250.0,-2.0,57.0,-4.0,179.0,166.0,-1068.0
43.0,34.0,-252.0,-3.0,57.0,-5.0,179.0,162.0,-1064.0
47.0,30.0,-250.0,-4.0,57.0,-3.0,184.0,165.0,-1062.0
45.0,33.0,-248.0,-5.0,58.0,-4.0,179.0,159.0,-1061.0
41.0,31.0,-249.0,-5.0,59.0,-5.0,182.0,162.0,-1062.0
44.0,29.0,-248.0,-6.0,58.0,-5.0,177.0,161.0,-1062.0
50.0,30.0,-249.0,-8.0,57.0,-4.0,204.0,168.0,-1059.0
53.0,31.0,-249.0,-9.0,56.0,-4.0,209.0,161.0,-1056.0
40.0,31.0,-248.0,-10.0,51.0,-4.0,158.0,157.0,-1060.0
44.0,34.0,-249.0,-13.0,57.0,-3.0,178.0,161.0,-1063.0
43.0,33.0,-247.0,-13.0,57.0,-4.0,174.0,154.0,-1064.0
46.0,32.0,-249.0,-12.0,56.0,-4.0,179.0,156.0,-1061.0
46.0,36.0,-250.0,-12.0,55.0,-4.0,178.0,164.0,-1059.0
46.0,28.0,-247.0,-14.0,58.0,-4.0,172.0,161.0,-1062.0
46.0,31.0,-248.0,-13.0,60.0,-3.0,179.0,158.0,-1060.0
44.0,31.0,-250.0,-13.0,60.0,-4.0,180.0,161.0,-1062.0
44.0,31.0,-250.0,-12.0,62.0,-3.0,176.0,157.0,-1062.0
45.0,30.0,-247.0,-12.0,64.0,-2.0,181.0,158.0,-1058.0
47.0,32.0,-250.0,-12.0,63.0,-4.0,177.0,162.0,-1069.0
43.0,35.0,-249.0,-13.0,63.0,-4.0,176.0,157.0,-1060.0
43.0,31.0,-248.0,-14.0,63.0,-2.0,182.0,156.0,-1062.0
46.0,34.0,-249.0,-14.0,62.0,-3.0,182.0,156.0,-1061.0
46.0,30.0,-245.0,-15.0,61.0,-4.0,178.0,156.0,-1062.0
44.0,32.0,-250.0,-17.0,60.0,-4.0,180.0,157.0,-1058.0
46.0,33.0,-246.0,-16.0,60.0,-4.0,179.0,160.0,-1063.0
46.0,31.0,-248.0,-17.0,60.0,-4.0,174.0,162.0,-1065.0
45.0,30.0,-251.0,-18.0,60.0,-4.0,178.0,160.0,-1063.0
42.0,33.0,-248.0,-18.0,61.0,-4.0,181.0,162.0,-1058.0
43.0,36.0,-251.0,-20.0,63.0,-4.0,176.0,160.0,-1065.0
46.0,32.0,-251.0,-20.0,65.0,-5.0,175.0,161.0,-1066.0
45.0,30.0,-255.0,-19.0,66.0,-5.0,179.0,161.0,-1070.0
45.0,30.0,-248.0,-21.0,70.0,-5.0,178.0,161.0,-1069.0
45.0,32.0,-254.0,-23.0,71.0,-4.0,176.0,168.0,-1063.0
52.0,30.0,-256.0,-23.0,73.0,-2.0,179.0,164.0,-1070.0
45.0,31.0,-250.0,-24.0,76.0,-3.0,182.0,160.0,-1066.0
45.0,28.0,-249.0,-24.0,77.0,-2.0,178.0,156.0,-1065.0
44.0,30.0,-247.0,-24.0,77.0,-4.0,181.0,163.0,-1070.0
46.0,31.0,-251.0,-24.0,79.0,-3.0,175.0,163.0,-1064.0
46.0,31.0,-250.0,-24.0,79.0,-3.0,182.0,163.0,-1061.0
45.0,30.0,-247.0,-22.0,79.0,-3.0,175.0,157.0,-1059.0
44.0,33.0,-243.0,-22.0,78.0,-4.0,174.0,163.0,-1053.0
46.0,28.0,-248.0,-20.0,77.0,-4.0,181.0,167.0,-1057.0
45.0,31.0,-244.0,-19.0,75.0,-4.0,176.0,156.0,-1060.0
43.0,33.0,-247.0,-18.0,77.0,-1.0,180.0,158.0,-1060.0
44.0,32.0,-249.0,-18.0,75.0,-3.0,184.0,166.0,-1064.0
44.0,33.0,-248.0,-19.0,76.0,-3.0,180.0,163.0,-1059.0
46.0,30.0,-250.0,-22.0,78.0,-2.0,177.0,158.0,-1060.0
47.0,27.0,-249.0,-21.0,78.0,-1.0,179.0,157.0,-1054.0
45.0,32.0,-249.0,-20.0,77.0,-4.0,183.0,163.0,-1060.0
40.0,33.0,-249.0,-19.0,75.0,-4.0,182.0,159.0,-1055.0
45.0,34.0,-251.0,-20.0,73.0,-4.0,175.0,161.0,-1053.0
44.0,30.0,-249.0,-19.0,73.0,-4.0,179.0,164.0,-1059.0
48.0,32.0,-247.0,-18.0,68.0,-4.0,181.0,159.0,-1059.0
45.0,31.0,-249.0,-17.0,66.0,-4.0,186.0,158.0,-1063.0
44.0,34.0,-249.0,-16.0,64.0,-3.0,178.0,160.0,-1059.0
48.0,33.0,-248.0,-15.0,62.0,-4.0,179.0,164.0,-1063.0
45.0,34.0,-251.0,-12.0,63.0,-4.0,179.0,166.0,-1069.0
45.0,32.0,-250.0,-12.0,65.0,-4.0,175.0,160.0,-1066.0
46.0,30.0,-252.0,-13.0,66.0,-2.0,178.0,161.0,-1068.0
45.0,29.0,-250.0,-16.0,70.0,-3.0,178.0,169.0,-1070.0
45.0,35.0,-249.0,-15.0,71.0,-5.0,189.0,167.0,-1064.0
48.0,33.0,-251.0,-13.0,71.0,-4.0,180.0,161.0,-1068.0
44.0,33.0,-251.0,-13.0,71.0,-4.0,178.0,165.0,-1067.0
44.0,30.0,-249.0,-13.0,72.0,-3.0,179.0,156.0,-1068.0
45.0,30.0,-248.0,-15.0,72.0,-6.0,183.0,156.0,-1057.0
46.0,29.0,-249.0,-18.0,72.0,-6.0,182.0,154.0,-1056.0
45.0,30.0,-244.0,-19.0,71.0,-5.0,181.0,159.0,-1055.0
45.0,32.0,-246.0,-21.0,72.0,-5.0,178.0,163.0,-1053.0
47.0,29.0,-250.0,-18.0,69.0,-6.0,180.0,161.0,-1057.0
45.0,32.0,-246.0,-11.0,67.0,-5.0,177.0,157.0,-1064.0
44.0,32.0,-250.0,-5.0,65.0,-5.0,176.0,165.0,-1069.0
47.0,28.0,-249.0,-5.0,64.0,-4.0,176.0,157.0,-1071.0
44.0,31.0,-249.0,-8.0,65.0,-4.0,178.0,156.0,-1061.0
47.0,31.0,-251.0,-11.0,66.0,-4.0,174.0,153.0,-1056.0
46.0,31.0,-248.0,-13.0,67.0,-5.0,176.0,159.0,-1060.0
47.0,34.0,-247.0,-15.0,67.0,-5.0,181.0,160.0,-1059.0
42.0,33.0,-252.0,-16.0,66.0,-5.0,181.0,170.0,-1063.0
43.0,33.0,-246.0,-16.0,66.0,-5.0,177.0,174.0,-1065.0
43.0,31.0,-252.0,-18.0,66.0,-5.0,176.0,152.0,-1063.0
45.0,30.0,-247.0,-17.0,66.0,-4.0,180.0,148.0,-1069.0
45.0,31.0,-248.0,-18.0,67.0,-4.0,176.0,161.0,-1069.0
45.0,34.0,-249.0,-17.0,69.0,-4.0,176.0,170.0,-1064.0
44.0,34.0,-250.0,-14.0,71.0,-4.0,172.0,170.0,-1066.0
46.0,30.0,-251.0,-15.0,70.0,-5.0,174.0,167.0,-1068.0
45.0,29.0,-250.0,-16.0,71.0,-3.0,175.0,163.0,-1079.0
43.0,33.0,-260.0,-32.0,72.0,-4.0,184.0,145.0,-1106.0
46.0,36.0,-234.0,-56.0,72.0,-4.0,174.0,189.0,-995.0
44.0,34.0,-241.0,-20.0,75.0,-4.0,178.0,166.0,-1044.0
46.0,26.0,-257.0,3.0,75.0,-4.0,179.0,148.0,-1085.0
48.0,30.0,-254.0,-11.0,75.0,-5.0,178.0,161.0,-1079.0
46.0,34.0,-249.0,-27.0,75.0,-5.0,182.0,172.0,-1066.0
46.0,35.0,-249.0,-28.0,71.0,-4.0,182.0,171.0,-1059.0
48.0,32.0,-249.0,-20.0,69.0,-6.0,180.0,166.0,-1059.0
47.0,31.0,-249.0,-15.0,70.0,-6.0,180.0,161.0,-1065.0
47.0,30.0,-249.0,-13.0,68.0,-5.0,177.0,161.0,-1062.0
46.0,28.0,-247.0,-12.0,67.0,-4.0,182.0,158.0,-1061.0
46.0,30.0,-249.0,-14.0,66.0,-5.0,182.0,163.0,-1062.0
44.0,33.0,-249.0,-17.0,66.0,-5.0,178.0,169.0,-1063.0
44.0,32.0,-248.0,-18.0,66.0,-5.0,175.0,164.0,-1061.0
44.0,29.0,-248.0,-15.0,66.0,-4.0,177.0,164.0,-1061.0
48.0,31.0,-250.0,-13.0,70.0,-3.0,178.0,164.0,-1061.0
43.0,33.0,-250.0,-10.0,70.0,-3.0,177.0,162.0,-1061.0
41.0,34.0,-249.0,-6.0,70.0,-3.0,179.0,163.0,-1058.0
45.0,29.0,-253.0,-5.0,72.0,-4.0,180.0,161.0,-1063.0
43.0,33.0,-253.0,-3.0,73.0,-3.0,174.0,160.0,-1066.0
48.0,30.0,-251.0,-3.0,75.0,-2.0,176.0,163.0,-1066.0
46.0,31.0,-252.0,-1.0,77.0,-2.0,180.0,161.0,-1065.0
44.0,30.0,-251.0,0.0,78.0,-4.0,177.0,162.0,-1071.0
47.0,31.0,-249.0,1.0,77.0,-2.0,179.0,167.0,-1066.0
46.0,30.0,-249.0,2.0,77.0,-3.0,175.0,164.0,-1070.0
47.0,32.0,-252.0,2.0,79.0,-2.0,174.0,164.0,-1066.0
43.0,30.0,-249.0,3.0,80.0,-4.0,185.0,163.0,-1060.0
47.0,31.0,-248.0,2.0,80.0,-5.0,183.0,160.0,-1063.0
43.0,30.0,-249.0,1.0,79.0,-4.0,178.0,157.0,-1058.0
44.0,33.0,-249.0,-1.0,77.0,-3.0,176.0,162.0,-1062.0
46.0,35.0,-245.0,-1.0,76.0,-3.0,189.0,162.0,-1058.0
44.0,30.0,-248.0,1.0,75.0,-4.0,176.0,166.0,-1062.0
46.0,32.0,-247.0,-1.0,76.0,-4.0,177.0,162.0,-1058.0
45.0,35.0,-247.0,-2.0,77.0,-2.0,183.0,162.0,-1059.0
44.0,28.0,-252.0,-1.0,77.0,-3.0,176.0,159.0,-1066.0
45.0,33.0,-251.0,-2.0,79.0,-3.0,176.0,155.0,-1069.0
48.0,31.0,-250.0,-6.0,80.0,-3.0,176.0,164.0,-1069.0
47.0,30.0,-252.0,-7.0,82.0,-4.0,177.0,159.0,-1071.0
44.0,32.0,-249.0,-9.0,85.0,-2.0,177.0,154.0,-1065.0
43.0,30.0,-253.0,-10.0,85.0,-3.0,176.0,161.0,-1067.0
45.0,30.0,-251.0,-12.0,89.0,-4.0,173.0,165.0,-1065.0
46.0,33.0,-250.0,-14.0,89.0,-3.0,178.0,164.0,-1062.0
47.0,28.0,-250.0,-15.0,89.0,-3.0,179.0,161.0,-1061.0
46.0,33.0,-250.0,-14.0,88.0,-3.0,187.0,161.0,-1060.0
47.0,30.0,-249.0,-16.0,84.0,-4.0,178.0,162.0,-1057.0
47.0,31.0,-249.0,-16.0,84.0,-4.0,181.0,164.0,-1057.0
46.0,33.0,-248.0,-17.0,85.0,-4.0,181.0,157.0,-1059.0
44.0,28.0,-248.0,-19.0,84.0,-6.0,174.0,156.0,-1062.0
46.0,33.0,-248.0,-19.0,84.0,-4.0,183.0,160.0,-1061.0
45.0,29.0,-251.0,-21.0,83.0,-5.0,178.0,158.0,-1061.0
44.0,33.0,-251.0,-25.0,86.0,-4.0,180.0,166.0,-1061.0
48.0,31.0,-248.0,-28.0,87.0,-4.0,181.0,163.0,-1063.0
45.0,35.0,-248.0,-30.0,87.0,-3.0,176.0,167.0,-1061.0
43.0,32.0,-248.0,-32.0,87.0,-4.0,183.0,156.0,-1064.0
45.0,35.0,-248.0,-35.0,89.0,-4.0,181.0,157.0,-1068.0
46.0,32.0,-249.0,-38.0,91.0,-4.0,184.0,161.0,-1066.0
47.0,32.0,-250.0,-40.0,91.0,-4.0,187.0,167.0,-1066.0
47.0,32.0,-249.0,-42.0,92.0,-4.0,182.0,170.0,-1067.0
49.0,31.0,-248.0,-47.0,91.0,-4.0,188.0,166.0,-1060.0
46.0,29.0,-246.0,-41.0,90.0,-6.0,178.0,158.0,-1054.0
45.0,31.0,-250.0,-39.0,88.0,-6.0,186.0,159.0,-1065.0
49.0,32.0,-250.0,-38.0,87.0,-7.0,180.0,166.0,-1061.0
46.0,33.0,-250.0,-38.0,87.0,-5.0,182.0,165.0,-1057.0
48.0,31.0,-247.0,-37.0,87.0,-5.0,183.0,161.0,-1057.0
47.0,32.0,-247.0,-36.0,86.0,-6.0,179.0,159.0,-1059.0
48.0,32.0,-247.0,-35.0,85.0,-7.0,183.0,163.0,-1053.0
45.0,33.0,-249.0,-36.0,84.0,-7.0,180.0,162.0,-1058.0
48.0,34.0,-251.0,-35.0,84.0,-6.0,183.0,167.0,-1059.0
48.0,33.0,-250.0,-36.0,84.0,-6.0,187.0,166.0,-1058.0
47.0,33.0,-253.0,-35.0,83.0,-6.0,180.0,166.0,-1061.0
46.0,31.0,-250.0,-34.0,84.0,-5.0,182.0,160.0,-1063.0
47.0,31.0,-253.0,-32.0,85.0,-6.0,184.0,163.0,-1059.0
46.0,35.0,-251.0,-31.0,85.0,-6.0,183.0,169.0,-1062.0
45.0,31.0,-249.0,-30.0,87.0,-5.0,182.0,165.0,-1061.0
47.0,32.0,-244.0,-27.0,88.0,-3.0,185.0,164.0,-1059.0
49.0,34.0,-247.0,-25.0,88.0,-4.0,183.0,166.0,-1058.0
45.0,32.0,-251.0,-24.0,86.0,-6.0,182.0,159.0,-1051.0
46.0,35.0,-248.0,-23.0,86.0,-5.0,188.0,169.0,-1057.0
47.0,32.0,-248.0,-23.0,86.0,-4.0,183.0,170.0,-1058.0
47.0,31.0,-248.0,-20.0,85.0,-3.0,189.0,171.0,-1059.0
46.0,32.0,-249.0,-17.0,84.0,-4.0,184.0,168.0,-1061.0
45.0,31.0,-247.0,-18.0,81.0,-3.0,181.0,170.0,-1058.0
44.0,33.0,-248.0,-17.0,81.0,-5.0,186.0,166.0,-1057.0
47.0,35.0,-249.0,-20.0,82.0,-5.0,186.0,163.0,-1058.0
43.0,31.0,-247.0,-21.0,80.0,-5.0,183.0,165.0,-1056.0
48.0,30.0,-249.0,-25.0,79.0,-5.0,185.0,162.0,-1050.0
47.0,33.0,-248.0,-26.0,76.0,-5.0,188.0,160.0,-1049.0
46.0,30.0,-243.0,-22.0,73.0,-4.0,184.0,161.0,-1061.0
50.0,33.0,-250.0,-14.0,70.0,-5.0,188.0,166.0,-1067.0
45.0,33.0,-252.0,-6.0,65.0,-4.0,184.0,166.0,-1068.0
42.0,36.0,-249.0,-3.0,66.0,-3.0,188.0,166.0,-1069.0
47.0,33.0,-247.0,-3.0,66.0,-4.0,183.0,169.0,-1063.0
48.0,33.0,-250.0,-5.0,67.0,-3.0,186.0,168.0,-1063.0
48.0,32.0,-247.0,-6.0,66.0,-4.0,191.0,167.0,-1060.0
46.0,33.0,-250.0,-8.0,66.0,-5.0,183.0,162.0,-1061.0
50.0,33.0,-250.0,-10.0,67.0,-3.0,181.0,165.0,-1061.0
46.0,35.0,-251.0,-10.0,67.0,-3.0,180.0,167.0,-1064.0
50.0,28.0,-252.0,-13.0,67.0,-3.0,182.0,158.0,-1069.0
47.0,33.0,-248.0,-13.0,67.0,-2.0,188.0,166.0,-1057.0
47.0,34.0,-247.0,-10.0,67.0,-3.0,189.0,165.0,-1067.0
47.0,32.0,-251.0,-11.0,66.0,-5.0,185.0,169.0,-1064.0
47.0,33.0,-250.0,-13.0,66.0,-5.0,188.0,170.0,-1066.0
47.0,33.0,-248.0,-12.0,67.0,-4.0,188.0,164.0,-1062.0
44.0,34.0,-250.0,-15.0,66.0,-3.0,185.0,172.0,-1064.0
47.0,33.0,-246.0,-17.0,66.0,-4.0,187.0,161.0,-1066.0
45.0,32.0,-253.0,-19.0,66.0,-5.0,189.0,159.0,-1065.0
47.0,30.0,-249.0,-21.0,65.0,-4.0,183.0,170.0,-1064.0
44.0,33.0,-247.0,-22.0,63.0,-6.0,185.0,163.0,-1060.0
45.0,32.0,-247.0,-21.0,63.0,-5.0,193.0,161.0,-1063.0
48.0,33.0,-244.0,-20.0,62.0,-5.0,183.0,159.0,-1062.0
46.0,35.0,-250.0,-18.0,62.0,-6.0,190.0,162.0,-1059.0
48.0,35.0,-245.0,-17.0,61.0,-7.0,186.0,162.0,-1065.0
46.0,34.0,-251.0,-16.0,63.0,-5.0,184.0,164.0,-1057.0
46.0,34.0,-248.0,-15.0,64.0,-4.0,185.0,161.0,-1063.0
48.0,33.0,-252.0,-15.0,65.0,-5.0,187.0,169.0,-1061.0
46.0,31.0,-247.0,-16.0,66.0,-6.0,184.0,165.0,-1061.0
49.0,33.0,-250.0,-17.0,68.0,-5.0,188.0,166.0,-1059.0
44.0,34.0,-247.0,-18.0,67.0,-5.0,187.0,166.0,-1058.0
47.0,33.0,-249.0,-18.0,66.0,-6.0,190.0,169.0,-1063.0
47.0,33.0,-250.0,-20.0,65.0,-6.0,185.0,167.0,-1062.0
47.0,31.0,-248.0,-22.0,64.0,-6.0,188.0,165.0,-1059.0
47.0,33.0,-250.0,-23.0,65.0,-7.0,182.0,168.0,-1076.0
43.0,36.0,-245.0,-28.0,65.0,-6.0,182.0,173.0,-1050.0
46.0,33.0,-250.0,-24.0,65.0,-8.0,190.0,170.0,-1061.0
45.0,34.0,-251.0,-19.0,64.0,-7.0,185.0,165.0,-1067.0
47.0,34.0,-251.0,-21.0,65.0,-7.0,186.0,171.0,-1066.0
47.0,32.0,-248.0,-24.0,65.0,-6.0,185.0,173.0,-1064.0
45.0,34.0,-245.0,-23.0,66.0,-7.0,187.0,155.0,-1059.0
47.0,32.0,-247.0,-23.0,65.0,-6.0,185.0,168.0,-1061.0
47.0,31.0,-247.0,-23.0,65.0,-7.0,183.0,162.0,-1060.0
47.0,32.0,-249.0,-22.0,66.0,-6.0,189.0,169.0,-1057.0
48.0,29.0,-245.0,-21.0,67.0,-8.0,185.0,167.0,-1058.0
46.0,32.0,-249.0,-22.0,67.0,-6.0,186.0,170.0,-1067.0
44.0,32.0,-253.0,-22.0,68.0,-6.0,183.0,171.0,-1057.0
47.0,29.0,-255.0,-20.0,68.0,-7.0,175.0,159.0,-1072.0
47.0,31.0,-250.0,-23.0,68.0,-6.0,186.0,160.0,-1056.0
43.0,32.0,-252.0,-25.0,68.0,-7.0,180.0,160.0,-1071.0
48.0,37.0,-240.0,-22.0,70.0,-5.0,184.0,186.0,-1017.0
47.0,33.0,-251.0,-2.0,68.0,-4.0,185.0,164.0,-1070.0
48.0,32.0,-252.0,-4.0,69.0,-4.0,178.0,167.0,-1073.0
48.0,33.0,-250.0,-11.0,70.0,-4.0,186.0,169.0,-1068.0
47.0,31.0,-249.0,-11.0,70.0,-3.0,181.0,169.0,-1061.0
45.0,35.0,-251.0,-11.0,69.0,-2.0,182.0,170.0,-1062.0
47.0,32.0,-247.0,-8.0,67.0,-2.0,182.0,173.0,-1067.0
49.0,33.0,-248.0,-7.0,65.0,-2.0,190.0,166.0,-1062.0
47.0,31.0,-252.0,-8.0,65.0,-2.0,186.0,175.0,-1060.0
45.0,35.0,-250.0,-10.0,63.0,-4.0,181.0,168.0,-1061.0
47.0,30.0,-250.0,-10.0,62.0,-4.0,185.0,158.0,-1068.0
45.0,27.0,-241.0,-13.0,62.0,-4.0,183.0,152.0,-1057.0
48.0,33.0,-250.0,-15.0,65.0,-5.0,189.0,164.0,-1059.0
47.0,34.0,-249.0,-14.0,66.0,-4.0,183.0,176.0,-1055.0
44.0,35.0,-248.0,-14.0,64.0,-5.0,176.0,174.0,-1062.0
44.0,35.0,-250.0,-13.0,63.0,-5.0,183.0,170.0,-1065.0
47.0,35.0,-253.0,-12.0,63.0,-2.0,181.0,166.0,-1062.0
49.0,35.0,-248.0,-13.0,64.0,-3.0,184.0,160.0,-1060.0
48.0,33.0,-246.0,-11.0,66.0,-3.0,184.0,165.0,-1060.0
46.0,36.0,-248.0,-12.0,67.0,-4.0,183.0,168.0,-1064.0
45.0,34.0,-249.0,-13.0,67.0,-3.0,182.0,166.0,-1061.0
49.0,29.0,-247.0,-13.0,68.0,-3.0,193.0,164.0,-1068.0
46.0,33.0,-248.0,-13.0,71.0,-3.0,187.0,166.0,-1062.0
48.0,36.0,-247.0,-14.0,71.0,-3.0,190.0,169.0,-1062.0
45.0,33.0,-249.0,-14.0,70.0,-3.0,189.0,161.0,-1063.0
44.0,34.0,-251.0,-15.0,70.0,-3.0,193.0,163.0,-1059.0
46.0,32.0,-250.0,-16.0,70.0,-4.0,184.0,169.0,-1061.0
47.0,31.0,-252.0,-16.0,68.0,-5.0,183.0,169.0,-1061.0
46.0,34.0,-247.0,-16.0,68.0,-5.0,184.0,168.0,-1068.0
49.0,32.0,-250.0,-16.0,68.0,-4.0,180.0,169.0,-1064.0
47.0,33.0,-247.0,-16.0,69.0,-4.0,188.0,170.0,-1062.0
47.0,34.0,-250.0,-15.0,69.0,-3.0,184.0,163.0,-1059.0
45.0,33.0,-248.0,-13.0,69.0,-4.0,180.0,168.0,-1059.0
45.0,35.0,-244.0,-14.0,69.0,-6.0,187.0,163.0,-1061.0
47.0,34.0,-248.0,-15.0,71.0,-5.0,184.0,169.0,-1059.0
45.0,35.0,-249.0,-14.0,70.0,-4.0,186.0,163.0,-1058.0
48.0,32.0,-248.0,-14.0,71.0,-4.0,184.0,169.0,-1059.0
45.0,33.0,-242.0,-14.0,71.0,-5.0,184.0,167.0,-1061.0
45.0,31.0,-250.0,-16.0,71.0,-5.0,185.0,170.0,-1058.0
45.0,30.0,-247.0,-18.0,71.0,-4.0,187.0,171.0,-1062.0
49.0,33.0,-252.0,-18.0,70.0,-4.0,186.0,169.0,-1062.0
45.0,35.0,-248.0,-19.0,71.0,-5.0,184.0,164.0,-1061.0
46.0,35.0,-251.0,-19.0,71.0,-6.0,183.0,161.0,-1062.0
48.0,31.0,-251.0,-20.0,74.0,-4.0,182.0,165.0,-1067.0
48.0,33.0,-247.0,-20.0,77.0,-5.0,185.0,165.0,-1063.0
46.0,36.0,-250.0,-20.0,78.0,-4.0,185.0,164.0,-1069.0
46.0,36.0,-249.0,-21.0,78.0,-5.0,188.0,169.0,-1066.0
47.0,30.0,-247.0,-22.0,79.0,-7.0,189.0,172.0,-1058.0
45.0,33.0,-249.0,-21.0,80.0,-5.0,184.0,162.0,-1066.0
48.0,33.0,-254.0,-22.0,80.0,-5.0,182.0,161.0,-1063.0
46.0,36.0,-245.0,-24.0,79.0,-6.0,181.0,175.0,-1051.0
44.0,34.0,-249.0,-16.0,79.0,-5.0,183.0,167.0,-1057.0
52.0,32.0,-250.0,-15.0,79.0,-5.0,215.0,172.0,-1062.0
44.0,32.0,-245.0,-19.0,79.0,-6.0,170.0,162.0,-1057.0
49.0,34.0,-242.0,-23.0,82.0,-5.0,188.0,168.0,-1052.0
45.0,35.0,-245.0,-24.0,81.0,-5.0,179.0,171.0,-1054.0
42.0,31.0,-246.0,-22.0,79.0,-4.0,176.0,166.0,-1053.0
46.0,33.0,-248.0,-16.0,77.0,-4.0,187.0,165.0,-1061.0
47.0,32.0,-252.0,-8.0,75.0,-4.0,189.0,166.0,-1066.0
46.0,31.0,-247.0,-6.0,77.0,-2.0,183.0,160.0,-1070.0
45.0,34.0,-251.0,-6.0,79.0,-3.0,184.0,168.0,-1065.0
43.0,36.0,-252.0,-9.0,79.0,-4.0,175.0,174.0,-1069.0
46.0,34.0,-252.0,-11.0,79.0,-4.0,180.0,171.0,-1060.0
55.0,34.0,-248.0,-13.0,78.0,-5.0,209.0,175.0,-1061.0
47.0,31.0,-249.0,-12.0,74.0,-4.0,176.0,160.0,-1059.0
43.0,32.0,-247.0,-12.0,75.0,-3.0,192.0,165.0,-1059.0
46.0,34.0,-249.0,-11.0,73.0,-3.0,182.0,160.0,-1065.0
49.0,34.0,-249.0,-9.0,71.0,-3.0,177.0,168.0,-1059.0
46.0,35.0,-249.0,-9.0,73.0,-3.0,181.0,172.0,-1061.0
45.0,35.0,-250.0,-10.0,74.0,-2.0,182.0,172.0,-1056.0
45.0,33.0,-246.0,-10.0,79.0,-4.0,189.0,168.0,-1063.0
46.0,33.0,-248.0,-11.0,79.0,-3.0,185.0,166.0,-1056.0
47.0,33.0,-250.0,-11.0,78.0,-3.0,189.0,167.0,-1056.0
49.0,32.0,-247.0,-12.0,79.0,-2.0,184.0,167.0,-1063.0
44.0,35.0,-250.0,-15.0,78.0,-2.0,184.0,170.0,-1058.0
47.0,35.0,-250.0,-14.0,79.0,-2.0,188.0,166.0,-1057.0
48.0,33.0,-246.0,-14.0,78.0,-3.0,181.0,164.0,-1060.0
46.0,33.0,-251.0,-14.0,79.0,-4.0,185.0,166.0,-1060.0
50.0,33.0,-250.0,-14.0,79.0,-3.0,181.0,169.0,-1058.0
45.0,34.0,-246.0,-13.0,77.0,-2.0,184.0,165.0,-1059.0
47.0,32.0,-247.0,-13.0,77.0,-2.0,191.0,166.0,-1057.0
47.0,34.0,-246.0,-13.0,76.0,-2.0,183.0,172.0,-1063.0
45.0,34.0,-249.0,-13.0,75.0,-2.0,186.0,166.0,-1058.0
46.0,36.0,-248.0,-11.0,76.0,-1.0,184.0,168.0,-1054.0
49.0,35.0,-246.0,-12.0,75.0,-2.0,192.0,166.0,-1059.0
48.0,30.0,-247.0,-12.0,74.0,-2.0,194.0,171.0,-1059.0
49.0,34.0,-247.0,-10.0,74.0,-2.0,185.0,167.0,-1057.0
46.0,31.0,-250.0,-10.0,72.0,-1.0,183.0,168.0,-1062.0
49.0,32.0,-249.0,-10.0,72.0,-1.0,193.0,165.0,-1056.0
45.0,32.0,-249.0,-9.0,72.0,-2.0,190.0,166.0,-1059.0
49.0,30.0,-250.0,-7.0,71.0,-2.0,187.0,166.0,-1058.0
45.0,33.0,-249.0,-8.0,71.0,-2.0,188.0,164.0,-1058.0
48.0,32.0,-251.0,-7.0,72.0,-3.0,188.0,169.0,-1059.0
50.0,28.0,-250.0,-4.0,71.0,-2.0,184.0,167.0,-1061.0
46.0,32.0,-248.0,-4.0,72.0,-3.0,188.0,167.0,-1062.0
49.0,34.0,-249.0,-6.0,72.0,0.0,187.0,170.0,-1059.0
50.0,35.0,-245.0,-7.0,72.0,-3.0,189.0,167.0,-1063.0
46.0,32.0,-248.0,-8.0,71.0,-4.0,189.0,161.0,-1059.0
46.0,31.0,-250.0,-8.0,71.0,-4.0,191.0,166.0,-1063.0
49.0,37.0,-249.0,-9.0,72.0,-3.0,184.0,168.0,-1060.0
45.0,35.0,-244.0,-11.0,71.0,-5.0,185.0,166.0,-1057.0
46.0,37.0,-250.0,-12.0,70.0,-4.0,190.0,169.0,-1062.0
46.0,34.0,-251.0,-12.0,70.0,-3.0,180.0,171.0,-1062.0
49.0,32.0,-249.0,-12.0,71.0,-3.0,184.0,166.0,-1067.0
46.0,34.0,-250.0,-11.0,71.0,-2.0,193.0,164.0,-1061.0
46.0,31.0,-245.0,-13.0,74.0,-3.0,190.0,160.0,-1064.0
45.0,31.0,-254.0,-11.0,75.0,-3.0,188.0,170.0,-1059.0
46.0,30.0,-250.0,-11.0,75.0,-3.0,177.0,163.0,-1062.0
47.0,33.0,-249.0,-11.0,75.0,-3.0,186.0,171.0,-1061.0
46.0,33.0,-249.0,-12.0,76.0,-5.0,184.0,168.0,-1063.0
48.0,35.0,-248.0,-10.0,77.0,-4.0,189.0,163.0,-1058.0
50.0,31.0,-247.0,-10.0,76.0,-4.0,184.0,165.0,-1064.0
48.0,32.0,-249.0,-10.0,77.0,-4.0,185.0,165.0,-1062.0
45.0,32.0,-249.0,-11.0,77.0,-4.0,188.0,163.0,-1059.0
45.0,33.0,-248.0,-10.0,75.0,-3.0,192.0,170.0,-1060.0
47.0,33.0,-248.0,-9.0,76.0,-3.0,186.0,165.0,-1061.0
50.0,33.0,-250.0,-7.0,75.0,-3.0,186.0,167.0,-1060.0
48.0,31.0,-250.0,-6.0,75.0,-4.0,192.0,164.0,-1063.0
47.0,32.0,-249.0,-7.0,75.0,-5.0,188.0,167.0,-1055.0
43.0,35.0,-248.0,-6.0,75.0,-4.0,173.0,172.0,-1059.0
47.0,30.0,-246.0,-5.0,73.0,-4.0,177.0,165.0,-1060.0
48.0,34.0,-244.0,-6.0,73.0,-3.0,189.0,167.0,-1055.0
45.0,32.0,-252.0,-5.0,72.0,-3.0,184.0,167.0,-1059.0
48.0,32.0,-250.0,-4.0,69.0,-2.0,188.0,167.0,-1065.0
46.0,33.0,-250.0,-6.0,69.0,-3.0,186.0,165.0,-1066.0
46.0,35.0,-251.0,-4.0,69.0,-4.0,188.0,167.0,-1058.0
45.0,35.0,-248.0,-5.0,69.0,-5.0,189.0,168.0,-1057.0
49.0,33.0,-247.0,-7.0,71.0,-4.0,192.0,163.0,-1064.0
48.0,31.0,-251.0,-8.0,71.0,-4.0,187.0,170.0,-1062.0
46.0,37.0,-250.0,-9.0,72.0,-3.0,192.0,168.0,-1061.0
49.0,30.0,-246.0,-8.0,72.0,-3.0,188.0,167.0,-1059.0
50.0,33.0,-248.0,-9.0,70.0,-3.0,195.0,162.0,-1069.0
45.0,32.0,-248.0,-9.0,72.0,-5.0,192.0,168.0,-1067.0
47.0,34.0,-247.0,-10.0,77.0,-5.0,194.0,165.0,-1057.0
48.0,35.0,-248.0,-9.0,74.0,-5.0,191.0,167.0,-1057.0
47.0,33.0,-251.0,-10.0,71.0,-5.0,191.0,173.0,-1060.0
46.0,33.0,-250.0,-9.0,72.0,-5.0,193.0,169.0,-1065.0
46.0,35.0,-252.0,-10.0,73.0,-5.0,192.0,165.0,-1060.0
47.0,36.0,-249.0,-8.0,73.0,-4.0,181.0,169.0,-1060.0
46.0,31.0,-251.0,-10.0,73.0,-4.0,188.0,165.0,-1066.0
49.0,32.0,-246.0,-11.0,72.0,-3.0,186.0,160.0,-1060.0
48.0,33.0,-250.0,-12.0,73.0,-3.0,188.0,163.0,-1063.0
48.0,32.0,-249.0,-13.0,73.0,-3.0,195.0,170.0,-1059.0
46.0,36.0,-248.0,-14.0,75.0,-3.0,188.0,169.0,-1066.0
46.0,32.0,-249.0,-15.0,74.0,-4.0,193.0,167.0,-1065.0
45.0,34.0,-249.0,-15.0,74.0,-5.0,188.0,164.0,-1064.0
45.0,33.0,-250.0,-17.0,75.0,-4.0,193.0,163.0,-1057.0
46.0,30.0,-248.0,-18.0,75.0,-4.0,191.0,165.0,-1061.0
48.0,33.0,-247.0,-19.0,76.0,-5.0,193.0,166.0,-1060.0
49.0,32.0,-251.0,-20.0,78.0,-4.0,186.0,164.0,-1063.0
47.0,33.0,-247.0,-21.0,79.0,-4.0,186.0,158.0,-1053.0
47.0,35.0,-250.0,-22.0,79.0,-4.0,191.0,162.0,-1059.0
50.0,32.0,-249.0,-20.0,76.0,-3.0,192.0,165.0,-1061.0
49.0,33.0,-246.0,-20.0,74.0,-2.0,193.0,160.0,-1058.0
46.0,33.0,-251.0,-19.0,73.0,-3.0,190.0,164.0,-1059.0
48.0,33.0,-248.0,-18.0,73.0,-4.0,190.0,165.0,-1062.0
48.0,30.0,-252.0,-17.0,73.0,-3.0,190.0,166.0,-1065.0
47.0,33.0,-247.0,-16.0,72.0,-3.0,187.0,169.0,-1063.0
49.0,32.0,-247.0,-14.0,74.0,-3.0,189.0,161.0,-1059.0
47.0,33.0,-250.0,-13.0,74.0,-4.0,192.0,170.0,-1059.0
48.0,32.0,-248.0,-13.0,75.0,-4.0,188.0,169.0,-1062.0
48.0,31.0,-249.0,-12.0,76.0,-4.0,190.0,171.0,-1068.0
48.0,31.0,-251.0,-9.0,77.0,-2.0,184.0,166.0,-1067.0
46.0,35.0,-248.0,-10.0,79.0,-2.0,190.0,163.0,-1061.0
48.0,35.0,-247.0,-9.0,82.0,-3.0,188.0,157.0,-1062.0
45.0,33.0,-246.0,-13.0,82.0,-3.0,189.0,168.0,-1060.0
46.0,34.0,-248.0,-16.0,85.0,-1.0,188.0,158.0,-1051.0
47.0,33.0,-246.0,-18.0,87.0,-1.0,192.0,171.0,-1050.0
45.0,34.0,-247.0,-16.0,84.0,-2.0,195.0,170.0,-1058.0
47.0,37.0,-254.0,-9.0,80.0,-4.0,194.0,168.0,-1066.0
48.0,33.0,-251.0,-4.0,77.0,-4.0,188.0,167.0,-1070.0
47.0,31.0,-250.0,-6.0,78.0,-2.0,184.0,166.0,-1069.0
44.0,34.0,-247.0,-7.0,77.0,-1.0,184.0,167.0,-1063.0
47.0,32.0,-252.0,-9.0,79.0,-1.0,189.0,161.0,-1062.0
48.0,32.0,-249.0,-11.0,80.0,-2.0,187.0,167.0,-1065.0
47.0,32.0,-251.0,-13.0,82.0,-2.0,193.0,165.0,-1064.0
48.0,33.0,-252.0,-12.0,80.0,-1.0,191.0,163.0,-1066.0
47.0,33.0,-248.0,-13.0,82.0,-2.0,190.0,161.0,-1061.0
49.0,32.0,-252.0,-14.0,83.0,-3.0,184.0,167.0,-1059.0
45.0,34.0,-246.0,-15.0,83.0,-2.0,194.0,159.0,-1061.0
47.0,34.0,-247.0,-16.0,84.0,-3.0,189.0,169.0,-1058.0
48.0,34.0,-249.0,-14.0,85.0,-3.0,192.0,168.0,-1060.0
47.0,33.0,-246.0,-15.0,85.0,-4.0,194.0,162.0,-1060.0
44.0,33.0,-252.0,-15.0,88.0,-4.0,190.0,171.0,-1061.0
45.0,32.0,-251.0,-14.0,88.0,-3.0,189.0,168.0,-1060.0
45.0,33.0,-249.0,-14.0,88.0,-3.0,191.0,168.0,-1062.0
49.0,32.0,-250.0,-13.0,89.0,-4.0,192.0,166.0,-1062.0
46.0,37.0,-247.0,-13.0,89.0,-1.0,191.0,170.0,-1057.0
48.0,33.0,-245.0,-12.0,86.0,-2.0,189.0,166.0,-1057.0
46.0,32.0,-245.0,-12.0,82.0,-3.0,194.0,161.0,-1056.0
49.0,32.0,-250.0,-15.0,79.0,-3.0,193.0,167.0,-1061.0
46.0,33.0,-250.0,-14.0,79.0,-2.0,187.0,167.0,-1057.0
46.0,33.0,-247.0,-14.0,76.0,-3.0,193.0,166.0,-1061.0
48.0,33.0,-248.0,-15.0,75.0,-2.0,192.0,171.0,-1060.0
49.0,34.0,-251.0,-14.0,75.0,-2.0,193.0,171.0,-1054.0
46.0,32.0,-247.0,-14.0,76.0,-3.0,192.0,161.0,-1062.0
45.0,33.0,-250.0,-12.0,78.0,-3.0,197.0,154.0,-1066.0
46.0,31.0,-249.0,-12.0,79.0,-4.0,195.0,161.0,-1062.0
48.0,35.0,-250.0,-12.0,80.0,-3.0,193.0,169.0,-1061.0
47.0,33.0,-249.0,-12.0,82.0,-3.0,190.0,170.0,-1065.0
48.0,31.0,-252.0,-12.0,81.0,-3.0,186.0,167.0,-1067.0
48.0,35.0,-246.0,-12.0,83.0,-4.0,191.0,165.0,-1058.0
50.0,34.0,-249.0,-13.0,83.0,-3.0,189.0,162.0,-1057.0
49.0,32.0,-245.0,-15.0,83.0,-2.0,196.0,161.0,-1058.0
41.0,33.0,-250.0,-16.0,83.0,-4.0,173.0,161.0,-1064.0
46.0,35.0,-246.0,-22.0,85.0,-5.0,198.0,165.0,-1059.0
49.0,31.0,-248.0,-20.0,82.0,-5.0,199.0,168.0,-1060.0
49.0,34.0,-247.0,-20.0,80.0,-4.0,193.0,167.0,-1060.0
50.0,32.0,-249.0,-18.0,80.0,-2.0,194.0,169.0,-1062.0
49.0,32.0,-248.0,-20.0,78.0,-3.0,195.0,170.0,-1063.0
48.0,31.0,-250.0,-19.0,77.0,-4.0,195.0,161.0,-1064.0
47.0,34.0,-250.0,-22.0,76.0,-5.0,192.0,167.0,-1059.0
46.0,33.0,-248.0,-23.0,75.0,-3.0,191.0,169.0,-1067.0
50.0,30.0,-248.0,-24.0,78.0,-4.0,193.0,169.0,-1058.0
48.0,34.0,-248.0,-23.0,78.0,-3.0,193.0,170.0,-1058.0
47.0,34.0,-250.0,-23.0,81.0,-2.0,193.0,168.0,-1061.0
50.0,30.0,-247.0,-25.0,82.0,-3.0,197.0,165.0,-1059.0
47.0,33.0,-247.0,-26.0,83.0,-3.0,195.0,160.0,-1060.0
48.0,32.0,-245.0,-25.0,83.0,-3.0,195.0,166.0,-1061.0
48.0,32.0,-246.0,-26.0,83.0,-4.0,197.0,171.0,-1054.0
48.0,33.0,-250.0,-28.0,84.0,-4.0,195.0,163.0,-1056.0
51.0,33.0,-248.0,-28.0,81.0,-5.0,197.0,165.0,-1055.0
47.0,32.0,-247.0,-28.0,81.0,-5.0,195.0,165.0,-1057.0
47.0,36.0,-245.0,-27.0,80.0,-4.0,197.0,167.0,-1059.0
49.0,34.0,-252.0,-26.0,80.0,-3.0,192.0,171.0,-1057.0
48.0,34.0,-252.0,-25.0,79.0,-3.0,194.0,173.0,-1060.0
48.0,33.0,-252.0,-25.0,77.0,-4.0,194.0,166.0,-1055.0
48.0,34.0,-249.0,-24.0,77.0,-5.0,196.0,164.0,-1057.0
49.0,34.0,-247.0,-25.0,77.0,-4.0,197.0,168.0,-1062.0
49.0,31.0,-246.0,-25.0,77.0,-5.0,194.0,171.0,-1061.0
51.0,30.0,-251.0,-27.0,79.0,-4.0,201.0,169.0,-1066.0
49.0,32.0,-249.0,-29.0,79.0,-4.0,198.0,168.0,-1062.0
50.0,37.0,-246.0,-30.0,79.0,-4.0,194.0,174.0,-1063.0
48.0,36.0,-245.0,-30.0,80.0,-4.0,193.0,170.0,-1061.0
49.0,32.0,-247.0,-31.0,79.0,-4.0,196.0,168.0,-1061.0
50.0,33.0,-247.0,-29.0,81.0,-4.0,190.0,166.0,-1059.0
49.0,35.0,-248.0,-30.0,83.0,-3.0,193.0,170.0,-1058.0
46.0,37.0,-243.0,-30.0,81.0,-4.0,194.0,169.0,-1057.0
48.0,36.0,-249.0,-30.0,81.0,-5.0,193.0,170.0,-1056.0
50.0,34.0,-246.0,-28.0,81.0,-5.0,197.0,167.0,-1054.0
51.0,31.0,-249.0,-28.0,80.0,-4.0,194.0,168.0,-1053.0
50.0,35.0,-252.0,-27.0,79.0,-4.0,194.0,170.0,-1054.0
47.0,34.0,-249.0,-25.0,78.0,-5.0,195.0,166.0,-1054.0
50.0,31.0,-252.0,-23.0,74.0,-4.0,193.0,167.0,-1054.0
48.0,34.0,-247.0,-20.0,74.0,-3.0,193.0,169.0,-1054.0
50.0,33.0,-247.0,-18.0,71.0,-4.0,193.0,166.0,-1055.0
50.0,33.0,-248.0,-18.0,71.0,-4.0,196.0,167.0,-1058.0
47.0,31.0,-248.0,-18.0,70.0,-4.0,192.0,167.0,-1059.0
48.0,34.0,-252.0,-17.0,68.0,-3.0,196.0,171.0,-1057.0
47.0,34.0,-249.0,-16.0,68.0,-5.0,193.0,171.0,-1055.0
47.0,35.0,-249.0,-18.0,68.0,-4.0,197.0,171.0,-1060.0
51.0,30.0,-251.0,-20.0,68.0,-3.0,196.0,169.0,-1061.0
50.0,34.0,-251.0,-22.0,69.0,-4.0,199.0,171.0,-1061.0
50.0,34.0,-250.0,-20.0,68.0,-3.0,195.0,169.0,-1062.0
48.0,32.0,-251.0,-20.0,68.0,-4.0,194.0,171.0,-1062.0
48.0,35.0,-247.0,-18.0,69.0,-5.0,196.0,169.0,-1065.0
49.0,31.0,-247.0,-18.0,69.0,-4.0,198.0,174.0,-1062.0
48.0,34.0,-250.0,-20.0,69.0,-5.0,192.0,163.0,-1065.0
49.0,30.0,-246.0,-19.0,68.0,-5.0,194.0,170.0,-1057.0
50.0,35.0,-245.0,-18.0,68.0,-5.0,193.0,168.0,-1058.0
48.0,32.0,-246.0,-17.0,67.0,-5.0,194.0,164.0,-1059.0
48.0,34.0,-247.0,-15.0,65.0,-4.0,192.0,172.0,-1057.0
51.0,30.0,-248.0,-13.0,66.0,-5.0,196.0,168.0,-1058.0
48.0,35.0,-248.0,-13.0,65.0,-7.0,195.0,168.0,-1054.0
48.0,34.0,-249.0,-12.0,67.0,-6.0,193.0,165.0,-1058.0
49.0,33.0,-248.0,-11.0,67.0,-5.0,193.0,167.0,-1056.0
51.0,32.0,-247.0,-12.0,66.0,-5.0,197.0,171.0,-1057.0
49.0,34.0,-250.0,-11.0,66.0,-5.0,196.0,170.0,-1058.0
46.0,37.0,-250.0,-13.0,67.0,-6.0,192.0,171.0,-1059.0
49.0,33.0,-247.0,-12.0,67.0,-6.0,193.0,173.0,-1059.0
46.0,36.0,-249.0,-12.0,65.0,-6.0,197.0,172.0,-1060.0
49.0,34.0,-249.0,-11.0,63.0,-6.0,194.0,165.0,-1056.0
50.0,33.0,-248.0,-13.0,62.0,-5.0,200.0,167.0,-1061.0
47.0,34.0,-249.0,-12.0,61.0,-6.0,198.0,170.0,-1060.0
50.0,35.0,-257.0,-12.0,60.0,-6.0,197.0,176.0,-1062.0
47.0,34.0,-247.0,-11.0,62.0,-6.0,192.0,171.0,-1065.0
49.0,35.0,-251.0,-12.0,62.0,-6.0,188.0,171.0,-1061.0
48.0,32.0,-246.0,-12.0,65.0,-8.0,191.0,168.0,-1063.0
47.0,35.0,-248.0,-14.0,69.0,-6.0,195.0,170.0,-1065.0
47.0,37.0,-246.0,-13.0,72.0,-6.0,189.0,171.0,-1069.0
48.0,37.0,-250.0,-13.0,75.0,-7.0,192.0,173.0,-1069.0
48.0,28.0,-267.0,-20.0,78.0,-6.0,198.0,163.0,-1112.0
47.0,36.0,-235.0,-57.0,77.0,-7.0,199.0,169.0,-1060.0
47.0,38.0,-233.0,-44.0,83.0,-6.0,191.0,184.0,-993.0
50.0,33.0,-253.0,-3.0,84.0,-6.0,197.0,155.0,-1073.0
51.0,29.0,-255.0,-8.0,81.0,-4.0,194.0,157.0,-1082.0
49.0,36.0,-248.0,-31.0,79.0,-6.0,197.0,178.0,-1054.0
50.0,34.0,-245.0,-37.0,78.0,-7.0,197.0,182.0,-1046.0
46.0,33.0,-246.0,-27.0,74.0,-6.0,203.0,172.0,-1052.0
49.0,31.0,-250.0,-12.0,70.0,-6.0,195.0,167.0,-1063.0
50.0,32.0,-251.0,-8.0,70.0,-3.0,190.0,165.0,-1059.0
52.0,32.0,-248.0,-10.0,70.0,-5.0,194.0,165.0,-1057.0
51.0,30.0,-249.0,-14.0,70.0,-5.0,194.0,165.0,-1059.0
54.0,29.0,-250.0,-18.0,71.0,-5.0,194.0,162.0,-1057.0
49.0,33.0,-249.0,-21.0,70.0,-7.0,195.0,172.0,-1060.0
47.0,37.0,-244.0,-24.0,68.0,-6.0,191.0,168.0,-1060.0
49.0,36.0,-250.0,-25.0,67.0,-7.0,192.0,170.0,-1057.0
49.0,35.0,-249.0,-26.0,67.0,-6.0,196.0,172.0,-1059.0
47.0,35.0,-246.0,-24.0,67.0,-6.0,193.0,172.0,-1056.0
49.0,32.0,-250.0,-21.0,67.0,-6.0,196.0,172.0,-1057.0
50.0,35.0,-244.0,-17.0,67.0,-6.0,193.0,173.0,-1058.0
49.0,35.0,-247.0,-16.0,66.0,-6.0,197.0,171.0,-1063.0
52.0,33.0,-250.0,-15.0,67.0,-6.0,196.0,173.0,-1057.0
49.0,33.0,-251.0,-15.0,67.0,-5.0,194.0,167.0,-1057.0
49.0,35.0,-245.0,-16.0,67.0,-4.0,194.0,173.0,-1056.0
47.0,37.0,-252.0,-17.0,65.0,-6.0,193.0,168.0,-1054.0
48.0,35.0,-246.0,-17.0,66.0,-5.0,193.0,171.0,-1055.0
51.0,30.0,-247.0,-15.0,66.0,-5.0,196.0,173.0,-1057.0
47.0,34.0,-253.0,-16.0,63.0,-6.0,196.0,174.0,-1058.0
47.0,32.0,-248.0,-13.0,62.0,-4.0,198.0,171.0,-1060.0
52.0,33.0,-246.0,-13.0,63.0,-5.0,193.0,171.0,-1059.0
49.0,33.0,-248.0,-13.0,63.0,-3.0,195.0,171.0,-1060.0
50.0,30.0,-250.0,-15.0,64.0,-2.0,195.0,169.0,-1060.0
49.0,33.0,-249.0,-16.0,64.0,-3.0,193.0,165.0,-1062.0
48.0,34.0,-253.0,-15.0,64.0,-5.0,194.0,172.0,-1064.0
49.0,37.0,-250.0,-16.0,65.0,-4.0,195.0,172.0,-1060.0
50.0,33.0,-248.0,-15.0,66.0,-4.0,192.0,171.0,-1058.0
49.0,34.0,-253.0,-14.0,66.0,-5.0,197.0,173.0,-1059.0
51.0,35.0,-249.0,-13.0,66.0,-4.0,195.0,172.0,-1062.0
47.0,33.0,-253.0,-13.0,66.0,-3.0,193.0,170.0,-1059.0
48.0,34.0,-246.0,-13.0,66.0,-5.0,196.0,171.0,-1059.0
46.0,33.0,-247.0,-13.0,64.0,-4.0,197.0,171.0,-1057.0
48.0,37.0,-253.0,-14.0,65.0,-4.0,195.0,171.0,-1058.0
46.0,34.0,-247.0,-14.0,66.0,-4.0,194.0,172.0,-1058.0
50.0,32.0,-249.0,-13.0,66.0,-4.0,194.0,170.0,-1057.0
48.0,32.0,-246.0,-12.0,66.0,-4.0,194.0,168.0,-1057.0
48.0,33.0,-250.0,-11.0,65.0,-5.0,201.0,171.0,-1060.0
46.0,34.0,-246.0,-9.0,64.0,-6.0,195.0,175.0,-1073.0
49.0,37.0,-250.0,-9.0,65.0,-5.0,199.0,166.0,-1065.0
48.0,35.0,-251.0,-8.0,64.0,-4.0,192.0,167.0,-1062.0
49.0,36.0,-251.0,-8.0,65.0,-4.0,196.0,172.0,-1068.0
49.0,34.0,-251.0,-9.0,66.0,-4.0,194.0,172.0,-1063.0
48.0,33.0,-246.0,-10.0,69.0,-3.0,197.0,169.0,-1064.0
53.0,33.0,-249.0,-10.0,71.0,-3.0,199.0,168.0,-1064.0
49.0,36.0,-244.0,-11.0,73.0,-3.0,196.0,168.0,-1057.0
53.0,33.0,-250.0,-11.0,73.0,-4.0,199.0,173.0,-1059.0
49.0,35.0,-251.0,-11.0,74.0,-5.0,193.0,170.0,-1060.0
47.0,32.0,-248.0,-10.0,73.0,-5.0,195.0,168.0,-1058.0
48.0,33.0,-247.0,-10.0,74.0,-4.0,196.0,169.0,-1059.0
48.0,35.0,-245.0,-10.0,72.0,-6.0,192.0,169.0,-1059.0
51.0,32.0,-246.0,-11.0,70.0,-5.0,197.0,170.0,-1059.0
48.0,34.0,-248.0,-13.0,67.0,-5.0,195.0,171.0,-1060.0
49.0,32.0,-248.0,-12.0,67.0,-4.0,194.0,169.0,-1058.0
51.0,34.0,-247.0,-14.0,68.0,-4.0,195.0,174.0,-1059.0
52.0,38.0,-252.0,-13.0,70.0,-5.0,195.0,172.0,-1059.0
50.0,34.0,-250.0,-13.0,70.0,-3.0,197.0,170.0,-1059.0
49.0,34.0,-248.0,-12.0,68.0,-5.0,195.0,173.0,-1058.0
49.0,32.0,-248.0,-11.0,68.0,-6.0,198.0,172.0,-1058.0
48.0,34.0,-250.0,-12.0,68.0,-3.0,209.0,171.0,-1061.0
50.0,34.0,-247.0,-13.0,66.0,-5.0,193.0,173.0,-1061.0
47.0,33.0,-252.0,-13.0,68.0,-5.0,192.0,173.0,-1068.0
47.0,35.0,-250.0,-12.0,69.0,-5.0,193.0,173.0,-1065.0
46.0,36.0,-250.0,-12.0,71.0,-4.0,188.0,172.0,-1060.0
50.0,33.0,-249.0,-12.0,74.0,-4.0,194.0,172.0,-1062.0
49.0,34.0,-248.0,-11.0,75.0,-4.0,194.0,171.0,-1062.0
47.0,34.0,-248.0,-11.0,75.0,-2.0,193.0,172.0,-1057.0
46.0,33.0,-249.0,-9.0,76.0,-3.0,194.0,168.0,-1060.0
50.0,32.0,-247.0,-9.0,76.0,-3.0,195.0,170.0,-1059.0
49.0,34.0,-250.0,-9.0,75.0,-3.0,192.0,166.0,-1058.0
52.0,33.0,-251.0,-11.0,74.0,-4.0,205.0,172.0,-1055.0
49.0,34.0,-249.0,-12.0,74.0,-3.0,195.0,171.0,-1057.0
48.0,34.0,-246.0,-11.0,73.0,-4.0,195.0,169.0,-1053.0
46.0,34.0,-250.0,-11.0,75.0,-4.0,192.0,165.0,-1059.0
50.0,35.0,-251.0,-11.0,73.0,-4.0,194.0,170.0,-1060.0
47.0,36.0,-251.0,-9.0,74.0,-4.0,200.0,171.0,-1067.0
46.0,39.0,-250.0,-11.0,76.0,-4.0,193.0,170.0,-1056.0
48.0,36.0,-250.0,-13.0,76.0,-3.0,195.0,168.0,-1058.0
51.0,32.0,-246.0,-15.0,79.0,-4.0,193.0,170.0,-1058.0
48.0,33.0,-249.0,-15.0,78.0,-2.0,195.0,169.0,-1060.0
50.0,32.0,-244.0,-15.0,76.0,-3.0,194.0,174.0,-1062.0
49.0,32.0,-246.0,-15.0,75.0,-4.0,191.0,168.0,-1057.0
