acc1_x,acc1_y,acc1_z,gyro_x,gyro_y,gyro_z,acc2_x,acc2_y,acc2_z
62.0,-254.0,-39.0,-205.0,-791.0,70.0,162.0,-973.0,10.0
65.0,-256.0,-38.0,-203.0,-794.0,72.0,168.0,-980.0,5.0
66.0,-257.0,-40.0,-201.0,-797.0,78.0,172.0,-986.0,7.0
65.0,-260.0,-37.0,-199.0,-801.0,81.0,175.0,-982.0,0.0
64.0,-256.0,-41.0,-198.0,-805.0,85.0,179.0,-984.0,2.0
63.0,-260.0,-39.0,-196.0,-810.0,90.0,172.0,-989.0,-2.0
65.0,-260.0,-44.0,-192.0,-815.0,95.0,179.0,-994.0,-11.0
65.0,-261.0,-43.0,-186.0,-821.0,96.0,174.0,-998.0,-14.0
63.0,-263.0,-48.0,-180.0,-827.0,102.0,171.0,-1000.0,-19.0
65.0,-262.0,-48.0,-172.0,-831.0,105.0,169.0,-1005.0,-27.0
64.0,-266.0,-51.0,-163.0,-834.0,109.0,167.0,-1006.0,-37.0
63.0,-260.0,-56.0,-153.0,-835.0,114.0,163.0,-1012.0,-45.0
63.0,-268.0,-53.0,-147.0,-832.0,118.0,170.0,-1013.0,-51.0
64.0,-266.0,-54.0,-137.0,-827.0,123.0,167.0,-1010.0,-53.0
62.0,-265.0,-54.0,-129.0,-823.0,125.0,166.0,-1013.0,-53.0
63.0,-265.0,-52.0,-119.0,-817.0,128.0,172.0,-1016.0,-50.0
65.0,-263.0,-59.0,-109.0,-812.0,132.0,178.0,-1010.0,-45.0
65.0,-265.0,-57.0,-99.0,-804.0,135.0,182.0,-1015.0,-51.0
68.0,-263.0,-54.0,-88.0,-794.0,137.0,183.0,-1010.0,-56.0
69.0,-265.0,-58.0,-81.0,-783.0,139.0,187.0,-1013.0,-56.0
68.0,-262.0,-54.0,-77.0,-775.0,140.0,193.0,-1003.0,-59.0
72.0,-266.0,-55.0,-77.0,-769.0,141.0,194.0,-1003.0,-64.0
73.0,-261.0,-56.0,-79.0,-767.0,143.0,195.0,-1001.0,-64.0
71.0,-261.0,-57.0,-83.0,-768.0,142.0,197.0,-998.0,-62.0
68.0,-259.0,-52.0,-92.0,-769.0,141.0,195.0,-996.0,-60.0
68.0,-259.0,-59.0,-100.0,-774.0,139.0,189.0,-994.0,-60.0
69.0,-265.0,-54.0,-110.0,-776.0,134.0,183.0,-996.0,-64.0
66.0,-257.0,-58.0,-119.0,-778.0,129.0,182.0,-992.0,-63.0
66.0,-262.0,-56.0,-126.0,-778.0,125.0,176.0,-1002.0,-62.0
66.0,-262.0,-54.0,-132.0,-781.0,121.0,171.0,-999.0,-58.0
63.0,-262.0,-55.0,-135.0,-784.0,115.0,170.0,-1003.0,-56.0
64.0,-265.0,-54.0,-133.0,-790.0,108.0,159.0,-1007.0,-52.0
63.0,-264.0,-56.0,-127.0,-800.0,103.0,155.0,-1007.0,-54.0
62.0,-263.0,-50.0,-119.0,-810.0,100.0,151.0,-1009.0,-51.0
57.0,-266.0,-54.0,-107.0,-817.0,94.0,146.0,-1015.0,-52.0
60.0,-264.0,-53.0,-93.0,-827.0,88.0,146.0,-1016.0,-52.0
60.0,-268.0,-56.0,-77.0,-833.0,84.0,154.0,-1022.0,-48.0
62.0,-267.0,-55.0,-59.0,-837.0,78.0,153.0,-1021.0,-49.0
63.0,-272.0,-52.0,-40.0,-842.0,73.0,159.0,-1023.0,-48.0
64.0,-270.0,-57.0,-19.0,-846.0,69.0,168.0,-1024.0,-47.0
64.0,-271.0,-53.0,4.0,-851.0,64.0,162.0,-1034.0,-48.0
64.0,-269.0,-51.0,26.0,-854.0,62.0,172.0,-1034.0,-42.0
65.0,-270.0,-53.0,47.0,-858.0,61.0,179.0,-1035.0,-39.0
70.0,-272.0,-54.0,69.0,-862.0,61.0,184.0,-1033.0,-38.0
69.0,-273.0,-50.0,92.0,-865.0,63.0,194.0,-1033.0,-26.0
72.0,-272.0,-46.0,119.0,-868.0,64.0,198.0,-1033.0,-18.0
73.0,-269.0,-44.0,145.0,-872.0,65.0,207.0,-1025.0,-16.0
71.0,-264.0,-43.0,165.0,-877.0,66.0,208.0,-1014.0,-6.0
75.0,-266.0,-40.0,190.0,-884.0,69.0,209.0,-1012.0,-1.0
73.0,-261.0,-40.0,212.0,-888.0,70.0,212.0,-1000.0,-1.0
71.0,-258.0,-41.0,224.0,-891.0,70.0,216.0,-995.0,-1.0
73.0,-257.0,-38.0,229.0,-892.0,73.0,210.0,-986.0,-6.0
72.0,-256.0,-45.0,221.0,-893.0,74.0,208.0,-982.0,-15.0
73.0,-254.0,-50.0,201.0,-890.0,74.0,200.0,-969.0,-28.0
72.0,-251.0,-48.0,168.0,-885.0,77.0,194.0,-969.0,-44.0
70.0,-257.0,-59.0,122.0,-878.0,77.0,182.0,-971.0,-61.0
65.0,-253.0,-62.0,70.0,-871.0,79.0,176.0,-965.0,-83.0
63.0,-252.0,-65.0,14.0,-861.0,80.0,168.0,-967.0,-103.0
63.0,-250.0,-77.0,-47.0,-851.0,81.0,155.0,-968.0,-134.0
59.0,-255.0,-77.0,-108.0,-840.0,76.0,138.0,-975.0,-170.0
59.0,-256.0,-89.0,-169.0,-825.0,67.0,131.0,-981.0,-192.0
56.0,-257.0,-91.0,-226.0,-808.0,53.0,129.0,-987.0,-205.0
56.0,-263.0,-94.0,-274.0,-793.0,34.0,124.0,-991.0,-212.0
54.0,-261.0,-96.0,-309.0,-776.0,9.0,120.0,-999.0,-216.0
56.0,-264.0,-91.0,-330.0,-757.0,-21.0,129.0,-1012.0,-208.0
58.0,-266.0,-88.0,-333.0,-732.0,-52.0,132.0,-1023.0,-194.0
56.0,-269.0,-90.0,-319.0,-703.0,-83.0,131.0,-1010.0,-177.0
56.0,-268.0,-83.0,-290.0,-670.0,-114.0,125.0,-1017.0,-169.0
51.0,-267.0,-81.0,-246.0,-635.0,-142.0,117.0,-1016.0,-149.0
52.0,-269.0,-76.0,-195.0,-600.0,-164.0,104.0,-1012.0,-141.0
44.0,-265.0,-76.0,-137.0,-565.0,-181.0,88.0,-1010.0,-138.0
40.0,-264.0,-76.0,-80.0,-528.0,-191.0,73.0,-995.0,-140.0
36.0,-259.0,-76.0,-29.0,-494.0,-195.0,57.0,-981.0,-138.0
30.0,-255.0,-72.0,10.0,-464.0,-192.0,41.0,-967.0,-135.0
29.0,-254.0,-72.0,42.0,-437.0,-186.0,19.0,-957.0,-132.0
22.0,-247.0,-73.0,62.0,-416.0,-175.0,14.0,-948.0,-125.0
23.0,-243.0,-73.0,70.0,-404.0,-162.0,1.0,-932.0,-127.0
16.0,-241.0,-71.0,66.0,-399.0,-146.0,-7.0,-923.0,-125.0
14.0,-237.0,-67.0,52.0,-402.0,-130.0,-21.0,-915.0,-126.0
14.0,-236.0,-65.0,29.0,-415.0,-111.0,-31.0,-906.0,-117.0
5.0,-234.0,-68.0,1.0,-435.0,-93.0,-34.0,-901.0,-116.0
10.0,-234.0,-67.0,-32.0,-462.0,-76.0,-44.0,-904.0,-116.0
6.0,-236.0,-66.0,-63.0,-497.0,-57.0,-52.0,-904.0,-109.0
2.0,-238.0,-71.0,-94.0,-538.0,-35.0,-56.0,-909.0,-112.0
2.0,-239.0,-68.0,-126.0,-578.0,-13.0,-64.0,-911.0,-110.0
2.0,-241.0,-70.0,-159.0,-617.0,9.0,-68.0,-920.0,-120.0
-1.0,-242.0,-67.0,-191.0,-649.0,33.0,-77.0,-928.0,-123.0
-1.0,-246.0,-68.0,-221.0,-676.0,53.0,-80.0,-939.0,-133.0
0.0,-249.0,-72.0,-251.0,-696.0,76.0,-91.0,-950.0,-135.0
-2.0,-254.0,-80.0,-283.0,-711.0,95.0,-96.0,-963.0,-151.0
-3.0,-256.0,-77.0,-312.0,-719.0,112.0,-102.0,-976.0,-166.0
-3.0,-255.0,-87.0,-340.0,-720.0,125.0,-102.0,-994.0,-171.0
-3.0,-264.0,-86.0,-364.0,-714.0,136.0,-105.0,-1006.0,-180.0
-4.0,-265.0,-85.0,-384.0,-701.0,144.0,-106.0,-1019.0,-188.0
-4.0,-272.0,-90.0,-396.0,-684.0,147.0,-107.0,-1028.0,-193.0
-5.0,-272.0,-92.0,-403.0,-667.0,149.0,-106.0,-1051.0,-199.0
-1.0,-280.0,-89.0,-404.0,-649.0,147.0,-103.0,-1063.0,-206.0
0.0,-280.0,-91.0,-397.0,-628.0,145.0,-99.0,-1078.0,-202.0
1.0,-281.0,-95.0,-383.0,-606.0,140.0,-92.0,-1082.0,-210.0
2.0,-285.0,-95.0,-360.0,-582.0,130.0,-77.0,-1088.0,-204.0
5.0,-286.0,-94.0,-336.0,-556.0,120.0,-67.0,-1096.0,-206.0
5.0,-287.0,-95.0,-304.0,-531.0,111.0,-59.0,-1096.0,-207.0
11.0,-293.0,-95.0,-268.0,-506.0,99.0,-51.0,-1092.0,-199.0
11.0,-289.0,-89.0,-230.0,-484.0,86.0,-42.0,-1089.0,-201.0
11.0,-287.0,-91.0,-186.0,-462.0,72.0,-40.0,-1099.0,-202.0
13.0,-286.0,-93.0,-144.0,-443.0,59.0,-34.0,-1086.0,-206.0
13.0,-282.0,-92.0,-104.0,-427.0,45.0,-35.0,-1078.0,-207.0
14.0,-281.0,-92.0,-70.0,-411.0,35.0,-24.0,-1068.0,-203.0
12.0,-278.0,-88.0,-39.0,-397.0,25.0,-30.0,-1056.0,-204.0
13.0,-274.0,-93.0,-18.0,-381.0,18.0,-35.0,-1034.0,-198.0
12.0,-269.0,-86.0,2.0,-366.0,10.0,-32.0,-1026.0,-193.0
11.0,-263.0,-85.0,18.0,-348.0,4.0,-37.0,-1010.0,-181.0
8.0,-263.0,-84.0,24.0,-330.0,-1.0,-38.0,-998.0,-178.0
9.0,-257.0,-81.0,26.0,-309.0,-4.0,-45.0,-987.0,-170.0
9.0,-257.0,-82.0,21.0,-289.0,-8.0,-54.0,-984.0,-157.0
7.0,-256.0,-77.0,15.0,-269.0,-8.0,-51.0,-972.0,-148.0
6.0,-253.0,-73.0,2.0,-255.0,-10.0,-55.0,-970.0,-138.0
6.0,-256.0,-70.0,-9.0,-237.0,-9.0,-57.0,-968.0,-136.0
5.0,-255.0,-72.0,-23.0,-219.0,-10.0,-65.0,-969.0,-128.0
4.0,-256.0,-64.0,-36.0,-201.0,-10.0,-67.0,-966.0,-118.0
0.0,-251.0,-71.0,-46.0,-184.0,-10.0,-68.0,-968.0,-114.0
2.0,-255.0,-70.0,-57.0,-170.0,-12.0,-67.0,-971.0,-112.0
6.0,-257.0,-67.0,-62.0,-156.0,-14.0,-72.0,-982.0,-108.0
2.0,-259.0,-64.0,-64.0,-143.0,-15.0,-69.0,-989.0,-104.0
1.0,-261.0,-64.0,-63.0,-131.0,-17.0,-65.0,-995.0,-103.0
4.0,-260.0,-67.0,-57.0,-121.0,-19.0,-66.0,-997.0,-100.0
3.0,-262.0,-65.0,-48.0,-114.0,-19.0,-67.0,-1008.0,-102.0
4.0,-264.0,-66.0,-38.0,-106.0,-18.0,-64.0,-1014.0,-100.0
4.0,-268.0,-66.0,-28.0,-102.0,-16.0,-65.0,-1015.0,-102.0
7.0,-265.0,-66.0,-18.0,-98.0,-15.0,-64.0,-1021.0,-102.0
6.0,-265.0,-65.0,-6.0,-94.0,-13.0,-63.0,-1019.0,-110.0
3.0,-264.0,-65.0,2.0,-91.0,-9.0,-64.0,-1014.0,-113.0
4.0,-267.0,-72.0,11.0,-86.0,-5.0,-59.0,-1012.0,-116.0
3.0,-265.0,-64.0,19.0,-79.0,0.0,-62.0,-1011.0,-115.0
7.0,-268.0,-67.0,22.0,-74.0,4.0,-59.0,-1006.0,-126.0
7.0,-263.0,-72.0,24.0,-68.0,7.0,-58.0,-1002.0,-133.0
6.0,-264.0,-72.0,28.0,-61.0,9.0,-56.0,-1003.0,-131.0
9.0,-261.0,-71.0,33.0,-53.0,8.0,-49.0,-992.0,-128.0
9.0,-258.0,-72.0,40.0,-42.0,5.0,-45.0,-992.0,-124.0
12.0,-257.0,-70.0,45.0,-29.0,0.0,-40.0,-976.0,-120.0
12.0,-256.0,-72.0,52.0,-12.0,-5.0,-33.0,-978.0,-119.0
10.0,-255.0,-69.0,58.0,8.0,-9.0,-37.0,-970.0,-118.0
16.0,-254.0,-67.0,62.0,31.0,-16.0,-34.0,-972.0,-119.0
12.0,-253.0,-68.0,68.0,56.0,-23.0,-28.0,-976.0,-112.0
20.0,-256.0,-66.0,70.0,83.0,-29.0,-24.0,-973.0,-114.0
22.0,-259.0,-60.0,68.0,112.0,-34.0,-25.0,-975.0,-113.0
16.0,-256.0,-69.0,66.0,140.0,-39.0,-16.0,-984.0,-111.0
17.0,-256.0,-69.0,59.0,169.0,-42.0,-20.0,-988.0,-117.0
21.0,-258.0,-69.0,49.0,198.0,-44.0,-8.0,-983.0,-128.0
20.0,-259.0,-75.0,38.0,226.0,-46.0,-7.0,-991.0,-135.0
19.0,-257.0,-79.0,22.0,246.0,-50.0,-7.0,-985.0,-142.0
17.0,-258.0,-76.0,11.0,259.0,-58.0,-9.0,-987.0,-156.0
20.0,-258.0,-77.0,1.0,261.0,-66.0,5.0,-986.0,-147.0
25.0,-259.0,-75.0,-3.0,258.0,-78.0,8.0,-988.0,-134.0
30.0,-259.0,-68.0,3.0,256.0,-93.0,10.0,-978.0,-121.0
20.0,-262.0,-65.0,19.0,263.0,-110.0,14.0,-981.0,-109.0
27.0,-259.0,-63.0,44.0,282.0,-128.0,12.0,-987.0,-102.0
26.0,-258.0,-65.0,75.0,313.0,-143.0,10.0,-983.0,-100.0
22.0,-259.0,-68.0,108.0,352.0,-157.0,7.0,-982.0,-107.0
22.0,-260.0,-71.0,137.0,393.0,-167.0,-10.0,-983.0,-123.0
17.0,-259.0,-73.0,157.0,431.0,-171.0,-14.0,-988.0,-131.0
18.0,-260.0,-77.0,161.0,455.0,-168.0,-14.0,-989.0,-144.0
16.0,-258.0,-78.0,152.0,465.0,-162.0,-15.0,-993.0,-151.0
22.0,-258.0,-83.0,127.0,458.0,-150.0,-6.0,-992.0,-169.0
17.0,-260.0,-82.0,91.0,440.0,-141.0,-7.0,-992.0,-172.0
20.0,-258.0,-91.0,53.0,421.0,-133.0,-5.0,-996.0,-182.0
17.0,-259.0,-84.0,21.0,399.0,-128.0,-1.0,-1004.0,-189.0
18.0,-262.0,-90.0,-4.0,378.0,-123.0,-6.0,-1005.0,-190.0
19.0,-264.0,-85.0,-19.0,350.0,-120.0,-2.0,-1006.0,-194.0
20.0,-269.0,-86.0,-26.0,322.0,-117.0,-4.0,-1010.0,-187.0
21.0,-265.0,-83.0,-23.0,290.0,-109.0,-1.0,-1014.0,-184.0
23.0,-266.0,-83.0,-16.0,261.0,-98.0,4.0,-1016.0,-176.0
22.0,-264.0,-85.0,-4.0,237.0,-84.0,9.0,-1009.0,-171.0
19.0,-261.0,-79.0,10.0,218.0,-68.0,8.0,-1005.0,-163.0
22.0,-261.0,-79.0,24.0,206.0,-50.0,10.0,-992.0,-155.0
25.0,-260.0,-79.0,35.0,197.0,-32.0,17.0,-991.0,-145.0
29.0,-259.0,-76.0,46.0,194.0,-13.0,23.0,-985.0,-137.0
25.0,-256.0,-69.0,54.0,195.0,3.0,24.0,-966.0,-138.0
30.0,-256.0,-71.0,61.0,199.0,16.0,29.0,-971.0,-129.0
30.0,-254.0,-73.0,64.0,207.0,25.0,36.0,-961.0,-129.0
34.0,-253.0,-73.0,70.0,219.0,28.0,37.0,-956.0,-127.0
33.0,-250.0,-71.0,69.0,230.0,27.0,46.0,-953.0,-127.0
36.0,-251.0,-72.0,64.0,238.0,24.0,47.0,-946.0,-131.0
36.0,-248.0,-74.0,59.0,246.0,15.0,51.0,-946.0,-130.0
38.0,-250.0,-67.0,55.0,251.0,3.0,62.0,-945.0,-125.0
39.0,-251.0,-72.0,49.0,256.0,-8.0,65.0,-944.0,-119.0
36.0,-248.0,-67.0,44.0,262.0,-26.0,64.0,-950.0,-124.0
41.0,-252.0,-73.0,38.0,267.0,-43.0,65.0,-953.0,-114.0
38.0,-255.0,-66.0,32.0,273.0,-60.0,61.0,-951.0,-116.0
37.0,-254.0,-66.0,27.0,279.0,-74.0,55.0,-959.0,-111.0
32.0,-256.0,-67.0,22.0,286.0,-86.0,51.0,-964.0,-105.0
30.0,-254.0,-63.0,15.0,293.0,-92.0,45.0,-970.0,-113.0
31.0,-257.0,-69.0,7.0,300.0,-95.0,39.0,-971.0,-110.0
29.0,-256.0,-70.0,1.0,306.0,-94.0,26.0,-976.0,-116.0
26.0,-256.0,-69.0,-6.0,311.0,-90.0,17.0,-979.0,-121.0
29.0,-261.0,-73.0,-14.0,316.0,-81.0,12.0,-985.0,-125.0
24.0,-261.0,-71.0,-20.0,321.0,-71.0,13.0,-985.0,-133.0
23.0,-258.0,-72.0,-27.0,325.0,-59.0,7.0,-988.0,-137.0
23.0,-260.0,-73.0,-31.0,330.0,-48.0,8.0,-993.0,-144.0
17.0,-264.0,-82.0,-35.0,333.0,-38.0,13.0,-998.0,-142.0
25.0,-263.0,-75.0,-38.0,337.0,-29.0,14.0,-1005.0,-148.0
26.0,-264.0,-78.0,-41.0,336.0,-23.0,16.0,-1012.0,-151.0
29.0,-266.0,-75.0,-42.0,331.0,-18.0,33.0,-1016.0,-151.0
30.0,-267.0,-76.0,-45.0,325.0,-16.0,37.0,-1020.0,-153.0
29.0,-267.0,-77.0,-45.0,318.0,-18.0,50.0,-1019.0,-148.0
36.0,-267.0,-79.0,-44.0,311.0,-19.0,60.0,-1022.0,-147.0
40.0,-272.0,-80.0,-40.0,303.0,-23.0,67.0,-1023.0,-149.0
41.0,-271.0,-75.0,-36.0,292.0,-27.0,74.0,-1018.0,-147.0
44.0,-269.0,-80.0,-32.0,284.0,-31.0,82.0,-1017.0,-142.0
41.0,-265.0,-81.0,-27.0,275.0,-35.0,87.0,-1010.0,-145.0
50.0,-262.0,-76.0,-24.0,269.0,-39.0,84.0,-1010.0,-145.0
42.0,-260.0,-76.0,-22.0,262.0,-42.0,84.0,-1005.0,-149.0
42.0,-261.0,-79.0,-25.0,256.0,-43.0,81.0,-1003.0,-150.0
44.0,-262.0,-75.0,-28.0,249.0,-42.0,79.0,-997.0,-152.0
40.0,-259.0,-76.0,-34.0,243.0,-42.0,72.0,-993.0,-156.0
41.0,-263.0,-73.0,-36.0,235.0,-39.0,65.0,-992.0,-146.0
38.0,-261.0,-77.0,-42.0,230.0,-32.0,65.0,-993.0,-147.0
38.0,-259.0,-71.0,-46.0,228.0,-27.0,62.0,-989.0,-140.0
39.0,-260.0,-71.0,-49.0,226.0,-20.0,62.0,-987.0,-135.0
34.0,-259.0,-71.0,-54.0,225.0,-15.0,56.0,-984.0,-133.0
33.0,-254.0,-69.0,-51.0,224.0,-9.0,49.0,-985.0,-131.0
32.0,-257.0,-71.0,-50.0,227.0,-2.0,45.0,-985.0,-127.0
31.0,-258.0,-71.0,-47.0,228.0,4.0,46.0,-984.0,-124.0
30.0,-257.0,-68.0,-44.0,229.0,9.0,35.0,-981.0,-115.0
30.0,-257.0,-69.0,-39.0,230.0,14.0,36.0,-983.0,-113.0
29.0,-256.0,-67.0,-35.0,227.0,20.0,32.0,-982.0,-113.0
28.0,-257.0,-67.0,-31.0,224.0,24.0,29.0,-979.0,-110.0
29.0,-256.0,-65.0,-30.0,221.0,26.0,17.0,-975.0,-108.0
27.0,-256.0,-66.0,-31.0,218.0,30.0,23.0,-971.0,-105.0
27.0,-254.0,-66.0,-35.0,214.0,31.0,20.0,-969.0,-105.0
29.0,-255.0,-66.0,-37.0,212.0,32.0,15.0,-968.0,-100.0
25.0,-254.0,-63.0,-43.0,211.0,30.0,12.0,-965.0,-104.0
26.0,-252.0,-66.0,-48.0,210.0,26.0,16.0,-960.0,-101.0
25.0,-253.0,-65.0,-57.0,211.0,22.0,15.0,-957.0,-100.0
22.0,-250.0,-67.0,-67.0,212.0,18.0,19.0,-954.0,-97.0
26.0,-249.0,-67.0,-80.0,214.0,11.0,18.0,-952.0,-95.0
30.0,-252.0,-67.0,-93.0,217.0,4.0,29.0,-953.0,-93.0
28.0,-251.0,-61.0,-104.0,222.0,-1.0,28.0,-954.0,-93.0
33.0,-251.0,-65.0,-114.0,224.0,-5.0,41.0,-957.0,-89.0
31.0,-249.0,-64.0,-122.0,227.0,-9.0,43.0,-953.0,-89.0
32.0,-249.0,-65.0,-128.0,230.0,-12.0,50.0,-958.0,-93.0
36.0,-251.0,-65.0,-133.0,232.0,-12.0,51.0,-964.0,-96.0
37.0,-253.0,-65.0,-140.0,233.0,-14.0,59.0,-954.0,-99.0
36.0,-255.0,-66.0,-147.0,231.0,-10.0,60.0,-966.0,-107.0
36.0,-252.0,-66.0,-155.0,227.0,-8.0,56.0,-962.0,-115.0
37.0,-254.0,-68.0,-163.0,221.0,-4.0,62.0,-966.0,-119.0
39.0,-255.0,-69.0,-174.0,214.0,1.0,62.0,-970.0,-122.0
35.0,-256.0,-68.0,-183.0,206.0,4.0,60.0,-981.0,-129.0
36.0,-258.0,-75.0,-191.0,195.0,12.0,61.0,-982.0,-130.0
36.0,-257.0,-75.0,-197.0,181.0,17.0,57.0,-987.0,-139.0
35.0,-259.0,-74.0,-205.0,168.0,21.0,56.0,-987.0,-146.0
34.0,-257.0,-74.0,-213.0,152.0,24.0,57.0,-986.0,-152.0
36.0,-260.0,-80.0,-219.0,136.0,27.0,60.0,-994.0,-158.0
41.0,-254.0,-74.0,-222.0,127.0,28.0,62.0,-998.0,-153.0
37.0,-263.0,-76.0,-220.0,117.0,29.0,58.0,-1000.0,-150.0
39.0,-265.0,-80.0,-217.0,112.0,28.0,70.0,-1006.0,-157.0
38.0,-264.0,-74.0,-213.0,109.0,27.0,73.0,-1008.0,-153.0
38.0,-263.0,-79.0,-203.0,112.0,26.0,70.0,-1004.0,-157.0
38.0,-265.0,-77.0,-192.0,115.0,23.0,74.0,-1009.0,-156.0
40.0,-264.0,-76.0,-180.0,122.0,19.0,70.0,-1004.0,-159.0
41.0,-262.0,-80.0,-168.0,126.0,17.0,73.0,-1004.0,-158.0
42.0,-261.0,-76.0,-157.0,132.0,16.0,74.0,-1001.0,-159.0
43.0,-262.0,-78.0,-151.0,137.0,16.0,75.0,-998.0,-160.0
44.0,-262.0,-83.0,-145.0,142.0,16.0,78.0,-997.0,-155.0
45.0,-262.0,-81.0,-141.0,149.0,20.0,83.0,-995.0,-156.0
41.0,-259.0,-78.0,-136.0,155.0,19.0,80.0,-996.0,-150.0
46.0,-262.0,-77.0,-131.0,162.0,20.0,86.0,-988.0,-151.0
43.0,-259.0,-75.0,-128.0,167.0,21.0,86.0,-990.0,-147.0
44.0,-257.0,-77.0,-120.0,173.0,22.0,92.0,-990.0,-138.0
44.0,-257.0,-71.0,-113.0,178.0,22.0,93.0,-983.0,-138.0
49.0,-259.0,-73.0,-104.0,184.0,20.0,90.0,-986.0,-133.0
48.0,-257.0,-69.0,-97.0,189.0,20.0,94.0,-977.0,-134.0
49.0,-258.0,-75.0,-91.0,196.0,19.0,95.0,-976.0,-131.0
48.0,-257.0,-71.0,-88.0,203.0,18.0,97.0,-982.0,-127.0
46.0,-256.0,-67.0,-85.0,209.0,16.0,98.0,-980.0,-125.0
45.0,-260.0,-77.0,-84.0,213.0,14.0,94.0,-980.0,-129.0
48.0,-257.0,-71.0,-84.0,216.0,11.0,94.0,-976.0,-130.0
44.0,-256.0,-67.0,-82.0,217.0,7.0,92.0,-979.0,-126.0
46.0,-255.0,-70.0,-81.0,217.0,5.0,88.0,-978.0,-133.0
44.0,-258.0,-69.0,-84.0,215.0,3.0,81.0,-981.0,-130.0
41.0,-257.0,-71.0,-85.0,213.0,-1.0,80.0,-978.0,-128.0
42.0,-257.0,-71.0,-85.0,212.0,-6.0,72.0,-978.0,-134.0
41.0,-257.0,-78.0,-84.0,208.0,-11.0,69.0,-975.0,-132.0
40.0,-256.0,-70.0,-83.0,203.0,-14.0,69.0,-982.0,-135.0
38.0,-255.0,-77.0,-85.0,199.0,-17.0,69.0,-975.0,-137.0
40.0,-256.0,-71.0,-87.0,194.0,-18.0,71.0,-976.0,-135.0
35.0,-259.0,-76.0,-93.0,191.0,-20.0,68.0,-971.0,-137.0
39.0,-256.0,-72.0,-102.0,186.0,-21.0,66.0,-974.0,-131.0
42.0,-256.0,-74.0,-111.0,183.0,-20.0,70.0,-978.0,-135.0
42.0,-257.0,-73.0,-121.0,178.0,-19.0,72.0,-982.0,-135.0
41.0,-258.0,-69.0,-126.0,173.0,-17.0,77.0,-988.0,-127.0
42.0,-260.0,-72.0,-134.0,169.0,-16.0,76.0,-994.0,-122.0
41.0,-261.0,-73.0,-139.0,168.0,-12.0,83.0,-995.0,-128.0
42.0,-259.0,-76.0,-139.0,167.0,-10.0,81.0,-997.0,-128.0
45.0,-261.0,-71.0,-136.0,168.0,-7.0,84.0,-999.0,-135.0
45.0,-265.0,-73.0,-131.0,167.0,-4.0,86.0,-1001.0,-130.0
42.0,-261.0,-77.0,-122.0,165.0,1.0,88.0,-998.0,-136.0
45.0,-262.0,-72.0,-116.0,164.0,4.0,90.0,-1001.0,-134.0
46.0,-260.0,-75.0,-110.0,162.0,7.0,89.0,-1002.0,-136.0
42.0,-260.0,-76.0,-106.0,161.0,11.0,90.0,-998.0,-139.0
49.0,-263.0,-76.0,-103.0,162.0,13.0,93.0,-994.0,-145.0
48.0,-259.0,-75.0,-103.0,162.0,16.0,94.0,-996.0,-142.0
45.0,-259.0,-77.0,-102.0,161.0,16.0,96.0,-989.0,-141.0
47.0,-257.0,-71.0,-100.0,161.0,17.0,98.0,-994.0,-140.0
47.0,-256.0,-76.0,-100.0,161.0,17.0,102.0,-988.0,-136.0
46.0,-258.0,-71.0,-99.0,163.0,17.0,101.0,-990.0,-137.0
51.0,-259.0,-72.0,-96.0,161.0,16.0,103.0,-983.0,-139.0
49.0,-256.0,-76.0,-95.0,159.0,16.0,100.0,-973.0,-139.0
50.0,-255.0,-73.0,-93.0,157.0,15.0,102.0,-970.0,-142.0
49.0,-253.0,-74.0,-92.0,154.0,11.0,105.0,-966.0,-140.0
49.0,-253.0,-73.0,-93.0,149.0,7.0,109.0,-962.0,-135.0
52.0,-253.0,-68.0,-96.0,144.0,3.0,104.0,-959.0,-127.0
50.0,-250.0,-68.0,-101.0,138.0,-3.0,112.0,-956.0,-125.0
51.0,-252.0,-68.0,-109.0,137.0,-9.0,111.0,-953.0,-119.0
49.0,-250.0,-67.0,-118.0,140.0,-16.0,115.0,-953.0,-123.0
48.0,-250.0,-73.0,-129.0,143.0,-22.0,105.0,-953.0,-116.0
49.0,-252.0,-72.0,-136.0,148.0,-30.0,103.0,-953.0,-112.0
51.0,-252.0,-68.0,-146.0,157.0,-39.0,106.0,-958.0,-118.0
47.0,-249.0,-73.0,-156.0,163.0,-48.0,105.0,-961.0,-121.0
51.0,-253.0,-68.0,-167.0,170.0,-57.0,109.0,-965.0,-118.0
51.0,-257.0,-71.0,-177.0,177.0,-68.0,112.0,-968.0,-130.0
50.0,-256.0,-70.0,-185.0,182.0,-77.0,113.0,-982.0,-124.0
47.0,-258.0,-70.0,-190.0,186.0,-85.0,111.0,-979.0,-130.0
48.0,-258.0,-74.0,-196.0,184.0,-93.0,113.0,-988.0,-128.0
52.0,-263.0,-74.0,-202.0,185.0,-99.0,107.0,-999.0,-142.0
50.0,-264.0,-78.0,-208.0,186.0,-107.0,103.0,-1000.0,-155.0
48.0,-261.0,-77.0,-217.0,188.0,-110.0,104.0,-1005.0,-151.0
54.0,-266.0,-79.0,-224.0,186.0,-112.0,112.0,-1012.0,-158.0
52.0,-265.0,-82.0,-231.0,188.0,-113.0,118.0,-1016.0,-163.0
54.0,-267.0,-69.0,-233.0,187.0,-111.0,121.0,-1020.0,-168.0
52.0,-270.0,-82.0,-229.0,185.0,-109.0,123.0,-1023.0,-159.0
55.0,-269.0,-78.0,-220.0,181.0,-107.0,130.0,-1027.0,-158.0
55.0,-271.0,-76.0,-207.0,176.0,-104.0,120.0,-1029.0,-144.0
53.0,-271.0,-79.0,-188.0,168.0,-102.0,127.0,-1033.0,-147.0
51.0,-270.0,-74.0,-167.0,157.0,-101.0,121.0,-1030.0,-133.0
53.0,-270.0,-70.0,-146.0,148.0,-100.0,129.0,-1028.0,-129.0
49.0,-270.0,-68.0,-125.0,134.0,-97.0,120.0,-1026.0,-117.0
53.0,-271.0,-69.0,-107.0,124.0,-97.0,119.0,-1023.0,-109.0
52.0,-267.0,-66.0,-93.0,113.0,-96.0,121.0,-1021.0,-100.0
52.0,-268.0,-64.0,-78.0,101.0,-94.0,108.0,-1016.0,-89.0
48.0,-266.0,-58.0,-67.0,86.0,-92.0,108.0,-1014.0,-83.0
48.0,-267.0,-60.0,-55.0,74.0,-91.0,102.0,-1008.0,-73.0
49.0,-265.0,-56.0,-48.0,60.0,-88.0,96.0,-1009.0,-69.0
44.0,-263.0,-52.0,-42.0,47.0,-87.0,92.0,-1004.0,-60.0
45.0,-264.0,-54.0,-35.0,32.0,-85.0,92.0,-1003.0,-55.0
43.0,-262.0,-53.0,-31.0,18.0,-85.0,82.0,-1003.0,-52.0
40.0,-262.0,-54.0,-26.0,3.0,-84.0,80.0,-1001.0,-49.0
43.0,-263.0,-52.0,-24.0,-15.0,-86.0,78.0,-997.0,-46.0
35.0,-256.0,-52.0,-23.0,-33.0,-86.0,73.0,-994.0,-47.0
40.0,-260.0,-51.0,-25.0,-50.0,-86.0,73.0,-989.0,-47.0
38.0,-257.0,-52.0,-30.0,-71.0,-85.0,68.0,-993.0,-55.0
37.0,-257.0,-56.0,-36.0,-93.0,-81.0,71.0,-990.0,-52.0
40.0,-259.0,-51.0,-43.0,-115.0,-78.0,63.0,-991.0,-53.0
38.0,-258.0,-55.0,-48.0,-139.0,-70.0,69.0,-989.0,-60.0
40.0,-261.0,-55.0,-49.0,-162.0,-61.0,74.0,-987.0,-66.0
41.0,-259.0,-56.0,-49.0,-187.0,-55.0,74.0,-992.0,-61.0
40.0,-259.0,-59.0,-45.0,-211.0,-45.0,78.0,-992.0,-60.0
43.0,-260.0,-58.0,-39.0,-241.0,-35.0,89.0,-994.0,-56.0
44.0,-261.0,-58.0,-30.0,-272.0,-25.0,93.0,-992.0,-60.0
46.0,-260.0,-55.0,-18.0,-305.0,-14.0,101.0,-997.0,-58.0
47.0,-260.0,-52.0,-6.0,-336.0,-2.0,108.0,-993.0,-45.0
50.0,-260.0,-48.0,4.0,-368.0,7.0,112.0,-997.0,-46.0
52.0,-261.0,-55.0,13.0,-398.0,19.0,118.0,-1003.0,-52.0
53.0,-262.0,-53.0,20.0,-428.0,27.0,126.0,-1003.0,-53.0
54.0,-265.0,-55.0,24.0,-456.0,35.0,127.0,-1009.0,-52.0
55.0,-265.0,-53.0,26.0,-483.0,42.0,130.0,-1015.0,-54.0
54.0,-267.0,-55.0,26.0,-505.0,49.0,135.0,-1020.0,-58.0
56.0,-268.0,-55.0,24.0,-526.0,55.0,134.0,-1026.0,-58.0
56.0,-270.0,-56.0,24.0,-541.0,59.0,136.0,-1031.0,-63.0
58.0,-270.0,-55.0,23.0,-551.0,66.0,138.0,-1030.0,-67.0
56.0,-267.0,-59.0,22.0,-557.0,70.0,141.0,-1038.0,-75.0
59.0,-269.0,-60.0,22.0,-560.0,71.0,147.0,-1041.0,-73.0
58.0,-273.0,-60.0,27.0,-560.0,74.0,146.0,-1036.0,-76.0
62.0,-272.0,-59.0,34.0,-557.0,76.0,149.0,-1044.0,-77.0
60.0,-271.0,-60.0,46.0,-555.0,78.0,149.0,-1037.0,-78.0
62.0,-272.0,-60.0,59.0,-550.0,77.0,149.0,-1036.0,-78.0
62.0,-272.0,-62.0,81.0,-547.0,77.0,150.0,-1029.0,-73.0
62.0,-271.0,-60.0,106.0,-542.0,80.0,151.0,-1023.0,-88.0
61.0,-266.0,-62.0,126.0,-536.0,81.0,155.0,-1020.0,-89.0
62.0,-266.0,-62.0,148.0,-529.0,84.0,162.0,-1017.0,-90.0
66.0,-264.0,-63.0,170.0,-522.0,84.0,168.0,-1006.0,-92.0
67.0,-260.0,-63.0,190.0,-513.0,87.0,174.0,-995.0,-89.0
66.0,-260.0,-62.0,209.0,-504.0,88.0,179.0,-987.0,-90.0
68.0,-257.0,-61.0,225.0,-495.0,91.0,185.0,-983.0,-87.0
70.0,-257.0,-64.0,239.0,-485.0,93.0,186.0,-978.0,-86.0
71.0,-257.0,-64.0,244.0,-476.0,95.0,191.0,-981.0,-94.0
71.0,-256.0,-67.0,244.0,-467.0,98.0,190.0,-972.0,-94.0
68.0,-256.0,-66.0,231.0,-459.0,102.0,191.0,-976.0,-97.0
70.0,-255.0,-70.0,210.0,-452.0,105.0,183.0,-975.0,-115.0
68.0,-256.0,-67.0,178.0,-448.0,109.0,188.0,-976.0,-119.0
71.0,-259.0,-67.0,140.0,-447.0,112.0,189.0,-985.0,-126.0
71.0,-264.0,-69.0,105.0,-444.0,111.0,187.0,-996.0,-124.0
72.0,-265.0,-69.0,72.0,-442.0,108.0,184.0,-1006.0,-124.0
69.0,-264.0,-74.0,49.0,-435.0,106.0,184.0,-1018.0,-123.0
65.0,-269.0,-73.0,34.0,-425.0,102.0,182.0,-1031.0,-127.0
65.0,-275.0,-76.0,26.0,-414.0,96.0,175.0,-1049.0,-140.0
64.0,-277.0,-80.0,20.0,-401.0,88.0,174.0,-1062.0,-153.0
64.0,-281.0,-83.0,17.0,-390.0,78.0,166.0,-1066.0,-173.0
63.0,-280.0,-88.0,10.0,-381.0,66.0,164.0,-1070.0,-192.0
63.0,-279.0,-88.0,5.0,-377.0,53.0,153.0,-1081.0,-203.0
59.0,-285.0,-91.0,3.0,-370.0,35.0,156.0,-1082.0,-194.0
59.0,-284.0,-88.0,1.0,-365.0,16.0,156.0,-1080.0,-198.0
60.0,-286.0,-84.0,11.0,-356.0,-5.0,162.0,-1082.0,-187.0
65.0,-285.0,-80.0,27.0,-341.0,-29.0,161.0,-1078.0,-176.0
68.0,-287.0,-77.0,54.0,-325.0,-55.0,162.0,-1071.0,-163.0
65.0,-280.0,-78.0,92.0,-306.0,-80.0,165.0,-1060.0,-149.0
64.0,-275.0,-71.0,137.0,-287.0,-103.0,160.0,-1052.0,-135.0
63.0,-272.0,-69.0,190.0,-269.0,-122.0,167.0,-1034.0,-119.0
62.0,-268.0,-65.0,247.0,-256.0,-138.0,164.0,-1018.0,-103.0
62.0,-265.0,-70.0,304.0,-244.0,-150.0,157.0,-1001.0,-96.0
60.0,-257.0,-61.0,344.0,-237.0,-156.0,149.0,-983.0,-90.0
60.0,-255.0,-60.0,390.0,-232.0,-158.0,149.0,-967.0,-79.0
56.0,-253.0,-59.0,424.0,-229.0,-154.0,133.0,-951.0,-77.0
55.0,-242.0,-57.0,448.0,-230.0,-149.0,129.0,-935.0,-75.0
52.0,-241.0,-59.0,454.0,-231.0,-137.0,121.0,-925.0,-69.0
50.0,-236.0,-51.0,447.0,-235.0,-124.0,111.0,-912.0,-66.0
51.0,-235.0,-57.0,427.0,-239.0,-109.0,104.0,-896.0,-60.0
47.0,-232.0,-55.0,397.0,-246.0,-95.0,99.0,-887.0,-55.0
47.0,-230.0,-55.0,357.0,-254.0,-78.0,99.0,-881.0,-52.0
46.0,-229.0,-53.0,312.0,-266.0,-67.0,99.0,-879.0,-51.0
46.0,-233.0,-50.0,263.0,-280.0,-53.0,94.0,-879.0,-44.0
48.0,-233.0,-50.0,213.0,-296.0,-40.0,91.0,-893.0,-38.0
45.0,-238.0,-52.0,166.0,-311.0,-28.0,92.0,-903.0,-48.0
42.0,-240.0,-51.0,118.0,-330.0,-19.0,87.0,-910.0,-46.0
41.0,-242.0,-55.0,72.0,-351.0,-7.0,86.0,-922.0,-55.0
38.0,-243.0,-58.0,29.0,-374.0,3.0,81.0,-935.0,-58.0
41.0,-247.0,-59.0,-10.0,-395.0,10.0,79.0,-945.0,-65.0
42.0,-250.0,-57.0,-44.0,-416.0,15.0,79.0,-958.0,-66.0
38.0,-255.0,-61.0,-72.0,-433.0,18.0,75.0,-963.0,-73.0
39.0,-257.0,-59.0,-94.0,-445.0,18.0,74.0,-974.0,-79.0
41.0,-259.0,-61.0,-107.0,-454.0,15.0,64.0,-985.0,-82.0
37.0,-259.0,-63.0,-117.0,-459.0,10.0,58.0,-996.0,-85.0
35.0,-264.0,-64.0,-119.0,-463.0,3.0,56.0,-1003.0,-87.0
33.0,-264.0,-63.0,-116.0,-464.0,-4.0,51.0,-1010.0,-89.0
29.0,-263.0,-63.0,-106.0,-465.0,-12.0,33.0,-1014.0,-93.0
27.0,-266.0,-64.0,-90.0,-466.0,-23.0,23.0,-1021.0,-99.0
24.0,-272.0,-64.0,-70.0,-468.0,-32.0,6.0,-1021.0,-99.0
16.0,-268.0,-75.0,-45.0,-470.0,-41.0,-3.0,-1022.0,-107.0
14.0,-267.0,-66.0,-19.0,-471.0,-49.0,-25.0,-1024.0,-114.0
12.0,-265.0,-71.0,8.0,-471.0,-54.0,-35.0,-1015.0,-126.0
9.0,-266.0,-73.0,40.0,-471.0,-57.0,-43.0,-1014.0,-134.0
6.0,-265.0,-74.0,71.0,-470.0,-56.0,-58.0,-1003.0,-137.0
5.0,-263.0,-78.0,98.0,-469.0,-56.0,-67.0,-997.0,-148.0
1.0,-257.0,-80.0,121.0,-470.0,-51.0,-79.0,-989.0,-163.0
0.0,-255.0,-81.0,143.0,-474.0,-45.0,-80.0,-971.0,-168.0
1.0,-257.0,-81.0,164.0,-477.0,-40.0,-90.0,-962.0,-176.0
4.0,-249.0,-81.0,175.0,-485.0,-34.0,-97.0,-950.0,-181.0
-1.0,-243.0,-89.0,181.0,-495.0,-29.0,-97.0,-934.0,-193.0
0.0,-240.0,-89.0,178.0,-507.0,-24.0,-96.0,-925.0,-198.0
-2.0,-237.0,-90.0,168.0,-524.0,-19.0,-98.0,-907.0,-209.0
-3.0,-233.0,-93.0,148.0,-544.0,-18.0,-98.0,-887.0,-213.0
-1.0,-232.0,-94.0,122.0,-565.0,-17.0,-98.0,-882.0,-219.0
-1.0,-228.0,-98.0,90.0,-589.0,-20.0,-91.0,-867.0,-219.0
0.0,-226.0,-92.0,55.0,-614.0,-23.0,-86.0,-854.0,-221.0
0.0,-222.0,-92.0,20.0,-632.0,-28.0,-75.0,-853.0,-213.0
3.0,-228.0,-91.0,-15.0,-649.0,-32.0,-73.0,-857.0,-201.0
5.0,-227.0,-88.0,-49.0,-662.0,-35.0,-65.0,-861.0,-187.0
9.0,-227.0,-86.0,-81.0,-670.0,-37.0,-54.0,-870.0,-175.0
9.0,-234.0,-78.0,-107.0,-669.0,-39.0,-49.0,-880.0,-169.0
13.0,-236.0,-76.0,-130.0,-658.0,-42.0,-35.0,-893.0,-151.0
15.0,-236.0,-77.0,-152.0,-636.0,-44.0,-30.0,-903.0,-148.0
17.0,-242.0,-79.0,-171.0,-609.0,-43.0,-25.0,-920.0,-154.0
16.0,-240.0,-80.0,-198.0,-582.0,-38.0,-20.0,-928.0,-157.0
19.0,-245.0,-83.0,-232.0,-555.0,-28.0,-21.0,-928.0,-171.0
17.0,-244.0,-83.0,-272.0,-532.0,-14.0,-21.0,-937.0,-180.0
19.0,-248.0,-85.0,-309.0,-509.0,0.0,-12.0,-944.0,-186.0
23.0,-251.0,-81.0,-346.0,-488.0,14.0,-3.0,-954.0,-185.0
22.0,-253.0,-89.0,-383.0,-464.0,24.0,-5.0,-970.0,-184.0
21.0,-258.0,-86.0,-413.0,-440.0,31.0,-1.0,-985.0,-184.0
18.0,-258.0,-83.0,-437.0,-416.0,40.0,-9.0,-998.0,-179.0
17.0,-266.0,-85.0,-449.0,-390.0,46.0,-17.0,-1011.0,-175.0
14.0,-264.0,-84.0,-447.0,-362.0,47.0,-33.0,-1016.0,-170.0
13.0,-273.0,-78.0,-434.0,-332.0,49.0,-43.0,-1020.0,-158.0
9.0,-267.0,-79.0,-414.0,-297.0,46.0,-46.0,-1016.0,-145.0
8.0,-265.0,-78.0,-391.0,-260.0,43.0,-65.0,-1016.0,-146.0
4.0,-263.0,-71.0,-369.0,-226.0,41.0,-66.0,-1002.0,-144.0
3.0,-263.0,-76.0,-350.0,-192.0,41.0,-78.0,-997.0,-148.0
1.0,-260.0,-80.0,-342.0,-164.0,40.0,-80.0,-983.0,-148.0
0.0,-257.0,-74.0,-339.0,-145.0,45.0,-93.0,-971.0,-158.0
-1.0,-255.0,-81.0,-341.0,-134.0,50.0,-94.0,-962.0,-171.0
-6.0,-245.0,-76.0,-347.0,-131.0,55.0,-98.0,-942.0,-180.0
-1.0,-245.0,-83.0,-350.0,-132.0,58.0,-92.0,-925.0,-179.0
0.0,-237.0,-86.0,-353.0,-140.0,56.0,-84.0,-903.0,-186.0
1.0,-230.0,-87.0,-353.0,-158.0,51.0,-69.0,-870.0,-178.0
5.0,-224.0,-82.0,-347.0,-174.0,43.0,-53.0,-843.0,-182.0
9.0,-217.0,-83.0,-338.0,-192.0,30.0,-48.0,-820.0,-174.0
13.0,-210.0,-78.0,-326.0,-207.0,16.0,-35.0,-796.0,-161.0
16.0,-201.0,-78.0,-320.0,-214.0,-1.0,-28.0,-769.0,-160.0
17.0,-197.0,-75.0,-319.0,-215.0,-15.0,-28.0,-749.0,-156.0
18.0,-191.0,-76.0,-326.0,-207.0,-26.0,-29.0,-720.0,-159.0
18.0,-186.0,-79.0,-341.0,-194.0,-32.0,-20.0,-705.0,-155.0
22.0,-183.0,-76.0,-366.0,-178.0,-34.0,-18.0,-689.0,-170.0
17.0,-182.0,-85.0,-395.0,-162.0,-34.0,-16.0,-691.0,-175.0
21.0,-181.0,-87.0,-428.0,-148.0,-28.0,-4.0,-682.0,-185.0
25.0,-184.0,-89.0,-464.0,-136.0,-24.0,7.0,-684.0,-194.0
27.0,-180.0,-93.0,-502.0,-119.0,-22.0,13.0,-679.0,-210.0
29.0,-183.0,-98.0,-545.0,-96.0,-21.0,24.0,-682.0,-215.0
33.0,-183.0,-98.0,-593.0,-61.0,-17.0,33.0,-693.0,-229.0
34.0,-187.0,-102.0,-631.0,-18.0,-16.0,39.0,-700.0,-241.0
38.0,-189.0,-108.0,-681.0,31.0,-13.0,50.0,-710.0,-261.0
36.0,-192.0,-113.0,-729.0,76.0,-15.0,58.0,-724.0,-286.0
36.0,-193.0,-110.0,-778.0,112.0,-20.0,69.0,-735.0,-307.0
40.0,-197.0,-120.0,-822.0,130.0,-32.0,77.0,-755.0,-325.0
43.0,-203.0,-120.0,-854.0,141.0,-47.0,84.0,-763.0,-321.0
46.0,-205.0,-120.0,-875.0,138.0,-68.0,85.0,-776.0,-317.0
46.0,-205.0,-113.0,-885.0,126.0,-89.0,90.0,-781.0,-299.0
46.0,-203.0,-110.0,-879.0,112.0,-105.0,88.0,-773.0,-287.0
44.0,-206.0,-102.0,-862.0,100.0,-125.0,87.0,-770.0,-265.0
41.0,-201.0,-105.0,-834.0,95.0,-144.0,75.0,-766.0,-245.0
39.0,-196.0,-98.0,-799.0,100.0,-156.0,73.0,-756.0,-229.0
35.0,-197.0,-96.0,-764.0,116.0,-161.0,58.0,-742.0,-223.0
39.0,-193.0,-93.0,-734.0,139.0,-160.0,54.0,-731.0,-218.0
35.0,-191.0,-94.0,-716.0,170.0,-155.0,55.0,-722.0,-215.0
33.0,-184.0,-97.0,-703.0,207.0,-146.0,53.0,-707.0,-211.0
36.0,-187.0,-91.0,-701.0,247.0,-131.0,48.0,-701.0,-211.0
36.0,-184.0,-90.0,-704.0,284.0,-114.0,48.0,-693.0,-206.0
33.0,-183.0,-91.0,-713.0,315.0,-94.0,39.0,-686.0,-197.0
30.0,-180.0,-93.0,-728.0,340.0,-73.0,37.0,-684.0,-209.0
29.0,-183.0,-95.0,-743.0,355.0,-50.0,28.0,-689.0,-215.0
25.0,-181.0,-97.0,-761.0,358.0,-33.0,15.0,-686.0,-232.0
28.0,-189.0,-103.0,-778.0,353.0,-19.0,7.0,-692.0,-248.0
21.0,-187.0,-105.0,-798.0,338.0,-9.0,-5.0,-694.0,-261.0
13.0,-182.0,-109.0,-823.0,322.0,0.0,-29.0,-701.0,-278.0
9.0,-188.0,-114.0,-854.0,304.0,3.0,-40.0,-706.0,-303.0
12.0,-189.0,-118.0,-893.0,285.0,2.0,-40.0,-712.0,-318.0
8.0,-188.0,-126.0,-937.0,265.0,0.0,-47.0,-721.0,-328.0
8.0,-193.0,-127.0,-987.0,248.0,-7.0,-42.0,-730.0,-342.0
7.0,-195.0,-127.0,-1032.0,228.0,-15.0,-39.0,-748.0,-343.0
12.0,-200.0,-124.0,-1067.0,208.0,-25.0,-33.0,-768.0,-340.0
14.0,-206.0,-124.0,-1086.0,188.0,-40.0,-32.0,-785.0,-338.0
12.0,-212.0,-124.0,-1087.0,168.0,-55.0,-28.0,-797.0,-329.0
16.0,-217.0,-123.0,-1075.0,148.0,-70.0,-25.0,-809.0,-323.0
14.0,-217.0,-119.0,-1049.0,129.0,-86.0,-18.0,-810.0,-313.0
10.0,-215.0,-116.0,-1012.0,112.0,-101.0,-30.0,-810.0,-305.0
12.0,-206.0,-106.0,-968.0,96.0,-111.0,-32.0,-802.0,-288.0
14.0,-210.0,-105.0,-924.0,80.0,-117.0,-36.0,-791.0,-272.0
14.0,-205.0,-105.0,-884.0,64.0,-115.0,-34.0,-768.0,-256.0
14.0,-200.0,-103.0,-855.0,52.0,-108.0,-30.0,-758.0,-252.0
15.0,-196.0,-99.0,-833.0,42.0,-97.0,-18.0,-731.0,-234.0
17.0,-193.0,-94.0,-815.0,33.0,-82.0,-22.0,-716.0,-225.0
17.0,-188.0,-95.0,-797.0,23.0,-66.0,-16.0,-713.0,-216.0
21.0,-190.0,-97.0,-782.0,9.0,-48.0,-11.0,-705.0,-219.0
21.0,-188.0,-93.0,-768.0,-9.0,-32.0,0.0,-697.0,-218.0
19.0,-187.0,-98.0,-753.0,-30.0,-19.0,12.0,-701.0,-226.0
29.0,-189.0,-99.0,-743.0,-53.0,-11.0,23.0,-698.0,-237.0
32.0,-188.0,-109.0,-734.0,-76.0,-5.0,37.0,-705.0,-252.0
32.0,-189.0,-106.0,-732.0,-103.0,-7.0,45.0,-704.0,-264.0
28.0,-187.0,-111.0,-735.0,-135.0,-11.0,40.0,-720.0,-275.0
27.0,-186.0,-111.0,-740.0,-167.0,-15.0,36.0,-709.0,-283.0
27.0,-190.0,-112.0,-750.0,-203.0,-21.0,31.0,-717.0,-297.0
27.0,-193.0,-116.0,-765.0,-238.0,-27.0,23.0,-723.0,-309.0
26.0,-197.0,-123.0,-779.0,-268.0,-35.0,25.0,-732.0,-321.0
18.0,-195.0,-124.0,-795.0,-294.0,-47.0,15.0,-751.0,-331.0
21.0,-206.0,-124.0,-806.0,-309.0,-63.0,6.0,-774.0,-342.0
22.0,-214.0,-126.0,-815.0,-320.0,-79.0,-7.0,-803.0,-345.0
16.0,-217.0,-126.0,-817.0,-324.0,-99.0,-19.0,-824.0,-346.0
17.0,-226.0,-124.0,-813.0,-321.0,-115.0,-13.0,-851.0,-345.0
18.0,-231.0,-128.0,-805.0,-312.0,-127.0,-14.0,-874.0,-349.0
19.0,-240.0,-126.0,-783.0,-294.0,-136.0,-18.0,-887.0,-348.0
16.0,-246.0,-126.0,-753.0,-271.0,-140.0,-20.0,-917.0,-344.0
14.0,-248.0,-122.0,-712.0,-251.0,-141.0,-20.0,-933.0,-344.0
17.0,-253.0,-123.0,-660.0,-235.0,-139.0,-22.0,-954.0,-337.0
17.0,-257.0,-121.0,-606.0,-225.0,-128.0,-15.0,-969.0,-338.0
17.0,-262.0,-120.0,-552.0,-213.0,-111.0,-15.0,-991.0,-334.0
21.0,-264.0,-124.0,-508.0,-214.0,-83.0,0.0,-1001.0,-333.0
20.0,-268.0,-122.0,-468.0,-223.0,-50.0,3.0,-1011.0,-325.0
24.0,-269.0,-125.0,-435.0,-243.0,-9.0,9.0,-1029.0,-325.0
18.0,-275.0,-119.0,-409.0,-268.0,37.0,16.0,-1040.0,-326.0
31.0,-278.0,-120.0,-384.0,-296.0,87.0,35.0,-1055.0,-326.0
35.0,-277.0,-120.0,-359.0,-321.0,132.0,49.0,-1051.0,-325.0
39.0,-279.0,-124.0,-328.0,-347.0,177.0,71.0,-1063.0,-333.0
44.0,-282.0,-124.0,-294.0,-376.0,218.0,89.0,-1063.0,-337.0
47.0,-282.0,-124.0,-256.0,-406.0,248.0,98.0,-1064.0,-346.0
55.0,-280.0,-127.0,-216.0,-433.0,268.0,116.0,-1060.0,-362.0
58.0,-274.0,-130.0,-179.0,-454.0,276.0,136.0,-1038.0,-370.0
58.0,-270.0,-133.0,-146.0,-465.0,272.0,149.0,-1023.0,-381.0
63.0,-264.0,-136.0,-120.0,-465.0,256.0,164.0,-998.0,-393.0
67.0,-259.0,-140.0,-96.0,-452.0,231.0,171.0,-985.0,-404.0
71.0,-257.0,-142.0,-74.0,-427.0,193.0,178.0,-963.0,-411.0
72.0,-254.0,-143.0,-52.0,-388.0,145.0,185.0,-945.0,-413.0
68.0,-246.0,-147.0,-30.0,-340.0,91.0,179.0,-929.0,-414.0
72.0,-239.0,-141.0,-7.0,-278.0,36.0,181.0,-909.0,-420.0
63.0,-238.0,-145.0,12.0,-210.0,-26.0,145.0,-883.0,-425.0
63.0,-235.0,-146.0,32.0,-135.0,-65.0,145.0,-888.0,-435.0
52.0,-231.0,-148.0,47.0,-64.0,-105.0,109.0,-874.0,-441.0
54.0,-233.0,-150.0,56.0,-12.0,-125.0,105.0,-871.0,-446.0
46.0,-234.0,-154.0,58.0,42.0,-133.0,94.0,-876.0,-457.0
49.0,-232.0,-152.0,57.0,80.0,-134.0,104.0,-871.0,-465.0
47.0,-233.0,-162.0,66.0,101.0,-134.0,97.0,-888.0,-477.0
50.0,-238.0,-157.0,72.0,113.0,-117.0,111.0,-902.0,-493.0
59.0,-240.0,-164.0,68.0,117.0,-97.0,140.0,-908.0,-503.0
58.0,-247.0,-167.0,71.0,111.0,-78.0,149.0,-933.0,-520.0
62.0,-250.0,-172.0,70.0,102.0,-53.0,158.0,-954.0,-544.0
66.0,-255.0,-178.0,55.0,89.0,-26.0,170.0,-970.0,-552.0
65.0,-261.0,-179.0,28.0,73.0,3.0,176.0,-993.0,-569.0
63.0,-263.0,-182.0,-12.0,58.0,32.0,156.0,-1013.0,-570.0
68.0,-274.0,-183.0,-57.0,44.0,57.0,187.0,-1031.0,-565.0
68.0,-276.0,-183.0,-101.0,36.0,64.0,175.0,-1062.0,-568.0
62.0,-282.0,-183.0,-141.0,37.0,69.0,175.0,-1090.0,-567.0
66.0,-293.0,-182.0,-169.0,45.0,59.0,161.0,-1105.0,-560.0
61.0,-298.0,-177.0,-178.0,61.0,44.0,136.0,-1134.0,-558.0
53.0,-303.0,-176.0,-173.0,82.0,26.0,124.0,-1141.0,-561.0
56.0,-306.0,-175.0,-159.0,106.0,-8.0,121.0,-1141.0,-550.0
46.0,-302.0,-176.0,-130.0,131.0,-45.0,89.0,-1149.0,-546.0
42.0,-300.0,-171.0,-110.0,166.0,-70.0,50.0,-1141.0,-540.0
43.0,-290.0,-164.0,-105.0,210.0,-83.0,79.0,-1100.0,-519.0
32.0,-280.0,-165.0,-103.0,252.0,-115.0,16.0,-1069.0,-511.0
28.0,-275.0,-173.0,-113.0,286.0,-129.0,29.0,-1052.0,-519.0
24.0,-262.0,-173.0,-145.0,309.0,-142.0,43.0,-997.0,-517.0
19.0,-257.0,-170.0,-178.0,314.0,-156.0,-29.0,-992.0,-529.0
25.0,-251.0,-177.0,-235.0,316.0,-148.0,11.0,-965.0,-558.0
16.0,-248.0,-175.0,-315.0,297.0,-136.0,-6.0,-957.0,-554.0
34.0,-251.0,-171.0,-393.0,271.0,-114.0,37.0,-944.0,-551.0
25.0,-251.0,-181.0,-447.0,235.0,-113.0,24.0,-952.0,-561.0
47.0,-247.0,-178.0,-505.0,200.0,-89.0,71.0,-955.0,-567.0
41.0,-249.0,-184.0,-557.0,166.0,-82.0,93.0,-933.0,-564.0
33.0,-256.0,-192.0,-610.0,144.0,-72.0,52.0,-973.0,-602.0
31.0,-257.0,-192.0,-693.0,125.0,-43.0,34.0,-974.0,-617.0
41.0,-259.0,-189.0,-759.0,109.0,-10.0,65.0,-985.0,-608.0
46.0,-263.0,-191.0,-791.0,98.0,13.0,89.0,-986.0,-622.0
42.0,-268.0,-194.0,-789.0,89.0,13.0,84.0,-1004.0,-635.0
53.0,-272.0,-195.0,-766.0,83.0,19.0,99.0,-1007.0,-652.0
55.0,-267.0,-199.0,-728.0,90.0,26.0,114.0,-1005.0,-652.0
38.0,-278.0,-218.0,-652.0,107.0,0.0,58.0,-1052.0,-721.0
40.0,-272.0,-223.0,-598.0,127.0,5.0,59.0,-1024.0,-747.0
43.0,-267.0,-226.0,-570.0,135.0,2.0,92.0,-1012.0,-747.0
49.0,-267.0,-230.0,-535.0,141.0,-5.0,88.0,-993.0,-760.0
53.0,-262.0,-224.0,-526.0,147.0,-3.0,102.0,-971.0,-752.0
45.0,-261.0,-230.0,-530.0,155.0,1.0,93.0,-981.0,-753.0
53.0,-253.0,-216.0,-549.0,168.0,25.0,121.0,-961.0,-736.0
44.0,-253.0,-222.0,-538.0,192.0,37.0,80.0,-953.0,-736.0
46.0,-246.0,-225.0,-540.0,213.0,55.0,78.0,-930.0,-755.0
45.0,-233.0,-236.0,-562.0,228.0,74.0,86.0,-892.0,-751.0
56.0,-234.0,-213.0,-603.0,247.0,86.0,119.0,-868.0,-712.0
29.0,-235.0,-214.0,-600.0,272.0,70.0,51.0,-884.0,-707.0
19.0,-249.0,-222.0,-530.0,255.0,38.0,-1.0,-916.0,-737.0
16.0,-240.0,-223.0,-411.0,233.0,9.0,-5.0,-910.0,-744.0
43.0,-242.0,-215.0,-301.0,213.0,0.0,66.0,-874.0,-722.0
38.0,-235.0,-216.0,-193.0,218.0,-11.0,62.0,-871.0,-713.0
38.0,-225.0,-214.0,-124.0,229.0,-5.0,63.0,-853.0,-732.0
38.0,-219.0,-213.0,-107.0,235.0,-1.0,67.0,-828.0,-697.0
29.0,-212.0,-215.0,-109.0,242.0,-2.0,33.0,-830.0,-700.0
33.0,-229.0,-206.0,-122.0,236.0,7.0,66.0,-837.0,-661.0
39.0,-224.0,-188.0,-130.0,213.0,14.0,100.0,-826.0,-608.0
37.0,-232.0,-187.0,-88.0,222.0,-28.0,44.0,-845.0,-596.0
21.0,-229.0,-205.0,-64.0,230.0,-47.0,28.0,-876.0,-652.0
17.0,-225.0,-205.0,-143.0,205.0,-24.0,-2.0,-865.0,-671.0
13.0,-235.0,-202.0,-246.0,174.0,-6.0,-20.0,-886.0,-686.0
11.0,-235.0,-194.0,-314.0,130.0,0.0,-33.0,-912.0,-656.0
12.0,-247.0,-210.0,-343.0,81.0,5.0,-56.0,-910.0,-674.0
8.0,-237.0,-202.0,-360.0,47.0,22.0,-48.0,-904.0,-658.0
26.0,-234.0,-206.0,-375.0,28.0,44.0,-9.0,-885.0,-687.0
13.0,-233.0,-220.0,-390.0,29.0,49.0,-38.0,-881.0,-714.0
5.0,-227.0,-218.0,-406.0,20.0,58.0,-62.0,-871.0,-758.0
20.0,-229.0,-232.0,-447.0,6.0,78.0,-22.0,-876.0,-786.0
46.0,-229.0,-227.0,-490.0,5.0,101.0,71.0,-838.0,-764.0
51.0,-234.0,-218.0,-485.0,29.0,120.0,107.0,-876.0,-718.0
51.0,-233.0,-222.0,-462.0,53.0,128.0,99.0,-873.0,-727.0
54.0,-232.0,-222.0,-454.0,52.0,118.0,121.0,-869.0,-722.0
63.0,-232.0,-217.0,-457.0,43.0,96.0,148.0,-865.0,-709.0
72.0,-230.0,-214.0,-459.0,37.0,93.0,170.0,-852.0,-724.0
66.0,-232.0,-211.0,-451.0,41.0,118.0,180.0,-860.0,-711.0
64.0,-222.0,-216.0,-443.0,54.0,110.0,177.0,-840.0,-723.0
60.0,-216.0,-225.0,-443.0,72.0,113.0,134.0,-813.0,-732.0
53.0,-219.0,-222.0,-475.0,71.0,133.0,106.0,-826.0,-746.0
48.0,-225.0,-224.0,-529.0,74.0,159.0,97.0,-834.0,-754.0
29.0,-221.0,-211.0,-579.0,77.0,161.0,22.0,-845.0,-700.0
43.0,-227.0,-218.0,-598.0,50.0,108.0,75.0,-843.0,-723.0
48.0,-220.0,-228.0,-588.0,10.0,87.0,85.0,-813.0,-746.0
21.0,-243.0,-222.0,-559.0,25.0,106.0,1.0,-900.0,-731.0
48.0,-214.0,-215.0,-583.0,11.0,27.0,96.0,-788.0,-713.0
50.0,-241.0,-224.0,-611.0,-19.0,11.0,83.0,-873.0,-733.0
27.0,-240.0,-212.0,-574.0,30.0,65.0,19.0,-890.0,-706.0
27.0,-241.0,-215.0,-528.0,76.0,93.0,32.0,-900.0,-713.0
0.0,-242.0,-214.0,-505.0,94.0,105.0,-77.0,-913.0,-713.0
6.0,-241.0,-219.0,-481.0,71.0,90.0,-56.0,-900.0,-731.0
-44.0,-242.0,-201.0,-423.0,36.0,94.0,-270.0,-918.0,-688.0
6.0,-237.0,-226.0,-351.0,7.0,122.0,23.0,-850.0,-750.0
-201.0,-194.0,-26.0,-292.0,19.0,165.0,-1478.0,-1107.0,1073.0
160.0,-284.0,-242.0,-337.0,-683.0,-237.0,821.0,-1229.0,-742.0
36.0,-260.0,-253.0,-842.0,-840.0,-499.0,26.0,-971.0,-860.0
56.0,-231.0,-277.0,-1029.0,-680.0,-507.0,73.0,-847.0,-964.0
105.0,-208.0,-280.0,-982.0,-512.0,-478.0,341.0,-691.0,-990.0
34.0,-240.0,-281.0,-748.0,-319.0,-266.0,55.0,-816.0,-951.0
58.0,-221.0,-232.0,-480.0,-238.0,-183.0,98.0,-753.0,-786.0
97.0,-192.0,-266.0,-204.0,-261.0,-111.0,267.0,-680.0,-923.0
65.0,-201.0,-274.0,93.0,-168.0,21.0,151.0,-709.0,-962.0
28.0,-203.0,-255.0,367.0,-26.0,93.0,14.0,-742.0,-900.0
33.0,-209.0,-233.0,567.0,50.0,94.0,43.0,-771.0,-798.0
37.0,-215.0,-222.0,686.0,62.0,86.0,51.0,-801.0,-743.0
34.0,-221.0,-220.0,740.0,49.0,82.0,54.0,-824.0,-716.0
35.0,-224.0,-211.0,766.0,32.0,79.0,53.0,-830.0,-694.0
32.0,-219.0,-206.0,774.0,16.0,76.0,43.0,-831.0,-682.0
32.0,-218.0,-204.0,771.0,8.0,70.0,36.0,-813.0,-663.0
33.0,-216.0,-203.0,768.0,2.0,65.0,35.0,-805.0,-652.0
31.0,-214.0,-197.0,767.0,0.0,62.0,38.0,-812.0,-654.0
37.0,-217.0,-202.0,781.0,2.0,57.0,51.0,-813.0,-647.0
38.0,-218.0,-202.0,804.0,3.0,49.0,60.0,-805.0,-657.0
39.0,-216.0,-203.0,835.0,7.0,40.0,74.0,-812.0,-666.0
42.0,-226.0,-204.0,874.0,9.0,35.0,77.0,-834.0,-666.0
46.0,-235.0,-203.0,920.0,6.0,32.0,83.0,-884.0,-662.0
39.0,-248.0,-201.0,961.0,6.0,35.0,74.0,-940.0,-660.0
39.0,-257.0,-201.0,999.0,8.0,38.0,66.0,-978.0,-676.0
37.0,-268.0,-209.0,1032.0,13.0,41.0,56.0,-1020.0,-696.0
29.0,-277.0,-217.0,1058.0,17.0,42.0,35.0,-1060.0,-737.0
24.0,-286.0,-231.0,1071.0,13.0,44.0,17.0,-1089.0,-770.0
23.0,-299.0,-242.0,1089.0,2.0,41.0,-3.0,-1125.0,-802.0
16.0,-313.0,-243.0,1128.0,-15.0,34.0,-7.0,-1178.0,-821.0
10.0,-325.0,-250.0,1195.0,-34.0,17.0,-22.0,-1204.0,-832.0
17.0,-330.0,-249.0,1291.0,-56.0,-8.0,-17.0,-1235.0,-834.0
17.0,-333.0,-241.0,1402.0,-79.0,-36.0,-16.0,-1250.0,-813.0
18.0,-331.0,-233.0,1525.0,-103.0,-65.0,-21.0,-1241.0,-794.0
17.0,-326.0,-224.0,1648.0,-123.0,-94.0,-17.0,-1231.0,-763.0
12.0,-321.0,-211.0,1765.0,-141.0,-114.0,-41.0,-1205.0,-711.0
13.0,-311.0,-200.0,1878.0,-162.0,-115.0,-33.0,-1167.0,-668.0
14.0,-298.0,-188.0,1982.0,-180.0,-111.0,-31.0,-1127.0,-613.0
21.0,-284.0,-174.0,2077.0,-191.0,-98.0,-4.0,-1084.0,-542.0
23.0,-266.0,-155.0,2158.0,-196.0,-76.0,-6.0,-1008.0,-485.0
29.0,-247.0,-141.0,2206.0,-191.0,-52.0,6.0,-939.0,-421.0
29.0,-224.0,-120.0,2215.0,-178.0,-28.0,34.0,-877.0,-342.0
29.0,-210.0,-106.0,2183.0,-156.0,-18.0,21.0,-809.0,-270.0
32.0,-199.0,-91.0,2121.0,-130.0,-6.0,29.0,-758.0,-209.0
37.0,-193.0,-79.0,2033.0,-100.0,-2.0,53.0,-735.0,-156.0
34.0,-188.0,-70.0,1930.0,-68.0,-7.0,52.0,-725.0,-124.0
38.0,-184.0,-66.0,1815.0,-39.0,-15.0,54.0,-715.0,-104.0
36.0,-182.0,-71.0,1702.0,-20.0,-24.0,68.0,-709.0,-111.0
37.0,-179.0,-71.0,1585.0,-7.0,-33.0,63.0,-700.0,-121.0
41.0,-189.0,-76.0,1479.0,-6.0,-34.0,69.0,-709.0,-150.0
35.0,-194.0,-90.0,1395.0,-9.0,-29.0,56.0,-715.0,-190.0
37.0,-203.0,-105.0,1358.0,-12.0,-15.0,57.0,-741.0,-223.0
37.0,-203.0,-105.0,1359.0,-14.0,-1.0,55.0,-766.0,-261.0
32.0,-209.0,-110.0,1398.0,-15.0,9.0,63.0,-773.0,-286.0
36.0,-215.0,-114.0,1466.0,-8.0,16.0,56.0,-796.0,-295.0
35.0,-219.0,-110.0,1543.0,7.0,22.0,54.0,-820.0,-287.0
34.0,-231.0,-110.0,1626.0,32.0,28.0,55.0,-849.0,-272.0
37.0,-236.0,-110.0,1714.0,50.0,24.0,57.0,-872.0,-267.0
35.0,-239.0,-100.0,1798.0,71.0,12.0,51.0,-885.0,-242.0
31.0,-243.0,-94.0,1876.0,87.0,1.0,32.0,-916.0,-221.0
23.0,-248.0,-93.0,1949.0,95.0,-4.0,10.0,-928.0,-188.0
24.0,-253.0,-83.0,2020.0,98.0,-4.0,15.0,-948.0,-168.0
24.0,-258.0,-83.0,2087.0,93.0,-11.0,12.0,-975.0,-140.0
21.0,-261.0,-66.0,2134.0,83.0,-22.0,1.0,-999.0,-114.0
15.0,-267.0,-65.0,2185.0,67.0,-23.0,-20.0,-1022.0,-94.0
20.0,-275.0,-59.0,2232.0,51.0,-12.0,-9.0,-1038.0,-80.0
20.0,-276.0,-58.0,2265.0,30.0,-7.0,-7.0,-1062.0,-68.0
19.0,-280.0,-53.0,2270.0,12.0,-10.0,-10.0,-1076.0,-57.0
24.0,-281.0,-58.0,2236.0,-12.0,-28.0,3.0,-1078.0,-59.0
23.0,-276.0,-58.0,2156.0,-32.0,-54.0,2.0,-1081.0,-59.0
19.0,-271.0,-50.0,2043.0,-42.0,-74.0,8.0,-1062.0,-51.0
29.0,-271.0,-56.0,1914.0,-38.0,-75.0,24.0,-1058.0,-53.0
36.0,-265.0,-55.0,1767.0,-24.0,-80.0,60.0,-1042.0,-52.0
29.0,-260.0,-56.0,1613.0,-2.0,-88.0,44.0,-1025.0,-49.0
25.0,-262.0,-54.0,1457.0,26.0,-87.0,18.0,-1019.0,-47.0
28.0,-259.0,-55.0,1303.0,57.0,-81.0,24.0,-1009.0,-39.0
29.0,-262.0,-48.0,1159.0,86.0,-75.0,32.0,-1011.0,-34.0
33.0,-258.0,-52.0,1027.0,106.0,-69.0,48.0,-1013.0,-33.0
28.0,-258.0,-47.0,913.0,115.0,-63.0,30.0,-1002.0,-26.0
30.0,-258.0,-49.0,817.0,121.0,-48.0,43.0,-993.0,-19.0
30.0,-259.0,-46.0,741.0,118.0,-30.0,41.0,-991.0,-26.0
30.0,-254.0,-49.0,675.0,107.0,-11.0,39.0,-978.0,-17.0
36.0,-255.0,-47.0,628.0,90.0,8.0,57.0,-977.0,-18.0
37.0,-260.0,-49.0,597.0,65.0,17.0,59.0,-970.0,-14.0
34.0,-256.0,-50.0,588.0,39.0,20.0,56.0,-963.0,-12.0
21.0,-252.0,-50.0,598.0,17.0,18.0,-8.0,-966.0,-29.0
32.0,-251.0,-44.0,609.0,6.0,36.0,34.0,-960.0,-27.0
38.0,-250.0,-38.0,626.0,0.0,32.0,53.0,-941.0,-3.0
31.0,-250.0,-36.0,663.0,-6.0,4.0,31.0,-945.0,20.0
28.0,-249.0,-36.0,706.0,-5.0,-20.0,17.0,-940.0,22.0
26.0,-247.0,-38.0,742.0,6.0,-37.0,16.0,-944.0,28.0
22.0,-249.0,-29.0,767.0,24.0,-51.0,5.0,-943.0,33.0
20.0,-248.0,-34.0,785.0,44.0,-60.0,1.0,-946.0,31.0
21.0,-247.0,-30.0,792.0,62.0,-67.0,-7.0,-946.0,43.0
19.0,-248.0,-32.0,793.0,78.0,-74.0,-1.0,-952.0,46.0
23.0,-246.0,-27.0,781.0,82.0,-79.0,-5.0,-952.0,57.0
18.0,-250.0,-23.0,758.0,75.0,-82.0,-14.0,-960.0,59.0
15.0,-251.0,-24.0,722.0,64.0,-72.0,-3.0,-966.0,58.0
17.0,-253.0,-23.0,680.0,48.0,-55.0,-5.0,-961.0,72.0
21.0,-252.0,-18.0,637.0,29.0,-36.0,9.0,-967.0,73.0
21.0,-252.0,-17.0,591.0,7.0,-21.0,11.0,-973.0,79.0
24.0,-254.0,-19.0,549.0,-20.0,-10.0,12.0,-975.0,86.0
18.0,-252.0,-20.0,500.0,-45.0,0.0,9.0,-971.0,84.0
25.0,-255.0,-16.0,445.0,-70.0,15.0,11.0,-968.0,88.0
26.0,-252.0,-19.0,386.0,-95.0,32.0,14.0,-970.0,91.0
23.0,-253.0,-15.0,322.0,-115.0,48.0,18.0,-970.0,98.0
33.0,-255.0,-11.0,263.0,-135.0,57.0,45.0,-964.0,110.0
37.0,-253.0,-9.0,216.0,-152.0,52.0,53.0,-963.0,118.0
33.0,-254.0,-13.0,175.0,-166.0,39.0,48.0,-968.0,114.0
36.0,-253.0,-16.0,133.0,-176.0,32.0,52.0,-966.0,107.0
31.0,-252.0,-13.0,85.0,-180.0,27.0,50.0,-963.0,113.0
41.0,-252.0,-10.0,46.0,-177.0,17.0,73.0,-966.0,129.0
37.0,-249.0,-5.0,25.0,-175.0,-1.0,68.0,-969.0,124.0
38.0,-255.0,-8.0,8.0,-167.0,-14.0,66.0,-972.0,119.0
45.0,-254.0,-5.0,-7.0,-157.0,-23.0,77.0,-967.0,131.0
47.0,-256.0,0.0,-16.0,-146.0,-31.0,90.0,-973.0,129.0
37.0,-250.0,-6.0,-18.0,-139.0,-40.0,85.0,-964.0,138.0
43.0,-250.0,-6.0,-17.0,-129.0,-44.0,90.0,-960.0,136.0
42.0,-248.0,-3.0,-18.0,-121.0,-39.0,93.0,-953.0,138.0
49.0,-249.0,-4.0,-19.0,-109.0,-32.0,100.0,-960.0,144.0
48.0,-254.0,-7.0,-17.0,-94.0,-24.0,95.0,-964.0,133.0
47.0,-254.0,-1.0,-21.0,-75.0,-11.0,98.0,-969.0,134.0
49.0,-256.0,-11.0,-33.0,-59.0,3.0,102.0,-981.0,129.0
51.0,-259.0,-9.0,-55.0,-50.0,11.0,102.0,-991.0,115.0
42.0,-259.0,-12.0,-84.0,-50.0,14.0,89.0,-997.0,105.0
47.0,-261.0,-17.0,-116.0,-53.0,14.0,99.0,-1004.0,95.0
47.0,-265.0,-20.0,-143.0,-60.0,0.0,104.0,-1010.0,90.0
47.0,-268.0,-13.0,-152.0,-66.0,-24.0,103.0,-1021.0,81.0
44.0,-267.0,-19.0,-134.0,-67.0,-48.0,82.0,-1026.0,71.0
38.0,-271.0,-23.0,-102.0,-60.0,-65.0,75.0,-1028.0,67.0
40.0,-270.0,-25.0,-58.0,-41.0,-73.0,69.0,-1031.0,66.0
42.0,-272.0,-27.0,-3.0,-14.0,-79.0,76.0,-1030.0,60.0
47.0,-269.0,-26.0,51.0,20.0,-78.0,86.0,-1025.0,56.0
45.0,-269.0,-24.0,102.0,56.0,-78.0,81.0,-1023.0,60.0
51.0,-266.0,-23.0,145.0,90.0,-75.0,102.0,-1016.0,57.0
50.0,-265.0,-20.0,181.0,116.0,-79.0,108.0,-1002.0,66.0
49.0,-261.0,-26.0,206.0,133.0,-82.0,120.0,-1003.0,65.0
51.0,-255.0,-19.0,222.0,145.0,-86.0,116.0,-993.0,77.0
54.0,-258.0,-13.0,227.0,152.0,-88.0,114.0,-979.0,93.0
50.0,-256.0,-11.0,224.0,155.0,-95.0,113.0,-973.0,113.0
49.0,-254.0,-5.0,216.0,152.0,-102.0,106.0,-971.0,125.0
45.0,-254.0,-2.0,204.0,146.0,-106.0,95.0,-974.0,143.0
44.0,-254.0,0.0,188.0,138.0,-112.0,93.0,-969.0,166.0
38.0,-251.0,4.0,176.0,129.0,-115.0,85.0,-970.0,175.0
38.0,-256.0,9.0,167.0,115.0,-116.0,72.0,-967.0,186.0
38.0,-254.0,13.0,157.0,99.0,-114.0,73.0,-966.0,198.0
35.0,-251.0,9.0,149.0,79.0,-108.0,59.0,-960.0,195.0
36.0,-250.0,9.0,132.0,59.0,-98.0,54.0,-957.0,195.0
31.0,-250.0,9.0,111.0,39.0,-86.0,48.0,-957.0,193.0
37.0,-249.0,6.0,79.0,20.0,-73.0,46.0,-947.0,192.0
31.0,-244.0,4.0,39.0,3.0,-59.0,45.0,-945.0,185.0
29.0,-245.0,4.0,-6.0,-13.0,-45.0,49.0,-942.0,174.0
31.0,-246.0,1.0,-56.0,-27.0,-31.0,45.0,-944.0,169.0
32.0,-247.0,3.0,-90.0,-37.0,-19.0,39.0,-949.0,156.0
34.0,-250.0,-3.0,-125.0,-40.0,-13.0,42.0,-955.0,150.0
33.0,-255.0,-2.0,-148.0,-37.0,-10.0,46.0,-960.0,140.0
32.0,-255.0,-6.0,-160.0,-29.0,-10.0,46.0,-970.0,138.0
31.0,-256.0,-7.0,-157.0,-19.0,-11.0,53.0,-975.0,133.0
37.0,-261.0,-5.0,-145.0,-3.0,-15.0,56.0,-990.0,137.0
41.0,-263.0,-5.0,-124.0,17.0,-18.0,60.0,-1000.0,129.0
41.0,-261.0,-1.0,-96.0,34.0,-25.0,74.0,-1003.0,126.0
44.0,-267.0,-14.0,-65.0,53.0,-28.0,82.0,-1015.0,120.0
43.0,-268.0,-9.0,-31.0,68.0,-36.0,85.0,-1019.0,117.0
44.0,-265.0,-9.0,5.0,77.0,-40.0,83.0,-1022.0,120.0
46.0,-268.0,-15.0,35.0,75.0,-41.0,94.0,-1020.0,110.0
46.0,-264.0,-14.0,61.0,67.0,-41.0,92.0,-1015.0,104.0
47.0,-266.0,-13.0,75.0,59.0,-37.0,92.0,-1013.0,93.0
46.0,-259.0,-12.0,78.0,50.0,-26.0,97.0,-1000.0,95.0
47.0,-262.0,-15.0,76.0,39.0,-26.0,108.0,-1001.0,95.0
43.0,-258.0,-15.0,68.0,29.0,-28.0,87.0,-992.0,90.0
45.0,-264.0,-21.0,50.0,22.0,-20.0,106.0,-990.0,98.0
51.0,-256.0,-13.0,27.0,15.0,-20.0,118.0,-987.0,99.0
49.0,-257.0,-14.0,6.0,11.0,-23.0,114.0,-984.0,105.0
48.0,-259.0,-14.0,-11.0,9.0,-25.0,98.0,-988.0,109.0
48.0,-259.0,-12.0,-33.0,9.0,-23.0,95.0,-985.0,106.0
46.0,-257.0,-13.0,-51.0,8.0,-21.0,90.0,-993.0,107.0
41.0,-258.0,-9.0,-66.0,9.0,-16.0,84.0,-989.0,111.0
42.0,-259.0,-11.0,-80.0,10.0,-12.0,85.0,-992.0,115.0
39.0,-259.0,-5.0,-89.0,12.0,-9.0,79.0,-993.0,114.0
42.0,-260.0,-6.0,-93.0,16.0,-4.0,79.0,-996.0,117.0
42.0,-260.0,-7.0,-92.0,18.0,-2.0,77.0,-999.0,115.0
39.0,-257.0,-9.0,-86.0,21.0,-1.0,74.0,-991.0,115.0
41.0,-261.0,-15.0,-81.0,26.0,-2.0,72.0,-993.0,109.0
40.0,-258.0,-12.0,-73.0,32.0,-2.0,73.0,-988.0,103.0
41.0,-256.0,-13.0,-67.0,37.0,-5.0,74.0,-981.0,107.0
39.0,-255.0,-12.0,-63.0,44.0,-6.0,79.0,-977.0,106.0
39.0,-255.0,-17.0,-60.0,51.0,-8.0,82.0,-975.0,100.0
43.0,-256.0,-18.0,-56.0,59.0,-13.0,80.0,-973.0,86.0
41.0,-255.0,-18.0,-54.0,66.0,-16.0,78.0,-968.0,86.0
41.0,-252.0,-21.0,-59.0,71.0,-19.0,82.0,-962.0,84.0
43.0,-251.0,-17.0,-62.0,76.0,-22.0,77.0,-967.0,80.0
37.0,-252.0,-17.0,-70.0,77.0,-22.0,86.0,-972.0,92.0
41.0,-251.0,-18.0,-75.0,76.0,-20.0,88.0,-974.0,90.0
44.0,-255.0,-17.0,-79.0,71.0,-19.0,92.0,-973.0,94.0
48.0,-259.0,-14.0,-81.0,67.0,-17.0,91.0,-986.0,97.0
45.0,-260.0,-14.0,-80.0,59.0,-15.0,95.0,-983.0,98.0
42.0,-257.0,-13.0,-75.0,51.0,-11.0,88.0,-997.0,101.0
47.0,-263.0,-16.0,-67.0,41.0,-7.0,90.0,-1002.0,102.0
43.0,-262.0,-13.0,-53.0,33.0,-3.0,84.0,-1005.0,109.0
40.0,-266.0,-14.0,-36.0,23.0,5.0,84.0,-1011.0,102.0
42.0,-266.0,-12.0,-19.0,12.0,9.0,75.0,-1014.0,97.0
37.0,-263.0,-10.0,-7.0,3.0,13.0,74.0,-1022.0,101.0
41.0,-269.0,-12.0,0.0,-7.0,15.0,67.0,-1017.0,108.0
35.0,-266.0,-12.0,5.0,-15.0,15.0,57.0,-1008.0,106.0
32.0,-262.0,-12.0,5.0,-22.0,15.0,54.0,-1009.0,110.0
31.0,-261.0,-8.0,3.0,-27.0,15.0,50.0,-1005.0,110.0
30.0,-257.0,-5.0,-2.0,-30.0,10.0,38.0,-1000.0,112.0
29.0,-259.0,-12.0,-10.0,-31.0,5.0,37.0,-999.0,119.0
29.0,-261.0,-5.0,-19.0,-30.0,-2.0,29.0,-999.0,117.0
27.0,-258.0,-13.0,-34.0,-26.0,-7.0,23.0,-994.0,111.0
30.0,-261.0,-12.0,-48.0,-21.0,-12.0,21.0,-994.0,114.0
26.0,-258.0,-12.0,-65.0,-15.0,-16.0,27.0,-993.0,109.0
30.0,-258.0,-13.0,-76.0,-9.0,-18.0,27.0,-991.0,110.0
26.0,-256.0,-13.0,-88.0,-4.0,-17.0,24.0,-989.0,107.0
31.0,-256.0,-16.0,-94.0,1.0,-18.0,27.0,-986.0,106.0
27.0,-260.0,-14.0,-93.0,4.0,-18.0,33.0,-999.0,97.0
30.0,-259.0,-20.0,-89.0,6.0,-20.0,36.0,-996.0,98.0
32.0,-261.0,-17.0,-80.0,9.0,-20.0,35.0,-1003.0,96.0
34.0,-260.0,-15.0,-72.0,10.0,-20.0,45.0,-1002.0,97.0
35.0,-262.0,-21.0,-66.0,11.0,-19.0,48.0,-1004.0,97.0
32.0,-259.0,-16.0,-58.0,11.0,-18.0,50.0,-1003.0,97.0
37.0,-262.0,-14.0,-50.0,11.0,-14.0,57.0,-1002.0,96.0
37.0,-263.0,-9.0,-41.0,8.0,-11.0,57.0,-1001.0,92.0
35.0,-260.0,-16.0,-34.0,1.0,-7.0,62.0,-1004.0,98.0
37.0,-262.0,-14.0,-26.0,-7.0,-2.0,59.0,-1008.0,94.0
33.0,-270.0,-19.0,-20.0,-14.0,-1.0,58.0,-1007.0,92.0
35.0,-263.0,-14.0,-16.0,-20.0,5.0,60.0,-1006.0,101.0
35.0,-264.0,-12.0,-10.0,-25.0,5.0,54.0,-1008.0,106.0
34.0,-265.0,-10.0,2.0,-30.0,8.0,51.0,-1012.0,111.0
33.0,-265.0,-12.0,14.0,-35.0,11.0,52.0,-1006.0,113.0
34.0,-264.0,-11.0,30.0,-40.0,12.0,49.0,-1006.0,118.0
29.0,-258.0,-11.0,41.0,-45.0,11.0,53.0,-1003.0,113.0
34.0,-262.0,-10.0,50.0,-49.0,11.0,51.0,-997.0,104.0
33.0,-260.0,-14.0,53.0,-50.0,10.0,49.0,-994.0,109.0
31.0,-256.0,-8.0,53.0,-51.0,8.0,59.0,-988.0,103.0
39.0,-256.0,-12.0,49.0,-52.0,6.0,57.0,-986.0,113.0
34.0,-259.0,-7.0,46.0,-50.0,2.0,55.0,-985.0,116.0
35.0,-258.0,-8.0,38.0,-48.0,1.0,60.0,-986.0,116.0
33.0,-256.0,-10.0,30.0,-47.0,-1.0,57.0,-986.0,119.0
38.0,-258.0,-9.0,23.0,-45.0,-1.0,53.0,-985.0,122.0
36.0,-257.0,-10.0,19.0,-44.0,-3.0,53.0,-986.0,121.0
34.0,-257.0,-7.0,15.0,-43.0,-5.0,56.0,-991.0,118.0
34.0,-261.0,-11.0,10.0,-40.0,-6.0,52.0,-988.0,114.0
33.0,-257.0,-8.0,4.0,-40.0,-5.0,57.0,-987.0,114.0
36.0,-257.0,-4.0,-1.0,-41.0,-2.0,52.0,-985.0,115.0
36.0,-256.0,-7.0,-8.0,-42.0,-1.0,57.0,-987.0,111.0
35.0,-257.0,-9.0,-17.0,-45.0,1.0,59.0,-987.0,109.0
35.0,-259.0,-11.0,-23.0,-49.0,1.0,56.0,-992.0,112.0
39.0,-258.0,-11.0,-29.0,-51.0,2.0,65.0,-987.0,109.0
36.0,-257.0,-11.0,-36.0,-54.0,2.0,63.0,-991.0,111.0
34.0,-258.0,-13.0,-44.0,-59.0,3.0,65.0,-989.0,110.0
35.0,-260.0,-12.0,-46.0,-61.0,4.0,67.0,-993.0,106.0
38.0,-257.0,-14.0,-48.0,-65.0,5.0,62.0,-989.0,104.0
36.0,-257.0,-9.0,-51.0,-70.0,4.0,60.0,-986.0,107.0
36.0,-257.0,-13.0,-52.0,-74.0,4.0,60.0,-986.0,108.0
37.0,-258.0,-10.0,-51.0,-79.0,3.0,61.0,-988.0,106.0
36.0,-257.0,-8.0,-50.0,-83.0,1.0,62.0,-989.0,107.0
34.0,-257.0,-7.0,-46.0,-85.0,-2.0,62.0,-992.0,109.0
34.0,-258.0,-11.0,-43.0,-87.0,-2.0,56.0,-991.0,107.0
36.0,-260.0,-6.0,-36.0,-89.0,-2.0,61.0,-998.0,113.0
36.0,-263.0,-10.0,-30.0,-91.0,-2.0,60.0,-999.0,108.0
38.0,-261.0,-13.0,-24.0,-93.0,-2.0,60.0,-998.0,113.0
36.0,-264.0,-6.0,-19.0,-94.0,-3.0,62.0,-1000.0,114.0
36.0,-263.0,-14.0,-13.0,-93.0,-4.0,64.0,-1000.0,110.0
39.0,-263.0,-12.0,-10.0,-91.0,-4.0,61.0,-1004.0,114.0
39.0,-263.0,-9.0,-7.0,-89.0,-3.0,66.0,-999.0,110.0
42.0,-265.0,-12.0,-4.0,-89.0,-4.0,62.0,-1001.0,109.0
37.0,-261.0,-15.0,-3.0,-86.0,-4.0,61.0,-1001.0,114.0
38.0,-261.0,-14.0,-3.0,-82.0,-5.0,59.0,-1001.0,108.0
37.0,-259.0,-6.0,-3.0,-78.0,-5.0,64.0,-1001.0,111.0
38.0,-259.0,-11.0,-4.0,-74.0,-6.0,59.0,-999.0,116.0
38.0,-261.0,-8.0,-8.0,-69.0,-7.0,61.0,-997.0,117.0
38.0,-263.0,-11.0,-8.0,-65.0,-8.0,67.0,-995.0,114.0
40.0,-259.0,-13.0,-6.0,-62.0,-10.0,73.0,-999.0,116.0
38.0,-258.0,-11.0,-2.0,-61.0,-13.0,75.0,-997.0,115.0
38.0,-259.0,-9.0,-1.0,-59.0,-14.0,75.0,-993.0,108.0
42.0,-256.0,-8.0,2.0,-58.0,-16.0,76.0,-982.0,111.0
40.0,-256.0,-9.0,3.0,-55.0,-18.0,86.0,-986.0,111.0
42.0,-256.0,-13.0,0.0,-53.0,-21.0,86.0,-984.0,111.0
46.0,-257.0,-7.0,-4.0,-49.0,-21.0,90.0,-986.0,106.0
44.0,-256.0,-14.0,-8.0,-46.0,-23.0,88.0,-982.0,108.0
45.0,-255.0,-10.0,-13.0,-42.0,-25.0,87.0,-980.0,113.0
45.0,-257.0,-12.0,-21.0,-38.0,-25.0,88.0,-980.0,105.0
44.0,-256.0,-16.0,-26.0,-37.0,-25.0,84.0,-981.0,105.0
43.0,-257.0,-10.0,-34.0,-38.0,-28.0,84.0,-987.0,98.0
43.0,-258.0,-14.0,-39.0,-37.0,-27.0,84.0,-988.0,98.0
43.0,-258.0,-10.0,-40.0,-34.0,-30.0,79.0,-994.0,99.0
41.0,-260.0,-23.0,-41.0,-31.0,-30.0,76.0,-994.0,98.0
44.0,-261.0,-15.0,-37.0,-29.0,-31.0,81.0,-1000.0,98.0
42.0,-266.0,-14.0,-30.0,-25.0,-31.0,73.0,-1009.0,99.0
42.0,-267.0,-19.0,-19.0,-22.0,-33.0,71.0,-1008.0,95.0
40.0,-262.0,-13.0,-7.0,-19.0,-34.0,73.0,-1012.0,99.0
40.0,-267.0,-18.0,9.0,-14.0,-35.0,72.0,-1014.0,99.0
40.0,-264.0,-14.0,22.0,-10.0,-36.0,72.0,-1008.0,98.0
37.0,-263.0,-15.0,36.0,-9.0,-35.0,73.0,-1006.0,100.0
41.0,-263.0,-13.0,49.0,-5.0,-34.0,62.0,-1007.0,101.0
42.0,-262.0,-11.0,59.0,-5.0,-35.0,65.0,-1002.0,105.0
40.0,-260.0,-11.0,67.0,-3.0,-34.0,64.0,-995.0,108.0
39.0,-259.0,-12.0,69.0,-2.0,-32.0,66.0,-995.0,109.0
40.0,-258.0,-14.0,70.0,-2.0,-30.0,63.0,-994.0,112.0
40.0,-257.0,-13.0,68.0,-2.0,-28.0,71.0,-987.0,113.0
41.0,-257.0,-9.0,61.0,-2.0,-27.0,76.0,-988.0,117.0
42.0,-257.0,-6.0,55.0,-4.0,-23.0,80.0,-981.0,120.0
40.0,-257.0,-8.0,47.0,-3.0,-21.0,77.0,-982.0,119.0
42.0,-255.0,-5.0,38.0,-6.0,-19.0,84.0,-983.0,121.0
41.0,-258.0,-4.0,31.0,-10.0,-16.0,83.0,-983.0,122.0
42.0,-258.0,-10.0,25.0,-14.0,-15.0,87.0,-985.0,126.0
46.0,-261.0,-7.0,24.0,-17.0,-12.0,92.0,-989.0,123.0
43.0,-259.0,-5.0,30.0,-21.0,-12.0,88.0,-992.0,120.0
43.0,-259.0,-8.0,41.0,-21.0,-12.0,88.0,-995.0,119.0
44.0,-263.0,-5.0,51.0,-21.0,-14.0,87.0,-998.0,116.0
38.0,-262.0,-5.0,61.0,-19.0,-14.0,83.0,-1002.0,110.0
45.0,-262.0,-13.0,73.0,-15.0,-16.0,81.0,-997.0,117.0
45.0,-261.0,-9.0,84.0,-8.0,-18.0,79.0,-1005.0,115.0
44.0,-263.0,-11.0,96.0,-3.0,-22.0,87.0,-1003.0,112.0
44.0,-259.0,-8.0,107.0,3.0,-26.0,84.0,-996.0,114.0
41.0,-260.0,-9.0,113.0,9.0,-29.0,77.0,-994.0,118.0
42.0,-257.0,-5.0,115.0,15.0,-31.0,86.0,-991.0,125.0
41.0,-259.0,-8.0,113.0,23.0,-33.0,79.0,-987.0,125.0
43.0,-258.0,-14.0,107.0,32.0,-33.0,77.0,-988.0,126.0
41.0,-256.0,-5.0,96.0,39.0,-34.0,81.0,-986.0,135.0
43.0,-257.0,-4.0,84.0,44.0,-32.0,83.0,-983.0,139.0
47.0,-257.0,1.0,72.0,48.0,-28.0,86.0,-985.0,143.0
43.0,-256.0,-4.0,61.0,47.0,-24.0,84.0,-984.0,146.0
45.0,-257.0,-1.0,54.0,43.0,-19.0,85.0,-977.0,150.0
43.0,-257.0,0.0,50.0,35.0,-17.0,85.0,-983.0,153.0
43.0,-257.0,1.0,44.0,27.0,-15.0,83.0,-984.0,152.0
42.0,-257.0,1.0,39.0,19.0,-12.0,82.0,-983.0,155.0
42.0,-258.0,0.0,34.0,12.0,-11.0,75.0,-987.0,157.0
42.0,-262.0,1.0,30.0,7.0,-12.0,76.0,-987.0,164.0
38.0,-256.0,3.0,29.0,2.0,-14.0,70.0,-990.0,164.0
37.0,-259.0,2.0,29.0,-2.0,-14.0,69.0,-991.0,163.0
40.0,-258.0,0.0,31.0,-4.0,-16.0,64.0,-988.0,157.0
39.0,-268.0,4.0,35.0,-8.0,-16.0,62.0,-988.0,162.0
37.0,-257.0,0.0,40.0,-9.0,-16.0,62.0,-996.0,156.0
38.0,-258.0,0.0,42.0,-10.0,-14.0,67.0,-997.0,156.0
36.0,-260.0,0.0,42.0,-12.0,-14.0,65.0,-993.0,149.0
39.0,-258.0,-2.0,42.0,-12.0,-13.0,63.0,-994.0,148.0
36.0,-259.0,-2.0,39.0,-12.0,-12.0,59.0,-992.0,142.0
37.0,-256.0,-6.0,33.0,-14.0,-11.0,60.0,-986.0,143.0
34.0,-255.0,-4.0,23.0,-15.0,-8.0,68.0,-991.0,137.0
40.0,-258.0,1.0,12.0,-15.0,-8.0,70.0,-980.0,144.0
37.0,-257.0,2.0,0.0,-12.0,-8.0,67.0,-981.0,144.0
36.0,-256.0,-3.0,-10.0,-9.0,-9.0,68.0,-977.0,144.0
41.0,-255.0,3.0,-18.0,-2.0,-9.0,71.0,-971.0,148.0
41.0,-254.0,2.0,-26.0,6.0,-9.0,74.0,-983.0,150.0
43.0,-255.0,0.0,-33.0,15.0,-10.0,79.0,-978.0,150.0
43.0,-256.0,1.0,-35.0,23.0,-10.0,77.0,-982.0,153.0
46.0,-257.0,2.0,-38.0,29.0,-12.0,81.0,-974.0,153.0
41.0,-256.0,1.0,-38.0,34.0,-12.0,86.0,-982.0,160.0
44.0,-260.0,1.0,-35.0,38.0,-11.0,88.0,-981.0,168.0
41.0,-256.0,1.0,-28.0,39.0,-10.0,91.0,-982.0,159.0
47.0,-258.0,0.0,-19.0,38.0,-9.0,93.0,-983.0,168.0
47.0,-257.0,1.0,-13.0,34.0,-8.0,97.0,-976.0,164.0
46.0,-254.0,3.0,-7.0,27.0,-9.0,103.0,-974.0,158.0
49.0,-254.0,3.0,-2.0,19.0,-10.0,95.0,-979.0,161.0
47.0,-256.0,2.0,-2.0,15.0,-14.0,101.0,-975.0,155.0
48.0,-253.0,1.0,-2.0,12.0,-14.0,101.0,-971.0,157.0
48.0,-256.0,1.0,-4.0,11.0,-15.0,99.0,-970.0,159.0
48.0,-256.0,-2.0,-5.0,9.0,-16.0,95.0,-980.0,151.0
45.0,-256.0,0.0,-5.0,10.0,-18.0,88.0,-982.0,151.0
41.0,-255.0,-1.0,-7.0,14.0,-17.0,89.0,-983.0,142.0
44.0,-260.0,-1.0,-9.0,20.0,-18.0,87.0,-986.0,142.0
41.0,-259.0,-2.0,-14.0,26.0,-18.0,80.0,-992.0,144.0
43.0,-258.0,0.0,-16.0,33.0,-17.0,79.0,-992.0,143.0
42.0,-260.0,-1.0,-19.0,38.0,-16.0,75.0,-992.0,148.0
40.0,-257.0,1.0,-20.0,44.0,-16.0,74.0,-992.0,147.0
40.0,-258.0,-1.0,-23.0,47.0,-15.0,79.0,-995.0,146.0
41.0,-259.0,0.0,-24.0,48.0,-16.0,75.0,-994.0,149.0
41.0,-259.0,0.0,-26.0,48.0,-14.0,73.0,-995.0,149.0
40.0,-261.0,-5.0,-31.0,49.0,-12.0,75.0,-993.0,149.0
42.0,-260.0,0.0,-33.0,48.0,-12.0,76.0,-992.0,149.0
40.0,-258.0,-3.0,-30.0,49.0,-12.0,73.0,-991.0,150.0
41.0,-263.0,0.0,-26.0,48.0,-13.0,74.0,-992.0,154.0
42.0,-259.0,0.0,-21.0,50.0,-15.0,74.0,-995.0,158.0
42.0,-262.0,4.0,-14.0,48.0,-15.0,77.0,-992.0,155.0
44.0,-258.0,-11.0,-8.0,50.0,-18.0,75.0,-995.0,156.0
48.0,-262.0,1.0,-2.0,51.0,-19.0,75.0,-995.0,159.0
39.0,-260.0,1.0,5.0,51.0,-20.0,78.0,-994.0,159.0
41.0,-260.0,0.0,10.0,53.0,-20.0,76.0,-990.0,154.0
42.0,-258.0,1.0,14.0,53.0,-19.0,73.0,-994.0,156.0
39.0,-258.0,0.0,17.0,54.0,-18.0,75.0,-994.0,152.0
41.0,-259.0,-1.0,18.0,52.0,-18.0,75.0,-988.0,153.0
41.0,-257.0,0.0,18.0,49.0,-15.0,77.0,-989.0,149.0
43.0,-257.0,0.0,17.0,48.0,-14.0,73.0,-990.0,143.0
37.0,-256.0,-3.0,15.0,44.0,-11.0,74.0,-981.0,143.0
39.0,-255.0,0.0,11.0,43.0,-8.0,72.0,-979.0,142.0
48.0,-260.0,-2.0,5.0,41.0,-6.0,72.0,-982.0,137.0
38.0,-256.0,-5.0,1.0,39.0,-4.0,65.0,-977.0,140.0
37.0,-256.0,0.0,-3.0,38.0,-3.0,73.0,-983.0,142.0
43.0,-256.0,0.0,-6.0,38.0,-1.0,74.0,-981.0,146.0
43.0,-258.0,-1.0,-7.0,38.0,-2.0,79.0,-970.0,143.0
43.0,-256.0,-2.0,-7.0,38.0,-2.0,71.0,-982.0,146.0
43.0,-257.0,0.0,-5.0,39.0,-4.0,76.0,-977.0,154.0
46.0,-258.0,2.0,-1.0,38.0,-5.0,75.0,-983.0,153.0
39.0,-254.0,-1.0,-1.0,39.0,-4.0,77.0,-992.0,152.0
40.0,-257.0,1.0,2.0,40.0,-5.0,75.0,-986.0,158.0
43.0,-260.0,-2.0,5.0,40.0,-7.0,78.0,-992.0,158.0
38.0,-261.0,3.0,10.0,40.0,-7.0,78.0,-990.0,154.0
41.0,-259.0,1.0,13.0,41.0,-9.0,73.0,-991.0,158.0
40.0,-257.0,0.0,17.0,40.0,-9.0,72.0,-992.0,158.0
40.0,-256.0,2.0,17.0,40.0,-10.0,73.0,-988.0,157.0
41.0,-257.0,4.0,16.0,41.0,-11.0,73.0,-990.0,163.0
42.0,-260.0,0.0,13.0,41.0,-10.0,78.0,-990.0,155.0
40.0,-257.0,0.0,10.0,40.0,-9.0,73.0,-988.0,156.0
41.0,-259.0,2.0,4.0,40.0,-10.0,76.0,-989.0,160.0
39.0,-256.0,0.0,0.0,37.0,-9.0,74.0,-990.0,158.0
37.0,-257.0,4.0,-9.0,32.0,-9.0,74.0,-986.0,157.0
41.0,-258.0,-2.0,-13.0,27.0,-7.0,75.0,-985.0,152.0
40.0,-260.0,-4.0,-21.0,22.0,-7.0,75.0,-985.0,158.0
40.0,-258.0,-1.0,-23.0,17.0,-7.0,73.0,-988.0,150.0
41.0,-258.0,-2.0,-26.0,13.0,-7.0,73.0,-990.0,151.0
41.0,-257.0,0.0,-28.0,12.0,-7.0,77.0,-985.0,150.0
41.0,-257.0,-2.0,-29.0,11.0,-7.0,76.0,-987.0,151.0
38.0,-259.0,1.0,-30.0,11.0,-8.0,76.0,-988.0,157.0
40.0,-257.0,1.0,-30.0,13.0,-11.0,79.0,-990.0,155.0
37.0,-258.0,2.0,-27.0,17.0,-10.0,76.0,-990.0,156.0
37.0,-257.0,-1.0,-23.0,20.0,-11.0,74.0,-985.0,151.0
39.0,-258.0,1.0,-19.0,24.0,-12.0,72.0,-984.0,161.0
39.0,-257.0,3.0,-14.0,27.0,-13.0,74.0,-990.0,159.0
40.0,-256.0,5.0,-7.0,30.0,-12.0,71.0,-988.0,161.0
39.0,-258.0,2.0,-6.0,30.0,-12.0,69.0,-988.0,162.0
40.0,-258.0,3.0,-5.0,31.0,-13.0,70.0,-987.0,161.0
42.0,-259.0,1.0,-7.0,31.0,-14.0,67.0,-988.0,163.0
38.0,-258.0,2.0,-10.0,31.0,-13.0,68.0,-988.0,160.0
39.0,-255.0,2.0,-14.0,31.0,-10.0,71.0,-988.0,167.0
42.0,-256.0,2.0,-14.0,31.0,-8.0,82.0,-979.0,165.0
40.0,-254.0,0.0,-15.0,27.0,-7.0,79.0,-980.0,168.0
43.0,-256.0,0.0,-16.0,21.0,-3.0,82.0,-982.0,164.0
40.0,-255.0,6.0,-15.0,16.0,0.0,82.0,-982.0,166.0
40.0,-256.0,4.0,-12.0,10.0,1.0,80.0,-980.0,165.0
47.0,-259.0,8.0,-11.0,5.0,2.0,77.0,-979.0,160.0
39.0,-257.0,3.0,-9.0,0.0,0.0,81.0,-987.0,163.0
39.0,-259.0,1.0,-8.0,-1.0,0.0,76.0,-987.0,169.0
43.0,-257.0,4.0,-6.0,-3.0,-4.0,76.0,-991.0,168.0
39.0,-257.0,4.0,-3.0,-3.0,-5.0,75.0,-991.0,169.0
39.0,-257.0,5.0,2.0,-3.0,-6.0,80.0,-990.0,168.0
39.0,-257.0,2.0,10.0,-3.0,-6.0,76.0,-993.0,166.0
41.0,-260.0,0.0,16.0,-4.0,-6.0,80.0,-983.0,165.0
40.0,-257.0,1.0,23.0,-5.0,-6.0,76.0,-989.0,163.0
40.0,-255.0,3.0,27.0,-8.0,-5.0,84.0,-986.0,161.0
39.0,-260.0,2.0,27.0,-8.0,-1.0,76.0,-983.0,167.0
42.0,-259.0,2.0,25.0,-8.0,-2.0,76.0,-989.0,166.0
40.0,-257.0,3.0,20.0,-8.0,1.0,77.0,-985.0,169.0
38.0,-254.0,3.0,10.0,-7.0,1.0,76.0,-979.0,171.0
39.0,-252.0,7.0,4.0,-4.0,1.0,75.0,-980.0,173.0
43.0,-257.0,5.0,-5.0,0.0,1.0,78.0,-982.0,175.0
41.0,-254.0,5.0,-12.0,5.0,-1.0,80.0,-973.0,172.0
42.0,-258.0,5.0,-17.0,11.0,-2.0,83.0,-975.0,175.0
38.0,-251.0,5.0,-22.0,16.0,-4.0,84.0,-972.0,171.0
40.0,-255.0,4.0,-24.0,23.0,-7.0,79.0,-984.0,177.0
44.0,-254.0,3.0,-30.0,28.0,-8.0,82.0,-978.0,176.0
43.0,-254.0,5.0,-32.0,33.0,-10.0,80.0,-976.0,170.0
38.0,-263.0,4.0,-35.0,37.0,-10.0,78.0,-977.0,171.0
43.0,-259.0,2.0,-36.0,38.0,-11.0,81.0,-976.0,173.0
45.0,-261.0,4.0,-36.0,39.0,-12.0,84.0,-980.0,170.0
44.0,-257.0,1.0,-37.0,40.0,-11.0,83.0,-981.0,172.0
44.0,-256.0,7.0,-37.0,37.0,-11.0,85.0,-981.0,176.0
43.0,-257.0,3.0,-39.0,36.0,-10.0,85.0,-981.0,167.0
43.0,-256.0,4.0,-37.0,33.0,-10.0,87.0,-977.0,175.0
40.0,-256.0,4.0,-36.0,30.0,-13.0,82.0,-982.0,170.0
41.0,-257.0,2.0,-35.0,26.0,-12.0,84.0,-982.0,170.0
42.0,-257.0,0.0,-35.0,24.0,-11.0,87.0,-985.0,165.0
44.0,-255.0,2.0,-36.0,24.0,-11.0,82.0,-978.0,164.0
45.0,-259.0,0.0,-35.0,25.0,-11.0,82.0,-983.0,162.0
43.0,-256.0,1.0,-35.0,27.0,-9.0,89.0,-988.0,167.0
43.0,-258.0,1.0,-36.0,28.0,-8.0,85.0,-980.0,167.0
46.0,-258.0,2.0,-32.0,32.0,-8.0,84.0,-989.0,169.0
47.0,-258.0,5.0,-30.0,35.0,-8.0,87.0,-984.0,171.0
43.0,-257.0,4.0,-25.0,35.0,-9.0,84.0,-985.0,171.0
40.0,-257.0,5.0,-21.0,37.0,-7.0,87.0,-979.0,173.0
40.0,-255.0,5.0,-15.0,38.0,-6.0,87.0,-987.0,172.0
42.0,-255.0,5.0,-14.0,38.0,-5.0,86.0,-980.0,178.0
43.0,-257.0,7.0,-15.0,38.0,-5.0,79.0,-982.0,181.0
41.0,-264.0,13.0,-19.0,38.0,-3.0,82.0,-981.0,178.0
38.0,-253.0,7.0,-23.0,38.0,-2.0,81.0,-977.0,182.0
43.0,-255.0,8.0,-29.0,36.0,-1.0,79.0,-977.0,182.0
40.0,-254.0,7.0,-33.0,33.0,0.0,78.0,-975.0,181.0
38.0,-255.0,7.0,-38.0,33.0,2.0,76.0,-974.0,187.0
39.0,-254.0,6.0,-40.0,33.0,3.0,69.0,-977.0,185.0
37.0,-255.0,8.0,-42.0,31.0,3.0,71.0,-974.0,182.0
38.0,-254.0,7.0,-44.0,32.0,3.0,70.0,-972.0,180.0
42.0,-256.0,8.0,-48.0,32.0,3.0,63.0,-978.0,183.0
38.0,-256.0,6.0,-54.0,32.0,5.0,67.0,-976.0,178.0
40.0,-255.0,8.0,-56.0,31.0,4.0,64.0,-977.0,176.0
37.0,-252.0,11.0,-61.0,28.0,4.0,66.0,-976.0,176.0
38.0,-256.0,5.0,-65.0,27.0,3.0,69.0,-980.0,174.0
36.0,-255.0,2.0,-68.0,24.0,3.0,74.0,-978.0,174.0
37.0,-254.0,1.0,-71.0,21.0,2.0,68.0,-982.0,169.0
39.0,-254.0,4.0,-74.0,18.0,0.0,65.0,-979.0,168.0
39.0,-256.0,2.0,-78.0,15.0,-1.0,67.0,-973.0,167.0
42.0,-257.0,2.0,-82.0,13.0,1.0,69.0,-981.0,164.0
38.0,-256.0,3.0,-86.0,10.0,2.0,71.0,-986.0,168.0
40.0,-256.0,4.0,-88.0,8.0,5.0,73.0,-983.0,156.0
41.0,-258.0,1.0,-88.0,6.0,6.0,73.0,-984.0,161.0
41.0,-258.0,4.0,-88.0,4.0,6.0,76.0,-987.0,162.0
40.0,-258.0,7.0,-87.0,4.0,8.0,73.0,-991.0,164.0
43.0,-259.0,2.0,-87.0,5.0,7.0,73.0,-992.0,160.0
42.0,-257.0,1.0,-84.0,5.0,7.0,77.0,-994.0,163.0
38.0,-259.0,1.0,-82.0,7.0,6.0,79.0,-999.0,164.0
44.0,-259.0,2.0,-77.0,7.0,6.0,79.0,-995.0,166.0
43.0,-261.0,2.0,-73.0,7.0,6.0,71.0,-998.0,165.0
40.0,-260.0,3.0,-67.0,6.0,5.0,75.0,-996.0,168.0
42.0,-260.0,3.0,-62.0,5.0,3.0,82.0,-996.0,162.0
42.0,-258.0,3.0,-54.0,2.0,4.0,77.0,-994.0,167.0
40.0,-258.0,0.0,-49.0,0.0,2.0,74.0,-994.0,165.0
38.0,-261.0,7.0,-40.0,-3.0,0.0,74.0,-994.0,161.0
43.0,-256.0,0.0,-32.0,-4.0,2.0,78.0,-991.0,166.0
39.0,-258.0,1.0,-29.0,-4.0,3.0,80.0,-993.0,165.0
38.0,-257.0,2.0,-26.0,-4.0,5.0,79.0,-990.0,169.0
43.0,-257.0,3.0,-25.0,-3.0,5.0,77.0,-985.0,166.0
45.0,-258.0,3.0,-24.0,1.0,6.0,81.0,-984.0,172.0
42.0,-256.0,4.0,-22.0,3.0,6.0,78.0,-981.0,167.0
42.0,-256.0,2.0,-21.0,4.0,6.0,78.0,-977.0,163.0
41.0,-254.0,3.0,-23.0,6.0,7.0,84.0,-980.0,167.0
40.0,-256.0,2.0,-25.0,6.0,6.0,80.0,-982.0,165.0
39.0,-256.0,4.0,-26.0,7.0,5.0,81.0,-982.0,167.0
37.0,-254.0,0.0,-29.0,6.0,4.0,78.0,-979.0,171.0
47.0,-256.0,7.0,-31.0,5.0,3.0,76.0,-980.0,171.0
41.0,-258.0,4.0,-28.0,5.0,3.0,75.0,-982.0,169.0
38.0,-258.0,3.0,-23.0,4.0,0.0,74.0,-989.0,167.0
41.0,-256.0,1.0,-18.0,4.0,-2.0,74.0,-987.0,170.0
39.0,-256.0,2.0,-13.0,2.0,-4.0,74.0,-989.0,170.0
40.0,-258.0,2.0,-8.0,4.0,-6.0,77.0,-989.0,168.0
39.0,-256.0,3.0,-6.0,7.0,-8.0,73.0,-986.0,170.0
38.0,-258.0,2.0,-6.0,11.0,-10.0,75.0,-987.0,169.0
42.0,-258.0,6.0,-7.0,15.0,-11.0,73.0,-989.0,173.0
39.0,-256.0,5.0,-7.0,20.0,-11.0,69.0,-986.0,175.0
33.0,-255.0,5.0,-8.0,26.0,-11.0,73.0,-985.0,170.0
38.0,-257.0,7.0,-9.0,28.0,-10.0,71.0,-985.0,172.0
39.0,-257.0,5.0,-12.0,34.0,-12.0,66.0,-984.0,173.0
38.0,-256.0,6.0,-13.0,35.0,-12.0,72.0,-988.0,175.0
37.0,-257.0,3.0,-17.0,38.0,-12.0,74.0,-978.0,170.0
41.0,-257.0,2.0,-20.0,39.0,-11.0,72.0,-982.0,171.0
39.0,-257.0,7.0,-21.0,38.0,-9.0,77.0,-974.0,176.0
41.0,-256.0,4.0,-22.0,35.0,-9.0,79.0,-979.0,169.0
41.0,-257.0,7.0,-24.0,32.0,-7.0,80.0,-983.0,178.0
38.0,-256.0,2.0,-23.0,29.0,-7.0,77.0,-982.0,173.0
41.0,-255.0,1.0,-24.0,26.0,-7.0,76.0,-986.0,172.0
40.0,-256.0,3.0,-26.0,25.0,-6.0,74.0,-984.0,171.0
40.0,-256.0,8.0,-29.0,21.0,-6.0,75.0,-985.0,172.0
41.0,-256.0,5.0,-31.0,19.0,-6.0,75.0,-988.0,167.0
41.0,-257.0,5.0,-35.0,17.0,-5.0,70.0,-984.0,167.0
42.0,-257.0,3.0,-37.0,15.0,-6.0,71.0,-987.0,162.0
41.0,-256.0,3.0,-36.0,15.0,-5.0,71.0,-978.0,161.0
40.0,-256.0,0.0,-36.0,13.0,-3.0,71.0,-983.0,158.0
37.0,-257.0,2.0,-35.0,10.0,-5.0,77.0,-982.0,155.0
41.0,-258.0,1.0,-32.0,9.0,-6.0,79.0,-980.0,155.0
40.0,-256.0,0.0,-35.0,9.0,-7.0,80.0,-984.0,160.0
42.0,-256.0,1.0,-38.0,9.0,-8.0,73.0,-982.0,164.0
44.0,-257.0,5.0,-40.0,9.0,-6.0,77.0,-983.0,168.0
42.0,-257.0,4.0,-43.0,12.0,-5.0,80.0,-980.0,172.0
41.0,-255.0,8.0,-43.0,14.0,-8.0,76.0,-980.0,172.0
40.0,-257.0,6.0,-43.0,19.0,-8.0,76.0,-981.0,177.0
41.0,-256.0,6.0,-42.0,22.0,-9.0,77.0,-985.0,183.0
41.0,-257.0,9.0,-39.0,30.0,-9.0,77.0,-985.0,187.0
39.0,-256.0,9.0,-39.0,33.0,-11.0,73.0,-982.0,185.0
40.0,-258.0,8.0,-39.0,36.0,-11.0,74.0,-982.0,185.0
38.0,-256.0,9.0,-42.0,40.0,-12.0,75.0,-986.0,188.0
40.0,-255.0,10.0,-45.0,40.0,-11.0,71.0,-981.0,186.0
40.0,-257.0,10.0,-45.0,39.0,-9.0,75.0,-972.0,188.0
42.0,-257.0,5.0,-48.0,38.0,-9.0,79.0,-982.0,181.0
39.0,-257.0,3.0,-51.0,36.0,-9.0,77.0,-979.0,182.0
42.0,-257.0,3.0,-54.0,32.0,-9.0,78.0,-981.0,177.0
40.0,-255.0,6.0,-55.0,28.0,-9.0,74.0,-975.0,173.0
40.0,-255.0,5.0,-57.0,25.0,-11.0,74.0,-986.0,170.0
41.0,-256.0,5.0,-59.0,22.0,-9.0,78.0,-982.0,168.0
40.0,-255.0,2.0,-61.0,20.0,-9.0,74.0,-982.0,167.0
41.0,-257.0,3.0,-61.0,20.0,-8.0,77.0,-979.0,165.0
38.0,-257.0,3.0,-61.0,20.0,-7.0,77.0,-982.0,163.0
39.0,-257.0,4.0,-63.0,20.0,-7.0,76.0,-985.0,163.0
41.0,-258.0,0.0,-65.0,19.0,-7.0,75.0,-983.0,154.0
37.0,-261.0,8.0,-65.0,21.0,-3.0,73.0,-978.0,163.0
40.0,-257.0,4.0,-61.0,23.0,-4.0,70.0,-984.0,162.0
39.0,-256.0,1.0,-56.0,25.0,-5.0,75.0,-984.0,166.0
38.0,-258.0,2.0,-50.0,28.0,-6.0,77.0,-986.0,165.0
41.0,-256.0,1.0,-44.0,28.0,-7.0,76.0,-986.0,168.0
41.0,-258.0,4.0,-40.0,28.0,-8.0,78.0,-983.0,170.0
42.0,-255.0,3.0,-38.0,29.0,-9.0,75.0,-991.0,170.0
40.0,-256.0,3.0,-36.0,26.0,-10.0,78.0,-983.0,177.0
41.0,-256.0,4.0,-37.0,25.0,-10.0,78.0,-983.0,175.0
39.0,-257.0,4.0,-37.0,22.0,-9.0,78.0,-987.0,175.0
41.0,-255.0,6.0,-36.0,18.0,-10.0,75.0,-986.0,176.0
47.0,-256.0,10.0,-38.0,17.0,-7.0,75.0,-988.0,179.0
43.0,-257.0,6.0,-39.0,18.0,-6.0,78.0,-988.0,175.0
38.0,-255.0,9.0,-39.0,17.0,-5.0,76.0,-988.0,183.0
43.0,-257.0,5.0,-36.0,16.0,-4.0,78.0,-992.0,178.0
42.0,-259.0,3.0,-35.0,16.0,-4.0,76.0,-991.0,180.0
41.0,-258.0,6.0,-33.0,16.0,-6.0,75.0,-986.0,177.0
42.0,-259.0,6.0,-31.0,14.0,-9.0,76.0,-984.0,179.0
45.0,-258.0,2.0,-32.0,13.0,-7.0,74.0,-989.0,173.0
40.0,-258.0,5.0,-34.0,12.0,-7.0,75.0,-983.0,172.0
41.0,-257.0,2.0,-37.0,11.0,-8.0,73.0,-984.0,172.0
42.0,-256.0,5.0,-39.0,11.0,-7.0,76.0,-977.0,163.0
48.0,-256.0,0.0,-41.0,12.0,-8.0,75.0,-980.0,170.0
41.0,-258.0,1.0,-43.0,16.0,-7.0,74.0,-972.0,168.0
40.0,-256.0,1.0,-45.0,16.0,-9.0,72.0,-979.0,166.0
40.0,-257.0,1.0,-46.0,16.0,-8.0,75.0,-983.0,168.0
39.0,-257.0,2.0,-47.0,17.0,-8.0,75.0,-979.0,162.0
41.0,-255.0,-1.0,-45.0,18.0,-8.0,75.0,-977.0,166.0
39.0,-258.0,2.0,-48.0,20.0,-9.0,69.0,-976.0,166.0
36.0,-255.0,1.0,-51.0,21.0,-8.0,74.0,-980.0,166.0
44.0,-258.0,5.0,-52.0,23.0,-8.0,72.0,-979.0,170.0
39.0,-258.0,2.0,-54.0,24.0,-7.0,73.0,-982.0,173.0
40.0,-257.0,7.0,-54.0,25.0,-9.0,73.0,-979.0,171.0
34.0,-257.0,5.0,-53.0,25.0,-9.0,75.0,-983.0,178.0
41.0,-256.0,4.0,-52.0,25.0,-10.0,72.0,-980.0,176.0
40.0,-257.0,6.0,-49.0,25.0,-10.0,77.0,-981.0,179.0
42.0,-256.0,6.0,-48.0,24.0,-11.0,74.0,-979.0,180.0
40.0,-256.0,5.0,-47.0,23.0,-13.0,77.0,-976.0,181.0
40.0,-256.0,5.0,-46.0,23.0,-14.0,77.0,-992.0,179.0
42.0,-257.0,3.0,-48.0,22.0,-14.0,76.0,-986.0,177.0
41.0,-256.0,5.0,-48.0,19.0,-14.0,73.0,-989.0,181.0
40.0,-257.0,6.0,-50.0,18.0,-12.0,77.0,-985.0,173.0
43.0,-257.0,4.0,-52.0,16.0,-12.0,71.0,-988.0,172.0
45.0,-257.0,2.0,-55.0,13.0,-10.0,75.0,-986.0,172.0
39.0,-258.0,3.0,-56.0,12.0,-10.0,71.0,-985.0,172.0
41.0,-258.0,7.0,-56.0,11.0,-8.0,74.0,-984.0,169.0
43.0,-258.0,2.0,-56.0,11.0,-7.0,75.0,-988.0,166.0
41.0,-256.0,2.0,-54.0,12.0,-8.0,73.0,-986.0,167.0
39.0,-256.0,0.0,-52.0,15.0,-9.0,76.0,-985.0,170.0
40.0,-257.0,3.0,-49.0,16.0,-10.0,72.0,-987.0,167.0
42.0,-257.0,5.0,-43.0,21.0,-10.0,80.0,-986.0,171.0
40.0,-257.0,2.0,-41.0,24.0,-12.0,74.0,-988.0,172.0
40.0,-254.0,7.0,-37.0,28.0,-11.0,74.0,-986.0,171.0
42.0,-258.0,3.0,-34.0,29.0,-14.0,71.0,-983.0,172.0
42.0,-257.0,3.0,-30.0,30.0,-14.0,71.0,-977.0,178.0
36.0,-255.0,6.0,-31.0,31.0,-14.0,73.0,-982.0,171.0
39.0,-256.0,2.0,-32.0,29.0,-13.0,75.0,-981.0,168.0
42.0,-256.0,4.0,-36.0,28.0,-13.0,75.0,-979.0,171.0
41.0,-256.0,2.0,-40.0,25.0,-11.0,77.0,-981.0,170.0
39.0,-255.0,3.0,-45.0,22.0,-9.0,76.0,-977.0,171.0
42.0,-256.0,2.0,-50.0,18.0,-8.0,74.0,-976.0,170.0
39.0,-256.0,2.0,-51.0,17.0,-10.0,73.0,-981.0,173.0
38.0,-257.0,3.0,-55.0,16.0,-9.0,75.0,-981.0,172.0
42.0,-256.0,4.0,-58.0,16.0,-8.0,72.0,-978.0,173.0
42.0,-255.0,2.0,-60.0,16.0,-9.0,75.0,-983.0,176.0
39.0,-257.0,0.0,-63.0,18.0,-10.0,74.0,-984.0,171.0
36.0,-257.0,2.0,-67.0,20.0,-10.0,75.0,-984.0,170.0
39.0,-258.0,2.0,-72.0,23.0,-10.0,75.0,-985.0,174.0
44.0,-258.0,8.0,-73.0,27.0,-12.0,75.0,-982.0,178.0
41.0,-257.0,2.0,-74.0,31.0,-11.0,68.0,-982.0,177.0
39.0,-256.0,3.0,-73.0,34.0,-14.0,76.0,-985.0,179.0
39.0,-256.0,6.0,-70.0,38.0,-12.0,74.0,-989.0,182.0
43.0,-258.0,9.0,-68.0,37.0,-12.0,76.0,-984.0,175.0
40.0,-258.0,6.0,-64.0,37.0,-11.0,74.0,-987.0,176.0
43.0,-258.0,9.0,-58.0,34.0,-10.0,77.0,-987.0,172.0
41.0,-260.0,4.0,-53.0,31.0,-8.0,78.0,-989.0,168.0
40.0,-257.0,1.0,-50.0,28.0,-7.0,80.0,-986.0,164.0
45.0,-257.0,4.0,-48.0,23.0,-7.0,85.0,-993.0,166.0
40.0,-260.0,2.0,-46.0,19.0,-9.0,74.0,-993.0,160.0
42.0,-259.0,2.0,-45.0,15.0,-8.0,77.0,-993.0,163.0
42.0,-262.0,2.0,-42.0,12.0,-10.0,79.0,-990.0,160.0
39.0,-257.0,0.0,-39.0,10.0,-11.0,79.0,-990.0,160.0
40.0,-257.0,3.0,-37.0,10.0,-12.0,81.0,-990.0,163.0
41.0,-257.0,2.0,-34.0,7.0,-11.0,84.0,-988.0,159.0
40.0,-255.0,0.0,-32.0,7.0,-11.0,85.0,-988.0,159.0
41.0,-258.0,1.0,-30.0,7.0,-11.0,84.0,-984.0,162.0
44.0,-256.0,1.0,-27.0,6.0,-9.0,86.0,-985.0,158.0
44.0,-256.0,4.0,-27.0,6.0,-7.0,85.0,-986.0,162.0
47.0,-255.0,1.0,-24.0,5.0,-7.0,83.0,-985.0,162.0
43.0,-256.0,0.0,-22.0,5.0,-7.0,82.0,-989.0,166.0
41.0,-256.0,0.0,-23.0,4.0,-7.0,81.0,-983.0,170.0
42.0,-256.0,4.0,-23.0,3.0,-7.0,79.0,-977.0,170.0
41.0,-255.0,4.0,-26.0,5.0,-6.0,80.0,-978.0,174.0
40.0,-257.0,7.0,-28.0,9.0,-8.0,76.0,-985.0,180.0
37.0,-256.0,6.0,-32.0,15.0,-9.0,75.0,-983.0,183.0
40.0,-257.0,8.0,-33.0,18.0,-11.0,76.0,-977.0,187.0
40.0,-255.0,7.0,-34.0,22.0,-11.0,74.0,-985.0,184.0
42.0,-257.0,9.0,-37.0,26.0,-12.0,72.0,-982.0,186.0
38.0,-257.0,10.0,-39.0,27.0,-13.0,74.0,-975.0,184.0
42.0,-255.0,8.0,-43.0,27.0,-14.0,76.0,-977.0,180.0
39.0,-254.0,7.0,-47.0,26.0,-14.0,77.0,-971.0,181.0
42.0,-254.0,5.0,-50.0,25.0,-12.0,72.0,-975.0,175.0
43.0,-257.0,5.0,-50.0,21.0,-12.0,82.0,-976.0,176.0
36.0,-255.0,6.0,-51.0,18.0,-10.0,76.0,-982.0,175.0
42.0,-258.0,3.0,-50.0,16.0,-10.0,80.0,-977.0,176.0
41.0,-256.0,3.0,-51.0,15.0,-9.0,81.0,-975.0,170.0
42.0,-262.0,3.0,-50.0,14.0,-10.0,85.0,-984.0,168.0
43.0,-257.0,4.0,-52.0,15.0,-9.0,75.0,-982.0,170.0
41.0,-261.0,2.0,-50.0,15.0,-10.0,78.0,-987.0,166.0
42.0,-262.0,1.0,-50.0,17.0,-9.0,76.0,-984.0,168.0
41.0,-256.0,1.0,-50.0,19.0,-7.0,78.0,-986.0,170.0
43.0,-259.0,0.0,-47.0,19.0,-8.0,75.0,-981.0,160.0
43.0,-258.0,2.0,-46.0,23.0,-7.0,75.0,-988.0,165.0
41.0,-258.0,2.0,-42.0,24.0,-7.0,79.0,-991.0,167.0
39.0,-256.0,3.0,-39.0,24.0,-8.0,74.0,-987.0,161.0
39.0,-257.0,2.0,-35.0,25.0,-9.0,71.0,-986.0,159.0
41.0,-257.0,6.0,-33.0,26.0,-8.0,72.0,-984.0,164.0
42.0,-257.0,-1.0,-30.0,25.0,-8.0,75.0,-982.0,161.0
37.0,-256.0,1.0,-30.0,24.0,-9.0,74.0,-989.0,163.0
42.0,-258.0,1.0,-33.0,22.0,-9.0,80.0,-977.0,161.0
43.0,-258.0,4.0,-38.0,21.0,-9.0,75.0,-978.0,165.0
38.0,-256.0,1.0,-41.0,17.0,-10.0,73.0,-978.0,160.0
41.0,-255.0,1.0,-47.0,14.0,-9.0,79.0,-977.0,167.0
40.0,-256.0,2.0,-52.0,13.0,-8.0,80.0,-981.0,169.0
43.0,-256.0,3.0,-56.0,11.0,-8.0,80.0,-983.0,169.0
41.0,-258.0,4.0,-55.0,9.0,-7.0,82.0,-980.0,171.0
43.0,-257.0,4.0,-51.0,9.0,-7.0,77.0,-984.0,178.0
45.0,-258.0,6.0,-51.0,11.0,-8.0,78.0,-981.0,177.0
44.0,-253.0,10.0,-53.0,12.0,-6.0,81.0,-987.0,174.0
40.0,-257.0,3.0,-56.0,15.0,-9.0,77.0,-986.0,177.0
41.0,-257.0,4.0,-60.0,15.0,-8.0,71.0,-987.0,180.0
43.0,-257.0,15.0,-61.0,17.0,-9.0,73.0,-985.0,183.0
39.0,-257.0,5.0,-61.0,19.0,-9.0,77.0,-988.0,179.0
37.0,-255.0,5.0,-57.0,21.0,-9.0,77.0,-992.0,182.0
40.0,-257.0,4.0,-52.0,22.0,-10.0,77.0,-982.0,180.0
40.0,-259.0,4.0,-50.0,22.0,-9.0,74.0,-989.0,179.0
41.0,-258.0,5.0,-48.0,21.0,-9.0,78.0,-983.0,175.0
44.0,-258.0,5.0,-45.0,20.0,-8.0,75.0,-987.0,168.0
38.0,-254.0,1.0,-42.0,20.0,-7.0,74.0,-983.0,168.0
41.0,-257.0,5.0,-38.0,19.0,-7.0,75.0,-983.0,166.0
41.0,-255.0,9.0,-34.0,20.0,-7.0,79.0,-980.0,168.0
39.0,-256.0,2.0,-31.0,19.0,-6.0,75.0,-989.0,165.0
41.0,-257.0,1.0,-27.0,19.0,-7.0,78.0,-985.0,163.0
39.0,-256.0,1.0,-25.0,20.0,-7.0,74.0,-982.0,164.0
40.0,-257.0,0.0,-22.0,19.0,-7.0,80.0,-988.0,166.0
40.0,-257.0,-2.0,-23.0,20.0,-6.0,74.0,-987.0,172.0
44.0,-256.0,2.0,-24.0,21.0,-5.0,83.0,-981.0,171.0
44.0,-256.0,5.0,-25.0,20.0,-6.0,79.0,-983.0,171.0
40.0,-257.0,4.0,-27.0,17.0,-6.0,81.0,-978.0,175.0
44.0,-257.0,0.0,-29.0,15.0,-5.0,77.0,-977.0,171.0
39.0,-257.0,5.0,-33.0,13.0,-6.0,80.0,-981.0,175.0
41.0,-253.0,5.0,-38.0,13.0,-7.0,79.0,-973.0,179.0
43.0,-256.0,8.0,-41.0,13.0,-8.0,80.0,-981.0,181.0
40.0,-256.0,6.0,-44.0,12.0,-10.0,79.0,-981.0,185.0
41.0,-257.0,6.0,-48.0,14.0,-9.0,76.0,-976.0,182.0
39.0,-254.0,3.0,-53.0,13.0,-10.0,81.0,-981.0,183.0
41.0,-256.0,4.0,-58.0,13.0,-9.0,76.0,-973.0,185.0
43.0,-257.0,6.0,-63.0,14.0,-7.0,74.0,-972.0,180.0
41.0,-256.0,7.0,-69.0,15.0,-5.0,75.0,-975.0,174.0
40.0,-256.0,3.0,-72.0,14.0,-4.0,75.0,-975.0,174.0
41.0,-256.0,2.0,-78.0,14.0,-4.0,75.0,-982.0,175.0
41.0,-256.0,4.0,-83.0,15.0,-4.0,77.0,-980.0,170.0
43.0,-257.0,2.0,-85.0,17.0,-4.0,74.0,-986.0,168.0
41.0,-258.0,0.0,-84.0,16.0,-5.0,75.0,-985.0,169.0
32.0,-259.0,2.0,-86.0,16.0,-6.0,74.0,-987.0,166.0
41.0,-257.0,6.0,-82.0,16.0,-6.0,75.0,-991.0,167.0
40.0,-260.0,1.0,-76.0,16.0,-6.0,77.0,-993.0,166.0
42.0,-260.0,-1.0,-69.0,16.0,-7.0,73.0,-990.0,159.0
40.0,-259.0,0.0,-60.0,13.0,-7.0,78.0,-990.0,169.0
42.0,-258.0,2.0,-52.0,11.0,-8.0,72.0,-995.0,161.0
39.0,-259.0,0.0,-44.0,8.0,-9.0,76.0,-985.0,168.0
41.0,-257.0,3.0,-41.0,6.0,-9.0,76.0,-994.0,158.0
40.0,-257.0,5.0,-38.0,6.0,-9.0,79.0,-988.0,164.0
39.0,-257.0,2.0,-37.0,6.0,-9.0,78.0,-986.0,164.0
41.0,-257.0,2.0,-37.0,7.0,-11.0,76.0,-985.0,162.0
41.0,-260.0,-1.0,-38.0,6.0,-11.0,77.0,-983.0,165.0
45.0,-259.0,4.0,-40.0,8.0,-10.0,77.0,-983.0,163.0
42.0,-255.0,0.0,-42.0,8.0,-9.0,79.0,-986.0,167.0
39.0,-256.0,4.0,-43.0,7.0,-8.0,81.0,-983.0,169.0
42.0,-256.0,2.0,-41.0,8.0,-8.0,79.0,-984.0,170.0
42.0,-256.0,6.0,-41.0,9.0,-8.0,78.0,-987.0,171.0
40.0,-256.0,5.0,-38.0,8.0,-9.0,83.0,-987.0,173.0
41.0,-256.0,2.0,-39.0,7.0,-6.0,76.0,-979.0,172.0
42.0,-255.0,4.0,-40.0,2.0,-6.0,76.0,-981.0,171.0
39.0,-256.0,1.0,-45.0,1.0,-5.0,78.0,-981.0,170.0
40.0,-254.0,5.0,-51.0,0.0,-4.0,76.0,-980.0,173.0
40.0,-257.0,4.0,-59.0,-1.0,-3.0,79.0,-977.0,170.0
36.0,-257.0,1.0,-68.0,1.0,-4.0,75.0,-973.0,171.0
39.0,-255.0,2.0,-75.0,4.0,-4.0,70.0,-977.0,168.0
38.0,-256.0,1.0,-84.0,6.0,-5.0,69.0,-978.0,173.0
42.0,-260.0,3.0,-91.0,8.0,-4.0,69.0,-982.0,172.0
38.0,-257.0,2.0,-96.0,13.0,-5.0,74.0,-983.0,167.0
38.0,-256.0,0.0,-96.0,17.0,-6.0,69.0,-987.0,165.0
38.0,-258.0,2.0,-96.0,21.0,-7.0,75.0,-984.0,167.0
37.0,-259.0,3.0,-89.0,25.0,-7.0,73.0,-985.0,168.0
38.0,-257.0,6.0,-81.0,24.0,-5.0,79.0,-989.0,168.0
44.0,-257.0,4.0,-73.0,21.0,-3.0,76.0,-985.0,169.0
38.0,-255.0,1.0,-61.0,17.0,-2.0,83.0,-986.0,169.0
40.0,-256.0,2.0,-53.0,11.0,-2.0,83.0,-981.0,167.0
44.0,-257.0,2.0,-47.0,5.0,-1.0,87.0,-981.0,164.0
42.0,-256.0,1.0,-43.0,2.0,-2.0,81.0,-984.0,164.0
40.0,-258.0,3.0,-40.0,-2.0,-2.0,78.0,-986.0,170.0
42.0,-257.0,3.0,-36.0,-4.0,-3.0,81.0,-982.0,175.0
44.0,-257.0,7.0,-34.0,-5.0,-4.0,79.0,-989.0,169.0
43.0,-258.0,6.0,-30.0,-6.0,-3.0,81.0,-990.0,173.0
40.0,-261.0,3.0,-27.0,-5.0,-5.0,77.0,-990.0,169.0
44.0,-258.0,7.0,-22.0,-6.0,-3.0,76.0,-988.0,177.0
41.0,-262.0,7.0,-20.0,-4.0,-3.0,82.0,-987.0,166.0
42.0,-257.0,2.0,-16.0,-4.0,-2.0,79.0,-986.0,170.0
40.0,-257.0,1.0,-14.0,-4.0,-1.0,84.0,-988.0,166.0
41.0,-256.0,1.0,-13.0,-7.0,1.0,82.0,-984.0,169.0
43.0,-256.0,1.0,-14.0,-8.0,2.0,84.0,-985.0,163.0
41.0,-257.0,0.0,-16.0,-9.0,3.0,75.0,-985.0,163.0
42.0,-257.0,1.0,-20.0,-12.0,3.0,79.0,-983.0,161.0
42.0,-256.0,3.0,-26.0,-12.0,3.0,78.0,-977.0,169.0
40.0,-255.0,3.0,-31.0,-11.0,3.0,75.0,-975.0,170.0
42.0,-256.0,4.0,-37.0,-8.0,3.0,79.0,-976.0,169.0
38.0,-255.0,3.0,-43.0,-5.0,1.0,77.0,-977.0,173.0
41.0,-251.0,16.0,-47.0,3.0,0.0,76.0,-981.0,174.0
43.0,-257.0,4.0,-49.0,7.0,-4.0,79.0,-974.0,178.0
40.0,-257.0,1.0,-50.0,13.0,-6.0,74.0,-978.0,171.0
40.0,-254.0,4.0,-51.0,18.0,-8.0,76.0,-985.0,176.0
39.0,-259.0,2.0,-50.0,23.0,-11.0,75.0,-987.0,175.0
43.0,-258.0,5.0,-51.0,26.0,-12.0,74.0,-984.0,173.0
41.0,-255.0,4.0,-49.0,28.0,-14.0,77.0,-984.0,173.0
42.0,-258.0,6.0,-47.0,29.0,-13.0,77.0,-982.0,175.0
40.0,-257.0,2.0,-45.0,28.0,-12.0,78.0,-989.0,171.0
40.0,-256.0,6.0,-43.0,25.0,-12.0,78.0,-987.0,172.0
43.0,-256.0,2.0,-42.0,23.0,-10.0,77.0,-985.0,173.0
44.0,-259.0,8.0,-42.0,22.0,-8.0,83.0,-984.0,168.0
41.0,-259.0,3.0,-40.0,18.0,-7.0,83.0,-983.0,168.0
38.0,-256.0,2.0,-35.0,16.0,-5.0,77.0,-988.0,169.0
38.0,-256.0,2.0,-33.0,14.0,-4.0,76.0,-985.0,168.0
39.0,-257.0,3.0,-28.0,13.0,-4.0,74.0,-983.0,167.0
42.0,-258.0,5.0,-26.0,13.0,-3.0,75.0,-990.0,166.0
41.0,-257.0,4.0,-25.0,13.0,-2.0,75.0,-984.0,166.0
41.0,-258.0,3.0,-22.0,13.0,-3.0,76.0,-982.0,163.0
39.0,-260.0,3.0,-20.0,14.0,-5.0,76.0,-987.0,167.0
44.0,-255.0,1.0,-19.0,14.0,-5.0,78.0,-981.0,168.0
36.0,-252.0,3.0,-18.0,13.0,-6.0,78.0,-982.0,169.0
40.0,-254.0,8.0,-18.0,13.0,-7.0,76.0,-982.0,169.0
40.0,-256.0,3.0,-17.0,14.0,-7.0,78.0,-977.0,171.0
41.0,-256.0,5.0,-17.0,11.0,-8.0,77.0,-980.0,164.0
41.0,-256.0,1.0,-18.0,10.0,-8.0,78.0,-989.0,167.0
40.0,-256.0,1.0,-20.0,8.0,-8.0,78.0,-989.0,162.0
41.0,-256.0,2.0,-22.0,8.0,-7.0,78.0,-983.0,166.0
41.0,-255.0,4.0,-26.0,8.0,-7.0,79.0,-986.0,164.0
39.0,-256.0,5.0,-29.0,8.0,-7.0,74.0,-983.0,168.0
42.0,-255.0,5.0,-32.0,9.0,-5.0,78.0,-984.0,168.0
40.0,-260.0,6.0,-33.0,13.0,-5.0,78.0,-985.0,170.0
44.0,-257.0,7.0,-34.0,16.0,-4.0,80.0,-988.0,174.0
42.0,-255.0,4.0,-36.0,18.0,-5.0,86.0,-990.0,175.0
41.0,-257.0,2.0,-37.0,20.0,-6.0,80.0,-989.0,176.0
40.0,-257.0,4.0,-39.0,19.0,-7.0,79.0,-981.0,176.0
44.0,-256.0,4.0,-41.0,21.0,-9.0,78.0,-981.0,179.0
39.0,-256.0,8.0,-43.0,21.0,-9.0,79.0,-981.0,177.0
43.0,-259.0,8.0,-48.0,25.0,-10.0,78.0,-982.0,175.0
44.0,-256.0,6.0,-50.0,26.0,-10.0,82.0,-980.0,177.0
43.0,-257.0,5.0,-53.0,28.0,-9.0,80.0,-982.0,175.0
42.0,-255.0,5.0,-57.0,29.0,-8.0,78.0,-986.0,177.0
45.0,-254.0,3.0,-59.0,30.0,-8.0,85.0,-976.0,175.0
44.0,-255.0,1.0,-60.0,30.0,-6.0,78.0,-975.0,175.0
46.0,-255.0,4.0,-60.0,29.0,-5.0,83.0,-976.0,174.0
43.0,-255.0,4.0,-61.0,26.0,-1.0,81.0,-978.0,171.0
42.0,-256.0,7.0,-61.0,24.0,-3.0,79.0,-972.0,170.0
43.0,-255.0,2.0,-62.0,22.0,-4.0,82.0,-978.0,168.0
42.0,-255.0,3.0,-60.0,21.0,-4.0,81.0,-973.0,171.0
39.0,-257.0,0.0,-62.0,21.0,-7.0,78.0,-973.0,170.0
41.0,-256.0,6.0,-64.0,21.0,-8.0,75.0,-981.0,173.0
41.0,-254.0,4.0,-65.0,21.0,-10.0,73.0,-981.0,173.0
40.0,-257.0,2.0,-64.0,23.0,-10.0,78.0,-986.0,176.0
41.0,-255.0,7.0,-63.0,24.0,-11.0,74.0,-984.0,177.0
40.0,-257.0,8.0,-61.0,25.0,-13.0,75.0,-993.0,176.0
37.0,-259.0,6.0,-58.0,25.0,-13.0,74.0,-988.0,176.0
39.0,-257.0,8.0,-52.0,28.0,-14.0,77.0,-989.0,178.0
39.0,-257.0,4.0,-49.0,31.0,-14.0,77.0,-992.0,177.0
39.0,-259.0,1.0,-46.0,32.0,-15.0,75.0,-991.0,170.0
38.0,-256.0,4.0,-43.0,32.0,-15.0,74.0,-992.0,174.0
41.0,-258.0,6.0,-44.0,33.0,-15.0,78.0,-991.0,168.0
41.0,-260.0,2.0,-46.0,33.0,-14.0,76.0,-992.0,170.0
39.0,-257.0,0.0,-52.0,32.0,-13.0,76.0,-981.0,166.0
39.0,-256.0,1.0,-58.0,32.0,-13.0,76.0,-985.0,168.0
40.0,-257.0,0.0,-66.0,32.0,-11.0,80.0,-981.0,165.0
42.0,-257.0,5.0,-72.0,32.0,-8.0,76.0,-974.0,171.0
41.0,-253.0,5.0,-78.0,34.0,-8.0,79.0,-977.0,167.0
43.0,-257.0,5.0,-83.0,36.0,-7.0,77.0,-977.0,165.0
41.0,-256.0,4.0,-88.0,37.0,-6.0,78.0,-981.0,166.0
41.0,-256.0,3.0,-92.0,39.0,-7.0,86.0,-979.0,166.0
43.0,-256.0,2.0,-96.0,42.0,-5.0,84.0,-972.0,165.0
43.0,-256.0,6.0,-100.0,44.0,-4.0,88.0,-981.0,164.0
46.0,-254.0,3.0,-105.0,46.0,-3.0,92.0,-974.0,165.0
43.0,-256.0,6.0,-111.0,48.0,-3.0,90.0,-974.0,165.0
43.0,-255.0,1.0,-114.0,48.0,-3.0,91.0,-970.0,163.0
47.0,-257.0,3.0,-119.0,45.0,-1.0,81.0,-974.0,165.0
43.0,-255.0,4.0,-123.0,48.0,0.0,87.0,-976.0,168.0
38.0,-254.0,6.0,-125.0,48.0,-2.0,81.0,-979.0,167.0
40.0,-255.0,3.0,-127.0,51.0,-3.0,81.0,-982.0,162.0
39.0,-254.0,1.0,-128.0,55.0,-7.0,77.0,-983.0,164.0
42.0,-256.0,6.0,-129.0,60.0,-9.0,85.0,-983.0,167.0
43.0,-256.0,5.0,-132.0,66.0,-9.0,78.0,-984.0,170.0
40.0,-255.0,4.0,-136.0,71.0,-11.0,78.0,-981.0,172.0
41.0,-255.0,2.0,-138.0,75.0,-12.0,81.0,-980.0,176.0
43.0,-256.0,4.0,-139.0,79.0,-10.0,81.0,-979.0,175.0
44.0,-256.0,8.0,-141.0,80.0,-10.0,81.0,-981.0,179.0
46.0,-256.0,7.0,-143.0,81.0,-9.0,76.0,-982.0,181.0
42.0,-258.0,5.0,-145.0,81.0,-10.0,83.0,-982.0,180.0
42.0,-255.0,7.0,-145.0,82.0,-11.0,81.0,-985.0,182.0
43.0,-256.0,6.0,-144.0,82.0,-11.0,85.0,-984.0,183.0
42.0,-257.0,6.0,-142.0,84.0,-12.0,80.0,-981.0,180.0
43.0,-257.0,7.0,-144.0,83.0,-13.0,79.0,-980.0,185.0
41.0,-255.0,10.0,-148.0,83.0,-13.0,80.0,-985.0,185.0
44.0,-256.0,7.0,-149.0,82.0,-14.0,85.0,-981.0,180.0
41.0,-255.0,7.0,-155.0,81.0,-15.0,79.0,-982.0,181.0
42.0,-254.0,7.0,-163.0,78.0,-13.0,80.0,-980.0,182.0
44.0,-253.0,1.0,-174.0,77.0,-13.0,84.0,-972.0,179.0
47.0,-253.0,8.0,-186.0,77.0,-11.0,86.0,-973.0,179.0
47.0,-253.0,3.0,-198.0,77.0,-9.0,86.0,-973.0,170.0
45.0,-255.0,4.0,-214.0,77.0,-11.0,86.0,-976.0,166.0
45.0,-253.0,0.0,-230.0,75.0,-11.0,88.0,-967.0,159.0
46.0,-254.0,0.0,-248.0,75.0,-8.0,82.0,-970.0,154.0
42.0,-253.0,-2.0,-268.0,74.0,-6.0,81.0,-968.0,141.0
38.0,-251.0,-3.0,-292.0,71.0,-7.0,76.0,-966.0,137.0
40.0,-252.0,-7.0,-321.0,66.0,-4.0,74.0,-964.0,135.0
41.0,-252.0,-5.0,-348.0,59.0,-2.0,73.0,-963.0,128.0
38.0,-252.0,-4.0,-377.0,51.0,3.0,71.0,-967.0,132.0
40.0,-254.0,-9.0,-407.0,46.0,4.0,71.0,-966.0,125.0
41.0,-254.0,-11.0,-431.0,41.0,5.0,71.0,-967.0,120.0
39.0,-253.0,-6.0,-453.0,41.0,4.0,71.0,-972.0,113.0
39.0,-255.0,-13.0,-472.0,41.0,0.0,69.0,-979.0,106.0
37.0,-255.0,-15.0,-487.0,42.0,-2.0,72.0,-981.0,103.0
38.0,-257.0,-11.0,-497.0,42.0,-2.0,65.0,-982.0,102.0
38.0,-259.0,-12.0,-501.0,40.0,-4.0,70.0,-992.0,97.0
38.0,-258.0,-16.0,-500.0,35.0,-3.0,73.0,-993.0,99.0
39.0,-258.0,-11.0,-494.0,24.0,-3.0,74.0,-983.0,103.0
41.0,-257.0,-14.0,-486.0,12.0,-2.0,74.0,-988.0,105.0
42.0,-256.0,-16.0,-474.0,0.0,-2.0,75.0,-985.0,106.0
39.0,-256.0,-11.0,-471.0,-13.0,-1.0,74.0,-971.0,112.0
41.0,-251.0,-4.0,-473.0,-21.0,-2.0,72.0,-968.0,116.0
43.0,-253.0,-6.0,-478.0,-23.0,-4.0,70.0,-960.0,124.0
41.0,-246.0,-4.0,-489.0,-21.0,-6.0,69.0,-951.0,129.0
40.0,-246.0,-6.0,-506.0,-16.0,-8.0,68.0,-943.0,138.0
39.0,-243.0,-2.0,-533.0,-13.0,-11.0,73.0,-936.0,151.0
43.0,-244.0,-1.0,-569.0,-8.0,-11.0,75.0,-930.0,156.0
40.0,-242.0,0.0,-609.0,0.0,-11.0,73.0,-933.0,153.0
39.0,-241.0,2.0,-655.0,9.0,-10.0,72.0,-932.0,159.0
41.0,-242.0,0.0,-700.0,18.0,-7.0,69.0,-933.0,155.0
42.0,-246.0,3.0,-740.0,26.0,-6.0,71.0,-940.0,161.0
45.0,-248.0,-3.0,-774.0,29.0,-7.0,80.0,-938.0,157.0
34.0,-252.0,2.0,-805.0,29.0,-8.0,66.0,-966.0,163.0
39.0,-255.0,1.0,-825.0,29.0,-6.0,73.0,-967.0,158.0
39.0,-256.0,-1.0,-834.0,31.0,-8.0,81.0,-979.0,158.0
38.0,-255.0,0.0,-841.0,35.0,-13.0,77.0,-988.0,147.0
43.0,-259.0,1.0,-843.0,39.0,-18.0,76.0,-991.0,152.0
38.0,-261.0,1.0,-837.0,40.0,-22.0,70.0,-996.0,149.0
41.0,-262.0,-4.0,-828.0,42.0,-25.0,72.0,-1004.0,132.0
40.0,-265.0,-1.0,-814.0,41.0,-27.0,69.0,-1007.0,132.0
38.0,-263.0,-8.0,-797.0,38.0,-27.0,62.0,-1004.0,121.0
38.0,-257.0,-7.0,-787.0,34.0,-29.0,73.0,-994.0,118.0
39.0,-261.0,-10.0,-784.0,30.0,-26.0,71.0,-993.0,108.0
42.0,-259.0,-9.0,-791.0,27.0,-21.0,73.0,-991.0,105.0
41.0,-257.0,-20.0,-801.0,28.0,-17.0,69.0,-986.0,94.0
38.0,-257.0,-16.0,-815.0,33.0,-14.0,70.0,-987.0,86.0
42.0,-256.0,-22.0,-830.0,36.0,-11.0,69.0,-984.0,69.0
39.0,-257.0,-25.0,-858.0,42.0,-11.0,60.0,-988.0,60.0
40.0,-255.0,-25.0,-891.0,51.0,-8.0,69.0,-982.0,61.0
38.0,-254.0,-27.0,-927.0,62.0,-6.0,64.0,-974.0,57.0
35.0,-258.0,-28.0,-960.0,75.0,-5.0,56.0,-986.0,58.0
32.0,-260.0,-23.0,-980.0,82.0,-5.0,50.0,-989.0,61.0
30.0,-261.0,-24.0,-988.0,84.0,-1.0,50.0,-994.0,60.0
32.0,-263.0,-26.0,-983.0,79.0,1.0,45.0,-999.0,61.0
33.0,-266.0,-19.0,-972.0,69.0,5.0,36.0,-1004.0,63.0
29.0,-259.0,-24.0,-952.0,51.0,11.0,46.0,-991.0,62.0
31.0,-254.0,-29.0,-934.0,36.0,14.0,42.0,-978.0,63.0
33.0,-252.0,-30.0,-928.0,18.0,17.0,47.0,-967.0,52.0
30.0,-251.0,-30.0,-934.0,5.0,21.0,40.0,-953.0,59.0
36.0,-251.0,-29.0,-950.0,-6.0,27.0,50.0,-949.0,47.0
32.0,-249.0,-30.0,-968.0,-12.0,31.0,41.0,-957.0,42.0
31.0,-253.0,-31.0,-988.0,-11.0,40.0,46.0,-970.0,38.0
37.0,-259.0,-32.0,-1003.0,-14.0,49.0,62.0,-979.0,41.0
35.0,-254.0,-38.0,-1000.0,-19.0,51.0,65.0,-973.0,34.0
35.0,-254.0,-38.0,-991.0,-27.0,48.0,57.0,-968.0,17.0
37.0,-254.0,-44.0,-999.0,-41.0,50.0,65.0,-967.0,-4.0
36.0,-248.0,-52.0,-1019.0,-52.0,56.0,64.0,-954.0,-22.0
34.0,-252.0,-49.0,-1054.0,-59.0,59.0,55.0,-966.0,-26.0
37.0,-252.0,-46.0,-1089.0,-59.0,65.0,58.0,-967.0,-32.0
40.0,-252.0,-46.0,-1119.0,-56.0,70.0,74.0,-967.0,-19.0
39.0,-257.0,-47.0,-1144.0,-51.0,66.0,59.0,-988.0,-14.0
37.0,-257.0,-45.0,-1176.0,-38.0,71.0,59.0,-986.0,-13.0
46.0,-258.0,-41.0,-1213.0,-18.0,73.0,83.0,-994.0,-4.0
46.0,-262.0,-41.0,-1246.0,4.0,60.0,94.0,-995.0,5.0
49.0,-258.0,-40.0,-1286.0,29.0,53.0,90.0,-1002.0,3.0
32.0,-256.0,-36.0,-1345.0,52.0,53.0,48.0,-982.0,19.0
65.0,-260.0,-51.0,-1417.0,54.0,64.0,162.0,-1008.0,-5.0
66.0,-259.0,-48.0,-1506.0,62.0,78.0,161.0,-1018.0,-33.0
50.0,-263.0,-53.0,-1605.0,72.0,78.0,118.0,-1015.0,-48.0
58.0,-260.0,-64.0,-1721.0,66.0,92.0,134.0,-1023.0,-80.0
63.0,-270.0,-67.0,-1849.0,40.0,116.0,156.0,-1043.0,-108.0
58.0,-275.0,-73.0,-1973.0,30.0,130.0,148.0,-1067.0,-138.0
60.0,-277.0,-88.0,-2089.0,24.0,143.0,159.0,-1059.0,-175.0
57.0,-274.0,-88.0,-2204.0,15.0,141.0,117.0,-1067.0,-203.0
52.0,-278.0,-96.0,-2303.0,5.0,143.0,83.0,-1064.0,-225.0
56.0,-282.0,-111.0,-2380.0,-12.0,150.0,109.0,-1077.0,-278.0
51.0,-280.0,-126.0,-2437.0,-9.0,142.0,131.0,-1079.0,-328.0
43.0,-289.0,-146.0,-2466.0,19.0,123.0,107.0,-1083.0,-380.0
48.0,-274.0,-147.0,-2477.0,46.0,112.0,70.0,-1066.0,-432.0
55.0,-271.0,-163.0,-2488.0,49.0,86.0,100.0,-1015.0,-494.0
37.0,-264.0,-184.0,-2495.0,68.0,39.0,63.0,-1015.0,-566.0
38.0,-271.0,-182.0,-2536.0,61.0,21.0,27.0,-1024.0,-567.0
36.0,-269.0,-193.0,-2529.0,35.0,9.0,85.0,-1012.0,-614.0
26.0,-264.0,-204.0,-2478.0,-7.0,7.0,14.0,-992.0,-666.0
65.0,-277.0,-202.0,-2381.0,-31.0,34.0,159.0,-1019.0,-678.0
20.0,-279.0,-226.0,-2182.0,10.0,54.0,-12.0,-1011.0,-748.0
32.0,-277.0,-227.0,-1956.0,35.0,80.0,49.0,-1043.0,-760.0
16.0,-286.0,-233.0,-1705.0,55.0,48.0,-9.0,-1051.0,-783.0
29.0,-294.0,-234.0,-1459.0,38.0,15.0,1.0,-1087.0,-777.0
36.0,-301.0,-231.0,-1220.0,27.0,-19.0,40.0,-1110.0,-772.0
36.0,-306.0,-219.0,-1000.0,19.0,-48.0,61.0,-1134.0,-748.0
24.0,-302.0,-227.0,-794.0,23.0,-73.0,26.0,-1145.0,-763.0
28.0,-303.0,-226.0,-642.0,8.0,-76.0,20.0,-1139.0,-756.0
29.0,-311.0,-219.0,-543.0,-1.0,-69.0,36.0,-1160.0,-738.0
33.0,-309.0,-225.0,-459.0,-10.0,-62.0,37.0,-1165.0,-734.0
18.0,-310.0,-221.0,-394.0,-17.0,-62.0,-18.0,-1159.0,-741.0
29.0,-320.0,-211.0,-343.0,-43.0,-58.0,9.0,-1179.0,-699.0
18.0,-319.0,-208.0,-257.0,-60.0,-64.0,-2.0,-1183.0,-697.0
17.0,-322.0,-205.0,-149.0,-79.0,-73.0,0.0,-1208.0,-665.0
25.0,-328.0,-198.0,-6.0,-97.0,-83.0,-2.0,-1192.0,-678.0
12.0,-312.0,-204.0,159.0,-118.0,-95.0,7.0,-1203.0,-660.0
5.0,-321.0,-196.0,318.0,-139.0,-111.0,-13.0,-1158.0,-668.0
32.0,-313.0,-190.0,481.0,-157.0,-120.0,0.0,-1177.0,-588.0
31.0,-312.0,-206.0,672.0,-184.0,-131.0,16.0,-1151.0,-684.0
19.0,-289.0,-216.0,792.0,-208.0,-152.0,10.0,-1126.0,-710.0
18.0,-280.0,-230.0,837.0,-229.0,-165.0,-17.0,-1076.0,-769.0
21.0,-273.0,-233.0,802.0,-240.0,-166.0,-12.0,-1039.0,-763.0
23.0,-272.0,-224.0,733.0,-239.0,-162.0,-2.0,-1025.0,-739.0
25.0,-268.0,-210.0,667.0,-234.0,-155.0,5.0,-1009.0,-704.0
22.0,-266.0,-204.0,615.0,-229.0,-147.0,8.0,-1004.0,-666.0
27.0,-260.0,-193.0,579.0,-229.0,-136.0,12.0,-994.0,-633.0
34.0,-259.0,-191.0,554.0,-222.0,-124.0,41.0,-982.0,-615.0
34.0,-258.0,-185.0,536.0,-217.0,-115.0,39.0,-983.0,-586.0
29.0,-259.0,-187.0,524.0,-212.0,-101.0,38.0,-982.0,-582.0
32.0,-264.0,-183.0,513.0,-211.0,-84.0,42.0,-992.0,-573.0
37.0,-265.0,-184.0,515.0,-214.0,-74.0,55.0,-998.0,-578.0
30.0,-265.0,-184.0,522.0,-220.0,-67.0,32.0,-999.0,-581.0
27.0,-266.0,-187.0,531.0,-227.0,-58.0,28.0,-1006.0,-592.0
31.0,-267.0,-189.0,533.0,-234.0,-53.0,31.0,-1018.0,-589.0
23.0,-274.0,-186.0,525.0,-252.0,-55.0,5.0,-1022.0,-593.0
30.0,-267.0,-187.0,514.0,-262.0,-46.0,24.0,-1029.0,-588.0
25.0,-274.0,-188.0,502.0,-272.0,-41.0,17.0,-1034.0,-598.0
24.0,-273.0,-185.0,484.0,-281.0,-46.0,10.0,-1041.0,-595.0
27.0,-275.0,-185.0,471.0,-282.0,-45.0,2.0,-1032.0,-589.0
26.0,-272.0,-179.0,464.0,-272.0,-33.0,6.0,-1033.0,-578.0
32.0,-272.0,-179.0,463.0,-252.0,-19.0,26.0,-1032.0,-565.0
27.0,-271.0,-172.0,464.0,-238.0,-22.0,10.0,-1033.0,-552.0
30.0,-273.0,-173.0,459.0,-219.0,-18.0,23.0,-1031.0,-535.0
28.0,-272.0,-166.0,450.0,-201.0,-22.0,22.0,-1032.0,-515.0
33.0,-272.0,-164.0,432.0,-189.0,-33.0,43.0,-1031.0,-496.0
41.0,-275.0,-166.0,413.0,-176.0,-48.0,51.0,-1014.0,-490.0
35.0,-266.0,-162.0,390.0,-162.0,-56.0,45.0,-1013.0,-481.0
32.0,-265.0,-158.0,366.0,-153.0,-60.0,39.0,-1008.0,-481.0
39.0,-267.0,-155.0,344.0,-151.0,-51.0,59.0,-1014.0,-475.0
42.0,-262.0,-155.0,324.0,-158.0,-57.0,86.0,-1002.0,-473.0
35.0,-265.0,-155.0,307.0,-179.0,-66.0,60.0,-1008.0,-469.0
39.0,-263.0,-157.0,292.0,-196.0,-58.0,66.0,-1002.0,-473.0
36.0,-266.0,-158.0,285.0,-208.0,-39.0,59.0,-1007.0,-469.0
34.0,-265.0,-151.0,269.0,-225.0,-27.0,49.0,-1013.0,-472.0
38.0,-268.0,-153.0,250.0,-243.0,-17.0,69.0,-1012.0,-461.0
44.0,-265.0,-147.0,231.0,-259.0,-15.0,77.0,-1011.0,-455.0
45.0,-271.0,-148.0,204.0,-277.0,-14.0,66.0,-1019.0,-450.0
44.0,-264.0,-149.0,171.0,-286.0,-7.0,84.0,-1012.0,-444.0
44.0,-265.0,-144.0,132.0,-293.0,-10.0,80.0,-1011.0,-433.0
38.0,-269.0,-143.0,95.0,-293.0,-10.0,75.0,-1017.0,-425.0
42.0,-270.0,-141.0,64.0,-276.0,-3.0,64.0,-1016.0,-413.0
42.0,-267.0,-135.0,39.0,-249.0,5.0,61.0,-1018.0,-405.0
42.0,-269.0,-135.0,21.0,-219.0,9.0,79.0,-1022.0,-385.0
47.0,-267.0,-131.0,3.0,-186.0,3.0,89.0,-1015.0,-377.0
44.0,-268.0,-130.0,-4.0,-159.0,-19.0,89.0,-1015.0,-360.0
43.0,-266.0,-127.0,-9.0,-133.0,-35.0,76.0,-1015.0,-349.0
34.0,-272.0,-126.0,-6.0,-103.0,-34.0,46.0,-1024.0,-338.0
33.0,-269.0,-122.0,-13.0,-80.0,-20.0,36.0,-1026.0,-331.0
38.0,-267.0,-122.0,-31.0,-71.0,-9.0,51.0,-1024.0,-328.0
37.0,-268.0,-120.0,-57.0,-72.0,-1.0,59.0,-1020.0,-325.0
39.0,-266.0,-118.0,-85.0,-73.0,4.0,65.0,-1012.0,-320.0
39.0,-262.0,-121.0,-115.0,-77.0,8.0,64.0,-1005.0,-307.0
30.0,-261.0,-116.0,-145.0,-82.0,15.0,27.0,-998.0,-307.0
30.0,-260.0,-113.0,-183.0,-89.0,34.0,21.0,-999.0,-289.0
37.0,-261.0,-107.0,-218.0,-98.0,54.0,62.0,-995.0,-274.0
42.0,-261.0,-109.0,-249.0,-110.0,62.0,74.0,-988.0,-274.0
41.0,-263.0,-112.0,-281.0,-119.0,66.0,70.0,-994.0,-279.0
44.0,-262.0,-105.0,-317.0,-125.0,76.0,82.0,-998.0,-272.0
44.0,-261.0,-107.0,-358.0,-128.0,81.0,81.0,-1001.0,-275.0
45.0,-263.0,-106.0,-394.0,-127.0,79.0,89.0,-1000.0,-269.0
40.0,-261.0,-109.0,-433.0,-119.0,75.0,74.0,-1002.0,-266.0
39.0,-260.0,-105.0,-465.0,-107.0,87.0,63.0,-1006.0,-276.0
42.0,-264.0,-108.0,-487.0,-99.0,99.0,76.0,-1001.0,-271.0
40.0,-262.0,-114.0,-503.0,-89.0,110.0,66.0,-1007.0,-289.0
38.0,-265.0,-116.0,-523.0,-73.0,117.0,73.0,-1004.0,-301.0
36.0,-262.0,-116.0,-532.0,-57.0,117.0,54.0,-1005.0,-320.0
34.0,-261.0,-125.0,-551.0,-42.0,122.0,70.0,-1005.0,-332.0
43.0,-265.0,-121.0,-566.0,-30.0,116.0,65.0,-1003.0,-324.0
25.0,-262.0,-128.0,-570.0,-27.0,107.0,18.0,-1003.0,-341.0
24.0,-264.0,-130.0,-570.0,-24.0,130.0,8.0,-1003.0,-357.0
27.0,-267.0,-130.0,-565.0,-29.0,153.0,18.0,-1005.0,-362.0
29.0,-266.0,-130.0,-550.0,-33.0,162.0,26.0,-1014.0,-366.0
28.0,-265.0,-135.0,-529.0,-32.0,154.0,16.0,-1003.0,-371.0
17.0,-267.0,-132.0,-509.0,-24.0,144.0,-11.0,-1003.0,-371.0
21.0,-262.0,-129.0,-492.0,-14.0,150.0,-1.0,-1000.0,-370.0
27.0,-264.0,-129.0,-476.0,-14.0,151.0,28.0,-1001.0,-366.0
30.0,-265.0,-132.0,-453.0,-13.0,140.0,32.0,-1004.0,-373.0
28.0,-264.0,-134.0,-436.0,-8.0,130.0,25.0,-1006.0,-370.0
34.0,-264.0,-130.0,-417.0,-10.0,128.0,45.0,-1001.0,-359.0
32.0,-267.0,-126.0,-383.0,-12.0,126.0,32.0,-1003.0,-355.0
30.0,-265.0,-125.0,-339.0,-10.0,128.0,47.0,-1004.0,-342.0
31.0,-267.0,-121.0,-284.0,-7.0,127.0,44.0,-1005.0,-324.0
32.0,-269.0,-119.0,-223.0,5.0,127.0,38.0,-1006.0,-328.0
32.0,-265.0,-119.0,-163.0,17.0,126.0,38.0,-1010.0,-322.0
32.0,-267.0,-121.0,-104.0,28.0,122.0,37.0,-1005.0,-320.0
23.0,-265.0,-121.0,-52.0,40.0,121.0,18.0,-995.0,-328.0
29.0,-260.0,-117.0,-13.0,50.0,124.0,24.0,-986.0,-312.0
27.0,-259.0,-116.0,40.0,53.0,120.0,18.0,-972.0,-303.0
26.0,-256.0,-114.0,98.0,57.0,117.0,17.0,-965.0,-307.0
21.0,-265.0,-116.0,154.0,60.0,114.0,11.0,-962.0,-314.0
25.0,-253.0,-119.0,207.0,63.0,109.0,8.0,-951.0,-321.0
24.0,-252.0,-120.0,252.0,66.0,105.0,8.0,-951.0,-325.0
25.0,-252.0,-123.0,289.0,67.0,98.0,7.0,-948.0,-333.0
22.0,-251.0,-125.0,316.0,66.0,90.0,1.0,-943.0,-343.0
24.0,-246.0,-131.0,341.0,63.0,82.0,8.0,-932.0,-352.0
21.0,-245.0,-129.0,366.0,53.0,64.0,4.0,-924.0,-370.0
22.0,-242.0,-133.0,393.0,36.0,46.0,8.0,-924.0,-378.0
22.0,-240.0,-135.0,416.0,21.0,24.0,7.0,-914.0,-387.0
20.0,-239.0,-140.0,434.0,8.0,6.0,-5.0,-903.0,-398.0
16.0,-234.0,-137.0,453.0,0.0,-2.0,-9.0,-885.0,-402.0
25.0,-221.0,-143.0,471.0,-4.0,-8.0,0.0,-875.0,-398.0
26.0,-230.0,-139.0,495.0,-1.0,-12.0,7.0,-862.0,-390.0
23.0,-224.0,-137.0,523.0,4.0,-16.0,13.0,-846.0,-388.0
28.0,-224.0,-135.0,552.0,18.0,-18.0,14.0,-835.0,-382.0
27.0,-220.0,-136.0,580.0,33.0,-18.0,17.0,-831.0,-388.0
29.0,-218.0,-136.0,601.0,50.0,-19.0,24.0,-819.0,-384.0
28.0,-216.0,-136.0,612.0,63.0,-16.0,25.0,-814.0,-380.0
29.0,-213.0,-133.0,615.0,72.0,-15.0,29.0,-813.0,-377.0
31.0,-212.0,-131.0,606.0,75.0,-10.0,27.0,-810.0,-385.0
26.0,-212.0,-130.0,586.0,76.0,-5.0,25.0,-810.0,-374.0
25.0,-211.0,-130.0,564.0,70.0,6.0,34.0,-810.0,-369.0
27.0,-210.0,-132.0,538.0,59.0,17.0,20.0,-808.0,-348.0
26.0,-215.0,-121.0,518.0,45.0,32.0,18.0,-807.0,-335.0
27.0,-215.0,-126.0,504.0,34.0,43.0,14.0,-809.0,-324.0
25.0,-215.0,-118.0,497.0,28.0,55.0,15.0,-811.0,-314.0
23.0,-217.0,-119.0,497.0,28.0,65.0,6.0,-818.0,-303.0
23.0,-214.0,-114.0,499.0,33.0,71.0,7.0,-815.0,-299.0
23.0,-216.0,-114.0,501.0,40.0,76.0,8.0,-813.0,-288.0
19.0,-216.0,-108.0,501.0,47.0,80.0,-9.0,-810.0,-286.0
20.0,-213.0,-111.0,500.0,54.0,82.0,-8.0,-813.0,-272.0
17.0,-214.0,-109.0,497.0,56.0,81.0,-7.0,-811.0,-271.0
19.0,-217.0,-104.0,495.0,56.0,82.0,-12.0,-810.0,-264.0
16.0,-210.0,-116.0,492.0,53.0,81.0,-17.0,-806.0,-263.0
15.0,-212.0,-109.0,491.0,49.0,78.0,-22.0,-810.0,-266.0
19.0,-214.0,-108.0,492.0,46.0,75.0,-7.0,-808.0,-271.0
16.0,-216.0,-107.0,495.0,43.0,71.0,-18.0,-809.0,-274.0
17.0,-214.0,-108.0,500.0,43.0,68.0,-16.0,-807.0,-287.0
18.0,-213.0,-110.0,503.0,46.0,64.0,-12.0,-810.0,-287.0
19.0,-213.0,-112.0,508.0,48.0,61.0,-10.0,-804.0,-293.0
19.0,-213.0,-113.0,515.0,50.0,58.0,-9.0,-795.0,-299.0
19.0,-212.0,-118.0,528.0,52.0,57.0,-10.0,-802.0,-305.0
19.0,-212.0,-113.0,542.0,53.0,54.0,-5.0,-797.0,-304.0
23.0,-211.0,-118.0,556.0,57.0,48.0,-5.0,-793.0,-305.0
19.0,-208.0,-116.0,566.0,61.0,40.0,-4.0,-785.0,-303.0
20.0,-205.0,-115.0,572.0,68.0,31.0,-3.0,-782.0,-299.0
19.0,-205.0,-117.0,569.0,74.0,22.0,-8.0,-785.0,-293.0
19.0,-208.0,-115.0,559.0,80.0,17.0,-9.0,-783.0,-280.0
19.0,-206.0,-113.0,543.0,84.0,13.0,-18.0,-783.0,-274.0
17.0,-203.0,-113.0,521.0,87.0,10.0,-15.0,-781.0,-274.0
19.0,-207.0,-107.0,497.0,90.0,11.0,-8.0,-781.0,-272.0
16.0,-208.0,-108.0,469.0,92.0,13.0,-10.0,-786.0,-273.0
23.0,-207.0,-105.0,444.0,95.0,15.0,-17.0,-793.0,-260.0
19.0,-211.0,-104.0,423.0,97.0,18.0,-6.0,-795.0,-257.0
16.0,-215.0,-105.0,408.0,100.0,19.0,-3.0,-804.0,-251.0
24.0,-214.0,-101.0,405.0,99.0,22.0,0.0,-810.0,-246.0
24.0,-216.0,-100.0,409.0,99.0,21.0,7.0,-810.0,-231.0
24.0,-219.0,-97.0,422.0,97.0,22.0,9.0,-811.0,-225.0
30.0,-213.0,-95.0,438.0,91.0,23.0,23.0,-805.0,-219.0
29.0,-216.0,-87.0,457.0,83.0,26.0,28.0,-801.0,-216.0
29.0,-211.0,-89.0,479.0,74.0,31.0,35.0,-803.0,-212.0
35.0,-211.0,-92.0,498.0,66.0,36.0,43.0,-794.0,-208.0
34.0,-211.0,-93.0,509.0,59.0,40.0,46.0,-792.0,-205.0
33.0,-208.0,-89.0,512.0,56.0,43.0,59.0,-788.0,-200.0
38.0,-206.0,-91.0,508.0,57.0,44.0,61.0,-789.0,-194.0
43.0,-207.0,-91.0,498.0,62.0,42.0,61.0,-777.0,-198.0
36.0,-207.0,-93.0,487.0,72.0,40.0,52.0,-775.0,-191.0
36.0,-202.0,-86.0,473.0,86.0,34.0,54.0,-769.0,-191.0
29.0,-200.0,-87.0,458.0,105.0,28.0,42.0,-767.0,-188.0
30.0,-202.0,-87.0,443.0,123.0,23.0,32.0,-760.0,-191.0
27.0,-199.0,-87.0,427.0,140.0,20.0,16.0,-758.0,-188.0
21.0,-197.0,-88.0,410.0,148.0,18.0,4.0,-752.0,-191.0
19.0,-197.0,-84.0,391.0,152.0,17.0,-5.0,-748.0,-186.0
17.0,-196.0,-84.0,378.0,152.0,19.0,-17.0,-749.0,-190.0
15.0,-195.0,-86.0,368.0,149.0,20.0,-23.0,-749.0,-187.0
15.0,-199.0,-87.0,361.0,150.0,21.0,-34.0,-754.0,-184.0
12.0,-198.0,-85.0,354.0,156.0,22.0,-34.0,-761.0,-183.0
13.0,-201.0,-83.0,342.0,168.0,24.0,-33.0,-769.0,-178.0
14.0,-204.0,-83.0,324.0,182.0,26.0,-27.0,-785.0,-176.0
15.0,-208.0,-81.0,299.0,196.0,27.0,-23.0,-791.0,-172.0
17.0,-213.0,-82.0,270.0,205.0,29.0,-13.0,-805.0,-171.0
22.0,-215.0,-82.0,240.0,208.0,31.0,-8.0,-813.0,-173.0
20.0,-218.0,-84.0,213.0,201.0,32.0,3.0,-826.0,-174.0
22.0,-220.0,-80.0,188.0,185.0,32.0,7.0,-844.0,-173.0
26.0,-225.0,-86.0,166.0,161.0,30.0,15.0,-851.0,-174.0
24.0,-225.0,-84.0,151.0,133.0,26.0,16.0,-863.0,-180.0
24.0,-225.0,-83.0,143.0,101.0,17.0,21.0,-868.0,-186.0
22.0,-226.0,-86.0,140.0,69.0,8.0,15.0,-874.0,-183.0
24.0,-234.0,-85.0,142.0,39.0,-6.0,15.0,-874.0,-175.0
23.0,-230.0,-86.0,152.0,14.0,-19.0,11.0,-866.0,-178.0
22.0,-228.0,-88.0,166.0,-6.0,-30.0,-3.0,-856.0,-175.0
17.0,-225.0,-83.0,182.0,-19.0,-39.0,-14.0,-844.0,-171.0
16.0,-224.0,-85.0,195.0,-28.0,-43.0,-20.0,-835.0,-169.0
14.0,-219.0,-85.0,207.0,-33.0,-43.0,-29.0,-829.0,-174.0
14.0,-214.0,-80.0,210.0,-34.0,-40.0,-38.0,-824.0,-174.0
11.0,-215.0,-84.0,210.0,-34.0,-33.0,-34.0,-814.0,-176.0
15.0,-212.0,-81.0,200.0,-31.0,-26.0,-32.0,-811.0,-177.0
12.0,-210.0,-84.0,183.0,-21.0,-18.0,-38.0,-809.0,-178.0
15.0,-214.0,-88.0,159.0,-10.0,-13.0,-26.0,-805.0,-180.0
18.0,-214.0,-88.0,129.0,2.0,-11.0,-16.0,-807.0,-184.0
20.0,-214.0,-88.0,95.0,13.0,-10.0,3.0,-817.0,-185.0
27.0,-219.0,-84.0,57.0,25.0,-14.0,11.0,-828.0,-175.0
29.0,-222.0,-84.0,27.0,32.0,-19.0,25.0,-841.0,-179.0
32.0,-226.0,-82.0,-10.0,38.0,-31.0,32.0,-860.0,-180.0
31.0,-230.0,-82.0,-47.0,42.0,-43.0,42.0,-876.0,-175.0
30.0,-234.0,-82.0,-75.0,41.0,-57.0,39.0,-887.0,-175.0
32.0,-241.0,-83.0,-96.0,35.0,-71.0,43.0,-904.0,-173.0
27.0,-241.0,-84.0,-106.0,19.0,-84.0,30.0,-922.0,-176.0
24.0,-242.0,-84.0,-102.0,-2.0,-94.0,28.0,-928.0,-175.0
25.0,-238.0,-88.0,-87.0,-28.0,-106.0,17.0,-928.0,-176.0
24.0,-245.0,-83.0,-60.0,-52.0,-119.0,5.0,-923.0,-168.0
23.0,-241.0,-77.0,-20.0,-72.0,-129.0,0.0,-909.0,-171.0
20.0,-238.0,-80.0,31.0,-86.0,-138.0,-11.0,-890.0,-150.0
13.0,-232.0,-78.0,85.0,-95.0,-145.0,-21.0,-870.0,-158.0
13.0,-224.0,-82.0,137.0,-103.0,-153.0,-23.0,-844.0,-164.0
12.0,-215.0,-79.0,177.0,-107.0,-157.0,-32.0,-821.0,-158.0
17.0,-213.0,-82.0,197.0,-108.0,-159.0,-31.0,-807.0,-163.0
15.0,-205.0,-80.0,197.0,-101.0,-157.0,-25.0,-788.0,-165.0
20.0,-209.0,-84.0,178.0,-82.0,-153.0,-17.0,-777.0,-161.0
21.0,-206.0,-82.0,138.0,-52.0,-146.0,-8.0,-777.0,-158.0
22.0,-202.0,-88.0,81.0,-15.0,-136.0,-11.0,-790.0,-171.0
17.0,-208.0,-84.0,7.0,20.0,-124.0,-6.0,-804.0,-182.0
18.0,-211.0,-88.0,-85.0,44.0,-107.0,-4.0,-819.0,-187.0
23.0,-220.0,-90.0,-181.0,51.0,-90.0,1.0,-841.0,-193.0
24.0,-226.0,-90.0,-275.0,46.0,-70.0,17.0,-870.0,-199.0
28.0,-239.0,-87.0,-358.0,32.0,-51.0,24.0,-914.0,-200.0
29.0,-248.0,-91.0,-424.0,18.0,-35.0,31.0,-943.0,-204.0
29.0,-254.0,-91.0,-467.0,9.0,-25.0,28.0,-975.0,-205.0
27.0,-263.0,-89.0,-487.0,4.0,-18.0,33.0,-1004.0,-197.0
32.0,-273.0,-89.0,-483.0,6.0,-16.0,34.0,-1031.0,-196.0
32.0,-281.0,-88.0,-458.0,14.0,-20.0,34.0,-1064.0,-190.0
29.0,-282.0,-90.0,-423.0,24.0,-29.0,37.0,-1079.0,-189.0
31.0,-290.0,-83.0,-378.0,35.0,-41.0,41.0,-1099.0,-191.0
34.0,-292.0,-83.0,-329.0,40.0,-55.0,39.0,-1107.0,-183.0
35.0,-296.0,-84.0,-278.0,42.0,-72.0,38.0,-1115.0,-177.0
33.0,-297.0,-83.0,-221.0,39.0,-86.0,39.0,-1121.0,-173.0
31.0,-296.0,-81.0,-163.0,33.0,-103.0,45.0,-1126.0,-174.0
32.0,-296.0,-82.0,-109.0,24.0,-116.0,39.0,-1119.0,-173.0
31.0,-292.0,-82.0,-50.0,15.0,-129.0,42.0,-1105.0,-173.0
31.0,-288.0,-80.0,15.0,7.0,-140.0,49.0,-1087.0,-162.0
33.0,-285.0,-83.0,83.0,3.0,-147.0,47.0,-1068.0,-153.0
34.0,-278.0,-80.0,150.0,-1.0,-151.0,44.0,-1043.0,-152.0
28.0,-269.0,-84.0,212.0,-2.0,-150.0,38.0,-1027.0,-157.0
29.0,-264.0,-80.0,263.0,-3.0,-145.0,36.0,-1009.0,-155.0
28.0,-260.0,-79.0,298.0,-1.0,-138.0,28.0,-994.0,-163.0
27.0,-255.0,-82.0,310.0,0.0,-125.0,17.0,-969.0,-173.0
27.0,-250.0,-84.0,297.0,-2.0,-108.0,22.0,-958.0,-190.0
27.0,-249.0,-87.0,263.0,-6.0,-89.0,26.0,-943.0,-190.0
25.0,-244.0,-87.0,213.0,-11.0,-68.0,27.0,-937.0,-194.0
28.0,-242.0,-89.0,154.0,-18.0,-49.0,33.0,-930.0,-180.0
33.0,-243.0,-84.0,99.0,-21.0,-33.0,42.0,-925.0,-182.0
34.0,-242.0,-84.0,51.0,-26.0,-21.0,51.0,-926.0,-174.0
41.0,-237.0,-83.0,9.0,-30.0,-12.0,57.0,-922.0,-170.0
36.0,-242.0,-85.0,-19.0,-35.0,-9.0,60.0,-920.0,-157.0
40.0,-245.0,-77.0,-39.0,-41.0,-6.0,66.0,-925.0,-155.0
38.0,-242.0,-75.0,-49.0,-44.0,-7.0,72.0,-925.0,-148.0
38.0,-243.0,-76.0,-52.0,-46.0,-7.0,74.0,-926.0,-131.0
44.0,-247.0,-73.0,-56.0,-44.0,-5.0,63.0,-930.0,-135.0
41.0,-247.0,-76.0,-59.0,-36.0,0.0,67.0,-935.0,-133.0
38.0,-248.0,-73.0,-65.0,-25.0,6.0,56.0,-937.0,-145.0
36.0,-249.0,-79.0,-80.0,-10.0,15.0,47.0,-948.0,-150.0
34.0,-252.0,-80.0,-97.0,3.0,27.0,46.0,-962.0,-153.0
31.0,-256.0,-79.0,-120.0,18.0,39.0,35.0,-971.0,-166.0
32.0,-262.0,-86.0,-139.0,28.0,51.0,32.0,-994.0,-170.0
30.0,-262.0,-81.0,-154.0,35.0,60.0,32.0,-1006.0,-170.0
28.0,-270.0,-80.0,-159.0,35.0,68.0,31.0,-1023.0,-169.0
25.0,-271.0,-78.0,-153.0,34.0,74.0,24.0,-1041.0,-166.0
29.0,-275.0,-81.0,-133.0,30.0,75.0,22.0,-1048.0,-161.0
27.0,-281.0,-84.0,-106.0,26.0,73.0,19.0,-1062.0,-170.0
25.0,-280.0,-81.0,-74.0,21.0,68.0,23.0,-1064.0,-173.0
25.0,-278.0,-85.0,-39.0,17.0,59.0,15.0,-1062.0,-177.0
25.0,-275.0,-84.0,-8.0,13.0,52.0,22.0,-1061.0,-179.0
27.0,-276.0,-85.0,23.0,7.0,41.0,15.0,-1053.0,-182.0
27.0,-271.0,-89.0,45.0,4.0,34.0,24.0,-1042.0,-184.0
28.0,-268.0,-87.0,64.0,5.0,25.0,22.0,-1028.0,-182.0
28.0,-266.0,-88.0,79.0,6.0,18.0,19.0,-1013.0,-180.0
28.0,-261.0,-85.0,91.0,10.0,16.0,27.0,-1007.0,-183.0
29.0,-259.0,-85.0,98.0,15.0,14.0,27.0,-992.0,-181.0
31.0,-258.0,-83.0,99.0,24.0,14.0,34.0,-984.0,-178.0
31.0,-257.0,-84.0,97.0,32.0,13.0,41.0,-972.0,-171.0
34.0,-256.0,-82.0,95.0,40.0,17.0,45.0,-965.0,-173.0
33.0,-252.0,-81.0,89.0,49.0,20.0,52.0,-962.0,-172.0
40.0,-253.0,-82.0,80.0,59.0,24.0,56.0,-959.0,-169.0
38.0,-246.0,-81.0,74.0,68.0,29.0,61.0,-950.0,-168.0
40.0,-248.0,-83.0,67.0,78.0,33.0,69.0,-944.0,-169.0
43.0,-246.0,-82.0,60.0,87.0,37.0,75.0,-940.0,-176.0
43.0,-247.0,-85.0,56.0,93.0,41.0,75.0,-933.0,-176.0
43.0,-245.0,-83.0,54.0,98.0,45.0,80.0,-930.0,-178.0
43.0,-247.0,-81.0,45.0,100.0,48.0,79.0,-936.0,-176.0
41.0,-245.0,-84.0,36.0,104.0,51.0,74.0,-931.0,-177.0
40.0,-246.0,-85.0,23.0,109.0,51.0,70.0,-934.0,-184.0
40.0,-249.0,-82.0,6.0,113.0,52.0,61.0,-938.0,-190.0
36.0,-251.0,-90.0,-15.0,119.0,53.0,57.0,-946.0,-199.0
33.0,-249.0,-91.0,-43.0,124.0,51.0,51.0,-959.0,-196.0
30.0,-256.0,-93.0,-74.0,125.0,50.0,35.0,-967.0,-201.0
31.0,-259.0,-91.0,-105.0,125.0,45.0,27.0,-985.0,-194.0
28.0,-267.0,-92.0,-132.0,125.0,41.0,16.0,-1003.0,-199.0
22.0,-265.0,-88.0,-157.0,123.0,36.0,10.0,-1010.0,-200.0
19.0,-270.0,-89.0,-172.0,121.0,30.0,0.0,-1028.0,-187.0
16.0,-271.0,-87.0,-179.0,119.0,24.0,-7.0,-1038.0,-184.0
14.0,-276.0,-85.0,-175.0,120.0,19.0,-19.0,-1060.0,-179.0
15.0,-280.0,-79.0,-162.0,120.0,16.0,-32.0,-1068.0,-168.0
15.0,-281.0,-81.0,-141.0,121.0,12.0,-36.0,-1072.0,-167.0
11.0,-281.0,-81.0,-112.0,122.0,11.0,-42.0,-1076.0,-162.0
12.0,-282.0,-86.0,-79.0,120.0,8.0,-43.0,-1070.0,-165.0
8.0,-284.0,-78.0,-46.0,118.0,5.0,-41.0,-1065.0,-167.0
17.0,-275.0,-83.0,-13.0,115.0,4.0,-39.0,-1060.0,-158.0
13.0,-274.0,-82.0,11.0,107.0,3.0,-31.0,-1044.0,-156.0
15.0,-270.0,-79.0,37.0,102.0,2.0,-26.0,-1035.0,-153.0
13.0,-267.0,-75.0,60.0,96.0,3.0,-24.0,-1021.0,-150.0
17.0,-264.0,-75.0,79.0,87.0,3.0,-17.0,-1012.0,-145.0
19.0,-264.0,-75.0,93.0,78.0,5.0,-13.0,-999.0,-143.0
17.0,-258.0,-74.0,104.0,68.0,7.0,-7.0,-990.0,-135.0
18.0,-256.0,-74.0,112.0,64.0,10.0,-4.0,-982.0,-134.0
19.0,-255.0,-70.0,115.0,58.0,12.0,-3.0,-969.0,-132.0
21.0,-253.0,-70.0,113.0,56.0,17.0,-1.0,-953.0,-129.0
20.0,-249.0,-73.0,105.0,58.0,24.0,-1.0,-943.0,-133.0
29.0,-249.0,-71.0,95.0,59.0,28.0,0.0,-939.0,-130.0
24.0,-244.0,-69.0,81.0,60.0,34.0,8.0,-930.0,-126.0
22.0,-242.0,-71.0,64.0,59.0,39.0,1.0,-928.0,-125.0
24.0,-245.0,-72.0,47.0,56.0,43.0,3.0,-927.0,-124.0
24.0,-243.0,-72.0,25.0,53.0,44.0,3.0,-926.0,-127.0
22.0,-242.0,-71.0,5.0,48.0,46.0,5.0,-929.0,-127.0
22.0,-244.0,-70.0,-16.0,43.0,47.0,5.0,-935.0,-130.0
23.0,-247.0,-72.0,-38.0,36.0,50.0,0.0,-937.0,-125.0
20.0,-248.0,-75.0,-57.0,27.0,52.0,-3.0,-946.0,-130.0
22.0,-254.0,-74.0,-77.0,17.0,52.0,-3.0,-960.0,-138.0
17.0,-251.0,-78.0,-95.0,7.0,55.0,-12.0,-968.0,-150.0
19.0,-258.0,-76.0,-111.0,-3.0,55.0,-8.0,-983.0,-151.0
16.0,-260.0,-80.0,-125.0,-13.0,53.0,-8.0,-992.0,-160.0
17.0,-263.0,-79.0,-137.0,-21.0,54.0,-17.0,-1001.0,-166.0
17.0,-266.0,-88.0,-147.0,-28.0,52.0,-17.0,-1011.0,-170.0
18.0,-271.0,-84.0,-154.0,-32.0,49.0,-19.0,-1019.0,-173.0
16.0,-269.0,-85.0,-155.0,-33.0,46.0,-19.0,-1022.0,-174.0
17.0,-270.0,-80.0,-150.0,-33.0,40.0,-21.0,-1036.0,-172.0
15.0,-271.0,-81.0,-139.0,-30.0,33.0,-22.0,-1035.0,-174.0
19.0,-275.0,-76.0,-121.0,-25.0,28.0,-21.0,-1032.0,-170.0
16.0,-273.0,-81.0,-93.0,-17.0,20.0,-21.0,-1037.0,-172.0
17.0,-273.0,-81.0,-62.0,-6.0,12.0,-29.0,-1031.0,-166.0
17.0,-269.0,-79.0,-32.0,4.0,7.0,-24.0,-1024.0,-171.0
14.0,-268.0,-78.0,-5.0,12.0,3.0,-32.0,-1017.0,-173.0
12.0,-263.0,-83.0,20.0,16.0,-1.0,-31.0,-1005.0,-168.0
17.0,-262.0,-80.0,39.0,19.0,-5.0,-24.0,-994.0,-166.0
19.0,-260.0,-77.0,51.0,25.0,-6.0,-15.0,-992.0,-168.0
19.0,-256.0,-83.0,54.0,33.0,-7.0,-6.0,-987.0,-163.0
21.0,-254.0,-77.0,49.0,39.0,-6.0,5.0,-977.0,-164.0
23.0,-257.0,-78.0,38.0,43.0,-2.0,4.0,-969.0,-150.0
23.0,-256.0,-74.0,23.0,46.0,0.0,8.0,-965.0,-150.0
21.0,-254.0,-76.0,8.0,45.0,3.0,13.0,-969.0,-148.0
24.0,-252.0,-76.0,-5.0,41.0,4.0,17.0,-968.0,-145.0
36.0,-253.0,-77.0,-17.0,36.0,5.0,20.0,-968.0,-141.0
23.0,-253.0,-75.0,-22.0,30.0,3.0,22.0,-965.0,-136.0
26.0,-257.0,-74.0,-26.0,26.0,6.0,20.0,-967.0,-143.0
23.0,-256.0,-77.0,-27.0,23.0,6.0,14.0,-977.0,-142.0
24.0,-257.0,-78.0,-29.0,20.0,8.0,13.0,-980.0,-148.0
25.0,-258.0,-78.0,-29.0,13.0,8.0,11.0,-984.0,-149.0
23.0,-257.0,-76.0,-30.0,2.0,10.0,9.0,-980.0,-149.0
26.0,-257.0,-80.0,-30.0,-6.0,10.0,8.0,-982.0,-151.0
24.0,-259.0,-75.0,-32.0,-13.0,10.0,6.0,-983.0,-149.0
25.0,-258.0,-78.0,-31.0,-12.0,8.0,13.0,-989.0,-157.0
23.0,-259.0,-80.0,-25.0,-9.0,7.0,14.0,-992.0,-146.0
23.0,-261.0,-75.0,-20.0,-4.0,3.0,15.0,-999.0,-147.0
25.0,-263.0,-75.0,-15.0,6.0,0.0,12.0,-997.0,-151.0
23.0,-262.0,-76.0,-7.0,15.0,-3.0,13.0,-1001.0,-151.0
26.0,-265.0,-80.0,2.0,26.0,-6.0,14.0,-1000.0,-157.0
25.0,-263.0,-81.0,12.0,34.0,-9.0,11.0,-1003.0,-160.0
26.0,-261.0,-81.0,22.0,39.0,-12.0,8.0,-999.0,-163.0
27.0,-261.0,-81.0,33.0,43.0,-16.0,13.0,-1000.0,-164.0
25.0,-264.0,-77.0,46.0,44.0,-18.0,16.0,-1003.0,-168.0
24.0,-261.0,-77.0,56.0,43.0,-23.0,9.0,-1000.0,-166.0
21.0,-261.0,-78.0,63.0,40.0,-25.0,2.0,-997.0,-169.0
18.0,-260.0,-82.0,66.0,38.0,-26.0,-2.0,-995.0,-164.0
19.0,-260.0,-77.0,64.0,34.0,-28.0,-6.0,-994.0,-164.0
21.0,-261.0,-78.0,61.0,32.0,-27.0,-14.0,-994.0,-168.0
17.0,-259.0,-81.0,53.0,29.0,-29.0,-16.0,-992.0,-165.0
16.0,-258.0,-79.0,47.0,28.0,-29.0,-23.0,-992.0,-165.0
15.0,-259.0,-80.0,40.0,29.0,-30.0,-24.0,-992.0,-166.0
15.0,-257.0,-77.0,32.0,30.0,-32.0,-31.0,-987.0,-165.0
11.0,-259.0,-79.0,26.0,31.0,-36.0,-33.0,-987.0,-156.0
17.0,-257.0,-76.0,22.0,32.0,-39.0,-26.0,-986.0,-159.0
15.0,-258.0,-80.0,18.0,34.0,-40.0,-24.0,-985.0,-160.0
14.0,-259.0,-78.0,13.0,33.0,-40.0,-23.0,-986.0,-153.0
14.0,-260.0,-75.0,7.0,30.0,-38.0,-26.0,-986.0,-150.0
14.0,-258.0,-77.0,3.0,24.0,-38.0,-27.0,-983.0,-146.0
14.0,-258.0,-80.0,-1.0,14.0,-34.0,-25.0,-987.0,-144.0
14.0,-257.0,-75.0,-2.0,2.0,-33.0,-23.0,-982.0,-144.0
17.0,-259.0,-78.0,-5.0,-8.0,-30.0,-19.0,-986.0,-148.0
17.0,-259.0,-79.0,-4.0,-19.0,-30.0,-18.0,-984.0,-145.0
17.0,-259.0,-76.0,-7.0,-27.0,-26.0,-19.0,-984.0,-145.0
19.0,-257.0,-73.0,-7.0,-35.0,-26.0,-12.0,-985.0,-146.0
20.0,-255.0,-74.0,-8.0,-42.0,-24.0,-4.0,-979.0,-147.0
16.0,-256.0,-81.0,-11.0,-48.0,-24.0,-1.0,-978.0,-145.0
17.0,-255.0,-77.0,-16.0,-51.0,-24.0,-5.0,-984.0,-144.0
24.0,-262.0,-69.0,-20.0,-53.0,-25.0,-2.0,-980.0,-143.0
22.0,-255.0,-72.0,-28.0,-52.0,-25.0,3.0,-980.0,-145.0
21.0,-256.0,-74.0,-36.0,-47.0,-24.0,7.0,-976.0,-135.0
24.0,-256.0,-75.0,-44.0,-42.0,-23.0,10.0,-983.0,-136.0
26.0,-257.0,-70.0,-49.0,-36.0,-22.0,12.0,-986.0,-133.0
26.0,-257.0,-68.0,-52.0,-32.0,-19.0,21.0,-986.0,-127.0
26.0,-260.0,-75.0,-56.0,-28.0,-17.0,20.0,-984.0,-121.0
27.0,-258.0,-70.0,-54.0,-26.0,-14.0,22.0,-994.0,-128.0
27.0,-261.0,-69.0,-49.0,-25.0,-12.0,20.0,-991.0,-133.0
25.0,-261.0,-77.0,-47.0,-23.0,-9.0,20.0,-997.0,-132.0
24.0,-262.0,-69.0,-41.0,-26.0,-9.0,14.0,-993.0,-136.0
22.0,-259.0,-75.0,-36.0,-30.0,-8.0,18.0,-994.0,-142.0
25.0,-260.0,-72.0,-29.0,-32.0,-8.0,11.0,-992.0,-146.0
25.0,-259.0,-75.0,-29.0,-34.0,-8.0,13.0,-988.0,-143.0
25.0,-259.0,-75.0,-29.0,-34.0,-10.0,8.0,-993.0,-146.0
26.0,-260.0,-74.0,-28.0,-32.0,-11.0,11.0,-990.0,-138.0
25.0,-260.0,-74.0,-26.0,-29.0,-13.0,10.0,-989.0,-137.0
24.0,-259.0,-72.0,-30.0,-24.0,-14.0,13.0,-988.0,-133.0
27.0,-261.0,-72.0,-31.0,-21.0,-17.0,15.0,-993.0,-137.0
24.0,-260.0,-73.0,-35.0,-19.0,-18.0,13.0,-994.0,-134.0
20.0,-260.0,-74.0,-38.0,-18.0,-20.0,14.0,-999.0,-130.0
29.0,-265.0,-70.0,-42.0,-19.0,-20.0,15.0,-999.0,-128.0
25.0,-261.0,-73.0,-46.0,-22.0,-20.0,19.0,-996.0,-123.0
27.0,-264.0,-67.0,-47.0,-24.0,-19.0,10.0,-999.0,-127.0
27.0,-262.0,-71.0,-45.0,-25.0,-19.0,15.0,-1002.0,-119.0
26.0,-265.0,-70.0,-43.0,-24.0,-18.0,12.0,-1000.0,-114.0
24.0,-264.0,-68.0,-37.0,-21.0,-18.0,5.0,-997.0,-117.0
24.0,-262.0,-73.0,-31.0,-15.0,-17.0,9.0,-996.0,-117.0
23.0,-262.0,-72.0,-21.0,-6.0,-18.0,-1.0,-994.0,-125.0
22.0,-259.0,-72.0,-12.0,2.0,-18.0,0.0,-993.0,-129.0
23.0,-258.0,-79.0,0.0,13.0,-20.0,-1.0,-982.0,-142.0
22.0,-258.0,-79.0,11.0,22.0,-22.0,-3.0,-977.0,-142.0
21.0,-255.0,-74.0,20.0,29.0,-26.0,1.0,-974.0,-149.0
14.0,-251.0,-80.0,23.0,34.0,-30.0,0.0,-968.0,-160.0
21.0,-250.0,-78.0,22.0,35.0,-33.0,5.0,-964.0,-160.0
22.0,-254.0,-75.0,9.0,29.0,-33.0,1.0,-962.0,-159.0
22.0,-254.0,-78.0,-14.0,22.0,-30.0,-1.0,-958.0,-157.0
21.0,-253.0,-79.0,-41.0,14.0,-24.0,2.0,-968.0,-150.0
23.0,-255.0,-78.0,-68.0,7.0,-19.0,11.0,-976.0,-150.0
25.0,-258.0,-75.0,-95.0,3.0,-14.0,13.0,-982.0,-141.0
23.0,-261.0,-79.0,-114.0,1.0,-10.0,14.0,-988.0,-139.0
22.0,-259.0,-75.0,-128.0,2.0,-8.0,17.0,-992.0,-136.0
22.0,-266.0,-74.0,-136.0,1.0,-8.0,13.0,-1000.0,-137.0
25.0,-266.0,-75.0,-138.0,1.0,-8.0,9.0,-1003.0,-137.0
23.0,-262.0,-74.0,-134.0,-5.0,-8.0,10.0,-1003.0,-133.0
25.0,-261.0,-73.0,-130.0,-13.0,-8.0,9.0,-997.0,-136.0
24.0,-260.0,-73.0,-124.0,-22.0,-8.0,6.0,-999.0,-137.0
25.0,-261.0,-74.0,-120.0,-30.0,-8.0,12.0,-995.0,-132.0
23.0,-261.0,-72.0,-114.0,-36.0,-7.0,5.0,-994.0,-135.0
22.0,-261.0,-73.0,-112.0,-40.0,-7.0,4.0,-997.0,-132.0
22.0,-262.0,-68.0,-112.0,-40.0,-5.0,1.0,-994.0,-131.0
23.0,-260.0,-72.0,-113.0,-37.0,-5.0,7.0,-993.0,-126.0
23.0,-260.0,-72.0,-115.0,-33.0,-4.0,7.0,-991.0,-122.0
25.0,-259.0,-70.0,-112.0,-23.0,-5.0,2.0,-993.0,-115.0
17.0,-259.0,-67.0,-107.0,-15.0,-6.0,12.0,-988.0,-114.0
27.0,-261.0,-71.0,-104.0,-3.0,-8.0,15.0,-1000.0,-114.0
25.0,-264.0,-66.0,-99.0,8.0,-11.0,18.0,-998.0,-113.0
26.0,-264.0,-67.0,-89.0,15.0,-14.0,11.0,-1006.0,-110.0
25.0,-262.0,-68.0,-77.0,22.0,-17.0,16.0,-998.0,-115.0
26.0,-260.0,-72.0,-61.0,30.0,-21.0,17.0,-1001.0,-115.0
25.0,-262.0,-69.0,-44.0,36.0,-24.0,11.0,-1000.0,-123.0
26.0,-263.0,-72.0,-26.0,40.0,-28.0,11.0,-1001.0,-133.0
25.0,-264.0,-72.0,-10.0,44.0,-30.0,11.0,-997.0,-137.0
18.0,-259.0,-71.0,1.0,43.0,-29.0,11.0,-991.0,-137.0
23.0,-255.0,-73.0,6.0,42.0,-28.0,14.0,-984.0,-138.0
27.0,-257.0,-82.0,12.0,38.0,-26.0,14.0,-989.0,-139.0
22.0,-257.0,-71.0,12.0,32.0,-22.0,4.0,-986.0,-134.0
22.0,-258.0,-74.0,6.0,27.0,-19.0,6.0,-989.0,-140.0
26.0,-260.0,-72.0,-1.0,23.0,-17.0,4.0,-992.0,-136.0
17.0,-257.0,-72.0,-16.0,19.0,-12.0,-2.0,-994.0,-133.0
23.0,-262.0,-72.0,-30.0,16.0,-9.0,1.0,-993.0,-130.0
21.0,-260.0,-75.0,-39.0,14.0,-5.0,5.0,-993.0,-131.0
19.0,-260.0,-72.0,-43.0,13.0,-5.0,4.0,-995.0,-128.0
19.0,-259.0,-74.0,-47.0,15.0,-6.0,0.0,-995.0,-127.0
23.0,-259.0,-68.0,-47.0,15.0,-8.0,2.0,-994.0,-127.0
17.0,-259.0,-71.0,-45.0,13.0,-11.0,0.0,-996.0,-129.0
18.0,-260.0,-73.0,-44.0,13.0,-13.0,1.0,-998.0,-130.0
23.0,-260.0,-71.0,-45.0,9.0,-13.0,4.0,-993.0,-129.0
17.0,-258.0,-69.0,-46.0,6.0,-11.0,-3.0,-989.0,-130.0
22.0,-259.0,-69.0,-48.0,0.0,-10.0,2.0,-988.0,-128.0
21.0,-259.0,-71.0,-55.0,-4.0,-7.0,3.0,-988.0,-125.0
20.0,-259.0,-72.0,-60.0,-9.0,-4.0,13.0,-993.0,-118.0
24.0,-260.0,-70.0,-66.0,-12.0,-3.0,11.0,-992.0,-120.0
26.0,-261.0,-66.0,-72.0,-17.0,-4.0,14.0,-995.0,-120.0
23.0,-263.0,-68.0,-75.0,-17.0,-4.0,10.0,-999.0,-110.0
24.0,-264.0,-68.0,-75.0,-19.0,-6.0,11.0,-1000.0,-112.0
20.0,-261.0,-67.0,-77.0,-18.0,-7.0,11.0,-996.0,-114.0
25.0,-265.0,-70.0,-76.0,-19.0,-10.0,8.0,-1000.0,-117.0
20.0,-260.0,-68.0,-76.0,-20.0,-12.0,4.0,-993.0,-116.0
22.0,-258.0,-72.0,-78.0,-20.0,-13.0,2.0,-993.0,-121.0
19.0,-260.0,-69.0,-82.0,-19.0,-13.0,3.0,-995.0,-122.0
21.0,-259.0,-69.0,-85.0,-20.0,-11.0,2.0,-989.0,-124.0
22.0,-260.0,-69.0,-90.0,-20.0,-12.0,-1.0,-994.0,-124.0
23.0,-258.0,-71.0,-95.0,-16.0,-12.0,5.0,-982.0,-118.0
22.0,-257.0,-68.0,-100.0,-15.0,-11.0,5.0,-987.0,-117.0
23.0,-258.0,-76.0,-105.0,-12.0,-9.0,6.0,-982.0,-125.0
22.0,-257.0,-66.0,-108.0,-11.0,-8.0,8.0,-982.0,-118.0
26.0,-258.0,-69.0,-110.0,-9.0,-6.0,12.0,-986.0,-122.0
24.0,-262.0,-69.0,-112.0,-8.0,-4.0,13.0,-983.0,-125.0
25.0,-257.0,-71.0,-114.0,-6.0,-2.0,15.0,-980.0,-127.0
27.0,-258.0,-78.0,-116.0,-5.0,-1.0,19.0,-986.0,-134.0
27.0,-260.0,-76.0,-118.0,-7.0,-2.0,20.0,-982.0,-138.0
29.0,-261.0,-74.0,-118.0,-10.0,-2.0,20.0,-983.0,-149.0
26.0,-258.0,-76.0,-114.0,-13.0,-1.0,26.0,-985.0,-141.0
31.0,-257.0,-73.0,-109.0,-17.0,-3.0,32.0,-985.0,-146.0
26.0,-256.0,-79.0,-102.0,-20.0,-4.0,30.0,-984.0,-148.0
31.0,-256.0,-76.0,-98.0,-19.0,-5.0,23.0,-990.0,-144.0
30.0,-258.0,-74.0,-94.0,-16.0,-5.0,29.0,-988.0,-144.0
27.0,-263.0,-78.0,-91.0,-13.0,-4.0,30.0,-990.0,-146.0
32.0,-261.0,-76.0,-88.0,-9.0,-6.0,25.0,-1001.0,-150.0
27.0,-262.0,-72.0,-87.0,-4.0,-6.0,35.0,-995.0,-139.0
29.0,-265.0,-75.0,-86.0,2.0,-7.0,29.0,-997.0,-144.0
26.0,-262.0,-74.0,-81.0,9.0,-7.0,24.0,-1001.0,-142.0
25.0,-262.0,-76.0,-77.0,13.0,-9.0,18.0,-1003.0,-139.0
24.0,-263.0,-75.0,-70.0,18.0,-10.0,12.0,-1010.0,-139.0
22.0,-263.0,-75.0,-67.0,21.0,-9.0,13.0,-1006.0,-144.0
24.0,-262.0,-73.0,-58.0,20.0,-11.0,11.0,-1003.0,-139.0
24.0,-263.0,-75.0,-51.0,19.0,-11.0,9.0,-1006.0,-142.0
25.0,-265.0,-79.0,-41.0,17.0,-11.0,4.0,-1007.0,-134.0
24.0,-271.0,-76.0,-32.0,16.0,-12.0,2.0,-997.0,-131.0
21.0,-261.0,-72.0,-24.0,16.0,-12.0,6.0,-995.0,-131.0
21.0,-258.0,-71.0,-19.0,15.0,-10.0,2.0,-994.0,-132.0
22.0,-257.0,-77.0,-17.0,16.0,-8.0,4.0,-990.0,-143.0
22.0,-258.0,-75.0,-19.0,17.0,-7.0,5.0,-986.0,-141.0
22.0,-257.0,-75.0,-20.0,18.0,-7.0,6.0,-984.0,-138.0
22.0,-260.0,-73.0,-29.0,17.0,-7.0,1.0,-984.0,-140.0
25.0,-259.0,-78.0,-39.0,17.0,-5.0,1.0,-987.0,-140.0
19.0,-257.0,-75.0,-51.0,14.0,-5.0,3.0,-987.0,-142.0
22.0,-257.0,-75.0,-62.0,10.0,-4.0,2.0,-985.0,-139.0
21.0,-261.0,-74.0,-74.0,7.0,-4.0,-2.0,-993.0,-141.0
16.0,-257.0,-77.0,-84.0,5.0,-3.0,0.0,-992.0,-141.0
21.0,-261.0,-76.0,-87.0,0.0,-1.0,-1.0,-994.0,-143.0
24.0,-263.0,-75.0,-88.0,-2.0,-2.0,5.0,-994.0,-138.0
22.0,-263.0,-75.0,-83.0,-2.0,-4.0,6.0,-1001.0,-138.0
24.0,-266.0,-77.0,-75.0,-3.0,-4.0,2.0,-1001.0,-140.0
24.0,-262.0,-76.0,-64.0,-2.0,-5.0,9.0,-1002.0,-146.0
25.0,-261.0,-77.0,-52.0,-2.0,-7.0,9.0,-1000.0,-145.0
24.0,-260.0,-78.0,-40.0,1.0,-6.0,5.0,-997.0,-145.0
23.0,-258.0,-73.0,-30.0,5.0,-6.0,12.0,-992.0,-150.0
23.0,-257.0,-76.0,-23.0,7.0,-6.0,14.0,-987.0,-150.0
26.0,-258.0,-74.0,-22.0,10.0,-8.0,15.0,-983.0,-149.0
23.0,-260.0,-70.0,-24.0,11.0,-8.0,17.0,-984.0,-149.0
27.0,-256.0,-77.0,-30.0,12.0,-7.0,9.0,-982.0,-148.0
23.0,-256.0,-75.0,-36.0,12.0,-7.0,10.0,-983.0,-149.0
25.0,-258.0,-79.0,-44.0,12.0,-6.0,16.0,-982.0,-149.0
22.0,-257.0,-74.0,-49.0,11.0,-5.0,14.0,-985.0,-143.0
20.0,-257.0,-75.0,-55.0,8.0,-3.0,10.0,-988.0,-144.0
23.0,-260.0,-75.0,-59.0,5.0,-4.0,8.0,-990.0,-142.0
25.0,-259.0,-73.0,-60.0,2.0,-2.0,8.0,-981.0,-143.0
24.0,-256.0,-72.0,-59.0,-3.0,-1.0,7.0,-987.0,-137.0
23.0,-257.0,-75.0,-59.0,-6.0,1.0,11.0,-985.0,-137.0
28.0,-263.0,-80.0,-57.0,-10.0,1.0,5.0,-983.0,-138.0
28.0,-260.0,-81.0,-54.0,-11.0,4.0,12.0,-987.0,-136.0
25.0,-259.0,-74.0,-54.0,-11.0,3.0,8.0,-986.0,-137.0
24.0,-259.0,-75.0,-55.0,-12.0,4.0,14.0,-986.0,-135.0
25.0,-259.0,-72.0,-57.0,-10.0,4.0,12.0,-988.0,-140.0
25.0,-258.0,-73.0,-58.0,-6.0,4.0,7.0,-990.0,-142.0
24.0,-260.0,-76.0,-62.0,-1.0,4.0,9.0,-991.0,-139.0
22.0,-259.0,-77.0,-66.0,3.0,5.0,9.0,-992.0,-146.0
25.0,-261.0,-77.0,-69.0,7.0,7.0,8.0,-995.0,-142.0
20.0,-258.0,-78.0,-70.0,9.0,9.0,7.0,-992.0,-147.0
26.0,-261.0,-77.0,-70.0,11.0,8.0,7.0,-993.0,-146.0
21.0,-261.0,-79.0,-70.0,12.0,6.0,8.0,-1002.0,-144.0
27.0,-256.0,-74.0,-64.0,10.0,6.0,11.0,-995.0,-153.0
24.0,-260.0,-77.0,-59.0,9.0,4.0,10.0,-994.0,-150.0
29.0,-258.0,-79.0,-55.0,9.0,2.0,13.0,-993.0,-149.0
22.0,-260.0,-81.0,-49.0,10.0,1.0,12.0,-993.0,-149.0
27.0,-257.0,-77.0,-42.0,10.0,0.0,16.0,-989.0,-156.0
24.0,-256.0,-77.0,-38.0,13.0,-2.0,14.0,-990.0,-153.0
26.0,-258.0,-78.0,-36.0,15.0,-1.0,16.0,-986.0,-148.0
25.0,-255.0,-77.0,-34.0,13.0,0.0,14.0,-987.0,-151.0
26.0,-262.0,-77.0,-35.0,14.0,-2.0,16.0,-986.0,-149.0
24.0,-260.0,-80.0,-38.0,13.0,-2.0,21.0,-980.0,-155.0
26.0,-257.0,-78.0,-42.0,12.0,-5.0,17.0,-982.0,-153.0
