acc1_x,acc1_y,acc1_z,gyro_x,gyro_y,gyro_z,acc2_x,acc2_y,acc2_z
-2.0,-8.0,250.0,-200.0,102.0,7.0,3.0,-36.0,968.0
-1.0,-7.0,250.0,-206.0,101.0,6.0,9.0,-39.0,976.0
0.0,-9.0,248.0,-212.0,100.0,5.0,6.0,-37.0,981.0
0.0,-8.0,249.0,-220.0,99.0,6.0,11.0,-37.0,975.0
0.0,-12.0,244.0,-224.0,99.0,6.0,5.0,-42.0,971.0
0.0,-11.0,245.0,-231.0,97.0,5.0,5.0,-43.0,968.0
-3.0,-13.0,243.0,-235.0,95.0,5.0,2.0,-52.0,958.0
0.0,-12.0,244.0,-236.0,89.0,6.0,1.0,-54.0,960.0
-2.0,-17.0,245.0,-235.0,85.0,7.0,8.0,-57.0,956.0
-2.0,-17.0,244.0,-230.0,80.0,8.0,3.0,-64.0,952.0
-1.0,-17.0,243.0,-225.0,74.0,8.0,8.0,-62.0,954.0
-1.0,-15.0,241.0,-219.0,71.0,9.0,7.0,-61.0,953.0
-3.0,-16.0,245.0,-211.0,67.0,11.0,3.0,-60.0,955.0
-5.0,-15.0,246.0,-209.0,64.0,13.0,5.0,-59.0,955.0
-1.0,-15.0,246.0,-206.0,63.0,12.0,9.0,-60.0,956.0
-3.0,-13.0,242.0,-202.0,63.0,14.0,9.0,-54.0,956.0
-1.0,-15.0,242.0,-205.0,64.0,14.0,4.0,-55.0,954.0
-3.0,-11.0,243.0,-206.0,65.0,13.0,4.0,-50.0,956.0
-1.0,-12.0,244.0,-209.0,66.0,13.0,-1.0,-50.0,952.0
-1.0,-13.0,241.0,-212.0,69.0,13.0,7.0,-45.0,958.0
-1.0,-14.0,242.0,-216.0,72.0,11.0,5.0,-49.0,955.0
-1.0,-10.0,243.0,-220.0,73.0,13.0,5.0,-45.0,955.0
-1.0,-14.0,242.0,-221.0,76.0,13.0,6.0,-48.0,960.0
-5.0,-13.0,244.0,-224.0,78.0,12.0,12.0,-57.0,954.0
-1.0,-15.0,242.0,-227.0,80.0,14.0,7.0,-55.0,957.0
-1.0,-14.0,241.0,-228.0,82.0,15.0,12.0,-62.0,957.0
-3.0,-16.0,241.0,-228.0,84.0,15.0,8.0,-60.0,958.0
-1.0,-18.0,241.0,-227.0,86.0,17.0,7.0,-66.0,956.0
-2.0,-21.0,241.0,-226.0,88.0,17.0,11.0,-75.0,954.0
-1.0,-19.0,242.0,-222.0,89.0,18.0,6.0,-73.0,956.0
0.0,-23.0,244.0,-217.0,91.0,17.0,8.0,-78.0,956.0
-1.0,-21.0,241.0,-212.0,91.0,17.0,7.0,-82.0,956.0
0.0,-24.0,243.0,-206.0,93.0,18.0,5.0,-90.0,955.0
-2.0,-24.0,246.0,-197.0,92.0,17.0,9.0,-93.0,953.0
-4.0,-23.0,243.0,-189.0,91.0,15.0,5.0,-96.0,956.0
-2.0,-24.0,240.0,-180.0,91.0,14.0,4.0,-90.0,952.0
-6.0,-28.0,242.0,-172.0,92.0,13.0,9.0,-98.0,951.0
-3.0,-24.0,242.0,-163.0,89.0,14.0,5.0,-94.0,955.0
-2.0,-27.0,241.0,-154.0,87.0,12.0,6.0,-99.0,952.0
-1.0,-23.0,242.0,-146.0,88.0,12.0,4.0,-97.0,953.0
-1.0,-24.0,242.0,-139.0,87.0,11.0,1.0,-97.0,949.0
-1.0,-26.0,239.0,-132.0,85.0,9.0,5.0,-101.0,947.0
0.0,-25.0,239.0,-127.0,84.0,9.0,4.0,-96.0,949.0
-4.0,-27.0,240.0,-121.0,85.0,9.0,4.0,-99.0,950.0
-6.0,-23.0,240.0,-116.0,85.0,9.0,5.0,-101.0,948.0
-3.0,-22.0,245.0,-113.0,85.0,6.0,4.0,-101.0,948.0
-2.0,-27.0,246.0,-109.0,85.0,6.0,5.0,-100.0,950.0
-3.0,-27.0,245.0,-105.0,85.0,6.0,4.0,-102.0,944.0
-1.0,-26.0,239.0,-103.0,87.0,5.0,6.0,-94.0,944.0
-1.0,-26.0,239.0,-98.0,89.0,4.0,6.0,-94.0,946.0
-2.0,-27.0,240.0,-94.0,89.0,4.0,5.0,-97.0,940.0
0.0,-29.0,241.0,-89.0,91.0,3.0,4.0,-101.0,944.0
-3.0,-28.0,238.0,-83.0,92.0,4.0,4.0,-100.0,943.0
-2.0,-25.0,242.0,-79.0,92.0,3.0,6.0,-93.0,943.0
-2.0,-25.0,240.0,-73.0,90.0,3.0,4.0,-97.0,946.0
-2.0,-23.0,241.0,-67.0,91.0,4.0,7.0,-99.0,945.0
-2.0,-27.0,240.0,-61.0,91.0,4.0,-3.0,-102.0,951.0
-6.0,-24.0,240.0,-54.0,90.0,5.0,-2.0,-95.0,951.0
-3.0,-25.0,243.0,-48.0,89.0,3.0,1.0,-97.0,949.0
-2.0,-27.0,243.0,-44.0,89.0,4.0,1.0,-96.0,947.0
-3.0,-26.0,244.0,-37.0,89.0,2.0,4.0,-95.0,944.0
-4.0,-25.0,246.0,-32.0,87.0,1.0,-1.0,-100.0,952.0
-3.0,-28.0,240.0,-28.0,84.0,0.0,2.0,-97.0,952.0
-3.0,-26.0,241.0,-24.0,83.0,-2.0,0.0,-98.0,950.0
-5.0,-27.0,244.0,-19.0,81.0,-1.0,2.0,-102.0,950.0
-5.0,-23.0,243.0,-14.0,81.0,-2.0,0.0,-97.0,949.0
-2.0,-24.0,243.0,-8.0,79.0,-2.0,-3.0,-98.0,949.0
-6.0,-27.0,241.0,-2.0,77.0,-5.0,1.0,-100.0,948.0
-2.0,-28.0,244.0,4.0,77.0,-5.0,-5.0,-107.0,950.0
-3.0,-28.0,244.0,11.0,76.0,-4.0,-3.0,-104.0,950.0
-5.0,-23.0,238.0,19.0,75.0,-4.0,0.0,-104.0,948.0
-5.0,-25.0,241.0,25.0,74.0,-2.0,-1.0,-105.0,948.0
-8.0,-23.0,242.0,31.0,74.0,-3.0,4.0,-100.0,951.0
-4.0,-27.0,244.0,35.0,75.0,-2.0,-2.0,-98.0,945.0
-4.0,-25.0,243.0,40.0,75.0,-3.0,1.0,-99.0,957.0
-1.0,-27.0,244.0,42.0,74.0,-2.0,-3.0,-94.0,950.0
-5.0,-26.0,243.0,45.0,73.0,-3.0,-2.0,-100.0,949.0
-6.0,-22.0,245.0,46.0,73.0,-4.0,-4.0,-96.0,953.0
-4.0,-24.0,240.0,46.0,73.0,-5.0,0.0,-96.0,953.0
-5.0,-23.0,240.0,45.0,74.0,-5.0,3.0,-87.0,953.0
-6.0,-24.0,242.0,44.0,73.0,-5.0,-6.0,-89.0,949.0
-4.0,-25.0,244.0,44.0,72.0,-2.0,7.0,-95.0,956.0
-3.0,-20.0,246.0,43.0,71.0,-3.0,3.0,-88.0,956.0
-3.0,-24.0,242.0,43.0,68.0,-2.0,1.0,-88.0,954.0
-4.0,-22.0,241.0,41.0,70.0,-3.0,2.0,-87.0,952.0
-3.0,-21.0,244.0,39.0,69.0,-2.0,4.0,-79.0,953.0
-5.0,-23.0,245.0,40.0,70.0,-2.0,0.0,-81.0,954.0
-3.0,-22.0,244.0,37.0,70.0,-3.0,-2.0,-84.0,956.0
-5.0,-22.0,242.0,38.0,71.0,0.0,5.0,-86.0,953.0
0.0,-21.0,239.0,37.0,71.0,0.0,6.0,-81.0,955.0
-2.0,-22.0,242.0,36.0,72.0,-2.0,4.0,-80.0,952.0
-3.0,-22.0,243.0,37.0,74.0,-2.0,1.0,-82.0,955.0
-4.0,-23.0,243.0,36.0,75.0,-2.0,3.0,-88.0,956.0
0.0,-21.0,241.0,35.0,77.0,-3.0,4.0,-84.0,953.0
-4.0,-25.0,243.0,35.0,75.0,-4.0,-1.0,-84.0,955.0
-3.0,-19.0,244.0,35.0,73.0,-3.0,6.0,-86.0,955.0
-4.0,-23.0,242.0,34.0,72.0,-5.0,-4.0,-85.0,955.0
-5.0,-23.0,245.0,34.0,71.0,-5.0,0.0,-89.0,960.0
-5.0,-23.0,243.0,33.0,68.0,-6.0,2.0,-87.0,957.0
-3.0,-25.0,242.0,33.0,68.0,-4.0,-1.0,-92.0,954.0
-7.0,-24.0,244.0,31.0,65.0,-5.0,1.0,-93.0,961.0
-4.0,-24.0,244.0,31.0,63.0,-5.0,0.0,-86.0,957.0
-3.0,-22.0,243.0,30.0,60.0,-4.0,-5.0,-83.0,955.0
-2.0,-20.0,243.0,31.0,57.0,-4.0,-4.0,-80.0,958.0
-5.0,-19.0,242.0,30.0,56.0,-5.0,-3.0,-75.0,953.0
-5.0,-21.0,244.0,29.0,55.0,-3.0,0.0,-79.0,957.0
-2.0,-21.0,247.0,28.0,53.0,-5.0,-8.0,-78.0,952.0
-5.0,-20.0,241.0,28.0,54.0,-5.0,-1.0,-77.0,954.0
-6.0,-21.0,242.0,28.0,54.0,-6.0,-1.0,-85.0,949.0
-5.0,-22.0,243.0,29.0,55.0,-6.0,-2.0,-84.0,950.0
-1.0,-20.0,240.0,30.0,57.0,-5.0,2.0,-80.0,950.0
-1.0,-22.0,245.0,32.0,61.0,-7.0,-1.0,-88.0,951.0
-1.0,-20.0,243.0,35.0,63.0,-7.0,-2.0,-90.0,949.0
-3.0,-21.0,240.0,39.0,67.0,-7.0,-5.0,-81.0,952.0
-5.0,-20.0,240.0,42.0,69.0,-6.0,2.0,-85.0,951.0
-5.0,-26.0,244.0,47.0,72.0,-6.0,2.0,-77.0,950.0
-1.0,-22.0,240.0,50.0,75.0,-6.0,-1.0,-85.0,949.0
-4.0,-22.0,244.0,56.0,76.0,-6.0,5.0,-85.0,949.0
-1.0,-24.0,242.0,58.0,77.0,-5.0,1.0,-81.0,950.0
-3.0,-24.0,243.0,63.0,79.0,-4.0,1.0,-85.0,954.0
-2.0,-20.0,242.0,67.0,78.0,-5.0,1.0,-79.0,956.0
-2.0,-23.0,238.0,69.0,76.0,-6.0,0.0,-81.0,956.0
-6.0,-23.0,238.0,73.0,75.0,-6.0,4.0,-76.0,952.0
-4.0,-25.0,243.0,76.0,74.0,-5.0,4.0,-76.0,951.0
-2.0,-20.0,240.0,80.0,71.0,-4.0,-1.0,-79.0,954.0
-5.0,-20.0,247.0,83.0,69.0,-7.0,-1.0,-73.0,959.0
-4.0,-21.0,242.0,86.0,67.0,-6.0,2.0,-72.0,955.0
-7.0,-19.0,243.0,88.0,64.0,-6.0,-3.0,-75.0,951.0
-3.0,-21.0,244.0,92.0,65.0,-7.0,-5.0,-75.0,952.0
-4.0,-20.0,239.0,93.0,64.0,-9.0,1.0,-71.0,957.0
0.0,-18.0,241.0,94.0,62.0,-8.0,2.0,-66.0,954.0
-1.0,-20.0,238.0,93.0,59.0,-9.0,-1.0,-72.0,955.0
-4.0,-18.0,243.0,94.0,58.0,-9.0,4.0,-74.0,957.0
-4.0,-19.0,246.0,93.0,58.0,-9.0,-1.0,-72.0,954.0
-2.0,-20.0,242.0,93.0,56.0,-8.0,2.0,-68.0,953.0
-2.0,-17.0,240.0,95.0,56.0,-6.0,5.0,-66.0,953.0
0.0,-22.0,241.0,98.0,53.0,-7.0,2.0,-70.0,952.0
-4.0,-19.0,241.0,102.0,51.0,-6.0,1.0,-69.0,955.0
-3.0,-24.0,244.0,107.0,50.0,-7.0,-2.0,-71.0,954.0
-2.0,-22.0,240.0,113.0,49.0,-7.0,4.0,-77.0,954.0
-1.0,-19.0,242.0,117.0,49.0,-7.0,5.0,-74.0,954.0
-4.0,-18.0,242.0,122.0,48.0,-7.0,4.0,-68.0,952.0
-1.0,-16.0,239.0,128.0,46.0,-6.0,0.0,-64.0,954.0
-2.0,-18.0,242.0,133.0,46.0,-5.0,4.0,-64.0,955.0
-1.0,-17.0,243.0,134.0,45.0,-6.0,-3.0,-65.0,955.0
-1.0,-17.0,241.0,137.0,42.0,-7.0,2.0,-66.0,958.0
-3.0,-15.0,240.0,138.0,42.0,-7.0,-2.0,-64.0,948.0
-3.0,-14.0,243.0,138.0,39.0,-7.0,-2.0,-58.0,957.0
-8.0,-11.0,243.0,138.0,40.0,-7.0,-7.0,-53.0,955.0
-6.0,-12.0,244.0,136.0,40.0,-7.0,-7.0,-58.0,959.0
-3.0,-13.0,243.0,132.0,42.0,-9.0,-1.0,-49.0,955.0
-3.0,-11.0,241.0,127.0,44.0,-9.0,0.0,-51.0,955.0
-3.0,-9.0,239.0,121.0,48.0,-10.0,5.0,-53.0,954.0
0.0,-14.0,246.0,113.0,52.0,-8.0,-1.0,-48.0,960.0
1.0,-15.0,244.0,104.0,56.0,-7.0,0.0,-52.0,955.0
0.0,-13.0,245.0,96.0,60.0,-10.0,3.0,-46.0,962.0
-6.0,-10.0,244.0,87.0,65.0,-9.0,7.0,-53.0,967.0
-6.0,-10.0,243.0,80.0,68.0,-9.0,2.0,-45.0,964.0
-2.0,-12.0,244.0,74.0,70.0,-9.0,6.0,-51.0,963.0
-3.0,-10.0,247.0,69.0,72.0,-8.0,3.0,-45.0,966.0
-3.0,-15.0,242.0,67.0,72.0,-8.0,5.0,-49.0,966.0
-1.0,-14.0,246.0,66.0,74.0,-7.0,4.0,-50.0,962.0
-6.0,-11.0,245.0,65.0,75.0,-8.0,0.0,-45.0,966.0
-1.0,-11.0,246.0,64.0,76.0,-7.0,3.0,-46.0,964.0
-3.0,-15.0,245.0,65.0,73.0,-7.0,5.0,-43.0,966.0
-4.0,-10.0,246.0,64.0,72.0,-8.0,2.0,-44.0,968.0
-3.0,-10.0,249.0,61.0,72.0,-8.0,0.0,-47.0,972.0
-2.0,-12.0,247.0,57.0,72.0,-8.0,-1.0,-45.0,971.0
-1.0,-12.0,249.0,52.0,70.0,-9.0,1.0,-48.0,972.0
-4.0,-9.0,246.0,44.0,71.0,-10.0,2.0,-42.0,972.0
-1.0,-11.0,245.0,36.0,70.0,-12.0,5.0,-47.0,968.0
0.0,-12.0,244.0,29.0,72.0,-12.0,1.0,-49.0,966.0
-1.0,-12.0,241.0,24.0,69.0,-11.0,7.0,-47.0,964.0
-4.0,-12.0,246.0,21.0,67.0,-12.0,4.0,-50.0,958.0
-7.0,-13.0,243.0,22.0,65.0,-12.0,4.0,-54.0,956.0
-2.0,-11.0,242.0,27.0,62.0,-11.0,-1.0,-52.0,955.0
-5.0,-14.0,245.0,33.0,58.0,-11.0,1.0,-58.0,955.0
-3.0,-16.0,240.0,41.0,55.0,-9.0,4.0,-54.0,950.0
-4.0,-11.0,241.0,50.0,54.0,-9.0,2.0,-50.0,950.0
-2.0,-13.0,238.0,59.0,54.0,-7.0,-1.0,-50.0,952.0
-4.0,-9.0,240.0,67.0,54.0,-5.0,6.0,-45.0,949.0
-3.0,-7.0,243.0,73.0,53.0,-6.0,7.0,-44.0,951.0
-1.0,-11.0,241.0,75.0,52.0,-6.0,4.0,-43.0,954.0
-3.0,-8.0,242.0,77.0,52.0,-5.0,-3.0,-42.0,954.0
-1.0,-8.0,244.0,74.0,51.0,-6.0,7.0,-40.0,953.0
-3.0,-8.0,242.0,71.0,50.0,-7.0,1.0,-37.0,958.0
-2.0,-9.0,241.0,68.0,50.0,-9.0,1.0,-38.0,956.0
0.0,-8.0,247.0,63.0,51.0,-10.0,2.0,-33.0,960.0
-3.0,-12.0,243.0,58.0,49.0,-9.0,8.0,-37.0,959.0
-1.0,-9.0,240.0,54.0,49.0,-10.0,6.0,-35.0,956.0
-2.0,-7.0,241.0,50.0,48.0,-10.0,3.0,-36.0,960.0
0.0,-8.0,245.0,48.0,48.0,-10.0,4.0,-35.0,964.0
-2.0,-6.0,241.0,46.0,49.0,-9.0,4.0,-36.0,960.0
0.0,-6.0,242.0,45.0,49.0,-8.0,2.0,-38.0,964.0
-1.0,-11.0,242.0,44.0,51.0,-7.0,8.0,-35.0,959.0
-1.0,-9.0,242.0,43.0,51.0,-4.0,6.0,-34.0,963.0
0.0,-8.0,244.0,41.0,54.0,-4.0,1.0,-35.0,958.0
-3.0,-9.0,243.0,37.0,55.0,-4.0,10.0,-38.0,963.0
1.0,-9.0,242.0,36.0,58.0,-4.0,13.0,-37.0,965.0
-3.0,-7.0,243.0,33.0,60.0,-3.0,3.0,-36.0,963.0
0.0,-9.0,241.0,30.0,62.0,-4.0,9.0,-34.0,958.0
0.0,-10.0,243.0,28.0,64.0,-4.0,4.0,-36.0,963.0
0.0,-9.0,245.0,25.0,66.0,-5.0,6.0,-42.0,959.0
-3.0,-11.0,243.0,23.0,66.0,-6.0,3.0,-37.0,958.0
-3.0,-10.0,244.0,21.0,66.0,-6.0,6.0,-41.0,959.0
-3.0,-9.0,243.0,23.0,65.0,-7.0,5.0,-37.0,960.0
-1.0,-8.0,243.0,24.0,66.0,-7.0,7.0,-38.0,956.0
-1.0,-8.0,250.0,28.0,64.0,-7.0,6.0,-42.0,957.0
-6.0,-11.0,244.0,31.0,63.0,-7.0,-1.0,-39.0,956.0
-1.0,-8.0,240.0,33.0,62.0,-7.0,-1.0,-39.0,955.0
-2.0,-9.0,241.0,37.0,61.0,-7.0,2.0,-37.0,955.0
-2.0,-8.0,241.0,40.0,61.0,-7.0,0.0,-36.0,953.0
-4.0,-8.0,240.0,43.0,62.0,-7.0,4.0,-41.0,951.0
-3.0,-12.0,242.0,45.0,62.0,-8.0,5.0,-37.0,955.0
-3.0,-10.0,244.0,47.0,63.0,-7.0,6.0,-41.0,951.0
-2.0,-8.0,247.0,51.0,62.0,-6.0,4.0,-35.0,952.0
-2.0,-14.0,244.0,54.0,63.0,-6.0,7.0,-38.0,955.0
-1.0,-10.0,242.0,58.0,64.0,-5.0,4.0,-32.0,951.0
-4.0,-9.0,245.0,62.0,61.0,-5.0,8.0,-37.0,954.0
-1.0,-10.0,245.0,65.0,61.0,-5.0,7.0,-37.0,960.0
0.0,-8.0,242.0,69.0,60.0,-4.0,5.0,-33.0,959.0
-2.0,-6.0,242.0,70.0,61.0,-5.0,3.0,-32.0,963.0
0.0,-6.0,242.0,70.0,60.0,-5.0,-1.0,-28.0,955.0
0.0,-6.0,247.0,68.0,63.0,-5.0,2.0,-23.0,958.0
-2.0,-6.0,245.0,66.0,62.0,-4.0,2.0,-25.0,966.0
0.0,-6.0,242.0,62.0,62.0,-7.0,7.0,-23.0,960.0
-3.0,-3.0,245.0,56.0,61.0,-7.0,2.0,-23.0,968.0
0.0,-3.0,242.0,50.0,61.0,-6.0,7.0,-22.0,964.0
0.0,-4.0,245.0,44.0,61.0,-8.0,7.0,-19.0,969.0
-2.0,-3.0,245.0,36.0,61.0,-9.0,9.0,-22.0,964.0
-2.0,-3.0,245.0,32.0,62.0,-9.0,7.0,-24.0,968.0
0.0,-5.0,242.0,27.0,61.0,-10.0,4.0,-27.0,962.0
-4.0,-3.0,246.0,24.0,62.0,-9.0,9.0,-24.0,961.0
-1.0,-6.0,245.0,21.0,63.0,-9.0,10.0,-26.0,966.0
0.0,-3.0,246.0,19.0,66.0,-9.0,5.0,-27.0,959.0
0.0,-4.0,241.0,18.0,67.0,-8.0,7.0,-29.0,957.0
0.0,-4.0,244.0,20.0,70.0,-9.0,7.0,-30.0,962.0
-4.0,-5.0,246.0,19.0,71.0,-9.0,7.0,-24.0,964.0
0.0,-7.0,245.0,17.0,72.0,-7.0,7.0,-30.0,957.0
0.0,-7.0,244.0,18.0,73.0,-8.0,7.0,-29.0,959.0
-2.0,-7.0,244.0,18.0,73.0,-6.0,6.0,-25.0,956.0
0.0,-10.0,242.0,18.0,72.0,-6.0,2.0,-25.0,962.0
1.0,-5.0,243.0,19.0,71.0,-6.0,8.0,-25.0,960.0
0.0,-6.0,243.0,20.0,70.0,-6.0,4.0,-25.0,955.0
-3.0,-7.0,245.0,23.0,67.0,-5.0,6.0,-24.0,957.0
-2.0,-5.0,240.0,25.0,67.0,-5.0,5.0,-26.0,958.0
-1.0,-8.0,241.0,28.0,65.0,-6.0,0.0,-20.0,962.0
-3.0,-6.0,243.0,32.0,63.0,-5.0,2.0,-24.0,964.0
-3.0,-7.0,243.0,37.0,62.0,-6.0,1.0,-26.0,958.0
-2.0,-7.0,245.0,40.0,58.0,-5.0,3.0,-24.0,961.0
-1.0,-8.0,246.0,42.0,57.0,-7.0,5.0,-24.0,965.0
-3.0,-6.0,244.0,44.0,57.0,-6.0,-2.0,-24.0,959.0
0.0,-4.0,245.0,45.0,58.0,-6.0,6.0,-19.0,960.0
0.0,-7.0,243.0,47.0,55.0,-6.0,5.0,-20.0,956.0
0.0,-6.0,244.0,47.0,57.0,-5.0,5.0,-20.0,959.0
-1.0,-5.0,243.0,44.0,57.0,-6.0,5.0,-17.0,960.0
0.0,-4.0,242.0,44.0,58.0,-5.0,9.0,-23.0,955.0
0.0,-4.0,241.0,42.0,58.0,-6.0,8.0,-13.0,957.0
0.0,-5.0,245.0,39.0,58.0,-5.0,8.0,-17.0,964.0
-1.0,-1.0,240.0,38.0,60.0,-5.0,8.0,-15.0,957.0
-1.0,-2.0,246.0,35.0,62.0,-5.0,12.0,-10.0,963.0
1.0,-2.0,243.0,31.0,66.0,-5.0,6.0,-9.0,962.0
-1.0,0.0,243.0,28.0,65.0,-6.0,10.0,-14.0,962.0
0.0,-1.0,247.0,25.0,67.0,-8.0,9.0,-15.0,960.0
-1.0,-4.0,245.0,24.0,67.0,-7.0,6.0,-12.0,965.0
-1.0,-2.0,242.0,21.0,69.0,-8.0,13.0,-10.0,954.0
-2.0,-5.0,246.0,19.0,68.0,-8.0,5.0,-21.0,962.0
0.0,-3.0,244.0,18.0,70.0,-7.0,7.0,-15.0,965.0
0.0,-4.0,243.0,16.0,67.0,-6.0,7.0,-14.0,965.0
-2.0,-5.0,243.0,17.0,66.0,-7.0,7.0,-14.0,961.0
-1.0,-4.0,245.0,16.0,64.0,-8.0,4.0,-14.0,966.0
1.0,-2.0,242.0,16.0,63.0,-7.0,6.0,-17.0,963.0
-2.0,-5.0,244.0,15.0,62.0,-7.0,10.0,-22.0,965.0
-2.0,-3.0,243.0,14.0,62.0,-7.0,12.0,-17.0,960.0
-1.0,-4.0,243.0,14.0,63.0,-6.0,10.0,-16.0,957.0
-1.0,-4.0,247.0,15.0,64.0,-7.0,9.0,-13.0,958.0
0.0,-3.0,243.0,14.0,66.0,-6.0,9.0,-12.0,961.0
-4.0,-5.0,246.0,16.0,67.0,-7.0,10.0,-14.0,957.0
-2.0,-5.0,249.0,16.0,67.0,-6.0,7.0,-8.0,961.0
-4.0,-4.0,242.0,15.0,66.0,-7.0,7.0,-18.0,961.0
-1.0,-7.0,245.0,16.0,67.0,-7.0,7.0,-15.0,959.0
0.0,-3.0,246.0,17.0,68.0,-7.0,6.0,-15.0,966.0
0.0,-3.0,242.0,15.0,70.0,-7.0,4.0,-10.0,959.0
-2.0,1.0,242.0,15.0,70.0,-6.0,10.0,-13.0,959.0
0.0,-2.0,244.0,13.0,73.0,-7.0,9.0,-6.0,960.0
0.0,-4.0,244.0,11.0,74.0,-6.0,5.0,-11.0,960.0
0.0,-3.0,245.0,9.0,75.0,-6.0,14.0,-12.0,963.0
0.0,-2.0,246.0,5.0,77.0,-6.0,4.0,-9.0,966.0
0.0,-2.0,248.0,3.0,81.0,-7.0,14.0,-7.0,962.0
-1.0,-1.0,247.0,-1.0,83.0,-9.0,13.0,-7.0,964.0
-2.0,0.0,247.0,-4.0,86.0,-9.0,9.0,-9.0,960.0
0.0,-2.0,245.0,-8.0,88.0,-10.0,10.0,-7.0,961.0
-2.0,-3.0,243.0,-12.0,88.0,-9.0,7.0,-12.0,958.0
-2.0,-2.0,245.0,-14.0,90.0,-11.0,9.0,-9.0,963.0
0.0,-2.0,245.0,-15.0,90.0,-10.0,6.0,-7.0,962.0
0.0,-3.0,244.0,-17.0,92.0,-8.0,9.0,-8.0,962.0
0.0,-3.0,247.0,-18.0,94.0,-10.0,11.0,-9.0,955.0
0.0,-5.0,242.0,-18.0,94.0,-11.0,10.0,-14.0,954.0
-1.0,-5.0,245.0,-19.0,95.0,-12.0,11.0,-11.0,962.0
-3.0,-3.0,241.0,-17.0,96.0,-14.0,9.0,-13.0,963.0
-3.0,-4.0,241.0,-17.0,96.0,-14.0,9.0,-13.0,960.0
-1.0,-3.0,244.0,-18.0,95.0,-14.0,7.0,-12.0,958.0
0.0,-3.0,244.0,-18.0,94.0,-16.0,11.0,-17.0,960.0
1.0,-5.0,244.0,-17.0,94.0,-15.0,5.0,-12.0,959.0
-3.0,-1.0,242.0,-18.0,94.0,-15.0,1.0,-16.0,960.0
-2.0,-5.0,243.0,-17.0,92.0,-14.0,5.0,-19.0,957.0
-1.0,-5.0,245.0,-16.0,92.0,-15.0,2.0,-16.0,956.0
-3.0,-3.0,243.0,-15.0,92.0,-14.0,5.0,-19.0,959.0
-3.0,-4.0,245.0,-13.0,90.0,-13.0,-6.0,-17.0,963.0
-2.0,-5.0,241.0,-10.0,89.0,-15.0,-1.0,-22.0,959.0
-2.0,-3.0,247.0,-6.0,85.0,-16.0,1.0,-16.0,961.0
-5.0,-3.0,242.0,-3.0,84.0,-14.0,-2.0,-16.0,957.0
-4.0,2.0,244.0,0.0,82.0,-13.0,-3.0,-14.0,957.0
-1.0,-5.0,240.0,2.0,82.0,-12.0,1.0,-4.0,962.0
-6.0,-3.0,243.0,5.0,81.0,-10.0,-5.0,-17.0,959.0
-2.0,-6.0,245.0,6.0,82.0,-9.0,1.0,-13.0,955.0
-3.0,-4.0,248.0,8.0,82.0,-10.0,0.0,-24.0,958.0
-2.0,-5.0,244.0,11.0,83.0,-9.0,4.0,-8.0,958.0
-2.0,-2.0,242.0,11.0,83.0,-9.0,7.0,-19.0,954.0
-3.0,-5.0,242.0,12.0,85.0,-8.0,4.0,-14.0,955.0
0.0,-3.0,242.0,15.0,86.0,-8.0,5.0,-16.0,960.0
-7.0,-3.0,247.0,16.0,87.0,-7.0,4.0,-13.0,956.0
-2.0,-5.0,241.0,17.0,86.0,-7.0,-2.0,-12.0,954.0
-5.0,-5.0,241.0,19.0,85.0,-8.0,-1.0,-13.0,954.0
-3.0,-5.0,240.0,21.0,84.0,-7.0,2.0,-9.0,952.0
-5.0,-4.0,243.0,23.0,82.0,-7.0,1.0,-17.0,953.0
-3.0,-5.0,242.0,24.0,80.0,-8.0,-1.0,-13.0,951.0
-2.0,-3.0,243.0,25.0,79.0,-9.0,-8.0,-19.0,954.0
0.0,-6.0,242.0,27.0,77.0,-9.0,-2.0,-17.0,953.0
-2.0,-4.0,240.0,30.0,74.0,-10.0,-4.0,-18.0,951.0
-5.0,-4.0,241.0,32.0,72.0,-10.0,-6.0,-17.0,956.0
-2.0,1.0,238.0,35.0,70.0,-11.0,-1.0,-16.0,954.0
-5.0,1.0,244.0,36.0,71.0,-13.0,-2.0,-22.0,955.0
0.0,0.0,237.0,41.0,69.0,-13.0,-3.0,-17.0,954.0
1.0,-6.0,241.0,42.0,68.0,-12.0,4.0,-18.0,961.0
0.0,-2.0,253.0,45.0,68.0,-14.0,5.0,-18.0,960.0
1.0,-4.0,242.0,47.0,68.0,-12.0,5.0,-17.0,965.0
-3.0,-10.0,252.0,51.0,71.0,-13.0,8.0,-16.0,959.0
-3.0,-8.0,245.0,52.0,73.0,-13.0,9.0,-19.0,966.0
4.0,3.0,247.0,56.0,76.0,-16.0,4.0,-22.0,972.0
-2.0,-9.0,246.0,57.0,78.0,-18.0,9.0,-10.0,982.0
-2.0,-4.0,252.0,58.0,82.0,-19.0,7.0,-8.0,989.0
1.0,-4.0,251.0,60.0,88.0,-21.0,9.0,-6.0,991.0
-1.0,0.0,249.0,56.0,92.0,-24.0,10.0,-5.0,992.0
-2.0,1.0,252.0,51.0,97.0,-25.0,12.0,-1.0,987.0
2.0,0.0,243.0,40.0,105.0,-27.0,14.0,-1.0,981.0
2.0,-4.0,248.0,29.0,111.0,-32.0,16.0,5.0,979.0
0.0,1.0,251.0,21.0,116.0,-34.0,18.0,2.0,984.0
0.0,1.0,249.0,14.0,119.0,-37.0,19.0,0.0,977.0
0.0,2.0,246.0,9.0,118.0,-40.0,18.0,-4.0,973.0
1.0,-1.0,245.0,11.0,115.0,-41.0,19.0,-3.0,972.0
1.0,0.0,241.0,13.0,111.0,-42.0,19.0,-1.0,966.0
0.0,2.0,245.0,15.0,110.0,-42.0,16.0,-2.0,956.0
1.0,4.0,243.0,15.0,111.0,-41.0,14.0,5.0,959.0
1.0,1.0,242.0,13.0,115.0,-38.0,12.0,2.0,956.0
2.0,2.0,246.0,8.0,120.0,-35.0,12.0,7.0,957.0
-1.0,7.0,243.0,2.0,127.0,-33.0,12.0,7.0,965.0
0.0,4.0,245.0,-10.0,132.0,-31.0,11.0,12.0,964.0
0.0,6.0,247.0,-21.0,137.0,-29.0,17.0,13.0,968.0
0.0,6.0,246.0,-36.0,142.0,-27.0,21.0,8.0,966.0
4.0,3.0,246.0,-51.0,150.0,-26.0,24.0,5.0,959.0
2.0,3.0,242.0,-68.0,159.0,-25.0,23.0,-2.0,956.0
3.0,5.0,246.0,-82.0,168.0,-24.0,20.0,-2.0,950.0
2.0,-1.0,243.0,-92.0,179.0,-25.0,30.0,-2.0,952.0
1.0,-1.0,244.0,-97.0,184.0,-25.0,24.0,-4.0,953.0
0.0,-1.0,243.0,-100.0,190.0,-27.0,21.0,-13.0,956.0
0.0,-2.0,241.0,-100.0,196.0,-28.0,19.0,-9.0,954.0
1.0,-3.0,239.0,-96.0,197.0,-29.0,13.0,-14.0,952.0
0.0,-5.0,240.0,-92.0,198.0,-29.0,8.0,-18.0,947.0
0.0,-7.0,239.0,-90.0,198.0,-29.0,4.0,-12.0,941.0
-2.0,-3.0,239.0,-91.0,199.0,-28.0,6.0,-7.0,937.0
-1.0,-3.0,243.0,-92.0,202.0,-28.0,1.0,-12.0,943.0
-4.0,1.0,240.0,-90.0,204.0,-25.0,-2.0,-9.0,941.0
-6.0,0.0,240.0,-88.0,208.0,-25.0,-6.0,-9.0,951.0
-5.0,-1.0,240.0,-89.0,211.0,-22.0,-6.0,-7.0,954.0
-9.0,-3.0,246.0,-87.0,215.0,-19.0,-6.0,-10.0,959.0
-3.0,0.0,243.0,-87.0,220.0,-17.0,-12.0,-6.0,956.0
-8.0,-1.0,245.0,-87.0,221.0,-15.0,-11.0,-6.0,959.0
-8.0,1.0,247.0,-86.0,218.0,-13.0,-19.0,-5.0,961.0
-10.0,1.0,243.0,-86.0,216.0,-10.0,-27.0,-2.0,963.0
-9.0,-1.0,245.0,-83.0,211.0,-6.0,-28.0,1.0,964.0
-12.0,3.0,244.0,-80.0,206.0,-1.0,-30.0,4.0,956.0
-13.0,2.0,243.0,-77.0,203.0,2.0,-29.0,10.0,957.0
-14.0,4.0,242.0,-70.0,198.0,6.0,-34.0,7.0,951.0
-15.0,2.0,247.0,-60.0,192.0,11.0,-36.0,18.0,947.0
-15.0,6.0,241.0,-51.0,187.0,18.0,-41.0,13.0,952.0
-17.0,4.0,240.0,-40.0,182.0,24.0,-48.0,13.0,953.0
-15.0,3.0,243.0,-31.0,176.0,31.0,-41.0,10.0,948.0
-16.0,4.0,241.0,-25.0,168.0,35.0,-44.0,10.0,947.0
-15.0,5.0,243.0,-18.0,158.0,39.0,-37.0,1.0,948.0
-12.0,-3.0,241.0,-14.0,146.0,42.0,-42.0,0.0,946.0
-16.0,-2.0,240.0,-8.0,137.0,45.0,-51.0,-5.0,950.0
-21.0,-1.0,240.0,-1.0,130.0,47.0,-56.0,-20.0,947.0
-22.0,-4.0,239.0,3.0,122.0,47.0,-57.0,-27.0,947.0
-22.0,-6.0,242.0,9.0,111.0,49.0,-62.0,-32.0,954.0
-19.0,-9.0,240.0,13.0,102.0,52.0,-59.0,-33.0,956.0
-14.0,-7.0,243.0,20.0,90.0,51.0,-40.0,-37.0,961.0
-21.0,-6.0,243.0,31.0,76.0,46.0,-67.0,-38.0,958.0
-23.0,-8.0,245.0,40.0,64.0,51.0,-67.0,-39.0,968.0
-22.0,-10.0,248.0,50.0,49.0,54.0,-75.0,-37.0,969.0
-25.0,-10.0,245.0,60.0,27.0,55.0,-74.0,-38.0,965.0
-28.0,-8.0,244.0,71.0,0.0,60.0,-78.0,-28.0,964.0
-30.0,-4.0,245.0,82.0,-24.0,64.0,-93.0,-26.0,964.0
-32.0,0.0,245.0,94.0,-48.0,76.0,-87.0,-23.0,958.0
-29.0,-3.0,244.0,106.0,-70.0,90.0,-92.0,-18.0,961.0
-27.0,-1.0,243.0,118.0,-92.0,103.0,-94.0,-4.0,959.0
-27.0,-2.0,247.0,130.0,-114.0,115.0,-94.0,2.0,964.0
-29.0,-1.0,245.0,142.0,-136.0,126.0,-95.0,-1.0,961.0
-28.0,0.0,248.0,152.0,-157.0,135.0,-92.0,0.0,966.0
-28.0,1.0,248.0,159.0,-176.0,145.0,-86.0,-2.0,965.0
-26.0,2.0,245.0,164.0,-193.0,152.0,-87.0,2.0,967.0
-23.0,5.0,247.0,168.0,-206.0,165.0,-86.0,9.0,973.0
-24.0,5.0,247.0,169.0,-219.0,173.0,-74.0,3.0,974.0
-23.0,6.0,251.0,169.0,-231.0,176.0,-65.0,15.0,994.0
-23.0,4.0,253.0,171.0,-242.0,181.0,-80.0,15.0,996.0
-23.0,5.0,252.0,175.0,-251.0,191.0,-76.0,9.0,989.0
-26.0,5.0,251.0,169.0,-262.0,199.0,-85.0,14.0,990.0
-34.0,4.0,252.0,161.0,-275.0,205.0,-114.0,14.0,986.0
-35.0,6.0,250.0,154.0,-291.0,219.0,-116.0,12.0,990.0
-36.0,6.0,251.0,150.0,-310.0,233.0,-116.0,14.0,984.0
-34.0,3.0,251.0,146.0,-328.0,247.0,-117.0,10.0,978.0
-38.0,7.0,251.0,146.0,-346.0,258.0,-131.0,15.0,986.0
-35.0,7.0,250.0,154.0,-356.0,270.0,-115.0,17.0,977.0
-31.0,6.0,247.0,163.0,-367.0,277.0,-121.0,27.0,967.0
-35.0,8.0,249.0,177.0,-379.0,280.0,-121.0,35.0,969.0
-32.0,12.0,247.0,190.0,-390.0,283.0,-118.0,49.0,972.0
-34.0,15.0,246.0,202.0,-404.0,286.0,-112.0,60.0,972.0
-36.0,19.0,245.0,212.0,-419.0,286.0,-111.0,72.0,970.0
-32.0,20.0,244.0,218.0,-437.0,290.0,-105.0,81.0,969.0
-35.0,23.0,250.0,217.0,-456.0,296.0,-117.0,94.0,963.0
-32.0,30.0,243.0,204.0,-479.0,303.0,-108.0,101.0,968.0
-23.0,29.0,245.0,183.0,-502.0,306.0,-91.0,106.0,955.0
-20.0,28.0,248.0,157.0,-521.0,310.0,-63.0,111.0,964.0
-12.0,30.0,247.0,128.0,-529.0,311.0,-39.0,112.0,964.0
-5.0,31.0,248.0,101.0,-525.0,310.0,-21.0,106.0,967.0
-1.0,28.0,248.0,76.0,-513.0,309.0,-4.0,104.0,972.0
0.0,23.0,247.0,52.0,-496.0,312.0,11.0,90.0,975.0
5.0,23.0,246.0,29.0,-479.0,311.0,34.0,88.0,977.0
10.0,21.0,250.0,12.0,-464.0,311.0,42.0,87.0,978.0
13.0,19.0,253.0,-1.0,-458.0,306.0,70.0,77.0,982.0
12.0,15.0,246.0,-11.0,-460.0,293.0,58.0,70.0,980.0
16.0,16.0,251.0,-25.0,-461.0,288.0,85.0,69.0,984.0
21.0,14.0,255.0,-33.0,-461.0,294.0,95.0,63.0,990.0
25.0,12.0,253.0,-40.0,-459.0,302.0,120.0,52.0,994.0
30.0,12.0,254.0,-49.0,-449.0,306.0,132.0,41.0,1000.0
39.0,9.0,258.0,-57.0,-438.0,310.0,161.0,37.0,1003.0
42.0,4.0,256.0,-65.0,-422.0,319.0,167.0,25.0,1001.0
41.0,6.0,259.0,-75.0,-404.0,323.0,170.0,26.0,1007.0
37.0,8.0,257.0,-82.0,-388.0,328.0,168.0,16.0,1014.0
38.0,3.0,260.0,-87.0,-374.0,330.0,165.0,15.0,1017.0
34.0,6.0,259.0,-94.0,-367.0,325.0,146.0,8.0,1019.0
28.0,5.0,262.0,-108.0,-355.0,325.0,127.0,17.0,1019.0
23.0,7.0,260.0,-129.0,-341.0,336.0,122.0,21.0,1013.0
27.0,8.0,258.0,-154.0,-325.0,345.0,122.0,16.0,1005.0
25.0,8.0,253.0,-188.0,-316.0,353.0,115.0,20.0,997.0
21.0,5.0,253.0,-229.0,-313.0,357.0,99.0,27.0,995.0
19.0,9.0,251.0,-272.0,-318.0,350.0,97.0,41.0,994.0
28.0,11.0,253.0,-316.0,-340.0,351.0,127.0,30.0,983.0
15.0,9.0,248.0,-355.0,-377.0,330.0,66.0,43.0,982.0
13.0,13.0,247.0,-381.0,-407.0,324.0,68.0,49.0,974.0
3.0,7.0,252.0,-394.0,-441.0,328.0,24.0,43.0,989.0
3.0,6.0,257.0,-389.0,-465.0,341.0,21.0,26.0,992.0
-4.0,-1.0,256.0,-374.0,-495.0,348.0,-8.0,9.0,993.0
-2.0,-5.0,257.0,-346.0,-532.0,342.0,19.0,-15.0,1003.0
-10.0,-11.0,259.0,-309.0,-581.0,324.0,-4.0,-35.0,1010.0
-17.0,-19.0,257.0,-259.0,-630.0,313.0,-33.0,-63.0,1014.0
-22.0,-26.0,262.0,-203.0,-677.0,298.0,-50.0,-80.0,1014.0
-20.0,-33.0,257.0,-140.0,-710.0,300.0,-54.0,-115.0,1009.0
-21.0,-34.0,259.0,-72.0,-731.0,292.0,-64.0,-128.0,1009.0
-15.0,-35.0,255.0,-6.0,-746.0,277.0,-49.0,-132.0,1016.0
-11.0,-36.0,257.0,47.0,-758.0,265.0,-23.0,-137.0,1011.0
1.0,-36.0,257.0,88.0,-773.0,244.0,29.0,-138.0,1017.0
-2.0,-31.0,259.0,114.0,-794.0,194.0,-12.0,-112.0,1016.0
-4.0,-24.0,260.0,122.0,-799.0,174.0,-9.0,-99.0,1022.0
0.0,-21.0,259.0,114.0,-781.0,184.0,10.0,-79.0,1022.0
12.0,-18.0,264.0,101.0,-748.0,191.0,53.0,-73.0,1024.0
18.0,-14.0,257.0,88.0,-710.0,178.0,80.0,-57.0,1022.0
23.0,-10.0,258.0,75.0,-672.0,162.0,95.0,-37.0,1024.0
24.0,-5.0,262.0,67.0,-644.0,151.0,109.0,-17.0,1017.0
25.0,-1.0,256.0,64.0,-631.0,146.0,118.0,-7.0,1001.0
29.0,1.0,252.0,60.0,-632.0,149.0,135.0,-1.0,983.0
30.0,8.0,243.0,48.0,-647.0,159.0,153.0,15.0,962.0
39.0,8.0,241.0,21.0,-666.0,176.0,173.0,18.0,946.0
45.0,8.0,236.0,-14.0,-687.0,195.0,192.0,32.0,931.0
49.0,9.0,238.0,-51.0,-702.0,209.0,209.0,42.0,923.0
50.0,9.0,237.0,-79.0,-711.0,214.0,217.0,42.0,925.0
61.0,8.0,244.0,-103.0,-720.0,211.0,258.0,43.0,927.0
52.0,7.0,236.0,-126.0,-746.0,205.0,232.0,43.0,912.0
56.0,8.0,234.0,-145.0,-764.0,209.0,240.0,30.0,909.0
58.0,3.0,234.0,-158.0,-789.0,208.0,258.0,16.0,913.0
56.0,-4.0,237.0,-163.0,-825.0,208.0,250.0,-5.0,917.0
50.0,-6.0,235.0,-142.0,-872.0,199.0,217.0,-15.0,912.0
36.0,-7.0,232.0,-94.0,-924.0,185.0,164.0,-27.0,908.0
34.0,-15.0,236.0,-23.0,-976.0,184.0,151.0,-47.0,913.0
27.0,-18.0,235.0,55.0,-1048.0,177.0,141.0,-64.0,918.0
20.0,-22.0,241.0,146.0,-1121.0,163.0,113.0,-72.0,925.0
14.0,-24.0,237.0,235.0,-1177.0,170.0,75.0,-79.0,939.0
14.0,-23.0,241.0,317.0,-1216.0,184.0,93.0,-92.0,942.0
20.0,-21.0,241.0,382.0,-1245.0,177.0,93.0,-90.0,936.0
30.0,-20.0,236.0,411.0,-1268.0,157.0,128.0,-75.0,924.0
35.0,-11.0,231.0,396.0,-1288.0,130.0,153.0,-49.0,911.0
36.0,2.0,230.0,346.0,-1302.0,95.0,156.0,-18.0,894.0
43.0,9.0,226.0,272.0,-1303.0,65.0,186.0,17.0,873.0
49.0,16.0,215.0,183.0,-1306.0,37.0,213.0,51.0,858.0
56.0,23.0,214.0,86.0,-1311.0,10.0,235.0,78.0,842.0
58.0,26.0,210.0,1.0,-1313.0,-17.0,246.0,104.0,818.0
65.0,33.0,208.0,-65.0,-1311.0,-35.0,262.0,126.0,810.0
74.0,32.0,206.0,-113.0,-1303.0,-47.0,294.0,137.0,796.0
80.0,31.0,198.0,-150.0,-1289.0,-55.0,317.0,131.0,790.0
86.0,27.0,199.0,-178.0,-1272.0,-66.0,346.0,118.0,779.0
88.0,26.0,200.0,-202.0,-1252.0,-81.0,359.0,106.0,780.0
95.0,20.0,195.0,-224.0,-1236.0,-97.0,382.0,87.0,774.0
97.0,14.0,198.0,-244.0,-1224.0,-113.0,392.0,72.0,767.0
100.0,9.0,196.0,-256.0,-1214.0,-130.0,406.0,56.0,764.0
106.0,8.0,201.0,-266.0,-1211.0,-148.0,418.0,44.0,759.0
104.0,7.0,201.0,-265.0,-1209.0,-160.0,428.0,19.0,771.0
106.0,-4.0,196.0,-257.0,-1210.0,-169.0,426.0,9.0,776.0
109.0,-6.0,203.0,-246.0,-1215.0,-172.0,434.0,-8.0,780.0
108.0,-13.0,204.0,-232.0,-1227.0,-173.0,436.0,-38.0,795.0
108.0,-16.0,210.0,-217.0,-1244.0,-170.0,446.0,-52.0,811.0
111.0,-22.0,211.0,-199.0,-1266.0,-168.0,449.0,-73.0,834.0
113.0,-28.0,217.0,-173.0,-1291.0,-164.0,457.0,-90.0,847.0
115.0,-28.0,221.0,-140.0,-1316.0,-162.0,454.0,-104.0,852.0
116.0,-36.0,218.0,-105.0,-1340.0,-162.0,463.0,-111.0,853.0
112.0,-36.0,219.0,-70.0,-1368.0,-165.0,460.0,-124.0,847.0
115.0,-36.0,215.0,-37.0,-1397.0,-168.0,461.0,-124.0,827.0
115.0,-37.0,210.0,-6.0,-1426.0,-172.0,462.0,-130.0,826.0
115.0,-38.0,206.0,18.0,-1447.0,-175.0,462.0,-119.0,808.0
115.0,-35.0,210.0,35.0,-1462.0,-173.0,459.0,-121.0,798.0
114.0,-31.0,202.0,44.0,-1467.0,-174.0,456.0,-111.0,788.0
114.0,-31.0,198.0,51.0,-1463.0,-173.0,461.0,-105.0,774.0
114.0,-26.0,195.0,49.0,-1451.0,-171.0,464.0,-87.0,769.0
115.0,-28.0,195.0,42.0,-1436.0,-172.0,467.0,-85.0,761.0
119.0,-21.0,193.0,30.0,-1419.0,-171.0,476.0,-75.0,756.0
122.0,-21.0,193.0,13.0,-1404.0,-171.0,486.0,-65.0,746.0
123.0,-15.0,185.0,-11.0,-1392.0,-173.0,497.0,-54.0,724.0
127.0,-13.0,183.0,-35.0,-1383.0,-177.0,510.0,-45.0,711.0
128.0,-13.0,179.0,-57.0,-1375.0,-184.0,526.0,-37.0,705.0
132.0,-6.0,178.0,-79.0,-1369.0,-188.0,530.0,-30.0,697.0
136.0,-8.0,177.0,-94.0,-1362.0,-192.0,539.0,-16.0,687.0
135.0,-5.0,177.0,-100.0,-1361.0,-202.0,553.0,-13.0,681.0
143.0,-5.0,173.0,-101.0,-1364.0,-213.0,577.0,-1.0,671.0
143.0,-2.0,173.0,-107.0,-1373.0,-218.0,588.0,10.0,661.0
151.0,0.0,170.0,-111.0,-1383.0,-230.0,617.0,17.0,656.0
160.0,2.0,167.0,-122.0,-1391.0,-240.0,638.0,18.0,645.0
166.0,5.0,164.0,-138.0,-1394.0,-244.0,662.0,27.0,637.0
173.0,5.0,164.0,-150.0,-1391.0,-249.0,689.0,31.0,636.0
179.0,4.0,170.0,-158.0,-1385.0,-255.0,701.0,36.0,627.0
183.0,8.0,163.0,-164.0,-1377.0,-256.0,730.0,35.0,631.0
190.0,5.0,165.0,-171.0,-1363.0,-249.0,741.0,37.0,633.0
188.0,7.0,169.0,-173.0,-1342.0,-240.0,746.0,38.0,638.0
188.0,6.0,169.0,-173.0,-1315.0,-230.0,745.0,38.0,641.0
189.0,8.0,168.0,-169.0,-1287.0,-221.0,745.0,40.0,640.0
192.0,6.0,164.0,-165.0,-1259.0,-205.0,769.0,38.0,640.0
194.0,5.0,163.0,-167.0,-1239.0,-191.0,770.0,41.0,637.0
195.0,8.0,166.0,-168.0,-1227.0,-188.0,782.0,43.0,630.0
194.0,9.0,162.0,-173.0,-1221.0,-191.0,782.0,46.0,623.0
197.0,8.0,163.0,-182.0,-1218.0,-190.0,786.0,54.0,614.0
192.0,9.0,158.0,-188.0,-1218.0,-184.0,765.0,58.0,601.0
197.0,8.0,155.0,-192.0,-1210.0,-165.0,791.0,51.0,591.0
199.0,8.0,154.0,-200.0,-1214.0,-158.0,813.0,54.0,586.0
195.0,8.0,150.0,-210.0,-1227.0,-162.0,783.0,59.0,568.0
195.0,9.0,150.0,-221.0,-1232.0,-160.0,773.0,68.0,557.0
192.0,11.0,148.0,-230.0,-1233.0,-155.0,775.0,64.0,557.0
195.0,9.0,147.0,-233.0,-1230.0,-152.0,777.0,65.0,554.0
187.0,11.0,144.0,-230.0,-1226.0,-148.0,741.0,80.0,554.0
196.0,11.0,145.0,-214.0,-1214.0,-133.0,780.0,67.0,547.0
208.0,8.0,145.0,-197.0,-1208.0,-130.0,825.0,57.0,545.0
202.0,9.0,142.0,-181.0,-1217.0,-144.0,818.0,66.0,538.0
203.0,8.0,142.0,-161.0,-1224.0,-152.0,819.0,67.0,534.0
209.0,9.0,142.0,-144.0,-1229.0,-153.0,833.0,68.0,528.0
194.0,13.0,132.0,-132.0,-1229.0,-149.0,825.0,69.0,517.0
213.0,9.0,133.0,-122.0,-1219.0,-134.0,831.0,64.0,491.0
217.0,8.0,130.0,-128.0,-1211.0,-132.0,883.0,59.0,488.0
210.0,9.0,125.0,-144.0,-1222.0,-147.0,864.0,63.0,476.0
212.0,11.0,122.0,-162.0,-1226.0,-159.0,852.0,65.0,462.0
209.0,10.0,124.0,-173.0,-1225.0,-166.0,844.0,63.0,456.0
202.0,9.0,122.0,-183.0,-1224.0,-167.0,827.0,65.0,460.0
207.0,9.0,122.0,-190.0,-1208.0,-144.0,824.0,64.0,453.0
223.0,7.0,122.0,-199.0,-1193.0,-119.0,889.0,48.0,460.0
225.0,6.0,119.0,-210.0,-1195.0,-130.0,907.0,45.0,451.0
223.0,8.0,124.0,-223.0,-1204.0,-150.0,894.0,52.0,452.0
219.0,8.0,117.0,-234.0,-1203.0,-155.0,895.0,52.0,450.0
220.0,8.0,117.0,-247.0,-1193.0,-144.0,875.0,53.0,434.0
231.0,6.0,113.0,-260.0,-1175.0,-121.0,915.0,47.0,424.0
242.0,6.0,111.0,-279.0,-1169.0,-115.0,969.0,35.0,415.0
237.0,4.0,111.0,-303.0,-1174.0,-126.0,953.0,28.0,404.0
237.0,4.0,103.0,-325.0,-1178.0,-139.0,938.0,28.0,397.0
233.0,3.0,108.0,-341.0,-1171.0,-143.0,933.0,31.0,393.0
239.0,-1.0,107.0,-348.0,-1150.0,-133.0,944.0,28.0,394.0
246.0,0.0,107.0,-348.0,-1124.0,-127.0,994.0,19.0,386.0
248.0,-1.0,99.0,-347.0,-1109.0,-142.0,1001.0,29.0,373.0
248.0,0.0,100.0,-337.0,-1094.0,-161.0,986.0,37.0,355.0
251.0,-2.0,91.0,-319.0,-1076.0,-176.0,996.0,43.0,331.0
248.0,6.0,92.0,-299.0,-1064.0,-187.0,995.0,40.0,318.0
244.0,3.0,85.0,-280.0,-1058.0,-184.0,982.0,47.0,304.0
255.0,1.0,77.0,-266.0,-1047.0,-162.0,1017.0,40.0,292.0
256.0,-2.0,83.0,-261.0,-1048.0,-155.0,1025.0,32.0,275.0
253.0,1.0,79.0,-267.0,-1058.0,-160.0,1015.0,35.0,258.0
255.0,0.0,70.0,-279.0,-1069.0,-160.0,1008.0,29.0,247.0
240.0,2.0,71.0,-295.0,-1074.0,-147.0,951.0,37.0,235.0
252.0,-4.0,61.0,-311.0,-1066.0,-125.0,1005.0,12.0,225.0
258.0,-5.0,61.0,-327.0,-1068.0,-120.0,1033.0,-4.0,214.0
255.0,-10.0,59.0,-338.0,-1079.0,-132.0,1026.0,-11.0,200.0
251.0,-9.0,57.0,-342.0,-1090.0,-139.0,1001.0,-18.0,185.0
241.0,-15.0,55.0,-330.0,-1095.0,-131.0,962.0,-27.0,184.0
247.0,-18.0,53.0,-309.0,-1090.0,-110.0,973.0,-36.0,174.0
246.0,-19.0,54.0,-284.0,-1080.0,-94.0,986.0,-43.0,165.0
246.0,-23.0,49.0,-256.0,-1072.0,-103.0,989.0,-54.0,160.0
253.0,-25.0,50.0,-230.0,-1062.0,-109.0,1002.0,-60.0,160.0
246.0,-25.0,48.0,-207.0,-1047.0,-118.0,984.0,-50.0,161.0
251.0,-22.0,47.0,-179.0,-1029.0,-121.0,989.0,-51.0,155.0
250.0,-25.0,48.0,-152.0,-1010.0,-129.0,1012.0,-55.0,162.0
252.0,-22.0,50.0,-126.0,-990.0,-139.0,1002.0,-52.0,156.0
253.0,-16.0,49.0,-103.0,-963.0,-142.0,992.0,-39.0,151.0
252.0,-18.0,48.0,-91.0,-934.0,-142.0,1012.0,-30.0,150.0
257.0,-14.0,48.0,-90.0,-908.0,-150.0,1029.0,-24.0,150.0
259.0,-16.0,45.0,-100.0,-879.0,-152.0,1031.0,-21.0,147.0
257.0,-13.0,45.0,-117.0,-850.0,-158.0,1016.0,-10.0,148.0
258.0,-11.0,46.0,-138.0,-815.0,-143.0,1015.0,-1.0,154.0
268.0,-10.0,47.0,-158.0,-784.0,-128.0,1071.0,-6.0,150.0
267.0,-9.0,46.0,-179.0,-767.0,-138.0,1065.0,-1.0,146.0
269.0,-9.0,43.0,-196.0,-750.0,-144.0,1072.0,0.0,141.0
268.0,-8.0,42.0,-201.0,-740.0,-138.0,1062.0,5.0,127.0
263.0,-10.0,44.0,-189.0,-730.0,-132.0,1052.0,6.0,124.0
266.0,-7.0,39.0,-164.0,-718.0,-120.0,1057.0,2.0,116.0
262.0,-7.0,35.0,-133.0,-700.0,-105.0,1053.0,-1.0,105.0
265.0,-13.0,37.0,-100.0,-672.0,-93.0,1047.0,-8.0,99.0
262.0,-13.0,38.0,-69.0,-634.0,-85.0,1042.0,-7.0,99.0
259.0,-11.0,39.0,-40.0,-592.0,-81.0,1033.0,-4.0,102.0
256.0,-12.0,35.0,-18.0,-550.0,-79.0,1018.0,-6.0,100.0
262.0,-10.0,35.0,3.0,-510.0,-73.0,1044.0,-6.0,107.0
263.0,-8.0,39.0,12.0,-486.0,-81.0,1051.0,0.0,111.0
263.0,-7.0,39.0,14.0,-465.0,-97.0,1043.0,16.0,111.0
261.0,-3.0,34.0,8.0,-445.0,-106.0,1039.0,21.0,115.0
264.0,1.0,38.0,-6.0,-431.0,-112.0,1036.0,31.0,114.0
253.0,7.0,41.0,-28.0,-421.0,-116.0,1003.0,45.0,110.0
256.0,4.0,38.0,-56.0,-407.0,-110.0,1014.0,49.0,111.0
259.0,6.0,40.0,-89.0,-398.0,-107.0,1039.0,49.0,119.0
264.0,4.0,36.0,-124.0,-397.0,-116.0,1054.0,46.0,116.0
261.0,8.0,36.0,-161.0,-395.0,-131.0,1045.0,56.0,112.0
258.0,8.0,35.0,-191.0,-383.0,-122.0,1030.0,60.0,105.0
258.0,6.0,40.0,-222.0,-364.0,-122.0,1024.0,55.0,106.0
256.0,9.0,35.0,-241.0,-347.0,-124.0,1021.0,60.0,108.0
253.0,8.0,37.0,-253.0,-337.0,-120.0,1003.0,71.0,109.0
255.0,11.0,32.0,-261.0,-327.0,-100.0,1023.0,72.0,98.0
260.0,9.0,30.0,-265.0,-331.0,-89.0,1031.0,74.0,82.0
257.0,10.0,32.0,-275.0,-336.0,-88.0,1020.0,86.0,71.0
256.0,12.0,29.0,-287.0,-340.0,-90.0,1017.0,87.0,64.0
254.0,14.0,25.0,-301.0,-340.0,-85.0,1021.0,93.0,56.0
256.0,15.0,23.0,-318.0,-334.0,-76.0,1018.0,91.0,50.0
255.0,16.0,20.0,-341.0,-326.0,-67.0,1021.0,93.0,49.0
256.0,14.0,24.0,-366.0,-320.0,-56.0,1019.0,88.0,52.0
256.0,12.0,26.0,-394.0,-311.0,-47.0,1019.0,85.0,58.0
256.0,12.0,28.0,-422.0,-303.0,-43.0,1024.0,77.0,66.0
257.0,8.0,31.0,-449.0,-296.0,-37.0,1016.0,73.0,71.0
256.0,8.0,26.0,-472.0,-286.0,-32.0,1011.0,57.0,78.0
254.0,7.0,32.0,-490.0,-279.0,-32.0,1011.0,43.0,94.0
251.0,4.0,37.0,-498.0,-272.0,-32.0,1004.0,44.0,102.0
251.0,-1.0,42.0,-496.0,-267.0,-31.0,1006.0,30.0,118.0
252.0,-3.0,43.0,-479.0,-266.0,-34.0,1005.0,24.0,126.0
256.0,-7.0,43.0,-451.0,-263.0,-44.0,1013.0,29.0,140.0
255.0,-3.0,46.0,-410.0,-256.0,-51.0,1020.0,23.0,147.0
257.0,-4.0,46.0,-360.0,-250.0,-54.0,1023.0,21.0,151.0
257.0,-7.0,48.0,-304.0,-251.0,-58.0,1025.0,25.0,146.0
255.0,0.0,43.0,-248.0,-265.0,-68.0,1023.0,28.0,141.0
256.0,-1.0,41.0,-193.0,-284.0,-73.0,1019.0,33.0,122.0
254.0,5.0,37.0,-152.0,-301.0,-73.0,1018.0,37.0,107.0
255.0,6.0,37.0,-127.0,-310.0,-73.0,1021.0,37.0,94.0
259.0,4.0,28.0,-115.0,-314.0,-69.0,1025.0,44.0,91.0
258.0,3.0,31.0,-116.0,-309.0,-62.0,1023.0,44.0,84.0
259.0,3.0,29.0,-124.0,-297.0,-59.0,1023.0,43.0,79.0
261.0,1.0,33.0,-137.0,-284.0,-58.0,1028.0,46.0,88.0
261.0,1.0,30.0,-153.0,-266.0,-57.0,1035.0,46.0,79.0
260.0,6.0,34.0,-167.0,-248.0,-56.0,1041.0,48.0,86.0
264.0,5.0,33.0,-178.0,-228.0,-56.0,1050.0,48.0,89.0
264.0,7.0,33.0,-190.0,-206.0,-55.0,1045.0,52.0,91.0
261.0,6.0,37.0,-200.0,-185.0,-54.0,1044.0,52.0,99.0
266.0,7.0,36.0,-207.0,-169.0,-52.0,1045.0,46.0,103.0
261.0,3.0,37.0,-211.0,-158.0,-52.0,1043.0,43.0,106.0
262.0,4.0,36.0,-213.0,-149.0,-51.0,1038.0,41.0,103.0
261.0,-1.0,36.0,-215.0,-145.0,-50.0,1032.0,42.0,98.0
258.0,2.0,36.0,-219.0,-144.0,-46.0,1025.0,37.0,101.0
258.0,0.0,33.0,-220.0,-147.0,-45.0,1023.0,34.0,96.0
256.0,-1.0,37.0,-218.0,-154.0,-39.0,1021.0,28.0,96.0
248.0,-2.0,32.0,-213.0,-161.0,-32.0,993.0,28.0,88.0
247.0,-2.0,35.0,-209.0,-161.0,-19.0,977.0,28.0,95.0
255.0,-3.0,28.0,-198.0,-159.0,3.0,1023.0,15.0,87.0
254.0,-7.0,27.0,-190.0,-171.0,-1.0,1019.0,13.0,72.0
250.0,-3.0,26.0,-186.0,-182.0,-18.0,1005.0,17.0,62.0
247.0,-4.0,30.0,-184.0,-190.0,-31.0,992.0,27.0,62.0
241.0,-2.0,28.0,-177.0,-188.0,-35.0,969.0,28.0,64.0
251.0,-2.0,25.0,-167.0,-180.0,-32.0,991.0,30.0,66.0
255.0,-3.0,29.0,-159.0,-178.0,-34.0,1007.0,26.0,62.0
254.0,3.0,25.0,-157.0,-176.0,-47.0,1005.0,33.0,56.0
250.0,-1.0,21.0,-154.0,-179.0,-57.0,997.0,41.0,55.0
249.0,0.0,21.0,-152.0,-177.0,-56.0,988.0,33.0,53.0
252.0,-3.0,24.0,-151.0,-173.0,-46.0,987.0,28.0,53.0
250.0,-3.0,23.0,-152.0,-174.0,-42.0,1011.0,19.0,53.0
252.0,-7.0,21.0,-152.0,-188.0,-57.0,1005.0,16.0,47.0
245.0,-5.0,22.0,-153.0,-203.0,-65.0,980.0,20.0,41.0
247.0,-5.0,19.0,-153.0,-209.0,-62.0,985.0,15.0,43.0
253.0,-7.0,23.0,-153.0,-212.0,-53.0,1007.0,9.0,42.0
253.0,-5.0,25.0,-156.0,-219.0,-63.0,1004.0,6.0,44.0
249.0,-6.0,22.0,-162.0,-224.0,-83.0,991.0,11.0,44.0
253.0,-2.0,21.0,-167.0,-228.0,-96.0,1004.0,20.0,40.0
248.0,-1.0,23.0,-171.0,-231.0,-103.0,990.0,28.0,43.0
251.0,-2.0,21.0,-180.0,-226.0,-95.0,991.0,25.0,39.0
251.0,-1.0,23.0,-192.0,-219.0,-91.0,990.0,39.0,50.0
256.0,1.0,21.0,-203.0,-215.0,-89.0,1004.0,39.0,50.0
259.0,0.0,23.0,-215.0,-220.0,-97.0,1018.0,49.0,50.0
255.0,2.0,25.0,-228.0,-228.0,-105.0,1013.0,41.0,49.0
253.0,8.0,25.0,-238.0,-236.0,-118.0,1017.0,59.0,52.0
248.0,7.0,26.0,-233.0,-248.0,-118.0,996.0,62.0,54.0
256.0,6.0,25.0,-218.0,-261.0,-104.0,1013.0,56.0,52.0
256.0,1.0,22.0,-200.0,-279.0,-92.0,1011.0,37.0,49.0
253.0,1.0,22.0,-186.0,-295.0,-84.0,1009.0,38.0,37.0
251.0,-2.0,20.0,-175.0,-309.0,-80.0,1002.0,27.0,37.0
249.0,-2.0,17.0,-166.0,-319.0,-79.0,995.0,23.0,41.0
245.0,-7.0,18.0,-153.0,-328.0,-75.0,991.0,13.0,38.0
245.0,-8.0,18.0,-143.0,-333.0,-79.0,979.0,5.0,29.0
247.0,-8.0,18.0,-132.0,-339.0,-94.0,978.0,6.0,27.0
248.0,-6.0,12.0,-122.0,-344.0,-108.0,986.0,6.0,25.0
241.0,-8.0,13.0,-115.0,-344.0,-113.0,953.0,15.0,21.0
253.0,-7.0,14.0,-108.0,-340.0,-116.0,1003.0,13.0,15.0
247.0,-2.0,10.0,-105.0,-344.0,-130.0,994.0,22.0,10.0
251.0,-1.0,5.0,-102.0,-348.0,-141.0,1001.0,21.0,2.0
252.0,1.0,10.0,-99.0,-351.0,-154.0,997.0,28.0,1.0
251.0,1.0,12.0,-96.0,-350.0,-161.0,1005.0,27.0,-2.0
247.0,2.0,9.0,-95.0,-340.0,-159.0,979.0,37.0,-1.0
255.0,-2.0,5.0,-92.0,-319.0,-147.0,1005.0,35.0,-4.0
255.0,-2.0,10.0,-93.0,-307.0,-150.0,1033.0,36.0,-7.0
253.0,4.0,5.0,-95.0,-307.0,-162.0,1018.0,42.0,-5.0
257.0,4.0,2.0,-99.0,-301.0,-171.0,1018.0,49.0,-21.0
256.0,5.0,5.0,-107.0,-294.0,-175.0,1013.0,55.0,-22.0
257.0,8.0,4.0,-120.0,-282.0,-172.0,1019.0,56.0,-30.0
261.0,6.0,0.0,-139.0,-269.0,-169.0,1038.0,56.0,-36.0
261.0,7.0,1.0,-158.0,-256.0,-167.0,1039.0,56.0,-39.0
265.0,5.0,-3.0,-179.0,-239.0,-166.0,1038.0,56.0,-46.0
264.0,7.0,-5.0,-199.0,-215.0,-159.0,1029.0,65.0,-40.0
267.0,8.0,-2.0,-212.0,-189.0,-150.0,1052.0,64.0,-48.0
265.0,8.0,-5.0,-218.0,-178.0,-150.0,1049.0,63.0,-56.0
262.0,9.0,-4.0,-221.0,-173.0,-153.0,1039.0,72.0,-64.0
262.0,17.0,-3.0,-223.0,-169.0,-148.0,1053.0,65.0,-65.0
258.0,10.0,-11.0,-228.0,-174.0,-153.0,1052.0,67.0,-71.0
260.0,11.0,5.0,-231.0,-186.0,-166.0,1058.0,72.0,-74.0
267.0,9.0,-13.0,-229.0,-198.0,-172.0,1066.0,76.0,-85.0
268.0,15.0,-17.0,-222.0,-209.0,-173.0,1064.0,82.0,-86.0
264.0,11.0,-20.0,-202.0,-215.0,-168.0,1064.0,78.0,-93.0
269.0,12.0,-11.0,-169.0,-215.0,-154.0,1067.0,79.0,-100.0
265.0,18.0,-16.0,-130.0,-208.0,-137.0,1066.0,77.0,-98.0
268.0,12.0,-13.0,-90.0,-197.0,-123.0,1055.0,74.0,-100.0
263.0,5.0,-15.0,-50.0,-184.0,-111.0,1056.0,70.0,-96.0
267.0,9.0,-15.0,-14.0,-172.0,-104.0,1058.0,66.0,-107.0
269.0,4.0,-18.0,17.0,-161.0,-99.0,1066.0,60.0,-112.0
269.0,6.0,-19.0,43.0,-156.0,-94.0,1071.0,64.0,-109.0
271.0,3.0,-18.0,69.0,-148.0,-90.0,1070.0,61.0,-107.0
270.0,6.0,-19.0,93.0,-145.0,-83.0,1070.0,57.0,-104.0
269.0,4.0,-17.0,118.0,-146.0,-75.0,1071.0,58.0,-106.0
268.0,5.0,-16.0,143.0,-149.0,-66.0,1066.0,60.0,-109.0
265.0,7.0,-18.0,168.0,-156.0,-58.0,1063.0,56.0,-107.0
266.0,3.0,-18.0,189.0,-162.0,-49.0,1064.0,55.0,-115.0
262.0,8.0,-20.0,207.0,-167.0,-45.0,1058.0,61.0,-107.0
262.0,8.0,-16.0,224.0,-168.0,-40.0,1044.0,67.0,-102.0
262.0,10.0,-18.0,239.0,-169.0,-33.0,1045.0,69.0,-102.0
261.0,9.0,-19.0,249.0,-165.0,-34.0,1048.0,78.0,-102.0
263.0,13.0,-19.0,252.0,-157.0,-38.0,1054.0,84.0,-101.0
268.0,12.0,-18.0,246.0,-148.0,-42.0,1047.0,90.0,-98.0
264.0,19.0,-12.0,231.0,-140.0,-47.0,1047.0,104.0,-95.0
263.0,17.0,-12.0,209.0,-135.0,-48.0,1056.0,116.0,-87.0
264.0,22.0,-15.0,179.0,-132.0,-51.0,1043.0,120.0,-89.0
259.0,23.0,-11.0,141.0,-131.0,-49.0,1043.0,123.0,-82.0
262.0,23.0,-14.0,100.0,-129.0,-41.0,1046.0,127.0,-80.0
262.0,21.0,-8.0,63.0,-132.0,-30.0,1047.0,129.0,-65.0
261.0,23.0,-10.0,28.0,-135.0,-18.0,1037.0,120.0,-62.0
261.0,18.0,-8.0,-1.0,-140.0,-10.0,1041.0,113.0,-63.0
261.0,16.0,-7.0,-25.0,-146.0,-2.0,1043.0,101.0,-59.0
261.0,16.0,-2.0,-36.0,-148.0,2.0,1043.0,91.0,-61.0
263.0,12.0,-5.0,-35.0,-144.0,1.0,1045.0,95.0,-67.0
262.0,11.0,-9.0,-20.0,-137.0,3.0,1045.0,88.0,-67.0
262.0,9.0,-9.0,7.0,-132.0,-1.0,1051.0,77.0,-80.0
263.0,9.0,-16.0,38.0,-134.0,-1.0,1046.0,75.0,-92.0
263.0,8.0,-19.0,73.0,-140.0,2.0,1051.0,69.0,-101.0
262.0,8.0,-23.0,106.0,-147.0,5.0,1050.0,62.0,-126.0
264.0,9.0,-23.0,135.0,-152.0,7.0,1055.0,62.0,-143.0
265.0,8.0,-24.0,160.0,-153.0,8.0,1050.0,72.0,-157.0
262.0,10.0,-30.0,179.0,-147.0,8.0,1048.0,71.0,-170.0
262.0,10.0,-33.0,190.0,-132.0,5.0,1042.0,79.0,-178.0
261.0,12.0,-33.0,194.0,-110.0,5.0,1035.0,85.0,-183.0
262.0,14.0,-34.0,192.0,-81.0,2.0,1031.0,96.0,-186.0
260.0,19.0,-37.0,183.0,-48.0,3.0,1029.0,101.0,-185.0
262.0,20.0,-36.0,167.0,-12.0,4.0,1029.0,114.0,-182.0
262.0,19.0,-32.0,152.0,22.0,4.0,1027.0,116.0,-184.0
260.0,21.0,-31.0,129.0,51.0,6.0,1027.0,127.0,-179.0
261.0,19.0,-32.0,108.0,77.0,8.0,1030.0,126.0,-177.0
262.0,22.0,-31.0,86.0,95.0,11.0,1029.0,129.0,-171.0
258.0,26.0,-30.0,64.0,107.0,18.0,1030.0,133.0,-167.0
259.0,23.0,-27.0,42.0,115.0,26.0,1037.0,131.0,-166.0
261.0,23.0,-31.0,18.0,120.0,32.0,1035.0,127.0,-159.0
260.0,23.0,-31.0,-6.0,123.0,37.0,1041.0,127.0,-163.0
259.0,19.0,-28.0,-31.0,127.0,43.0,1035.0,118.0,-152.0
262.0,19.0,-26.0,-53.0,130.0,49.0,1031.0,112.0,-145.0
260.0,11.0,-26.0,-71.0,132.0,53.0,1033.0,105.0,-143.0
262.0,12.0,-21.0,-88.0,137.0,56.0,1031.0,91.0,-134.0
257.0,14.0,-22.0,-106.0,145.0,56.0,1025.0,90.0,-126.0
256.0,11.0,-20.0,-117.0,153.0,57.0,1022.0,81.0,-121.0
256.0,9.0,-17.0,-128.0,160.0,52.0,1021.0,77.0,-115.0
255.0,9.0,-15.0,-137.0,163.0,48.0,1022.0,77.0,-106.0
257.0,10.0,-18.0,-143.0,166.0,42.0,1026.0,73.0,-102.0
263.0,13.0,-18.0,-147.0,164.0,38.0,1026.0,76.0,-99.0
260.0,10.0,-15.0,-149.0,160.0,32.0,1024.0,76.0,-97.0
262.0,8.0,-16.0,-149.0,151.0,31.0,1027.0,68.0,-99.0
258.0,8.0,-17.0,-144.0,146.0,29.0,1020.0,71.0,-101.0
257.0,6.0,-17.0,-141.0,138.0,30.0,1023.0,61.0,-101.0
257.0,5.0,-17.0,-134.0,132.0,30.0,1015.0,58.0,-102.0
256.0,4.0,-20.0,-128.0,127.0,29.0,1013.0,56.0,-105.0
254.0,2.0,-19.0,-120.0,125.0,30.0,1010.0,60.0,-111.0
252.0,4.0,-17.0,-109.0,125.0,28.0,1006.0,52.0,-105.0
256.0,4.0,-20.0,-99.0,128.0,27.0,1005.0,56.0,-114.0
254.0,5.0,-19.0,-90.0,130.0,24.0,1002.0,53.0,-114.0
251.0,8.0,-18.0,-83.0,140.0,21.0,998.0,63.0,-107.0
248.0,6.0,-18.0,-78.0,151.0,17.0,998.0,58.0,-103.0
253.0,6.0,-17.0,-75.0,165.0,13.0,1002.0,61.0,-110.0
253.0,7.0,-18.0,-75.0,177.0,8.0,1002.0,58.0,-95.0
251.0,8.0,-17.0,-79.0,185.0,7.0,1004.0,64.0,-100.0
255.0,8.0,-12.0,-82.0,185.0,6.0,1004.0,61.0,-96.0
254.0,6.0,-16.0,-87.0,184.0,6.0,1009.0,60.0,-88.0
255.0,8.0,-16.0,-94.0,179.0,4.0,1013.0,61.0,-84.0
255.0,7.0,-13.0,-101.0,174.0,1.0,1015.0,67.0,-79.0
257.0,6.0,-12.0,-109.0,171.0,1.0,1019.0,71.0,-76.0
256.0,8.0,-10.0,-118.0,165.0,-2.0,1020.0,69.0,-68.0
258.0,9.0,-6.0,-128.0,161.0,-4.0,1022.0,71.0,-66.0
257.0,9.0,-5.0,-140.0,156.0,-7.0,1023.0,74.0,-64.0
257.0,7.0,-4.0,-153.0,153.0,-8.0,1016.0,72.0,-56.0
253.0,11.0,-3.0,-168.0,149.0,-7.0,1017.0,71.0,-50.0
255.0,10.0,-3.0,-185.0,145.0,-7.0,1017.0,75.0,-46.0
256.0,9.0,-5.0,-202.0,146.0,-7.0,1017.0,75.0,-46.0
255.0,10.0,2.0,-221.0,149.0,-7.0,1020.0,81.0,-31.0
260.0,10.0,-2.0,-239.0,153.0,-9.0,1022.0,83.0,-35.0
257.0,15.0,2.0,-255.0,160.0,-11.0,1022.0,87.0,-37.0
254.0,15.0,3.0,-271.0,165.0,-11.0,1010.0,95.0,-36.0
257.0,12.0,0.0,-286.0,169.0,-2.0,1031.0,86.0,-38.0
261.0,11.0,1.0,-300.0,156.0,-1.0,1044.0,80.0,-42.0
262.0,8.0,-5.0,-313.0,130.0,-6.0,1046.0,79.0,-48.0
262.0,9.0,-4.0,-319.0,103.0,-8.0,1040.0,69.0,-57.0
260.0,6.0,-9.0,-319.0,78.0,-6.0,1046.0,68.0,-65.0
261.0,4.0,-12.0,-313.0,56.0,-3.0,1040.0,63.0,-76.0
258.0,5.0,-12.0,-301.0,39.0,3.0,1040.0,56.0,-81.0
260.0,3.0,-16.0,-284.0,31.0,6.0,1035.0,48.0,-84.0
259.0,-2.0,-12.0,-264.0,30.0,6.0,1030.0,51.0,-89.0
257.0,4.0,-15.0,-242.0,33.0,4.0,1021.0,44.0,-98.0
256.0,-2.0,-17.0,-217.0,41.0,0.0,1022.0,47.0,-100.0
255.0,4.0,-14.0,-193.0,51.0,-3.0,1016.0,50.0,-99.0
256.0,6.0,-18.0,-171.0,64.0,-8.0,1017.0,56.0,-101.0
256.0,8.0,-16.0,-151.0,76.0,-11.0,1020.0,59.0,-99.0
255.0,7.0,-15.0,-133.0,87.0,-14.0,1012.0,65.0,-97.0
254.0,9.0,-11.0,-116.0,95.0,-17.0,1013.0,62.0,-93.0
255.0,8.0,-15.0,-102.0,101.0,-20.0,1010.0,67.0,-90.0
258.0,8.0,-11.0,-91.0,107.0,-17.0,1012.0,70.0,-84.0
256.0,8.0,-15.0,-85.0,112.0,-16.0,1009.0,73.0,-83.0
256.0,9.0,-14.0,-82.0,117.0,-16.0,1010.0,75.0,-78.0
256.0,8.0,-7.0,-83.0,124.0,-14.0,1013.0,74.0,-70.0
255.0,9.0,-5.0,-85.0,130.0,-13.0,1012.0,75.0,-72.0
256.0,10.0,-8.0,-90.0,133.0,-12.0,1013.0,73.0,-65.0
257.0,10.0,-7.0,-97.0,132.0,-10.0,1014.0,73.0,-62.0
254.0,8.0,-6.0,-108.0,128.0,-12.0,1016.0,73.0,-59.0
255.0,9.0,-6.0,-120.0,118.0,-12.0,1012.0,74.0,-57.0
256.0,9.0,-7.0,-131.0,108.0,-12.0,1017.0,81.0,-56.0
255.0,11.0,-3.0,-142.0,98.0,-11.0,1016.0,74.0,-57.0
258.0,11.0,-3.0,-151.0,84.0,-14.0,1024.0,79.0,-56.0
256.0,11.0,-3.0,-157.0,69.0,-23.0,1018.0,84.0,-53.0
256.0,13.0,-6.0,-165.0,61.0,-27.0,1020.0,86.0,-55.0
256.0,11.0,-5.0,-169.0,57.0,-29.0,1020.0,88.0,-48.0
258.0,12.0,1.0,-172.0,55.0,-25.0,1024.0,84.0,-48.0
256.0,12.0,-5.0,-172.0,51.0,-23.0,1018.0,79.0,-52.0
255.0,8.0,-4.0,-171.0,42.0,-19.0,1018.0,76.0,-57.0
255.0,9.0,-3.0,-167.0,30.0,-16.0,1015.0,72.0,-59.0
256.0,6.0,-9.0,-161.0,21.0,-11.0,1018.0,72.0,-67.0
256.0,9.0,-10.0,-154.0,12.0,-10.0,1020.0,73.0,-72.0
257.0,6.0,-9.0,-144.0,6.0,-9.0,1023.0,69.0,-72.0
259.0,9.0,-9.0,-134.0,7.0,-10.0,1023.0,69.0,-75.0
259.0,6.0,-7.0,-123.0,11.0,-10.0,1021.0,66.0,-77.0
259.0,10.0,-12.0,-113.0,19.0,-9.0,1027.0,68.0,-76.0
258.0,8.0,-9.0,-103.0,23.0,-8.0,1035.0,70.0,-80.0
258.0,6.0,-12.0,-96.0,25.0,-7.0,1031.0,72.0,-80.0
257.0,7.0,-10.0,-90.0,21.0,-6.0,1030.0,71.0,-85.0
256.0,9.0,-11.0,-84.0,10.0,-7.0,1029.0,67.0,-86.0
258.0,8.0,-12.0,-78.0,-5.0,-8.0,1029.0,66.0,-90.0
262.0,6.0,-15.0,-70.0,-20.0,-12.0,1035.0,65.0,-92.0
263.0,7.0,-16.0,-60.0,-33.0,-12.0,1034.0,62.0,-88.0
260.0,8.0,-14.0,-51.0,-44.0,-15.0,1035.0,58.0,-98.0
262.0,5.0,-17.0,-40.0,-47.0,-17.0,1036.0,61.0,-102.0
262.0,8.0,-14.0,-33.0,-47.0,-18.0,1035.0,64.0,-98.0
261.0,7.0,-18.0,-25.0,-43.0,-18.0,1032.0,64.0,-103.0
263.0,8.0,-18.0,-22.0,-34.0,-17.0,1037.0,65.0,-104.0
258.0,8.0,-17.0,-20.0,-23.0,-15.0,1030.0,70.0,-107.0
259.0,8.0,-14.0,-20.0,-9.0,-14.0,1031.0,77.0,-101.0
259.0,10.0,-18.0,-20.0,5.0,-11.0,1033.0,75.0,-99.0
261.0,9.0,-15.0,-23.0,21.0,-9.0,1028.0,75.0,-100.0
259.0,10.0,-13.0,-25.0,34.0,-4.0,1023.0,79.0,-94.0
255.0,11.0,-16.0,-31.0,44.0,1.0,1022.0,82.0,-95.0
256.0,11.0,-15.0,-36.0,50.0,4.0,1020.0,82.0,-94.0
255.0,9.0,-15.0,-41.0,53.0,5.0,1012.0,86.0,-94.0
257.0,10.0,-15.0,-48.0,54.0,4.0,1010.0,80.0,-91.0
254.0,10.0,-12.0,-57.0,53.0,3.0,1014.0,83.0,-95.0
255.0,11.0,-13.0,-63.0,52.0,1.0,1013.0,87.0,-93.0
255.0,13.0,-14.0,-72.0,52.0,-3.0,1010.0,85.0,-95.0
256.0,9.0,-15.0,-80.0,48.0,-5.0,1009.0,85.0,-95.0
256.0,11.0,-15.0,-87.0,46.0,-7.0,1016.0,84.0,-92.0
256.0,11.0,-16.0,-91.0,45.0,-8.0,1014.0,82.0,-93.0
256.0,8.0,-15.0,-95.0,43.0,-9.0,1011.0,83.0,-95.0
257.0,11.0,-14.0,-98.0,44.0,-9.0,1019.0,88.0,-98.0
259.0,11.0,-15.0,-97.0,47.0,-9.0,1023.0,89.0,-96.0
257.0,14.0,-16.0,-95.0,52.0,-9.0,1025.0,88.0,-95.0
258.0,14.0,-12.0,-92.0,57.0,-6.0,1029.0,90.0,-97.0
258.0,12.0,-14.0,-88.0,64.0,-3.0,1029.0,86.0,-98.0
259.0,11.0,-19.0,-83.0,71.0,2.0,1029.0,85.0,-95.0
262.0,10.0,-13.0,-77.0,75.0,5.0,1034.0,84.0,-98.0
259.0,9.0,-16.0,-73.0,78.0,8.0,1026.0,84.0,-95.0
261.0,10.0,-21.0,-68.0,81.0,11.0,1028.0,81.0,-100.0
258.0,9.0,-16.0,-59.0,80.0,12.0,1028.0,74.0,-98.0
258.0,8.0,-18.0,-50.0,81.0,15.0,1032.0,75.0,-108.0
260.0,8.0,-21.0,-40.0,83.0,13.0,1035.0,71.0,-103.0
262.0,8.0,-17.0,-31.0,87.0,11.0,1032.0,79.0,-105.0
259.0,11.0,-20.0,-20.0,90.0,10.0,1032.0,76.0,-103.0
262.0,11.0,-16.0,-8.0,98.0,8.0,1030.0,74.0,-113.0
260.0,13.0,-20.0,2.0,105.0,7.0,1030.0,80.0,-111.0
258.0,11.0,-20.0,10.0,111.0,5.0,1028.0,77.0,-109.0
257.0,10.0,-18.0,16.0,112.0,4.0,1026.0,79.0,-106.0
257.0,8.0,-17.0,21.0,113.0,5.0,1023.0,86.0,-116.0
257.0,11.0,-19.0,25.0,112.0,5.0,1023.0,73.0,-118.0
256.0,11.0,-19.0,30.0,109.0,5.0,1022.0,77.0,-116.0
258.0,10.0,-16.0,33.0,106.0,6.0,1018.0,81.0,-111.0
255.0,9.0,-20.0,38.0,104.0,7.0,1020.0,79.0,-112.0
257.0,10.0,-19.0,41.0,105.0,7.0,1019.0,80.0,-112.0
259.0,9.0,-19.0,41.0,109.0,9.0,1017.0,84.0,-107.0
256.0,10.0,-16.0,38.0,114.0,9.0,1020.0,82.0,-102.0
258.0,9.0,-15.0,35.0,123.0,9.0,1023.0,87.0,-95.0
261.0,11.0,-14.0,26.0,131.0,11.0,1022.0,88.0,-94.0
258.0,10.0,-7.0,17.0,139.0,13.0,1026.0,87.0,-86.0
258.0,11.0,-9.0,7.0,144.0,16.0,1023.0,82.0,-83.0
260.0,10.0,-12.0,-1.0,150.0,19.0,1029.0,79.0,-81.0
256.0,9.0,-10.0,-11.0,150.0,21.0,1024.0,78.0,-79.0
258.0,10.0,-12.0,-16.0,147.0,23.0,1024.0,76.0,-77.0
256.0,8.0,-13.0,-17.0,142.0,22.0,1023.0,72.0,-77.0
257.0,10.0,-10.0,-17.0,133.0,22.0,1020.0,72.0,-74.0
257.0,8.0,-12.0,-13.0,126.0,22.0,1022.0,70.0,-76.0
259.0,8.0,-10.0,-8.0,119.0,18.0,1028.0,70.0,-81.0
258.0,8.0,-10.0,-2.0,112.0,16.0,1023.0,68.0,-81.0
258.0,10.0,-10.0,5.0,110.0,14.0,1025.0,73.0,-81.0
257.0,11.0,-15.0,11.0,109.0,15.0,1026.0,66.0,-84.0
258.0,8.0,-12.0,18.0,109.0,15.0,1024.0,72.0,-86.0
256.0,9.0,-8.0,26.0,107.0,14.0,1026.0,68.0,-86.0
258.0,7.0,-15.0,32.0,107.0,15.0,1024.0,73.0,-92.0
258.0,8.0,-11.0,40.0,109.0,15.0,1021.0,68.0,-92.0
257.0,8.0,-13.0,46.0,112.0,17.0,1021.0,65.0,-89.0
256.0,11.0,-17.0,52.0,117.0,16.0,1017.0,64.0,-92.0
255.0,8.0,-15.0,57.0,124.0,17.0,1020.0,69.0,-85.0
257.0,9.0,-12.0,60.0,131.0,15.0,1017.0,66.0,-83.0
256.0,11.0,-14.0,59.0,139.0,14.0,1019.0,73.0,-87.0
256.0,10.0,-10.0,55.0,144.0,13.0,1021.0,81.0,-83.0
255.0,12.0,-12.0,49.0,147.0,13.0,1027.0,78.0,-79.0
258.0,9.0,-9.0,40.0,149.0,10.0,1020.0,78.0,-77.0
257.0,12.0,-13.0,32.0,149.0,10.0,1021.0,81.0,-75.0
255.0,11.0,-9.0,23.0,147.0,9.0,1018.0,79.0,-73.0
256.0,12.0,-6.0,15.0,142.0,9.0,1021.0,80.0,-73.0
256.0,11.0,-8.0,11.0,137.0,9.0,1023.0,76.0,-70.0
259.0,9.0,-8.0,8.0,132.0,7.0,1017.0,75.0,-69.0
256.0,11.0,-7.0,7.0,129.0,6.0,1023.0,75.0,-72.0
256.0,8.0,-7.0,9.0,124.0,5.0,1023.0,71.0,-70.0
258.0,9.0,-9.0,10.0,123.0,2.0,1022.0,69.0,-68.0
258.0,9.0,-10.0,13.0,123.0,-1.0,1023.0,69.0,-70.0
257.0,8.0,-8.0,14.0,122.0,-2.0,1026.0,68.0,-65.0
255.0,8.0,-6.0,16.0,123.0,-3.0,1019.0,77.0,-67.0
259.0,8.0,-6.0,17.0,125.0,-2.0,1024.0,73.0,-64.0
255.0,7.0,-7.0,18.0,126.0,1.0,1018.0,75.0,-68.0
256.0,9.0,-6.0,18.0,126.0,2.0,1018.0,73.0,-69.0
257.0,8.0,-8.0,20.0,123.0,5.0,1018.0,67.0,-64.0
257.0,7.0,-9.0,20.0,121.0,6.0,1018.0,66.0,-66.0
255.0,8.0,-8.0,22.0,119.0,11.0,1017.0,65.0,-63.0
256.0,8.0,-8.0,25.0,117.0,12.0,1018.0,66.0,-67.0
259.0,6.0,-6.0,30.0,117.0,16.0,1020.0,66.0,-61.0
256.0,6.0,-7.0,36.0,117.0,17.0,1023.0,67.0,-62.0
256.0,8.0,-7.0,42.0,118.0,16.0,1025.0,72.0,-63.0
258.0,8.0,-5.0,49.0,119.0,16.0,1020.0,76.0,-68.0
257.0,9.0,-3.0,53.0,120.0,13.0,1015.0,73.0,-70.0
258.0,7.0,-5.0,58.0,122.0,10.0,1017.0,75.0,-71.0
254.0,11.0,-9.0,60.0,121.0,7.0,1018.0,78.0,-71.0
254.0,10.0,-8.0,61.0,122.0,4.0,1012.0,73.0,-71.0
255.0,10.0,-8.0,59.0,119.0,4.0,1009.0,73.0,-71.0
255.0,7.0,-8.0,54.0,119.0,2.0,1008.0,76.0,-71.0
253.0,7.0,-7.0,49.0,119.0,0.0,1011.0,68.0,-67.0
256.0,8.0,-8.0,46.0,117.0,-1.0,1009.0,73.0,-66.0
255.0,6.0,-8.0,43.0,115.0,0.0,1014.0,69.0,-65.0
254.0,8.0,-8.0,41.0,114.0,-1.0,1010.0,70.0,-61.0
254.0,10.0,-6.0,39.0,114.0,0.0,1016.0,71.0,-68.0
256.0,8.0,-10.0,41.0,112.0,1.0,1019.0,75.0,-59.0
252.0,8.0,-2.0,40.0,110.0,0.0,1020.0,72.0,-64.0
260.0,8.0,-3.0,43.0,109.0,0.0,1025.0,76.0,-67.0
257.0,10.0,-6.0,45.0,107.0,-2.0,1025.0,78.0,-64.0
259.0,11.0,-6.0,47.0,106.0,-2.0,1027.0,77.0,-61.0
259.0,9.0,-8.0,51.0,106.0,-1.0,1029.0,77.0,-66.0
260.0,8.0,-10.0,54.0,107.0,1.0,1027.0,73.0,-60.0
261.0,9.0,-9.0,57.0,105.0,3.0,1025.0,70.0,-61.0
258.0,8.0,-4.0,63.0,103.0,4.0,1031.0,66.0,-62.0
257.0,10.0,-4.0,71.0,98.0,8.0,1023.0,60.0,-60.0
256.0,7.0,-3.0,78.0,94.0,9.0,1028.0,57.0,-66.0
257.0,6.0,-6.0,85.0,93.0,12.0,1021.0,54.0,-63.0
255.0,8.0,-5.0,91.0,90.0,13.0,1018.0,61.0,-63.0
254.0,4.0,-6.0,98.0,88.0,13.0,1012.0,55.0,-62.0
255.0,9.0,-5.0,107.0,86.0,10.0,1012.0,61.0,-60.0
255.0,9.0,-6.0,111.0,86.0,8.0,1011.0,64.0,-60.0
256.0,8.0,-9.0,113.0,85.0,7.0,1011.0,68.0,-59.0
256.0,9.0,-6.0,113.0,84.0,6.0,1020.0,76.0,-58.0
259.0,9.0,-7.0,109.0,86.0,6.0,1021.0,77.0,-53.0
257.0,10.0,-2.0,102.0,84.0,6.0,1024.0,81.0,-53.0
258.0,13.0,-3.0,93.0,84.0,8.0,1024.0,83.0,-54.0
258.0,13.0,-5.0,81.0,82.0,10.0,1025.0,84.0,-50.0
258.0,14.0,0.0,69.0,78.0,10.0,1021.0,84.0,-46.0
257.0,14.0,-1.0,57.0,72.0,12.0,1027.0,85.0,-50.0
256.0,11.0,-4.0,44.0,66.0,14.0,1025.0,75.0,-45.0
259.0,8.0,-3.0,30.0,59.0,14.0,1024.0,71.0,-53.0
258.0,10.0,-4.0,19.0,51.0,14.0,1026.0,69.0,-53.0
258.0,8.0,-4.0,10.0,45.0,13.0,1023.0,64.0,-53.0
257.0,8.0,-5.0,4.0,42.0,11.0,1025.0,57.0,-51.0
260.0,6.0,-4.0,1.0,41.0,10.0,1025.0,59.0,-57.0
259.0,6.0,-3.0,-1.0,41.0,10.0,1025.0,56.0,-56.0
263.0,1.0,-6.0,2.0,40.0,10.0,1029.0,49.0,-60.0
258.0,4.0,-8.0,9.0,38.0,12.0,1025.0,47.0,-59.0
257.0,6.0,-6.0,19.0,37.0,14.0,1024.0,46.0,-62.0
258.0,3.0,-8.0,32.0,37.0,16.0,1027.0,47.0,-63.0
257.0,2.0,-5.0,48.0,38.0,17.0,1028.0,45.0,-64.0
258.0,0.0,-8.0,65.0,38.0,20.0,1027.0,42.0,-68.0
255.0,5.0,-12.0,84.0,37.0,18.0,1028.0,50.0,-68.0
256.0,4.0,-12.0,100.0,35.0,15.0,1028.0,49.0,-70.0
256.0,3.0,-14.0,115.0,33.0,11.0,1027.0,49.0,-78.0
257.0,8.0,-14.0,126.0,31.0,9.0,1026.0,57.0,-77.0
259.0,8.0,-11.0,131.0,27.0,6.0,1021.0,61.0,-82.0
259.0,8.0,-14.0,133.0,28.0,2.0,1025.0,66.0,-81.0
258.0,11.0,-9.0,128.0,29.0,0.0,1024.0,70.0,-82.0
256.0,11.0,-12.0,117.0,30.0,-2.0,1023.0,75.0,-74.0
257.0,10.0,-12.0,105.0,32.0,-3.0,1022.0,76.0,-72.0
255.0,9.0,-10.0,86.0,37.0,-4.0,1016.0,74.0,-71.0
257.0,9.0,-8.0,68.0,43.0,-7.0,1019.0,79.0,-68.0
256.0,10.0,-9.0,48.0,48.0,-8.0,1021.0,68.0,-64.0
258.0,8.0,-7.0,32.0,54.0,-5.0,1021.0,73.0,-71.0
257.0,11.0,-8.0,20.0,60.0,-3.0,1029.0,72.0,-64.0
262.0,8.0,-6.0,14.0,63.0,-1.0,1035.0,71.0,-68.0
261.0,8.0,-9.0,17.0,63.0,0.0,1036.0,73.0,-67.0
260.0,11.0,-8.0,27.0,63.0,3.0,1039.0,72.0,-80.0
258.0,9.0,-12.0,41.0,64.0,7.0,1029.0,70.0,-81.0
258.0,10.0,-15.0,57.0,65.0,11.0,1028.0,64.0,-85.0
258.0,7.0,-15.0,73.0,70.0,12.0,1023.0,64.0,-85.0
255.0,8.0,-13.0,86.0,70.0,13.0,1020.0,61.0,-86.0
255.0,7.0,-11.0,95.0,72.0,10.0,1012.0,59.0,-89.0
254.0,9.0,-13.0,99.0,74.0,4.0,1005.0,71.0,-87.0
255.0,10.0,-14.0,95.0,75.0,-3.0,1006.0,74.0,-88.0
253.0,12.0,-13.0,85.0,77.0,-9.0,1004.0,80.0,-96.0
255.0,12.0,-13.0,66.0,82.0,-18.0,1005.0,92.0,-93.0
254.0,17.0,-12.0,44.0,87.0,-25.0,1006.0,102.0,-84.0
254.0,21.0,-14.0,15.0,93.0,-28.0,1009.0,115.0,-80.0
256.0,19.0,-9.0,-10.0,102.0,-31.0,1010.0,114.0,-75.0
253.0,16.0,-8.0,-36.0,107.0,-28.0,1011.0,112.0,-67.0
257.0,18.0,-6.0,-57.0,110.0,-23.0,1018.0,109.0,-68.0
259.0,14.0,-7.0,-78.0,111.0,-19.0,1022.0,98.0,-61.0
258.0,11.0,-6.0,-88.0,107.0,-15.0,1026.0,90.0,-60.0
256.0,13.0,-5.0,-90.0,101.0,-15.0,1036.0,79.0,-62.0
262.0,9.0,-7.0,-82.0,90.0,-11.0,1039.0,73.0,-60.0
265.0,9.0,-11.0,-68.0,81.0,-10.0,1046.0,71.0,-67.0
261.0,6.0,-6.0,-48.0,77.0,-5.0,1056.0,59.0,-64.0
267.0,5.0,-10.0,-26.0,74.0,-2.0,1059.0,58.0,-67.0
270.0,1.0,-9.0,-2.0,76.0,2.0,1064.0,53.0,-68.0
266.0,4.0,-10.0,22.0,80.0,6.0,1066.0,44.0,-71.0
267.0,2.0,-10.0,44.0,83.0,7.0,1062.0,45.0,-80.0
265.0,1.0,-10.0,64.0,91.0,10.0,1058.0,43.0,-73.0
264.0,3.0,-8.0,81.0,96.0,13.0,1055.0,38.0,-73.0
263.0,3.0,-11.0,96.0,103.0,15.0,1049.0,38.0,-75.0
262.0,-2.0,-8.0,111.0,111.0,19.0,1040.0,41.0,-68.0
260.0,-1.0,-11.0,124.0,118.0,20.0,1033.0,44.0,-70.0
256.0,1.0,-6.0,137.0,123.0,21.0,1026.0,41.0,-68.0
258.0,-1.0,-7.0,144.0,127.0,21.0,1023.0,48.0,-66.0
256.0,3.0,-7.0,149.0,128.0,22.0,1010.0,51.0,-63.0
255.0,8.0,-4.0,149.0,129.0,19.0,1009.0,52.0,-63.0
256.0,4.0,-6.0,144.0,130.0,15.0,1010.0,62.0,-60.0
255.0,8.0,-7.0,134.0,129.0,11.0,1007.0,66.0,-59.0
253.0,8.0,-1.0,123.0,129.0,6.0,1009.0,67.0,-53.0
255.0,10.0,-5.0,108.0,131.0,3.0,1008.0,73.0,-56.0
254.0,12.0,-2.0,92.0,131.0,1.0,1009.0,76.0,-48.0
252.0,11.0,-5.0,74.0,132.0,-3.0,1008.0,80.0,-53.0
251.0,12.0,-4.0,56.0,129.0,-4.0,1004.0,82.0,-51.0
251.0,13.0,-2.0,36.0,127.0,-3.0,1009.0,80.0,-51.0
252.0,10.0,-8.0,17.0,124.0,1.0,1002.0,78.0,-57.0
253.0,9.0,-5.0,0.0,118.0,3.0,1002.0,75.0,-48.0
253.0,8.0,-5.0,-15.0,115.0,6.0,1006.0,65.0,-55.0
255.0,8.0,-5.0,-29.0,110.0,8.0,1004.0,67.0,-58.0
254.0,11.0,-8.0,-39.0,108.0,7.0,1008.0,68.0,-60.0
256.0,9.0,-6.0,-47.0,108.0,5.0,1016.0,68.0,-59.0
254.0,7.0,-9.0,-54.0,108.0,2.0,1015.0,62.0,-64.0
257.0,9.0,-8.0,-58.0,112.0,-3.0,1018.0,57.0,-65.0
256.0,8.0,-8.0,-60.0,116.0,-6.0,1019.0,62.0,-64.0
261.0,7.0,-9.0,-57.0,122.0,-10.0,1024.0,65.0,-66.0
258.0,8.0,-12.0,-52.0,129.0,-14.0,1026.0,65.0,-72.0
259.0,7.0,-11.0,-44.0,137.0,-14.0,1025.0,66.0,-74.0
259.0,8.0,-11.0,-34.0,144.0,-17.0,1030.0,65.0,-75.0
259.0,8.0,-8.0,-26.0,150.0,-19.0,1032.0,70.0,-79.0
259.0,8.0,-12.0,-16.0,156.0,-19.0,1033.0,64.0,-78.0
260.0,8.0,-13.0,-4.0,162.0,-19.0,1029.0,71.0,-81.0
259.0,10.0,-10.0,7.0,167.0,-18.0,1029.0,74.0,-79.0
257.0,8.0,-9.0,17.0,171.0,-16.0,1031.0,73.0,-79.0
257.0,9.0,-13.0,27.0,175.0,-12.0,1027.0,76.0,-73.0
260.0,9.0,-10.0,38.0,181.0,-8.0,1030.0,79.0,-70.0
259.0,8.0,-8.0,44.0,185.0,-6.0,1030.0,77.0,-72.0
257.0,13.0,-7.0,50.0,189.0,-2.0,1035.0,81.0,-67.0
258.0,9.0,-7.0,52.0,191.0,2.0,1035.0,85.0,-66.0
262.0,12.0,-7.0,51.0,193.0,5.0,1036.0,89.0,-59.0
263.0,12.0,-3.0,48.0,196.0,7.0,1037.0,88.0,-59.0
258.0,12.0,-7.0,42.0,199.0,10.0,1041.0,88.0,-55.0
260.0,12.0,-1.0,38.0,200.0,13.0,1039.0,86.0,-53.0
261.0,12.0,-2.0,31.0,202.0,15.0,1039.0,87.0,-48.0
260.0,12.0,-3.0,26.0,202.0,18.0,1038.0,84.0,-41.0
260.0,10.0,2.0,21.0,203.0,17.0,1027.0,83.0,-43.0
258.0,10.0,-1.0,15.0,205.0,18.0,1027.0,82.0,-42.0
255.0,9.0,1.0,8.0,203.0,16.0,1022.0,77.0,-45.0
256.0,9.0,1.0,2.0,198.0,16.0,1022.0,80.0,-31.0
256.0,10.0,3.0,-6.0,192.0,14.0,1021.0,73.0,-30.0
259.0,11.0,-1.0,-12.0,188.0,11.0,1019.0,72.0,-32.0
259.0,10.0,1.0,-16.0,186.0,10.0,1020.0,72.0,-25.0
256.0,9.0,2.0,-17.0,184.0,8.0,1017.0,67.0,-30.0
257.0,9.0,6.0,-18.0,180.0,7.0,1019.0,66.0,-26.0
255.0,8.0,6.0,-20.0,176.0,6.0,1020.0,61.0,-23.0
254.0,7.0,6.0,-20.0,173.0,6.0,1016.0,63.0,-20.0
256.0,4.0,4.0,-21.0,170.0,7.0,1015.0,58.0,-20.0
256.0,7.0,4.0,-23.0,168.0,6.0,1017.0,52.0,-16.0
255.0,5.0,10.0,-25.0,165.0,5.0,1014.0,51.0,-12.0
255.0,3.0,5.0,-26.0,163.0,2.0,1014.0,55.0,-7.0
250.0,15.0,5.0,-28.0,159.0,-1.0,1011.0,51.0,-4.0
257.0,8.0,7.0,-30.0,153.0,-4.0,1009.0,57.0,-5.0
255.0,8.0,9.0,-34.0,146.0,-6.0,1010.0,62.0,-7.0
254.0,17.0,4.0,-43.0,140.0,-9.0,1010.0,71.0,-10.0
255.0,10.0,8.0,-52.0,132.0,-11.0,1012.0,74.0,-2.0
243.0,11.0,7.0,-68.0,122.0,-13.0,1005.0,72.0,-4.0
256.0,11.0,1.0,-83.0,116.0,-11.0,1008.0,77.0,1.0
252.0,14.0,2.0,-100.0,108.0,-10.0,1006.0,73.0,-6.0
245.0,10.0,13.0,-116.0,101.0,-11.0,1007.0,73.0,-7.0
260.0,5.0,12.0,-130.0,98.0,-11.0,1010.0,68.0,-3.0
253.0,14.0,10.0,-137.0,95.0,-11.0,1011.0,66.0,-7.0
253.0,5.0,4.0,-139.0,96.0,-10.0,1017.0,65.0,-16.0
268.0,-1.0,7.0,-139.0,99.0,-8.0,1021.0,57.0,-10.0
257.0,15.0,1.0,-134.0,103.0,-6.0,1021.0,55.0,-9.0
256.0,-8.0,27.0,-127.0,107.0,-6.0,1029.0,48.0,-17.0
250.0,4.0,10.0,-118.0,111.0,-8.0,1029.0,50.0,-20.0
264.0,11.0,-1.0,-106.0,117.0,-9.0,1029.0,46.0,-24.0
256.0,-13.0,13.0,-92.0,122.0,-7.0,1039.0,44.0,-24.0
261.0,-6.0,7.0,-76.0,128.0,-6.0,1042.0,44.0,-23.0
257.0,-2.0,7.0,-60.0,131.0,-5.0,1041.0,42.0,-27.0
257.0,3.0,1.0,-43.0,132.0,-6.0,1038.0,48.0,-28.0
260.0,2.0,2.0,-28.0,130.0,-5.0,1037.0,44.0,-33.0
250.0,6.0,8.0,-14.0,129.0,-5.0,1034.0,46.0,-33.0
262.0,4.0,7.0,-1.0,125.0,-8.0,1030.0,51.0,-39.0
260.0,5.0,0.0,10.0,123.0,-9.0,1030.0,51.0,-39.0
261.0,6.0,4.0,17.0,121.0,-11.0,1028.0,55.0,-44.0
257.0,9.0,-1.0,23.0,122.0,-13.0,1031.0,59.0,-37.0
258.0,8.0,0.0,27.0,126.0,-15.0,1025.0,59.0,-44.0
261.0,7.0,-2.0,28.0,132.0,-18.0,1032.0,62.0,-36.0
257.0,8.0,-3.0,27.0,138.0,-20.0,1028.0,64.0,-42.0
259.0,9.0,3.0,24.0,145.0,-19.0,1030.0,61.0,-35.0
261.0,1.0,2.0,22.0,149.0,-18.0,1023.0,58.0,-32.0
256.0,3.0,4.0,20.0,154.0,-13.0,1027.0,60.0,-30.0
256.0,7.0,2.0,18.0,156.0,-9.0,1030.0,57.0,-26.0
258.0,4.0,3.0,15.0,157.0,-7.0,1025.0,57.0,-30.0
259.0,8.0,-5.0,17.0,158.0,-5.0,1025.0,55.0,-28.0
257.0,12.0,4.0,22.0,160.0,-2.0,1023.0,56.0,-23.0
257.0,3.0,2.0,28.0,162.0,-2.0,1024.0,49.0,-31.0
265.0,3.0,-3.0,35.0,165.0,-4.0,1020.0,57.0,-26.0
252.0,6.0,4.0,45.0,168.0,-7.0,1020.0,51.0,-24.0
257.0,-1.0,15.0,53.0,172.0,-7.0,1016.0,62.0,-22.0
261.0,27.0,0.0,58.0,174.0,-8.0,1017.0,65.0,-20.0
252.0,14.0,6.0,63.0,174.0,-11.0,1020.0,71.0,-19.0
254.0,13.0,15.0,61.0,173.0,-12.0,1018.0,80.0,-19.0
256.0,12.0,1.0,55.0,171.0,-13.0,1019.0,80.0,-18.0
261.0,18.0,3.0,44.0,167.0,-12.0,1014.0,89.0,-11.0
259.0,19.0,5.0,29.0,164.0,-9.0,1014.0,92.0,-6.0
256.0,28.0,9.0,10.0,159.0,-7.0,1019.0,94.0,-2.0
252.0,12.0,8.0,-11.0,149.0,-3.0,1015.0,102.0,2.0
259.0,17.0,12.0,-29.0,144.0,1.0,1021.0,104.0,0.0
271.0,17.0,7.0,-49.0,138.0,6.0,1022.0,99.0,0.0
255.0,16.0,15.0,-69.0,134.0,10.0,1020.0,98.0,6.0
252.0,14.0,18.0,-90.0,131.0,11.0,1022.0,88.0,1.0
254.0,13.0,16.0,-107.0,130.0,13.0,1021.0,81.0,5.0
269.0,11.0,7.0,-125.0,130.0,13.0,1024.0,78.0,6.0
257.0,9.0,8.0,-140.0,131.0,10.0,1020.0,72.0,8.0
252.0,14.0,10.0,-155.0,131.0,8.0,1022.0,72.0,8.0
264.0,14.0,10.0,-166.0,132.0,5.0,1026.0,68.0,8.0
255.0,10.0,8.0,-172.0,134.0,4.0,1021.0,70.0,2.0
262.0,6.0,13.0,-173.0,135.0,2.0,1026.0,67.0,2.0
263.0,8.0,8.0,-172.0,134.0,3.0,1024.0,66.0,0.0
257.0,10.0,6.0,-168.0,132.0,5.0,1025.0,63.0,-2.0
257.0,7.0,7.0,-160.0,133.0,6.0,1026.0,61.0,-8.0
256.0,6.0,7.0,-149.0,128.0,7.0,1024.0,57.0,-9.0
256.0,3.0,5.0,-135.0,128.0,7.0,1020.0,53.0,-14.0
254.0,1.0,12.0,-120.0,127.0,7.0,1021.0,51.0,-11.0
248.0,3.0,9.0,-104.0,126.0,5.0,1016.0,48.0,-13.0
253.0,8.0,2.0,-88.0,126.0,3.0,1015.0,49.0,-16.0
257.0,4.0,8.0,-70.0,127.0,0.0,1013.0,53.0,-7.0
268.0,1.0,3.0,-59.0,131.0,-3.0,1016.0,45.0,-5.0
257.0,15.0,11.0,-50.0,134.0,-7.0,1017.0,52.0,-10.0
247.0,-15.0,18.0,-44.0,138.0,-10.0,1023.0,49.0,-4.0
268.0,4.0,5.0,-39.0,141.0,-11.0,1026.0,51.0,2.0
260.0,11.0,-3.0,-36.0,144.0,-14.0,1025.0,52.0,-4.0
260.0,1.0,9.0,-34.0,146.0,-11.0,1025.0,47.0,1.0
257.0,4.0,11.0,-33.0,147.0,-8.0,1031.0,51.0,-6.0
250.0,8.0,9.0,-31.0,150.0,-5.0,1023.0,50.0,-5.0
258.0,1.0,0.0,-26.0,153.0,0.0,1021.0,52.0,-4.0
259.0,-2.0,10.0,-17.0,156.0,4.0,1024.0,59.0,4.0
246.0,9.0,8.0,-4.0,156.0,14.0,1022.0,70.0,1.0
255.0,11.0,9.0,9.0,159.0,26.0,1018.0,74.0,-3.0
249.0,24.0,-5.0,23.0,160.0,35.0,1016.0,75.0,-1.0
255.0,6.0,19.0,31.0,160.0,43.0,1014.0,82.0,-2.0
252.0,25.0,-2.0,30.0,158.0,47.0,1005.0,91.0,1.0
248.0,18.0,5.0,22.0,155.0,51.0,1005.0,92.0,5.0
251.0,18.0,9.0,6.0,153.0,54.0,1002.0,98.0,7.0
249.0,13.0,6.0,-17.0,148.0,55.0,1001.0,103.0,13.0
246.0,15.0,8.0,-47.0,141.0,54.0,1001.0,99.0,14.0
252.0,26.0,-4.0,-83.0,136.0,54.0,999.0,103.0,10.0
247.0,10.0,7.0,-121.0,131.0,52.0,997.0,93.0,13.0
249.0,21.0,18.0,-158.0,125.0,50.0,994.0,95.0,19.0
253.0,11.0,15.0,-196.0,123.0,48.0,1002.0,91.0,19.0
252.0,10.0,13.0,-229.0,117.0,47.0,1000.0,80.0,19.0
252.0,9.0,20.0,-256.0,117.0,46.0,1004.0,73.0,22.0
254.0,6.0,14.0,-278.0,116.0,45.0,1003.0,65.0,22.0
256.0,7.0,12.0,-293.0,117.0,46.0,1012.0,62.0,29.0
254.0,10.0,20.0,-301.0,122.0,46.0,1012.0,59.0,32.0
251.0,16.0,5.0,-302.0,126.0,46.0,1019.0,57.0,33.0
254.0,8.0,16.0,-297.0,127.0,46.0,1022.0,55.0,40.0
251.0,-2.0,25.0,-287.0,126.0,46.0,1021.0,55.0,32.0
253.0,2.0,27.0,-269.0,118.0,45.0,1022.0,54.0,29.0
249.0,11.0,22.0,-248.0,108.0,43.0,1019.0,62.0,35.0
247.0,11.0,21.0,-224.0,96.0,42.0,1019.0,56.0,27.0
252.0,11.0,15.0,-200.0,83.0,42.0,1002.0,73.0,28.0
245.0,1.0,11.0,-177.0,74.0,45.0,1027.0,61.0,26.0
257.0,12.0,14.0,-159.0,68.0,43.0,1032.0,60.0,29.0
257.0,8.0,21.0,-142.0,67.0,39.0,1026.0,67.0,24.0
256.0,16.0,20.0,-127.0,68.0,36.0,1027.0,64.0,28.0
256.0,10.0,9.0,-117.0,67.0,33.0,1024.0,68.0,23.0
260.0,22.0,9.0,-106.0,62.0,31.0,1021.0,65.0,19.0
258.0,6.0,10.0,-95.0,51.0,29.0,1020.0,67.0,10.0
260.0,1.0,-8.0,-85.0,37.0,28.0,1021.0,63.0,4.0
262.0,6.0,5.0,-76.0,23.0,29.0,1025.0,55.0,-3.0
260.0,2.0,6.0,-68.0,10.0,28.0,1024.0,57.0,-7.0
264.0,6.0,-1.0,-59.0,1.0,26.0,1022.0,43.0,-17.0
266.0,-1.0,5.0,-48.0,-3.0,27.0,1023.0,42.0,-18.0
261.0,3.0,9.0,-34.0,0.0,27.0,1020.0,38.0,-18.0
258.0,4.0,3.0,-19.0,4.0,26.0,1021.0,28.0,-16.0
258.0,-4.0,11.0,-6.0,15.0,24.0,1025.0,29.0,-22.0
265.0,0.0,16.0,9.0,27.0,21.0,1022.0,33.0,-20.0
246.0,0.0,-4.0,22.0,42.0,18.0,1018.0,31.0,-14.0
258.0,-12.0,3.0,33.0,60.0,17.0,1017.0,31.0,-17.0
261.0,0.0,11.0,40.0,76.0,14.0,1019.0,37.0,-15.0
256.0,1.0,7.0,47.0,92.0,9.0,1020.0,41.0,-5.0
256.0,2.0,8.0,49.0,107.0,6.0,1018.0,44.0,-7.0
256.0,5.0,9.0,51.0,120.0,6.0,1021.0,44.0,-9.0
256.0,3.0,10.0,49.0,130.0,5.0,1018.0,54.0,1.0
257.0,4.0,14.0,48.0,138.0,5.0,1022.0,46.0,6.0
257.0,5.0,4.0,46.0,141.0,5.0,1021.0,46.0,6.0
259.0,1.0,11.0,44.0,141.0,4.0,1023.0,48.0,8.0
256.0,9.0,25.0,40.0,141.0,5.0,1020.0,45.0,7.0
259.0,3.0,6.0,36.0,137.0,4.0,1020.0,41.0,7.0
248.0,11.0,1.0,34.0,134.0,5.0,1015.0,46.0,18.0
257.0,6.0,8.0,30.0,132.0,4.0,1019.0,45.0,17.0
252.0,-14.0,22.0,26.0,131.0,1.0,1017.0,36.0,18.0
269.0,-9.0,14.0,26.0,128.0,-1.0,1015.0,41.0,19.0
254.0,-3.0,20.0,25.0,127.0,-5.0,1018.0,47.0,19.0
251.0,-1.0,19.0,24.0,124.0,-8.0,1018.0,52.0,22.0
257.0,7.0,19.0,22.0,119.0,-9.0,1012.0,51.0,23.0
255.0,3.0,12.0,19.0,115.0,-10.0,1015.0,57.0,29.0
255.0,6.0,16.0,14.0,111.0,-14.0,1009.0,58.0,24.0
246.0,1.0,33.0,11.0,106.0,-16.0,1016.0,53.0,30.0
254.0,12.0,26.0,5.0,102.0,-18.0,1013.0,55.0,24.0
252.0,-5.0,25.0,-1.0,100.0,-17.0,1013.0,54.0,27.0
259.0,-1.0,14.0,-5.0,96.0,-17.0,1013.0,52.0,30.0
259.0,3.0,13.0,-9.0,92.0,-18.0,1015.0,56.0,33.0
247.0,6.0,14.0,-13.0,90.0,-19.0,1014.0,50.0,35.0
266.0,9.0,16.0,-15.0,88.0,-18.0,1016.0,53.0,32.0
249.0,-4.0,12.0,-15.0,85.0,-18.0,1018.0,46.0,40.0
260.0,5.0,10.0,-13.0,79.0,-18.0,1013.0,51.0,37.0
251.0,10.0,24.0,-8.0,71.0,-16.0,1016.0,51.0,31.0
252.0,7.0,16.0,-4.0,64.0,-14.0,1016.0,55.0,29.0
260.0,-2.0,16.0,0.0,59.0,-12.0,1013.0,53.0,28.0
260.0,5.0,11.0,5.0,57.0,-10.0,1021.0,52.0,28.0
257.0,1.0,21.0,9.0,53.0,-10.0,1018.0,43.0,24.0
256.0,6.0,17.0,14.0,50.0,-9.0,1017.0,50.0,28.0
255.0,6.0,13.0,17.0,49.0,-10.0,1017.0,48.0,24.0
257.0,7.0,14.0,21.0,50.0,-10.0,1017.0,55.0,24.0
255.0,7.0,16.0,25.0,48.0,-12.0,1017.0,56.0,22.0
252.0,10.0,16.0,28.0,50.0,-12.0,1012.0,61.0,23.0
256.0,6.0,14.0,31.0,51.0,-13.0,1012.0,60.0,21.0
253.0,6.0,15.0,31.0,52.0,-14.0,1018.0,62.0,18.0
252.0,8.0,28.0,25.0,50.0,-18.0,1017.0,65.0,18.0
257.0,16.0,2.0,15.0,51.0,-20.0,1012.0,71.0,15.0
260.0,13.0,22.0,6.0,54.0,-19.0,1016.0,66.0,14.0
260.0,4.0,13.0,-6.0,55.0,-17.0,1018.0,69.0,17.0
265.0,8.0,23.0,-21.0,59.0,-15.0,1015.0,61.0,17.0
246.0,21.0,5.0,-34.0,61.0,-13.0,1021.0,59.0,20.0
259.0,6.0,15.0,-44.0,61.0,-11.0,1021.0,55.0,18.0
256.0,0.0,19.0,-54.0,61.0,-6.0,1023.0,48.0,20.0
257.0,-5.0,10.0,-57.0,59.0,-5.0,1021.0,45.0,20.0
244.0,0.0,21.0,-55.0,57.0,-3.0,1023.0,37.0,19.0
258.0,3.0,23.0,-50.0,52.0,-4.0,1023.0,38.0,23.0
262.0,-3.0,8.0,-40.0,48.0,-6.0,1017.0,34.0,21.0
258.0,2.0,28.0,-26.0,46.0,-7.0,1030.0,41.0,22.0
265.0,-2.0,9.0,-15.0,39.0,-14.0,1024.0,42.0,19.0
252.0,7.0,6.0,-5.0,33.0,-21.0,1026.0,37.0,20.0
251.0,3.0,14.0,5.0,30.0,-22.0,1018.0,40.0,12.0
255.0,1.0,8.0,16.0,25.0,-26.0,1021.0,42.0,16.0
254.0,1.0,14.0,24.0,24.0,-27.0,1022.0,46.0,13.0
262.0,6.0,11.0,32.0,23.0,-26.0,1023.0,45.0,12.0
253.0,8.0,9.0,38.0,24.0,-28.0,1021.0,47.0,11.0
263.0,7.0,2.0,44.0,24.0,-28.0,1017.0,49.0,7.0
259.0,-7.0,13.0,50.0,25.0,-30.0,1020.0,54.0,9.0
247.0,4.0,14.0,54.0,26.0,-30.0,1019.0,52.0,12.0
257.0,3.0,12.0,54.0,26.0,-29.0,1023.0,62.0,12.0
257.0,8.0,12.0,53.0,28.0,-28.0,1023.0,60.0,13.0
256.0,6.0,12.0,50.0,30.0,-26.0,1018.0,63.0,10.0
256.0,7.0,11.0,46.0,33.0,-26.0,1020.0,65.0,9.0
257.0,-1.0,11.0,34.0,36.0,-23.0,1020.0,59.0,16.0
256.0,8.0,15.0,29.0,36.0,-21.0,1017.0,60.0,14.0
255.0,8.0,16.0,22.0,38.0,-19.0,1021.0,61.0,19.0
259.0,5.0,12.0,18.0,38.0,-18.0,1021.0,58.0,14.0
256.0,8.0,17.0,13.0,36.0,-18.0,1018.0,51.0,18.0
256.0,5.0,13.0,10.0,34.0,-17.0,1019.0,51.0,18.0
256.0,2.0,14.0,8.0,31.0,-16.0,1019.0,47.0,14.0
259.0,2.0,13.0,6.0,28.0,-17.0,1024.0,45.0,12.0
256.0,2.0,11.0,5.0,26.0,-18.0,1024.0,48.0,14.0
255.0,7.0,19.0,8.0,24.0,-19.0,1024.0,50.0,14.0
257.0,2.0,11.0,11.0,24.0,-20.0,1021.0,50.0,9.0
256.0,7.0,14.0,16.0,21.0,-22.0,1021.0,58.0,13.0
256.0,7.0,11.0,19.0,21.0,-22.0,1019.0,55.0,13.0
256.0,7.0,12.0,23.0,20.0,-25.0,1015.0,62.0,12.0
257.0,11.0,15.0,26.0,17.0,-26.0,1014.0,65.0,8.0
255.0,5.0,10.0,23.0,14.0,-27.0,1015.0,67.0,9.0
255.0,11.0,13.0,20.0,13.0,-26.0,1016.0,71.0,11.0
253.0,11.0,10.0,14.0,9.0,-28.0,1016.0,75.0,13.0
254.0,13.0,12.0,7.0,6.0,-28.0,1012.0,75.0,8.0
254.0,9.0,8.0,-3.0,4.0,-29.0,1014.0,74.0,6.0
255.0,9.0,11.0,-14.0,3.0,-28.0,1016.0,74.0,10.0
256.0,10.0,6.0,-23.0,2.0,-28.0,1015.0,78.0,11.0
257.0,9.0,14.0,-34.0,4.0,-28.0,1019.0,75.0,9.0
257.0,11.0,9.0,-43.0,4.0,-28.0,1017.0,73.0,8.0
254.0,10.0,14.0,-50.0,5.0,-27.0,1018.0,75.0,10.0
259.0,10.0,12.0,-57.0,9.0,-27.0,1023.0,74.0,6.0
257.0,10.0,10.0,-60.0,12.0,-26.0,1024.0,71.0,4.0
259.0,8.0,6.0,-64.0,15.0,-26.0,1028.0,72.0,3.0
258.0,9.0,6.0,-66.0,20.0,-24.0,1026.0,72.0,1.0
261.0,9.0,7.0,-66.0,24.0,-22.0,1031.0,65.0,1.0
259.0,9.0,10.0,-65.0,25.0,-19.0,1029.0,70.0,0.0
262.0,8.0,8.0,-62.0,26.0,-16.0,1036.0,69.0,-1.0
258.0,8.0,8.0,-57.0,26.0,-14.0,1038.0,58.0,-3.0
254.0,8.0,2.0,-50.0,25.0,-14.0,1034.0,61.0,-6.0
261.0,8.0,7.0,-42.0,23.0,-12.0,1030.0,60.0,-5.0
258.0,8.0,6.0,-34.0,23.0,-11.0,1034.0,59.0,-11.0
260.0,8.0,4.0,-25.0,21.0,-11.0,1027.0,64.0,-14.0
257.0,6.0,10.0,-16.0,23.0,-12.0,1026.0,63.0,-16.0
258.0,8.0,5.0,-7.0,24.0,-12.0,1028.0,63.0,-16.0
255.0,7.0,7.0,0.0,26.0,-9.0,1027.0,61.0,-16.0
259.0,8.0,6.0,5.0,29.0,-8.0,1029.0,60.0,-13.0
257.0,8.0,5.0,10.0,33.0,-9.0,1029.0,55.0,-7.0
269.0,13.0,10.0,13.0,36.0,-9.0,1025.0,60.0,-11.0
255.0,6.0,8.0,14.0,36.0,-8.0,1025.0,59.0,-10.0
258.0,9.0,6.0,14.0,37.0,-8.0,1024.0,58.0,-7.0
257.0,7.0,5.0,16.0,37.0,-9.0,1026.0,57.0,-2.0
259.0,7.0,13.0,18.0,36.0,-8.0,1023.0,59.0,-6.0
260.0,8.0,3.0,19.0,33.0,-9.0,1023.0,57.0,-3.0
256.0,6.0,6.0,20.0,31.0,-9.0,1019.0,62.0,1.0
253.0,8.0,7.0,21.0,30.0,-9.0,1018.0,66.0,-2.0
254.0,8.0,9.0,22.0,30.0,-11.0,1021.0,60.0,-1.0
257.0,8.0,9.0,23.0,29.0,-13.0,1014.0,58.0,-3.0
254.0,9.0,9.0,23.0,30.0,-13.0,1014.0,64.0,1.0
252.0,10.0,9.0,21.0,31.0,-15.0,1012.0,67.0,-3.0
256.0,6.0,9.0,16.0,32.0,-17.0,1021.0,64.0,-1.0
256.0,7.0,9.0,11.0,35.0,-18.0,1018.0,67.0,1.0
258.0,8.0,0.0,8.0,38.0,-16.0,1023.0,62.0,2.0
257.0,8.0,10.0,3.0,40.0,-16.0,1023.0,69.0,3.0
259.0,6.0,9.0,-5.0,44.0,-16.0,1022.0,65.0,5.0
259.0,8.0,11.0,-11.0,43.0,-14.0,1025.0,59.0,0.0
257.0,7.0,12.0,-15.0,39.0,-13.0,1024.0,61.0,-1.0
254.0,5.0,5.0,-17.0,37.0,-10.0,1023.0,61.0,0.0
259.0,4.0,9.0,-17.0,32.0,-8.0,1023.0,57.0,1.0
258.0,5.0,8.0,-14.0,28.0,-8.0,1026.0,53.0,-2.0
257.0,6.0,9.0,-9.0,24.0,-7.0,1024.0,53.0,-3.0
258.0,3.0,10.0,-4.0,21.0,-10.0,1022.0,56.0,-4.0
257.0,6.0,8.0,3.0,20.0,-12.0,1023.0,53.0,-5.0
255.0,8.0,11.0,8.0,18.0,-13.0,1017.0,55.0,-3.0
257.0,7.0,9.0,12.0,18.0,-15.0,1022.0,61.0,-3.0
257.0,7.0,6.0,15.0,16.0,-16.0,1021.0,62.0,-9.0
258.0,8.0,8.0,18.0,18.0,-17.0,1019.0,62.0,-9.0
258.0,8.0,4.0,18.0,18.0,-19.0,1025.0,67.0,-6.0
258.0,8.0,10.0,16.0,20.0,-18.0,1024.0,66.0,-14.0
257.0,9.0,9.0,14.0,23.0,-17.0,1027.0,70.0,-6.0
259.0,8.0,6.0,10.0,25.0,-17.0,1029.0,72.0,-9.0
257.0,6.0,9.0,6.0,27.0,-16.0,1030.0,71.0,-6.0
261.0,10.0,7.0,1.0,28.0,-13.0,1024.0,68.0,-10.0
257.0,9.0,7.0,-4.0,30.0,-11.0,1024.0,74.0,-10.0
254.0,7.0,5.0,-10.0,31.0,-11.0,1020.0,70.0,-9.0
256.0,10.0,1.0,-12.0,29.0,-9.0,1021.0,66.0,-10.0
257.0,9.0,7.0,-15.0,28.0,-8.0,1021.0,65.0,-15.0
256.0,9.0,1.0,-17.0,29.0,-9.0,1021.0,63.0,-19.0
256.0,9.0,8.0,-16.0,32.0,-10.0,1023.0,63.0,-11.0
258.0,8.0,5.0,-17.0,35.0,-11.0,1025.0,68.0,-15.0
256.0,10.0,3.0,-14.0,38.0,-11.0,1023.0,67.0,-14.0
256.0,8.0,8.0,-12.0,42.0,-11.0,1021.0,68.0,-12.0
257.0,9.0,-1.0,-10.0,44.0,-10.0,1021.0,72.0,-16.0
256.0,7.0,5.0,-6.0,46.0,-8.0,1021.0,70.0,-10.0
261.0,8.0,4.0,-3.0,42.0,-7.0,1023.0,66.0,-17.0
256.0,8.0,3.0,0.0,43.0,-5.0,1025.0,70.0,-19.0
256.0,9.0,5.0,4.0,41.0,-4.0,1025.0,71.0,-17.0
259.0,9.0,6.0,10.0,42.0,-3.0,1022.0,66.0,-20.0
257.0,11.0,6.0,14.0,45.0,-3.0,1021.0,71.0,-23.0
255.0,10.0,5.0,15.0,48.0,-4.0,1027.0,74.0,-22.0
260.0,9.0,4.0,13.0,52.0,-4.0,1028.0,74.0,-21.0
259.0,9.0,4.0,7.0,58.0,-6.0,1026.0,74.0,-19.0
256.0,10.0,8.0,4.0,61.0,-7.0,1027.0,74.0,-18.0
258.0,9.0,8.0,-1.0,58.0,-6.0,1029.0,73.0,-15.0
256.0,9.0,5.0,-5.0,56.0,-6.0,1031.0,70.0,-10.0
258.0,10.0,5.0,-10.0,49.0,-5.0,1032.0,71.0,-21.0
259.0,7.0,1.0,-10.0,39.0,-3.0,1034.0,65.0,-16.0
257.0,8.0,6.0,-8.0,29.0,-1.0,1039.0,64.0,-18.0
258.0,8.0,3.0,-3.0,19.0,-2.0,1035.0,59.0,-21.0
259.0,8.0,-1.0,4.0,11.0,-2.0,1036.0,58.0,-24.0
260.0,2.0,3.0,14.0,8.0,-2.0,1037.0,55.0,-32.0
258.0,4.0,0.0,23.0,9.0,-3.0,1031.0,58.0,-29.0
257.0,6.0,0.0,34.0,13.0,-4.0,1027.0,51.0,-28.0
260.0,6.0,0.0,44.0,17.0,-5.0,1024.0,52.0,-25.0
259.0,4.0,3.0,54.0,27.0,-5.0,1028.0,54.0,-25.0
259.0,8.0,5.0,65.0,39.0,-7.0,1025.0,58.0,-25.0
256.0,8.0,1.0,73.0,48.0,-6.0,1018.0,64.0,-23.0
256.0,6.0,2.0,77.0,57.0,-4.0,1024.0,69.0,-25.0
258.0,10.0,2.0,81.0,65.0,-4.0,1023.0,72.0,-22.0
257.0,8.0,3.0,81.0,71.0,-1.0,1023.0,75.0,-26.0
258.0,9.0,-2.0,76.0,73.0,-2.0,1021.0,72.0,-20.0
257.0,9.0,5.0,69.0,75.0,-1.0,1018.0,73.0,-20.0
258.0,8.0,5.0,60.0,78.0,1.0,1019.0,77.0,-20.0
257.0,10.0,4.0,53.0,79.0,2.0,1016.0,71.0,-22.0
257.0,9.0,4.0,42.0,81.0,3.0,1023.0,70.0,-20.0
256.0,8.0,5.0,34.0,83.0,4.0,1019.0,66.0,-16.0
256.0,8.0,8.0,29.0,87.0,5.0,1023.0,64.0,-22.0
257.0,9.0,5.0,23.0,90.0,4.0,1020.0,63.0,-18.0
258.0,7.0,3.0,22.0,94.0,5.0,1022.0,64.0,-19.0
256.0,8.0,3.0,20.0,95.0,5.0,1023.0,62.0,-18.0
256.0,6.0,3.0,20.0,99.0,5.0,1028.0,60.0,-16.0
257.0,9.0,3.0,21.0,101.0,5.0,1024.0,64.0,-15.0
258.0,7.0,5.0,21.0,105.0,4.0,1023.0,61.0,-18.0
256.0,8.0,5.0,23.0,107.0,3.0,1021.0,65.0,-18.0
256.0,9.0,5.0,22.0,109.0,2.0,1021.0,69.0,-18.0
258.0,10.0,6.0,21.0,111.0,2.0,1030.0,70.0,-20.0
257.0,8.0,6.0,18.0,112.0,2.0,1026.0,66.0,-19.0
258.0,8.0,4.0,16.0,114.0,3.0,1024.0,72.0,-15.0
257.0,8.0,4.0,14.0,115.0,4.0,1026.0,67.0,-19.0
256.0,10.0,-1.0,12.0,115.0,4.0,1025.0,67.0,-18.0
257.0,8.0,3.0,10.0,115.0,5.0,1019.0,66.0,-18.0
257.0,8.0,6.0,8.0,115.0,6.0,1027.0,69.0,-20.0
259.0,8.0,4.0,7.0,117.0,6.0,1028.0,67.0,-21.0
257.0,9.0,4.0,5.0,120.0,6.0,1026.0,71.0,-18.0
257.0,7.0,5.0,4.0,124.0,5.0,1029.0,68.0,-17.0
257.0,8.0,6.0,2.0,128.0,6.0,1026.0,66.0,-13.0
258.0,8.0,6.0,2.0,131.0,6.0,1032.0,66.0,-16.0
258.0,7.0,7.0,1.0,135.0,7.0,1024.0,66.0,-14.0
257.0,8.0,7.0,5.0,138.0,7.0,1024.0,64.0,-13.0
257.0,7.0,5.0,6.0,138.0,7.0,1034.0,62.0,-10.0
258.0,8.0,7.0,8.0,142.0,8.0,1032.0,65.0,-10.0
257.0,8.0,6.0,11.0,144.0,9.0,1026.0,65.0,-9.0
257.0,7.0,7.0,13.0,148.0,10.0,1034.0,63.0,-7.0
259.0,6.0,10.0,16.0,150.0,12.0,1028.0,64.0,-7.0
256.0,9.0,9.0,17.0,152.0,12.0,1030.0,60.0,-10.0
258.0,8.0,8.0,18.0,152.0,13.0,1025.0,64.0,-13.0
257.0,8.0,7.0,17.0,151.0,14.0,1026.0,63.0,-14.0
257.0,9.0,5.0,17.0,152.0,16.0,1028.0,60.0,-15.0
259.0,6.0,4.0,15.0,152.0,17.0,1023.0,66.0,-10.0
257.0,6.0,8.0,14.0,153.0,17.0,1024.0,60.0,-9.0
256.0,8.0,10.0,13.0,157.0,17.0,1021.0,65.0,-6.0
257.0,11.0,8.0,11.0,159.0,15.0,1018.0,66.0,-6.0
258.0,8.0,6.0,10.0,163.0,14.0,1020.0,61.0,-4.0
257.0,6.0,9.0,7.0,166.0,12.0,1024.0,66.0,-3.0
258.0,8.0,9.0,4.0,165.0,11.0,1024.0,62.0,4.0
258.0,8.0,7.0,-1.0,162.0,11.0,1019.0,65.0,1.0
259.0,8.0,8.0,-5.0,159.0,9.0,1020.0,68.0,-2.0
254.0,9.0,8.0,-8.0,155.0,9.0,1021.0,68.0,1.0
257.0,9.0,5.0,-12.0,151.0,7.0,1018.0,66.0,0.0
256.0,6.0,10.0,-17.0,149.0,7.0,1020.0,68.0,2.0
256.0,4.0,12.0,-19.0,150.0,7.0,1023.0,70.0,-2.0
257.0,8.0,5.0,-22.0,150.0,7.0,1020.0,63.0,0.0
256.0,7.0,6.0,-25.0,151.0,7.0,1022.0,64.0,4.0
257.0,8.0,11.0,-26.0,150.0,7.0,1022.0,60.0,-1.0
257.0,8.0,11.0,-26.0,151.0,8.0,1019.0,60.0,4.0
256.0,7.0,11.0,-25.0,153.0,8.0,1024.0,61.0,1.0
256.0,7.0,7.0,-23.0,153.0,8.0,1023.0,64.0,2.0
255.0,5.0,11.0,-23.0,156.0,8.0,1020.0,58.0,3.0
258.0,8.0,11.0,-21.0,158.0,7.0,1016.0,65.0,5.0
255.0,8.0,11.0,-18.0,160.0,8.0,1023.0,59.0,4.0
256.0,9.0,6.0,-17.0,162.0,8.0,1021.0,65.0,5.0
256.0,7.0,10.0,-15.0,164.0,10.0,1014.0,63.0,3.0
257.0,6.0,12.0,-15.0,165.0,10.0,1017.0,61.0,7.0
254.0,8.0,11.0,-15.0,169.0,9.0,1023.0,62.0,8.0
257.0,8.0,14.0,-14.0,170.0,8.0,1026.0,65.0,7.0
256.0,8.0,14.0,-14.0,169.0,9.0,1021.0,60.0,16.0
258.0,7.0,12.0,-11.0,170.0,8.0,1029.0,53.0,15.0
257.0,8.0,14.0,-8.0,168.0,9.0,1028.0,60.0,9.0
260.0,8.0,12.0,-6.0,167.0,9.0,1022.0,65.0,15.0
257.0,8.0,11.0,-5.0,165.0,10.0,1024.0,59.0,10.0
258.0,5.0,15.0,-3.0,160.0,10.0,1026.0,63.0,17.0
257.0,8.0,12.0,-1.0,157.0,10.0,1021.0,61.0,12.0
255.0,6.0,15.0,0.0,154.0,12.0,1025.0,64.0,17.0
258.0,7.0,14.0,1.0,152.0,14.0,1017.0,62.0,18.0
256.0,4.0,12.0,3.0,149.0,17.0,1017.0,63.0,12.0
256.0,8.0,15.0,5.0,150.0,17.0,1018.0,60.0,15.0
255.0,6.0,16.0,5.0,148.0,16.0,1019.0,59.0,17.0
256.0,5.0,15.0,5.0,148.0,15.0,1016.0,57.0,19.0
256.0,9.0,14.0,5.0,149.0,15.0,1017.0,61.0,19.0
256.0,9.0,13.0,5.0,149.0,14.0,1018.0,60.0,20.0
257.0,8.0,13.0,4.0,150.0,14.0,1015.0,60.0,18.0
257.0,6.0,16.0,2.0,150.0,11.0,1015.0,61.0,21.0
256.0,6.0,12.0,0.0,150.0,11.0,1013.0,59.0,21.0
256.0,6.0,15.0,-3.0,150.0,10.0,1012.0,58.0,19.0
256.0,8.0,16.0,-5.0,149.0,8.0,1014.0,63.0,26.0
253.0,8.0,17.0,-8.0,147.0,9.0,1015.0,60.0,25.0
256.0,7.0,16.0,-12.0,148.0,8.0,1016.0,59.0,20.0
256.0,7.0,15.0,-16.0,146.0,8.0,1015.0,63.0,25.0
255.0,7.0,18.0,-20.0,146.0,8.0,1015.0,58.0,24.0
254.0,6.0,15.0,-22.0,145.0,8.0,1014.0,57.0,30.0
257.0,3.0,15.0,-24.0,146.0,7.0,1016.0,60.0,33.0
257.0,3.0,19.0,-27.0,143.0,6.0,1017.0,61.0,30.0
255.0,8.0,12.0,-28.0,144.0,4.0,1014.0,58.0,27.0
255.0,8.0,17.0,-29.0,142.0,5.0,1020.0,58.0,25.0
255.0,8.0,16.0,-31.0,140.0,5.0,1016.0,61.0,32.0
253.0,4.0,15.0,-32.0,138.0,4.0,1018.0,60.0,30.0
254.0,8.0,17.0,-34.0,140.0,5.0,1018.0,63.0,32.0
257.0,8.0,16.0,-35.0,137.0,4.0,1019.0,61.0,28.0
254.0,8.0,17.0,-35.0,136.0,3.0,1017.0,58.0,33.0
256.0,5.0,19.0,-37.0,135.0,4.0,1018.0,57.0,31.0
255.0,7.0,18.0,-38.0,133.0,4.0,1017.0,58.0,29.0
256.0,4.0,23.0,-40.0,132.0,4.0,1017.0,61.0,37.0
256.0,6.0,17.0,-41.0,131.0,2.0,1018.0,60.0,36.0
255.0,6.0,16.0,-42.0,130.0,3.0,1014.0,56.0,37.0
256.0,5.0,21.0,-44.0,130.0,2.0,1015.0,56.0,39.0
258.0,8.0,19.0,-46.0,130.0,1.0,1017.0,61.0,37.0
253.0,9.0,21.0,-49.0,129.0,1.0,1017.0,58.0,38.0
257.0,7.0,18.0,-52.0,128.0,2.0,1019.0,59.0,39.0
256.0,5.0,18.0,-55.0,127.0,1.0,1019.0,52.0,40.0
254.0,8.0,28.0,-59.0,127.0,-1.0,1016.0,52.0,39.0
255.0,6.0,25.0,-62.0,126.0,-1.0,1017.0,60.0,46.0
257.0,7.0,23.0,-66.0,121.0,-1.0,1017.0,59.0,40.0
256.0,6.0,21.0,-69.0,116.0,-3.0,1015.0,59.0,41.0
255.0,8.0,20.0,-73.0,110.0,-2.0,1015.0,56.0,42.0
255.0,4.0,19.0,-78.0,101.0,-1.0,1020.0,62.0,43.0
254.0,7.0,18.0,-83.0,94.0,-3.0,1018.0,58.0,38.0
256.0,7.0,21.0,-86.0,90.0,-3.0,1011.0,53.0,41.0
253.0,5.0,20.0,-89.0,87.0,-4.0,1013.0,51.0,42.0
255.0,8.0,19.0,-91.0,84.0,-3.0,1014.0,53.0,43.0
253.0,7.0,20.0,-92.0,83.0,-5.0,1011.0,59.0,40.0
254.0,7.0,23.0,-96.0,83.0,-6.0,1012.0,56.0,47.0
249.0,8.0,22.0,-99.0,82.0,-7.0,1010.0,52.0,43.0
255.0,8.0,22.0,-102.0,79.0,-8.0,1006.0,60.0,39.0
254.0,5.0,24.0,-106.0,78.0,-9.0,1010.0,53.0,45.0
252.0,10.0,20.0,-111.0,75.0,-8.0,1008.0,60.0,46.0
256.0,6.0,22.0,-115.0,74.0,-10.0,1014.0,61.0,41.0
256.0,5.0,19.0,-120.0,73.0,-9.0,1014.0,62.0,43.0
253.0,6.0,24.0,-124.0,71.0,-9.0,1013.0,61.0,45.0
253.0,8.0,21.0,-128.0,69.0,-9.0,1012.0,57.0,40.0
254.0,7.0,20.0,-132.0,66.0,-7.0,1018.0,60.0,47.0
255.0,5.0,19.0,-134.0,62.0,-6.0,1017.0,59.0,44.0
256.0,7.0,19.0,-135.0,58.0,-6.0,1017.0,55.0,41.0
256.0,5.0,20.0,-136.0,56.0,-7.0,1012.0,54.0,41.0
254.0,6.0,20.0,-136.0,53.0,-6.0,1017.0,52.0,37.0
257.0,6.0,18.0,-136.0,53.0,-7.0,1017.0,55.0,42.0
256.0,2.0,18.0,-134.0,51.0,-6.0,1011.0,54.0,36.0
253.0,6.0,15.0,-133.0,51.0,-6.0,1014.0,51.0,39.0
256.0,5.0,16.0,-131.0,51.0,-7.0,1017.0,52.0,43.0
256.0,3.0,20.0,-129.0,52.0,-6.0,1020.0,50.0,42.0
258.0,3.0,22.0,-127.0,52.0,-10.0,1011.0,53.0,40.0
256.0,8.0,17.0,-126.0,51.0,-9.0,1012.0,54.0,37.0
257.0,8.0,19.0,-125.0,51.0,-11.0,1020.0,53.0,38.0
257.0,6.0,20.0,-124.0,52.0,-13.0,1019.0,53.0,39.0
255.0,6.0,18.0,-122.0,51.0,-14.0,1022.0,57.0,41.0
254.0,7.0,19.0,-121.0,48.0,-13.0,1021.0,58.0,40.0
254.0,7.0,18.0,-120.0,45.0,-13.0,1017.0,59.0,40.0
254.0,8.0,17.0,-119.0,42.0,-14.0,1019.0,59.0,36.0
255.0,6.0,15.0,-120.0,38.0,-13.0,1020.0,60.0,36.0
256.0,8.0,19.0,-121.0,34.0,-13.0,1020.0,58.0,30.0
256.0,6.0,15.0,-122.0,32.0,-13.0,1020.0,60.0,28.0
256.0,7.0,17.0,-124.0,30.0,-13.0,1021.0,57.0,25.0
257.0,7.0,13.0,-124.0,31.0,-13.0,1023.0,60.0,27.0
256.0,6.0,15.0,-125.0,30.0,-12.0,1017.0,56.0,25.0
257.0,3.0,13.0,-125.0,31.0,-10.0,1020.0,55.0,24.0
256.0,5.0,17.0,-124.0,35.0,-10.0,1019.0,56.0,23.0
255.0,7.0,18.0,-121.0,40.0,-9.0,1022.0,56.0,24.0
256.0,6.0,17.0,-117.0,40.0,-7.0,1024.0,55.0,28.0
252.0,6.0,17.0,-114.0,42.0,-7.0,1011.0,57.0,24.0
254.0,8.0,12.0,-108.0,41.0,-7.0,1014.0,55.0,28.0
256.0,7.0,17.0,-101.0,38.0,-9.0,1018.0,52.0,23.0
254.0,5.0,15.0,-94.0,35.0,-7.0,1017.0,53.0,26.0
255.0,7.0,17.0,-88.0,34.0,-8.0,1019.0,54.0,25.0
256.0,3.0,15.0,-85.0,35.0,-9.0,1020.0,54.0,31.0
256.0,8.0,17.0,-84.0,38.0,-11.0,1017.0,56.0,36.0
257.0,7.0,20.0,-82.0,41.0,-12.0,1014.0,56.0,37.0
256.0,8.0,18.0,-85.0,43.0,-13.0,1020.0,55.0,37.0
257.0,8.0,21.0,-89.0,40.0,-13.0,1018.0,57.0,36.0
255.0,8.0,18.0,-91.0,36.0,-15.0,1023.0,62.0,38.0
256.0,8.0,19.0,-92.0,25.0,-14.0,1020.0,62.0,37.0
258.0,5.0,16.0,-94.0,13.0,-14.0,1025.0,56.0,37.0
257.0,4.0,17.0,-94.0,-1.0,-13.0,1024.0,59.0,32.0
259.0,4.0,19.0,-92.0,-16.0,-14.0,1025.0,60.0,28.0
257.0,7.0,17.0,-91.0,-28.0,-15.0,1028.0,58.0,28.0
257.0,8.0,17.0,-89.0,-35.0,-18.0,1028.0,55.0,20.0
257.0,6.0,17.0,-87.0,-36.0,-16.0,1026.0,56.0,26.0
257.0,6.0,17.0,-84.0,-35.0,-16.0,1028.0,51.0,20.0
258.0,6.0,13.0,-84.0,-31.0,-16.0,1026.0,49.0,22.0
258.0,4.0,12.0,-82.0,-27.0,-16.0,1023.0,48.0,17.0
256.0,8.0,15.0,-81.0,-22.0,-14.0,1018.0,48.0,12.0
256.0,8.0,10.0,-80.0,-14.0,-12.0,1022.0,52.0,15.0
257.0,3.0,12.0,-79.0,-6.0,-11.0,1019.0,52.0,11.0
258.0,6.0,12.0,-76.0,1.0,-11.0,1020.0,56.0,13.0
256.0,5.0,18.0,-75.0,9.0,-10.0,1016.0,60.0,14.0
254.0,8.0,10.0,-74.0,17.0,-7.0,1012.0,66.0,17.0
255.0,6.0,14.0,-75.0,22.0,-8.0,1015.0,66.0,21.0
256.0,8.0,16.0,-77.0,26.0,-7.0,1018.0,67.0,19.0
257.0,8.0,15.0,-82.0,27.0,-7.0,1017.0,64.0,19.0
256.0,8.0,14.0,-85.0,31.0,-6.0,1022.0,64.0,21.0
255.0,8.0,13.0,-93.0,32.0,-6.0,1020.0,61.0,22.0
253.0,9.0,16.0,-98.0,33.0,-6.0,1018.0,59.0,23.0
255.0,8.0,17.0,-103.0,33.0,-7.0,1019.0,64.0,25.0
256.0,6.0,10.0,-105.0,34.0,-5.0,1018.0,62.0,16.0
257.0,7.0,15.0,-108.0,34.0,-3.0,1022.0,59.0,19.0
257.0,8.0,16.0,-111.0,34.0,-3.0,1023.0,61.0,22.0
258.0,8.0,11.0,-112.0,34.0,-3.0,1024.0,59.0,20.0
257.0,7.0,15.0,-112.0,36.0,0.0,1026.0,59.0,22.0
258.0,4.0,10.0,-111.0,37.0,1.0,1021.0,58.0,17.0
256.0,6.0,11.0,-108.0,38.0,1.0,1022.0,57.0,15.0
258.0,8.0,11.0,-105.0,39.0,1.0,1022.0,56.0,10.0
256.0,7.0,10.0,-100.0,39.0,2.0,1022.0,58.0,10.0
257.0,5.0,8.0,-93.0,41.0,2.0,1025.0,55.0,15.0
258.0,8.0,11.0,-86.0,45.0,1.0,1022.0,60.0,12.0
257.0,8.0,15.0,-82.0,50.0,2.0,1025.0,56.0,11.0
258.0,4.0,12.0,-77.0,56.0,-2.0,1027.0,57.0,6.0
258.0,7.0,13.0,-71.0,62.0,-2.0,1028.0,60.0,13.0
258.0,7.0,12.0,-65.0,67.0,0.0,1027.0,58.0,10.0
258.0,8.0,13.0,-58.0,68.0,-1.0,1031.0,57.0,13.0
256.0,6.0,12.0,-52.0,69.0,-1.0,1027.0,60.0,6.0
258.0,6.0,13.0,-48.0,70.0,1.0,1028.0,55.0,6.0
255.0,8.0,9.0,-42.0,69.0,1.0,1029.0,59.0,5.0
258.0,6.0,9.0,-37.0,69.0,0.0,1027.0,56.0,6.0
257.0,7.0,9.0,-33.0,71.0,-1.0,1025.0,58.0,6.0
258.0,6.0,12.0,-31.0,73.0,1.0,1026.0,59.0,0.0
261.0,5.0,10.0,-29.0,76.0,2.0,1027.0,53.0,5.0
257.0,6.0,9.0,-28.0,80.0,3.0,1026.0,57.0,2.0
259.0,7.0,14.0,-25.0,83.0,3.0,1025.0,59.0,6.0
256.0,4.0,12.0,-23.0,84.0,2.0,1028.0,62.0,5.0
260.0,3.0,7.0,-22.0,88.0,2.0,1027.0,60.0,5.0
257.0,8.0,11.0,-21.0,91.0,2.0,1023.0,59.0,5.0
259.0,8.0,12.0,-19.0,95.0,3.0,1023.0,54.0,9.0
257.0,5.0,9.0,-19.0,100.0,4.0,1024.0,58.0,9.0
257.0,8.0,7.0,-19.0,104.0,2.0,1023.0,60.0,12.0
256.0,5.0,12.0,-21.0,108.0,4.0,1020.0,60.0,9.0
254.0,9.0,11.0,-21.0,112.0,5.0,1021.0,59.0,13.0
259.0,5.0,14.0,-21.0,115.0,7.0,1019.0,58.0,10.0
259.0,8.0,14.0,-22.0,119.0,7.0,1025.0,58.0,8.0
258.0,6.0,13.0,-24.0,119.0,8.0,1022.0,60.0,13.0
257.0,7.0,13.0,-24.0,122.0,7.0,1022.0,59.0,13.0
257.0,8.0,14.0,-25.0,121.0,7.0,1024.0,59.0,13.0
259.0,8.0,12.0,-25.0,121.0,6.0,1024.0,61.0,12.0
256.0,8.0,12.0,-23.0,119.0,5.0,1023.0,62.0,15.0
258.0,5.0,12.0,-22.0,116.0,6.0,1025.0,62.0,14.0
257.0,6.0,14.0,-21.0,117.0,7.0,1025.0,59.0,12.0
257.0,2.0,15.0,-17.0,115.0,8.0,1027.0,58.0,13.0
259.0,7.0,11.0,-15.0,114.0,7.0,1024.0,57.0,8.0
257.0,8.0,10.0,-12.0,114.0,8.0,1029.0,58.0,13.0
256.0,8.0,11.0,-8.0,113.0,11.0,1031.0,54.0,12.0
259.0,7.0,9.0,-2.0,115.0,12.0,1025.0,52.0,11.0
257.0,5.0,11.0,3.0,116.0,10.0,1022.0,52.0,9.0
257.0,8.0,16.0,6.0,119.0,12.0,1021.0,53.0,15.0
257.0,5.0,16.0,11.0,123.0,12.0,1021.0,58.0,13.0
257.0,4.0,16.0,15.0,125.0,11.0,1021.0,58.0,14.0
257.0,6.0,12.0,17.0,129.0,10.0,1022.0,57.0,17.0
256.0,8.0,14.0,19.0,133.0,10.0,1020.0,60.0,15.0
257.0,7.0,18.0,22.0,136.0,11.0,1023.0,58.0,18.0
258.0,6.0,12.0,23.0,138.0,12.0,1025.0,60.0,17.0
257.0,8.0,15.0,22.0,140.0,12.0,1022.0,59.0,19.0
256.0,8.0,14.0,20.0,144.0,13.0,1023.0,58.0,18.0
257.0,5.0,15.0,20.0,145.0,13.0,1023.0,61.0,20.0
257.0,8.0,13.0,19.0,148.0,14.0,1026.0,53.0,21.0
260.0,8.0,16.0,18.0,149.0,15.0,1022.0,59.0,20.0
258.0,5.0,17.0,17.0,152.0,15.0,1022.0,57.0,21.0
255.0,8.0,13.0,17.0,155.0,18.0,1025.0,55.0,21.0
258.0,8.0,17.0,19.0,159.0,18.0,1025.0,55.0,19.0
257.0,8.0,16.0,21.0,160.0,17.0,1024.0,57.0,22.0
257.0,7.0,12.0,24.0,163.0,19.0,1029.0,53.0,19.0
259.0,7.0,14.0,28.0,163.0,19.0,1023.0,54.0,21.0
257.0,4.0,14.0,33.0,167.0,21.0,1025.0,56.0,20.0
258.0,5.0,16.0,37.0,168.0,22.0,1030.0,57.0,21.0
256.0,8.0,14.0,42.0,170.0,20.0,1028.0,53.0,22.0
258.0,4.0,16.0,45.0,170.0,20.0,1030.0,54.0,21.0
257.0,7.0,13.0,50.0,173.0,21.0,1025.0,50.0,24.0
257.0,7.0,16.0,53.0,179.0,22.0,1031.0,54.0,21.0
259.0,1.0,16.0,58.0,181.0,24.0,1025.0,51.0,20.0
257.0,5.0,16.0,62.0,184.0,24.0,1030.0,55.0,27.0
260.0,7.0,15.0,64.0,187.0,24.0,1025.0,53.0,28.0
257.0,6.0,14.0,65.0,190.0,24.0,1027.0,50.0,28.0
258.0,6.0,16.0,66.0,193.0,25.0,1028.0,53.0,27.0
257.0,3.0,19.0,65.0,193.0,27.0,1032.0,53.0,31.0
258.0,1.0,18.0,64.0,194.0,27.0,1026.0,49.0,28.0
257.0,6.0,18.0,63.0,196.0,26.0,1025.0,50.0,30.0
258.0,6.0,17.0,61.0,198.0,26.0,1024.0,53.0,29.0
257.0,5.0,16.0,59.0,200.0,27.0,1027.0,52.0,31.0
256.0,7.0,17.0,58.0,201.0,28.0,1025.0,54.0,36.0
255.0,5.0,16.0,58.0,204.0,30.0,1021.0,55.0,32.0
256.0,8.0,19.0,56.0,209.0,30.0,1027.0,60.0,34.0
258.0,5.0,17.0,53.0,213.0,30.0,1024.0,55.0,41.0
258.0,6.0,20.0,54.0,218.0,32.0,1029.0,59.0,40.0
259.0,7.0,19.0,55.0,225.0,33.0,1025.0,58.0,44.0
260.0,6.0,19.0,54.0,230.0,34.0,1035.0,58.0,43.0
261.0,7.0,23.0,57.0,235.0,36.0,1034.0,56.0,41.0
261.0,7.0,19.0,58.0,240.0,37.0,1034.0,58.0,46.0
261.0,6.0,22.0,58.0,247.0,38.0,1043.0,59.0,48.0
262.0,6.0,17.0,57.0,252.0,40.0,1035.0,56.0,45.0
261.0,8.0,19.0,58.0,260.0,42.0,1043.0,54.0,46.0
260.0,7.0,23.0,60.0,264.0,46.0,1048.0,51.0,49.0
263.0,4.0,23.0,63.0,266.0,48.0,1043.0,52.0,45.0
260.0,5.0,18.0,65.0,268.0,50.0,1040.0,47.0,47.0
260.0,5.0,23.0,70.0,269.0,53.0,1041.0,45.0,45.0
263.0,4.0,23.0,74.0,269.0,56.0,1044.0,41.0,42.0
260.0,2.0,18.0,79.0,271.0,57.0,1040.0,44.0,42.0
262.0,0.0,19.0,84.0,274.0,57.0,1035.0,45.0,38.0
259.0,6.0,19.0,89.0,279.0,59.0,1039.0,52.0,39.0
261.0,2.0,18.0,92.0,284.0,60.0,1040.0,49.0,37.0
260.0,3.0,19.0,94.0,291.0,59.0,1031.0,48.0,35.0
261.0,2.0,22.0,95.0,298.0,59.0,1035.0,49.0,36.0
259.0,5.0,19.0,95.0,306.0,59.0,1027.0,50.0,40.0
260.0,5.0,18.0,93.0,317.0,57.0,1031.0,50.0,40.0
258.0,5.0,22.0,90.0,329.0,57.0,1029.0,53.0,44.0
259.0,5.0,24.0,87.0,339.0,56.0,1034.0,54.0,51.0
258.0,7.0,25.0,80.0,351.0,58.0,1032.0,62.0,48.0
261.0,6.0,22.0,75.0,363.0,57.0,1039.0,58.0,56.0
262.0,8.0,22.0,70.0,374.0,58.0,1037.0,59.0,61.0
264.0,4.0,24.0,66.0,382.0,59.0,1042.0,63.0,58.0
262.0,7.0,26.0,61.0,390.0,62.0,1031.0,63.0,62.0
262.0,2.0,24.0,57.0,394.0,65.0,1041.0,57.0,62.0
261.0,8.0,26.0,52.0,399.0,69.0,1043.0,58.0,65.0
261.0,7.0,25.0,50.0,404.0,72.0,1038.0,57.0,64.0
261.0,7.0,22.0,45.0,411.0,75.0,1048.0,55.0,67.0
263.0,5.0,23.0,42.0,416.0,79.0,1049.0,52.0,61.0
260.0,5.0,28.0,41.0,426.0,81.0,1052.0,48.0,66.0
263.0,6.0,27.0,39.0,438.0,83.0,1054.0,50.0,64.0
264.0,0.0,24.0,37.0,450.0,87.0,1053.0,49.0,69.0
264.0,2.0,25.0,39.0,464.0,90.0,1053.0,45.0,69.0
264.0,3.0,23.0,40.0,476.0,92.0,1057.0,45.0,67.0
262.0,6.0,27.0,43.0,492.0,96.0,1055.0,45.0,74.0
262.0,2.0,26.0,48.0,507.0,99.0,1046.0,47.0,73.0
259.0,4.0,27.0,53.0,523.0,102.0,1045.0,37.0,74.0
260.0,0.0,27.0,56.0,533.0,107.0,1042.0,44.0,75.0
261.0,2.0,32.0,62.0,543.0,110.0,1040.0,42.0,74.0
262.0,2.0,27.0,66.0,554.0,115.0,1038.0,47.0,76.0
260.0,4.0,33.0,68.0,566.0,118.0,1042.0,44.0,84.0
259.0,2.0,30.0,68.0,581.0,120.0,1041.0,46.0,92.0
260.0,1.0,33.0,68.0,597.0,124.0,1036.0,44.0,99.0
262.0,3.0,38.0,67.0,612.0,127.0,1031.0,49.0,102.0
260.0,2.0,38.0,64.0,628.0,129.0,1035.0,46.0,106.0
258.0,4.0,38.0,58.0,643.0,130.0,1031.0,45.0,115.0
257.0,6.0,41.0,49.0,659.0,133.0,1023.0,43.0,125.0
256.0,6.0,48.0,41.0,672.0,133.0,1035.0,48.0,131.0
262.0,7.0,43.0,30.0,687.0,133.0,1044.0,59.0,149.0
262.0,6.0,47.0,20.0,702.0,131.0,1039.0,59.0,161.0
261.0,8.0,53.0,7.0,723.0,131.0,1040.0,55.0,173.0
259.0,8.0,57.0,-10.0,739.0,132.0,1042.0,58.0,188.0
262.0,8.0,61.0,-22.0,750.0,133.0,1044.0,60.0,198.0
261.0,7.0,65.0,-33.0,758.0,134.0,1057.0,53.0,204.0
264.0,8.0,62.0,-46.0,769.0,134.0,1057.0,51.0,212.0
267.0,5.0,64.0,-62.0,788.0,136.0,1063.0,52.0,226.0
269.0,7.0,67.0,-78.0,814.0,142.0,1065.0,50.0,234.0
272.0,6.0,69.0,-94.0,843.0,146.0,1072.0,41.0,237.0
270.0,1.0,68.0,-112.0,869.0,154.0,1073.0,41.0,243.0
269.0,1.0,71.0,-129.0,892.0,162.0,1071.0,36.0,247.0
269.0,-1.0,74.0,-146.0,914.0,170.0,1070.0,25.0,251.0
270.0,-2.0,74.0,-159.0,938.0,176.0,1066.0,18.0,262.0
264.0,-1.0,79.0,-171.0,963.0,185.0,1057.0,17.0,273.0
262.0,-7.0,80.0,-180.0,987.0,194.0,1053.0,14.0,278.0
260.0,-8.0,81.0,-183.0,1002.0,204.0,1032.0,11.0,284.0
256.0,-6.0,81.0,-183.0,1008.0,216.0,1028.0,6.0,288.0
255.0,-5.0,83.0,-177.0,1000.0,230.0,1023.0,4.0,280.0
253.0,-8.0,83.0,-168.0,985.0,243.0,1011.0,-4.0,272.0
250.0,-13.0,79.0,-158.0,960.0,257.0,1005.0,-8.0,271.0
250.0,-14.0,73.0,-143.0,935.0,270.0,999.0,-14.0,274.0
248.0,-14.0,77.0,-122.0,910.0,280.0,1003.0,-23.0,259.0
253.0,-16.0,77.0,-94.0,898.0,288.0,1004.0,-26.0,249.0
255.0,-20.0,72.0,-57.0,892.0,294.0,1009.0,-40.0,244.0
253.0,-21.0,70.0,-16.0,887.0,293.0,1010.0,-40.0,233.0
253.0,-24.0,65.0,29.0,886.0,296.0,1006.0,-43.0,221.0
249.0,-23.0,71.0,80.0,882.0,298.0,1008.0,-49.0,221.0
250.0,-24.0,66.0,136.0,878.0,298.0,1003.0,-58.0,213.0
249.0,-24.0,61.0,194.0,874.0,300.0,1002.0,-60.0,205.0
250.0,-26.0,59.0,247.0,871.0,303.0,991.0,-59.0,197.0
248.0,-21.0,57.0,296.0,873.0,305.0,990.0,-57.0,189.0
248.0,-23.0,57.0,337.0,883.0,303.0,991.0,-52.0,189.0
246.0,-20.0,54.0,371.0,902.0,298.0,985.0,-54.0,186.0
246.0,-21.0,57.0,393.0,930.0,294.0,978.0,-46.0,192.0
240.0,-18.0,62.0,405.0,962.0,291.0,968.0,-37.0,194.0
241.0,-19.0,64.0,406.0,996.0,290.0,965.0,-38.0,205.0
243.0,-17.0,62.0,402.0,1026.0,284.0,960.0,-43.0,216.0
242.0,-15.0,65.0,389.0,1052.0,276.0,976.0,-37.0,234.0
246.0,-13.0,74.0,373.0,1075.0,276.0,970.0,-36.0,249.0
242.0,-16.0,76.0,359.0,1096.0,275.0,974.0,-30.0,253.0
243.0,-14.0,76.0,352.0,1115.0,269.0,972.0,-28.0,259.0
246.0,-14.0,76.0,346.0,1124.0,264.0,975.0,-31.0,262.0
242.0,-15.0,76.0,343.0,1127.0,269.0,966.0,-32.0,267.0
238.0,-13.0,76.0,342.0,1125.0,270.0,952.0,-28.0,270.0
237.0,-18.0,80.0,340.0,1116.0,272.0,936.0,-25.0,277.0
232.0,-10.0,79.0,342.0,1105.0,270.0,932.0,-25.0,276.0
232.0,-15.0,80.0,344.0,1092.0,276.0,927.0,-25.0,278.0
229.0,-13.0,79.0,345.0,1083.0,284.0,916.0,-29.0,281.0
225.0,-15.0,81.0,348.0,1078.0,287.0,898.0,-25.0,283.0
226.0,-15.0,82.0,355.0,1080.0,290.0,896.0,-33.0,291.0
225.0,-11.0,83.0,367.0,1085.0,281.0,893.0,-24.0,306.0
224.0,-14.0,88.0,384.0,1093.0,278.0,895.0,-29.0,310.0
223.0,-13.0,97.0,398.0,1102.0,279.0,895.0,-29.0,327.0
223.0,-16.0,93.0,410.0,1111.0,280.0,888.0,-25.0,342.0
217.0,-19.0,97.0,424.0,1121.0,278.0,878.0,-32.0,359.0
220.0,-13.0,102.0,442.0,1128.0,267.0,880.0,-25.0,363.0
224.0,-14.0,102.0,459.0,1128.0,270.0,892.0,-33.0,377.0
216.0,-16.0,102.0,475.0,1121.0,271.0,876.0,-33.0,385.0
211.0,-13.0,108.0,491.0,1114.0,262.0,859.0,-27.0,392.0
219.0,-11.0,108.0,504.0,1102.0,275.0,870.0,-22.0,404.0
212.0,-12.0,112.0,510.0,1091.0,280.0,848.0,-27.0,407.0
216.0,-11.0,110.0,509.0,1082.0,275.0,869.0,-11.0,410.0
214.0,-11.0,115.0,499.0,1064.0,269.0,890.0,-12.0,418.0
210.0,-6.0,112.0,480.0,1051.0,266.0,842.0,-6.0,418.0
208.0,-4.0,116.0,454.0,1051.0,275.0,836.0,-1.0,424.0
218.0,-3.0,112.0,424.0,1047.0,270.0,875.0,4.0,422.0
224.0,-6.0,113.0,385.0,1030.0,266.0,918.0,-4.0,415.0
203.0,-7.0,114.0,345.0,1004.0,245.0,821.0,5.0,419.0
202.0,1.0,111.0,308.0,1002.0,244.0,815.0,14.0,428.0
209.0,-4.0,113.0,277.0,1000.0,266.0,838.0,17.0,433.0
207.0,-6.0,121.0,251.0,989.0,281.0,842.0,4.0,438.0
228.0,-11.0,122.0,232.0,970.0,277.0,897.0,-7.0,440.0
204.0,-7.0,122.0,226.0,938.0,234.0,845.0,-5.0,441.0
191.0,-2.0,119.0,228.0,926.0,205.0,752.0,9.0,447.0
195.0,-2.0,123.0,233.0,944.0,237.0,774.0,5.0,459.0
201.0,-8.0,120.0,241.0,966.0,258.0,800.0,-5.0,465.0
199.0,-8.0,130.0,244.0,984.0,253.0,798.0,-6.0,473.0
201.0,-7.0,129.0,240.0,1005.0,239.0,799.0,-6.0,480.0
198.0,-7.0,129.0,228.0,1024.0,222.0,793.0,-6.0,489.0
198.0,-6.0,131.0,211.0,1044.0,202.0,793.0,1.0,499.0
199.0,-2.0,134.0,188.0,1063.0,204.0,796.0,3.0,507.0
218.0,-5.0,130.0,158.0,1079.0,204.0,875.0,-4.0,506.0
196.0,0.0,138.0,124.0,1087.0,167.0,773.0,21.0,514.0
190.0,-1.0,145.0,94.0,1122.0,170.0,745.0,28.0,538.0
197.0,1.0,148.0,63.0,1169.0,187.0,782.0,12.0,554.0
201.0,-5.0,153.0,31.0,1207.0,185.0,794.0,16.0,571.0
200.0,1.0,149.0,-2.0,1240.0,179.0,812.0,15.0,578.0
206.0,1.0,155.0,-36.0,1267.0,169.0,823.0,17.0,594.0
206.0,-3.0,160.0,-66.0,1288.0,159.0,828.0,13.0,601.0
206.0,-1.0,161.0,-93.0,1293.0,150.0,831.0,6.0,607.0
205.0,-6.0,159.0,-125.0,1286.0,138.0,822.0,-2.0,606.0
198.0,-8.0,158.0,-157.0,1264.0,126.0,812.0,-6.0,603.0
197.0,-9.0,159.0,-188.0,1233.0,114.0,795.0,-21.0,603.0
194.0,-17.0,160.0,-210.0,1204.0,106.0,780.0,-45.0,607.0
193.0,-25.0,159.0,-224.0,1183.0,105.0,763.0,-59.0,603.0
186.0,-26.0,159.0,-225.0,1174.0,106.0,749.0,-74.0,600.0
182.0,-27.0,160.0,-212.0,1175.0,112.0,739.0,-86.0,598.0
186.0,-32.0,157.0,-181.0,1185.0,119.0,721.0,-85.0,598.0
179.0,-28.0,161.0,-138.0,1205.0,124.0,717.0,-77.0,604.0
177.0,-27.0,165.0,-87.0,1230.0,131.0,711.0,-71.0,615.0
176.0,-23.0,169.0,-31.0,1251.0,135.0,709.0,-62.0,633.0
175.0,-21.0,168.0,20.0,1269.0,135.0,702.0,-47.0,645.0
172.0,-14.0,172.0,60.0,1274.0,131.0,697.0,-39.0,663.0
169.0,-12.0,178.0,84.0,1268.0,126.0,688.0,-40.0,673.0
166.0,-14.0,177.0,88.0,1245.0,118.0,679.0,-40.0,683.0
162.0,-15.0,174.0,79.0,1205.0,110.0,663.0,-50.0,688.0
161.0,-19.0,180.0,63.0,1158.0,102.0,653.0,-55.0,688.0
154.0,-22.0,178.0,40.0,1101.0,91.0,625.0,-58.0,691.0
159.0,-23.0,177.0,26.0,1051.0,78.0,660.0,-72.0,677.0
142.0,-19.0,183.0,12.0,1013.0,57.0,579.0,-67.0,679.0
147.0,-22.0,180.0,6.0,1006.0,71.0,596.0,-73.0,688.0
148.0,-21.0,178.0,8.0,1007.0,75.0,601.0,-71.0,685.0
151.0,-26.0,177.0,5.0,1016.0,71.0,602.0,-71.0,693.0
152.0,-23.0,178.0,1.0,1038.0,64.0,609.0,-61.0,688.0
151.0,-21.0,181.0,-1.0,1065.0,62.0,612.0,-58.0,695.0
154.0,-19.0,178.0,-3.0,1098.0,59.0,612.0,-56.0,695.0
151.0,-16.0,184.0,-5.0,1130.0,58.0,613.0,-51.0,689.0
152.0,-15.0,181.0,-13.0,1159.0,59.0,611.0,-42.0,686.0
151.0,-13.0,177.0,-26.0,1184.0,61.0,608.0,-40.0,689.0
151.0,-15.0,177.0,-43.0,1200.0,64.0,611.0,-41.0,696.0
142.0,-12.0,178.0,-61.0,1207.0,71.0,612.0,-39.0,700.0
151.0,-11.0,186.0,-77.0,1208.0,77.0,605.0,-37.0,711.0
149.0,-9.0,186.0,-91.0,1205.0,84.0,601.0,-40.0,710.0
147.0,-11.0,185.0,-102.0,1202.0,88.0,598.0,-37.0,716.0
147.0,-13.0,184.0,-114.0,1195.0,90.0,589.0,-37.0,722.0
144.0,-12.0,188.0,-124.0,1188.0,89.0,583.0,-43.0,722.0
140.0,-13.0,187.0,-132.0,1180.0,87.0,573.0,-38.0,737.0
139.0,-13.0,192.0,-140.0,1171.0,84.0,562.0,-40.0,753.0
137.0,-14.0,195.0,-145.0,1158.0,84.0,552.0,-42.0,756.0
136.0,-17.0,194.0,-149.0,1145.0,82.0,541.0,-43.0,766.0
134.0,-14.0,197.0,-149.0,1135.0,80.0,544.0,-49.0,769.0
133.0,-18.0,198.0,-147.0,1128.0,79.0,540.0,-58.0,779.0
135.0,-19.0,202.0,-140.0,1127.0,75.0,541.0,-62.0,783.0
134.0,-25.0,207.0,-127.0,1136.0,75.0,537.0,-73.0,788.0
130.0,-22.0,206.0,-111.0,1148.0,73.0,527.0,-78.0,796.0
130.0,-25.0,207.0,-92.0,1167.0,70.0,525.0,-84.0,798.0
128.0,-27.0,211.0,-74.0,1180.0,68.0,521.0,-90.0,807.0
128.0,-29.0,211.0,-56.0,1189.0,60.0,516.0,-98.0,814.0
127.0,-30.0,208.0,-40.0,1194.0,54.0,513.0,-96.0,818.0
126.0,-30.0,211.0,-28.0,1195.0,46.0,508.0,-103.0,818.0
123.0,-31.0,211.0,-19.0,1196.0,39.0,498.0,-102.0,818.0
119.0,-31.0,209.0,-11.0,1192.0,32.0,486.0,-106.0,817.0
120.0,-31.0,207.0,-8.0,1184.0,24.0,495.0,-103.0,816.0
117.0,-29.0,209.0,-8.0,1173.0,15.0,465.0,-105.0,815.0
116.0,-30.0,208.0,-12.0,1163.0,10.0,467.0,-99.0,821.0
113.0,-30.0,212.0,-17.0,1151.0,4.0,463.0,-103.0,812.0
113.0,-26.0,206.0,-22.0,1139.0,-5.0,456.0,-94.0,819.0
109.0,-30.0,211.0,-23.0,1127.0,-12.0,444.0,-99.0,816.0
108.0,-27.0,207.0,-25.0,1118.0,-21.0,443.0,-103.0,814.0
106.0,-29.0,209.0,-26.0,1108.0,-30.0,434.0,-97.0,813.0
103.0,-27.0,210.0,-25.0,1099.0,-36.0,422.0,-103.0,812.0
102.0,-29.0,211.0,-24.0,1093.0,-42.0,418.0,-101.0,820.0
99.0,-30.0,211.0,-26.0,1090.0,-48.0,399.0,-99.0,829.0
98.0,-27.0,217.0,-27.0,1088.0,-51.0,392.0,-104.0,838.0
93.0,-29.0,219.0,-26.0,1084.0,-54.0,382.0,-109.0,850.0
93.0,-34.0,223.0,-24.0,1081.0,-58.0,383.0,-108.0,860.0
93.0,-32.0,226.0,-22.0,1075.0,-59.0,381.0,-115.0,873.0
91.0,-33.0,226.0,-20.0,1069.0,-59.0,374.0,-111.0,876.0
91.0,-33.0,227.0,-14.0,1066.0,-60.0,377.0,-114.0,881.0
90.0,-30.0,228.0,-3.0,1063.0,-63.0,374.0,-111.0,891.0
89.0,-29.0,227.0,9.0,1060.0,-63.0,376.0,-99.0,893.0
90.0,-29.0,228.0,24.0,1057.0,-68.0,375.0,-102.0,892.0
90.0,-23.0,230.0,35.0,1051.0,-71.0,373.0,-85.0,894.0
96.0,-25.0,230.0,44.0,1045.0,-74.0,369.0,-75.0,886.0
86.0,-22.0,229.0,51.0,1036.0,-75.0,369.0,-68.0,883.0
89.0,-21.0,226.0,53.0,1029.0,-74.0,365.0,-65.0,878.0
89.0,-21.0,227.0,49.0,1023.0,-73.0,358.0,-59.0,879.0
85.0,-16.0,223.0,45.0,1018.0,-70.0,358.0,-56.0,878.0
89.0,-16.0,224.0,35.0,1020.0,-65.0,349.0,-55.0,873.0
83.0,-14.0,222.0,23.0,1025.0,-60.0,347.0,-58.0,875.0
84.0,-21.0,223.0,7.0,1034.0,-55.0,340.0,-68.0,881.0
81.0,-21.0,229.0,-5.0,1042.0,-50.0,334.0,-66.0,893.0
80.0,-21.0,230.0,-13.0,1051.0,-46.0,323.0,-74.0,894.0
75.0,-22.0,230.0,-17.0,1056.0,-45.0,314.0,-76.0,900.0
74.0,-23.0,235.0,-21.0,1061.0,-41.0,311.0,-79.0,908.0
69.0,-25.0,233.0,-24.0,1064.0,-40.0,300.0,-79.0,910.0
67.0,-22.0,233.0,-29.0,1067.0,-40.0,292.0,-78.0,910.0
67.0,-23.0,232.0,-34.0,1071.0,-44.0,286.0,-77.0,915.0
67.0,-22.0,232.0,-36.0,1074.0,-45.0,280.0,-73.0,914.0
67.0,-21.0,232.0,-37.0,1080.0,-49.0,277.0,-74.0,912.0
64.0,-21.0,234.0,-38.0,1088.0,-52.0,277.0,-64.0,915.0
64.0,-17.0,233.0,-35.0,1101.0,-55.0,276.0,-65.0,910.0
67.0,-18.0,234.0,-31.0,1117.0,-61.0,274.0,-64.0,912.0
65.0,-14.0,237.0,-22.0,1133.0,-67.0,278.0,-55.0,916.0
66.0,-17.0,236.0,-14.0,1148.0,-73.0,277.0,-61.0,917.0
65.0,-14.0,237.0,-10.0,1159.0,-77.0,276.0,-57.0,922.0
65.0,-16.0,235.0,-5.0,1168.0,-80.0,274.0,-59.0,920.0
65.0,-18.0,236.0,-2.0,1175.0,-82.0,274.0,-57.0,925.0
64.0,-14.0,237.0,4.0,1184.0,-84.0,274.0,-59.0,927.0
61.0,-16.0,238.0,10.0,1197.0,-88.0,262.0,-61.0,934.0
59.0,-21.0,238.0,14.0,1209.0,-89.0,259.0,-61.0,935.0
58.0,-18.0,238.0,19.0,1219.0,-87.0,250.0,-68.0,935.0
54.0,-18.0,234.0,20.0,1226.0,-83.0,235.0,-63.0,937.0
54.0,-18.0,236.0,20.0,1234.0,-75.0,225.0,-67.0,931.0
50.0,-22.0,239.0,20.0,1239.0,-67.0,213.0,-71.0,943.0
48.0,-20.0,239.0,19.0,1242.0,-61.0,206.0,-72.0,943.0
40.0,-21.0,242.0,19.0,1248.0,-53.0,184.0,-82.0,958.0
38.0,-24.0,245.0,23.0,1251.0,-47.0,171.0,-85.0,967.0
34.0,-23.0,249.0,31.0,1252.0,-40.0,150.0,-88.0,984.0
25.0,-26.0,253.0,40.0,1251.0,-35.0,123.0,-92.0,987.0
17.0,-26.0,257.0,53.0,1245.0,-30.0,94.0,-100.0,995.0
11.0,-27.0,254.0,68.0,1236.0,-28.0,77.0,-106.0,1005.0
5.0,-31.0,256.0,83.0,1225.0,-30.0,39.0,-105.0,1003.0
1.0,-30.0,250.0,103.0,1215.0,-26.0,20.0,-111.0,1003.0
-2.0,-32.0,254.0,121.0,1209.0,-23.0,12.0,-116.0,997.0
1.0,-30.0,249.0,139.0,1207.0,-24.0,15.0,-122.0,987.0
-12.0,-28.0,247.0,152.0,1209.0,-34.0,-21.0,-113.0,977.0
-9.0,-27.0,243.0,166.0,1223.0,-38.0,-29.0,-111.0,970.0
-11.0,-28.0,240.0,174.0,1245.0,-44.0,-30.0,-102.0,956.0
-17.0,-26.0,242.0,177.0,1269.0,-53.0,-54.0,-97.0,951.0
-20.0,-23.0,238.0,178.0,1292.0,-62.0,-70.0,-85.0,943.0
-23.0,-18.0,237.0,175.0,1315.0,-66.0,-75.0,-75.0,939.0
-29.0,-16.0,236.0,165.0,1334.0,-73.0,-84.0,-71.0,939.0
-32.0,-14.0,238.0,154.0,1347.0,-83.0,-103.0,-60.0,933.0
-34.0,-14.0,238.0,145.0,1350.0,-90.0,-117.0,-52.0,939.0
-39.0,-9.0,240.0,133.0,1349.0,-94.0,-141.0,-43.0,945.0
-42.0,-10.0,242.0,120.0,1338.0,-98.0,-147.0,-44.0,947.0
-50.0,-9.0,242.0,109.0,1316.0,-98.0,-165.0,-42.0,952.0
-52.0,-11.0,243.0,95.0,1283.0,-96.0,-189.0,-46.0,961.0
-59.0,-9.0,241.0,82.0,1242.0,-92.0,-208.0,-52.0,963.0
-66.0,-12.0,246.0,69.0,1195.0,-89.0,-224.0,-52.0,967.0
-71.0,-10.0,245.0,58.0,1142.0,-84.0,-249.0,-50.0,965.0
-74.0,-10.0,242.0,47.0,1091.0,-77.0,-266.0,-48.0,966.0
-77.0,-5.0,247.0,37.0,1040.0,-74.0,-279.0,-41.0,957.0
-72.0,-12.0,240.0,29.0,996.0,-67.0,-282.0,-44.0,951.0
-76.0,-11.0,244.0,18.0,958.0,-64.0,-275.0,-45.0,946.0
-74.0,-5.0,239.0,3.0,928.0,-64.0,-272.0,-50.0,950.0
-68.0,-9.0,243.0,-15.0,903.0,-70.0,-266.0,-53.0,952.0
-69.0,-12.0,240.0,-35.0,881.0,-81.0,-258.0,-52.0,952.0
-70.0,-11.0,240.0,-59.0,857.0,-91.0,-250.0,-59.0,951.0
-65.0,-10.0,241.0,-84.0,833.0,-101.0,-240.0,-64.0,953.0
-64.0,-15.0,239.0,-111.0,806.0,-113.0,-244.0,-66.0,953.0
-66.0,-16.0,239.0,-139.0,779.0,-126.0,-235.0,-67.0,953.0
-64.0,-14.0,240.0,-159.0,750.0,-142.0,-231.0,-57.0,952.0
-64.0,-14.0,237.0,-173.0,723.0,-157.0,-231.0,-57.0,952.0
-62.0,-12.0,238.0,-179.0,698.0,-169.0,-223.0,-51.0,944.0
-60.0,-13.0,236.0,-177.0,679.0,-184.0,-214.0,-47.0,933.0
-55.0,-14.0,237.0,-172.0,664.0,-197.0,-210.0,-39.0,926.0
-57.0,-7.0,233.0,-169.0,656.0,-211.0,-206.0,-44.0,922.0
-59.0,-12.0,237.0,-164.0,654.0,-226.0,-215.0,-42.0,924.0
-60.0,-16.0,238.0,-161.0,649.0,-242.0,-219.0,-46.0,928.0
-61.0,-14.0,240.0,-157.0,641.0,-261.0,-230.0,-56.0,933.0
-65.0,-15.0,241.0,-145.0,627.0,-279.0,-236.0,-56.0,945.0
-68.0,-15.0,242.0,-127.0,613.0,-291.0,-245.0,-59.0,948.0
-64.0,-17.0,240.0,-103.0,596.0,-306.0,-246.0,-65.0,960.0
-66.0,-19.0,244.0,-73.0,579.0,-317.0,-246.0,-70.0,963.0
-67.0,-16.0,244.0,-44.0,561.0,-332.0,-243.0,-76.0,965.0
-64.0,-19.0,248.0,-19.0,542.0,-347.0,-239.0,-74.0,971.0
-64.0,-21.0,247.0,5.0,520.0,-361.0,-233.0,-91.0,967.0
-64.0,-21.0,245.0,19.0,493.0,-377.0,-228.0,-81.0,972.0
-65.0,-20.0,248.0,26.0,467.0,-388.0,-236.0,-93.0,970.0
-66.0,-21.0,246.0,32.0,437.0,-395.0,-237.0,-102.0,961.0
-66.0,-22.0,247.0,37.0,411.0,-399.0,-236.0,-92.0,958.0
-67.0,-20.0,243.0,41.0,389.0,-400.0,-241.0,-85.0,958.0
-61.0,-20.0,242.0,45.0,375.0,-399.0,-233.0,-75.0,954.0
-60.0,-13.0,241.0,48.0,368.0,-400.0,-218.0,-63.0,949.0
-59.0,-12.0,241.0,51.0,370.0,-397.0,-213.0,-55.0,952.0
-54.0,-9.0,240.0,45.0,379.0,-398.0,-208.0,-40.0,941.0
-55.0,-4.0,240.0,36.0,394.0,-393.0,-207.0,-29.0,948.0
-57.0,-3.0,239.0,22.0,405.0,-392.0,-212.0,-19.0,939.0
-56.0,1.0,240.0,4.0,411.0,-396.0,-212.0,6.0,941.0
-60.0,6.0,238.0,-10.0,406.0,-392.0,-218.0,11.0,940.0
-58.0,7.0,241.0,-24.0,399.0,-382.0,-222.0,23.0,951.0
-62.0,6.0,237.0,-31.0,386.0,-370.0,-230.0,30.0,946.0
-65.0,9.0,241.0,-34.0,375.0,-358.0,-240.0,29.0,953.0
-70.0,9.0,244.0,-35.0,357.0,-343.0,-257.0,42.0,953.0
-76.0,12.0,243.0,-35.0,335.0,-325.0,-275.0,46.0,956.0
-80.0,9.0,240.0,-35.0,309.0,-305.0,-309.0,37.0,960.0
-84.0,10.0,244.0,-41.0,274.0,-282.0,-318.0,33.0,958.0
-88.0,8.0,239.0,-52.0,235.0,-251.0,-323.0,12.0,948.0
-87.0,4.0,244.0,-70.0,196.0,-227.0,-327.0,0.0,948.0
-86.0,1.0,239.0,-90.0,154.0,-208.0,-320.0,-10.0,940.0
-81.0,-5.0,237.0,-106.0,114.0,-189.0,-313.0,-30.0,939.0
-82.0,-7.0,237.0,-119.0,79.0,-172.0,-311.0,-42.0,927.0
-84.0,-9.0,234.0,-131.0,46.0,-156.0,-312.0,-49.0,918.0
-86.0,-12.0,232.0,-137.0,12.0,-139.0,-315.0,-60.0,908.0
-89.0,-14.0,230.0,-143.0,-25.0,-125.0,-319.0,-58.0,894.0
-90.0,-11.0,227.0,-145.0,-68.0,-107.0,-333.0,-56.0,893.0
-94.0,-9.0,229.0,-146.0,-115.0,-90.0,-343.0,-52.0,875.0
-98.0,-10.0,223.0,-147.0,-165.0,-71.0,-366.0,-49.0,874.0
-102.0,-9.0,223.0,-146.0,-216.0,-49.0,-380.0,-44.0,874.0
-104.0,-8.0,222.0,-147.0,-265.0,-29.0,-392.0,-47.0,866.0
-104.0,-11.0,220.0,-155.0,-311.0,-2.0,-396.0,-50.0,866.0
-102.0,-13.0,220.0,-167.0,-352.0,23.0,-391.0,-64.0,867.0
-100.0,-15.0,225.0,-187.0,-379.0,51.0,-370.0,-78.0,874.0
-97.0,-20.0,227.0,-213.0,-396.0,81.0,-366.0,-95.0,878.0
-91.0,-31.0,230.0,-237.0,-403.0,110.0,-347.0,-113.0,886.0
-88.0,-32.0,227.0,-263.0,-407.0,138.0,-325.0,-138.0,894.0
-82.0,-32.0,235.0,-284.0,-409.0,161.0,-310.0,-146.0,904.0
-79.0,-36.0,232.0,-297.0,-411.0,178.0,-282.0,-152.0,915.0
-74.0,-42.0,236.0,-301.0,-408.0,192.0,-272.0,-156.0,915.0
-69.0,-41.0,236.0,-298.0,-400.0,200.0,-253.0,-157.0,921.0
-64.0,-41.0,238.0,-290.0,-387.0,205.0,-242.0,-156.0,927.0
-59.0,-41.0,235.0,-277.0,-373.0,208.0,-217.0,-153.0,929.0
-54.0,-43.0,239.0,-261.0,-355.0,204.0,-201.0,-152.0,941.0
-53.0,-37.0,242.0,-245.0,-336.0,195.0,-187.0,-151.0,947.0
-45.0,-35.0,239.0,-223.0,-314.0,183.0,-173.0,-138.0,953.0
-46.0,-34.0,245.0,-196.0,-293.0,174.0,-167.0,-137.0,956.0
-47.0,-31.0,244.0,-173.0,-276.0,162.0,-167.0,-122.0,950.0
-48.0,-31.0,239.0,-158.0,-266.0,150.0,-174.0,-122.0,948.0
-51.0,-28.0,240.0,-152.0,-270.0,139.0,-182.0,-111.0,944.0
-49.0,-25.0,240.0,-151.0,-279.0,129.0,-187.0,-105.0,948.0
-54.0,-20.0,237.0,-161.0,-291.0,120.0,-184.0,-90.0,944.0
-54.0,-22.0,239.0,-172.0,-308.0,116.0,-189.0,-83.0,948.0
-55.0,-21.0,240.0,-191.0,-321.0,111.0,-205.0,-86.0,947.0
-59.0,-21.0,245.0,-222.0,-334.0,115.0,-212.0,-98.0,945.0
-58.0,-18.0,242.0,-259.0,-347.0,120.0,-215.0,-92.0,956.0
-59.0,-21.0,242.0,-286.0,-363.0,129.0,-217.0,-88.0,955.0
-60.0,-21.0,246.0,-293.0,-379.0,133.0,-222.0,-78.0,971.0
-64.0,-32.0,254.0,-268.0,-396.0,144.0,-236.0,-126.0,992.0
-67.0,-39.0,267.0,-273.0,-416.0,163.0,-248.0,-158.0,1037.0
-71.0,-45.0,276.0,-297.0,-447.0,181.0,-260.0,-183.0,1097.0
-73.0,-50.0,289.0,-302.0,-496.0,211.0,-268.0,-188.0,1137.0
-68.0,-49.0,297.0,-281.0,-546.0,242.0,-250.0,-186.0,1173.0
-66.0,-48.0,303.0,-251.0,-590.0,287.0,-237.0,-186.0,1201.0
-62.0,-42.0,307.0,-231.0,-613.0,328.0,-218.0,-180.0,1211.0
-56.0,-33.0,301.0,-247.0,-622.0,366.0,-198.0,-157.0,1194.0
-42.0,-25.0,288.0,-315.0,-624.0,381.0,-141.0,-139.0,1149.0
-23.0,-21.0,273.0,-458.0,-631.0,383.0,-85.0,-122.0,1080.0
-6.0,-16.0,260.0,-666.0,-638.0,349.0,6.0,-105.0,1017.0
9.0,-13.0,248.0,-924.0,-643.0,302.0,60.0,-91.0,963.0
27.0,-17.0,224.0,-1214.0,-621.0,248.0,112.0,-109.0,884.0
42.0,-24.0,201.0,-1519.0,-546.0,196.0,159.0,-137.0,789.0
43.0,-40.0,182.0,-1813.0,-411.0,155.0,173.0,-183.0,723.0
35.0,-59.0,179.0,-2043.0,-231.0,145.0,128.0,-233.0,691.0
16.0,-83.0,185.0,-2154.0,-49.0,177.0,60.0,-295.0,710.0
12.0,-104.0,187.0,-2113.0,92.0,239.0,80.0,-367.0,722.0
-36.0,-116.0,196.0,-1920.0,165.0,273.0,-115.0,-394.0,750.0
-71.0,-119.0,194.0,-1606.0,200.0,324.0,-243.0,-417.0,752.0
-103.0,-117.0,187.0,-1251.0,194.0,386.0,-352.0,-426.0,724.0
-125.0,-117.0,175.0,-903.0,152.0,436.0,-461.0,-417.0,670.0
-121.0,-117.0,166.0,-591.0,104.0,482.0,-452.0,-421.0,636.0
-91.0,-118.0,161.0,-316.0,69.0,515.0,-357.0,-419.0,614.0
-53.0,-125.0,160.0,-53.0,53.0,499.0,-206.0,-436.0,618.0
-3.0,-122.0,166.0,218.0,71.0,423.0,-28.0,-445.0,641.0
28.0,-125.0,169.0,491.0,127.0,332.0,108.0,-442.0,643.0
58.0,-119.0,176.0,758.0,202.0,228.0,220.0,-426.0,667.0
66.0,-107.0,183.0,995.0,254.0,136.0,279.0,-393.0,699.0
72.0,-93.0,194.0,1178.0,260.0,55.0,308.0,-352.0,737.0
69.0,-69.0,209.0,1291.0,214.0,-10.0,313.0,-295.0,783.0
55.0,-52.0,218.0,1312.0,133.0,-44.0,264.0,-205.0,845.0
30.0,-31.0,237.0,1248.0,23.0,-36.0,166.0,-133.0,923.0
0.0,-7.0,250.0,1122.0,-115.0,19.0,52.0,-68.0,993.0
-24.0,6.0,265.0,947.0,-271.0,117.0,-55.0,-25.0,1038.0
-52.0,9.0,275.0,741.0,-414.0,235.0,-160.0,-3.0,1077.0
-74.0,8.0,285.0,524.0,-532.0,348.0,-256.0,-8.0,1115.0
-94.0,6.0,281.0,316.0,-626.0,434.0,-335.0,-27.0,1123.0
-62.0,-11.0,281.0,119.0,-687.0,482.0,-290.0,-51.0,1118.0
-102.0,-14.0,273.0,-65.0,-745.0,435.0,-373.0,-79.0,1083.0
-119.0,-22.0,266.0,-228.0,-752.0,405.0,-441.0,-103.0,1052.0
-108.0,-35.0,256.0,-360.0,-718.0,404.0,-436.0,-144.0,1015.0
-88.0,-47.0,247.0,-460.0,-674.0,377.0,-342.0,-192.0,983.0
-80.0,-51.0,241.0,-534.0,-628.0,309.0,-300.0,-211.0,952.0
-66.0,-56.0,239.0,-576.0,-583.0,238.0,-245.0,-220.0,934.0
-50.0,-59.0,237.0,-594.0,-551.0,179.0,-189.0,-228.0,924.0
-31.0,-58.0,234.0,-593.0,-533.0,130.0,-105.0,-235.0,916.0
-13.0,-64.0,236.0,-581.0,-525.0,89.0,-36.0,-239.0,913.0
3.0,-60.0,232.0,-564.0,-525.0,58.0,35.0,-236.0,910.0
18.0,-58.0,236.0,-540.0,-522.0,38.0,95.0,-232.0,919.0
37.0,-57.0,241.0,-508.0,-505.0,19.0,169.0,-229.0,950.0
59.0,-57.0,246.0,-470.0,-476.0,10.0,237.0,-224.0,966.0
72.0,-58.0,250.0,-426.0,-432.0,-5.0,296.0,-219.0,974.0
88.0,-57.0,246.0,-381.0,-379.0,-19.0,365.0,-209.0,965.0
102.0,-56.0,242.0,-328.0,-320.0,-32.0,400.0,-204.0,962.0
108.0,-56.0,245.0,-267.0,-262.0,-36.0,432.0,-205.0,942.0
111.0,-57.0,237.0,-197.0,-212.0,-31.0,447.0,-204.0,916.0
111.0,-58.0,226.0,-127.0,-167.0,-19.0,449.0,-204.0,895.0
113.0,-56.0,225.0,-60.0,-129.0,-10.0,443.0,-207.0,871.0
101.0,-52.0,220.0,-3.0,-93.0,-10.0,406.0,-193.0,854.0
93.0,-52.0,221.0,51.0,-50.0,-4.0,379.0,-180.0,839.0
81.0,-45.0,214.0,99.0,-3.0,-4.0,337.0,-178.0,836.0
74.0,-48.0,216.0,140.0,51.0,-9.0,301.0,-175.0,840.0
56.0,-46.0,218.0,173.0,107.0,-20.0,239.0,-171.0,846.0
48.0,-48.0,221.0,198.0,166.0,-20.0,207.0,-177.0,860.0
39.0,-52.0,223.0,219.0,218.0,-17.0,169.0,-178.0,871.0
28.0,-50.0,231.0,240.0,259.0,-19.0,133.0,-181.0,891.0
17.0,-47.0,228.0,259.0,285.0,-20.0,105.0,-183.0,902.0
12.0,-48.0,232.0,276.0,306.0,-21.0,88.0,-188.0,906.0
8.0,-54.0,239.0,296.0,315.0,-21.0,59.0,-193.0,915.0
8.0,-55.0,240.0,318.0,319.0,-21.0,55.0,-199.0,934.0
11.0,-55.0,240.0,346.0,326.0,-23.0,59.0,-205.0,951.0
13.0,-55.0,243.0,376.0,334.0,-27.0,65.0,-213.0,952.0
15.0,-56.0,239.0,406.0,345.0,-32.0,76.0,-216.0,956.0
14.0,-54.0,242.0,435.0,354.0,-35.0,78.0,-215.0,941.0
17.0,-59.0,240.0,463.0,362.0,-35.0,78.0,-217.0,948.0
14.0,-57.0,235.0,487.0,364.0,-31.0,75.0,-212.0,941.0
13.0,-57.0,237.0,501.0,361.0,-27.0,63.0,-211.0,933.0
7.0,-51.0,237.0,504.0,351.0,-20.0,50.0,-206.0,930.0
3.0,-53.0,236.0,498.0,336.0,-8.0,36.0,-197.0,923.0
0.0,-51.0,235.0,482.0,316.0,3.0,17.0,-195.0,926.0
-7.0,-49.0,236.0,462.0,289.0,13.0,0.0,-195.0,920.0
-14.0,-49.0,238.0,435.0,263.0,24.0,-35.0,-189.0,924.0
-21.0,-50.0,241.0,408.0,233.0,34.0,-71.0,-180.0,933.0
-37.0,-44.0,239.0,380.0,193.0,36.0,-131.0,-178.0,946.0
-45.0,-43.0,244.0,351.0,156.0,51.0,-147.0,-182.0,960.0
-50.0,-44.0,243.0,314.0,114.0,60.0,-176.0,-185.0,961.0
-55.0,-46.0,246.0,270.0,70.0,61.0,-183.0,-176.0,974.0
-57.0,-44.0,244.0,221.0,30.0,57.0,-205.0,-174.0,964.0
-55.0,-44.0,246.0,174.0,4.0,57.0,-197.0,-181.0,961.0
-48.0,-44.0,244.0,129.0,-2.0,47.0,-183.0,-181.0,961.0
-42.0,-44.0,248.0,83.0,5.0,30.0,-152.0,-183.0,965.0
-38.0,-47.0,252.0,44.0,23.0,4.0,-137.0,-179.0,985.0
-34.0,-45.0,255.0,7.0,44.0,-24.0,-128.0,-181.0,999.0
-27.0,-44.0,258.0,-29.0,62.0,-52.0,-96.0,-185.0,1015.0
-17.0,-44.0,262.0,-74.0,76.0,-79.0,-45.0,-179.0,1031.0
-4.0,-42.0,273.0,-128.0,94.0,-101.0,-12.0,-176.0,1058.0
4.0,-44.0,284.0,-175.0,126.0,-114.0,26.0,-173.0,1102.0
12.0,-43.0,285.0,-203.0,170.0,-120.0,50.0,-172.0,1139.0
13.0,-42.0,293.0,-211.0,225.0,-122.0,70.0,-166.0,1149.0
13.0,-38.0,286.0,-209.0,271.0,-119.0,74.0,-155.0,1131.0
9.0,-35.0,280.0,-214.0,294.0,-111.0,70.0,-148.0,1109.0
5.0,-33.0,264.0,-230.0,294.0,-103.0,50.0,-139.0,1058.0
0.0,-28.0,256.0,-253.0,278.0,-102.0,26.0,-128.0,1012.0
-7.0,-28.0,247.0,-282.0,262.0,-106.0,2.0,-114.0,981.0
-12.0,-26.0,238.0,-316.0,255.0,-120.0,-39.0,-105.0,941.0
-21.0,-23.0,240.0,-359.0,257.0,-136.0,-67.0,-94.0,929.0
-27.0,-24.0,244.0,-406.0,262.0,-156.0,-85.0,-102.0,947.0
-31.0,-26.0,254.0,-455.0,268.0,-172.0,-98.0,-111.0,979.0
-29.0,-32.0,264.0,-497.0,281.0,-188.0,-104.0,-130.0,1025.0
-23.0,-41.0,274.0,-525.0,311.0,-202.0,-81.0,-171.0,1076.0
-16.0,-55.0,285.0,-535.0,364.0,-217.0,-53.0,-202.0,1125.0
-8.0,-66.0,294.0,-517.0,434.0,-232.0,-20.0,-247.0,1150.0
0.0,-81.0,290.0,-470.0,503.0,-249.0,1.0,-293.0,1163.0
-3.0,-88.0,287.0,-391.0,551.0,-266.0,11.0,-331.0,1150.0
-6.0,-94.0,275.0,-292.0,566.0,-289.0,11.0,-365.0,1087.0
-11.0,-95.0,260.0,-202.0,544.0,-317.0,-13.0,-361.0,1013.0
-21.0,-86.0,238.0,-145.0,496.0,-344.0,-53.0,-342.0,942.0
-34.0,-79.0,227.0,-139.0,415.0,-368.0,-101.0,-315.0,895.0
-51.0,-67.0,224.0,-176.0,324.0,-381.0,-161.0,-283.0,873.0
-61.0,-59.0,228.0,-235.0,244.0,-386.0,-217.0,-243.0,879.0
-77.0,-55.0,228.0,-295.0,188.0,-386.0,-275.0,-221.0,896.0
-88.0,-51.0,229.0,-344.0,153.0,-383.0,-334.0,-209.0,900.0
-101.0,-47.0,225.0,-384.0,126.0,-379.0,-384.0,-189.0,887.0
-109.0,-40.0,223.0,-414.0,97.0,-373.0,-402.0,-166.0,867.0
-105.0,-34.0,219.0,-437.0,64.0,-370.0,-406.0,-139.0,848.0
-102.0,-26.0,213.0,-453.0,32.0,-369.0,-387.0,-116.0,820.0
-92.0,-28.0,202.0,-463.0,2.0,-371.0,-351.0,-120.0,796.0
-85.0,-31.0,202.0,-467.0,-26.0,-374.0,-314.0,-128.0,776.0
-73.0,-39.0,194.0,-456.0,-56.0,-375.0,-260.0,-152.0,763.0
-63.0,-43.0,190.0,-423.0,-87.0,-376.0,-230.0,-169.0,751.0
-58.0,-51.0,189.0,-366.0,-113.0,-376.0,-192.0,-186.0,752.0
-46.0,-55.0,198.0,-296.0,-130.0,-373.0,-157.0,-202.0,767.0
-40.0,-55.0,210.0,-218.0,-138.0,-359.0,-136.0,-201.0,794.0
-35.0,-47.0,219.0,-148.0,-145.0,-334.0,-115.0,-191.0,832.0
-31.0,-49.0,229.0,-88.0,-161.0,-300.0,-100.0,-182.0,888.0
-27.0,-49.0,238.0,-44.0,-185.0,-267.0,-93.0,-180.0,919.0
-27.0,-49.0,235.0,-15.0,-212.0,-235.0,-79.0,-191.0,922.0
-25.0,-51.0,233.0,5.0,-228.0,-213.0,-77.0,-197.0,905.0
-27.0,-53.0,228.0,18.0,-228.0,-199.0,-84.0,-210.0,883.0
-28.0,-57.0,222.0,36.0,-211.0,-196.0,-93.0,-223.0,872.0
-33.0,-60.0,219.0,70.0,-188.0,-197.0,-108.0,-231.0,865.0
-37.0,-62.0,221.0,111.0,-177.0,-202.0,-125.0,-232.0,868.0
-43.0,-59.0,219.0,150.0,-181.0,-210.0,-135.0,-238.0,867.0
-42.0,-62.0,220.0,186.0,-190.0,-224.0,-146.0,-245.0,852.0
-42.0,-61.0,219.0,213.0,-198.0,-244.0,-147.0,-243.0,840.0
-43.0,-62.0,216.0,228.0,-201.0,-266.0,-148.0,-247.0,840.0
-38.0,-60.0,219.0,230.0,-209.0,-295.0,-135.0,-250.0,836.0
-35.0,-59.0,218.0,216.0,-221.0,-328.0,-119.0,-246.0,838.0
-32.0,-61.0,213.0,196.0,-246.0,-358.0,-98.0,-246.0,837.0
-28.0,-64.0,213.0,181.0,-274.0,-389.0,-84.0,-249.0,835.0
-18.0,-63.0,217.0,169.0,-306.0,-416.0,-57.0,-251.0,838.0
-15.0,-64.0,222.0,157.0,-337.0,-440.0,-42.0,-253.0,857.0
-10.0,-62.0,226.0,151.0,-371.0,-458.0,-29.0,-240.0,873.0
-5.0,-61.0,230.0,151.0,-402.0,-474.0,2.0,-240.0,891.0
-3.0,-59.0,233.0,162.0,-427.0,-479.0,14.0,-225.0,905.0
0.0,-58.0,233.0,179.0,-451.0,-473.0,25.0,-221.0,913.0
0.0,-57.0,229.0,204.0,-486.0,-461.0,40.0,-223.0,902.0
2.0,-56.0,224.0,231.0,-542.0,-442.0,47.0,-211.0,880.0
2.0,-55.0,222.0,259.0,-612.0,-423.0,47.0,-212.0,874.0
2.0,-57.0,223.0,288.0,-682.0,-406.0,49.0,-216.0,873.0
3.0,-56.0,223.0,315.0,-738.0,-397.0,45.0,-222.0,872.0
4.0,-56.0,226.0,333.0,-774.0,-395.0,39.0,-226.0,879.0
5.0,-60.0,230.0,337.0,-792.0,-405.0,42.0,-230.0,893.0
3.0,-59.0,232.0,332.0,-797.0,-422.0,37.0,-234.0,910.0
2.0,-62.0,236.0,324.0,-795.0,-446.0,38.0,-240.0,920.0
4.0,-61.0,237.0,310.0,-792.0,-479.0,48.0,-238.0,921.0
5.0,-59.0,236.0,289.0,-797.0,-515.0,48.0,-238.0,926.0
7.0,-60.0,242.0,265.0,-814.0,-549.0,46.0,-227.0,943.0
7.0,-57.0,248.0,242.0,-842.0,-585.0,49.0,-217.0,961.0
5.0,-52.0,248.0,218.0,-872.0,-606.0,54.0,-204.0,972.0
7.0,-45.0,248.0,188.0,-892.0,-616.0,60.0,-186.0,982.0
12.0,-46.0,253.0,152.0,-909.0,-622.0,73.0,-180.0,1004.0
22.0,-41.0,259.0,112.0,-924.0,-626.0,100.0,-171.0,1014.0
27.0,-40.0,254.0,72.0,-939.0,-629.0,125.0,-157.0,1011.0
36.0,-41.0,252.0,38.0,-957.0,-630.0,157.0,-160.0,1001.0
46.0,-41.0,245.0,18.0,-972.0,-623.0,193.0,-157.0,972.0
55.0,-40.0,239.0,19.0,-973.0,-617.0,224.0,-156.0,936.0
62.0,-42.0,234.0,38.0,-948.0,-598.0,252.0,-156.0,914.0
73.0,-41.0,233.0,69.0,-895.0,-575.0,293.0,-155.0,905.0
81.0,-34.0,230.0,94.0,-807.0,-544.0,330.0,-147.0,905.0
101.0,-38.0,240.0,94.0,-678.0,-503.0,365.0,-123.0,923.0
103.0,-28.0,244.0,53.0,-529.0,-454.0,409.0,-101.0,957.0
116.0,-19.0,248.0,-25.0,-385.0,-399.0,442.0,-73.0,983.0
122.0,-18.0,247.0,-122.0,-264.0,-345.0,466.0,-61.0,985.0
121.0,-10.0,244.0,-243.0,-184.0,-290.0,472.0,-57.0,957.0
117.0,-14.0,233.0,-324.0,-144.0,-229.0,478.0,-42.0,923.0
105.0,-22.0,224.0,-372.0,-131.0,-158.0,438.0,-74.0,887.0
91.0,-30.0,216.0,-384.0,-141.0,-95.0,386.0,-98.0,846.0
77.0,-41.0,208.0,-353.0,-161.0,-29.0,340.0,-124.0,808.0
67.0,-53.0,206.0,-284.0,-175.0,32.0,288.0,-172.0,788.0
63.0,-60.0,198.0,-182.0,-173.0,81.0,262.0,-219.0,770.0
58.0,-75.0,203.0,-58.0,-147.0,111.0,238.0,-248.0,765.0
53.0,-78.0,201.0,82.0,-102.0,129.0,226.0,-275.0,779.0
53.0,-84.0,202.0,227.0,-47.0,134.0,215.0,-294.0,783.0
48.0,-80.0,203.0,368.0,7.0,124.0,212.0,-297.0,789.0
49.0,-79.0,205.0,501.0,54.0,114.0,213.0,-291.0,794.0
51.0,-78.0,204.0,618.0,88.0,106.0,225.0,-281.0,799.0
53.0,-73.0,214.0,718.0,117.0,111.0,224.0,-264.0,822.0
56.0,-66.0,223.0,794.0,140.0,127.0,233.0,-243.0,853.0
55.0,-61.0,229.0,844.0,157.0,152.0,254.0,-229.0,901.0
62.0,-54.0,238.0,867.0,167.0,187.0,261.0,-208.0,935.0
66.0,-55.0,242.0,866.0,169.0,230.0,270.0,-196.0,960.0
63.0,-51.0,246.0,847.0,169.0,281.0,275.0,-182.0,975.0
65.0,-45.0,250.0,816.0,168.0,334.0,274.0,-173.0,982.0
61.0,-42.0,246.0,779.0,164.0,388.0,261.0,-166.0,992.0
60.0,-42.0,251.0,740.0,164.0,433.0,249.0,-160.0,997.0
55.0,-44.0,261.0,695.0,167.0,471.0,230.0,-168.0,1013.0
55.0,-44.0,260.0,649.0,179.0,492.0,225.0,-169.0,1030.0
51.0,-49.0,267.0,602.0,199.0,502.0,216.0,-179.0,1058.0
47.0,-45.0,269.0,563.0,223.0,506.0,208.0,-183.0,1059.0
42.0,-45.0,271.0,530.0,239.0,499.0,197.0,-184.0,1054.0
36.0,-45.0,263.0,494.0,242.0,487.0,171.0,-180.0,1029.0
31.0,-43.0,253.0,448.0,227.0,473.0,154.0,-173.0,1005.0
25.0,-43.0,242.0,384.0,194.0,464.0,138.0,-179.0,965.0
26.0,-43.0,239.0,305.0,149.0,464.0,132.0,-183.0,939.0
28.0,-50.0,238.0,228.0,103.0,470.0,128.0,-184.0,933.0
26.0,-54.0,245.0,172.0,74.0,482.0,122.0,-192.0,951.0
27.0,-57.0,246.0,158.0,77.0,496.0,124.0,-205.0,974.0
18.0,-54.0,256.0,186.0,106.0,512.0,102.0,-200.0,998.0
12.0,-53.0,253.0,246.0,138.0,533.0,74.0,-202.0,1003.0
11.0,-50.0,259.0,322.0,160.0,555.0,72.0,-191.0,999.0
17.0,-47.0,259.0,391.0,178.0,575.0,89.0,-185.0,1008.0
30.0,-49.0,264.0,448.0,224.0,585.0,129.0,-176.0,1034.0
49.0,-46.0,274.0,503.0,328.0,587.0,181.0,-162.0,1072.0
58.0,-40.0,281.0,564.0,475.0,578.0,230.0,-153.0,1099.0
70.0,-40.0,277.0,627.0,629.0,559.0,271.0,-139.0,1099.0
76.0,-37.0,271.0,682.0,759.0,537.0,307.0,-129.0,1062.0
81.0,-27.0,261.0,722.0,851.0,518.0,336.0,-108.0,1029.0
86.0,-24.0,249.0,746.0,898.0,509.0,361.0,-86.0,986.0
94.0,-20.0,237.0,751.0,902.0,510.0,383.0,-74.0,934.0
97.0,-18.0,226.0,734.0,871.0,520.0,398.0,-68.0,889.0
97.0,-16.0,215.0,703.0,829.0,536.0,400.0,-54.0,829.0
93.0,-14.0,200.0,660.0,796.0,552.0,388.0,-41.0,783.0
91.0,-5.0,194.0,606.0,786.0,575.0,376.0,-22.0,756.0
87.0,1.0,191.0,550.0,796.0,596.0,355.0,4.0,734.0
81.0,9.0,191.0,501.0,822.0,620.0,326.0,31.0,738.0
73.0,12.0,190.0,448.0,860.0,642.0,298.0,55.0,733.0
66.0,19.0,192.0,390.0,901.0,664.0,265.0,84.0,752.0
62.0,26.0,195.0,327.0,954.0,678.0,243.0,99.0,771.0
58.0,29.0,211.0,263.0,1036.0,681.0,225.0,117.0,808.0
52.0,34.0,216.0,205.0,1144.0,673.0,210.0,134.0,845.0
48.0,34.0,221.0,161.0,1256.0,654.0,189.0,144.0,866.0
38.0,35.0,219.0,140.0,1360.0,631.0,163.0,146.0,868.0
33.0,34.0,218.0,141.0,1445.0,608.0,142.0,150.0,874.0
28.0,31.0,222.0,162.0,1507.0,583.0,119.0,133.0,861.0
21.0,28.0,217.0,187.0,1547.0,561.0,102.0,125.0,844.0
17.0,24.0,213.0,210.0,1561.0,539.0,90.0,98.0,831.0
14.0,19.0,208.0,221.0,1554.0,522.0,74.0,84.0,820.0
13.0,11.0,212.0,223.0,1538.0,502.0,60.0,60.0,812.0
14.0,4.0,204.0,216.0,1526.0,482.0,54.0,29.0,816.0
8.0,0.0,210.0,203.0,1523.0,461.0,45.0,6.0,818.0
3.0,-7.0,219.0,187.0,1521.0,439.0,33.0,-12.0,835.0
-2.0,-6.0,225.0,176.0,1508.0,418.0,20.0,-41.0,875.0
-6.0,-13.0,234.0,171.0,1476.0,387.0,-7.0,-48.0,918.0
-16.0,-16.0,242.0,166.0,1425.0,355.0,-38.0,-61.0,952.0
-27.0,-19.0,253.0,161.0,1361.0,319.0,-77.0,-72.0,985.0
-37.0,-22.0,258.0,158.0,1284.0,281.0,-107.0,-78.0,1017.0
-45.0,-21.0,263.0,153.0,1199.0,236.0,-146.0,-83.0,1041.0
-55.0,-20.0,270.0,142.0,1111.0,191.0,-194.0,-80.0,1054.0
-63.0,-18.0,274.0,131.0,1022.0,151.0,-224.0,-81.0,1067.0
-70.0,-18.0,273.0,119.0,931.0,115.0,-245.0,-87.0,1064.0
-73.0,-18.0,267.0,105.0,833.0,82.0,-259.0,-83.0,1060.0
-76.0,-23.0,265.0,92.0,730.0,54.0,-272.0,-78.0,1044.0
-74.0,-17.0,260.0,75.0,616.0,28.0,-268.0,-83.0,1023.0
-67.0,-18.0,252.0,58.0,491.0,5.0,-238.0,-66.0,993.0
-59.0,-16.0,244.0,43.0,364.0,-25.0,-203.0,-65.0,962.0
-49.0,-12.0,237.0,28.0,253.0,-54.0,-169.0,-47.0,930.0
-45.0,-5.0,231.0,19.0,156.0,-80.0,-141.0,-33.0,916.0
-34.0,-4.0,227.0,19.0,70.0,-106.0,-111.0,-24.0,890.0
-33.0,-3.0,219.0,18.0,-8.0,-129.0,-114.0,-5.0,856.0
-43.0,7.0,214.0,12.0,-73.0,-149.0,-148.0,12.0,836.0
-58.0,9.0,209.0,-1.0,-139.0,-153.0,-192.0,33.0,820.0
-64.0,17.0,207.0,-17.0,-218.0,-140.0,-229.0,57.0,805.0
-72.0,23.0,201.0,-36.0,-307.0,-118.0,-261.0,86.0,787.0
-76.0,28.0,197.0,-64.0,-392.0,-92.0,-279.0,99.0,773.0
