acc1_x,acc1_y,acc1_z,gyro_x,gyro_y,gyro_z,acc2_x,acc2_y,acc2_z
6.0,-257.0,-106.0,-38.0,22.0,-2.0,-55.0,-967.0,-264.0
2.0,-251.0,-106.0,-35.0,22.0,-2.0,-58.0,-967.0,-264.0
7.0,-254.0,-103.0,-35.0,22.0,-1.0,-63.0,-966.0,-264.0
3.0,-252.0,-109.0,-36.0,20.0,-1.0,-58.0,-965.0,-269.0
4.0,-256.0,-114.0,-36.0,19.0,0.0,-57.0,-959.0,-266.0
10.0,-255.0,-100.0,-35.0,18.0,1.0,-59.0,-961.0,-261.0
7.0,-253.0,-101.0,-34.0,17.0,1.0,-59.0,-964.0,-263.0
6.0,-253.0,-107.0,-35.0,17.0,1.0,-58.0,-959.0,-260.0
7.0,-254.0,-106.0,-36.0,16.0,1.0,-60.0,-958.0,-260.0
7.0,-254.0,-104.0,-35.0,14.0,2.0,-58.0,-955.0,-264.0
7.0,-252.0,-105.0,-37.0,16.0,1.0,-61.0,-955.0,-265.0
4.0,-252.0,-106.0,-37.0,16.0,1.0,-61.0,-957.0,-263.0
6.0,-253.0,-110.0,-40.0,15.0,1.0,-57.0,-959.0,-259.0
7.0,-256.0,-105.0,-41.0,16.0,0.0,-60.0,-958.0,-264.0
7.0,-254.0,-106.0,-44.0,16.0,1.0,-57.0,-957.0,-265.0
11.0,-254.0,-103.0,-47.0,14.0,-3.0,-60.0,-967.0,-258.0
7.0,-255.0,-102.0,-47.0,13.0,-3.0,-58.0,-962.0,-261.0
5.0,-255.0,-106.0,-47.0,11.0,-5.0,-61.0,-962.0,-262.0
3.0,-253.0,-110.0,-43.0,9.0,-6.0,-62.0,-963.0,-265.0
5.0,-256.0,-110.0,-40.0,8.0,-7.0,-62.0,-962.0,-263.0
5.0,-254.0,-110.0,-38.0,6.0,-8.0,-63.0,-962.0,-264.0
3.0,-253.0,-110.0,-36.0,7.0,-9.0,-60.0,-965.0,-266.0
10.0,-256.0,-106.0,-32.0,7.0,-11.0,-62.0,-964.0,-266.0
6.0,-252.0,-107.0,-32.0,8.0,-9.0,-57.0,-965.0,-265.0
6.0,-255.0,-110.0,-32.0,9.0,-10.0,-55.0,-965.0,-273.0
6.0,-253.0,-111.0,-32.0,9.0,-10.0,-57.0,-970.0,-267.0
10.0,-257.0,-109.0,-34.0,8.0,-9.0,-57.0,-965.0,-271.0
6.0,-255.0,-107.0,-34.0,10.0,-6.0,-56.0,-963.0,-268.0
8.0,-253.0,-108.0,-35.0,8.0,-5.0,-54.0,-961.0,-263.0
7.0,-254.0,-109.0,-36.0,10.0,-4.0,-52.0,-957.0,-258.0
10.0,-254.0,-102.0,-39.0,10.0,-2.0,-48.0,-961.0,-261.0
8.0,-256.0,-104.0,-40.0,9.0,-1.0,-52.0,-959.0,-259.0
11.0,-255.0,-107.0,-42.0,9.0,-2.0,-55.0,-962.0,-260.0
9.0,-253.0,-101.0,-44.0,7.0,-2.0,-54.0,-956.0,-257.0
7.0,-256.0,-106.0,-47.0,9.0,-1.0,-57.0,-960.0,-255.0
7.0,-254.0,-109.0,-47.0,9.0,-2.0,-52.0,-964.0,-259.0
8.0,-254.0,-111.0,-47.0,9.0,-3.0,-54.0,-964.0,-261.0
6.0,-255.0,-104.0,-46.0,9.0,-4.0,-52.0,-960.0,-259.0
6.0,-252.0,-110.0,-44.0,10.0,-4.0,-52.0,-961.0,-261.0
7.0,-255.0,-107.0,-43.0,11.0,-5.0,-53.0,-965.0,-266.0
8.0,-256.0,-106.0,-42.0,11.0,-5.0,-51.0,-965.0,-265.0
5.0,-253.0,-113.0,-41.0,9.0,-5.0,-51.0,-968.0,-267.0
4.0,-255.0,-107.0,-40.0,10.0,-5.0,-53.0,-968.0,-265.0
5.0,-254.0,-104.0,-38.0,11.0,-5.0,-52.0,-967.0,-264.0
6.0,-255.0,-109.0,-37.0,10.0,-5.0,-52.0,-967.0,-269.0
7.0,-254.0,-106.0,-36.0,11.0,-4.0,-58.0,-967.0,-263.0
7.0,-256.0,-107.0,-37.0,11.0,-4.0,-54.0,-967.0,-266.0
7.0,-255.0,-103.0,-37.0,13.0,-3.0,-53.0,-962.0,-266.0
4.0,-254.0,-108.0,-37.0,14.0,-1.0,-53.0,-965.0,-270.0
9.0,-256.0,-106.0,-37.0,15.0,-2.0,-60.0,-965.0,-263.0
6.0,-255.0,-104.0,-38.0,15.0,-2.0,-55.0,-961.0,-263.0
8.0,-255.0,-104.0,-38.0,15.0,-3.0,-51.0,-962.0,-262.0
6.0,-253.0,-107.0,-39.0,15.0,-3.0,-55.0,-969.0,-259.0
7.0,-253.0,-106.0,-39.0,15.0,-2.0,-55.0,-963.0,-260.0
7.0,-253.0,-109.0,-38.0,15.0,-3.0,-56.0,-961.0,-264.0
7.0,-252.0,-105.0,-39.0,14.0,-4.0,-59.0,-962.0,-267.0
6.0,-253.0,-103.0,-39.0,13.0,-4.0,-54.0,-960.0,-268.0
9.0,-255.0,-102.0,-40.0,13.0,-4.0,-53.0,-966.0,-265.0
6.0,-255.0,-104.0,-40.0,14.0,-6.0,-59.0,-959.0,-262.0
3.0,-252.0,-106.0,-40.0,13.0,-9.0,-56.0,-962.0,-264.0
6.0,-253.0,-111.0,-40.0,12.0,-9.0,-58.0,-963.0,-261.0
8.0,-255.0,-107.0,-40.0,12.0,-10.0,-55.0,-964.0,-261.0
5.0,-252.0,-108.0,-40.0,12.0,-11.0,-53.0,-963.0,-265.0
5.0,-255.0,-106.0,-39.0,13.0,-11.0,-59.0,-963.0,-263.0
5.0,-255.0,-110.0,-38.0,13.0,-13.0,-63.0,-968.0,-266.0
7.0,-255.0,-110.0,-37.0,14.0,-12.0,-63.0,-966.0,-267.0
5.0,-255.0,-109.0,-36.0,15.0,-11.0,-59.0,-966.0,-259.0
6.0,-253.0,-106.0,-37.0,14.0,-11.0,-60.0,-970.0,-266.0
4.0,-256.0,-106.0,-37.0,13.0,-9.0,-59.0,-966.0,-268.0
7.0,-254.0,-104.0,-38.0,13.0,-8.0,-54.0,-965.0,-265.0
10.0,-253.0,-101.0,-40.0,13.0,-7.0,-54.0,-967.0,-261.0
8.0,-253.0,-109.0,-42.0,13.0,-6.0,-54.0,-967.0,-262.0
7.0,-255.0,-105.0,-47.0,13.0,-6.0,-53.0,-968.0,-265.0
11.0,-257.0,-102.0,-48.0,14.0,-4.0,-52.0,-962.0,-256.0
9.0,-256.0,-106.0,-48.0,12.0,-4.0,-51.0,-966.0,-258.0
5.0,-254.0,-104.0,-48.0,14.0,-5.0,-53.0,-964.0,-258.0
9.0,-255.0,-103.0,-47.0,14.0,-5.0,-54.0,-966.0,-256.0
8.0,-253.0,-108.0,-45.0,14.0,-6.0,-54.0,-961.0,-255.0
7.0,-252.0,-108.0,-43.0,14.0,-6.0,-54.0,-959.0,-256.0
5.0,-253.0,-109.0,-44.0,13.0,-8.0,-52.0,-954.0,-257.0
6.0,-253.0,-102.0,-46.0,13.0,-8.0,-54.0,-957.0,-264.0
12.0,-251.0,-102.0,-46.0,13.0,-8.0,-50.0,-959.0,-260.0
10.0,-254.0,-105.0,-47.0,13.0,-10.0,-52.0,-960.0,-264.0
9.0,-255.0,-107.0,-47.0,10.0,-10.0,-50.0,-958.0,-265.0
10.0,-253.0,-106.0,-48.0,12.0,-11.0,-48.0,-960.0,-265.0
7.0,-252.0,-104.0,-49.0,9.0,-13.0,-50.0,-959.0,-265.0
7.0,-256.0,-109.0,-49.0,10.0,-13.0,-50.0,-959.0,-263.0
9.0,-256.0,-109.0,-51.0,10.0,-12.0,-54.0,-962.0,-265.0
9.0,-253.0,-107.0,-50.0,13.0,-13.0,-50.0,-965.0,-270.0
9.0,-257.0,-108.0,-53.0,12.0,-12.0,-51.0,-964.0,-264.0
9.0,-254.0,-106.0,-53.0,13.0,-11.0,-51.0,-963.0,-269.0
5.0,-252.0,-107.0,-54.0,13.0,-12.0,-48.0,-969.0,-262.0
12.0,-257.0,-109.0,-53.0,14.0,-12.0,-53.0,-968.0,-263.0
10.0,-254.0,-108.0,-54.0,15.0,-12.0,-56.0,-961.0,-263.0
8.0,-255.0,-106.0,-53.0,14.0,-11.0,-52.0,-960.0,-260.0
4.0,-255.0,-108.0,-53.0,13.0,-11.0,-49.0,-962.0,-264.0
11.0,-256.0,-106.0,-53.0,12.0,-11.0,-52.0,-957.0,-258.0
7.0,-254.0,-105.0,-54.0,12.0,-10.0,-49.0,-960.0,-261.0
10.0,-253.0,-107.0,-56.0,13.0,-10.0,-46.0,-965.0,-261.0
11.0,-254.0,-106.0,-57.0,12.0,-10.0,-45.0,-956.0,-260.0
7.0,-255.0,-105.0,-57.0,11.0,-10.0,-51.0,-957.0,-260.0
10.0,-252.0,-105.0,-60.0,14.0,-11.0,-46.0,-959.0,-259.0
10.0,-253.0,-104.0,-60.0,15.0,-10.0,-48.0,-961.0,-261.0
6.0,-257.0,-111.0,-61.0,15.0,-10.0,-47.0,-959.0,-263.0
9.0,-251.0,-106.0,-61.0,17.0,-8.0,-41.0,-959.0,-263.0
10.0,-254.0,-110.0,-60.0,17.0,-9.0,-44.0,-957.0,-263.0
11.0,-254.0,-107.0,-63.0,18.0,-8.0,-45.0,-958.0,-265.0
14.0,-256.0,-106.0,-63.0,17.0,-7.0,-35.0,-957.0,-263.0
10.0,-253.0,-105.0,-65.0,17.0,-5.0,-38.0,-958.0,-261.0
13.0,-255.0,-105.0,-67.0,17.0,-6.0,-43.0,-960.0,-261.0
10.0,-252.0,-106.0,-69.0,19.0,-5.0,-40.0,-963.0,-266.0
13.0,-254.0,-106.0,-73.0,21.0,-5.0,-36.0,-959.0,-269.0
14.0,-254.0,-107.0,-73.0,23.0,-3.0,-32.0,-960.0,-267.0
16.0,-250.0,-109.0,-75.0,26.0,-4.0,-36.0,-967.0,-264.0
13.0,-254.0,-108.0,-75.0,28.0,-4.0,-31.0,-961.0,-264.0
13.0,-254.0,-107.0,-78.0,32.0,-4.0,-30.0,-958.0,-264.0
15.0,-256.0,-110.0,-81.0,35.0,-3.0,-32.0,-959.0,-262.0
15.0,-256.0,-104.0,-85.0,37.0,-3.0,-33.0,-962.0,-265.0
16.0,-253.0,-105.0,-89.0,36.0,-3.0,-25.0,-962.0,-257.0
12.0,-253.0,-108.0,-92.0,37.0,-3.0,-31.0,-964.0,-261.0
15.0,-255.0,-106.0,-94.0,34.0,-2.0,-24.0,-961.0,-261.0
14.0,-256.0,-107.0,-94.0,34.0,-4.0,-22.0,-968.0,-258.0
18.0,-256.0,-105.0,-94.0,36.0,-4.0,-17.0,-968.0,-256.0
16.0,-254.0,-105.0,-92.0,35.0,-5.0,-19.0,-967.0,-258.0
17.0,-248.0,-104.0,-90.0,34.0,-5.0,-14.0,-959.0,-253.0
17.0,-252.0,-105.0,-87.0,33.0,-6.0,-6.0,-967.0,-258.0
19.0,-253.0,-108.0,-85.0,29.0,-7.0,-5.0,-955.0,-256.0
17.0,-252.0,-106.0,-85.0,25.0,-7.0,-6.0,-963.0,-262.0
21.0,-251.0,-106.0,-86.0,22.0,-9.0,-7.0,-954.0,-261.0
20.0,-253.0,-106.0,-88.0,20.0,-8.0,-6.0,-957.0,-265.0
22.0,-254.0,-107.0,-90.0,17.0,-8.0,-1.0,-960.0,-262.0
25.0,-250.0,-107.0,-92.0,11.0,-8.0,-1.0,-956.0,-263.0
20.0,-251.0,-110.0,-92.0,4.0,-9.0,-2.0,-959.0,-268.0
23.0,-249.0,-107.0,-89.0,-1.0,-7.0,1.0,-957.0,-268.0
18.0,-251.0,-110.0,-87.0,-7.0,-6.0,-1.0,-954.0,-273.0
22.0,-249.0,-106.0,-85.0,-14.0,-8.0,-3.0,-950.0,-274.0
20.0,-248.0,-110.0,-85.0,-18.0,-9.0,-4.0,-948.0,-281.0
20.0,-252.0,-118.0,-86.0,-23.0,-10.0,-2.0,-945.0,-283.0
20.0,-249.0,-111.0,-91.0,-25.0,-10.0,-2.0,-948.0,-288.0
22.0,-246.0,-113.0,-96.0,-28.0,-8.0,-3.0,-941.0,-291.0
22.0,-245.0,-117.0,-105.0,-28.0,-9.0,-3.0,-945.0,-291.0
19.0,-250.0,-114.0,-112.0,-29.0,-7.0,-5.0,-944.0,-289.0
16.0,-247.0,-114.0,-123.0,-32.0,-7.0,-15.0,-945.0,-291.0
18.0,-246.0,-111.0,-133.0,-35.0,-6.0,-13.0,-949.0,-285.0
15.0,-250.0,-115.0,-141.0,-37.0,-6.0,-9.0,-950.0,-293.0
13.0,-252.0,-108.0,-144.0,-40.0,-5.0,-20.0,-952.0,-290.0
18.0,-249.0,-117.0,-144.0,-44.0,-3.0,-18.0,-946.0,-289.0
16.0,-246.0,-111.0,-141.0,-49.0,-3.0,-17.0,-943.0,-282.0
16.0,-247.0,-109.0,-134.0,-53.0,-3.0,-22.0,-933.0,-283.0
14.0,-245.0,-109.0,-131.0,-59.0,-2.0,-24.0,-937.0,-284.0
17.0,-245.0,-112.0,-128.0,-63.0,-1.0,-19.0,-926.0,-291.0
15.0,-242.0,-115.0,-130.0,-69.0,-2.0,-18.0,-924.0,-285.0
18.0,-241.0,-110.0,-134.0,-74.0,-2.0,-23.0,-920.0,-284.0
14.0,-236.0,-116.0,-139.0,-80.0,-2.0,-25.0,-912.0,-289.0
13.0,-241.0,-115.0,-144.0,-87.0,-4.0,-26.0,-918.0,-289.0
14.0,-242.0,-115.0,-150.0,-94.0,-4.0,-28.0,-917.0,-291.0
12.0,-242.0,-117.0,-154.0,-101.0,-5.0,-31.0,-919.0,-290.0
12.0,-242.0,-113.0,-159.0,-108.0,-8.0,-31.0,-923.0,-295.0
12.0,-244.0,-114.0,-167.0,-117.0,-10.0,-37.0,-928.0,-297.0
12.0,-245.0,-114.0,-172.0,-125.0,-12.0,-42.0,-930.0,-285.0
11.0,-248.0,-113.0,-179.0,-132.0,-12.0,-40.0,-938.0,-288.0
8.0,-246.0,-107.0,-184.0,-141.0,-11.0,-45.0,-933.0,-290.0
8.0,-247.0,-113.0,-183.0,-149.0,-13.0,-44.0,-943.0,-288.0
5.0,-246.0,-113.0,-179.0,-153.0,-13.0,-42.0,-936.0,-282.0
7.0,-241.0,-114.0,-174.0,-160.0,-12.0,-43.0,-933.0,-288.0
9.0,-244.0,-109.0,-172.0,-166.0,-12.0,-42.0,-931.0,-282.0
13.0,-241.0,-112.0,-167.0,-170.0,-11.0,-33.0,-931.0,-276.0
11.0,-243.0,-110.0,-165.0,-174.0,-13.0,-39.0,-925.0,-280.0
8.0,-244.0,-111.0,-162.0,-178.0,-14.0,-43.0,-923.0,-275.0
10.0,-243.0,-109.0,-161.0,-183.0,-15.0,-37.0,-919.0,-274.0
11.0,-245.0,-109.0,-160.0,-187.0,-17.0,-47.0,-919.0,-277.0
7.0,-242.0,-113.0,-161.0,-190.0,-18.0,-49.0,-921.0,-281.0
7.0,-242.0,-109.0,-160.0,-191.0,-18.0,-52.0,-919.0,-282.0
3.0,-244.0,-116.0,-159.0,-189.0,-20.0,-62.0,-926.0,-288.0
3.0,-246.0,-111.0,-157.0,-188.0,-23.0,-66.0,-929.0,-288.0
2.0,-242.0,-111.0,-158.0,-187.0,-23.0,-67.0,-933.0,-291.0
2.0,-247.0,-115.0,-161.0,-187.0,-23.0,-78.0,-939.0,-297.0
0.0,-256.0,-115.0,-170.0,-185.0,-22.0,-83.0,-947.0,-300.0
1.0,-256.0,-117.0,-179.0,-185.0,-21.0,-93.0,-960.0,-297.0
1.0,-260.0,-111.0,-187.0,-184.0,-18.0,-100.0,-971.0,-300.0
-5.0,-257.0,-118.0,-194.0,-182.0,-16.0,-106.0,-984.0,-299.0
-3.0,-259.0,-114.0,-200.0,-181.0,-12.0,-108.0,-986.0,-296.0
-6.0,-259.0,-112.0,-200.0,-177.0,-8.0,-108.0,-997.0,-290.0
-9.0,-262.0,-107.0,-201.0,-170.0,-4.0,-119.0,-1002.0,-279.0
-9.0,-262.0,-103.0,-199.0,-163.0,1.0,-119.0,-1001.0,-271.0
-10.0,-260.0,-107.0,-195.0,-155.0,6.0,-120.0,-998.0,-268.0
-11.0,-261.0,-105.0,-191.0,-145.0,12.0,-118.0,-1001.0,-260.0
-8.0,-264.0,-100.0,-185.0,-132.0,18.0,-121.0,-998.0,-251.0
-12.0,-264.0,-105.0,-177.0,-122.0,25.0,-125.0,-1003.0,-249.0
-9.0,-265.0,-103.0,-169.0,-109.0,35.0,-123.0,-1004.0,-243.0
-6.0,-263.0,-102.0,-161.0,-94.0,42.0,-125.0,-1013.0,-246.0
-12.0,-266.0,-99.0,-150.0,-81.0,51.0,-124.0,-1014.0,-244.0
-10.0,-269.0,-101.0,-138.0,-69.0,60.0,-126.0,-1021.0,-240.0
-10.0,-271.0,-102.0,-125.0,-59.0,68.0,-125.0,-1033.0,-236.0
-9.0,-272.0,-105.0,-115.0,-45.0,78.0,-131.0,-1039.0,-237.0
-7.0,-275.0,-102.0,-108.0,-33.0,87.0,-133.0,-1039.0,-240.0
-10.0,-280.0,-100.0,-103.0,-21.0,97.0,-132.0,-1056.0,-253.0
-15.0,-274.0,-101.0,-103.0,-10.0,106.0,-140.0,-1056.0,-249.0
-11.0,-278.0,-102.0,-107.0,-4.0,115.0,-143.0,-1062.0,-254.0
-17.0,-280.0,-106.0,-114.0,0.0,123.0,-143.0,-1067.0,-258.0
-17.0,-280.0,-100.0,-117.0,-1.0,130.0,-145.0,-1075.0,-252.0
-16.0,-283.0,-105.0,-114.0,-4.0,137.0,-146.0,-1079.0,-254.0
-17.0,-284.0,-102.0,-113.0,-11.0,142.0,-145.0,-1080.0,-249.0
-17.0,-285.0,-103.0,-104.0,-19.0,145.0,-146.0,-1078.0,-247.0
-16.0,-280.0,-104.0,-95.0,-28.0,146.0,-143.0,-1082.0,-254.0
-13.0,-282.0,-103.0,-83.0,-35.0,149.0,-145.0,-1076.0,-253.0
-15.0,-277.0,-104.0,-66.0,-42.0,150.0,-150.0,-1071.0,-255.0
-14.0,-275.0,-102.0,-49.0,-47.0,154.0,-145.0,-1059.0,-263.0
-15.0,-273.0,-108.0,-32.0,-51.0,157.0,-141.0,-1037.0,-261.0
-15.0,-269.0,-109.0,-16.0,-54.0,162.0,-142.0,-1015.0,-264.0
-10.0,-262.0,-106.0,-4.0,-53.0,168.0,-126.0,-1004.0,-263.0
-8.0,-267.0,-113.0,4.0,-53.0,173.0,-128.0,-992.0,-270.0
-10.0,-257.0,-108.0,7.0,-53.0,179.0,-117.0,-984.0,-273.0
-1.0,-256.0,-108.0,8.0,-50.0,187.0,-109.0,-972.0,-273.0
-2.0,-255.0,-110.0,2.0,-46.0,191.0,-105.0,-961.0,-268.0
0.0,-252.0,-111.0,-4.0,-44.0,194.0,-97.0,-959.0,-272.0
0.0,-249.0,-107.0,-12.0,-41.0,197.0,-99.0,-944.0,-272.0
0.0,-244.0,-110.0,-15.0,-43.0,199.0,-94.0,-938.0,-268.0
2.0,-244.0,-108.0,-19.0,-45.0,203.0,-89.0,-931.0,-267.0
1.0,-242.0,-108.0,-22.0,-48.0,205.0,-90.0,-919.0,-265.0
-4.0,-238.0,-108.0,-27.0,-48.0,207.0,-86.0,-912.0,-269.0
-1.0,-238.0,-104.0,-32.0,-47.0,208.0,-85.0,-906.0,-264.0
5.0,-233.0,-107.0,-35.0,-45.0,209.0,-91.0,-891.0,-259.0
0.0,-235.0,-106.0,-40.0,-44.0,208.0,-105.0,-888.0,-259.0
-3.0,-237.0,-104.0,-45.0,-43.0,207.0,-102.0,-888.0,-257.0
-6.0,-233.0,-105.0,-49.0,-44.0,205.0,-107.0,-885.0,-262.0
-2.0,-236.0,-107.0,-55.0,-45.0,202.0,-107.0,-875.0,-265.0
-6.0,-235.0,-104.0,-59.0,-44.0,198.0,-117.0,-894.0,-262.0
-6.0,-236.0,-104.0,-65.0,-45.0,197.0,-122.0,-900.0,-256.0
-9.0,-236.0,-108.0,-68.0,-44.0,195.0,-129.0,-897.0,-254.0
-10.0,-241.0,-103.0,-70.0,-41.0,192.0,-133.0,-921.0,-247.0
-10.0,-247.0,-103.0,-67.0,-38.0,191.0,-130.0,-923.0,-246.0
-11.0,-248.0,-103.0,-65.0,-32.0,192.0,-136.0,-932.0,-240.0
-12.0,-251.0,-104.0,-63.0,-23.0,192.0,-137.0,-942.0,-235.0
-13.0,-251.0,-101.0,-55.0,-14.0,192.0,-137.0,-949.0,-236.0
-12.0,-252.0,-99.0,-48.0,-5.0,195.0,-135.0,-951.0,-226.0
-12.0,-251.0,-95.0,-35.0,7.0,199.0,-134.0,-961.0,-223.0
-12.0,-256.0,-98.0,-21.0,22.0,202.0,-134.0,-971.0,-219.0
-14.0,-256.0,-94.0,-6.0,37.0,205.0,-133.0,-980.0,-213.0
-14.0,-258.0,-96.0,14.0,53.0,207.0,-129.0,-986.0,-212.0
-10.0,-261.0,-91.0,37.0,67.0,209.0,-132.0,-996.0,-203.0
-8.0,-262.0,-89.0,58.0,83.0,210.0,-129.0,-1009.0,-198.0
-9.0,-267.0,-88.0,81.0,97.0,211.0,-124.0,-1018.0,-198.0
-8.0,-268.0,-88.0,107.0,109.0,211.0,-126.0,-1020.0,-194.0
-10.0,-273.0,-97.0,132.0,118.0,212.0,-128.0,-1031.0,-198.0
-8.0,-273.0,-87.0,153.0,121.0,211.0,-130.0,-1041.0,-196.0
-10.0,-274.0,-86.0,173.0,123.0,210.0,-127.0,-1038.0,-187.0
-11.0,-271.0,-88.0,185.0,122.0,207.0,-127.0,-1036.0,-189.0
-11.0,-270.0,-86.0,194.0,120.0,202.0,-127.0,-1031.0,-190.0
-10.0,-270.0,-86.0,200.0,116.0,196.0,-131.0,-1035.0,-183.0
-11.0,-272.0,-84.0,204.0,112.0,189.0,-132.0,-1040.0,-179.0
-15.0,-273.0,-86.0,207.0,105.0,180.0,-138.0,-1040.0,-174.0
-13.0,-272.0,-83.0,211.0,97.0,170.0,-143.0,-1040.0,-173.0
-18.0,-270.0,-81.0,217.0,89.0,160.0,-143.0,-1033.0,-169.0
-13.0,-271.0,-79.0,219.0,81.0,150.0,-139.0,-1027.0,-169.0
-14.0,-269.0,-82.0,218.0,73.0,139.0,-140.0,-1031.0,-167.0
-16.0,-264.0,-80.0,215.0,68.0,128.0,-140.0,-1019.0,-161.0
-14.0,-265.0,-85.0,211.0,62.0,119.0,-138.0,-1017.0,-153.0
-15.0,-265.0,-77.0,205.0,55.0,114.0,-143.0,-1002.0,-152.0
-14.0,-261.0,-78.0,198.0,50.0,110.0,-145.0,-995.0,-160.0
-15.0,-259.0,-77.0,190.0,47.0,109.0,-146.0,-989.0,-150.0
-16.0,-254.0,-75.0,181.0,45.0,108.0,-139.0,-972.0,-140.0
-12.0,-255.0,-74.0,169.0,40.0,107.0,-140.0,-971.0,-147.0
-12.0,-253.0,-75.0,159.0,35.0,108.0,-141.0,-963.0,-144.0
-15.0,-250.0,-73.0,152.0,30.0,106.0,-140.0,-956.0,-142.0
-22.0,-248.0,-73.0,147.0,23.0,108.0,-149.0,-949.0,-149.0
-13.0,-249.0,-77.0,141.0,22.0,108.0,-151.0,-940.0,-139.0
-15.0,-244.0,-78.0,134.0,20.0,104.0,-150.0,-937.0,-146.0
-17.0,-244.0,-79.0,125.0,21.0,101.0,-147.0,-926.0,-149.0
-16.0,-242.0,-77.0,117.0,24.0,94.0,-147.0,-921.0,-141.0
-16.0,-238.0,-86.0,102.0,27.0,86.0,-147.0,-917.0,-146.0
-15.0,-240.0,-77.0,86.0,29.0,78.0,-143.0,-912.0,-151.0
-15.0,-235.0,-79.0,67.0,32.0,69.0,-141.0,-906.0,-147.0
-17.0,-232.0,-79.0,48.0,36.0,61.0,-142.0,-889.0,-150.0
-11.0,-234.0,-79.0,31.0,43.0,50.0,-135.0,-888.0,-149.0
-12.0,-237.0,-79.0,12.0,50.0,40.0,-134.0,-885.0,-140.0
-11.0,-232.0,-74.0,-5.0,57.0,29.0,-132.0,-891.0,-141.0
-8.0,-235.0,-79.0,-18.0,67.0,19.0,-133.0,-887.0,-139.0
-11.0,-237.0,-75.0,-27.0,78.0,9.0,-132.0,-887.0,-138.0
-13.0,-235.0,-75.0,-32.0,89.0,0.0,-137.0,-900.0,-135.0
-11.0,-240.0,-75.0,-31.0,101.0,-9.0,-136.0,-909.0,-140.0
-12.0,-243.0,-77.0,-26.0,110.0,-17.0,-140.0,-915.0,-142.0
-15.0,-245.0,-74.0,-15.0,120.0,-24.0,-147.0,-923.0,-149.0
-14.0,-247.0,-79.0,-5.0,124.0,-29.0,-146.0,-933.0,-150.0
-19.0,-245.0,-81.0,6.0,129.0,-34.0,-152.0,-939.0,-159.0
-17.0,-251.0,-81.0,12.0,131.0,-40.0,-160.0,-948.0,-168.0
-19.0,-250.0,-82.0,16.0,133.0,-44.0,-168.0,-946.0,-171.0
-20.0,-253.0,-89.0,14.0,136.0,-49.0,-175.0,-952.0,-179.0
-23.0,-252.0,-90.0,11.0,137.0,-52.0,-179.0,-959.0,-188.0
-26.0,-250.0,-88.0,5.0,138.0,-54.0,-184.0,-963.0,-190.0
-24.0,-257.0,-91.0,-5.0,140.0,-56.0,-183.0,-964.0,-193.0
-26.0,-256.0,-89.0,-16.0,144.0,-56.0,-189.0,-972.0,-199.0
-25.0,-256.0,-89.0,-31.0,147.0,-58.0,-189.0,-973.0,-200.0
-27.0,-258.0,-88.0,-47.0,152.0,-58.0,-188.0,-978.0,-199.0
-26.0,-258.0,-86.0,-62.0,156.0,-60.0,-190.0,-984.0,-202.0
-29.0,-261.0,-88.0,-74.0,158.0,-61.0,-192.0,-994.0,-198.0
-28.0,-263.0,-88.0,-88.0,160.0,-60.0,-190.0,-992.0,-196.0
-27.0,-262.0,-88.0,-99.0,162.0,-60.0,-189.0,-998.0,-194.0
-31.0,-261.0,-95.0,-108.0,164.0,-62.0,-195.0,-997.0,-196.0
-28.0,-260.0,-86.0,-117.0,169.0,-63.0,-198.0,-995.0,-194.0
-29.0,-260.0,-89.0,-122.0,175.0,-62.0,-199.0,-993.0,-195.0
-28.0,-258.0,-87.0,-129.0,180.0,-59.0,-192.0,-985.0,-192.0
-32.0,-256.0,-90.0,-135.0,185.0,-57.0,-197.0,-977.0,-188.0
-31.0,-254.0,-84.0,-144.0,190.0,-53.0,-198.0,-967.0,-185.0
-30.0,-249.0,-84.0,-151.0,193.0,-47.0,-197.0,-954.0,-183.0
-29.0,-249.0,-89.0,-156.0,196.0,-42.0,-195.0,-945.0,-177.0
-28.0,-246.0,-88.0,-160.0,197.0,-35.0,-195.0,-939.0,-177.0
-30.0,-243.0,-85.0,-165.0,192.0,-29.0,-191.0,-924.0,-178.0
-28.0,-238.0,-87.0,-166.0,186.0,-22.0,-194.0,-916.0,-178.0
-31.0,-236.0,-87.0,-167.0,178.0,-16.0,-196.0,-898.0,-185.0
-27.0,-232.0,-85.0,-165.0,171.0,-9.0,-193.0,-889.0,-186.0
-31.0,-232.0,-95.0,-170.0,161.0,-3.0,-192.0,-882.0,-192.0
-29.0,-229.0,-92.0,-181.0,151.0,-1.0,-201.0,-877.0,-199.0
-31.0,-225.0,-90.0,-200.0,142.0,0.0,-200.0,-865.0,-203.0
-30.0,-225.0,-90.0,-226.0,138.0,-1.0,-204.0,-850.0,-204.0
-33.0,-221.0,-91.0,-260.0,134.0,-6.0,-209.0,-847.0,-206.0
-34.0,-223.0,-95.0,-295.0,134.0,-9.0,-211.0,-837.0,-202.0
-36.0,-217.0,-95.0,-327.0,136.0,-14.0,-219.0,-833.0,-210.0
-37.0,-218.0,-95.0,-356.0,140.0,-17.0,-214.0,-837.0,-209.0
-38.0,-224.0,-96.0,-375.0,146.0,-21.0,-218.0,-836.0,-215.0
-39.0,-226.0,-95.0,-381.0,154.0,-22.0,-222.0,-853.0,-213.0
-36.0,-235.0,-100.0,-378.0,167.0,-20.0,-228.0,-873.0,-214.0
-42.0,-237.0,-96.0,-368.0,182.0,-16.0,-235.0,-906.0,-219.0
-44.0,-244.0,-99.0,-351.0,197.0,-10.0,-244.0,-933.0,-221.0
-41.0,-256.0,-102.0,-336.0,214.0,-5.0,-254.0,-953.0,-230.0
-44.0,-264.0,-97.0,-322.0,231.0,2.0,-257.0,-994.0,-231.0
-42.0,-274.0,-97.0,-309.0,250.0,9.0,-251.0,-1021.0,-230.0
-40.0,-276.0,-97.0,-296.0,270.0,15.0,-255.0,-1061.0,-236.0
-38.0,-286.0,-99.0,-282.0,293.0,23.0,-235.0,-1090.0,-235.0
-37.0,-295.0,-101.0,-265.0,316.0,29.0,-220.0,-1121.0,-236.0
-31.0,-297.0,-100.0,-250.0,340.0,35.0,-209.0,-1138.0,-239.0
-29.0,-306.0,-97.0,-233.0,359.0,43.0,-189.0,-1169.0,-235.0
-23.0,-310.0,-100.0,-215.0,379.0,52.0,-174.0,-1177.0,-235.0
-16.0,-318.0,-101.0,-192.0,400.0,62.0,-165.0,-1195.0,-244.0
-15.0,-316.0,-99.0,-163.0,420.0,74.0,-149.0,-1208.0,-244.0
-11.0,-320.0,-99.0,-125.0,440.0,86.0,-138.0,-1218.0,-250.0
-10.0,-322.0,-102.0,-77.0,459.0,100.0,-121.0,-1218.0,-250.0
-5.0,-323.0,-110.0,-25.0,477.0,109.0,-116.0,-1226.0,-262.0
-7.0,-321.0,-108.0,27.0,489.0,116.0,-107.0,-1227.0,-272.0
-6.0,-320.0,-112.0,71.0,498.0,114.0,-115.0,-1215.0,-292.0
-8.0,-317.0,-120.0,94.0,503.0,99.0,-135.0,-1198.0,-321.0
-21.0,-306.0,-120.0,94.0,498.0,76.0,-156.0,-1181.0,-339.0
-28.0,-301.0,-130.0,70.0,482.0,50.0,-191.0,-1159.0,-365.0
-36.0,-296.0,-134.0,26.0,452.0,21.0,-223.0,-1135.0,-380.0
-43.0,-287.0,-137.0,-40.0,410.0,-11.0,-251.0,-1116.0,-400.0
-52.0,-284.0,-144.0,-127.0,356.0,-44.0,-275.0,-1095.0,-419.0
-57.0,-283.0,-140.0,-229.0,303.0,-76.0,-301.0,-1084.0,-421.0
-67.0,-281.0,-142.0,-342.0,249.0,-102.0,-331.0,-1086.0,-416.0
-76.0,-286.0,-141.0,-453.0,199.0,-121.0,-369.0,-1101.0,-396.0
-84.0,-293.0,-136.0,-552.0,152.0,-130.0,-403.0,-1122.0,-379.0
-88.0,-299.0,-127.0,-635.0,112.0,-131.0,-422.0,-1142.0,-354.0
-95.0,-309.0,-123.0,-694.0,78.0,-123.0,-441.0,-1173.0,-327.0
-92.0,-317.0,-113.0,-722.0,51.0,-109.0,-445.0,-1200.0,-304.0
-92.0,-325.0,-109.0,-716.0,30.0,-88.0,-442.0,-1230.0,-282.0
-90.0,-330.0,-103.0,-679.0,18.0,-65.0,-430.0,-1266.0,-265.0
-83.0,-337.0,-105.0,-621.0,12.0,-43.0,-411.0,-1288.0,-258.0
-77.0,-339.0,-102.0,-547.0,15.0,-27.0,-390.0,-1294.0,-265.0
-65.0,-339.0,-108.0,-469.0,22.0,-16.0,-356.0,-1296.0,-269.0
-59.0,-336.0,-109.0,-395.0,34.0,-10.0,-317.0,-1283.0,-290.0
-48.0,-329.0,-116.0,-331.0,47.0,-12.0,-278.0,-1249.0,-308.0
-36.0,-315.0,-126.0,-286.0,60.0,-20.0,-229.0,-1206.0,-333.0
-24.0,-306.0,-130.0,-262.0,72.0,-34.0,-198.0,-1170.0,-368.0
-18.0,-295.0,-137.0,-262.0,83.0,-55.0,-152.0,-1114.0,-397.0
-8.0,-278.0,-147.0,-281.0,92.0,-80.0,-119.0,-1072.0,-423.0
3.0,-266.0,-152.0,-314.0,99.0,-108.0,-65.0,-1017.0,-448.0
8.0,-256.0,-157.0,-358.0,106.0,-139.0,-42.0,-973.0,-467.0
15.0,-247.0,-163.0,-407.0,112.0,-169.0,-24.0,-933.0,-488.0
20.0,-236.0,-166.0,-464.0,118.0,-203.0,-12.0,-888.0,-498.0
21.0,-231.0,-171.0,-520.0,121.0,-237.0,-3.0,-864.0,-512.0
23.0,-222.0,-169.0,-568.0,123.0,-270.0,13.0,-844.0,-515.0
29.0,-223.0,-167.0,-606.0,124.0,-297.0,25.0,-833.0,-520.0
30.0,-219.0,-172.0,-637.0,124.0,-319.0,31.0,-829.0,-518.0
31.0,-219.0,-167.0,-662.0,126.0,-333.0,35.0,-826.0,-517.0
24.0,-222.0,-166.0,-685.0,131.0,-340.0,28.0,-826.0,-510.0
28.0,-220.0,-172.0,-703.0,138.0,-342.0,21.0,-834.0,-514.0
22.0,-223.0,-169.0,-716.0,146.0,-337.0,2.0,-845.0,-518.0
18.0,-228.0,-173.0,-722.0,149.0,-329.0,-16.0,-857.0,-521.0
15.0,-232.0,-167.0,-717.0,150.0,-321.0,-32.0,-878.0,-521.0
12.0,-238.0,-172.0,-698.0,142.0,-313.0,-40.0,-889.0,-520.0
12.0,-246.0,-170.0,-667.0,129.0,-303.0,-45.0,-919.0,-530.0
12.0,-252.0,-178.0,-626.0,112.0,-297.0,-43.0,-942.0,-531.0
9.0,-255.0,-174.0,-582.0,91.0,-290.0,-41.0,-962.0,-528.0
13.0,-263.0,-170.0,-540.0,70.0,-285.0,-33.0,-978.0,-531.0
14.0,-261.0,-172.0,-503.0,49.0,-284.0,-32.0,-989.0,-530.0
19.0,-264.0,-173.0,-476.0,32.0,-284.0,-27.0,-998.0,-519.0
18.0,-265.0,-172.0,-453.0,21.0,-284.0,-14.0,-1000.0,-516.0
20.0,-263.0,-165.0,-433.0,18.0,-284.0,-7.0,-996.0,-515.0
22.0,-260.0,-166.0,-414.0,19.0,-282.0,-4.0,-983.0,-504.0
20.0,-257.0,-165.0,-397.0,28.0,-275.0,2.0,-971.0,-502.0
25.0,-251.0,-164.0,-379.0,42.0,-264.0,5.0,-951.0,-500.0
24.0,-250.0,-166.0,-360.0,58.0,-252.0,2.0,-938.0,-502.0
24.0,-246.0,-167.0,-332.0,78.0,-241.0,4.0,-922.0,-506.0
23.0,-244.0,-166.0,-296.0,99.0,-229.0,1.0,-902.0,-508.0
23.0,-238.0,-169.0,-252.0,115.0,-218.0,1.0,-886.0,-509.0
25.0,-234.0,-170.0,-205.0,128.0,-210.0,1.0,-876.0,-526.0
23.0,-234.0,-160.0,-162.0,136.0,-201.0,6.0,-863.0,-536.0
24.0,-230.0,-177.0,-131.0,138.0,-196.0,11.0,-856.0,-539.0
25.0,-230.0,-171.0,-110.0,135.0,-194.0,12.0,-855.0,-542.0
23.0,-224.0,-176.0,-97.0,129.0,-196.0,11.0,-847.0,-545.0
24.0,-228.0,-173.0,-92.0,114.0,-201.0,8.0,-855.0,-542.0
23.0,-232.0,-174.0,-90.0,95.0,-211.0,0.0,-864.0,-540.0
20.0,-232.0,-169.0,-90.0,71.0,-222.0,-4.0,-878.0,-516.0
22.0,-232.0,-170.0,-87.0,47.0,-235.0,-6.0,-892.0,-508.0
18.0,-241.0,-168.0,-88.0,24.0,-249.0,-8.0,-898.0,-500.0
18.0,-239.0,-160.0,-90.0,6.0,-264.0,-12.0,-902.0,-495.0
21.0,-242.0,-160.0,-91.0,-7.0,-278.0,-9.0,-916.0,-485.0
15.0,-243.0,-164.0,-88.0,-18.0,-293.0,-13.0,-918.0,-479.0
17.0,-239.0,-157.0,-76.0,-25.0,-301.0,-14.0,-915.0,-477.0
16.0,-238.0,-160.0,-59.0,-30.0,-305.0,-17.0,-913.0,-474.0
20.0,-237.0,-155.0,-39.0,-33.0,-307.0,-18.0,-899.0,-475.0
17.0,-234.0,-158.0,-14.0,-37.0,-305.0,-15.0,-884.0,-465.0
22.0,-231.0,-158.0,12.0,-40.0,-298.0,-3.0,-868.0,-463.0
25.0,-227.0,-156.0,40.0,-43.0,-288.0,5.0,-852.0,-465.0
24.0,-225.0,-156.0,66.0,-40.0,-276.0,15.0,-840.0,-472.0
30.0,-223.0,-158.0,90.0,-34.0,-263.0,30.0,-827.0,-476.0
39.0,-219.0,-158.0,110.0,-20.0,-251.0,47.0,-817.0,-476.0
38.0,-213.0,-154.0,126.0,0.0,-240.0,56.0,-805.0,-477.0
39.0,-211.0,-164.0,136.0,24.0,-231.0,64.0,-799.0,-479.0
47.0,-209.0,-158.0,141.0,49.0,-223.0,86.0,-799.0,-474.0
50.0,-212.0,-158.0,143.0,76.0,-214.0,92.0,-798.0,-477.0
52.0,-212.0,-158.0,142.0,104.0,-209.0,103.0,-798.0,-473.0
53.0,-213.0,-161.0,149.0,128.0,-207.0,110.0,-802.0,-472.0
53.0,-215.0,-159.0,156.0,147.0,-209.0,124.0,-805.0,-469.0
56.0,-218.0,-159.0,169.0,160.0,-213.0,130.0,-816.0,-473.0
59.0,-221.0,-161.0,183.0,170.0,-217.0,128.0,-823.0,-471.0
56.0,-221.0,-159.0,194.0,173.0,-223.0,129.0,-833.0,-469.0
53.0,-226.0,-157.0,204.0,173.0,-235.0,134.0,-848.0,-462.0
55.0,-228.0,-154.0,211.0,173.0,-248.0,133.0,-861.0,-462.0
56.0,-243.0,-150.0,218.0,172.0,-262.0,128.0,-879.0,-452.0
56.0,-236.0,-148.0,228.0,169.0,-277.0,127.0,-891.0,-449.0
55.0,-241.0,-148.0,241.0,166.0,-294.0,125.0,-913.0,-430.0
54.0,-241.0,-143.0,257.0,163.0,-312.0,120.0,-903.0,-422.0
50.0,-241.0,-142.0,278.0,161.0,-330.0,118.0,-915.0,-411.0
50.0,-241.0,-138.0,303.0,159.0,-349.0,110.0,-914.0,-400.0
49.0,-236.0,-139.0,330.0,158.0,-364.0,111.0,-908.0,-394.0
50.0,-235.0,-133.0,352.0,156.0,-378.0,103.0,-887.0,-385.0
50.0,-229.0,-133.0,371.0,154.0,-389.0,103.0,-875.0,-386.0
50.0,-229.0,-136.0,390.0,152.0,-396.0,110.0,-863.0,-379.0
55.0,-218.0,-133.0,402.0,149.0,-404.0,113.0,-852.0,-377.0
48.0,-226.0,-132.0,412.0,146.0,-412.0,104.0,-850.0,-373.0
51.0,-226.0,-133.0,419.0,142.0,-417.0,111.0,-842.0,-369.0
50.0,-223.0,-130.0,427.0,140.0,-425.0,107.0,-847.0,-369.0
49.0,-223.0,-130.0,433.0,139.0,-433.0,106.0,-847.0,-361.0
48.0,-225.0,-130.0,445.0,140.0,-442.0,98.0,-850.0,-356.0
47.0,-224.0,-131.0,462.0,143.0,-453.0,96.0,-846.0,-357.0
45.0,-224.0,-128.0,479.0,149.0,-462.0,84.0,-847.0,-349.0
43.0,-226.0,-131.0,495.0,154.0,-471.0,79.0,-846.0,-351.0
39.0,-226.0,-128.0,514.0,159.0,-480.0,76.0,-857.0,-356.0
40.0,-231.0,-132.0,537.0,156.0,-488.0,72.0,-853.0,-358.0
38.0,-230.0,-130.0,562.0,147.0,-497.0,59.0,-862.0,-371.0
35.0,-232.0,-132.0,591.0,137.0,-502.0,50.0,-865.0,-376.0
35.0,-232.0,-134.0,621.0,120.0,-507.0,48.0,-869.0,-378.0
30.0,-231.0,-135.0,652.0,99.0,-514.0,40.0,-867.0,-384.0
30.0,-229.0,-137.0,675.0,78.0,-516.0,38.0,-862.0,-384.0
31.0,-228.0,-137.0,688.0,59.0,-517.0,34.0,-852.0,-387.0
30.0,-222.0,-137.0,689.0,48.0,-512.0,26.0,-846.0,-388.0
29.0,-219.0,-136.0,681.0,45.0,-504.0,34.0,-838.0,-385.0
32.0,-218.0,-135.0,665.0,44.0,-491.0,38.0,-830.0,-383.0
35.0,-217.0,-135.0,648.0,44.0,-474.0,47.0,-821.0,-381.0
32.0,-211.0,-136.0,632.0,46.0,-455.0,45.0,-807.0,-380.0
38.0,-212.0,-130.0,617.0,52.0,-430.0,55.0,-795.0,-376.0
38.0,-207.0,-135.0,602.0,63.0,-405.0,58.0,-788.0,-379.0
40.0,-203.0,-131.0,589.0,78.0,-379.0,57.0,-769.0,-369.0
40.0,-202.0,-132.0,576.0,96.0,-356.0,73.0,-767.0,-374.0
35.0,-200.0,-133.0,557.0,112.0,-335.0,65.0,-760.0,-367.0
41.0,-200.0,-130.0,535.0,127.0,-312.0,50.0,-754.0,-362.0
38.0,-195.0,-131.0,512.0,141.0,-288.0,65.0,-753.0,-355.0
41.0,-200.0,-128.0,483.0,154.0,-265.0,60.0,-760.0,-347.0
36.0,-202.0,-131.0,450.0,169.0,-240.0,67.0,-758.0,-343.0
43.0,-204.0,-125.0,413.0,184.0,-213.0,64.0,-764.0,-337.0
39.0,-200.0,-126.0,371.0,198.0,-189.0,63.0,-768.0,-328.0
45.0,-198.0,-112.0,329.0,214.0,-162.0,79.0,-769.0,-322.0
43.0,-202.0,-120.0,292.0,226.0,-138.0,75.0,-766.0,-311.0
43.0,-200.0,-117.0,258.0,236.0,-112.0,71.0,-762.0,-303.0
42.0,-201.0,-114.0,228.0,247.0,-87.0,77.0,-766.0,-298.0
47.0,-197.0,-113.0,199.0,256.0,-64.0,88.0,-759.0,-283.0
48.0,-199.0,-109.0,170.0,263.0,-46.0,98.0,-757.0,-282.0
47.0,-199.0,-107.0,140.0,270.0,-33.0,103.0,-756.0,-269.0
52.0,-201.0,-108.0,109.0,273.0,-24.0,107.0,-760.0,-265.0
49.0,-202.0,-109.0,81.0,275.0,-17.0,121.0,-765.0,-252.0
52.0,-203.0,-102.0,51.0,276.0,-14.0,123.0,-770.0,-246.0
57.0,-204.0,-95.0,25.0,276.0,-11.0,132.0,-779.0,-231.0
54.0,-204.0,-90.0,4.0,276.0,-5.0,142.0,-778.0,-220.0
62.0,-208.0,-94.0,-17.0,276.0,2.0,153.0,-787.0,-207.0
64.0,-208.0,-92.0,-39.0,276.0,11.0,161.0,-780.0,-190.0
64.0,-209.0,-87.0,-54.0,279.0,23.0,170.0,-789.0,-178.0
64.0,-205.0,-80.0,-66.0,284.0,32.0,181.0,-789.0,-169.0
68.0,-210.0,-78.0,-77.0,287.0,39.0,184.0,-790.0,-153.0
70.0,-212.0,-80.0,-76.0,293.0,44.0,187.0,-798.0,-148.0
70.0,-216.0,-74.0,-71.0,298.0,43.0,187.0,-805.0,-139.0
67.0,-217.0,-72.0,-54.0,299.0,42.0,190.0,-807.0,-137.0
70.0,-217.0,-71.0,-40.0,296.0,43.0,185.0,-817.0,-133.0
65.0,-216.0,-75.0,-24.0,288.0,40.0,178.0,-826.0,-134.0
66.0,-232.0,-77.0,-13.0,277.0,39.0,177.0,-839.0,-148.0
61.0,-225.0,-77.0,-5.0,260.0,38.0,164.0,-853.0,-151.0
62.0,-232.0,-78.0,-1.0,247.0,37.0,158.0,-871.0,-163.0
62.0,-237.0,-80.0,-2.0,235.0,35.0,149.0,-887.0,-173.0
56.0,-241.0,-89.0,-6.0,227.0,36.0,141.0,-916.0,-189.0
55.0,-247.0,-90.0,-17.0,223.0,37.0,127.0,-933.0,-200.0
52.0,-250.0,-91.0,-32.0,221.0,40.0,109.0,-959.0,-201.0
47.0,-254.0,-90.0,-51.0,216.0,45.0,109.0,-982.0,-203.0
44.0,-263.0,-92.0,-66.0,208.0,51.0,100.0,-1007.0,-210.0
48.0,-267.0,-92.0,-79.0,198.0,60.0,95.0,-1026.0,-205.0
48.0,-276.0,-91.0,-89.0,186.0,70.0,99.0,-1062.0,-200.0
41.0,-284.0,-98.0,-93.0,175.0,75.0,90.0,-1080.0,-199.0
47.0,-290.0,-91.0,-91.0,163.0,78.0,92.0,-1108.0,-199.0
44.0,-296.0,-90.0,-87.0,153.0,79.0,81.0,-1121.0,-199.0
41.0,-297.0,-91.0,-86.0,140.0,79.0,90.0,-1149.0,-196.0
44.0,-306.0,-87.0,-83.0,126.0,74.0,90.0,-1163.0,-200.0
44.0,-312.0,-90.0,-83.0,111.0,67.0,88.0,-1185.0,-204.0
42.0,-316.0,-91.0,-85.0,90.0,57.0,81.0,-1200.0,-209.0
39.0,-322.0,-96.0,-92.0,70.0,46.0,71.0,-1211.0,-228.0
36.0,-320.0,-108.0,-110.0,49.0,37.0,59.0,-1219.0,-266.0
34.0,-320.0,-119.0,-144.0,30.0,35.0,59.0,-1220.0,-307.0
34.0,-317.0,-131.0,-193.0,12.0,43.0,56.0,-1208.0,-343.0
43.0,-317.0,-133.0,-254.0,-4.0,59.0,60.0,-1203.0,-382.0
38.0,-310.0,-142.0,-334.0,-12.0,81.0,67.0,-1194.0,-414.0
45.0,-310.0,-149.0,-429.0,-13.0,106.0,97.0,-1186.0,-439.0
59.0,-311.0,-155.0,-524.0,-17.0,128.0,140.0,-1194.0,-447.0
73.0,-318.0,-151.0,-605.0,-22.0,142.0,193.0,-1213.0,-452.0
90.0,-326.0,-148.0,-662.0,-28.0,143.0,263.0,-1239.0,-446.0
104.0,-335.0,-146.0,-698.0,-21.0,125.0,320.0,-1279.0,-437.0
121.0,-350.0,-139.0,-700.0,-11.0,85.0,377.0,-1338.0,-421.0
133.0,-372.0,-142.0,-655.0,-3.0,25.0,425.0,-1402.0,-412.0
142.0,-393.0,-142.0,-562.0,-2.0,-45.0,442.0,-1478.0,-414.0
132.0,-407.0,-150.0,-422.0,1.0,-113.0,431.0,-1532.0,-437.0
123.0,-415.0,-156.0,-258.0,16.0,-167.0,372.0,-1557.0,-471.0
91.0,-411.0,-170.0,-100.0,51.0,-187.0,268.0,-1543.0,-518.0
61.0,-399.0,-186.0,22.0,95.0,-163.0,139.0,-1515.0,-575.0
24.0,-385.0,-194.0,77.0,138.0,-101.0,16.0,-1471.0,-618.0
-2.0,-368.0,-203.0,56.0,165.0,-11.0,-96.0,-1420.0,-662.0
-31.0,-349.0,-206.0,-39.0,174.0,95.0,-191.0,-1364.0,-676.0
-51.0,-332.0,-202.0,-182.0,156.0,206.0,-268.0,-1296.0,-655.0
-65.0,-319.0,-196.0,-348.0,113.0,313.0,-331.0,-1228.0,-619.0
-71.0,-307.0,-181.0,-517.0,42.0,408.0,-355.0,-1179.0,-556.0
-71.0,-296.0,-165.0,-662.0,-52.0,490.0,-363.0,-1124.0,-491.0
-75.0,-278.0,-158.0,-769.0,-161.0,555.0,-353.0,-1069.0,-431.0
-61.0,-262.0,-131.0,-837.0,-278.0,607.0,-313.0,-1005.0,-375.0
-50.0,-249.0,-118.0,-868.0,-391.0,642.0,-265.0,-945.0,-322.0
-32.0,-237.0,-118.0,-871.0,-489.0,661.0,-208.0,-888.0,-300.0
-17.0,-219.0,-117.0,-853.0,-569.0,665.0,-160.0,-832.0,-288.0
-7.0,-207.0,-118.0,-823.0,-629.0,662.0,-112.0,-795.0,-304.0
8.0,-200.0,-126.0,-783.0,-667.0,654.0,-58.0,-758.0,-319.0
24.0,-192.0,-132.0,-740.0,-681.0,645.0,3.0,-727.0,-363.0
34.0,-188.0,-141.0,-707.0,-674.0,626.0,37.0,-702.0,-388.0
42.0,-185.0,-147.0,-683.0,-649.0,606.0,72.0,-681.0,-424.0
49.0,-182.0,-155.0,-668.0,-610.0,588.0,89.0,-666.0,-448.0
54.0,-181.0,-155.0,-666.0,-557.0,569.0,120.0,-672.0,-465.0
61.0,-184.0,-163.0,-674.0,-498.0,551.0,132.0,-675.0,-474.0
59.0,-187.0,-164.0,-690.0,-434.0,534.0,135.0,-696.0,-487.0
57.0,-194.0,-160.0,-717.0,-364.0,519.0,133.0,-729.0,-490.0
60.0,-202.0,-164.0,-745.0,-294.0,507.0,133.0,-761.0,-484.0
56.0,-215.0,-159.0,-774.0,-222.0,496.0,118.0,-801.0,-480.0
51.0,-229.0,-157.0,-801.0,-155.0,481.0,103.0,-855.0,-472.0
44.0,-247.0,-152.0,-819.0,-97.0,465.0,75.0,-916.0,-459.0
36.0,-259.0,-149.0,-831.0,-52.0,454.0,55.0,-972.0,-448.0
29.0,-280.0,-154.0,-829.0,-20.0,438.0,43.0,-1033.0,-442.0
30.0,-292.0,-148.0,-807.0,2.0,427.0,22.0,-1092.0,-429.0
22.0,-309.0,-141.0,-763.0,15.0,417.0,15.0,-1137.0,-419.0
20.0,-317.0,-141.0,-687.0,20.0,404.0,4.0,-1173.0,-412.0
16.0,-319.0,-132.0,-578.0,14.0,388.0,-7.0,-1190.0,-392.0
15.0,-319.0,-131.0,-437.0,-4.0,374.0,-18.0,-1195.0,-378.0
15.0,-317.0,-127.0,-269.0,-26.0,353.0,-27.0,-1183.0,-364.0
12.0,-305.0,-125.0,-87.0,-54.0,330.0,-20.0,-1151.0,-345.0
12.0,-292.0,-122.0,89.0,-85.0,305.0,-23.0,-1104.0,-336.0
16.0,-282.0,-123.0,248.0,-119.0,283.0,-29.0,-1058.0,-328.0
12.0,-264.0,-121.0,379.0,-152.0,271.0,-32.0,-987.0,-322.0
12.0,-254.0,-125.0,474.0,-183.0,269.0,-36.0,-947.0,-321.0
5.0,-238.0,-122.0,532.0,-212.0,271.0,-46.0,-916.0,-325.0
7.0,-231.0,-127.0,558.0,-239.0,279.0,-50.0,-883.0,-328.0
7.0,-227.0,-125.0,556.0,-261.0,289.0,-56.0,-853.0,-332.0
5.0,-219.0,-125.0,531.0,-278.0,301.0,-64.0,-834.0,-337.0
3.0,-217.0,-131.0,492.0,-288.0,308.0,-72.0,-821.0,-345.0
1.0,-211.0,-129.0,445.0,-297.0,309.0,-78.0,-807.0,-357.0
0.0,-208.0,-131.0,391.0,-305.0,307.0,-86.0,-791.0,-367.0
-3.0,-203.0,-132.0,334.0,-312.0,301.0,-93.0,-782.0,-374.0
0.0,-201.0,-136.0,275.0,-320.0,289.0,-101.0,-771.0,-378.0
-2.0,-199.0,-134.0,212.0,-329.0,277.0,-101.0,-762.0,-384.0
-7.0,-198.0,-135.0,144.0,-344.0,264.0,-106.0,-757.0,-387.0
-7.0,-196.0,-139.0,68.0,-358.0,253.0,-103.0,-771.0,-386.0
-5.0,-203.0,-134.0,-7.0,-374.0,241.0,-115.0,-775.0,-396.0
-7.0,-207.0,-138.0,-81.0,-390.0,229.0,-112.0,-792.0,-386.0
-9.0,-214.0,-136.0,-145.0,-404.0,214.0,-115.0,-804.0,-380.0
-9.0,-217.0,-132.0,-189.0,-415.0,196.0,-119.0,-823.0,-380.0
-12.0,-223.0,-133.0,-207.0,-422.0,179.0,-133.0,-832.0,-371.0
-11.0,-229.0,-130.0,-204.0,-424.0,162.0,-131.0,-845.0,-368.0
-13.0,-230.0,-132.0,-181.0,-422.0,146.0,-139.0,-856.0,-369.0
-15.0,-230.0,-131.0,-145.0,-420.0,134.0,-142.0,-872.0,-363.0
-13.0,-235.0,-132.0,-99.0,-417.0,124.0,-142.0,-876.0,-363.0
-16.0,-232.0,-131.0,-46.0,-412.0,117.0,-145.0,-880.0,-357.0
-15.0,-239.0,-133.0,8.0,-409.0,112.0,-147.0,-884.0,-358.0
-16.0,-239.0,-126.0,63.0,-406.0,110.0,-149.0,-887.0,-355.0
-18.0,-239.0,-130.0,118.0,-402.0,110.0,-160.0,-890.0,-357.0
-19.0,-238.0,-130.0,176.0,-398.0,114.0,-158.0,-896.0,-355.0
-20.0,-239.0,-130.0,229.0,-394.0,123.0,-164.0,-900.0,-361.0
-19.0,-241.0,-129.0,275.0,-389.0,134.0,-156.0,-899.0,-361.0
-14.0,-240.0,-130.0,312.0,-382.0,143.0,-152.0,-900.0,-358.0
-14.0,-239.0,-131.0,339.0,-372.0,152.0,-144.0,-902.0,-363.0
-11.0,-235.0,-126.0,360.0,-364.0,162.0,-137.0,-880.0,-351.0
-7.0,-230.0,-130.0,373.0,-355.0,169.0,-123.0,-866.0,-359.0
-5.0,-226.0,-128.0,377.0,-347.0,172.0,-112.0,-852.0,-358.0
2.0,-217.0,-135.0,375.0,-343.0,170.0,-98.0,-830.0,-351.0
0.0,-214.0,-129.0,363.0,-339.0,165.0,-81.0,-806.0,-352.0
4.0,-208.0,-131.0,347.0,-337.0,154.0,-72.0,-794.0,-355.0
3.0,-201.0,-129.0,321.0,-338.0,138.0,-65.0,-766.0,-353.0
6.0,-197.0,-130.0,289.0,-340.0,119.0,-64.0,-746.0,-345.0
2.0,-192.0,-126.0,253.0,-342.0,99.0,-62.0,-723.0,-345.0
6.0,-190.0,-126.0,213.0,-343.0,76.0,-64.0,-722.0,-341.0
5.0,-187.0,-127.0,175.0,-343.0,51.0,-58.0,-707.0,-336.0
4.0,-189.0,-123.0,142.0,-339.0,26.0,-58.0,-703.0,-325.0
5.0,-186.0,-123.0,117.0,-335.0,5.0,-62.0,-694.0,-315.0
5.0,-186.0,-118.0,104.0,-325.0,-15.0,-67.0,-689.0,-303.0
5.0,-185.0,-115.0,100.0,-313.0,-30.0,-67.0,-681.0,-301.0
4.0,-181.0,-112.0,108.0,-300.0,-40.0,-77.0,-672.0,-289.0
2.0,-183.0,-112.0,121.0,-284.0,-43.0,-89.0,-671.0,-287.0
0.0,-179.0,-116.0,136.0,-268.0,-43.0,-93.0,-663.0,-278.0
-1.0,-177.0,-109.0,149.0,-250.0,-37.0,-101.0,-663.0,-273.0
0.0,-175.0,-110.0,166.0,-230.0,-26.0,-106.0,-655.0,-268.0
0.0,-177.0,-105.0,181.0,-207.0,-13.0,-103.0,-647.0,-266.0
0.0,-176.0,-110.0,195.0,-186.0,1.0,-108.0,-643.0,-265.0
-3.0,-175.0,-107.0,205.0,-164.0,16.0,-106.0,-645.0,-262.0
-9.0,-171.0,-108.0,212.0,-140.0,30.0,-107.0,-637.0,-259.0
-1.0,-168.0,-105.0,211.0,-115.0,43.0,-107.0,-642.0,-261.0
1.0,-175.0,-108.0,210.0,-86.0,53.0,-112.0,-644.0,-259.0
-3.0,-173.0,-106.0,212.0,-58.0,61.0,-114.0,-645.0,-260.0
-7.0,-177.0,-106.0,210.0,-33.0,68.0,-115.0,-650.0,-253.0
-6.0,-181.0,-107.0,212.0,-13.0,70.0,-114.0,-660.0,-263.0
-5.0,-181.0,-113.0,209.0,5.0,73.0,-112.0,-672.0,-263.0
-6.0,-185.0,-106.0,202.0,22.0,72.0,-112.0,-681.0,-263.0
-8.0,-184.0,-105.0,187.0,39.0,70.0,-118.0,-689.0,-262.0
-5.0,-188.0,-104.0,165.0,55.0,66.0,-116.0,-701.0,-264.0
-9.0,-191.0,-108.0,140.0,70.0,61.0,-118.0,-716.0,-259.0
-6.0,-194.0,-103.0,117.0,82.0,55.0,-124.0,-733.0,-251.0
-9.0,-200.0,-98.0,100.0,92.0,52.0,-125.0,-763.0,-244.0
-9.0,-204.0,-106.0,89.0,100.0,49.0,-123.0,-791.0,-233.0
-9.0,-210.0,-97.0,91.0,107.0,48.0,-120.0,-809.0,-217.0
-10.0,-218.0,-94.0,96.0,114.0,44.0,-118.0,-827.0,-216.0
-8.0,-221.0,-90.0,106.0,125.0,42.0,-115.0,-838.0,-214.0
-9.0,-223.0,-93.0,119.0,137.0,40.0,-119.0,-851.0,-208.0
-4.0,-230.0,-96.0,128.0,150.0,37.0,-110.0,-852.0,-207.0
-6.0,-227.0,-92.0,136.0,162.0,37.0,-111.0,-857.0,-209.0
-5.0,-223.0,-93.0,138.0,172.0,34.0,-105.0,-852.0,-212.0
0.0,-227.0,-95.0,133.0,179.0,31.0,-103.0,-850.0,-202.0
0.0,-226.0,-90.0,122.0,184.0,26.0,-98.0,-850.0,-216.0
-1.0,-222.0,-94.0,104.0,186.0,20.0,-95.0,-837.0,-218.0
0.0,-224.0,-92.0,85.0,186.0,15.0,-97.0,-841.0,-221.0
0.0,-222.0,-95.0,63.0,183.0,9.0,-92.0,-840.0,-231.0
0.0,-224.0,-102.0,42.0,181.0,3.0,-97.0,-852.0,-239.0
-1.0,-228.0,-102.0,25.0,178.0,-3.0,-90.0,-857.0,-250.0
0.0,-229.0,-105.0,6.0,175.0,-10.0,-91.0,-864.0,-258.0
0.0,-230.0,-106.0,-14.0,176.0,-16.0,-89.0,-876.0,-263.0
0.0,-232.0,-111.0,-40.0,179.0,-24.0,-90.0,-884.0,-272.0
2.0,-235.0,-111.0,-72.0,185.0,-33.0,-86.0,-891.0,-286.0
2.0,-241.0,-117.0,-110.0,195.0,-43.0,-86.0,-914.0,-296.0
-1.0,-243.0,-117.0,-150.0,208.0,-53.0,-95.0,-930.0,-306.0
1.0,-249.0,-118.0,-191.0,223.0,-63.0,-99.0,-952.0,-309.0
-4.0,-258.0,-121.0,-229.0,241.0,-71.0,-108.0,-974.0,-314.0
-6.0,-264.0,-121.0,-265.0,261.0,-78.0,-114.0,-1007.0,-319.0
-5.0,-272.0,-115.0,-296.0,279.0,-81.0,-112.0,-1040.0,-312.0
-5.0,-285.0,-121.0,-325.0,294.0,-80.0,-114.0,-1077.0,-314.0
-5.0,-293.0,-117.0,-349.0,313.0,-74.0,-115.0,-1112.0,-312.0
-5.0,-301.0,-118.0,-367.0,333.0,-68.0,-112.0,-1146.0,-313.0
-8.0,-311.0,-119.0,-377.0,354.0,-58.0,-114.0,-1180.0,-313.0
-8.0,-317.0,-118.0,-376.0,376.0,-50.0,-121.0,-1206.0,-320.0
-10.0,-325.0,-121.0,-371.0,396.0,-41.0,-126.0,-1242.0,-327.0
-12.0,-331.0,-127.0,-360.0,414.0,-36.0,-124.0,-1270.0,-337.0
-15.0,-343.0,-135.0,-349.0,427.0,-35.0,-146.0,-1287.0,-375.0
-25.0,-341.0,-141.0,-333.0,437.0,-36.0,-170.0,-1301.0,-409.0
-34.0,-343.0,-146.0,-316.0,443.0,-34.0,-220.0,-1318.0,-448.0
-48.0,-346.0,-158.0,-294.0,440.0,-30.0,-274.0,-1330.0,-479.0
-60.0,-357.0,-167.0,-267.0,420.0,-22.0,-326.0,-1364.0,-513.0
-75.0,-364.0,-171.0,-230.0,381.0,-6.0,-375.0,-1400.0,-545.0
-85.0,-375.0,-178.0,-191.0,332.0,23.0,-423.0,-1432.0,-565.0
-95.0,-385.0,-184.0,-161.0,282.0,57.0,-461.0,-1476.0,-592.0
-102.0,-397.0,-194.0,-142.0,241.0,90.0,-486.0,-1512.0,-611.0
-107.0,-403.0,-196.0,-131.0,211.0,122.0,-495.0,-1539.0,-628.0
-104.0,-406.0,-199.0,-135.0,194.0,149.0,-492.0,-1559.0,-646.0
-96.0,-409.0,-199.0,-158.0,184.0,168.0,-461.0,-1584.0,-650.0
-77.0,-406.0,-198.0,-204.0,175.0,178.0,-395.0,-1581.0,-642.0
-53.0,-400.0,-193.0,-288.0,159.0,175.0,-307.0,-1553.0,-630.0
-26.0,-389.0,-187.0,-404.0,137.0,153.0,-190.0,-1515.0,-596.0
2.0,-378.0,-172.0,-535.0,105.0,112.0,-93.0,-1452.0,-553.0
19.0,-358.0,-164.0,-654.0,68.0,61.0,-14.0,-1392.0,-500.0
32.0,-342.0,-151.0,-736.0,38.0,10.0,33.0,-1322.0,-459.0
41.0,-325.0,-145.0,-781.0,15.0,-40.0,65.0,-1251.0,-420.0
44.0,-305.0,-133.0,-788.0,6.0,-82.0,83.0,-1170.0,-383.0
44.0,-282.0,-127.0,-761.0,7.0,-120.0,79.0,-1089.0,-353.0
41.0,-265.0,-123.0,-709.0,17.0,-153.0,79.0,-1007.0,-338.0
39.0,-247.0,-125.0,-641.0,39.0,-180.0,59.0,-941.0,-333.0
33.0,-230.0,-123.0,-568.0,68.0,-202.0,45.0,-877.0,-339.0
29.0,-218.0,-130.0,-497.0,100.0,-216.0,21.0,-830.0,-351.0
22.0,-209.0,-137.0,-440.0,131.0,-225.0,4.0,-794.0,-383.0
18.0,-200.0,-143.0,-402.0,157.0,-230.0,-21.0,-758.0,-416.0
13.0,-196.0,-151.0,-381.0,173.0,-234.0,-36.0,-737.0,-434.0
8.0,-196.0,-155.0,-376.0,178.0,-236.0,-59.0,-730.0,-461.0
2.0,-198.0,-159.0,-386.0,168.0,-235.0,-67.0,-733.0,-472.0
2.0,-202.0,-160.0,-402.0,149.0,-233.0,-77.0,-750.0,-486.0
0.0,-201.0,-163.0,-424.0,121.0,-228.0,-78.0,-774.0,-499.0
4.0,-213.0,-165.0,-445.0,93.0,-222.0,-75.0,-801.0,-499.0
4.0,-222.0,-164.0,-463.0,71.0,-216.0,-67.0,-829.0,-502.0
7.0,-231.0,-166.0,-477.0,57.0,-214.0,-57.0,-854.0,-503.0
9.0,-235.0,-163.0,-485.0,54.0,-214.0,-50.0,-885.0,-495.0
12.0,-241.0,-164.0,-484.0,59.0,-216.0,-39.0,-914.0,-496.0
14.0,-246.0,-157.0,-472.0,70.0,-220.0,-28.0,-933.0,-483.0
18.0,-252.0,-157.0,-448.0,84.0,-222.0,-14.0,-950.0,-474.0
25.0,-258.0,-156.0,-414.0,97.0,-224.0,4.0,-965.0,-461.0
28.0,-262.0,-154.0,-363.0,107.0,-226.0,17.0,-979.0,-449.0
28.0,-258.0,-149.0,-301.0,116.0,-229.0,23.0,-981.0,-441.0
35.0,-265.0,-146.0,-228.0,126.0,-229.0,39.0,-986.0,-429.0
34.0,-257.0,-140.0,-151.0,134.0,-230.0,49.0,-982.0,-417.0
36.0,-262.0,-138.0,-75.0,140.0,-229.0,57.0,-983.0,-409.0
38.0,-262.0,-138.0,-2.0,141.0,-231.0,67.0,-987.0,-396.0
40.0,-264.0,-132.0,65.0,136.0,-239.0,73.0,-991.0,-395.0
43.0,-264.0,-134.0,120.0,126.0,-255.0,74.0,-999.0,-384.0
42.0,-267.0,-132.0,172.0,114.0,-274.0,75.0,-1005.0,-379.0
40.0,-269.0,-136.0,219.0,103.0,-296.0,72.0,-1017.0,-376.0
37.0,-268.0,-131.0,265.0,96.0,-321.0,68.0,-1018.0,-371.0
35.0,-266.0,-132.0,310.0,94.0,-348.0,58.0,-1008.0,-371.0
35.0,-262.0,-131.0,348.0,93.0,-371.0,50.0,-996.0,-368.0
32.0,-255.0,-135.0,376.0,92.0,-389.0,46.0,-984.0,-374.0
30.0,-254.0,-124.0,392.0,89.0,-401.0,34.0,-956.0,-367.0
30.0,-247.0,-131.0,394.0,84.0,-405.0,32.0,-941.0,-371.0
29.0,-239.0,-133.0,388.0,76.0,-402.0,28.0,-916.0,-372.0
29.0,-236.0,-135.0,372.0,64.0,-392.0,32.0,-886.0,-381.0
33.0,-226.0,-138.0,354.0,53.0,-378.0,42.0,-867.0,-382.0
34.0,-224.0,-135.0,330.0,42.0,-360.0,58.0,-846.0,-386.0
39.0,-219.0,-138.0,302.0,35.0,-340.0,68.0,-832.0,-390.0
42.0,-220.0,-141.0,274.0,33.0,-320.0,79.0,-822.0,-392.0
47.0,-218.0,-143.0,244.0,38.0,-301.0,97.0,-814.0,-399.0
54.0,-217.0,-143.0,214.0,46.0,-283.0,108.0,-815.0,-405.0
55.0,-217.0,-141.0,189.0,60.0,-270.0,119.0,-814.0,-399.0
55.0,-216.0,-142.0,172.0,76.0,-260.0,127.0,-812.0,-409.0
61.0,-219.0,-141.0,161.0,93.0,-256.0,134.0,-818.0,-405.0
65.0,-220.0,-142.0,158.0,110.0,-257.0,146.0,-822.0,-410.0
62.0,-221.0,-144.0,164.0,128.0,-265.0,144.0,-820.0,-421.0
63.0,-218.0,-140.0,177.0,148.0,-276.0,144.0,-820.0,-409.0
59.0,-217.0,-142.0,193.0,166.0,-292.0,140.0,-819.0,-411.0
59.0,-218.0,-141.0,213.0,185.0,-313.0,135.0,-821.0,-404.0
54.0,-217.0,-139.0,234.0,199.0,-337.0,126.0,-819.0,-406.0
54.0,-220.0,-141.0,260.0,210.0,-360.0,115.0,-827.0,-402.0
50.0,-219.0,-142.0,288.0,214.0,-383.0,110.0,-822.0,-398.0
47.0,-221.0,-143.0,316.0,212.0,-404.0,93.0,-821.0,-402.0
45.0,-214.0,-138.0,345.0,207.0,-420.0,85.0,-820.0,-395.0
46.0,-218.0,-141.0,371.0,202.0,-436.0,81.0,-814.0,-391.0
40.0,-213.0,-139.0,392.0,194.0,-448.0,74.0,-805.0,-397.0
39.0,-210.0,-135.0,409.0,185.0,-453.0,61.0,-796.0,-387.0
35.0,-209.0,-134.0,422.0,176.0,-453.0,53.0,-781.0,-382.0
35.0,-208.0,-131.0,428.0,166.0,-452.0,45.0,-778.0,-380.0
30.0,-203.0,-130.0,431.0,157.0,-447.0,36.0,-766.0,-374.0
31.0,-199.0,-130.0,429.0,150.0,-442.0,42.0,-756.0,-363.0
32.0,-199.0,-127.0,428.0,144.0,-433.0,35.0,-740.0,-353.0
29.0,-194.0,-128.0,424.0,141.0,-423.0,30.0,-729.0,-344.0
31.0,-193.0,-126.0,417.0,140.0,-411.0,26.0,-717.0,-337.0
32.0,-191.0,-124.0,408.0,140.0,-399.0,27.0,-711.0,-332.0
25.0,-189.0,-125.0,398.0,141.0,-383.0,16.0,-704.0,-324.0
26.0,-184.0,-124.0,389.0,144.0,-367.0,15.0,-683.0,-318.0
27.0,-183.0,-121.0,385.0,148.0,-346.0,15.0,-672.0,-315.0
27.0,-178.0,-121.0,375.0,155.0,-323.0,23.0,-659.0,-317.0
29.0,-174.0,-121.0,363.0,165.0,-299.0,24.0,-649.0,-322.0
26.0,-168.0,-123.0,344.0,176.0,-274.0,31.0,-634.0,-318.0
32.0,-168.0,-118.0,320.0,189.0,-250.0,38.0,-623.0,-319.0
34.0,-161.0,-121.0,289.0,201.0,-226.0,33.0,-610.0,-316.0
33.0,-162.0,-124.0,255.0,209.0,-203.0,41.0,-607.0,-313.0
31.0,-159.0,-119.0,218.0,218.0,-184.0,41.0,-605.0,-311.0
27.0,-159.0,-123.0,181.0,225.0,-167.0,45.0,-604.0,-310.0
36.0,-162.0,-115.0,148.0,231.0,-151.0,49.0,-604.0,-298.0
35.0,-163.0,-113.0,119.0,235.0,-136.0,47.0,-606.0,-294.0
35.0,-159.0,-114.0,96.0,241.0,-123.0,56.0,-608.0,-286.0
37.0,-163.0,-112.0,81.0,248.0,-113.0,59.0,-608.0,-283.0
38.0,-164.0,-110.0,71.0,251.0,-103.0,59.0,-609.0,-271.0
38.0,-165.0,-112.0,62.0,254.0,-93.0,62.0,-611.0,-269.0
38.0,-164.0,-113.0,50.0,257.0,-87.0,59.0,-615.0,-273.0
41.0,-168.0,-108.0,35.0,256.0,-81.0,68.0,-623.0,-273.0
39.0,-168.0,-110.0,21.0,254.0,-74.0,74.0,-627.0,-278.0
41.0,-167.0,-109.0,4.0,250.0,-67.0,79.0,-642.0,-274.0
42.0,-176.0,-107.0,-15.0,244.0,-61.0,75.0,-652.0,-274.0
44.0,-178.0,-112.0,-36.0,236.0,-56.0,89.0,-665.0,-273.0
48.0,-181.0,-108.0,-56.0,228.0,-51.0,99.0,-689.0,-268.0
48.0,-188.0,-106.0,-75.0,220.0,-47.0,101.0,-710.0,-267.0
51.0,-192.0,-107.0,-91.0,213.0,-45.0,106.0,-731.0,-260.0
51.0,-195.0,-105.0,-106.0,209.0,-45.0,106.0,-751.0,-255.0
52.0,-200.0,-103.0,-112.0,205.0,-43.0,117.0,-772.0,-249.0
57.0,-209.0,-101.0,-113.0,201.0,-45.0,123.0,-793.0,-246.0
55.0,-214.0,-103.0,-104.0,199.0,-45.0,124.0,-813.0,-236.0
56.0,-225.0,-102.0,-84.0,196.0,-45.0,128.0,-832.0,-231.0
60.0,-223.0,-98.0,-59.0,190.0,-45.0,129.0,-854.0,-221.0
54.0,-233.0,-94.0,-31.0,183.0,-43.0,130.0,-876.0,-214.0
55.0,-237.0,-95.0,0.0,177.0,-40.0,131.0,-892.0,-209.0
57.0,-243.0,-94.0,36.0,175.0,-37.0,134.0,-916.0,-203.0
55.0,-245.0,-94.0,70.0,173.0,-35.0,134.0,-933.0,-207.0
57.0,-248.0,-90.0,101.0,172.0,-33.0,136.0,-937.0,-202.0
55.0,-251.0,-92.0,130.0,176.0,-33.0,123.0,-946.0,-207.0
50.0,-248.0,-95.0,155.0,179.0,-32.0,114.0,-955.0,-207.0
52.0,-254.0,-94.0,176.0,180.0,-31.0,105.0,-955.0,-218.0
49.0,-252.0,-96.0,189.0,179.0,-31.0,99.0,-963.0,-225.0
43.0,-256.0,-97.0,193.0,174.0,-30.0,86.0,-967.0,-231.0
38.0,-258.0,-101.0,188.0,166.0,-28.0,71.0,-969.0,-252.0
36.0,-256.0,-107.0,171.0,149.0,-22.0,57.0,-976.0,-258.0
29.0,-259.0,-109.0,145.0,128.0,-11.0,35.0,-989.0,-267.0
25.0,-260.0,-113.0,107.0,103.0,1.0,34.0,-997.0,-274.0
23.0,-265.0,-111.0,59.0,79.0,15.0,15.0,-1010.0,-285.0
22.0,-264.0,-112.0,7.0,58.0,33.0,9.0,-1021.0,-283.0
19.0,-267.0,-115.0,-50.0,41.0,52.0,4.0,-1034.0,-285.0
23.0,-276.0,-116.0,-109.0,26.0,69.0,0.0,-1068.0,-286.0
22.0,-285.0,-117.0,-163.0,13.0,85.0,5.0,-1087.0,-290.0
23.0,-290.0,-110.0,-208.0,1.0,100.0,14.0,-1111.0,-275.0
32.0,-297.0,-107.0,-243.0,-10.0,110.0,36.0,-1129.0,-262.0
34.0,-298.0,-99.0,-265.0,-16.0,115.0,59.0,-1159.0,-243.0
44.0,-305.0,-100.0,-271.0,-14.0,111.0,87.0,-1173.0,-233.0
53.0,-316.0,-100.0,-262.0,-6.0,100.0,117.0,-1188.0,-223.0
65.0,-321.0,-96.0,-236.0,4.0,76.0,154.0,-1212.0,-221.0
74.0,-327.0,-96.0,-199.0,15.0,45.0,190.0,-1234.0,-225.0
80.0,-330.0,-99.0,-149.0,22.0,9.0,219.0,-1253.0,-223.0
86.0,-337.0,-105.0,-86.0,27.0,-33.0,246.0,-1277.0,-242.0
92.0,-338.0,-111.0,-14.0,29.0,-77.0,268.0,-1284.0,-257.0
92.0,-336.0,-112.0,61.0,31.0,-124.0,276.0,-1282.0,-277.0
85.0,-333.0,-114.0,138.0,38.0,-156.0,247.0,-1264.0,-301.0
103.0,-338.0,-131.0,222.0,52.0,-161.0,307.0,-1290.0,-343.0
99.0,-339.0,-137.0,279.0,79.0,-186.0,309.0,-1305.0,-410.0
96.0,-341.0,-153.0,300.0,119.0,-215.0,285.0,-1312.0,-455.0
94.0,-347.0,-160.0,297.0,159.0,-225.0,277.0,-1324.0,-491.0
91.0,-350.0,-169.0,277.0,193.0,-220.0,268.0,-1340.0,-511.0
88.0,-358.0,-171.0,242.0,220.0,-215.0,248.0,-1363.0,-523.0
86.0,-364.0,-177.0,194.0,245.0,-202.0,250.0,-1394.0,-544.0
76.0,-370.0,-169.0,124.0,267.0,-192.0,222.0,-1416.0,-543.0
62.0,-373.0,-172.0,47.0,278.0,-171.0,182.0,-1430.0,-535.0
55.0,-379.0,-167.0,-24.0,284.0,-145.0,132.0,-1446.0,-540.0
32.0,-375.0,-166.0,-93.0,283.0,-117.0,55.0,-1455.0,-538.0
7.0,-372.0,-174.0,-159.0,278.0,-82.0,-31.0,-1442.0,-539.0
-11.0,-373.0,-173.0,-235.0,261.0,-30.0,-116.0,-1434.0,-542.0
-22.0,-364.0,-170.0,-325.0,229.0,37.0,-158.0,-1406.0,-533.0
-30.0,-356.0,-167.0,-418.0,182.0,113.0,-184.0,-1381.0,-509.0
-34.0,-353.0,-154.0,-510.0,125.0,189.0,-208.0,-1364.0,-481.0
-37.0,-344.0,-150.0,-591.0,59.0,262.0,-217.0,-1340.0,-449.0
-36.0,-338.0,-142.0,-664.0,-8.0,333.0,-215.0,-1316.0,-416.0
-29.0,-328.0,-131.0,-722.0,-73.0,397.0,-192.0,-1278.0,-377.0
-19.0,-317.0,-120.0,-764.0,-131.0,453.0,-164.0,-1228.0,-329.0
-7.0,-300.0,-116.0,-791.0,-178.0,503.0,-122.0,-1162.0,-296.0
2.0,-293.0,-112.0,-808.0,-217.0,541.0,-72.0,-1108.0,-268.0
13.0,-268.0,-107.0,-812.0,-248.0,570.0,-32.0,-1052.0,-254.0
23.0,-263.0,-103.0,-806.0,-273.0,591.0,2.0,-1001.0,-245.0
30.0,-255.0,-106.0,-792.0,-292.0,606.0,37.0,-960.0,-247.0
36.0,-241.0,-107.0,-768.0,-304.0,614.0,59.0,-927.0,-264.0
39.0,-234.0,-115.0,-738.0,-311.0,613.0,62.0,-876.0,-284.0
39.0,-228.0,-121.0,-700.0,-312.0,608.0,69.0,-849.0,-309.0
40.0,-220.0,-127.0,-660.0,-313.0,599.0,72.0,-816.0,-341.0
38.0,-207.0,-135.0,-621.0,-307.0,586.0,53.0,-794.0,-383.0
34.0,-204.0,-145.0,-588.0,-296.0,571.0,45.0,-769.0,-418.0
29.0,-198.0,-155.0,-569.0,-278.0,550.0,30.0,-754.0,-449.0
20.0,-197.0,-160.0,-569.0,-253.0,530.0,6.0,-742.0,-479.0
16.0,-202.0,-171.0,-583.0,-227.0,513.0,-9.0,-746.0,-495.0
12.0,-202.0,-165.0,-609.0,-200.0,503.0,-30.0,-763.0,-508.0
14.0,-208.0,-164.0,-643.0,-175.0,505.0,-36.0,-787.0,-504.0
16.0,-220.0,-167.0,-679.0,-154.0,508.0,-37.0,-825.0,-501.0
12.0,-228.0,-162.0,-707.0,-136.0,505.0,-36.0,-859.0,-485.0
12.0,-239.0,-161.0,-729.0,-124.0,503.0,-36.0,-899.0,-473.0
8.0,-250.0,-151.0,-735.0,-117.0,501.0,-44.0,-936.0,-447.0
15.0,-259.0,-142.0,-725.0,-111.0,505.0,-45.0,-974.0,-432.0
11.0,-272.0,-143.0,-697.0,-103.0,502.0,-39.0,-1014.0,-415.0
11.0,-280.0,-136.0,-648.0,-91.0,490.0,-49.0,-1052.0,-394.0
9.0,-291.0,-130.0,-583.0,-81.0,469.0,-49.0,-1083.0,-374.0
4.0,-295.0,-128.0,-494.0,-75.0,439.0,-66.0,-1098.0,-364.0
2.0,-295.0,-124.0,-386.0,-73.0,408.0,-85.0,-1112.0,-356.0
1.0,-296.0,-126.0,-268.0,-74.0,377.0,-83.0,-1111.0,-340.0
0.0,-292.0,-124.0,-143.0,-79.0,345.0,-98.0,-1102.0,-328.0
-4.0,-288.0,-121.0,-23.0,-89.0,316.0,-107.0,-1081.0,-323.0
-5.0,-280.0,-118.0,82.0,-107.0,291.0,-104.0,-1068.0,-325.0
-7.0,-277.0,-118.0,173.0,-132.0,270.0,-117.0,-1038.0,-320.0
-13.0,-270.0,-122.0,243.0,-163.0,258.0,-121.0,-1026.0,-327.0
-10.0,-267.0,-124.0,293.0,-196.0,256.0,-122.0,-1006.0,-328.0
-10.0,-262.0,-127.0,328.0,-231.0,261.0,-120.0,-996.0,-341.0
-4.0,-262.0,-128.0,349.0,-265.0,270.0,-124.0,-995.0,-349.0
-10.0,-259.0,-129.0,362.0,-294.0,281.0,-125.0,-981.0,-355.0
-8.0,-257.0,-128.0,365.0,-316.0,290.0,-116.0,-973.0,-368.0
-5.0,-258.0,-129.0,368.0,-332.0,300.0,-110.0,-964.0,-372.0
-6.0,-254.0,-135.0,365.0,-342.0,305.0,-105.0,-958.0,-377.0
-1.0,-249.0,-140.0,360.0,-347.0,309.0,-105.0,-948.0,-385.0
-3.0,-247.0,-142.0,351.0,-347.0,308.0,-106.0,-936.0,-393.0
-1.0,-243.0,-145.0,338.0,-345.0,301.0,-98.0,-920.0,-409.0
-2.0,-238.0,-142.0,319.0,-343.0,289.0,-98.0,-909.0,-415.0
-1.0,-233.0,-144.0,296.0,-342.0,277.0,-105.0,-885.0,-418.0
-3.0,-227.0,-144.0,272.0,-343.0,262.0,-108.0,-867.0,-419.0
-10.0,-220.0,-142.0,244.0,-348.0,248.0,-110.0,-852.0,-423.0
-11.0,-221.0,-144.0,216.0,-358.0,234.0,-123.0,-836.0,-422.0
-12.0,-218.0,-140.0,185.0,-367.0,220.0,-134.0,-830.0,-421.0
-15.0,-219.0,-144.0,153.0,-378.0,204.0,-144.0,-825.0,-418.0
-16.0,-217.0,-145.0,122.0,-389.0,193.0,-148.0,-819.0,-413.0
-19.0,-217.0,-145.0,92.0,-397.0,182.0,-157.0,-816.0,-406.0
-17.0,-217.0,-138.0,67.0,-404.0,173.0,-164.0,-819.0,-395.0
-21.0,-213.0,-134.0,47.0,-407.0,169.0,-172.0,-815.0,-391.0
-21.0,-218.0,-135.0,37.0,-406.0,169.0,-178.0,-814.0,-384.0
-22.0,-217.0,-133.0,35.0,-402.0,171.0,-175.0,-820.0,-376.0
-23.0,-218.0,-133.0,38.0,-396.0,175.0,-168.0,-819.0,-370.0
-20.0,-218.0,-129.0,51.0,-387.0,179.0,-170.0,-827.0,-354.0
-16.0,-222.0,-127.0,71.0,-379.0,185.0,-148.0,-832.0,-337.0
-12.0,-222.0,-123.0,104.0,-376.0,193.0,-140.0,-832.0,-335.0
-9.0,-223.0,-122.0,142.0,-374.0,199.0,-127.0,-836.0,-324.0
-9.0,-219.0,-125.0,183.0,-373.0,209.0,-119.0,-833.0,-321.0
-5.0,-221.0,-124.0,220.0,-372.0,218.0,-107.0,-826.0,-317.0
0.0,-220.0,-117.0,255.0,-370.0,226.0,-87.0,-816.0,-315.0
2.0,-209.0,-117.0,287.0,-366.0,231.0,-73.0,-805.0,-317.0
5.0,-211.0,-122.0,310.0,-362.0,236.0,-67.0,-788.0,-312.0
4.0,-204.0,-124.0,324.0,-356.0,238.0,-61.0,-764.0,-314.0
8.0,-194.0,-116.0,331.0,-352.0,238.0,-56.0,-738.0,-310.0
11.0,-193.0,-122.0,331.0,-345.0,232.0,-52.0,-719.0,-302.0
10.0,-187.0,-119.0,323.0,-340.0,223.0,-45.0,-698.0,-296.0
8.0,-178.0,-116.0,315.0,-333.0,211.0,-44.0,-662.0,-294.0
7.0,-173.0,-116.0,308.0,-328.0,198.0,-50.0,-645.0,-287.0
7.0,-167.0,-113.0,301.0,-322.0,182.0,-59.0,-624.0,-287.0
5.0,-163.0,-113.0,288.0,-317.0,166.0,-55.0,-611.0,-284.0
6.0,-158.0,-112.0,271.0,-313.0,151.0,-67.0,-592.0,-285.0
3.0,-153.0,-109.0,250.0,-309.0,137.0,-77.0,-586.0,-285.0
2.0,-154.0,-116.0,226.0,-308.0,122.0,-90.0,-573.0,-286.0
0.0,-153.0,-112.0,201.0,-306.0,111.0,-94.0,-562.0,-286.0
-6.0,-146.0,-110.0,172.0,-305.0,100.0,-103.0,-546.0,-283.0
-6.0,-143.0,-115.0,142.0,-301.0,91.0,-109.0,-543.0,-277.0
-7.0,-145.0,-111.0,116.0,-296.0,85.0,-110.0,-537.0,-274.0
-8.0,-147.0,-109.0,88.0,-285.0,80.0,-118.0,-545.0,-266.0
-8.0,-145.0,-105.0,64.0,-272.0,75.0,-125.0,-548.0,-255.0
-9.0,-150.0,-104.0,42.0,-254.0,73.0,-128.0,-549.0,-250.0
-12.0,-150.0,-102.0,22.0,-233.0,71.0,-132.0,-564.0,-246.0
-8.0,-154.0,-101.0,5.0,-208.0,70.0,-136.0,-573.0,-239.0
-10.0,-157.0,-102.0,-9.0,-182.0,74.0,-128.0,-586.0,-231.0
-7.0,-163.0,-101.0,-17.0,-157.0,79.0,-124.0,-603.0,-223.0
-7.0,-167.0,-101.0,-22.0,-128.0,86.0,-123.0,-622.0,-226.0
-8.0,-171.0,-95.0,-23.0,-100.0,93.0,-120.0,-640.0,-219.0
-5.0,-178.0,-95.0,-19.0,-71.0,102.0,-116.0,-659.0,-215.0
-6.0,-179.0,-92.0,-11.0,-44.0,109.0,-114.0,-681.0,-210.0
-3.0,-185.0,-94.0,4.0,-22.0,117.0,-114.0,-701.0,-198.0
-8.0,-191.0,-90.0,27.0,0.0,123.0,-117.0,-716.0,-197.0
-6.0,-195.0,-90.0,50.0,15.0,130.0,-117.0,-725.0,-187.0
-10.0,-195.0,-91.0,80.0,27.0,135.0,-116.0,-735.0,-192.0
-9.0,-197.0,-87.0,112.0,36.0,137.0,-123.0,-749.0,-189.0
-5.0,-204.0,-83.0,141.0,42.0,138.0,-120.0,-766.0,-187.0
-8.0,-208.0,-90.0,164.0,49.0,137.0,-133.0,-776.0,-191.0
-13.0,-211.0,-95.0,184.0,62.0,133.0,-134.0,-793.0,-193.0
-16.0,-213.0,-90.0,197.0,79.0,128.0,-144.0,-804.0,-196.0
-13.0,-219.0,-92.0,202.0,101.0,120.0,-158.0,-816.0,-202.0
-19.0,-219.0,-95.0,207.0,124.0,108.0,-166.0,-824.0,-208.0
-21.0,-224.0,-97.0,209.0,140.0,97.0,-170.0,-840.0,-218.0
-23.0,-229.0,-98.0,210.0,150.0,88.0,-175.0,-865.0,-224.0
-24.0,-231.0,-100.0,209.0,154.0,76.0,-180.0,-879.0,-235.0
-24.0,-234.0,-104.0,197.0,154.0,68.0,-177.0,-887.0,-250.0
-24.0,-235.0,-104.0,174.0,153.0,58.0,-180.0,-901.0,-255.0
-24.0,-236.0,-106.0,138.0,152.0,50.0,-172.0,-912.0,-258.0
-25.0,-237.0,-101.0,97.0,150.0,43.0,-178.0,-921.0,-255.0
-21.0,-240.0,-105.0,55.0,149.0,33.0,-175.0,-934.0,-259.0
-22.0,-249.0,-100.0,13.0,147.0,25.0,-174.0,-946.0,-254.0
-20.0,-253.0,-104.0,-29.0,147.0,17.0,-166.0,-962.0,-249.0
-18.0,-255.0,-102.0,-70.0,151.0,9.0,-160.0,-975.0,-241.0
-15.0,-265.0,-99.0,-111.0,159.0,5.0,-150.0,-993.0,-232.0
-11.0,-265.0,-100.0,-150.0,169.0,0.0,-144.0,-1005.0,-236.0
-14.0,-266.0,-100.0,-183.0,182.0,-2.0,-130.0,-1031.0,-237.0
-9.0,-272.0,-99.0,-210.0,194.0,-7.0,-127.0,-1044.0,-235.0
-7.0,-275.0,-104.0,-232.0,209.0,-10.0,-114.0,-1060.0,-244.0
-5.0,-280.0,-101.0,-252.0,225.0,-13.0,-109.0,-1069.0,-242.0
-5.0,-281.0,-102.0,-272.0,245.0,-19.0,-107.0,-1084.0,-252.0
-11.0,-287.0,-103.0,-295.0,270.0,-28.0,-110.0,-1097.0,-251.0
-3.0,-293.0,-106.0,-320.0,298.0,-35.0,-104.0,-1114.0,-261.0
-6.0,-294.0,-111.0,-349.0,327.0,-42.0,-106.0,-1131.0,-268.0
-1.0,-301.0,-115.0,-380.0,358.0,-48.0,-103.0,-1145.0,-287.0
-3.0,-307.0,-118.0,-417.0,384.0,-52.0,-105.0,-1166.0,-302.0
-3.0,-316.0,-124.0,-457.0,408.0,-59.0,-105.0,-1189.0,-321.0
-9.0,-319.0,-127.0,-499.0,427.0,-68.0,-113.0,-1214.0,-348.0
-9.0,-321.0,-135.0,-545.0,439.0,-81.0,-127.0,-1236.0,-379.0
-15.0,-325.0,-141.0,-583.0,441.0,-92.0,-149.0,-1263.0,-416.0
-27.0,-336.0,-152.0,-615.0,436.0,-100.0,-182.0,-1282.0,-446.0
-39.0,-338.0,-163.0,-629.0,421.0,-103.0,-223.0,-1295.0,-480.0
-53.0,-345.0,-162.0,-627.0,393.0,-97.0,-279.0,-1311.0,-510.0
-65.0,-353.0,-175.0,-608.0,353.0,-81.0,-328.0,-1335.0,-541.0
-84.0,-358.0,-178.0,-579.0,306.0,-55.0,-399.0,-1360.0,-559.0
-99.0,-370.0,-181.0,-546.0,262.0,-21.0,-454.0,-1396.0,-577.0
-112.0,-383.0,-182.0,-512.0,230.0,16.0,-513.0,-1437.0,-576.0
-126.0,-389.0,-186.0,-480.0,213.0,58.0,-562.0,-1482.0,-569.0
-133.0,-395.0,-180.0,-447.0,205.0,92.0,-602.0,-1514.0,-573.0
-132.0,-405.0,-178.0,-411.0,201.0,123.0,-604.0,-1538.0,-564.0
-126.0,-407.0,-176.0,-372.0,201.0,147.0,-576.0,-1549.0,-554.0
-108.0,-406.0,-176.0,-340.0,197.0,163.0,-516.0,-1550.0,-552.0
-89.0,-402.0,-171.0,-328.0,189.0,169.0,-434.0,-1535.0,-540.0
-64.0,-392.0,-168.0,-348.0,167.0,161.0,-328.0,-1511.0,-520.0
-31.0,-379.0,-163.0,-404.0,132.0,139.0,-213.0,-1457.0,-506.0
-4.0,-361.0,-160.0,-494.0,90.0,99.0,-103.0,-1398.0,-481.0
14.0,-340.0,-148.0,-600.0,49.0,44.0,-26.0,-1324.0,-447.0
31.0,-322.0,-140.0,-702.0,21.0,-21.0,29.0,-1245.0,-418.0
39.0,-307.0,-138.0,-786.0,6.0,-84.0,65.0,-1171.0,-392.0
46.0,-285.0,-128.0,-846.0,4.0,-144.0,88.0,-1100.0,-363.0
48.0,-266.0,-124.0,-872.0,15.0,-198.0,92.0,-1015.0,-339.0
44.0,-251.0,-120.0,-867.0,35.0,-249.0,80.0,-946.0,-327.0
41.0,-235.0,-122.0,-835.0,61.0,-292.0,66.0,-877.0,-319.0
34.0,-218.0,-124.0,-787.0,90.0,-323.0,43.0,-823.0,-326.0
26.0,-207.0,-124.0,-732.0,114.0,-344.0,5.0,-787.0,-339.0
14.0,-203.0,-130.0,-683.0,133.0,-361.0,-27.0,-756.0,-361.0
3.0,-199.0,-138.0,-641.0,143.0,-365.0,-60.0,-745.0,-390.0
-6.0,-200.0,-142.0,-610.0,139.0,-366.0,-104.0,-745.0,-412.0
-15.0,-198.0,-147.0,-587.0,124.0,-363.0,-141.0,-748.0,-433.0
-23.0,-203.0,-150.0,-567.0,92.0,-351.0,-168.0,-761.0,-444.0
-30.0,-206.0,-151.0,-544.0,54.0,-341.0,-182.0,-776.0,-452.0
-27.0,-211.0,-156.0,-519.0,14.0,-331.0,-193.0,-794.0,-466.0
-30.0,-218.0,-160.0,-498.0,-19.0,-323.0,-199.0,-808.0,-471.0
-30.0,-222.0,-159.0,-476.0,-41.0,-314.0,-203.0,-832.0,-480.0
-24.0,-231.0,-161.0,-458.0,-49.0,-307.0,-189.0,-860.0,-495.0
-18.0,-236.0,-165.0,-445.0,-46.0,-300.0,-183.0,-885.0,-505.0
-19.0,-243.0,-169.0,-435.0,-37.0,-290.0,-164.0,-912.0,-510.0
-13.0,-250.0,-168.0,-419.0,-26.0,-279.0,-146.0,-932.0,-513.0
-2.0,-255.0,-173.0,-393.0,-8.0,-266.0,-116.0,-944.0,-529.0
2.0,-256.0,-175.0,-357.0,10.0,-254.0,-94.0,-959.0,-534.0
9.0,-256.0,-170.0,-307.0,30.0,-242.0,-57.0,-965.0,-532.0
13.0,-254.0,-174.0,-248.0,49.0,-230.0,-36.0,-964.0,-530.0
21.0,-255.0,-170.0,-180.0,70.0,-218.0,-6.0,-960.0,-522.0
28.0,-255.0,-166.0,-105.0,89.0,-209.0,16.0,-951.0,-515.0
32.0,-253.0,-168.0,-28.0,108.0,-203.0,32.0,-947.0,-506.0
36.0,-252.0,-163.0,45.0,128.0,-201.0,52.0,-942.0,-496.0
41.0,-247.0,-161.0,110.0,144.0,-202.0,64.0,-940.0,-480.0
42.0,-251.0,-153.0,164.0,159.0,-208.0,77.0,-938.0,-468.0
46.0,-252.0,-153.0,210.0,171.0,-219.0,89.0,-946.0,-453.0
45.0,-253.0,-149.0,244.0,181.0,-234.0,96.0,-955.0,-438.0
47.0,-257.0,-147.0,277.0,188.0,-251.0,99.0,-966.0,-422.0
49.0,-258.0,-143.0,304.0,190.0,-266.0,103.0,-986.0,-420.0
51.0,-262.0,-136.0,336.0,192.0,-281.0,104.0,-991.0,-402.0
53.0,-263.0,-136.0,370.0,195.0,-295.0,103.0,-999.0,-396.0
51.0,-260.0,-135.0,415.0,200.0,-301.0,104.0,-985.0,-392.0
50.0,-254.0,-137.0,463.0,205.0,-300.0,116.0,-967.0,-391.0
54.0,-248.0,-137.0,510.0,206.0,-297.0,117.0,-939.0,-398.0
55.0,-234.0,-139.0,549.0,207.0,-290.0,121.0,-899.0,-407.0
55.0,-227.0,-143.0,573.0,206.0,-282.0,130.0,-855.0,-421.0
56.0,-214.0,-146.0,573.0,203.0,-270.0,133.0,-815.0,-427.0
61.0,-206.0,-150.0,553.0,203.0,-259.0,144.0,-780.0,-430.0
61.0,-197.0,-153.0,514.0,203.0,-252.0,149.0,-753.0,-438.0
58.0,-191.0,-145.0,462.0,209.0,-245.0,144.0,-732.0,-428.0
61.0,-190.0,-146.0,405.0,218.0,-240.0,154.0,-717.0,-424.0
62.0,-191.0,-145.0,346.0,228.0,-238.0,149.0,-715.0,-423.0
63.0,-193.0,-141.0,296.0,242.0,-238.0,147.0,-716.0,-410.0
58.0,-191.0,-140.0,256.0,258.0,-238.0,132.0,-719.0,-397.0
54.0,-192.0,-137.0,228.0,273.0,-245.0,126.0,-726.0,-395.0
54.0,-194.0,-137.0,209.0,287.0,-252.0,120.0,-738.0,-377.0
50.0,-196.0,-131.0,203.0,297.0,-266.0,106.0,-746.0,-372.0
46.0,-196.0,-134.0,205.0,304.0,-280.0,92.0,-753.0,-366.0
42.0,-204.0,-135.0,211.0,308.0,-296.0,82.0,-759.0,-364.0
40.0,-206.0,-130.0,229.0,311.0,-314.0,60.0,-769.0,-360.0
33.0,-206.0,-133.0,252.0,310.0,-336.0,46.0,-775.0,-366.0
30.0,-207.0,-132.0,280.0,309.0,-359.0,31.0,-777.0,-361.0
25.0,-207.0,-129.0,311.0,304.0,-380.0,18.0,-770.0,-363.0
19.0,-207.0,-134.0,344.0,298.0,-403.0,-7.0,-773.0,-371.0
13.0,-203.0,-134.0,377.0,286.0,-422.0,-25.0,-764.0,-373.0
12.0,-205.0,-138.0,408.0,275.0,-438.0,-36.0,-759.0,-378.0
8.0,-199.0,-136.0,434.0,261.0,-449.0,-46.0,-750.0,-382.0
7.0,-196.0,-139.0,456.0,245.0,-453.0,-60.0,-741.0,-383.0
5.0,-195.0,-139.0,468.0,232.0,-454.0,-57.0,-726.0,-394.0
7.0,-190.0,-137.0,467.0,220.0,-449.0,-58.0,-715.0,-385.0
5.0,-187.0,-135.0,454.0,211.0,-438.0,-51.0,-711.0,-394.0
8.0,-186.0,-138.0,433.0,204.0,-427.0,-44.0,-704.0,-386.0
13.0,-184.0,-132.0,406.0,200.0,-413.0,-37.0,-690.0,-382.0
14.0,-181.0,-134.0,378.0,199.0,-400.0,-26.0,-680.0,-376.0
19.0,-178.0,-135.0,350.0,199.0,-380.0,-11.0,-674.0,-369.0
19.0,-172.0,-130.0,322.0,200.0,-357.0,4.0,-664.0,-361.0
30.0,-176.0,-130.0,295.0,205.0,-332.0,17.0,-650.0,-351.0
36.0,-173.0,-126.0,272.0,214.0,-306.0,42.0,-647.0,-347.0
39.0,-171.0,-130.0,249.0,227.0,-285.0,62.0,-630.0,-340.0
42.0,-166.0,-125.0,228.0,244.0,-263.0,78.0,-619.0,-337.0
46.0,-167.0,-126.0,206.0,262.0,-247.0,98.0,-625.0,-342.0
50.0,-164.0,-129.0,182.0,282.0,-235.0,112.0,-616.0,-346.0
53.0,-165.0,-127.0,160.0,303.0,-224.0,124.0,-615.0,-340.0
58.0,-167.0,-127.0,138.0,320.0,-218.0,123.0,-624.0,-345.0
56.0,-170.0,-128.0,114.0,336.0,-215.0,130.0,-633.0,-343.0
57.0,-172.0,-126.0,94.0,347.0,-217.0,127.0,-645.0,-337.0
57.0,-181.0,-126.0,81.0,356.0,-218.0,126.0,-656.0,-327.0
55.0,-182.0,-123.0,76.0,363.0,-219.0,126.0,-678.0,-321.0
49.0,-187.0,-118.0,75.0,370.0,-220.0,117.0,-685.0,-316.0
52.0,-189.0,-118.0,84.0,376.0,-219.0,114.0,-700.0,-317.0
51.0,-191.0,-118.0,103.0,382.0,-218.0,105.0,-712.0,-304.0
49.0,-194.0,-118.0,129.0,388.0,-216.0,95.0,-722.0,-307.0
47.0,-196.0,-121.0,156.0,390.0,-214.0,93.0,-734.0,-308.0
44.0,-198.0,-123.0,179.0,392.0,-213.0,85.0,-737.0,-315.0
41.0,-198.0,-118.0,195.0,392.0,-208.0,74.0,-738.0,-312.0
43.0,-196.0,-124.0,202.0,391.0,-204.0,69.0,-746.0,-320.0
38.0,-198.0,-123.0,206.0,391.0,-197.0,67.0,-752.0,-322.0
41.0,-199.0,-125.0,201.0,387.0,-190.0,69.0,-751.0,-325.0
44.0,-203.0,-124.0,192.0,383.0,-179.0,68.0,-761.0,-329.0
48.0,-203.0,-123.0,176.0,380.0,-165.0,75.0,-768.0,-324.0
44.0,-206.0,-120.0,156.0,378.0,-152.0,80.0,-774.0,-320.0
46.0,-210.0,-119.0,134.0,374.0,-139.0,82.0,-792.0,-308.0
47.0,-215.0,-119.0,116.0,370.0,-127.0,94.0,-806.0,-297.0
50.0,-219.0,-110.0,101.0,366.0,-114.0,107.0,-824.0,-274.0
52.0,-225.0,-106.0,92.0,363.0,-104.0,113.0,-845.0,-259.0
52.0,-229.0,-97.0,93.0,361.0,-99.0,128.0,-868.0,-233.0
57.0,-239.0,-96.0,102.0,363.0,-94.0,139.0,-907.0,-202.0
56.0,-243.0,-92.0,128.0,366.0,-91.0,144.0,-930.0,-183.0
60.0,-257.0,-83.0,163.0,369.0,-90.0,153.0,-968.0,-167.0
56.0,-268.0,-76.0,204.0,366.0,-98.0,147.0,-1003.0,-150.0
54.0,-271.0,-72.0,250.0,361.0,-103.0,131.0,-1040.0,-135.0
52.0,-283.0,-76.0,297.0,353.0,-105.0,125.0,-1078.0,-133.0
48.0,-293.0,-77.0,342.0,341.0,-105.0,101.0,-1103.0,-133.0
42.0,-296.0,-78.0,377.0,331.0,-102.0,79.0,-1128.0,-140.0
35.0,-302.0,-75.0,396.0,313.0,-96.0,55.0,-1148.0,-147.0
30.0,-303.0,-77.0,400.0,292.0,-86.0,42.0,-1162.0,-152.0
20.0,-308.0,-84.0,389.0,267.0,-73.0,15.0,-1177.0,-169.0
20.0,-314.0,-87.0,369.0,241.0,-54.0,1.0,-1187.0,-185.0
12.0,-311.0,-92.0,337.0,216.0,-32.0,-7.0,-1191.0,-201.0
17.0,-313.0,-94.0,297.0,187.0,-12.0,-11.0,-1198.0,-213.0
16.0,-318.0,-105.0,247.0,160.0,13.0,-18.0,-1200.0,-240.0
19.0,-314.0,-110.0,185.0,134.0,40.0,-14.0,-1206.0,-263.0
18.0,-311.0,-116.0,111.0,114.0,67.0,-11.0,-1195.0,-303.0
20.0,-308.0,-126.0,19.0,96.0,95.0,-8.0,-1186.0,-335.0
29.0,-306.0,-131.0,-92.0,82.0,125.0,12.0,-1179.0,-373.0
33.0,-305.0,-139.0,-209.0,70.0,151.0,44.0,-1173.0,-396.0
39.0,-304.0,-141.0,-339.0,56.0,174.0,60.0,-1171.0,-415.0
51.0,-306.0,-144.0,-473.0,46.0,190.0,94.0,-1173.0,-421.0
67.0,-310.0,-143.0,-598.0,47.0,193.0,152.0,-1183.0,-425.0
80.0,-318.0,-142.0,-695.0,55.0,183.0,214.0,-1208.0,-410.0
98.0,-332.0,-133.0,-749.0,68.0,156.0,281.0,-1252.0,-392.0
114.0,-340.0,-118.0,-748.0,79.0,114.0,333.0,-1282.0,-358.0
116.0,-356.0,-119.0,-692.0,88.0,59.0,371.0,-1340.0,-332.0
126.0,-372.0,-119.0,-584.0,94.0,-5.0,394.0,-1399.0,-325.0
127.0,-386.0,-121.0,-442.0,93.0,-73.0,400.0,-1458.0,-325.0
120.0,-399.0,-127.0,-283.0,87.0,-149.0,374.0,-1507.0,-353.0
88.0,-403.0,-142.0,-119.0,76.0,-224.0,259.0,-1515.0,-412.0
60.0,-400.0,-164.0,44.0,64.0,-258.0,154.0,-1524.0,-490.0
33.0,-393.0,-193.0,178.0,55.0,-248.0,54.0,-1510.0,-602.0
3.0,-383.0,-212.0,235.0,49.0,-221.0,-65.0,-1475.0,-703.0
-31.0,-370.0,-228.0,198.0,35.0,-162.0,-189.0,-1431.0,-773.0
-54.0,-354.0,-237.0,79.0,-4.0,-68.0,-286.0,-1383.0,-799.0
-69.0,-328.0,-238.0,-101.0,-68.0,49.0,-352.0,-1313.0,-788.0
-83.0,-321.0,-227.0,-297.0,-145.0,169.0,-406.0,-1242.0,-752.0
-92.0,-307.0,-208.0,-484.0,-223.0,283.0,-435.0,-1185.0,-698.0
-92.0,-291.0,-193.0,-651.0,-292.0,383.0,-446.0,-1125.0,-627.0
-88.0,-276.0,-175.0,-790.0,-350.0,464.0,-423.0,-1075.0,-546.0
-79.0,-262.0,-155.0,-894.0,-404.0,524.0,-390.0,-1011.0,-465.0
-57.0,-253.0,-137.0,-969.0,-454.0,569.0,-320.0,-965.0,-402.0
-43.0,-238.0,-125.0,-1010.0,-492.0,598.0,-254.0,-923.0,-343.0
-23.0,-232.0,-119.0,-1020.0,-517.0,614.0,-184.0,-886.0,-306.0
-6.0,-223.0,-113.0,-1004.0,-526.0,620.0,-110.0,-848.0,-283.0
12.0,-224.0,-102.0,-968.0,-521.0,619.0,-54.0,-823.0,-283.0
27.0,-215.0,-118.0,-923.0,-503.0,614.0,9.0,-808.0,-296.0
38.0,-210.0,-121.0,-875.0,-478.0,600.0,50.0,-792.0,-307.0
45.0,-206.0,-124.0,-829.0,-449.0,583.0,79.0,-773.0,-327.0
54.0,-203.0,-128.0,-781.0,-417.0,561.0,111.0,-763.0,-346.0
59.0,-206.0,-133.0,-734.0,-384.0,533.0,131.0,-760.0,-376.0
60.0,-206.0,-143.0,-693.0,-345.0,504.0,134.0,-766.0,-398.0
57.0,-205.0,-148.0,-657.0,-303.0,473.0,138.0,-778.0,-417.0
57.0,-213.0,-143.0,-638.0,-258.0,446.0,135.0,-798.0,-428.0
54.0,-219.0,-148.0,-629.0,-215.0,424.0,114.0,-823.0,-441.0
50.0,-226.0,-154.0,-637.0,-175.0,412.0,103.0,-851.0,-444.0
47.0,-235.0,-146.0,-658.0,-143.0,404.0,87.0,-888.0,-461.0
38.0,-247.0,-157.0,-687.0,-118.0,399.0,74.0,-947.0,-459.0
34.0,-265.0,-154.0,-712.0,-98.0,395.0,51.0,-1001.0,-457.0
30.0,-278.0,-153.0,-726.0,-85.0,396.0,33.0,-1060.0,-457.0
26.0,-292.0,-156.0,-722.0,-77.0,398.0,12.0,-1111.0,-450.0
22.0,-304.0,-152.0,-689.0,-77.0,401.0,6.0,-1152.0,-439.0
20.0,-314.0,-143.0,-622.0,-89.0,400.0,-2.0,-1180.0,-426.0
15.0,-318.0,-147.0,-520.0,-107.0,387.0,-17.0,-1193.0,-416.0
17.0,-320.0,-137.0,-387.0,-131.0,374.0,-26.0,-1188.0,-402.0
16.0,-316.0,-134.0,-229.0,-155.0,348.0,-31.0,-1171.0,-385.0
13.0,-308.0,-130.0,-56.0,-178.0,316.0,-37.0,-1145.0,-375.0
9.0,-297.0,-135.0,115.0,-202.0,280.0,-44.0,-1104.0,-372.0
6.0,-280.0,-132.0,266.0,-222.0,245.0,-58.0,-1062.0,-365.0
3.0,-271.0,-131.0,382.0,-241.0,218.0,-76.0,-1017.0,-368.0
0.0,-256.0,-134.0,459.0,-259.0,199.0,-92.0,-979.0,-359.0
0.0,-253.0,-129.0,503.0,-276.0,188.0,-103.0,-946.0,-366.0
-5.0,-242.0,-133.0,520.0,-296.0,186.0,-110.0,-922.0,-372.0
-9.0,-234.0,-131.0,511.0,-315.0,188.0,-130.0,-903.0,-373.0
-13.0,-226.0,-134.0,489.0,-330.0,191.0,-126.0,-870.0,-379.0
-12.0,-226.0,-133.0,453.0,-344.0,194.0,-143.0,-853.0,-379.0
-15.0,-220.0,-139.0,410.0,-356.0,197.0,-142.0,-828.0,-383.0
-16.0,-211.0,-135.0,358.0,-367.0,196.0,-153.0,-813.0,-393.0
-20.0,-203.0,-136.0,300.0,-378.0,195.0,-154.0,-795.0,-395.0
-17.0,-204.0,-141.0,241.0,-389.0,193.0,-158.0,-781.0,-397.0
-20.0,-201.0,-138.0,183.0,-399.0,189.0,-150.0,-770.0,-394.0
-15.0,-200.0,-142.0,126.0,-406.0,183.0,-152.0,-763.0,-397.0
-16.0,-201.0,-140.0,75.0,-412.0,176.0,-151.0,-766.0,-395.0
-15.0,-201.0,-138.0,32.0,-415.0,169.0,-144.0,-756.0,-391.0
-16.0,-203.0,-146.0,1.0,-417.0,162.0,-145.0,-755.0,-392.0
-16.0,-203.0,-139.0,-20.0,-423.0,152.0,-141.0,-766.0,-393.0
-14.0,-203.0,-135.0,-32.0,-428.0,141.0,-146.0,-765.0,-400.0
-14.0,-205.0,-138.0,-34.0,-437.0,131.0,-148.0,-779.0,-403.0
-22.0,-207.0,-140.0,-31.0,-443.0,124.0,-158.0,-787.0,-413.0
-18.0,-214.0,-141.0,-24.0,-448.0,120.0,-168.0,-799.0,-406.0
-23.0,-216.0,-142.0,-11.0,-449.0,118.0,-175.0,-808.0,-421.0
-28.0,-215.0,-143.0,3.0,-448.0,118.0,-182.0,-818.0,-415.0
-23.0,-222.0,-134.0,22.0,-445.0,120.0,-182.0,-828.0,-404.0
-25.0,-225.0,-139.0,45.0,-440.0,123.0,-186.0,-835.0,-399.0
-22.0,-225.0,-137.0,70.0,-435.0,122.0,-178.0,-838.0,-389.0
-19.0,-223.0,-134.0,99.0,-430.0,122.0,-163.0,-833.0,-380.0
-15.0,-225.0,-131.0,134.0,-423.0,119.0,-156.0,-824.0,-370.0
-13.0,-218.0,-129.0,168.0,-416.0,117.0,-149.0,-811.0,-367.0
-10.0,-214.0,-129.0,204.0,-412.0,118.0,-140.0,-800.0,-361.0
-9.0,-206.0,-130.0,234.0,-408.0,122.0,-115.0,-783.0,-351.0
-1.0,-203.0,-130.0,260.0,-405.0,126.0,-102.0,-765.0,-345.0
1.0,-201.0,-129.0,281.0,-405.0,131.0,-83.0,-756.0,-339.0
1.0,-195.0,-128.0,295.0,-403.0,137.0,-68.0,-741.0,-345.0
6.0,-192.0,-127.0,307.0,-406.0,138.0,-66.0,-726.0,-342.0
5.0,-190.0,-126.0,310.0,-410.0,140.0,-60.0,-718.0,-346.0
4.0,-186.0,-130.0,304.0,-414.0,140.0,-61.0,-712.0,-342.0
5.0,-191.0,-131.0,297.0,-420.0,136.0,-61.0,-708.0,-340.0
4.0,-187.0,-127.0,289.0,-426.0,133.0,-66.0,-706.0,-335.0
3.0,-194.0,-123.0,281.0,-432.0,126.0,-77.0,-714.0,-333.0
1.0,-192.0,-126.0,274.0,-438.0,119.0,-83.0,-719.0,-324.0
0.0,-191.0,-122.0,268.0,-442.0,112.0,-92.0,-722.0,-322.0
-1.0,-193.0,-119.0,260.0,-445.0,102.0,-96.0,-722.0,-324.0
-2.0,-193.0,-122.0,251.0,-447.0,97.0,-100.0,-723.0,-320.0
-4.0,-192.0,-119.0,240.0,-450.0,92.0,-105.0,-723.0,-312.0
-4.0,-191.0,-120.0,229.0,-448.0,86.0,-105.0,-722.0,-316.0
0.0,-192.0,-124.0,214.0,-445.0,86.0,-104.0,-714.0,-315.0
-2.0,-187.0,-123.0,197.0,-440.0,86.0,-103.0,-710.0,-307.0
-2.0,-188.0,-123.0,182.0,-432.0,90.0,-101.0,-701.0,-303.0
-2.0,-185.0,-118.0,168.0,-418.0,96.0,-103.0,-691.0,-301.0
-5.0,-184.0,-116.0,157.0,-404.0,103.0,-104.0,-691.0,-293.0
-1.0,-182.0,-113.0,158.0,-385.0,107.0,-107.0,-674.0,-287.0
-5.0,-183.0,-118.0,162.0,-366.0,114.0,-108.0,-669.0,-287.0
-1.0,-180.0,-114.0,171.0,-346.0,119.0,-110.0,-671.0,-289.0
-4.0,-179.0,-113.0,184.0,-319.0,125.0,-114.0,-667.0,-286.0
-9.0,-179.0,-112.0,195.0,-292.0,131.0,-115.0,-672.0,-286.0
-4.0,-183.0,-113.0,206.0,-262.0,134.0,-118.0,-670.0,-277.0
-5.0,-186.0,-109.0,216.0,-230.0,134.0,-116.0,-678.0,-277.0
-4.0,-189.0,-110.0,222.0,-196.0,134.0,-117.0,-686.0,-279.0
-10.0,-185.0,-113.0,224.0,-167.0,132.0,-122.0,-711.0,-276.0
-8.0,-193.0,-113.0,218.0,-141.0,126.0,-119.0,-717.0,-269.0
-7.0,-192.0,-110.0,212.0,-119.0,120.0,-122.0,-730.0,-265.0
-10.0,-195.0,-107.0,203.0,-101.0,113.0,-127.0,-750.0,-264.0
-11.0,-199.0,-108.0,196.0,-86.0,104.0,-132.0,-762.0,-259.0
-14.0,-206.0,-105.0,192.0,-75.0,98.0,-135.0,-784.0,-258.0
-11.0,-210.0,-103.0,190.0,-67.0,93.0,-140.0,-801.0,-253.0
-13.0,-216.0,-104.0,188.0,-63.0,86.0,-141.0,-817.0,-245.0
-13.0,-222.0,-103.0,186.0,-57.0,82.0,-142.0,-834.0,-239.0
-14.0,-227.0,-101.0,188.0,-56.0,79.0,-141.0,-852.0,-234.0
-16.0,-231.0,-91.0,192.0,-55.0,74.0,-149.0,-869.0,-225.0
-18.0,-236.0,-93.0,202.0,-55.0,71.0,-148.0,-890.0,-225.0
-17.0,-239.0,-96.0,211.0,-56.0,71.0,-148.0,-895.0,-217.0
-15.0,-243.0,-94.0,218.0,-58.0,70.0,-150.0,-921.0,-214.0
-17.0,-242.0,-95.0,223.0,-59.0,67.0,-146.0,-915.0,-211.0
-15.0,-242.0,-94.0,224.0,-61.0,64.0,-147.0,-928.0,-204.0
-18.0,-244.0,-92.0,222.0,-61.0,60.0,-143.0,-931.0,-196.0
-13.0,-240.0,-89.0,215.0,-61.0,55.0,-144.0,-921.0,-191.0
-13.0,-237.0,-88.0,206.0,-60.0,47.0,-141.0,-909.0,-196.0
-11.0,-234.0,-87.0,193.0,-58.0,42.0,-130.0,-890.0,-188.0
-9.0,-231.0,-86.0,183.0,-56.0,34.0,-135.0,-875.0,-189.0
-9.0,-227.0,-85.0,171.0,-53.0,27.0,-132.0,-853.0,-188.0
-9.0,-224.0,-94.0,161.0,-47.0,18.0,-130.0,-838.0,-195.0
-8.0,-213.0,-84.0,153.0,-35.0,12.0,-123.0,-826.0,-188.0
-10.0,-211.0,-91.0,148.0,-20.0,8.0,-121.0,-807.0,-200.0
-7.0,-206.0,-93.0,145.0,-2.0,5.0,-119.0,-794.0,-202.0
-7.0,-209.0,-97.0,143.0,19.0,4.0,-115.0,-787.0,-205.0
-7.0,-206.0,-95.0,140.0,42.0,3.0,-109.0,-779.0,-217.0
-2.0,-204.0,-99.0,133.0,62.0,2.0,-110.0,-770.0,-229.0
-6.0,-203.0,-103.0,122.0,81.0,3.0,-111.0,-777.0,-233.0
-2.0,-210.0,-105.0,107.0,100.0,2.0,-108.0,-785.0,-251.0
-4.0,-211.0,-105.0,88.0,121.0,-1.0,-106.0,-803.0,-258.0
-7.0,-218.0,-109.0,66.0,139.0,-6.0,-107.0,-824.0,-265.0
-8.0,-225.0,-105.0,40.0,157.0,-14.0,-118.0,-858.0,-269.0
-5.0,-229.0,-108.0,7.0,175.0,-26.0,-121.0,-882.0,-273.0
-12.0,-238.0,-111.0,-36.0,191.0,-40.0,-128.0,-916.0,-275.0
-9.0,-247.0,-111.0,-88.0,200.0,-56.0,-136.0,-946.0,-266.0
-12.0,-256.0,-105.0,-146.0,205.0,-68.0,-146.0,-970.0,-254.0
-18.0,-259.0,-102.0,-205.0,207.0,-80.0,-148.0,-999.0,-247.0
-16.0,-269.0,-99.0,-262.0,205.0,-89.0,-158.0,-1026.0,-235.0
-16.0,-278.0,-96.0,-312.0,202.0,-93.0,-159.0,-1060.0,-222.0
-21.0,-283.0,-96.0,-354.0,197.0,-95.0,-163.0,-1088.0,-215.0
-19.0,-289.0,-93.0,-383.0,195.0,-95.0,-169.0,-1107.0,-209.0
-21.0,-295.0,-92.0,-399.0,198.0,-89.0,-168.0,-1131.0,-202.0
-22.0,-302.0,-94.0,-408.0,206.0,-81.0,-173.0,-1157.0,-199.0
-20.0,-310.0,-97.0,-407.0,217.0,-72.0,-168.0,-1175.0,-205.0
-22.0,-318.0,-95.0,-403.0,235.0,-61.0,-164.0,-1200.0,-209.0
-15.0,-322.0,-95.0,-391.0,260.0,-51.0,-151.0,-1232.0,-220.0
-16.0,-335.0,-103.0,-376.0,290.0,-38.0,-144.0,-1270.0,-246.0
-15.0,-341.0,-110.0,-356.0,321.0,-23.0,-146.0,-1306.0,-275.0
-19.0,-345.0,-120.0,-327.0,353.0,-8.0,-153.0,-1325.0,-321.0
-26.0,-350.0,-134.0,-284.0,380.0,7.0,-178.0,-1344.0,-366.0
-34.0,-355.0,-143.0,-228.0,404.0,24.0,-210.0,-1357.0,-412.0
-44.0,-362.0,-153.0,-170.0,417.0,43.0,-244.0,-1370.0,-445.0
-55.0,-365.0,-156.0,-110.0,420.0,63.0,-289.0,-1393.0,-477.0
-64.0,-372.0,-161.0,-57.0,417.0,86.0,-329.0,-1410.0,-498.0
-74.0,-375.0,-170.0,-21.0,417.0,112.0,-371.0,-1434.0,-511.0
-87.0,-390.0,-169.0,2.0,419.0,144.0,-409.0,-1473.0,-518.0
-92.0,-389.0,-171.0,11.0,422.0,170.0,-446.0,-1505.0,-518.0
-98.0,-404.0,-171.0,9.0,417.0,194.0,-467.0,-1545.0,-520.0
-104.0,-410.0,-169.0,0.0,404.0,223.0,-475.0,-1590.0,-522.0
-100.0,-421.0,-169.0,-22.0,377.0,251.0,-473.0,-1613.0,-536.0
-96.0,-420.0,-172.0,-72.0,335.0,270.0,-448.0,-1635.0,-543.0
-81.0,-417.0,-176.0,-163.0,280.0,269.0,-404.0,-1626.0,-555.0
-61.0,-413.0,-170.0,-296.0,219.0,244.0,-333.0,-1616.0,-541.0
-41.0,-402.0,-168.0,-456.0,155.0,200.0,-249.0,-1569.0,-513.0
-16.0,-390.0,-151.0,-626.0,86.0,138.0,-166.0,-1500.0,-466.0
-1.0,-376.0,-146.0,-767.0,24.0,65.0,-80.0,-1439.0,-430.0
9.0,-355.0,-137.0,-867.0,-30.0,-12.0,-45.0,-1369.0,-397.0
21.0,-339.0,-128.0,-928.0,-71.0,-91.0,-16.0,-1290.0,-367.0
20.0,-316.0,-128.0,-953.0,-100.0,-167.0,-2.0,-1185.0,-336.0
22.0,-293.0,-118.0,-949.0,-115.0,-233.0,2.0,-1108.0,-320.0
26.0,-272.0,-118.0,-923.0,-115.0,-290.0,6.0,-1015.0,-305.0
25.0,-256.0,-119.0,-883.0,-104.0,-339.0,4.0,-954.0,-305.0
23.0,-239.0,-117.0,-834.0,-78.0,-380.0,2.0,-894.0,-309.0
19.0,-224.0,-122.0,-789.0,-44.0,-409.0,-13.0,-844.0,-325.0
16.0,-217.0,-128.0,-748.0,-5.0,-430.0,-29.0,-814.0,-338.0
12.0,-209.0,-132.0,-715.0,34.0,-442.0,-35.0,-793.0,-362.0
6.0,-207.0,-136.0,-690.0,71.0,-443.0,-55.0,-784.0,-386.0
4.0,-209.0,-137.0,-675.0,100.0,-437.0,-71.0,-782.0,-405.0
1.0,-212.0,-145.0,-656.0,119.0,-425.0,-75.0,-794.0,-419.0
1.0,-216.0,-148.0,-629.0,122.0,-405.0,-78.0,-807.0,-438.0
2.0,-225.0,-154.0,-589.0,114.0,-386.0,-79.0,-827.0,-446.0
0.0,-226.0,-155.0,-543.0,96.0,-369.0,-87.0,-845.0,-449.0
2.0,-233.0,-155.0,-501.0,75.0,-352.0,-78.0,-864.0,-458.0
4.0,-238.0,-154.0,-466.0,56.0,-338.0,-68.0,-885.0,-465.0
5.0,-242.0,-158.0,-441.0,42.0,-329.0,-62.0,-919.0,-463.0
5.0,-251.0,-159.0,-425.0,34.0,-328.0,-51.0,-944.0,-461.0
8.0,-263.0,-159.0,-412.0,29.0,-334.0,-57.0,-972.0,-460.0
7.0,-267.0,-153.0,-400.0,25.0,-346.0,-51.0,-1020.0,-460.0
3.0,-283.0,-157.0,-376.0,17.0,-360.0,-59.0,-1060.0,-454.0
5.0,-292.0,-150.0,-339.0,6.0,-377.0,-66.0,-1087.0,-445.0
2.0,-296.0,-146.0,-281.0,-7.0,-390.0,-70.0,-1123.0,-434.0
2.0,-301.0,-145.0,-200.0,-16.0,-399.0,-72.0,-1127.0,-420.0
2.0,-299.0,-137.0,-106.0,-25.0,-403.0,-71.0,-1122.0,-405.0
1.0,-296.0,-132.0,-6.0,-29.0,-402.0,-63.0,-1120.0,-375.0
4.0,-291.0,-127.0,89.0,-33.0,-395.0,-63.0,-1100.0,-367.0
11.0,-283.0,-119.0,174.0,-34.0,-386.0,-46.0,-1077.0,-335.0
11.0,-278.0,-119.0,249.0,-37.0,-382.0,-34.0,-1048.0,-319.0
18.0,-273.0,-118.0,314.0,-40.0,-386.0,-31.0,-1016.0,-314.0
21.0,-266.0,-118.0,369.0,-40.0,-395.0,-11.0,-990.0,-306.0
23.0,-258.0,-107.0,417.0,-38.0,-409.0,4.0,-962.0,-302.0
26.0,-250.0,-115.0,461.0,-29.0,-427.0,17.0,-935.0,-315.0
30.0,-241.0,-120.0,494.0,-17.0,-445.0,30.0,-911.0,-320.0
35.0,-234.0,-123.0,514.0,-2.0,-461.0,46.0,-877.0,-330.0
38.0,-226.0,-127.0,517.0,15.0,-470.0,64.0,-851.0,-344.0
42.0,-221.0,-129.0,506.0,31.0,-474.0,82.0,-830.0,-358.0
50.0,-216.0,-136.0,484.0,45.0,-474.0,95.0,-817.0,-371.0
51.0,-209.0,-136.0,458.0,61.0,-465.0,115.0,-801.0,-383.0
58.0,-206.0,-142.0,429.0,77.0,-451.0,134.0,-789.0,-397.0
60.0,-204.0,-142.0,400.0,91.0,-434.0,150.0,-781.0,-413.0
62.0,-206.0,-147.0,377.0,107.0,-416.0,167.0,-775.0,-420.0
64.0,-202.0,-141.0,359.0,124.0,-397.0,172.0,-764.0,-431.0
72.0,-201.0,-147.0,344.0,143.0,-379.0,182.0,-759.0,-428.0
70.0,-196.0,-144.0,326.0,161.0,-361.0,189.0,-751.0,-427.0
70.0,-193.0,-147.0,308.0,179.0,-345.0,189.0,-729.0,-427.0
70.0,-190.0,-144.0,287.0,198.0,-332.0,191.0,-715.0,-418.0
71.0,-189.0,-143.0,260.0,214.0,-324.0,186.0,-706.0,-413.0
67.0,-189.0,-141.0,237.0,225.0,-314.0,177.0,-703.0,-400.0
65.0,-189.0,-142.0,214.0,233.0,-308.0,174.0,-705.0,-390.0
62.0,-188.0,-134.0,200.0,238.0,-303.0,158.0,-705.0,-383.0
63.0,-189.0,-133.0,185.0,236.0,-301.0,150.0,-705.0,-375.0
58.0,-188.0,-129.0,179.0,231.0,-303.0,140.0,-714.0,-365.0
52.0,-189.0,-128.0,180.0,222.0,-306.0,123.0,-718.0,-357.0
47.0,-192.0,-126.0,184.0,210.0,-313.0,108.0,-720.0,-349.0
44.0,-197.0,-129.0,195.0,200.0,-322.0,90.0,-732.0,-336.0
38.0,-196.0,-125.0,209.0,192.0,-333.0,80.0,-739.0,-330.0
36.0,-197.0,-125.0,228.0,183.0,-343.0,57.0,-738.0,-324.0
31.0,-197.0,-121.0,253.0,178.0,-353.0,42.0,-734.0,-321.0
29.0,-196.0,-120.0,286.0,177.0,-363.0,27.0,-730.0,-310.0
25.0,-192.0,-119.0,320.0,175.0,-370.0,14.0,-722.0,-311.0
26.0,-192.0,-124.0,354.0,175.0,-373.0,5.0,-707.0,-310.0
22.0,-190.0,-120.0,384.0,177.0,-372.0,-1.0,-702.0,-312.0
21.0,-185.0,-121.0,411.0,178.0,-367.0,-3.0,-682.0,-311.0
17.0,-170.0,-118.0,428.0,180.0,-357.0,-13.0,-659.0,-313.0
18.0,-173.0,-122.0,430.0,183.0,-344.0,-17.0,-644.0,-321.0
20.0,-167.0,-122.0,420.0,186.0,-329.0,-13.0,-625.0,-316.0
23.0,-165.0,-122.0,402.0,191.0,-309.0,-6.0,-612.0,-317.0
21.0,-160.0,-120.0,377.0,195.0,-287.0,2.0,-596.0,-318.0
26.0,-155.0,-124.0,346.0,203.0,-264.0,9.0,-583.0,-318.0
24.0,-150.0,-122.0,309.0,214.0,-237.0,13.0,-561.0,-319.0
31.0,-150.0,-126.0,274.0,231.0,-209.0,24.0,-542.0,-322.0
30.0,-143.0,-123.0,234.0,250.0,-184.0,34.0,-539.0,-330.0
33.0,-142.0,-124.0,190.0,272.0,-161.0,45.0,-530.0,-328.0
38.0,-138.0,-125.0,148.0,294.0,-138.0,57.0,-529.0,-333.0
42.0,-142.0,-123.0,107.0,317.0,-121.0,63.0,-533.0,-332.0
41.0,-145.0,-128.0,65.0,338.0,-108.0,70.0,-541.0,-333.0
43.0,-148.0,-125.0,25.0,360.0,-97.0,80.0,-551.0,-329.0
46.0,-150.0,-124.0,-15.0,380.0,-89.0,87.0,-568.0,-328.0
47.0,-156.0,-123.0,-52.0,401.0,-84.0,85.0,-584.0,-324.0
45.0,-161.0,-121.0,-89.0,421.0,-81.0,90.0,-597.0,-321.0
46.0,-163.0,-119.0,-121.0,438.0,-82.0,93.0,-618.0,-316.0
50.0,-173.0,-118.0,-147.0,453.0,-86.0,95.0,-638.0,-306.0
50.0,-181.0,-118.0,-161.0,465.0,-91.0,93.0,-661.0,-303.0
47.0,-185.0,-115.0,-164.0,473.0,-94.0,93.0,-689.0,-290.0
45.0,-195.0,-109.0,-156.0,478.0,-99.0,98.0,-712.0,-285.0
47.0,-195.0,-111.0,-141.0,478.0,-105.0,92.0,-732.0,-281.0
45.0,-201.0,-110.0,-118.0,471.0,-109.0,92.0,-754.0,-272.0
45.0,-206.0,-110.0,-91.0,459.0,-111.0,93.0,-766.0,-268.0
48.0,-208.0,-108.0,-62.0,446.0,-113.0,95.0,-787.0,-267.0
46.0,-213.0,-108.0,-31.0,433.0,-114.0,92.0,-797.0,-269.0
48.0,-220.0,-109.0,2.0,420.0,-112.0,86.0,-818.0,-270.0
39.0,-223.0,-111.0,34.0,406.0,-107.0,87.0,-829.0,-273.0
45.0,-228.0,-107.0,62.0,391.0,-101.0,87.0,-850.0,-270.0
46.0,-229.0,-110.0,84.0,376.0,-96.0,91.0,-865.0,-277.0
46.0,-235.0,-109.0,100.0,362.0,-91.0,88.0,-887.0,-272.0
45.0,-240.0,-107.0,108.0,349.0,-85.0,90.0,-910.0,-274.0
43.0,-248.0,-106.0,108.0,336.0,-78.0,93.0,-933.0,-263.0
43.0,-250.0,-103.0,105.0,318.0,-71.0,86.0,-960.0,-257.0
44.0,-257.0,-101.0,101.0,299.0,-59.0,75.0,-986.0,-244.0
39.0,-264.0,-96.0,101.0,278.0,-49.0,74.0,-1015.0,-223.0
37.0,-271.0,-94.0,103.0,258.0,-36.0,67.0,-1044.0,-219.0
40.0,-282.0,-92.0,107.0,241.0,-23.0,61.0,-1062.0,-206.0
34.0,-286.0,-91.0,116.0,224.0,-7.0,50.0,-1098.0,-194.0
32.0,-293.0,-83.0,124.0,211.0,8.0,42.0,-1113.0,-183.0
29.0,-296.0,-84.0,129.0,198.0,30.0,42.0,-1134.0,-179.0
29.0,-299.0,-82.0,127.0,186.0,55.0,39.0,-1153.0,-175.0
30.0,-307.0,-82.0,117.0,174.0,79.0,41.0,-1168.0,-169.0
33.0,-308.0,-83.0,100.0,165.0,103.0,52.0,-1180.0,-172.0
35.0,-313.0,-85.0,79.0,158.0,122.0,53.0,-1188.0,-171.0
38.0,-317.0,-85.0,53.0,151.0,136.0,56.0,-1199.0,-178.0
35.0,-313.0,-88.0,21.0,141.0,146.0,59.0,-1198.0,-190.0
31.0,-309.0,-95.0,-19.0,130.0,154.0,45.0,-1188.0,-215.0
28.0,-305.0,-108.0,-72.0,122.0,162.0,22.0,-1172.0,-253.0
23.0,-296.0,-111.0,-148.0,112.0,175.0,3.0,-1146.0,-296.0
23.0,-289.0,-127.0,-238.0,103.0,190.0,21.0,-1124.0,-339.0
34.0,-283.0,-135.0,-345.0,93.0,212.0,44.0,-1110.0,-381.0
40.0,-283.0,-145.0,-457.0,81.0,233.0,68.0,-1105.0,-413.0
58.0,-284.0,-152.0,-574.0,73.0,256.0,112.0,-1105.0,-454.0
66.0,-285.0,-160.0,-681.0,79.0,268.0,194.0,-1110.0,-489.0
100.0,-295.0,-172.0,-764.0,102.0,258.0,268.0,-1127.0,-524.0
118.0,-309.0,-179.0,-812.0,132.0,226.0,342.0,-1154.0,-546.0
129.0,-320.0,-174.0,-822.0,169.0,170.0,405.0,-1203.0,-554.0
138.0,-341.0,-176.0,-798.0,204.0,84.0,440.0,-1281.0,-548.0
139.0,-368.0,-171.0,-737.0,222.0,-22.0,448.0,-1369.0,-522.0
124.0,-388.0,-160.0,-646.0,215.0,-137.0,405.0,-1465.0,-514.0
112.0,-421.0,-170.0,-516.0,189.0,-219.0,348.0,-1558.0,-512.0
93.0,-446.0,-179.0,-365.0,158.0,-289.0,292.0,-1668.0,-551.0
62.0,-457.0,-190.0,-217.0,150.0,-344.0,170.0,-1725.0,-599.0
28.0,-457.0,-199.0,-76.0,163.0,-352.0,32.0,-1740.0,-647.0
-17.0,-448.0,-215.0,33.0,182.0,-311.0,-126.0,-1716.0,-714.0
-61.0,-423.0,-227.0,89.0,186.0,-225.0,-284.0,-1629.0,-779.0
-95.0,-394.0,-236.0,70.0,165.0,-105.0,-420.0,-1534.0,-790.0
-113.0,-361.0,-232.0,-14.0,113.0,40.0,-519.0,-1402.0,-782.0
-118.0,-333.0,-219.0,-135.0,37.0,191.0,-534.0,-1287.0,-735.0
-121.0,-308.0,-204.0,-271.0,-53.0,323.0,-536.0,-1178.0,-660.0
-116.0,-284.0,-185.0,-410.0,-150.0,434.0,-521.0,-1102.0,-579.0
-103.0,-265.0,-164.0,-543.0,-248.0,525.0,-472.0,-1022.0,-502.0
-85.0,-252.0,-144.0,-662.0,-341.0,593.0,-408.0,-970.0,-430.0
-62.0,-249.0,-131.0,-762.0,-420.0,640.0,-333.0,-934.0,-367.0
-48.0,-241.0,-119.0,-837.0,-486.0,666.0,-270.0,-913.0,-303.0
-29.0,-232.0,-106.0,-884.0,-530.0,678.0,-194.0,-886.0,-261.0
-3.0,-229.0,-102.0,-900.0,-548.0,678.0,-114.0,-868.0,-228.0
9.0,-223.0,-95.0,-894.0,-540.0,662.0,-50.0,-834.0,-214.0
22.0,-218.0,-94.0,-867.0,-511.0,637.0,-4.0,-814.0,-205.0
32.0,-210.0,-93.0,-835.0,-477.0,608.0,33.0,-790.0,-207.0
40.0,-198.0,-93.0,-798.0,-440.0,579.0,58.0,-754.0,-216.0
44.0,-197.0,-104.0,-763.0,-403.0,551.0,79.0,-735.0,-238.0
42.0,-191.0,-110.0,-739.0,-366.0,519.0,79.0,-720.0,-256.0
47.0,-191.0,-115.0,-724.0,-325.0,495.0,81.0,-716.0,-274.0
44.0,-192.0,-113.0,-718.0,-285.0,477.0,80.0,-733.0,-305.0
42.0,-203.0,-126.0,-717.0,-242.0,461.0,72.0,-758.0,-335.0
42.0,-215.0,-132.0,-715.0,-199.0,451.0,68.0,-799.0,-368.0
40.0,-224.0,-141.0,-703.0,-156.0,439.0,61.0,-843.0,-405.0
36.0,-239.0,-152.0,-677.0,-116.0,428.0,47.0,-900.0,-440.0
32.0,-256.0,-159.0,-649.0,-82.0,417.0,34.0,-957.0,-476.0
23.0,-270.0,-169.0,-617.0,-59.0,407.0,7.0,-1015.0,-515.0
21.0,-286.0,-177.0,-581.0,-50.0,397.0,-17.0,-1067.0,-553.0
9.0,-295.0,-185.0,-531.0,-55.0,385.0,-45.0,-1113.0,-580.0
0.0,-306.0,-188.0,-469.0,-70.0,371.0,-61.0,-1140.0,-589.0
3.0,-313.0,-185.0,-393.0,-92.0,351.0,-79.0,-1168.0,-589.0
-3.0,-315.0,-180.0,-308.0,-113.0,319.0,-107.0,-1167.0,-578.0
-9.0,-307.0,-173.0,-214.0,-135.0,287.0,-123.0,-1148.0,-541.0
-13.0,-297.0,-162.0,-106.0,-156.0,261.0,-123.0,-1121.0,-494.0
-7.0,-290.0,-148.0,6.0,-179.0,229.0,-117.0,-1098.0,-442.0
-8.0,-280.0,-139.0,111.0,-200.0,201.0,-119.0,-1046.0,-396.0
-10.0,-268.0,-128.0,198.0,-223.0,181.0,-111.0,-1002.0,-361.0
-5.0,-258.0,-122.0,270.0,-249.0,166.0,-112.0,-973.0,-322.0
-8.0,-251.0,-115.0,322.0,-277.0,159.0,-110.0,-956.0,-303.0
-11.0,-246.0,-114.0,356.0,-308.0,158.0,-110.0,-940.0,-287.0
-6.0,-243.0,-110.0,379.0,-336.0,163.0,-119.0,-930.0,-282.0
-8.0,-247.0,-111.0,393.0,-360.0,170.0,-115.0,-925.0,-276.0
-8.0,-244.0,-116.0,400.0,-375.0,175.0,-120.0,-919.0,-281.0
-8.0,-243.0,-113.0,409.0,-384.0,180.0,-119.0,-917.0,-295.0
-9.0,-241.0,-120.0,419.0,-387.0,183.0,-134.0,-915.0,-310.0
-10.0,-239.0,-125.0,423.0,-387.0,183.0,-124.0,-897.0,-328.0
-13.0,-234.0,-130.0,422.0,-384.0,180.0,-125.0,-883.0,-351.0
-11.0,-230.0,-133.0,411.0,-385.0,175.0,-119.0,-869.0,-369.0
-10.0,-225.0,-137.0,387.0,-389.0,165.0,-130.0,-858.0,-392.0
-12.0,-221.0,-142.0,355.0,-398.0,154.0,-130.0,-842.0,-407.0
-10.0,-216.0,-145.0,314.0,-406.0,140.0,-132.0,-826.0,-419.0
-9.0,-214.0,-147.0,265.0,-414.0,121.0,-124.0,-826.0,-438.0
-8.0,-215.0,-151.0,212.0,-422.0,95.0,-129.0,-814.0,-445.0
-18.0,-213.0,-143.0,160.0,-425.0,73.0,-153.0,-793.0,-437.0
-15.0,-209.0,-149.0,128.0,-428.0,70.0,-157.0,-790.0,-429.0
-15.0,-207.0,-145.0,112.0,-425.0,65.0,-149.0,-782.0,-425.0
-13.0,-205.0,-145.0,104.0,-423.0,60.0,-141.0,-769.0,-421.0
-17.0,-202.0,-139.0,105.0,-415.0,53.0,-150.0,-763.0,-411.0
-14.0,-199.0,-141.0,113.0,-404.0,50.0,-146.0,-756.0,-410.0
-17.0,-199.0,-140.0,123.0,-393.0,50.0,-146.0,-748.0,-403.0
-12.0,-196.0,-141.0,133.0,-381.0,50.0,-140.0,-736.0,-393.0
-11.0,-198.0,-137.0,144.0,-369.0,53.0,-139.0,-729.0,-382.0
-11.0,-194.0,-135.0,161.0,-359.0,57.0,-138.0,-726.0,-373.0
-14.0,-198.0,-130.0,181.0,-348.0,63.0,-135.0,-724.0,-369.0
-12.0,-194.0,-127.0,200.0,-338.0,68.0,-135.0,-717.0,-366.0
-6.0,-192.0,-130.0,219.0,-328.0,74.0,-129.0,-717.0,-357.0
-11.0,-191.0,-128.0,236.0,-315.0,81.0,-122.0,-706.0,-351.0
-8.0,-188.0,-129.0,251.0,-306.0,88.0,-122.0,-701.0,-358.0
-5.0,-185.0,-128.0,258.0,-295.0,97.0,-111.0,-689.0,-351.0
-3.0,-182.0,-127.0,259.0,-287.0,105.0,-111.0,-681.0,-344.0
-3.0,-178.0,-127.0,258.0,-281.0,111.0,-102.0,-674.0,-329.0
-3.0,-179.0,-126.0,254.0,-276.0,117.0,-98.0,-664.0,-327.0
0.0,-176.0,-122.0,245.0,-271.0,120.0,-93.0,-659.0,-318.0
0.0,-175.0,-118.0,239.0,-267.0,120.0,-94.0,-650.0,-321.0
3.0,-170.0,-113.0,233.0,-264.0,118.0,-91.0,-646.0,-310.0
1.0,-171.0,-119.0,227.0,-263.0,118.0,-93.0,-639.0,-314.0
-1.0,-168.0,-119.0,218.0,-262.0,115.0,-91.0,-630.0,-311.0
-2.0,-163.0,-123.0,206.0,-258.0,110.0,-97.0,-625.0,-309.0
0.0,-168.0,-123.0,191.0,-252.0,105.0,-100.0,-614.0,-308.0
-4.0,-162.0,-118.0,171.0,-242.0,101.0,-103.0,-613.0,-306.0
-2.0,-166.0,-117.0,150.0,-231.0,95.0,-104.0,-607.0,-301.0
-2.0,-165.0,-119.0,131.0,-219.0,88.0,-105.0,-609.0,-300.0
-2.0,-161.0,-116.0,110.0,-206.0,82.0,-105.0,-608.0,-292.0
-4.0,-163.0,-114.0,93.0,-196.0,78.0,-108.0,-616.0,-290.0
-3.0,-169.0,-110.0,79.0,-186.0,73.0,-110.0,-622.0,-277.0
-5.0,-172.0,-111.0,66.0,-179.0,73.0,-116.0,-628.0,-277.0
-11.0,-171.0,-110.0,56.0,-172.0,72.0,-120.0,-633.0,-268.0
-11.0,-172.0,-110.0,50.0,-165.0,74.0,-121.0,-645.0,-263.0
-9.0,-175.0,-103.0,46.0,-157.0,75.0,-131.0,-652.0,-257.0
-11.0,-178.0,-104.0,45.0,-148.0,77.0,-127.0,-661.0,-253.0
-12.0,-182.0,-103.0,44.0,-138.0,77.0,-133.0,-675.0,-242.0
-15.0,-182.0,-101.0,46.0,-129.0,78.0,-135.0,-682.0,-249.0
-11.0,-188.0,-99.0,49.0,-116.0,78.0,-143.0,-700.0,-243.0
-13.0,-191.0,-97.0,58.0,-103.0,77.0,-142.0,-712.0,-238.0
-16.0,-195.0,-99.0,70.0,-93.0,76.0,-149.0,-725.0,-233.0
-16.0,-200.0,-102.0,85.0,-85.0,76.0,-157.0,-739.0,-232.0
-19.0,-201.0,-103.0,101.0,-78.0,76.0,-154.0,-761.0,-234.0
-20.0,-208.0,-102.0,120.0,-72.0,77.0,-162.0,-786.0,-244.0
-20.0,-215.0,-104.0,135.0,-68.0,78.0,-166.0,-802.0,-245.0
-20.0,-217.0,-104.0,143.0,-61.0,78.0,-168.0,-818.0,-248.0
-24.0,-225.0,-104.0,145.0,-57.0,82.0,-174.0,-839.0,-251.0
-23.0,-226.0,-106.0,141.0,-54.0,86.0,-180.0,-860.0,-250.0
-25.0,-230.0,-101.0,138.0,-48.0,90.0,-183.0,-876.0,-249.0
-26.0,-235.0,-100.0,137.0,-44.0,91.0,-189.0,-894.0,-238.0
-26.0,-237.0,-98.0,134.0,-41.0,95.0,-188.0,-902.0,-233.0
-28.0,-240.0,-95.0,133.0,-36.0,101.0,-186.0,-917.0,-220.0
-27.0,-242.0,-94.0,132.0,-29.0,106.0,-180.0,-920.0,-213.0
-26.0,-238.0,-88.0,133.0,-21.0,108.0,-180.0,-919.0,-203.0
-21.0,-242.0,-90.0,135.0,-14.0,112.0,-174.0,-920.0,-191.0
-19.0,-243.0,-89.0,138.0,-5.0,116.0,-168.0,-918.0,-188.0
-18.0,-240.0,-85.0,138.0,3.0,118.0,-161.0,-918.0,-183.0
-13.0,-241.0,-88.0,134.0,12.0,119.0,-152.0,-907.0,-187.0
-13.0,-241.0,-87.0,127.0,22.0,115.0,-137.0,-910.0,-176.0
-8.0,-237.0,-85.0,121.0,35.0,106.0,-124.0,-909.0,-176.0
-4.0,-239.0,-86.0,113.0,51.0,96.0,-110.0,-895.0,-179.0
-5.0,-232.0,-85.0,106.0,69.0,84.0,-104.0,-884.0,-183.0
-1.0,-233.0,-83.0,99.0,90.0,71.0,-94.0,-880.0,-187.0
0.0,-230.0,-91.0,93.0,111.0,55.0,-89.0,-874.0,-191.0
-3.0,-223.0,-100.0,88.0,131.0,37.0,-89.0,-868.0,-199.0
0.0,-228.0,-93.0,86.0,149.0,23.0,-87.0,-864.0,-208.0
1.0,-230.0,-101.0,80.0,165.0,9.0,-85.0,-865.0,-222.0
0.0,-231.0,-98.0,70.0,186.0,-5.0,-90.0,-872.0,-235.0
0.0,-234.0,-105.0,56.0,206.0,-16.0,-92.0,-883.0,-253.0
0.0,-238.0,-110.0,34.0,225.0,-27.0,-97.0,-912.0,-266.0
-4.0,-243.0,-111.0,7.0,244.0,-37.0,-100.0,-936.0,-278.0
-3.0,-250.0,-117.0,-27.0,263.0,-47.0,-108.0,-955.0,-293.0
-9.0,-256.0,-114.0,-68.0,282.0,-54.0,-113.0,-981.0,-297.0
-8.0,-263.0,-118.0,-115.0,301.0,-62.0,-121.0,-1011.0,-303.0
-13.0,-274.0,-117.0,-167.0,317.0,-70.0,-128.0,-1046.0,-304.0
-23.0,-276.0,-119.0,-219.0,332.0,-78.0,-143.0,-1077.0,-303.0
-17.0,-288.0,-117.0,-270.0,344.0,-82.0,-154.0,-1104.0,-305.0
-21.0,-296.0,-120.0,-318.0,356.0,-86.0,-164.0,-1125.0,-308.0
-23.0,-299.0,-117.0,-362.0,367.0,-85.0,-176.0,-1145.0,-306.0
-27.0,-303.0,-121.0,-395.0,375.0,-83.0,-180.0,-1170.0,-311.0
-27.0,-313.0,-127.0,-429.0,384.0,-80.0,-188.0,-1189.0,-324.0
-31.0,-318.0,-125.0,-455.0,389.0,-76.0,-195.0,-1208.0,-346.0
-38.0,-325.0,-133.0,-475.0,391.0,-68.0,-217.0,-1239.0,-391.0
-48.0,-335.0,-143.0,-490.0,384.0,-58.0,-260.0,-1265.0,-430.0
-60.0,-336.0,-151.0,-496.0,374.0,-48.0,-323.0,-1281.0,-457.0
-74.0,-344.0,-158.0,-480.0,353.0,-29.0,-376.0,-1310.0,-473.0
-90.0,-358.0,-163.0,-433.0,322.0,1.0,-431.0,-1354.0,-480.0
-104.0,-369.0,-158.0,-362.0,286.0,43.0,-488.0,-1400.0,-485.0
-117.0,-384.0,-164.0,-273.0,254.0,96.0,-525.0,-1454.0,-488.0
-125.0,-397.0,-158.0,-186.0,235.0,149.0,-566.0,-1501.0,-482.0
-132.0,-408.0,-159.0,-105.0,229.0,199.0,-595.0,-1547.0,-475.0
-131.0,-418.0,-155.0,-28.0,230.0,249.0,-606.0,-1594.0,-467.0
-132.0,-424.0,-158.0,38.0,234.0,299.0,-600.0,-1626.0,-470.0
-121.0,-427.0,-159.0,87.0,238.0,351.0,-544.0,-1645.0,-481.0
-101.0,-425.0,-161.0,111.0,235.0,384.0,-475.0,-1635.0,-493.0
-78.0,-421.0,-169.0,103.0,217.0,390.0,-389.0,-1621.0,-515.0
-52.0,-412.0,-183.0,53.0,180.0,370.0,-274.0,-1585.0,-542.0
-19.0,-396.0,-172.0,-41.0,126.0,320.0,-156.0,-1536.0,-555.0
9.0,-375.0,-178.0,-181.0,65.0,242.0,-46.0,-1451.0,-554.0
26.0,-349.0,-172.0,-346.0,9.0,146.0,20.0,-1354.0,-539.0
39.0,-323.0,-166.0,-503.0,-36.0,49.0,69.0,-1256.0,-507.0
48.0,-306.0,-157.0,-639.0,-68.0,-42.0,94.0,-1176.0,-482.0
51.0,-285.0,-156.0,-744.0,-92.0,-129.0,110.0,-1105.0,-461.0
55.0,-270.0,-145.0,-814.0,-104.0,-211.0,121.0,-1028.0,-433.0
53.0,-256.0,-145.0,-856.0,-104.0,-284.0,117.0,-969.0,-415.0
47.0,-242.0,-138.0,-875.0,-91.0,-343.0,98.0,-912.0,-394.0
44.0,-231.0,-136.0,-874.0,-68.0,-386.0,71.0,-854.0,-380.0
32.0,-220.0,-133.0,-863.0,-35.0,-415.0,30.0,-827.0,-374.0
17.0,-216.0,-136.0,-847.0,2.0,-431.0,-13.0,-806.0,-375.0
10.0,-213.0,-136.0,-824.0,35.0,-438.0,-48.0,-797.0,-383.0
0.0,-211.0,-134.0,-793.0,61.0,-437.0,-74.0,-797.0,-383.0
-4.0,-217.0,-138.0,-755.0,75.0,-429.0,-104.0,-811.0,-395.0
-10.0,-221.0,-141.0,-707.0,75.0,-417.0,-122.0,-829.0,-412.0
-12.0,-226.0,-144.0,-651.0,65.0,-401.0,-133.0,-845.0,-419.0
-17.0,-232.0,-151.0,-594.0,42.0,-381.0,-142.0,-870.0,-436.0
-12.0,-239.0,-154.0,-547.0,15.0,-358.0,-135.0,-884.0,-454.0
-16.0,-240.0,-157.0,-512.0,-12.0,-334.0,-133.0,-909.0,-470.0
-9.0,-243.0,-153.0,-494.0,-33.0,-310.0,-123.0,-921.0,-478.0
-2.0,-246.0,-157.0,-482.0,-50.0,-290.0,-107.0,-928.0,-484.0
-3.0,-245.0,-161.0,-478.0,-57.0,-277.0,-101.0,-933.0,-490.0
1.0,-248.0,-167.0,-475.0,-53.0,-268.0,-88.0,-935.0,-491.0
4.0,-252.0,-164.0,-475.0,-43.0,-268.0,-69.0,-948.0,-492.0
7.0,-255.0,-161.0,-468.0,-27.0,-274.0,-53.0,-960.0,-491.0
13.0,-256.0,-165.0,-451.0,-9.0,-284.0,-42.0,-975.0,-481.0
18.0,-260.0,-157.0,-423.0,8.0,-294.0,-22.0,-983.0,-463.0
22.0,-264.0,-153.0,-381.0,24.0,-301.0,3.0,-993.0,-458.0
26.0,-264.0,-145.0,-323.0,38.0,-307.0,9.0,-994.0,-438.0
30.0,-264.0,-144.0,-252.0,51.0,-310.0,30.0,-1002.0,-430.0
31.0,-268.0,-146.0,-174.0,61.0,-316.0,33.0,-1003.0,-418.0
31.0,-264.0,-146.0,-91.0,69.0,-322.0,37.0,-1004.0,-414.0
33.0,-266.0,-136.0,-11.0,77.0,-331.0,45.0,-998.0,-412.0
37.0,-269.0,-144.0,60.0,85.0,-340.0,45.0,-1007.0,-407.0
35.0,-266.0,-143.0,126.0,94.0,-350.0,41.0,-1011.0,-406.0
35.0,-266.0,-144.0,182.0,100.0,-362.0,51.0,-1006.0,-411.0
35.0,-271.0,-140.0,232.0,106.0,-376.0,49.0,-1005.0,-419.0
35.0,-263.0,-144.0,274.0,109.0,-387.0,48.0,-1001.0,-420.0
31.0,-262.0,-145.0,309.0,108.0,-395.0,43.0,-994.0,-429.0
33.0,-258.0,-148.0,338.0,109.0,-400.0,37.0,-982.0,-436.0
34.0,-255.0,-148.0,355.0,111.0,-399.0,38.0,-967.0,-444.0
30.0,-251.0,-154.0,366.0,112.0,-395.0,47.0,-947.0,-444.0
38.0,-245.0,-149.0,369.0,114.0,-388.0,58.0,-931.0,-451.0
37.0,-241.0,-154.0,363.0,116.0,-379.0,72.0,-909.0,-454.0
42.0,-236.0,-151.0,349.0,117.0,-367.0,76.0,-885.0,-457.0
47.0,-231.0,-154.0,332.0,119.0,-354.0,89.0,-868.0,-456.0
55.0,-228.0,-151.0,312.0,125.0,-338.0,107.0,-852.0,-459.0
55.0,-224.0,-150.0,295.0,136.0,-322.0,125.0,-844.0,-451.0
57.0,-221.0,-151.0,277.0,150.0,-304.0,131.0,-829.0,-451.0
59.0,-217.0,-149.0,267.0,171.0,-288.0,137.0,-820.0,-450.0
60.0,-217.0,-152.0,261.0,190.0,-274.0,149.0,-813.0,-446.0
60.0,-209.0,-155.0,257.0,211.0,-263.0,152.0,-801.0,-446.0
63.0,-208.0,-152.0,256.0,232.0,-253.0,155.0,-796.0,-445.0
64.0,-207.0,-152.0,254.0,253.0,-246.0,163.0,-781.0,-446.0
64.0,-205.0,-151.0,252.0,275.0,-241.0,153.0,-774.0,-447.0
62.0,-202.0,-148.0,249.0,299.0,-240.0,147.0,-763.0,-437.0
61.0,-204.0,-148.0,251.0,320.0,-241.0,140.0,-759.0,-432.0
58.0,-200.0,-149.0,258.0,342.0,-245.0,135.0,-756.0,-435.0
55.0,-200.0,-146.0,269.0,361.0,-254.0,126.0,-755.0,-423.0
52.0,-198.0,-146.0,283.0,379.0,-267.0,117.0,-750.0,-419.0
48.0,-195.0,-143.0,297.0,391.0,-278.0,101.0,-751.0,-413.0
49.0,-200.0,-142.0,309.0,399.0,-292.0,97.0,-747.0,-405.0
47.0,-200.0,-148.0,324.0,407.0,-306.0,86.0,-741.0,-394.0
44.0,-200.0,-134.0,339.0,411.0,-319.0,71.0,-737.0,-382.0
39.0,-201.0,-134.0,352.0,411.0,-330.0,68.0,-743.0,-377.0
38.0,-196.0,-129.0,365.0,414.0,-342.0,54.0,-738.0,-374.0
33.0,-194.0,-132.0,380.0,413.0,-350.0,50.0,-731.0,-363.0
33.0,-194.0,-125.0,396.0,417.0,-357.0,40.0,-719.0,-348.0
30.0,-193.0,-126.0,412.0,417.0,-361.0,31.0,-717.0,-343.0
27.0,-190.0,-127.0,424.0,418.0,-364.0,19.0,-710.0,-337.0
28.0,-190.0,-126.0,432.0,413.0,-365.0,14.0,-708.0,-332.0
21.0,-187.0,-123.0,437.0,406.0,-361.0,3.0,-697.0,-330.0
19.0,-183.0,-121.0,436.0,400.0,-357.0,-7.0,-688.0,-322.0
18.0,-181.0,-126.0,429.0,395.0,-349.0,-18.0,-682.0,-318.0
15.0,-184.0,-121.0,413.0,389.0,-340.0,-32.0,-682.0,-317.0
13.0,-180.0,-119.0,391.0,381.0,-336.0,-37.0,-678.0,-306.0
7.0,-176.0,-114.0,368.0,373.0,-325.0,-47.0,-672.0,-303.0
6.0,-181.0,-117.0,346.0,363.0,-309.0,-48.0,-671.0,-304.0
6.0,-178.0,-116.0,325.0,354.0,-292.0,-51.0,-673.0,-293.0
10.0,-179.0,-115.0,306.0,343.0,-275.0,-47.0,-671.0,-293.0
9.0,-180.0,-111.0,289.0,335.0,-255.0,-50.0,-674.0,-291.0
11.0,-179.0,-116.0,272.0,330.0,-233.0,-44.0,-674.0,-299.0
11.0,-181.0,-115.0,257.0,327.0,-215.0,-36.0,-668.0,-299.0
15.0,-181.0,-118.0,241.0,328.0,-200.0,-31.0,-667.0,-300.0
17.0,-181.0,-118.0,225.0,328.0,-185.0,-29.0,-663.0,-302.0
14.0,-175.0,-117.0,208.0,327.0,-173.0,-22.0,-661.0,-304.0
19.0,-176.0,-116.0,193.0,327.0,-160.0,-1.0,-659.0,-301.0
23.0,-174.0,-118.0,173.0,327.0,-148.0,-1.0,-657.0,-305.0
23.0,-173.0,-119.0,150.0,325.0,-141.0,12.0,-652.0,-301.0
26.0,-173.0,-118.0,127.0,326.0,-133.0,20.0,-648.0,-302.0
28.0,-173.0,-114.0,104.0,326.0,-127.0,30.0,-650.0,-297.0
30.0,-177.0,-118.0,81.0,325.0,-121.0,42.0,-651.0,-300.0
31.0,-176.0,-115.0,62.0,325.0,-111.0,49.0,-661.0,-296.0
40.0,-183.0,-115.0,41.0,325.0,-104.0,52.0,-672.0,-296.0
43.0,-182.0,-114.0,23.0,322.0,-95.0,70.0,-685.0,-296.0
41.0,-187.0,-116.0,7.0,318.0,-85.0,71.0,-701.0,-297.0
48.0,-192.0,-114.0,-6.0,316.0,-75.0,82.0,-709.0,-296.0
45.0,-189.0,-113.0,-19.0,312.0,-65.0,84.0,-719.0,-296.0
46.0,-191.0,-113.0,-32.0,309.0,-54.0,95.0,-728.0,-296.0
47.0,-195.0,-115.0,-43.0,306.0,-41.0,99.0,-735.0,-293.0
51.0,-198.0,-115.0,-55.0,302.0,-30.0,112.0,-754.0,-289.0
54.0,-200.0,-112.0,-66.0,299.0,-17.0,114.0,-763.0,-289.0
52.0,-204.0,-111.0,-76.0,294.0,-5.0,120.0,-780.0,-283.0
53.0,-209.0,-117.0,-80.0,288.0,5.0,125.0,-796.0,-275.0
59.0,-215.0,-109.0,-80.0,281.0,16.0,125.0,-808.0,-275.0
55.0,-216.0,-109.0,-81.0,272.0,26.0,131.0,-821.0,-266.0
56.0,-219.0,-104.0,-80.0,265.0,33.0,130.0,-831.0,-257.0
58.0,-231.0,-102.0,-74.0,258.0,42.0,135.0,-839.0,-247.0
58.0,-227.0,-102.0,-71.0,254.0,52.0,136.0,-844.0,-245.0
55.0,-224.0,-100.0,-66.0,254.0,60.0,141.0,-853.0,-241.0
57.0,-228.0,-102.0,-63.0,253.0,68.0,135.0,-857.0,-234.0
54.0,-229.0,-100.0,-58.0,254.0,75.0,139.0,-858.0,-227.0
58.0,-227.0,-97.0,-52.0,252.0,82.0,136.0,-863.0,-226.0
56.0,-230.0,-99.0,-47.0,249.0,90.0,130.0,-864.0,-225.0
52.0,-230.0,-100.0,-41.0,248.0,96.0,127.0,-867.0,-219.0
52.0,-227.0,-97.0,-40.0,245.0,103.0,116.0,-863.0,-228.0
52.0,-229.0,-100.0,-45.0,243.0,111.0,113.0,-864.0,-229.0
48.0,-226.0,-96.0,-54.0,239.0,116.0,104.0,-866.0,-232.0
50.0,-232.0,-101.0,-67.0,234.0,123.0,97.0,-868.0,-235.0
48.0,-231.0,-100.0,-84.0,231.0,129.0,96.0,-876.0,-238.0
46.0,-231.0,-102.0,-105.0,228.0,133.0,87.0,-880.0,-229.0
45.0,-236.0,-98.0,-127.0,223.0,136.0,89.0,-898.0,-240.0
45.0,-240.0,-98.0,-150.0,220.0,137.0,82.0,-912.0,-236.0
41.0,-246.0,-97.0,-175.0,213.0,137.0,76.0,-933.0,-246.0
42.0,-251.0,-104.0,-203.0,205.0,139.0,75.0,-951.0,-238.0
40.0,-254.0,-103.0,-235.0,196.0,140.0,62.0,-969.0,-246.0
38.0,-256.0,-103.0,-265.0,184.0,141.0,67.0,-987.0,-245.0
40.0,-265.0,-104.0,-298.0,171.0,143.0,70.0,-1006.0,-244.0
35.0,-270.0,-97.0,-327.0,163.0,145.0,63.0,-1025.0,-241.0
42.0,-276.0,-94.0,-350.0,154.0,146.0,60.0,-1055.0,-233.0
36.0,-282.0,-98.0,-364.0,143.0,147.0,60.0,-1084.0,-235.0
37.0,-291.0,-101.0,-366.0,132.0,144.0,64.0,-1111.0,-231.0
35.0,-300.0,-98.0,-359.0,120.0,140.0,55.0,-1129.0,-228.0
36.0,-306.0,-96.0,-341.0,108.0,132.0,56.0,-1155.0,-223.0
33.0,-308.0,-93.0,-316.0,94.0,122.0,55.0,-1166.0,-226.0
31.0,-310.0,-98.0,-289.0,83.0,110.0,45.0,-1183.0,-229.0
30.0,-311.0,-95.0,-263.0,68.0,100.0,36.0,-1188.0,-234.0
32.0,-316.0,-104.0,-240.0,56.0,96.0,34.0,-1193.0,-256.0
33.0,-317.0,-110.0,-217.0,44.0,91.0,35.0,-1199.0,-269.0
35.0,-320.0,-110.0,-195.0,35.0,89.0,40.0,-1198.0,-290.0
36.0,-318.0,-122.0,-173.0,34.0,83.0,61.0,-1198.0,-318.0
46.0,-315.0,-128.0,-153.0,41.0,74.0,85.0,-1191.0,-346.0
57.0,-316.0,-135.0,-131.0,55.0,62.0,129.0,-1187.0,-378.0
70.0,-316.0,-144.0,-106.0,82.0,45.0,178.0,-1191.0,-410.0
83.0,-315.0,-148.0,-81.0,118.0,23.0,242.0,-1189.0,-432.0
98.0,-317.0,-154.0,-50.0,167.0,-2.0,293.0,-1199.0,-458.0
110.0,-321.0,-161.0,-18.0,226.0,-26.0,321.0,-1220.0,-488.0
96.0,-315.0,-161.0,24.0,284.0,-20.0,260.0,-1188.0,-488.0
130.0,-337.0,-184.0,75.0,333.0,16.0,404.0,-1279.0,-582.0
123.0,-345.0,-198.0,76.0,403.0,-3.0,378.0,-1312.0,-641.0
113.0,-357.0,-214.0,28.0,487.0,-9.0,330.0,-1342.0,-689.0
96.0,-358.0,-220.0,-58.0,568.0,6.0,278.0,-1372.0,-725.0
77.0,-358.0,-224.0,-175.0,640.0,28.0,209.0,-1391.0,-743.0
57.0,-361.0,-221.0,-313.0,690.0,57.0,139.0,-1401.0,-739.0
37.0,-362.0,-216.0,-423.0,725.0,95.0,68.0,-1399.0,-708.0
23.0,-362.0,-206.0,-546.0,738.0,139.0,14.0,-1393.0,-666.0
10.0,-365.0,-190.0,-627.0,725.0,177.0,-40.0,-1381.0,-599.0
1.0,-361.0,-175.0,-657.0,680.0,206.0,-64.0,-1377.0,-541.0
0.0,-360.0,-157.0,-642.0,611.0,227.0,-77.0,-1374.0,-487.0
-2.0,-357.0,-149.0,-598.0,524.0,241.0,-80.0,-1353.0,-449.0
0.0,-353.0,-144.0,-533.0,430.0,248.0,-71.0,-1323.0,-416.0
4.0,-338.0,-135.0,-453.0,343.0,253.0,-60.0,-1286.0,-396.0
5.0,-321.0,-133.0,-376.0,272.0,260.0,-48.0,-1210.0,-383.0
7.0,-303.0,-135.0,-309.0,223.0,276.0,-47.0,-1134.0,-382.0
11.0,-279.0,-136.0,-266.0,193.0,302.0,-40.0,-1058.0,-387.0
9.0,-257.0,-136.0,-255.0,182.0,336.0,-48.0,-978.0,-396.0
8.0,-241.0,-143.0,-276.0,183.0,373.0,-55.0,-923.0,-399.0
9.0,-228.0,-138.0,-330.0,191.0,414.0,-57.0,-874.0,-410.0
6.0,-224.0,-140.0,-408.0,201.0,451.0,-58.0,-844.0,-414.0
6.0,-214.0,-140.0,-498.0,213.0,489.0,-50.0,-825.0,-415.0
9.0,-214.0,-146.0,-590.0,227.0,519.0,-44.0,-817.0,-419.0
16.0,-212.0,-144.0,-671.0,246.0,541.0,-32.0,-816.0,-415.0
15.0,-215.0,-145.0,-736.0,260.0,554.0,-24.0,-824.0,-420.0
19.0,-220.0,-142.0,-783.0,276.0,556.0,-9.0,-822.0,-419.0
22.0,-222.0,-144.0,-806.0,283.0,549.0,-1.0,-828.0,-422.0
22.0,-224.0,-150.0,-806.0,283.0,541.0,8.0,-836.0,-441.0
26.0,-229.0,-151.0,-786.0,279.0,533.0,14.0,-848.0,-449.0
26.0,-228.0,-155.0,-754.0,275.0,521.0,20.0,-852.0,-463.0
27.0,-229.0,-160.0,-713.0,270.0,513.0,17.0,-854.0,-479.0
27.0,-230.0,-163.0,-666.0,270.0,509.0,21.0,-862.0,-492.0
28.0,-233.0,-166.0,-621.0,275.0,505.0,17.0,-864.0,-499.0
32.0,-235.0,-163.0,-578.0,283.0,506.0,19.0,-870.0,-509.0
33.0,-234.0,-167.0,-534.0,301.0,506.0,18.0,-882.0,-506.0
28.0,-236.0,-171.0,-495.0,326.0,507.0,22.0,-885.0,-511.0
28.0,-239.0,-164.0,-460.0,355.0,509.0,18.0,-906.0,-504.0
28.0,-244.0,-167.0,-428.0,385.0,512.0,20.0,-916.0,-495.0
25.0,-246.0,-162.0,-399.0,417.0,514.0,14.0,-928.0,-492.0
27.0,-253.0,-159.0,-366.0,447.0,516.0,12.0,-935.0,-476.0
25.0,-254.0,-155.0,-331.0,473.0,519.0,12.0,-950.0,-456.0
22.0,-255.0,-152.0,-287.0,499.0,522.0,11.0,-958.0,-446.0
24.0,-255.0,-148.0,-235.0,521.0,522.0,12.0,-959.0,-443.0
23.0,-256.0,-147.0,-175.0,538.0,519.0,4.0,-967.0,-433.0
24.0,-257.0,-152.0,-103.0,549.0,517.0,5.0,-963.0,-426.0
22.0,-257.0,-144.0,-26.0,550.0,512.0,-2.0,-958.0,-430.0
20.0,-252.0,-146.0,52.0,541.0,510.0,-5.0,-946.0,-425.0
19.0,-248.0,-147.0,123.0,527.0,507.0,-8.0,-932.0,-437.0
14.0,-243.0,-153.0,187.0,506.0,504.0,-11.0,-919.0,-443.0
15.0,-236.0,-154.0,240.0,483.0,501.0,-15.0,-907.0,-451.0
16.0,-236.0,-155.0,277.0,461.0,500.0,-17.0,-882.0,-459.0
20.0,-230.0,-152.0,303.0,444.0,497.0,-5.0,-866.0,-458.0
21.0,-229.0,-154.0,314.0,429.0,494.0,-5.0,-863.0,-465.0
22.0,-229.0,-158.0,314.0,415.0,491.0,1.0,-857.0,-467.0
22.0,-226.0,-158.0,305.0,404.0,486.0,2.0,-856.0,-465.0
24.0,-228.0,-161.0,291.0,397.0,480.0,4.0,-864.0,-467.0
20.0,-221.0,-154.0,273.0,392.0,478.0,-1.0,-864.0,-467.0
21.0,-228.0,-158.0,255.0,392.0,474.0,-2.0,-863.0,-464.0
18.0,-224.0,-156.0,236.0,398.0,469.0,1.0,-862.0,-464.0
24.0,-227.0,-157.0,215.0,409.0,463.0,-4.0,-859.0,-466.0
24.0,-228.0,-156.0,193.0,423.0,454.0,0.0,-856.0,-468.0
18.0,-226.0,-160.0,167.0,439.0,438.0,-10.0,-854.0,-469.0
12.0,-229.0,-158.0,137.0,451.0,425.0,-35.0,-853.0,-460.0
10.0,-228.0,-154.0,115.0,460.0,423.0,-42.0,-846.0,-452.0
12.0,-224.0,-154.0,107.0,467.0,428.0,-44.0,-852.0,-451.0
15.0,-228.0,-149.0,112.0,470.0,426.0,-45.0,-849.0,-446.0
5.0,-227.0,-158.0,121.0,475.0,422.0,-53.0,-846.0,-450.0
17.0,-228.0,-151.0,132.0,484.0,416.0,-54.0,-847.0,-454.0
7.0,-226.0,-152.0,143.0,491.0,410.0,-56.0,-844.0,-452.0
3.0,-223.0,-153.0,151.0,496.0,405.0,-62.0,-844.0,-455.0
8.0,-228.0,-153.0,154.0,503.0,403.0,-65.0,-841.0,-453.0
2.0,-221.0,-149.0,156.0,508.0,401.0,-66.0,-842.0,-449.0
4.0,-223.0,-150.0,155.0,514.0,401.0,-60.0,-838.0,-451.0
6.0,-223.0,-149.0,154.0,519.0,401.0,-64.0,-845.0,-445.0
5.0,-224.0,-147.0,156.0,522.0,400.0,-63.0,-843.0,-442.0
5.0,-225.0,-149.0,163.0,526.0,404.0,-59.0,-846.0,-426.0
5.0,-221.0,-145.0,174.0,530.0,404.0,-59.0,-845.0,-424.0
8.0,-227.0,-146.0,191.0,536.0,405.0,-53.0,-840.0,-416.0
7.0,-223.0,-138.0,213.0,540.0,403.0,-51.0,-834.0,-409.0
9.0,-220.0,-136.0,238.0,546.0,401.0,-50.0,-833.0,-401.0
11.0,-220.0,-140.0,266.0,550.0,397.0,-45.0,-825.0,-398.0
9.0,-220.0,-139.0,297.0,553.0,393.0,-41.0,-815.0,-398.0
9.0,-211.0,-140.0,326.0,556.0,390.0,-45.0,-802.0,-394.0
7.0,-211.0,-138.0,347.0,560.0,384.0,-41.0,-795.0,-390.0
13.0,-208.0,-139.0,363.0,563.0,379.0,-41.0,-783.0,-396.0
11.0,-201.0,-137.0,372.0,566.0,375.0,-41.0,-774.0,-404.0
11.0,-203.0,-140.0,373.0,567.0,368.0,-43.0,-764.0,-394.0
11.0,-202.0,-140.0,371.0,571.0,363.0,-43.0,-755.0,-394.0
13.0,-197.0,-138.0,367.0,574.0,357.0,-42.0,-752.0,-399.0
13.0,-198.0,-135.0,360.0,580.0,352.0,-42.0,-748.0,-386.0
10.0,-197.0,-136.0,356.0,587.0,347.0,-39.0,-745.0,-392.0
14.0,-193.0,-139.0,350.0,596.0,342.0,-33.0,-735.0,-391.0
14.0,-193.0,-136.0,343.0,606.0,336.0,-33.0,-733.0,-391.0
6.0,-190.0,-135.0,336.0,616.0,334.0,-33.0,-722.0,-386.0
15.0,-192.0,-135.0,327.0,629.0,331.0,-32.0,-716.0,-390.0
17.0,-193.0,-134.0,316.0,645.0,328.0,-29.0,-713.0,-393.0
17.0,-189.0,-135.0,307.0,662.0,326.0,-27.0,-704.0,-389.0
14.0,-187.0,-139.0,294.0,682.0,325.0,-25.0,-703.0,-383.0
20.0,-184.0,-137.0,282.0,699.0,327.0,-18.0,-697.0,-381.0
19.0,-186.0,-133.0,271.0,718.0,327.0,-12.0,-684.0,-375.0
12.0,-180.0,-133.0,263.0,735.0,329.0,-7.0,-680.0,-373.0
21.0,-184.0,-133.0,257.0,752.0,328.0,-8.0,-688.0,-372.0
20.0,-184.0,-134.0,251.0,769.0,329.0,-2.0,-684.0,-378.0
20.0,-184.0,-136.0,243.0,787.0,329.0,-7.0,-685.0,-382.0
21.0,-186.0,-136.0,232.0,804.0,330.0,-4.0,-684.0,-388.0
17.0,-184.0,-139.0,217.0,820.0,331.0,-9.0,-690.0,-393.0
18.0,-186.0,-138.0,203.0,837.0,331.0,-18.0,-697.0,-392.0
15.0,-186.0,-139.0,189.0,852.0,331.0,-26.0,-702.0,-397.0
13.0,-191.0,-138.0,175.0,865.0,332.0,-25.0,-705.0,-402.0
17.0,-191.0,-140.0,164.0,877.0,332.0,-18.0,-715.0,-387.0
16.0,-186.0,-134.0,153.0,888.0,330.0,-29.0,-718.0,-392.0
16.0,-192.0,-136.0,143.0,901.0,329.0,-35.0,-726.0,-394.0
10.0,-194.0,-138.0,134.0,912.0,326.0,-38.0,-735.0,-391.0
10.0,-195.0,-135.0,125.0,922.0,322.0,-39.0,-740.0,-387.0
13.0,-198.0,-134.0,115.0,935.0,318.0,-40.0,-749.0,-381.0
12.0,-199.0,-138.0,106.0,945.0,316.0,-45.0,-756.0,-380.0
8.0,-198.0,-133.0,96.0,956.0,309.0,-54.0,-758.0,-375.0
6.0,-200.0,-135.0,86.0,967.0,303.0,-58.0,-760.0,-376.0
4.0,-200.0,-138.0,76.0,979.0,298.0,-57.0,-769.0,-374.0
7.0,-206.0,-131.0,64.0,988.0,291.0,-62.0,-771.0,-370.0
5.0,-206.0,-128.0,50.0,999.0,287.0,-66.0,-784.0,-374.0
4.0,-210.0,-133.0,38.0,1011.0,282.0,-70.0,-789.0,-370.0
3.0,-212.0,-128.0,29.0,1025.0,278.0,-71.0,-800.0,-362.0
5.0,-217.0,-132.0,18.0,1042.0,275.0,-72.0,-811.0,-369.0
5.0,-222.0,-131.0,11.0,1060.0,275.0,-74.0,-820.0,-374.0
1.0,-220.0,-134.0,6.0,1078.0,272.0,-80.0,-838.0,-375.0
1.0,-225.0,-133.0,-2.0,1097.0,272.0,-82.0,-851.0,-379.0
1.0,-230.0,-135.0,-7.0,1116.0,272.0,-87.0,-865.0,-380.0
0.0,-232.0,-138.0,-8.0,1137.0,270.0,-90.0,-883.0,-379.0
0.0,-236.0,-133.0,-9.0,1156.0,271.0,-85.0,-902.0,-382.0
-1.0,-239.0,-134.0,-11.0,1178.0,272.0,-86.0,-912.0,-378.0
0.0,-241.0,-129.0,-13.0,1203.0,274.0,-93.0,-920.0,-380.0
0.0,-245.0,-129.0,-16.0,1229.0,279.0,-92.0,-930.0,-380.0
1.0,-247.0,-136.0,-17.0,1253.0,284.0,-86.0,-936.0,-375.0
1.0,-251.0,-132.0,-14.0,1279.0,287.0,-93.0,-939.0,-372.0
1.0,-251.0,-132.0,-7.0,1305.0,290.0,-92.0,-946.0,-369.0
-1.0,-252.0,-131.0,4.0,1327.0,292.0,-92.0,-945.0,-374.0
0.0,-247.0,-133.0,18.0,1347.0,295.0,-97.0,-940.0,-374.0
-2.0,-243.0,-135.0,27.0,1364.0,298.0,-101.0,-929.0,-376.0
-2.0,-240.0,-135.0,34.0,1374.0,302.0,-100.0,-918.0,-379.0
-4.0,-241.0,-139.0,42.0,1381.0,307.0,-111.0,-907.0,-387.0
-6.0,-238.0,-138.0,47.0,1381.0,312.0,-115.0,-885.0,-391.0
-8.0,-232.0,-138.0,55.0,1375.0,321.0,-120.0,-875.0,-405.0
-11.0,-230.0,-141.0,67.0,1368.0,331.0,-122.0,-873.0,-405.0
-7.0,-230.0,-140.0,73.0,1361.0,343.0,-121.0,-866.0,-414.0
-9.0,-227.0,-141.0,80.0,1359.0,361.0,-117.0,-855.0,-419.0
-9.0,-225.0,-148.0,89.0,1363.0,376.0,-120.0,-846.0,-432.0
-6.0,-223.0,-153.0,102.0,1375.0,392.0,-121.0,-832.0,-449.0
-8.0,-220.0,-156.0,113.0,1401.0,409.0,-129.0,-822.0,-457.0
-11.0,-214.0,-157.0,117.0,1434.0,425.0,-132.0,-811.0,-475.0
-9.0,-213.0,-164.0,114.0,1474.0,439.0,-139.0,-801.0,-491.0
-11.0,-212.0,-169.0,104.0,1515.0,452.0,-144.0,-799.0,-507.0
-13.0,-214.0,-171.0,88.0,1554.0,466.0,-151.0,-802.0,-520.0
-16.0,-213.0,-171.0,68.0,1593.0,478.0,-158.0,-806.0,-541.0
-19.0,-210.0,-173.0,45.0,1628.0,485.0,-163.0,-826.0,-547.0
-20.0,-223.0,-179.0,18.0,1657.0,492.0,-168.0,-847.0,-547.0
-22.0,-230.0,-175.0,-13.0,1685.0,497.0,-179.0,-872.0,-545.0
-23.0,-238.0,-169.0,-43.0,1710.0,498.0,-186.0,-903.0,-531.0
-30.0,-247.0,-171.0,-69.0,1737.0,497.0,-195.0,-932.0,-514.0
-30.0,-255.0,-168.0,-90.0,1768.0,491.0,-200.0,-959.0,-499.0
-28.0,-259.0,-161.0,-106.0,1801.0,483.0,-203.0,-986.0,-478.0
-29.0,-264.0,-157.0,-114.0,1831.0,471.0,-196.0,-1004.0,-463.0
-25.0,-270.0,-151.0,-116.0,1854.0,461.0,-186.0,-1017.0,-449.0
-20.0,-269.0,-145.0,-117.0,1868.0,452.0,-173.0,-1030.0,-435.0
-16.0,-267.0,-143.0,-117.0,1870.0,444.0,-157.0,-1027.0,-417.0
-11.0,-271.0,-142.0,-118.0,1858.0,436.0,-131.0,-1025.0,-399.0
-5.0,-265.0,-139.0,-115.0,1839.0,432.0,-108.0,-1016.0,-391.0
0.0,-262.0,-136.0,-109.0,1811.0,427.0,-88.0,-1008.0,-377.0
4.0,-263.0,-128.0,-100.0,1778.0,426.0,-65.0,-997.0,-373.0
9.0,-258.0,-132.0,-91.0,1743.0,426.0,-43.0,-982.0,-366.0
11.0,-253.0,-131.0,-84.0,1705.0,427.0,-38.0,-963.0,-369.0
16.0,-246.0,-134.0,-80.0,1672.0,430.0,-29.0,-938.0,-369.0
20.0,-241.0,-134.0,-78.0,1638.0,433.0,-17.0,-916.0,-374.0
15.0,-232.0,-138.0,-82.0,1605.0,439.0,-7.0,-888.0,-379.0
19.0,-225.0,-138.0,-90.0,1576.0,445.0,-1.0,-859.0,-389.0
25.0,-220.0,-144.0,-104.0,1551.0,452.0,1.0,-843.0,-397.0
26.0,-218.0,-146.0,-123.0,1530.0,460.0,14.0,-827.0,-418.0
29.0,-214.0,-147.0,-150.0,1516.0,468.0,19.0,-813.0,-422.0
33.0,-215.0,-151.0,-181.0,1507.0,477.0,33.0,-805.0,-435.0
32.0,-215.0,-152.0,-214.0,1505.0,481.0,38.0,-807.0,-443.0
33.0,-213.0,-149.0,-247.0,1509.0,484.0,39.0,-815.0,-449.0
36.0,-219.0,-151.0,-277.0,1515.0,485.0,43.0,-823.0,-451.0
36.0,-223.0,-153.0,-302.0,1525.0,483.0,51.0,-841.0,-459.0
37.0,-230.0,-158.0,-320.0,1539.0,479.0,51.0,-869.0,-457.0
39.0,-234.0,-152.0,-331.0,1551.0,476.0,59.0,-881.0,-455.0
38.0,-242.0,-150.0,-330.0,1566.0,474.0,58.0,-905.0,-447.0
39.0,-243.0,-144.0,-316.0,1581.0,473.0,60.0,-926.0,-440.0
41.0,-242.0,-149.0,-291.0,1596.0,473.0,73.0,-933.0,-433.0
46.0,-251.0,-147.0,-257.0,1612.0,473.0,87.0,-934.0,-421.0
46.0,-248.0,-140.0,-216.0,1624.0,476.0,100.0,-942.0,-417.0
53.0,-247.0,-142.0,-174.0,1631.0,479.0,114.0,-938.0,-411.0
53.0,-248.0,-140.0,-135.0,1635.0,483.0,120.0,-937.0,-408.0
59.0,-248.0,-141.0,-103.0,1634.0,487.0,133.0,-939.0,-393.0
58.0,-248.0,-135.0,-79.0,1632.0,492.0,136.0,-936.0,-396.0
60.0,-247.0,-138.0,-62.0,1630.0,499.0,148.0,-934.0,-392.0
62.0,-248.0,-134.0,-53.0,1623.0,508.0,158.0,-941.0,-382.0
63.0,-251.0,-131.0,-52.0,1614.0,519.0,160.0,-952.0,-376.0
63.0,-256.0,-130.0,-50.0,1601.0,531.0,166.0,-958.0,-360.0
66.0,-256.0,-127.0,-48.0,1587.0,540.0,173.0,-970.0,-344.0
65.0,-258.0,-127.0,-37.0,1568.0,550.0,173.0,-982.0,-342.0
67.0,-260.0,-123.0,-13.0,1550.0,560.0,179.0,-985.0,-334.0
66.0,-260.0,-128.0,19.0,1533.0,566.0,182.0,-989.0,-330.0
68.0,-262.0,-128.0,54.0,1521.0,569.0,178.0,-988.0,-333.0
69.0,-259.0,-129.0,87.0,1508.0,568.0,176.0,-984.0,-341.0
64.0,-257.0,-133.0,115.0,1499.0,563.0,172.0,-979.0,-356.0
64.0,-256.0,-132.0,132.0,1491.0,555.0,164.0,-973.0,-366.0
59.0,-258.0,-137.0,142.0,1484.0,544.0,152.0,-982.0,-375.0
53.0,-258.0,-143.0,144.0,1478.0,534.0,134.0,-984.0,-388.0
51.0,-266.0,-136.0,140.0,1469.0,524.0,115.0,-990.0,-394.0
46.0,-261.0,-137.0,135.0,1460.0,514.0,90.0,-997.0,-403.0
41.0,-262.0,-137.0,129.0,1449.0,506.0,75.0,-994.0,-398.0
36.0,-264.0,-138.0,125.0,1439.0,500.0,58.0,-998.0,-396.0
28.0,-263.0,-137.0,124.0,1427.0,493.0,26.0,-993.0,-394.0
23.0,-260.0,-136.0,125.0,1411.0,492.0,11.0,-994.0,-395.0
16.0,-258.0,-137.0,129.0,1395.0,490.0,-18.0,-987.0,-392.0
10.0,-256.0,-136.0,136.0,1375.0,488.0,-35.0,-981.0,-388.0
9.0,-256.0,-137.0,142.0,1357.0,490.0,-48.0,-972.0,-393.0
2.0,-253.0,-136.0,150.0,1339.0,494.0,-62.0,-972.0,-386.0
1.0,-255.0,-137.0,157.0,1322.0,498.0,-74.0,-968.0,-389.0
-6.0,-256.0,-138.0,161.0,1308.0,506.0,-86.0,-968.0,-382.0
-2.0,-255.0,-134.0,167.0,1292.0,510.0,-91.0,-970.0,-380.0
0.0,-255.0,-132.0,175.0,1277.0,518.0,-92.0,-966.0,-379.0
0.0,-256.0,-133.0,185.0,1264.0,524.0,-96.0,-969.0,-376.0
0.0,-256.0,-132.0,194.0,1254.0,528.0,-91.0,-968.0,-374.0
0.0,-254.0,-135.0,201.0,1247.0,531.0,-94.0,-966.0,-378.0
0.0,-255.0,-135.0,206.0,1243.0,533.0,-86.0,-967.0,-374.0
4.0,-255.0,-130.0,207.0,1240.0,532.0,-79.0,-963.0,-369.0
4.0,-253.0,-131.0,208.0,1239.0,533.0,-77.0,-963.0,-360.0
6.0,-257.0,-128.0,207.0,1237.0,532.0,-66.0,-958.0,-352.0
4.0,-250.0,-125.0,207.0,1236.0,533.0,-63.0,-956.0,-341.0
5.0,-246.0,-121.0,208.0,1235.0,532.0,-55.0,-952.0,-331.0
7.0,-246.0,-122.0,208.0,1233.0,532.0,-45.0,-936.0,-323.0
12.0,-244.0,-119.0,207.0,1234.0,533.0,-37.0,-926.0,-306.0
18.0,-241.0,-117.0,207.0,1234.0,533.0,-20.0,-919.0,-303.0
21.0,-233.0,-115.0,202.0,1233.0,535.0,-2.0,-896.0,-297.0
23.0,-232.0,-114.0,194.0,1231.0,534.0,11.0,-880.0,-298.0
26.0,-229.0,-117.0,186.0,1229.0,531.0,26.0,-866.0,-296.0
34.0,-227.0,-113.0,173.0,1226.0,531.0,40.0,-867.0,-297.0
35.0,-228.0,-122.0,158.0,1221.0,531.0,52.0,-863.0,-304.0
36.0,-226.0,-121.0,147.0,1215.0,530.0,62.0,-862.0,-311.0
45.0,-227.0,-122.0,137.0,1211.0,530.0,76.0,-859.0,-321.0
43.0,-226.0,-128.0,130.0,1209.0,533.0,87.0,-853.0,-334.0
46.0,-227.0,-129.0,126.0,1203.0,535.0,97.0,-851.0,-339.0
51.0,-228.0,-127.0,123.0,1200.0,536.0,104.0,-852.0,-346.0
52.0,-229.0,-131.0,118.0,1194.0,537.0,112.0,-851.0,-368.0
52.0,-226.0,-134.0,116.0,1188.0,537.0,116.0,-852.0,-376.0
56.0,-227.0,-135.0,112.0,1182.0,535.0,116.0,-855.0,-386.0
52.0,-228.0,-140.0,107.0,1175.0,535.0,120.0,-854.0,-398.0
54.0,-226.0,-141.0,100.0,1169.0,533.0,116.0,-857.0,-413.0
53.0,-230.0,-143.0,88.0,1160.0,530.0,115.0,-868.0,-417.0
50.0,-231.0,-143.0,72.0,1154.0,526.0,113.0,-872.0,-421.0
48.0,-233.0,-142.0,55.0,1148.0,524.0,103.0,-878.0,-423.0
50.0,-232.0,-148.0,41.0,1140.0,519.0,101.0,-890.0,-419.0
45.0,-239.0,-145.0,31.0,1131.0,512.0,91.0,-902.0,-417.0
43.0,-239.0,-141.0,27.0,1119.0,506.0,84.0,-916.0,-408.0
42.0,-243.0,-141.0,25.0,1114.0,498.0,78.0,-923.0,-409.0
40.0,-245.0,-142.0,24.0,1104.0,495.0,66.0,-928.0,-403.0
38.0,-246.0,-139.0,21.0,1098.0,488.0,65.0,-935.0,-398.0
37.0,-248.0,-136.0,17.0,1092.0,485.0,59.0,-938.0,-401.0
37.0,-250.0,-136.0,16.0,1086.0,483.0,57.0,-949.0,-385.0
36.0,-253.0,-139.0,17.0,1081.0,481.0,52.0,-949.0,-372.0
34.0,-251.0,-128.0,19.0,1072.0,480.0,50.0,-961.0,-358.0
34.0,-257.0,-125.0,24.0,1065.0,479.0,50.0,-966.0,-346.0
30.0,-256.0,-131.0,34.0,1057.0,480.0,38.0,-969.0,-336.0
32.0,-257.0,-123.0,48.0,1052.0,482.0,40.0,-976.0,-325.0
31.0,-259.0,-120.0,65.0,1046.0,482.0,36.0,-978.0,-323.0
30.0,-261.0,-121.0,85.0,1039.0,482.0,31.0,-990.0,-315.0
28.0,-260.0,-118.0,105.0,1034.0,482.0,36.0,-985.0,-310.0
27.0,-261.0,-117.0,127.0,1031.0,481.0,25.0,-994.0,-305.0
29.0,-261.0,-114.0,148.0,1027.0,479.0,19.0,-997.0,-305.0
25.0,-260.0,-113.0,162.0,1023.0,476.0,12.0,-991.0,-301.0
24.0,-259.0,-115.0,174.0,1019.0,473.0,11.0,-993.0,-297.0
23.0,-259.0,-112.0,184.0,1015.0,466.0,10.0,-991.0,-293.0
25.0,-260.0,-109.0,194.0,1009.0,460.0,11.0,-986.0,-290.0
20.0,-257.0,-106.0,202.0,1003.0,454.0,7.0,-983.0,-283.0
25.0,-262.0,-113.0,208.0,995.0,448.0,7.0,-984.0,-287.0
23.0,-259.0,-112.0,209.0,984.0,442.0,8.0,-978.0,-282.0
22.0,-255.0,-108.0,211.0,973.0,435.0,10.0,-970.0,-286.0
24.0,-256.0,-113.0,211.0,957.0,429.0,8.0,-971.0,-272.0
25.0,-253.0,-108.0,211.0,942.0,420.0,15.0,-958.0,-273.0
25.0,-252.0,-107.0,211.0,925.0,411.0,13.0,-955.0,-271.0
26.0,-249.0,-112.0,213.0,910.0,403.0,17.0,-948.0,-271.0
28.0,-251.0,-112.0,212.0,893.0,393.0,23.0,-947.0,-272.0
28.0,-248.0,-114.0,210.0,876.0,382.0,26.0,-949.0,-280.0
27.0,-253.0,-114.0,203.0,853.0,371.0,23.0,-958.0,-289.0
24.0,-253.0,-111.0,190.0,825.0,362.0,17.0,-967.0,-302.0
24.0,-257.0,-120.0,175.0,797.0,350.0,9.0,-982.0,-321.0
20.0,-258.0,-122.0,153.0,770.0,341.0,-3.0,-994.0,-329.0
16.0,-263.0,-128.0,129.0,745.0,333.0,-23.0,-1012.0,-361.0
12.0,-270.0,-134.0,105.0,725.0,322.0,-30.0,-1028.0,-391.0
12.0,-273.0,-144.0,84.0,705.0,313.0,-42.0,-1045.0,-410.0
11.0,-281.0,-145.0,63.0,691.0,303.0,-39.0,-1062.0,-429.0
13.0,-287.0,-151.0,55.0,677.0,291.0,-37.0,-1077.0,-439.0
16.0,-285.0,-148.0,56.0,667.0,280.0,-31.0,-1075.0,-442.0
17.0,-285.0,-151.0,68.0,660.0,268.0,-13.0,-1076.0,-435.0
25.0,-280.0,-146.0,92.0,660.0,252.0,6.0,-1062.0,-420.0
27.0,-270.0,-138.0,125.0,665.0,234.0,15.0,-1037.0,-408.0
33.0,-265.0,-134.0,164.0,677.0,216.0,23.0,-1006.0,-386.0
30.0,-257.0,-131.0,200.0,691.0,197.0,26.0,-969.0,-371.0
31.0,-246.0,-132.0,232.0,706.0,180.0,37.0,-933.0,-361.0
30.0,-235.0,-128.0,244.0,721.0,165.0,35.0,-892.0,-346.0
32.0,-224.0,-128.0,242.0,734.0,151.0,33.0,-853.0,-335.0
30.0,-214.0,-124.0,226.0,743.0,143.0,31.0,-825.0,-337.0
27.0,-209.0,-127.0,200.0,750.0,138.0,23.0,-800.0,-335.0
25.0,-203.0,-127.0,167.0,758.0,136.0,14.0,-773.0,-338.0
24.0,-206.0,-129.0,130.0,767.0,138.0,11.0,-764.0,-336.0
23.0,-200.0,-129.0,93.0,776.0,141.0,-6.0,-767.0,-342.0
19.0,-205.0,-123.0,57.0,785.0,150.0,-7.0,-771.0,-342.0
18.0,-210.0,-129.0,27.0,793.0,161.0,-17.0,-785.0,-342.0
15.0,-213.0,-128.0,4.0,801.0,173.0,-23.0,-801.0,-342.0
15.0,-217.0,-127.0,-9.0,808.0,187.0,-31.0,-812.0,-338.0
13.0,-217.0,-124.0,-14.0,815.0,203.0,-32.0,-823.0,-333.0
10.0,-217.0,-126.0,-9.0,823.0,218.0,-33.0,-829.0,-338.0
10.0,-218.0,-125.0,-3.0,829.0,234.0,-40.0,-827.0,-335.0
12.0,-219.0,-131.0,0.0,837.0,247.0,-37.0,-821.0,-336.0
12.0,-210.0,-127.0,-1.0,845.0,259.0,-34.0,-815.0,-336.0
14.0,-208.0,-126.0,-8.0,856.0,271.0,-34.0,-804.0,-341.0
14.0,-212.0,-130.0,-24.0,872.0,282.0,-33.0,-797.0,-347.0
15.0,-211.0,-129.0,-40.0,892.0,288.0,-31.0,-792.0,-346.0
12.0,-211.0,-133.0,-61.0,916.0,296.0,-29.0,-794.0,-363.0
15.0,-214.0,-133.0,-83.0,938.0,300.0,-27.0,-800.0,-369.0
14.0,-213.0,-132.0,-103.0,964.0,301.0,-34.0,-812.0,-372.0
12.0,-218.0,-137.0,-114.0,987.0,301.0,-40.0,-825.0,-389.0
7.0,-223.0,-138.0,-119.0,1008.0,297.0,-50.0,-841.0,-398.0
3.0,-232.0,-139.0,-120.0,1028.0,293.0,-67.0,-867.0,-418.0
0.0,-236.0,-146.0,-118.0,1044.0,289.0,-83.0,-889.0,-435.0
-4.0,-243.0,-152.0,-112.0,1057.0,286.0,-112.0,-912.0,-449.0
-14.0,-249.0,-158.0,-109.0,1065.0,284.0,-151.0,-937.0,-473.0
-25.0,-254.0,-163.0,-108.0,1072.0,286.0,-179.0,-946.0,-475.0
-35.0,-253.0,-158.0,-110.0,1072.0,289.0,-214.0,-964.0,-487.0
-46.0,-257.0,-163.0,-115.0,1072.0,292.0,-253.0,-984.0,-489.0
-53.0,-263.0,-163.0,-120.0,1069.0,301.0,-289.0,-991.0,-486.0
-61.0,-264.0,-162.0,-122.0,1064.0,311.0,-317.0,-1002.0,-485.0
-66.0,-267.0,-157.0,-124.0,1057.0,325.0,-336.0,-1017.0,-477.0
-68.0,-269.0,-157.0,-119.0,1048.0,341.0,-354.0,-1025.0,-459.0
-70.0,-273.0,-153.0,-115.0,1042.0,359.0,-360.0,-1027.0,-446.0
-72.0,-269.0,-142.0,-110.0,1035.0,378.0,-363.0,-1028.0,-418.0
-71.0,-273.0,-137.0,-105.0,1030.0,395.0,-359.0,-1028.0,-395.0
-69.0,-274.0,-130.0,-102.0,1027.0,410.0,-354.0,-1035.0,-371.0
-68.0,-267.0,-126.0,-96.0,1027.0,426.0,-341.0,-1026.0,-341.0
-62.0,-270.0,-123.0,-90.0,1029.0,437.0,-327.0,-1027.0,-315.0
-60.0,-265.0,-115.0,-84.0,1032.0,447.0,-309.0,-1017.0,-302.0
-57.0,-264.0,-108.0,-73.0,1035.0,455.0,-294.0,-1009.0,-281.0
-47.0,-261.0,-107.0,-59.0,1037.0,459.0,-281.0,-1005.0,-271.0
-43.0,-257.0,-103.0,-43.0,1040.0,462.0,-265.0,-991.0,-265.0
-38.0,-258.0,-107.0,-25.0,1040.0,465.0,-246.0,-979.0,-262.0
-38.0,-252.0,-109.0,-6.0,1039.0,464.0,-222.0,-955.0,-265.0
-34.0,-248.0,-106.0,7.0,1034.0,466.0,-210.0,-945.0,-269.0
-28.0,-245.0,-110.0,17.0,1029.0,466.0,-197.0,-924.0,-277.0
-27.0,-240.0,-110.0,22.0,1023.0,467.0,-183.0,-912.0,-286.0
-23.0,-235.0,-116.0,25.0,1014.0,466.0,-174.0,-887.0,-298.0
-22.0,-232.0,-116.0,25.0,1006.0,464.0,-166.0,-879.0,-305.0
-20.0,-230.0,-120.0,23.0,999.0,461.0,-161.0,-860.0,-314.0
-18.0,-227.0,-120.0,21.0,994.0,455.0,-157.0,-857.0,-326.0
-15.0,-227.0,-126.0,18.0,990.0,451.0,-151.0,-847.0,-327.0
-16.0,-223.0,-129.0,15.0,984.0,444.0,-150.0,-845.0,-333.0
-16.0,-224.0,-127.0,14.0,983.0,439.0,-155.0,-840.0,-339.0
-16.0,-220.0,-126.0,11.0,985.0,435.0,-152.0,-830.0,-342.0
-18.0,-219.0,-127.0,6.0,985.0,432.0,-151.0,-820.0,-349.0
-14.0,-217.0,-125.0,-3.0,989.0,428.0,-150.0,-819.0,-348.0
-9.0,-219.0,-127.0,-18.0,994.0,425.0,-156.0,-818.0,-348.0
-18.0,-214.0,-127.0,-36.0,998.0,422.0,-148.0,-812.0,-351.0
-17.0,-216.0,-126.0,-61.0,1004.0,417.0,-149.0,-819.0,-349.0
-11.0,-218.0,-128.0,-89.0,1008.0,411.0,-150.0,-823.0,-345.0
-15.0,-221.0,-127.0,-116.0,1012.0,404.0,-145.0,-835.0,-339.0
-13.0,-227.0,-127.0,-143.0,1016.0,395.0,-151.0,-852.0,-334.0
-16.0,-228.0,-122.0,-166.0,1019.0,385.0,-146.0,-875.0,-332.0
-13.0,-238.0,-126.0,-179.0,1020.0,375.0,-149.0,-906.0,-325.0
-14.0,-246.0,-121.0,-185.0,1022.0,361.0,-145.0,-921.0,-321.0
-16.0,-249.0,-121.0,-176.0,1023.0,347.0,-143.0,-949.0,-319.0
