acc1_x,acc1_y,acc1_z,gyro_x,gyro_y,gyro_z,acc2_x,acc2_y,acc2_z
9.0,-238.0,-146.0,-27.0,19.0,-13.0,-40.0,-908.0,-437.0
9.0,-234.0,-148.0,-27.0,20.0,-13.0,-45.0,-906.0,-438.0
10.0,-237.0,-147.0,-27.0,21.0,-13.0,-42.0,-903.0,-438.0
7.0,-237.0,-150.0,-26.0,22.0,-13.0,-42.0,-905.0,-434.0
8.0,-249.0,-167.0,-25.0,22.0,-13.0,-38.0,-901.0,-432.0
11.0,-236.0,-152.0,-25.0,22.0,-11.0,-40.0,-907.0,-428.0
12.0,-238.0,-148.0,-25.0,24.0,-11.0,-42.0,-910.0,-433.0
12.0,-240.0,-150.0,-26.0,25.0,-10.0,-41.0,-908.0,-430.0
10.0,-239.0,-144.0,-29.0,26.0,-11.0,-39.0,-898.0,-427.0
10.0,-237.0,-145.0,-32.0,25.0,-10.0,-38.0,-899.0,-432.0
10.0,-234.0,-145.0,-35.0,25.0,-11.0,-39.0,-901.0,-434.0
12.0,-236.0,-144.0,-37.0,26.0,-11.0,-36.0,-902.0,-429.0
9.0,-238.0,-149.0,-41.0,27.0,-12.0,-39.0,-901.0,-429.0
10.0,-239.0,-148.0,-42.0,26.0,-11.0,-37.0,-900.0,-435.0
6.0,-243.0,-161.0,-44.0,26.0,-12.0,-42.0,-901.0,-434.0
8.0,-235.0,-147.0,-44.0,26.0,-14.0,-39.0,-908.0,-432.0
8.0,-241.0,-151.0,-45.0,24.0,-13.0,-41.0,-909.0,-430.0
7.0,-241.0,-145.0,-44.0,21.0,-11.0,-38.0,-912.0,-437.0
8.0,-238.0,-147.0,-43.0,22.0,-13.0,-41.0,-913.0,-436.0
10.0,-239.0,-149.0,-40.0,20.0,-13.0,-44.0,-910.0,-432.0
4.0,-236.0,-148.0,-37.0,21.0,-14.0,-40.0,-909.0,-429.0
8.0,-237.0,-148.0,-33.0,21.0,-13.0,-43.0,-911.0,-435.0
9.0,-242.0,-148.0,-31.0,19.0,-14.0,-43.0,-911.0,-438.0
9.0,-239.0,-154.0,-31.0,17.0,-14.0,-42.0,-912.0,-434.0
8.0,-239.0,-144.0,-30.0,17.0,-15.0,-41.0,-912.0,-434.0
8.0,-241.0,-147.0,-29.0,19.0,-15.0,-44.0,-906.0,-437.0
9.0,-236.0,-150.0,-30.0,19.0,-16.0,-44.0,-905.0,-438.0
12.0,-240.0,-151.0,-30.0,19.0,-13.0,-39.0,-908.0,-437.0
10.0,-239.0,-148.0,-29.0,21.0,-14.0,-40.0,-903.0,-431.0
9.0,-235.0,-147.0,-29.0,23.0,-13.0,-39.0,-908.0,-434.0
9.0,-239.0,-147.0,-28.0,24.0,-12.0,-36.0,-904.0,-435.0
9.0,-235.0,-147.0,-28.0,27.0,-12.0,-38.0,-894.0,-433.0
8.0,-237.0,-150.0,-29.0,27.0,-11.0,-39.0,-889.0,-431.0
10.0,-236.0,-150.0,-31.0,29.0,-9.0,-38.0,-885.0,-427.0
8.0,-236.0,-149.0,-34.0,30.0,-9.0,-33.0,-891.0,-430.0
11.0,-239.0,-148.0,-32.0,29.0,-9.0,-38.0,-898.0,-437.0
9.0,-238.0,-148.0,-34.0,29.0,-8.0,-35.0,-898.0,-435.0
6.0,-236.0,-146.0,-35.0,32.0,-7.0,-42.0,-901.0,-433.0
8.0,-237.0,-147.0,-37.0,29.0,-7.0,-40.0,-895.0,-433.0
9.0,-236.0,-150.0,-40.0,28.0,-8.0,-42.0,-901.0,-436.0
8.0,-242.0,-150.0,-45.0,26.0,-8.0,-36.0,-911.0,-431.0
11.0,-238.0,-148.0,-45.0,25.0,-7.0,-41.0,-909.0,-437.0
9.0,-237.0,-147.0,-45.0,23.0,-7.0,-38.0,-909.0,-436.0
10.0,-239.0,-148.0,-46.0,22.0,-8.0,-38.0,-914.0,-441.0
11.0,-239.0,-145.0,-44.0,22.0,-9.0,-42.0,-912.0,-440.0
6.0,-237.0,-146.0,-42.0,19.0,-9.0,-40.0,-911.0,-437.0
10.0,-240.0,-144.0,-39.0,17.0,-9.0,-37.0,-911.0,-431.0
8.0,-240.0,-146.0,-37.0,16.0,-10.0,-37.0,-911.0,-434.0
10.0,-242.0,-147.0,-38.0,13.0,-12.0,-36.0,-908.0,-436.0
9.0,-236.0,-147.0,-38.0,14.0,-12.0,-32.0,-909.0,-434.0
11.0,-237.0,-151.0,-41.0,15.0,-13.0,-33.0,-906.0,-437.0
8.0,-239.0,-152.0,-42.0,15.0,-13.0,-36.0,-911.0,-437.0
13.0,-240.0,-148.0,-43.0,16.0,-13.0,-34.0,-915.0,-437.0
13.0,-240.0,-146.0,-44.0,20.0,-15.0,-32.0,-911.0,-439.0
12.0,-240.0,-146.0,-45.0,20.0,-14.0,-34.0,-916.0,-434.0
12.0,-243.0,-147.0,-43.0,21.0,-13.0,-33.0,-911.0,-437.0
13.0,-240.0,-147.0,-40.0,20.0,-14.0,-32.0,-911.0,-439.0
9.0,-237.0,-147.0,-39.0,21.0,-13.0,-34.0,-909.0,-436.0
13.0,-240.0,-150.0,-38.0,20.0,-13.0,-36.0,-904.0,-432.0
9.0,-240.0,-150.0,-37.0,20.0,-14.0,-37.0,-905.0,-433.0
10.0,-237.0,-148.0,-35.0,21.0,-14.0,-35.0,-902.0,-436.0
10.0,-236.0,-148.0,-35.0,20.0,-14.0,-34.0,-903.0,-439.0
12.0,-237.0,-154.0,-34.0,19.0,-12.0,-37.0,-902.0,-434.0
11.0,-236.0,-151.0,-35.0,20.0,-13.0,-32.0,-897.0,-432.0
7.0,-236.0,-150.0,-36.0,21.0,-13.0,-35.0,-895.0,-432.0
7.0,-235.0,-149.0,-39.0,21.0,-13.0,-34.0,-906.0,-430.0
10.0,-236.0,-149.0,-42.0,21.0,-13.0,-34.0,-897.0,-433.0
11.0,-236.0,-147.0,-44.0,22.0,-14.0,-36.0,-899.0,-426.0
11.0,-238.0,-144.0,-47.0,21.0,-13.0,-34.0,-889.0,-426.0
11.0,-237.0,-144.0,-51.0,20.0,-13.0,-34.0,-898.0,-424.0
7.0,-235.0,-147.0,-54.0,20.0,-10.0,-33.0,-891.0,-432.0
9.0,-235.0,-146.0,-55.0,20.0,-11.0,-33.0,-896.0,-431.0
8.0,-237.0,-144.0,-58.0,18.0,-9.0,-32.0,-898.0,-431.0
10.0,-234.0,-147.0,-59.0,20.0,-10.0,-37.0,-896.0,-432.0
13.0,-236.0,-148.0,-59.0,21.0,-10.0,-33.0,-893.0,-436.0
11.0,-237.0,-146.0,-60.0,22.0,-8.0,-37.0,-902.0,-432.0
8.0,-235.0,-152.0,-62.0,21.0,-7.0,-37.0,-904.0,-432.0
9.0,-239.0,-148.0,-64.0,20.0,-6.0,-37.0,-900.0,-436.0
10.0,-238.0,-147.0,-66.0,22.0,-5.0,-34.0,-904.0,-434.0
9.0,-238.0,-147.0,-66.0,23.0,-4.0,-39.0,-906.0,-440.0
7.0,-238.0,-151.0,-69.0,23.0,-2.0,-39.0,-908.0,-437.0
9.0,-240.0,-148.0,-69.0,25.0,0.0,-46.0,-908.0,-437.0
7.0,-238.0,-149.0,-68.0,27.0,1.0,-42.0,-913.0,-441.0
6.0,-237.0,-151.0,-68.0,30.0,2.0,-48.0,-910.0,-435.0
10.0,-240.0,-154.0,-68.0,33.0,4.0,-39.0,-909.0,-437.0
7.0,-238.0,-149.0,-69.0,36.0,6.0,-41.0,-916.0,-435.0
11.0,-243.0,-149.0,-71.0,38.0,7.0,-39.0,-914.0,-428.0
8.0,-239.0,-149.0,-74.0,41.0,8.0,-35.0,-914.0,-436.0
11.0,-242.0,-148.0,-77.0,41.0,9.0,-39.0,-922.0,-429.0
12.0,-243.0,-149.0,-79.0,41.0,10.0,-33.0,-919.0,-428.0
8.0,-242.0,-149.0,-75.0,42.0,10.0,-34.0,-922.0,-422.0
13.0,-243.0,-147.0,-69.0,40.0,10.0,-33.0,-921.0,-423.0
9.0,-237.0,-147.0,-60.0,37.0,10.0,-34.0,-916.0,-426.0
12.0,-237.0,-141.0,-53.0,36.0,9.0,-33.0,-907.0,-424.0
12.0,-234.0,-148.0,-46.0,33.0,6.0,-30.0,-888.0,-425.0
11.0,-234.0,-145.0,-42.0,30.0,4.0,-32.0,-884.0,-426.0
9.0,-232.0,-145.0,-37.0,27.0,2.0,-35.0,-874.0,-426.0
11.0,-231.0,-149.0,-36.0,24.0,0.0,-31.0,-875.0,-433.0
9.0,-233.0,-149.0,-37.0,21.0,-1.0,-35.0,-873.0,-435.0
9.0,-233.0,-146.0,-40.0,19.0,-3.0,-35.0,-870.0,-436.0
10.0,-229.0,-149.0,-47.0,19.0,-5.0,-36.0,-874.0,-438.0
12.0,-232.0,-146.0,-57.0,16.0,-5.0,-35.0,-874.0,-438.0
8.0,-231.0,-150.0,-67.0,15.0,-4.0,-40.0,-882.0,-441.0
9.0,-232.0,-149.0,-75.0,12.0,-7.0,-38.0,-875.0,-442.0
8.0,-233.0,-152.0,-82.0,10.0,-8.0,-36.0,-885.0,-444.0
10.0,-236.0,-150.0,-84.0,7.0,-7.0,-35.0,-891.0,-444.0
10.0,-234.0,-151.0,-83.0,4.0,-8.0,-36.0,-892.0,-438.0
8.0,-235.0,-154.0,-81.0,3.0,-8.0,-38.0,-893.0,-441.0
6.0,-235.0,-148.0,-75.0,3.0,-9.0,-39.0,-889.0,-439.0
11.0,-236.0,-155.0,-68.0,4.0,-11.0,-40.0,-891.0,-441.0
8.0,-231.0,-150.0,-65.0,7.0,-7.0,-38.0,-888.0,-442.0
8.0,-234.0,-149.0,-64.0,9.0,-6.0,-43.0,-886.0,-438.0
11.0,-234.0,-147.0,-64.0,12.0,-5.0,-40.0,-883.0,-436.0
7.0,-240.0,-144.0,-64.0,15.0,-3.0,-37.0,-882.0,-438.0
11.0,-235.0,-149.0,-64.0,19.0,-2.0,-42.0,-886.0,-434.0
11.0,-237.0,-150.0,-64.0,21.0,0.0,-41.0,-889.0,-434.0
11.0,-236.0,-144.0,-65.0,24.0,2.0,-39.0,-893.0,-438.0
8.0,-236.0,-152.0,-63.0,26.0,3.0,-38.0,-888.0,-429.0
9.0,-236.0,-152.0,-64.0,25.0,5.0,-36.0,-897.0,-437.0
8.0,-236.0,-147.0,-62.0,27.0,6.0,-38.0,-899.0,-440.0
7.0,-237.0,-149.0,-61.0,29.0,9.0,-39.0,-898.0,-440.0
9.0,-233.0,-149.0,-60.0,29.0,8.0,-40.0,-901.0,-438.0
9.0,-236.0,-151.0,-60.0,29.0,9.0,-36.0,-888.0,-438.0
10.0,-236.0,-148.0,-59.0,28.0,10.0,-34.0,-907.0,-437.0
10.0,-237.0,-148.0,-58.0,27.0,10.0,-37.0,-898.0,-439.0
6.0,-235.0,-145.0,-55.0,26.0,9.0,-38.0,-909.0,-439.0
11.0,-239.0,-150.0,-52.0,24.0,9.0,-35.0,-908.0,-452.0
9.0,-239.0,-151.0,-51.0,24.0,9.0,-36.0,-907.0,-450.0
9.0,-237.0,-154.0,-50.0,22.0,8.0,-37.0,-910.0,-446.0
8.0,-238.0,-152.0,-51.0,20.0,6.0,-38.0,-911.0,-444.0
9.0,-237.0,-152.0,-51.0,18.0,7.0,-37.0,-910.0,-442.0
8.0,-237.0,-151.0,-51.0,18.0,5.0,-36.0,-912.0,-445.0
9.0,-240.0,-151.0,-51.0,15.0,5.0,-43.0,-913.0,-447.0
7.0,-237.0,-148.0,-49.0,13.0,4.0,-39.0,-908.0,-437.0
15.0,-237.0,-171.0,-47.0,12.0,3.0,-37.0,-904.0,-440.0
11.0,-240.0,-149.0,-50.0,10.0,2.0,-40.0,-905.0,-441.0
9.0,-241.0,-151.0,-50.0,9.0,2.0,-38.0,-904.0,-443.0
7.0,-237.0,-148.0,-52.0,7.0,2.0,-39.0,-899.0,-438.0
10.0,-237.0,-152.0,-54.0,6.0,0.0,-36.0,-896.0,-440.0
11.0,-238.0,-146.0,-55.0,6.0,0.0,-39.0,-892.0,-437.0
11.0,-234.0,-150.0,-57.0,4.0,-2.0,-39.0,-900.0,-435.0
11.0,-238.0,-148.0,-60.0,4.0,-3.0,-40.0,-901.0,-431.0
10.0,-234.0,-149.0,-62.0,2.0,-4.0,-43.0,-897.0,-436.0
11.0,-240.0,-150.0,-63.0,3.0,-3.0,-38.0,-901.0,-433.0
6.0,-236.0,-145.0,-66.0,3.0,-3.0,-38.0,-898.0,-437.0
17.0,-233.0,-146.0,-66.0,3.0,-2.0,-46.0,-899.0,-436.0
9.0,-237.0,-147.0,-65.0,4.0,-1.0,-38.0,-907.0,-438.0
12.0,-237.0,-152.0,-65.0,5.0,0.0,-39.0,-905.0,-442.0
9.0,-239.0,-150.0,-63.0,6.0,0.0,-38.0,-909.0,-440.0
8.0,-236.0,-156.0,-60.0,8.0,1.0,-39.0,-902.0,-443.0
10.0,-236.0,-149.0,-58.0,12.0,2.0,-42.0,-900.0,-441.0
10.0,-237.0,-152.0,-58.0,13.0,4.0,-44.0,-903.0,-440.0
12.0,-237.0,-153.0,-56.0,16.0,4.0,-41.0,-897.0,-444.0
8.0,-237.0,-155.0,-58.0,18.0,5.0,-42.0,-897.0,-441.0
8.0,-238.0,-152.0,-56.0,19.0,4.0,-42.0,-890.0,-444.0
7.0,-234.0,-150.0,-57.0,21.0,4.0,-39.0,-890.0,-444.0
8.0,-238.0,-151.0,-56.0,22.0,4.0,-46.0,-888.0,-441.0
9.0,-232.0,-150.0,-55.0,21.0,2.0,-40.0,-887.0,-443.0
8.0,-235.0,-151.0,-53.0,21.0,2.0,-46.0,-884.0,-445.0
7.0,-235.0,-152.0,-53.0,20.0,0.0,-48.0,-896.0,-446.0
9.0,-233.0,-151.0,-54.0,19.0,1.0,-42.0,-878.0,-450.0
8.0,-235.0,-147.0,-57.0,17.0,0.0,-43.0,-885.0,-445.0
7.0,-236.0,-151.0,-61.0,17.0,-1.0,-43.0,-886.0,-447.0
10.0,-234.0,-152.0,-66.0,16.0,-1.0,-40.0,-890.0,-444.0
10.0,-237.0,-149.0,-72.0,15.0,0.0,-39.0,-889.0,-445.0
7.0,-234.0,-152.0,-74.0,14.0,1.0,-46.0,-890.0,-442.0
9.0,-236.0,-153.0,-77.0,13.0,0.0,-39.0,-902.0,-448.0
12.0,-237.0,-149.0,-80.0,12.0,1.0,-40.0,-912.0,-447.0
11.0,-239.0,-152.0,-79.0,12.0,1.0,-38.0,-907.0,-447.0
8.0,-240.0,-152.0,-78.0,12.0,1.0,-33.0,-915.0,-446.0
13.0,-239.0,-147.0,-74.0,12.0,2.0,-34.0,-912.0,-446.0
9.0,-242.0,-152.0,-71.0,11.0,0.0,-34.0,-911.0,-444.0
12.0,-242.0,-150.0,-67.0,11.0,0.0,-38.0,-910.0,-445.0
12.0,-241.0,-149.0,-62.0,10.0,0.0,-38.0,-916.0,-442.0
10.0,-239.0,-151.0,-59.0,10.0,2.0,-37.0,-913.0,-440.0
8.0,-240.0,-148.0,-55.0,8.0,-1.0,-41.0,-910.0,-441.0
10.0,-241.0,-150.0,-52.0,8.0,0.0,-39.0,-909.0,-447.0
7.0,-236.0,-148.0,-50.0,6.0,-1.0,-38.0,-907.0,-440.0
11.0,-238.0,-151.0,-48.0,6.0,-3.0,-38.0,-912.0,-441.0
5.0,-237.0,-147.0,-49.0,7.0,-2.0,-37.0,-892.0,-439.0
8.0,-239.0,-151.0,-49.0,8.0,-4.0,-38.0,-906.0,-443.0
7.0,-237.0,-147.0,-51.0,8.0,-3.0,-44.0,-908.0,-441.0
9.0,-240.0,-144.0,-50.0,8.0,-5.0,-43.0,-908.0,-440.0
7.0,-236.0,-145.0,-50.0,6.0,-5.0,-43.0,-903.0,-439.0
8.0,-236.0,-149.0,-52.0,5.0,-5.0,-43.0,-896.0,-442.0
9.0,-240.0,-151.0,-54.0,5.0,-6.0,-44.0,-908.0,-438.0
10.0,-238.0,-151.0,-56.0,4.0,-6.0,-42.0,-898.0,-437.0
8.0,-238.0,-152.0,-59.0,4.0,-5.0,-40.0,-904.0,-438.0
6.0,-237.0,-153.0,-61.0,4.0,-4.0,-44.0,-909.0,-443.0
5.0,-235.0,-151.0,-64.0,4.0,-4.0,-39.0,-898.0,-442.0
11.0,-238.0,-153.0,-64.0,5.0,-2.0,-41.0,-912.0,-441.0
8.0,-239.0,-150.0,-64.0,4.0,-3.0,-40.0,-913.0,-443.0
8.0,-243.0,-148.0,-63.0,5.0,-4.0,-42.0,-907.0,-448.0
8.0,-240.0,-149.0,-62.0,8.0,-4.0,-47.0,-923.0,-442.0
10.0,-242.0,-149.0,-58.0,10.0,-4.0,-42.0,-912.0,-444.0
7.0,-241.0,-152.0,-55.0,11.0,-4.0,-43.0,-914.0,-444.0
6.0,-239.0,-152.0,-52.0,12.0,-3.0,-41.0,-910.0,-440.0
7.0,-240.0,-154.0,-49.0,13.0,-3.0,-41.0,-912.0,-448.0
7.0,-242.0,-150.0,-46.0,15.0,-5.0,-44.0,-910.0,-448.0
9.0,-240.0,-150.0,-44.0,16.0,-5.0,-42.0,-908.0,-444.0
9.0,-239.0,-151.0,-42.0,18.0,-5.0,-43.0,-909.0,-444.0
3.0,-235.0,-151.0,-43.0,19.0,-6.0,-38.0,-910.0,-446.0
9.0,-234.0,-151.0,-42.0,18.0,-7.0,-42.0,-907.0,-442.0
6.0,-239.0,-152.0,-42.0,19.0,-7.0,-43.0,-902.0,-437.0
6.0,-235.0,-149.0,-43.0,20.0,-8.0,-38.0,-904.0,-443.0
7.0,-238.0,-149.0,-43.0,19.0,-9.0,-38.0,-904.0,-441.0
7.0,-237.0,-149.0,-41.0,18.0,-9.0,-40.0,-899.0,-438.0
11.0,-239.0,-154.0,-41.0,18.0,-8.0,-36.0,-907.0,-438.0
7.0,-237.0,-148.0,-43.0,17.0,-9.0,-44.0,-897.0,-440.0
12.0,-237.0,-149.0,-41.0,15.0,-9.0,-33.0,-907.0,-438.0
11.0,-238.0,-150.0,-42.0,13.0,-9.0,-38.0,-900.0,-438.0
10.0,-233.0,-150.0,-43.0,11.0,-9.0,-37.0,-894.0,-439.0
10.0,-236.0,-146.0,-45.0,11.0,-10.0,-37.0,-900.0,-441.0
10.0,-237.0,-149.0,-47.0,11.0,-8.0,-41.0,-909.0,-439.0
11.0,-236.0,-153.0,-48.0,10.0,-10.0,-40.0,-907.0,-438.0
7.0,-240.0,-148.0,-49.0,10.0,-10.0,-46.0,-905.0,-439.0
12.0,-239.0,-149.0,-50.0,11.0,-10.0,-41.0,-902.0,-440.0
9.0,-241.0,-150.0,-49.0,11.0,-9.0,-43.0,-902.0,-439.0
11.0,-240.0,-152.0,-47.0,13.0,-7.0,-46.0,-910.0,-445.0
7.0,-238.0,-154.0,-45.0,15.0,-7.0,-41.0,-908.0,-444.0
8.0,-239.0,-150.0,-42.0,16.0,-7.0,-43.0,-906.0,-443.0
8.0,-241.0,-150.0,-40.0,19.0,-7.0,-41.0,-911.0,-444.0
6.0,-241.0,-153.0,-38.0,20.0,-7.0,-41.0,-904.0,-444.0
9.0,-239.0,-154.0,-38.0,20.0,-8.0,-45.0,-900.0,-444.0
9.0,-238.0,-154.0,-37.0,19.0,-7.0,-46.0,-902.0,-446.0
11.0,-238.0,-156.0,-38.0,19.0,-6.0,-40.0,-904.0,-447.0
7.0,-237.0,-154.0,-38.0,18.0,-5.0,-45.0,-902.0,-447.0
8.0,-236.0,-151.0,-40.0,19.0,-6.0,-47.0,-902.0,-440.0
9.0,-237.0,-146.0,-39.0,17.0,-7.0,-46.0,-902.0,-447.0
6.0,-234.0,-154.0,-38.0,15.0,-8.0,-49.0,-900.0,-441.0
7.0,-237.0,-154.0,-39.0,13.0,-8.0,-46.0,-902.0,-442.0
8.0,-235.0,-151.0,-36.0,13.0,-9.0,-48.0,-894.0,-444.0
6.0,-234.0,-150.0,-37.0,13.0,-11.0,-52.0,-898.0,-441.0
9.0,-234.0,-152.0,-37.0,12.0,-10.0,-48.0,-898.0,-442.0
6.0,-236.0,-151.0,-36.0,9.0,-11.0,-50.0,-893.0,-444.0
8.0,-234.0,-152.0,-36.0,7.0,-11.0,-45.0,-893.0,-443.0
8.0,-237.0,-155.0,-38.0,7.0,-12.0,-47.0,-900.0,-442.0
8.0,-236.0,-149.0,-40.0,5.0,-10.0,-49.0,-892.0,-447.0
8.0,-235.0,-152.0,-42.0,6.0,-11.0,-45.0,-895.0,-448.0
4.0,-235.0,-154.0,-45.0,6.0,-12.0,-45.0,-901.0,-441.0
8.0,-238.0,-152.0,-47.0,5.0,-11.0,-42.0,-904.0,-447.0
7.0,-236.0,-154.0,-48.0,5.0,-10.0,-46.0,-903.0,-448.0
7.0,-238.0,-151.0,-46.0,7.0,-9.0,-41.0,-905.0,-444.0
7.0,-238.0,-150.0,-46.0,10.0,-9.0,-45.0,-904.0,-447.0
6.0,-232.0,-154.0,-45.0,13.0,-9.0,-45.0,-907.0,-448.0
8.0,-239.0,-152.0,-43.0,16.0,-8.0,-46.0,-905.0,-447.0
8.0,-238.0,-152.0,-43.0,18.0,-5.0,-40.0,-911.0,-450.0
9.0,-238.0,-151.0,-41.0,19.0,-4.0,-42.0,-907.0,-446.0
8.0,-237.0,-150.0,-39.0,22.0,-4.0,-43.0,-908.0,-441.0
10.0,-237.0,-152.0,-37.0,23.0,-4.0,-44.0,-897.0,-443.0
10.0,-237.0,-150.0,-38.0,22.0,-4.0,-41.0,-898.0,-443.0
10.0,-237.0,-150.0,-38.0,22.0,-2.0,-35.0,-905.0,-443.0
10.0,-239.0,-151.0,-37.0,21.0,-4.0,-40.0,-905.0,-442.0
7.0,-236.0,-150.0,-37.0,20.0,-4.0,-41.0,-905.0,-443.0
12.0,-236.0,-148.0,-37.0,18.0,-4.0,-37.0,-900.0,-436.0
8.0,-238.0,-149.0,-36.0,19.0,-5.0,-41.0,-901.0,-443.0
12.0,-239.0,-149.0,-38.0,17.0,-6.0,-39.0,-896.0,-446.0
9.0,-236.0,-149.0,-39.0,16.0,-6.0,-35.0,-904.0,-440.0
10.0,-236.0,-152.0,-38.0,15.0,-8.0,-45.0,-890.0,-444.0
7.0,-236.0,-150.0,-40.0,13.0,-8.0,-37.0,-898.0,-443.0
8.0,-233.0,-152.0,-42.0,11.0,-7.0,-40.0,-899.0,-439.0
10.0,-234.0,-153.0,-43.0,8.0,-9.0,-38.0,-889.0,-445.0
7.0,-235.0,-152.0,-43.0,8.0,-8.0,-36.0,-902.0,-445.0
6.0,-235.0,-155.0,-45.0,7.0,-8.0,-44.0,-900.0,-443.0
10.0,-235.0,-154.0,-45.0,6.0,-7.0,-42.0,-891.0,-444.0
8.0,-254.0,-138.0,-46.0,6.0,-6.0,-43.0,-895.0,-447.0
7.0,-235.0,-155.0,-47.0,7.0,-7.0,-46.0,-897.0,-449.0
9.0,-235.0,-155.0,-49.0,10.0,-6.0,-45.0,-890.0,-451.0
10.0,-237.0,-146.0,-50.0,10.0,-6.0,-46.0,-902.0,-445.0
8.0,-236.0,-146.0,-49.0,11.0,-4.0,-44.0,-895.0,-446.0
7.0,-234.0,-150.0,-48.0,11.0,-2.0,-44.0,-902.0,-445.0
10.0,-239.0,-153.0,-48.0,11.0,-2.0,-46.0,-899.0,-446.0
7.0,-237.0,-152.0,-47.0,12.0,-2.0,-45.0,-892.0,-447.0
10.0,-235.0,-152.0,-46.0,15.0,-2.0,-47.0,-905.0,-446.0
3.0,-238.0,-152.0,-43.0,16.0,-3.0,-49.0,-904.0,-446.0
6.0,-239.0,-150.0,-44.0,17.0,-2.0,-49.0,-898.0,-445.0
9.0,-244.0,-143.0,-44.0,18.0,-3.0,-42.0,-902.0,-443.0
7.0,-236.0,-149.0,-43.0,21.0,-2.0,-49.0,-908.0,-444.0
9.0,-237.0,-152.0,-42.0,21.0,-2.0,-43.0,-898.0,-442.0
5.0,-238.0,-150.0,-42.0,21.0,-1.0,-49.0,-901.0,-441.0
8.0,-236.0,-152.0,-42.0,22.0,-1.0,-45.0,-900.0,-442.0
8.0,-240.0,-150.0,-40.0,21.0,-1.0,-46.0,-907.0,-441.0
6.0,-238.0,-149.0,-42.0,20.0,-3.0,-48.0,-902.0,-441.0
7.0,-236.0,-150.0,-41.0,19.0,-2.0,-46.0,-903.0,-443.0
6.0,-236.0,-152.0,-40.0,18.0,-3.0,-46.0,-900.0,-443.0
7.0,-234.0,-147.0,-40.0,17.0,-3.0,-48.0,-906.0,-441.0
7.0,-240.0,-149.0,-43.0,16.0,-3.0,-44.0,-898.0,-441.0
9.0,-236.0,-151.0,-44.0,15.0,-3.0,-40.0,-898.0,-441.0
7.0,-238.0,-156.0,-44.0,14.0,-3.0,-41.0,-892.0,-441.0
8.0,-235.0,-150.0,-47.0,14.0,-2.0,-39.0,-893.0,-444.0
9.0,-237.0,-151.0,-49.0,13.0,-2.0,-39.0,-892.0,-444.0
11.0,-234.0,-152.0,-52.0,11.0,-2.0,-44.0,-896.0,-446.0
13.0,-239.0,-154.0,-57.0,11.0,-1.0,-45.0,-898.0,-442.0
8.0,-239.0,-149.0,-60.0,10.0,-1.0,-39.0,-901.0,-445.0
12.0,-237.0,-152.0,-61.0,10.0,-1.0,-36.0,-904.0,-447.0
7.0,-238.0,-152.0,-61.0,10.0,-1.0,-37.0,-910.0,-445.0
5.0,-235.0,-152.0,-59.0,10.0,0.0,-39.0,-915.0,-450.0
8.0,-240.0,-154.0,-57.0,9.0,0.0,-39.0,-909.0,-446.0
12.0,-242.0,-151.0,-53.0,10.0,-1.0,-38.0,-907.0,-447.0
10.0,-239.0,-155.0,-51.0,10.0,0.0,-36.0,-904.0,-449.0
8.0,-242.0,-153.0,-49.0,9.0,-1.0,-41.0,-906.0,-443.0
9.0,-237.0,-150.0,-47.0,9.0,-1.0,-39.0,-907.0,-445.0
9.0,-238.0,-153.0,-44.0,9.0,-3.0,-43.0,-900.0,-444.0
8.0,-236.0,-147.0,-42.0,11.0,-3.0,-44.0,-900.0,-446.0
7.0,-238.0,-151.0,-41.0,10.0,-3.0,-38.0,-907.0,-440.0
7.0,-236.0,-150.0,-40.0,11.0,-3.0,-38.0,-899.0,-445.0
9.0,-239.0,-152.0,-37.0,11.0,-4.0,-38.0,-896.0,-441.0
9.0,-233.0,-154.0,-35.0,11.0,-2.0,-42.0,-894.0,-444.0
8.0,-233.0,-147.0,-34.0,12.0,-4.0,-41.0,-889.0,-440.0
7.0,-234.0,-152.0,-35.0,13.0,-5.0,-40.0,-887.0,-443.0
6.0,-234.0,-148.0,-37.0,13.0,-4.0,-42.0,-886.0,-439.0
9.0,-235.0,-148.0,-39.0,13.0,-5.0,-41.0,-887.0,-442.0
10.0,-234.0,-151.0,-43.0,12.0,-3.0,-43.0,-889.0,-441.0
9.0,-234.0,-152.0,-45.0,13.0,-3.0,-44.0,-889.0,-440.0
8.0,-236.0,-151.0,-49.0,13.0,-3.0,-45.0,-890.0,-445.0
10.0,-236.0,-153.0,-52.0,12.0,-3.0,-43.0,-891.0,-442.0
8.0,-238.0,-154.0,-53.0,13.0,-3.0,-46.0,-899.0,-439.0
10.0,-238.0,-150.0,-57.0,13.0,-3.0,-42.0,-888.0,-442.0
8.0,-237.0,-150.0,-60.0,14.0,-3.0,-45.0,-894.0,-443.0
7.0,-235.0,-149.0,-61.0,15.0,-3.0,-41.0,-905.0,-443.0
7.0,-237.0,-150.0,-61.0,17.0,-4.0,-40.0,-898.0,-440.0
8.0,-239.0,-151.0,-61.0,19.0,-3.0,-39.0,-905.0,-441.0
12.0,-240.0,-146.0,-60.0,20.0,-2.0,-40.0,-913.0,-439.0
10.0,-241.0,-151.0,-56.0,21.0,-3.0,-38.0,-907.0,-444.0
11.0,-237.0,-150.0,-54.0,20.0,-3.0,-37.0,-911.0,-445.0
9.0,-238.0,-148.0,-55.0,21.0,-2.0,-41.0,-911.0,-441.0
7.0,-239.0,-151.0,-55.0,20.0,-2.0,-34.0,-905.0,-446.0
8.0,-241.0,-152.0,-54.0,19.0,-2.0,-34.0,-910.0,-444.0
9.0,-238.0,-149.0,-53.0,18.0,-2.0,-36.0,-910.0,-450.0
9.0,-237.0,-151.0,-50.0,16.0,-4.0,-41.0,-900.0,-451.0
9.0,-237.0,-153.0,-49.0,16.0,-5.0,-40.0,-912.0,-444.0
9.0,-237.0,-157.0,-48.0,16.0,-5.0,-41.0,-912.0,-442.0
7.0,-238.0,-150.0,-44.0,15.0,-4.0,-41.0,-909.0,-444.0
7.0,-238.0,-154.0,-42.0,16.0,-5.0,-41.0,-912.0,-442.0
10.0,-237.0,-154.0,-37.0,16.0,-4.0,-37.0,-907.0,-444.0
9.0,-238.0,-148.0,-38.0,15.0,-5.0,-44.0,-897.0,-444.0
7.0,-237.0,-150.0,-35.0,14.0,-5.0,-39.0,-907.0,-438.0
9.0,-237.0,-148.0,-34.0,15.0,-6.0,-43.0,-900.0,-446.0
8.0,-237.0,-153.0,-35.0,14.0,-8.0,-41.0,-891.0,-441.0
12.0,-238.0,-148.0,-36.0,14.0,-7.0,-40.0,-894.0,-444.0
6.0,-231.0,-151.0,-37.0,14.0,-5.0,-46.0,-885.0,-439.0
8.0,-234.0,-147.0,-38.0,14.0,-5.0,-41.0,-890.0,-439.0
6.0,-234.0,-153.0,-43.0,14.0,-8.0,-47.0,-898.0,-445.0
9.0,-235.0,-151.0,-45.0,14.0,-7.0,-44.0,-897.0,-439.0
5.0,-235.0,-154.0,-47.0,17.0,-8.0,-45.0,-894.0,-442.0
7.0,-239.0,-151.0,-47.0,17.0,-6.0,-44.0,-900.0,-444.0
8.0,-237.0,-151.0,-47.0,19.0,-7.0,-49.0,-895.0,-445.0
6.0,-236.0,-149.0,-45.0,22.0,-6.0,-41.0,-896.0,-446.0
12.0,-236.0,-151.0,-45.0,21.0,-5.0,-47.0,-891.0,-450.0
9.0,-237.0,-157.0,-46.0,23.0,-3.0,-39.0,-899.0,-444.0
9.0,-240.0,-150.0,-47.0,24.0,-2.0,-40.0,-897.0,-449.0
11.0,-240.0,-151.0,-48.0,26.0,-2.0,-41.0,-893.0,-447.0
9.0,-238.0,-148.0,-49.0,25.0,-2.0,-45.0,-897.0,-444.0
6.0,-234.0,-158.0,-47.0,26.0,-3.0,-45.0,-889.0,-448.0
6.0,-235.0,-149.0,-49.0,25.0,-3.0,-42.0,-893.0,-444.0
10.0,-234.0,-154.0,-48.0,25.0,-5.0,-43.0,-892.0,-443.0
9.0,-236.0,-148.0,-48.0,24.0,-4.0,-46.0,-889.0,-444.0
7.0,-235.0,-150.0,-47.0,23.0,-6.0,-43.0,-894.0,-447.0
10.0,-236.0,-149.0,-47.0,22.0,-6.0,-40.0,-896.0,-439.0
8.0,-236.0,-154.0,-45.0,20.0,-6.0,-48.0,-898.0,-444.0
10.0,-237.0,-154.0,-46.0,17.0,-7.0,-47.0,-899.0,-446.0
8.0,-236.0,-153.0,-44.0,17.0,-8.0,-45.0,-895.0,-445.0
8.0,-235.0,-151.0,-43.0,16.0,-9.0,-51.0,-890.0,-446.0
7.0,-234.0,-151.0,-43.0,15.0,-8.0,-43.0,-902.0,-438.0
9.0,-236.0,-153.0,-41.0,15.0,-9.0,-46.0,-894.0,-442.0
9.0,-234.0,-151.0,-43.0,14.0,-9.0,-39.0,-891.0,-448.0
7.0,-239.0,-153.0,-46.0,14.0,-8.0,-45.0,-891.0,-446.0
6.0,-233.0,-152.0,-48.0,15.0,-9.0,-42.0,-889.0,-445.0
11.0,-234.0,-152.0,-50.0,14.0,-11.0,-42.0,-893.0,-452.0
10.0,-237.0,-152.0,-51.0,14.0,-10.0,-43.0,-901.0,-449.0
9.0,-234.0,-153.0,-51.0,16.0,-9.0,-43.0,-906.0,-449.0
7.0,-239.0,-149.0,-51.0,18.0,-8.0,-40.0,-899.0,-447.0
10.0,-239.0,-149.0,-50.0,21.0,-7.0,-42.0,-903.0,-448.0
9.0,-237.0,-151.0,-49.0,21.0,-7.0,-40.0,-901.0,-445.0
8.0,-236.0,-153.0,-48.0,22.0,-5.0,-39.0,-905.0,-444.0
8.0,-245.0,-151.0,-48.0,23.0,-4.0,-41.0,-905.0,-440.0
9.0,-236.0,-148.0,-48.0,24.0,-5.0,-39.0,-904.0,-443.0
9.0,-236.0,-150.0,-49.0,24.0,-4.0,-40.0,-905.0,-443.0
9.0,-237.0,-147.0,-49.0,23.0,-5.0,-40.0,-905.0,-443.0
11.0,-239.0,-151.0,-48.0,24.0,-4.0,-41.0,-906.0,-441.0
7.0,-236.0,-151.0,-50.0,24.0,-5.0,-40.0,-908.0,-442.0
10.0,-241.0,-152.0,-49.0,23.0,-5.0,-39.0,-910.0,-444.0
8.0,-239.0,-150.0,-49.0,23.0,-4.0,-43.0,-906.0,-442.0
10.0,-240.0,-148.0,-47.0,22.0,-5.0,-40.0,-910.0,-441.0
11.0,-240.0,-151.0,-45.0,20.0,-6.0,-45.0,-912.0,-445.0
8.0,-239.0,-148.0,-43.0,20.0,-5.0,-41.0,-910.0,-441.0
8.0,-237.0,-149.0,-42.0,20.0,-6.0,-46.0,-908.0,-444.0
10.0,-239.0,-153.0,-42.0,19.0,-6.0,-42.0,-906.0,-449.0
9.0,-239.0,-153.0,-41.0,19.0,-6.0,-41.0,-906.0,-446.0
10.0,-239.0,-148.0,-42.0,20.0,-7.0,-41.0,-903.0,-442.0
9.0,-236.0,-156.0,-41.0,22.0,-7.0,-43.0,-905.0,-446.0
10.0,-240.0,-150.0,-43.0,20.0,-5.0,-41.0,-899.0,-447.0
8.0,-236.0,-152.0,-44.0,22.0,-6.0,-41.0,-906.0,-447.0
7.0,-236.0,-151.0,-45.0,23.0,-5.0,-41.0,-904.0,-446.0
6.0,-237.0,-151.0,-45.0,23.0,-5.0,-39.0,-902.0,-444.0
7.0,-238.0,-151.0,-46.0,23.0,-6.0,-43.0,-906.0,-447.0
10.0,-238.0,-144.0,-44.0,24.0,-6.0,-43.0,-906.0,-446.0
7.0,-237.0,-152.0,-43.0,22.0,-8.0,-46.0,-893.0,-446.0
6.0,-238.0,-149.0,-43.0,23.0,-8.0,-38.0,-898.0,-444.0
10.0,-237.0,-153.0,-44.0,21.0,-8.0,-46.0,-901.0,-446.0
7.0,-235.0,-149.0,-46.0,20.0,-10.0,-48.0,-888.0,-449.0
8.0,-237.0,-155.0,-46.0,21.0,-11.0,-49.0,-904.0,-443.0
7.0,-239.0,-150.0,-46.0,21.0,-12.0,-45.0,-905.0,-444.0
7.0,-235.0,-150.0,-44.0,21.0,-12.0,-52.0,-904.0,-446.0
7.0,-237.0,-152.0,-42.0,21.0,-13.0,-51.0,-900.0,-449.0
7.0,-240.0,-155.0,-41.0,22.0,-12.0,-52.0,-905.0,-442.0
8.0,-237.0,-152.0,-40.0,22.0,-12.0,-51.0,-905.0,-444.0
5.0,-234.0,-151.0,-39.0,21.0,-13.0,-55.0,-898.0,-444.0
8.0,-238.0,-153.0,-37.0,24.0,-13.0,-43.0,-909.0,-447.0
9.0,-236.0,-152.0,-37.0,24.0,-13.0,-43.0,-907.0,-446.0
7.0,-239.0,-152.0,-37.0,23.0,-14.0,-46.0,-900.0,-442.0
6.0,-237.0,-151.0,-36.0,24.0,-13.0,-45.0,-894.0,-440.0
9.0,-238.0,-155.0,-35.0,22.0,-14.0,-45.0,-892.0,-445.0
10.0,-237.0,-149.0,-33.0,23.0,-14.0,-41.0,-894.0,-439.0
10.0,-237.0,-154.0,-34.0,22.0,-14.0,-44.0,-901.0,-443.0
9.0,-239.0,-149.0,-33.0,21.0,-13.0,-46.0,-902.0,-438.0
6.0,-233.0,-152.0,-34.0,22.0,-14.0,-44.0,-900.0,-444.0
8.0,-237.0,-152.0,-34.0,21.0,-11.0,-43.0,-896.0,-438.0
11.0,-238.0,-148.0,-37.0,21.0,-10.0,-38.0,-902.0,-445.0
9.0,-238.0,-149.0,-38.0,21.0,-9.0,-40.0,-906.0,-441.0
11.0,-237.0,-152.0,-39.0,19.0,-10.0,-38.0,-901.0,-442.0
12.0,-241.0,-152.0,-42.0,19.0,-10.0,-39.0,-905.0,-444.0
9.0,-238.0,-147.0,-44.0,18.0,-10.0,-41.0,-904.0,-439.0
10.0,-239.0,-154.0,-42.0,18.0,-10.0,-42.0,-911.0,-441.0
9.0,-239.0,-155.0,-41.0,17.0,-10.0,-40.0,-906.0,-441.0
10.0,-239.0,-151.0,-41.0,16.0,-11.0,-38.0,-906.0,-444.0
9.0,-238.0,-152.0,-39.0,14.0,-10.0,-40.0,-908.0,-441.0
6.0,-239.0,-149.0,-37.0,15.0,-11.0,-37.0,-902.0,-447.0
10.0,-237.0,-153.0,-36.0,13.0,-11.0,-38.0,-908.0,-445.0
10.0,-237.0,-149.0,-34.0,12.0,-12.0,-36.0,-910.0,-443.0
6.0,-238.0,-152.0,-33.0,12.0,-11.0,-39.0,-906.0,-438.0
7.0,-237.0,-150.0,-32.0,12.0,-12.0,-43.0,-899.0,-439.0
11.0,-238.0,-157.0,-35.0,11.0,-12.0,-47.0,-900.0,-443.0
10.0,-241.0,-150.0,-34.0,8.0,-13.0,-42.0,-900.0,-439.0
6.0,-235.0,-150.0,-36.0,9.0,-12.0,-42.0,-903.0,-441.0
7.0,-236.0,-152.0,-38.0,8.0,-13.0,-44.0,-903.0,-445.0
6.0,-235.0,-148.0,-37.0,8.0,-13.0,-43.0,-897.0,-443.0
8.0,-236.0,-153.0,-39.0,9.0,-12.0,-41.0,-899.0,-447.0
8.0,-235.0,-150.0,-40.0,9.0,-12.0,-42.0,-902.0,-441.0
10.0,-234.0,-153.0,-41.0,9.0,-12.0,-39.0,-898.0,-442.0
6.0,-239.0,-148.0,-44.0,10.0,-12.0,-40.0,-901.0,-443.0
9.0,-238.0,-151.0,-47.0,14.0,-11.0,-38.0,-899.0,-441.0
9.0,-241.0,-151.0,-46.0,13.0,-12.0,-44.0,-897.0,-442.0
8.0,-237.0,-153.0,-47.0,14.0,-12.0,-40.0,-906.0,-438.0
8.0,-237.0,-153.0,-47.0,14.0,-12.0,-37.0,-912.0,-443.0
13.0,-240.0,-150.0,-47.0,16.0,-12.0,-48.0,-905.0,-441.0
6.0,-238.0,-148.0,-44.0,18.0,-12.0,-42.0,-903.0,-440.0
9.0,-236.0,-148.0,-41.0,18.0,-13.0,-42.0,-903.0,-445.0
8.0,-236.0,-150.0,-39.0,17.0,-13.0,-43.0,-906.0,-439.0
10.0,-235.0,-150.0,-37.0,16.0,-14.0,-42.0,-899.0,-439.0
10.0,-235.0,-149.0,-37.0,14.0,-12.0,-40.0,-892.0,-440.0
7.0,-233.0,-152.0,-37.0,14.0,-13.0,-42.0,-898.0,-444.0
10.0,-236.0,-147.0,-39.0,14.0,-14.0,-39.0,-892.0,-442.0
10.0,-233.0,-151.0,-42.0,12.0,-13.0,-41.0,-891.0,-440.0
5.0,-237.0,-151.0,-46.0,11.0,-12.0,-37.0,-888.0,-445.0
7.0,-237.0,-154.0,-48.0,12.0,-12.0,-41.0,-891.0,-446.0
5.0,-235.0,-153.0,-55.0,12.0,-12.0,-35.0,-888.0,-449.0
8.0,-234.0,-152.0,-58.0,12.0,-10.0,-40.0,-890.0,-445.0
10.0,-237.0,-154.0,-62.0,11.0,-9.0,-43.0,-902.0,-447.0
9.0,-235.0,-150.0,-61.0,11.0,-8.0,-38.0,-898.0,-447.0
12.0,-241.0,-150.0,-61.0,13.0,-10.0,-40.0,-901.0,-446.0
8.0,-239.0,-156.0,-62.0,12.0,-7.0,-41.0,-901.0,-446.0
10.0,-238.0,-153.0,-57.0,12.0,-7.0,-41.0,-908.0,-450.0
8.0,-237.0,-154.0,-52.0,12.0,-7.0,-43.0,-908.0,-446.0
10.0,-240.0,-152.0,-48.0,14.0,-7.0,-40.0,-910.0,-443.0
11.0,-233.0,-154.0,-43.0,14.0,-7.0,-40.0,-902.0,-447.0
11.0,-236.0,-151.0,-37.0,14.0,-6.0,-41.0,-896.0,-447.0
9.0,-235.0,-151.0,-37.0,14.0,-7.0,-40.0,-888.0,-443.0
12.0,-236.0,-152.0,-36.0,16.0,-7.0,-40.0,-888.0,-444.0
9.0,-234.0,-152.0,-40.0,15.0,-6.0,-38.0,-888.0,-440.0
4.0,-234.0,-150.0,-43.0,17.0,-4.0,-44.0,-889.0,-441.0
8.0,-232.0,-153.0,-46.0,17.0,-4.0,-44.0,-885.0,-442.0
9.0,-234.0,-155.0,-52.0,17.0,-4.0,-42.0,-886.0,-445.0
8.0,-234.0,-152.0,-57.0,17.0,-3.0,-45.0,-889.0,-445.0
9.0,-236.0,-152.0,-63.0,17.0,-2.0,-44.0,-894.0,-452.0
11.0,-235.0,-156.0,-65.0,15.0,-3.0,-40.0,-892.0,-452.0
8.0,-236.0,-153.0,-66.0,16.0,-2.0,-43.0,-890.0,-457.0
9.0,-236.0,-154.0,-67.0,17.0,-3.0,-43.0,-890.0,-456.0
9.0,-234.0,-151.0,-71.0,17.0,-2.0,-41.0,-885.0,-463.0
7.0,-233.0,-158.0,-74.0,18.0,-4.0,-44.0,-883.0,-466.0
7.0,-229.0,-157.0,-80.0,19.0,-3.0,-43.0,-876.0,-468.0
5.0,-227.0,-157.0,-85.0,20.0,-2.0,-50.0,-867.0,-476.0
8.0,-230.0,-156.0,-93.0,22.0,1.0,-47.0,-865.0,-471.0
8.0,-231.0,-159.0,-99.0,24.0,3.0,-49.0,-868.0,-474.0
9.0,-239.0,-161.0,-105.0,28.0,4.0,-50.0,-867.0,-469.0
6.0,-227.0,-157.0,-110.0,32.0,6.0,-50.0,-861.0,-472.0
5.0,-224.0,-161.0,-115.0,37.0,9.0,-46.0,-860.0,-468.0
5.0,-225.0,-159.0,-121.0,41.0,9.0,-45.0,-850.0,-475.0
7.0,-225.0,-164.0,-129.0,43.0,11.0,-43.0,-850.0,-475.0
11.0,-221.0,-164.0,-136.0,47.0,13.0,-39.0,-842.0,-477.0
9.0,-224.0,-163.0,-145.0,49.0,14.0,-42.0,-840.0,-478.0
10.0,-221.0,-165.0,-151.0,49.0,15.0,-38.0,-833.0,-473.0
9.0,-223.0,-158.0,-154.0,48.0,17.0,-34.0,-830.0,-478.0
9.0,-219.0,-158.0,-159.0,46.0,18.0,-34.0,-828.0,-476.0
10.0,-219.0,-162.0,-164.0,44.0,21.0,-32.0,-827.0,-480.0
10.0,-219.0,-160.0,-174.0,42.0,22.0,-33.0,-824.0,-479.0
9.0,-216.0,-164.0,-183.0,39.0,21.0,-37.0,-820.0,-481.0
10.0,-219.0,-164.0,-190.0,37.0,22.0,-36.0,-826.0,-486.0
9.0,-218.0,-162.0,-199.0,35.0,22.0,-44.0,-824.0,-487.0
7.0,-216.0,-161.0,-207.0,31.0,22.0,-41.0,-829.0,-482.0
7.0,-218.0,-159.0,-210.0,27.0,21.0,-46.0,-825.0,-483.0
3.0,-218.0,-164.0,-216.0,21.0,22.0,-48.0,-830.0,-490.0
6.0,-222.0,-164.0,-219.0,14.0,22.0,-50.0,-835.0,-490.0
5.0,-222.0,-167.0,-220.0,6.0,21.0,-55.0,-835.0,-497.0
5.0,-221.0,-164.0,-222.0,-1.0,19.0,-54.0,-835.0,-495.0
5.0,-222.0,-169.0,-224.0,-7.0,19.0,-58.0,-837.0,-497.0
3.0,-221.0,-165.0,-226.0,-11.0,19.0,-53.0,-831.0,-497.0
7.0,-221.0,-165.0,-228.0,-13.0,18.0,-53.0,-833.0,-494.0
6.0,-221.0,-162.0,-230.0,-14.0,19.0,-48.0,-835.0,-495.0
6.0,-220.0,-164.0,-233.0,-13.0,18.0,-51.0,-833.0,-500.0
3.0,-219.0,-166.0,-238.0,-12.0,19.0,-47.0,-831.0,-497.0
7.0,-219.0,-164.0,-241.0,-8.0,20.0,-50.0,-829.0,-494.0
5.0,-218.0,-162.0,-243.0,-5.0,21.0,-51.0,-825.0,-499.0
4.0,-215.0,-163.0,-249.0,-3.0,21.0,-51.0,-826.0,-498.0
7.0,-219.0,-161.0,-256.0,-2.0,21.0,-50.0,-818.0,-497.0
6.0,-214.0,-163.0,-266.0,-3.0,22.0,-49.0,-817.0,-498.0
5.0,-216.0,-166.0,-278.0,-4.0,24.0,-51.0,-815.0,-497.0
8.0,-215.0,-161.0,-292.0,-4.0,24.0,-55.0,-812.0,-494.0
6.0,-215.0,-166.0,-304.0,-2.0,23.0,-54.0,-813.0,-491.0
7.0,-216.0,-165.0,-318.0,-4.0,23.0,-53.0,-813.0,-492.0
5.0,-214.0,-163.0,-328.0,-4.0,22.0,-63.0,-807.0,-492.0
3.0,-211.0,-166.0,-340.0,-4.0,21.0,-61.0,-811.0,-496.0
5.0,-217.0,-167.0,-349.0,-3.0,21.0,-63.0,-814.0,-495.0
5.0,-212.0,-165.0,-358.0,-5.0,21.0,-59.0,-817.0,-497.0
4.0,-214.0,-165.0,-365.0,-4.0,21.0,-58.0,-811.0,-504.0
2.0,-214.0,-163.0,-371.0,-5.0,20.0,-65.0,-817.0,-510.0
-13.0,-223.0,-170.0,-377.0,-5.0,19.0,-61.0,-817.0,-505.0
3.0,-217.0,-172.0,-383.0,-6.0,19.0,-60.0,-822.0,-512.0
5.0,-219.0,-171.0,-389.0,-6.0,18.0,-61.0,-826.0,-517.0
1.0,-218.0,-169.0,-393.0,-8.0,17.0,-62.0,-826.0,-522.0
2.0,-217.0,-171.0,-396.0,-9.0,15.0,-62.0,-826.0,-527.0
2.0,-217.0,-170.0,-399.0,-12.0,13.0,-65.0,-829.0,-534.0
1.0,-221.0,-175.0,-400.0,-15.0,10.0,-65.0,-826.0,-538.0
0.0,-219.0,-174.0,-399.0,-17.0,11.0,-63.0,-837.0,-543.0
5.0,-218.0,-176.0,-398.0,-16.0,9.0,-60.0,-827.0,-538.0
6.0,-219.0,-173.0,-395.0,-16.0,8.0,-64.0,-830.0,-545.0
5.0,-218.0,-176.0,-392.0,-16.0,7.0,-56.0,-823.0,-544.0
2.0,-219.0,-181.0,-390.0,-15.0,6.0,-56.0,-818.0,-543.0
4.0,-215.0,-175.0,-386.0,-14.0,5.0,-49.0,-815.0,-541.0
5.0,-214.0,-176.0,-387.0,-12.0,4.0,-56.0,-815.0,-541.0
8.0,-215.0,-177.0,-388.0,-11.0,3.0,-51.0,-804.0,-538.0
4.0,-209.0,-175.0,-390.0,-10.0,1.0,-50.0,-799.0,-533.0
9.0,-210.0,-172.0,-395.0,-11.0,0.0,-48.0,-793.0,-535.0
5.0,-208.0,-171.0,-402.0,-13.0,-2.0,-57.0,-793.0,-534.0
5.0,-207.0,-176.0,-408.0,-15.0,-4.0,-59.0,-786.0,-536.0
6.0,-205.0,-176.0,-414.0,-19.0,-6.0,-50.0,-780.0,-536.0
1.0,-201.0,-173.0,-418.0,-24.0,-5.0,-56.0,-780.0,-536.0
1.0,-201.0,-173.0,-422.0,-28.0,-7.0,-61.0,-773.0,-536.0
5.0,-203.0,-178.0,-426.0,-34.0,-7.0,-58.0,-768.0,-541.0
5.0,-199.0,-178.0,-432.0,-39.0,-10.0,-61.0,-761.0,-545.0
1.0,-199.0,-176.0,-438.0,-41.0,-10.0,-60.0,-759.0,-544.0
0.0,-200.0,-174.0,-442.0,-43.0,-10.0,-61.0,-751.0,-547.0
4.0,-198.0,-177.0,-450.0,-43.0,-12.0,-58.0,-750.0,-552.0
2.0,-197.0,-178.0,-461.0,-45.0,-14.0,-59.0,-738.0,-553.0
4.0,-194.0,-178.0,-468.0,-45.0,-16.0,-64.0,-735.0,-554.0
3.0,-194.0,-179.0,-476.0,-47.0,-18.0,-60.0,-732.0,-553.0
2.0,-192.0,-177.0,-485.0,-48.0,-22.0,-62.0,-726.0,-556.0
2.0,-191.0,-181.0,-494.0,-50.0,-23.0,-66.0,-719.0,-554.0
3.0,-193.0,-180.0,-501.0,-51.0,-25.0,-64.0,-721.0,-558.0
2.0,-191.0,-179.0,-508.0,-52.0,-26.0,-59.0,-718.0,-563.0
5.0,-190.0,-179.0,-509.0,-50.0,-26.0,-60.0,-717.0,-559.0
5.0,-189.0,-179.0,-510.0,-45.0,-26.0,-58.0,-707.0,-564.0
7.0,-189.0,-185.0,-511.0,-41.0,-25.0,-54.0,-704.0,-567.0
9.0,-189.0,-187.0,-515.0,-35.0,-22.0,-49.0,-699.0,-574.0
4.0,-189.0,-188.0,-520.0,-31.0,-19.0,-55.0,-696.0,-585.0
8.0,-190.0,-183.0,-529.0,-23.0,-16.0,-53.0,-701.0,-590.0
7.0,-188.0,-190.0,-540.0,-18.0,-15.0,-51.0,-706.0,-606.0
4.0,-189.0,-191.0,-550.0,-15.0,-12.0,-49.0,-708.0,-600.0
5.0,-191.0,-190.0,-558.0,-13.0,-9.0,-51.0,-711.0,-594.0
4.0,-191.0,-190.0,-565.0,-9.0,-8.0,-47.0,-723.0,-597.0
6.0,-192.0,-189.0,-568.0,-8.0,-6.0,-41.0,-722.0,-600.0
12.0,-196.0,-189.0,-569.0,-6.0,-4.0,-47.0,-726.0,-596.0
10.0,-193.0,-188.0,-564.0,-3.0,-2.0,-37.0,-728.0,-592.0
10.0,-196.0,-186.0,-559.0,3.0,-2.0,-37.0,-727.0,-594.0
11.0,-196.0,-190.0,-554.0,10.0,-4.0,-35.0,-734.0,-591.0
12.0,-196.0,-190.0,-545.0,16.0,-3.0,-35.0,-728.0,-586.0
10.0,-194.0,-185.0,-536.0,21.0,-4.0,-32.0,-730.0,-586.0
11.0,-193.0,-185.0,-531.0,26.0,-4.0,-36.0,-727.0,-583.0
14.0,-192.0,-190.0,-528.0,30.0,-8.0,-34.0,-729.0,-589.0
12.0,-192.0,-186.0,-525.0,32.0,-10.0,-33.0,-728.0,-582.0
8.0,-192.0,-187.0,-525.0,28.0,-15.0,-39.0,-731.0,-588.0
11.0,-192.0,-188.0,-524.0,23.0,-19.0,-46.0,-726.0,-584.0
7.0,-194.0,-186.0,-520.0,17.0,-23.0,-46.0,-725.0,-583.0
11.0,-193.0,-186.0,-517.0,8.0,-27.0,-43.0,-724.0,-578.0
9.0,-191.0,-185.0,-513.0,-2.0,-30.0,-48.0,-722.0,-579.0
8.0,-191.0,-187.0,-508.0,-10.0,-34.0,-41.0,-720.0,-575.0
10.0,-191.0,-185.0,-502.0,-19.0,-36.0,-44.0,-717.0,-573.0
11.0,-190.0,-186.0,-494.0,-24.0,-38.0,-37.0,-710.0,-574.0
11.0,-189.0,-185.0,-488.0,-28.0,-38.0,-34.0,-704.0,-570.0
11.0,-186.0,-185.0,-484.0,-29.0,-40.0,-33.0,-698.0,-578.0
14.0,-185.0,-186.0,-480.0,-28.0,-41.0,-25.0,-687.0,-587.0
12.0,-180.0,-192.0,-480.0,-24.0,-43.0,-27.0,-683.0,-591.0
13.0,-183.0,-189.0,-484.0,-21.0,-43.0,-20.0,-676.0,-602.0
14.0,-179.0,-191.0,-488.0,-15.0,-44.0,-26.0,-683.0,-604.0
13.0,-185.0,-191.0,-494.0,-11.0,-43.0,-30.0,-689.0,-607.0
13.0,-186.0,-193.0,-500.0,-7.0,-41.0,-36.0,-692.0,-613.0
10.0,-186.0,-194.0,-505.0,-4.0,-39.0,-34.0,-696.0,-614.0
7.0,-187.0,-193.0,-509.0,-3.0,-36.0,-36.0,-700.0,-615.0
8.0,-188.0,-195.0,-509.0,-4.0,-33.0,-47.0,-708.0,-612.0
7.0,-190.0,-194.0,-508.0,-7.0,-28.0,-45.0,-716.0,-616.0
8.0,-192.0,-198.0,-506.0,-7.0,-25.0,-50.0,-719.0,-622.0
9.0,-193.0,-197.0,-501.0,-5.0,-20.0,-44.0,-721.0,-626.0
8.0,-197.0,-196.0,-495.0,-3.0,-17.0,-45.0,-738.0,-625.0
10.0,-200.0,-200.0,-489.0,3.0,-16.0,-50.0,-744.0,-628.0
5.0,-199.0,-195.0,-480.0,7.0,-14.0,-49.0,-749.0,-632.0
3.0,-201.0,-197.0,-470.0,10.0,-15.0,-52.0,-758.0,-630.0
4.0,-205.0,-197.0,-457.0,11.0,-14.0,-55.0,-766.0,-628.0
4.0,-206.0,-199.0,-444.0,13.0,-17.0,-63.0,-772.0,-637.0
2.0,-208.0,-199.0,-429.0,11.0,-19.0,-64.0,-784.0,-631.0
2.0,-210.0,-199.0,-412.0,9.0,-22.0,-67.0,-794.0,-629.0
2.0,-211.0,-193.0,-395.0,7.0,-24.0,-68.0,-795.0,-631.0
1.0,-210.0,-196.0,-377.0,4.0,-27.0,-74.0,-800.0,-631.0
1.0,-213.0,-198.0,-357.0,2.0,-28.0,-71.0,-799.0,-638.0
0.0,-212.0,-201.0,-337.0,-1.0,-28.0,-73.0,-800.0,-646.0
4.0,-213.0,-203.0,-314.0,-3.0,-30.0,-69.0,-807.0,-660.0
3.0,-218.0,-201.0,-297.0,-7.0,-31.0,-71.0,-815.0,-666.0
2.0,-220.0,-205.0,-278.0,-12.0,-35.0,-78.0,-820.0,-665.0
0.0,-219.0,-208.0,-263.0,-23.0,-37.0,-86.0,-819.0,-661.0
-4.0,-220.0,-208.0,-248.0,-35.0,-40.0,-90.0,-823.0,-668.0
-3.0,-216.0,-202.0,-233.0,-48.0,-43.0,-78.0,-824.0,-668.0
-2.0,-216.0,-208.0,-219.0,-61.0,-44.0,-85.0,-820.0,-661.0
0.0,-219.0,-204.0,-202.0,-68.0,-44.0,-87.0,-811.0,-659.0
1.0,-215.0,-204.0,-188.0,-76.0,-44.0,-82.0,-804.0,-660.0
0.0,-209.0,-201.0,-171.0,-83.0,-40.0,-80.0,-795.0,-658.0
1.0,-206.0,-205.0,-156.0,-87.0,-38.0,-72.0,-783.0,-658.0
0.0,-202.0,-203.0,-141.0,-90.0,-34.0,-78.0,-764.0,-661.0
1.0,-203.0,-206.0,-124.0,-92.0,-30.0,-65.0,-757.0,-661.0
1.0,-200.0,-204.0,-108.0,-94.0,-23.0,-71.0,-756.0,-663.0
2.0,-196.0,-204.0,-93.0,-96.0,-18.0,-64.0,-745.0,-660.0
2.0,-196.0,-207.0,-82.0,-98.0,-15.0,-66.0,-738.0,-661.0
2.0,-195.0,-206.0,-73.0,-100.0,-13.0,-67.0,-732.0,-662.0
0.0,-191.0,-202.0,-66.0,-102.0,-10.0,-73.0,-726.0,-661.0
0.0,-192.0,-206.0,-65.0,-103.0,-7.0,-73.0,-722.0,-658.0
1.0,-192.0,-203.0,-65.0,-104.0,-6.0,-75.0,-725.0,-663.0
0.0,-192.0,-201.0,-64.0,-105.0,-7.0,-70.0,-724.0,-659.0
2.0,-194.0,-206.0,-66.0,-102.0,-9.0,-70.0,-732.0,-674.0
1.0,-191.0,-210.0,-70.0,-98.0,-13.0,-63.0,-733.0,-672.0
3.0,-195.0,-203.0,-75.0,-91.0,-19.0,-63.0,-733.0,-668.0
0.0,-194.0,-206.0,-80.0,-82.0,-22.0,-71.0,-736.0,-659.0
2.0,-196.0,-205.0,-79.0,-76.0,-19.0,-70.0,-735.0,-651.0
2.0,-195.0,-201.0,-77.0,-68.0,-17.0,-74.0,-732.0,-650.0
0.0,-195.0,-200.0,-76.0,-64.0,-14.0,-69.0,-741.0,-650.0
0.0,-194.0,-205.0,-71.0,-60.0,-13.0,-71.0,-746.0,-655.0
2.0,-195.0,-203.0,-70.0,-57.0,-12.0,-70.0,-743.0,-657.0
0.0,-196.0,-202.0,-64.0,-55.0,-9.0,-73.0,-749.0,-659.0
1.0,-198.0,-204.0,-59.0,-53.0,-6.0,-68.0,-741.0,-656.0
1.0,-200.0,-204.0,-57.0,-53.0,-1.0,-65.0,-747.0,-655.0
1.0,-197.0,-202.0,-54.0,-52.0,2.0,-65.0,-752.0,-658.0
3.0,-199.0,-206.0,-48.0,-48.0,6.0,-58.0,-752.0,-658.0
4.0,-201.0,-205.0,-43.0,-42.0,3.0,-62.0,-747.0,-661.0
5.0,-204.0,-206.0,-35.0,-33.0,2.0,-60.0,-759.0,-660.0
3.0,-199.0,-208.0,-29.0,-26.0,0.0,-50.0,-757.0,-661.0
6.0,-201.0,-204.0,-24.0,-18.0,-4.0,-59.0,-751.0,-672.0
7.0,-205.0,-206.0,-16.0,-13.0,2.0,-50.0,-761.0,-670.0
8.0,-206.0,-207.0,-6.0,-10.0,2.0,-48.0,-770.0,-669.0
4.0,-205.0,-207.0,2.0,-5.0,0.0,-52.0,-774.0,-671.0
4.0,-208.0,-202.0,16.0,-3.0,1.0,-53.0,-776.0,-659.0
5.0,-205.0,-218.0,31.0,-3.0,0.0,-53.0,-787.0,-656.0
1.0,-208.0,-199.0,50.0,-3.0,-4.0,-69.0,-785.0,-655.0
2.0,-209.0,-201.0,66.0,-10.0,3.0,-63.0,-788.0,-652.0
0.0,-212.0,-201.0,85.0,-20.0,9.0,-66.0,-792.0,-643.0
0.0,-209.0,-198.0,104.0,-30.0,11.0,-64.0,-789.0,-635.0
0.0,-205.0,-197.0,122.0,-43.0,12.0,-69.0,-778.0,-630.0
0.0,-203.0,-196.0,137.0,-52.0,9.0,-68.0,-773.0,-629.0
1.0,-201.0,-198.0,150.0,-63.0,7.0,-80.0,-763.0,-622.0
3.0,-202.0,-197.0,157.0,-66.0,7.0,-67.0,-765.0,-630.0
3.0,-197.0,-199.0,163.0,-67.0,13.0,-59.0,-764.0,-636.0
8.0,-200.0,-206.0,166.0,-67.0,18.0,-50.0,-750.0,-632.0
7.0,-193.0,-219.0,165.0,-61.0,21.0,-47.0,-759.0,-644.0
9.0,-204.0,-198.0,163.0,-50.0,31.0,-41.0,-773.0,-635.0
9.0,-207.0,-203.0,159.0,-43.0,43.0,-38.0,-774.0,-643.0
14.0,-210.0,-204.0,158.0,-34.0,53.0,-26.0,-790.0,-659.0
16.0,-213.0,-204.0,158.0,-22.0,53.0,-19.0,-803.0,-665.0
8.0,-212.0,-204.0,161.0,-9.0,45.0,-41.0,-797.0,-664.0
8.0,-219.0,-206.0,168.0,4.0,51.0,-39.0,-815.0,-662.0
12.0,-219.0,-204.0,173.0,12.0,59.0,-28.0,-822.0,-660.0
12.0,-218.0,-206.0,181.0,18.0,57.0,-25.0,-819.0,-659.0
11.0,-217.0,-206.0,191.0,29.0,48.0,-37.0,-815.0,-668.0
9.0,-217.0,-206.0,200.0,41.0,53.0,-46.0,-814.0,-674.0
8.0,-214.0,-208.0,207.0,47.0,57.0,-34.0,-816.0,-680.0
14.0,-218.0,-214.0,208.0,48.0,49.0,-24.0,-819.0,-679.0
12.0,-214.0,-213.0,202.0,50.0,30.0,-35.0,-811.0,-685.0
8.0,-217.0,-212.0,196.0,56.0,12.0,-32.0,-815.0,-691.0
1.0,-217.0,-210.0,184.0,57.0,-1.0,-55.0,-809.0,-681.0
3.0,-215.0,-212.0,173.0,53.0,7.0,-54.0,-817.0,-684.0
7.0,-221.0,-213.0,167.0,48.0,10.0,-40.0,-820.0,-687.0
11.0,-218.0,-213.0,163.0,40.0,0.0,-37.0,-827.0,-689.0
7.0,-218.0,-212.0,162.0,39.0,-25.0,-42.0,-828.0,-692.0
7.0,-219.0,-211.0,162.0,41.0,-34.0,-55.0,-828.0,-685.0
5.0,-221.0,-208.0,168.0,39.0,-36.0,-54.0,-831.0,-681.0
4.0,-219.0,-208.0,176.0,38.0,-34.0,-63.0,-824.0,-677.0
0.0,-217.0,-208.0,186.0,37.0,-18.0,-62.0,-823.0,-675.0
9.0,-217.0,-208.0,198.0,35.0,-1.0,-45.0,-822.0,-672.0
3.0,-217.0,-206.0,207.0,29.0,2.0,-42.0,-821.0,-673.0
8.0,-217.0,-204.0,206.0,30.0,3.0,-41.0,-820.0,-660.0
6.0,-218.0,-202.0,202.0,31.0,2.0,-49.0,-815.0,-655.0
10.0,-217.0,-198.0,198.0,32.0,7.0,-54.0,-811.0,-657.0
6.0,-216.0,-202.0,194.0,28.0,12.0,-51.0,-811.0,-654.0
5.0,-212.0,-204.0,188.0,27.0,9.0,-48.0,-815.0,-656.0
9.0,-214.0,-200.0,180.0,27.0,6.0,-43.0,-807.0,-658.0
8.0,-214.0,-205.0,175.0,27.0,-4.0,-47.0,-810.0,-655.0
3.0,-215.0,-202.0,170.0,28.0,-9.0,-65.0,-806.0,-642.0
4.0,-214.0,-200.0,166.0,30.0,1.0,-60.0,-806.0,-634.0
5.0,-214.0,-195.0,161.0,24.0,6.0,-50.0,-808.0,-636.0
4.0,-212.0,-198.0,157.0,23.0,4.0,-54.0,-811.0,-639.0
5.0,-211.0,-197.0,155.0,20.0,0.0,-53.0,-809.0,-631.0
0.0,-212.0,-201.0,157.0,21.0,-6.0,-73.0,-808.0,-637.0
1.0,-213.0,-196.0,164.0,19.0,1.0,-66.0,-806.0,-628.0
7.0,-214.0,-195.0,172.0,13.0,3.0,-48.0,-811.0,-637.0
2.0,-211.0,-199.0,179.0,8.0,-5.0,-51.0,-808.0,-632.0
1.0,-211.0,-198.0,185.0,6.0,-14.0,-59.0,-800.0,-631.0
4.0,-210.0,-198.0,189.0,2.0,-16.0,-59.0,-801.0,-633.0
6.0,-215.0,-194.0,189.0,-3.0,-14.0,-48.0,-801.0,-631.0
5.0,-208.0,-200.0,185.0,-9.0,-12.0,-59.0,-796.0,-632.0
5.0,-210.0,-201.0,180.0,-11.0,-7.0,-55.0,-801.0,-635.0
10.0,-213.0,-198.0,174.0,-11.0,-7.0,-33.0,-803.0,-632.0
5.0,-212.0,-201.0,174.0,-12.0,-21.0,-59.0,-797.0,-633.0
6.0,-213.0,-195.0,176.0,-13.0,-21.0,-50.0,-801.0,-634.0
4.0,-209.0,-198.0,181.0,-12.0,-18.0,-48.0,-793.0,-629.0
5.0,-210.0,-197.0,189.0,-11.0,-17.0,-55.0,-791.0,-631.0
4.0,-208.0,-202.0,196.0,-6.0,-10.0,-60.0,-789.0,-634.0
1.0,-206.0,-197.0,203.0,-4.0,0.0,-73.0,-778.0,-623.0
5.0,-206.0,-200.0,210.0,-1.0,11.0,-53.0,-790.0,-634.0
10.0,-209.0,-204.0,211.0,2.0,8.0,-50.0,-780.0,-638.0
8.0,-209.0,-200.0,211.0,8.0,-3.0,-52.0,-787.0,-647.0
2.0,-208.0,-197.0,210.0,15.0,-14.0,-73.0,-783.0,-642.0
1.0,-209.0,-199.0,207.0,23.0,-8.0,-72.0,-788.0,-637.0
4.0,-209.0,-195.0,203.0,27.0,-2.0,-61.0,-792.0,-634.0
0.0,-210.0,-192.0,197.0,32.0,-7.0,-79.0,-788.0,-630.0
1.0,-209.0,-196.0,191.0,38.0,-5.0,-78.0,-792.0,-622.0
3.0,-211.0,-194.0,182.0,43.0,-6.0,-68.0,-792.0,-623.0
1.0,-210.0,-194.0,176.0,48.0,-15.0,-69.0,-793.0,-620.0
1.0,-213.0,-193.0,171.0,57.0,-20.0,-80.0,-802.0,-618.0
4.0,-213.0,-192.0,166.0,58.0,-16.0,-64.0,-805.0,-614.0
3.0,-214.0,-192.0,162.0,58.0,-21.0,-59.0,-804.0,-612.0
5.0,-219.0,-192.0,166.0,63.0,-29.0,-55.0,-814.0,-617.0
4.0,-216.0,-191.0,170.0,69.0,-34.0,-65.0,-815.0,-619.0
1.0,-218.0,-193.0,176.0,73.0,-35.0,-66.0,-821.0,-619.0
5.0,-219.0,-192.0,185.0,76.0,-28.0,-62.0,-826.0,-623.0
7.0,-220.0,-194.0,196.0,79.0,-31.0,-55.0,-824.0,-620.0
1.0,-221.0,-192.0,206.0,86.0,-42.0,-80.0,-828.0,-615.0
-1.0,-220.0,-192.0,215.0,95.0,-41.0,-82.0,-833.0,-612.0
0.0,-223.0,-191.0,226.0,96.0,-33.0,-78.0,-836.0,-608.0
-1.0,-221.0,-192.0,233.0,96.0,-31.0,-89.0,-832.0,-604.0
1.0,-222.0,-193.0,236.0,97.0,-30.0,-77.0,-830.0,-610.0
2.0,-228.0,-187.0,238.0,97.0,-34.0,-91.0,-828.0,-609.0
-3.0,-219.0,-192.0,241.0,97.0,-29.0,-97.0,-824.0,-607.0
-4.0,-217.0,-188.0,244.0,95.0,-24.0,-98.0,-828.0,-609.0
-1.0,-220.0,-190.0,244.0,89.0,-28.0,-95.0,-826.0,-617.0
-6.0,-222.0,-194.0,244.0,81.0,-32.0,-100.0,-823.0,-615.0
-5.0,-221.0,-197.0,244.0,70.0,-32.0,-98.0,-824.0,-622.0
-9.0,-221.0,-197.0,246.0,58.0,-36.0,-122.0,-823.0,-624.0
-10.0,-215.0,-194.0,247.0,46.0,-23.0,-108.0,-821.0,-623.0
-7.0,-220.0,-194.0,249.0,32.0,-12.0,-96.0,-827.0,-623.0
-9.0,-219.0,-190.0,250.0,24.0,-10.0,-105.0,-822.0,-619.0
-5.0,-219.0,-197.0,250.0,16.0,-9.0,-91.0,-830.0,-620.0
-3.0,-221.0,-193.0,250.0,9.0,-8.0,-104.0,-827.0,-621.0
-2.0,-219.0,-195.0,247.0,8.0,-2.0,-90.0,-825.0,-617.0
-5.0,-219.0,-190.0,246.0,5.0,6.0,-101.0,-824.0,-613.0
-3.0,-218.0,-187.0,246.0,0.0,19.0,-85.0,-825.0,-609.0
0.0,-217.0,-191.0,245.0,-5.0,26.0,-79.0,-826.0,-610.0
0.0,-220.0,-189.0,246.0,-7.0,28.0,-83.0,-823.0,-609.0
3.0,-221.0,-193.0,246.0,-11.0,30.0,-66.0,-830.0,-614.0
1.0,-220.0,-194.0,243.0,-15.0,25.0,-69.0,-827.0,-614.0
3.0,-217.0,-191.0,243.0,-18.0,19.0,-67.0,-824.0,-609.0
2.0,-216.0,-190.0,244.0,-19.0,12.0,-62.0,-820.0,-610.0
3.0,-220.0,-194.0,245.0,-20.0,6.0,-61.0,-814.0,-605.0
4.0,-215.0,-185.0,246.0,-17.0,-1.0,-67.0,-816.0,-608.0
2.0,-214.0,-192.0,244.0,-13.0,-9.0,-65.0,-818.0,-606.0
0.0,-215.0,-192.0,243.0,-6.0,-12.0,-68.0,-811.0,-604.0
1.0,-216.0,-191.0,237.0,3.0,-14.0,-67.0,-813.0,-594.0
1.0,-218.0,-187.0,235.0,12.0,-17.0,-66.0,-815.0,-594.0
2.0,-216.0,-192.0,232.0,23.0,-20.0,-67.0,-814.0,-586.0
0.0,-220.0,-185.0,231.0,35.0,-25.0,-59.0,-814.0,-584.0
3.0,-217.0,-186.0,230.0,46.0,-29.0,-69.0,-818.0,-577.0
2.0,-216.0,-186.0,227.0,57.0,-31.0,-66.0,-818.0,-574.0
2.0,-214.0,-181.0,227.0,66.0,-30.0,-65.0,-819.0,-570.0
1.0,-215.0,-182.0,227.0,73.0,-28.0,-67.0,-818.0,-569.0
4.0,-217.0,-186.0,228.0,77.0,-31.0,-54.0,-822.0,-566.0
0.0,-219.0,-179.0,231.0,84.0,-37.0,-73.0,-826.0,-564.0
1.0,-219.0,-179.0,234.0,87.0,-34.0,-69.0,-833.0,-565.0
0.0,-224.0,-183.0,235.0,90.0,-34.0,-70.0,-836.0,-563.0
0.0,-222.0,-185.0,238.0,89.0,-33.0,-72.0,-840.0,-565.0
0.0,-223.0,-182.0,240.0,93.0,-30.0,-80.0,-842.0,-562.0
2.0,-226.0,-184.0,243.0,93.0,-23.0,-78.0,-852.0,-566.0
0.0,-229.0,-184.0,249.0,92.0,-19.0,-75.0,-863.0,-565.0
0.0,-230.0,-182.0,255.0,89.0,-13.0,-78.0,-862.0,-568.0
1.0,-232.0,-185.0,264.0,90.0,-8.0,-73.0,-868.0,-570.0
-12.0,-228.0,-176.0,270.0,85.0,-7.0,-66.0,-877.0,-564.0
0.0,-237.0,-181.0,275.0,79.0,-7.0,-71.0,-882.0,-563.0
1.0,-235.0,-183.0,285.0,72.0,-3.0,-67.0,-886.0,-560.0
2.0,-239.0,-179.0,298.0,66.0,-4.0,-69.0,-901.0,-561.0
0.0,-241.0,-182.0,316.0,61.0,-2.0,-74.0,-920.0,-551.0
0.0,-244.0,-178.0,339.0,56.0,2.0,-71.0,-923.0,-550.0
1.0,-245.0,-176.0,361.0,46.0,4.0,-66.0,-930.0,-545.0
1.0,-247.0,-174.0,382.0,38.0,1.0,-71.0,-931.0,-544.0
0.0,-249.0,-176.0,400.0,33.0,-1.0,-72.0,-935.0,-541.0
0.0,-250.0,-176.0,418.0,29.0,-1.0,-74.0,-946.0,-533.0
3.0,-251.0,-172.0,436.0,28.0,-3.0,-68.0,-955.0,-534.0
1.0,-256.0,-172.0,458.0,28.0,-11.0,-63.0,-955.0,-529.0
1.0,-256.0,-172.0,482.0,31.0,-14.0,-67.0,-960.0,-534.0
2.0,-254.0,-175.0,509.0,33.0,-16.0,-81.0,-964.0,-526.0
0.0,-257.0,-170.0,541.0,33.0,-13.0,-76.0,-964.0,-518.0
2.0,-257.0,-173.0,571.0,30.0,-12.0,-68.0,-971.0,-517.0
1.0,-259.0,-173.0,602.0,29.0,-14.0,-65.0,-981.0,-518.0
0.0,-256.0,-171.0,628.0,29.0,-16.0,-72.0,-973.0,-511.0
2.0,-257.0,-170.0,658.0,28.0,-13.0,-65.0,-983.0,-512.0
4.0,-258.0,-168.0,681.0,28.0,-17.0,-56.0,-987.0,-509.0
3.0,-259.0,-168.0,700.0,28.0,-29.0,-53.0,-987.0,-513.0
4.0,-260.0,-165.0,720.0,33.0,-40.0,-57.0,-983.0,-504.0
3.0,-260.0,-167.0,737.0,38.0,-50.0,-70.0,-983.0,-498.0
6.0,-259.0,-166.0,751.0,43.0,-51.0,-60.0,-985.0,-496.0
1.0,-255.0,-159.0,770.0,51.0,-57.0,-60.0,-981.0,-488.0
2.0,-257.0,-161.0,791.0,57.0,-58.0,-55.0,-987.0,-486.0
6.0,-267.0,-161.0,812.0,60.0,-57.0,-62.0,-989.0,-481.0
4.0,-262.0,-158.0,835.0,60.0,-55.0,-50.0,-998.0,-476.0
4.0,-261.0,-159.0,857.0,59.0,-56.0,-57.0,-997.0,-473.0
6.0,-263.0,-158.0,877.0,57.0,-55.0,-57.0,-1005.0,-472.0
10.0,-266.0,-157.0,895.0,54.0,-56.0,-51.0,-1006.0,-469.0
4.0,-266.0,-161.0,912.0,48.0,-60.0,-57.0,-1006.0,-467.0
4.0,-265.0,-155.0,927.0,46.0,-60.0,-58.0,-1011.0,-469.0
7.0,-265.0,-163.0,947.0,45.0,-56.0,-50.0,-1015.0,-472.0
12.0,-269.0,-161.0,959.0,43.0,-58.0,-38.0,-1019.0,-479.0
15.0,-265.0,-157.0,964.0,48.0,-68.0,-10.0,-1004.0,-472.0
7.0,-265.0,-153.0,965.0,53.0,-83.0,-50.0,-1002.0,-469.0
8.0,-259.0,-155.0,958.0,58.0,-81.0,-42.0,-994.0,-458.0
7.0,-261.0,-154.0,946.0,61.0,-84.0,-38.0,-992.0,-451.0
10.0,-260.0,-152.0,931.0,68.0,-87.0,-35.0,-1002.0,-438.0
12.0,-263.0,-146.0,915.0,70.0,-92.0,-33.0,-1000.0,-429.0
14.0,-263.0,-141.0,899.0,73.0,-100.0,-29.0,-1000.0,-421.0
13.0,-263.0,-143.0,887.0,75.0,-104.0,-38.0,-1000.0,-404.0
11.0,-260.0,-140.0,883.0,75.0,-103.0,-36.0,-993.0,-409.0
10.0,-263.0,-136.0,878.0,76.0,-99.0,-32.0,-993.0,-398.0
11.0,-259.0,-137.0,870.0,72.0,-98.0,-37.0,-989.0,-393.0
12.0,-260.0,-138.0,856.0,65.0,-94.0,-33.0,-990.0,-386.0
11.0,-256.0,-134.0,837.0,55.0,-92.0,-39.0,-985.0,-385.0
10.0,-255.0,-131.0,811.0,45.0,-91.0,-36.0,-984.0,-379.0
10.0,-256.0,-129.0,781.0,35.0,-91.0,-34.0,-974.0,-367.0
13.0,-254.0,-128.0,751.0,25.0,-89.0,-34.0,-978.0,-358.0
11.0,-255.0,-128.0,723.0,15.0,-90.0,-34.0,-984.0,-339.0
10.0,-257.0,-124.0,696.0,9.0,-91.0,-31.0,-983.0,-324.0
11.0,-257.0,-120.0,679.0,6.0,-94.0,-33.0,-983.0,-315.0
9.0,-258.0,-114.0,665.0,3.0,-95.0,-36.0,-990.0,-304.0
12.0,-260.0,-116.0,656.0,1.0,-97.0,-33.0,-985.0,-294.0
12.0,-257.0,-112.0,648.0,0.0,-98.0,-30.0,-985.0,-279.0
14.0,-258.0,-114.0,644.0,-1.0,-98.0,-37.0,-981.0,-268.0
15.0,-258.0,-107.0,638.0,-3.0,-100.0,-31.0,-987.0,-261.0
14.0,-257.0,-101.0,634.0,-5.0,-101.0,-32.0,-973.0,-249.0
12.0,-255.0,-102.0,633.0,-5.0,-103.0,-29.0,-966.0,-240.0
16.0,-256.0,-101.0,631.0,-3.0,-103.0,-26.0,-966.0,-238.0
15.0,-256.0,-103.0,632.0,2.0,-103.0,-29.0,-959.0,-237.0
14.0,-250.0,-98.0,631.0,8.0,-104.0,-29.0,-958.0,-231.0
14.0,-251.0,-98.0,629.0,13.0,-105.0,-29.0,-954.0,-226.0
9.0,-249.0,-98.0,627.0,17.0,-105.0,-32.0,-949.0,-219.0
12.0,-251.0,-95.0,628.0,20.0,-106.0,-34.0,-955.0,-213.0
9.0,-250.0,-99.0,631.0,24.0,-110.0,-36.0,-956.0,-214.0
9.0,-248.0,-91.0,637.0,28.0,-113.0,-42.0,-953.0,-197.0
7.0,-248.0,-88.0,644.0,30.0,-117.0,-48.0,-951.0,-191.0
6.0,-251.0,-84.0,650.0,32.0,-120.0,-49.0,-954.0,-175.0
8.0,-249.0,-81.0,659.0,35.0,-124.0,-47.0,-952.0,-170.0
8.0,-250.0,-80.0,666.0,38.0,-126.0,-45.0,-951.0,-153.0
7.0,-251.0,-79.0,672.0,40.0,-127.0,-48.0,-951.0,-145.0
10.0,-252.0,-77.0,680.0,43.0,-128.0,-40.0,-955.0,-145.0
8.0,-251.0,-76.0,687.0,46.0,-129.0,-42.0,-953.0,-137.0
9.0,-252.0,-77.0,694.0,49.0,-128.0,-38.0,-955.0,-131.0
11.0,-252.0,-73.0,702.0,49.0,-129.0,-37.0,-959.0,-131.0
9.0,-252.0,-73.0,706.0,47.0,-126.0,-43.0,-956.0,-132.0
8.0,-250.0,-70.0,710.0,48.0,-123.0,-40.0,-958.0,-126.0
6.0,-250.0,-71.0,710.0,46.0,-122.0,-48.0,-962.0,-122.0
7.0,-252.0,-70.0,707.0,44.0,-120.0,-44.0,-955.0,-119.0
5.0,-252.0,-66.0,702.0,45.0,-117.0,-51.0,-966.0,-110.0
7.0,-255.0,-68.0,695.0,43.0,-114.0,-50.0,-970.0,-106.0
6.0,-257.0,-64.0,685.0,43.0,-110.0,-52.0,-979.0,-96.0
7.0,-259.0,-61.0,678.0,42.0,-106.0,-46.0,-989.0,-93.0
11.0,-259.0,-66.0,673.0,42.0,-100.0,-45.0,-998.0,-94.0
8.0,-259.0,-65.0,674.0,46.0,-95.0,-50.0,-995.0,-95.0
4.0,-258.0,-72.0,676.0,49.0,-85.0,-47.0,-1003.0,-95.0
9.0,-260.0,-70.0,675.0,53.0,-77.0,-47.0,-1000.0,-96.0
9.0,-264.0,-69.0,675.0,57.0,-68.0,-39.0,-1006.0,-104.0
7.0,-259.0,-67.0,671.0,60.0,-60.0,-36.0,-1005.0,-109.0
9.0,-260.0,-69.0,665.0,59.0,-53.0,-36.0,-999.0,-109.0
10.0,-261.0,-67.0,654.0,56.0,-49.0,-34.0,-1002.0,-113.0
12.0,-261.0,-70.0,641.0,49.0,-44.0,-32.0,-999.0,-113.0
14.0,-262.0,-67.0,627.0,40.0,-44.0,-32.0,-997.0,-114.0
12.0,-258.0,-68.0,609.0,33.0,-43.0,-30.0,-999.0,-109.0
12.0,-261.0,-68.0,590.0,21.0,-45.0,-29.0,-1001.0,-109.0
12.0,-257.0,-69.0,570.0,11.0,-47.0,-34.0,-999.0,-103.0
17.0,-263.0,-67.0,546.0,-1.0,-51.0,-33.0,-998.0,-98.0
11.0,-260.0,-68.0,524.0,-7.0,-56.0,-36.0,-999.0,-96.0
11.0,-257.0,-63.0,502.0,-13.0,-61.0,-36.0,-1004.0,-93.0
10.0,-259.0,-66.0,481.0,-18.0,-69.0,-36.0,-995.0,-91.0
10.0,-259.0,-63.0,462.0,-22.0,-75.0,-40.0,-995.0,-82.0
10.0,-258.0,-63.0,443.0,-26.0,-80.0,-41.0,-992.0,-79.0
11.0,-259.0,-62.0,427.0,-25.0,-86.0,-42.0,-990.0,-74.0
11.0,-257.0,-63.0,413.0,-24.0,-88.0,-39.0,-987.0,-75.0
8.0,-257.0,-61.0,396.0,-20.0,-91.0,-43.0,-976.0,-68.0
9.0,-256.0,-59.0,386.0,-14.0,-92.0,-44.0,-972.0,-71.0
11.0,-258.0,-60.0,380.0,-5.0,-91.0,-41.0,-968.0,-66.0
12.0,-252.0,-58.0,376.0,1.0,-92.0,-36.0,-966.0,-60.0
10.0,-254.0,-54.0,373.0,8.0,-94.0,-38.0,-961.0,-50.0
7.0,-252.0,-55.0,363.0,15.0,-99.0,-39.0,-959.0,-46.0
11.0,-248.0,-53.0,343.0,22.0,-103.0,-41.0,-957.0,-52.0
8.0,-248.0,-56.0,320.0,28.0,-105.0,-41.0,-950.0,-49.0
9.0,-249.0,-54.0,301.0,32.0,-108.0,-37.0,-949.0,-46.0
10.0,-255.0,-52.0,292.0,32.0,-107.0,-38.0,-965.0,-41.0
11.0,-257.0,-50.0,289.0,30.0,-104.0,-36.0,-983.0,-27.0
13.0,-260.0,-47.0,290.0,25.0,-103.0,-32.0,-993.0,-21.0
13.0,-261.0,-47.0,291.0,18.0,-103.0,-31.0,-1002.0,-13.0
13.0,-262.0,-48.0,289.0,11.0,-101.0,-22.0,-1001.0,-14.0
14.0,-260.0,-47.0,284.0,5.0,-102.0,-27.0,-999.0,-17.0
18.0,-258.0,-48.0,274.0,4.0,-102.0,-22.0,-1001.0,-14.0
15.0,-259.0,-49.0,257.0,2.0,-100.0,-15.0,-997.0,-13.0
19.0,-262.0,-46.0,242.0,1.0,-98.0,-11.0,-996.0,-13.0
19.0,-259.0,-48.0,227.0,1.0,-96.0,-5.0,-996.0,-9.0
18.0,-258.0,-45.0,212.0,3.0,-94.0,-2.0,-992.0,-12.0
22.0,-262.0,-47.0,203.0,5.0,-89.0,3.0,-995.0,-9.0
20.0,-259.0,-40.0,198.0,8.0,-88.0,2.0,-997.0,-4.0
21.0,-258.0,-47.0,197.0,9.0,-85.0,5.0,-994.0,-1.0
27.0,-261.0,-25.0,202.0,11.0,-84.0,6.0,-998.0,10.0
19.0,-259.0,-40.0,204.0,10.0,-84.0,0.0,-998.0,8.0
18.0,-258.0,-35.0,211.0,8.0,-83.0,0.0,-989.0,11.0
16.0,-260.0,-40.0,213.0,3.0,-83.0,0.0,-995.0,13.0
20.0,-260.0,-35.0,216.0,-4.0,-82.0,1.0,-990.0,17.0
18.0,-256.0,-39.0,218.0,-10.0,-81.0,-2.0,-985.0,22.0
18.0,-257.0,-40.0,214.0,-16.0,-80.0,2.0,-984.0,22.0
16.0,-256.0,-38.0,211.0,-24.0,-77.0,3.0,-984.0,19.0
20.0,-256.0,-39.0,203.0,-30.0,-74.0,-1.0,-984.0,21.0
23.0,-258.0,-39.0,196.0,-37.0,-70.0,5.0,-984.0,20.0
20.0,-259.0,-38.0,192.0,-41.0,-66.0,2.0,-989.0,22.0
27.0,-257.0,-47.0,187.0,-47.0,-64.0,-3.0,-987.0,16.0
22.0,-257.0,-42.0,184.0,-50.0,-61.0,6.0,-989.0,14.0
24.0,-260.0,-42.0,186.0,-53.0,-60.0,5.0,-989.0,14.0
24.0,-258.0,-41.0,189.0,-56.0,-59.0,10.0,-993.0,11.0
25.0,-257.0,-45.0,192.0,-56.0,-59.0,18.0,-990.0,7.0
25.0,-261.0,-41.0,191.0,-54.0,-60.0,15.0,-995.0,8.0
23.0,-258.0,-43.0,189.0,-53.0,-59.0,17.0,-990.0,14.0
27.0,-259.0,-40.0,182.0,-49.0,-61.0,20.0,-991.0,7.0
28.0,-259.0,-40.0,176.0,-44.0,-61.0,25.0,-992.0,9.0
29.0,-260.0,-39.0,168.0,-36.0,-60.0,27.0,-993.0,11.0
30.0,-259.0,-40.0,164.0,-28.0,-62.0,27.0,-996.0,18.0
31.0,-260.0,-41.0,158.0,-20.0,-64.0,26.0,-993.0,16.0
25.0,-258.0,-39.0,156.0,-11.0,-65.0,28.0,-992.0,19.0
26.0,-256.0,-36.0,151.0,-4.0,-68.0,24.0,-989.0,16.0
24.0,-258.0,-43.0,148.0,2.0,-74.0,17.0,-993.0,15.0
27.0,-258.0,-37.0,142.0,6.0,-77.0,15.0,-996.0,8.0
25.0,-261.0,-39.0,135.0,9.0,-81.0,17.0,-990.0,5.0
25.0,-258.0,-43.0,130.0,10.0,-84.0,18.0,-989.0,9.0
27.0,-257.0,-44.0,123.0,10.0,-85.0,15.0,-985.0,7.0
29.0,-259.0,-41.0,121.0,9.0,-85.0,16.0,-984.0,7.0
26.0,-257.0,-43.0,118.0,8.0,-83.0,21.0,-985.0,8.0
30.0,-259.0,-43.0,119.0,5.0,-82.0,19.0,-994.0,5.0
25.0,-259.0,-40.0,118.0,2.0,-78.0,21.0,-988.0,10.0
25.0,-260.0,-38.0,123.0,-3.0,-74.0,15.0,-996.0,12.0
25.0,-260.0,-39.0,127.0,-10.0,-69.0,13.0,-995.0,15.0
25.0,-259.0,-39.0,130.0,-14.0,-64.0,19.0,-1000.0,15.0
23.0,-260.0,-35.0,135.0,-17.0,-59.0,14.0,-996.0,18.0
29.0,-261.0,-36.0,139.0,-20.0,-54.0,18.0,-999.0,19.0
25.0,-259.0,-38.0,144.0,-22.0,-49.0,15.0,-996.0,15.0
26.0,-261.0,-37.0,150.0,-23.0,-45.0,16.0,-996.0,17.0
23.0,-257.0,-38.0,154.0,-22.0,-41.0,24.0,-995.0,20.0
26.0,-260.0,-34.0,154.0,-20.0,-39.0,19.0,-990.0,24.0
28.0,-258.0,-40.0,154.0,-20.0,-40.0,25.0,-989.0,20.0
30.0,-256.0,-35.0,150.0,-17.0,-40.0,28.0,-990.0,23.0
30.0,-256.0,-35.0,144.0,-16.0,-41.0,30.0,-991.0,22.0
33.0,-257.0,-38.0,139.0,-13.0,-44.0,42.0,-993.0,28.0
32.0,-259.0,-36.0,133.0,-10.0,-46.0,37.0,-994.0,21.0
32.0,-261.0,-37.0,129.0,-6.0,-49.0,40.0,-993.0,23.0
33.0,-259.0,-36.0,128.0,-1.0,-52.0,39.0,-998.0,25.0
32.0,-260.0,-35.0,127.0,7.0,-53.0,38.0,-999.0,27.0
32.0,-263.0,-34.0,129.0,12.0,-55.0,42.0,-1001.0,28.0
33.0,-261.0,-34.0,133.0,18.0,-56.0,39.0,-1004.0,29.0
32.0,-261.0,-34.0,138.0,23.0,-56.0,43.0,-999.0,29.0
33.0,-259.0,-37.0,141.0,28.0,-57.0,39.0,-995.0,33.0
32.0,-260.0,-32.0,141.0,34.0,-56.0,44.0,-994.0,33.0
29.0,-257.0,-34.0,141.0,37.0,-56.0,45.0,-994.0,36.0
32.0,-258.0,-28.0,138.0,40.0,-54.0,42.0,-988.0,45.0
32.0,-257.0,-31.0,134.0,44.0,-53.0,45.0,-990.0,48.0
31.0,-257.0,-35.0,128.0,44.0,-50.0,39.0,-984.0,53.0
30.0,-256.0,-27.0,121.0,46.0,-48.0,43.0,-990.0,61.0
31.0,-257.0,-30.0,118.0,46.0,-44.0,41.0,-981.0,65.0
30.0,-258.0,-26.0,115.0,46.0,-41.0,38.0,-984.0,62.0
31.0,-257.0,-27.0,115.0,46.0,-37.0,38.0,-986.0,62.0
29.0,-259.0,-24.0,116.0,46.0,-35.0,33.0,-984.0,70.0
27.0,-254.0,-20.0,116.0,47.0,-32.0,31.0,-981.0,71.0
30.0,-258.0,-24.0,113.0,46.0,-28.0,32.0,-985.0,70.0
26.0,-255.0,-24.0,109.0,46.0,-26.0,34.0,-981.0,70.0
30.0,-257.0,-24.0,104.0,45.0,-22.0,36.0,-982.0,75.0
29.0,-258.0,-24.0,99.0,43.0,-19.0,32.0,-982.0,76.0
28.0,-258.0,-22.0,95.0,44.0,-16.0,30.0,-983.0,78.0
29.0,-259.0,-20.0,89.0,41.0,-14.0,33.0,-986.0,78.0
32.0,-258.0,-19.0,85.0,40.0,-14.0,36.0,-990.0,78.0
29.0,-257.0,-21.0,82.0,39.0,-13.0,35.0,-990.0,79.0
29.0,-257.0,-21.0,81.0,38.0,-13.0,33.0,-995.0,88.0
29.0,-261.0,-17.0,80.0,38.0,-14.0,32.0,-992.0,91.0
31.0,-260.0,-18.0,81.0,37.0,-16.0,29.0,-994.0,93.0
29.0,-258.0,-21.0,82.0,37.0,-16.0,41.0,-998.0,92.0
30.0,-261.0,-17.0,86.0,37.0,-17.0,34.0,-999.0,93.0
28.0,-258.0,-20.0,90.0,39.0,-18.0,30.0,-995.0,94.0
29.0,-258.0,-17.0,92.0,41.0,-20.0,25.0,-989.0,92.0
32.0,-261.0,-18.0,93.0,41.0,-20.0,35.0,-984.0,92.0
30.0,-258.0,-21.0,92.0,42.0,-20.0,33.0,-984.0,87.0
27.0,-258.0,-19.0,88.0,44.0,-19.0,31.0,-983.0,83.0
29.0,-256.0,-16.0,83.0,46.0,-20.0,30.0,-977.0,82.0
29.0,-257.0,-22.0,74.0,46.0,-20.0,33.0,-984.0,91.0
28.0,-256.0,-20.0,64.0,47.0,-18.0,24.0,-981.0,84.0
28.0,-255.0,-27.0,56.0,48.0,-18.0,26.0,-977.0,86.0
27.0,-259.0,-18.0,45.0,47.0,-19.0,26.0,-985.0,89.0
26.0,-258.0,-21.0,36.0,46.0,-16.0,26.0,-984.0,88.0
28.0,-259.0,-18.0,26.0,45.0,-16.0,24.0,-983.0,84.0
26.0,-260.0,-23.0,20.0,42.0,-14.0,27.0,-988.0,89.0
25.0,-257.0,-21.0,17.0,41.0,-13.0,26.0,-990.0,91.0
26.0,-261.0,-18.0,16.0,41.0,-15.0,27.0,-1001.0,90.0
30.0,-260.0,-18.0,19.0,40.0,-13.0,27.0,-997.0,93.0
28.0,-262.0,-17.0,24.0,39.0,-13.0,28.0,-994.0,88.0
29.0,-261.0,-20.0,31.0,38.0,-13.0,31.0,-998.0,87.0
31.0,-262.0,-17.0,35.0,37.0,-12.0,23.0,-1000.0,83.0
29.0,-262.0,-16.0,40.0,38.0,-11.0,25.0,-998.0,80.0
28.0,-260.0,-21.0,41.0,38.0,-10.0,34.0,-994.0,79.0
28.0,-260.0,-23.0,41.0,39.0,-10.0,27.0,-996.0,77.0
28.0,-260.0,-24.0,40.0,41.0,-9.0,28.0,-1000.0,75.0
24.0,-259.0,-21.0,36.0,40.0,-9.0,24.0,-996.0,78.0
29.0,-262.0,-24.0,33.0,41.0,-9.0,32.0,-993.0,81.0
25.0,-262.0,-22.0,31.0,41.0,-8.0,25.0,-998.0,81.0
28.0,-259.0,-23.0,29.0,40.0,-7.0,27.0,-999.0,78.0
27.0,-260.0,-18.0,25.0,41.0,-6.0,26.0,-999.0,80.0
26.0,-263.0,-25.0,20.0,40.0,-4.0,24.0,-999.0,81.0
29.0,-262.0,-23.0,17.0,40.0,-2.0,24.0,-1001.0,84.0
28.0,-261.0,-17.0,16.0,38.0,-1.0,27.0,-1003.0,77.0
21.0,-256.0,-15.0,15.0,35.0,1.0,24.0,-999.0,80.0
27.0,-262.0,-18.0,17.0,34.0,3.0,27.0,-1001.0,83.0
27.0,-261.0,-21.0,19.0,31.0,5.0,23.0,-999.0,81.0
27.0,-264.0,-22.0,22.0,28.0,5.0,23.0,-1001.0,83.0
25.0,-260.0,-18.0,25.0,26.0,6.0,26.0,-1001.0,83.0
26.0,-257.0,-22.0,26.0,23.0,6.0,24.0,-1000.0,81.0
26.0,-256.0,-23.0,23.0,21.0,6.0,23.0,-995.0,84.0
27.0,-257.0,-23.0,22.0,19.0,6.0,25.0,-993.0,80.0
26.0,-258.0,-21.0,20.0,18.0,6.0,22.0,-989.0,78.0
28.0,-259.0,-24.0,18.0,17.0,7.0,15.0,-990.0,78.0
27.0,-257.0,-19.0,13.0,19.0,8.0,17.0,-989.0,78.0
27.0,-259.0,-22.0,11.0,19.0,8.0,23.0,-988.0,81.0
26.0,-259.0,-20.0,8.0,19.0,9.0,19.0,-989.0,88.0
28.0,-260.0,-20.0,8.0,20.0,10.0,22.0,-996.0,86.0
27.0,-256.0,-16.0,8.0,20.0,11.0,23.0,-996.0,91.0
28.0,-260.0,-21.0,9.0,20.0,11.0,26.0,-996.0,90.0
28.0,-259.0,-19.0,11.0,20.0,11.0,23.0,-995.0,92.0
27.0,-257.0,-17.0,13.0,22.0,11.0,24.0,-995.0,92.0
28.0,-260.0,-21.0,14.0,23.0,13.0,26.0,-995.0,97.0
27.0,-262.0,-20.0,14.0,23.0,12.0,22.0,-994.0,96.0
21.0,-257.0,-18.0,14.0,24.0,12.0,18.0,-993.0,93.0
31.0,-256.0,-19.0,12.0,24.0,11.0,19.0,-994.0,94.0
24.0,-259.0,-22.0,10.0,24.0,12.0,18.0,-989.0,100.0
23.0,-255.0,-16.0,6.0,25.0,12.0,17.0,-991.0,94.0
25.0,-257.0,-15.0,6.0,26.0,12.0,15.0,-994.0,98.0
24.0,-256.0,-18.0,0.0,25.0,12.0,15.0,-991.0,97.0
21.0,-259.0,-13.0,-3.0,24.0,13.0,15.0,-990.0,93.0
25.0,-256.0,-18.0,-7.0,24.0,12.0,18.0,-995.0,96.0
23.0,-257.0,-16.0,-11.0,24.0,13.0,18.0,-995.0,95.0
24.0,-261.0,-18.0,-15.0,23.0,13.0,12.0,-995.0,95.0
26.0,-260.0,-18.0,-18.0,22.0,14.0,12.0,-996.0,95.0
46.0,-242.0,-16.0,-21.0,19.0,12.0,16.0,-996.0,94.0
26.0,-260.0,-20.0,-24.0,18.0,14.0,19.0,-1001.0,92.0
25.0,-260.0,-16.0,-23.0,18.0,14.0,12.0,-997.0,91.0
26.0,-264.0,-19.0,-23.0,20.0,16.0,16.0,-995.0,94.0
23.0,-260.0,-20.0,-21.0,19.0,16.0,15.0,-993.0,89.0
26.0,-260.0,-14.0,-21.0,17.0,16.0,13.0,-994.0,95.0
25.0,-260.0,-18.0,-19.0,17.0,16.0,12.0,-1000.0,91.0
24.0,-257.0,-18.0,-17.0,15.0,16.0,11.0,-998.0,93.0
24.0,-257.0,-19.0,-18.0,16.0,15.0,11.0,-993.0,91.0
25.0,-263.0,-18.0,-15.0,15.0,15.0,15.0,-995.0,86.0
26.0,-258.0,-21.0,-17.0,15.0,15.0,14.0,-997.0,91.0
24.0,-261.0,-22.0,-17.0,15.0,15.0,11.0,-999.0,89.0
22.0,-260.0,-17.0,-18.0,15.0,15.0,12.0,-998.0,88.0
25.0,-258.0,-19.0,-19.0,16.0,14.0,15.0,-1001.0,91.0
25.0,-261.0,-19.0,-18.0,18.0,16.0,14.0,-1000.0,91.0
25.0,-260.0,-17.0,-19.0,18.0,15.0,13.0,-996.0,93.0
21.0,-258.0,-18.0,-18.0,18.0,14.0,8.0,-995.0,90.0
24.0,-262.0,-15.0,-18.0,19.0,13.0,9.0,-994.0,94.0
21.0,-260.0,-13.0,-17.0,18.0,12.0,15.0,-1001.0,96.0
25.0,-261.0,-16.0,-16.0,18.0,11.0,12.0,-1000.0,95.0
23.0,-259.0,-18.0,-16.0,19.0,10.0,13.0,-995.0,96.0
23.0,-262.0,-19.0,-16.0,20.0,9.0,14.0,-998.0,95.0
26.0,-260.0,-16.0,-15.0,20.0,9.0,12.0,-1001.0,97.0
24.0,-262.0,-19.0,-16.0,21.0,9.0,16.0,-997.0,98.0
27.0,-261.0,-21.0,-14.0,21.0,8.0,19.0,-999.0,96.0
26.0,-262.0,-18.0,-14.0,20.0,8.0,14.0,-1000.0,98.0
27.0,-260.0,-20.0,-13.0,19.0,9.0,23.0,-997.0,100.0
28.0,-263.0,-21.0,-11.0,19.0,8.0,24.0,-1005.0,99.0
24.0,-260.0,-16.0,-8.0,19.0,9.0,23.0,-997.0,103.0
28.0,-263.0,-18.0,-7.0,18.0,10.0,25.0,-997.0,98.0
26.0,-261.0,-18.0,-2.0,18.0,11.0,20.0,-999.0,101.0
24.0,-260.0,-18.0,-1.0,19.0,11.0,19.0,-1000.0,102.0
31.0,-263.0,-18.0,1.0,18.0,11.0,18.0,-999.0,101.0
27.0,-261.0,-18.0,1.0,18.0,12.0,18.0,-998.0,98.0
27.0,-262.0,-15.0,2.0,18.0,11.0,21.0,-997.0,101.0
26.0,-257.0,-15.0,1.0,17.0,9.0,14.0,-999.0,98.0
28.0,-259.0,-18.0,2.0,16.0,10.0,15.0,-994.0,102.0
26.0,-258.0,-16.0,-2.0,16.0,12.0,16.0,-992.0,103.0
26.0,-259.0,-14.0,-2.0,17.0,13.0,14.0,-990.0,100.0
25.0,-258.0,-16.0,-4.0,19.0,12.0,20.0,-991.0,102.0
25.0,-254.0,-17.0,-9.0,21.0,12.0,22.0,-991.0,97.0
24.0,-258.0,-19.0,-13.0,23.0,13.0,19.0,-988.0,100.0
25.0,-258.0,-15.0,-19.0,25.0,12.0,15.0,-987.0,98.0
25.0,-256.0,-18.0,-26.0,26.0,12.0,11.0,-988.0,99.0
27.0,-258.0,-14.0,-31.0,27.0,11.0,17.0,-992.0,104.0
25.0,-259.0,-13.0,-33.0,25.0,10.0,13.0,-995.0,102.0
25.0,-262.0,-16.0,-35.0,23.0,9.0,15.0,-992.0,105.0
27.0,-261.0,-17.0,-34.0,23.0,10.0,10.0,-998.0,100.0
25.0,-261.0,-18.0,-32.0,22.0,9.0,22.0,-995.0,103.0
25.0,-261.0,-17.0,-28.0,22.0,10.0,20.0,-1004.0,97.0
27.0,-264.0,-18.0,-25.0,21.0,11.0,20.0,-1000.0,98.0
26.0,-262.0,-15.0,-21.0,21.0,10.0,15.0,-996.0,97.0
24.0,-259.0,-17.0,-19.0,20.0,10.0,19.0,-998.0,97.0
25.0,-259.0,-17.0,-19.0,22.0,9.0,14.0,-991.0,96.0
26.0,-258.0,-18.0,-22.0,23.0,9.0,13.0,-995.0,94.0
24.0,-260.0,-16.0,-23.0,24.0,7.0,12.0,-995.0,101.0
23.0,-260.0,-14.0,-24.0,24.0,7.0,13.0,-997.0,95.0
25.0,-261.0,-18.0,-26.0,23.0,6.0,11.0,-995.0,105.0
24.0,-261.0,-14.0,-27.0,23.0,5.0,12.0,-998.0,104.0
22.0,-261.0,-15.0,-28.0,24.0,5.0,12.0,-994.0,103.0
23.0,-262.0,-17.0,-27.0,24.0,5.0,10.0,-999.0,101.0
22.0,-260.0,-13.0,-26.0,24.0,5.0,12.0,-1001.0,100.0
25.0,-262.0,-18.0,-25.0,25.0,4.0,12.0,-999.0,102.0
21.0,-259.0,-16.0,-25.0,25.0,4.0,11.0,-1000.0,100.0
23.0,-263.0,-18.0,-24.0,26.0,4.0,7.0,-999.0,94.0
25.0,-258.0,-17.0,-23.0,27.0,4.0,10.0,-995.0,94.0
25.0,-263.0,-17.0,-21.0,28.0,4.0,9.0,-992.0,97.0
25.0,-261.0,-16.0,-22.0,30.0,6.0,9.0,-995.0,88.0
24.0,-260.0,-17.0,-24.0,32.0,4.0,16.0,-993.0,92.0
23.0,-259.0,-17.0,-27.0,32.0,3.0,15.0,-995.0,96.0
24.0,-260.0,-17.0,-26.0,34.0,2.0,14.0,-996.0,101.0
25.0,-259.0,-18.0,-27.0,36.0,1.0,15.0,-992.0,97.0
25.0,-261.0,-17.0,-28.0,37.0,1.0,15.0,-995.0,100.0
27.0,-259.0,-15.0,-25.0,38.0,0.0,16.0,-997.0,105.0
26.0,-259.0,-14.0,-21.0,39.0,0.0,14.0,-997.0,106.0
26.0,-263.0,-13.0,-20.0,40.0,1.0,20.0,-1000.0,106.0
26.0,-260.0,-11.0,-16.0,41.0,1.0,21.0,-1001.0,105.0
25.0,-255.0,-23.0,-13.0,40.0,3.0,21.0,-997.0,108.0
28.0,-261.0,-12.0,-10.0,40.0,4.0,17.0,-995.0,107.0
27.0,-261.0,-14.0,-9.0,39.0,4.0,25.0,-993.0,108.0
26.0,-258.0,-19.0,-10.0,36.0,5.0,18.0,-992.0,106.0
24.0,-259.0,-16.0,-11.0,33.0,7.0,18.0,-992.0,109.0
24.0,-259.0,-19.0,-14.0,31.0,9.0,18.0,-993.0,110.0
25.0,-259.0,-16.0,-17.0,28.0,9.0,15.0,-996.0,108.0
27.0,-259.0,-17.0,-17.0,25.0,11.0,21.0,-994.0,104.0
25.0,-262.0,-18.0,-22.0,22.0,9.0,15.0,-993.0,104.0
24.0,-263.0,-14.0,-22.0,20.0,10.0,11.0,-998.0,106.0
22.0,-260.0,-16.0,-24.0,19.0,11.0,13.0,-991.0,108.0
26.0,-262.0,-12.0,-26.0,19.0,10.0,12.0,-994.0,103.0
23.0,-259.0,-17.0,-27.0,18.0,9.0,12.0,-996.0,104.0
28.0,-263.0,-16.0,-27.0,17.0,9.0,10.0,-994.0,103.0
21.0,-258.0,-17.0,-28.0,16.0,7.0,8.0,-996.0,99.0
25.0,-259.0,-16.0,-29.0,16.0,6.0,6.0,-994.0,105.0
24.0,-259.0,-14.0,-30.0,18.0,6.0,6.0,-996.0,102.0
23.0,-262.0,-16.0,-30.0,18.0,3.0,6.0,-999.0,100.0
26.0,-261.0,-17.0,-28.0,19.0,4.0,3.0,-996.0,101.0
22.0,-258.0,-16.0,-29.0,19.0,4.0,2.0,-995.0,99.0
22.0,-259.0,-15.0,-30.0,21.0,4.0,5.0,-996.0,101.0
23.0,-260.0,-14.0,-31.0,21.0,4.0,2.0,-997.0,101.0
19.0,-265.0,-12.0,-28.0,22.0,4.0,0.0,-992.0,103.0
24.0,-262.0,-17.0,-30.0,22.0,5.0,3.0,-997.0,107.0
19.0,-257.0,-18.0,-30.0,23.0,5.0,1.0,-996.0,105.0
22.0,-257.0,-17.0,-31.0,24.0,5.0,2.0,-995.0,107.0
22.0,-259.0,-16.0,-32.0,23.0,6.0,4.0,-995.0,107.0
21.0,-257.0,-16.0,-31.0,23.0,6.0,3.0,-996.0,105.0
24.0,-261.0,-12.0,-34.0,23.0,7.0,5.0,-995.0,107.0
21.0,-259.0,-14.0,-33.0,23.0,7.0,2.0,-994.0,110.0
22.0,-259.0,-17.0,-33.0,23.0,6.0,3.0,-996.0,106.0
20.0,-257.0,-13.0,-33.0,24.0,7.0,0.0,-992.0,108.0
22.0,-257.0,-19.0,-33.0,24.0,6.0,1.0,-993.0,108.0
21.0,-259.0,-12.0,-34.0,23.0,7.0,-1.0,-996.0,112.0
18.0,-260.0,-13.0,-35.0,22.0,8.0,6.0,-997.0,107.0
21.0,-258.0,-15.0,-35.0,22.0,7.0,6.0,-994.0,111.0
24.0,-258.0,-14.0,-34.0,24.0,5.0,6.0,-996.0,112.0
22.0,-260.0,-15.0,-35.0,23.0,5.0,8.0,-993.0,108.0
22.0,-260.0,-22.0,-35.0,22.0,4.0,4.0,-994.0,108.0
24.0,-262.0,-13.0,-36.0,21.0,4.0,4.0,-998.0,107.0
22.0,-257.0,-15.0,-36.0,20.0,4.0,8.0,-995.0,110.0
22.0,-262.0,-11.0,-35.0,20.0,3.0,12.0,-995.0,110.0
23.0,-262.0,-12.0,-35.0,17.0,3.0,8.0,-992.0,107.0
23.0,-254.0,-15.0,-34.0,16.0,1.0,13.0,-994.0,109.0
26.0,-261.0,-17.0,-34.0,15.0,2.0,7.0,-995.0,108.0
24.0,-260.0,-10.0,-33.0,15.0,1.0,8.0,-992.0,108.0
22.0,-258.0,-15.0,-34.0,15.0,1.0,11.0,-997.0,110.0
25.0,-260.0,-15.0,-33.0,15.0,2.0,10.0,-996.0,111.0
27.0,-261.0,-13.0,-32.0,14.0,2.0,13.0,-993.0,105.0
24.0,-259.0,-13.0,-32.0,16.0,1.0,6.0,-994.0,105.0
24.0,-262.0,-13.0,-32.0,14.0,3.0,7.0,-994.0,108.0
22.0,-258.0,-15.0,-34.0,13.0,3.0,11.0,-998.0,108.0
23.0,-259.0,-13.0,-36.0,13.0,5.0,8.0,-993.0,107.0
26.0,-259.0,-17.0,-37.0,14.0,4.0,6.0,-992.0,107.0
22.0,-273.0,-3.0,-37.0,15.0,3.0,6.0,-1000.0,107.0
23.0,-258.0,-17.0,-39.0,16.0,4.0,11.0,-997.0,106.0
23.0,-262.0,-14.0,-37.0,18.0,4.0,8.0,-996.0,106.0
23.0,-260.0,-13.0,-36.0,19.0,4.0,7.0,-996.0,112.0
21.0,-258.0,-14.0,-36.0,19.0,4.0,12.0,-991.0,110.0
26.0,-261.0,-15.0,-37.0,19.0,3.0,11.0,-1000.0,106.0
23.0,-258.0,-16.0,-36.0,19.0,3.0,14.0,-999.0,104.0
23.0,-261.0,-10.0,-34.0,18.0,3.0,9.0,-998.0,106.0
25.0,-258.0,-12.0,-34.0,19.0,2.0,8.0,-994.0,102.0
23.0,-260.0,-15.0,-34.0,18.0,3.0,9.0,-993.0,113.0
25.0,-257.0,-13.0,-32.0,17.0,2.0,9.0,-998.0,108.0
25.0,-265.0,-12.0,-32.0,17.0,3.0,9.0,-998.0,106.0
23.0,-261.0,-17.0,-34.0,17.0,3.0,11.0,-995.0,105.0
23.0,-259.0,-11.0,-36.0,17.0,1.0,9.0,-991.0,107.0
23.0,-258.0,-15.0,-38.0,16.0,1.0,9.0,-998.0,107.0
23.0,-260.0,-14.0,-37.0,15.0,2.0,8.0,-997.0,111.0
21.0,-259.0,-17.0,-38.0,16.0,2.0,11.0,-993.0,105.0
27.0,-260.0,-13.0,-38.0,18.0,1.0,7.0,-999.0,106.0
21.0,-259.0,-14.0,-36.0,18.0,1.0,9.0,-999.0,111.0
23.0,-261.0,-13.0,-37.0,19.0,1.0,13.0,-993.0,108.0
26.0,-260.0,-14.0,-36.0,21.0,0.0,11.0,-996.0,111.0
24.0,-261.0,-14.0,-36.0,21.0,1.0,12.0,-1002.0,108.0
22.0,-258.0,-13.0,-36.0,22.0,-1.0,12.0,-996.0,105.0
22.0,-260.0,-16.0,-36.0,23.0,-1.0,10.0,-999.0,111.0
24.0,-259.0,-15.0,-36.0,22.0,2.0,13.0,-993.0,108.0
24.0,-259.0,-13.0,-37.0,23.0,3.0,15.0,-989.0,107.0
24.0,-261.0,-14.0,-35.0,23.0,2.0,16.0,-994.0,99.0
24.0,-260.0,-12.0,-35.0,22.0,2.0,15.0,-994.0,110.0
25.0,-257.0,-17.0,-35.0,24.0,2.0,14.0,-997.0,104.0
26.0,-261.0,-17.0,-34.0,22.0,1.0,13.0,-993.0,104.0
24.0,-257.0,-14.0,-34.0,21.0,1.0,14.0,-989.0,102.0
22.0,-261.0,-13.0,-35.0,21.0,1.0,16.0,-993.0,110.0
24.0,-258.0,-14.0,-36.0,20.0,-1.0,12.0,-992.0,105.0
24.0,-259.0,-16.0,-37.0,20.0,-1.0,14.0,-992.0,112.0
24.0,-257.0,-11.0,-39.0,22.0,-1.0,11.0,-988.0,109.0
22.0,-260.0,-9.0,-42.0,23.0,0.0,11.0,-993.0,111.0
22.0,-258.0,-10.0,-44.0,24.0,-1.0,5.0,-990.0,114.0
22.0,-257.0,-14.0,-47.0,25.0,-2.0,7.0,-995.0,112.0
23.0,-258.0,-13.0,-48.0,26.0,-2.0,0.0,-988.0,113.0
23.0,-261.0,-13.0,-50.0,26.0,-1.0,6.0,-990.0,118.0
25.0,-261.0,-13.0,-54.0,27.0,-3.0,5.0,-988.0,114.0
22.0,-261.0,-11.0,-57.0,27.0,-3.0,6.0,-993.0,114.0
22.0,-259.0,-12.0,-59.0,27.0,-3.0,5.0,-993.0,111.0
21.0,-260.0,-10.0,-57.0,29.0,-3.0,5.0,-1001.0,116.0
21.0,-260.0,-12.0,-55.0,28.0,-4.0,4.0,-1004.0,110.0
24.0,-260.0,-10.0,-54.0,27.0,-3.0,-1.0,-998.0,112.0
22.0,-262.0,-12.0,-51.0,27.0,-5.0,3.0,-998.0,114.0
19.0,-262.0,-16.0,-50.0,26.0,-5.0,2.0,-992.0,111.0
24.0,-262.0,-11.0,-52.0,27.0,-6.0,2.0,-995.0,109.0
24.0,-259.0,-13.0,-52.0,26.0,-6.0,7.0,-994.0,110.0
24.0,-259.0,-11.0,-54.0,27.0,-7.0,9.0,-996.0,111.0
26.0,-259.0,-12.0,-56.0,27.0,-7.0,4.0,-995.0,107.0
24.0,-258.0,-12.0,-59.0,27.0,-7.0,2.0,-994.0,106.0
20.0,-257.0,-13.0,-60.0,28.0,-8.0,9.0,-993.0,111.0
21.0,-259.0,-11.0,-63.0,29.0,-9.0,6.0,-998.0,109.0
25.0,-263.0,-13.0,-63.0,30.0,-9.0,5.0,-992.0,115.0
23.0,-260.0,-13.0,-65.0,30.0,-9.0,7.0,-998.0,109.0
23.0,-263.0,-10.0,-67.0,31.0,-9.0,5.0,-996.0,108.0
25.0,-260.0,-13.0,-65.0,30.0,-10.0,5.0,-1008.0,109.0
19.0,-260.0,-16.0,-64.0,29.0,-10.0,5.0,-1003.0,110.0
22.0,-261.0,-15.0,-62.0,29.0,-10.0,5.0,-999.0,109.0
23.0,-260.0,-18.0,-60.0,27.0,-10.0,8.0,-1001.0,114.0
23.0,-259.0,-15.0,-57.0,26.0,-9.0,5.0,-1001.0,109.0
22.0,-260.0,-16.0,-56.0,26.0,-8.0,10.0,-1000.0,106.0
24.0,-260.0,-19.0,-54.0,25.0,-7.0,7.0,-995.0,106.0
22.0,-258.0,-14.0,-52.0,24.0,-7.0,6.0,-997.0,108.0
21.0,-261.0,-17.0,-51.0,23.0,-7.0,3.0,-997.0,104.0
22.0,-261.0,-16.0,-51.0,23.0,-9.0,6.0,-996.0,105.0
24.0,-257.0,-16.0,-50.0,23.0,-9.0,7.0,-995.0,103.0
22.0,-261.0,-12.0,-52.0,23.0,-9.0,0.0,-993.0,109.0
21.0,-257.0,-12.0,-51.0,22.0,-8.0,4.0,-994.0,105.0
23.0,-259.0,-14.0,-52.0,22.0,-8.0,6.0,-988.0,106.0
25.0,-261.0,-16.0,-54.0,23.0,-7.0,7.0,-990.0,108.0
24.0,-265.0,-17.0,-55.0,21.0,-5.0,5.0,-993.0,105.0
23.0,-264.0,-8.0,-57.0,21.0,-5.0,9.0,-991.0,108.0
28.0,-250.0,-19.0,-59.0,20.0,-5.0,7.0,-995.0,108.0
25.0,-262.0,-10.0,-60.0,20.0,-3.0,4.0,-993.0,109.0
23.0,-271.0,3.0,-61.0,20.0,-1.0,6.0,-996.0,110.0
25.0,-267.0,-16.0,-63.0,21.0,-2.0,8.0,-996.0,113.0
23.0,-249.0,-10.0,-62.0,19.0,-3.0,11.0,-997.0,102.0
23.0,-258.0,-25.0,-64.0,19.0,-2.0,3.0,-994.0,114.0
10.0,-252.0,-17.0,-64.0,19.0,-2.0,10.0,-993.0,111.0
17.0,-254.0,-24.0,-64.0,18.0,-3.0,3.0,-998.0,105.0
21.0,-252.0,-13.0,-63.0,18.0,-3.0,6.0,-998.0,113.0
24.0,-264.0,-15.0,-61.0,19.0,-3.0,7.0,-1002.0,109.0
21.0,-259.0,-16.0,-63.0,20.0,-4.0,3.0,-994.0,108.0
24.0,-260.0,-16.0,-60.0,18.0,-6.0,2.0,-995.0,107.0
24.0,-259.0,-6.0,-60.0,20.0,-6.0,2.0,-996.0,112.0
20.0,-260.0,-11.0,-60.0,19.0,-7.0,2.0,-994.0,107.0
21.0,-259.0,-14.0,-60.0,18.0,-8.0,9.0,-996.0,108.0
22.0,-257.0,-15.0,-61.0,18.0,-8.0,6.0,-993.0,105.0
19.0,-258.0,-12.0,-63.0,20.0,-9.0,6.0,-995.0,103.0
27.0,-258.0,-8.0,-63.0,21.0,-10.0,7.0,-991.0,109.0
22.0,-258.0,-12.0,-62.0,21.0,-11.0,7.0,-994.0,107.0
22.0,-258.0,-13.0,-64.0,23.0,-11.0,7.0,-995.0,104.0
23.0,-259.0,-12.0,-66.0,22.0,-11.0,5.0,-995.0,103.0
24.0,-258.0,-15.0,-67.0,22.0,-11.0,6.0,-991.0,105.0
21.0,-260.0,-16.0,-67.0,23.0,-11.0,5.0,-993.0,108.0
20.0,-259.0,-14.0,-69.0,23.0,-11.0,5.0,-994.0,106.0
20.0,-259.0,-7.0,-69.0,21.0,-11.0,10.0,-997.0,106.0
24.0,-258.0,-16.0,-69.0,21.0,-11.0,4.0,-999.0,107.0
23.0,-260.0,-15.0,-69.0,22.0,-12.0,6.0,-995.0,100.0
20.0,-260.0,-17.0,-67.0,19.0,-11.0,12.0,-992.0,109.0
23.0,-262.0,-16.0,-68.0,18.0,-10.0,3.0,-1002.0,105.0
22.0,-260.0,-17.0,-69.0,18.0,-9.0,8.0,-996.0,102.0
25.0,-259.0,-15.0,-70.0,16.0,-8.0,11.0,-998.0,103.0
23.0,-260.0,-14.0,-68.0,16.0,-7.0,7.0,-1000.0,103.0
23.0,-260.0,-17.0,-69.0,17.0,-7.0,7.0,-1000.0,106.0
24.0,-260.0,-15.0,-67.0,17.0,-6.0,10.0,-999.0,105.0
20.0,-262.0,-12.0,-67.0,17.0,-5.0,6.0,-999.0,102.0
25.0,-263.0,-12.0,-66.0,16.0,-5.0,12.0,-1003.0,106.0
20.0,-258.0,-15.0,-67.0,18.0,-5.0,10.0,-995.0,104.0
21.0,-258.0,-15.0,-67.0,18.0,-6.0,6.0,-997.0,104.0
23.0,-260.0,-13.0,-69.0,19.0,-6.0,13.0,-998.0,100.0
23.0,-260.0,-17.0,-68.0,20.0,-6.0,7.0,-999.0,99.0
21.0,-260.0,-17.0,-69.0,21.0,-7.0,12.0,-1001.0,103.0
24.0,-258.0,-17.0,-70.0,20.0,-7.0,11.0,-1000.0,99.0
22.0,-260.0,-15.0,-70.0,19.0,-8.0,12.0,-1001.0,102.0
21.0,-260.0,-15.0,-67.0,20.0,-8.0,14.0,-1002.0,101.0
29.0,-258.0,-24.0,-66.0,19.0,-9.0,6.0,-1002.0,100.0
26.0,-264.0,-11.0,-64.0,21.0,-10.0,10.0,-998.0,101.0
26.0,-259.0,-11.0,-63.0,20.0,-9.0,11.0,-992.0,102.0
24.0,-258.0,-14.0,-62.0,18.0,-9.0,13.0,-997.0,100.0
25.0,-263.0,-19.0,-65.0,19.0,-9.0,5.0,-998.0,98.0
23.0,-260.0,-13.0,-65.0,20.0,-10.0,5.0,-995.0,99.0
24.0,-259.0,-14.0,-66.0,19.0,-10.0,7.0,-996.0,95.0
21.0,-259.0,-9.0,-68.0,20.0,-9.0,8.0,-995.0,99.0
23.0,-257.0,-17.0,-69.0,20.0,-9.0,9.0,-991.0,104.0
24.0,-261.0,-18.0,-71.0,21.0,-7.0,8.0,-992.0,100.0
26.0,-257.0,-12.0,-75.0,20.0,-8.0,10.0,-995.0,99.0
20.0,-259.0,-11.0,-76.0,20.0,-8.0,13.0,-997.0,98.0
20.0,-257.0,-17.0,-78.0,18.0,-7.0,9.0,-996.0,99.0
24.0,-259.0,-17.0,-78.0,19.0,-7.0,8.0,-996.0,99.0
24.0,-261.0,-15.0,-78.0,19.0,-4.0,13.0,-996.0,100.0
25.0,-260.0,-16.0,-78.0,20.0,-3.0,13.0,-999.0,99.0
24.0,-258.0,-17.0,-77.0,21.0,-4.0,6.0,-994.0,98.0
22.0,-259.0,-18.0,-77.0,20.0,-4.0,13.0,-992.0,95.0
24.0,-259.0,-14.0,-79.0,20.0,-3.0,10.0,-993.0,98.0
24.0,-259.0,-17.0,-84.0,19.0,-5.0,12.0,-999.0,100.0
25.0,-260.0,-17.0,-85.0,20.0,-5.0,14.0,-995.0,96.0
21.0,-257.0,-14.0,-87.0,18.0,-4.0,13.0,-997.0,99.0
25.0,-253.0,-22.0,-86.0,17.0,-6.0,6.0,-995.0,98.0
23.0,-260.0,-15.0,-86.0,17.0,-7.0,8.0,-995.0,101.0
22.0,-259.0,-20.0,-85.0,16.0,-7.0,10.0,-996.0,99.0
22.0,-260.0,-16.0,-85.0,16.0,-8.0,8.0,-997.0,103.0
23.0,-259.0,-20.0,-86.0,16.0,-7.0,10.0,-996.0,101.0
23.0,-260.0,-14.0,-84.0,16.0,-6.0,5.0,-996.0,102.0
24.0,-259.0,-14.0,-85.0,18.0,-5.0,14.0,-999.0,96.0
24.0,-261.0,-14.0,-82.0,19.0,-6.0,12.0,-999.0,96.0
22.0,-261.0,-16.0,-85.0,19.0,-4.0,3.0,-998.0,94.0
24.0,-259.0,-19.0,-83.0,19.0,-2.0,9.0,-1000.0,96.0
20.0,-261.0,-15.0,-81.0,18.0,-1.0,7.0,-999.0,94.0
25.0,-258.0,-19.0,-77.0,18.0,-1.0,9.0,-996.0,99.0
23.0,-261.0,-19.0,-77.0,20.0,-1.0,7.0,-1000.0,93.0
24.0,-260.0,-17.0,-75.0,20.0,-1.0,9.0,-998.0,98.0
22.0,-259.0,-24.0,-72.0,21.0,-1.0,5.0,-1000.0,89.0
22.0,-260.0,-19.0,-68.0,21.0,-2.0,5.0,-1000.0,94.0
23.0,-263.0,-15.0,-65.0,22.0,-2.0,6.0,-999.0,96.0
22.0,-261.0,-17.0,-64.0,22.0,-4.0,6.0,-999.0,95.0
21.0,-259.0,-17.0,-63.0,22.0,-4.0,5.0,-995.0,94.0
24.0,-260.0,-19.0,-64.0,22.0,-5.0,9.0,-993.0,96.0
21.0,-259.0,-18.0,-64.0,23.0,-5.0,2.0,-992.0,94.0
20.0,-258.0,-18.0,-64.0,24.0,-5.0,7.0,-995.0,97.0
23.0,-258.0,-18.0,-66.0,25.0,-5.0,5.0,-987.0,95.0
18.0,-257.0,-16.0,-69.0,26.0,-5.0,5.0,-992.0,93.0
24.0,-259.0,-16.0,-72.0,25.0,-4.0,0.0,-1001.0,96.0
19.0,-261.0,-16.0,-75.0,24.0,-5.0,1.0,-1000.0,95.0
20.0,-259.0,-17.0,-76.0,23.0,-5.0,6.0,-998.0,97.0
22.0,-261.0,-17.0,-73.0,23.0,-6.0,1.0,-1004.0,99.0
22.0,-261.0,-16.0,-69.0,22.0,-5.0,7.0,-1006.0,95.0
24.0,-262.0,-16.0,-63.0,21.0,-6.0,9.0,-1003.0,95.0
23.0,-262.0,-16.0,-58.0,20.0,-4.0,3.0,-1006.0,91.0
24.0,-267.0,-18.0,-50.0,18.0,-4.0,7.0,-1000.0,93.0
20.0,-259.0,-18.0,-44.0,15.0,-3.0,10.0,-1002.0,84.0
23.0,-260.0,-19.0,-41.0,15.0,-4.0,5.0,-999.0,86.0
27.0,-262.0,-19.0,-39.0,13.0,-5.0,7.0,-998.0,81.0
23.0,-260.0,-20.0,-37.0,14.0,-6.0,7.0,-998.0,85.0
21.0,-262.0,-24.0,-37.0,13.0,-7.0,5.0,-998.0,87.0
23.0,-261.0,-14.0,-35.0,13.0,-6.0,3.0,-998.0,85.0
22.0,-260.0,-19.0,-34.0,12.0,-7.0,6.0,-995.0,93.0
25.0,-260.0,-19.0,-34.0,10.0,-7.0,2.0,-993.0,92.0
19.0,-261.0,-19.0,-32.0,11.0,-7.0,4.0,-995.0,87.0
24.0,-263.0,-16.0,-31.0,11.0,-7.0,8.0,-995.0,87.0
18.0,-258.0,-18.0,-28.0,11.0,-9.0,5.0,-1000.0,90.0
22.0,-261.0,-18.0,-23.0,10.0,-7.0,4.0,-997.0,85.0
26.0,-269.0,-17.0,-20.0,11.0,-7.0,6.0,-1002.0,85.0
21.0,-260.0,-19.0,-16.0,12.0,-6.0,4.0,-1001.0,80.0
21.0,-262.0,-20.0,-11.0,11.0,-6.0,5.0,-1004.0,86.0
20.0,-260.0,-19.0,-9.0,12.0,-5.0,7.0,-1003.0,83.0
24.0,-263.0,-22.0,-8.0,12.0,-4.0,5.0,-1004.0,86.0
23.0,-258.0,-19.0,-6.0,13.0,-3.0,8.0,-1001.0,83.0
22.0,-264.0,-20.0,-4.0,14.0,-6.0,7.0,-1002.0,88.0
20.0,-261.0,-22.0,-4.0,14.0,-6.0,9.0,-1003.0,88.0
20.0,-261.0,-14.0,-5.0,15.0,-4.0,4.0,-998.0,86.0
22.0,-262.0,-22.0,-6.0,15.0,-6.0,8.0,-999.0,90.0
21.0,-262.0,-19.0,-5.0,15.0,-6.0,10.0,-995.0,97.0
14.0,-259.0,-13.0,-6.0,17.0,-6.0,7.0,-1003.0,92.0
21.0,-260.0,-18.0,-6.0,17.0,-6.0,7.0,-996.0,97.0
26.0,-260.0,-17.0,-6.0,16.0,-6.0,8.0,-996.0,99.0
25.0,-262.0,-17.0,-8.0,16.0,-7.0,9.0,-999.0,95.0
23.0,-262.0,-15.0,-10.0,16.0,-6.0,9.0,-997.0,97.0
26.0,-259.0,-18.0,-11.0,18.0,-6.0,11.0,-996.0,99.0
25.0,-257.0,-17.0,-14.0,17.0,-5.0,12.0,-995.0,98.0
24.0,-258.0,-19.0,-15.0,16.0,-7.0,10.0,-999.0,98.0
24.0,-261.0,-14.0,-14.0,15.0,-6.0,11.0,-999.0,102.0
22.0,-260.0,-20.0,-17.0,14.0,-6.0,10.0,-998.0,101.0
23.0,-260.0,-13.0,-16.0,12.0,-5.0,10.0,-995.0,101.0
25.0,-261.0,-17.0,-17.0,12.0,-4.0,14.0,-995.0,98.0
26.0,-261.0,-16.0,-16.0,11.0,-4.0,13.0,-993.0,104.0
22.0,-257.0,-18.0,-17.0,12.0,-4.0,11.0,-995.0,102.0
25.0,-259.0,-16.0,-18.0,11.0,-5.0,8.0,-995.0,98.0
24.0,-258.0,-17.0,-19.0,11.0,-5.0,10.0,-996.0,104.0
23.0,-260.0,-17.0,-19.0,12.0,-6.0,11.0,-996.0,103.0
24.0,-260.0,-16.0,-20.0,12.0,-6.0,8.0,-994.0,103.0
22.0,-260.0,-14.0,-19.0,12.0,-6.0,4.0,-992.0,99.0
23.0,-259.0,-17.0,-18.0,14.0,-6.0,10.0,-995.0,98.0
22.0,-259.0,-18.0,-19.0,13.0,-6.0,11.0,-993.0,98.0
22.0,-261.0,-17.0,-18.0,13.0,-6.0,7.0,-995.0,94.0
24.0,-257.0,-13.0,-17.0,13.0,-6.0,6.0,-995.0,100.0
22.0,-258.0,-12.0,-17.0,14.0,-6.0,9.0,-995.0,100.0
22.0,-261.0,-17.0,-19.0,14.0,-6.0,8.0,-994.0,96.0
19.0,-257.0,-16.0,-19.0,13.0,-6.0,5.0,-992.0,97.0
24.0,-262.0,-16.0,-17.0,12.0,-6.0,8.0,-997.0,102.0
20.0,-260.0,-17.0,-16.0,12.0,-5.0,8.0,-1002.0,104.0
25.0,-259.0,-18.0,-15.0,12.0,-2.0,8.0,-995.0,104.0
23.0,-257.0,-15.0,-13.0,10.0,-2.0,10.0,-993.0,99.0
22.0,-262.0,-12.0,-13.0,11.0,-1.0,10.0,-998.0,100.0
22.0,-258.0,-15.0,-12.0,12.0,-2.0,11.0,-997.0,96.0
25.0,-259.0,-16.0,-10.0,12.0,-1.0,7.0,-1004.0,105.0
22.0,-260.0,-13.0,-9.0,13.0,-1.0,13.0,-996.0,100.0
25.0,-262.0,-16.0,-9.0,15.0,0.0,11.0,-998.0,98.0
25.0,-259.0,-18.0,-9.0,15.0,0.0,17.0,-1001.0,106.0
24.0,-262.0,-14.0,-8.0,17.0,-1.0,9.0,-997.0,98.0
23.0,-259.0,-14.0,-8.0,17.0,-2.0,8.0,-1004.0,104.0
24.0,-261.0,-15.0,-7.0,19.0,-2.0,7.0,-1000.0,101.0
22.0,-258.0,-14.0,-8.0,19.0,-3.0,7.0,-1001.0,101.0
25.0,-262.0,-14.0,-9.0,21.0,-3.0,13.0,-999.0,106.0
22.0,-260.0,-13.0,-10.0,20.0,-4.0,9.0,-996.0,101.0
22.0,-260.0,-11.0,-10.0,20.0,-4.0,12.0,-1000.0,102.0
25.0,-261.0,-11.0,-13.0,20.0,-3.0,8.0,-1000.0,105.0
22.0,-263.0,-18.0,-12.0,19.0,-2.0,4.0,-999.0,104.0
21.0,-260.0,-15.0,-14.0,16.0,-2.0,7.0,-996.0,108.0
18.0,-259.0,-16.0,-12.0,15.0,-2.0,10.0,-992.0,105.0
24.0,-258.0,-15.0,-13.0,14.0,0.0,12.0,-995.0,104.0
24.0,-258.0,-16.0,-12.0,12.0,0.0,12.0,-995.0,106.0
22.0,-259.0,-14.0,-13.0,12.0,1.0,8.0,-994.0,103.0
24.0,-257.0,-15.0,-12.0,12.0,0.0,15.0,-989.0,107.0
21.0,-257.0,-12.0,-14.0,11.0,-1.0,13.0,-992.0,105.0
25.0,-259.0,-13.0,-15.0,10.0,-1.0,9.0,-998.0,101.0
27.0,-264.0,-9.0,-18.0,10.0,-2.0,11.0,-998.0,108.0
22.0,-258.0,-17.0,-18.0,10.0,-3.0,7.0,-992.0,108.0
22.0,-259.0,-13.0,-16.0,9.0,-2.0,6.0,-995.0,106.0
23.0,-257.0,-20.0,-18.0,9.0,-2.0,6.0,-995.0,115.0
22.0,-259.0,-18.0,-20.0,11.0,-2.0,3.0,-997.0,110.0
21.0,-260.0,-15.0,-22.0,11.0,-2.0,3.0,-998.0,106.0
26.0,-261.0,-13.0,-22.0,11.0,-3.0,5.0,-990.0,106.0
24.0,-257.0,-15.0,-21.0,12.0,-2.0,3.0,-995.0,108.0
22.0,-259.0,-13.0,-23.0,13.0,-3.0,6.0,-995.0,107.0
26.0,-260.0,-14.0,-22.0,13.0,-3.0,8.0,-992.0,109.0
23.0,-261.0,-13.0,-22.0,14.0,-3.0,6.0,-996.0,107.0
27.0,-252.0,-16.0,-23.0,15.0,-4.0,8.0,-996.0,105.0
22.0,-257.0,-13.0,-26.0,16.0,-3.0,7.0,-992.0,108.0
19.0,-259.0,-13.0,-26.0,17.0,-2.0,2.0,-991.0,110.0
22.0,-262.0,-13.0,-27.0,18.0,-4.0,6.0,-991.0,103.0
24.0,-260.0,-16.0,-28.0,18.0,-4.0,9.0,-996.0,110.0
24.0,-262.0,-12.0,-29.0,17.0,-3.0,1.0,-992.0,111.0
22.0,-259.0,-10.0,-27.0,17.0,-4.0,5.0,-997.0,108.0
22.0,-259.0,-12.0,-26.0,18.0,-4.0,6.0,-998.0,114.0
19.0,-257.0,-13.0,-27.0,17.0,-3.0,3.0,-1002.0,114.0
22.0,-258.0,-14.0,-27.0,16.0,-4.0,1.0,-999.0,112.0
22.0,-258.0,-13.0,-26.0,16.0,-4.0,1.0,-995.0,113.0
25.0,-258.0,-3.0,-26.0,14.0,-3.0,6.0,-995.0,111.0
23.0,-260.0,-17.0,-26.0,15.0,-3.0,4.0,-993.0,107.0
25.0,-261.0,-18.0,-28.0,16.0,-2.0,5.0,-997.0,109.0
21.0,-261.0,-10.0,-29.0,15.0,-3.0,8.0,-994.0,109.0
24.0,-261.0,-13.0,-31.0,14.0,-2.0,7.0,-1001.0,109.0
19.0,-260.0,-15.0,-31.0,14.0,-3.0,6.0,-1001.0,114.0
20.0,-259.0,-10.0,-30.0,15.0,-3.0,9.0,-996.0,111.0
22.0,-259.0,-10.0,-29.0,15.0,0.0,11.0,-1000.0,110.0
21.0,-257.0,-16.0,-29.0,16.0,-2.0,5.0,-996.0,109.0
23.0,-261.0,-13.0,-30.0,19.0,-1.0,6.0,-998.0,106.0
24.0,-260.0,-12.0,-29.0,19.0,-1.0,8.0,-992.0,108.0
23.0,-261.0,-17.0,-27.0,20.0,0.0,4.0,-991.0,110.0
24.0,-259.0,-18.0,-28.0,21.0,-2.0,5.0,-994.0,113.0
22.0,-258.0,-12.0,-28.0,21.0,-1.0,7.0,-992.0,113.0
21.0,-257.0,-13.0,-29.0,21.0,-1.0,7.0,-992.0,109.0
20.0,-258.0,-9.0,-28.0,20.0,-3.0,9.0,-993.0,112.0
24.0,-258.0,-13.0,-28.0,22.0,-2.0,7.0,-990.0,113.0
24.0,-258.0,-12.0,-29.0,22.0,-3.0,6.0,-997.0,114.0
23.0,-258.0,-15.0,-28.0,22.0,-3.0,8.0,-991.0,113.0
21.0,-259.0,-10.0,-29.0,22.0,-3.0,3.0,-991.0,111.0
24.0,-261.0,-16.0,-31.0,23.0,-4.0,5.0,-992.0,111.0
21.0,-258.0,-10.0,-34.0,23.0,-4.0,3.0,-993.0,104.0
24.0,-258.0,-13.0,-37.0,22.0,-5.0,7.0,-996.0,106.0
22.0,-257.0,-13.0,-41.0,20.0,-7.0,7.0,-998.0,106.0
22.0,-259.0,-15.0,-45.0,20.0,-7.0,0.0,-994.0,111.0
20.0,-257.0,-17.0,-46.0,19.0,-8.0,4.0,-1001.0,111.0
19.0,-259.0,-11.0,-48.0,20.0,-7.0,2.0,-992.0,108.0
19.0,-258.0,-9.0,-48.0,21.0,-6.0,3.0,-993.0,109.0
23.0,-261.0,-13.0,-51.0,19.0,-5.0,6.0,-998.0,108.0
23.0,-260.0,-10.0,-53.0,19.0,-7.0,6.0,-992.0,113.0
23.0,-260.0,-12.0,-55.0,18.0,-7.0,4.0,-998.0,112.0
22.0,-258.0,-11.0,-55.0,17.0,-7.0,8.0,-987.0,110.0
22.0,-258.0,-11.0,-55.0,16.0,-5.0,2.0,-995.0,109.0
21.0,-260.0,-13.0,-56.0,15.0,-5.0,8.0,-993.0,110.0
23.0,-259.0,-14.0,-53.0,13.0,-4.0,0.0,-994.0,111.0
23.0,-260.0,-11.0,-52.0,13.0,-4.0,7.0,-996.0,116.0
21.0,-261.0,-11.0,-49.0,12.0,-5.0,8.0,-996.0,112.0
21.0,-261.0,-13.0,-45.0,9.0,-5.0,2.0,-994.0,113.0
25.0,-261.0,-12.0,-43.0,9.0,-7.0,10.0,-997.0,113.0
21.0,-261.0,-14.0,-40.0,10.0,-7.0,14.0,-999.0,111.0
23.0,-259.0,-16.0,-39.0,10.0,-7.0,8.0,-998.0,106.0
21.0,-259.0,-15.0,-41.0,10.0,-8.0,6.0,-993.0,108.0
24.0,-259.0,-15.0,-43.0,10.0,-9.0,13.0,-993.0,102.0
24.0,-258.0,-12.0,-45.0,11.0,-10.0,12.0,-996.0,107.0
23.0,-259.0,-16.0,-47.0,13.0,-12.0,11.0,-995.0,101.0
23.0,-260.0,-9.0,-48.0,14.0,-14.0,9.0,-997.0,103.0
26.0,-260.0,-10.0,-51.0,15.0,-15.0,11.0,-992.0,108.0
22.0,-261.0,-16.0,-54.0,16.0,-16.0,9.0,-997.0,107.0
22.0,-263.0,-16.0,-55.0,17.0,-18.0,7.0,-992.0,114.0
20.0,-261.0,-10.0,-57.0,19.0,-19.0,8.0,-994.0,110.0
23.0,-260.0,-13.0,-60.0,18.0,-19.0,11.0,-994.0,110.0
23.0,-261.0,-11.0,-58.0,19.0,-19.0,12.0,-991.0,109.0
25.0,-258.0,-13.0,-60.0,19.0,-19.0,9.0,-995.0,112.0
19.0,-257.0,-15.0,-61.0,21.0,-18.0,13.0,-991.0,113.0
20.0,-257.0,-13.0,-64.0,24.0,-18.0,13.0,-989.0,109.0
23.0,-255.0,-13.0,-67.0,24.0,-17.0,6.0,-987.0,117.0
25.0,-256.0,-13.0,-71.0,25.0,-16.0,13.0,-985.0,118.0
24.0,-255.0,-12.0,-75.0,26.0,-14.0,13.0,-983.0,116.0
24.0,-254.0,-10.0,-82.0,24.0,-14.0,12.0,-983.0,114.0
24.0,-256.0,-7.0,-90.0,23.0,-12.0,12.0,-983.0,118.0
25.0,-256.0,-11.0,-99.0,22.0,-12.0,13.0,-986.0,120.0
23.0,-256.0,-11.0,-109.0,20.0,-12.0,16.0,-979.0,120.0
23.0,-256.0,-9.0,-118.0,19.0,-13.0,16.0,-982.0,118.0
25.0,-254.0,-13.0,-123.0,17.0,-13.0,14.0,-982.0,118.0
26.0,-257.0,-11.0,-126.0,16.0,-14.0,16.0,-986.0,119.0
26.0,-257.0,-11.0,-133.0,15.0,-17.0,14.0,-983.0,118.0
23.0,-256.0,-15.0,-141.0,16.0,-19.0,11.0,-977.0,115.0
24.0,-257.0,-13.0,-150.0,16.0,-23.0,11.0,-979.0,114.0
23.0,-253.0,-13.0,-161.0,18.0,-26.0,10.0,-981.0,110.0
25.0,-255.0,-15.0,-175.0,19.0,-29.0,15.0,-977.0,111.0
23.0,-256.0,-11.0,-188.0,22.0,-31.0,13.0,-968.0,112.0
25.0,-256.0,-12.0,-201.0,24.0,-35.0,11.0,-969.0,114.0
25.0,-254.0,-19.0,-213.0,28.0,-37.0,12.0,-971.0,117.0
23.0,-255.0,-11.0,-223.0,31.0,-38.0,11.0,-975.0,115.0
24.0,-255.0,-8.0,-232.0,33.0,-39.0,8.0,-977.0,111.0
23.0,-256.0,-12.0,-237.0,36.0,-39.0,12.0,-978.0,105.0
23.0,-255.0,-15.0,-239.0,37.0,-37.0,14.0,-979.0,106.0
20.0,-257.0,-17.0,-239.0,41.0,-35.0,7.0,-978.0,104.0
22.0,-256.0,-13.0,-237.0,43.0,-32.0,10.0,-975.0,105.0
23.0,-256.0,-15.0,-235.0,45.0,-29.0,6.0,-981.0,106.0
24.0,-256.0,-15.0,-233.0,46.0,-26.0,12.0,-976.0,107.0
23.0,-256.0,-15.0,-230.0,46.0,-23.0,12.0,-980.0,107.0
25.0,-258.0,-11.0,-228.0,45.0,-20.0,10.0,-978.0,104.0
22.0,-254.0,-11.0,-228.0,44.0,-19.0,13.0,-973.0,107.0
24.0,-256.0,-13.0,-227.0,43.0,-17.0,13.0,-978.0,109.0
24.0,-256.0,-13.0,-227.0,42.0,-19.0,19.0,-976.0,107.0
26.0,-255.0,-17.0,-228.0,40.0,-18.0,13.0,-971.0,104.0
25.0,-256.0,-15.0,-228.0,39.0,-18.0,16.0,-976.0,110.0
25.0,-256.0,-14.0,-229.0,35.0,-19.0,13.0,-979.0,107.0
22.0,-256.0,-17.0,-229.0,32.0,-19.0,6.0,-983.0,103.0
23.0,-257.0,-12.0,-227.0,27.0,-20.0,6.0,-983.0,100.0
21.0,-258.0,-15.0,-224.0,24.0,-21.0,8.0,-989.0,106.0
27.0,-257.0,-15.0,-219.0,20.0,-20.0,10.0,-985.0,105.0
22.0,-257.0,-16.0,-215.0,18.0,-20.0,6.0,-985.0,100.0
25.0,-262.0,-16.0,-213.0,16.0,-19.0,10.0,-983.0,100.0
23.0,-256.0,-15.0,-211.0,14.0,-16.0,7.0,-990.0,99.0
22.0,-254.0,-15.0,-208.0,12.0,-15.0,4.0,-981.0,97.0
21.0,-255.0,-18.0,-208.0,10.0,-11.0,7.0,-977.0,96.0
21.0,-256.0,-16.0,-213.0,7.0,-8.0,6.0,-972.0,97.0
18.0,-253.0,-14.0,-219.0,5.0,-6.0,2.0,-968.0,97.0
23.0,-255.0,-17.0,-228.0,3.0,-1.0,1.0,-962.0,98.0
22.0,-254.0,-18.0,-238.0,4.0,-2.0,2.0,-963.0,93.0
21.0,-254.0,-13.0,-252.0,4.0,2.0,-1.0,-960.0,91.0
19.0,-251.0,-15.0,-265.0,5.0,4.0,-1.0,-962.0,96.0
19.0,-252.0,-21.0,-276.0,7.0,6.0,2.0,-961.0,95.0
16.0,-251.0,-15.0,-285.0,7.0,8.0,-1.0,-960.0,97.0
18.0,-248.0,-18.0,-296.0,8.0,10.0,-6.0,-952.0,100.0
20.0,-248.0,-19.0,-308.0,10.0,11.0,-5.0,-953.0,100.0
16.0,-250.0,-18.0,-323.0,10.0,13.0,-1.0,-949.0,93.0
19.0,-251.0,-18.0,-336.0,11.0,16.0,-6.0,-954.0,97.0
19.0,-250.0,-16.0,-349.0,12.0,18.0,-6.0,-956.0,92.0
20.0,-248.0,-19.0,-361.0,14.0,19.0,-2.0,-958.0,91.0
22.0,-254.0,-22.0,-371.0,16.0,20.0,-2.0,-958.0,89.0
19.0,-250.0,-21.0,-385.0,18.0,21.0,4.0,-962.0,88.0
22.0,-251.0,-19.0,-395.0,19.0,23.0,4.0,-963.0,90.0
22.0,-253.0,-17.0,-405.0,23.0,22.0,6.0,-966.0,85.0
25.0,-253.0,-17.0,-414.0,25.0,20.0,5.0,-964.0,84.0
20.0,-254.0,-15.0,-423.0,28.0,19.0,9.0,-962.0,88.0
24.0,-253.0,-21.0,-432.0,31.0,18.0,8.0,-966.0,85.0
22.0,-253.0,-20.0,-442.0,35.0,15.0,8.0,-967.0,80.0
23.0,-269.0,-32.0,-452.0,38.0,12.0,11.0,-964.0,75.0
24.0,-254.0,-25.0,-464.0,43.0,10.0,10.0,-964.0,72.0
22.0,-255.0,-25.0,-473.0,45.0,8.0,11.0,-970.0,65.0
27.0,-255.0,-26.0,-480.0,47.0,8.0,12.0,-968.0,64.0
25.0,-255.0,-26.0,-488.0,46.0,8.0,14.0,-970.0,64.0
23.0,-255.0,-26.0,-493.0,45.0,7.0,13.0,-977.0,59.0
23.0,-256.0,-32.0,-498.0,42.0,6.0,17.0,-972.0,55.0
26.0,-255.0,-29.0,-504.0,38.0,5.0,12.0,-977.0,58.0
22.0,-252.0,-34.0,-511.0,37.0,5.0,2.0,-966.0,54.0
22.0,-254.0,-30.0,-520.0,35.0,6.0,4.0,-970.0,47.0
20.0,-254.0,-33.0,-529.0,34.0,8.0,5.0,-968.0,47.0
22.0,-264.0,-22.0,-539.0,31.0,10.0,4.0,-971.0,45.0
24.0,-254.0,-30.0,-546.0,28.0,18.0,7.0,-970.0,44.0
19.0,-254.0,-35.0,-550.0,24.0,24.0,9.0,-977.0,43.0
23.0,-256.0,-30.0,-551.0,21.0,30.0,14.0,-980.0,40.0
24.0,-257.0,-35.0,-551.0,17.0,36.0,11.0,-982.0,38.0
28.0,-256.0,-33.0,-550.0,13.0,42.0,14.0,-976.0,38.0
29.0,-256.0,-34.0,-547.0,11.0,48.0,13.0,-972.0,36.0
25.0,-256.0,-35.0,-543.0,12.0,51.0,16.0,-972.0,35.0
25.0,-256.0,-35.0,-540.0,13.0,53.0,15.0,-970.0,34.0
25.0,-254.0,-33.0,-539.0,16.0,53.0,18.0,-963.0,32.0
26.0,-250.0,-36.0,-541.0,18.0,56.0,16.0,-960.0,33.0
26.0,-246.0,-36.0,-546.0,20.0,58.0,15.0,-951.0,33.0
23.0,-250.0,-33.0,-557.0,25.0,60.0,15.0,-949.0,26.0
25.0,-248.0,-39.0,-575.0,28.0,59.0,18.0,-945.0,21.0
28.0,-246.0,-35.0,-601.0,32.0,56.0,14.0,-946.0,19.0
26.0,-247.0,-40.0,-629.0,37.0,56.0,16.0,-945.0,16.0
24.0,-246.0,-41.0,-657.0,43.0,58.0,15.0,-940.0,8.0
26.0,-247.0,-43.0,-683.0,49.0,59.0,18.0,-946.0,6.0
28.0,-249.0,-41.0,-703.0,55.0,58.0,16.0,-950.0,9.0
29.0,-250.0,-41.0,-719.0,61.0,57.0,25.0,-951.0,7.0
27.0,-249.0,-40.0,-738.0,66.0,55.0,26.0,-955.0,1.0
29.0,-250.0,-40.0,-757.0,73.0,53.0,34.0,-954.0,3.0
30.0,-252.0,-43.0,-779.0,81.0,49.0,28.0,-958.0,0.0
29.0,-253.0,-43.0,-802.0,91.0,43.0,36.0,-964.0,5.0
28.0,-252.0,-47.0,-823.0,101.0,38.0,29.0,-961.0,1.0
28.0,-253.0,-45.0,-847.0,109.0,31.0,31.0,-964.0,-4.0
25.0,-255.0,-47.0,-876.0,117.0,27.0,8.0,-974.0,-17.0
29.0,-255.0,-48.0,-903.0,137.0,21.0,36.0,-968.0,-1.0
29.0,-254.0,-47.0,-928.0,130.0,23.0,35.0,-969.0,-1.0
30.0,-254.0,-46.0,-957.0,123.0,20.0,35.0,-966.0,-2.0
27.0,-255.0,-44.0,-992.0,121.0,17.0,35.0,-968.0,-7.0
25.0,-255.0,-51.0,-1029.0,119.0,15.0,26.0,-975.0,-16.0
26.0,-256.0,-53.0,-1064.0,119.0,19.0,26.0,-993.0,-31.0
26.0,-258.0,-51.0,-1102.0,118.0,22.0,25.0,-995.0,-51.0
25.0,-261.0,-61.0,-1137.0,114.0,27.0,11.0,-1003.0,-69.0
22.0,-261.0,-65.0,-1164.0,106.0,34.0,21.0,-1002.0,-89.0
24.0,-264.0,-70.0,-1186.0,95.0,33.0,14.0,-1003.0,-98.0
23.0,-260.0,-78.0,-1203.0,89.0,32.0,8.0,-999.0,-126.0
22.0,-258.0,-78.0,-1224.0,83.0,31.0,5.0,-991.0,-152.0
20.0,-259.0,-90.0,-1248.0,81.0,25.0,4.0,-987.0,-177.0
19.0,-255.0,-92.0,-1275.0,87.0,21.0,0.0,-988.0,-198.0
22.0,-258.0,-99.0,-1300.0,96.0,17.0,1.0,-987.0,-221.0
21.0,-259.0,-103.0,-1325.0,107.0,13.0,7.0,-987.0,-234.0
18.0,-256.0,-100.0,-1350.0,117.0,10.0,-1.0,-977.0,-246.0
18.0,-254.0,-106.0,-1382.0,126.0,9.0,-1.0,-979.0,-254.0
21.0,-254.0,-111.0,-1422.0,137.0,10.0,-10.0,-972.0,-260.0
15.0,-252.0,-108.0,-1477.0,150.0,10.0,-13.0,-967.0,-264.0
16.0,-252.0,-109.0,-1543.0,165.0,13.0,-26.0,-966.0,-274.0
8.0,-253.0,-113.0,-1618.0,179.0,18.0,-32.0,-971.0,-279.0
10.0,-254.0,-115.0,-1694.0,191.0,26.0,-34.0,-976.0,-288.0
14.0,-256.0,-119.0,-1766.0,200.0,40.0,-22.0,-984.0,-296.0
13.0,-256.0,-119.0,-1827.0,205.0,55.0,-22.0,-997.0,-305.0
18.0,-261.0,-120.0,-1872.0,204.0,69.0,-16.0,-1003.0,-310.0
16.0,-264.0,-121.0,-1901.0,197.0,81.0,-22.0,-1015.0,-313.0
14.0,-267.0,-121.0,-1914.0,184.0,90.0,-7.0,-1028.0,-314.0
6.0,-266.0,-122.0,-1917.0,164.0,99.0,-16.0,-1034.0,-325.0
14.0,-273.0,-127.0,-1914.0,139.0,110.0,-12.0,-1032.0,-346.0
16.0,-272.0,-132.0,-1908.0,117.0,120.0,-14.0,-1040.0,-370.0
19.0,-275.0,-136.0,-1898.0,90.0,130.0,-8.0,-1032.0,-378.0
16.0,-273.0,-146.0,-1889.0,65.0,143.0,-2.0,-1038.0,-404.0
17.0,-276.0,-147.0,-1883.0,36.0,156.0,-11.0,-1049.0,-428.0
15.0,-275.0,-155.0,-1879.0,7.0,166.0,-9.0,-1058.0,-457.0
17.0,-280.0,-160.0,-1873.0,-28.0,173.0,-6.0,-1068.0,-476.0
14.0,-282.0,-169.0,-1863.0,-55.0,177.0,-13.0,-1078.0,-505.0
13.0,-289.0,-174.0,-1853.0,-79.0,179.0,-18.0,-1100.0,-532.0
10.0,-294.0,-180.0,-1838.0,-98.0,179.0,-26.0,-1115.0,-561.0
16.0,-300.0,-185.0,-1813.0,-118.0,175.0,-32.0,-1138.0,-579.0
9.0,-306.0,-187.0,-1775.0,-129.0,167.0,-41.0,-1156.0,-595.0
6.0,-312.0,-193.0,-1724.0,-138.0,156.0,-42.0,-1174.0,-616.0
7.0,-317.0,-195.0,-1658.0,-142.0,143.0,-47.0,-1184.0,-639.0
8.0,-318.0,-206.0,-1582.0,-143.0,129.0,-50.0,-1193.0,-658.0
9.0,-323.0,-203.0,-1496.0,-141.0,115.0,-51.0,-1206.0,-674.0
3.0,-320.0,-213.0,-1409.0,-134.0,97.0,-49.0,-1216.0,-696.0
8.0,-326.0,-218.0,-1321.0,-122.0,81.0,-48.0,-1227.0,-709.0
4.0,-324.0,-220.0,-1234.0,-110.0,66.0,-45.0,-1232.0,-722.0
6.0,-323.0,-224.0,-1152.0,-94.0,54.0,-51.0,-1228.0,-734.0
2.0,-323.0,-228.0,-1075.0,-80.0,45.0,-45.0,-1221.0,-738.0
4.0,-322.0,-221.0,-1000.0,-70.0,40.0,-46.0,-1217.0,-729.0
9.0,-320.0,-222.0,-924.0,-61.0,34.0,-37.0,-1205.0,-720.0
9.0,-319.0,-216.0,-843.0,-54.0,30.0,-41.0,-1193.0,-705.0
13.0,-316.0,-213.0,-756.0,-46.0,23.0,-36.0,-1183.0,-689.0
14.0,-310.0,-205.0,-664.0,-41.0,14.0,-27.0,-1161.0,-675.0
16.0,-302.0,-201.0,-571.0,-30.0,4.0,-19.0,-1134.0,-659.0
14.0,-293.0,-202.0,-473.0,-16.0,-6.0,-23.0,-1106.0,-651.0
17.0,-284.0,-199.0,-384.0,-2.0,-10.0,-12.0,-1071.0,-644.0
19.0,-272.0,-199.0,-305.0,10.0,-14.0,-20.0,-1030.0,-642.0
14.0,-261.0,-198.0,-245.0,21.0,-18.0,-25.0,-994.0,-644.0
15.0,-255.0,-204.0,-202.0,25.0,-16.0,-20.0,-964.0,-647.0
14.0,-248.0,-201.0,-180.0,25.0,-17.0,-15.0,-941.0,-650.0
13.0,-240.0,-202.0,-179.0,19.0,-23.0,-26.0,-919.0,-649.0
12.0,-232.0,-198.0,-189.0,9.0,-22.0,-31.0,-886.0,-649.0
11.0,-228.0,-207.0,-213.0,-6.0,-22.0,-35.0,-863.0,-649.0
11.0,-223.0,-200.0,-244.0,-22.0,-21.0,-32.0,-848.0,-646.0
13.0,-220.0,-202.0,-278.0,-39.0,-16.0,-31.0,-838.0,-644.0
10.0,-219.0,-206.0,-318.0,-52.0,-16.0,-30.0,-828.0,-650.0
10.0,-219.0,-205.0,-354.0,-65.0,-13.0,-32.0,-825.0,-646.0
15.0,-216.0,-197.0,-389.0,-75.0,-8.0,-25.0,-820.0,-643.0
18.0,-225.0,-192.0,-422.0,-81.0,-7.0,-22.0,-819.0,-639.0
15.0,-217.0,-198.0,-452.0,-85.0,-3.0,-16.0,-836.0,-637.0
11.0,-214.0,-199.0,-480.0,-92.0,2.0,-26.0,-828.0,-634.0
16.0,-221.0,-199.0,-503.0,-97.0,2.0,-20.0,-829.0,-637.0
18.0,-224.0,-199.0,-530.0,-99.0,2.0,-14.0,-832.0,-647.0
12.0,-222.0,-201.0,-549.0,-103.0,5.0,-17.0,-840.0,-649.0
15.0,-226.0,-203.0,-567.0,-107.0,2.0,-24.0,-859.0,-657.0
11.0,-227.0,-205.0,-580.0,-107.0,-3.0,-23.0,-851.0,-670.0
12.0,-229.0,-208.0,-588.0,-107.0,-4.0,-34.0,-860.0,-675.0
12.0,-232.0,-211.0,-591.0,-108.0,0.0,-34.0,-865.0,-683.0
9.0,-230.0,-212.0,-592.0,-112.0,6.0,-43.0,-860.0,-688.0
9.0,-230.0,-212.0,-595.0,-114.0,11.0,-31.0,-871.0,-693.0
11.0,-231.0,-215.0,-597.0,-118.0,8.0,-45.0,-871.0,-693.0
9.0,-233.0,-214.0,-601.0,-119.0,4.0,-37.0,-875.0,-699.0
8.0,-233.0,-209.0,-601.0,-123.0,5.0,-47.0,-873.0,-693.0
6.0,-231.0,-213.0,-596.0,-130.0,6.0,-55.0,-876.0,-689.0
4.0,-234.0,-209.0,-592.0,-138.0,10.0,-55.0,-873.0,-684.0
8.0,-232.0,-208.0,-579.0,-150.0,13.0,-43.0,-869.0,-680.0
7.0,-230.0,-207.0,-566.0,-159.0,11.0,-48.0,-872.0,-677.0
7.0,-233.0,-205.0,-549.0,-163.0,4.0,-46.0,-867.0,-668.0
8.0,-228.0,-203.0,-527.0,-162.0,-3.0,-47.0,-854.0,-661.0
8.0,-218.0,-208.0,-502.0,-157.0,-2.0,-44.0,-844.0,-651.0
8.0,-220.0,-201.0,-478.0,-148.0,-6.0,-39.0,-832.0,-649.0
4.0,-216.0,-202.0,-457.0,-139.0,-6.0,-52.0,-808.0,-643.0
10.0,-214.0,-197.0,-444.0,-134.0,2.0,-44.0,-803.0,-637.0
10.0,-210.0,-200.0,-440.0,-131.0,3.0,-39.0,-786.0,-638.0
10.0,-204.0,-197.0,-443.0,-126.0,1.0,-35.0,-782.0,-632.0
5.0,-203.0,-200.0,-455.0,-122.0,0.0,-35.0,-767.0,-631.0
10.0,-199.0,-193.0,-469.0,-119.0,1.0,-35.0,-761.0,-622.0
10.0,-200.0,-194.0,-483.0,-120.0,5.0,-30.0,-759.0,-615.0
14.0,-200.0,-191.0,-500.0,-120.0,3.0,-30.0,-757.0,-608.0
13.0,-197.0,-193.0,-516.0,-118.0,9.0,-24.0,-755.0,-605.0
8.0,-207.0,-182.0,-532.0,-114.0,14.0,-23.0,-758.0,-603.0
17.0,-203.0,-194.0,-544.0,-109.0,14.0,-16.0,-758.0,-606.0
16.0,-201.0,-193.0,-552.0,-106.0,14.0,-25.0,-763.0,-614.0
15.0,-202.0,-192.0,-558.0,-99.0,19.0,-22.0,-760.0,-606.0
11.0,-205.0,-192.0,-560.0,-94.0,29.0,-18.0,-768.0,-604.0
17.0,-205.0,-195.0,-563.0,-94.0,37.0,-18.0,-769.0,-608.0
16.0,-207.0,-190.0,-564.0,-93.0,39.0,-26.0,-771.0,-609.0
11.0,-204.0,-194.0,-566.0,-90.0,39.0,-33.0,-780.0,-610.0
12.0,-210.0,-195.0,-566.0,-89.0,43.0,-31.0,-782.0,-616.0
9.0,-206.0,-195.0,-563.0,-90.0,45.0,-33.0,-786.0,-622.0
7.0,-209.0,-197.0,-558.0,-86.0,53.0,-38.0,-793.0,-627.0
6.0,-212.0,-199.0,-552.0,-87.0,54.0,-47.0,-795.0,-645.0
4.0,-213.0,-198.0,-542.0,-92.0,50.0,-58.0,-809.0,-655.0
5.0,-216.0,-208.0,-532.0,-93.0,56.0,-61.0,-811.0,-657.0
3.0,-218.0,-204.0,-519.0,-95.0,59.0,-64.0,-816.0,-671.0
1.0,-217.0,-206.0,-500.0,-96.0,56.0,-68.0,-819.0,-667.0
0.0,-217.0,-206.0,-478.0,-101.0,61.0,-72.0,-818.0,-668.0
0.0,-219.0,-206.0,-455.0,-109.0,64.0,-77.0,-820.0,-663.0
1.0,-217.0,-205.0,-435.0,-114.0,68.0,-74.0,-810.0,-670.0
4.0,-215.0,-207.0,-413.0,-115.0,71.0,-73.0,-806.0,-664.0
0.0,-213.0,-207.0,-389.0,-118.0,73.0,-75.0,-802.0,-663.0
1.0,-214.0,-202.0,-370.0,-118.0,76.0,-72.0,-792.0,-665.0
4.0,-209.0,-206.0,-352.0,-115.0,76.0,-63.0,-801.0,-668.0
1.0,-211.0,-203.0,-336.0,-111.0,69.0,-70.0,-793.0,-662.0
0.0,-208.0,-206.0,-319.0,-105.0,69.0,-77.0,-779.0,-659.0
2.0,-208.0,-208.0,-302.0,-101.0,72.0,-71.0,-774.0,-657.0
0.0,-207.0,-203.0,-287.0,-99.0,72.0,-67.0,-786.0,-657.0
1.0,-208.0,-197.0,-269.0,-94.0,72.0,-69.0,-772.0,-643.0
0.0,-206.0,-199.0,-249.0,-92.0,75.0,-68.0,-771.0,-639.0
-1.0,-201.0,-200.0,-223.0,-87.0,77.0,-67.0,-760.0,-637.0
3.0,-201.0,-201.0,-195.0,-83.0,81.0,-69.0,-767.0,-637.0
4.0,-202.0,-196.0,-165.0,-78.0,80.0,-55.0,-761.0,-640.0
2.0,-200.0,-199.0,-138.0,-72.0,71.0,-64.0,-756.0,-641.0
1.0,-198.0,-201.0,-111.0,-68.0,67.0,-68.0,-752.0,-631.0
2.0,-199.0,-201.0,-86.0,-66.0,62.0,-64.0,-747.0,-637.0
2.0,-196.0,-200.0,-63.0,-65.0,55.0,-74.0,-738.0,-636.0
-2.0,-192.0,-199.0,-40.0,-68.0,51.0,-76.0,-728.0,-635.0
-2.0,-194.0,-202.0,-15.0,-70.0,48.0,-76.0,-724.0,-649.0
-2.0,-193.0,-199.0,11.0,-72.0,41.0,-87.0,-726.0,-641.0
0.0,-192.0,-203.0,36.0,-75.0,32.0,-92.0,-723.0,-650.0
-5.0,-192.0,-200.0,56.0,-79.0,24.0,-95.0,-727.0,-656.0
-6.0,-194.0,-204.0,71.0,-84.0,21.0,-98.0,-726.0,-651.0
-5.0,-193.0,-198.0,86.0,-88.0,15.0,-96.0,-724.0,-644.0
-1.0,-193.0,-204.0,100.0,-89.0,9.0,-102.0,-723.0,-649.0
-7.0,-192.0,-201.0,116.0,-89.0,2.0,-99.0,-721.0,-647.0
-6.0,-193.0,-196.0,131.0,-90.0,-4.0,-95.0,-718.0,-643.0
-1.0,-193.0,-199.0,147.0,-93.0,-5.0,-92.0,-723.0,-642.0
-6.0,-190.0,-198.0,165.0,-95.0,-8.0,-102.0,-722.0,-633.0
-3.0,-193.0,-195.0,183.0,-98.0,-10.0,-92.0,-718.0,-631.0
-2.0,-192.0,-195.0,207.0,-102.0,-13.0,-101.0,-712.0,-621.0
-2.0,-190.0,-195.0,231.0,-104.0,-13.0,-99.0,-707.0,-621.0
-1.0,-188.0,-198.0,258.0,-107.0,-14.0,-95.0,-703.0,-623.0
-4.0,-187.0,-193.0,291.0,-106.0,-18.0,-94.0,-696.0,-618.0
0.0,-188.0,-196.0,323.0,-105.0,-21.0,-93.0,-683.0,-620.0
-2.0,-185.0,-196.0,351.0,-103.0,-25.0,-93.0,-682.0,-615.0
-4.0,-181.0,-193.0,374.0,-104.0,-27.0,-94.0,-676.0,-608.0
-1.0,-177.0,-193.0,392.0,-103.0,-28.0,-90.0,-660.0,-617.0
-3.0,-176.0,-192.0,408.0,-100.0,-29.0,-91.0,-654.0,-620.0
-1.0,-177.0,-197.0,422.0,-99.0,-30.0,-94.0,-646.0,-618.0
0.0,-174.0,-193.0,434.0,-96.0,-33.0,-96.0,-645.0,-618.0
-7.0,-169.0,-193.0,443.0,-93.0,-34.0,-102.0,-640.0,-616.0
-2.0,-170.0,-194.0,447.0,-91.0,-29.0,-93.0,-639.0,-614.0
0.0,-170.0,-193.0,449.0,-90.0,-31.0,-90.0,-636.0,-605.0
-1.0,-170.0,-196.0,448.0,-85.0,-30.0,-86.0,-636.0,-608.0
0.0,-168.0,-193.0,443.0,-78.0,-28.0,-77.0,-640.0,-608.0
2.0,-172.0,-192.0,440.0,-67.0,-28.0,-64.0,-643.0,-607.0
5.0,-176.0,-192.0,440.0,-57.0,-29.0,-59.0,-644.0,-610.0
4.0,-174.0,-196.0,442.0,-47.0,-30.0,-64.0,-647.0,-615.0
4.0,-176.0,-192.0,445.0,-37.0,-33.0,-59.0,-650.0,-613.0
3.0,-172.0,-193.0,448.0,-26.0,-38.0,-55.0,-651.0,-609.0
4.0,-176.0,-195.0,454.0,-19.0,-41.0,-58.0,-646.0,-616.0
4.0,-174.0,-190.0,460.0,-12.0,-44.0,-55.0,-650.0,-614.0
3.0,-174.0,-191.0,468.0,-8.0,-48.0,-54.0,-646.0,-612.0
6.0,-172.0,-193.0,478.0,-3.0,-54.0,-58.0,-639.0,-605.0
6.0,-169.0,-191.0,489.0,1.0,-58.0,-53.0,-638.0,-611.0
3.0,-168.0,-192.0,502.0,5.0,-62.0,-61.0,-631.0,-614.0
2.0,-169.0,-193.0,514.0,12.0,-64.0,-58.0,-635.0,-614.0
4.0,-171.0,-201.0,522.0,22.0,-68.0,-66.0,-634.0,-615.0
1.0,-168.0,-192.0,526.0,31.0,-72.0,-65.0,-629.0,-617.0
0.0,-169.0,-194.0,528.0,41.0,-75.0,-61.0,-631.0,-616.0
0.0,-168.0,-198.0,524.0,48.0,-80.0,-66.0,-633.0,-620.0
-2.0,-169.0,-197.0,518.0,53.0,-81.0,-80.0,-640.0,-622.0
-1.0,-174.0,-193.0,508.0,54.0,-84.0,-75.0,-644.0,-616.0
0.0,-176.0,-192.0,499.0,51.0,-87.0,-74.0,-648.0,-612.0
1.0,-176.0,-193.0,490.0,49.0,-89.0,-75.0,-657.0,-613.0
-1.0,-178.0,-192.0,484.0,45.0,-92.0,-84.0,-662.0,-605.0
1.0,-182.0,-187.0,480.0,40.0,-93.0,-87.0,-663.0,-602.0
0.0,-183.0,-190.0,483.0,39.0,-94.0,-94.0,-672.0,-601.0
-2.0,-182.0,-190.0,491.0,34.0,-93.0,-97.0,-673.0,-601.0
-7.0,-179.0,-187.0,495.0,31.0,-93.0,-96.0,-677.0,-599.0
-5.0,-182.0,-188.0,501.0,27.0,-93.0,-102.0,-673.0,-597.0
-8.0,-181.0,-187.0,504.0,21.0,-92.0,-105.0,-679.0,-591.0
-9.0,-181.0,-187.0,502.0,14.0,-92.0,-107.0,-678.0,-595.0
-7.0,-183.0,-190.0,496.0,7.0,-88.0,-110.0,-687.0,-595.0
-16.0,-182.0,-190.0,488.0,0.0,-86.0,-110.0,-689.0,-586.0
-6.0,-188.0,-190.0,478.0,-5.0,-81.0,-115.0,-686.0,-583.0
-9.0,-186.0,-183.0,469.0,-10.0,-78.0,-121.0,-694.0,-589.0
-10.0,-186.0,-186.0,464.0,-14.0,-73.0,-121.0,-706.0,-586.0
-9.0,-187.0,-186.0,458.0,-16.0,-69.0,-122.0,-706.0,-584.0
-7.0,-191.0,-173.0,453.0,-18.0,-65.0,-117.0,-712.0,-578.0
-8.0,-190.0,-182.0,450.0,-19.0,-59.0,-112.0,-716.0,-579.0
-9.0,-193.0,-187.0,447.0,-18.0,-57.0,-113.0,-718.0,-570.0
-9.0,-191.0,-184.0,447.0,-15.0,-55.0,-106.0,-724.0,-567.0
-2.0,-193.0,-178.0,446.0,-12.0,-51.0,-103.0,-725.0,-568.0
-5.0,-192.0,-182.0,446.0,-10.0,-49.0,-103.0,-728.0,-559.0
-2.0,-193.0,-180.0,447.0,-6.0,-47.0,-96.0,-735.0,-553.0
-2.0,-195.0,-177.0,448.0,0.0,-48.0,-96.0,-736.0,-554.0
-5.0,-196.0,-177.0,451.0,1.0,-46.0,-98.0,-735.0,-552.0
-3.0,-200.0,-179.0,453.0,0.0,-44.0,-99.0,-743.0,-555.0
-2.0,-197.0,-179.0,455.0,3.0,-44.0,-95.0,-751.0,-549.0
-1.0,-202.0,-176.0,454.0,4.0,-44.0,-96.0,-750.0,-553.0
-4.0,-201.0,-179.0,449.0,4.0,-43.0,-97.0,-757.0,-547.0
-4.0,-201.0,-176.0,447.0,-1.0,-44.0,-100.0,-758.0,-542.0
-1.0,-201.0,-178.0,446.0,-5.0,-45.0,-91.0,-768.0,-543.0
-1.0,-202.0,-178.0,447.0,-7.0,-45.0,-93.0,-768.0,-538.0
-3.0,-206.0,-177.0,450.0,-7.0,-46.0,-87.0,-764.0,-524.0
0.0,-202.0,-172.0,459.0,-6.0,-48.0,-81.0,-765.0,-532.0
1.0,-204.0,-170.0,467.0,-2.0,-50.0,-74.0,-764.0,-524.0
1.0,-201.0,-174.0,476.0,4.0,-52.0,-73.0,-761.0,-519.0
4.0,-201.0,-170.0,479.0,11.0,-50.0,-68.0,-760.0,-517.0
2.0,-201.0,-165.0,483.0,18.0,-48.0,-63.0,-762.0,-512.0
11.0,-200.0,-165.0,489.0,27.0,-45.0,-61.0,-756.0,-501.0
6.0,-200.0,-169.0,491.0,31.0,-44.0,-53.0,-751.0,-500.0
5.0,-194.0,-170.0,488.0,37.0,-42.0,-49.0,-741.0,-506.0
8.0,-194.0,-175.0,479.0,45.0,-40.0,-51.0,-735.0,-512.0
5.0,-193.0,-175.0,462.0,51.0,-40.0,-47.0,-734.0,-524.0
9.0,-193.0,-169.0,437.0,57.0,-39.0,-55.0,-726.0,-534.0
6.0,-193.0,-176.0,411.0,59.0,-38.0,-54.0,-733.0,-544.0
3.0,-194.0,-179.0,378.0,59.0,-35.0,-56.0,-735.0,-551.0
0.0,-194.0,-179.0,340.0,58.0,-32.0,-61.0,-747.0,-562.0
1.0,-201.0,-171.0,304.0,58.0,-29.0,-67.0,-756.0,-566.0
1.0,-199.0,-183.0,270.0,60.0,-25.0,-68.0,-767.0,-568.0
1.0,-206.0,-190.0,239.0,58.0,-19.0,-70.0,-774.0,-582.0
0.0,-210.0,-188.0,215.0,60.0,-16.0,-78.0,-790.0,-589.0
-1.0,-210.0,-186.0,192.0,60.0,-11.0,-85.0,-804.0,-596.0
-4.0,-220.0,-194.0,170.0,59.0,-6.0,-90.0,-818.0,-594.0
0.0,-221.0,-189.0,151.0,58.0,-2.0,-89.0,-835.0,-592.0
-1.0,-225.0,-191.0,132.0,57.0,-2.0,-90.0,-847.0,-596.0
0.0,-229.0,-191.0,116.0,55.0,0.0,-91.0,-857.0,-592.0
-1.0,-233.0,-189.0,107.0,56.0,1.0,-90.0,-874.0,-592.0
-1.0,-235.0,-185.0,105.0,60.0,1.0,-85.0,-885.0,-574.0
10.0,-231.0,-193.0,111.0,65.0,-1.0,-90.0,-895.0,-568.0
-1.0,-237.0,-178.0,127.0,72.0,-5.0,-82.0,-898.0,-560.0
1.0,-240.0,-176.0,148.0,79.0,-7.0,-80.0,-887.0,-544.0
-1.0,-234.0,-174.0,174.0,86.0,-11.0,-84.0,-886.0,-535.0
1.0,-232.0,-170.0,203.0,87.0,-18.0,-91.0,-878.0,-518.0
0.0,-230.0,-167.0,232.0,87.0,-23.0,-78.0,-864.0,-499.0
0.0,-227.0,-166.0,259.0,87.0,-25.0,-75.0,-850.0,-494.0
1.0,-227.0,-161.0,276.0,84.0,-30.0,-70.0,-834.0,-484.0
1.0,-216.0,-159.0,283.0,80.0,-33.0,-72.0,-826.0,-481.0
2.0,-214.0,-159.0,278.0,76.0,-35.0,-66.0,-818.0,-472.0
2.0,-215.0,-159.0,263.0,74.0,-36.0,-64.0,-809.0,-461.0
6.0,-213.0,-155.0,241.0,71.0,-36.0,-57.0,-807.0,-460.0
6.0,-215.0,-156.0,215.0,69.0,-35.0,-53.0,-813.0,-451.0
5.0,-215.0,-147.0,190.0,67.0,-35.0,-52.0,-820.0,-443.0
8.0,-216.0,-151.0,171.0,66.0,-37.0,-51.0,-818.0,-433.0
8.0,-220.0,-148.0,155.0,63.0,-37.0,-47.0,-831.0,-429.0
11.0,-224.0,-145.0,140.0,60.0,-37.0,-48.0,-829.0,-433.0
5.0,-219.0,-147.0,133.0,59.0,-38.0,-42.0,-840.0,-433.0
10.0,-221.0,-149.0,125.0,58.0,-36.0,-40.0,-845.0,-440.0
14.0,-225.0,-150.0,114.0,57.0,-33.0,-37.0,-851.0,-439.0
12.0,-226.0,-152.0,98.0,59.0,-29.0,-34.0,-853.0,-442.0
9.0,-230.0,-153.0,82.0,61.0,-30.0,-37.0,-867.0,-445.0
12.0,-230.0,-152.0,64.0,63.0,-25.0,-28.0,-878.0,-447.0
14.0,-234.0,-150.0,50.0,63.0,-21.0,-27.0,-888.0,-450.0
12.0,-236.0,-152.0,37.0,62.0,-16.0,-26.0,-902.0,-456.0
14.0,-238.0,-154.0,31.0,62.0,-14.0,-26.0,-905.0,-451.0
12.0,-237.0,-157.0,29.0,58.0,-11.0,-20.0,-913.0,-459.0
15.0,-240.0,-156.0,29.0,53.0,-11.0,-26.0,-917.0,-463.0
12.0,-242.0,-154.0,34.0,47.0,-9.0,-24.0,-911.0,-464.0
13.0,-241.0,-156.0,42.0,41.0,-9.0,-25.0,-917.0,-464.0
12.0,-242.0,-160.0,50.0,36.0,-9.0,-32.0,-920.0,-466.0
12.0,-240.0,-160.0,60.0,31.0,-11.0,-34.0,-910.0,-469.0
10.0,-235.0,-160.0,69.0,27.0,-12.0,-36.0,-894.0,-477.0
13.0,-239.0,-161.0,74.0,22.0,-12.0,-32.0,-902.0,-478.0
11.0,-239.0,-161.0,75.0,18.0,-14.0,-41.0,-891.0,-484.0
7.0,-235.0,-162.0,74.0,16.0,-14.0,-37.0,-893.0,-483.0
9.0,-236.0,-162.0,72.0,16.0,-14.0,-41.0,-889.0,-489.0
11.0,-235.0,-160.0,69.0,17.0,-15.0,-38.0,-889.0,-485.0
8.0,-239.0,-159.0,70.0,18.0,-17.0,-42.0,-889.0,-484.0
10.0,-235.0,-162.0,74.0,21.0,-17.0,-45.0,-888.0,-480.0
6.0,-233.0,-161.0,78.0,23.0,-15.0,-43.0,-882.0,-479.0
8.0,-231.0,-160.0,81.0,25.0,-14.0,-42.0,-880.0,-477.0
7.0,-230.0,-159.0,83.0,28.0,-14.0,-41.0,-867.0,-468.0
8.0,-230.0,-160.0,82.0,29.0,-13.0,-44.0,-872.0,-465.0
7.0,-228.0,-158.0,81.0,32.0,-12.0,-43.0,-867.0,-462.0
10.0,-231.0,-151.0,79.0,34.0,-12.0,-41.0,-872.0,-460.0
5.0,-227.0,-154.0,73.0,37.0,-12.0,-47.0,-870.0,-460.0
8.0,-229.0,-151.0,68.0,39.0,-13.0,-46.0,-874.0,-457.0
7.0,-228.0,-155.0,63.0,41.0,-13.0,-42.0,-874.0,-454.0
8.0,-234.0,-154.0,60.0,42.0,-13.0,-46.0,-873.0,-452.0
7.0,-231.0,-149.0,59.0,43.0,-13.0,-43.0,-873.0,-449.0
10.0,-233.0,-154.0,59.0,46.0,-12.0,-44.0,-880.0,-447.0
5.0,-233.0,-156.0,59.0,48.0,-13.0,-42.0,-877.0,-446.0
11.0,-235.0,-149.0,60.0,50.0,-14.0,-40.0,-880.0,-441.0
10.0,-235.0,-150.0,63.0,53.0,-14.0,-40.0,-885.0,-440.0
10.0,-237.0,-144.0,68.0,56.0,-15.0,-33.0,-886.0,-432.0
12.0,-238.0,-147.0,72.0,57.0,-18.0,-36.0,-887.0,-433.0
15.0,-234.0,-144.0,78.0,58.0,-21.0,-33.0,-882.0,-427.0
13.0,-233.0,-147.0,85.0,60.0,-24.0,-32.0,-874.0,-418.0
10.0,-230.0,-144.0,90.0,62.0,-25.0,-28.0,-874.0,-420.0
11.0,-231.0,-143.0,93.0,64.0,-28.0,-34.0,-871.0,-416.0
11.0,-230.0,-145.0,91.0,65.0,-30.0,-32.0,-868.0,-414.0
11.0,-228.0,-142.0,85.0,65.0,-30.0,-30.0,-870.0,-422.0
12.0,-230.0,-145.0,78.0,65.0,-31.0,-34.0,-867.0,-423.0
13.0,-232.0,-149.0,69.0,62.0,-33.0,-34.0,-868.0,-425.0
9.0,-230.0,-148.0,60.0,59.0,-33.0,-34.0,-872.0,-429.0
10.0,-233.0,-150.0,52.0,56.0,-34.0,-42.0,-874.0,-438.0
8.0,-227.0,-154.0,45.0,51.0,-36.0,-39.0,-878.0,-440.0
9.0,-231.0,-152.0,38.0,45.0,-37.0,-42.0,-882.0,-440.0
6.0,-235.0,-146.0,33.0,40.0,-38.0,-39.0,-883.0,-443.0
8.0,-234.0,-150.0,30.0,35.0,-40.0,-45.0,-889.0,-439.0
7.0,-233.0,-151.0,30.0,33.0,-41.0,-51.0,-889.0,-443.0
8.0,-234.0,-149.0,32.0,31.0,-42.0,-52.0,-888.0,-442.0
4.0,-234.0,-148.0,35.0,32.0,-41.0,-49.0,-887.0,-440.0
5.0,-234.0,-149.0,36.0,30.0,-39.0,-52.0,-883.0,-439.0
4.0,-234.0,-151.0,33.0,26.0,-37.0,-54.0,-884.0,-441.0
4.0,-235.0,-152.0,27.0,24.0,-34.0,-56.0,-885.0,-441.0
5.0,-232.0,-150.0,19.0,22.0,-30.0,-56.0,-887.0,-444.0
4.0,-234.0,-153.0,7.0,17.0,-25.0,-56.0,-900.0,-445.0
8.0,-237.0,-153.0,-10.0,14.0,-21.0,-54.0,-897.0,-452.0
6.0,-241.0,-152.0,-24.0,11.0,-16.0,-52.0,-911.0,-451.0
7.0,-241.0,-151.0,-35.0,5.0,-13.0,-51.0,-919.0,-450.0
6.0,-246.0,-153.0,-44.0,2.0,-9.0,-46.0,-930.0,-455.0
9.0,-246.0,-150.0,-46.0,-1.0,-7.0,-48.0,-929.0,-455.0
9.0,-246.0,-148.0,-43.0,-3.0,-7.0,-41.0,-939.0,-446.0
5.0,-246.0,-155.0,-33.0,-4.0,-7.0,-51.0,-934.0,-444.0
10.0,-249.0,-150.0,-21.0,-2.0,-8.0,-45.0,-935.0,-439.0
8.0,-244.0,-148.0,-6.0,1.0,-10.0,-42.0,-931.0,-440.0
16.0,-248.0,-150.0,7.0,6.0,-10.0,-50.0,-923.0,-435.0
9.0,-240.0,-146.0,19.0,13.0,-12.0,-46.0,-918.0,-429.0
7.0,-240.0,-149.0,28.0,16.0,-11.0,-51.0,-907.0,-426.0
6.0,-238.0,-148.0,33.0,19.0,-12.0,-47.0,-909.0,-427.0
6.0,-238.0,-144.0,32.0,21.0,-13.0,-47.0,-889.0,-420.0
5.0,-233.0,-144.0,29.0,20.0,-12.0,-49.0,-885.0,-422.0
8.0,-236.0,-143.0,21.0,19.0,-14.0,-51.0,-883.0,-417.0
8.0,-231.0,-146.0,12.0,18.0,-16.0,-40.0,-882.0,-416.0
7.0,-235.0,-142.0,3.0,15.0,-18.0,-46.0,-878.0,-415.0
5.0,-232.0,-146.0,-9.0,14.0,-18.0,-51.0,-881.0,-409.0
10.0,-236.0,-143.0,-20.0,11.0,-19.0,-46.0,-885.0,-416.0
10.0,-237.0,-145.0,-30.0,8.0,-21.0,-44.0,-888.0,-417.0
10.0,-233.0,-146.0,-38.0,9.0,-20.0,-44.0,-893.0,-412.0
8.0,-236.0,-144.0,-41.0,10.0,-21.0,-40.0,-891.0,-407.0
10.0,-235.0,-147.0,-42.0,11.0,-23.0,-42.0,-895.0,-410.0
8.0,-237.0,-140.0,-40.0,13.0,-23.0,-44.0,-891.0,-410.0
7.0,-237.0,-147.0,-38.0,14.0,-22.0,-39.0,-896.0,-411.0
7.0,-233.0,-146.0,-38.0,17.0,-22.0,-45.0,-891.0,-410.0
10.0,-237.0,-142.0,-37.0,20.0,-22.0,-38.0,-887.0,-410.0
11.0,-234.0,-143.0,-40.0,22.0,-20.0,-40.0,-888.0,-411.0
9.0,-233.0,-142.0,-44.0,25.0,-18.0,-41.0,-898.0,-415.0
8.0,-234.0,-140.0,-49.0,28.0,-16.0,-43.0,-888.0,-413.0
6.0,-235.0,-148.0,-54.0,32.0,-13.0,-39.0,-891.0,-414.0
11.0,-238.0,-145.0,-58.0,34.0,-11.0,-39.0,-902.0,-409.0
8.0,-237.0,-143.0,-62.0,36.0,-8.0,-46.0,-901.0,-422.0
11.0,-238.0,-147.0,-65.0,38.0,-7.0,-41.0,-908.0,-419.0
8.0,-240.0,-149.0,-67.0,40.0,-6.0,-40.0,-910.0,-420.0
7.0,-241.0,-144.0,-68.0,42.0,-5.0,-41.0,-913.0,-419.0
9.0,-242.0,-146.0,-70.0,45.0,-3.0,-42.0,-913.0,-420.0
11.0,-243.0,-147.0,-70.0,45.0,-2.0,-45.0,-920.0,-428.0
8.0,-244.0,-143.0,-72.0,47.0,-2.0,-48.0,-915.0,-421.0
8.0,-245.0,-144.0,-77.0,49.0,-2.0,-47.0,-924.0,-423.0
-1.0,-246.0,-147.0,-77.0,49.0,-2.0,-44.0,-927.0,-425.0
7.0,-244.0,-145.0,-75.0,51.0,0.0,-47.0,-922.0,-422.0
6.0,-243.0,-149.0,-68.0,49.0,0.0,-52.0,-926.0,-421.0
4.0,-239.0,-146.0,-60.0,49.0,0.0,-50.0,-924.0,-423.0
13.0,-243.0,-147.0,-54.0,49.0,2.0,-48.0,-920.0,-426.0
9.0,-242.0,-147.0,-53.0,47.0,3.0,-48.0,-920.0,-424.0
8.0,-243.0,-146.0,-52.0,44.0,3.0,-51.0,-918.0,-418.0
4.0,-237.0,-148.0,-51.0,41.0,7.0,-49.0,-912.0,-421.0
6.0,-241.0,-144.0,-51.0,38.0,6.0,-54.0,-906.0,-418.0
8.0,-240.0,-144.0,-48.0,35.0,6.0,-53.0,-907.0,-415.0
6.0,-240.0,-142.0,-46.0,32.0,6.0,-57.0,-905.0,-412.0
7.0,-229.0,-154.0,-46.0,31.0,5.0,-58.0,-901.0,-411.0
4.0,-237.0,-142.0,-48.0,28.0,5.0,-61.0,-900.0,-411.0
2.0,-235.0,-141.0,-52.0,25.0,5.0,-56.0,-890.0,-418.0
4.0,-239.0,-142.0,-57.0,24.0,4.0,-54.0,-890.0,-415.0
5.0,-237.0,-140.0,-63.0,24.0,4.0,-58.0,-907.0,-415.0
2.0,-234.0,-140.0,-68.0,23.0,2.0,-55.0,-892.0,-413.0
5.0,-238.0,-141.0,-72.0,22.0,2.0,-58.0,-903.0,-409.0
3.0,-237.0,-142.0,-74.0,19.0,2.0,-55.0,-902.0,-409.0
4.0,-239.0,-147.0,-76.0,19.0,3.0,-54.0,-908.0,-414.0
4.0,-238.0,-143.0,-77.0,19.0,3.0,-56.0,-902.0,-415.0
6.0,-238.0,-145.0,-78.0,20.0,5.0,-52.0,-903.0,-418.0
7.0,-241.0,-141.0,-77.0,21.0,6.0,-48.0,-908.0,-417.0
6.0,-238.0,-145.0,-76.0,24.0,8.0,-53.0,-902.0,-419.0
8.0,-238.0,-146.0,-75.0,28.0,9.0,-49.0,-916.0,-414.0
5.0,-239.0,-147.0,-73.0,33.0,11.0,-45.0,-911.0,-419.0
7.0,-242.0,-145.0,-71.0,39.0,12.0,-44.0,-911.0,-417.0
9.0,-241.0,-145.0,-68.0,42.0,14.0,-43.0,-913.0,-424.0
13.0,-244.0,-146.0,-68.0,46.0,16.0,-41.0,-919.0,-415.0
9.0,-241.0,-143.0,-67.0,49.0,16.0,-38.0,-916.0,-416.0
12.0,-241.0,-143.0,-66.0,51.0,17.0,-36.0,-914.0,-415.0
10.0,-239.0,-144.0,-65.0,53.0,18.0,-38.0,-910.0,-410.0
8.0,-237.0,-145.0,-65.0,54.0,19.0,-37.0,-910.0,-411.0
10.0,-238.0,-144.0,-70.0,53.0,19.0,-40.0,-907.0,-413.0
7.0,-237.0,-141.0,-75.0,53.0,19.0,-39.0,-910.0,-413.0
10.0,-241.0,-141.0,-83.0,50.0,19.0,-41.0,-911.0,-419.0
7.0,-240.0,-144.0,-90.0,47.0,19.0,-40.0,-912.0,-420.0
7.0,-236.0,-145.0,-99.0,47.0,19.0,-44.0,-921.0,-424.0
8.0,-242.0,-145.0,-105.0,44.0,19.0,-46.0,-923.0,-423.0
4.0,-243.0,-146.0,-111.0,40.0,19.0,-48.0,-924.0,-430.0
7.0,-248.0,-146.0,-112.0,37.0,18.0,-50.0,-927.0,-432.0
5.0,-245.0,-146.0,-111.0,36.0,17.0,-48.0,-932.0,-432.0
7.0,-247.0,-147.0,-106.0,37.0,17.0,-49.0,-938.0,-431.0
6.0,-247.0,-144.0,-100.0,39.0,16.0,-51.0,-934.0,-426.0
5.0,-246.0,-148.0,-91.0,42.0,15.0,-52.0,-935.0,-425.0
5.0,-246.0,-144.0,-79.0,44.0,14.0,-51.0,-936.0,-427.0
3.0,-245.0,-145.0,-66.0,46.0,13.0,-55.0,-936.0,-428.0
6.0,-243.0,-144.0,-53.0,48.0,12.0,-58.0,-928.0,-423.0
6.0,-242.0,-145.0,-43.0,50.0,13.0,-51.0,-924.0,-424.0
5.0,-240.0,-151.0,-33.0,51.0,12.0,-57.0,-919.0,-422.0
6.0,-239.0,-146.0,-26.0,52.0,12.0,-56.0,-914.0,-422.0
4.0,-238.0,-143.0,-20.0,54.0,11.0,-59.0,-911.0,-415.0
2.0,-237.0,-142.0,-20.0,53.0,11.0,-62.0,-907.0,-416.0
5.0,-236.0,-143.0,-21.0,51.0,10.0,-57.0,-901.0,-416.0
4.0,-234.0,-147.0,-26.0,49.0,10.0,-55.0,-893.0,-414.0
4.0,-236.0,-145.0,-35.0,50.0,11.0,-55.0,-901.0,-410.0
6.0,-237.0,-142.0,-41.0,52.0,10.0,-56.0,-903.0,-414.0
7.0,-237.0,-142.0,-45.0,53.0,11.0,-52.0,-902.0,-411.0
6.0,-237.0,-142.0,-52.0,53.0,11.0,-54.0,-910.0,-409.0
5.0,-238.0,-143.0,-57.0,53.0,11.0,-47.0,-909.0,-414.0
5.0,-241.0,-142.0,-59.0,55.0,11.0,-54.0,-918.0,-410.0
10.0,-246.0,-140.0,-61.0,56.0,9.0,-48.0,-916.0,-404.0
6.0,-242.0,-143.0,-60.0,59.0,10.0,-50.0,-913.0,-414.0
8.0,-242.0,-137.0,-59.0,62.0,9.0,-49.0,-919.0,-414.0
5.0,-242.0,-141.0,-57.0,63.0,8.0,-52.0,-923.0,-414.0
8.0,-239.0,-142.0,-54.0,66.0,9.0,-53.0,-926.0,-409.0
5.0,-240.0,-141.0,-54.0,68.0,7.0,-54.0,-923.0,-409.0
3.0,-243.0,-141.0,-53.0,69.0,8.0,-53.0,-926.0,-411.0
6.0,-244.0,-144.0,-52.0,70.0,8.0,-54.0,-922.0,-413.0
7.0,-242.0,-145.0,-51.0,70.0,8.0,-46.0,-922.0,-416.0
8.0,-244.0,-142.0,-52.0,71.0,7.0,-49.0,-926.0,-415.0
6.0,-243.0,-142.0,-52.0,71.0,8.0,-53.0,-926.0,-418.0
5.0,-243.0,-144.0,-51.0,71.0,7.0,-50.0,-923.0,-412.0
5.0,-243.0,-146.0,-50.0,72.0,7.0,-50.0,-914.0,-418.0
8.0,-243.0,-146.0,-47.0,72.0,5.0,-55.0,-924.0,-419.0
9.0,-243.0,-146.0,-46.0,72.0,4.0,-53.0,-929.0,-421.0
8.0,-243.0,-145.0,-45.0,72.0,3.0,-54.0,-924.0,-419.0
5.0,-237.0,-142.0,-43.0,70.0,3.0,-57.0,-922.0,-423.0
3.0,-242.0,-149.0,-39.0,70.0,2.0,-51.0,-922.0,-420.0
6.0,-243.0,-144.0,-37.0,68.0,1.0,-57.0,-922.0,-425.0
6.0,-241.0,-153.0,-33.0,67.0,1.0,-56.0,-921.0,-421.0
4.0,-242.0,-144.0,-29.0,65.0,-1.0,-57.0,-919.0,-426.0
5.0,-241.0,-150.0,-26.0,63.0,-1.0,-60.0,-914.0,-420.0
6.0,-240.0,-144.0,-23.0,60.0,-4.0,-55.0,-911.0,-424.0
3.0,-240.0,-146.0,-20.0,58.0,-3.0,-54.0,-912.0,-420.0
4.0,-239.0,-145.0,-18.0,58.0,-2.0,-54.0,-909.0,-420.0
6.0,-238.0,-145.0,-17.0,57.0,-5.0,-59.0,-907.0,-419.0
4.0,-235.0,-144.0,-17.0,56.0,-6.0,-61.0,-902.0,-421.0
3.0,-238.0,-146.0,-15.0,58.0,-5.0,-60.0,-899.0,-415.0
4.0,-237.0,-147.0,-15.0,57.0,-5.0,-60.0,-898.0,-415.0
2.0,-236.0,-143.0,-19.0,57.0,-5.0,-63.0,-900.0,-417.0
3.0,-233.0,-141.0,-22.0,59.0,-6.0,-65.0,-890.0,-416.0
3.0,-237.0,-144.0,-27.0,60.0,-5.0,-63.0,-895.0,-412.0
2.0,-236.0,-142.0,-32.0,62.0,-5.0,-63.0,-904.0,-419.0
2.0,-239.0,-144.0,-40.0,66.0,-3.0,-63.0,-911.0,-414.0
4.0,-239.0,-147.0,-47.0,67.0,0.0,-63.0,-910.0,-419.0
4.0,-242.0,-144.0,-53.0,72.0,3.0,-63.0,-916.0,-416.0
4.0,-243.0,-147.0,-58.0,73.0,3.0,-60.0,-927.0,-421.0
3.0,-246.0,-145.0,-60.0,79.0,7.0,-63.0,-928.0,-411.0
9.0,-250.0,-141.0,-60.0,78.0,7.0,-56.0,-934.0,-414.0
4.0,-247.0,-141.0,-55.0,80.0,9.0,-60.0,-933.0,-413.0
6.0,-244.0,-144.0,-50.0,80.0,9.0,-58.0,-933.0,-411.0
4.0,-247.0,-145.0,-40.0,82.0,10.0,-56.0,-939.0,-414.0
5.0,-248.0,-143.0,-30.0,83.0,10.0,-53.0,-933.0,-412.0
6.0,-244.0,-144.0,-21.0,84.0,9.0,-49.0,-926.0,-411.0
5.0,-245.0,-141.0,-16.0,83.0,7.0,-51.0,-925.0,-411.0
4.0,-241.0,-140.0,-13.0,80.0,6.0,-53.0,-916.0,-410.0
6.0,-239.0,-145.0,-13.0,79.0,4.0,-49.0,-916.0,-411.0
5.0,-239.0,-140.0,-13.0,78.0,4.0,-56.0,-911.0,-412.0
5.0,-240.0,-142.0,-14.0,77.0,3.0,-56.0,-913.0,-414.0
5.0,-239.0,-141.0,-15.0,74.0,5.0,-60.0,-910.0,-412.0
4.0,-240.0,-142.0,-16.0,73.0,5.0,-61.0,-906.0,-414.0
3.0,-237.0,-142.0,-19.0,68.0,4.0,-61.0,-911.0,-411.0
3.0,-240.0,-144.0,-23.0,63.0,4.0,-60.0,-910.0,-414.0
2.0,-239.0,-147.0,-25.0,61.0,1.0,-59.0,-909.0,-419.0
6.0,-241.0,-145.0,-28.0,57.0,3.0,-60.0,-912.0,-415.0
2.0,-239.0,-141.0,-32.0,55.0,2.0,-62.0,-913.0,-416.0
2.0,-239.0,-142.0,-37.0,54.0,1.0,-60.0,-914.0,-428.0
6.0,-240.0,-144.0,-40.0,56.0,1.0,-61.0,-913.0,-413.0
2.0,-240.0,-143.0,-41.0,56.0,2.0,-63.0,-916.0,-414.0
4.0,-239.0,-145.0,-41.0,59.0,4.0,-60.0,-919.0,-405.0
2.0,-233.0,-137.0,-41.0,61.0,4.0,-60.0,-915.0,-410.0
3.0,-241.0,-143.0,-42.0,62.0,4.0,-62.0,-922.0,-413.0
3.0,-242.0,-140.0,-43.0,64.0,4.0,-63.0,-921.0,-412.0
6.0,-245.0,-142.0,-41.0,64.0,3.0,-61.0,-923.0,-406.0
6.0,-244.0,-144.0,-40.0,65.0,2.0,-61.0,-919.0,-408.0
4.0,-243.0,-141.0,-37.0,64.0,2.0,-63.0,-920.0,-410.0
3.0,-240.0,-143.0,-35.0,61.0,4.0,-58.0,-908.0,-412.0
5.0,-239.0,-141.0,-31.0,57.0,4.0,-61.0,-913.0,-411.0
3.0,-240.0,-146.0,-36.0,53.0,4.0,-62.0,-913.0,-411.0
3.0,-239.0,-142.0,-37.0,51.0,5.0,-59.0,-914.0,-411.0
3.0,-241.0,-144.0,-38.0,48.0,4.0,-57.0,-909.0,-413.0
3.0,-234.0,-138.0,-42.0,46.0,4.0,-58.0,-912.0,-416.0
5.0,-237.0,-144.0,-45.0,46.0,3.0,-56.0,-911.0,-410.0
9.0,-243.0,-141.0,-49.0,47.0,4.0,-52.0,-913.0,-415.0
6.0,-241.0,-148.0,-55.0,46.0,3.0,-56.0,-914.0,-415.0
3.0,-243.0,-143.0,-62.0,47.0,1.0,-56.0,-916.0,-413.0
4.0,-244.0,-139.0,-65.0,49.0,1.0,-54.0,-918.0,-416.0
8.0,-244.0,-141.0,-67.0,50.0,3.0,-52.0,-920.0,-415.0
7.0,-244.0,-142.0,-66.0,51.0,2.0,-58.0,-924.0,-416.0
5.0,-243.0,-141.0,-64.0,50.0,-1.0,-53.0,-922.0,-411.0
6.0,-244.0,-143.0,-60.0,51.0,0.0,-51.0,-925.0,-411.0
5.0,-231.0,-158.0,-54.0,52.0,-2.0,-49.0,-923.0,-410.0
7.0,-236.0,-139.0,-49.0,50.0,-3.0,-50.0,-920.0,-412.0
2.0,-237.0,-141.0,-43.0,49.0,-4.0,-50.0,-916.0,-411.0
11.0,-238.0,-140.0,-39.0,48.0,-3.0,-53.0,-912.0,-411.0
7.0,-237.0,-147.0,-37.0,48.0,-3.0,-51.0,-908.0,-410.0
7.0,-237.0,-141.0,-40.0,46.0,-3.0,-47.0,-909.0,-414.0
5.0,-237.0,-143.0,-43.0,46.0,-4.0,-52.0,-910.0,-413.0
5.0,-239.0,-145.0,-48.0,46.0,-5.0,-50.0,-906.0,-418.0
6.0,-238.0,-142.0,-55.0,43.0,-7.0,-49.0,-912.0,-424.0
11.0,-239.0,-145.0,-62.0,41.0,-7.0,-53.0,-912.0,-414.0
6.0,-240.0,-142.0,-66.0,41.0,-7.0,-50.0,-916.0,-421.0
8.0,-252.0,-157.0,-66.0,40.0,-7.0,-51.0,-918.0,-419.0
4.0,-241.0,-144.0,-68.0,36.0,-8.0,-49.0,-920.0,-419.0
6.0,-242.0,-144.0,-65.0,35.0,-8.0,-51.0,-922.0,-419.0
4.0,-241.0,-143.0,-60.0,32.0,-8.0,-52.0,-924.0,-420.0
7.0,-243.0,-144.0,-57.0,32.0,-9.0,-50.0,-918.0,-424.0
3.0,-235.0,-143.0,-53.0,30.0,-9.0,-53.0,-919.0,-421.0
6.0,-240.0,-145.0,-50.0,28.0,-10.0,-48.0,-918.0,-424.0
4.0,-241.0,-143.0,-47.0,29.0,-8.0,-46.0,-915.0,-422.0
8.0,-245.0,-148.0,-47.0,29.0,-9.0,-50.0,-916.0,-421.0
6.0,-238.0,-144.0,-47.0,30.0,-9.0,-47.0,-913.0,-421.0
3.0,-237.0,-144.0,-46.0,31.0,-10.0,-51.0,-909.0,-418.0
6.0,-241.0,-145.0,-48.0,31.0,-10.0,-46.0,-909.0,-420.0
3.0,-238.0,-144.0,-49.0,32.0,-9.0,-50.0,-915.0,-423.0
4.0,-238.0,-142.0,-51.0,33.0,-9.0,-49.0,-914.0,-420.0
8.0,-242.0,-146.0,-52.0,34.0,-8.0,-51.0,-913.0,-415.0
9.0,-240.0,-144.0,-51.0,34.0,-7.0,-48.0,-914.0,-419.0
7.0,-238.0,-144.0,-51.0,35.0,-8.0,-49.0,-911.0,-417.0
9.0,-241.0,-144.0,-49.0,34.0,-8.0,-43.0,-915.0,-420.0
7.0,-240.0,-145.0,-48.0,35.0,-9.0,-49.0,-913.0,-419.0
8.0,-240.0,-148.0,-46.0,37.0,-9.0,-45.0,-912.0,-419.0
5.0,-238.0,-145.0,-45.0,35.0,-8.0,-47.0,-909.0,-418.0
9.0,-238.0,-147.0,-41.0,35.0,-9.0,-44.0,-913.0,-416.0
5.0,-234.0,-142.0,-40.0,34.0,-11.0,-48.0,-903.0,-415.0
7.0,-237.0,-144.0,-38.0,35.0,-11.0,-48.0,-907.0,-412.0
7.0,-237.0,-139.0,-38.0,32.0,-12.0,-44.0,-902.0,-413.0
9.0,-237.0,-147.0,-40.0,32.0,-11.0,-50.0,-900.0,-421.0
5.0,-231.0,-139.0,-43.0,30.0,-12.0,-51.0,-892.0,-414.0
4.0,-235.0,-144.0,-46.0,31.0,-10.0,-50.0,-900.0,-413.0
7.0,-237.0,-143.0,-53.0,30.0,-10.0,-46.0,-896.0,-423.0
8.0,-237.0,-144.0,-58.0,30.0,-9.0,-51.0,-898.0,-420.0
9.0,-239.0,-148.0,-66.0,30.0,-10.0,-45.0,-907.0,-422.0
9.0,-239.0,-145.0,-75.0,31.0,-9.0,-49.0,-906.0,-424.0
4.0,-238.0,-144.0,-80.0,32.0,-8.0,-49.0,-911.0,-422.0
12.0,-242.0,-149.0,-85.0,30.0,-6.0,-51.0,-914.0,-424.0
6.0,-242.0,-146.0,-86.0,29.0,-4.0,-46.0,-919.0,-421.0
9.0,-243.0,-143.0,-82.0,27.0,-5.0,-48.0,-924.0,-421.0
8.0,-244.0,-147.0,-75.0,26.0,-4.0,-45.0,-924.0,-421.0
7.0,-243.0,-147.0,-67.0,24.0,-5.0,-45.0,-926.0,-418.0
7.0,-239.0,-150.0,-60.0,22.0,-4.0,-44.0,-922.0,-425.0
6.0,-241.0,-147.0,-56.0,21.0,-4.0,-45.0,-922.0,-425.0
7.0,-243.0,-146.0,-51.0,20.0,-5.0,-44.0,-919.0,-426.0
9.0,-242.0,-145.0,-46.0,20.0,-6.0,-41.0,-916.0,-420.0
7.0,-242.0,-146.0,-43.0,18.0,-7.0,-43.0,-915.0,-427.0
10.0,-240.0,-146.0,-40.0,17.0,-7.0,-43.0,-914.0,-421.0
7.0,-239.0,-146.0,-41.0,15.0,-8.0,-46.0,-909.0,-418.0
9.0,-237.0,-149.0,-39.0,14.0,-7.0,-43.0,-906.0,-420.0
8.0,-237.0,-149.0,-38.0,15.0,-9.0,-43.0,-902.0,-421.0
5.0,-237.0,-144.0,-36.0,15.0,-9.0,-46.0,-903.0,-419.0
5.0,-234.0,-145.0,-36.0,15.0,-8.0,-47.0,-902.0,-421.0
8.0,-236.0,-145.0,-36.0,17.0,-10.0,-49.0,-905.0,-418.0
9.0,-236.0,-145.0,-39.0,17.0,-9.0,-46.0,-889.0,-420.0
7.0,-236.0,-147.0,-43.0,16.0,-8.0,-44.0,-903.0,-422.0
9.0,-238.0,-146.0,-49.0,17.0,-9.0,-43.0,-905.0,-420.0
8.0,-236.0,-140.0,-53.0,13.0,-7.0,-39.0,-903.0,-419.0
10.0,-237.0,-146.0,-58.0,12.0,-8.0,-41.0,-906.0,-417.0
7.0,-237.0,-152.0,-62.0,10.0,-9.0,-41.0,-910.0,-418.0
9.0,-240.0,-145.0,-62.0,9.0,-7.0,-40.0,-910.0,-424.0
6.0,-233.0,-142.0,-60.0,9.0,-7.0,-34.0,-902.0,-424.0
10.0,-239.0,-148.0,-59.0,8.0,-7.0,-44.0,-911.0,-422.0
9.0,-238.0,-146.0,-58.0,9.0,-7.0,-40.0,-908.0,-420.0
9.0,-239.0,-144.0,-56.0,10.0,-5.0,-38.0,-908.0,-420.0
6.0,-238.0,-147.0,-57.0,9.0,-5.0,-44.0,-906.0,-423.0
6.0,-237.0,-148.0,-60.0,10.0,-4.0,-36.0,-909.0,-423.0
7.0,-238.0,-144.0,-61.0,11.0,-5.0,-41.0,-909.0,-419.0
7.0,-235.0,-147.0,-64.0,12.0,-5.0,-42.0,-903.0,-421.0
10.0,-240.0,-143.0,-68.0,13.0,-5.0,-45.0,-905.0,-422.0
8.0,-238.0,-144.0,-69.0,14.0,-6.0,-41.0,-909.0,-417.0
12.0,-238.0,-146.0,-71.0,13.0,-6.0,-41.0,-901.0,-420.0
9.0,-240.0,-147.0,-69.0,11.0,-6.0,-39.0,-913.0,-421.0
10.0,-241.0,-149.0,-68.0,8.0,-6.0,-42.0,-908.0,-423.0
6.0,-242.0,-146.0,-65.0,8.0,-8.0,-44.0,-907.0,-424.0
11.0,-241.0,-144.0,-63.0,6.0,-8.0,-40.0,-906.0,-423.0
7.0,-239.0,-147.0,-63.0,2.0,-8.0,-39.0,-908.0,-423.0
12.0,-241.0,-146.0,-62.0,0.0,-8.0,-45.0,-914.0,-426.0
14.0,-238.0,-148.0,-61.0,-1.0,-9.0,-38.0,-909.0,-429.0
11.0,-236.0,-146.0,-61.0,0.0,-9.0,-38.0,-906.0,-433.0
8.0,-238.0,-146.0,-60.0,-1.0,-7.0,-35.0,-910.0,-427.0
14.0,-239.0,-139.0,-59.0,1.0,-6.0,-36.0,-910.0,-433.0
10.0,-240.0,-147.0,-60.0,2.0,-6.0,-41.0,-913.0,-431.0
8.0,-237.0,-148.0,-60.0,1.0,-6.0,-35.0,-913.0,-431.0
11.0,-238.0,-144.0,-58.0,0.0,-6.0,-36.0,-911.0,-429.0
11.0,-239.0,-151.0,-59.0,1.0,-5.0,-36.0,-912.0,-426.0
11.0,-239.0,-145.0,-58.0,3.0,-3.0,-32.0,-910.0,-423.0
11.0,-239.0,-146.0,-56.0,1.0,-2.0,-39.0,-908.0,-422.0
10.0,-237.0,-144.0,-53.0,3.0,-3.0,-41.0,-912.0,-423.0
10.0,-236.0,-145.0,-52.0,5.0,-2.0,-38.0,-907.0,-420.0
10.0,-240.0,-146.0,-51.0,7.0,-2.0,-34.0,-907.0,-420.0
9.0,-239.0,-145.0,-52.0,9.0,-2.0,-38.0,-906.0,-423.0
9.0,-238.0,-144.0,-51.0,10.0,-1.0,-42.0,-908.0,-421.0
10.0,-239.0,-145.0,-52.0,12.0,-2.0,-40.0,-910.0,-416.0
12.0,-241.0,-150.0,-53.0,12.0,-1.0,-35.0,-911.0,-422.0
11.0,-242.0,-148.0,-54.0,14.0,0.0,-35.0,-910.0,-421.0
9.0,-238.0,-144.0,-57.0,14.0,1.0,-41.0,-912.0,-423.0
10.0,-241.0,-145.0,-60.0,14.0,1.0,-42.0,-913.0,-423.0
9.0,-240.0,-149.0,-66.0,13.0,1.0,-37.0,-920.0,-429.0
10.0,-242.0,-150.0,-67.0,13.0,0.0,-38.0,-919.0,-430.0
11.0,-243.0,-148.0,-64.0,13.0,-1.0,-43.0,-921.0,-428.0
10.0,-241.0,-149.0,-60.0,11.0,-4.0,-40.0,-923.0,-431.0
