acc1_x,acc1_y,acc1_z,gyro_x,gyro_y,gyro_z,acc2_x,acc2_y,acc2_z
5.0,-243.0,-141.0,-40.0,13.0,-4.0,-60.0,-922.0,-417.0
5.0,-243.0,-142.0,-40.0,11.0,-5.0,-62.0,-922.0,-411.0
7.0,-240.0,-140.0,-38.0,11.0,-4.0,-62.0,-919.0,-414.0
5.0,-241.0,-142.0,-35.0,11.0,-5.0,-60.0,-916.0,-417.0
4.0,-240.0,-143.0,-34.0,11.0,-6.0,-64.0,-915.0,-418.0
4.0,-240.0,-140.0,-34.0,9.0,-5.0,-61.0,-909.0,-415.0
2.0,-239.0,-143.0,-36.0,9.0,-4.0,-66.0,-913.0,-408.0
5.0,-239.0,-142.0,-39.0,9.0,-4.0,-64.0,-913.0,-413.0
1.0,-240.0,-141.0,-41.0,8.0,-4.0,-63.0,-915.0,-415.0
4.0,-238.0,-146.0,-45.0,9.0,-5.0,-69.0,-913.0,-414.0
2.0,-240.0,-147.0,-47.0,8.0,-3.0,-64.0,-912.0,-414.0
2.0,-242.0,-142.0,-48.0,10.0,-3.0,-66.0,-916.0,-411.0
5.0,-241.0,-143.0,-47.0,10.0,-4.0,-61.0,-917.0,-415.0
3.0,-241.0,-145.0,-49.0,11.0,-4.0,-67.0,-917.0,-412.0
1.0,-240.0,-143.0,-48.0,12.0,-5.0,-60.0,-918.0,-414.0
3.0,-241.0,-145.0,-45.0,13.0,-5.0,-67.0,-918.0,-414.0
5.0,-244.0,-140.0,-43.0,13.0,-3.0,-65.0,-913.0,-412.0
4.0,-241.0,-141.0,-40.0,14.0,-3.0,-66.0,-921.0,-407.0
1.0,-239.0,-143.0,-37.0,14.0,-5.0,-62.0,-918.0,-408.0
4.0,-241.0,-144.0,-35.0,14.0,-5.0,-59.0,-918.0,-406.0
3.0,-241.0,-139.0,-33.0,17.0,-5.0,-57.0,-917.0,-410.0
7.0,-242.0,-142.0,-31.0,19.0,-3.0,-62.0,-917.0,-405.0
3.0,-239.0,-141.0,-31.0,18.0,-3.0,-62.0,-916.0,-409.0
2.0,-241.0,-143.0,-30.0,20.0,-3.0,-62.0,-916.0,-411.0
7.0,-239.0,-142.0,-29.0,21.0,-2.0,-61.0,-911.0,-411.0
3.0,-240.0,-143.0,-28.0,20.0,-3.0,-62.0,-909.0,-410.0
7.0,-238.0,-145.0,-31.0,21.0,-5.0,-61.0,-912.0,-414.0
5.0,-240.0,-144.0,-36.0,19.0,-4.0,-61.0,-914.0,-410.0
2.0,-240.0,-141.0,-40.0,19.0,-4.0,-59.0,-913.0,-414.0
3.0,-239.0,-142.0,-42.0,19.0,-3.0,-62.0,-914.0,-411.0
3.0,-241.0,-143.0,-47.0,17.0,-4.0,-60.0,-909.0,-416.0
6.0,-239.0,-145.0,-48.0,17.0,-3.0,-64.0,-912.0,-416.0
3.0,-241.0,-141.0,-50.0,17.0,-2.0,-64.0,-904.0,-414.0
2.0,-239.0,-140.0,-51.0,15.0,-1.0,-63.0,-916.0,-414.0
3.0,-241.0,-146.0,-52.0,15.0,-2.0,-62.0,-916.0,-418.0
3.0,-238.0,-145.0,-51.0,15.0,-3.0,-57.0,-912.0,-419.0
4.0,-239.0,-145.0,-50.0,14.0,-3.0,-61.0,-917.0,-418.0
4.0,-241.0,-144.0,-50.0,15.0,-2.0,-60.0,-915.0,-414.0
4.0,-242.0,-144.0,-48.0,14.0,-3.0,-60.0,-917.0,-416.0
5.0,-240.0,-142.0,-49.0,12.0,-2.0,-58.0,-917.0,-412.0
2.0,-240.0,-143.0,-49.0,12.0,-1.0,-62.0,-917.0,-409.0
3.0,-240.0,-145.0,-49.0,12.0,-2.0,-57.0,-918.0,-409.0
5.0,-241.0,-141.0,-49.0,13.0,-4.0,-64.0,-918.0,-411.0
4.0,-241.0,-144.0,-46.0,12.0,-4.0,-59.0,-921.0,-415.0
3.0,-240.0,-141.0,-47.0,10.0,-4.0,-60.0,-919.0,-413.0
2.0,-242.0,-141.0,-47.0,10.0,-4.0,-65.0,-913.0,-408.0
3.0,-241.0,-145.0,-44.0,10.0,-4.0,-62.0,-915.0,-408.0
3.0,-242.0,-144.0,-43.0,11.0,-5.0,-61.0,-921.0,-411.0
1.0,-238.0,-149.0,-41.0,10.0,-5.0,-63.0,-916.0,-410.0
4.0,-241.0,-144.0,-44.0,7.0,-5.0,-65.0,-913.0,-411.0
4.0,-241.0,-145.0,-45.0,7.0,-5.0,-61.0,-918.0,-405.0
1.0,-244.0,-137.0,-47.0,7.0,-5.0,-61.0,-919.0,-412.0
4.0,-239.0,-144.0,-44.0,7.0,-6.0,-62.0,-921.0,-412.0
4.0,-239.0,-142.0,-45.0,8.0,-5.0,-56.0,-918.0,-408.0
7.0,-243.0,-139.0,-45.0,9.0,-3.0,-61.0,-917.0,-411.0
5.0,-242.0,-149.0,-46.0,11.0,-4.0,-60.0,-917.0,-411.0
3.0,-242.0,-142.0,-45.0,12.0,-4.0,-56.0,-919.0,-410.0
4.0,-240.0,-140.0,-46.0,13.0,-5.0,-60.0,-918.0,-410.0
4.0,-238.0,-140.0,-45.0,15.0,-5.0,-60.0,-921.0,-409.0
4.0,-242.0,-142.0,-45.0,15.0,-6.0,-58.0,-916.0,-409.0
4.0,-239.0,-143.0,-45.0,16.0,-5.0,-58.0,-919.0,-411.0
5.0,-241.0,-144.0,-45.0,17.0,-5.0,-55.0,-915.0,-412.0
3.0,-242.0,-145.0,-42.0,18.0,-5.0,-59.0,-917.0,-411.0
6.0,-239.0,-141.0,-41.0,18.0,-5.0,-56.0,-922.0,-413.0
4.0,-240.0,-139.0,-41.0,19.0,-5.0,-59.0,-919.0,-419.0
6.0,-245.0,-141.0,-41.0,19.0,-5.0,-61.0,-915.0,-406.0
4.0,-239.0,-139.0,-42.0,19.0,-7.0,-56.0,-917.0,-411.0
5.0,-244.0,-140.0,-42.0,19.0,-8.0,-57.0,-917.0,-414.0
5.0,-240.0,-141.0,-43.0,20.0,-7.0,-56.0,-921.0,-403.0
-4.0,-260.0,-133.0,-45.0,19.0,-7.0,-62.0,-917.0,-407.0
5.0,-242.0,-141.0,-46.0,19.0,-8.0,-59.0,-914.0,-411.0
1.0,-239.0,-142.0,-45.0,21.0,-7.0,-59.0,-916.0,-412.0
6.0,-240.0,-147.0,-46.0,20.0,-8.0,-55.0,-915.0,-410.0
3.0,-243.0,-143.0,-46.0,20.0,-8.0,-53.0,-915.0,-413.0
3.0,-239.0,-143.0,-45.0,22.0,-6.0,-58.0,-917.0,-413.0
3.0,-238.0,-144.0,-46.0,21.0,-6.0,-61.0,-915.0,-412.0
6.0,-240.0,-144.0,-49.0,22.0,-6.0,-62.0,-913.0,-414.0
5.0,-241.0,-142.0,-48.0,21.0,-5.0,-62.0,-907.0,-415.0
3.0,-238.0,-144.0,-50.0,23.0,-5.0,-62.0,-917.0,-411.0
5.0,-243.0,-142.0,-50.0,24.0,-5.0,-64.0,-915.0,-416.0
11.0,-237.0,-135.0,-51.0,24.0,-4.0,-63.0,-916.0,-412.0
4.0,-239.0,-142.0,-52.0,26.0,-3.0,-64.0,-915.0,-411.0
2.0,-238.0,-145.0,-52.0,25.0,-4.0,-64.0,-914.0,-413.0
2.0,-245.0,-141.0,-52.0,25.0,-5.0,-68.0,-919.0,-410.0
1.0,-243.0,-139.0,-53.0,27.0,-4.0,-69.0,-919.0,-412.0
2.0,-240.0,-139.0,-51.0,26.0,-3.0,-69.0,-919.0,-410.0
3.0,-241.0,-139.0,-50.0,26.0,-3.0,-67.0,-921.0,-409.0
1.0,-244.0,-143.0,-49.0,25.0,-2.0,-64.0,-921.0,-408.0
3.0,-241.0,-141.0,-46.0,23.0,-2.0,-65.0,-921.0,-413.0
2.0,-241.0,-140.0,-46.0,23.0,-3.0,-65.0,-916.0,-409.0
2.0,-239.0,-140.0,-46.0,23.0,-4.0,-60.0,-919.0,-412.0
3.0,-240.0,-141.0,-45.0,24.0,-5.0,-64.0,-921.0,-412.0
4.0,-242.0,-145.0,-44.0,24.0,-3.0,-68.0,-921.0,-409.0
2.0,-242.0,-143.0,-43.0,23.0,-3.0,-64.0,-921.0,-416.0
1.0,-241.0,-142.0,-41.0,24.0,-3.0,-62.0,-917.0,-408.0
2.0,-240.0,-144.0,-41.0,23.0,-3.0,-57.0,-920.0,-402.0
3.0,-242.0,-141.0,-41.0,24.0,-3.0,-61.0,-919.0,-404.0
4.0,-240.0,-142.0,-39.0,23.0,-3.0,-62.0,-917.0,-408.0
4.0,-241.0,-145.0,-40.0,22.0,-2.0,-63.0,-914.0,-410.0
4.0,-242.0,-140.0,-41.0,22.0,-2.0,-60.0,-916.0,-402.0
3.0,-240.0,-140.0,-41.0,21.0,-2.0,-63.0,-913.0,-409.0
5.0,-242.0,-137.0,-43.0,21.0,-4.0,-61.0,-916.0,-403.0
2.0,-237.0,-142.0,-45.0,19.0,-4.0,-63.0,-913.0,-401.0
2.0,-240.0,-143.0,-42.0,20.0,-6.0,-63.0,-915.0,-407.0
3.0,-240.0,-144.0,-41.0,20.0,-5.0,-58.0,-916.0,-406.0
4.0,-241.0,-145.0,-43.0,20.0,-5.0,-63.0,-909.0,-411.0
5.0,-241.0,-138.0,-43.0,19.0,-6.0,-63.0,-916.0,-407.0
3.0,-240.0,-143.0,-45.0,20.0,-5.0,-62.0,-915.0,-414.0
0.0,-238.0,-141.0,-49.0,20.0,-6.0,-61.0,-917.0,-411.0
2.0,-238.0,-146.0,-51.0,20.0,-6.0,-62.0,-920.0,-412.0
2.0,-241.0,-142.0,-53.0,20.0,-6.0,-62.0,-917.0,-413.0
5.0,-241.0,-142.0,-53.0,23.0,-7.0,-65.0,-919.0,-413.0
1.0,-240.0,-137.0,-51.0,25.0,-7.0,-61.0,-917.0,-413.0
0.0,-242.0,-141.0,-49.0,26.0,-6.0,-63.0,-920.0,-411.0
5.0,-241.0,-141.0,-47.0,28.0,-6.0,-61.0,-921.0,-416.0
3.0,-241.0,-143.0,-44.0,28.0,-6.0,-58.0,-917.0,-408.0
2.0,-238.0,-139.0,-42.0,31.0,-5.0,-62.0,-920.0,-418.0
2.0,-239.0,-146.0,-41.0,31.0,-5.0,-59.0,-917.0,-408.0
3.0,-241.0,-147.0,-42.0,31.0,-4.0,-59.0,-922.0,-410.0
1.0,-239.0,-140.0,-41.0,30.0,-4.0,-63.0,-917.0,-409.0
5.0,-242.0,-143.0,-44.0,29.0,-3.0,-60.0,-915.0,-409.0
5.0,-241.0,-142.0,-46.0,28.0,-3.0,-62.0,-913.0,-406.0
2.0,-242.0,-143.0,-47.0,26.0,-4.0,-55.0,-919.0,-416.0
1.0,-241.0,-142.0,-47.0,25.0,-6.0,-63.0,-918.0,-411.0
3.0,-242.0,-144.0,-48.0,24.0,-4.0,-62.0,-915.0,-414.0
3.0,-238.0,-143.0,-47.0,22.0,-2.0,-63.0,-923.0,-413.0
3.0,-245.0,-146.0,-46.0,21.0,-4.0,-64.0,-925.0,-419.0
2.0,-244.0,-141.0,-47.0,21.0,-4.0,-63.0,-925.0,-417.0
4.0,-244.0,-148.0,-45.0,19.0,-3.0,-61.0,-926.0,-414.0
3.0,-245.0,-139.0,-44.0,20.0,-4.0,-63.0,-925.0,-419.0
3.0,-244.0,-144.0,-40.0,20.0,-3.0,-64.0,-929.0,-415.0
3.0,-242.0,-145.0,-36.0,21.0,-4.0,-58.0,-925.0,-415.0
2.0,-244.0,-144.0,-34.0,19.0,-4.0,-58.0,-919.0,-412.0
4.0,-243.0,-147.0,-30.0,20.0,-5.0,-64.0,-914.0,-416.0
0.0,-241.0,-143.0,-27.0,20.0,-6.0,-65.0,-917.0,-411.0
3.0,-245.0,-142.0,-27.0,21.0,-6.0,-61.0,-914.0,-405.0
6.0,-240.0,-146.0,-27.0,21.0,-7.0,-63.0,-919.0,-407.0
1.0,-239.0,-144.0,-29.0,21.0,-7.0,-61.0,-916.0,-410.0
5.0,-243.0,-143.0,-29.0,22.0,-8.0,-67.0,-912.0,-406.0
5.0,-238.0,-140.0,-31.0,21.0,-9.0,-70.0,-910.0,-404.0
2.0,-238.0,-145.0,-33.0,21.0,-9.0,-60.0,-910.0,-409.0
2.0,-241.0,-143.0,-36.0,20.0,-9.0,-64.0,-911.0,-412.0
2.0,-239.0,-138.0,-39.0,19.0,-10.0,-67.0,-913.0,-408.0
4.0,-240.0,-145.0,-42.0,19.0,-11.0,-64.0,-913.0,-409.0
2.0,-238.0,-138.0,-44.0,17.0,-11.0,-67.0,-912.0,-409.0
2.0,-239.0,-142.0,-46.0,18.0,-10.0,-63.0,-915.0,-411.0
1.0,-241.0,-145.0,-48.0,18.0,-10.0,-62.0,-911.0,-410.0
3.0,-240.0,-141.0,-48.0,19.0,-11.0,-62.0,-918.0,-413.0
2.0,-239.0,-141.0,-48.0,19.0,-11.0,-65.0,-923.0,-409.0
2.0,-241.0,-143.0,-47.0,21.0,-11.0,-64.0,-921.0,-413.0
1.0,-242.0,-142.0,-45.0,23.0,-12.0,-63.0,-920.0,-408.0
4.0,-240.0,-141.0,-46.0,23.0,-13.0,-64.0,-916.0,-416.0
5.0,-241.0,-143.0,-43.0,25.0,-13.0,-61.0,-920.0,-410.0
4.0,-241.0,-141.0,-43.0,26.0,-12.0,-65.0,-918.0,-410.0
2.0,-241.0,-145.0,-40.0,27.0,-12.0,-61.0,-913.0,-410.0
3.0,-237.0,-143.0,-38.0,27.0,-12.0,-64.0,-916.0,-411.0
4.0,-240.0,-144.0,-37.0,27.0,-11.0,-59.0,-912.0,-410.0
5.0,-231.0,-139.0,-36.0,27.0,-10.0,-64.0,-916.0,-411.0
5.0,-241.0,-143.0,-37.0,29.0,-11.0,-60.0,-912.0,-413.0
5.0,-239.0,-147.0,-37.0,27.0,-11.0,-60.0,-911.0,-413.0
4.0,-241.0,-142.0,-38.0,26.0,-10.0,-55.0,-916.0,-416.0
6.0,-241.0,-144.0,-39.0,26.0,-11.0,-59.0,-906.0,-416.0
5.0,-239.0,-144.0,-40.0,22.0,-11.0,-61.0,-909.0,-413.0
2.0,-240.0,-146.0,-41.0,23.0,-10.0,-58.0,-912.0,-414.0
5.0,-238.0,-146.0,-43.0,21.0,-9.0,-59.0,-909.0,-415.0
3.0,-239.0,-146.0,-45.0,19.0,-10.0,-59.0,-916.0,-423.0
2.0,-239.0,-144.0,-46.0,19.0,-9.0,-61.0,-915.0,-417.0
5.0,-242.0,-142.0,-47.0,18.0,-10.0,-60.0,-912.0,-413.0
3.0,-242.0,-143.0,-48.0,17.0,-11.0,-62.0,-917.0,-412.0
4.0,-239.0,-141.0,-48.0,16.0,-11.0,-60.0,-916.0,-414.0
3.0,-242.0,-143.0,-49.0,14.0,-12.0,-56.0,-921.0,-410.0
6.0,-243.0,-143.0,-48.0,14.0,-12.0,-60.0,-919.0,-411.0
2.0,-242.0,-142.0,-46.0,13.0,-11.0,-56.0,-922.0,-409.0
5.0,-243.0,-139.0,-43.0,12.0,-12.0,-61.0,-920.0,-408.0
5.0,-239.0,-143.0,-42.0,11.0,-13.0,-61.0,-915.0,-411.0
4.0,-242.0,-142.0,-40.0,12.0,-12.0,-60.0,-921.0,-409.0
4.0,-242.0,-142.0,-40.0,13.0,-13.0,-61.0,-919.0,-405.0
5.0,-241.0,-139.0,-39.0,13.0,-13.0,-62.0,-924.0,-408.0
3.0,-242.0,-140.0,-39.0,14.0,-13.0,-55.0,-921.0,-407.0
-3.0,-239.0,-140.0,-39.0,15.0,-13.0,-61.0,-919.0,-410.0
3.0,-240.0,-141.0,-38.0,16.0,-12.0,-61.0,-918.0,-402.0
4.0,-238.0,-143.0,-39.0,16.0,-12.0,-57.0,-921.0,-402.0
5.0,-241.0,-144.0,-40.0,17.0,-13.0,-65.0,-922.0,-404.0
6.0,-245.0,-144.0,-41.0,16.0,-13.0,-65.0,-919.0,-412.0
6.0,-242.0,-141.0,-42.0,18.0,-12.0,-63.0,-919.0,-406.0
3.0,-241.0,-139.0,-43.0,20.0,-12.0,-60.0,-920.0,-404.0
4.0,-241.0,-138.0,-45.0,20.0,-11.0,-60.0,-923.0,-411.0
3.0,-235.0,-141.0,-44.0,20.0,-11.0,-63.0,-923.0,-409.0
3.0,-242.0,-137.0,-45.0,21.0,-11.0,-62.0,-921.0,-403.0
4.0,-242.0,-141.0,-44.0,19.0,-12.0,-59.0,-919.0,-406.0
5.0,-239.0,-139.0,-43.0,21.0,-13.0,-61.0,-919.0,-411.0
5.0,-242.0,-142.0,-45.0,22.0,-13.0,-59.0,-918.0,-407.0
4.0,-238.0,-143.0,-45.0,21.0,-12.0,-59.0,-917.0,-409.0
5.0,-239.0,-142.0,-45.0,19.0,-15.0,-62.0,-920.0,-411.0
2.0,-238.0,-143.0,-45.0,19.0,-13.0,-58.0,-918.0,-410.0
4.0,-239.0,-139.0,-43.0,18.0,-14.0,-59.0,-918.0,-409.0
2.0,-240.0,-143.0,-43.0,19.0,-14.0,-57.0,-913.0,-407.0
5.0,-239.0,-143.0,-44.0,17.0,-15.0,-58.0,-915.0,-410.0
5.0,-241.0,-143.0,-44.0,15.0,-15.0,-54.0,-913.0,-408.0
6.0,-241.0,-139.0,-44.0,15.0,-15.0,-56.0,-918.0,-411.0
6.0,-241.0,-144.0,-47.0,13.0,-14.0,-56.0,-902.0,-405.0
5.0,-248.0,-138.0,-47.0,14.0,-14.0,-60.0,-913.0,-399.0
6.0,-242.0,-140.0,-46.0,15.0,-14.0,-58.0,-913.0,-407.0
4.0,-242.0,-141.0,-46.0,14.0,-14.0,-61.0,-918.0,-410.0
4.0,-242.0,-142.0,-47.0,14.0,-14.0,-59.0,-917.0,-410.0
4.0,-239.0,-147.0,-49.0,16.0,-13.0,-56.0,-920.0,-410.0
5.0,-242.0,-138.0,-53.0,17.0,-13.0,-56.0,-924.0,-407.0
4.0,-242.0,-139.0,-52.0,20.0,-11.0,-55.0,-923.0,-410.0
2.0,-241.0,-144.0,-51.0,21.0,-12.0,-57.0,-924.0,-410.0
3.0,-240.0,-142.0,-49.0,21.0,-9.0,-56.0,-924.0,-408.0
13.0,-243.0,-137.0,-45.0,20.0,-10.0,-55.0,-925.0,-410.0
5.0,-246.0,-141.0,-40.0,21.0,-11.0,-60.0,-925.0,-408.0
6.0,-242.0,-140.0,-37.0,20.0,-11.0,-61.0,-922.0,-410.0
8.0,-243.0,-142.0,-33.0,21.0,-9.0,-57.0,-921.0,-404.0
4.0,-240.0,-145.0,-29.0,19.0,-10.0,-62.0,-922.0,-413.0
4.0,-240.0,-140.0,-27.0,20.0,-9.0,-61.0,-917.0,-406.0
6.0,-242.0,-144.0,-25.0,18.0,-10.0,-60.0,-915.0,-411.0
7.0,-240.0,-146.0,-27.0,17.0,-10.0,-62.0,-916.0,-410.0
7.0,-235.0,-143.0,-28.0,17.0,-11.0,-66.0,-911.0,-414.0
1.0,-236.0,-145.0,-31.0,17.0,-12.0,-60.0,-907.0,-410.0
3.0,-236.0,-138.0,-33.0,16.0,-12.0,-60.0,-907.0,-411.0
4.0,-247.0,-130.0,-36.0,14.0,-13.0,-61.0,-901.0,-407.0
2.0,-237.0,-142.0,-39.0,13.0,-13.0,-61.0,-902.0,-405.0
7.0,-238.0,-143.0,-40.0,12.0,-13.0,-63.0,-899.0,-403.0
1.0,-237.0,-145.0,-41.0,12.0,-13.0,-58.0,-899.0,-408.0
2.0,-235.0,-143.0,-44.0,10.0,-13.0,-57.0,-894.0,-410.0
3.0,-236.0,-142.0,-49.0,9.0,-12.0,-57.0,-905.0,-415.0
5.0,-243.0,-143.0,-56.0,5.0,-11.0,-64.0,-900.0,-418.0
3.0,-236.0,-147.0,-64.0,4.0,-10.0,-59.0,-901.0,-421.0
3.0,-241.0,-147.0,-74.0,1.0,-8.0,-66.0,-908.0,-428.0
4.0,-239.0,-148.0,-80.0,-1.0,-9.0,-67.0,-911.0,-424.0
3.0,-242.0,-148.0,-83.0,-1.0,-7.0,-65.0,-922.0,-424.0
2.0,-250.0,-135.0,-83.0,-2.0,-7.0,-67.0,-922.0,-431.0
2.0,-239.0,-149.0,-81.0,-1.0,-6.0,-66.0,-928.0,-428.0
3.0,-242.0,-145.0,-80.0,-1.0,-8.0,-60.0,-923.0,-423.0
4.0,-244.0,-146.0,-75.0,1.0,-9.0,-61.0,-925.0,-427.0
3.0,-244.0,-144.0,-67.0,3.0,-8.0,-54.0,-923.0,-429.0
3.0,-241.0,-149.0,-58.0,6.0,-9.0,-59.0,-922.0,-419.0
2.0,-237.0,-143.0,-50.0,8.0,-10.0,-63.0,-919.0,-421.0
3.0,-238.0,-146.0,-45.0,11.0,-12.0,-59.0,-910.0,-419.0
6.0,-239.0,-148.0,-43.0,11.0,-12.0,-56.0,-901.0,-423.0
2.0,-236.0,-145.0,-41.0,10.0,-13.0,-59.0,-903.0,-422.0
4.0,-237.0,-149.0,-45.0,11.0,-13.0,-63.0,-897.0,-425.0
3.0,-233.0,-147.0,-52.0,10.0,-14.0,-61.0,-903.0,-428.0
7.0,-237.0,-146.0,-61.0,6.0,-18.0,-60.0,-895.0,-433.0
4.0,-235.0,-145.0,-69.0,6.0,-17.0,-61.0,-891.0,-431.0
4.0,-237.0,-151.0,-78.0,4.0,-19.0,-64.0,-898.0,-441.0
4.0,-233.0,-153.0,-84.0,2.0,-20.0,-57.0,-888.0,-441.0
5.0,-233.0,-149.0,-88.0,2.0,-21.0,-67.0,-895.0,-441.0
4.0,-234.0,-149.0,-91.0,2.0,-22.0,-58.0,-891.0,-445.0
2.0,-233.0,-154.0,-91.0,2.0,-22.0,-65.0,-885.0,-445.0
2.0,-232.0,-151.0,-94.0,2.0,-23.0,-61.0,-877.0,-450.0
3.0,-230.0,-152.0,-97.0,5.0,-23.0,-63.0,-874.0,-454.0
2.0,-227.0,-156.0,-100.0,7.0,-23.0,-62.0,-869.0,-454.0
3.0,-228.0,-157.0,-106.0,11.0,-22.0,-61.0,-858.0,-456.0
4.0,-225.0,-156.0,-116.0,12.0,-21.0,-62.0,-858.0,-459.0
2.0,-223.0,-160.0,-128.0,16.0,-19.0,-59.0,-841.0,-462.0
2.0,-220.0,-155.0,-140.0,20.0,-15.0,-62.0,-840.0,-469.0
1.0,-215.0,-158.0,-152.0,24.0,-13.0,-56.0,-822.0,-469.0
7.0,-216.0,-156.0,-166.0,27.0,-9.0,-50.0,-818.0,-477.0
4.0,-212.0,-160.0,-178.0,31.0,-6.0,-53.0,-804.0,-476.0
8.0,-208.0,-161.0,-196.0,38.0,-2.0,-50.0,-793.0,-479.0
7.0,-206.0,-165.0,-211.0,41.0,2.0,-48.0,-786.0,-487.0
5.0,-203.0,-164.0,-228.0,43.0,5.0,-53.0,-779.0,-487.0
7.0,-203.0,-164.0,-241.0,44.0,8.0,-54.0,-764.0,-483.0
6.0,-199.0,-164.0,-252.0,41.0,9.0,-52.0,-757.0,-491.0
3.0,-198.0,-163.0,-265.0,36.0,11.0,-59.0,-750.0,-498.0
2.0,-198.0,-172.0,-275.0,33.0,12.0,-64.0,-739.0,-492.0
0.0,-195.0,-167.0,-288.0,26.0,15.0,-73.0,-744.0,-497.0
0.0,-195.0,-169.0,-302.0,17.0,17.0,-75.0,-734.0,-511.0
0.0,-193.0,-170.0,-320.0,10.0,19.0,-82.0,-735.0,-519.0
-1.0,-193.0,-173.0,-337.0,4.0,23.0,-81.0,-734.0,-519.0
0.0,-194.0,-171.0,-356.0,-4.0,27.0,-77.0,-733.0,-529.0
0.0,-196.0,-174.0,-378.0,-9.0,31.0,-79.0,-738.0,-528.0
1.0,-194.0,-174.0,-398.0,-10.0,36.0,-80.0,-735.0,-538.0
0.0,-193.0,-177.0,-417.0,-12.0,43.0,-75.0,-743.0,-541.0
0.0,-195.0,-172.0,-437.0,-14.0,48.0,-75.0,-736.0,-545.0
2.0,-197.0,-174.0,-452.0,-13.0,55.0,-69.0,-736.0,-544.0
3.0,-193.0,-174.0,-467.0,-12.0,62.0,-71.0,-732.0,-543.0
2.0,-193.0,-179.0,-481.0,-8.0,70.0,-67.0,-735.0,-542.0
3.0,-197.0,-176.0,-493.0,-4.0,77.0,-67.0,-726.0,-541.0
2.0,-189.0,-174.0,-502.0,-2.0,85.0,-68.0,-727.0,-536.0
3.0,-192.0,-173.0,-509.0,0.0,91.0,-61.0,-726.0,-534.0
1.0,-191.0,-173.0,-511.0,2.0,98.0,-69.0,-713.0,-530.0
2.0,-186.0,-171.0,-513.0,0.0,106.0,-65.0,-713.0,-519.0
2.0,-188.0,-172.0,-515.0,-4.0,114.0,-63.0,-703.0,-530.0
3.0,-186.0,-174.0,-518.0,-7.0,121.0,-69.0,-694.0,-534.0
1.0,-182.0,-172.0,-523.0,-11.0,128.0,-67.0,-686.0,-539.0
7.0,-179.0,-183.0,-533.0,-14.0,134.0,-76.0,-676.0,-537.0
0.0,-178.0,-177.0,-546.0,-20.0,140.0,-83.0,-666.0,-543.0
-2.0,-176.0,-174.0,-563.0,-27.0,147.0,-79.0,-663.0,-548.0
-2.0,-173.0,-178.0,-582.0,-33.0,149.0,-91.0,-653.0,-549.0
-5.0,-173.0,-183.0,-601.0,-41.0,154.0,-91.0,-648.0,-552.0
-5.0,-169.0,-180.0,-620.0,-48.0,157.0,-98.0,-641.0,-558.0
-5.0,-171.0,-181.0,-637.0,-57.0,161.0,-101.0,-636.0,-558.0
-5.0,-169.0,-177.0,-650.0,-66.0,166.0,-102.0,-632.0,-554.0
-5.0,-169.0,-175.0,-663.0,-78.0,170.0,-106.0,-628.0,-547.0
-8.0,-164.0,-175.0,-674.0,-91.0,173.0,-109.0,-611.0,-542.0
-7.0,-165.0,-175.0,-683.0,-106.0,176.0,-106.0,-612.0,-538.0
-3.0,-159.0,-178.0,-688.0,-122.0,177.0,-103.0,-603.0,-541.0
-6.0,-155.0,-177.0,-693.0,-134.0,180.0,-101.0,-597.0,-533.0
-8.0,-153.0,-175.0,-698.0,-146.0,181.0,-105.0,-576.0,-538.0
-5.0,-152.0,-174.0,-699.0,-156.0,180.0,-104.0,-569.0,-522.0
-5.0,-151.0,-169.0,-703.0,-167.0,180.0,-100.0,-559.0,-519.0
-6.0,-146.0,-171.0,-704.0,-178.0,175.0,-107.0,-550.0,-508.0
-7.0,-144.0,-170.0,-708.0,-190.0,172.0,-107.0,-539.0,-499.0
-9.0,-141.0,-166.0,-712.0,-202.0,168.0,-108.0,-523.0,-494.0
-10.0,-140.0,-166.0,-717.0,-214.0,161.0,-112.0,-518.0,-482.0
-12.0,-139.0,-157.0,-723.0,-227.0,155.0,-118.0,-506.0,-474.0
-9.0,-133.0,-152.0,-727.0,-239.0,146.0,-112.0,-499.0,-461.0
-12.0,-132.0,-154.0,-735.0,-254.0,134.0,-107.0,-498.0,-445.0
-6.0,-129.0,-151.0,-741.0,-268.0,121.0,-103.0,-485.0,-443.0
-3.0,-129.0,-150.0,-745.0,-274.0,106.0,-96.0,-482.0,-436.0
-1.0,-128.0,-148.0,-750.0,-278.0,91.0,-91.0,-473.0,-430.0
0.0,-127.0,-145.0,-752.0,-279.0,76.0,-83.0,-478.0,-424.0
1.0,-128.0,-150.0,-758.0,-279.0,57.0,-73.0,-477.0,-425.0
4.0,-128.0,-148.0,-770.0,-276.0,37.0,-71.0,-481.0,-427.0
3.0,-130.0,-151.0,-788.0,-268.0,19.0,-65.0,-489.0,-433.0
1.0,-132.0,-153.0,-808.0,-255.0,0.0,-69.0,-489.0,-432.0
2.0,-135.0,-151.0,-830.0,-238.0,-17.0,-68.0,-502.0,-436.0
2.0,-137.0,-153.0,-852.0,-221.0,-28.0,-72.0,-513.0,-444.0
4.0,-140.0,-155.0,-880.0,-203.0,-37.0,-68.0,-523.0,-444.0
0.0,-146.0,-152.0,-909.0,-183.0,-42.0,-76.0,-543.0,-446.0
0.0,-150.0,-153.0,-939.0,-161.0,-46.0,-79.0,-570.0,-458.0
2.0,-156.0,-160.0,-964.0,-135.0,-50.0,-89.0,-579.0,-468.0
-5.0,-162.0,-164.0,-979.0,-108.0,-48.0,-104.0,-605.0,-492.0
-8.0,-167.0,-169.0,-981.0,-80.0,-41.0,-110.0,-628.0,-511.0
-9.0,-177.0,-170.0,-969.0,-55.0,-30.0,-115.0,-658.0,-533.0
-14.0,-186.0,-179.0,-950.0,-35.0,-16.0,-129.0,-693.0,-545.0
-13.0,-192.0,-182.0,-926.0,-13.0,1.0,-132.0,-723.0,-546.0
-17.0,-200.0,-173.0,-897.0,6.0,18.0,-144.0,-761.0,-544.0
-11.0,-218.0,-172.0,-864.0,24.0,34.0,-146.0,-782.0,-540.0
-18.0,-212.0,-172.0,-830.0,38.0,46.0,-146.0,-799.0,-531.0
-18.0,-218.0,-171.0,-795.0,50.0,56.0,-154.0,-812.0,-534.0
-20.0,-217.0,-173.0,-755.0,61.0,62.0,-158.0,-821.0,-536.0
-19.0,-222.0,-173.0,-709.0,69.0,67.0,-150.0,-843.0,-526.0
-17.0,-230.0,-177.0,-658.0,73.0,72.0,-152.0,-865.0,-540.0
-16.0,-235.0,-171.0,-602.0,75.0,77.0,-147.0,-874.0,-534.0
-13.0,-238.0,-181.0,-542.0,73.0,77.0,-143.0,-890.0,-542.0
-15.0,-243.0,-171.0,-479.0,73.0,73.0,-142.0,-905.0,-539.0
-15.0,-244.0,-174.0,-411.0,74.0,64.0,-135.0,-920.0,-539.0
-10.0,-247.0,-176.0,-337.0,75.0,51.0,-133.0,-934.0,-542.0
-11.0,-249.0,-175.0,-261.0,76.0,33.0,-120.0,-942.0,-546.0
-4.0,-254.0,-178.0,-187.0,78.0,11.0,-112.0,-948.0,-543.0
-5.0,-254.0,-177.0,-116.0,77.0,-12.0,-108.0,-960.0,-546.0
-5.0,-254.0,-179.0,-50.0,69.0,-30.0,-94.0,-963.0,-549.0
0.0,-257.0,-183.0,17.0,59.0,-45.0,-86.0,-968.0,-554.0
1.0,-255.0,-181.0,78.0,47.0,-63.0,-77.0,-958.0,-553.0
2.0,-255.0,-179.0,145.0,32.0,-78.0,-79.0,-957.0,-560.0
1.0,-256.0,-179.0,214.0,11.0,-80.0,-74.0,-953.0,-554.0
1.0,-250.0,-177.0,284.0,-8.0,-75.0,-72.0,-948.0,-558.0
1.0,-250.0,-181.0,353.0,-26.0,-64.0,-70.0,-932.0,-554.0
2.0,-245.0,-174.0,413.0,-38.0,-45.0,-61.0,-924.0,-550.0
3.0,-239.0,-184.0,465.0,-45.0,-22.0,-61.0,-912.0,-548.0
4.0,-243.0,-180.0,511.0,-43.0,5.0,-56.0,-912.0,-556.0
8.0,-244.0,-181.0,554.0,-39.0,36.0,-49.0,-914.0,-557.0
4.0,-243.0,-180.0,601.0,-35.0,59.0,-58.0,-917.0,-559.0
3.0,-242.0,-182.0,648.0,-33.0,85.0,-47.0,-919.0,-563.0
8.0,-240.0,-176.0,689.0,-34.0,111.0,-47.0,-906.0,-550.0
8.0,-235.0,-173.0,725.0,-37.0,132.0,-51.0,-888.0,-545.0
6.0,-229.0,-177.0,760.0,-34.0,149.0,-44.0,-867.0,-537.0
9.0,-229.0,-179.0,788.0,-27.0,157.0,-34.0,-858.0,-548.0
10.0,-224.0,-185.0,815.0,-19.0,152.0,-44.0,-857.0,-565.0
27.0,-204.0,-179.0,831.0,-4.0,148.0,-39.0,-850.0,-581.0
10.0,-226.0,-192.0,837.0,12.0,141.0,-35.0,-855.0,-594.0
5.0,-226.0,-196.0,837.0,27.0,135.0,-50.0,-854.0,-611.0
4.0,-232.0,-197.0,830.0,49.0,136.0,-61.0,-872.0,-627.0
2.0,-237.0,-202.0,818.0,70.0,140.0,-69.0,-889.0,-656.0
-7.0,-238.0,-205.0,800.0,90.0,138.0,-103.0,-922.0,-665.0
-15.0,-248.0,-208.0,781.0,107.0,138.0,-133.0,-935.0,-677.0
-18.0,-254.0,-210.0,764.0,117.0,142.0,-154.0,-961.0,-683.0
-20.0,-257.0,-209.0,745.0,121.0,151.0,-161.0,-980.0,-687.0
-25.0,-261.0,-208.0,733.0,124.0,154.0,-172.0,-995.0,-682.0
-33.0,-265.0,-202.0,731.0,127.0,145.0,-199.0,-1017.0,-680.0
-30.0,-261.0,-215.0,732.0,131.0,153.0,-201.0,-1024.0,-670.0
-32.0,-275.0,-205.0,737.0,134.0,151.0,-200.0,-1031.0,-659.0
-27.0,-271.0,-199.0,748.0,130.0,138.0,-186.0,-1025.0,-644.0
-33.0,-272.0,-202.0,765.0,119.0,108.0,-205.0,-1028.0,-639.0
-38.0,-268.0,-195.0,779.0,109.0,101.0,-218.0,-1019.0,-631.0
-30.0,-270.0,-192.0,790.0,102.0,122.0,-185.0,-1014.0,-620.0
-22.0,-267.0,-196.0,803.0,88.0,106.0,-153.0,-1024.0,-628.0
-15.0,-264.0,-194.0,804.0,76.0,60.0,-146.0,-1008.0,-624.0
-23.0,-258.0,-192.0,792.0,73.0,15.0,-164.0,-986.0,-625.0
-25.0,-249.0,-195.0,773.0,75.0,3.0,-169.0,-958.0,-624.0
-24.0,-244.0,-195.0,744.0,89.0,8.0,-173.0,-940.0,-627.0
-19.0,-237.0,-195.0,708.0,103.0,16.0,-164.0,-920.0,-634.0
-17.0,-241.0,-206.0,670.0,123.0,27.0,-139.0,-918.0,-648.0
-18.0,-237.0,-210.0,622.0,147.0,25.0,-153.0,-911.0,-654.0
-17.0,-236.0,-199.0,571.0,171.0,25.0,-146.0,-893.0,-645.0
-16.0,-240.0,-195.0,522.0,182.0,26.0,-151.0,-911.0,-641.0
-19.0,-237.0,-195.0,473.0,189.0,29.0,-153.0,-913.0,-626.0
-19.0,-242.0,-194.0,427.0,187.0,40.0,-155.0,-922.0,-613.0
-21.0,-245.0,-195.0,393.0,178.0,55.0,-149.0,-931.0,-608.0
-18.0,-253.0,-192.0,366.0,169.0,60.0,-132.0,-965.0,-616.0
-14.0,-260.0,-191.0,346.0,163.0,49.0,-118.0,-990.0,-607.0
-16.0,-264.0,-187.0,335.0,166.0,29.0,-148.0,-1001.0,-590.0
-24.0,-269.0,-181.0,333.0,164.0,28.0,-163.0,-1020.0,-576.0
-12.0,-273.0,-181.0,341.0,162.0,27.0,-135.0,-1028.0,-566.0
-24.0,-273.0,-180.0,360.0,160.0,7.0,-170.0,-1035.0,-556.0
-23.0,-279.0,-180.0,379.0,160.0,12.0,-162.0,-1063.0,-560.0
-14.0,-281.0,-175.0,401.0,162.0,13.0,-133.0,-1072.0,-543.0
-20.0,-283.0,-173.0,432.0,164.0,-10.0,-159.0,-1074.0,-529.0
-17.0,-285.0,-172.0,470.0,174.0,-7.0,-152.0,-1083.0,-525.0
-15.0,-284.0,-164.0,515.0,185.0,0.0,-136.0,-1088.0,-502.0
-7.0,-289.0,-162.0,569.0,195.0,6.0,-108.0,-1100.0,-494.0
-3.0,-296.0,-165.0,633.0,210.0,-2.0,-93.0,-1115.0,-485.0
0.0,-303.0,-157.0,704.0,227.0,-22.0,-76.0,-1124.0,-459.0
3.0,-303.0,-148.0,783.0,230.0,-49.0,-67.0,-1143.0,-436.0
-10.0,-307.0,-138.0,876.0,229.0,-80.0,-106.0,-1151.0,-395.0
0.0,-320.0,-137.0,985.0,224.0,-90.0,-76.0,-1207.0,-374.0
9.0,-338.0,-126.0,1093.0,217.0,-116.0,-41.0,-1276.0,-329.0
2.0,-351.0,-115.0,1217.0,215.0,-166.0,-79.0,-1323.0,-302.0
4.0,-368.0,-110.0,1367.0,222.0,-192.0,-72.0,-1385.0,-265.0
-5.0,-386.0,-104.0,1553.0,234.0,-219.0,-110.0,-1454.0,-255.0
0.0,-393.0,-107.0,1763.0,251.0,-250.0,-104.0,-1475.0,-252.0
-9.0,-394.0,-122.0,1995.0,267.0,-299.0,-107.0,-1477.0,-317.0
-30.0,-377.0,-146.0,2217.0,278.0,-346.0,-194.0,-1429.0,-415.0
-28.0,-364.0,-170.0,2382.0,297.0,-350.0,-187.0,-1388.0,-517.0
-23.0,-335.0,-187.0,2453.0,306.0,-358.0,-182.0,-1286.0,-604.0
-35.0,-316.0,-216.0,2433.0,306.0,-374.0,-208.0,-1241.0,-699.0
-49.0,-290.0,-216.0,2297.0,305.0,-385.0,-257.0,-1149.0,-715.0
-58.0,-284.0,-218.0,2101.0,300.0,-383.0,-262.0,-1122.0,-710.0
-55.0,-276.0,-211.0,1863.0,296.0,-358.0,-281.0,-1093.0,-684.0
-45.0,-276.0,-201.0,1605.0,263.0,-305.0,-253.0,-1075.0,-628.0
-27.0,-289.0,-180.0,1378.0,239.0,-273.0,-183.0,-1110.0,-569.0
-18.0,-295.0,-154.0,1191.0,217.0,-253.0,-150.0,-1137.0,-486.0
-2.0,-313.0,-136.0,1055.0,190.0,-235.0,-101.0,-1188.0,-415.0
1.0,-316.0,-131.0,956.0,153.0,-232.0,-61.0,-1210.0,-375.0
6.0,-315.0,-131.0,877.0,117.0,-241.0,-47.0,-1213.0,-356.0
9.0,-315.0,-125.0,797.0,82.0,-248.0,-34.0,-1213.0,-344.0
13.0,-319.0,-126.0,714.0,48.0,-255.0,-18.0,-1221.0,-334.0
17.0,-320.0,-122.0,638.0,16.0,-265.0,-12.0,-1231.0,-316.0
14.0,-320.0,-121.0,575.0,-6.0,-275.0,-7.0,-1222.0,-310.0
15.0,-315.0,-118.0,528.0,-23.0,-281.0,-8.0,-1206.0,-307.0
13.0,-307.0,-118.0,487.0,-32.0,-280.0,-23.0,-1180.0,-306.0
11.0,-303.0,-119.0,448.0,-39.0,-275.0,-28.0,-1143.0,-303.0
10.0,-287.0,-114.0,405.0,-45.0,-267.0,-36.0,-1109.0,-294.0
8.0,-278.0,-112.0,362.0,-51.0,-254.0,-47.0,-1073.0,-291.0
5.0,-268.0,-110.0,322.0,-59.0,-246.0,-54.0,-1028.0,-265.0
5.0,-265.0,-97.0,288.0,-69.0,-238.0,-55.0,-1001.0,-243.0
2.0,-254.0,-96.0,262.0,-79.0,-231.0,-66.0,-970.0,-220.0
2.0,-246.0,-88.0,251.0,-92.0,-224.0,-64.0,-943.0,-182.0
3.0,-239.0,-84.0,254.0,-107.0,-218.0,-75.0,-913.0,-155.0
0.0,-233.0,-73.0,268.0,-120.0,-210.0,-79.0,-876.0,-129.0
1.0,-226.0,-67.0,294.0,-131.0,-194.0,-72.0,-840.0,-91.0
4.0,-214.0,-61.0,327.0,-141.0,-176.0,-80.0,-808.0,-68.0
4.0,-207.0,-52.0,365.0,-148.0,-155.0,-71.0,-787.0,-43.0
5.0,-200.0,-46.0,401.0,-154.0,-131.0,-55.0,-759.0,-20.0
8.0,-195.0,-41.0,431.0,-155.0,-108.0,-49.0,-742.0,11.0
11.0,-196.0,-37.0,453.0,-155.0,-86.0,-44.0,-737.0,27.0
13.0,-193.0,-33.0,464.0,-152.0,-64.0,-29.0,-740.0,46.0
15.0,-197.0,-29.0,466.0,-146.0,-48.0,-19.0,-753.0,48.0
17.0,-201.0,-26.0,461.0,-142.0,-34.0,-19.0,-766.0,65.0
20.0,-209.0,-25.0,451.0,-137.0,-25.0,-15.0,-791.0,68.0
17.0,-217.0,-28.0,442.0,-132.0,-21.0,-14.0,-826.0,72.0
16.0,-222.0,-25.0,437.0,-126.0,-21.0,-14.0,-858.0,67.0
18.0,-234.0,-32.0,435.0,-119.0,-24.0,-26.0,-886.0,53.0
14.0,-245.0,-35.0,444.0,-109.0,-27.0,-28.0,-931.0,37.0
13.0,-253.0,-40.0,462.0,-96.0,-36.0,-32.0,-957.0,21.0
15.0,-263.0,-48.0,488.0,-84.0,-46.0,-34.0,-994.0,0.0
14.0,-272.0,-50.0,516.0,-66.0,-62.0,-37.0,-1026.0,-31.0
17.0,-280.0,-59.0,546.0,-49.0,-80.0,-38.0,-1059.0,-54.0
11.0,-282.0,-63.0,577.0,-31.0,-101.0,-38.0,-1082.0,-82.0
11.0,-288.0,-69.0,607.0,-14.0,-123.0,-38.0,-1101.0,-105.0
10.0,-290.0,-73.0,634.0,5.0,-143.0,-40.0,-1110.0,-120.0
12.0,-292.0,-74.0,657.0,22.0,-164.0,-39.0,-1123.0,-133.0
9.0,-293.0,-76.0,679.0,38.0,-183.0,-44.0,-1122.0,-143.0
10.0,-296.0,-78.0,696.0,52.0,-202.0,-38.0,-1117.0,-141.0
9.0,-294.0,-77.0,708.0,63.0,-217.0,-40.0,-1118.0,-141.0
13.0,-291.0,-80.0,716.0,73.0,-230.0,-35.0,-1115.0,-136.0
12.0,-288.0,-76.0,720.0,80.0,-242.0,-35.0,-1106.0,-130.0
8.0,-284.0,-76.0,718.0,86.0,-250.0,-35.0,-1090.0,-126.0
9.0,-281.0,-72.0,711.0,86.0,-256.0,-39.0,-1076.0,-122.0
8.0,-277.0,-74.0,698.0,83.0,-255.0,-39.0,-1065.0,-116.0
10.0,-272.0,-69.0,681.0,79.0,-252.0,-46.0,-1043.0,-107.0
9.0,-268.0,-71.0,661.0,71.0,-246.0,-41.0,-1039.0,-108.0
7.0,-265.0,-70.0,635.0,62.0,-236.0,-40.0,-1022.0,-102.0
8.0,-259.0,-65.0,607.0,48.0,-226.0,-48.0,-1005.0,-102.0
7.0,-259.0,-64.0,575.0,35.0,-213.0,-45.0,-995.0,-101.0
7.0,-255.0,-70.0,540.0,22.0,-198.0,-41.0,-983.0,-104.0
5.0,-255.0,-68.0,506.0,6.0,-186.0,-47.0,-974.0,-107.0
6.0,-252.0,-69.0,469.0,-10.0,-168.0,-49.0,-967.0,-98.0
6.0,-253.0,-73.0,433.0,-27.0,-150.0,-51.0,-967.0,-104.0
5.0,-247.0,-66.0,397.0,-43.0,-134.0,-55.0,-949.0,-102.0
6.0,-247.0,-67.0,366.0,-56.0,-116.0,-51.0,-949.0,-99.0
10.0,-244.0,-68.0,337.0,-69.0,-99.0,-52.0,-944.0,-100.0
11.0,-247.0,-70.0,313.0,-82.0,-83.0,-46.0,-941.0,-97.0
9.0,-248.0,-66.0,290.0,-95.0,-66.0,-43.0,-933.0,-100.0
10.0,-244.0,-67.0,271.0,-108.0,-51.0,-41.0,-932.0,-97.0
7.0,-245.0,-63.0,260.0,-117.0,-38.0,-37.0,-932.0,-91.0
12.0,-243.0,-64.0,248.0,-124.0,-29.0,-32.0,-938.0,-92.0
11.0,-245.0,-65.0,239.0,-128.0,-21.0,-29.0,-929.0,-88.0
14.0,-248.0,-64.0,235.0,-133.0,-15.0,-23.0,-943.0,-88.0
18.0,-247.0,-65.0,235.0,-132.0,-11.0,-17.0,-948.0,-83.0
20.0,-251.0,-63.0,237.0,-127.0,-12.0,-6.0,-950.0,-70.0
18.0,-251.0,-60.0,241.0,-121.0,-15.0,-3.0,-964.0,-70.0
22.0,-255.0,-59.0,244.0,-109.0,-20.0,3.0,-977.0,-65.0
21.0,-257.0,-59.0,251.0,-93.0,-27.0,6.0,-982.0,-58.0
20.0,-258.0,-58.0,258.0,-75.0,-35.0,5.0,-986.0,-58.0
23.0,-261.0,-54.0,267.0,-57.0,-43.0,11.0,-994.0,-53.0
27.0,-265.0,-59.0,273.0,-34.0,-50.0,13.0,-1005.0,-45.0
23.0,-266.0,-53.0,284.0,-14.0,-60.0,14.0,-1011.0,-40.0
24.0,-269.0,-51.0,294.0,6.0,-67.0,13.0,-1018.0,-31.0
25.0,-267.0,-50.0,305.0,24.0,-73.0,11.0,-1020.0,-26.0
23.0,-274.0,-55.0,318.0,41.0,-79.0,14.0,-1024.0,-26.0
21.0,-269.0,-51.0,332.0,55.0,-83.0,12.0,-1025.0,-20.0
23.0,-269.0,-46.0,347.0,64.0,-86.0,9.0,-1026.0,-15.0
21.0,-269.0,-46.0,359.0,73.0,-89.0,6.0,-1019.0,-9.0
22.0,-265.0,-47.0,374.0,77.0,-89.0,2.0,-1014.0,-6.0
19.0,-263.0,-48.0,387.0,78.0,-88.0,-1.0,-1020.0,-1.0
20.0,-265.0,-46.0,398.0,76.0,-87.0,-1.0,-1007.0,2.0
19.0,-258.0,-39.0,406.0,72.0,-81.0,-1.0,-998.0,0.0
23.0,-260.0,-35.0,409.0,65.0,-77.0,-2.0,-992.0,10.0
18.0,-256.0,-40.0,408.0,60.0,-71.0,0.0,-981.0,9.0
34.0,-250.0,-54.0,405.0,53.0,-66.0,6.0,-981.0,15.0
22.0,-255.0,-36.0,396.0,46.0,-59.0,9.0,-973.0,17.0
22.0,-255.0,-39.0,386.0,40.0,-53.0,11.0,-968.0,18.0
23.0,-254.0,-35.0,373.0,34.0,-50.0,9.0,-965.0,18.0
22.0,-249.0,-35.0,359.0,28.0,-46.0,10.0,-958.0,20.0
23.0,-249.0,-37.0,344.0,24.0,-44.0,12.0,-957.0,26.0
25.0,-249.0,-38.0,325.0,22.0,-43.0,16.0,-950.0,24.0
24.0,-251.0,-30.0,306.0,19.0,-41.0,13.0,-952.0,29.0
24.0,-252.0,-33.0,284.0,17.0,-40.0,11.0,-958.0,38.0
21.0,-251.0,-31.0,261.0,15.0,-40.0,10.0,-963.0,40.0
22.0,-251.0,-31.0,239.0,15.0,-42.0,14.0,-960.0,44.0
28.0,-255.0,-23.0,217.0,14.0,-44.0,12.0,-971.0,47.0
23.0,-256.0,-27.0,201.0,14.0,-46.0,13.0,-977.0,45.0
25.0,-256.0,-25.0,187.0,16.0,-48.0,16.0,-975.0,51.0
26.0,-256.0,-28.0,176.0,20.0,-50.0,15.0,-983.0,53.0
26.0,-257.0,-29.0,168.0,21.0,-53.0,23.0,-989.0,53.0
27.0,-259.0,-31.0,163.0,24.0,-55.0,17.0,-990.0,56.0
24.0,-261.0,-31.0,159.0,29.0,-57.0,18.0,-991.0,52.0
24.0,-259.0,-27.0,157.0,32.0,-60.0,18.0,-994.0,55.0
25.0,-258.0,-29.0,153.0,35.0,-62.0,21.0,-1001.0,52.0
26.0,-257.0,-31.0,149.0,36.0,-64.0,16.0,-998.0,50.0
25.0,-262.0,-31.0,144.0,40.0,-65.0,14.0,-1003.0,57.0
22.0,-260.0,-25.0,138.0,41.0,-66.0,12.0,-1000.0,58.0
23.0,-259.0,-28.0,131.0,42.0,-66.0,6.0,-987.0,60.0
26.0,-262.0,-23.0,125.0,43.0,-64.0,4.0,-999.0,62.0
22.0,-262.0,-27.0,119.0,44.0,-62.0,8.0,-1005.0,63.0
22.0,-262.0,-27.0,118.0,47.0,-57.0,3.0,-1007.0,64.0
20.0,-263.0,-26.0,120.0,47.0,-55.0,4.0,-1004.0,66.0
21.0,-268.0,-24.0,121.0,48.0,-51.0,-1.0,-1007.0,66.0
23.0,-265.0,-25.0,122.0,49.0,-45.0,-3.0,-1006.0,68.0
20.0,-266.0,-28.0,127.0,51.0,-40.0,-2.0,-1006.0,64.0
16.0,-264.0,-27.0,134.0,54.0,-35.0,-2.0,-1005.0,69.0
20.0,-261.0,-22.0,138.0,57.0,-31.0,-2.0,-1002.0,70.0
24.0,-259.0,-30.0,137.0,60.0,-26.0,-2.0,-997.0,67.0
17.0,-260.0,-26.0,138.0,64.0,-23.0,-4.0,-998.0,71.0
20.0,-258.0,-24.0,135.0,69.0,-20.0,-5.0,-994.0,71.0
17.0,-258.0,-25.0,131.0,71.0,-18.0,-5.0,-997.0,77.0
21.0,-258.0,-24.0,128.0,73.0,-16.0,3.0,-992.0,72.0
22.0,-259.0,-25.0,123.0,75.0,-14.0,-2.0,-985.0,71.0
21.0,-256.0,-21.0,119.0,76.0,-14.0,-9.0,-986.0,74.0
19.0,-255.0,-22.0,114.0,74.0,-12.0,0.0,-986.0,79.0
20.0,-257.0,-22.0,109.0,74.0,-9.0,-5.0,-984.0,83.0
17.0,-256.0,-18.0,104.0,72.0,-9.0,5.0,-982.0,87.0
20.0,-255.0,-19.0,97.0,70.0,-6.0,-1.0,-982.0,91.0
21.0,-256.0,-19.0,92.0,67.0,-5.0,1.0,-981.0,92.0
21.0,-254.0,-15.0,88.0,63.0,-3.0,-1.0,-971.0,94.0
21.0,-256.0,-20.0,82.0,59.0,0.0,0.0,-977.0,93.0
19.0,-256.0,-18.0,78.0,55.0,2.0,2.0,-970.0,94.0
17.0,-256.0,-14.0,75.0,50.0,4.0,-6.0,-976.0,98.0
22.0,-255.0,-15.0,72.0,44.0,5.0,-8.0,-974.0,96.0
16.0,-253.0,-12.0,69.0,39.0,5.0,-2.0,-970.0,97.0
16.0,-253.0,-18.0,65.0,36.0,5.0,-12.0,-970.0,98.0
18.0,-254.0,-14.0,60.0,33.0,6.0,-13.0,-968.0,96.0
19.0,-254.0,-18.0,53.0,29.0,4.0,-7.0,-968.0,99.0
19.0,-254.0,-19.0,47.0,29.0,6.0,-6.0,-967.0,103.0
17.0,-255.0,-16.0,39.0,26.0,6.0,-8.0,-974.0,101.0
15.0,-255.0,-14.0,29.0,25.0,7.0,-11.0,-979.0,108.0
18.0,-253.0,-18.0,24.0,24.0,9.0,-7.0,-974.0,109.0
15.0,-255.0,-13.0,19.0,23.0,12.0,-7.0,-976.0,110.0
22.0,-257.0,-12.0,15.0,23.0,15.0,-7.0,-972.0,106.0
18.0,-256.0,-13.0,14.0,25.0,14.0,-6.0,-986.0,104.0
20.0,-259.0,-17.0,10.0,26.0,14.0,-3.0,-983.0,102.0
18.0,-257.0,-16.0,9.0,26.0,15.0,-2.0,-981.0,104.0
19.0,-256.0,-17.0,8.0,27.0,16.0,-2.0,-984.0,100.0
20.0,-256.0,-22.0,2.0,29.0,16.0,0.0,-981.0,96.0
18.0,-257.0,-20.0,-5.0,31.0,16.0,2.0,-988.0,97.0
20.0,-257.0,-20.0,-10.0,34.0,17.0,-2.0,-992.0,96.0
22.0,-261.0,-18.0,-13.0,37.0,16.0,1.0,-987.0,95.0
20.0,-258.0,-17.0,-17.0,41.0,14.0,-4.0,-996.0,88.0
17.0,-258.0,-16.0,-18.0,41.0,13.0,-6.0,-995.0,90.0
22.0,-259.0,-20.0,-20.0,41.0,11.0,-7.0,-993.0,92.0
19.0,-259.0,-22.0,-20.0,41.0,10.0,-7.0,-996.0,91.0
18.0,-257.0,-22.0,-21.0,42.0,9.0,-8.0,-994.0,88.0
16.0,-260.0,-19.0,-21.0,41.0,10.0,-13.0,-1001.0,87.0
13.0,-263.0,-22.0,-24.0,39.0,9.0,-8.0,-998.0,84.0
13.0,-260.0,-17.0,-22.0,36.0,10.0,-19.0,-998.0,83.0
16.0,-261.0,-20.0,-20.0,33.0,11.0,-22.0,-1000.0,82.0
11.0,-258.0,-21.0,-19.0,30.0,14.0,-24.0,-999.0,78.0
12.0,-264.0,-22.0,-18.0,28.0,15.0,-24.0,-997.0,74.0
15.0,-260.0,-23.0,-16.0,25.0,17.0,-20.0,-997.0,77.0
17.0,-260.0,-21.0,-16.0,24.0,19.0,-18.0,-995.0,73.0
16.0,-259.0,-27.0,-19.0,23.0,21.0,-24.0,-991.0,73.0
16.0,-259.0,-22.0,-22.0,23.0,24.0,-23.0,-994.0,75.0
15.0,-258.0,-24.0,-25.0,23.0,23.0,-20.0,-993.0,74.0
15.0,-259.0,-26.0,-28.0,24.0,23.0,-18.0,-994.0,80.0
19.0,-260.0,-21.0,-30.0,23.0,23.0,-22.0,-993.0,75.0
17.0,-260.0,-25.0,-35.0,25.0,23.0,-24.0,-993.0,76.0
15.0,-258.0,-22.0,-38.0,27.0,21.0,-24.0,-993.0,76.0
14.0,-258.0,-21.0,-41.0,28.0,21.0,-21.0,-993.0,73.0
14.0,-259.0,-22.0,-46.0,30.0,19.0,-27.0,-992.0,80.0
16.0,-259.0,-22.0,-50.0,30.0,18.0,-31.0,-997.0,83.0
14.0,-261.0,-20.0,-54.0,30.0,17.0,-26.0,-1003.0,90.0
15.0,-260.0,-22.0,-52.0,29.0,14.0,-31.0,-1001.0,83.0
15.0,-260.0,-19.0,-50.0,29.0,13.0,-26.0,-1000.0,84.0
14.0,-263.0,-19.0,-41.0,28.0,13.0,-23.0,-1000.0,84.0
14.0,-260.0,-21.0,-33.0,27.0,12.0,-24.0,-999.0,91.0
18.0,-263.0,-20.0,-28.0,26.0,11.0,-24.0,-1000.0,82.0
16.0,-261.0,-17.0,-23.0,23.0,12.0,-23.0,-995.0,79.0
25.0,-267.0,-16.0,-20.0,19.0,10.0,-22.0,-991.0,86.0
15.0,-259.0,-23.0,-21.0,19.0,10.0,-29.0,-993.0,79.0
13.0,-258.0,-22.0,-21.0,17.0,9.0,-27.0,-988.0,79.0
15.0,-259.0,-21.0,-24.0,16.0,8.0,-28.0,-990.0,80.0
15.0,-258.0,-20.0,-28.0,13.0,9.0,-29.0,-988.0,77.0
12.0,-256.0,-22.0,-34.0,12.0,10.0,-28.0,-986.0,76.0
13.0,-256.0,-23.0,-40.0,12.0,11.0,-19.0,-991.0,77.0
17.0,-262.0,-21.0,-41.0,11.0,11.0,-28.0,-995.0,76.0
16.0,-262.0,-18.0,-43.0,10.0,13.0,-20.0,-995.0,82.0
17.0,-258.0,-22.0,-40.0,9.0,13.0,-22.0,-995.0,79.0
16.0,-263.0,-20.0,-35.0,9.0,11.0,-26.0,-996.0,84.0
14.0,-262.0,-22.0,-28.0,9.0,11.0,-24.0,-997.0,81.0
14.0,-263.0,-21.0,-19.0,10.0,13.0,-20.0,-1001.0,86.0
15.0,-261.0,-21.0,-10.0,11.0,10.0,-20.0,-999.0,85.0
12.0,-260.0,-23.0,-4.0,13.0,10.0,-20.0,-1000.0,79.0
17.0,-260.0,-20.0,3.0,14.0,8.0,-19.0,-995.0,82.0
16.0,-258.0,-17.0,3.0,18.0,7.0,-21.0,-993.0,83.0
17.0,-259.0,-22.0,2.0,21.0,5.0,-23.0,-991.0,78.0
14.0,-258.0,-21.0,-3.0,26.0,2.0,-25.0,-987.0,81.0
15.0,-258.0,-19.0,-8.0,29.0,2.0,-20.0,-989.0,79.0
15.0,-256.0,-24.0,-14.0,31.0,1.0,-13.0,-988.0,86.0
16.0,-257.0,-15.0,-20.0,32.0,1.0,-20.0,-987.0,86.0
24.0,-268.0,-20.0,-28.0,35.0,0.0,-15.0,-988.0,87.0
18.0,-257.0,-18.0,-32.0,34.0,-2.0,-17.0,-989.0,88.0
18.0,-257.0,-24.0,-33.0,34.0,-2.0,-19.0,-995.0,86.0
16.0,-259.0,-21.0,-35.0,35.0,-2.0,-12.0,-992.0,90.0
17.0,-260.0,-22.0,-37.0,34.0,-2.0,-14.0,-997.0,86.0
15.0,-259.0,-22.0,-40.0,35.0,-1.0,-22.0,-992.0,88.0
14.0,-259.0,-20.0,-43.0,36.0,-1.0,-15.0,-995.0,88.0
16.0,-260.0,-19.0,-45.0,35.0,0.0,-21.0,-996.0,81.0
15.0,-260.0,-16.0,-48.0,35.0,0.0,-20.0,-996.0,86.0
16.0,-258.0,-18.0,-49.0,34.0,1.0,-21.0,-994.0,87.0
16.0,-259.0,-20.0,-49.0,32.0,1.0,-26.0,-996.0,87.0
16.0,-261.0,-20.0,-47.0,28.0,-1.0,-24.0,-1000.0,94.0
17.0,-261.0,-19.0,-43.0,25.0,0.0,-25.0,-999.0,93.0
17.0,-259.0,-17.0,-38.0,23.0,-1.0,-23.0,-995.0,91.0
16.0,-260.0,-16.0,-31.0,20.0,1.0,-23.0,-998.0,92.0
15.0,-261.0,-22.0,-25.0,18.0,1.0,-20.0,-998.0,81.0
16.0,-258.0,-18.0,-22.0,15.0,1.0,-23.0,-997.0,85.0
15.0,-261.0,-18.0,-20.0,14.0,1.0,-25.0,-995.0,83.0
17.0,-258.0,-25.0,-20.0,13.0,1.0,-23.0,-991.0,89.0
18.0,-260.0,-19.0,-21.0,12.0,2.0,-20.0,-993.0,82.0
16.0,-259.0,-21.0,-18.0,10.0,4.0,-20.0,-992.0,82.0
3.0,-272.0,-23.0,-17.0,11.0,5.0,-17.0,-993.0,83.0
16.0,-257.0,-21.0,-16.0,10.0,5.0,-22.0,-997.0,86.0
17.0,-261.0,-23.0,-13.0,10.0,5.0,-21.0,-997.0,87.0
14.0,-259.0,-16.0,-10.0,9.0,4.0,-25.0,-996.0,82.0
15.0,-260.0,-16.0,-7.0,10.0,4.0,-18.0,-996.0,86.0
18.0,-258.0,-23.0,-5.0,10.0,4.0,-18.0,-996.0,84.0
19.0,-263.0,-24.0,-3.0,11.0,4.0,-19.0,-995.0,87.0
14.0,-258.0,-22.0,-1.0,13.0,3.0,-18.0,-994.0,80.0
16.0,-260.0,-21.0,-1.0,15.0,3.0,-14.0,-998.0,88.0
18.0,-259.0,-22.0,-4.0,18.0,2.0,-18.0,-995.0,82.0
17.0,-258.0,-17.0,-6.0,18.0,0.0,-15.0,-999.0,85.0
12.0,-264.0,-6.0,-8.0,19.0,-2.0,-8.0,-997.0,87.0
15.0,-260.0,-19.0,-10.0,22.0,-2.0,-17.0,-1000.0,81.0
11.0,-259.0,-20.0,-12.0,22.0,-3.0,-22.0,-997.0,91.0
15.0,-260.0,-20.0,-10.0,23.0,-4.0,-16.0,-995.0,88.0
15.0,-259.0,-18.0,-12.0,24.0,-4.0,-16.0,-997.0,90.0
14.0,-260.0,-19.0,-11.0,22.0,-6.0,-12.0,-996.0,87.0
16.0,-263.0,-15.0,-10.0,23.0,-6.0,-17.0,-1001.0,91.0
14.0,-261.0,-19.0,-10.0,23.0,-7.0,-19.0,-999.0,91.0
19.0,-260.0,-19.0,-9.0,22.0,-8.0,-17.0,-999.0,84.0
16.0,-260.0,-22.0,-7.0,21.0,-7.0,-22.0,-1003.0,92.0
17.0,-262.0,-13.0,-5.0,19.0,-8.0,-19.0,-1002.0,91.0
15.0,-259.0,-22.0,-5.0,19.0,-8.0,-16.0,-1000.0,93.0
17.0,-260.0,-21.0,-5.0,19.0,-8.0,-17.0,-998.0,97.0
14.0,-260.0,-18.0,-5.0,18.0,-6.0,-18.0,-997.0,94.0
16.0,-259.0,-18.0,-7.0,17.0,-7.0,-15.0,-993.0,97.0
17.0,-259.0,-18.0,-9.0,17.0,-6.0,-16.0,-995.0,91.0
17.0,-260.0,-16.0,-12.0,15.0,-7.0,-19.0,-993.0,94.0
15.0,-258.0,-21.0,-14.0,15.0,-7.0,-7.0,-991.0,94.0
18.0,-259.0,-18.0,-14.0,15.0,-6.0,-17.0,-995.0,89.0
15.0,-259.0,-22.0,-13.0,14.0,-6.0,-13.0,-998.0,94.0
15.0,-257.0,-20.0,-14.0,13.0,-7.0,-18.0,-994.0,95.0
17.0,-258.0,-15.0,-14.0,12.0,-6.0,-13.0,-996.0,93.0
18.0,-261.0,-16.0,-12.0,12.0,-6.0,-16.0,-1000.0,94.0
17.0,-260.0,-17.0,-12.0,11.0,-5.0,-17.0,-997.0,95.0
17.0,-260.0,-17.0,-11.0,11.0,-6.0,-20.0,-1000.0,94.0
18.0,-262.0,-21.0,-10.0,7.0,-6.0,-17.0,-1002.0,93.0
18.0,-260.0,-15.0,-9.0,7.0,-6.0,-19.0,-997.0,95.0
16.0,-261.0,-16.0,-7.0,8.0,-6.0,-19.0,-997.0,94.0
13.0,-260.0,-20.0,-6.0,8.0,-6.0,-13.0,-994.0,93.0
15.0,-258.0,-15.0,-4.0,8.0,-7.0,-19.0,-998.0,97.0
14.0,-259.0,-18.0,-6.0,9.0,-9.0,-17.0,-995.0,100.0
17.0,-262.0,-17.0,-6.0,8.0,-6.0,-15.0,-996.0,97.0
18.0,-261.0,-16.0,-8.0,9.0,-8.0,-20.0,-995.0,94.0
17.0,-261.0,-18.0,-7.0,10.0,-7.0,-16.0,-998.0,101.0
14.0,-259.0,-17.0,-8.0,11.0,-7.0,-22.0,-994.0,103.0
18.0,-263.0,-19.0,-8.0,12.0,-8.0,-18.0,-995.0,101.0
17.0,-258.0,-18.0,-9.0,12.0,-8.0,-15.0,-997.0,100.0
18.0,-261.0,-16.0,-10.0,14.0,-7.0,-16.0,-994.0,102.0
16.0,-259.0,-19.0,-10.0,16.0,-6.0,-26.0,-995.0,102.0
15.0,-263.0,-21.0,-12.0,16.0,-7.0,-18.0,-994.0,97.0
16.0,-258.0,-17.0,-13.0,19.0,-6.0,-18.0,-991.0,101.0
15.0,-258.0,-16.0,-14.0,19.0,-5.0,-14.0,-997.0,97.0
17.0,-259.0,-17.0,-18.0,20.0,-7.0,-17.0,-993.0,99.0
16.0,-260.0,-14.0,-21.0,21.0,-7.0,-21.0,-998.0,99.0
19.0,-263.0,-17.0,-23.0,20.0,-6.0,-17.0,-994.0,97.0
19.0,-259.0,-16.0,-25.0,20.0,-8.0,-13.0,-993.0,97.0
14.0,-261.0,-16.0,-27.0,20.0,-8.0,-20.0,-997.0,98.0
15.0,-261.0,-17.0,-26.0,20.0,-8.0,-16.0,-1000.0,96.0
17.0,-260.0,-16.0,-27.0,21.0,-11.0,-13.0,-997.0,98.0
17.0,-261.0,-15.0,-26.0,21.0,-10.0,-18.0,-998.0,94.0
16.0,-260.0,-14.0,-26.0,19.0,-11.0,-15.0,-1001.0,98.0
18.0,-258.0,-15.0,-24.0,19.0,-11.0,-18.0,-1001.0,99.0
18.0,-262.0,-22.0,-24.0,19.0,-10.0,-12.0,-997.0,96.0
18.0,-261.0,-18.0,-24.0,19.0,-10.0,-15.0,-995.0,97.0
16.0,-257.0,-17.0,-22.0,19.0,-10.0,-18.0,-996.0,101.0
15.0,-262.0,-15.0,-22.0,18.0,-9.0,-18.0,-996.0,96.0
18.0,-264.0,-11.0,-21.0,19.0,-10.0,-18.0,-993.0,97.0
14.0,-260.0,-18.0,-22.0,19.0,-10.0,-20.0,-999.0,97.0
15.0,-260.0,-15.0,-22.0,19.0,-9.0,-19.0,-996.0,97.0
14.0,-258.0,-15.0,-25.0,20.0,-10.0,-22.0,-992.0,95.0
15.0,-262.0,-15.0,-27.0,21.0,-10.0,-20.0,-993.0,96.0
15.0,-259.0,-20.0,-29.0,22.0,-9.0,-19.0,-993.0,96.0
14.0,-259.0,-18.0,-31.0,22.0,-9.0,-22.0,-999.0,97.0
15.0,-260.0,-14.0,-35.0,19.0,-10.0,-22.0,-997.0,98.0
17.0,-261.0,-17.0,-36.0,19.0,-9.0,-21.0,-994.0,96.0
15.0,-262.0,-15.0,-37.0,17.0,-8.0,-18.0,-996.0,99.0
17.0,-259.0,-14.0,-36.0,16.0,-8.0,-18.0,-998.0,101.0
17.0,-262.0,-17.0,-34.0,15.0,-8.0,-22.0,-1000.0,101.0
14.0,-259.0,-18.0,-32.0,14.0,-8.0,-17.0,-998.0,103.0
17.0,-264.0,-18.0,-30.0,13.0,-9.0,-14.0,-1007.0,101.0
18.0,-262.0,-12.0,-28.0,13.0,-9.0,-20.0,-1002.0,95.0
15.0,-259.0,-17.0,-28.0,12.0,-8.0,-17.0,-999.0,97.0
18.0,-260.0,-22.0,-27.0,13.0,-10.0,-13.0,-998.0,98.0
18.0,-261.0,-18.0,-25.0,13.0,-10.0,-17.0,-1000.0,96.0
15.0,-257.0,-18.0,-25.0,12.0,-10.0,-19.0,-994.0,91.0
15.0,-261.0,-16.0,-27.0,11.0,-11.0,-17.0,-999.0,95.0
17.0,-259.0,-20.0,-28.0,12.0,-11.0,-13.0,-993.0,98.0
20.0,-251.0,-25.0,-30.0,11.0,-13.0,-19.0,-996.0,98.0
15.0,-259.0,-17.0,-34.0,10.0,-12.0,-17.0,-994.0,99.0
18.0,-259.0,-14.0,-34.0,9.0,-13.0,-19.0,-994.0,99.0
15.0,-257.0,-14.0,-34.0,6.0,-14.0,-17.0,-998.0,101.0
16.0,-261.0,-17.0,-35.0,5.0,-14.0,-17.0,-999.0,98.0
14.0,-258.0,-14.0,-34.0,5.0,-14.0,-11.0,-999.0,99.0
20.0,-260.0,-16.0,-32.0,4.0,-15.0,-16.0,-996.0,99.0
18.0,-260.0,-16.0,-30.0,5.0,-13.0,-13.0,-1000.0,97.0
14.0,-258.0,-14.0,-29.0,4.0,-13.0,-10.0,-993.0,99.0
15.0,-259.0,-18.0,-25.0,4.0,-14.0,-15.0,-995.0,95.0
18.0,-261.0,-18.0,-24.0,5.0,-15.0,-15.0,-995.0,95.0
19.0,-261.0,-21.0,-25.0,6.0,-12.0,-19.0,-996.0,94.0
17.0,-258.0,-17.0,-26.0,7.0,-12.0,-17.0,-998.0,96.0
17.0,-262.0,-21.0,-28.0,7.0,-14.0,-16.0,-996.0,95.0
16.0,-260.0,-14.0,-29.0,8.0,-14.0,-7.0,-997.0,95.0
18.0,-259.0,-23.0,-28.0,11.0,-14.0,-17.0,-994.0,98.0
17.0,-263.0,-23.0,-32.0,12.0,-14.0,-15.0,-997.0,90.0
21.0,-265.0,-17.0,-33.0,12.0,-14.0,-4.0,-996.0,101.0
18.0,-261.0,-18.0,-34.0,13.0,-14.0,-8.0,-997.0,98.0
17.0,-264.0,-18.0,-32.0,14.0,-13.0,-6.0,-998.0,105.0
17.0,-259.0,-18.0,-30.0,15.0,-14.0,-12.0,-999.0,106.0
17.0,-262.0,-14.0,-29.0,17.0,-11.0,-6.0,-1000.0,107.0
14.0,-262.0,-13.0,-27.0,18.0,-12.0,-6.0,-1004.0,106.0
20.0,-265.0,-12.0,-26.0,18.0,-11.0,-4.0,-1004.0,107.0
17.0,-260.0,-10.0,-24.0,18.0,-11.0,-3.0,-997.0,108.0
19.0,-264.0,-15.0,-23.0,19.0,-11.0,-8.0,-998.0,105.0
19.0,-260.0,-10.0,-25.0,17.0,-10.0,-9.0,-997.0,108.0
18.0,-258.0,-14.0,-25.0,17.0,-9.0,-4.0,-998.0,106.0
19.0,-262.0,-13.0,-24.0,18.0,-9.0,-6.0,-1001.0,106.0
17.0,-258.0,-16.0,-27.0,16.0,-10.0,-13.0,-997.0,104.0
17.0,-259.0,-16.0,-29.0,16.0,-9.0,-13.0,-998.0,107.0
19.0,-262.0,-16.0,-31.0,15.0,-10.0,-5.0,-994.0,108.0
18.0,-260.0,-6.0,-34.0,15.0,-9.0,-17.0,-995.0,111.0
19.0,-260.0,-13.0,-33.0,13.0,-10.0,-13.0,-993.0,104.0
20.0,-263.0,-15.0,-34.0,13.0,-9.0,-12.0,-995.0,104.0
19.0,-259.0,-13.0,-37.0,13.0,-11.0,-5.0,-996.0,102.0
19.0,-258.0,-19.0,-38.0,14.0,-11.0,-9.0,-994.0,103.0
17.0,-258.0,-16.0,-38.0,14.0,-11.0,-13.0,-988.0,102.0
18.0,-262.0,-15.0,-40.0,13.0,-13.0,-12.0,-994.0,104.0
15.0,-260.0,-17.0,-42.0,13.0,-13.0,-7.0,-993.0,107.0
19.0,-258.0,-15.0,-42.0,15.0,-12.0,-13.0,-992.0,105.0
19.0,-259.0,-16.0,-42.0,15.0,-13.0,-12.0,-994.0,103.0
18.0,-258.0,-12.0,-43.0,16.0,-13.0,-11.0,-994.0,100.0
17.0,-253.0,-12.0,-43.0,15.0,-13.0,-10.0,-988.0,101.0
20.0,-260.0,-12.0,-42.0,16.0,-12.0,-8.0,-992.0,101.0
18.0,-258.0,-17.0,-43.0,17.0,-13.0,-11.0,-989.0,104.0
15.0,-255.0,-19.0,-45.0,17.0,-13.0,-15.0,-995.0,102.0
19.0,-260.0,-17.0,-47.0,18.0,-12.0,-12.0,-990.0,105.0
16.0,-259.0,-15.0,-48.0,17.0,-12.0,-16.0,-994.0,106.0
12.0,-258.0,-12.0,-48.0,17.0,-13.0,-11.0,-996.0,107.0
17.0,-259.0,-15.0,-52.0,18.0,-12.0,-6.0,-993.0,104.0
21.0,-260.0,-17.0,-51.0,20.0,-10.0,-12.0,-994.0,106.0
16.0,-258.0,-14.0,-52.0,20.0,-10.0,-14.0,-996.0,105.0
18.0,-262.0,-13.0,-53.0,21.0,-10.0,-11.0,-996.0,108.0
19.0,-261.0,-17.0,-52.0,22.0,-10.0,-6.0,-999.0,106.0
20.0,-260.0,-16.0,-51.0,25.0,-10.0,-9.0,-997.0,108.0
18.0,-260.0,-15.0,-51.0,25.0,-11.0,-7.0,-1000.0,104.0
16.0,-261.0,-20.0,-50.0,26.0,-10.0,-10.0,-999.0,104.0
18.0,-262.0,-14.0,-50.0,27.0,-11.0,-16.0,-996.0,103.0
14.0,-259.0,-17.0,-47.0,26.0,-11.0,-10.0,-997.0,107.0
20.0,-262.0,-15.0,-48.0,27.0,-12.0,-8.0,-997.0,105.0
18.0,-263.0,-18.0,-48.0,25.0,-11.0,-8.0,-998.0,104.0
20.0,-262.0,-15.0,-46.0,24.0,-12.0,-19.0,-994.0,104.0
16.0,-260.0,-15.0,-46.0,21.0,-11.0,-13.0,-1002.0,101.0
24.0,-270.0,-9.0,-45.0,19.0,-11.0,-21.0,-997.0,106.0
19.0,-263.0,-17.0,-45.0,17.0,-9.0,-9.0,-996.0,103.0
13.0,-255.0,-13.0,-45.0,16.0,-9.0,-12.0,-996.0,102.0
16.0,-259.0,-16.0,-44.0,16.0,-8.0,-19.0,-996.0,102.0
20.0,-262.0,-11.0,-41.0,14.0,-7.0,-15.0,-996.0,104.0
18.0,-260.0,-12.0,-44.0,14.0,-7.0,-16.0,-996.0,99.0
19.0,-259.0,-16.0,-45.0,13.0,-6.0,-10.0,-996.0,104.0
16.0,-260.0,-14.0,-45.0,14.0,-6.0,-12.0,-1002.0,103.0
18.0,-260.0,-13.0,-47.0,13.0,-5.0,-12.0,-997.0,101.0
19.0,-261.0,-15.0,-46.0,13.0,-4.0,-12.0,-1000.0,97.0
15.0,-261.0,-9.0,-45.0,13.0,-3.0,-15.0,-995.0,101.0
13.0,-259.0,-24.0,-45.0,13.0,-4.0,-8.0,-993.0,107.0
19.0,-263.0,-18.0,-45.0,13.0,-5.0,-18.0,-997.0,109.0
18.0,-260.0,-16.0,-45.0,14.0,-5.0,-16.0,-994.0,100.0
17.0,-259.0,-13.0,-45.0,13.0,-3.0,-14.0,-992.0,105.0
19.0,-258.0,-16.0,-45.0,15.0,-3.0,-8.0,-993.0,105.0
15.0,-258.0,-17.0,-43.0,15.0,-3.0,-13.0,-995.0,103.0
17.0,-258.0,-16.0,-44.0,15.0,-5.0,-11.0,-992.0,104.0
17.0,-260.0,-17.0,-43.0,15.0,-5.0,-13.0,-999.0,103.0
14.0,-259.0,-14.0,-44.0,15.0,-4.0,-13.0,-998.0,105.0
15.0,-260.0,-13.0,-43.0,16.0,-7.0,-10.0,-992.0,107.0
17.0,-262.0,-19.0,-44.0,15.0,-6.0,-12.0,-996.0,101.0
16.0,-257.0,-14.0,-46.0,16.0,-7.0,-10.0,-992.0,103.0
17.0,-257.0,-15.0,-47.0,17.0,-8.0,-11.0,-992.0,103.0
20.0,-258.0,-15.0,-49.0,17.0,-6.0,-14.0,-993.0,107.0
20.0,-261.0,-15.0,-52.0,17.0,-7.0,-15.0,-996.0,102.0
17.0,-259.0,-18.0,-52.0,15.0,-8.0,-13.0,-996.0,104.0
18.0,-261.0,-12.0,-53.0,14.0,-7.0,-16.0,-999.0,107.0
16.0,-261.0,-15.0,-55.0,14.0,-7.0,-12.0,-996.0,105.0
20.0,-260.0,-14.0,-55.0,12.0,-7.0,-10.0,-1000.0,99.0
17.0,-259.0,-12.0,-56.0,12.0,-8.0,-14.0,-1001.0,103.0
19.0,-262.0,-17.0,-55.0,10.0,-6.0,-8.0,-1003.0,106.0
14.0,-261.0,-17.0,-53.0,9.0,-6.0,-15.0,-999.0,104.0
20.0,-265.0,-18.0,-51.0,9.0,-8.0,-12.0,-1000.0,103.0
18.0,-262.0,-15.0,-48.0,8.0,-6.0,-6.0,-999.0,99.0
19.0,-261.0,-18.0,-45.0,10.0,-5.0,-11.0,-999.0,102.0
17.0,-262.0,-18.0,-42.0,10.0,-5.0,-14.0,-1001.0,99.0
17.0,-260.0,-15.0,-42.0,10.0,-6.0,-14.0,-994.0,97.0
18.0,-262.0,-14.0,-42.0,9.0,-4.0,-15.0,-997.0,102.0
20.0,-259.0,-13.0,-42.0,10.0,-3.0,-10.0,-998.0,101.0
14.0,-257.0,-15.0,-43.0,10.0,-4.0,-14.0,-999.0,100.0
14.0,-261.0,-19.0,-44.0,10.0,-4.0,-15.0,-996.0,95.0
16.0,-259.0,-16.0,-43.0,12.0,-5.0,-3.0,-997.0,98.0
18.0,-262.0,-13.0,-44.0,13.0,-4.0,-15.0,-995.0,101.0
19.0,-259.0,-18.0,-45.0,14.0,-3.0,-4.0,-995.0,97.0
17.0,-262.0,-16.0,-44.0,16.0,-3.0,-17.0,-991.0,100.0
17.0,-261.0,-17.0,-47.0,18.0,-4.0,-12.0,-993.0,97.0
17.0,-261.0,-16.0,-49.0,20.0,-4.0,-15.0,-994.0,99.0
14.0,-258.0,-17.0,-54.0,21.0,-5.0,-14.0,-996.0,104.0
18.0,-260.0,-16.0,-56.0,22.0,-5.0,-11.0,-995.0,98.0
15.0,-263.0,-17.0,-57.0,23.0,-5.0,-14.0,-1002.0,99.0
18.0,-260.0,-17.0,-55.0,23.0,-4.0,-11.0,-1000.0,98.0
18.0,-261.0,-16.0,-52.0,24.0,-3.0,-17.0,-1005.0,100.0
17.0,-260.0,-15.0,-49.0,23.0,-5.0,-11.0,-999.0,101.0
16.0,-260.0,-16.0,-48.0,22.0,-3.0,-7.0,-1001.0,100.0
18.0,-262.0,-15.0,-44.0,22.0,-5.0,-4.0,-1003.0,104.0
18.0,-263.0,-16.0,-40.0,21.0,-5.0,-6.0,-998.0,97.0
17.0,-257.0,-15.0,-40.0,19.0,-6.0,-11.0,-994.0,97.0
17.0,-260.0,-18.0,-39.0,20.0,-7.0,-11.0,-995.0,100.0
18.0,-258.0,-15.0,-38.0,18.0,-6.0,-18.0,-997.0,98.0
19.0,-261.0,-23.0,-40.0,19.0,-7.0,-12.0,-995.0,97.0
19.0,-261.0,-16.0,-41.0,18.0,-6.0,-8.0,-993.0,97.0
16.0,-260.0,-17.0,-43.0,17.0,-5.0,-15.0,-988.0,96.0
18.0,-259.0,-19.0,-45.0,16.0,-5.0,-9.0,-992.0,104.0
16.0,-262.0,-19.0,-47.0,15.0,-5.0,-12.0,-994.0,98.0
15.0,-256.0,-10.0,-49.0,12.0,-6.0,-15.0,-993.0,107.0
15.0,-261.0,-13.0,-47.0,12.0,-5.0,-11.0,-1004.0,106.0
19.0,-262.0,-15.0,-45.0,11.0,-7.0,-18.0,-999.0,105.0
18.0,-258.0,-18.0,-44.0,11.0,-7.0,-9.0,-1002.0,104.0
19.0,-261.0,-18.0,-43.0,11.0,-6.0,-9.0,-996.0,102.0
19.0,-264.0,-17.0,-40.0,10.0,-5.0,-15.0,-1001.0,105.0
18.0,-259.0,-17.0,-37.0,10.0,-7.0,-5.0,-997.0,97.0
18.0,-262.0,-18.0,-38.0,10.0,-8.0,-15.0,-994.0,96.0
18.0,-260.0,-18.0,-37.0,9.0,-6.0,-13.0,-995.0,97.0
16.0,-257.0,-15.0,-37.0,10.0,-6.0,-19.0,-999.0,100.0
16.0,-260.0,-16.0,-38.0,9.0,-8.0,-15.0,-998.0,95.0
20.0,-260.0,-17.0,-39.0,9.0,-7.0,-13.0,-1001.0,98.0
19.0,-259.0,-14.0,-40.0,9.0,-7.0,-16.0,-998.0,104.0
17.0,-261.0,-21.0,-36.0,12.0,-8.0,-13.0,-996.0,98.0
17.0,-259.0,-17.0,-37.0,13.0,-5.0,-13.0,-997.0,100.0
18.0,-260.0,-13.0,-35.0,13.0,-4.0,-11.0,-996.0,102.0
18.0,-262.0,-15.0,-31.0,13.0,-4.0,-12.0,-999.0,107.0
17.0,-258.0,-14.0,-31.0,13.0,-3.0,-13.0,-1001.0,107.0
16.0,-261.0,-16.0,-30.0,14.0,-2.0,-12.0,-1000.0,104.0
15.0,-262.0,-15.0,-30.0,14.0,-2.0,-15.0,-998.0,107.0
14.0,-260.0,-16.0,-30.0,13.0,-1.0,-8.0,-995.0,108.0
17.0,-258.0,-13.0,-31.0,12.0,-1.0,-9.0,-995.0,103.0
18.0,-261.0,-15.0,-32.0,12.0,-1.0,-13.0,-995.0,111.0
23.0,-260.0,-9.0,-34.0,10.0,-1.0,-8.0,-997.0,103.0
17.0,-258.0,-15.0,-37.0,10.0,0.0,-13.0,-994.0,108.0
21.0,-264.0,-13.0,-37.0,10.0,-2.0,-11.0,-994.0,104.0
16.0,-261.0,-15.0,-39.0,9.0,-1.0,-13.0,-997.0,105.0
16.0,-259.0,-12.0,-40.0,10.0,-1.0,-11.0,-998.0,104.0
15.0,-258.0,-14.0,-41.0,11.0,-2.0,-11.0,-992.0,99.0
18.0,-258.0,-16.0,-44.0,13.0,-3.0,-5.0,-994.0,101.0
17.0,-257.0,-15.0,-43.0,13.0,-3.0,-6.0,-994.0,103.0
20.0,-261.0,-16.0,-46.0,15.0,-3.0,-5.0,-997.0,101.0
19.0,-261.0,-18.0,-45.0,16.0,-3.0,-15.0,-995.0,99.0
17.0,-260.0,-16.0,-45.0,18.0,-5.0,-11.0,-996.0,99.0
16.0,-259.0,-15.0,-46.0,18.0,-5.0,-11.0,-995.0,100.0
20.0,-259.0,-13.0,-46.0,21.0,-5.0,-13.0,-1002.0,104.0
20.0,-260.0,-17.0,-47.0,22.0,-6.0,-12.0,-997.0,98.0
17.0,-259.0,-23.0,-45.0,20.0,-8.0,-14.0,-997.0,97.0
16.0,-257.0,-14.0,-46.0,22.0,-9.0,-18.0,-994.0,96.0
16.0,-259.0,-17.0,-45.0,22.0,-10.0,-8.0,-999.0,100.0
16.0,-261.0,-16.0,-44.0,21.0,-10.0,-9.0,-1002.0,102.0
17.0,-259.0,-18.0,-44.0,20.0,-8.0,-7.0,-994.0,102.0
19.0,-259.0,-13.0,-43.0,21.0,-10.0,-12.0,-995.0,101.0
15.0,-260.0,-18.0,-43.0,21.0,-9.0,-13.0,-999.0,105.0
12.0,-254.0,-9.0,-44.0,18.0,-9.0,-13.0,-1002.0,108.0
17.0,-261.0,-17.0,-44.0,17.0,-8.0,-10.0,-995.0,107.0
18.0,-260.0,-18.0,-42.0,18.0,-7.0,-10.0,-998.0,104.0
16.0,-257.0,-14.0,-43.0,17.0,-6.0,-12.0,-996.0,103.0
16.0,-262.0,-10.0,-44.0,17.0,-6.0,-12.0,-998.0,106.0
18.0,-261.0,-16.0,-42.0,17.0,-6.0,-14.0,-999.0,105.0
17.0,-261.0,-17.0,-43.0,16.0,-6.0,-7.0,-997.0,111.0
17.0,-258.0,-17.0,-41.0,17.0,-5.0,-16.0,-998.0,110.0
16.0,-259.0,-14.0,-41.0,16.0,-5.0,-15.0,-998.0,109.0
19.0,-261.0,-15.0,-40.0,14.0,-3.0,-16.0,-995.0,105.0
17.0,-258.0,-11.0,-40.0,14.0,-3.0,-16.0,-995.0,105.0
15.0,-258.0,-15.0,-41.0,14.0,-3.0,-15.0,-996.0,108.0
16.0,-256.0,-17.0,-41.0,13.0,-4.0,-17.0,-995.0,111.0
19.0,-258.0,-13.0,-45.0,14.0,-6.0,-15.0,-994.0,106.0
16.0,-258.0,-16.0,-45.0,14.0,-3.0,-17.0,-995.0,108.0
15.0,-259.0,-14.0,-46.0,13.0,-3.0,-14.0,-999.0,108.0
18.0,-258.0,-18.0,-48.0,14.0,-2.0,-15.0,-994.0,107.0
18.0,-261.0,-15.0,-49.0,14.0,-1.0,-16.0,-995.0,110.0
18.0,-260.0,-10.0,-48.0,15.0,-4.0,-19.0,-996.0,105.0
17.0,-260.0,-16.0,-49.0,14.0,-4.0,-13.0,-993.0,107.0
18.0,-259.0,-16.0,-51.0,13.0,-4.0,-12.0,-997.0,107.0
17.0,-261.0,-13.0,-51.0,14.0,-3.0,-6.0,-993.0,110.0
9.0,-267.0,-12.0,-52.0,14.0,-3.0,-13.0,-996.0,104.0
19.0,-261.0,-16.0,-51.0,13.0,-3.0,-9.0,-992.0,99.0
18.0,-260.0,-16.0,-49.0,13.0,-4.0,-13.0,-996.0,102.0
17.0,-258.0,-14.0,-49.0,15.0,-4.0,-15.0,-994.0,103.0
17.0,-260.0,-14.0,-49.0,15.0,-4.0,-14.0,-996.0,106.0
15.0,-259.0,-11.0,-50.0,17.0,-6.0,-15.0,-996.0,104.0
18.0,-261.0,-13.0,-52.0,17.0,-5.0,-15.0,-994.0,105.0
17.0,-260.0,-12.0,-52.0,17.0,-6.0,-14.0,-993.0,107.0
19.0,-261.0,-14.0,-56.0,16.0,-6.0,-6.0,-1001.0,106.0
17.0,-260.0,-16.0,-58.0,15.0,-6.0,-15.0,-993.0,105.0
27.0,-249.0,-28.0,-60.0,15.0,-7.0,-17.0,-994.0,105.0
16.0,-258.0,-15.0,-61.0,14.0,-8.0,-17.0,-994.0,103.0
18.0,-259.0,-13.0,-62.0,14.0,-8.0,-17.0,-996.0,103.0
19.0,-258.0,-14.0,-62.0,13.0,-8.0,-18.0,-997.0,102.0
18.0,-258.0,-12.0,-63.0,12.0,-7.0,-17.0,-997.0,107.0
15.0,-261.0,-15.0,-64.0,13.0,-7.0,-18.0,-993.0,106.0
19.0,-258.0,-15.0,-63.0,13.0,-7.0,-16.0,-996.0,102.0
21.0,-261.0,-14.0,-67.0,13.0,-5.0,-16.0,-990.0,97.0
18.0,-258.0,-13.0,-67.0,12.0,-4.0,-13.0,-991.0,103.0
15.0,-257.0,-15.0,-69.0,12.0,-4.0,-11.0,-994.0,104.0
18.0,-258.0,-16.0,-71.0,12.0,-4.0,-13.0,-1001.0,105.0
22.0,-251.0,-28.0,-75.0,13.0,-2.0,-11.0,-995.0,104.0
19.0,-262.0,-15.0,-76.0,13.0,-2.0,-6.0,-996.0,107.0
18.0,-259.0,-18.0,-78.0,13.0,-1.0,-10.0,-993.0,104.0
18.0,-261.0,-16.0,-76.0,14.0,0.0,-12.0,-1001.0,102.0
16.0,-259.0,-14.0,-76.0,13.0,1.0,-5.0,-999.0,103.0
22.0,-263.0,-15.0,-74.0,14.0,0.0,-3.0,-999.0,98.0
19.0,-263.0,-15.0,-71.0,14.0,0.0,-11.0,-998.0,103.0
17.0,-261.0,-10.0,-67.0,14.0,0.0,-4.0,-999.0,105.0
19.0,-262.0,-15.0,-65.0,15.0,2.0,-2.0,-998.0,101.0
21.0,-257.0,-17.0,-62.0,16.0,2.0,-4.0,-1002.0,101.0
17.0,-260.0,-18.0,-60.0,14.0,2.0,-8.0,-998.0,100.0
15.0,-260.0,-18.0,-57.0,14.0,2.0,-2.0,-998.0,97.0
19.0,-260.0,-17.0,-56.0,13.0,0.0,-1.0,-1003.0,96.0
18.0,-261.0,-17.0,-54.0,14.0,0.0,-3.0,-997.0,97.0
21.0,-259.0,-21.0,-54.0,13.0,-1.0,-4.0,-997.0,96.0
17.0,-261.0,-18.0,-53.0,14.0,-1.0,-5.0,-996.0,98.0
20.0,-262.0,-17.0,-54.0,16.0,-2.0,-7.0,-992.0,96.0
26.0,-262.0,-18.0,-55.0,17.0,-3.0,-9.0,-996.0,97.0
19.0,-259.0,-19.0,-56.0,18.0,-5.0,-8.0,-995.0,108.0
17.0,-261.0,-16.0,-56.0,18.0,-5.0,-7.0,-995.0,103.0
18.0,-260.0,-18.0,-58.0,17.0,-5.0,-12.0,-995.0,101.0
15.0,-261.0,-17.0,-59.0,19.0,-5.0,-16.0,-999.0,100.0
18.0,-260.0,-16.0,-62.0,19.0,-5.0,-16.0,-997.0,99.0
18.0,-260.0,-17.0,-65.0,19.0,-6.0,-18.0,-996.0,99.0
16.0,-260.0,-19.0,-66.0,19.0,-8.0,-13.0,-1000.0,98.0
16.0,-263.0,-18.0,-64.0,19.0,-8.0,-17.0,-996.0,97.0
18.0,-262.0,-16.0,-67.0,19.0,-6.0,-11.0,-994.0,98.0
19.0,-260.0,-15.0,-69.0,19.0,-5.0,-16.0,-999.0,95.0
16.0,-259.0,-20.0,-70.0,18.0,-5.0,-11.0,-1000.0,97.0
19.0,-262.0,-17.0,-73.0,19.0,-5.0,-15.0,-995.0,96.0
16.0,-261.0,-19.0,-74.0,18.0,-5.0,-7.0,-997.0,96.0
17.0,-258.0,-17.0,-75.0,17.0,-5.0,-13.0,-1003.0,99.0
18.0,-258.0,-15.0,-76.0,16.0,-7.0,-19.0,-996.0,97.0
18.0,-259.0,-18.0,-78.0,15.0,-7.0,-15.0,-995.0,97.0
18.0,-257.0,-18.0,-80.0,14.0,-8.0,-17.0,-990.0,98.0
17.0,-256.0,-19.0,-84.0,13.0,-8.0,-16.0,-988.0,98.0
16.0,-259.0,-19.0,-88.0,10.0,-10.0,-18.0,-987.0,101.0
18.0,-256.0,-15.0,-93.0,10.0,-10.0,-21.0,-994.0,95.0
14.0,-257.0,-17.0,-97.0,7.0,-11.0,-22.0,-992.0,97.0
17.0,-259.0,-15.0,-102.0,7.0,-12.0,-8.0,-989.0,98.0
16.0,-258.0,-21.0,-106.0,7.0,-12.0,-14.0,-992.0,97.0
17.0,-257.0,-18.0,-110.0,7.0,-12.0,-19.0,-990.0,96.0
20.0,-260.0,-17.0,-115.0,8.0,-13.0,-16.0,-987.0,96.0
17.0,-259.0,-22.0,-117.0,9.0,-13.0,-5.0,-987.0,94.0
18.0,-254.0,-21.0,-125.0,12.0,-12.0,-7.0,-988.0,96.0
21.0,-255.0,-15.0,-133.0,14.0,-12.0,-2.0,-975.0,94.0
21.0,-254.0,-20.0,-149.0,12.0,-15.0,4.0,-973.0,95.0
22.0,-252.0,-20.0,-174.0,6.0,-19.0,10.0,-961.0,93.0
23.0,-247.0,-18.0,-211.0,-1.0,-26.0,9.0,-953.0,86.0
26.0,-246.0,-20.0,-265.0,-6.0,-38.0,12.0,-945.0,79.0
25.0,-243.0,-25.0,-334.0,0.0,-57.0,13.0,-928.0,73.0
25.0,-236.0,-31.0,-417.0,17.0,-81.0,9.0,-914.0,59.0
23.0,-234.0,-28.0,-511.0,41.0,-107.0,7.0,-905.0,53.0
22.0,-234.0,-29.0,-604.0,68.0,-133.0,1.0,-906.0,50.0
20.0,-235.0,-32.0,-683.0,94.0,-159.0,0.0,-911.0,49.0
16.0,-242.0,-32.0,-736.0,112.0,-181.0,-7.0,-927.0,48.0
12.0,-248.0,-33.0,-758.0,122.0,-192.0,-24.0,-945.0,38.0
12.0,-256.0,-36.0,-748.0,123.0,-197.0,-33.0,-967.0,29.0
10.0,-262.0,-40.0,-717.0,123.0,-192.0,-43.0,-993.0,20.0
6.0,-268.0,-40.0,-671.0,127.0,-186.0,-51.0,-1022.0,17.0
10.0,-277.0,-40.0,-620.0,136.0,-177.0,-48.0,-1051.0,15.0
5.0,-282.0,-36.0,-562.0,149.0,-170.0,-51.0,-1066.0,24.0
6.0,-280.0,-35.0,-501.0,160.0,-160.0,-47.0,-1070.0,38.0
7.0,-278.0,-30.0,-437.0,164.0,-151.0,-44.0,-1069.0,50.0
9.0,-273.0,-27.0,-376.0,160.0,-140.0,-35.0,-1054.0,54.0
13.0,-271.0,-31.0,-326.0,151.0,-131.0,-25.0,-1037.0,61.0
16.0,-269.0,-28.0,-288.0,139.0,-120.0,-7.0,-1021.0,66.0
21.0,-264.0,-23.0,-262.0,123.0,-109.0,5.0,-1009.0,67.0
24.0,-264.0,-25.0,-247.0,107.0,-100.0,9.0,-1005.0,68.0
23.0,-259.0,-23.0,-241.0,89.0,-89.0,13.0,-995.0,70.0
25.0,-258.0,-22.0,-241.0,73.0,-81.0,15.0,-995.0,76.0
26.0,-257.0,-23.0,-247.0,55.0,-70.0,31.0,-996.0,76.0
29.0,-256.0,-24.0,-261.0,37.0,-58.0,30.0,-983.0,71.0
30.0,-257.0,-29.0,-281.0,21.0,-44.0,28.0,-975.0,62.0
30.0,-254.0,-26.0,-309.0,9.0,-31.0,30.0,-972.0,52.0
30.0,-252.0,-29.0,-336.0,6.0,-21.0,39.0,-970.0,52.0
30.0,-255.0,-32.0,-361.0,8.0,-13.0,33.0,-971.0,54.0
30.0,-258.0,-31.0,-379.0,10.0,-5.0,29.0,-981.0,51.0
29.0,-256.0,-29.0,-393.0,10.0,3.0,35.0,-982.0,49.0
29.0,-258.0,-30.0,-399.0,12.0,9.0,33.0,-983.0,49.0
30.0,-259.0,-35.0,-401.0,11.0,13.0,35.0,-979.0,46.0
29.0,-256.0,-34.0,-403.0,11.0,16.0,38.0,-984.0,41.0
31.0,-256.0,-33.0,-406.0,15.0,21.0,31.0,-980.0,32.0
28.0,-255.0,-35.0,-412.0,21.0,24.0,29.0,-985.0,33.0
30.0,-261.0,-32.0,-413.0,24.0,27.0,24.0,-980.0,36.0
27.0,-262.0,-32.0,-409.0,28.0,32.0,22.0,-998.0,39.0
26.0,-261.0,-30.0,-396.0,30.0,34.0,19.0,-998.0,45.0
27.0,-260.0,-32.0,-379.0,33.0,36.0,14.0,-995.0,43.0
28.0,-259.0,-25.0,-358.0,37.0,36.0,20.0,-991.0,40.0
21.0,-255.0,-31.0,-342.0,44.0,34.0,13.0,-978.0,39.0
24.0,-252.0,-35.0,-328.0,50.0,30.0,16.0,-962.0,30.0
26.0,-249.0,-33.0,-325.0,58.0,22.0,13.0,-949.0,30.0
25.0,-245.0,-38.0,-332.0,67.0,14.0,16.0,-940.0,25.0
26.0,-244.0,-35.0,-350.0,78.0,3.0,13.0,-939.0,16.0
25.0,-243.0,-41.0,-378.0,87.0,-3.0,18.0,-940.0,4.0
25.0,-246.0,-42.0,-406.0,94.0,-13.0,16.0,-945.0,6.0
27.0,-250.0,-44.0,-435.0,95.0,-20.0,14.0,-954.0,3.0
28.0,-254.0,-42.0,-455.0,97.0,-23.0,18.0,-968.0,3.0
29.0,-257.0,-40.0,-464.0,98.0,-19.0,19.0,-987.0,14.0
25.0,-257.0,-43.0,-463.0,94.0,-16.0,21.0,-985.0,5.0
29.0,-260.0,-47.0,-459.0,87.0,-6.0,26.0,-985.0,1.0
28.0,-258.0,-40.0,-456.0,78.0,6.0,24.0,-982.0,5.0
26.0,-253.0,-39.0,-456.0,61.0,19.0,24.0,-979.0,13.0
27.0,-255.0,-37.0,-458.0,47.0,36.0,31.0,-971.0,20.0
32.0,-253.0,-37.0,-462.0,35.0,49.0,30.0,-961.0,26.0
29.0,-248.0,-34.0,-466.0,31.0,62.0,27.0,-957.0,34.0
27.0,-247.0,-36.0,-470.0,32.0,75.0,23.0,-945.0,29.0
24.0,-246.0,-36.0,-477.0,37.0,85.0,16.0,-933.0,29.0
20.0,-239.0,-34.0,-485.0,45.0,99.0,8.0,-923.0,30.0
20.0,-239.0,-37.0,-501.0,51.0,113.0,0.0,-912.0,26.0
30.0,-242.0,-40.0,-520.0,57.0,128.0,-3.0,-910.0,20.0
15.0,-235.0,-37.0,-542.0,64.0,147.0,-11.0,-911.0,23.0
17.0,-239.0,-37.0,-561.0,70.0,165.0,-18.0,-911.0,18.0
14.0,-239.0,-35.0,-573.0,70.0,182.0,-13.0,-920.0,18.0
19.0,-241.0,-37.0,-575.0,64.0,196.0,-6.0,-928.0,24.0
18.0,-246.0,-33.0,-569.0,54.0,208.0,-15.0,-930.0,29.0
12.0,-246.0,-31.0,-560.0,42.0,215.0,-20.0,-941.0,45.0
11.0,-250.0,-32.0,-554.0,35.0,218.0,-34.0,-948.0,51.0
14.0,-251.0,-29.0,-555.0,34.0,221.0,-33.0,-960.0,65.0
12.0,-251.0,-22.0,-571.0,41.0,220.0,-39.0,-969.0,78.0
8.0,-254.0,-17.0,-606.0,51.0,218.0,-51.0,-982.0,91.0
10.0,-258.0,-18.0,-661.0,62.0,221.0,-51.0,-997.0,105.0
8.0,-258.0,-13.0,-734.0,77.0,221.0,-52.0,-1005.0,114.0
7.0,-261.0,-11.0,-813.0,90.0,222.0,-53.0,-1013.0,120.0
7.0,-269.0,-8.0,-886.0,96.0,219.0,-44.0,-1036.0,121.0
8.0,-280.0,-9.0,-946.0,96.0,212.0,-46.0,-1072.0,129.0
12.0,-292.0,-10.0,-986.0,91.0,202.0,-35.0,-1121.0,124.0
12.0,-303.0,-12.0,-1004.0,82.0,189.0,-31.0,-1171.0,104.0
12.0,-313.0,-24.0,-1009.0,81.0,173.0,-32.0,-1193.0,70.0
11.0,-313.0,-38.0,-1010.0,85.0,154.0,-43.0,-1197.0,14.0
2.0,-310.0,-57.0,-1022.0,90.0,132.0,-63.0,-1181.0,-60.0
-7.0,-304.0,-79.0,-1055.0,94.0,110.0,-98.0,-1152.0,-140.0
-16.0,-282.0,-103.0,-1120.0,100.0,96.0,-150.0,-1105.0,-231.0
-29.0,-268.0,-121.0,-1227.0,104.0,97.0,-181.0,-1041.0,-316.0
-30.0,-254.0,-138.0,-1388.0,101.0,115.0,-187.0,-1004.0,-391.0
-30.0,-251.0,-152.0,-1606.0,93.0,145.0,-187.0,-998.0,-452.0
-32.0,-262.0,-159.0,-1857.0,77.0,180.0,-182.0,-1038.0,-470.0
-25.0,-280.0,-155.0,-2116.0,41.0,219.0,-181.0,-1105.0,-458.0
-23.0,-304.0,-149.0,-2343.0,-11.0,254.0,-168.0,-1179.0,-444.0
-18.0,-329.0,-145.0,-2513.0,-76.0,286.0,-147.0,-1271.0,-429.0
-9.0,-358.0,-148.0,-2602.0,-134.0,320.0,-121.0,-1353.0,-422.0
0.0,-372.0,-156.0,-2613.0,-183.0,360.0,-96.0,-1432.0,-409.0
-2.0,-401.0,-135.0,-2556.0,-223.0,401.0,-90.0,-1496.0,-384.0
4.0,-417.0,-128.0,-2453.0,-256.0,440.0,-61.0,-1564.0,-363.0
12.0,-433.0,-129.0,-2325.0,-276.0,465.0,-40.0,-1628.0,-347.0
16.0,-444.0,-130.0,-2189.0,-285.0,482.0,-21.0,-1688.0,-347.0
19.0,-458.0,-127.0,-2050.0,-281.0,483.0,-2.0,-1726.0,-358.0
22.0,-467.0,-133.0,-1903.0,-271.0,471.0,11.0,-1771.0,-383.0
22.0,-474.0,-135.0,-1747.0,-251.0,440.0,1.0,-1786.0,-394.0
23.0,-479.0,-148.0,-1581.0,-234.0,400.0,4.0,-1800.0,-436.0
12.0,-469.0,-158.0,-1412.0,-224.0,344.0,-23.0,-1789.0,-446.0
21.0,-451.0,-180.0,-1247.0,-225.0,301.0,-10.0,-1748.0,-484.0
18.0,-446.0,-175.0,-1094.0,-238.0,245.0,4.0,-1695.0,-538.0
18.0,-427.0,-181.0,-947.0,-244.0,175.0,-6.0,-1618.0,-568.0
18.0,-402.0,-190.0,-807.0,-245.0,120.0,-12.0,-1525.0,-609.0
16.0,-383.0,-202.0,-687.0,-237.0,83.0,-13.0,-1457.0,-643.0
22.0,-360.0,-208.0,-598.0,-214.0,57.0,-2.0,-1386.0,-674.0
9.0,-340.0,-213.0,-550.0,-178.0,29.0,-30.0,-1313.0,-696.0
9.0,-323.0,-207.0,-546.0,-132.0,20.0,-37.0,-1244.0,-694.0
10.0,-311.0,-203.0,-582.0,-92.0,26.0,-34.0,-1193.0,-680.0
3.0,-299.0,-202.0,-642.0,-59.0,21.0,-51.0,-1151.0,-644.0
4.0,-294.0,-191.0,-727.0,-40.0,14.0,-65.0,-1128.0,-615.0
10.0,-292.0,-182.0,-827.0,-32.0,19.0,-71.0,-1121.0,-591.0
-1.0,-293.0,-183.0,-930.0,-34.0,28.0,-86.0,-1131.0,-565.0
0.0,-302.0,-171.0,-1025.0,-44.0,38.0,-75.0,-1139.0,-537.0
0.0,-303.0,-171.0,-1096.0,-59.0,32.0,-66.0,-1163.0,-507.0
-1.0,-311.0,-161.0,-1138.0,-77.0,20.0,-77.0,-1179.0,-490.0
3.0,-319.0,-154.0,-1156.0,-96.0,34.0,-62.0,-1194.0,-459.0
5.0,-315.0,-152.0,-1153.0,-117.0,48.0,-39.0,-1210.0,-451.0
10.0,-318.0,-156.0,-1139.0,-136.0,55.0,-31.0,-1213.0,-450.0
18.0,-319.0,-155.0,-1126.0,-150.0,64.0,-10.0,-1211.0,-455.0
17.0,-312.0,-157.0,-1119.0,-153.0,62.0,-7.0,-1200.0,-465.0
15.0,-312.0,-158.0,-1114.0,-142.0,56.0,-12.0,-1183.0,-460.0
17.0,-308.0,-154.0,-1117.0,-127.0,57.0,-18.0,-1170.0,-459.0
16.0,-305.0,-154.0,-1126.0,-108.0,59.0,-9.0,-1158.0,-454.0
10.0,-301.0,-155.0,-1128.0,-84.0,42.0,-33.0,-1146.0,-451.0
6.0,-296.0,-151.0,-1123.0,-58.0,37.0,-42.0,-1126.0,-444.0
7.0,-294.0,-147.0,-1109.0,-37.0,38.0,-47.0,-1121.0,-434.0
6.0,-294.0,-144.0,-1078.0,-19.0,30.0,-60.0,-1113.0,-418.0
1.0,-287.0,-140.0,-1032.0,-10.0,21.0,-77.0,-1088.0,-410.0
3.0,-282.0,-134.0,-976.0,-5.0,31.0,-83.0,-1071.0,-393.0
0.0,-276.0,-133.0,-906.0,-4.0,32.0,-75.0,-1057.0,-388.0
-3.0,-269.0,-131.0,-827.0,1.0,14.0,-86.0,-1023.0,-373.0
-8.0,-263.0,-130.0,-746.0,-1.0,1.0,-102.0,-1002.0,-374.0
-4.0,-256.0,-134.0,-680.0,-8.0,11.0,-82.0,-970.0,-361.0
-5.0,-249.0,-131.0,-626.0,-11.0,8.0,-98.0,-944.0,-354.0
-3.0,-242.0,-129.0,-572.0,-21.0,-2.0,-98.0,-910.0,-346.0
-6.0,-230.0,-126.0,-529.0,-30.0,-2.0,-101.0,-872.0,-335.0
-3.0,-228.0,-128.0,-498.0,-38.0,1.0,-82.0,-862.0,-347.0
-3.0,-217.0,-123.0,-479.0,-40.0,-3.0,-102.0,-823.0,-327.0
-7.0,-213.0,-123.0,-453.0,-41.0,-14.0,-101.0,-802.0,-326.0
-3.0,-209.0,-123.0,-432.0,-45.0,-14.0,-102.0,-785.0,-327.0
-3.0,-202.0,-123.0,-414.0,-49.0,-9.0,-87.0,-767.0,-323.0
6.0,-199.0,-120.0,-401.0,-50.0,-1.0,-57.0,-745.0,-318.0
8.0,-195.0,-121.0,-383.0,-48.0,-13.0,-55.0,-737.0,-321.0
17.0,-197.0,-130.0,-354.0,-41.0,-38.0,-45.0,-721.0,-339.0
8.0,-187.0,-125.0,-327.0,-36.0,-61.0,-51.0,-704.0,-324.0
5.0,-187.0,-127.0,-293.0,-38.0,-61.0,-51.0,-704.0,-328.0
8.0,-189.0,-130.0,-255.0,-41.0,-47.0,-30.0,-700.0,-333.0
15.0,-191.0,-128.0,-214.0,-46.0,-35.0,-19.0,-696.0,-342.0
15.0,-185.0,-127.0,-172.0,-50.0,-30.0,-18.0,-697.0,-345.0
15.0,-182.0,-128.0,-125.0,-54.0,-33.0,-23.0,-689.0,-358.0
17.0,-186.0,-129.0,-77.0,-58.0,-35.0,-28.0,-673.0,-361.0
17.0,-180.0,-132.0,-30.0,-63.0,-30.0,-9.0,-665.0,-365.0
15.0,-178.0,-133.0,21.0,-65.0,-33.0,-14.0,-651.0,-369.0
11.0,-172.0,-133.0,83.0,-68.0,-40.0,-33.0,-640.0,-367.0
9.0,-166.0,-133.0,146.0,-70.0,-46.0,-46.0,-625.0,-372.0
14.0,-168.0,-137.0,205.0,-71.0,-59.0,-30.0,-624.0,-379.0
2.0,-157.0,-132.0,259.0,-66.0,-85.0,-66.0,-581.0,-370.0
0.0,-151.0,-134.0,315.0,-65.0,-101.0,-72.0,-565.0,-370.0
1.0,-146.0,-132.0,368.0,-65.0,-107.0,-75.0,-542.0,-375.0
0.0,-140.0,-130.0,414.0,-66.0,-109.0,-89.0,-527.0,-381.0
-1.0,-138.0,-135.0,453.0,-65.0,-111.0,-91.0,-511.0,-379.0
0.0,-136.0,-139.0,485.0,-68.0,-112.0,-94.0,-498.0,-383.0
0.0,-129.0,-132.0,509.0,-70.0,-115.0,-88.0,-487.0,-386.0
0.0,-129.0,-139.0,528.0,-75.0,-116.0,-96.0,-472.0,-400.0
-1.0,-124.0,-143.0,544.0,-82.0,-112.0,-87.0,-457.0,-396.0
0.0,-123.0,-147.0,557.0,-90.0,-109.0,-85.0,-453.0,-414.0
0.0,-120.0,-149.0,561.0,-94.0,-104.0,-94.0,-452.0,-436.0
0.0,-120.0,-150.0,550.0,-98.0,-99.0,-90.0,-440.0,-437.0
0.0,-116.0,-152.0,526.0,-100.0,-92.0,-97.0,-438.0,-439.0
-1.0,-117.0,-153.0,495.0,-97.0,-86.0,-92.0,-440.0,-440.0
0.0,-122.0,-150.0,463.0,-85.0,-85.0,-86.0,-443.0,-439.0
0.0,-124.0,-152.0,431.0,-67.0,-85.0,-80.0,-449.0,-438.0
0.0,-121.0,-153.0,400.0,-44.0,-89.0,-79.0,-451.0,-440.0
2.0,-125.0,-151.0,377.0,-15.0,-89.0,-72.0,-451.0,-441.0
3.0,-124.0,-153.0,361.0,19.0,-98.0,-56.0,-455.0,-437.0
5.0,-125.0,-152.0,356.0,54.0,-111.0,-57.0,-454.0,-446.0
3.0,-127.0,-157.0,362.0,86.0,-123.0,-63.0,-461.0,-465.0
6.0,-128.0,-159.0,368.0,114.0,-132.0,-58.0,-470.0,-471.0
1.0,-125.0,-164.0,371.0,137.0,-139.0,-64.0,-473.0,-486.0
4.0,-130.0,-167.0,369.0,153.0,-145.0,-65.0,-482.0,-505.0
0.0,-129.0,-168.0,361.0,161.0,-150.0,-74.0,-490.0,-519.0
0.0,-131.0,-174.0,345.0,158.0,-154.0,-82.0,-494.0,-534.0
0.0,-138.0,-174.0,322.0,148.0,-153.0,-89.0,-521.0,-547.0
0.0,-140.0,-181.0,295.0,134.0,-152.0,-88.0,-532.0,-553.0
-1.0,-143.0,-179.0,265.0,117.0,-146.0,-91.0,-544.0,-554.0
-1.0,-152.0,-181.0,241.0,99.0,-141.0,-85.0,-570.0,-558.0
-2.0,-157.0,-188.0,220.0,84.0,-134.0,-90.0,-585.0,-572.0
-1.0,-164.0,-185.0,192.0,72.0,-127.0,-94.0,-608.0,-579.0
-4.0,-167.0,-185.0,163.0,58.0,-117.0,-98.0,-627.0,-580.0
-5.0,-175.0,-186.0,136.0,45.0,-108.0,-98.0,-653.0,-579.0
-5.0,-182.0,-188.0,116.0,28.0,-100.0,-98.0,-680.0,-584.0
-6.0,-191.0,-188.0,102.0,13.0,-95.0,-97.0,-710.0,-587.0
-3.0,-193.0,-190.0,98.0,-3.0,-91.0,-93.0,-723.0,-586.0
-3.0,-198.0,-189.0,98.0,-15.0,-87.0,-85.0,-749.0,-588.0
0.0,-202.0,-185.0,105.0,-26.0,-82.0,-79.0,-757.0,-586.0
0.0,-204.0,-188.0,116.0,-31.0,-80.0,-78.0,-768.0,-578.0
4.0,-205.0,-188.0,135.0,-34.0,-79.0,-70.0,-772.0,-569.0
3.0,-207.0,-181.0,155.0,-35.0,-75.0,-68.0,-773.0,-568.0
3.0,-206.0,-182.0,177.0,-35.0,-68.0,-64.0,-778.0,-568.0
2.0,-204.0,-179.0,196.0,-35.0,-62.0,-63.0,-773.0,-567.0
5.0,-204.0,-184.0,212.0,-31.0,-56.0,-61.0,-776.0,-565.0
4.0,-203.0,-182.0,219.0,-31.0,-49.0,-66.0,-775.0,-559.0
3.0,-202.0,-178.0,213.0,-30.0,-41.0,-65.0,-773.0,-557.0
1.0,-203.0,-176.0,203.0,-33.0,-35.0,-67.0,-780.0,-556.0
2.0,-207.0,-180.0,194.0,-34.0,-27.0,-71.0,-786.0,-562.0
2.0,-208.0,-182.0,186.0,-32.0,-20.0,-70.0,-787.0,-566.0
2.0,-209.0,-181.0,183.0,-31.0,-16.0,-66.0,-791.0,-568.0
0.0,-210.0,-185.0,177.0,-27.0,-12.0,-71.0,-793.0,-574.0
-3.0,-203.0,-191.0,175.0,-19.0,-7.0,-67.0,-795.0,-571.0
1.0,-208.0,-184.0,171.0,-10.0,-4.0,-71.0,-794.0,-573.0
3.0,-210.0,-185.0,171.0,-3.0,-1.0,-74.0,-795.0,-569.0
1.0,-209.0,-184.0,167.0,4.0,1.0,-77.0,-785.0,-571.0
-2.0,-205.0,-182.0,166.0,11.0,4.0,-81.0,-777.0,-565.0
0.0,-204.0,-183.0,166.0,17.0,6.0,-89.0,-774.0,-570.0
-2.0,-200.0,-181.0,167.0,20.0,10.0,-87.0,-760.0,-565.0
-1.0,-199.0,-180.0,163.0,20.0,11.0,-94.0,-762.0,-566.0
-4.0,-198.0,-184.0,156.0,17.0,13.0,-97.0,-756.0,-558.0
-5.0,-196.0,-178.0,143.0,14.0,16.0,-93.0,-753.0,-557.0
-4.0,-197.0,-178.0,125.0,8.0,17.0,-97.0,-754.0,-552.0
0.0,-204.0,-183.0,107.0,5.0,19.0,-103.0,-757.0,-545.0
-5.0,-200.0,-176.0,86.0,1.0,19.0,-98.0,-764.0,-549.0
-4.0,-205.0,-176.0,67.0,0.0,20.0,-98.0,-768.0,-545.0
-2.0,-204.0,-174.0,48.0,0.0,23.0,-97.0,-775.0,-542.0
-4.0,-209.0,-176.0,30.0,0.0,24.0,-98.0,-794.0,-543.0
-5.0,-211.0,-175.0,11.0,-1.0,23.0,-103.0,-796.0,-543.0
-4.0,-209.0,-176.0,-3.0,-1.0,25.0,-102.0,-805.0,-540.0
-5.0,-217.0,-175.0,-17.0,1.0,24.0,-102.0,-816.0,-539.0
-5.0,-219.0,-171.0,-29.0,5.0,24.0,-102.0,-824.0,-535.0
-4.0,-219.0,-173.0,-36.0,9.0,24.0,-101.0,-826.0,-535.0
-4.0,-222.0,-172.0,-39.0,15.0,25.0,-105.0,-830.0,-535.0
-10.0,-216.0,-175.0,-39.0,20.0,26.0,-105.0,-845.0,-515.0
-3.0,-226.0,-169.0,-36.0,25.0,24.0,-105.0,-846.0,-516.0
-7.0,-224.0,-163.0,-30.0,28.0,23.0,-107.0,-848.0,-504.0
-4.0,-226.0,-168.0,-25.0,33.0,21.0,-106.0,-855.0,-499.0
-9.0,-227.0,-163.0,-21.0,37.0,18.0,-106.0,-859.0,-488.0
-6.0,-227.0,-163.0,-18.0,39.0,13.0,-108.0,-863.0,-487.0
-9.0,-229.0,-161.0,-17.0,39.0,9.0,-107.0,-866.0,-479.0
-9.0,-229.0,-160.0,-17.0,37.0,5.0,-110.0,-867.0,-475.0
-8.0,-229.0,-160.0,-19.0,31.0,1.0,-115.0,-872.0,-475.0
-7.0,-228.0,-158.0,-22.0,24.0,-2.0,-114.0,-879.0,-470.0
-6.0,-240.0,-155.0,-29.0,14.0,-8.0,-114.0,-884.0,-463.0
-12.0,-235.0,-155.0,-35.0,5.0,-10.0,-118.0,-883.0,-460.0
-8.0,-236.0,-156.0,-38.0,-5.0,-16.0,-110.0,-888.0,-459.0
-9.0,-237.0,-153.0,-39.0,-15.0,-21.0,-109.0,-898.0,-453.0
-7.0,-240.0,-156.0,-31.0,-23.0,-26.0,-105.0,-900.0,-460.0
-7.0,-238.0,-152.0,-22.0,-29.0,-32.0,-108.0,-897.0,-453.0
-9.0,-236.0,-154.0,-10.0,-33.0,-36.0,-108.0,-890.0,-456.0
-7.0,-236.0,-161.0,4.0,-36.0,-39.0,-107.0,-886.0,-451.0
-4.0,-235.0,-156.0,15.0,-36.0,-41.0,-105.0,-880.0,-456.0
-5.0,-233.0,-154.0,22.0,-35.0,-41.0,-103.0,-881.0,-462.0
-13.0,-221.0,-168.0,27.0,-34.0,-42.0,-101.0,-878.0,-461.0
-1.0,-229.0,-154.0,30.0,-31.0,-40.0,-94.0,-871.0,-464.0
-1.0,-230.0,-155.0,30.0,-26.0,-38.0,-92.0,-866.0,-466.0
0.0,-229.0,-159.0,29.0,-22.0,-35.0,-89.0,-858.0,-462.0
-2.0,-225.0,-159.0,24.0,-16.0,-33.0,-86.0,-856.0,-468.0
-1.0,-225.0,-157.0,16.0,-12.0,-30.0,-89.0,-858.0,-465.0
-1.0,-224.0,-160.0,7.0,-8.0,-30.0,-89.0,-857.0,-471.0
-2.0,-226.0,-160.0,-6.0,-3.0,-28.0,-87.0,-856.0,-472.0
0.0,-224.0,-160.0,-19.0,-1.0,-26.0,-79.0,-858.0,-480.0
-2.0,-228.0,-160.0,-34.0,2.0,-26.0,-84.0,-859.0,-485.0
0.0,-225.0,-162.0,-50.0,3.0,-26.0,-91.0,-867.0,-485.0
-1.0,-223.0,-163.0,-67.0,5.0,-26.0,-90.0,-873.0,-485.0
0.0,-234.0,-164.0,-79.0,5.0,-27.0,-90.0,-881.0,-483.0
-1.0,-234.0,-159.0,-92.0,2.0,-26.0,-95.0,-892.0,-487.0
-4.0,-239.0,-161.0,-99.0,-2.0,-26.0,-98.0,-905.0,-484.0
-1.0,-242.0,-160.0,-100.0,-5.0,-25.0,-100.0,-910.0,-490.0
-2.0,-243.0,-158.0,-96.0,-11.0,-23.0,-96.0,-916.0,-484.0
-9.0,-241.0,-161.0,-85.0,-18.0,-22.0,-92.0,-919.0,-482.0
-6.0,-240.0,-159.0,-69.0,-24.0,-18.0,-94.0,-922.0,-482.0
-5.0,-244.0,-159.0,-52.0,-31.0,-17.0,-93.0,-922.0,-473.0
-1.0,-242.0,-160.0,-38.0,-38.0,-15.0,-92.0,-918.0,-475.0
-2.0,-241.0,-153.0,-28.0,-42.0,-14.0,-88.0,-915.0,-481.0
0.0,-241.0,-163.0,-17.0,-44.0,-14.0,-89.0,-913.0,-475.0
0.0,-240.0,-159.0,-8.0,-45.0,-15.0,-84.0,-913.0,-474.0
0.0,-238.0,-158.0,1.0,-46.0,-15.0,-88.0,-912.0,-469.0
0.0,-241.0,-151.0,12.0,-46.0,-15.0,-88.0,-911.0,-466.0
0.0,-238.0,-156.0,21.0,-47.0,-16.0,-77.0,-904.0,-460.0
0.0,-234.0,-157.0,30.0,-44.0,-18.0,-82.0,-900.0,-456.0
0.0,-237.0,-156.0,38.0,-43.0,-21.0,-85.0,-885.0,-455.0
1.0,-234.0,-155.0,41.0,-43.0,-21.0,-77.0,-884.0,-454.0
0.0,-234.0,-151.0,43.0,-41.0,-22.0,-74.0,-882.0,-451.0
0.0,-229.0,-153.0,40.0,-42.0,-21.0,-72.0,-880.0,-454.0
0.0,-232.0,-151.0,35.0,-42.0,-20.0,-75.0,-874.0,-450.0
1.0,-229.0,-154.0,29.0,-43.0,-20.0,-73.0,-875.0,-445.0
2.0,-231.0,-152.0,22.0,-42.0,-21.0,-69.0,-872.0,-443.0
2.0,-231.0,-148.0,17.0,-41.0,-21.0,-69.0,-872.0,-445.0
2.0,-231.0,-146.0,15.0,-39.0,-22.0,-71.0,-874.0,-442.0
3.0,-232.0,-149.0,11.0,-39.0,-20.0,-68.0,-866.0,-444.0
2.0,-227.0,-150.0,5.0,-37.0,-18.0,-67.0,-862.0,-440.0
4.0,-227.0,-152.0,-1.0,-34.0,-18.0,-66.0,-864.0,-439.0
3.0,-228.0,-150.0,-11.0,-32.0,-16.0,-66.0,-870.0,-442.0
5.0,-233.0,-146.0,-21.0,-32.0,-13.0,-58.0,-872.0,-442.0
4.0,-229.0,-153.0,-29.0,-30.0,-10.0,-56.0,-877.0,-441.0
4.0,-229.0,-150.0,-34.0,-26.0,-9.0,-51.0,-877.0,-438.0
9.0,-233.0,-147.0,-33.0,-23.0,-7.0,-53.0,-874.0,-440.0
4.0,-233.0,-154.0,-31.0,-19.0,-8.0,-57.0,-881.0,-440.0
8.0,-236.0,-153.0,-28.0,-15.0,-10.0,-58.0,-883.0,-449.0
5.0,-234.0,-152.0,-27.0,-11.0,-12.0,-53.0,-884.0,-445.0
3.0,-232.0,-151.0,-28.0,-4.0,-12.0,-58.0,-881.0,-452.0
4.0,-234.0,-152.0,-31.0,2.0,-13.0,-56.0,-882.0,-448.0
1.0,-232.0,-155.0,-37.0,8.0,-15.0,-62.0,-880.0,-453.0
3.0,-235.0,-156.0,-42.0,13.0,-17.0,-68.0,-886.0,-454.0
0.0,-235.0,-155.0,-46.0,18.0,-18.0,-70.0,-889.0,-453.0
0.0,-236.0,-157.0,-52.0,21.0,-19.0,-75.0,-889.0,-463.0
3.0,-237.0,-159.0,-59.0,25.0,-19.0,-77.0,-902.0,-461.0
1.0,-241.0,-160.0,-69.0,27.0,-17.0,-83.0,-913.0,-464.0
1.0,-244.0,-155.0,-80.0,27.0,-16.0,-80.0,-915.0,-468.0
-2.0,-245.0,-161.0,-90.0,28.0,-13.0,-78.0,-922.0,-467.0
1.0,-248.0,-159.0,-93.0,30.0,-13.0,-77.0,-934.0,-469.0
0.0,-248.0,-158.0,-91.0,31.0,-13.0,-81.0,-939.0,-467.0
1.0,-250.0,-157.0,-84.0,31.0,-13.0,-78.0,-939.0,-463.0
0.0,-248.0,-156.0,-71.0,34.0,-14.0,-77.0,-939.0,-465.0
1.0,-248.0,-155.0,-59.0,34.0,-16.0,-72.0,-938.0,-458.0
0.0,-245.0,-158.0,-44.0,35.0,-17.0,-72.0,-937.0,-453.0
0.0,-248.0,-156.0,-29.0,35.0,-19.0,-68.0,-933.0,-447.0
0.0,-242.0,-151.0,-16.0,34.0,-19.0,-67.0,-931.0,-447.0
3.0,-243.0,-154.0,-6.0,31.0,-20.0,-68.0,-922.0,-440.0
1.0,-239.0,-147.0,0.0,30.0,-19.0,-67.0,-912.0,-440.0
2.0,-239.0,-148.0,6.0,28.0,-19.0,-63.0,-909.0,-437.0
1.0,-237.0,-150.0,7.0,26.0,-19.0,-61.0,-908.0,-432.0
1.0,-236.0,-147.0,11.0,22.0,-19.0,-66.0,-896.0,-436.0
6.0,-236.0,-145.0,14.0,20.0,-18.0,-63.0,-900.0,-433.0
6.0,-234.0,-148.0,17.0,19.0,-18.0,-61.0,-885.0,-440.0
4.0,-233.0,-150.0,17.0,18.0,-19.0,-65.0,-884.0,-439.0
4.0,-233.0,-147.0,18.0,18.0,-18.0,-61.0,-885.0,-439.0
3.0,-234.0,-148.0,17.0,18.0,-18.0,-60.0,-883.0,-440.0
3.0,-231.0,-152.0,14.0,19.0,-17.0,-57.0,-882.0,-441.0
2.0,-231.0,-152.0,9.0,20.0,-16.0,-55.0,-884.0,-443.0
4.0,-231.0,-149.0,7.0,23.0,-17.0,-55.0,-881.0,-443.0
5.0,-234.0,-156.0,3.0,25.0,-15.0,-59.0,-879.0,-441.0
3.0,-234.0,-151.0,1.0,29.0,-13.0,-65.0,-879.0,-441.0
3.0,-229.0,-146.0,1.0,31.0,-13.0,-66.0,-878.0,-444.0
2.0,-231.0,-150.0,-1.0,34.0,-13.0,-71.0,-879.0,-441.0
2.0,-232.0,-149.0,-6.0,37.0,-12.0,-67.0,-878.0,-445.0
1.0,-230.0,-149.0,-9.0,39.0,-10.0,-67.0,-876.0,-446.0
3.0,-235.0,-154.0,-13.0,42.0,-10.0,-70.0,-880.0,-445.0
2.0,-232.0,-152.0,-18.0,44.0,-10.0,-69.0,-883.0,-444.0
0.0,-232.0,-151.0,-23.0,45.0,-7.0,-67.0,-885.0,-442.0
2.0,-235.0,-149.0,-26.0,49.0,-5.0,-74.0,-882.0,-441.0
1.0,-240.0,-150.0,-30.0,49.0,-6.0,-73.0,-886.0,-439.0
1.0,-234.0,-151.0,-32.0,48.0,-6.0,-72.0,-889.0,-441.0
0.0,-234.0,-152.0,-37.0,47.0,-3.0,-75.0,-890.0,-444.0
0.0,-233.0,-151.0,-40.0,45.0,-2.0,-77.0,-898.0,-441.0
2.0,-237.0,-152.0,-42.0,45.0,-2.0,-73.0,-894.0,-445.0
1.0,-239.0,-150.0,-41.0,47.0,-1.0,-80.0,-906.0,-446.0
0.0,-239.0,-152.0,-39.0,50.0,-1.0,-77.0,-908.0,-447.0
1.0,-240.0,-155.0,-38.0,52.0,0.0,-74.0,-907.0,-445.0
0.0,-241.0,-152.0,-41.0,55.0,2.0,-78.0,-911.0,-448.0
0.0,-239.0,-151.0,-42.0,57.0,3.0,-75.0,-913.0,-451.0
1.0,-239.0,-151.0,-44.0,57.0,3.0,-72.0,-917.0,-447.0
0.0,-242.0,-155.0,-42.0,58.0,3.0,-78.0,-917.0,-448.0
2.0,-241.0,-156.0,-37.0,58.0,3.0,-72.0,-914.0,-449.0
1.0,-240.0,-151.0,-30.0,56.0,3.0,-75.0,-916.0,-446.0
0.0,-241.0,-153.0,-23.0,53.0,3.0,-72.0,-906.0,-450.0
1.0,-242.0,-152.0,-19.0,52.0,2.0,-69.0,-917.0,-448.0
0.0,-235.0,-152.0,-13.0,50.0,1.0,-73.0,-907.0,-442.0
1.0,-239.0,-151.0,-8.0,47.0,1.0,-68.0,-894.0,-441.0
0.0,-233.0,-152.0,-4.0,47.0,0.0,-75.0,-889.0,-438.0
1.0,-237.0,-156.0,-4.0,46.0,2.0,-67.0,-887.0,-441.0
1.0,-236.0,-148.0,-2.0,45.0,1.0,-69.0,-888.0,-445.0
0.0,-230.0,-151.0,-3.0,43.0,1.0,-65.0,-884.0,-436.0
1.0,-234.0,-146.0,-2.0,42.0,0.0,-67.0,-881.0,-437.0
0.0,-231.0,-145.0,-3.0,39.0,-2.0,-72.0,-879.0,-439.0
1.0,-231.0,-147.0,-4.0,37.0,-1.0,-74.0,-875.0,-435.0
1.0,-230.0,-146.0,-8.0,35.0,-3.0,-77.0,-872.0,-442.0
0.0,-230.0,-150.0,-14.0,34.0,-4.0,-73.0,-872.0,-432.0
3.0,-233.0,-149.0,-19.0,33.0,-5.0,-71.0,-873.0,-439.0
2.0,-233.0,-152.0,-24.0,35.0,-6.0,-72.0,-875.0,-434.0
0.0,-230.0,-144.0,-29.0,35.0,-6.0,-75.0,-870.0,-431.0
0.0,-233.0,-151.0,-31.0,37.0,-7.0,-81.0,-879.0,-434.0
0.0,-228.0,-147.0,-34.0,38.0,-8.0,-72.0,-878.0,-429.0
1.0,-228.0,-147.0,-38.0,37.0,-8.0,-72.0,-875.0,-432.0
0.0,-228.0,-146.0,-41.0,40.0,-7.0,-78.0,-876.0,-433.0
0.0,-227.0,-148.0,-46.0,39.0,-7.0,-71.0,-880.0,-434.0
1.0,-229.0,-147.0,-54.0,40.0,-6.0,-77.0,-874.0,-432.0
1.0,-234.0,-147.0,-59.0,40.0,-5.0,-72.0,-882.0,-438.0
1.0,-231.0,-153.0,-62.0,42.0,-5.0,-72.0,-887.0,-438.0
1.0,-237.0,-149.0,-65.0,43.0,-4.0,-67.0,-886.0,-438.0
0.0,-233.0,-150.0,-68.0,43.0,-2.0,-68.0,-891.0,-446.0
0.0,-235.0,-150.0,-65.0,44.0,-2.0,-66.0,-890.0,-443.0
2.0,-237.0,-151.0,-63.0,44.0,-2.0,-65.0,-899.0,-439.0
6.0,-237.0,-151.0,-61.0,43.0,-1.0,-68.0,-890.0,-441.0
3.0,-231.0,-163.0,-57.0,42.0,-1.0,-69.0,-899.0,-441.0
2.0,-236.0,-153.0,-54.0,41.0,-1.0,-66.0,-895.0,-446.0
3.0,-237.0,-152.0,-53.0,41.0,-3.0,-71.0,-896.0,-447.0
4.0,-236.0,-151.0,-53.0,40.0,-3.0,-67.0,-896.0,-449.0
0.0,-237.0,-148.0,-52.0,41.0,-4.0,-69.0,-891.0,-445.0
2.0,-233.0,-151.0,-53.0,38.0,-3.0,-67.0,-896.0,-445.0
3.0,-236.0,-151.0,-53.0,37.0,-4.0,-71.0,-891.0,-443.0
2.0,-234.0,-154.0,-55.0,37.0,-6.0,-68.0,-897.0,-440.0
2.0,-235.0,-149.0,-54.0,36.0,-8.0,-66.0,-896.0,-443.0
1.0,-234.0,-150.0,-54.0,36.0,-10.0,-68.0,-896.0,-442.0
-3.0,-233.0,-154.0,-54.0,35.0,-10.0,-64.0,-890.0,-439.0
3.0,-236.0,-152.0,-55.0,32.0,-10.0,-62.0,-895.0,-438.0
2.0,-235.0,-148.0,-57.0,30.0,-13.0,-62.0,-886.0,-435.0
3.0,-236.0,-147.0,-57.0,28.0,-13.0,-70.0,-890.0,-426.0
2.0,-237.0,-150.0,-63.0,25.0,-13.0,-66.0,-897.0,-433.0
2.0,-234.0,-148.0,-67.0,22.0,-13.0,-65.0,-901.0,-430.0
2.0,-237.0,-149.0,-71.0,20.0,-14.0,-63.0,-889.0,-428.0
4.0,-241.0,-149.0,-77.0,18.0,-14.0,-65.0,-912.0,-434.0
3.0,-242.0,-149.0,-81.0,17.0,-13.0,-61.0,-914.0,-439.0
1.0,-240.0,-147.0,-85.0,16.0,-10.0,-62.0,-913.0,-441.0
4.0,-243.0,-147.0,-89.0,17.0,-10.0,-63.0,-923.0,-437.0
10.0,-232.0,-163.0,-89.0,18.0,-9.0,-63.0,-929.0,-441.0
1.0,-249.0,-150.0,-86.0,17.0,-6.0,-62.0,-930.0,-435.0
4.0,-244.0,-150.0,-80.0,18.0,-6.0,-61.0,-932.0,-440.0
3.0,-246.0,-146.0,-77.0,17.0,-7.0,-60.0,-933.0,-440.0
4.0,-245.0,-149.0,-72.0,20.0,-6.0,-61.0,-927.0,-438.0
2.0,-242.0,-148.0,-64.0,21.0,-8.0,-60.0,-919.0,-433.0
2.0,-241.0,-149.0,-58.0,22.0,-7.0,-65.0,-922.0,-434.0
3.0,-239.0,-152.0,-50.0,24.0,-8.0,-62.0,-915.0,-433.0
3.0,-238.0,-149.0,-45.0,26.0,-10.0,-60.0,-912.0,-436.0
4.0,-237.0,-147.0,-42.0,25.0,-8.0,-61.0,-912.0,-436.0
5.0,-239.0,-144.0,-37.0,25.0,-7.0,-62.0,-907.0,-435.0
5.0,-240.0,-146.0,-34.0,27.0,-8.0,-61.0,-901.0,-434.0
3.0,-239.0,-145.0,-35.0,26.0,-8.0,-65.0,-893.0,-430.0
3.0,-235.0,-147.0,-36.0,25.0,-7.0,-65.0,-895.0,-433.0
4.0,-234.0,-150.0,-37.0,24.0,-8.0,-62.0,-891.0,-433.0
2.0,-234.0,-147.0,-41.0,23.0,-9.0,-58.0,-892.0,-433.0
2.0,-236.0,-148.0,-44.0,23.0,-11.0,-60.0,-898.0,-431.0
3.0,-237.0,-147.0,-48.0,24.0,-11.0,-62.0,-891.0,-431.0
4.0,-236.0,-147.0,-50.0,22.0,-12.0,-60.0,-901.0,-431.0
1.0,-235.0,-145.0,-51.0,23.0,-14.0,-58.0,-900.0,-427.0
5.0,-237.0,-145.0,-51.0,23.0,-16.0,-61.0,-902.0,-426.0
3.0,-238.0,-147.0,-51.0,23.0,-18.0,-60.0,-900.0,-425.0
5.0,-239.0,-149.0,-50.0,23.0,-17.0,-63.0,-909.0,-430.0
1.0,-235.0,-149.0,-49.0,22.0,-17.0,-58.0,-902.0,-433.0
6.0,-238.0,-149.0,-52.0,24.0,-18.0,-61.0,-907.0,-435.0
1.0,-239.0,-147.0,-56.0,22.0,-19.0,-66.0,-910.0,-433.0
5.0,-240.0,-144.0,-58.0,23.0,-18.0,-62.0,-912.0,-431.0
4.0,-239.0,-148.0,-60.0,23.0,-17.0,-59.0,-915.0,-434.0
3.0,-241.0,-149.0,-61.0,22.0,-16.0,-65.0,-918.0,-439.0
4.0,-241.0,-151.0,-60.0,22.0,-15.0,-62.0,-921.0,-435.0
4.0,-245.0,-151.0,-56.0,20.0,-15.0,-63.0,-922.0,-439.0
4.0,-243.0,-150.0,-52.0,21.0,-13.0,-60.0,-927.0,-442.0
4.0,-244.0,-146.0,-48.0,22.0,-12.0,-55.0,-914.0,-444.0
5.0,-244.0,-149.0,-41.0,23.0,-13.0,-60.0,-924.0,-442.0
5.0,-244.0,-148.0,-35.0,25.0,-13.0,-58.0,-923.0,-444.0
3.0,-242.0,-150.0,-29.0,28.0,-11.0,-60.0,-920.0,-436.0
3.0,-242.0,-151.0,-25.0,28.0,-12.0,-63.0,-920.0,-435.0
4.0,-242.0,-146.0,-22.0,30.0,-13.0,-56.0,-915.0,-444.0
4.0,-238.0,-147.0,-18.0,32.0,-13.0,-57.0,-914.0,-437.0
4.0,-241.0,-144.0,-14.0,32.0,-12.0,-62.0,-914.0,-436.0
3.0,-242.0,-146.0,-12.0,32.0,-14.0,-65.0,-913.0,-434.0
5.0,-239.0,-150.0,-10.0,32.0,-15.0,-62.0,-913.0,-431.0
2.0,-238.0,-151.0,-9.0,30.0,-17.0,-61.0,-915.0,-433.0
6.0,-238.0,-144.0,-12.0,29.0,-18.0,-61.0,-912.0,-433.0
2.0,-237.0,-145.0,-12.0,28.0,-19.0,-65.0,-908.0,-429.0
4.0,-238.0,-149.0,-13.0,29.0,-20.0,-63.0,-910.0,-427.0
1.0,-237.0,-150.0,-15.0,27.0,-21.0,-65.0,-907.0,-428.0
6.0,-238.0,-145.0,-14.0,27.0,-23.0,-63.0,-903.0,-423.0
1.0,-236.0,-147.0,-16.0,27.0,-22.0,-60.0,-908.0,-425.0
4.0,-236.0,-150.0,-16.0,27.0,-22.0,-61.0,-902.0,-429.0
3.0,-239.0,-149.0,-17.0,26.0,-24.0,-56.0,-903.0,-432.0
7.0,-239.0,-150.0,-19.0,26.0,-24.0,-58.0,-907.0,-432.0
4.0,-233.0,-149.0,-20.0,25.0,-22.0,-58.0,-907.0,-432.0
5.0,-237.0,-146.0,-25.0,24.0,-22.0,-55.0,-906.0,-435.0
5.0,-237.0,-151.0,-26.0,23.0,-22.0,-54.0,-905.0,-436.0
7.0,-237.0,-149.0,-28.0,23.0,-23.0,-54.0,-909.0,-437.0
4.0,-235.0,-148.0,-29.0,22.0,-21.0,-53.0,-902.0,-441.0
6.0,-240.0,-148.0,-30.0,20.0,-22.0,-61.0,-910.0,-438.0
4.0,-239.0,-147.0,-28.0,19.0,-22.0,-61.0,-909.0,-442.0
2.0,-239.0,-151.0,-25.0,19.0,-22.0,-59.0,-906.0,-441.0
2.0,-237.0,-152.0,-23.0,19.0,-21.0,-60.0,-904.0,-441.0
3.0,-240.0,-150.0,-21.0,20.0,-20.0,-56.0,-905.0,-436.0
2.0,-233.0,-149.0,-20.0,20.0,-22.0,-59.0,-905.0,-439.0
6.0,-236.0,-154.0,-17.0,20.0,-21.0,-56.0,-903.0,-441.0
5.0,-236.0,-150.0,-17.0,21.0,-20.0,-54.0,-902.0,-438.0
4.0,-239.0,-153.0,-15.0,22.0,-21.0,-62.0,-911.0,-438.0
3.0,-235.0,-146.0,-15.0,22.0,-19.0,-59.0,-896.0,-437.0
1.0,-237.0,-145.0,-16.0,24.0,-18.0,-63.0,-896.0,-435.0
3.0,-236.0,-149.0,-14.0,24.0,-18.0,-62.0,-904.0,-434.0
2.0,-235.0,-149.0,-16.0,25.0,-18.0,-57.0,-898.0,-438.0
3.0,-236.0,-149.0,-19.0,24.0,-17.0,-59.0,-907.0,-429.0
4.0,-238.0,-149.0,-24.0,23.0,-17.0,-61.0,-899.0,-433.0
3.0,-240.0,-146.0,-27.0,24.0,-15.0,-63.0,-903.0,-430.0
5.0,-236.0,-149.0,-29.0,25.0,-17.0,-64.0,-906.0,-431.0
3.0,-238.0,-147.0,-32.0,25.0,-18.0,-62.0,-906.0,-426.0
6.0,-241.0,-145.0,-32.0,23.0,-17.0,-58.0,-905.0,-428.0
2.0,-237.0,-147.0,-30.0,23.0,-17.0,-63.0,-906.0,-430.0
1.0,-234.0,-146.0,-26.0,21.0,-15.0,-64.0,-899.0,-428.0
5.0,-238.0,-147.0,-27.0,19.0,-15.0,-60.0,-895.0,-431.0
4.0,-236.0,-151.0,-26.0,18.0,-14.0,-62.0,-894.0,-436.0
4.0,-235.0,-148.0,-28.0,17.0,-11.0,-64.0,-897.0,-429.0
3.0,-235.0,-150.0,-32.0,16.0,-11.0,-60.0,-901.0,-437.0
3.0,-237.0,-145.0,-37.0,16.0,-10.0,-62.0,-889.0,-430.0
2.0,-234.0,-151.0,-42.0,17.0,-9.0,-62.0,-901.0,-428.0
2.0,-236.0,-147.0,-45.0,19.0,-10.0,-65.0,-894.0,-427.0
2.0,-235.0,-144.0,-49.0,21.0,-10.0,-63.0,-899.0,-430.0
4.0,-235.0,-150.0,-54.0,21.0,-11.0,-60.0,-902.0,-432.0
5.0,-239.0,-149.0,-54.0,19.0,-12.0,-60.0,-900.0,-431.0
5.0,-238.0,-148.0,-53.0,19.0,-14.0,-61.0,-907.0,-434.0
3.0,-234.0,-155.0,-50.0,18.0,-14.0,-62.0,-901.0,-431.0
4.0,-236.0,-156.0,-50.0,18.0,-15.0,-63.0,-907.0,-438.0
3.0,-237.0,-149.0,-49.0,18.0,-17.0,-62.0,-892.0,-436.0
2.0,-239.0,-148.0,-49.0,17.0,-19.0,-60.0,-902.0,-437.0
8.0,-238.0,-149.0,-49.0,17.0,-17.0,-64.0,-898.0,-429.0
6.0,-238.0,-147.0,-51.0,16.0,-18.0,-59.0,-897.0,-434.0
4.0,-237.0,-152.0,-53.0,17.0,-18.0,-61.0,-906.0,-440.0
3.0,-238.0,-147.0,-55.0,18.0,-18.0,-60.0,-902.0,-433.0
5.0,-238.0,-149.0,-53.0,18.0,-16.0,-60.0,-908.0,-439.0
3.0,-237.0,-151.0,-52.0,21.0,-16.0,-64.0,-904.0,-437.0
7.0,-242.0,-146.0,-52.0,22.0,-17.0,-57.0,-915.0,-443.0
2.0,-236.0,-147.0,-50.0,23.0,-15.0,-58.0,-914.0,-428.0
7.0,-239.0,-148.0,-46.0,23.0,-15.0,-51.0,-920.0,-434.0
5.0,-240.0,-150.0,-44.0,23.0,-12.0,-49.0,-917.0,-436.0
4.0,-238.0,-149.0,-42.0,23.0,-11.0,-55.0,-915.0,-436.0
8.0,-240.0,-151.0,-41.0,22.0,-10.0,-49.0,-913.0,-432.0
6.0,-240.0,-149.0,-40.0,23.0,-10.0,-49.0,-912.0,-432.0
4.0,-239.0,-146.0,-41.0,24.0,-11.0,-52.0,-911.0,-434.0
7.0,-241.0,-144.0,-42.0,26.0,-9.0,-54.0,-909.0,-432.0
5.0,-239.0,-147.0,-42.0,25.0,-10.0,-51.0,-905.0,-427.0
8.0,-238.0,-147.0,-43.0,24.0,-8.0,-53.0,-909.0,-423.0
-1.0,-240.0,-147.0,-43.0,23.0,-9.0,-52.0,-908.0,-419.0
8.0,-242.0,-147.0,-44.0,23.0,-7.0,-50.0,-912.0,-427.0
5.0,-240.0,-145.0,-45.0,23.0,-7.0,-52.0,-915.0,-425.0
6.0,-238.0,-148.0,-42.0,21.0,-8.0,-47.0,-912.0,-426.0
5.0,-239.0,-148.0,-42.0,21.0,-8.0,-50.0,-915.0,-432.0
7.0,-242.0,-150.0,-37.0,20.0,-6.0,-53.0,-910.0,-427.0
7.0,-240.0,-148.0,-35.0,20.0,-5.0,-51.0,-912.0,-430.0
5.0,-240.0,-148.0,-29.0,20.0,-6.0,-45.0,-909.0,-434.0
9.0,-241.0,-151.0,-28.0,21.0,-5.0,-48.0,-909.0,-431.0
11.0,-241.0,-148.0,-27.0,20.0,-6.0,-49.0,-909.0,-431.0
6.0,-234.0,-149.0,-26.0,22.0,-5.0,-50.0,-901.0,-433.0
7.0,-236.0,-147.0,-25.0,23.0,-4.0,-53.0,-903.0,-425.0
6.0,-237.0,-149.0,-24.0,26.0,-4.0,-49.0,-895.0,-435.0
7.0,-238.0,-150.0,-24.0,27.0,-4.0,-52.0,-900.0,-432.0
6.0,-236.0,-145.0,-26.0,28.0,-5.0,-50.0,-893.0,-435.0
6.0,-238.0,-148.0,-26.0,28.0,-4.0,-49.0,-892.0,-429.0
7.0,-235.0,-146.0,-26.0,29.0,-4.0,-51.0,-898.0,-429.0
4.0,-236.0,-149.0,-28.0,27.0,-3.0,-58.0,-888.0,-428.0
7.0,-234.0,-147.0,-32.0,28.0,-4.0,-55.0,-887.0,-431.0
2.0,-235.0,-146.0,-33.0,26.0,-4.0,-62.0,-889.0,-429.0
3.0,-234.0,-143.0,-35.0,28.0,-3.0,-58.0,-892.0,-426.0
1.0,-225.0,-154.0,-37.0,25.0,-4.0,-58.0,-884.0,-426.0
6.0,-234.0,-150.0,-40.0,23.0,-2.0,-64.0,-878.0,-425.0
4.0,-238.0,-145.0,-43.0,22.0,-1.0,-62.0,-891.0,-427.0
2.0,-230.0,-150.0,-48.0,22.0,-1.0,-62.0,-885.0,-429.0
2.0,-232.0,-151.0,-50.0,21.0,2.0,-63.0,-896.0,-426.0
4.0,-237.0,-146.0,-54.0,22.0,3.0,-55.0,-889.0,-433.0
5.0,-238.0,-147.0,-55.0,23.0,3.0,-66.0,-902.0,-424.0
4.0,-235.0,-146.0,-58.0,25.0,4.0,-53.0,-903.0,-422.0
3.0,-236.0,-147.0,-64.0,29.0,6.0,-62.0,-909.0,-422.0
3.0,-237.0,-143.0,-66.0,31.0,7.0,-59.0,-909.0,-426.0
4.0,-237.0,-142.0,-66.0,34.0,8.0,-59.0,-917.0,-422.0
7.0,-239.0,-133.0,-64.0,38.0,9.0,-60.0,-913.0,-423.0
4.0,-242.0,-146.0,-63.0,40.0,7.0,-56.0,-920.0,-421.0
3.0,-243.0,-148.0,-63.0,43.0,9.0,-61.0,-923.0,-423.0
4.0,-243.0,-148.0,-64.0,44.0,9.0,-59.0,-923.0,-424.0
4.0,-245.0,-145.0,-65.0,45.0,8.0,-56.0,-925.0,-432.0
1.0,-245.0,-142.0,-66.0,44.0,7.0,-60.0,-931.0,-424.0
3.0,-245.0,-147.0,-64.0,44.0,6.0,-60.0,-932.0,-429.0
1.0,-244.0,-143.0,-60.0,44.0,5.0,-62.0,-936.0,-428.0
4.0,-246.0,-148.0,-56.0,42.0,4.0,-65.0,-935.0,-423.0
3.0,-245.0,-147.0,-49.0,41.0,2.0,-66.0,-938.0,-422.0
1.0,-244.0,-155.0,-43.0,39.0,0.0,-66.0,-936.0,-419.0
0.0,-244.0,-144.0,-35.0,38.0,-1.0,-68.0,-937.0,-421.0
1.0,-247.0,-144.0,-30.0,36.0,-1.0,-69.0,-935.0,-417.0
2.0,-248.0,-144.0,-25.0,35.0,-2.0,-66.0,-933.0,-412.0
3.0,-244.0,-142.0,-18.0,33.0,-3.0,-69.0,-930.0,-415.0
3.0,-244.0,-143.0,-12.0,31.0,-3.0,-62.0,-925.0,-418.0
4.0,-243.0,-142.0,-5.0,28.0,-4.0,-64.0,-923.0,-418.0
1.0,-240.0,-144.0,-1.0,24.0,-4.0,-64.0,-917.0,-414.0
2.0,-239.0,-146.0,2.0,20.0,-4.0,-63.0,-915.0,-413.0
3.0,-238.0,-144.0,5.0,18.0,-6.0,-61.0,-913.0,-417.0
1.0,-238.0,-147.0,5.0,15.0,-7.0,-61.0,-911.0,-417.0
4.0,-234.0,-143.0,2.0,15.0,-6.0,-63.0,-906.0,-419.0
2.0,-238.0,-142.0,-2.0,13.0,-6.0,-60.0,-907.0,-415.0
1.0,-235.0,-139.0,-8.0,14.0,-7.0,-62.0,-899.0,-418.0
2.0,-237.0,-145.0,-15.0,16.0,-7.0,-62.0,-908.0,-418.0
6.0,-238.0,-141.0,-18.0,18.0,-6.0,-61.0,-906.0,-415.0
4.0,-234.0,-140.0,-24.0,21.0,-4.0,-58.0,-905.0,-415.0
6.0,-240.0,-143.0,-28.0,24.0,-2.0,-63.0,-911.0,-417.0
2.0,-242.0,-142.0,-30.0,28.0,0.0,-59.0,-913.0,-415.0
4.0,-240.0,-146.0,-30.0,28.0,1.0,-64.0,-910.0,-414.0
4.0,-241.0,-143.0,-31.0,30.0,2.0,-56.0,-914.0,-417.0
3.0,-240.0,-141.0,-30.0,31.0,2.0,-59.0,-913.0,-418.0
3.0,-241.0,-141.0,-29.0,32.0,1.0,-51.0,-914.0,-415.0
4.0,-240.0,-143.0,-28.0,33.0,2.0,-58.0,-913.0,-414.0
5.0,-241.0,-147.0,-26.0,32.0,1.0,-60.0,-914.0,-418.0
6.0,-242.0,-146.0,-25.0,32.0,0.0,-57.0,-917.0,-420.0
2.0,-240.0,-147.0,-24.0,32.0,-1.0,-55.0,-918.0,-419.0
2.0,-239.0,-143.0,-23.0,30.0,-3.0,-57.0,-916.0,-419.0
5.0,-242.0,-145.0,-21.0,28.0,-4.0,-60.0,-914.0,-421.0
2.0,-238.0,-141.0,-22.0,25.0,-5.0,-59.0,-913.0,-421.0
5.0,-241.0,-143.0,-23.0,24.0,-6.0,-60.0,-916.0,-423.0
4.0,-238.0,-148.0,-24.0,22.0,-7.0,-58.0,-913.0,-422.0
4.0,-238.0,-146.0,-24.0,20.0,-8.0,-57.0,-915.0,-424.0
5.0,-241.0,-147.0,-25.0,20.0,-9.0,-57.0,-913.0,-421.0
6.0,-240.0,-148.0,-22.0,20.0,-9.0,-60.0,-915.0,-420.0
6.0,-240.0,-147.0,-18.0,19.0,-9.0,-57.0,-909.0,-417.0
4.0,-240.0,-148.0,-16.0,18.0,-12.0,-52.0,-913.0,-420.0
5.0,-240.0,-147.0,-16.0,18.0,-10.0,-54.0,-911.0,-417.0
6.0,-240.0,-149.0,-16.0,18.0,-8.0,-59.0,-908.0,-422.0
7.0,-235.0,-143.0,-17.0,19.0,-8.0,-56.0,-908.0,-423.0
6.0,-238.0,-148.0,-18.0,20.0,-10.0,-57.0,-900.0,-422.0
2.0,-238.0,-147.0,-24.0,20.0,-7.0,-60.0,-902.0,-422.0
3.0,-239.0,-146.0,-29.0,19.0,-6.0,-59.0,-901.0,-419.0
3.0,-236.0,-149.0,-31.0,19.0,-6.0,-55.0,-909.0,-421.0
3.0,-234.0,-145.0,-37.0,21.0,-3.0,-60.0,-904.0,-423.0
5.0,-237.0,-146.0,-40.0,20.0,-1.0,-60.0,-906.0,-419.0
5.0,-238.0,-149.0,-44.0,22.0,-2.0,-60.0,-907.0,-415.0
2.0,-239.0,-142.0,-44.0,23.0,-3.0,-61.0,-920.0,-424.0
3.0,-241.0,-145.0,-43.0,25.0,-1.0,-60.0,-912.0,-419.0
4.0,-245.0,-148.0,-41.0,28.0,-2.0,-62.0,-916.0,-427.0
1.0,-238.0,-147.0,-38.0,29.0,-2.0,-64.0,-917.0,-422.0
4.0,-237.0,-146.0,-36.0,31.0,-2.0,-68.0,-915.0,-426.0
2.0,-240.0,-146.0,-35.0,32.0,-2.0,-66.0,-915.0,-421.0
1.0,-240.0,-150.0,-37.0,33.0,-2.0,-68.0,-911.0,-421.0
3.0,-238.0,-149.0,-38.0,32.0,-2.0,-64.0,-914.0,-419.0
1.0,-240.0,-143.0,-42.0,32.0,-2.0,-69.0,-912.0,-424.0
1.0,-240.0,-146.0,-43.0,31.0,-4.0,-70.0,-915.0,-420.0
3.0,-240.0,-145.0,-43.0,28.0,-4.0,-63.0,-913.0,-415.0
1.0,-241.0,-144.0,-43.0,27.0,-4.0,-63.0,-915.0,-420.0
3.0,-241.0,-146.0,-43.0,24.0,-5.0,-66.0,-913.0,-417.0
2.0,-242.0,-145.0,-41.0,22.0,-8.0,-64.0,-916.0,-419.0
2.0,-239.0,-145.0,-41.0,19.0,-9.0,-62.0,-915.0,-419.0
5.0,-241.0,-148.0,-38.0,18.0,-9.0,-64.0,-913.0,-421.0
3.0,-239.0,-144.0,-39.0,16.0,-10.0,-60.0,-905.0,-416.0
4.0,-237.0,-146.0,-38.0,13.0,-11.0,-60.0,-910.0,-411.0
2.0,-241.0,-146.0,-37.0,13.0,-13.0,-64.0,-905.0,-417.0
2.0,-236.0,-144.0,-37.0,11.0,-13.0,-58.0,-896.0,-417.0
1.0,-234.0,-142.0,-39.0,9.0,-15.0,-64.0,-908.0,-418.0
3.0,-236.0,-143.0,-41.0,9.0,-14.0,-59.0,-900.0,-420.0
6.0,-237.0,-144.0,-44.0,9.0,-13.0,-59.0,-910.0,-425.0
5.0,-237.0,-147.0,-47.0,9.0,-13.0,-60.0,-904.0,-429.0
5.0,-238.0,-142.0,-53.0,9.0,-13.0,-62.0,-906.0,-428.0
3.0,-239.0,-147.0,-57.0,9.0,-12.0,-64.0,-913.0,-428.0
2.0,-241.0,-146.0,-59.0,10.0,-12.0,-58.0,-912.0,-431.0
3.0,-241.0,-151.0,-61.0,10.0,-10.0,-59.0,-919.0,-429.0
6.0,-246.0,-149.0,-62.0,9.0,-9.0,-61.0,-919.0,-433.0
3.0,-241.0,-149.0,-60.0,8.0,-8.0,-61.0,-922.0,-434.0
3.0,-241.0,-148.0,-60.0,6.0,-7.0,-54.0,-919.0,-428.0
4.0,-242.0,-151.0,-60.0,7.0,-6.0,-58.0,-915.0,-431.0
4.0,-243.0,-146.0,-58.0,8.0,-7.0,-53.0,-918.0,-422.0
2.0,-243.0,-148.0,-55.0,6.0,-7.0,-55.0,-918.0,-430.0
6.0,-240.0,-147.0,-50.0,5.0,-6.0,-55.0,-917.0,-427.0
5.0,-240.0,-145.0,-47.0,4.0,-6.0,-50.0,-912.0,-423.0
2.0,-240.0,-143.0,-45.0,4.0,-6.0,-52.0,-907.0,-425.0
3.0,-237.0,-151.0,-41.0,2.0,-8.0,-55.0,-908.0,-421.0
7.0,-240.0,-145.0,-40.0,0.0,-9.0,-54.0,-905.0,-426.0
6.0,-238.0,-145.0,-37.0,-2.0,-8.0,-49.0,-909.0,-427.0
2.0,-234.0,-145.0,-36.0,-3.0,-10.0,-53.0,-897.0,-427.0
8.0,-239.0,-149.0,-37.0,-3.0,-12.0,-55.0,-897.0,-424.0
12.0,-243.0,-149.0,-39.0,-4.0,-12.0,-50.0,-897.0,-427.0
5.0,-236.0,-146.0,-42.0,-3.0,-13.0,-54.0,-898.0,-430.0
4.0,-238.0,-145.0,-46.0,-2.0,-12.0,-60.0,-907.0,-429.0
8.0,-243.0,-145.0,-49.0,-4.0,-13.0,-55.0,-898.0,-431.0
3.0,-238.0,-146.0,-49.0,-5.0,-13.0,-54.0,-902.0,-431.0
7.0,-238.0,-147.0,-51.0,-3.0,-14.0,-58.0,-910.0,-425.0
7.0,-240.0,-147.0,-51.0,-3.0,-14.0,-59.0,-912.0,-431.0
6.0,-241.0,-147.0,-51.0,-3.0,-14.0,-56.0,-914.0,-430.0
5.0,-239.0,-147.0,-48.0,-2.0,-15.0,-58.0,-913.0,-430.0
2.0,-238.0,-146.0,-44.0,-1.0,-16.0,-56.0,-913.0,-426.0
3.0,-240.0,-145.0,-43.0,-2.0,-16.0,-61.0,-912.0,-423.0
1.0,-240.0,-142.0,-41.0,1.0,-15.0,-61.0,-913.0,-418.0
4.0,-239.0,-148.0,-41.0,2.0,-15.0,-62.0,-910.0,-421.0
4.0,-239.0,-147.0,-40.0,2.0,-15.0,-54.0,-910.0,-428.0
3.0,-237.0,-147.0,-38.0,2.0,-16.0,-54.0,-908.0,-420.0
3.0,-240.0,-144.0,-35.0,4.0,-15.0,-55.0,-906.0,-420.0
7.0,-239.0,-145.0,-35.0,6.0,-14.0,-58.0,-908.0,-419.0
4.0,-239.0,-144.0,-38.0,6.0,-14.0,-52.0,-906.0,-421.0
6.0,-239.0,-145.0,-35.0,8.0,-13.0,-53.0,-909.0,-428.0
8.0,-240.0,-150.0,-35.0,9.0,-12.0,-55.0,-914.0,-421.0
4.0,-238.0,-146.0,-36.0,11.0,-12.0,-56.0,-910.0,-423.0
1.0,-243.0,-151.0,-34.0,15.0,-11.0,-58.0,-909.0,-429.0
2.0,-239.0,-147.0,-32.0,16.0,-10.0,-57.0,-910.0,-429.0
3.0,-239.0,-148.0,-31.0,16.0,-10.0,-61.0,-906.0,-430.0
3.0,-238.0,-149.0,-31.0,16.0,-9.0,-59.0,-913.0,-436.0
3.0,-242.0,-147.0,-32.0,17.0,-10.0,-59.0,-913.0,-432.0
1.0,-240.0,-144.0,-33.0,17.0,-10.0,-57.0,-918.0,-430.0
4.0,-244.0,-149.0,-35.0,16.0,-9.0,-61.0,-914.0,-438.0
6.0,-243.0,-149.0,-37.0,15.0,-9.0,-56.0,-917.0,-430.0
6.0,-243.0,-150.0,-38.0,15.0,-9.0,-60.0,-923.0,-436.0
3.0,-241.0,-147.0,-38.0,13.0,-8.0,-61.0,-920.0,-433.0
5.0,-240.0,-148.0,-36.0,10.0,-9.0,-61.0,-921.0,-431.0
5.0,-240.0,-146.0,-34.0,7.0,-7.0,-61.0,-914.0,-425.0
4.0,-246.0,-147.0,-33.0,6.0,-9.0,-56.0,-916.0,-430.0
7.0,-241.0,-147.0,-28.0,4.0,-11.0,-56.0,-907.0,-428.0
2.0,-239.0,-148.0,-24.0,1.0,-10.0,-59.0,-913.0,-424.0
4.0,-239.0,-146.0,-24.0,-1.0,-9.0,-59.0,-908.0,-424.0
8.0,-238.0,-146.0,-25.0,0.0,-8.0,-53.0,-908.0,-428.0
8.0,-236.0,-147.0,-24.0,-2.0,-8.0,-55.0,-911.0,-424.0
4.0,-238.0,-146.0,-24.0,-1.0,-7.0,-56.0,-908.0,-420.0
4.0,-237.0,-144.0,-25.0,-1.0,-6.0,-53.0,-909.0,-423.0
5.0,-237.0,-146.0,-25.0,0.0,-7.0,-53.0,-905.0,-420.0
4.0,-235.0,-153.0,-23.0,1.0,-7.0,-58.0,-908.0,-420.0
7.0,-238.0,-145.0,-23.0,5.0,-5.0,-55.0,-906.0,-418.0
7.0,-238.0,-142.0,-23.0,6.0,-5.0,-59.0,-906.0,-423.0
4.0,-238.0,-144.0,-24.0,6.0,-5.0,-56.0,-908.0,-423.0
7.0,-238.0,-145.0,-23.0,7.0,-6.0,-58.0,-910.0,-420.0
6.0,-238.0,-141.0,-26.0,6.0,-4.0,-59.0,-907.0,-420.0
6.0,-238.0,-145.0,-27.0,4.0,-5.0,-55.0,-912.0,-420.0
4.0,-240.0,-145.0,-29.0,5.0,-6.0,-57.0,-911.0,-421.0
5.0,-240.0,-144.0,-30.0,5.0,-7.0,-60.0,-912.0,-426.0
5.0,-239.0,-147.0,-30.0,4.0,-6.0,-63.0,-909.0,-419.0
7.0,-240.0,-144.0,-31.0,4.0,-7.0,-62.0,-909.0,-423.0
9.0,-235.0,-156.0,-33.0,3.0,-5.0,-61.0,-909.0,-424.0
2.0,-240.0,-146.0,-38.0,3.0,-6.0,-62.0,-913.0,-421.0
5.0,-240.0,-142.0,-39.0,4.0,-4.0,-61.0,-910.0,-423.0
2.0,-240.0,-149.0,-41.0,6.0,-4.0,-63.0,-915.0,-425.0
3.0,-243.0,-146.0,-44.0,8.0,-5.0,-63.0,-911.0,-423.0
4.0,-240.0,-144.0,-46.0,8.0,-5.0,-55.0,-925.0,-418.0
7.0,-238.0,-145.0,-46.0,9.0,-5.0,-58.0,-921.0,-428.0
6.0,-244.0,-148.0,-47.0,11.0,-5.0,-65.0,-922.0,-420.0
5.0,-243.0,-148.0,-44.0,13.0,-5.0,-58.0,-921.0,-421.0
5.0,-243.0,-145.0,-40.0,13.0,-6.0,-52.0,-923.0,-420.0
3.0,-239.0,-145.0,-36.0,13.0,-6.0,-54.0,-917.0,-421.0
6.0,-243.0,-154.0,-31.0,14.0,-7.0,-55.0,-915.0,-421.0
6.0,-236.0,-144.0,-26.0,14.0,-7.0,-54.0,-916.0,-419.0
4.0,-241.0,-144.0,-22.0,13.0,-9.0,-53.0,-910.0,-415.0
7.0,-240.0,-143.0,-21.0,12.0,-7.0,-54.0,-911.0,-419.0
7.0,-240.0,-147.0,-20.0,13.0,-9.0,-51.0,-909.0,-419.0
5.0,-238.0,-146.0,-20.0,13.0,-8.0,-52.0,-910.0,-421.0
5.0,-235.0,-147.0,-19.0,14.0,-8.0,-56.0,-910.0,-420.0
8.0,-239.0,-145.0,-21.0,14.0,-8.0,-56.0,-908.0,-420.0
5.0,-238.0,-145.0,-21.0,15.0,-9.0,-56.0,-912.0,-415.0
4.0,-235.0,-145.0,-21.0,15.0,-8.0,-56.0,-904.0,-421.0
5.0,-237.0,-144.0,-24.0,15.0,-8.0,-60.0,-903.0,-424.0
5.0,-236.0,-146.0,-28.0,15.0,-6.0,-58.0,-902.0,-419.0
3.0,-236.0,-143.0,-32.0,15.0,-5.0,-61.0,-908.0,-418.0
6.0,-239.0,-147.0,-35.0,14.0,-5.0,-62.0,-911.0,-421.0
4.0,-239.0,-149.0,-37.0,15.0,-5.0,-60.0,-913.0,-419.0
3.0,-242.0,-143.0,-40.0,17.0,-3.0,-56.0,-912.0,-416.0
2.0,-239.0,-144.0,-40.0,18.0,-3.0,-57.0,-914.0,-418.0
5.0,-243.0,-144.0,-39.0,18.0,-3.0,-56.0,-916.0,-419.0
3.0,-243.0,-146.0,-40.0,19.0,-2.0,-56.0,-913.0,-420.0
4.0,-244.0,-143.0,-40.0,21.0,-3.0,-60.0,-923.0,-420.0
3.0,-243.0,-143.0,-39.0,21.0,-3.0,-60.0,-922.0,-420.0
5.0,-239.0,-145.0,-35.0,24.0,-2.0,-58.0,-920.0,-416.0
5.0,-238.0,-147.0,-29.0,26.0,-2.0,-58.0,-917.0,-420.0
2.0,-237.0,-151.0,-26.0,27.0,-2.0,-54.0,-912.0,-423.0
3.0,-240.0,-143.0,-25.0,29.0,-1.0,-62.0,-911.0,-419.0
5.0,-239.0,-146.0,-23.0,28.0,-1.0,-60.0,-909.0,-420.0
6.0,-242.0,-147.0,-23.0,28.0,0.0,-54.0,-911.0,-420.0
5.0,-240.0,-147.0,-26.0,28.0,-1.0,-56.0,-905.0,-419.0
4.0,-237.0,-143.0,-31.0,29.0,0.0,-61.0,-916.0,-422.0
5.0,-242.0,-142.0,-36.0,29.0,0.0,-58.0,-911.0,-417.0
3.0,-239.0,-146.0,-40.0,29.0,0.0,-60.0,-913.0,-414.0
5.0,-238.0,-142.0,-44.0,28.0,0.0,-58.0,-915.0,-416.0
6.0,-239.0,-146.0,-46.0,25.0,-2.0,-64.0,-908.0,-417.0
3.0,-241.0,-143.0,-48.0,23.0,-4.0,-61.0,-910.0,-418.0
2.0,-240.0,-142.0,-51.0,21.0,-4.0,-60.0,-915.0,-415.0
2.0,-238.0,-141.0,-51.0,20.0,-5.0,-63.0,-913.0,-417.0
1.0,-235.0,-146.0,-53.0,21.0,-5.0,-60.0,-916.0,-416.0
3.0,-238.0,-142.0,-53.0,21.0,-6.0,-63.0,-911.0,-418.0
3.0,-240.0,-145.0,-52.0,23.0,-5.0,-62.0,-912.0,-414.0
5.0,-240.0,-142.0,-50.0,24.0,-5.0,-63.0,-914.0,-411.0
2.0,-238.0,-146.0,-48.0,24.0,-3.0,-62.0,-913.0,-417.0
2.0,-238.0,-145.0,-46.0,26.0,-3.0,-62.0,-914.0,-417.0
3.0,-239.0,-142.0,-45.0,29.0,-4.0,-62.0,-914.0,-418.0
4.0,-239.0,-142.0,-43.0,30.0,-2.0,-59.0,-908.0,-420.0
3.0,-240.0,-143.0,-43.0,32.0,-1.0,-60.0,-913.0,-416.0
5.0,-239.0,-147.0,-46.0,33.0,-1.0,-58.0,-910.0,-416.0
7.0,-242.0,-144.0,-48.0,33.0,-1.0,-59.0,-914.0,-417.0
6.0,-242.0,-144.0,-49.0,33.0,0.0,-55.0,-916.0,-416.0
4.0,-241.0,-146.0,-54.0,32.0,2.0,-56.0,-919.0,-420.0
6.0,-242.0,-144.0,-55.0,32.0,1.0,-54.0,-919.0,-418.0
8.0,-241.0,-146.0,-54.0,31.0,1.0,-55.0,-916.0,-422.0
9.0,-242.0,-145.0,-55.0,32.0,0.0,-55.0,-917.0,-419.0
5.0,-245.0,-145.0,-54.0,31.0,0.0,-54.0,-919.0,-420.0
6.0,-238.0,-144.0,-51.0,30.0,1.0,-55.0,-918.0,-424.0
5.0,-243.0,-146.0,-50.0,31.0,0.0,-57.0,-919.0,-423.0
5.0,-239.0,-143.0,-49.0,32.0,0.0,-51.0,-921.0,-417.0
4.0,-238.0,-145.0,-47.0,34.0,1.0,-55.0,-914.0,-418.0
7.0,-241.0,-145.0,-45.0,35.0,0.0,-53.0,-913.0,-420.0
6.0,-242.0,-149.0,-44.0,35.0,0.0,-54.0,-916.0,-420.0
2.0,-242.0,-144.0,-43.0,37.0,0.0,-53.0,-918.0,-415.0
5.0,-240.0,-145.0,-41.0,38.0,-1.0,-51.0,-913.0,-415.0
6.0,-240.0,-145.0,-39.0,38.0,0.0,-55.0,-914.0,-414.0
4.0,-239.0,-143.0,-40.0,39.0,-1.0,-52.0,-916.0,-419.0
6.0,-242.0,-141.0,-37.0,40.0,-2.0,-57.0,-909.0,-416.0
2.0,-237.0,-143.0,-38.0,41.0,-2.0,-57.0,-910.0,-410.0
1.0,-236.0,-142.0,-36.0,41.0,-3.0,-59.0,-903.0,-414.0
6.0,-244.0,-142.0,-39.0,41.0,-1.0,-60.0,-905.0,-416.0
5.0,-237.0,-144.0,-40.0,43.0,-1.0,-57.0,-906.0,-413.0
6.0,-238.0,-144.0,-44.0,40.0,-2.0,-61.0,-900.0,-415.0
3.0,-236.0,-144.0,-45.0,39.0,-3.0,-60.0,-900.0,-406.0
2.0,-236.0,-144.0,-48.0,38.0,-2.0,-62.0,-907.0,-412.0
4.0,-236.0,-145.0,-54.0,36.0,-2.0,-61.0,-901.0,-412.0
2.0,-236.0,-147.0,-58.0,37.0,-3.0,-60.0,-900.0,-414.0
4.0,-239.0,-144.0,-61.0,36.0,-1.0,-57.0,-911.0,-418.0
3.0,-239.0,-143.0,-65.0,35.0,-2.0,-60.0,-910.0,-413.0
6.0,-240.0,-143.0,-67.0,37.0,-1.0,-57.0,-912.0,-420.0
5.0,-237.0,-141.0,-68.0,38.0,-1.0,-58.0,-907.0,-414.0
5.0,-238.0,-145.0,-67.0,37.0,-2.0,-59.0,-906.0,-417.0
6.0,-241.0,-140.0,-65.0,39.0,-1.0,-59.0,-904.0,-420.0
5.0,-237.0,-143.0,-65.0,40.0,-1.0,-60.0,-908.0,-416.0
4.0,-237.0,-145.0,-63.0,40.0,-1.0,-61.0,-911.0,-420.0
-1.0,-234.0,-142.0,-61.0,40.0,0.0,-55.0,-911.0,-418.0
4.0,-239.0,-147.0,-57.0,44.0,0.0,-56.0,-911.0,-421.0
3.0,-238.0,-143.0,-55.0,43.0,0.0,-62.0,-907.0,-420.0
3.0,-239.0,-146.0,-55.0,42.0,1.0,-58.0,-897.0,-424.0
1.0,-237.0,-144.0,-57.0,40.0,-1.0,-59.0,-906.0,-422.0
2.0,-236.0,-145.0,-56.0,41.0,0.0,-62.0,-890.0,-422.0
3.0,-240.0,-144.0,-56.0,40.0,-1.0,-63.0,-900.0,-420.0
2.0,-239.0,-150.0,-58.0,38.0,-2.0,-59.0,-897.0,-423.0
1.0,-237.0,-142.0,-59.0,37.0,-2.0,-58.0,-902.0,-424.0
3.0,-237.0,-143.0,-60.0,34.0,-3.0,-61.0,-907.0,-421.0
5.0,-239.0,-148.0,-62.0,35.0,-3.0,-68.0,-898.0,-420.0
2.0,-237.0,-146.0,-63.0,33.0,-2.0,-65.0,-902.0,-424.0
6.0,-240.0,-144.0,-64.0,31.0,-2.0,-61.0,-903.0,-422.0
4.0,-238.0,-148.0,-65.0,30.0,-3.0,-58.0,-908.0,-426.0
4.0,-235.0,-148.0,-66.0,28.0,-4.0,-60.0,-904.0,-419.0
5.0,-239.0,-145.0,-67.0,28.0,-3.0,-59.0,-906.0,-420.0
4.0,-241.0,-144.0,-67.0,28.0,-2.0,-60.0,-915.0,-417.0
3.0,-240.0,-145.0,-68.0,29.0,-1.0,-60.0,-913.0,-417.0
2.0,-240.0,-144.0,-69.0,29.0,-1.0,-62.0,-918.0,-418.0
3.0,-241.0,-143.0,-69.0,30.0,-2.0,-60.0,-919.0,-417.0
5.0,-243.0,-146.0,-66.0,32.0,-1.0,-61.0,-922.0,-415.0
2.0,-242.0,-144.0,-63.0,34.0,1.0,-61.0,-922.0,-416.0
4.0,-243.0,-143.0,-59.0,35.0,1.0,-62.0,-925.0,-415.0
7.0,-246.0,-143.0,-55.0,35.0,1.0,-61.0,-924.0,-419.0
2.0,-242.0,-142.0,-50.0,36.0,2.0,-54.0,-922.0,-419.0
2.0,-243.0,-140.0,-47.0,37.0,3.0,-56.0,-925.0,-417.0
9.0,-244.0,-144.0,-44.0,36.0,2.0,-56.0,-923.0,-419.0
4.0,-242.0,-146.0,-42.0,35.0,2.0,-56.0,-919.0,-417.0
5.0,-242.0,-145.0,-40.0,33.0,3.0,-58.0,-914.0,-420.0
2.0,-238.0,-147.0,-38.0,32.0,2.0,-60.0,-919.0,-419.0
1.0,-238.0,-145.0,-38.0,29.0,2.0,-61.0,-910.0,-416.0
3.0,-238.0,-147.0,-39.0,26.0,0.0,-64.0,-912.0,-421.0
4.0,-240.0,-147.0,-40.0,24.0,1.0,-65.0,-912.0,-420.0
2.0,-238.0,-144.0,-44.0,20.0,0.0,-68.0,-911.0,-419.0
0.0,-239.0,-147.0,-45.0,17.0,0.0,-68.0,-913.0,-424.0
3.0,-240.0,-149.0,-48.0,13.0,-1.0,-70.0,-915.0,-421.0
2.0,-238.0,-143.0,-51.0,11.0,-2.0,-67.0,-910.0,-418.0
0.0,-237.0,-145.0,-53.0,10.0,-3.0,-68.0,-913.0,-419.0
4.0,-241.0,-145.0,-55.0,7.0,-2.0,-65.0,-908.0,-419.0
4.0,-240.0,-145.0,-56.0,6.0,-5.0,-69.0,-917.0,-417.0
2.0,-240.0,-145.0,-57.0,5.0,-5.0,-62.0,-915.0,-416.0
2.0,-240.0,-148.0,-57.0,5.0,-5.0,-61.0,-914.0,-412.0
5.0,-241.0,-147.0,-54.0,6.0,-5.0,-63.0,-910.0,-415.0
4.0,-241.0,-148.0,-53.0,7.0,-5.0,-57.0,-910.0,-416.0
3.0,-239.0,-142.0,-53.0,11.0,-6.0,-57.0,-912.0,-419.0
4.0,-236.0,-146.0,-52.0,11.0,-6.0,-60.0,-906.0,-417.0
4.0,-238.0,-144.0,-50.0,14.0,-4.0,-57.0,-904.0,-420.0
4.0,-238.0,-143.0,-52.0,15.0,-4.0,-57.0,-905.0,-422.0
9.0,-240.0,-143.0,-52.0,18.0,-4.0,-56.0,-909.0,-421.0
7.0,-239.0,-144.0,-51.0,20.0,-1.0,-56.0,-907.0,-423.0
-4.0,-240.0,-134.0,-51.0,20.0,-2.0,-55.0,-912.0,-424.0
6.0,-238.0,-144.0,-50.0,21.0,-1.0,-55.0,-905.0,-423.0
4.0,-237.0,-147.0,-51.0,23.0,0.0,-55.0,-908.0,-423.0
5.0,-240.0,-144.0,-51.0,23.0,1.0,-53.0,-894.0,-430.0
6.0,-238.0,-148.0,-53.0,22.0,2.0,-56.0,-902.0,-423.0
5.0,-238.0,-151.0,-54.0,21.0,1.0,-56.0,-905.0,-425.0
5.0,-238.0,-149.0,-56.0,21.0,0.0,-59.0,-907.0,-429.0
3.0,-240.0,-148.0,-59.0,21.0,0.0,-57.0,-902.0,-429.0
4.0,-237.0,-144.0,-62.0,22.0,1.0,-57.0,-907.0,-434.0
4.0,-239.0,-148.0,-64.0,21.0,0.0,-60.0,-910.0,-424.0
5.0,-238.0,-144.0,-65.0,21.0,-2.0,-59.0,-908.0,-428.0
3.0,-250.0,-140.0,-70.0,19.0,-1.0,-59.0,-910.0,-421.0
7.0,-245.0,-146.0,-73.0,18.0,0.0,-60.0,-919.0,-424.0
5.0,-246.0,-147.0,-74.0,18.0,-1.0,-61.0,-922.0,-423.0
2.0,-243.0,-145.0,-75.0,17.0,-2.0,-63.0,-925.0,-421.0
2.0,-243.0,-142.0,-75.0,16.0,-3.0,-59.0,-927.0,-421.0
3.0,-243.0,-144.0,-70.0,15.0,-3.0,-63.0,-929.0,-418.0
2.0,-242.0,-144.0,-63.0,15.0,-4.0,-64.0,-924.0,-423.0
4.0,-242.0,-148.0,-54.0,17.0,-7.0,-63.0,-922.0,-425.0
2.0,-240.0,-143.0,-47.0,16.0,-7.0,-61.0,-922.0,-422.0
3.0,-239.0,-144.0,-43.0,15.0,-7.0,-60.0,-919.0,-422.0
3.0,-237.0,-145.0,-42.0,15.0,-7.0,-62.0,-912.0,-420.0
6.0,-241.0,-138.0,-43.0,16.0,-8.0,-59.0,-910.0,-424.0
5.0,-239.0,-146.0,-46.0,16.0,-8.0,-60.0,-907.0,-421.0
3.0,-239.0,-146.0,-48.0,16.0,-7.0,-62.0,-904.0,-425.0
3.0,-238.0,-148.0,-50.0,16.0,-8.0,-63.0,-910.0,-420.0
4.0,-241.0,-142.0,-52.0,16.0,-9.0,-61.0,-907.0,-418.0
5.0,-238.0,-143.0,-51.0,15.0,-10.0,-62.0,-908.0,-421.0
4.0,-240.0,-145.0,-54.0,15.0,-11.0,-61.0,-911.0,-420.0
4.0,-239.0,-140.0,-56.0,15.0,-12.0,-64.0,-907.0,-421.0
1.0,-241.0,-142.0,-59.0,15.0,-13.0,-59.0,-908.0,-417.0
3.0,-240.0,-146.0,-61.0,15.0,-13.0,-60.0,-899.0,-421.0
3.0,-239.0,-146.0,-61.0,15.0,-14.0,-61.0,-909.0,-421.0
5.0,-237.0,-143.0,-60.0,14.0,-15.0,-64.0,-910.0,-424.0
3.0,-240.0,-145.0,-59.0,13.0,-14.0,-60.0,-911.0,-426.0
2.0,-236.0,-145.0,-58.0,14.0,-14.0,-60.0,-902.0,-427.0
3.0,-238.0,-153.0,-57.0,13.0,-13.0,-60.0,-911.0,-431.0
4.0,-240.0,-149.0,-58.0,11.0,-12.0,-58.0,-898.0,-428.0
6.0,-239.0,-147.0,-57.0,10.0,-13.0,-62.0,-909.0,-425.0
3.0,-236.0,-144.0,-57.0,10.0,-12.0,-57.0,-908.0,-429.0
7.0,-240.0,-148.0,-59.0,10.0,-10.0,-62.0,-903.0,-431.0
3.0,-238.0,-148.0,-59.0,11.0,-10.0,-65.0,-908.0,-430.0
3.0,-238.0,-148.0,-59.0,13.0,-9.0,-62.0,-904.0,-429.0
3.0,-239.0,-153.0,-59.0,13.0,-8.0,-59.0,-909.0,-425.0
4.0,-242.0,-143.0,-57.0,14.0,-7.0,-59.0,-910.0,-432.0
6.0,-238.0,-148.0,-57.0,14.0,-5.0,-57.0,-908.0,-429.0
4.0,-238.0,-146.0,-60.0,15.0,-4.0,-56.0,-908.0,-428.0
5.0,-237.0,-146.0,-62.0,13.0,-4.0,-59.0,-906.0,-432.0
6.0,-238.0,-150.0,-62.0,14.0,-3.0,-58.0,-909.0,-435.0
5.0,-237.0,-149.0,-64.0,14.0,-2.0,-55.0,-905.0,-425.0
6.0,-242.0,-147.0,-65.0,13.0,-2.0,-53.0,-912.0,-428.0
5.0,-238.0,-146.0,-66.0,13.0,-2.0,-56.0,-908.0,-429.0
4.0,-238.0,-146.0,-66.0,13.0,-2.0,-53.0,-913.0,-427.0
6.0,-243.0,-148.0,-65.0,12.0,-2.0,-58.0,-918.0,-424.0
4.0,-238.0,-144.0,-62.0,12.0,-1.0,-56.0,-919.0,-426.0
6.0,-240.0,-146.0,-60.0,12.0,-2.0,-52.0,-912.0,-425.0
5.0,-241.0,-146.0,-57.0,12.0,-3.0,-58.0,-912.0,-424.0
5.0,-238.0,-145.0,-55.0,13.0,-2.0,-58.0,-910.0,-425.0
6.0,-241.0,-149.0,-50.0,13.0,-1.0,-55.0,-918.0,-428.0
6.0,-241.0,-149.0,-48.0,13.0,-2.0,-57.0,-914.0,-424.0
5.0,-242.0,-145.0,-43.0,12.0,-3.0,-56.0,-914.0,-423.0
0.0,-237.0,-145.0,-44.0,14.0,-2.0,-57.0,-910.0,-419.0
5.0,-242.0,-146.0,-43.0,16.0,0.0,-56.0,-913.0,-426.0
3.0,-237.0,-149.0,-43.0,14.0,0.0,-57.0,-913.0,-422.0
2.0,-241.0,-145.0,-44.0,13.0,-1.0,-56.0,-913.0,-424.0
4.0,-238.0,-144.0,-47.0,12.0,0.0,-58.0,-909.0,-419.0
9.0,-242.0,-145.0,-49.0,11.0,0.0,-58.0,-908.0,-427.0
7.0,-239.0,-146.0,-52.0,11.0,-2.0,-58.0,-909.0,-422.0
4.0,-237.0,-149.0,-54.0,12.0,-3.0,-61.0,-914.0,-424.0
4.0,-238.0,-147.0,-56.0,12.0,-2.0,-56.0,-910.0,-429.0
6.0,-241.0,-145.0,-54.0,12.0,-2.0,-57.0,-910.0,-428.0
5.0,-242.0,-152.0,-56.0,13.0,-2.0,-54.0,-911.0,-430.0
5.0,-239.0,-148.0,-54.0,15.0,0.0,-59.0,-916.0,-428.0
7.0,-241.0,-144.0,-55.0,14.0,-1.0,-55.0,-907.0,-430.0
6.0,-237.0,-147.0,-56.0,15.0,-2.0,-60.0,-912.0,-431.0
5.0,-238.0,-145.0,-54.0,13.0,-2.0,-55.0,-914.0,-425.0
4.0,-239.0,-144.0,-53.0,12.0,-2.0,-56.0,-915.0,-429.0
4.0,-240.0,-149.0,-53.0,13.0,-4.0,-51.0,-919.0,-424.0
1.0,-243.0,-149.0,-51.0,13.0,-6.0,-58.0,-915.0,-425.0
3.0,-241.0,-144.0,-50.0,13.0,-7.0,-61.0,-910.0,-428.0
0.0,-240.0,-149.0,-50.0,12.0,-7.0,-66.0,-910.0,-429.0
5.0,-242.0,-145.0,-49.0,11.0,-6.0,-61.0,-907.0,-428.0
3.0,-239.0,-146.0,-50.0,12.0,-6.0,-62.0,-909.0,-429.0
4.0,-238.0,-145.0,-49.0,12.0,-6.0,-61.0,-913.0,-424.0
3.0,-238.0,-145.0,-49.0,12.0,-7.0,-63.0,-902.0,-428.0
5.0,-237.0,-147.0,-48.0,11.0,-7.0,-68.0,-905.0,-428.0
1.0,-240.0,-148.0,-48.0,9.0,-8.0,-64.0,-908.0,-427.0
3.0,-239.0,-148.0,-49.0,8.0,-8.0,-60.0,-907.0,-425.0
11.0,-235.0,-147.0,-50.0,7.0,-9.0,-62.0,-903.0,-425.0
6.0,-237.0,-145.0,-53.0,8.0,-9.0,-58.0,-912.0,-427.0
2.0,-239.0,-147.0,-55.0,7.0,-9.0,-55.0,-911.0,-423.0
4.0,-241.0,-145.0,-53.0,6.0,-9.0,-62.0,-913.0,-426.0
3.0,-238.0,-146.0,-53.0,4.0,-8.0,-59.0,-909.0,-421.0
3.0,-238.0,-150.0,-48.0,5.0,-7.0,-57.0,-916.0,-423.0
7.0,-239.0,-148.0,-45.0,3.0,-7.0,-55.0,-911.0,-422.0
6.0,-238.0,-145.0,-42.0,3.0,-9.0,-59.0,-912.0,-429.0
1.0,-235.0,-147.0,-41.0,3.0,-10.0,-55.0,-912.0,-420.0
5.0,-241.0,-145.0,-41.0,3.0,-11.0,-52.0,-914.0,-423.0
6.0,-242.0,-145.0,-39.0,3.0,-10.0,-56.0,-901.0,-423.0
2.0,-237.0,-149.0,-39.0,3.0,-10.0,-55.0,-903.0,-430.0
6.0,-236.0,-146.0,-39.0,3.0,-9.0,-52.0,-900.0,-426.0
5.0,-236.0,-148.0,-39.0,4.0,-8.0,-54.0,-910.0,-431.0
5.0,-238.0,-144.0,-40.0,4.0,-9.0,-52.0,-908.0,-435.0
3.0,-237.0,-148.0,-41.0,5.0,-9.0,-53.0,-908.0,-430.0
4.0,-237.0,-145.0,-41.0,5.0,-9.0,-54.0,-908.0,-429.0
4.0,-239.0,-147.0,-44.0,6.0,-8.0,-59.0,-902.0,-428.0
3.0,-238.0,-148.0,-47.0,6.0,-9.0,-57.0,-903.0,-431.0
3.0,-237.0,-150.0,-50.0,6.0,-10.0,-57.0,-906.0,-430.0
5.0,-238.0,-145.0,-51.0,6.0,-11.0,-60.0,-906.0,-430.0
2.0,-235.0,-145.0,-53.0,5.0,-10.0,-62.0,-903.0,-429.0
8.0,-240.0,-139.0,-55.0,4.0,-9.0,-60.0,-907.0,-427.0
2.0,-237.0,-150.0,-56.0,3.0,-9.0,-58.0,-908.0,-430.0
3.0,-238.0,-149.0,-55.0,3.0,-9.0,-62.0,-905.0,-431.0
4.0,-236.0,-146.0,-57.0,3.0,-10.0,-59.0,-909.0,-429.0
3.0,-239.0,-148.0,-58.0,4.0,-10.0,-60.0,-909.0,-429.0
3.0,-234.0,-148.0,-58.0,3.0,-11.0,-60.0,-910.0,-432.0
5.0,-241.0,-150.0,-60.0,4.0,-11.0,-60.0,-913.0,-427.0
4.0,-240.0,-148.0,-60.0,4.0,-10.0,-54.0,-914.0,-426.0
3.0,-241.0,-144.0,-57.0,4.0,-11.0,-61.0,-911.0,-427.0
5.0,-241.0,-151.0,-56.0,4.0,-11.0,-54.0,-909.0,-427.0
4.0,-236.0,-146.0,-54.0,5.0,-11.0,-56.0,-912.0,-427.0
5.0,-238.0,-149.0,-53.0,5.0,-10.0,-62.0,-912.0,-429.0
6.0,-239.0,-153.0,-53.0,4.0,-10.0,-59.0,-904.0,-427.0
8.0,-241.0,-149.0,-52.0,3.0,-9.0,-59.0,-917.0,-439.0
5.0,-240.0,-146.0,-54.0,4.0,-10.0,-59.0,-911.0,-432.0
5.0,-236.0,-150.0,-55.0,5.0,-9.0,-56.0,-912.0,-430.0
9.0,-238.0,-148.0,-57.0,6.0,-12.0,-60.0,-917.0,-431.0
6.0,-241.0,-143.0,-58.0,6.0,-12.0,-51.0,-919.0,-431.0
6.0,-237.0,-147.0,-54.0,7.0,-12.0,-57.0,-916.0,-432.0
7.0,-239.0,-148.0,-52.0,7.0,-12.0,-55.0,-913.0,-428.0
4.0,-237.0,-149.0,-49.0,6.0,-11.0,-53.0,-913.0,-434.0
5.0,-239.0,-150.0,-46.0,6.0,-12.0,-54.0,-917.0,-432.0
5.0,-238.0,-146.0,-44.0,8.0,-13.0,-56.0,-919.0,-420.0
5.0,-240.0,-144.0,-42.0,7.0,-13.0,-53.0,-910.0,-423.0
2.0,-235.0,-149.0,-40.0,7.0,-13.0,-56.0,-909.0,-424.0
4.0,-243.0,-150.0,-39.0,6.0,-15.0,-60.0,-909.0,-425.0
5.0,-236.0,-145.0,-38.0,4.0,-14.0,-56.0,-910.0,-420.0
1.0,-236.0,-142.0,-38.0,4.0,-14.0,-59.0,-900.0,-427.0
3.0,-237.0,-145.0,-38.0,3.0,-14.0,-55.0,-911.0,-424.0
4.0,-238.0,-149.0,-39.0,4.0,-13.0,-59.0,-901.0,-429.0
5.0,-237.0,-148.0,-42.0,3.0,-13.0,-60.0,-909.0,-428.0
1.0,-236.0,-147.0,-45.0,2.0,-12.0,-66.0,-902.0,-429.0
2.0,-239.0,-146.0,-47.0,2.0,-13.0,-64.0,-908.0,-426.0
3.0,-238.0,-148.0,-49.0,4.0,-11.0,-60.0,-906.0,-424.0
2.0,-233.0,-150.0,-51.0,5.0,-10.0,-62.0,-908.0,-433.0
1.0,-238.0,-150.0,-50.0,7.0,-9.0,-62.0,-905.0,-431.0
5.0,-238.0,-146.0,-50.0,7.0,-8.0,-56.0,-907.0,-432.0
3.0,-236.0,-147.0,-53.0,10.0,-7.0,-59.0,-907.0,-431.0
3.0,-239.0,-149.0,-54.0,12.0,-6.0,-59.0,-898.0,-428.0
4.0,-240.0,-150.0,-55.0,15.0,-3.0,-61.0,-906.0,-433.0
2.0,-239.0,-148.0,-54.0,17.0,-4.0,-57.0,-906.0,-426.0
4.0,-240.0,-148.0,-56.0,20.0,-4.0,-58.0,-909.0,-428.0
6.0,-239.0,-145.0,-56.0,20.0,-5.0,-59.0,-910.0,-425.0
4.0,-238.0,-146.0,-54.0,21.0,-5.0,-61.0,-913.0,-425.0
6.0,-238.0,-146.0,-52.0,21.0,-4.0,-61.0,-908.0,-421.0
6.0,-240.0,-149.0,-51.0,21.0,-5.0,-59.0,-915.0,-424.0
4.0,-239.0,-145.0,-49.0,17.0,-5.0,-64.0,-916.0,-426.0
5.0,-237.0,-142.0,-50.0,15.0,-7.0,-60.0,-912.0,-424.0
4.0,-239.0,-149.0,-47.0,13.0,-9.0,-60.0,-911.0,-421.0
4.0,-239.0,-146.0,-45.0,9.0,-10.0,-60.0,-915.0,-427.0
4.0,-241.0,-150.0,-41.0,7.0,-13.0,-61.0,-911.0,-423.0
2.0,-238.0,-148.0,-37.0,4.0,-15.0,-60.0,-911.0,-428.0
4.0,-240.0,-148.0,-35.0,1.0,-14.0,-60.0,-901.0,-424.0
10.0,-232.0,-151.0,-36.0,-2.0,-15.0,-59.0,-899.0,-433.0
1.0,-236.0,-145.0,-38.0,-3.0,-16.0,-64.0,-894.0,-425.0
4.0,-238.0,-149.0,-39.0,-3.0,-16.0,-62.0,-898.0,-429.0
3.0,-236.0,-148.0,-43.0,-5.0,-16.0,-58.0,-893.0,-436.0
1.0,-235.0,-154.0,-47.0,-6.0,-15.0,-60.0,-906.0,-433.0
2.0,-237.0,-148.0,-49.0,-4.0,-14.0,-58.0,-898.0,-431.0
5.0,-237.0,-151.0,-52.0,-2.0,-13.0,-56.0,-900.0,-435.0
5.0,-239.0,-150.0,-54.0,1.0,-12.0,-61.0,-908.0,-435.0
8.0,-238.0,-147.0,-55.0,3.0,-12.0,-58.0,-905.0,-434.0
3.0,-237.0,-151.0,-56.0,4.0,-10.0,-59.0,-905.0,-431.0
6.0,-241.0,-152.0,-57.0,5.0,-11.0,-54.0,-910.0,-430.0
14.0,-233.0,-156.0,-59.0,7.0,-9.0,-54.0,-914.0,-435.0
2.0,-239.0,-149.0,-59.0,9.0,-9.0,-55.0,-914.0,-432.0
8.0,-240.0,-149.0,-62.0,11.0,-10.0,-55.0,-912.0,-428.0
4.0,-239.0,-144.0,-62.0,11.0,-7.0,-59.0,-913.0,-424.0
5.0,-241.0,-144.0,-63.0,12.0,-7.0,-56.0,-913.0,-428.0
5.0,-242.0,-147.0,-64.0,12.0,-8.0,-53.0,-917.0,-424.0
6.0,-242.0,-143.0,-63.0,11.0,-7.0,-55.0,-919.0,-425.0
7.0,-241.0,-148.0,-62.0,11.0,-7.0,-54.0,-918.0,-423.0
4.0,-239.0,-149.0,-59.0,9.0,-6.0,-53.0,-918.0,-426.0
6.0,-243.0,-147.0,-55.0,7.0,-6.0,-50.0,-914.0,-432.0
5.0,-238.0,-145.0,-52.0,6.0,-7.0,-54.0,-911.0,-431.0
3.0,-241.0,-149.0,-47.0,4.0,-5.0,-56.0,-913.0,-429.0
2.0,-238.0,-149.0,-45.0,4.0,-5.0,-52.0,-911.0,-428.0
5.0,-237.0,-148.0,-44.0,3.0,-6.0,-60.0,-911.0,-428.0
1.0,-238.0,-147.0,-42.0,3.0,-7.0,-57.0,-913.0,-428.0
3.0,-242.0,-150.0,-39.0,2.0,-6.0,-59.0,-913.0,-430.0
4.0,-240.0,-150.0,-36.0,2.0,-8.0,-67.0,-906.0,-431.0
2.0,-235.0,-145.0,-37.0,2.0,-9.0,-62.0,-904.0,-431.0
5.0,-239.0,-147.0,-38.0,3.0,-9.0,-62.0,-908.0,-426.0
1.0,-236.0,-145.0,-39.0,2.0,-9.0,-67.0,-899.0,-429.0
1.0,-236.0,-146.0,-43.0,3.0,-9.0,-62.0,-907.0,-433.0
3.0,-239.0,-146.0,-43.0,3.0,-10.0,-68.0,-901.0,-425.0
2.0,-237.0,-147.0,-48.0,3.0,-8.0,-62.0,-909.0,-424.0
3.0,-239.0,-140.0,-51.0,2.0,-8.0,-60.0,-907.0,-426.0
1.0,-237.0,-148.0,-53.0,2.0,-7.0,-63.0,-908.0,-424.0
1.0,-238.0,-145.0,-54.0,2.0,-8.0,-66.0,-909.0,-434.0
1.0,-239.0,-147.0,-56.0,4.0,-9.0,-65.0,-911.0,-432.0
2.0,-239.0,-143.0,-56.0,4.0,-9.0,-63.0,-910.0,-427.0
3.0,-237.0,-147.0,-55.0,7.0,-9.0,-61.0,-907.0,-430.0
2.0,-241.0,-148.0,-53.0,9.0,-9.0,-65.0,-908.0,-435.0
3.0,-238.0,-144.0,-48.0,9.0,-9.0,-64.0,-910.0,-428.0
2.0,-239.0,-147.0,-45.0,10.0,-7.0,-65.0,-909.0,-432.0
3.0,-239.0,-148.0,-43.0,11.0,-8.0,-62.0,-909.0,-429.0
2.0,-238.0,-147.0,-41.0,10.0,-8.0,-59.0,-909.0,-430.0
2.0,-237.0,-146.0,-41.0,10.0,-8.0,-61.0,-913.0,-429.0
6.0,-237.0,-146.0,-42.0,9.0,-6.0,-60.0,-898.0,-433.0
4.0,-240.0,-148.0,-43.0,8.0,-8.0,-62.0,-908.0,-433.0
2.0,-240.0,-149.0,-44.0,8.0,-8.0,-61.0,-914.0,-430.0
4.0,-240.0,-145.0,-44.0,7.0,-8.0,-61.0,-909.0,-427.0
2.0,-235.0,-147.0,-45.0,8.0,-8.0,-66.0,-916.0,-429.0
6.0,-239.0,-153.0,-42.0,7.0,-8.0,-65.0,-910.0,-429.0
3.0,-238.0,-150.0,-43.0,6.0,-8.0,-62.0,-905.0,-429.0
2.0,-237.0,-147.0,-41.0,6.0,-8.0,-66.0,-910.0,-429.0
2.0,-240.0,-148.0,-40.0,4.0,-8.0,-65.0,-909.0,-430.0
4.0,-239.0,-144.0,-40.0,3.0,-7.0,-62.0,-903.0,-430.0
1.0,-236.0,-150.0,-42.0,2.0,-8.0,-64.0,-901.0,-430.0
1.0,-238.0,-149.0,-42.0,1.0,-8.0,-62.0,-902.0,-431.0
3.0,-237.0,-147.0,-42.0,0.0,-9.0,-61.0,-908.0,-427.0
4.0,-237.0,-147.0,-44.0,0.0,-8.0,-63.0,-904.0,-429.0
2.0,-241.0,-148.0,-43.0,-1.0,-8.0,-63.0,-910.0,-433.0
2.0,-236.0,-150.0,-44.0,-1.0,-8.0,-65.0,-913.0,-437.0
4.0,-238.0,-148.0,-43.0,-1.0,-8.0,-64.0,-908.0,-434.0
4.0,-238.0,-151.0,-43.0,-3.0,-8.0,-59.0,-914.0,-426.0
3.0,-239.0,-149.0,-43.0,-3.0,-8.0,-61.0,-910.0,-431.0
1.0,-237.0,-148.0,-42.0,-4.0,-8.0,-62.0,-909.0,-434.0
2.0,-242.0,-147.0,-41.0,-4.0,-9.0,-62.0,-908.0,-428.0
2.0,-240.0,-147.0,-39.0,-3.0,-8.0,-54.0,-910.0,-437.0
5.0,-241.0,-149.0,-37.0,-4.0,-9.0,-60.0,-915.0,-435.0
3.0,-238.0,-147.0,-36.0,-3.0,-8.0,-61.0,-909.0,-433.0
4.0,-238.0,-150.0,-36.0,-2.0,-8.0,-56.0,-913.0,-431.0
4.0,-241.0,-147.0,-36.0,-3.0,-10.0,-55.0,-911.0,-430.0
3.0,-240.0,-146.0,-36.0,-2.0,-11.0,-61.0,-915.0,-430.0
2.0,-236.0,-145.0,-37.0,-2.0,-10.0,-57.0,-914.0,-428.0
3.0,-239.0,-146.0,-36.0,-2.0,-12.0,-62.0,-909.0,-426.0
5.0,-237.0,-148.0,-34.0,-2.0,-11.0,-63.0,-909.0,-427.0
3.0,-242.0,-146.0,-33.0,-2.0,-12.0,-60.0,-911.0,-426.0
2.0,-240.0,-149.0,-33.0,-1.0,-12.0,-60.0,-915.0,-426.0
6.0,-238.0,-146.0,-32.0,-2.0,-11.0,-61.0,-911.0,-425.0
2.0,-239.0,-149.0,-31.0,-2.0,-11.0,-61.0,-914.0,-427.0
2.0,-242.0,-148.0,-30.0,0.0,-13.0,-65.0,-915.0,-422.0
4.0,-237.0,-149.0,-29.0,-1.0,-13.0,-64.0,-912.0,-430.0
8.0,-241.0,-148.0,-28.0,0.0,-13.0,-63.0,-913.0,-429.0
3.0,-239.0,-146.0,-29.0,1.0,-12.0,-60.0,-910.0,-428.0
5.0,-243.0,-147.0,-28.0,3.0,-13.0,-61.0,-914.0,-429.0
4.0,-238.0,-148.0,-27.0,2.0,-12.0,-59.0,-914.0,-430.0
4.0,-237.0,-148.0,-25.0,3.0,-13.0,-56.0,-910.0,-430.0
4.0,-242.0,-147.0,-23.0,3.0,-13.0,-57.0,-912.0,-435.0
4.0,-237.0,-151.0,-23.0,6.0,-14.0,-57.0,-912.0,-426.0
7.0,-241.0,-150.0,-22.0,7.0,-14.0,-57.0,-914.0,-431.0
3.0,-235.0,-150.0,-23.0,8.0,-14.0,-57.0,-910.0,-428.0
3.0,-235.0,-149.0,-24.0,7.0,-14.0,-52.0,-911.0,-430.0
7.0,-239.0,-149.0,-27.0,6.0,-14.0,-51.0,-912.0,-434.0
4.0,-238.0,-147.0,-31.0,6.0,-14.0,-53.0,-909.0,-430.0
5.0,-239.0,-150.0,-31.0,5.0,-16.0,-57.0,-910.0,-433.0
1.0,-238.0,-150.0,-32.0,5.0,-15.0,-51.0,-911.0,-433.0
4.0,-239.0,-147.0,-33.0,4.0,-14.0,-54.0,-910.0,-433.0
3.0,-241.0,-147.0,-32.0,4.0,-14.0,-57.0,-905.0,-434.0
5.0,-238.0,-153.0,-32.0,4.0,-15.0,-59.0,-908.0,-434.0
9.0,-244.0,-142.0,-31.0,5.0,-14.0,-60.0,-910.0,-439.0
3.0,-239.0,-150.0,-30.0,6.0,-13.0,-63.0,-909.0,-435.0
1.0,-238.0,-148.0,-28.0,5.0,-13.0,-61.0,-911.0,-433.0
3.0,-239.0,-151.0,-27.0,6.0,-12.0,-61.0,-910.0,-430.0
4.0,-241.0,-151.0,-26.0,7.0,-13.0,-63.0,-912.0,-436.0
4.0,-241.0,-150.0,-26.0,6.0,-12.0,-61.0,-912.0,-433.0
2.0,-241.0,-149.0,-26.0,7.0,-12.0,-58.0,-919.0,-434.0
4.0,-241.0,-148.0,-22.0,8.0,-14.0,-59.0,-917.0,-431.0
1.0,-238.0,-145.0,-20.0,8.0,-14.0,-60.0,-916.0,-431.0
5.0,-241.0,-150.0,-15.0,8.0,-14.0,-60.0,-917.0,-422.0
5.0,-241.0,-148.0,-13.0,9.0,-15.0,-62.0,-916.0,-421.0
2.0,-240.0,-146.0,-10.0,9.0,-14.0,-67.0,-913.0,-423.0
1.0,-239.0,-144.0,-10.0,11.0,-14.0,-59.0,-912.0,-424.0
3.0,-241.0,-147.0,-10.0,11.0,-14.0,-60.0,-908.0,-420.0
2.0,-236.0,-143.0,-9.0,12.0,-11.0,-67.0,-909.0,-420.0
1.0,-239.0,-143.0,-10.0,13.0,-12.0,-63.0,-909.0,-420.0
1.0,-240.0,-145.0,-11.0,15.0,-12.0,-65.0,-901.0,-420.0
2.0,-239.0,-146.0,-11.0,17.0,-10.0,-62.0,-908.0,-416.0
2.0,-240.0,-145.0,-11.0,18.0,-10.0,-63.0,-903.0,-417.0
1.0,-240.0,-146.0,-11.0,19.0,-11.0,-63.0,-913.0,-420.0
3.0,-238.0,-141.0,-13.0,19.0,-9.0,-62.0,-909.0,-419.0
3.0,-240.0,-140.0,-12.0,19.0,-11.0,-62.0,-913.0,-421.0
1.0,-239.0,-145.0,-13.0,19.0,-9.0,-61.0,-908.0,-418.0
3.0,-244.0,-156.0,-13.0,18.0,-12.0,-61.0,-906.0,-422.0
5.0,-233.0,-143.0,-14.0,17.0,-12.0,-57.0,-902.0,-421.0
1.0,-234.0,-145.0,-15.0,15.0,-14.0,-60.0,-907.0,-425.0
6.0,-237.0,-147.0,-17.0,15.0,-12.0,-55.0,-903.0,-425.0
5.0,-236.0,-144.0,-19.0,13.0,-14.0,-59.0,-901.0,-421.0
4.0,-238.0,-145.0,-18.0,12.0,-13.0,-56.0,-905.0,-423.0
4.0,-240.0,-145.0,-21.0,14.0,-13.0,-62.0,-905.0,-426.0
3.0,-236.0,-146.0,-24.0,14.0,-13.0,-58.0,-900.0,-425.0
5.0,-238.0,-146.0,-28.0,15.0,-13.0,-62.0,-912.0,-425.0
6.0,-241.0,-147.0,-30.0,15.0,-11.0,-62.0,-911.0,-424.0
4.0,-241.0,-146.0,-34.0,16.0,-10.0,-54.0,-917.0,-423.0
4.0,-241.0,-145.0,-35.0,18.0,-11.0,-55.0,-915.0,-423.0
5.0,-241.0,-147.0,-34.0,19.0,-10.0,-54.0,-920.0,-421.0
6.0,-238.0,-143.0,-30.0,20.0,-8.0,-55.0,-915.0,-417.0
1.0,-243.0,-146.0,-27.0,22.0,-9.0,-54.0,-921.0,-419.0
4.0,-237.0,-142.0,-23.0,23.0,-8.0,-57.0,-919.0,-418.0
7.0,-239.0,-149.0,-18.0,24.0,-8.0,-51.0,-919.0,-422.0
4.0,-240.0,-149.0,-15.0,24.0,-9.0,-52.0,-914.0,-421.0
8.0,-241.0,-142.0,-11.0,23.0,-10.0,-54.0,-914.0,-417.0
9.0,-242.0,-144.0,-12.0,23.0,-9.0,-49.0,-916.0,-419.0
3.0,-237.0,-141.0,-13.0,21.0,-10.0,-51.0,-911.0,-417.0
7.0,-241.0,-158.0,-15.0,21.0,-11.0,-55.0,-909.0,-419.0
3.0,-240.0,-149.0,-18.0,19.0,-11.0,-58.0,-911.0,-419.0
4.0,-236.0,-147.0,-18.0,18.0,-11.0,-54.0,-910.0,-420.0
5.0,-241.0,-143.0,-21.0,17.0,-12.0,-52.0,-911.0,-416.0
4.0,-239.0,-143.0,-22.0,18.0,-12.0,-59.0,-909.0,-416.0
5.0,-237.0,-143.0,-25.0,19.0,-12.0,-56.0,-907.0,-419.0
4.0,-241.0,-145.0,-26.0,18.0,-11.0,-61.0,-909.0,-416.0
4.0,-239.0,-145.0,-28.0,18.0,-11.0,-59.0,-915.0,-415.0
5.0,-241.0,-143.0,-31.0,18.0,-9.0,-59.0,-909.0,-417.0
3.0,-239.0,-145.0,-34.0,18.0,-8.0,-62.0,-910.0,-420.0
5.0,-235.0,-159.0,-37.0,16.0,-7.0,-60.0,-913.0,-417.0
3.0,-242.0,-142.0,-37.0,15.0,-8.0,-60.0,-913.0,-418.0
5.0,-242.0,-142.0,-39.0,15.0,-7.0,-59.0,-917.0,-418.0
3.0,-241.0,-143.0,-37.0,15.0,-7.0,-61.0,-912.0,-412.0
5.0,-239.0,-146.0,-37.0,15.0,-5.0,-62.0,-912.0,-412.0
1.0,-240.0,-141.0,-36.0,16.0,-4.0,-58.0,-913.0,-415.0
5.0,-242.0,-144.0,-37.0,15.0,-3.0,-63.0,-920.0,-413.0
3.0,-238.0,-142.0,-39.0,17.0,-3.0,-60.0,-921.0,-415.0
4.0,-242.0,-142.0,-40.0,19.0,-2.0,-61.0,-919.0,-415.0
4.0,-243.0,-147.0,-40.0,21.0,-1.0,-57.0,-919.0,-420.0
8.0,-242.0,-141.0,-39.0,23.0,0.0,-59.0,-919.0,-416.0
4.0,-247.0,-141.0,-36.0,26.0,-1.0,-64.0,-925.0,-414.0
3.0,-242.0,-145.0,-34.0,26.0,-1.0,-59.0,-922.0,-415.0
4.0,-239.0,-144.0,-31.0,25.0,-2.0,-58.0,-925.0,-418.0
4.0,-243.0,-144.0,-28.0,25.0,-3.0,-63.0,-924.0,-421.0
3.0,-240.0,-141.0,-26.0,23.0,-4.0,-59.0,-923.0,-402.0
3.0,-243.0,-145.0,-25.0,24.0,-4.0,-60.0,-921.0,-413.0
3.0,-241.0,-142.0,-24.0,23.0,-5.0,-62.0,-918.0,-416.0
1.0,-241.0,-142.0,-24.0,23.0,-5.0,-60.0,-922.0,-412.0
2.0,-239.0,-141.0,-26.0,21.0,-3.0,-60.0,-920.0,-412.0
4.0,-241.0,-140.0,-30.0,20.0,-4.0,-60.0,-924.0,-409.0
2.0,-244.0,-141.0,-33.0,18.0,-4.0,-62.0,-920.0,-411.0
4.0,-237.0,-144.0,-32.0,16.0,-4.0,-58.0,-925.0,-403.0
4.0,-242.0,-138.0,-33.0,14.0,-5.0,-56.0,-918.0,-402.0
3.0,-242.0,-144.0,-33.0,14.0,-6.0,-55.0,-915.0,-409.0
5.0,-243.0,-143.0,-29.0,12.0,-9.0,-57.0,-920.0,-405.0
6.0,-241.0,-141.0,-27.0,11.0,-9.0,-56.0,-918.0,-409.0
7.0,-243.0,-140.0,-24.0,10.0,-11.0,-58.0,-915.0,-407.0
5.0,-242.0,-141.0,-24.0,9.0,-11.0,-54.0,-912.0,-407.0
6.0,-239.0,-140.0,-25.0,9.0,-11.0,-59.0,-914.0,-411.0
6.0,-240.0,-145.0,-26.0,9.0,-11.0,-60.0,-905.0,-410.0
7.0,-236.0,-142.0,-28.0,10.0,-12.0,-56.0,-910.0,-411.0
4.0,-237.0,-146.0,-34.0,11.0,-11.0,-59.0,-909.0,-411.0
2.0,-237.0,-140.0,-38.0,12.0,-13.0,-56.0,-910.0,-415.0
7.0,-239.0,-146.0,-42.0,13.0,-12.0,-55.0,-913.0,-416.0
3.0,-239.0,-142.0,-47.0,15.0,-10.0,-53.0,-912.0,-417.0
4.0,-239.0,-141.0,-49.0,16.0,-9.0,-56.0,-919.0,-412.0
5.0,-240.0,-146.0,-50.0,18.0,-9.0,-58.0,-916.0,-415.0
4.0,-239.0,-139.0,-51.0,20.0,-9.0,-54.0,-913.0,-412.0
4.0,-241.0,-142.0,-51.0,19.0,-9.0,-54.0,-914.0,-411.0
5.0,-241.0,-146.0,-51.0,19.0,-8.0,-57.0,-914.0,-413.0
4.0,-242.0,-140.0,-52.0,19.0,-7.0,-58.0,-919.0,-411.0
6.0,-240.0,-141.0,-49.0,19.0,-7.0,-54.0,-917.0,-415.0
5.0,-240.0,-143.0,-46.0,20.0,-5.0,-57.0,-915.0,-411.0
4.0,-239.0,-143.0,-44.0,20.0,-5.0,-60.0,-913.0,-413.0
