acc1_x,acc1_y,acc1_z,gyro_x,gyro_y,gyro_z,acc2_x,acc2_y,acc2_z
-4.0,-250.0,-117.0,-40.0,33.0,0.0,-96.0,-958.0,-295.0
-1.0,-253.0,-116.0,-39.0,34.0,-1.0,-93.0,-958.0,-295.0
-6.0,-251.0,-116.0,-40.0,32.0,0.0,-94.0,-953.0,-290.0
0.0,-255.0,-121.0,-41.0,33.0,-2.0,-95.0,-954.0,-291.0
-3.0,-249.0,-115.0,-42.0,34.0,0.0,-92.0,-956.0,-297.0
-7.0,-252.0,-121.0,-40.0,33.0,-1.0,-93.0,-951.0,-293.0
-2.0,-252.0,-116.0,-40.0,32.0,-1.0,-94.0,-955.0,-290.0
-4.0,-252.0,-114.0,-41.0,32.0,-2.0,-97.0,-959.0,-293.0
-1.0,-253.0,-113.0,-41.0,32.0,-2.0,-98.0,-959.0,-295.0
-2.0,-252.0,-110.0,-40.0,30.0,-3.0,-92.0,-958.0,-289.0
0.0,-252.0,-117.0,-38.0,29.0,-2.0,-95.0,-958.0,-288.0
0.0,-252.0,-112.0,-37.0,31.0,-3.0,-89.0,-955.0,-293.0
0.0,-253.0,-111.0,-35.0,29.0,-4.0,-91.0,-953.0,-291.0
-2.0,-249.0,-112.0,-35.0,28.0,-3.0,-92.0,-952.0,-290.0
-1.0,-251.0,-112.0,-34.0,29.0,-2.0,-91.0,-956.0,-290.0
-1.0,-249.0,-108.0,-34.0,29.0,-2.0,-86.0,-954.0,-288.0
0.0,-250.0,-114.0,-34.0,30.0,-2.0,-93.0,-958.0,-288.0
1.0,-252.0,-113.0,-36.0,31.0,-2.0,-90.0,-954.0,-281.0
0.0,-252.0,-116.0,-36.0,32.0,-2.0,-89.0,-954.0,-286.0
0.0,-253.0,-114.0,-35.0,34.0,-1.0,-84.0,-953.0,-289.0
0.0,-252.0,-117.0,-35.0,35.0,-1.0,-88.0,-952.0,-291.0
0.0,-251.0,-114.0,-33.0,37.0,-1.0,-89.0,-956.0,-290.0
-5.0,-250.0,-114.0,-33.0,39.0,-1.0,-88.0,-954.0,-292.0
1.0,-252.0,-111.0,-31.0,41.0,-1.0,-90.0,-958.0,-291.0
-1.0,-250.0,-118.0,-33.0,41.0,1.0,-88.0,-955.0,-289.0
1.0,-251.0,-114.0,-35.0,42.0,0.0,-92.0,-958.0,-295.0
1.0,-254.0,-120.0,-36.0,40.0,1.0,-94.0,-954.0,-289.0
0.0,-252.0,-116.0,-37.0,40.0,0.0,-92.0,-952.0,-291.0
0.0,-251.0,-113.0,-38.0,40.0,1.0,-90.0,-956.0,-293.0
-1.0,-254.0,-117.0,-41.0,40.0,2.0,-85.0,-953.0,-291.0
-2.0,-254.0,-114.0,-44.0,40.0,2.0,-92.0,-953.0,-289.0
0.0,-253.0,-111.0,-43.0,41.0,1.0,-90.0,-957.0,-296.0
-2.0,-253.0,-113.0,-42.0,39.0,1.0,-88.0,-955.0,-292.0
-2.0,-248.0,-114.0,-42.0,38.0,2.0,-88.0,-963.0,-287.0
0.0,-253.0,-114.0,-44.0,38.0,2.0,-85.0,-955.0,-289.0
0.0,-253.0,-111.0,-43.0,37.0,1.0,-87.0,-959.0,-292.0
0.0,-252.0,-122.0,-42.0,35.0,2.0,-88.0,-960.0,-287.0
-1.0,-254.0,-120.0,-42.0,33.0,3.0,-87.0,-958.0,-292.0
-1.0,-254.0,-115.0,-41.0,32.0,3.0,-91.0,-959.0,-285.0
-2.0,-253.0,-115.0,-40.0,32.0,2.0,-80.0,-956.0,-287.0
0.0,-252.0,-114.0,-40.0,30.0,0.0,-82.0,-957.0,-285.0
0.0,-251.0,-113.0,-39.0,31.0,2.0,-83.0,-957.0,-282.0
0.0,-252.0,-114.0,-39.0,28.0,1.0,-81.0,-956.0,-288.0
-1.0,-253.0,-111.0,-39.0,29.0,2.0,-88.0,-951.0,-288.0
0.0,-249.0,-113.0,-40.0,27.0,1.0,-89.0,-951.0,-285.0
0.0,-252.0,-113.0,-41.0,27.0,0.0,-92.0,-955.0,-289.0
0.0,-248.0,-114.0,-40.0,29.0,0.0,-88.0,-950.0,-288.0
-3.0,-252.0,-110.0,-43.0,29.0,-1.0,-91.0,-952.0,-285.0
-3.0,-254.0,-116.0,-42.0,28.0,0.0,-93.0,-956.0,-286.0
-2.0,-251.0,-112.0,-38.0,28.0,0.0,-86.0,-954.0,-289.0
-1.0,-250.0,-111.0,-38.0,25.0,-1.0,-92.0,-956.0,-288.0
-3.0,-251.0,-114.0,-38.0,26.0,-1.0,-95.0,-952.0,-288.0
-2.0,-251.0,-113.0,-38.0,25.0,0.0,-96.0,-955.0,-290.0
0.0,-250.0,-113.0,-36.0,25.0,1.0,-96.0,-956.0,-293.0
-4.0,-252.0,-115.0,-35.0,24.0,1.0,-93.0,-954.0,-288.0
-4.0,-250.0,-115.0,-36.0,24.0,0.0,-89.0,-955.0,-286.0
-5.0,-252.0,-118.0,-35.0,25.0,1.0,-94.0,-954.0,-287.0
0.0,-250.0,-113.0,-34.0,27.0,1.0,-89.0,-956.0,-289.0
0.0,-255.0,-119.0,-35.0,26.0,2.0,-91.0,-954.0,-288.0
10.0,-253.0,-118.0,-36.0,28.0,2.0,-89.0,-950.0,-288.0
0.0,-252.0,-115.0,-36.0,29.0,2.0,-88.0,-953.0,-286.0
0.0,-250.0,-117.0,-36.0,30.0,1.0,-84.0,-954.0,-285.0
0.0,-249.0,-114.0,-36.0,31.0,2.0,-87.0,-952.0,-287.0
0.0,-248.0,-114.0,-36.0,31.0,1.0,-84.0,-954.0,-291.0
-4.0,-247.0,-115.0,-37.0,30.0,2.0,-88.0,-951.0,-291.0
-1.0,-250.0,-116.0,-36.0,30.0,3.0,-81.0,-951.0,-288.0
-1.0,-248.0,-111.0,-35.0,31.0,3.0,-86.0,-950.0,-293.0
-2.0,-249.0,-110.0,-36.0,29.0,3.0,-83.0,-953.0,-288.0
0.0,-253.0,-109.0,-35.0,27.0,5.0,-86.0,-953.0,-291.0
-1.0,-250.0,-113.0,-35.0,26.0,3.0,-96.0,-949.0,-289.0
1.0,-253.0,-110.0,-32.0,25.0,3.0,-85.0,-956.0,-289.0
-1.0,-251.0,-114.0,-30.0,22.0,3.0,-91.0,-957.0,-287.0
-1.0,-250.0,-118.0,-27.0,20.0,2.0,-88.0,-956.0,-289.0
0.0,-251.0,-110.0,-25.0,20.0,2.0,-90.0,-955.0,-295.0
0.0,-249.0,-115.0,-26.0,19.0,3.0,-90.0,-952.0,-294.0
0.0,-252.0,-115.0,-24.0,17.0,1.0,-90.0,-954.0,-291.0
-1.0,-252.0,-113.0,-24.0,18.0,3.0,-86.0,-952.0,-289.0
-1.0,-250.0,-114.0,-24.0,18.0,3.0,-90.0,-954.0,-285.0
-1.0,-253.0,-121.0,-26.0,17.0,4.0,-90.0,-951.0,-289.0
-2.0,-252.0,-116.0,-28.0,18.0,3.0,-85.0,-951.0,-288.0
-1.0,-249.0,-116.0,-29.0,19.0,4.0,-87.0,-956.0,-291.0
0.0,-247.0,-112.0,-28.0,21.0,4.0,-92.0,-958.0,-292.0
0.0,-251.0,-113.0,-29.0,22.0,4.0,-84.0,-959.0,-286.0
-1.0,-252.0,-113.0,-28.0,22.0,4.0,-91.0,-953.0,-287.0
-2.0,-254.0,-111.0,-27.0,22.0,5.0,-93.0,-960.0,-290.0
0.0,-251.0,-113.0,-25.0,20.0,5.0,-85.0,-959.0,-283.0
0.0,-253.0,-115.0,-24.0,18.0,6.0,-86.0,-956.0,-284.0
0.0,-251.0,-116.0,-21.0,17.0,4.0,-87.0,-953.0,-290.0
0.0,-250.0,-113.0,-21.0,17.0,4.0,-88.0,-951.0,-282.0
-1.0,-248.0,-112.0,-22.0,18.0,5.0,-89.0,-951.0,-288.0
-3.0,-247.0,-116.0,-21.0,19.0,5.0,-90.0,-947.0,-287.0
0.0,-247.0,-115.0,-23.0,20.0,5.0,-86.0,-950.0,-289.0
-2.0,-251.0,-117.0,-22.0,19.0,5.0,-92.0,-948.0,-286.0
-1.0,-249.0,-113.0,-22.0,19.0,5.0,-92.0,-953.0,-285.0
1.0,-250.0,-111.0,-22.0,17.0,4.0,-87.0,-951.0,-291.0
0.0,-253.0,-114.0,-25.0,17.0,5.0,-92.0,-949.0,-282.0
-2.0,-251.0,-116.0,-26.0,14.0,5.0,-93.0,-951.0,-289.0
0.0,-251.0,-114.0,-30.0,11.0,4.0,-92.0,-945.0,-285.0
-2.0,-250.0,-112.0,-33.0,11.0,4.0,-97.0,-955.0,-280.0
-2.0,-252.0,-113.0,-36.0,10.0,4.0,-92.0,-958.0,-275.0
-3.0,-253.0,-112.0,-38.0,10.0,1.0,-93.0,-957.0,-280.0
-3.0,-254.0,-115.0,-38.0,9.0,1.0,-93.0,-958.0,-273.0
-3.0,-252.0,-106.0,-34.0,8.0,2.0,-94.0,-957.0,-278.0
-3.0,-252.0,-115.0,-30.0,9.0,2.0,-91.0,-958.0,-284.0
0.0,-249.0,-115.0,-27.0,8.0,0.0,-86.0,-957.0,-281.0
0.0,-253.0,-113.0,-25.0,7.0,-1.0,-93.0,-957.0,-279.0
-2.0,-252.0,-111.0,-21.0,6.0,-1.0,-89.0,-952.0,-282.0
1.0,-252.0,-112.0,-23.0,7.0,-2.0,-91.0,-954.0,-283.0
-3.0,-252.0,-114.0,-24.0,7.0,-1.0,-89.0,-956.0,-283.0
0.0,-254.0,-112.0,-29.0,9.0,-1.0,-90.0,-952.0,-283.0
0.0,-251.0,-112.0,-30.0,10.0,-1.0,-93.0,-953.0,-282.0
0.0,-253.0,-112.0,-32.0,11.0,-1.0,-92.0,-959.0,-275.0
-2.0,-251.0,-116.0,-32.0,11.0,0.0,-93.0,-953.0,-287.0
-4.0,-244.0,-114.0,-35.0,11.0,1.0,-97.0,-960.0,-286.0
-1.0,-250.0,-111.0,-35.0,10.0,2.0,-90.0,-955.0,-283.0
-2.0,-255.0,-110.0,-38.0,10.0,3.0,-94.0,-959.0,-279.0
0.0,-254.0,-113.0,-38.0,12.0,5.0,-92.0,-955.0,-283.0
-1.0,-251.0,-111.0,-39.0,13.0,4.0,-92.0,-959.0,-282.0
1.0,-252.0,-112.0,-40.0,13.0,5.0,-92.0,-958.0,-278.0
-4.0,-252.0,-112.0,-41.0,14.0,4.0,-96.0,-959.0,-281.0
-2.0,-248.0,-110.0,-41.0,12.0,2.0,-91.0,-958.0,-279.0
-2.0,-252.0,-111.0,-40.0,10.0,2.0,-95.0,-963.0,-280.0
-3.0,-251.0,-109.0,-40.0,10.0,3.0,-90.0,-957.0,-279.0
-1.0,-254.0,-114.0,-39.0,7.0,2.0,-97.0,-962.0,-278.0
-1.0,-255.0,-116.0,-38.0,6.0,2.0,-95.0,-961.0,-287.0
-2.0,-253.0,-112.0,-37.0,5.0,2.0,-94.0,-958.0,-282.0
-4.0,-253.0,-110.0,-38.0,5.0,1.0,-96.0,-964.0,-286.0
-3.0,-256.0,-113.0,-37.0,6.0,1.0,-93.0,-961.0,-282.0
-6.0,-252.0,-110.0,-34.0,6.0,1.0,-98.0,-965.0,-283.0
-6.0,-251.0,-110.0,-34.0,6.0,-1.0,-91.0,-961.0,-277.0
-2.0,-255.0,-112.0,-33.0,7.0,0.0,-92.0,-961.0,-275.0
-1.0,-257.0,-113.0,-31.0,7.0,-1.0,-96.0,-965.0,-281.0
-3.0,-250.0,-110.0,-30.0,6.0,-2.0,-93.0,-969.0,-279.0
-2.0,-254.0,-115.0,-29.0,8.0,-2.0,-92.0,-958.0,-277.0
-3.0,-255.0,-118.0,-29.0,7.0,-1.0,-93.0,-957.0,-278.0
-2.0,-256.0,-110.0,-30.0,8.0,0.0,-89.0,-958.0,-273.0
-4.0,-250.0,-110.0,-29.0,11.0,-1.0,-91.0,-955.0,-274.0
0.0,-254.0,-110.0,-30.0,10.0,-1.0,-92.0,-951.0,-276.0
-2.0,-252.0,-110.0,-31.0,10.0,-2.0,-93.0,-953.0,-277.0
0.0,-253.0,-111.0,-31.0,12.0,-1.0,-91.0,-958.0,-272.0
-2.0,-250.0,-111.0,-32.0,12.0,0.0,-93.0,-961.0,-274.0
-3.0,-253.0,-111.0,-33.0,12.0,-2.0,-93.0,-959.0,-273.0
-1.0,-254.0,-111.0,-33.0,10.0,-1.0,-92.0,-954.0,-276.0
0.0,-251.0,-107.0,-34.0,12.0,-2.0,-97.0,-960.0,-276.0
-2.0,-255.0,-112.0,-35.0,12.0,-1.0,-94.0,-955.0,-276.0
-4.0,-253.0,-111.0,-35.0,13.0,-2.0,-97.0,-956.0,-278.0
0.0,-253.0,-104.0,-37.0,13.0,-2.0,-93.0,-959.0,-272.0
0.0,-255.0,-111.0,-37.0,11.0,-4.0,-93.0,-957.0,-272.0
-2.0,-253.0,-111.0,-37.0,10.0,-3.0,-99.0,-958.0,-273.0
-4.0,-250.0,-119.0,-37.0,9.0,-4.0,-97.0,-956.0,-277.0
0.0,-251.0,-115.0,-36.0,11.0,-4.0,-95.0,-956.0,-271.0
-5.0,-253.0,-112.0,-38.0,10.0,-6.0,-95.0,-957.0,-278.0
-1.0,-251.0,-112.0,-36.0,10.0,-7.0,-96.0,-954.0,-277.0
-3.0,-252.0,-115.0,-35.0,8.0,-5.0,-94.0,-952.0,-279.0
-6.0,-249.0,-106.0,-36.0,8.0,-6.0,-92.0,-956.0,-276.0
-3.0,-252.0,-114.0,-35.0,7.0,-6.0,-91.0,-954.0,-282.0
0.0,-254.0,-113.0,-35.0,7.0,-5.0,-89.0,-958.0,-276.0
-1.0,-255.0,-107.0,-35.0,7.0,-5.0,-91.0,-959.0,-278.0
-2.0,-249.0,-112.0,-36.0,8.0,-3.0,-90.0,-959.0,-282.0
0.0,-253.0,-117.0,-37.0,9.0,-4.0,-83.0,-960.0,-285.0
0.0,-255.0,-115.0,-38.0,9.0,-3.0,-86.0,-960.0,-285.0
0.0,-251.0,-112.0,-36.0,10.0,-4.0,-87.0,-962.0,-274.0
0.0,-250.0,-110.0,-39.0,11.0,-4.0,-86.0,-959.0,-279.0
-3.0,-251.0,-111.0,-37.0,11.0,-3.0,-87.0,-966.0,-277.0
-6.0,-253.0,-111.0,-38.0,12.0,-4.0,-90.0,-960.0,-280.0
-3.0,-252.0,-112.0,-40.0,11.0,-3.0,-93.0,-951.0,-281.0
0.0,-254.0,-114.0,-40.0,11.0,-4.0,-97.0,-961.0,-283.0
-3.0,-252.0,-110.0,-40.0,10.0,-4.0,-94.0,-960.0,-277.0
-5.0,-253.0,-117.0,-42.0,11.0,-3.0,-93.0,-964.0,-274.0
-2.0,-253.0,-107.0,-40.0,10.0,-2.0,-91.0,-958.0,-272.0
-1.0,-253.0,-110.0,-41.0,8.0,-3.0,-93.0,-967.0,-271.0
0.0,-253.0,-112.0,-39.0,7.0,-4.0,-90.0,-960.0,-276.0
0.0,-251.0,-109.0,-40.0,5.0,-2.0,-94.0,-962.0,-271.0
-2.0,-252.0,-113.0,-41.0,4.0,-4.0,-89.0,-961.0,-275.0
0.0,-255.0,-111.0,-39.0,4.0,-5.0,-94.0,-956.0,-272.0
-3.0,-252.0,-111.0,-40.0,4.0,-4.0,-90.0,-963.0,-271.0
-1.0,-254.0,-105.0,-38.0,4.0,-8.0,-93.0,-959.0,-272.0
0.0,-254.0,-107.0,-39.0,3.0,-10.0,-96.0,-957.0,-279.0
0.0,-252.0,-108.0,-36.0,4.0,-9.0,-91.0,-961.0,-274.0
-5.0,-251.0,-106.0,-37.0,3.0,-10.0,-94.0,-960.0,-279.0
-2.0,-252.0,-112.0,-38.0,3.0,-11.0,-92.0,-956.0,-269.0
1.0,-255.0,-111.0,-34.0,3.0,-10.0,-95.0,-959.0,-276.0
0.0,-253.0,-111.0,-36.0,3.0,-9.0,-96.0,-957.0,-278.0
0.0,-254.0,-112.0,-36.0,2.0,-9.0,-97.0,-960.0,-274.0
-1.0,-253.0,-112.0,-37.0,5.0,-8.0,-94.0,-951.0,-275.0
-6.0,-252.0,-111.0,-36.0,4.0,-8.0,-92.0,-954.0,-270.0
-4.0,-248.0,-110.0,-36.0,5.0,-8.0,-98.0,-959.0,-273.0
0.0,-255.0,-109.0,-37.0,5.0,-8.0,-93.0,-955.0,-276.0
0.0,-251.0,-111.0,-39.0,5.0,-8.0,-91.0,-958.0,-276.0
-3.0,-252.0,-112.0,-39.0,4.0,-8.0,-95.0,-954.0,-276.0
-10.0,-251.0,-105.0,-38.0,3.0,-7.0,-92.0,-955.0,-279.0
0.0,-252.0,-115.0,-39.0,3.0,-7.0,-91.0,-957.0,-275.0
0.0,-252.0,-112.0,-40.0,1.0,-7.0,-89.0,-955.0,-274.0
0.0,-251.0,-111.0,-43.0,0.0,-8.0,-90.0,-958.0,-277.0
-4.0,-254.0,-109.0,-44.0,-1.0,-8.0,-84.0,-960.0,-272.0
0.0,-250.0,-113.0,-47.0,-2.0,-8.0,-85.0,-955.0,-274.0
-1.0,-250.0,-111.0,-48.0,-1.0,-9.0,-90.0,-951.0,-276.0
-3.0,-251.0,-115.0,-48.0,-1.0,-10.0,-91.0,-956.0,-273.0
-2.0,-250.0,-109.0,-48.0,-2.0,-8.0,-97.0,-956.0,-275.0
0.0,-250.0,-112.0,-50.0,-3.0,-9.0,-93.0,-948.0,-274.0
1.0,-252.0,-113.0,-52.0,-4.0,-10.0,-89.0,-950.0,-273.0
-1.0,-242.0,-112.0,-55.0,-5.0,-11.0,-86.0,-948.0,-272.0
0.0,-252.0,-113.0,-60.0,-8.0,-9.0,-91.0,-949.0,-275.0
0.0,-250.0,-112.0,-58.0,-10.0,-9.0,-89.0,-948.0,-279.0
0.0,-248.0,-113.0,-60.0,-11.0,-9.0,-91.0,-946.0,-271.0
-1.0,-246.0,-111.0,-62.0,-13.0,-10.0,-91.0,-941.0,-274.0
-1.0,-249.0,-111.0,-64.0,-13.0,-10.0,-91.0,-942.0,-275.0
0.0,-248.0,-116.0,-69.0,-15.0,-11.0,-93.0,-942.0,-278.0
-1.0,-242.0,-113.0,-72.0,-14.0,-11.0,-95.0,-942.0,-274.0
-3.0,-246.0,-113.0,-76.0,-16.0,-9.0,-92.0,-944.0,-280.0
-1.0,-247.0,-110.0,-80.0,-20.0,-12.0,-101.0,-945.0,-276.0
-8.0,-251.0,-106.0,-83.0,-23.0,-13.0,-97.0,-943.0,-286.0
-6.0,-249.0,-112.0,-87.0,-26.0,-13.0,-100.0,-948.0,-287.0
-7.0,-250.0,-116.0,-87.0,-30.0,-14.0,-101.0,-947.0,-288.0
-7.0,-249.0,-116.0,-89.0,-35.0,-18.0,-101.0,-948.0,-288.0
-7.0,-247.0,-116.0,-90.0,-40.0,-18.0,-105.0,-944.0,-290.0
-4.0,-251.0,-115.0,-91.0,-46.0,-20.0,-105.0,-948.0,-297.0
-4.0,-247.0,-115.0,-93.0,-50.0,-20.0,-105.0,-940.0,-292.0
-7.0,-248.0,-109.0,-94.0,-53.0,-21.0,-105.0,-942.0,-289.0
-9.0,-245.0,-115.0,-97.0,-57.0,-21.0,-111.0,-942.0,-287.0
-7.0,-247.0,-116.0,-101.0,-60.0,-20.0,-111.0,-936.0,-291.0
-8.0,-248.0,-112.0,-104.0,-65.0,-22.0,-109.0,-932.0,-292.0
-3.0,-248.0,-116.0,-108.0,-68.0,-22.0,-108.0,-934.0,-290.0
-7.0,-246.0,-114.0,-109.0,-72.0,-25.0,-107.0,-937.0,-292.0
-8.0,-246.0,-110.0,-111.0,-76.0,-26.0,-119.0,-937.0,-288.0
-9.0,-246.0,-114.0,-114.0,-82.0,-27.0,-110.0,-940.0,-292.0
-12.0,-247.0,-118.0,-119.0,-87.0,-28.0,-115.0,-943.0,-293.0
-10.0,-249.0,-115.0,-123.0,-93.0,-29.0,-110.0,-938.0,-293.0
-8.0,-246.0,-111.0,-128.0,-101.0,-31.0,-115.0,-944.0,-287.0
-6.0,-250.0,-112.0,-133.0,-107.0,-32.0,-109.0,-936.0,-296.0
-10.0,-247.0,-118.0,-136.0,-114.0,-33.0,-115.0,-944.0,-287.0
-8.0,-248.0,-115.0,-136.0,-119.0,-36.0,-117.0,-945.0,-293.0
-6.0,-251.0,-114.0,-135.0,-124.0,-38.0,-110.0,-947.0,-287.0
-9.0,-249.0,-114.0,-135.0,-129.0,-39.0,-112.0,-945.0,-289.0
-6.0,-249.0,-112.0,-135.0,-131.0,-41.0,-117.0,-944.0,-290.0
-8.0,-247.0,-113.0,-133.0,-135.0,-42.0,-114.0,-942.0,-288.0
-9.0,-251.0,-113.0,-136.0,-138.0,-42.0,-115.0,-947.0,-293.0
-9.0,-250.0,-112.0,-139.0,-140.0,-43.0,-116.0,-938.0,-291.0
-12.0,-247.0,-115.0,-144.0,-142.0,-44.0,-117.0,-943.0,-287.0
-8.0,-249.0,-114.0,-149.0,-144.0,-46.0,-110.0,-943.0,-294.0
-6.0,-249.0,-115.0,-157.0,-147.0,-45.0,-115.0,-944.0,-295.0
-6.0,-249.0,-117.0,-163.0,-147.0,-43.0,-117.0,-946.0,-291.0
-4.0,-252.0,-111.0,-170.0,-149.0,-44.0,-109.0,-948.0,-288.0
-5.0,-249.0,-114.0,-178.0,-147.0,-42.0,-106.0,-950.0,-293.0
-8.0,-252.0,-114.0,-181.0,-146.0,-43.0,-106.0,-959.0,-293.0
-6.0,-253.0,-113.0,-185.0,-144.0,-43.0,-105.0,-962.0,-289.0
-3.0,-255.0,-114.0,-184.0,-143.0,-43.0,-95.0,-968.0,-290.0
-3.0,-256.0,-115.0,-183.0,-142.0,-46.0,-98.0,-969.0,-290.0
0.0,-254.0,-116.0,-180.0,-141.0,-46.0,-90.0,-969.0,-291.0
-2.0,-257.0,-113.0,-180.0,-142.0,-46.0,-94.0,-970.0,-292.0
-1.0,-255.0,-113.0,-177.0,-143.0,-48.0,-89.0,-973.0,-286.0
-1.0,-254.0,-115.0,-174.0,-145.0,-50.0,-91.0,-974.0,-286.0
-4.0,-256.0,-114.0,-171.0,-148.0,-51.0,-95.0,-966.0,-291.0
-6.0,-253.0,-113.0,-166.0,-150.0,-53.0,-92.0,-970.0,-287.0
0.0,-254.0,-111.0,-162.0,-151.0,-53.0,-97.0,-964.0,-291.0
-2.0,-251.0,-108.0,-159.0,-152.0,-53.0,-95.0,-965.0,-287.0
-5.0,-254.0,-117.0,-158.0,-154.0,-55.0,-94.0,-963.0,-288.0
0.0,-254.0,-113.0,-156.0,-154.0,-56.0,-95.0,-960.0,-286.0
-3.0,-252.0,-112.0,-156.0,-155.0,-57.0,-96.0,-959.0,-292.0
-2.0,-252.0,-116.0,-156.0,-156.0,-57.0,-89.0,-957.0,-291.0
-2.0,-251.0,-117.0,-157.0,-157.0,-60.0,-94.0,-959.0,-298.0
0.0,-252.0,-121.0,-156.0,-157.0,-63.0,-93.0,-958.0,-299.0
-1.0,-253.0,-115.0,-156.0,-155.0,-62.0,-85.0,-957.0,-298.0
-1.0,-252.0,-117.0,-157.0,-153.0,-65.0,-93.0,-958.0,-304.0
0.0,-254.0,-118.0,-157.0,-151.0,-67.0,-90.0,-959.0,-299.0
0.0,-253.0,-113.0,-159.0,-153.0,-68.0,-92.0,-961.0,-306.0
-7.0,-259.0,-110.0,-160.0,-152.0,-69.0,-98.0,-955.0,-308.0
-1.0,-255.0,-120.0,-158.0,-152.0,-72.0,-92.0,-960.0,-309.0
0.0,-251.0,-117.0,-156.0,-154.0,-73.0,-91.0,-961.0,-308.0
-2.0,-251.0,-121.0,-155.0,-154.0,-74.0,-86.0,-955.0,-308.0
-2.0,-248.0,-121.0,-155.0,-155.0,-74.0,-86.0,-957.0,-312.0
0.0,-252.0,-122.0,-152.0,-153.0,-75.0,-86.0,-957.0,-314.0
0.0,-252.0,-125.0,-150.0,-156.0,-74.0,-83.0,-949.0,-321.0
0.0,-246.0,-120.0,-149.0,-157.0,-74.0,-83.0,-950.0,-316.0
2.0,-252.0,-120.0,-149.0,-157.0,-73.0,-80.0,-956.0,-320.0
0.0,-248.0,-117.0,-147.0,-157.0,-73.0,-76.0,-953.0,-320.0
2.0,-253.0,-121.0,-147.0,-156.0,-70.0,-77.0,-948.0,-316.0
2.0,-250.0,-122.0,-147.0,-157.0,-71.0,-75.0,-948.0,-318.0
1.0,-250.0,-122.0,-147.0,-157.0,-70.0,-70.0,-952.0,-319.0
0.0,-249.0,-119.0,-147.0,-157.0,-68.0,-69.0,-949.0,-322.0
1.0,-249.0,-119.0,-146.0,-154.0,-67.0,-73.0,-947.0,-317.0
1.0,-251.0,-125.0,-146.0,-153.0,-67.0,-71.0,-944.0,-319.0
0.0,-249.0,-122.0,-148.0,-151.0,-68.0,-69.0,-948.0,-322.0
0.0,-248.0,-127.0,-145.0,-153.0,-66.0,-69.0,-944.0,-321.0
1.0,-251.0,-121.0,-142.0,-155.0,-65.0,-76.0,-948.0,-321.0
1.0,-249.0,-123.0,-141.0,-156.0,-66.0,-71.0,-953.0,-320.0
3.0,-252.0,-124.0,-141.0,-158.0,-66.0,-67.0,-950.0,-323.0
-1.0,-251.0,-123.0,-138.0,-161.0,-66.0,-68.0,-953.0,-323.0
3.0,-251.0,-121.0,-136.0,-164.0,-67.0,-69.0,-952.0,-322.0
2.0,-248.0,-123.0,-133.0,-166.0,-66.0,-67.0,-947.0,-326.0
1.0,-248.0,-125.0,-131.0,-167.0,-66.0,-69.0,-944.0,-322.0
3.0,-249.0,-125.0,-128.0,-169.0,-66.0,-70.0,-939.0,-325.0
5.0,-251.0,-124.0,-128.0,-170.0,-66.0,-63.0,-940.0,-327.0
1.0,-246.0,-125.0,-127.0,-170.0,-65.0,-67.0,-939.0,-326.0
2.0,-244.0,-124.0,-126.0,-169.0,-65.0,-72.0,-941.0,-332.0
1.0,-248.0,-128.0,-127.0,-170.0,-67.0,-71.0,-934.0,-326.0
2.0,-245.0,-124.0,-129.0,-169.0,-67.0,-73.0,-930.0,-326.0
3.0,-248.0,-123.0,-130.0,-169.0,-70.0,-74.0,-938.0,-336.0
1.0,-248.0,-125.0,-131.0,-170.0,-70.0,-75.0,-930.0,-336.0
0.0,-242.0,-126.0,-132.0,-174.0,-71.0,-84.0,-933.0,-329.0
-2.0,-246.0,-127.0,-135.0,-176.0,-74.0,-83.0,-926.0,-332.0
0.0,-244.0,-127.0,-138.0,-177.0,-74.0,-89.0,-930.0,-330.0
0.0,-245.0,-127.0,-140.0,-182.0,-75.0,-89.0,-933.0,-330.0
0.0,-243.0,-124.0,-141.0,-187.0,-76.0,-87.0,-934.0,-336.0
-2.0,-244.0,-124.0,-142.0,-189.0,-80.0,-91.0,-935.0,-331.0
-5.0,-246.0,-127.0,-141.0,-191.0,-80.0,-92.0,-934.0,-334.0
0.0,-245.0,-126.0,-143.0,-192.0,-81.0,-92.0,-932.0,-331.0
-3.0,-246.0,-124.0,-141.0,-192.0,-83.0,-98.0,-934.0,-330.0
-3.0,-245.0,-124.0,-142.0,-193.0,-84.0,-96.0,-935.0,-338.0
-5.0,-243.0,-128.0,-140.0,-197.0,-86.0,-102.0,-925.0,-334.0
-12.0,-244.0,-130.0,-142.0,-200.0,-87.0,-106.0,-933.0,-338.0
-6.0,-241.0,-127.0,-140.0,-203.0,-87.0,-105.0,-929.0,-340.0
-7.0,-243.0,-128.0,-140.0,-206.0,-88.0,-105.0,-932.0,-339.0
-11.0,-240.0,-126.0,-142.0,-212.0,-88.0,-109.0,-926.0,-335.0
-7.0,-249.0,-127.0,-143.0,-216.0,-88.0,-113.0,-929.0,-339.0
-11.0,-243.0,-125.0,-147.0,-220.0,-86.0,-116.0,-930.0,-343.0
-14.0,-245.0,-126.0,-150.0,-226.0,-86.0,-116.0,-933.0,-345.0
-11.0,-242.0,-127.0,-156.0,-231.0,-86.0,-118.0,-935.0,-345.0
-11.0,-243.0,-125.0,-159.0,-236.0,-85.0,-122.0,-940.0,-342.0
-11.0,-248.0,-127.0,-163.0,-240.0,-84.0,-117.0,-942.0,-348.0
-13.0,-246.0,-128.0,-164.0,-244.0,-81.0,-121.0,-943.0,-346.0
-10.0,-250.0,-127.0,-165.0,-246.0,-80.0,-119.0,-941.0,-348.0
-15.0,-248.0,-130.0,-165.0,-248.0,-80.0,-120.0,-944.0,-344.0
-9.0,-249.0,-128.0,-163.0,-250.0,-78.0,-117.0,-944.0,-349.0
-9.0,-252.0,-126.0,-162.0,-254.0,-76.0,-121.0,-950.0,-347.0
-11.0,-252.0,-128.0,-161.0,-259.0,-75.0,-121.0,-945.0,-344.0
-9.0,-249.0,-125.0,-159.0,-266.0,-73.0,-118.0,-946.0,-340.0
-7.0,-252.0,-126.0,-155.0,-273.0,-72.0,-120.0,-940.0,-341.0
-7.0,-249.0,-123.0,-152.0,-279.0,-71.0,-120.0,-943.0,-340.0
-9.0,-249.0,-125.0,-150.0,-287.0,-70.0,-120.0,-944.0,-330.0
-12.0,-248.0,-125.0,-145.0,-291.0,-69.0,-118.0,-934.0,-337.0
-11.0,-244.0,-121.0,-144.0,-295.0,-67.0,-118.0,-934.0,-322.0
-9.0,-247.0,-125.0,-143.0,-297.0,-67.0,-117.0,-931.0,-326.0
-10.0,-243.0,-120.0,-141.0,-299.0,-66.0,-113.0,-929.0,-321.0
-11.0,-243.0,-122.0,-143.0,-298.0,-67.0,-109.0,-925.0,-316.0
-8.0,-245.0,-121.0,-142.0,-295.0,-65.0,-110.0,-927.0,-319.0
-8.0,-242.0,-121.0,-143.0,-291.0,-65.0,-103.0,-923.0,-316.0
-7.0,-244.0,-119.0,-143.0,-286.0,-68.0,-106.0,-922.0,-307.0
-6.0,-245.0,-118.0,-145.0,-280.0,-68.0,-105.0,-919.0,-304.0
-5.0,-247.0,-123.0,-143.0,-273.0,-70.0,-103.0,-921.0,-304.0
-2.0,-242.0,-120.0,-145.0,-265.0,-72.0,-106.0,-924.0,-304.0
-8.0,-245.0,-120.0,-147.0,-257.0,-75.0,-102.0,-927.0,-303.0
-6.0,-240.0,-116.0,-148.0,-248.0,-78.0,-102.0,-936.0,-303.0
-6.0,-247.0,-115.0,-151.0,-236.0,-82.0,-105.0,-944.0,-298.0
-9.0,-250.0,-117.0,-151.0,-222.0,-87.0,-106.0,-945.0,-302.0
-1.0,-252.0,-118.0,-152.0,-207.0,-88.0,-105.0,-961.0,-301.0
-3.0,-256.0,-117.0,-155.0,-192.0,-93.0,-103.0,-968.0,-302.0
-4.0,-258.0,-119.0,-152.0,-177.0,-97.0,-106.0,-973.0,-303.0
-1.0,-258.0,-116.0,-150.0,-164.0,-99.0,-106.0,-983.0,-306.0
-3.0,-262.0,-116.0,-149.0,-146.0,-100.0,-103.0,-1003.0,-306.0
-7.0,-264.0,-122.0,-142.0,-133.0,-102.0,-106.0,-1007.0,-308.0
-8.0,-266.0,-120.0,-137.0,-120.0,-103.0,-105.0,-1022.0,-316.0
-5.0,-270.0,-119.0,-130.0,-109.0,-104.0,-107.0,-1028.0,-318.0
-6.0,-273.0,-123.0,-121.0,-99.0,-105.0,-111.0,-1035.0,-321.0
-10.0,-273.0,-121.0,-112.0,-89.0,-105.0,-110.0,-1041.0,-320.0
-8.0,-273.0,-122.0,-102.0,-82.0,-106.0,-116.0,-1042.0,-322.0
-5.0,-276.0,-123.0,-88.0,-76.0,-103.0,-114.0,-1049.0,-318.0
-7.0,-276.0,-119.0,-76.0,-70.0,-104.0,-116.0,-1044.0,-316.0
-10.0,-272.0,-124.0,-63.0,-68.0,-103.0,-110.0,-1038.0,-317.0
-8.0,-269.0,-120.0,-53.0,-67.0,-101.0,-113.0,-1039.0,-319.0
-5.0,-269.0,-118.0,-42.0,-69.0,-103.0,-108.0,-1026.0,-313.0
-11.0,-265.0,-124.0,-31.0,-69.0,-103.0,-108.0,-1014.0,-318.0
-9.0,-261.0,-121.0,-20.0,-73.0,-101.0,-105.0,-1000.0,-310.0
-3.0,-260.0,-118.0,-10.0,-75.0,-100.0,-109.0,-989.0,-321.0
-9.0,-255.0,-120.0,0.0,-77.0,-100.0,-108.0,-981.0,-311.0
-9.0,-254.0,-120.0,7.0,-79.0,-99.0,-104.0,-968.0,-315.0
-3.0,-254.0,-122.0,11.0,-81.0,-97.0,-107.0,-963.0,-313.0
-2.0,-253.0,-121.0,13.0,-85.0,-96.0,-108.0,-951.0,-312.0
-3.0,-250.0,-121.0,11.0,-88.0,-93.0,-105.0,-951.0,-313.0
-5.0,-246.0,-119.0,8.0,-92.0,-94.0,-102.0,-938.0,-314.0
-5.0,-247.0,-119.0,4.0,-95.0,-92.0,-101.0,-934.0,-311.0
-7.0,-248.0,-124.0,3.0,-97.0,-90.0,-104.0,-929.0,-315.0
-7.0,-245.0,-123.0,3.0,-98.0,-90.0,-108.0,-926.0,-321.0
-4.0,-246.0,-122.0,0.0,-97.0,-91.0,-112.0,-923.0,-314.0
-5.0,-241.0,-121.0,-2.0,-96.0,-86.0,-110.0,-921.0,-317.0
-5.0,-242.0,-116.0,-5.0,-97.0,-87.0,-117.0,-920.0,-312.0
-9.0,-241.0,-120.0,-9.0,-97.0,-84.0,-119.0,-919.0,-314.0
-9.0,-240.0,-117.0,-12.0,-96.0,-81.0,-125.0,-912.0,-306.0
-13.0,-243.0,-117.0,-19.0,-93.0,-79.0,-123.0,-918.0,-304.0
-14.0,-240.0,-118.0,-25.0,-88.0,-76.0,-127.0,-922.0,-303.0
-12.0,-242.0,-116.0,-29.0,-86.0,-73.0,-131.0,-922.0,-305.0
-17.0,-241.0,-117.0,-34.0,-81.0,-73.0,-130.0,-927.0,-300.0
-13.0,-245.0,-116.0,-36.0,-79.0,-70.0,-134.0,-929.0,-306.0
-17.0,-245.0,-117.0,-36.0,-75.0,-69.0,-136.0,-934.0,-300.0
-14.0,-245.0,-115.0,-35.0,-70.0,-68.0,-139.0,-935.0,-304.0
-18.0,-242.0,-117.0,-34.0,-68.0,-66.0,-137.0,-939.0,-303.0
-15.0,-249.0,-118.0,-28.0,-64.0,-66.0,-138.0,-945.0,-307.0
-16.0,-252.0,-118.0,-27.0,-61.0,-66.0,-140.0,-950.0,-308.0
-16.0,-252.0,-122.0,-21.0,-58.0,-66.0,-142.0,-955.0,-308.0
-16.0,-252.0,-120.0,-16.0,-56.0,-65.0,-138.0,-958.0,-316.0
-19.0,-253.0,-121.0,-11.0,-49.0,-66.0,-142.0,-958.0,-313.0
-16.0,-254.0,-121.0,-5.0,-46.0,-65.0,-143.0,-962.0,-315.0
-14.0,-253.0,-122.0,-2.0,-40.0,-65.0,-147.0,-961.0,-318.0
-18.0,-252.0,-120.0,0.0,-34.0,-66.0,-143.0,-961.0,-318.0
-17.0,-252.0,-123.0,0.0,-32.0,-66.0,-147.0,-963.0,-315.0
-17.0,-254.0,-121.0,-1.0,-28.0,-68.0,-152.0,-962.0,-322.0
-21.0,-254.0,-122.0,-2.0,-30.0,-70.0,-148.0,-968.0,-322.0
-19.0,-255.0,-121.0,-1.0,-30.0,-72.0,-151.0,-963.0,-322.0
-18.0,-254.0,-120.0,-1.0,-34.0,-74.0,-148.0,-969.0,-327.0
-20.0,-255.0,-120.0,-2.0,-39.0,-77.0,-153.0,-966.0,-326.0
-18.0,-256.0,-124.0,-4.0,-42.0,-78.0,-153.0,-968.0,-324.0
-19.0,-255.0,-121.0,-5.0,-44.0,-81.0,-157.0,-962.0,-316.0
-17.0,-255.0,-120.0,-7.0,-47.0,-83.0,-148.0,-961.0,-320.0
-20.0,-252.0,-122.0,-9.0,-48.0,-84.0,-151.0,-956.0,-321.0
-22.0,-250.0,-120.0,-8.0,-49.0,-85.0,-148.0,-956.0,-310.0
-20.0,-249.0,-121.0,-11.0,-49.0,-84.0,-148.0,-947.0,-307.0
-17.0,-248.0,-118.0,-13.0,-49.0,-84.0,-152.0,-946.0,-306.0
-15.0,-243.0,-116.0,-17.0,-51.0,-86.0,-145.0,-946.0,-304.0
-17.0,-248.0,-116.0,-20.0,-50.0,-86.0,-143.0,-945.0,-305.0
-15.0,-247.0,-116.0,-23.0,-50.0,-85.0,-140.0,-946.0,-302.0
-16.0,-248.0,-118.0,-23.0,-47.0,-86.0,-133.0,-942.0,-303.0
-12.0,-249.0,-116.0,-23.0,-43.0,-87.0,-141.0,-943.0,-301.0
-14.0,-250.0,-118.0,-24.0,-39.0,-88.0,-139.0,-939.0,-303.0
-13.0,-247.0,-122.0,-22.0,-34.0,-87.0,-136.0,-937.0,-304.0
-18.0,-244.0,-114.0,-22.0,-30.0,-89.0,-135.0,-944.0,-307.0
-15.0,-249.0,-125.0,-23.0,-28.0,-89.0,-140.0,-939.0,-309.0
-18.0,-244.0,-120.0,-25.0,-28.0,-90.0,-139.0,-935.0,-308.0
-18.0,-247.0,-120.0,-26.0,-25.0,-91.0,-143.0,-943.0,-308.0
-17.0,-247.0,-119.0,-32.0,-27.0,-92.0,-140.0,-942.0,-310.0
-15.0,-249.0,-117.0,-34.0,-27.0,-94.0,-141.0,-942.0,-310.0
-15.0,-250.0,-121.0,-38.0,-28.0,-95.0,-144.0,-941.0,-310.0
-18.0,-249.0,-119.0,-40.0,-31.0,-96.0,-147.0,-947.0,-312.0
-17.0,-248.0,-123.0,-44.0,-34.0,-96.0,-146.0,-947.0,-311.0
-15.0,-250.0,-119.0,-48.0,-38.0,-98.0,-149.0,-951.0,-314.0
-16.0,-253.0,-120.0,-50.0,-44.0,-97.0,-153.0,-957.0,-321.0
-13.0,-255.0,-120.0,-51.0,-52.0,-96.0,-155.0,-956.0,-319.0
-22.0,-250.0,-122.0,-48.0,-59.0,-97.0,-155.0,-959.0,-317.0
-19.0,-251.0,-119.0,-45.0,-66.0,-98.0,-163.0,-964.0,-313.0
-23.0,-251.0,-119.0,-40.0,-73.0,-99.0,-156.0,-963.0,-311.0
-23.0,-254.0,-123.0,-35.0,-80.0,-99.0,-158.0,-967.0,-315.0
-22.0,-254.0,-120.0,-27.0,-87.0,-98.0,-163.0,-957.0,-311.0
-21.0,-251.0,-117.0,-21.0,-95.0,-99.0,-163.0,-958.0,-306.0
-21.0,-250.0,-117.0,-13.0,-102.0,-100.0,-160.0,-961.0,-310.0
-22.0,-252.0,-116.0,-7.0,-107.0,-100.0,-163.0,-957.0,-305.0
-23.0,-249.0,-121.0,-2.0,-112.0,-101.0,-162.0,-949.0,-307.0
-20.0,-247.0,-120.0,4.0,-117.0,-101.0,-165.0,-945.0,-304.0
-22.0,-247.0,-112.0,8.0,-122.0,-104.0,-165.0,-943.0,-299.0
-22.0,-244.0,-115.0,10.0,-126.0,-104.0,-160.0,-941.0,-296.0
-21.0,-243.0,-115.0,13.0,-128.0,-104.0,-162.0,-932.0,-290.0
-19.0,-244.0,-114.0,14.0,-131.0,-104.0,-156.0,-925.0,-291.0
-21.0,-239.0,-120.0,13.0,-132.0,-105.0,-161.0,-920.0,-295.0
-22.0,-241.0,-113.0,12.0,-132.0,-107.0,-159.0,-919.0,-288.0
-19.0,-242.0,-112.0,7.0,-133.0,-109.0,-165.0,-915.0,-285.0
-20.0,-239.0,-116.0,2.0,-134.0,-109.0,-160.0,-916.0,-283.0
-21.0,-240.0,-113.0,-2.0,-134.0,-109.0,-165.0,-914.0,-290.0
-22.0,-239.0,-112.0,-8.0,-134.0,-112.0,-163.0,-919.0,-293.0
-21.0,-242.0,-113.0,-14.0,-134.0,-113.0,-163.0,-909.0,-296.0
-22.0,-236.0,-116.0,-20.0,-133.0,-116.0,-161.0,-913.0,-298.0
-21.0,-240.0,-118.0,-24.0,-130.0,-116.0,-159.0,-914.0,-299.0
-21.0,-240.0,-114.0,-29.0,-127.0,-116.0,-161.0,-914.0,-306.0
-24.0,-240.0,-116.0,-34.0,-123.0,-118.0,-164.0,-914.0,-303.0
-23.0,-237.0,-122.0,-41.0,-118.0,-119.0,-163.0,-921.0,-303.0
-23.0,-241.0,-118.0,-47.0,-113.0,-121.0,-166.0,-924.0,-310.0
-22.0,-242.0,-120.0,-57.0,-110.0,-121.0,-163.0,-926.0,-315.0
-20.0,-248.0,-121.0,-67.0,-108.0,-121.0,-163.0,-932.0,-322.0
-24.0,-247.0,-124.0,-76.0,-107.0,-123.0,-165.0,-944.0,-325.0
-22.0,-248.0,-123.0,-80.0,-109.0,-125.0,-166.0,-947.0,-328.0
-23.0,-249.0,-125.0,-80.0,-114.0,-126.0,-163.0,-949.0,-330.0
-20.0,-251.0,-121.0,-76.0,-120.0,-128.0,-158.0,-961.0,-336.0
-19.0,-255.0,-126.0,-70.0,-130.0,-129.0,-156.0,-964.0,-339.0
-16.0,-251.0,-128.0,-66.0,-139.0,-131.0,-151.0,-963.0,-339.0
-17.0,-253.0,-123.0,-64.0,-149.0,-132.0,-154.0,-969.0,-344.0
-20.0,-255.0,-125.0,-61.0,-157.0,-132.0,-153.0,-956.0,-335.0
-22.0,-253.0,-126.0,-60.0,-165.0,-132.0,-151.0,-958.0,-340.0
-18.0,-251.0,-124.0,-57.0,-174.0,-132.0,-146.0,-958.0,-342.0
-17.0,-248.0,-127.0,-53.0,-184.0,-129.0,-147.0,-951.0,-346.0
-18.0,-250.0,-129.0,-49.0,-194.0,-126.0,-140.0,-953.0,-336.0
-15.0,-251.0,-126.0,-51.0,-204.0,-123.0,-140.0,-954.0,-336.0
-14.0,-252.0,-123.0,-50.0,-215.0,-119.0,-138.0,-955.0,-335.0
-12.0,-251.0,-123.0,-49.0,-225.0,-117.0,-135.0,-958.0,-330.0
-12.0,-249.0,-123.0,-48.0,-236.0,-114.0,-132.0,-959.0,-324.0
-12.0,-253.0,-124.0,-45.0,-245.0,-112.0,-123.0,-958.0,-324.0
-10.0,-254.0,-120.0,-40.0,-254.0,-108.0,-122.0,-963.0,-323.0
-14.0,-257.0,-125.0,-33.0,-260.0,-105.0,-113.0,-960.0,-322.0
-10.0,-252.0,-120.0,-27.0,-270.0,-104.0,-115.0,-958.0,-319.0
-6.0,-253.0,-121.0,-22.0,-275.0,-105.0,-107.0,-956.0,-315.0
-6.0,-255.0,-119.0,-18.0,-283.0,-105.0,-112.0,-951.0,-311.0
-8.0,-250.0,-119.0,-16.0,-289.0,-104.0,-110.0,-945.0,-313.0
-4.0,-248.0,-120.0,-19.0,-294.0,-103.0,-113.0,-943.0,-311.0
-7.0,-248.0,-122.0,-21.0,-297.0,-105.0,-109.0,-934.0,-314.0
-5.0,-245.0,-122.0,-20.0,-300.0,-102.0,-114.0,-930.0,-318.0
-10.0,-246.0,-123.0,-23.0,-309.0,-102.0,-114.0,-928.0,-320.0
-12.0,-241.0,-121.0,-22.0,-317.0,-100.0,-116.0,-923.0,-325.0
-8.0,-239.0,-123.0,-23.0,-326.0,-96.0,-116.0,-914.0,-323.0
-8.0,-238.0,-128.0,-23.0,-330.0,-91.0,-108.0,-905.0,-324.0
-5.0,-230.0,-125.0,-22.0,-329.0,-82.0,-101.0,-886.0,-328.0
-1.0,-229.0,-125.0,-25.0,-323.0,-73.0,-89.0,-873.0,-335.0
1.0,-225.0,-123.0,-28.0,-311.0,-63.0,-73.0,-854.0,-334.0
7.0,-219.0,-127.0,-35.0,-294.0,-53.0,-59.0,-835.0,-335.0
12.0,-214.0,-127.0,-42.0,-272.0,-41.0,-40.0,-816.0,-334.0
19.0,-212.0,-126.0,-55.0,-245.0,-32.0,-29.0,-801.0,-343.0
23.0,-208.0,-127.0,-68.0,-216.0,-26.0,0.0,-782.0,-349.0
28.0,-204.0,-130.0,-84.0,-183.0,-23.0,26.0,-768.0,-360.0
34.0,-201.0,-136.0,-101.0,-150.0,-23.0,37.0,-762.0,-374.0
31.0,-199.0,-135.0,-122.0,-122.0,-24.0,56.0,-759.0,-382.0
40.0,-201.0,-140.0,-142.0,-95.0,-26.0,75.0,-765.0,-395.0
44.0,-204.0,-149.0,-165.0,-71.0,-33.0,85.0,-770.0,-411.0
44.0,-206.0,-146.0,-192.0,-53.0,-38.0,90.0,-785.0,-414.0
46.0,-211.0,-144.0,-222.0,-41.0,-49.0,103.0,-804.0,-423.0
47.0,-222.0,-150.0,-252.0,-36.0,-61.0,100.0,-828.0,-429.0
48.0,-228.0,-150.0,-286.0,-37.0,-72.0,104.0,-859.0,-436.0
51.0,-243.0,-150.0,-321.0,-45.0,-87.0,102.0,-900.0,-440.0
47.0,-254.0,-154.0,-351.0,-57.0,-101.0,106.0,-950.0,-444.0
45.0,-269.0,-150.0,-377.0,-75.0,-117.0,101.0,-1000.0,-444.0
46.0,-278.0,-145.0,-390.0,-105.0,-137.0,109.0,-1053.0,-441.0
45.0,-287.0,-148.0,-391.0,-145.0,-160.0,124.0,-1099.0,-436.0
51.0,-299.0,-147.0,-378.0,-197.0,-182.0,122.0,-1130.0,-426.0
51.0,-306.0,-147.0,-351.0,-257.0,-206.0,134.0,-1162.0,-419.0
49.0,-312.0,-139.0,-317.0,-318.0,-226.0,126.0,-1175.0,-407.0
52.0,-315.0,-139.0,-281.0,-377.0,-247.0,130.0,-1178.0,-385.0
53.0,-309.0,-132.0,-242.0,-433.0,-268.0,123.0,-1175.0,-370.0
52.0,-308.0,-128.0,-206.0,-480.0,-289.0,120.0,-1162.0,-356.0
50.0,-301.0,-123.0,-176.0,-519.0,-312.0,118.0,-1148.0,-335.0
48.0,-299.0,-121.0,-150.0,-548.0,-335.0,124.0,-1137.0,-317.0
50.0,-296.0,-118.0,-127.0,-569.0,-358.0,116.0,-1121.0,-305.0
44.0,-290.0,-115.0,-109.0,-583.0,-379.0,104.0,-1104.0,-292.0
44.0,-285.0,-110.0,-95.0,-595.0,-397.0,102.0,-1086.0,-287.0
43.0,-280.0,-114.0,-79.0,-604.0,-411.0,90.0,-1067.0,-280.0
40.0,-274.0,-111.0,-63.0,-609.0,-420.0,76.0,-1046.0,-271.0
37.0,-268.0,-112.0,-47.0,-616.0,-428.0,70.0,-1026.0,-277.0
36.0,-261.0,-111.0,-34.0,-618.0,-431.0,53.0,-997.0,-275.0
34.0,-256.0,-112.0,-26.0,-619.0,-434.0,49.0,-974.0,-275.0
32.0,-248.0,-109.0,-21.0,-615.0,-435.0,41.0,-950.0,-279.0
28.0,-245.0,-116.0,-23.0,-609.0,-435.0,33.0,-931.0,-285.0
25.0,-236.0,-115.0,-32.0,-603.0,-434.0,14.0,-908.0,-290.0
22.0,-231.0,-118.0,-45.0,-594.0,-431.0,16.0,-882.0,-294.0
18.0,-227.0,-117.0,-62.0,-586.0,-427.0,4.0,-864.0,-295.0
19.0,-225.0,-120.0,-81.0,-574.0,-424.0,-5.0,-854.0,-301.0
16.0,-218.0,-121.0,-101.0,-562.0,-420.0,-1.0,-840.0,-304.0
16.0,-217.0,-121.0,-125.0,-547.0,-414.0,-1.0,-827.0,-307.0
19.0,-221.0,-120.0,-144.0,-526.0,-405.0,-2.0,-827.0,-305.0
18.0,-221.0,-121.0,-162.0,-510.0,-396.0,-4.0,-826.0,-302.0
15.0,-219.0,-117.0,-178.0,-494.0,-388.0,-16.0,-825.0,-305.0
18.0,-219.0,-115.0,-194.0,-481.0,-378.0,-18.0,-821.0,-298.0
15.0,-222.0,-114.0,-207.0,-470.0,-367.0,-16.0,-835.0,-297.0
16.0,-217.0,-116.0,-219.0,-458.0,-360.0,-8.0,-837.0,-293.0
19.0,-220.0,-114.0,-234.0,-449.0,-351.0,-11.0,-841.0,-278.0
19.0,-225.0,-111.0,-241.0,-443.0,-343.0,-2.0,-846.0,-275.0
20.0,-225.0,-111.0,-245.0,-437.0,-332.0,0.0,-846.0,-272.0
23.0,-225.0,-109.0,-247.0,-434.0,-322.0,4.0,-854.0,-268.0
21.0,-226.0,-110.0,-250.0,-432.0,-312.0,11.0,-865.0,-267.0
23.0,-229.0,-114.0,-252.0,-430.0,-304.0,13.0,-865.0,-272.0
26.0,-231.0,-112.0,-251.0,-431.0,-297.0,15.0,-871.0,-273.0
28.0,-234.0,-112.0,-252.0,-431.0,-289.0,21.0,-881.0,-284.0
30.0,-234.0,-118.0,-252.0,-433.0,-283.0,30.0,-885.0,-285.0
31.0,-240.0,-119.0,-249.0,-439.0,-279.0,40.0,-894.0,-296.0
30.0,-240.0,-123.0,-246.0,-441.0,-275.0,46.0,-909.0,-303.0
31.0,-244.0,-117.0,-246.0,-442.0,-271.0,46.0,-918.0,-305.0
30.0,-243.0,-118.0,-248.0,-447.0,-269.0,50.0,-934.0,-310.0
32.0,-251.0,-123.0,-250.0,-452.0,-267.0,46.0,-944.0,-313.0
30.0,-251.0,-121.0,-251.0,-459.0,-264.0,48.0,-952.0,-318.0
29.0,-253.0,-119.0,-249.0,-468.0,-266.0,42.0,-962.0,-320.0
29.0,-255.0,-120.0,-247.0,-477.0,-266.0,43.0,-968.0,-320.0
28.0,-257.0,-121.0,-243.0,-484.0,-264.0,41.0,-983.0,-321.0
25.0,-261.0,-124.0,-237.0,-495.0,-264.0,29.0,-992.0,-320.0
23.0,-259.0,-118.0,-230.0,-506.0,-261.0,17.0,-999.0,-316.0
23.0,-264.0,-122.0,-222.0,-519.0,-261.0,14.0,-999.0,-309.0
18.0,-263.0,-117.0,-214.0,-535.0,-259.0,3.0,-1009.0,-305.0
21.0,-266.0,-114.0,-204.0,-554.0,-258.0,-7.0,-1008.0,-298.0
14.0,-264.0,-116.0,-190.0,-574.0,-253.0,-21.0,-1008.0,-289.0
13.0,-265.0,-110.0,-175.0,-596.0,-249.0,-25.0,-1013.0,-282.0
11.0,-267.0,-108.0,-158.0,-620.0,-245.0,-36.0,-1009.0,-271.0
11.0,-267.0,-107.0,-136.0,-644.0,-241.0,-48.0,-1016.0,-258.0
5.0,-267.0,-106.0,-117.0,-671.0,-235.0,-53.0,-1018.0,-250.0
3.0,-267.0,-104.0,-97.0,-697.0,-230.0,-61.0,-1022.0,-244.0
2.0,-270.0,-101.0,-73.0,-722.0,-225.0,-60.0,-1025.0,-231.0
-2.0,-267.0,-99.0,-51.0,-745.0,-218.0,-74.0,-1031.0,-228.0
0.0,-269.0,-100.0,-30.0,-764.0,-213.0,-74.0,-1026.0,-223.0
3.0,-268.0,-92.0,-10.0,-779.0,-206.0,-75.0,-1028.0,-218.0
0.0,-265.0,-91.0,10.0,-788.0,-198.0,-72.0,-1022.0,-219.0
3.0,-266.0,-100.0,29.0,-793.0,-191.0,-66.0,-1004.0,-213.0
6.0,-262.0,-91.0,45.0,-791.0,-184.0,-60.0,-993.0,-204.0
8.0,-257.0,-93.0,60.0,-788.0,-177.0,-47.0,-981.0,-212.0
13.0,-257.0,-100.0,73.0,-779.0,-166.0,-37.0,-972.0,-214.0
12.0,-252.0,-101.0,84.0,-767.0,-156.0,-28.0,-964.0,-220.0
16.0,-251.0,-100.0,89.0,-751.0,-147.0,-12.0,-959.0,-222.0
19.0,-253.0,-97.0,88.0,-734.0,-139.0,-7.0,-949.0,-226.0
23.0,-251.0,-100.0,87.0,-721.0,-130.0,-1.0,-953.0,-233.0
24.0,-251.0,-101.0,84.0,-707.0,-124.0,7.0,-952.0,-239.0
25.0,-249.0,-103.0,82.0,-696.0,-118.0,14.0,-951.0,-242.0
24.0,-254.0,-108.0,79.0,-687.0,-116.0,20.0,-959.0,-248.0
29.0,-258.0,-105.0,75.0,-681.0,-115.0,24.0,-961.0,-251.0
27.0,-251.0,-105.0,72.0,-675.0,-114.0,31.0,-962.0,-257.0
31.0,-254.0,-104.0,68.0,-671.0,-115.0,31.0,-965.0,-264.0
26.0,-252.0,-108.0,61.0,-670.0,-116.0,34.0,-964.0,-272.0
28.0,-256.0,-114.0,50.0,-670.0,-116.0,24.0,-968.0,-281.0
29.0,-254.0,-116.0,38.0,-673.0,-117.0,34.0,-973.0,-291.0
30.0,-256.0,-118.0,23.0,-681.0,-121.0,38.0,-972.0,-304.0
29.0,-257.0,-125.0,10.0,-692.0,-127.0,51.0,-977.0,-321.0
38.0,-256.0,-128.0,-5.0,-704.0,-134.0,59.0,-973.0,-338.0
37.0,-253.0,-136.0,-25.0,-712.0,-139.0,61.0,-967.0,-378.0
38.0,-255.0,-146.0,-50.0,-716.0,-140.0,65.0,-967.0,-417.0
43.0,-253.0,-168.0,-86.0,-719.0,-145.0,73.0,-978.0,-475.0
41.0,-259.0,-171.0,-132.0,-730.0,-151.0,76.0,-983.0,-534.0
37.0,-263.0,-187.0,-178.0,-754.0,-158.0,76.0,-1000.0,-580.0
38.0,-269.0,-196.0,-206.0,-788.0,-170.0,72.0,-1022.0,-627.0
35.0,-275.0,-209.0,-200.0,-832.0,-189.0,72.0,-1043.0,-667.0
35.0,-279.0,-214.0,-155.0,-886.0,-214.0,67.0,-1056.0,-691.0
33.0,-279.0,-221.0,-90.0,-947.0,-242.0,56.0,-1050.0,-712.0
26.0,-271.0,-216.0,-31.0,-1013.0,-268.0,39.0,-1026.0,-721.0
17.0,-263.0,-221.0,13.0,-1068.0,-293.0,15.0,-993.0,-713.0
19.0,-255.0,-216.0,43.0,-1095.0,-317.0,-2.0,-956.0,-689.0
16.0,-237.0,-207.0,53.0,-1092.0,-336.0,-25.0,-912.0,-671.0
11.0,-226.0,-200.0,54.0,-1059.0,-351.0,-40.0,-865.0,-640.0
2.0,-220.0,-194.0,40.0,-1010.0,-360.0,-68.0,-828.0,-614.0
-2.0,-213.0,-189.0,15.0,-959.0,-365.0,-99.0,-807.0,-585.0
-14.0,-207.0,-179.0,-16.0,-919.0,-367.0,-126.0,-790.0,-554.0
-16.0,-208.0,-169.0,-44.0,-895.0,-366.0,-145.0,-788.0,-519.0
-24.0,-205.0,-163.0,-69.0,-888.0,-363.0,-167.0,-789.0,-491.0
-27.0,-209.0,-152.0,-83.0,-889.0,-360.0,-172.0,-791.0,-466.0
-26.0,-210.0,-143.0,-91.0,-894.0,-359.0,-182.0,-796.0,-441.0
-31.0,-210.0,-150.0,-90.0,-896.0,-357.0,-191.0,-785.0,-418.0
-26.0,-207.0,-142.0,-87.0,-893.0,-352.0,-195.0,-774.0,-402.0
-29.0,-201.0,-144.0,-81.0,-883.0,-346.0,-194.0,-757.0,-390.0
-25.0,-195.0,-133.0,-80.0,-867.0,-337.0,-184.0,-733.0,-380.0
-24.0,-188.0,-131.0,-88.0,-848.0,-326.0,-178.0,-708.0,-374.0
-22.0,-180.0,-133.0,-110.0,-820.0,-314.0,-168.0,-690.0,-371.0
-13.0,-177.0,-133.0,-142.0,-787.0,-297.0,-149.0,-676.0,-372.0
-4.0,-177.0,-133.0,-188.0,-749.0,-281.0,-112.0,-664.0,-369.0
0.0,-179.0,-134.0,-240.0,-703.0,-260.0,-92.0,-676.0,-371.0
8.0,-184.0,-136.0,-296.0,-653.0,-239.0,-53.0,-710.0,-379.0
16.0,-198.0,-141.0,-355.0,-604.0,-215.0,-21.0,-753.0,-377.0
20.0,-215.0,-138.0,-402.0,-561.0,-187.0,0.0,-798.0,-392.0
30.0,-228.0,-144.0,-438.0,-525.0,-158.0,20.0,-858.0,-412.0
32.0,-246.0,-149.0,-452.0,-494.0,-130.0,38.0,-924.0,-439.0
33.0,-260.0,-157.0,-446.0,-463.0,-106.0,48.0,-969.0,-475.0
31.0,-274.0,-163.0,-428.0,-431.0,-86.0,39.0,-1027.0,-502.0
28.0,-283.0,-173.0,-395.0,-403.0,-74.0,29.0,-1075.0,-523.0
22.0,-287.0,-182.0,-360.0,-378.0,-66.0,12.0,-1101.0,-549.0
16.0,-295.0,-181.0,-328.0,-360.0,-66.0,-11.0,-1120.0,-564.0
13.0,-297.0,-184.0,-301.0,-348.0,-72.0,-27.0,-1129.0,-561.0
8.0,-299.0,-182.0,-278.0,-338.0,-81.0,-50.0,-1128.0,-560.0
2.0,-294.0,-179.0,-250.0,-330.0,-90.0,-72.0,-1123.0,-547.0
1.0,-289.0,-169.0,-220.0,-326.0,-102.0,-83.0,-1100.0,-533.0
-4.0,-279.0,-172.0,-187.0,-325.0,-113.0,-104.0,-1071.0,-505.0
-16.0,-275.0,-159.0,-153.0,-327.0,-119.0,-115.0,-1032.0,-482.0
-11.0,-263.0,-153.0,-124.0,-338.0,-125.0,-121.0,-1006.0,-448.0
-15.0,-259.0,-146.0,-100.0,-358.0,-126.0,-133.0,-984.0,-413.0
-17.0,-252.0,-135.0,-81.0,-391.0,-127.0,-141.0,-956.0,-396.0
-18.0,-248.0,-133.0,-68.0,-431.0,-125.0,-141.0,-934.0,-378.0
-18.0,-240.0,-129.0,-59.0,-477.0,-118.0,-146.0,-917.0,-364.0
-18.0,-236.0,-130.0,-51.0,-522.0,-111.0,-155.0,-905.0,-365.0
-21.0,-231.0,-128.0,-47.0,-566.0,-103.0,-161.0,-882.0,-358.0
-23.0,-227.0,-126.0,-47.0,-607.0,-96.0,-164.0,-866.0,-354.0
-24.0,-226.0,-128.0,-46.0,-644.0,-88.0,-173.0,-860.0,-346.0
-27.0,-228.0,-131.0,-44.0,-674.0,-85.0,-174.0,-858.0,-344.0
-22.0,-229.0,-123.0,-47.0,-700.0,-83.0,-170.0,-853.0,-338.0
-22.0,-226.0,-126.0,-52.0,-720.0,-83.0,-170.0,-862.0,-337.0
-20.0,-227.0,-123.0,-59.0,-729.0,-84.0,-159.0,-863.0,-331.0
-18.0,-229.0,-127.0,-70.0,-728.0,-88.0,-147.0,-865.0,-331.0
-13.0,-227.0,-124.0,-85.0,-712.0,-93.0,-136.0,-864.0,-323.0
-11.0,-228.0,-122.0,-98.0,-688.0,-98.0,-135.0,-860.0,-325.0
-4.0,-226.0,-120.0,-112.0,-653.0,-105.0,-114.0,-849.0,-318.0
-3.0,-219.0,-123.0,-126.0,-610.0,-114.0,-110.0,-842.0,-316.0
-1.0,-222.0,-124.0,-140.0,-564.0,-123.0,-98.0,-831.0,-315.0
-1.0,-220.0,-124.0,-158.0,-515.0,-133.0,-92.0,-831.0,-322.0
3.0,-224.0,-125.0,-177.0,-464.0,-145.0,-86.0,-829.0,-320.0
3.0,-218.0,-123.0,-195.0,-416.0,-154.0,-77.0,-827.0,-317.0
2.0,-219.0,-123.0,-213.0,-375.0,-161.0,-77.0,-828.0,-323.0
2.0,-221.0,-127.0,-227.0,-340.0,-166.0,-74.0,-836.0,-339.0
0.0,-225.0,-132.0,-237.0,-313.0,-171.0,-75.0,-857.0,-344.0
3.0,-229.0,-133.0,-242.0,-290.0,-174.0,-84.0,-863.0,-363.0
1.0,-231.0,-130.0,-245.0,-273.0,-177.0,-80.0,-880.0,-372.0
0.0,-236.0,-139.0,-244.0,-255.0,-178.0,-85.0,-906.0,-379.0
-1.0,-240.0,-136.0,-241.0,-239.0,-181.0,-92.0,-920.0,-394.0
-1.0,-246.0,-140.0,-236.0,-222.0,-180.0,-92.0,-933.0,-410.0
0.0,-249.0,-141.0,-229.0,-205.0,-181.0,-91.0,-946.0,-413.0
-1.0,-250.0,-143.0,-221.0,-189.0,-179.0,-88.0,-962.0,-418.0
-9.0,-257.0,-141.0,-211.0,-176.0,-177.0,-83.0,-969.0,-416.0
0.0,-256.0,-149.0,-198.0,-166.0,-174.0,-73.0,-971.0,-418.0
1.0,-258.0,-146.0,-183.0,-157.0,-174.0,-72.0,-976.0,-416.0
1.0,-259.0,-145.0,-168.0,-149.0,-171.0,-67.0,-980.0,-416.0
3.0,-257.0,-143.0,-149.0,-143.0,-169.0,-66.0,-978.0,-400.0
6.0,-260.0,-139.0,-131.0,-139.0,-167.0,-65.0,-980.0,-394.0
6.0,-256.0,-137.0,-116.0,-135.0,-168.0,-61.0,-974.0,-387.0
5.0,-255.0,-130.0,-100.0,-131.0,-169.0,-60.0,-978.0,-377.0
5.0,-257.0,-131.0,-85.0,-127.0,-171.0,-59.0,-981.0,-369.0
9.0,-256.0,-128.0,-76.0,-120.0,-171.0,-53.0,-978.0,-355.0
9.0,-258.0,-132.0,-67.0,-109.0,-172.0,-44.0,-970.0,-342.0
8.0,-256.0,-124.0,-59.0,-94.0,-174.0,-40.0,-971.0,-336.0
10.0,-255.0,-123.0,-49.0,-76.0,-174.0,-41.0,-970.0,-326.0
12.0,-252.0,-123.0,-40.0,-54.0,-174.0,-37.0,-965.0,-322.0
12.0,-253.0,-121.0,-27.0,-30.0,-173.0,-32.0,-958.0,-312.0
16.0,-252.0,-121.0,-18.0,-6.0,-170.0,-25.0,-954.0,-310.0
14.0,-251.0,-116.0,-9.0,17.0,-169.0,-18.0,-948.0,-308.0
18.0,-251.0,-118.0,1.0,43.0,-167.0,-9.0,-948.0,-299.0
20.0,-251.0,-114.0,12.0,67.0,-164.0,-12.0,-941.0,-300.0
22.0,-245.0,-117.0,18.0,91.0,-162.0,-6.0,-936.0,-296.0
19.0,-248.0,-115.0,18.0,116.0,-159.0,-1.0,-939.0,-301.0
25.0,-246.0,-116.0,14.0,139.0,-160.0,-5.0,-931.0,-304.0
19.0,-243.0,-117.0,12.0,160.0,-161.0,-9.0,-938.0,-301.0
18.0,-250.0,-120.0,9.0,178.0,-163.0,-9.0,-938.0,-302.0
17.0,-250.0,-118.0,10.0,193.0,-166.0,-17.0,-944.0,-305.0
13.0,-247.0,-118.0,11.0,207.0,-171.0,-25.0,-942.0,-304.0
14.0,-251.0,-118.0,13.0,216.0,-174.0,-32.0,-949.0,-301.0
9.0,-249.0,-121.0,19.0,225.0,-177.0,-37.0,-952.0,-300.0
12.0,-250.0,-114.0,22.0,236.0,-181.0,-46.0,-951.0,-298.0
4.0,-254.0,-118.0,29.0,246.0,-182.0,-55.0,-951.0,-300.0
2.0,-252.0,-110.0,39.0,256.0,-184.0,-65.0,-953.0,-296.0
2.0,-253.0,-115.0,49.0,263.0,-186.0,-73.0,-957.0,-293.0
-1.0,-252.0,-115.0,60.0,270.0,-186.0,-88.0,-958.0,-294.0
-3.0,-250.0,-116.0,73.0,280.0,-183.0,-94.0,-952.0,-302.0
-2.0,-249.0,-121.0,82.0,290.0,-182.0,-93.0,-946.0,-307.0
-4.0,-250.0,-123.0,86.0,301.0,-181.0,-107.0,-941.0,-322.0
-10.0,-249.0,-125.0,89.0,311.0,-176.0,-119.0,-938.0,-328.0
-14.0,-247.0,-125.0,90.0,318.0,-172.0,-130.0,-937.0,-332.0
-15.0,-247.0,-126.0,93.0,320.0,-169.0,-139.0,-940.0,-346.0
-20.0,-250.0,-131.0,95.0,318.0,-161.0,-157.0,-945.0,-352.0
-22.0,-248.0,-131.0,92.0,317.0,-152.0,-168.0,-945.0,-368.0
-25.0,-245.0,-134.0,79.0,320.0,-141.0,-171.0,-945.0,-379.0
-21.0,-249.0,-140.0,63.0,330.0,-128.0,-168.0,-943.0,-390.0
-19.0,-244.0,-146.0,42.0,350.0,-111.0,-162.0,-944.0,-419.0
-17.0,-246.0,-146.0,20.0,373.0,-93.0,-155.0,-947.0,-428.0
-14.0,-252.0,-150.0,-1.0,401.0,-75.0,-138.0,-954.0,-442.0
-10.0,-256.0,-149.0,-14.0,428.0,-56.0,-118.0,-969.0,-445.0
-3.0,-258.0,-148.0,-17.0,455.0,-39.0,-104.0,-986.0,-442.0
0.0,-261.0,-153.0,-19.0,483.0,-21.0,-82.0,-997.0,-444.0
0.0,-260.0,-157.0,-12.0,510.0,-5.0,-70.0,-995.0,-454.0
2.0,-257.0,-160.0,-12.0,541.0,12.0,-62.0,-978.0,-465.0
10.0,-251.0,-160.0,-22.0,575.0,29.0,-52.0,-959.0,-481.0
10.0,-247.0,-161.0,-39.0,606.0,43.0,-45.0,-936.0,-496.0
1.0,-242.0,-175.0,-55.0,622.0,55.0,-57.0,-923.0,-508.0
1.0,-238.0,-172.0,-67.0,615.0,65.0,-66.0,-911.0,-507.0
-2.0,-243.0,-168.0,-68.0,581.0,76.0,-67.0,-915.0,-509.0
0.0,-241.0,-169.0,-63.0,533.0,86.0,-69.0,-921.0,-505.0
0.0,-243.0,-170.0,-60.0,483.0,99.0,-87.0,-916.0,-507.0
0.0,-239.0,-166.0,-60.0,444.0,114.0,-83.0,-892.0,-510.0
0.0,-233.0,-165.0,-63.0,421.0,133.0,-84.0,-876.0,-502.0
1.0,-228.0,-167.0,-63.0,418.0,153.0,-67.0,-850.0,-498.0
5.0,-216.0,-164.0,-57.0,434.0,173.0,-49.0,-814.0,-492.0
16.0,-205.0,-163.0,-48.0,466.0,196.0,-32.0,-772.0,-483.0
19.0,-194.0,-168.0,-43.0,513.0,218.0,-10.0,-730.0,-488.0
22.0,-182.0,-164.0,-53.0,571.0,235.0,10.0,-696.0,-497.0
29.0,-177.0,-172.0,-84.0,632.0,249.0,35.0,-664.0,-514.0
36.0,-174.0,-171.0,-135.0,684.0,258.0,64.0,-655.0,-518.0
44.0,-172.0,-179.0,-195.0,723.0,263.0,88.0,-657.0,-543.0
50.0,-180.0,-181.0,-267.0,747.0,263.0,119.0,-670.0,-552.0
59.0,-188.0,-176.0,-311.0,754.0,257.0,146.0,-702.0,-558.0
61.0,-196.0,-184.0,-336.0,754.0,247.0,159.0,-737.0,-569.0
63.0,-207.0,-182.0,-346.0,745.0,232.0,171.0,-771.0,-570.0
64.0,-214.0,-176.0,-340.0,730.0,215.0,170.0,-801.0,-557.0
58.0,-220.0,-180.0,-330.0,712.0,198.0,161.0,-828.0,-548.0
55.0,-226.0,-178.0,-315.0,681.0,183.0,141.0,-850.0,-523.0
53.0,-229.0,-163.0,-305.0,641.0,167.0,130.0,-868.0,-503.0
51.0,-235.0,-162.0,-299.0,596.0,154.0,119.0,-887.0,-485.0
48.0,-245.0,-156.0,-301.0,547.0,143.0,114.0,-917.0,-474.0
47.0,-251.0,-157.0,-310.0,494.0,136.0,110.0,-946.0,-460.0
48.0,-257.0,-152.0,-316.0,436.0,129.0,118.0,-974.0,-454.0
47.0,-267.0,-151.0,-326.0,378.0,122.0,119.0,-1016.0,-454.0
52.0,-279.0,-152.0,-337.0,321.0,118.0,124.0,-1062.0,-454.0
56.0,-287.0,-156.0,-343.0,267.0,112.0,147.0,-1093.0,-460.0
61.0,-296.0,-155.0,-348.0,217.0,104.0,168.0,-1124.0,-463.0
64.0,-299.0,-161.0,-340.0,170.0,94.0,185.0,-1149.0,-470.0
70.0,-308.0,-159.0,-317.0,127.0,80.0,203.0,-1166.0,-472.0
74.0,-310.0,-157.0,-278.0,85.0,64.0,222.0,-1169.0,-467.0
80.0,-308.0,-160.0,-225.0,44.0,48.0,223.0,-1165.0,-472.0
78.0,-304.0,-159.0,-163.0,15.0,30.0,234.0,-1143.0,-475.0
78.0,-297.0,-157.0,-106.0,0.0,16.0,229.0,-1122.0,-471.0
74.0,-287.0,-161.0,-63.0,5.0,4.0,207.0,-1083.0,-475.0
72.0,-278.0,-162.0,-35.0,25.0,-7.0,191.0,-1058.0,-463.0
67.0,-271.0,-158.0,-24.0,51.0,-18.0,190.0,-1021.0,-460.0
64.0,-259.0,-153.0,-15.0,79.0,-24.0,181.0,-989.0,-451.0
65.0,-253.0,-149.0,-8.0,107.0,-28.0,178.0,-960.0,-439.0
67.0,-248.0,-151.0,0.0,133.0,-26.0,183.0,-942.0,-432.0
63.0,-240.0,-144.0,6.0,159.0,-20.0,180.0,-915.0,-429.0
69.0,-235.0,-145.0,7.0,183.0,-10.0,179.0,-883.0,-423.0
65.0,-228.0,-147.0,5.0,202.0,-1.0,178.0,-855.0,-423.0
66.0,-224.0,-146.0,-2.0,221.0,9.0,177.0,-839.0,-430.0
64.0,-219.0,-149.0,-12.0,234.0,18.0,171.0,-821.0,-429.0
64.0,-213.0,-148.0,-22.0,246.0,28.0,165.0,-814.0,-426.0
63.0,-214.0,-150.0,-31.0,258.0,37.0,159.0,-801.0,-428.0
57.0,-209.0,-145.0,-40.0,263.0,49.0,148.0,-797.0,-421.0
56.0,-208.0,-143.0,-51.0,264.0,56.0,138.0,-794.0,-417.0
56.0,-210.0,-147.0,-60.0,264.0,67.0,127.0,-791.0,-416.0
55.0,-204.0,-140.0,-68.0,260.0,75.0,129.0,-789.0,-405.0
51.0,-207.0,-141.0,-74.0,258.0,82.0,118.0,-786.0,-402.0
52.0,-203.0,-132.0,-78.0,253.0,89.0,107.0,-790.0,-390.0
50.0,-211.0,-139.0,-80.0,246.0,91.0,105.0,-790.0,-379.0
45.0,-209.0,-137.0,-80.0,236.0,91.0,100.0,-795.0,-382.0
43.0,-211.0,-132.0,-78.0,224.0,92.0,93.0,-798.0,-373.0
43.0,-213.0,-133.0,-74.0,210.0,90.0,90.0,-812.0,-375.0
39.0,-218.0,-136.0,-69.0,195.0,88.0,77.0,-821.0,-374.0
38.0,-221.0,-134.0,-65.0,175.0,84.0,73.0,-831.0,-374.0
34.0,-224.0,-135.0,-64.0,150.0,78.0,65.0,-846.0,-375.0
30.0,-228.0,-133.0,-55.0,119.0,70.0,55.0,-864.0,-381.0
29.0,-235.0,-138.0,-43.0,84.0,68.0,38.0,-885.0,-384.0
27.0,-239.0,-142.0,-27.0,49.0,63.0,28.0,-898.0,-391.0
22.0,-241.0,-140.0,-8.0,12.0,59.0,12.0,-919.0,-400.0
16.0,-243.0,-146.0,10.0,-24.0,58.0,5.0,-926.0,-404.0
17.0,-248.0,-142.0,29.0,-57.0,61.0,-8.0,-931.0,-417.0
15.0,-246.0,-148.0,48.0,-89.0,63.0,-5.0,-930.0,-425.0
18.0,-246.0,-147.0,68.0,-120.0,69.0,-23.0,-924.0,-431.0
12.0,-241.0,-148.0,84.0,-143.0,80.0,-34.0,-919.0,-433.0
10.0,-240.0,-149.0,97.0,-166.0,94.0,-21.0,-912.0,-438.0
12.0,-240.0,-153.0,107.0,-187.0,110.0,-29.0,-903.0,-446.0
14.0,-239.0,-151.0,113.0,-207.0,123.0,-20.0,-893.0,-447.0
18.0,-235.0,-152.0,114.0,-228.0,141.0,-13.0,-902.0,-454.0
20.0,-237.0,-155.0,115.0,-244.0,160.0,-4.0,-893.0,-459.0
21.0,-237.0,-157.0,115.0,-258.0,177.0,3.0,-890.0,-462.0
24.0,-234.0,-160.0,110.0,-266.0,193.0,14.0,-889.0,-469.0
25.0,-237.0,-158.0,103.0,-268.0,205.0,23.0,-884.0,-478.0
26.0,-233.0,-163.0,95.0,-265.0,211.0,28.0,-880.0,-482.0
27.0,-233.0,-160.0,89.0,-258.0,219.0,26.0,-876.0,-493.0
27.0,-231.0,-164.0,81.0,-244.0,222.0,29.0,-875.0,-491.0
29.0,-235.0,-164.0,72.0,-230.0,223.0,35.0,-873.0,-496.0
28.0,-229.0,-164.0,66.0,-218.0,217.0,40.0,-877.0,-501.0
25.0,-232.0,-166.0,65.0,-213.0,205.0,30.0,-865.0,-504.0
26.0,-227.0,-169.0,70.0,-219.0,189.0,37.0,-866.0,-505.0
29.0,-230.0,-166.0,82.0,-235.0,170.0,41.0,-853.0,-509.0
29.0,-224.0,-162.0,92.0,-257.0,148.0,32.0,-845.0,-519.0
26.0,-216.0,-167.0,100.0,-282.0,124.0,25.0,-831.0,-517.0
24.0,-218.0,-172.0,99.0,-311.0,100.0,18.0,-819.0,-530.0
17.0,-213.0,-170.0,96.0,-347.0,76.0,12.0,-809.0,-528.0
20.0,-212.0,-172.0,95.0,-381.0,56.0,4.0,-803.0,-533.0
15.0,-207.0,-172.0,95.0,-418.0,35.0,-14.0,-786.0,-520.0
15.0,-201.0,-169.0,99.0,-446.0,17.0,-19.0,-766.0,-519.0
14.0,-199.0,-171.0,102.0,-465.0,3.0,-26.0,-748.0,-508.0
9.0,-190.0,-169.0,101.0,-473.0,-6.0,-28.0,-721.0,-509.0
15.0,-185.0,-167.0,100.0,-473.0,-14.0,-31.0,-697.0,-503.0
15.0,-184.0,-166.0,93.0,-468.0,-18.0,-32.0,-685.0,-506.0
7.0,-183.0,-167.0,77.0,-459.0,-21.0,-37.0,-666.0,-500.0
8.0,-179.0,-173.0,54.0,-449.0,-21.0,-39.0,-659.0,-507.0
8.0,-174.0,-171.0,20.0,-441.0,-18.0,-34.0,-651.0,-525.0
4.0,-173.0,-174.0,-22.0,-436.0,-14.0,-45.0,-652.0,-549.0
2.0,-179.0,-183.0,-68.0,-433.0,-9.0,-55.0,-672.0,-571.0
0.0,-187.0,-186.0,-112.0,-433.0,-4.0,-65.0,-711.0,-566.0
0.0,-195.0,-186.0,-150.0,-435.0,2.0,-75.0,-753.0,-573.0
0.0,-212.0,-182.0,-180.0,-431.0,12.0,-81.0,-809.0,-575.0
0.0,-227.0,-185.0,-203.0,-416.0,26.0,-91.0,-870.0,-572.0
1.0,-244.0,-179.0,-217.0,-384.0,40.0,-89.0,-926.0,-570.0
0.0,-256.0,-181.0,-220.0,-334.0,54.0,-92.0,-988.0,-555.0
1.0,-270.0,-179.0,-209.0,-269.0,71.0,-92.0,-1041.0,-549.0
1.0,-288.0,-175.0,-181.0,-193.0,88.0,-95.0,-1102.0,-538.0
-5.0,-302.0,-172.0,-138.0,-120.0,105.0,-104.0,-1142.0,-506.0
-4.0,-307.0,-163.0,-95.0,-60.0,122.0,-101.0,-1173.0,-490.0
-3.0,-312.0,-161.0,-49.0,-18.0,139.0,-97.0,-1184.0,-475.0
0.0,-315.0,-150.0,-6.0,3.0,157.0,-83.0,-1195.0,-457.0
-1.0,-315.0,-156.0,32.0,9.0,178.0,-90.0,-1192.0,-441.0
-3.0,-311.0,-150.0,64.0,3.0,198.0,-85.0,-1188.0,-435.0
-1.0,-312.0,-150.0,93.0,-10.0,219.0,-89.0,-1183.0,-428.0
-1.0,-308.0,-140.0,120.0,-29.0,239.0,-83.0,-1163.0,-419.0
2.0,-300.0,-140.0,146.0,-52.0,258.0,-84.0,-1152.0,-413.0
0.0,-300.0,-146.0,177.0,-76.0,273.0,-73.0,-1133.0,-410.0
0.0,-291.0,-142.0,206.0,-98.0,284.0,-72.0,-1115.0,-408.0
0.0,-286.0,-143.0,237.0,-118.0,293.0,-67.0,-1082.0,-408.0
4.0,-275.0,-141.0,264.0,-133.0,301.0,-64.0,-1053.0,-409.0
1.0,-267.0,-141.0,290.0,-148.0,303.0,-71.0,-1016.0,-416.0
1.0,-255.0,-145.0,308.0,-167.0,304.0,-68.0,-976.0,-423.0
3.0,-248.0,-146.0,317.0,-190.0,301.0,-58.0,-937.0,-429.0
6.0,-233.0,-147.0,315.0,-218.0,298.0,-63.0,-898.0,-438.0
3.0,-223.0,-153.0,302.0,-244.0,295.0,-63.0,-851.0,-441.0
0.0,-215.0,-151.0,270.0,-269.0,296.0,-67.0,-814.0,-451.0
-2.0,-198.0,-160.0,228.0,-291.0,297.0,-85.0,-781.0,-452.0
-5.0,-197.0,-155.0,177.0,-312.0,296.0,-100.0,-759.0,-460.0
-7.0,-194.0,-154.0,121.0,-335.0,294.0,-113.0,-745.0,-458.0
-12.0,-193.0,-155.0,63.0,-364.0,292.0,-115.0,-737.0,-461.0
-11.0,-196.0,-153.0,3.0,-395.0,287.0,-125.0,-737.0,-457.0
-14.0,-199.0,-156.0,-53.0,-422.0,280.0,-131.0,-771.0,-457.0
-14.0,-209.0,-153.0,-107.0,-444.0,275.0,-140.0,-794.0,-458.0
-18.0,-218.0,-153.0,-150.0,-452.0,267.0,-151.0,-830.0,-462.0
-18.0,-226.0,-155.0,-180.0,-451.0,259.0,-159.0,-873.0,-456.0
-19.0,-238.0,-155.0,-198.0,-442.0,251.0,-161.0,-914.0,-446.0
-22.0,-245.0,-149.0,-198.0,-429.0,244.0,-158.0,-952.0,-440.0
-26.0,-257.0,-134.0,-183.0,-416.0,240.0,-165.0,-984.0,-420.0
-24.0,-267.0,-142.0,-154.0,-405.0,243.0,-167.0,-1006.0,-413.0
-22.0,-268.0,-137.0,-113.0,-402.0,250.0,-165.0,-1022.0,-400.0
-24.0,-272.0,-139.0,-65.0,-396.0,259.0,-171.0,-1034.0,-394.0
-24.0,-272.0,-137.0,-15.0,-394.0,270.0,-173.0,-1042.0,-383.0
-29.0,-275.0,-138.0,35.0,-394.0,287.0,-184.0,-1039.0,-382.0
-29.0,-270.0,-135.0,76.0,-392.0,304.0,-195.0,-1047.0,-379.0
-31.0,-276.0,-136.0,103.0,-388.0,325.0,-197.0,-1057.0,-373.0
-32.0,-275.0,-132.0,125.0,-384.0,342.0,-208.0,-1055.0,-369.0
-39.0,-279.0,-131.0,146.0,-382.0,355.0,-215.0,-1063.0,-364.0
-35.0,-282.0,-128.0,171.0,-380.0,363.0,-219.0,-1074.0,-352.0
-28.0,-283.0,-130.0,196.0,-379.0,372.0,-216.0,-1083.0,-350.0
-38.0,-286.0,-128.0,213.0,-379.0,375.0,-216.0,-1089.0,-338.0
-34.0,-287.0,-125.0,232.0,-383.0,375.0,-216.0,-1102.0,-341.0
-36.0,-289.0,-127.0,249.0,-392.0,370.0,-226.0,-1098.0,-337.0
-36.0,-290.0,-127.0,260.0,-402.0,372.0,-214.0,-1104.0,-342.0
-34.0,-291.0,-127.0,274.0,-414.0,370.0,-214.0,-1114.0,-351.0
-38.0,-291.0,-130.0,286.0,-427.0,362.0,-218.0,-1116.0,-345.0
-35.0,-293.0,-130.0,300.0,-437.0,360.0,-210.0,-1115.0,-346.0
-35.0,-293.0,-130.0,312.0,-451.0,356.0,-208.0,-1110.0,-349.0
-30.0,-291.0,-131.0,313.0,-465.0,357.0,-202.0,-1101.0,-354.0
-36.0,-278.0,-130.0,306.0,-482.0,358.0,-197.0,-1090.0,-352.0
-32.0,-283.0,-130.0,294.0,-496.0,359.0,-202.0,-1079.0,-354.0
-33.0,-274.0,-133.0,279.0,-508.0,366.0,-189.0,-1069.0,-360.0
-30.0,-272.0,-133.0,268.0,-521.0,372.0,-192.0,-1052.0,-364.0
-31.0,-269.0,-133.0,259.0,-535.0,376.0,-199.0,-1024.0,-367.0
-30.0,-263.0,-133.0,259.0,-547.0,379.0,-188.0,-1005.0,-373.0
-29.0,-257.0,-130.0,273.0,-559.0,383.0,-202.0,-984.0,-367.0
-31.0,-255.0,-129.0,299.0,-568.0,383.0,-187.0,-962.0,-360.0
-33.0,-244.0,-128.0,330.0,-576.0,378.0,-196.0,-940.0,-344.0
-34.0,-244.0,-125.0,360.0,-589.0,373.0,-189.0,-924.0,-339.0
-29.0,-237.0,-123.0,383.0,-602.0,371.0,-176.0,-914.0,-336.0
-28.0,-237.0,-123.0,394.0,-615.0,368.0,-169.0,-910.0,-332.0
-23.0,-241.0,-122.0,394.0,-627.0,366.0,-174.0,-888.0,-321.0
-26.0,-234.0,-120.0,391.0,-635.0,367.0,-176.0,-886.0,-310.0
-25.0,-228.0,-119.0,388.0,-640.0,373.0,-176.0,-878.0,-304.0
-27.0,-228.0,-114.0,384.0,-639.0,380.0,-180.0,-866.0,-299.0
-30.0,-222.0,-113.0,376.0,-633.0,385.0,-188.0,-856.0,-294.0
-28.0,-222.0,-107.0,362.0,-625.0,385.0,-190.0,-843.0,-277.0
-35.0,-214.0,-110.0,347.0,-616.0,385.0,-197.0,-827.0,-267.0
-34.0,-212.0,-114.0,330.0,-608.0,384.0,-202.0,-817.0,-260.0
-31.0,-208.0,-98.0,309.0,-599.0,381.0,-200.0,-803.0,-255.0
-30.0,-211.0,-106.0,287.0,-592.0,375.0,-208.0,-790.0,-249.0
-33.0,-201.0,-99.0,272.0,-583.0,370.0,-208.0,-776.0,-243.0
-34.0,-204.0,-108.0,262.0,-574.0,367.0,-207.0,-775.0,-241.0
-34.0,-204.0,-100.0,254.0,-565.0,361.0,-211.0,-769.0,-243.0
-36.0,-201.0,-100.0,252.0,-560.0,355.0,-213.0,-773.0,-241.0
-34.0,-201.0,-103.0,246.0,-554.0,349.0,-211.0,-761.0,-242.0
-35.0,-200.0,-99.0,248.0,-551.0,343.0,-214.0,-757.0,-241.0
-39.0,-197.0,-106.0,248.0,-550.0,339.0,-223.0,-752.0,-253.0
-38.0,-193.0,-105.0,243.0,-551.0,333.0,-225.0,-740.0,-249.0
-40.0,-194.0,-103.0,234.0,-550.0,319.0,-238.0,-735.0,-256.0
-40.0,-195.0,-106.0,219.0,-548.0,301.0,-234.0,-740.0,-251.0
-39.0,-202.0,-97.0,197.0,-543.0,277.0,-244.0,-743.0,-234.0
-45.0,-195.0,-94.0,171.0,-533.0,253.0,-249.0,-752.0,-224.0
-49.0,-199.0,-92.0,148.0,-518.0,229.0,-264.0,-758.0,-213.0
-50.0,-203.0,-90.0,127.0,-500.0,211.0,-266.0,-771.0,-200.0
-46.0,-208.0,-87.0,117.0,-481.0,195.0,-270.0,-789.0,-188.0
-49.0,-210.0,-82.0,114.0,-462.0,183.0,-271.0,-791.0,-180.0
-50.0,-210.0,-83.0,116.0,-444.0,175.0,-270.0,-801.0,-169.0
-45.0,-213.0,-85.0,125.0,-426.0,167.0,-273.0,-809.0,-165.0
-46.0,-215.0,-85.0,134.0,-407.0,165.0,-264.0,-821.0,-169.0
-42.0,-219.0,-77.0,139.0,-387.0,163.0,-252.0,-830.0,-169.0
-39.0,-227.0,-78.0,147.0,-367.0,162.0,-235.0,-845.0,-160.0
-37.0,-229.0,-80.0,153.0,-356.0,161.0,-225.0,-863.0,-155.0
-32.0,-231.0,-83.0,160.0,-346.0,157.0,-210.0,-872.0,-170.0
-28.0,-236.0,-85.0,165.0,-335.0,154.0,-202.0,-886.0,-175.0
-30.0,-232.0,-87.0,172.0,-320.0,149.0,-187.0,-889.0,-183.0
-24.0,-236.0,-86.0,178.0,-303.0,139.0,-183.0,-898.0,-194.0
-24.0,-235.0,-91.0,185.0,-286.0,129.0,-177.0,-903.0,-198.0
-28.0,-236.0,-97.0,193.0,-269.0,113.0,-181.0,-905.0,-208.0
-25.0,-236.0,-96.0,201.0,-251.0,99.0,-183.0,-897.0,-219.0
-25.0,-240.0,-101.0,199.0,-233.0,85.0,-194.0,-908.0,-225.0
-31.0,-241.0,-105.0,194.0,-211.0,72.0,-192.0,-911.0,-226.0
-35.0,-242.0,-102.0,187.0,-192.0,56.0,-200.0,-916.0,-227.0
-36.0,-242.0,-103.0,179.0,-178.0,40.0,-212.0,-927.0,-240.0
-40.0,-247.0,-96.0,170.0,-168.0,23.0,-224.0,-933.0,-235.0
-41.0,-248.0,-101.0,167.0,-163.0,5.0,-234.0,-939.0,-237.0
-43.0,-250.0,-100.0,170.0,-160.0,-12.0,-241.0,-949.0,-231.0
-45.0,-255.0,-96.0,174.0,-157.0,-27.0,-257.0,-959.0,-236.0
-47.0,-258.0,-100.0,182.0,-157.0,-43.0,-271.0,-970.0,-231.0
-47.0,-258.0,-101.0,191.0,-159.0,-61.0,-269.0,-982.0,-222.0
-53.0,-260.0,-95.0,211.0,-166.0,-80.0,-279.0,-985.0,-215.0
-55.0,-262.0,-90.0,232.0,-175.0,-95.0,-288.0,-996.0,-212.0
-57.0,-262.0,-94.0,258.0,-190.0,-110.0,-300.0,-1006.0,-205.0
-61.0,-262.0,-85.0,283.0,-206.0,-122.0,-309.0,-1006.0,-195.0
-64.0,-265.0,-94.0,304.0,-223.0,-136.0,-319.0,-1012.0,-188.0
-65.0,-265.0,-80.0,325.0,-244.0,-151.0,-329.0,-1015.0,-182.0
-66.0,-266.0,-82.0,345.0,-263.0,-164.0,-334.0,-1011.0,-169.0
-67.0,-264.0,-82.0,371.0,-283.0,-175.0,-333.0,-1007.0,-158.0
-66.0,-262.0,-74.0,394.0,-301.0,-183.0,-334.0,-1003.0,-145.0
-66.0,-262.0,-72.0,414.0,-317.0,-186.0,-346.0,-999.0,-131.0
-66.0,-259.0,-69.0,430.0,-327.0,-187.0,-345.0,-998.0,-121.0
-66.0,-260.0,-64.0,440.0,-331.0,-187.0,-336.0,-988.0,-110.0
-63.0,-259.0,-68.0,445.0,-327.0,-186.0,-328.0,-991.0,-96.0
-65.0,-257.0,-65.0,447.0,-320.0,-184.0,-326.0,-986.0,-91.0
-64.0,-257.0,-63.0,447.0,-307.0,-180.0,-312.0,-993.0,-86.0
-58.0,-257.0,-63.0,444.0,-293.0,-170.0,-314.0,-992.0,-88.0
-62.0,-258.0,-64.0,438.0,-278.0,-161.0,-314.0,-993.0,-84.0
-63.0,-259.0,-62.0,428.0,-261.0,-150.0,-317.0,-988.0,-85.0
-63.0,-257.0,-62.0,414.0,-247.0,-136.0,-317.0,-984.0,-83.0
-60.0,-257.0,-62.0,399.0,-233.0,-126.0,-307.0,-983.0,-86.0
-58.0,-257.0,-65.0,388.0,-222.0,-115.0,-303.0,-980.0,-94.0
-58.0,-255.0,-66.0,383.0,-213.0,-110.0,-302.0,-977.0,-96.0
-58.0,-255.0,-67.0,382.0,-209.0,-103.0,-295.0,-973.0,-103.0
-56.0,-255.0,-68.0,380.0,-204.0,-100.0,-292.0,-972.0,-103.0
-54.0,-254.0,-67.0,377.0,-199.0,-98.0,-288.0,-968.0,-110.0
-49.0,-253.0,-70.0,369.0,-194.0,-97.0,-281.0,-969.0,-117.0
-50.0,-254.0,-72.0,360.0,-181.0,-101.0,-273.0,-959.0,-123.0
-46.0,-246.0,-71.0,351.0,-163.0,-103.0,-268.0,-946.0,-124.0
-44.0,-244.0,-74.0,344.0,-142.0,-104.0,-247.0,-942.0,-124.0
-39.0,-244.0,-73.0,337.0,-119.0,-104.0,-236.0,-932.0,-121.0
-34.0,-240.0,-67.0,331.0,-98.0,-102.0,-222.0,-926.0,-116.0
-36.0,-241.0,-68.0,328.0,-78.0,-97.0,-212.0,-916.0,-116.0
-31.0,-237.0,-70.0,323.0,-62.0,-88.0,-211.0,-914.0,-111.0
-32.0,-239.0,-69.0,318.0,-47.0,-78.0,-200.0,-908.0,-110.0
-32.0,-236.0,-68.0,310.0,-34.0,-69.0,-202.0,-895.0,-102.0
-33.0,-236.0,-69.0,297.0,-21.0,-59.0,-202.0,-901.0,-109.0
-32.0,-233.0,-70.0,277.0,-12.0,-48.0,-208.0,-904.0,-109.0
-33.0,-239.0,-71.0,256.0,-5.0,-42.0,-211.0,-905.0,-102.0
-34.0,-241.0,-71.0,238.0,0.0,-36.0,-210.0,-916.0,-103.0
-36.0,-241.0,-69.0,221.0,7.0,-34.0,-217.0,-923.0,-105.0
-40.0,-243.0,-67.0,204.0,17.0,-29.0,-222.0,-935.0,-108.0
-40.0,-245.0,-69.0,187.0,30.0,-27.0,-231.0,-941.0,-107.0
-44.0,-248.0,-67.0,167.0,43.0,-20.0,-242.0,-947.0,-107.0
-46.0,-251.0,-61.0,152.0,59.0,-14.0,-257.0,-962.0,-102.0
-47.0,-257.0,-64.0,143.0,72.0,-10.0,-268.0,-973.0,-96.0
-51.0,-254.0,-66.0,139.0,79.0,-6.0,-274.0,-983.0,-88.0
-52.0,-259.0,-60.0,141.0,81.0,-5.0,-281.0,-990.0,-82.0
-58.0,-262.0,-60.0,140.0,80.0,-1.0,-290.0,-994.0,-79.0
-56.0,-259.0,-60.0,144.0,79.0,4.0,-293.0,-1001.0,-67.0
-61.0,-262.0,-58.0,147.0,80.0,7.0,-304.0,-1005.0,-62.0
-63.0,-264.0,-55.0,154.0,83.0,13.0,-313.0,-1001.0,-66.0
-63.0,-260.0,-56.0,164.0,86.0,14.0,-318.0,-994.0,-59.0
-60.0,-258.0,-57.0,172.0,88.0,16.0,-321.0,-991.0,-52.0
-64.0,-257.0,-53.0,187.0,84.0,15.0,-325.0,-982.0,-53.0
-63.0,-254.0,-55.0,199.0,75.0,14.0,-328.0,-975.0,-53.0
-64.0,-251.0,-55.0,205.0,67.0,15.0,-329.0,-959.0,-56.0
-63.0,-248.0,-60.0,206.0,58.0,12.0,-330.0,-944.0,-59.0
-64.0,-243.0,-57.0,200.0,53.0,7.0,-324.0,-931.0,-60.0
-63.0,-239.0,-58.0,195.0,47.0,4.0,-326.0,-923.0,-57.0
-63.0,-238.0,-57.0,186.0,44.0,1.0,-325.0,-915.0,-59.0
-63.0,-237.0,-57.0,184.0,40.0,1.0,-330.0,-903.0,-61.0
-63.0,-233.0,-59.0,181.0,33.0,-1.0,-315.0,-894.0,-64.0
-62.0,-232.0,-56.0,177.0,31.0,-1.0,-308.0,-897.0,-61.0
-58.0,-233.0,-61.0,175.0,31.0,0.0,-300.0,-889.0,-63.0
-55.0,-235.0,-60.0,175.0,38.0,1.0,-293.0,-903.0,-62.0
-53.0,-233.0,-58.0,176.0,49.0,6.0,-285.0,-887.0,-62.0
-50.0,-236.0,-59.0,174.0,64.0,9.0,-285.0,-891.0,-61.0
-51.0,-234.0,-61.0,168.0,81.0,14.0,-282.0,-896.0,-65.0
-54.0,-239.0,-62.0,159.0,99.0,20.0,-284.0,-907.0,-68.0
-53.0,-236.0,-62.0,144.0,120.0,26.0,-278.0,-907.0,-72.0
-53.0,-239.0,-64.0,129.0,144.0,29.0,-277.0,-911.0,-76.0
-49.0,-241.0,-61.0,116.0,168.0,31.0,-275.0,-923.0,-84.0
-53.0,-242.0,-58.0,105.0,186.0,30.0,-281.0,-926.0,-86.0
-51.0,-248.0,-63.0,102.0,201.0,30.0,-288.0,-933.0,-77.0
-57.0,-245.0,-60.0,103.0,209.0,27.0,-289.0,-938.0,-73.0
-56.0,-248.0,-60.0,106.0,210.0,23.0,-293.0,-942.0,-69.0
-58.0,-247.0,-55.0,109.0,205.0,19.0,-298.0,-948.0,-60.0
-55.0,-250.0,-57.0,111.0,199.0,18.0,-288.0,-949.0,-52.0
-51.0,-250.0,-47.0,115.0,191.0,14.0,-283.0,-949.0,-40.0
-50.0,-253.0,-50.0,126.0,187.0,14.0,-276.0,-956.0,-26.0
-49.0,-253.0,-42.0,136.0,181.0,13.0,-271.0,-952.0,-11.0
-49.0,-252.0,-50.0,149.0,172.0,14.0,-270.0,-959.0,-10.0
-47.0,-250.0,-43.0,159.0,163.0,14.0,-261.0,-961.0,-3.0
-42.0,-251.0,-48.0,161.0,160.0,15.0,-244.0,-961.0,-7.0
-38.0,-252.0,-49.0,155.0,164.0,18.0,-230.0,-962.0,-17.0
-38.0,-255.0,-48.0,143.0,172.0,18.0,-225.0,-969.0,-25.0
-38.0,-254.0,-50.0,127.0,184.0,20.0,-228.0,-971.0,-22.0
-37.0,-255.0,-54.0,108.0,199.0,21.0,-220.0,-982.0,-27.0
-35.0,-256.0,-54.0,95.0,215.0,22.0,-218.0,-976.0,-31.0
-34.0,-256.0,-51.0,84.0,232.0,24.0,-217.0,-977.0,-31.0
-34.0,-256.0,-49.0,77.0,252.0,28.0,-213.0,-977.0,-38.0
-38.0,-257.0,-54.0,75.0,277.0,30.0,-228.0,-973.0,-41.0
-38.0,-257.0,-54.0,76.0,305.0,36.0,-236.0,-978.0,-38.0
-43.0,-256.0,-53.0,79.0,333.0,36.0,-243.0,-981.0,-43.0
-42.0,-256.0,-55.0,87.0,357.0,36.0,-254.0,-976.0,-48.0
-44.0,-254.0,-55.0,95.0,375.0,35.0,-250.0,-972.0,-50.0
-43.0,-256.0,-55.0,104.0,389.0,33.0,-254.0,-968.0,-52.0
-45.0,-250.0,-51.0,114.0,401.0,33.0,-260.0,-964.0,-52.0
-45.0,-249.0,-53.0,121.0,409.0,32.0,-264.0,-959.0,-51.0
-48.0,-244.0,-49.0,125.0,412.0,31.0,-267.0,-943.0,-50.0
-46.0,-246.0,-52.0,126.0,411.0,30.0,-266.0,-923.0,-41.0
-48.0,-239.0,-50.0,127.0,398.0,27.0,-267.0,-919.0,-40.0
-48.0,-235.0,-51.0,131.0,373.0,22.0,-268.0,-906.0,-31.0
-51.0,-234.0,-49.0,132.0,336.0,16.0,-269.0,-884.0,-36.0
-49.0,-232.0,-48.0,133.0,291.0,8.0,-270.0,-882.0,-28.0
-51.0,-228.0,-50.0,129.0,248.0,-2.0,-265.0,-876.0,-28.0
-49.0,-226.0,-45.0,124.0,209.0,-14.0,-270.0,-867.0,-19.0
-53.0,-226.0,-43.0,114.0,182.0,-24.0,-277.0,-866.0,-6.0
-54.0,-229.0,-42.0,95.0,165.0,-36.0,-288.0,-865.0,4.0
-58.0,-225.0,-36.0,69.0,160.0,-46.0,-296.0,-863.0,24.0
-61.0,-229.0,-30.0,38.0,164.0,-54.0,-311.0,-869.0,35.0
-67.0,-233.0,-33.0,3.0,176.0,-60.0,-329.0,-881.0,52.0
-67.0,-230.0,-25.0,-32.0,191.0,-65.0,-342.0,-900.0,55.0
-74.0,-234.0,-27.0,-63.0,210.0,-68.0,-352.0,-914.0,54.0
-69.0,-242.0,-31.0,-83.0,230.0,-69.0,-351.0,-934.0,51.0
-69.0,-250.0,-34.0,-97.0,246.0,-70.0,-353.0,-950.0,41.0
-69.0,-254.0,-39.0,-100.0,266.0,-72.0,-357.0,-963.0,32.0
-69.0,-254.0,-39.0,-95.0,281.0,-73.0,-348.0,-971.0,18.0
-65.0,-258.0,-40.0,-82.0,295.0,-72.0,-341.0,-983.0,1.0
-64.0,-258.0,-44.0,-69.0,306.0,-74.0,-328.0,-987.0,-8.0
-65.0,-258.0,-45.0,-52.0,317.0,-76.0,-323.0,-992.0,-14.0
-59.0,-256.0,-44.0,-31.0,328.0,-76.0,-311.0,-989.0,-22.0
-62.0,-258.0,-52.0,-7.0,341.0,-76.0,-308.0,-978.0,-41.0
-61.0,-254.0,-55.0,14.0,360.0,-74.0,-308.0,-965.0,-53.0
-59.0,-250.0,-53.0,33.0,379.0,-72.0,-306.0,-962.0,-61.0
-60.0,-249.0,-62.0,50.0,396.0,-72.0,-307.0,-954.0,-67.0
-61.0,-248.0,-62.0,59.0,409.0,-68.0,-309.0,-945.0,-64.0
-63.0,-245.0,-59.0,66.0,415.0,-65.0,-321.0,-932.0,-70.0
-62.0,-242.0,-58.0,65.0,413.0,-64.0,-322.0,-922.0,-59.0
-63.0,-238.0,-54.0,59.0,410.0,-65.0,-315.0,-911.0,-52.0
-64.0,-233.0,-52.0,47.0,403.0,-67.0,-323.0,-887.0,-41.0
-65.0,-227.0,-51.0,28.0,394.0,-73.0,-328.0,-884.0,-37.0
-65.0,-229.0,-48.0,7.0,385.0,-79.0,-327.0,-875.0,-25.0
-62.0,-227.0,-48.0,-20.0,376.0,-88.0,-332.0,-860.0,-17.0
-64.0,-225.0,-45.0,-44.0,367.0,-95.0,-337.0,-865.0,-16.0
-72.0,-223.0,-49.0,-72.0,359.0,-99.0,-334.0,-866.0,-17.0
-66.0,-230.0,-53.0,-101.0,356.0,-102.0,-343.0,-876.0,-26.0
-66.0,-234.0,-50.0,-128.0,357.0,-104.0,-341.0,-892.0,-37.0
-67.0,-238.0,-53.0,-151.0,363.0,-103.0,-343.0,-912.0,-48.0
-68.0,-241.0,-59.0,-170.0,374.0,-102.0,-345.0,-926.0,-52.0
-67.0,-246.0,-55.0,-180.0,388.0,-99.0,-345.0,-942.0,-61.0
-68.0,-249.0,-64.0,-184.0,407.0,-95.0,-345.0,-957.0,-70.0
-65.0,-257.0,-57.0,-182.0,427.0,-89.0,-349.0,-970.0,-73.0
-66.0,-258.0,-58.0,-173.0,453.0,-84.0,-343.0,-984.0,-74.0
-63.0,-263.0,-59.0,-154.0,476.0,-77.0,-325.0,-1005.0,-72.0
-57.0,-266.0,-59.0,-134.0,501.0,-66.0,-310.0,-1006.0,-68.0
-61.0,-265.0,-55.0,-107.0,528.0,-53.0,-297.0,-1016.0,-75.0
-53.0,-269.0,-60.0,-85.0,557.0,-42.0,-285.0,-1024.0,-78.0
-47.0,-269.0,-64.0,-65.0,592.0,-26.0,-275.0,-1029.0,-87.0
-47.0,-273.0,-65.0,-47.0,626.0,-13.0,-279.0,-1033.0,-94.0
-51.0,-269.0,-65.0,-32.0,651.0,-3.0,-280.0,-1034.0,-99.0
-53.0,-273.0,-69.0,-21.0,670.0,6.0,-278.0,-1038.0,-111.0
-50.0,-272.0,-70.0,-12.0,682.0,15.0,-278.0,-1049.0,-112.0
-47.0,-275.0,-67.0,-7.0,693.0,18.0,-274.0,-1054.0,-112.0
-48.0,-280.0,-65.0,0.0,710.0,20.0,-278.0,-1066.0,-100.0
-50.0,-279.0,-62.0,10.0,733.0,20.0,-282.0,-1068.0,-76.0
-49.0,-283.0,-53.0,24.0,762.0,19.0,-277.0,-1081.0,-51.0
-45.0,-284.0,-46.0,45.0,791.0,17.0,-270.0,-1087.0,-28.0
-47.0,-285.0,-50.0,66.0,821.0,16.0,-260.0,-1102.0,-8.0
-45.0,-292.0,-44.0,82.0,852.0,17.0,-249.0,-1112.0,-3.0
-42.0,-291.0,-44.0,90.0,885.0,16.0,-248.0,-1116.0,-8.0
-40.0,-293.0,-45.0,98.0,920.0,17.0,-240.0,-1120.0,0.0
-38.0,-295.0,-43.0,108.0,951.0,17.0,-237.0,-1122.0,-7.0
-41.0,-294.0,-42.0,119.0,975.0,15.0,-232.0,-1127.0,-4.0
-40.0,-294.0,-49.0,125.0,991.0,14.0,-225.0,-1121.0,-4.0
-37.0,-290.0,-49.0,117.0,999.0,10.0,-226.0,-1123.0,-1.0
-40.0,-288.0,-45.0,92.0,1003.0,5.0,-232.0,-1117.0,-9.0
-40.0,-292.0,-44.0,49.0,1007.0,6.0,-235.0,-1112.0,-17.0
-46.0,-290.0,-53.0,-8.0,1011.0,9.0,-253.0,-1123.0,-23.0
-47.0,-292.0,-56.0,-74.0,1021.0,15.0,-265.0,-1126.0,-38.0
-49.0,-298.0,-57.0,-145.0,1036.0,21.0,-272.0,-1142.0,-52.0
-49.0,-297.0,-62.0,-213.0,1052.0,25.0,-273.0,-1151.0,-70.0
-49.0,-303.0,-67.0,-270.0,1065.0,31.0,-278.0,-1161.0,-96.0
-57.0,-304.0,-74.0,-315.0,1076.0,40.0,-289.0,-1177.0,-119.0
-56.0,-314.0,-75.0,-343.0,1083.0,55.0,-296.0,-1187.0,-140.0
-62.0,-322.0,-82.0,-349.0,1083.0,77.0,-312.0,-1218.0,-155.0
-68.0,-325.0,-85.0,-333.0,1071.0,103.0,-344.0,-1257.0,-195.0
-79.0,-340.0,-95.0,-303.0,1045.0,135.0,-370.0,-1302.0,-218.0
-94.0,-344.0,-95.0,-269.0,1003.0,166.0,-418.0,-1315.0,-241.0
-104.0,-352.0,-108.0,-228.0,949.0,194.0,-477.0,-1356.0,-265.0
-111.0,-358.0,-109.0,-187.0,898.0,221.0,-510.0,-1370.0,-274.0
-119.0,-362.0,-107.0,-147.0,852.0,243.0,-533.0,-1382.0,-263.0
-123.0,-362.0,-102.0,-111.0,812.0,260.0,-548.0,-1384.0,-249.0
-127.0,-355.0,-97.0,-76.0,776.0,271.0,-557.0,-1363.0,-245.0
-125.0,-347.0,-100.0,-33.0,742.0,277.0,-552.0,-1326.0,-235.0
-117.0,-332.0,-97.0,24.0,714.0,277.0,-532.0,-1277.0,-237.0
-114.0,-317.0,-104.0,94.0,690.0,277.0,-509.0,-1204.0,-248.0
-100.0,-297.0,-106.0,161.0,671.0,281.0,-467.0,-1124.0,-261.0
-90.0,-272.0,-110.0,210.0,659.0,292.0,-426.0,-1045.0,-266.0
-74.0,-255.0,-106.0,238.0,653.0,308.0,-377.0,-961.0,-264.0
-63.0,-234.0,-104.0,234.0,661.0,328.0,-334.0,-889.0,-258.0
-58.0,-214.0,-106.0,207.0,675.0,347.0,-302.0,-829.0,-244.0
-53.0,-204.0,-102.0,169.0,691.0,359.0,-285.0,-781.0,-229.0
-47.0,-193.0,-102.0,139.0,706.0,367.0,-266.0,-734.0,-224.0
-42.0,-186.0,-98.0,115.0,717.0,373.0,-241.0,-695.0,-217.0
-39.0,-173.0,-94.0,93.0,725.0,376.0,-226.0,-655.0,-214.0
-30.0,-161.0,-92.0,71.0,733.0,380.0,-203.0,-616.0,-205.0
-23.0,-153.0,-93.0,47.0,741.0,385.0,-166.0,-575.0,-197.0
-16.0,-143.0,-89.0,19.0,751.0,388.0,-144.0,-529.0,-189.0
-9.0,-127.0,-86.0,-7.0,766.0,392.0,-120.0,-483.0,-178.0
6.0,-115.0,-78.0,-35.0,789.0,398.0,-94.0,-441.0,-175.0
7.0,-107.0,-85.0,-61.0,820.0,406.0,-64.0,-404.0,-166.0
14.0,-97.0,-87.0,-87.0,856.0,413.0,-35.0,-364.0,-159.0
23.0,-92.0,-79.0,-110.0,898.0,417.0,-17.0,-342.0,-154.0
20.0,-87.0,-79.0,-136.0,943.0,421.0,-2.0,-327.0,-148.0
19.0,-86.0,-76.0,-166.0,982.0,419.0,-4.0,-310.0,-139.0
17.0,-84.0,-77.0,-197.0,1011.0,416.0,-13.0,-312.0,-134.0
8.0,-84.0,-73.0,-231.0,1024.0,409.0,-37.0,-313.0,-125.0
0.0,-92.0,-71.0,-263.0,1019.0,402.0,-66.0,-333.0,-111.0
-6.0,-93.0,-67.0,-291.0,990.0,396.0,-102.0,-352.0,-108.0
-14.0,-102.0,-66.0,-310.0,934.0,386.0,-123.0,-388.0,-98.0
-19.0,-116.0,-65.0,-317.0,855.0,375.0,-140.0,-432.0,-90.0
-20.0,-128.0,-64.0,-307.0,763.0,364.0,-143.0,-473.0,-93.0
-18.0,-140.0,-68.0,-275.0,668.0,348.0,-150.0,-512.0,-108.0
-17.0,-153.0,-69.0,-225.0,581.0,329.0,-145.0,-573.0,-133.0
-17.0,-165.0,-84.0,-167.0,503.0,305.0,-130.0,-616.0,-172.0
-17.0,-177.0,-89.0,-105.0,422.0,277.0,-121.0,-670.0,-200.0
-13.0,-189.0,-101.0,-50.0,335.0,250.0,-112.0,-709.0,-236.0
-3.0,-194.0,-100.0,-16.0,248.0,223.0,-82.0,-731.0,-260.0
9.0,-196.0,-112.0,3.0,165.0,196.0,-41.0,-734.0,-277.0
19.0,-186.0,-113.0,11.0,100.0,172.0,4.0,-710.0,-289.0
31.0,-179.0,-114.0,12.0,63.0,158.0,39.0,-665.0,-290.0
39.0,-167.0,-115.0,1.0,57.0,154.0,70.0,-630.0,-296.0
44.0,-157.0,-122.0,-30.0,73.0,158.0,84.0,-589.0,-303.0
42.0,-147.0,-119.0,-72.0,105.0,164.0,81.0,-550.0,-302.0
39.0,-139.0,-122.0,-115.0,146.0,168.0,61.0,-523.0,-302.0
29.0,-135.0,-119.0,-152.0,188.0,172.0,29.0,-507.0,-299.0
16.0,-130.0,-120.0,-184.0,224.0,172.0,-6.0,-494.0,-301.0
10.0,-129.0,-113.0,-214.0,244.0,173.0,-43.0,-489.0,-306.0
3.0,-131.0,-118.0,-253.0,252.0,178.0,-79.0,-486.0,-307.0
-10.0,-129.0,-127.0,-304.0,257.0,188.0,-128.0,-481.0,-330.0
-22.0,-128.0,-134.0,-365.0,274.0,200.0,-175.0,-494.0,-347.0
-46.0,-132.0,-137.0,-433.0,309.0,216.0,-249.0,-507.0,-384.0
-63.0,-140.0,-141.0,-501.0,357.0,232.0,-322.0,-532.0,-408.0
-81.0,-151.0,-146.0,-564.0,409.0,251.0,-400.0,-572.0,-421.0
-102.0,-172.0,-145.0,-621.0,449.0,269.0,-466.0,-642.0,-428.0
-121.0,-204.0,-140.0,-663.0,481.0,290.0,-537.0,-760.0,-419.0
-140.0,-245.0,-131.0,-681.0,517.0,308.0,-626.0,-920.0,-379.0
-162.0,-290.0,-123.0,-668.0,564.0,321.0,-698.0,-1091.0,-333.0
-184.0,-327.0,-107.0,-621.0,621.0,312.0,-786.0,-1229.0,-289.0
-195.0,-354.0,-95.0,-538.0,688.0,283.0,-849.0,-1341.0,-235.0
-199.0,-363.0,-87.0,-429.0,760.0,239.0,-869.0,-1379.0,-188.0
-195.0,-359.0,-75.0,-314.0,830.0,191.0,-844.0,-1369.0,-127.0
-186.0,-343.0,-64.0,-218.0,879.0,147.0,-794.0,-1335.0,-86.0
-166.0,-336.0,-57.0,-158.0,897.0,113.0,-730.0,-1297.0,-47.0
-149.0,-327.0,-49.0,-141.0,879.0,90.0,-650.0,-1271.0,-23.0
-131.0,-322.0,-48.0,-153.0,826.0,71.0,-570.0,-1239.0,-38.0
-111.0,-320.0,-58.0,-173.0,754.0,67.0,-501.0,-1228.0,-76.0
-94.0,-318.0,-74.0,-190.0,674.0,73.0,-435.0,-1216.0,-145.0
-80.0,-314.0,-93.0,-201.0,597.0,93.0,-390.0,-1199.0,-225.0
-74.0,-309.0,-117.0,-209.0,534.0,119.0,-353.0,-1182.0,-306.0
-65.0,-303.0,-132.0,-215.0,486.0,142.0,-336.0,-1151.0,-374.0
-66.0,-291.0,-147.0,-217.0,454.0,171.0,-327.0,-1116.0,-432.0
-63.0,-281.0,-159.0,-213.0,436.0,200.0,-322.0,-1087.0,-463.0
-59.0,-278.0,-159.0,-210.0,434.0,225.0,-326.0,-1063.0,-481.0
-66.0,-270.0,-160.0,-213.0,442.0,245.0,-342.0,-1034.0,-482.0
-71.0,-265.0,-151.0,-217.0,460.0,259.0,-355.0,-1009.0,-466.0
-76.0,-260.0,-149.0,-217.0,477.0,265.0,-377.0,-995.0,-439.0
-80.0,-256.0,-140.0,-214.0,487.0,264.0,-400.0,-981.0,-409.0
-87.0,-255.0,-132.0,-211.0,492.0,255.0,-421.0,-959.0,-374.0
-94.0,-246.0,-121.0,-205.0,497.0,241.0,-438.0,-938.0,-331.0
-92.0,-237.0,-118.0,-204.0,509.0,224.0,-453.0,-911.0,-308.0
-100.0,-229.0,-115.0,-202.0,528.0,205.0,-456.0,-871.0,-289.0
-96.0,-226.0,-112.0,-211.0,550.0,184.0,-458.0,-850.0,-272.0
-96.0,-214.0,-102.0,-233.0,573.0,166.0,-447.0,-821.0,-259.0
-83.0,-211.0,-102.0,-268.0,592.0,147.0,-425.0,-811.0,-237.0
-82.0,-212.0,-99.0,-312.0,612.0,134.0,-403.0,-805.0,-221.0
-79.0,-213.0,-93.0,-361.0,624.0,126.0,-379.0,-816.0,-200.0
-70.0,-218.0,-87.0,-413.0,635.0,127.0,-357.0,-828.0,-189.0
-67.0,-223.0,-87.0,-456.0,645.0,131.0,-339.0,-855.0,-180.0
-65.0,-230.0,-86.0,-485.0,658.0,140.0,-339.0,-887.0,-177.0
-60.0,-240.0,-90.0,-501.0,670.0,146.0,-322.0,-919.0,-184.0
-59.0,-249.0,-85.0,-509.0,680.0,152.0,-306.0,-946.0,-191.0
-58.0,-254.0,-93.0,-510.0,685.0,155.0,-301.0,-967.0,-205.0
-59.0,-259.0,-99.0,-507.0,683.0,155.0,-296.0,-992.0,-233.0
-63.0,-259.0,-108.0,-500.0,681.0,159.0,-294.0,-995.0,-264.0
-61.0,-261.0,-114.0,-485.0,684.0,160.0,-305.0,-994.0,-306.0
-64.0,-260.0,-127.0,-465.0,693.0,167.0,-319.0,-988.0,-330.0
-70.0,-259.0,-127.0,-435.0,705.0,170.0,-358.0,-983.0,-355.0
-78.0,-258.0,-132.0,-409.0,715.0,173.0,-392.0,-984.0,-377.0
-86.0,-254.0,-138.0,-388.0,726.0,177.0,-414.0,-968.0,-388.0
-91.0,-257.0,-138.0,-371.0,734.0,186.0,-434.0,-971.0,-397.0
-93.0,-255.0,-142.0,-353.0,740.0,189.0,-452.0,-976.0,-406.0
-101.0,-256.0,-139.0,-332.0,747.0,192.0,-474.0,-975.0,-395.0
-105.0,-257.0,-133.0,-304.0,748.0,195.0,-487.0,-985.0,-384.0
-110.0,-263.0,-133.0,-270.0,742.0,195.0,-497.0,-998.0,-377.0
-110.0,-268.0,-132.0,-233.0,725.0,194.0,-510.0,-1014.0,-364.0
-115.0,-272.0,-125.0,-194.0,698.0,193.0,-524.0,-1026.0,-353.0
-117.0,-274.0,-126.0,-153.0,655.0,189.0,-528.0,-1039.0,-343.0
-123.0,-272.0,-124.0,-106.0,617.0,185.0,-530.0,-1039.0,-331.0
-120.0,-269.0,-120.0,-63.0,580.0,182.0,-540.0,-1027.0,-319.0
-121.0,-264.0,-116.0,-18.0,544.0,180.0,-540.0,-1008.0,-304.0
-117.0,-261.0,-112.0,15.0,513.0,182.0,-527.0,-993.0,-293.0
-114.0,-257.0,-110.0,42.0,487.0,182.0,-514.0,-970.0,-274.0
-112.0,-248.0,-103.0,67.0,465.0,183.0,-492.0,-944.0,-261.0
-102.0,-242.0,-104.0,78.0,442.0,184.0,-468.0,-922.0,-259.0
-101.0,-237.0,-109.0,82.0,417.0,188.0,-446.0,-900.0,-252.0
-91.0,-230.0,-104.0,79.0,394.0,193.0,-420.0,-865.0,-257.0
-85.0,-223.0,-112.0,73.0,376.0,199.0,-409.0,-848.0,-271.0
-80.0,-218.0,-109.0,65.0,359.0,206.0,-398.0,-835.0,-285.0
-76.0,-218.0,-118.0,59.0,344.0,214.0,-378.0,-826.0,-306.0
-76.0,-216.0,-121.0,54.0,327.0,221.0,-372.0,-817.0,-332.0
-74.0,-216.0,-132.0,51.0,311.0,229.0,-375.0,-812.0,-365.0
-74.0,-209.0,-141.0,47.0,298.0,234.0,-365.0,-807.0,-390.0
-76.0,-212.0,-147.0,46.0,288.0,240.0,-368.0,-803.0,-419.0
-74.0,-210.0,-145.0,40.0,287.0,241.0,-365.0,-799.0,-435.0
-74.0,-209.0,-148.0,38.0,291.0,242.0,-373.0,-802.0,-437.0
-73.0,-211.0,-147.0,37.0,302.0,237.0,-368.0,-806.0,-436.0
-74.0,-211.0,-147.0,38.0,314.0,231.0,-363.0,-812.0,-423.0
-70.0,-220.0,-144.0,40.0,323.0,222.0,-361.0,-814.0,-405.0
-73.0,-218.0,-140.0,42.0,329.0,210.0,-352.0,-816.0,-396.0
-69.0,-220.0,-134.0,39.0,327.0,196.0,-353.0,-825.0,-376.0
-71.0,-215.0,-129.0,36.0,323.0,180.0,-355.0,-821.0,-364.0
-70.0,-217.0,-129.0,29.0,313.0,164.0,-353.0,-818.0,-338.0
-72.0,-218.0,-124.0,25.0,297.0,145.0,-350.0,-824.0,-323.0
-72.0,-216.0,-119.0,18.0,276.0,125.0,-353.0,-828.0,-311.0
-70.0,-219.0,-118.0,10.0,254.0,105.0,-353.0,-828.0,-306.0
-71.0,-223.0,-115.0,1.0,231.0,86.0,-356.0,-832.0,-295.0
-73.0,-221.0,-115.0,-6.0,211.0,66.0,-359.0,-833.0,-292.0
-76.0,-220.0,-116.0,-10.0,196.0,45.0,-367.0,-828.0,-289.0
-77.0,-219.0,-114.0,-10.0,186.0,29.0,-379.0,-828.0,-287.0
-76.0,-218.0,-111.0,-12.0,182.0,22.0,-380.0,-823.0,-283.0
-74.0,-214.0,-114.0,-18.0,178.0,19.0,-367.0,-817.0,-288.0
-76.0,-211.0,-114.0,-24.0,173.0,14.0,-366.0,-809.0,-295.0
-71.0,-208.0,-116.0,-33.0,169.0,14.0,-355.0,-802.0,-299.0
-67.0,-210.0,-118.0,-41.0,167.0,18.0,-345.0,-798.0,-306.0
-65.0,-209.0,-118.0,-47.0,170.0,26.0,-327.0,-793.0,-312.0
-60.0,-208.0,-119.0,-52.0,180.0,37.0,-314.0,-790.0,-314.0
-60.0,-203.0,-119.0,-53.0,198.0,45.0,-309.0,-773.0,-326.0
-59.0,-202.0,-123.0,-57.0,219.0,53.0,-307.0,-770.0,-330.0
-56.0,-204.0,-122.0,-63.0,243.0,57.0,-303.0,-773.0,-335.0
-55.0,-206.0,-127.0,-72.0,270.0,59.0,-306.0,-773.0,-337.0
-57.0,-208.0,-126.0,-80.0,295.0,62.0,-302.0,-795.0,-338.0
-58.0,-213.0,-126.0,-88.0,316.0,60.0,-305.0,-813.0,-336.0
-57.0,-219.0,-127.0,-88.0,330.0,54.0,-297.0,-828.0,-339.0
-57.0,-224.0,-129.0,-83.0,339.0,46.0,-300.0,-841.0,-352.0
-62.0,-224.0,-131.0,-80.0,348.0,36.0,-311.0,-854.0,-362.0
-65.0,-231.0,-129.0,-76.0,354.0,23.0,-320.0,-871.0,-357.0
-65.0,-230.0,-132.0,-70.0,356.0,11.0,-327.0,-873.0,-366.0
-61.0,-238.0,-130.0,-66.0,349.0,-1.0,-317.0,-886.0,-365.0
-60.0,-241.0,-131.0,-69.0,338.0,-17.0,-306.0,-911.0,-368.0
-62.0,-246.0,-132.0,-75.0,327.0,-38.0,-330.0,-916.0,-364.0
-68.0,-239.0,-132.0,-84.0,319.0,-54.0,-341.0,-924.0,-357.0
-66.0,-247.0,-131.0,-86.0,317.0,-62.0,-347.0,-934.0,-352.0
-73.0,-245.0,-130.0,-85.0,316.0,-73.0,-362.0,-931.0,-361.0
-70.0,-245.0,-128.0,-79.0,318.0,-79.0,-342.0,-939.0,-362.0
-68.0,-244.0,-129.0,-77.0,322.0,-88.0,-353.0,-937.0,-370.0
-74.0,-242.0,-132.0,-78.0,325.0,-96.0,-366.0,-926.0,-367.0
-83.0,-235.0,-130.0,-81.0,326.0,-90.0,-399.0,-922.0,-368.0
-84.0,-239.0,-134.0,-88.0,323.0,-78.0,-404.0,-914.0,-371.0
-78.0,-238.0,-137.0,-92.0,312.0,-64.0,-399.0,-911.0,-383.0
-84.0,-236.0,-145.0,-93.0,300.0,-58.0,-397.0,-897.0,-392.0
-80.0,-227.0,-144.0,-89.0,292.0,-46.0,-401.0,-885.0,-410.0
-85.0,-231.0,-143.0,-84.0,285.0,-38.0,-409.0,-872.0,-411.0
-88.0,-225.0,-143.0,-81.0,282.0,-25.0,-414.0,-857.0,-416.0
-89.0,-225.0,-144.0,-81.0,277.0,-11.0,-424.0,-847.0,-412.0
-88.0,-221.0,-147.0,-83.0,269.0,-7.0,-415.0,-837.0,-423.0
-81.0,-220.0,-145.0,-92.0,264.0,-2.0,-401.0,-825.0,-424.0
-86.0,-213.0,-149.0,-93.0,264.0,7.0,-411.0,-825.0,-427.0
-88.0,-218.0,-149.0,-98.0,266.0,14.0,-410.0,-819.0,-438.0
-85.0,-217.0,-147.0,-99.0,267.0,16.0,-412.0,-817.0,-445.0
-87.0,-215.0,-152.0,-102.0,262.0,18.0,-426.0,-825.0,-453.0
-81.0,-216.0,-156.0,-108.0,252.0,11.0,-404.0,-823.0,-451.0
-80.0,-217.0,-156.0,-111.0,242.0,11.0,-392.0,-822.0,-453.0
-77.0,-220.0,-148.0,-114.0,235.0,14.0,-381.0,-827.0,-445.0
-83.0,-222.0,-147.0,-117.0,230.0,10.0,-400.0,-829.0,-434.0
-82.0,-220.0,-143.0,-118.0,227.0,4.0,-405.0,-833.0,-430.0
-79.0,-220.0,-146.0,-122.0,216.0,-8.0,-380.0,-844.0,-427.0
-76.0,-224.0,-150.0,-123.0,203.0,-26.0,-365.0,-848.0,-431.0
-74.0,-226.0,-147.0,-120.0,193.0,-37.0,-369.0,-850.0,-439.0
-76.0,-227.0,-153.0,-113.0,188.0,-43.0,-375.0,-864.0,-448.0
-73.0,-231.0,-155.0,-105.0,187.0,-46.0,-375.0,-874.0,-457.0
-75.0,-234.0,-159.0,-101.0,187.0,-50.0,-362.0,-880.0,-472.0
-72.0,-230.0,-162.0,-102.0,192.0,-57.0,-363.0,-882.0,-489.0
-72.0,-237.0,-163.0,-103.0,195.0,-59.0,-355.0,-881.0,-498.0
-74.0,-233.0,-167.0,-100.0,194.0,-62.0,-358.0,-883.0,-495.0
-73.0,-234.0,-162.0,-97.0,189.0,-64.0,-367.0,-901.0,-503.0
-75.0,-233.0,-167.0,-98.0,180.0,-71.0,-357.0,-890.0,-499.0
-71.0,-230.0,-158.0,-101.0,163.0,-78.0,-348.0,-881.0,-493.0
-67.0,-233.0,-165.0,-105.0,151.0,-76.0,-345.0,-875.0,-499.0
-69.0,-232.0,-164.0,-108.0,148.0,-71.0,-350.0,-875.0,-499.0
-68.0,-232.0,-164.0,-105.0,151.0,-72.0,-331.0,-879.0,-492.0
-62.0,-233.0,-167.0,-101.0,150.0,-74.0,-303.0,-878.0,-498.0
-59.0,-230.0,-167.0,-93.0,148.0,-74.0,-300.0,-874.0,-501.0
-60.0,-231.0,-172.0,-85.0,142.0,-77.0,-313.0,-872.0,-503.0
-64.0,-227.0,-162.0,-80.0,134.0,-81.0,-318.0,-863.0,-503.0
-62.0,-227.0,-164.0,-79.0,123.0,-82.0,-300.0,-852.0,-502.0
-52.0,-223.0,-166.0,-79.0,107.0,-89.0,-278.0,-845.0,-500.0
-56.0,-218.0,-165.0,-78.0,93.0,-103.0,-283.0,-832.0,-495.0
-61.0,-217.0,-160.0,-72.0,87.0,-117.0,-299.0,-818.0,-489.0
-56.0,-215.0,-162.0,-68.0,90.0,-124.0,-295.0,-814.0,-480.0
-61.0,-207.0,-159.0,-66.0,92.0,-132.0,-315.0,-794.0,-481.0
-53.0,-210.0,-159.0,-71.0,103.0,-130.0,-283.0,-789.0,-483.0
-55.0,-203.0,-164.0,-76.0,110.0,-137.0,-298.0,-778.0,-493.0
-57.0,-200.0,-164.0,-83.0,124.0,-141.0,-291.0,-782.0,-497.0
-55.0,-207.0,-168.0,-95.0,134.0,-142.0,-295.0,-787.0,-497.0
-56.0,-208.0,-160.0,-109.0,141.0,-141.0,-293.0,-791.0,-494.0
-56.0,-212.0,-156.0,-122.0,149.0,-134.0,-282.0,-807.0,-485.0
-50.0,-218.0,-157.0,-135.0,164.0,-131.0,-274.0,-818.0,-474.0
-49.0,-221.0,-152.0,-142.0,181.0,-131.0,-274.0,-832.0,-460.0
-40.0,-222.0,-152.0,-143.0,201.0,-130.0,-240.0,-834.0,-446.0
-30.0,-222.0,-149.0,-138.0,219.0,-138.0,-209.0,-839.0,-444.0
-30.0,-223.0,-158.0,-127.0,231.0,-157.0,-189.0,-831.0,-445.0
-27.0,-216.0,-155.0,-110.0,244.0,-169.0,-183.0,-817.0,-455.0
-28.0,-216.0,-158.0,-94.0,258.0,-166.0,-179.0,-815.0,-471.0
-27.0,-216.0,-164.0,-88.0,267.0,-168.0,-179.0,-808.0,-480.0
-14.0,-213.0,-163.0,-92.0,273.0,-173.0,-167.0,-812.0,-488.0
-20.0,-211.0,-170.0,-107.0,272.0,-187.0,-159.0,-807.0,-509.0
-18.0,-213.0,-171.0,-126.0,274.0,-197.0,-159.0,-801.0,-508.0
-25.0,-205.0,-165.0,-148.0,275.0,-209.0,-174.0,-785.0,-503.0
-22.0,-206.0,-166.0,-167.0,269.0,-212.0,-165.0,-780.0,-505.0
-23.0,-203.0,-166.0,-190.0,253.0,-221.0,-159.0,-769.0,-509.0
-26.0,-201.0,-171.0,-208.0,226.0,-231.0,-172.0,-766.0,-533.0
-25.0,-207.0,-174.0,-231.0,207.0,-227.0,-165.0,-783.0,-539.0
-24.0,-207.0,-177.0,-258.0,190.0,-226.0,-167.0,-786.0,-542.0
-25.0,-207.0,-175.0,-277.0,181.0,-227.0,-174.0,-794.0,-548.0
-26.0,-211.0,-173.0,-288.0,182.0,-228.0,-182.0,-798.0,-544.0
-19.0,-213.0,-172.0,-301.0,190.0,-219.0,-167.0,-803.0,-530.0
-22.0,-217.0,-168.0,-303.0,193.0,-213.0,-152.0,-816.0,-517.0
-19.0,-220.0,-167.0,-297.0,191.0,-218.0,-157.0,-823.0,-505.0
-25.0,-220.0,-163.0,-287.0,193.0,-226.0,-180.0,-823.0,-498.0
-26.0,-214.0,-160.0,-284.0,199.0,-219.0,-182.0,-826.0,-494.0
-24.0,-217.0,-161.0,-282.0,202.0,-211.0,-172.0,-825.0,-488.0
-31.0,-214.0,-162.0,-279.0,198.0,-219.0,-185.0,-824.0,-489.0
-38.0,-221.0,-162.0,-270.0,199.0,-237.0,-214.0,-827.0,-486.0
-36.0,-223.0,-154.0,-264.0,204.0,-246.0,-212.0,-843.0,-466.0
-34.0,-226.0,-154.0,-264.0,199.0,-257.0,-219.0,-845.0,-453.0
-34.0,-229.0,-146.0,-267.0,187.0,-270.0,-231.0,-863.0,-437.0
-41.0,-233.0,-143.0,-263.0,171.0,-290.0,-250.0,-878.0,-425.0
-49.0,-238.0,-137.0,-253.0,157.0,-309.0,-272.0,-911.0,-414.0
-45.0,-243.0,-132.0,-233.0,145.0,-319.0,-234.0,-921.0,-383.0
-60.0,-238.0,-136.0,-202.0,124.0,-344.0,-286.0,-920.0,-387.0
-58.0,-240.0,-140.0,-173.0,105.0,-354.0,-295.0,-911.0,-376.0
-59.0,-240.0,-131.0,-144.0,76.0,-373.0,-268.0,-913.0,-376.0
-63.0,-237.0,-132.0,-121.0,32.0,-400.0,-311.0,-899.0,-387.0
-69.0,-241.0,-138.0,-111.0,-8.0,-410.0,-346.0,-912.0,-391.0
-69.0,-242.0,-137.0,-116.0,-47.0,-421.0,-337.0,-925.0,-386.0
-71.0,-247.0,-139.0,-124.0,-98.0,-439.0,-347.0,-934.0,-392.0
-80.0,-247.0,-135.0,-135.0,-142.0,-458.0,-408.0,-938.0,-390.0
-93.0,-254.0,-130.0,-149.0,-186.0,-474.0,-415.0,-962.0,-383.0
-106.0,-257.0,-130.0,-162.0,-236.0,-507.0,-454.0,-988.0,-373.0
-118.0,-267.0,-129.0,-172.0,-288.0,-525.0,-518.0,-1014.0,-368.0
-106.0,-283.0,-127.0,-185.0,-336.0,-534.0,-487.0,-1079.0,-341.0
-94.0,-294.0,-119.0,-192.0,-381.0,-572.0,-448.0,-1131.0,-314.0
-91.0,-312.0,-113.0,-184.0,-413.0,-621.0,-426.0,-1177.0,-281.0
-64.0,-318.0,-105.0,-154.0,-423.0,-658.0,-360.0,-1197.0,-271.0
-31.0,-330.0,-79.0,-84.0,-407.0,-673.0,-199.0,-1266.0,-254.0
-96.0,-329.0,-102.0,52.0,-387.0,-722.0,-474.0,-1247.0,-273.0
-103.0,-344.0,-104.0,152.0,-337.0,-696.0,-449.0,-1306.0,-230.0
-104.0,-341.0,-96.0,224.0,-337.0,-709.0,-472.0,-1305.0,-223.0
-114.0,-340.0,-101.0,290.0,-345.0,-727.0,-511.0,-1306.0,-217.0
-94.0,-349.0,-91.0,348.0,-339.0,-716.0,-444.0,-1331.0,-206.0
-85.0,-348.0,-92.0,406.0,-343.0,-728.0,-416.0,-1328.0,-210.0
-77.0,-343.0,-91.0,469.0,-346.0,-752.0,-381.0,-1308.0,-207.0
-68.0,-334.0,-91.0,530.0,-353.0,-768.0,-344.0,-1279.0,-210.0
-61.0,-319.0,-92.0,584.0,-362.0,-789.0,-323.0,-1219.0,-197.0
-54.0,-300.0,-86.0,641.0,-372.0,-806.0,-281.0,-1159.0,-184.0
-44.0,-290.0,-84.0,690.0,-375.0,-818.0,-260.0,-1102.0,-170.0
-37.0,-271.0,-81.0,715.0,-366.0,-835.0,-222.0,-1034.0,-154.0
-25.0,-257.0,-78.0,709.0,-345.0,-851.0,-190.0,-995.0,-146.0
-12.0,-250.0,-75.0,678.0,-311.0,-858.0,-150.0,-960.0,-137.0
0.0,-249.0,-73.0,647.0,-269.0,-849.0,-106.0,-955.0,-126.0
6.0,-253.0,-70.0,626.0,-216.0,-832.0,-62.0,-964.0,-114.0
17.0,-255.0,-67.0,621.0,-145.0,-809.0,-29.0,-972.0,-98.0
24.0,-258.0,-64.0,631.0,-59.0,-784.0,1.0,-985.0,-95.0
26.0,-258.0,-74.0,641.0,19.0,-770.0,17.0,-996.0,-111.0
27.0,-259.0,-84.0,637.0,76.0,-762.0,33.0,-992.0,-153.0
28.0,-260.0,-94.0,619.0,103.0,-760.0,34.0,-997.0,-214.0
25.0,-264.0,-115.0,586.0,107.0,-757.0,31.0,-1010.0,-270.0
28.0,-270.0,-122.0,543.0,98.0,-747.0,43.0,-1044.0,-316.0
27.0,-283.0,-129.0,509.0,91.0,-735.0,40.0,-1074.0,-352.0
27.0,-293.0,-126.0,491.0,97.0,-717.0,36.0,-1108.0,-368.0
29.0,-293.0,-136.0,485.0,118.0,-700.0,29.0,-1123.0,-381.0
28.0,-293.0,-141.0,487.0,149.0,-684.0,29.0,-1132.0,-402.0
28.0,-291.0,-146.0,486.0,186.0,-672.0,33.0,-1116.0,-427.0
32.0,-288.0,-153.0,478.0,225.0,-661.0,34.0,-1087.0,-446.0
35.0,-281.0,-156.0,460.0,265.0,-656.0,43.0,-1074.0,-472.0
32.0,-275.0,-158.0,439.0,301.0,-651.0,35.0,-1055.0,-474.0
33.0,-274.0,-157.0,419.0,335.0,-644.0,36.0,-1050.0,-478.0
27.0,-272.0,-157.0,405.0,364.0,-639.0,36.0,-1045.0,-472.0
29.0,-271.0,-153.0,392.0,388.0,-634.0,41.0,-1028.0,-467.0
26.0,-268.0,-158.0,385.0,402.0,-628.0,24.0,-1020.0,-466.0
29.0,-268.0,-158.0,381.0,408.0,-617.0,29.0,-1007.0,-463.0
22.0,-261.0,-153.0,382.0,409.0,-606.0,17.0,-997.0,-465.0
20.0,-260.0,-158.0,390.0,401.0,-596.0,5.0,-989.0,-466.0
16.0,-256.0,-156.0,400.0,385.0,-592.0,-2.0,-961.0,-466.0
14.0,-249.0,-159.0,411.0,363.0,-587.0,-20.0,-949.0,-460.0
16.0,-249.0,-153.0,419.0,341.0,-582.0,-5.0,-944.0,-450.0
16.0,-247.0,-150.0,421.0,317.0,-580.0,2.0,-941.0,-435.0
17.0,-238.0,-142.0,416.0,291.0,-577.0,7.0,-919.0,-418.0
25.0,-232.0,-140.0,409.0,266.0,-568.0,22.0,-904.0,-406.0
23.0,-231.0,-140.0,394.0,240.0,-553.0,1.0,-877.0,-392.0
53.0,-238.0,-128.0,367.0,221.0,-535.0,114.0,-902.0,-376.0
47.0,-232.0,-135.0,335.0,184.0,-569.0,98.0,-883.0,-379.0
38.0,-225.0,-130.0,291.0,166.0,-592.0,70.0,-852.0,-371.0
41.0,-226.0,-134.0,252.0,154.0,-591.0,86.0,-856.0,-371.0
23.0,-219.0,-132.0,223.0,143.0,-594.0,65.0,-845.0,-369.0
76.0,-240.0,-94.0,190.0,178.0,-506.0,102.0,-872.0,-340.0
60.0,-239.0,-127.0,176.0,145.0,-535.0,216.0,-921.0,-325.0
28.0,-230.0,-140.0,153.0,105.0,-600.0,59.0,-886.0,-357.0
26.0,-237.0,-136.0,121.0,91.0,-596.0,48.0,-910.0,-334.0
29.0,-242.0,-122.0,106.0,73.0,-589.0,41.0,-919.0,-316.0
32.0,-247.0,-116.0,108.0,54.0,-581.0,36.0,-930.0,-308.0
31.0,-244.0,-118.0,117.0,39.0,-576.0,29.0,-948.0,-298.0
24.0,-255.0,-114.0,126.0,26.0,-569.0,20.0,-962.0,-293.0
20.0,-256.0,-112.0,136.0,11.0,-568.0,8.0,-974.0,-272.0
8.0,-256.0,-105.0,148.0,-5.0,-575.0,-1.0,-994.0,-250.0
15.0,-260.0,-103.0,167.0,-23.0,-575.0,-2.0,-984.0,-243.0
-100.0,-232.0,-126.0,190.0,-56.0,-561.0,-447.0,-898.0,-289.0
58.0,-280.0,-111.0,208.0,-22.0,-417.0,196.0,-1051.0,-196.0
34.0,-269.0,-101.0,246.0,-99.0,-508.0,83.0,-1034.0,-202.0
28.0,-266.0,-95.0,285.0,-142.0,-578.0,27.0,-1014.0,-231.0
35.0,-269.0,-88.0,300.0,-147.0,-579.0,42.0,-1022.0,-213.0
38.0,-267.0,-91.0,318.0,-148.0,-575.0,62.0,-1018.0,-207.0
42.0,-270.0,-97.0,342.0,-146.0,-572.0,71.0,-1017.0,-210.0
44.0,-270.0,-98.0,356.0,-140.0,-567.0,83.0,-1021.0,-208.0
43.0,-267.0,-98.0,361.0,-126.0,-563.0,87.0,-1016.0,-215.0
-71.0,-242.0,-144.0,364.0,-115.0,-551.0,-336.0,-937.0,-255.0
75.0,-273.0,-118.0,366.0,-40.0,-398.0,265.0,-1040.0,-216.0
57.0,-260.0,-105.0,378.0,-70.0,-503.0,158.0,-1005.0,-232.0
48.0,-253.0,-107.0,380.0,-73.0,-572.0,77.0,-968.0,-272.0
44.0,-254.0,-105.0,366.0,-47.0,-565.0,78.0,-966.0,-274.0
40.0,-254.0,-114.0,362.0,-26.0,-555.0,81.0,-961.0,-271.0
39.0,-255.0,-120.0,365.0,-19.0,-542.0,83.0,-965.0,-281.0
43.0,-256.0,-120.0,365.0,-18.0,-526.0,86.0,-971.0,-285.0
-80.0,-225.0,-150.0,355.0,-26.0,-499.0,-438.0,-861.0,-331.0
74.0,-265.0,-137.0,345.0,30.0,-308.0,232.0,-992.0,-278.0
95.0,-267.0,-117.0,348.0,-23.0,-350.0,303.0,-1014.0,-279.0
63.0,-254.0,-114.0,347.0,-65.0,-451.0,160.0,-976.0,-322.0
63.0,-256.0,-114.0,325.0,-56.0,-453.0,146.0,-966.0,-323.0
60.0,-256.0,-121.0,301.0,-43.0,-436.0,141.0,-963.0,-315.0
52.0,-252.0,-125.0,288.0,-44.0,-421.0,144.0,-971.0,-314.0
64.0,-254.0,-83.0,270.0,-27.0,-306.0,7.0,-943.0,-329.0
112.0,-273.0,-101.0,263.0,-9.0,-219.0,339.0,-1025.0,-293.0
90.0,-262.0,-125.0,269.0,-55.0,-333.0,308.0,-1001.0,-305.0
59.0,-255.0,-131.0,260.0,-79.0,-409.0,185.0,-971.0,-333.0
60.0,-257.0,-121.0,231.0,-71.0,-409.0,153.0,-973.0,-323.0
50.0,-255.0,-120.0,208.0,-71.0,-408.0,122.0,-958.0,-307.0
48.0,-256.0,-119.0,202.0,-81.0,-398.0,109.0,-973.0,-321.0
-48.0,-238.0,-164.0,190.0,-115.0,-367.0,-373.0,-880.0,-351.0
93.0,-275.0,-128.0,165.0,-79.0,-183.0,238.0,-1025.0,-313.0
89.0,-266.0,-107.0,153.0,-140.0,-274.0,245.0,-1002.0,-310.0
48.0,-249.0,-117.0,133.0,-192.0,-390.0,80.0,-955.0,-343.0
41.0,-247.0,-119.0,89.0,-197.0,-407.0,75.0,-938.0,-317.0
35.0,-236.0,-119.0,48.0,-207.0,-409.0,60.0,-910.0,-302.0
-28.0,-211.0,-113.0,17.0,-219.0,-414.0,-211.0,-828.0,-325.0
33.0,-230.0,-95.0,-22.0,-169.0,-287.0,42.0,-867.0,-263.0
72.0,-246.0,-100.0,-43.0,-153.0,-235.0,217.0,-904.0,-222.0
54.0,-229.0,-112.0,-39.0,-182.0,-361.0,140.0,-866.0,-219.0
29.0,-221.0,-105.0,-35.0,-186.0,-439.0,53.0,-839.0,-229.0
40.0,-223.0,-83.0,-47.0,-150.0,-425.0,48.0,-840.0,-206.0
61.0,-231.0,-79.0,-56.0,-114.0,-410.0,147.0,-866.0,-190.0
50.0,-236.0,-89.0,-50.0,-112.0,-460.0,94.0,-882.0,-188.0
35.0,-231.0,-91.0,-43.0,-105.0,-525.0,62.0,-870.0,-184.0
30.0,-233.0,-93.0,-20.0,-97.0,-513.0,48.0,-884.0,-191.0
51.0,-247.0,-91.0,20.0,-85.0,-502.0,105.0,-916.0,-188.0
38.0,-246.0,-96.0,57.0,-88.0,-539.0,68.0,-934.0,-198.0
48.0,-258.0,-89.0,85.0,-78.0,-561.0,69.0,-953.0,-211.0
49.0,-259.0,-91.0,100.0,-64.0,-573.0,110.0,-987.0,-210.0
50.0,-268.0,-86.0,116.0,-51.0,-582.0,99.0,-1016.0,-198.0
49.0,-279.0,-89.0,133.0,-36.0,-587.0,89.0,-1047.0,-194.0
60.0,-283.0,-85.0,152.0,-15.0,-615.0,146.0,-1073.0,-176.0
43.0,-283.0,-83.0,184.0,2.0,-674.0,85.0,-1078.0,-172.0
44.0,-293.0,-80.0,230.0,32.0,-678.0,91.0,-1109.0,-158.0
47.0,-293.0,-81.0,287.0,63.0,-682.0,95.0,-1107.0,-148.0
30.0,-285.0,-84.0,351.0,86.0,-686.0,86.0,-1099.0,-155.0
56.0,-281.0,-48.0,411.0,131.0,-586.0,-5.0,-1049.0,-152.0
107.0,-292.0,-60.0,475.0,161.0,-519.0,299.0,-1108.0,-135.0
50.0,-273.0,-90.0,534.0,108.0,-660.0,177.0,-1067.0,-145.0
45.0,-268.0,-95.0,558.0,73.0,-716.0,122.0,-1027.0,-155.0
50.0,-260.0,-78.0,559.0,52.0,-704.0,128.0,-1015.0,-142.0
58.0,-269.0,-72.0,563.0,39.0,-694.0,146.0,-1016.0,-132.0
59.0,-260.0,-65.0,561.0,39.0,-698.0,132.0,-990.0,-120.0
64.0,-258.0,-68.0,559.0,47.0,-694.0,152.0,-976.0,-113.0
-7.0,-240.0,-83.0,553.0,51.0,-648.0,-62.0,-925.0,-122.0
118.0,-267.0,-47.0,549.0,133.0,-487.0,327.0,-989.0,-92.0
117.0,-259.0,-49.0,553.0,128.0,-599.0,342.0,-987.0,-95.0
65.0,-248.0,-67.0,540.0,129.0,-720.0,173.0,-934.0,-129.0
67.0,-242.0,-82.0,515.0,172.0,-744.0,198.0,-916.0,-124.0
65.0,-231.0,-80.0,505.0,209.0,-754.0,200.0,-893.0,-125.0
71.0,-236.0,-79.0,504.0,241.0,-767.0,205.0,-897.0,-146.0
79.0,-238.0,-79.0,500.0,269.0,-778.0,210.0,-911.0,-151.0
44.0,-232.0,-77.0,492.0,280.0,-724.0,54.0,-871.0,-157.0
139.0,-255.0,-56.0,498.0,341.0,-572.0,417.0,-967.0,-156.0
147.0,-257.0,-59.0,504.0,307.0,-689.0,447.0,-976.0,-166.0
89.0,-246.0,-87.0,480.0,265.0,-812.0,269.0,-951.0,-186.0
85.0,-247.0,-94.0,429.0,276.0,-822.0,265.0,-947.0,-175.0
77.0,-244.0,-92.0,385.0,283.0,-826.0,251.0,-942.0,-180.0
80.0,-248.0,-81.0,340.0,292.0,-829.0,240.0,-948.0,-158.0
80.0,-253.0,-79.0,295.0,297.0,-829.0,221.0,-964.0,-163.0
73.0,-255.0,-89.0,255.0,312.0,-834.0,209.0,-980.0,-173.0
66.0,-258.0,-84.0,232.0,339.0,-841.0,186.0,-989.0,-176.0
-46.0,-238.0,-99.0,231.0,362.0,-823.0,-249.0,-912.0,-198.0
89.0,-268.0,-98.0,252.0,456.0,-663.0,262.0,-990.0,-160.0
111.0,-261.0,-94.0,286.0,455.0,-753.0,406.0,-1014.0,-164.0
72.0,-255.0,-89.0,281.0,438.0,-844.0,191.0,-973.0,-188.0
75.0,-256.0,-76.0,242.0,486.0,-852.0,207.0,-976.0,-167.0
77.0,-260.0,-84.0,222.0,551.0,-862.0,212.0,-977.0,-165.0
74.0,-257.0,-84.0,219.0,591.0,-862.0,207.0,-991.0,-167.0
82.0,-262.0,-82.0,228.0,617.0,-860.0,233.0,-994.0,-160.0
87.0,-261.0,-72.0,255.0,626.0,-852.0,250.0,-983.0,-121.0
90.0,-254.0,-64.0,297.0,617.0,-834.0,281.0,-969.0,-91.0
110.0,-252.0,-61.0,347.0,608.0,-811.0,323.0,-952.0,-72.0
116.0,-244.0,-65.0,390.0,604.0,-785.0,352.0,-931.0,-87.0
126.0,-241.0,-66.0,421.0,614.0,-761.0,386.0,-913.0,-107.0
127.0,-239.0,-70.0,446.0,624.0,-734.0,412.0,-897.0,-112.0
131.0,-232.0,-74.0,460.0,629.0,-708.0,424.0,-881.0,-121.0
136.0,-232.0,-77.0,465.0,647.0,-686.0,439.0,-886.0,-130.0
142.0,-233.0,-67.0,469.0,670.0,-657.0,444.0,-885.0,-129.0
142.0,-237.0,-76.0,482.0,697.0,-622.0,459.0,-905.0,-131.0
139.0,-239.0,-76.0,487.0,727.0,-592.0,447.0,-917.0,-122.0
132.0,-238.0,-67.0,486.0,756.0,-565.0,430.0,-919.0,-87.0
130.0,-243.0,-50.0,486.0,771.0,-542.0,416.0,-923.0,-65.0
126.0,-240.0,-56.0,487.0,782.0,-520.0,399.0,-920.0,-52.0
126.0,-240.0,-59.0,494.0,781.0,-493.0,392.0,-917.0,-57.0
125.0,-244.0,-64.0,504.0,766.0,-469.0,402.0,-915.0,-84.0
119.0,-238.0,-62.0,522.0,744.0,-445.0,379.0,-887.0,-72.0
121.0,-230.0,-62.0,557.0,702.0,-420.0,392.0,-870.0,-68.0
120.0,-222.0,-51.0,575.0,663.0,-393.0,379.0,-849.0,-37.0
130.0,-221.0,-47.0,571.0,611.0,-375.0,417.0,-844.0,-12.0
132.0,-221.0,-42.0,550.0,571.0,-360.0,436.0,-843.0,8.0
143.0,-226.0,-49.0,520.0,543.0,-351.0,452.0,-832.0,-11.0
137.0,-226.0,-48.0,483.0,530.0,-344.0,445.0,-851.0,-12.0
139.0,-233.0,-51.0,456.0,525.0,-336.0,441.0,-888.0,-11.0
136.0,-247.0,-50.0,446.0,515.0,-330.0,443.0,-934.0,-11.0
139.0,-258.0,-54.0,448.0,488.0,-324.0,455.0,-984.0,-15.0
128.0,-259.0,-46.0,467.0,439.0,-317.0,432.0,-989.0,3.0
136.0,-259.0,-45.0,501.0,365.0,-306.0,445.0,-988.0,3.0
140.0,-254.0,-40.0,529.0,307.0,-297.0,461.0,-968.0,5.0
139.0,-248.0,-44.0,532.0,285.0,-297.0,444.0,-957.0,0.0
137.0,-251.0,-48.0,523.0,295.0,-309.0,443.0,-938.0,-3.0
131.0,-247.0,-50.0,509.0,320.0,-320.0,432.0,-945.0,-25.0
129.0,-251.0,-59.0,498.0,332.0,-323.0,418.0,-956.0,-57.0
128.0,-249.0,-60.0,479.0,310.0,-317.0,426.0,-968.0,-44.0
132.0,-251.0,-46.0,450.0,256.0,-306.0,443.0,-968.0,-17.0
140.0,-253.0,-31.0,419.0,200.0,-298.0,463.0,-960.0,28.0
145.0,-254.0,-28.0,398.0,153.0,-307.0,468.0,-953.0,64.0
157.0,-252.0,-20.0,387.0,132.0,-325.0,503.0,-956.0,95.0
156.0,-246.0,-15.0,386.0,123.0,-345.0,502.0,-932.0,118.0
164.0,-243.0,-1.0,400.0,126.0,-360.0,532.0,-913.0,156.0
155.0,-240.0,1.0,432.0,124.0,-371.0,445.0,-944.0,141.0
186.0,-230.0,41.0,447.0,150.0,-372.0,558.0,-850.0,207.0
169.0,-228.0,-12.0,480.0,84.0,-366.0,579.0,-851.0,162.0
160.0,-222.0,-26.0,506.0,37.0,-351.0,573.0,-847.0,164.0
170.0,-222.0,-6.0,515.0,3.0,-337.0,600.0,-853.0,176.0
187.0,-220.0,10.0,509.0,-22.0,-340.0,616.0,-829.0,180.0
190.0,-222.0,15.0,493.0,-44.0,-340.0,624.0,-837.0,198.0
186.0,-218.0,8.0,481.0,-65.0,-342.0,624.0,-834.0,197.0
191.0,-223.0,1.0,467.0,-82.0,-332.0,648.0,-843.0,192.0
194.0,-228.0,1.0,451.0,-87.0,-323.0,650.0,-859.0,177.0
192.0,-232.0,2.0,429.0,-76.0,-317.0,646.0,-882.0,164.0
188.0,-234.0,3.0,409.0,-60.0,-316.0,625.0,-895.0,171.0
182.0,-237.0,1.0,406.0,-47.0,-309.0,617.0,-910.0,182.0
178.0,-241.0,-1.0,415.0,-41.0,-295.0,600.0,-911.0,173.0
175.0,-239.0,4.0,432.0,-35.0,-279.0,585.0,-907.0,190.0
158.0,-236.0,12.0,451.0,-30.0,-263.0,565.0,-891.0,205.0
165.0,-230.0,15.0,458.0,-36.0,-244.0,546.0,-871.0,224.0
162.0,-227.0,16.0,452.0,-43.0,-223.0,539.0,-865.0,232.0
159.0,-221.0,13.0,426.0,-54.0,-203.0,522.0,-852.0,224.0
152.0,-225.0,11.0,394.0,-57.0,-182.0,499.0,-858.0,217.0
147.0,-225.0,8.0,369.0,-54.0,-166.0,473.0,-858.0,210.0
138.0,-224.0,10.0,359.0,-49.0,-154.0,450.0,-856.0,201.0
136.0,-223.0,11.0,360.0,-47.0,-137.0,435.0,-854.0,196.0
139.0,-221.0,6.0,366.0,-53.0,-122.0,440.0,-840.0,187.0
144.0,-218.0,2.0,371.0,-62.0,-104.0,457.0,-830.0,178.0
146.0,-219.0,-5.0,369.0,-70.0,-89.0,463.0,-827.0,156.0
142.0,-211.0,-4.0,363.0,-86.0,-78.0,469.0,-821.0,142.0
148.0,-215.0,-5.0,351.0,-110.0,-68.0,480.0,-825.0,148.0
150.0,-217.0,1.0,333.0,-135.0,-58.0,487.0,-821.0,155.0
153.0,-216.0,-2.0,313.0,-155.0,-48.0,491.0,-814.0,163.0
147.0,-213.0,4.0,294.0,-170.0,-40.0,483.0,-818.0,171.0
149.0,-214.0,3.0,269.0,-187.0,-34.0,477.0,-817.0,183.0
148.0,-213.0,7.0,246.0,-202.0,-29.0,481.0,-825.0,188.0
149.0,-212.0,-1.0,224.0,-211.0,-26.0,480.0,-810.0,181.0
143.0,-211.0,4.0,204.0,-214.0,-17.0,469.0,-809.0,175.0
146.0,-214.0,1.0,180.0,-217.0,-18.0,466.0,-811.0,170.0
137.0,-214.0,1.0,156.0,-227.0,-21.0,453.0,-816.0,176.0
139.0,-213.0,0.0,142.0,-240.0,-18.0,460.0,-819.0,171.0
148.0,-212.0,-1.0,139.0,-259.0,-16.0,475.0,-807.0,156.0
147.0,-214.0,2.0,131.0,-275.0,-5.0,480.0,-807.0,167.0
156.0,-217.0,0.0,147.0,-288.0,28.0,509.0,-817.0,158.0
162.0,-221.0,-2.0,166.0,-291.0,44.0,530.0,-825.0,158.0
165.0,-218.0,-11.0,167.0,-284.0,16.0,538.0,-831.0,127.0
133.0,-207.0,-7.0,126.0,-275.0,-13.0,447.0,-802.0,184.0
162.0,-220.0,-5.0,140.0,-250.0,49.0,543.0,-817.0,191.0
170.0,-213.0,5.0,180.0,-234.0,65.0,542.0,-812.0,181.0
166.0,-206.0,5.0,199.0,-205.0,64.0,542.0,-792.0,166.0
260.0,-225.0,-9.0,194.0,-176.0,65.0,945.0,-868.0,149.0
125.0,-188.0,2.0,134.0,-204.0,-50.0,360.0,-730.0,128.0
149.0,-192.0,24.0,71.0,-145.0,20.0,450.0,-715.0,193.0
142.0,-189.0,0.0,67.0,-123.0,85.0,457.0,-712.0,173.0
139.0,-184.0,-4.0,66.0,-106.0,92.0,456.0,-701.0,169.0
138.0,-184.0,-7.0,48.0,-93.0,90.0,454.0,-687.0,157.0
142.0,-187.0,-2.0,28.0,-80.0,90.0,450.0,-690.0,152.0
141.0,-189.0,1.0,18.0,-77.0,97.0,455.0,-704.0,160.0
139.0,-187.0,1.0,17.0,-89.0,116.0,458.0,-716.0,178.0
219.0,-201.0,-8.0,9.0,-105.0,133.0,758.0,-773.0,186.0
127.0,-183.0,15.0,-47.0,-158.0,50.0,400.0,-703.0,173.0
149.0,-189.0,39.0,-94.0,-121.0,108.0,434.0,-701.0,250.0
153.0,-192.0,21.0,-68.0,-103.0,171.0,474.0,-722.0,237.0
144.0,-195.0,7.0,-30.0,-92.0,186.0,479.0,-730.0,227.0
146.0,-196.0,4.0,-4.0,-78.0,196.0,478.0,-748.0,208.0
149.0,-205.0,9.0,15.0,-50.0,204.0,470.0,-767.0,188.0
147.0,-208.0,7.0,31.0,-9.0,208.0,467.0,-792.0,188.0
146.0,-214.0,7.0,50.0,22.0,213.0,474.0,-813.0,196.0
146.0,-215.0,2.0,63.0,38.0,221.0,473.0,-824.0,186.0
150.0,-217.0,1.0,68.0,47.0,231.0,491.0,-829.0,177.0
151.0,-221.0,1.0,68.0,48.0,229.0,501.0,-833.0,183.0
152.0,-217.0,-1.0,58.0,41.0,225.0,502.0,-828.0,173.0
151.0,-218.0,1.0,39.0,28.0,221.0,495.0,-818.0,175.0
144.0,-218.0,-1.0,7.0,23.0,219.0,479.0,-827.0,182.0
229.0,-234.0,26.0,-38.0,35.0,188.0,714.0,-909.0,160.0
95.0,-209.0,21.0,-142.0,0.0,40.0,263.0,-796.0,212.0
131.0,-228.0,32.0,-202.0,53.0,127.0,436.0,-860.0,299.0
136.0,-229.0,19.0,-175.0,48.0,149.0,449.0,-865.0,269.0
144.0,-223.0,16.0,-125.0,45.0,138.0,466.0,-846.0,230.0
148.0,-219.0,5.0,-75.0,56.0,132.0,472.0,-831.0,186.0
142.0,-223.0,-8.0,-27.0,74.0,137.0,466.0,-841.0,141.0
142.0,-231.0,-7.0,8.0,94.0,143.0,465.0,-873.0,137.0
142.0,-236.0,-7.0,17.0,111.0,141.0,456.0,-909.0,155.0
142.0,-238.0,3.0,7.0,134.0,131.0,459.0,-924.0,179.0
139.0,-240.0,5.0,-5.0,159.0,117.0,442.0,-921.0,190.0
131.0,-242.0,7.0,-6.0,181.0,109.0,431.0,-926.0,199.0
134.0,-243.0,10.0,-5.0,189.0,98.0,432.0,-928.0,200.0
135.0,-240.0,10.0,-5.0,184.0,90.0,429.0,-919.0,210.0
135.0,-243.0,11.0,-8.0,174.0,87.0,434.0,-934.0,216.0
135.0,-245.0,15.0,-1.0,158.0,78.0,430.0,-935.0,226.0
129.0,-245.0,15.0,7.0,139.0,71.0,420.0,-937.0,238.0
135.0,-244.0,17.0,17.0,120.0,57.0,436.0,-934.0,230.0
135.0,-243.0,15.0,25.0,108.0,48.0,432.0,-932.0,235.0
135.0,-243.0,17.0,33.0,103.0,36.0,429.0,-932.0,236.0
142.0,-241.0,8.0,41.0,104.0,24.0,436.0,-923.0,233.0
140.0,-241.0,14.0,47.0,118.0,11.0,438.0,-912.0,215.0
140.0,-229.0,5.0,53.0,143.0,5.0,450.0,-875.0,195.0
146.0,-227.0,-6.0,61.0,172.0,5.0,465.0,-849.0,157.0
147.0,-224.0,-15.0,68.0,205.0,10.0,474.0,-847.0,114.0
144.0,-227.0,-22.0,62.0,231.0,16.0,463.0,-869.0,97.0
141.0,-232.0,-17.0,39.0,250.0,15.0,451.0,-886.0,98.0
131.0,-232.0,-16.0,12.0,259.0,12.0,433.0,-882.0,114.0
130.0,-227.0,-6.0,-10.0,267.0,8.0,419.0,-879.0,136.0
142.0,-235.0,-8.0,-24.0,273.0,3.0,526.0,-918.0,154.0
118.0,-231.0,-18.0,-41.0,255.0,-78.0,321.0,-871.0,111.0
86.0,-230.0,-10.0,-66.0,258.0,-99.0,318.0,-863.0,201.0
111.0,-232.0,-4.0,-31.0,250.0,-18.0,374.0,-878.0,163.0
128.0,-234.0,5.0,29.0,233.0,2.0,386.0,-872.0,142.0
125.0,-227.0,1.0,71.0,224.0,10.0,394.0,-867.0,162.0
129.0,-229.0,2.0,90.0,209.0,17.0,406.0,-862.0,180.0
131.0,-227.0,2.0,92.0,187.0,21.0,422.0,-853.0,195.0
133.0,-221.0,8.0,86.0,173.0,25.0,435.0,-842.0,200.0
138.0,-219.0,12.0,80.0,170.0,30.0,452.0,-835.0,217.0
147.0,-223.0,16.0,68.0,173.0,33.0,473.0,-837.0,230.0
144.0,-218.0,10.0,53.0,177.0,33.0,481.0,-839.0,219.0
150.0,-223.0,14.0,33.0,183.0,29.0,473.0,-850.0,233.0
140.0,-224.0,17.0,7.0,188.0,20.0,463.0,-855.0,242.0
140.0,-227.0,19.0,-12.0,191.0,6.0,446.0,-862.0,242.0
135.0,-228.0,17.0,-26.0,190.0,-10.0,434.0,-872.0,221.0
127.0,-230.0,9.0,-35.0,191.0,-28.0,413.0,-874.0,205.0
123.0,-232.0,7.0,-38.0,192.0,-43.0,387.0,-874.0,192.0
116.0,-228.0,5.0,-42.0,187.0,-57.0,365.0,-868.0,186.0
113.0,-224.0,-2.0,-39.0,181.0,-63.0,354.0,-847.0,161.0
109.0,-218.0,-9.0,-32.0,179.0,-64.0,336.0,-826.0,123.0
112.0,-214.0,-15.0,-28.0,173.0,-58.0,326.0,-812.0,106.0
109.0,-212.0,-20.0,-35.0,165.0,-51.0,339.0,-803.0,95.0
116.0,-207.0,-22.0,-49.0,155.0,-42.0,362.0,-797.0,92.0
125.0,-211.0,-14.0,-67.0,143.0,-28.0,387.0,-806.0,86.0
128.0,-213.0,-17.0,-88.0,133.0,-16.0,411.0,-807.0,103.0
131.0,-215.0,-7.0,-112.0,116.0,-7.0,421.0,-816.0,129.0
134.0,-216.0,-1.0,-134.0,98.0,0.0,436.0,-821.0,164.0
140.0,-220.0,5.0,-154.0,87.0,2.0,452.0,-836.0,181.0
145.0,-220.0,6.0,-179.0,87.0,1.0,467.0,-842.0,196.0
144.0,-224.0,11.0,-202.0,97.0,-1.0,472.0,-856.0,217.0
151.0,-229.0,15.0,-223.0,113.0,1.0,483.0,-872.0,227.0
148.0,-229.0,20.0,-243.0,130.0,2.0,486.0,-882.0,228.0
152.0,-235.0,12.0,-255.0,149.0,3.0,491.0,-899.0,220.0
155.0,-238.0,9.0,-263.0,169.0,1.0,499.0,-916.0,212.0
159.0,-239.0,12.0,-267.0,197.0,0.0,497.0,-923.0,204.0
154.0,-246.0,7.0,-271.0,226.0,-8.0,491.0,-938.0,192.0
154.0,-247.0,2.0,-278.0,257.0,-23.0,492.0,-942.0,190.0
152.0,-251.0,7.0,-284.0,285.0,-35.0,486.0,-946.0,197.0
145.0,-250.0,5.0,-292.0,304.0,-41.0,466.0,-948.0,193.0
145.0,-251.0,8.0,-295.0,316.0,-49.0,468.0,-949.0,186.0
140.0,-248.0,2.0,-298.0,318.0,-62.0,453.0,-943.0,188.0
137.0,-246.0,1.0,-299.0,308.0,-59.0,453.0,-941.0,186.0
159.0,-247.0,2.0,-297.0,296.0,-54.0,638.0,-962.0,192.0
124.0,-241.0,-43.0,-308.0,215.0,-230.0,396.0,-918.0,128.0
53.0,-218.0,-8.0,-330.0,250.0,-215.0,156.0,-844.0,184.0
129.0,-244.0,15.0,-302.0,269.0,-52.0,411.0,-928.0,198.0
141.0,-244.0,8.0,-252.0,231.0,-28.0,430.0,-929.0,176.0
135.0,-242.0,1.0,-209.0,215.0,-27.0,444.0,-921.0,171.0
136.0,-240.0,1.0,-177.0,209.0,-26.0,442.0,-926.0,174.0
135.0,-243.0,0.0,-170.0,210.0,-27.0,445.0,-931.0,170.0
138.0,-241.0,4.0,-181.0,217.0,-33.0,444.0,-921.0,173.0
139.0,-245.0,2.0,-193.0,220.0,-38.0,439.0,-934.0,175.0
135.0,-242.0,-2.0,-197.0,224.0,-43.0,436.0,-933.0,173.0
136.0,-247.0,3.0,-195.0,229.0,-51.0,434.0,-940.0,170.0
132.0,-248.0,-3.0,-180.0,238.0,-56.0,420.0,-945.0,154.0
128.0,-247.0,-3.0,-163.0,247.0,-61.0,415.0,-938.0,152.0
127.0,-250.0,0.0,-148.0,255.0,-66.0,402.0,-938.0,152.0
127.0,-248.0,0.0,-140.0,259.0,-67.0,398.0,-944.0,165.0
121.0,-246.0,5.0,-143.0,259.0,-66.0,381.0,-946.0,175.0
121.0,-246.0,3.0,-148.0,257.0,-64.0,376.0,-938.0,190.0
118.0,-242.0,5.0,-146.0,250.0,-54.0,376.0,-922.0,196.0
122.0,-238.0,2.0,-138.0,243.0,-42.0,382.0,-901.0,188.0
127.0,-229.0,1.0,-116.0,232.0,-24.0,400.0,-862.0,172.0
130.0,-222.0,1.0,-96.0,220.0,0.0,418.0,-828.0,151.0
134.0,-215.0,-10.0,-83.0,209.0,21.0,433.0,-817.0,142.0
135.0,-211.0,-8.0,-83.0,191.0,37.0,436.0,-819.0,132.0
137.0,-214.0,-4.0,-97.0,177.0,47.0,445.0,-823.0,142.0
134.0,-220.0,-4.0,-121.0,164.0,53.0,447.0,-843.0,155.0
139.0,-224.0,-3.0,-152.0,158.0,57.0,444.0,-875.0,166.0
136.0,-236.0,0.0,-186.0,160.0,53.0,439.0,-909.0,170.0
136.0,-239.0,2.0,-226.0,165.0,45.0,445.0,-918.0,172.0
134.0,-239.0,2.0,-265.0,175.0,41.0,429.0,-922.0,164.0
133.0,-240.0,-1.0,-306.0,196.0,42.0,427.0,-928.0,164.0
133.0,-243.0,1.0,-351.0,213.0,44.0,374.0,-919.0,139.0
130.0,-243.0,1.0,-396.0,231.0,57.0,413.0,-924.0,139.0
123.0,-239.0,-20.0,-430.0,238.0,74.0,405.0,-921.0,130.0
125.0,-240.0,-15.0,-467.0,241.0,85.0,395.0,-921.0,138.0
125.0,-236.0,0.0,-504.0,235.0,90.0,389.0,-923.0,139.0
145.0,-242.0,-5.0,-531.0,221.0,92.0,611.0,-945.0,164.0
86.0,-230.0,-26.0,-552.0,147.0,-8.0,230.0,-879.0,120.0
78.0,-236.0,14.0,-562.0,179.0,49.0,230.0,-899.0,188.0
102.0,-247.0,12.0,-513.0,180.0,135.0,299.0,-927.0,182.0
99.0,-245.0,8.0,-444.0,169.0,145.0,293.0,-920.0,186.0
93.0,-231.0,3.0,-371.0,159.0,144.0,291.0,-875.0,187.0
93.0,-227.0,2.0,-299.0,142.0,152.0,284.0,-850.0,198.0
88.0,-223.0,4.0,-237.0,115.0,162.0,283.0,-828.0,190.0
93.0,-220.0,2.0,-187.0,81.0,166.0,283.0,-814.0,189.0
100.0,-212.0,-4.0,-144.0,39.0,162.0,273.0,-816.0,170.0
98.0,-210.0,7.0,-116.0,-7.0,160.0,295.0,-787.0,184.0
99.0,-210.0,7.0,-79.0,-37.0,135.0,306.0,-793.0,179.0
107.0,-208.0,3.0,-50.0,-68.0,107.0,330.0,-800.0,176.0
112.0,-213.0,3.0,-34.0,-94.0,78.0,342.0,-803.0,189.0
116.0,-216.0,6.0,-18.0,-120.0,51.0,364.0,-814.0,192.0
121.0,-219.0,4.0,-5.0,-145.0,24.0,379.0,-819.0,191.0
124.0,-220.0,9.0,16.0,-165.0,1.0,388.0,-830.0,195.0
128.0,-224.0,7.0,41.0,-182.0,-14.0,405.0,-837.0,193.0
127.0,-223.0,5.0,72.0,-201.0,-23.0,413.0,-836.0,196.0
132.0,-223.0,7.0,101.0,-222.0,-26.0,419.0,-843.0,197.0
133.0,-226.0,12.0,128.0,-245.0,-25.0,428.0,-841.0,197.0
133.0,-224.0,8.0,152.0,-269.0,-21.0,426.0,-838.0,193.0
130.0,-220.0,7.0,169.0,-290.0,-14.0,421.0,-829.0,195.0
128.0,-216.0,11.0,180.0,-309.0,-8.0,416.0,-822.0,199.0
129.0,-213.0,3.0,188.0,-322.0,0.0,412.0,-818.0,203.0
127.0,-211.0,11.0,194.0,-327.0,9.0,406.0,-807.0,204.0
126.0,-205.0,9.0,199.0,-327.0,19.0,399.0,-789.0,204.0
124.0,-201.0,11.0,190.0,-320.0,30.0,388.0,-770.0,201.0
121.0,-194.0,9.0,167.0,-312.0,47.0,374.0,-755.0,203.0
121.0,-198.0,8.0,138.0,-306.0,62.0,374.0,-740.0,210.0
115.0,-191.0,9.0,99.0,-303.0,77.0,365.0,-733.0,214.0
120.0,-190.0,18.0,55.0,-299.0,94.0,365.0,-728.0,219.0
120.0,-187.0,12.0,10.0,-297.0,112.0,360.0,-733.0,229.0
116.0,-192.0,19.0,-39.0,-293.0,132.0,358.0,-735.0,236.0
116.0,-195.0,17.0,-83.0,-289.0,152.0,360.0,-736.0,240.0
112.0,-194.0,15.0,-128.0,-284.0,168.0,347.0,-752.0,240.0
113.0,-201.0,17.0,-171.0,-279.0,180.0,356.0,-757.0,228.0
118.0,-203.0,13.0,-206.0,-278.0,190.0,365.0,-779.0,217.0
120.0,-204.0,7.0,-232.0,-279.0,197.0,380.0,-783.0,195.0
125.0,-210.0,1.0,-255.0,-282.0,201.0,391.0,-801.0,178.0
125.0,-213.0,-1.0,-271.0,-292.0,201.0,400.0,-819.0,163.0
131.0,-227.0,0.0,-277.0,-307.0,200.0,407.0,-843.0,148.0
132.0,-231.0,-4.0,-274.0,-324.0,192.0,419.0,-880.0,134.0
132.0,-238.0,-11.0,-256.0,-337.0,180.0,428.0,-911.0,126.0
137.0,-249.0,-16.0,-225.0,-346.0,169.0,440.0,-929.0,113.0
139.0,-253.0,-14.0,-185.0,-349.0,159.0,453.0,-951.0,103.0
144.0,-257.0,-13.0,-142.0,-346.0,156.0,465.0,-968.0,107.0
154.0,-265.0,-12.0,-99.0,-336.0,156.0,485.0,-992.0,117.0
159.0,-264.0,-7.0,-59.0,-324.0,160.0,499.0,-1007.0,131.0
158.0,-263.0,-6.0,-25.0,-309.0,170.0,520.0,-1011.0,141.0
164.0,-263.0,0.0,-1.0,-292.0,182.0,531.0,-999.0,149.0
164.0,-260.0,-8.0,20.0,-269.0,193.0,535.0,-990.0,148.0
161.0,-254.0,-7.0,33.0,-247.0,205.0,538.0,-969.0,148.0
164.0,-252.0,4.0,44.0,-230.0,217.0,533.0,-957.0,149.0
162.0,-249.0,5.0,53.0,-222.0,224.0,531.0,-950.0,158.0
157.0,-247.0,0.0,56.0,-222.0,226.0,515.0,-937.0,164.0
154.0,-246.0,0.0,58.0,-228.0,228.0,501.0,-922.0,168.0
146.0,-241.0,2.0,61.0,-235.0,230.0,484.0,-916.0,171.0
144.0,-239.0,0.0,61.0,-244.0,228.0,461.0,-904.0,167.0
136.0,-227.0,3.0,54.0,-252.0,220.0,438.0,-876.0,170.0
131.0,-225.0,0.0,35.0,-259.0,216.0,429.0,-863.0,180.0
129.0,-225.0,6.0,8.0,-269.0,213.0,412.0,-863.0,185.0
126.0,-226.0,10.0,-23.0,-283.0,210.0,393.0,-863.0,195.0
122.0,-228.0,8.0,-55.0,-298.0,207.0,382.0,-862.0,209.0
117.0,-231.0,6.0,-89.0,-320.0,205.0,385.0,-871.0,211.0
124.0,-226.0,12.0,-121.0,-341.0,207.0,385.0,-866.0,205.0
125.0,-221.0,7.0,-151.0,-367.0,206.0,391.0,-850.0,197.0
126.0,-217.0,9.0,-185.0,-397.0,211.0,394.0,-835.0,193.0
116.0,-228.0,4.0,-213.0,-423.0,217.0,381.0,-859.0,182.0
127.0,-216.0,0.0,-252.0,-453.0,202.0,412.0,-827.0,175.0
125.0,-215.0,2.0,-293.0,-478.0,210.0,408.0,-829.0,180.0
131.0,-215.0,2.0,-337.0,-499.0,215.0,421.0,-827.0,171.0
134.0,-217.0,0.0,-386.0,-515.0,211.0,421.0,-836.0,168.0
134.0,-217.0,-1.0,-446.0,-534.0,196.0,434.0,-825.0,149.0
134.0,-222.0,-4.0,-486.0,-552.0,184.0,429.0,-825.0,132.0
133.0,-218.0,-21.0,-511.0,-562.0,165.0,419.0,-842.0,102.0
126.0,-226.0,-27.0,-521.0,-561.0,148.0,416.0,-865.0,67.0
129.0,-238.0,-37.0,-517.0,-551.0,135.0,410.0,-884.0,44.0
130.0,-244.0,-37.0,-502.0,-533.0,129.0,414.0,-920.0,34.0
128.0,-255.0,-36.0,-486.0,-506.0,130.0,410.0,-952.0,35.0
128.0,-257.0,-33.0,-470.0,-479.0,132.0,410.0,-971.0,47.0
128.0,-259.0,-35.0,-446.0,-454.0,141.0,403.0,-983.0,43.0
130.0,-261.0,-45.0,-413.0,-430.0,155.0,411.0,-982.0,11.0
127.0,-264.0,-49.0,-369.0,-399.0,176.0,396.0,-992.0,-15.0
119.0,-263.0,-50.0,-315.0,-371.0,191.0,373.0,-990.0,-23.0
124.0,-266.0,-35.0,-271.0,-346.0,203.0,382.0,-1013.0,5.0
129.0,-267.0,-40.0,-244.0,-337.0,211.0,402.0,-1011.0,33.0
129.0,-262.0,-35.0,-224.0,-336.0,229.0,412.0,-995.0,54.0
128.0,-256.0,-39.0,-195.0,-339.0,246.0,421.0,-970.0,34.0
135.0,-248.0,-40.0,-164.0,-333.0,260.0,429.0,-943.0,-1.0
132.0,-240.0,-53.0,-135.0,-307.0,267.0,421.0,-924.0,-31.0
130.0,-243.0,-53.0,-110.0,-265.0,278.0,408.0,-914.0,-30.0
129.0,-242.0,-45.0,-98.0,-214.0,296.0,412.0,-918.0,-9.0
130.0,-238.0,-39.0,-104.0,-174.0,311.0,419.0,-915.0,23.0
134.0,-237.0,-38.0,-110.0,-148.0,335.0,433.0,-913.0,26.0
138.0,-239.0,-40.0,-105.0,-136.0,356.0,432.0,-911.0,10.0
143.0,-246.0,-47.0,-107.0,-139.0,377.0,462.0,-922.0,-19.0
153.0,-247.0,-45.0,-116.0,-153.0,402.0,478.0,-945.0,-27.0
158.0,-250.0,-35.0,-126.0,-163.0,419.0,505.0,-954.0,-18.0
151.0,-250.0,-40.0,-137.0,-157.0,425.0,480.0,-951.0,-1.0
160.0,-250.0,-41.0,-156.0,-140.0,422.0,518.0,-940.0,23.0
159.0,-240.0,-19.0,-180.0,-111.0,440.0,520.0,-937.0,69.0
138.0,-238.0,-10.0,-218.0,-74.0,448.0,450.0,-909.0,108.0
138.0,-221.0,-11.0,-250.0,-49.0,417.0,453.0,-851.0,126.0
130.0,-216.0,-28.0,-262.0,-57.0,394.0,417.0,-828.0,88.0
120.0,-216.0,-43.0,-284.0,-73.0,385.0,395.0,-813.0,47.0
116.0,-219.0,-41.0,-327.0,-75.0,380.0,356.0,-822.0,16.0
102.0,-225.0,-36.0,-382.0,-81.0,382.0,323.0,-853.0,19.0
107.0,-227.0,-38.0,-431.0,-83.0,378.0,335.0,-868.0,25.0
83.0,-238.0,-36.0,-454.0,-98.0,384.0,270.0,-913.0,31.0
83.0,-244.0,-38.0,-458.0,-114.0,371.0,266.0,-925.0,33.0
75.0,-252.0,-33.0,-445.0,-151.0,369.0,228.0,-945.0,37.0
70.0,-250.0,-29.0,-438.0,-189.0,372.0,191.0,-954.0,47.0
64.0,-248.0,-31.0,-430.0,-227.0,377.0,175.0,-949.0,48.0
61.0,-251.0,-36.0,-422.0,-249.0,372.0,132.0,-944.0,47.0
63.0,-253.0,-27.0,-419.0,-261.0,368.0,140.0,-962.0,48.0
67.0,-256.0,-22.0,-422.0,-256.0,367.0,181.0,-981.0,59.0
64.0,-257.0,-24.0,-423.0,-249.0,361.0,172.0,-979.0,69.0
62.0,-250.0,-31.0,-414.0,-258.0,348.0,173.0,-961.0,52.0
68.0,-245.0,-39.0,-402.0,-285.0,331.0,215.0,-929.0,27.0
68.0,-248.0,-44.0,-385.0,-325.0,332.0,211.0,-954.0,25.0
77.0,-260.0,-39.0,-369.0,-376.0,331.0,226.0,-993.0,18.0
83.0,-268.0,-41.0,-341.0,-423.0,323.0,240.0,-1016.0,5.0
78.0,-270.0,-44.0,-310.0,-454.0,322.0,235.0,-1027.0,-4.0
85.0,-268.0,-52.0,-283.0,-460.0,323.0,258.0,-1028.0,-15.0
85.0,-267.0,-48.0,-263.0,-446.0,324.0,250.0,-1018.0,-31.0
88.0,-264.0,-58.0,-232.0,-434.0,320.0,257.0,-1004.0,-60.0
91.0,-260.0,-65.0,-196.0,-430.0,322.0,279.0,-1001.0,-87.0
91.0,-262.0,-69.0,-161.0,-426.0,323.0,279.0,-999.0,-104.0
103.0,-260.0,-71.0,-129.0,-417.0,330.0,324.0,-1001.0,-104.0
100.0,-266.0,-63.0,-98.0,-407.0,345.0,318.0,-1007.0,-98.0
106.0,-265.0,-59.0,-71.0,-401.0,362.0,328.0,-1011.0,-76.0
105.0,-268.0,-55.0,-47.0,-391.0,371.0,304.0,-1012.0,-43.0
104.0,-263.0,-48.0,-24.0,-383.0,379.0,316.0,-1007.0,-22.0
103.0,-259.0,-46.0,-12.0,-384.0,386.0,318.0,-996.0,2.0
108.0,-257.0,-40.0,2.0,-383.0,384.0,326.0,-976.0,12.0
105.0,-256.0,-43.0,16.0,-386.0,386.0,320.0,-972.0,3.0
100.0,-254.0,-44.0,31.0,-392.0,390.0,315.0,-974.0,3.0
99.0,-254.0,-46.0,36.0,-396.0,388.0,302.0,-970.0,0.0
106.0,-254.0,-49.0,33.0,-399.0,389.0,315.0,-967.0,-7.0
97.0,-252.0,-46.0,22.0,-397.0,394.0,305.0,-960.0,-15.0
96.0,-251.0,-39.0,9.0,-397.0,398.0,293.0,-955.0,-44.0
91.0,-251.0,-60.0,-11.0,-405.0,401.0,291.0,-956.0,-59.0
87.0,-252.0,-62.0,-32.0,-415.0,410.0,266.0,-965.0,-70.0
82.0,-257.0,-64.0,-43.0,-432.0,419.0,239.0,-970.0,-75.0
79.0,-256.0,-63.0,-40.0,-446.0,425.0,230.0,-975.0,-70.0
78.0,-257.0,-60.0,-30.0,-456.0,433.0,224.0,-982.0,-75.0
70.0,-256.0,-62.0,-23.0,-462.0,439.0,197.0,-978.0,-66.0
71.0,-258.0,-57.0,-26.0,-465.0,448.0,207.0,-989.0,-56.0
76.0,-262.0,-49.0,-44.0,-469.0,458.0,210.0,-997.0,-46.0
75.0,-262.0,-51.0,-68.0,-481.0,468.0,203.0,-1009.0,-37.0
72.0,-269.0,-56.0,-92.0,-493.0,479.0,216.0,-1024.0,-41.0
76.0,-267.0,-60.0,-105.0,-510.0,490.0,222.0,-1028.0,-56.0
77.0,-273.0,-60.0,-114.0,-531.0,503.0,218.0,-1054.0,-71.0
74.0,-282.0,-65.0,-118.0,-548.0,517.0,208.0,-1069.0,-82.0
77.0,-286.0,-69.0,-109.0,-557.0,531.0,231.0,-1084.0,-88.0
86.0,-285.0,-66.0,-84.0,-558.0,543.0,248.0,-1086.0,-91.0
90.0,-284.0,-67.0,-54.0,-543.0,552.0,247.0,-1075.0,-110.0
89.0,-280.0,-69.0,-17.0,-513.0,556.0,262.0,-1068.0,-121.0
90.0,-276.0,-75.0,19.0,-484.0,555.0,279.0,-1058.0,-135.0
92.0,-270.0,-79.0,45.0,-460.0,554.0,284.0,-1035.0,-137.0
99.0,-267.0,-86.0,64.0,-440.0,551.0,302.0,-1022.0,-136.0
99.0,-263.0,-74.0,69.0,-417.0,550.0,290.0,-1015.0,-128.0
102.0,-267.0,-74.0,66.0,-388.0,548.0,304.0,-1012.0,-121.0
101.0,-264.0,-70.0,61.0,-356.0,545.0,301.0,-1013.0,-117.0
91.0,-266.0,-69.0,53.0,-318.0,542.0,270.0,-1016.0,-107.0
84.0,-268.0,-68.0,48.0,-282.0,542.0,250.0,-1025.0,-85.0
77.0,-267.0,-64.0,50.0,-253.0,540.0,232.0,-1027.0,-77.0
73.0,-271.0,-61.0,49.0,-234.0,537.0,199.0,-1032.0,-71.0
68.0,-267.0,-53.0,46.0,-224.0,532.0,209.0,-1034.0,-53.0
64.0,-266.0,-50.0,44.0,-221.0,527.0,175.0,-1029.0,-51.0
59.0,-267.0,-59.0,40.0,-223.0,520.0,159.0,-1020.0,-42.0
54.0,-266.0,-54.0,43.0,-222.0,512.0,137.0,-1013.0,-36.0
52.0,-261.0,-60.0,47.0,-216.0,502.0,140.0,-1005.0,-46.0
54.0,-259.0,-53.0,48.0,-204.0,491.0,136.0,-1005.0,-29.0
56.0,-263.0,-55.0,47.0,-190.0,477.0,144.0,-1002.0,-37.0
62.0,-262.0,-50.0,39.0,-169.0,463.0,134.0,-1002.0,-39.0
58.0,-258.0,-58.0,31.0,-151.0,447.0,138.0,-994.0,-45.0
61.0,-260.0,-59.0,18.0,-138.0,433.0,136.0,-990.0,-52.0
57.0,-256.0,-57.0,0.0,-125.0,420.0,134.0,-976.0,-69.0
55.0,-256.0,-62.0,-18.0,-113.0,409.0,126.0,-968.0,-85.0
52.0,-253.0,-65.0,-39.0,-99.0,400.0,123.0,-967.0,-92.0
50.0,-253.0,-71.0,-53.0,-91.0,388.0,127.0,-956.0,-98.0
54.0,-253.0,-69.0,-57.0,-85.0,379.0,114.0,-959.0,-98.0
49.0,-256.0,-59.0,-58.0,-80.0,376.0,87.0,-958.0,-107.0
47.0,-254.0,-66.0,-55.0,-70.0,374.0,94.0,-966.0,-99.0
44.0,-255.0,-68.0,-51.0,-67.0,374.0,90.0,-965.0,-96.0
42.0,-255.0,-71.0,-39.0,-55.0,375.0,85.0,-961.0,-101.0
41.0,-255.0,-71.0,-21.0,-37.0,373.0,77.0,-962.0,-108.0
42.0,-256.0,-70.0,-4.0,-15.0,376.0,67.0,-964.0,-100.0
43.0,-256.0,-68.0,7.0,0.0,379.0,80.0,-969.0,-108.0
41.0,-260.0,-68.0,15.0,5.0,381.0,78.0,-981.0,-103.0
35.0,-258.0,-72.0,24.0,-3.0,385.0,54.0,-983.0,-118.0
32.0,-263.0,-71.0,32.0,-19.0,394.0,36.0,-996.0,-121.0
25.0,-265.0,-79.0,37.0,-43.0,399.0,18.0,-1016.0,-124.0
22.0,-275.0,-75.0,38.0,-65.0,400.0,13.0,-1040.0,-119.0
6.0,-268.0,-90.0,51.0,-83.0,359.0,14.0,-1045.0,-120.0
-21.0,-271.0,-90.0,62.0,-124.0,319.0,-161.0,-1026.0,-129.0
10.0,-284.0,-73.0,84.0,-115.0,407.0,-31.0,-1077.0,-109.0
17.0,-283.0,-62.0,113.0,-118.0,413.0,-23.0,-1076.0,-102.0
16.0,-280.0,-63.0,149.0,-120.0,412.0,-23.0,-1071.0,-96.0
18.0,-283.0,-64.0,189.0,-124.0,412.0,-10.0,-1071.0,-89.0
-11.0,-264.0,-111.0,227.0,-133.0,319.0,70.0,-1044.0,-102.0
-51.0,-261.0,-102.0,247.0,-176.0,245.0,-256.0,-1003.0,-108.0
21.0,-280.0,-66.0,268.0,-145.0,388.0,20.0,-1081.0,-79.0
40.0,-279.0,-52.0,288.0,-142.0,393.0,42.0,-1066.0,-86.0
48.0,-277.0,-55.0,306.0,-134.0,381.0,56.0,-1051.0,-86.0
40.0,-271.0,-61.0,328.0,-125.0,360.0,70.0,-1043.0,-81.0
38.0,-268.0,-66.0,344.0,-117.0,340.0,84.0,-1030.0,-75.0
177.0,-299.0,-27.0,353.0,-115.0,320.0,696.0,-1140.0,-43.0
6.0,-241.0,-31.0,347.0,-199.0,109.0,-89.0,-926.0,-74.0
8.0,-259.0,-42.0,352.0,-152.0,180.0,-118.0,-976.0,-57.0
28.0,-266.0,-57.0,368.0,-114.0,279.0,55.0,-1021.0,-42.0
29.0,-259.0,-63.0,379.0,-112.0,271.0,48.0,-1000.0,-31.0
42.0,-265.0,-55.0,385.0,-121.0,252.0,42.0,-1019.0,-4.0
15.0,-244.0,-85.0,392.0,-153.0,82.0,171.0,-935.0,-16.0
-9.0,-246.0,-42.0,386.0,-188.0,68.0,-120.0,-960.0,-2.0
19.0,-266.0,-21.0,385.0,-176.0,168.0,-27.0,-1012.0,23.0
44.0,-271.0,-26.0,379.0,-179.0,182.0,64.0,-1033.0,27.0
9.0,-267.0,-32.0,366.0,-211.0,145.0,-39.0,-1003.0,30.0
5.0,-271.0,-37.0,365.0,-225.0,154.0,-39.0,-1032.0,42.0
4.0,-272.0,-38.0,377.0,-242.0,163.0,-58.0,-1042.0,41.0
0.0,-275.0,-28.0,394.0,-254.0,174.0,-73.0,-1064.0,49.0
9.0,-280.0,-34.0,407.0,-272.0,186.0,-35.0,-1071.0,53.0
19.0,-279.0,-25.0,429.0,-285.0,175.0,0.0,-1074.0,55.0
7.0,-277.0,-33.0,453.0,-305.0,155.0,-53.0,-1061.0,55.0
2.0,-276.0,-36.0,480.0,-307.0,177.0,-59.0,-1060.0,48.0
16.0,-277.0,-33.0,502.0,-303.0,202.0,-22.0,-1066.0,43.0
45.0,-283.0,-32.0,520.0,-301.0,191.0,95.0,-1073.0,39.0
9.0,-269.0,-40.0,525.0,-312.0,140.0,-36.0,-1030.0,35.0
7.0,-269.0,-33.0,527.0,-293.0,167.0,-47.0,-1042.0,39.0
15.0,-278.0,-30.0,529.0,-271.0,213.0,-31.0,-1062.0,34.0
25.0,-282.0,-31.0,533.0,-259.0,235.0,10.0,-1076.0,37.0
25.0,-278.0,-40.0,537.0,-255.0,235.0,12.0,-1067.0,34.0
36.0,-284.0,-42.0,543.0,-252.0,237.0,43.0,-1075.0,30.0
26.0,-265.0,-63.0,537.0,-294.0,123.0,97.0,-1042.0,12.0
-24.0,-265.0,-42.0,529.0,-306.0,91.0,-160.0,-1008.0,29.0
8.0,-279.0,-23.0,551.0,-280.0,208.0,-81.0,-1062.0,46.0
29.0,-278.0,-28.0,588.0,-280.0,270.0,-15.0,-1061.0,38.0
18.0,-271.0,-33.0,619.0,-293.0,285.0,-1.0,-1036.0,37.0
21.0,-267.0,-32.0,643.0,-304.0,292.0,3.0,-1022.0,45.0
76.0,-273.0,-21.0,657.0,-313.0,287.0,226.0,-1046.0,50.0
7.0,-250.0,-23.0,638.0,-362.0,197.0,-52.0,-948.0,49.0
-1.0,-254.0,-24.0,632.0,-362.0,246.0,-100.0,-959.0,69.0
15.0,-252.0,-20.0,639.0,-356.0,324.0,-23.0,-982.0,78.0
22.0,-251.0,-28.0,646.0,-359.0,348.0,5.0,-979.0,71.0
28.0,-251.0,-24.0,638.0,-353.0,346.0,18.0,-963.0,64.0
90.0,-257.0,-9.0,619.0,-332.0,315.0,274.0,-981.0,64.0
5.0,-237.0,-12.0,571.0,-351.0,202.0,-64.0,-910.0,96.0
9.0,-247.0,-18.0,538.0,-320.0,244.0,-38.0,-944.0,118.0
31.0,-254.0,-14.0,505.0,-287.0,285.0,34.0,-966.0,122.0
25.0,-252.0,-9.0,464.0,-262.0,274.0,25.0,-962.0,130.0
17.0,-252.0,-4.0,416.0,-237.0,266.0,-22.0,-967.0,161.0
24.0,-258.0,2.0,375.0,-210.0,293.0,0.0,-999.0,170.0
29.0,-265.0,5.0,343.0,-186.0,315.0,22.0,-1015.0,190.0
31.0,-270.0,6.0,316.0,-165.0,324.0,33.0,-1035.0,196.0
29.0,-272.0,10.0,293.0,-147.0,331.0,36.0,-1049.0,199.0
35.0,-275.0,14.0,283.0,-137.0,342.0,40.0,-1066.0,203.0
29.0,-277.0,12.0,291.0,-134.0,352.0,45.0,-1071.0,207.0
39.0,-276.0,6.0,305.0,-141.0,361.0,59.0,-1070.0,205.0
79.0,-282.0,12.0,327.0,-152.0,366.0,224.0,-1086.0,202.0
20.0,-268.0,16.0,344.0,-190.0,306.0,-1.0,-1023.0,213.0
37.0,-275.0,18.0,379.0,-201.0,341.0,57.0,-1048.0,232.0
48.0,-273.0,17.0,429.0,-215.0,367.0,95.0,-1034.0,237.0
52.0,-266.0,19.0,472.0,-223.0,363.0,111.0,-1017.0,240.0
52.0,-257.0,21.0,501.0,-227.0,349.0,117.0,-994.0,238.0
57.0,-251.0,19.0,518.0,-231.0,332.0,132.0,-969.0,244.0
102.0,-254.0,28.0,522.0,-231.0,308.0,299.0,-970.0,240.0
43.0,-232.0,28.0,499.0,-261.0,214.0,68.0,-881.0,251.0
45.0,-237.0,27.0,481.0,-256.0,226.0,61.0,-884.0,265.0
48.0,-227.0,31.0,466.0,-242.0,244.0,96.0,-877.0,263.0
47.0,-226.0,31.0,450.0,-224.0,239.0,90.0,-872.0,265.0
34.0,-222.0,28.0,426.0,-200.0,221.0,40.0,-850.0,277.0
21.0,-221.0,27.0,396.0,-172.0,216.0,20.0,-848.0,286.0
25.0,-224.0,27.0,369.0,-148.0,214.0,13.0,-848.0,299.0
20.0,-221.0,29.0,340.0,-131.0,209.0,-7.0,-850.0,307.0
23.0,-224.0,44.0,315.0,-112.0,201.0,5.0,-851.0,310.0
17.0,-221.0,41.0,288.0,-97.0,187.0,-19.0,-845.0,311.0
7.0,-220.0,38.0,263.0,-83.0,185.0,-60.0,-847.0,312.0
18.0,-222.0,30.0,244.0,-69.0,194.0,-34.0,-857.0,299.0
12.0,-220.0,27.0,227.0,-61.0,184.0,-18.0,-845.0,289.0
5.0,-221.0,21.0,206.0,-49.0,176.0,-59.0,-854.0,267.0
11.0,-226.0,23.0,186.0,-36.0,182.0,-33.0,-871.0,260.0
12.0,-228.0,21.0,163.0,-29.0,176.0,-33.0,-878.0,244.0
10.0,-229.0,12.0,139.0,-21.0,159.0,-39.0,-881.0,221.0
8.0,-232.0,14.0,111.0,-13.0,153.0,-42.0,-887.0,220.0
10.0,-234.0,9.0,81.0,-6.0,139.0,-44.0,-895.0,201.0
11.0,-236.0,16.0,51.0,1.0,121.0,-32.0,-916.0,197.0
9.0,-241.0,6.0,21.0,7.0,104.0,-38.0,-919.0,189.0
19.0,-246.0,7.0,-2.0,15.0,93.0,-10.0,-940.0,178.0
6.0,-246.0,2.0,-23.0,19.0,68.0,-52.0,-938.0,176.0
8.0,-250.0,0.0,-35.0,28.0,57.0,-53.0,-945.0,163.0
6.0,-247.0,-4.0,-44.0,43.0,52.0,-52.0,-945.0,149.0
14.0,-246.0,-4.0,-47.0,60.0,44.0,-30.0,-943.0,142.0
9.0,-242.0,-9.0,-54.0,77.0,29.0,-39.0,-929.0,130.0
6.0,-241.0,-8.0,-63.0,96.0,19.0,-52.0,-923.0,123.0
4.0,-238.0,-7.0,-73.0,114.0,19.0,-63.0,-920.0,126.0
6.0,-242.0,-12.0,-86.0,130.0,23.0,-48.0,-919.0,125.0
8.0,-239.0,-11.0,-99.0,140.0,19.0,-48.0,-915.0,127.0
7.0,-240.0,-17.0,-113.0,144.0,14.0,-41.0,-922.0,128.0
9.0,-241.0,-7.0,-129.0,147.0,5.0,-44.0,-925.0,135.0
9.0,-244.0,-8.0,-145.0,145.0,-3.0,-37.0,-931.0,138.0
6.0,-245.0,-2.0,-157.0,141.0,-13.0,-43.0,-940.0,146.0
6.0,-249.0,0.0,-165.0,133.0,-27.0,-49.0,-944.0,144.0
9.0,-252.0,-1.0,-172.0,125.0,-38.0,-45.0,-951.0,147.0
6.0,-251.0,-4.0,-174.0,108.0,-48.0,-43.0,-957.0,149.0
9.0,-254.0,-9.0,-177.0,95.0,-60.0,-38.0,-960.0,146.0
12.0,-255.0,-8.0,-179.0,82.0,-74.0,-36.0,-965.0,142.0
14.0,-255.0,-4.0,-182.0,70.0,-84.0,-32.0,-965.0,139.0
16.0,-252.0,-4.0,-185.0,61.0,-95.0,-25.0,-967.0,137.0
17.0,-254.0,-5.0,-189.0,59.0,-106.0,-26.0,-968.0,144.0
18.0,-253.0,-3.0,-196.0,59.0,-116.0,-8.0,-974.0,136.0
14.0,-253.0,-5.0,-206.0,60.0,-128.0,-23.0,-968.0,139.0
12.0,-249.0,-4.0,-219.0,67.0,-131.0,-16.0,-972.0,146.0
17.0,-255.0,-3.0,-229.0,75.0,-136.0,-14.0,-967.0,151.0
17.0,-252.0,-1.0,-242.0,87.0,-139.0,-19.0,-967.0,146.0
18.0,-254.0,-1.0,-255.0,99.0,-143.0,-16.0,-969.0,153.0
16.0,-251.0,-2.0,-266.0,112.0,-147.0,-18.0,-965.0,159.0
16.0,-253.0,0.0,-276.0,124.0,-147.0,-24.0,-964.0,162.0
17.0,-255.0,2.0,-286.0,136.0,-149.0,-24.0,-968.0,167.0
15.0,-255.0,1.0,-292.0,147.0,-148.0,-27.0,-969.0,164.0
13.0,-253.0,3.0,-296.0,155.0,-148.0,-33.0,-978.0,170.0
13.0,-260.0,6.0,-297.0,163.0,-150.0,-37.0,-989.0,170.0
11.0,-256.0,0.0,-296.0,168.0,-155.0,-44.0,-993.0,174.0
9.0,-261.0,4.0,-289.0,169.0,-158.0,-44.0,-996.0,180.0
10.0,-262.0,5.0,-280.0,166.0,-162.0,-39.0,-1007.0,185.0
10.0,-265.0,5.0,-269.0,159.0,-166.0,-38.0,-1018.0,184.0
7.0,-269.0,7.0,-259.0,150.0,-168.0,-45.0,-1023.0,192.0
9.0,-269.0,7.0,-244.0,139.0,-172.0,-41.0,-1019.0,192.0
9.0,-271.0,4.0,-225.0,126.0,-176.0,-45.0,-1032.0,188.0
10.0,-271.0,7.0,-203.0,114.0,-177.0,-47.0,-1035.0,195.0
9.0,-272.0,4.0,-179.0,103.0,-182.0,-38.0,-1042.0,192.0
12.0,-271.0,5.0,-158.0,94.0,-188.0,-42.0,-1047.0,193.0
14.0,-271.0,2.0,-137.0,90.0,-194.0,-38.0,-1041.0,189.0
14.0,-270.0,8.0,-118.0,87.0,-202.0,-34.0,-1036.0,187.0
