acc1_x,acc1_y,acc1_z,gyro_x,gyro_y,gyro_z,acc2_x,acc2_y,acc2_z
-22.0,-247.0,-59.0,-7.0,62.0,-6.0,-125.0,-964.0,-159.0
-26.0,-249.0,-60.0,-10.0,63.0,-7.0,-123.0,-961.0,-159.0
-23.0,-249.0,-62.0,-11.0,64.0,-7.0,-121.0,-963.0,-159.0
-23.0,-249.0,-60.0,-13.0,65.0,-4.0,-120.0,-960.0,-161.0
-23.0,-253.0,-61.0,-15.0,64.0,-6.0,-123.0,-957.0,-158.0
-26.0,-243.0,-75.0,-16.0,63.0,-5.0,-116.0,-967.0,-162.0
-21.0,-252.0,-58.0,-14.0,64.0,-3.0,-121.0,-965.0,-155.0
-22.0,-251.0,-58.0,-12.0,66.0,-2.0,-117.0,-965.0,-161.0
-21.0,-252.0,-55.0,-9.0,67.0,-4.0,-119.0,-969.0,-155.0
-23.0,-250.0,-61.0,-8.0,67.0,-1.0,-116.0,-971.0,-162.0
-21.0,-255.0,-58.0,-9.0,67.0,-3.0,-119.0,-969.0,-164.0
-24.0,-252.0,-58.0,-8.0,69.0,-1.0,-118.0,-966.0,-152.0
-21.0,-249.0,-58.0,-5.0,69.0,-2.0,-121.0,-968.0,-161.0
-23.0,-253.0,-60.0,-4.0,70.0,0.0,-122.0,-968.0,-160.0
-22.0,-252.0,-60.0,1.0,70.0,-2.0,-121.0,-969.0,-161.0
-25.0,-250.0,-60.0,3.0,71.0,-2.0,-123.0,-963.0,-158.0
-25.0,-248.0,-58.0,4.0,72.0,-4.0,-122.0,-962.0,-160.0
-22.0,-251.0,-59.0,3.0,71.0,-2.0,-123.0,-962.0,-156.0
-26.0,-247.0,-59.0,5.0,71.0,-2.0,-120.0,-956.0,-160.0
-24.0,-249.0,-59.0,4.0,72.0,-2.0,-124.0,-958.0,-160.0
-27.0,-247.0,-59.0,4.0,72.0,-3.0,-123.0,-961.0,-158.0
-22.0,-250.0,-59.0,1.0,72.0,-1.0,-119.0,-958.0,-160.0
-22.0,-250.0,-59.0,-1.0,73.0,-4.0,-122.0,-957.0,-159.0
-25.0,-247.0,-56.0,-4.0,74.0,-4.0,-122.0,-961.0,-161.0
-24.0,-247.0,-56.0,-6.0,75.0,-4.0,-122.0,-959.0,-159.0
-25.0,-251.0,-61.0,-9.0,75.0,-3.0,-121.0,-961.0,-154.0
-24.0,-252.0,-56.0,-12.0,77.0,-4.0,-123.0,-962.0,-150.0
-25.0,-253.0,-56.0,-11.0,76.0,-4.0,-124.0,-964.0,-155.0
-25.0,-252.0,-59.0,-8.0,75.0,-5.0,-123.0,-969.0,-152.0
-24.0,-251.0,-58.0,-5.0,76.0,-3.0,-123.0,-966.0,-151.0
-25.0,-250.0,-60.0,-1.0,78.0,-5.0,-127.0,-965.0,-157.0
-23.0,-250.0,-57.0,1.0,77.0,-3.0,-120.0,-970.0,-158.0
-26.0,-250.0,-60.0,4.0,78.0,-4.0,-123.0,-963.0,-160.0
-24.0,-250.0,-57.0,4.0,80.0,-2.0,-123.0,-955.0,-156.0
-24.0,-249.0,-59.0,4.0,78.0,-4.0,-123.0,-959.0,-160.0
-25.0,-250.0,-56.0,4.0,76.0,-3.0,-124.0,-964.0,-157.0
-25.0,-249.0,-61.0,3.0,75.0,-4.0,-123.0,-960.0,-155.0
-26.0,-250.0,-58.0,2.0,73.0,-3.0,-125.0,-959.0,-151.0
-24.0,-251.0,-58.0,1.0,72.0,-4.0,-121.0,-962.0,-151.0
-25.0,-249.0,-58.0,0.0,69.0,0.0,-122.0,-962.0,-156.0
-26.0,-249.0,-58.0,-1.0,71.0,-2.0,-122.0,-961.0,-153.0
-23.0,-252.0,-60.0,-3.0,68.0,-1.0,-125.0,-959.0,-151.0
-23.0,-253.0,-56.0,-4.0,67.0,-1.0,-123.0,-961.0,-157.0
-23.0,-251.0,-60.0,-3.0,66.0,-2.0,-123.0,-964.0,-155.0
-26.0,-251.0,-59.0,-4.0,66.0,-3.0,-120.0,-957.0,-159.0
-22.0,-252.0,-57.0,-3.0,69.0,-3.0,-126.0,-963.0,-157.0
-22.0,-251.0,-57.0,-4.0,69.0,-5.0,-123.0,-963.0,-159.0
-24.0,-250.0,-58.0,-3.0,69.0,-2.0,-126.0,-962.0,-161.0
-26.0,-248.0,-60.0,-6.0,68.0,-5.0,-126.0,-968.0,-156.0
-24.0,-250.0,-59.0,-5.0,66.0,-2.0,-122.0,-965.0,-151.0
-21.0,-252.0,-58.0,-3.0,64.0,-5.0,-127.0,-965.0,-151.0
-24.0,-252.0,-55.0,-2.0,62.0,-2.0,-125.0,-963.0,-154.0
-25.0,-251.0,-56.0,0.0,62.0,-3.0,-124.0,-962.0,-157.0
-24.0,-250.0,-58.0,2.0,63.0,-2.0,-127.0,-963.0,-150.0
-25.0,-249.0,-58.0,2.0,60.0,-4.0,-125.0,-965.0,-153.0
-26.0,-249.0,-55.0,3.0,60.0,-3.0,-124.0,-958.0,-156.0
-27.0,-249.0,-57.0,3.0,61.0,-5.0,-125.0,-964.0,-154.0
-27.0,-249.0,-57.0,1.0,60.0,-3.0,-127.0,-961.0,-159.0
-23.0,-252.0,-59.0,-1.0,59.0,-6.0,-124.0,-959.0,-155.0
-24.0,-247.0,-56.0,-1.0,61.0,-4.0,-123.0,-959.0,-155.0
-24.0,-249.0,-60.0,-2.0,61.0,-6.0,-123.0,-962.0,-155.0
-24.0,-248.0,-59.0,-2.0,63.0,-4.0,-118.0,-956.0,-154.0
-24.0,-250.0,-59.0,-3.0,62.0,-6.0,-119.0,-956.0,-154.0
-23.0,-249.0,-57.0,-3.0,60.0,-4.0,-122.0,-955.0,-152.0
-26.0,-250.0,-57.0,-5.0,61.0,-5.0,-119.0,-965.0,-150.0
-20.0,-254.0,-57.0,-3.0,60.0,-4.0,-122.0,-958.0,-148.0
-22.0,-252.0,-58.0,-3.0,60.0,-5.0,-119.0,-961.0,-153.0
-23.0,-248.0,-60.0,-4.0,59.0,-2.0,-116.0,-963.0,-156.0
-24.0,-249.0,-58.0,-3.0,61.0,-5.0,-120.0,-965.0,-152.0
-22.0,-251.0,-55.0,-4.0,60.0,-1.0,-121.0,-964.0,-153.0
-24.0,-249.0,-59.0,-4.0,62.0,-1.0,-121.0,-961.0,-153.0
-23.0,-251.0,-59.0,-7.0,63.0,0.0,-123.0,-966.0,-157.0
-23.0,-252.0,-56.0,-7.0,64.0,-2.0,-120.0,-962.0,-154.0
-23.0,-251.0,-60.0,-8.0,65.0,1.0,-123.0,-964.0,-155.0
-23.0,-247.0,-57.0,-8.0,66.0,-2.0,-122.0,-966.0,-161.0
-22.0,-251.0,-58.0,-8.0,68.0,0.0,-120.0,-970.0,-158.0
-23.0,-249.0,-59.0,-5.0,67.0,-2.0,-122.0,-967.0,-153.0
-24.0,-248.0,-57.0,-3.0,67.0,0.0,-122.0,-964.0,-153.0
-25.0,-253.0,-61.0,-1.0,64.0,-1.0,-123.0,-963.0,-152.0
-24.0,-250.0,-58.0,0.0,64.0,-1.0,-123.0,-956.0,-153.0
-25.0,-248.0,-55.0,0.0,64.0,-2.0,-122.0,-962.0,-152.0
-23.0,-250.0,-58.0,0.0,63.0,0.0,-123.0,-955.0,-158.0
-24.0,-249.0,-58.0,-1.0,64.0,-3.0,-121.0,-962.0,-154.0
-25.0,-246.0,-62.0,-3.0,64.0,-1.0,-123.0,-963.0,-154.0
-22.0,-250.0,-57.0,-4.0,63.0,-3.0,-122.0,-959.0,-155.0
-23.0,-253.0,-59.0,-5.0,64.0,0.0,-129.0,-954.0,-158.0
-23.0,-251.0,-58.0,-6.0,63.0,-2.0,-130.0,-966.0,-152.0
-27.0,-250.0,-59.0,-5.0,64.0,0.0,-123.0,-957.0,-155.0
-23.0,-251.0,-58.0,-6.0,63.0,-3.0,-125.0,-964.0,-154.0
-24.0,-249.0,-58.0,-4.0,62.0,-1.0,-122.0,-963.0,-154.0
-24.0,-248.0,-58.0,-2.0,61.0,-3.0,-123.0,-964.0,-154.0
-24.0,-251.0,-57.0,-1.0,61.0,-2.0,-122.0,-963.0,-159.0
-23.0,-253.0,-58.0,0.0,60.0,-5.0,-125.0,-962.0,-158.0
-27.0,-251.0,-57.0,2.0,61.0,-2.0,-123.0,-957.0,-157.0
-22.0,-250.0,-56.0,3.0,62.0,-5.0,-121.0,-960.0,-153.0
-25.0,-251.0,-57.0,3.0,61.0,-2.0,-123.0,-966.0,-151.0
-27.0,-247.0,-58.0,3.0,61.0,-4.0,-124.0,-962.0,-154.0
-22.0,-250.0,-57.0,4.0,63.0,-2.0,-121.0,-968.0,-152.0
-24.0,-249.0,-58.0,3.0,63.0,-3.0,-121.0,-967.0,-156.0
-23.0,-250.0,-59.0,-2.0,64.0,-1.0,-118.0,-962.0,-156.0
-21.0,-252.0,-58.0,-6.0,64.0,-3.0,-120.0,-962.0,-156.0
-24.0,-250.0,-56.0,-8.0,64.0,-2.0,-123.0,-959.0,-156.0
-24.0,-249.0,-56.0,-11.0,63.0,-6.0,-119.0,-962.0,-158.0
-24.0,-251.0,-58.0,-11.0,62.0,-5.0,-124.0,-962.0,-155.0
-22.0,-250.0,-56.0,-14.0,62.0,-7.0,-124.0,-967.0,-159.0
-25.0,-250.0,-57.0,-13.0,61.0,-5.0,-130.0,-964.0,-149.0
-26.0,-253.0,-56.0,-10.0,60.0,-8.0,-127.0,-965.0,-154.0
-26.0,-249.0,-57.0,-6.0,60.0,-6.0,-123.0,-968.0,-159.0
-21.0,-251.0,-56.0,-1.0,61.0,-10.0,-124.0,-961.0,-158.0
-25.0,-251.0,-58.0,1.0,62.0,-7.0,-119.0,-957.0,-158.0
-25.0,-247.0,-58.0,4.0,61.0,-8.0,-119.0,-961.0,-157.0
-21.0,-251.0,-59.0,3.0,64.0,-5.0,-120.0,-962.0,-166.0
-23.0,-248.0,-57.0,0.0,65.0,-7.0,-117.0,-958.0,-161.0
-20.0,-246.0,-60.0,-2.0,66.0,-4.0,-119.0,-954.0,-156.0
-22.0,-248.0,-56.0,-5.0,67.0,-6.0,-118.0,-957.0,-162.0
-23.0,-249.0,-59.0,-8.0,69.0,-3.0,-118.0,-959.0,-157.0
-25.0,-249.0,-57.0,-10.0,67.0,-6.0,-122.0,-958.0,-156.0
-21.0,-250.0,-61.0,-9.0,69.0,-4.0,-122.0,-965.0,-153.0
-21.0,-252.0,-58.0,-9.0,70.0,-5.0,-122.0,-963.0,-159.0
-24.0,-251.0,-57.0,-9.0,70.0,-3.0,-124.0,-962.0,-156.0
-25.0,-251.0,-57.0,-9.0,72.0,-5.0,-124.0,-967.0,-159.0
-24.0,-251.0,-56.0,-9.0,72.0,-2.0,-120.0,-964.0,-156.0
-24.0,-255.0,-59.0,-9.0,71.0,-7.0,-122.0,-962.0,-161.0
-25.0,-248.0,-57.0,-11.0,70.0,-5.0,-125.0,-967.0,-156.0
-23.0,-253.0,-59.0,-11.0,68.0,-7.0,-124.0,-968.0,-156.0
-22.0,-253.0,-61.0,-11.0,65.0,-5.0,-124.0,-965.0,-159.0
-27.0,-248.0,-57.0,-8.0,61.0,-6.0,-129.0,-965.0,-156.0
-22.0,-252.0,-57.0,-5.0,59.0,-4.0,-120.0,-968.0,-157.0
-23.0,-254.0,-58.0,-3.0,58.0,-6.0,-127.0,-961.0,-155.0
-23.0,-252.0,-58.0,-1.0,57.0,-1.0,-125.0,-961.0,-160.0
-23.0,-249.0,-57.0,-1.0,56.0,-3.0,-120.0,-957.0,-164.0
-25.0,-249.0,-58.0,-1.0,55.0,1.0,-125.0,-962.0,-159.0
-26.0,-248.0,-60.0,-2.0,55.0,0.0,-124.0,-963.0,-161.0
-23.0,-251.0,-57.0,-5.0,56.0,3.0,-120.0,-960.0,-155.0
-26.0,-253.0,-58.0,-8.0,56.0,0.0,-121.0,-957.0,-158.0
-22.0,-248.0,-60.0,-11.0,57.0,4.0,-123.0,-960.0,-159.0
-24.0,-250.0,-59.0,-12.0,56.0,1.0,-122.0,-966.0,-155.0
-21.0,-250.0,-58.0,-11.0,56.0,4.0,-122.0,-966.0,-155.0
-23.0,-253.0,-60.0,-13.0,55.0,2.0,-123.0,-966.0,-156.0
-26.0,-251.0,-59.0,-13.0,54.0,4.0,-124.0,-964.0,-158.0
-25.0,-253.0,-59.0,-10.0,52.0,1.0,-126.0,-964.0,-156.0
-22.0,-251.0,-57.0,-7.0,51.0,2.0,-121.0,-965.0,-156.0
-26.0,-249.0,-63.0,-4.0,48.0,1.0,-121.0,-967.0,-158.0
-25.0,-249.0,-59.0,-2.0,50.0,3.0,-125.0,-961.0,-160.0
-23.0,-252.0,-60.0,-2.0,49.0,-1.0,-122.0,-966.0,-160.0
-24.0,-252.0,-57.0,-2.0,48.0,0.0,-122.0,-957.0,-159.0
-24.0,-250.0,-56.0,-2.0,47.0,-3.0,-126.0,-960.0,-155.0
-24.0,-248.0,-56.0,-2.0,47.0,-1.0,-124.0,-959.0,-151.0
-26.0,-249.0,-56.0,-1.0,46.0,-2.0,-126.0,-957.0,-149.0
-25.0,-249.0,-58.0,-1.0,44.0,-2.0,-125.0,-954.0,-150.0
-24.0,-249.0,-58.0,-3.0,42.0,-5.0,-131.0,-956.0,-157.0
-25.0,-249.0,-58.0,-5.0,43.0,-1.0,-123.0,-956.0,-156.0
-23.0,-248.0,-61.0,-8.0,42.0,-3.0,-124.0,-952.0,-161.0
-24.0,-251.0,-58.0,-10.0,43.0,-1.0,-124.0,-958.0,-157.0
-26.0,-250.0,-61.0,-13.0,42.0,-3.0,-123.0,-954.0,-156.0
-23.0,-248.0,-56.0,-14.0,43.0,-1.0,-124.0,-955.0,-161.0
-24.0,-250.0,-57.0,-19.0,43.0,-3.0,-120.0,-962.0,-158.0
-21.0,-251.0,-60.0,-20.0,43.0,0.0,-118.0,-964.0,-157.0
-24.0,-250.0,-58.0,-19.0,44.0,-1.0,-121.0,-965.0,-157.0
-24.0,-251.0,-58.0,-18.0,43.0,2.0,-118.0,-965.0,-158.0
-21.0,-251.0,-60.0,-15.0,43.0,-1.0,-121.0,-964.0,-155.0
-22.0,-250.0,-56.0,-14.0,43.0,0.0,-119.0,-962.0,-160.0
-23.0,-250.0,-56.0,-13.0,43.0,-2.0,-121.0,-965.0,-156.0
-24.0,-252.0,-59.0,-11.0,44.0,1.0,-120.0,-966.0,-160.0
-25.0,-250.0,-58.0,-10.0,43.0,-1.0,-122.0,-967.0,-158.0
-25.0,-248.0,-59.0,-9.0,42.0,1.0,-121.0,-961.0,-162.0
-25.0,-247.0,-57.0,-11.0,42.0,-2.0,-124.0,-963.0,-154.0
-23.0,-250.0,-57.0,-9.0,43.0,0.0,-119.0,-953.0,-154.0
-28.0,-249.0,-61.0,-9.0,44.0,-4.0,-115.0,-962.0,-160.0
-22.0,-251.0,-57.0,-10.0,43.0,-2.0,-125.0,-957.0,-151.0
-24.0,-249.0,-56.0,-10.0,44.0,-5.0,-122.0,-958.0,-149.0
-25.0,-248.0,-59.0,-13.0,44.0,-3.0,-122.0,-955.0,-152.0
-26.0,-247.0,-54.0,-14.0,44.0,-6.0,-122.0,-955.0,-144.0
-25.0,-250.0,-57.0,-17.0,45.0,-4.0,-122.0,-956.0,-151.0
-25.0,-249.0,-56.0,-20.0,45.0,-6.0,-122.0,-957.0,-150.0
-25.0,-247.0,-54.0,-21.0,45.0,-4.0,-126.0,-963.0,-149.0
-26.0,-248.0,-57.0,-21.0,43.0,-4.0,-124.0,-965.0,-153.0
-22.0,-251.0,-57.0,-21.0,44.0,-2.0,-125.0,-966.0,-157.0
-24.0,-252.0,-57.0,-21.0,44.0,-4.0,-122.0,-967.0,-152.0
-23.0,-253.0,-59.0,-20.0,43.0,1.0,-118.0,-969.0,-155.0
-24.0,-251.0,-56.0,-18.0,43.0,-1.0,-122.0,-970.0,-154.0
-25.0,-253.0,-57.0,-16.0,42.0,2.0,-120.0,-964.0,-155.0
-24.0,-249.0,-58.0,-13.0,41.0,1.0,-120.0,-967.0,-153.0
-23.0,-253.0,-59.0,-10.0,41.0,4.0,-125.0,-966.0,-157.0
-23.0,-249.0,-56.0,-9.0,41.0,1.0,-121.0,-961.0,-154.0
-24.0,-249.0,-56.0,-9.0,43.0,4.0,-120.0,-965.0,-155.0
-24.0,-249.0,-55.0,-10.0,43.0,0.0,-118.0,-962.0,-158.0
-24.0,-250.0,-58.0,-11.0,44.0,4.0,-118.0,-959.0,-150.0
-23.0,-249.0,-59.0,-11.0,44.0,1.0,-121.0,-965.0,-153.0
-26.0,-249.0,-58.0,-13.0,46.0,1.0,-120.0,-960.0,-154.0
-24.0,-248.0,-59.0,-16.0,48.0,-1.0,-120.0,-960.0,-156.0
-23.0,-249.0,-56.0,-15.0,49.0,1.0,-120.0,-964.0,-150.0
-24.0,-248.0,-57.0,-16.0,50.0,-3.0,-120.0,-962.0,-151.0
-21.0,-249.0,-58.0,-17.0,51.0,-1.0,-121.0,-960.0,-151.0
-21.0,-252.0,-56.0,-17.0,50.0,-4.0,-121.0,-961.0,-155.0
-24.0,-249.0,-57.0,-17.0,50.0,-3.0,-122.0,-963.0,-153.0
-24.0,-252.0,-57.0,-17.0,49.0,-6.0,-127.0,-967.0,-153.0
-25.0,-250.0,-55.0,-14.0,50.0,-2.0,-123.0,-963.0,-150.0
-24.0,-252.0,-57.0,-15.0,50.0,-4.0,-123.0,-968.0,-151.0
-23.0,-252.0,-59.0,-15.0,51.0,-2.0,-125.0,-963.0,-155.0
-24.0,-250.0,-57.0,-14.0,49.0,-3.0,-126.0,-967.0,-151.0
-23.0,-250.0,-56.0,-12.0,50.0,-2.0,-123.0,-968.0,-153.0
-23.0,-251.0,-54.0,-12.0,51.0,-3.0,-118.0,-965.0,-155.0
-23.0,-252.0,-56.0,-12.0,51.0,0.0,-123.0,-966.0,-150.0
-23.0,-249.0,-58.0,-13.0,52.0,-2.0,-120.0,-963.0,-157.0
-24.0,-251.0,-58.0,-11.0,53.0,1.0,-120.0,-964.0,-148.0
-22.0,-252.0,-54.0,-10.0,54.0,1.0,-120.0,-966.0,-150.0
-23.0,-252.0,-57.0,-10.0,51.0,2.0,-121.0,-961.0,-148.0
-25.0,-252.0,-60.0,-6.0,50.0,0.0,-125.0,-968.0,-155.0
-23.0,-251.0,-59.0,-5.0,50.0,-1.0,-123.0,-963.0,-150.0
-22.0,-248.0,-56.0,-5.0,52.0,-3.0,-117.0,-966.0,-149.0
-23.0,-249.0,-57.0,-5.0,52.0,0.0,-117.0,-958.0,-150.0
-25.0,-248.0,-59.0,-6.0,52.0,-3.0,-118.0,-959.0,-154.0
-21.0,-250.0,-55.0,-8.0,52.0,-1.0,-120.0,-957.0,-151.0
-24.0,-248.0,-58.0,-8.0,52.0,-2.0,-120.0,-958.0,-154.0
-21.0,-247.0,-57.0,-9.0,52.0,-2.0,-121.0,-961.0,-154.0
-23.0,-249.0,-57.0,-12.0,53.0,-2.0,-123.0,-962.0,-159.0
-24.0,-250.0,-56.0,-14.0,56.0,-1.0,-122.0,-965.0,-153.0
-26.0,-250.0,-60.0,-17.0,57.0,-2.0,-124.0,-956.0,-153.0
-23.0,-251.0,-56.0,-18.0,58.0,-2.0,-126.0,-967.0,-153.0
-26.0,-251.0,-57.0,-17.0,57.0,-3.0,-124.0,-970.0,-151.0
-25.0,-250.0,-57.0,-17.0,56.0,0.0,-124.0,-966.0,-153.0
-23.0,-253.0,-56.0,-16.0,55.0,-3.0,-125.0,-968.0,-153.0
-26.0,-252.0,-57.0,-14.0,54.0,-2.0,-125.0,-970.0,-150.0
-23.0,-250.0,-58.0,-13.0,53.0,-3.0,-125.0,-968.0,-153.0
-22.0,-251.0,-59.0,-13.0,54.0,1.0,-126.0,-962.0,-160.0
-23.0,-255.0,-57.0,-12.0,53.0,0.0,-122.0,-959.0,-150.0
-23.0,-250.0,-56.0,-12.0,54.0,1.0,-125.0,-962.0,-150.0
-26.0,-249.0,-57.0,-10.0,52.0,1.0,-126.0,-961.0,-153.0
-23.0,-250.0,-59.0,-10.0,54.0,2.0,-121.0,-960.0,-149.0
-22.0,-253.0,-55.0,-11.0,54.0,0.0,-122.0,-958.0,-147.0
-24.0,-250.0,-57.0,-10.0,55.0,2.0,-118.0,-963.0,-151.0
-23.0,-251.0,-55.0,-12.0,55.0,1.0,-120.0,-966.0,-148.0
-24.0,-251.0,-58.0,-11.0,55.0,1.0,-122.0,-964.0,-149.0
-24.0,-250.0,-59.0,-13.0,55.0,0.0,-118.0,-965.0,-147.0
-25.0,-250.0,-57.0,-13.0,55.0,2.0,-122.0,-963.0,-147.0
-23.0,-251.0,-55.0,-14.0,55.0,2.0,-123.0,-965.0,-152.0
-24.0,-247.0,-57.0,-14.0,56.0,3.0,-122.0,-957.0,-152.0
-26.0,-247.0,-58.0,-13.0,57.0,3.0,-123.0,-960.0,-149.0
-25.0,-252.0,-56.0,-13.0,58.0,2.0,-117.0,-961.0,-151.0
-24.0,-246.0,-59.0,-15.0,62.0,0.0,-118.0,-957.0,-156.0
-23.0,-248.0,-56.0,-18.0,62.0,2.0,-120.0,-961.0,-158.0
-22.0,-249.0,-60.0,-21.0,62.0,1.0,-121.0,-960.0,-152.0
-23.0,-251.0,-54.0,-24.0,63.0,2.0,-117.0,-959.0,-154.0
-25.0,-248.0,-55.0,-24.0,65.0,-1.0,-121.0,-966.0,-154.0
-26.0,-249.0,-57.0,-24.0,68.0,0.0,-120.0,-965.0,-152.0
-27.0,-248.0,-55.0,-19.0,69.0,-1.0,-125.0,-961.0,-151.0
-25.0,-250.0,-59.0,-18.0,71.0,-1.0,-127.0,-963.0,-153.0
-24.0,-251.0,-59.0,-17.0,72.0,-1.0,-122.0,-967.0,-153.0
-27.0,-249.0,-56.0,-16.0,71.0,1.0,-123.0,-963.0,-153.0
-23.0,-249.0,-57.0,-16.0,73.0,0.0,-128.0,-961.0,-153.0
-26.0,-248.0,-59.0,-15.0,72.0,0.0,-122.0,-967.0,-152.0
-24.0,-252.0,-58.0,-16.0,74.0,0.0,-120.0,-957.0,-157.0
-25.0,-249.0,-58.0,-17.0,73.0,1.0,-126.0,-960.0,-149.0
-25.0,-249.0,-56.0,-19.0,73.0,2.0,-125.0,-959.0,-149.0
-22.0,-250.0,-56.0,-21.0,72.0,2.0,-125.0,-960.0,-151.0
-25.0,-248.0,-58.0,-22.0,71.0,2.0,-123.0,-964.0,-152.0
-25.0,-249.0,-58.0,-23.0,72.0,3.0,-123.0,-965.0,-151.0
-24.0,-250.0,-59.0,-25.0,69.0,1.0,-123.0,-961.0,-149.0
-23.0,-251.0,-56.0,-25.0,69.0,3.0,-125.0,-963.0,-157.0
-25.0,-250.0,-60.0,-26.0,66.0,0.0,-121.0,-957.0,-150.0
-23.0,-250.0,-58.0,-26.0,63.0,1.0,-120.0,-962.0,-155.0
-26.0,-250.0,-56.0,-27.0,63.0,-1.0,-126.0,-959.0,-154.0
-23.0,-251.0,-55.0,-27.0,63.0,0.0,-122.0,-965.0,-154.0
-24.0,-252.0,-57.0,-27.0,61.0,-1.0,-125.0,-966.0,-152.0
-25.0,-252.0,-55.0,-27.0,63.0,-1.0,-124.0,-962.0,-151.0
-24.0,-251.0,-57.0,-26.0,62.0,-3.0,-123.0,-965.0,-152.0
-24.0,-251.0,-57.0,-23.0,61.0,-2.0,-124.0,-963.0,-150.0
-25.0,-251.0,-58.0,-22.0,63.0,-3.0,-124.0,-965.0,-154.0
-24.0,-249.0,-54.0,-21.0,63.0,-2.0,-121.0,-962.0,-149.0
-25.0,-250.0,-57.0,-21.0,65.0,-4.0,-122.0,-967.0,-151.0
-23.0,-252.0,-56.0,-20.0,66.0,-2.0,-123.0,-965.0,-151.0
-24.0,-250.0,-58.0,-24.0,66.0,-3.0,-120.0,-966.0,-154.0
-22.0,-250.0,-56.0,-23.0,66.0,-2.0,-120.0,-960.0,-155.0
-26.0,-248.0,-56.0,-23.0,66.0,-3.0,-122.0,-966.0,-156.0
-25.0,-250.0,-57.0,-23.0,64.0,-1.0,-122.0,-963.0,-153.0
-25.0,-249.0,-57.0,-23.0,65.0,-2.0,-124.0,-960.0,-156.0
-25.0,-248.0,-54.0,-24.0,64.0,-1.0,-125.0,-956.0,-159.0
-26.0,-249.0,-61.0,-26.0,62.0,0.0,-122.0,-961.0,-153.0
-25.0,-249.0,-58.0,-29.0,60.0,1.0,-123.0,-959.0,-149.0
-24.0,-247.0,-57.0,-31.0,63.0,-1.0,-120.0,-964.0,-150.0
-27.0,-250.0,-56.0,-31.0,64.0,0.0,-120.0,-962.0,-151.0
-23.0,-252.0,-57.0,-30.0,64.0,-1.0,-121.0,-967.0,-155.0
-24.0,-251.0,-60.0,-27.0,64.0,-2.0,-121.0,-958.0,-156.0
-25.0,-250.0,-59.0,-26.0,64.0,-3.0,-121.0,-960.0,-157.0
-25.0,-248.0,-60.0,-25.0,67.0,-1.0,-122.0,-964.0,-153.0
-22.0,-251.0,-58.0,-24.0,68.0,-3.0,-122.0,-966.0,-155.0
-24.0,-252.0,-57.0,-24.0,71.0,-2.0,-122.0,-963.0,-161.0
-24.0,-250.0,-57.0,-23.0,74.0,-3.0,-121.0,-962.0,-160.0
-26.0,-249.0,-58.0,-21.0,76.0,-3.0,-121.0,-961.0,-158.0
-22.0,-252.0,-57.0,-23.0,77.0,-3.0,-123.0,-966.0,-156.0
-24.0,-249.0,-60.0,-22.0,77.0,-3.0,-125.0,-960.0,-157.0
-23.0,-251.0,-55.0,-21.0,78.0,-3.0,-126.0,-968.0,-154.0
-22.0,-251.0,-55.0,-18.0,77.0,-1.0,-124.0,-964.0,-156.0
-26.0,-249.0,-60.0,-16.0,78.0,-1.0,-124.0,-961.0,-149.0
-26.0,-251.0,-59.0,-15.0,77.0,0.0,-125.0,-965.0,-157.0
-26.0,-251.0,-56.0,-13.0,73.0,2.0,-124.0,-962.0,-150.0
-24.0,-252.0,-55.0,-12.0,71.0,3.0,-123.0,-965.0,-152.0
-24.0,-250.0,-57.0,-11.0,69.0,3.0,-122.0,-961.0,-155.0
-23.0,-250.0,-59.0,-11.0,66.0,3.0,-125.0,-958.0,-155.0
-25.0,-248.0,-55.0,-9.0,64.0,6.0,-120.0,-956.0,-153.0
-23.0,-250.0,-61.0,-9.0,62.0,4.0,-121.0,-958.0,-155.0
-25.0,-249.0,-60.0,-10.0,59.0,6.0,-122.0,-960.0,-158.0
-24.0,-247.0,-60.0,-9.0,59.0,7.0,-122.0,-964.0,-161.0
-25.0,-249.0,-61.0,-12.0,59.0,8.0,-122.0,-961.0,-166.0
-26.0,-249.0,-60.0,-14.0,57.0,8.0,-122.0,-962.0,-166.0
-25.0,-249.0,-59.0,-16.0,57.0,7.0,-120.0,-964.0,-161.0
-25.0,-252.0,-60.0,-19.0,55.0,6.0,-123.0,-959.0,-166.0
-24.0,-251.0,-57.0,-18.0,56.0,6.0,-120.0,-960.0,-163.0
-24.0,-251.0,-57.0,-16.0,57.0,6.0,-121.0,-963.0,-159.0
-23.0,-252.0,-58.0,-15.0,60.0,4.0,-120.0,-963.0,-160.0
-25.0,-252.0,-58.0,-14.0,62.0,4.0,-121.0,-965.0,-157.0
-24.0,-254.0,-56.0,-12.0,61.0,4.0,-125.0,-963.0,-162.0
-22.0,-251.0,-59.0,-11.0,63.0,4.0,-125.0,-960.0,-159.0
-24.0,-248.0,-58.0,-9.0,63.0,4.0,-127.0,-963.0,-164.0
-26.0,-248.0,-61.0,-10.0,63.0,3.0,-121.0,-961.0,-157.0
-21.0,-251.0,-57.0,-9.0,62.0,4.0,-120.0,-969.0,-162.0
-24.0,-247.0,-59.0,-8.0,61.0,3.0,-125.0,-964.0,-155.0
-23.0,-250.0,-59.0,-6.0,60.0,3.0,-123.0,-957.0,-154.0
-25.0,-250.0,-59.0,-7.0,59.0,2.0,-124.0,-960.0,-155.0
-25.0,-249.0,-55.0,-7.0,57.0,2.0,-125.0,-960.0,-163.0
-24.0,-249.0,-55.0,-8.0,55.0,1.0,-122.0,-960.0,-162.0
-23.0,-249.0,-59.0,-9.0,53.0,2.0,-122.0,-956.0,-155.0
-24.0,-246.0,-59.0,-14.0,52.0,4.0,-126.0,-960.0,-154.0
-28.0,-247.0,-56.0,-14.0,48.0,4.0,-122.0,-958.0,-154.0
-23.0,-250.0,-61.0,-17.0,48.0,1.0,-123.0,-958.0,-150.0
-24.0,-249.0,-59.0,-19.0,47.0,3.0,-123.0,-961.0,-150.0
-24.0,-250.0,-57.0,-21.0,45.0,3.0,-125.0,-958.0,-157.0
-25.0,-249.0,-57.0,-20.0,44.0,3.0,-124.0,-960.0,-154.0
-20.0,-253.0,-55.0,-19.0,43.0,3.0,-123.0,-964.0,-153.0
-25.0,-249.0,-57.0,-17.0,44.0,3.0,-121.0,-963.0,-161.0
-24.0,-251.0,-57.0,-15.0,44.0,3.0,-119.0,-959.0,-165.0
-26.0,-247.0,-61.0,-15.0,47.0,3.0,-119.0,-961.0,-166.0
-24.0,-249.0,-59.0,-16.0,47.0,1.0,-121.0,-957.0,-164.0
-23.0,-251.0,-60.0,-18.0,51.0,3.0,-125.0,-961.0,-161.0
-21.0,-250.0,-58.0,-20.0,51.0,1.0,-119.0,-960.0,-161.0
-19.0,-252.0,-57.0,-22.0,51.0,2.0,-124.0,-958.0,-159.0
-25.0,-248.0,-60.0,-25.0,51.0,1.0,-124.0,-958.0,-157.0
-25.0,-250.0,-57.0,-23.0,51.0,-1.0,-124.0,-963.0,-156.0
-24.0,-251.0,-58.0,-22.0,51.0,-2.0,-120.0,-961.0,-158.0
-24.0,-250.0,-59.0,-23.0,52.0,-1.0,-123.0,-969.0,-160.0
-25.0,-251.0,-59.0,-23.0,53.0,-2.0,-120.0,-966.0,-159.0
-26.0,-250.0,-58.0,-22.0,52.0,-2.0,-119.0,-959.0,-156.0
-24.0,-250.0,-58.0,-21.0,52.0,-3.0,-124.0,-964.0,-154.0
-24.0,-251.0,-62.0,-19.0,51.0,-1.0,-122.0,-961.0,-155.0
-20.0,-249.0,-60.0,-18.0,50.0,-2.0,-118.0,-963.0,-155.0
-25.0,-246.0,-59.0,-18.0,48.0,0.0,-120.0,-958.0,-161.0
-22.0,-247.0,-58.0,-20.0,49.0,1.0,-116.0,-961.0,-154.0
-25.0,-250.0,-58.0,-22.0,50.0,0.0,-122.0,-958.0,-156.0
-23.0,-247.0,-58.0,-24.0,50.0,0.0,-123.0,-957.0,-159.0
-24.0,-252.0,-57.0,-25.0,49.0,2.0,-121.0,-960.0,-156.0
-21.0,-248.0,-57.0,-26.0,48.0,0.0,-119.0,-961.0,-159.0
-21.0,-254.0,-57.0,-27.0,47.0,1.0,-123.0,-961.0,-160.0
-22.0,-250.0,-58.0,-30.0,46.0,-1.0,-122.0,-960.0,-159.0
-22.0,-253.0,-56.0,-30.0,48.0,2.0,-118.0,-959.0,-156.0
-21.0,-251.0,-56.0,-31.0,47.0,1.0,-121.0,-964.0,-157.0
-24.0,-250.0,-56.0,-32.0,47.0,2.0,-123.0,-961.0,-152.0
-23.0,-251.0,-56.0,-32.0,47.0,1.0,-121.0,-967.0,-154.0
-22.0,-253.0,-55.0,-31.0,47.0,3.0,-122.0,-966.0,-154.0
-23.0,-249.0,-56.0,-30.0,46.0,0.0,-119.0,-955.0,-150.0
-22.0,-252.0,-59.0,-29.0,47.0,3.0,-121.0,-965.0,-155.0
-25.0,-250.0,-57.0,-27.0,47.0,2.0,-119.0,-964.0,-153.0
-21.0,-252.0,-57.0,-26.0,48.0,3.0,-122.0,-965.0,-154.0
-25.0,-253.0,-57.0,-25.0,46.0,3.0,-120.0,-964.0,-152.0
-25.0,-247.0,-56.0,-26.0,46.0,4.0,-123.0,-968.0,-152.0
-22.0,-253.0,-54.0,-26.0,48.0,3.0,-121.0,-964.0,-148.0
-23.0,-248.0,-58.0,-24.0,49.0,4.0,-121.0,-962.0,-152.0
-27.0,-249.0,-57.0,-23.0,49.0,4.0,-119.0,-963.0,-159.0
-23.0,-250.0,-57.0,-22.0,49.0,6.0,-125.0,-964.0,-154.0
-22.0,-248.0,-56.0,-21.0,48.0,3.0,-121.0,-960.0,-157.0
-25.0,-250.0,-59.0,-21.0,49.0,5.0,-124.0,-960.0,-156.0
-22.0,-250.0,-59.0,-20.0,50.0,4.0,-125.0,-963.0,-159.0
-22.0,-250.0,-59.0,-22.0,49.0,6.0,-124.0,-964.0,-160.0
-25.0,-250.0,-57.0,-22.0,50.0,3.0,-124.0,-964.0,-160.0
-25.0,-250.0,-58.0,-22.0,53.0,3.0,-125.0,-960.0,-158.0
-25.0,-251.0,-56.0,-21.0,56.0,3.0,-126.0,-960.0,-157.0
-24.0,-252.0,-61.0,-22.0,58.0,3.0,-122.0,-965.0,-155.0
-22.0,-252.0,-59.0,-22.0,61.0,2.0,-124.0,-963.0,-156.0
-27.0,-249.0,-56.0,-21.0,63.0,4.0,-129.0,-968.0,-153.0
-25.0,-250.0,-58.0,-20.0,64.0,3.0,-126.0,-969.0,-155.0
-25.0,-250.0,-57.0,-18.0,66.0,5.0,-126.0,-963.0,-153.0
-27.0,-252.0,-63.0,-13.0,68.0,4.0,-128.0,-967.0,-156.0
-23.0,-254.0,-57.0,-10.0,70.0,5.0,-125.0,-968.0,-161.0
-25.0,-251.0,-57.0,-7.0,73.0,3.0,-127.0,-970.0,-163.0
-26.0,-252.0,-61.0,-7.0,75.0,5.0,-122.0,-965.0,-160.0
-26.0,-249.0,-58.0,-8.0,75.0,3.0,-126.0,-959.0,-166.0
-27.0,-247.0,-58.0,-9.0,75.0,4.0,-125.0,-956.0,-159.0
-28.0,-247.0,-59.0,-11.0,74.0,3.0,-130.0,-962.0,-163.0
-25.0,-250.0,-59.0,-12.0,75.0,5.0,-124.0,-958.0,-162.0
-27.0,-248.0,-62.0,-15.0,74.0,4.0,-129.0,-958.0,-161.0
-25.0,-251.0,-60.0,-17.0,71.0,5.0,-125.0,-957.0,-160.0
-24.0,-251.0,-57.0,-17.0,69.0,2.0,-130.0,-959.0,-158.0
-24.0,-250.0,-57.0,-17.0,68.0,2.0,-125.0,-960.0,-161.0
-26.0,-250.0,-59.0,-15.0,65.0,0.0,-126.0,-962.0,-161.0
-25.0,-251.0,-61.0,-16.0,64.0,1.0,-130.0,-959.0,-164.0
-25.0,-250.0,-58.0,-16.0,62.0,-1.0,-129.0,-960.0,-161.0
-23.0,-249.0,-58.0,-15.0,62.0,-1.0,-127.0,-957.0,-157.0
-27.0,-249.0,-57.0,-17.0,62.0,-2.0,-126.0,-967.0,-162.0
-26.0,-250.0,-59.0,-20.0,61.0,1.0,-126.0,-967.0,-160.0
-27.0,-249.0,-59.0,-18.0,60.0,-2.0,-126.0,-955.0,-155.0
-26.0,-248.0,-59.0,-17.0,59.0,1.0,-124.0,-965.0,-157.0
-28.0,-251.0,-57.0,-17.0,59.0,-1.0,-127.0,-961.0,-162.0
-25.0,-249.0,-60.0,-16.0,59.0,3.0,-123.0,-958.0,-161.0
-26.0,-247.0,-56.0,-18.0,60.0,2.0,-127.0,-964.0,-163.0
-24.0,-248.0,-60.0,-19.0,58.0,3.0,-129.0,-961.0,-160.0
-25.0,-249.0,-56.0,-20.0,55.0,0.0,-124.0,-957.0,-164.0
-25.0,-250.0,-61.0,-22.0,54.0,5.0,-124.0,-958.0,-160.0
-27.0,-248.0,-60.0,-24.0,54.0,3.0,-122.0,-959.0,-159.0
-24.0,-249.0,-56.0,-24.0,55.0,5.0,-120.0,-956.0,-158.0
-27.0,-248.0,-60.0,-24.0,54.0,4.0,-123.0,-960.0,-155.0
-25.0,-249.0,-57.0,-22.0,53.0,6.0,-121.0,-967.0,-160.0
-23.0,-247.0,-57.0,-21.0,54.0,3.0,-124.0,-956.0,-162.0
-22.0,-250.0,-60.0,-21.0,56.0,5.0,-124.0,-955.0,-160.0
-27.0,-246.0,-57.0,-22.0,56.0,3.0,-126.0,-957.0,-164.0
-24.0,-250.0,-56.0,-22.0,56.0,5.0,-122.0,-957.0,-160.0
-25.0,-248.0,-61.0,-26.0,58.0,3.0,-126.0,-951.0,-159.0
-24.0,-247.0,-59.0,-27.0,59.0,6.0,-131.0,-953.0,-162.0
-24.0,-246.0,-58.0,-28.0,57.0,3.0,-127.0,-951.0,-165.0
-24.0,-251.0,-60.0,-31.0,55.0,4.0,-128.0,-956.0,-164.0
-18.0,-247.0,-55.0,-33.0,54.0,2.0,-130.0,-957.0,-157.0
-26.0,-246.0,-42.0,-36.0,53.0,4.0,-128.0,-957.0,-158.0
-28.0,-246.0,-62.0,-38.0,54.0,1.0,-126.0,-958.0,-157.0
-27.0,-254.0,-55.0,-37.0,53.0,5.0,-126.0,-962.0,-167.0
-26.0,-245.0,-73.0,-39.0,54.0,3.0,-124.0,-960.0,-165.0
-32.0,-251.0,-57.0,-38.0,57.0,3.0,-126.0,-960.0,-163.0
-29.0,-248.0,-85.0,-37.0,61.0,0.0,-125.0,-960.0,-162.0
-22.0,-236.0,-57.0,-38.0,62.0,2.0,-126.0,-962.0,-166.0
-25.0,-255.0,-59.0,-40.0,64.0,-1.0,-122.0,-958.0,-162.0
-25.0,-250.0,-58.0,-40.0,64.0,1.0,-122.0,-966.0,-162.0
-25.0,-248.0,-59.0,-40.0,63.0,-2.0,-122.0,-961.0,-163.0
-24.0,-250.0,-60.0,-36.0,63.0,2.0,-124.0,-964.0,-163.0
-23.0,-250.0,-68.0,-33.0,63.0,-1.0,-127.0,-959.0,-163.0
-23.0,-250.0,-57.0,-33.0,64.0,2.0,-126.0,-965.0,-160.0
-23.0,-251.0,-60.0,-30.0,65.0,0.0,-125.0,-953.0,-161.0
-25.0,-248.0,-61.0,-29.0,64.0,2.0,-131.0,-954.0,-159.0
-26.0,-249.0,-58.0,-29.0,61.0,1.0,-126.0,-961.0,-153.0
-26.0,-249.0,-57.0,-27.0,59.0,4.0,-125.0,-957.0,-160.0
-25.0,-247.0,-61.0,-26.0,56.0,1.0,-124.0,-959.0,-161.0
-24.0,-248.0,-61.0,-26.0,54.0,3.0,-126.0,-958.0,-162.0
-27.0,-251.0,-57.0,-26.0,51.0,-1.0,-132.0,-954.0,-164.0
-24.0,-248.0,-61.0,-27.0,50.0,3.0,-128.0,-955.0,-161.0
-27.0,-251.0,-61.0,-29.0,52.0,-1.0,-126.0,-956.0,-157.0
-27.0,-249.0,-58.0,-30.0,55.0,0.0,-126.0,-956.0,-162.0
-25.0,-249.0,-58.0,-31.0,54.0,-3.0,-123.0,-960.0,-161.0
-24.0,-251.0,-58.0,-33.0,55.0,0.0,-127.0,-958.0,-162.0
-23.0,-252.0,-61.0,-34.0,55.0,-3.0,-125.0,-961.0,-166.0
-27.0,-247.0,-59.0,-38.0,54.0,-1.0,-128.0,-954.0,-169.0
-27.0,-248.0,-61.0,-41.0,54.0,-3.0,-126.0,-967.0,-167.0
-25.0,-249.0,-61.0,-43.0,54.0,-1.0,-126.0,-962.0,-162.0
-28.0,-249.0,-61.0,-42.0,54.0,-4.0,-125.0,-962.0,-168.0
-26.0,-249.0,-60.0,-41.0,54.0,-2.0,-130.0,-965.0,-163.0
-26.0,-250.0,-59.0,-41.0,51.0,-5.0,-127.0,-959.0,-161.0
-25.0,-250.0,-60.0,-38.0,52.0,-1.0,-122.0,-966.0,-164.0
-26.0,-247.0,-57.0,-37.0,53.0,-4.0,-126.0,-956.0,-166.0
-22.0,-250.0,-58.0,-33.0,55.0,-2.0,-120.0,-963.0,-169.0
-22.0,-250.0,-58.0,-26.0,57.0,-5.0,-119.0,-958.0,-171.0
-24.0,-248.0,-62.0,-25.0,61.0,-2.0,-120.0,-959.0,-168.0
-23.0,-247.0,-60.0,-24.0,63.0,-4.0,-118.0,-957.0,-168.0
-21.0,-247.0,-61.0,-27.0,66.0,-2.0,-120.0,-955.0,-163.0
-21.0,-250.0,-61.0,-31.0,69.0,-3.0,-121.0,-958.0,-166.0
-26.0,-246.0,-59.0,-34.0,71.0,-1.0,-123.0,-954.0,-165.0
-27.0,-245.0,-57.0,-35.0,73.0,-3.0,-127.0,-951.0,-162.0
-24.0,-249.0,-59.0,-37.0,73.0,0.0,-125.0,-956.0,-159.0
-25.0,-251.0,-58.0,-38.0,74.0,-4.0,-125.0,-957.0,-160.0
-24.0,-250.0,-62.0,-39.0,74.0,-3.0,-128.0,-961.0,-159.0
-25.0,-250.0,-60.0,-40.0,73.0,-8.0,-128.0,-962.0,-166.0
-25.0,-250.0,-60.0,-38.0,73.0,-7.0,-131.0,-964.0,-167.0
-24.0,-249.0,-59.0,-35.0,72.0,-9.0,-128.0,-966.0,-162.0
-26.0,-252.0,-60.0,-30.0,71.0,-5.0,-133.0,-965.0,-159.0
-28.0,-248.0,-60.0,-28.0,68.0,-7.0,-129.0,-967.0,-160.0
-25.0,-250.0,-58.0,-25.0,66.0,-4.0,-124.0,-967.0,-164.0
-23.0,-253.0,-60.0,-20.0,64.0,-5.0,-127.0,-961.0,-164.0
-23.0,-249.0,-59.0,-17.0,64.0,0.0,-125.0,-963.0,-164.0
-24.0,-249.0,-58.0,-16.0,63.0,-3.0,-122.0,-958.0,-164.0
-27.0,-249.0,-64.0,-18.0,60.0,0.0,-126.0,-956.0,-165.0
-25.0,-248.0,-62.0,-17.0,60.0,-1.0,-119.0,-960.0,-167.0
-25.0,-249.0,-57.0,-18.0,61.0,3.0,-119.0,-961.0,-174.0
-21.0,-249.0,-61.0,-20.0,62.0,1.0,-122.0,-958.0,-169.0
-23.0,-248.0,-62.0,-23.0,62.0,3.0,-124.0,-956.0,-170.0
-23.0,-249.0,-63.0,-26.0,64.0,2.0,-126.0,-956.0,-168.0
-25.0,-251.0,-60.0,-30.0,64.0,3.0,-127.0,-955.0,-170.0
-26.0,-248.0,-58.0,-31.0,65.0,1.0,-126.0,-960.0,-172.0
-25.0,-249.0,-61.0,-31.0,68.0,3.0,-128.0,-963.0,-166.0
-28.0,-250.0,-64.0,-29.0,67.0,1.0,-126.0,-964.0,-169.0
-27.0,-247.0,-62.0,-26.0,67.0,2.0,-128.0,-963.0,-165.0
-26.0,-249.0,-63.0,-22.0,66.0,-2.0,-128.0,-966.0,-169.0
-22.0,-251.0,-64.0,-21.0,67.0,0.0,-123.0,-964.0,-170.0
-26.0,-248.0,-64.0,-19.0,68.0,-3.0,-127.0,-966.0,-169.0
-24.0,-248.0,-63.0,-17.0,69.0,-2.0,-131.0,-965.0,-172.0
-26.0,-248.0,-63.0,-14.0,68.0,-3.0,-129.0,-958.0,-169.0
-23.0,-251.0,-62.0,-13.0,70.0,-2.0,-129.0,-955.0,-168.0
-25.0,-252.0,-61.0,-14.0,69.0,-5.0,-129.0,-960.0,-167.0
-27.0,-250.0,-62.0,-11.0,68.0,-3.0,-127.0,-957.0,-168.0
-26.0,-246.0,-60.0,-12.0,68.0,-7.0,-125.0,-962.0,-166.0
-26.0,-248.0,-60.0,-12.0,65.0,-3.0,-128.0,-957.0,-168.0
-25.0,-251.0,-59.0,-11.0,64.0,-5.0,-124.0,-956.0,-165.0
-25.0,-247.0,-59.0,-10.0,61.0,-2.0,-126.0,-960.0,-168.0
-24.0,-248.0,-59.0,-10.0,59.0,-5.0,-124.0,-956.0,-173.0
-28.0,-247.0,-60.0,-12.0,57.0,-3.0,-126.0,-955.0,-169.0
-26.0,-246.0,-64.0,-16.0,57.0,-4.0,-128.0,-955.0,-169.0
-26.0,-248.0,-56.0,-19.0,56.0,-2.0,-125.0,-958.0,-170.0
-26.0,-250.0,-58.0,-22.0,55.0,-4.0,-123.0,-959.0,-170.0
-27.0,-250.0,-58.0,-23.0,54.0,-2.0,-122.0,-956.0,-169.0
-26.0,-249.0,-64.0,-21.0,54.0,-3.0,-126.0,-960.0,-172.0
-24.0,-252.0,-62.0,-21.0,55.0,-2.0,-126.0,-958.0,-172.0
-25.0,-251.0,-63.0,-19.0,55.0,-3.0,-124.0,-964.0,-171.0
-25.0,-249.0,-63.0,-18.0,57.0,-2.0,-128.0,-963.0,-169.0
-25.0,-248.0,-57.0,-15.0,57.0,-3.0,-123.0,-962.0,-173.0
-25.0,-254.0,-61.0,-10.0,56.0,0.0,-128.0,-961.0,-169.0
-24.0,-251.0,-60.0,-7.0,55.0,-2.0,-124.0,-961.0,-167.0
-27.0,-249.0,-58.0,-4.0,54.0,0.0,-133.0,-959.0,-172.0
-26.0,-248.0,-60.0,-2.0,54.0,-2.0,-129.0,-962.0,-167.0
-27.0,-250.0,-59.0,-3.0,52.0,1.0,-128.0,-962.0,-166.0
-24.0,-249.0,-63.0,-3.0,52.0,-1.0,-127.0,-958.0,-167.0
-26.0,-245.0,-59.0,-3.0,51.0,1.0,-128.0,-960.0,-163.0
-23.0,-248.0,-62.0,-5.0,51.0,-2.0,-127.0,-954.0,-168.0
-25.0,-248.0,-62.0,-5.0,51.0,0.0,-125.0,-953.0,-167.0
-24.0,-248.0,-61.0,-10.0,54.0,-3.0,-126.0,-953.0,-170.0
-24.0,-251.0,-60.0,-12.0,55.0,-1.0,-129.0,-958.0,-172.0
-25.0,-250.0,-61.0,-15.0,56.0,-4.0,-123.0,-955.0,-174.0
-24.0,-249.0,-59.0,-16.0,58.0,-2.0,-122.0,-961.0,-174.0
-24.0,-248.0,-63.0,-17.0,58.0,-6.0,-124.0,-956.0,-168.0
-24.0,-250.0,-61.0,-15.0,58.0,-3.0,-125.0,-959.0,-169.0
-25.0,-251.0,-59.0,-15.0,58.0,-4.0,-124.0,-963.0,-168.0
-22.0,-249.0,-60.0,-12.0,54.0,-2.0,-126.0,-959.0,-168.0
-25.0,-250.0,-62.0,-13.0,53.0,-6.0,-124.0,-961.0,-169.0
-21.0,-252.0,-62.0,-11.0,55.0,-3.0,-120.0,-963.0,-168.0
-23.0,-251.0,-62.0,-12.0,51.0,-5.0,-124.0,-962.0,-168.0
-25.0,-249.0,-62.0,-11.0,51.0,-1.0,-124.0,-960.0,-168.0
-23.0,-251.0,-62.0,-10.0,51.0,-3.0,-127.0,-958.0,-170.0
-26.0,-249.0,-64.0,-10.0,51.0,0.0,-126.0,-961.0,-170.0
-23.0,-250.0,-60.0,-10.0,53.0,-2.0,-127.0,-963.0,-168.0
-27.0,-249.0,-62.0,-11.0,52.0,-1.0,-123.0,-962.0,-167.0
-24.0,-249.0,-62.0,-10.0,51.0,-3.0,-118.0,-957.0,-172.0
-22.0,-250.0,-59.0,-10.0,53.0,-1.0,-124.0,-965.0,-171.0
-23.0,-250.0,-58.0,-8.0,53.0,-4.0,-124.0,-967.0,-164.0
-22.0,-251.0,-60.0,-6.0,53.0,-1.0,-125.0,-961.0,-168.0
-25.0,-248.0,-61.0,-8.0,53.0,-3.0,-122.0,-961.0,-168.0
-23.0,-245.0,-58.0,-7.0,52.0,0.0,-123.0,-955.0,-172.0
-26.0,-248.0,-60.0,-8.0,52.0,-2.0,-123.0,-957.0,-166.0
-26.0,-250.0,-60.0,-9.0,53.0,-1.0,-123.0,-958.0,-167.0
-24.0,-249.0,-58.0,-9.0,55.0,-3.0,-124.0,-963.0,-161.0
-27.0,-250.0,-63.0,-9.0,56.0,-1.0,-125.0,-960.0,-161.0
-26.0,-250.0,-59.0,-9.0,56.0,-3.0,-126.0,-961.0,-167.0
-25.0,-248.0,-61.0,-8.0,54.0,1.0,-123.0,-960.0,-167.0
-24.0,-250.0,-61.0,-8.0,53.0,-1.0,-123.0,-965.0,-168.0
-24.0,-249.0,-62.0,-7.0,55.0,1.0,-123.0,-956.0,-174.0
-26.0,-247.0,-61.0,-9.0,54.0,-1.0,-118.0,-957.0,-168.0
-24.0,-250.0,-62.0,-10.0,54.0,2.0,-124.0,-958.0,-169.0
-23.0,-250.0,-62.0,-12.0,54.0,0.0,-123.0,-958.0,-169.0
-26.0,-248.0,-60.0,-11.0,55.0,2.0,-122.0,-964.0,-169.0
-24.0,-251.0,-63.0,-10.0,56.0,0.0,-121.0,-961.0,-170.0
-22.0,-248.0,-62.0,-9.0,56.0,1.0,-125.0,-960.0,-167.0
-26.0,-246.0,-59.0,-7.0,56.0,-2.0,-121.0,-962.0,-169.0
-23.0,-250.0,-63.0,-6.0,55.0,0.0,-123.0,-960.0,-166.0
-22.0,-249.0,-61.0,-4.0,56.0,-1.0,-120.0,-959.0,-168.0
-24.0,-251.0,-62.0,-3.0,56.0,0.0,-124.0,-957.0,-171.0
-23.0,-252.0,-59.0,-3.0,57.0,-3.0,-126.0,-958.0,-170.0
-23.0,-248.0,-64.0,-5.0,57.0,-2.0,-120.0,-959.0,-171.0
-25.0,-250.0,-61.0,-7.0,59.0,-4.0,-123.0,-956.0,-164.0
-26.0,-248.0,-60.0,-6.0,60.0,-3.0,-124.0,-962.0,-172.0
-26.0,-248.0,-64.0,-7.0,57.0,-4.0,-122.0,-957.0,-169.0
-24.0,-252.0,-60.0,-8.0,58.0,0.0,-123.0,-963.0,-175.0
-23.0,-252.0,-58.0,-7.0,58.0,-2.0,-124.0,-962.0,-166.0
-21.0,-250.0,-61.0,-7.0,55.0,0.0,-127.0,-959.0,-166.0
-24.0,-252.0,-59.0,-7.0,55.0,-1.0,-125.0,-960.0,-166.0
-27.0,-248.0,-57.0,-7.0,55.0,2.0,-125.0,-961.0,-164.0
-24.0,-252.0,-61.0,-5.0,53.0,0.0,-122.0,-965.0,-166.0
-23.0,-251.0,-60.0,-5.0,52.0,2.0,-126.0,-959.0,-169.0
-27.0,-252.0,-57.0,-6.0,53.0,0.0,-127.0,-963.0,-162.0
-23.0,-249.0,-61.0,-5.0,53.0,2.0,-126.0,-961.0,-169.0
-26.0,-251.0,-60.0,-4.0,52.0,2.0,-125.0,-961.0,-162.0
-23.0,-251.0,-60.0,-2.0,51.0,4.0,-127.0,-963.0,-166.0
-23.0,-250.0,-59.0,0.0,53.0,2.0,-124.0,-954.0,-164.0
-23.0,-250.0,-59.0,1.0,55.0,4.0,-120.0,-959.0,-164.0
-22.0,-249.0,-60.0,0.0,56.0,0.0,-119.0,-958.0,-166.0
-25.0,-249.0,-58.0,-1.0,56.0,0.0,-119.0,-967.0,-170.0
-22.0,-249.0,-63.0,-3.0,57.0,-2.0,-121.0,-956.0,-169.0
-28.0,-248.0,-62.0,-6.0,57.0,-2.0,-121.0,-960.0,-169.0
-22.0,-252.0,-62.0,-7.0,56.0,-5.0,-122.0,-957.0,-172.0
-23.0,-250.0,-62.0,-11.0,59.0,-3.0,-120.0,-957.0,-170.0
-25.0,-247.0,-62.0,-11.0,59.0,-4.0,-125.0,-961.0,-168.0
-22.0,-252.0,-61.0,-10.0,59.0,-3.0,-123.0,-958.0,-163.0
-24.0,-251.0,-58.0,-9.0,60.0,-4.0,-120.0,-959.0,-163.0
-24.0,-249.0,-58.0,-8.0,61.0,-4.0,-123.0,-961.0,-163.0
-25.0,-247.0,-64.0,-8.0,62.0,-4.0,-123.0,-959.0,-163.0
-24.0,-248.0,-57.0,-9.0,61.0,-2.0,-118.0,-959.0,-164.0
-23.0,-249.0,-63.0,-9.0,61.0,-3.0,-120.0,-956.0,-162.0
-24.0,-246.0,-60.0,-10.0,61.0,-2.0,-123.0,-961.0,-165.0
-24.0,-247.0,-61.0,-11.0,61.0,-5.0,-119.0,-950.0,-168.0
-23.0,-247.0,-59.0,-14.0,62.0,0.0,-125.0,-958.0,-162.0
-24.0,-247.0,-60.0,-14.0,63.0,-2.0,-122.0,-956.0,-162.0
-23.0,-250.0,-63.0,-15.0,64.0,0.0,-122.0,-962.0,-170.0
-26.0,-249.0,-60.0,-16.0,65.0,-3.0,-121.0,-956.0,-164.0
-22.0,-247.0,-61.0,-17.0,66.0,-1.0,-121.0,-962.0,-163.0
-23.0,-253.0,-64.0,-17.0,67.0,-2.0,-120.0,-960.0,-168.0
-24.0,-250.0,-61.0,-16.0,67.0,-2.0,-126.0,-961.0,-169.0
-25.0,-247.0,-60.0,-16.0,68.0,-5.0,-124.0,-966.0,-170.0
-26.0,-249.0,-60.0,-15.0,67.0,-2.0,-122.0,-958.0,-169.0
-24.0,-250.0,-61.0,-14.0,67.0,-4.0,-125.0,-960.0,-169.0
-26.0,-250.0,-60.0,-15.0,67.0,-3.0,-124.0,-962.0,-168.0
-21.0,-251.0,-60.0,-16.0,66.0,-4.0,-122.0,-962.0,-168.0
-25.0,-250.0,-62.0,-13.0,65.0,-4.0,-129.0,-958.0,-161.0
-24.0,-249.0,-60.0,-11.0,64.0,-6.0,-122.0,-959.0,-167.0
-23.0,-248.0,-58.0,-10.0,63.0,-4.0,-125.0,-963.0,-163.0
-26.0,-247.0,-56.0,-9.0,63.0,-4.0,-125.0,-954.0,-164.0
-23.0,-249.0,-60.0,-9.0,63.0,-3.0,-125.0,-960.0,-162.0
-24.0,-251.0,-59.0,-10.0,64.0,-6.0,-124.0,-958.0,-165.0
-24.0,-251.0,-57.0,-12.0,64.0,-5.0,-121.0,-961.0,-167.0
-23.0,-251.0,-61.0,-12.0,65.0,-7.0,-124.0,-960.0,-168.0
-26.0,-252.0,-61.0,-14.0,66.0,-4.0,-123.0,-965.0,-168.0
-24.0,-247.0,-59.0,-18.0,66.0,-7.0,-125.0,-959.0,-169.0
-27.0,-247.0,-63.0,-19.0,65.0,-5.0,-125.0,-960.0,-166.0
-25.0,-248.0,-65.0,-21.0,64.0,-6.0,-126.0,-960.0,-169.0
-26.0,-251.0,-61.0,-21.0,63.0,-6.0,-128.0,-958.0,-166.0
-26.0,-249.0,-60.0,-21.0,61.0,-5.0,-128.0,-964.0,-168.0
-26.0,-247.0,-60.0,-20.0,61.0,-4.0,-132.0,-959.0,-165.0
-26.0,-252.0,-60.0,-17.0,59.0,-5.0,-127.0,-964.0,-166.0
-27.0,-248.0,-61.0,-15.0,60.0,-4.0,-127.0,-966.0,-167.0
-27.0,-249.0,-65.0,-12.0,62.0,-8.0,-123.0,-961.0,-170.0
-25.0,-249.0,-64.0,-8.0,63.0,-5.0,-125.0,-965.0,-180.0
-26.0,-248.0,-61.0,-6.0,63.0,-6.0,-125.0,-958.0,-178.0
-23.0,-248.0,-61.0,-5.0,64.0,-5.0,-127.0,-961.0,-174.0
-24.0,-251.0,-62.0,-4.0,64.0,-5.0,-121.0,-959.0,-172.0
-22.0,-250.0,-60.0,-5.0,65.0,-3.0,-119.0,-961.0,-167.0
-25.0,-247.0,-61.0,-4.0,67.0,-4.0,-117.0,-957.0,-167.0
-26.0,-247.0,-62.0,-5.0,68.0,-2.0,-116.0,-965.0,-167.0
-20.0,-248.0,-58.0,-8.0,69.0,-2.0,-126.0,-962.0,-168.0
-24.0,-252.0,-57.0,-8.0,72.0,-2.0,-125.0,-959.0,-165.0
-25.0,-250.0,-61.0,-5.0,73.0,-4.0,-123.0,-958.0,-171.0
-26.0,-249.0,-62.0,-6.0,73.0,-4.0,-130.0,-959.0,-164.0
-23.0,-249.0,-60.0,-6.0,75.0,-5.0,-124.0,-957.0,-169.0
-25.0,-248.0,-60.0,-8.0,74.0,-3.0,-128.0,-960.0,-168.0
-25.0,-250.0,-62.0,-8.0,72.0,-5.0,-126.0,-957.0,-168.0
-23.0,-247.0,-63.0,-9.0,72.0,-4.0,-128.0,-961.0,-167.0
-27.0,-249.0,-62.0,-9.0,71.0,-6.0,-130.0,-961.0,-169.0
-25.0,-249.0,-61.0,-9.0,71.0,-4.0,-127.0,-962.0,-167.0
-27.0,-250.0,-61.0,-10.0,69.0,-4.0,-127.0,-960.0,-170.0
-27.0,-251.0,-63.0,-9.0,68.0,-1.0,-125.0,-958.0,-172.0
-24.0,-251.0,-59.0,-9.0,69.0,-1.0,-123.0,-959.0,-168.0
-24.0,-248.0,-61.0,-6.0,67.0,-1.0,-121.0,-955.0,-170.0
-24.0,-249.0,-61.0,-4.0,66.0,1.0,-122.0,-957.0,-169.0
-23.0,-251.0,-57.0,-3.0,64.0,2.0,-125.0,-955.0,-172.0
-20.0,-251.0,-60.0,-3.0,63.0,1.0,-125.0,-962.0,-174.0
-24.0,-251.0,-58.0,-2.0,61.0,3.0,-123.0,-961.0,-168.0
-27.0,-247.0,-65.0,-1.0,60.0,2.0,-126.0,-957.0,-168.0
-28.0,-250.0,-58.0,-1.0,60.0,4.0,-125.0,-955.0,-170.0
-28.0,-250.0,-63.0,-1.0,61.0,4.0,-127.0,-958.0,-171.0
-25.0,-251.0,-60.0,-3.0,63.0,4.0,-126.0,-966.0,-173.0
-27.0,-250.0,-61.0,-5.0,62.0,3.0,-128.0,-958.0,-170.0
-24.0,-249.0,-63.0,-4.0,62.0,3.0,-129.0,-960.0,-171.0
-26.0,-248.0,-60.0,-3.0,61.0,3.0,-125.0,-956.0,-169.0
-23.0,-250.0,-61.0,-3.0,59.0,5.0,-126.0,-961.0,-172.0
-23.0,-250.0,-62.0,-2.0,60.0,3.0,-126.0,-961.0,-171.0
-25.0,-246.0,-58.0,-1.0,57.0,4.0,-129.0,-956.0,-172.0
-24.0,-250.0,-62.0,-3.0,57.0,3.0,-128.0,-961.0,-169.0
-23.0,-250.0,-64.0,-2.0,57.0,2.0,-127.0,-957.0,-170.0
-28.0,-250.0,-60.0,-3.0,54.0,0.0,-128.0,-957.0,-166.0
-25.0,-251.0,-60.0,-4.0,53.0,0.0,-124.0,-958.0,-171.0
-24.0,-250.0,-59.0,-7.0,54.0,-1.0,-124.0,-957.0,-168.0
-24.0,-248.0,-60.0,-7.0,56.0,-1.0,-126.0,-956.0,-167.0
-26.0,-249.0,-60.0,-5.0,54.0,-4.0,-124.0,-958.0,-167.0
-24.0,-250.0,-62.0,-4.0,50.0,-3.0,-127.0,-955.0,-169.0
-21.0,-249.0,-60.0,-2.0,51.0,-4.0,-125.0,-952.0,-170.0
-25.0,-246.0,-60.0,-3.0,51.0,-2.0,-122.0,-955.0,-170.0
-25.0,-251.0,-63.0,-4.0,49.0,-3.0,-125.0,-953.0,-168.0
-24.0,-248.0,-60.0,-5.0,49.0,-2.0,-122.0,-954.0,-175.0
-26.0,-248.0,-59.0,-8.0,50.0,-1.0,-121.0,-958.0,-168.0
-23.0,-251.0,-58.0,-10.0,52.0,-1.0,-122.0,-960.0,-168.0
-25.0,-248.0,-56.0,-10.0,54.0,-1.0,-120.0,-965.0,-169.0
-24.0,-252.0,-59.0,-10.0,53.0,0.0,-117.0,-956.0,-169.0
-23.0,-251.0,-63.0,-10.0,53.0,-1.0,-121.0,-964.0,-169.0
-25.0,-249.0,-60.0,-8.0,54.0,0.0,-127.0,-963.0,-171.0
-26.0,-250.0,-61.0,-8.0,53.0,-1.0,-125.0,-966.0,-168.0
-25.0,-251.0,-60.0,-9.0,52.0,-1.0,-126.0,-966.0,-169.0
-26.0,-249.0,-61.0,-7.0,50.0,-2.0,-125.0,-968.0,-168.0
-27.0,-252.0,-60.0,-8.0,49.0,-4.0,-126.0,-961.0,-165.0
-23.0,-250.0,-59.0,-5.0,50.0,-2.0,-125.0,-962.0,-165.0
-25.0,-250.0,-59.0,-3.0,50.0,-2.0,-125.0,-959.0,-163.0
-23.0,-247.0,-58.0,-3.0,51.0,-3.0,-123.0,-963.0,-166.0
-25.0,-251.0,-61.0,-3.0,52.0,-2.0,-124.0,-958.0,-170.0
-22.0,-247.0,-58.0,-3.0,52.0,-4.0,-123.0,-958.0,-165.0
-24.0,-250.0,-60.0,-2.0,52.0,-3.0,-124.0,-953.0,-163.0
-26.0,-247.0,-62.0,-3.0,52.0,-4.0,-125.0,-960.0,-165.0
-23.0,-248.0,-60.0,-5.0,52.0,-3.0,-126.0,-958.0,-166.0
-26.0,-247.0,-59.0,-8.0,52.0,-2.0,-122.0,-956.0,-165.0
-25.0,-247.0,-56.0,-8.0,53.0,-2.0,-125.0,-954.0,-168.0
-23.0,-251.0,-57.0,-10.0,51.0,-3.0,-126.0,-964.0,-169.0
-24.0,-250.0,-57.0,-11.0,51.0,-3.0,-127.0,-953.0,-164.0
-25.0,-248.0,-61.0,-11.0,53.0,-5.0,-124.0,-960.0,-166.0
-23.0,-251.0,-57.0,-12.0,52.0,-5.0,-120.0,-960.0,-166.0
-27.0,-249.0,-57.0,-14.0,53.0,-5.0,-120.0,-960.0,-164.0
-23.0,-251.0,-60.0,-13.0,52.0,-4.0,-123.0,-966.0,-165.0
-23.0,-251.0,-59.0,-12.0,52.0,-4.0,-127.0,-961.0,-163.0
-25.0,-253.0,-57.0,-13.0,52.0,-3.0,-119.0,-963.0,-162.0
-22.0,-251.0,-58.0,-11.0,53.0,-3.0,-124.0,-963.0,-167.0
-24.0,-250.0,-59.0,-8.0,52.0,-3.0,-123.0,-960.0,-168.0
-26.0,-249.0,-61.0,-6.0,53.0,-3.0,-120.0,-961.0,-168.0
-24.0,-251.0,-60.0,-7.0,54.0,-2.0,-119.0,-960.0,-167.0
-25.0,-250.0,-59.0,-5.0,52.0,-4.0,-121.0,-963.0,-169.0
-20.0,-249.0,-62.0,-7.0,53.0,-6.0,-119.0,-964.0,-172.0
-26.0,-251.0,-61.0,-8.0,52.0,-5.0,-119.0,-965.0,-165.0
-24.0,-249.0,-62.0,-7.0,54.0,-6.0,-120.0,-954.0,-167.0
-25.0,-250.0,-63.0,-8.0,54.0,-4.0,-118.0,-962.0,-167.0
-23.0,-249.0,-59.0,-8.0,55.0,-5.0,-118.0,-963.0,-163.0
-24.0,-251.0,-59.0,-8.0,57.0,-5.0,-122.0,-958.0,-161.0
-26.0,-251.0,-57.0,-9.0,57.0,-5.0,-122.0,-961.0,-165.0
-24.0,-251.0,-60.0,-8.0,57.0,-6.0,-122.0,-963.0,-160.0
-23.0,-250.0,-65.0,-9.0,59.0,-5.0,-123.0,-956.0,-160.0
-23.0,-248.0,-59.0,-10.0,58.0,-5.0,-122.0,-958.0,-164.0
-22.0,-252.0,-58.0,-10.0,59.0,-4.0,-121.0,-958.0,-160.0
-24.0,-250.0,-58.0,-9.0,60.0,-4.0,-121.0,-964.0,-163.0
-23.0,-250.0,-63.0,-9.0,59.0,-3.0,-120.0,-959.0,-170.0
-25.0,-250.0,-62.0,-9.0,60.0,-2.0,-124.0,-963.0,-168.0
-23.0,-250.0,-59.0,-8.0,59.0,0.0,-125.0,-965.0,-167.0
-24.0,-249.0,-61.0,-8.0,58.0,1.0,-124.0,-962.0,-164.0
-25.0,-248.0,-60.0,-6.0,59.0,0.0,-128.0,-963.0,-169.0
-25.0,-251.0,-61.0,-6.0,59.0,0.0,-122.0,-964.0,-165.0
-27.0,-247.0,-61.0,-6.0,58.0,0.0,-122.0,-963.0,-168.0
-24.0,-253.0,-63.0,-7.0,57.0,0.0,-126.0,-964.0,-167.0
-26.0,-248.0,-58.0,-7.0,57.0,-1.0,-128.0,-960.0,-166.0
-25.0,-250.0,-59.0,-6.0,57.0,-1.0,-123.0,-965.0,-169.0
-25.0,-248.0,-56.0,-5.0,58.0,-4.0,-121.0,-959.0,-166.0
-23.0,-250.0,-60.0,-4.0,57.0,-4.0,-122.0,-960.0,-162.0
-22.0,-247.0,-61.0,-4.0,56.0,-5.0,-124.0,-956.0,-162.0
-21.0,-249.0,-60.0,-4.0,57.0,-4.0,-122.0,-961.0,-165.0
-23.0,-249.0,-59.0,-3.0,59.0,-3.0,-121.0,-957.0,-165.0
-25.0,-248.0,-60.0,-5.0,59.0,-2.0,-126.0,-954.0,-163.0
-23.0,-249.0,-58.0,-8.0,60.0,-3.0,-124.0,-955.0,-165.0
-25.0,-250.0,-63.0,-12.0,61.0,-4.0,-122.0,-963.0,-159.0
-25.0,-249.0,-59.0,-12.0,61.0,-5.0,-123.0,-958.0,-168.0
-24.0,-250.0,-58.0,-12.0,62.0,-5.0,-122.0,-957.0,-165.0
-26.0,-249.0,-58.0,-13.0,64.0,-3.0,-118.0,-965.0,-159.0
-23.0,-251.0,-59.0,-13.0,63.0,-3.0,-128.0,-962.0,-162.0
-24.0,-253.0,-59.0,-13.0,62.0,-3.0,-121.0,-963.0,-166.0
-25.0,-248.0,-60.0,-11.0,62.0,-1.0,-122.0,-956.0,-166.0
-25.0,-250.0,-56.0,-9.0,61.0,-2.0,-123.0,-964.0,-168.0
-23.0,-249.0,-58.0,-5.0,59.0,-2.0,-127.0,-959.0,-164.0
-24.0,-250.0,-57.0,-1.0,60.0,-1.0,-122.0,-960.0,-166.0
-22.0,-252.0,-59.0,-1.0,59.0,1.0,-121.0,-961.0,-165.0
-25.0,-247.0,-59.0,-2.0,58.0,1.0,-121.0,-955.0,-167.0
-25.0,-249.0,-62.0,-2.0,59.0,-1.0,-118.0,-958.0,-167.0
-27.0,-249.0,-59.0,-3.0,60.0,0.0,-120.0,-960.0,-164.0
-22.0,-248.0,-61.0,-5.0,62.0,0.0,-119.0,-956.0,-163.0
-25.0,-250.0,-57.0,-6.0,63.0,-2.0,-125.0,-956.0,-163.0
-25.0,-249.0,-59.0,-7.0,63.0,-3.0,-124.0,-959.0,-161.0
-24.0,-245.0,-72.0,-8.0,64.0,-3.0,-126.0,-961.0,-165.0
-23.0,-250.0,-58.0,-9.0,64.0,-5.0,-127.0,-959.0,-165.0
-21.0,-251.0,-60.0,-11.0,67.0,-6.0,-121.0,-959.0,-166.0
-25.0,-247.0,-58.0,-10.0,68.0,-6.0,-128.0,-956.0,-165.0
-23.0,-251.0,-59.0,-9.0,66.0,-6.0,-123.0,-963.0,-165.0
-25.0,-251.0,-60.0,-10.0,65.0,-6.0,-123.0,-961.0,-170.0
-25.0,-251.0,-64.0,-8.0,63.0,-6.0,-121.0,-961.0,-165.0
-22.0,-249.0,-56.0,-8.0,64.0,-5.0,-122.0,-964.0,-166.0
-24.0,-249.0,-61.0,-7.0,63.0,-5.0,-128.0,-960.0,-167.0
-25.0,-249.0,-57.0,-7.0,62.0,-4.0,-124.0,-959.0,-165.0
-24.0,-251.0,-59.0,-7.0,61.0,-4.0,-123.0,-961.0,-167.0
-27.0,-247.0,-58.0,-7.0,58.0,-1.0,-121.0,-957.0,-162.0
-24.0,-249.0,-58.0,-7.0,59.0,0.0,-123.0,-960.0,-162.0
-26.0,-248.0,-58.0,-7.0,58.0,0.0,-127.0,-962.0,-168.0
-23.0,-247.0,-61.0,-9.0,56.0,0.0,-129.0,-961.0,-165.0
-26.0,-248.0,-63.0,-9.0,58.0,0.0,-123.0,-958.0,-166.0
-25.0,-250.0,-59.0,-11.0,58.0,-2.0,-123.0,-958.0,-166.0
-25.0,-248.0,-63.0,-12.0,58.0,-2.0,-122.0,-961.0,-168.0
-21.0,-251.0,-63.0,-12.0,59.0,-3.0,-124.0,-959.0,-165.0
-23.0,-250.0,-59.0,-10.0,57.0,0.0,-123.0,-962.0,-167.0
-25.0,-251.0,-61.0,-7.0,58.0,-2.0,-125.0,-961.0,-166.0
-25.0,-249.0,-57.0,-5.0,57.0,0.0,-123.0,-961.0,-163.0
-25.0,-250.0,-58.0,-7.0,55.0,-1.0,-125.0,-959.0,-163.0
-26.0,-249.0,-59.0,-7.0,54.0,0.0,-124.0,-961.0,-165.0
-25.0,-251.0,-58.0,-5.0,52.0,-1.0,-124.0,-958.0,-162.0
-24.0,-247.0,-60.0,-5.0,54.0,0.0,-123.0,-962.0,-161.0
-25.0,-249.0,-57.0,-4.0,54.0,-2.0,-123.0,-966.0,-165.0
-23.0,-249.0,-60.0,-7.0,55.0,-2.0,-123.0,-956.0,-162.0
-25.0,-248.0,-59.0,-7.0,55.0,-2.0,-124.0,-961.0,-159.0
-25.0,-250.0,-61.0,-8.0,56.0,-4.0,-121.0,-957.0,-163.0
-24.0,-249.0,-59.0,-9.0,54.0,-4.0,-121.0,-957.0,-164.0
-25.0,-250.0,-57.0,-9.0,57.0,-4.0,-122.0,-955.0,-163.0
-23.0,-251.0,-61.0,-11.0,57.0,-5.0,-124.0,-959.0,-168.0
-24.0,-252.0,-61.0,-13.0,57.0,-4.0,-122.0,-958.0,-164.0
-25.0,-247.0,-62.0,-15.0,58.0,-6.0,-123.0,-962.0,-164.0
-25.0,-249.0,-61.0,-13.0,56.0,-3.0,-127.0,-960.0,-166.0
-26.0,-247.0,-59.0,-15.0,55.0,-3.0,-119.0,-955.0,-167.0
-25.0,-246.0,-59.0,-16.0,56.0,-1.0,-122.0,-961.0,-166.0
-22.0,-251.0,-57.0,-16.0,54.0,-3.0,-122.0,-954.0,-165.0
-26.0,-252.0,-59.0,-19.0,55.0,0.0,-124.0,-958.0,-167.0
-25.0,-252.0,-60.0,-19.0,56.0,-1.0,-121.0,-966.0,-162.0
-22.0,-249.0,-59.0,-18.0,58.0,-1.0,-120.0,-966.0,-164.0
-22.0,-250.0,-57.0,-14.0,60.0,-2.0,-124.0,-965.0,-166.0
-23.0,-249.0,-59.0,-12.0,60.0,0.0,-120.0,-965.0,-164.0
-22.0,-249.0,-59.0,-9.0,60.0,-2.0,-119.0,-959.0,-164.0
-24.0,-250.0,-59.0,-7.0,64.0,-1.0,-121.0,-956.0,-162.0
-23.0,-249.0,-58.0,-8.0,64.0,-2.0,-116.0,-958.0,-161.0
-24.0,-249.0,-57.0,-10.0,65.0,0.0,-123.0,-960.0,-160.0
-24.0,-251.0,-60.0,-11.0,67.0,0.0,-120.0,-954.0,-165.0
-24.0,-249.0,-57.0,-12.0,68.0,0.0,-121.0,-959.0,-157.0
-23.0,-248.0,-57.0,-14.0,69.0,-3.0,-124.0,-961.0,-159.0
-25.0,-250.0,-57.0,-16.0,70.0,-1.0,-123.0,-963.0,-153.0
-22.0,-251.0,-60.0,-17.0,70.0,-5.0,-124.0,-957.0,-161.0
-26.0,-251.0,-57.0,-18.0,67.0,-2.0,-124.0,-960.0,-159.0
-26.0,-248.0,-57.0,-19.0,66.0,-4.0,-126.0,-961.0,-161.0
-24.0,-250.0,-62.0,-21.0,66.0,-1.0,-129.0,-960.0,-153.0
-24.0,-251.0,-57.0,-22.0,63.0,-2.0,-122.0,-965.0,-165.0
-23.0,-252.0,-56.0,-21.0,63.0,-2.0,-123.0,-962.0,-155.0
-27.0,-248.0,-60.0,-21.0,63.0,-2.0,-120.0,-964.0,-159.0
-23.0,-251.0,-60.0,-17.0,63.0,-2.0,-123.0,-965.0,-162.0
-22.0,-251.0,-57.0,-14.0,64.0,-2.0,-120.0,-964.0,-160.0
-23.0,-250.0,-62.0,-11.0,64.0,1.0,-123.0,-966.0,-160.0
-22.0,-253.0,-58.0,-7.0,64.0,0.0,-122.0,-965.0,-158.0
-21.0,-253.0,-58.0,-4.0,64.0,0.0,-116.0,-967.0,-163.0
-22.0,-249.0,-62.0,-2.0,63.0,-2.0,-120.0,-964.0,-162.0
-25.0,-249.0,-57.0,-2.0,62.0,0.0,-118.0,-964.0,-159.0
-23.0,-248.0,-65.0,-5.0,62.0,-2.0,-119.0,-966.0,-164.0
-24.0,-249.0,-63.0,-7.0,63.0,-1.0,-118.0,-961.0,-165.0
-22.0,-250.0,-63.0,-9.0,62.0,-2.0,-122.0,-959.0,-164.0
-22.0,-253.0,-60.0,-11.0,62.0,0.0,-125.0,-959.0,-164.0
-25.0,-248.0,-62.0,-12.0,62.0,-1.0,-123.0,-968.0,-160.0
-25.0,-251.0,-59.0,-13.0,63.0,-1.0,-121.0,-961.0,-166.0
-25.0,-249.0,-58.0,-15.0,63.0,-1.0,-125.0,-965.0,-166.0
-24.0,-254.0,-58.0,-13.0,64.0,0.0,-126.0,-964.0,-161.0
-24.0,-251.0,-59.0,-12.0,63.0,-3.0,-125.0,-960.0,-156.0
-24.0,-252.0,-57.0,-9.0,65.0,-1.0,-122.0,-961.0,-154.0
-25.0,-250.0,-58.0,-8.0,65.0,-3.0,-122.0,-962.0,-164.0
-26.0,-249.0,-57.0,-7.0,64.0,-2.0,-122.0,-958.0,-157.0
-23.0,-251.0,-63.0,-8.0,63.0,-5.0,-122.0,-956.0,-161.0
-25.0,-248.0,-63.0,-9.0,62.0,-5.0,-124.0,-962.0,-161.0
-25.0,-250.0,-59.0,-9.0,63.0,-6.0,-123.0,-957.0,-165.0
-25.0,-248.0,-60.0,-8.0,61.0,-4.0,-123.0,-959.0,-160.0
-24.0,-249.0,-60.0,-8.0,60.0,-6.0,-127.0,-958.0,-163.0
-26.0,-251.0,-59.0,-9.0,59.0,-3.0,-124.0,-953.0,-162.0
-25.0,-247.0,-57.0,-10.0,58.0,-4.0,-123.0,-956.0,-161.0
-22.0,-252.0,-60.0,-12.0,56.0,-2.0,-123.0,-956.0,-162.0
-25.0,-249.0,-58.0,-12.0,55.0,-2.0,-125.0,-949.0,-166.0
-25.0,-249.0,-58.0,-14.0,54.0,-1.0,-122.0,-956.0,-165.0
-24.0,-249.0,-61.0,-15.0,55.0,-3.0,-122.0,-959.0,-166.0
-23.0,-246.0,-61.0,-18.0,54.0,-2.0,-120.0,-962.0,-164.0
-22.0,-249.0,-57.0,-20.0,55.0,-2.0,-119.0,-965.0,-166.0
-22.0,-252.0,-58.0,-19.0,55.0,-1.0,-113.0,-963.0,-164.0
-23.0,-251.0,-59.0,-18.0,55.0,-3.0,-117.0,-960.0,-162.0
-23.0,-253.0,-59.0,-18.0,56.0,-2.0,-120.0,-966.0,-160.0
-22.0,-248.0,-62.0,-17.0,58.0,-5.0,-118.0,-965.0,-161.0
-26.0,-252.0,-60.0,-18.0,59.0,-2.0,-118.0,-964.0,-159.0
-22.0,-250.0,-58.0,-18.0,60.0,-6.0,-118.0,-966.0,-162.0
-21.0,-253.0,-59.0,-15.0,60.0,-4.0,-126.0,-969.0,-162.0
-23.0,-252.0,-59.0,-15.0,61.0,-6.0,-122.0,-960.0,-163.0
-25.0,-249.0,-60.0,-14.0,63.0,-5.0,-124.0,-979.0,-161.0
-25.0,-252.0,-61.0,-14.0,63.0,-7.0,-121.0,-962.0,-164.0
-22.0,-252.0,-62.0,-13.0,64.0,-4.0,-122.0,-962.0,-166.0
-25.0,-252.0,-59.0,-11.0,65.0,-6.0,-121.0,-958.0,-167.0
-25.0,-248.0,-59.0,-11.0,64.0,-3.0,-126.0,-959.0,-165.0
-28.0,-249.0,-59.0,-10.0,66.0,-5.0,-118.0,-956.0,-168.0
-23.0,-249.0,-62.0,-12.0,67.0,-3.0,-123.0,-956.0,-167.0
-26.0,-250.0,-58.0,-14.0,65.0,-5.0,-126.0,-961.0,-169.0
-25.0,-248.0,-60.0,-12.0,64.0,-2.0,-126.0,-962.0,-167.0
-22.0,-247.0,-59.0,-12.0,63.0,-4.0,-126.0,-960.0,-166.0
-34.0,-250.0,-61.0,-11.0,61.0,-2.0,-126.0,-957.0,-169.0
-21.0,-253.0,-62.0,-11.0,61.0,-2.0,-125.0,-962.0,-169.0
-22.0,-257.0,-68.0,-12.0,59.0,1.0,-126.0,-961.0,-169.0
-25.0,-254.0,-70.0,-11.0,59.0,-1.0,-122.0,-959.0,-164.0
-22.0,-271.0,-54.0,-14.0,59.0,2.0,-121.0,-960.0,-167.0
-26.0,-249.0,-63.0,-12.0,60.0,0.0,-122.0,-966.0,-166.0
-32.0,-243.0,-67.0,-12.0,59.0,1.0,-119.0,-967.0,-166.0
-25.0,-253.0,-58.0,-12.0,59.0,0.0,-120.0,-958.0,-170.0
-40.0,-253.0,-70.0,-12.0,59.0,3.0,-123.0,-965.0,-168.0
-25.0,-251.0,-61.0,-10.0,58.0,-1.0,-122.0,-967.0,-169.0
-25.0,-250.0,-59.0,-9.0,60.0,0.0,-124.0,-965.0,-166.0
-23.0,-250.0,-62.0,-6.0,59.0,-1.0,-123.0,-961.0,-169.0
-24.0,-251.0,-59.0,-3.0,58.0,2.0,-123.0,-960.0,-163.0
-22.0,-249.0,-61.0,-1.0,59.0,1.0,-124.0,-963.0,-168.0
-26.0,-251.0,-60.0,1.0,60.0,3.0,-123.0,-965.0,-169.0
-23.0,-248.0,-61.0,1.0,59.0,2.0,-121.0,-961.0,-172.0
-22.0,-248.0,-64.0,2.0,59.0,3.0,-122.0,-956.0,-169.0
-23.0,-251.0,-59.0,-2.0,59.0,1.0,-121.0,-958.0,-168.0
-24.0,-250.0,-60.0,-4.0,60.0,4.0,-123.0,-959.0,-163.0
-26.0,-250.0,-60.0,-9.0,60.0,2.0,-123.0,-958.0,-163.0
-24.0,-248.0,-56.0,-11.0,60.0,3.0,-117.0,-960.0,-161.0
-24.0,-252.0,-57.0,-11.0,59.0,2.0,-123.0,-958.0,-162.0
-25.0,-250.0,-57.0,-11.0,57.0,4.0,-119.0,-961.0,-164.0
-23.0,-252.0,-61.0,-11.0,58.0,0.0,-122.0,-957.0,-160.0
-24.0,-251.0,-59.0,-10.0,58.0,2.0,-118.0,-963.0,-164.0
-21.0,-254.0,-62.0,-10.0,56.0,0.0,-121.0,-956.0,-168.0
-26.0,-250.0,-60.0,-10.0,56.0,3.0,-121.0,-963.0,-171.0
-22.0,-249.0,-60.0,-12.0,57.0,-1.0,-128.0,-959.0,-162.0
-22.0,-250.0,-59.0,-13.0,56.0,3.0,-122.0,-955.0,-167.0
-26.0,-248.0,-59.0,-13.0,55.0,2.0,-122.0,-958.0,-158.0
-25.0,-251.0,-60.0,-13.0,54.0,4.0,-126.0,-962.0,-165.0
-22.0,-248.0,-62.0,-13.0,53.0,1.0,-122.0,-958.0,-166.0
-26.0,-249.0,-61.0,-11.0,53.0,4.0,-122.0,-958.0,-164.0
-22.0,-249.0,-60.0,-11.0,56.0,1.0,-124.0,-957.0,-168.0
-24.0,-250.0,-58.0,-11.0,58.0,3.0,-125.0,-961.0,-168.0
-22.0,-251.0,-60.0,-12.0,59.0,1.0,-117.0,-956.0,-163.0
-26.0,-248.0,-59.0,-12.0,60.0,4.0,-123.0,-961.0,-167.0
-21.0,-253.0,-58.0,-16.0,61.0,2.0,-120.0,-957.0,-166.0
-23.0,-250.0,-61.0,-18.0,61.0,5.0,-123.0,-963.0,-161.0
-24.0,-251.0,-60.0,-20.0,62.0,3.0,-121.0,-958.0,-164.0
-24.0,-249.0,-60.0,-22.0,60.0,4.0,-123.0,-961.0,-164.0
-24.0,-249.0,-60.0,-22.0,60.0,2.0,-121.0,-958.0,-164.0
-26.0,-248.0,-60.0,-22.0,59.0,4.0,-124.0,-963.0,-168.0
-25.0,-250.0,-58.0,-20.0,57.0,2.0,-129.0,-961.0,-166.0
-24.0,-252.0,-59.0,-18.0,55.0,5.0,-123.0,-961.0,-166.0
-22.0,-251.0,-56.0,-15.0,55.0,3.0,-126.0,-963.0,-167.0
-30.0,-249.0,-61.0,-14.0,56.0,6.0,-130.0,-960.0,-166.0
-26.0,-249.0,-63.0,-12.0,55.0,5.0,-126.0,-963.0,-167.0
-25.0,-250.0,-59.0,-11.0,54.0,6.0,-127.0,-959.0,-163.0
-24.0,-251.0,-55.0,-11.0,54.0,4.0,-125.0,-963.0,-166.0
-23.0,-250.0,-60.0,-11.0,54.0,5.0,-122.0,-961.0,-167.0
-21.0,-250.0,-61.0,-13.0,55.0,3.0,-122.0,-959.0,-168.0
-25.0,-248.0,-59.0,-14.0,56.0,5.0,-124.0,-957.0,-167.0
-25.0,-251.0,-59.0,-16.0,55.0,2.0,-125.0,-957.0,-166.0
-24.0,-252.0,-60.0,-16.0,56.0,4.0,-122.0,-963.0,-164.0
-26.0,-251.0,-63.0,-15.0,56.0,2.0,-121.0,-959.0,-165.0
-24.0,-247.0,-63.0,-15.0,54.0,4.0,-122.0,-962.0,-165.0
-26.0,-251.0,-60.0,-11.0,54.0,0.0,-124.0,-961.0,-168.0
-27.0,-249.0,-62.0,-12.0,52.0,4.0,-124.0,-965.0,-164.0
-24.0,-248.0,-62.0,-9.0,53.0,2.0,-123.0,-954.0,-170.0
-26.0,-249.0,-58.0,-9.0,52.0,4.0,-122.0,-961.0,-170.0
-22.0,-252.0,-61.0,-12.0,50.0,2.0,-127.0,-960.0,-166.0
-19.0,-252.0,-57.0,-12.0,51.0,5.0,-124.0,-961.0,-166.0
-28.0,-249.0,-57.0,-14.0,51.0,3.0,-122.0,-961.0,-166.0
-27.0,-250.0,-60.0,-16.0,51.0,5.0,-122.0,-959.0,-167.0
-21.0,-249.0,-60.0,-17.0,51.0,5.0,-121.0,-957.0,-166.0
-23.0,-250.0,-61.0,-16.0,49.0,7.0,-125.0,-959.0,-163.0
-24.0,-250.0,-59.0,-15.0,51.0,5.0,-122.0,-959.0,-161.0
-24.0,-248.0,-59.0,-15.0,50.0,7.0,-121.0,-960.0,-169.0
-26.0,-250.0,-61.0,-17.0,49.0,5.0,-123.0,-956.0,-168.0
-23.0,-248.0,-61.0,-17.0,49.0,8.0,-124.0,-951.0,-166.0
-24.0,-251.0,-57.0,-17.0,46.0,7.0,-126.0,-958.0,-166.0
-27.0,-248.0,-57.0,-15.0,45.0,8.0,-129.0,-960.0,-163.0
-25.0,-248.0,-59.0,-15.0,45.0,6.0,-125.0,-958.0,-165.0
-25.0,-249.0,-61.0,-16.0,47.0,9.0,-121.0,-958.0,-168.0
-20.0,-248.0,-59.0,-20.0,48.0,6.0,-126.0,-954.0,-171.0
-25.0,-247.0,-64.0,-22.0,47.0,9.0,-125.0,-952.0,-166.0
-23.0,-247.0,-65.0,-26.0,47.0,6.0,-123.0,-955.0,-170.0
-28.0,-247.0,-61.0,-28.0,45.0,8.0,-125.0,-951.0,-165.0
-24.0,-249.0,-59.0,-28.0,47.0,6.0,-128.0,-956.0,-165.0
-25.0,-249.0,-59.0,-27.0,45.0,10.0,-125.0,-960.0,-172.0
-24.0,-250.0,-62.0,-26.0,44.0,6.0,-126.0,-957.0,-170.0
-24.0,-249.0,-60.0,-23.0,41.0,8.0,-128.0,-961.0,-165.0
-26.0,-248.0,-62.0,-21.0,42.0,7.0,-123.0,-962.0,-172.0
-24.0,-251.0,-63.0,-20.0,42.0,10.0,-121.0,-961.0,-168.0
-24.0,-249.0,-59.0,-21.0,41.0,7.0,-124.0,-958.0,-168.0
-26.0,-245.0,-59.0,-21.0,41.0,10.0,-123.0,-957.0,-165.0
-23.0,-249.0,-63.0,-21.0,39.0,9.0,-121.0,-956.0,-170.0
-25.0,-248.0,-58.0,-20.0,40.0,13.0,-126.0,-956.0,-166.0
-25.0,-252.0,-60.0,-19.0,38.0,10.0,-125.0,-964.0,-161.0
-25.0,-248.0,-62.0,-17.0,40.0,13.0,-126.0,-957.0,-168.0
-25.0,-249.0,-59.0,-17.0,41.0,10.0,-125.0,-957.0,-166.0
-22.0,-250.0,-59.0,-19.0,44.0,12.0,-126.0,-959.0,-165.0
-26.0,-251.0,-57.0,-18.0,44.0,9.0,-123.0,-962.0,-162.0
-23.0,-248.0,-59.0,-22.0,46.0,10.0,-123.0,-958.0,-163.0
-25.0,-248.0,-63.0,-25.0,46.0,6.0,-124.0,-962.0,-164.0
-23.0,-250.0,-62.0,-27.0,45.0,9.0,-127.0,-963.0,-167.0
-24.0,-250.0,-58.0,-30.0,46.0,5.0,-126.0,-963.0,-165.0
-26.0,-252.0,-57.0,-30.0,45.0,7.0,-124.0,-966.0,-168.0
-23.0,-250.0,-59.0,-31.0,44.0,3.0,-130.0,-964.0,-167.0
-24.0,-249.0,-57.0,-31.0,46.0,8.0,-126.0,-963.0,-164.0
-26.0,-252.0,-62.0,-31.0,46.0,5.0,-127.0,-964.0,-165.0
-24.0,-249.0,-59.0,-30.0,45.0,8.0,-121.0,-966.0,-167.0
-22.0,-251.0,-61.0,-28.0,46.0,6.0,-126.0,-965.0,-166.0
-26.0,-251.0,-59.0,-25.0,47.0,10.0,-123.0,-965.0,-171.0
-23.0,-251.0,-65.0,-19.0,49.0,6.0,-122.0,-961.0,-173.0
-25.0,-251.0,-60.0,-17.0,53.0,9.0,-119.0,-961.0,-168.0
-22.0,-251.0,-58.0,-14.0,54.0,7.0,-121.0,-960.0,-166.0
-23.0,-248.0,-62.0,-13.0,55.0,9.0,-121.0,-958.0,-168.0
-23.0,-250.0,-61.0,-14.0,58.0,8.0,-120.0,-958.0,-170.0
-21.0,-249.0,-57.0,-16.0,60.0,11.0,-119.0,-957.0,-166.0
-22.0,-248.0,-59.0,-21.0,62.0,7.0,-120.0,-955.0,-167.0
-24.0,-250.0,-56.0,-23.0,64.0,9.0,-119.0,-956.0,-162.0
-24.0,-250.0,-59.0,-24.0,65.0,4.0,-120.0,-956.0,-160.0
-25.0,-250.0,-64.0,-22.0,67.0,6.0,-124.0,-961.0,-163.0
-25.0,-248.0,-58.0,-21.0,68.0,3.0,-124.0,-963.0,-157.0
-24.0,-252.0,-58.0,-21.0,70.0,3.0,-125.0,-968.0,-167.0
-26.0,-250.0,-62.0,-22.0,69.0,1.0,-127.0,-964.0,-157.0
-27.0,-249.0,-57.0,-19.0,70.0,2.0,-126.0,-957.0,-163.0
-26.0,-251.0,-61.0,-17.0,68.0,0.0,-130.0,-962.0,-164.0
-23.0,-250.0,-58.0,-18.0,64.0,3.0,-129.0,-961.0,-167.0
-27.0,-248.0,-59.0,-17.0,62.0,2.0,-125.0,-965.0,-164.0
-26.0,-250.0,-61.0,-17.0,62.0,4.0,-125.0,-962.0,-165.0
-26.0,-250.0,-60.0,-17.0,62.0,5.0,-132.0,-958.0,-162.0
-24.0,-250.0,-61.0,-19.0,62.0,8.0,-128.0,-962.0,-168.0
-25.0,-249.0,-62.0,-19.0,62.0,8.0,-123.0,-962.0,-167.0
-26.0,-248.0,-59.0,-21.0,62.0,11.0,-129.0,-965.0,-165.0
-24.0,-250.0,-62.0,-23.0,60.0,7.0,-125.0,-956.0,-168.0
-28.0,-251.0,-61.0,-22.0,61.0,9.0,-122.0,-965.0,-167.0
-25.0,-248.0,-60.0,-21.0,63.0,6.0,-128.0,-966.0,-167.0
-23.0,-249.0,-61.0,-21.0,63.0,8.0,-125.0,-959.0,-169.0
-25.0,-249.0,-59.0,-20.0,62.0,6.0,-129.0,-965.0,-168.0
-22.0,-252.0,-61.0,-19.0,61.0,8.0,-121.0,-962.0,-169.0
-25.0,-250.0,-60.0,-13.0,60.0,4.0,-123.0,-964.0,-168.0
-26.0,-249.0,-61.0,-11.0,63.0,6.0,-126.0,-963.0,-169.0
-23.0,-249.0,-61.0,-9.0,63.0,2.0,-124.0,-962.0,-170.0
-24.0,-250.0,-62.0,-11.0,65.0,4.0,-128.0,-961.0,-171.0
-24.0,-249.0,-58.0,-13.0,65.0,2.0,-125.0,-953.0,-167.0
-27.0,-246.0,-59.0,-13.0,67.0,4.0,-125.0,-957.0,-166.0
-25.0,-249.0,-61.0,-14.0,65.0,0.0,-127.0,-954.0,-168.0
-26.0,-248.0,-57.0,-15.0,65.0,3.0,-126.0,-954.0,-163.0
-26.0,-249.0,-60.0,-15.0,65.0,-1.0,-123.0,-955.0,-168.0
-25.0,-250.0,-61.0,-16.0,63.0,0.0,-124.0,-958.0,-165.0
-23.0,-250.0,-59.0,-18.0,63.0,-3.0,-123.0,-954.0,-173.0
-23.0,-248.0,-60.0,-18.0,62.0,0.0,-125.0,-957.0,-170.0
-26.0,-246.0,-60.0,-21.0,61.0,-4.0,-126.0,-954.0,-172.0
-26.0,-249.0,-63.0,-19.0,60.0,-2.0,-126.0,-955.0,-168.0
-26.0,-249.0,-63.0,-20.0,61.0,-5.0,-129.0,-959.0,-170.0
-25.0,-249.0,-61.0,-18.0,60.0,-3.0,-131.0,-961.0,-165.0
-25.0,-248.0,-66.0,-19.0,60.0,-4.0,-129.0,-957.0,-170.0
-21.0,-250.0,-60.0,-20.0,58.0,-1.0,-124.0,-954.0,-169.0
-24.0,-249.0,-61.0,-21.0,55.0,-3.0,-127.0,-952.0,-167.0
-24.0,-250.0,-56.0,-21.0,56.0,-1.0,-124.0,-956.0,-168.0
-25.0,-250.0,-66.0,-20.0,54.0,-2.0,-123.0,-960.0,-175.0
-24.0,-252.0,-62.0,-21.0,52.0,1.0,-124.0,-956.0,-171.0
-25.0,-249.0,-61.0,-20.0,53.0,-1.0,-127.0,-956.0,-168.0
-26.0,-247.0,-58.0,-18.0,53.0,1.0,-126.0,-954.0,-175.0
-25.0,-249.0,-63.0,-18.0,53.0,0.0,-129.0,-957.0,-169.0
-26.0,-249.0,-58.0,-18.0,55.0,2.0,-131.0,-957.0,-169.0
-25.0,-248.0,-61.0,-15.0,53.0,-1.0,-130.0,-956.0,-167.0
-25.0,-247.0,-60.0,-15.0,54.0,1.0,-134.0,-952.0,-168.0
-26.0,-246.0,-64.0,-16.0,56.0,-2.0,-129.0,-957.0,-165.0
-26.0,-248.0,-62.0,-18.0,56.0,-1.0,-132.0,-954.0,-168.0
-24.0,-249.0,-61.0,-20.0,55.0,-3.0,-129.0,-952.0,-170.0
-24.0,-245.0,-60.0,-22.0,56.0,-2.0,-127.0,-952.0,-169.0
-24.0,-250.0,-60.0,-25.0,55.0,-5.0,-128.0,-954.0,-166.0
-26.0,-245.0,-58.0,-26.0,54.0,-3.0,-129.0,-950.0,-167.0
-26.0,-248.0,-60.0,-27.0,52.0,-6.0,-131.0,-948.0,-167.0
-27.0,-250.0,-59.0,-28.0,50.0,-4.0,-132.0,-955.0,-170.0
-27.0,-247.0,-61.0,-29.0,48.0,-6.0,-128.0,-951.0,-176.0
-23.0,-250.0,-64.0,-31.0,49.0,-4.0,-127.0,-955.0,-171.0
-27.0,-248.0,-61.0,-33.0,48.0,-6.0,-128.0,-956.0,-171.0
-27.0,-248.0,-60.0,-34.0,46.0,-2.0,-124.0,-959.0,-174.0
-26.0,-245.0,-65.0,-36.0,44.0,-5.0,-124.0,-950.0,-173.0
-26.0,-247.0,-63.0,-39.0,44.0,-2.0,-131.0,-954.0,-176.0
-26.0,-248.0,-61.0,-42.0,43.0,-4.0,-125.0,-953.0,-174.0
-23.0,-250.0,-64.0,-44.0,46.0,-2.0,-125.0,-954.0,-178.0
-25.0,-248.0,-63.0,-46.0,45.0,-4.0,-125.0,-958.0,-170.0
-28.0,-246.0,-63.0,-48.0,48.0,-2.0,-128.0,-955.0,-170.0
-23.0,-248.0,-59.0,-50.0,47.0,-4.0,-130.0,-961.0,-169.0
-27.0,-249.0,-60.0,-49.0,47.0,-3.0,-126.0,-958.0,-170.0
-24.0,-249.0,-59.0,-48.0,45.0,-6.0,-129.0,-963.0,-165.0
-29.0,-249.0,-59.0,-46.0,43.0,-3.0,-128.0,-968.0,-164.0
-23.0,-251.0,-63.0,-43.0,43.0,-4.0,-129.0,-959.0,-166.0
-28.0,-252.0,-59.0,-40.0,40.0,-1.0,-129.0,-963.0,-169.0
-28.0,-247.0,-61.0,-38.0,40.0,-4.0,-129.0,-958.0,-175.0
-27.0,-249.0,-63.0,-36.0,38.0,-2.0,-130.0,-957.0,-180.0
-26.0,-249.0,-61.0,-37.0,37.0,-4.0,-130.0,-956.0,-173.0
-23.0,-245.0,-64.0,-35.0,36.0,-1.0,-125.0,-956.0,-177.0
-26.0,-247.0,-61.0,-34.0,34.0,-4.0,-128.0,-958.0,-175.0
-28.0,-248.0,-66.0,-35.0,33.0,-1.0,-127.0,-959.0,-171.0
-25.0,-249.0,-65.0,-35.0,35.0,-2.0,-126.0,-953.0,-174.0
-23.0,-249.0,-61.0,-35.0,34.0,-2.0,-130.0,-952.0,-178.0
-25.0,-248.0,-63.0,-37.0,35.0,-4.0,-127.0,-951.0,-172.0
-28.0,-245.0,-65.0,-39.0,37.0,-3.0,-129.0,-952.0,-178.0
-26.0,-248.0,-64.0,-40.0,36.0,-5.0,-126.0,-955.0,-178.0
-26.0,-248.0,-64.0,-42.0,38.0,-3.0,-123.0,-958.0,-175.0
-27.0,-247.0,-61.0,-42.0,36.0,-5.0,-129.0,-959.0,-176.0
-26.0,-250.0,-62.0,-41.0,37.0,-2.0,-124.0,-958.0,-176.0
-24.0,-248.0,-65.0,-42.0,38.0,-5.0,-128.0,-955.0,-178.0
-26.0,-247.0,-63.0,-42.0,38.0,-1.0,-125.0,-959.0,-174.0
-22.0,-252.0,-58.0,-41.0,38.0,-4.0,-124.0,-961.0,-173.0
-24.0,-251.0,-65.0,-42.0,39.0,-2.0,-127.0,-962.0,-174.0
-25.0,-247.0,-60.0,-40.0,39.0,-1.0,-124.0,-953.0,-175.0
-25.0,-248.0,-63.0,-39.0,37.0,1.0,-124.0,-957.0,-176.0
-26.0,-246.0,-63.0,-40.0,37.0,-1.0,-123.0,-952.0,-177.0
-26.0,-249.0,-63.0,-42.0,36.0,2.0,-121.0,-956.0,-175.0
-23.0,-248.0,-64.0,-44.0,36.0,0.0,-126.0,-956.0,-175.0
-25.0,-250.0,-64.0,-46.0,37.0,-1.0,-128.0,-958.0,-177.0
-27.0,-249.0,-64.0,-46.0,37.0,-3.0,-125.0,-960.0,-178.0
-23.0,-248.0,-66.0,-46.0,38.0,0.0,-128.0,-962.0,-179.0
-28.0,-249.0,-63.0,-47.0,38.0,0.0,-128.0,-962.0,-178.0
-26.0,-249.0,-64.0,-45.0,40.0,0.0,-125.0,-962.0,-182.0
-23.0,-250.0,-63.0,-45.0,41.0,-1.0,-124.0,-963.0,-178.0
-25.0,-251.0,-63.0,-43.0,41.0,-1.0,-127.0,-963.0,-184.0
-27.0,-250.0,-62.0,-43.0,43.0,-3.0,-124.0,-957.0,-176.0
-27.0,-248.0,-61.0,-40.0,44.0,-1.0,-126.0,-956.0,-171.0
-25.0,-250.0,-62.0,-38.0,43.0,-4.0,-129.0,-956.0,-173.0
-25.0,-249.0,-64.0,-39.0,41.0,-1.0,-124.0,-956.0,-179.0
-23.0,-247.0,-63.0,-38.0,44.0,-4.0,-124.0,-951.0,-176.0
-23.0,-250.0,-63.0,-35.0,45.0,-1.0,-122.0,-961.0,-173.0
-25.0,-250.0,-61.0,-33.0,46.0,-3.0,-124.0,-953.0,-185.0
-23.0,-249.0,-65.0,-32.0,47.0,-1.0,-124.0,-953.0,-178.0
-24.0,-248.0,-64.0,-31.0,47.0,-2.0,-121.0,-956.0,-180.0
-28.0,-248.0,-61.0,-31.0,47.0,1.0,-126.0,-960.0,-183.0
-25.0,-248.0,-68.0,-31.0,48.0,-2.0,-123.0,-953.0,-178.0
-28.0,-246.0,-63.0,-29.0,48.0,1.0,-128.0,-952.0,-178.0
-29.0,-247.0,-62.0,-30.0,48.0,1.0,-126.0,-955.0,-183.0
-25.0,-247.0,-63.0,-31.0,48.0,3.0,-127.0,-957.0,-178.0
-24.0,-249.0,-62.0,-30.0,45.0,1.0,-125.0,-959.0,-183.0
-24.0,-247.0,-63.0,-31.0,47.0,0.0,-123.0,-962.0,-173.0
-25.0,-248.0,-61.0,-29.0,49.0,0.0,-129.0,-963.0,-182.0
-28.0,-249.0,-60.0,-27.0,48.0,1.0,-127.0,-959.0,-179.0
-23.0,-250.0,-59.0,-27.0,46.0,0.0,-130.0,-960.0,-190.0
-27.0,-248.0,-65.0,-27.0,44.0,3.0,-125.0,-956.0,-184.0
-23.0,-251.0,-61.0,-27.0,42.0,1.0,-125.0,-964.0,-183.0
-28.0,-250.0,-64.0,-25.0,42.0,5.0,-126.0,-958.0,-180.0
-25.0,-250.0,-65.0,-24.0,40.0,4.0,-125.0,-959.0,-185.0
-26.0,-245.0,-62.0,-24.0,42.0,4.0,-131.0,-956.0,-182.0
-24.0,-250.0,-62.0,-20.0,42.0,3.0,-129.0,-961.0,-181.0
-25.0,-252.0,-61.0,-20.0,43.0,4.0,-130.0,-961.0,-186.0
-24.0,-250.0,-64.0,-18.0,43.0,2.0,-129.0,-958.0,-183.0
-26.0,-250.0,-65.0,-19.0,45.0,2.0,-130.0,-955.0,-185.0
-25.0,-248.0,-63.0,-18.0,44.0,0.0,-127.0,-956.0,-184.0
-26.0,-248.0,-66.0,-17.0,45.0,2.0,-130.0,-959.0,-181.0
-27.0,-250.0,-61.0,-16.0,44.0,0.0,-128.0,-958.0,-183.0
-28.0,-249.0,-67.0,-15.0,43.0,-1.0,-132.0,-951.0,-186.0
-28.0,-249.0,-64.0,-14.0,43.0,-2.0,-129.0,-953.0,-190.0
-25.0,-249.0,-68.0,-13.0,45.0,-2.0,-127.0,-958.0,-189.0
-25.0,-248.0,-64.0,-13.0,46.0,-2.0,-127.0,-955.0,-190.0
-24.0,-249.0,-64.0,-18.0,47.0,2.0,-127.0,-957.0,-190.0
-26.0,-249.0,-65.0,-23.0,45.0,0.0,-127.0,-954.0,-185.0
-27.0,-248.0,-64.0,-24.0,47.0,3.0,-125.0,-954.0,-179.0
-24.0,-251.0,-62.0,-24.0,49.0,0.0,-130.0,-965.0,-178.0
-25.0,-250.0,-62.0,-22.0,48.0,1.0,-124.0,-958.0,-178.0
-26.0,-251.0,-64.0,-16.0,48.0,1.0,-125.0,-961.0,-181.0
-26.0,-249.0,-62.0,-13.0,49.0,0.0,-129.0,-961.0,-179.0
-28.0,-250.0,-63.0,-10.0,50.0,0.0,-132.0,-958.0,-176.0
-27.0,-249.0,-65.0,-6.0,50.0,1.0,-127.0,-960.0,-184.0
-23.0,-252.0,-68.0,-6.0,51.0,0.0,-130.0,-950.0,-179.0
-25.0,-249.0,-67.0,-5.0,52.0,0.0,-125.0,-964.0,-182.0
-25.0,-248.0,-64.0,-7.0,53.0,0.0,-131.0,-955.0,-178.0
-24.0,-249.0,-63.0,-8.0,52.0,2.0,-128.0,-954.0,-184.0
-24.0,-248.0,-60.0,-12.0,53.0,1.0,-131.0,-955.0,-179.0
-25.0,-246.0,-65.0,-15.0,53.0,2.0,-132.0,-955.0,-175.0
-26.0,-249.0,-64.0,-15.0,54.0,2.0,-133.0,-955.0,-187.0
-28.0,-246.0,-62.0,-18.0,51.0,4.0,-133.0,-953.0,-182.0
-24.0,-249.0,-63.0,-19.0,49.0,2.0,-133.0,-956.0,-178.0
-27.0,-248.0,-63.0,-19.0,47.0,4.0,-133.0,-957.0,-184.0
-25.0,-250.0,-63.0,-19.0,44.0,2.0,-133.0,-954.0,-187.0
-26.0,-248.0,-64.0,-18.0,44.0,3.0,-132.0,-956.0,-189.0
-28.0,-247.0,-67.0,-19.0,41.0,1.0,-133.0,-953.0,-194.0
-28.0,-247.0,-65.0,-17.0,44.0,3.0,-134.0,-957.0,-192.0
-27.0,-248.0,-70.0,-14.0,49.0,1.0,-132.0,-957.0,-194.0
-27.0,-249.0,-67.0,-12.0,50.0,2.0,-128.0,-959.0,-194.0
-23.0,-248.0,-67.0,-10.0,51.0,1.0,-127.0,-953.0,-197.0
-29.0,-248.0,-70.0,-8.0,51.0,3.0,-131.0,-959.0,-190.0
-24.0,-249.0,-68.0,-5.0,50.0,2.0,-129.0,-961.0,-192.0
-27.0,-248.0,-64.0,-4.0,48.0,3.0,-127.0,-958.0,-193.0
-27.0,-249.0,-68.0,-2.0,50.0,2.0,-137.0,-953.0,-188.0
-26.0,-249.0,-66.0,0.0,51.0,4.0,-139.0,-953.0,-191.0
-27.0,-248.0,-59.0,1.0,49.0,2.0,-135.0,-957.0,-187.0
-27.0,-247.0,-66.0,0.0,45.0,3.0,-137.0,-954.0,-189.0
-28.0,-248.0,-62.0,-1.0,45.0,2.0,-134.0,-954.0,-195.0
-27.0,-251.0,-68.0,-3.0,44.0,2.0,-139.0,-955.0,-186.0
-30.0,-246.0,-65.0,-7.0,42.0,0.0,-133.0,-953.0,-191.0
-26.0,-249.0,-66.0,-11.0,40.0,1.0,-138.0,-957.0,-188.0
-27.0,-251.0,-67.0,-13.0,39.0,0.0,-134.0,-957.0,-187.0
-28.0,-246.0,-68.0,-12.0,39.0,0.0,-131.0,-958.0,-196.0
-28.0,-247.0,-65.0,-9.0,38.0,-2.0,-132.0,-960.0,-197.0
-26.0,-248.0,-67.0,-6.0,35.0,-2.0,-131.0,-959.0,-194.0
-27.0,-250.0,-67.0,-5.0,33.0,-1.0,-133.0,-960.0,-199.0
-28.0,-247.0,-68.0,-2.0,31.0,-1.0,-134.0,-955.0,-198.0
-28.0,-247.0,-69.0,0.0,31.0,-2.0,-128.0,-955.0,-196.0
-28.0,-248.0,-73.0,2.0,29.0,-2.0,-133.0,-961.0,-201.0
-29.0,-248.0,-69.0,3.0,27.0,1.0,-133.0,-956.0,-200.0
-26.0,-249.0,-67.0,2.0,27.0,4.0,-134.0,-952.0,-203.0
-27.0,-246.0,-70.0,3.0,27.0,4.0,-134.0,-951.0,-202.0
-26.0,-246.0,-70.0,3.0,26.0,5.0,-133.0,-949.0,-204.0
-28.0,-244.0,-66.0,2.0,24.0,3.0,-135.0,-946.0,-203.0
-24.0,-245.0,-69.0,-2.0,20.0,4.0,-133.0,-945.0,-206.0
-28.0,-243.0,-67.0,-7.0,18.0,3.0,-131.0,-942.0,-208.0
-30.0,-247.0,-68.0,-11.0,20.0,3.0,-128.0,-943.0,-210.0
-29.0,-242.0,-70.0,-11.0,20.0,2.0,-136.0,-943.0,-207.0
-26.0,-246.0,-72.0,-18.0,20.0,4.0,-135.0,-938.0,-208.0
-28.0,-246.0,-70.0,-24.0,21.0,0.0,-134.0,-944.0,-205.0
-29.0,-246.0,-69.0,-28.0,22.0,3.0,-136.0,-942.0,-206.0
-28.0,-246.0,-74.0,-31.0,23.0,1.0,-135.0,-946.0,-205.0
-26.0,-244.0,-67.0,-34.0,24.0,-1.0,-141.0,-952.0,-208.0
-25.0,-247.0,-71.0,-36.0,24.0,-4.0,-142.0,-953.0,-210.0
-28.0,-245.0,-69.0,-39.0,25.0,-3.0,-141.0,-947.0,-212.0
-27.0,-248.0,-70.0,-40.0,25.0,-4.0,-138.0,-953.0,-209.0
-28.0,-247.0,-72.0,-39.0,24.0,-6.0,-140.0,-947.0,-216.0
-27.0,-247.0,-73.0,-39.0,22.0,-7.0,-128.0,-954.0,-217.0
-28.0,-247.0,-75.0,-38.0,23.0,-5.0,-130.0,-951.0,-219.0
-26.0,-248.0,-74.0,-39.0,25.0,-7.0,-133.0,-951.0,-216.0
-25.0,-244.0,-72.0,-39.0,28.0,-6.0,-131.0,-948.0,-211.0
-28.0,-244.0,-73.0,-37.0,28.0,-6.0,-133.0,-949.0,-217.0
-27.0,-246.0,-74.0,-39.0,29.0,-3.0,-129.0,-951.0,-219.0
-28.0,-245.0,-74.0,-43.0,29.0,-2.0,-134.0,-943.0,-214.0
-25.0,-244.0,-72.0,-49.0,28.0,1.0,-134.0,-940.0,-219.0
-27.0,-244.0,-72.0,-51.0,28.0,4.0,-132.0,-944.0,-222.0
-25.0,-244.0,-69.0,-52.0,31.0,6.0,-134.0,-945.0,-220.0
-28.0,-244.0,-78.0,-52.0,32.0,6.0,-131.0,-939.0,-224.0
-26.0,-247.0,-77.0,-54.0,33.0,9.0,-131.0,-946.0,-229.0
-26.0,-242.0,-77.0,-59.0,35.0,10.0,-129.0,-945.0,-229.0
-26.0,-245.0,-75.0,-61.0,38.0,12.0,-131.0,-943.0,-230.0
-26.0,-242.0,-75.0,-63.0,41.0,12.0,-130.0,-940.0,-228.0
-25.0,-244.0,-79.0,-65.0,45.0,10.0,-131.0,-939.0,-238.0
-27.0,-241.0,-73.0,-66.0,47.0,11.0,-134.0,-937.0,-227.0
-26.0,-243.0,-76.0,-69.0,52.0,10.0,-129.0,-946.0,-237.0
-29.0,-242.0,-79.0,-72.0,56.0,12.0,-134.0,-942.0,-238.0
-25.0,-245.0,-77.0,-75.0,59.0,16.0,-132.0,-946.0,-234.0
-26.0,-244.0,-74.0,-74.0,62.0,13.0,-136.0,-944.0,-236.0
-27.0,-241.0,-84.0,-75.0,63.0,11.0,-139.0,-939.0,-244.0
-27.0,-243.0,-73.0,-75.0,68.0,11.0,-138.0,-936.0,-245.0
-30.0,-246.0,-80.0,-77.0,71.0,13.0,-139.0,-933.0,-249.0
-29.0,-243.0,-80.0,-81.0,71.0,15.0,-142.0,-938.0,-252.0
-27.0,-241.0,-79.0,-83.0,72.0,15.0,-143.0,-933.0,-253.0
-28.0,-244.0,-83.0,-86.0,75.0,18.0,-142.0,-928.0,-255.0
-29.0,-242.0,-86.0,-89.0,77.0,19.0,-145.0,-938.0,-254.0
-31.0,-243.0,-82.0,-95.0,80.0,20.0,-144.0,-929.0,-255.0
-30.0,-242.0,-84.0,-97.0,82.0,23.0,-138.0,-934.0,-261.0
-26.0,-241.0,-86.0,-101.0,86.0,24.0,-138.0,-928.0,-266.0
-28.0,-243.0,-83.0,-102.0,89.0,24.0,-139.0,-930.0,-274.0
-27.0,-242.0,-88.0,-106.0,95.0,28.0,-135.0,-931.0,-275.0
-28.0,-239.0,-85.0,-110.0,99.0,31.0,-140.0,-929.0,-278.0
-29.0,-240.0,-87.0,-114.0,101.0,35.0,-133.0,-924.0,-280.0
-31.0,-238.0,-88.0,-118.0,104.0,35.0,-139.0,-923.0,-286.0
-28.0,-236.0,-90.0,-123.0,108.0,36.0,-135.0,-922.0,-280.0
-27.0,-238.0,-88.0,-125.0,112.0,40.0,-135.0,-923.0,-280.0
-27.0,-240.0,-88.0,-130.0,118.0,44.0,-131.0,-918.0,-287.0
-27.0,-241.0,-88.0,-135.0,123.0,51.0,-129.0,-921.0,-286.0
-24.0,-242.0,-88.0,-137.0,129.0,53.0,-132.0,-920.0,-290.0
-26.0,-238.0,-88.0,-141.0,140.0,53.0,-126.0,-918.0,-283.0
-24.0,-234.0,-91.0,-140.0,148.0,53.0,-129.0,-908.0,-283.0
-27.0,-231.0,-92.0,-137.0,152.0,57.0,-131.0,-905.0,-288.0
-26.0,-229.0,-86.0,-132.0,157.0,63.0,-126.0,-897.0,-288.0
-24.0,-230.0,-90.0,-133.0,163.0,72.0,-132.0,-898.0,-287.0
-26.0,-230.0,-93.0,-140.0,165.0,78.0,-134.0,-896.0,-284.0
-27.0,-225.0,-88.0,-161.0,163.0,80.0,-134.0,-889.0,-284.0
-27.0,-225.0,-87.0,-185.0,168.0,87.0,-134.0,-879.0,-274.0
-27.0,-223.0,-89.0,-203.0,172.0,93.0,-128.0,-878.0,-272.0
-27.0,-223.0,-88.0,-221.0,175.0,98.0,-135.0,-868.0,-270.0
-26.0,-220.0,-86.0,-237.0,179.0,98.0,-131.0,-858.0,-269.0
-30.0,-220.0,-85.0,-253.0,184.0,104.0,-138.0,-864.0,-270.0
-28.0,-219.0,-85.0,-276.0,188.0,110.0,-136.0,-860.0,-274.0
-30.0,-217.0,-86.0,-303.0,188.0,116.0,-138.0,-853.0,-275.0
-32.0,-221.0,-90.0,-322.0,188.0,121.0,-145.0,-863.0,-277.0
-33.0,-221.0,-95.0,-340.0,186.0,127.0,-149.0,-863.0,-282.0
-34.0,-220.0,-92.0,-355.0,182.0,134.0,-149.0,-867.0,-290.0
-31.0,-227.0,-99.0,-367.0,181.0,143.0,-150.0,-872.0,-300.0
-34.0,-227.0,-96.0,-382.0,176.0,145.0,-155.0,-884.0,-318.0
-37.0,-230.0,-99.0,-399.0,174.0,144.0,-155.0,-894.0,-317.0
-34.0,-230.0,-102.0,-412.0,173.0,144.0,-169.0,-903.0,-325.0
-33.0,-246.0,-98.0,-412.0,173.0,155.0,-172.0,-916.0,-322.0
-37.0,-238.0,-108.0,-410.0,176.0,161.0,-168.0,-920.0,-346.0
-34.0,-241.0,-108.0,-405.0,182.0,164.0,-168.0,-920.0,-343.0
-35.0,-241.0,-97.0,-398.0,188.0,165.0,-166.0,-929.0,-337.0
-29.0,-238.0,-103.0,-387.0,199.0,163.0,-156.0,-928.0,-324.0
-31.0,-240.0,-100.0,-367.0,209.0,162.0,-152.0,-919.0,-321.0
-31.0,-234.0,-99.0,-345.0,225.0,161.0,-156.0,-906.0,-309.0
-22.0,-235.0,-95.0,-319.0,247.0,152.0,-126.0,-906.0,-306.0
-23.0,-234.0,-95.0,-307.0,267.0,135.0,-132.0,-897.0,-307.0
-26.0,-228.0,-92.0,-311.0,288.0,123.0,-126.0,-880.0,-290.0
-28.0,-221.0,-90.0,-323.0,307.0,123.0,-125.0,-872.0,-282.0
-24.0,-219.0,-90.0,-333.0,313.0,122.0,-121.0,-855.0,-280.0
-24.0,-213.0,-91.0,-343.0,317.0,119.0,-121.0,-836.0,-283.0
-22.0,-214.0,-89.0,-355.0,319.0,117.0,-118.0,-835.0,-283.0
-24.0,-212.0,-88.0,-371.0,320.0,119.0,-119.0,-831.0,-289.0
-27.0,-211.0,-97.0,-389.0,319.0,123.0,-126.0,-826.0,-290.0
-25.0,-214.0,-96.0,-404.0,318.0,139.0,-130.0,-841.0,-302.0
-28.0,-215.0,-93.0,-425.0,313.0,150.0,-132.0,-850.0,-305.0
-28.0,-220.0,-100.0,-453.0,310.0,153.0,-142.0,-853.0,-319.0
-34.0,-220.0,-107.0,-471.0,304.0,155.0,-150.0,-867.0,-333.0
-33.0,-220.0,-107.0,-484.0,300.0,156.0,-154.0,-865.0,-353.0
-31.0,-222.0,-112.0,-489.0,293.0,159.0,-158.0,-863.0,-364.0
-34.0,-229.0,-113.0,-487.0,288.0,174.0,-160.0,-874.0,-379.0
-33.0,-230.0,-114.0,-488.0,289.0,184.0,-156.0,-891.0,-379.0
-31.0,-227.0,-108.0,-505.0,300.0,190.0,-157.0,-884.0,-374.0
-34.0,-223.0,-111.0,-513.0,311.0,192.0,-157.0,-876.0,-366.0
-31.0,-221.0,-104.0,-510.0,322.0,195.0,-162.0,-857.0,-353.0
-34.0,-216.0,-105.0,-499.0,327.0,198.0,-152.0,-846.0,-349.0
-31.0,-214.0,-103.0,-492.0,318.0,203.0,-156.0,-837.0,-347.0
-33.0,-209.0,-106.0,-495.0,308.0,213.0,-152.0,-817.0,-342.0
-32.0,-205.0,-104.0,-509.0,296.0,224.0,-147.0,-798.0,-338.0
-35.0,-198.0,-99.0,-530.0,280.0,232.0,-148.0,-784.0,-335.0
-32.0,-193.0,-98.0,-555.0,268.0,233.0,-142.0,-777.0,-322.0
-34.0,-194.0,-95.0,-579.0,253.0,226.0,-156.0,-755.0,-315.0
-36.0,-193.0,-96.0,-603.0,240.0,234.0,-167.0,-738.0,-291.0
-35.0,-190.0,-87.0,-612.0,229.0,241.0,-153.0,-734.0,-286.0
-36.0,-188.0,-84.0,-605.0,199.0,241.0,-150.0,-726.0,-273.0
-40.0,-198.0,-89.0,-588.0,173.0,244.0,-176.0,-758.0,-276.0
-53.0,-190.0,-90.0,-597.0,160.0,255.0,-222.0,-750.0,-297.0
-41.0,-200.0,-106.0,-606.0,157.0,274.0,-196.0,-790.0,-322.0
-46.0,-202.0,-106.0,-627.0,151.0,272.0,-196.0,-815.0,-357.0
-53.0,-203.0,-112.0,-676.0,136.0,274.0,-237.0,-810.0,-372.0
-57.0,-209.0,-112.0,-734.0,111.0,275.0,-242.0,-824.0,-377.0
-59.0,-215.0,-112.0,-782.0,85.0,271.0,-247.0,-839.0,-375.0
-55.0,-213.0,-110.0,-820.0,65.0,264.0,-245.0,-831.0,-362.0
-52.0,-214.0,-107.0,-832.0,42.0,263.0,-237.0,-827.0,-349.0
-56.0,-211.0,-115.0,-819.0,22.0,252.0,-237.0,-836.0,-364.0
-53.0,-219.0,-108.0,-817.0,12.0,246.0,-237.0,-838.0,-352.0
-48.0,-220.0,-109.0,-823.0,14.0,247.0,-220.0,-853.0,-363.0
-45.0,-216.0,-111.0,-829.0,16.0,233.0,-193.0,-854.0,-370.0
-38.0,-211.0,-112.0,-842.0,19.0,204.0,-185.0,-834.0,-367.0
-33.0,-207.0,-106.0,-848.0,15.0,170.0,-178.0,-805.0,-368.0
-41.0,-198.0,-112.0,-854.0,12.0,152.0,-165.0,-791.0,-370.0
-30.0,-204.0,-123.0,-859.0,12.0,144.0,-150.0,-781.0,-366.0
-31.0,-186.0,-120.0,-860.0,20.0,146.0,-127.0,-726.0,-373.0
-27.0,-203.0,-111.0,-846.0,33.0,154.0,-127.0,-765.0,-381.0
-25.0,-208.0,-116.0,-848.0,58.0,163.0,-114.0,-819.0,-390.0
-23.0,-219.0,-117.0,-880.0,84.0,167.0,-111.0,-837.0,-400.0
-28.0,-223.0,-126.0,-916.0,106.0,164.0,-115.0,-858.0,-411.0
-20.0,-212.0,-127.0,-952.0,116.0,152.0,-96.0,-840.0,-412.0
-13.0,-221.0,-128.0,-971.0,116.0,138.0,-98.0,-846.0,-438.0
-11.0,-221.0,-134.0,-986.0,114.0,128.0,-70.0,-878.0,-473.0
-8.0,-219.0,-135.0,-1002.0,112.0,114.0,-59.0,-861.0,-458.0
-4.0,-199.0,-132.0,-1008.0,115.0,111.0,-62.0,-859.0,-453.0
-13.0,-227.0,-135.0,-997.0,112.0,104.0,-101.0,-876.0,-472.0
-12.0,-229.0,-138.0,-990.0,109.0,104.0,-79.0,-906.0,-477.0
-15.0,-225.0,-134.0,-991.0,92.0,93.0,-87.0,-889.0,-460.0
-21.0,-227.0,-125.0,-985.0,70.0,70.0,-99.0,-863.0,-419.0
-24.0,-213.0,-121.0,-954.0,54.0,51.0,-115.0,-824.0,-422.0
-24.0,-208.0,-121.0,-908.0,43.0,33.0,-124.0,-804.0,-422.0
-28.0,-201.0,-129.0,-873.0,42.0,25.0,-144.0,-777.0,-434.0
-29.0,-180.0,-125.0,-860.0,50.0,13.0,-140.0,-706.0,-436.0
-33.0,-171.0,-130.0,-841.0,56.0,10.0,-146.0,-671.0,-447.0
-33.0,-187.0,-134.0,-849.0,81.0,10.0,-173.0,-737.0,-462.0
-36.0,-182.0,-128.0,-894.0,123.0,1.0,-180.0,-716.0,-453.0
-32.0,-172.0,-129.0,-926.0,174.0,-4.0,-165.0,-685.0,-445.0
-32.0,-170.0,-126.0,-933.0,215.0,-7.0,-155.0,-663.0,-422.0
-30.0,-172.0,-120.0,-931.0,239.0,-1.0,-141.0,-669.0,-416.0
-32.0,-173.0,-122.0,-932.0,237.0,11.0,-138.0,-673.0,-414.0
-34.0,-172.0,-121.0,-937.0,213.0,32.0,-142.0,-681.0,-424.0
-33.0,-177.0,-124.0,-951.0,169.0,66.0,-136.0,-696.0,-433.0
-32.0,-177.0,-128.0,-981.0,115.0,84.0,-131.0,-700.0,-439.0
-29.0,-178.0,-133.0,-1015.0,57.0,100.0,-128.0,-707.0,-452.0
-28.0,-175.0,-130.0,-1059.0,-8.0,110.0,-107.0,-691.0,-450.0
-27.0,-165.0,-138.0,-1077.0,-80.0,100.0,-117.0,-656.0,-483.0
-37.0,-178.0,-142.0,-1095.0,-137.0,88.0,-163.0,-693.0,-488.0
-38.0,-183.0,-144.0,-1137.0,-179.0,80.0,-157.0,-725.0,-506.0
-44.0,-181.0,-139.0,-1187.0,-209.0,49.0,-196.0,-715.0,-498.0
-53.0,-175.0,-140.0,-1214.0,-208.0,25.0,-221.0,-697.0,-481.0
-52.0,-172.0,-141.0,-1215.0,-174.0,-1.0,-230.0,-665.0,-488.0
-58.0,-169.0,-139.0,-1200.0,-137.0,-19.0,-254.0,-655.0,-484.0
-64.0,-163.0,-135.0,-1185.0,-98.0,-40.0,-266.0,-644.0,-470.0
-67.0,-165.0,-137.0,-1168.0,-72.0,-55.0,-278.0,-638.0,-483.0
-71.0,-171.0,-133.0,-1149.0,-54.0,-62.0,-299.0,-659.0,-467.0
-68.0,-172.0,-141.0,-1135.0,-43.0,-55.0,-287.0,-667.0,-483.0
-68.0,-172.0,-143.0,-1123.0,-37.0,-49.0,-279.0,-669.0,-498.0
-61.0,-166.0,-142.0,-1113.0,-37.0,-40.0,-268.0,-647.0,-506.0
-54.0,-168.0,-147.0,-1094.0,-43.0,-21.0,-237.0,-655.0,-523.0
-54.0,-165.0,-151.0,-1072.0,-59.0,7.0,-228.0,-655.0,-539.0
-51.0,-167.0,-155.0,-1063.0,-79.0,18.0,-215.0,-653.0,-549.0
-49.0,-166.0,-161.0,-1057.0,-110.0,18.0,-211.0,-653.0,-556.0
-44.0,-164.0,-159.0,-1058.0,-160.0,15.0,-186.0,-657.0,-580.0
-44.0,-166.0,-165.0,-1054.0,-203.0,5.0,-185.0,-657.0,-584.0
-36.0,-168.0,-170.0,-1059.0,-230.0,0.0,-173.0,-659.0,-603.0
-33.0,-164.0,-166.0,-1079.0,-245.0,-16.0,-145.0,-667.0,-606.0
-36.0,-175.0,-169.0,-1106.0,-248.0,-54.0,-172.0,-696.0,-625.0
-38.0,-168.0,-168.0,-1153.0,-245.0,-138.0,-178.0,-658.0,-602.0
-35.0,-165.0,-166.0,-1197.0,-234.0,-185.0,-172.0,-653.0,-601.0
-42.0,-168.0,-166.0,-1221.0,-215.0,-216.0,-187.0,-663.0,-592.0
-45.0,-161.0,-174.0,-1245.0,-198.0,-249.0,-198.0,-656.0,-621.0
-44.0,-161.0,-170.0,-1268.0,-180.0,-283.0,-199.0,-633.0,-595.0
-47.0,-161.0,-169.0,-1284.0,-163.0,-301.0,-213.0,-639.0,-621.0
-48.0,-167.0,-177.0,-1308.0,-149.0,-303.0,-210.0,-657.0,-635.0
-57.0,-170.0,-182.0,-1346.0,-137.0,-334.0,-236.0,-688.0,-656.0
-55.0,-171.0,-175.0,-1380.0,-140.0,-357.0,-242.0,-665.0,-628.0
-61.0,-172.0,-186.0,-1365.0,-156.0,-333.0,-256.0,-677.0,-674.0
-62.0,-173.0,-193.0,-1329.0,-174.0,-295.0,-265.0,-666.0,-708.0
-61.0,-179.0,-191.0,-1292.0,-183.0,-284.0,-259.0,-677.0,-697.0
-65.0,-183.0,-192.0,-1235.0,-202.0,-276.0,-262.0,-710.0,-708.0
-67.0,-183.0,-197.0,-1173.0,-219.0,-287.0,-273.0,-707.0,-717.0
-70.0,-183.0,-193.0,-1096.0,-237.0,-299.0,-284.0,-714.0,-720.0
-62.0,-189.0,-199.0,-1014.0,-253.0,-298.0,-275.0,-719.0,-744.0
-67.0,-180.0,-210.0,-948.0,-251.0,-301.0,-291.0,-706.0,-756.0
-64.0,-173.0,-210.0,-897.0,-252.0,-315.0,-262.0,-677.0,-785.0
-62.0,-180.0,-207.0,-862.0,-252.0,-319.0,-259.0,-688.0,-792.0
-58.0,-175.0,-210.0,-829.0,-277.0,-328.0,-249.0,-682.0,-783.0
-57.0,-170.0,-217.0,-790.0,-300.0,-335.0,-235.0,-664.0,-792.0
-52.0,-176.0,-210.0,-747.0,-334.0,-338.0,-228.0,-682.0,-804.0
-46.0,-173.0,-219.0,-711.0,-353.0,-358.0,-205.0,-670.0,-802.0
-48.0,-156.0,-202.0,-670.0,-359.0,-386.0,-210.0,-643.0,-781.0
-45.0,-157.0,-227.0,-644.0,-366.0,-410.0,-202.0,-633.0,-832.0
-42.0,-161.0,-217.0,-646.0,-386.0,-397.0,-181.0,-641.0,-810.0
-37.0,-164.0,-220.0,-632.0,-402.0,-401.0,-168.0,-644.0,-810.0
-28.0,-173.0,-219.0,-600.0,-421.0,-416.0,-151.0,-669.0,-808.0
-28.0,-160.0,-222.0,-575.0,-436.0,-440.0,-133.0,-629.0,-817.0
-28.0,-152.0,-220.0,-546.0,-443.0,-457.0,-133.0,-620.0,-807.0
-24.0,-153.0,-224.0,-514.0,-435.0,-460.0,-131.0,-617.0,-824.0
-23.0,-157.0,-230.0,-504.0,-417.0,-453.0,-113.0,-629.0,-850.0
-29.0,-161.0,-232.0,-511.0,-392.0,-445.0,-112.0,-646.0,-858.0
-28.0,-162.0,-224.0,-528.0,-388.0,-480.0,-129.0,-651.0,-842.0
-29.0,-165.0,-231.0,-550.0,-404.0,-537.0,-144.0,-636.0,-864.0
-26.0,-158.0,-227.0,-553.0,-398.0,-562.0,-137.0,-637.0,-868.0
-28.0,-170.0,-242.0,-527.0,-385.0,-545.0,-136.0,-653.0,-868.0
-38.0,-163.0,-239.0,-497.0,-363.0,-535.0,-175.0,-664.0,-902.0
-40.0,-158.0,-234.0,-522.0,-350.0,-507.0,-181.0,-627.0,-885.0
-49.0,-165.0,-238.0,-525.0,-357.0,-502.0,-205.0,-622.0,-898.0
-46.0,-147.0,-237.0,-535.0,-365.0,-512.0,-192.0,-573.0,-881.0
-41.0,-151.0,-240.0,-530.0,-363.0,-495.0,-191.0,-596.0,-893.0
-46.0,-148.0,-242.0,-522.0,-355.0,-470.0,-199.0,-587.0,-885.0
-48.0,-146.0,-239.0,-503.0,-347.0,-473.0,-200.0,-591.0,-882.0
-36.0,-158.0,-234.0,-476.0,-353.0,-498.0,-129.0,-527.0,-861.0
-45.0,-169.0,-246.0,-435.0,-353.0,-546.0,-222.0,-663.0,-910.0
-43.0,-141.0,-239.0,-454.0,-350.0,-577.0,-197.0,-558.0,-896.0
-47.0,-147.0,-242.0,-462.0,-355.0,-540.0,-210.0,-590.0,-887.0
-48.0,-151.0,-242.0,-470.0,-351.0,-514.0,-203.0,-605.0,-904.0
-59.0,-145.0,-240.0,-479.0,-354.0,-505.0,-244.0,-584.0,-896.0
-61.0,-150.0,-241.0,-483.0,-380.0,-522.0,-245.0,-598.0,-905.0
-57.0,-164.0,-239.0,-485.0,-419.0,-537.0,-237.0,-634.0,-903.0
-57.0,-146.0,-240.0,-482.0,-463.0,-544.0,-244.0,-578.0,-897.0
-57.0,-147.0,-242.0,-447.0,-485.0,-547.0,-250.0,-590.0,-901.0
-56.0,-156.0,-246.0,-393.0,-515.0,-548.0,-243.0,-616.0,-918.0
-52.0,-147.0,-243.0,-372.0,-537.0,-524.0,-231.0,-583.0,-914.0
-60.0,-155.0,-243.0,-326.0,-554.0,-564.0,-247.0,-586.0,-891.0
-58.0,-157.0,-243.0,-264.0,-581.0,-620.0,-253.0,-603.0,-917.0
-56.0,-149.0,-246.0,-225.0,-605.0,-690.0,-243.0,-596.0,-907.0
-47.0,-161.0,-243.0,-172.0,-606.0,-725.0,-195.0,-607.0,-914.0
-40.0,-167.0,-253.0,-125.0,-574.0,-740.0,-190.0,-642.0,-940.0
-35.0,-170.0,-250.0,-67.0,-533.0,-779.0,-170.0,-666.0,-942.0
-30.0,-165.0,-252.0,1.0,-491.0,-816.0,-158.0,-648.0,-964.0
-30.0,-167.0,-257.0,77.0,-426.0,-868.0,-148.0,-656.0,-962.0
-22.0,-166.0,-251.0,126.0,-381.0,-922.0,-64.0,-627.0,-956.0
-30.0,-167.0,-266.0,171.0,-340.0,-990.0,-164.0,-666.0,-995.0
-25.0,-162.0,-265.0,204.0,-282.0,-945.0,-125.0,-647.0,-1009.0
-32.0,-166.0,-272.0,232.0,-228.0,-936.0,-141.0,-654.0,-1015.0
-44.0,-164.0,-258.0,257.0,-198.0,-923.0,-187.0,-669.0,-1005.0
-40.0,-172.0,-272.0,291.0,-182.0,-910.0,-184.0,-670.0,-1011.0
-57.0,-176.0,-270.0,302.0,-168.0,-858.0,-237.0,-699.0,-1014.0
-64.0,-220.0,-275.0,317.0,-181.0,-876.0,-280.0,-808.0,-992.0
-73.0,-160.0,-255.0,327.0,-210.0,-877.0,-315.0,-626.0,-959.0
-77.0,-177.0,-254.0,394.0,-234.0,-798.0,-331.0,-689.0,-973.0
-80.0,-175.0,-251.0,434.0,-252.0,-732.0,-337.0,-681.0,-935.0
-75.0,-164.0,-237.0,481.0,-279.0,-690.0,-315.0,-651.0,-911.0
-82.0,-191.0,-244.0,537.0,-298.0,-672.0,-351.0,-728.0,-892.0
-80.0,-182.0,-233.0,574.0,-306.0,-671.0,-340.0,-716.0,-868.0
-77.0,-180.0,-223.0,619.0,-314.0,-674.0,-323.0,-721.0,-852.0
-75.0,-191.0,-236.0,661.0,-313.0,-686.0,-326.0,-743.0,-866.0
-73.0,-193.0,-228.0,698.0,-304.0,-693.0,-306.0,-769.0,-864.0
-68.0,-197.0,-231.0,748.0,-293.0,-698.0,-298.0,-754.0,-871.0
-67.0,-203.0,-229.0,794.0,-287.0,-694.0,-285.0,-753.0,-857.0
-74.0,-197.0,-239.0,846.0,-286.0,-702.0,-309.0,-770.0,-881.0
-74.0,-194.0,-236.0,888.0,-286.0,-700.0,-307.0,-754.0,-882.0
-76.0,-190.0,-239.0,911.0,-282.0,-698.0,-312.0,-764.0,-889.0
-79.0,-199.0,-240.0,928.0,-280.0,-695.0,-341.0,-780.0,-893.0
-80.0,-185.0,-240.0,929.0,-276.0,-696.0,-336.0,-728.0,-895.0
-74.0,-188.0,-243.0,923.0,-271.0,-686.0,-323.0,-706.0,-883.0
-82.0,-185.0,-240.0,920.0,-260.0,-682.0,-347.0,-731.0,-899.0
-78.0,-183.0,-235.0,900.0,-254.0,-664.0,-338.0,-723.0,-871.0
-79.0,-187.0,-226.0,881.0,-245.0,-656.0,-334.0,-740.0,-844.0
-80.0,-180.0,-217.0,872.0,-245.0,-651.0,-312.0,-698.0,-808.0
-72.0,-188.0,-218.0,876.0,-243.0,-654.0,-316.0,-755.0,-803.0
-66.0,-189.0,-214.0,891.0,-227.0,-645.0,-286.0,-740.0,-777.0
-58.0,-189.0,-207.0,911.0,-208.0,-636.0,-258.0,-742.0,-757.0
-56.0,-194.0,-199.0,937.0,-195.0,-624.0,-239.0,-751.0,-718.0
-48.0,-190.0,-200.0,959.0,-188.0,-615.0,-218.0,-749.0,-725.0
-41.0,-190.0,-191.0,983.0,-177.0,-598.0,-186.0,-752.0,-700.0
-41.0,-200.0,-182.0,987.0,-167.0,-573.0,-192.0,-757.0,-644.0
-44.0,-201.0,-178.0,1009.0,-144.0,-571.0,-191.0,-784.0,-647.0
-43.0,-201.0,-171.0,1026.0,-134.0,-561.0,-189.0,-795.0,-623.0
-49.0,-210.0,-172.0,1053.0,-131.0,-546.0,-196.0,-828.0,-595.0
-46.0,-207.0,-164.0,1078.0,-137.0,-530.0,-209.0,-825.0,-588.0
-49.0,-210.0,-160.0,1101.0,-142.0,-503.0,-208.0,-832.0,-574.0
-44.0,-229.0,-161.0,1133.0,-149.0,-480.0,-206.0,-881.0,-565.0
-36.0,-223.0,-155.0,1153.0,-159.0,-443.0,-171.0,-875.0,-556.0
-38.0,-231.0,-153.0,1178.0,-178.0,-408.0,-175.0,-845.0,-519.0
-38.0,-231.0,-147.0,1234.0,-176.0,-408.0,-187.0,-896.0,-520.0
-35.0,-239.0,-144.0,1291.0,-163.0,-394.0,-171.0,-904.0,-501.0
-40.0,-235.0,-143.0,1343.0,-169.0,-379.0,-178.0,-896.0,-513.0
-34.0,-242.0,-137.0,1396.0,-180.0,-373.0,-173.0,-932.0,-494.0
-42.0,-240.0,-143.0,1428.0,-173.0,-334.0,-194.0,-924.0,-482.0
-43.0,-236.0,-135.0,1474.0,-173.0,-337.0,-192.0,-931.0,-460.0
-53.0,-239.0,-147.0,1527.0,-187.0,-337.0,-216.0,-928.0,-493.0
-35.0,-240.0,-133.0,1561.0,-211.0,-335.0,-187.0,-920.0,-480.0
-35.0,-241.0,-142.0,1626.0,-194.0,-323.0,-166.0,-946.0,-493.0
-30.0,-243.0,-143.0,1669.0,-172.0,-308.0,-146.0,-940.0,-508.0
-25.0,-243.0,-142.0,1689.0,-164.0,-290.0,-118.0,-951.0,-495.0
-18.0,-238.0,-134.0,1701.0,-135.0,-269.0,-109.0,-912.0,-484.0
-22.0,-252.0,-139.0,1729.0,-96.0,-267.0,-126.0,-967.0,-493.0
-10.0,-249.0,-145.0,1741.0,-63.0,-270.0,-93.0,-965.0,-503.0
-11.0,-245.0,-146.0,1742.0,-25.0,-265.0,-88.0,-964.0,-508.0
-13.0,-241.0,-146.0,1726.0,15.0,-265.0,-71.0,-936.0,-503.0
-14.0,-248.0,-145.0,1700.0,37.0,-242.0,-87.0,-961.0,-503.0
-23.0,-243.0,-146.0,1646.0,40.0,-229.0,-124.0,-946.0,-509.0
-26.0,-243.0,-147.0,1622.0,28.0,-240.0,-125.0,-941.0,-514.0
-23.0,-241.0,-148.0,1609.0,7.0,-256.0,-120.0,-929.0,-519.0
-24.0,-237.0,-150.0,1603.0,0.0,-260.0,-130.0,-928.0,-522.0
-23.0,-237.0,-154.0,1601.0,-6.0,-264.0,-117.0,-926.0,-531.0
-23.0,-236.0,-150.0,1599.0,-17.0,-266.0,-110.0,-915.0,-530.0
-20.0,-239.0,-150.0,1603.0,-25.0,-266.0,-108.0,-921.0,-527.0
-11.0,-234.0,-144.0,1609.0,-40.0,-259.0,-66.0,-919.0,-519.0
-11.0,-234.0,-147.0,1602.0,-48.0,-227.0,-79.0,-913.0,-508.0
-18.0,-232.0,-141.0,1614.0,-55.0,-231.0,-93.0,-904.0,-506.0
-12.0,-229.0,-138.0,1619.0,-68.0,-248.0,-80.0,-893.0,-489.0
-13.0,-227.0,-132.0,1607.0,-67.0,-247.0,-92.0,-898.0,-452.0
-10.0,-231.0,-121.0,1580.0,-49.0,-238.0,-73.0,-916.0,-410.0
-4.0,-241.0,-106.0,1528.0,-27.0,-194.0,-57.0,-930.0,-356.0
-9.0,-241.0,-103.0,1489.0,-2.0,-155.0,-67.0,-935.0,-334.0
-12.0,-238.0,-102.0,1475.0,8.0,-142.0,-76.0,-914.0,-327.0
-17.0,-232.0,-104.0,1482.0,-1.0,-152.0,-94.0,-900.0,-331.0
-20.0,-228.0,-102.0,1513.0,-12.0,-181.0,-103.0,-892.0,-334.0
-18.0,-229.0,-98.0,1539.0,-2.0,-223.0,-101.0,-900.0,-332.0
-14.0,-224.0,-93.0,1541.0,4.0,-255.0,-92.0,-872.0,-306.0
-12.0,-203.0,-93.0,1522.0,3.0,-272.0,-69.0,-859.0,-299.0
-11.0,-221.0,-94.0,1483.0,-1.0,-264.0,-78.0,-859.0,-308.0
-12.0,-215.0,-94.0,1428.0,-1.0,-277.0,-92.0,-841.0,-301.0
-11.0,-217.0,-89.0,1361.0,1.0,-289.0,-77.0,-865.0,-281.0
-11.0,-221.0,-88.0,1272.0,4.0,-283.0,-64.0,-871.0,-259.0
-12.0,-222.0,-83.0,1181.0,11.0,-264.0,-71.0,-878.0,-254.0
-11.0,-226.0,-85.0,1092.0,23.0,-255.0,-74.0,-867.0,-249.0
-11.0,-232.0,-75.0,1048.0,30.0,-254.0,-56.0,-904.0,-245.0
-6.0,-234.0,-81.0,1012.0,30.0,-268.0,-41.0,-907.0,-240.0
-5.0,-237.0,-81.0,1000.0,32.0,-260.0,-53.0,-913.0,-246.0
-5.0,-242.0,-82.0,1006.0,45.0,-260.0,-54.0,-931.0,-243.0
-17.0,-243.0,-82.0,1028.0,50.0,-269.0,-94.0,-936.0,-243.0
-22.0,-251.0,-78.0,1065.0,47.0,-292.0,-107.0,-967.0,-246.0
-26.0,-255.0,-84.0,1106.0,35.0,-317.0,-129.0,-974.0,-251.0
-28.0,-248.0,-80.0,1148.0,19.0,-326.0,-129.0,-958.0,-241.0
-30.0,-246.0,-76.0,1180.0,-7.0,-290.0,-140.0,-960.0,-242.0
-35.0,-247.0,-79.0,1200.0,-21.0,-263.0,-171.0,-949.0,-237.0
-43.0,-232.0,-81.0,1220.0,-35.0,-256.0,-203.0,-916.0,-247.0
-42.0,-240.0,-76.0,1226.0,-50.0,-275.0,-183.0,-923.0,-237.0
-36.0,-234.0,-78.0,1198.0,-74.0,-267.0,-179.0,-908.0,-234.0
-36.0,-228.0,-76.0,1156.0,-97.0,-247.0,-161.0,-900.0,-219.0
-36.0,-231.0,-68.0,1093.0,-122.0,-203.0,-162.0,-903.0,-206.0
-36.0,-230.0,-65.0,1030.0,-145.0,-176.0,-169.0,-904.0,-194.0
-35.0,-232.0,-63.0,981.0,-173.0,-179.0,-172.0,-893.0,-186.0
-28.0,-230.0,-61.0,936.0,-204.0,-186.0,-145.0,-893.0,-175.0
-13.0,-232.0,-64.0,905.0,-225.0,-171.0,-75.0,-919.0,-162.0
-11.0,-238.0,-59.0,866.0,-256.0,-111.0,-72.0,-916.0,-156.0
-14.0,-240.0,-58.0,834.0,-264.0,-62.0,-86.0,-922.0,-162.0
-15.0,-237.0,-58.0,818.0,-265.0,-42.0,-90.0,-929.0,-161.0
-16.0,-242.0,-60.0,809.0,-265.0,-36.0,-92.0,-918.0,-153.0
-15.0,-236.0,-58.0,804.0,-264.0,-39.0,-88.0,-899.0,-169.0
-18.0,-232.0,-56.0,793.0,-252.0,-37.0,-104.0,-896.0,-158.0
-13.0,-243.0,-55.0,783.0,-234.0,-53.0,-78.0,-932.0,-128.0
-14.0,-241.0,-49.0,771.0,-241.0,-43.0,-85.0,-929.0,-117.0
-11.0,-239.0,-46.0,758.0,-249.0,-21.0,-70.0,-933.0,-110.0
-16.0,-240.0,-44.0,738.0,-255.0,22.0,-82.0,-925.0,-95.0
-23.0,-245.0,-43.0,715.0,-250.0,46.0,-126.0,-936.0,-79.0
-33.0,-245.0,-35.0,696.0,-249.0,29.0,-148.0,-950.0,-71.0
-33.0,-244.0,-35.0,682.0,-255.0,2.0,-156.0,-931.0,-50.0
-32.0,-248.0,-34.0,686.0,-260.0,-5.0,-154.0,-947.0,-54.0
-28.0,-249.0,-29.0,684.0,-261.0,-10.0,-132.0,-949.0,-43.0
-31.0,-247.0,-31.0,679.0,-270.0,8.0,-138.0,-949.0,-50.0
-26.0,-248.0,-31.0,666.0,-280.0,16.0,-135.0,-951.0,-47.0
-22.0,-249.0,-35.0,653.0,-278.0,24.0,-138.0,-949.0,-58.0
-37.0,-239.0,-33.0,631.0,-291.0,8.0,-165.0,-942.0,-52.0
-25.0,-251.0,-32.0,609.0,-301.0,-6.0,-120.0,-970.0,-52.0
-21.0,-255.0,-24.0,584.0,-315.0,-13.0,-106.0,-998.0,-19.0
-17.0,-252.0,-22.0,569.0,-328.0,6.0,-95.0,-977.0,-10.0
-12.0,-249.0,-23.0,554.0,-351.0,49.0,-73.0,-965.0,3.0
-18.0,-256.0,-27.0,541.0,-358.0,69.0,-104.0,-970.0,-22.0
-18.0,-253.0,-26.0,536.0,-343.0,24.0,-97.0,-964.0,-22.0
-23.0,-247.0,-20.0,541.0,-327.0,-16.0,-107.0,-952.0,9.0
-12.0,-259.0,-7.0,550.0,-329.0,-27.0,-80.0,-1001.0,41.0
-12.0,-255.0,-9.0,561.0,-359.0,-2.0,-78.0,-979.0,44.0
-19.0,-258.0,-5.0,562.0,-390.0,42.0,-109.0,-993.0,56.0
-34.0,-264.0,2.0,566.0,-385.0,48.0,-157.0,-1015.0,85.0
-41.0,-266.0,14.0,589.0,-367.0,26.0,-191.0,-1027.0,132.0
-47.0,-258.0,26.0,622.0,-362.0,33.0,-193.0,-1033.0,170.0
-46.0,-261.0,22.0,661.0,-361.0,39.0,-210.0,-1023.0,176.0
-53.0,-260.0,18.0,666.0,-391.0,64.0,-241.0,-1011.0,150.0
-52.0,-261.0,10.0,642.0,-419.0,86.0,-234.0,-1005.0,107.0
-59.0,-258.0,4.0,599.0,-442.0,105.0,-249.0,-996.0,89.0
-62.0,-257.0,3.0,556.0,-484.0,119.0,-255.0,-1001.0,88.0
-55.0,-261.0,7.0,523.0,-537.0,145.0,-238.0,-1016.0,106.0
-39.0,-272.0,7.0,526.0,-549.0,151.0,-173.0,-1066.0,97.0
-50.0,-268.0,14.0,529.0,-565.0,145.0,-212.0,-1041.0,137.0
-36.0,-266.0,10.0,538.0,-602.0,160.0,-178.0,-1041.0,121.0
-31.0,-270.0,9.0,543.0,-621.0,155.0,-149.0,-1042.0,115.0
-28.0,-265.0,10.0,555.0,-623.0,117.0,-142.0,-1020.0,125.0
-21.0,-265.0,11.0,566.0,-629.0,86.0,-102.0,-1027.0,119.0
-16.0,-260.0,13.0,554.0,-638.0,59.0,-99.0,-999.0,134.0
-16.0,-251.0,15.0,539.0,-639.0,57.0,-86.0,-963.0,122.0
-8.0,-246.0,8.0,520.0,-628.0,76.0,-66.0,-948.0,93.0
-17.0,-241.0,-1.0,494.0,-593.0,79.0,-106.0,-926.0,73.0
-20.0,-239.0,-5.0,465.0,-570.0,57.0,-110.0,-919.0,72.0
-19.0,-235.0,4.0,433.0,-564.0,66.0,-108.0,-903.0,92.0
-19.0,-236.0,12.0,417.0,-574.0,90.0,-108.0,-901.0,110.0
-15.0,-239.0,12.0,417.0,-581.0,119.0,-75.0,-900.0,134.0
-19.0,-233.0,11.0,422.0,-564.0,131.0,-106.0,-901.0,118.0
-24.0,-228.0,9.0,399.0,-561.0,148.0,-108.0,-890.0,114.0
-16.0,-229.0,9.0,347.0,-579.0,159.0,-93.0,-887.0,117.0
-11.0,-235.0,9.0,299.0,-595.0,168.0,-72.0,-916.0,127.0
-21.0,-240.0,10.0,263.0,-581.0,163.0,-106.0,-925.0,112.0
-11.0,-249.0,13.0,222.0,-608.0,182.0,-67.0,-949.0,124.0
-12.0,-252.0,7.0,205.0,-632.0,175.0,-74.0,-953.0,106.0
-9.0,-253.0,5.0,199.0,-639.0,168.0,-55.0,-954.0,100.0
-7.0,-252.0,10.0,190.0,-653.0,159.0,-51.0,-962.0,104.0
-11.0,-252.0,8.0,184.0,-654.0,146.0,-69.0,-958.0,101.0
-15.0,-250.0,8.0,175.0,-653.0,144.0,-100.0,-960.0,98.0
-15.0,-253.0,16.0,152.0,-657.0,156.0,-86.0,-969.0,125.0
-25.0,-254.0,13.0,140.0,-667.0,155.0,-105.0,-968.0,126.0
-28.0,-252.0,11.0,129.0,-681.0,158.0,-132.0,-969.0,130.0
-47.0,-256.0,20.0,115.0,-678.0,169.0,-170.0,-967.0,127.0
-31.0,-253.0,12.0,92.0,-721.0,193.0,-138.0,-965.0,145.0
-22.0,-252.0,12.0,86.0,-766.0,179.0,-120.0,-990.0,130.0
-16.0,-248.0,10.0,77.0,-784.0,162.0,-89.0,-952.0,119.0
-22.0,-241.0,4.0,66.0,-796.0,150.0,-104.0,-940.0,105.0
-25.0,-238.0,15.0,41.0,-827.0,142.0,-125.0,-920.0,125.0
-15.0,-240.0,8.0,5.0,-853.0,131.0,-95.0,-926.0,113.0
-19.0,-238.0,18.0,-25.0,-872.0,136.0,-96.0,-908.0,136.0
-23.0,-239.0,12.0,-35.0,-888.0,140.0,-109.0,-910.0,125.0
-19.0,-245.0,13.0,-43.0,-893.0,154.0,-107.0,-925.0,134.0
-12.0,-243.0,8.0,-51.0,-922.0,175.0,-84.0,-929.0,114.0
-21.0,-245.0,9.0,-66.0,-921.0,192.0,-135.0,-950.0,107.0
-34.0,-251.0,7.0,-92.0,-929.0,202.0,-143.0,-957.0,127.0
-34.0,-254.0,9.0,-108.0,-941.0,211.0,-161.0,-975.0,132.0
-39.0,-256.0,14.0,-119.0,-925.0,213.0,-172.0,-994.0,122.0
-50.0,-257.0,12.0,-127.0,-953.0,222.0,-219.0,-981.0,106.0
-42.0,-252.0,13.0,-139.0,-998.0,238.0,-195.0,-971.0,131.0
-41.0,-256.0,5.0,-132.0,-1038.0,251.0,-186.0,-981.0,100.0
-33.0,-257.0,-4.0,-124.0,-1075.0,252.0,-151.0,-984.0,72.0
-34.0,-256.0,0.0,-121.0,-1105.0,227.0,-173.0,-970.0,66.0
-33.0,-245.0,-3.0,-120.0,-1144.0,190.0,-144.0,-946.0,69.0
-21.0,-242.0,1.0,-127.0,-1155.0,187.0,-117.0,-931.0,83.0
-20.0,-242.0,1.0,-145.0,-1173.0,175.0,-115.0,-924.0,91.0
-24.0,-240.0,5.0,-156.0,-1195.0,166.0,-129.0,-931.0,95.0
-23.0,-239.0,5.0,-170.0,-1225.0,153.0,-115.0,-926.0,73.0
-24.0,-233.0,-1.0,-181.0,-1232.0,148.0,-125.0,-903.0,68.0
-27.0,-234.0,-3.0,-194.0,-1225.0,141.0,-132.0,-898.0,67.0
-18.0,-235.0,-7.0,-210.0,-1237.0,133.0,-120.0,-917.0,60.0
-24.0,-233.0,-15.0,-222.0,-1228.0,126.0,-121.0,-906.0,26.0
-23.0,-235.0,-16.0,-248.0,-1202.0,134.0,-118.0,-924.0,4.0
-19.0,-240.0,-28.0,-272.0,-1186.0,138.0,-105.0,-931.0,-28.0
-25.0,-259.0,-47.0,-297.0,-1183.0,132.0,-105.0,-927.0,-42.0
-13.0,-240.0,-41.0,-280.0,-1146.0,101.0,-90.0,-928.0,-90.0
-10.0,-238.0,-44.0,-276.0,-1112.0,71.0,-69.0,-921.0,-92.0
-7.0,-240.0,-39.0,-287.0,-1091.0,41.0,-77.0,-914.0,-74.0
-12.0,-241.0,-39.0,-296.0,-1095.0,21.0,-82.0,-922.0,-73.0
-16.0,-242.0,-35.0,-286.0,-1091.0,4.0,-83.0,-909.0,-56.0
-11.0,-254.0,-31.0,-260.0,-1105.0,-6.0,-79.0,-993.0,-50.0
-3.0,-247.0,-11.0,-270.0,-1102.0,-4.0,-45.0,-968.0,20.0
-7.0,-249.0,1.0,-274.0,-1087.0,1.0,-39.0,-955.0,110.0
-6.0,-258.0,12.0,-277.0,-1073.0,2.0,-38.0,-998.0,120.0
-17.0,-255.0,16.0,-305.0,-1056.0,22.0,-110.0,-974.0,152.0
-19.0,-261.0,19.0,-318.0,-1038.0,14.0,-102.0,-1009.0,180.0
-17.0,-262.0,26.0,-341.0,-1016.0,28.0,-100.0,-1029.0,180.0
-23.0,-259.0,22.0,-376.0,-996.0,31.0,-140.0,-979.0,164.0
-21.0,-259.0,24.0,-386.0,-963.0,14.0,-110.0,-1003.0,163.0
-16.0,-258.0,22.0,-401.0,-935.0,15.0,-103.0,-999.0,164.0
-20.0,-258.0,17.0,-419.0,-889.0,19.0,-111.0,-1016.0,153.0
-22.0,-256.0,20.0,-439.0,-860.0,26.0,-112.0,-987.0,144.0
-29.0,-254.0,22.0,-454.0,-827.0,18.0,-138.0,-974.0,152.0
-22.0,-240.0,28.0,-459.0,-809.0,-7.0,-113.0,-941.0,170.0
-12.0,-256.0,11.0,-458.0,-786.0,-8.0,-77.0,-994.0,135.0
-6.0,-262.0,16.0,-487.0,-773.0,6.0,-56.0,-1011.0,159.0
-15.0,-260.0,18.0,-522.0,-763.0,47.0,-97.0,-1007.0,155.0
-33.0,-254.0,21.0,-532.0,-736.0,44.0,-153.0,-962.0,137.0
-23.0,-269.0,26.0,-541.0,-720.0,45.0,-123.0,-1026.0,171.0
-26.0,-262.0,26.0,-495.0,-708.0,-2.0,-139.0,-1008.0,204.0
-25.0,-268.0,22.0,-445.0,-686.0,-32.0,-133.0,-1033.0,162.0
-37.0,-264.0,17.0,-423.0,-667.0,-49.0,-150.0,-1021.0,161.0
-25.0,-271.0,18.0,-406.0,-658.0,-44.0,-131.0,-1042.0,168.0
-38.0,-259.0,24.0,-401.0,-645.0,-30.0,-177.0,-982.0,165.0
-45.0,-260.0,26.0,-371.0,-623.0,-56.0,-215.0,-974.0,165.0
-33.0,-253.0,27.0,-332.0,-623.0,-93.0,-178.0,-968.0,174.0
-33.0,-251.0,26.0,-312.0,-637.0,-107.0,-161.0,-959.0,177.0
-24.0,-250.0,15.0,-294.0,-632.0,-123.0,-135.0,-949.0,168.0
-23.0,-242.0,19.0,-292.0,-614.0,-133.0,-114.0,-943.0,149.0
-37.0,-243.0,16.0,-311.0,-603.0,-121.0,-180.0,-917.0,151.0
-49.0,-236.0,18.0,-308.0,-588.0,-147.0,-202.0,-902.0,150.0
-40.0,-236.0,19.0,-299.0,-588.0,-202.0,-200.0,-899.0,149.0
-40.0,-233.0,21.0,-301.0,-573.0,-265.0,-184.0,-901.0,152.0
-39.0,-234.0,24.0,-326.0,-553.0,-307.0,-186.0,-906.0,156.0
-43.0,-232.0,18.0,-365.0,-548.0,-329.0,-200.0,-902.0,155.0
-37.0,-236.0,25.0,-403.0,-528.0,-347.0,-180.0,-904.0,157.0
-37.0,-238.0,17.0,-437.0,-500.0,-375.0,-169.0,-910.0,149.0
-35.0,-238.0,18.0,-453.0,-498.0,-404.0,-166.0,-908.0,150.0
-32.0,-238.0,11.0,-474.0,-506.0,-398.0,-148.0,-926.0,120.0
-39.0,-240.0,8.0,-481.0,-486.0,-409.0,-181.0,-920.0,101.0
-41.0,-246.0,9.0,-473.0,-477.0,-455.0,-180.0,-941.0,97.0
-49.0,-251.0,5.0,-462.0,-495.0,-495.0,-215.0,-947.0,107.0
-48.0,-257.0,5.0,-443.0,-502.0,-503.0,-219.0,-978.0,92.0
-51.0,-258.0,6.0,-430.0,-510.0,-528.0,-234.0,-999.0,81.0
-41.0,-259.0,5.0,-425.0,-518.0,-529.0,-187.0,-1010.0,85.0
-36.0,-263.0,3.0,-426.0,-515.0,-526.0,-170.0,-1015.0,75.0
-38.0,-266.0,5.0,-427.0,-501.0,-517.0,-180.0,-1021.0,92.0
-22.0,-269.0,7.0,-427.0,-488.0,-486.0,-119.0,-1044.0,98.0
-29.0,-273.0,7.0,-431.0,-471.0,-451.0,-142.0,-1051.0,93.0
-15.0,-278.0,2.0,-430.0,-459.0,-445.0,-96.0,-1078.0,85.0
-8.0,-279.0,-6.0,-426.0,-464.0,-451.0,-65.0,-1094.0,66.0
-11.0,-285.0,-5.0,-417.0,-477.0,-447.0,-60.0,-1103.0,65.0
8.0,-295.0,-6.0,-386.0,-509.0,-424.0,31.0,-1130.0,36.0
-3.0,-299.0,-23.0,-339.0,-552.0,-404.0,-42.0,-1143.0,-4.0
2.0,-295.0,-34.0,-249.0,-588.0,-421.0,-5.0,-1132.0,-47.0
0.0,-291.0,-41.0,-155.0,-594.0,-431.0,-24.0,-1105.0,-76.0
-1.0,-276.0,-42.0,-69.0,-581.0,-434.0,-50.0,-1063.0,-95.0
-11.0,-270.0,-39.0,-3.0,-547.0,-429.0,-67.0,-1036.0,-85.0
-16.0,-262.0,-37.0,42.0,-526.0,-429.0,-100.0,-1019.0,-57.0
-14.0,-261.0,-30.0,70.0,-521.0,-433.0,-89.0,-1013.0,-38.0
-14.0,-258.0,-27.0,81.0,-526.0,-445.0,-83.0,-993.0,-23.0
-26.0,-257.0,-18.0,72.0,-538.0,-467.0,-100.0,-987.0,-8.0
-29.0,-259.0,-14.0,51.0,-564.0,-479.0,-132.0,-1006.0,19.0
-45.0,-257.0,-10.0,23.0,-602.0,-493.0,-203.0,-999.0,45.0
-46.0,-258.0,-10.0,0.0,-643.0,-489.0,-189.0,-1005.0,43.0
-37.0,-255.0,-13.0,-26.0,-680.0,-488.0,-162.0,-1008.0,28.0
-25.0,-257.0,-24.0,-56.0,-713.0,-486.0,-147.0,-1008.0,5.0
-20.0,-254.0,-23.0,-89.0,-749.0,-482.0,-114.0,-998.0,-21.0
-13.0,-254.0,-23.0,-127.0,-774.0,-467.0,-77.0,-983.0,-7.0
-4.0,-254.0,-21.0,-165.0,-803.0,-443.0,-24.0,-988.0,-10.0
9.0,-254.0,-25.0,-195.0,-828.0,-422.0,16.0,-1001.0,-18.0
32.0,-258.0,-21.0,-213.0,-854.0,-401.0,106.0,-998.0,-11.0
42.0,-259.0,-27.0,-228.0,-869.0,-380.0,137.0,-1013.0,-14.0
52.0,-262.0,-25.0,-234.0,-866.0,-372.0,176.0,-1015.0,-19.0
51.0,-264.0,-25.0,-237.0,-864.0,-369.0,169.0,-1032.0,-14.0
51.0,-273.0,-23.0,-224.0,-868.0,-370.0,194.0,-1059.0,-21.0
57.0,-279.0,-31.0,-207.0,-887.0,-373.0,198.0,-1081.0,-36.0
48.0,-279.0,-30.0,-188.0,-917.0,-365.0,166.0,-1090.0,-39.0
28.0,-287.0,-37.0,-165.0,-945.0,-360.0,102.0,-1101.0,-37.0
22.0,-286.0,-32.0,-136.0,-981.0,-382.0,76.0,-1100.0,-52.0
27.0,-270.0,-63.0,-104.0,-1038.0,-432.0,83.0,-1074.0,-76.0
31.0,-265.0,-40.0,-76.0,-1065.0,-469.0,74.0,-1029.0,-100.0
30.0,-257.0,-51.0,-67.0,-1069.0,-480.0,104.0,-1009.0,-123.0
46.0,-254.0,-48.0,-64.0,-1065.0,-499.0,112.0,-977.0,-126.0
32.0,-269.0,-49.0,-65.0,-1050.0,-542.0,114.0,-981.0,-124.0
38.0,-241.0,-67.0,-58.0,-1052.0,-601.0,105.0,-950.0,-148.0
44.0,-235.0,-61.0,-57.0,-1017.0,-652.0,89.0,-962.0,-117.0
34.0,-250.0,-45.0,-46.0,-1010.0,-701.0,117.0,-954.0,-139.0
52.0,-234.0,-61.0,-56.0,-998.0,-755.0,164.0,-920.0,-148.0
45.0,-237.0,-63.0,-96.0,-943.0,-783.0,129.0,-915.0,-152.0
40.0,-227.0,-67.0,-138.0,-900.0,-818.0,123.0,-884.0,-168.0
52.0,-220.0,-59.0,-177.0,-859.0,-854.0,156.0,-878.0,-159.0
32.0,-223.0,-56.0,-219.0,-808.0,-876.0,97.0,-859.0,-145.0
27.0,-220.0,-48.0,-241.0,-789.0,-894.0,74.0,-855.0,-126.0
25.0,-226.0,-53.0,-243.0,-763.0,-909.0,56.0,-862.0,-123.0
16.0,-221.0,-51.0,-226.0,-719.0,-921.0,44.0,-866.0,-140.0
6.0,-219.0,-51.0,-206.0,-662.0,-929.0,5.0,-863.0,-118.0
9.0,-224.0,-43.0,-188.0,-628.0,-923.0,-2.0,-864.0,-90.0
5.0,-227.0,-42.0,-170.0,-600.0,-913.0,-6.0,-877.0,-97.0
-7.0,-231.0,-34.0,-158.0,-586.0,-911.0,-53.0,-879.0,-64.0
-1.0,-228.0,-33.0,-143.0,-561.0,-893.0,-24.0,-883.0,-51.0
-5.0,-223.0,-46.0,-134.0,-538.0,-873.0,-59.0,-876.0,-66.0
6.0,-221.0,-46.0,-143.0,-518.0,-840.0,-15.0,-873.0,-88.0
17.0,-230.0,-40.0,-157.0,-473.0,-804.0,9.0,-890.0,-92.0
16.0,-234.0,-42.0,-179.0,-428.0,-775.0,27.0,-896.0,-90.0
25.0,-234.0,-47.0,-190.0,-377.0,-733.0,60.0,-894.0,-84.0
14.0,-241.0,-47.0,-181.0,-316.0,-662.0,14.0,-914.0,-99.0
20.0,-248.0,-43.0,-152.0,-243.0,-642.0,49.0,-945.0,-91.0
25.0,-254.0,-49.0,-118.0,-188.0,-630.0,68.0,-967.0,-97.0
22.0,-252.0,-49.0,-73.0,-127.0,-610.0,44.0,-959.0,-110.0
18.0,-258.0,-35.0,-7.0,-51.0,-569.0,32.0,-973.0,-78.0
20.0,-260.0,-35.0,73.0,12.0,-531.0,31.0,-1003.0,-65.0
24.0,-258.0,-36.0,151.0,75.0,-491.0,59.0,-1005.0,-51.0
34.0,-260.0,-32.0,215.0,135.0,-456.0,93.0,-1020.0,-43.0
36.0,-261.0,-38.0,259.0,198.0,-419.0,95.0,-1026.0,-50.0
41.0,-262.0,-32.0,283.0,278.0,-381.0,114.0,-1023.0,-63.0
45.0,-263.0,-33.0,311.0,344.0,-351.0,136.0,-1022.0,-46.0
52.0,-263.0,-28.0,348.0,419.0,-328.0,170.0,-1027.0,-32.0
49.0,-265.0,-20.0,394.0,499.0,-303.0,168.0,-1029.0,-3.0
52.0,-262.0,-16.0,441.0,564.0,-280.0,160.0,-1011.0,23.0
47.0,-257.0,-6.0,491.0,616.0,-262.0,161.0,-983.0,42.0
49.0,-251.0,-10.0,538.0,657.0,-252.0,162.0,-968.0,43.0
53.0,-240.0,-13.0,571.0,693.0,-237.0,170.0,-929.0,26.0
57.0,-232.0,-16.0,577.0,730.0,-220.0,196.0,-903.0,21.0
53.0,-225.0,-8.0,532.0,759.0,-201.0,189.0,-885.0,39.0
50.0,-227.0,-8.0,482.0,774.0,-176.0,173.0,-880.0,42.0
52.0,-227.0,-9.0,427.0,767.0,-144.0,182.0,-887.0,49.0
47.0,-228.0,-9.0,368.0,758.0,-120.0,171.0,-901.0,32.0
45.0,-232.0,-20.0,304.0,732.0,-101.0,167.0,-919.0,10.0
49.0,-245.0,-18.0,235.0,702.0,-85.0,174.0,-951.0,-6.0
52.0,-253.0,-28.0,178.0,681.0,-74.0,189.0,-979.0,-12.0
53.0,-265.0,-28.0,131.0,664.0,-74.0,177.0,-1036.0,-33.0
50.0,-276.0,-33.0,108.0,638.0,-84.0,172.0,-1077.0,-41.0
57.0,-283.0,-32.0,126.0,608.0,-108.0,199.0,-1107.0,-54.0
61.0,-289.0,-34.0,165.0,598.0,-132.0,218.0,-1128.0,-53.0
70.0,-295.0,-29.0,211.0,594.0,-159.0,249.0,-1145.0,-44.0
78.0,-297.0,-38.0,264.0,590.0,-181.0,265.0,-1149.0,-54.0
74.0,-294.0,-33.0,310.0,596.0,-201.0,250.0,-1133.0,-38.0
71.0,-290.0,-28.0,353.0,601.0,-205.0,236.0,-1124.0,-32.0
78.0,-290.0,-27.0,391.0,611.0,-207.0,260.0,-1110.0,-23.0
76.0,-283.0,-18.0,421.0,624.0,-203.0,263.0,-1093.0,4.0
82.0,-283.0,-19.0,448.0,633.0,-189.0,272.0,-1085.0,22.0
79.0,-277.0,-8.0,486.0,642.0,-179.0,277.0,-1070.0,40.0
77.0,-272.0,-5.0,517.0,645.0,-170.0,279.0,-1061.0,80.0
76.0,-265.0,0.0,546.0,633.0,-165.0,271.0,-1039.0,78.0
75.0,-260.0,-1.0,554.0,627.0,-160.0,266.0,-1015.0,87.0
66.0,-257.0,-3.0,546.0,610.0,-150.0,246.0,-982.0,77.0
68.0,-247.0,-4.0,527.0,603.0,-142.0,254.0,-959.0,62.0
70.0,-243.0,-4.0,496.0,599.0,-131.0,245.0,-939.0,73.0
78.0,-242.0,-2.0,458.0,583.0,-116.0,260.0,-943.0,78.0
76.0,-241.0,2.0,418.0,575.0,-110.0,272.0,-951.0,74.0
84.0,-239.0,4.0,397.0,574.0,-114.0,289.0,-949.0,94.0
74.0,-243.0,9.0,383.0,574.0,-121.0,274.0,-931.0,97.0
71.0,-239.0,14.0,377.0,571.0,-120.0,248.0,-907.0,122.0
69.0,-236.0,22.0,377.0,546.0,-108.0,246.0,-903.0,141.0
76.0,-230.0,14.0,374.0,524.0,-99.0,273.0,-905.0,144.0
82.0,-230.0,24.0,350.0,517.0,-108.0,288.0,-902.0,152.0
76.0,-231.0,32.0,307.0,503.0,-123.0,263.0,-902.0,199.0
66.0,-234.0,47.0,259.0,484.0,-132.0,256.0,-902.0,242.0
68.0,-229.0,31.0,208.0,438.0,-141.0,241.0,-899.0,209.0
76.0,-232.0,36.0,164.0,383.0,-152.0,261.0,-897.0,217.0
76.0,-230.0,27.0,136.0,345.0,-173.0,273.0,-902.0,176.0
59.0,-230.0,23.0,110.0,338.0,-194.0,225.0,-890.0,165.0
65.0,-235.0,35.0,86.0,313.0,-214.0,224.0,-896.0,195.0
70.0,-236.0,36.0,74.0,269.0,-241.0,239.0,-900.0,198.0
75.0,-235.0,18.0,73.0,236.0,-265.0,242.0,-902.0,172.0
82.0,-230.0,16.0,71.0,235.0,-301.0,289.0,-898.0,145.0
80.0,-229.0,17.0,59.0,260.0,-321.0,283.0,-894.0,161.0
87.0,-237.0,17.0,57.0,261.0,-317.0,292.0,-902.0,155.0
90.0,-242.0,12.0,67.0,243.0,-324.0,325.0,-913.0,180.0
91.0,-238.0,32.0,83.0,214.0,-330.0,323.0,-917.0,188.0
105.0,-239.0,37.0,101.0,180.0,-328.0,361.0,-921.0,174.0
93.0,-239.0,25.0,108.0,191.0,-331.0,346.0,-923.0,195.0
101.0,-238.0,28.0,102.0,170.0,-328.0,354.0,-929.0,188.0
99.0,-241.0,28.0,85.0,152.0,-329.0,357.0,-932.0,177.0
102.0,-242.0,29.0,58.0,156.0,-338.0,358.0,-934.0,173.0
95.0,-244.0,27.0,32.0,169.0,-343.0,338.0,-938.0,174.0
89.0,-245.0,28.0,-2.0,148.0,-354.0,323.0,-948.0,199.0
85.0,-250.0,34.0,-6.0,108.0,-353.0,307.0,-971.0,211.0
84.0,-253.0,23.0,0.0,100.0,-350.0,314.0,-987.0,179.0
78.0,-250.0,18.0,6.0,117.0,-368.0,271.0,-973.0,164.0
83.0,-256.0,16.0,1.0,121.0,-375.0,292.0,-984.0,146.0
80.0,-258.0,20.0,-3.0,136.0,-382.0,280.0,-993.0,143.0
86.0,-259.0,15.0,4.0,143.0,-383.0,294.0,-1006.0,140.0
73.0,-259.0,18.0,12.0,165.0,-377.0,267.0,-1017.0,159.0
83.0,-264.0,21.0,25.0,148.0,-361.0,275.0,-1022.0,164.0
75.0,-263.0,15.0,50.0,142.0,-347.0,260.0,-1024.0,134.0
72.0,-262.0,20.0,62.0,162.0,-344.0,264.0,-1015.0,140.0
77.0,-263.0,18.0,66.0,156.0,-327.0,258.0,-1016.0,142.0
57.0,-258.0,16.0,69.0,146.0,-313.0,253.0,-1097.0,156.0
71.0,-264.0,19.0,74.0,125.0,-296.0,237.0,-988.0,147.0
60.0,-251.0,24.0,77.0,127.0,-267.0,219.0,-968.0,151.0
55.0,-248.0,23.0,79.0,119.0,-240.0,200.0,-951.0,150.0
50.0,-243.0,18.0,87.0,99.0,-203.0,172.0,-926.0,159.0
48.0,-236.0,16.0,111.0,56.0,-144.0,185.0,-914.0,153.0
57.0,-237.0,10.0,129.0,34.0,-101.0,201.0,-918.0,113.0
50.0,-229.0,19.0,122.0,45.0,-97.0,173.0,-899.0,141.0
44.0,-232.0,17.0,104.0,20.0,-71.0,148.0,-889.0,141.0
41.0,-228.0,12.0,83.0,-15.0,-54.0,131.0,-879.0,122.0
40.0,-220.0,10.0,51.0,-34.0,-37.0,127.0,-868.0,110.0
37.0,-222.0,2.0,20.0,-66.0,5.0,127.0,-875.0,101.0
30.0,-224.0,8.0,-14.0,-103.0,34.0,88.0,-873.0,92.0
26.0,-226.0,10.0,-46.0,-134.0,52.0,94.0,-870.0,106.0
35.0,-227.0,0.0,-66.0,-180.0,76.0,113.0,-887.0,88.0
36.0,-230.0,-2.0,-80.0,-194.0,102.0,122.0,-901.0,85.0
34.0,-230.0,0.0,-89.0,-205.0,119.0,118.0,-897.0,77.0
47.0,-233.0,-2.0,-93.0,-223.0,138.0,150.0,-897.0,72.0
48.0,-235.0,-4.0,-98.0,-238.0,169.0,150.0,-904.0,60.0
47.0,-239.0,-7.0,-101.0,-247.0,197.0,158.0,-921.0,52.0
47.0,-238.0,-5.0,-111.0,-245.0,209.0,170.0,-922.0,47.0
52.0,-243.0,-7.0,-119.0,-250.0,228.0,188.0,-923.0,53.0
61.0,-243.0,-14.0,-123.0,-250.0,258.0,208.0,-949.0,29.0
52.0,-246.0,-13.0,-131.0,-250.0,271.0,182.0,-929.0,50.0
64.0,-235.0,-10.0,-115.0,-242.0,293.0,224.0,-918.0,36.0
60.0,-240.0,-9.0,-118.0,-235.0,335.0,211.0,-927.0,42.0
54.0,-248.0,-5.0,-127.0,-235.0,353.0,188.0,-945.0,55.0
57.0,-251.0,-9.0,-133.0,-234.0,340.0,212.0,-978.0,58.0
67.0,-241.0,-5.0,-146.0,-243.0,362.0,239.0,-941.0,92.0
70.0,-242.0,6.0,-137.0,-242.0,380.0,238.0,-941.0,97.0
60.0,-246.0,9.0,-134.0,-236.0,375.0,211.0,-947.0,111.0
75.0,-244.0,16.0,-128.0,-231.0,350.0,274.0,-937.0,142.0
81.0,-242.0,19.0,-126.0,-240.0,359.0,285.0,-928.0,166.0
74.0,-236.0,30.0,-135.0,-251.0,359.0,280.0,-927.0,192.0
74.0,-246.0,25.0,-144.0,-269.0,346.0,267.0,-933.0,191.0
77.0,-241.0,20.0,-156.0,-276.0,309.0,274.0,-919.0,187.0
84.0,-234.0,27.0,-178.0,-284.0,303.0,306.0,-909.0,179.0
81.0,-234.0,28.0,-206.0,-284.0,321.0,298.0,-909.0,181.0
85.0,-237.0,27.0,-219.0,-295.0,326.0,312.0,-920.0,194.0
82.0,-243.0,26.0,-235.0,-312.0,335.0,304.0,-921.0,231.0
88.0,-240.0,34.0,-217.0,-317.0,303.0,304.0,-928.0,213.0
94.0,-241.0,26.0,-202.0,-328.0,298.0,329.0,-929.0,196.0
92.0,-241.0,25.0,-191.0,-326.0,302.0,317.0,-920.0,186.0
85.0,-248.0,25.0,-181.0,-330.0,298.0,305.0,-940.0,182.0
93.0,-246.0,24.0,-173.0,-332.0,269.0,315.0,-936.0,176.0
92.0,-243.0,17.0,-169.0,-327.0,267.0,334.0,-943.0,155.0
95.0,-243.0,23.0,-167.0,-323.0,288.0,336.0,-929.0,175.0
88.0,-244.0,22.0,-148.0,-326.0,291.0,313.0,-937.0,158.0
80.0,-256.0,12.0,-137.0,-331.0,271.0,301.0,-955.0,131.0
82.0,-248.0,19.0,-118.0,-326.0,260.0,296.0,-953.0,160.0
85.0,-250.0,22.0,-92.0,-336.0,277.0,294.0,-953.0,147.0
68.0,-257.0,4.0,-66.0,-341.0,282.0,253.0,-968.0,94.0
70.0,-254.0,1.0,-54.0,-331.0,276.0,234.0,-976.0,99.0
65.0,-228.0,28.0,-48.0,-290.0,218.0,138.0,-1009.0,175.0
73.0,-243.0,19.0,-13.0,-298.0,214.0,238.0,-956.0,141.0
67.0,-246.0,4.0,27.0,-304.0,237.0,235.0,-953.0,103.0
60.0,-243.0,5.0,42.0,-300.0,257.0,201.0,-941.0,82.0
53.0,-243.0,2.0,39.0,-289.0,281.0,194.0,-944.0,89.0
49.0,-246.0,1.0,26.0,-282.0,288.0,171.0,-952.0,93.0
55.0,-243.0,0.0,22.0,-274.0,297.0,183.0,-953.0,98.0
53.0,-244.0,1.0,38.0,-280.0,317.0,210.0,-946.0,95.0
55.0,-246.0,0.0,54.0,-275.0,323.0,193.0,-945.0,79.0
59.0,-244.0,3.0,70.0,-257.0,331.0,184.0,-957.0,81.0
58.0,-247.0,-19.0,77.0,-243.0,339.0,207.0,-947.0,67.0
67.0,-247.0,7.0,65.0,-220.0,344.0,219.0,-957.0,75.0
54.0,-248.0,5.0,57.0,-203.0,342.0,171.0,-953.0,71.0
47.0,-254.0,2.0,58.0,-220.0,357.0,168.0,-970.0,90.0
50.0,-251.0,-7.0,82.0,-234.0,374.0,168.0,-959.0,58.0
55.0,-247.0,-7.0,95.0,-224.0,400.0,175.0,-948.0,46.0
51.0,-238.0,-14.0,79.0,-212.0,432.0,170.0,-935.0,20.0
57.0,-233.0,-12.0,44.0,-205.0,457.0,191.0,-910.0,21.0
53.0,-238.0,-16.0,-1.0,-207.0,472.0,172.0,-910.0,-4.0
40.0,-241.0,-15.0,-45.0,-227.0,488.0,139.0,-930.0,6.0
36.0,-242.0,-19.0,-81.0,-252.0,502.0,157.0,-947.0,-7.0
39.0,-245.0,-33.0,-121.0,-244.0,518.0,126.0,-954.0,-68.0
48.0,-252.0,-7.0,-154.0,-235.0,552.0,161.0,-970.0,-31.0
48.0,-260.0,-30.0,-181.0,-262.0,551.0,142.0,-1004.0,-15.0
45.0,-261.0,-21.0,-215.0,-265.0,548.0,124.0,-1009.0,19.0
44.0,-262.0,-21.0,-242.0,-252.0,555.0,153.0,-1045.0,17.0
52.0,-267.0,-17.0,-274.0,-239.0,567.0,176.0,-1051.0,6.0
46.0,-275.0,-27.0,-305.0,-224.0,564.0,166.0,-1056.0,5.0
47.0,-272.0,-20.0,-326.0,-229.0,544.0,141.0,-1062.0,-4.0
54.0,-274.0,-18.0,-341.0,-221.0,540.0,169.0,-1059.0,-8.0
46.0,-266.0,-23.0,-352.0,-191.0,536.0,140.0,-1050.0,12.0
44.0,-266.0,-21.0,-363.0,-167.0,538.0,139.0,-1052.0,15.0
34.0,-272.0,-20.0,-373.0,-164.0,530.0,110.0,-1053.0,-4.0
36.0,-267.0,-14.0,-366.0,-177.0,515.0,112.0,-1041.0,4.0
32.0,-263.0,-19.0,-350.0,-194.0,498.0,88.0,-1021.0,-3.0
25.0,-263.0,-17.0,-332.0,-227.0,484.0,90.0,-1034.0,22.0
35.0,-259.0,-9.0,-304.0,-246.0,494.0,106.0,-1030.0,24.0
38.0,-257.0,0.0,-297.0,-248.0,520.0,97.0,-1018.0,52.0
30.0,-263.0,-11.0,-306.0,-240.0,555.0,96.0,-1002.0,49.0
27.0,-256.0,10.0,-302.0,-237.0,574.0,53.0,-988.0,63.0
11.0,-259.0,-14.0,-289.0,-270.0,589.0,53.0,-987.0,64.0
16.0,-254.0,-6.0,-272.0,-312.0,601.0,36.0,-949.0,55.0
20.0,-242.0,3.0,-262.0,-344.0,624.0,72.0,-959.0,70.0
35.0,-250.0,-6.0,-256.0,-366.0,653.0,82.0,-938.0,81.0
23.0,-243.0,-4.0,-245.0,-378.0,655.0,73.0,-927.0,54.0
23.0,-246.0,-6.0,-236.0,-400.0,665.0,41.0,-947.0,85.0
6.0,-250.0,-12.0,-225.0,-433.0,698.0,28.0,-949.0,72.0
9.0,-249.0,-2.0,-214.0,-509.0,724.0,29.0,-949.0,57.0
22.0,-248.0,-3.0,-205.0,-591.0,700.0,41.0,-929.0,61.0
18.0,-247.0,-11.0,-194.0,-636.0,696.0,57.0,-947.0,57.0
28.0,-241.0,-4.0,-201.0,-665.0,709.0,93.0,-957.0,43.0
36.0,-243.0,-1.0,-225.0,-681.0,714.0,91.0,-947.0,56.0
31.0,-249.0,9.0,-242.0,-674.0,710.0,82.0,-940.0,103.0
31.0,-243.0,3.0,-247.0,-680.0,713.0,86.0,-934.0,82.0
24.0,-241.0,-1.0,-245.0,-701.0,709.0,65.0,-921.0,71.0
24.0,-231.0,-3.0,-252.0,-729.0,710.0,44.0,-899.0,45.0
11.0,-228.0,-15.0,-280.0,-766.0,702.0,16.0,-891.0,31.0
3.0,-231.0,-17.0,-306.0,-824.0,704.0,1.0,-894.0,2.0
-2.0,-227.0,-15.0,-352.0,-864.0,707.0,-34.0,-882.0,-8.0
-7.0,-232.0,-26.0,-377.0,-916.0,705.0,-31.0,-893.0,-19.0
4.0,-233.0,-34.0,-397.0,-974.0,675.0,-4.0,-896.0,-47.0
-2.0,-233.0,-31.0,-413.0,-1020.0,643.0,-27.0,-894.0,-53.0
-1.0,-237.0,-41.0,-422.0,-1055.0,613.0,-25.0,-900.0,-49.0
0.0,-234.0,-35.0,-419.0,-1077.0,579.0,-22.0,-913.0,-55.0
6.0,-242.0,-40.0,-422.0,-1112.0,537.0,-4.0,-933.0,-59.0
23.0,-251.0,-44.0,-432.0,-1140.0,499.0,47.0,-954.0,-79.0
32.0,-252.0,-42.0,-453.0,-1159.0,452.0,106.0,-981.0,-79.0
41.0,-259.0,-42.0,-484.0,-1189.0,414.0,136.0,-1014.0,-88.0
44.0,-266.0,-44.0,-501.0,-1224.0,383.0,152.0,-1038.0,-92.0
46.0,-269.0,-49.0,-520.0,-1254.0,359.0,154.0,-1054.0,-97.0
47.0,-273.0,-42.0,-533.0,-1279.0,345.0,142.0,-1062.0,-89.0
32.0,-278.0,-46.0,-523.0,-1298.0,339.0,102.0,-1076.0,-106.0
25.0,-281.0,-49.0,-498.0,-1304.0,329.0,72.0,-1090.0,-123.0
15.0,-274.0,-54.0,-470.0,-1304.0,332.0,35.0,-1064.0,-125.0
4.0,-278.0,-51.0,-435.0,-1320.0,323.0,-14.0,-1074.0,-122.0
-5.0,-273.0,-53.0,-407.0,-1323.0,321.0,-45.0,-1062.0,-107.0
-11.0,-269.0,-40.0,-392.0,-1310.0,320.0,-63.0,-1059.0,-72.0
-11.0,-271.0,-31.0,-383.0,-1297.0,319.0,-73.0,-1050.0,-39.0
-9.0,-272.0,-24.0,-370.0,-1279.0,308.0,-74.0,-1049.0,-14.0
-3.0,-269.0,-19.0,-346.0,-1264.0,296.0,-37.0,-1046.0,-3.0
6.0,-270.0,-20.0,-297.0,-1232.0,262.0,-6.0,-1042.0,11.0
18.0,-271.0,-25.0,-231.0,-1184.0,224.0,31.0,-1044.0,-14.0
23.0,-268.0,-32.0,-167.0,-1118.0,185.0,60.0,-1032.0,-47.0
34.0,-265.0,-46.0,-104.0,-1026.0,136.0,81.0,-1013.0,-63.0
44.0,-261.0,-50.0,-40.0,-908.0,90.0,119.0,-1015.0,-92.0
48.0,-259.0,-51.0,-7.0,-799.0,50.0,136.0,-1014.0,-97.0
45.0,-261.0,-38.0,20.0,-676.0,9.0,124.0,-1015.0,-106.0
35.0,-260.0,-50.0,38.0,-569.0,-20.0,93.0,-1010.0,-114.0
21.0,-257.0,-49.0,44.0,-461.0,-47.0,51.0,-1005.0,-90.0
4.0,-258.0,-36.0,57.0,-362.0,-60.0,-18.0,-998.0,-67.0
-18.0,-256.0,-33.0,75.0,-289.0,-60.0,-92.0,-975.0,-59.0
-31.0,-254.0,-30.0,87.0,-234.0,-42.0,-145.0,-973.0,-41.0
-49.0,-248.0,-29.0,92.0,-198.0,-5.0,-204.0,-953.0,-37.0
-57.0,-246.0,-28.0,74.0,-179.0,37.0,-245.0,-952.0,-28.0
-57.0,-247.0,-28.0,50.0,-172.0,81.0,-255.0,-950.0,-30.0
-64.0,-248.0,-25.0,29.0,-163.0,124.0,-274.0,-952.0,-32.0
-63.0,-249.0,-28.0,17.0,-163.0,160.0,-276.0,-954.0,-28.0
-64.0,-254.0,-28.0,23.0,-158.0,191.0,-271.0,-968.0,-39.0
-62.0,-258.0,-27.0,42.0,-149.0,206.0,-257.0,-982.0,-40.0
-58.0,-263.0,-24.0,72.0,-137.0,222.0,-270.0,-1008.0,-35.0
-58.0,-270.0,-19.0,114.0,-112.0,230.0,-276.0,-1032.0,1.0
-62.0,-274.0,-18.0,163.0,-87.0,237.0,-274.0,-1048.0,23.0
-56.0,-276.0,-6.0,221.0,-69.0,230.0,-256.0,-1066.0,36.0
-51.0,-282.0,-16.0,273.0,-48.0,219.0,-237.0,-1066.0,39.0
-43.0,-280.0,-21.0,335.0,-23.0,200.0,-199.0,-1082.0,16.0
-35.0,-273.0,-15.0,386.0,3.0,178.0,-163.0,-1062.0,24.0
-22.0,-270.0,-17.0,438.0,28.0,152.0,-130.0,-1062.0,11.0
-15.0,-270.0,-23.0,494.0,60.0,127.0,-96.0,-1028.0,4.0
-12.0,-265.0,-27.0,548.0,89.0,99.0,-67.0,-1022.0,-15.0
-4.0,-262.0,-23.0,594.0,117.0,72.0,-39.0,-1012.0,-19.0
-1.0,-261.0,-26.0,635.0,155.0,33.0,-24.0,-992.0,-3.0
10.0,-255.0,-23.0,694.0,183.0,5.0,8.0,-974.0,-5.0
4.0,-252.0,-23.0,732.0,197.0,-41.0,-20.0,-958.0,-25.0
6.0,-247.0,-21.0,759.0,221.0,-77.0,3.0,-945.0,-3.0
5.0,-243.0,-23.0,781.0,228.0,-109.0,11.0,-942.0,-1.0
17.0,-241.0,-23.0,787.0,217.0,-140.0,35.0,-932.0,-1.0
-3.0,-235.0,-27.0,786.0,190.0,-190.0,-28.0,-905.0,-10.0
-9.0,-231.0,-26.0,777.0,175.0,-216.0,-56.0,-900.0,-26.0
-11.0,-238.0,-23.0,767.0,172.0,-205.0,-68.0,-913.0,-16.0
-15.0,-241.0,-23.0,731.0,149.0,-201.0,-87.0,-919.0,-12.0
-11.0,-244.0,-23.0,692.0,111.0,-216.0,-65.0,-946.0,-10.0
-33.0,-244.0,-20.0,653.0,62.0,-247.0,-150.0,-943.0,-16.0
-30.0,-256.0,-17.0,619.0,41.0,-238.0,-139.0,-987.0,6.0
-27.0,-262.0,-18.0,591.0,22.0,-224.0,-129.0,-1014.0,16.0
-30.0,-264.0,-15.0,574.0,0.0,-219.0,-133.0,-1039.0,20.0
-29.0,-271.0,-11.0,561.0,-26.0,-220.0,-139.0,-1051.0,30.0
-25.0,-273.0,-12.0,555.0,-53.0,-222.0,-123.0,-1068.0,39.0
-20.0,-278.0,-7.0,558.0,-79.0,-213.0,-123.0,-1077.0,36.0
-14.0,-278.0,-14.0,570.0,-100.0,-204.0,-95.0,-1084.0,42.0
-13.0,-278.0,-10.0,586.0,-114.0,-202.0,-80.0,-1077.0,45.0
-9.0,-277.0,-10.0,605.0,-118.0,-207.0,-64.0,-1062.0,42.0
-5.0,-271.0,-11.0,625.0,-120.0,-214.0,-51.0,-1051.0,46.0
4.0,-267.0,-3.0,643.0,-117.0,-224.0,18.0,-1041.0,52.0
-1.0,-261.0,-7.0,655.0,-116.0,-243.0,-35.0,-1003.0,45.0
3.0,-258.0,-5.0,666.0,-107.0,-252.0,-17.0,-999.0,50.0
9.0,-252.0,-4.0,678.0,-107.0,-269.0,3.0,-977.0,57.0
4.0,-248.0,-7.0,688.0,-113.0,-311.0,1.0,-948.0,66.0
13.0,-244.0,-2.0,700.0,-109.0,-333.0,18.0,-932.0,72.0
18.0,-240.0,5.0,705.0,-100.0,-355.0,39.0,-920.0,86.0
12.0,-231.0,6.0,698.0,-77.0,-367.0,22.0,-904.0,93.0
16.0,-235.0,5.0,679.0,-40.0,-375.0,19.0,-893.0,105.0
12.0,-230.0,9.0,648.0,-5.0,-374.0,21.0,-885.0,110.0
4.0,-233.0,6.0,605.0,12.0,-379.0,6.0,-893.0,116.0
6.0,-228.0,13.0,555.0,20.0,-374.0,1.0,-888.0,129.0
8.0,-232.0,12.0,507.0,27.0,-369.0,0.0,-899.0,135.0
7.0,-235.0,16.0,463.0,35.0,-359.0,7.0,-925.0,139.0
7.0,-239.0,16.0,411.0,44.0,-352.0,5.0,-932.0,141.0
6.0,-245.0,18.0,371.0,48.0,-340.0,10.0,-947.0,142.0
6.0,-250.0,20.0,337.0,40.0,-338.0,4.0,-960.0,144.0
6.0,-251.0,13.0,313.0,35.0,-326.0,-1.0,-971.0,143.0
9.0,-258.0,16.0,296.0,32.0,-317.0,9.0,-994.0,139.0
10.0,-260.0,15.0,286.0,34.0,-302.0,11.0,-999.0,136.0
8.0,-261.0,15.0,280.0,30.0,-289.0,16.0,-1014.0,138.0
14.0,-261.0,14.0,280.0,23.0,-274.0,22.0,-1017.0,142.0
13.0,-262.0,17.0,292.0,10.0,-268.0,24.0,-1018.0,151.0
12.0,-266.0,14.0,303.0,7.0,-255.0,22.0,-1026.0,146.0
12.0,-265.0,18.0,308.0,3.0,-242.0,37.0,-1024.0,160.0
18.0,-266.0,21.0,315.0,-5.0,-231.0,43.0,-1026.0,162.0
22.0,-266.0,22.0,322.0,-11.0,-223.0,66.0,-1020.0,162.0
28.0,-262.0,20.0,328.0,-28.0,-216.0,73.0,-1015.0,174.0
30.0,-260.0,25.0,340.0,-28.0,-215.0,91.0,-1012.0,185.0
28.0,-260.0,24.0,356.0,-20.0,-210.0,87.0,-1002.0,179.0
25.0,-256.0,31.0,368.0,-19.0,-212.0,82.0,-993.0,186.0
30.0,-254.0,31.0,375.0,-20.0,-203.0,89.0,-972.0,200.0
29.0,-248.0,25.0,379.0,-16.0,-196.0,81.0,-966.0,196.0
27.0,-246.0,31.0,373.0,1.0,-185.0,82.0,-951.0,196.0
24.0,-243.0,30.0,350.0,26.0,-176.0,68.0,-939.0,185.0
22.0,-243.0,32.0,313.0,26.0,-160.0,73.0,-933.0,192.0
28.0,-243.0,27.0,278.0,25.0,-150.0,70.0,-928.0,192.0
33.0,-232.0,35.0,253.0,32.0,-138.0,92.0,-918.0,184.0
34.0,-243.0,32.0,234.0,49.0,-128.0,96.0,-924.0,196.0
29.0,-241.0,29.0,223.0,73.0,-116.0,94.0,-922.0,199.0
29.0,-242.0,30.0,200.0,86.0,-111.0,82.0,-928.0,200.0
28.0,-243.0,36.0,177.0,72.0,-103.0,82.0,-931.0,210.0
25.0,-242.0,38.0,158.0,62.0,-99.0,68.0,-934.0,219.0
24.0,-245.0,32.0,139.0,66.0,-87.0,70.0,-941.0,212.0
21.0,-247.0,34.0,115.0,87.0,-79.0,62.0,-947.0,212.0
20.0,-247.0,33.0,80.0,95.0,-65.0,57.0,-951.0,212.0
24.0,-249.0,36.0,42.0,92.0,-62.0,61.0,-956.0,222.0
18.0,-251.0,39.0,14.0,85.0,-58.0,48.0,-962.0,222.0
17.0,-254.0,36.0,-3.0,87.0,-52.0,43.0,-972.0,217.0
16.0,-253.0,35.0,-18.0,81.0,-48.0,35.0,-976.0,217.0
14.0,-253.0,31.0,-29.0,77.0,-46.0,33.0,-975.0,215.0
15.0,-259.0,35.0,-35.0,73.0,-40.0,39.0,-988.0,213.0
14.0,-257.0,31.0,-39.0,70.0,-42.0,42.0,-995.0,207.0
16.0,-258.0,35.0,-43.0,71.0,-35.0,42.0,-984.0,204.0
19.0,-257.0,29.0,-46.0,72.0,-33.0,44.0,-987.0,207.0
17.0,-257.0,29.0,-49.0,71.0,-27.0,30.0,-971.0,201.0
15.0,-253.0,31.0,-51.0,65.0,-23.0,28.0,-969.0,195.0
15.0,-250.0,30.0,-53.0,55.0,-11.0,25.0,-958.0,191.0
11.0,-245.0,28.0,-57.0,45.0,-2.0,24.0,-952.0,192.0
12.0,-249.0,24.0,-62.0,33.0,12.0,22.0,-949.0,185.0
13.0,-244.0,30.0,-69.0,27.0,21.0,27.0,-943.0,181.0
14.0,-242.0,24.0,-73.0,22.0,33.0,29.0,-934.0,178.0
14.0,-243.0,27.0,-78.0,18.0,39.0,30.0,-930.0,175.0
13.0,-240.0,24.0,-88.0,19.0,50.0,33.0,-923.0,178.0
14.0,-241.0,25.0,-101.0,21.0,52.0,37.0,-923.0,169.0
19.0,-241.0,20.0,-117.0,22.0,57.0,46.0,-927.0,165.0
20.0,-241.0,24.0,-138.0,22.0,55.0,44.0,-927.0,166.0
18.0,-245.0,24.0,-157.0,24.0,56.0,53.0,-939.0,166.0
20.0,-246.0,22.0,-172.0,24.0,52.0,61.0,-947.0,158.0
20.0,-247.0,22.0,-181.0,26.0,53.0,56.0,-951.0,155.0
20.0,-248.0,18.0,-183.0,32.0,49.0,53.0,-947.0,151.0
18.0,-246.0,15.0,-179.0,34.0,47.0,52.0,-948.0,142.0
14.0,-248.0,18.0,-172.0,36.0,42.0,31.0,-951.0,145.0
11.0,-249.0,15.0,-160.0,39.0,41.0,20.0,-954.0,142.0
8.0,-249.0,16.0,-147.0,36.0,34.0,13.0,-952.0,138.0
7.0,-248.0,11.0,-134.0,32.0,30.0,11.0,-952.0,140.0
10.0,-251.0,13.0,-124.0,27.0,23.0,5.0,-951.0,133.0
5.0,-249.0,13.0,-118.0,24.0,20.0,-8.0,-947.0,132.0
5.0,-252.0,9.0,-114.0,17.0,13.0,-4.0,-956.0,127.0
7.0,-253.0,13.0,-113.0,9.0,11.0,-2.0,-957.0,129.0
7.0,-250.0,10.0,-115.0,1.0,3.0,-3.0,-964.0,124.0
7.0,-252.0,8.0,-118.0,-3.0,4.0,0.0,-971.0,118.0
7.0,-255.0,10.0,-119.0,-6.0,3.0,-2.0,-966.0,115.0
5.0,-253.0,13.0,-117.0,-7.0,8.0,0.0,-968.0,120.0
5.0,-255.0,7.0,-107.0,-8.0,8.0,-1.0,-969.0,118.0
7.0,-251.0,8.0,-95.0,-11.0,7.0,7.0,-966.0,112.0
14.0,-253.0,8.0,-84.0,-5.0,1.0,12.0,-964.0,114.0
10.0,-251.0,10.0,-75.0,2.0,-1.0,12.0,-962.0,106.0
11.0,-248.0,8.0,-67.0,13.0,-8.0,18.0,-963.0,104.0
12.0,-250.0,8.0,-65.0,24.0,-9.0,19.0,-958.0,117.0
7.0,-250.0,11.0,-59.0,35.0,-14.0,15.0,-958.0,121.0
8.0,-252.0,12.0,-53.0,45.0,-12.0,11.0,-958.0,129.0
9.0,-252.0,13.0,-47.0,53.0,-15.0,3.0,-964.0,136.0
5.0,-253.0,15.0,-36.0,58.0,-13.0,4.0,-968.0,140.0
5.0,-256.0,13.0,-28.0,59.0,-16.0,7.0,-969.0,140.0
7.0,-253.0,15.0,-21.0,60.0,-16.0,7.0,-967.0,142.0
7.0,-254.0,16.0,-14.0,65.0,-16.0,3.0,-964.0,142.0
6.0,-251.0,18.0,-12.0,69.0,-13.0,2.0,-971.0,144.0
7.0,-255.0,19.0,-14.0,71.0,-12.0,3.0,-972.0,155.0
4.0,-254.0,17.0,-15.0,74.0,-10.0,-10.0,-976.0,149.0
6.0,-257.0,19.0,-19.0,76.0,-11.0,-9.0,-977.0,155.0
6.0,-259.0,20.0,-28.0,74.0,-10.0,-4.0,-979.0,160.0
13.0,-257.0,22.0,-33.0,73.0,-17.0,13.0,-974.0,166.0
9.0,-257.0,23.0,-32.0,75.0,-19.0,-3.0,-977.0,165.0
6.0,-256.0,22.0,-34.0,76.0,-19.0,0.0,-983.0,168.0
9.0,-257.0,24.0,-40.0,75.0,-20.0,5.0,-990.0,171.0
22.0,-250.0,23.0,-44.0,72.0,-24.0,8.0,-999.0,177.0
15.0,-252.0,27.0,-42.0,69.0,-26.0,18.0,-1006.0,182.0
13.0,-260.0,22.0,-34.0,68.0,-32.0,23.0,-1004.0,181.0
8.0,-265.0,22.0,-28.0,65.0,-33.0,23.0,-1008.0,176.0
1.0,-257.0,13.0,-26.0,62.0,-36.0,26.0,-1008.0,172.0
21.0,-257.0,27.0,-27.0,56.0,-37.0,25.0,-1002.0,168.0
30.0,-258.0,36.0,-32.0,50.0,-42.0,36.0,-1002.0,170.0
19.0,-250.0,16.0,-35.0,42.0,-44.0,43.0,-997.0,168.0
29.0,-259.0,28.0,-41.0,32.0,-53.0,53.0,-980.0,159.0
21.0,-255.0,21.0,-48.0,24.0,-56.0,57.0,-975.0,161.0
25.0,-258.0,25.0,-53.0,19.0,-64.0,66.0,-970.0,156.0
26.0,-250.0,16.0,-56.0,17.0,-68.0,73.0,-969.0,156.0
28.0,-250.0,18.0,-53.0,18.0,-77.0,71.0,-963.0,152.0
27.0,-250.0,18.0,-49.0,24.0,-79.0,73.0,-962.0,151.0
24.0,-247.0,19.0,-45.0,29.0,-82.0,65.0,-954.0,157.0
22.0,-248.0,18.0,-43.0,32.0,-80.0,67.0,-949.0,155.0
23.0,-251.0,17.0,-41.0,35.0,-79.0,70.0,-951.0,150.0
24.0,-243.0,17.0,-44.0,39.0,-73.0,68.0,-946.0,145.0
23.0,-246.0,18.0,-50.0,42.0,-73.0,61.0,-951.0,147.0
23.0,-247.0,20.0,-59.0,45.0,-65.0,57.0,-949.0,147.0
20.0,-250.0,20.0,-66.0,49.0,-61.0,55.0,-957.0,149.0
19.0,-247.0,20.0,-73.0,52.0,-52.0,54.0,-950.0,151.0
18.0,-250.0,19.0,-79.0,55.0,-49.0,44.0,-954.0,153.0
17.0,-250.0,16.0,-80.0,54.0,-40.0,46.0,-957.0,148.0
13.0,-248.0,17.0,-79.0,55.0,-37.0,42.0,-959.0,145.0
15.0,-249.0,14.0,-76.0,55.0,-30.0,38.0,-965.0,147.0
13.0,-251.0,13.0,-72.0,55.0,-26.0,28.0,-953.0,144.0
15.0,-252.0,15.0,-67.0,54.0,-20.0,34.0,-958.0,143.0
11.0,-253.0,18.0,-63.0,52.0,-17.0,29.0,-961.0,145.0
13.0,-250.0,18.0,-58.0,49.0,-9.0,25.0,-961.0,142.0
15.0,-252.0,20.0,-55.0,44.0,-5.0,28.0,-965.0,142.0
16.0,-250.0,16.0,-52.0,40.0,3.0,28.0,-965.0,146.0
15.0,-252.0,18.0,-48.0,37.0,8.0,35.0,-971.0,146.0
17.0,-254.0,17.0,-45.0,33.0,15.0,37.0,-970.0,142.0
19.0,-254.0,15.0,-44.0,32.0,19.0,38.0,-971.0,142.0
19.0,-252.0,16.0,-40.0,30.0,25.0,46.0,-970.0,141.0
17.0,-253.0,15.0,-40.0,30.0,25.0,46.0,-966.0,140.0
18.0,-254.0,16.0,-40.0,32.0,31.0,49.0,-969.0,143.0
21.0,-253.0,15.0,-38.0,33.0,28.0,51.0,-976.0,146.0
21.0,-255.0,16.0,-35.0,35.0,31.0,53.0,-970.0,144.0
20.0,-255.0,16.0,-34.0,38.0,30.0,53.0,-967.0,145.0
21.0,-252.0,15.0,-30.0,40.0,32.0,60.0,-970.0,143.0
22.0,-252.0,17.0,-27.0,43.0,27.0,58.0,-967.0,149.0
24.0,-255.0,15.0,-25.0,45.0,30.0,58.0,-969.0,146.0
22.0,-254.0,15.0,-24.0,50.0,29.0,63.0,-969.0,143.0
22.0,-256.0,13.0,-24.0,52.0,33.0,62.0,-965.0,144.0
25.0,-253.0,17.0,-25.0,57.0,31.0,64.0,-974.0,146.0
22.0,-254.0,16.0,-26.0,60.0,35.0,58.0,-985.0,147.0
22.0,-257.0,17.0,-27.0,61.0,35.0,62.0,-986.0,149.0
19.0,-257.0,17.0,-27.0,63.0,40.0,57.0,-987.0,148.0
21.0,-255.0,19.0,-27.0,63.0,41.0,59.0,-991.0,148.0
18.0,-259.0,15.0,-25.0,63.0,47.0,48.0,-996.0,149.0
18.0,-259.0,15.0,-19.0,63.0,50.0,47.0,-999.0,148.0
17.0,-259.0,19.0,-16.0,61.0,52.0,39.0,-1002.0,150.0
19.0,-257.0,23.0,-13.0,60.0,47.0,46.0,-1001.0,151.0
16.0,-259.0,21.0,-10.0,57.0,52.0,42.0,-999.0,148.0
19.0,-257.0,14.0,-7.0,54.0,52.0,36.0,-998.0,148.0
