acc1_x,acc1_y,acc1_z,gyro_x,gyro_y,gyro_z,acc2_x,acc2_y,acc2_z
14.0,-248.0,-67.0,-19.0,59.0,-2.0,20.0,-961.0,-193.0
11.0,-248.0,-66.0,-18.0,59.0,-4.0,17.0,-963.0,-188.0
13.0,-252.0,-62.0,-16.0,60.0,-2.0,19.0,-959.0,-188.0
10.0,-250.0,-63.0,-14.0,61.0,-4.0,21.0,-960.0,-194.0
12.0,-247.0,-64.0,-14.0,60.0,-6.0,21.0,-961.0,-193.0
12.0,-253.0,-67.0,-15.0,61.0,-7.0,21.0,-960.0,-192.0
11.0,-249.0,-66.0,-16.0,60.0,-5.0,22.0,-958.0,-180.0
12.0,-251.0,-60.0,-14.0,61.0,-7.0,21.0,-965.0,-196.0
13.0,-249.0,-62.0,-15.0,61.0,-6.0,22.0,-958.0,-196.0
15.0,-248.0,-69.0,-15.0,62.0,-8.0,26.0,-960.0,-189.0
13.0,-248.0,-67.0,-17.0,62.0,-6.0,23.0,-962.0,-191.0
13.0,-250.0,-65.0,-18.0,62.0,-7.0,27.0,-964.0,-196.0
13.0,-249.0,-61.0,-19.0,63.0,-4.0,24.0,-959.0,-193.0
12.0,-248.0,-69.0,-19.0,63.0,-6.0,22.0,-958.0,-192.0
14.0,-249.0,-63.0,-20.0,65.0,-4.0,23.0,-957.0,-192.0
11.0,-250.0,-66.0,-21.0,64.0,-5.0,25.0,-960.0,-192.0
12.0,-249.0,-65.0,-22.0,65.0,-4.0,19.0,-965.0,-195.0
12.0,-247.0,-65.0,-20.0,62.0,-4.0,20.0,-958.0,-188.0
12.0,-247.0,-64.0,-20.0,61.0,-1.0,23.0,-961.0,-194.0
11.0,-246.0,-63.0,-20.0,58.0,-3.0,19.0,-956.0,-192.0
13.0,-251.0,-67.0,-22.0,58.0,-2.0,21.0,-960.0,-187.0
13.0,-250.0,-65.0,-22.0,56.0,-3.0,19.0,-962.0,-189.0
14.0,-251.0,-65.0,-23.0,54.0,0.0,21.0,-959.0,-195.0
13.0,-248.0,-67.0,-24.0,54.0,-2.0,16.0,-961.0,-197.0
14.0,-248.0,-64.0,-24.0,55.0,-2.0,22.0,-965.0,-194.0
10.0,-249.0,-64.0,-23.0,56.0,-4.0,20.0,-967.0,-189.0
16.0,-248.0,-65.0,-22.0,59.0,-4.0,24.0,-965.0,-197.0
14.0,-250.0,-64.0,-20.0,58.0,-4.0,27.0,-967.0,-199.0
13.0,-253.0,-63.0,-19.0,58.0,-3.0,24.0,-966.0,-198.0
15.0,-248.0,-65.0,-20.0,61.0,-4.0,24.0,-964.0,-198.0
14.0,-252.0,-66.0,-19.0,61.0,-4.0,23.0,-964.0,-190.0
14.0,-249.0,-66.0,-17.0,62.0,-5.0,28.0,-962.0,-197.0
14.0,-249.0,-67.0,-18.0,62.0,-4.0,25.0,-965.0,-188.0
13.0,-248.0,-65.0,-18.0,61.0,-4.0,25.0,-964.0,-195.0
14.0,-250.0,-68.0,-16.0,60.0,-3.0,23.0,-958.0,-197.0
13.0,-249.0,-64.0,-17.0,61.0,-2.0,22.0,-961.0,-193.0
13.0,-251.0,-67.0,-17.0,61.0,-3.0,22.0,-962.0,-190.0
15.0,-249.0,-66.0,-17.0,60.0,-1.0,25.0,-956.0,-188.0
12.0,-250.0,-69.0,-19.0,61.0,-3.0,24.0,-957.0,-196.0
13.0,-250.0,-67.0,-19.0,60.0,-4.0,21.0,-963.0,-195.0
12.0,-248.0,-65.0,-19.0,61.0,-2.0,24.0,-956.0,-195.0
11.0,-247.0,-65.0,-18.0,59.0,-5.0,14.0,-963.0,-197.0
12.0,-246.0,-67.0,-18.0,59.0,-4.0,20.0,-962.0,-196.0
11.0,-250.0,-63.0,-16.0,59.0,-4.0,20.0,-962.0,-193.0
10.0,-252.0,-65.0,-18.0,59.0,-4.0,18.0,-960.0,-197.0
11.0,-248.0,-64.0,-18.0,58.0,-4.0,24.0,-964.0,-188.0
14.0,-249.0,-63.0,-16.0,57.0,-3.0,17.0,-960.0,-197.0
10.0,-250.0,-65.0,-18.0,58.0,-2.0,19.0,-960.0,-196.0
11.0,-247.0,-62.0,-18.0,58.0,-3.0,19.0,-963.0,-197.0
11.0,-247.0,-62.0,-18.0,59.0,-3.0,15.0,-960.0,-198.0
10.0,-250.0,-68.0,-18.0,58.0,-2.0,19.0,-959.0,-192.0
15.0,-247.0,-65.0,-18.0,59.0,-2.0,21.0,-960.0,-198.0
14.0,-253.0,-67.0,-17.0,59.0,-2.0,23.0,-955.0,-197.0
12.0,-248.0,-66.0,-17.0,60.0,-2.0,21.0,-964.0,-197.0
11.0,-249.0,-62.0,-17.0,60.0,-4.0,18.0,-959.0,-194.0
17.0,-249.0,-64.0,-18.0,61.0,-4.0,24.0,-962.0,-195.0
12.0,-249.0,-67.0,-17.0,61.0,-5.0,22.0,-964.0,-200.0
11.0,-248.0,-64.0,-15.0,63.0,-3.0,20.0,-964.0,-200.0
13.0,-246.0,-67.0,-15.0,63.0,-6.0,22.0,-965.0,-198.0
12.0,-250.0,-69.0,-15.0,64.0,-5.0,20.0,-964.0,-199.0
11.0,-249.0,-67.0,-16.0,64.0,-5.0,25.0,-963.0,-200.0
15.0,-251.0,-62.0,-16.0,64.0,-4.0,22.0,-970.0,-193.0
12.0,-251.0,-66.0,-14.0,64.0,-7.0,22.0,-966.0,-193.0
16.0,-249.0,-65.0,-12.0,65.0,-4.0,19.0,-961.0,-199.0
11.0,-248.0,-65.0,-10.0,63.0,-5.0,19.0,-965.0,-194.0
15.0,-248.0,-66.0,-10.0,64.0,-4.0,21.0,-963.0,-197.0
13.0,-250.0,-66.0,-11.0,64.0,-6.0,21.0,-960.0,-194.0
14.0,-247.0,-67.0,-11.0,63.0,-3.0,25.0,-965.0,-193.0
13.0,-247.0,-64.0,-11.0,64.0,-6.0,20.0,-955.0,-202.0
12.0,-244.0,-70.0,-11.0,64.0,-4.0,26.0,-962.0,-192.0
13.0,-249.0,-70.0,-13.0,63.0,-5.0,24.0,-964.0,-194.0
12.0,-248.0,-67.0,-14.0,60.0,-3.0,24.0,-958.0,-199.0
16.0,-249.0,-67.0,-15.0,61.0,-4.0,24.0,-961.0,-203.0
16.0,-247.0,-64.0,-13.0,61.0,-2.0,22.0,-960.0,-198.0
14.0,-249.0,-66.0,-12.0,60.0,-3.0,21.0,-961.0,-197.0
13.0,-248.0,-68.0,-11.0,62.0,0.0,21.0,-959.0,-191.0
11.0,-249.0,-65.0,-10.0,62.0,-2.0,23.0,-964.0,-196.0
12.0,-248.0,-69.0,-9.0,60.0,-1.0,21.0,-962.0,-202.0
14.0,-249.0,-71.0,-8.0,60.0,-3.0,21.0,-958.0,-195.0
14.0,-249.0,-65.0,-9.0,60.0,-3.0,19.0,-961.0,-198.0
12.0,-247.0,-62.0,-10.0,62.0,-5.0,22.0,-965.0,-201.0
12.0,-250.0,-64.0,-11.0,61.0,-4.0,19.0,-961.0,-200.0
13.0,-247.0,-65.0,-10.0,60.0,-5.0,21.0,-958.0,-196.0
13.0,-248.0,-66.0,-9.0,61.0,-3.0,22.0,-959.0,-195.0
18.0,-250.0,-66.0,-11.0,62.0,-5.0,18.0,-963.0,-196.0
14.0,-249.0,-66.0,-13.0,61.0,-2.0,22.0,-959.0,-194.0
8.0,-251.0,-65.0,-11.0,62.0,-5.0,24.0,-961.0,-195.0
14.0,-246.0,-63.0,-12.0,62.0,-4.0,23.0,-962.0,-189.0
11.0,-248.0,-65.0,-11.0,62.0,-5.0,29.0,-960.0,-195.0
12.0,-248.0,-63.0,-14.0,61.0,-3.0,21.0,-957.0,-195.0
13.0,-251.0,-64.0,-13.0,61.0,-4.0,31.0,-961.0,-190.0
16.0,-251.0,-65.0,-13.0,62.0,-2.0,21.0,-964.0,-197.0
9.0,-249.0,-66.0,-14.0,61.0,-4.0,22.0,-962.0,-198.0
12.0,-248.0,-69.0,-13.0,61.0,-2.0,22.0,-961.0,-198.0
13.0,-248.0,-65.0,-10.0,59.0,-4.0,20.0,-964.0,-197.0
13.0,-249.0,-66.0,-11.0,61.0,-1.0,22.0,-958.0,-198.0
12.0,-251.0,-64.0,-10.0,61.0,-5.0,22.0,-962.0,-196.0
14.0,-249.0,-67.0,-9.0,63.0,-4.0,22.0,-961.0,-199.0
13.0,-250.0,-66.0,-10.0,63.0,-5.0,25.0,-959.0,-192.0
12.0,-251.0,-62.0,-9.0,63.0,-3.0,23.0,-963.0,-191.0
13.0,-252.0,-70.0,-8.0,62.0,-4.0,21.0,-962.0,-193.0
15.0,-250.0,-62.0,-6.0,63.0,-2.0,19.0,-963.0,-195.0
12.0,-250.0,-67.0,-3.0,62.0,-4.0,22.0,-960.0,-192.0
14.0,-252.0,-65.0,-2.0,63.0,1.0,22.0,-965.0,-197.0
14.0,-249.0,-65.0,0.0,66.0,-1.0,27.0,-964.0,-200.0
12.0,-248.0,-64.0,0.0,65.0,2.0,22.0,-968.0,-192.0
16.0,-249.0,-64.0,0.0,66.0,-2.0,26.0,-968.0,-193.0
14.0,-247.0,-67.0,1.0,65.0,1.0,23.0,-967.0,-191.0
16.0,-251.0,-66.0,1.0,65.0,-2.0,20.0,-959.0,-189.0
14.0,-247.0,-61.0,1.0,65.0,-1.0,25.0,-955.0,-187.0
12.0,-248.0,-69.0,-1.0,67.0,-5.0,22.0,-954.0,-198.0
12.0,-250.0,-64.0,0.0,66.0,-2.0,21.0,-953.0,-192.0
14.0,-248.0,-64.0,-1.0,67.0,-4.0,17.0,-953.0,-189.0
13.0,-249.0,-62.0,-3.0,68.0,-2.0,21.0,-959.0,-198.0
13.0,-248.0,-64.0,-2.0,67.0,-4.0,20.0,-958.0,-192.0
12.0,-250.0,-64.0,-2.0,66.0,0.0,20.0,-960.0,-189.0
15.0,-252.0,-70.0,-4.0,66.0,-2.0,20.0,-960.0,-190.0
14.0,-250.0,-64.0,-4.0,66.0,0.0,22.0,-959.0,-188.0
12.0,-249.0,-63.0,-7.0,65.0,-2.0,19.0,-956.0,-187.0
12.0,-251.0,-61.0,-10.0,65.0,-1.0,16.0,-960.0,-189.0
12.0,-252.0,-65.0,-11.0,65.0,-4.0,19.0,-961.0,-186.0
10.0,-252.0,-62.0,-11.0,64.0,-3.0,21.0,-966.0,-192.0
11.0,-249.0,-67.0,-9.0,65.0,-4.0,25.0,-961.0,-193.0
18.0,-252.0,-64.0,-8.0,64.0,1.0,24.0,-963.0,-198.0
15.0,-251.0,-69.0,-9.0,64.0,-1.0,24.0,-956.0,-193.0
15.0,-251.0,-65.0,-9.0,62.0,3.0,25.0,-964.0,-190.0
15.0,-250.0,-63.0,-12.0,61.0,-1.0,24.0,-961.0,-185.0
15.0,-249.0,-66.0,-15.0,60.0,1.0,24.0,-956.0,-190.0
11.0,-245.0,-62.0,-18.0,59.0,-4.0,23.0,-956.0,-187.0
14.0,-246.0,-65.0,-22.0,59.0,-4.0,23.0,-952.0,-185.0
13.0,-249.0,-60.0,-25.0,59.0,-9.0,27.0,-951.0,-187.0
13.0,-247.0,-63.0,-29.0,59.0,-8.0,21.0,-959.0,-199.0
12.0,-249.0,-64.0,-30.0,59.0,-11.0,20.0,-957.0,-191.0
9.0,-247.0,-61.0,-33.0,61.0,-10.0,20.0,-962.0,-189.0
11.0,-250.0,-68.0,-31.0,62.0,-12.0,19.0,-972.0,-195.0
12.0,-251.0,-65.0,-29.0,63.0,-9.0,18.0,-966.0,-197.0
13.0,-252.0,-65.0,-26.0,62.0,-10.0,22.0,-974.0,-196.0
13.0,-253.0,-63.0,-22.0,60.0,-4.0,22.0,-977.0,-196.0
13.0,-254.0,-68.0,-17.0,59.0,-4.0,21.0,-982.0,-192.0
12.0,-256.0,-66.0,-10.0,57.0,1.0,19.0,-988.0,-192.0
14.0,-257.0,-68.0,-3.0,57.0,1.0,25.0,-982.0,-201.0
15.0,-254.0,-70.0,5.0,56.0,7.0,22.0,-979.0,-200.0
13.0,-257.0,-69.0,13.0,57.0,6.0,25.0,-978.0,-205.0
14.0,-253.0,-69.0,18.0,58.0,9.0,26.0,-969.0,-208.0
13.0,-247.0,-64.0,22.0,59.0,8.0,26.0,-969.0,-205.0
15.0,-247.0,-65.0,21.0,60.0,8.0,23.0,-954.0,-205.0
12.0,-248.0,-69.0,18.0,60.0,4.0,21.0,-953.0,-198.0
12.0,-243.0,-70.0,13.0,60.0,3.0,22.0,-940.0,-198.0
14.0,-244.0,-67.0,9.0,62.0,-2.0,20.0,-937.0,-196.0
13.0,-247.0,-64.0,4.0,63.0,-3.0,17.0,-940.0,-187.0
13.0,-243.0,-63.0,-2.0,65.0,-7.0,14.0,-950.0,-185.0
10.0,-248.0,-63.0,-7.0,67.0,-6.0,17.0,-948.0,-179.0
9.0,-249.0,-63.0,-11.0,68.0,-8.0,13.0,-954.0,-180.0
13.0,-249.0,-58.0,-14.0,68.0,-7.0,17.0,-959.0,-175.0
12.0,-250.0,-62.0,-17.0,69.0,-10.0,19.0,-965.0,-176.0
7.0,-248.0,-63.0,-20.0,70.0,-8.0,19.0,-963.0,-181.0
12.0,-250.0,-61.0,-20.0,69.0,-11.0,21.0,-959.0,-185.0
12.0,-251.0,-62.0,-22.0,69.0,-9.0,20.0,-969.0,-184.0
12.0,-251.0,-60.0,-23.0,65.0,-12.0,21.0,-968.0,-185.0
12.0,-249.0,-62.0,-22.0,65.0,-10.0,21.0,-963.0,-186.0
13.0,-251.0,-62.0,-22.0,63.0,-10.0,22.0,-969.0,-189.0
12.0,-248.0,-70.0,-21.0,61.0,-8.0,22.0,-963.0,-193.0
13.0,-249.0,-60.0,-21.0,59.0,-8.0,23.0,-960.0,-191.0
13.0,-251.0,-65.0,-21.0,59.0,-4.0,21.0,-957.0,-191.0
12.0,-249.0,-65.0,-19.0,58.0,-4.0,23.0,-955.0,-188.0
14.0,-250.0,-65.0,-17.0,57.0,-1.0,23.0,-963.0,-188.0
11.0,-252.0,-67.0,-15.0,58.0,-2.0,24.0,-960.0,-186.0
17.0,-249.0,-67.0,-15.0,59.0,1.0,24.0,-960.0,-191.0
15.0,-248.0,-66.0,-13.0,60.0,1.0,22.0,-967.0,-188.0
13.0,-249.0,-68.0,-10.0,62.0,0.0,23.0,-958.0,-188.0
12.0,-249.0,-67.0,-10.0,63.0,-1.0,23.0,-963.0,-190.0
11.0,-249.0,-66.0,-9.0,63.0,1.0,26.0,-956.0,-187.0
15.0,-250.0,-66.0,-10.0,64.0,-2.0,23.0,-957.0,-188.0
14.0,-246.0,-62.0,-11.0,63.0,-3.0,24.0,-958.0,-188.0
15.0,-247.0,-65.0,-11.0,63.0,-7.0,24.0,-961.0,-191.0
10.0,-247.0,-63.0,-13.0,61.0,-7.0,28.0,-958.0,-192.0
13.0,-246.0,-67.0,-16.0,61.0,-8.0,22.0,-954.0,-197.0
11.0,-250.0,-67.0,-18.0,61.0,-8.0,23.0,-955.0,-192.0
15.0,-251.0,-69.0,-18.0,62.0,-8.0,23.0,-957.0,-193.0
17.0,-249.0,-65.0,-19.0,62.0,-7.0,26.0,-961.0,-193.0
12.0,-249.0,-69.0,-17.0,62.0,-7.0,32.0,-967.0,-195.0
13.0,-250.0,-61.0,-15.0,62.0,-2.0,27.0,-965.0,-202.0
13.0,-251.0,-68.0,-12.0,62.0,-4.0,27.0,-966.0,-200.0
14.0,-251.0,-68.0,-10.0,63.0,-3.0,23.0,-963.0,-198.0
12.0,-247.0,-65.0,-8.0,63.0,-3.0,28.0,-963.0,-196.0
14.0,-249.0,-66.0,-9.0,64.0,-2.0,24.0,-965.0,-195.0
13.0,-250.0,-65.0,-9.0,64.0,-2.0,24.0,-963.0,-192.0
14.0,-249.0,-67.0,-8.0,64.0,-2.0,19.0,-962.0,-200.0
17.0,-251.0,-64.0,-9.0,63.0,-5.0,20.0,-964.0,-191.0
10.0,-249.0,-72.0,-7.0,63.0,-5.0,19.0,-963.0,-188.0
9.0,-250.0,-61.0,-5.0,63.0,-4.0,18.0,-960.0,-194.0
12.0,-251.0,-63.0,-3.0,61.0,-6.0,18.0,-966.0,-188.0
13.0,-250.0,-66.0,-3.0,60.0,-6.0,19.0,-966.0,-191.0
12.0,-253.0,-64.0,-4.0,60.0,-6.0,21.0,-970.0,-194.0
14.0,-251.0,-65.0,-3.0,59.0,-6.0,18.0,-972.0,-192.0
9.0,-253.0,-64.0,-4.0,59.0,-6.0,23.0,-965.0,-191.0
14.0,-249.0,-62.0,-3.0,61.0,-6.0,21.0,-970.0,-191.0
12.0,-251.0,-61.0,-6.0,60.0,-6.0,26.0,-967.0,-196.0
11.0,-250.0,-68.0,-7.0,62.0,-6.0,23.0,-964.0,-190.0
12.0,-247.0,-66.0,-5.0,63.0,-7.0,20.0,-961.0,-186.0
17.0,-250.0,-64.0,-4.0,64.0,-6.0,23.0,-966.0,-188.0
18.0,-250.0,-67.0,-7.0,64.0,-5.0,28.0,-964.0,-189.0
13.0,-251.0,-65.0,-7.0,65.0,-6.0,26.0,-961.0,-197.0
11.0,-249.0,-68.0,-5.0,65.0,-4.0,23.0,-965.0,-186.0
14.0,-248.0,-64.0,-5.0,67.0,-5.0,24.0,-961.0,-191.0
14.0,-249.0,-61.0,-5.0,69.0,-5.0,24.0,-962.0,-185.0
14.0,-249.0,-62.0,-6.0,70.0,-4.0,17.0,-958.0,-183.0
10.0,-247.0,-61.0,-6.0,70.0,-6.0,22.0,-958.0,-186.0
14.0,-251.0,-63.0,-5.0,71.0,-4.0,24.0,-961.0,-189.0
14.0,-248.0,-64.0,-7.0,70.0,-5.0,18.0,-959.0,-186.0
13.0,-247.0,-63.0,-9.0,72.0,-3.0,20.0,-957.0,-185.0
12.0,-248.0,-65.0,-10.0,69.0,-3.0,21.0,-955.0,-185.0
11.0,-249.0,-61.0,-14.0,69.0,-2.0,22.0,-952.0,-184.0
14.0,-248.0,-66.0,-14.0,69.0,-3.0,23.0,-961.0,-186.0
13.0,-250.0,-63.0,-15.0,67.0,-3.0,23.0,-957.0,-186.0
13.0,-248.0,-66.0,-18.0,66.0,-3.0,22.0,-961.0,-187.0
13.0,-247.0,-63.0,-20.0,65.0,-3.0,25.0,-966.0,-187.0
15.0,-250.0,-63.0,-22.0,61.0,-4.0,25.0,-958.0,-189.0
14.0,-247.0,-67.0,-24.0,60.0,-2.0,25.0,-960.0,-188.0
13.0,-249.0,-61.0,-25.0,59.0,-2.0,30.0,-958.0,-188.0
11.0,-246.0,-66.0,-26.0,57.0,-2.0,29.0,-951.0,-192.0
14.0,-248.0,-62.0,-29.0,57.0,-4.0,27.0,-952.0,-192.0
13.0,-249.0,-62.0,-33.0,57.0,-4.0,26.0,-956.0,-189.0
14.0,-250.0,-64.0,-33.0,56.0,-4.0,21.0,-959.0,-190.0
15.0,-251.0,-65.0,-31.0,55.0,-3.0,21.0,-957.0,-187.0
10.0,-248.0,-61.0,-29.0,57.0,-7.0,21.0,-964.0,-190.0
13.0,-251.0,-65.0,-27.0,56.0,-4.0,23.0,-965.0,-193.0
10.0,-249.0,-64.0,-28.0,57.0,-7.0,21.0,-969.0,-188.0
15.0,-250.0,-66.0,-26.0,59.0,-4.0,22.0,-965.0,-196.0
14.0,-251.0,-65.0,-25.0,59.0,-6.0,21.0,-965.0,-192.0
9.0,-247.0,-65.0,-25.0,59.0,-5.0,25.0,-963.0,-193.0
13.0,-250.0,-65.0,-24.0,60.0,-6.0,26.0,-960.0,-197.0
14.0,-249.0,-68.0,-23.0,60.0,-4.0,19.0,-958.0,-193.0
11.0,-247.0,-63.0,-25.0,60.0,-5.0,22.0,-958.0,-189.0
13.0,-247.0,-63.0,-23.0,60.0,-1.0,24.0,-963.0,-189.0
13.0,-249.0,-67.0,-24.0,59.0,-3.0,27.0,-959.0,-197.0
13.0,-250.0,-65.0,-24.0,59.0,0.0,22.0,-966.0,-196.0
15.0,-247.0,-66.0,-26.0,57.0,-2.0,29.0,-962.0,-192.0
14.0,-249.0,-69.0,-28.0,57.0,2.0,29.0,-965.0,-199.0
14.0,-247.0,-67.0,-29.0,58.0,-2.0,24.0,-955.0,-193.0
13.0,-249.0,-66.0,-30.0,56.0,0.0,23.0,-959.0,-190.0
10.0,-251.0,-70.0,-30.0,54.0,-2.0,25.0,-958.0,-188.0
15.0,-251.0,-62.0,-32.0,55.0,0.0,22.0,-963.0,-192.0
17.0,-248.0,-66.0,-34.0,56.0,-3.0,25.0,-961.0,-194.0
13.0,-249.0,-70.0,-36.0,54.0,-3.0,22.0,-964.0,-196.0
13.0,-252.0,-66.0,-35.0,56.0,-5.0,23.0,-965.0,-198.0
13.0,-250.0,-66.0,-37.0,56.0,-2.0,22.0,-965.0,-199.0
15.0,-250.0,-67.0,-38.0,58.0,-5.0,21.0,-964.0,-198.0
13.0,-249.0,-63.0,-39.0,58.0,-2.0,21.0,-960.0,-198.0
14.0,-251.0,-68.0,-40.0,61.0,-5.0,21.0,-961.0,-189.0
13.0,-249.0,-67.0,-41.0,61.0,-3.0,22.0,-965.0,-190.0
13.0,-251.0,-65.0,-40.0,60.0,-4.0,22.0,-961.0,-195.0
15.0,-248.0,-66.0,-40.0,58.0,-2.0,21.0,-960.0,-195.0
12.0,-250.0,-69.0,-41.0,59.0,-4.0,23.0,-962.0,-193.0
12.0,-251.0,-66.0,-40.0,58.0,-1.0,22.0,-958.0,-196.0
13.0,-250.0,-69.0,-39.0,57.0,-2.0,21.0,-958.0,-193.0
12.0,-248.0,-63.0,-40.0,57.0,0.0,21.0,-961.0,-196.0
14.0,-249.0,-67.0,-40.0,57.0,-1.0,26.0,-959.0,-198.0
13.0,-253.0,-62.0,-39.0,57.0,0.0,25.0,-959.0,-197.0
9.0,-247.0,-66.0,-39.0,57.0,-3.0,22.0,-959.0,-196.0
15.0,-249.0,-65.0,-42.0,58.0,0.0,22.0,-953.0,-192.0
12.0,-246.0,-67.0,-43.0,57.0,-3.0,23.0,-964.0,-198.0
13.0,-248.0,-64.0,-43.0,57.0,-1.0,21.0,-957.0,-190.0
11.0,-248.0,-66.0,-44.0,58.0,-2.0,26.0,-961.0,-191.0
13.0,-249.0,-66.0,-46.0,61.0,-1.0,25.0,-959.0,-199.0
12.0,-248.0,-69.0,-45.0,60.0,-2.0,20.0,-964.0,-193.0
13.0,-251.0,-65.0,-45.0,60.0,-1.0,21.0,-965.0,-194.0
12.0,-251.0,-65.0,-43.0,58.0,-3.0,24.0,-962.0,-203.0
10.0,-251.0,-66.0,-43.0,59.0,0.0,23.0,-959.0,-196.0
15.0,-249.0,-64.0,-43.0,59.0,-3.0,21.0,-963.0,-198.0
13.0,-252.0,-66.0,-43.0,60.0,0.0,22.0,-961.0,-195.0
13.0,-250.0,-66.0,-41.0,59.0,-1.0,21.0,-961.0,-195.0
13.0,-249.0,-66.0,-40.0,60.0,0.0,21.0,-964.0,-198.0
13.0,-250.0,-70.0,-39.0,58.0,-2.0,19.0,-966.0,-201.0
11.0,-249.0,-70.0,-39.0,59.0,2.0,21.0,-966.0,-196.0
11.0,-249.0,-67.0,-38.0,56.0,-1.0,25.0,-963.0,-190.0
13.0,-247.0,-65.0,-38.0,56.0,4.0,23.0,-960.0,-194.0
12.0,-251.0,-67.0,-37.0,55.0,1.0,21.0,-961.0,-196.0
14.0,-250.0,-65.0,-36.0,57.0,4.0,22.0,-956.0,-196.0
13.0,-248.0,-66.0,-36.0,55.0,1.0,22.0,-960.0,-198.0
13.0,-250.0,-64.0,-35.0,55.0,3.0,25.0,-960.0,-201.0
11.0,-248.0,-69.0,-37.0,56.0,1.0,22.0,-963.0,-198.0
13.0,-248.0,-63.0,-35.0,55.0,3.0,25.0,-958.0,-198.0
12.0,-248.0,-64.0,-36.0,55.0,2.0,21.0,-959.0,-202.0
10.0,-245.0,-66.0,-38.0,54.0,3.0,22.0,-958.0,-193.0
12.0,-248.0,-64.0,-37.0,55.0,0.0,24.0,-963.0,-197.0
9.0,-248.0,-65.0,-38.0,55.0,4.0,24.0,-962.0,-200.0
13.0,-249.0,-70.0,-36.0,56.0,0.0,20.0,-965.0,-194.0
12.0,-247.0,-67.0,-37.0,57.0,3.0,20.0,-959.0,-200.0
16.0,-251.0,-67.0,-37.0,56.0,-1.0,21.0,-957.0,-203.0
14.0,-248.0,-66.0,-36.0,55.0,3.0,21.0,-956.0,-198.0
12.0,-248.0,-65.0,-38.0,56.0,0.0,21.0,-957.0,-200.0
16.0,-253.0,-66.0,-38.0,58.0,2.0,18.0,-955.0,-202.0
14.0,-248.0,-70.0,-40.0,56.0,0.0,20.0,-958.0,-198.0
11.0,-250.0,-71.0,-41.0,57.0,2.0,20.0,-958.0,-198.0
12.0,-249.0,-66.0,-41.0,56.0,0.0,22.0,-958.0,-197.0
14.0,-248.0,-67.0,-43.0,56.0,2.0,26.0,-960.0,-198.0
14.0,-248.0,-68.0,-45.0,57.0,0.0,21.0,-960.0,-204.0
14.0,-249.0,-65.0,-47.0,57.0,1.0,22.0,-965.0,-203.0
14.0,-249.0,-69.0,-49.0,55.0,1.0,20.0,-956.0,-201.0
12.0,-248.0,-69.0,-51.0,54.0,4.0,18.0,-960.0,-202.0
12.0,-249.0,-66.0,-53.0,54.0,1.0,21.0,-954.0,-200.0
14.0,-251.0,-66.0,-54.0,56.0,2.0,17.0,-957.0,-204.0
9.0,-250.0,-67.0,-55.0,55.0,0.0,16.0,-981.0,-211.0
13.0,-247.0,-69.0,-60.0,55.0,-3.0,21.0,-954.0,-201.0
13.0,-249.0,-74.0,-59.0,53.0,-1.0,20.0,-958.0,-209.0
11.0,-246.0,-67.0,-53.0,55.0,5.0,20.0,-961.0,-207.0
13.0,-247.0,-67.0,-50.0,55.0,4.0,16.0,-962.0,-203.0
15.0,-250.0,-71.0,-49.0,56.0,4.0,16.0,-961.0,-204.0
14.0,-249.0,-68.0,-47.0,57.0,3.0,19.0,-964.0,-207.0
12.0,-249.0,-65.0,-46.0,58.0,5.0,21.0,-959.0,-208.0
12.0,-249.0,-69.0,-44.0,57.0,3.0,22.0,-957.0,-204.0
14.0,-249.0,-69.0,-41.0,56.0,5.0,21.0,-958.0,-202.0
16.0,-250.0,-68.0,-36.0,56.0,3.0,21.0,-959.0,-204.0
15.0,-249.0,-68.0,-33.0,55.0,6.0,20.0,-958.0,-205.0
12.0,-251.0,-67.0,-31.0,56.0,4.0,20.0,-959.0,-207.0
15.0,-248.0,-68.0,-31.0,56.0,6.0,25.0,-967.0,-207.0
12.0,-249.0,-69.0,-29.0,56.0,5.0,19.0,-960.0,-205.0
14.0,-253.0,-68.0,-28.0,57.0,6.0,19.0,-960.0,-208.0
11.0,-248.0,-65.0,-28.0,58.0,6.0,22.0,-957.0,-206.0
12.0,-245.0,-71.0,-28.0,59.0,5.0,22.0,-960.0,-206.0
12.0,-250.0,-72.0,-28.0,58.0,4.0,20.0,-959.0,-206.0
14.0,-251.0,-68.0,-26.0,57.0,6.0,21.0,-961.0,-208.0
12.0,-249.0,-68.0,-25.0,58.0,4.0,17.0,-956.0,-209.0
12.0,-246.0,-69.0,-22.0,59.0,8.0,21.0,-958.0,-212.0
14.0,-249.0,-65.0,-20.0,58.0,7.0,22.0,-961.0,-211.0
12.0,-252.0,-69.0,-19.0,58.0,7.0,17.0,-961.0,-210.0
12.0,-248.0,-68.0,-18.0,58.0,5.0,14.0,-959.0,-206.0
13.0,-248.0,-69.0,-17.0,58.0,5.0,19.0,-957.0,-208.0
12.0,-248.0,-71.0,-16.0,58.0,3.0,22.0,-962.0,-205.0
16.0,-252.0,-70.0,-14.0,60.0,4.0,23.0,-956.0,-217.0
13.0,-248.0,-68.0,-11.0,59.0,4.0,25.0,-956.0,-207.0
16.0,-251.0,-68.0,-4.0,59.0,5.0,28.0,-964.0,-210.0
14.0,-250.0,-64.0,1.0,60.0,7.0,27.0,-961.0,-215.0
14.0,-250.0,-70.0,5.0,58.0,8.0,27.0,-961.0,-209.0
15.0,-250.0,-70.0,7.0,58.0,9.0,27.0,-958.0,-210.0
13.0,-246.0,-67.0,8.0,58.0,11.0,21.0,-954.0,-204.0
12.0,-246.0,-66.0,8.0,58.0,8.0,23.0,-956.0,-206.0
13.0,-249.0,-72.0,6.0,60.0,9.0,23.0,-958.0,-208.0
15.0,-247.0,-71.0,4.0,61.0,6.0,21.0,-950.0,-206.0
11.0,-248.0,-69.0,2.0,62.0,3.0,21.0,-951.0,-205.0
8.0,-247.0,-67.0,1.0,62.0,0.0,20.0,-957.0,-205.0
10.0,-249.0,-67.0,-2.0,64.0,-2.0,20.0,-952.0,-208.0
13.0,-250.0,-71.0,-4.0,64.0,-3.0,18.0,-960.0,-207.0
11.0,-247.0,-66.0,-3.0,63.0,-4.0,16.0,-958.0,-202.0
12.0,-251.0,-68.0,-3.0,64.0,-2.0,17.0,-967.0,-204.0
9.0,-247.0,-66.0,-2.0,64.0,0.0,17.0,-960.0,-204.0
13.0,-254.0,-66.0,0.0,62.0,2.0,14.0,-967.0,-202.0
11.0,-251.0,-67.0,-2.0,61.0,4.0,16.0,-966.0,-206.0
10.0,-249.0,-69.0,-2.0,58.0,5.0,18.0,-969.0,-203.0
15.0,-255.0,-69.0,0.0,57.0,5.0,16.0,-974.0,-203.0
14.0,-254.0,-67.0,6.0,56.0,6.0,22.0,-974.0,-205.0
11.0,-252.0,-73.0,11.0,56.0,11.0,22.0,-972.0,-211.0
12.0,-253.0,-69.0,15.0,56.0,9.0,25.0,-969.0,-218.0
13.0,-251.0,-69.0,16.0,58.0,12.0,29.0,-964.0,-218.0
12.0,-248.0,-71.0,18.0,58.0,11.0,22.0,-961.0,-219.0
14.0,-247.0,-69.0,18.0,60.0,11.0,19.0,-951.0,-214.0
12.0,-244.0,-70.0,17.0,60.0,8.0,16.0,-946.0,-215.0
13.0,-245.0,-68.0,14.0,60.0,7.0,19.0,-943.0,-209.0
10.0,-245.0,-71.0,11.0,62.0,4.0,17.0,-946.0,-206.0
11.0,-244.0,-67.0,8.0,64.0,4.0,14.0,-949.0,-205.0
9.0,-246.0,-68.0,4.0,64.0,3.0,13.0,-950.0,-205.0
8.0,-249.0,-64.0,3.0,67.0,2.0,8.0,-950.0,-198.0
9.0,-249.0,-65.0,4.0,68.0,1.0,9.0,-958.0,-198.0
10.0,-245.0,-67.0,3.0,68.0,0.0,9.0,-959.0,-198.0
11.0,-250.0,-64.0,4.0,69.0,-1.0,10.0,-963.0,-196.0
9.0,-251.0,-62.0,5.0,69.0,-1.0,11.0,-952.0,-199.0
11.0,-251.0,-66.0,9.0,67.0,-2.0,17.0,-967.0,-193.0
12.0,-249.0,-66.0,10.0,65.0,-3.0,18.0,-967.0,-193.0
12.0,-249.0,-64.0,10.0,64.0,-2.0,17.0,-963.0,-197.0
12.0,-248.0,-68.0,11.0,63.0,-1.0,15.0,-966.0,-198.0
14.0,-250.0,-63.0,11.0,61.0,0.0,21.0,-959.0,-201.0
13.0,-249.0,-64.0,10.0,58.0,0.0,24.0,-957.0,-199.0
12.0,-247.0,-69.0,10.0,57.0,1.0,20.0,-959.0,-198.0
12.0,-250.0,-66.0,11.0,56.0,2.0,20.0,-962.0,-202.0
14.0,-249.0,-68.0,14.0,56.0,4.0,24.0,-956.0,-199.0
14.0,-249.0,-71.0,14.0,57.0,6.0,24.0,-955.0,-199.0
10.0,-247.0,-69.0,14.0,56.0,7.0,22.0,-960.0,-204.0
14.0,-251.0,-68.0,13.0,58.0,8.0,25.0,-961.0,-202.0
11.0,-250.0,-67.0,15.0,59.0,10.0,20.0,-966.0,-199.0
11.0,-251.0,-69.0,14.0,59.0,8.0,26.0,-967.0,-196.0
12.0,-248.0,-68.0,15.0,60.0,10.0,19.0,-958.0,-200.0
13.0,-248.0,-70.0,17.0,61.0,7.0,19.0,-963.0,-199.0
11.0,-251.0,-66.0,17.0,60.0,6.0,16.0,-957.0,-200.0
10.0,-250.0,-67.0,17.0,60.0,6.0,18.0,-954.0,-199.0
11.0,-248.0,-72.0,16.0,61.0,6.0,18.0,-958.0,-204.0
12.0,-250.0,-68.0,18.0,59.0,2.0,16.0,-957.0,-202.0
11.0,-250.0,-68.0,16.0,59.0,4.0,13.0,-959.0,-198.0
13.0,-247.0,-66.0,15.0,59.0,3.0,13.0,-959.0,-200.0
13.0,-250.0,-64.0,14.0,59.0,5.0,17.0,-957.0,-203.0
13.0,-248.0,-66.0,13.0,59.0,3.0,18.0,-963.0,-202.0
12.0,-249.0,-62.0,11.0,60.0,4.0,18.0,-959.0,-199.0
13.0,-250.0,-66.0,10.0,61.0,2.0,18.0,-962.0,-195.0
12.0,-247.0,-67.0,11.0,62.0,4.0,16.0,-955.0,-194.0
13.0,-249.0,-63.0,11.0,61.0,3.0,18.0,-966.0,-198.0
12.0,-248.0,-65.0,11.0,62.0,4.0,17.0,-965.0,-197.0
13.0,-248.0,-66.0,10.0,61.0,2.0,18.0,-962.0,-194.0
10.0,-247.0,-63.0,6.0,62.0,2.0,17.0,-968.0,-194.0
10.0,-246.0,-68.0,1.0,63.0,1.0,21.0,-956.0,-188.0
12.0,-246.0,-65.0,-2.0,62.0,2.0,22.0,-955.0,-189.0
12.0,-250.0,-66.0,-3.0,64.0,-1.0,20.0,-963.0,-198.0
13.0,-250.0,-67.0,-3.0,63.0,1.0,17.0,-957.0,-194.0
10.0,-248.0,-64.0,-3.0,63.0,-1.0,20.0,-965.0,-190.0
14.0,-250.0,-62.0,-4.0,62.0,0.0,18.0,-964.0,-190.0
13.0,-250.0,-65.0,-3.0,63.0,0.0,18.0,-966.0,-196.0
11.0,-252.0,-67.0,-2.0,63.0,2.0,16.0,-962.0,-192.0
13.0,-250.0,-69.0,2.0,62.0,2.0,15.0,-971.0,-196.0
11.0,-251.0,-64.0,3.0,61.0,3.0,21.0,-970.0,-200.0
14.0,-253.0,-64.0,6.0,61.0,1.0,22.0,-971.0,-199.0
14.0,-253.0,-64.0,6.0,60.0,4.0,19.0,-966.0,-198.0
13.0,-249.0,-68.0,8.0,60.0,2.0,21.0,-964.0,-198.0
12.0,-251.0,-69.0,9.0,59.0,3.0,17.0,-963.0,-200.0
10.0,-248.0,-68.0,10.0,59.0,1.0,18.0,-969.0,-202.0
12.0,-251.0,-65.0,12.0,58.0,3.0,17.0,-961.0,-194.0
13.0,-248.0,-67.0,13.0,58.0,3.0,20.0,-967.0,-198.0
10.0,-251.0,-68.0,14.0,60.0,5.0,20.0,-957.0,-194.0
14.0,-250.0,-65.0,14.0,61.0,1.0,18.0,-964.0,-197.0
11.0,-249.0,-64.0,15.0,62.0,3.0,22.0,-960.0,-194.0
11.0,-249.0,-66.0,15.0,63.0,-1.0,13.0,-961.0,-186.0
11.0,-247.0,-69.0,15.0,64.0,2.0,18.0,-957.0,-194.0
13.0,-250.0,-63.0,14.0,64.0,-1.0,19.0,-959.0,-189.0
10.0,-249.0,-65.0,11.0,64.0,0.0,19.0,-953.0,-190.0
13.0,-249.0,-65.0,10.0,66.0,-3.0,21.0,-956.0,-186.0
14.0,-249.0,-65.0,10.0,65.0,-3.0,18.0,-956.0,-191.0
14.0,-251.0,-63.0,7.0,64.0,-5.0,20.0,-956.0,-193.0
14.0,-249.0,-67.0,7.0,63.0,-3.0,19.0,-953.0,-192.0
15.0,-248.0,-68.0,6.0,62.0,-3.0,24.0,-957.0,-193.0
11.0,-248.0,-68.0,4.0,59.0,0.0,23.0,-957.0,-189.0
15.0,-249.0,-61.0,4.0,59.0,-1.0,19.0,-958.0,-195.0
11.0,-253.0,-64.0,4.0,57.0,3.0,21.0,-967.0,-197.0
11.0,-249.0,-64.0,5.0,59.0,1.0,19.0,-963.0,-193.0
11.0,-250.0,-64.0,5.0,59.0,5.0,23.0,-966.0,-191.0
14.0,-252.0,-64.0,4.0,58.0,2.0,16.0,-965.0,-196.0
14.0,-250.0,-65.0,6.0,57.0,3.0,19.0,-960.0,-187.0
10.0,-247.0,-67.0,8.0,57.0,1.0,19.0,-963.0,-191.0
12.0,-248.0,-64.0,9.0,57.0,4.0,18.0,-957.0,-192.0
12.0,-248.0,-65.0,9.0,57.0,2.0,17.0,-963.0,-194.0
14.0,-248.0,-65.0,10.0,57.0,3.0,18.0,-962.0,-188.0
12.0,-250.0,-67.0,11.0,57.0,1.0,18.0,-963.0,-193.0
14.0,-246.0,-58.0,11.0,57.0,3.0,17.0,-957.0,-192.0
11.0,-250.0,-64.0,10.0,55.0,1.0,14.0,-959.0,-192.0
12.0,-253.0,-62.0,9.0,57.0,3.0,18.0,-958.0,-188.0
10.0,-250.0,-64.0,8.0,56.0,3.0,19.0,-964.0,-189.0
13.0,-249.0,-65.0,7.0,56.0,6.0,16.0,-966.0,-186.0
11.0,-249.0,-64.0,7.0,55.0,4.0,18.0,-959.0,-187.0
11.0,-248.0,-67.0,8.0,54.0,8.0,11.0,-963.0,-190.0
11.0,-250.0,-67.0,8.0,53.0,8.0,18.0,-963.0,-195.0
10.0,-251.0,-65.0,7.0,54.0,10.0,16.0,-963.0,-193.0
11.0,-250.0,-62.0,7.0,54.0,9.0,17.0,-961.0,-189.0
10.0,-250.0,-66.0,8.0,53.0,12.0,15.0,-966.0,-187.0
11.0,-250.0,-62.0,7.0,54.0,9.0,11.0,-965.0,-191.0
10.0,-252.0,-62.0,5.0,54.0,11.0,15.0,-958.0,-185.0
12.0,-251.0,-64.0,4.0,52.0,9.0,11.0,-963.0,-188.0
13.0,-247.0,-62.0,1.0,52.0,9.0,15.0,-962.0,-188.0
11.0,-250.0,-64.0,1.0,53.0,7.0,12.0,-960.0,-186.0
12.0,-248.0,-62.0,0.0,54.0,8.0,11.0,-962.0,-188.0
10.0,-248.0,-65.0,-1.0,54.0,7.0,13.0,-956.0,-180.0
11.0,-251.0,-63.0,-5.0,55.0,9.0,16.0,-958.0,-186.0
13.0,-252.0,-63.0,-7.0,55.0,4.0,14.0,-961.0,-187.0
12.0,-248.0,-63.0,-8.0,56.0,7.0,14.0,-953.0,-185.0
9.0,-249.0,-64.0,-10.0,56.0,4.0,13.0,-964.0,-188.0
11.0,-254.0,-61.0,-11.0,56.0,5.0,13.0,-965.0,-185.0
11.0,-249.0,-65.0,-12.0,57.0,2.0,18.0,-964.0,-185.0
11.0,-250.0,-65.0,-13.0,58.0,4.0,15.0,-961.0,-183.0
10.0,-250.0,-58.0,-14.0,58.0,1.0,15.0,-965.0,-184.0
13.0,-251.0,-60.0,-14.0,59.0,3.0,17.0,-961.0,-188.0
10.0,-249.0,-61.0,-15.0,58.0,1.0,17.0,-963.0,-182.0
9.0,-249.0,-60.0,-16.0,58.0,4.0,15.0,-964.0,-185.0
13.0,-249.0,-62.0,-15.0,58.0,3.0,13.0,-968.0,-183.0
10.0,-250.0,-66.0,-14.0,58.0,6.0,21.0,-966.0,-187.0
13.0,-250.0,-64.0,-13.0,57.0,5.0,14.0,-964.0,-184.0
8.0,-250.0,-62.0,-11.0,58.0,7.0,14.0,-965.0,-187.0
11.0,-250.0,-65.0,-14.0,57.0,4.0,17.0,-965.0,-187.0
11.0,-250.0,-66.0,-13.0,58.0,5.0,11.0,-972.0,-190.0
13.0,-251.0,-66.0,-14.0,56.0,1.0,16.0,-967.0,-182.0
10.0,-250.0,-65.0,-14.0,56.0,1.0,16.0,-967.0,-183.0
13.0,-252.0,-64.0,-16.0,55.0,-4.0,15.0,-964.0,-184.0
12.0,-249.0,-64.0,-15.0,55.0,-3.0,16.0,-961.0,-188.0
9.0,-249.0,-65.0,-14.0,55.0,-7.0,15.0,-963.0,-187.0
10.0,-247.0,-66.0,-14.0,56.0,-4.0,13.0,-963.0,-185.0
12.0,-249.0,-63.0,-14.0,56.0,-7.0,11.0,-962.0,-183.0
10.0,-248.0,-65.0,-15.0,56.0,-5.0,18.0,-960.0,-188.0
9.0,-248.0,-62.0,-16.0,61.0,-5.0,15.0,-954.0,-184.0
10.0,-247.0,-63.0,-16.0,62.0,-2.0,14.0,-961.0,-188.0
13.0,-250.0,-63.0,-18.0,61.0,-4.0,12.0,-960.0,-194.0
11.0,-251.0,-62.0,-17.0,61.0,-1.0,10.0,-967.0,-188.0
12.0,-251.0,-64.0,-17.0,62.0,-3.0,17.0,-958.0,-187.0
12.0,-247.0,-64.0,-17.0,62.0,-3.0,12.0,-965.0,-187.0
11.0,-250.0,-64.0,-16.0,62.0,-5.0,9.0,-965.0,-189.0
10.0,-250.0,-65.0,-16.0,61.0,-3.0,11.0,-961.0,-193.0
10.0,-251.0,-67.0,-15.0,62.0,-7.0,11.0,-961.0,-191.0
11.0,-251.0,-68.0,-15.0,62.0,-6.0,14.0,-963.0,-193.0
10.0,-247.0,-64.0,-13.0,60.0,-9.0,10.0,-964.0,-190.0
11.0,-251.0,-65.0,-12.0,60.0,-7.0,8.0,-966.0,-188.0
8.0,-248.0,-66.0,-10.0,60.0,-7.0,11.0,-963.0,-191.0
12.0,-249.0,-66.0,-10.0,59.0,-5.0,11.0,-956.0,-188.0
10.0,-251.0,-66.0,-9.0,60.0,-5.0,15.0,-964.0,-189.0
10.0,-249.0,-65.0,-10.0,60.0,-2.0,11.0,-959.0,-189.0
11.0,-253.0,-65.0,-10.0,60.0,-4.0,11.0,-967.0,-190.0
10.0,-249.0,-66.0,-9.0,62.0,-3.0,13.0,-958.0,-195.0
10.0,-250.0,-65.0,-11.0,61.0,-6.0,17.0,-966.0,-194.0
11.0,-248.0,-68.0,-13.0,61.0,-4.0,16.0,-965.0,-191.0
10.0,-249.0,-63.0,-14.0,61.0,-7.0,12.0,-966.0,-188.0
9.0,-250.0,-66.0,-15.0,62.0,-5.0,15.0,-959.0,-192.0
9.0,-249.0,-67.0,-15.0,63.0,-9.0,12.0,-959.0,-189.0
10.0,-250.0,-65.0,-15.0,62.0,-7.0,17.0,-955.0,-192.0
11.0,-249.0,-67.0,-15.0,61.0,-10.0,10.0,-956.0,-195.0
11.0,-248.0,-63.0,-17.0,61.0,-9.0,12.0,-959.0,-186.0
10.0,-251.0,-67.0,-18.0,61.0,-11.0,14.0,-955.0,-195.0
11.0,-247.0,-63.0,-19.0,60.0,-10.0,14.0,-962.0,-188.0
12.0,-249.0,-63.0,-20.0,61.0,-11.0,12.0,-965.0,-189.0
10.0,-249.0,-68.0,-19.0,63.0,-11.0,16.0,-964.0,-190.0
12.0,-249.0,-65.0,-18.0,64.0,-12.0,17.0,-968.0,-190.0
13.0,-250.0,-60.0,-18.0,65.0,-12.0,21.0,-964.0,-189.0
10.0,-251.0,-65.0,-17.0,65.0,-14.0,18.0,-969.0,-193.0
9.0,-252.0,-65.0,-17.0,65.0,-13.0,18.0,-968.0,-191.0
9.0,-248.0,-67.0,-15.0,65.0,-14.0,17.0,-966.0,-189.0
12.0,-249.0,-65.0,-15.0,64.0,-13.0,19.0,-967.0,-188.0
11.0,-252.0,-64.0,-14.0,63.0,-14.0,12.0,-966.0,-193.0
11.0,-249.0,-67.0,-14.0,62.0,-12.0,17.0,-961.0,-188.0
13.0,-249.0,-67.0,-13.0,63.0,-12.0,16.0,-962.0,-194.0
10.0,-249.0,-62.0,-12.0,63.0,-11.0,16.0,-967.0,-186.0
11.0,-248.0,-64.0,-11.0,61.0,-12.0,14.0,-964.0,-188.0
10.0,-249.0,-64.0,-11.0,60.0,-10.0,18.0,-957.0,-186.0
12.0,-249.0,-66.0,-12.0,61.0,-11.0,19.0,-956.0,-191.0
10.0,-249.0,-63.0,-12.0,60.0,-10.0,20.0,-960.0,-188.0
12.0,-246.0,-60.0,-11.0,61.0,-11.0,18.0,-962.0,-192.0
10.0,-250.0,-64.0,-14.0,62.0,-11.0,12.0,-962.0,-187.0
13.0,-248.0,-62.0,-14.0,62.0,-13.0,16.0,-961.0,-185.0
12.0,-248.0,-63.0,-13.0,63.0,-13.0,20.0,-963.0,-190.0
10.0,-250.0,-68.0,-13.0,62.0,-13.0,18.0,-957.0,-186.0
14.0,-249.0,-62.0,-12.0,62.0,-12.0,19.0,-963.0,-186.0
12.0,-249.0,-60.0,-12.0,62.0,-12.0,18.0,-965.0,-185.0
9.0,-247.0,-62.0,-13.0,61.0,-12.0,17.0,-961.0,-184.0
11.0,-251.0,-62.0,-15.0,62.0,-15.0,17.0,-961.0,-178.0
10.0,-249.0,-63.0,-16.0,63.0,-15.0,19.0,-962.0,-187.0
15.0,-252.0,-63.0,-15.0,64.0,-16.0,17.0,-963.0,-188.0
10.0,-249.0,-65.0,-12.0,62.0,-16.0,20.0,-957.0,-189.0
9.0,-249.0,-67.0,-11.0,63.0,-17.0,19.0,-963.0,-192.0
14.0,-248.0,-65.0,-10.0,63.0,-17.0,19.0,-968.0,-193.0
14.0,-252.0,-61.0,-7.0,61.0,-15.0,23.0,-968.0,-189.0
15.0,-251.0,-66.0,-5.0,59.0,-12.0,17.0,-967.0,-187.0
13.0,-249.0,-63.0,-4.0,58.0,-11.0,17.0,-960.0,-187.0
12.0,-249.0,-59.0,-5.0,58.0,-10.0,18.0,-957.0,-185.0
12.0,-248.0,-64.0,-9.0,58.0,-12.0,22.0,-959.0,-178.0
12.0,-248.0,-62.0,-12.0,59.0,-14.0,19.0,-954.0,-185.0
13.0,-249.0,-62.0,-16.0,60.0,-16.0,19.0,-952.0,-180.0
12.0,-247.0,-63.0,-20.0,61.0,-18.0,17.0,-954.0,-183.0
12.0,-249.0,-61.0,-24.0,60.0,-19.0,16.0,-955.0,-186.0
13.0,-248.0,-66.0,-27.0,61.0,-21.0,17.0,-956.0,-188.0
7.0,-247.0,-65.0,-30.0,61.0,-20.0,14.0,-956.0,-189.0
10.0,-249.0,-64.0,-31.0,62.0,-19.0,16.0,-966.0,-192.0
9.0,-250.0,-66.0,-28.0,62.0,-18.0,15.0,-967.0,-188.0
10.0,-249.0,-62.0,-24.0,61.0,-16.0,20.0,-973.0,-197.0
13.0,-255.0,-64.0,-20.0,60.0,-16.0,21.0,-977.0,-195.0
14.0,-254.0,-64.0,-16.0,59.0,-13.0,22.0,-981.0,-192.0
13.0,-256.0,-66.0,-9.0,57.0,-9.0,18.0,-976.0,-186.0
9.0,-254.0,-67.0,-3.0,56.0,-6.0,20.0,-987.0,-193.0
14.0,-258.0,-65.0,5.0,55.0,-4.0,22.0,-988.0,-192.0
10.0,-258.0,-63.0,10.0,56.0,-2.0,23.0,-989.0,-204.0
15.0,-254.0,-66.0,16.0,55.0,0.0,23.0,-976.0,-200.0
12.0,-252.0,-65.0,21.0,56.0,1.0,26.0,-966.0,-203.0
14.0,-251.0,-64.0,23.0,56.0,4.0,21.0,-955.0,-200.0
14.0,-249.0,-67.0,23.0,57.0,2.0,21.0,-954.0,-198.0
13.0,-246.0,-68.0,20.0,57.0,1.0,18.0,-946.0,-196.0
13.0,-244.0,-64.0,15.0,56.0,-2.0,16.0,-945.0,-194.0
11.0,-244.0,-65.0,10.0,58.0,-4.0,12.0,-942.0,-185.0
10.0,-247.0,-63.0,3.0,60.0,-7.0,16.0,-943.0,-183.0
10.0,-245.0,-63.0,-4.0,62.0,-7.0,18.0,-944.0,-182.0
8.0,-246.0,-64.0,-11.0,64.0,-8.0,16.0,-948.0,-175.0
9.0,-247.0,-61.0,-17.0,64.0,-9.0,13.0,-955.0,-180.0
8.0,-248.0,-63.0,-20.0,66.0,-12.0,15.0,-957.0,-175.0
9.0,-249.0,-61.0,-22.0,65.0,-12.0,16.0,-954.0,-174.0
14.0,-251.0,-65.0,-23.0,64.0,-13.0,17.0,-962.0,-184.0
11.0,-250.0,-64.0,-26.0,65.0,-14.0,21.0,-964.0,-182.0
12.0,-249.0,-60.0,-26.0,64.0,-14.0,20.0,-963.0,-189.0
13.0,-251.0,-64.0,-25.0,63.0,-13.0,18.0,-962.0,-186.0
10.0,-248.0,-62.0,-25.0,63.0,-13.0,21.0,-964.0,-191.0
12.0,-251.0,-64.0,-24.0,61.0,-11.0,24.0,-963.0,-185.0
13.0,-249.0,-67.0,-22.0,61.0,-11.0,19.0,-968.0,-189.0
12.0,-248.0,-64.0,-21.0,60.0,-9.0,22.0,-960.0,-187.0
13.0,-250.0,-65.0,-19.0,60.0,-9.0,22.0,-964.0,-188.0
12.0,-247.0,-62.0,-18.0,59.0,-6.0,19.0,-964.0,-188.0
12.0,-249.0,-65.0,-15.0,59.0,-5.0,22.0,-970.0,-186.0
13.0,-251.0,-67.0,-14.0,59.0,-5.0,23.0,-962.0,-188.0
13.0,-247.0,-62.0,-11.0,58.0,-4.0,18.0,-959.0,-188.0
14.0,-252.0,-65.0,-9.0,59.0,-3.0,18.0,-960.0,-188.0
14.0,-251.0,-63.0,-7.0,60.0,-4.0,20.0,-966.0,-186.0
13.0,-248.0,-64.0,-6.0,60.0,-3.0,20.0,-962.0,-184.0
11.0,-252.0,-64.0,-7.0,62.0,-6.0,17.0,-960.0,-184.0
11.0,-248.0,-66.0,-6.0,63.0,-7.0,22.0,-964.0,-188.0
10.0,-247.0,-64.0,-7.0,62.0,-7.0,19.0,-957.0,-184.0
13.0,-248.0,-69.0,-7.0,61.0,-6.0,17.0,-959.0,-187.0
12.0,-253.0,-61.0,-7.0,62.0,-8.0,21.0,-963.0,-186.0
13.0,-249.0,-64.0,-9.0,61.0,-8.0,16.0,-963.0,-189.0
12.0,-246.0,-68.0,-11.0,60.0,-8.0,20.0,-959.0,-192.0
13.0,-250.0,-65.0,-12.0,61.0,-7.0,19.0,-959.0,-187.0
12.0,-249.0,-64.0,-15.0,61.0,-9.0,20.0,-959.0,-186.0
12.0,-249.0,-65.0,-16.0,61.0,-9.0,19.0,-963.0,-185.0
12.0,-248.0,-63.0,-18.0,62.0,-10.0,22.0,-962.0,-188.0
11.0,-251.0,-64.0,-16.0,63.0,-9.0,21.0,-966.0,-189.0
14.0,-249.0,-62.0,-17.0,63.0,-10.0,21.0,-961.0,-185.0
13.0,-249.0,-62.0,-17.0,63.0,-9.0,21.0,-965.0,-187.0
13.0,-247.0,-68.0,-19.0,63.0,-10.0,18.0,-964.0,-189.0
14.0,-250.0,-62.0,-20.0,63.0,-10.0,18.0,-965.0,-187.0
12.0,-251.0,-61.0,-19.0,63.0,-12.0,19.0,-962.0,-186.0
13.0,-250.0,-65.0,-20.0,61.0,-10.0,21.0,-965.0,-190.0
11.0,-249.0,-62.0,-19.0,61.0,-11.0,22.0,-964.0,-190.0
12.0,-251.0,-66.0,-19.0,61.0,-10.0,21.0,-967.0,-192.0
14.0,-251.0,-68.0,-16.0,61.0,-11.0,15.0,-970.0,-190.0
13.0,-251.0,-63.0,-16.0,61.0,-8.0,19.0,-968.0,-187.0
12.0,-250.0,-63.0,-16.0,60.0,-8.0,21.0,-969.0,-193.0
14.0,-252.0,-64.0,-17.0,60.0,-6.0,21.0,-968.0,-187.0
14.0,-255.0,-65.0,-16.0,61.0,-8.0,22.0,-966.0,-186.0
14.0,-252.0,-66.0,-15.0,62.0,-6.0,21.0,-966.0,-185.0
12.0,-249.0,-63.0,-13.0,61.0,-8.0,22.0,-967.0,-193.0
12.0,-252.0,-64.0,-12.0,61.0,-6.0,23.0,-963.0,-191.0
13.0,-250.0,-64.0,-11.0,62.0,-8.0,23.0,-961.0,-192.0
13.0,-250.0,-63.0,-11.0,62.0,-5.0,20.0,-962.0,-192.0
13.0,-247.0,-65.0,-11.0,62.0,-6.0,22.0,-964.0,-190.0
13.0,-249.0,-63.0,-11.0,63.0,-4.0,21.0,-965.0,-185.0
12.0,-247.0,-65.0,-12.0,64.0,-7.0,18.0,-965.0,-188.0
11.0,-250.0,-64.0,-13.0,63.0,-6.0,20.0,-959.0,-185.0
11.0,-247.0,-66.0,-16.0,62.0,-8.0,19.0,-959.0,-192.0
13.0,-248.0,-62.0,-18.0,64.0,-5.0,20.0,-958.0,-183.0
12.0,-249.0,-60.0,-18.0,63.0,-7.0,17.0,-961.0,-184.0
10.0,-248.0,-65.0,-19.0,63.0,-6.0,22.0,-959.0,-192.0
11.0,-248.0,-65.0,-20.0,65.0,-8.0,16.0,-957.0,-187.0
12.0,-248.0,-63.0,-23.0,63.0,-5.0,17.0,-963.0,-188.0
16.0,-250.0,-60.0,-23.0,62.0,-9.0,18.0,-960.0,-191.0
10.0,-248.0,-63.0,-25.0,62.0,-6.0,21.0,-961.0,-184.0
12.0,-250.0,-63.0,-27.0,62.0,-8.0,20.0,-963.0,-187.0
14.0,-253.0,-62.0,-26.0,61.0,-6.0,19.0,-962.0,-189.0
14.0,-251.0,-65.0,-25.0,59.0,-6.0,21.0,-963.0,-189.0
12.0,-250.0,-67.0,-25.0,60.0,-4.0,18.0,-961.0,-184.0
15.0,-249.0,-70.0,-26.0,61.0,-5.0,20.0,-959.0,-187.0
11.0,-250.0,-65.0,-25.0,60.0,-3.0,21.0,-966.0,-186.0
16.0,-253.0,-65.0,-25.0,60.0,-6.0,23.0,-964.0,-187.0
11.0,-252.0,-65.0,-24.0,60.0,-4.0,25.0,-959.0,-187.0
14.0,-248.0,-66.0,-23.0,59.0,-7.0,23.0,-960.0,-187.0
14.0,-250.0,-65.0,-23.0,59.0,-5.0,21.0,-955.0,-185.0
13.0,-250.0,-62.0,-22.0,59.0,-7.0,22.0,-963.0,-187.0
13.0,-249.0,-63.0,-22.0,60.0,-6.0,18.0,-958.0,-187.0
15.0,-251.0,-62.0,-23.0,61.0,-9.0,22.0,-966.0,-187.0
13.0,-248.0,-65.0,-25.0,62.0,-7.0,21.0,-965.0,-185.0
15.0,-251.0,-64.0,-26.0,62.0,-10.0,21.0,-961.0,-193.0
11.0,-247.0,-60.0,-27.0,62.0,-7.0,16.0,-959.0,-187.0
14.0,-249.0,-61.0,-28.0,62.0,-9.0,19.0,-960.0,-184.0
11.0,-250.0,-65.0,-27.0,62.0,-8.0,18.0,-961.0,-186.0
14.0,-251.0,-64.0,-30.0,63.0,-10.0,22.0,-959.0,-187.0
13.0,-250.0,-62.0,-31.0,61.0,-7.0,18.0,-958.0,-184.0
14.0,-250.0,-63.0,-32.0,60.0,-11.0,15.0,-961.0,-186.0
14.0,-249.0,-67.0,-31.0,62.0,-10.0,22.0,-958.0,-189.0
12.0,-250.0,-66.0,-32.0,61.0,-11.0,25.0,-963.0,-191.0
15.0,-251.0,-69.0,-35.0,62.0,-9.0,24.0,-959.0,-186.0
12.0,-251.0,-62.0,-36.0,61.0,-10.0,21.0,-965.0,-195.0
14.0,-249.0,-64.0,-35.0,61.0,-7.0,16.0,-962.0,-188.0
13.0,-246.0,-63.0,-35.0,62.0,-9.0,23.0,-962.0,-185.0
15.0,-252.0,-67.0,-37.0,62.0,-7.0,22.0,-963.0,-191.0
13.0,-252.0,-64.0,-38.0,63.0,-9.0,23.0,-961.0,-187.0
14.0,-248.0,-66.0,-40.0,63.0,-6.0,22.0,-963.0,-190.0
14.0,-252.0,-68.0,-42.0,62.0,-7.0,21.0,-959.0,-188.0
14.0,-250.0,-67.0,-45.0,62.0,-6.0,22.0,-958.0,-187.0
13.0,-246.0,-61.0,-47.0,63.0,-9.0,19.0,-956.0,-187.0
12.0,-251.0,-66.0,-48.0,63.0,-7.0,22.0,-963.0,-187.0
12.0,-248.0,-64.0,-50.0,63.0,-10.0,21.0,-963.0,-187.0
10.0,-248.0,-64.0,-51.0,60.0,-7.0,19.0,-961.0,-189.0
11.0,-250.0,-65.0,-50.0,60.0,-11.0,24.0,-959.0,-189.0
15.0,-250.0,-67.0,-50.0,61.0,-9.0,22.0,-956.0,-188.0
13.0,-248.0,-68.0,-51.0,62.0,-11.0,20.0,-955.0,-191.0
16.0,-256.0,-54.0,-52.0,60.0,-8.0,22.0,-965.0,-187.0
28.0,-246.0,-68.0,-54.0,60.0,-10.0,21.0,-956.0,-195.0
17.0,-243.0,-75.0,-55.0,59.0,-7.0,21.0,-959.0,-194.0
9.0,-252.0,-69.0,-57.0,59.0,-10.0,26.0,-957.0,-194.0
15.0,-251.0,-68.0,-59.0,59.0,-7.0,23.0,-953.0,-193.0
13.0,-251.0,-64.0,-60.0,59.0,-9.0,23.0,-962.0,-188.0
14.0,-249.0,-64.0,-61.0,59.0,-7.0,23.0,-961.0,-197.0
12.0,-247.0,-65.0,-60.0,59.0,-11.0,23.0,-961.0,-196.0
15.0,-251.0,-66.0,-59.0,60.0,-7.0,20.0,-959.0,-199.0
14.0,-251.0,-65.0,-59.0,60.0,-10.0,24.0,-962.0,-203.0
16.0,-252.0,-62.0,-60.0,62.0,-6.0,24.0,-959.0,-199.0
13.0,-249.0,-67.0,-59.0,63.0,-8.0,24.0,-962.0,-197.0
15.0,-249.0,-67.0,-60.0,62.0,-8.0,17.0,-959.0,-195.0
13.0,-249.0,-67.0,-59.0,61.0,-10.0,21.0,-958.0,-195.0
16.0,-251.0,-64.0,-61.0,60.0,-8.0,27.0,-959.0,-195.0
12.0,-250.0,-65.0,-61.0,59.0,-9.0,21.0,-962.0,-197.0
14.0,-250.0,-67.0,-63.0,59.0,-7.0,22.0,-961.0,-195.0
14.0,-249.0,-65.0,-64.0,58.0,-9.0,19.0,-961.0,-197.0
13.0,-250.0,-72.0,-64.0,58.0,-7.0,26.0,-957.0,-204.0
13.0,-247.0,-64.0,-64.0,58.0,-9.0,19.0,-962.0,-199.0
12.0,-247.0,-66.0,-66.0,58.0,-7.0,19.0,-961.0,-201.0
14.0,-250.0,-64.0,-66.0,59.0,-9.0,19.0,-957.0,-198.0
13.0,-248.0,-68.0,-68.0,60.0,-7.0,27.0,-953.0,-195.0
10.0,-246.0,-67.0,-71.0,60.0,-9.0,22.0,-956.0,-205.0
13.0,-248.0,-66.0,-72.0,60.0,-7.0,22.0,-957.0,-200.0
15.0,-247.0,-68.0,-74.0,60.0,-10.0,22.0,-955.0,-203.0
12.0,-249.0,-69.0,-76.0,59.0,-9.0,25.0,-960.0,-201.0
13.0,-248.0,-68.0,-75.0,59.0,-12.0,20.0,-962.0,-205.0
14.0,-250.0,-68.0,-76.0,59.0,-10.0,20.0,-958.0,-205.0
14.0,-249.0,-66.0,-74.0,59.0,-12.0,21.0,-957.0,-208.0
14.0,-249.0,-69.0,-74.0,57.0,-12.0,21.0,-962.0,-204.0
16.0,-250.0,-66.0,-75.0,59.0,-12.0,22.0,-958.0,-204.0
11.0,-252.0,-70.0,-74.0,59.0,-10.0,20.0,-960.0,-208.0
20.0,-238.0,-81.0,-73.0,59.0,-13.0,20.0,-957.0,-202.0
11.0,-248.0,-72.0,-72.0,59.0,-12.0,20.0,-959.0,-204.0
11.0,-247.0,-67.0,-72.0,59.0,-14.0,19.0,-960.0,-206.0
13.0,-248.0,-68.0,-73.0,59.0,-12.0,22.0,-960.0,-209.0
11.0,-248.0,-69.0,-71.0,59.0,-12.0,19.0,-965.0,-205.0
13.0,-247.0,-71.0,-71.0,59.0,-11.0,26.0,-960.0,-203.0
14.0,-250.0,-70.0,-71.0,57.0,-13.0,24.0,-956.0,-208.0
13.0,-248.0,-69.0,-72.0,59.0,-12.0,23.0,-958.0,-206.0
13.0,-248.0,-65.0,-71.0,59.0,-15.0,30.0,-958.0,-207.0
12.0,-249.0,-68.0,-72.0,57.0,-13.0,32.0,-963.0,-207.0
13.0,-249.0,-67.0,-74.0,57.0,-14.0,30.0,-958.0,-209.0
15.0,-248.0,-66.0,-76.0,58.0,-13.0,22.0,-958.0,-211.0
15.0,-249.0,-65.0,-76.0,57.0,-14.0,22.0,-959.0,-210.0
16.0,-249.0,-70.0,-76.0,58.0,-12.0,24.0,-958.0,-208.0
17.0,-250.0,-65.0,-75.0,59.0,-14.0,23.0,-956.0,-205.0
13.0,-247.0,-69.0,-72.0,60.0,-11.0,21.0,-957.0,-211.0
12.0,-246.0,-69.0,-70.0,60.0,-11.0,21.0,-956.0,-210.0
13.0,-249.0,-70.0,-70.0,60.0,-10.0,24.0,-964.0,-208.0
14.0,-249.0,-72.0,-69.0,59.0,-11.0,22.0,-963.0,-211.0
17.0,-252.0,-69.0,-67.0,59.0,-8.0,23.0,-960.0,-213.0
14.0,-249.0,-70.0,-65.0,59.0,-9.0,23.0,-960.0,-210.0
13.0,-249.0,-66.0,-65.0,58.0,-6.0,15.0,-958.0,-213.0
14.0,-247.0,-72.0,-63.0,58.0,-8.0,21.0,-958.0,-209.0
14.0,-248.0,-72.0,-64.0,58.0,-6.0,18.0,-956.0,-207.0
11.0,-246.0,-67.0,-64.0,56.0,-7.0,22.0,-957.0,-209.0
14.0,-250.0,-68.0,-64.0,57.0,-7.0,21.0,-952.0,-210.0
17.0,-250.0,-69.0,-66.0,57.0,-8.0,22.0,-951.0,-210.0
12.0,-248.0,-69.0,-68.0,56.0,-10.0,24.0,-955.0,-213.0
13.0,-246.0,-72.0,-71.0,56.0,-10.0,24.0,-957.0,-211.0
12.0,-249.0,-72.0,-73.0,55.0,-11.0,24.0,-951.0,-210.0
16.0,-242.0,-72.0,-74.0,55.0,-13.0,22.0,-955.0,-205.0
15.0,-249.0,-69.0,-76.0,55.0,-11.0,25.0,-955.0,-211.0
14.0,-247.0,-71.0,-74.0,55.0,-10.0,27.0,-958.0,-215.0
14.0,-248.0,-67.0,-76.0,55.0,-9.0,23.0,-958.0,-210.0
12.0,-247.0,-69.0,-77.0,56.0,-10.0,25.0,-955.0,-214.0
12.0,-245.0,-73.0,-78.0,57.0,-9.0,21.0,-959.0,-209.0
14.0,-252.0,-74.0,-81.0,56.0,-9.0,21.0,-962.0,-215.0
17.0,-248.0,-75.0,-83.0,57.0,-9.0,22.0,-955.0,-220.0
13.0,-250.0,-72.0,-85.0,56.0,-12.0,21.0,-957.0,-220.0
14.0,-249.0,-74.0,-83.0,56.0,-11.0,25.0,-955.0,-221.0
12.0,-247.0,-74.0,-81.0,57.0,-11.0,22.0,-964.0,-220.0
13.0,-246.0,-73.0,-78.0,56.0,-8.0,22.0,-954.0,-220.0
14.0,-249.0,-78.0,-76.0,55.0,-8.0,23.0,-959.0,-220.0
15.0,-250.0,-70.0,-75.0,54.0,-5.0,24.0,-953.0,-221.0
14.0,-248.0,-69.0,-74.0,53.0,-5.0,22.0,-952.0,-220.0
12.0,-248.0,-70.0,-74.0,52.0,-4.0,25.0,-954.0,-219.0
16.0,-248.0,-73.0,-75.0,51.0,-6.0,26.0,-949.0,-219.0
13.0,-244.0,-74.0,-76.0,52.0,-9.0,26.0,-947.0,-218.0
14.0,-246.0,-73.0,-76.0,52.0,-10.0,27.0,-950.0,-220.0
14.0,-247.0,-72.0,-78.0,53.0,-10.0,21.0,-951.0,-217.0
14.0,-249.0,-72.0,-79.0,55.0,-14.0,28.0,-951.0,-221.0
15.0,-249.0,-74.0,-80.0,55.0,-15.0,22.0,-960.0,-223.0
15.0,-250.0,-73.0,-79.0,55.0,-14.0,27.0,-954.0,-221.0
12.0,-252.0,-74.0,-76.0,55.0,-13.0,26.0,-961.0,-220.0
14.0,-249.0,-72.0,-73.0,56.0,-11.0,25.0,-961.0,-224.0
13.0,-250.0,-71.0,-68.0,56.0,-10.0,30.0,-967.0,-222.0
13.0,-253.0,-72.0,-67.0,54.0,-8.0,22.0,-966.0,-220.0
12.0,-252.0,-72.0,-66.0,50.0,-7.0,19.0,-970.0,-221.0
13.0,-252.0,-67.0,-63.0,50.0,-4.0,20.0,-967.0,-222.0
16.0,-255.0,-74.0,-58.0,50.0,0.0,24.0,-973.0,-227.0
16.0,-252.0,-78.0,-55.0,50.0,0.0,31.0,-968.0,-234.0
14.0,-251.0,-73.0,-50.0,50.0,3.0,27.0,-966.0,-234.0
15.0,-249.0,-76.0,-47.0,51.0,3.0,27.0,-960.0,-238.0
13.0,-245.0,-76.0,-46.0,52.0,5.0,28.0,-954.0,-238.0
16.0,-249.0,-74.0,-44.0,53.0,3.0,23.0,-954.0,-238.0
14.0,-244.0,-78.0,-44.0,56.0,2.0,29.0,-946.0,-233.0
11.0,-242.0,-74.0,-46.0,57.0,1.0,25.0,-945.0,-236.0
14.0,-245.0,-75.0,-48.0,59.0,-4.0,26.0,-940.0,-234.0
14.0,-245.0,-74.0,-50.0,59.0,-7.0,22.0,-942.0,-231.0
13.0,-246.0,-76.0,-51.0,60.0,-9.0,21.0,-947.0,-227.0
13.0,-245.0,-73.0,-53.0,61.0,-10.0,22.0,-949.0,-228.0
13.0,-247.0,-75.0,-51.0,62.0,-10.0,22.0,-948.0,-232.0
14.0,-247.0,-76.0,-51.0,63.0,-10.0,20.0,-953.0,-225.0
14.0,-249.0,-78.0,-51.0,64.0,-10.0,21.0,-953.0,-221.0
13.0,-248.0,-76.0,-51.0,64.0,-8.0,24.0,-957.0,-224.0
16.0,-249.0,-71.0,-49.0,64.0,-6.0,24.0,-956.0,-224.0
14.0,-247.0,-73.0,-48.0,63.0,-4.0,30.0,-957.0,-227.0
16.0,-250.0,-73.0,-46.0,63.0,-5.0,33.0,-957.0,-229.0
13.0,-247.0,-78.0,-45.0,61.0,-4.0,33.0,-956.0,-234.0
14.0,-248.0,-75.0,-43.0,58.0,-2.0,30.0,-956.0,-228.0
16.0,-247.0,-74.0,-42.0,58.0,-1.0,32.0,-953.0,-235.0
15.0,-246.0,-77.0,-41.0,56.0,-1.0,33.0,-953.0,-227.0
15.0,-248.0,-76.0,-39.0,53.0,1.0,32.0,-949.0,-229.0
15.0,-247.0,-75.0,-37.0,53.0,0.0,34.0,-949.0,-230.0
16.0,-248.0,-76.0,-35.0,53.0,3.0,34.0,-951.0,-231.0
17.0,-245.0,-77.0,-33.0,55.0,3.0,31.0,-954.0,-234.0
17.0,-248.0,-71.0,-31.0,54.0,5.0,25.0,-952.0,-233.0
13.0,-249.0,-77.0,-28.0,55.0,5.0,28.0,-954.0,-235.0
15.0,-248.0,-79.0,-27.0,56.0,6.0,20.0,-955.0,-229.0
12.0,-247.0,-77.0,-23.0,57.0,6.0,26.0,-954.0,-236.0
13.0,-248.0,-72.0,-22.0,58.0,6.0,22.0,-953.0,-227.0
13.0,-248.0,-74.0,-22.0,59.0,4.0,21.0,-952.0,-235.0
12.0,-246.0,-75.0,-19.0,59.0,4.0,25.0,-946.0,-237.0
14.0,-249.0,-75.0,-17.0,59.0,4.0,21.0,-954.0,-241.0
13.0,-249.0,-78.0,-15.0,59.0,4.0,24.0,-955.0,-234.0
15.0,-250.0,-74.0,-15.0,60.0,3.0,24.0,-956.0,-233.0
13.0,-247.0,-75.0,-12.0,61.0,5.0,22.0,-952.0,-231.0
15.0,-247.0,-73.0,-12.0,61.0,5.0,28.0,-954.0,-236.0
18.0,-249.0,-74.0,-8.0,60.0,6.0,23.0,-953.0,-236.0
15.0,-249.0,-77.0,-6.0,61.0,6.0,25.0,-955.0,-239.0
15.0,-247.0,-74.0,-5.0,60.0,5.0,24.0,-958.0,-237.0
15.0,-246.0,-77.0,-4.0,62.0,5.0,23.0,-947.0,-239.0
13.0,-249.0,-77.0,-2.0,60.0,5.0,23.0,-952.0,-236.0
16.0,-249.0,-75.0,-2.0,61.0,4.0,25.0,-955.0,-229.0
15.0,-247.0,-74.0,-3.0,61.0,4.0,18.0,-951.0,-234.0
11.0,-245.0,-75.0,-8.0,61.0,1.0,20.0,-955.0,-228.0
15.0,-245.0,-75.0,-10.0,61.0,3.0,20.0,-951.0,-227.0
13.0,-246.0,-73.0,-12.0,61.0,-1.0,23.0,-947.0,-227.0
12.0,-247.0,-77.0,-15.0,61.0,-2.0,22.0,-948.0,-226.0
14.0,-247.0,-74.0,-14.0,60.0,-4.0,21.0,-953.0,-231.0
12.0,-246.0,-70.0,-14.0,61.0,-3.0,22.0,-958.0,-236.0
13.0,-252.0,-74.0,-13.0,60.0,-3.0,20.0,-959.0,-238.0
11.0,-248.0,-73.0,-11.0,62.0,-2.0,19.0,-954.0,-235.0
13.0,-247.0,-73.0,-10.0,60.0,-4.0,19.0,-958.0,-230.0
15.0,-250.0,-73.0,-9.0,61.0,0.0,22.0,-958.0,-240.0
15.0,-251.0,-76.0,-8.0,61.0,-1.0,23.0,-956.0,-233.0
17.0,-250.0,-75.0,-8.0,61.0,0.0,24.0,-949.0,-236.0
15.0,-250.0,-79.0,-8.0,62.0,-2.0,28.0,-954.0,-238.0
15.0,-248.0,-77.0,-7.0,64.0,-1.0,26.0,-952.0,-232.0
13.0,-247.0,-76.0,-10.0,63.0,-2.0,28.0,-956.0,-237.0
14.0,-245.0,-75.0,-10.0,64.0,0.0,24.0,-953.0,-226.0
10.0,-245.0,-74.0,-11.0,64.0,-2.0,27.0,-951.0,-225.0
13.0,-246.0,-75.0,-11.0,65.0,0.0,22.0,-953.0,-228.0
13.0,-245.0,-74.0,-12.0,63.0,-2.0,26.0,-951.0,-231.0
14.0,-246.0,-74.0,-12.0,62.0,0.0,29.0,-947.0,-231.0
13.0,-249.0,-71.0,-14.0,64.0,-2.0,26.0,-951.0,-228.0
12.0,-246.0,-74.0,-14.0,64.0,0.0,21.0,-951.0,-228.0
12.0,-246.0,-71.0,-14.0,65.0,-3.0,22.0,-952.0,-225.0
10.0,-249.0,-72.0,-15.0,65.0,-1.0,21.0,-954.0,-222.0
13.0,-247.0,-76.0,-15.0,64.0,-3.0,22.0,-954.0,-227.0
12.0,-245.0,-72.0,-16.0,65.0,0.0,21.0,-954.0,-224.0
11.0,-245.0,-72.0,-14.0,65.0,-3.0,22.0,-955.0,-226.0
11.0,-247.0,-71.0,-13.0,64.0,-1.0,21.0,-951.0,-224.0
14.0,-246.0,-71.0,-13.0,62.0,-3.0,23.0,-954.0,-229.0
12.0,-246.0,-77.0,-11.0,60.0,0.0,24.0,-955.0,-224.0
15.0,-245.0,-77.0,-11.0,61.0,-1.0,22.0,-953.0,-226.0
14.0,-247.0,-73.0,-11.0,61.0,1.0,23.0,-948.0,-226.0
13.0,-244.0,-72.0,-12.0,60.0,-1.0,19.0,-950.0,-226.0
14.0,-247.0,-74.0,-15.0,59.0,2.0,21.0,-955.0,-227.0
16.0,-248.0,-74.0,-16.0,61.0,0.0,21.0,-952.0,-222.0
12.0,-247.0,-72.0,-17.0,61.0,-1.0,21.0,-952.0,-223.0
13.0,-246.0,-76.0,-20.0,61.0,-2.0,24.0,-949.0,-223.0
11.0,-247.0,-71.0,-23.0,62.0,-1.0,20.0,-952.0,-224.0
14.0,-246.0,-76.0,-23.0,61.0,-5.0,21.0,-951.0,-226.0
13.0,-247.0,-74.0,-26.0,59.0,-4.0,21.0,-954.0,-226.0
9.0,-244.0,-74.0,-28.0,60.0,-8.0,14.0,-952.0,-228.0
14.0,-246.0,-74.0,-29.0,60.0,-6.0,17.0,-948.0,-226.0
13.0,-247.0,-76.0,-31.0,61.0,-10.0,19.0,-950.0,-226.0
14.0,-246.0,-72.0,-33.0,61.0,-8.0,20.0,-953.0,-227.0
11.0,-246.0,-77.0,-34.0,62.0,-10.0,19.0,-951.0,-226.0
7.0,-248.0,-74.0,-35.0,62.0,-10.0,20.0,-954.0,-234.0
11.0,-246.0,-73.0,-37.0,64.0,-11.0,22.0,-954.0,-229.0
14.0,-248.0,-72.0,-37.0,64.0,-8.0,22.0,-955.0,-232.0
12.0,-249.0,-73.0,-36.0,64.0,-9.0,20.0,-957.0,-230.0
12.0,-248.0,-71.0,-35.0,64.0,-5.0,25.0,-952.0,-234.0
13.0,-247.0,-75.0,-35.0,63.0,-8.0,23.0,-955.0,-239.0
15.0,-245.0,-80.0,-34.0,63.0,-5.0,22.0,-951.0,-236.0
15.0,-247.0,-71.0,-36.0,62.0,-8.0,21.0,-956.0,-232.0
19.0,-248.0,-73.0,-37.0,63.0,-8.0,24.0,-954.0,-232.0
13.0,-247.0,-74.0,-37.0,65.0,-11.0,28.0,-953.0,-232.0
15.0,-249.0,-74.0,-39.0,64.0,-10.0,31.0,-953.0,-235.0
15.0,-248.0,-78.0,-41.0,64.0,-11.0,28.0,-951.0,-227.0
15.0,-247.0,-72.0,-44.0,64.0,-9.0,26.0,-947.0,-234.0
16.0,-245.0,-74.0,-46.0,63.0,-13.0,27.0,-948.0,-233.0
15.0,-245.0,-75.0,-48.0,63.0,-10.0,32.0,-947.0,-230.0
12.0,-247.0,-73.0,-50.0,63.0,-13.0,28.0,-949.0,-239.0
12.0,-246.0,-73.0,-51.0,64.0,-12.0,24.0,-950.0,-238.0
15.0,-247.0,-78.0,-53.0,64.0,-13.0,22.0,-950.0,-236.0
12.0,-246.0,-76.0,-55.0,63.0,-13.0,27.0,-949.0,-235.0
16.0,-248.0,-75.0,-56.0,62.0,-16.0,22.0,-951.0,-234.0
15.0,-247.0,-76.0,-55.0,62.0,-13.0,23.0,-947.0,-231.0
15.0,-245.0,-78.0,-56.0,62.0,-15.0,19.0,-951.0,-234.0
14.0,-246.0,-78.0,-57.0,65.0,-15.0,21.0,-954.0,-234.0
15.0,-247.0,-78.0,-60.0,65.0,-19.0,25.0,-949.0,-238.0
15.0,-248.0,-73.0,-63.0,67.0,-18.0,23.0,-950.0,-237.0
13.0,-244.0,-75.0,-66.0,67.0,-21.0,25.0,-949.0,-241.0
13.0,-243.0,-79.0,-68.0,67.0,-19.0,24.0,-944.0,-238.0
13.0,-243.0,-78.0,-71.0,66.0,-24.0,24.0,-949.0,-237.0
14.0,-246.0,-71.0,-74.0,65.0,-23.0,27.0,-949.0,-233.0
15.0,-243.0,-78.0,-77.0,64.0,-26.0,27.0,-949.0,-232.0
15.0,-246.0,-75.0,-76.0,64.0,-23.0,24.0,-951.0,-239.0
14.0,-246.0,-73.0,-78.0,66.0,-25.0,22.0,-951.0,-239.0
12.0,-245.0,-74.0,-81.0,64.0,-23.0,25.0,-952.0,-238.0
14.0,-246.0,-77.0,-83.0,65.0,-24.0,26.0,-952.0,-239.0
13.0,-247.0,-75.0,-84.0,66.0,-22.0,22.0,-950.0,-235.0
12.0,-246.0,-76.0,-84.0,66.0,-24.0,22.0,-949.0,-236.0
12.0,-246.0,-78.0,-83.0,67.0,-20.0,25.0,-946.0,-242.0
15.0,-247.0,-76.0,-85.0,65.0,-22.0,23.0,-945.0,-240.0
12.0,-244.0,-74.0,-87.0,65.0,-19.0,23.0,-949.0,-233.0
13.0,-247.0,-83.0,-88.0,65.0,-21.0,22.0,-947.0,-240.0
13.0,-244.0,-76.0,-90.0,63.0,-16.0,20.0,-947.0,-236.0
14.0,-248.0,-72.0,-91.0,61.0,-18.0,19.0,-947.0,-235.0
11.0,-243.0,-78.0,-94.0,62.0,-16.0,18.0,-945.0,-240.0
15.0,-247.0,-76.0,-96.0,59.0,-17.0,21.0,-952.0,-239.0
15.0,-247.0,-76.0,-97.0,60.0,-16.0,25.0,-947.0,-244.0
13.0,-245.0,-79.0,-101.0,59.0,-20.0,25.0,-950.0,-238.0
13.0,-243.0,-79.0,-104.0,61.0,-19.0,25.0,-948.0,-242.0
13.0,-245.0,-76.0,-106.0,62.0,-23.0,26.0,-950.0,-239.0
15.0,-249.0,-79.0,-108.0,62.0,-21.0,27.0,-946.0,-239.0
14.0,-245.0,-74.0,-111.0,62.0,-25.0,33.0,-950.0,-243.0
17.0,-247.0,-76.0,-115.0,63.0,-24.0,29.0,-953.0,-241.0
17.0,-248.0,-77.0,-118.0,65.0,-25.0,33.0,-952.0,-245.0
15.0,-245.0,-78.0,-120.0,64.0,-24.0,28.0,-950.0,-246.0
18.0,-250.0,-79.0,-123.0,66.0,-28.0,23.0,-947.0,-247.0
15.0,-248.0,-77.0,-125.0,67.0,-27.0,28.0,-952.0,-239.0
12.0,-243.0,-76.0,-126.0,66.0,-29.0,26.0,-949.0,-246.0
13.0,-246.0,-79.0,-126.0,64.0,-27.0,28.0,-948.0,-247.0
14.0,-244.0,-78.0,-128.0,64.0,-30.0,24.0,-944.0,-247.0
14.0,-243.0,-82.0,-128.0,63.0,-29.0,30.0,-948.0,-254.0
14.0,-247.0,-78.0,-131.0,63.0,-31.0,29.0,-946.0,-247.0
15.0,-245.0,-82.0,-133.0,63.0,-29.0,27.0,-946.0,-251.0
17.0,-248.0,-82.0,-134.0,63.0,-31.0,25.0,-947.0,-254.0
15.0,-241.0,-80.0,-138.0,62.0,-28.0,30.0,-950.0,-253.0
15.0,-246.0,-82.0,-141.0,63.0,-30.0,30.0,-945.0,-255.0
14.0,-245.0,-79.0,-144.0,63.0,-27.0,34.0,-945.0,-255.0
14.0,-245.0,-84.0,-148.0,61.0,-29.0,36.0,-945.0,-258.0
18.0,-246.0,-82.0,-150.0,61.0,-25.0,33.0,-942.0,-253.0
14.0,-245.0,-82.0,-156.0,62.0,-28.0,25.0,-948.0,-255.0
14.0,-244.0,-85.0,-159.0,61.0,-26.0,34.0,-944.0,-259.0
14.0,-244.0,-79.0,-164.0,62.0,-28.0,29.0,-943.0,-257.0
14.0,-245.0,-78.0,-167.0,59.0,-27.0,31.0,-940.0,-261.0
16.0,-241.0,-79.0,-169.0,59.0,-29.0,35.0,-941.0,-263.0
16.0,-242.0,-82.0,-172.0,60.0,-27.0,36.0,-942.0,-260.0
16.0,-246.0,-87.0,-174.0,60.0,-27.0,33.0,-937.0,-257.0
15.0,-245.0,-81.0,-173.0,59.0,-26.0,35.0,-941.0,-260.0
13.0,-242.0,-84.0,-176.0,58.0,-27.0,33.0,-936.0,-259.0
17.0,-242.0,-80.0,-178.0,60.0,-24.0,35.0,-937.0,-265.0
14.0,-244.0,-87.0,-184.0,59.0,-27.0,31.0,-936.0,-265.0
13.0,-243.0,-83.0,-188.0,60.0,-25.0,26.0,-943.0,-264.0
13.0,-243.0,-82.0,-194.0,61.0,-29.0,28.0,-935.0,-269.0
15.0,-244.0,-84.0,-201.0,61.0,-28.0,29.0,-935.0,-268.0
15.0,-243.0,-87.0,-206.0,62.0,-33.0,31.0,-933.0,-272.0
14.0,-241.0,-87.0,-212.0,62.0,-32.0,32.0,-936.0,-272.0
13.0,-241.0,-83.0,-215.0,62.0,-34.0,36.0,-943.0,-269.0
15.0,-241.0,-85.0,-218.0,64.0,-34.0,41.0,-939.0,-273.0
14.0,-243.0,-87.0,-217.0,62.0,-35.0,31.0,-941.0,-272.0
15.0,-243.0,-81.0,-218.0,60.0,-33.0,38.0,-939.0,-278.0
18.0,-241.0,-85.0,-221.0,58.0,-34.0,38.0,-934.0,-273.0
18.0,-243.0,-87.0,-226.0,56.0,-32.0,33.0,-931.0,-274.0
19.0,-242.0,-90.0,-228.0,54.0,-35.0,37.0,-932.0,-276.0
12.0,-240.0,-89.0,-236.0,57.0,-34.0,35.0,-931.0,-273.0
18.0,-240.0,-85.0,-240.0,55.0,-37.0,40.0,-929.0,-277.0
16.0,-240.0,-90.0,-249.0,56.0,-38.0,40.0,-923.0,-276.0
14.0,-238.0,-88.0,-254.0,55.0,-40.0,39.0,-930.0,-283.0
19.0,-238.0,-89.0,-263.0,55.0,-40.0,37.0,-927.0,-284.0
16.0,-242.0,-88.0,-268.0,55.0,-44.0,41.0,-927.0,-285.0
16.0,-241.0,-87.0,-272.0,56.0,-42.0,35.0,-925.0,-283.0
17.0,-241.0,-93.0,-279.0,56.0,-45.0,36.0,-932.0,-288.0
15.0,-241.0,-89.0,-281.0,54.0,-42.0,39.0,-934.0,-292.0
12.0,-241.0,-91.0,-282.0,52.0,-41.0,41.0,-939.0,-291.0
15.0,-239.0,-89.0,-283.0,52.0,-41.0,40.0,-942.0,-293.0
20.0,-243.0,-95.0,-283.0,51.0,-39.0,38.0,-942.0,-289.0
18.0,-247.0,-92.0,-280.0,50.0,-35.0,43.0,-950.0,-298.0
18.0,-247.0,-90.0,-276.0,49.0,-33.0,43.0,-948.0,-299.0
16.0,-245.0,-95.0,-272.0,48.0,-29.0,43.0,-950.0,-307.0
17.0,-245.0,-97.0,-268.0,48.0,-29.0,47.0,-949.0,-323.0
19.0,-243.0,-94.0,-266.0,48.0,-27.0,49.0,-944.0,-320.0
18.0,-244.0,-102.0,-266.0,47.0,-27.0,44.0,-935.0,-320.0
20.0,-239.0,-98.0,-271.0,49.0,-26.0,50.0,-929.0,-322.0
15.0,-245.0,-101.0,-277.0,50.0,-31.0,42.0,-954.0,-328.0
21.0,-238.0,-97.0,-286.0,51.0,-37.0,54.0,-910.0,-315.0
18.0,-237.0,-100.0,-286.0,48.0,-34.0,49.0,-911.0,-320.0
16.0,-233.0,-99.0,-293.0,49.0,-34.0,48.0,-908.0,-323.0
17.0,-237.0,-93.0,-302.0,50.0,-36.0,35.0,-907.0,-313.0
18.0,-236.0,-94.0,-308.0,51.0,-38.0,41.0,-908.0,-319.0
20.0,-237.0,-94.0,-320.0,52.0,-40.0,48.0,-909.0,-312.0
15.0,-234.0,-97.0,-335.0,55.0,-43.0,38.0,-907.0,-317.0
14.0,-232.0,-97.0,-344.0,57.0,-46.0,40.0,-914.0,-316.0
18.0,-238.0,-97.0,-353.0,57.0,-49.0,41.0,-912.0,-317.0
17.0,-235.0,-99.0,-364.0,56.0,-53.0,43.0,-916.0,-317.0
23.0,-232.0,-98.0,-371.0,54.0,-55.0,36.0,-911.0,-322.0
15.0,-234.0,-97.0,-378.0,54.0,-58.0,44.0,-910.0,-323.0
17.0,-235.0,-99.0,-386.0,52.0,-58.0,41.0,-911.0,-319.0
20.0,-234.0,-99.0,-393.0,50.0,-62.0,48.0,-910.0,-329.0
20.0,-235.0,-105.0,-401.0,49.0,-64.0,49.0,-910.0,-328.0
19.0,-237.0,-103.0,-409.0,47.0,-66.0,49.0,-910.0,-334.0
21.0,-234.0,-101.0,-423.0,43.0,-67.0,53.0,-908.0,-337.0
19.0,-234.0,-106.0,-437.0,44.0,-69.0,57.0,-908.0,-338.0
20.0,-235.0,-105.0,-448.0,41.0,-69.0,56.0,-907.0,-345.0
17.0,-234.0,-106.0,-461.0,41.0,-72.0,54.0,-906.0,-345.0
20.0,-234.0,-104.0,-471.0,42.0,-73.0,49.0,-904.0,-346.0
21.0,-233.0,-107.0,-480.0,38.0,-74.0,52.0,-902.0,-356.0
25.0,-252.0,-111.0,-490.0,40.0,-76.0,61.0,-966.0,-392.0
24.0,-230.0,-107.0,-516.0,47.0,-96.0,70.0,-888.0,-358.0
19.0,-231.0,-112.0,-520.0,46.0,-85.0,54.0,-901.0,-367.0
15.0,-229.0,-107.0,-525.0,45.0,-80.0,46.0,-906.0,-370.0
17.0,-235.0,-108.0,-533.0,47.0,-82.0,47.0,-905.0,-369.0
18.0,-232.0,-107.0,-536.0,48.0,-84.0,44.0,-904.0,-374.0
19.0,-232.0,-110.0,-545.0,50.0,-85.0,46.0,-905.0,-374.0
16.0,-231.0,-111.0,-549.0,53.0,-87.0,35.0,-899.0,-382.0
16.0,-235.0,-111.0,-553.0,54.0,-88.0,40.0,-907.0,-375.0
17.0,-236.0,-112.0,-553.0,55.0,-89.0,36.0,-907.0,-381.0
14.0,-231.0,-112.0,-556.0,56.0,-90.0,39.0,-904.0,-383.0
16.0,-229.0,-115.0,-562.0,57.0,-85.0,51.0,-901.0,-384.0
13.0,-227.0,-115.0,-569.0,53.0,-86.0,34.0,-892.0,-386.0
14.0,-230.0,-114.0,-573.0,50.0,-88.0,32.0,-895.0,-387.0
14.0,-227.0,-114.0,-574.0,50.0,-88.0,35.0,-890.0,-390.0
15.0,-229.0,-115.0,-580.0,49.0,-88.0,33.0,-888.0,-391.0
14.0,-221.0,-114.0,-599.0,49.0,-105.0,30.0,-864.0,-379.0
14.0,-225.0,-113.0,-606.0,47.0,-95.0,33.0,-883.0,-395.0
15.0,-225.0,-118.0,-619.0,45.0,-93.0,28.0,-881.0,-397.0
14.0,-229.0,-120.0,-632.0,43.0,-94.0,32.0,-880.0,-398.0
16.0,-227.0,-119.0,-646.0,43.0,-99.0,35.0,-883.0,-403.0
13.0,-223.0,-121.0,-659.0,42.0,-103.0,35.0,-877.0,-405.0
14.0,-223.0,-120.0,-675.0,44.0,-110.0,37.0,-876.0,-414.0
17.0,-224.0,-123.0,-695.0,43.0,-113.0,41.0,-875.0,-415.0
15.0,-224.0,-120.0,-707.0,40.0,-120.0,36.0,-871.0,-414.0
19.0,-224.0,-125.0,-719.0,33.0,-127.0,44.0,-863.0,-427.0
18.0,-222.0,-126.0,-733.0,32.0,-132.0,43.0,-873.0,-433.0
18.0,-224.0,-125.0,-751.0,34.0,-136.0,41.0,-868.0,-435.0
13.0,-218.0,-127.0,-773.0,35.0,-152.0,28.0,-856.0,-430.0
20.0,-219.0,-127.0,-789.0,37.0,-152.0,54.0,-869.0,-444.0
19.0,-220.0,-130.0,-807.0,33.0,-134.0,54.0,-860.0,-446.0
15.0,-221.0,-131.0,-817.0,32.0,-146.0,43.0,-862.0,-455.0
21.0,-224.0,-130.0,-830.0,37.0,-159.0,51.0,-867.0,-462.0
17.0,-218.0,-130.0,-843.0,43.0,-168.0,57.0,-863.0,-459.0
22.0,-220.0,-139.0,-853.0,47.0,-174.0,62.0,-863.0,-468.0
24.0,-217.0,-135.0,-862.0,52.0,-180.0,60.0,-851.0,-465.0
11.0,-226.0,-148.0,-875.0,54.0,-185.0,88.0,-906.0,-500.0
23.0,-212.0,-133.0,-894.0,60.0,-191.0,70.0,-829.0,-476.0
21.0,-215.0,-137.0,-899.0,53.0,-187.0,56.0,-841.0,-493.0
18.0,-215.0,-139.0,-911.0,53.0,-186.0,51.0,-839.0,-490.0
19.0,-212.0,-139.0,-924.0,54.0,-190.0,57.0,-836.0,-501.0
21.0,-216.0,-142.0,-938.0,56.0,-191.0,46.0,-837.0,-501.0
19.0,-213.0,-140.0,-948.0,53.0,-191.0,45.0,-831.0,-500.0
17.0,-214.0,-143.0,-958.0,47.0,-191.0,49.0,-838.0,-504.0
11.0,-212.0,-138.0,-980.0,52.0,-212.0,16.0,-819.0,-500.0
24.0,-220.0,-141.0,-992.0,49.0,-200.0,44.0,-876.0,-512.0
14.0,-211.0,-143.0,-1004.0,33.0,-190.0,20.0,-830.0,-515.0
19.0,-212.0,-148.0,-1007.0,40.0,-204.0,45.0,-832.0,-527.0
16.0,-208.0,-144.0,-1016.0,39.0,-215.0,45.0,-828.0,-522.0
20.0,-210.0,-148.0,-1022.0,36.0,-223.0,49.0,-830.0,-528.0
14.0,-194.0,-153.0,-1037.0,35.0,-242.0,16.0,-804.0,-529.0
18.0,-202.0,-147.0,-1055.0,36.0,-243.0,59.0,-806.0,-535.0
18.0,-202.0,-151.0,-1060.0,26.0,-244.0,54.0,-806.0,-538.0
20.0,-206.0,-152.0,-1072.0,26.0,-251.0,60.0,-800.0,-553.0
34.0,-223.0,-156.0,-1084.0,25.0,-258.0,105.0,-881.0,-555.0
27.0,-191.0,-156.0,-1119.0,33.0,-291.0,69.0,-741.0,-533.0
20.0,-198.0,-157.0,-1134.0,26.0,-276.0,60.0,-788.0,-558.0
25.0,-201.0,-160.0,-1141.0,15.0,-271.0,72.0,-792.0,-577.0
33.0,-202.0,-159.0,-1142.0,23.0,-273.0,107.0,-815.0,-577.0
21.0,-193.0,-163.0,-1159.0,28.0,-287.0,49.0,-758.0,-573.0
28.0,-196.0,-171.0,-1162.0,26.0,-296.0,74.0,-779.0,-597.0
26.0,-196.0,-171.0,-1170.0,25.0,-303.0,78.0,-786.0,-622.0
29.0,-239.0,-179.0,-1177.0,31.0,-319.0,55.0,-813.0,-632.0
28.0,-191.0,-166.0,-1206.0,31.0,-339.0,78.0,-719.0,-602.0
23.0,-198.0,-173.0,-1194.0,14.0,-321.0,68.0,-780.0,-645.0
27.0,-201.0,-179.0,-1186.0,11.0,-314.0,79.0,-787.0,-652.0
25.0,-201.0,-186.0,-1181.0,9.0,-322.0,58.0,-810.0,-671.0
23.0,-195.0,-183.0,-1183.0,5.0,-328.0,93.0,-770.0,-651.0
27.0,-195.0,-182.0,-1175.0,-7.0,-328.0,79.0,-758.0,-655.0
26.0,-192.0,-185.0,-1158.0,-22.0,-322.0,80.0,-744.0,-677.0
27.0,-188.0,-187.0,-1141.0,-37.0,-321.0,78.0,-728.0,-663.0
29.0,-189.0,-186.0,-1121.0,-55.0,-308.0,89.0,-741.0,-687.0
29.0,-189.0,-191.0,-1100.0,-73.0,-301.0,95.0,-743.0,-692.0
24.0,-189.0,-191.0,-1068.0,-93.0,-290.0,87.0,-770.0,-717.0
39.0,-175.0,-175.0,-1069.0,-95.0,-307.0,118.0,-677.0,-668.0
36.0,-178.0,-188.0,-1030.0,-108.0,-273.0,110.0,-702.0,-700.0
40.0,-177.0,-190.0,-1000.0,-109.0,-260.0,115.0,-695.0,-688.0
42.0,-174.0,-186.0,-987.0,-98.0,-251.0,137.0,-689.0,-686.0
37.0,-169.0,-179.0,-984.0,-83.0,-254.0,122.0,-669.0,-662.0
43.0,-173.0,-187.0,-989.0,-76.0,-246.0,120.0,-669.0,-678.0
53.0,-172.0,-185.0,-996.0,-62.0,-239.0,169.0,-676.0,-670.0
51.0,-167.0,-178.0,-1025.0,-41.0,-225.0,170.0,-677.0,-651.0
49.0,-171.0,-181.0,-1062.0,-14.0,-243.0,166.0,-669.0,-663.0
39.0,-171.0,-181.0,-1096.0,0.0,-243.0,118.0,-674.0,-657.0
36.0,-171.0,-189.0,-1105.0,19.0,-248.0,124.0,-698.0,-703.0
41.0,-174.0,-195.0,-1130.0,44.0,-257.0,123.0,-682.0,-705.0
34.0,-165.0,-177.0,-1160.0,72.0,-276.0,111.0,-650.0,-636.0
33.0,-168.0,-184.0,-1170.0,81.0,-265.0,100.0,-660.0,-675.0
25.0,-177.0,-183.0,-1200.0,98.0,-272.0,78.0,-684.0,-674.0
25.0,-172.0,-182.0,-1210.0,109.0,-277.0,76.0,-675.0,-666.0
28.0,-178.0,-191.0,-1222.0,120.0,-286.0,79.0,-681.0,-693.0
29.0,-171.0,-182.0,-1236.0,133.0,-291.0,96.0,-671.0,-645.0
20.0,-169.0,-196.0,-1248.0,121.0,-299.0,55.0,-664.0,-703.0
15.0,-168.0,-187.0,-1241.0,122.0,-324.0,32.0,-658.0,-670.0
24.0,-163.0,-188.0,-1224.0,108.0,-328.0,65.0,-650.0,-695.0
6.0,-167.0,-186.0,-1237.0,97.0,-343.0,-18.0,-615.0,-699.0
16.0,-166.0,-190.0,-1252.0,64.0,-336.0,51.0,-646.0,-691.0
21.0,-163.0,-191.0,-1258.0,38.0,-333.0,56.0,-647.0,-717.0
19.0,-170.0,-196.0,-1264.0,16.0,-342.0,47.0,-655.0,-722.0
22.0,-164.0,-192.0,-1273.0,-3.0,-339.0,66.0,-668.0,-731.0
21.0,-168.0,-200.0,-1285.0,-36.0,-337.0,48.0,-646.0,-725.0
26.0,-159.0,-202.0,-1283.0,-50.0,-348.0,93.0,-652.0,-765.0
22.0,-160.0,-202.0,-1277.0,-65.0,-364.0,73.0,-638.0,-740.0
34.0,-166.0,-197.0,-1271.0,-73.0,-370.0,97.0,-639.0,-744.0
38.0,-160.0,-205.0,-1271.0,-65.0,-388.0,121.0,-637.0,-751.0
24.0,-128.0,-170.0,-1303.0,-49.0,-434.0,85.0,-493.0,-656.0
40.0,-167.0,-209.0,-1307.0,-61.0,-409.0,104.0,-673.0,-761.0
36.0,-144.0,-201.0,-1329.0,-51.0,-376.0,101.0,-561.0,-749.0
44.0,-147.0,-203.0,-1315.0,-50.0,-397.0,145.0,-581.0,-750.0
47.0,-146.0,-203.0,-1310.0,-49.0,-407.0,156.0,-585.0,-759.0
46.0,-144.0,-206.0,-1314.0,-44.0,-422.0,155.0,-573.0,-762.0
46.0,-139.0,-212.0,-1333.0,-46.0,-435.0,166.0,-567.0,-775.0
50.0,-144.0,-215.0,-1349.0,-52.0,-452.0,165.0,-570.0,-786.0
60.0,-137.0,-209.0,-1382.0,-53.0,-436.0,227.0,-560.0,-776.0
54.0,-135.0,-212.0,-1403.0,-47.0,-482.0,174.0,-510.0,-799.0
55.0,-139.0,-219.0,-1396.0,-65.0,-484.0,197.0,-540.0,-837.0
59.0,-139.0,-221.0,-1376.0,-67.0,-497.0,204.0,-550.0,-838.0
56.0,-136.0,-223.0,-1364.0,-65.0,-508.0,208.0,-539.0,-845.0
55.0,-144.0,-228.0,-1357.0,-65.0,-525.0,218.0,-573.0,-839.0
55.0,-132.0,-221.0,-1360.0,-67.0,-527.0,192.0,-517.0,-822.0
55.0,-131.0,-217.0,-1353.0,-73.0,-554.0,207.0,-523.0,-815.0
56.0,-141.0,-232.0,-1351.0,-84.0,-569.0,210.0,-599.0,-866.0
72.0,-126.0,-210.0,-1364.0,-90.0,-620.0,247.0,-472.0,-789.0
55.0,-129.0,-219.0,-1351.0,-116.0,-598.0,210.0,-511.0,-810.0
57.0,-127.0,-214.0,-1330.0,-138.0,-603.0,204.0,-501.0,-815.0
74.0,-137.0,-210.0,-1320.0,-157.0,-591.0,264.0,-551.0,-809.0
52.0,-118.0,-219.0,-1306.0,-177.0,-600.0,197.0,-470.0,-819.0
59.0,-119.0,-219.0,-1281.0,-199.0,-617.0,205.0,-482.0,-842.0
59.0,-124.0,-225.0,-1248.0,-218.0,-630.0,216.0,-487.0,-847.0
62.0,-124.0,-225.0,-1215.0,-239.0,-631.0,217.0,-478.0,-855.0
60.0,-121.0,-230.0,-1180.0,-252.0,-634.0,213.0,-475.0,-870.0
61.0,-117.0,-233.0,-1138.0,-265.0,-630.0,216.0,-462.0,-875.0
76.0,-118.0,-232.0,-1103.0,-279.0,-596.0,251.0,-428.0,-875.0
61.0,-113.0,-234.0,-1048.0,-290.0,-600.0,231.0,-440.0,-888.0
57.0,-112.0,-237.0,-988.0,-299.0,-600.0,216.0,-443.0,-893.0
65.0,-112.0,-239.0,-932.0,-303.0,-587.0,232.0,-446.0,-895.0
65.0,-113.0,-240.0,-885.0,-296.0,-571.0,234.0,-438.0,-896.0
66.0,-106.0,-237.0,-834.0,-288.0,-555.0,228.0,-417.0,-890.0
63.0,-95.0,-236.0,-781.0,-275.0,-543.0,233.0,-392.0,-888.0
58.0,-98.0,-239.0,-733.0,-264.0,-522.0,220.0,-397.0,-885.0
64.0,-94.0,-239.0,-691.0,-261.0,-506.0,224.0,-375.0,-906.0
60.0,-99.0,-242.0,-658.0,-271.0,-480.0,214.0,-378.0,-899.0
60.0,-96.0,-242.0,-631.0,-285.0,-454.0,212.0,-383.0,-909.0
55.0,-97.0,-241.0,-606.0,-304.0,-423.0,210.0,-395.0,-904.0
58.0,-105.0,-238.0,-584.0,-326.0,-395.0,201.0,-410.0,-898.0
57.0,-104.0,-235.0,-561.0,-348.0,-364.0,204.0,-416.0,-896.0
59.0,-100.0,-238.0,-542.0,-362.0,-338.0,207.0,-407.0,-893.0
56.0,-95.0,-242.0,-521.0,-373.0,-307.0,199.0,-390.0,-897.0
53.0,-91.0,-243.0,-501.0,-378.0,-286.0,195.0,-366.0,-910.0
51.0,-87.0,-248.0,-473.0,-373.0,-266.0,175.0,-352.0,-926.0
45.0,-84.0,-254.0,-441.0,-358.0,-257.0,158.0,-351.0,-947.0
38.0,-87.0,-256.0,-407.0,-337.0,-252.0,126.0,-346.0,-964.0
35.0,-87.0,-259.0,-369.0,-309.0,-261.0,114.0,-349.0,-984.0
31.0,-89.0,-263.0,-323.0,-288.0,-272.0,109.0,-336.0,-1004.0
30.0,-85.0,-262.0,-283.0,-272.0,-295.0,98.0,-329.0,-999.0
32.0,-79.0,-262.0,-237.0,-257.0,-314.0,104.0,-320.0,-1012.0
32.0,-75.0,-262.0,-195.0,-248.0,-337.0,115.0,-301.0,-1011.0
38.0,-73.0,-268.0,-161.0,-244.0,-356.0,136.0,-300.0,-1016.0
46.0,-74.0,-273.0,-131.0,-246.0,-375.0,156.0,-303.0,-1036.0
52.0,-72.0,-274.0,-99.0,-251.0,-386.0,179.0,-294.0,-1044.0
52.0,-69.0,-280.0,-65.0,-256.0,-391.0,194.0,-287.0,-1049.0
54.0,-67.0,-275.0,-33.0,-267.0,-390.0,198.0,-274.0,-1052.0
55.0,-64.0,-280.0,-3.0,-280.0,-390.0,195.0,-268.0,-1053.0
48.0,-63.0,-274.0,29.0,-285.0,-385.0,179.0,-243.0,-1050.0
48.0,-54.0,-272.0,45.0,-292.0,-381.0,166.0,-227.0,-1046.0
44.0,-50.0,-274.0,59.0,-300.0,-372.0,167.0,-211.0,-1039.0
44.0,-49.0,-269.0,63.0,-310.0,-370.0,154.0,-202.0,-1037.0
39.0,-46.0,-273.0,66.0,-319.0,-360.0,126.0,-195.0,-1035.0
36.0,-46.0,-267.0,69.0,-334.0,-357.0,123.0,-206.0,-1032.0
32.0,-44.0,-268.0,65.0,-343.0,-350.0,109.0,-188.0,-1016.0
29.0,-43.0,-273.0,45.0,-353.0,-349.0,96.0,-188.0,-1016.0
21.0,-40.0,-271.0,29.0,-367.0,-345.0,83.0,-179.0,-1024.0
26.0,-40.0,-269.0,21.0,-386.0,-341.0,93.0,-167.0,-1030.0
29.0,-37.0,-274.0,5.0,-398.0,-335.0,90.0,-156.0,-1020.0
27.0,-34.0,-265.0,-27.0,-394.0,-342.0,100.0,-164.0,-1007.0
27.0,-37.0,-267.0,-57.0,-390.0,-350.0,86.0,-162.0,-1030.0
22.0,-32.0,-269.0,-83.0,-382.0,-359.0,91.0,-161.0,-1019.0
27.0,-32.0,-262.0,-115.0,-379.0,-361.0,96.0,-153.0,-1015.0
37.0,-37.0,-263.0,-152.0,-373.0,-365.0,120.0,-157.0,-995.0
32.0,-34.0,-260.0,-172.0,-366.0,-368.0,97.0,-161.0,-993.0
34.0,-34.0,-260.0,-185.0,-359.0,-373.0,102.0,-144.0,-973.0
24.0,-32.0,-258.0,-199.0,-353.0,-371.0,82.0,-149.0,-973.0
23.0,-32.0,-250.0,-214.0,-342.0,-378.0,86.0,-142.0,-965.0
24.0,-32.0,-257.0,-228.0,-334.0,-379.0,82.0,-145.0,-961.0
26.0,-35.0,-251.0,-245.0,-322.0,-384.0,81.0,-147.0,-948.0
27.0,-37.0,-250.0,-256.0,-312.0,-384.0,86.0,-159.0,-948.0
25.0,-38.0,-253.0,-260.0,-306.0,-388.0,79.0,-164.0,-936.0
22.0,-36.0,-247.0,-270.0,-303.0,-389.0,74.0,-163.0,-929.0
23.0,-36.0,-246.0,-283.0,-307.0,-393.0,77.0,-153.0,-926.0
20.0,-35.0,-248.0,-297.0,-317.0,-393.0,73.0,-149.0,-929.0
19.0,-33.0,-249.0,-312.0,-326.0,-395.0,67.0,-151.0,-926.0
19.0,-35.0,-247.0,-322.0,-339.0,-393.0,66.0,-144.0,-926.0
18.0,-34.0,-245.0,-336.0,-353.0,-394.0,59.0,-150.0,-931.0
17.0,-36.0,-247.0,-349.0,-364.0,-393.0,54.0,-151.0,-932.0
19.0,-35.0,-249.0,-360.0,-375.0,-394.0,58.0,-162.0,-936.0
21.0,-34.0,-251.0,-377.0,-381.0,-395.0,60.0,-163.0,-945.0
24.0,-37.0,-249.0,-387.0,-389.0,-398.0,72.0,-156.0,-940.0
23.0,-37.0,-249.0,-401.0,-397.0,-396.0,74.0,-157.0,-944.0
26.0,-35.0,-253.0,-422.0,-403.0,-398.0,84.0,-156.0,-944.0
29.0,-34.0,-251.0,-447.0,-408.0,-396.0,95.0,-150.0,-949.0
26.0,-33.0,-252.0,-470.0,-413.0,-392.0,85.0,-150.0,-965.0
25.0,-35.0,-254.0,-489.0,-416.0,-382.0,81.0,-148.0,-968.0
25.0,-32.0,-258.0,-512.0,-416.0,-380.0,79.0,-155.0,-976.0
24.0,-31.0,-261.0,-534.0,-414.0,-373.0,80.0,-145.0,-986.0
20.0,-32.0,-260.0,-560.0,-416.0,-371.0,76.0,-151.0,-1003.0
24.0,-35.0,-265.0,-591.0,-419.0,-372.0,81.0,-156.0,-1010.0
24.0,-39.0,-267.0,-617.0,-426.0,-371.0,79.0,-166.0,-1016.0
22.0,-43.0,-269.0,-641.0,-433.0,-369.0,70.0,-171.0,-1025.0
19.0,-42.0,-271.0,-662.0,-442.0,-369.0,56.0,-170.0,-1035.0
15.0,-38.0,-273.0,-684.0,-452.0,-370.0,44.0,-173.0,-1045.0
13.0,-40.0,-278.0,-709.0,-465.0,-373.0,43.0,-175.0,-1060.0
15.0,-38.0,-283.0,-731.0,-475.0,-379.0,39.0,-171.0,-1076.0
18.0,-41.0,-288.0,-758.0,-489.0,-386.0,46.0,-167.0,-1089.0
20.0,-38.0,-288.0,-788.0,-500.0,-392.0,55.0,-172.0,-1104.0
20.0,-40.0,-293.0,-819.0,-509.0,-397.0,59.0,-174.0,-1113.0
22.0,-39.0,-297.0,-848.0,-517.0,-401.0,70.0,-172.0,-1126.0
21.0,-36.0,-298.0,-873.0,-523.0,-405.0,76.0,-177.0,-1130.0
23.0,-43.0,-301.0,-898.0,-528.0,-406.0,76.0,-176.0,-1133.0
25.0,-41.0,-301.0,-922.0,-530.0,-410.0,75.0,-178.0,-1142.0
20.0,-41.0,-302.0,-944.0,-531.0,-412.0,64.0,-180.0,-1148.0
22.0,-45.0,-304.0,-967.0,-534.0,-413.0,65.0,-179.0,-1151.0
20.0,-44.0,-300.0,-992.0,-540.0,-417.0,61.0,-190.0,-1155.0
20.0,-43.0,-305.0,-1020.0,-544.0,-422.0,62.0,-191.0,-1147.0
21.0,-45.0,-302.0,-1044.0,-549.0,-426.0,58.0,-190.0,-1152.0
17.0,-44.0,-303.0,-1066.0,-552.0,-431.0,53.0,-191.0,-1150.0
13.0,-46.0,-305.0,-1084.0,-554.0,-436.0,45.0,-198.0,-1152.0
11.0,-47.0,-303.0,-1106.0,-557.0,-441.0,32.0,-194.0,-1158.0
8.0,-47.0,-300.0,-1128.0,-563.0,-447.0,28.0,-199.0,-1153.0
8.0,-50.0,-303.0,-1149.0,-567.0,-454.0,13.0,-198.0,-1154.0
5.0,-46.0,-304.0,-1172.0,-572.0,-459.0,12.0,-210.0,-1152.0
8.0,-48.0,-303.0,-1195.0,-581.0,-466.0,12.0,-211.0,-1146.0
8.0,-50.0,-297.0,-1215.0,-591.0,-472.0,21.0,-209.0,-1140.0
10.0,-49.0,-302.0,-1235.0,-601.0,-477.0,13.0,-203.0,-1138.0
9.0,-47.0,-300.0,-1253.0,-614.0,-479.0,14.0,-201.0,-1135.0
5.0,-43.0,-297.0,-1273.0,-625.0,-483.0,18.0,-190.0,-1128.0
8.0,-46.0,-295.0,-1293.0,-640.0,-485.0,19.0,-188.0,-1121.0
10.0,-44.0,-291.0,-1315.0,-652.0,-488.0,34.0,-187.0,-1114.0
13.0,-42.0,-294.0,-1340.0,-660.0,-488.0,32.0,-187.0,-1109.0
10.0,-43.0,-288.0,-1364.0,-666.0,-489.0,28.0,-178.0,-1097.0
12.0,-41.0,-286.0,-1390.0,-672.0,-493.0,24.0,-171.0,-1094.0
9.0,-37.0,-281.0,-1412.0,-675.0,-492.0,21.0,-166.0,-1081.0
5.0,-37.0,-280.0,-1442.0,-679.0,-496.0,15.0,-164.0,-1067.0
8.0,-36.0,-289.0,-1472.0,-684.0,-500.0,14.0,-164.0,-1049.0
2.0,-30.0,-270.0,-1502.0,-690.0,-502.0,0.0,-150.0,-1038.0
5.0,-32.0,-270.0,-1531.0,-700.0,-505.0,5.0,-131.0,-1030.0
-2.0,-31.0,-266.0,-1560.0,-711.0,-509.0,-10.0,-139.0,-1015.0
0.0,-32.0,-262.0,-1589.0,-724.0,-513.0,-7.0,-143.0,-1004.0
1.0,-32.0,-261.0,-1619.0,-736.0,-516.0,-14.0,-140.0,-994.0
-1.0,-32.0,-257.0,-1648.0,-749.0,-516.0,-15.0,-145.0,-986.0
0.0,-32.0,-258.0,-1671.0,-763.0,-517.0,-12.0,-144.0,-971.0
-2.0,-30.0,-252.0,-1688.0,-773.0,-515.0,-13.0,-139.0,-960.0
-5.0,-28.0,-253.0,-1707.0,-785.0,-516.0,-26.0,-127.0,-940.0
-1.0,-30.0,-249.0,-1735.0,-794.0,-516.0,-12.0,-125.0,-936.0
-3.0,-26.0,-246.0,-1759.0,-800.0,-516.0,-9.0,-127.0,-926.0
4.0,-30.0,-247.0,-1782.0,-804.0,-517.0,-2.0,-135.0,-918.0
2.0,-33.0,-243.0,-1798.0,-810.0,-521.0,-5.0,-138.0,-909.0
2.0,-35.0,-239.0,-1812.0,-813.0,-528.0,-13.0,-139.0,-892.0
1.0,-32.0,-235.0,-1821.0,-811.0,-540.0,-2.0,-143.0,-875.0
2.0,-30.0,-229.0,-1839.0,-810.0,-550.0,-3.0,-130.0,-864.0
0.0,-28.0,-228.0,-1852.0,-811.0,-561.0,-11.0,-124.0,-855.0
4.0,-27.0,-229.0,-1862.0,-812.0,-567.0,0.0,-110.0,-845.0
1.0,-18.0,-223.0,-1862.0,-821.0,-572.0,-1.0,-92.0,-846.0
3.0,-19.0,-223.0,-1863.0,-835.0,-571.0,4.0,-89.0,-836.0
0.0,-16.0,-220.0,-1858.0,-855.0,-564.0,0.0,-87.0,-825.0
5.0,-24.0,-224.0,-1853.0,-887.0,-556.0,9.0,-101.0,-819.0
-4.0,-23.0,-221.0,-1846.0,-920.0,-558.0,-5.0,-101.0,-807.0
4.0,-24.0,-211.0,-1849.0,-956.0,-558.0,-6.0,-104.0,-789.0
-1.0,-23.0,-208.0,-1844.0,-988.0,-563.0,-12.0,-95.0,-774.0
-4.0,-19.0,-202.0,-1832.0,-1031.0,-561.0,-20.0,-75.0,-747.0
-7.0,-20.0,-195.0,-1816.0,-1083.0,-549.0,-26.0,-87.0,-713.0
-8.0,-22.0,-191.0,-1799.0,-1137.0,-543.0,-35.0,-96.0,-710.0
-7.0,-19.0,-187.0,-1784.0,-1201.0,-547.0,-22.0,-79.0,-681.0
-9.0,-13.0,-187.0,-1777.0,-1263.0,-543.0,-38.0,-68.0,-673.0
-7.0,-4.0,-184.0,-1773.0,-1326.0,-527.0,-33.0,-44.0,-660.0
-12.0,-3.0,-178.0,-1764.0,-1389.0,-508.0,-59.0,-28.0,-652.0
-12.0,-1.0,-181.0,-1751.0,-1449.0,-493.0,-57.0,-15.0,-649.0
-12.0,-1.0,-179.0,-1744.0,-1502.0,-480.0,-60.0,1.0,-646.0
-13.0,9.0,-176.0,-1739.0,-1564.0,-460.0,-62.0,28.0,-633.0
-12.0,20.0,-171.0,-1753.0,-1640.0,-431.0,-52.0,52.0,-630.0
-13.0,25.0,-173.0,-1784.0,-1713.0,-402.0,-58.0,73.0,-623.0
-13.0,30.0,-175.0,-1831.0,-1771.0,-382.0,-62.0,87.0,-627.0
-11.0,27.0,-178.0,-1877.0,-1824.0,-360.0,-44.0,91.0,-623.0
-8.0,26.0,-172.0,-1898.0,-1850.0,-346.0,-44.0,98.0,-619.0
-8.0,27.0,-173.0,-1900.0,-1873.0,-328.0,-40.0,109.0,-629.0
-13.0,38.0,-178.0,-1891.0,-1876.0,-303.0,-52.0,139.0,-640.0
-13.0,47.0,-180.0,-1893.0,-1864.0,-289.0,-66.0,184.0,-655.0
-20.0,58.0,-181.0,-1900.0,-1852.0,-272.0,-96.0,199.0,-651.0
-30.0,70.0,-181.0,-1925.0,-1839.0,-257.0,-119.0,245.0,-653.0
-27.0,71.0,-185.0,-1968.0,-1818.0,-240.0,-137.0,251.0,-675.0
-34.0,71.0,-185.0,-2030.0,-1776.0,-213.0,-147.0,254.0,-702.0
-34.0,73.0,-197.0,-2109.0,-1728.0,-178.0,-149.0,261.0,-724.0
-41.0,79.0,-210.0,-2173.0,-1639.0,-120.0,-173.0,287.0,-764.0
-38.0,89.0,-220.0,-2244.0,-1547.0,-76.0,-188.0,319.0,-794.0
-34.0,100.0,-224.0,-2286.0,-1420.0,-35.0,-189.0,354.0,-821.0
-44.0,113.0,-222.0,-2319.0,-1274.0,15.0,-190.0,400.0,-840.0
-40.0,125.0,-228.0,-2364.0,-1113.0,72.0,-168.0,442.0,-847.0
-35.0,136.0,-223.0,-2430.0,-944.0,128.0,-168.0,483.0,-838.0
-27.0,133.0,-224.0,-2518.0,-763.0,184.0,-115.0,485.0,-843.0
-16.0,128.0,-224.0,-2575.0,-589.0,220.0,-93.0,490.0,-843.0
-12.0,134.0,-233.0,-2604.0,-449.0,225.0,-87.0,527.0,-857.0
-29.0,128.0,-225.0,-2572.0,-322.0,237.0,-120.0,468.0,-831.0
-23.0,123.0,-215.0,-2600.0,-246.0,134.0,-106.0,433.0,-791.0
-11.0,110.0,-204.0,-2652.0,-227.0,38.0,-52.0,401.0,-762.0
2.0,95.0,-190.0,-2699.0,-253.0,-53.0,22.0,354.0,-721.0
14.0,82.0,-180.0,-2737.0,-338.0,-155.0,63.0,322.0,-668.0
9.0,82.0,-167.0,-2712.0,-472.0,-267.0,55.0,331.0,-625.0
6.0,82.0,-157.0,-2636.0,-652.0,-377.0,39.0,312.0,-577.0
19.0,89.0,-138.0,-2560.0,-829.0,-489.0,66.0,340.0,-489.0
15.0,97.0,-130.0,-2470.0,-995.0,-577.0,91.0,369.0,-440.0
41.0,95.0,-108.0,-2357.0,-1158.0,-661.0,177.0,378.0,-372.0
26.0,98.0,-98.0,-2217.0,-1319.0,-746.0,93.0,404.0,-326.0
-20.0,100.0,-79.0,-1999.0,-1476.0,-787.0,-13.0,396.0,-231.0
-11.0,107.0,-62.0,-1807.0,-1605.0,-838.0,-35.0,420.0,-144.0
-9.0,93.0,-25.0,-1599.0,-1686.0,-925.0,-27.0,392.0,-23.0
-44.0,102.0,6.0,-1381.0,-1720.0,-1047.0,-162.0,403.0,83.0
-43.0,91.0,18.0,-1143.0,-1747.0,-1181.0,-165.0,402.0,132.0
-81.0,96.0,27.0,-893.0,-1798.0,-1355.0,-321.0,424.0,161.0
-96.0,94.0,36.0,-614.0,-1859.0,-1548.0,-348.0,413.0,188.0
-146.0,91.0,33.0,-308.0,-1907.0,-1804.0,-514.0,422.0,194.0
-157.0,88.0,9.0,38.0,-1961.0,-2089.0,-591.0,401.0,132.0
-205.0,81.0,0.0,415.0,-2009.0,-2426.0,-784.0,341.0,50.0
-246.0,50.0,-9.0,885.0,-2028.0,-2821.0,-929.0,255.0,0.0
-296.0,51.0,-44.0,1313.0,-1998.0,-3250.0,-1143.0,266.0,-105.0
-351.0,41.0,-73.0,1725.0,-1937.0,-3668.0,-1431.0,261.0,-216.0
-406.0,5.0,-97.0,2127.0,-1790.0,-4052.0,-1576.0,149.0,-307.0
-443.0,-19.0,-136.0,2602.0,-1554.0,-4415.0,-1763.0,48.0,-426.0
-509.0,-52.0,-136.0,3162.0,-1206.0,-4741.0,-2009.0,-110.0,-502.0
-555.0,-98.0,-171.0,3761.0,-832.0,-4969.0,-2183.0,-309.0,-597.0
-551.0,-118.0,-165.0,4170.0,-499.0,-5222.0,-2158.0,-420.0,-573.0
-521.0,-95.0,-111.0,4313.0,-236.0,-5431.0,-2054.0,-341.0,-385.0
-496.0,-52.0,-62.0,4312.0,-110.0,-5561.0,-1893.0,-207.0,-193.0
-433.0,20.0,0.0,4237.0,-74.0,-5649.0,-1667.0,44.0,1.0
-427.0,144.0,97.0,4200.0,-160.0,-5750.0,-1544.0,440.0,387.0
-460.0,335.0,210.0,4151.0,-404.0,-5806.0,-1820.0,1063.0,876.0
-563.0,474.0,222.0,3926.0,-842.0,-5756.0,-2066.0,1906.0,964.0
-587.0,656.0,251.0,3463.0,-1354.0,-5621.0,-2155.0,2514.0,1038.0
-576.0,822.0,193.0,2664.0,-1921.0,-5522.0,-2075.0,3038.0,818.0
-463.0,935.0,86.0,1470.0,-2422.0,-5437.0,-1675.0,3400.0,415.0
-302.0,863.0,45.0,47.0,-2769.0,-5191.0,-1100.0,3172.0,248.0
-195.0,623.0,9.0,-1231.0,-3096.0,-4774.0,-703.0,2359.0,116.0
-119.0,333.0,-27.0,-2140.0,-3428.0,-4180.0,-447.0,1367.0,-20.0
33.0,-16.0,-80.0,-2735.0,-3759.0,-3790.0,22.0,144.0,-151.0
76.0,-187.0,-145.0,-3008.0,-3873.0,-3727.0,235.0,-770.0,-492.0
-97.0,-280.0,-95.0,-3110.0,-3769.0,-3639.0,-382.0,-1030.0,-325.0
-388.0,-249.0,4.0,-2660.0,-3713.0,-3135.0,-1445.0,-870.0,123.0
-586.0,-166.0,-46.0,-1849.0,-3715.0,-2496.0,-2208.0,-579.0,-104.0
-868.0,-103.0,2.0,-1033.0,-3592.0,-1790.0,-3368.0,-297.0,70.0
-1249.0,-22.0,76.0,-450.0,-3814.0,-1228.0,-4647.0,-31.0,319.0
-1482.0,105.0,22.0,-250.0,-4607.0,-735.0,-5579.0,443.0,168.0
-1636.0,263.0,-52.0,-166.0,-5447.0,-214.0,-6319.0,1229.0,-176.0
-1712.0,420.0,-72.0,25.0,-6191.0,554.0,-6531.0,1798.0,-195.0
-1411.0,383.0,19.0,600.0,-6307.0,1232.0,-5451.0,1666.0,182.0
-891.0,251.0,121.0,1272.0,-5932.0,1576.0,-3493.0,1090.0,537.0
-593.0,181.0,205.0,1638.0,-5610.0,1512.0,-2422.0,773.0,873.0
-323.0,84.0,251.0,1753.0,-5229.0,1479.0,-1498.0,408.0,1117.0
-118.0,-19.0,237.0,1774.0,-4656.0,1506.0,-731.0,-19.0,1053.0
21.0,-116.0,238.0,1637.0,-3852.0,1517.0,-195.0,-385.0,1074.0
109.0,-180.0,235.0,1397.0,-2901.0,1517.0,255.0,-710.0,1058.0
189.0,-237.0,188.0,1167.0,-1942.0,1482.0,564.0,-930.0,813.0
239.0,-193.0,112.0,942.0,-1128.0,1371.0,852.0,-756.0,523.0
265.0,-153.0,80.0,702.0,-416.0,1169.0,955.0,-585.0,396.0
213.0,-127.0,52.0,639.0,27.0,921.0,761.0,-460.0,296.0
78.0,-100.0,39.0,743.0,391.0,660.0,306.0,-320.0,206.0
-38.0,-48.0,23.0,905.0,702.0,442.0,-155.0,-197.0,175.0
-135.0,-22.0,37.0,1091.0,901.0,279.0,-570.0,-18.0,219.0
-230.0,32.0,62.0,1333.0,960.0,192.0,-917.0,165.0,244.0
-285.0,82.0,52.0,1576.0,918.0,219.0,-1133.0,312.0,244.0
-334.0,106.0,42.0,1754.0,792.0,300.0,-1278.0,413.0,238.0
-366.0,117.0,58.0,1818.0,602.0,419.0,-1372.0,448.0,274.0
-355.0,108.0,77.0,1777.0,353.0,521.0,-1349.0,425.0,348.0
-355.0,102.0,77.0,1646.0,10.0,535.0,-1356.0,388.0,353.0
-330.0,86.0,81.0,1366.0,-284.0,492.0,-1281.0,336.0,381.0
-299.0,60.0,82.0,1113.0,-552.0,408.0,-1126.0,215.0,380.0
-286.0,39.0,83.0,882.0,-767.0,267.0,-1083.0,121.0,383.0
-268.0,-6.0,81.0,705.0,-939.0,118.0,-1021.0,-20.0,396.0
-269.0,-33.0,100.0,600.0,-1084.0,-48.0,-1038.0,-104.0,461.0
-198.0,-53.0,82.0,576.0,-1210.0,-196.0,-784.0,-182.0,406.0
-137.0,-58.0,60.0,538.0,-1252.0,-409.0,-568.0,-223.0,311.0
-102.0,-54.0,68.0,424.0,-1215.0,-644.0,-434.0,-212.0,326.0
-97.0,-50.0,77.0,289.0,-1160.0,-841.0,-396.0,-183.0,377.0
-103.0,-42.0,77.0,211.0,-1102.0,-968.0,-415.0,-157.0,377.0
-120.0,-30.0,82.0,183.0,-1049.0,-1004.0,-484.0,-106.0,396.0
-145.0,-13.0,94.0,199.0,-1001.0,-972.0,-573.0,-58.0,431.0
-162.0,-4.0,97.0,215.0,-948.0,-900.0,-633.0,-23.0,448.0
-196.0,0.0,110.0,217.0,-891.0,-800.0,-745.0,17.0,492.0
-214.0,1.0,108.0,206.0,-845.0,-690.0,-855.0,12.0,500.0
-241.0,-1.0,111.0,189.0,-783.0,-590.0,-942.0,6.0,498.0
-260.0,-5.0,108.0,164.0,-722.0,-508.0,-1040.0,-16.0,505.0
-269.0,-14.0,110.0,144.0,-669.0,-437.0,-1085.0,-38.0,495.0
-278.0,-23.0,107.0,126.0,-596.0,-394.0,-1107.0,-70.0,488.0
-281.0,-31.0,103.0,121.0,-484.0,-338.0,-1130.0,-90.0,487.0
-287.0,-32.0,99.0,151.0,-397.0,-308.0,-1153.0,-104.0,473.0
-269.0,-30.0,98.0,169.0,-296.0,-294.0,-1094.0,-96.0,469.0
-260.0,-19.0,99.0,191.0,-172.0,-289.0,-1040.0,-55.0,466.0
-256.0,-12.0,101.0,214.0,-55.0,-270.0,-1018.0,-27.0,466.0
-258.0,-2.0,94.0,223.0,52.0,-246.0,-1011.0,14.0,453.0
-249.0,11.0,91.0,211.0,160.0,-214.0,-1000.0,57.0,433.0
-249.0,23.0,88.0,188.0,262.0,-179.0,-985.0,87.0,411.0
-242.0,24.0,87.0,168.0,357.0,-135.0,-954.0,101.0,406.0
-233.0,17.0,79.0,163.0,443.0,-95.0,-934.0,89.0,389.0
-226.0,17.0,74.0,164.0,521.0,-54.0,-915.0,81.0,374.0
-226.0,17.0,75.0,159.0,572.0,-35.0,-887.0,65.0,362.0
-208.0,-3.0,70.0,176.0,611.0,10.0,-834.0,0.0,333.0
-210.0,-6.0,64.0,158.0,633.0,14.0,-840.0,-24.0,317.0
-208.0,-14.0,61.0,120.0,643.0,17.0,-823.0,-47.0,309.0
-202.0,-21.0,55.0,92.0,647.0,14.0,-792.0,-70.0,280.0
-200.0,-27.0,54.0,67.0,661.0,13.0,-784.0,-106.0,280.0
-202.0,-39.0,54.0,43.0,679.0,12.0,-787.0,-129.0,274.0
-206.0,-39.0,50.0,24.0,698.0,24.0,-807.0,-144.0,269.0
-206.0,-44.0,52.0,16.0,713.0,38.0,-823.0,-154.0,257.0
-210.0,-40.0,47.0,13.0,731.0,57.0,-842.0,-144.0,248.0
-216.0,-32.0,47.0,4.0,755.0,62.0,-871.0,-126.0,247.0
-222.0,-31.0,45.0,-13.0,780.0,75.0,-890.0,-104.0,240.0
-230.0,-24.0,47.0,-34.0,805.0,90.0,-902.0,-95.0,235.0
-233.0,-21.0,38.0,-59.0,825.0,107.0,-922.0,-70.0,212.0
-240.0,-15.0,29.0,-82.0,843.0,116.0,-935.0,-48.0,182.0
-242.0,-13.0,22.0,-102.0,856.0,125.0,-956.0,-41.0,160.0
-247.0,-13.0,21.0,-114.0,864.0,132.0,-963.0,-37.0,153.0
-243.0,-7.0,15.0,-115.0,862.0,148.0,-951.0,-29.0,124.0
-257.0,-2.0,16.0,-122.0,860.0,150.0,-989.0,-3.0,136.0
-256.0,-4.0,17.0,-143.0,824.0,151.0,-1002.0,-2.0,141.0
-251.0,0.0,18.0,-167.0,814.0,152.0,-980.0,14.0,138.0
-250.0,-4.0,18.0,-176.0,809.0,162.0,-974.0,-1.0,140.0
-247.0,-1.0,15.0,-177.0,813.0,165.0,-968.0,8.0,141.0
-248.0,-3.0,14.0,-179.0,820.0,173.0,-970.0,10.0,134.0
-251.0,0.0,14.0,-180.0,832.0,177.0,-981.0,11.0,135.0
-249.0,-1.0,14.0,-178.0,843.0,187.0,-972.0,17.0,135.0
-249.0,-1.0,17.0,-173.0,861.0,199.0,-982.0,13.0,130.0
-249.0,-2.0,12.0,-163.0,883.0,212.0,-980.0,10.0,123.0
-255.0,5.0,11.0,-147.0,907.0,226.0,-986.0,21.0,121.0
-253.0,5.0,11.0,-121.0,934.0,242.0,-988.0,46.0,116.0
-253.0,13.0,9.0,-100.0,955.0,252.0,-995.0,66.0,102.0
-261.0,19.0,8.0,-83.0,975.0,263.0,-1006.0,85.0,95.0
-259.0,24.0,6.0,-72.0,986.0,270.0,-1005.0,105.0,84.0
-257.0,32.0,1.0,-65.0,1000.0,283.0,-1001.0,128.0,76.0
-259.0,34.0,3.0,-57.0,1012.0,294.0,-1010.0,144.0,71.0
-259.0,37.0,-4.0,-48.0,1015.0,312.0,-1005.0,149.0,61.0
-260.0,33.0,-1.0,-53.0,1021.0,315.0,-1006.0,145.0,62.0
-260.0,34.0,-4.0,-66.0,1028.0,312.0,-1007.0,142.0,59.0
-260.0,29.0,-5.0,-77.0,1041.0,315.0,-1018.0,132.0,45.0
-262.0,28.0,-7.0,-87.0,1049.0,323.0,-1036.0,129.0,33.0
-266.0,28.0,-11.0,-96.0,1052.0,322.0,-1028.0,119.0,24.0
-256.0,20.0,-20.0,-98.0,1059.0,322.0,-1012.0,105.0,-11.0
-259.0,22.0,-20.0,-104.0,1073.0,310.0,-1015.0,95.0,-26.0
-264.0,17.0,-18.0,-110.0,1083.0,301.0,-1036.0,94.0,-29.0
-259.0,20.0,-27.0,-109.0,1087.0,292.0,-1028.0,93.0,-42.0
-262.0,21.0,-34.0,-106.0,1093.0,284.0,-1026.0,91.0,-46.0
-259.0,24.0,-37.0,-100.0,1094.0,267.0,-1016.0,96.0,-71.0
-265.0,26.0,-35.0,-103.0,1097.0,249.0,-1024.0,105.0,-69.0
-264.0,29.0,-38.0,-100.0,1092.0,232.0,-1037.0,131.0,-81.0
-263.0,33.0,-40.0,-96.0,1083.0,220.0,-1037.0,141.0,-98.0
-265.0,36.0,-44.0,-98.0,1080.0,202.0,-1042.0,160.0,-103.0
-266.0,40.0,-47.0,-103.0,1075.0,194.0,-1037.0,163.0,-115.0
-269.0,43.0,-50.0,-108.0,1067.0,179.0,-1054.0,172.0,-127.0
-268.0,40.0,-56.0,-111.0,1054.0,170.0,-1052.0,173.0,-141.0
-269.0,43.0,-55.0,-109.0,1043.0,155.0,-1052.0,168.0,-156.0
-271.0,41.0,-58.0,-109.0,1029.0,141.0,-1061.0,178.0,-171.0
-273.0,43.0,-60.0,-121.0,1011.0,130.0,-1076.0,179.0,-177.0
-273.0,39.0,-64.0,-124.0,986.0,130.0,-1070.0,172.0,-187.0
-272.0,40.0,-67.0,-125.0,950.0,120.0,-1068.0,164.0,-189.0
-279.0,35.0,-64.0,-124.0,918.0,116.0,-1088.0,149.0,-190.0
-282.0,34.0,-61.0,-123.0,884.0,110.0,-1094.0,141.0,-183.0
-273.0,35.0,-74.0,-123.0,848.0,103.0,-1066.0,152.0,-226.0
-273.0,41.0,-73.0,-139.0,829.0,87.0,-1070.0,163.0,-226.0
-279.0,41.0,-75.0,-157.0,810.0,80.0,-1091.0,165.0,-226.0
-278.0,39.0,-77.0,-170.0,788.0,72.0,-1088.0,158.0,-242.0
-280.0,40.0,-77.0,-179.0,767.0,64.0,-1100.0,160.0,-236.0
-277.0,38.0,-80.0,-178.0,746.0,59.0,-1096.0,161.0,-252.0
-272.0,38.0,-80.0,-176.0,721.0,59.0,-1072.0,158.0,-255.0
-270.0,37.0,-79.0,-171.0,697.0,52.0,-1070.0,159.0,-258.0
-274.0,34.0,-74.0,-166.0,671.0,60.0,-1088.0,143.0,-245.0
-269.0,31.0,-79.0,-152.0,640.0,64.0,-1054.0,138.0,-256.0
-269.0,27.0,-81.0,-137.0,617.0,67.0,-1053.0,134.0,-255.0
-266.0,30.0,-82.0,-122.0,584.0,71.0,-1046.0,132.0,-259.0
-264.0,31.0,-83.0,-107.0,557.0,71.0,-1033.0,134.0,-277.0
-268.0,30.0,-85.0,-93.0,532.0,69.0,-1046.0,134.0,-270.0
-268.0,36.0,-84.0,-79.0,499.0,70.0,-1049.0,142.0,-270.0
-264.0,38.0,-84.0,-70.0,459.0,70.0,-1028.0,145.0,-273.0
-263.0,36.0,-81.0,-70.0,424.0,67.0,-1016.0,152.0,-269.0
-261.0,36.0,-77.0,-65.0,372.0,65.0,-1005.0,149.0,-254.0
-263.0,33.0,-79.0,-60.0,326.0,65.0,-1046.0,145.0,-261.0
-260.0,28.0,-81.0,-54.0,303.0,64.0,-1003.0,133.0,-259.0
-259.0,32.0,-79.0,-49.0,281.0,58.0,-1005.0,125.0,-258.0
-261.0,30.0,-80.0,-46.0,253.0,56.0,-1003.0,129.0,-250.0
-259.0,28.0,-77.0,-41.0,224.0,54.0,-1008.0,122.0,-256.0
-262.0,33.0,-82.0,-40.0,191.0,49.0,-998.0,126.0,-255.0
-263.0,31.0,-82.0,-37.0,163.0,50.0,-1014.0,124.0,-270.0
-261.0,29.0,-82.0,-37.0,146.0,52.0,-1017.0,123.0,-267.0
-262.0,28.0,-84.0,-36.0,123.0,52.0,-1008.0,113.0,-267.0
-257.0,28.0,-80.0,-36.0,93.0,49.0,-989.0,111.0,-259.0
-263.0,27.0,-80.0,-31.0,56.0,47.0,-1030.0,123.0,-254.0
-258.0,25.0,-79.0,-29.0,29.0,45.0,-1010.0,116.0,-266.0
-261.0,28.0,-85.0,-25.0,10.0,39.0,-1016.0,117.0,-258.0
-256.0,26.0,-75.0,-20.0,-6.0,36.0,-1005.0,108.0,-246.0
-260.0,26.0,-77.0,-14.0,-30.0,29.0,-1018.0,107.0,-239.0
-263.0,26.0,-77.0,-12.0,-53.0,24.0,-1014.0,104.0,-229.0
-263.0,23.0,-74.0,-11.0,-73.0,12.0,-1035.0,105.0,-227.0
-262.0,25.0,-76.0,-15.0,-90.0,0.0,-1026.0,105.0,-237.0
-263.0,24.0,-72.0,-21.0,-101.0,-11.0,-1028.0,103.0,-217.0
-266.0,26.0,-71.0,-24.0,-126.0,-20.0,-1023.0,106.0,-227.0
-265.0,25.0,-68.0,-33.0,-143.0,-33.0,-1052.0,103.0,-213.0
-267.0,23.0,-68.0,-36.0,-152.0,-42.0,-1047.0,99.0,-212.0
-268.0,28.0,-62.0,-42.0,-154.0,-52.0,-1079.0,168.0,-190.0
-260.0,15.0,-66.0,-26.0,-159.0,-36.0,-1007.0,57.0,-221.0
-260.0,15.0,-66.0,-33.0,-164.0,-57.0,-1034.0,81.0,-205.0
-262.0,12.0,-69.0,-38.0,-173.0,-63.0,-1019.0,65.0,-203.0
-262.0,10.0,-66.0,-33.0,-182.0,-67.0,-1033.0,62.0,-201.0
-263.0,10.0,-71.0,-27.0,-188.0,-70.0,-1044.0,61.0,-210.0
-264.0,13.0,-71.0,-11.0,-193.0,-74.0,-1036.0,59.0,-210.0
-266.0,15.0,-63.0,2.0,-193.0,-82.0,-1043.0,55.0,-199.0
-262.0,10.0,-63.0,5.0,-199.0,-82.0,-1034.0,61.0,-188.0
-264.0,14.0,-59.0,5.0,-199.0,-89.0,-1029.0,67.0,-178.0
-267.0,19.0,-60.0,3.0,-202.0,-92.0,-1035.0,74.0,-169.0
-257.0,16.0,-54.0,0.0,-206.0,-83.0,-1006.0,73.0,-162.0
-259.0,18.0,-55.0,-5.0,-201.0,-87.0,-1013.0,78.0,-154.0
-259.0,15.0,-54.0,-8.0,-199.0,-87.0,-1018.0,77.0,-150.0
-257.0,19.0,-57.0,-9.0,-197.0,-86.0,-1011.0,76.0,-149.0
-262.0,21.0,-53.0,-8.0,-196.0,-84.0,-1012.0,84.0,-149.0
-258.0,23.0,-56.0,-10.0,-196.0,-75.0,-1010.0,101.0,-152.0
-258.0,17.0,-53.0,-21.0,-194.0,-72.0,-1014.0,86.0,-142.0
-257.0,16.0,-52.0,-23.0,-193.0,-72.0,-1008.0,85.0,-141.0
-259.0,15.0,-56.0,-27.0,-192.0,-72.0,-1010.0,75.0,-139.0
-260.0,16.0,-50.0,-26.0,-192.0,-70.0,-1004.0,75.0,-139.0
-256.0,16.0,-54.0,-27.0,-192.0,-66.0,-1005.0,80.0,-139.0
-257.0,18.0,-52.0,-29.0,-192.0,-68.0,-1004.0,80.0,-137.0
-256.0,15.0,-50.0,-30.0,-195.0,-65.0,-1005.0,75.0,-137.0
-255.0,14.0,-53.0,-29.0,-197.0,-64.0,-1003.0,71.0,-128.0
-256.0,14.0,-47.0,-27.0,-194.0,-62.0,-1004.0,66.0,-117.0
-256.0,12.0,-43.0,-22.0,-190.0,-63.0,-999.0,68.0,-119.0
-257.0,17.0,-45.0,-17.0,-187.0,-63.0,-994.0,79.0,-119.0
-255.0,17.0,-49.0,-17.0,-183.0,-65.0,-1000.0,84.0,-114.0
-258.0,21.0,-45.0,-16.0,-179.0,-64.0,-1002.0,90.0,-119.0
-257.0,23.0,-50.0,-16.0,-175.0,-67.0,-1001.0,87.0,-113.0
-255.0,22.0,-48.0,-17.0,-170.0,-64.0,-1001.0,95.0,-111.0
-256.0,23.0,-47.0,-20.0,-167.0,-62.0,-1001.0,97.0,-105.0
-257.0,19.0,-45.0,-19.0,-165.0,-57.0,-995.0,93.0,-107.0
-254.0,21.0,-42.0,-20.0,-163.0,-55.0,-996.0,91.0,-104.0
-255.0,22.0,-44.0,-18.0,-162.0,-51.0,-997.0,92.0,-96.0
-255.0,21.0,-40.0,-14.0,-158.0,-48.0,-992.0,96.0,-94.0
-253.0,23.0,-43.0,-11.0,-153.0,-44.0,-989.0,98.0,-88.0
-254.0,22.0,-39.0,-9.0,-147.0,-41.0,-983.0,92.0,-83.0
-252.0,24.0,-36.0,-4.0,-138.0,-39.0,-985.0,100.0,-78.0
-254.0,24.0,-34.0,-3.0,-130.0,-35.0,-996.0,100.0,-68.0
-253.0,21.0,-38.0,-5.0,-116.0,-31.0,-990.0,102.0,-61.0
-254.0,21.0,-32.0,-7.0,-103.0,-31.0,-997.0,104.0,-61.0
-248.0,27.0,-34.0,-14.0,-86.0,-28.0,-1000.0,107.0,-62.0
-253.0,22.0,-34.0,-20.0,-69.0,-30.0,-1002.0,103.0,-65.0
-257.0,22.0,-36.0,-22.0,-51.0,-26.0,-1004.0,103.0,-64.0
-256.0,21.0,-34.0,-27.0,-39.0,-24.0,-995.0,99.0,-65.0
-252.0,20.0,-37.0,-30.0,-28.0,-23.0,-1001.0,94.0,-71.0
-254.0,17.0,-34.0,-30.0,-15.0,-24.0,-994.0,90.0,-70.0
-254.0,21.0,-38.0,-27.0,-7.0,-22.0,-1002.0,97.0,-77.0
-255.0,21.0,-35.0,-24.0,2.0,-23.0,-994.0,96.0,-71.0
-254.0,19.0,-33.0,-21.0,10.0,-22.0,-996.0,99.0,-71.0
-255.0,25.0,-38.0,-16.0,16.0,-23.0,-985.0,105.0,-76.0
-253.0,26.0,-36.0,-12.0,21.0,-19.0,-990.0,108.0,-81.0
-254.0,22.0,-38.0,-8.0,25.0,-18.0,-990.0,107.0,-73.0
-253.0,26.0,-36.0,-4.0,31.0,-14.0,-992.0,114.0,-70.0
-253.0,26.0,-35.0,-1.0,33.0,-11.0,-989.0,112.0,-73.0
-254.0,24.0,-34.0,-2.0,36.0,-8.0,-991.0,118.0,-69.0
-253.0,26.0,-34.0,-1.0,38.0,-7.0,-999.0,119.0,-74.0
-254.0,29.0,-35.0,-4.0,43.0,-2.0,-997.0,120.0,-75.0
-257.0,27.0,-37.0,-7.0,48.0,-1.0,-996.0,112.0,-71.0
-254.0,28.0,-34.0,-8.0,55.0,2.0,-993.0,114.0,-78.0
-253.0,26.0,-37.0,-7.0,59.0,-1.0,-995.0,119.0,-81.0
-254.0,29.0,-39.0,-6.0,66.0,2.0,-1005.0,123.0,-78.0
-256.0,29.0,-36.0,-7.0,73.0,-1.0,-1006.0,125.0,-76.0
-258.0,28.0,-40.0,-11.0,82.0,0.0,-1001.0,124.0,-72.0
-258.0,28.0,-37.0,-14.0,90.0,-1.0,-1005.0,125.0,-77.0
-258.0,28.0,-38.0,-18.0,98.0,0.0,-1006.0,122.0,-81.0
-260.0,27.0,-37.0,-20.0,105.0,-1.0,-1007.0,117.0,-88.0
-257.0,25.0,-40.0,-24.0,110.0,1.0,-1008.0,117.0,-85.0
-257.0,25.0,-37.0,-25.0,118.0,-1.0,-1014.0,115.0,-88.0
-261.0,21.0,-43.0,-27.0,122.0,0.0,-1012.0,112.0,-90.0
-256.0,27.0,-40.0,-27.0,125.0,-2.0,-1010.0,117.0,-99.0
-257.0,27.0,-42.0,-29.0,128.0,-3.0,-1007.0,119.0,-100.0
-259.0,25.0,-41.0,-30.0,129.0,-7.0,-1006.0,113.0,-100.0
-257.0,25.0,-41.0,-33.0,131.0,-7.0,-1004.0,105.0,-98.0
-256.0,24.0,-43.0,-35.0,130.0,-10.0,-1007.0,108.0,-92.0
-260.0,26.0,-38.0,-35.0,130.0,-9.0,-1002.0,107.0,-98.0
-259.0,24.0,-44.0,-35.0,128.0,-11.0,-1004.0,108.0,-100.0
-258.0,24.0,-42.0,-36.0,126.0,-8.0,-1003.0,107.0,-102.0
-259.0,24.0,-42.0,-35.0,124.0,-8.0,-1005.0,110.0,-99.0
-259.0,26.0,-41.0,-38.0,124.0,-4.0,-1000.0,108.0,-103.0
-259.0,28.0,-46.0,-42.0,122.0,-6.0,-1003.0,110.0,-104.0
-259.0,25.0,-41.0,-44.0,121.0,-4.0,-1005.0,105.0,-105.0
-262.0,24.0,-47.0,-45.0,118.0,-6.0,-1007.0,104.0,-111.0
-258.0,24.0,-44.0,-47.0,115.0,-6.0,-1009.0,100.0,-109.0
-257.0,22.0,-46.0,-46.0,114.0,-9.0,-1014.0,101.0,-114.0
-260.0,24.0,-44.0,-49.0,115.0,-7.0,-1009.0,104.0,-117.0
-258.0,22.0,-43.0,-51.0,115.0,-10.0,-1012.0,110.0,-110.0
-260.0,25.0,-45.0,-52.0,115.0,-9.0,-1011.0,106.0,-110.0
-260.0,25.0,-43.0,-55.0,115.0,-14.0,-1009.0,107.0,-110.0
-258.0,25.0,-44.0,-58.0,115.0,-11.0,-1010.0,107.0,-101.0
-257.0,23.0,-41.0,-64.0,116.0,-14.0,-1006.0,112.0,-102.0
-259.0,25.0,-45.0,-69.0,113.0,-12.0,-1007.0,103.0,-104.0
-257.0,21.0,-44.0,-72.0,112.0,-11.0,-1004.0,105.0,-112.0
-257.0,25.0,-45.0,-76.0,111.0,-10.0,-1010.0,100.0,-117.0
-261.0,22.0,-50.0,-78.0,108.0,-13.0,-1006.0,99.0,-121.0
-258.0,23.0,-49.0,-76.0,106.0,-9.0,-1010.0,88.0,-121.0
-262.0,20.0,-45.0,-74.0,106.0,-10.0,-1015.0,87.0,-123.0
-261.0,18.0,-47.0,-69.0,104.0,-9.0,-1013.0,84.0,-123.0
-260.0,21.0,-48.0,-65.0,103.0,-10.0,-1013.0,87.0,-122.0
-261.0,21.0,-45.0,-64.0,100.0,-6.0,-1012.0,92.0,-119.0
-258.0,21.0,-47.0,-61.0,100.0,-8.0,-1013.0,97.0,-123.0
-257.0,21.0,-48.0,-62.0,99.0,-6.0,-1012.0,97.0,-120.0
-262.0,22.0,-48.0,-65.0,99.0,-9.0,-1020.0,97.0,-123.0
-257.0,18.0,-47.0,-64.0,97.0,-7.0,-1009.0,97.0,-122.0
-259.0,23.0,-46.0,-65.0,98.0,-8.0,-1011.0,91.0,-119.0
-260.0,20.0,-45.0,-67.0,98.0,-6.0,-1010.0,92.0,-115.0
-257.0,19.0,-45.0,-72.0,98.0,-6.0,-1004.0,87.0,-114.0
-258.0,19.0,-47.0,-72.0,97.0,-3.0,-1005.0,84.0,-119.0
-258.0,19.0,-46.0,-73.0,93.0,-5.0,-1003.0,86.0,-120.0
-257.0,18.0,-51.0,-71.0,90.0,-2.0,-1008.0,81.0,-124.0
-259.0,16.0,-50.0,-66.0,87.0,-2.0,-1009.0,81.0,-124.0
-258.0,17.0,-46.0,-61.0,86.0,0.0,-1006.0,83.0,-127.0
-259.0,16.0,-49.0,-58.0,81.0,-2.0,-1007.0,83.0,-123.0
-258.0,21.0,-50.0,-55.0,78.0,2.0,-1010.0,83.0,-126.0
-257.0,21.0,-49.0,-52.0,75.0,0.0,-1011.0,82.0,-125.0
-257.0,17.0,-48.0,-50.0,72.0,1.0,-1010.0,82.0,-118.0
-261.0,19.0,-49.0,-49.0,69.0,-2.0,-1008.0,85.0,-123.0
-260.0,18.0,-46.0,-48.0,67.0,1.0,-1011.0,90.0,-121.0
-259.0,18.0,-49.0,-47.0,68.0,0.0,-1010.0,86.0,-125.0
-261.0,17.0,-45.0,-47.0,69.0,3.0,-1011.0,87.0,-115.0
-261.0,18.0,-47.0,-48.0,70.0,0.0,-1008.0,92.0,-122.0
-260.0,18.0,-47.0,-46.0,73.0,1.0,-1013.0,88.0,-125.0
-257.0,21.0,-45.0,-43.0,74.0,-1.0,-1011.0,85.0,-124.0
-263.0,20.0,-48.0,-39.0,75.0,1.0,-1008.0,88.0,-126.0
-263.0,21.0,-48.0,-34.0,75.0,-1.0,-1013.0,87.0,-125.0
-260.0,20.0,-53.0,-29.0,73.0,2.0,-1008.0,83.0,-127.0
-259.0,19.0,-47.0,-25.0,70.0,0.0,-1010.0,85.0,-125.0
-259.0,17.0,-44.0,-24.0,67.0,4.0,-1004.0,86.0,-126.0
-260.0,17.0,-49.0,-20.0,63.0,2.0,-1011.0,89.0,-125.0
-258.0,19.0,-48.0,-17.0,59.0,6.0,-1016.0,85.0,-125.0
-258.0,18.0,-52.0,-15.0,56.0,4.0,-1015.0,89.0,-126.0
-256.0,20.0,-50.0,-11.0,52.0,7.0,-1010.0,90.0,-125.0
-260.0,19.0,-48.0,-10.0,48.0,5.0,-1012.0,86.0,-126.0
-262.0,23.0,-49.0,-6.0,46.0,7.0,-1008.0,94.0,-130.0
-256.0,19.0,-50.0,-3.0,45.0,4.0,-1014.0,89.0,-124.0
-262.0,21.0,-48.0,-2.0,42.0,8.0,-1007.0,92.0,-121.0
-264.0,20.0,-47.0,1.0,40.0,5.0,-1006.0,91.0,-117.0
-259.0,20.0,-49.0,2.0,39.0,8.0,-1006.0,100.0,-122.0
-259.0,22.0,-51.0,4.0,37.0,6.0,-1007.0,96.0,-123.0
-259.0,24.0,-48.0,5.0,36.0,8.0,-1011.0,102.0,-127.0
-259.0,24.0,-49.0,8.0,36.0,5.0,-1013.0,100.0,-121.0
-261.0,22.0,-47.0,11.0,35.0,9.0,-1013.0,95.0,-121.0
-261.0,22.0,-46.0,13.0,34.0,5.0,-1012.0,96.0,-119.0
-261.0,21.0,-47.0,13.0,34.0,6.0,-1010.0,91.0,-119.0
-260.0,21.0,-46.0,15.0,34.0,4.0,-1017.0,96.0,-120.0
-261.0,21.0,-46.0,15.0,33.0,5.0,-1013.0,92.0,-115.0
-262.0,23.0,-43.0,18.0,33.0,3.0,-1007.0,96.0,-116.0
-257.0,22.0,-49.0,18.0,34.0,5.0,-1006.0,93.0,-117.0
-260.0,23.0,-44.0,20.0,33.0,4.0,-1007.0,96.0,-114.0
-257.0,21.0,-45.0,19.0,32.0,5.0,-1009.0,96.0,-113.0
-258.0,23.0,-46.0,22.0,32.0,4.0,-1006.0,92.0,-114.0
-263.0,23.0,-45.0,21.0,31.0,6.0,-1004.0,100.0,-112.0
-257.0,24.0,-46.0,21.0,31.0,3.0,-1005.0,103.0,-111.0
-257.0,23.0,-47.0,22.0,30.0,6.0,-1005.0,98.0,-116.0
-257.0,22.0,-48.0,22.0,28.0,3.0,-1007.0,97.0,-112.0
-260.0,23.0,-48.0,24.0,29.0,6.0,-1010.0,96.0,-114.0
-257.0,20.0,-46.0,26.0,28.0,5.0,-1007.0,93.0,-112.0
-261.0,26.0,-47.0,29.0,30.0,7.0,-1011.0,100.0,-116.0
-260.0,22.0,-43.0,29.0,29.0,5.0,-1010.0,97.0,-104.0
-258.0,25.0,-45.0,28.0,29.0,6.0,-1007.0,104.0,-109.0
-258.0,28.0,-47.0,21.0,28.0,3.0,-1004.0,108.0,-108.0
-258.0,26.0,-45.0,14.0,30.0,4.0,-1011.0,113.0,-100.0
-257.0,26.0,-44.0,10.0,29.0,2.0,-1007.0,115.0,-105.0
-260.0,24.0,-49.0,8.0,30.0,4.0,-1008.0,104.0,-109.0
-258.0,22.0,-42.0,9.0,31.0,2.0,-1004.0,104.0,-102.0
-257.0,20.0,-42.0,11.0,32.0,6.0,-1004.0,97.0,-109.0
-262.0,25.0,-45.0,14.0,32.0,5.0,-1010.0,93.0,-107.0
-257.0,23.0,-44.0,17.0,32.0,7.0,-1005.0,92.0,-106.0
-256.0,24.0,-45.0,19.0,33.0,3.0,-1008.0,95.0,-115.0
-261.0,23.0,-47.0,18.0,32.0,5.0,-1008.0,102.0,-118.0
-258.0,27.0,-50.0,17.0,30.0,1.0,-1010.0,106.0,-114.0
-259.0,24.0,-43.0,16.0,32.0,0.0,-1009.0,114.0,-114.0
-259.0,26.0,-44.0,19.0,30.0,-2.0,-1012.0,111.0,-110.0
-260.0,26.0,-44.0,18.0,32.0,-1.0,-1010.0,116.0,-106.0
-260.0,27.0,-41.0,17.0,33.0,-3.0,-1011.0,110.0,-106.0
-259.0,25.0,-46.0,21.0,33.0,-2.0,-1011.0,106.0,-100.0
-262.0,25.0,-44.0,19.0,34.0,-4.0,-1010.0,100.0,-106.0
-258.0,23.0,-48.0,20.0,34.0,-5.0,-1008.0,99.0,-112.0
-257.0,21.0,-43.0,23.0,34.0,-5.0,-1005.0,93.0,-106.0
-257.0,21.0,-44.0,21.0,35.0,-3.0,-1003.0,98.0,-105.0
-258.0,22.0,-43.0,21.0,35.0,-4.0,-1005.0,93.0,-104.0
-258.0,23.0,-43.0,21.0,33.0,1.0,-998.0,96.0,-102.0
-257.0,22.0,-39.0,20.0,31.0,0.0,-1000.0,97.0,-97.0
-257.0,25.0,-43.0,17.0,32.0,2.0,-1003.0,102.0,-95.0
-255.0,26.0,-42.0,14.0,32.0,1.0,-1005.0,105.0,-97.0
-259.0,22.0,-39.0,8.0,37.0,2.0,-1003.0,103.0,-95.0
-257.0,22.0,-47.0,3.0,39.0,2.0,-1003.0,106.0,-98.0
-255.0,21.0,-42.0,0.0,43.0,3.0,-1006.0,106.0,-95.0
-257.0,24.0,-43.0,2.0,46.0,1.0,-1007.0,109.0,-100.0
-260.0,25.0,-41.0,2.0,51.0,4.0,-1006.0,106.0,-106.0
-262.0,26.0,-45.0,-4.0,54.0,1.0,-1011.0,104.0,-103.0
-260.0,24.0,-41.0,-10.0,58.0,3.0,-1010.0,99.0,-104.0
-257.0,21.0,-39.0,-12.0,60.0,2.0,-1004.0,95.0,-104.0
-261.0,21.0,-46.0,-11.0,63.0,5.0,-1006.0,92.0,-108.0
-259.0,25.0,-44.0,-6.0,64.0,3.0,-1010.0,94.0,-110.0
-256.0,21.0,-46.0,-5.0,66.0,5.0,-1005.0,98.0,-101.0
-258.0,23.0,-43.0,-5.0,66.0,3.0,-1005.0,94.0,-98.0
-258.0,22.0,-45.0,-3.0,67.0,4.0,-1002.0,98.0,-99.0
-254.0,22.0,-44.0,0.0,69.0,4.0,-1003.0,101.0,-101.0
-256.0,24.0,-41.0,0.0,66.0,6.0,-1003.0,100.0,-97.0
-260.0,22.0,-40.0,-2.0,65.0,4.0,-1003.0,104.0,-102.0
-255.0,21.0,-43.0,-3.0,65.0,7.0,-1005.0,105.0,-102.0
-259.0,24.0,-44.0,-2.0,64.0,5.0,-1010.0,107.0,-106.0
-261.0,24.0,-41.0,1.0,63.0,7.0,-1009.0,102.0,-104.0
-262.0,22.0,-38.0,2.0,63.0,5.0,-1009.0,97.0,-105.0
-258.0,23.0,-44.0,2.0,62.0,7.0,-1009.0,97.0,-104.0
-258.0,25.0,-42.0,1.0,64.0,7.0,-1009.0,96.0,-106.0
-259.0,24.0,-43.0,1.0,63.0,7.0,-1009.0,101.0,-103.0
-260.0,22.0,-42.0,2.0,65.0,6.0,-1011.0,98.0,-104.0
-256.0,22.0,-44.0,3.0,66.0,9.0,-1007.0,100.0,-106.0
-261.0,23.0,-42.0,1.0,68.0,7.0,-1011.0,96.0,-111.0
-259.0,25.0,-44.0,5.0,70.0,7.0,-1009.0,98.0,-106.0
-262.0,25.0,-43.0,8.0,74.0,5.0,-1009.0,97.0,-109.0
-260.0,24.0,-43.0,8.0,76.0,6.0,-1008.0,97.0,-104.0
-258.0,23.0,-45.0,9.0,79.0,5.0,-1005.0,103.0,-110.0
-257.0,24.0,-44.0,7.0,77.0,6.0,-1004.0,95.0,-106.0
-261.0,23.0,-46.0,6.0,78.0,4.0,-1007.0,100.0,-109.0
-255.0,21.0,-44.0,4.0,77.0,4.0,-1002.0,98.0,-116.0
-259.0,24.0,-45.0,5.0,76.0,4.0,-1007.0,102.0,-117.0
-255.0,23.0,-44.0,3.0,72.0,6.0,-1003.0,96.0,-111.0
-258.0,25.0,-46.0,3.0,73.0,5.0,-1001.0,93.0,-109.0
-257.0,23.0,-44.0,4.0,71.0,9.0,-1009.0,93.0,-102.0
-258.0,22.0,-42.0,4.0,68.0,8.0,-1008.0,96.0,-104.0
-258.0,24.0,-42.0,2.0,67.0,10.0,-1008.0,96.0,-108.0
-260.0,21.0,-44.0,0.0,65.0,8.0,-1005.0,98.0,-106.0
-258.0,22.0,-45.0,-2.0,64.0,9.0,-1011.0,97.0,-109.0
-261.0,23.0,-43.0,-2.0,65.0,8.0,-1012.0,98.0,-114.0
-259.0,25.0,-46.0,-2.0,65.0,9.0,-1011.0,103.0,-115.0
-260.0,25.0,-45.0,-1.0,69.0,9.0,-1013.0,98.0,-106.0
-260.0,24.0,-48.0,0.0,68.0,9.0,-1009.0,101.0,-105.0
-257.0,23.0,-45.0,0.0,70.0,7.0,-1007.0,101.0,-106.0
-259.0,23.0,-44.0,-3.0,69.0,7.0,-1013.0,104.0,-105.0
-260.0,26.0,-48.0,-3.0,70.0,6.0,-1010.0,101.0,-111.0
-255.0,25.0,-47.0,-5.0,66.0,6.0,-1007.0,100.0,-119.0
-262.0,26.0,-49.0,-2.0,66.0,6.0,-1010.0,103.0,-120.0
-260.0,24.0,-47.0,1.0,63.0,4.0,-1012.0,97.0,-118.0
-261.0,24.0,-46.0,4.0,58.0,5.0,-1014.0,96.0,-121.0
-258.0,22.0,-48.0,4.0,55.0,4.0,-1010.0,96.0,-121.0
-262.0,22.0,-52.0,6.0,50.0,3.0,-1010.0,102.0,-120.0
-262.0,23.0,-46.0,10.0,48.0,4.0,-1014.0,98.0,-122.0
-257.0,21.0,-46.0,11.0,46.0,3.0,-1008.0,96.0,-118.0
-262.0,25.0,-46.0,14.0,46.0,5.0,-1011.0,99.0,-119.0
-261.0,25.0,-46.0,14.0,45.0,4.0,-1012.0,99.0,-114.0
-257.0,23.0,-45.0,13.0,46.0,4.0,-1010.0,103.0,-108.0
-257.0,25.0,-44.0,10.0,48.0,3.0,-1010.0,103.0,-108.0
-258.0,23.0,-40.0,8.0,49.0,3.0,-1009.0,103.0,-102.0
-257.0,25.0,-46.0,5.0,51.0,3.0,-1006.0,103.0,-102.0
-257.0,24.0,-44.0,3.0,54.0,1.0,-1006.0,103.0,-100.0
-258.0,23.0,-45.0,-1.0,57.0,1.0,-1005.0,107.0,-102.0
-259.0,21.0,-43.0,-4.0,56.0,0.0,-1008.0,103.0,-103.0
-261.0,26.0,-45.0,-6.0,59.0,-2.0,-1010.0,103.0,-103.0
-255.0,21.0,-43.0,-7.0,60.0,-3.0,-1008.0,102.0,-110.0
-257.0,24.0,-44.0,-9.0,58.0,-4.0,-1007.0,103.0,-114.0
-261.0,24.0,-47.0,-9.0,58.0,-4.0,-1008.0,97.0,-112.0
-259.0,22.0,-49.0,-7.0,55.0,-3.0,-1009.0,94.0,-107.0
-256.0,24.0,-46.0,-5.0,53.0,-2.0,-1013.0,93.0,-106.0
-259.0,20.0,-45.0,-3.0,49.0,-1.0,-1005.0,94.0,-108.0
-259.0,23.0,-46.0,0.0,45.0,1.0,-1004.0,99.0,-113.0
-260.0,24.0,-46.0,-1.0,45.0,0.0,-1006.0,102.0,-111.0
-257.0,20.0,-42.0,-1.0,42.0,4.0,-1008.0,102.0,-111.0
-258.0,25.0,-45.0,-2.0,41.0,4.0,-1005.0,101.0,-106.0
-260.0,24.0,-41.0,-3.0,40.0,4.0,-1007.0,106.0,-103.0
-258.0,25.0,-43.0,-6.0,40.0,3.0,-1005.0,103.0,-104.0
-258.0,24.0,-47.0,-6.0,43.0,2.0,-1003.0,101.0,-110.0
-259.0,21.0,-49.0,-6.0,42.0,1.0,-1007.0,98.0,-95.0
-257.0,25.0,-42.0,-5.0,44.0,-2.0,-1011.0,100.0,-100.0
-258.0,22.0,-39.0,-5.0,46.0,-2.0,-1010.0,104.0,-100.0
-259.0,23.0,-44.0,-5.0,49.0,-2.0,-1008.0,100.0,-103.0
-260.0,26.0,-44.0,-4.0,49.0,-4.0,-1012.0,100.0,-102.0
-256.0,21.0,-45.0,-2.0,52.0,-5.0,-1009.0,102.0,-103.0
-259.0,23.0,-43.0,0.0,53.0,-6.0,-1007.0,100.0,-104.0
-258.0,22.0,-46.0,1.0,54.0,-6.0,-1009.0,100.0,-103.0
-257.0,21.0,-47.0,2.0,55.0,-6.0,-1010.0,101.0,-107.0
-260.0,20.0,-45.0,3.0,54.0,-8.0,-1003.0,100.0,-102.0
-258.0,20.0,-45.0,4.0,55.0,-6.0,-1009.0,96.0,-106.0
-259.0,24.0,-45.0,3.0,56.0,-7.0,-1003.0,103.0,-105.0
-257.0,25.0,-45.0,2.0,57.0,-6.0,-1008.0,101.0,-103.0
-258.0,22.0,-42.0,1.0,57.0,-5.0,-1003.0,106.0,-113.0
-258.0,25.0,-45.0,0.0,56.0,-6.0,-1009.0,106.0,-99.0
-258.0,25.0,-46.0,-1.0,55.0,-6.0,-1004.0,106.0,-105.0
-258.0,23.0,-47.0,-2.0,52.0,-5.0,-1004.0,101.0,-104.0
-259.0,23.0,-44.0,-5.0,51.0,-6.0,-1005.0,103.0,-102.0
-256.0,22.0,-43.0,-4.0,50.0,-5.0,-1000.0,101.0,-104.0
-256.0,20.0,-43.0,-5.0,50.0,-4.0,-1010.0,97.0,-107.0
-260.0,22.0,-42.0,-2.0,48.0,-2.0,-1007.0,96.0,-101.0
-259.0,21.0,-42.0,-2.0,48.0,-2.0,-1006.0,103.0,-99.0
-260.0,24.0,-40.0,-2.0,48.0,-2.0,-1009.0,98.0,-108.0
-260.0,23.0,-41.0,-3.0,48.0,-3.0,-1007.0,96.0,-116.0
-258.0,25.0,-44.0,-3.0,50.0,-2.0,-1010.0,96.0,-106.0
-257.0,23.0,-45.0,-3.0,51.0,-4.0,-1008.0,104.0,-109.0
-257.0,22.0,-48.0,-3.0,51.0,-3.0,-1009.0,99.0,-106.0
-259.0,24.0,-46.0,-3.0,53.0,-6.0,-1010.0,104.0,-105.0
-259.0,25.0,-44.0,-3.0,52.0,-4.0,-1010.0,99.0,-106.0
-259.0,21.0,-44.0,-4.0,52.0,-6.0,-1010.0,99.0,-106.0
-257.0,20.0,-45.0,-5.0,54.0,-4.0,-1007.0,97.0,-107.0
-257.0,23.0,-44.0,-4.0,55.0,-6.0,-1004.0,98.0,-107.0
-257.0,23.0,-43.0,-3.0,54.0,-6.0,-1011.0,102.0,-107.0
-260.0,22.0,-45.0,-2.0,53.0,-6.0,-1011.0,101.0,-106.0
-258.0,23.0,-44.0,-2.0,55.0,-5.0,-1004.0,96.0,-107.0
-259.0,24.0,-44.0,-1.0,54.0,-5.0,-1011.0,101.0,-108.0
-260.0,26.0,-45.0,-4.0,55.0,-3.0,-1007.0,104.0,-103.0
-258.0,24.0,-45.0,-4.0,54.0,-3.0,-1008.0,105.0,-102.0
-260.0,25.0,-45.0,-5.0,52.0,-2.0,-1014.0,103.0,-103.0
-259.0,22.0,-43.0,-9.0,52.0,-2.0,-1004.0,105.0,-110.0
-259.0,24.0,-42.0,-11.0,51.0,-1.0,-1007.0,101.0,-101.0
-260.0,25.0,-43.0,-12.0,51.0,-1.0,-1006.0,99.0,-103.0
-259.0,21.0,-42.0,-13.0,51.0,1.0,-1009.0,102.0,-106.0
-260.0,24.0,-41.0,-15.0,52.0,-1.0,-1007.0,101.0,-100.0
-258.0,23.0,-41.0,-14.0,53.0,1.0,-1009.0,96.0,-95.0
-259.0,19.0,-43.0,-16.0,54.0,0.0,-1006.0,94.0,-102.0
-259.0,21.0,-46.0,-17.0,56.0,2.0,-1008.0,101.0,-99.0
-259.0,22.0,-45.0,-16.0,56.0,0.0,-1008.0,94.0,-110.0
-260.0,24.0,-42.0,-15.0,56.0,3.0,-1011.0,100.0,-107.0
-257.0,20.0,-44.0,-13.0,57.0,1.0,-1009.0,95.0,-107.0
-258.0,22.0,-43.0,-9.0,55.0,3.0,-1007.0,102.0,-101.0
-259.0,23.0,-45.0,-10.0,54.0,2.0,-1004.0,99.0,-108.0
-262.0,25.0,-45.0,-8.0,53.0,2.0,-1008.0,101.0,-105.0
-257.0,17.0,-49.0,-6.0,53.0,0.0,-1005.0,99.0,-103.0
-257.0,21.0,-46.0,-4.0,52.0,1.0,-1006.0,101.0,-105.0
-262.0,23.0,-44.0,-6.0,50.0,1.0,-1011.0,103.0,-99.0
-258.0,23.0,-43.0,-8.0,51.0,3.0,-1008.0,101.0,-106.0
-260.0,21.0,-42.0,-10.0,53.0,3.0,-1010.0,100.0,-104.0
-256.0,21.0,-41.0,-9.0,54.0,3.0,-1006.0,99.0,-103.0
-259.0,22.0,-41.0,-5.0,57.0,1.0,-1010.0,97.0,-103.0
-256.0,25.0,-45.0,-5.0,56.0,2.0,-1009.0,95.0,-102.0
-255.0,25.0,-43.0,-4.0,59.0,0.0,-1005.0,100.0,-103.0
-260.0,25.0,-42.0,-3.0,60.0,2.0,-1008.0,105.0,-101.0
-256.0,24.0,-43.0,-3.0,62.0,1.0,-1004.0,103.0,-98.0
-260.0,28.0,-43.0,-5.0,64.0,2.0,-1006.0,109.0,-99.0
-258.0,27.0,-45.0,-8.0,62.0,0.0,-1005.0,107.0,-100.0
-258.0,24.0,-43.0,-10.0,63.0,4.0,-1005.0,108.0,-102.0
-261.0,25.0,-43.0,-12.0,62.0,1.0,-1010.0,103.0,-101.0
-255.0,22.0,-44.0,-12.0,61.0,2.0,-1009.0,102.0,-106.0
-256.0,21.0,-41.0,-12.0,61.0,2.0,-1005.0,98.0,-100.0
-258.0,21.0,-46.0,-11.0,58.0,4.0,-1010.0,95.0,-102.0
-260.0,24.0,-42.0,-11.0,58.0,3.0,-1006.0,105.0,-100.0
-259.0,23.0,-45.0,-8.0,59.0,6.0,-1006.0,99.0,-101.0
-261.0,25.0,-45.0,-9.0,60.0,4.0,-1007.0,104.0,-104.0
-258.0,23.0,-41.0,-8.0,58.0,7.0,-1009.0,102.0,-101.0
-261.0,22.0,-49.0,-10.0,59.0,4.0,-1008.0,105.0,-100.0
-257.0,24.0,-42.0,-12.0,61.0,6.0,-1007.0,105.0,-100.0
-263.0,25.0,-44.0,-12.0,61.0,2.0,-1010.0,107.0,-101.0
-260.0,24.0,-41.0,-13.0,61.0,5.0,-1004.0,100.0,-103.0
-258.0,23.0,-44.0,-14.0,63.0,5.0,-1005.0,104.0,-105.0
-259.0,22.0,-41.0,-12.0,64.0,7.0,-1005.0,97.0,-101.0
-259.0,24.0,-42.0,-11.0,66.0,5.0,-1003.0,98.0,-101.0
-259.0,24.0,-43.0,-11.0,66.0,6.0,-1014.0,99.0,-106.0
-259.0,24.0,-46.0,-11.0,66.0,2.0,-1009.0,105.0,-108.0
-261.0,24.0,-43.0,-12.0,66.0,4.0,-1012.0,104.0,-109.0
-261.0,27.0,-42.0,-13.0,65.0,1.0,-1009.0,104.0,-103.0
-257.0,23.0,-45.0,-12.0,64.0,2.0,-1011.0,103.0,-110.0
-259.0,25.0,-45.0,-12.0,63.0,-1.0,-1007.0,106.0,-103.0
-260.0,26.0,-41.0,-13.0,62.0,1.0,-1010.0,108.0,-112.0
-259.0,24.0,-43.0,-12.0,60.0,-2.0,-1009.0,108.0,-113.0
-259.0,23.0,-47.0,-10.0,59.0,-2.0,-1007.0,107.0,-104.0
-259.0,20.0,-47.0,-8.0,58.0,-4.0,-1010.0,104.0,-105.0
-259.0,23.0,-43.0,-8.0,58.0,-2.0,-1015.0,99.0,-103.0
-259.0,22.0,-44.0,-9.0,56.0,-6.0,-1008.0,95.0,-102.0
-261.0,21.0,-38.0,-9.0,55.0,-4.0,-1014.0,94.0,-105.0
-258.0,20.0,-43.0,-6.0,54.0,-6.0,-1012.0,90.0,-101.0
-258.0,20.0,-45.0,-5.0,55.0,-3.0,-1009.0,96.0,-109.0
-260.0,20.0,-45.0,-7.0,56.0,-7.0,-1005.0,95.0,-100.0
-258.0,21.0,-40.0,-9.0,57.0,-6.0,-1008.0,96.0,-97.0
-258.0,25.0,-42.0,-12.0,60.0,-8.0,-1006.0,100.0,-98.0
-259.0,26.0,-43.0,-16.0,65.0,-8.0,-1007.0,103.0,-97.0
-260.0,24.0,-40.0,-17.0,68.0,-10.0,-1007.0,105.0,-104.0
-261.0,25.0,-47.0,-19.0,72.0,-7.0,-1005.0,104.0,-104.0
-258.0,24.0,-39.0,-20.0,73.0,-10.0,-1011.0,103.0,-107.0
-260.0,24.0,-45.0,-23.0,73.0,-7.0,-1012.0,107.0,-108.0
-261.0,25.0,-48.0,-23.0,72.0,-9.0,-1006.0,105.0,-107.0
-258.0,20.0,-43.0,-26.0,70.0,-5.0,-1012.0,103.0,-115.0
-263.0,21.0,-45.0,-24.0,68.0,-8.0,-1016.0,99.0,-110.0
-257.0,21.0,-46.0,-24.0,66.0,-6.0,-1011.0,102.0,-109.0
-259.0,23.0,-43.0,-23.0,64.0,-9.0,-1016.0,101.0,-107.0
-263.0,24.0,-45.0,-23.0,62.0,-6.0,-1012.0,96.0,-108.0
-257.0,24.0,-42.0,-24.0,63.0,-11.0,-1012.0,105.0,-104.0
-258.0,25.0,-46.0,-23.0,63.0,-9.0,-1010.0,100.0,-108.0
-261.0,26.0,-43.0,-22.0,61.0,-13.0,-1011.0,102.0,-103.0
-258.0,25.0,-44.0,-22.0,61.0,-10.0,-1009.0,105.0,-100.0
-256.0,21.0,-41.0,-24.0,60.0,-13.0,-1005.0,103.0,-97.0
-258.0,25.0,-44.0,-23.0,59.0,-10.0,-1002.0,105.0,-98.0
-259.0,24.0,-47.0,-24.0,58.0,-12.0,-1005.0,104.0,-100.0
-259.0,22.0,-42.0,-23.0,60.0,-8.0,-1006.0,101.0,-98.0
-260.0,19.0,-46.0,-20.0,61.0,-9.0,-1008.0,97.0,-99.0
-259.0,24.0,-40.0,-23.0,62.0,-6.0,-1008.0,97.0,-100.0
-259.0,25.0,-39.0,-21.0,65.0,-8.0,-1007.0,103.0,-103.0
-258.0,24.0,-39.0,-19.0,68.0,-6.0,-1012.0,101.0,-103.0
-257.0,25.0,-45.0,-18.0,70.0,-10.0,-1007.0,103.0,-105.0
-259.0,23.0,-46.0,-19.0,71.0,-8.0,-1008.0,105.0,-104.0
-258.0,26.0,-41.0,-21.0,71.0,-11.0,-1006.0,104.0,-106.0
-258.0,24.0,-45.0,-20.0,72.0,-10.0,-1008.0,106.0,-103.0
-257.0,27.0,-43.0,-20.0,71.0,-13.0,-1009.0,107.0,-104.0
-258.0,24.0,-39.0,-20.0,72.0,-12.0,-1006.0,109.0,-101.0
-257.0,22.0,-46.0,-24.0,72.0,-16.0,-1008.0,103.0,-96.0
-260.0,24.0,-41.0,-26.0,72.0,-14.0,-1005.0,105.0,-100.0
-257.0,24.0,-44.0,-28.0,72.0,-15.0,-1004.0,103.0,-100.0
-256.0,23.0,-45.0,-29.0,72.0,-13.0,-1009.0,104.0,-104.0
-262.0,23.0,-42.0,-29.0,70.0,-14.0,-1008.0,101.0,-105.0
-259.0,22.0,-46.0,-31.0,71.0,-11.0,-1008.0,102.0,-102.0
-259.0,22.0,-43.0,-32.0,71.0,-12.0,-1007.0,102.0,-108.0
-258.0,22.0,-42.0,-31.0,68.0,-9.0,-1010.0,102.0,-109.0
-259.0,24.0,-46.0,-31.0,67.0,-11.0,-1005.0,100.0,-103.0
-256.0,23.0,-41.0,-32.0,67.0,-8.0,-1009.0,101.0,-111.0
-259.0,25.0,-46.0,-32.0,67.0,-11.0,-1008.0,99.0,-108.0
-258.0,19.0,-46.0,-32.0,65.0,-6.0,-1008.0,98.0,-108.0
-258.0,21.0,-45.0,-33.0,64.0,-9.0,-1005.0,100.0,-107.0
-261.0,24.0,-43.0,-33.0,62.0,-5.0,-1005.0,98.0,-114.0
-259.0,25.0,-44.0,-32.0,60.0,-7.0,-1010.0,97.0,-107.0
-260.0,25.0,-46.0,-33.0,60.0,-4.0,-1009.0,101.0,-106.0
-257.0,25.0,-45.0,-34.0,62.0,-7.0,-1006.0,102.0,-103.0
-259.0,22.0,-42.0,-36.0,61.0,-6.0,-1005.0,104.0,-105.0
-259.0,25.0,-43.0,-39.0,62.0,-8.0,-1011.0,103.0,-105.0
-258.0,23.0,-45.0,-40.0,61.0,-7.0,-1009.0,100.0,-104.0
-260.0,23.0,-45.0,-41.0,62.0,-11.0,-1013.0,97.0,-111.0
-259.0,22.0,-48.0,-39.0,62.0,-9.0,-1016.0,92.0,-111.0
-258.0,23.0,-46.0,-37.0,62.0,-10.0,-1011.0,91.0,-110.0
-258.0,22.0,-45.0,-34.0,63.0,-9.0,-1011.0,93.0,-118.0
-258.0,23.0,-43.0,-32.0,62.0,-13.0,-1009.0,93.0,-111.0
-261.0,28.0,-46.0,-30.0,62.0,-11.0,-1006.0,98.0,-111.0
-260.0,22.0,-44.0,-29.0,61.0,-13.0,-1008.0,98.0,-108.0
-259.0,22.0,-47.0,-28.0,59.0,-9.0,-1009.0,96.0,-105.0
-260.0,24.0,-45.0,-29.0,60.0,-12.0,-1006.0,97.0,-109.0
-257.0,24.0,-45.0,-29.0,60.0,-8.0,-1006.0,105.0,-109.0
-259.0,24.0,-46.0,-30.0,60.0,-10.0,-1004.0,101.0,-115.0
-256.0,23.0,-43.0,-29.0,61.0,-8.0,-1005.0,99.0,-107.0
-259.0,23.0,-43.0,-32.0,61.0,-10.0,-1005.0,94.0,-100.0
-256.0,22.0,-42.0,-33.0,62.0,-7.0,-1009.0,99.0,-102.0
-258.0,23.0,-43.0,-36.0,63.0,-8.0,-1004.0,97.0,-104.0
-260.0,21.0,-41.0,-38.0,62.0,-6.0,-1009.0,100.0,-102.0
-260.0,24.0,-40.0,-41.0,63.0,-8.0,-1005.0,102.0,-104.0
-259.0,24.0,-42.0,-43.0,65.0,-7.0,-1008.0,103.0,-104.0
-260.0,26.0,-42.0,-44.0,66.0,-9.0,-1009.0,101.0,-103.0
-258.0,24.0,-44.0,-44.0,67.0,-7.0,-1009.0,99.0,-100.0
-258.0,21.0,-41.0,-42.0,67.0,-10.0,-1007.0,99.0,-98.0
-258.0,24.0,-44.0,-42.0,68.0,-8.0,-1005.0,104.0,-106.0
-258.0,23.0,-46.0,-43.0,66.0,-11.0,-1007.0,100.0,-106.0
-260.0,23.0,-43.0,-43.0,66.0,-9.0,-1009.0,99.0,-111.0
-258.0,23.0,-42.0,-44.0,66.0,-9.0,-1007.0,95.0,-106.0
-258.0,22.0,-46.0,-41.0,64.0,-5.0,-1012.0,97.0,-107.0
-260.0,22.0,-43.0,-39.0,65.0,-8.0,-1008.0,98.0,-104.0
-258.0,22.0,-41.0,-38.0,65.0,-7.0,-1009.0,98.0,-104.0
-258.0,20.0,-41.0,-38.0,66.0,-10.0,-1007.0,96.0,-101.0
-260.0,23.0,-46.0,-38.0,67.0,-7.0,-1009.0,100.0,-104.0
-259.0,22.0,-43.0,-38.0,70.0,-10.0,-1010.0,102.0,-104.0
-257.0,20.0,-42.0,-39.0,71.0,-8.0,-1003.0,97.0,-102.0
-255.0,21.0,-43.0,-38.0,72.0,-9.0,-1007.0,94.0,-106.0
-257.0,23.0,-42.0,-39.0,72.0,-4.0,-1007.0,97.0,-107.0
-262.0,23.0,-48.0,-37.0,73.0,-5.0,-1007.0,102.0,-109.0
-258.0,21.0,-44.0,-36.0,73.0,-3.0,-1008.0,100.0,-105.0
-260.0,21.0,-45.0,-34.0,73.0,-3.0,-1008.0,97.0,-103.0
-257.0,22.0,-43.0,-34.0,74.0,-3.0,-1009.0,99.0,-109.0
-258.0,22.0,-47.0,-34.0,73.0,-5.0,-1012.0,102.0,-105.0
-260.0,23.0,-43.0,-35.0,71.0,-3.0,-1008.0,103.0,-112.0
-260.0,23.0,-39.0,-35.0,71.0,-6.0,-1010.0,98.0,-107.0
-256.0,21.0,-47.0,-33.0,71.0,-3.0,-1015.0,98.0,-105.0
-259.0,21.0,-42.0,-32.0,70.0,-4.0,-1009.0,98.0,-107.0
-257.0,23.0,-45.0,-32.0,72.0,-2.0,-1010.0,103.0,-111.0
-257.0,20.0,-42.0,-33.0,71.0,-4.0,-1012.0,103.0,-105.0
-259.0,24.0,-44.0,-36.0,74.0,-3.0,-1005.0,104.0,-101.0
-257.0,26.0,-44.0,-38.0,76.0,-3.0,-1004.0,97.0,-105.0
-258.0,26.0,-46.0,-41.0,77.0,-2.0,-1008.0,98.0,-104.0
-261.0,21.0,-40.0,-40.0,80.0,-4.0,-1012.0,99.0,-105.0
-258.0,24.0,-46.0,-41.0,82.0,-1.0,-1011.0,98.0,-100.0
-261.0,22.0,-46.0,-41.0,85.0,-3.0,-1009.0,98.0,-109.0
-258.0,23.0,-46.0,-40.0,86.0,0.0,-1010.0,97.0,-106.0
-257.0,20.0,-44.0,-38.0,89.0,-1.0,-1010.0,98.0,-112.0
-257.0,21.0,-48.0,-37.0,91.0,0.0,-1006.0,92.0,-113.0
-261.0,18.0,-38.0,-33.0,91.0,2.0,-1010.0,95.0,-108.0
-259.0,21.0,-44.0,-33.0,91.0,4.0,-1011.0,94.0,-113.0
-258.0,22.0,-45.0,-34.0,90.0,5.0,-1007.0,95.0,-112.0
-262.0,23.0,-46.0,-35.0,93.0,7.0,-1004.0,96.0,-114.0
-257.0,23.0,-46.0,-34.0,91.0,6.0,-1014.0,97.0,-121.0
-260.0,21.0,-48.0,-33.0,92.0,8.0,-1009.0,94.0,-115.0
-256.0,21.0,-51.0,-32.0,91.0,8.0,-1010.0,98.0,-106.0
-261.0,24.0,-45.0,-32.0,92.0,11.0,-1007.0,98.0,-113.0
-259.0,22.0,-44.0,-28.0,91.0,8.0,-1011.0,99.0,-109.0
-258.0,22.0,-44.0,-27.0,88.0,11.0,-1004.0,101.0,-118.0
-259.0,24.0,-46.0,-23.0,86.0,11.0,-1010.0,99.0,-120.0
-261.0,22.0,-47.0,-23.0,82.0,12.0,-1009.0,100.0,-115.0
-261.0,23.0,-47.0,-23.0,79.0,10.0,-1008.0,100.0,-118.0
-262.0,25.0,-47.0,-23.0,79.0,12.0,-1011.0,99.0,-114.0
-260.0,24.0,-47.0,-24.0,76.0,7.0,-1016.0,96.0,-114.0
-260.0,24.0,-45.0,-26.0,75.0,6.0,-1006.0,103.0,-119.0
-259.0,22.0,-48.0,-25.0,73.0,1.0,-1012.0,99.0,-125.0
-261.0,24.0,-46.0,-27.0,71.0,-1.0,-1012.0,105.0,-119.0
-258.0,24.0,-49.0,-25.0,69.0,-6.0,-1011.0,98.0,-119.0
-260.0,24.0,-46.0,-28.0,67.0,-8.0,-1008.0,100.0,-119.0
-259.0,23.0,-45.0,-25.0,66.0,-12.0,-1006.0,103.0,-120.0
-253.0,24.0,-48.0,-25.0,64.0,-13.0,-1005.0,99.0,-115.0
-256.0,22.0,-50.0,-25.0,61.0,-14.0,-1002.0,104.0,-114.0
-259.0,24.0,-46.0,-25.0,62.0,-13.0,-1002.0,103.0,-112.0
-257.0,23.0,-47.0,-24.0,61.0,-14.0,-1002.0,100.0,-114.0
-258.0,22.0,-46.0,-27.0,57.0,-11.0,-1003.0,98.0,-108.0
-256.0,25.0,-44.0,-28.0,55.0,-11.0,-1003.0,103.0,-115.0
-258.0,25.0,-42.0,-29.0,53.0,-6.0,-1004.0,102.0,-113.0
-257.0,25.0,-46.0,-32.0,50.0,-9.0,-1003.0,105.0,-114.0
-261.0,23.0,-45.0,-34.0,48.0,-6.0,-1005.0,101.0,-108.0
-259.0,25.0,-47.0,-37.0,44.0,-6.0,-1010.0,107.0,-99.0
-258.0,24.0,-45.0,-39.0,44.0,-6.0,-1005.0,103.0,-109.0
-261.0,24.0,-45.0,-41.0,44.0,-10.0,-1005.0,108.0,-110.0
-260.0,25.0,-48.0,-39.0,44.0,-8.0,-1010.0,104.0,-112.0
-259.0,23.0,-47.0,-42.0,43.0,-9.0,-1007.0,103.0,-113.0
-259.0,23.0,-45.0,-40.0,44.0,-8.0,-1007.0,101.0,-114.0
-260.0,22.0,-48.0,-39.0,43.0,-8.0,-1006.0,101.0,-110.0
-259.0,21.0,-45.0,-37.0,43.0,-6.0,-1010.0,99.0,-107.0
-257.0,23.0,-43.0,-35.0,43.0,-7.0,-1005.0,99.0,-116.0
-260.0,23.0,-45.0,-35.0,45.0,-6.0,-1007.0,99.0,-106.0
-258.0,25.0,-47.0,-34.0,45.0,-7.0,-1004.0,97.0,-109.0
-258.0,23.0,-46.0,-35.0,46.0,-7.0,-1004.0,100.0,-106.0
-257.0,22.0,-48.0,-34.0,48.0,-8.0,-1007.0,96.0,-104.0
-260.0,13.0,-38.0,-31.0,46.0,-7.0,-1009.0,91.0,-104.0
-259.0,19.0,-39.0,-30.0,47.0,-8.0,-1006.0,97.0,-104.0
-260.0,29.0,-46.0,-31.0,47.0,-8.0,-1007.0,98.0,-102.0
-263.0,29.0,-40.0,-30.0,50.0,-9.0,-1005.0,99.0,-111.0
-263.0,29.0,-50.0,-32.0,52.0,-10.0,-1007.0,101.0,-105.0
-260.0,33.0,-45.0,-34.0,54.0,-11.0,-1009.0,98.0,-105.0
-257.0,24.0,-42.0,-34.0,57.0,-12.0,-1007.0,98.0,-100.0
-261.0,21.0,-44.0,-33.0,59.0,-13.0,-1006.0,105.0,-106.0
-258.0,23.0,-45.0,-32.0,59.0,-12.0,-1009.0,98.0,-100.0
-260.0,22.0,-44.0,-35.0,62.0,-15.0,-1009.0,100.0,-108.0
-259.0,22.0,-44.0,-34.0,66.0,-13.0,-1004.0,100.0,-106.0
-259.0,21.0,-48.0,-30.0,65.0,-10.0,-1006.0,97.0,-113.0
-259.0,23.0,-45.0,-27.0,64.0,-9.0,-1004.0,99.0,-117.0
-257.0,20.0,-48.0,-21.0,62.0,-8.0,-1006.0,92.0,-114.0
-258.0,22.0,-46.0,-18.0,62.0,-3.0,-1008.0,97.0,-112.0
-258.0,23.0,-44.0,-15.0,62.0,-2.0,-1006.0,96.0,-115.0
-257.0,22.0,-44.0,-12.0,62.0,-1.0,-1003.0,96.0,-111.0
-257.0,23.0,-45.0,-9.0,61.0,-1.0,-1007.0,101.0,-104.0
-260.0,24.0,-45.0,-10.0,60.0,0.0,-1006.0,106.0,-107.0
-259.0,23.0,-46.0,-10.0,61.0,-2.0,-1005.0,103.0,-110.0
-255.0,25.0,-45.0,-14.0,62.0,-1.0,-1010.0,100.0,-111.0
-260.0,25.0,-47.0,-12.0,63.0,-2.0,-1010.0,100.0,-111.0
-258.0,23.0,-42.0,-12.0,62.0,-2.0,-1012.0,102.0,-111.0
-261.0,23.0,-45.0,-9.0,62.0,0.0,-1008.0,99.0,-112.0
-256.0,19.0,-48.0,-7.0,60.0,0.0,-1010.0,100.0,-119.0
-261.0,22.0,-46.0,-4.0,58.0,3.0,-1010.0,94.0,-122.0
-262.0,20.0,-48.0,1.0,57.0,1.0,-1009.0,92.0,-117.0
-259.0,22.0,-51.0,4.0,55.0,-1.0,-1012.0,96.0,-120.0
-260.0,22.0,-50.0,7.0,53.0,-2.0,-1008.0,96.0,-120.0
-262.0,23.0,-49.0,8.0,54.0,-4.0,-1008.0,102.0,-119.0
-261.0,25.0,-45.0,9.0,52.0,-3.0,-1013.0,107.0,-115.0
-260.0,26.0,-44.0,9.0,52.0,-4.0,-1014.0,102.0,-112.0
-258.0,25.0,-45.0,7.0,51.0,-4.0,-1009.0,109.0,-112.0
-260.0,28.0,-42.0,7.0,50.0,-3.0,-1008.0,105.0,-106.0
-257.0,22.0,-43.0,7.0,49.0,-5.0,-1008.0,103.0,-103.0
-260.0,22.0,-44.0,8.0,50.0,-4.0,-1006.0,99.0,-107.0
-261.0,23.0,-44.0,5.0,49.0,-5.0,-1010.0,96.0,-105.0
-258.0,19.0,-46.0,6.0,49.0,-4.0,-1007.0,91.0,-110.0
-258.0,20.0,-45.0,5.0,50.0,-1.0,-1012.0,93.0,-108.0
-258.0,21.0,-43.0,5.0,51.0,0.0,-1006.0,92.0,-111.0
-260.0,19.0,-43.0,5.0,50.0,1.0,-1008.0,92.0,-113.0
-260.0,23.0,-43.0,4.0,49.0,3.0,-1005.0,93.0,-106.0
-259.0,21.0,-46.0,4.0,48.0,2.0,-1009.0,95.0,-106.0
-254.0,20.0,-43.0,2.0,49.0,3.0,-1008.0,97.0,-104.0
-259.0,24.0,-45.0,0.0,50.0,2.0,-1004.0,99.0,-102.0
-258.0,25.0,-42.0,-4.0,51.0,3.0,-1002.0,97.0,-100.0
-259.0,24.0,-46.0,-6.0,54.0,3.0,-1006.0,102.0,-106.0
-257.0,25.0,-45.0,-8.0,56.0,5.0,-1008.0,101.0,-111.0
-259.0,22.0,-48.0,-11.0,58.0,5.0,-1009.0,106.0,-111.0
-258.0,22.0,-46.0,-13.0,57.0,4.0,-1009.0,100.0,-108.0
-258.0,24.0,-47.0,-14.0,56.0,5.0,-1009.0,98.0,-120.0
-257.0,22.0,-45.0,-14.0,54.0,5.0,-1009.0,103.0,-115.0
-259.0,23.0,-46.0,-14.0,51.0,3.0,-1006.0,93.0,-114.0
-260.0,21.0,-46.0,-13.0,50.0,6.0,-1008.0,95.0,-108.0
-261.0,25.0,-45.0,-12.0,50.0,5.0,-1006.0,96.0,-117.0
-257.0,22.0,-45.0,-10.0,49.0,7.0,-1006.0,96.0,-113.0
-257.0,18.0,-45.0,-6.0,48.0,5.0,-1014.0,99.0,-109.0
-260.0,23.0,-44.0,-1.0,50.0,7.0,-1007.0,103.0,-109.0
-259.0,24.0,-46.0,4.0,50.0,6.0,-1007.0,105.0,-109.0
-260.0,26.0,-44.0,3.0,47.0,6.0,-1004.0,107.0,-107.0
-258.0,25.0,-45.0,4.0,48.0,5.0,-1005.0,105.0,-108.0
-255.0,26.0,-43.0,4.0,49.0,6.0,-1006.0,102.0,-105.0
-257.0,27.0,-41.0,4.0,48.0,5.0,-1008.0,107.0,-102.0
-257.0,22.0,-45.0,4.0,47.0,5.0,-1009.0,103.0,-107.0
-258.0,21.0,-45.0,6.0,48.0,2.0,-1011.0,103.0,-112.0
-260.0,26.0,-44.0,5.0,47.0,4.0,-1008.0,103.0,-103.0
-257.0,25.0,-45.0,2.0,48.0,3.0,-1008.0,105.0,-106.0
-257.0,23.0,-46.0,1.0,50.0,2.0,-1017.0,103.0,-104.0
-258.0,24.0,-43.0,2.0,51.0,1.0,-1009.0,104.0,-106.0
-258.0,21.0,-42.0,2.0,53.0,0.0,-1015.0,102.0,-111.0
-261.0,24.0,-42.0,3.0,55.0,-1.0,-1006.0,99.0,-107.0
-259.0,21.0,-45.0,5.0,56.0,0.0,-1009.0,97.0,-104.0
-258.0,24.0,-43.0,7.0,57.0,-1.0,-1003.0,101.0,-107.0
-260.0,22.0,-44.0,8.0,59.0,0.0,-1002.0,102.0,-112.0
-261.0,24.0,-48.0,9.0,58.0,-1.0,-1003.0,101.0,-107.0
-256.0,22.0,-44.0,8.0,57.0,0.0,-1005.0,103.0,-102.0
-259.0,24.0,-45.0,8.0,56.0,-1.0,-1004.0,100.0,-109.0
-254.0,24.0,-45.0,10.0,57.0,1.0,-1002.0,97.0,-103.0
-260.0,24.0,-41.0,8.0,58.0,0.0,-1005.0,102.0,-105.0
-261.0,23.0,-45.0,6.0,57.0,0.0,-1007.0,99.0,-103.0
-259.0,23.0,-46.0,8.0,56.0,-2.0,-1007.0,100.0,-106.0
-260.0,22.0,-45.0,8.0,56.0,0.0,-1006.0,101.0,-103.0
-258.0,21.0,-43.0,7.0,54.0,-2.0,-1006.0,104.0,-109.0
-258.0,21.0,-46.0,6.0,55.0,1.0,-1004.0,100.0,-114.0
-259.0,24.0,-46.0,5.0,55.0,-1.0,-1008.0,98.0,-107.0
-261.0,22.0,-43.0,5.0,54.0,-1.0,-1012.0,98.0,-112.0
-258.0,24.0,-46.0,4.0,55.0,-2.0,-1007.0,96.0,-106.0
-260.0,24.0,-45.0,5.0,56.0,0.0,-1013.0,99.0,-111.0
-262.0,24.0,-47.0,4.0,56.0,-1.0,-1008.0,98.0,-111.0
-258.0,22.0,-46.0,3.0,55.0,1.0,-1009.0,99.0,-114.0
-260.0,23.0,-47.0,3.0,53.0,0.0,-1005.0,103.0,-108.0
-259.0,23.0,-45.0,3.0,53.0,2.0,-1008.0,102.0,-109.0
-259.0,26.0,-41.0,2.0,51.0,0.0,-1005.0,100.0,-109.0
-260.0,23.0,-46.0,2.0,51.0,2.0,-1008.0,104.0,-112.0
-255.0,22.0,-43.0,1.0,48.0,1.0,-1002.0,102.0,-108.0
-258.0,23.0,-44.0,2.0,46.0,3.0,-1008.0,100.0,-110.0
-260.0,24.0,-48.0,3.0,44.0,2.0,-1004.0,99.0,-113.0
-259.0,23.0,-45.0,4.0,43.0,3.0,-1012.0,94.0,-106.0
-258.0,21.0,-42.0,7.0,43.0,0.0,-1009.0,98.0,-110.0
-258.0,24.0,-47.0,8.0,43.0,-1.0,-1013.0,103.0,-107.0
-258.0,21.0,-43.0,8.0,45.0,-4.0,-1009.0,96.0,-107.0
-258.0,22.0,-44.0,7.0,46.0,-2.0,-1008.0,101.0,-103.0
-261.0,20.0,-44.0,7.0,49.0,-3.0,-1011.0,98.0,-102.0
-257.0,19.0,-43.0,9.0,51.0,1.0,-1009.0,98.0,-104.0
-258.0,23.0,-45.0,9.0,53.0,0.0,-1010.0,97.0,-104.0
-259.0,23.0,-44.0,9.0,55.0,2.0,-1006.0,102.0,-105.0
-259.0,21.0,-46.0,9.0,55.0,2.0,-1013.0,96.0,-109.0
-257.0,23.0,-45.0,8.0,54.0,3.0,-1015.0,101.0,-110.0
-257.0,22.0,-43.0,7.0,55.0,1.0,-1008.0,103.0,-103.0
-257.0,24.0,-46.0,6.0,54.0,4.0,-1009.0,104.0,-107.0
-259.0,24.0,-45.0,5.0,53.0,2.0,-1003.0,106.0,-103.0
-256.0,23.0,-46.0,3.0,52.0,3.0,-1003.0,107.0,-104.0
-257.0,23.0,-40.0,1.0,52.0,1.0,-1004.0,103.0,-106.0
-257.0,24.0,-44.0,2.0,51.0,3.0,-1005.0,101.0,-99.0
-256.0,22.0,-44.0,0.0,52.0,2.0,-1005.0,96.0,-105.0
-257.0,24.0,-42.0,0.0,52.0,4.0,-1006.0,101.0,-104.0
-259.0,24.0,-42.0,1.0,50.0,4.0,-1005.0,102.0,-104.0
-257.0,26.0,-41.0,3.0,51.0,5.0,-1009.0,96.0,-103.0
-256.0,21.0,-43.0,4.0,51.0,4.0,-1008.0,96.0,-104.0
-259.0,23.0,-44.0,7.0,52.0,5.0,-1005.0,99.0,-106.0
-259.0,23.0,-42.0,9.0,51.0,2.0,-1006.0,101.0,-106.0
-260.0,23.0,-42.0,8.0,50.0,4.0,-1005.0,99.0,-101.0
-259.0,24.0,-48.0,10.0,51.0,2.0,-1007.0,101.0,-104.0
-260.0,24.0,-43.0,11.0,52.0,5.0,-1010.0,104.0,-103.0
-258.0,24.0,-43.0,12.0,52.0,3.0,-1008.0,104.0,-103.0
-258.0,23.0,-44.0,11.0,53.0,3.0,-1011.0,104.0,-100.0
-260.0,25.0,-44.0,11.0,53.0,1.0,-1012.0,103.0,-100.0
-263.0,24.0,-43.0,9.0,53.0,4.0,-1004.0,107.0,-105.0
-257.0,21.0,-43.0,9.0,54.0,1.0,-1009.0,103.0,-106.0
-256.0,22.0,-48.0,11.0,55.0,2.0,-1004.0,98.0,-106.0
-260.0,24.0,-44.0,10.0,57.0,0.0,-1009.0,104.0,-103.0
-262.0,23.0,-42.0,8.0,55.0,4.0,-1004.0,99.0,-102.0
-259.0,20.0,-39.0,8.0,57.0,2.0,-1007.0,96.0,-104.0
-259.0,23.0,-39.0,10.0,57.0,5.0,-1008.0,101.0,-101.0
-259.0,22.0,-43.0,9.0,56.0,5.0,-1012.0,104.0,-100.0
-258.0,23.0,-43.0,9.0,56.0,5.0,-1004.0,101.0,-103.0
-257.0,28.0,-43.0,11.0,58.0,2.0,-1007.0,103.0,-102.0
-258.0,27.0,-44.0,11.0,58.0,5.0,-1007.0,108.0,-106.0
-256.0,25.0,-44.0,8.0,58.0,1.0,-1012.0,110.0,-108.0
-260.0,25.0,-42.0,8.0,59.0,2.0,-1012.0,112.0,-104.0
-259.0,26.0,-48.0,7.0,59.0,0.0,-1007.0,105.0,-105.0
-257.0,24.0,-46.0,6.0,57.0,1.0,-1011.0,106.0,-102.0
-257.0,23.0,-42.0,4.0,56.0,-2.0,-1011.0,101.0,-109.0
-260.0,24.0,-46.0,6.0,56.0,0.0,-1008.0,101.0,-110.0
-262.0,20.0,-41.0,10.0,54.0,-2.0,-1008.0,98.0,-108.0
-261.0,22.0,-46.0,8.0,55.0,1.0,-1007.0,96.0,-104.0
-259.0,22.0,-47.0,7.0,55.0,-1.0,-1009.0,97.0,-110.0
-258.0,24.0,-47.0,7.0,54.0,2.0,-1010.0,95.0,-100.0
-259.0,21.0,-41.0,8.0,53.0,1.0,-1009.0,97.0,-109.0
-260.0,21.0,-41.0,6.0,53.0,4.0,-1005.0,100.0,-105.0
-259.0,25.0,-47.0,5.0,51.0,2.0,-1008.0,100.0,-103.0
-258.0,24.0,-41.0,4.0,52.0,4.0,-1007.0,99.0,-102.0
-256.0,24.0,-46.0,4.0,51.0,3.0,-1007.0,101.0,-103.0
-258.0,23.0,-45.0,3.0,51.0,4.0,-1010.0,104.0,-106.0
-260.0,27.0,-46.0,4.0,52.0,2.0,-1009.0,98.0,-100.0
-259.0,24.0,-45.0,3.0,51.0,4.0,-1009.0,105.0,-102.0
-257.0,24.0,-47.0,3.0,52.0,3.0,-1007.0,103.0,-101.0
-259.0,27.0,-42.0,1.0,51.0,5.0,-1008.0,97.0,-102.0
-257.0,22.0,-43.0,2.0,51.0,3.0,-1007.0,102.0,-103.0
-262.0,19.0,-42.0,1.0,50.0,4.0,-1006.0,102.0,-104.0
-260.0,23.0,-47.0,0.0,49.0,2.0,-1014.0,98.0,-104.0
-257.0,24.0,-44.0,0.0,50.0,5.0,-1008.0,96.0,-101.0
-260.0,20.0,-40.0,0.0,51.0,3.0,-1008.0,95.0,-101.0
-259.0,22.0,-39.0,-1.0,49.0,4.0,-1007.0,95.0,-106.0
-260.0,22.0,-46.0,-1.0,51.0,3.0,-1007.0,100.0,-103.0
-259.0,23.0,-43.0,0.0,49.0,3.0,-1006.0,97.0,-103.0
-261.0,25.0,-44.0,1.0,49.0,2.0,-1011.0,101.0,-104.0
-257.0,23.0,-43.0,0.0,48.0,4.0,-1010.0,104.0,-106.0
-258.0,23.0,-42.0,0.0,49.0,1.0,-1011.0,100.0,-104.0
-259.0,22.0,-43.0,2.0,49.0,3.0,-1009.0,100.0,-101.0
-261.0,24.0,-46.0,2.0,50.0,-1.0,-1011.0,104.0,-97.0
-259.0,23.0,-42.0,1.0,50.0,1.0,-1013.0,102.0,-106.0
-258.0,20.0,-47.0,3.0,52.0,-1.0,-1009.0,97.0,-103.0
-258.0,21.0,-43.0,3.0,54.0,0.0,-1010.0,98.0,-99.0
-260.0,21.0,-44.0,4.0,55.0,-3.0,-1010.0,99.0,-99.0
-261.0,23.0,-43.0,4.0,57.0,-1.0,-1010.0,98.0,-103.0
-257.0,21.0,-43.0,3.0,59.0,-4.0,-1012.0,95.0,-104.0
-258.0,24.0,-43.0,4.0,60.0,-1.0,-1010.0,97.0,-103.0
-260.0,24.0,-41.0,3.0,61.0,-5.0,-1009.0,102.0,-102.0
-258.0,25.0,-42.0,3.0,62.0,0.0,-1004.0,105.0,-102.0
-258.0,26.0,-45.0,4.0,62.0,-2.0,-1006.0,100.0,-106.0
-260.0,29.0,-47.0,2.0,61.0,1.0,-1005.0,104.0,-102.0
-257.0,26.0,-43.0,3.0,60.0,0.0,-1004.0,104.0,-97.0
-258.0,25.0,-43.0,4.0,58.0,4.0,-1005.0,101.0,-100.0
-260.0,24.0,-46.0,3.0,57.0,3.0,-1009.0,98.0,-102.0
-259.0,22.0,-42.0,5.0,55.0,6.0,-1005.0,100.0,-96.0
-256.0,24.0,-40.0,4.0,56.0,4.0,-1007.0,100.0,-102.0
-260.0,24.0,-43.0,2.0,55.0,7.0,-1005.0,101.0,-101.0
-257.0,22.0,-42.0,1.0,56.0,4.0,-1005.0,103.0,-103.0
-260.0,24.0,-48.0,2.0,55.0,6.0,-1010.0,102.0,-99.0
-259.0,24.0,-41.0,2.0,56.0,2.0,-1010.0,99.0,-101.0
-262.0,23.0,-43.0,3.0,56.0,4.0,-1006.0,97.0,-99.0
-261.0,25.0,-43.0,3.0,58.0,1.0,-1004.0,105.0,-100.0
-261.0,26.0,-41.0,2.0,60.0,3.0,-1007.0,107.0,-98.0
-259.0,27.0,-44.0,2.0,61.0,2.0,-1010.0,106.0,-99.0
-259.0,23.0,-44.0,-1.0,60.0,2.0,-1008.0,106.0,-98.0
-260.0,25.0,-44.0,-2.0,63.0,1.0,-1004.0,104.0,-104.0
-261.0,23.0,-44.0,-1.0,62.0,3.0,-1008.0,102.0,-105.0
-258.0,20.0,-48.0,-3.0,64.0,0.0,-1010.0,99.0,-104.0
-258.0,22.0,-46.0,-4.0,62.0,2.0,-1005.0,98.0,-102.0
-258.0,22.0,-44.0,-2.0,60.0,-1.0,-1008.0,102.0,-105.0
-261.0,24.0,-44.0,0.0,58.0,3.0,-1010.0,101.0,-107.0
-256.0,23.0,-45.0,4.0,56.0,2.0,-1007.0,101.0,-104.0
-258.0,23.0,-44.0,2.0,56.0,5.0,-1007.0,101.0,-104.0
-259.0,23.0,-46.0,-1.0,56.0,2.0,-1007.0,103.0,-100.0
-258.0,25.0,-41.0,-2.0,56.0,4.0,-1006.0,104.0,-101.0
-259.0,25.0,-40.0,-4.0,56.0,2.0,-1012.0,107.0,-99.0
-256.0,24.0,-42.0,-7.0,55.0,4.0,-1011.0,105.0,-103.0
-257.0,24.0,-44.0,-6.0,56.0,3.0,-1004.0,104.0,-104.0
-260.0,24.0,-42.0,-6.0,56.0,6.0,-1007.0,100.0,-107.0
-255.0,21.0,-44.0,-6.0,56.0,5.0,-1008.0,97.0,-99.0
-258.0,22.0,-49.0,-5.0,55.0,8.0,-1005.0,98.0,-102.0
-259.0,23.0,-39.0,-4.0,57.0,4.0,-1012.0,105.0,-102.0
-257.0,25.0,-43.0,-6.0,58.0,5.0,-1010.0,107.0,-100.0
