acc1_x,acc1_y,acc1_z,gyro_x,gyro_y,gyro_z,acc2_x,acc2_y,acc2_z
12.0,-773.0,-149.0,2201.0,1108.0,230.0,38.0,-2997.0,-484.0
44.0,-626.0,-290.0,2612.0,812.0,202.0,216.0,-2546.0,-1092.0
62.0,-499.0,-302.0,2254.0,101.0,160.0,288.0,-2075.0,-1213.0
58.0,-434.0,-205.0,1812.0,-578.0,264.0,228.0,-1749.0,-884.0
49.0,-427.0,-109.0,1597.0,-961.0,585.0,161.0,-1656.0,-458.0
46.0,-437.0,-57.0,1572.0,-1111.0,1023.0,120.0,-1720.0,-165.0
76.0,-452.0,-42.0,1510.0,-1156.0,1428.0,215.0,-1782.0,-99.0
91.0,-461.0,-40.0,1298.0,-1100.0,1707.0,283.0,-1839.0,-103.0
107.0,-466.0,-60.0,944.0,-956.0,1845.0,333.0,-1885.0,-173.0
123.0,-472.0,-71.0,463.0,-784.0,1866.0,414.0,-1912.0,-214.0
141.0,-482.0,-64.0,-80.0,-653.0,1807.0,488.0,-1943.0,-205.0
142.0,-494.0,-60.0,-568.0,-562.0,1712.0,488.0,-1959.0,-169.0
131.0,-523.0,-55.0,-950.0,-480.0,1664.0,448.0,-2039.0,-140.0
118.0,-547.0,-46.0,-1192.0,-411.0,1601.0,406.0,-2105.0,-110.0
91.0,-552.0,-50.0,-1291.0,-393.0,1504.0,322.0,-2135.0,-122.0
69.0,-545.0,-49.0,-1282.0,-386.0,1461.0,201.0,-2084.0,-123.0
23.0,-522.0,-45.0,-1127.0,-354.0,1475.0,33.0,-1993.0,-109.0
-29.0,-492.0,-39.0,-905.0,-328.0,1517.0,-143.0,-1872.0,-79.0
-88.0,-449.0,-25.0,-612.0,-332.0,1565.0,-359.0,-1691.0,-24.0
-136.0,-394.0,-5.0,-291.0,-370.0,1597.0,-534.0,-1452.0,58.0
-175.0,-331.0,9.0,-1.0,-436.0,1612.0,-713.0,-1229.0,107.0
-206.0,-265.0,15.0,219.0,-512.0,1589.0,-830.0,-1012.0,125.0
-210.0,-210.0,4.0,344.0,-570.0,1511.0,-864.0,-812.0,76.0
-201.0,-157.0,-29.0,325.0,-581.0,1363.0,-814.0,-648.0,-22.0
-193.0,-130.0,-37.0,141.0,-548.0,1177.0,-777.0,-499.0,-80.0
-186.0,-96.0,-42.0,-113.0,-487.0,995.0,-733.0,-365.0,-91.0
-156.0,-69.0,-48.0,-311.0,-447.0,768.0,-608.0,-287.0,-139.0
-121.0,-38.0,-56.0,-475.0,-455.0,479.0,-474.0,-142.0,-157.0
-83.0,-5.0,-55.0,-533.0,-526.0,256.0,-324.0,-25.0,-154.0
-51.0,15.0,-57.0,-486.0,-708.0,68.0,-206.0,69.0,-178.0
0.0,34.0,-72.0,-353.0,-907.0,-13.0,-6.0,133.0,-214.0
53.0,38.0,-103.0,-193.0,-1107.0,-101.0,185.0,150.0,-318.0
88.0,40.0,-133.0,-73.0,-1291.0,-209.0,305.0,137.0,-476.0
101.0,38.0,-146.0,-64.0,-1427.0,-333.0,378.0,119.0,-528.0
110.0,39.0,-147.0,-132.0,-1500.0,-445.0,405.0,115.0,-519.0
115.0,29.0,-149.0,-213.0,-1511.0,-548.0,412.0,84.0,-533.0
112.0,13.0,-156.0,-292.0,-1452.0,-637.0,373.0,13.0,-566.0
98.0,-20.0,-173.0,-372.0,-1304.0,-726.0,319.0,-111.0,-607.0
83.0,-65.0,-171.0,-447.0,-1068.0,-815.0,267.0,-257.0,-603.0
61.0,-102.0,-141.0,-464.0,-772.0,-910.0,188.0,-379.0,-501.0
29.0,-139.0,-92.0,-364.0,-467.0,-972.0,76.0,-485.0,-324.0
-9.0,-156.0,-54.0,-107.0,-231.0,-994.0,-50.0,-534.0,-165.0
-35.0,-155.0,-31.0,300.0,-111.0,-966.0,-165.0,-519.0,-51.0
-75.0,-126.0,-4.0,815.0,-124.0,-869.0,-282.0,-414.0,24.0
-101.0,-82.0,-5.0,1526.0,-241.0,-734.0,-377.0,-255.0,42.0
-117.0,-20.0,-15.0,2106.0,-417.0,-575.0,-433.0,-53.0,9.0
-113.0,35.0,-51.0,2576.0,-609.0,-410.0,-440.0,187.0,-131.0
-100.0,96.0,-88.0,2844.0,-759.0,-286.0,-379.0,359.0,-269.0
-70.0,142.0,-124.0,2863.0,-852.0,-211.0,-272.0,487.0,-418.0
-33.0,177.0,-161.0,2636.0,-882.0,-196.0,-151.0,574.0,-572.0
10.0,190.0,-187.0,2173.0,-847.0,-209.0,15.0,596.0,-685.0
35.0,188.0,-206.0,1528.0,-768.0,-237.0,144.0,578.0,-775.0
77.0,167.0,-219.0,782.0,-708.0,-234.0,295.0,494.0,-831.0
75.0,120.0,-246.0,29.0,-738.0,-250.0,321.0,330.0,-941.0
12.0,87.0,-284.0,-725.0,-971.0,-323.0,127.0,208.0,-1099.0
-63.0,48.0,-352.0,-1472.0,-1454.0,-373.0,-163.0,57.0,-1344.0
-115.0,-24.0,-454.0,-2251.0,-2012.0,-293.0,-434.0,-203.0,-1714.0
-58.0,-149.0,-565.0,-3049.0,-2244.0,-1.0,-424.0,-603.0,-2117.0
44.0,-333.0,-589.0,-3724.0,-1650.0,367.0,-135.0,-1149.0,-2319.0
91.0,-579.0,-340.0,-3713.0,-477.0,718.0,106.0,-1885.0,-1650.0
105.0,-784.0,-43.0,-2888.0,677.0,1016.0,255.0,-2913.0,149.0
135.0,-1003.0,260.0,-1304.0,1252.0,1266.0,544.0,-3648.0,1166.0
146.0,-1072.0,305.0,509.0,983.0,1309.0,620.0,-3913.0,1224.0
133.0,-971.0,101.0,1905.0,120.0,1157.0,530.0,-3652.0,435.0
130.0,-782.0,-194.0,2512.0,-663.0,943.0,426.0,-3078.0,-671.0
128.0,-603.0,-395.0,2370.0,-905.0,673.0,337.0,-2444.0,-1468.0
91.0,-468.0,-424.0,1891.0,-519.0,350.0,192.0,-1908.0,-1630.0
33.0,-392.0,-290.0,1532.0,222.0,53.0,26.0,-1530.0,-1191.0
-42.0,-351.0,-147.0,1498.0,894.0,-174.0,-207.0,-1356.0,-613.0
-95.0,-335.0,-89.0,1605.0,1336.0,-327.0,-435.0,-1331.0,-289.0
-140.0,-344.0,-62.0,1517.0,1584.0,-454.0,-584.0,-1397.0,-169.0
-171.0,-366.0,-44.0,1100.0,1645.0,-654.0,-686.0,-1481.0,-117.0
-203.0,-394.0,-40.0,315.0,1495.0,-832.0,-779.0,-1597.0,-98.0
-208.0,-449.0,-30.0,-363.0,1227.0,-972.0,-823.0,-1746.0,-62.0
-190.0,-511.0,-20.0,-888.0,953.0,-1062.0,-760.0,-1995.0,-33.0
-154.0,-574.0,-42.0,-1213.0,754.0,-1115.0,-656.0,-2203.0,-82.0
-112.0,-626.0,-54.0,-1390.0,675.0,-1134.0,-514.0,-2392.0,-148.0
-74.0,-661.0,-52.0,-1447.0,701.0,-1144.0,-364.0,-2511.0,-136.0
-52.0,-674.0,-34.0,-1355.0,786.0,-1174.0,-270.0,-2550.0,-53.0
-33.0,-676.0,-5.0,-1118.0,863.0,-1192.0,-191.0,-2545.0,57.0
-5.0,-658.0,10.0,-787.0,908.0,-1188.0,-85.0,-2490.0,116.0
39.0,-626.0,17.0,-436.0,925.0,-1172.0,80.0,-2371.0,139.0
83.0,-576.0,14.0,-125.0,935.0,-1181.0,252.0,-2197.0,137.0
119.0,-501.0,3.0,121.0,932.0,-1215.0,385.0,-1955.0,95.0
142.0,-413.0,-15.0,271.0,943.0,-1249.0,488.0,-1659.0,41.0
164.0,-338.0,-10.0,291.0,1004.0,-1231.0,522.0,-1404.0,-1.0
217.0,-280.0,2.0,138.0,1072.0,-1180.0,745.0,-1173.0,61.0
239.0,-228.0,6.0,-67.0,1123.0,-1143.0,876.0,-937.0,77.0
235.0,-157.0,-15.0,-294.0,1173.0,-1113.0,867.0,-622.0,-10.0
211.0,-86.0,-59.0,-517.0,1213.0,-1042.0,790.0,-395.0,-180.0
197.0,-60.0,-99.0,-777.0,1265.0,-931.0,728.0,-292.0,-319.0
159.0,-15.0,-82.0,-1072.0,1340.0,-820.0,584.0,-99.0,-254.0
89.0,3.0,-58.0,-1224.0,1400.0,-645.0,345.0,5.0,-151.0
35.0,-2.0,-30.0,-1160.0,1400.0,-407.0,154.0,23.0,-67.0
-20.0,-4.0,-25.0,-938.0,1330.0,-171.0,-63.0,21.0,-33.0
-62.0,-10.0,-31.0,-584.0,1250.0,67.0,-225.0,13.0,-51.0
-84.0,-4.0,-32.0,-163.0,1230.0,268.0,-354.0,38.0,-47.0
-123.0,9.0,-25.0,270.0,1244.0,419.0,-483.0,79.0,-40.0
-152.0,31.0,-24.0,638.0,1218.0,548.0,-585.0,150.0,-32.0
-169.0,63.0,-24.0,917.0,1106.0,650.0,-634.0,250.0,-31.0
-140.0,80.0,-36.0,1109.0,984.0,749.0,-553.0,287.0,-71.0
-115.0,91.0,-61.0,1090.0,881.0,823.0,-464.0,314.0,-175.0
-87.0,101.0,-92.0,901.0,792.0,853.0,-340.0,315.0,-300.0
-59.0,85.0,-126.0,551.0,651.0,846.0,-202.0,263.0,-447.0
-19.0,53.0,-150.0,134.0,435.0,800.0,-62.0,149.0,-535.0
14.0,12.0,-142.0,-233.0,173.0,751.0,92.0,-10.0,-530.0
51.0,-44.0,-133.0,-427.0,-88.0,690.0,220.0,-177.0,-468.0
81.0,-89.0,-118.0,-371.0,-283.0,623.0,302.0,-297.0,-394.0
95.0,-115.0,-106.0,-59.0,-383.0,557.0,329.0,-389.0,-353.0
95.0,-119.0,-103.0,422.0,-414.0,512.0,335.0,-406.0,-336.0
98.0,-98.0,-102.0,952.0,-402.0,485.0,338.0,-358.0,-343.0
101.0,-66.0,-101.0,1415.0,-349.0,477.0,347.0,-252.0,-334.0
102.0,-14.0,-90.0,1755.0,-237.0,460.0,343.0,-92.0,-296.0
96.0,37.0,-79.0,2001.0,-6.0,442.0,323.0,93.0,-257.0
80.0,78.0,-84.0,2079.0,243.0,411.0,266.0,271.0,-251.0
54.0,124.0,-84.0,2023.0,505.0,380.0,154.0,438.0,-264.0
24.0,151.0,-91.0,1794.0,745.0,331.0,55.0,504.0,-298.0
-14.0,156.0,-99.0,1378.0,930.0,253.0,-80.0,502.0,-333.0
-67.0,150.0,-111.0,806.0,1032.0,146.0,-257.0,474.0,-365.0
-104.0,126.0,-114.0,174.0,1026.0,58.0,-385.0,396.0,-384.0
-116.0,80.0,-110.0,-401.0,949.0,-8.0,-431.0,270.0,-375.0
-125.0,22.0,-127.0,-833.0,842.0,-64.0,-479.0,89.0,-435.0
-133.0,-45.0,-153.0,-1097.0,722.0,-93.0,-516.0,-135.0,-536.0
-107.0,-108.0,-178.0,-1148.0,608.0,-83.0,-413.0,-388.0,-639.0
-6.0,-191.0,-198.0,-937.0,536.0,-79.0,-57.0,-668.0,-737.0
113.0,-260.0,-309.0,-482.0,498.0,-147.0,405.0,-946.0,-1121.0
172.0,-285.0,-564.0,-72.0,350.0,-327.0,691.0,-1195.0,-2104.0
176.0,-315.0,-795.0,-412.0,-249.0,-469.0,725.0,-1413.0,-3120.0
139.0,-456.0,-669.0,-1408.0,-820.0,-603.0,527.0,-1942.0,-2631.0
43.0,-703.0,-168.0,-2171.0,-999.0,-754.0,42.0,-2605.0,-654.0
-42.0,-930.0,210.0,-1847.0,-799.0,-771.0,-349.0,-3294.0,872.0
-57.0,-1034.0,250.0,-550.0,-224.0,-549.0,-453.0,-3715.0,1136.0
-47.0,-1017.0,138.0,975.0,578.0,-317.0,-317.0,-3718.0,579.0
-41.0,-891.0,-61.0,2099.0,1035.0,-283.0,-146.0,-3352.0,-207.0
-23.0,-702.0,-227.0,2549.0,764.0,-442.0,-40.0,-2727.0,-887.0
-25.0,-513.0,-295.0,2484.0,91.0,-594.0,-98.0,-2036.0,-1124.0
-54.0,-377.0,-244.0,2315.0,-434.0,-557.0,-231.0,-1507.0,-959.0
-65.0,-312.0,-140.0,2230.0,-663.0,-284.0,-307.0,-1251.0,-565.0
-20.0,-312.0,-36.0,2111.0,-735.0,152.0,-168.0,-1260.0,-131.0
42.0,-336.0,17.0,1802.0,-717.0,519.0,57.0,-1382.0,123.0
94.0,-369.0,5.0,1261.0,-587.0,770.0,252.0,-1522.0,132.0
135.0,-392.0,-22.0,388.0,-429.0,871.0,452.0,-1639.0,-12.0
194.0,-421.0,-69.0,-388.0,-264.0,953.0,673.0,-1742.0,-214.0
239.0,-445.0,-88.0,-1046.0,-96.0,1047.0,863.0,-1791.0,-282.0
258.0,-478.0,-82.0,-1450.0,44.0,1170.0,946.0,-1870.0,-262.0
265.0,-513.0,-89.0,-1574.0,117.0,1280.0,962.0,-1996.0,-285.0
252.0,-550.0,-99.0,-1564.0,150.0,1386.0,928.0,-2142.0,-326.0
233.0,-587.0,-97.0,-1538.0,220.0,1455.0,817.0,-2258.0,-311.0
186.0,-611.0,-81.0,-1475.0,353.0,1489.0,661.0,-2332.0,-247.0
133.0,-624.0,-57.0,-1327.0,515.0,1485.0,469.0,-2361.0,-167.0
86.0,-618.0,-38.0,-1070.0,665.0,1446.0,255.0,-2322.0,-75.0
40.0,-582.0,-15.0,-715.0,770.0,1373.0,80.0,-2181.0,23.0
3.0,-528.0,-3.0,-302.0,823.0,1289.0,-38.0,-1991.0,49.0
-47.0,-457.0,-17.0,90.0,848.0,1181.0,-213.0,-1743.0,6.0
-73.0,-378.0,-22.0,411.0,867.0,1101.0,-306.0,-1449.0,-5.0
-107.0,-286.0,-14.0,734.0,814.0,1003.0,-404.0,-1135.0,-5.0
-143.0,-208.0,5.0,923.0,691.0,941.0,-561.0,-775.0,71.0
-182.0,-137.0,30.0,1067.0,518.0,881.0,-703.0,-517.0,161.0
-214.0,-76.0,44.0,1160.0,308.0,819.0,-816.0,-301.0,224.0
-232.0,-33.0,51.0,1162.0,71.0,744.0,-886.0,-117.0,246.0
-244.0,13.0,47.0,1061.0,-205.0,671.0,-922.0,62.0,232.0
-234.0,40.0,10.0,914.0,-480.0,565.0,-899.0,155.0,109.0
-207.0,66.0,-28.0,731.0,-708.0,417.0,-795.0,245.0,-49.0
-154.0,82.0,-70.0,536.0,-889.0,267.0,-602.0,293.0,-206.0
-94.0,71.0,-118.0,361.0,-1037.0,150.0,-393.0,256.0,-387.0
-29.0,52.0,-140.0,171.0,-1150.0,17.0,-155.0,185.0,-483.0
3.0,30.0,-123.0,-29.0,-1201.0,-138.0,-7.0,95.0,-466.0
19.0,2.0,-73.0,-210.0,-1204.0,-285.0,57.0,16.0,-316.0
21.0,-18.0,-45.0,-284.0,-1233.0,-345.0,83.0,-56.0,-123.0
13.0,-40.0,-32.0,-142.0,-1274.0,-412.0,44.0,-119.0,-59.0
2.0,-47.0,-64.0,103.0,-1269.0,-472.0,-26.0,-154.0,-211.0
-1.0,-41.0,-125.0,348.0,-1166.0,-539.0,-59.0,-146.0,-440.0
-3.0,-30.0,-175.0,513.0,-962.0,-600.0,-63.0,-137.0,-641.0
3.0,-30.0,-188.0,584.0,-719.0,-684.0,-31.0,-124.0,-699.0
10.0,-33.0,-168.0,628.0,-507.0,-792.0,7.0,-131.0,-613.0
7.0,-35.0,-116.0,715.0,-374.0,-909.0,12.0,-125.0,-431.0
-7.0,-33.0,-69.0,876.0,-341.0,-987.0,-15.0,-102.0,-245.0
-21.0,-22.0,-37.0,1105.0,-401.0,-1002.0,-82.0,-51.0,-77.0
-47.0,-4.0,-9.0,1377.0,-532.0,-949.0,-179.0,11.0,20.0
-78.0,24.0,-6.0,1621.0,-704.0,-851.0,-283.0,98.0,36.0
-103.0,56.0,-17.0,1769.0,-884.0,-724.0,-380.0,189.0,-9.0
-119.0,87.0,-46.0,1772.0,-1057.0,-573.0,-446.0,297.0,-92.0
-119.0,123.0,-82.0,1568.0,-1229.0,-465.0,-460.0,383.0,-222.0
-95.0,142.0,-121.0,1235.0,-1317.0,-363.0,-402.0,464.0,-419.0
-51.0,152.0,-158.0,778.0,-1349.0,-275.0,-208.0,466.0,-568.0
2.0,149.0,-176.0,233.0,-1332.0,-250.0,-13.0,465.0,-636.0
46.0,137.0,-177.0,-335.0,-1257.0,-234.0,167.0,407.0,-636.0
88.0,105.0,-155.0,-863.0,-1138.0,-206.0,328.0,311.0,-567.0
126.0,65.0,-137.0,-1274.0,-1010.0,-172.0,460.0,200.0,-482.0
136.0,25.0,-126.0,-1532.0,-898.0,-166.0,499.0,63.0,-438.0
114.0,-17.0,-133.0,-1672.0,-844.0,-177.0,427.0,-89.0,-461.0
57.0,-64.0,-157.0,-1778.0,-870.0,-193.0,247.0,-276.0,-554.0
-31.0,-124.0,-170.0,-1926.0,-1016.0,-209.0,-43.0,-485.0,-624.0
-101.0,-197.0,-159.0,-2133.0,-1341.0,-211.0,-324.0,-755.0,-600.0
-175.0,-296.0,-205.0,-2412.0,-1775.0,-176.0,-586.0,-1107.0,-632.0
-196.0,-350.0,-426.0,-2670.0,-2246.0,122.0,-832.0,-1399.0,-1558.0
-87.0,-409.0,-821.0,-2908.0,-2132.0,601.0,-607.0,-1634.0,-3404.0
60.0,-501.0,-903.0,-2990.0,-1125.0,983.0,-31.0,-1942.0,-3474.0
133.0,-673.0,-392.0,-2535.0,415.0,1072.0,333.0,-2428.0,-1390.0
88.0,-874.0,210.0,-1246.0,1392.0,1009.0,359.0,-3094.0,866.0
56.0,-1000.0,478.0,484.0,1155.0,951.0,341.0,-3640.0,1911.0
54.0,-976.0,357.0,1841.0,64.0,857.0,266.0,-3740.0,1552.0
73.0,-867.0,92.0,2332.0,-974.0,689.0,216.0,-3436.0,592.0
82.0,-726.0,-158.0,2124.0,-1366.0,371.0,170.0,-2952.0,-379.0
99.0,-624.0,-275.0,1615.0,-1118.0,-51.0,219.0,-2428.0,-1018.0
139.0,-509.0,-313.0,1186.0,-470.0,-446.0,354.0,-1961.0,-1161.0
145.0,-419.0,-246.0,1069.0,315.0,-758.0,420.0,-1607.0,-929.0
86.0,-369.0,-168.0,1168.0,961.0,-915.0,277.0,-1449.0,-627.0
8.0,-355.0,-75.0,1181.0,1311.0,-933.0,21.0,-1418.0,-300.0
-27.0,-363.0,13.0,893.0,1422.0,-886.0,-116.0,-1464.0,46.0
-40.0,-390.0,46.0,429.0,1393.0,-820.0,-178.0,-1621.0,233.0
-75.0,-437.0,34.0,-191.0,1316.0,-780.0,-307.0,-1753.0,207.0
-101.0,-478.0,11.0,-861.0,1168.0,-792.0,-412.0,-1895.0,129.0
-115.0,-510.0,-16.0,-1430.0,1001.0,-860.0,-514.0,-2018.0,-18.0
-137.0,-554.0,-45.0,-1808.0,901.0,-962.0,-592.0,-2144.0,-117.0
-134.0,-596.0,-38.0,-1985.0,850.0,-1045.0,-576.0,-2272.0,-78.0
-114.0,-632.0,-17.0,-1962.0,809.0,-1132.0,-494.0,-2380.0,-1.0
-79.0,-650.0,-2.0,-1799.0,784.0,-1215.0,-381.0,-2458.0,67.0
-28.0,-658.0,18.0,-1570.0,782.0,-1291.0,-198.0,-2489.0,138.0
25.0,-646.0,19.0,-1298.0,790.0,-1337.0,6.0,-2444.0,162.0
72.0,-608.0,19.0,-988.0,807.0,-1353.0,202.0,-2314.0,153.0
111.0,-547.0,6.0,-637.0,825.0,-1313.0,347.0,-2116.0,116.0
138.0,-504.0,0.0,-227.0,819.0,-1209.0,482.0,-1891.0,73.0
159.0,-437.0,5.0,299.0,791.0,-1121.0,560.0,-1651.0,73.0
155.0,-359.0,12.0,695.0,771.0,-1041.0,559.0,-1317.0,127.0
155.0,-283.0,-7.0,974.0,781.0,-960.0,552.0,-1091.0,50.0
125.0,-199.0,-51.0,1015.0,798.0,-903.0,439.0,-819.0,-139.0
80.0,-116.0,-66.0,819.0,833.0,-834.0,269.0,-510.0,-196.0
20.0,-48.0,-55.0,577.0,908.0,-724.0,68.0,-229.0,-147.0
-14.0,-12.0,-13.0,426.0,985.0,-510.0,-65.0,-50.0,-1.0
-22.0,12.0,11.0,449.0,1048.0,-227.0,-110.0,57.0,103.0
-20.0,22.0,11.0,587.0,1124.0,38.0,-112.0,93.0,115.0
-21.0,37.0,11.0,722.0,1233.0,195.0,-107.0,150.0,105.0
-10.0,50.0,15.0,800.0,1337.0,262.0,-53.0,191.0,128.0
-5.0,65.0,20.0,841.0,1397.0,252.0,-16.0,249.0,136.0
6.0,81.0,9.0,855.0,1369.0,218.0,37.0,300.0,112.0
28.0,94.0,-8.0,844.0,1244.0,178.0,107.0,337.0,54.0
39.0,100.0,-41.0,798.0,1119.0,137.0,154.0,353.0,-84.0
52.0,108.0,-87.0,666.0,990.0,116.0,213.0,349.0,-276.0
62.0,111.0,-141.0,396.0,865.0,123.0,254.0,336.0,-490.0
64.0,101.0,-184.0,-5.0,733.0,132.0,274.0,312.0,-669.0
64.0,90.0,-209.0,-478.0,560.0,157.0,260.0,257.0,-783.0
58.0,63.0,-204.0,-938.0,348.0,193.0,239.0,176.0,-763.0
48.0,24.0,-181.0,-1262.0,181.0,249.0,188.0,63.0,-661.0
37.0,-19.0,-131.0,-1378.0,116.0,329.0,126.0,-53.0,-489.0
35.0,-71.0,-76.0,-1234.0,150.0,433.0,89.0,-200.0,-260.0
39.0,-106.0,-54.0,-818.0,250.0,530.0,104.0,-318.0,-147.0
57.0,-114.0,-53.0,-228.0,402.0,603.0,151.0,-368.0,-125.0
79.0,-108.0,-50.0,401.0,613.0,636.0,220.0,-360.0,-124.0
92.0,-75.0,-53.0,962.0,929.0,622.0,281.0,-287.0,-139.0
96.0,-47.0,-57.0,1450.0,1214.0,555.0,320.0,-167.0,-152.0
92.0,-1.0,-64.0,1675.0,1473.0,445.0,317.0,6.0,-188.0
70.0,46.0,-74.0,1712.0,1664.0,311.0,250.0,143.0,-218.0
42.0,80.0,-78.0,1568.0,1751.0,185.0,169.0,245.0,-251.0
-1.0,102.0,-86.0,1268.0,1709.0,70.0,23.0,322.0,-280.0
-47.0,115.0,-89.0,849.0,1547.0,-12.0,-149.0,353.0,-296.0
-100.0,110.0,-84.0,358.0,1314.0,-55.0,-347.0,342.0,-290.0
-144.0,90.0,-76.0,-142.0,1073.0,-63.0,-528.0,296.0,-254.0
-189.0,59.0,-55.0,-595.0,862.0,-45.0,-690.0,199.0,-187.0
-214.0,25.0,-44.0,-959.0,685.0,-13.0,-833.0,77.0,-110.0
-257.0,-21.0,-29.0,-1209.0,520.0,26.0,-979.0,-84.0,-59.0
-272.0,-80.0,-17.0,-1339.0,341.0,78.0,-1051.0,-285.0,-6.0
-259.0,-146.0,-26.0,-1325.0,139.0,137.0,-1018.0,-507.0,-26.0
-221.0,-206.0,-69.0,-1122.0,-75.0,170.0,-911.0,-711.0,-192.0
-102.0,-266.0,-103.0,-780.0,-160.0,191.0,-571.0,-900.0,-337.0
132.0,-321.0,-202.0,-239.0,-116.0,140.0,419.0,-1141.0,-698.0
322.0,-300.0,-524.0,365.0,96.0,-91.0,1179.0,-1221.0,-1926.0
406.0,-243.0,-942.0,443.0,164.0,-419.0,1590.0,-1238.0,-3610.0
498.0,-259.0,-1163.0,-512.0,-215.0,-597.0,1995.0,-1471.0,-4812.0
555.0,-425.0,-1044.0,-2454.0,-534.0,-865.0,1934.0,-2106.0,-4147.0
290.0,-772.0,-98.0,-4629.0,-75.0,-1347.0,906.0,-2923.0,-321.0
68.0,-1075.0,413.0,-4917.0,666.0,-1354.0,184.0,-3774.0,1621.0
-22.0,-1247.0,458.0,-3366.0,964.0,-827.0,-110.0,-4419.0,1905.0
-87.0,-1252.0,267.0,-1193.0,812.0,-315.0,-344.0,-4584.0,1286.0
-122.0,-1130.0,-123.0,632.0,425.0,40.0,-500.0,-4361.0,-115.0
-139.0,-957.0,-422.0,1554.0,-13.0,239.0,-598.0,-3848.0,-1435.0
-165.0,-793.0,-416.0,1771.0,-258.0,373.0,-719.0,-3170.0,-1725.0
-192.0,-701.0,-283.0,2141.0,-263.0,532.0,-814.0,-2615.0,-1143.0
-188.0,-613.0,-82.0,2800.0,-304.0,809.0,-790.0,-2290.0,-170.0
-141.0,-548.0,54.0,3451.0,-445.0,1110.0,-547.0,-2054.0,312.0
-92.0,-475.0,114.0,3732.0,-633.0,1288.0,-385.0,-1854.0,520.0
-69.0,-384.0,115.0,3479.0,-851.0,1311.0,-272.0,-1595.0,532.0
-28.0,-306.0,82.0,2771.0,-1078.0,1248.0,-131.0,-1320.0,392.0
22.0,-236.0,16.0,1818.0,-1285.0,1159.0,48.0,-1074.0,166.0
79.0,-195.0,-45.0,856.0,-1421.0,1111.0,242.0,-884.0,-67.0
139.0,-193.0,-82.0,42.0,-1413.0,1121.0,430.0,-831.0,-236.0
177.0,-217.0,-91.0,-622.0,-1238.0,1164.0,602.0,-937.0,-288.0
197.0,-269.0,-80.0,-1193.0,-963.0,1184.0,685.0,-1109.0,-248.0
192.0,-324.0,-47.0,-1657.0,-683.0,1190.0,684.0,-1279.0,-104.0
174.0,-381.0,-14.0,-1930.0,-456.0,1193.0,628.0,-1467.0,18.0
149.0,-432.0,10.0,-1999.0,-262.0,1187.0,543.0,-1638.0,115.0
111.0,-472.0,13.0,-1909.0,-162.0,1135.0,396.0,-1778.0,137.0
71.0,-479.0,2.0,-1766.0,-97.0,1024.0,259.0,-1803.0,91.0
31.0,-448.0,-16.0,-1574.0,-23.0,877.0,65.0,-1694.0,30.0
-1.0,-410.0,-33.0,-1288.0,109.0,767.0,-58.0,-1532.0,-34.0
-30.0,-371.0,-39.0,-886.0,298.0,646.0,-186.0,-1334.0,-82.0
-69.0,-310.0,-37.0,-398.0,441.0,530.0,-298.0,-1101.0,-73.0
-99.0,-242.0,-21.0,101.0,473.0,432.0,-403.0,-863.0,-17.0
-125.0,-180.0,0.0,536.0,394.0,367.0,-479.0,-651.0,63.0
-146.0,-134.0,6.0,898.0,225.0,309.0,-570.0,-484.0,78.0
-152.0,-74.0,8.0,1112.0,13.0,249.0,-585.0,-293.0,99.0
-149.0,-20.0,0.0,1190.0,-197.0,148.0,-578.0,-113.0,70.0
-119.0,19.0,-18.0,1164.0,-369.0,60.0,-498.0,49.0,14.0
-78.0,56.0,-46.0,1097.0,-519.0,-45.0,-347.0,180.0,-83.0
-41.0,72.0,-74.0,1017.0,-613.0,-157.0,-173.0,259.0,-233.0
-6.0,85.0,-110.0,908.0,-664.0,-289.0,-35.0,301.0,-371.0
8.0,95.0,-121.0,751.0,-691.0,-412.0,27.0,320.0,-422.0
2.0,89.0,-119.0,522.0,-726.0,-525.0,1.0,285.0,-408.0
-11.0,74.0,-95.0,259.0,-777.0,-637.0,-35.0,254.0,-339.0
-24.0,59.0,-77.0,54.0,-814.0,-764.0,-107.0,218.0,-246.0
-37.0,51.0,-76.0,-21.0,-807.0,-871.0,-166.0,194.0,-227.0
-36.0,40.0,-90.0,21.0,-746.0,-946.0,-172.0,178.0,-288.0
-23.0,37.0,-125.0,116.0,-647.0,-994.0,-134.0,154.0,-406.0
-12.0,32.0,-151.0,214.0,-535.0,-1059.0,-70.0,133.0,-550.0
-2.0,31.0,-182.0,287.0,-428.0,-1136.0,-25.0,120.0,-660.0
-2.0,35.0,-196.0,338.0,-345.0,-1216.0,-17.0,127.0,-714.0
-8.0,35.0,-185.0,373.0,-303.0,-1272.0,-40.0,126.0,-699.0
-26.0,34.0,-161.0,399.0,-296.0,-1275.0,-95.0,118.0,-605.0
-51.0,34.0,-120.0,435.0,-322.0,-1221.0,-177.0,125.0,-456.0
-80.0,39.0,-74.0,472.0,-399.0,-1118.0,-285.0,136.0,-248.0
-106.0,40.0,-47.0,499.0,-552.0,-963.0,-385.0,142.0,-130.0
-105.0,36.0,-39.0,497.0,-757.0,-772.0,-400.0,139.0,-78.0
-90.0,34.0,-39.0,460.0,-965.0,-553.0,-310.0,101.0,-110.0
-42.0,29.0,-55.0,377.0,-1119.0,-341.0,-156.0,78.0,-156.0
6.0,23.0,-70.0,288.0,-1175.0,-161.0,8.0,65.0,-197.0
50.0,17.0,-80.0,235.0,-1121.0,-29.0,142.0,55.0,-243.0
92.0,11.0,-82.0,210.0,-984.0,81.0,300.0,18.0,-255.0
134.0,-1.0,-80.0,193.0,-796.0,141.0,455.0,-26.0,-253.0
165.0,-17.0,-67.0,170.0,-558.0,148.0,562.0,-75.0,-210.0
180.0,-36.0,-44.0,138.0,-274.0,128.0,629.0,-146.0,-113.0
170.0,-71.0,-8.0,100.0,21.0,112.0,631.0,-260.0,-6.0
147.0,-111.0,16.0,65.0,256.0,89.0,553.0,-424.0,118.0
70.0,-174.0,78.0,36.0,171.0,12.0,347.0,-653.0,313.0
-11.0,-232.0,140.0,-25.0,-450.0,-143.0,211.0,-985.0,530.0
-214.0,-219.0,-126.0,-375.0,-1915.0,-113.0,-589.0,-1089.0,-595.0
-292.0,-180.0,-623.0,-1544.0,-3973.0,433.0,-1126.0,-1013.0,-2460.0
-140.0,-225.0,-1052.0,-3189.0,-4778.0,973.0,-997.0,-1020.0,-4064.0
-76.0,-346.0,-1033.0,-4237.0,-3059.0,1065.0,-854.0,-1262.0,-4175.0
-74.0,-643.0,-347.0,-4108.0,-172.0,1249.0,-496.0,-2090.0,-1718.0
-108.0,-918.0,167.0,-2663.0,1532.0,1600.0,-311.0,-3104.0,429.0
-91.0,-1026.0,271.0,-807.0,1294.0,1659.0,-254.0,-3790.0,1084.0
9.0,-1063.0,184.0,383.0,341.0,1274.0,3.0,-4059.0,803.0
121.0,-1012.0,16.0,649.0,-302.0,685.0,391.0,-3974.0,172.0
172.0,-937.0,-135.0,261.0,-659.0,179.0,582.0,-3703.0,-417.0
186.0,-857.0,-207.0,-233.0,-834.0,-343.0,600.0,-3329.0,-726.0
162.0,-769.0,-218.0,-301.0,-629.0,-791.0,509.0,-2943.0,-790.0
121.0,-694.0,-195.0,78.0,-250.0,-1113.0,369.0,-2665.0,-749.0
77.0,-638.0,-146.0,532.0,163.0,-1269.0,232.0,-2431.0,-505.0
26.0,-584.0,-80.0,878.0,540.0,-1331.0,22.0,-2265.0,-263.0
3.0,-549.0,-32.0,1063.0,867.0,-1338.0,-75.0,-2099.0,-40.0
-11.0,-499.0,8.0,1089.0,1080.0,-1334.0,-89.0,-1927.0,101.0
-27.0,-437.0,26.0,977.0,1111.0,-1336.0,-116.0,-1698.0,159.0
-39.0,-365.0,19.0,773.0,977.0,-1347.0,-160.0,-1439.0,143.0
-38.0,-292.0,-7.0,533.0,794.0,-1335.0,-167.0,-1183.0,40.0
-33.0,-239.0,-52.0,248.0,657.0,-1288.0,-143.0,-996.0,-107.0
-49.0,-223.0,-101.0,-123.0,595.0,-1229.0,-221.0,-960.0,-291.0
-36.0,-270.0,-93.0,-697.0,579.0,-1135.0,-201.0,-1115.0,-326.0
-18.0,-322.0,-42.0,-1359.0,606.0,-1057.0,-116.0,-1261.0,-148.0
-10.0,-361.0,-11.0,-1917.0,643.0,-1044.0,-70.0,-1412.0,29.0
-8.0,-415.0,27.0,-2101.0,642.0,-1025.0,-64.0,-1562.0,162.0
7.0,-454.0,49.0,-2027.0,591.0,-1000.0,-13.0,-1693.0,266.0
55.0,-467.0,51.0,-1773.0,491.0,-953.0,194.0,-1770.0,262.0
98.0,-457.0,24.0,-1436.0,409.0,-878.0,332.0,-1718.0,166.0
136.0,-422.0,-5.0,-1111.0,377.0,-768.0,484.0,-1620.0,54.0
157.0,-382.0,-13.0,-843.0,386.0,-662.0,533.0,-1457.0,5.0
147.0,-323.0,-8.0,-589.0,420.0,-564.0,538.0,-1251.0,29.0
118.0,-265.0,11.0,-316.0,429.0,-457.0,453.0,-1044.0,69.0
98.0,-228.0,19.0,-12.0,357.0,-294.0,367.0,-822.0,143.0
62.0,-164.0,24.0,351.0,225.0,-144.0,234.0,-620.0,138.0
43.0,-127.0,16.0,729.0,107.0,-15.0,146.0,-422.0,105.0
0.0,-73.0,-10.0,1069.0,67.0,75.0,-5.0,-250.0,38.0
-15.0,-24.0,-23.0,1351.0,185.0,174.0,-98.0,-54.0,-7.0
-18.0,44.0,-22.0,1628.0,366.0,251.0,-120.0,139.0,-22.0
-28.0,82.0,-26.0,1820.0,519.0,320.0,-125.0,305.0,-22.0
-31.0,125.0,-42.0,1967.0,602.0,351.0,-129.0,444.0,-88.0
-28.0,154.0,-54.0,2032.0,627.0,379.0,-121.0,560.0,-150.0
-24.0,174.0,-67.0,1981.0,636.0,413.0,-83.0,623.0,-206.0
-13.0,187.0,-89.0,1799.0,640.0,448.0,-32.0,658.0,-295.0
2.0,199.0,-123.0,1450.0,629.0,455.0,24.0,672.0,-437.0
8.0,197.0,-162.0,923.0,584.0,440.0,50.0,629.0,-583.0
10.0,178.0,-180.0,258.0,493.0,424.0,66.0,547.0,-661.0
18.0,133.0,-178.0,-424.0,366.0,433.0,77.0,445.0,-660.0
14.0,88.0,-172.0,-962.0,220.0,450.0,61.0,322.0,-630.0
6.0,42.0,-158.0,-1263.0,101.0,478.0,31.0,175.0,-589.0
5.0,-19.0,-128.0,-1304.0,36.0,521.0,4.0,8.0,-487.0
5.0,-51.0,-116.0,-1086.0,27.0,558.0,-3.0,-149.0,-399.0
15.0,-83.0,-91.0,-590.0,67.0,575.0,29.0,-269.0,-324.0
34.0,-99.0,-73.0,-111.0,163.0,570.0,86.0,-337.0,-246.0
53.0,-105.0,-57.0,329.0,305.0,530.0,160.0,-361.0,-166.0
63.0,-93.0,-52.0,677.0,474.0,455.0,208.0,-336.0,-124.0
56.0,-71.0,-39.0,910.0,633.0,343.0,191.0,-280.0,-88.0
28.0,-51.0,-31.0,1022.0,745.0,214.0,99.0,-211.0,-51.0
-10.0,-29.0,-16.0,1026.0,774.0,77.0,-21.0,-138.0,-8.0
-51.0,-15.0,-7.0,967.0,718.0,-50.0,-171.0,-72.0,29.0
-87.0,-5.0,-9.0,889.0,586.0,-149.0,-332.0,-36.0,12.0
-132.0,0.0,-23.0,807.0,404.0,-198.0,-487.0,-11.0,-30.0
-156.0,-4.0,-42.0,722.0,206.0,-199.0,-591.0,-32.0,-97.0
-186.0,-26.0,-79.0,620.0,17.0,-173.0,-710.0,-123.0,-237.0
-214.0,-64.0,-132.0,457.0,-228.0,-124.0,-808.0,-271.0,-440.0
-189.0,-120.0,-177.0,154.0,-457.0,-59.0,-762.0,-452.0,-613.0
-53.0,-194.0,-281.0,-58.0,-595.0,-42.0,-393.0,-692.0,-890.0
77.0,-244.0,-552.0,-153.0,-394.0,-193.0,80.0,-950.0,-1817.0
148.0,-271.0,-782.0,-446.0,-23.0,-474.0,435.0,-1229.0,-3083.0
226.0,-329.0,-816.0,-1237.0,-1.0,-712.0,954.0,-1601.0,-3261.0
303.0,-534.0,-569.0,-2392.0,-323.0,-1016.0,1076.0,-2284.0,-2136.0
161.0,-768.0,-109.0,-3270.0,-435.0,-1430.0,430.0,-2954.0,-304.0
9.0,-985.0,220.0,-3190.0,-194.0,-1446.0,-113.0,-3592.0,958.0
-13.0,-1105.0,250.0,-2099.0,168.0,-1016.0,-157.0,-4002.0,1083.0
-3.0,-1087.0,94.0,-603.0,319.0,-599.0,-65.0,-4027.0,529.0
-4.0,-966.0,-118.0,648.0,206.0,-378.0,-32.0,-3733.0,-286.0
-57.0,-798.0,-249.0,1337.0,-80.0,-317.0,-211.0,-3184.0,-888.0
-79.0,-659.0,-262.0,1638.0,-449.0,-166.0,-323.0,-2615.0,-1023.0
-84.0,-578.0,-232.0,1932.0,-855.0,79.0,-360.0,-2178.0,-877.0
-76.0,-500.0,-167.0,2402.0,-1051.0,382.0,-359.0,-1900.0,-624.0
-45.0,-445.0,-89.0,2681.0,-1104.0,659.0,-241.0,-1734.0,-319.0
0.0,-403.0,-27.0,2675.0,-1087.0,825.0,-65.0,-1638.0,-19.0
22.0,-369.0,2.0,2339.0,-1061.0,870.0,45.0,-1513.0,70.0
39.0,-338.0,6.0,1751.0,-1042.0,830.0,119.0,-1402.0,82.0
58.0,-319.0,-6.0,1071.0,-1063.0,760.0,205.0,-1308.0,48.0
89.0,-312.0,-27.0,437.0,-1133.0,706.0,295.0,-1268.0,-35.0
113.0,-336.0,-44.0,-91.0,-1188.0,710.0,368.0,-1338.0,-85.0
123.0,-369.0,-38.0,-507.0,-1169.0,746.0,417.0,-1494.0,-81.0
127.0,-427.0,-29.0,-832.0,-1067.0,784.0,417.0,-1677.0,-37.0
123.0,-470.0,-22.0,-1065.0,-897.0,783.0,399.0,-1828.0,-6.0
117.0,-503.0,-15.0,-1187.0,-696.0,765.0,370.0,-1933.0,6.0
94.0,-519.0,-9.0,-1184.0,-469.0,710.0,297.0,-1975.0,40.0
70.0,-522.0,-3.0,-1018.0,-305.0,654.0,222.0,-1977.0,64.0
29.0,-510.0,-1.0,-802.0,-149.0,571.0,83.0,-1943.0,72.0
1.0,-474.0,12.0,-553.0,-22.0,476.0,-34.0,-1828.0,116.0
-42.0,-428.0,24.0,-265.0,65.0,369.0,-176.0,-1624.0,164.0
-56.0,-389.0,35.0,40.0,109.0,284.0,-266.0,-1404.0,220.0
-76.0,-316.0,41.0,375.0,107.0,168.0,-343.0,-1113.0,223.0
-98.0,-224.0,37.0,700.0,65.0,72.0,-396.0,-792.0,213.0
-111.0,-129.0,28.0,1001.0,-12.0,10.0,-459.0,-453.0,173.0
-128.0,-44.0,12.0,1266.0,-112.0,13.0,-494.0,-159.0,119.0
-126.0,20.0,-12.0,1462.0,-214.0,69.0,-490.0,72.0,36.0
-116.0,67.0,-31.0,1530.0,-311.0,140.0,-454.0,223.0,-55.0
-96.0,91.0,-44.0,1429.0,-415.0,199.0,-386.0,294.0,-95.0
-64.0,103.0,-36.0,1181.0,-533.0,212.0,-263.0,325.0,-99.0
-49.0,104.0,-49.0,766.0,-702.0,138.0,-176.0,335.0,-131.0
-18.0,101.0,-58.0,347.0,-864.0,80.0,-74.0,329.0,-179.0
2.0,71.0,-92.0,-94.0,-985.0,9.0,-3.0,228.0,-281.0
27.0,43.0,-99.0,-496.0,-1037.0,-114.0,88.0,139.0,-327.0
29.0,26.0,-92.0,-758.0,-1040.0,-304.0,99.0,89.0,-292.0
13.0,9.0,-77.0,-811.0,-988.0,-476.0,16.0,68.0,-254.0
-10.0,-2.0,-66.0,-653.0,-890.0,-594.0,-70.0,58.0,-193.0
-33.0,0.0,-65.0,-333.0,-797.0,-675.0,-142.0,58.0,-182.0
-44.0,7.0,-84.0,28.0,-725.0,-756.0,-204.0,61.0,-250.0
-42.0,13.0,-110.0,305.0,-638.0,-831.0,-206.0,67.0,-390.0
-32.0,22.0,-151.0,448.0,-498.0,-902.0,-152.0,70.0,-532.0
-12.0,28.0,-177.0,472.0,-328.0,-980.0,-92.0,79.0,-645.0
-6.0,31.0,-190.0,424.0,-178.0,-1077.0,-45.0,90.0,-700.0
-3.0,31.0,-185.0,345.0,-90.0,-1165.0,-20.0,88.0,-688.0
-4.0,21.0,-166.0,252.0,-97.0,-1209.0,-9.0,62.0,-617.0
-8.0,4.0,-133.0,209.0,-155.0,-1213.0,-17.0,26.0,-509.0
-12.0,-5.0,-100.0,222.0,-237.0,-1190.0,-34.0,-15.0,-369.0
-16.0,-15.0,-65.0,276.0,-334.0,-1126.0,-57.0,-51.0,-193.0
-19.0,-22.0,-44.0,346.0,-438.0,-1026.0,-84.0,-88.0,-96.0
-23.0,-25.0,-29.0,417.0,-531.0,-884.0,-98.0,-107.0,-47.0
-7.0,-30.0,-34.0,479.0,-591.0,-715.0,-38.0,-136.0,-64.0
26.0,-34.0,-41.0,535.0,-566.0,-542.0,68.0,-147.0,-100.0
65.0,-39.0,-52.0,609.0,-424.0,-406.0,187.0,-152.0,-134.0
103.0,-40.0,-51.0,710.0,-176.0,-317.0,320.0,-154.0,-119.0
140.0,-38.0,-37.0,832.0,130.0,-263.0,465.0,-149.0,-68.0
181.0,-50.0,-10.0,955.0,450.0,-218.0,617.0,-181.0,15.0
189.0,-64.0,17.0,1061.0,758.0,-216.0,708.0,-241.0,115.0
169.0,-73.0,37.0,1110.0,1000.0,-243.0,648.0,-314.0,205.0
81.0,-96.0,63.0,1035.0,910.0,-284.0,403.0,-410.0,273.0
-108.0,-119.0,109.0,745.0,297.0,-333.0,-166.0,-537.0,411.0
-278.0,-154.0,118.0,138.0,-1050.0,-287.0,-720.0,-740.0,535.0
-378.0,-131.0,-310.0,-982.0,-3007.0,-20.0,-1265.0,-828.0,-1275.0
-251.0,-147.0,-842.0,-2708.0,-4278.0,427.0,-1362.0,-824.0,-3239.0
-175.0,-284.0,-1145.0,-4231.0,-3089.0,829.0,-1240.0,-1219.0,-4476.0
-174.0,-526.0,-862.0,-5035.0,-160.0,1182.0,-970.0,-1943.0,-3611.0
-151.0,-879.0,-146.0,-4955.0,2068.0,1516.0,-523.0,-3007.0,-912.0
-144.0,-1084.0,156.0,-3898.0,2158.0,1606.0,-330.0,-4037.0,661.0
-113.0,-1252.0,225.0,-2710.0,653.0,1326.0,-299.0,-4726.0,913.0
14.0,-1253.0,8.0,-2073.0,-975.0,777.0,62.0,-4799.0,126.0
128.0,-1163.0,-306.0,-1923.0,-1983.0,61.0,356.0,-4473.0,-1069.0
158.0,-1057.0,-468.0,-1760.0,-2111.0,-487.0,394.0,-3978.0,-1746.0
128.0,-962.0,-439.0,-836.0,-1509.0,-945.0,319.0,-3581.0,-1750.0
79.0,-884.0,-312.0,356.0,-781.0,-1242.0,201.0,-3314.0,-1303.0
33.0,-806.0,-188.0,1455.0,-244.0,-1370.0,31.0,-3076.0,-788.0
-20.0,-726.0,-88.0,2300.0,156.0,-1395.0,-119.0,-2801.0,-375.0
-65.0,-649.0,-32.0,2887.0,380.0,-1408.0,-287.0,-2380.0,-36.0
-114.0,-520.0,10.0,3195.0,323.0,-1414.0,-444.0,-1945.0,122.0
-143.0,-372.0,50.0,3252.0,9.0,-1413.0,-534.0,-1378.0,264.0
-185.0,-210.0,42.0,3176.0,-396.0,-1398.0,-709.0,-827.0,249.0
-205.0,-103.0,12.0,2943.0,-738.0,-1311.0,-790.0,-480.0,119.0
-198.0,-33.0,-22.0,2468.0,-929.0,-1144.0,-792.0,-230.0,9.0
-182.0,18.0,-47.0,1822.0,-965.0,-1033.0,-733.0,-45.0,-96.0
-177.0,39.0,-86.0,1036.0,-941.0,-979.0,-723.0,-7.0,-268.0
-140.0,0.0,-105.0,44.0,-939.0,-916.0,-573.0,-124.0,-362.0
-102.0,-45.0,-92.0,-1323.0,-967.0,-883.0,-415.0,-321.0,-298.0
-77.0,-116.0,-45.0,-2322.0,-984.0,-923.0,-322.0,-522.0,-121.0
-50.0,-193.0,-2.0,-2989.0,-1012.0,-981.0,-230.0,-742.0,49.0
-5.0,-258.0,11.0,-3264.0,-1091.0,-1002.0,-62.0,-952.0,112.0
66.0,-317.0,8.0,-3218.0,-1191.0,-969.0,185.0,-1149.0,103.0
115.0,-353.0,-12.0,-2923.0,-1259.0,-909.0,400.0,-1317.0,41.0
155.0,-364.0,-23.0,-2462.0,-1266.0,-850.0,544.0,-1350.0,-11.0
185.0,-356.0,-30.0,-1933.0,-1226.0,-777.0,654.0,-1330.0,-39.0
186.0,-332.0,-33.0,-1385.0,-1168.0,-668.0,679.0,-1252.0,-58.0
176.0,-307.0,-39.0,-832.0,-1110.0,-557.0,613.0,-1122.0,-70.0
145.0,-270.0,-42.0,-271.0,-1047.0,-433.0,508.0,-984.0,-94.0
112.0,-225.0,-43.0,252.0,-998.0,-302.0,395.0,-825.0,-99.0
86.0,-169.0,-45.0,715.0,-945.0,-138.0,299.0,-639.0,-88.0
61.0,-112.0,-34.0,1203.0,-870.0,-19.0,200.0,-412.0,-56.0
46.0,-62.0,-23.0,1554.0,-766.0,85.0,139.0,-224.0,-27.0
22.0,-3.0,-20.0,1830.0,-658.0,147.0,78.0,-32.0,0.0
17.0,48.0,-22.0,2019.0,-571.0,202.0,48.0,140.0,-17.0
20.0,82.0,-42.0,2101.0,-513.0,247.0,63.0,268.0,-69.0
23.0,108.0,-64.0,2064.0,-488.0,285.0,88.0,366.0,-206.0
26.0,133.0,-100.0,1891.0,-487.0,308.0,108.0,450.0,-355.0
24.0,151.0,-139.0,1555.0,-516.0,325.0,99.0,476.0,-509.0
18.0,156.0,-175.0,1064.0,-573.0,322.0,70.0,479.0,-634.0
4.0,140.0,-189.0,454.0,-645.0,312.0,20.0,437.0,-700.0
-8.0,115.0,-198.0,-188.0,-705.0,297.0,-27.0,361.0,-662.0
-12.0,71.0,-154.0,-745.0,-740.0,284.0,-58.0,246.0,-563.0
-8.0,28.0,-118.0,-1134.0,-739.0,243.0,-61.0,114.0,-435.0
-2.0,-12.0,-87.0,-1338.0,-680.0,192.0,-44.0,-11.0,-299.0
9.0,-42.0,-58.0,-1297.0,-583.0,129.0,2.0,-131.0,-158.0
25.0,-71.0,-29.0,-1056.0,-457.0,73.0,56.0,-218.0,-42.0
41.0,-90.0,-27.0,-662.0,-347.0,21.0,130.0,-284.0,-27.0
58.0,-99.0,-32.0,-220.0,-298.0,-24.0,202.0,-313.0,-48.0
66.0,-94.0,-37.0,181.0,-325.0,-75.0,248.0,-330.0,-69.0
69.0,-85.0,-33.0,504.0,-409.0,-137.0,268.0,-314.0,-65.0
49.0,-69.0,-23.0,739.0,-511.0,-219.0,198.0,-275.0,-30.0
29.0,-53.0,-3.0,895.0,-600.0,-290.0,105.0,-210.0,36.0
-10.0,-40.0,-1.0,999.0,-658.0,-338.0,-34.0,-159.0,71.0
-51.0,-27.0,3.0,1056.0,-713.0,-342.0,-220.0,-107.0,72.0
-110.0,-18.0,-17.0,1050.0,-808.0,-292.0,-425.0,-95.0,-20.0
-178.0,-23.0,-75.0,956.0,-982.0,-167.0,-667.0,-140.0,-217.0
-234.0,-44.0,-145.0,738.0,-1320.0,-29.0,-872.0,-223.0,-489.0
-223.0,-75.0,-249.0,330.0,-1626.0,123.0,-909.0,-351.0,-876.0
-132.0,-111.0,-455.0,-89.0,-1682.0,197.0,-665.0,-499.0,-1642.0
-15.0,-156.0,-651.0,-628.0,-1321.0,84.0,-260.0,-708.0,-2446.0
113.0,-233.0,-726.0,-1367.0,-806.0,-182.0,261.0,-995.0,-2889.0
228.0,-366.0,-562.0,-2310.0,-517.0,-559.0,725.0,-1414.0,-2523.0
253.0,-535.0,-233.0,-3144.0,-366.0,-1055.0,863.0,-2036.0,-1022.0
180.0,-741.0,108.0,-3242.0,25.0,-1458.0,531.0,-2807.0,622.0
115.0,-890.0,226.0,-2555.0,666.0,-1477.0,340.0,-3321.0,993.0
84.0,-955.0,176.0,-1616.0,937.0,-1272.0,340.0,-3575.0,739.0
53.0,-936.0,27.0,-882.0,524.0,-1133.0,219.0,-3562.0,184.0
-11.0,-860.0,-153.0,-450.0,-102.0,-1075.0,-80.0,-3311.0,-505.0
-85.0,-754.0,-235.0,-197.0,-527.0,-949.0,-370.0,-2895.0,-861.0
-127.0,-658.0,-204.0,126.0,-820.0,-576.0,-512.0,-2507.0,-794.0
-119.0,-594.0,-153.0,735.0,-1075.0,-169.0,-497.0,-2262.0,-602.0
-96.0,-576.0,-114.0,1244.0,-1316.0,247.0,-416.0,-2185.0,-374.0
-66.0,-561.0,-54.0,1629.0,-1453.0,543.0,-294.0,-2152.0,-144.0
-60.0,-541.0,-15.0,1824.0,-1533.0,705.0,-263.0,-2103.0,-4.0
-48.0,-514.0,0.0,1810.0,-1644.0,773.0,-236.0,-2008.0,63.0
-39.0,-465.0,-29.0,1632.0,-1736.0,757.0,-194.0,-1875.0,-21.0
-20.0,-415.0,-71.0,1298.0,-1751.0,693.0,-154.0,-1696.0,-210.0
-11.0,-382.0,-100.0,848.0,-1689.0,609.0,-101.0,-1537.0,-332.0
5.0,-371.0,-119.0,337.0,-1571.0,526.0,-44.0,-1507.0,-392.0
18.0,-398.0,-112.0,-179.0,-1410.0,437.0,-18.0,-1590.0,-380.0
19.0,-425.0,-90.0,-655.0,-1217.0,343.0,-9.0,-1710.0,-263.0
5.0,-460.0,-47.0,-1024.0,-1032.0,242.0,-43.0,-1798.0,-116.0
-10.0,-485.0,-19.0,-1204.0,-889.0,184.0,-87.0,-1837.0,1.0
-23.0,-485.0,4.0,-1124.0,-833.0,195.0,-136.0,-1818.0,82.0
-39.0,-470.0,8.0,-840.0,-809.0,252.0,-199.0,-1764.0,94.0
-54.0,-447.0,3.0,-458.0,-793.0,326.0,-251.0,-1674.0,78.0
-53.0,-414.0,5.0,-97.0,-771.0,384.0,-253.0,-1575.0,70.0
-59.0,-367.0,-3.0,186.0,-748.0,380.0,-268.0,-1429.0,74.0
-61.0,-319.0,-5.0,389.0,-712.0,348.0,-286.0,-1255.0,56.0
-66.0,-273.0,-20.0,519.0,-658.0,288.0,-285.0,-1072.0,-13.0
-55.0,-234.0,-51.0,547.0,-598.0,229.0,-278.0,-926.0,-150.0
-23.0,-201.0,-62.0,474.0,-514.0,163.0,-117.0,-781.0,-180.0
12.0,-167.0,-58.0,380.0,-432.0,48.0,9.0,-648.0,-157.0
26.0,-135.0,-39.0,292.0,-381.0,-88.0,71.0,-541.0,-84.0
31.0,-116.0,-4.0,220.0,-357.0,-189.0,110.0,-459.0,48.0
35.0,-99.0,26.0,195.0,-369.0,-286.0,131.0,-373.0,160.0
21.0,-77.0,42.0,230.0,-452.0,-340.0,94.0,-295.0,218.0
-6.0,-59.0,41.0,274.0,-566.0,-357.0,2.0,-230.0,224.0
-31.0,-39.0,32.0,317.0,-711.0,-354.0,-110.0,-146.0,192.0
-61.0,-18.0,11.0,349.0,-879.0,-366.0,-224.0,-68.0,114.0
-92.0,6.0,-23.0,340.0,-1053.0,-390.0,-358.0,18.0,-5.0
-122.0,27.0,-49.0,282.0,-1187.0,-403.0,-465.0,84.0,-122.0
-116.0,37.0,-83.0,196.0,-1248.0,-412.0,-473.0,117.0,-244.0
-92.0,34.0,-113.0,98.0,-1210.0,-467.0,-411.0,114.0,-358.0
-70.0,36.0,-127.0,-6.0,-1070.0,-577.0,-327.0,126.0,-455.0
-44.0,33.0,-139.0,-124.0,-863.0,-712.0,-223.0,108.0,-496.0
-15.0,27.0,-139.0,-252.0,-640.0,-826.0,-101.0,87.0,-488.0
8.0,20.0,-129.0,-359.0,-448.0,-947.0,23.0,68.0,-456.0
33.0,14.0,-127.0,-405.0,-328.0,-1093.0,124.0,47.0,-451.0
50.0,4.0,-135.0,-379.0,-301.0,-1196.0,196.0,14.0,-480.0
55.0,-2.0,-135.0,-312.0,-371.0,-1265.0,233.0,-12.0,-493.0
61.0,-6.0,-133.0,-219.0,-490.0,-1307.0,236.0,-36.0,-484.0
53.0,-9.0,-122.0,-102.0,-610.0,-1305.0,204.0,-37.0,-431.0
44.0,-4.0,-100.0,22.0,-694.0,-1261.0,164.0,-31.0,-359.0
31.0,0.0,-79.0,146.0,-740.0,-1176.0,117.0,-16.0,-272.0
25.0,10.0,-57.0,258.0,-754.0,-1068.0,86.0,28.0,-189.0
22.0,17.0,-48.0,354.0,-739.0,-943.0,70.0,60.0,-120.0
30.0,27.0,-31.0,417.0,-700.0,-815.0,93.0,96.0,-57.0
39.0,37.0,-16.0,461.0,-637.0,-690.0,130.0,140.0,-4.0
57.0,48.0,-16.0,485.0,-564.0,-581.0,210.0,163.0,17.0
75.0,51.0,-17.0,485.0,-503.0,-481.0,275.0,171.0,11.0
99.0,50.0,-17.0,437.0,-448.0,-377.0,360.0,162.0,-15.0
117.0,49.0,-29.0,337.0,-370.0,-312.0,430.0,138.0,-45.0
120.0,35.0,-40.0,147.0,-293.0,-275.0,442.0,91.0,-84.0
101.0,16.0,-55.0,-75.0,-242.0,-242.0,390.0,13.0,-144.0
47.0,-3.0,-72.0,-320.0,-304.0,-239.0,198.0,-66.0,-248.0
-72.0,-26.0,-79.0,-599.0,-610.0,-260.0,-203.0,-156.0,-278.0
-204.0,-58.0,-55.0,-896.0,-1232.0,-264.0,-658.0,-270.0,-195.0
-284.0,-110.0,-96.0,-1186.0,-2074.0,-195.0,-1024.0,-448.0,-284.0
-310.0,-132.0,-410.0,-1450.0,-2726.0,-46.0,-1304.0,-588.0,-1329.0
-164.0,-171.0,-756.0,-1886.0,-2607.0,217.0,-980.0,-747.0,-2714.0
-66.0,-262.0,-868.0,-2484.0,-1478.0,395.0,-575.0,-1060.0,-3442.0
-76.0,-426.0,-577.0,-3102.0,0.0,432.0,-381.0,-1661.0,-2360.0
-139.0,-669.0,-96.0,-3382.0,787.0,377.0,-461.0,-2388.0,-490.0
-129.0,-809.0,37.0,-2910.0,474.0,355.0,-360.0,-3067.0,209.0
-57.0,-925.0,15.0,-2101.0,-720.0,321.0,-155.0,-3500.0,76.0
33.0,-969.0,-103.0,-1298.0,-1547.0,185.0,74.0,-3688.0,-341.0
96.0,-973.0,-202.0,-893.0,-1851.0,-24.0,256.0,-3720.0,-714.0
129.0,-964.0,-210.0,-632.0,-1804.0,-225.0,372.0,-3679.0,-792.0
146.0,-952.0,-172.0,-305.0,-1660.0,-473.0,447.0,-3592.0,-623.0
118.0,-897.0,-159.0,184.0,-1490.0,-789.0,359.0,-3402.0,-545.0
70.0,-809.0,-173.0,685.0,-1230.0,-1022.0,177.0,-3140.0,-592.0
27.0,-738.0,-158.0,1066.0,-863.0,-1128.0,13.0,-2869.0,-568.0
-7.0,-681.0,-133.0,1312.0,-510.0,-1183.0,-118.0,-2607.0,-469.0
-41.0,-598.0,-109.0,1461.0,-282.0,-1236.0,-225.0,-2316.0,-376.0
-62.0,-508.0,-82.0,1532.0,-177.0,-1279.0,-286.0,-2007.0,-255.0
-70.0,-418.0,-60.0,1511.0,-168.0,-1314.0,-292.0,-1606.0,-159.0
-73.0,-329.0,-50.0,1377.0,-229.0,-1331.0,-308.0,-1306.0,-127.0
-77.0,-258.0,-64.0,1129.0,-310.0,-1333.0,-330.0,-1058.0,-173.0
-50.0,-203.0,-85.0,639.0,-384.0,-1334.0,-230.0,-896.0,-269.0
-13.0,-197.0,-101.0,30.0,-412.0,-1336.0,-109.0,-882.0,-334.0
9.0,-224.0,-81.0,-722.0,-412.0,-1338.0,0.0,-951.0,-288.0
22.0,-251.0,-60.0,-1431.0,-421.0,-1375.0,59.0,-1048.0,-158.0
33.0,-294.0,-36.0,-1939.0,-425.0,-1443.0,94.0,-1168.0,-64.0
56.0,-334.0,-25.0,-2225.0,-425.0,-1488.0,180.0,-1286.0,-11.0
88.0,-368.0,-18.0,-2260.0,-436.0,-1465.0,282.0,-1395.0,0.0
120.0,-391.0,-18.0,-2054.0,-405.0,-1360.0,399.0,-1463.0,-2.0
140.0,-400.0,-20.0,-1681.0,-331.0,-1193.0,476.0,-1512.0,-12.0
153.0,-399.0,-31.0,-1246.0,-283.0,-990.0,533.0,-1522.0,-44.0
142.0,-376.0,-54.0,-851.0,-289.0,-775.0,532.0,-1444.0,-145.0
113.0,-342.0,-63.0,-534.0,-328.0,-578.0,398.0,-1328.0,-192.0
83.0,-304.0,-57.0,-303.0,-375.0,-355.0,265.0,-1137.0,-158.0
41.0,-254.0,-56.0,-57.0,-418.0,-180.0,112.0,-919.0,-152.0
24.0,-195.0,-49.0,214.0,-399.0,38.0,35.0,-700.0,-128.0
37.0,-144.0,-58.0,548.0,-277.0,239.0,83.0,-525.0,-152.0
56.0,-83.0,-65.0,840.0,-51.0,365.0,149.0,-321.0,-174.0
63.0,-15.0,-66.0,1042.0,242.0,411.0,187.0,-86.0,-183.0
54.0,49.0,-74.0,1158.0,523.0,420.0,189.0,144.0,-207.0
47.0,101.0,-81.0,1201.0,713.0,405.0,169.0,337.0,-248.0
43.0,135.0,-93.0,1168.0,784.0,383.0,170.0,460.0,-284.0
48.0,150.0,-99.0,1032.0,771.0,332.0,179.0,516.0,-323.0
37.0,153.0,-113.0,770.0,735.0,257.0,151.0,508.0,-381.0
31.0,138.0,-115.0,374.0,701.0,171.0,122.0,445.0,-396.0
17.0,100.0,-109.0,-102.0,671.0,103.0,75.0,301.0,-371.0
14.0,61.0,-102.0,-576.0,630.0,71.0,51.0,170.0,-345.0
18.0,16.0,-98.0,-929.0,561.0,85.0,72.0,48.0,-334.0
21.0,-19.0,-91.0,-1044.0,504.0,93.0,75.0,-39.0,-314.0
8.0,-41.0,-86.0,-845.0,438.0,110.0,34.0,-97.0,-290.0
-3.0,-50.0,-83.0,-464.0,335.0,145.0,-3.0,-137.0,-284.0
-7.0,-53.0,-87.0,-5.0,197.0,204.0,-17.0,-150.0,-269.0
-6.0,-38.0,-74.0,431.0,66.0,263.0,-28.0,-123.0,-234.0
-2.0,-24.0,-62.0,770.0,-20.0,321.0,-27.0,-76.0,-171.0
-8.0,-9.0,-31.0,998.0,-57.0,358.0,-30.0,-35.0,-46.0
-15.0,5.0,-7.0,1149.0,-62.0,373.0,-76.0,17.0,32.0
-20.0,20.0,-8.0,1246.0,-50.0,372.0,-105.0,69.0,49.0
-28.0,35.0,-45.0,1276.0,-20.0,350.0,-134.0,120.0,-57.0
-49.0,55.0,-114.0,1207.0,30.0,297.0,-196.0,160.0,-358.0
-53.0,63.0,-180.0,996.0,60.0,238.0,-214.0,173.0,-629.0
-43.0,56.0,-235.0,624.0,10.0,137.0,-139.0,104.0,-934.0
-19.0,16.0,-305.0,-22.0,-142.0,15.0,-47.0,-86.0,-1217.0
-8.0,-59.0,-363.0,-681.0,-358.0,-143.0,-11.0,-362.0,-1424.0
-12.0,-156.0,-395.0,-1356.0,-592.0,-313.0,-70.0,-715.0,-1538.0
-47.0,-300.0,-333.0,-1915.0,-796.0,-487.0,-222.0,-1168.0,-1306.0
-80.0,-476.0,-174.0,-2129.0,-875.0,-621.0,-404.0,-1732.0,-700.0
-83.0,-660.0,13.0,-1828.0,-723.0,-685.0,-467.0,-2319.0,53.0
-122.0,-773.0,87.0,-1028.0,-338.0,-727.0,-597.0,-2762.0,410.0
-93.0,-801.0,26.0,-66.0,64.0,-760.0,-503.0,-2979.0,266.0
-58.0,-763.0,-75.0,655.0,276.0,-831.0,-258.0,-2892.0,-215.0
-17.0,-651.0,-215.0,995.0,166.0,-979.0,-77.0,-2533.0,-766.0
-9.0,-520.0,-283.0,1083.0,-185.0,-1066.0,-9.0,-2069.0,-1082.0
-10.0,-412.0,-272.0,1142.0,-623.0,-954.0,-17.0,-1643.0,-1031.0
-6.0,-337.0,-202.0,1311.0,-1054.0,-589.0,6.0,-1284.0,-756.0
9.0,-299.0,-144.0,1579.0,-1548.0,-189.0,40.0,-1174.0,-522.0
25.0,-285.0,-111.0,1649.0,-1876.0,211.0,76.0,-1150.0,-382.0
43.0,-289.0,-100.0,1487.0,-2072.0,571.0,129.0,-1202.0,-328.0
71.0,-321.0,-107.0,1149.0,-2143.0,884.0,222.0,-1307.0,-346.0
96.0,-357.0,-119.0,754.0,-2106.0,1119.0,306.0,-1459.0,-408.0
109.0,-409.0,-132.0,374.0,-1994.0,1264.0,356.0,-1646.0,-469.0
118.0,-465.0,-150.0,3.0,-1861.0,1321.0,385.0,-1855.0,-526.0
118.0,-519.0,-158.0,-359.0,-1731.0,1293.0,380.0,-2056.0,-552.0
114.0,-577.0,-147.0,-677.0,-1602.0,1211.0,355.0,-2240.0,-524.0
102.0,-629.0,-121.0,-896.0,-1470.0,1112.0,318.0,-2409.0,-440.0
100.0,-679.0,-98.0,-966.0,-1328.0,1030.0,300.0,-2562.0,-333.0
83.0,-706.0,-79.0,-889.0,-1174.0,962.0,249.0,-2675.0,-257.0
68.0,-701.0,-62.0,-688.0,-1025.0,896.0,213.0,-2649.0,-193.0
51.0,-679.0,-67.0,-302.0,-882.0,832.0,118.0,-2535.0,-192.0
36.0,-625.0,-67.0,65.0,-806.0,794.0,66.0,-2341.0,-210.0
24.0,-561.0,-65.0,393.0,-764.0,794.0,22.0,-2101.0,-207.0
-3.0,-482.0,-56.0,663.0,-739.0,825.0,-65.0,-1809.0,-148.0
-26.0,-397.0,-34.0,900.0,-738.0,882.0,-146.0,-1514.0,-67.0
-41.0,-322.0,-24.0,1116.0,-768.0,973.0,-189.0,-1242.0,-38.0
-59.0,-250.0,-25.0,1268.0,-801.0,1073.0,-258.0,-994.0,-22.0
-71.0,-184.0,-21.0,1336.0,-817.0,1164.0,-299.0,-752.0,-12.0
-83.0,-131.0,-35.0,1321.0,-826.0,1222.0,-354.0,-559.0,-48.0
-102.0,-103.0,-37.0,1211.0,-840.0,1245.0,-411.0,-416.0,-70.0
-109.0,-66.0,-40.0,1015.0,-865.0,1191.0,-437.0,-292.0,-78.0
-98.0,-45.0,-49.0,768.0,-869.0,1069.0,-400.0,-214.0,-122.0
-88.0,-42.0,-63.0,493.0,-839.0,901.0,-375.0,-187.0,-191.0
-84.0,-54.0,-61.0,211.0,-799.0,774.0,-342.0,-255.0,-187.0
-75.0,-63.0,-51.0,-117.0,-782.0,597.0,-300.0,-255.0,-138.0
-64.0,-58.0,-48.0,-301.0,-804.0,403.0,-250.0,-218.0,-120.0
-39.0,-50.0,-59.0,-349.0,-862.0,244.0,-162.0,-180.0,-153.0
-10.0,-44.0,-84.0,-277.0,-944.0,148.0,-59.0,-169.0,-252.0
13.0,-45.0,-111.0,-162.0,-1003.0,90.0,42.0,-163.0,-383.0
38.0,-42.0,-143.0,-60.0,-994.0,28.0,116.0,-174.0,-516.0
50.0,-46.0,-161.0,-9.0,-920.0,-46.0,155.0,-190.0,-576.0
63.0,-59.0,-152.0,13.0,-846.0,-121.0,209.0,-230.0,-543.0
71.0,-69.0,-133.0,41.0,-779.0,-240.0,242.0,-283.0,-488.0
74.0,-77.0,-121.0,81.0,-670.0,-380.0,233.0,-304.0,-433.0
68.0,-79.0,-118.0,138.0,-494.0,-508.0,217.0,-305.0,-400.0
55.0,-81.0,-118.0,250.0,-269.0,-601.0,186.0,-292.0,-392.0
49.0,-81.0,-115.0,481.0,-15.0,-654.0,148.0,-288.0,-402.0
36.0,-78.0,-117.0,742.0,109.0,-700.0,111.0,-264.0,-411.0
21.0,-68.0,-113.0,1031.0,137.0,-753.0,73.0,-221.0,-376.0
-4.0,-51.0,-95.0,1321.0,80.0,-799.0,-13.0,-165.0,-318.0
-30.0,-24.0,-79.0,1588.0,-33.0,-832.0,-120.0,-75.0,-251.0
-55.0,0.0,-57.0,1821.0,-160.0,-827.0,-202.0,21.0,-177.0
-68.0,27.0,-32.0,2022.0,-263.0,-804.0,-255.0,119.0,-82.0
-74.0,50.0,-18.0,2189.0,-341.0,-756.0,-288.0,199.0,-18.0
-75.0,77.0,-10.0,2312.0,-417.0,-695.0,-294.0,287.0,13.0
-72.0,100.0,-29.0,2367.0,-497.0,-618.0,-282.0,351.0,-29.0
-62.0,118.0,-53.0,2304.0,-572.0,-527.0,-242.0,401.0,-132.0
-30.0,132.0,-87.0,2095.0,-613.0,-427.0,-123.0,414.0,-261.0
10.0,126.0,-115.0,1747.0,-602.0,-355.0,4.0,402.0,-369.0
38.0,114.0,-127.0,1179.0,-513.0,-329.0,123.0,343.0,-439.0
58.0,79.0,-122.0,616.0,-405.0,-312.0,198.0,202.0,-428.0
37.0,30.0,-110.0,61.0,-350.0,-285.0,156.0,26.0,-382.0
-16.0,-28.0,-107.0,-419.0,-470.0,-283.0,8.0,-173.0,-377.0
-108.0,-78.0,-129.0,-825.0,-904.0,-313.0,-292.0,-359.0,-484.0
-203.0,-129.0,-187.0,-1242.0,-1712.0,-318.0,-624.0,-542.0,-675.0
-249.0,-182.0,-300.0,-1677.0,-2670.0,-157.0,-964.0,-818.0,-1216.0
-191.0,-255.0,-525.0,-2119.0,-3211.0,191.0,-896.0,-1089.0,-2049.0
-42.0,-358.0,-658.0,-2515.0,-2670.0,559.0,-495.0,-1445.0,-2527.0
2.0,-524.0,-500.0,-2664.0,-1124.0,801.0,-261.0,-1934.0,-1982.0
-10.0,-706.0,-134.0,-2217.0,410.0,894.0,-132.0,-2478.0,-623.0
-7.0,-850.0,161.0,-1101.0,1058.0,892.0,-6.0,-3001.0,564.0
-2.0,-912.0,213.0,272.0,807.0,828.0,42.0,-3342.0,918.0
35.0,-872.0,79.0,1519.0,-79.0,683.0,113.0,-3353.0,543.0
69.0,-779.0,-116.0,1876.0,-750.0,467.0,216.0,-3146.0,-193.0
89.0,-700.0,-225.0,1633.0,-1183.0,183.0,286.0,-2707.0,-886.0
94.0,-593.0,-270.0,1183.0,-1315.0,-117.0,249.0,-2265.0,-1009.0
92.0,-514.0,-240.0,953.0,-1051.0,-372.0,203.0,-1943.0,-858.0
61.0,-462.0,-175.0,1016.0,-510.0,-546.0,106.0,-1764.0,-619.0
14.0,-431.0,-121.0,1130.0,10.0,-651.0,-28.0,-1680.0,-406.0
-17.0,-419.0,-78.0,1082.0,363.0,-704.0,-146.0,-1658.0,-252.0
-53.0,-419.0,-49.0,830.0,612.0,-751.0,-257.0,-1677.0,-142.0
-74.0,-437.0,-17.0,441.0,745.0,-806.0,-307.0,-1712.0,-25.0
-75.0,-449.0,-3.0,10.0,707.0,-855.0,-313.0,-1764.0,45.0
-67.0,-467.0,-10.0,-384.0,556.0,-897.0,-299.0,-1824.0,35.0
-58.0,-492.0,-17.0,-705.0,452.0,-933.0,-284.0,-1909.0,5.0
-38.0,-521.0,-8.0,-970.0,468.0,-938.0,-224.0,-2009.0,30.0
-16.0,-554.0,6.0,-1068.0,558.0,-935.0,-159.0,-2108.0,101.0
10.0,-572.0,24.0,-1075.0,664.0,-947.0,-50.0,-2181.0,169.0
50.0,-578.0,35.0,-1036.0,775.0,-997.0,129.0,-2208.0,216.0
74.0,-567.0,43.0,-956.0,882.0,-1077.0,215.0,-2156.0,235.0
88.0,-532.0,40.0,-819.0,975.0,-1173.0,273.0,-2032.0,235.0
93.0,-484.0,38.0,-643.0,1056.0,-1271.0,296.0,-1863.0,224.0
89.0,-428.0,43.0,-450.0,1105.0,-1355.0,308.0,-1650.0,227.0
86.0,-383.0,50.0,-253.0,1097.0,-1382.0,306.0,-1451.0,241.0
90.0,-323.0,36.0,-56.0,1052.0,-1391.0,317.0,-1236.0,201.0
85.0,-254.0,-18.0,75.0,984.0,-1370.0,308.0,-1018.0,23.0
52.0,-184.0,-68.0,47.0,915.0,-1294.0,198.0,-792.0,-186.0
3.0,-130.0,-74.0,-151.0,869.0,-1100.0,12.0,-566.0,-239.0
-24.0,-98.0,-51.0,-467.0,836.0,-846.0,-99.0,-433.0,-165.0
-64.0,-78.0,-36.0,-663.0,780.0,-548.0,-237.0,-333.0,-83.0
-80.0,-70.0,-44.0,-747.0,679.0,-204.0,-311.0,-299.0,-97.0
-77.0,-71.0,-53.0,-775.0,565.0,148.0,-314.0,-295.0,-137.0
-75.0,-72.0,-45.0,-790.0,507.0,453.0,-310.0,-290.0,-92.0
-60.0,-70.0,-30.0,-772.0,526.0,696.0,-270.0,-276.0,-40.0
-40.0,-68.0,-22.0,-697.0,580.0,885.0,-163.0,-247.0,-11.0
-9.0,-58.0,-28.0,-586.0,592.0,1006.0,-46.0,-216.0,-41.0
20.0,-44.0,-52.0,-487.0,532.0,1060.0,88.0,-179.0,-132.0
47.0,-35.0,-74.0,-418.0,439.0,1045.0,174.0,-133.0,-227.0
59.0,-23.0,-94.0,-368.0,368.0,973.0,212.0,-96.0,-306.0
65.0,-14.0,-114.0,-326.0,334.0,879.0,234.0,-70.0,-370.0
72.0,-5.0,-127.0,-299.0,310.0,815.0,266.0,-46.0,-439.0
86.0,-4.0,-142.0,-255.0,312.0,746.0,305.0,-35.0,-511.0
94.0,-2.0,-159.0,-186.0,356.0,632.0,331.0,-23.0,-564.0
90.0,4.0,-150.0,-105.0,427.0,511.0,328.0,14.0,-549.0
82.0,8.0,-125.0,15.0,486.0,425.0,299.0,31.0,-467.0
76.0,4.0,-104.0,181.0,509.0,367.0,283.0,39.0,-360.0
77.0,10.0,-87.0,389.0,520.0,333.0,276.0,55.0,-289.0
86.0,20.0,-82.0,603.0,570.0,312.0,295.0,74.0,-259.0
92.0,28.0,-75.0,779.0,686.0,302.0,314.0,105.0,-227.0
84.0,46.0,-70.0,890.0,857.0,284.0,285.0,149.0,-212.0
77.0,55.0,-73.0,910.0,1047.0,264.0,269.0,195.0,-229.0
63.0,71.0,-75.0,844.0,1204.0,217.0,243.0,234.0,-225.0
42.0,78.0,-73.0,704.0,1280.0,122.0,166.0,265.0,-233.0
11.0,83.0,-73.0,493.0,1265.0,1.0,65.0,280.0,-234.0
-13.0,79.0,-74.0,237.0,1193.0,-134.0,-47.0,269.0,-231.0
-52.0,81.0,-64.0,-85.0,1154.0,-229.0,-198.0,280.0,-208.0
-79.0,65.0,-55.0,-298.0,1147.0,-261.0,-298.0,264.0,-166.0
-102.0,46.0,-45.0,-434.0,1148.0,-262.0,-386.0,199.0,-114.0
-131.0,18.0,-28.0,-506.0,1124.0,-244.0,-476.0,101.0,-43.0
-153.0,-6.0,-18.0,-534.0,1048.0,-221.0,-597.0,-58.0,-1.0
-178.0,-52.0,-12.0,-522.0,906.0,-175.0,-694.0,-204.0,20.0
-203.0,-91.0,-31.0,-461.0,721.0,-112.0,-781.0,-338.0,-55.0
-205.0,-128.0,-64.0,-333.0,518.0,-22.0,-786.0,-466.0,-205.0
-162.0,-165.0,-94.0,-109.0,327.0,86.0,-639.0,-580.0,-310.0
-81.0,-199.0,-106.0,244.0,155.0,199.0,-348.0,-699.0,-351.0
25.0,-226.0,-156.0,690.0,-4.0,297.0,72.0,-830.0,-514.0
84.0,-203.0,-415.0,1042.0,-282.0,323.0,378.0,-905.0,-1393.0
129.0,-172.0,-707.0,825.0,-914.0,292.0,496.0,-891.0,-2634.0
194.0,-215.0,-759.0,-354.0,-1565.0,294.0,635.0,-1071.0,-3035.0
240.0,-381.0,-462.0,-1478.0,-1251.0,195.0,716.0,-1534.0,-1914.0
157.0,-596.0,0.0,-1921.0,-336.0,69.0,441.0,-2153.0,-58.0
78.0,-773.0,286.0,-1435.0,609.0,171.0,191.0,-2722.0,1101.0
68.0,-861.0,294.0,-377.0,1123.0,391.0,228.0,-3128.0,1215.0
106.0,-827.0,74.0,551.0,949.0,411.0,414.0,-3185.0,367.0
126.0,-720.0,-229.0,810.0,430.0,285.0,448.0,-2899.0,-790.0
116.0,-625.0,-381.0,394.0,69.0,160.0,382.0,-2538.0,-1459.0
55.0,-588.0,-256.0,-155.0,-14.0,134.0,180.0,-2282.0,-1093.0
18.0,-612.0,-90.0,-250.0,-14.0,285.0,18.0,-2309.0,-258.0
-11.0,-656.0,54.0,102.0,-101.0,514.0,-75.0,-2472.0,266.0
-34.0,-683.0,73.0,526.0,-244.0,709.0,-179.0,-2599.0,365.0
-40.0,-687.0,56.0,752.0,-395.0,862.0,-203.0,-2644.0,282.0
-37.0,-667.0,11.0,754.0,-583.0,896.0,-189.0,-2591.0,137.0
-48.0,-628.0,-47.0,619.0,-718.0,883.0,-231.0,-2460.0,-78.0
-50.0,-585.0,-78.0,432.0,-817.0,880.0,-256.0,-2296.0,-216.0
-36.0,-555.0,-81.0,260.0,-901.0,886.0,-212.0,-2182.0,-262.0
-31.0,-536.0,-83.0,80.0,-950.0,868.0,-188.0,-2115.0,-258.0
-31.0,-523.0,-61.0,-139.0,-940.0,839.0,-181.0,-2045.0,-160.0
-32.0,-508.0,-30.0,-334.0,-896.0,828.0,-186.0,-1962.0,-38.0
-43.0,-486.0,-2.0,-423.0,-842.0,856.0,-229.0,-1836.0,59.0
-61.0,-447.0,10.0,-371.0,-795.0,914.0,-285.0,-1674.0,107.0
-76.0,-393.0,17.0,-208.0,-797.0,975.0,-341.0,-1488.0,128.0
-103.0,-335.0,18.0,-8.0,-867.0,1030.0,-413.0,-1272.0,131.0
-119.0,-268.0,15.0,155.0,-1003.0,1059.0,-479.0,-1052.0,124.0
-122.0,-209.0,0.0,242.0,-1176.0,1047.0,-490.0,-842.0,83.0
-112.0,-157.0,-22.0,239.0,-1343.0,986.0,-458.0,-658.0,-4.0
-78.0,-128.0,-54.0,114.0,-1380.0,863.0,-349.0,-510.0,-150.0
-53.0,-92.0,-96.0,-90.0,-1290.0,669.0,-271.0,-385.0,-306.0
-24.0,-73.0,-118.0,-333.0,-1098.0,445.0,-166.0,-309.0,-390.0
2.0,-70.0,-119.0,-526.0,-873.0,216.0,-51.0,-287.0,-407.0
31.0,-72.0,-104.0,-673.0,-654.0,-9.0,59.0,-304.0,-366.0
49.0,-80.0,-82.0,-810.0,-457.0,-218.0,132.0,-341.0,-264.0
51.0,-101.0,-58.0,-932.0,-311.0,-411.0,178.0,-389.0,-173.0
40.0,-116.0,-49.0,-986.0,-263.0,-599.0,140.0,-426.0,-116.0
24.0,-120.0,-39.0,-933.0,-315.0,-745.0,95.0,-433.0,-81.0
-4.0,-117.0,-43.0,-749.0,-441.0,-842.0,-11.0,-409.0,-120.0
-20.0,-102.0,-56.0,-459.0,-627.0,-849.0,-70.0,-345.0,-172.0
-26.0,-84.0,-91.0,-114.0,-832.0,-795.0,-111.0,-304.0,-293.0
-24.0,-69.0,-123.0,193.0,-994.0,-694.0,-109.0,-268.0,-425.0
-6.0,-53.0,-163.0,419.0,-1026.0,-621.0,-68.0,-212.0,-561.0
6.0,-20.0,-189.0,496.0,-966.0,-590.0,-22.0,-116.0,-655.0
20.0,13.0,-192.0,507.0,-824.0,-590.0,27.0,6.0,-705.0
24.0,28.0,-198.0,503.0,-636.0,-603.0,54.0,86.0,-735.0
24.0,34.0,-194.0,489.0,-455.0,-630.0,66.0,107.0,-726.0
26.0,30.0,-180.0,463.0,-319.0,-669.0,77.0,89.0,-644.0
24.0,14.0,-150.0,452.0,-255.0,-734.0,93.0,45.0,-523.0
23.0,-3.0,-111.0,480.0,-259.0,-805.0,84.0,-9.0,-375.0
14.0,-16.0,-75.0,558.0,-311.0,-868.0,54.0,-44.0,-229.0
-3.0,-16.0,-40.0,695.0,-399.0,-907.0,1.0,-49.0,-97.0
-23.0,-9.0,-6.0,887.0,-514.0,-921.0,-83.0,-7.0,17.0
-41.0,8.0,10.0,1110.0,-647.0,-884.0,-146.0,48.0,101.0
-50.0,32.0,19.0,1332.0,-829.0,-792.0,-187.0,128.0,140.0
-51.0,64.0,9.0,1544.0,-980.0,-676.0,-203.0,231.0,115.0
-44.0,85.0,-9.0,1646.0,-1101.0,-535.0,-179.0,323.0,58.0
-25.0,110.0,-31.0,1646.0,-1160.0,-374.0,-117.0,395.0,-37.0
2.0,128.0,-56.0,1553.0,-1154.0,-246.0,-17.0,448.0,-140.0
26.0,134.0,-90.0,1349.0,-1095.0,-164.0,76.0,446.0,-260.0
52.0,124.0,-106.0,1017.0,-1004.0,-129.0,173.0,394.0,-333.0
57.0,93.0,-119.0,556.0,-894.0,-118.0,193.0,269.0,-407.0
56.0,44.0,-126.0,26.0,-806.0,-136.0,221.0,97.0,-437.0
13.0,-7.0,-138.0,-484.0,-833.0,-207.0,111.0,-103.0,-497.0
-70.0,-60.0,-162.0,-959.0,-1141.0,-341.0,-134.0,-297.0,-594.0
-135.0,-92.0,-222.0,-1475.0,-1831.0,-421.0,-442.0,-483.0,-911.0
-181.0,-128.0,-450.0,-2134.0,-2708.0,-310.0,-691.0,-666.0,-1785.0
-98.0,-207.0,-709.0,-2934.0,-3202.0,23.0,-563.0,-939.0,-2764.0
13.0,-361.0,-754.0,-3730.0,-2457.0,241.0,-285.0,-1423.0,-2964.0
9.0,-593.0,-423.0,-3796.0,-904.0,433.0,-207.0,-2084.0,-1798.0
-24.0,-821.0,46.0,-2890.0,358.0,617.0,-130.0,-2779.0,-5.0
-61.0,-969.0,273.0,-1193.0,629.0,750.0,-178.0,-3402.0,1054.0
-48.0,-986.0,202.0,469.0,114.0,770.0,-172.0,-3686.0,990.0
15.0,-904.0,-22.0,1451.0,-605.0,629.0,-47.0,-3565.0,240.0
63.0,-813.0,-171.0,1655.0,-1065.0,372.0,173.0,-3222.0,-548.0
91.0,-687.0,-265.0,1355.0,-1232.0,96.0,267.0,-2636.0,-1008.0
84.0,-585.0,-250.0,1022.0,-1183.0,-145.0,224.0,-2225.0,-901.0
65.0,-520.0,-190.0,968.0,-942.0,-321.0,141.0,-1977.0,-686.0
22.0,-483.0,-134.0,1108.0,-573.0,-465.0,-4.0,-1880.0,-471.0
-12.0,-468.0,-73.0,1158.0,-204.0,-584.0,-136.0,-1844.0,-220.0
-53.0,-464.0,-25.0,1000.0,95.0,-695.0,-268.0,-1837.0,-37.0
-73.0,-467.0,-15.0,646.0,385.0,-780.0,-343.0,-1838.0,15.0
-75.0,-461.0,-29.0,299.0,544.0,-878.0,-340.0,-1833.0,-27.0
-64.0,-452.0,-53.0,-65.0,554.0,-978.0,-265.0,-1787.0,-147.0
-60.0,-450.0,-92.0,-449.0,451.0,-1079.0,-261.0,-1779.0,-304.0
-16.0,-460.0,-92.0,-816.0,341.0,-1160.0,-124.0,-1802.0,-301.0
-10.0,-477.0,-66.0,-1086.0,325.0,-1223.0,-113.0,-1850.0,-207.0
16.0,-513.0,-29.0,-1269.0,393.0,-1202.0,-26.0,-1965.0,-57.0
44.0,-547.0,2.0,-1368.0,517.0,-1165.0,84.0,-2096.0,82.0
77.0,-571.0,22.0,-1396.0,644.0,-1161.0,226.0,-2187.0,147.0
118.0,-568.0,24.0,-1358.0,741.0,-1209.0,385.0,-2164.0,172.0
149.0,-537.0,17.0,-1235.0,816.0,-1268.0,494.0,-2054.0,146.0
162.0,-505.0,-1.0,-1030.0,909.0,-1323.0,553.0,-1887.0,72.0
165.0,-452.0,-17.0,-788.0,999.0,-1356.0,578.0,-1712.0,-14.0
166.0,-402.0,-23.0,-579.0,1069.0,-1358.0,591.0,-1545.0,-15.0
158.0,-349.0,-7.0,-384.0,1096.0,-1332.0,559.0,-1348.0,31.0
135.0,-283.0,5.0,-252.0,1100.0,-1242.0,491.0,-1116.0,77.0
112.0,-226.0,-24.0,-158.0,1084.0,-1084.0,418.0,-916.0,-4.0
62.0,-163.0,-47.0,-171.0,1050.0,-895.0,263.0,-712.0,-112.0
-9.0,-100.0,-52.0,-273.0,1012.0,-684.0,12.0,-475.0,-137.0
-75.0,-54.0,-33.0,-384.0,953.0,-424.0,-237.0,-275.0,-95.0
-111.0,-31.0,-26.0,-465.0,807.0,-118.0,-404.0,-143.0,-50.0
-143.0,-12.0,-32.0,-516.0,585.0,197.0,-540.0,-63.0,-82.0
-117.0,-19.0,-43.0,-536.0,385.0,490.0,-463.0,-86.0,-100.0
-96.0,-23.0,-58.0,-542.0,331.0,690.0,-421.0,-90.0,-154.0
-78.0,-24.0,-63.0,-525.0,439.0,815.0,-346.0,-74.0,-182.0
-39.0,-28.0,-62.0,-460.0,621.0,892.0,-179.0,-100.0,-188.0
2.0,-41.0,-54.0,-357.0,763.0,946.0,-4.0,-143.0,-160.0
49.0,-44.0,-54.0,-125.0,775.0,942.0,162.0,-140.0,-142.0
85.0,-42.0,-66.0,164.0,747.0,842.0,301.0,-126.0,-180.0
92.0,-26.0,-86.0,450.0,729.0,662.0,329.0,-71.0,-262.0
86.0,2.0,-103.0,674.0,741.0,483.0,306.0,12.0,-339.0
78.0,31.0,-120.0,780.0,739.0,342.0,286.0,93.0,-427.0
56.0,61.0,-132.0,759.0,658.0,225.0,231.0,196.0,-483.0
51.0,75.0,-136.0,691.0,524.0,172.0,199.0,261.0,-500.0
44.0,75.0,-134.0,615.0,407.0,170.0,166.0,270.0,-489.0
38.0,68.0,-123.0,565.0,370.0,213.0,134.0,250.0,-425.0
32.0,59.0,-108.0,559.0,414.0,275.0,100.0,215.0,-374.0
24.0,48.0,-93.0,593.0,494.0,343.0,77.0,180.0,-314.0
27.0,36.0,-83.0,653.0,582.0,394.0,73.0,130.0,-256.0
25.0,28.0,-64.0,705.0,692.0,430.0,79.0,93.0,-207.0
40.0,19.0,-57.0,727.0,805.0,428.0,116.0,67.0,-166.0
44.0,21.0,-49.0,716.0,960.0,393.0,132.0,69.0,-126.0
39.0,22.0,-47.0,685.0,1123.0,323.0,115.0,83.0,-109.0
22.0,22.0,-44.0,638.0,1235.0,241.0,79.0,83.0,-108.0
-10.0,23.0,-49.0,563.0,1256.0,139.0,1.0,56.0,-129.0
-48.0,27.0,-48.0,463.0,1182.0,38.0,-150.0,80.0,-130.0
-87.0,20.0,-59.0,349.0,1025.0,-32.0,-294.0,65.0,-162.0
-114.0,14.0,-77.0,207.0,822.0,-62.0,-425.0,28.0,-249.0
-136.0,-4.0,-102.0,16.0,627.0,-78.0,-513.0,-45.0,-372.0
-159.0,-34.0,-139.0,-223.0,471.0,-87.0,-640.0,-187.0,-512.0
-184.0,-82.0,-176.0,-476.0,343.0,-80.0,-715.0,-374.0,-654.0
-160.0,-155.0,-195.0,-689.0,207.0,-40.0,-615.0,-607.0,-722.0
-72.0,-233.0,-188.0,-786.0,33.0,-12.0,-286.0,-880.0,-706.0
86.0,-288.0,-363.0,-740.0,-276.0,-79.0,324.0,-1143.0,-1317.0
227.0,-290.0,-748.0,-894.0,-689.0,-315.0,836.0,-1291.0,-2795.0
349.0,-343.0,-976.0,-1560.0,-1050.0,-560.0,1216.0,-1508.0,-3921.0
372.0,-485.0,-822.0,-2539.0,-875.0,-757.0,1202.0,-2065.0,-3271.0
181.0,-736.0,-240.0,-3112.0,-107.0,-910.0,519.0,-2738.0,-904.0
51.0,-960.0,234.0,-2548.0,672.0,-786.0,111.0,-3416.0,894.0
35.0,-1043.0,269.0,-1147.0,1080.0,-458.0,60.0,-3779.0,1173.0
19.0,-981.0,96.0,198.0,1056.0,-221.0,76.0,-3688.0,565.0
7.0,-843.0,-140.0,956.0,693.0,-114.0,39.0,-3363.0,-320.0
-2.0,-724.0,-272.0,1101.0,120.0,-69.0,-2.0,-2918.0,-1056.0
-21.0,-615.0,-283.0,1013.0,-422.0,5.0,-130.0,-2371.0,-1099.0
-47.0,-546.0,-214.0,1090.0,-727.0,202.0,-239.0,-2070.0,-826.0
-53.0,-508.0,-153.0,1436.0,-801.0,553.0,-283.0,-1892.0,-509.0
-44.0,-461.0,-73.0,1807.0,-722.0,831.0,-230.0,-1793.0,-241.0
-20.0,-440.0,-27.0,1908.0,-584.0,1032.0,-141.0,-1753.0,-40.0
-12.0,-422.0,2.0,1625.0,-484.0,1108.0,-77.0,-1698.0,77.0
2.0,-403.0,7.0,1100.0,-536.0,1091.0,-9.0,-1642.0,71.0
21.0,-381.0,-18.0,473.0,-720.0,1027.0,71.0,-1556.0,-17.0
41.0,-359.0,-47.0,-98.0,-931.0,985.0,132.0,-1454.0,-114.0
65.0,-352.0,-72.0,-481.0,-1053.0,1010.0,197.0,-1390.0,-194.0
77.0,-357.0,-87.0,-664.0,-1035.0,1088.0,229.0,-1392.0,-267.0
76.0,-373.0,-89.0,-740.0,-937.0,1163.0,244.0,-1448.0,-293.0
75.0,-388.0,-87.0,-777.0,-832.0,1196.0,236.0,-1513.0,-285.0
60.0,-403.0,-71.0,-805.0,-732.0,1183.0,189.0,-1563.0,-214.0
47.0,-406.0,-49.0,-804.0,-644.0,1146.0,121.0,-1565.0,-120.0
24.0,-402.0,-22.0,-751.0,-549.0,1091.0,39.0,-1536.0,-8.0
5.0,-390.0,6.0,-624.0,-429.0,1009.0,-24.0,-1484.0,90.0
-15.0,-371.0,8.0,-406.0,-329.0,934.0,-116.0,-1411.0,103.0
-36.0,-338.0,4.0,-204.0,-237.0,854.0,-182.0,-1285.0,70.0
-55.0,-286.0,-8.0,10.0,-148.0,736.0,-244.0,-1111.0,27.0
-62.0,-244.0,-18.0,227.0,-96.0,636.0,-279.0,-888.0,-1.0
-69.0,-184.0,-17.0,455.0,-85.0,567.0,-278.0,-674.0,-13.0
-65.0,-126.0,-19.0,664.0,-110.0,529.0,-269.0,-473.0,-15.0
-62.0,-73.0,-10.0,811.0,-173.0,512.0,-243.0,-295.0,36.0
-60.0,-38.0,13.0,856.0,-276.0,499.0,-228.0,-164.0,104.0
-47.0,-4.0,32.0,811.0,-419.0,471.0,-186.0,-45.0,168.0
-23.0,23.0,25.0,721.0,-566.0,438.0,-118.0,57.0,173.0
-3.0,43.0,-5.0,624.0,-674.0,397.0,-27.0,143.0,45.0
29.0,52.0,-50.0,505.0,-714.0,355.0,85.0,179.0,-117.0
41.0,46.0,-79.0,351.0,-719.0,294.0,156.0,130.0,-268.0
35.0,37.0,-103.0,104.0,-749.0,166.0,126.0,103.0,-381.0
26.0,27.0,-133.0,-111.0,-782.0,-26.0,93.0,66.0,-477.0
6.0,17.0,-127.0,-301.0,-817.0,-215.0,17.0,40.0,-462.0
-7.0,-13.0,-124.0,-398.0,-819.0,-361.0,-58.0,-47.0,-438.0
-6.0,-47.0,-111.0,-377.0,-721.0,-486.0,-74.0,-134.0,-376.0
0.0,-60.0,-83.0,-247.0,-529.0,-597.0,-59.0,-184.0,-278.0
1.0,-67.0,-67.0,-2.0,-310.0,-687.0,-29.0,-201.0,-215.0
10.0,-64.0,-66.0,329.0,-163.0,-756.0,9.0,-193.0,-192.0
16.0,-51.0,-72.0,694.0,-118.0,-829.0,62.0,-168.0,-217.0
20.0,-30.0,-82.0,1028.0,-142.0,-902.0,63.0,-102.0,-281.0
3.0,-4.0,-99.0,1289.0,-204.0,-972.0,23.0,-16.0,-341.0
-19.0,30.0,-109.0,1466.0,-282.0,-1025.0,-92.0,121.0,-384.0
-57.0,60.0,-106.0,1565.0,-370.0,-1050.0,-210.0,228.0,-374.0
-86.0,86.0,-90.0,1603.0,-485.0,-1010.0,-339.0,322.0,-316.0
-118.0,107.0,-71.0,1572.0,-591.0,-913.0,-440.0,389.0,-246.0
-136.0,124.0,-60.0,1482.0,-721.0,-770.0,-504.0,437.0,-196.0
-125.0,134.0,-74.0,1334.0,-855.0,-609.0,-485.0,462.0,-226.0
-112.0,135.0,-94.0,1105.0,-956.0,-444.0,-418.0,453.0,-327.0
-76.0,124.0,-125.0,773.0,-998.0,-279.0,-302.0,395.0,-435.0
-25.0,99.0,-135.0,351.0,-975.0,-125.0,-115.0,308.0,-468.0
17.0,61.0,-134.0,-75.0,-910.0,-16.0,41.0,185.0,-480.0
49.0,8.0,-126.0,-434.0,-855.0,45.0,168.0,9.0,-456.0
57.0,-46.0,-122.0,-703.0,-856.0,41.0,211.0,-173.0,-420.0
47.0,-103.0,-115.0,-859.0,-944.0,11.0,213.0,-354.0,-393.0
-12.0,-143.0,-127.0,-905.0,-1172.0,-46.0,66.0,-539.0,-468.0
-81.0,-191.0,-155.0,-966.0,-1608.0,-78.0,-218.0,-788.0,-562.0
-157.0,-225.0,-240.0,-1144.0,-2414.0,-6.0,-586.0,-999.0,-1034.0
-189.0,-263.0,-517.0,-1647.0,-3079.0,307.0,-777.0,-1156.0,-2104.0
-62.0,-304.0,-802.0,-2266.0,-3124.0,730.0,-453.0,-1300.0,-3184.0
77.0,-410.0,-812.0,-2730.0,-2163.0,989.0,-13.0,-1596.0,-3203.0
112.0,-597.0,-356.0,-2631.0,-627.0,1064.0,225.0,-2124.0,-1493.0
78.0,-813.0,177.0,-1640.0,483.0,1127.0,289.0,-2803.0,573.0
59.0,-937.0,381.0,-20.0,528.0,1178.0,306.0,-3345.0,1530.0
55.0,-924.0,244.0,1411.0,-230.0,1095.0,263.0,-3516.0,1187.0
81.0,-822.0,18.0,2056.0,-1049.0,834.0,245.0,-3303.0,352.0
100.0,-720.0,-126.0,1902.0,-1407.0,462.0,264.0,-2870.0,-407.0
81.0,-595.0,-219.0,1319.0,-1296.0,58.0,183.0,-2383.0,-797.0
59.0,-507.0,-206.0,825.0,-874.0,-288.0,99.0,-1982.0,-762.0
20.0,-436.0,-163.0,689.0,-351.0,-589.0,-9.0,-1630.0,-568.0
-36.0,-391.0,-135.0,749.0,122.0,-823.0,-235.0,-1527.0,-471.0
-86.0,-392.0,-78.0,686.0,499.0,-899.0,-389.0,-1567.0,-254.0
-109.0,-423.0,-9.0,441.0,647.0,-898.0,-467.0,-1681.0,23.0
-114.0,-472.0,39.0,87.0,730.0,-844.0,-487.0,-1862.0,202.0
-110.0,-532.0,56.0,-332.0,763.0,-787.0,-467.0,-2060.0,280.0
-95.0,-566.0,59.0,-759.0,680.0,-792.0,-385.0,-2222.0,291.0
-65.0,-589.0,30.0,-1113.0,501.0,-856.0,-285.0,-2295.0,198.0
-37.0,-603.0,-1.0,-1337.0,373.0,-947.0,-226.0,-2326.0,67.0
-17.0,-614.0,-19.0,-1443.0,378.0,-1003.0,-141.0,-2354.0,-5.0
20.0,-614.0,-8.0,-1443.0,473.0,-1043.0,-23.0,-2358.0,21.0
74.0,-610.0,9.0,-1350.0,604.0,-1076.0,170.0,-2329.0,98.0
119.0,-594.0,32.0,-1191.0,767.0,-1118.0,350.0,-2269.0,184.0
155.0,-557.0,46.0,-985.0,931.0,-1166.0,490.0,-2146.0,265.0
172.0,-502.0,52.0,-755.0,1066.0,-1224.0,603.0,-1917.0,258.0
187.0,-459.0,31.0,-548.0,1180.0,-1247.0,685.0,-1758.0,190.0
200.0,-407.0,24.0,-420.0,1233.0,-1277.0,732.0,-1558.0,164.0
191.0,-341.0,16.0,-384.0,1283.0,-1281.0,683.0,-1297.0,135.0
158.0,-257.0,-15.0,-366.0,1308.0,-1249.0,575.0,-1004.0,6.0
112.0,-169.0,-72.0,-430.0,1282.0,-1152.0,410.0,-723.0,-225.0
57.0,-112.0,-107.0,-670.0,1206.0,-965.0,216.0,-516.0,-353.0
7.0,-74.0,-90.0,-1008.0,1106.0,-711.0,47.0,-343.0,-303.0
-35.0,-43.0,-49.0,-1256.0,996.0,-472.0,-122.0,-189.0,-159.0
-79.0,-34.0,-15.0,-1324.0,850.0,-218.0,-285.0,-127.0,-46.0
-82.0,-41.0,5.0,-1241.0,693.0,52.0,-332.0,-139.0,81.0
-86.0,-40.0,2.0,-1033.0,624.0,288.0,-360.0,-115.0,82.0
-91.0,-29.0,-7.0,-736.0,655.0,470.0,-372.0,-67.0,51.0
-92.0,-18.0,-32.0,-393.0,733.0,612.0,-386.0,-45.0,-68.0
-82.0,-7.0,-55.0,-92.0,765.0,783.0,-312.0,-5.0,-164.0
-55.0,-2.0,-68.0,199.0,708.0,918.0,-208.0,7.0,-218.0
-10.0,-5.0,-79.0,390.0,603.0,980.0,-33.0,-33.0,-253.0
30.0,-18.0,-88.0,487.0,464.0,948.0,113.0,-77.0,-277.0
44.0,-17.0,-95.0,483.0,327.0,841.0,162.0,-88.0,-307.0
46.0,-13.0,-105.0,412.0,236.0,734.0,159.0,-76.0,-361.0
40.0,-7.0,-119.0,321.0,191.0,644.0,146.0,-57.0,-419.0
41.0,-13.0,-133.0,274.0,149.0,583.0,155.0,-58.0,-491.0
45.0,-22.0,-158.0,300.0,81.0,541.0,178.0,-89.0,-564.0
48.0,-34.0,-161.0,403.0,10.0,519.0,172.0,-123.0,-569.0
46.0,-48.0,-146.0,594.0,-16.0,534.0,153.0,-156.0,-542.0
44.0,-49.0,-126.0,851.0,26.0,584.0,136.0,-175.0,-461.0
43.0,-41.0,-101.0,1125.0,118.0,640.0,140.0,-163.0,-365.0
53.0,-16.0,-85.0,1372.0,249.0,671.0,163.0,-61.0,-265.0
57.0,11.0,-78.0,1567.0,479.0,659.0,177.0,56.0,-218.0
50.0,57.0,-65.0,1604.0,727.0,617.0,152.0,206.0,-187.0
43.0,100.0,-60.0,1520.0,977.0,556.0,138.0,345.0,-170.0
33.0,134.0,-57.0,1343.0,1165.0,472.0,117.0,459.0,-166.0
9.0,157.0,-64.0,1089.0,1230.0,368.0,62.0,536.0,-193.0
-14.0,169.0,-71.0,751.0,1177.0,256.0,-29.0,571.0,-221.0
-52.0,163.0,-76.0,325.0,1025.0,147.0,-155.0,553.0,-248.0
-83.0,141.0,-71.0,-169.0,814.0,49.0,-292.0,477.0,-241.0
-117.0,101.0,-79.0,-679.0,596.0,-32.0,-417.0,348.0,-265.0
-130.0,53.0,-71.0,-1145.0,398.0,-102.0,-495.0,161.0,-224.0
-150.0,-22.0,-73.0,-1477.0,237.0,-160.0,-571.0,-105.0,-232.0
-154.0,-115.0,-105.0,-1622.0,116.0,-199.0,-627.0,-383.0,-333.0
-131.0,-199.0,-137.0,-1543.0,45.0,-199.0,-570.0,-667.0,-467.0
-52.0,-267.0,-166.0,-1180.0,62.0,-188.0,-316.0,-950.0,-589.0
79.0,-311.0,-241.0,-450.0,104.0,-207.0,292.0,-1139.0,-891.0
193.0,-299.0,-509.0,68.0,-2.0,-319.0,758.0,-1242.0,-1940.0
250.0,-259.0,-848.0,-110.0,-410.0,-485.0,991.0,-1276.0,-3345.0
303.0,-348.0,-872.0,-1215.0,-879.0,-631.0,1072.0,-1544.0,-3632.0
276.0,-514.0,-551.0,-2539.0,-866.0,-806.0,878.0,-2139.0,-1994.0
173.0,-769.0,-2.0,-2964.0,-392.0,-924.0,459.0,-2824.0,117.0
110.0,-954.0,283.0,-2068.0,338.0,-723.0,214.0,-3398.0,1221.0
117.0,-1016.0,279.0,-385.0,1198.0,-280.0,317.0,-3675.0,1237.0
122.0,-946.0,73.0,1257.0,1682.0,45.0,466.0,-3583.0,483.0
133.0,-785.0,-183.0,2168.0,1432.0,83.0,534.0,-3167.0,-535.0
128.0,-609.0,-334.0,2221.0,872.0,-14.0,491.0,-2569.0,-1230.0
74.0,-465.0,-297.0,1814.0,511.0,-85.0,300.0,-1978.0,-1242.0
2.0,-401.0,-134.0,1463.0,341.0,146.0,36.0,-1613.0,-518.0
-14.0,-391.0,-14.0,1385.0,216.0,571.0,-93.0,-1512.0,70.0
-6.0,-402.0,70.0,1448.0,117.0,976.0,-59.0,-1586.0,360.0
-6.0,-419.0,77.0,1344.0,82.0,1244.0,-63.0,-1700.0,371.0
-7.0,-432.0,52.0,916.0,53.0,1395.0,-40.0,-1771.0,251.0
22.0,-440.0,0.0,265.0,-56.0,1436.0,45.0,-1778.0,81.0
42.0,-439.0,-63.0,-385.0,-165.0,1422.0,109.0,-1771.0,-165.0
54.0,-444.0,-105.0,-907.0,-167.0,1408.0,154.0,-1762.0,-332.0
76.0,-467.0,-103.0,-1253.0,-99.0,1446.0,221.0,-1811.0,-344.0
90.0,-501.0,-92.0,-1426.0,-19.0,1495.0,281.0,-1910.0,-318.0
95.0,-522.0,-82.0,-1476.0,76.0,1522.0,286.0,-2015.0,-275.0
77.0,-545.0,-69.0,-1437.0,181.0,1515.0,235.0,-2075.0,-210.0
53.0,-545.0,-42.0,-1309.0,261.0,1501.0,151.0,-2073.0,-98.0
27.0,-527.0,-15.0,-1084.0,312.0,1468.0,56.0,-2002.0,4.0
5.0,-494.0,6.0,-720.0,342.0,1436.0,-13.0,-1883.0,81.0
-18.0,-438.0,-4.0,-406.0,344.0,1378.0,-120.0,-1634.0,50.0
-43.0,-372.0,-21.0,-147.0,319.0,1324.0,-194.0,-1400.0,-16.0
-49.0,-296.0,-33.0,70.0,276.0,1238.0,-205.0,-1130.0,-69.0
-56.0,-228.0,-41.0,264.0,226.0,1137.0,-239.0,-871.0,-96.0
-59.0,-174.0,-39.0,435.0,191.0,1039.0,-255.0,-617.0,-69.0
-80.0,-111.0,-26.0,582.0,174.0,929.0,-328.0,-416.0,-42.0
-90.0,-67.0,-19.0,647.0,125.0,803.0,-359.0,-263.0,-11.0
-87.0,-27.0,-9.0,582.0,7.0,644.0,-337.0,-138.0,23.0
-90.0,9.0,-7.0,396.0,-158.0,440.0,-345.0,-17.0,32.0
-81.0,17.0,-24.0,139.0,-310.0,245.0,-330.0,38.0,-19.0
-60.0,13.0,-51.0,-112.0,-400.0,59.0,-257.0,35.0,-98.0
-48.0,5.0,-83.0,-292.0,-421.0,-145.0,-224.0,6.0,-224.0
-28.0,-16.0,-96.0,-429.0,-405.0,-280.0,-133.0,-48.0,-304.0
-15.0,-36.0,-86.0,-455.0,-433.0,-379.0,-77.0,-124.0,-289.0
-24.0,-42.0,-77.0,-349.0,-570.0,-447.0,-74.0,-121.0,-251.0
-39.0,-34.0,-76.0,-128.0,-777.0,-463.0,-154.0,-101.0,-258.0
-55.0,-31.0,-98.0,115.0,-949.0,-438.0,-236.0,-102.0,-334.0
-65.0,-20.0,-122.0,325.0,-996.0,-391.0,-280.0,-67.0,-417.0
-65.0,-5.0,-145.0,478.0,-919.0,-351.0,-293.0,-33.0,-510.0
-64.0,4.0,-166.0,562.0,-790.0,-326.0,-274.0,6.0,-598.0
-50.0,11.0,-179.0,581.0,-687.0,-334.0,-226.0,24.0,-659.0
-24.0,8.0,-182.0,572.0,-627.0,-376.0,-128.0,35.0,-675.0
-4.0,5.0,-165.0,582.0,-591.0,-456.0,-42.0,20.0,-630.0
2.0,3.0,-151.0,649.0,-573.0,-553.0,-5.0,22.0,-549.0
-8.0,6.0,-125.0,770.0,-577.0,-652.0,-25.0,41.0,-439.0
-18.0,19.0,-83.0,912.0,-626.0,-683.0,-66.0,84.0,-310.0
-39.0,34.0,-56.0,1071.0,-716.0,-670.0,-133.0,136.0,-166.0
-62.0,60.0,-35.0,1172.0,-864.0,-605.0,-225.0,241.0,-69.0
-82.0,87.0,-23.0,1240.0,-1057.0,-524.0,-300.0,315.0,-25.0
-89.0,100.0,-31.0,1222.0,-1255.0,-412.0,-335.0,351.0,-55.0
-83.0,121.0,-49.0,1073.0,-1428.0,-289.0,-323.0,401.0,-120.0
-58.0,125.0,-76.0,808.0,-1547.0,-152.0,-254.0,410.0,-218.0
-26.0,119.0,-93.0,465.0,-1582.0,-13.0,-113.0,391.0,-301.0
15.0,99.0,-114.0,117.0,-1498.0,106.0,30.0,325.0,-377.0
62.0,67.0,-120.0,-180.0,-1309.0,180.0,198.0,214.0,-401.0
113.0,23.0,-114.0,-420.0,-1074.0,207.0,365.0,73.0,-392.0
136.0,-23.0,-110.0,-591.0,-863.0,195.0,484.0,-99.0,-382.0
142.0,-70.0,-117.0,-701.0,-748.0,164.0,530.0,-278.0,-388.0
96.0,-112.0,-142.0,-769.0,-808.0,101.0,439.0,-443.0,-485.0
22.0,-152.0,-174.0,-932.0,-1125.0,0.0,218.0,-628.0,-627.0
-47.0,-189.0,-281.0,-1274.0,-1748.0,-70.0,8.0,-813.0,-1035.0
-118.0,-215.0,-488.0,-1856.0,-2516.0,80.0,-479.0,-1003.0,-2090.0
-95.0,-276.0,-808.0,-2530.0,-2899.0,458.0,-551.0,-1213.0,-3284.0
-11.0,-399.0,-888.0,-3000.0,-2201.0,754.0,-371.0,-1585.0,-3469.0
16.0,-625.0,-431.0,-2893.0,-603.0,885.0,-177.0,-2240.0,-1655.0
-47.0,-864.0,184.0,-1854.0,700.0,956.0,-175.0,-3013.0,657.0
-72.0,-990.0,396.0,-201.0,766.0,1040.0,-192.0,-3595.0,1610.0
-35.0,-976.0,217.0,1106.0,-51.0,1006.0,-158.0,-3731.0,1064.0
45.0,-874.0,-54.0,1526.0,-747.0,754.0,18.0,-3514.0,69.0
84.0,-762.0,-231.0,1205.0,-790.0,321.0,164.0,-3132.0,-717.0
77.0,-687.0,-253.0,586.0,-417.0,-129.0,169.0,-2678.0,-943.0
60.0,-606.0,-219.0,228.0,122.0,-560.0,142.0,-2305.0,-806.0
48.0,-538.0,-186.0,413.0,485.0,-816.0,112.0,-2048.0,-665.0
2.0,-498.0,-153.0,715.0,760.0,-951.0,-33.0,-1942.0,-569.0
-23.0,-492.0,-77.0,816.0,930.0,-969.0,-134.0,-1913.0,-234.0
-36.0,-496.0,-9.0,741.0,1008.0,-943.0,-199.0,-1953.0,32.0
-34.0,-508.0,11.0,562.0,1031.0,-899.0,-194.0,-1993.0,109.0
-24.0,-511.0,-2.0,272.0,1021.0,-876.0,-143.0,-2016.0,74.0
-9.0,-503.0,-22.0,-102.0,986.0,-892.0,-80.0,-1995.0,0.0
-4.0,-501.0,-39.0,-463.0,948.0,-935.0,-63.0,-1960.0,-84.0
9.0,-517.0,-46.0,-726.0,951.0,-951.0,-26.0,-2000.0,-103.0
37.0,-510.0,-34.0,-825.0,1018.0,-965.0,53.0,-1958.0,-44.0
53.0,-503.0,-14.0,-821.0,1172.0,-960.0,128.0,-1942.0,25.0
75.0,-495.0,12.0,-773.0,1373.0,-952.0,216.0,-1895.0,106.0
85.0,-481.0,23.0,-677.0,1555.0,-968.0,221.0,-1847.0,150.0
150.0,-458.0,31.0,-527.0,1715.0,-1007.0,493.0,-1775.0,208.0
152.0,-421.0,34.0,-414.0,1843.0,-1082.0,530.0,-1655.0,209.0
151.0,-378.0,42.0,-320.0,1933.0,-1116.0,545.0,-1491.0,222.0
166.0,-349.0,43.0,-223.0,1961.0,-1081.0,604.0,-1318.0,245.0
166.0,-316.0,38.0,-134.0,1900.0,-1053.0,626.0,-1198.0,199.0
157.0,-262.0,22.0,-103.0,1761.0,-1006.0,587.0,-1022.0,146.0
135.0,-205.0,-14.0,-151.0,1604.0,-895.0,509.0,-828.0,-9.0
86.0,-136.0,-57.0,-279.0,1412.0,-730.0,336.0,-571.0,-169.0
32.0,-80.0,-93.0,-369.0,1171.0,-507.0,138.0,-339.0,-301.0
-11.0,-31.0,-106.0,-360.0,962.0,-241.0,-38.0,-131.0,-367.0
-64.0,2.0,-106.0,-235.0,839.0,34.0,-237.0,8.0,-363.0
-89.0,18.0,-94.0,-55.0,828.0,318.0,-365.0,64.0,-324.0
-105.0,35.0,-98.0,91.0,914.0,598.0,-453.0,126.0,-317.0
-139.0,55.0,-99.0,164.0,1091.0,764.0,-559.0,196.0,-325.0
-130.0,64.0,-102.0,153.0,1212.0,878.0,-529.0,227.0,-344.0
-109.0,57.0,-107.0,84.0,1268.0,917.0,-437.0,199.0,-380.0
-69.0,44.0,-109.0,-67.0,1222.0,897.0,-285.0,136.0,-385.0
-12.0,9.0,-101.0,-288.0,1063.0,845.0,-27.0,-7.0,-357.0
21.0,-25.0,-88.0,-510.0,854.0,738.0,95.0,-106.0,-296.0
35.0,-55.0,-74.0,-630.0,629.0,613.0,159.0,-190.0,-249.0
48.0,-79.0,-78.0,-574.0,402.0,509.0,193.0,-265.0,-240.0
51.0,-83.0,-90.0,-322.0,193.0,441.0,200.0,-281.0,-291.0
54.0,-80.0,-116.0,68.0,36.0,400.0,191.0,-260.0,-402.0
51.0,-64.0,-138.0,516.0,-42.0,398.0,164.0,-190.0,-495.0
50.0,-31.0,-149.0,945.0,-37.0,433.0,152.0,-98.0,-531.0
51.0,1.0,-146.0,1297.0,31.0,498.0,172.0,3.0,-508.0
63.0,35.0,-120.0,1536.0,177.0,531.0,208.0,110.0,-431.0
80.0,63.0,-88.0,1660.0,345.0,536.0,263.0,214.0,-310.0
95.0,88.0,-56.0,1659.0,541.0,501.0,312.0,300.0,-175.0
102.0,107.0,-28.0,1593.0,749.0,440.0,345.0,364.0,-52.0
103.0,119.0,-13.0,1486.0,948.0,356.0,361.0,431.0,15.0
97.0,130.0,-23.0,1340.0,1118.0,266.0,351.0,458.0,-12.0
81.0,135.0,-46.0,1142.0,1225.0,180.0,301.0,458.0,-109.0
50.0,129.0,-74.0,857.0,1238.0,106.0,204.0,425.0,-225.0
2.0,115.0,-88.0,472.0,1155.0,29.0,24.0,368.0,-305.0
-53.0,91.0,-97.0,29.0,1007.0,-33.0,-182.0,298.0,-330.0
-96.0,60.0,-96.0,-395.0,846.0,-72.0,-355.0,200.0,-322.0
-116.0,13.0,-88.0,-737.0,718.0,-71.0,-455.0,54.0,-296.0
-131.0,-47.0,-96.0,-947.0,662.0,-54.0,-518.0,-143.0,-299.0
-140.0,-92.0,-121.0,-1025.0,663.0,-30.0,-561.0,-365.0,-410.0
-109.0,-153.0,-155.0,-1007.0,667.0,9.0,-470.0,-576.0,-547.0
8.0,-222.0,-184.0,-915.0,697.0,25.0,-57.0,-810.0,-634.0
139.0,-283.0,-247.0,-702.0,805.0,-101.0,442.0,-1035.0,-877.0
195.0,-314.0,-414.0,-440.0,875.0,-321.0,742.0,-1238.0,-1661.0
195.0,-338.0,-597.0,-525.0,567.0,-483.0,864.0,-1505.0,-2416.0
170.0,-431.0,-603.0,-1203.0,-267.0,-537.0,689.0,-1830.0,-2457.0
88.0,-612.0,-280.0,-2063.0,-1022.0,-584.0,268.0,-2338.0,-1216.0
-7.0,-832.0,112.0,-2344.0,-1113.0,-551.0,-205.0,-2967.0,380.0
-45.0,-952.0,221.0,-1654.0,-463.0,-273.0,-424.0,-3494.0,999.0
-49.0,-975.0,130.0,-423.0,530.0,111.0,-337.0,-3606.0,593.0
-41.0,-908.0,-82.0,638.0,1184.0,336.0,-162.0,-3468.0,-258.0
-10.0,-783.0,-257.0,1067.0,1056.0,337.0,3.0,-3077.0,-966.0
3.0,-664.0,-301.0,1013.0,434.0,198.0,21.0,-2617.0,-1163.0
-24.0,-586.0,-208.0,888.0,-169.0,184.0,-141.0,-2280.0,-844.0
-29.0,-557.0,-121.0,1000.0,-288.0,327.0,-217.0,-2146.0,-476.0
46.0,-551.0,-78.0,1181.0,-184.0,520.0,5.0,-2124.0,-249.0
112.0,-527.0,-71.0,1257.0,74.0,597.0,271.0,-2100.0,-209.0
159.0,-511.0,-69.0,1086.0,378.0,614.0,517.0,-2045.0,-190.0
214.0,-482.0,-59.0,713.0,528.0,635.0,821.0,-1931.0,-162.0
248.0,-453.0,-57.0,280.0,464.0,696.0,948.0,-1810.0,-166.0
271.0,-426.0,-72.0,-87.0,336.0,829.0,1012.0,-1702.0,-213.0
282.0,-401.0,-76.0,-345.0,272.0,1030.0,1040.0,-1597.0,-243.0
293.0,-388.0,-82.0,-501.0,323.0,1281.0,1047.0,-1528.0,-241.0
279.0,-383.0,-86.0,-576.0,512.0,1509.0,989.0,-1513.0,-266.0
240.0,-385.0,-89.0,-642.0,810.0,1678.0,865.0,-1539.0,-286.0
182.0,-394.0,-66.0,-790.0,1102.0,1795.0,679.0,-1572.0,-234.0
123.0,-400.0,-39.0,-1029.0,1317.0,1818.0,433.0,-1575.0,-92.0
43.0,-394.0,8.0,-1165.0,1321.0,1765.0,172.0,-1535.0,86.0
-31.0,-389.0,47.0,-1178.0,1160.0,1709.0,-106.0,-1490.0,230.0
-98.0,-374.0,55.0,-1092.0,923.0,1643.0,-374.0,-1405.0,273.0
-162.0,-332.0,27.0,-933.0,714.0,1521.0,-615.0,-1268.0,197.0
-209.0,-274.0,5.0,-773.0,617.0,1347.0,-824.0,-1022.0,90.0
-256.0,-217.0,4.0,-631.0,605.0,1169.0,-998.0,-800.0,86.0
-279.0,-168.0,21.0,-463.0,556.0,999.0,-1080.0,-605.0,131.0
-304.0,-106.0,40.0,-267.0,389.0,855.0,-1154.0,-367.0,199.0
-301.0,-65.0,46.0,-31.0,145.0,735.0,-1141.0,-181.0,230.0
-262.0,-27.0,30.0,226.0,-95.0,622.0,-989.0,-55.0,175.0
-214.0,-1.0,7.0,411.0,-300.0,482.0,-823.0,26.0,86.0
-151.0,19.0,-19.0,473.0,-471.0,358.0,-587.0,70.0,-6.0
-81.0,30.0,-44.0,461.0,-629.0,191.0,-343.0,101.0,-93.0
-16.0,30.0,-73.0,366.0,-709.0,46.0,-90.0,90.0,-214.0
42.0,38.0,-111.0,198.0,-767.0,-136.0,129.0,89.0,-346.0
67.0,48.0,-124.0,-51.0,-834.0,-312.0,246.0,121.0,-428.0
69.0,46.0,-130.0,-338.0,-922.0,-429.0,276.0,128.0,-451.0
62.0,36.0,-124.0,-597.0,-1033.0,-464.0,255.0,91.0,-445.0
55.0,6.0,-136.0,-776.0,-1148.0,-466.0,225.0,-22.0,-487.0
47.0,-27.0,-153.0,-860.0,-1200.0,-472.0,147.0,-142.0,-553.0
42.0,-70.0,-164.0,-854.0,-1132.0,-507.0,102.0,-259.0,-587.0
42.0,-107.0,-168.0,-749.0,-923.0,-550.0,86.0,-381.0,-602.0
45.0,-130.0,-155.0,-521.0,-618.0,-617.0,110.0,-456.0,-548.0
42.0,-137.0,-132.0,-166.0,-322.0,-689.0,114.0,-488.0,-462.0
26.0,-133.0,-108.0,285.0,-112.0,-778.0,86.0,-463.0,-379.0
-14.0,-100.0,-96.0,776.0,-22.0,-862.0,-29.0,-363.0,-320.0
-56.0,-63.0,-94.0,1330.0,-81.0,-891.0,-207.0,-198.0,-313.0
-103.0,-11.0,-92.0,1707.0,-221.0,-856.0,-387.0,-20.0,-309.0
-144.0,40.0,-92.0,1978.0,-385.0,-777.0,-542.0,168.0,-313.0
-161.0,89.0,-97.0,2133.0,-526.0,-661.0,-623.0,330.0,-323.0
-154.0,128.0,-103.0,2183.0,-621.0,-543.0,-607.0,445.0,-356.0
-123.0,153.0,-121.0,2100.0,-654.0,-444.0,-502.0,512.0,-420.0
-75.0,156.0,-130.0,1838.0,-629.0,-382.0,-305.0,522.0,-449.0
-16.0,149.0,-116.0,1403.0,-575.0,-324.0,-92.0,472.0,-412.0
47.0,117.0,-86.0,877.0,-508.0,-248.0,148.0,386.0,-301.0
79.0,93.0,-59.0,390.0,-439.0,-181.0,317.0,276.0,-159.0
119.0,52.0,-28.0,36.0,-379.0,-121.0,460.0,147.0,-49.0
147.0,1.0,-16.0,-140.0,-329.0,-67.0,549.0,-27.0,-12.0
136.0,-49.0,-36.0,-198.0,-300.0,-10.0,521.0,-205.0,-65.0
94.0,-101.0,-70.0,-239.0,-390.0,59.0,394.0,-403.0,-213.0
28.0,-154.0,-90.0,-342.0,-737.0,89.0,214.0,-622.0,-320.0
20.0,-181.0,-165.0,-616.0,-1463.0,38.0,237.0,-831.0,-469.0
-146.0,-116.0,-625.0,-1355.0,-2488.0,2.0,-313.0,-790.0,-2000.0
-139.0,-130.0,-1109.0,-2759.0,-3377.0,338.0,-791.0,-738.0,-4029.0
-30.0,-242.0,-1216.0,-4175.0,-2960.0,835.0,-563.0,-1028.0,-4859.0
-8.0,-510.0,-676.0,-4625.0,-950.0,1141.0,-370.0,-1926.0,-2146.0
-110.0,-850.0,174.0,-3436.0,934.0,1398.0,-474.0,-2990.0,940.0
-177.0,-1086.0,560.0,-1069.0,1274.0,1668.0,-548.0,-3882.0,2219.0
-124.0,-1116.0,379.0,1049.0,292.0,1595.0,-453.0,-4170.0,1574.0
15.0,-1000.0,-16.0,2016.0,-652.0,1113.0,-104.0,-3951.0,121.0
105.0,-849.0,-304.0,1735.0,-712.0,497.0,233.0,-3473.0,-1055.0
124.0,-708.0,-381.0,771.0,-331.0,-224.0,348.0,-2874.0,-1463.0
126.0,-611.0,-311.0,-1.0,253.0,-729.0,346.0,-2366.0,-1247.0
118.0,-567.0,-237.0,21.0,803.0,-1081.0,321.0,-2093.0,-866.0
74.0,-536.0,-153.0,554.0,1313.0,-1259.0,211.0,-2017.0,-548.0
11.0,-526.0,-65.0,997.0,1573.0,-1305.0,24.0,-2024.0,-234.0
-8.0,-522.0,12.0,1151.0,1552.0,-1286.0,-54.0,-2038.0,82.0
-4.0,-519.0,38.0,1082.0,1445.0,-1253.0,-51.0,-2037.0,223.0
-2.0,-502.0,37.0,870.0,1329.0,-1248.0,-41.0,-1997.0,211.0
-2.0,-473.0,-1.0,543.0,1180.0,-1268.0,-29.0,-1872.0,73.0
-2.0,-443.0,-40.0,141.0,1038.0,-1308.0,-54.0,-1760.0,-83.0
-19.0,-421.0,-58.0,-265.0,1009.0,-1372.0,-125.0,-1679.0,-154.0
-35.0,-413.0,-52.0,-625.0,1085.0,-1434.0,-195.0,-1640.0,-128.0
-55.0,-420.0,-39.0,-917.0,1173.0,-1474.0,-252.0,-1645.0,-82.0
-21.0,-432.0,-26.0,-1140.0,1238.0,-1492.0,-144.0,-1682.0,-33.0
16.0,-431.0,-18.0,-1289.0,1308.0,-1505.0,-3.0,-1670.0,2.0
51.0,-425.0,-3.0,-1444.0,1391.0,-1484.0,133.0,-1640.0,67.0
81.0,-415.0,9.0,-1485.0,1457.0,-1460.0,257.0,-1592.0,105.0
88.0,-393.0,15.0,-1419.0,1466.0,-1430.0,321.0,-1509.0,123.0
132.0,-369.0,14.0,-1279.0,1398.0,-1374.0,445.0,-1432.0,135.0
153.0,-344.0,10.0,-1115.0,1299.0,-1318.0,532.0,-1347.0,111.0
173.0,-319.0,-2.0,-972.0,1191.0,-1231.0,637.0,-1242.0,63.0
184.0,-273.0,-40.0,-887.0,1100.0,-1125.0,679.0,-1100.0,-124.0
162.0,-227.0,-78.0,-916.0,1023.0,-1016.0,582.0,-902.0,-256.0
120.0,-196.0,-81.0,-1054.0,949.0,-860.0,420.0,-787.0,-254.0
68.0,-168.0,-53.0,-1173.0,856.0,-669.0,258.0,-641.0,-163.0
9.0,-141.0,-31.0,-1092.0,699.0,-426.0,37.0,-504.0,-58.0
-17.0,-127.0,-31.0,-757.0,507.0,-109.0,-70.0,-429.0,-45.0
-35.0,-94.0,-47.0,-257.0,376.0,275.0,-170.0,-318.0,-105.0
-88.0,-65.0,-58.0,402.0,439.0,551.0,-369.0,-222.0,-146.0
-109.0,-36.0,-57.0,894.0,634.0,800.0,-470.0,-90.0,-159.0
-103.0,7.0,-55.0,1293.0,837.0,989.0,-428.0,62.0,-149.0
-70.0,54.0,-54.0,1576.0,960.0,1090.0,-289.0,209.0,-138.0
-29.0,94.0,-56.0,1745.0,993.0,1092.0,-125.0,339.0,-160.0
13.0,127.0,-83.0,1760.0,980.0,1052.0,27.0,429.0,-252.0
34.0,148.0,-111.0,1576.0,962.0,984.0,125.0,480.0,-352.0
46.0,153.0,-127.0,1201.0,931.0,900.0,179.0,483.0,-452.0
58.0,133.0,-141.0,683.0,847.0,789.0,246.0,417.0,-509.0
67.0,101.0,-137.0,127.0,690.0,691.0,282.0,316.0,-502.0
66.0,62.0,-128.0,-314.0,491.0,606.0,260.0,194.0,-447.0
50.0,18.0,-107.0,-516.0,315.0,546.0,188.0,61.0,-372.0
30.0,-24.0,-77.0,-457.0,197.0,517.0,103.0,-62.0,-263.0
14.0,-51.0,-58.0,-188.0,114.0,526.0,43.0,-146.0,-162.0
3.0,-65.0,-39.0,277.0,78.0,544.0,-6.0,-193.0,-82.0
7.0,-57.0,-30.0,674.0,85.0,558.0,2.0,-189.0,-48.0
24.0,-34.0,-29.0,996.0,168.0,538.0,43.0,-125.0,-39.0
34.0,1.0,-34.0,1212.0,322.0,487.0,77.0,-22.0,-50.0
41.0,40.0,-49.0,1307.0,509.0,395.0,118.0,108.0,-101.0
48.0,67.0,-68.0,1273.0,697.0,282.0,145.0,228.0,-194.0
46.0,103.0,-97.0,1086.0,852.0,141.0,162.0,312.0,-311.0
32.0,111.0,-111.0,727.0,958.0,-16.0,113.0,341.0,-389.0
-3.0,108.0,-114.0,229.0,1000.0,-200.0,-11.0,320.0,-391.0
-40.0,85.0,-112.0,-313.0,980.0,-376.0,-165.0,252.0,-376.0
-83.0,49.0,-98.0,-800.0,902.0,-522.0,-319.0,158.0,-337.0
-109.0,-1.0,-77.0,-1147.0,777.0,-592.0,-397.0,6.0,-255.0
-129.0,-69.0,-85.0,-1270.0,622.0,-602.0,-496.0,-215.0,-275.0
-136.0,-144.0,-114.0,-1109.0,409.0,-545.0,-535.0,-465.0,-372.0
-111.0,-202.0,-132.0,-749.0,230.0,-476.0,-413.0,-721.0,-481.0
-29.0,-267.0,-149.0,-247.0,16.0,-442.0,-83.0,-961.0,-557.0
84.0,-295.0,-284.0,241.0,-360.0,-498.0,372.0,-1152.0,-1058.0
145.0,-256.0,-680.0,323.0,-989.0,-665.0,601.0,-1189.0,-2560.0
180.0,-238.0,-1016.0,-391.0,-1564.0,-791.0,580.0,-1185.0,-3994.0
185.0,-383.0,-851.0,-1568.0,-1406.0,-803.0,505.0,-1529.0,-3734.0
68.0,-629.0,-183.0,-2338.0,-519.0,-801.0,161.0,-2146.0,-1282.0
13.0,-862.0,288.0,-1910.0,352.0,-614.0,-78.0,-3059.0,1164.0
34.0,-963.0,358.0,-557.0,995.0,-272.0,-1.0,-3486.0,1546.0
63.0,-939.0,239.0,871.0,1400.0,-29.0,270.0,-3484.0,912.0
90.0,-823.0,-6.0,1674.0,1224.0,-10.0,418.0,-3162.0,-63.0
103.0,-671.0,-211.0,1689.0,507.0,-175.0,398.0,-2635.0,-822.0
75.0,-535.0,-272.0,1289.0,-241.0,-237.0,221.0,-2118.0,-1044.0
36.0,-454.0,-204.0,977.0,-368.0,-55.0,55.0,-1755.0,-769.0
6.0,-416.0,-85.0,1077.0,-271.0,324.0,-28.0,-1595.0,-312.0
17.0,-413.0,7.0,1251.0,-182.0,764.0,-5.0,-1603.0,50.0
41.0,-432.0,35.0,1262.0,-92.0,1107.0,80.0,-1695.0,201.0
54.0,-451.0,31.0,1021.0,12.0,1298.0,141.0,-1800.0,201.0
64.0,-465.0,22.0,538.0,31.0,1367.0,225.0,-1890.0,143.0
77.0,-477.0,-23.0,-76.0,-71.0,1334.0,260.0,-1940.0,-9.0
83.0,-482.0,-64.0,-685.0,-190.0,1235.0,274.0,-1923.0,-180.0
99.0,-494.0,-80.0,-1093.0,-209.0,1173.0,306.0,-1911.0,-245.0
105.0,-517.0,-95.0,-1229.0,-120.0,1164.0,327.0,-1998.0,-304.0
100.0,-546.0,-93.0,-1202.0,41.0,1151.0,307.0,-2091.0,-301.0
78.0,-557.0,-68.0,-1111.0,208.0,1108.0,250.0,-2130.0,-212.0
45.0,-556.0,-39.0,-942.0,322.0,1044.0,133.0,-2102.0,-103.0
11.0,-534.0,-13.0,-617.0,340.0,1018.0,2.0,-2012.0,-7.0
-30.0,-501.0,-12.0,-235.0,317.0,978.0,-168.0,-1870.0,24.0
-74.0,-456.0,-4.0,148.0,269.0,967.0,-324.0,-1696.0,56.0
-103.0,-395.0,6.0,509.0,205.0,923.0,-424.0,-1477.0,76.0
-137.0,-319.0,0.0,795.0,142.0,839.0,-562.0,-1229.0,61.0
-146.0,-249.0,-8.0,961.0,100.0,739.0,-586.0,-955.0,37.0
-169.0,-167.0,-16.0,1024.0,67.0,634.0,-681.0,-690.0,4.0
-172.0,-105.0,-15.0,1012.0,26.0,561.0,-698.0,-435.0,24.0
-157.0,-44.0,-2.0,968.0,-40.0,496.0,-632.0,-225.0,59.0
-133.0,5.0,4.0,940.0,-141.0,429.0,-509.0,25.0,70.0
-117.0,46.0,4.0,919.0,-279.0,363.0,-420.0,195.0,55.0
-92.0,88.0,-2.0,855.0,-436.0,304.0,-321.0,332.0,41.0
-53.0,119.0,-16.0,737.0,-615.0,237.0,-168.0,423.0,-13.0
-5.0,132.0,-47.0,522.0,-861.0,160.0,7.0,443.0,-143.0
28.0,121.0,-110.0,240.0,-1031.0,70.0,109.0,389.0,-358.0
56.0,95.0,-141.0,-159.0,-1130.0,-21.0,214.0,305.0,-494.0
56.0,43.0,-169.0,-612.0,-1180.0,-159.0,215.0,106.0,-599.0
33.0,3.0,-175.0,-1048.0,-1174.0,-357.0,105.0,-9.0,-632.0
14.0,-52.0,-180.0,-1342.0,-1095.0,-504.0,13.0,-161.0,-637.0
10.0,-91.0,-187.0,-1427.0,-918.0,-609.0,-32.0,-337.0,-660.0
6.0,-140.0,-192.0,-1296.0,-635.0,-706.0,-40.0,-507.0,-680.0
12.0,-185.0,-171.0,-982.0,-291.0,-791.0,-23.0,-647.0,-627.0
19.0,-207.0,-133.0,-514.0,20.0,-847.0,25.0,-742.0,-447.0
28.0,-218.0,-96.0,66.0,213.0,-896.0,87.0,-753.0,-319.0
30.0,-196.0,-72.0,696.0,268.0,-939.0,104.0,-673.0,-223.0
20.0,-150.0,-64.0,1321.0,213.0,-967.0,70.0,-516.0,-197.0
-4.0,-84.0,-57.0,1984.0,49.0,-952.0,15.0,-310.0,-168.0
-26.0,-24.0,-45.0,2416.0,-119.0,-912.0,-74.0,-90.0,-120.0
-48.0,26.0,-27.0,2723.0,-303.0,-850.0,-183.0,143.0,-36.0
-85.0,97.0,-11.0,2890.0,-514.0,-781.0,-310.0,367.0,21.0
-110.0,156.0,-14.0,2893.0,-747.0,-677.0,-395.0,561.0,3.0
-114.0,203.0,-36.0,2720.0,-970.0,-570.0,-416.0,709.0,-79.0
-93.0,241.0,-80.0,2353.0,-1131.0,-473.0,-375.0,797.0,-236.0
-63.0,256.0,-128.0,1782.0,-1196.0,-389.0,-274.0,866.0,-429.0
-16.0,245.0,-173.0,1045.0,-1157.0,-303.0,-118.0,806.0,-599.0
17.0,212.0,-174.0,198.0,-1038.0,-258.0,20.0,703.0,-647.0
44.0,154.0,-161.0,-623.0,-896.0,-220.0,124.0,492.0,-572.0
58.0,102.0,-133.0,-1290.0,-794.0,-190.0,231.0,282.0,-456.0
60.0,15.0,-102.0,-1759.0,-736.0,-193.0,206.0,-14.0,-333.0
40.0,-80.0,-81.0,-2007.0,-736.0,-216.0,136.0,-349.0,-255.0
-17.0,-172.0,-88.0,-2072.0,-877.0,-235.0,-37.0,-679.0,-301.0
-87.0,-243.0,-111.0,-2059.0,-1238.0,-280.0,-283.0,-947.0,-394.0
-188.0,-281.0,-263.0,-2179.0,-1814.0,-264.0,-633.0,-1177.0,-929.0
-250.0,-303.0,-692.0,-2582.0,-2519.0,-4.0,-971.0,-1283.0,-2518.0
-136.0,-364.0,-1034.0,-3166.0,-2833.0,375.0,-854.0,-1467.0,-3989.0
36.0,-513.0,-880.0,-3568.0,-2044.0,651.0,-293.0,-1831.0,-3889.0
43.0,-695.0,-347.0,-3269.0,-486.0,828.0,-33.0,-2451.0,-1376.0
-62.0,-934.0,293.0,-1877.0,499.0,966.0,-198.0,-3241.0,1064.0
-78.0,-1047.0,453.0,-20.0,216.0,1040.0,-216.0,-3804.0,1829.0
-28.0,-1001.0,226.0,1268.0,-712.0,938.0,-139.0,-3854.0,876.0
22.0,-883.0,-80.0,1590.0,-1337.0,649.0,-24.0,-3435.0,-261.0
28.0,-748.0,-264.0,1236.0,-1380.0,185.0,-12.0,-2920.0,-980.0
28.0,-618.0,-292.0,734.0,-1163.0,-398.0,5.0,-2394.0,-1108.0
39.0,-535.0,-241.0,550.0,-818.0,-773.0,46.0,-2027.0,-912.0
30.0,-485.0,-165.0,779.0,-478.0,-1020.0,30.0,-1849.0,-620.0
-3.0,-470.0,-109.0,1058.0,-148.0,-1129.0,-108.0,-1815.0,-336.0
-34.0,-473.0,-31.0,1142.0,95.0,-1109.0,-202.0,-1854.0,-32.0
-38.0,-492.0,41.0,1004.0,266.0,-1036.0,-213.0,-1941.0,216.0
-35.0,-509.0,72.0,722.0,380.0,-999.0,-204.0,-1997.0,346.0
-36.0,-506.0,68.0,365.0,386.0,-1027.0,-169.0,-2000.0,343.0
-17.0,-491.0,28.0,-26.0,289.0,-1088.0,-110.0,-1956.0,204.0
-2.0,-483.0,-12.0,-407.0,195.0,-1169.0,-63.0,-1892.0,52.0
13.0,-475.0,-22.0,-720.0,198.0,-1237.0,-30.0,-1873.0,-10.0
34.0,-480.0,-12.0,-937.0,292.0,-1274.0,31.0,-1856.0,42.0
54.0,-482.0,3.0,-1048.0,438.0,-1291.0,157.0,-1868.0,97.0
72.0,-489.0,16.0,-1079.0,612.0,-1285.0,241.0,-1886.0,161.0
133.0,-487.0,56.0,-1044.0,842.0,-1295.0,441.0,-1843.0,292.0
143.0,-466.0,74.0,-883.0,1016.0,-1346.0,491.0,-1765.0,377.0
164.0,-436.0,77.0,-697.0,1096.0,-1367.0,588.0,-1661.0,375.0
186.0,-390.0,59.0,-522.0,1105.0,-1364.0,684.0,-1519.0,306.0
177.0,-332.0,17.0,-394.0,1086.0,-1322.0,648.0,-1316.0,160.0
159.0,-268.0,-33.0,-319.0,1043.0,-1231.0,598.0,-1087.0,-14.0
140.0,-216.0,-84.0,-318.0,962.0,-1104.0,534.0,-915.0,-240.0
103.0,-171.0,-94.0,-435.0,840.0,-941.0,416.0,-732.0,-316.0
65.0,-136.0,-77.0,-529.0,731.0,-749.0,240.0,-547.0,-258.0
10.0,-98.0,-55.0,-504.0,650.0,-513.0,43.0,-384.0,-156.0
-27.0,-68.0,-29.0,-359.0,573.0,-218.0,-98.0,-252.0,-76.0
-66.0,-52.0,-39.0,-131.0,509.0,83.0,-259.0,-183.0,-86.0
-97.0,-23.0,-58.0,116.0,546.0,331.0,-428.0,-80.0,-158.0
-110.0,1.0,-86.0,334.0,749.0,578.0,-473.0,18.0,-257.0
-98.0,28.0,-102.0,509.0,936.0,730.0,-414.0,103.0,-339.0
-79.0,42.0,-114.0,585.0,1022.0,827.0,-318.0,145.0,-394.0
-32.0,38.0,-120.0,578.0,967.0,884.0,-133.0,127.0,-436.0
4.0,28.0,-122.0,453.0,811.0,883.0,43.0,57.0,-434.0
40.0,7.0,-112.0,211.0,618.0,825.0,165.0,-31.0,-406.0
63.0,-22.0,-105.0,-88.0,430.0,738.0,249.0,-124.0,-367.0
76.0,-50.0,-93.0,-351.0,244.0,633.0,301.0,-205.0,-316.0
84.0,-71.0,-93.0,-458.0,59.0,527.0,317.0,-264.0,-306.0
82.0,-83.0,-105.0,-342.0,-110.0,433.0,305.0,-278.0,-340.0
76.0,-82.0,-115.0,-16.0,-214.0,369.0,282.0,-279.0,-381.0
76.0,-69.0,-114.0,458.0,-208.0,337.0,253.0,-237.0,-386.0
75.0,-50.0,-102.0,990.0,-98.0,345.0,244.0,-145.0,-345.0
79.0,-25.0,-91.0,1492.0,75.0,374.0,264.0,-49.0,-284.0
87.0,10.0,-79.0,1892.0,318.0,394.0,289.0,66.0,-228.0
88.0,51.0,-65.0,2183.0,533.0,409.0,309.0,188.0,-185.0
97.0,85.0,-63.0,2268.0,757.0,420.0,333.0,299.0,-173.0
108.0,116.0,-62.0,2229.0,979.0,401.0,381.0,396.0,-187.0
105.0,145.0,-78.0,2087.0,1172.0,341.0,379.0,488.0,-228.0
87.0,175.0,-91.0,1829.0,1288.0,257.0,338.0,574.0,-289.0
60.0,189.0,-113.0,1436.0,1312.0,184.0,256.0,627.0,-381.0
21.0,198.0,-139.0,890.0,1264.0,107.0,128.0,638.0,-483.0
-10.0,196.0,-158.0,192.0,1189.0,27.0,-18.0,600.0,-560.0
-47.0,173.0,-159.0,-605.0,1110.0,-60.0,-170.0,536.0,-575.0
-83.0,129.0,-138.0,-1410.0,1045.0,-139.0,-307.0,425.0,-516.0
-124.0,70.0,-108.0,-2102.0,978.0,-207.0,-458.0,255.0,-360.0
-149.0,-3.0,-70.0,-2587.0,885.0,-243.0,-582.0,-43.0,-213.0
-163.0,-97.0,-42.0,-2798.0,730.0,-256.0,-632.0,-330.0,-92.0
-165.0,-179.0,-66.0,-2616.0,593.0,-229.0,-649.0,-613.0,-181.0
-127.0,-258.0,-91.0,-2176.0,464.0,-154.0,-534.0,-862.0,-290.0
-2.0,-326.0,-70.0,-1499.0,380.0,-50.0,-133.0,-1101.0,-245.0
143.0,-385.0,-83.0,-590.0,338.0,-8.0,565.0,-1369.0,-287.0
302.0,-409.0,-357.0,371.0,259.0,-149.0,1178.0,-1594.0,-1360.0
366.0,-333.0,-838.0,627.0,-23.0,-396.0,1420.0,-1564.0,-3288.0
395.0,-354.0,-1064.0,-315.0,-343.0,-522.0,1423.0,-1728.0,-4322.0
283.0,-533.0,-635.0,-2081.0,-100.0,-679.0,971.0,-2161.0,-2947.0
33.0,-773.0,123.0,-3232.0,760.0,-874.0,54.0,-2672.0,180.0
-70.0,-945.0,450.0,-2561.0,1680.0,-674.0,-384.0,-3200.0,1758.0
-78.0,-964.0,344.0,-768.0,2245.0,-187.0,-339.0,-3498.0,1650.0
-43.0,-889.0,89.0,813.0,2136.0,196.0,-175.0,-3400.0,502.0
-1.0,-785.0,-112.0,1567.0,1446.0,422.0,56.0,-2997.0,-522.0
37.0,-655.0,-288.0,1587.0,522.0,544.0,82.0,-2523.0,-1120.0
-12.0,-543.0,-280.0,1436.0,213.0,729.0,-149.0,-2096.0,-1055.0
-71.0,-484.0,-135.0,1479.0,266.0,1054.0,-342.0,-1835.0,-498.0
-91.0,-463.0,29.0,1675.0,260.0,1425.0,-366.0,-1765.0,138.0
-86.0,-473.0,137.0,1833.0,67.0,1715.0,-337.0,-1829.0,575.0
-91.0,-500.0,165.0,1741.0,-222.0,1877.0,-359.0,-1976.0,718.0
-82.0,-512.0,117.0,1275.0,-517.0,1885.0,-346.0,-2072.0,583.0
-47.0,-504.0,28.0,466.0,-753.0,1757.0,-251.0,-2076.0,269.0
-15.0,-499.0,-26.0,-489.0,-859.0,1537.0,-136.0,-2021.0,-30.0
19.0,-507.0,-64.0,-1323.0,-830.0,1337.0,-3.0,-2007.0,-181.0
50.0,-534.0,-75.0,-1850.0,-730.0,1210.0,109.0,-2064.0,-215.0
54.0,-565.0,-72.0,-2050.0,-578.0,1171.0,135.0,-2150.0,-217.0
51.0,-579.0,-71.0,-2011.0,-411.0,1223.0,131.0,-2212.0,-199.0
28.0,-583.0,-52.0,-1788.0,-279.0,1328.0,51.0,-2220.0,-139.0
-7.0,-584.0,-24.0,-1517.0,-240.0,1441.0,-59.0,-2206.0,-33.0
-33.0,-557.0,-10.0,-1180.0,-275.0,1491.0,-147.0,-2092.0,23.0
-60.0,-505.0,-19.0,-807.0,-402.0,1467.0,-238.0,-1932.0,-5.0
-75.0,-451.0,-23.0,-494.0,-583.0,1401.0,-329.0,-1680.0,-17.0
-81.0,-373.0,-19.0,-242.0,-711.0,1310.0,-353.0,-1392.0,-6.0
-66.0,-295.0,-14.0,7.0,-761.0,1213.0,-297.0,-1101.0,23.0
-47.0,-221.0,-25.0,281.0,-751.0,1098.0,-230.0,-832.0,-32.0
-31.0,-145.0,-37.0,535.0,-717.0,975.0,-171.0,-565.0,-59.0
-44.0,-99.0,-52.0,728.0,-722.0,858.0,-121.0,-407.0,-114.0
-10.0,-68.0,-27.0,777.0,-787.0,706.0,-39.0,-292.0,-79.0
24.0,-33.0,-24.0,707.0,-902.0,474.0,54.0,-183.0,-52.0
29.0,-4.0,-48.0,614.0,-1001.0,96.0,103.0,-38.0,-114.0
28.0,22.0,-82.0,561.0,-988.0,-190.0,87.0,98.0,-222.0
47.0,51.0,-77.0,515.0,-873.0,-379.0,146.0,180.0,-246.0
51.0,46.0,-63.0,495.0,-752.0,-503.0,189.0,218.0,-192.0
34.0,56.0,-60.0,469.0,-710.0,-591.0,127.0,184.0,-169.0
5.0,46.0,-77.0,357.0,-756.0,-673.0,16.0,130.0,-232.0
-17.0,42.0,-95.0,125.0,-850.0,-740.0,-62.0,113.0,-322.0
-30.0,27.0,-129.0,-152.0,-932.0,-771.0,-126.0,103.0,-434.0
-44.0,20.0,-177.0,-367.0,-916.0,-778.0,-208.0,63.0,-600.0
-52.0,-3.0,-210.0,-479.0,-745.0,-760.0,-263.0,7.0,-749.0
-53.0,-23.0,-223.0,-473.0,-470.0,-720.0,-267.0,-85.0,-813.0
-35.0,-57.0,-207.0,-348.0,-196.0,-694.0,-187.0,-187.0,-775.0
-14.0,-82.0,-167.0,-113.0,4.0,-710.0,-97.0,-282.0,-628.0
-8.0,-97.0,-108.0,212.0,94.0,-753.0,-28.0,-326.0,-417.0
-12.0,-88.0,-61.0,614.0,44.0,-808.0,-34.0,-291.0,-178.0
-23.0,-65.0,-23.0,1147.0,-105.0,-812.0,-85.0,-197.0,-38.0
-33.0,-28.0,-2.0,1570.0,-309.0,-776.0,-108.0,-66.0,41.0
-55.0,22.0,-4.0,1915.0,-535.0,-719.0,-186.0,82.0,56.0
-84.0,70.0,-13.0,2124.0,-765.0,-643.0,-289.0,242.0,24.0
-103.0,113.0,-26.0,2164.0,-998.0,-546.0,-378.0,404.0,-43.0
-105.0,157.0,-57.0,2028.0,-1217.0,-421.0,-384.0,536.0,-165.0
-81.0,192.0,-109.0,1704.0,-1397.0,-289.0,-306.0,635.0,-366.0
-45.0,210.0,-161.0,1178.0,-1519.0,-184.0,-179.0,678.0,-568.0
5.0,205.0,-196.0,494.0,-1548.0,-99.0,-14.0,672.0,-703.0
53.0,177.0,-200.0,-249.0,-1453.0,-50.0,162.0,555.0,-742.0
86.0,144.0,-180.0,-975.0,-1269.0,-32.0,285.0,464.0,-661.0
122.0,79.0,-144.0,-1566.0,-1064.0,-6.0,404.0,298.0,-544.0
152.0,3.0,-109.0,-1968.0,-840.0,-2.0,518.0,64.0,-377.0
165.0,-46.0,-73.0,-2191.0,-660.0,-35.0,590.0,-230.0,-215.0
180.0,-126.0,-25.0,-2144.0,-451.0,-34.0,631.0,-500.0,-5.0
176.0,-217.0,10.0,-1853.0,-223.0,-4.0,624.0,-803.0,118.0
143.0,-276.0,-2.0,-1355.0,-74.0,31.0,536.0,-1015.0,45.0
59.0,-318.0,-29.0,-786.0,-145.0,3.0,291.0,-1147.0,-53.0
-38.0,-326.0,-66.0,-243.0,-627.0,-85.0,-16.0,-1234.0,-172.0
-203.0,-265.0,-432.0,47.0,-1495.0,-13.0,-640.0,-1184.0,-1439.0
-273.0,-235.0,-926.0,-266.0,-2310.0,438.0,-1184.0,-1098.0,-3364.0
-204.0,-276.0,-1190.0,-1016.0,-2241.0,886.0,-1123.0,-1166.0,-4702.0
-226.0,-348.0,-967.0,-1776.0,-1022.0,990.0,-1124.0,-1437.0,-3923.0
-314.0,-586.0,-54.0,-2204.0,224.0,951.0,-1216.0,-2013.0,-474.0
-366.0,-804.0,486.0,-1442.0,360.0,974.0,-1293.0,-2749.0,1815.0
-295.0,-894.0,411.0,-79.0,-491.0,1061.0,-1140.0,-3283.0,1828.0
-201.0,-890.0,84.0,815.0,-1464.0,940.0,-932.0,-3459.0,372.0
-83.0,-820.0,-226.0,679.0,-1586.0,549.0,-452.0,-3233.0,-807.0
14.0,-739.0,-355.0,105.0,-1335.0,-15.0,-86.0,-2905.0,-1333.0
93.0,-683.0,-271.0,-398.0,-962.0,-650.0,194.0,-2621.0,-1069.0
134.0,-670.0,-117.0,-506.0,-497.0,-1170.0,385.0,-2531.0,-483.0
137.0,-687.0,-17.0,-310.0,-44.0,-1469.0,426.0,-2613.0,28.0
130.0,-729.0,64.0,-50.0,248.0,-1555.0,404.0,-2783.0,321.0
127.0,-764.0,89.0,195.0,406.0,-1542.0,397.0,-2913.0,422.0
142.0,-758.0,75.0,399.0,512.0,-1518.0,480.0,-2905.0,381.0
166.0,-713.0,49.0,562.0,558.0,-1547.0,571.0,-2750.0,273.0
169.0,-638.0,17.0,711.0,560.0,-1602.0,580.0,-2483.0,165.0
158.0,-548.0,4.0,839.0,583.0,-1636.0,543.0,-2168.0,100.0
144.0,-458.0,9.0,914.0,672.0,-1609.0,495.0,-1855.0,99.0
128.0,-374.0,24.0,917.0,873.0,-1559.0,432.0,-1546.0,152.0
112.0,-313.0,27.0,808.0,1090.0,-1487.0,366.0,-1230.0,193.0
98.0,-262.0,24.0,546.0,1298.0,-1409.0,339.0,-1103.0,187.0
107.0,-239.0,38.0,77.0,1456.0,-1326.0,375.0,-1007.0,221.0
103.0,-219.0,46.0,-483.0,1561.0,-1314.0,370.0,-917.0,240.0
121.0,-200.0,45.0,-1042.0,1584.0,-1334.0,450.0,-851.0,238.0
122.0,-195.0,30.0,-1518.0,1490.0,-1379.0,470.0,-804.0,193.0
133.0,-193.0,-1.0,-1852.0,1304.0,-1376.0,503.0,-770.0,74.0
126.0,-179.0,-73.0,-2037.0,1126.0,-1315.0,483.0,-722.0,-165.0
88.0,-165.0,-153.0,-2153.0,1023.0,-1173.0,327.0,-693.0,-484.0
59.0,-153.0,-171.0,-2272.0,1030.0,-941.0,178.0,-621.0,-595.0
-6.0,-136.0,-132.0,-2309.0,1149.0,-641.0,-72.0,-505.0,-469.0
-70.0,-138.0,-69.0,-2110.0,1272.0,-303.0,-278.0,-478.0,-246.0
-108.0,-133.0,-45.0,-1666.0,1307.0,126.0,-419.0,-446.0,-122.0
-150.0,-133.0,-45.0,-954.0,1310.0,455.0,-578.0,-442.0,-94.0
-185.0,-128.0,-50.0,-351.0,1340.0,714.0,-728.0,-414.0,-127.0
-185.0,-110.0,-41.0,171.0,1358.0,902.0,-721.0,-369.0,-89.0
-153.0,-94.0,-23.0,598.0,1274.0,1029.0,-585.0,-327.0,-24.0
-96.0,-73.0,-7.0,927.0,1069.0,1081.0,-384.0,-273.0,22.0
-44.0,-59.0,-17.0,1175.0,798.0,1061.0,-125.0,-190.0,-5.0
25.0,-29.0,-50.0,1348.0,570.0,972.0,107.0,-107.0,-134.0
65.0,-1.0,-93.0,1418.0,429.0,844.0,253.0,-25.0,-312.0
84.0,22.0,-132.0,1367.0,346.0,702.0,324.0,48.0,-468.0
89.0,40.0,-162.0,1210.0,241.0,575.0,348.0,95.0,-577.0
88.0,47.0,-172.0,977.0,109.0,472.0,332.0,130.0,-621.0
83.0,43.0,-163.0,727.0,0.0,415.0,308.0,125.0,-601.0
79.0,28.0,-142.0,533.0,7.0,409.0,276.0,105.0,-536.0
70.0,16.0,-115.0,458.0,128.0,443.0,242.0,80.0,-416.0
59.0,10.0,-89.0,561.0,281.0,495.0,211.0,62.0,-268.0
45.0,5.0,-57.0,783.0,405.0,546.0,150.0,56.0,-162.0
40.0,11.0,-44.0,1060.0,485.0,584.0,113.0,67.0,-100.0
39.0,23.0,-34.0,1324.0,550.0,600.0,123.0,110.0,-64.0
52.0,40.0,-40.0,1534.0,644.0,578.0,174.0,171.0,-73.0
69.0,68.0,-45.0,1653.0,799.0,513.0,229.0,241.0,-91.0
76.0,93.0,-55.0,1662.0,1009.0,409.0,250.0,312.0,-145.0
62.0,113.0,-71.0,1544.0,1226.0,284.0,234.0,371.0,-206.0
45.0,122.0,-86.0,1303.0,1388.0,157.0,188.0,395.0,-262.0
20.0,121.0,-96.0,946.0,1439.0,23.0,82.0,383.0,-328.0
-23.0,110.0,-104.0,485.0,1367.0,-117.0,-65.0,343.0,-342.0
-72.0,88.0,-100.0,-37.0,1174.0,-262.0,-248.0,267.0,-338.0
-98.0,47.0,-96.0,-653.0,984.0,-318.0,-361.0,144.0,-331.0
-104.0,2.0,-106.0,-1057.0,832.0,-317.0,-409.0,5.0,-341.0
-95.0,-58.0,-143.0,-1302.0,748.0,-279.0,-405.0,-243.0,-511.0
-44.0,-126.0,-189.0,-1386.0,747.0,-237.0,-214.0,-475.0,-700.0
73.0,-198.0,-247.0,-1304.0,841.0,-229.0,195.0,-714.0,-894.0
234.0,-257.0,-398.0,-1029.0,1022.0,-328.0,792.0,-949.0,-1426.0
290.0,-266.0,-613.0,-768.0,1147.0,-519.0,1163.0,-1176.0,-2542.0
303.0,-294.0,-872.0,-1117.0,804.0,-649.0,1265.0,-1439.0,-3590.0
301.0,-448.0,-777.0,-2234.0,51.0,-684.0,1117.0,-1976.0,-3147.0
121.0,-746.0,-97.0,-3359.0,-370.0,-821.0,383.0,-2750.0,-496.0
-54.0,-1009.0,421.0,-3194.0,-297.0,-769.0,-340.0,-3502.0,1637.0
-90.0,-1114.0,431.0,-1601.0,160.0,-311.0,-547.0,-3948.0,1917.0
-88.0,-1060.0,161.0,370.0,819.0,236.0,-489.0,-3974.0,986.0
-62.0,-904.0,-159.0,1871.0,1348.0,399.0,-339.0,-3623.0,-290.0
-48.0,-715.0,-325.0,2091.0,1268.0,321.0,-206.0,-3004.0,-1161.0
-57.0,-586.0,-319.0,1882.0,853.0,182.0,-200.0,-2310.0,-1284.0
-104.0,-460.0,-205.0,1808.0,368.0,202.0,-377.0,-1705.0,-702.0
-164.0,-399.0,-53.0,1992.0,-57.0,449.0,-649.0,-1502.0,-113.0
-144.0,-376.0,63.0,2207.0,-391.0,828.0,-564.0,-1457.0,307.0
-82.0,-379.0,116.0,2198.0,-649.0,1135.0,-350.0,-1527.0,509.0
-44.0,-395.0,109.0,1812.0,-836.0,1268.0,-200.0,-1644.0,509.0
-4.0,-408.0,72.0,1041.0,-991.0,1232.0,-53.0,-1711.0,370.0
50.0,-414.0,2.0,49.0,-1125.0,1120.0,113.0,-1714.0,130.0
91.0,-428.0,-56.0,-910.0,-1119.0,997.0,246.0,-1717.0,-113.0
110.0,-447.0,-72.0,-1648.0,-944.0,938.0,349.0,-1776.0,-205.0
144.0,-491.0,-63.0,-2049.0,-709.0,969.0,476.0,-1901.0,-188.0
157.0,-541.0,-59.0,-2118.0,-485.0,1051.0,537.0,-2063.0,-171.0
148.0,-577.0,-50.0,-1998.0,-391.0,1140.0,517.0,-2194.0,-120.0
116.0,-593.0,-31.0,-1826.0,-354.0,1230.0,412.0,-2258.0,-67.0
73.0,-600.0,-18.0,-1626.0,-334.0,1316.0,254.0,-2282.0,-4.0
35.0,-585.0,-1.0,-1383.0,-329.0,1379.0,86.0,-2208.0,68.0
-11.0,-549.0,11.0,-1065.0,-347.0,1398.0,-80.0,-2062.0,116.0
-51.0,-490.0,17.0,-679.0,-390.0,1404.0,-224.0,-1833.0,133.0
-71.0,-426.0,10.0,-235.0,-454.0,1370.0,-329.0,-1533.0,106.0
-97.0,-325.0,11.0,197.0,-525.0,1327.0,-406.0,-1176.0,96.0
-104.0,-230.0,1.0,563.0,-594.0,1275.0,-432.0,-836.0,83.0
-90.0,-144.0,-11.0,854.0,-630.0,1196.0,-379.0,-541.0,32.0
-100.0,-90.0,-42.0,1037.0,-633.0,1069.0,-412.0,-355.0,-81.0
-102.0,-40.0,-56.0,1040.0,-613.0,892.0,-416.0,-189.0,-144.0
-111.0,7.0,-59.0,920.0,-654.0,696.0,-422.0,-17.0,-179.0
-112.0,54.0,-58.0,699.0,-790.0,490.0,-417.0,145.0,-185.0
-97.0,95.0,-56.0,517.0,-954.0,301.0,-393.0,319.0,-169.0
-63.0,115.0,-72.0,400.0,-1041.0,173.0,-261.0,420.0,-217.0
-13.0,120.0,-109.0,299.0,-1015.0,69.0,-85.0,418.0,-388.0
39.0,104.0,-139.0,127.0,-905.0,-26.0,134.0,308.0,-502.0
60.0,65.0,-166.0,-157.0,-769.0,-146.0,214.0,187.0,-594.0
54.0,41.0,-170.0,-522.0,-648.0,-306.0,187.0,93.0,-624.0
40.0,5.0,-164.0,-869.0,-566.0,-430.0,147.0,-2.0,-599.0
32.0,-44.0,-163.0,-1081.0,-523.0,-504.0,96.0,-152.0,-597.0
29.0,-90.0,-166.0,-1119.0,-478.0,-565.0,65.0,-310.0,-588.0
33.0,-133.0,-157.0,-979.0,-377.0,-620.0,68.0,-436.0,-574.0
35.0,-149.0,-143.0,-664.0,-187.0,-668.0,90.0,-527.0,-499.0
48.0,-173.0,-112.0,-192.0,83.0,-709.0,136.0,-591.0,-380.0
55.0,-171.0,-83.0,519.0,250.0,-751.0,197.0,-585.0,-266.0
51.0,-146.0,-62.0,1152.0,321.0,-790.0,198.0,-504.0,-176.0
30.0,-98.0,-46.0,1749.0,287.0,-828.0,130.0,-349.0,-118.0
-22.0,-31.0,-37.0,2258.0,150.0,-845.0,-24.0,-134.0,-92.0
-83.0,45.0,-37.0,2640.0,-86.0,-831.0,-242.0,196.0,-92.0
-135.0,120.0,-51.0,2876.0,-380.0,-768.0,-477.0,438.0,-127.0
-156.0,183.0,-78.0,2955.0,-658.0,-665.0,-589.0,643.0,-230.0
-152.0,215.0,-108.0,2863.0,-845.0,-547.0,-584.0,784.0,-395.0
-127.0,246.0,-158.0,2570.0,-910.0,-465.0,-499.0,858.0,-559.0
-96.0,252.0,-183.0,2052.0,-883.0,-436.0,-382.0,837.0,-674.0
-57.0,245.0,-178.0,1332.0,-807.0,-447.0,-231.0,807.0,-662.0
6.0,195.0,-157.0,539.0,-712.0,-434.0,-13.0,649.0,-571.0
67.0,133.0,-121.0,-213.0,-567.0,-419.0,212.0,439.0,-438.0
120.0,65.0,-85.0,-920.0,-425.0,-418.0,394.0,240.0,-283.0
142.0,-19.0,-46.0,-1255.0,-291.0,-421.0,513.0,-34.0,-135.0
130.0,-113.0,-21.0,-1362.0,-220.0,-418.0,512.0,-354.0,-36.0
96.0,-181.0,-13.0,-1325.0,-312.0,-419.0,411.0,-694.0,0.0
1.0,-256.0,-53.0,-1260.0,-757.0,-426.0,159.0,-1013.0,-206.0
-134.0,-319.0,-187.0,-1410.0,-1728.0,-277.0,-432.0,-1385.0,-839.0
-194.0,-346.0,-567.0,-1965.0,-3037.0,215.0,-722.0,-1515.0,-2331.0
-125.0,-372.0,-975.0,-2828.0,-3769.0,689.0,-756.0,-1572.0,-3854.0
-6.0,-500.0,-975.0,-3503.0,-2943.0,927.0,-491.0,-1893.0,-3878.0
5.0,-758.0,-369.0,-3300.0,-805.0,1156.0,-282.0,-2574.0,-1636.0
-29.0,-998.0,261.0,-1744.0,1124.0,1443.0,-143.0,-3389.0,835.0
-25.0,-1075.0,446.0,544.0,1599.0,1608.0,-12.0,-3868.0,1795.0
23.0,-1013.0,327.0,2358.0,870.0,1401.0,157.0,-3809.0,1319.0
111.0,-841.0,22.0,3015.0,-212.0,951.0,374.0,-3347.0,196.0
142.0,-663.0,-201.0,2454.0,-614.0,443.0,451.0,-2724.0,-691.0
117.0,-516.0,-251.0,1583.0,-572.0,-65.0,344.0,-2122.0,-938.0
91.0,-404.0,-190.0,977.0,-241.0,-507.0,235.0,-1601.0,-732.0
70.0,-352.0,-113.0,798.0,232.0,-823.0,180.0,-1364.0,-431.0
14.0,-325.0,-44.0,810.0,692.0,-1044.0,34.0,-1271.0,-109.0
-57.0,-324.0,12.0,792.0,995.0,-1158.0,-262.0,-1269.0,97.0
-94.0,-333.0,42.0,657.0,1129.0,-1165.0,-394.0,-1327.0,207.0
-93.0,-350.0,42.0,383.0,1147.0,-1103.0,-383.0,-1436.0,228.0
-83.0,-379.0,35.0,-17.0,1097.0,-1055.0,-353.0,-1533.0,202.0
-74.0,-397.0,10.0,-511.0,999.0,-1034.0,-313.0,-1615.0,102.0
-58.0,-428.0,-25.0,-1050.0,886.0,-1037.0,-253.0,-1702.0,-30.0
-48.0,-454.0,-41.0,-1556.0,807.0,-1086.0,-233.0,-1787.0,-95.0
-43.0,-498.0,-37.0,-1930.0,779.0,-1119.0,-240.0,-1909.0,-77.0
-4.0,-540.0,-3.0,-2114.0,786.0,-1111.0,-99.0,-2046.0,34.0
10.0,-569.0,25.0,-2056.0,819.0,-1115.0,-27.0,-2144.0,143.0
37.0,-594.0,56.0,-1887.0,858.0,-1106.0,57.0,-2233.0,250.0
54.0,-600.0,77.0,-1632.0,891.0,-1119.0,160.0,-2249.0,366.0
75.0,-572.0,77.0,-1292.0,890.0,-1165.0,235.0,-2173.0,377.0
105.0,-530.0,56.0,-948.0,864.0,-1198.0,337.0,-1989.0,263.0
126.0,-479.0,27.0,-663.0,842.0,-1203.0,421.0,-1793.0,168.0
167.0,-408.0,21.0,-433.0,830.0,-1178.0,589.0,-1554.0,139.0
171.0,-329.0,-6.0,-250.0,841.0,-1142.0,615.0,-1269.0,52.0
150.0,-236.0,-53.0,-151.0,839.0,-1077.0,539.0,-951.0,-114.0
96.0,-146.0,-88.0,-123.0,835.0,-960.0,349.0,-634.0,-273.0
36.0,-72.0,-100.0,-152.0,851.0,-766.0,138.0,-343.0,-319.0
-4.0,-33.0,-87.0,-166.0,914.0,-440.0,-49.0,-107.0,-275.0
-36.0,6.0,-85.0,-67.0,968.0,-164.0,-171.0,25.0,-273.0
-39.0,32.0,-98.0,21.0,1039.0,123.0,-185.0,90.0,-328.0
-36.0,51.0,-100.0,32.0,1167.0,383.0,-185.0,180.0,-314.0
-62.0,65.0,-89.0,11.0,1339.0,537.0,-242.0,223.0,-289.0
-64.0,64.0,-85.0,-68.0,1452.0,653.0,-262.0,219.0,-276.0
-37.0,45.0,-86.0,-196.0,1429.0,750.0,-155.0,175.0,-278.0
4.0,19.0,-89.0,-309.0,1252.0,768.0,61.0,39.0,-307.0
48.0,-18.0,-102.0,-392.0,963.0,730.0,203.0,-77.0,-346.0
71.0,-40.0,-113.0,-441.0,682.0,680.0,284.0,-174.0,-420.0
93.0,-64.0,-137.0,-421.0,473.0,644.0,358.0,-257.0,-496.0
106.0,-81.0,-147.0,-321.0,335.0,590.0,390.0,-308.0,-532.0
101.0,-90.0,-153.0,-152.0,229.0,522.0,363.0,-332.0,-548.0
83.0,-91.0,-155.0,66.0,140.0,439.0,297.0,-334.0,-558.0
63.0,-81.0,-145.0,382.0,105.0,401.0,224.0,-297.0,-533.0
50.0,-66.0,-138.0,686.0,162.0,385.0,158.0,-241.0,-494.0
39.0,-47.0,-114.0,1002.0,272.0,400.0,120.0,-168.0,-406.0
46.0,-20.0,-86.0,1302.0,414.0,425.0,126.0,-77.0,-305.0
51.0,4.0,-70.0,1557.0,582.0,451.0,163.0,27.0,-213.0
68.0,44.0,-54.0,1745.0,778.0,450.0,220.0,155.0,-132.0
72.0,82.0,-42.0,1848.0,985.0,428.0,248.0,281.0,-85.0
59.0,120.0,-33.0,1842.0,1173.0,390.0,213.0,423.0,-68.0
44.0,143.0,-40.0,1717.0,1315.0,343.0,150.0,511.0,-86.0
17.0,165.0,-53.0,1469.0,1392.0,286.0,65.0,561.0,-139.0
-13.0,170.0,-68.0,1105.0,1397.0,216.0,-33.0,573.0,-206.0
-52.0,161.0,-82.0,656.0,1329.0,124.0,-171.0,544.0,-267.0
-97.0,133.0,-99.0,160.0,1193.0,15.0,-335.0,458.0,-329.0
-114.0,105.0,-100.0,-340.0,983.0,-47.0,-438.0,326.0,-359.0
-136.0,49.0,-111.0,-864.0,813.0,-97.0,-514.0,149.0,-388.0
-149.0,-17.0,-138.0,-1175.0,669.0,-141.0,-586.0,-77.0,-499.0
-133.0,-89.0,-185.0,-1357.0,555.0,-162.0,-548.0,-329.0,-675.0
-71.0,-166.0,-221.0,-1391.0,500.0,-196.0,-347.0,-583.0,-820.0
21.0,-246.0,-262.0,-1256.0,501.0,-277.0,-11.0,-874.0,-943.0
97.0,-290.0,-405.0,-1003.0,481.0,-398.0,328.0,-1116.0,-1420.0
139.0,-309.0,-617.0,-975.0,138.0,-515.0,563.0,-1348.0,-2452.0
166.0,-414.0,-598.0,-1449.0,-427.0,-558.0,589.0,-1709.0,-2439.0
156.0,-578.0,-338.0,-2093.0,-687.0,-550.0,425.0,-2372.0,-1066.0
68.0,-818.0,95.0,-2212.0,-466.0,-528.0,50.0,-3079.0,571.0
35.0,-984.0,306.0,-1483.0,155.0,-345.0,-73.0,-3595.0,1343.0
69.0,-1008.0,232.0,-194.0,1007.0,-98.0,138.0,-3726.0,1029.0
82.0,-908.0,14.0,917.0,1548.0,-17.0,306.0,-3498.0,170.0
117.0,-759.0,-195.0,1262.0,1232.0,-82.0,460.0,-3054.0,-668.0
96.0,-619.0,-290.0,958.0,651.0,-189.0,365.0,-2511.0,-1110.0
38.0,-525.0,-206.0,661.0,259.0,-131.0,133.0,-2081.0,-895.0
-13.0,-491.0,-81.0,673.0,52.0,180.0,-51.0,-1894.0,-384.0
-13.0,-498.0,-19.0,847.0,-143.0,601.0,-99.0,-1904.0,-23.0
11.0,-510.0,8.0,936.0,-219.0,926.0,-33.0,-1992.0,96.0
15.0,-522.0,-1.0,787.0,-126.0,1080.0,-19.0,-2083.0,55.0
19.0,-523.0,-13.0,379.0,-20.0,1133.0,23.0,-2089.0,18.0
36.0,-517.0,-34.0,-122.0,11.0,1146.0,98.0,-2051.0,-66.0
50.0,-512.0,-63.0,-555.0,28.0,1156.0,141.0,-2013.0,-176.0
69.0,-510.0,-73.0,-863.0,64.0,1198.0,211.0,-1997.0,-220.0
90.0,-518.0,-71.0,-1044.0,95.0,1259.0,290.0,-2016.0,-208.0
97.0,-534.0,-68.0,-1115.0,134.0,1321.0,311.0,-2054.0,-193.0
100.0,-543.0,-56.0,-1120.0,216.0,1356.0,311.0,-2087.0,-141.0
86.0,-545.0,-24.0,-1069.0,276.0,1377.0,273.0,-2090.0,-38.0
64.0,-546.0,3.0,-951.0,296.0,1391.0,195.0,-2073.0,69.0
33.0,-526.0,26.0,-749.0,270.0,1363.0,96.0,-1987.0,161.0
1.0,-487.0,36.0,-468.0,198.0,1295.0,-11.0,-1849.0,217.0
-39.0,-438.0,42.0,-150.0,98.0,1228.0,-158.0,-1672.0,238.0
-73.0,-369.0,34.0,178.0,4.0,1183.0,-291.0,-1435.0,209.0
-100.0,-289.0,7.0,476.0,-34.0,1145.0,-412.0,-1157.0,114.0
-118.0,-196.0,5.0,692.0,-43.0,1080.0,-484.0,-755.0,68.0
-122.0,-116.0,-3.0,810.0,-78.0,1012.0,-490.0,-462.0,52.0
-121.0,-56.0,-2.0,854.0,-116.0,909.0,-488.0,-179.0,57.0
-130.0,0.0,-6.0,861.0,-159.0,811.0,-512.0,41.0,51.0
-131.0,51.0,-8.0,890.0,-190.0,700.0,-497.0,208.0,29.0
-125.0,92.0,-21.0,911.0,-313.0,597.0,-471.0,338.0,-15.0
-99.0,121.0,-41.0,824.0,-486.0,482.0,-367.0,421.0,-93.0
-49.0,121.0,-74.0,642.0,-684.0,349.0,-192.0,423.0,-214.0
-11.0,114.0,-95.0,378.0,-844.0,167.0,-62.0,395.0,-306.0
7.0,101.0,-109.0,67.0,-943.0,-28.0,17.0,349.0,-364.0
11.0,79.0,-106.0,-261.0,-1003.0,-184.0,38.0,270.0,-364.0
20.0,41.0,-101.0,-552.0,-1048.0,-262.0,65.0,127.0,-343.0
23.0,-24.0,-123.0,-773.0,-1046.0,-351.0,70.0,-110.0,-410.0
12.0,-70.0,-144.0,-960.0,-976.0,-487.0,8.0,-305.0,-513.0
-3.0,-108.0,-154.0,-1053.0,-856.0,-611.0,-56.0,-421.0,-538.0
-7.0,-149.0,-133.0,-965.0,-699.0,-687.0,-80.0,-517.0,-459.0
-12.0,-176.0,-91.0,-624.0,-528.0,-743.0,-93.0,-591.0,-306.0
-15.0,-184.0,-50.0,-47.0,-377.0,-784.0,-95.0,-615.0,-138.0
-21.0,-162.0,-22.0,660.0,-281.0,-827.0,-101.0,-544.0,-24.0
-26.0,-113.0,-21.0,1507.0,-298.0,-845.0,-97.0,-402.0,-8.0
-29.0,-67.0,-27.0,2100.0,-381.0,-848.0,-116.0,-199.0,-64.0
-39.0,4.0,-54.0,2536.0,-498.0,-825.0,-144.0,27.0,-128.0
-58.0,71.0,-68.0,2790.0,-640.0,-783.0,-205.0,257.0,-207.0
-76.0,133.0,-90.0,2851.0,-803.0,-707.0,-267.0,449.0,-279.0
-85.0,182.0,-108.0,2724.0,-961.0,-617.0,-313.0,613.0,-364.0
-84.0,216.0,-133.0,2410.0,-1096.0,-529.0,-330.0,728.0,-448.0
-81.0,242.0,-159.0,1902.0,-1184.0,-461.0,-318.0,795.0,-548.0
-48.0,238.0,-170.0,1214.0,-1216.0,-382.0,-200.0,782.0,-628.0
-11.0,210.0,-182.0,424.0,-1203.0,-335.0,-55.0,687.0,-650.0
25.0,177.0,-181.0,-379.0,-1142.0,-312.0,103.0,531.0,-645.0
72.0,118.0,-163.0,-1108.0,-1019.0,-283.0,256.0,341.0,-575.0
107.0,52.0,-131.0,-1673.0,-787.0,-255.0,371.0,132.0,-446.0
134.0,-18.0,-92.0,-2039.0,-567.0,-238.0,478.0,-80.0,-292.0
146.0,-98.0,-56.0,-2025.0,-381.0,-214.0,533.0,-341.0,-164.0
117.0,-159.0,-61.0,-1786.0,-302.0,-215.0,452.0,-566.0,-176.0
54.0,-202.0,-102.0,-1481.0,-402.0,-205.0,281.0,-757.0,-320.0
-26.0,-239.0,-138.0,-1312.0,-742.0,-199.0,17.0,-935.0,-480.0
-107.0,-275.0,-232.0,-1441.0,-1368.0,-188.0,-249.0,-1129.0,-723.0
-192.0,-285.0,-444.0,-1920.0,-2230.0,-17.0,-674.0,-1248.0,-1669.0
-201.0,-296.0,-807.0,-2645.0,-2926.0,342.0,-926.0,-1268.0,-3049.0
-100.0,-417.0,-940.0,-3244.0,-2578.0,733.0,-777.0,-1531.0,-3658.0
-47.0,-626.0,-518.0,-3123.0,-1075.0,956.0,-461.0,-2251.0,-1845.0
-94.0,-845.0,134.0,-1936.0,462.0,1026.0,-417.0,-2959.0,577.0
-90.0,-976.0,455.0,-90.0,951.0,1129.0,-283.0,-3540.0,1816.0
-78.0,-972.0,360.0,1448.0,401.0,1050.0,-218.0,-3717.0,1538.0
-14.0,-858.0,66.0,1976.0,-812.0,742.0,-90.0,-3452.0,493.0
31.0,-723.0,-204.0,1467.0,-1460.0,284.0,6.0,-2961.0,-584.0
54.0,-635.0,-307.0,715.0,-1474.0,-230.0,38.0,-2471.0,-1134.0
72.0,-550.0,-303.0,286.0,-953.0,-679.0,115.0,-2079.0,-1124.0
119.0,-496.0,-199.0,383.0,-223.0,-993.0,330.0,-1858.0,-750.0
112.0,-468.0,-99.0,768.0,363.0,-1184.0,354.0,-1778.0,-358.0
55.0,-455.0,-36.0,1039.0,687.0,-1269.0,177.0,-1784.0,-110.0
43.0,-460.0,32.0,990.0,857.0,-1256.0,104.0,-1820.0,150.0
50.0,-475.0,70.0,697.0,983.0,-1191.0,120.0,-1883.0,322.0
41.0,-474.0,70.0,288.0,1101.0,-1153.0,119.0,-1898.0,330.0
28.0,-471.0,53.0,-164.0,1172.0,-1154.0,69.0,-1873.0,264.0
34.0,-467.0,32.0,-582.0,1157.0,-1178.0,79.0,-1813.0,170.0
27.0,-454.0,1.0,-876.0,1112.0,-1232.0,41.0,-1744.0,68.0
7.0,-443.0,-16.0,-1038.0,1110.0,-1257.0,-22.0,-1705.0,17.0
11.0,-445.0,-17.0,-1105.0,1140.0,-1240.0,-15.0,-1701.0,23.0
30.0,-451.0,-5.0,-1102.0,1184.0,-1201.0,52.0,-1735.0,54.0
54.0,-459.0,17.0,-1078.0,1242.0,-1180.0,157.0,-1764.0,118.0
77.0,-456.0,30.0,-1040.0,1277.0,-1190.0,240.0,-1759.0,172.0
95.0,-449.0,38.0,-971.0,1288.0,-1222.0,312.0,-1717.0,220.0
127.0,-429.0,40.0,-858.0,1297.0,-1269.0,420.0,-1651.0,236.0
140.0,-398.0,30.0,-719.0,1330.0,-1314.0,479.0,-1523.0,193.0
134.0,-342.0,10.0,-590.0,1378.0,-1306.0,472.0,-1335.0,121.0
120.0,-272.0,-32.0,-472.0,1440.0,-1231.0,425.0,-1090.0,-19.0
112.0,-212.0,-64.0,-402.0,1514.0,-1097.0,400.0,-841.0,-194.0
75.0,-150.0,-68.0,-416.0,1572.0,-920.0,260.0,-608.0,-208.0
31.0,-106.0,-57.0,-440.0,1578.0,-726.0,113.0,-429.0,-164.0
-13.0,-67.0,-43.0,-452.0,1464.0,-488.0,-35.0,-285.0,-102.0
-43.0,-36.0,-48.0,-431.0,1243.0,-273.0,-170.0,-156.0,-107.0
-60.0,-9.0,-56.0,-381.0,1138.0,-72.0,-250.0,-50.0,-148.0
-75.0,5.0,-67.0,-310.0,1168.0,94.0,-320.0,31.0,-196.0
-101.0,25.0,-78.0,-250.0,1253.0,225.0,-415.0,92.0,-238.0
-122.0,46.0,-89.0,-245.0,1288.0,368.0,-466.0,145.0,-282.0
-97.0,45.0,-86.0,-299.0,1210.0,504.0,-374.0,148.0,-286.0
-58.0,28.0,-82.0,-371.0,1034.0,586.0,-226.0,102.0,-278.0
0.0,8.0,-81.0,-446.0,830.0,589.0,-26.0,24.0,-266.0
43.0,-18.0,-86.0,-518.0,670.0,557.0,133.0,-63.0,-271.0
73.0,-45.0,-95.0,-580.0,567.0,520.0,255.0,-169.0,-319.0
93.0,-75.0,-105.0,-611.0,472.0,477.0,351.0,-283.0,-363.0
92.0,-87.0,-111.0,-555.0,341.0,407.0,348.0,-318.0,-381.0
85.0,-94.0,-117.0,-368.0,177.0,345.0,320.0,-341.0,-397.0
73.0,-99.0,-119.0,-43.0,22.0,321.0,256.0,-333.0,-410.0
58.0,-92.0,-121.0,488.0,-13.0,344.0,193.0,-294.0,-412.0
47.0,-70.0,-118.0,990.0,32.0,404.0,143.0,-222.0,-405.0
46.0,-38.0,-117.0,1481.0,119.0,485.0,139.0,-116.0,-394.0
56.0,-1.0,-109.0,1890.0,218.0,551.0,177.0,1.0,-364.0
70.0,41.0,-98.0,2165.0,327.0,590.0,234.0,117.0,-319.0
76.0,78.0,-85.0,2282.0,454.0,579.0,266.0,250.0,-271.0
70.0,108.0,-77.0,2247.0,600.0,530.0,243.0,370.0,-252.0
46.0,143.0,-81.0,2075.0,753.0,463.0,168.0,471.0,-243.0
15.0,163.0,-77.0,1787.0,893.0,404.0,61.0,545.0,-239.0
-22.0,166.0,-87.0,1399.0,980.0,341.0,-68.0,554.0,-294.0
-71.0,159.0,-102.0,913.0,986.0,273.0,-263.0,509.0,-342.0
-97.0,130.0,-106.0,368.0,913.0,193.0,-368.0,415.0,-363.0
-116.0,79.0,-121.0,-150.0,799.0,99.0,-449.0,259.0,-408.0
-125.0,13.0,-157.0,-663.0,688.0,26.0,-498.0,41.0,-537.0
-87.0,-66.0,-202.0,-973.0,674.0,-16.0,-407.0,-230.0,-720.0
-21.0,-126.0,-217.0,-1159.0,757.0,-66.0,-78.0,-527.0,-807.0
108.0,-215.0,-241.0,-1222.0,837.0,-186.0,419.0,-858.0,-911.0
169.0,-271.0,-446.0,-1309.0,631.0,-441.0,762.0,-1170.0,-1720.0
198.0,-333.0,-724.0,-1876.0,-221.0,-712.0,887.0,-1492.0,-2867.0
209.0,-502.0,-678.0,-2911.0,-1280.0,-897.0,770.0,-1989.0,-2819.0
117.0,-791.0,-200.0,-3534.0,-1612.0,-984.0,342.0,-2752.0,-1132.0
11.0,-1057.0,221.0,-2962.0,-1157.0,-861.0,-132.0,-3626.0,699.0
-25.0,-1155.0,259.0,-1383.0,-255.0,-493.0,-372.0,-4140.0,1245.0
-26.0,-1079.0,46.0,352.0,842.0,-151.0,-274.0,-4069.0,356.0
-23.0,-955.0,-120.0,1470.0,1509.0,-53.0,-94.0,-3577.0,-525.0
-31.0,-758.0,-257.0,1747.0,1329.0,-152.0,-56.0,-2899.0,-1012.0
-36.0,-596.0,-251.0,1574.0,410.0,-188.0,-108.0,-2282.0,-955.0
-82.0,-499.0,-146.0,1504.0,-369.0,-45.0,-303.0,-1894.0,-561.0
-98.0,-460.0,-47.0,1713.0,-969.0,315.0,-383.0,-1736.0,-168.0
-35.0,-429.0,-1.0,1974.0,-1357.0,677.0,-203.0,-1659.0,50.0
36.0,-412.0,-14.0,2048.0,-1452.0,936.0,6.0,-1654.0,43.0
62.0,-388.0,-19.0,1745.0,-1219.0,1000.0,148.0,-1626.0,5.0
70.0,-379.0,-4.0,1059.0,-923.0,964.0,210.0,-1607.0,35.0
83.0,-385.0,-3.0,208.0,-796.0,923.0,275.0,-1593.0,39.0
100.0,-398.0,-40.0,-537.0,-744.0,914.0,322.0,-1616.0,-54.0
111.0,-421.0,-59.0,-1068.0,-678.0,957.0,368.0,-1654.0,-158.0
127.0,-446.0,-66.0,-1386.0,-639.0,1048.0,431.0,-1731.0,-198.0
125.0,-479.0,-64.0,-1539.0,-658.0,1155.0,429.0,-1849.0,-178.0
112.0,-514.0,-57.0,-1589.0,-701.0,1257.0,366.0,-1988.0,-149.0
91.0,-544.0,-42.0,-1569.0,-726.0,1350.0,293.0,-2088.0,-95.0
59.0,-564.0,-21.0,-1447.0,-701.0,1397.0,185.0,-2142.0,-8.0
33.0,-567.0,6.0,-1242.0,-654.0,1415.0,86.0,-2135.0,80.0
3.0,-551.0,15.0,-940.0,-602.0,1397.0,-58.0,-2066.0,135.0
-30.0,-517.0,18.0,-576.0,-546.0,1360.0,-181.0,-1921.0,147.0
-40.0,-453.0,9.0,-189.0,-479.0,1270.0,-222.0,-1683.0,102.0
-66.0,-368.0,-21.0,170.0,-417.0,1161.0,-299.0,-1406.0,3.0
-73.0,-281.0,-26.0,453.0,-354.0,1088.0,-323.0,-1081.0,-30.0
-90.0,-182.0,-27.0,697.0,-289.0,995.0,-374.0,-723.0,-37.0
-101.0,-96.0,-19.0,905.0,-246.0,934.0,-411.0,-402.0,-11.0
-94.0,-28.0,-15.0,1089.0,-258.0,890.0,-390.0,-155.0,-3.0
-95.0,27.0,-18.0,1170.0,-339.0,819.0,-367.0,41.0,-11.0
-91.0,62.0,-17.0,1079.0,-487.0,703.0,-308.0,226.0,-11.0
-67.0,95.0,-15.0,858.0,-692.0,482.0,-215.0,341.0,-18.0
-41.0,123.0,-38.0,529.0,-960.0,274.0,-122.0,432.0,-103.0
20.0,132.0,-72.0,241.0,-1131.0,102.0,77.0,470.0,-216.0
43.0,125.0,-110.0,-30.0,-1193.0,-76.0,147.0,434.0,-357.0
47.0,108.0,-132.0,-308.0,-1159.0,-239.0,169.0,366.0,-469.0
36.0,81.0,-147.0,-582.0,-1095.0,-339.0,131.0,283.0,-518.0
16.0,39.0,-159.0,-810.0,-1048.0,-400.0,65.0,147.0,-565.0
-3.0,-12.0,-157.0,-958.0,-1007.0,-460.0,-23.0,-21.0,-567.0
-10.0,-51.0,-143.0,-984.0,-934.0,-549.0,-89.0,-178.0,-517.0
-21.0,-117.0,-127.0,-862.0,-784.0,-650.0,-144.0,-408.0,-462.0
-22.0,-165.0,-103.0,-634.0,-565.0,-746.0,-145.0,-578.0,-350.0
-13.0,-193.0,-60.0,-271.0,-345.0,-818.0,-110.0,-656.0,-180.0
-12.0,-189.0,-27.0,234.0,-215.0,-870.0,-75.0,-646.0,-37.0
-12.0,-155.0,-29.0,819.0,-209.0,-900.0,-46.0,-520.0,-53.0
-16.0,-98.0,-55.0,1387.0,-346.0,-909.0,-51.0,-333.0,-138.0
-31.0,-34.0,-84.0,1953.0,-520.0,-889.0,-110.0,-114.0,-265.0
-58.0,34.0,-115.0,2278.0,-678.0,-854.0,-210.0,111.0,-359.0
-80.0,83.0,-118.0,2448.0,-793.0,-804.0,-323.0,311.0,-412.0
-110.0,132.0,-122.0,2438.0,-878.0,-737.0,-417.0,470.0,-424.0
-132.0,180.0,-117.0,2252.0,-974.0,-648.0,-487.0,610.0,-413.0
-132.0,209.0,-121.0,1927.0,-1085.0,-552.0,-486.0,719.0,-419.0
-103.0,225.0,-136.0,1477.0,-1187.0,-461.0,-412.0,768.0,-483.0
-61.0,216.0,-157.0,895.0,-1234.0,-395.0,-274.0,719.0,-569.0
5.0,188.0,-161.0,210.0,-1196.0,-331.0,-58.0,626.0,-591.0
63.0,137.0,-140.0,-466.0,-1062.0,-239.0,164.0,481.0,-524.0
112.0,77.0,-95.0,-1009.0,-863.0,-150.0,341.0,300.0,-362.0
142.0,22.0,-61.0,-1330.0,-650.0,-95.0,494.0,30.0,-142.0
176.0,-45.0,-20.0,-1422.0,-469.0,-60.0,651.0,-203.0,2.0
205.0,-109.0,6.0,-1281.0,-302.0,-43.0,745.0,-433.0,104.0
214.0,-177.0,18.0,-1016.0,-173.0,-23.0,777.0,-662.0,143.0
185.0,-244.0,4.0,-682.0,-81.0,-17.0,712.0,-895.0,87.0
94.0,-293.0,-11.0,-335.0,-171.0,-37.0,437.0,-1108.0,-3.0
-7.0,-336.0,23.0,-76.0,-691.0,-88.0,146.0,-1281.0,111.0
-130.0,-308.0,-173.0,-50.0,-1812.0,-116.0,-186.0,-1355.0,-414.0
-293.0,-188.0,-713.0,-666.0,-3330.0,107.0,-1052.0,-1076.0,-2329.0
-214.0,-165.0,-1098.0,-1947.0,-4148.0,642.0,-1165.0,-849.0,-4334.0
-120.0,-257.0,-1258.0,-3010.0,-2824.0,961.0,-989.0,-1053.0,-5054.0
-98.0,-511.0,-524.0,-3230.0,-115.0,1116.0,-657.0,-1671.0,-2452.0
-131.0,-795.0,243.0,-2134.0,1707.0,1320.0,-449.0,-2634.0,655.0
-143.0,-955.0,441.0,-395.0,1661.0,1456.0,-437.0,-3434.0,1754.0
-85.0,-982.0,269.0,747.0,676.0,1137.0,-326.0,-3781.0,1133.0
11.0,-927.0,36.0,825.0,-174.0,650.0,-11.0,-3674.0,258.0
65.0,-844.0,-150.0,210.0,-514.0,178.0,206.0,-3352.0,-469.0
93.0,-764.0,-246.0,-394.0,-736.0,-255.0,249.0,-2961.0,-898.0
97.0,-708.0,-254.0,-569.0,-615.0,-673.0,233.0,-2633.0,-941.0
68.0,-656.0,-219.0,-297.0,-220.0,-976.0,145.0,-2467.0,-790.0
36.0,-636.0,-140.0,131.0,177.0,-1120.0,22.0,-2408.0,-477.0
17.0,-628.0,-55.0,505.0,528.0,-1143.0,-46.0,-2388.0,-155.0
12.0,-612.0,0.0,769.0,870.0,-1144.0,-45.0,-2343.0,60.0
16.0,-577.0,33.0,909.0,1120.0,-1174.0,10.0,-2248.0,189.0
26.0,-525.0,39.0,911.0,1185.0,-1231.0,60.0,-2074.0,220.0
15.0,-462.0,11.0,812.0,1080.0,-1292.0,70.0,-1858.0,151.0
52.0,-388.0,4.0,666.0,938.0,-1347.0,158.0,-1608.0,106.0
37.0,-321.0,-5.0,549.0,868.0,-1411.0,106.0,-1216.0,59.0
13.0,-260.0,-32.0,411.0,904.0,-1402.0,-14.0,-1060.0,-67.0
12.0,-251.0,-47.0,21.0,991.0,-1305.0,2.0,-1056.0,-103.0
37.0,-271.0,-24.0,-430.0,1145.0,-1235.0,90.0,-1123.0,-30.0
55.0,-294.0,8.0,-839.0,1342.0,-1224.0,174.0,-1169.0,102.0
67.0,-303.0,60.0,-1134.0,1483.0,-1216.0,229.0,-1187.0,264.0
103.0,-317.0,88.0,-1245.0,1508.0,-1160.0,354.0,-1200.0,407.0
124.0,-306.0,74.0,-1196.0,1428.0,-1085.0,464.0,-1185.0,367.0
132.0,-270.0,30.0,-1100.0,1260.0,-991.0,500.0,-1083.0,218.0
128.0,-247.0,-13.0,-1014.0,1085.0,-862.0,480.0,-959.0,21.0
115.0,-210.0,-49.0,-954.0,956.0,-710.0,405.0,-837.0,-130.0
82.0,-172.0,-67.0,-895.0,875.0,-521.0,304.0,-678.0,-205.0
57.0,-140.0,-72.0,-783.0,825.0,-293.0,214.0,-553.0,-224.0
31.0,-118.0,-61.0,-611.0,783.0,-66.0,125.0,-454.0,-198.0
19.0,-96.0,-58.0,-402.0,753.0,148.0,66.0,-354.0,-155.0
-6.0,-76.0,-56.0,-183.0,779.0,266.0,-60.0,-289.0,-157.0
-34.0,-61.0,-71.0,-25.0,927.0,367.0,-196.0,-221.0,-211.0
-69.0,-30.0,-94.0,114.0,1166.0,454.0,-296.0,-132.0,-299.0
-80.0,-13.0,-109.0,237.0,1360.0,531.0,-332.0,-36.0,-380.0
-87.0,12.0,-115.0,324.0,1400.0,595.0,-335.0,51.0,-409.0
-66.0,24.0,-114.0,386.0,1278.0,645.0,-230.0,83.0,-396.0
-31.0,21.0,-102.0,405.0,1064.0,648.0,-113.0,70.0,-351.0
-10.0,11.0,-85.0,366.0,853.0,608.0,-38.0,35.0,-273.0
8.0,0.0,-69.0,269.0,691.0,580.0,36.0,-25.0,-220.0
25.0,-17.0,-68.0,144.0,550.0,565.0,107.0,-79.0,-203.0
39.0,-32.0,-74.0,60.0,384.0,553.0,142.0,-119.0,-221.0
39.0,-42.0,-94.0,79.0,218.0,539.0,148.0,-145.0,-289.0
39.0,-45.0,-112.0,212.0,92.0,542.0,130.0,-148.0,-393.0
35.0,-42.0,-122.0,492.0,73.0,564.0,104.0,-123.0,-433.0
31.0,-31.0,-122.0,783.0,129.0,596.0,94.0,-78.0,-432.0
40.0,-11.0,-115.0,1083.0,232.0,627.0,109.0,-30.0,-404.0
51.0,12.0,-109.0,1344.0,369.0,641.0,150.0,57.0,-346.0
64.0,39.0,-91.0,1531.0,542.0,625.0,206.0,154.0,-290.0
84.0,67.0,-73.0,1619.0,748.0,582.0,280.0,233.0,-240.0
89.0,96.0,-67.0,1614.0,966.0,505.0,308.0,326.0,-198.0
81.0,124.0,-73.0,1522.0,1165.0,410.0,301.0,413.0,-208.0
77.0,138.0,-79.0,1339.0,1320.0,312.0,279.0,476.0,-249.0
58.0,153.0,-93.0,1065.0,1410.0,223.0,229.0,515.0,-295.0
31.0,149.0,-105.0,693.0,1418.0,132.0,133.0,491.0,-344.0
-15.0,132.0,-111.0,227.0,1344.0,33.0,-25.0,424.0,-391.0
-60.0,99.0,-104.0,-296.0,1199.0,-84.0,-195.0,331.0,-366.0
-86.0,46.0,-105.0,-892.0,985.0,-144.0,-299.0,117.0,-354.0
-108.0,-19.0,-136.0,-1286.0,835.0,-195.0,-431.0,-116.0,-475.0
-102.0,-101.0,-170.0,-1545.0,743.0,-223.0,-430.0,-380.0,-616.0
-36.0,-198.0,-163.0,-1608.0,717.0,-259.0,-214.0,-687.0,-599.0
64.0,-278.0,-160.0,-1381.0,748.0,-328.0,275.0,-1044.0,-588.0
194.0,-348.0,-369.0,-911.0,793.0,-508.0,780.0,-1383.0,-1505.0
260.0,-348.0,-727.0,-833.0,578.0,-784.0,1029.0,-1566.0,-2937.0
274.0,-410.0,-855.0,-1625.0,138.0,-966.0,1027.0,-1839.0,-3467.0
179.0,-637.0,-449.0,-2759.0,-102.0,-1050.0,610.0,-2424.0,-1979.0
-7.0,-896.0,139.0,-3031.0,53.0,-1048.0,-134.0,-3117.0,368.0
-80.0,-1071.0,382.0,-1879.0,563.0,-694.0,-534.0,-3722.0,1565.0
-66.0,-1057.0,242.0,40.0,1397.0,-142.0,-459.0,-3891.0,1281.0
-30.0,-921.0,-21.0,1645.0,2067.0,251.0,-205.0,-3654.0,285.0
-3.0,-781.0,-180.0,2218.0,1990.0,261.0,16.0,-3137.0,-616.0
-13.0,-606.0,-255.0,1820.0,1439.0,169.0,-28.0,-2318.0,-976.0
-58.0,-486.0,-171.0,1375.0,856.0,206.0,-228.0,-1816.0,-597.0
-103.0,-409.0,-52.0,1334.0,357.0,444.0,-415.0,-1530.0,-133.0
-102.0,-371.0,8.0,1511.0,-26.0,810.0,-418.0,-1432.0,97.0
-33.0,-362.0,26.0,1560.0,-246.0,1154.0,-190.0,-1445.0,172.0
26.0,-381.0,13.0,1321.0,-278.0,1319.0,21.0,-1560.0,141.0
39.0,-413.0,12.0,723.0,-181.0,1310.0,106.0,-1708.0,107.0
53.0,-452.0,8.0,-132.0,-160.0,1200.0,176.0,-1833.0,95.0
82.0,-477.0,-22.0,-987.0,-250.0,1081.0,265.0,-1930.0,-7.0
98.0,-511.0,-49.0,-1636.0,-273.0,1026.0,300.0,-2001.0,-112.0
108.0,-543.0,-55.0,-1951.0,-161.0,1069.0,339.0,-2095.0,-128.0
121.0,-587.0,-53.0,-1977.0,-19.0,1184.0,392.0,-2241.0,-127.0
114.0,-624.0,-48.0,-1827.0,105.0,1261.0,377.0,-2382.0,-122.0
85.0,-649.0,-30.0,-1664.0,179.0,1307.0,287.0,-2470.0,-47.0
49.0,-663.0,-13.0,-1460.0,237.0,1334.0,120.0,-2524.0,28.0
1.0,-654.0,9.0,-1191.0,265.0,1322.0,-55.0,-2461.0,97.0
-36.0,-608.0,12.0,-830.0,257.0,1270.0,-192.0,-2291.0,113.0
-78.0,-547.0,3.0,-415.0,241.0,1227.0,-344.0,-2084.0,65.0
-82.0,-495.0,-9.0,-3.0,215.0,1213.0,-365.0,-1805.0,41.0
-104.0,-396.0,-23.0,446.0,181.0,1129.0,-445.0,-1446.0,-14.0
-117.0,-283.0,-14.0,890.0,169.0,1080.0,-485.0,-1031.0,8.0
-114.0,-172.0,-12.0,1346.0,166.0,1072.0,-462.0,-635.0,20.0
-99.0,-84.0,-21.0,1737.0,138.0,1100.0,-405.0,-332.0,-12.0
-77.0,-12.0,-28.0,1944.0,70.0,1101.0,-315.0,-103.0,-23.0
-65.0,39.0,-34.0,1929.0,-37.0,1003.0,-257.0,78.0,-60.0
-39.0,91.0,-25.0,1629.0,-210.0,837.0,-153.0,258.0,-47.0
-30.0,134.0,-25.0,1264.0,-375.0,636.0,-120.0,419.0,-43.0
-17.0,147.0,-21.0,915.0,-541.0,483.0,-64.0,526.0,-28.0
26.0,150.0,-35.0,656.0,-676.0,369.0,131.0,537.0,-83.0
61.0,141.0,-58.0,428.0,-788.0,223.0,255.0,482.0,-172.0
80.0,118.0,-70.0,159.0,-875.0,43.0,302.0,383.0,-220.0
73.0,90.0,-75.0,-182.0,-942.0,-146.0,287.0,290.0,-239.0
62.0,61.0,-64.0,-554.0,-994.0,-287.0,235.0,187.0,-196.0
26.0,1.0,-80.0,-870.0,-1024.0,-375.0,112.0,-11.0,-235.0
1.0,-58.0,-116.0,-1122.0,-983.0,-461.0,-37.0,-202.0,-353.0
-27.0,-109.0,-148.0,-1255.0,-831.0,-550.0,-161.0,-352.0,-476.0
-44.0,-126.0,-180.0,-1219.0,-603.0,-625.0,-232.0,-465.0,-590.0
