acc1_x,acc1_y,acc1_z,gyro_x,gyro_y,gyro_z,acc2_x,acc2_y,acc2_z
-17.0,-252.0,28.0,-7.0,63.0,3.0,-104.0,-962.0,177.0
-20.0,-253.0,26.0,-8.0,61.0,1.0,-106.0,-963.0,181.0
-20.0,-249.0,28.0,-8.0,58.0,1.0,-107.0,-958.0,179.0
-19.0,-251.0,27.0,-6.0,57.0,-1.0,-107.0,-960.0,183.0
-20.0,-253.0,24.0,-7.0,59.0,1.0,-107.0,-957.0,177.0
-17.0,-253.0,24.0,-7.0,60.0,-2.0,-106.0,-955.0,179.0
-19.0,-251.0,30.0,-6.0,62.0,1.0,-104.0,-963.0,179.0
-18.0,-251.0,31.0,-6.0,61.0,-2.0,-106.0,-958.0,180.0
-17.0,-248.0,26.0,-6.0,62.0,1.0,-99.0,-961.0,182.0
-17.0,-253.0,27.0,-6.0,63.0,-1.0,-105.0,-963.0,181.0
-17.0,-250.0,26.0,-8.0,64.0,1.0,-106.0,-957.0,180.0
-17.0,-252.0,27.0,-7.0,65.0,0.0,-106.0,-957.0,184.0
-18.0,-249.0,25.0,-7.0,63.0,2.0,-104.0,-955.0,187.0
-20.0,-249.0,29.0,-9.0,63.0,0.0,-105.0,-951.0,180.0
-18.0,-250.0,28.0,-11.0,63.0,0.0,-102.0,-957.0,181.0
-17.0,-253.0,30.0,-12.0,63.0,-3.0,-104.0,-961.0,180.0
-20.0,-251.0,31.0,-13.0,62.0,0.0,-106.0,-963.0,179.0
-17.0,-252.0,26.0,-14.0,62.0,-2.0,-102.0,-966.0,177.0
-18.0,-252.0,26.0,-13.0,62.0,-2.0,-103.0,-963.0,178.0
-20.0,-253.0,27.0,-12.0,61.0,-4.0,-102.0,-960.0,179.0
-18.0,-252.0,26.0,-13.0,63.0,-3.0,-98.0,-965.0,182.0
-16.0,-252.0,28.0,-11.0,61.0,-3.0,-101.0,-960.0,175.0
-17.0,-251.0,25.0,-11.0,59.0,-2.0,-102.0,-962.0,175.0
-16.0,-255.0,27.0,-11.0,59.0,-5.0,-104.0,-961.0,178.0
-20.0,-249.0,29.0,-10.0,59.0,-2.0,-105.0,-959.0,177.0
-15.0,-250.0,25.0,-11.0,59.0,-4.0,-102.0,-964.0,183.0
-16.0,-252.0,28.0,-13.0,58.0,-2.0,-101.0,-957.0,185.0
-17.0,-250.0,22.0,-12.0,58.0,-4.0,-105.0,-956.0,175.0
-17.0,-249.0,27.0,-14.0,57.0,-2.0,-100.0,-958.0,178.0
-19.0,-253.0,27.0,-13.0,58.0,-3.0,-105.0,-963.0,178.0
-17.0,-251.0,31.0,-13.0,60.0,-1.0,-107.0,-966.0,180.0
-19.0,-250.0,28.0,-13.0,59.0,-2.0,-100.0,-960.0,179.0
-20.0,-250.0,30.0,-13.0,58.0,-2.0,-102.0,-964.0,178.0
-16.0,-253.0,30.0,-12.0,59.0,-3.0,-104.0,-958.0,179.0
-17.0,-251.0,28.0,-13.0,59.0,-1.0,-104.0,-957.0,177.0
-17.0,-251.0,29.0,-13.0,59.0,-3.0,-104.0,-960.0,177.0
-18.0,-253.0,26.0,-13.0,58.0,-1.0,-105.0,-958.0,179.0
-18.0,-250.0,26.0,-12.0,59.0,-3.0,-105.0,-962.0,177.0
-17.0,-249.0,28.0,-11.0,59.0,-2.0,-97.0,-957.0,178.0
-19.0,-249.0,29.0,-10.0,61.0,-2.0,-102.0,-961.0,179.0
-18.0,-250.0,30.0,-12.0,62.0,-3.0,-105.0,-958.0,181.0
-19.0,-250.0,28.0,-13.0,60.0,-3.0,-104.0,-962.0,180.0
-16.0,-249.0,26.0,-15.0,62.0,-3.0,-106.0,-966.0,182.0
-18.0,-251.0,28.0,-13.0,61.0,0.0,-103.0,-965.0,178.0
-19.0,-251.0,27.0,-11.0,59.0,1.0,-103.0,-967.0,176.0
-20.0,-251.0,24.0,-9.0,59.0,-1.0,-103.0,-965.0,176.0
-18.0,-251.0,31.0,-7.0,57.0,0.0,-102.0,-967.0,176.0
-21.0,-249.0,27.0,-6.0,58.0,-1.0,-103.0,-952.0,173.0
-14.0,-252.0,22.0,-6.0,56.0,-2.0,-102.0,-952.0,174.0
-18.0,-249.0,26.0,-10.0,58.0,-3.0,-106.0,-956.0,177.0
-15.0,-251.0,28.0,-13.0,59.0,-4.0,-107.0,-957.0,180.0
-16.0,-252.0,29.0,-17.0,60.0,-5.0,-107.0,-964.0,180.0
-20.0,-254.0,27.0,-19.0,63.0,-4.0,-102.0,-968.0,180.0
-19.0,-255.0,29.0,-20.0,66.0,-5.0,-100.0,-968.0,178.0
-16.0,-253.0,29.0,-18.0,65.0,-3.0,-101.0,-967.0,176.0
-19.0,-253.0,28.0,-17.0,63.0,-2.0,-104.0,-968.0,178.0
-20.0,-249.0,24.0,-13.0,64.0,-3.0,-99.0,-963.0,178.0
-20.0,-250.0,28.0,-12.0,64.0,-3.0,-105.0,-960.0,178.0
-14.0,-251.0,31.0,-12.0,63.0,-3.0,-107.0,-960.0,180.0
-19.0,-253.0,26.0,-13.0,60.0,-3.0,-104.0,-960.0,178.0
-19.0,-250.0,26.0,-13.0,58.0,-3.0,-106.0,-957.0,178.0
-18.0,-249.0,30.0,-14.0,60.0,1.0,-102.0,-958.0,176.0
-16.0,-252.0,29.0,-12.0,59.0,0.0,-101.0,-954.0,178.0
-17.0,-249.0,26.0,-9.0,57.0,1.0,-100.0,-956.0,177.0
-20.0,-248.0,27.0,-10.0,57.0,0.0,-100.0,-953.0,177.0
-19.0,-251.0,33.0,-15.0,57.0,0.0,-105.0,-962.0,181.0
-17.0,-252.0,33.0,-19.0,59.0,-2.0,-103.0,-964.0,178.0
-17.0,-250.0,28.0,-20.0,60.0,-1.0,-103.0,-963.0,178.0
-20.0,-252.0,26.0,-14.0,63.0,-5.0,-104.0,-965.0,179.0
-15.0,-249.0,31.0,-12.0,64.0,-3.0,-106.0,-968.0,177.0
-17.0,-252.0,26.0,-11.0,66.0,-4.0,-101.0,-966.0,177.0
-17.0,-252.0,25.0,-13.0,66.0,-2.0,-98.0,-967.0,174.0
-20.0,-252.0,28.0,-13.0,64.0,0.0,-102.0,-962.0,178.0
-18.0,-254.0,31.0,-12.0,63.0,-1.0,-101.0,-963.0,177.0
-20.0,-253.0,28.0,-9.0,58.0,-3.0,-102.0,-960.0,178.0
-21.0,-249.0,27.0,-5.0,56.0,-2.0,-107.0,-969.0,177.0
-21.0,-251.0,28.0,-3.0,56.0,-5.0,-103.0,-962.0,179.0
-18.0,-250.0,29.0,-2.0,55.0,-3.0,-105.0,-965.0,176.0
-18.0,-252.0,28.0,-2.0,55.0,-5.0,-104.0,-965.0,180.0
-13.0,-251.0,31.0,-1.0,57.0,-3.0,-100.0,-963.0,184.0
-19.0,-249.0,27.0,-2.0,58.0,-5.0,-102.0,-962.0,180.0
-22.0,-249.0,26.0,-2.0,59.0,-3.0,-101.0,-958.0,178.0
-18.0,-249.0,28.0,-6.0,60.0,-6.0,-101.0,-956.0,181.0
-20.0,-250.0,26.0,-8.0,59.0,-6.0,-100.0,-953.0,180.0
-17.0,-251.0,26.0,-12.0,60.0,-8.0,-104.0,-959.0,180.0
-19.0,-251.0,31.0,-17.0,59.0,-7.0,-103.0,-963.0,176.0
-16.0,-252.0,27.0,-18.0,61.0,-8.0,-106.0,-964.0,177.0
-18.0,-251.0,30.0,-18.0,61.0,-6.0,-106.0,-967.0,176.0
-19.0,-249.0,26.0,-18.0,60.0,-9.0,-105.0,-966.0,178.0
-15.0,-254.0,28.0,-16.0,61.0,-7.0,-101.0,-965.0,175.0
-15.0,-249.0,28.0,-11.0,61.0,-8.0,-107.0,-962.0,173.0
-16.0,-256.0,27.0,-6.0,58.0,-7.0,-105.0,-966.0,177.0
-19.0,-250.0,29.0,-3.0,55.0,-9.0,-100.0,-963.0,176.0
-17.0,-251.0,25.0,1.0,55.0,-6.0,-100.0,-961.0,175.0
-16.0,-249.0,28.0,4.0,53.0,-9.0,-101.0,-959.0,182.0
-19.0,-249.0,28.0,5.0,52.0,-7.0,-103.0,-955.0,178.0
-17.0,-251.0,23.0,5.0,53.0,-9.0,-103.0,-957.0,180.0
-20.0,-248.0,29.0,3.0,53.0,-6.0,-100.0,-955.0,181.0
-17.0,-251.0,26.0,4.0,54.0,-7.0,-106.0,-958.0,188.0
-18.0,-250.0,31.0,1.0,54.0,-4.0,-104.0,-958.0,182.0
-15.0,-249.0,22.0,2.0,55.0,-8.0,-102.0,-964.0,190.0
-19.0,-249.0,27.0,1.0,56.0,-5.0,-104.0,-956.0,179.0
-20.0,-250.0,28.0,-1.0,58.0,-6.0,-103.0,-960.0,174.0
-19.0,-249.0,26.0,-3.0,60.0,-3.0,-104.0,-951.0,178.0
-16.0,-254.0,29.0,-4.0,59.0,-4.0,-105.0,-955.0,182.0
-20.0,-253.0,27.0,-3.0,61.0,1.0,-104.0,-960.0,178.0
-17.0,-252.0,26.0,-3.0,60.0,-1.0,-105.0,-961.0,177.0
-21.0,-252.0,28.0,-1.0,60.0,2.0,-107.0,-964.0,180.0
-17.0,-253.0,30.0,-1.0,60.0,2.0,-105.0,-964.0,178.0
-20.0,-249.0,29.0,0.0,60.0,4.0,-104.0,-965.0,178.0
-21.0,-251.0,27.0,2.0,58.0,2.0,-103.0,-959.0,178.0
-19.0,-252.0,27.0,2.0,59.0,5.0,-105.0,-968.0,180.0
-21.0,-250.0,28.0,1.0,57.0,4.0,-104.0,-971.0,179.0
-18.0,-253.0,26.0,2.0,57.0,5.0,-103.0,-965.0,181.0
-19.0,-250.0,25.0,2.0,58.0,2.0,-100.0,-965.0,178.0
-16.0,-250.0,30.0,2.0,58.0,4.0,-103.0,-959.0,178.0
-18.0,-250.0,26.0,1.0,57.0,1.0,-105.0,-962.0,176.0
-19.0,-251.0,30.0,2.0,58.0,2.0,-107.0,-961.0,178.0
-18.0,-251.0,23.0,2.0,59.0,1.0,-104.0,-960.0,179.0
-16.0,-250.0,30.0,3.0,58.0,2.0,-106.0,-957.0,178.0
-18.0,-250.0,27.0,1.0,56.0,0.0,-104.0,-960.0,176.0
-18.0,-249.0,31.0,1.0,55.0,1.0,-105.0,-959.0,175.0
-15.0,-249.0,24.0,1.0,55.0,-3.0,-104.0,-957.0,181.0
-17.0,-252.0,26.0,-1.0,55.0,0.0,-100.0,-958.0,180.0
-16.0,-250.0,26.0,-3.0,57.0,-1.0,-100.0,-961.0,178.0
-18.0,-251.0,29.0,-9.0,58.0,-1.0,-102.0,-958.0,181.0
-19.0,-250.0,23.0,-13.0,57.0,-3.0,-101.0,-966.0,182.0
-16.0,-249.0,28.0,-16.0,57.0,-1.0,-102.0,-960.0,188.0
-18.0,-250.0,31.0,-16.0,56.0,-2.0,-104.0,-961.0,187.0
-16.0,-250.0,27.0,-17.0,56.0,0.0,-104.0,-957.0,183.0
-20.0,-250.0,25.0,-16.0,56.0,-4.0,-100.0,-959.0,177.0
-17.0,-252.0,26.0,-16.0,56.0,-2.0,-101.0,-961.0,180.0
-18.0,-250.0,23.0,-14.0,56.0,-5.0,-98.0,-966.0,178.0
-19.0,-253.0,24.0,-13.0,57.0,-2.0,-100.0,-962.0,177.0
-18.0,-246.0,24.0,-13.0,57.0,-4.0,-99.0,-961.0,177.0
-16.0,-253.0,27.0,-9.0,60.0,-2.0,-101.0,-968.0,178.0
-15.0,-251.0,30.0,-8.0,60.0,-3.0,-102.0,-958.0,177.0
-15.0,-251.0,24.0,-7.0,60.0,-2.0,-95.0,-961.0,181.0
-16.0,-249.0,28.0,-7.0,60.0,-3.0,-101.0,-961.0,180.0
-17.0,-250.0,24.0,-7.0,60.0,-1.0,-97.0,-956.0,179.0
-22.0,-253.0,32.0,-8.0,62.0,-4.0,-98.0,-955.0,179.0
-15.0,-251.0,29.0,-12.0,64.0,-2.0,-104.0,-954.0,184.0
-14.0,-252.0,27.0,-13.0,63.0,-4.0,-104.0,-955.0,192.0
-16.0,-250.0,30.0,-14.0,65.0,-3.0,-103.0,-961.0,182.0
-14.0,-250.0,26.0,-15.0,64.0,-6.0,-101.0,-968.0,183.0
-17.0,-253.0,27.0,-13.0,64.0,-3.0,-100.0,-967.0,177.0
-15.0,-251.0,28.0,-14.0,65.0,-5.0,-104.0,-969.0,182.0
-18.0,-254.0,28.0,-13.0,64.0,-3.0,-102.0,-965.0,182.0
-18.0,-252.0,28.0,-10.0,64.0,-4.0,-100.0,-963.0,185.0
-14.0,-249.0,25.0,-11.0,63.0,-3.0,-99.0,-958.0,180.0
-16.0,-251.0,28.0,-11.0,61.0,-4.0,-104.0,-956.0,180.0
-19.0,-251.0,27.0,-10.0,62.0,-3.0,-103.0,-965.0,177.0
-18.0,-249.0,25.0,-11.0,61.0,-3.0,-105.0,-954.0,178.0
-21.0,-250.0,27.0,-11.0,62.0,-2.0,-102.0,-964.0,184.0
-19.0,-252.0,28.0,-10.0,62.0,-2.0,-105.0,-965.0,181.0
-22.0,-252.0,32.0,-12.0,63.0,0.0,-103.0,-968.0,185.0
-16.0,-254.0,32.0,-12.0,62.0,-3.0,-106.0,-963.0,191.0
-18.0,-254.0,27.0,-10.0,63.0,1.0,-109.0,-968.0,187.0
-21.0,-249.0,30.0,-8.0,61.0,-1.0,-106.0,-968.0,187.0
-18.0,-251.0,25.0,-7.0,61.0,1.0,-105.0,-961.0,190.0
-17.0,-250.0,26.0,-5.0,62.0,-1.0,-103.0,-965.0,182.0
-17.0,-250.0,28.0,-4.0,61.0,0.0,-106.0,-963.0,178.0
-17.0,-248.0,31.0,-5.0,60.0,0.0,-101.0,-960.0,183.0
-16.0,-250.0,28.0,-7.0,60.0,1.0,-102.0,-956.0,183.0
-17.0,-251.0,28.0,-7.0,60.0,1.0,-107.0,-964.0,185.0
-17.0,-253.0,29.0,-9.0,59.0,2.0,-102.0,-960.0,183.0
-22.0,-250.0,27.0,-10.0,59.0,1.0,-107.0,-957.0,185.0
-18.0,-249.0,28.0,-12.0,58.0,3.0,-106.0,-960.0,184.0
-19.0,-250.0,27.0,-12.0,58.0,3.0,-104.0,-963.0,182.0
-20.0,-250.0,27.0,-12.0,57.0,3.0,-106.0,-959.0,180.0
-22.0,-251.0,30.0,-12.0,58.0,2.0,-105.0,-961.0,181.0
-19.0,-251.0,28.0,-10.0,57.0,2.0,-103.0,-960.0,187.0
-16.0,-252.0,27.0,-10.0,57.0,2.0,-109.0,-961.0,189.0
-17.0,-253.0,27.0,-10.0,58.0,2.0,-102.0,-957.0,178.0
-18.0,-250.0,31.0,-9.0,56.0,1.0,-106.0,-962.0,186.0
-20.0,-249.0,30.0,-8.0,56.0,1.0,-103.0,-959.0,184.0
-18.0,-250.0,28.0,-8.0,57.0,-2.0,-103.0,-954.0,184.0
-15.0,-253.0,30.0,-10.0,58.0,-2.0,-102.0,-964.0,181.0
-21.0,-253.0,28.0,-10.0,57.0,-1.0,-105.0,-959.0,185.0
-19.0,-250.0,27.0,-10.0,57.0,-1.0,-103.0,-963.0,184.0
-17.0,-253.0,30.0,-10.0,58.0,-1.0,-100.0,-965.0,188.0
-20.0,-251.0,26.0,-6.0,57.0,0.0,-104.0,-967.0,179.0
-15.0,-248.0,27.0,-3.0,56.0,-2.0,-102.0,-963.0,180.0
-15.0,-250.0,30.0,0.0,57.0,-1.0,-101.0,-957.0,179.0
-17.0,-249.0,26.0,0.0,57.0,0.0,-102.0,-954.0,181.0
-19.0,-250.0,29.0,-2.0,55.0,-3.0,-100.0,-954.0,185.0
-19.0,-248.0,29.0,-6.0,54.0,-4.0,-107.0,-954.0,184.0
-16.0,-250.0,30.0,-11.0,57.0,-6.0,-107.0,-954.0,185.0
-19.0,-249.0,30.0,-14.0,59.0,-6.0,-103.0,-959.0,188.0
-19.0,-253.0,29.0,-19.0,63.0,-5.0,-100.0,-967.0,189.0
-19.0,-251.0,30.0,-19.0,65.0,-3.0,-103.0,-967.0,182.0
-17.0,-252.0,27.0,-17.0,66.0,-3.0,-106.0,-970.0,183.0
-18.0,-250.0,27.0,-14.0,67.0,-3.0,-102.0,-968.0,182.0
-16.0,-255.0,27.0,-11.0,64.0,-2.0,-103.0,-968.0,178.0
-17.0,-250.0,26.0,-9.0,63.0,-1.0,-100.0,-964.0,182.0
-17.0,-254.0,25.0,-5.0,61.0,-1.0,-104.0,-961.0,182.0
-18.0,-252.0,25.0,-6.0,59.0,-1.0,-104.0,-954.0,175.0
-21.0,-248.0,26.0,-8.0,59.0,-3.0,-107.0,-955.0,187.0
-15.0,-252.0,30.0,-9.0,55.0,-2.0,-104.0,-959.0,180.0
-16.0,-251.0,28.0,-9.0,55.0,-2.0,-101.0,-958.0,178.0
-18.0,-252.0,28.0,-9.0,56.0,-1.0,-103.0,-962.0,178.0
-16.0,-252.0,29.0,-8.0,57.0,-3.0,-101.0,-956.0,178.0
-14.0,-250.0,24.0,-9.0,57.0,-2.0,-105.0,-953.0,186.0
-17.0,-256.0,29.0,-15.0,58.0,-4.0,-101.0,-957.0,184.0
-19.0,-251.0,29.0,-15.0,59.0,-5.0,-104.0,-970.0,190.0
-17.0,-251.0,29.0,-14.0,60.0,-7.0,-103.0,-961.0,183.0
-16.0,-252.0,26.0,-9.0,61.0,-7.0,-106.0,-963.0,180.0
-18.0,-251.0,27.0,-8.0,65.0,-8.0,-96.0,-961.0,178.0
-13.0,-250.0,27.0,-7.0,65.0,-7.0,-101.0,-969.0,180.0
-19.0,-251.0,26.0,-8.0,64.0,-7.0,-102.0,-962.0,184.0
-19.0,-253.0,26.0,-6.0,64.0,-4.0,-98.0,-960.0,183.0
-17.0,-251.0,27.0,-3.0,62.0,-5.0,-103.0,-958.0,183.0
-19.0,-250.0,29.0,-1.0,61.0,-5.0,-106.0,-956.0,181.0
-17.0,-251.0,32.0,1.0,58.0,-6.0,-105.0,-964.0,189.0
-18.0,-251.0,34.0,0.0,58.0,-3.0,-106.0,-964.0,189.0
-19.0,-252.0,27.0,1.0,57.0,-5.0,-106.0,-964.0,190.0
-17.0,-251.0,30.0,2.0,58.0,-3.0,-103.0,-962.0,188.0
-17.0,-251.0,30.0,2.0,58.0,-3.0,-108.0,-962.0,191.0
-15.0,-250.0,26.0,1.0,62.0,-2.0,-105.0,-959.0,189.0
-17.0,-250.0,34.0,-2.0,62.0,-3.0,-97.0,-958.0,186.0
-17.0,-249.0,30.0,-4.0,63.0,-1.0,-104.0,-958.0,182.0
-17.0,-249.0,27.0,-6.0,63.0,-3.0,-102.0,-961.0,185.0
-16.0,-251.0,29.0,-10.0,62.0,-2.0,-105.0,-960.0,180.0
-14.0,-253.0,28.0,-10.0,62.0,-4.0,-102.0,-964.0,185.0
-15.0,-253.0,25.0,-12.0,61.0,-2.0,-103.0,-961.0,182.0
-18.0,-252.0,28.0,-9.0,61.0,-4.0,-106.0,-968.0,181.0
-20.0,-252.0,27.0,-7.0,59.0,-3.0,-103.0,-964.0,186.0
-17.0,-253.0,28.0,-4.0,58.0,-5.0,-108.0,-964.0,180.0
-21.0,-250.0,30.0,0.0,56.0,-4.0,-107.0,-955.0,184.0
-20.0,-249.0,31.0,4.0,53.0,-4.0,-103.0,-961.0,188.0
-19.0,-247.0,25.0,6.0,53.0,-3.0,-107.0,-957.0,189.0
-16.0,-253.0,27.0,8.0,55.0,-6.0,-101.0,-959.0,190.0
-18.0,-249.0,29.0,8.0,53.0,-5.0,-104.0,-961.0,188.0
-17.0,-249.0,27.0,7.0,54.0,-6.0,-102.0,-958.0,189.0
-17.0,-250.0,30.0,4.0,56.0,-5.0,-99.0,-956.0,187.0
-17.0,-250.0,26.0,2.0,56.0,-7.0,-105.0,-956.0,181.0
-14.0,-251.0,30.0,0.0,59.0,-6.0,-107.0,-959.0,178.0
-17.0,-252.0,29.0,0.0,59.0,-8.0,-106.0,-954.0,192.0
-19.0,-251.0,26.0,-2.0,61.0,-7.0,-104.0,-966.0,179.0
-15.0,-252.0,28.0,-3.0,61.0,-8.0,-107.0,-961.0,185.0
-16.0,-251.0,27.0,-2.0,61.0,-5.0,-102.0,-965.0,186.0
-17.0,-250.0,30.0,0.0,60.0,-8.0,-103.0,-959.0,181.0
-14.0,-253.0,29.0,0.0,60.0,-5.0,-104.0,-962.0,184.0
-14.0,-254.0,22.0,2.0,59.0,-8.0,-101.0,-960.0,181.0
-16.0,-250.0,29.0,2.0,59.0,-4.0,-104.0,-956.0,183.0
-20.0,-249.0,30.0,3.0,56.0,-6.0,-102.0,-957.0,185.0
-14.0,-255.0,27.0,4.0,56.0,-4.0,-103.0,-961.0,183.0
-17.0,-249.0,27.0,4.0,57.0,-6.0,-102.0,-956.0,182.0
-17.0,-248.0,30.0,4.0,57.0,-3.0,-100.0,-957.0,186.0
-19.0,-250.0,30.0,5.0,57.0,-5.0,-104.0,-960.0,191.0
-19.0,-251.0,30.0,4.0,56.0,-1.0,-106.0,-957.0,189.0
-19.0,-252.0,29.0,2.0,56.0,-5.0,-105.0,-963.0,188.0
-18.0,-253.0,28.0,2.0,56.0,-4.0,-103.0,-957.0,185.0
-15.0,-252.0,28.0,2.0,57.0,-6.0,-106.0,-960.0,183.0
-18.0,-253.0,28.0,1.0,58.0,-3.0,-101.0,-962.0,184.0
-15.0,-250.0,31.0,2.0,60.0,-4.0,-100.0,-963.0,180.0
-13.0,-250.0,30.0,3.0,60.0,-3.0,-104.0,-964.0,183.0
-19.0,-249.0,30.0,3.0,60.0,-5.0,-101.0,-959.0,185.0
-18.0,-249.0,30.0,2.0,59.0,-2.0,-107.0,-960.0,180.0
-19.0,-252.0,26.0,1.0,60.0,-7.0,-104.0,-956.0,190.0
-17.0,-250.0,28.0,2.0,59.0,-6.0,-102.0,-954.0,181.0
-14.0,-250.0,31.0,0.0,59.0,-8.0,-102.0,-958.0,183.0
-17.0,-251.0,28.0,-3.0,59.0,-4.0,-101.0,-962.0,190.0
-18.0,-253.0,26.0,-5.0,59.0,-5.0,-105.0,-971.0,185.0
-19.0,-252.0,28.0,-3.0,59.0,-3.0,-100.0,-963.0,188.0
-18.0,-252.0,31.0,0.0,59.0,-5.0,-103.0,-964.0,188.0
-18.0,-253.0,30.0,4.0,55.0,-3.0,-104.0,-959.0,186.0
-16.0,-253.0,26.0,6.0,54.0,-6.0,-103.0,-956.0,185.0
-13.0,-254.0,32.0,7.0,53.0,-5.0,-101.0,-962.0,189.0
-17.0,-250.0,29.0,8.0,55.0,-8.0,-102.0,-955.0,188.0
-16.0,-250.0,31.0,9.0,56.0,-5.0,-103.0,-957.0,188.0
-18.0,-250.0,28.0,6.0,58.0,-5.0,-100.0,-954.0,186.0
-19.0,-245.0,29.0,5.0,59.0,-1.0,-102.0,-952.0,192.0
-16.0,-249.0,33.0,2.0,58.0,-5.0,-105.0,-953.0,192.0
-18.0,-253.0,33.0,2.0,59.0,-4.0,-104.0,-954.0,188.0
-16.0,-250.0,30.0,0.0,56.0,-6.0,-104.0,-952.0,194.0
-18.0,-252.0,29.0,-4.0,56.0,-3.0,-100.0,-954.0,195.0
-17.0,-251.0,32.0,-6.0,56.0,-6.0,-102.0,-957.0,195.0
-16.0,-251.0,32.0,-10.0,56.0,-3.0,-103.0,-959.0,193.0
-15.0,-253.0,27.0,-13.0,59.0,-6.0,-101.0,-965.0,193.0
-19.0,-251.0,29.0,-14.0,59.0,-3.0,-101.0,-964.0,189.0
-14.0,-250.0,27.0,-13.0,62.0,-5.0,-96.0,-965.0,191.0
-17.0,-252.0,31.0,-12.0,63.0,-3.0,-103.0,-964.0,191.0
-14.0,-252.0,30.0,-11.0,63.0,-5.0,-100.0,-961.0,191.0
-13.0,-251.0,29.0,-9.0,62.0,-3.0,-97.0,-965.0,188.0
-20.0,-251.0,32.0,-9.0,63.0,-6.0,-98.0,-960.0,185.0
-20.0,-252.0,34.0,-9.0,62.0,-4.0,-100.0,-963.0,188.0
-16.0,-248.0,31.0,-7.0,60.0,-5.0,-99.0,-961.0,188.0
-19.0,-251.0,33.0,-10.0,61.0,-3.0,-104.0,-961.0,184.0
-14.0,-250.0,28.0,-10.0,60.0,-7.0,-102.0,-958.0,186.0
-14.0,-249.0,32.0,-10.0,61.0,-4.0,-98.0,-962.0,191.0
-19.0,-251.0,31.0,-12.0,61.0,-5.0,-100.0,-960.0,194.0
-16.0,-252.0,28.0,-13.0,59.0,-4.0,-100.0,-959.0,192.0
-14.0,-249.0,35.0,-14.0,60.0,-6.0,-104.0,-959.0,191.0
-18.0,-250.0,31.0,-15.0,60.0,-6.0,-105.0,-958.0,191.0
-19.0,-250.0,30.0,-16.0,61.0,-7.0,-101.0,-961.0,192.0
-18.0,-249.0,32.0,-18.0,61.0,-6.0,-105.0,-964.0,191.0
-13.0,-250.0,29.0,-19.0,60.0,-8.0,-101.0,-956.0,189.0
-14.0,-255.0,31.0,-16.0,61.0,-6.0,-100.0,-958.0,190.0
-19.0,-253.0,27.0,-16.0,63.0,-7.0,-99.0,-958.0,188.0
-17.0,-251.0,28.0,-14.0,62.0,-4.0,-103.0,-956.0,193.0
-15.0,-251.0,27.0,-15.0,61.0,-4.0,-103.0,-962.0,194.0
-18.0,-255.0,30.0,-13.0,58.0,-2.0,-101.0,-962.0,190.0
-16.0,-252.0,28.0,-11.0,56.0,-3.0,-103.0,-959.0,190.0
-14.0,-250.0,28.0,-9.0,54.0,-3.0,-108.0,-966.0,190.0
-16.0,-252.0,30.0,-6.0,52.0,-4.0,-102.0,-958.0,190.0
-14.0,-251.0,30.0,-5.0,53.0,-3.0,-103.0,-960.0,192.0
-17.0,-250.0,29.0,-2.0,52.0,-3.0,-102.0,-961.0,193.0
-18.0,-250.0,31.0,-1.0,51.0,1.0,-103.0,-955.0,193.0
-15.0,-250.0,32.0,-2.0,52.0,-1.0,-99.0,-956.0,191.0
-15.0,-252.0,29.0,-2.0,51.0,-1.0,-100.0,-959.0,195.0
-18.0,-253.0,31.0,-2.0,52.0,-2.0,-102.0,-964.0,197.0
-17.0,-250.0,33.0,-2.0,51.0,1.0,-104.0,-963.0,195.0
-17.0,-252.0,31.0,-2.0,49.0,0.0,-103.0,-959.0,194.0
-17.0,-252.0,31.0,-3.0,49.0,0.0,-105.0,-968.0,195.0
-18.0,-252.0,32.0,-4.0,48.0,0.0,-107.0,-964.0,196.0
-19.0,-250.0,30.0,-5.0,45.0,0.0,-106.0,-968.0,194.0
-18.0,-251.0,33.0,-6.0,45.0,-1.0,-101.0,-967.0,193.0
-19.0,-253.0,28.0,-6.0,45.0,0.0,-100.0,-966.0,192.0
-15.0,-253.0,28.0,-2.0,43.0,-1.0,-107.0,-966.0,194.0
-15.0,-251.0,31.0,1.0,43.0,-1.0,-94.0,-966.0,191.0
-17.0,-251.0,32.0,2.0,42.0,-4.0,-97.0,-965.0,193.0
-17.0,-252.0,28.0,4.0,44.0,-4.0,-104.0,-967.0,193.0
-15.0,-253.0,30.0,10.0,46.0,-3.0,-99.0,-965.0,192.0
-13.0,-255.0,31.0,18.0,46.0,-2.0,-100.0,-967.0,188.0
-15.0,-254.0,28.0,24.0,46.0,-3.0,-100.0,-968.0,189.0
-18.0,-249.0,29.0,28.0,46.0,0.0,-105.0,-964.0,190.0
-17.0,-248.0,32.0,26.0,46.0,-1.0,-102.0,-958.0,193.0
-18.0,-248.0,30.0,19.0,47.0,0.0,-103.0,-954.0,191.0
-20.0,-244.0,31.0,11.0,48.0,-2.0,-107.0,-949.0,193.0
-16.0,-250.0,31.0,1.0,47.0,-3.0,-105.0,-948.0,196.0
-19.0,-248.0,30.0,-10.0,50.0,-3.0,-103.0,-951.0,195.0
-21.0,-250.0,33.0,-17.0,53.0,-5.0,-103.0,-954.0,193.0
-19.0,-252.0,28.0,-19.0,53.0,-4.0,-102.0,-957.0,190.0
-16.0,-251.0,30.0,-19.0,54.0,-3.0,-102.0,-959.0,186.0
-18.0,-252.0,30.0,-18.0,56.0,-3.0,-96.0,-965.0,188.0
-15.0,-252.0,30.0,-16.0,50.0,-1.0,-93.0,-965.0,182.0
-15.0,-251.0,29.0,-11.0,45.0,-2.0,-102.0,-967.0,181.0
-19.0,-247.0,29.0,-5.0,42.0,-3.0,-93.0,-957.0,183.0
-16.0,-253.0,29.0,0.0,38.0,-2.0,-96.0,-964.0,185.0
-13.0,-253.0,30.0,0.0,36.0,-2.0,-96.0,-957.0,182.0
-18.0,-251.0,29.0,1.0,32.0,-1.0,-97.0,-961.0,190.0
-18.0,-251.0,32.0,1.0,29.0,-1.0,-102.0,-964.0,190.0
-18.0,-251.0,27.0,0.0,28.0,-1.0,-102.0,-967.0,186.0
-15.0,-253.0,28.0,1.0,27.0,-2.0,-99.0,-968.0,188.0
-14.0,-253.0,29.0,7.0,29.0,-2.0,-101.0,-965.0,188.0
-17.0,-253.0,28.0,10.0,30.0,-3.0,-104.0,-963.0,186.0
-19.0,-254.0,31.0,10.0,34.0,-4.0,-101.0,-966.0,182.0
-18.0,-249.0,24.0,12.0,39.0,-6.0,-102.0,-965.0,184.0
-16.0,-252.0,28.0,16.0,45.0,-6.0,-96.0,-962.0,182.0
-19.0,-252.0,31.0,21.0,51.0,-8.0,-96.0,-955.0,177.0
-19.0,-251.0,26.0,26.0,55.0,-10.0,-100.0,-957.0,179.0
-16.0,-249.0,25.0,29.0,58.0,-11.0,-98.0,-957.0,181.0
-18.0,-247.0,25.0,31.0,61.0,-8.0,-99.0,-956.0,184.0
-13.0,-250.0,30.0,32.0,60.0,-8.0,-99.0,-955.0,185.0
-17.0,-251.0,30.0,33.0,57.0,-8.0,-105.0,-958.0,191.0
-15.0,-249.0,34.0,35.0,53.0,-7.0,-99.0,-962.0,197.0
-19.0,-250.0,32.0,37.0,48.0,-6.0,-105.0,-956.0,195.0
-19.0,-252.0,31.0,36.0,43.0,-7.0,-99.0,-959.0,197.0
-16.0,-253.0,31.0,33.0,41.0,-5.0,-103.0,-955.0,195.0
-16.0,-250.0,33.0,32.0,40.0,-5.0,-97.0,-962.0,196.0
-14.0,-252.0,28.0,32.0,40.0,-3.0,-102.0,-961.0,195.0
-16.0,-252.0,34.0,32.0,42.0,-5.0,-101.0,-959.0,197.0
-17.0,-251.0,31.0,29.0,43.0,-2.0,-102.0,-962.0,196.0
-14.0,-253.0,34.0,28.0,42.0,-1.0,-101.0,-957.0,198.0
-20.0,-251.0,33.0,25.0,41.0,-1.0,-103.0,-958.0,196.0
-19.0,-249.0,31.0,22.0,42.0,-3.0,-104.0,-963.0,198.0
-20.0,-250.0,37.0,21.0,40.0,-3.0,-103.0,-966.0,199.0
-16.0,-255.0,31.0,21.0,39.0,-5.0,-105.0,-970.0,199.0
-15.0,-253.0,29.0,25.0,39.0,-5.0,-104.0,-966.0,199.0
-17.0,-252.0,31.0,28.0,41.0,-7.0,-102.0,-963.0,197.0
-17.0,-255.0,33.0,32.0,42.0,-4.0,-100.0,-966.0,192.0
-17.0,-253.0,31.0,35.0,42.0,-7.0,-99.0,-957.0,196.0
-17.0,-252.0,32.0,38.0,43.0,-6.0,-100.0,-963.0,195.0
-16.0,-253.0,36.0,44.0,44.0,-7.0,-103.0,-957.0,197.0
-19.0,-249.0,32.0,48.0,43.0,-5.0,-99.0,-961.0,197.0
-17.0,-250.0,32.0,50.0,42.0,-6.0,-100.0,-955.0,197.0
-15.0,-249.0,34.0,53.0,41.0,-4.0,-101.0,-956.0,202.0
-19.0,-249.0,35.0,54.0,38.0,-5.0,-104.0,-953.0,197.0
-19.0,-248.0,31.0,49.0,36.0,-1.0,-102.0,-957.0,201.0
-19.0,-251.0,32.0,47.0,33.0,-2.0,-100.0,-955.0,207.0
-15.0,-249.0,31.0,46.0,33.0,1.0,-107.0,-955.0,204.0
-17.0,-253.0,33.0,46.0,32.0,1.0,-108.0,-956.0,206.0
-18.0,-249.0,33.0,47.0,31.0,3.0,-104.0,-960.0,199.0
-21.0,-251.0,37.0,50.0,29.0,2.0,-106.0,-956.0,199.0
-20.0,-250.0,36.0,56.0,31.0,5.0,-104.0,-962.0,200.0
-16.0,-255.0,32.0,61.0,30.0,4.0,-104.0,-954.0,203.0
-19.0,-250.0,35.0,67.0,30.0,6.0,-110.0,-957.0,205.0
-19.0,-248.0,32.0,71.0,31.0,4.0,-105.0,-955.0,204.0
-22.0,-251.0,37.0,74.0,32.0,6.0,-102.0,-961.0,210.0
-15.0,-251.0,33.0,78.0,36.0,4.0,-104.0,-953.0,209.0
-18.0,-250.0,36.0,79.0,36.0,7.0,-98.0,-952.0,209.0
-19.0,-249.0,33.0,78.0,38.0,5.0,-98.0,-951.0,207.0
-19.0,-248.0,34.0,75.0,40.0,5.0,-100.0,-952.0,208.0
-14.0,-251.0,29.0,73.0,41.0,3.0,-98.0,-955.0,207.0
-14.0,-250.0,35.0,70.0,45.0,4.0,-90.0,-952.0,203.0
-15.0,-249.0,31.0,67.0,46.0,0.0,-88.0,-959.0,200.0
-13.0,-251.0,34.0,64.0,47.0,1.0,-100.0,-952.0,206.0
-14.0,-249.0,33.0,65.0,47.0,-4.0,-94.0,-957.0,200.0
-13.0,-251.0,34.0,63.0,47.0,-3.0,-90.0,-955.0,203.0
-13.0,-251.0,33.0,60.0,46.0,-8.0,-86.0,-955.0,199.0
-16.0,-251.0,34.0,57.0,46.0,-9.0,-92.0,-955.0,205.0
-12.0,-250.0,32.0,57.0,47.0,-15.0,-86.0,-953.0,204.0
-17.0,-248.0,38.0,58.0,46.0,-16.0,-89.0,-956.0,203.0
-12.0,-248.0,33.0,58.0,44.0,-19.0,-87.0,-953.0,197.0
-13.0,-252.0,32.0,58.0,44.0,-18.0,-84.0,-956.0,201.0
-12.0,-249.0,35.0,60.0,42.0,-21.0,-90.0,-960.0,202.0
-14.0,-254.0,36.0,62.0,41.0,-18.0,-78.0,-964.0,206.0
-16.0,-256.0,34.0,66.0,40.0,-20.0,-88.0,-961.0,203.0
-14.0,-252.0,39.0,71.0,37.0,-18.0,-87.0,-957.0,208.0
-14.0,-252.0,38.0,76.0,32.0,-23.0,-92.0,-960.0,211.0
-18.0,-250.0,37.0,85.0,30.0,-21.0,-94.0,-961.0,208.0
-14.0,-249.0,36.0,91.0,29.0,-23.0,-94.0,-960.0,208.0
-15.0,-250.0,37.0,96.0,28.0,-20.0,-92.0,-957.0,216.0
-16.0,-250.0,36.0,96.0,29.0,-21.0,-95.0,-955.0,219.0
-17.0,-250.0,36.0,99.0,32.0,-17.0,-100.0,-954.0,216.0
-15.0,-247.0,37.0,101.0,35.0,-16.0,-94.0,-950.0,217.0
-16.0,-249.0,36.0,102.0,35.0,-10.0,-98.0,-956.0,217.0
-12.0,-252.0,39.0,104.0,34.0,-9.0,-90.0,-954.0,219.0
-18.0,-248.0,39.0,104.0,33.0,-3.0,-97.0,-952.0,219.0
-16.0,-251.0,38.0,103.0,33.0,-4.0,-100.0,-955.0,220.0
-15.0,-249.0,37.0,106.0,31.0,1.0,-97.0,-959.0,221.0
-17.0,-251.0,37.0,106.0,30.0,-1.0,-98.0,-957.0,222.0
-14.0,-252.0,40.0,108.0,32.0,2.0,-104.0,-963.0,219.0
-16.0,-250.0,36.0,109.0,33.0,3.0,-103.0,-960.0,217.0
-16.0,-251.0,38.0,113.0,33.0,7.0,-100.0,-954.0,219.0
-15.0,-253.0,39.0,117.0,34.0,6.0,-100.0,-957.0,220.0
-20.0,-251.0,37.0,117.0,34.0,10.0,-104.0,-956.0,226.0
-17.0,-250.0,41.0,118.0,34.0,9.0,-104.0,-954.0,225.0
-17.0,-250.0,42.0,119.0,35.0,12.0,-102.0,-962.0,223.0
-19.0,-249.0,40.0,121.0,35.0,10.0,-104.0,-959.0,227.0
-17.0,-252.0,42.0,124.0,36.0,12.0,-101.0,-957.0,220.0
-22.0,-248.0,39.0,126.0,34.0,11.0,-101.0,-952.0,224.0
-19.0,-248.0,41.0,126.0,35.0,14.0,-99.0,-955.0,224.0
-18.0,-247.0,40.0,123.0,36.0,12.0,-101.0,-955.0,229.0
-19.0,-250.0,39.0,122.0,36.0,13.0,-102.0,-951.0,225.0
-15.0,-250.0,33.0,121.0,37.0,10.0,-100.0,-958.0,219.0
-14.0,-250.0,39.0,121.0,38.0,13.0,-100.0,-953.0,221.0
-18.0,-247.0,37.0,123.0,39.0,9.0,-101.0,-949.0,218.0
-14.0,-249.0,35.0,124.0,40.0,9.0,-98.0,-951.0,219.0
-15.0,-246.0,39.0,127.0,40.0,5.0,-100.0,-948.0,217.0
-16.0,-249.0,34.0,135.0,42.0,8.0,-99.0,-949.0,216.0
-15.0,-248.0,39.0,142.0,41.0,5.0,-96.0,-945.0,220.0
-15.0,-248.0,39.0,148.0,39.0,8.0,-97.0,-949.0,222.0
-14.0,-248.0,39.0,154.0,36.0,5.0,-94.0,-945.0,226.0
-12.0,-248.0,41.0,157.0,34.0,10.0,-96.0,-948.0,231.0
-18.0,-247.0,41.0,160.0,32.0,8.0,-102.0,-950.0,230.0
-15.0,-248.0,42.0,163.0,31.0,7.0,-98.0,-948.0,233.0
-16.0,-248.0,40.0,164.0,32.0,4.0,-102.0,-947.0,238.0
-17.0,-250.0,46.0,165.0,32.0,6.0,-93.0,-954.0,234.0
-16.0,-249.0,46.0,169.0,31.0,1.0,-96.0,-949.0,236.0
-16.0,-250.0,44.0,172.0,30.0,2.0,-95.0,-950.0,238.0
-18.0,-249.0,42.0,177.0,31.0,-2.0,-97.0,-951.0,239.0
-14.0,-248.0,43.0,179.0,29.0,-2.0,-98.0,-949.0,239.0
-19.0,-246.0,43.0,186.0,28.0,-4.0,-94.0,-945.0,245.0
-16.0,-247.0,43.0,192.0,26.0,-3.0,-97.0,-947.0,240.0
-12.0,-247.0,41.0,195.0,25.0,-5.0,-97.0,-943.0,241.0
-15.0,-245.0,44.0,197.0,24.0,-4.0,-96.0,-944.0,241.0
-15.0,-247.0,46.0,198.0,25.0,-8.0,-96.0,-945.0,244.0
-12.0,-247.0,42.0,198.0,27.0,-7.0,-96.0,-946.0,247.0
-17.0,-247.0,45.0,197.0,27.0,-8.0,-98.0,-944.0,246.0
-16.0,-247.0,44.0,198.0,27.0,-6.0,-87.0,-946.0,248.0
-12.0,-245.0,42.0,201.0,25.0,-8.0,-93.0,-943.0,242.0
-13.0,-246.0,46.0,205.0,26.0,-4.0,-94.0,-946.0,242.0
-16.0,-247.0,47.0,209.0,23.0,-5.0,-95.0,-946.0,249.0
-16.0,-247.0,43.0,214.0,23.0,-6.0,-93.0,-947.0,247.0
-15.0,-246.0,48.0,217.0,25.0,-7.0,-99.0,-942.0,250.0
-15.0,-246.0,48.0,219.0,27.0,-7.0,-99.0,-944.0,252.0
-16.0,-246.0,52.0,219.0,29.0,-11.0,-93.0,-938.0,251.0
-15.0,-246.0,51.0,216.0,31.0,-10.0,-92.0,-939.0,256.0
-17.0,-249.0,48.0,213.0,33.0,-12.0,-94.0,-944.0,260.0
-18.0,-246.0,47.0,216.0,37.0,-10.0,-96.0,-947.0,266.0
-16.0,-247.0,49.0,220.0,35.0,-7.0,-94.0,-950.0,263.0
-12.0,-248.0,49.0,224.0,36.0,-5.0,-98.0,-944.0,264.0
-18.0,-244.0,50.0,228.0,35.0,-4.0,-103.0,-945.0,263.0
-13.0,-248.0,49.0,230.0,32.0,-2.0,-95.0,-952.0,266.0
-15.0,-248.0,51.0,234.0,31.0,-2.0,-98.0,-944.0,264.0
-19.0,-247.0,53.0,236.0,33.0,-2.0,-93.0,-949.0,265.0
-16.0,-248.0,51.0,237.0,34.0,-4.0,-99.0,-944.0,267.0
-16.0,-247.0,53.0,237.0,35.0,-4.0,-95.0,-948.0,271.0
-14.0,-251.0,52.0,238.0,36.0,-6.0,-99.0,-950.0,276.0
-15.0,-249.0,52.0,243.0,37.0,-4.0,-99.0,-951.0,269.0
-15.0,-249.0,52.0,256.0,35.0,-4.0,-100.0,-952.0,275.0
-19.0,-247.0,50.0,271.0,31.0,-2.0,-98.0,-955.0,275.0
-18.0,-248.0,51.0,284.0,30.0,-1.0,-96.0,-943.0,273.0
-17.0,-246.0,47.0,295.0,29.0,-2.0,-94.0,-938.0,271.0
-18.0,-246.0,49.0,301.0,33.0,-6.0,-95.0,-934.0,279.0
-19.0,-244.0,60.0,304.0,37.0,-6.0,-97.0,-936.0,283.0
-20.0,-245.0,56.0,310.0,40.0,-9.0,-100.0,-932.0,283.0
-17.0,-247.0,55.0,316.0,43.0,-10.0,-102.0,-929.0,290.0
-15.0,-243.0,59.0,319.0,50.0,-12.0,-103.0,-925.0,293.0
-16.0,-242.0,59.0,319.0,55.0,-11.0,-99.0,-927.0,297.0
-17.0,-243.0,62.0,318.0,58.0,-10.0,-100.0,-925.0,303.0
-14.0,-244.0,61.0,312.0,61.0,-8.0,-94.0,-925.0,301.0
-17.0,-242.0,57.0,307.0,59.0,-4.0,-101.0,-927.0,307.0
-18.0,-245.0,60.0,310.0,51.0,-3.0,-97.0,-928.0,317.0
-15.0,-243.0,62.0,315.0,44.0,-2.0,-99.0,-930.0,310.0
-16.0,-242.0,63.0,319.0,39.0,-2.0,-96.0,-929.0,311.0
-16.0,-246.0,61.0,318.0,34.0,-3.0,-99.0,-937.0,310.0
-19.0,-243.0,67.0,315.0,30.0,-4.0,-97.0,-937.0,313.0
-20.0,-244.0,59.0,311.0,30.0,-3.0,-100.0,-933.0,313.0
-18.0,-243.0,68.0,311.0,31.0,-4.0,-96.0,-939.0,321.0
-15.0,-243.0,67.0,315.0,31.0,-4.0,-99.0,-923.0,325.0
-19.0,-241.0,64.0,321.0,32.0,-4.0,-96.0,-925.0,326.0
-18.0,-240.0,66.0,322.0,33.0,-3.0,-102.0,-924.0,328.0
-19.0,-240.0,69.0,317.0,36.0,-4.0,-104.0,-913.0,327.0
-18.0,-241.0,67.0,307.0,37.0,-4.0,-100.0,-917.0,332.0
-14.0,-237.0,66.0,295.0,42.0,-6.0,-102.0,-911.0,335.0
-19.0,-238.0,68.0,285.0,46.0,-5.0,-100.0,-910.0,332.0
-18.0,-238.0,67.0,277.0,52.0,-4.0,-101.0,-914.0,333.0
-19.0,-239.0,71.0,271.0,53.0,-2.0,-103.0,-912.0,336.0
-19.0,-237.0,69.0,268.0,54.0,-3.0,-100.0,-905.0,336.0
-13.0,-236.0,67.0,264.0,54.0,-1.0,-94.0,-906.0,337.0
-15.0,-237.0,64.0,258.0,52.0,-3.0,-92.0,-906.0,335.0
-15.0,-238.0,69.0,252.0,50.0,-2.0,-94.0,-911.0,339.0
-17.0,-239.0,69.0,252.0,46.0,-3.0,-93.0,-909.0,340.0
-14.0,-242.0,70.0,252.0,44.0,-3.0,-92.0,-910.0,336.0
-14.0,-239.0,71.0,253.0,42.0,-4.0,-89.0,-916.0,343.0
-15.0,-239.0,68.0,258.0,42.0,-1.0,-90.0,-926.0,342.0
-13.0,-241.0,70.0,262.0,43.0,-3.0,-96.0,-912.0,344.0
-14.0,-241.0,65.0,266.0,47.0,0.0,-91.0,-922.0,344.0
-13.0,-242.0,70.0,263.0,51.0,-5.0,-101.0,-919.0,344.0
-16.0,-243.0,68.0,259.0,56.0,-5.0,-96.0,-922.0,342.0
-13.0,-239.0,71.0,259.0,59.0,-8.0,-90.0,-918.0,335.0
-15.0,-238.0,67.0,262.0,61.0,-9.0,-93.0,-920.0,339.0
-17.0,-241.0,66.0,271.0,58.0,-12.0,-95.0,-915.0,338.0
-16.0,-239.0,69.0,282.0,54.0,-12.0,-95.0,-918.0,344.0
-17.0,-240.0,72.0,293.0,48.0,-14.0,-96.0,-914.0,341.0
-17.0,-240.0,71.0,304.0,46.0,-17.0,-90.0,-917.0,339.0
-13.0,-241.0,70.0,315.0,42.0,-19.0,-92.0,-915.0,348.0
-12.0,-238.0,71.0,327.0,40.0,-20.0,-91.0,-912.0,350.0
-15.0,-237.0,72.0,339.0,39.0,-24.0,-87.0,-911.0,357.0
-16.0,-233.0,72.0,349.0,38.0,-26.0,-86.0,-905.0,363.0
-12.0,-235.0,76.0,351.0,39.0,-26.0,-85.0,-899.0,362.0
-13.0,-232.0,73.0,345.0,41.0,-24.0,-81.0,-896.0,363.0
-16.0,-230.0,78.0,332.0,47.0,-26.0,-88.0,-893.0,366.0
-13.0,-230.0,74.0,317.0,53.0,-23.0,-82.0,-897.0,368.0
-12.0,-234.0,74.0,304.0,59.0,-24.0,-77.0,-889.0,381.0
-13.0,-230.0,75.0,289.0,62.0,-20.0,-74.0,-891.0,370.0
-12.0,-232.0,75.0,280.0,62.0,-24.0,-78.0,-894.0,377.0
-12.0,-235.0,77.0,274.0,61.0,-23.0,-75.0,-899.0,372.0
-13.0,-236.0,79.0,273.0,62.0,-27.0,-80.0,-898.0,368.0
-14.0,-233.0,76.0,278.0,69.0,-24.0,-90.0,-897.0,366.0
-16.0,-237.0,75.0,281.0,77.0,-25.0,-83.0,-906.0,362.0
-15.0,-239.0,74.0,288.0,85.0,-23.0,-91.0,-907.0,366.0
-15.0,-239.0,73.0,302.0,90.0,-25.0,-86.0,-908.0,363.0
-12.0,-244.0,75.0,316.0,87.0,-24.0,-90.0,-922.0,362.0
-16.0,-242.0,72.0,332.0,81.0,-27.0,-91.0,-921.0,365.0
-14.0,-241.0,75.0,348.0,73.0,-25.0,-94.0,-918.0,375.0
-16.0,-242.0,77.0,365.0,68.0,-32.0,-97.0,-916.0,381.0
-14.0,-242.0,81.0,375.0,61.0,-31.0,-94.0,-919.0,389.0
-20.0,-239.0,80.0,391.0,57.0,-34.0,-95.0,-908.0,390.0
-18.0,-235.0,77.0,406.0,58.0,-32.0,-97.0,-902.0,394.0
-16.0,-234.0,79.0,412.0,55.0,-33.0,-100.0,-894.0,394.0
-16.0,-229.0,83.0,413.0,53.0,-32.0,-98.0,-893.0,400.0
-19.0,-228.0,84.0,406.0,52.0,-33.0,-98.0,-877.0,404.0
-17.0,-230.0,85.0,403.0,55.0,-30.0,-97.0,-879.0,410.0
-17.0,-230.0,87.0,399.0,57.0,-31.0,-100.0,-877.0,412.0
-19.0,-229.0,89.0,395.0,56.0,-28.0,-102.0,-882.0,413.0
-20.0,-227.0,88.0,389.0,57.0,-28.0,-96.0,-888.0,418.0
-18.0,-231.0,90.0,383.0,62.0,-25.0,-101.0,-881.0,420.0
-18.0,-228.0,87.0,378.0,65.0,-24.0,-96.0,-886.0,425.0
-18.0,-230.0,87.0,370.0,64.0,-21.0,-97.0,-887.0,427.0
-18.0,-232.0,90.0,366.0,61.0,-23.0,-93.0,-895.0,428.0
-17.0,-235.0,90.0,372.0,60.0,-20.0,-93.0,-889.0,421.0
-14.0,-232.0,89.0,380.0,59.0,-25.0,-89.0,-898.0,430.0
-13.0,-233.0,90.0,388.0,52.0,-22.0,-87.0,-895.0,429.0
-12.0,-234.0,90.0,395.0,47.0,-25.0,-84.0,-893.0,431.0
-12.0,-234.0,93.0,398.0,44.0,-25.0,-85.0,-886.0,434.0
-13.0,-232.0,93.0,397.0,39.0,-27.0,-86.0,-884.0,437.0
-11.0,-232.0,95.0,395.0,37.0,-26.0,-76.0,-887.0,439.0
-12.0,-232.0,93.0,398.0,40.0,-29.0,-82.0,-889.0,442.0
-12.0,-231.0,91.0,405.0,49.0,-28.0,-77.0,-885.0,441.0
-12.0,-230.0,92.0,412.0,56.0,-30.0,-73.0,-882.0,444.0
-12.0,-230.0,96.0,418.0,61.0,-28.0,-73.0,-875.0,449.0
-12.0,-226.0,97.0,420.0,63.0,-31.0,-76.0,-871.0,449.0
-12.0,-225.0,95.0,421.0,64.0,-30.0,-70.0,-868.0,452.0
-10.0,-224.0,98.0,426.0,64.0,-32.0,-62.0,-865.0,453.0
-9.0,-225.0,95.0,425.0,65.0,-30.0,-60.0,-858.0,455.0
-7.0,-224.0,97.0,421.0,64.0,-34.0,-56.0,-855.0,457.0
-9.0,-220.0,97.0,424.0,68.0,-31.0,-60.0,-847.0,458.0
-11.0,-217.0,97.0,423.0,70.0,-33.0,-61.0,-850.0,459.0
-8.0,-222.0,96.0,423.0,75.0,-30.0,-61.0,-845.0,466.0
-11.0,-221.0,100.0,424.0,78.0,-32.0,-60.0,-844.0,461.0
-11.0,-218.0,97.0,424.0,80.0,-29.0,-66.0,-847.0,469.0
-11.0,-218.0,101.0,424.0,79.0,-32.0,-68.0,-848.0,476.0
-11.0,-220.0,96.0,420.0,75.0,-30.0,-70.0,-849.0,468.0
-12.0,-221.0,102.0,419.0,72.0,-35.0,-80.0,-854.0,474.0
-12.0,-224.0,101.0,430.0,73.0,-33.0,-86.0,-849.0,472.0
-12.0,-222.0,104.0,437.0,71.0,-36.0,-85.0,-853.0,479.0
-15.0,-221.0,102.0,446.0,65.0,-36.0,-90.0,-858.0,485.0
-13.0,-227.0,104.0,454.0,61.0,-39.0,-86.0,-851.0,482.0
-16.0,-221.0,106.0,463.0,56.0,-40.0,-92.0,-849.0,482.0
-17.0,-218.0,102.0,468.0,50.0,-43.0,-90.0,-844.0,489.0
-14.0,-216.0,106.0,468.0,49.0,-44.0,-92.0,-841.0,491.0
-17.0,-215.0,103.0,461.0,45.0,-47.0,-94.0,-832.0,501.0
-16.0,-215.0,107.0,461.0,42.0,-49.0,-83.0,-827.0,498.0
-17.0,-214.0,110.0,460.0,41.0,-53.0,-93.0,-830.0,505.0
-16.0,-216.0,113.0,458.0,38.0,-52.0,-83.0,-829.0,513.0
-14.0,-214.0,115.0,458.0,35.0,-55.0,-90.0,-832.0,521.0
-17.0,-214.0,113.0,456.0,34.0,-52.0,-91.0,-829.0,519.0
-16.0,-217.0,110.0,457.0,36.0,-53.0,-94.0,-832.0,522.0
-21.0,-218.0,113.0,458.0,36.0,-48.0,-99.0,-840.0,524.0
-16.0,-219.0,114.0,462.0,36.0,-48.0,-93.0,-842.0,524.0
-16.0,-218.0,128.0,462.0,36.0,-44.0,-96.0,-841.0,526.0
-19.0,-210.0,112.0,469.0,30.0,-47.0,-98.0,-840.0,530.0
-23.0,-211.0,105.0,479.0,25.0,-43.0,-94.0,-838.0,533.0
-24.0,-216.0,110.0,486.0,18.0,-46.0,-88.0,-839.0,534.0
-14.0,-218.0,108.0,491.0,7.0,-45.0,-93.0,-832.0,539.0
-29.0,-222.0,111.0,496.0,-5.0,-46.0,-79.0,-834.0,550.0
-26.0,-211.0,122.0,498.0,-11.0,-43.0,-79.0,-829.0,556.0
-12.0,-213.0,125.0,499.0,-19.0,-45.0,-85.0,-827.0,568.0
-12.0,-213.0,127.0,501.0,-23.0,-43.0,-74.0,-824.0,568.0
-14.0,-214.0,127.0,497.0,-24.0,-42.0,-79.0,-818.0,573.0
-12.0,-212.0,129.0,496.0,-22.0,-43.0,-81.0,-823.0,579.0
-12.0,-209.0,130.0,494.0,-17.0,-42.0,-81.0,-820.0,582.0
-11.0,-210.0,124.0,489.0,-17.0,-39.0,-79.0,-821.0,581.0
-12.0,-212.0,131.0,485.0,-17.0,-43.0,-77.0,-811.0,576.0
-12.0,-213.0,126.0,490.0,-15.0,-43.0,-73.0,-816.0,574.0
-12.0,-211.0,127.0,500.0,-13.0,-45.0,-74.0,-820.0,572.0
-10.0,-212.0,126.0,508.0,-17.0,-40.0,-67.0,-817.0,572.0
-10.0,-209.0,124.0,514.0,-20.0,-43.0,-63.0,-815.0,568.0
-6.0,-211.0,126.0,518.0,-23.0,-43.0,-59.0,-807.0,581.0
-9.0,-206.0,130.0,522.0,-26.0,-46.0,-57.0,-793.0,579.0
-9.0,-205.0,132.0,525.0,-25.0,-45.0,-57.0,-787.0,581.0
-10.0,-201.0,132.0,527.0,-25.0,-45.0,-55.0,-776.0,585.0
-9.0,-199.0,127.0,527.0,-21.0,-43.0,-58.0,-769.0,583.0
-11.0,-198.0,130.0,522.0,-15.0,-45.0,-53.0,-763.0,587.0
-11.0,-196.0,135.0,517.0,-8.0,-43.0,-50.0,-757.0,591.0
-8.0,-195.0,133.0,509.0,-6.0,-46.0,-46.0,-756.0,591.0
-10.0,-197.0,133.0,500.0,-3.0,-46.0,-47.0,-748.0,599.0
-9.0,-196.0,134.0,492.0,0.0,-49.0,-53.0,-746.0,604.0
-10.0,-196.0,132.0,487.0,3.0,-50.0,-54.0,-755.0,596.0
-9.0,-197.0,131.0,485.0,6.0,-54.0,-58.0,-757.0,592.0
-10.0,-197.0,132.0,487.0,10.0,-55.0,-65.0,-757.0,593.0
-12.0,-197.0,133.0,488.0,12.0,-59.0,-60.0,-756.0,598.0
-7.0,-198.0,134.0,488.0,9.0,-58.0,-54.0,-752.0,598.0
-9.0,-198.0,135.0,491.0,7.0,-61.0,-54.0,-761.0,604.0
-8.0,-201.0,138.0,492.0,3.0,-60.0,-63.0,-761.0,611.0
-12.0,-197.0,136.0,494.0,-2.0,-63.0,-65.0,-757.0,607.0
-11.0,-198.0,132.0,501.0,0.0,-60.0,-64.0,-754.0,612.0
-11.0,-196.0,137.0,509.0,1.0,-58.0,-61.0,-759.0,619.0
-9.0,-198.0,134.0,515.0,3.0,-56.0,-60.0,-752.0,621.0
-12.0,-196.0,139.0,518.0,3.0,-58.0,-65.0,-747.0,623.0
-11.0,-196.0,136.0,522.0,7.0,-56.0,-66.0,-744.0,631.0
-12.0,-195.0,137.0,522.0,10.0,-57.0,-71.0,-746.0,625.0
-12.0,-193.0,142.0,528.0,14.0,-56.0,-68.0,-744.0,635.0
-9.0,-194.0,140.0,534.0,18.0,-54.0,-57.0,-745.0,633.0
-9.0,-196.0,145.0,537.0,19.0,-52.0,-61.0,-745.0,648.0
-8.0,-196.0,143.0,542.0,14.0,-52.0,-56.0,-743.0,643.0
-9.0,-196.0,142.0,548.0,12.0,-47.0,-54.0,-747.0,643.0
-12.0,-196.0,141.0,557.0,9.0,-44.0,-57.0,-750.0,643.0
-10.0,-200.0,141.0,565.0,7.0,-40.0,-52.0,-754.0,647.0
-9.0,-196.0,144.0,574.0,5.0,-40.0,-57.0,-756.0,650.0
-10.0,-196.0,144.0,578.0,6.0,-37.0,-62.0,-751.0,655.0
-11.0,-197.0,147.0,583.0,5.0,-36.0,-62.0,-747.0,655.0
-9.0,-193.0,141.0,588.0,7.0,-32.0,-65.0,-738.0,653.0
-11.0,-194.0,144.0,589.0,10.0,-34.0,-69.0,-735.0,662.0
-12.0,-191.0,145.0,596.0,8.0,-33.0,-68.0,-729.0,668.0
-12.0,-192.0,149.0,606.0,5.0,-33.0,-71.0,-726.0,672.0
-11.0,-187.0,148.0,613.0,-1.0,-34.0,-66.0,-721.0,678.0
-11.0,-188.0,154.0,617.0,-8.0,-36.0,-65.0,-714.0,678.0
-9.0,-188.0,152.0,622.0,-16.0,-38.0,-57.0,-716.0,686.0
-8.0,-188.0,156.0,627.0,-23.0,-41.0,-48.0,-718.0,692.0
-7.0,-189.0,154.0,633.0,-31.0,-42.0,-37.0,-717.0,701.0
0.0,-188.0,158.0,638.0,-42.0,-43.0,-24.0,-716.0,701.0
0.0,-190.0,156.0,639.0,-50.0,-43.0,-22.0,-718.0,700.0
-1.0,-186.0,155.0,642.0,-55.0,-41.0,-18.0,-720.0,698.0
2.0,-187.0,155.0,648.0,-51.0,-40.0,-15.0,-723.0,697.0
0.0,-189.0,154.0,660.0,-38.0,-40.0,-15.0,-718.0,699.0
2.0,-187.0,155.0,667.0,-21.0,-40.0,-14.0,-709.0,695.0
2.0,-185.0,154.0,672.0,-1.0,-47.0,-17.0,-706.0,694.0
-2.0,-182.0,154.0,673.0,13.0,-56.0,-21.0,-694.0,689.0
-1.0,-178.0,147.0,680.0,23.0,-61.0,-20.0,-684.0,684.0
0.0,-179.0,152.0,689.0,26.0,-61.0,-20.0,-678.0,682.0
2.0,-172.0,155.0,698.0,26.0,-63.0,-26.0,-669.0,678.0
-2.0,-171.0,152.0,703.0,21.0,-60.0,-24.0,-656.0,683.0
-5.0,-171.0,152.0,701.0,10.0,-63.0,-22.0,-650.0,677.0
-2.0,-167.0,152.0,700.0,9.0,-65.0,-23.0,-650.0,676.0
-1.0,-167.0,151.0,703.0,10.0,-64.0,-26.0,-642.0,673.0
-1.0,-168.0,153.0,713.0,12.0,-61.0,-26.0,-642.0,679.0
-1.0,-164.0,150.0,721.0,13.0,-57.0,-19.0,-646.0,678.0
-2.0,-166.0,154.0,726.0,10.0,-56.0,-25.0,-638.0,675.0
-5.0,-165.0,148.0,732.0,9.0,-54.0,-24.0,-636.0,674.0
-3.0,-169.0,150.0,739.0,8.0,-55.0,-28.0,-645.0,677.0
-3.0,-169.0,157.0,742.0,10.0,-58.0,-25.0,-652.0,684.0
-3.0,-170.0,154.0,743.0,15.0,-62.0,-34.0,-645.0,691.0
-6.0,-169.0,159.0,746.0,20.0,-61.0,-39.0,-643.0,703.0
-2.0,-167.0,155.0,748.0,32.0,-66.0,-35.0,-645.0,705.0
-2.0,-167.0,159.0,749.0,46.0,-66.0,-42.0,-640.0,719.0
-7.0,-166.0,162.0,751.0,51.0,-66.0,-40.0,-647.0,726.0
-7.0,-168.0,164.0,753.0,47.0,-65.0,-45.0,-648.0,726.0
-7.0,-170.0,163.0,754.0,38.0,-63.0,-38.0,-651.0,722.0
-5.0,-171.0,160.0,758.0,33.0,-60.0,-41.0,-648.0,713.0
-9.0,-172.0,159.0,762.0,28.0,-59.0,-47.0,-647.0,712.0
-8.0,-170.0,160.0,770.0,23.0,-56.0,-49.0,-651.0,715.0
-10.0,-169.0,167.0,777.0,18.0,-58.0,-48.0,-655.0,717.0
-8.0,-170.0,160.0,786.0,10.0,-58.0,-51.0,-650.0,723.0
-9.0,-170.0,159.0,795.0,-2.0,-64.0,-38.0,-657.0,714.0
-8.0,-166.0,160.0,804.0,-7.0,-67.0,-38.0,-651.0,712.0
-6.0,-167.0,157.0,820.0,-7.0,-71.0,-34.0,-639.0,708.0
-6.0,-165.0,155.0,833.0,-1.0,-68.0,-36.0,-637.0,704.0
-3.0,-164.0,160.0,843.0,10.0,-66.0,-25.0,-636.0,710.0
-2.0,-163.0,160.0,854.0,17.0,-66.0,-21.0,-635.0,718.0
-3.0,-162.0,167.0,867.0,20.0,-66.0,-22.0,-631.0,726.0
1.0,-161.0,169.0,879.0,22.0,-61.0,-20.0,-629.0,745.0
-3.0,-163.0,172.0,889.0,23.0,-62.0,-25.0,-626.0,755.0
-4.0,-164.0,178.0,892.0,33.0,-61.0,-30.0,-620.0,771.0
-3.0,-166.0,179.0,898.0,35.0,-65.0,-35.0,-629.0,789.0
-9.0,-165.0,183.0,911.0,29.0,-67.0,-36.0,-633.0,798.0
-11.0,-164.0,181.0,928.0,17.0,-68.0,-50.0,-635.0,792.0
-11.0,-168.0,182.0,944.0,4.0,-66.0,-59.0,-639.0,795.0
-11.0,-166.0,180.0,959.0,-2.0,-69.0,-56.0,-638.0,769.0
-11.0,-167.0,175.0,968.0,-1.0,-69.0,-55.0,-632.0,776.0
-11.0,-161.0,170.0,988.0,-6.0,-76.0,-57.0,-628.0,760.0
-10.0,-158.0,167.0,1002.0,-11.0,-76.0,-58.0,-609.0,731.0
-11.0,-160.0,167.0,1011.0,-21.0,-81.0,-60.0,-605.0,734.0
-12.0,-155.0,160.0,1043.0,-43.0,-82.0,-67.0,-592.0,715.0
-12.0,-150.0,159.0,1080.0,-60.0,-80.0,-61.0,-577.0,711.0
-12.0,-147.0,152.0,1111.0,-81.0,-82.0,-60.0,-560.0,706.0
-10.0,-145.0,158.0,1137.0,-97.0,-87.0,-63.0,-551.0,707.0
-12.0,-140.0,163.0,1164.0,-112.0,-93.0,-51.0,-535.0,732.0
-5.0,-137.0,167.0,1202.0,-130.0,-100.0,-48.0,-519.0,731.0
-4.0,-134.0,167.0,1230.0,-139.0,-98.0,-34.0,-499.0,754.0
-2.0,-125.0,173.0,1245.0,-139.0,-101.0,-19.0,-479.0,762.0
0.0,-121.0,175.0,1243.0,-134.0,-103.0,-7.0,-462.0,792.0
4.0,-121.0,180.0,1237.0,-128.0,-112.0,1.0,-452.0,804.0
4.0,-116.0,180.0,1248.0,-133.0,-118.0,9.0,-440.0,797.0
7.0,-111.0,172.0,1261.0,-134.0,-124.0,14.0,-428.0,761.0
6.0,-111.0,174.0,1267.0,-129.0,-124.0,14.0,-426.0,762.0
9.0,-113.0,176.0,1273.0,-118.0,-133.0,20.0,-425.0,772.0
13.0,-112.0,169.0,1297.0,-115.0,-133.0,22.0,-422.0,754.0
12.0,-112.0,161.0,1326.0,-113.0,-130.0,32.0,-416.0,733.0
16.0,-106.0,157.0,1350.0,-105.0,-117.0,46.0,-410.0,721.0
19.0,-107.0,160.0,1375.0,-93.0,-112.0,45.0,-408.0,714.0
12.0,-104.0,157.0,1403.0,-83.0,-106.0,38.0,-399.0,710.0
10.0,-103.0,162.0,1433.0,-78.0,-104.0,24.0,-387.0,715.0
8.0,-97.0,159.0,1468.0,-84.0,-101.0,18.0,-373.0,708.0
6.0,-98.0,156.0,1495.0,-88.0,-99.0,10.0,-362.0,712.0
7.0,-95.0,161.0,1510.0,-90.0,-100.0,5.0,-352.0,722.0
6.0,-93.0,164.0,1534.0,-92.0,-105.0,2.0,-347.0,737.0
5.0,-86.0,165.0,1561.0,-96.0,-103.0,7.0,-336.0,726.0
4.0,-84.0,171.0,1576.0,-89.0,-107.0,12.0,-328.0,746.0
11.0,-86.0,167.0,1602.0,-85.0,-111.0,22.0,-319.0,746.0
10.0,-80.0,163.0,1629.0,-81.0,-118.0,26.0,-302.0,731.0
13.0,-74.0,159.0,1643.0,-68.0,-116.0,26.0,-291.0,733.0
9.0,-76.0,169.0,1659.0,-51.0,-120.0,31.0,-289.0,731.0
7.0,-73.0,164.0,1690.0,-42.0,-124.0,20.0,-280.0,738.0
10.0,-68.0,161.0,1723.0,-35.0,-126.0,21.0,-263.0,713.0
10.0,-69.0,166.0,1752.0,-24.0,-120.0,26.0,-244.0,726.0
11.0,-64.0,154.0,1790.0,-19.0,-122.0,35.0,-230.0,693.0
15.0,-58.0,154.0,1809.0,-11.0,-117.0,34.0,-209.0,690.0
16.0,-50.0,154.0,1820.0,2.0,-119.0,29.0,-189.0,696.0
10.0,-48.0,160.0,1823.0,15.0,-117.0,28.0,-183.0,701.0
12.0,-47.0,160.0,1834.0,9.0,-124.0,30.0,-178.0,718.0
8.0,-46.0,147.0,1872.0,-8.0,-122.0,30.0,-165.0,685.0
5.0,-43.0,149.0,1888.0,-14.0,-120.0,22.0,-157.0,678.0
8.0,-39.0,152.0,1901.0,-21.0,-119.0,18.0,-148.0,676.0
5.0,-37.0,150.0,1915.0,-25.0,-126.0,17.0,-126.0,679.0
6.0,-27.0,148.0,1933.0,-26.0,-130.0,12.0,-112.0,661.0
5.0,-25.0,137.0,1952.0,-23.0,-136.0,9.0,-91.0,641.0
4.0,-13.0,135.0,1977.0,-18.0,-136.0,10.0,-54.0,610.0
4.0,-4.0,128.0,1996.0,-17.0,-137.0,6.0,-31.0,591.0
3.0,-4.0,126.0,2003.0,-17.0,-133.0,7.0,-3.0,581.0
3.0,5.0,121.0,2006.0,-35.0,-135.0,10.0,21.0,555.0
7.0,14.0,114.0,1997.0,-57.0,-133.0,23.0,50.0,514.0
11.0,16.0,95.0,1983.0,-68.0,-133.0,37.0,67.0,462.0
14.0,19.0,85.0,1970.0,-72.0,-129.0,44.0,75.0,425.0
15.0,21.0,73.0,1961.0,-67.0,-129.0,51.0,82.0,382.0
15.0,23.0,66.0,1945.0,-58.0,-121.0,53.0,85.0,345.0
15.0,27.0,62.0,1925.0,-46.0,-120.0,51.0,90.0,314.0
13.0,22.0,52.0,1905.0,-40.0,-114.0,51.0,89.0,280.0
11.0,31.0,42.0,1884.0,-32.0,-119.0,33.0,97.0,241.0
11.0,32.0,33.0,1852.0,-21.0,-120.0,38.0,108.0,195.0
15.0,35.0,18.0,1833.0,-9.0,-131.0,38.0,138.0,144.0
13.0,45.0,6.0,1815.0,9.0,-132.0,37.0,165.0,86.0
12.0,51.0,-13.0,1803.0,31.0,-128.0,36.0,188.0,32.0
8.0,59.0,-29.0,1795.0,58.0,-112.0,32.0,206.0,-28.0
7.0,60.0,-35.0,1792.0,84.0,-96.0,23.0,223.0,-68.0
12.0,61.0,-42.0,1787.0,103.0,-73.0,37.0,231.0,-93.0
6.0,66.0,-43.0,1762.0,128.0,-74.0,14.0,244.0,-96.0
-3.0,72.0,-39.0,1720.0,137.0,-83.0,-6.0,264.0,-91.0
-6.0,78.0,-37.0,1641.0,130.0,-105.0,-24.0,278.0,-68.0
-11.0,77.0,-27.0,1555.0,116.0,-121.0,-41.0,285.0,-33.0
-12.0,73.0,-26.0,1470.0,94.0,-134.0,-60.0,271.0,-13.0
-13.0,65.0,-27.0,1393.0,64.0,-127.0,-63.0,243.0,-25.0
-14.0,53.0,-24.0,1316.0,21.0,-114.0,-65.0,198.0,-27.0
-9.0,33.0,-22.0,1256.0,-32.0,-92.0,-43.0,113.0,-22.0
-9.0,16.0,-22.0,1211.0,-89.0,-88.0,-29.0,51.0,-6.0
-18.0,-3.0,-12.0,1169.0,-147.0,-91.0,-61.0,-12.0,24.0
-56.0,-13.0,-4.0,1143.0,-243.0,-113.0,-170.0,-40.0,60.0
-82.0,-9.0,24.0,1185.0,-544.0,-164.0,-262.0,-2.0,136.0
20.0,8.0,111.0,1362.0,-886.0,-292.0,76.0,105.0,549.0
91.0,67.0,201.0,1577.0,-700.0,-551.0,248.0,285.0,905.0
25.0,166.0,328.0,1641.0,-177.0,-775.0,96.0,600.0,1348.0
46.0,269.0,485.0,1433.0,22.0,-848.0,173.0,945.0,1894.0
59.0,378.0,661.0,1052.0,4.0,-866.0,283.0,1341.0,2593.0
-44.0,497.0,847.0,647.0,-44.0,-796.0,-22.0,1788.0,3242.0
35.0,596.0,1058.0,177.0,-302.0,-599.0,48.0,2138.0,3994.0
69.0,704.0,1236.0,-399.0,-355.0,-469.0,255.0,2778.0,5054.0
24.0,877.0,1336.0,-1117.0,59.0,-554.0,131.0,3432.0,5421.0
150.0,1098.0,1469.0,-1977.0,528.0,-751.0,570.0,4197.0,5968.0
274.0,1246.0,1538.0,-2912.0,1246.0,-798.0,1063.0,4619.0,6178.0
258.0,1067.0,1411.0,-4302.0,1938.0,-371.0,1135.0,4029.0,5732.0
127.0,691.0,1120.0,-5401.0,1945.0,383.0,714.0,2817.0,4644.0
8.0,392.0,729.0,-5568.0,1366.0,1088.0,231.0,1779.0,3252.0
-63.0,130.0,329.0,-4981.0,642.0,1535.0,-89.0,818.0,1730.0
-122.0,-26.0,76.0,-4157.0,-88.0,1587.0,-370.0,-15.0,391.0
-131.0,-237.0,-237.0,-3533.0,-791.0,1418.0,-493.0,-878.0,-797.0
-115.0,-441.0,-351.0,-3338.0,-1255.0,1194.0,-463.0,-1649.0,-1378.0
8.0,-637.0,-289.0,-3210.0,-1453.0,919.0,-115.0,-2293.0,-1136.0
54.0,-696.0,-171.0,-2782.0,-1210.0,471.0,18.0,-2579.0,-560.0
35.0,-829.0,104.0,-2086.0,-491.0,99.0,-62.0,-3002.0,445.0
22.0,-893.0,361.0,-1118.0,409.0,-65.0,-114.0,-3242.0,1406.0
-38.0,-870.0,533.0,-85.0,1192.0,-76.0,-216.0,-3141.0,2262.0
-39.0,-708.0,725.0,821.0,1511.0,-3.0,-144.0,-2519.0,2957.0
-34.0,-377.0,764.0,1505.0,1411.0,7.0,-104.0,-1398.0,3098.0
-32.0,-122.0,761.0,1813.0,1162.0,-15.0,-82.0,-483.0,3065.0
-31.0,87.0,732.0,1850.0,807.0,-134.0,-36.0,312.0,2995.0
0.0,276.0,673.0,1947.0,304.0,-322.0,67.0,1040.0,2794.0
7.0,466.0,567.0,2306.0,-21.0,-571.0,107.0,1785.0,2443.0
-22.0,588.0,426.0,2908.0,-260.0,-740.0,-16.0,2361.0,1809.0
-55.0,649.0,229.0,3439.0,-498.0,-646.0,-129.0,2492.0,1047.0
-37.0,616.0,78.0,3580.0,-733.0,-301.0,-116.0,2319.0,489.0
13.0,499.0,-65.0,3230.0,-821.0,104.0,9.0,1830.0,-173.0
68.0,365.0,-72.0,2306.0,-662.0,315.0,228.0,1203.0,-207.0
70.0,232.0,-8.0,1107.0,-384.0,280.0,237.0,749.0,21.0
53.0,106.0,57.0,2.0,-80.0,100.0,169.0,352.0,276.0
38.0,17.0,111.0,-953.0,289.0,-148.0,100.0,-13.0,528.0
27.0,-74.0,164.0,-1387.0,557.0,-321.0,67.0,-303.0,731.0
9.0,-132.0,211.0,-1523.0,776.0,-433.0,1.0,-463.0,924.0
20.0,-238.0,288.0,-1284.0,892.0,-415.0,56.0,-815.0,1212.0
29.0,-310.0,283.0,-744.0,865.0,-425.0,111.0,-1072.0,1192.0
24.0,-267.0,233.0,-120.0,747.0,-499.0,78.0,-988.0,1053.0
16.0,-172.0,162.0,435.0,604.0,-507.0,60.0,-715.0,784.0
9.0,-110.0,131.0,740.0,516.0,-405.0,19.0,-438.0,593.0
5.0,-43.0,117.0,812.0,487.0,-264.0,10.0,-201.0,549.0
8.0,16.0,117.0,790.0,458.0,-163.0,22.0,80.0,540.0
19.0,72.0,119.0,714.0,431.0,-134.0,68.0,288.0,538.0
29.0,121.0,123.0,614.0,414.0,-121.0,116.0,430.0,541.0
37.0,150.0,122.0,476.0,391.0,-120.0,156.0,543.0,540.0
44.0,174.0,120.0,318.0,342.0,-126.0,187.0,625.0,531.0
46.0,174.0,113.0,160.0,270.0,-142.0,194.0,659.0,525.0
44.0,176.0,112.0,20.0,193.0,-149.0,192.0,636.0,513.0
43.0,162.0,112.0,-109.0,131.0,-143.0,164.0,594.0,514.0
34.0,152.0,109.0,-236.0,90.0,-124.0,138.0,553.0,501.0
26.0,139.0,99.0,-376.0,95.0,-96.0,98.0,497.0,491.0
18.0,124.0,105.0,-582.0,137.0,-78.0,63.0,454.0,490.0
5.0,114.0,117.0,-776.0,202.0,-70.0,22.0,405.0,526.0
-8.0,101.0,134.0,-970.0,271.0,-62.0,-19.0,368.0,592.0
-11.0,87.0,141.0,-1147.0,335.0,-52.0,-53.0,305.0,656.0
-14.0,70.0,166.0,-1301.0,388.0,-43.0,-70.0,261.0,736.0
-16.0,60.0,188.0,-1428.0,421.0,-41.0,-83.0,221.0,821.0
-23.0,53.0,209.0,-1519.0,432.0,-46.0,-87.0,200.0,910.0
-19.0,47.0,229.0,-1567.0,423.0,-47.0,-77.0,191.0,984.0
-20.0,49.0,245.0,-1575.0,401.0,-53.0,-77.0,194.0,1039.0
-27.0,51.0,255.0,-1537.0,350.0,-67.0,-93.0,214.0,1076.0
-27.0,54.0,260.0,-1488.0,288.0,-84.0,-101.0,229.0,1106.0
-26.0,62.0,265.0,-1438.0,220.0,-109.0,-99.0,255.0,1128.0
-24.0,68.0,270.0,-1387.0,150.0,-117.0,-82.0,277.0,1156.0
-20.0,65.0,269.0,-1331.0,91.0,-104.0,-86.0,288.0,1154.0
-32.0,72.0,271.0,-1282.0,45.0,-88.0,-107.0,293.0,1161.0
-31.0,65.0,280.0,-1243.0,9.0,-68.0,-124.0,279.0,1195.0
-34.0,57.0,287.0,-1227.0,-13.0,-48.0,-133.0,244.0,1231.0
-31.0,49.0,301.0,-1233.0,-20.0,-19.0,-133.0,201.0,1284.0
-32.0,32.0,313.0,-1248.0,-1.0,6.0,-131.0,139.0,1336.0
-34.0,16.0,329.0,-1255.0,45.0,27.0,-147.0,75.0,1379.0
-30.0,-5.0,337.0,-1254.0,101.0,50.0,-133.0,-8.0,1422.0
-26.0,-31.0,348.0,-1234.0,155.0,73.0,-115.0,-91.0,1449.0
-15.0,-54.0,355.0,-1189.0,188.0,87.0,-79.0,-169.0,1473.0
-11.0,-71.0,358.0,-1122.0,206.0,98.0,-52.0,-228.0,1499.0
-12.0,-89.0,362.0,-1020.0,197.0,111.0,-42.0,-291.0,1526.0
-10.0,-99.0,364.0,-887.0,162.0,125.0,-37.0,-330.0,1525.0
-7.0,-103.0,360.0,-728.0,120.0,144.0,-27.0,-354.0,1517.0
-1.0,-104.0,353.0,-518.0,81.0,161.0,-17.0,-359.0,1486.0
0.0,-102.0,343.0,-351.0,59.0,169.0,-11.0,-353.0,1446.0
-3.0,-94.0,333.0,-206.0,50.0,166.0,-14.0,-346.0,1406.0
1.0,-85.0,321.0,-94.0,56.0,157.0,-17.0,-315.0,1358.0
-3.0,-72.0,303.0,-15.0,75.0,145.0,-22.0,-275.0,1314.0
-6.0,-65.0,300.0,33.0,101.0,128.0,-22.0,-232.0,1253.0
-4.0,-51.0,284.0,62.0,131.0,114.0,-25.0,-176.0,1206.0
-4.0,-35.0,267.0,73.0,162.0,98.0,-22.0,-138.0,1138.0
1.0,-23.0,247.0,62.0,192.0,93.0,-9.0,-87.0,1064.0
3.0,-12.0,227.0,30.0,234.0,103.0,9.0,-58.0,1000.0
15.0,-4.0,210.0,-9.0,269.0,115.0,47.0,-32.0,925.0
22.0,2.0,187.0,-65.0,309.0,123.0,59.0,-12.0,847.0
22.0,-2.0,179.0,-142.0,345.0,134.0,64.0,-15.0,785.0
18.0,-3.0,157.0,-229.0,353.0,144.0,80.0,-34.0,700.0
20.0,-12.0,157.0,-353.0,261.0,145.0,98.0,-54.0,708.0
19.0,-19.0,152.0,-449.0,144.0,144.0,94.0,-74.0,688.0
13.0,-22.0,141.0,-498.0,-43.0,149.0,96.0,-98.0,637.0
19.0,-22.0,131.0,-570.0,-409.0,136.0,107.0,-123.0,588.0
4.0,-29.0,137.0,-700.0,-799.0,116.0,30.0,-130.0,613.0
-15.0,-35.0,149.0,-874.0,-913.0,124.0,-104.0,-143.0,699.0
-42.0,-44.0,181.0,-968.0,-837.0,174.0,-217.0,-171.0,809.0
-51.0,-62.0,206.0,-982.0,-646.0,235.0,-252.0,-213.0,891.0
-54.0,-71.0,223.0,-925.0,-432.0,279.0,-247.0,-252.0,964.0
-45.0,-75.0,221.0,-824.0,-254.0,288.0,-208.0,-271.0,971.0
-34.0,-70.0,217.0,-752.0,-168.0,266.0,-145.0,-264.0,954.0
-23.0,-53.0,213.0,-734.0,-147.0,243.0,-126.0,-208.0,933.0
-13.0,-48.0,215.0,-754.0,-114.0,258.0,-86.0,-182.0,936.0
-4.0,-41.0,209.0,-789.0,-38.0,278.0,-25.0,-164.0,919.0
11.0,-37.0,201.0,-887.0,23.0,263.0,23.0,-140.0,878.0
14.0,-28.0,199.0,-1004.0,79.0,196.0,16.0,-116.0,860.0
4.0,-32.0,191.0,-1067.0,167.0,152.0,-5.0,-116.0,845.0
-3.0,-37.0,190.0,-1048.0,249.0,147.0,-27.0,-121.0,833.0
-10.0,-51.0,196.0,-975.0,303.0,175.0,-38.0,-175.0,840.0
-9.0,-68.0,196.0,-890.0,333.0,183.0,-52.0,-225.0,863.0
-10.0,-69.0,200.0,-798.0,343.0,157.0,-45.0,-263.0,882.0
-8.0,-86.0,212.0,-720.0,330.0,90.0,-45.0,-292.0,911.0
-10.0,-76.0,215.0,-653.0,308.0,3.0,-42.0,-290.0,922.0
-16.0,-76.0,222.0,-607.0,248.0,-75.0,-57.0,-287.0,968.0
-21.0,-80.0,242.0,-563.0,190.0,-129.0,-76.0,-296.0,1011.0
-16.0,-73.0,235.0,-509.0,117.0,-170.0,-64.0,-281.0,1003.0
-12.0,-72.0,235.0,-489.0,34.0,-190.0,-50.0,-280.0,1018.0
-10.0,-73.0,239.0,-482.0,-33.0,-215.0,-27.0,-282.0,1026.0
-2.0,-71.0,241.0,-489.0,-80.0,-252.0,-22.0,-282.0,1033.0
-11.0,-71.0,241.0,-500.0,-117.0,-296.0,-60.0,-274.0,1045.0
-16.0,-72.0,244.0,-506.0,-148.0,-314.0,-69.0,-274.0,1043.0
-16.0,-79.0,239.0,-493.0,-173.0,-309.0,-76.0,-293.0,1033.0
-20.0,-77.0,234.0,-468.0,-183.0,-303.0,-74.0,-296.0,1007.0
-14.0,-76.0,230.0,-442.0,-178.0,-301.0,-68.0,-293.0,985.0
-17.0,-81.0,227.0,-421.0,-166.0,-304.0,-79.0,-307.0,978.0
-11.0,-76.0,224.0,-387.0,-154.0,-313.0,-61.0,-296.0,972.0
-7.0,-83.0,225.0,-358.0,-143.0,-330.0,-45.0,-294.0,975.0
0.0,-77.0,222.0,-328.0,-124.0,-356.0,-8.0,-292.0,969.0
-10.0,-69.0,229.0,-296.0,-93.0,-383.0,-49.0,-264.0,1003.0
-12.0,-73.0,242.0,-245.0,-59.0,-395.0,-71.0,-249.0,1032.0
1.0,-65.0,236.0,-170.0,-36.0,-376.0,-17.0,-225.0,1020.0
-9.0,-67.0,238.0,-108.0,-6.0,-391.0,-43.0,-244.0,1015.0
-8.0,-66.0,237.0,-58.0,23.0,-363.0,-41.0,-235.0,1027.0
-9.0,-60.0,238.0,-4.0,49.0,-313.0,-48.0,-229.0,1033.0
-14.0,-61.0,243.0,22.0,70.0,-260.0,-63.0,-223.0,1038.0
-6.0,-66.0,249.0,65.0,81.0,-205.0,-34.0,-234.0,1051.0
-4.0,-58.0,238.0,125.0,99.0,-165.0,-7.0,-204.0,1028.0
-5.0,-55.0,235.0,166.0,129.0,-159.0,-25.0,-214.0,1030.0
-5.0,-54.0,239.0,203.0,164.0,-124.0,-39.0,-194.0,1025.0
-26.0,-39.0,239.0,231.0,182.0,-86.0,-102.0,-149.0,1013.0
-18.0,-46.0,239.0,236.0,178.0,-43.0,-104.0,-169.0,1021.0
-12.0,-41.0,230.0,263.0,188.0,-28.0,-62.0,-145.0,985.0
-14.0,-37.0,222.0,268.0,219.0,-26.0,-67.0,-137.0,976.0
-7.0,-35.0,221.0,259.0,267.0,-9.0,-44.0,-134.0,973.0
-10.0,-35.0,227.0,245.0,319.0,11.0,-46.0,-142.0,970.0
-8.0,-50.0,227.0,242.0,352.0,35.0,-58.0,-170.0,999.0
-6.0,-52.0,230.0,286.0,356.0,82.0,-13.0,-190.0,1010.0
-1.0,-55.0,238.0,356.0,352.0,102.0,-4.0,-200.0,1014.0
-2.0,-61.0,238.0,424.0,325.0,121.0,-4.0,-202.0,1023.0
5.0,-61.0,248.0,477.0,282.0,130.0,14.0,-214.0,1043.0
4.0,-65.0,248.0,550.0,256.0,133.0,31.0,-220.0,1055.0
4.0,-61.0,260.0,634.0,231.0,138.0,23.0,-226.0,1068.0
-2.0,-69.0,256.0,711.0,204.0,137.0,7.0,-222.0,1086.0
7.0,-57.0,257.0,800.0,190.0,140.0,8.0,-208.0,1086.0
-2.0,-59.0,254.0,864.0,175.0,132.0,-4.0,-201.0,1093.0
-1.0,-64.0,260.0,919.0,175.0,127.0,-16.0,-225.0,1113.0
7.0,-54.0,255.0,999.0,198.0,150.0,7.0,-198.0,1074.0
8.0,-52.0,263.0,1025.0,224.0,145.0,-9.0,-188.0,1084.0
6.0,-56.0,254.0,1042.0,252.0,152.0,6.0,-188.0,1085.0
16.0,-54.0,252.0,1087.0,279.0,160.0,26.0,-193.0,1087.0
16.0,-41.0,243.0,1141.0,298.0,158.0,41.0,-152.0,1042.0
15.0,-32.0,237.0,1141.0,289.0,126.0,33.0,-128.0,1033.0
14.0,-25.0,229.0,1109.0,269.0,106.0,43.0,-101.0,1004.0
6.0,-16.0,230.0,1044.0,246.0,81.0,53.0,-74.0,987.0
10.0,-10.0,233.0,965.0,228.0,67.0,38.0,-50.0,978.0
-2.0,11.0,212.0,874.0,207.0,70.0,-2.0,13.0,943.0
8.0,21.0,198.0,760.0,179.0,95.0,25.0,47.0,867.0
15.0,13.0,196.0,568.0,176.0,100.0,53.0,25.0,858.0
10.0,8.0,205.0,298.0,188.0,68.0,35.0,22.0,904.0
13.0,-1.0,220.0,137.0,204.0,42.0,43.0,-2.0,944.0
9.0,-9.0,229.0,65.0,216.0,31.0,32.0,-21.0,990.0
9.0,-26.0,239.0,65.0,228.0,19.0,21.0,-73.0,1026.0
7.0,-36.0,237.0,123.0,231.0,8.0,12.0,-111.0,1025.0
11.0,-56.0,246.0,164.0,225.0,-10.0,34.0,-218.0,1056.0
2.0,-54.0,246.0,142.0,219.0,-44.0,3.0,-211.0,1053.0
-4.0,-49.0,246.0,87.0,205.0,-57.0,-24.0,-192.0,1049.0
-9.0,-52.0,252.0,22.0,184.0,-53.0,-32.0,-191.0,1068.0
-9.0,-49.0,261.0,-15.0,154.0,-50.0,-48.0,-176.0,1087.0
-12.0,-47.0,255.0,-1.0,135.0,-41.0,-49.0,-164.0,1106.0
-12.0,-44.0,260.0,44.0,119.0,-42.0,-63.0,-148.0,1103.0
-13.0,-41.0,257.0,110.0,104.0,-42.0,-68.0,-140.0,1102.0
-20.0,-36.0,257.0,187.0,89.0,-45.0,-80.0,-117.0,1087.0
-19.0,-33.0,255.0,268.0,64.0,-29.0,-79.0,-104.0,1085.0
-12.0,-29.0,253.0,351.0,39.0,-16.0,-66.0,-90.0,1078.0
-12.0,-19.0,251.0,432.0,23.0,-15.0,-56.0,-58.0,1067.0
-12.0,-13.0,242.0,508.0,11.0,-26.0,-60.0,-42.0,1047.0
-12.0,-9.0,238.0,562.0,-1.0,-29.0,-64.0,-27.0,1018.0
-16.0,-2.0,238.0,559.0,-11.0,-35.0,-74.0,-1.0,1009.0
-20.0,6.0,234.0,519.0,-20.0,-37.0,-81.0,12.0,988.0
-24.0,11.0,231.0,455.0,-26.0,-39.0,-87.0,42.0,988.0
-20.0,10.0,233.0,389.0,-30.0,-33.0,-91.0,50.0,992.0
-17.0,11.0,235.0,317.0,-26.0,-32.0,-82.0,49.0,997.0
-21.0,10.0,237.0,234.0,-15.0,-34.0,-87.0,42.0,1013.0
-16.0,9.0,239.0,159.0,2.0,-33.0,-78.0,38.0,1031.0
-16.0,5.0,245.0,110.0,17.0,-21.0,-71.0,25.0,1047.0
-17.0,1.0,247.0,79.0,29.0,-16.0,-73.0,20.0,1056.0
-15.0,-2.0,244.0,71.0,35.0,-9.0,-72.0,8.0,1059.0
-15.0,-2.0,250.0,68.0,41.0,-10.0,-67.0,5.0,1059.0
-13.0,-3.0,248.0,71.0,42.0,-6.0,-66.0,5.0,1054.0
-16.0,-3.0,238.0,73.0,43.0,-8.0,-62.0,2.0,1046.0
-17.0,-4.0,240.0,67.0,39.0,-5.0,-77.0,-5.0,1024.0
-17.0,-5.0,234.0,43.0,37.0,-1.0,-79.0,-19.0,1007.0
-20.0,-7.0,231.0,-2.0,35.0,3.0,-81.0,-26.0,997.0
-21.0,-10.0,226.0,-59.0,34.0,11.0,-96.0,-42.0,985.0
-22.0,-13.0,227.0,-135.0,40.0,23.0,-95.0,-57.0,973.0
-24.0,-14.0,224.0,-196.0,52.0,33.0,-104.0,-65.0,978.0
-20.0,-19.0,229.0,-243.0,68.0,45.0,-92.0,-81.0,982.0
-17.0,-26.0,232.0,-274.0,87.0,47.0,-87.0,-90.0,996.0
-13.0,-31.0,236.0,-280.0,103.0,50.0,-71.0,-104.0,1010.0
-12.0,-34.0,240.0,-264.0,111.0,44.0,-65.0,-116.0,1031.0
-12.0,-39.0,243.0,-231.0,111.0,37.0,-57.0,-123.0,1036.0
-10.0,-39.0,243.0,-183.0,100.0,29.0,-42.0,-131.0,1048.0
-9.0,-36.0,251.0,-130.0,78.0,20.0,-38.0,-135.0,1058.0
-6.0,-37.0,246.0,-61.0,46.0,9.0,-24.0,-134.0,1056.0
-5.0,-38.0,248.0,-6.0,15.0,0.0,-24.0,-130.0,1057.0
-6.0,-34.0,249.0,41.0,-16.0,-8.0,-18.0,-124.0,1056.0
-3.0,-31.0,244.0,81.0,-44.0,-12.0,-18.0,-108.0,1055.0
-2.0,-33.0,243.0,115.0,-67.0,-17.0,-18.0,-96.0,1056.0
-5.0,-22.0,243.0,139.0,-83.0,-19.0,-20.0,-84.0,1054.0
-3.0,-22.0,241.0,158.0,-91.0,-21.0,-16.0,-67.0,1049.0
-5.0,-17.0,239.0,168.0,-91.0,-20.0,-17.0,-64.0,1046.0
-2.0,-14.0,244.0,172.0,-83.0,-19.0,-22.0,-50.0,1045.0
0.0,-14.0,245.0,167.0,-66.0,-20.0,-20.0,-40.0,1044.0
-5.0,-9.0,245.0,153.0,-45.0,-21.0,-24.0,-35.0,1037.0
-4.0,-5.0,239.0,131.0,-23.0,-18.0,-21.0,-31.0,1037.0
-5.0,-4.0,237.0,105.0,-1.0,-18.0,-19.0,-31.0,1032.0
-3.0,-5.0,243.0,77.0,20.0,-17.0,-22.0,-29.0,1026.0
-4.0,-5.0,237.0,49.0,36.0,-16.0,-19.0,-23.0,1028.0
-6.0,-4.0,235.0,20.0,46.0,-13.0,-18.0,-24.0,1024.0
-3.0,-7.0,234.0,-5.0,51.0,-12.0,-19.0,-29.0,1010.0
-3.0,-6.0,237.0,-23.0,53.0,-10.0,-15.0,-31.0,1014.0
-3.0,-11.0,233.0,-37.0,54.0,-9.0,-14.0,-33.0,1008.0
-2.0,-13.0,234.0,-48.0,50.0,-9.0,-16.0,-36.0,1004.0
0.0,-11.0,233.0,-53.0,49.0,-12.0,-16.0,-41.0,1000.0
-4.0,-15.0,233.0,-53.0,50.0,-14.0,-20.0,-43.0,1000.0
-2.0,-13.0,230.0,-52.0,50.0,-16.0,-20.0,-45.0,996.0
-4.0,-11.0,227.0,-54.0,49.0,-17.0,-24.0,-46.0,996.0
-6.0,-12.0,230.0,-56.0,49.0,-18.0,-24.0,-42.0,1001.0
-7.0,-13.0,227.0,-57.0,48.0,-18.0,-27.0,-45.0,1004.0
-4.0,-13.0,232.0,-57.0,44.0,-18.0,-25.0,-46.0,1005.0
-8.0,-13.0,233.0,-52.0,40.0,-18.0,-25.0,-40.0,1014.0
-6.0,-13.0,238.0,-42.0,35.0,-19.0,-23.0,-39.0,1018.0
-7.0,-13.0,237.0,-29.0,30.0,-18.0,-32.0,-35.0,1023.0
-8.0,-11.0,235.0,-18.0,26.0,-19.0,-36.0,-37.0,1023.0
-8.0,-15.0,238.0,-9.0,26.0,-17.0,-37.0,-43.0,1026.0
-10.0,-11.0,241.0,-2.0,25.0,-17.0,-38.0,-42.0,1027.0
-9.0,-15.0,243.0,1.0,25.0,-15.0,-42.0,-44.0,1034.0
-9.0,-16.0,243.0,2.0,28.0,-12.0,-39.0,-46.0,1034.0
-8.0,-17.0,243.0,2.0,30.0,-11.0,-39.0,-41.0,1038.0
-10.0,-17.0,241.0,1.0,33.0,-10.0,-42.0,-46.0,1039.0
-11.0,-15.0,243.0,1.0,37.0,-9.0,-41.0,-54.0,1041.0
-10.0,-16.0,242.0,2.0,40.0,-8.0,-46.0,-60.0,1041.0
-9.0,-16.0,240.0,3.0,47.0,-6.0,-43.0,-59.0,1039.0
-9.0,-18.0,245.0,6.0,56.0,-4.0,-40.0,-59.0,1039.0
-9.0,-16.0,238.0,7.0,64.0,-2.0,-42.0,-57.0,1037.0
-7.0,-19.0,239.0,7.0,69.0,-2.0,-36.0,-62.0,1031.0
-6.0,-17.0,239.0,6.0,71.0,-2.0,-37.0,-60.0,1029.0
-10.0,-17.0,237.0,1.0,71.0,1.0,-40.0,-61.0,1027.0
-8.0,-15.0,236.0,-5.0,69.0,0.0,-38.0,-57.0,1023.0
-6.0,-16.0,236.0,-7.0,62.0,2.0,-33.0,-53.0,1021.0
-7.0,-16.0,236.0,-10.0,59.0,2.0,-36.0,-55.0,1019.0
-9.0,-16.0,239.0,-12.0,53.0,0.0,-34.0,-52.0,1010.0
-8.0,-15.0,234.0,-10.0,49.0,-1.0,-37.0,-50.0,1010.0
-10.0,-16.0,233.0,-9.0,44.0,0.0,-30.0,-52.0,1015.0
-9.0,-16.0,236.0,-4.0,40.0,-2.0,-37.0,-54.0,1012.0
-8.0,-13.0,234.0,3.0,37.0,-1.0,-30.0,-57.0,1015.0
-8.0,-13.0,233.0,6.0,33.0,-5.0,-30.0,-57.0,1016.0
-6.0,-15.0,235.0,10.0,31.0,-5.0,-27.0,-55.0,1009.0
-8.0,-16.0,234.0,13.0,31.0,-5.0,-33.0,-54.0,1013.0
-10.0,-15.0,233.0,14.0,31.0,-5.0,-35.0,-59.0,1012.0
-5.0,-18.0,238.0,13.0,30.0,-8.0,-29.0,-54.0,1016.0
-9.0,-13.0,238.0,12.0,32.0,-8.0,-34.0,-56.0,1018.0
-9.0,-16.0,238.0,10.0,36.0,-9.0,-32.0,-56.0,1020.0
-5.0,-16.0,237.0,7.0,39.0,-10.0,-30.0,-49.0,1023.0
-7.0,-13.0,237.0,0.0,42.0,-11.0,-32.0,-50.0,1024.0
-10.0,-13.0,240.0,-3.0,44.0,-9.0,-40.0,-38.0,1023.0
-7.0,-12.0,237.0,-6.0,43.0,-10.0,-28.0,-47.0,1035.0
-9.0,-13.0,239.0,-8.0,46.0,-11.0,-27.0,-45.0,1032.0
-7.0,-13.0,240.0,-13.0,48.0,-13.0,-30.0,-46.0,1031.0
-5.0,-14.0,243.0,-16.0,49.0,-13.0,-29.0,-45.0,1032.0
-8.0,-14.0,239.0,-18.0,48.0,-14.0,-31.0,-47.0,1036.0
-5.0,-15.0,237.0,-16.0,48.0,-12.0,-28.0,-49.0,1036.0
-7.0,-13.0,237.0,-14.0,50.0,-11.0,-33.0,-48.0,1031.0
-8.0,-17.0,242.0,-9.0,48.0,-9.0,-29.0,-50.0,1028.0
-8.0,-16.0,239.0,-5.0,44.0,-10.0,-30.0,-53.0,1031.0
-6.0,-17.0,238.0,0.0,43.0,-7.0,-34.0,-57.0,1029.0
-9.0,-14.0,233.0,5.0,40.0,-5.0,-27.0,-52.0,1026.0
-8.0,-15.0,238.0,10.0,36.0,-4.0,-33.0,-49.0,1027.0
-5.0,-18.0,239.0,15.0,37.0,-4.0,-28.0,-46.0,1028.0
-6.0,-15.0,237.0,17.0,36.0,-2.0,-26.0,-52.0,1025.0
-5.0,-12.0,236.0,18.0,36.0,-4.0,-29.0,-47.0,1026.0
-9.0,-16.0,245.0,20.0,36.0,-1.0,-24.0,-49.0,1019.0
-4.0,-12.0,239.0,20.0,36.0,-2.0,-29.0,-40.0,1019.0
-6.0,-13.0,236.0,20.0,37.0,0.0,-26.0,-39.0,1021.0
-4.0,-13.0,237.0,15.0,38.0,-3.0,-27.0,-43.0,1021.0
-8.0,-11.0,235.0,12.0,38.0,0.0,-27.0,-42.0,1018.0
-6.0,-13.0,237.0,5.0,40.0,-2.0,-25.0,-41.0,1022.0
-6.0,-12.0,234.0,-1.0,42.0,-1.0,-27.0,-43.0,1023.0
-6.0,-13.0,236.0,-5.0,43.0,-2.0,-27.0,-42.0,1023.0
-4.0,-14.0,236.0,-11.0,43.0,-2.0,-26.0,-42.0,1023.0
-6.0,-12.0,234.0,-15.0,44.0,-5.0,-28.0,-44.0,1025.0
-7.0,-13.0,239.0,-18.0,44.0,-3.0,-31.0,-48.0,1025.0
-6.0,-13.0,237.0,-21.0,45.0,-6.0,-28.0,-47.0,1029.0
-7.0,-9.0,237.0,-25.0,45.0,-2.0,-26.0,-42.0,1025.0
-5.0,-13.0,240.0,-31.0,42.0,-6.0,-23.0,-44.0,1024.0
-5.0,-13.0,240.0,-33.0,40.0,-3.0,-24.0,-43.0,1027.0
-7.0,-16.0,237.0,-36.0,36.0,-6.0,-27.0,-48.0,1028.0
-7.0,-15.0,239.0,-34.0,32.0,-3.0,-27.0,-52.0,1026.0
-6.0,-14.0,237.0,-31.0,29.0,-7.0,-29.0,-47.0,1023.0
-6.0,-16.0,235.0,-24.0,27.0,-4.0,-29.0,-53.0,1028.0
-8.0,-16.0,238.0,-14.0,28.0,-5.0,-28.0,-55.0,1025.0
-6.0,-16.0,239.0,-1.0,30.0,-2.0,-24.0,-57.0,1021.0
-4.0,-16.0,240.0,13.0,34.0,-4.0,-26.0,-54.0,1026.0
-7.0,-15.0,240.0,25.0,38.0,-1.0,-29.0,-57.0,1020.0
-7.0,-17.0,238.0,32.0,42.0,-2.0,-26.0,-54.0,1022.0
-9.0,-16.0,238.0,34.0,46.0,0.0,-33.0,-50.0,1019.0
-9.0,-14.0,239.0,33.0,47.0,-3.0,-29.0,-48.0,1015.0
-8.0,-11.0,235.0,32.0,49.0,1.0,-27.0,-44.0,1025.0
-7.0,-14.0,241.0,26.0,48.0,-1.0,-24.0,-43.0,1022.0
-9.0,-11.0,239.0,22.0,47.0,1.0,-24.0,-46.0,1027.0
-5.0,-14.0,235.0,15.0,49.0,-2.0,-30.0,-46.0,1020.0
-7.0,-12.0,236.0,10.0,48.0,-2.0,-24.0,-41.0,1025.0
-4.0,-14.0,236.0,5.0,47.0,-5.0,-25.0,-45.0,1023.0
-6.0,-13.0,236.0,0.0,47.0,-1.0,-23.0,-42.0,1024.0
-6.0,-15.0,238.0,-6.0,46.0,-5.0,-23.0,-46.0,1027.0
-4.0,-13.0,242.0,-9.0,45.0,-4.0,-24.0,-43.0,1028.0
-5.0,-13.0,239.0,-13.0,46.0,-6.0,-24.0,-48.0,1025.0
-7.0,-11.0,235.0,-14.0,47.0,-2.0,-21.0,-47.0,1028.0
-8.0,-12.0,239.0,-15.0,47.0,-6.0,-20.0,-45.0,1027.0
-4.0,-12.0,241.0,-16.0,48.0,-5.0,-24.0,-49.0,1026.0
-7.0,-13.0,238.0,-14.0,48.0,-6.0,-24.0,-45.0,1025.0
-5.0,-15.0,237.0,-13.0,47.0,-3.0,-22.0,-46.0,1026.0
-4.0,-14.0,238.0,-9.0,47.0,-6.0,-22.0,-47.0,1025.0
-6.0,-13.0,238.0,-5.0,48.0,-3.0,-22.0,-46.0,1023.0
-8.0,-12.0,235.0,0.0,47.0,-6.0,-19.0,-47.0,1023.0
-4.0,-17.0,236.0,5.0,46.0,-2.0,-21.0,-44.0,1021.0
-1.0,-15.0,234.0,7.0,46.0,-4.0,-18.0,-46.0,1023.0
-4.0,-11.0,236.0,8.0,46.0,-1.0,-20.0,-46.0,1020.0
-4.0,-14.0,233.0,8.0,46.0,-3.0,-16.0,-39.0,1015.0
-2.0,-13.0,236.0,6.0,47.0,-1.0,-21.0,-42.0,1020.0
-5.0,-13.0,240.0,6.0,49.0,-2.0,-15.0,-42.0,1021.0
-7.0,-12.0,238.0,7.0,52.0,0.0,-19.0,-40.0,1017.0
-8.0,-12.0,236.0,9.0,54.0,-2.0,-21.0,-42.0,1025.0
-4.0,-11.0,235.0,8.0,57.0,1.0,-24.0,-45.0,1018.0
-5.0,-13.0,238.0,9.0,59.0,-1.0,-18.0,-46.0,1016.0
-6.0,-11.0,236.0,9.0,59.0,1.0,-22.0,-45.0,1011.0
-4.0,-15.0,237.0,10.0,59.0,-1.0,-24.0,-45.0,1019.0
-3.0,-14.0,238.0,12.0,60.0,2.0,-22.0,-43.0,1018.0
-8.0,-13.0,236.0,15.0,58.0,2.0,-25.0,-41.0,1014.0
-5.0,-13.0,235.0,17.0,57.0,2.0,-27.0,-45.0,1015.0
-6.0,-12.0,237.0,19.0,58.0,-1.0,-20.0,-43.0,1013.0
-6.0,-15.0,233.0,19.0,60.0,0.0,-29.0,-41.0,1011.0
-5.0,-12.0,236.0,15.0,60.0,-1.0,-25.0,-36.0,1016.0
-6.0,-11.0,236.0,11.0,61.0,1.0,-25.0,-40.0,1015.0
-6.0,-12.0,235.0,4.0,61.0,0.0,-22.0,-37.0,1015.0
-4.0,-11.0,234.0,-2.0,61.0,3.0,-22.0,-37.0,1017.0
-6.0,-13.0,231.0,-4.0,58.0,1.0,-23.0,-44.0,1018.0
-3.0,-16.0,234.0,-5.0,57.0,5.0,-25.0,-43.0,1023.0
-7.0,-13.0,240.0,-3.0,56.0,3.0,-25.0,-51.0,1020.0
-2.0,-18.0,237.0,3.0,54.0,6.0,-21.0,-52.0,1016.0
-6.0,-15.0,238.0,9.0,52.0,2.0,-25.0,-46.0,1025.0
-5.0,-13.0,237.0,15.0,51.0,5.0,-26.0,-44.0,1021.0
-7.0,-13.0,237.0,19.0,51.0,2.0,-24.0,-45.0,1023.0
-6.0,-14.0,235.0,21.0,52.0,4.0,-25.0,-44.0,1021.0
-7.0,-12.0,238.0,22.0,52.0,2.0,-22.0,-40.0,1022.0
-1.0,-12.0,241.0,16.0,52.0,3.0,-24.0,-42.0,1022.0
-5.0,-11.0,239.0,7.0,52.0,1.0,-26.0,-40.0,1026.0
-3.0,-11.0,235.0,-2.0,53.0,4.0,-23.0,-37.0,1025.0
-4.0,-15.0,237.0,-4.0,53.0,-1.0,-24.0,-38.0,1024.0
-6.0,-14.0,237.0,-1.0,52.0,1.0,-25.0,-44.0,1026.0
-7.0,-16.0,238.0,10.0,56.0,-2.0,-27.0,-41.0,1024.0
-10.0,-12.0,236.0,20.0,59.0,0.0,-30.0,-42.0,1024.0
-8.0,-13.0,236.0,28.0,65.0,-4.0,-35.0,-44.0,1019.0
-9.0,-11.0,235.0,32.0,69.0,-2.0,-37.0,-43.0,1020.0
-7.0,-12.0,236.0,31.0,74.0,-4.0,-34.0,-41.0,1015.0
-6.0,-8.0,236.0,27.0,77.0,-2.0,-29.0,-36.0,1021.0
-8.0,-10.0,236.0,18.0,80.0,-3.0,-27.0,-40.0,1021.0
-7.0,-12.0,237.0,11.0,80.0,-1.0,-28.0,-38.0,1022.0
-4.0,-13.0,236.0,5.0,80.0,-1.0,-31.0,-41.0,1021.0
-7.0,-13.0,239.0,0.0,78.0,3.0,-24.0,-45.0,1025.0
-4.0,-14.0,239.0,-1.0,75.0,0.0,-24.0,-42.0,1030.0
-5.0,-14.0,241.0,3.0,74.0,3.0,-25.0,-45.0,1031.0
-18.0,-11.0,248.0,9.0,74.0,3.0,-25.0,-48.0,1026.0
9.0,-11.0,243.0,16.0,75.0,5.0,-21.0,-50.0,1031.0
-10.0,-18.0,233.0,24.0,77.0,5.0,-21.0,-46.0,1029.0
2.0,-15.0,250.0,30.0,78.0,7.0,-21.0,-41.0,1027.0
-6.0,-25.0,229.0,33.0,79.0,7.0,-23.0,-41.0,1028.0
-6.0,-9.0,250.0,33.0,81.0,6.0,-24.0,-36.0,1025.0
-3.0,-24.0,237.0,31.0,81.0,4.0,-22.0,-35.0,1028.0
-6.0,-1.0,239.0,27.0,80.0,4.0,-24.0,-33.0,1022.0
-5.0,-11.0,238.0,22.0,79.0,1.0,-19.0,-30.0,1023.0
-3.0,-10.0,235.0,18.0,76.0,1.0,-23.0,-35.0,1020.0
-6.0,-6.0,237.0,14.0,75.0,0.0,-24.0,-30.0,1024.0
-5.0,-9.0,240.0,11.0,72.0,0.0,-23.0,-29.0,1018.0
-5.0,-9.0,239.0,9.0,71.0,-2.0,-24.0,-36.0,1024.0
-5.0,-10.0,237.0,7.0,68.0,-1.0,-24.0,-36.0,1020.0
-6.0,-12.0,236.0,7.0,66.0,-4.0,-28.0,-33.0,1022.0
-7.0,-10.0,241.0,6.0,62.0,-2.0,-24.0,-36.0,1022.0
-2.0,-12.0,235.0,7.0,62.0,-3.0,-22.0,-37.0,1024.0
-5.0,-11.0,236.0,10.0,64.0,0.0,-24.0,-41.0,1024.0
-4.0,-12.0,240.0,14.0,65.0,-3.0,-24.0,-35.0,1029.0
-1.0,-16.0,241.0,18.0,65.0,-2.0,-25.0,-40.0,1027.0
-7.0,-10.0,240.0,23.0,68.0,-1.0,-26.0,-39.0,1027.0
-4.0,-14.0,241.0,25.0,69.0,0.0,-23.0,-35.0,1027.0
-6.0,-10.0,235.0,29.0,70.0,0.0,-24.0,-32.0,1026.0
-9.0,-11.0,235.0,31.0,71.0,1.0,-26.0,-40.0,1025.0
-7.0,-9.0,239.0,35.0,72.0,1.0,-27.0,-33.0,1028.0
-5.0,-10.0,236.0,35.0,74.0,2.0,-26.0,-34.0,1027.0
-6.0,-7.0,241.0,34.0,76.0,0.0,-26.0,-30.0,1027.0
-8.0,-7.0,238.0,33.0,76.0,1.0,-23.0,-33.0,1024.0
-8.0,-4.0,241.0,32.0,78.0,1.0,-23.0,-34.0,1024.0
-7.0,-10.0,238.0,30.0,78.0,0.0,-27.0,-33.0,1029.0
-9.0,-7.0,238.0,29.0,77.0,1.0,-29.0,-32.0,1026.0
-10.0,-8.0,234.0,26.0,77.0,1.0,-30.0,-29.0,1026.0
-9.0,-11.0,240.0,23.0,76.0,1.0,-20.0,-31.0,1022.0
-6.0,-8.0,237.0,21.0,76.0,2.0,-28.0,-37.0,1031.0
-4.0,-9.0,238.0,21.0,74.0,3.0,-32.0,-38.0,1025.0
-5.0,-11.0,239.0,19.0,72.0,3.0,-24.0,-32.0,1022.0
-8.0,-12.0,236.0,20.0,70.0,4.0,-29.0,-32.0,1024.0
-5.0,-10.0,240.0,19.0,69.0,4.0,-28.0,-35.0,1025.0
-7.0,-9.0,239.0,19.0,69.0,4.0,-29.0,-33.0,1029.0
-8.0,-8.0,238.0,19.0,69.0,3.0,-32.0,-31.0,1026.0
-7.0,-11.0,240.0,19.0,70.0,3.0,-28.0,-33.0,1017.0
-6.0,-10.0,236.0,18.0,70.0,3.0,-30.0,-35.0,1024.0
-7.0,-8.0,235.0,18.0,71.0,4.0,-32.0,-32.0,1030.0
-7.0,-8.0,238.0,19.0,71.0,3.0,-36.0,-29.0,1025.0
-8.0,-10.0,234.0,21.0,73.0,2.0,-29.0,-35.0,1026.0
-5.0,-8.0,239.0,22.0,73.0,1.0,-32.0,-29.0,1024.0
-7.0,-9.0,238.0,22.0,75.0,2.0,-32.0,-30.0,1022.0
-6.0,-11.0,238.0,23.0,76.0,2.0,-27.0,-29.0,1026.0
-5.0,-7.0,234.0,20.0,76.0,2.0,-27.0,-28.0,1026.0
-7.0,-6.0,239.0,14.0,79.0,2.0,-28.0,-30.0,1019.0
-10.0,-4.0,239.0,11.0,79.0,2.0,-27.0,-26.0,1026.0
-8.0,-4.0,238.0,5.0,78.0,2.0,-27.0,-25.0,1032.0
-8.0,-6.0,238.0,0.0,77.0,1.0,-29.0,-26.0,1027.0
-7.0,-5.0,241.0,-8.0,77.0,0.0,-30.0,-26.0,1027.0
-7.0,-4.0,237.0,-12.0,78.0,-1.0,-29.0,-26.0,1028.0
-7.0,-7.0,237.0,-15.0,77.0,-3.0,-28.0,-32.0,1029.0
-5.0,-11.0,237.0,-15.0,78.0,-2.0,-22.0,-30.0,1031.0
-6.0,-10.0,240.0,-13.0,79.0,-1.0,-26.0,-30.0,1034.0
-8.0,-8.0,240.0,-8.0,79.0,1.0,-26.0,-32.0,1030.0
-7.0,-8.0,237.0,-1.0,78.0,1.0,-25.0,-32.0,1027.0
-6.0,-6.0,242.0,7.0,81.0,4.0,-27.0,-35.0,1027.0
-7.0,-6.0,242.0,16.0,80.0,2.0,-28.0,-34.0,1024.0
-6.0,-8.0,237.0,21.0,79.0,2.0,-33.0,-30.0,1025.0
-9.0,-6.0,237.0,22.0,79.0,2.0,-29.0,-31.0,1028.0
-9.0,-7.0,237.0,21.0,79.0,2.0,-31.0,-31.0,1029.0
-8.0,-7.0,238.0,18.0,79.0,1.0,-28.0,-31.0,1026.0
-11.0,-4.0,237.0,14.0,80.0,1.0,-32.0,-31.0,1025.0
-8.0,-6.0,239.0,9.0,80.0,-1.0,-29.0,-29.0,1025.0
-8.0,-6.0,240.0,4.0,79.0,0.0,-27.0,-27.0,1026.0
-9.0,-8.0,238.0,-2.0,77.0,-3.0,-32.0,-22.0,1029.0
-4.0,-6.0,239.0,-8.0,78.0,-2.0,-35.0,-23.0,1033.0
-7.0,-8.0,245.0,-15.0,77.0,-2.0,-33.0,-24.0,1033.0
-7.0,-9.0,237.0,-21.0,76.0,-2.0,-32.0,-26.0,1032.0
-5.0,-6.0,239.0,-26.0,75.0,-3.0,-31.0,-27.0,1035.0
-7.0,-6.0,240.0,-28.0,74.0,-1.0,-30.0,-26.0,1039.0
-6.0,-5.0,237.0,-29.0,73.0,-3.0,-31.0,-27.0,1037.0
-9.0,-7.0,241.0,-28.0,71.0,0.0,-28.0,-28.0,1035.0
-8.0,-11.0,243.0,-23.0,69.0,-2.0,-36.0,-29.0,1035.0
-7.0,-11.0,238.0,-20.0,67.0,2.0,-26.0,-31.0,1031.0
-7.0,-11.0,238.0,-13.0,66.0,-1.0,-29.0,-34.0,1028.0
-5.0,-11.0,239.0,-5.0,63.0,1.0,-29.0,-28.0,1028.0
-6.0,-13.0,239.0,2.0,62.0,0.0,-32.0,-29.0,1026.0
-8.0,-6.0,237.0,9.0,63.0,1.0,-30.0,-36.0,1025.0
-6.0,-8.0,237.0,17.0,64.0,0.0,-31.0,-32.0,1026.0
-7.0,-6.0,237.0,20.0,65.0,1.0,-38.0,-32.0,1025.0
-8.0,-5.0,235.0,24.0,67.0,-1.0,-31.0,-32.0,1020.0
-10.0,-5.0,238.0,28.0,68.0,3.0,-32.0,-30.0,1024.0
-7.0,-7.0,235.0,31.0,71.0,1.0,-35.0,-29.0,1023.0
-9.0,-9.0,236.0,31.0,73.0,2.0,-30.0,-28.0,1022.0
-10.0,-5.0,239.0,31.0,75.0,2.0,-31.0,-22.0,1023.0
-7.0,-8.0,236.0,30.0,77.0,2.0,-33.0,-24.0,1018.0
-9.0,-6.0,236.0,29.0,78.0,0.0,-32.0,-26.0,1022.0
-9.0,-4.0,241.0,25.0,80.0,1.0,-28.0,-28.0,1023.0
-10.0,-2.0,239.0,24.0,82.0,0.0,-33.0,-20.0,1025.0
-6.0,-9.0,236.0,20.0,83.0,2.0,-35.0,-24.0,1027.0
-8.0,-6.0,241.0,17.0,83.0,-1.0,-37.0,-27.0,1026.0
-6.0,-4.0,237.0,14.0,82.0,2.0,-35.0,-20.0,1026.0
-8.0,-6.0,240.0,9.0,82.0,-1.0,-38.0,-22.0,1026.0
-8.0,-7.0,237.0,5.0,81.0,0.0,-37.0,-26.0,1029.0
-8.0,-7.0,240.0,0.0,81.0,-1.0,-35.0,-23.0,1031.0
-6.0,-6.0,241.0,-6.0,78.0,1.0,-37.0,-26.0,1019.0
-9.0,-9.0,238.0,-7.0,76.0,0.0,-32.0,-25.0,1032.0
-5.0,-6.0,237.0,-9.0,74.0,2.0,-36.0,-26.0,1031.0
-9.0,-7.0,238.0,-11.0,70.0,-1.0,-37.0,-30.0,1033.0
-8.0,-7.0,239.0,-10.0,67.0,3.0,-39.0,-28.0,1030.0
-7.0,-6.0,242.0,-5.0,65.0,2.0,-33.0,-27.0,1033.0
-10.0,-8.0,237.0,2.0,64.0,2.0,-31.0,-29.0,1033.0
-6.0,-7.0,242.0,9.0,64.0,0.0,-34.0,-28.0,1031.0
-7.0,-11.0,236.0,17.0,66.0,1.0,-37.0,-25.0,1027.0
-11.0,-6.0,239.0,20.0,66.0,-2.0,-35.0,-23.0,1031.0
-8.0,-4.0,238.0,18.0,71.0,2.0,-38.0,-25.0,1026.0
-10.0,-5.0,241.0,15.0,74.0,-1.0,-40.0,-18.0,1030.0
-7.0,-6.0,240.0,9.0,77.0,3.0,-37.0,-20.0,1027.0
-6.0,-6.0,238.0,0.0,76.0,0.0,-37.0,-21.0,1024.0
-7.0,-6.0,241.0,-8.0,76.0,4.0,-38.0,-24.0,1023.0
-8.0,-5.0,238.0,-12.0,76.0,0.0,-38.0,-23.0,1028.0
-9.0,-7.0,237.0,-12.0,75.0,2.0,-38.0,-25.0,1029.0
-10.0,-7.0,241.0,-8.0,73.0,0.0,-38.0,-24.0,1025.0
-10.0,-7.0,239.0,-2.0,74.0,3.0,-34.0,-27.0,1026.0
-8.0,-5.0,237.0,2.0,73.0,0.0,-37.0,-29.0,1025.0
-8.0,-6.0,235.0,8.0,74.0,2.0,-39.0,-30.0,1028.0
-8.0,-7.0,236.0,14.0,75.0,-1.0,-37.0,-30.0,1024.0
-10.0,-10.0,235.0,20.0,76.0,2.0,-39.0,-24.0,1025.0
-9.0,-7.0,238.0,22.0,77.0,0.0,-38.0,-25.0,1030.0
-10.0,-4.0,236.0,20.0,76.0,2.0,-37.0,-28.0,1027.0
-10.0,-4.0,243.0,20.0,76.0,-1.0,-37.0,-22.0,1031.0
-9.0,-4.0,238.0,21.0,75.0,1.0,-35.0,-19.0,1026.0
-10.0,-3.0,240.0,22.0,78.0,-2.0,-38.0,-21.0,1027.0
-5.0,-6.0,239.0,24.0,81.0,-3.0,-35.0,-16.0,1029.0
-8.0,-4.0,237.0,26.0,82.0,-7.0,-39.0,-17.0,1027.0
-10.0,-5.0,239.0,24.0,84.0,-5.0,-38.0,-15.0,1029.0
-8.0,-4.0,237.0,18.0,85.0,-7.0,-40.0,-12.0,1027.0
-8.0,-4.0,235.0,10.0,86.0,-4.0,-38.0,-14.0,1028.0
-8.0,-5.0,238.0,2.0,87.0,-6.0,-42.0,-19.0,1029.0
-9.0,-5.0,242.0,-8.0,90.0,-4.0,-37.0,-17.0,1030.0
-11.0,-6.0,241.0,-13.0,91.0,-7.0,-39.0,-22.0,1032.0
-9.0,-9.0,239.0,-13.0,93.0,-5.0,-38.0,-23.0,1034.0
-6.0,-8.0,241.0,-13.0,95.0,-8.0,-37.0,-25.0,1038.0
-10.0,-9.0,240.0,-5.0,100.0,-4.0,-42.0,-26.0,1029.0
-4.0,-10.0,240.0,1.0,105.0,-5.0,-34.0,-26.0,1031.0
-8.0,-9.0,241.0,8.0,108.0,-1.0,-38.0,-30.0,1024.0
-6.0,-11.0,238.0,16.0,111.0,-3.0,-37.0,-28.0,1025.0
-10.0,-9.0,236.0,22.0,114.0,2.0,-35.0,-24.0,1024.0
-10.0,-6.0,236.0,26.0,114.0,0.0,-39.0,-24.0,1021.0
-8.0,-5.0,237.0,27.0,112.0,3.0,-36.0,-21.0,1017.0
-7.0,-6.0,237.0,24.0,110.0,1.0,-34.0,-21.0,1011.0
-6.0,-4.0,235.0,19.0,106.0,4.0,-33.0,-16.0,1011.0
-11.0,-4.0,233.0,12.0,102.0,0.0,-38.0,-14.0,1019.0
-10.0,-3.0,235.0,3.0,100.0,2.0,-43.0,-18.0,1025.0
-10.0,-4.0,239.0,-5.0,96.0,-1.0,-41.0,-12.0,1019.0
-11.0,-3.0,236.0,-12.0,93.0,-1.0,-39.0,-14.0,1021.0
-10.0,-7.0,240.0,-18.0,92.0,-3.0,-41.0,-17.0,1026.0
-10.0,-6.0,237.0,-24.0,90.0,-2.0,-39.0,-19.0,1028.0
-9.0,-6.0,240.0,-28.0,88.0,-6.0,-41.0,-17.0,1033.0
-10.0,-5.0,241.0,-31.0,85.0,-3.0,-43.0,-16.0,1031.0
-8.0,-4.0,241.0,-30.0,84.0,-4.0,-40.0,-23.0,1028.0
-9.0,-7.0,240.0,-28.0,81.0,-2.0,-43.0,-22.0,1032.0
-7.0,-7.0,239.0,-26.0,81.0,-5.0,-45.0,-23.0,1033.0
-12.0,-4.0,241.0,-23.0,78.0,-3.0,-43.0,-21.0,1038.0
-11.0,-6.0,239.0,-21.0,76.0,-6.0,-45.0,-21.0,1035.0
-11.0,-5.0,241.0,-16.0,74.0,-3.0,-42.0,-22.0,1036.0
-11.0,-7.0,239.0,-12.0,73.0,-5.0,-46.0,-24.0,1038.0
-10.0,-8.0,246.0,-8.0,71.0,-2.0,-50.0,-22.0,1033.0
-11.0,-6.0,242.0,-5.0,71.0,-4.0,-49.0,-23.0,1036.0
-11.0,-5.0,240.0,-2.0,73.0,-2.0,-48.0,-21.0,1030.0
-11.0,-4.0,242.0,0.0,71.0,-4.0,-50.0,-15.0,1029.0
-11.0,-4.0,240.0,2.0,73.0,-2.0,-49.0,-16.0,1029.0
-11.0,-5.0,239.0,2.0,72.0,-4.0,-48.0,-22.0,1022.0
-12.0,-4.0,238.0,3.0,74.0,-1.0,-50.0,-20.0,1026.0
-11.0,-7.0,240.0,3.0,74.0,-2.0,-51.0,-21.0,1028.0
-12.0,-6.0,240.0,3.0,74.0,0.0,-49.0,-22.0,1028.0
-12.0,-6.0,237.0,1.0,73.0,-1.0,-47.0,-18.0,1026.0
-11.0,-4.0,238.0,-1.0,73.0,0.0,-48.0,-16.0,1024.0
-10.0,-4.0,236.0,-3.0,74.0,-2.0,-46.0,-17.0,1023.0
-9.0,-6.0,238.0,-5.0,74.0,2.0,-46.0,-22.0,1025.0
-11.0,-5.0,238.0,-8.0,72.0,0.0,-47.0,-15.0,1026.0
-10.0,-7.0,240.0,-10.0,71.0,1.0,-50.0,-20.0,1030.0
-10.0,-6.0,239.0,-13.0,71.0,0.0,-47.0,-19.0,1025.0
-12.0,-4.0,237.0,-14.0,70.0,2.0,-47.0,-15.0,1029.0
-12.0,-6.0,235.0,-17.0,70.0,0.0,-44.0,-23.0,1028.0
-10.0,-5.0,235.0,-17.0,69.0,3.0,-46.0,-15.0,1025.0
-10.0,-4.0,238.0,-18.0,67.0,0.0,-44.0,-16.0,1030.0
-10.0,-8.0,236.0,-16.0,67.0,2.0,-47.0,-20.0,1030.0
-10.0,-6.0,240.0,-17.0,66.0,1.0,-45.0,-24.0,1031.0
-12.0,-4.0,241.0,-18.0,67.0,2.0,-44.0,-17.0,1029.0
-9.0,-9.0,236.0,-17.0,66.0,-1.0,-47.0,-15.0,1028.0
-11.0,-4.0,239.0,-17.0,65.0,1.0,-43.0,-19.0,1031.0
-12.0,-4.0,244.0,-18.0,65.0,0.0,-45.0,-18.0,1032.0
-11.0,-5.0,239.0,-18.0,62.0,2.0,-48.0,-19.0,1031.0
-12.0,-5.0,240.0,-21.0,63.0,1.0,-43.0,-16.0,1032.0
-12.0,-3.0,241.0,-24.0,62.0,3.0,-44.0,-19.0,1029.0
-9.0,-4.0,238.0,-28.0,60.0,0.0,-42.0,-16.0,1031.0
-10.0,-5.0,239.0,-35.0,56.0,1.0,-42.0,-13.0,1033.0
-10.0,-4.0,239.0,-36.0,53.0,-2.0,-47.0,-19.0,1035.0
-11.0,-7.0,239.0,-39.0,50.0,0.0,-44.0,-17.0,1036.0
-11.0,-5.0,242.0,-38.0,49.0,-1.0,-47.0,-17.0,1034.0
-11.0,-7.0,239.0,-31.0,49.0,-1.0,-45.0,-20.0,1036.0
-9.0,-7.0,243.0,-25.0,49.0,-2.0,-42.0,-20.0,1029.0
-10.0,-6.0,243.0,-18.0,50.0,-1.0,-45.0,-23.0,1029.0
-11.0,-6.0,239.0,-11.0,52.0,-2.0,-48.0,-28.0,1030.0
-9.0,-7.0,241.0,-8.0,53.0,-1.0,-46.0,-22.0,1017.0
-10.0,-5.0,240.0,-4.0,54.0,-1.0,-46.0,-27.0,1028.0
-10.0,-8.0,240.0,-2.0,54.0,0.0,-47.0,-18.0,1028.0
-10.0,-4.0,239.0,-3.0,55.0,-2.0,-50.0,-20.0,1031.0
-10.0,-4.0,240.0,-5.0,54.0,0.0,-40.0,-16.0,1024.0
-12.0,-7.0,237.0,-3.0,53.0,0.0,-48.0,-22.0,1025.0
-11.0,-9.0,237.0,-5.0,54.0,-1.0,-49.0,-24.0,1027.0
-11.0,-4.0,239.0,-7.0,55.0,-1.0,-45.0,-18.0,1023.0
-12.0,-4.0,234.0,-7.0,56.0,-1.0,-46.0,-17.0,1025.0
-10.0,-4.0,241.0,-8.0,57.0,-2.0,-48.0,-22.0,1025.0
-11.0,-4.0,239.0,-8.0,57.0,0.0,-50.0,-22.0,1026.0
-12.0,-5.0,238.0,-9.0,57.0,-2.0,-43.0,-16.0,1024.0
-12.0,-4.0,236.0,-8.0,60.0,-2.0,-43.0,-18.0,1023.0
-12.0,-7.0,239.0,-10.0,60.0,-1.0,-47.0,-20.0,1021.0
-11.0,-9.0,238.0,-10.0,60.0,-3.0,-46.0,-20.0,1029.0
-9.0,-4.0,239.0,-11.0,62.0,-2.0,-45.0,-25.0,1028.0
-8.0,-9.0,242.0,-15.0,64.0,-1.0,-44.0,-15.0,1027.0
-7.0,-7.0,236.0,-16.0,64.0,-1.0,-42.0,-16.0,1031.0
-11.0,-7.0,239.0,-18.0,63.0,1.0,-44.0,-21.0,1028.0
-11.0,-4.0,243.0,-20.0,65.0,0.0,-53.0,-18.0,1030.0
-9.0,-6.0,239.0,-21.0,63.0,0.0,-48.0,-19.0,1028.0
-12.0,-8.0,241.0,-20.0,61.0,0.0,-45.0,-19.0,1030.0
-12.0,-8.0,238.0,-21.0,61.0,0.0,-48.0,-16.0,1025.0
-12.0,-7.0,238.0,-21.0,59.0,0.0,-47.0,-17.0,1028.0
-10.0,-4.0,240.0,-21.0,58.0,0.0,-42.0,-18.0,1034.0
-10.0,-4.0,238.0,-21.0,57.0,0.0,-52.0,-24.0,1032.0
-11.0,-6.0,237.0,-20.0,56.0,1.0,-51.0,-25.0,1029.0
-7.0,-8.0,236.0,-20.0,56.0,-1.0,-41.0,-17.0,1027.0
-11.0,-4.0,239.0,-18.0,55.0,-1.0,-50.0,-24.0,1028.0
-12.0,-4.0,240.0,-18.0,55.0,0.0,-44.0,-24.0,1027.0
-10.0,-4.0,237.0,-17.0,54.0,-2.0,-45.0,-23.0,1026.0
-10.0,-7.0,239.0,-16.0,54.0,-2.0,-46.0,-23.0,1027.0
-12.0,-4.0,241.0,-13.0,54.0,1.0,-45.0,-25.0,1027.0
-12.0,-7.0,234.0,-13.0,54.0,1.0,-43.0,-24.0,1027.0
-9.0,-8.0,236.0,-11.0,56.0,-2.0,-49.0,-19.0,1030.0
-11.0,-4.0,236.0,-10.0,56.0,0.0,-43.0,-19.0,1022.0
-11.0,-8.0,236.0,-10.0,58.0,0.0,-45.0,-21.0,1030.0
-10.0,-4.0,236.0,-10.0,59.0,-1.0,-46.0,-20.0,1032.0
-10.0,-4.0,242.0,-11.0,59.0,-2.0,-41.0,-18.0,1027.0
-10.0,-4.0,238.0,-12.0,59.0,-1.0,-42.0,-18.0,1025.0
-11.0,-4.0,242.0,-13.0,59.0,-2.0,-50.0,-18.0,1028.0
-12.0,-4.0,239.0,-15.0,59.0,0.0,-44.0,-21.0,1024.0
-11.0,-4.0,238.0,-15.0,60.0,-2.0,-40.0,-20.0,1029.0
-11.0,-4.0,239.0,-14.0,60.0,0.0,-37.0,-20.0,1025.0
-11.0,-7.0,240.0,-16.0,60.0,-3.0,-42.0,-20.0,1024.0
-11.0,-6.0,236.0,-16.0,60.0,-2.0,-43.0,-18.0,1029.0
-7.0,-5.0,235.0,-16.0,60.0,-2.0,-49.0,-22.0,1028.0
-9.0,-8.0,240.0,-14.0,60.0,-2.0,-46.0,-22.0,1029.0
-11.0,-5.0,240.0,-15.0,59.0,-2.0,-45.0,-20.0,1028.0
-11.0,-7.0,240.0,-14.0,59.0,-1.0,-43.0,-24.0,1029.0
-11.0,-5.0,239.0,-14.0,60.0,-2.0,-41.0,-22.0,1025.0
-10.0,-4.0,241.0,-15.0,58.0,0.0,-43.0,-18.0,1029.0
-10.0,-4.0,237.0,-17.0,58.0,-2.0,-43.0,-23.0,1029.0
-10.0,-4.0,242.0,-19.0,56.0,-1.0,-45.0,-16.0,1027.0
-10.0,-4.0,237.0,-23.0,56.0,-1.0,-41.0,-19.0,1033.0
-10.0,-4.0,238.0,-27.0,54.0,-2.0,-44.0,-16.0,1031.0
-11.0,-4.0,239.0,-33.0,52.0,-2.0,-45.0,-17.0,1029.0
-11.0,-7.0,238.0,-37.0,49.0,0.0,-50.0,-15.0,1034.0
-13.0,-2.0,238.0,-40.0,48.0,-2.0,-48.0,-13.0,1034.0
-12.0,-7.0,242.0,-41.0,48.0,-1.0,-48.0,-15.0,1032.0
-9.0,-7.0,237.0,-42.0,46.0,-2.0,-47.0,-20.0,1035.0
-12.0,-8.0,239.0,-41.0,47.0,0.0,-47.0,-25.0,1034.0
-11.0,-8.0,243.0,-39.0,44.0,-2.0,-44.0,-25.0,1031.0
-12.0,-5.0,242.0,-36.0,45.0,0.0,-48.0,-23.0,1032.0
-12.0,-4.0,243.0,-32.0,45.0,-2.0,-53.0,-22.0,1038.0
-10.0,-9.0,239.0,-28.0,47.0,0.0,-46.0,-21.0,1033.0
-12.0,-4.0,238.0,-26.0,48.0,-2.0,-49.0,-20.0,1029.0
-11.0,-4.0,239.0,-26.0,51.0,-1.0,-45.0,-14.0,1035.0
-11.0,-5.0,240.0,-32.0,53.0,-3.0,-47.0,-18.0,1029.0
-11.0,-4.0,240.0,-41.0,54.0,0.0,-49.0,-12.0,1033.0
-11.0,-5.0,243.0,-53.0,54.0,-3.0,-48.0,-14.0,1033.0
-11.0,-7.0,240.0,-66.0,54.0,-2.0,-47.0,-15.0,1031.0
-8.0,-5.0,243.0,-79.0,53.0,-3.0,-43.0,-22.0,1035.0
-12.0,-5.0,244.0,-85.0,50.0,-2.0,-42.0,-17.0,1035.0
-12.0,-6.0,241.0,-86.0,48.0,-2.0,-49.0,-24.0,1034.0
-10.0,-7.0,240.0,-83.0,45.0,-1.0,-47.0,-28.0,1040.0
-8.0,-9.0,243.0,-77.0,42.0,-1.0,-40.0,-29.0,1034.0
-9.0,-8.0,239.0,-66.0,41.0,-1.0,-44.0,-30.0,1034.0
-7.0,-10.0,235.0,-57.0,42.0,-4.0,-46.0,-31.0,1034.0
-7.0,-11.0,244.0,-47.0,42.0,-3.0,-44.0,-30.0,1031.0
-9.0,-7.0,237.0,-41.0,41.0,-3.0,-46.0,-19.0,1036.0
-11.0,-6.0,239.0,-37.0,42.0,-1.0,-41.0,-26.0,1030.0
-12.0,-7.0,237.0,-38.0,38.0,-4.0,-43.0,-30.0,1029.0
-9.0,-8.0,236.0,-41.0,39.0,-2.0,-43.0,-29.0,1025.0
-8.0,-5.0,242.0,-43.0,37.0,-4.0,-42.0,-23.0,1022.0
-11.0,-5.0,241.0,-45.0,37.0,-3.0,-39.0,-23.0,1026.0
-9.0,-9.0,240.0,-43.0,36.0,-6.0,-43.0,-22.0,1024.0
-9.0,-6.0,237.0,-42.0,38.0,-4.0,-49.0,-23.0,1026.0
-11.0,-9.0,237.0,-43.0,39.0,-7.0,-43.0,-22.0,1022.0
-11.0,-4.0,235.0,-48.0,40.0,-7.0,-46.0,-27.0,1026.0
-10.0,-8.0,237.0,-59.0,42.0,-8.0,-39.0,-26.0,1022.0
-11.0,-9.0,240.0,-66.0,43.0,-5.0,-40.0,-28.0,1027.0
-9.0,-13.0,238.0,-70.0,44.0,-8.0,-42.0,-32.0,1021.0
-10.0,-8.0,238.0,-71.0,43.0,-7.0,-42.0,-35.0,1036.0
-11.0,-9.0,239.0,-64.0,45.0,-7.0,-49.0,-38.0,1035.0
-9.0,-11.0,238.0,-55.0,46.0,-6.0,-49.0,-40.0,1036.0
-9.0,-13.0,239.0,-44.0,49.0,-8.0,-46.0,-41.0,1029.0
-10.0,-13.0,243.0,-32.0,55.0,-4.0,-47.0,-42.0,1027.0
-11.0,-12.0,235.0,-22.0,59.0,-5.0,-44.0,-37.0,1025.0
-10.0,-11.0,234.0,-15.0,64.0,-1.0,-38.0,-40.0,1025.0
-11.0,-11.0,239.0,-16.0,66.0,-2.0,-42.0,-29.0,1017.0
-10.0,-7.0,236.0,-22.0,68.0,2.0,-45.0,-33.0,1018.0
-7.0,-6.0,238.0,-33.0,68.0,1.0,-42.0,-24.0,1021.0
-9.0,-7.0,239.0,-45.0,66.0,3.0,-41.0,-24.0,1021.0
-9.0,-5.0,236.0,-61.0,61.0,0.0,-40.0,-19.0,1022.0
-9.0,-6.0,235.0,-73.0,56.0,1.0,-40.0,-23.0,1018.0
-7.0,-5.0,238.0,-85.0,53.0,-4.0,-37.0,-27.0,1022.0
-7.0,-8.0,235.0,-94.0,47.0,-3.0,-36.0,-26.0,1026.0
-7.0,-13.0,233.0,-98.0,40.0,-6.0,-41.0,-30.0,1031.0
-10.0,-11.0,240.0,-97.0,37.0,-4.0,-40.0,-29.0,1028.0
-10.0,-6.0,243.0,-93.0,34.0,-7.0,-41.0,-33.0,1032.0
-9.0,-13.0,239.0,-85.0,30.0,-4.0,-39.0,-37.0,1028.0
-10.0,-11.0,240.0,-75.0,28.0,-7.0,-40.0,-38.0,1032.0
-11.0,-14.0,240.0,-64.0,26.0,-4.0,-44.0,-37.0,1034.0
-10.0,-12.0,237.0,-55.0,26.0,-6.0,-43.0,-43.0,1033.0
-9.0,-10.0,241.0,-44.0,27.0,-3.0,-43.0,-40.0,1030.0
-9.0,-6.0,236.0,-34.0,28.0,-5.0,-40.0,-41.0,1033.0
-11.0,-10.0,241.0,-27.0,29.0,-3.0,-44.0,-37.0,1031.0
-8.0,-11.0,239.0,-22.0,31.0,-3.0,-38.0,-40.0,1030.0
-9.0,-7.0,240.0,-21.0,31.0,0.0,-42.0,-36.0,1027.0
-7.0,-9.0,239.0,-20.0,32.0,-3.0,-43.0,-31.0,1027.0
-10.0,-10.0,239.0,-22.0,32.0,-1.0,-42.0,-36.0,1024.0
-12.0,-5.0,237.0,-24.0,31.0,-4.0,-40.0,-33.0,1027.0
-6.0,-11.0,238.0,-28.0,33.0,-1.0,-41.0,-31.0,1028.0
-9.0,-13.0,238.0,-30.0,35.0,-3.0,-42.0,-30.0,1028.0
-9.0,-13.0,236.0,-31.0,36.0,0.0,-39.0,-32.0,1025.0
-9.0,-8.0,240.0,-34.0,38.0,-4.0,-44.0,-32.0,1032.0
-11.0,-8.0,237.0,-36.0,39.0,-2.0,-42.0,-37.0,1026.0
-8.0,-12.0,234.0,-36.0,38.0,-4.0,-38.0,-35.0,1026.0
-8.0,-15.0,240.0,-37.0,37.0,-1.0,-41.0,-40.0,1025.0
-7.0,-10.0,237.0,-36.0,33.0,-4.0,-45.0,-40.0,1022.0
-10.0,-12.0,236.0,-36.0,32.0,-3.0,-38.0,-36.0,1022.0
-10.0,-13.0,239.0,-37.0,33.0,-3.0,-33.0,-39.0,1025.0
-10.0,-13.0,237.0,-37.0,30.0,-2.0,-35.0,-40.0,1026.0
-11.0,-9.0,236.0,-36.0,30.0,-5.0,-38.0,-35.0,1028.0
-9.0,-13.0,241.0,-33.0,29.0,-4.0,-38.0,-38.0,1026.0
-6.0,-8.0,239.0,-32.0,28.0,-5.0,-36.0,-40.0,1023.0
-10.0,-9.0,239.0,-31.0,28.0,-2.0,-36.0,-41.0,1024.0
-7.0,-12.0,238.0,-28.0,28.0,-6.0,-39.0,-34.0,1025.0
-7.0,-9.0,237.0,-27.0,28.0,-3.0,-33.0,-35.0,1027.0
-9.0,-11.0,237.0,-25.0,28.0,-4.0,-38.0,-29.0,1019.0
-9.0,-10.0,237.0,-24.0,29.0,-2.0,-32.0,-37.0,1024.0
-7.0,-8.0,236.0,-26.0,30.0,-4.0,-35.0,-40.0,1022.0
-10.0,-11.0,240.0,-27.0,32.0,-2.0,-36.0,-36.0,1025.0
-8.0,-10.0,236.0,-27.0,33.0,-4.0,-29.0,-40.0,1025.0
-8.0,-9.0,236.0,-30.0,34.0,-2.0,-30.0,-35.0,1025.0
-9.0,-9.0,238.0,-30.0,35.0,-5.0,-39.0,-38.0,1025.0
-7.0,-8.0,239.0,-33.0,35.0,-2.0,-37.0,-35.0,1025.0
-9.0,-9.0,232.0,-38.0,35.0,-3.0,-32.0,-31.0,1020.0
-8.0,-12.0,237.0,-40.0,35.0,-3.0,-28.0,-34.0,1026.0
-8.0,-8.0,239.0,-46.0,34.0,-4.0,-34.0,-37.0,1022.0
-8.0,-12.0,243.0,-49.0,32.0,-3.0,-32.0,-34.0,1026.0
-8.0,-7.0,239.0,-50.0,30.0,-6.0,-35.0,-38.0,1031.0
-9.0,-9.0,235.0,-47.0,30.0,-4.0,-32.0,-41.0,1030.0
-6.0,-12.0,238.0,-37.0,29.0,-6.0,-30.0,-38.0,1026.0
-7.0,-12.0,235.0,-28.0,30.0,-4.0,-34.0,-45.0,1024.0
-7.0,-10.0,240.0,-18.0,30.0,-6.0,-36.0,-48.0,1026.0
-8.0,-14.0,236.0,-8.0,33.0,-4.0,-33.0,-41.0,1021.0
-9.0,-14.0,240.0,-2.0,34.0,-6.0,-38.0,-43.0,1026.0
-8.0,-13.0,233.0,1.0,37.0,-2.0,-37.0,-43.0,1019.0
-5.0,-11.0,235.0,0.0,37.0,-3.0,-37.0,-44.0,1023.0
-8.0,-10.0,241.0,-4.0,40.0,-2.0,-31.0,-36.0,1024.0
-8.0,-11.0,238.0,-7.0,39.0,-5.0,-33.0,-40.0,1024.0
-10.0,-9.0,236.0,-14.0,38.0,-2.0,-29.0,-37.0,1022.0
-9.0,-8.0,237.0,-19.0,37.0,-4.0,-35.0,-37.0,1026.0
-7.0,-11.0,238.0,-21.0,36.0,-4.0,-33.0,-36.0,1021.0
-8.0,-13.0,241.0,-24.0,37.0,-5.0,-34.0,-37.0,1026.0
-8.0,-12.0,238.0,-25.0,37.0,-4.0,-34.0,-45.0,1023.0
-10.0,-8.0,237.0,-26.0,39.0,-4.0,-37.0,-38.0,1026.0
-7.0,-10.0,239.0,-26.0,38.0,-5.0,-35.0,-40.0,1028.0
-7.0,-12.0,239.0,-27.0,39.0,-7.0,-33.0,-42.0,1027.0
-8.0,-10.0,241.0,-29.0,41.0,-3.0,-32.0,-41.0,1027.0
-8.0,-11.0,240.0,-29.0,42.0,-6.0,-30.0,-37.0,1030.0
-7.0,-12.0,241.0,-30.0,43.0,-6.0,-29.0,-42.0,1028.0
-8.0,-12.0,240.0,-31.0,44.0,-6.0,-30.0,-47.0,1025.0
-5.0,-12.0,240.0,-32.0,44.0,-4.0,-26.0,-44.0,1031.0
-7.0,-9.0,237.0,-32.0,44.0,-6.0,-33.0,-42.0,1032.0
-7.0,-14.0,239.0,-31.0,44.0,-6.0,-31.0,-42.0,1028.0
-6.0,-14.0,235.0,-28.0,43.0,-7.0,-31.0,-41.0,1027.0
-6.0,-13.0,243.0,-25.0,42.0,-4.0,-30.0,-44.0,1026.0
-8.0,-11.0,237.0,-20.0,40.0,-5.0,-28.0,-41.0,1026.0
-5.0,-13.0,238.0,-15.0,39.0,-5.0,-34.0,-45.0,1025.0
-9.0,-10.0,239.0,-11.0,39.0,-6.0,-24.0,-38.0,1023.0
-8.0,-13.0,236.0,-10.0,39.0,-3.0,-29.0,-41.0,1025.0
-8.0,-16.0,234.0,-9.0,39.0,-5.0,-26.0,-44.0,1024.0
-7.0,-11.0,239.0,-7.0,39.0,-4.0,-27.0,-39.0,1025.0
-6.0,-14.0,238.0,-9.0,38.0,-4.0,-32.0,-39.0,1024.0
-5.0,-14.0,235.0,-8.0,39.0,-2.0,-25.0,-40.0,1024.0
-7.0,-8.0,236.0,-10.0,40.0,-4.0,-29.0,-41.0,1019.0
-6.0,-13.0,238.0,-12.0,42.0,-3.0,-25.0,-42.0,1025.0
-9.0,-10.0,234.0,-14.0,41.0,-4.0,-26.0,-40.0,1020.0
-5.0,-8.0,238.0,-13.0,41.0,-2.0,-31.0,-41.0,1023.0
-6.0,-12.0,240.0,-14.0,42.0,-3.0,-31.0,-39.0,1023.0
-6.0,-11.0,235.0,-13.0,42.0,-2.0,-25.0,-41.0,1021.0
-7.0,-11.0,238.0,-14.0,43.0,-4.0,-27.0,-43.0,1027.0
-4.0,-12.0,241.0,-14.0,44.0,-3.0,-20.0,-38.0,1024.0
-5.0,-10.0,240.0,-15.0,43.0,-4.0,-29.0,-42.0,1029.0
-5.0,-12.0,239.0,-14.0,44.0,-4.0,-29.0,-43.0,1028.0
-6.0,-14.0,236.0,-16.0,43.0,-4.0,-27.0,-41.0,1023.0
-8.0,-11.0,238.0,-18.0,42.0,-5.0,-27.0,-41.0,1026.0
-6.0,-12.0,236.0,-21.0,42.0,-5.0,-29.0,-40.0,1028.0
-5.0,-16.0,238.0,-23.0,42.0,-4.0,-26.0,-46.0,1025.0
-7.0,-13.0,237.0,-22.0,42.0,-5.0,-28.0,-37.0,1029.0
-6.0,-11.0,238.0,-24.0,42.0,-4.0,-32.0,-44.0,1026.0
-3.0,-13.0,243.0,-24.0,41.0,-6.0,-28.0,-42.0,1028.0
-8.0,-11.0,242.0,-25.0,42.0,-5.0,-25.0,-37.0,1030.0
-5.0,-12.0,237.0,-26.0,41.0,-5.0,-24.0,-44.0,1027.0
-6.0,-13.0,239.0,-28.0,39.0,-5.0,-24.0,-41.0,1030.0
-4.0,-9.0,240.0,-31.0,40.0,-6.0,-25.0,-41.0,1028.0
-5.0,-13.0,240.0,-30.0,38.0,-4.0,-23.0,-39.0,1027.0
-4.0,-13.0,240.0,-31.0,37.0,-6.0,-23.0,-36.0,1029.0
-6.0,-7.0,241.0,-30.0,37.0,-5.0,-28.0,-38.0,1028.0
-5.0,-11.0,241.0,-27.0,36.0,-4.0,-27.0,-43.0,1025.0
-8.0,-15.0,237.0,-23.0,35.0,-3.0,-26.0,-41.0,1026.0
-5.0,-12.0,240.0,-21.0,36.0,-4.0,-33.0,-45.0,1025.0
-5.0,-15.0,238.0,-18.0,36.0,-3.0,-25.0,-44.0,1024.0
-6.0,-14.0,236.0,-13.0,36.0,-2.0,-26.0,-46.0,1021.0
-8.0,-12.0,239.0,-8.0,38.0,-2.0,-28.0,-45.0,1022.0
-9.0,-13.0,237.0,-1.0,40.0,-3.0,-26.0,-45.0,1017.0
-6.0,-13.0,236.0,1.0,44.0,-1.0,-25.0,-42.0,1022.0
-5.0,-12.0,237.0,2.0,46.0,-3.0,-26.0,-42.0,1024.0
-5.0,-11.0,233.0,-1.0,49.0,-2.0,-26.0,-43.0,1022.0
-5.0,-17.0,235.0,-6.0,51.0,-2.0,-34.0,-38.0,1023.0
-8.0,-11.0,238.0,-13.0,52.0,-4.0,-27.0,-38.0,1024.0
-5.0,-12.0,237.0,-18.0,52.0,-2.0,-21.0,-38.0,1022.0
-9.0,-12.0,236.0,-23.0,50.0,-2.0,-26.0,-40.0,1022.0
-6.0,-14.0,238.0,-26.0,48.0,0.0,-30.0,-41.0,1023.0
-9.0,-10.0,234.0,-23.0,45.0,-1.0,-20.0,-43.0,1024.0
-3.0,-13.0,238.0,-19.0,42.0,-1.0,-24.0,-46.0,1023.0
-8.0,-13.0,238.0,-12.0,40.0,-1.0,-24.0,-46.0,1024.0
-7.0,-11.0,238.0,-6.0,39.0,0.0,-26.0,-44.0,1025.0
-7.0,-13.0,241.0,0.0,38.0,0.0,-22.0,-42.0,1020.0
-5.0,-12.0,239.0,5.0,41.0,1.0,-25.0,-45.0,1025.0
-6.0,-10.0,238.0,6.0,42.0,-2.0,-24.0,-39.0,1022.0
-4.0,-13.0,235.0,5.0,45.0,-2.0,-24.0,-39.0,1024.0
-5.0,-8.0,238.0,2.0,47.0,-2.0,-26.0,-40.0,1016.0
-7.0,-12.0,237.0,-7.0,47.0,-2.0,-22.0,-38.0,1023.0
-3.0,-12.0,237.0,-12.0,46.0,-2.0,-20.0,-39.0,1021.0
-3.0,-9.0,240.0,-9.0,45.0,-2.0,-18.0,-41.0,1022.0
-4.0,-12.0,238.0,-2.0,45.0,-2.0,-22.0,-42.0,1023.0
-6.0,-11.0,236.0,10.0,46.0,-1.0,-22.0,-45.0,1011.0
-7.0,-14.0,235.0,22.0,49.0,-2.0,-22.0,-42.0,1020.0
-10.0,-10.0,235.0,30.0,55.0,-2.0,-31.0,-43.0,1006.0
-5.0,-11.0,235.0,33.0,59.0,-5.0,-29.0,-44.0,1008.0
-5.0,-11.0,236.0,31.0,64.0,-4.0,-28.0,-41.0,1006.0
-5.0,-13.0,230.0,23.0,68.0,-3.0,-24.0,-40.0,1007.0
-6.0,-9.0,233.0,14.0,70.0,-1.0,-24.0,-36.0,1010.0
-9.0,-8.0,233.0,7.0,71.0,-3.0,-25.0,-36.0,1015.0
-6.0,-10.0,237.0,2.0,69.0,-2.0,-24.0,-39.0,1017.0
-3.0,-11.0,237.0,3.0,68.0,-3.0,-25.0,-44.0,1023.0
-6.0,-13.0,237.0,5.0,67.0,0.0,-21.0,-44.0,1023.0
-6.0,-16.0,238.0,11.0,67.0,-1.0,-23.0,-43.0,1026.0
-4.0,-13.0,237.0,17.0,67.0,2.0,-20.0,-43.0,1023.0
-6.0,-13.0,236.0,23.0,70.0,3.0,-20.0,-42.0,1014.0
-5.0,-11.0,237.0,25.0,74.0,6.0,-24.0,-40.0,1028.0
-8.0,-8.0,238.0,25.0,77.0,5.0,-22.0,-37.0,1021.0
-5.0,-12.0,237.0,23.0,79.0,5.0,-21.0,-35.0,1018.0
-3.0,-7.0,234.0,17.0,81.0,4.0,-25.0,-32.0,1017.0
-6.0,-8.0,239.0,12.0,77.0,4.0,-23.0,-33.0,1014.0
-4.0,-5.0,237.0,6.0,75.0,1.0,-26.0,-33.0,1022.0
-5.0,-8.0,234.0,2.0,73.0,2.0,-24.0,-31.0,1023.0
-6.0,-8.0,242.0,-1.0,69.0,-1.0,-24.0,-31.0,1021.0
-4.0,-6.0,236.0,-5.0,67.0,0.0,-24.0,-32.0,1022.0
-8.0,-8.0,236.0,-7.0,62.0,-3.0,-24.0,-32.0,1026.0
-4.0,-11.0,243.0,-7.0,60.0,-2.0,-25.0,-34.0,1023.0
-6.0,-10.0,236.0,-6.0,57.0,-4.0,-24.0,-40.0,1025.0
-5.0,-11.0,239.0,-5.0,57.0,0.0,-27.0,-39.0,1020.0
-6.0,-11.0,240.0,-4.0,59.0,-3.0,-25.0,-36.0,1027.0
-6.0,-11.0,242.0,1.0,61.0,-1.0,-25.0,-38.0,1027.0
-6.0,-13.0,256.0,3.0,62.0,-2.0,-24.0,-32.0,1030.0
-7.0,-12.0,236.0,6.0,65.0,1.0,-24.0,-33.0,1030.0
-7.0,-7.0,237.0,8.0,66.0,0.0,-23.0,-37.0,1029.0
-9.0,-8.0,242.0,10.0,70.0,2.0,-25.0,-39.0,1029.0
-8.0,-9.0,234.0,12.0,71.0,0.0,-22.0,-37.0,1029.0
-7.0,-8.0,240.0,11.0,71.0,3.0,-20.0,-35.0,1025.0
-6.0,-8.0,240.0,11.0,73.0,-1.0,-22.0,-35.0,1033.0
-8.0,-10.0,237.0,10.0,73.0,1.0,-25.0,-37.0,1026.0
-7.0,-8.0,240.0,8.0,72.0,1.0,-25.0,-32.0,1031.0
-4.0,-9.0,236.0,7.0,72.0,3.0,-24.0,-39.0,1025.0
-7.0,-9.0,239.0,6.0,72.0,0.0,-31.0,-38.0,1029.0
-6.0,-11.0,240.0,6.0,71.0,3.0,-27.0,-35.0,1029.0
-8.0,-14.0,240.0,7.0,70.0,1.0,-26.0,-39.0,1027.0
-4.0,-10.0,235.0,9.0,67.0,2.0,-25.0,-34.0,1028.0
-6.0,-8.0,238.0,9.0,66.0,-1.0,-26.0,-41.0,1025.0
-6.0,-13.0,237.0,9.0,65.0,1.0,-32.0,-39.0,1022.0
-5.0,-10.0,234.0,10.0,64.0,-1.0,-24.0,-36.0,1026.0
-6.0,-7.0,239.0,9.0,65.0,0.0,-28.0,-38.0,1023.0
-7.0,-9.0,237.0,7.0,64.0,-1.0,-24.0,-31.0,1024.0
-5.0,-9.0,237.0,8.0,63.0,2.0,-25.0,-36.0,1023.0
-5.0,-10.0,239.0,9.0,64.0,0.0,-25.0,-34.0,1020.0
-6.0,-9.0,237.0,10.0,63.0,2.0,-28.0,-38.0,1025.0
-4.0,-11.0,237.0,7.0,65.0,1.0,-28.0,-29.0,1032.0
-7.0,-11.0,234.0,7.0,65.0,3.0,-27.0,-39.0,1021.0
-6.0,-8.0,241.0,7.0,68.0,1.0,-24.0,-37.0,1024.0
-6.0,-10.0,236.0,7.0,67.0,3.0,-29.0,-34.0,1025.0
-7.0,-9.0,238.0,8.0,69.0,0.0,-24.0,-33.0,1027.0
-7.0,-12.0,236.0,11.0,70.0,3.0,-27.0,-34.0,1025.0
-6.0,-6.0,236.0,11.0,70.0,-1.0,-28.0,-34.0,1028.0
-7.0,-6.0,234.0,11.0,72.0,2.0,-30.0,-36.0,1028.0
-6.0,-8.0,239.0,11.0,73.0,0.0,-23.0,-33.0,1026.0
-6.0,-7.0,241.0,9.0,74.0,3.0,-28.0,-27.0,1029.0
-4.0,-9.0,238.0,5.0,72.0,3.0,-27.0,-30.0,1025.0
-5.0,-7.0,236.0,0.0,71.0,4.0,-27.0,-30.0,1024.0
-6.0,-10.0,236.0,-6.0,69.0,1.0,-26.0,-27.0,1025.0
-7.0,-10.0,237.0,-11.0,70.0,3.0,-27.0,-32.0,1027.0
-9.0,-9.0,240.0,-16.0,67.0,-2.0,-27.0,-31.0,1025.0
-7.0,-10.0,238.0,-19.0,66.0,0.0,-27.0,-33.0,1028.0
-7.0,-8.0,237.0,-20.0,67.0,-3.0,-27.0,-31.0,1026.0
-8.0,-8.0,238.0,-21.0,68.0,0.0,-26.0,-32.0,1025.0
-8.0,-8.0,241.0,-18.0,67.0,-3.0,-28.0,-36.0,1026.0
-7.0,-12.0,239.0,-14.0,68.0,1.0,-26.0,-34.0,1022.0
-7.0,-8.0,241.0,-10.0,69.0,-1.0,-32.0,-38.0,1029.0
-9.0,-10.0,239.0,-4.0,70.0,1.0,-28.0,-35.0,1028.0
-7.0,-13.0,236.0,1.0,72.0,1.0,-32.0,-35.0,1025.0
-5.0,-9.0,242.0,4.0,72.0,3.0,-27.0,-37.0,1024.0
-7.0,-10.0,237.0,3.0,73.0,-1.0,-33.0,-36.0,1026.0
-6.0,-11.0,236.0,1.0,73.0,3.0,-27.0,-34.0,1027.0
-6.0,-8.0,241.0,-1.0,73.0,-1.0,-33.0,-31.0,1023.0
-7.0,-11.0,242.0,-6.0,72.0,2.0,-31.0,-32.0,1029.0
-8.0,-9.0,237.0,-8.0,70.0,-2.0,-28.0,-30.0,1030.0
-7.0,-9.0,239.0,-9.0,69.0,1.0,-26.0,-32.0,1028.0
-5.0,-11.0,238.0,-11.0,70.0,-2.0,-31.0,-27.0,1027.0
-5.0,-10.0,238.0,-11.0,68.0,-1.0,-29.0,-29.0,1027.0
-5.0,-7.0,237.0,-12.0,68.0,-3.0,-27.0,-30.0,1033.0
-6.0,-10.0,235.0,-12.0,67.0,-2.0,-29.0,-31.0,1028.0
-6.0,-8.0,238.0,-13.0,67.0,-2.0,-34.0,-35.0,1029.0
-8.0,-8.0,239.0,-13.0,67.0,-1.0,-28.0,-34.0,1029.0
-5.0,-11.0,241.0,-12.0,66.0,-4.0,-29.0,-35.0,1028.0
-6.0,-9.0,240.0,-12.0,64.0,0.0,-25.0,-37.0,1028.0
-8.0,-8.0,240.0,-10.0,64.0,-2.0,-25.0,-30.0,1033.0
-7.0,-8.0,241.0,-7.0,64.0,0.0,-27.0,-28.0,1030.0
-4.0,-12.0,241.0,-4.0,62.0,-2.0,-30.0,-33.0,1026.0
-5.0,-8.0,237.0,-4.0,62.0,1.0,-31.0,-33.0,1027.0
-6.0,-12.0,238.0,-1.0,61.0,-2.0,-27.0,-29.0,1029.0
-7.0,-7.0,236.0,1.0,59.0,2.0,-36.0,-27.0,1027.0
-3.0,-11.0,239.0,2.0,60.0,-2.0,-33.0,-28.0,1030.0
-9.0,-6.0,240.0,3.0,61.0,2.0,-24.0,-28.0,1027.0
-6.0,-10.0,241.0,4.0,61.0,0.0,-32.0,-31.0,1025.0
-6.0,-8.0,235.0,4.0,60.0,1.0,-31.0,-31.0,1024.0
-9.0,-10.0,236.0,6.0,62.0,0.0,-28.0,-34.0,1025.0
-6.0,-7.0,238.0,6.0,64.0,3.0,-31.0,-29.0,1023.0
-8.0,-7.0,237.0,5.0,64.0,0.0,-28.0,-30.0,1023.0
-5.0,-7.0,236.0,4.0,66.0,2.0,-30.0,-33.0,1024.0
-4.0,-10.0,238.0,5.0,68.0,-1.0,-29.0,-35.0,1025.0
-6.0,-10.0,241.0,4.0,69.0,1.0,-32.0,-36.0,1025.0
-7.0,-10.0,240.0,4.0,70.0,-2.0,-27.0,-31.0,1025.0
-7.0,-6.0,238.0,0.0,70.0,0.0,-28.0,-34.0,1024.0
-6.0,-5.0,238.0,-1.0,72.0,0.0,-27.0,-31.0,1027.0
-5.0,-7.0,237.0,-4.0,70.0,1.0,-29.0,-31.0,1028.0
-8.0,-9.0,238.0,-5.0,69.0,0.0,-28.0,-30.0,1026.0
-9.0,-4.0,239.0,-7.0,71.0,1.0,-32.0,-30.0,1025.0
-7.0,-7.0,242.0,-9.0,70.0,0.0,-27.0,-31.0,1024.0
-5.0,-11.0,237.0,-10.0,68.0,1.0,-28.0,-33.0,1027.0
-8.0,-11.0,239.0,-10.0,67.0,0.0,-32.0,-32.0,1031.0
-9.0,-7.0,240.0,-10.0,66.0,1.0,-26.0,-33.0,1031.0
-1.0,-1.0,239.0,-11.0,64.0,0.0,-32.0,-32.0,1029.0
-10.0,-6.0,235.0,-9.0,64.0,1.0,-32.0,-29.0,1030.0
-7.0,-8.0,235.0,-10.0,63.0,-2.0,-28.0,-33.0,1029.0
-1.0,-11.0,226.0,-9.0,63.0,0.0,-34.0,-33.0,1029.0
-6.0,-3.0,238.0,-9.0,63.0,-2.0,-27.0,-32.0,1030.0
-2.0,-17.0,236.0,-10.0,61.0,0.0,-29.0,-27.0,1031.0
-4.0,-12.0,222.0,-12.0,62.0,-1.0,-30.0,-24.0,1025.0
-16.0,-15.0,245.0,-12.0,61.0,1.0,-27.0,-27.0,1026.0
-6.0,-9.0,239.0,-12.0,61.0,-2.0,-28.0,-28.0,1024.0
-8.0,-12.0,243.0,-10.0,59.0,0.0,-29.0,-30.0,1025.0
-5.0,-9.0,236.0,-9.0,60.0,-1.0,-29.0,-33.0,1025.0
-6.0,-10.0,238.0,-8.0,60.0,-1.0,-31.0,-31.0,1025.0
-7.0,-5.0,236.0,-7.0,59.0,-2.0,-27.0,-33.0,1024.0
-9.0,-10.0,236.0,-5.0,60.0,0.0,-28.0,-33.0,1025.0
-9.0,-8.0,238.0,-1.0,60.0,0.0,-31.0,-31.0,1027.0
-7.0,-8.0,237.0,2.0,60.0,0.0,-38.0,-28.0,1025.0
-7.0,-8.0,239.0,5.0,61.0,-1.0,-36.0,-32.0,1026.0
-7.0,-8.0,237.0,8.0,63.0,-1.0,-32.0,-27.0,1027.0
-8.0,-9.0,239.0,8.0,67.0,-1.0,-30.0,-31.0,1024.0
-7.0,-9.0,236.0,5.0,69.0,1.0,-29.0,-26.0,1027.0
-7.0,-4.0,239.0,-3.0,73.0,-1.0,-30.0,-29.0,1029.0
-4.0,-8.0,241.0,-11.0,72.0,1.0,-30.0,-28.0,1029.0
-5.0,-6.0,238.0,-19.0,72.0,0.0,-28.0,-28.0,1028.0
-5.0,-5.0,243.0,-27.0,70.0,0.0,-27.0,-25.0,1031.0
-7.0,-9.0,243.0,-30.0,68.0,0.0,-26.0,-30.0,1034.0
-4.0,-6.0,242.0,-31.0,66.0,0.0,-31.0,-31.0,1032.0
-7.0,-7.0,236.0,-29.0,64.0,-1.0,-33.0,-36.0,1034.0
-6.0,-9.0,241.0,-22.0,63.0,0.0,-31.0,-35.0,1033.0
-8.0,-13.0,240.0,-15.0,62.0,0.0,-29.0,-28.0,1031.0
-8.0,-10.0,235.0,-8.0,63.0,-1.0,-34.0,-34.0,1027.0
-6.0,-10.0,235.0,2.0,63.0,-2.0,-32.0,-34.0,1030.0
-7.0,-10.0,241.0,7.0,65.0,-1.0,-28.0,-36.0,1024.0
-6.0,-9.0,240.0,9.0,66.0,-2.0,-33.0,-39.0,1027.0
-6.0,-8.0,239.0,9.0,66.0,-2.0,-34.0,-33.0,1024.0
-7.0,-12.0,238.0,8.0,68.0,-2.0,-34.0,-33.0,1025.0
-8.0,-4.0,240.0,10.0,67.0,-1.0,-28.0,-30.0,1023.0
-9.0,-6.0,238.0,15.0,67.0,-3.0,-34.0,-28.0,1023.0
-7.0,-8.0,236.0,22.0,68.0,-2.0,-32.0,-24.0,1021.0
-9.0,-4.0,236.0,25.0,70.0,-4.0,-35.0,-26.0,1022.0
-8.0,-5.0,233.0,23.0,72.0,-4.0,-37.0,-24.0,1017.0
-9.0,-8.0,233.0,19.0,75.0,-5.0,-37.0,-23.0,1020.0
-7.0,-5.0,234.0,8.0,75.0,-4.0,-34.0,-27.0,1024.0
-11.0,-6.0,238.0,2.0,77.0,-5.0,-29.0,-22.0,1025.0
-10.0,-7.0,238.0,-5.0,78.0,-5.0,-34.0,-25.0,1024.0
-8.0,-7.0,236.0,-10.0,78.0,-5.0,-38.0,-28.0,1029.0
-6.0,-9.0,238.0,-11.0,80.0,-5.0,-33.0,-30.0,1031.0
-9.0,-9.0,239.0,-11.0,82.0,-5.0,-35.0,-36.0,1034.0
-8.0,-9.0,239.0,-7.0,86.0,-6.0,-37.0,-32.0,1035.0
-9.0,-11.0,242.0,-1.0,89.0,-4.0,-36.0,-37.0,1028.0
-8.0,-12.0,238.0,7.0,94.0,-3.0,-33.0,-36.0,1030.0
-9.0,-7.0,241.0,12.0,99.0,-1.0,-33.0,-30.0,1018.0
-9.0,-10.0,237.0,17.0,101.0,0.0,-31.0,-34.0,1025.0
-9.0,-6.0,236.0,19.0,103.0,1.0,-31.0,-30.0,1018.0
-10.0,-7.0,235.0,19.0,104.0,2.0,-29.0,-28.0,1021.0
-10.0,-4.0,239.0,18.0,102.0,3.0,-32.0,-29.0,1023.0
-7.0,-6.0,235.0,11.0,101.0,3.0,-31.0,-29.0,1013.0
-10.0,-4.0,238.0,3.0,95.0,3.0,-33.0,-24.0,1018.0
-8.0,-5.0,235.0,-3.0,90.0,2.0,-33.0,-24.0,1020.0
-8.0,-6.0,239.0,-11.0,85.0,-1.0,-37.0,-23.0,1024.0
-7.0,-4.0,236.0,-17.0,80.0,-1.0,-34.0,-22.0,1024.0
-4.0,-6.0,236.0,-22.0,77.0,-1.0,-38.0,-19.0,1027.0
-9.0,-6.0,240.0,-27.0,73.0,-3.0,-34.0,-18.0,1023.0
-6.0,-6.0,237.0,-28.0,72.0,-3.0,-37.0,-24.0,1027.0
-8.0,-5.0,241.0,-31.0,72.0,-5.0,-32.0,-23.0,1032.0
-9.0,-7.0,239.0,-31.0,70.0,-6.0,-36.0,-25.0,1033.0
-7.0,-10.0,238.0,-28.0,69.0,-6.0,-38.0,-27.0,1031.0
-9.0,-4.0,242.0,-28.0,70.0,-5.0,-34.0,-26.0,1033.0
-8.0,-10.0,242.0,-24.0,68.0,-5.0,-37.0,-29.0,1037.0
-8.0,-6.0,241.0,-23.0,69.0,-4.0,-39.0,-26.0,1030.0
-8.0,-7.0,241.0,-20.0,70.0,-5.0,-34.0,-32.0,1037.0
-10.0,-8.0,240.0,-15.0,70.0,-2.0,-30.0,-28.0,1034.0
-9.0,-9.0,238.0,-12.0,70.0,-4.0,-37.0,-27.0,1036.0
-9.0,-5.0,242.0,-9.0,72.0,-3.0,-36.0,-32.0,1031.0
-9.0,-8.0,241.0,-6.0,71.0,-3.0,-36.0,-32.0,1034.0
-10.0,-11.0,239.0,-4.0,72.0,-2.0,-33.0,-25.0,1032.0
-10.0,-7.0,239.0,-1.0,75.0,-4.0,-36.0,-29.0,1034.0
-10.0,-6.0,238.0,0.0,75.0,-2.0,-37.0,-23.0,1025.0
-8.0,-10.0,235.0,-1.0,76.0,-2.0,-35.0,-26.0,1031.0
-10.0,-7.0,239.0,0.0,76.0,-1.0,-38.0,-30.0,1025.0
-8.0,-7.0,238.0,0.0,76.0,-3.0,-39.0,-27.0,1024.0
-11.0,-6.0,239.0,-1.0,75.0,-2.0,-37.0,-32.0,1022.0
-8.0,-9.0,235.0,0.0,75.0,-2.0,-39.0,-30.0,1025.0
-7.0,-10.0,235.0,-1.0,73.0,0.0,-35.0,-31.0,1030.0
-10.0,-9.0,238.0,-2.0,72.0,-3.0,-39.0,-31.0,1027.0
-10.0,-4.0,239.0,-2.0,70.0,-1.0,-40.0,-27.0,1028.0
-8.0,-8.0,239.0,-2.0,69.0,-2.0,-37.0,-31.0,1019.0
-9.0,-6.0,234.0,-4.0,67.0,-1.0,-35.0,-24.0,1025.0
-7.0,-8.0,236.0,-6.0,67.0,-3.0,-38.0,-26.0,1028.0
-9.0,-6.0,237.0,-7.0,66.0,0.0,-38.0,-27.0,1037.0
-9.0,-9.0,237.0,-7.0,66.0,-2.0,-35.0,-28.0,1028.0
-10.0,-9.0,241.0,-7.0,66.0,-1.0,-37.0,-30.0,1027.0
-8.0,-6.0,239.0,-8.0,66.0,-1.0,-41.0,-29.0,1026.0
-9.0,-8.0,238.0,-8.0,67.0,1.0,-41.0,-31.0,1030.0
-9.0,-10.0,241.0,-9.0,66.0,-1.0,-39.0,-27.0,1028.0
-12.0,-9.0,238.0,-11.0,65.0,1.0,-39.0,-25.0,1025.0
-9.0,-9.0,241.0,-13.0,65.0,0.0,-39.0,-30.0,1031.0
-10.0,-11.0,239.0,-13.0,64.0,2.0,-38.0,-27.0,1026.0
-9.0,-8.0,239.0,-13.0,64.0,1.0,-39.0,-27.0,1030.0
-10.0,-8.0,240.0,-14.0,62.0,3.0,-38.0,-26.0,1027.0
-8.0,-9.0,241.0,-15.0,60.0,1.0,-37.0,-23.0,1031.0
-10.0,-4.0,238.0,-19.0,58.0,2.0,-39.0,-25.0,1029.0
-9.0,-4.0,240.0,-24.0,56.0,1.0,-37.0,-26.0,1029.0
-10.0,-4.0,242.0,-29.0,55.0,2.0,-36.0,-19.0,1027.0
-8.0,-4.0,242.0,-35.0,53.0,-1.0,-38.0,-24.0,1033.0
-8.0,-6.0,238.0,-40.0,53.0,0.0,-38.0,-26.0,1029.0
-10.0,-9.0,241.0,-44.0,52.0,-3.0,-38.0,-29.0,1030.0
-8.0,-10.0,239.0,-43.0,51.0,-1.0,-43.0,-29.0,1024.0
-12.0,-8.0,244.0,-33.0,52.0,-3.0,-39.0,-32.0,1028.0
-7.0,-12.0,239.0,-26.0,53.0,-2.0,-41.0,-30.0,1030.0
-9.0,-11.0,239.0,-16.0,55.0,-4.0,-41.0,-37.0,1026.0
-8.0,-11.0,240.0,-9.0,58.0,-2.0,-40.0,-31.0,1025.0
-8.0,-11.0,238.0,-4.0,59.0,-3.0,-34.0,-30.0,1025.0
-10.0,-8.0,238.0,-1.0,60.0,-2.0,-42.0,-29.0,1024.0
-8.0,-7.0,236.0,-2.0,58.0,-3.0,-40.0,-32.0,1027.0
-12.0,-6.0,239.0,-5.0,58.0,0.0,-37.0,-30.0,1026.0
-10.0,-5.0,239.0,-7.0,58.0,-3.0,-36.0,-29.0,1024.0
-10.0,-7.0,239.0,-10.0,56.0,-1.0,-37.0,-22.0,1027.0
-7.0,-7.0,237.0,-13.0,56.0,-1.0,-33.0,-25.0,1024.0
-8.0,-5.0,241.0,-16.0,54.0,-1.0,-31.0,-25.0,1030.0
-10.0,-6.0,240.0,-17.0,54.0,-3.0,-41.0,-26.0,1026.0
-11.0,-6.0,236.0,-19.0,53.0,-1.0,-37.0,-24.0,1028.0
-11.0,-8.0,236.0,-20.0,53.0,-4.0,-36.0,-24.0,1027.0
-9.0,-7.0,236.0,-23.0,54.0,-2.0,-36.0,-27.0,1024.0
-8.0,-10.0,241.0,-24.0,55.0,-4.0,-38.0,-26.0,1027.0
-9.0,-7.0,236.0,-25.0,56.0,-1.0,-38.0,-31.0,1025.0
-8.0,-8.0,242.0,-27.0,57.0,-3.0,-37.0,-29.0,1028.0
-9.0,-8.0,235.0,-27.0,58.0,0.0,-38.0,-24.0,1027.0
-8.0,-7.0,239.0,-27.0,58.0,-1.0,-37.0,-27.0,1029.0
-7.0,-8.0,237.0,-27.0,61.0,1.0,-34.0,-30.0,1026.0
-10.0,-7.0,238.0,-26.0,60.0,0.0,-35.0,-27.0,1028.0
-11.0,-9.0,237.0,-23.0,60.0,1.0,-40.0,-32.0,1023.0
-10.0,-9.0,242.0,-19.0,61.0,-1.0,-34.0,-30.0,1028.0
-9.0,-7.0,236.0,-16.0,60.0,2.0,-39.0,-30.0,1023.0
-8.0,-4.0,238.0,-13.0,61.0,-1.0,-37.0,-26.0,1030.0
-10.0,-10.0,234.0,-10.0,60.0,1.0,-37.0,-32.0,1026.0
-10.0,-9.0,238.0,-8.0,61.0,-3.0,-42.0,-29.0,1028.0
-9.0,-8.0,235.0,-7.0,60.0,0.0,-38.0,-27.0,1025.0
-11.0,-5.0,237.0,-8.0,59.0,-2.0,-39.0,-28.0,1024.0
-11.0,-5.0,238.0,-8.0,59.0,1.0,-38.0,-25.0,1029.0
-8.0,-9.0,237.0,-10.0,57.0,-2.0,-37.0,-28.0,1028.0
-9.0,-7.0,239.0,-12.0,58.0,0.0,-39.0,-26.0,1023.0
-9.0,-8.0,237.0,-15.0,58.0,-2.0,-39.0,-24.0,1024.0
-6.0,-6.0,235.0,-15.0,59.0,1.0,-38.0,-29.0,1024.0
-8.0,-5.0,238.0,-16.0,59.0,-3.0,-38.0,-30.0,1025.0
-7.0,-9.0,239.0,-14.0,59.0,0.0,-37.0,-28.0,1025.0
-7.0,-11.0,242.0,-15.0,59.0,-3.0,-40.0,-31.0,1026.0
-8.0,-6.0,238.0,-14.0,62.0,0.0,-34.0,-28.0,1031.0
-9.0,-4.0,241.0,-13.0,62.0,-3.0,-32.0,-33.0,1026.0
-7.0,-7.0,241.0,-13.0,62.0,0.0,-37.0,-32.0,1023.0
-9.0,-5.0,237.0,-14.0,61.0,-2.0,-41.0,-29.0,1022.0
-7.0,-7.0,240.0,-15.0,62.0,-1.0,-39.0,-29.0,1030.0
-8.0,-9.0,236.0,-14.0,62.0,-1.0,-37.0,-30.0,1027.0
-6.0,-8.0,235.0,-15.0,61.0,0.0,-37.0,-26.0,1027.0
-8.0,-6.0,236.0,-15.0,61.0,-2.0,-35.0,-29.0,1027.0
-10.0,-5.0,238.0,-17.0,61.0,1.0,-36.0,-26.0,1030.0
-7.0,-7.0,239.0,-15.0,61.0,-2.0,-39.0,-30.0,1025.0
-6.0,-6.0,243.0,-15.0,61.0,1.0,-39.0,-27.0,1026.0
-7.0,-9.0,240.0,-15.0,60.0,-1.0,-35.0,-30.0,1025.0
-10.0,-7.0,237.0,-15.0,60.0,1.0,-38.0,-27.0,1027.0
-8.0,-8.0,239.0,-13.0,60.0,-3.0,-35.0,-29.0,1024.0
-8.0,-8.0,240.0,-13.0,61.0,0.0,-39.0,-30.0,1028.0
-9.0,-9.0,242.0,-11.0,60.0,-1.0,-31.0,-25.0,1023.0
-9.0,-8.0,236.0,-12.0,61.0,1.0,-37.0,-27.0,1021.0
-9.0,-7.0,242.0,-11.0,63.0,0.0,-39.0,-34.0,1025.0
-12.0,-4.0,236.0,-9.0,61.0,1.0,-40.0,-24.0,1027.0
-11.0,-5.0,238.0,-9.0,61.0,-1.0,-45.0,-25.0,1025.0
-9.0,-10.0,236.0,-8.0,61.0,1.0,-39.0,-26.0,1022.0
-11.0,-5.0,239.0,-10.0,59.0,-1.0,-42.0,-31.0,1026.0
-9.0,-12.0,237.0,-10.0,59.0,1.0,-42.0,-33.0,1023.0
-11.0,-4.0,236.0,-11.0,59.0,-1.0,-40.0,-28.0,1028.0
-10.0,-7.0,236.0,-13.0,57.0,0.0,-43.0,-26.0,1023.0
-9.0,-9.0,237.0,-14.0,57.0,-2.0,-39.0,-26.0,1025.0
-9.0,-11.0,235.0,-16.0,54.0,0.0,-38.0,-31.0,1027.0
-10.0,-10.0,237.0,-18.0,54.0,-2.0,-40.0,-30.0,1027.0
-10.0,-8.0,240.0,-19.0,53.0,0.0,-43.0,-27.0,1022.0
-11.0,-12.0,239.0,-19.0,53.0,-3.0,-42.0,-34.0,1027.0
-8.0,-10.0,235.0,-18.0,53.0,0.0,-42.0,-30.0,1027.0
-11.0,-8.0,239.0,-18.0,52.0,-2.0,-37.0,-31.0,1025.0
-9.0,-8.0,237.0,-13.0,54.0,1.0,-42.0,-35.0,1026.0
-12.0,-11.0,238.0,-8.0,55.0,-1.0,-42.0,-37.0,1029.0
-9.0,-8.0,238.0,-2.0,54.0,1.0,-40.0,-37.0,1025.0
-9.0,-5.0,241.0,7.0,58.0,0.0,-40.0,-31.0,1024.0
-9.0,-8.0,237.0,14.0,59.0,0.0,-39.0,-33.0,1023.0
-9.0,-9.0,238.0,18.0,62.0,0.0,-41.0,-30.0,1025.0
-10.0,-5.0,234.0,17.0,64.0,0.0,-42.0,-27.0,1023.0
-11.0,-8.0,238.0,13.0,70.0,-2.0,-37.0,-25.0,1027.0
-8.0,-6.0,238.0,5.0,72.0,1.0,-39.0,-22.0,1021.0
-8.0,-6.0,234.0,-5.0,74.0,0.0,-40.0,-21.0,1028.0
-11.0,-8.0,240.0,-13.0,73.0,2.0,-33.0,-23.0,1026.0
-9.0,-8.0,238.0,-19.0,72.0,2.0,-35.0,-21.0,1027.0
-6.0,-8.0,240.0,-22.0,71.0,3.0,-35.0,-22.0,1030.0
-8.0,-8.0,239.0,-22.0,70.0,0.0,-35.0,-28.0,1025.0
-9.0,-9.0,239.0,-18.0,70.0,2.0,-36.0,-25.0,1025.0
-8.0,-8.0,237.0,-13.0,69.0,0.0,-40.0,-25.0,1025.0
-8.0,-12.0,238.0,-9.0,70.0,2.0,-39.0,-30.0,1027.0
-9.0,-8.0,236.0,-5.0,71.0,-1.0,-37.0,-27.0,1027.0
-8.0,-9.0,239.0,-5.0,71.0,0.0,-35.0,-26.0,1023.0
-9.0,-6.0,239.0,-7.0,72.0,1.0,-37.0,-26.0,1026.0
-10.0,-5.0,237.0,-11.0,71.0,0.0,-38.0,-29.0,1026.0
-8.0,-7.0,238.0,-15.0,69.0,-3.0,-40.0,-25.0,1025.0
-6.0,-8.0,240.0,-18.0,68.0,-2.0,-38.0,-28.0,1029.0
-8.0,-5.0,238.0,-15.0,68.0,-3.0,-36.0,-25.0,1027.0
-9.0,-7.0,240.0,-11.0,68.0,-4.0,-35.0,-20.0,1025.0
-9.0,-5.0,238.0,-9.0,69.0,-6.0,-37.0,-19.0,1025.0
-10.0,-5.0,233.0,-9.0,70.0,-7.0,-38.0,-27.0,1023.0
-8.0,-7.0,236.0,-15.0,69.0,-8.0,-40.0,-30.0,1022.0
-9.0,-7.0,234.0,-21.0,69.0,-7.0,-37.0,-26.0,1025.0
-8.0,-8.0,236.0,-28.0,71.0,-8.0,-40.0,-28.0,1025.0
-7.0,-9.0,240.0,-29.0,71.0,-6.0,-38.0,-29.0,1030.0
-11.0,-11.0,239.0,-25.0,72.0,-9.0,-40.0,-34.0,1029.0
-8.0,-10.0,239.0,-19.0,74.0,-7.0,-39.0,-36.0,1028.0
-9.0,-10.0,238.0,-11.0,78.0,-7.0,-42.0,-39.0,1033.0
-8.0,-9.0,238.0,0.0,80.0,-5.0,-42.0,-37.0,1036.0
-10.0,-9.0,242.0,11.0,84.0,-5.0,-39.0,-36.0,1026.0
-11.0,-11.0,240.0,18.0,89.0,-3.0,-41.0,-38.0,1032.0
-11.0,-8.0,240.0,24.0,95.0,-2.0,-37.0,-33.0,1026.0
-11.0,-6.0,234.0,28.0,99.0,-1.0,-43.0,-30.0,1013.0
-10.0,-6.0,235.0,28.0,101.0,0.0,-39.0,-29.0,1019.0
-11.0,-6.0,237.0,25.0,102.0,2.0,-45.0,-29.0,1017.0
-10.0,-6.0,239.0,18.0,102.0,2.0,-36.0,-18.0,1017.0
-11.0,-4.0,236.0,7.0,100.0,3.0,-39.0,-21.0,1017.0
-8.0,-3.0,236.0,-3.0,97.0,1.0,-39.0,-25.0,1013.0
-10.0,-8.0,240.0,-14.0,96.0,2.0,-42.0,-19.0,1018.0
-11.0,-5.0,240.0,-23.0,96.0,0.0,-38.0,-23.0,1024.0
-8.0,-5.0,240.0,-33.0,97.0,-1.0,-37.0,-20.0,1025.0
-8.0,-7.0,239.0,-38.0,100.0,-2.0,-40.0,-19.0,1033.0
-11.0,-8.0,240.0,-42.0,105.0,-1.0,-39.0,-26.0,1037.0
-8.0,-9.0,238.0,-42.0,106.0,0.0,-38.0,-28.0,1041.0
-11.0,-9.0,243.0,-42.0,108.0,-1.0,-39.0,-24.0,1036.0
-9.0,-8.0,240.0,-40.0,105.0,1.0,-43.0,-26.0,1036.0
-9.0,-10.0,240.0,-36.0,100.0,2.0,-39.0,-29.0,1037.0
-9.0,-10.0,242.0,-34.0,91.0,2.0,-46.0,-24.0,1035.0
-12.0,-5.0,242.0,-29.0,79.0,2.0,-42.0,-27.0,1038.0
-12.0,-9.0,240.0,-27.0,66.0,1.0,-47.0,-24.0,1033.0
-12.0,-5.0,240.0,-23.0,57.0,0.0,-44.0,-23.0,1031.0
-11.0,-8.0,241.0,-20.0,45.0,-1.0,-49.0,-24.0,1023.0
-11.0,-9.0,240.0,-18.0,39.0,-1.0,-49.0,-29.0,1025.0
-11.0,-9.0,235.0,-16.0,36.0,-1.0,-52.0,-28.0,1024.0
-11.0,-8.0,238.0,-14.0,38.0,-1.0,-52.0,-28.0,1026.0
-11.0,-10.0,237.0,-15.0,40.0,-1.0,-53.0,-25.0,1027.0
-11.0,-9.0,236.0,-14.0,45.0,-2.0,-49.0,-29.0,1021.0
-12.0,-8.0,236.0,-16.0,51.0,-2.0,-49.0,-28.0,1022.0
-10.0,-6.0,236.0,-15.0,56.0,-2.0,-48.0,-26.0,1025.0
-9.0,-9.0,240.0,-15.0,63.0,-1.0,-51.0,-30.0,1023.0
-11.0,-6.0,238.0,-15.0,70.0,-1.0,-49.0,-32.0,1025.0
-11.0,-11.0,239.0,-15.0,74.0,-1.0,-43.0,-29.0,1028.0
-11.0,-8.0,242.0,-14.0,76.0,-1.0,-51.0,-25.0,1031.0
-10.0,-9.0,237.0,-16.0,77.0,-1.0,-52.0,-26.0,1025.0
-12.0,-4.0,238.0,-17.0,76.0,-1.0,-49.0,-31.0,1028.0
-11.0,-9.0,236.0,-18.0,75.0,0.0,-55.0,-29.0,1022.0
-10.0,-10.0,239.0,-21.0,72.0,-1.0,-48.0,-26.0,1028.0
-11.0,-8.0,236.0,-20.0,70.0,0.0,-45.0,-28.0,1028.0
-10.0,-7.0,238.0,-22.0,67.0,-2.0,-51.0,-28.0,1026.0
-12.0,-6.0,238.0,-23.0,64.0,-1.0,-46.0,-25.0,1028.0
-11.0,-8.0,240.0,-22.0,61.0,0.0,-48.0,-25.0,1030.0
-11.0,-8.0,236.0,-22.0,59.0,1.0,-48.0,-30.0,1027.0
-12.0,-10.0,241.0,-23.0,58.0,1.0,-46.0,-31.0,1028.0
-8.0,-9.0,241.0,-21.0,56.0,0.0,-46.0,-31.0,1026.0
-11.0,-9.0,236.0,-20.0,56.0,1.0,-45.0,-24.0,1031.0
-11.0,-12.0,237.0,-19.0,54.0,1.0,-43.0,-30.0,1031.0
-9.0,-7.0,238.0,-19.0,54.0,1.0,-46.0,-29.0,1026.0
-12.0,-4.0,238.0,-20.0,55.0,2.0,-44.0,-27.0,1027.0
-13.0,-4.0,238.0,-20.0,55.0,1.0,-47.0,-30.0,1027.0
-11.0,-5.0,241.0,-22.0,54.0,1.0,-46.0,-29.0,1027.0
-11.0,-7.0,237.0,-24.0,56.0,1.0,-44.0,-25.0,1032.0
-11.0,-6.0,238.0,-27.0,56.0,1.0,-43.0,-29.0,1027.0
-10.0,-5.0,238.0,-30.0,53.0,0.0,-43.0,-24.0,1030.0
-10.0,-10.0,241.0,-35.0,53.0,2.0,-43.0,-28.0,1028.0
-9.0,-6.0,242.0,-38.0,50.0,-1.0,-40.0,-27.0,1027.0
-10.0,-10.0,236.0,-40.0,47.0,0.0,-40.0,-32.0,1027.0
-10.0,-7.0,237.0,-39.0,46.0,-1.0,-44.0,-34.0,1029.0
-12.0,-9.0,243.0,-35.0,47.0,-1.0,-43.0,-33.0,1032.0
-9.0,-11.0,235.0,-26.0,46.0,-3.0,-43.0,-34.0,1026.0
-9.0,-10.0,242.0,-18.0,47.0,-2.0,-46.0,-33.0,1030.0
-10.0,-9.0,235.0,-10.0,49.0,-4.0,-42.0,-31.0,1030.0
-8.0,-11.0,238.0,-8.0,51.0,-2.0,-41.0,-33.0,1030.0
-11.0,-8.0,241.0,-5.0,53.0,-4.0,-41.0,-30.0,1030.0
-10.0,-9.0,237.0,-6.0,53.0,-2.0,-45.0,-29.0,1026.0
-11.0,-10.0,236.0,-8.0,54.0,-4.0,-43.0,-32.0,1023.0
-11.0,-5.0,234.0,-8.0,54.0,-1.0,-46.0,-30.0,1026.0
-11.0,-6.0,238.0,-9.0,53.0,-3.0,-44.0,-29.0,1024.0
-10.0,-11.0,238.0,-12.0,54.0,-2.0,-43.0,-31.0,1024.0
-11.0,-10.0,236.0,-14.0,55.0,-3.0,-46.0,-29.0,1025.0
-11.0,-9.0,236.0,-14.0,56.0,-2.0,-50.0,-32.0,1025.0
-10.0,-6.0,241.0,-14.0,57.0,-4.0,-45.0,-31.0,1024.0
-10.0,-9.0,237.0,-13.0,56.0,-2.0,-50.0,-30.0,1026.0
-10.0,-13.0,236.0,-12.0,58.0,-4.0,-43.0,-30.0,1025.0
-8.0,-9.0,236.0,-10.0,58.0,-2.0,-50.0,-31.0,1025.0
-11.0,-7.0,239.0,-8.0,59.0,-4.0,-41.0,-29.0,1028.0
-7.0,-13.0,238.0,-9.0,61.0,0.0,-44.0,-28.0,1027.0
-8.0,-11.0,240.0,-9.0,64.0,-3.0,-50.0,-34.0,1023.0
-12.0,-4.0,241.0,-11.0,65.0,-2.0,-39.0,-28.0,1030.0
-11.0,-6.0,235.0,-16.0,65.0,-4.0,-49.0,-31.0,1033.0
-9.0,-8.0,240.0,-19.0,66.0,-1.0,-44.0,-25.0,1025.0
-11.0,-8.0,239.0,-21.0,65.0,-2.0,-43.0,-30.0,1030.0
-10.0,-5.0,234.0,-22.0,64.0,2.0,-44.0,-30.0,1027.0
-10.0,-9.0,236.0,-22.0,62.0,-1.0,-45.0,-29.0,1027.0
-12.0,-10.0,239.0,-20.0,63.0,1.0,-50.0,-28.0,1028.0
-11.0,-4.0,237.0,-17.0,62.0,-1.0,-46.0,-31.0,1027.0
-10.0,-8.0,240.0,-15.0,61.0,0.0,-49.0,-32.0,1030.0
-11.0,-7.0,242.0,-14.0,61.0,-1.0,-46.0,-35.0,1026.0
-11.0,-9.0,240.0,-13.0,60.0,1.0,-47.0,-27.0,1025.0
-9.0,-8.0,239.0,-12.0,59.0,-1.0,-44.0,-28.0,1032.0
-10.0,-9.0,237.0,-11.0,57.0,1.0,-49.0,-28.0,1024.0
-14.0,-7.0,239.0,-10.0,56.0,-2.0,-45.0,-29.0,1023.0
-12.0,-9.0,240.0,-10.0,56.0,-1.0,-48.0,-30.0,1028.0
-9.0,-7.0,234.0,-11.0,55.0,-3.0,-49.0,-28.0,1024.0
-10.0,-9.0,238.0,-12.0,55.0,-1.0,-46.0,-25.0,1023.0
-11.0,-6.0,236.0,-13.0,55.0,-4.0,-53.0,-33.0,1030.0
-11.0,-11.0,240.0,-14.0,54.0,-2.0,-47.0,-30.0,1031.0
-11.0,-7.0,243.0,-14.0,53.0,-3.0,-49.0,-30.0,1026.0
-13.0,-5.0,241.0,-15.0,53.0,0.0,-52.0,-30.0,1025.0
-11.0,-9.0,237.0,-16.0,54.0,-3.0,-50.0,-30.0,1025.0
-11.0,-5.0,239.0,-18.0,53.0,-1.0,-51.0,-27.0,1029.0
-11.0,-8.0,236.0,-18.0,53.0,-3.0,-49.0,-31.0,1029.0
-12.0,-11.0,238.0,-19.0,53.0,0.0,-49.0,-32.0,1024.0
-11.0,-9.0,242.0,-21.0,51.0,-2.0,-51.0,-28.0,1030.0
-11.0,-9.0,241.0,-20.0,51.0,0.0,-49.0,-30.0,1025.0
-12.0,-7.0,237.0,-19.0,50.0,-3.0,-51.0,-29.0,1028.0
-11.0,-10.0,236.0,-17.0,51.0,-1.0,-49.0,-32.0,1029.0
-11.0,-7.0,239.0,-17.0,51.0,-3.0,-46.0,-31.0,1025.0
-9.0,-11.0,239.0,-15.0,50.0,-1.0,-50.0,-28.0,1025.0
-9.0,-8.0,239.0,-16.0,52.0,-3.0,-47.0,-33.0,1024.0
-11.0,-12.0,239.0,-15.0,51.0,-1.0,-41.0,-33.0,1023.0
-9.0,-12.0,238.0,-17.0,53.0,-4.0,-45.0,-29.0,1025.0
-10.0,-9.0,239.0,-16.0,55.0,-1.0,-45.0,-30.0,1025.0
-10.0,-8.0,238.0,-18.0,57.0,-3.0,-48.0,-32.0,1025.0
-10.0,-9.0,235.0,-19.0,56.0,-2.0,-45.0,-29.0,1027.0
-11.0,-8.0,237.0,-19.0,56.0,-4.0,-43.0,-31.0,1030.0
-10.0,-10.0,240.0,-21.0,58.0,-1.0,-48.0,-27.0,1031.0
-12.0,-9.0,235.0,-23.0,57.0,-3.0,-44.0,-26.0,1026.0
-9.0,-8.0,237.0,-23.0,57.0,-2.0,-41.0,-27.0,1027.0
-9.0,-10.0,241.0,-26.0,58.0,-4.0,-41.0,-35.0,1031.0
-10.0,-8.0,241.0,-27.0,58.0,-1.0,-44.0,-31.0,1028.0
-9.0,-10.0,238.0,-30.0,58.0,-4.0,-43.0,-33.0,1031.0
-11.0,-9.0,242.0,-31.0,58.0,-1.0,-41.0,-34.0,1028.0
-10.0,-8.0,243.0,-32.0,58.0,-3.0,-44.0,-33.0,1028.0
-10.0,-7.0,237.0,-32.0,57.0,-1.0,-40.0,-30.0,1029.0
-9.0,-7.0,235.0,-32.0,58.0,-2.0,-41.0,-31.0,1033.0
-10.0,-7.0,241.0,-32.0,56.0,-1.0,-44.0,-34.0,1035.0
-10.0,-8.0,239.0,-31.0,58.0,-1.0,-43.0,-34.0,1028.0
-10.0,-8.0,241.0,-32.0,56.0,0.0,-37.0,-37.0,1032.0
-8.0,-12.0,240.0,-32.0,55.0,-3.0,-40.0,-34.0,1031.0
-9.0,-10.0,240.0,-32.0,54.0,0.0,-41.0,-32.0,1029.0
-8.0,-10.0,236.0,-34.0,55.0,-3.0,-38.0,-36.0,1025.0
-8.0,-8.0,243.0,-34.0,54.0,-1.0,-39.0,-30.0,1030.0
-11.0,-10.0,234.0,-34.0,53.0,-3.0,-41.0,-33.0,1028.0
-7.0,-9.0,240.0,-35.0,52.0,-1.0,-41.0,-31.0,1031.0
-11.0,-10.0,238.0,-35.0,52.0,-2.0,-40.0,-33.0,1030.0
-10.0,-11.0,242.0,-36.0,54.0,0.0,-44.0,-36.0,1032.0
-12.0,-11.0,240.0,-35.0,53.0,-1.0,-43.0,-30.0,1028.0
-10.0,-7.0,240.0,-35.0,52.0,-1.0,-39.0,-34.0,1036.0
-10.0,-11.0,239.0,-34.0,52.0,-4.0,-38.0,-30.0,1026.0
-7.0,-10.0,238.0,-33.0,51.0,-1.0,-45.0,-32.0,1031.0
-10.0,-8.0,242.0,-35.0,50.0,-4.0,-36.0,-32.0,1036.0
-11.0,-9.0,241.0,-34.0,49.0,-2.0,-40.0,-31.0,1030.0
-11.0,-10.0,239.0,-36.0,49.0,-3.0,-47.0,-30.0,1031.0
-10.0,-8.0,241.0,-36.0,47.0,-1.0,-47.0,-28.0,1031.0
-11.0,-7.0,239.0,-38.0,45.0,-3.0,-42.0,-29.0,1033.0
-12.0,-5.0,237.0,-38.0,44.0,0.0,-42.0,-32.0,1031.0
-10.0,-7.0,240.0,-39.0,42.0,-3.0,-41.0,-31.0,1030.0
-11.0,-9.0,240.0,-40.0,42.0,-2.0,-44.0,-35.0,1030.0
-11.0,-10.0,237.0,-40.0,40.0,-3.0,-47.0,-35.0,1026.0
-10.0,-11.0,241.0,-39.0,38.0,0.0,-47.0,-33.0,1032.0
-9.0,-9.0,238.0,-36.0,37.0,-3.0,-47.0,-35.0,1026.0
-12.0,-12.0,241.0,-31.0,37.0,-1.0,-49.0,-35.0,1029.0
-9.0,-12.0,237.0,-25.0,38.0,-4.0,-49.0,-39.0,1028.0
-10.0,-11.0,237.0,-20.0,40.0,-3.0,-50.0,-37.0,1026.0
-12.0,-9.0,237.0,-16.0,44.0,-4.0,-51.0,-33.0,1025.0
-11.0,-8.0,237.0,-18.0,48.0,-3.0,-49.0,-33.0,1024.0
-10.0,-12.0,235.0,-22.0,54.0,-5.0,-52.0,-34.0,1025.0
-11.0,-8.0,236.0,-30.0,57.0,-2.0,-47.0,-32.0,1024.0
-11.0,-10.0,239.0,-39.0,56.0,-4.0,-43.0,-30.0,1024.0
-9.0,-9.0,235.0,-46.0,55.0,-3.0,-48.0,-32.0,1032.0
-12.0,-10.0,240.0,-50.0,52.0,-3.0,-43.0,-37.0,1027.0
-11.0,-12.0,237.0,-51.0,49.0,-2.0,-44.0,-41.0,1026.0
-10.0,-15.0,238.0,-47.0,46.0,-2.0,-47.0,-38.0,1030.0
-8.0,-13.0,241.0,-41.0,43.0,-1.0,-41.0,-40.0,1032.0
-10.0,-14.0,238.0,-32.0,39.0,-3.0,-53.0,-41.0,1033.0
-11.0,-13.0,240.0,-23.0,37.0,-1.0,-47.0,-45.0,1026.0
-11.0,-14.0,241.0,-18.0,34.0,-4.0,-45.0,-43.0,1029.0
-10.0,-14.0,239.0,-15.0,32.0,-2.0,-46.0,-36.0,1028.0
-9.0,-10.0,234.0,-17.0,30.0,-5.0,-49.0,-34.0,1026.0
-6.0,-8.0,239.0,-23.0,29.0,-3.0,-42.0,-40.0,1025.0
-9.0,-11.0,239.0,-28.0,28.0,-4.0,-41.0,-33.0,1028.0
-7.0,-11.0,239.0,-31.0,27.0,-4.0,-42.0,-36.0,1031.0
-9.0,-9.0,240.0,-31.0,27.0,-5.0,-40.0,-33.0,1028.0
-7.0,-12.0,238.0,-31.0,29.0,-5.0,-42.0,-36.0,1024.0
-10.0,-12.0,240.0,-30.0,31.0,-6.0,-38.0,-31.0,1017.0
-10.0,-9.0,238.0,-31.0,31.0,-5.0,-39.0,-32.0,1019.0
-11.0,-11.0,233.0,-35.0,35.0,-8.0,-42.0,-34.0,1021.0
-10.0,-10.0,234.0,-40.0,37.0,-6.0,-39.0,-34.0,1024.0
-9.0,-11.0,235.0,-43.0,40.0,-8.0,-38.0,-33.0,1022.0
-10.0,-10.0,235.0,-44.0,42.0,-6.0,-40.0,-40.0,1022.0
-7.0,-14.0,238.0,-42.0,46.0,-8.0,-41.0,-43.0,1020.0
-10.0,-14.0,235.0,-38.0,51.0,-7.0,-38.0,-46.0,1022.0
-10.0,-11.0,235.0,-31.0,56.0,-8.0,-44.0,-49.0,1025.0
-11.0,-13.0,239.0,-22.0,59.0,-6.0,-40.0,-44.0,1024.0
-6.0,-16.0,237.0,-15.0,65.0,-5.0,-37.0,-48.0,1021.0
-8.0,-12.0,236.0,-9.0,68.0,-2.0,-35.0,-46.0,1021.0
-8.0,-11.0,237.0,-8.0,69.0,-3.0,-35.0,-43.0,1023.0
-10.0,-11.0,237.0,-11.0,72.0,0.0,-37.0,-43.0,1020.0
-8.0,-7.0,237.0,-20.0,74.0,-1.0,-38.0,-37.0,1019.0
-8.0,-10.0,237.0,-32.0,75.0,1.0,-34.0,-37.0,1019.0
-6.0,-11.0,236.0,-43.0,73.0,-1.0,-36.0,-37.0,1023.0
-10.0,-10.0,237.0,-55.0,67.0,0.0,-30.0,-32.0,1019.0
-9.0,-10.0,234.0,-67.0,61.0,-2.0,-33.0,-37.0,1022.0
-9.0,-12.0,237.0,-74.0,53.0,-3.0,-33.0,-33.0,1024.0
-8.0,-9.0,237.0,-79.0,46.0,-5.0,-31.0,-39.0,1027.0
-7.0,-13.0,239.0,-79.0,42.0,-5.0,-32.0,-39.0,1026.0
-8.0,-15.0,239.0,-75.0,38.0,-7.0,-28.0,-41.0,1027.0
-7.0,-14.0,241.0,-66.0,33.0,-6.0,-34.0,-48.0,1027.0
-9.0,-13.0,234.0,-57.0,32.0,-6.0,-36.0,-49.0,1033.0
-11.0,-16.0,241.0,-47.0,31.0,-6.0,-29.0,-50.0,1032.0
-7.0,-17.0,238.0,-36.0,33.0,-5.0,-36.0,-54.0,1027.0
-9.0,-15.0,238.0,-26.0,33.0,-4.0,-35.0,-47.0,1031.0
-6.0,-15.0,238.0,-18.0,34.0,-4.0,-36.0,-46.0,1028.0
-7.0,-14.0,238.0,-11.0,36.0,-3.0,-37.0,-48.0,1030.0
-7.0,-13.0,238.0,-6.0,37.0,-4.0,-39.0,-42.0,1031.0
-6.0,-12.0,239.0,-5.0,38.0,-2.0,-35.0,-41.0,1034.0
-11.0,-10.0,238.0,-4.0,39.0,-1.0,-39.0,-38.0,1024.0
-10.0,-12.0,240.0,-5.0,41.0,-2.0,-38.0,-45.0,1026.0
-8.0,-9.0,239.0,-7.0,43.0,-2.0,-40.0,-35.0,1025.0
-11.0,-12.0,237.0,-11.0,42.0,-4.0,-41.0,-39.0,1025.0
-11.0,-10.0,236.0,-15.0,43.0,-3.0,-41.0,-36.0,1030.0
-10.0,-8.0,239.0,-20.0,46.0,-3.0,-40.0,-38.0,1024.0
-9.0,-11.0,239.0,-25.0,47.0,-5.0,-37.0,-37.0,1025.0
-9.0,-10.0,239.0,-27.0,46.0,-4.0,-37.0,-38.0,1024.0
-5.0,-14.0,239.0,-28.0,45.0,-3.0,-45.0,-37.0,1026.0
-8.0,-13.0,236.0,-30.0,45.0,-3.0,-41.0,-42.0,1027.0
-10.0,-12.0,235.0,-30.0,45.0,-4.0,-42.0,-44.0,1027.0
-10.0,-11.0,239.0,-30.0,43.0,-3.0,-41.0,-44.0,1024.0
-9.0,-8.0,239.0,-30.0,42.0,-3.0,-41.0,-41.0,1023.0
-10.0,-12.0,238.0,-30.0,41.0,-4.0,-39.0,-43.0,1026.0
-10.0,-12.0,237.0,-29.0,38.0,-3.0,-37.0,-42.0,1026.0
-8.0,-14.0,239.0,-28.0,36.0,-3.0,-38.0,-42.0,1025.0
-10.0,-13.0,239.0,-27.0,35.0,-3.0,-37.0,-44.0,1022.0
-8.0,-12.0,237.0,-24.0,33.0,-4.0,-35.0,-43.0,1026.0
-10.0,-13.0,233.0,-22.0,32.0,-3.0,-37.0,-42.0,1021.0
-7.0,-12.0,241.0,-21.0,31.0,-3.0,-39.0,-45.0,1022.0
-6.0,-13.0,233.0,-20.0,33.0,-2.0,-35.0,-43.0,1025.0
-10.0,-9.0,239.0,-21.0,33.0,-4.0,-41.0,-42.0,1025.0
-9.0,-13.0,238.0,-21.0,33.0,-2.0,-38.0,-47.0,1023.0
-9.0,-13.0,237.0,-21.0,34.0,-3.0,-37.0,-43.0,1026.0
-9.0,-12.0,242.0,-21.0,37.0,-5.0,-39.0,-47.0,1025.0
-9.0,-14.0,238.0,-21.0,39.0,-5.0,-36.0,-51.0,1025.0
-9.0,-13.0,239.0,-21.0,38.0,-5.0,-38.0,-40.0,1025.0
-6.0,-17.0,238.0,-21.0,39.0,-6.0,-42.0,-45.0,1028.0
-8.0,-13.0,238.0,-23.0,41.0,-4.0,-33.0,-41.0,1026.0
-8.0,-14.0,237.0,-24.0,42.0,-4.0,-32.0,-41.0,1026.0
-8.0,-12.0,238.0,-27.0,42.0,-1.0,-32.0,-39.0,1024.0
-8.0,-10.0,239.0,-27.0,42.0,-3.0,-27.0,-42.0,1025.0
-11.0,-12.0,238.0,-31.0,40.0,-3.0,-37.0,-41.0,1027.0
-6.0,-13.0,238.0,-34.0,39.0,-2.0,-27.0,-40.0,1028.0
-8.0,-13.0,236.0,-36.0,37.0,-4.0,-35.0,-44.0,1026.0
-7.0,-15.0,240.0,-34.0,35.0,-3.0,-30.0,-46.0,1031.0
-7.0,-14.0,242.0,-30.0,34.0,-4.0,-33.0,-48.0,1026.0
-6.0,-13.0,236.0,-22.0,33.0,-4.0,-33.0,-51.0,1023.0
-7.0,-17.0,238.0,-14.0,34.0,-3.0,-35.0,-53.0,1025.0
-8.0,-14.0,241.0,-5.0,34.0,-5.0,-37.0,-50.0,1025.0
-10.0,-13.0,235.0,1.0,36.0,-2.0,-34.0,-50.0,1022.0
-9.0,-12.0,241.0,6.0,39.0,-2.0,-32.0,-50.0,1022.0
-7.0,-11.0,238.0,4.0,39.0,-1.0,-36.0,-43.0,1024.0
-6.0,-16.0,238.0,1.0,39.0,-2.0,-35.0,-42.0,1020.0
-8.0,-13.0,236.0,-4.0,39.0,-1.0,-36.0,-40.0,1021.0
-9.0,-12.0,239.0,-9.0,38.0,-3.0,-33.0,-44.0,1022.0
-9.0,-8.0,238.0,-13.0,38.0,-2.0,-34.0,-43.0,1019.0
-10.0,-9.0,239.0,-15.0,38.0,-5.0,-36.0,-41.0,1026.0
-7.0,-12.0,235.0,-18.0,38.0,-3.0,-35.0,-44.0,1017.0
-8.0,-13.0,239.0,-19.0,40.0,-4.0,-31.0,-41.0,1025.0
-8.0,-13.0,238.0,-21.0,40.0,-3.0,-34.0,-42.0,1023.0
-8.0,-15.0,236.0,-22.0,42.0,-5.0,-28.0,-42.0,1026.0
-8.0,-13.0,237.0,-23.0,43.0,-4.0,-35.0,-49.0,1027.0
-8.0,-15.0,238.0,-23.0,45.0,-6.0,-30.0,-47.0,1029.0
-7.0,-12.0,240.0,-25.0,46.0,-4.0,-32.0,-44.0,1027.0
-7.0,-11.0,235.0,-25.0,45.0,-5.0,-30.0,-46.0,1029.0
-7.0,-14.0,239.0,-24.0,45.0,-4.0,-33.0,-51.0,1027.0
-7.0,-12.0,239.0,-25.0,44.0,-6.0,-33.0,-45.0,1028.0
-8.0,-12.0,237.0,-24.0,43.0,-4.0,-29.0,-43.0,1026.0
-6.0,-12.0,241.0,-22.0,41.0,-5.0,-34.0,-38.0,1024.0
-7.0,-16.0,237.0,-18.0,38.0,-2.0,-29.0,-43.0,1026.0
-9.0,-15.0,238.0,-15.0,38.0,-2.0,-29.0,-47.0,1027.0
-6.0,-15.0,239.0,-12.0,35.0,-2.0,-35.0,-47.0,1023.0
-9.0,-12.0,242.0,-7.0,35.0,-3.0,-30.0,-49.0,1022.0
-6.0,-13.0,237.0,-2.0,35.0,-1.0,-29.0,-45.0,1021.0
-10.0,-11.0,240.0,0.0,36.0,-2.0,-24.0,-46.0,1024.0
-7.0,-14.0,235.0,4.0,38.0,0.0,-30.0,-47.0,1017.0
-6.0,-13.0,237.0,6.0,38.0,-2.0,-24.0,-47.0,1018.0
-6.0,-13.0,240.0,7.0,38.0,-1.0,-33.0,-45.0,1022.0
-9.0,-13.0,236.0,4.0,41.0,-4.0,-26.0,-48.0,1022.0
-9.0,-11.0,239.0,2.0,43.0,-1.0,-27.0,-45.0,1023.0
-5.0,-14.0,236.0,-1.0,46.0,-2.0,-26.0,-42.0,1020.0
-5.0,-12.0,237.0,-4.0,46.0,-3.0,-28.0,-43.0,1019.0
-7.0,-12.0,235.0,-10.0,48.0,-5.0,-31.0,-41.0,1019.0
-8.0,-12.0,235.0,-14.0,49.0,-1.0,-24.0,-43.0,1025.0
-5.0,-13.0,238.0,-17.0,50.0,-4.0,-25.0,-44.0,1023.0
-8.0,-14.0,237.0,-20.0,50.0,-2.0,-27.0,-40.0,1024.0
-5.0,-11.0,239.0,-21.0,51.0,-6.0,-23.0,-41.0,1026.0
-6.0,-14.0,237.0,-21.0,49.0,-2.0,-27.0,-47.0,1029.0
-6.0,-12.0,240.0,-19.0,48.0,-3.0,-26.0,-42.0,1027.0
-4.0,-14.0,236.0,-17.0,47.0,-2.0,-24.0,-43.0,1027.0
-7.0,-10.0,237.0,-16.0,48.0,-4.0,-23.0,-49.0,1024.0
-6.0,-16.0,240.0,-14.0,48.0,-2.0,-24.0,-49.0,1025.0
-5.0,-14.0,239.0,-11.0,48.0,-4.0,-24.0,-46.0,1027.0
-6.0,-14.0,241.0,-11.0,49.0,-2.0,-25.0,-48.0,1024.0
-5.0,-13.0,237.0,-10.0,50.0,-4.0,-20.0,-44.0,1027.0
-5.0,-13.0,238.0,-9.0,49.0,-2.0,-22.0,-45.0,1034.0
-5.0,-14.0,237.0,-10.0,50.0,-5.0,-19.0,-50.0,1026.0
-4.0,-12.0,236.0,-10.0,50.0,-3.0,-23.0,-46.0,1025.0
-5.0,-11.0,235.0,-10.0,50.0,-5.0,-24.0,-41.0,1024.0
-5.0,-14.0,238.0,-10.0,51.0,-3.0,-22.0,-42.0,1029.0
-3.0,-14.0,236.0,-12.0,52.0,-5.0,-24.0,-45.0,1025.0
-4.0,-12.0,240.0,-12.0,53.0,-2.0,-20.0,-47.0,1025.0
-6.0,-12.0,237.0,-13.0,53.0,-4.0,-21.0,-42.0,1025.0
-7.0,-11.0,239.0,-14.0,52.0,-2.0,-25.0,-38.0,1024.0
-5.0,-10.0,240.0,-16.0,53.0,-5.0,-26.0,-38.0,1023.0
-3.0,-12.0,236.0,-17.0,52.0,-2.0,-25.0,-35.0,1023.0
-6.0,-10.0,237.0,-16.0,51.0,-3.0,-25.0,-44.0,1021.0
-3.0,-14.0,239.0,-15.0,51.0,0.0,-26.0,-44.0,1021.0
-6.0,-13.0,234.0,-13.0,54.0,-2.0,-26.0,-44.0,1022.0
-7.0,-16.0,234.0,-10.0,54.0,0.0,-27.0,-44.0,1016.0
-5.0,-13.0,237.0,-7.0,53.0,-2.0,-27.0,-42.0,1013.0
-5.0,-15.0,237.0,-1.0,54.0,0.0,-28.0,-48.0,1022.0
-5.0,-14.0,233.0,3.0,55.0,-1.0,-32.0,-48.0,1018.0
-7.0,-13.0,237.0,8.0,55.0,2.0,-30.0,-43.0,1019.0
-8.0,-14.0,236.0,13.0,57.0,-1.0,-31.0,-43.0,1018.0
-9.0,-14.0,233.0,14.0,60.0,0.0,-33.0,-43.0,1017.0
-8.0,-9.0,235.0,11.0,63.0,-2.0,-35.0,-41.0,1019.0
-10.0,-12.0,236.0,6.0,63.0,2.0,-38.0,-45.0,1022.0
-7.0,-13.0,236.0,-2.0,63.0,0.0,-37.0,-42.0,1018.0
-8.0,-9.0,237.0,-8.0,60.0,2.0,-32.0,-42.0,1025.0
-8.0,-15.0,239.0,-10.0,58.0,1.0,-30.0,-41.0,1023.0
-7.0,-13.0,237.0,-10.0,56.0,2.0,-37.0,-46.0,1025.0
-7.0,-16.0,235.0,-6.0,53.0,1.0,-32.0,-50.0,1024.0
-9.0,-14.0,237.0,0.0,50.0,4.0,-37.0,-45.0,1022.0
-6.0,-17.0,236.0,9.0,47.0,1.0,-37.0,-49.0,1025.0
-7.0,-13.0,237.0,16.0,46.0,4.0,-34.0,-44.0,1019.0
-7.0,-13.0,237.0,19.0,48.0,2.0,-37.0,-40.0,1025.0
-8.0,-10.0,234.0,23.0,49.0,4.0,-38.0,-40.0,1023.0
-9.0,-12.0,233.0,21.0,48.0,1.0,-32.0,-41.0,1012.0
-8.0,-10.0,233.0,17.0,50.0,3.0,-33.0,-37.0,1020.0
-8.0,-10.0,236.0,7.0,53.0,0.0,-28.0,-37.0,1019.0
-7.0,-9.0,236.0,-5.0,54.0,3.0,-29.0,-32.0,1025.0
-5.0,-12.0,239.0,-13.0,54.0,-1.0,-27.0,-37.0,1023.0
-9.0,-13.0,237.0,-16.0,53.0,1.0,-30.0,-40.0,1022.0
-9.0,-15.0,247.0,-11.0,52.0,-2.0,-29.0,-43.0,1019.0
-4.0,-13.0,237.0,-2.0,54.0,0.0,-35.0,-46.0,1024.0
-7.0,-15.0,248.0,11.0,57.0,-2.0,-34.0,-46.0,1017.0
1.0,-8.0,235.0,19.0,60.0,0.0,-33.0,-46.0,1019.0
-11.0,-7.0,228.0,26.0,63.0,-4.0,-31.0,-43.0,1012.0
-11.0,-13.0,229.0,26.0,66.0,-1.0,-26.0,-42.0,1022.0
-10.0,-9.0,248.0,21.0,70.0,-4.0,-28.0,-41.0,1016.0
-8.0,-19.0,242.0,13.0,73.0,0.0,-26.0,-34.0,1020.0
-3.0,-11.0,238.0,3.0,76.0,-2.0,-23.0,-36.0,1026.0
-3.0,-13.0,232.0,-3.0,76.0,2.0,-25.0,-38.0,1025.0
-4.0,-13.0,235.0,-7.0,74.0,-1.0,-23.0,-37.0,1027.0
-7.0,-12.0,241.0,-8.0,73.0,1.0,-20.0,-49.0,1024.0
-2.0,-13.0,245.0,-6.0,74.0,-1.0,-18.0,-48.0,1032.0
-3.0,-14.0,238.0,-1.0,75.0,1.0,-18.0,-50.0,1028.0
-5.0,-14.0,238.0,6.0,78.0,0.0,-17.0,-49.0,1030.0
-4.0,-12.0,237.0,12.0,82.0,5.0,-19.0,-43.0,1027.0
-4.0,-13.0,239.0,15.0,84.0,3.0,-15.0,-49.0,1025.0
-4.0,-12.0,237.0,15.0,86.0,6.0,-19.0,-40.0,1030.0
-4.0,-12.0,235.0,14.0,88.0,2.0,-19.0,-40.0,1021.0
-9.0,-10.0,234.0,10.0,88.0,4.0,-21.0,-36.0,1024.0
