acc1_x,acc1_y,acc1_z,gyro_x,gyro_y,gyro_z,acc2_x,acc2_y,acc2_z
198.0,-347.0,64.0,1403.0,-1331.0,229.0,789.0,-1404.0,365.0
212.0,-222.0,30.0,1835.0,-1562.0,152.0,808.0,-861.0,240.0
209.0,-127.0,24.0,1825.0,-1641.0,164.0,771.0,-512.0,215.0
190.0,-54.0,23.0,1552.0,-1579.0,201.0,689.0,-254.0,218.0
164.0,-16.0,29.0,1172.0,-1412.0,219.0,575.0,-113.0,241.0
121.0,-8.0,27.0,768.0,-1193.0,197.0,437.0,-104.0,245.0
85.0,-38.0,27.0,346.0,-995.0,145.0,296.0,-211.0,243.0
49.0,-84.0,27.0,-86.0,-855.0,84.0,189.0,-407.0,233.0
25.0,-152.0,18.0,-518.0,-772.0,33.0,74.0,-630.0,228.0
4.0,-215.0,14.0,-909.0,-721.0,8.0,4.0,-889.0,204.0
-11.0,-277.0,16.0,-1250.0,-674.0,-20.0,-61.0,-1115.0,194.0
-26.0,-333.0,11.0,-1506.0,-610.0,-51.0,-126.0,-1318.0,181.0
-58.0,-376.0,5.0,-1662.0,-539.0,-88.0,-243.0,-1478.0,167.0
-92.0,-415.0,2.0,-1715.0,-480.0,-120.0,-368.0,-1616.0,136.0
-122.0,-444.0,-2.0,-1682.0,-474.0,-133.0,-472.0,-1718.0,111.0
-130.0,-472.0,-1.0,-1572.0,-547.0,-113.0,-513.0,-1819.0,119.0
-132.0,-504.0,13.0,-1395.0,-687.0,-73.0,-500.0,-1915.0,135.0
-121.0,-521.0,10.0,-1161.0,-873.0,-25.0,-451.0,-1987.0,143.0
-96.0,-526.0,17.0,-878.0,-1075.0,17.0,-352.0,-2010.0,181.0
-66.0,-519.0,26.0,-551.0,-1294.0,40.0,-230.0,-1971.0,213.0
-29.0,-490.0,26.0,-197.0,-1511.0,46.0,-94.0,-1873.0,220.0
7.0,-453.0,25.0,135.0,-1705.0,29.0,46.0,-1739.0,224.0
45.0,-405.0,22.0,423.0,-1863.0,-18.0,176.0,-1578.0,205.0
73.0,-364.0,16.0,638.0,-1984.0,-77.0,282.0,-1404.0,184.0
103.0,-324.0,13.0,794.0,-2062.0,-132.0,380.0,-1254.0,172.0
124.0,-283.0,9.0,904.0,-2092.0,-185.0,457.0,-1094.0,161.0
134.0,-245.0,8.0,977.0,-2076.0,-229.0,502.0,-965.0,146.0
136.0,-212.0,2.0,1014.0,-2031.0,-275.0,507.0,-840.0,133.0
132.0,-188.0,-3.0,1018.0,-1981.0,-320.0,490.0,-736.0,135.0
116.0,-174.0,5.0,997.0,-1931.0,-359.0,438.0,-681.0,147.0
97.0,-168.0,14.0,951.0,-1884.0,-385.0,372.0,-664.0,172.0
78.0,-175.0,15.0,886.0,-1843.0,-392.0,299.0,-685.0,201.0
51.0,-184.0,28.0,815.0,-1820.0,-388.0,208.0,-729.0,243.0
27.0,-196.0,44.0,751.0,-1828.0,-377.0,124.0,-770.0,289.0
14.0,-207.0,45.0,697.0,-1851.0,-356.0,52.0,-821.0,309.0
-8.0,-214.0,50.0,638.0,-1891.0,-323.0,-26.0,-849.0,321.0
-23.0,-218.0,46.0,572.0,-1952.0,-286.0,-85.0,-863.0,319.0
-36.0,-217.0,42.0,499.0,-2029.0,-245.0,-119.0,-881.0,301.0
-40.0,-221.0,32.0,437.0,-2114.0,-207.0,-147.0,-857.0,263.0
-44.0,-210.0,26.0,393.0,-2202.0,-170.0,-155.0,-819.0,224.0
-41.0,-198.0,10.0,361.0,-2277.0,-135.0,-151.0,-776.0,162.0
-34.0,-186.0,-5.0,337.0,-2339.0,-104.0,-141.0,-725.0,106.0
-28.0,-172.0,-22.0,318.0,-2383.0,-75.0,-103.0,-673.0,42.0
-20.0,-156.0,-43.0,296.0,-2414.0,-49.0,-76.0,-608.0,-6.0
-13.0,-139.0,-48.0,265.0,-2437.0,-23.0,-46.0,-543.0,-56.0
-2.0,-128.0,-57.0,218.0,-2461.0,0.0,-9.0,-484.0,-82.0
5.0,-113.0,-61.0,163.0,-2479.0,23.0,20.0,-443.0,-113.0
9.0,-109.0,-65.0,104.0,-2502.0,42.0,51.0,-415.0,-130.0
18.0,-102.0,-74.0,39.0,-2534.0,56.0,75.0,-395.0,-144.0
25.0,-99.0,-79.0,-23.0,-2563.0,72.0,103.0,-376.0,-162.0
39.0,-95.0,-91.0,-90.0,-2585.0,87.0,141.0,-372.0,-213.0
44.0,-92.0,-94.0,-162.0,-2589.0,97.0,177.0,-367.0,-261.0
55.0,-91.0,-116.0,-236.0,-2575.0,109.0,219.0,-357.0,-311.0
64.0,-93.0,-118.0,-320.0,-2547.0,123.0,232.0,-375.0,-345.0
64.0,-95.0,-129.0,-415.0,-2522.0,139.0,246.0,-375.0,-383.0
60.0,-97.0,-137.0,-523.0,-2510.0,156.0,238.0,-379.0,-402.0
67.0,-104.0,-137.0,-624.0,-2522.0,179.0,249.0,-413.0,-411.0
68.0,-107.0,-134.0,-707.0,-2538.0,201.0,258.0,-424.0,-401.0
54.0,-115.0,-129.0,-763.0,-2554.0,228.0,221.0,-440.0,-384.0
48.0,-116.0,-134.0,-788.0,-2572.0,254.0,189.0,-439.0,-402.0
40.0,-111.0,-148.0,-788.0,-2608.0,288.0,163.0,-428.0,-446.0
28.0,-102.0,-169.0,-772.0,-2650.0,325.0,114.0,-382.0,-502.0
24.0,-86.0,-193.0,-759.0,-2682.0,360.0,94.0,-346.0,-610.0
29.0,-78.0,-231.0,-772.0,-2691.0,394.0,89.0,-315.0,-743.0
33.0,-77.0,-263.0,-835.0,-2652.0,420.0,98.0,-302.0,-883.0
43.0,-89.0,-285.0,-974.0,-2561.0,432.0,119.0,-338.0,-992.0
44.0,-115.0,-301.0,-1193.0,-2421.0,437.0,130.0,-437.0,-1086.0
54.0,-143.0,-309.0,-1477.0,-2271.0,434.0,181.0,-600.0,-1099.0
81.0,-193.0,-286.0,-1802.0,-2127.0,409.0,292.0,-757.0,-1011.0
103.0,-237.0,-254.0,-2126.0,-1967.0,351.0,351.0,-925.0,-904.0
116.0,-296.0,-201.0,-2409.0,-1800.0,261.0,403.0,-1141.0,-699.0
110.0,-349.0,-142.0,-2601.0,-1606.0,148.0,386.0,-1331.0,-458.0
97.0,-399.0,-76.0,-2659.0,-1413.0,40.0,339.0,-1496.0,-214.0
74.0,-434.0,-26.0,-2561.0,-1230.0,-52.0,269.0,-1634.0,13.0
42.0,-462.0,24.0,-2305.0,-1088.0,-128.0,153.0,-1734.0,203.0
8.0,-461.0,39.0,-1899.0,-938.0,-178.0,27.0,-1736.0,281.0
-23.0,-425.0,21.0,-1414.0,-857.0,-205.0,-88.0,-1619.0,228.0
-59.0,-370.0,-12.0,-968.0,-855.0,-213.0,-221.0,-1424.0,102.0
-92.0,-315.0,-38.0,-635.0,-870.0,-168.0,-354.0,-1229.0,-1.0
-119.0,-266.0,-56.0,-432.0,-884.0,-72.0,-456.0,-1051.0,-80.0
-149.0,-227.0,-61.0,-354.0,-936.0,38.0,-568.0,-904.0,-120.0
-166.0,-196.0,-71.0,-385.0,-1044.0,165.0,-636.0,-787.0,-140.0
-176.0,-176.0,-63.0,-496.0,-1197.0,283.0,-651.0,-720.0,-137.0
-155.0,-171.0,-57.0,-650.0,-1399.0,391.0,-596.0,-678.0,-102.0
-127.0,-179.0,-44.0,-791.0,-1610.0,470.0,-490.0,-693.0,-43.0
-99.0,-185.0,-39.0,-856.0,-1781.0,514.0,-378.0,-715.0,-20.0
-64.0,-191.0,-43.0,-838.0,-1916.0,533.0,-256.0,-727.0,-37.0
-29.0,-192.0,-60.0,-767.0,-2016.0,524.0,-127.0,-729.0,-74.0
7.0,-191.0,-66.0,-665.0,-2063.0,492.0,-4.0,-726.0,-124.0
42.0,-182.0,-76.0,-555.0,-2050.0,449.0,112.0,-706.0,-181.0
66.0,-180.0,-94.0,-465.0,-1978.0,384.0,213.0,-694.0,-229.0
95.0,-175.0,-107.0,-406.0,-1853.0,310.0,327.0,-679.0,-271.0
113.0,-171.0,-112.0,-378.0,-1676.0,232.0,391.0,-655.0,-317.0
133.0,-168.0,-119.0,-389.0,-1474.0,160.0,462.0,-649.0,-347.0
157.0,-165.0,-129.0,-429.0,-1259.0,100.0,534.0,-642.0,-393.0
171.0,-166.0,-140.0,-498.0,-1009.0,44.0,606.0,-638.0,-419.0
177.0,-169.0,-136.0,-599.0,-735.0,-4.0,641.0,-662.0,-425.0
172.0,-176.0,-134.0,-709.0,-481.0,-42.0,625.0,-674.0,-407.0
166.0,-183.0,-128.0,-793.0,-280.0,-39.0,610.0,-715.0,-388.0
156.0,-201.0,-118.0,-839.0,-128.0,-16.0,581.0,-760.0,-342.0
134.0,-214.0,-109.0,-854.0,-9.0,17.0,510.0,-825.0,-291.0
106.0,-234.0,-87.0,-840.0,72.0,68.0,401.0,-902.0,-206.0
74.0,-254.0,-65.0,-789.0,106.0,127.0,287.0,-972.0,-140.0
45.0,-280.0,-53.0,-697.0,97.0,188.0,175.0,-1050.0,-85.0
15.0,-294.0,-49.0,-580.0,58.0,239.0,68.0,-1116.0,-64.0
-11.0,-308.0,-49.0,-448.0,14.0,272.0,-31.0,-1175.0,-68.0
-29.0,-322.0,-52.0,-311.0,-30.0,281.0,-106.0,-1239.0,-81.0
-49.0,-333.0,-55.0,-168.0,-66.0,270.0,-176.0,-1281.0,-109.0
-59.0,-345.0,-62.0,-30.0,-99.0,247.0,-237.0,-1317.0,-115.0
-74.0,-353.0,-68.0,108.0,-121.0,223.0,-290.0,-1336.0,-137.0
-79.0,-352.0,-72.0,234.0,-131.0,202.0,-319.0,-1353.0,-156.0
-85.0,-349.0,-82.0,338.0,-129.0,190.0,-331.0,-1360.0,-168.0
-86.0,-352.0,-68.0,409.0,-120.0,198.0,-342.0,-1364.0,-161.0
-82.0,-348.0,-57.0,455.0,-105.0,234.0,-319.0,-1354.0,-109.0
-69.0,-343.0,-44.0,495.0,-87.0,301.0,-279.0,-1346.0,-49.0
-60.0,-345.0,-31.0,541.0,-77.0,385.0,-243.0,-1335.0,10.0
-54.0,-345.0,-11.0,596.0,-70.0,484.0,-217.0,-1333.0,76.0
-52.0,-347.0,3.0,667.0,-73.0,592.0,-214.0,-1342.0,145.0
-31.0,-357.0,10.0,763.0,-85.0,701.0,-139.0,-1377.0,144.0
-19.0,-369.0,11.0,868.0,-100.0,789.0,-81.0,-1421.0,160.0
0.0,-381.0,5.0,995.0,-122.0,856.0,-8.0,-1462.0,140.0
19.0,-399.0,-6.0,1123.0,-139.0,892.0,58.0,-1519.0,112.0
30.0,-409.0,-10.0,1236.0,-142.0,894.0,109.0,-1577.0,91.0
43.0,-422.0,-17.0,1325.0,-114.0,870.0,148.0,-1627.0,74.0
57.0,-431.0,-15.0,1387.0,-58.0,822.0,199.0,-1666.0,50.0
62.0,-445.0,-19.0,1416.0,22.0,754.0,221.0,-1729.0,47.0
65.0,-459.0,-23.0,1415.0,121.0,676.0,228.0,-1786.0,42.0
51.0,-467.0,-27.0,1394.0,222.0,586.0,191.0,-1818.0,25.0
42.0,-479.0,-30.0,1361.0,309.0,500.0,152.0,-1860.0,11.0
20.0,-481.0,-35.0,1335.0,395.0,418.0,74.0,-1865.0,-22.0
-6.0,-477.0,-49.0,1324.0,454.0,351.0,-24.0,-1855.0,-69.0
-32.0,-473.0,-66.0,1297.0,481.0,298.0,-111.0,-1844.0,-139.0
-56.0,-460.0,-70.0,1240.0,478.0,260.0,-203.0,-1800.0,-173.0
-80.0,-445.0,-86.0,1161.0,467.0,245.0,-293.0,-1742.0,-204.0
-100.0,-435.0,-87.0,1075.0,431.0,250.0,-387.0,-1697.0,-220.0
-109.0,-420.0,-89.0,997.0,364.0,271.0,-425.0,-1624.0,-226.0
-114.0,-400.0,-86.0,938.0,299.0,300.0,-449.0,-1558.0,-215.0
-116.0,-375.0,-81.0,903.0,242.0,330.0,-446.0,-1462.0,-191.0
-109.0,-355.0,-74.0,888.0,193.0,362.0,-422.0,-1378.0,-165.0
-105.0,-334.0,-62.0,890.0,142.0,394.0,-397.0,-1304.0,-114.0
-96.0,-314.0,-54.0,905.0,81.0,420.0,-359.0,-1239.0,-75.0
-86.0,-304.0,-46.0,922.0,17.0,439.0,-328.0,-1169.0,-36.0
-75.0,-285.0,-31.0,936.0,-35.0,452.0,-286.0,-1109.0,4.0
-53.0,-269.0,-26.0,944.0,-60.0,460.0,-233.0,-1045.0,41.0
-42.0,-252.0,-15.0,939.0,-57.0,466.0,-168.0,-977.0,67.0
-29.0,-237.0,-2.0,924.0,-34.0,466.0,-131.0,-926.0,93.0
-20.0,-225.0,-1.0,896.0,2.0,467.0,-89.0,-888.0,126.0
-6.0,-209.0,3.0,857.0,33.0,467.0,-39.0,-836.0,140.0
-3.0,-198.0,8.0,807.0,79.0,457.0,-26.0,-781.0,161.0
2.0,-185.0,11.0,751.0,123.0,450.0,9.0,-733.0,167.0
9.0,-176.0,12.0,689.0,163.0,437.0,26.0,-687.0,168.0
19.0,-170.0,16.0,634.0,200.0,420.0,52.0,-654.0,199.0
32.0,-168.0,13.0,611.0,240.0,411.0,93.0,-656.0,177.0
36.0,-160.0,6.0,589.0,275.0,391.0,97.0,-626.0,149.0
13.0,-157.0,3.0,560.0,309.0,360.0,53.0,-612.0,156.0
8.0,-159.0,2.0,534.0,328.0,341.0,44.0,-622.0,138.0
12.0,-165.0,-4.0,515.0,325.0,326.0,46.0,-632.0,123.0
13.0,-162.0,-7.0,488.0,307.0,301.0,49.0,-632.0,105.0
9.0,-165.0,-6.0,455.0,283.0,266.0,37.0,-641.0,115.0
10.0,-175.0,-1.0,426.0,257.0,234.0,35.0,-676.0,126.0
6.0,-174.0,4.0,406.0,243.0,209.0,43.0,-695.0,145.0
17.0,-189.0,8.0,389.0,238.0,181.0,51.0,-725.0,161.0
18.0,-201.0,9.0,388.0,244.0,146.0,72.0,-767.0,176.0
18.0,-210.0,11.0,400.0,267.0,108.0,72.0,-811.0,182.0
26.0,-218.0,14.0,416.0,296.0,78.0,86.0,-857.0,182.0
26.0,-229.0,13.0,426.0,313.0,58.0,90.0,-895.0,177.0
22.0,-237.0,12.0,422.0,316.0,46.0,93.0,-936.0,177.0
25.0,-243.0,14.0,412.0,314.0,43.0,93.0,-950.0,165.0
25.0,-248.0,10.0,390.0,302.0,42.0,85.0,-972.0,158.0
20.0,-254.0,7.0,361.0,291.0,47.0,76.0,-991.0,140.0
21.0,-259.0,1.0,332.0,282.0,55.0,77.0,-1012.0,134.0
17.0,-267.0,-8.0,301.0,281.0,63.0,75.0,-1040.0,115.0
19.0,-272.0,-6.0,271.0,275.0,73.0,68.0,-1054.0,106.0
20.0,-277.0,-6.0,253.0,273.0,79.0,72.0,-1079.0,104.0
19.0,-282.0,-6.0,246.0,271.0,81.0,75.0,-1100.0,100.0
24.0,-295.0,-22.0,247.0,266.0,72.0,83.0,-1123.0,100.0
24.0,-289.0,-7.0,259.0,264.0,60.0,91.0,-1134.0,102.0
27.0,-291.0,-4.0,274.0,258.0,44.0,103.0,-1141.0,99.0
28.0,-291.0,-4.0,287.0,248.0,28.0,101.0,-1134.0,110.0
31.0,-290.0,2.0,299.0,219.0,14.0,121.0,-1125.0,119.0
31.0,-288.0,3.0,304.0,182.0,-3.0,117.0,-1114.0,127.0
33.0,-282.0,1.0,309.0,138.0,-22.0,124.0,-1094.0,130.0
36.0,-279.0,4.0,316.0,97.0,-44.0,131.0,-1083.0,131.0
35.0,-272.0,-1.0,322.0,71.0,-67.0,136.0,-1063.0,125.0
37.0,-266.0,-6.0,329.0,53.0,-96.0,137.0,-1031.0,111.0
37.0,-256.0,-8.0,329.0,45.0,-127.0,135.0,-1004.0,100.0
36.0,-251.0,-6.0,325.0,51.0,-153.0,127.0,-984.0,92.0
31.0,-248.0,-9.0,311.0,56.0,-178.0,123.0,-967.0,87.0
32.0,-246.0,-9.0,292.0,61.0,-198.0,119.0,-966.0,89.0
31.0,-245.0,-7.0,271.0,68.0,-215.0,116.0,-964.0,94.0
33.0,-248.0,-7.0,251.0,74.0,-226.0,116.0,-965.0,106.0
32.0,-249.0,3.0,233.0,70.0,-233.0,125.0,-965.0,125.0
33.0,-248.0,4.0,216.0,60.0,-238.0,123.0,-974.0,140.0
30.0,-251.0,7.0,199.0,40.0,-241.0,130.0,-977.0,160.0
34.0,-249.0,16.0,191.0,19.0,-243.0,134.0,-974.0,174.0
37.0,-250.0,16.0,183.0,-7.0,-246.0,137.0,-969.0,183.0
37.0,-251.0,14.0,176.0,-30.0,-249.0,134.0,-961.0,192.0
34.0,-245.0,17.0,174.0,-47.0,-248.0,132.0,-963.0,196.0
33.0,-246.0,17.0,175.0,-63.0,-246.0,127.0,-947.0,202.0
34.0,-243.0,17.0,174.0,-76.0,-244.0,126.0,-945.0,205.0
31.0,-238.0,18.0,171.0,-86.0,-240.0,119.0,-933.0,199.0
33.0,-236.0,17.0,162.0,-94.0,-235.0,118.0,-928.0,207.0
27.0,-234.0,18.0,152.0,-100.0,-230.0,105.0,-915.0,208.0
27.0,-232.0,19.0,142.0,-108.0,-222.0,103.0,-908.0,203.0
29.0,-227.0,19.0,133.0,-116.0,-215.0,105.0,-902.0,208.0
29.0,-228.0,24.0,126.0,-124.0,-204.0,106.0,-896.0,215.0
28.0,-226.0,21.0,122.0,-133.0,-195.0,106.0,-889.0,214.0
26.0,-223.0,21.0,122.0,-143.0,-186.0,103.0,-874.0,217.0
27.0,-218.0,20.0,121.0,-152.0,-178.0,106.0,-858.0,213.0
29.0,-219.0,25.0,123.0,-160.0,-170.0,106.0,-856.0,210.0
29.0,-220.0,18.0,121.0,-167.0,-164.0,114.0,-849.0,209.0
29.0,-216.0,22.0,120.0,-167.0,-158.0,107.0,-845.0,212.0
32.0,-217.0,24.0,122.0,-168.0,-151.0,111.0,-848.0,217.0
31.0,-219.0,22.0,122.0,-166.0,-144.0,114.0,-848.0,209.0
32.0,-215.0,19.0,123.0,-160.0,-135.0,116.0,-850.0,210.0
34.0,-218.0,20.0,121.0,-156.0,-126.0,114.0,-854.0,208.0
29.0,-219.0,19.0,114.0,-150.0,-118.0,120.0,-858.0,196.0
35.0,-222.0,14.0,104.0,-144.0,-106.0,117.0,-870.0,193.0
28.0,-228.0,15.0,93.0,-139.0,-95.0,123.0,-881.0,188.0
34.0,-230.0,14.0,79.0,-132.0,-82.0,128.0,-893.0,184.0
34.0,-232.0,13.0,68.0,-127.0,-69.0,130.0,-904.0,177.0
35.0,-234.0,12.0,51.0,-124.0,-56.0,129.0,-917.0,170.0
36.0,-238.0,13.0,33.0,-120.0,-44.0,131.0,-930.0,165.0
37.0,-244.0,7.0,16.0,-114.0,-29.0,139.0,-941.0,161.0
39.0,-245.0,4.0,5.0,-110.0,-15.0,131.0,-956.0,145.0
35.0,-245.0,6.0,-3.0,-103.0,0.0,139.0,-966.0,145.0
38.0,-247.0,1.0,-11.0,-94.0,11.0,143.0,-969.0,142.0
40.0,-249.0,1.0,-17.0,-85.0,20.0,143.0,-975.0,132.0
40.0,-252.0,0.0,-21.0,-75.0,25.0,145.0,-980.0,134.0
43.0,-255.0,10.0,-22.0,-64.0,28.0,142.0,-983.0,137.0
39.0,-255.0,2.0,-19.0,-55.0,29.0,141.0,-983.0,132.0
37.0,-255.0,5.0,-13.0,-48.0,29.0,141.0,-992.0,139.0
37.0,-257.0,5.0,-7.0,-40.0,29.0,134.0,-993.0,142.0
33.0,-254.0,3.0,2.0,-36.0,29.0,131.0,-993.0,143.0
37.0,-259.0,3.0,12.0,-32.0,29.0,129.0,-998.0,138.0
30.0,-256.0,5.0,20.0,-32.0,30.0,123.0,-1001.0,135.0
35.0,-255.0,3.0,30.0,-36.0,31.0,118.0,-989.0,131.0
30.0,-254.0,4.0,38.0,-38.0,32.0,119.0,-985.0,135.0
31.0,-250.0,4.0,43.0,-39.0,35.0,119.0,-977.0,130.0
29.0,-249.0,0.0,44.0,-39.0,38.0,114.0,-970.0,129.0
26.0,-249.0,-4.0,37.0,-36.0,41.0,110.0,-960.0,119.0
32.0,-244.0,-1.0,25.0,-34.0,47.0,111.0,-948.0,121.0
29.0,-243.0,1.0,7.0,-32.0,52.0,104.0,-942.0,119.0
31.0,-243.0,-3.0,-12.0,-28.0,57.0,112.0,-938.0,122.0
29.0,-241.0,-1.0,-32.0,-22.0,59.0,107.0,-935.0,127.0
28.0,-239.0,0.0,-51.0,-19.0,61.0,107.0,-935.0,125.0
28.0,-239.0,-2.0,-67.0,-14.0,62.0,104.0,-935.0,125.0
25.0,-239.0,-4.0,-82.0,-10.0,62.0,105.0,-932.0,124.0
28.0,-238.0,2.0,-96.0,-8.0,63.0,104.0,-928.0,123.0
28.0,-239.0,-4.0,-109.0,-8.0,63.0,100.0,-936.0,128.0
27.0,-239.0,2.0,-120.0,-9.0,61.0,101.0,-935.0,122.0
29.0,-231.0,2.0,-129.0,-12.0,59.0,96.0,-935.0,126.0
26.0,-240.0,2.0,-133.0,-16.0,56.0,96.0,-939.0,132.0
21.0,-240.0,-1.0,-131.0,-19.0,51.0,91.0,-940.0,137.0
23.0,-243.0,4.0,-127.0,-24.0,47.0,91.0,-951.0,138.0
26.0,-245.0,8.0,-125.0,-26.0,41.0,86.0,-953.0,141.0
24.0,-245.0,0.0,-120.0,-25.0,37.0,81.0,-954.0,139.0
22.0,-244.0,0.0,-120.0,-19.0,32.0,77.0,-952.0,141.0
17.0,-245.0,3.0,-119.0,-9.0,25.0,73.0,-958.0,143.0
21.0,-249.0,6.0,-122.0,3.0,21.0,69.0,-962.0,136.0
19.0,-246.0,8.0,-129.0,16.0,16.0,68.0,-975.0,134.0
21.0,-249.0,7.0,-133.0,26.0,14.0,69.0,-973.0,142.0
17.0,-256.0,8.0,-136.0,32.0,7.0,67.0,-977.0,151.0
18.0,-254.0,8.0,-133.0,35.0,3.0,69.0,-980.0,155.0
20.0,-252.0,6.0,-123.0,35.0,-3.0,73.0,-999.0,154.0
16.0,-253.0,10.0,-112.0,33.0,-10.0,69.0,-986.0,163.0
21.0,-253.0,10.0,-96.0,30.0,-15.0,73.0,-985.0,162.0
21.0,-253.0,11.0,-80.0,26.0,-21.0,72.0,-981.0,168.0
21.0,-252.0,12.0,-64.0,24.0,-24.0,79.0,-980.0,164.0
21.0,-253.0,11.0,-47.0,25.0,-28.0,76.0,-984.0,162.0
19.0,-249.0,12.0,-33.0,25.0,-30.0,78.0,-975.0,169.0
20.0,-252.0,12.0,-23.0,29.0,-33.0,76.0,-976.0,173.0
19.0,-252.0,11.0,-13.0,35.0,-34.0,73.0,-979.0,177.0
19.0,-249.0,22.0,-5.0,40.0,-36.0,76.0,-978.0,182.0
22.0,-250.0,15.0,0.0,45.0,-38.0,77.0,-978.0,185.0
19.0,-250.0,17.0,7.0,52.0,-38.0,75.0,-977.0,186.0
22.0,-251.0,13.0,11.0,59.0,-40.0,78.0,-974.0,192.0
19.0,-247.0,15.0,17.0,65.0,-41.0,77.0,-975.0,194.0
24.0,-250.0,14.0,20.0,73.0,-39.0,80.0,-967.0,193.0
24.0,-249.0,17.0,24.0,79.0,-40.0,81.0,-968.0,193.0
21.0,-244.0,14.0,24.0,87.0,-38.0,84.0,-956.0,186.0
24.0,-245.0,17.0,24.0,93.0,-38.0,82.0,-958.0,186.0
23.0,-245.0,14.0,24.0,99.0,-36.0,91.0,-953.0,183.0
23.0,-242.0,14.0,22.0,102.0,-34.0,90.0,-952.0,189.0
27.0,-248.0,12.0,19.0,103.0,-32.0,93.0,-955.0,187.0
23.0,-244.0,14.0,15.0,101.0,-31.0,87.0,-957.0,184.0
27.0,-246.0,15.0,15.0,101.0,-28.0,90.0,-957.0,190.0
27.0,-244.0,15.0,15.0,98.0,-28.0,91.0,-954.0,191.0
25.0,-244.0,14.0,17.0,95.0,-27.0,93.0,-960.0,196.0
24.0,-246.0,20.0,19.0,95.0,-26.0,92.0,-955.0,196.0
25.0,-244.0,15.0,21.0,91.0,-25.0,91.0,-956.0,188.0
21.0,-243.0,15.0,21.0,89.0,-25.0,90.0,-955.0,188.0
21.0,-243.0,14.0,19.0,88.0,-23.0,90.0,-951.0,187.0
22.0,-243.0,13.0,15.0,86.0,-23.0,90.0,-950.0,178.0
24.0,-243.0,13.0,10.0,84.0,-21.0,88.0,-958.0,177.0
29.0,-243.0,11.0,9.0,81.0,-20.0,88.0,-960.0,173.0
24.0,-245.0,11.0,5.0,77.0,-20.0,93.0,-958.0,166.0
27.0,-247.0,12.0,3.0,72.0,-18.0,94.0,-959.0,168.0
27.0,-248.0,13.0,5.0,69.0,-17.0,95.0,-963.0,167.0
24.0,-245.0,11.0,5.0,63.0,-18.0,97.0,-965.0,163.0
29.0,-248.0,11.0,8.0,59.0,-18.0,92.0,-962.0,161.0
27.0,-250.0,9.0,11.0,53.0,-19.0,98.0,-963.0,166.0
27.0,-245.0,11.0,14.0,49.0,-18.0,102.0,-958.0,159.0
28.0,-246.0,12.0,16.0,44.0,-19.0,108.0,-957.0,163.0
26.0,-245.0,8.0,19.0,39.0,-21.0,103.0,-955.0,153.0
27.0,-244.0,10.0,23.0,36.0,-20.0,102.0,-945.0,155.0
21.0,-240.0,4.0,25.0,31.0,-21.0,98.0,-945.0,151.0
27.0,-242.0,6.0,23.0,27.0,-22.0,103.0,-941.0,150.0
29.0,-241.0,8.0,20.0,24.0,-23.0,103.0,-937.0,151.0
30.0,-241.0,4.0,15.0,21.0,-24.0,102.0,-932.0,152.0
27.0,-242.0,3.0,8.0,18.0,-25.0,106.0,-934.0,147.0
29.0,-240.0,4.0,-1.0,15.0,-26.0,104.0,-936.0,155.0
25.0,-241.0,11.0,-11.0,13.0,-26.0,110.0,-936.0,156.0
29.0,-243.0,11.0,-18.0,11.0,-27.0,101.0,-946.0,162.0
31.0,-246.0,13.0,-24.0,7.0,-27.0,103.0,-957.0,169.0
28.0,-245.0,13.0,-27.0,1.0,-25.0,109.0,-955.0,168.0
29.0,-247.0,21.0,-25.0,-5.0,-24.0,105.0,-965.0,172.0
30.0,-247.0,13.0,-24.0,-12.0,-22.0,105.0,-964.0,175.0
27.0,-246.0,15.0,-21.0,-19.0,-20.0,100.0,-964.0,178.0
26.0,-248.0,12.0,-21.0,-27.0,-18.0,102.0,-965.0,179.0
29.0,-247.0,12.0,-19.0,-32.0,-16.0,101.0,-962.0,173.0
29.0,-245.0,12.0,-15.0,-35.0,-16.0,103.0,-965.0,170.0
26.0,-246.0,9.0,-9.0,-35.0,-17.0,100.0,-964.0,168.0
28.0,-244.0,12.0,-6.0,-34.0,-18.0,95.0,-957.0,169.0
25.0,-245.0,11.0,-4.0,-32.0,-20.0,96.0,-957.0,166.0
22.0,-244.0,12.0,-1.0,-31.0,-21.0,92.0,-949.0,174.0
22.0,-244.0,13.0,0.0,-28.0,-22.0,94.0,-948.0,175.0
23.0,-244.0,12.0,-1.0,-27.0,-22.0,88.0,-941.0,180.0
23.0,-242.0,15.0,-3.0,-27.0,-24.0,89.0,-942.0,181.0
26.0,-244.0,13.0,-7.0,-29.0,-24.0,90.0,-945.0,185.0
25.0,-244.0,14.0,-10.0,-32.0,-25.0,88.0,-952.0,187.0
26.0,-243.0,12.0,-14.0,-38.0,-23.0,89.0,-948.0,185.0
21.0,-243.0,12.0,-17.0,-41.0,-21.0,87.0,-947.0,183.0
26.0,-245.0,12.0,-19.0,-48.0,-20.0,91.0,-951.0,180.0
24.0,-245.0,11.0,-20.0,-50.0,-18.0,86.0,-954.0,180.0
22.0,-243.0,15.0,-23.0,-54.0,-16.0,88.0,-956.0,177.0
24.0,-246.0,11.0,-22.0,-55.0,-16.0,87.0,-958.0,178.0
24.0,-248.0,16.0,-20.0,-56.0,-13.0,86.0,-967.0,181.0
27.0,-247.0,13.0,-18.0,-55.0,-12.0,92.0,-967.0,183.0
25.0,-249.0,18.0,-15.0,-56.0,-12.0,91.0,-970.0,186.0
25.0,-249.0,17.0,-10.0,-55.0,-11.0,91.0,-968.0,191.0
26.0,-247.0,16.0,-4.0,-55.0,-11.0,91.0,-970.0,188.0
25.0,-249.0,19.0,1.0,-55.0,-13.0,94.0,-969.0,193.0
28.0,-249.0,16.0,6.0,-51.0,-14.0,98.0,-971.0,191.0
24.0,-246.0,16.0,9.0,-49.0,-14.0,95.0,-971.0,188.0
28.0,-246.0,14.0,12.0,-43.0,-16.0,98.0,-967.0,186.0
26.0,-246.0,12.0,15.0,-39.0,-18.0,100.0,-958.0,186.0
30.0,-247.0,14.0,14.0,-35.0,-19.0,100.0,-960.0,182.0
27.0,-244.0,15.0,15.0,-30.0,-19.0,101.0,-956.0,184.0
29.0,-244.0,13.0,16.0,-27.0,-20.0,103.0,-956.0,188.0
32.0,-244.0,13.0,17.0,-24.0,-20.0,106.0,-954.0,189.0
27.0,-243.0,15.0,17.0,-23.0,-20.0,105.0,-955.0,187.0
28.0,-244.0,15.0,15.0,-21.0,-21.0,103.0,-953.0,184.0
32.0,-243.0,15.0,11.0,-22.0,-22.0,108.0,-951.0,186.0
30.0,-244.0,14.0,7.0,-23.0,-23.0,106.0,-945.0,188.0
29.0,-245.0,14.0,3.0,-21.0,-23.0,106.0,-950.0,187.0
28.0,-243.0,15.0,0.0,-21.0,-27.0,105.0,-946.0,181.0
29.0,-244.0,14.0,-4.0,-19.0,-28.0,107.0,-945.0,185.0
33.0,-244.0,16.0,-5.0,-13.0,-28.0,109.0,-943.0,184.0
28.0,-242.0,13.0,-7.0,-10.0,-27.0,112.0,-946.0,182.0
25.0,-244.0,13.0,-8.0,-6.0,-27.0,109.0,-942.0,183.0
29.0,-243.0,14.0,-7.0,-2.0,-25.0,112.0,-945.0,184.0
31.0,-241.0,15.0,-8.0,1.0,-25.0,103.0,-950.0,183.0
32.0,-242.0,13.0,-9.0,3.0,-24.0,113.0,-944.0,185.0
30.0,-243.0,18.0,-10.0,6.0,-23.0,120.0,-949.0,187.0
30.0,-244.0,14.0,-10.0,7.0,-21.0,114.0,-943.0,188.0
30.0,-244.0,15.0,-12.0,7.0,-20.0,116.0,-949.0,183.0
29.0,-244.0,11.0,-16.0,9.0,-18.0,117.0,-947.0,183.0
30.0,-246.0,15.0,-19.0,10.0,-17.0,119.0,-953.0,184.0
32.0,-244.0,16.0,-23.0,11.0,-15.0,112.0,-954.0,182.0
32.0,-248.0,12.0,-22.0,12.0,-16.0,119.0,-956.0,180.0
29.0,-246.0,14.0,-23.0,13.0,-15.0,115.0,-956.0,180.0
28.0,-242.0,14.0,-24.0,13.0,-14.0,108.0,-956.0,181.0
31.0,-246.0,12.0,-26.0,13.0,-16.0,106.0,-953.0,179.0
29.0,-244.0,14.0,-26.0,12.0,-16.0,105.0,-948.0,183.0
27.0,-243.0,13.0,-27.0,13.0,-15.0,108.0,-953.0,181.0
26.0,-243.0,12.0,-28.0,13.0,-15.0,104.0,-945.0,180.0
28.0,-243.0,14.0,-30.0,12.0,-14.0,107.0,-941.0,180.0
29.0,-242.0,14.0,-31.0,13.0,-16.0,106.0,-944.0,183.0
31.0,-241.0,17.0,-34.0,13.0,-13.0,106.0,-943.0,186.0
28.0,-244.0,14.0,-36.0,15.0,-13.0,107.0,-949.0,184.0
29.0,-245.0,13.0,-39.0,14.0,-12.0,106.0,-948.0,185.0
25.0,-244.0,12.0,-40.0,15.0,-11.0,106.0,-949.0,182.0
30.0,-243.0,13.0,-41.0,16.0,-8.0,113.0,-949.0,182.0
29.0,-244.0,13.0,-41.0,17.0,-6.0,107.0,-956.0,185.0
33.0,-245.0,16.0,-40.0,18.0,-5.0,105.0,-948.0,187.0
31.0,-245.0,13.0,-39.0,18.0,-4.0,113.0,-950.0,186.0
28.0,-244.0,14.0,-37.0,19.0,-3.0,114.0,-952.0,183.0
27.0,-243.0,12.0,-35.0,21.0,-3.0,108.0,-955.0,181.0
28.0,-245.0,13.0,-34.0,21.0,-4.0,107.0,-954.0,182.0
26.0,-242.0,13.0,-34.0,23.0,-3.0,103.0,-956.0,187.0
30.0,-244.0,14.0,-35.0,25.0,-3.0,109.0,-955.0,183.0
31.0,-245.0,13.0,-35.0,26.0,-2.0,111.0,-954.0,184.0
27.0,-247.0,15.0,-36.0,29.0,-3.0,107.0,-956.0,181.0
27.0,-245.0,12.0,-35.0,31.0,-5.0,106.0,-954.0,182.0
29.0,-246.0,14.0,-34.0,32.0,-5.0,104.0,-958.0,188.0
29.0,-243.0,13.0,-31.0,33.0,-5.0,105.0,-958.0,184.0
29.0,-246.0,20.0,-28.0,34.0,-5.0,104.0,-958.0,179.0
31.0,-246.0,12.0,-23.0,35.0,-7.0,102.0,-957.0,189.0
29.0,-246.0,14.0,-15.0,36.0,-8.0,100.0,-959.0,188.0
26.0,-245.0,16.0,-10.0,37.0,-6.0,101.0,-957.0,185.0
28.0,-242.0,14.0,-7.0,37.0,-6.0,102.0,-953.0,190.0
28.0,-245.0,15.0,-5.0,38.0,-5.0,102.0,-955.0,185.0
29.0,-245.0,15.0,-6.0,36.0,-4.0,101.0,-946.0,185.0
32.0,-247.0,21.0,-4.0,36.0,-4.0,104.0,-953.0,189.0
32.0,-245.0,13.0,-5.0,34.0,-2.0,103.0,-949.0,189.0
32.0,-245.0,13.0,-5.0,33.0,-1.0,100.0,-951.0,190.0
30.0,-245.0,13.0,-4.0,32.0,-1.0,109.0,-944.0,187.0
31.0,-241.0,19.0,-6.0,30.0,0.0,103.0,-946.0,187.0
28.0,-242.0,15.0,-6.0,30.0,-1.0,105.0,-942.0,192.0
30.0,-242.0,17.0,-7.0,29.0,-2.0,108.0,-940.0,197.0
32.0,-243.0,16.0,-8.0,31.0,-3.0,101.0,-941.0,189.0
30.0,-242.0,16.0,-10.0,35.0,-7.0,103.0,-939.0,192.0
28.0,-242.0,17.0,-12.0,37.0,-8.0,106.0,-942.0,189.0
34.0,-244.0,14.0,-12.0,40.0,-8.0,105.0,-950.0,193.0
25.0,-247.0,20.0,-12.0,42.0,-10.0,106.0,-952.0,189.0
29.0,-245.0,15.0,-11.0,44.0,-10.0,106.0,-957.0,186.0
30.0,-244.0,16.0,-9.0,43.0,-7.0,103.0,-958.0,188.0
28.0,-244.0,14.0,-9.0,41.0,-7.0,104.0,-962.0,188.0
30.0,-247.0,16.0,-6.0,39.0,-8.0,110.0,-967.0,192.0
28.0,-247.0,14.0,-1.0,38.0,-6.0,106.0,-969.0,194.0
30.0,-246.0,17.0,4.0,35.0,-5.0,107.0,-972.0,187.0
26.0,-247.0,17.0,13.0,34.0,-5.0,103.0,-965.0,185.0
27.0,-248.0,14.0,19.0,35.0,-4.0,107.0,-962.0,186.0
27.0,-246.0,16.0,27.0,37.0,-6.0,103.0,-950.0,188.0
33.0,-239.0,11.0,30.0,37.0,-9.0,104.0,-946.0,192.0
28.0,-241.0,14.0,32.0,37.0,-9.0,104.0,-946.0,194.0
32.0,-242.0,13.0,31.0,36.0,-11.0,107.0,-936.0,193.0
28.0,-241.0,19.0,27.0,36.0,-12.0,107.0,-936.0,198.0
31.0,-241.0,14.0,19.0,33.0,-14.0,108.0,-933.0,196.0
29.0,-242.0,16.0,12.0,33.0,-11.0,107.0,-934.0,190.0
29.0,-241.0,18.0,7.0,33.0,-10.0,108.0,-938.0,193.0
31.0,-242.0,12.0,1.0,33.0,-9.0,110.0,-942.0,193.0
31.0,-243.0,15.0,-1.0,30.0,-8.0,111.0,-950.0,193.0
29.0,-243.0,16.0,1.0,30.0,-5.0,106.0,-947.0,191.0
29.0,-247.0,19.0,1.0,31.0,-6.0,104.0,-951.0,196.0
28.0,-251.0,19.0,2.0,30.0,-6.0,105.0,-956.0,198.0
30.0,-244.0,15.0,7.0,29.0,-5.0,106.0,-956.0,195.0
29.0,-243.0,13.0,12.0,30.0,-5.0,104.0,-950.0,191.0
28.0,-243.0,13.0,15.0,30.0,-4.0,105.0,-952.0,192.0
28.0,-245.0,16.0,15.0,29.0,-4.0,103.0,-952.0,200.0
29.0,-243.0,20.0,17.0,26.0,-6.0,102.0,-948.0,198.0
29.0,-244.0,16.0,18.0,25.0,-6.0,99.0,-948.0,200.0
30.0,-242.0,19.0,17.0,25.0,-6.0,106.0,-942.0,198.0
25.0,-242.0,12.0,16.0,24.0,-6.0,102.0,-947.0,200.0
26.0,-244.0,16.0,15.0,25.0,-4.0,102.0,-947.0,195.0
29.0,-242.0,18.0,15.0,26.0,-4.0,102.0,-940.0,196.0
27.0,-247.0,7.0,15.0,28.0,-2.0,102.0,-946.0,200.0
29.0,-243.0,16.0,15.0,28.0,-2.0,102.0,-949.0,195.0
29.0,-242.0,19.0,15.0,29.0,-2.0,106.0,-950.0,194.0
27.0,-243.0,18.0,15.0,29.0,-2.0,105.0,-944.0,197.0
30.0,-246.0,20.0,15.0,28.0,-1.0,101.0,-950.0,196.0
29.0,-244.0,21.0,15.0,26.0,-2.0,111.0,-950.0,194.0
30.0,-240.0,21.0,13.0,24.0,-1.0,110.0,-953.0,202.0
30.0,-245.0,17.0,11.0,24.0,-2.0,102.0,-945.0,198.0
31.0,-244.0,20.0,8.0,22.0,-2.0,113.0,-947.0,200.0
29.0,-242.0,19.0,4.0,22.0,-2.0,98.0,-944.0,203.0
33.0,-244.0,17.0,-2.0,23.0,-1.0,97.0,-940.0,203.0
26.0,-241.0,18.0,-10.0,25.0,-2.0,98.0,-939.0,202.0
29.0,-239.0,17.0,-17.0,28.0,-1.0,100.0,-940.0,209.0
25.0,-240.0,20.0,-22.0,29.0,-2.0,102.0,-941.0,200.0
28.0,-244.0,21.0,-27.0,33.0,-2.0,102.0,-936.0,201.0
28.0,-242.0,19.0,-32.0,33.0,-1.0,99.0,-944.0,206.0
29.0,-243.0,20.0,-36.0,33.0,0.0,102.0,-942.0,206.0
26.0,-244.0,17.0,-39.0,33.0,1.0,104.0,-946.0,207.0
27.0,-244.0,19.0,-40.0,32.0,1.0,108.0,-954.0,202.0
28.0,-245.0,17.0,-39.0,31.0,2.0,105.0,-951.0,204.0
29.0,-247.0,23.0,-38.0,29.0,3.0,108.0,-954.0,204.0
26.0,-245.0,24.0,-36.0,30.0,4.0,99.0,-956.0,201.0
23.0,-240.0,22.0,-31.0,28.0,3.0,106.0,-958.0,210.0
27.0,-246.0,18.0,-28.0,27.0,3.0,96.0,-957.0,209.0
28.0,-243.0,23.0,-24.0,28.0,3.0,101.0,-954.0,206.0
26.0,-243.0,23.0,-21.0,28.0,2.0,100.0,-954.0,210.0
28.0,-243.0,25.0,-19.0,26.0,1.0,96.0,-948.0,204.0
27.0,-245.0,20.0,-20.0,26.0,0.0,100.0,-946.0,207.0
29.0,-245.0,19.0,-20.0,27.0,-1.0,98.0,-951.0,209.0
26.0,-241.0,27.0,-21.0,27.0,-4.0,93.0,-946.0,208.0
26.0,-242.0,25.0,-22.0,28.0,-4.0,101.0,-944.0,209.0
30.0,-243.0,21.0,-20.0,27.0,-6.0,101.0,-948.0,206.0
30.0,-244.0,20.0,-22.0,29.0,-7.0,101.0,-943.0,209.0
26.0,-240.0,23.0,-19.0,30.0,-8.0,98.0,-946.0,211.0
28.0,-245.0,22.0,-18.0,31.0,-10.0,108.0,-948.0,208.0
29.0,-244.0,19.0,-17.0,31.0,-8.0,101.0,-944.0,210.0
27.0,-242.0,23.0,-16.0,31.0,-9.0,107.0,-947.0,208.0
28.0,-243.0,18.0,-16.0,32.0,-10.0,104.0,-950.0,205.0
31.0,-245.0,17.0,-12.0,33.0,-10.0,103.0,-946.0,208.0
28.0,-245.0,23.0,-12.0,33.0,-11.0,105.0,-949.0,213.0
27.0,-245.0,20.0,-12.0,34.0,-12.0,102.0,-952.0,212.0
28.0,-246.0,24.0,-12.0,35.0,-12.0,104.0,-955.0,213.0
27.0,-243.0,20.0,-11.0,34.0,-13.0,99.0,-950.0,216.0
27.0,-242.0,26.0,-11.0,36.0,-14.0,103.0,-950.0,211.0
36.0,-242.0,23.0,-9.0,35.0,-14.0,106.0,-948.0,217.0
28.0,-244.0,23.0,-9.0,36.0,-14.0,102.0,-954.0,212.0
26.0,-242.0,22.0,-8.0,36.0,-14.0,102.0,-951.0,212.0
28.0,-243.0,21.0,-6.0,37.0,-14.0,100.0,-947.0,218.0
29.0,-244.0,21.0,-3.0,36.0,-14.0,103.0,-945.0,218.0
26.0,-242.0,24.0,0.0,38.0,-15.0,104.0,-945.0,220.0
26.0,-243.0,28.0,1.0,38.0,-15.0,101.0,-951.0,220.0
28.0,-243.0,26.0,2.0,36.0,-16.0,101.0,-943.0,215.0
33.0,-243.0,25.0,3.0,36.0,-15.0,102.0,-948.0,218.0
28.0,-242.0,23.0,1.0,37.0,-17.0,105.0,-943.0,218.0
29.0,-245.0,24.0,2.0,38.0,-16.0,102.0,-953.0,213.0
25.0,-242.0,21.0,0.0,40.0,-16.0,104.0,-955.0,219.0
29.0,-244.0,24.0,0.0,41.0,-15.0,109.0,-944.0,218.0
29.0,-242.0,19.0,1.0,40.0,-15.0,103.0,-943.0,215.0
31.0,-243.0,17.0,1.0,41.0,-15.0,106.0,-942.0,216.0
29.0,-242.0,21.0,1.0,40.0,-14.0,105.0,-942.0,216.0
27.0,-243.0,21.0,1.0,41.0,-13.0,105.0,-944.0,217.0
30.0,-240.0,24.0,2.0,40.0,-13.0,107.0,-944.0,217.0
30.0,-242.0,24.0,3.0,39.0,-13.0,106.0,-952.0,223.0
28.0,-243.0,23.0,2.0,39.0,-13.0,115.0,-947.0,222.0
27.0,-243.0,26.0,4.0,37.0,-13.0,103.0,-944.0,222.0
30.0,-243.0,21.0,5.0,36.0,-13.0,106.0,-946.0,218.0
25.0,-248.0,27.0,8.0,33.0,-12.0,108.0,-951.0,217.0
28.0,-241.0,21.0,11.0,31.0,-14.0,104.0,-945.0,222.0
29.0,-244.0,25.0,12.0,30.0,-14.0,105.0,-939.0,214.0
31.0,-241.0,21.0,12.0,29.0,-16.0,104.0,-934.0,220.0
27.0,-239.0,27.0,10.0,29.0,-16.0,105.0,-932.0,222.0
30.0,-240.0,24.0,6.0,28.0,-17.0,105.0,-935.0,219.0
28.0,-239.0,22.0,-1.0,31.0,-19.0,108.0,-935.0,223.0
28.0,-240.0,27.0,-7.0,33.0,-19.0,100.0,-934.0,221.0
27.0,-242.0,25.0,-14.0,36.0,-21.0,102.0,-938.0,218.0
31.0,-244.0,27.0,-21.0,37.0,-20.0,104.0,-939.0,223.0
25.0,-244.0,27.0,-25.0,38.0,-19.0,104.0,-948.0,227.0
29.0,-244.0,24.0,-28.0,34.0,-17.0,112.0,-949.0,227.0
31.0,-247.0,23.0,-28.0,32.0,-16.0,110.0,-954.0,225.0
32.0,-245.0,26.0,-27.0,26.0,-15.0,119.0,-966.0,226.0
29.0,-247.0,23.0,-20.0,24.0,-14.0,120.0,-964.0,221.0
29.0,-245.0,21.0,-15.0,21.0,-12.0,110.0,-963.0,221.0
30.0,-246.0,24.0,-7.0,21.0,-11.0,112.0,-966.0,217.0
31.0,-246.0,18.0,1.0,22.0,-11.0,110.0,-956.0,215.0
26.0,-243.0,25.0,8.0,23.0,-14.0,107.0,-953.0,213.0
28.0,-241.0,24.0,13.0,27.0,-16.0,100.0,-943.0,218.0
30.0,-240.0,26.0,16.0,30.0,-20.0,99.0,-939.0,211.0
31.0,-250.0,20.0,17.0,34.0,-21.0,102.0,-933.0,221.0
30.0,-238.0,24.0,12.0,34.0,-22.0,95.0,-926.0,224.0
25.0,-238.0,25.0,6.0,34.0,-24.0,103.0,-929.0,226.0
27.0,-239.0,22.0,-2.0,35.0,-22.0,100.0,-927.0,226.0
31.0,-240.0,26.0,-12.0,34.0,-22.0,103.0,-932.0,222.0
29.0,-239.0,23.0,-18.0,32.0,-20.0,103.0,-934.0,223.0
32.0,-242.0,24.0,-25.0,30.0,-20.0,107.0,-936.0,225.0
29.0,-243.0,24.0,-29.0,29.0,-18.0,108.0,-941.0,225.0
29.0,-240.0,20.0,-29.0,27.0,-15.0,103.0,-950.0,226.0
30.0,-244.0,24.0,-30.0,25.0,-14.0,104.0,-948.0,222.0
30.0,-246.0,26.0,-27.0,26.0,-13.0,102.0,-949.0,220.0
27.0,-243.0,24.0,-25.0,27.0,-14.0,107.0,-954.0,220.0
28.0,-244.0,25.0,-22.0,28.0,-13.0,110.0,-946.0,225.0
32.0,-244.0,23.0,-21.0,29.0,-13.0,102.0,-947.0,226.0
28.0,-243.0,25.0,-16.0,30.0,-14.0,113.0,-948.0,220.0
27.0,-241.0,26.0,-15.0,31.0,-14.0,104.0,-942.0,226.0
26.0,-243.0,26.0,-14.0,30.0,-14.0,106.0,-940.0,227.0
29.0,-241.0,28.0,-14.0,31.0,-15.0,102.0,-942.0,227.0
27.0,-239.0,25.0,-12.0,30.0,-14.0,105.0,-943.0,228.0
29.0,-241.0,25.0,-13.0,29.0,-13.0,102.0,-939.0,224.0
27.0,-243.0,22.0,-14.0,29.0,-13.0,103.0,-939.0,225.0
28.0,-239.0,26.0,-17.0,29.0,-11.0,101.0,-939.0,223.0
30.0,-244.0,22.0,-19.0,27.0,-11.0,103.0,-943.0,224.0
29.0,-242.0,22.0,-21.0,27.0,-10.0,102.0,-941.0,226.0
27.0,-240.0,26.0,-22.0,27.0,-8.0,106.0,-942.0,226.0
30.0,-241.0,23.0,-23.0,27.0,-8.0,105.0,-940.0,219.0
28.0,-241.0,24.0,-24.0,26.0,-8.0,107.0,-938.0,221.0
29.0,-240.0,23.0,-24.0,26.0,-8.0,112.0,-940.0,224.0
26.0,-241.0,22.0,-27.0,26.0,-8.0,106.0,-942.0,223.0
30.0,-243.0,26.0,-27.0,26.0,-9.0,103.0,-947.0,221.0
30.0,-242.0,20.0,-29.0,26.0,-11.0,111.0,-943.0,222.0
26.0,-240.0,24.0,-29.0,27.0,-9.0,105.0,-946.0,222.0
30.0,-243.0,27.0,-30.0,26.0,-9.0,102.0,-949.0,221.0
30.0,-241.0,29.0,-32.0,26.0,-9.0,105.0,-947.0,224.0
28.0,-245.0,23.0,-29.0,25.0,-9.0,104.0,-948.0,220.0
30.0,-244.0,25.0,-31.0,24.0,-8.0,103.0,-951.0,223.0
29.0,-244.0,26.0,-27.0,23.0,-8.0,106.0,-943.0,227.0
28.0,-243.0,24.0,-26.0,22.0,-7.0,102.0,-941.0,224.0
27.0,-243.0,25.0,-25.0,21.0,-7.0,98.0,-945.0,224.0
29.0,-242.0,26.0,-24.0,21.0,-7.0,109.0,-948.0,226.0
29.0,-243.0,26.0,-22.0,20.0,-7.0,103.0,-948.0,227.0
28.0,-242.0,25.0,-19.0,19.0,-6.0,104.0,-950.0,225.0
29.0,-242.0,23.0,-19.0,18.0,-6.0,103.0,-948.0,226.0
28.0,-243.0,23.0,-16.0,18.0,-6.0,104.0,-943.0,230.0
29.0,-242.0,30.0,-16.0,19.0,-6.0,101.0,-940.0,227.0
32.0,-243.0,24.0,-15.0,19.0,-8.0,105.0,-940.0,227.0
30.0,-243.0,22.0,-17.0,19.0,-9.0,106.0,-941.0,224.0
28.0,-241.0,25.0,-18.0,22.0,-10.0,106.0,-941.0,232.0
30.0,-243.0,25.0,-21.0,21.0,-11.0,108.0,-942.0,225.0
30.0,-243.0,26.0,-24.0,20.0,-11.0,103.0,-939.0,224.0
28.0,-242.0,28.0,-26.0,21.0,-10.0,108.0,-937.0,231.0
28.0,-239.0,31.0,-28.0,21.0,-10.0,106.0,-941.0,230.0
29.0,-241.0,28.0,-32.0,20.0,-9.0,105.0,-940.0,229.0
33.0,-242.0,26.0,-31.0,20.0,-8.0,104.0,-941.0,229.0
31.0,-241.0,29.0,-33.0,20.0,-7.0,110.0,-941.0,229.0
30.0,-242.0,29.0,-34.0,19.0,-5.0,111.0,-942.0,231.0
28.0,-244.0,30.0,-33.0,17.0,-4.0,111.0,-950.0,229.0
30.0,-243.0,26.0,-30.0,17.0,-2.0,107.0,-942.0,230.0
28.0,-244.0,24.0,-27.0,16.0,-3.0,113.0,-949.0,231.0
30.0,-243.0,25.0,-27.0,16.0,-3.0,104.0,-945.0,229.0
29.0,-241.0,28.0,-26.0,17.0,-2.0,110.0,-944.0,231.0
29.0,-243.0,24.0,-25.0,17.0,-2.0,106.0,-946.0,228.0
29.0,-242.0,21.0,-24.0,18.0,-2.0,111.0,-944.0,233.0
28.0,-241.0,27.0,-23.0,17.0,-3.0,102.0,-945.0,231.0
31.0,-240.0,26.0,-22.0,18.0,-1.0,108.0,-943.0,235.0
35.0,-242.0,29.0,-24.0,18.0,-3.0,109.0,-942.0,225.0
27.0,-240.0,27.0,-24.0,19.0,-2.0,115.0,-944.0,231.0
29.0,-243.0,27.0,-25.0,19.0,-3.0,104.0,-946.0,234.0
30.0,-243.0,26.0,-24.0,20.0,-4.0,107.0,-940.0,233.0
30.0,-242.0,26.0,-24.0,19.0,-4.0,108.0,-945.0,231.0
32.0,-243.0,28.0,-23.0,19.0,-4.0,110.0,-944.0,236.0
27.0,-242.0,30.0,-22.0,18.0,-3.0,107.0,-939.0,229.0
29.0,-241.0,25.0,-21.0,19.0,-3.0,108.0,-944.0,231.0
28.0,-244.0,24.0,-22.0,18.0,-3.0,108.0,-943.0,233.0
29.0,-240.0,20.0,-22.0,18.0,-4.0,108.0,-947.0,230.0
27.0,-240.0,27.0,-21.0,19.0,-2.0,112.0,-944.0,232.0
31.0,-241.0,29.0,-22.0,21.0,-1.0,113.0,-938.0,233.0
26.0,-244.0,23.0,-23.0,20.0,0.0,110.0,-936.0,230.0
30.0,-243.0,26.0,-24.0,21.0,0.0,106.0,-940.0,232.0
31.0,-242.0,24.0,-26.0,23.0,-1.0,107.0,-937.0,234.0
30.0,-243.0,25.0,-28.0,23.0,0.0,109.0,-934.0,233.0
29.0,-241.0,30.0,-30.0,22.0,0.0,112.0,-937.0,233.0
31.0,-241.0,24.0,-30.0,21.0,0.0,108.0,-943.0,229.0
29.0,-241.0,28.0,-31.0,21.0,0.0,108.0,-943.0,237.0
29.0,-242.0,27.0,-30.0,19.0,0.0,112.0,-942.0,226.0
27.0,-241.0,26.0,-31.0,18.0,0.0,102.0,-943.0,235.0
30.0,-244.0,30.0,-31.0,18.0,1.0,112.0,-941.0,229.0
30.0,-244.0,26.0,-28.0,17.0,1.0,106.0,-937.0,232.0
31.0,-240.0,32.0,-27.0,18.0,1.0,107.0,-944.0,233.0
26.0,-241.0,28.0,-29.0,17.0,2.0,106.0,-940.0,231.0
27.0,-241.0,25.0,-31.0,18.0,1.0,106.0,-940.0,231.0
27.0,-242.0,27.0,-30.0,18.0,2.0,107.0,-933.0,236.0
27.0,-243.0,27.0,-32.0,20.0,3.0,105.0,-944.0,231.0
26.0,-243.0,29.0,-32.0,20.0,4.0,100.0,-949.0,235.0
26.0,-243.0,27.0,-34.0,19.0,4.0,108.0,-954.0,237.0
33.0,-244.0,24.0,-31.0,19.0,5.0,105.0,-948.0,233.0
28.0,-243.0,27.0,-29.0,19.0,6.0,106.0,-948.0,231.0
28.0,-241.0,28.0,-29.0,17.0,6.0,105.0,-939.0,232.0
26.0,-235.0,26.0,-31.0,14.0,5.0,100.0,-936.0,233.0
30.0,-241.0,26.0,-35.0,12.0,2.0,106.0,-933.0,235.0
30.0,-241.0,29.0,-35.0,11.0,1.0,105.0,-934.0,234.0
28.0,-240.0,24.0,-39.0,11.0,0.0,109.0,-926.0,235.0
28.0,-239.0,28.0,-43.0,14.0,-2.0,97.0,-931.0,231.0
29.0,-240.0,29.0,-47.0,16.0,-4.0,103.0,-937.0,240.0
29.0,-242.0,29.0,-51.0,20.0,-4.0,99.0,-940.0,239.0
28.0,-242.0,27.0,-55.0,20.0,-2.0,99.0,-945.0,239.0
28.0,-244.0,28.0,-53.0,22.0,0.0,106.0,-945.0,235.0
32.0,-245.0,30.0,-50.0,20.0,3.0,109.0,-948.0,240.0
28.0,-243.0,28.0,-46.0,18.0,3.0,111.0,-952.0,240.0
28.0,-244.0,24.0,-43.0,15.0,6.0,116.0,-955.0,237.0
26.0,-246.0,30.0,-35.0,14.0,7.0,108.0,-957.0,233.0
29.0,-245.0,25.0,-27.0,11.0,7.0,108.0,-956.0,226.0
28.0,-244.0,22.0,-20.0,12.0,6.0,104.0,-950.0,223.0
28.0,-245.0,25.0,-17.0,12.0,4.0,104.0,-944.0,225.0
27.0,-240.0,28.0,-18.0,13.0,2.0,101.0,-941.0,231.0
27.0,-241.0,27.0,-20.0,13.0,-1.0,102.0,-932.0,234.0
29.0,-243.0,28.0,-26.0,15.0,-1.0,96.0,-932.0,236.0
27.0,-237.0,30.0,-33.0,15.0,-3.0,101.0,-933.0,236.0
25.0,-239.0,30.0,-42.0,14.0,-2.0,98.0,-930.0,244.0
30.0,-239.0,34.0,-49.0,15.0,-1.0,102.0,-939.0,246.0
27.0,-239.0,30.0,-53.0,12.0,0.0,103.0,-936.0,246.0
29.0,-241.0,30.0,-57.0,11.0,3.0,111.0,-934.0,240.0
28.0,-241.0,29.0,-58.0,10.0,5.0,105.0,-935.0,244.0
27.0,-243.0,32.0,-57.0,10.0,7.0,109.0,-939.0,233.0
30.0,-244.0,30.0,-55.0,10.0,7.0,116.0,-934.0,241.0
30.0,-243.0,31.0,-52.0,9.0,8.0,104.0,-943.0,238.0
31.0,-242.0,24.0,-48.0,10.0,7.0,108.0,-947.0,236.0
26.0,-243.0,29.0,-45.0,10.0,7.0,106.0,-945.0,237.0
28.0,-241.0,27.0,-41.0,10.0,8.0,105.0,-949.0,236.0
30.0,-244.0,26.0,-40.0,10.0,6.0,106.0,-944.0,236.0
28.0,-243.0,26.0,-39.0,11.0,5.0,107.0,-943.0,237.0
29.0,-248.0,28.0,-37.0,9.0,5.0,106.0,-946.0,242.0
28.0,-241.0,28.0,-41.0,10.0,6.0,104.0,-943.0,244.0
27.0,-241.0,30.0,-41.0,10.0,6.0,105.0,-934.0,240.0
26.0,-240.0,33.0,-44.0,10.0,8.0,103.0,-934.0,245.0
26.0,-242.0,29.0,-49.0,8.0,7.0,99.0,-936.0,246.0
30.0,-241.0,28.0,-53.0,9.0,8.0,104.0,-934.0,241.0
29.0,-241.0,30.0,-55.0,10.0,7.0,106.0,-933.0,240.0
31.0,-243.0,25.0,-55.0,9.0,8.0,107.0,-937.0,239.0
28.0,-240.0,30.0,-57.0,9.0,9.0,106.0,-935.0,236.0
29.0,-237.0,27.0,-57.0,7.0,9.0,103.0,-940.0,238.0
29.0,-242.0,27.0,-56.0,7.0,8.0,112.0,-946.0,234.0
30.0,-237.0,32.0,-55.0,6.0,9.0,102.0,-941.0,232.0
29.0,-241.0,23.0,-54.0,5.0,7.0,108.0,-940.0,234.0
29.0,-242.0,26.0,-53.0,6.0,6.0,105.0,-946.0,234.0
29.0,-244.0,22.0,-52.0,5.0,6.0,105.0,-945.0,229.0
29.0,-244.0,26.0,-51.0,6.0,3.0,102.0,-950.0,233.0
29.0,-242.0,25.0,-52.0,6.0,3.0,105.0,-945.0,233.0
28.0,-243.0,29.0,-52.0,6.0,2.0,102.0,-946.0,233.0
27.0,-243.0,21.0,-51.0,7.0,3.0,101.0,-937.0,232.0
27.0,-241.0,29.0,-53.0,7.0,2.0,103.0,-939.0,231.0
29.0,-241.0,26.0,-56.0,7.0,3.0,106.0,-941.0,228.0
27.0,-241.0,28.0,-58.0,8.0,3.0,104.0,-938.0,231.0
30.0,-243.0,26.0,-60.0,6.0,3.0,104.0,-940.0,234.0
31.0,-242.0,30.0,-62.0,6.0,4.0,105.0,-942.0,237.0
29.0,-242.0,27.0,-64.0,4.0,4.0,103.0,-938.0,239.0
30.0,-242.0,26.0,-63.0,3.0,6.0,107.0,-942.0,238.0
30.0,-242.0,28.0,-63.0,1.0,6.0,112.0,-943.0,236.0
30.0,-243.0,24.0,-61.0,-1.0,7.0,100.0,-943.0,236.0
29.0,-244.0,26.0,-58.0,-2.0,6.0,107.0,-944.0,236.0
26.0,-244.0,22.0,-54.0,-2.0,4.0,103.0,-949.0,230.0
27.0,-242.0,27.0,-53.0,-1.0,5.0,99.0,-951.0,226.0
28.0,-243.0,22.0,-54.0,1.0,3.0,98.0,-945.0,225.0
31.0,-243.0,24.0,-53.0,0.0,2.0,98.0,-942.0,228.0
31.0,-242.0,26.0,-54.0,4.0,2.0,101.0,-942.0,230.0
26.0,-243.0,27.0,-57.0,5.0,2.0,101.0,-945.0,227.0
29.0,-240.0,26.0,-58.0,6.0,0.0,104.0,-941.0,229.0
26.0,-244.0,27.0,-61.0,7.0,1.0,98.0,-946.0,233.0
29.0,-243.0,28.0,-62.0,8.0,1.0,97.0,-939.0,227.0
28.0,-243.0,25.0,-61.0,9.0,1.0,98.0,-942.0,229.0
28.0,-241.0,26.0,-59.0,10.0,1.0,105.0,-942.0,227.0
29.0,-243.0,21.0,-60.0,10.0,0.0,101.0,-942.0,231.0
25.0,-240.0,27.0,-57.0,10.0,1.0,104.0,-941.0,233.0
28.0,-242.0,25.0,-56.0,9.0,3.0,101.0,-942.0,233.0
27.0,-244.0,28.0,-55.0,9.0,2.0,105.0,-943.0,231.0
29.0,-241.0,30.0,-55.0,8.0,2.0,98.0,-941.0,231.0
22.0,-241.0,30.0,-53.0,8.0,3.0,101.0,-942.0,232.0
29.0,-242.0,22.0,-54.0,6.0,2.0,101.0,-939.0,233.0
25.0,-243.0,30.0,-53.0,6.0,4.0,104.0,-941.0,231.0
25.0,-242.0,25.0,-54.0,6.0,2.0,99.0,-943.0,230.0
27.0,-242.0,26.0,-52.0,8.0,1.0,94.0,-944.0,230.0
28.0,-242.0,29.0,-53.0,9.0,0.0,102.0,-941.0,232.0
27.0,-242.0,27.0,-55.0,10.0,0.0,100.0,-941.0,229.0
29.0,-240.0,28.0,-56.0,11.0,1.0,100.0,-945.0,227.0
27.0,-238.0,30.0,-55.0,13.0,1.0,103.0,-944.0,228.0
29.0,-243.0,25.0,-58.0,13.0,-1.0,104.0,-943.0,233.0
27.0,-241.0,27.0,-58.0,15.0,0.0,99.0,-947.0,229.0
29.0,-243.0,26.0,-59.0,14.0,0.0,99.0,-946.0,230.0
27.0,-242.0,29.0,-60.0,14.0,1.0,99.0,-944.0,233.0
27.0,-241.0,28.0,-60.0,15.0,2.0,100.0,-944.0,233.0
29.0,-244.0,23.0,-60.0,15.0,2.0,101.0,-939.0,234.0
28.0,-240.0,30.0,-60.0,13.0,2.0,101.0,-944.0,232.0
29.0,-242.0,27.0,-58.0,12.0,0.0,103.0,-949.0,233.0
28.0,-241.0,29.0,-60.0,13.0,1.0,100.0,-949.0,231.0
28.0,-241.0,26.0,-61.0,12.0,0.0,103.0,-948.0,228.0
26.0,-241.0,26.0,-60.0,13.0,-1.0,103.0,-941.0,229.0
25.0,-240.0,26.0,-63.0,13.0,0.0,102.0,-940.0,229.0
27.0,-238.0,27.0,-62.0,12.0,-1.0,101.0,-940.0,232.0
28.0,-240.0,26.0,-60.0,11.0,0.0,102.0,-938.0,228.0
28.0,-244.0,28.0,-62.0,11.0,0.0,102.0,-936.0,231.0
26.0,-242.0,26.0,-62.0,10.0,-1.0,103.0,-950.0,227.0
26.0,-243.0,30.0,-64.0,11.0,-2.0,103.0,-940.0,230.0
25.0,-242.0,27.0,-63.0,10.0,-2.0,102.0,-940.0,227.0
27.0,-244.0,26.0,-64.0,11.0,-3.0,97.0,-942.0,229.0
31.0,-243.0,28.0,-63.0,11.0,-1.0,101.0,-945.0,231.0
28.0,-242.0,27.0,-64.0,10.0,-2.0,105.0,-946.0,234.0
29.0,-241.0,26.0,-64.0,11.0,-1.0,101.0,-949.0,233.0
32.0,-244.0,25.0,-64.0,11.0,-2.0,106.0,-947.0,231.0
31.0,-244.0,25.0,-65.0,12.0,-2.0,101.0,-951.0,230.0
31.0,-244.0,27.0,-66.0,13.0,0.0,103.0,-950.0,225.0
27.0,-242.0,24.0,-65.0,14.0,-1.0,101.0,-945.0,224.0
25.0,-242.0,27.0,-63.0,15.0,-1.0,103.0,-946.0,228.0
27.0,-242.0,23.0,-61.0,17.0,-2.0,107.0,-949.0,221.0
27.0,-244.0,25.0,-58.0,17.0,-1.0,99.0,-941.0,226.0
27.0,-243.0,26.0,-55.0,19.0,-3.0,104.0,-949.0,223.0
30.0,-244.0,26.0,-54.0,18.0,-2.0,104.0,-947.0,223.0
27.0,-239.0,24.0,-54.0,17.0,-3.0,107.0,-949.0,228.0
26.0,-241.0,25.0,-50.0,17.0,-3.0,99.0,-947.0,228.0
30.0,-244.0,25.0,-50.0,16.0,-2.0,97.0,-942.0,225.0
29.0,-242.0,24.0,-50.0,16.0,-3.0,99.0,-936.0,221.0
31.0,-243.0,25.0,-51.0,14.0,-2.0,99.0,-942.0,220.0
30.0,-243.0,26.0,-52.0,14.0,-3.0,107.0,-936.0,224.0
27.0,-241.0,23.0,-54.0,13.0,-4.0,98.0,-939.0,230.0
28.0,-240.0,27.0,-55.0,16.0,-4.0,100.0,-938.0,229.0
33.0,-242.0,23.0,-56.0,17.0,-6.0,102.0,-938.0,228.0
28.0,-242.0,24.0,-58.0,18.0,-8.0,98.0,-940.0,226.0
27.0,-243.0,25.0,-58.0,19.0,-7.0,100.0,-940.0,229.0
27.0,-244.0,26.0,-56.0,20.0,-7.0,102.0,-953.0,229.0
23.0,-242.0,26.0,-53.0,20.0,-9.0,103.0,-952.0,233.0
34.0,-244.0,17.0,-51.0,18.0,-6.0,102.0,-953.0,228.0
28.0,-241.0,27.0,-52.0,16.0,-3.0,103.0,-956.0,228.0
28.0,-244.0,26.0,-53.0,14.0,-3.0,105.0,-953.0,230.0
27.0,-244.0,24.0,-53.0,10.0,-3.0,104.0,-955.0,228.0
29.0,-245.0,27.0,-51.0,10.0,-2.0,102.0,-952.0,224.0
30.0,-244.0,22.0,-47.0,12.0,-4.0,101.0,-949.0,222.0
27.0,-242.0,21.0,-45.0,15.0,-6.0,96.0,-942.0,224.0
27.0,-241.0,22.0,-42.0,16.0,-7.0,95.0,-940.0,223.0
27.0,-243.0,26.0,-40.0,17.0,-9.0,98.0,-939.0,224.0
28.0,-240.0,23.0,-42.0,19.0,-11.0,95.0,-932.0,223.0
29.0,-242.0,22.0,-42.0,21.0,-14.0,97.0,-940.0,228.0
26.0,-240.0,28.0,-43.0,21.0,-13.0,101.0,-938.0,229.0
28.0,-241.0,26.0,-45.0,23.0,-13.0,96.0,-941.0,224.0
27.0,-243.0,23.0,-46.0,19.0,-10.0,98.0,-943.0,229.0
27.0,-240.0,22.0,-44.0,18.0,-9.0,99.0,-942.0,223.0
28.0,-243.0,23.0,-42.0,19.0,-8.0,106.0,-949.0,225.0
28.0,-243.0,24.0,-37.0,17.0,-7.0,107.0,-944.0,226.0
28.0,-244.0,26.0,-33.0,17.0,-5.0,103.0,-949.0,220.0
29.0,-242.0,31.0,-29.0,16.0,-5.0,107.0,-953.0,224.0
28.0,-242.0,24.0,-23.0,17.0,-5.0,100.0,-947.0,226.0
26.0,-243.0,25.0,-20.0,18.0,-7.0,102.0,-949.0,226.0
30.0,-244.0,21.0,-18.0,18.0,-7.0,100.0,-948.0,226.0
25.0,-244.0,23.0,-19.0,18.0,-8.0,97.0,-943.0,227.0
27.0,-242.0,26.0,-20.0,16.0,-9.0,97.0,-941.0,227.0
28.0,-241.0,25.0,-21.0,16.0,-9.0,102.0,-944.0,230.0
26.0,-241.0,22.0,-25.0,16.0,-10.0,98.0,-939.0,228.0
27.0,-239.0,26.0,-27.0,16.0,-8.0,102.0,-945.0,229.0
26.0,-242.0,27.0,-28.0,17.0,-9.0,102.0,-938.0,227.0
29.0,-241.0,30.0,-29.0,17.0,-8.0,97.0,-941.0,229.0
25.0,-241.0,26.0,-28.0,16.0,-7.0,103.0,-937.0,227.0
29.0,-242.0,26.0,-28.0,18.0,-8.0,111.0,-941.0,226.0
28.0,-242.0,25.0,-28.0,19.0,-6.0,106.0,-938.0,226.0
30.0,-243.0,26.0,-29.0,19.0,-6.0,102.0,-941.0,224.0
27.0,-240.0,27.0,-30.0,20.0,-5.0,103.0,-945.0,223.0
26.0,-241.0,27.0,-29.0,20.0,-5.0,105.0,-947.0,223.0
29.0,-244.0,20.0,-30.0,21.0,-4.0,104.0,-945.0,229.0
31.0,-244.0,25.0,-30.0,20.0,-4.0,103.0,-951.0,223.0
28.0,-243.0,27.0,-28.0,20.0,-4.0,105.0,-948.0,228.0
30.0,-245.0,25.0,-26.0,21.0,-4.0,103.0,-941.0,227.0
27.0,-242.0,24.0,-28.0,19.0,-5.0,98.0,-949.0,224.0
27.0,-244.0,22.0,-27.0,20.0,-5.0,100.0,-946.0,230.0
26.0,-241.0,29.0,-27.0,19.0,-7.0,103.0,-941.0,226.0
28.0,-243.0,26.0,-27.0,19.0,-7.0,101.0,-940.0,225.0
25.0,-243.0,25.0,-28.0,19.0,-6.0,102.0,-941.0,223.0
32.0,-244.0,23.0,-29.0,19.0,-5.0,104.0,-943.0,228.0
27.0,-242.0,26.0,-33.0,16.0,-5.0,101.0,-940.0,229.0
27.0,-243.0,27.0,-32.0,16.0,-4.0,104.0,-942.0,232.0
28.0,-244.0,24.0,-31.0,16.0,-5.0,99.0,-948.0,230.0
29.0,-244.0,27.0,-30.0,14.0,-6.0,105.0,-953.0,233.0
29.0,-243.0,23.0,-28.0,15.0,-5.0,103.0,-949.0,237.0
29.0,-243.0,26.0,-26.0,17.0,-6.0,103.0,-950.0,228.0
30.0,-245.0,30.0,-23.0,18.0,-6.0,105.0,-952.0,229.0
27.0,-243.0,25.0,-20.0,17.0,-8.0,98.0,-947.0,231.0
29.0,-243.0,25.0,-20.0,18.0,-8.0,106.0,-945.0,228.0
29.0,-241.0,22.0,-17.0,18.0,-9.0,100.0,-939.0,231.0
27.0,-241.0,27.0,-19.0,18.0,-9.0,100.0,-941.0,230.0
25.0,-242.0,24.0,-17.0,19.0,-9.0,103.0,-942.0,230.0
28.0,-244.0,25.0,-17.0,18.0,-10.0,97.0,-940.0,231.0
27.0,-243.0,24.0,-18.0,19.0,-8.0,105.0,-941.0,230.0
29.0,-242.0,27.0,-16.0,19.0,-9.0,101.0,-941.0,228.0
27.0,-241.0,27.0,-15.0,21.0,-8.0,101.0,-942.0,226.0
29.0,-243.0,22.0,-14.0,21.0,-7.0,100.0,-939.0,235.0
28.0,-241.0,30.0,-13.0,21.0,-6.0,103.0,-941.0,231.0
28.0,-241.0,29.0,-10.0,22.0,-6.0,103.0,-944.0,227.0
28.0,-241.0,27.0,-8.0,22.0,-6.0,105.0,-947.0,235.0
22.0,-242.0,28.0,-6.0,22.0,-6.0,103.0,-946.0,229.0
30.0,-244.0,28.0,-5.0,22.0,-7.0,104.0,-946.0,230.0
31.0,-245.0,28.0,-2.0,23.0,-8.0,102.0,-941.0,232.0
27.0,-244.0,26.0,-1.0,24.0,-8.0,98.0,-945.0,234.0
27.0,-241.0,25.0,0.0,22.0,-9.0,106.0,-941.0,230.0
27.0,-243.0,26.0,1.0,21.0,-9.0,104.0,-941.0,237.0
28.0,-242.0,30.0,2.0,22.0,-10.0,101.0,-945.0,236.0
27.0,-244.0,24.0,2.0,21.0,-10.0,106.0,-944.0,239.0
31.0,-242.0,32.0,3.0,21.0,-11.0,102.0,-942.0,237.0
26.0,-243.0,26.0,2.0,20.0,-11.0,101.0,-942.0,238.0
27.0,-243.0,27.0,2.0,19.0,-11.0,98.0,-942.0,236.0
38.0,-244.0,29.0,3.0,20.0,-11.0,102.0,-945.0,240.0
30.0,-242.0,26.0,5.0,19.0,-9.0,102.0,-945.0,236.0
30.0,-242.0,28.0,3.0,19.0,-8.0,103.0,-941.0,237.0
28.0,-241.0,23.0,7.0,19.0,-8.0,101.0,-942.0,237.0
30.0,-241.0,27.0,7.0,20.0,-8.0,104.0,-940.0,233.0
28.0,-240.0,29.0,8.0,20.0,-9.0,104.0,-941.0,234.0
29.0,-242.0,27.0,9.0,21.0,-10.0,105.0,-936.0,235.0
29.0,-242.0,24.0,9.0,21.0,-7.0,104.0,-943.0,235.0
27.0,-241.0,28.0,7.0,21.0,-8.0,101.0,-935.0,237.0
29.0,-244.0,30.0,7.0,22.0,-7.0,104.0,-940.0,233.0
28.0,-244.0,32.0,7.0,22.0,-6.0,104.0,-941.0,237.0
27.0,-240.0,27.0,7.0,22.0,-6.0,101.0,-941.0,241.0
30.0,-242.0,26.0,7.0,22.0,-6.0,102.0,-940.0,237.0
29.0,-239.0,31.0,6.0,23.0,-6.0,97.0,-941.0,240.0
31.0,-240.0,26.0,5.0,23.0,-5.0,102.0,-935.0,239.0
24.0,-237.0,29.0,2.0,25.0,-4.0,100.0,-938.0,240.0
30.0,-241.0,31.0,2.0,26.0,-3.0,102.0,-932.0,240.0
28.0,-241.0,26.0,1.0,25.0,-3.0,97.0,-930.0,241.0
27.0,-241.0,33.0,-2.0,27.0,-4.0,99.0,-940.0,235.0
30.0,-239.0,36.0,-3.0,24.0,-3.0,99.0,-938.0,241.0
25.0,-238.0,30.0,-5.0,22.0,-4.0,101.0,-941.0,249.0
26.0,-240.0,31.0,-5.0,23.0,-5.0,105.0,-939.0,243.0
29.0,-241.0,28.0,-7.0,23.0,-6.0,104.0,-943.0,234.0
29.0,-244.0,30.0,-8.0,23.0,-5.0,101.0,-943.0,241.0
29.0,-243.0,31.0,-8.0,23.0,-5.0,102.0,-941.0,244.0
29.0,-242.0,28.0,-8.0,23.0,-6.0,102.0,-942.0,250.0
31.0,-244.0,27.0,-9.0,25.0,-7.0,108.0,-948.0,243.0
29.0,-243.0,32.0,-6.0,25.0,-6.0,102.0,-947.0,244.0
29.0,-243.0,32.0,-7.0,24.0,-6.0,102.0,-941.0,245.0
26.0,-241.0,28.0,-5.0,24.0,-4.0,102.0,-950.0,246.0
29.0,-244.0,32.0,-3.0,25.0,-4.0,102.0,-938.0,241.0
30.0,-241.0,30.0,1.0,25.0,-4.0,105.0,-943.0,240.0
27.0,-242.0,29.0,4.0,23.0,-5.0,106.0,-941.0,246.0
28.0,-234.0,28.0,5.0,21.0,-4.0,102.0,-932.0,241.0
28.0,-240.0,28.0,3.0,20.0,-4.0,106.0,-933.0,247.0
30.0,-239.0,29.0,2.0,19.0,-5.0,103.0,-931.0,245.0
30.0,-238.0,31.0,-2.0,21.0,-7.0,99.0,-928.0,240.0
29.0,-239.0,30.0,-7.0,23.0,-9.0,102.0,-923.0,249.0
26.0,-238.0,28.0,-11.0,25.0,-9.0,99.0,-927.0,246.0
26.0,-239.0,31.0,-13.0,26.0,-7.0,99.0,-932.0,249.0
27.0,-243.0,31.0,-16.0,26.0,-8.0,100.0,-937.0,248.0
30.0,-244.0,33.0,-17.0,27.0,-7.0,101.0,-940.0,251.0
28.0,-242.0,29.0,-18.0,26.0,-7.0,105.0,-947.0,250.0
28.0,-243.0,31.0,-15.0,25.0,-7.0,102.0,-951.0,252.0
25.0,-244.0,26.0,-14.0,24.0,-6.0,102.0,-954.0,252.0
30.0,-245.0,28.0,-10.0,21.0,-6.0,101.0,-959.0,256.0
27.0,-243.0,29.0,-3.0,20.0,-7.0,100.0,-960.0,249.0
26.0,-244.0,33.0,4.0,20.0,-7.0,102.0,-954.0,249.0
31.0,-244.0,28.0,10.0,21.0,-8.0,98.0,-954.0,245.0
28.0,-242.0,27.0,18.0,23.0,-9.0,100.0,-944.0,239.0
29.0,-243.0,30.0,26.0,25.0,-12.0,103.0,-940.0,238.0
29.0,-241.0,28.0,30.0,28.0,-13.0,101.0,-933.0,243.0
29.0,-243.0,26.0,32.0,29.0,-16.0,100.0,-929.0,245.0
28.0,-239.0,34.0,30.0,32.0,-18.0,103.0,-927.0,249.0
28.0,-241.0,30.0,24.0,33.0,-21.0,96.0,-925.0,252.0
26.0,-241.0,33.0,19.0,32.0,-20.0,101.0,-926.0,255.0
25.0,-239.0,37.0,13.0,30.0,-19.0,102.0,-935.0,253.0
29.0,-238.0,32.0,7.0,29.0,-19.0,98.0,-930.0,260.0
28.0,-241.0,33.0,2.0,26.0,-17.0,102.0,-939.0,258.0
25.0,-243.0,38.0,-1.0,23.0,-16.0,104.0,-938.0,256.0
30.0,-243.0,33.0,0.0,22.0,-15.0,102.0,-942.0,257.0
28.0,-244.0,31.0,1.0,22.0,-14.0,106.0,-942.0,254.0
29.0,-240.0,31.0,4.0,22.0,-12.0,108.0,-942.0,260.0
28.0,-244.0,32.0,6.0,22.0,-12.0,110.0,-942.0,259.0
28.0,-242.0,34.0,10.0,22.0,-12.0,103.0,-940.0,256.0
30.0,-241.0,29.0,13.0,21.0,-13.0,105.0,-936.0,255.0
25.0,-238.0,32.0,16.0,22.0,-14.0,112.0,-936.0,257.0
26.0,-238.0,33.0,19.0,23.0,-15.0,106.0,-933.0,256.0
26.0,-239.0,33.0,20.0,23.0,-15.0,99.0,-931.0,258.0
29.0,-237.0,37.0,18.0,24.0,-16.0,103.0,-932.0,258.0
29.0,-238.0,33.0,15.0,24.0,-17.0,105.0,-924.0,258.0
29.0,-236.0,34.0,14.0,25.0,-16.0,103.0,-923.0,260.0
31.0,-236.0,33.0,8.0,26.0,-16.0,105.0,-920.0,264.0
27.0,-233.0,36.0,1.0,28.0,-16.0,104.0,-921.0,259.0
31.0,-238.0,31.0,-5.0,29.0,-15.0,107.0,-921.0,261.0
31.0,-234.0,36.0,-10.0,29.0,-14.0,110.0,-917.0,266.0
29.0,-234.0,38.0,-17.0,29.0,-14.0,110.0,-922.0,266.0
30.0,-237.0,33.0,-21.0,31.0,-14.0,113.0,-928.0,270.0
29.0,-241.0,35.0,-23.0,29.0,-16.0,111.0,-933.0,273.0
25.0,-239.0,36.0,-27.0,29.0,-17.0,104.0,-935.0,276.0
27.0,-240.0,38.0,-28.0,28.0,-18.0,105.0,-942.0,274.0
27.0,-244.0,36.0,-28.0,29.0,-20.0,99.0,-947.0,277.0
24.0,-240.0,36.0,-30.0,28.0,-22.0,96.0,-944.0,277.0
26.0,-242.0,40.0,-27.0,29.0,-23.0,97.0,-941.0,276.0
24.0,-243.0,38.0,-26.0,30.0,-24.0,93.0,-945.0,279.0
27.0,-244.0,34.0,-26.0,30.0,-25.0,93.0,-947.0,277.0
22.0,-242.0,36.0,-28.0,28.0,-25.0,88.0,-940.0,273.0
23.0,-239.0,37.0,-29.0,27.0,-26.0,85.0,-937.0,274.0
25.0,-241.0,35.0,-33.0,28.0,-27.0,89.0,-940.0,274.0
22.0,-238.0,37.0,-34.0,24.0,-28.0,88.0,-934.0,276.0
23.0,-243.0,36.0,-31.0,24.0,-27.0,88.0,-936.0,267.0
24.0,-243.0,36.0,-28.0,22.0,-26.0,92.0,-936.0,272.0
23.0,-235.0,38.0,-24.0,22.0,-22.0,93.0,-938.0,265.0
27.0,-242.0,39.0,-19.0,21.0,-22.0,91.0,-936.0,271.0
28.0,-242.0,37.0,-13.0,19.0,-18.0,102.0,-937.0,261.0
26.0,-242.0,35.0,-8.0,16.0,-16.0,98.0,-938.0,261.0
27.0,-242.0,37.0,-2.0,15.0,-15.0,103.0,-934.0,264.0
26.0,-242.0,38.0,3.0,15.0,-13.0,107.0,-940.0,261.0
20.0,-239.0,24.0,7.0,13.0,-14.0,103.0,-935.0,255.0
30.0,-239.0,35.0,9.0,13.0,-13.0,105.0,-938.0,258.0
30.0,-241.0,34.0,9.0,14.0,-13.0,106.0,-935.0,258.0
29.0,-242.0,35.0,8.0,12.0,-13.0,110.0,-933.0,258.0
29.0,-237.0,35.0,6.0,11.0,-11.0,107.0,-932.0,257.0
29.0,-238.0,32.0,4.0,9.0,-10.0,107.0,-931.0,254.0
30.0,-237.0,33.0,5.0,5.0,-8.0,112.0,-931.0,255.0
29.0,-239.0,32.0,2.0,3.0,-7.0,114.0,-934.0,255.0
34.0,-243.0,32.0,4.0,3.0,-6.0,115.0,-933.0,248.0
31.0,-240.0,35.0,4.0,4.0,-7.0,115.0,-935.0,254.0
30.0,-240.0,30.0,3.0,5.0,-6.0,115.0,-935.0,250.0
37.0,-242.0,31.0,1.0,6.0,-4.0,113.0,-935.0,253.0
34.0,-242.0,34.0,2.0,6.0,-4.0,127.0,-940.0,258.0
34.0,-243.0,36.0,5.0,5.0,-5.0,125.0,-941.0,257.0
35.0,-243.0,27.0,7.0,1.0,-8.0,122.0,-941.0,253.0
34.0,-242.0,31.0,7.0,0.0,-7.0,116.0,-932.0,248.0
33.0,-242.0,30.0,5.0,-1.0,-6.0,121.0,-935.0,242.0
34.0,-241.0,30.0,3.0,-1.0,-8.0,119.0,-935.0,243.0
29.0,-240.0,31.0,1.0,0.0,-9.0,117.0,-937.0,240.0
31.0,-240.0,28.0,2.0,2.0,-9.0,115.0,-934.0,243.0
31.0,-242.0,31.0,4.0,3.0,-8.0,112.0,-945.0,245.0
29.0,-243.0,29.0,9.0,3.0,-7.0,106.0,-946.0,247.0
31.0,-244.0,28.0,14.0,3.0,-6.0,103.0,-949.0,252.0
28.0,-245.0,31.0,19.0,2.0,-4.0,105.0,-958.0,252.0
28.0,-244.0,29.0,23.0,-2.0,-3.0,99.0,-955.0,251.0
27.0,-246.0,32.0,25.0,-7.0,-1.0,98.0,-959.0,252.0
27.0,-247.0,30.0,29.0,-10.0,-2.0,101.0,-957.0,255.0
29.0,-248.0,31.0,33.0,-11.0,-1.0,93.0,-954.0,254.0
27.0,-247.0,35.0,38.0,-13.0,2.0,99.0,-959.0,263.0
30.0,-245.0,33.0,47.0,-14.0,4.0,103.0,-961.0,270.0
28.0,-247.0,39.0,56.0,-14.0,8.0,106.0,-957.0,267.0
27.0,-242.0,41.0,68.0,-16.0,11.0,105.0,-948.0,270.0
28.0,-240.0,38.0,73.0,-18.0,14.0,108.0,-939.0,273.0
27.0,-240.0,40.0,75.0,-19.0,20.0,108.0,-937.0,269.0
29.0,-239.0,32.0,75.0,-21.0,26.0,98.0,-931.0,255.0
26.0,-236.0,33.0,69.0,-23.0,34.0,98.0,-923.0,258.0
27.0,-235.0,36.0,61.0,-27.0,43.0,94.0,-920.0,264.0
28.0,-236.0,35.0,53.0,-33.0,51.0,93.0,-918.0,262.0
25.0,-236.0,37.0,47.0,-38.0,58.0,93.0,-923.0,275.0
23.0,-235.0,37.0,43.0,-41.0,64.0,91.0,-931.0,282.0
27.0,-240.0,42.0,44.0,-44.0,69.0,96.0,-934.0,281.0
26.0,-240.0,40.0,45.0,-45.0,73.0,94.0,-935.0,294.0
30.0,-243.0,43.0,50.0,-45.0,77.0,101.0,-940.0,296.0
28.0,-242.0,43.0,54.0,-42.0,80.0,110.0,-942.0,296.0
27.0,-243.0,43.0,56.0,-39.0,82.0,112.0,-940.0,291.0
31.0,-242.0,38.0,58.0,-34.0,82.0,119.0,-947.0,290.0
34.0,-244.0,38.0,59.0,-28.0,80.0,115.0,-940.0,279.0
30.0,-240.0,39.0,64.0,-23.0,76.0,119.0,-939.0,276.0
30.0,-239.0,39.0,67.0,-16.0,72.0,116.0,-931.0,274.0
34.0,-238.0,37.0,67.0,-8.0,69.0,120.0,-930.0,271.0
31.0,-236.0,39.0,67.0,1.0,64.0,123.0,-933.0,269.0
32.0,-238.0,38.0,66.0,9.0,59.0,124.0,-928.0,273.0
30.0,-241.0,42.0,63.0,15.0,55.0,121.0,-941.0,274.0
33.0,-241.0,36.0,67.0,20.0,49.0,127.0,-936.0,276.0
31.0,-240.0,44.0,70.0,23.0,43.0,117.0,-940.0,283.0
32.0,-241.0,37.0,80.0,26.0,40.0,121.0,-935.0,281.0
32.0,-239.0,35.0,91.0,27.0,39.0,119.0,-939.0,274.0
32.0,-240.0,34.0,104.0,25.0,36.0,118.0,-931.0,273.0
31.0,-237.0,34.0,116.0,24.0,33.0,108.0,-921.0,268.0
29.0,-238.0,38.0,121.0,26.0,29.0,107.0,-917.0,270.0
30.0,-234.0,35.0,121.0,29.0,24.0,107.0,-910.0,271.0
28.0,-235.0,36.0,119.0,32.0,17.0,105.0,-916.0,274.0
32.0,-236.0,43.0,112.0,36.0,12.0,99.0,-912.0,281.0
28.0,-234.0,36.0,107.0,40.0,7.0,98.0,-911.0,280.0
29.0,-235.0,43.0,102.0,45.0,4.0,104.0,-909.0,286.0
27.0,-235.0,44.0,99.0,51.0,1.0,103.0,-916.0,295.0
24.0,-237.0,40.0,98.0,55.0,-1.0,97.0,-926.0,299.0
27.0,-238.0,45.0,98.0,56.0,-3.0,95.0,-930.0,309.0
25.0,-242.0,44.0,99.0,54.0,-6.0,89.0,-931.0,310.0
25.0,-240.0,46.0,98.0,49.0,-9.0,90.0,-942.0,311.0
25.0,-242.0,45.0,95.0,42.0,-10.0,95.0,-944.0,308.0
24.0,-242.0,49.0,97.0,34.0,-12.0,96.0,-946.0,312.0
24.0,-243.0,45.0,97.0,28.0,-15.0,93.0,-952.0,306.0
21.0,-241.0,43.0,102.0,25.0,-17.0,90.0,-953.0,304.0
23.0,-240.0,43.0,108.0,24.0,-19.0,91.0,-937.0,303.0
23.0,-237.0,46.0,113.0,27.0,-20.0,89.0,-929.0,297.0
24.0,-236.0,46.0,115.0,33.0,-20.0,86.0,-923.0,299.0
26.0,-236.0,46.0,116.0,40.0,-21.0,84.0,-915.0,302.0
24.0,-231.0,45.0,116.0,48.0,-20.0,83.0,-916.0,315.0
23.0,-232.0,52.0,115.0,55.0,-19.0,85.0,-914.0,317.0
21.0,-231.0,50.0,110.0,57.0,-17.0,81.0,-907.0,328.0
23.0,-231.0,50.0,107.0,58.0,-10.0,87.0,-903.0,330.0
24.0,-231.0,55.0,101.0,54.0,-8.0,86.0,-904.0,341.0
23.0,-227.0,56.0,93.0,50.0,0.0,86.0,-903.0,334.0
23.0,-232.0,57.0,86.0,48.0,6.0,92.0,-908.0,341.0
28.0,-228.0,56.0,78.0,47.0,13.0,95.0,-908.0,347.0
28.0,-232.0,55.0,68.0,48.0,17.0,99.0,-904.0,338.0
27.0,-230.0,51.0,55.0,51.0,22.0,97.0,-901.0,339.0
35.0,-230.0,51.0,37.0,52.0,27.0,109.0,-896.0,332.0
31.0,-231.0,52.0,18.0,55.0,26.0,114.0,-886.0,329.0
31.0,-223.0,53.0,0.0,60.0,23.0,121.0,-887.0,328.0
33.0,-231.0,50.0,-13.0,64.0,21.0,110.0,-888.0,326.0
27.0,-224.0,47.0,-29.0,69.0,19.0,112.0,-893.0,327.0
28.0,-229.0,49.0,-42.0,71.0,17.0,105.0,-896.0,329.0
25.0,-228.0,52.0,-49.0,68.0,15.0,103.0,-901.0,333.0
26.0,-230.0,53.0,-56.0,64.0,14.0,105.0,-905.0,332.0
28.0,-238.0,49.0,-59.0,59.0,14.0,92.0,-916.0,331.0
22.0,-234.0,53.0,-59.0,55.0,13.0,95.0,-918.0,333.0
26.0,-232.0,52.0,-57.0,52.0,12.0,87.0,-929.0,336.0
23.0,-240.0,56.0,-50.0,53.0,12.0,90.0,-939.0,334.0
22.0,-242.0,55.0,-42.0,51.0,11.0,92.0,-941.0,332.0
23.0,-238.0,51.0,-33.0,51.0,13.0,89.0,-938.0,325.0
23.0,-237.0,50.0,-24.0,47.0,16.0,89.0,-935.0,323.0
23.0,-237.0,49.0,-19.0,41.0,20.0,86.0,-924.0,323.0
23.0,-233.0,49.0,-15.0,34.0,26.0,83.0,-908.0,315.0
22.0,-232.0,50.0,-13.0,27.0,29.0,81.0,-906.0,317.0
21.0,-229.0,48.0,-12.0,19.0,33.0,86.0,-907.0,325.0
22.0,-229.0,51.0,-11.0,10.0,39.0,85.0,-898.0,324.0
20.0,-229.0,48.0,-13.0,3.0,43.0,81.0,-897.0,330.0
24.0,-226.0,57.0,-17.0,-4.0,47.0,90.0,-895.0,337.0
26.0,-228.0,58.0,-18.0,-12.0,48.0,93.0,-895.0,347.0
26.0,-228.0,57.0,-22.0,-18.0,51.0,98.0,-900.0,354.0
28.0,-233.0,60.0,-28.0,-23.0,56.0,99.0,-898.0,349.0
27.0,-230.0,52.0,-35.0,-29.0,57.0,98.0,-900.0,353.0
28.0,-231.0,57.0,-44.0,-36.0,60.0,99.0,-907.0,355.0
28.0,-234.0,56.0,-54.0,-40.0,63.0,96.0,-909.0,352.0
28.0,-237.0,54.0,-64.0,-46.0,66.0,97.0,-916.0,350.0
27.0,-230.0,56.0,-71.0,-51.0,70.0,99.0,-916.0,343.0
28.0,-237.0,52.0,-79.0,-54.0,74.0,102.0,-922.0,343.0
28.0,-234.0,58.0,-85.0,-57.0,78.0,108.0,-924.0,339.0
22.0,-238.0,49.0,-93.0,-63.0,82.0,104.0,-925.0,334.0
28.0,-238.0,51.0,-100.0,-69.0,86.0,105.0,-923.0,335.0
25.0,-237.0,55.0,-108.0,-75.0,89.0,99.0,-924.0,334.0
28.0,-237.0,51.0,-115.0,-80.0,90.0,100.0,-924.0,332.0
23.0,-237.0,50.0,-120.0,-83.0,92.0,96.0,-920.0,330.0
25.0,-233.0,47.0,-126.0,-87.0,93.0,92.0,-921.0,325.0
25.0,-231.0,46.0,-130.0,-90.0,93.0,88.0,-916.0,321.0
25.0,-235.0,45.0,-132.0,-88.0,92.0,86.0,-917.0,320.0
23.0,-235.0,49.0,-136.0,-84.0,90.0,81.0,-917.0,320.0
25.0,-236.0,47.0,-140.0,-79.0,89.0,84.0,-921.0,319.0
24.0,-238.0,49.0,-141.0,-73.0,89.0,81.0,-919.0,310.0
28.0,-234.0,45.0,-142.0,-69.0,88.0,77.0,-920.0,314.0
22.0,-235.0,45.0,-145.0,-59.0,86.0,79.0,-918.0,314.0
22.0,-233.0,45.0,-147.0,-53.0,82.0,79.0,-917.0,307.0
21.0,-236.0,44.0,-151.0,-45.0,81.0,80.0,-914.0,304.0
23.0,-232.0,47.0,-156.0,-37.0,79.0,78.0,-916.0,300.0
22.0,-234.0,39.0,-164.0,-28.0,76.0,85.0,-913.0,294.0
23.0,-231.0,43.0,-171.0,-19.0,72.0,86.0,-913.0,295.0
23.0,-235.0,45.0,-182.0,-9.0,68.0,83.0,-911.0,298.0
20.0,-231.0,41.0,-191.0,-2.0,66.0,85.0,-912.0,300.0
27.0,-235.0,46.0,-197.0,3.0,65.0,86.0,-913.0,302.0
24.0,-235.0,48.0,-201.0,6.0,63.0,86.0,-916.0,309.0
24.0,-238.0,44.0,-203.0,6.0,62.0,84.0,-918.0,311.0
21.0,-237.0,45.0,-200.0,6.0,58.0,82.0,-923.0,317.0
18.0,-236.0,47.0,-196.0,5.0,59.0,80.0,-928.0,316.0
21.0,-235.0,49.0,-189.0,2.0,60.0,76.0,-919.0,323.0
16.0,-236.0,50.0,-183.0,-1.0,60.0,74.0,-922.0,325.0
19.0,-236.0,49.0,-175.0,-5.0,60.0,63.0,-917.0,320.0
17.0,-235.0,47.0,-168.0,-7.0,61.0,62.0,-913.0,316.0
19.0,-232.0,46.0,-164.0,-7.0,61.0,66.0,-915.0,303.0
17.0,-231.0,46.0,-163.0,-8.0,62.0,66.0,-906.0,300.0
19.0,-230.0,40.0,-162.0,-7.0,64.0,74.0,-908.0,295.0
21.0,-230.0,44.0,-169.0,-7.0,62.0,77.0,-898.0,288.0
24.0,-226.0,42.0,-177.0,-8.0,61.0,86.0,-896.0,286.0
27.0,-229.0,40.0,-188.0,-7.0,57.0,83.0,-896.0,283.0
26.0,-228.0,39.0,-204.0,-5.0,53.0,90.0,-899.0,288.0
25.0,-233.0,39.0,-217.0,-1.0,50.0,93.0,-902.0,293.0
28.0,-232.0,38.0,-232.0,6.0,44.0,89.0,-907.0,283.0
27.0,-234.0,42.0,-247.0,12.0,40.0,92.0,-909.0,292.0
23.0,-233.0,40.0,-263.0,18.0,33.0,80.0,-912.0,298.0
19.0,-235.0,41.0,-276.0,23.0,28.0,81.0,-918.0,300.0
20.0,-237.0,45.0,-289.0,28.0,24.0,73.0,-927.0,299.0
18.0,-237.0,47.0,-298.0,29.0,23.0,71.0,-925.0,305.0
17.0,-236.0,46.0,-305.0,27.0,24.0,64.0,-926.0,302.0
9.0,-240.0,40.0,-311.0,21.0,27.0,58.0,-925.0,303.0
17.0,-238.0,43.0,-315.0,15.0,33.0,54.0,-925.0,302.0
14.0,-238.0,41.0,-320.0,8.0,39.0,55.0,-928.0,302.0
16.0,-237.0,43.0,-324.0,2.0,45.0,56.0,-929.0,296.0
15.0,-236.0,44.0,-325.0,-3.0,52.0,59.0,-924.0,300.0
19.0,-237.0,41.0,-323.0,-10.0,58.0,66.0,-921.0,295.0
20.0,-237.0,42.0,-319.0,-13.0,65.0,68.0,-919.0,293.0
20.0,-236.0,35.0,-313.0,-18.0,68.0,76.0,-916.0,283.0
22.0,-233.0,38.0,-309.0,-19.0,73.0,80.0,-913.0,283.0
25.0,-233.0,38.0,-313.0,-20.0,74.0,83.0,-911.0,273.0
26.0,-237.0,37.0,-318.0,-19.0,72.0,85.0,-914.0,278.0
23.0,-237.0,39.0,-326.0,-18.0,68.0,89.0,-920.0,273.0
25.0,-237.0,38.0,-337.0,-16.0,66.0,91.0,-923.0,281.0
28.0,-238.0,38.0,-346.0,-10.0,61.0,93.0,-927.0,278.0
25.0,-238.0,38.0,-354.0,-3.0,56.0,97.0,-933.0,282.0
25.0,-240.0,36.0,-358.0,7.0,51.0,91.0,-934.0,282.0
25.0,-241.0,38.0,-357.0,15.0,46.0,92.0,-941.0,285.0
24.0,-242.0,40.0,-353.0,23.0,43.0,89.0,-947.0,278.0
26.0,-244.0,38.0,-351.0,28.0,39.0,81.0,-942.0,274.0
20.0,-241.0,30.0,-348.0,33.0,38.0,84.0,-940.0,270.0
21.0,-241.0,34.0,-344.0,38.0,36.0,80.0,-945.0,267.0
22.0,-238.0,40.0,-341.0,42.0,36.0,80.0,-942.0,274.0
18.0,-238.0,30.0,-337.0,46.0,36.0,77.0,-935.0,269.0
21.0,-242.0,37.0,-335.0,48.0,39.0,76.0,-941.0,262.0
26.0,-244.0,32.0,-334.0,51.0,42.0,77.0,-938.0,260.0
22.0,-240.0,32.0,-338.0,53.0,47.0,82.0,-954.0,257.0
26.0,-244.0,30.0,-342.0,57.0,52.0,92.0,-956.0,250.0
27.0,-248.0,29.0,-348.0,60.0,60.0,96.0,-960.0,249.0
29.0,-246.0,26.0,-354.0,64.0,66.0,103.0,-966.0,244.0
30.0,-249.0,29.0,-360.0,69.0,73.0,105.0,-977.0,241.0
29.0,-252.0,32.0,-362.0,72.0,79.0,110.0,-983.0,234.0
28.0,-252.0,26.0,-360.0,78.0,87.0,99.0,-990.0,232.0
26.0,-254.0,26.0,-358.0,82.0,94.0,99.0,-990.0,228.0
26.0,-253.0,24.0,-354.0,91.0,99.0,98.0,-991.0,228.0
26.0,-252.0,27.0,-349.0,99.0,107.0,92.0,-988.0,236.0
22.0,-246.0,27.0,-343.0,102.0,118.0,86.0,-976.0,233.0
21.0,-243.0,25.0,-345.0,105.0,129.0,81.0,-957.0,231.0
20.0,-237.0,25.0,-363.0,110.0,139.0,77.0,-937.0,228.0
20.0,-230.0,29.0,-400.0,117.0,151.0,77.0,-913.0,240.0
21.0,-226.0,29.0,-447.0,126.0,161.0,79.0,-895.0,236.0
22.0,-217.0,27.0,-514.0,137.0,174.0,78.0,-872.0,228.0
16.0,-213.0,24.0,-599.0,142.0,187.0,77.0,-851.0,219.0
19.0,-217.0,21.0,-697.0,141.0,196.0,75.0,-856.0,213.0
19.0,-227.0,28.0,-795.0,146.0,203.0,76.0,-859.0,218.0
22.0,-227.0,22.0,-874.0,160.0,206.0,74.0,-893.0,218.0
15.0,-235.0,23.0,-925.0,171.0,202.0,73.0,-914.0,215.0
15.0,-243.0,18.0,-948.0,176.0,189.0,65.0,-946.0,208.0
18.0,-255.0,15.0,-944.0,188.0,174.0,73.0,-980.0,193.0
16.0,-263.0,14.0,-919.0,201.0,151.0,65.0,-1009.0,187.0
11.0,-270.0,13.0,-877.0,219.0,130.0,42.0,-1038.0,172.0
13.0,-271.0,9.0,-830.0,219.0,111.0,40.0,-1050.0,162.0
10.0,-270.0,12.0,-781.0,216.0,98.0,32.0,-1051.0,161.0
4.0,-267.0,12.0,-741.0,209.0,89.0,20.0,-1037.0,169.0
7.0,-261.0,12.0,-718.0,203.0,83.0,20.0,-1021.0,170.0
6.0,-248.0,5.0,-717.0,201.0,82.0,25.0,-981.0,177.0
9.0,-245.0,14.0,-739.0,208.0,82.0,34.0,-961.0,181.0
5.0,-237.0,14.0,-787.0,209.0,83.0,25.0,-922.0,179.0
5.0,-226.0,12.0,-852.0,205.0,87.0,22.0,-902.0,173.0
3.0,-225.0,10.0,-923.0,203.0,91.0,13.0,-887.0,161.0
7.0,-228.0,0.0,-984.0,182.0,98.0,28.0,-905.0,133.0
6.0,-236.0,-4.0,-1024.0,173.0,95.0,15.0,-912.0,120.0
-1.0,-243.0,-10.0,-1036.0,167.0,93.0,6.0,-940.0,103.0
1.0,-251.0,-21.0,-1022.0,161.0,92.0,6.0,-969.0,76.0
-1.0,-254.0,-20.0,-993.0,150.0,90.0,5.0,-991.0,58.0
1.0,-263.0,-21.0,-956.0,138.0,90.0,8.0,-1020.0,56.0
0.0,-267.0,-14.0,-910.0,131.0,94.0,10.0,-1039.0,61.0
5.0,-270.0,-14.0,-855.0,118.0,99.0,19.0,-1051.0,65.0
6.0,-271.0,-11.0,-796.0,110.0,105.0,23.0,-1051.0,77.0
8.0,-271.0,-14.0,-739.0,103.0,109.0,29.0,-1053.0,78.0
6.0,-269.0,-4.0,-690.0,104.0,117.0,32.0,-1048.0,96.0
6.0,-264.0,-2.0,-652.0,108.0,122.0,29.0,-1029.0,103.0
7.0,-261.0,-6.0,-626.0,108.0,123.0,11.0,-1000.0,113.0
5.0,-250.0,-7.0,-619.0,102.0,124.0,10.0,-980.0,109.0
5.0,-245.0,-5.0,-636.0,98.0,123.0,7.0,-962.0,108.0
5.0,-241.0,-9.0,-668.0,100.0,124.0,9.0,-945.0,96.0
3.0,-241.0,-11.0,-711.0,102.0,126.0,11.0,-940.0,85.0
-5.0,-242.0,-14.0,-750.0,105.0,128.0,2.0,-937.0,73.0
8.0,-249.0,-28.0,-776.0,97.0,134.0,26.0,-967.0,34.0
8.0,-258.0,-24.0,-786.0,108.0,127.0,10.0,-987.0,28.0
3.0,-262.0,-27.0,-769.0,120.0,127.0,6.0,-1005.0,18.0
3.0,-267.0,-35.0,-730.0,131.0,127.0,2.0,-1038.0,5.0
5.0,-276.0,-33.0,-677.0,132.0,127.0,8.0,-1062.0,7.0
4.0,-276.0,-29.0,-620.0,130.0,123.0,11.0,-1069.0,16.0
-1.0,-271.0,-26.0,-570.0,126.0,125.0,-46.0,-1036.0,58.0
2.0,-271.0,-34.0,-529.0,111.0,131.0,27.0,-1067.0,14.0
3.0,-269.0,-25.0,-511.0,113.0,118.0,9.0,-1053.0,22.0
2.0,-267.0,-27.0,-498.0,113.0,114.0,13.0,-1044.0,20.0
10.0,-268.0,-32.0,-490.0,117.0,111.0,9.0,-1036.0,24.0
4.0,-265.0,-30.0,-484.0,122.0,108.0,17.0,-1038.0,23.0
0.0,-263.0,-23.0,-482.0,122.0,107.0,6.0,-1033.0,31.0
4.0,-266.0,-26.0,-479.0,119.0,109.0,18.0,-1040.0,22.0
8.0,-263.0,-31.0,-478.0,119.0,110.0,19.0,-1030.0,21.0
6.0,-264.0,-30.0,-478.0,126.0,111.0,17.0,-1028.0,17.0
-2.0,-256.0,-31.0,-482.0,135.0,121.0,-1.0,-1006.0,23.0
6.0,-261.0,-39.0,-488.0,134.0,133.0,16.0,-1021.0,-6.0
2.0,-261.0,-37.0,-504.0,136.0,126.0,7.0,-1015.0,-8.0
3.0,-261.0,-35.0,-517.0,138.0,123.0,-2.0,-1023.0,-16.0
-3.0,-270.0,-45.0,-519.0,137.0,120.0,-6.0,-1022.0,-21.0
-3.0,-267.0,-39.0,-515.0,136.0,119.0,-16.0,-1032.0,-27.0
-3.0,-268.0,-39.0,-512.0,133.0,119.0,-4.0,-1034.0,-26.0
-3.0,-269.0,-41.0,-511.0,134.0,117.0,-21.0,-1044.0,-22.0
-2.0,-266.0,-42.0,-513.0,134.0,119.0,-17.0,-1043.0,-24.0
-2.0,-266.0,-40.0,-513.0,132.0,122.0,-20.0,-1039.0,-26.0
-6.0,-267.0,-41.0,-509.0,128.0,129.0,-24.0,-1041.0,-27.0
0.0,-269.0,-46.0,-511.0,119.0,138.0,-7.0,-1045.0,-47.0
0.0,-266.0,-45.0,-524.0,119.0,143.0,-14.0,-1045.0,-41.0
-4.0,-266.0,-45.0,-534.0,118.0,149.0,-18.0,-1046.0,-39.0
-3.0,-271.0,-45.0,-530.0,110.0,158.0,-27.0,-1046.0,-51.0
-6.0,-269.0,-48.0,-520.0,103.0,167.0,-27.0,-1043.0,-65.0
-7.0,-265.0,-54.0,-508.0,98.0,176.0,-28.0,-1033.0,-77.0
-4.0,-267.0,-55.0,-500.0,97.0,180.0,-27.0,-1031.0,-83.0
-15.0,-261.0,-54.0,-495.0,97.0,184.0,-50.0,-1011.0,-75.0
-10.0,-265.0,-55.0,-487.0,93.0,191.0,-37.0,-1026.0,-91.0
-8.0,-264.0,-58.0,-481.0,88.0,187.0,-36.0,-1034.0,-93.0
-9.0,-265.0,-57.0,-471.0,86.0,185.0,-42.0,-1037.0,-99.0
-11.0,-261.0,-59.0,-458.0,83.0,182.0,-46.0,-1024.0,-97.0
-9.0,-263.0,-60.0,-450.0,81.0,182.0,-45.0,-1024.0,-98.0
-12.0,-259.0,-54.0,-455.0,76.0,182.0,-46.0,-1014.0,-86.0
-7.0,-259.0,-53.0,-465.0,68.0,185.0,-48.0,-1009.0,-82.0
-13.0,-255.0,-52.0,-478.0,59.0,191.0,-55.0,-1001.0,-66.0
-12.0,-259.0,-52.0,-474.0,49.0,206.0,-46.0,-1002.0,-76.0
-11.0,-260.0,-55.0,-466.0,33.0,216.0,-32.0,-1012.0,-86.0
-7.0,-261.0,-58.0,-462.0,25.0,212.0,-33.0,-1005.0,-103.0
-9.0,-257.0,-57.0,-462.0,23.0,204.0,-36.0,-1006.0,-104.0
-9.0,-259.0,-59.0,-462.0,20.0,198.0,-35.0,-1003.0,-102.0
-10.0,-255.0,-58.0,-462.0,14.0,190.0,-41.0,-996.0,-112.0
-7.0,-259.0,-63.0,-459.0,9.0,181.0,-38.0,-992.0,-111.0
-13.0,-253.0,-61.0,-454.0,3.0,170.0,-39.0,-985.0,-110.0
-9.0,-252.0,-61.0,-449.0,-2.0,159.0,-39.0,-979.0,-111.0
-7.0,-249.0,-67.0,-442.0,-8.0,153.0,-37.0,-972.0,-111.0
-7.0,-248.0,-59.0,-439.0,-9.0,144.0,-36.0,-967.0,-106.0
-7.0,-248.0,-60.0,-446.0,-8.0,136.0,-34.0,-965.0,-113.0
-8.0,-247.0,-63.0,-461.0,-12.0,127.0,-29.0,-968.0,-115.0
-6.0,-247.0,-62.0,-471.0,-17.0,120.0,-28.0,-975.0,-120.0
-4.0,-252.0,-66.0,-470.0,-20.0,110.0,-27.0,-976.0,-131.0
-3.0,-254.0,-68.0,-461.0,-18.0,98.0,-25.0,-985.0,-141.0
-2.0,-257.0,-71.0,-450.0,-13.0,86.0,-19.0,-986.0,-136.0
-4.0,-254.0,-68.0,-437.0,-9.0,75.0,-7.0,-991.0,-136.0
2.0,-258.0,-70.0,-418.0,-9.0,68.0,1.0,-993.0,-131.0
4.0,-252.0,-64.0,-396.0,-7.0,63.0,10.0,-987.0,-130.0
0.0,-252.0,-71.0,-366.0,-5.0,58.0,10.0,-978.0,-135.0
3.0,-250.0,-65.0,-333.0,-2.0,53.0,13.0,-968.0,-137.0
4.0,-244.0,-65.0,-308.0,-2.0,50.0,10.0,-962.0,-138.0
-1.0,-244.0,-64.0,-296.0,-7.0,42.0,6.0,-956.0,-139.0
-6.0,-243.0,-66.0,-297.0,-15.0,30.0,-13.0,-950.0,-138.0
-5.0,-244.0,-62.0,-308.0,-22.0,19.0,-24.0,-936.0,-127.0
-6.0,-242.0,-59.0,-313.0,-27.0,4.0,-22.0,-942.0,-121.0
-6.0,-244.0,-59.0,-306.0,-26.0,-10.0,-34.0,-940.0,-107.0
-7.0,-243.0,-58.0,-286.0,-26.0,-22.0,-40.0,-933.0,-103.0
-15.0,-241.0,-59.0,-272.0,-28.0,-26.0,-53.0,-930.0,-105.0
-13.0,-237.0,-66.0,-273.0,-31.0,-25.0,-53.0,-928.0,-106.0
-12.0,-238.0,-66.0,-290.0,-38.0,-27.0,-60.0,-934.0,-110.0
-10.0,-243.0,-59.0,-308.0,-43.0,-29.0,-41.0,-936.0,-123.0
-11.0,-244.0,-63.0,-322.0,-45.0,-31.0,-40.0,-950.0,-123.0
-9.0,-247.0,-64.0,-327.0,-49.0,-28.0,-44.0,-959.0,-122.0
-6.0,-249.0,-64.0,-321.0,-53.0,-27.0,-32.0,-963.0,-115.0
-4.0,-250.0,-59.0,-310.0,-62.0,-32.0,-25.0,-969.0,-109.0
-5.0,-249.0,-58.0,-295.0,-72.0,-41.0,-21.0,-975.0,-91.0
-2.0,-253.0,-57.0,-271.0,-78.0,-53.0,-11.0,-979.0,-96.0
1.0,-247.0,-53.0,-245.0,-80.0,-65.0,9.0,-971.0,-86.0
5.0,-247.0,-50.0,-215.0,-76.0,-70.0,21.0,-965.0,-86.0
2.0,-242.0,-56.0,-195.0,-67.0,-67.0,16.0,-938.0,-90.0
5.0,-243.0,-63.0,-192.0,-61.0,-62.0,9.0,-935.0,-101.0
4.0,-244.0,-58.0,-199.0,-57.0,-58.0,9.0,-941.0,-110.0
2.0,-241.0,-61.0,-209.0,-55.0,-58.0,8.0,-949.0,-118.0
0.0,-247.0,-60.0,-203.0,-51.0,-67.0,-12.0,-944.0,-111.0
-3.0,-244.0,-60.0,-182.0,-52.0,-73.0,-14.0,-939.0,-107.0
-5.0,-239.0,-57.0,-162.0,-61.0,-71.0,-20.0,-929.0,-104.0
-9.0,-231.0,-57.0,-148.0,-74.0,-73.0,-37.0,-916.0,-99.0
-13.0,-231.0,-52.0,-146.0,-89.0,-73.0,-54.0,-901.0,-80.0
-16.0,-235.0,-54.0,-141.0,-107.0,-67.0,-62.0,-903.0,-78.0
-4.0,-230.0,-55.0,-130.0,-119.0,-75.0,-41.0,-904.0,-82.0
-14.0,-229.0,-52.0,-132.0,-124.0,-87.0,-54.0,-910.0,-85.0
-13.0,-227.0,-53.0,-154.0,-129.0,-76.0,-65.0,-893.0,-77.0
-13.0,-232.0,-54.0,-182.0,-135.0,-57.0,-49.0,-901.0,-78.0
-10.0,-233.0,-54.0,-208.0,-143.0,-39.0,-45.0,-907.0,-79.0
-8.0,-239.0,-57.0,-215.0,-152.0,-25.0,-42.0,-928.0,-98.0
-9.0,-244.0,-59.0,-205.0,-151.0,-35.0,-38.0,-932.0,-103.0
-8.0,-242.0,-58.0,-185.0,-154.0,-46.0,-34.0,-931.0,-107.0
0.0,-238.0,-56.0,-157.0,-163.0,-41.0,-6.0,-920.0,-88.0
-4.0,-239.0,-61.0,-125.0,-172.0,-37.0,-24.0,-923.0,-104.0
-4.0,-235.0,-57.0,-106.0,-182.0,-35.0,-16.0,-916.0,-102.0
2.0,-234.0,-52.0,-96.0,-188.0,-30.0,-11.0,-909.0,-96.0
0.0,-238.0,-55.0,-82.0,-190.0,-24.0,4.0,-908.0,-99.0
7.0,-237.0,-56.0,-61.0,-188.0,-23.0,2.0,-901.0,-104.0
4.0,-227.0,-61.0,-46.0,-178.0,-27.0,2.0,-889.0,-110.0
6.0,-231.0,-55.0,-47.0,-172.0,-27.0,15.0,-891.0,-87.0
11.0,-226.0,-50.0,-44.0,-168.0,-23.0,41.0,-882.0,-86.0
4.0,-229.0,-52.0,-33.0,-164.0,-27.0,10.0,-896.0,-82.0
11.0,-233.0,-53.0,-29.0,-168.0,-19.0,29.0,-907.0,-90.0
5.0,-233.0,-55.0,-33.0,-164.0,-22.0,25.0,-902.0,-80.0
4.0,-227.0,-55.0,-42.0,-159.0,-20.0,17.0,-894.0,-84.0
0.0,-227.0,-55.0,-67.0,-164.0,-16.0,-2.0,-880.0,-94.0
4.0,-232.0,-53.0,-100.0,-176.0,-8.0,-2.0,-893.0,-98.0
-3.0,-235.0,-60.0,-128.0,-190.0,-4.0,-18.0,-906.0,-98.0
-6.0,-236.0,-64.0,-141.0,-200.0,0.0,-21.0,-911.0,-102.0
-5.0,-239.0,-62.0,-141.0,-207.0,-3.0,-27.0,-931.0,-106.0
-9.0,-238.0,-60.0,-146.0,-214.0,-1.0,-38.0,-932.0,-110.0
-8.0,-240.0,-61.0,-165.0,-219.0,0.0,-23.0,-930.0,-111.0
-5.0,-242.0,-63.0,-187.0,-223.0,3.0,-25.0,-932.0,-120.0
-8.0,-242.0,-67.0,-208.0,-233.0,3.0,-28.0,-946.0,-128.0
-5.0,-248.0,-61.0,-227.0,-242.0,1.0,-27.0,-957.0,-129.0
-10.0,-247.0,-69.0,-238.0,-252.0,-10.0,-37.0,-971.0,-128.0
-5.0,-258.0,-69.0,-247.0,-253.0,-14.0,-28.0,-991.0,-152.0
-3.0,-254.0,-69.0,-267.0,-251.0,-8.0,-28.0,-996.0,-140.0
-7.0,-261.0,-71.0,-281.0,-252.0,1.0,-29.0,-987.0,-139.0
-6.0,-256.0,-70.0,-277.0,-256.0,10.0,-28.0,-993.0,-140.0
-5.0,-257.0,-65.0,-261.0,-263.0,19.0,-20.0,-993.0,-137.0
-5.0,-251.0,-65.0,-231.0,-272.0,30.0,6.0,-973.0,-124.0
-6.0,-252.0,-76.0,-193.0,-284.0,35.0,-24.0,-988.0,-172.0
-1.0,-245.0,-76.0,-184.0,-289.0,42.0,-7.0,-967.0,-179.0
-7.0,-242.0,-77.0,-204.0,-294.0,43.0,-17.0,-949.0,-176.0
-2.0,-243.0,-80.0,-235.0,-301.0,48.0,-21.0,-930.0,-176.0
-3.0,-240.0,-75.0,-267.0,-315.0,47.0,-14.0,-938.0,-178.0
-2.0,-235.0,-76.0,-299.0,-330.0,41.0,-2.0,-933.0,-174.0
-6.0,-236.0,-76.0,-328.0,-342.0,30.0,-11.0,-921.0,-175.0
2.0,-236.0,-83.0,-355.0,-348.0,21.0,-21.0,-918.0,-181.0
-4.0,-239.0,-78.0,-384.0,-347.0,17.0,-19.0,-919.0,-184.0
-3.0,-240.0,-82.0,-419.0,-347.0,16.0,-30.0,-937.0,-182.0
-10.0,-244.0,-81.0,-451.0,-352.0,16.0,-41.0,-950.0,-191.0
-12.0,-249.0,-80.0,-478.0,-359.0,20.0,-45.0,-967.0,-193.0
-15.0,-251.0,-80.0,-497.0,-365.0,25.0,-58.0,-980.0,-201.0
-15.0,-251.0,-85.0,-511.0,-371.0,28.0,-64.0,-985.0,-198.0
-12.0,-259.0,-85.0,-520.0,-376.0,33.0,-60.0,-994.0,-204.0
-13.0,-253.0,-90.0,-522.0,-383.0,38.0,-58.0,-987.0,-214.0
-14.0,-257.0,-85.0,-518.0,-393.0,41.0,-65.0,-980.0,-218.0
-17.0,-252.0,-92.0,-515.0,-402.0,42.0,-71.0,-982.0,-226.0
-7.0,-254.0,-93.0,-515.0,-408.0,38.0,-66.0,-979.0,-232.0
-14.0,-252.0,-92.0,-513.0,-412.0,38.0,-57.0,-968.0,-240.0
-13.0,-247.0,-94.0,-513.0,-412.0,39.0,-50.0,-958.0,-238.0
-10.0,-245.0,-91.0,-515.0,-412.0,44.0,-42.0,-948.0,-235.0
-11.0,-244.0,-90.0,-515.0,-415.0,55.0,-48.0,-947.0,-233.0
-14.0,-244.0,-91.0,-511.0,-424.0,68.0,-53.0,-943.0,-234.0
-15.0,-242.0,-93.0,-503.0,-435.0,80.0,-61.0,-940.0,-240.0
-16.0,-242.0,-87.0,-496.0,-447.0,90.0,-65.0,-932.0,-239.0
-19.0,-239.0,-90.0,-492.0,-455.0,96.0,-66.0,-934.0,-241.0
-20.0,-239.0,-97.0,-492.0,-464.0,99.0,-74.0,-933.0,-235.0
-20.0,-242.0,-95.0,-494.0,-471.0,104.0,-77.0,-932.0,-242.0
-20.0,-247.0,-97.0,-494.0,-479.0,109.0,-95.0,-941.0,-244.0
-21.0,-240.0,-93.0,-494.0,-485.0,113.0,-95.0,-941.0,-240.0
-22.0,-244.0,-94.0,-492.0,-488.0,113.0,-98.0,-943.0,-244.0
-20.0,-244.0,-93.0,-486.0,-491.0,111.0,-96.0,-943.0,-244.0
-22.0,-243.0,-94.0,-480.0,-492.0,109.0,-98.0,-937.0,-244.0
-21.0,-243.0,-93.0,-471.0,-495.0,107.0,-103.0,-936.0,-245.0
-27.0,-239.0,-98.0,-465.0,-500.0,109.0,-102.0,-932.0,-247.0
-22.0,-239.0,-96.0,-457.0,-508.0,116.0,-110.0,-918.0,-248.0
-32.0,-234.0,-94.0,-452.0,-517.0,120.0,-118.0,-909.0,-252.0
-30.0,-237.0,-99.0,-449.0,-529.0,125.0,-118.0,-905.0,-263.0
-31.0,-236.0,-101.0,-450.0,-538.0,126.0,-122.0,-906.0,-262.0
-30.0,-231.0,-95.0,-448.0,-549.0,129.0,-115.0,-909.0,-276.0
-24.0,-236.0,-108.0,-446.0,-559.0,133.0,-112.0,-911.0,-279.0
-23.0,-237.0,-105.0,-444.0,-567.0,139.0,-107.0,-912.0,-276.0
-20.0,-237.0,-105.0,-441.0,-573.0,143.0,-94.0,-916.0,-285.0
-20.0,-236.0,-105.0,-437.0,-575.0,146.0,-85.0,-913.0,-279.0
-17.0,-236.0,-103.0,-430.0,-573.0,142.0,-66.0,-905.0,-285.0
-15.0,-230.0,-105.0,-422.0,-569.0,137.0,-58.0,-898.0,-287.0
-12.0,-232.0,-104.0,-418.0,-563.0,134.0,-48.0,-889.0,-286.0
-9.0,-228.0,-105.0,-418.0,-557.0,131.0,-48.0,-889.0,-285.0
-12.0,-226.0,-105.0,-427.0,-549.0,132.0,-43.0,-886.0,-291.0
-7.0,-226.0,-106.0,-436.0,-545.0,129.0,-45.0,-889.0,-288.0
-7.0,-225.0,-111.0,-443.0,-544.0,127.0,-48.0,-886.0,-294.0
-14.0,-229.0,-106.0,-450.0,-544.0,127.0,-54.0,-889.0,-293.0
-16.0,-227.0,-110.0,-454.0,-545.0,128.0,-61.0,-886.0,-297.0
-17.0,-228.0,-107.0,-456.0,-549.0,128.0,-67.0,-887.0,-295.0
-19.0,-225.0,-107.0,-457.0,-556.0,130.0,-85.0,-879.0,-293.0
-20.0,-223.0,-105.0,-456.0,-563.0,134.0,-89.0,-864.0,-284.0
-18.0,-226.0,-108.0,-456.0,-572.0,134.0,-73.0,-876.0,-291.0
-17.0,-229.0,-102.0,-458.0,-579.0,132.0,-69.0,-888.0,-285.0
-17.0,-235.0,-102.0,-469.0,-585.0,128.0,-76.0,-906.0,-283.0
-15.0,-238.0,-101.0,-478.0,-592.0,123.0,-56.0,-918.0,-278.0
-10.0,-233.0,-95.0,-487.0,-600.0,117.0,-53.0,-916.0,-266.0
-8.0,-235.0,-103.0,-485.0,-608.0,111.0,-38.0,-906.0,-270.0
-7.0,-233.0,-105.0,-473.0,-615.0,103.0,-34.0,-902.0,-273.0
-11.0,-228.0,-105.0,-453.0,-617.0,96.0,-33.0,-889.0,-279.0
-9.0,-229.0,-104.0,-432.0,-618.0,86.0,-34.0,-877.0,-285.0
-8.0,-226.0,-104.0,-414.0,-617.0,76.0,-42.0,-877.0,-284.0
-11.0,-221.0,-106.0,-395.0,-618.0,66.0,-45.0,-866.0,-286.0
-14.0,-222.0,-98.0,-386.0,-624.0,56.0,-58.0,-857.0,-274.0
-17.0,-218.0,-100.0,-384.0,-635.0,50.0,-70.0,-844.0,-265.0
-20.0,-214.0,-96.0,-386.0,-651.0,48.0,-81.0,-837.0,-259.0
-21.0,-215.0,-100.0,-394.0,-670.0,48.0,-98.0,-841.0,-256.0
-23.0,-217.0,-101.0,-405.0,-690.0,50.0,-98.0,-836.0,-259.0
-26.0,-219.0,-101.0,-414.0,-709.0,53.0,-105.0,-839.0,-255.0
-25.0,-219.0,-97.0,-423.0,-726.0,55.0,-109.0,-843.0,-253.0
-27.0,-219.0,-100.0,-426.0,-742.0,59.0,-105.0,-847.0,-258.0
-21.0,-222.0,-99.0,-427.0,-754.0,64.0,-105.0,-851.0,-261.0
-25.0,-223.0,-98.0,-424.0,-764.0,69.0,-104.0,-857.0,-263.0
-22.0,-226.0,-99.0,-417.0,-774.0,77.0,-97.0,-865.0,-266.0
-23.0,-227.0,-103.0,-409.0,-785.0,87.0,-96.0,-864.0,-262.0
-23.0,-227.0,-101.0,-398.0,-798.0,97.0,-95.0,-877.0,-269.0
-23.0,-224.0,-105.0,-390.0,-815.0,106.0,-96.0,-866.0,-264.0
-22.0,-221.0,-99.0,-378.0,-837.0,113.0,-92.0,-862.0,-259.0
-20.0,-222.0,-101.0,-367.0,-862.0,120.0,-96.0,-859.0,-262.0
-23.0,-222.0,-103.0,-358.0,-887.0,124.0,-90.0,-854.0,-262.0
-20.0,-219.0,-98.0,-349.0,-911.0,129.0,-92.0,-848.0,-263.0
-22.0,-218.0,-99.0,-341.0,-932.0,132.0,-83.0,-846.0,-260.0
-22.0,-217.0,-95.0,-335.0,-949.0,134.0,-93.0,-837.0,-255.0
-22.0,-215.0,-99.0,-329.0,-966.0,139.0,-96.0,-833.0,-253.0
-20.0,-215.0,-100.0,-325.0,-980.0,147.0,-91.0,-828.0,-254.0
-23.0,-214.0,-97.0,-326.0,-997.0,154.0,-96.0,-828.0,-253.0
-21.0,-217.0,-94.0,-326.0,-1012.0,163.0,-92.0,-823.0,-253.0
-28.0,-211.0,-96.0,-329.0,-1032.0,172.0,-97.0,-831.0,-255.0
-23.0,-216.0,-97.0,-327.0,-1050.0,183.0,-103.0,-836.0,-245.0
-28.0,-213.0,-90.0,-321.0,-1068.0,195.0,-106.0,-837.0,-236.0
-25.0,-220.0,-90.0,-312.0,-1086.0,208.0,-106.0,-843.0,-228.0
-29.0,-219.0,-87.0,-299.0,-1107.0,223.0,-109.0,-843.0,-220.0
-27.0,-219.0,-88.0,-286.0,-1133.0,240.0,-119.0,-846.0,-218.0
-28.0,-221.0,-84.0,-269.0,-1165.0,256.0,-113.0,-840.0,-215.0
-28.0,-220.0,-86.0,-252.0,-1198.0,275.0,-114.0,-838.0,-205.0
-30.0,-217.0,-84.0,-237.0,-1231.0,293.0,-121.0,-842.0,-205.0
-33.0,-216.0,-86.0,-224.0,-1263.0,313.0,-119.0,-840.0,-198.0
-32.0,-215.0,-84.0,-209.0,-1295.0,332.0,-128.0,-840.0,-202.0
-35.0,-212.0,-82.0,-192.0,-1329.0,351.0,-119.0,-832.0,-201.0
-28.0,-216.0,-82.0,-174.0,-1359.0,369.0,-127.0,-825.0,-204.0
-38.0,-212.0,-81.0,-157.0,-1389.0,385.0,-126.0,-824.0,-204.0
-31.0,-210.0,-88.0,-137.0,-1418.0,402.0,-132.0,-821.0,-200.0
-36.0,-207.0,-77.0,-120.0,-1446.0,421.0,-138.0,-807.0,-191.0
-33.0,-211.0,-79.0,-101.0,-1475.0,436.0,-139.0,-803.0,-176.0
-36.0,-208.0,-78.0,-81.0,-1504.0,450.0,-143.0,-802.0,-169.0
-32.0,-207.0,-76.0,-62.0,-1533.0,464.0,-142.0,-792.0,-167.0
-33.0,-206.0,-71.0,-42.0,-1564.0,478.0,-138.0,-789.0,-164.0
-35.0,-203.0,-70.0,-21.0,-1593.0,494.0,-139.0,-783.0,-154.0
-38.0,-202.0,-67.0,-3.0,-1625.0,508.0,-146.0,-779.0,-147.0
-37.0,-198.0,-68.0,14.0,-1659.0,522.0,-149.0,-773.0,-144.0
-36.0,-200.0,-67.0,28.0,-1691.0,534.0,-149.0,-770.0,-140.0
-33.0,-192.0,-67.0,39.0,-1719.0,543.0,-153.0,-767.0,-140.0
-38.0,-197.0,-66.0,50.0,-1746.0,554.0,-150.0,-767.0,-137.0
-41.0,-195.0,-67.0,56.0,-1769.0,562.0,-162.0,-757.0,-133.0
-41.0,-196.0,-66.0,64.0,-1793.0,569.0,-154.0,-764.0,-130.0
-38.0,-199.0,-62.0,74.0,-1811.0,574.0,-153.0,-770.0,-117.0
-38.0,-200.0,-59.0,85.0,-1827.0,580.0,-161.0,-768.0,-109.0
-37.0,-199.0,-60.0,99.0,-1844.0,583.0,-160.0,-763.0,-101.0
-38.0,-197.0,-58.0,113.0,-1857.0,584.0,-164.0,-762.0,-86.0
-44.0,-195.0,-56.0,134.0,-1870.0,585.0,-160.0,-758.0,-81.0
-42.0,-194.0,-52.0,156.0,-1881.0,585.0,-162.0,-758.0,-72.0
-40.0,-196.0,-49.0,184.0,-1886.0,582.0,-156.0,-756.0,-71.0
-44.0,-200.0,-50.0,214.0,-1891.0,581.0,-157.0,-766.0,-59.0
-30.0,-197.0,-48.0,244.0,-1897.0,582.0,-134.0,-761.0,-45.0
-28.0,-196.0,-46.0,276.0,-1896.0,586.0,-117.0,-755.0,-37.0
-24.0,-194.0,-42.0,305.0,-1891.0,595.0,-105.0,-752.0,-16.0
-22.0,-192.0,-35.0,328.0,-1882.0,606.0,-106.0,-744.0,-2.0
-20.0,-189.0,-33.0,345.0,-1872.0,620.0,-97.0,-741.0,10.0
-22.0,-188.0,-22.0,361.0,-1863.0,638.0,-96.0,-742.0,27.0
-22.0,-191.0,-23.0,371.0,-1854.0,659.0,-92.0,-743.0,38.0
-22.0,-188.0,-18.0,376.0,-1850.0,682.0,-89.0,-736.0,58.0
-21.0,-189.0,-15.0,379.0,-1845.0,703.0,-95.0,-734.0,66.0
-29.0,-186.0,-13.0,380.0,-1844.0,722.0,-104.0,-733.0,84.0
-29.0,-188.0,-10.0,385.0,-1845.0,740.0,-113.0,-732.0,86.0
-28.0,-189.0,-11.0,394.0,-1844.0,756.0,-105.0,-730.0,94.0
-23.0,-182.0,-12.0,402.0,-1838.0,770.0,-107.0,-703.0,92.0
-22.0,-181.0,-7.0,401.0,-1828.0,785.0,-100.0,-697.0,102.0
-20.0,-179.0,-2.0,395.0,-1812.0,800.0,-90.0,-688.0,109.0
-19.0,-178.0,0.0,391.0,-1790.0,815.0,-92.0,-680.0,129.0
-20.0,-174.0,-1.0,390.0,-1766.0,830.0,-76.0,-671.0,131.0
-17.0,-171.0,0.0,395.0,-1741.0,843.0,-64.0,-669.0,138.0
-12.0,-166.0,4.0,407.0,-1717.0,856.0,-55.0,-653.0,140.0
-10.0,-166.0,1.0,417.0,-1693.0,868.0,-36.0,-641.0,137.0
-1.0,-161.0,-7.0,419.0,-1666.0,886.0,-19.0,-628.0,136.0
-1.0,-153.0,4.0,412.0,-1634.0,905.0,-3.0,-602.0,135.0
2.0,-147.0,1.0,398.0,-1596.0,922.0,5.0,-589.0,136.0
4.0,-147.0,3.0,376.0,-1554.0,931.0,13.0,-570.0,149.0
6.0,-146.0,10.0,356.0,-1516.0,935.0,8.0,-560.0,158.0
2.0,-139.0,12.0,344.0,-1484.0,934.0,4.0,-541.0,166.0
1.0,-131.0,6.0,333.0,-1457.0,931.0,8.0,-516.0,168.0
5.0,-128.0,11.0,321.0,-1440.0,923.0,13.0,-498.0,168.0
2.0,-124.0,10.0,298.0,-1422.0,916.0,14.0,-476.0,171.0
5.0,-120.0,14.0,267.0,-1400.0,911.0,6.0,-466.0,185.0
8.0,-118.0,18.0,238.0,-1377.0,910.0,22.0,-455.0,194.0
9.0,-115.0,20.0,211.0,-1358.0,900.0,25.0,-447.0,203.0
8.0,-109.0,22.0,175.0,-1347.0,891.0,27.0,-438.0,212.0
5.0,-105.0,18.0,133.0,-1342.0,878.0,27.0,-413.0,225.0
9.0,-101.0,22.0,93.0,-1336.0,863.0,37.0,-395.0,229.0
12.0,-100.0,20.0,56.0,-1329.0,845.0,44.0,-384.0,219.0
16.0,-89.0,20.0,13.0,-1320.0,822.0,52.0,-348.0,200.0
18.0,-79.0,15.0,-36.0,-1313.0,800.0,54.0,-316.0,189.0
14.0,-68.0,6.0,-86.0,-1305.0,777.0,54.0,-265.0,170.0
14.0,-56.0,4.0,-140.0,-1296.0,756.0,61.0,-221.0,153.0
12.0,-44.0,-1.0,-194.0,-1294.0,729.0,49.0,-176.0,135.0
12.0,-33.0,-9.0,-254.0,-1288.0,701.0,37.0,-143.0,130.0
11.0,-27.0,-10.0,-318.0,-1279.0,665.0,37.0,-99.0,114.0
10.0,-8.0,-8.0,-395.0,-1260.0,628.0,45.0,-53.0,108.0
11.0,-5.0,-1.0,-485.0,-1246.0,587.0,40.0,-18.0,137.0
6.0,15.0,5.0,-589.0,-1239.0,538.0,15.0,51.0,152.0
3.0,31.0,5.0,-732.0,-1227.0,500.0,3.0,97.0,159.0
-2.0,36.0,12.0,-920.0,-1237.0,465.0,-11.0,120.0,183.0
-18.0,48.0,18.0,-1119.0,-1274.0,411.0,-65.0,150.0,190.0
-28.0,44.0,10.0,-1296.0,-1342.0,362.0,-95.0,143.0,172.0
-23.0,27.0,-5.0,-1435.0,-1407.0,325.0,-107.0,103.0,124.0
-34.0,22.0,-19.0,-1521.0,-1439.0,294.0,-123.0,88.0,55.0
-38.0,18.0,-40.0,-1563.0,-1442.0,281.0,-140.0,73.0,-11.0
-31.0,14.0,-57.0,-1587.0,-1435.0,259.0,-124.0,34.0,-91.0
-35.0,18.0,-85.0,-1601.0,-1416.0,221.0,-144.0,78.0,-165.0
-42.0,19.0,-72.0,-1603.0,-1388.0,183.0,-168.0,85.0,-164.0
-43.0,4.0,-81.0,-1552.0,-1377.0,138.0,-190.0,58.0,-182.0
-38.0,-6.0,-93.0,-1470.0,-1350.0,128.0,-187.0,-15.0,-255.0
-31.0,-18.0,-128.0,-1344.0,-1294.0,141.0,-153.0,-26.0,-379.0
-34.0,-45.0,-128.0,-1181.0,-1163.0,161.0,-173.0,-153.0,-387.0
-61.0,-68.0,-113.0,-1015.0,-1096.0,185.0,-220.0,-232.0,-306.0
-86.0,-97.0,-82.0,-847.0,-1176.0,190.0,-324.0,-333.0,-194.0
-148.0,-105.0,-67.0,-631.0,-1300.0,194.0,-567.0,-366.0,-113.0
-201.0,-117.0,-47.0,-410.0,-1436.0,286.0,-767.0,-431.0,-39.0
-287.0,-128.0,-32.0,-227.0,-1591.0,435.0,-1123.0,-468.0,-7.0
-418.0,-131.0,-43.0,-96.0,-1756.0,656.0,-1637.0,-479.0,-19.0
-622.0,-129.0,-89.0,-7.0,-1924.0,970.0,-2215.0,-516.0,-167.0
-772.0,-147.0,-139.0,25.0,-2082.0,1434.0,-2879.0,-553.0,-334.0
-863.0,-244.0,-198.0,37.0,-2171.0,2111.0,-3269.0,-851.0,-569.0
-942.0,-365.0,-249.0,20.0,-2140.0,2830.0,-3630.0,-1303.0,-772.0
-1081.0,-542.0,-304.0,-39.0,-1956.0,3488.0,-4081.0,-1932.0,-1042.0
-1383.0,-718.0,-322.0,-144.0,-1607.0,4250.0,-5200.0,-2650.0,-1058.0
-1597.0,-923.0,-317.0,-322.0,-1065.0,5317.0,-6160.0,-3438.0,-1158.0
-1536.0,-1134.0,-265.0,-678.0,-262.0,6592.0,-6012.0,-4302.0,-1027.0
-1238.0,-1199.0,-260.0,-1134.0,714.0,7691.0,-5583.0,-4716.0,-817.0
-808.0,-1069.0,-270.0,-1494.0,1889.0,8234.0,-3766.0,-4350.0,-915.0
-499.0,-812.0,-237.0,-1655.0,3218.0,7964.0,-2437.0,-3236.0,-789.0
-389.0,-482.0,-79.0,-1849.0,4369.0,7025.0,-1585.0,-1963.0,-210.0
-282.0,-241.0,56.0,-2141.0,4991.0,5957.0,-1071.0,-1025.0,313.0
-272.0,-23.0,207.0,-2410.0,5080.0,5163.0,-946.0,-159.0,934.0
-228.0,105.0,343.0,-2593.0,4763.0,4681.0,-786.0,371.0,1481.0
-241.0,190.0,410.0,-2591.0,4133.0,4286.0,-806.0,772.0,1789.0
-322.0,329.0,398.0,-2142.0,3425.0,3883.0,-1167.0,1352.0,1770.0
-505.0,449.0,301.0,-1375.0,2963.0,3497.0,-1841.0,1771.0,1408.0
-610.0,495.0,189.0,-728.0,2636.0,3036.0,-2296.0,1931.0,980.0
-692.0,445.0,70.0,-408.0,2278.0,2589.0,-2637.0,1903.0,489.0
-684.0,384.0,-66.0,-381.0,1880.0,2311.0,-2612.0,1516.0,-51.0
-678.0,238.0,-145.0,-483.0,1537.0,2231.0,-2627.0,982.0,-378.0
-609.0,105.0,-191.0,-532.0,1344.0,2297.0,-2384.0,435.0,-606.0
-497.0,-5.0,-196.0,-658.0,1195.0,2356.0,-1988.0,1.0,-668.0
-403.0,-77.0,-105.0,-900.0,1097.0,2378.0,-1567.0,-309.0,-355.0
-355.0,-83.0,15.0,-1118.0,980.0,2372.0,-1367.0,-349.0,132.0
-280.0,-75.0,76.0,-1278.0,806.0,2362.0,-1118.0,-317.0,431.0
-218.0,-96.0,57.0,-1390.0,777.0,2369.0,-931.0,-345.0,386.0
-222.0,-106.0,4.0,-1453.0,1008.0,2417.0,-905.0,-419.0,204.0
-299.0,-102.0,-43.0,-1470.0,1344.0,2558.0,-1123.0,-428.0,4.0
-331.0,-110.0,-97.0,-1584.0,1513.0,2724.0,-1239.0,-477.0,-215.0
-392.0,-113.0,-167.0,-1893.0,1516.0,2847.0,-1553.0,-481.0,-475.0
-326.0,-140.0,-83.0,-2298.0,1493.0,2965.0,-1298.0,-519.0,-242.0
-242.0,-139.0,-14.0,-2434.0,1374.0,2976.0,-956.0,-495.0,36.0
-215.0,-113.0,-6.0,-2135.0,1159.0,2863.0,-824.0,-369.0,131.0
-187.0,-70.0,-11.0,-1593.0,937.0,2698.0,-689.0,-218.0,84.0
-227.0,31.0,-20.0,-1005.0,735.0,2502.0,-828.0,95.0,75.0
-232.0,141.0,-74.0,-490.0,583.0,2401.0,-964.0,537.0,-67.0
-212.0,205.0,-125.0,-194.0,586.0,2410.0,-890.0,749.0,-301.0
-157.0,200.0,-166.0,-171.0,748.0,2348.0,-731.0,806.0,-478.0
-157.0,236.0,-209.0,-274.0,971.0,2163.0,-654.0,839.0,-584.0
-230.0,276.0,-227.0,-434.0,1232.0,2002.0,-891.0,1051.0,-735.0
-261.0,265.0,-206.0,-736.0,1440.0,1879.0,-1017.0,1045.0,-684.0
-242.0,210.0,-158.0,-1005.0,1539.0,1679.0,-888.0,828.0,-484.0
-300.0,197.0,-132.0,-1127.0,1520.0,1367.0,-1173.0,777.0,-385.0
-316.0,151.0,-147.0,-1077.0,1507.0,1160.0,-1221.0,623.0,-434.0
-309.0,126.0,-154.0,-945.0,1525.0,1020.0,-1210.0,522.0,-460.0
-315.0,109.0,-162.0,-745.0,1538.0,853.0,-1229.0,437.0,-508.0
-329.0,104.0,-186.0,-604.0,1525.0,668.0,-1264.0,407.0,-596.0
-278.0,45.0,-175.0,-577.0,1544.0,539.0,-1105.0,200.0,-547.0
-275.0,-3.0,-150.0,-482.0,1581.0,384.0,-1079.0,46.0,-460.0
-271.0,-48.0,-150.0,-229.0,1562.0,255.0,-1050.0,-107.0,-445.0
-267.0,-51.0,-152.0,87.0,1483.0,180.0,-1044.0,-147.0,-466.0
-262.0,-30.0,-150.0,345.0,1390.0,155.0,-1013.0,-84.0,-480.0
-244.0,-1.0,-155.0,489.0,1336.0,170.0,-962.0,21.0,-492.0
-232.0,38.0,-154.0,528.0,1309.0,208.0,-910.0,143.0,-469.0
-223.0,77.0,-136.0,490.0,1306.0,244.0,-874.0,288.0,-411.0
-209.0,112.0,-121.0,442.0,1312.0,276.0,-845.0,419.0,-352.0
-212.0,137.0,-102.0,413.0,1338.0,285.0,-825.0,536.0,-276.0
-203.0,160.0,-89.0,419.0,1340.0,285.0,-792.0,621.0,-230.0
-212.0,172.0,-98.0,445.0,1315.0,260.0,-811.0,679.0,-239.0
-212.0,177.0,-110.0,459.0,1288.0,215.0,-820.0,708.0,-285.0
-202.0,183.0,-119.0,465.0,1282.0,173.0,-804.0,712.0,-325.0
-209.0,179.0,-130.0,452.0,1300.0,148.0,-817.0,692.0,-364.0
-214.0,170.0,-145.0,422.0,1322.0,138.0,-842.0,650.0,-414.0
-181.0,146.0,-154.0,378.0,1361.0,119.0,-724.0,585.0,-476.0
-177.0,125.0,-164.0,305.0,1403.0,69.0,-693.0,475.0,-522.0
-183.0,104.0,-172.0,229.0,1430.0,3.0,-708.0,403.0,-534.0
-176.0,72.0,-177.0,165.0,1445.0,-61.0,-703.0,303.0,-548.0
-168.0,58.0,-169.0,127.0,1467.0,-132.0,-653.0,215.0,-536.0
-180.0,43.0,-181.0,105.0,1459.0,-179.0,-692.0,188.0,-561.0
-230.0,60.0,-188.0,98.0,1459.0,-214.0,-888.0,193.0,-624.0
-228.0,63.0,-183.0,90.0,1448.0,-202.0,-897.0,250.0,-599.0
-179.0,56.0,-224.0,140.0,1385.0,-153.0,-755.0,223.0,-736.0
-182.0,52.0,-246.0,168.0,1439.0,-132.0,-761.0,208.0,-823.0
-160.0,50.0,-230.0,141.0,1480.0,-144.0,-618.0,195.0,-785.0
-192.0,53.0,-219.0,112.0,1416.0,-155.0,-679.0,214.0,-734.0
-211.0,57.0,-221.0,127.0,1284.0,-184.0,-809.0,230.0,-753.0
-239.0,59.0,-240.0,170.0,1173.0,-219.0,-919.0,242.0,-821.0
-193.0,53.0,-239.0,209.0,1107.0,-242.0,-726.0,214.0,-829.0
-169.0,43.0,-231.0,248.0,990.0,-266.0,-632.0,175.0,-803.0
-207.0,26.0,-220.0,276.0,781.0,-296.0,-809.0,144.0,-781.0
-219.0,37.0,-243.0,320.0,600.0,-303.0,-853.0,139.0,-838.0
-224.0,21.0,-237.0,319.0,489.0,-330.0,-868.0,88.0,-802.0
-167.0,19.0,-231.0,307.0,383.0,-343.0,-640.0,80.0,-795.0
-188.0,20.0,-227.0,294.0,299.0,-314.0,-732.0,93.0,-772.0
-195.0,36.0,-204.0,276.0,241.0,-278.0,-754.0,136.0,-705.0
-197.0,38.0,-217.0,237.0,218.0,-259.0,-772.0,155.0,-736.0
-195.0,46.0,-219.0,203.0,225.0,-261.0,-774.0,175.0,-727.0
-210.0,30.0,-195.0,172.0,242.0,-288.0,-811.0,123.0,-657.0
-201.0,31.0,-196.0,159.0,230.0,-289.0,-802.0,140.0,-666.0
-191.0,29.0,-196.0,151.0,247.0,-306.0,-760.0,128.0,-669.0
-207.0,33.0,-203.0,153.0,268.0,-326.0,-796.0,153.0,-654.0
-193.0,40.0,-195.0,153.0,291.0,-324.0,-759.0,160.0,-645.0
-207.0,50.0,-198.0,157.0,310.0,-311.0,-800.0,190.0,-669.0
-199.0,52.0,-205.0,162.0,344.0,-315.0,-781.0,200.0,-680.0
-206.0,40.0,-211.0,171.0,373.0,-350.0,-795.0,155.0,-705.0
-204.0,37.0,-214.0,181.0,375.0,-383.0,-787.0,146.0,-731.0
-196.0,36.0,-219.0,193.0,363.0,-412.0,-777.0,152.0,-756.0
-195.0,23.0,-221.0,200.0,363.0,-430.0,-751.0,104.0,-748.0
-205.0,28.0,-231.0,210.0,346.0,-435.0,-806.0,122.0,-779.0
-190.0,28.0,-223.0,194.0,345.0,-434.0,-742.0,117.0,-767.0
-197.0,25.0,-225.0,177.0,320.0,-420.0,-763.0,109.0,-769.0
-207.0,21.0,-224.0,164.0,280.0,-410.0,-792.0,97.0,-769.0
-202.0,32.0,-232.0,136.0,252.0,-415.0,-813.0,131.0,-800.0
-194.0,22.0,-226.0,83.0,230.0,-421.0,-737.0,91.0,-765.0
-204.0,15.0,-221.0,52.0,164.0,-404.0,-789.0,82.0,-758.0
-207.0,17.0,-224.0,36.0,108.0,-391.0,-802.0,77.0,-747.0
-194.0,26.0,-221.0,14.0,80.0,-395.0,-789.0,97.0,-743.0
-187.0,11.0,-217.0,-22.0,56.0,-394.0,-727.0,50.0,-722.0
-195.0,11.0,-202.0,-38.0,11.0,-379.0,-769.0,42.0,-702.0
-198.0,11.0,-204.0,-45.0,-17.0,-369.0,-782.0,41.0,-696.0
-220.0,2.0,-213.0,-57.0,-28.0,-359.0,-837.0,48.0,-702.0
-181.0,6.0,-201.0,-75.0,-11.0,-379.0,-691.0,18.0,-678.0
-188.0,3.0,-200.0,-104.0,-26.0,-345.0,-719.0,15.0,-654.0
-188.0,9.0,-192.0,-115.0,-30.0,-332.0,-723.0,44.0,-631.0
-182.0,7.0,-196.0,-118.0,-23.0,-325.0,-712.0,25.0,-643.0
-181.0,1.0,-196.0,-121.0,-27.0,-288.0,-709.0,26.0,-640.0
-190.0,0.0,-194.0,-125.0,-29.0,-259.0,-738.0,6.0,-644.0
-179.0,6.0,-193.0,-128.0,-16.0,-234.0,-701.0,27.0,-645.0
-192.0,6.0,-193.0,-121.0,-21.0,-183.0,-745.0,29.0,-647.0
-218.0,3.0,-203.0,-112.0,-27.0,-137.0,-855.0,24.0,-691.0
-171.0,7.0,-204.0,-114.0,2.0,-137.0,-678.0,40.0,-674.0
-193.0,8.0,-208.0,-116.0,-19.0,-89.0,-760.0,39.0,-693.0
-196.0,12.0,-207.0,-113.0,-40.0,-50.0,-773.0,48.0,-701.0
-196.0,12.0,-207.0,-116.0,-50.0,-29.0,-766.0,50.0,-705.0
-177.0,14.0,-209.0,-120.0,-38.0,-39.0,-692.0,61.0,-703.0
-201.0,13.0,-212.0,-130.0,-61.0,-5.0,-784.0,55.0,-716.0
-201.0,14.0,-208.0,-133.0,-83.0,25.0,-784.0,61.0,-695.0
-210.0,13.0,-210.0,-128.0,-96.0,42.0,-812.0,68.0,-701.0
-202.0,15.0,-207.0,-123.0,-105.0,56.0,-795.0,65.0,-700.0
-203.0,13.0,-208.0,-122.0,-117.0,71.0,-796.0,72.0,-694.0
-201.0,14.0,-204.0,-123.0,-121.0,77.0,-783.0,70.0,-681.0
-203.0,17.0,-206.0,-117.0,-126.0,91.0,-789.0,68.0,-688.0
-203.0,18.0,-205.0,-122.0,-130.0,98.0,-801.0,79.0,-681.0
-200.0,16.0,-198.0,-124.0,-132.0,102.0,-792.0,71.0,-674.0
-204.0,17.0,-207.0,-125.0,-132.0,113.0,-793.0,75.0,-681.0
-206.0,19.0,-202.0,-127.0,-131.0,117.0,-800.0,79.0,-675.0
-204.0,16.0,-205.0,-130.0,-127.0,122.0,-796.0,83.0,-676.0
-205.0,17.0,-203.0,-129.0,-126.0,125.0,-800.0,80.0,-677.0
-204.0,21.0,-198.0,-130.0,-122.0,130.0,-801.0,88.0,-677.0
-204.0,21.0,-198.0,-131.0,-118.0,134.0,-800.0,91.0,-683.0
-202.0,20.0,-199.0,-132.0,-111.0,136.0,-796.0,98.0,-666.0
-202.0,24.0,-194.0,-132.0,-99.0,136.0,-801.0,98.0,-660.0
-201.0,24.0,-196.0,-131.0,-83.0,135.0,-790.0,93.0,-649.0
-199.0,23.0,-193.0,-130.0,-64.0,136.0,-784.0,105.0,-639.0
-197.0,27.0,-197.0,-127.0,-42.0,134.0,-782.0,107.0,-642.0
-196.0,20.0,-197.0,-125.0,-21.0,131.0,-781.0,104.0,-646.0
-200.0,27.0,-193.0,-121.0,-2.0,127.0,-776.0,112.0,-643.0
-197.0,30.0,-196.0,-119.0,16.0,124.0,-771.0,119.0,-646.0
-194.0,27.0,-194.0,-117.0,34.0,119.0,-771.0,120.0,-649.0
-195.0,28.0,-196.0,-113.0,48.0,112.0,-769.0,118.0,-646.0
-196.0,28.0,-193.0,-109.0,61.0,104.0,-771.0,121.0,-641.0
-195.0,30.0,-189.0,-104.0,76.0,97.0,-764.0,120.0,-646.0
-195.0,27.0,-196.0,-101.0,91.0,91.0,-765.0,120.0,-656.0
-192.0,28.0,-194.0,-99.0,104.0,85.0,-759.0,123.0,-645.0
-190.0,30.0,-197.0,-99.0,116.0,79.0,-760.0,125.0,-645.0
-192.0,30.0,-196.0,-98.0,123.0,72.0,-758.0,123.0,-652.0
-193.0,32.0,-194.0,-95.0,128.0,65.0,-756.0,132.0,-656.0
-191.0,31.0,-199.0,-92.0,133.0,57.0,-747.0,131.0,-661.0
-192.0,30.0,-200.0,-87.0,134.0,48.0,-751.0,129.0,-668.0
-192.0,27.0,-203.0,-82.0,134.0,40.0,-747.0,128.0,-670.0
-192.0,31.0,-201.0,-75.0,132.0,31.0,-754.0,129.0,-680.0
-194.0,30.0,-206.0,-69.0,129.0,22.0,-755.0,129.0,-678.0
-194.0,31.0,-207.0,-61.0,124.0,14.0,-760.0,122.0,-686.0
-189.0,27.0,-207.0,-56.0,117.0,6.0,-752.0,123.0,-686.0
-191.0,30.0,-201.0,-50.0,111.0,0.0,-752.0,128.0,-689.0
-189.0,30.0,-203.0,-45.0,105.0,-7.0,-746.0,127.0,-682.0
-192.0,26.0,-208.0,-36.0,93.0,-16.0,-747.0,128.0,-688.0
-189.0,30.0,-203.0,-31.0,84.0,-25.0,-741.0,121.0,-685.0
-194.0,28.0,-201.0,-26.0,76.0,-33.0,-747.0,123.0,-686.0
-191.0,27.0,-201.0,-19.0,66.0,-41.0,-757.0,124.0,-685.0
-193.0,29.0,-206.0,-15.0,59.0,-46.0,-755.0,121.0,-687.0
-192.0,27.0,-204.0,-9.0,53.0,-53.0,-751.0,121.0,-685.0
-193.0,27.0,-205.0,-2.0,50.0,-59.0,-753.0,110.0,-684.0
-193.0,24.0,-207.0,3.0,47.0,-65.0,-753.0,108.0,-679.0
-194.0,25.0,-204.0,6.0,46.0,-68.0,-747.0,108.0,-681.0
-191.0,20.0,-202.0,8.0,45.0,-72.0,-760.0,109.0,-687.0
-196.0,29.0,-205.0,8.0,43.0,-75.0,-762.0,107.0,-688.0
-191.0,20.0,-201.0,10.0,42.0,-78.0,-757.0,101.0,-688.0
-192.0,26.0,-207.0,10.0,37.0,-77.0,-758.0,103.0,-686.0
-191.0,21.0,-205.0,11.0,34.0,-77.0,-756.0,100.0,-684.0
-195.0,25.0,-206.0,11.0,30.0,-78.0,-760.0,96.0,-690.0
-192.0,23.0,-209.0,9.0,24.0,-75.0,-756.0,95.0,-688.0
-192.0,23.0,-204.0,8.0,16.0,-73.0,-757.0,95.0,-687.0
-196.0,20.0,-207.0,5.0,10.0,-71.0,-757.0,90.0,-684.0
-196.0,20.0,-207.0,2.0,4.0,-69.0,-762.0,91.0,-689.0
-197.0,19.0,-204.0,0.0,-2.0,-63.0,-763.0,88.0,-688.0
-197.0,23.0,-206.0,-5.0,-4.0,-59.0,-771.0,90.0,-686.0
-198.0,17.0,-206.0,-8.0,-5.0,-53.0,-771.0,89.0,-690.0
-191.0,22.0,-198.0,-14.0,-4.0,-49.0,-768.0,94.0,-691.0
-196.0,21.0,-204.0,-18.0,-4.0,-43.0,-772.0,92.0,-693.0
-196.0,21.0,-206.0,-22.0,-5.0,-38.0,-775.0,85.0,-684.0
-196.0,22.0,-205.0,-29.0,-4.0,-35.0,-777.0,90.0,-692.0
-198.0,20.0,-206.0,-33.0,-4.0,-30.0,-772.0,84.0,-689.0
-196.0,24.0,-206.0,-36.0,-6.0,-23.0,-773.0,86.0,-684.0
-197.0,20.0,-202.0,-39.0,-8.0,-18.0,-772.0,91.0,-688.0
-196.0,21.0,-206.0,-41.0,-10.0,-14.0,-771.0,90.0,-691.0
-198.0,22.0,-204.0,-44.0,-12.0,-9.0,-778.0,91.0,-690.0
-199.0,21.0,-202.0,-47.0,-16.0,-4.0,-772.0,90.0,-692.0
-195.0,21.0,-206.0,-51.0,-19.0,-1.0,-774.0,88.0,-681.0
-194.0,23.0,-203.0,-52.0,-19.0,2.0,-773.0,93.0,-684.0
-196.0,19.0,-200.0,-56.0,-16.0,5.0,-776.0,87.0,-685.0
-196.0,19.0,-205.0,-56.0,-14.0,7.0,-776.0,94.0,-677.0
-196.0,19.0,-201.0,-60.0,-9.0,10.0,-772.0,92.0,-679.0
-197.0,21.0,-201.0,-62.0,-6.0,14.0,-776.0,96.0,-676.0
-197.0,23.0,-202.0,-65.0,-1.0,18.0,-773.0,92.0,-678.0
-197.0,23.0,-197.0,-67.0,3.0,20.0,-772.0,95.0,-667.0
-196.0,23.0,-198.0,-68.0,9.0,22.0,-771.0,93.0,-673.0
-192.0,22.0,-201.0,-71.0,14.0,22.0,-772.0,97.0,-673.0
-194.0,20.0,-200.0,-70.0,18.0,23.0,-767.0,98.0,-675.0
-195.0,23.0,-203.0,-71.0,21.0,24.0,-764.0,98.0,-675.0
-196.0,20.0,-196.0,-74.0,23.0,26.0,-768.0,104.0,-671.0
-195.0,25.0,-203.0,-72.0,26.0,25.0,-771.0,98.0,-672.0
-197.0,25.0,-202.0,-70.0,31.0,26.0,-769.0,97.0,-675.0
-194.0,24.0,-201.0,-68.0,33.0,24.0,-767.0,99.0,-677.0
-195.0,24.0,-203.0,-68.0,35.0,23.0,-767.0,100.0,-676.0
-194.0,22.0,-203.0,-67.0,40.0,22.0,-766.0,105.0,-678.0
-191.0,23.0,-205.0,-66.0,40.0,21.0,-765.0,103.0,-676.0
-192.0,25.0,-204.0,-68.0,42.0,20.0,-760.0,100.0,-676.0
-195.0,24.0,-204.0,-67.0,43.0,18.0,-759.0,107.0,-679.0
-196.0,26.0,-201.0,-65.0,41.0,15.0,-765.0,103.0,-675.0
-196.0,29.0,-198.0,-64.0,40.0,13.0,-756.0,108.0,-678.0
-189.0,23.0,-196.0,-61.0,40.0,12.0,-764.0,107.0,-676.0
-192.0,23.0,-200.0,-60.0,39.0,9.0,-760.0,107.0,-678.0
-194.0,23.0,-204.0,-60.0,38.0,8.0,-762.0,105.0,-674.0
-193.0,25.0,-205.0,-59.0,38.0,6.0,-762.0,111.0,-676.0
-192.0,24.0,-202.0,-58.0,37.0,4.0,-762.0,113.0,-684.0
-193.0,25.0,-202.0,-55.0,36.0,0.0,-759.0,103.0,-680.0
-193.0,24.0,-202.0,-51.0,36.0,-2.0,-763.0,106.0,-683.0
-194.0,27.0,-201.0,-49.0,33.0,-3.0,-760.0,105.0,-678.0
-194.0,26.0,-200.0,-45.0,31.0,-4.0,-758.0,108.0,-682.0
-193.0,25.0,-202.0,-44.0,30.0,-7.0,-763.0,107.0,-684.0
-192.0,23.0,-204.0,-43.0,27.0,-9.0,-761.0,108.0,-683.0
-192.0,24.0,-205.0,-41.0,26.0,-10.0,-768.0,102.0,-680.0
-196.0,25.0,-206.0,-39.0,25.0,-11.0,-764.0,107.0,-679.0
-193.0,24.0,-203.0,-35.0,24.0,-14.0,-764.0,102.0,-684.0
-193.0,22.0,-206.0,-35.0,26.0,-14.0,-765.0,102.0,-681.0
-196.0,25.0,-201.0,-34.0,26.0,-14.0,-765.0,101.0,-684.0
-193.0,24.0,-202.0,-36.0,26.0,-16.0,-766.0,99.0,-680.0
-194.0,22.0,-202.0,-35.0,27.0,-15.0,-759.0,100.0,-679.0
-197.0,24.0,-204.0,-37.0,29.0,-15.0,-760.0,102.0,-677.0
-194.0,23.0,-204.0,-38.0,30.0,-15.0,-761.0,103.0,-675.0
-193.0,24.0,-205.0,-37.0,30.0,-15.0,-764.0,101.0,-677.0
-192.0,24.0,-204.0,-37.0,30.0,-16.0,-764.0,103.0,-682.0
-195.0,23.0,-200.0,-35.0,31.0,-16.0,-765.0,107.0,-685.0
-199.0,25.0,-203.0,-34.0,31.0,-17.0,-767.0,99.0,-682.0
-195.0,24.0,-206.0,-34.0,30.0,-16.0,-763.0,102.0,-682.0
-196.0,22.0,-205.0,-33.0,30.0,-16.0,-768.0,102.0,-685.0
-195.0,26.0,-204.0,-34.0,29.0,-15.0,-768.0,93.0,-681.0
-195.0,26.0,-206.0,-36.0,29.0,-15.0,-765.0,100.0,-683.0
-195.0,23.0,-206.0,-37.0,28.0,-13.0,-766.0,100.0,-681.0
-193.0,22.0,-204.0,-38.0,26.0,-12.0,-766.0,99.0,-683.0
-194.0,20.0,-209.0,-40.0,25.0,-11.0,-764.0,102.0,-687.0
-194.0,25.0,-201.0,-42.0,24.0,-10.0,-764.0,103.0,-683.0
-194.0,23.0,-203.0,-42.0,24.0,-10.0,-765.0,100.0,-685.0
-194.0,29.0,-211.0,-41.0,23.0,-8.0,-764.0,99.0,-683.0
-195.0,24.0,-204.0,-41.0,22.0,-9.0,-764.0,98.0,-685.0
-193.0,23.0,-201.0,-41.0,21.0,-9.0,-764.0,100.0,-684.0
-195.0,25.0,-203.0,-41.0,18.0,-9.0,-766.0,96.0,-688.0
-195.0,25.0,-205.0,-42.0,18.0,-8.0,-766.0,101.0,-685.0
-195.0,24.0,-207.0,-44.0,18.0,-6.0,-763.0,104.0,-681.0
-198.0,25.0,-201.0,-44.0,16.0,-4.0,-764.0,98.0,-681.0
-193.0,25.0,-204.0,-46.0,16.0,-4.0,-764.0,94.0,-685.0
-195.0,24.0,-202.0,-46.0,16.0,-3.0,-764.0,98.0,-678.0
-196.0,21.0,-208.0,-48.0,17.0,-3.0,-763.0,98.0,-681.0
-189.0,25.0,-196.0,-50.0,17.0,-4.0,-761.0,100.0,-675.0
-193.0,25.0,-202.0,-49.0,19.0,-3.0,-763.0,97.0,-674.0
-193.0,22.0,-205.0,-49.0,22.0,-1.0,-765.0,98.0,-679.0
-195.0,20.0,-201.0,-47.0,25.0,-1.0,-761.0,100.0,-684.0
-193.0,24.0,-202.0,-48.0,26.0,-1.0,-765.0,100.0,-681.0
-194.0,23.0,-202.0,-47.0,26.0,-2.0,-763.0,101.0,-683.0
-193.0,23.0,-204.0,-47.0,28.0,-1.0,-763.0,98.0,-679.0
-192.0,20.0,-202.0,-47.0,27.0,-2.0,-761.0,103.0,-681.0
-194.0,22.0,-202.0,-48.0,27.0,-1.0,-763.0,101.0,-682.0
-192.0,19.0,-207.0,-50.0,27.0,0.0,-760.0,97.0,-685.0
-195.0,26.0,-203.0,-50.0,26.0,1.0,-765.0,98.0,-683.0
-196.0,23.0,-206.0,-50.0,25.0,1.0,-763.0,101.0,-681.0
-196.0,22.0,-203.0,-54.0,23.0,3.0,-763.0,97.0,-686.0
-193.0,27.0,-205.0,-53.0,21.0,5.0,-761.0,104.0,-686.0
-191.0,24.0,-204.0,-52.0,20.0,4.0,-759.0,100.0,-682.0
-192.0,25.0,-202.0,-52.0,20.0,4.0,-765.0,105.0,-683.0
-195.0,27.0,-202.0,-49.0,19.0,3.0,-762.0,107.0,-680.0
-193.0,26.0,-201.0,-50.0,18.0,2.0,-762.0,111.0,-686.0
-192.0,24.0,-206.0,-52.0,16.0,1.0,-765.0,102.0,-683.0
-197.0,27.0,-207.0,-49.0,15.0,0.0,-766.0,109.0,-679.0
-194.0,26.0,-202.0,-48.0,18.0,-1.0,-767.0,102.0,-682.0
-191.0,21.0,-212.0,-47.0,21.0,-2.0,-764.0,105.0,-679.0
-196.0,22.0,-207.0,-45.0,22.0,-3.0,-762.0,101.0,-682.0
-191.0,22.0,-201.0,-45.0,24.0,-4.0,-762.0,101.0,-681.0
-194.0,23.0,-199.0,-45.0,26.0,-3.0,-762.0,98.0,-682.0
-191.0,23.0,-204.0,-43.0,29.0,-3.0,-766.0,103.0,-681.0
-192.0,24.0,-206.0,-42.0,30.0,-3.0,-762.0,103.0,-685.0
-195.0,27.0,-200.0,-41.0,30.0,-4.0,-759.0,104.0,-679.0
-195.0,20.0,-203.0,-43.0,29.0,-4.0,-761.0,103.0,-679.0
-193.0,22.0,-198.0,-42.0,26.0,-4.0,-758.0,100.0,-679.0
-188.0,22.0,-203.0,-44.0,23.0,-3.0,-761.0,99.0,-677.0
-193.0,22.0,-200.0,-46.0,21.0,-2.0,-760.0,103.0,-679.0
-188.0,24.0,-201.0,-44.0,22.0,-3.0,-764.0,98.0,-678.0
-194.0,34.0,-209.0,-46.0,25.0,-4.0,-763.0,101.0,-681.0
-193.0,23.0,-204.0,-46.0,29.0,-6.0,-765.0,105.0,-680.0
-192.0,24.0,-205.0,-45.0,32.0,-6.0,-761.0,99.0,-684.0
-192.0,24.0,-204.0,-45.0,34.0,-6.0,-760.0,99.0,-680.0
-198.0,23.0,-203.0,-46.0,36.0,-6.0,-762.0,101.0,-679.0
-194.0,25.0,-203.0,-45.0,36.0,-5.0,-760.0,105.0,-682.0
-195.0,23.0,-201.0,-45.0,36.0,-7.0,-759.0,103.0,-681.0
-195.0,26.0,-202.0,-46.0,34.0,-7.0,-760.0,103.0,-680.0
-195.0,27.0,-205.0,-44.0,33.0,-7.0,-762.0,100.0,-683.0
-192.0,19.0,-203.0,-45.0,31.0,-6.0,-763.0,103.0,-692.0
-194.0,29.0,-202.0,-42.0,29.0,-6.0,-760.0,104.0,-690.0
-195.0,22.0,-200.0,-44.0,27.0,-8.0,-765.0,104.0,-691.0
-194.0,24.0,-206.0,-42.0,25.0,-8.0,-763.0,98.0,-693.0
-195.0,25.0,-207.0,-40.0,24.0,-8.0,-766.0,96.0,-686.0
-194.0,23.0,-202.0,-41.0,23.0,-8.0,-763.0,99.0,-686.0
-192.0,25.0,-208.0,-42.0,21.0,-7.0,-764.0,99.0,-684.0
-197.0,24.0,-203.0,-44.0,22.0,-6.0,-764.0,99.0,-687.0
-193.0,25.0,-206.0,-43.0,22.0,-7.0,-760.0,106.0,-682.0
-194.0,28.0,-201.0,-44.0,23.0,-6.0,-765.0,102.0,-691.0
-191.0,23.0,-203.0,-43.0,22.0,-6.0,-763.0,101.0,-679.0
-192.0,26.0,-201.0,-43.0,22.0,-6.0,-764.0,103.0,-680.0
-192.0,24.0,-206.0,-44.0,21.0,-5.0,-761.0,99.0,-685.0
-195.0,20.0,-209.0,-45.0,20.0,-6.0,-761.0,98.0,-686.0
-192.0,21.0,-205.0,-46.0,19.0,-4.0,-762.0,101.0,-685.0
-195.0,23.0,-204.0,-45.0,21.0,-4.0,-754.0,100.0,-688.0
-194.0,18.0,-206.0,-43.0,22.0,-4.0,-761.0,108.0,-680.0
-193.0,25.0,-203.0,-45.0,22.0,-4.0,-759.0,101.0,-686.0
-190.0,21.0,-206.0,-45.0,22.0,-3.0,-762.0,100.0,-683.0
-196.0,24.0,-204.0,-47.0,23.0,-3.0,-759.0,100.0,-679.0
-197.0,25.0,-205.0,-46.0,23.0,-3.0,-763.0,101.0,-685.0
-194.0,20.0,-205.0,-45.0,23.0,-2.0,-759.0,100.0,-685.0
-193.0,22.0,-209.0,-46.0,23.0,-3.0,-762.0,101.0,-684.0
-193.0,25.0,-203.0,-45.0,22.0,-2.0,-757.0,101.0,-684.0
-193.0,34.0,-200.0,-45.0,22.0,-3.0,-762.0,98.0,-683.0
-191.0,23.0,-201.0,-46.0,21.0,-3.0,-763.0,102.0,-682.0
-194.0,24.0,-202.0,-46.0,23.0,-4.0,-760.0,105.0,-686.0
-193.0,24.0,-204.0,-46.0,21.0,-4.0,-764.0,99.0,-682.0
-195.0,25.0,-206.0,-47.0,23.0,-4.0,-763.0,102.0,-682.0
-193.0,25.0,-202.0,-47.0,21.0,-3.0,-761.0,103.0,-683.0
-196.0,26.0,-200.0,-47.0,20.0,-4.0,-764.0,106.0,-684.0
-194.0,23.0,-206.0,-47.0,21.0,-4.0,-760.0,105.0,-693.0
-195.0,26.0,-206.0,-44.0,21.0,-6.0,-763.0,107.0,-681.0
-191.0,24.0,-205.0,-42.0,19.0,-6.0,-763.0,102.0,-687.0
-196.0,25.0,-205.0,-44.0,18.0,-7.0,-763.0,100.0,-694.0
-191.0,26.0,-209.0,-42.0,16.0,-7.0,-759.0,102.0,-690.0
-194.0,26.0,-208.0,-41.0,14.0,-6.0,-763.0,103.0,-685.0
-192.0,25.0,-207.0,-42.0,12.0,-6.0,-763.0,103.0,-689.0
-192.0,23.0,-204.0,-41.0,10.0,-6.0,-765.0,100.0,-692.0
-195.0,23.0,-205.0,-38.0,8.0,-6.0,-764.0,108.0,-688.0
-192.0,24.0,-201.0,-39.0,9.0,-9.0,-762.0,101.0,-681.0
-194.0,23.0,-203.0,-40.0,11.0,-9.0,-767.0,104.0,-684.0
-196.0,23.0,-207.0,-38.0,13.0,-9.0,-764.0,100.0,-683.0
-196.0,26.0,-200.0,-39.0,15.0,-10.0,-764.0,98.0,-683.0
-192.0,27.0,-201.0,-40.0,14.0,-10.0,-763.0,99.0,-684.0
-194.0,23.0,-201.0,-40.0,13.0,-9.0,-758.0,97.0,-679.0
-197.0,21.0,-210.0,-42.0,13.0,-8.0,-761.0,102.0,-680.0
-191.0,23.0,-206.0,-44.0,12.0,-7.0,-763.0,98.0,-680.0
-193.0,22.0,-201.0,-42.0,14.0,-6.0,-760.0,103.0,-678.0
-196.0,25.0,-204.0,-42.0,15.0,-7.0,-766.0,103.0,-685.0
-193.0,21.0,-205.0,-41.0,15.0,-8.0,-762.0,100.0,-683.0
-192.0,24.0,-204.0,-40.0,16.0,-8.0,-766.0,105.0,-682.0
-191.0,21.0,-207.0,-39.0,16.0,-8.0,-763.0,100.0,-687.0
-199.0,23.0,-203.0,-39.0,16.0,-9.0,-767.0,105.0,-690.0
-191.0,22.0,-204.0,-40.0,16.0,-9.0,-761.0,101.0,-683.0
-195.0,25.0,-206.0,-41.0,15.0,-7.0,-760.0,99.0,-689.0
-201.0,30.0,-201.0,-40.0,14.0,-6.0,-761.0,99.0,-692.0
-194.0,23.0,-204.0,-41.0,12.0,-6.0,-765.0,99.0,-691.0
-195.0,25.0,-207.0,-42.0,10.0,-5.0,-759.0,107.0,-690.0
-192.0,24.0,-201.0,-42.0,10.0,-6.0,-759.0,105.0,-689.0
-194.0,20.0,-207.0,-41.0,7.0,-7.0,-764.0,103.0,-689.0
-195.0,23.0,-206.0,-38.0,6.0,-7.0,-763.0,104.0,-689.0
-193.0,23.0,-205.0,-38.0,7.0,-8.0,-762.0,106.0,-687.0
-193.0,25.0,-207.0,-36.0,5.0,-9.0,-766.0,101.0,-695.0
-196.0,24.0,-201.0,-35.0,4.0,-8.0,-766.0,99.0,-688.0
-195.0,25.0,-207.0,-36.0,2.0,-9.0,-763.0,98.0,-693.0
-192.0,25.0,-207.0,-36.0,0.0,-7.0,-764.0,99.0,-684.0
-194.0,22.0,-208.0,-36.0,-2.0,-7.0,-766.0,101.0,-693.0
-193.0,23.0,-206.0,-37.0,-4.0,-7.0,-762.0,102.0,-700.0
-195.0,24.0,-205.0,-35.0,-6.0,-7.0,-760.0,100.0,-699.0
-197.0,26.0,-211.0,-35.0,-8.0,-5.0,-762.0,101.0,-700.0
-192.0,23.0,-210.0,-37.0,-15.0,-6.0,-765.0,103.0,-706.0
-194.0,24.0,-211.0,-39.0,-21.0,-7.0,-767.0,96.0,-710.0
-195.0,20.0,-206.0,-44.0,-35.0,-6.0,-765.0,96.0,-711.0
-193.0,23.0,-209.0,-53.0,-53.0,-4.0,-766.0,98.0,-710.0
-198.0,24.0,-212.0,-60.0,-72.0,2.0,-766.0,96.0,-718.0
-196.0,20.0,-220.0,-72.0,-94.0,8.0,-766.0,90.0,-728.0
-197.0,23.0,-215.0,-84.0,-119.0,17.0,-776.0,90.0,-731.0
-199.0,20.0,-218.0,-94.0,-146.0,25.0,-780.0,96.0,-733.0
-201.0,25.0,-221.0,-100.0,-170.0,32.0,-788.0,98.0,-742.0
-203.0,24.0,-223.0,-101.0,-187.0,38.0,-795.0,105.0,-751.0
-206.0,26.0,-222.0,-98.0,-202.0,45.0,-801.0,101.0,-767.0
-204.0,24.0,-230.0,-94.0,-225.0,49.0,-803.0,109.0,-782.0
-206.0,25.0,-228.0,-90.0,-257.0,50.0,-807.0,109.0,-779.0
-209.0,27.0,-225.0,-82.0,-295.0,49.0,-812.0,117.0,-764.0
-211.0,26.0,-218.0,-71.0,-326.0,45.0,-823.0,111.0,-749.0
-207.0,21.0,-213.0,-48.0,-347.0,42.0,-816.0,108.0,-744.0
-203.0,21.0,-216.0,-18.0,-363.0,38.0,-809.0,101.0,-727.0
-201.0,20.0,-215.0,13.0,-378.0,31.0,-804.0,99.0,-709.0
-206.0,24.0,-207.0,47.0,-396.0,18.0,-799.0,92.0,-683.0
-204.0,22.0,-203.0,80.0,-411.0,7.0,-800.0,99.0,-670.0
-206.0,25.0,-196.0,106.0,-408.0,-3.0,-797.0,104.0,-649.0
-199.0,22.0,-191.0,125.0,-382.0,-9.0,-785.0,87.0,-634.0
-198.0,23.0,-190.0,143.0,-346.0,-15.0,-790.0,103.0,-621.0
-190.0,21.0,-192.0,153.0,-313.0,-22.0,-759.0,94.0,-632.0
-197.0,23.0,-192.0,160.0,-290.0,-34.0,-779.0,97.0,-624.0
-194.0,20.0,-187.0,161.0,-276.0,-33.0,-774.0,99.0,-623.0
-193.0,19.0,-185.0,161.0,-260.0,-32.0,-762.0,86.0,-617.0
-191.0,13.0,-183.0,197.0,-231.0,-45.0,-760.0,44.0,-611.0
-196.0,20.0,-187.0,215.0,-207.0,-57.0,-783.0,91.0,-624.0
-194.0,25.0,-184.0,200.0,-194.0,-54.0,-758.0,90.0,-621.0
-192.0,21.0,-182.0,167.0,-184.0,-56.0,-761.0,85.0,-603.0
-195.0,26.0,-175.0,131.0,-180.0,-68.0,-766.0,105.0,-576.0
-205.0,33.0,-180.0,114.0,-178.0,-65.0,-790.0,135.0,-577.0
-198.0,34.0,-180.0,102.0,-163.0,-53.0,-774.0,129.0,-584.0
-197.0,31.0,-180.0,93.0,-138.0,-52.0,-770.0,119.0,-584.0
-193.0,25.0,-179.0,78.0,-113.0,-53.0,-763.0,106.0,-577.0
-191.0,22.0,-174.0,65.0,-92.0,-57.0,-768.0,93.0,-564.0
-195.0,18.0,-178.0,65.0,-73.0,-59.0,-774.0,87.0,-569.0
-197.0,20.0,-179.0,64.0,-57.0,-61.0,-779.0,92.0,-575.0
-197.0,19.0,-182.0,56.0,-41.0,-59.0,-774.0,83.0,-590.0
-196.0,20.0,-182.0,36.0,-26.0,-57.0,-782.0,84.0,-593.0
-200.0,19.0,-185.0,20.0,-8.0,-55.0,-787.0,82.0,-603.0
-202.0,18.0,-189.0,7.0,9.0,-53.0,-783.0,74.0,-613.0
-202.0,13.0,-190.0,1.0,24.0,-53.0,-786.0,74.0,-616.0
-200.0,14.0,-189.0,5.0,34.0,-50.0,-792.0,71.0,-621.0
-207.0,16.0,-187.0,19.0,42.0,-50.0,-798.0,66.0,-625.0
-204.0,17.0,-196.0,30.0,45.0,-44.0,-803.0,74.0,-636.0
-204.0,18.0,-194.0,34.0,45.0,-41.0,-802.0,80.0,-647.0
-207.0,19.0,-193.0,32.0,43.0,-37.0,-804.0,76.0,-641.0
-202.0,18.0,-194.0,27.0,40.0,-33.0,-804.0,74.0,-647.0
-202.0,17.0,-190.0,21.0,41.0,-33.0,-787.0,74.0,-645.0
-209.0,17.0,-196.0,16.0,39.0,-39.0,-815.0,85.0,-631.0
-204.0,19.0,-195.0,22.0,42.0,-35.0,-805.0,80.0,-635.0
-201.0,13.0,-193.0,23.0,47.0,-35.0,-788.0,64.0,-643.0
-206.0,13.0,-194.0,13.0,50.0,-48.0,-803.0,63.0,-637.0
-207.0,21.0,-190.0,7.0,55.0,-41.0,-817.0,91.0,-620.0
-203.0,25.0,-193.0,11.0,59.0,-16.0,-789.0,106.0,-634.0
-201.0,21.0,-190.0,8.0,58.0,-5.0,-786.0,97.0,-639.0
-201.0,17.0,-192.0,3.0,52.0,1.0,-785.0,81.0,-639.0
-202.0,18.0,-199.0,-2.0,51.0,5.0,-792.0,84.0,-649.0
-206.0,19.0,-197.0,-10.0,47.0,7.0,-788.0,85.0,-640.0
-200.0,16.0,-192.0,-13.0,44.0,8.0,-789.0,79.0,-633.0
-201.0,14.0,-191.0,-11.0,45.0,8.0,-790.0,76.0,-637.0
-203.0,17.0,-197.0,-5.0,50.0,7.0,-792.0,72.0,-643.0
-203.0,16.0,-191.0,3.0,58.0,8.0,-793.0,74.0,-638.0
-205.0,17.0,-192.0,9.0,65.0,6.0,-795.0,81.0,-645.0
-201.0,19.0,-190.0,10.0,68.0,6.0,-785.0,80.0,-647.0
-201.0,17.0,-196.0,2.0,69.0,4.0,-793.0,78.0,-647.0
-198.0,19.0,-193.0,-3.0,67.0,6.0,-779.0,76.0,-645.0
-199.0,17.0,-194.0,-13.0,65.0,9.0,-771.0,85.0,-647.0
-195.0,17.0,-193.0,-31.0,60.0,8.0,-770.0,77.0,-648.0
-190.0,18.0,-197.0,-50.0,52.0,6.0,-720.0,58.0,-660.0
-206.0,19.0,-184.0,-67.0,48.0,0.0,-805.0,87.0,-611.0
-199.0,19.0,-190.0,-73.0,42.0,12.0,-782.0,81.0,-619.0
-199.0,15.0,-192.0,-74.0,42.0,15.0,-780.0,77.0,-620.0
-200.0,16.0,-190.0,-76.0,36.0,16.0,-781.0,81.0,-633.0
-202.0,17.0,-198.0,-74.0,32.0,17.0,-789.0,82.0,-650.0
-204.0,22.0,-197.0,-67.0,27.0,16.0,-796.0,86.0,-659.0
-204.0,19.0,-201.0,-61.0,21.0,13.0,-801.0,85.0,-675.0
-204.0,20.0,-198.0,-55.0,17.0,9.0,-803.0,84.0,-677.0
-209.0,19.0,-199.0,-47.0,14.0,4.0,-807.0,86.0,-672.0
-207.0,22.0,-198.0,-44.0,14.0,-2.0,-809.0,81.0,-668.0
-204.0,18.0,-196.0,-42.0,16.0,-7.0,-802.0,78.0,-661.0
-202.0,17.0,-196.0,-39.0,25.0,-12.0,-799.0,74.0,-651.0
-201.0,18.0,-196.0,-38.0,31.0,-12.0,-797.0,80.0,-646.0
-199.0,19.0,-194.0,-38.0,37.0,-14.0,-785.0,82.0,-639.0
-201.0,17.0,-189.0,-43.0,44.0,-17.0,-777.0,79.0,-622.0
-193.0,16.0,-191.0,-46.0,50.0,-18.0,-764.0,82.0,-630.0
-197.0,20.0,-188.0,-62.0,50.0,-23.0,-769.0,86.0,-630.0
-193.0,19.0,-188.0,-74.0,51.0,-28.0,-767.0,82.0,-620.0
-201.0,17.0,-188.0,-97.0,54.0,-38.0,-782.0,91.0,-613.0
-203.0,21.0,-184.0,-114.0,54.0,-40.0,-788.0,83.0,-607.0
-202.0,15.0,-184.0,-107.0,65.0,-34.0,-786.0,75.0,-603.0
-199.0,16.0,-192.0,-97.0,73.0,-25.0,-785.0,73.0,-625.0
-208.0,19.0,-190.0,-90.0,74.0,-16.0,-784.0,81.0,-642.0
-198.0,18.0,-196.0,-84.0,72.0,-11.0,-788.0,85.0,-656.0
-201.0,18.0,-200.0,-77.0,68.0,-10.0,-791.0,89.0,-664.0
-203.0,18.0,-198.0,-71.0,65.0,-13.0,-796.0,86.0,-664.0
-206.0,22.0,-196.0,-63.0,62.0,-17.0,-801.0,87.0,-671.0
-204.0,17.0,-205.0,-57.0,56.0,-21.0,-800.0,84.0,-671.0
-205.0,17.0,-204.0,-56.0,50.0,-24.0,-794.0,84.0,-676.0
-206.0,19.0,-200.0,-55.0,42.0,-25.0,-809.0,78.0,-675.0
-204.0,16.0,-204.0,-56.0,34.0,-25.0,-804.0,77.0,-672.0
-204.0,19.0,-196.0,-60.0,29.0,-24.0,-801.0,80.0,-672.0
-206.0,15.0,-201.0,-62.0,27.0,-27.0,-797.0,73.0,-666.0
-210.0,15.0,-199.0,-62.0,22.0,-23.0,-801.0,70.0,-667.0
-201.0,17.0,-202.0,-60.0,18.0,-19.0,-797.0,76.0,-663.0
-196.0,19.0,-204.0,-61.0,11.0,-20.0,-757.0,70.0,-683.0
-207.0,19.0,-192.0,-73.0,-1.0,-21.0,-816.0,80.0,-647.0
-205.0,17.0,-196.0,-63.0,0.0,-16.0,-807.0,83.0,-646.0
-203.0,18.0,-197.0,-53.0,2.0,-13.0,-793.0,80.0,-650.0
-204.0,21.0,-192.0,-48.0,4.0,-13.0,-795.0,86.0,-646.0
-203.0,19.0,-197.0,-48.0,7.0,-17.0,-795.0,85.0,-643.0
-199.0,13.0,-195.0,-47.0,6.0,-18.0,-796.0,75.0,-646.0
-199.0,18.0,-191.0,-48.0,5.0,-18.0,-787.0,81.0,-648.0
-203.0,20.0,-198.0,-47.0,8.0,-19.0,-784.0,82.0,-641.0
-200.0,17.0,-197.0,-48.0,8.0,-16.0,-786.0,77.0,-645.0
-199.0,14.0,-193.0,-47.0,8.0,-13.0,-790.0,77.0,-649.0
-199.0,17.0,-195.0,-48.0,7.0,-12.0,-790.0,75.0,-647.0
-200.0,16.0,-195.0,-51.0,8.0,-11.0,-788.0,72.0,-647.0
-200.0,18.0,-194.0,-53.0,9.0,-11.0,-791.0,80.0,-645.0
-202.0,17.0,-198.0,-53.0,11.0,-10.0,-792.0,84.0,-646.0
-203.0,15.0,-192.0,-52.0,13.0,-10.0,-791.0,77.0,-648.0
-199.0,16.0,-194.0,-51.0,15.0,-8.0,-792.0,80.0,-652.0
-201.0,18.0,-192.0,-51.0,16.0,-8.0,-795.0,78.0,-647.0
-204.0,14.0,-193.0,-49.0,15.0,-7.0,-793.0,79.0,-642.0
-203.0,16.0,-192.0,-47.0,14.0,-6.0,-793.0,75.0,-654.0
-202.0,15.0,-198.0,-46.0,13.0,-4.0,-791.0,77.0,-651.0
-201.0,16.0,-196.0,-45.0,12.0,-2.0,-789.0,75.0,-653.0
-204.0,15.0,-195.0,-46.0,9.0,-2.0,-790.0,76.0,-656.0
-200.0,17.0,-197.0,-47.0,8.0,-2.0,-792.0,82.0,-657.0
-201.0,18.0,-196.0,-45.0,8.0,-4.0,-793.0,79.0,-652.0
-199.0,17.0,-193.0,-44.0,5.0,-3.0,-791.0,81.0,-651.0
-203.0,16.0,-197.0,-45.0,5.0,-4.0,-790.0,83.0,-648.0
-203.0,16.0,-198.0,-45.0,4.0,-3.0,-790.0,82.0,-649.0
-205.0,16.0,-196.0,-44.0,6.0,-3.0,-787.0,83.0,-646.0
-198.0,16.0,-193.0,-45.0,9.0,-2.0,-791.0,75.0,-646.0
-202.0,18.0,-196.0,-46.0,12.0,-2.0,-789.0,76.0,-647.0
-200.0,22.0,-196.0,-46.0,14.0,-1.0,-788.0,79.0,-647.0
-201.0,18.0,-198.0,-46.0,15.0,3.0,-789.0,81.0,-655.0
-202.0,18.0,-197.0,-46.0,13.0,2.0,-791.0,80.0,-659.0
-204.0,19.0,-199.0,-48.0,15.0,0.0,-795.0,84.0,-657.0
-201.0,17.0,-195.0,-45.0,17.0,0.0,-785.0,79.0,-655.0
-202.0,18.0,-198.0,-39.0,15.0,1.0,-793.0,84.0,-658.0
-204.0,19.0,-199.0,-34.0,13.0,3.0,-801.0,83.0,-666.0
-205.0,21.0,-196.0,-30.0,13.0,-1.0,-795.0,85.0,-657.0
-202.0,20.0,-195.0,-29.0,10.0,-4.0,-790.0,78.0,-658.0
-201.0,15.0,-201.0,-28.0,3.0,-4.0,-789.0,80.0,-657.0
-197.0,19.0,-199.0,-30.0,-5.0,-5.0,-789.0,75.0,-656.0
-201.0,15.0,-195.0,-31.0,-11.0,-3.0,-799.0,73.0,-650.0
-203.0,17.0,-197.0,-32.0,-15.0,0.0,-789.0,76.0,-645.0
-199.0,15.0,-193.0,-31.0,-13.0,1.0,-799.0,75.0,-644.0
-202.0,17.0,-194.0,-30.0,-11.0,3.0,-791.0,80.0,-648.0
-203.0,17.0,-192.0,-28.0,-8.0,2.0,-794.0,79.0,-646.0
-201.0,19.0,-194.0,-27.0,-5.0,2.0,-795.0,78.0,-648.0
-204.0,18.0,-194.0,-25.0,-2.0,3.0,-793.0,81.0,-652.0
-198.0,20.0,-193.0,-26.0,2.0,1.0,-789.0,77.0,-655.0
-200.0,15.0,-195.0,-28.0,2.0,2.0,-793.0,78.0,-655.0
-202.0,18.0,-194.0,-26.0,5.0,7.0,-795.0,74.0,-650.0
-201.0,15.0,-197.0,-28.0,8.0,8.0,-785.0,83.0,-648.0
-198.0,25.0,-191.0,-42.0,5.0,3.0,-786.0,84.0,-644.0
-206.0,20.0,-203.0,-54.0,-4.0,1.0,-803.0,82.0,-619.0
-202.0,16.0,-191.0,-45.0,-5.0,2.0,-792.0,83.0,-635.0
-201.0,18.0,-190.0,-39.0,-2.0,4.0,-793.0,79.0,-643.0
-201.0,19.0,-193.0,-38.0,-2.0,3.0,-793.0,83.0,-644.0
-206.0,20.0,-198.0,-37.0,-3.0,1.0,-789.0,82.0,-642.0
-204.0,14.0,-193.0,-37.0,-3.0,1.0,-795.0,75.0,-651.0
-203.0,19.0,-195.0,-37.0,-5.0,1.0,-796.0,80.0,-648.0
-201.0,17.0,-191.0,-38.0,-7.0,1.0,-799.0,79.0,-651.0
-204.0,17.0,-196.0,-38.0,-6.0,2.0,-793.0,82.0,-647.0
-202.0,19.0,-192.0,-40.0,-8.0,1.0,-793.0,80.0,-645.0
-202.0,18.0,-189.0,-41.0,-8.0,1.0,-797.0,80.0,-646.0
-203.0,16.0,-192.0,-41.0,-7.0,1.0,-797.0,79.0,-636.0
-203.0,17.0,-193.0,-39.0,-4.0,0.0,-796.0,78.0,-641.0
-206.0,17.0,-194.0,-41.0,-4.0,0.0,-799.0,84.0,-639.0
-205.0,18.0,-194.0,-40.0,0.0,0.0,-792.0,76.0,-638.0
-203.0,17.0,-199.0,-41.0,4.0,-1.0,-791.0,82.0,-645.0
-202.0,16.0,-190.0,-41.0,6.0,-2.0,-795.0,78.0,-643.0
-205.0,17.0,-189.0,-40.0,10.0,-3.0,-791.0,83.0,-644.0
-202.0,17.0,-191.0,-38.0,12.0,-4.0,-788.0,80.0,-644.0
-203.0,18.0,-194.0,-41.0,15.0,-8.0,-801.0,87.0,-645.0
-202.0,19.0,-193.0,-39.0,18.0,-8.0,-790.0,77.0,-642.0
-203.0,20.0,-196.0,-38.0,16.0,-8.0,-795.0,80.0,-641.0
-206.0,20.0,-192.0,-36.0,17.0,-7.0,-797.0,82.0,-643.0
-205.0,21.0,-192.0,-36.0,18.0,-7.0,-797.0,79.0,-644.0
-202.0,17.0,-195.0,-36.0,20.0,-8.0,-799.0,77.0,-646.0
-201.0,18.0,-193.0,-42.0,21.0,-10.0,-788.0,85.0,-646.0
-203.0,17.0,-193.0,-43.0,26.0,-12.0,-788.0,69.0,-635.0
-200.0,17.0,-196.0,-39.0,24.0,-13.0,-791.0,75.0,-640.0
-201.0,15.0,-196.0,-38.0,24.0,-11.0,-787.0,73.0,-648.0
-202.0,18.0,-191.0,-40.0,26.0,-10.0,-790.0,77.0,-645.0
-203.0,20.0,-199.0,-40.0,28.0,-11.0,-796.0,82.0,-642.0
-201.0,18.0,-194.0,-42.0,31.0,-10.0,-794.0,79.0,-649.0
-203.0,15.0,-194.0,-42.0,32.0,-14.0,-793.0,81.0,-649.0
-201.0,17.0,-193.0,-42.0,33.0,-15.0,-788.0,81.0,-645.0
-200.0,17.0,-194.0,-45.0,36.0,-14.0,-790.0,76.0,-648.0
-203.0,17.0,-190.0,-49.0,37.0,-13.0,-788.0,78.0,-651.0
-201.0,15.0,-195.0,-49.0,36.0,-14.0,-795.0,76.0,-646.0
-203.0,14.0,-195.0,-48.0,32.0,-14.0,-799.0,77.0,-647.0
-204.0,20.0,-194.0,-44.0,30.0,-13.0,-798.0,76.0,-651.0
-203.0,16.0,-198.0,-43.0,28.0,-13.0,-801.0,79.0,-652.0
-203.0,18.0,-195.0,-42.0,25.0,-11.0,-794.0,74.0,-650.0
-205.0,16.0,-199.0,-40.0,24.0,-11.0,-798.0,80.0,-651.0
-200.0,17.0,-195.0,-42.0,23.0,-9.0,-796.0,74.0,-646.0
-204.0,17.0,-195.0,-43.0,21.0,-8.0,-797.0,77.0,-648.0
-202.0,16.0,-196.0,-43.0,21.0,-8.0,-790.0,78.0,-647.0
-204.0,17.0,-194.0,-45.0,21.0,-7.0,-795.0,78.0,-644.0
-199.0,18.0,-197.0,-44.0,22.0,-6.0,-791.0,77.0,-647.0
-202.0,18.0,-195.0,-46.0,23.0,-6.0,-791.0,75.0,-645.0
-205.0,16.0,-196.0,-47.0,23.0,-6.0,-793.0,78.0,-648.0
-204.0,18.0,-194.0,-46.0,25.0,-5.0,-793.0,79.0,-652.0
-200.0,19.0,-197.0,-47.0,25.0,-5.0,-787.0,77.0,-647.0
-200.0,16.0,-197.0,-49.0,23.0,-2.0,-790.0,78.0,-650.0
-201.0,15.0,-196.0,-49.0,25.0,-2.0,-793.0,73.0,-648.0
-204.0,17.0,-201.0,-46.0,25.0,-3.0,-791.0,72.0,-636.0
-203.0,19.0,-204.0,-43.0,24.0,-4.0,-793.0,76.0,-653.0
-202.0,19.0,-196.0,-45.0,25.0,-3.0,-788.0,82.0,-648.0
-200.0,14.0,-196.0,-47.0,25.0,-2.0,-790.0,75.0,-647.0
-203.0,18.0,-194.0,-49.0,21.0,-2.0,-793.0,79.0,-645.0
-201.0,13.0,-195.0,-50.0,22.0,0.0,-787.0,73.0,-655.0
-202.0,14.0,-194.0,-51.0,22.0,2.0,-795.0,75.0,-649.0
-202.0,17.0,-196.0,-52.0,19.0,3.0,-799.0,75.0,-647.0
-207.0,14.0,-196.0,-50.0,18.0,2.0,-804.0,74.0,-652.0
-204.0,18.0,-196.0,-50.0,15.0,1.0,-791.0,77.0,-650.0
-202.0,18.0,-198.0,-51.0,16.0,2.0,-789.0,75.0,-653.0
-204.0,19.0,-194.0,-50.0,14.0,3.0,-798.0,82.0,-647.0
-201.0,15.0,-197.0,-52.0,13.0,5.0,-794.0,79.0,-658.0
-203.0,19.0,-198.0,-51.0,13.0,4.0,-792.0,80.0,-653.0
-203.0,18.0,-193.0,-53.0,12.0,4.0,-790.0,80.0,-652.0
-201.0,13.0,-194.0,-51.0,12.0,3.0,-792.0,76.0,-653.0
-200.0,15.0,-193.0,-51.0,11.0,2.0,-797.0,78.0,-643.0
-199.0,17.0,-198.0,-50.0,11.0,2.0,-799.0,83.0,-646.0
-203.0,19.0,-191.0,-53.0,13.0,2.0,-793.0,86.0,-644.0
-202.0,18.0,-190.0,-54.0,12.0,2.0,-790.0,79.0,-644.0
-201.0,20.0,-192.0,-54.0,13.0,0.0,-790.0,79.0,-645.0
-200.0,17.0,-196.0,-52.0,13.0,2.0,-793.0,79.0,-643.0
-204.0,17.0,-189.0,-50.0,13.0,-2.0,-788.0,83.0,-639.0
-201.0,19.0,-196.0,-47.0,14.0,-3.0,-791.0,83.0,-647.0
-202.0,19.0,-195.0,-45.0,16.0,-5.0,-799.0,85.0,-649.0
-202.0,17.0,-194.0,-44.0,16.0,-5.0,-792.0,84.0,-647.0
-201.0,17.0,-196.0,-46.0,16.0,-6.0,-792.0,79.0,-645.0
-202.0,16.0,-189.0,-45.0,18.0,-7.0,-793.0,76.0,-643.0
-200.0,20.0,-193.0,-45.0,19.0,-8.0,-792.0,83.0,-645.0
-201.0,15.0,-195.0,-42.0,18.0,-9.0,-793.0,82.0,-644.0
-201.0,18.0,-191.0,-43.0,20.0,-10.0,-795.0,79.0,-645.0
-201.0,17.0,-193.0,-43.0,21.0,-11.0,-799.0,79.0,-646.0
-197.0,17.0,-192.0,-40.0,22.0,-12.0,-792.0,78.0,-648.0
-198.0,13.0,-189.0,-38.0,25.0,-13.0,-797.0,76.0,-646.0
-202.0,17.0,-197.0,-38.0,27.0,-12.0,-799.0,78.0,-645.0
-199.0,15.0,-194.0,-39.0,26.0,-12.0,-792.0,81.0,-650.0
-204.0,18.0,-194.0,-40.0,27.0,-13.0,-790.0,80.0,-651.0
-201.0,19.0,-196.0,-39.0,28.0,-11.0,-795.0,81.0,-653.0
-203.0,18.0,-194.0,-43.0,26.0,-9.0,-793.0,81.0,-649.0
-206.0,18.0,-194.0,-44.0,24.0,-10.0,-792.0,74.0,-646.0
-202.0,18.0,-191.0,-43.0,24.0,-9.0,-790.0,76.0,-643.0
-204.0,18.0,-191.0,-43.0,26.0,-10.0,-795.0,74.0,-643.0
-202.0,18.0,-193.0,-43.0,27.0,-9.0,-792.0,78.0,-644.0
-201.0,18.0,-193.0,-46.0,29.0,-11.0,-793.0,78.0,-644.0
-203.0,14.0,-187.0,-45.0,30.0,-11.0,-796.0,81.0,-659.0
-203.0,15.0,-196.0,-44.0,29.0,-10.0,-792.0,78.0,-648.0
-203.0,17.0,-198.0,-46.0,31.0,-7.0,-792.0,80.0,-647.0
-200.0,14.0,-193.0,-46.0,31.0,-6.0,-791.0,79.0,-648.0
-202.0,18.0,-198.0,-45.0,32.0,-6.0,-787.0,78.0,-646.0
-202.0,15.0,-195.0,-44.0,34.0,-6.0,-793.0,80.0,-651.0
-201.0,14.0,-199.0,-42.0,32.0,-8.0,-793.0,76.0,-654.0
-206.0,18.0,-196.0,-41.0,30.0,-8.0,-797.0,75.0,-659.0
-202.0,17.0,-197.0,-41.0,27.0,-7.0,-797.0,73.0,-658.0
-202.0,20.0,-196.0,-41.0,24.0,-6.0,-796.0,73.0,-647.0
-203.0,17.0,-190.0,-43.0,21.0,-4.0,-791.0,72.0,-647.0
-201.0,14.0,-196.0,-45.0,18.0,-2.0,-790.0,72.0,-651.0
-203.0,17.0,-191.0,-46.0,19.0,-1.0,-790.0,74.0,-655.0
-201.0,17.0,-196.0,-45.0,20.0,1.0,-788.0,77.0,-663.0
-203.0,17.0,-195.0,-45.0,18.0,2.0,-791.0,73.0,-662.0
-206.0,19.0,-194.0,-46.0,17.0,4.0,-791.0,77.0,-654.0
-203.0,15.0,-194.0,-47.0,15.0,6.0,-793.0,79.0,-652.0
-203.0,16.0,-198.0,-50.0,12.0,7.0,-793.0,74.0,-655.0
-201.0,15.0,-196.0,-51.0,8.0,7.0,-792.0,80.0,-657.0
-198.0,15.0,-196.0,-52.0,4.0,8.0,-795.0,77.0,-650.0
-206.0,19.0,-194.0,-52.0,1.0,9.0,-797.0,79.0,-652.0
-201.0,15.0,-196.0,-50.0,-1.0,9.0,-788.0,79.0,-650.0
-202.0,18.0,-198.0,-49.0,-3.0,9.0,-791.0,81.0,-656.0
-203.0,17.0,-197.0,-48.0,-4.0,9.0,-789.0,79.0,-649.0
-199.0,17.0,-198.0,-48.0,-4.0,10.0,-791.0,77.0,-652.0
-200.0,18.0,-198.0,-48.0,-3.0,11.0,-792.0,80.0,-652.0
-201.0,15.0,-194.0,-50.0,-2.0,14.0,-794.0,77.0,-649.0
-200.0,20.0,-196.0,-51.0,-2.0,15.0,-793.0,86.0,-658.0
-203.0,16.0,-199.0,-53.0,-2.0,16.0,-796.0,84.0,-650.0
-203.0,17.0,-196.0,-55.0,-2.0,17.0,-790.0,83.0,-657.0
-200.0,18.0,-198.0,-57.0,-5.0,17.0,-796.0,79.0,-654.0
-204.0,18.0,-197.0,-61.0,-8.0,19.0,-792.0,83.0,-652.0
-207.0,18.0,-199.0,-62.0,-10.0,20.0,-799.0,75.0,-647.0
-208.0,19.0,-194.0,-62.0,-13.0,20.0,-799.0,80.0,-642.0
-203.0,18.0,-192.0,-66.0,-13.0,21.0,-801.0,80.0,-646.0
-202.0,17.0,-195.0,-66.0,-12.0,20.0,-792.0,85.0,-637.0
-200.0,14.0,-190.0,-65.0,-10.0,21.0,-793.0,79.0,-644.0
-203.0,15.0,-194.0,-64.0,-7.0,21.0,-795.0,81.0,-646.0
-206.0,19.0,-195.0,-63.0,-4.0,20.0,-799.0,81.0,-646.0
-201.0,15.0,-190.0,-63.0,0.0,20.0,-795.0,83.0,-645.0
-208.0,17.0,-191.0,-62.0,5.0,19.0,-797.0,83.0,-651.0
-202.0,20.0,-194.0,-62.0,8.0,20.0,-797.0,80.0,-648.0
-202.0,19.0,-198.0,-61.0,9.0,19.0,-799.0,82.0,-648.0
-202.0,21.0,-188.0,-61.0,8.0,19.0,-804.0,83.0,-650.0
-202.0,15.0,-196.0,-60.0,6.0,19.0,-798.0,86.0,-649.0
-204.0,18.0,-196.0,-62.0,3.0,19.0,-795.0,82.0,-653.0
-205.0,17.0,-197.0,-62.0,1.0,20.0,-803.0,82.0,-656.0
-201.0,16.0,-194.0,-64.0,1.0,19.0,-799.0,82.0,-650.0
-203.0,18.0,-190.0,-67.0,-1.0,23.0,-803.0,76.0,-643.0
-204.0,20.0,-196.0,-69.0,1.0,26.0,-799.0,76.0,-645.0
-205.0,19.0,-196.0,-69.0,1.0,31.0,-795.0,81.0,-642.0
-202.0,16.0,-193.0,-72.0,0.0,37.0,-792.0,80.0,-648.0
-204.0,16.0,-195.0,-73.0,-1.0,45.0,-787.0,83.0,-659.0
-205.0,16.0,-197.0,-73.0,-7.0,50.0,-791.0,81.0,-658.0
-199.0,20.0,-198.0,-67.0,-16.0,52.0,-795.0,81.0,-663.0
-203.0,25.0,-194.0,-56.0,-27.0,51.0,-792.0,92.0,-661.0
-201.0,19.0,-198.0,-52.0,-39.0,51.0,-795.0,90.0,-667.0
-202.0,18.0,-193.0,-53.0,-48.0,47.0,-799.0,87.0,-650.0
-202.0,19.0,-194.0,-55.0,-55.0,46.0,-796.0,86.0,-648.0
-204.0,20.0,-192.0,-50.0,-59.0,44.0,-794.0,81.0,-641.0
-204.0,19.0,-189.0,-41.0,-60.0,41.0,-801.0,82.0,-638.0
-202.0,19.0,-191.0,-25.0,-60.0,37.0,-800.0,85.0,-643.0
-204.0,16.0,-197.0,-11.0,-60.0,34.0,-802.0,83.0,-646.0
-206.0,13.0,-191.0,2.0,-58.0,31.0,-795.0,77.0,-630.0
-203.0,14.0,-193.0,19.0,-51.0,29.0,-803.0,80.0,-632.0
-197.0,17.0,-185.0,24.0,-45.0,29.0,-797.0,83.0,-639.0
-204.0,21.0,-194.0,18.0,-42.0,28.0,-791.0,91.0,-638.0
-200.0,22.0,-187.0,10.0,-36.0,28.0,-791.0,87.0,-630.0
-201.0,22.0,-189.0,1.0,-34.0,26.0,-789.0,90.0,-636.0
-202.0,22.0,-192.0,-7.0,-32.0,24.0,-789.0,89.0,-630.0
-200.0,18.0,-189.0,-14.0,-31.0,18.0,-788.0,91.0,-634.0
-200.0,20.0,-187.0,-20.0,-27.0,17.0,-792.0,93.0,-632.0
-203.0,23.0,-188.0,-26.0,-21.0,15.0,-791.0,92.0,-627.0
