acc1_x,acc1_y,acc1_z,gyro_x,gyro_y,gyro_z,acc2_x,acc2_y,acc2_z
8.0,-233.0,69.0,-143.0,158.0,-60.0,32.0,-910.0,394.0
9.0,-230.0,65.0,-137.0,161.0,-66.0,30.0,-913.0,395.0
6.0,-236.0,69.0,-132.0,163.0,-72.0,29.0,-910.0,393.0
8.0,-236.0,66.0,-128.0,159.0,-77.0,15.0,-916.0,395.0
-1.0,-234.0,69.0,-127.0,156.0,-82.0,13.0,-911.0,403.0
7.0,-235.0,71.0,-129.0,154.0,-87.0,2.0,-911.0,404.0
-2.0,-236.0,63.0,-124.0,152.0,-91.0,0.0,-913.0,396.0
-7.0,-234.0,62.0,-117.0,151.0,-95.0,-15.0,-913.0,393.0
-6.0,-230.0,67.0,-106.0,151.0,-98.0,-15.0,-904.0,385.0
-8.0,-228.0,65.0,-95.0,156.0,-100.0,-27.0,-904.0,391.0
-9.0,-227.0,69.0,-85.0,158.0,-99.0,-30.0,-898.0,391.0
-12.0,-228.0,66.0,-77.0,158.0,-97.0,-32.0,-905.0,390.0
-5.0,-228.0,69.0,-69.0,156.0,-95.0,-29.0,-894.0,393.0
-7.0,-230.0,69.0,-67.0,154.0,-92.0,-31.0,-892.0,396.0
-6.0,-227.0,69.0,-64.0,150.0,-89.0,-21.0,-891.0,403.0
-5.0,-232.0,68.0,-61.0,147.0,-86.0,-19.0,-896.0,405.0
-1.0,-232.0,72.0,-54.0,145.0,-83.0,-17.0,-897.0,415.0
0.0,-232.0,71.0,-42.0,145.0,-82.0,-2.0,-903.0,422.0
1.0,-232.0,78.0,-25.0,147.0,-85.0,-1.0,-906.0,425.0
2.0,-234.0,77.0,-4.0,148.0,-88.0,3.0,-908.0,434.0
-1.0,-232.0,76.0,22.0,150.0,-91.0,0.0,-906.0,439.0
-1.0,-232.0,74.0,47.0,149.0,-94.0,-3.0,-905.0,432.0
-5.0,-227.0,72.0,69.0,148.0,-98.0,-12.0,-894.0,427.0
-1.0,-228.0,75.0,87.0,148.0,-101.0,-14.0,-893.0,427.0
-4.0,-223.0,70.0,98.0,148.0,-104.0,-19.0,-887.0,423.0
-2.0,-226.0,72.0,105.0,149.0,-107.0,-15.0,-881.0,417.0
-6.0,-220.0,78.0,107.0,148.0,-110.0,-29.0,-885.0,421.0
-7.0,-228.0,72.0,107.0,148.0,-111.0,-32.0,-885.0,420.0
-7.0,-225.0,69.0,109.0,147.0,-110.0,-31.0,-888.0,413.0
-7.0,-224.0,68.0,109.0,144.0,-109.0,-32.0,-886.0,407.0
-9.0,-226.0,68.0,106.0,140.0,-107.0,-36.0,-887.0,402.0
-9.0,-226.0,69.0,103.0,135.0,-104.0,-34.0,-891.0,401.0
-8.0,-230.0,66.0,98.0,129.0,-99.0,-37.0,-896.0,388.0
-12.0,-233.0,62.0,96.0,123.0,-93.0,-34.0,-896.0,385.0
-10.0,-229.0,64.0,94.0,118.0,-88.0,-38.0,-900.0,380.0
-10.0,-232.0,66.0,90.0,112.0,-80.0,-44.0,-900.0,378.0
-15.0,-229.0,63.0,84.0,106.0,-73.0,-45.0,-904.0,378.0
-6.0,-229.0,73.0,84.0,98.0,-67.0,-42.0,-902.0,380.0
-11.0,-230.0,64.0,82.0,92.0,-62.0,-47.0,-901.0,376.0
-13.0,-229.0,60.0,78.0,85.0,-59.0,-45.0,-900.0,376.0
-8.0,-231.0,66.0,77.0,79.0,-56.0,-42.0,-900.0,369.0
-11.0,-228.0,60.0,74.0,75.0,-54.0,-38.0,-900.0,367.0
-10.0,-230.0,61.0,71.0,72.0,-51.0,-45.0,-895.0,366.0
-13.0,-226.0,60.0,66.0,67.0,-50.0,-42.0,-893.0,354.0
-12.0,-228.0,55.0,56.0,61.0,-46.0,-45.0,-894.0,357.0
-13.0,-229.0,57.0,45.0,57.0,-40.0,-45.0,-896.0,355.0
-16.0,-227.0,56.0,30.0,53.0,-34.0,-52.0,-888.0,355.0
-12.0,-230.0,56.0,16.0,48.0,-25.0,-52.0,-894.0,356.0
-11.0,-224.0,54.0,0.0,43.0,-17.0,-52.0,-896.0,356.0
-15.0,-228.0,60.0,-15.0,35.0,-8.0,-58.0,-906.0,357.0
-15.0,-232.0,61.0,-27.0,27.0,2.0,-61.0,-909.0,364.0
-14.0,-234.0,63.0,-38.0,17.0,9.0,-62.0,-912.0,373.0
-16.0,-231.0,58.0,-41.0,5.0,18.0,-64.0,-914.0,374.0
-17.0,-232.0,62.0,-42.0,-6.0,22.0,-61.0,-910.0,374.0
-16.0,-232.0,62.0,-40.0,-16.0,24.0,-62.0,-907.0,371.0
-17.0,-235.0,56.0,-38.0,-27.0,25.0,-60.0,-906.0,369.0
-17.0,-229.0,59.0,-35.0,-34.0,27.0,-60.0,-894.0,356.0
-14.0,-227.0,62.0,-37.0,-38.0,27.0,-60.0,-892.0,360.0
-15.0,-228.0,59.0,-40.0,-44.0,28.0,-61.0,-888.0,360.0
-13.0,-224.0,61.0,-49.0,-46.0,31.0,-54.0,-888.0,361.0
-13.0,-227.0,59.0,-56.0,-49.0,33.0,-49.0,-886.0,364.0
-13.0,-228.0,65.0,-63.0,-53.0,34.0,-47.0,-888.0,373.0
-15.0,-226.0,63.0,-69.0,-56.0,36.0,-45.0,-896.0,382.0
-9.0,-230.0,64.0,-72.0,-61.0,35.0,-39.0,-897.0,385.0
-8.0,-230.0,66.0,-71.0,-67.0,35.0,-34.0,-893.0,380.0
-8.0,-225.0,66.0,-70.0,-73.0,34.0,-30.0,-896.0,391.0
-9.0,-227.0,70.0,-65.0,-79.0,30.0,-32.0,-891.0,395.0
-5.0,-224.0,71.0,-59.0,-83.0,25.0,-31.0,-887.0,401.0
-6.0,-228.0,66.0,-53.0,-88.0,21.0,-26.0,-886.0,397.0
-6.0,-223.0,70.0,-49.0,-92.0,15.0,-25.0,-876.0,404.0
-9.0,-223.0,67.0,-45.0,-93.0,9.0,-22.0,-872.0,400.0
-4.0,-219.0,70.0,-41.0,-98.0,3.0,-19.0,-863.0,408.0
-4.0,-223.0,69.0,-40.0,-103.0,-4.0,-16.0,-866.0,404.0
-6.0,-219.0,70.0,-42.0,-110.0,-9.0,-21.0,-862.0,411.0
-4.0,-218.0,68.0,-44.0,-116.0,-16.0,-9.0,-855.0,414.0
-4.0,-219.0,74.0,-49.0,-120.0,-21.0,-13.0,-857.0,414.0
-5.0,-217.0,74.0,-54.0,-126.0,-26.0,-18.0,-854.0,416.0
-4.0,-213.0,73.0,-59.0,-129.0,-29.0,-12.0,-854.0,419.0
-5.0,-218.0,72.0,-64.0,-129.0,-32.0,-16.0,-858.0,424.0
-5.0,-217.0,71.0,-66.0,-128.0,-32.0,-17.0,-858.0,416.0
-4.0,-221.0,72.0,-70.0,-129.0,-31.0,-16.0,-866.0,416.0
0.0,-218.0,71.0,-74.0,-127.0,-28.0,-19.0,-869.0,419.0
-3.0,-225.0,70.0,-78.0,-126.0,-24.0,-14.0,-881.0,418.0
-4.0,-224.0,73.0,-83.0,-125.0,-19.0,-14.0,-882.0,419.0
-5.0,-226.0,72.0,-89.0,-124.0,-12.0,-13.0,-893.0,418.0
-1.0,-228.0,71.0,-93.0,-124.0,-5.0,-14.0,-900.0,419.0
-2.0,-231.0,71.0,-95.0,-125.0,-2.0,-14.0,-901.0,420.0
-1.0,-232.0,71.0,-95.0,-124.0,3.0,-4.0,-902.0,424.0
-2.0,-233.0,72.0,-93.0,-123.0,4.0,-10.0,-909.0,420.0
-2.0,-234.0,74.0,-89.0,-122.0,5.0,-9.0,-908.0,421.0
0.0,-235.0,75.0,-82.0,-117.0,4.0,-3.0,-909.0,422.0
-4.0,-233.0,76.0,-75.0,-112.0,4.0,-6.0,-910.0,416.0
-2.0,-235.0,67.0,-71.0,-105.0,2.0,0.0,-909.0,421.0
-1.0,-231.0,73.0,-67.0,-96.0,1.0,-2.0,-914.0,414.0
0.0,-232.0,74.0,-64.0,-86.0,1.0,3.0,-917.0,415.0
-2.0,-235.0,72.0,-61.0,-74.0,-3.0,4.0,-915.0,419.0
3.0,-234.0,75.0,-57.0,-64.0,-3.0,9.0,-917.0,408.0
4.0,-237.0,71.0,-55.0,-53.0,-4.0,10.0,-910.0,411.0
5.0,-237.0,71.0,-52.0,-43.0,-6.0,11.0,-921.0,412.0
5.0,-235.0,73.0,-51.0,-34.0,-7.0,14.0,-912.0,414.0
3.0,-235.0,66.0,-50.0,-26.0,-10.0,9.0,-915.0,409.0
2.0,-235.0,70.0,-51.0,-19.0,-11.0,10.0,-918.0,408.0
5.0,-236.0,69.0,-51.0,-11.0,-13.0,7.0,-915.0,401.0
0.0,-235.0,67.0,-50.0,-4.0,-15.0,9.0,-915.0,405.0
5.0,-233.0,64.0,-53.0,2.0,-16.0,10.0,-915.0,394.0
5.0,-234.0,68.0,-51.0,7.0,-18.0,13.0,-917.0,397.0
4.0,-233.0,64.0,-51.0,14.0,-20.0,5.0,-913.0,389.0
4.0,-233.0,62.0,-50.0,21.0,-23.0,14.0,-915.0,392.0
2.0,-231.0,67.0,-53.0,27.0,-26.0,9.0,-910.0,392.0
4.0,-234.0,65.0,-54.0,34.0,-30.0,11.0,-910.0,392.0
5.0,-237.0,67.0,-57.0,41.0,-32.0,8.0,-915.0,392.0
1.0,-232.0,68.0,-62.0,48.0,-36.0,10.0,-918.0,391.0
5.0,-235.0,68.0,-64.0,53.0,-39.0,12.0,-917.0,396.0
4.0,-235.0,69.0,-66.0,56.0,-39.0,14.0,-920.0,397.0
0.0,-236.0,71.0,-67.0,56.0,-38.0,9.0,-922.0,394.0
4.0,-239.0,66.0,-63.0,52.0,-40.0,3.0,-924.0,397.0
1.0,-241.0,68.0,-55.0,51.0,-39.0,0.0,-923.0,396.0
1.0,-235.0,71.0,-42.0,47.0,-40.0,-2.0,-918.0,398.0
1.0,-235.0,69.0,-30.0,45.0,-38.0,1.0,-919.0,395.0
3.0,-233.0,70.0,-21.0,43.0,-40.0,4.0,-918.0,393.0
3.0,-231.0,69.0,-16.0,42.0,-42.0,-1.0,-906.0,390.0
4.0,-229.0,67.0,-17.0,44.0,-41.0,2.0,-904.0,391.0
1.0,-227.0,65.0,-23.0,44.0,-40.0,0.0,-902.0,384.0
-1.0,-228.0,62.0,-31.0,48.0,-40.0,-1.0,-901.0,384.0
-2.0,-229.0,60.0,-39.0,50.0,-40.0,-4.0,-898.0,379.0
0.0,-230.0,66.0,-45.0,50.0,-40.0,-3.0,-903.0,376.0
-2.0,-232.0,62.0,-53.0,51.0,-39.0,-1.0,-903.0,381.0
-4.0,-231.0,63.0,-60.0,50.0,-39.0,-11.0,-899.0,374.0
-1.0,-230.0,65.0,-66.0,52.0,-37.0,-9.0,-898.0,376.0
-4.0,-231.0,65.0,-69.0,52.0,-36.0,-11.0,-907.0,386.0
-1.0,-230.0,65.0,-75.0,51.0,-33.0,-10.0,-905.0,391.0
-4.0,-230.0,67.0,-79.0,49.0,-31.0,-14.0,-906.0,396.0
-6.0,-230.0,70.0,-83.0,47.0,-28.0,-14.0,-904.0,397.0
-1.0,-231.0,68.0,-86.0,45.0,-25.0,-16.0,-898.0,386.0
-1.0,-227.0,63.0,-88.0,43.0,-22.0,-15.0,-901.0,386.0
2.0,-225.0,65.0,-93.0,42.0,-20.0,-15.0,-903.0,388.0
-3.0,-228.0,63.0,-96.0,43.0,-16.0,-10.0,-900.0,384.0
0.0,-231.0,68.0,-102.0,43.0,-15.0,-6.0,-897.0,380.0
1.0,-231.0,65.0,-108.0,44.0,-14.0,-10.0,-898.0,381.0
2.0,-230.0,63.0,-118.0,45.0,-13.0,-9.0,-904.0,383.0
-4.0,-231.0,64.0,-125.0,46.0,-11.0,-11.0,-910.0,384.0
-5.0,-230.0,65.0,-132.0,47.0,-11.0,-14.0,-908.0,385.0
-4.0,-234.0,69.0,-134.0,48.0,-9.0,-10.0,-919.0,387.0
-3.0,-234.0,63.0,-135.0,50.0,-9.0,-16.0,-916.0,380.0
1.0,-234.0,65.0,-134.0,51.0,-9.0,-18.0,-919.0,384.0
-5.0,-232.0,61.0,-128.0,51.0,-10.0,-14.0,-919.0,381.0
-2.0,-238.0,65.0,-122.0,53.0,-11.0,-16.0,-919.0,380.0
-7.0,-235.0,66.0,-116.0,55.0,-13.0,-16.0,-921.0,376.0
-5.0,-235.0,59.0,-109.0,56.0,-14.0,-19.0,-923.0,373.0
-3.0,-236.0,63.0,-105.0,57.0,-15.0,-23.0,-918.0,375.0
-5.0,-235.0,62.0,-99.0,56.0,-18.0,-22.0,-919.0,369.0
-4.0,-233.0,59.0,-95.0,55.0,-18.0,-20.0,-915.0,375.0
-4.0,-234.0,61.0,-91.0,52.0,-19.0,-21.0,-910.0,373.0
-3.0,-232.0,62.0,-85.0,49.0,-19.0,-20.0,-910.0,373.0
-4.0,-233.0,57.0,-77.0,44.0,-21.0,-18.0,-907.0,375.0
-3.0,-233.0,58.0,-71.0,39.0,-24.0,-17.0,-902.0,375.0
-4.0,-231.0,57.0,-67.0,37.0,-27.0,-16.0,-902.0,372.0
-2.0,-229.0,59.0,-64.0,32.0,-30.0,-16.0,-899.0,376.0
-5.0,-232.0,62.0,-61.0,31.0,-33.0,-14.0,-906.0,371.0
-5.0,-232.0,64.0,-61.0,28.0,-33.0,-13.0,-905.0,373.0
-3.0,-232.0,62.0,-61.0,26.0,-36.0,-8.0,-907.0,374.0
1.0,-234.0,62.0,-63.0,21.0,-36.0,-7.0,-906.0,374.0
-1.0,-233.0,60.0,-65.0,17.0,-36.0,-14.0,-905.0,372.0
-5.0,-232.0,63.0,-68.0,13.0,-35.0,-15.0,-910.0,370.0
1.0,-233.0,61.0,-70.0,8.0,-32.0,-15.0,-906.0,375.0
-4.0,-234.0,63.0,-70.0,2.0,-29.0,-18.0,-910.0,375.0
-1.0,-230.0,66.0,-70.0,-4.0,-27.0,-17.0,-906.0,371.0
-6.0,-231.0,64.0,-67.0,-12.0,-23.0,-19.0,-908.0,376.0
6.0,-234.0,63.0,-61.0,-19.0,-20.0,-16.0,-906.0,376.0
-6.0,-231.0,66.0,-54.0,-29.0,-18.0,-23.0,-898.0,373.0
-5.0,-230.0,60.0,-50.0,-35.0,-15.0,-22.0,-901.0,369.0
-6.0,-227.0,58.0,-46.0,-40.0,-14.0,-22.0,-896.0,367.0
-6.0,-229.0,58.0,-45.0,-43.0,-12.0,-25.0,-895.0,357.0
-6.0,-229.0,60.0,-47.0,-45.0,-11.0,-28.0,-895.0,357.0
-9.0,-225.0,59.0,-52.0,-47.0,-10.0,-28.0,-892.0,356.0
-5.0,-230.0,56.0,-58.0,-47.0,-10.0,-21.0,-895.0,352.0
-5.0,-227.0,57.0,-67.0,-46.0,-9.0,-20.0,-899.0,349.0
-1.0,-230.0,54.0,-77.0,-41.0,-8.0,-14.0,-901.0,350.0
0.0,-230.0,59.0,-87.0,-37.0,-8.0,-4.0,-907.0,349.0
-5.0,-240.0,61.0,-94.0,-33.0,-9.0,-3.0,-911.0,344.0
0.0,-231.0,55.0,-100.0,-29.0,-8.0,-8.0,-917.0,349.0
1.0,-237.0,55.0,-105.0,-24.0,-8.0,0.0,-922.0,345.0
-2.0,-236.0,54.0,-109.0,-19.0,-9.0,-6.0,-924.0,343.0
1.0,-239.0,53.0,-108.0,-12.0,-11.0,-2.0,-922.0,341.0
1.0,-237.0,54.0,-104.0,-4.0,-11.0,1.0,-923.0,340.0
-3.0,-236.0,53.0,-98.0,1.0,-9.0,0.0,-920.0,342.0
-3.0,-233.0,56.0,-90.0,7.0,-8.0,-7.0,-924.0,344.0
-6.0,-233.0,52.0,-81.0,13.0,-6.0,-4.0,-918.0,334.0
-3.0,-233.0,57.0,-72.0,15.0,-4.0,-9.0,-917.0,337.0
-4.0,-234.0,56.0,-64.0,18.0,-1.0,-10.0,-910.0,342.0
-4.0,-230.0,70.0,-58.0,22.0,2.0,-14.0,-906.0,346.0
-3.0,-235.0,54.0,-52.0,24.0,5.0,-13.0,-905.0,344.0
-3.0,-227.0,58.0,-47.0,24.0,7.0,-14.0,-905.0,350.0
0.0,-232.0,54.0,-44.0,25.0,10.0,-8.0,-906.0,345.0
-1.0,-232.0,58.0,-43.0,23.0,12.0,-15.0,-902.0,356.0
-2.0,-231.0,58.0,-42.0,23.0,12.0,-15.0,-907.0,355.0
-2.0,-230.0,60.0,-42.0,23.0,13.0,-7.0,-905.0,359.0
-4.0,-229.0,59.0,-41.0,21.0,14.0,-9.0,-907.0,362.0
0.0,-234.0,63.0,-41.0,21.0,13.0,-12.0,-901.0,363.0
1.0,-232.0,65.0,-40.0,23.0,14.0,-7.0,-908.0,366.0
-1.0,-234.0,64.0,-36.0,25.0,12.0,-10.0,-908.0,372.0
-2.0,-236.0,61.0,-35.0,25.0,11.0,0.0,-906.0,371.0
-3.0,-233.0,62.0,-33.0,25.0,9.0,-1.0,-910.0,375.0
-1.0,-235.0,61.0,-29.0,25.0,7.0,-6.0,-915.0,379.0
-2.0,-235.0,61.0,-23.0,25.0,6.0,-2.0,-913.0,376.0
1.0,-235.0,63.0,-15.0,25.0,5.0,0.0,-915.0,381.0
0.0,-233.0,65.0,-8.0,24.0,5.0,0.0,-920.0,381.0
0.0,-237.0,68.0,-1.0,23.0,3.0,-3.0,-916.0,392.0
-3.0,-232.0,65.0,1.0,23.0,5.0,-2.0,-913.0,390.0
-1.0,-235.0,64.0,8.0,25.0,4.0,-7.0,-912.0,392.0
-3.0,-235.0,69.0,12.0,24.0,5.0,-7.0,-915.0,394.0
3.0,-235.0,72.0,14.0,22.0,7.0,-10.0,-911.0,395.0
-2.0,-234.0,69.0,15.0,20.0,8.0,-6.0,-911.0,398.0
-4.0,-233.0,72.0,20.0,15.0,10.0,-10.0,-915.0,399.0
-3.0,-235.0,72.0,24.0,13.0,12.0,-16.0,-916.0,404.0
-3.0,-232.0,71.0,29.0,8.0,13.0,-15.0,-919.0,400.0
-2.0,-233.0,68.0,35.0,4.0,14.0,-15.0,-911.0,407.0
-1.0,-237.0,66.0,41.0,-1.0,15.0,-14.0,-909.0,402.0
-3.0,-235.0,67.0,46.0,-4.0,15.0,-8.0,-916.0,403.0
-4.0,-234.0,71.0,49.0,-8.0,12.0,-11.0,-914.0,408.0
-3.0,-234.0,66.0,52.0,-10.0,13.0,-10.0,-909.0,408.0
0.0,-230.0,72.0,54.0,-11.0,10.0,-16.0,-911.0,408.0
0.0,-224.0,72.0,52.0,-12.0,9.0,-6.0,-907.0,409.0
-3.0,-231.0,71.0,48.0,-12.0,9.0,-9.0,-909.0,411.0
-3.0,-232.0,71.0,44.0,-12.0,9.0,-10.0,-907.0,410.0
-4.0,-232.0,72.0,44.0,-14.0,10.0,-11.0,-901.0,413.0
-2.0,-227.0,70.0,43.0,-12.0,11.0,-1.0,-896.0,415.0
-1.0,-227.0,69.0,42.0,-12.0,11.0,-3.0,-895.0,410.0
-1.0,-227.0,73.0,40.0,-11.0,12.0,-1.0,-882.0,407.0
-1.0,-225.0,71.0,38.0,-11.0,13.0,-3.0,-884.0,409.0
3.0,-225.0,69.0,36.0,-11.0,14.0,0.0,-879.0,412.0
-3.0,-222.0,70.0,30.0,-12.0,14.0,2.0,-881.0,407.0
-1.0,-222.0,73.0,24.0,-12.0,15.0,1.0,-881.0,411.0
3.0,-223.0,76.0,19.0,-10.0,15.0,2.0,-881.0,410.0
1.0,-223.0,72.0,15.0,-8.0,16.0,5.0,-882.0,418.0
0.0,-228.0,73.0,14.0,-8.0,16.0,2.0,-884.0,423.0
2.0,-226.0,74.0,10.0,-8.0,13.0,0.0,-888.0,421.0
-1.0,-225.0,76.0,8.0,-8.0,15.0,-2.0,-893.0,425.0
-2.0,-221.0,71.0,8.0,-9.0,16.0,4.0,-886.0,424.0
0.0,-224.0,74.0,5.0,-9.0,17.0,-4.0,-884.0,426.0
1.0,-226.0,75.0,2.0,-13.0,19.0,2.0,-883.0,428.0
1.0,-225.0,76.0,-3.0,-15.0,19.0,-2.0,-886.0,425.0
2.0,-229.0,75.0,-9.0,-17.0,18.0,2.0,-885.0,426.0
1.0,-228.0,73.0,-12.0,-19.0,20.0,4.0,-883.0,427.0
5.0,-227.0,79.0,-14.0,-19.0,18.0,-3.0,-885.0,422.0
0.0,-223.0,73.0,-15.0,-20.0,15.0,0.0,-872.0,424.0
0.0,-223.0,73.0,-14.0,-18.0,14.0,2.0,-882.0,426.0
0.0,-223.0,72.0,-14.0,-17.0,10.0,3.0,-881.0,421.0
4.0,-224.0,74.0,-15.0,-15.0,7.0,2.0,-874.0,426.0
-1.0,-223.0,72.0,-19.0,-15.0,6.0,1.0,-879.0,421.0
-1.0,-225.0,73.0,-24.0,-10.0,4.0,3.0,-866.0,427.0
-1.0,-223.0,73.0,-28.0,-8.0,2.0,2.0,-874.0,423.0
2.0,-224.0,71.0,-31.0,-6.0,4.0,1.0,-864.0,427.0
2.0,-225.0,74.0,-33.0,-4.0,4.0,3.0,-876.0,426.0
4.0,-225.0,72.0,-31.0,-5.0,5.0,5.0,-884.0,422.0
2.0,-222.0,75.0,-30.0,-6.0,4.0,2.0,-883.0,425.0
3.0,-226.0,75.0,-31.0,-5.0,5.0,9.0,-878.0,425.0
3.0,-227.0,74.0,-31.0,-5.0,3.0,6.0,-886.0,421.0
3.0,-225.0,73.0,-33.0,-6.0,5.0,5.0,-890.0,418.0
2.0,-231.0,75.0,-36.0,-6.0,5.0,7.0,-895.0,424.0
2.0,-233.0,76.0,-35.0,-5.0,8.0,4.0,-894.0,423.0
0.0,-227.0,72.0,-35.0,-4.0,8.0,0.0,-898.0,424.0
2.0,-231.0,71.0,-35.0,-4.0,9.0,-2.0,-898.0,425.0
1.0,-227.0,74.0,-34.0,-5.0,10.0,-2.0,-896.0,415.0
-3.0,-227.0,75.0,-32.0,-4.0,11.0,-5.0,-892.0,420.0
2.0,-229.0,71.0,-29.0,-4.0,14.0,-9.0,-896.0,413.0
-2.0,-231.0,72.0,-31.0,-5.0,14.0,-3.0,-889.0,413.0
-3.0,-226.0,72.0,-31.0,-6.0,15.0,-11.0,-889.0,412.0
-3.0,-225.0,70.0,-31.0,-6.0,17.0,-12.0,-885.0,410.0
-1.0,-227.0,70.0,-35.0,-5.0,21.0,-19.0,-887.0,408.0
-2.0,-229.0,72.0,-39.0,-6.0,23.0,-16.0,-889.0,404.0
-1.0,-231.0,68.0,-46.0,-7.0,27.0,-8.0,-894.0,402.0
-5.0,-226.0,70.0,-53.0,-8.0,27.0,-12.0,-896.0,401.0
-5.0,-232.0,64.0,-59.0,-9.0,29.0,-14.0,-906.0,396.0
-2.0,-235.0,69.0,-64.0,-13.0,29.0,-16.0,-907.0,393.0
-4.0,-233.0,65.0,-69.0,-14.0,28.0,-7.0,-909.0,390.0
-4.0,-231.0,67.0,-72.0,-16.0,28.0,-13.0,-910.0,387.0
-3.0,-237.0,68.0,-74.0,-15.0,28.0,-19.0,-912.0,390.0
-4.0,-233.0,66.0,-75.0,-16.0,25.0,-15.0,-907.0,390.0
-5.0,-233.0,66.0,-76.0,-16.0,25.0,-18.0,-912.0,385.0
-4.0,-232.0,61.0,-76.0,-16.0,24.0,-18.0,-907.0,381.0
-3.0,-233.0,65.0,-76.0,-16.0,24.0,-19.0,-911.0,378.0
-3.0,-232.0,62.0,-78.0,-14.0,22.0,-13.0,-908.0,375.0
-4.0,-229.0,62.0,-84.0,-13.0,21.0,-15.0,-903.0,375.0
-3.0,-229.0,60.0,-90.0,-14.0,20.0,-15.0,-906.0,372.0
1.0,-235.0,60.0,-95.0,-13.0,19.0,-14.0,-907.0,374.0
2.0,-233.0,58.0,-101.0,-12.0,17.0,-15.0,-900.0,376.0
-2.0,-228.0,65.0,-106.0,-11.0,17.0,-13.0,-903.0,373.0
-5.0,-229.0,58.0,-108.0,-10.0,15.0,-14.0,-903.0,373.0
-6.0,-229.0,63.0,-112.0,-9.0,14.0,-18.0,-898.0,374.0
-3.0,-227.0,58.0,-116.0,-7.0,12.0,-20.0,-899.0,360.0
-3.0,-231.0,60.0,-123.0,-4.0,11.0,-11.0,-898.0,359.0
-6.0,-226.0,58.0,-132.0,-2.0,12.0,-14.0,-902.0,361.0
-2.0,-229.0,56.0,-141.0,1.0,11.0,-16.0,-904.0,353.0
-3.0,-229.0,55.0,-151.0,2.0,12.0,-19.0,-906.0,351.0
-4.0,-230.0,57.0,-162.0,5.0,12.0,-19.0,-906.0,355.0
-5.0,-234.0,54.0,-168.0,9.0,16.0,-15.0,-915.0,351.0
-4.0,-230.0,60.0,-174.0,10.0,16.0,-11.0,-917.0,355.0
1.0,-235.0,63.0,-174.0,12.0,14.0,-4.0,-918.0,359.0
1.0,-237.0,56.0,-167.0,13.0,12.0,-16.0,-920.0,359.0
-3.0,-237.0,60.0,-162.0,14.0,13.0,-6.0,-926.0,359.0
-4.0,-236.0,59.0,-154.0,15.0,12.0,-11.0,-924.0,366.0
0.0,-236.0,59.0,-147.0,17.0,9.0,-11.0,-917.0,369.0
-1.0,-240.0,59.0,-141.0,18.0,9.0,-10.0,-917.0,363.0
-2.0,-231.0,60.0,-138.0,20.0,7.0,-15.0,-912.0,357.0
-4.0,-232.0,61.0,-130.0,25.0,6.0,-14.0,-908.0,363.0
-6.0,-230.0,59.0,-125.0,30.0,4.0,-10.0,-910.0,359.0
-2.0,-236.0,57.0,-117.0,35.0,3.0,-16.0,-911.0,366.0
-4.0,-231.0,58.0,-113.0,36.0,1.0,-18.0,-911.0,369.0
-2.0,-233.0,62.0,-111.0,38.0,0.0,-16.0,-916.0,371.0
-2.0,-234.0,63.0,-110.0,38.0,-2.0,-15.0,-919.0,375.0
-3.0,-235.0,63.0,-108.0,39.0,-4.0,-16.0,-919.0,378.0
-3.0,-237.0,66.0,-104.0,41.0,-7.0,-13.0,-917.0,379.0
-3.0,-234.0,62.0,-98.0,41.0,-10.0,-4.0,-921.0,389.0
-3.0,-233.0,66.0,-93.0,40.0,-13.0,-8.0,-915.0,382.0
2.0,-235.0,63.0,-91.0,43.0,-16.0,-4.0,-914.0,388.0
0.0,-232.0,65.0,-89.0,43.0,-18.0,-6.0,-917.0,391.0
-4.0,-232.0,69.0,-86.0,44.0,-20.0,-5.0,-917.0,394.0
-5.0,-232.0,67.0,-82.0,43.0,-22.0,-6.0,-909.0,392.0
-1.0,-235.0,68.0,-80.0,45.0,-24.0,-12.0,-915.0,392.0
-3.0,-230.0,69.0,-77.0,46.0,-27.0,-4.0,-908.0,399.0
1.0,-232.0,65.0,-74.0,49.0,-28.0,-5.0,-911.0,391.0
-3.0,-231.0,69.0,-74.0,50.0,-28.0,-1.0,-911.0,386.0
1.0,-233.0,67.0,-75.0,51.0,-28.0,-5.0,-910.0,397.0
-1.0,-231.0,67.0,-78.0,53.0,-29.0,-7.0,-912.0,382.0
-2.0,-233.0,66.0,-81.0,54.0,-29.0,-5.0,-912.0,386.0
0.0,-233.0,64.0,-86.0,54.0,-29.0,-8.0,-912.0,388.0
-2.0,-235.0,65.0,-89.0,55.0,-28.0,-1.0,-918.0,387.0
0.0,-235.0,68.0,-95.0,57.0,-28.0,0.0,-917.0,385.0
-1.0,-234.0,68.0,-101.0,58.0,-29.0,1.0,-920.0,389.0
-4.0,-236.0,67.0,-103.0,59.0,-30.0,-2.0,-920.0,385.0
0.0,-236.0,65.0,-103.0,61.0,-31.0,0.0,-925.0,388.0
-2.0,-235.0,64.0,-101.0,63.0,-32.0,-2.0,-926.0,381.0
-1.0,-237.0,68.0,-98.0,64.0,-31.0,-5.0,-925.0,383.0
-4.0,-234.0,66.0,-95.0,68.0,-32.0,-6.0,-921.0,382.0
-2.0,-236.0,63.0,-94.0,71.0,-32.0,-6.0,-919.0,380.0
-3.0,-236.0,59.0,-90.0,73.0,-31.0,-10.0,-913.0,376.0
-2.0,-236.0,63.0,-89.0,74.0,-31.0,-5.0,-912.0,369.0
-3.0,-230.0,64.0,-91.0,75.0,-29.0,-3.0,-908.0,368.0
0.0,-233.0,63.0,-89.0,77.0,-30.0,-16.0,-910.0,362.0
-2.0,-232.0,57.0,-92.0,77.0,-29.0,-8.0,-908.0,362.0
-2.0,-230.0,58.0,-93.0,77.0,-29.0,-4.0,-904.0,354.0
1.0,-234.0,60.0,-99.0,77.0,-29.0,-10.0,-902.0,353.0
-4.0,-231.0,56.0,-104.0,77.0,-29.0,-9.0,-906.0,352.0
-2.0,-231.0,57.0,-111.0,78.0,-28.0,-15.0,-905.0,349.0
-2.0,-232.0,57.0,-116.0,79.0,-25.0,-6.0,-906.0,352.0
-4.0,-233.0,54.0,-120.0,80.0,-25.0,-15.0,-904.0,347.0
-7.0,-230.0,56.0,-122.0,81.0,-25.0,-14.0,-908.0,354.0
-5.0,-230.0,51.0,-122.0,84.0,-23.0,-12.0,-906.0,343.0
-3.0,-231.0,55.0,-121.0,85.0,-21.0,-17.0,-903.0,336.0
-4.0,-232.0,53.0,-120.0,84.0,-18.0,-16.0,-909.0,335.0
-3.0,-232.0,53.0,-120.0,85.0,-17.0,-18.0,-909.0,335.0
-6.0,-228.0,52.0,-119.0,84.0,-16.0,-22.0,-912.0,336.0
-4.0,-235.0,53.0,-121.0,84.0,-13.0,-17.0,-907.0,334.0
-6.0,-233.0,52.0,-125.0,83.0,-11.0,-17.0,-913.0,337.0
-4.0,-232.0,58.0,-127.0,84.0,-10.0,-12.0,-911.0,330.0
-6.0,-235.0,53.0,-132.0,82.0,-8.0,-19.0,-910.0,337.0
-7.0,-235.0,53.0,-132.0,82.0,-6.0,-20.0,-916.0,331.0
-6.0,-234.0,51.0,-127.0,81.0,-6.0,-20.0,-909.0,333.0
-4.0,-233.0,50.0,-123.0,80.0,-4.0,-25.0,-912.0,329.0
-5.0,-233.0,56.0,-118.0,78.0,-4.0,-24.0,-907.0,332.0
-5.0,-233.0,51.0,-113.0,78.0,-5.0,-26.0,-909.0,331.0
-6.0,-229.0,54.0,-111.0,78.0,-4.0,-28.0,-910.0,330.0
-8.0,-231.0,50.0,-110.0,75.0,-2.0,-22.0,-913.0,333.0
-7.0,-240.0,57.0,-112.0,74.0,-1.0,-31.0,-912.0,336.0
-4.0,-233.0,56.0,-114.0,69.0,1.0,-26.0,-909.0,335.0
-7.0,-237.0,54.0,-118.0,66.0,1.0,-25.0,-912.0,341.0
-6.0,-236.0,52.0,-121.0,64.0,3.0,-23.0,-918.0,341.0
-5.0,-234.0,52.0,-119.0,61.0,3.0,-24.0,-919.0,350.0
-5.0,-234.0,55.0,-117.0,58.0,3.0,-19.0,-920.0,351.0
-2.0,-238.0,57.0,-110.0,54.0,3.0,-24.0,-926.0,348.0
-5.0,-237.0,58.0,-103.0,54.0,3.0,-18.0,-927.0,356.0
-3.0,-237.0,60.0,-94.0,51.0,3.0,-19.0,-925.0,358.0
-6.0,-234.0,62.0,-88.0,49.0,3.0,-16.0,-923.0,355.0
-6.0,-234.0,61.0,-79.0,46.0,3.0,-21.0,-923.0,357.0
-10.0,-238.0,57.0,-70.0,44.0,3.0,-15.0,-921.0,358.0
-5.0,-236.0,57.0,-63.0,41.0,2.0,-12.0,-922.0,359.0
-3.0,-238.0,57.0,-56.0,39.0,1.0,-18.0,-918.0,360.0
-2.0,-235.0,60.0,-49.0,36.0,1.0,-18.0,-919.0,365.0
-3.0,-234.0,56.0,-42.0,34.0,0.0,-17.0,-918.0,370.0
-6.0,-236.0,60.0,-36.0,31.0,-1.0,-18.0,-916.0,368.0
-4.0,-234.0,59.0,-33.0,30.0,-3.0,-17.0,-914.0,364.0
-4.0,-235.0,64.0,-29.0,28.0,-3.0,-11.0,-915.0,369.0
-2.0,-235.0,61.0,-24.0,27.0,-5.0,-17.0,-916.0,372.0
-3.0,-234.0,59.0,-20.0,26.0,-5.0,-16.0,-920.0,374.0
-3.0,-236.0,63.0,-15.0,26.0,-6.0,-16.0,-912.0,373.0
-6.0,-234.0,66.0,-10.0,25.0,-6.0,-14.0,-919.0,372.0
-2.0,-234.0,64.0,-10.0,27.0,-8.0,-13.0,-917.0,375.0
-4.0,-235.0,60.0,-4.0,26.0,-7.0,-9.0,-919.0,379.0
-4.0,-233.0,68.0,2.0,23.0,-8.0,-13.0,-916.0,380.0
-5.0,-233.0,63.0,6.0,23.0,-7.0,-15.0,-913.0,379.0
-3.0,-234.0,65.0,11.0,21.0,-8.0,-15.0,-915.0,385.0
-2.0,-235.0,62.0,15.0,18.0,-7.0,-12.0,-912.0,385.0
-5.0,-233.0,65.0,19.0,16.0,-7.0,-18.0,-906.0,387.0
-2.0,-236.0,68.0,24.0,14.0,-6.0,-14.0,-908.0,380.0
-3.0,-235.0,62.0,25.0,10.0,-7.0,-18.0,-912.0,381.0
-5.0,-231.0,64.0,24.0,10.0,-6.0,-8.0,-906.0,380.0
-5.0,-232.0,69.0,24.0,8.0,-4.0,-17.0,-908.0,377.0
-4.0,-231.0,66.0,22.0,6.0,-2.0,-15.0,-911.0,380.0
-4.0,-234.0,64.0,22.0,5.0,0.0,-18.0,-913.0,379.0
-4.0,-233.0,61.0,21.0,4.0,1.0,-19.0,-915.0,382.0
-5.0,-232.0,63.0,23.0,3.0,2.0,-20.0,-916.0,377.0
-4.0,-233.0,65.0,26.0,0.0,3.0,-25.0,-919.0,377.0
-5.0,-233.0,62.0,28.0,-2.0,4.0,-19.0,-914.0,375.0
-6.0,-231.0,62.0,30.0,-3.0,5.0,-24.0,-914.0,373.0
-6.0,-231.0,65.0,32.0,-5.0,6.0,-19.0,-917.0,371.0
-5.0,-230.0,62.0,32.0,-8.0,7.0,-21.0,-907.0,371.0
-8.0,-232.0,60.0,29.0,-8.0,9.0,-24.0,-907.0,369.0
-5.0,-236.0,67.0,27.0,-8.0,10.0,-21.0,-909.0,368.0
-5.0,-233.0,62.0,25.0,-10.0,11.0,-24.0,-915.0,374.0
-6.0,-230.0,62.0,25.0,-9.0,12.0,-18.0,-902.0,378.0
-2.0,-233.0,63.0,25.0,-11.0,13.0,-20.0,-905.0,375.0
-4.0,-232.0,62.0,24.0,-13.0,13.0,-18.0,-901.0,377.0
-5.0,-230.0,64.0,28.0,-14.0,13.0,-15.0,-902.0,371.0
-5.0,-227.0,65.0,27.0,-16.0,13.0,-15.0,-903.0,373.0
-3.0,-229.0,65.0,27.0,-17.0,13.0,-14.0,-898.0,370.0
-5.0,-230.0,59.0,25.0,-18.0,12.0,-13.0,-903.0,375.0
-3.0,-234.0,59.0,22.0,-18.0,11.0,-19.0,-904.0,368.0
-4.0,-229.0,61.0,20.0,-18.0,11.0,-15.0,-903.0,368.0
-2.0,-232.0,57.0,16.0,-18.0,11.0,-13.0,-907.0,372.0
-5.0,-234.0,61.0,14.0,-21.0,9.0,-17.0,-913.0,373.0
-5.0,-232.0,63.0,12.0,-21.0,9.0,-9.0,-916.0,372.0
-6.0,-229.0,64.0,10.0,-22.0,8.0,-15.0,-914.0,380.0
-3.0,-232.0,62.0,11.0,-21.0,9.0,-17.0,-913.0,383.0
-2.0,-231.0,64.0,14.0,-21.0,7.0,-16.0,-907.0,385.0
-2.0,-230.0,64.0,16.0,-23.0,7.0,-14.0,-912.0,378.0
-5.0,-233.0,66.0,19.0,-23.0,5.0,-22.0,-903.0,383.0
-3.0,-231.0,64.0,22.0,-23.0,5.0,-18.0,-904.0,391.0
-2.0,-230.0,65.0,24.0,-24.0,5.0,-20.0,-902.0,384.0
-5.0,-228.0,65.0,23.0,-26.0,5.0,-20.0,-896.0,385.0
-5.0,-230.0,64.0,22.0,-26.0,6.0,-19.0,-897.0,385.0
-4.0,-228.0,63.0,18.0,-28.0,8.0,-21.0,-894.0,383.0
-6.0,-228.0,64.0,17.0,-29.0,10.0,-27.0,-898.0,387.0
-3.0,-232.0,66.0,12.0,-30.0,10.0,-16.0,-900.0,383.0
-5.0,-231.0,62.0,8.0,-31.0,12.0,-17.0,-895.0,384.0
-5.0,-231.0,64.0,2.0,-32.0,13.0,-16.0,-904.0,381.0
-3.0,-232.0,62.0,-4.0,-33.0,15.0,-17.0,-906.0,389.0
-3.0,-230.0,65.0,-7.0,-34.0,15.0,-16.0,-898.0,382.0
-5.0,-229.0,60.0,-11.0,-36.0,16.0,-17.0,-902.0,384.0
-6.0,-231.0,67.0,-13.0,-36.0,16.0,-13.0,-902.0,383.0
0.0,-228.0,63.0,-16.0,-36.0,18.0,-14.0,-907.0,385.0
-5.0,-231.0,67.0,-18.0,-38.0,19.0,-6.0,-906.0,388.0
-3.0,-231.0,64.0,-17.0,-38.0,19.0,-15.0,-909.0,387.0
-3.0,-232.0,62.0,-17.0,-38.0,20.0,-15.0,-906.0,387.0
-6.0,-231.0,70.0,-16.0,-41.0,21.0,-17.0,-903.0,392.0
-4.0,-228.0,66.0,-14.0,-43.0,20.0,-14.0,-905.0,391.0
-1.0,-231.0,64.0,-14.0,-44.0,20.0,-14.0,-903.0,389.0
-4.0,-229.0,69.0,-15.0,-45.0,21.0,-14.0,-903.0,385.0
-7.0,-226.0,65.0,-18.0,-49.0,23.0,-20.0,-897.0,385.0
-6.0,-228.0,70.0,-22.0,-48.0,25.0,-17.0,-898.0,386.0
-6.0,-226.0,64.0,-28.0,-49.0,26.0,-24.0,-895.0,378.0
-12.0,-237.0,63.0,-35.0,-50.0,29.0,-21.0,-894.0,375.0
-4.0,-231.0,64.0,-44.0,-50.0,30.0,-19.0,-898.0,371.0
-4.0,-232.0,63.0,-51.0,-50.0,34.0,-18.0,-904.0,368.0
-4.0,-230.0,60.0,-59.0,-50.0,35.0,-16.0,-903.0,367.0
-5.0,-229.0,61.0,-67.0,-50.0,36.0,-17.0,-906.0,366.0
0.0,-232.0,59.0,-74.0,-48.0,36.0,-15.0,-905.0,363.0
-3.0,-227.0,61.0,-79.0,-48.0,34.0,-13.0,-906.0,370.0
-3.0,-235.0,65.0,-83.0,-46.0,32.0,-14.0,-906.0,366.0
-5.0,-233.0,66.0,-87.0,-45.0,30.0,-15.0,-906.0,372.0
-3.0,-235.0,62.0,-90.0,-43.0,28.0,-13.0,-908.0,370.0
2.0,-231.0,61.0,-90.0,-38.0,26.0,-11.0,-907.0,375.0
1.0,-229.0,69.0,-90.0,-33.0,24.0,-13.0,-906.0,375.0
0.0,-231.0,63.0,-90.0,-29.0,22.0,-12.0,-909.0,377.0
-2.0,-233.0,67.0,-90.0,-26.0,20.0,-5.0,-909.0,379.0
0.0,-233.0,63.0,-85.0,-22.0,19.0,-5.0,-907.0,373.0
0.0,-231.0,64.0,-81.0,-20.0,20.0,-5.0,-908.0,373.0
-2.0,-231.0,61.0,-77.0,-19.0,18.0,-3.0,-915.0,373.0
-3.0,-235.0,62.0,-75.0,-18.0,20.0,3.0,-905.0,372.0
0.0,-229.0,64.0,-77.0,-18.0,21.0,1.0,-903.0,373.0
0.0,-229.0,64.0,-78.0,-16.0,20.0,-1.0,-910.0,372.0
-1.0,-233.0,60.0,-83.0,-15.0,19.0,-1.0,-909.0,370.0
1.0,-233.0,66.0,-87.0,-11.0,17.0,-1.0,-907.0,369.0
-5.0,-231.0,58.0,-88.0,-8.0,14.0,-7.0,-915.0,371.0
-2.0,-233.0,62.0,-88.0,-3.0,9.0,-11.0,-916.0,362.0
-4.0,-232.0,61.0,-86.0,2.0,8.0,-13.0,-909.0,363.0
-2.0,-235.0,59.0,-83.0,7.0,5.0,-16.0,-913.0,363.0
-7.0,-231.0,62.0,-81.0,11.0,1.0,-16.0,-906.0,372.0
-1.0,-236.0,60.0,-80.0,15.0,-2.0,-18.0,-911.0,373.0
-5.0,-234.0,63.0,-81.0,17.0,-4.0,-15.0,-909.0,372.0
-6.0,-234.0,63.0,-82.0,19.0,-4.0,-18.0,-908.0,374.0
-2.0,-235.0,65.0,-84.0,20.0,-4.0,-16.0,-914.0,372.0
-3.0,-234.0,64.0,-86.0,20.0,-5.0,-14.0,-916.0,371.0
-6.0,-234.0,57.0,-86.0,20.0,-5.0,-15.0,-913.0,372.0
-3.0,-236.0,61.0,-86.0,21.0,-4.0,-9.0,-918.0,365.0
-4.0,-236.0,63.0,-85.0,23.0,-3.0,-7.0,-918.0,372.0
0.0,-239.0,61.0,-84.0,24.0,-4.0,-14.0,-920.0,370.0
0.0,-237.0,59.0,-85.0,26.0,-3.0,-12.0,-918.0,370.0
-1.0,-238.0,63.0,-84.0,25.0,-3.0,-7.0,-923.0,371.0
-2.0,-237.0,63.0,-83.0,28.0,-5.0,-6.0,-923.0,377.0
-3.0,-237.0,62.0,-78.0,28.0,-6.0,-18.0,-923.0,377.0
1.0,-239.0,65.0,-73.0,29.0,-7.0,-14.0,-922.0,384.0
-3.0,-237.0,61.0,-69.0,31.0,-7.0,-19.0,-922.0,377.0
-2.0,-235.0,69.0,-63.0,31.0,-9.0,-13.0,-910.0,384.0
0.0,-230.0,68.0,-58.0,32.0,-11.0,-12.0,-912.0,382.0
-4.0,-231.0,60.0,-51.0,34.0,-11.0,-19.0,-909.0,378.0
-5.0,-230.0,66.0,-50.0,36.0,-12.0,-18.0,-905.0,386.0
-4.0,-232.0,63.0,-49.0,38.0,-11.0,-19.0,-901.0,378.0
-5.0,-231.0,64.0,-53.0,41.0,-11.0,-23.0,-904.0,377.0
-5.0,-229.0,59.0,-56.0,43.0,-12.0,-13.0,-900.0,375.0
-4.0,-232.0,61.0,-61.0,44.0,-11.0,-13.0,-907.0,376.0
-2.0,-231.0,65.0,-68.0,47.0,-10.0,-18.0,-906.0,376.0
-5.0,-232.0,62.0,-72.0,47.0,-10.0,-18.0,-912.0,377.0
-6.0,-230.0,65.0,-73.0,49.0,-10.0,-15.0,-914.0,380.0
-3.0,-236.0,64.0,-74.0,49.0,-10.0,-11.0,-918.0,381.0
-5.0,-237.0,62.0,-75.0,51.0,-9.0,-15.0,-917.0,384.0
-1.0,-237.0,72.0,-72.0,50.0,-10.0,-19.0,-918.0,386.0
-3.0,-232.0,66.0,-69.0,50.0,-11.0,-19.0,-917.0,390.0
-4.0,-235.0,66.0,-64.0,48.0,-11.0,-21.0,-912.0,386.0
-7.0,-230.0,68.0,-59.0,47.0,-11.0,-25.0,-911.0,378.0
-6.0,-231.0,58.0,-54.0,47.0,-10.0,-26.0,-905.0,381.0
-3.0,-232.0,65.0,-52.0,47.0,-11.0,-20.0,-907.0,381.0
-8.0,-229.0,65.0,-54.0,49.0,-11.0,-18.0,-905.0,377.0
-5.0,-230.0,61.0,-55.0,50.0,-11.0,-18.0,-903.0,381.0
-2.0,-229.0,70.0,-56.0,51.0,-12.0,-16.0,-903.0,381.0
-4.0,-231.0,64.0,-60.0,52.0,-11.0,-14.0,-902.0,376.0
-3.0,-229.0,63.0,-63.0,56.0,-11.0,-16.0,-899.0,369.0
-1.0,-233.0,56.0,-66.0,58.0,-8.0,-9.0,-899.0,372.0
-3.0,-227.0,57.0,-71.0,61.0,-9.0,-15.0,-903.0,368.0
-4.0,-231.0,59.0,-75.0,63.0,-9.0,-7.0,-906.0,368.0
-3.0,-231.0,60.0,-81.0,68.0,-9.0,-13.0,-905.0,368.0
-2.0,-229.0,59.0,-86.0,69.0,-10.0,-4.0,-909.0,363.0
-2.0,-235.0,64.0,-88.0,72.0,-12.0,-6.0,-916.0,368.0
0.0,-237.0,60.0,-90.0,76.0,-15.0,-4.0,-918.0,380.0
-2.0,-235.0,63.0,-88.0,77.0,-16.0,1.0,-917.0,380.0
-2.0,-237.0,65.0,-81.0,78.0,-20.0,-3.0,-916.0,381.0
-1.0,-236.0,62.0,-72.0,77.0,-25.0,-11.0,-912.0,381.0
-1.0,-234.0,61.0,-61.0,76.0,-26.0,-16.0,-906.0,382.0
-3.0,-232.0,62.0,-53.0,74.0,-27.0,-20.0,-900.0,379.0
-3.0,-227.0,57.0,-47.0,73.0,-26.0,-21.0,-892.0,368.0
-4.0,-227.0,58.0,-45.0,72.0,-24.0,-25.0,-895.0,358.0
-6.0,-226.0,58.0,-48.0,74.0,-22.0,-23.0,-891.0,348.0
-5.0,-227.0,54.0,-58.0,75.0,-19.0,-23.0,-888.0,343.0
-5.0,-227.0,55.0,-71.0,76.0,-17.0,-19.0,-896.0,338.0
-2.0,-233.0,49.0,-86.0,79.0,-14.0,-17.0,-905.0,335.0
-5.0,-235.0,47.0,-101.0,81.0,-13.0,-15.0,-911.0,344.0
-6.0,-237.0,55.0,-112.0,83.0,-13.0,-12.0,-916.0,345.0
-2.0,-238.0,59.0,-121.0,83.0,-15.0,-12.0,-927.0,345.0
-4.0,-236.0,65.0,-120.0,82.0,-17.0,-11.0,-931.0,350.0
-3.0,-236.0,57.0,-115.0,80.0,-18.0,-18.0,-935.0,351.0
-3.0,-240.0,58.0,-110.0,80.0,-21.0,-16.0,-932.0,355.0
-5.0,-241.0,59.0,-99.0,79.0,-23.0,-18.0,-935.0,353.0
-7.0,-235.0,58.0,-88.0,77.0,-26.0,-22.0,-931.0,351.0
-5.0,-237.0,58.0,-78.0,79.0,-26.0,-22.0,-930.0,348.0
-7.0,-238.0,53.0,-71.0,80.0,-27.0,-27.0,-927.0,346.0
-7.0,-237.0,59.0,-65.0,80.0,-26.0,-28.0,-927.0,352.0
-5.0,-239.0,54.0,-63.0,81.0,-26.0,-26.0,-921.0,348.0
-9.0,-233.0,54.0,-62.0,80.0,-25.0,-28.0,-918.0,347.0
-9.0,-233.0,53.0,-63.0,78.0,-25.0,-33.0,-917.0,341.0
-4.0,-234.0,65.0,-63.0,75.0,-24.0,-30.0,-917.0,346.0
-8.0,-234.0,54.0,-67.0,72.0,-23.0,-32.0,-911.0,348.0
-6.0,-236.0,55.0,-69.0,67.0,-23.0,-30.0,-912.0,336.0
-8.0,-232.0,54.0,-72.0,64.0,-21.0,-30.0,-914.0,340.0
-9.0,-235.0,57.0,-74.0,59.0,-21.0,-32.0,-916.0,346.0
-8.0,-235.0,57.0,-78.0,56.0,-20.0,-32.0,-911.0,345.0
-10.0,-233.0,56.0,-79.0,54.0,-19.0,-34.0,-911.0,345.0
-9.0,-233.0,54.0,-83.0,52.0,-19.0,-35.0,-916.0,349.0
-10.0,-232.0,54.0,-85.0,51.0,-18.0,-37.0,-917.0,350.0
-9.0,-233.0,52.0,-89.0,47.0,-16.0,-36.0,-916.0,347.0
-8.0,-235.0,57.0,-90.0,46.0,-15.0,-40.0,-921.0,352.0
-5.0,-231.0,62.0,-90.0,43.0,-12.0,-38.0,-919.0,342.0
-9.0,-234.0,60.0,-89.0,40.0,-10.0,-36.0,-919.0,346.0
-9.0,-235.0,56.0,-88.0,37.0,-9.0,-36.0,-917.0,345.0
-10.0,-236.0,54.0,-85.0,33.0,-8.0,-43.0,-921.0,348.0
-12.0,-233.0,53.0,-80.0,30.0,-6.0,-41.0,-917.0,347.0
-7.0,-235.0,59.0,-77.0,25.0,-6.0,-34.0,-918.0,348.0
-10.0,-234.0,57.0,-74.0,22.0,-5.0,-33.0,-915.0,352.0
-11.0,-235.0,63.0,-72.0,20.0,-5.0,-37.0,-916.0,349.0
-7.0,-235.0,53.0,-68.0,17.0,-5.0,-30.0,-916.0,349.0
-8.0,-236.0,60.0,-67.0,16.0,-5.0,-33.0,-917.0,355.0
-7.0,-236.0,57.0,-58.0,14.0,-5.0,-31.0,-912.0,359.0
-10.0,-237.0,64.0,-51.0,13.0,-3.0,-32.0,-913.0,359.0
-7.0,-233.0,59.0,-45.0,11.0,-1.0,-32.0,-907.0,353.0
-8.0,-233.0,58.0,-38.0,11.0,-2.0,-32.0,-909.0,356.0
-8.0,-235.0,57.0,-36.0,10.0,-5.0,-33.0,-905.0,358.0
-9.0,-229.0,60.0,-38.0,9.0,-5.0,-31.0,-902.0,356.0
-8.0,-230.0,61.0,-38.0,6.0,-6.0,-30.0,-904.0,360.0
-7.0,-236.0,60.0,-39.0,8.0,-9.0,-28.0,-905.0,365.0
-9.0,-231.0,59.0,-41.0,8.0,-9.0,-27.0,-911.0,365.0
-4.0,-238.0,60.0,-42.0,8.0,-9.0,-25.0,-910.0,365.0
-7.0,-230.0,61.0,-40.0,7.0,-12.0,-22.0,-915.0,371.0
-6.0,-236.0,60.0,-36.0,5.0,-10.0,-28.0,-926.0,369.0
-7.0,-232.0,49.0,-30.0,4.0,-10.0,-17.0,-920.0,368.0
-4.0,-237.0,63.0,-21.0,2.0,-8.0,-18.0,-917.0,363.0
-4.0,-236.0,62.0,-13.0,-1.0,-7.0,-18.0,-918.0,366.0
-3.0,-236.0,62.0,-6.0,-2.0,-5.0,-16.0,-920.0,365.0
-5.0,-236.0,63.0,-2.0,-4.0,-4.0,-17.0,-918.0,366.0
-3.0,-234.0,62.0,-1.0,-4.0,-4.0,-14.0,-919.0,369.0
-3.0,-237.0,64.0,-1.0,-5.0,-4.0,-21.0,-921.0,374.0
-5.0,-236.0,63.0,4.0,-5.0,-4.0,-15.0,-916.0,369.0
-10.0,-235.0,63.0,7.0,-4.0,-7.0,-19.0,-921.0,370.0
-2.0,-234.0,64.0,9.0,-4.0,-10.0,-14.0,-916.0,372.0
-2.0,-234.0,62.0,13.0,-4.0,-11.0,-18.0,-914.0,370.0
-4.0,-231.0,64.0,15.0,-2.0,-14.0,-17.0,-911.0,372.0
-3.0,-229.0,64.0,17.0,-3.0,-14.0,-18.0,-909.0,370.0
-4.0,-233.0,63.0,16.0,-3.0,-15.0,-15.0,-906.0,376.0
-7.0,-231.0,63.0,13.0,-5.0,-14.0,-18.0,-909.0,372.0
-4.0,-232.0,62.0,9.0,-5.0,-12.0,-13.0,-911.0,371.0
-4.0,-234.0,61.0,5.0,-6.0,-10.0,-11.0,-914.0,372.0
-1.0,-233.0,63.0,2.0,-9.0,-8.0,-13.0,-912.0,375.0
2.0,-237.0,63.0,-2.0,-11.0,-8.0,-7.0,-917.0,374.0
-3.0,-233.0,67.0,-3.0,-12.0,-6.0,-9.0,-916.0,376.0
-4.0,-236.0,61.0,-3.0,-14.0,-5.0,-7.0,-918.0,379.0
1.0,-231.0,64.0,-1.0,-15.0,-6.0,-8.0,-920.0,376.0
-1.0,-230.0,66.0,1.0,-16.0,-6.0,-8.0,-918.0,379.0
-2.0,-235.0,61.0,2.0,-19.0,-6.0,-7.0,-910.0,373.0
-1.0,-232.0,60.0,3.0,-18.0,-5.0,-6.0,-911.0,374.0
-1.0,-232.0,60.0,2.0,-18.0,-7.0,-10.0,-907.0,370.0
-1.0,-232.0,60.0,1.0,-18.0,-7.0,-6.0,-907.0,368.0
-3.0,-231.0,60.0,2.0,-17.0,-5.0,-16.0,-906.0,369.0
-4.0,-231.0,62.0,-1.0,-17.0,-6.0,-13.0,-905.0,374.0
-2.0,-232.0,64.0,-2.0,-16.0,-5.0,-11.0,-907.0,374.0
0.0,-230.0,61.0,-4.0,-16.0,-5.0,-11.0,-905.0,374.0
-3.0,-232.0,64.0,-3.0,-14.0,-5.0,-13.0,-906.0,377.0
-3.0,-233.0,59.0,-3.0,-13.0,-5.0,-11.0,-906.0,373.0
-6.0,-234.0,59.0,-6.0,-10.0,-5.0,-7.0,-906.0,377.0
0.0,-229.0,63.0,-7.0,-9.0,-5.0,-3.0,-903.0,380.0
0.0,-231.0,59.0,-5.0,-8.0,-5.0,-4.0,-908.0,378.0
-3.0,-229.0,65.0,-4.0,-8.0,-5.0,-5.0,-900.0,379.0
-1.0,-231.0,63.0,-2.0,-8.0,-7.0,-1.0,-903.0,377.0
0.0,-234.0,62.0,-2.0,-8.0,-8.0,-6.0,-905.0,379.0
-4.0,-231.0,60.0,-2.0,-8.0,-8.0,-11.0,-903.0,379.0
-4.0,-233.0,58.0,-3.0,-9.0,-7.0,-13.0,-898.0,380.0
-4.0,-231.0,65.0,-6.0,-10.0,-6.0,-21.0,-904.0,378.0
-5.0,-228.0,65.0,-9.0,-10.0,-5.0,-16.0,-901.0,378.0
1.0,-230.0,64.0,-12.0,-14.0,-3.0,-17.0,-902.0,380.0
-5.0,-230.0,64.0,-14.0,-15.0,-2.0,-12.0,-902.0,380.0
-5.0,-230.0,63.0,-16.0,-15.0,0.0,-15.0,-906.0,380.0
-2.0,-231.0,67.0,-19.0,-17.0,1.0,-9.0,-904.0,379.0
-4.0,-229.0,66.0,-19.0,-18.0,2.0,-13.0,-904.0,383.0
-3.0,-233.0,65.0,-19.0,-20.0,3.0,-18.0,-906.0,387.0
-1.0,-232.0,66.0,-19.0,-21.0,4.0,-12.0,-906.0,390.0
-3.0,-234.0,61.0,-19.0,-22.0,3.0,-7.0,-910.0,387.0
-5.0,-235.0,64.0,-18.0,-24.0,5.0,-14.0,-910.0,390.0
-4.0,-230.0,69.0,-16.0,-26.0,8.0,-12.0,-909.0,383.0
-6.0,-232.0,61.0,-16.0,-30.0,10.0,-29.0,-908.0,383.0
-2.0,-232.0,68.0,-17.0,-33.0,10.0,-22.0,-909.0,381.0
-4.0,-233.0,67.0,-19.0,-36.0,13.0,-25.0,-909.0,377.0
-5.0,-229.0,65.0,-22.0,-37.0,15.0,-28.0,-907.0,381.0
-8.0,-230.0,63.0,-29.0,-37.0,17.0,-29.0,-904.0,379.0
-6.0,-232.0,65.0,-33.0,-38.0,21.0,-30.0,-907.0,375.0
-5.0,-233.0,60.0,-39.0,-41.0,21.0,-23.0,-905.0,376.0
-5.0,-232.0,60.0,-46.0,-40.0,24.0,-22.0,-903.0,379.0
-6.0,-232.0,58.0,-51.0,-42.0,26.0,-18.0,-910.0,375.0
-6.0,-232.0,63.0,-52.0,-43.0,27.0,-24.0,-914.0,375.0
-6.0,-237.0,62.0,-52.0,-46.0,27.0,-23.0,-911.0,377.0
-6.0,-230.0,65.0,-48.0,-46.0,29.0,-16.0,-916.0,376.0
-6.0,-233.0,63.0,-42.0,-48.0,29.0,-16.0,-911.0,382.0
-4.0,-232.0,62.0,-36.0,-48.0,29.0,-18.0,-914.0,380.0
-4.0,-235.0,64.0,-32.0,-48.0,29.0,-18.0,-911.0,378.0
-3.0,-232.0,63.0,-29.0,-48.0,30.0,-19.0,-908.0,380.0
-1.0,-232.0,63.0,-25.0,-47.0,29.0,-16.0,-910.0,377.0
-3.0,-230.0,60.0,-24.0,-46.0,28.0,-11.0,-901.0,376.0
-5.0,-231.0,63.0,-25.0,-44.0,29.0,-17.0,-903.0,370.0
-6.0,-231.0,64.0,-27.0,-41.0,29.0,-13.0,-904.0,369.0
-3.0,-230.0,66.0,-32.0,-38.0,29.0,-12.0,-903.0,370.0
-1.0,-230.0,56.0,-35.0,-37.0,30.0,-14.0,-905.0,366.0
-8.0,-230.0,60.0,-37.0,-35.0,29.0,-16.0,-907.0,368.0
0.0,-230.0,61.0,-40.0,-35.0,29.0,-15.0,-898.0,368.0
-4.0,-231.0,58.0,-41.0,-33.0,30.0,-15.0,-903.0,365.0
-5.0,-232.0,57.0,-42.0,-30.0,30.0,-17.0,-905.0,369.0
-3.0,-232.0,59.0,-44.0,-28.0,31.0,-15.0,-904.0,360.0
-3.0,-234.0,61.0,-46.0,-26.0,31.0,-20.0,-905.0,360.0
-3.0,-230.0,59.0,-49.0,-24.0,32.0,-18.0,-907.0,363.0
-2.0,-234.0,59.0,-51.0,-21.0,30.0,-16.0,-916.0,362.0
-5.0,-236.0,59.0,-55.0,-21.0,30.0,-15.0,-910.0,359.0
-6.0,-233.0,61.0,-58.0,-20.0,30.0,-17.0,-911.0,358.0
-6.0,-234.0,60.0,-61.0,-21.0,30.0,-12.0,-913.0,359.0
-5.0,-236.0,55.0,-62.0,-20.0,30.0,-14.0,-917.0,364.0
-3.0,-231.0,57.0,-65.0,-18.0,31.0,-15.0,-915.0,357.0
-6.0,-232.0,56.0,-64.0,-17.0,29.0,-21.0,-921.0,362.0
-3.0,-237.0,59.0,-64.0,-17.0,26.0,-22.0,-920.0,357.0
-4.0,-236.0,60.0,-61.0,-17.0,25.0,-18.0,-918.0,357.0
-2.0,-236.0,60.0,-59.0,-16.0,27.0,-14.0,-918.0,359.0
-6.0,-236.0,61.0,-55.0,-15.0,25.0,-18.0,-918.0,360.0
-3.0,-236.0,57.0,-53.0,-12.0,24.0,-20.0,-918.0,355.0
-4.0,-232.0,57.0,-51.0,-10.0,24.0,-20.0,-919.0,352.0
-1.0,-235.0,58.0,-53.0,-6.0,23.0,-17.0,-913.0,361.0
-6.0,-234.0,60.0,-54.0,-4.0,21.0,-19.0,-927.0,360.0
-2.0,-231.0,57.0,-53.0,-1.0,23.0,-17.0,-918.0,359.0
-2.0,-232.0,58.0,-54.0,1.0,22.0,-11.0,-918.0,363.0
-4.0,-233.0,62.0,-53.0,2.0,21.0,-18.0,-921.0,364.0
-2.0,-234.0,58.0,-52.0,2.0,20.0,-21.0,-918.0,361.0
-2.0,-236.0,60.0,-54.0,5.0,19.0,-16.0,-914.0,364.0
-5.0,-233.0,61.0,-54.0,7.0,17.0,-14.0,-916.0,366.0
-6.0,-236.0,61.0,-55.0,9.0,14.0,-18.0,-913.0,363.0
-4.0,-231.0,64.0,-52.0,10.0,12.0,-20.0,-916.0,367.0
-4.0,-235.0,57.0,-51.0,11.0,11.0,-20.0,-910.0,365.0
-3.0,-230.0,62.0,-50.0,14.0,11.0,-14.0,-915.0,369.0
-6.0,-235.0,60.0,-48.0,17.0,8.0,-9.0,-915.0,375.0
-7.0,-233.0,63.0,-46.0,15.0,7.0,-10.0,-912.0,384.0
-3.0,-230.0,62.0,-43.0,17.0,6.0,-18.0,-914.0,382.0
-4.0,-230.0,62.0,-41.0,16.0,6.0,-8.0,-913.0,379.0
-3.0,-233.0,62.0,-38.0,16.0,4.0,-20.0,-910.0,378.0
-5.0,-231.0,62.0,-35.0,15.0,1.0,-23.0,-902.0,381.0
-4.0,-230.0,63.0,-36.0,17.0,0.0,-18.0,-899.0,380.0
-6.0,-229.0,61.0,-37.0,19.0,-1.0,-24.0,-899.0,384.0
-6.0,-227.0,65.0,-41.0,20.0,-3.0,-20.0,-898.0,380.0
-5.0,-229.0,67.0,-44.0,23.0,-3.0,-26.0,-896.0,388.0
-3.0,-230.0,65.0,-49.0,25.0,-4.0,-17.0,-899.0,377.0
-3.0,-231.0,64.0,-53.0,29.0,-2.0,-15.0,-897.0,382.0
-6.0,-230.0,62.0,-58.0,32.0,-1.0,-17.0,-906.0,375.0
-4.0,-234.0,63.0,-62.0,33.0,-2.0,-25.0,-910.0,384.0
-6.0,-233.0,65.0,-64.0,34.0,0.0,-19.0,-913.0,380.0
-1.0,-236.0,64.0,-64.0,37.0,1.0,-19.0,-916.0,380.0
-4.0,-236.0,64.0,-65.0,38.0,2.0,-16.0,-919.0,382.0
-6.0,-234.0,66.0,-67.0,40.0,1.0,-13.0,-921.0,380.0
-2.0,-235.0,66.0,-67.0,44.0,2.0,-11.0,-922.0,383.0
2.0,-235.0,65.0,-63.0,49.0,-2.0,-3.0,-922.0,390.0
2.0,-233.0,66.0,-56.0,53.0,-6.0,0.0,-915.0,384.0
4.0,-237.0,71.0,-46.0,61.0,-10.0,5.0,-916.0,392.0
1.0,-234.0,68.0,-33.0,68.0,-17.0,5.0,-919.0,395.0
0.0,-237.0,67.0,-19.0,73.0,-25.0,0.0,-917.0,405.0
-7.0,-235.0,70.0,-5.0,75.0,-34.0,2.0,-914.0,404.0
2.0,-236.0,71.0,13.0,78.0,-40.0,-3.0,-917.0,407.0
2.0,-233.0,72.0,26.0,78.0,-46.0,-5.0,-913.0,413.0
-5.0,-233.0,72.0,37.0,79.0,-50.0,-15.0,-917.0,414.0
-4.0,-233.0,74.0,48.0,79.0,-52.0,-21.0,-915.0,409.0
-5.0,-230.0,70.0,53.0,78.0,-52.0,-18.0,-915.0,411.0
-5.0,-232.0,69.0,57.0,80.0,-53.0,-15.0,-908.0,402.0
-2.0,-230.0,68.0,56.0,81.0,-53.0,-15.0,-908.0,395.0
-3.0,-230.0,67.0,56.0,80.0,-53.0,-14.0,-908.0,394.0
-3.0,-235.0,65.0,53.0,82.0,-55.0,-18.0,-918.0,382.0
4.0,-232.0,66.0,47.0,83.0,-54.0,-15.0,-920.0,377.0
-3.0,-236.0,62.0,42.0,84.0,-54.0,-13.0,-916.0,374.0
-6.0,-235.0,59.0,33.0,85.0,-53.0,-14.0,-919.0,365.0
-5.0,-236.0,59.0,21.0,88.0,-49.0,-18.0,-920.0,361.0
-4.0,-236.0,57.0,11.0,91.0,-45.0,-24.0,-926.0,361.0
-3.0,-240.0,54.0,4.0,92.0,-40.0,-18.0,-931.0,357.0
-5.0,-239.0,58.0,-5.0,94.0,-37.0,-23.0,-929.0,354.0
-7.0,-240.0,58.0,-12.0,98.0,-33.0,-19.0,-937.0,357.0
-8.0,-242.0,55.0,-13.0,99.0,-31.0,-16.0,-935.0,357.0
-4.0,-237.0,57.0,-10.0,100.0,-26.0,-24.0,-932.0,356.0
-7.0,-238.0,60.0,-1.0,103.0,-23.0,-28.0,-929.0,351.0
-9.0,-234.0,51.0,7.0,106.0,-21.0,-25.0,-925.0,348.0
-8.0,-232.0,51.0,15.0,109.0,-19.0,-26.0,-907.0,338.0
-6.0,-228.0,51.0,18.0,108.0,-18.0,-24.0,-900.0,333.0
-5.0,-220.0,48.0,12.0,109.0,-17.0,-25.0,-880.0,327.0
-7.0,-218.0,52.0,0.0,107.0,-16.0,-22.0,-858.0,329.0
-6.0,-214.0,50.0,-16.0,110.0,-14.0,-19.0,-846.0,330.0
-7.0,-212.0,53.0,-36.0,112.0,-12.0,-29.0,-832.0,330.0
-7.0,-209.0,55.0,-58.0,115.0,-10.0,-29.0,-832.0,336.0
-10.0,-215.0,53.0,-81.0,119.0,-6.0,-29.0,-830.0,347.0
-11.0,-214.0,51.0,-102.0,121.0,-3.0,-43.0,-838.0,336.0
-8.0,-215.0,55.0,-124.0,117.0,1.0,-38.0,-850.0,353.0
-15.0,-224.0,45.0,-142.0,117.0,2.0,-38.0,-853.0,350.0
-11.0,-220.0,53.0,-161.0,113.0,6.0,-43.0,-861.0,342.0
-11.0,-221.0,57.0,-177.0,108.0,8.0,-46.0,-869.0,339.0
-11.0,-225.0,54.0,-195.0,100.0,11.0,-47.0,-884.0,342.0
-14.0,-227.0,52.0,-215.0,93.0,15.0,-51.0,-887.0,336.0
-14.0,-227.0,52.0,-231.0,85.0,15.0,-51.0,-889.0,339.0
-14.0,-228.0,58.0,-249.0,75.0,15.0,-56.0,-895.0,336.0
-13.0,-227.0,54.0,-264.0,67.0,14.0,-51.0,-898.0,336.0
-14.0,-229.0,51.0,-281.0,58.0,12.0,-53.0,-894.0,335.0
-14.0,-228.0,57.0,-296.0,53.0,11.0,-57.0,-898.0,343.0
-16.0,-232.0,57.0,-304.0,45.0,7.0,-55.0,-906.0,340.0
-15.0,-231.0,56.0,-309.0,37.0,4.0,-60.0,-909.0,350.0
-16.0,-235.0,54.0,-309.0,27.0,2.0,-60.0,-914.0,348.0
-16.0,-233.0,54.0,-309.0,17.0,0.0,-58.0,-915.0,343.0
-17.0,-234.0,52.0,-306.0,6.0,1.0,-60.0,-913.0,349.0
-19.0,-234.0,58.0,-300.0,-8.0,5.0,-66.0,-920.0,355.0
-19.0,-238.0,60.0,-292.0,-22.0,7.0,-67.0,-929.0,357.0
-21.0,-240.0,59.0,-282.0,-40.0,8.0,-67.0,-922.0,361.0
-17.0,-235.0,57.0,-269.0,-59.0,11.0,-68.0,-927.0,358.0
-19.0,-239.0,59.0,-257.0,-72.0,12.0,-70.0,-925.0,366.0
-18.0,-240.0,59.0,-243.0,-90.0,17.0,-64.0,-928.0,366.0
-18.0,-238.0,62.0,-229.0,-107.0,17.0,-68.0,-927.0,366.0
-18.0,-232.0,59.0,-213.0,-120.0,18.0,-63.0,-926.0,374.0
-17.0,-239.0,63.0,-196.0,-131.0,17.0,-57.0,-921.0,382.0
-13.0,-238.0,63.0,-179.0,-141.0,15.0,-49.0,-925.0,385.0
-14.0,-236.0,65.0,-159.0,-145.0,14.0,-51.0,-921.0,384.0
-13.0,-236.0,63.0,-141.0,-149.0,12.0,-46.0,-925.0,381.0
-9.0,-236.0,70.0,-128.0,-152.0,12.0,-39.0,-922.0,386.0
-6.0,-237.0,68.0,-115.0,-148.0,13.0,-32.0,-921.0,390.0
-5.0,-232.0,67.0,-104.0,-145.0,15.0,-21.0,-909.0,391.0
-2.0,-234.0,64.0,-100.0,-141.0,17.0,-13.0,-906.0,384.0
-3.0,-232.0,66.0,-98.0,-135.0,22.0,-1.0,-905.0,384.0
0.0,-231.0,61.0,-96.0,-130.0,28.0,8.0,-896.0,379.0
10.0,-234.0,63.0,-96.0,-125.0,33.0,11.0,-899.0,391.0
3.0,-229.0,59.0,-96.0,-117.0,33.0,17.0,-895.0,391.0
7.0,-230.0,64.0,-91.0,-108.0,33.0,27.0,-897.0,393.0
8.0,-227.0,70.0,-85.0,-99.0,27.0,25.0,-897.0,394.0
10.0,-230.0,66.0,-77.0,-86.0,22.0,34.0,-899.0,400.0
12.0,-228.0,66.0,-67.0,-73.0,16.0,36.0,-899.0,400.0
10.0,-230.0,67.0,-59.0,-60.0,10.0,36.0,-896.0,394.0
9.0,-224.0,66.0,-55.0,-45.0,3.0,31.0,-891.0,384.0
5.0,-228.0,61.0,-55.0,-33.0,-2.0,33.0,-891.0,382.0
10.0,-225.0,61.0,-56.0,-21.0,-8.0,30.0,-892.0,377.0
6.0,-229.0,61.0,-59.0,-10.0,-12.0,26.0,-891.0,380.0
4.0,-221.0,60.0,-61.0,1.0,-18.0,17.0,-900.0,372.0
2.0,-229.0,62.0,-64.0,10.0,-25.0,9.0,-902.0,377.0
2.0,-231.0,62.0,-64.0,18.0,-32.0,9.0,-906.0,374.0
3.0,-233.0,62.0,-67.0,25.0,-38.0,9.0,-907.0,372.0
-2.0,-232.0,68.0,-69.0,30.0,-44.0,1.0,-907.0,375.0
0.0,-235.0,63.0,-70.0,33.0,-52.0,-1.0,-916.0,372.0
-1.0,-235.0,65.0,-72.0,35.0,-62.0,-2.0,-914.0,374.0
0.0,-231.0,60.0,-68.0,40.0,-70.0,2.0,-913.0,374.0
-1.0,-235.0,59.0,-64.0,44.0,-79.0,-2.0,-911.0,360.0
-1.0,-229.0,60.0,-60.0,48.0,-86.0,-4.0,-910.0,355.0
-3.0,-231.0,46.0,-62.0,54.0,-92.0,-10.0,-901.0,335.0
-8.0,-237.0,49.0,-70.0,59.0,-96.0,-15.0,-899.0,327.0
-2.0,-229.0,48.0,-84.0,63.0,-98.0,-18.0,-895.0,324.0
-7.0,-227.0,46.0,-99.0,66.0,-98.0,-26.0,-903.0,315.0
-8.0,-231.0,49.0,-116.0,65.0,-98.0,-28.0,-903.0,313.0
-6.0,-232.0,50.0,-132.0,66.0,-95.0,-31.0,-911.0,319.0
-10.0,-235.0,47.0,-141.0,63.0,-93.0,-34.0,-912.0,315.0
-11.0,-236.0,52.0,-150.0,58.0,-92.0,-35.0,-911.0,327.0
-9.0,-235.0,48.0,-159.0,51.0,-90.0,-40.0,-921.0,322.0
-9.0,-235.0,49.0,-169.0,45.0,-86.0,-43.0,-916.0,318.0
-13.0,-237.0,49.0,-176.0,40.0,-81.0,-41.0,-919.0,315.0
-11.0,-237.0,46.0,-181.0,37.0,-78.0,-42.0,-918.0,312.0
-13.0,-238.0,41.0,-188.0,33.0,-72.0,-42.0,-912.0,313.0
-8.0,-232.0,43.0,-196.0,31.0,-68.0,-39.0,-907.0,310.0
-7.0,-233.0,43.0,-206.0,30.0,-62.0,-36.0,-912.0,303.0
-6.0,-234.0,46.0,-214.0,29.0,-58.0,-30.0,-910.0,302.0
-6.0,-234.0,43.0,-221.0,29.0,-51.0,-26.0,-912.0,295.0
-5.0,-234.0,39.0,-231.0,26.0,-47.0,-18.0,-913.0,297.0
-5.0,-233.0,43.0,-242.0,25.0,-41.0,-21.0,-913.0,299.0
-4.0,-228.0,46.0,-251.0,21.0,-33.0,-13.0,-907.0,310.0
-4.0,-232.0,42.0,-259.0,13.0,-27.0,-21.0,-907.0,305.0
-2.0,-235.0,47.0,-272.0,5.0,-21.0,-13.0,-909.0,306.0
-8.0,-230.0,46.0,-276.0,-2.0,-15.0,-11.0,-906.0,308.0
3.0,-227.0,43.0,-284.0,-11.0,-7.0,-11.0,-902.0,311.0
-1.0,-233.0,47.0,-296.0,-17.0,-1.0,-10.0,-907.0,315.0
-2.0,-231.0,49.0,-303.0,-19.0,3.0,-4.0,-908.0,324.0
1.0,-231.0,48.0,-308.0,-24.0,7.0,3.0,-900.0,326.0
1.0,-230.0,52.0,-317.0,-30.0,12.0,1.0,-903.0,330.0
-2.0,-227.0,55.0,-326.0,-33.0,15.0,3.0,-901.0,330.0
2.0,-235.0,55.0,-338.0,-35.0,20.0,4.0,-910.0,336.0
1.0,-239.0,57.0,-337.0,-35.0,24.0,1.0,-917.0,352.0
-2.0,-231.0,54.0,-327.0,-34.0,28.0,0.0,-915.0,351.0
0.0,-240.0,60.0,-324.0,-43.0,36.0,1.0,-922.0,350.0
-5.0,-238.0,53.0,-322.0,-50.0,42.0,-3.0,-918.0,350.0
-1.0,-238.0,52.0,-322.0,-57.0,47.0,-4.0,-915.0,343.0
-1.0,-238.0,56.0,-325.0,-63.0,54.0,-3.0,-927.0,336.0
0.0,-240.0,53.0,-322.0,-69.0,60.0,0.0,-929.0,338.0
0.0,-242.0,53.0,-325.0,-75.0,64.0,-3.0,-938.0,334.0
-1.0,-242.0,48.0,-330.0,-80.0,67.0,-6.0,-943.0,332.0
-1.0,-245.0,52.0,-339.0,-82.0,69.0,0.0,-952.0,332.0
0.0,-243.0,50.0,-346.0,-83.0,69.0,0.0,-959.0,339.0
-5.0,-244.0,55.0,-347.0,-83.0,68.0,-14.0,-961.0,337.0
-3.0,-249.0,55.0,-345.0,-83.0,67.0,-7.0,-972.0,340.0
-5.0,-250.0,52.0,-338.0,-83.0,66.0,-12.0,-964.0,346.0
-1.0,-249.0,59.0,-321.0,-83.0,65.0,-8.0,-969.0,348.0
-3.0,-249.0,58.0,-301.0,-80.0,61.0,-12.0,-970.0,352.0
-3.0,-245.0,55.0,-274.0,-77.0,58.0,-13.0,-968.0,352.0
-2.0,-245.0,56.0,-250.0,-75.0,53.0,-15.0,-968.0,346.0
1.0,-245.0,53.0,-220.0,-66.0,49.0,-8.0,-957.0,349.0
-1.0,-243.0,57.0,-201.0,-61.0,47.0,-16.0,-946.0,353.0
-2.0,-244.0,57.0,-191.0,-60.0,44.0,-6.0,-953.0,340.0
2.0,-241.0,53.0,-186.0,-55.0,39.0,-8.0,-936.0,348.0
3.0,-238.0,59.0,-190.0,-53.0,39.0,4.0,-932.0,339.0
5.0,-241.0,56.0,-198.0,-46.0,35.0,10.0,-941.0,344.0
7.0,-239.0,51.0,-202.0,-33.0,33.0,21.0,-941.0,336.0
5.0,-235.0,59.0,-210.0,-25.0,35.0,30.0,-948.0,333.0
8.0,-239.0,53.0,-217.0,-12.0,40.0,36.0,-943.0,331.0
8.0,-240.0,48.0,-222.0,-5.0,48.0,31.0,-935.0,330.0
8.0,-240.0,49.0,-229.0,0.0,58.0,24.0,-930.0,323.0
2.0,-235.0,46.0,-243.0,2.0,68.0,17.0,-929.0,319.0
1.0,-241.0,46.0,-262.0,4.0,77.0,9.0,-941.0,308.0
4.0,-245.0,41.0,-279.0,7.0,84.0,16.0,-954.0,301.0
4.0,-246.0,43.0,-290.0,10.0,88.0,15.0,-966.0,299.0
4.0,-247.0,41.0,-296.0,14.0,90.0,15.0,-975.0,287.0
5.0,-254.0,39.0,-300.0,18.0,90.0,16.0,-984.0,276.0
4.0,-257.0,38.0,-303.0,19.0,91.0,22.0,-996.0,271.0
5.0,-260.0,39.0,-306.0,20.0,90.0,27.0,-1009.0,266.0
9.0,-260.0,34.0,-302.0,26.0,90.0,27.0,-1017.0,265.0
6.0,-262.0,36.0,-294.0,33.0,89.0,23.0,-1031.0,272.0
4.0,-265.0,38.0,-282.0,39.0,88.0,16.0,-1035.0,270.0
2.0,-262.0,33.0,-270.0,51.0,84.0,9.0,-1031.0,273.0
0.0,-259.0,38.0,-267.0,63.0,80.0,4.0,-1022.0,272.0
-3.0,-254.0,34.0,-281.0,78.0,74.0,-14.0,-988.0,271.0
-7.0,-251.0,38.0,-312.0,91.0,67.0,-33.0,-980.0,270.0
-16.0,-245.0,38.0,-357.0,108.0,58.0,-43.0,-975.0,285.0
-14.0,-244.0,39.0,-402.0,124.0,50.0,-59.0,-961.0,281.0
-18.0,-238.0,43.0,-452.0,135.0,43.0,-69.0,-946.0,290.0
-21.0,-239.0,35.0,-499.0,142.0,37.0,-76.0,-935.0,291.0
-19.0,-238.0,43.0,-541.0,141.0,35.0,-78.0,-927.0,289.0
-17.0,-234.0,40.0,-572.0,143.0,37.0,-61.0,-919.0,293.0
-14.0,-236.0,43.0,-595.0,147.0,48.0,-49.0,-912.0,294.0
-11.0,-226.0,42.0,-619.0,144.0,65.0,-49.0,-908.0,293.0
-15.0,-226.0,40.0,-663.0,138.0,87.0,-49.0,-906.0,281.0
-11.0,-223.0,31.0,-734.0,118.0,113.0,-49.0,-900.0,258.0
-13.0,-229.0,26.0,-822.0,88.0,136.0,-48.0,-911.0,226.0
-13.0,-241.0,17.0,-911.0,60.0,156.0,-45.0,-933.0,205.0
-10.0,-247.0,13.0,-980.0,33.0,172.0,-51.0,-967.0,176.0
-11.0,-260.0,3.0,-1019.0,12.0,186.0,-54.0,-1002.0,153.0
-17.0,-269.0,10.0,-1024.0,10.0,194.0,-67.0,-1047.0,148.0
-14.0,-279.0,4.0,-1002.0,16.0,196.0,-65.0,-1081.0,131.0
-15.0,-280.0,3.0,-963.0,17.0,188.0,-64.0,-1092.0,140.0
-17.0,-278.0,8.0,-911.0,16.0,175.0,-60.0,-1083.0,153.0
-2.0,-276.0,13.0,-859.0,31.0,167.0,-15.0,-1077.0,173.0
-3.0,-267.0,17.0,-813.0,48.0,148.0,-16.0,-1049.0,198.0
4.0,-261.0,16.0,-787.0,60.0,128.0,6.0,-1024.0,204.0
3.0,-245.0,21.0,-788.0,69.0,115.0,16.0,-982.0,209.0
10.0,-238.0,25.0,-822.0,59.0,106.0,22.0,-940.0,214.0
5.0,-224.0,18.0,-886.0,40.0,103.0,22.0,-895.0,206.0
10.0,-212.0,11.0,-979.0,20.0,114.0,25.0,-876.0,186.0
-1.0,-212.0,9.0,-1094.0,0.0,133.0,7.0,-845.0,166.0
5.0,-220.0,-14.0,-1226.0,-14.0,150.0,16.0,-869.0,87.0
-5.0,-226.0,-19.0,-1355.0,3.0,161.0,-30.0,-895.0,63.0
-10.0,-241.0,-23.0,-1453.0,32.0,167.0,-37.0,-935.0,41.0
-6.0,-257.0,-31.0,-1488.0,63.0,173.0,-39.0,-982.0,11.0
-11.0,-269.0,-35.0,-1452.0,92.0,175.0,-46.0,-1030.0,8.0
-17.0,-275.0,-31.0,-1364.0,120.0,170.0,-66.0,-1061.0,9.0
-10.0,-283.0,-29.0,-1247.0,142.0,161.0,-54.0,-1074.0,16.0
-9.0,-283.0,-24.0,-1125.0,152.0,146.0,-46.0,-1085.0,29.0
-8.0,-284.0,-25.0,-1011.0,155.0,133.0,-43.0,-1094.0,36.0
-7.0,-292.0,-17.0,-910.0,153.0,119.0,-37.0,-1097.0,45.0
-7.0,-286.0,-22.0,-820.0,164.0,105.0,-35.0,-1100.0,67.0
-12.0,-281.0,-15.0,-746.0,176.0,92.0,-33.0,-1089.0,73.0
-8.0,-281.0,-17.0,-688.0,180.0,85.0,-30.0,-1088.0,70.0
-13.0,-280.0,-10.0,-643.0,172.0,79.0,-50.0,-1076.0,84.0
-5.0,-280.0,-15.0,-597.0,157.0,72.0,-27.0,-1083.0,64.0
-12.0,-276.0,-16.0,-557.0,155.0,56.0,-39.0,-1069.0,60.0
-8.0,-268.0,-21.0,-527.0,153.0,43.0,-43.0,-1041.0,55.0
-15.0,-262.0,-17.0,-515.0,153.0,34.0,-69.0,-1020.0,55.0
-10.0,-262.0,-27.0,-508.0,145.0,28.0,-45.0,-1024.0,28.0
-16.0,-259.0,-31.0,-506.0,150.0,20.0,-58.0,-1008.0,16.0
-18.0,-258.0,-28.0,-498.0,162.0,8.0,-70.0,-1004.0,4.0
-19.0,-259.0,-37.0,-475.0,172.0,7.0,-81.0,-999.0,-2.0
-20.0,-257.0,-35.0,-446.0,174.0,7.0,-87.0,-993.0,-3.0
-20.0,-256.0,-35.0,-413.0,171.0,10.0,-89.0,-998.0,-15.0
-20.0,-254.0,-40.0,-382.0,166.0,18.0,-70.0,-1001.0,-26.0
-18.0,-255.0,-40.0,-361.0,169.0,17.0,-69.0,-1000.0,-26.0
-18.0,-256.0,-35.0,-347.0,179.0,20.0,-72.0,-1002.0,-24.0
-17.0,-254.0,-45.0,-338.0,185.0,25.0,-70.0,-992.0,-30.0
-18.0,-251.0,-38.0,-346.0,189.0,30.0,-73.0,-980.0,-18.0
-17.0,-253.0,-43.0,-367.0,193.0,38.0,-72.0,-985.0,-17.0
-19.0,-259.0,-35.0,-385.0,197.0,46.0,-78.0,-994.0,-13.0
-17.0,-259.0,-40.0,-389.0,194.0,52.0,-70.0,-1005.0,-12.0
-19.0,-261.0,-38.0,-385.0,191.0,58.0,-71.0,-1011.0,-10.0
-16.0,-262.0,-39.0,-368.0,184.0,67.0,-70.0,-1015.0,-24.0
-13.0,-264.0,-46.0,-348.0,178.0,82.0,-54.0,-1026.0,-39.0
-17.0,-259.0,-45.0,-332.0,183.0,87.0,-65.0,-1017.0,-42.0
-20.0,-259.0,-45.0,-325.0,196.0,92.0,-73.0,-1014.0,-31.0
-18.0,-260.0,-47.0,-314.0,204.0,95.0,-72.0,-1010.0,-40.0
-19.0,-262.0,-50.0,-301.0,210.0,97.0,-76.0,-1006.0,-32.0
-18.0,-257.0,-44.0,-280.0,216.0,101.0,-76.0,-995.0,-38.0
-21.0,-254.0,-46.0,-260.0,219.0,109.0,-81.0,-985.0,-41.0
-16.0,-247.0,-46.0,-247.0,222.0,115.0,-78.0,-967.0,-38.0
-22.0,-249.0,-45.0,-241.0,219.0,123.0,-92.0,-971.0,-37.0
-19.0,-250.0,-40.0,-243.0,213.0,134.0,-79.0,-975.0,-26.0
-21.0,-249.0,-42.0,-240.0,209.0,144.0,-92.0,-970.0,-17.0
-20.0,-247.0,-37.0,-231.0,203.0,152.0,-85.0,-967.0,-16.0
-20.0,-245.0,-37.0,-225.0,197.0,163.0,-93.0,-948.0,-15.0
-20.0,-244.0,-40.0,-229.0,193.0,172.0,-96.0,-938.0,-14.0
-34.0,-235.0,-38.0,-236.0,191.0,179.0,-135.0,-913.0,-3.0
-20.0,-240.0,-39.0,-240.0,182.0,196.0,-94.0,-935.0,-36.0
-20.0,-246.0,-42.0,-254.0,180.0,196.0,-96.0,-937.0,-39.0
-19.0,-243.0,-44.0,-262.0,183.0,199.0,-92.0,-938.0,-35.0
-21.0,-241.0,-40.0,-261.0,185.0,206.0,-83.0,-936.0,-38.0
-20.0,-239.0,-41.0,-259.0,183.0,215.0,-92.0,-927.0,-20.0
-19.0,-242.0,-43.0,-259.0,178.0,226.0,-75.0,-937.0,-30.0
-20.0,-243.0,-41.0,-266.0,174.0,228.0,-78.0,-936.0,-32.0
-15.0,-243.0,-41.0,-272.0,173.0,227.0,-71.0,-937.0,-31.0
-16.0,-243.0,-42.0,-266.0,174.0,222.0,-69.0,-939.0,-32.0
-18.0,-238.0,-41.0,-258.0,174.0,221.0,-69.0,-928.0,-30.0
-17.0,-238.0,-44.0,-254.0,172.0,219.0,-68.0,-927.0,-35.0
-15.0,-239.0,-41.0,-259.0,172.0,214.0,-71.0,-927.0,-36.0
-20.0,-239.0,-46.0,-268.0,176.0,202.0,-78.0,-927.0,-35.0
-19.0,-240.0,-42.0,-271.0,183.0,188.0,-87.0,-930.0,-33.0
-21.0,-240.0,-39.0,-270.0,189.0,172.0,-104.0,-939.0,-35.0
-22.0,-243.0,-46.0,-267.0,193.0,166.0,-100.0,-940.0,-27.0
-25.0,-244.0,-41.0,-262.0,194.0,164.0,-113.0,-947.0,-36.0
-29.0,-238.0,-45.0,-266.0,190.0,170.0,-124.0,-934.0,-25.0
-25.0,-241.0,-43.0,-281.0,181.0,176.0,-106.0,-946.0,-33.0
-26.0,-244.0,-41.0,-299.0,183.0,165.0,-120.0,-948.0,-25.0
-27.0,-244.0,-38.0,-315.0,187.0,153.0,-122.0,-947.0,-21.0
-29.0,-245.0,-41.0,-324.0,188.0,150.0,-111.0,-966.0,-23.0
-28.0,-249.0,-43.0,-329.0,187.0,148.0,-118.0,-970.0,-39.0
-32.0,-247.0,-43.0,-332.0,190.0,139.0,-120.0,-971.0,-39.0
-26.0,-250.0,-44.0,-331.0,193.0,128.0,-123.0,-974.0,-43.0
-31.0,-249.0,-55.0,-325.0,199.0,120.0,-122.0,-970.0,-47.0
-33.0,-246.0,-46.0,-324.0,203.0,116.0,-133.0,-960.0,-43.0
-27.0,-246.0,-47.0,-331.0,196.0,115.0,-114.0,-971.0,-55.0
-29.0,-246.0,-49.0,-340.0,198.0,115.0,-118.0,-966.0,-54.0
-29.0,-247.0,-48.0,-357.0,203.0,111.0,-123.0,-969.0,-48.0
-28.0,-251.0,-48.0,-371.0,204.0,108.0,-117.0,-977.0,-44.0
-25.0,-256.0,-43.0,-378.0,206.0,111.0,-113.0,-991.0,-39.0
-21.0,-256.0,-44.0,-373.0,205.0,122.0,-108.0,-992.0,-38.0
-21.0,-256.0,-48.0,-363.0,200.0,140.0,-89.0,-999.0,-50.0
-18.0,-261.0,-45.0,-361.0,194.0,155.0,-87.0,-1009.0,-48.0
-20.0,-260.0,-48.0,-368.0,194.0,161.0,-72.0,-1013.0,-49.0
-14.0,-259.0,-41.0,-375.0,196.0,166.0,-72.0,-1012.0,-52.0
-18.0,-261.0,-47.0,-376.0,201.0,171.0,-70.0,-1016.0,-50.0
-20.0,-258.0,-45.0,-373.0,214.0,171.0,-78.0,-1003.0,-50.0
-20.0,-254.0,-46.0,-369.0,226.0,173.0,-74.0,-995.0,-45.0
-20.0,-253.0,-49.0,-370.0,240.0,169.0,-81.0,-1001.0,-47.0
-20.0,-259.0,-47.0,-381.0,253.0,159.0,-86.0,-1009.0,-46.0
-27.0,-256.0,-47.0,-391.0,265.0,148.0,-101.0,-1013.0,-50.0
-26.0,-263.0,-46.0,-390.0,276.0,139.0,-106.0,-1015.0,-58.0
-31.0,-261.0,-50.0,-381.0,282.0,131.0,-109.0,-1014.0,-64.0
-31.0,-259.0,-50.0,-364.0,287.0,128.0,-118.0,-1025.0,-64.0
-32.0,-261.0,-51.0,-346.0,293.0,128.0,-137.0,-1008.0,-64.0
-37.0,-257.0,-49.0,-332.0,292.0,134.0,-140.0,-999.0,-63.0
-38.0,-256.0,-50.0,-331.0,287.0,133.0,-146.0,-1003.0,-71.0
-39.0,-256.0,-50.0,-339.0,281.0,130.0,-159.0,-1001.0,-67.0
-38.0,-257.0,-53.0,-342.0,274.0,131.0,-168.0,-988.0,-71.0
-44.0,-255.0,-48.0,-336.0,266.0,128.0,-176.0,-994.0,-64.0
-47.0,-255.0,-47.0,-321.0,260.0,124.0,-184.0,-979.0,-72.0
-44.0,-252.0,-51.0,-307.0,252.0,121.0,-181.0,-985.0,-74.0
-47.0,-251.0,-51.0,-295.0,244.0,122.0,-190.0,-976.0,-78.0
-47.0,-253.0,-54.0,-276.0,237.0,125.0,-188.0,-973.0,-74.0
-39.0,-251.0,-50.0,-249.0,230.0,135.0,-164.0,-978.0,-91.0
-45.0,-256.0,-55.0,-216.0,227.0,138.0,-168.0,-992.0,-95.0
-42.0,-254.0,-58.0,-187.0,225.0,140.0,-179.0,-994.0,-98.0
-44.0,-258.0,-55.0,-160.0,220.0,142.0,-180.0,-1000.0,-91.0
-42.0,-256.0,-53.0,-133.0,213.0,145.0,-173.0,-998.0,-78.0
-42.0,-256.0,-53.0,-103.0,203.0,149.0,-158.0,-993.0,-78.0
-34.0,-256.0,-52.0,-69.0,196.0,157.0,-147.0,-982.0,-77.0
-32.0,-253.0,-50.0,-34.0,188.0,166.0,-147.0,-969.0,-65.0
-32.0,-251.0,-51.0,-3.0,182.0,172.0,-125.0,-967.0,-71.0
-32.0,-246.0,-50.0,21.0,180.0,168.0,-131.0,-955.0,-72.0
-31.0,-244.0,-50.0,40.0,175.0,164.0,-123.0,-954.0,-63.0
-27.0,-243.0,-44.0,55.0,171.0,159.0,-123.0,-938.0,-60.0
-26.0,-237.0,-48.0,67.0,167.0,153.0,-115.0,-926.0,-63.0
-21.0,-238.0,-51.0,73.0,169.0,141.0,-110.0,-919.0,-55.0
-22.0,-235.0,-44.0,65.0,180.0,135.0,-105.0,-913.0,-50.0
-22.0,-235.0,-50.0,44.0,193.0,134.0,-108.0,-916.0,-45.0
-29.0,-238.0,-43.0,30.0,202.0,135.0,-118.0,-918.0,-43.0
-23.0,-237.0,-47.0,30.0,202.0,139.0,-122.0,-917.0,-55.0
-28.0,-242.0,-51.0,31.0,201.0,134.0,-119.0,-930.0,-56.0
-32.0,-240.0,-44.0,37.0,207.0,118.0,-134.0,-932.0,-63.0
-30.0,-240.0,-51.0,48.0,220.0,98.0,-135.0,-925.0,-65.0
-29.0,-237.0,-53.0,51.0,233.0,77.0,-114.0,-918.0,-69.0
-29.0,-238.0,-51.0,50.0,251.0,59.0,-131.0,-925.0,-63.0
-30.0,-243.0,-52.0,44.0,262.0,45.0,-133.0,-933.0,-65.0
-35.0,-239.0,-44.0,41.0,272.0,34.0,-144.0,-931.0,-49.0
-31.0,-245.0,-47.0,44.0,283.0,23.0,-139.0,-940.0,-49.0
-34.0,-239.0,-46.0,52.0,298.0,6.0,-135.0,-939.0,-47.0
-32.0,-240.0,-48.0,47.0,303.0,-8.0,-136.0,-940.0,-50.0
-31.0,-241.0,-47.0,29.0,306.0,-14.0,-136.0,-935.0,-40.0
-35.0,-239.0,-47.0,21.0,307.0,-18.0,-141.0,-927.0,-52.0
-34.0,-234.0,-47.0,13.0,296.0,-24.0,-151.0,-920.0,-50.0
-43.0,-236.0,-47.0,5.0,290.0,-35.0,-164.0,-916.0,-63.0
-39.0,-233.0,-48.0,-3.0,292.0,-53.0,-157.0,-916.0,-63.0
-38.0,-232.0,-51.0,-15.0,300.0,-75.0,-156.0,-908.0,-66.0
-39.0,-231.0,-42.0,-29.0,310.0,-87.0,-163.0,-912.0,-57.0
-37.0,-233.0,-44.0,-40.0,322.0,-79.0,-152.0,-916.0,-48.0
-39.0,-236.0,-44.0,-48.0,329.0,-72.0,-166.0,-914.0,-37.0
-37.0,-239.0,-47.0,-53.0,327.0,-66.0,-159.0,-924.0,-37.0
-37.0,-242.0,-44.0,-55.0,333.0,-64.0,-158.0,-941.0,-37.0
-34.0,-241.0,-41.0,-60.0,345.0,-79.0,-148.0,-935.0,-40.0
-31.0,-239.0,-44.0,-65.0,358.0,-92.0,-129.0,-935.0,-37.0
-31.0,-244.0,-45.0,-68.0,375.0,-105.0,-124.0,-942.0,-47.0
-29.0,-246.0,-42.0,-74.0,389.0,-113.0,-113.0,-958.0,-33.0
-29.0,-247.0,-45.0,-61.0,408.0,-133.0,-123.0,-967.0,-33.0
-26.0,-247.0,-46.0,-32.0,422.0,-164.0,-126.0,-964.0,-36.0
-30.0,-248.0,-44.0,-15.0,439.0,-191.0,-131.0,-960.0,-44.0
-21.0,-244.0,-39.0,-8.0,462.0,-210.0,-103.0,-962.0,-41.0
-33.0,-248.0,-49.0,1.0,476.0,-233.0,-141.0,-962.0,-64.0
-32.0,-246.0,-49.0,-5.0,485.0,-227.0,-139.0,-954.0,-60.0
-36.0,-242.0,-51.0,-11.0,490.0,-231.0,-140.0,-953.0,-66.0
-41.0,-242.0,-54.0,-22.0,489.0,-239.0,-163.0,-932.0,-85.0
-38.0,-243.0,-51.0,-27.0,483.0,-254.0,-165.0,-941.0,-81.0
-37.0,-243.0,-55.0,-8.0,479.0,-272.0,-136.0,-940.0,-62.0
-43.0,-238.0,-57.0,14.0,473.0,-291.0,-177.0,-929.0,-98.0
-41.0,-241.0,-56.0,18.0,472.0,-294.0,-159.0,-927.0,-78.0
-37.0,-233.0,-49.0,20.0,479.0,-309.0,-163.0,-908.0,-78.0
-43.0,-235.0,-56.0,22.0,488.0,-322.0,-164.0,-918.0,-72.0
-22.0,-237.0,-51.0,23.0,496.0,-327.0,-131.0,-930.0,-85.0
-31.0,-246.0,-60.0,30.0,505.0,-343.0,-147.0,-959.0,-106.0
-27.0,-249.0,-57.0,26.0,512.0,-342.0,-105.0,-971.0,-98.0
-20.0,-253.0,-60.0,31.0,517.0,-337.0,-103.0,-975.0,-119.0
-23.0,-250.0,-64.0,44.0,521.0,-329.0,-103.0,-982.0,-140.0
-29.0,-249.0,-71.0,58.0,516.0,-321.0,-113.0,-974.0,-161.0
-32.0,-250.0,-78.0,75.0,505.0,-317.0,-126.0,-965.0,-174.0
-43.0,-246.0,-83.0,92.0,487.0,-317.0,-167.0,-957.0,-183.0
-43.0,-245.0,-79.0,99.0,462.0,-318.0,-170.0,-961.0,-189.0
-41.0,-245.0,-79.0,93.0,450.0,-313.0,-168.0,-954.0,-174.0
-38.0,-249.0,-81.0,86.0,441.0,-314.0,-149.0,-952.0,-168.0
-30.0,-245.0,-71.0,85.0,439.0,-313.0,-133.0,-945.0,-145.0
-23.0,-249.0,-66.0,87.0,438.0,-307.0,-96.0,-955.0,-122.0
10.0,-234.0,-55.0,97.0,441.0,-311.0,16.0,-947.0,-73.0
-20.0,-245.0,-69.0,114.0,428.0,-341.0,-83.0,-962.0,-138.0
-12.0,-244.0,-57.0,105.0,426.0,-328.0,-46.0,-941.0,-101.0
-7.0,-245.0,-58.0,93.0,425.0,-326.0,-36.0,-945.0,-104.0
-6.0,-239.0,-59.0,81.0,425.0,-327.0,-27.0,-939.0,-119.0
-5.0,-235.0,-64.0,57.0,428.0,-328.0,-20.0,-925.0,-118.0
-4.0,-239.0,-68.0,19.0,434.0,-327.0,-5.0,-932.0,-130.0
3.0,-244.0,-65.0,-25.0,437.0,-330.0,-10.0,-933.0,-136.0
-13.0,-241.0,-68.0,-60.0,433.0,-346.0,-40.0,-946.0,-139.0
-8.0,-243.0,-68.0,-93.0,423.0,-355.0,-33.0,-944.0,-150.0
-9.0,-242.0,-70.0,-123.0,411.0,-366.0,-41.0,-952.0,-165.0
-11.0,-244.0,-78.0,-151.0,398.0,-376.0,-43.0,-953.0,-182.0
-8.0,-245.0,-82.0,-181.0,386.0,-383.0,-39.0,-960.0,-194.0
-12.0,-247.0,-89.0,-211.0,369.0,-385.0,-39.0,-965.0,-207.0
-11.0,-251.0,-90.0,-235.0,346.0,-390.0,-48.0,-972.0,-222.0
-12.0,-252.0,-87.0,-254.0,318.0,-405.0,-49.0,-985.0,-235.0
-13.0,-253.0,-90.0,-274.0,292.0,-421.0,-45.0,-987.0,-234.0
-5.0,-257.0,-91.0,-296.0,270.0,-436.0,-32.0,-989.0,-233.0
1.0,-258.0,-89.0,-320.0,252.0,-451.0,-16.0,-995.0,-234.0
-1.0,-260.0,-90.0,-338.0,234.0,-462.0,-14.0,-1003.0,-233.0
-5.0,-259.0,-86.0,-349.0,211.0,-474.0,-24.0,-1009.0,-228.0
-11.0,-257.0,-88.0,-349.0,188.0,-485.0,-31.0,-1000.0,-224.0
-9.0,-259.0,-84.0,-345.0,163.0,-496.0,-39.0,-1005.0,-202.0
-10.0,-256.0,-85.0,-342.0,139.0,-505.0,-39.0,-997.0,-195.0
-8.0,-257.0,-83.0,-338.0,117.0,-509.0,-33.0,-997.0,-195.0
-8.0,-258.0,-84.0,-330.0,91.0,-509.0,-30.0,-994.0,-194.0
-9.0,-254.0,-81.0,-316.0,63.0,-507.0,-32.0,-999.0,-198.0
-9.0,-256.0,-89.0,-298.0,32.0,-505.0,-37.0,-998.0,-208.0
-5.0,-254.0,-81.0,-280.0,0.0,-501.0,-34.0,-990.0,-207.0
-8.0,-251.0,-80.0,-264.0,-29.0,-499.0,-32.0,-985.0,-201.0
-5.0,-253.0,-81.0,-247.0,-58.0,-492.0,-33.0,-979.0,-200.0
-9.0,-249.0,-78.0,-232.0,-86.0,-485.0,-37.0,-974.0,-190.0
-11.0,-247.0,-77.0,-216.0,-115.0,-479.0,-46.0,-955.0,-182.0
-11.0,-244.0,-75.0,-205.0,-142.0,-476.0,-38.0,-952.0,-171.0
-7.0,-243.0,-73.0,-202.0,-165.0,-472.0,-33.0,-939.0,-166.0
-5.0,-241.0,-72.0,-207.0,-184.0,-463.0,-14.0,-940.0,-161.0
-1.0,-243.0,-67.0,-219.0,-200.0,-452.0,-2.0,-939.0,-142.0
1.0,-243.0,-62.0,-224.0,-214.0,-441.0,6.0,-942.0,-134.0
6.0,-248.0,-63.0,-219.0,-226.0,-431.0,15.0,-954.0,-127.0
11.0,-252.0,-58.0,-201.0,-232.0,-427.0,18.0,-965.0,-116.0
7.0,-250.0,-63.0,-170.0,-234.0,-424.0,29.0,-966.0,-113.0
10.0,-248.0,-55.0,-137.0,-231.0,-424.0,44.0,-969.0,-106.0
14.0,-250.0,-57.0,-109.0,-225.0,-427.0,48.0,-972.0,-95.0
12.0,-251.0,-55.0,-86.0,-219.0,-428.0,48.0,-976.0,-89.0
14.0,-251.0,-57.0,-66.0,-222.0,-432.0,45.0,-973.0,-81.0
9.0,-251.0,-49.0,-47.0,-222.0,-441.0,28.0,-972.0,-76.0
8.0,-250.0,-52.0,-22.0,-222.0,-452.0,23.0,-974.0,-65.0
5.0,-251.0,-49.0,4.0,-221.0,-458.0,12.0,-967.0,-60.0
-2.0,-246.0,-49.0,37.0,-218.0,-462.0,4.0,-957.0,-63.0
1.0,-246.0,-49.0,66.0,-210.0,-464.0,1.0,-957.0,-58.0
-2.0,-244.0,-46.0,95.0,-201.0,-466.0,-5.0,-943.0,-52.0
-3.0,-243.0,-55.0,114.0,-188.0,-467.0,-18.0,-929.0,-53.0
2.0,-237.0,-49.0,118.0,-173.0,-467.0,-4.0,-918.0,-61.0
4.0,-232.0,-46.0,112.0,-157.0,-465.0,8.0,-907.0,-62.0
3.0,-233.0,-51.0,106.0,-140.0,-457.0,13.0,-908.0,-74.0
7.0,-236.0,-52.0,102.0,-132.0,-454.0,14.0,-902.0,-80.0
4.0,-234.0,-56.0,101.0,-128.0,-456.0,19.0,-909.0,-88.0
6.0,-233.0,-57.0,98.0,-126.0,-461.0,21.0,-906.0,-94.0
7.0,-238.0,-55.0,95.0,-122.0,-468.0,29.0,-909.0,-108.0
10.0,-240.0,-67.0,92.0,-121.0,-476.0,31.0,-922.0,-139.0
9.0,-240.0,-83.0,83.0,-127.0,-482.0,35.0,-931.0,-189.0
7.0,-240.0,-93.0,64.0,-145.0,-489.0,20.0,-934.0,-251.0
-5.0,-236.0,-98.0,28.0,-179.0,-496.0,-1.0,-929.0,-292.0
-11.0,-237.0,-108.0,-26.0,-218.0,-502.0,-46.0,-923.0,-302.0
-19.0,-236.0,-104.0,-96.0,-252.0,-501.0,-78.0,-920.0,-290.0
-19.0,-241.0,-98.0,-153.0,-273.0,-492.0,-83.0,-930.0,-249.0
-16.0,-246.0,-84.0,-180.0,-287.0,-475.0,-62.0,-963.0,-196.0
-7.0,-258.0,-73.0,-165.0,-292.0,-454.0,-32.0,-995.0,-152.0
5.0,-267.0,-59.0,-111.0,-294.0,-435.0,5.0,-1037.0,-112.0
9.0,-270.0,-48.0,-34.0,-295.0,-423.0,42.0,-1058.0,-77.0
17.0,-272.0,-49.0,41.0,-293.0,-418.0,75.0,-1060.0,-55.0
30.0,-272.0,-43.0,95.0,-286.0,-418.0,101.0,-1055.0,-44.0
36.0,-267.0,-36.0,122.0,-274.0,-423.0,126.0,-1047.0,-23.0
38.0,-257.0,-26.0,135.0,-264.0,-427.0,134.0,-1042.0,-24.0
36.0,-264.0,-44.0,150.0,-259.0,-427.0,130.0,-1025.0,-34.0
30.0,-257.0,-45.0,175.0,-257.0,-425.0,109.0,-997.0,-41.0
27.0,-255.0,-53.0,212.0,-266.0,-414.0,97.0,-988.0,-84.0
19.0,-247.0,-59.0,234.0,-269.0,-411.0,80.0,-968.0,-97.0
16.0,-243.0,-65.0,242.0,-276.0,-402.0,60.0,-941.0,-118.0
13.0,-238.0,-66.0,232.0,-283.0,-394.0,40.0,-938.0,-128.0
10.0,-239.0,-65.0,204.0,-284.0,-382.0,34.0,-929.0,-135.0
10.0,-240.0,-70.0,167.0,-282.0,-373.0,39.0,-936.0,-128.0
12.0,-244.0,-64.0,127.0,-276.0,-363.0,44.0,-949.0,-128.0
20.0,-249.0,-61.0,87.0,-267.0,-355.0,61.0,-973.0,-111.0
13.0,-254.0,-59.0,58.0,-267.0,-347.0,73.0,-993.0,-103.0
24.0,-261.0,-59.0,44.0,-274.0,-342.0,81.0,-1013.0,-108.0
24.0,-262.0,-60.0,43.0,-283.0,-343.0,85.0,-1014.0,-111.0
27.0,-262.0,-62.0,51.0,-291.0,-349.0,95.0,-1020.0,-114.0
31.0,-260.0,-68.0,59.0,-294.0,-358.0,106.0,-1018.0,-123.0
35.0,-259.0,-64.0,65.0,-287.0,-370.0,113.0,-998.0,-125.0
37.0,-255.0,-67.0,70.0,-279.0,-377.0,130.0,-995.0,-133.0
28.0,-251.0,-63.0,70.0,-267.0,-383.0,112.0,-989.0,-125.0
26.0,-248.0,-60.0,69.0,-258.0,-390.0,103.0,-971.0,-117.0
24.0,-247.0,-60.0,63.0,-256.0,-394.0,94.0,-965.0,-111.0
24.0,-245.0,-59.0,47.0,-254.0,-396.0,94.0,-953.0,-101.0
30.0,-246.0,-57.0,21.0,-248.0,-396.0,99.0,-953.0,-97.0
30.0,-245.0,-55.0,-3.0,-243.0,-392.0,104.0,-960.0,-92.0
26.0,-247.0,-59.0,-30.0,-243.0,-390.0,95.0,-970.0,-103.0
30.0,-250.0,-66.0,-51.0,-249.0,-390.0,101.0,-977.0,-123.0
31.0,-253.0,-69.0,-71.0,-261.0,-388.0,122.0,-986.0,-155.0
35.0,-252.0,-74.0,-98.0,-275.0,-387.0,130.0,-998.0,-168.0
36.0,-259.0,-79.0,-126.0,-285.0,-386.0,136.0,-1004.0,-187.0
36.0,-256.0,-81.0,-155.0,-296.0,-379.0,139.0,-1012.0,-206.0
37.0,-260.0,-87.0,-184.0,-308.0,-371.0,130.0,-1016.0,-217.0
37.0,-261.0,-93.0,-212.0,-321.0,-359.0,133.0,-1011.0,-229.0
38.0,-264.0,-87.0,-242.0,-338.0,-347.0,137.0,-1013.0,-222.0
35.0,-263.0,-89.0,-271.0,-350.0,-340.0,135.0,-1011.0,-216.0
41.0,-260.0,-77.0,-292.0,-360.0,-337.0,139.0,-1005.0,-195.0
43.0,-252.0,-78.0,-306.0,-363.0,-342.0,152.0,-985.0,-182.0
46.0,-247.0,-71.0,-316.0,-363.0,-348.0,177.0,-970.0,-168.0
52.0,-246.0,-72.0,-324.0,-362.0,-353.0,193.0,-954.0,-153.0
57.0,-242.0,-63.0,-340.0,-358.0,-358.0,210.0,-938.0,-146.0
59.0,-241.0,-66.0,-355.0,-355.0,-360.0,223.0,-922.0,-136.0
58.0,-230.0,-67.0,-364.0,-353.0,-357.0,226.0,-906.0,-125.0
59.0,-228.0,-67.0,-374.0,-350.0,-358.0,226.0,-890.0,-120.0
60.0,-222.0,-63.0,-383.0,-346.0,-366.0,220.0,-878.0,-119.0
60.0,-212.0,-66.0,-399.0,-341.0,-374.0,236.0,-854.0,-125.0
64.0,-218.0,-67.0,-421.0,-336.0,-382.0,243.0,-846.0,-132.0
62.0,-219.0,-67.0,-449.0,-331.0,-391.0,244.0,-844.0,-124.0
58.0,-216.0,-64.0,-475.0,-331.0,-400.0,233.0,-849.0,-130.0
54.0,-220.0,-66.0,-495.0,-337.0,-406.0,205.0,-842.0,-129.0
52.0,-212.0,-64.0,-502.0,-349.0,-408.0,195.0,-834.0,-122.0
51.0,-215.0,-61.0,-497.0,-362.0,-405.0,185.0,-834.0,-122.0
44.0,-211.0,-63.0,-483.0,-373.0,-397.0,181.0,-827.0,-120.0
43.0,-212.0,-64.0,-464.0,-387.0,-389.0,165.0,-813.0,-119.0
36.0,-210.0,-60.0,-443.0,-403.0,-380.0,133.0,-803.0,-119.0
32.0,-207.0,-62.0,-428.0,-423.0,-361.0,119.0,-802.0,-122.0
26.0,-204.0,-66.0,-422.0,-445.0,-337.0,101.0,-802.0,-117.0
23.0,-208.0,-63.0,-422.0,-468.0,-304.0,85.0,-812.0,-113.0
18.0,-211.0,-56.0,-426.0,-491.0,-268.0,71.0,-823.0,-107.0
14.0,-211.0,-53.0,-433.0,-512.0,-229.0,59.0,-821.0,-95.0
9.0,-211.0,-54.0,-436.0,-531.0,-189.0,30.0,-828.0,-79.0
9.0,-214.0,-54.0,-431.0,-546.0,-143.0,20.0,-822.0,-71.0
9.0,-211.0,-49.0,-414.0,-557.0,-92.0,28.0,-808.0,-68.0
14.0,-211.0,-48.0,-388.0,-563.0,-41.0,44.0,-807.0,-63.0
17.0,-205.0,-53.0,-357.0,-556.0,6.0,71.0,-798.0,-70.0
24.0,-204.0,-49.0,-326.0,-539.0,44.0,90.0,-793.0,-74.0
33.0,-197.0,-49.0,-297.0,-513.0,79.0,104.0,-775.0,-67.0
34.0,-193.0,-56.0,-272.0,-481.0,110.0,128.0,-763.0,-71.0
42.0,-193.0,-52.0,-254.0,-443.0,132.0,143.0,-749.0,-68.0
43.0,-190.0,-52.0,-242.0,-403.0,146.0,154.0,-740.0,-66.0
47.0,-191.0,-49.0,-231.0,-362.0,159.0,175.0,-738.0,-69.0
46.0,-190.0,-51.0,-223.0,-322.0,168.0,181.0,-745.0,-65.0
45.0,-193.0,-53.0,-216.0,-281.0,170.0,173.0,-752.0,-66.0
47.0,-200.0,-54.0,-209.0,-241.0,172.0,176.0,-773.0,-76.0
44.0,-204.0,-51.0,-205.0,-201.0,162.0,167.0,-788.0,-78.0
43.0,-204.0,-55.0,-209.0,-167.0,150.0,154.0,-792.0,-87.0
34.0,-203.0,-58.0,-208.0,-134.0,135.0,138.0,-797.0,-95.0
36.0,-205.0,-60.0,-211.0,-102.0,117.0,128.0,-801.0,-102.0
37.0,-200.0,-70.0,-209.0,-67.0,99.0,109.0,-801.0,-125.0
27.0,-207.0,-72.0,-207.0,-28.0,86.0,97.0,-807.0,-136.0
24.0,-206.0,-70.0,-207.0,17.0,72.0,93.0,-801.0,-157.0
25.0,-210.0,-72.0,-212.0,71.0,61.0,84.0,-820.0,-163.0
26.0,-214.0,-77.0,-220.0,131.0,52.0,85.0,-839.0,-168.0
29.0,-220.0,-74.0,-234.0,197.0,38.0,86.0,-855.0,-167.0
26.0,-223.0,-71.0,-248.0,268.0,24.0,90.0,-861.0,-161.0
31.0,-227.0,-71.0,-253.0,340.0,8.0,98.0,-885.0,-153.0
32.0,-229.0,-67.0,-249.0,408.0,-6.0,109.0,-889.0,-147.0
36.0,-230.0,-66.0,-227.0,476.0,-27.0,131.0,-900.0,-129.0
40.0,-234.0,-68.0,-193.0,539.0,-50.0,141.0,-894.0,-128.0
36.0,-230.0,-67.0,-155.0,599.0,-76.0,159.0,-884.0,-120.0
47.0,-223.0,-64.0,-119.0,652.0,-104.0,170.0,-856.0,-122.0
48.0,-216.0,-63.0,-86.0,707.0,-137.0,177.0,-833.0,-119.0
49.0,-207.0,-65.0,-68.0,760.0,-171.0,179.0,-809.0,-117.0
50.0,-200.0,-63.0,-61.0,812.0,-204.0,181.0,-785.0,-117.0
47.0,-197.0,-61.0,-67.0,865.0,-238.0,173.0,-765.0,-116.0
42.0,-186.0,-59.0,-84.0,917.0,-264.0,168.0,-741.0,-109.0
41.0,-189.0,-55.0,-105.0,971.0,-286.0,144.0,-733.0,-96.0
37.0,-188.0,-54.0,-131.0,1036.0,-302.0,133.0,-732.0,-85.0
37.0,-189.0,-53.0,-160.0,1092.0,-315.0,130.0,-738.0,-74.0
40.0,-195.0,-55.0,-189.0,1148.0,-326.0,118.0,-760.0,-67.0
36.0,-201.0,-47.0,-215.0,1202.0,-334.0,122.0,-780.0,-62.0
35.0,-207.0,-46.0,-237.0,1250.0,-343.0,115.0,-795.0,-48.0
32.0,-207.0,-45.0,-247.0,1297.0,-351.0,119.0,-807.0,-42.0
37.0,-215.0,-44.0,-250.0,1337.0,-359.0,132.0,-829.0,-33.0
33.0,-215.0,-44.0,-243.0,1374.0,-371.0,131.0,-836.0,-40.0
37.0,-215.0,-45.0,-232.0,1408.0,-383.0,130.0,-830.0,-43.0
34.0,-211.0,-48.0,-218.0,1440.0,-395.0,126.0,-824.0,-48.0
34.0,-204.0,-47.0,-208.0,1463.0,-403.0,120.0,-793.0,-48.0
28.0,-199.0,-44.0,-206.0,1485.0,-410.0,105.0,-778.0,-61.0
25.0,-194.0,-49.0,-216.0,1504.0,-415.0,93.0,-759.0,-68.0
23.0,-187.0,-56.0,-241.0,1521.0,-420.0,82.0,-754.0,-74.0
24.0,-193.0,-54.0,-275.0,1538.0,-419.0,76.0,-752.0,-86.0
17.0,-196.0,-59.0,-312.0,1558.0,-416.0,56.0,-763.0,-86.0
11.0,-197.0,-56.0,-348.0,1579.0,-408.0,47.0,-771.0,-91.0
11.0,-204.0,-60.0,-376.0,1601.0,-394.0,39.0,-790.0,-95.0
10.0,-204.0,-57.0,-395.0,1621.0,-381.0,36.0,-801.0,-83.0
12.0,-214.0,-56.0,-403.0,1641.0,-365.0,35.0,-823.0,-81.0
10.0,-216.0,-53.0,-397.0,1658.0,-350.0,42.0,-831.0,-71.0
9.0,-219.0,-49.0,-384.0,1672.0,-339.0,43.0,-842.0,-54.0
8.0,-221.0,-49.0,-357.0,1681.0,-330.0,37.0,-857.0,-40.0
12.0,-229.0,-41.0,-322.0,1688.0,-321.0,38.0,-881.0,-22.0
11.0,-228.0,-31.0,-274.0,1691.0,-312.0,36.0,-898.0,-11.0
10.0,-237.0,-33.0,-215.0,1696.0,-301.0,37.0,-909.0,-3.0
15.0,-236.0,-33.0,-158.0,1697.0,-290.0,49.0,-914.0,12.0
12.0,-233.0,-31.0,-104.0,1701.0,-274.0,49.0,-910.0,15.0
14.0,-231.0,-28.0,-61.0,1708.0,-259.0,57.0,-906.0,28.0
15.0,-231.0,-26.0,-22.0,1714.0,-243.0,63.0,-889.0,29.0
20.0,-225.0,-27.0,7.0,1724.0,-229.0,67.0,-876.0,35.0
24.0,-221.0,-25.0,36.0,1738.0,-211.0,70.0,-854.0,44.0
23.0,-215.0,-22.0,60.0,1757.0,-197.0,77.0,-825.0,61.0
26.0,-212.0,-20.0,84.0,1775.0,-186.0,85.0,-820.0,73.0
24.0,-208.0,-17.0,102.0,1793.0,-178.0,89.0,-812.0,82.0
24.0,-213.0,-5.0,118.0,1812.0,-176.0,91.0,-814.0,92.0
26.0,-209.0,-8.0,131.0,1828.0,-181.0,98.0,-820.0,107.0
26.0,-214.0,-7.0,148.0,1843.0,-191.0,97.0,-819.0,111.0
24.0,-213.0,-3.0,170.0,1854.0,-202.0,89.0,-816.0,118.0
23.0,-213.0,2.0,195.0,1863.0,-213.0,83.0,-814.0,130.0
23.0,-209.0,1.0,217.0,1869.0,-223.0,80.0,-812.0,136.0
21.0,-204.0,9.0,234.0,1878.0,-234.0,73.0,-802.0,155.0
27.0,-206.0,8.0,242.0,1887.0,-240.0,89.0,-798.0,167.0
27.0,-207.0,9.0,243.0,1899.0,-251.0,93.0,-794.0,174.0
28.0,-202.0,9.0,242.0,1914.0,-265.0,99.0,-788.0,183.0
29.0,-203.0,14.0,240.0,1934.0,-279.0,101.0,-789.0,182.0
23.0,-201.0,16.0,241.0,1959.0,-294.0,89.0,-779.0,191.0
21.0,-199.0,16.0,240.0,1983.0,-312.0,69.0,-775.0,205.0
17.0,-197.0,19.0,246.0,2005.0,-328.0,62.0,-780.0,215.0
20.0,-198.0,23.0,255.0,2026.0,-349.0,65.0,-775.0,222.0
15.0,-201.0,26.0,269.0,2044.0,-375.0,58.0,-777.0,232.0
17.0,-199.0,28.0,291.0,2054.0,-403.0,60.0,-777.0,243.0
10.0,-194.0,27.0,313.0,2063.0,-434.0,46.0,-758.0,256.0
13.0,-193.0,35.0,340.0,2071.0,-464.0,48.0,-747.0,269.0
10.0,-190.0,39.0,368.0,2076.0,-493.0,36.0,-743.0,278.0
11.0,-192.0,41.0,397.0,2082.0,-517.0,40.0,-742.0,284.0
15.0,-187.0,46.0,429.0,2088.0,-538.0,50.0,-730.0,295.0
9.0,-186.0,42.0,463.0,2099.0,-562.0,33.0,-708.0,302.0
3.0,-178.0,39.0,495.0,2112.0,-579.0,17.0,-691.0,313.0
1.0,-169.0,47.0,518.0,2119.0,-591.0,7.0,-647.0,317.0
-4.0,-161.0,46.0,537.0,2128.0,-597.0,-5.0,-630.0,320.0
-7.0,-154.0,42.0,544.0,2137.0,-598.0,-30.0,-596.0,320.0
-7.0,-143.0,42.0,544.0,2147.0,-602.0,-32.0,-565.0,305.0
-10.0,-133.0,40.0,537.0,2160.0,-605.0,-36.0,-540.0,300.0
-9.0,-128.0,40.0,527.0,2172.0,-608.0,-32.0,-501.0,289.0
-11.0,-117.0,35.0,513.0,2192.0,-614.0,-40.0,-461.0,273.0
-15.0,-108.0,34.0,491.0,2218.0,-616.0,-58.0,-425.0,268.0
-20.0,-103.0,39.0,470.0,2246.0,-607.0,-76.0,-392.0,270.0
-20.0,-93.0,38.0,450.0,2278.0,-586.0,-82.0,-355.0,276.0
-15.0,-83.0,36.0,432.0,2322.0,-567.0,-60.0,-334.0,278.0
-3.0,-76.0,32.0,405.0,2379.0,-557.0,-15.0,-302.0,263.0
12.0,-62.0,34.0,366.0,2446.0,-545.0,26.0,-245.0,274.0
24.0,-52.0,43.0,321.0,2508.0,-531.0,83.0,-202.0,311.0
34.0,-38.0,48.0,288.0,2539.0,-508.0,132.0,-151.0,331.0
53.0,-29.0,55.0,256.0,2547.0,-476.0,199.0,-108.0,357.0
63.0,-15.0,61.0,215.0,2532.0,-427.0,252.0,-66.0,379.0
91.0,-6.0,68.0,173.0,2488.0,-365.0,348.0,-40.0,391.0
109.0,0.0,61.0,117.0,2401.0,-305.0,431.0,-10.0,381.0
136.0,-2.0,57.0,57.0,2286.0,-252.0,527.0,-17.0,345.0
151.0,-16.0,38.0,-9.0,2150.0,-221.0,582.0,-44.0,277.0
150.0,-25.0,24.0,-39.0,2007.0,-214.0,576.0,-86.0,211.0
155.0,-40.0,5.0,-9.0,1891.0,-212.0,571.0,-125.0,145.0
142.0,-48.0,-14.0,83.0,1818.0,-215.0,519.0,-155.0,84.0
127.0,-54.0,-27.0,228.0,1786.0,-210.0,470.0,-188.0,31.0
110.0,-57.0,-41.0,389.0,1770.0,-207.0,415.0,-203.0,-28.0
104.0,-57.0,-47.0,515.0,1757.0,-209.0,377.0,-197.0,-39.0
90.0,-54.0,-47.0,593.0,1749.0,-227.0,356.0,-198.0,-38.0
95.0,-54.0,-44.0,629.0,1768.0,-254.0,360.0,-215.0,-35.0
97.0,-57.0,-41.0,639.0,1818.0,-292.0,354.0,-235.0,-34.0
98.0,-65.0,-47.0,633.0,1876.0,-335.0,365.0,-251.0,-39.0
87.0,-59.0,-47.0,620.0,1925.0,-402.0,313.0,-238.0,-47.0
76.0,-66.0,-49.0,598.0,1965.0,-477.0,284.0,-246.0,-58.0
76.0,-65.0,-56.0,575.0,1991.0,-552.0,295.0,-245.0,-74.0
89.0,-67.0,-58.0,559.0,1992.0,-615.0,330.0,-258.0,-97.0
115.0,-69.0,-75.0,529.0,1965.0,-689.0,436.0,-276.0,-166.0
132.0,-74.0,-95.0,449.0,1929.0,-804.0,489.0,-295.0,-239.0
140.0,-85.0,-98.0,315.0,1913.0,-951.0,525.0,-339.0,-272.0
158.0,-106.0,-95.0,158.0,1934.0,-1105.0,554.0,-399.0,-266.0
176.0,-121.0,-87.0,29.0,1996.0,-1276.0,641.0,-461.0,-229.0
194.0,-133.0,-78.0,-41.0,2090.0,-1473.0,695.0,-492.0,-185.0
198.0,-130.0,-66.0,-75.0,2220.0,-1672.0,735.0,-488.0,-140.0
236.0,-127.0,-46.0,-116.0,2355.0,-1862.0,855.0,-487.0,-67.0
278.0,-134.0,-27.0,-170.0,2467.0,-2054.0,1006.0,-498.0,10.0
335.0,-162.0,-16.0,-224.0,2565.0,-2261.0,1237.0,-596.0,51.0
417.0,-210.0,0.0,-252.0,2612.0,-2518.0,1533.0,-743.0,113.0
501.0,-271.0,13.0,-197.0,2591.0,-2859.0,1851.0,-945.0,177.0
596.0,-357.0,-2.0,-19.0,2531.0,-3263.0,2201.0,-1235.0,127.0
692.0,-462.0,-20.0,274.0,2515.0,-3702.0,2558.0,-1611.0,58.0
764.0,-595.0,-27.0,640.0,2543.0,-4173.0,2867.0,-2089.0,19.0
810.0,-760.0,-14.0,1060.0,2604.0,-4621.0,3092.0,-2678.0,27.0
938.0,-1027.0,58.0,1510.0,2647.0,-5022.0,3458.0,-3591.0,184.0
1074.0,-1381.0,295.0,2019.0,2682.0,-5484.0,4059.0,-4873.0,1175.0
1198.0,-1728.0,621.0,2722.0,2680.0,-6072.0,4563.0,-6257.0,2449.0
1292.0,-1990.0,817.0,3582.0,2380.0,-6643.0,5048.0,-7683.0,3251.0
1003.0,-1887.0,734.0,4381.0,1758.0,-7187.0,4129.0,-7372.0,3045.0
523.0,-1424.0,410.0,5257.0,1051.0,-7248.0,2226.0,-5621.0,1853.0
350.0,-854.0,266.0,6016.0,347.0,-6410.0,1499.0,-3461.0,1224.0
222.0,-265.0,270.0,6425.0,-370.0,-5337.0,990.0,-1203.0,1237.0
13.0,302.0,255.0,6673.0,-830.0,-4352.0,177.0,991.0,1225.0
-220.0,732.0,211.0,6620.0,-1047.0,-3741.0,-667.0,2544.0,1038.0
-380.0,975.0,103.0,5638.0,-1524.0,-3824.0,-1284.0,3438.0,653.0
-357.0,881.0,-68.0,3675.0,-2338.0,-4421.0,-1320.0,3175.0,-14.0
-230.0,663.0,-210.0,1443.0,-3151.0,-4871.0,-904.0,2380.0,-616.0
-78.0,419.0,-255.0,-608.0,-3721.0,-5090.0,-360.0,1517.0,-848.0
127.0,222.0,-174.0,-2230.0,-3881.0,-5092.0,335.0,785.0,-618.0
286.0,57.0,-67.0,-3307.0,-3719.0,-4858.0,959.0,230.0,-163.0
371.0,-69.0,33.0,-3868.0,-3317.0,-4517.0,1260.0,-209.0,247.0
448.0,-145.0,122.0,-4005.0,-2720.0,-4136.0,1564.0,-522.0,575.0
473.0,-166.0,139.0,-3892.0,-2020.0,-3884.0,1708.0,-602.0,712.0
500.0,-201.0,156.0,-3689.0,-1280.0,-3764.0,1828.0,-721.0,733.0
529.0,-234.0,189.0,-3424.0,-649.0,-3703.0,1954.0,-881.0,860.0
537.0,-257.0,215.0,-3122.0,-209.0,-3698.0,2049.0,-946.0,942.0
533.0,-263.0,240.0,-2707.0,132.0,-3776.0,1976.0,-929.0,1047.0
483.0,-266.0,278.0,-2092.0,438.0,-3915.0,1884.0,-929.0,1219.0
417.0,-263.0,277.0,-1245.0,676.0,-4076.0,1650.0,-905.0,1267.0
355.0,-241.0,234.0,-334.0,843.0,-4217.0,1404.0,-853.0,1098.0
276.0,-203.0,192.0,462.0,973.0,-4360.0,1110.0,-752.0,935.0
241.0,-134.0,117.0,1073.0,1049.0,-4514.0,942.0,-544.0,667.0
214.0,-66.0,64.0,1411.0,1128.0,-4636.0,817.0,-281.0,417.0
155.0,-24.0,47.0,1552.0,1247.0,-4735.0,635.0,-90.0,326.0
148.0,21.0,28.0,1679.0,1313.0,-4850.0,598.0,83.0,297.0
163.0,60.0,21.0,1862.0,1280.0,-4893.0,628.0,251.0,250.0
132.0,85.0,10.0,2023.0,1250.0,-4821.0,559.0,329.0,196.0
148.0,107.0,8.0,2153.0,1271.0,-4648.0,518.0,402.0,180.0
169.0,137.0,18.0,2215.0,1324.0,-4336.0,620.0,485.0,213.0
211.0,180.0,35.0,2191.0,1449.0,-3970.0,744.0,671.0,294.0
265.0,223.0,58.0,2118.0,1602.0,-3555.0,1000.0,841.0,374.0
300.0,266.0,74.0,1987.0,1784.0,-3094.0,1145.0,992.0,424.0
326.0,306.0,73.0,1830.0,1916.0,-2574.0,1270.0,1139.0,426.0
374.0,338.0,32.0,1604.0,1920.0,-1995.0,1457.0,1255.0,249.0
409.0,353.0,18.0,1269.0,1823.0,-1394.0,1574.0,1317.0,205.0
393.0,344.0,33.0,894.0,1755.0,-844.0,1546.0,1302.0,259.0
364.0,306.0,71.0,592.0,1670.0,-333.0,1452.0,1169.0,402.0
365.0,263.0,70.0,442.0,1514.0,137.0,1438.0,1011.0,413.0
368.0,228.0,64.0,404.0,1357.0,517.0,1445.0,868.0,373.0
366.0,220.0,68.0,376.0,1204.0,776.0,1376.0,865.0,408.0
369.0,205.0,72.0,414.0,1159.0,868.0,1405.0,800.0,421.0
350.0,195.0,85.0,481.0,1277.0,780.0,1283.0,787.0,466.0
319.0,156.0,72.0,510.0,1469.0,570.0,1241.0,625.0,434.0
286.0,180.0,43.0,458.0,1711.0,344.0,1065.0,643.0,316.0
234.0,163.0,30.0,244.0,2093.0,219.0,882.0,595.0,297.0
215.0,132.0,18.0,-85.0,2526.0,103.0,779.0,477.0,248.0
115.0,93.0,41.0,-400.0,2990.0,-47.0,451.0,367.0,324.0
119.0,70.0,55.0,-524.0,3310.0,-60.0,402.0,283.0,345.0
69.0,42.0,38.0,-527.0,3576.0,-62.0,299.0,157.0,330.0
64.0,69.0,36.0,-495.0,3654.0,35.0,241.0,243.0,283.0
84.0,111.0,27.0,-459.0,3645.0,185.0,337.0,404.0,261.0
57.0,122.0,43.0,-433.0,3606.0,271.0,264.0,470.0,314.0
43.0,141.0,41.0,-338.0,3460.0,328.0,209.0,549.0,328.0
37.0,173.0,28.0,-190.0,3223.0,407.0,167.0,668.0,254.0
13.0,205.0,16.0,-27.0,2968.0,483.0,94.0,793.0,219.0
-19.0,238.0,8.0,122.0,2683.0,505.0,-28.0,910.0,177.0
-26.0,262.0,6.0,236.0,2394.0,505.0,-55.0,1014.0,144.0
-21.0,281.0,5.0,321.0,2145.0,479.0,-60.0,1093.0,139.0
-37.0,290.0,5.0,364.0,1948.0,434.0,-131.0,1122.0,145.0
-51.0,285.0,10.0,353.0,1802.0,368.0,-176.0,1127.0,180.0
-53.0,279.0,36.0,309.0,1686.0,320.0,-195.0,1092.0,272.0
-34.0,257.0,57.0,242.0,1594.0,279.0,-156.0,973.0,361.0
-40.0,224.0,72.0,158.0,1534.0,250.0,-149.0,857.0,428.0
-30.0,197.0,87.0,55.0,1505.0,211.0,-118.0,741.0,501.0
-13.0,178.0,109.0,-51.0,1488.0,177.0,-44.0,661.0,575.0
39.0,156.0,127.0,-144.0,1467.0,138.0,135.0,614.0,657.0
-4.0,139.0,165.0,-179.0,1500.0,62.0,-7.0,544.0,796.0
14.0,133.0,183.0,-142.0,1461.0,78.0,63.0,500.0,868.0
29.0,134.0,182.0,-103.0,1408.0,93.0,128.0,508.0,893.0
31.0,135.0,195.0,-87.0,1371.0,71.0,123.0,506.0,925.0
43.0,143.0,202.0,-75.0,1339.0,40.0,186.0,538.0,953.0
58.0,152.0,211.0,-69.0,1320.0,-3.0,223.0,585.0,977.0
74.0,165.0,223.0,-67.0,1325.0,-52.0,290.0,636.0,1038.0
91.0,169.0,226.0,-65.0,1329.0,-102.0,346.0,644.0,1063.0
106.0,173.0,233.0,-74.0,1348.0,-169.0,399.0,661.0,1066.0
121.0,182.0,239.0,-111.0,1361.0,-232.0,447.0,672.0,1094.0
138.0,173.0,246.0,-186.0,1371.0,-298.0,528.0,649.0,1127.0
135.0,176.0,254.0,-276.0,1371.0,-377.0,537.0,657.0,1150.0
126.0,173.0,262.0,-369.0,1347.0,-430.0,496.0,655.0,1183.0
122.0,167.0,257.0,-450.0,1281.0,-474.0,500.0,624.0,1176.0
113.0,158.0,259.0,-505.0,1180.0,-508.0,450.0,595.0,1165.0
96.0,145.0,250.0,-534.0,1051.0,-532.0,387.0,561.0,1147.0
83.0,141.0,243.0,-540.0,897.0,-554.0,346.0,536.0,1118.0
69.0,136.0,236.0,-518.0,734.0,-580.0,294.0,518.0,1094.0
54.0,128.0,236.0,-485.0,573.0,-597.0,239.0,487.0,1093.0
49.0,122.0,237.0,-446.0,418.0,-611.0,211.0,463.0,1091.0
55.0,115.0,233.0,-414.0,293.0,-622.0,233.0,428.0,1086.0
47.0,110.0,232.0,-407.0,205.0,-631.0,202.0,416.0,1080.0
32.0,109.0,233.0,-427.0,139.0,-646.0,166.0,397.0,1067.0
15.0,116.0,244.0,-461.0,89.0,-639.0,67.0,420.0,1109.0
-19.0,115.0,255.0,-485.0,36.0,-585.0,-32.0,406.0,1151.0
6.0,121.0,262.0,-488.0,-39.0,-497.0,24.0,449.0,1181.0
14.0,117.0,258.0,-472.0,-94.0,-422.0,40.0,445.0,1180.0
8.0,128.0,263.0,-459.0,-108.0,-398.0,26.0,483.0,1193.0
-2.0,137.0,256.0,-434.0,-102.0,-375.0,-1.0,521.0,1186.0
1.0,148.0,251.0,-398.0,-90.0,-343.0,17.0,558.0,1150.0
3.0,155.0,244.0,-359.0,-81.0,-300.0,30.0,605.0,1133.0
18.0,166.0,240.0,-322.0,-85.0,-253.0,75.0,628.0,1101.0
20.0,166.0,228.0,-293.0,-94.0,-222.0,81.0,630.0,1062.0
12.0,169.0,220.0,-271.0,-101.0,-199.0,62.0,637.0,1027.0
7.0,167.0,211.0,-259.0,-111.0,-167.0,28.0,627.0,1001.0
-7.0,165.0,208.0,-259.0,-136.0,-131.0,-9.0,622.0,980.0
-8.0,161.0,203.0,-267.0,-193.0,-84.0,-45.0,606.0,958.0
-20.0,151.0,200.0,-277.0,-270.0,-20.0,-69.0,582.0,947.0
-19.0,141.0,202.0,-282.0,-363.0,51.0,-61.0,543.0,921.0
-16.0,138.0,191.0,-288.0,-453.0,116.0,-52.0,515.0,895.0
-11.0,129.0,183.0,-307.0,-530.0,175.0,-30.0,472.0,868.0
-1.0,115.0,182.0,-332.0,-591.0,223.0,-2.0,436.0,853.0
7.0,105.0,178.0,-363.0,-636.0,262.0,34.0,382.0,851.0
16.0,87.0,175.0,-392.0,-662.0,299.0,59.0,327.0,841.0
22.0,76.0,171.0,-416.0,-675.0,330.0,100.0,283.0,833.0
33.0,73.0,175.0,-434.0,-687.0,352.0,131.0,246.0,830.0
43.0,56.0,173.0,-443.0,-704.0,368.0,165.0,207.0,831.0
45.0,55.0,178.0,-437.0,-719.0,376.0,207.0,177.0,834.0
56.0,40.0,176.0,-416.0,-728.0,380.0,227.0,149.0,831.0
69.0,31.0,177.0,-386.0,-734.0,390.0,266.0,114.0,833.0
89.0,15.0,174.0,-350.0,-736.0,398.0,301.0,89.0,831.0
94.0,12.0,175.0,-305.0,-738.0,403.0,341.0,61.0,838.0
102.0,13.0,181.0,-255.0,-734.0,406.0,381.0,46.0,853.0
110.0,12.0,184.0,-194.0,-723.0,406.0,415.0,27.0,862.0
121.0,6.0,188.0,-131.0,-699.0,411.0,463.0,24.0,869.0
138.0,10.0,188.0,-70.0,-665.0,407.0,502.0,27.0,875.0
154.0,16.0,187.0,-17.0,-625.0,402.0,556.0,38.0,875.0
151.0,17.0,190.0,24.0,-577.0,400.0,585.0,58.0,870.0
164.0,28.0,187.0,51.0,-525.0,393.0,622.0,68.0,877.0
173.0,29.0,182.0,66.0,-468.0,377.0,659.0,89.0,894.0
180.0,28.0,193.0,81.0,-420.0,372.0,703.0,99.0,900.0
187.0,35.0,197.0,92.0,-383.0,375.0,737.0,107.0,919.0
202.0,28.0,197.0,106.0,-354.0,381.0,752.0,104.0,923.0
201.0,32.0,206.0,118.0,-327.0,381.0,781.0,104.0,934.0
201.0,32.0,201.0,137.0,-310.0,387.0,793.0,102.0,945.0
211.0,32.0,204.0,153.0,-310.0,394.0,798.0,100.0,948.0
208.0,26.0,196.0,168.0,-317.0,399.0,799.0,100.0,945.0
205.0,23.0,196.0,173.0,-331.0,397.0,797.0,100.0,942.0
200.0,20.0,213.0,173.0,-353.0,399.0,780.0,88.0,936.0
200.0,25.0,186.0,172.0,-379.0,400.0,775.0,75.0,925.0
202.0,17.0,197.0,163.0,-407.0,398.0,770.0,70.0,905.0
200.0,19.0,188.0,151.0,-446.0,397.0,768.0,64.0,889.0
197.0,14.0,182.0,137.0,-487.0,389.0,745.0,62.0,868.0
187.0,19.0,182.0,120.0,-529.0,375.0,734.0,51.0,843.0
190.0,17.0,172.0,104.0,-565.0,365.0,726.0,65.0,817.0
184.0,19.0,169.0,90.0,-594.0,352.0,709.0,66.0,809.0
179.0,19.0,168.0,84.0,-617.0,340.0,689.0,66.0,795.0
174.0,18.0,166.0,83.0,-633.0,326.0,669.0,68.0,792.0
171.0,18.0,164.0,88.0,-644.0,314.0,649.0,69.0,782.0
166.0,20.0,162.0,99.0,-651.0,303.0,629.0,64.0,778.0
158.0,21.0,159.0,113.0,-653.0,295.0,620.0,67.0,779.0
160.0,20.0,160.0,129.0,-652.0,287.0,604.0,66.0,779.0
160.0,18.0,163.0,146.0,-649.0,280.0,604.0,74.0,777.0
159.0,21.0,161.0,163.0,-642.0,271.0,600.0,84.0,784.0
157.0,23.0,155.0,182.0,-630.0,262.0,599.0,89.0,778.0
156.0,27.0,164.0,196.0,-618.0,252.0,601.0,103.0,774.0
162.0,32.0,153.0,211.0,-602.0,243.0,606.0,113.0,770.0
164.0,37.0,155.0,223.0,-582.0,232.0,619.0,135.0,764.0
163.0,40.0,154.0,227.0,-561.0,222.0,625.0,151.0,763.0
170.0,43.0,152.0,233.0,-539.0,212.0,637.0,161.0,759.0
170.0,45.0,154.0,235.0,-517.0,201.0,641.0,175.0,754.0
177.0,55.0,151.0,241.0,-499.0,187.0,661.0,200.0,750.0
178.0,58.0,151.0,247.0,-476.0,177.0,674.0,215.0,751.0
182.0,64.0,149.0,250.0,-448.0,167.0,685.0,231.0,738.0
186.0,63.0,151.0,250.0,-420.0,153.0,689.0,250.0,734.0
183.0,72.0,150.0,252.0,-392.0,135.0,693.0,262.0,732.0
186.0,75.0,147.0,248.0,-362.0,120.0,705.0,277.0,731.0
187.0,78.0,147.0,241.0,-335.0,100.0,700.0,291.0,723.0
188.0,83.0,147.0,225.0,-305.0,83.0,703.0,306.0,721.0
184.0,86.0,147.0,200.0,-280.0,67.0,697.0,323.0,722.0
182.0,89.0,143.0,177.0,-259.0,53.0,698.0,339.0,714.0
187.0,91.0,141.0,143.0,-236.0,40.0,712.0,351.0,706.0
185.0,96.0,149.0,101.0,-219.0,24.0,698.0,358.0,707.0
183.0,97.0,139.0,63.0,-205.0,11.0,699.0,370.0,699.0
180.0,98.0,141.0,28.0,-187.0,1.0,692.0,370.0,697.0
179.0,99.0,139.0,-8.0,-168.0,-10.0,694.0,376.0,694.0
185.0,99.0,139.0,-39.0,-148.0,-19.0,691.0,375.0,686.0
179.0,101.0,137.0,-68.0,-121.0,-28.0,687.0,368.0,687.0
179.0,98.0,141.0,-95.0,-93.0,-37.0,678.0,373.0,684.0
177.0,97.0,136.0,-119.0,-61.0,-43.0,685.0,380.0,685.0
177.0,99.0,141.0,-139.0,-29.0,-51.0,682.0,373.0,684.0
179.0,98.0,141.0,-162.0,5.0,-58.0,681.0,377.0,690.0
180.0,95.0,137.0,-182.0,38.0,-63.0,674.0,375.0,684.0
176.0,94.0,138.0,-200.0,71.0,-67.0,672.0,362.0,681.0
176.0,93.0,141.0,-220.0,104.0,-72.0,668.0,350.0,683.0
173.0,86.0,140.0,-234.0,135.0,-73.0,666.0,326.0,680.0
172.0,81.0,140.0,-248.0,164.0,-74.0,658.0,315.0,688.0
172.0,81.0,139.0,-257.0,183.0,-76.0,652.0,306.0,688.0
170.0,80.0,140.0,-266.0,199.0,-77.0,649.0,295.0,690.0
167.0,76.0,142.0,-274.0,214.0,-73.0,639.0,285.0,698.0
165.0,75.0,139.0,-283.0,226.0,-69.0,634.0,280.0,706.0
170.0,71.0,147.0,-284.0,239.0,-66.0,636.0,269.0,717.0
170.0,71.0,148.0,-283.0,251.0,-63.0,631.0,261.0,728.0
168.0,68.0,146.0,-280.0,265.0,-57.0,639.0,255.0,741.0
169.0,66.0,156.0,-275.0,279.0,-53.0,641.0,247.0,758.0
168.0,66.0,159.0,-266.0,291.0,-52.0,634.0,243.0,781.0
168.0,63.0,159.0,-256.0,302.0,-51.0,636.0,238.0,791.0
169.0,62.0,171.0,-241.0,312.0,-51.0,643.0,227.0,803.0
168.0,61.0,172.0,-226.0,318.0,-53.0,647.0,234.0,816.0
169.0,65.0,172.0,-214.0,323.0,-57.0,650.0,227.0,828.0
169.0,62.0,178.0,-199.0,327.0,-58.0,649.0,223.0,840.0
170.0,61.0,179.0,-189.0,328.0,-61.0,647.0,227.0,847.0
168.0,63.0,176.0,-177.0,323.0,-63.0,638.0,227.0,856.0
165.0,62.0,185.0,-164.0,316.0,-63.0,628.0,227.0,856.0
157.0,62.0,181.0,-154.0,305.0,-66.0,631.0,230.0,858.0
161.0,64.0,179.0,-144.0,292.0,-68.0,618.0,235.0,861.0
160.0,65.0,180.0,-134.0,275.0,-67.0,607.0,231.0,855.0
154.0,64.0,183.0,-128.0,256.0,-67.0,597.0,229.0,852.0
154.0,60.0,180.0,-121.0,240.0,-64.0,597.0,228.0,850.0
155.0,61.0,179.0,-114.0,223.0,-63.0,589.0,227.0,846.0
152.0,60.0,182.0,-109.0,205.0,-59.0,578.0,226.0,845.0
148.0,61.0,177.0,-106.0,190.0,-56.0,579.0,227.0,843.0
148.0,65.0,175.0,-104.0,174.0,-54.0,570.0,227.0,840.0
146.0,62.0,174.0,-103.0,158.0,-49.0,558.0,217.0,831.0
145.0,61.0,176.0,-105.0,146.0,-47.0,555.0,221.0,831.0
139.0,59.0,172.0,-106.0,134.0,-44.0,550.0,216.0,830.0
142.0,61.0,171.0,-110.0,127.0,-44.0,554.0,216.0,823.0
139.0,61.0,170.0,-114.0,120.0,-42.0,541.0,220.0,823.0
142.0,60.0,172.0,-118.0,116.0,-41.0,537.0,213.0,823.0
138.0,61.0,173.0,-121.0,112.0,-40.0,529.0,214.0,822.0
138.0,62.0,173.0,-126.0,109.0,-38.0,528.0,217.0,823.0
140.0,58.0,172.0,-130.0,107.0,-38.0,527.0,217.0,824.0
140.0,59.0,177.0,-133.0,109.0,-39.0,531.0,220.0,824.0
140.0,60.0,170.0,-132.0,112.0,-36.0,534.0,220.0,828.0
141.0,62.0,175.0,-135.0,113.0,-36.0,533.0,214.0,827.0
138.0,58.0,172.0,-136.0,114.0,-35.0,538.0,211.0,824.0
147.0,58.0,177.0,-138.0,112.0,-34.0,532.0,215.0,833.0
140.0,58.0,174.0,-139.0,109.0,-31.0,541.0,210.0,837.0
143.0,60.0,173.0,-138.0,104.0,-27.0,544.0,212.0,832.0
143.0,61.0,174.0,-136.0,102.0,-26.0,547.0,213.0,832.0
143.0,59.0,174.0,-136.0,100.0,-26.0,548.0,209.0,833.0
145.0,57.0,180.0,-133.0,94.0,-25.0,550.0,210.0,844.0
144.0,58.0,177.0,-130.0,88.0,-22.0,554.0,205.0,842.0
145.0,57.0,175.0,-127.0,80.0,-20.0,550.0,207.0,844.0
145.0,57.0,177.0,-120.0,71.0,-18.0,555.0,204.0,844.0
145.0,52.0,177.0,-115.0,61.0,-16.0,551.0,207.0,841.0
147.0,58.0,175.0,-107.0,50.0,-12.0,552.0,207.0,840.0
149.0,57.0,178.0,-102.0,40.0,-10.0,554.0,205.0,839.0
144.0,60.0,172.0,-98.0,33.0,-8.0,550.0,204.0,842.0
144.0,57.0,175.0,-94.0,24.0,-5.0,552.0,204.0,850.0
146.0,58.0,177.0,-87.0,14.0,-2.0,558.0,211.0,839.0
145.0,57.0,179.0,-82.0,6.0,-1.0,553.0,212.0,845.0
146.0,58.0,177.0,-76.0,-1.0,1.0,556.0,209.0,836.0
142.0,56.0,177.0,-68.0,-7.0,3.0,549.0,206.0,846.0
144.0,55.0,178.0,-62.0,-12.0,5.0,553.0,208.0,846.0
146.0,57.0,173.0,-55.0,-18.0,7.0,551.0,204.0,839.0
146.0,59.0,175.0,-46.0,-22.0,8.0,554.0,216.0,838.0
143.0,64.0,175.0,-38.0,-28.0,10.0,559.0,214.0,842.0
153.0,55.0,175.0,-34.0,-32.0,11.0,560.0,226.0,840.0
148.0,63.0,172.0,-31.0,-35.0,13.0,563.0,227.0,836.0
149.0,63.0,177.0,-31.0,-37.0,14.0,561.0,232.0,827.0
149.0,62.0,174.0,-30.0,-37.0,14.0,561.0,236.0,833.0
149.0,67.0,174.0,-30.0,-34.0,14.0,569.0,236.0,832.0
152.0,64.0,173.0,-28.0,-33.0,14.0,571.0,233.0,828.0
153.0,62.0,172.0,-26.0,-29.0,13.0,572.0,237.0,828.0
151.0,67.0,170.0,-22.0,-27.0,15.0,569.0,231.0,824.0
148.0,63.0,172.0,-21.0,-27.0,17.0,570.0,233.0,823.0
148.0,65.0,168.0,-22.0,-27.0,20.0,567.0,230.0,822.0
150.0,63.0,173.0,-25.0,-32.0,22.0,572.0,231.0,817.0
146.0,63.0,163.0,-29.0,-36.0,24.0,572.0,227.0,822.0
154.0,60.0,172.0,-34.0,-39.0,27.0,576.0,226.0,825.0
151.0,63.0,171.0,-39.0,-42.0,28.0,574.0,227.0,826.0
150.0,61.0,175.0,-42.0,-45.0,26.0,576.0,220.0,823.0
150.0,60.0,174.0,-43.0,-47.0,27.0,576.0,221.0,820.0
153.0,58.0,170.0,-41.0,-46.0,26.0,577.0,219.0,815.0
153.0,57.0,170.0,-36.0,-43.0,26.0,577.0,213.0,813.0
149.0,59.0,169.0,-31.0,-39.0,25.0,577.0,215.0,810.0
153.0,60.0,171.0,-28.0,-34.0,22.0,581.0,217.0,813.0
154.0,58.0,170.0,-28.0,-27.0,23.0,579.0,224.0,811.0
155.0,61.0,169.0,-28.0,-20.0,23.0,589.0,216.0,811.0
167.0,61.0,166.0,-29.0,-11.0,25.0,601.0,220.0,815.0
156.0,59.0,168.0,-29.0,-2.0,27.0,594.0,221.0,817.0
157.0,62.0,173.0,-28.0,5.0,27.0,592.0,224.0,820.0
159.0,60.0,171.0,-26.0,12.0,26.0,598.0,222.0,818.0
156.0,60.0,172.0,-25.0,19.0,30.0,599.0,219.0,821.0
160.0,60.0,171.0,-25.0,26.0,31.0,605.0,222.0,821.0
159.0,59.0,166.0,-23.0,30.0,35.0,597.0,216.0,818.0
159.0,62.0,171.0,-21.0,34.0,37.0,601.0,221.0,814.0
161.0,61.0,171.0,-17.0,37.0,37.0,599.0,215.0,817.0
161.0,57.0,168.0,-13.0,40.0,39.0,602.0,214.0,812.0
161.0,60.0,165.0,-10.0,48.0,39.0,601.0,216.0,815.0
160.0,61.0,173.0,-7.0,55.0,40.0,602.0,216.0,814.0
158.0,61.0,169.0,-4.0,62.0,40.0,606.0,222.0,807.0
158.0,63.0,169.0,-4.0,68.0,42.0,605.0,223.0,801.0
157.0,60.0,167.0,-2.0,74.0,43.0,598.0,223.0,804.0
158.0,62.0,164.0,-3.0,78.0,42.0,601.0,223.0,799.0
158.0,64.0,167.0,-3.0,85.0,43.0,601.0,231.0,798.0
158.0,62.0,166.0,-4.0,89.0,41.0,596.0,225.0,796.0
161.0,61.0,168.0,-9.0,94.0,41.0,598.0,230.0,796.0
161.0,63.0,165.0,-9.0,97.0,41.0,598.0,222.0,800.0
158.0,60.0,163.0,-11.0,102.0,41.0,597.0,237.0,797.0
158.0,54.0,158.0,-17.0,106.0,38.0,588.0,231.0,797.0
156.0,67.0,166.0,-23.0,108.0,36.0,596.0,237.0,802.0
158.0,61.0,165.0,-27.0,112.0,35.0,598.0,235.0,802.0
155.0,63.0,169.0,-30.0,117.0,33.0,596.0,235.0,806.0
154.0,63.0,167.0,-33.0,119.0,30.0,585.0,241.0,803.0
154.0,64.0,169.0,-38.0,117.0,29.0,583.0,243.0,801.0
155.0,66.0,168.0,-44.0,121.0,28.0,584.0,239.0,805.0
154.0,63.0,170.0,-50.0,123.0,27.0,582.0,239.0,806.0
153.0,64.0,169.0,-56.0,124.0,23.0,576.0,239.0,811.0
156.0,61.0,171.0,-62.0,125.0,22.0,577.0,236.0,810.0
151.0,65.0,170.0,-69.0,126.0,18.0,580.0,231.0,810.0
149.0,68.0,169.0,-72.0,122.0,12.0,577.0,238.0,807.0
151.0,62.0,168.0,-74.0,121.0,12.0,574.0,228.0,815.0
150.0,64.0,168.0,-75.0,118.0,10.0,570.0,226.0,817.0
149.0,64.0,169.0,-73.0,113.0,8.0,568.0,221.0,819.0
151.0,62.0,169.0,-73.0,108.0,7.0,572.0,221.0,818.0
148.0,61.0,172.0,-74.0,100.0,4.0,570.0,216.0,820.0
150.0,61.0,170.0,-73.0,95.0,3.0,567.0,219.0,822.0
148.0,61.0,174.0,-71.0,89.0,1.0,559.0,217.0,827.0
148.0,54.0,174.0,-68.0,83.0,-4.0,558.0,216.0,828.0
147.0,58.0,171.0,-64.0,81.0,-7.0,559.0,210.0,829.0
150.0,59.0,174.0,-63.0,81.0,-11.0,557.0,213.0,830.0
147.0,62.0,178.0,-62.0,80.0,-13.0,558.0,215.0,833.0
146.0,58.0,176.0,-60.0,80.0,-15.0,560.0,212.0,837.0
145.0,62.0,174.0,-59.0,81.0,-18.0,560.0,212.0,831.0
146.0,60.0,175.0,-57.0,80.0,-18.0,561.0,219.0,836.0
146.0,61.0,177.0,-58.0,77.0,-18.0,559.0,212.0,840.0
146.0,58.0,174.0,-57.0,73.0,-19.0,554.0,210.0,841.0
148.0,60.0,175.0,-57.0,70.0,-21.0,553.0,215.0,838.0
147.0,61.0,180.0,-59.0,66.0,-21.0,556.0,213.0,832.0
147.0,61.0,176.0,-60.0,63.0,-21.0,555.0,209.0,839.0
148.0,59.0,173.0,-60.0,60.0,-20.0,552.0,213.0,835.0
148.0,59.0,179.0,-57.0,57.0,-19.0,559.0,212.0,840.0
148.0,60.0,182.0,-59.0,53.0,-18.0,555.0,210.0,840.0
147.0,59.0,174.0,-57.0,50.0,-16.0,549.0,209.0,838.0
146.0,60.0,178.0,-57.0,47.0,-16.0,554.0,209.0,843.0
147.0,59.0,175.0,-57.0,44.0,-15.0,548.0,213.0,840.0
144.0,59.0,174.0,-56.0,43.0,-16.0,551.0,209.0,834.0
146.0,57.0,179.0,-53.0,40.0,-15.0,549.0,204.0,833.0
144.0,60.0,174.0,-51.0,41.0,-15.0,548.0,208.0,833.0
146.0,57.0,178.0,-51.0,39.0,-17.0,547.0,210.0,835.0
143.0,56.0,175.0,-51.0,39.0,-16.0,549.0,208.0,830.0
145.0,57.0,174.0,-49.0,37.0,-15.0,552.0,212.0,829.0
144.0,59.0,171.0,-47.0,34.0,-14.0,547.0,213.0,832.0
140.0,59.0,171.0,-46.0,33.0,-14.0,552.0,210.0,833.0
144.0,58.0,172.0,-44.0,32.0,-13.0,551.0,210.0,830.0
146.0,57.0,169.0,-42.0,30.0,-11.0,552.0,214.0,826.0
145.0,57.0,176.0,-38.0,30.0,-11.0,548.0,214.0,829.0
147.0,59.0,177.0,-38.0,29.0,-11.0,553.0,215.0,827.0
148.0,56.0,172.0,-35.0,30.0,-12.0,552.0,217.0,826.0
141.0,63.0,171.0,-32.0,31.0,-12.0,556.0,214.0,828.0
153.0,59.0,173.0,-31.0,31.0,-13.0,561.0,218.0,827.0
145.0,64.0,175.0,-30.0,33.0,-12.0,560.0,219.0,827.0
145.0,62.0,174.0,-27.0,34.0,-12.0,558.0,214.0,825.0
150.0,55.0,176.0,-24.0,35.0,-14.0,560.0,223.0,829.0
151.0,61.0,173.0,-25.0,36.0,-14.0,557.0,227.0,827.0
145.0,62.0,177.0,-23.0,38.0,-14.0,564.0,224.0,834.0
148.0,63.0,174.0,-23.0,39.0,-16.0,561.0,231.0,832.0
150.0,64.0,174.0,-24.0,38.0,-16.0,559.0,227.0,830.0
149.0,63.0,177.0,-25.0,38.0,-15.0,563.0,227.0,826.0
147.0,61.0,169.0,-29.0,36.0,-14.0,565.0,225.0,830.0
148.0,60.0,175.0,-29.0,35.0,-11.0,564.0,227.0,830.0
147.0,64.0,175.0,-30.0,33.0,-11.0,568.0,225.0,830.0
149.0,66.0,175.0,-32.0,33.0,-9.0,564.0,235.0,839.0
145.0,63.0,171.0,-31.0,33.0,-7.0,565.0,230.0,830.0
151.0,67.0,172.0,-33.0,31.0,-6.0,568.0,223.0,829.0
150.0,61.0,171.0,-35.0,28.0,-3.0,563.0,225.0,830.0
149.0,64.0,174.0,-35.0,27.0,-2.0,564.0,232.0,834.0
148.0,61.0,171.0,-36.0,27.0,-1.0,558.0,226.0,832.0
146.0,59.0,176.0,-37.0,25.0,-2.0,564.0,231.0,835.0
146.0,65.0,172.0,-35.0,25.0,-1.0,562.0,223.0,832.0
147.0,63.0,177.0,-34.0,24.0,-1.0,563.0,225.0,834.0
148.0,64.0,175.0,-33.0,23.0,1.0,564.0,225.0,834.0
147.0,62.0,177.0,-32.0,23.0,1.0,559.0,229.0,831.0
151.0,66.0,176.0,-30.0,24.0,2.0,557.0,226.0,834.0
150.0,64.0,176.0,-29.0,24.0,2.0,560.0,227.0,829.0
148.0,62.0,167.0,-26.0,26.0,1.0,561.0,232.0,828.0
147.0,62.0,172.0,-28.0,29.0,-1.0,564.0,231.0,827.0
149.0,61.0,176.0,-28.0,32.0,-3.0,557.0,232.0,826.0
148.0,61.0,173.0,-28.0,37.0,-3.0,560.0,228.0,828.0
146.0,62.0,172.0,-25.0,41.0,-5.0,564.0,226.0,827.0
150.0,61.0,172.0,-25.0,44.0,-5.0,561.0,222.0,830.0
146.0,59.0,172.0,-24.0,47.0,-4.0,555.0,220.0,829.0
146.0,61.0,172.0,-24.0,49.0,-3.0,561.0,217.0,827.0
151.0,61.0,173.0,-25.0,49.0,-2.0,563.0,220.0,831.0
147.0,58.0,171.0,-27.0,47.0,0.0,556.0,216.0,831.0
146.0,60.0,179.0,-32.0,43.0,2.0,561.0,216.0,839.0
147.0,56.0,180.0,-35.0,39.0,4.0,564.0,212.0,843.0
148.0,56.0,179.0,-37.0,34.0,5.0,564.0,206.0,845.0
148.0,56.0,178.0,-37.0,34.0,3.0,557.0,204.0,844.0
143.0,58.0,176.0,-33.0,31.0,5.0,559.0,207.0,844.0
148.0,56.0,175.0,-28.0,32.0,4.0,555.0,210.0,836.0
150.0,57.0,176.0,-27.0,31.0,3.0,558.0,215.0,835.0
147.0,58.0,176.0,-24.0,32.0,1.0,561.0,212.0,833.0
148.0,60.0,174.0,-25.0,35.0,0.0,566.0,214.0,838.0
149.0,59.0,171.0,-23.0,38.0,-1.0,565.0,224.0,828.0
146.0,61.0,174.0,-23.0,40.0,-2.0,568.0,226.0,819.0
148.0,63.0,173.0,-25.0,43.0,-3.0,569.0,226.0,823.0
149.0,62.0,174.0,-24.0,44.0,-3.0,569.0,225.0,824.0
148.0,63.0,172.0,-27.0,45.0,-4.0,568.0,228.0,828.0
150.0,58.0,169.0,-28.0,46.0,-2.0,565.0,227.0,828.0
149.0,64.0,174.0,-28.0,45.0,-1.0,562.0,229.0,827.0
149.0,62.0,173.0,-30.0,44.0,-2.0,564.0,229.0,823.0
148.0,62.0,170.0,-30.0,44.0,-2.0,558.0,226.0,825.0
149.0,63.0,174.0,-30.0,44.0,-2.0,559.0,227.0,824.0
147.0,60.0,173.0,-29.0,43.0,-3.0,556.0,231.0,828.0
147.0,60.0,172.0,-31.0,42.0,-3.0,555.0,225.0,828.0
148.0,64.0,169.0,-31.0,41.0,-5.0,556.0,227.0,823.0
145.0,63.0,173.0,-32.0,42.0,-6.0,550.0,227.0,825.0
149.0,63.0,174.0,-34.0,40.0,-9.0,554.0,235.0,828.0
145.0,60.0,171.0,-35.0,45.0,-10.0,551.0,235.0,830.0
145.0,64.0,176.0,-36.0,46.0,-13.0,549.0,234.0,828.0
143.0,66.0,175.0,-35.0,47.0,-16.0,546.0,232.0,834.0
143.0,63.0,173.0,-36.0,48.0,-17.0,552.0,235.0,835.0
143.0,66.0,172.0,-37.0,52.0,-18.0,547.0,237.0,824.0
144.0,66.0,176.0,-37.0,55.0,-21.0,546.0,239.0,827.0
141.0,64.0,174.0,-39.0,55.0,-21.0,549.0,236.0,830.0
146.0,65.0,177.0,-39.0,56.0,-21.0,552.0,226.0,831.0
144.0,67.0,176.0,-39.0,57.0,-23.0,547.0,231.0,832.0
144.0,65.0,177.0,-38.0,57.0,-21.0,549.0,232.0,835.0
143.0,68.0,181.0,-40.0,56.0,-22.0,552.0,235.0,833.0
144.0,68.0,177.0,-43.0,57.0,-21.0,551.0,241.0,830.0
145.0,65.0,178.0,-47.0,56.0,-19.0,544.0,249.0,833.0
144.0,65.0,177.0,-49.0,55.0,-17.0,552.0,240.0,832.0
144.0,66.0,177.0,-50.0,55.0,-17.0,553.0,235.0,835.0
142.0,67.0,175.0,-51.0,55.0,-18.0,554.0,237.0,834.0
144.0,65.0,172.0,-55.0,57.0,-17.0,551.0,236.0,844.0
147.0,66.0,172.0,-63.0,57.0,-14.0,553.0,231.0,842.0
143.0,63.0,177.0,-67.0,58.0,-14.0,548.0,239.0,842.0
145.0,67.0,176.0,-68.0,56.0,-14.0,546.0,251.0,838.0
141.0,69.0,176.0,-71.0,54.0,-19.0,540.0,259.0,835.0
149.0,70.0,179.0,-75.0,55.0,-21.0,542.0,248.0,839.0
143.0,68.0,177.0,-73.0,53.0,-19.0,546.0,239.0,830.0
144.0,61.0,178.0,-68.0,52.0,-18.0,546.0,223.0,825.0
148.0,56.0,178.0,-66.0,54.0,-12.0,557.0,204.0,834.0
147.0,54.0,179.0,-62.0,52.0,-8.0,556.0,190.0,848.0
148.0,51.0,179.0,-53.0,47.0,-8.0,562.0,192.0,849.0
149.0,51.0,177.0,-41.0,47.0,-10.0,560.0,190.0,856.0
146.0,53.0,182.0,-38.0,48.0,-14.0,565.0,187.0,856.0
147.0,52.0,183.0,-34.0,53.0,-16.0,563.0,184.0,856.0
148.0,52.0,174.0,-33.0,58.0,-17.0,565.0,193.0,849.0
151.0,54.0,181.0,-30.0,61.0,-18.0,566.0,198.0,848.0
157.0,54.0,181.0,-24.0,63.0,-20.0,569.0,213.0,848.0
149.0,61.0,176.0,-21.0,61.0,-19.0,569.0,219.0,845.0
147.0,64.0,176.0,-15.0,57.0,-15.0,562.0,223.0,843.0
149.0,63.0,176.0,-14.0,56.0,-12.0,566.0,226.0,840.0
147.0,61.0,177.0,-12.0,52.0,-8.0,559.0,224.0,837.0
145.0,62.0,176.0,-11.0,48.0,-9.0,555.0,224.0,842.0
149.0,60.0,175.0,-9.0,44.0,-8.0,552.0,223.0,834.0
146.0,61.0,178.0,-7.0,41.0,-8.0,551.0,222.0,836.0
143.0,59.0,174.0,-6.0,41.0,-8.0,549.0,217.0,839.0
143.0,60.0,178.0,-8.0,41.0,-8.0,547.0,215.0,837.0
143.0,59.0,174.0,-8.0,41.0,-10.0,544.0,214.0,835.0
144.0,62.0,177.0,-8.0,38.0,-7.0,542.0,216.0,833.0
142.0,61.0,175.0,-9.0,38.0,-9.0,541.0,221.0,836.0
141.0,58.0,176.0,-9.0,38.0,-9.0,543.0,214.0,833.0
142.0,62.0,179.0,-8.0,40.0,-8.0,543.0,222.0,832.0
140.0,64.0,176.0,-8.0,42.0,-10.0,541.0,223.0,832.0
143.0,64.0,174.0,-11.0,42.0,-11.0,538.0,228.0,828.0
141.0,64.0,175.0,-10.0,44.0,-11.0,538.0,232.0,831.0
143.0,65.0,175.0,-11.0,47.0,-13.0,541.0,242.0,830.0
141.0,63.0,175.0,-14.0,49.0,-11.0,534.0,237.0,825.0
140.0,68.0,178.0,-17.0,49.0,-10.0,539.0,244.0,827.0
143.0,63.0,175.0,-22.0,51.0,-11.0,538.0,241.0,831.0
140.0,67.0,173.0,-25.0,53.0,-11.0,534.0,242.0,834.0
144.0,68.0,180.0,-29.0,53.0,-10.0,536.0,246.0,831.0
142.0,68.0,174.0,-35.0,52.0,-11.0,540.0,246.0,840.0
140.0,68.0,175.0,-38.0,53.0,-10.0,517.0,241.0,837.0
142.0,73.0,178.0,-47.0,68.0,-31.0,551.0,254.0,842.0
140.0,67.0,180.0,-48.0,66.0,-18.0,548.0,247.0,846.0
140.0,69.0,179.0,-50.0,56.0,-13.0,543.0,248.0,845.0
141.0,66.0,181.0,-54.0,48.0,-11.0,541.0,239.0,848.0
144.0,65.0,175.0,-57.0,45.0,-10.0,541.0,235.0,845.0
142.0,64.0,174.0,-60.0,43.0,-9.0,539.0,239.0,847.0
141.0,66.0,181.0,-63.0,42.0,-8.0,547.0,240.0,842.0
144.0,67.0,183.0,-63.0,40.0,-9.0,546.0,239.0,845.0
143.0,64.0,174.0,-66.0,40.0,-9.0,551.0,234.0,846.0
144.0,63.0,176.0,-67.0,39.0,-9.0,548.0,235.0,844.0
146.0,64.0,179.0,-69.0,37.0,-9.0,546.0,234.0,847.0
143.0,66.0,174.0,-70.0,37.0,-9.0,548.0,238.0,846.0
143.0,64.0,179.0,-73.0,36.0,-9.0,547.0,234.0,847.0
143.0,63.0,178.0,-72.0,35.0,-10.0,548.0,226.0,846.0
143.0,62.0,180.0,-71.0,32.0,-11.0,543.0,226.0,848.0
144.0,62.0,176.0,-68.0,33.0,-13.0,541.0,221.0,845.0
142.0,63.0,178.0,-64.0,34.0,-12.0,546.0,227.0,843.0
143.0,60.0,175.0,-63.0,36.0,-15.0,546.0,227.0,844.0
140.0,64.0,176.0,-62.0,35.0,-12.0,544.0,230.0,843.0
144.0,63.0,176.0,-61.0,34.0,-8.0,548.0,222.0,846.0
142.0,61.0,176.0,-59.0,32.0,-8.0,546.0,225.0,840.0
145.0,60.0,178.0,-60.0,30.0,-6.0,547.0,228.0,840.0
143.0,62.0,178.0,-59.0,31.0,-8.0,549.0,225.0,841.0
143.0,63.0,175.0,-57.0,31.0,-8.0,546.0,227.0,835.0
144.0,60.0,177.0,-53.0,32.0,-9.0,543.0,219.0,837.0
144.0,61.0,175.0,-48.0,33.0,-7.0,544.0,223.0,843.0
141.0,62.0,178.0,-45.0,33.0,-7.0,547.0,226.0,842.0
139.0,63.0,175.0,-43.0,33.0,-7.0,548.0,222.0,843.0
142.0,63.0,177.0,-43.0,34.0,-7.0,547.0,235.0,832.0
147.0,62.0,182.0,-44.0,34.0,-6.0,546.0,232.0,839.0
145.0,60.0,172.0,-44.0,35.0,-7.0,549.0,226.0,836.0
144.0,61.0,180.0,-46.0,39.0,-7.0,545.0,232.0,835.0
142.0,65.0,179.0,-47.0,44.0,-7.0,543.0,227.0,841.0
142.0,65.0,176.0,-48.0,44.0,-8.0,544.0,230.0,845.0
141.0,63.0,176.0,-47.0,43.0,-7.0,543.0,223.0,847.0
144.0,62.0,176.0,-44.0,45.0,-6.0,548.0,227.0,845.0
144.0,63.0,176.0,-41.0,42.0,-8.0,546.0,225.0,841.0
141.0,61.0,177.0,-40.0,41.0,-7.0,542.0,227.0,844.0
142.0,61.0,177.0,-41.0,41.0,-7.0,549.0,230.0,843.0
136.0,63.0,176.0,-42.0,38.0,-5.0,541.0,235.0,844.0
140.0,63.0,180.0,-45.0,36.0,-5.0,545.0,225.0,847.0
138.0,61.0,178.0,-47.0,32.0,-6.0,537.0,225.0,848.0
143.0,59.0,178.0,-49.0,30.0,-6.0,538.0,218.0,846.0
141.0,57.0,181.0,-47.0,29.0,-6.0,538.0,218.0,842.0
140.0,60.0,175.0,-44.0,29.0,-7.0,534.0,220.0,844.0
140.0,58.0,180.0,-41.0,31.0,-8.0,536.0,227.0,841.0
140.0,63.0,175.0,-40.0,35.0,-12.0,536.0,221.0,834.0
140.0,66.0,179.0,-42.0,42.0,-13.0,541.0,227.0,832.0
140.0,64.0,174.0,-44.0,46.0,-14.0,549.0,227.0,843.0
142.0,64.0,173.0,-48.0,48.0,-15.0,531.0,228.0,834.0
149.0,68.0,174.0,-54.0,61.0,-29.0,539.0,232.0,845.0
148.0,64.0,179.0,-54.0,64.0,-22.0,553.0,243.0,849.0
140.0,64.0,182.0,-54.0,56.0,-16.0,550.0,231.0,846.0
145.0,64.0,174.0,-55.0,49.0,-13.0,548.0,227.0,842.0
138.0,63.0,179.0,-59.0,48.0,-15.0,534.0,231.0,855.0
142.0,65.0,182.0,-57.0,45.0,-13.0,538.0,234.0,859.0
144.0,64.0,176.0,-50.0,43.0,-5.0,540.0,229.0,842.0
138.0,64.0,174.0,-47.0,41.0,-7.0,541.0,227.0,849.0
140.0,61.0,179.0,-47.0,36.0,-9.0,539.0,229.0,849.0
140.0,64.0,181.0,-46.0,35.0,-9.0,541.0,235.0,849.0
141.0,65.0,175.0,-44.0,34.0,-8.0,538.0,228.0,848.0
140.0,66.0,180.0,-44.0,34.0,-10.0,540.0,234.0,844.0
143.0,63.0,179.0,-42.0,35.0,-10.0,537.0,229.0,843.0
141.0,65.0,178.0,-42.0,35.0,-11.0,540.0,231.0,844.0
140.0,63.0,176.0,-42.0,35.0,-8.0,536.0,233.0,845.0
139.0,65.0,180.0,-41.0,36.0,-11.0,537.0,230.0,846.0
141.0,64.0,177.0,-43.0,39.0,-12.0,535.0,230.0,844.0
141.0,66.0,178.0,-44.0,41.0,-12.0,535.0,239.0,845.0
140.0,61.0,178.0,-45.0,38.0,-10.0,535.0,235.0,848.0
141.0,63.0,176.0,-46.0,38.0,-9.0,536.0,236.0,847.0
140.0,63.0,177.0,-48.0,37.0,-7.0,533.0,234.0,844.0
143.0,66.0,176.0,-50.0,38.0,-8.0,534.0,227.0,847.0
139.0,62.0,174.0,-49.0,38.0,-7.0,536.0,227.0,848.0
143.0,63.0,181.0,-53.0,38.0,-7.0,538.0,226.0,847.0
141.0,63.0,175.0,-53.0,39.0,-6.0,540.0,230.0,846.0
142.0,65.0,177.0,-52.0,40.0,-6.0,536.0,231.0,844.0
141.0,64.0,177.0,-53.0,41.0,-5.0,540.0,230.0,848.0
143.0,64.0,178.0,-53.0,40.0,-6.0,539.0,226.0,843.0
140.0,62.0,177.0,-50.0,40.0,-7.0,538.0,233.0,846.0
140.0,66.0,177.0,-51.0,41.0,-7.0,542.0,233.0,845.0
142.0,65.0,179.0,-52.0,43.0,-11.0,533.0,235.0,845.0
136.0,63.0,180.0,-53.0,46.0,-11.0,531.0,229.0,843.0
146.0,66.0,179.0,-58.0,55.0,-27.0,523.0,226.0,826.0
146.0,65.0,179.0,-60.0,68.0,-35.0,547.0,231.0,852.0
142.0,60.0,178.0,-59.0,59.0,-20.0,547.0,228.0,845.0
141.0,67.0,179.0,-55.0,54.0,-16.0,540.0,231.0,848.0
139.0,63.0,180.0,-54.0,50.0,-13.0,535.0,230.0,848.0
138.0,65.0,180.0,-50.0,44.0,-10.0,537.0,231.0,850.0
139.0,67.0,178.0,-49.0,40.0,-8.0,536.0,236.0,848.0
141.0,64.0,176.0,-47.0,39.0,-8.0,535.0,233.0,848.0
142.0,61.0,183.0,-47.0,35.0,-7.0,539.0,231.0,844.0
144.0,63.0,178.0,-48.0,33.0,-9.0,537.0,236.0,855.0
138.0,66.0,181.0,-48.0,32.0,-8.0,538.0,226.0,853.0
139.0,63.0,182.0,-52.0,32.0,-9.0,538.0,224.0,852.0
142.0,59.0,183.0,-50.0,32.0,-10.0,540.0,227.0,852.0
141.0,62.0,180.0,-48.0,34.0,-7.0,538.0,231.0,853.0
139.0,65.0,181.0,-47.0,34.0,-9.0,536.0,224.0,847.0
140.0,62.0,178.0,-47.0,32.0,-8.0,539.0,231.0,849.0
141.0,64.0,178.0,-46.0,34.0,-8.0,533.0,227.0,848.0
137.0,62.0,179.0,-48.0,36.0,-10.0,536.0,224.0,848.0
140.0,63.0,178.0,-53.0,36.0,-8.0,529.0,227.0,848.0
138.0,58.0,180.0,-54.0,38.0,-9.0,537.0,227.0,850.0
140.0,63.0,181.0,-57.0,36.0,-10.0,535.0,227.0,851.0
139.0,62.0,180.0,-58.0,33.0,-9.0,540.0,231.0,853.0
141.0,65.0,183.0,-58.0,31.0,-8.0,531.0,224.0,850.0
140.0,63.0,182.0,-58.0,32.0,-7.0,527.0,224.0,853.0
141.0,61.0,182.0,-61.0,31.0,-7.0,536.0,222.0,844.0
143.0,60.0,180.0,-62.0,33.0,-8.0,532.0,225.0,847.0
135.0,67.0,182.0,-63.0,37.0,-14.0,525.0,220.0,836.0
138.0,62.0,178.0,-66.0,47.0,-15.0,524.0,226.0,855.0
137.0,66.0,180.0,-60.0,46.0,-10.0,522.0,233.0,864.0
140.0,62.0,180.0,-54.0,39.0,-8.0,529.0,234.0,859.0
137.0,64.0,183.0,-52.0,34.0,-4.0,530.0,226.0,855.0
139.0,63.0,177.0,-51.0,31.0,-5.0,526.0,228.0,847.0
139.0,63.0,178.0,-48.0,27.0,-6.0,534.0,232.0,853.0
141.0,60.0,178.0,-49.0,26.0,-7.0,530.0,226.0,848.0
143.0,65.0,175.0,-48.0,27.0,-6.0,533.0,225.0,846.0
141.0,61.0,178.0,-47.0,27.0,-8.0,534.0,225.0,853.0
138.0,62.0,178.0,-45.0,30.0,-6.0,531.0,222.0,847.0
140.0,66.0,175.0,-45.0,30.0,-6.0,533.0,225.0,852.0
136.0,62.0,177.0,-43.0,29.0,-7.0,529.0,230.0,850.0
139.0,61.0,179.0,-41.0,29.0,-7.0,534.0,229.0,846.0
137.0,63.0,177.0,-41.0,29.0,-6.0,532.0,230.0,848.0
139.0,60.0,175.0,-40.0,30.0,-14.0,520.0,222.0,845.0
140.0,63.0,180.0,-39.0,36.0,-17.0,535.0,235.0,847.0
138.0,63.0,177.0,-43.0,37.0,-15.0,520.0,224.0,844.0
137.0,60.0,178.0,-42.0,43.0,-25.0,522.0,222.0,838.0
143.0,66.0,182.0,-41.0,51.0,-26.0,550.0,238.0,852.0
141.0,65.0,180.0,-40.0,43.0,-14.0,542.0,238.0,853.0
143.0,63.0,180.0,-41.0,37.0,-9.0,534.0,231.0,852.0
140.0,63.0,179.0,-45.0,32.0,-6.0,535.0,225.0,848.0
142.0,63.0,180.0,-47.0,32.0,-6.0,534.0,226.0,849.0
141.0,65.0,176.0,-48.0,31.0,-6.0,540.0,236.0,851.0
139.0,65.0,178.0,-49.0,31.0,-7.0,537.0,230.0,858.0
139.0,63.0,178.0,-49.0,32.0,-4.0,538.0,226.0,848.0
140.0,65.0,177.0,-47.0,30.0,-4.0,536.0,228.0,855.0
137.0,63.0,182.0,-47.0,30.0,-5.0,534.0,226.0,853.0
138.0,63.0,166.0,-48.0,30.0,-4.0,532.0,231.0,850.0
139.0,62.0,177.0,-48.0,29.0,-6.0,533.0,232.0,854.0
138.0,64.0,179.0,-48.0,29.0,-6.0,533.0,231.0,851.0
139.0,64.0,181.0,-48.0,29.0,-7.0,536.0,227.0,851.0
141.0,63.0,181.0,-47.0,31.0,-10.0,524.0,227.0,848.0
140.0,62.0,182.0,-47.0,32.0,-11.0,529.0,234.0,849.0
138.0,63.0,179.0,-47.0,30.0,-9.0,534.0,225.0,853.0
139.0,65.0,181.0,-47.0,29.0,-7.0,532.0,232.0,847.0
138.0,64.0,180.0,-47.0,28.0,-7.0,535.0,231.0,854.0
139.0,66.0,180.0,-49.0,29.0,-7.0,529.0,232.0,858.0
139.0,67.0,180.0,-51.0,29.0,-7.0,533.0,226.0,851.0
148.0,59.0,182.0,-54.0,31.0,-7.0,530.0,227.0,859.0
137.0,62.0,175.0,-54.0,33.0,-7.0,533.0,227.0,845.0
137.0,60.0,179.0,-56.0,35.0,-10.0,529.0,222.0,847.0
138.0,63.0,181.0,-59.0,39.0,-12.0,545.0,215.0,842.0
137.0,63.0,184.0,-61.0,46.0,-16.0,522.0,234.0,863.0
138.0,65.0,179.0,-59.0,43.0,-7.0,527.0,234.0,866.0
138.0,60.0,183.0,-52.0,38.0,-6.0,529.0,226.0,859.0
134.0,65.0,180.0,-48.0,34.0,-7.0,530.0,226.0,856.0
139.0,62.0,180.0,-48.0,31.0,-5.0,524.0,225.0,850.0
137.0,65.0,182.0,-49.0,29.0,-5.0,528.0,226.0,856.0
137.0,62.0,177.0,-47.0,29.0,-5.0,524.0,224.0,856.0
144.0,57.0,178.0,-45.0,28.0,-7.0,527.0,225.0,857.0
136.0,63.0,177.0,-42.0,27.0,-10.0,521.0,223.0,848.0
138.0,63.0,176.0,-43.0,30.0,-12.0,530.0,228.0,856.0
139.0,64.0,179.0,-40.0,29.0,-8.0,528.0,227.0,849.0
138.0,63.0,177.0,-40.0,26.0,-5.0,523.0,234.0,858.0
139.0,67.0,180.0,-42.0,22.0,-6.0,534.0,229.0,852.0
137.0,67.0,176.0,-43.0,22.0,-7.0,534.0,232.0,850.0
139.0,66.0,180.0,-46.0,24.0,-6.0,528.0,235.0,852.0
139.0,64.0,184.0,-49.0,25.0,-8.0,526.0,238.0,849.0
136.0,64.0,179.0,-50.0,28.0,-8.0,529.0,232.0,850.0
139.0,64.0,182.0,-50.0,30.0,-8.0,526.0,225.0,853.0
139.0,66.0,177.0,-47.0,32.0,-10.0,529.0,226.0,848.0
139.0,59.0,178.0,-42.0,31.0,-9.0,531.0,225.0,852.0
139.0,61.0,180.0,-36.0,30.0,-9.0,524.0,225.0,856.0
137.0,62.0,177.0,-35.0,30.0,-11.0,528.0,225.0,848.0
137.0,64.0,181.0,-34.0,27.0,-9.0,530.0,227.0,847.0
136.0,63.0,174.0,-34.0,27.0,-8.0,524.0,235.0,859.0
136.0,63.0,180.0,-38.0,24.0,-8.0,531.0,226.0,859.0
137.0,63.0,179.0,-43.0,21.0,-7.0,524.0,230.0,860.0
136.0,59.0,187.0,-47.0,18.0,-8.0,524.0,216.0,861.0
139.0,60.0,186.0,-45.0,17.0,-8.0,516.0,220.0,864.0
139.0,60.0,181.0,-41.0,18.0,-8.0,519.0,218.0,857.0
142.0,57.0,180.0,-37.0,22.0,-9.0,520.0,224.0,850.0
138.0,64.0,180.0,-35.0,24.0,-10.0,520.0,224.0,852.0
135.0,61.0,176.0,-36.0,31.0,-15.0,508.0,225.0,836.0
134.0,61.0,176.0,-39.0,39.0,-26.0,514.0,220.0,840.0
139.0,64.0,181.0,-41.0,59.0,-37.0,540.0,238.0,847.0
140.0,65.0,180.0,-40.0,54.0,-20.0,542.0,237.0,859.0
142.0,61.0,178.0,-39.0,43.0,-16.0,536.0,224.0,848.0
137.0,66.0,177.0,-46.0,40.0,-13.0,528.0,227.0,849.0
135.0,66.0,180.0,-53.0,38.0,-12.0,528.0,232.0,856.0
139.0,63.0,181.0,-54.0,36.0,-10.0,528.0,230.0,855.0
142.0,63.0,180.0,-53.0,34.0,-11.0,534.0,227.0,860.0
136.0,55.0,174.0,-53.0,36.0,-16.0,525.0,228.0,849.0
135.0,64.0,183.0,-54.0,38.0,-15.0,519.0,236.0,868.0
136.0,64.0,182.0,-48.0,34.0,-9.0,522.0,226.0,864.0
136.0,65.0,182.0,-41.0,29.0,-7.0,526.0,232.0,858.0
138.0,63.0,180.0,-35.0,27.0,-9.0,523.0,229.0,861.0
138.0,66.0,176.0,-35.0,27.0,-12.0,517.0,231.0,857.0
138.0,60.0,179.0,-36.0,29.0,-12.0,525.0,227.0,849.0
139.0,63.0,183.0,-36.0,28.0,-11.0,530.0,238.0,847.0
137.0,66.0,182.0,-38.0,29.0,-9.0,524.0,233.0,851.0
138.0,62.0,180.0,-39.0,30.0,-8.0,531.0,240.0,852.0
134.0,69.0,178.0,-43.0,30.0,-6.0,527.0,234.0,853.0
136.0,67.0,181.0,-45.0,30.0,-5.0,524.0,236.0,853.0
137.0,65.0,179.0,-46.0,30.0,-6.0,524.0,233.0,855.0
139.0,64.0,175.0,-45.0,30.0,-5.0,525.0,234.0,849.0
136.0,61.0,177.0,-46.0,30.0,-5.0,518.0,234.0,848.0
139.0,64.0,177.0,-49.0,30.0,-5.0,518.0,235.0,849.0
138.0,62.0,177.0,-48.0,30.0,-4.0,525.0,235.0,851.0
139.0,64.0,173.0,-49.0,31.0,-7.0,525.0,229.0,848.0
139.0,60.0,175.0,-50.0,33.0,-14.0,527.0,225.0,842.0
136.0,60.0,173.0,-54.0,39.0,-25.0,514.0,216.0,838.0
140.0,64.0,180.0,-64.0,56.0,-47.0,520.0,239.0,842.0
140.0,68.0,184.0,-73.0,52.0,-32.0,542.0,235.0,864.0
131.0,63.0,181.0,-69.0,43.0,-20.0,531.0,235.0,867.0
138.0,62.0,188.0,-67.0,35.0,-14.0,522.0,231.0,869.0
137.0,65.0,183.0,-64.0,29.0,-10.0,524.0,231.0,866.0
138.0,63.0,183.0,-63.0,25.0,-9.0,527.0,224.0,862.0
139.0,63.0,183.0,-65.0,20.0,-9.0,524.0,228.0,861.0
137.0,62.0,185.0,-62.0,20.0,-9.0,520.0,224.0,862.0
137.0,60.0,183.0,-63.0,17.0,-8.0,513.0,222.0,862.0
137.0,58.0,182.0,-61.0,15.0,-6.0,522.0,222.0,858.0
134.0,64.0,183.0,-61.0,15.0,-5.0,521.0,227.0,864.0
137.0,61.0,181.0,-61.0,13.0,-5.0,525.0,227.0,864.0
136.0,64.0,183.0,-61.0,11.0,-5.0,525.0,230.0,855.0
142.0,62.0,177.0,-62.0,12.0,-6.0,525.0,228.0,857.0
139.0,64.0,182.0,-65.0,13.0,-6.0,525.0,231.0,852.0
138.0,64.0,180.0,-68.0,14.0,-6.0,531.0,238.0,858.0
135.0,65.0,185.0,-70.0,13.0,-6.0,525.0,228.0,855.0
139.0,63.0,183.0,-73.0,11.0,-6.0,521.0,230.0,860.0
139.0,62.0,179.0,-76.0,9.0,-6.0,528.0,225.0,860.0
137.0,63.0,181.0,-78.0,10.0,-5.0,520.0,224.0,859.0
139.0,63.0,184.0,-79.0,7.0,-5.0,520.0,231.0,863.0
141.0,61.0,185.0,-78.0,7.0,-6.0,518.0,222.0,860.0
138.0,59.0,185.0,-76.0,6.0,-7.0,517.0,224.0,855.0
137.0,66.0,181.0,-76.0,6.0,-7.0,516.0,225.0,855.0
132.0,71.0,185.0,-78.0,7.0,-8.0,519.0,228.0,858.0
135.0,63.0,177.0,-75.0,7.0,-9.0,518.0,222.0,858.0
134.0,63.0,176.0,-77.0,6.0,-8.0,515.0,227.0,859.0
135.0,62.0,182.0,-79.0,6.0,-8.0,523.0,228.0,857.0
137.0,63.0,181.0,-81.0,3.0,-8.0,516.0,233.0,859.0
133.0,64.0,186.0,-84.0,1.0,-8.0,520.0,225.0,860.0
136.0,63.0,182.0,-86.0,1.0,-7.0,517.0,229.0,859.0
135.0,65.0,181.0,-88.0,1.0,-5.0,523.0,226.0,856.0
133.0,63.0,184.0,-90.0,0.0,-4.0,525.0,224.0,860.0
137.0,61.0,181.0,-91.0,0.0,-3.0,521.0,223.0,850.0
139.0,63.0,182.0,-91.0,0.0,-3.0,524.0,224.0,860.0
135.0,65.0,185.0,-91.0,0.0,-1.0,524.0,223.0,856.0
139.0,63.0,177.0,-91.0,-1.0,-2.0,532.0,225.0,858.0
139.0,61.0,184.0,-91.0,-2.0,-2.0,522.0,220.0,854.0
138.0,62.0,180.0,-94.0,-3.0,-2.0,525.0,223.0,857.0
135.0,66.0,185.0,-94.0,-4.0,-1.0,523.0,225.0,862.0
138.0,60.0,182.0,-94.0,-4.0,0.0,525.0,225.0,860.0
138.0,62.0,186.0,-95.0,-6.0,0.0,524.0,223.0,857.0
137.0,60.0,183.0,-98.0,-7.0,0.0,523.0,224.0,859.0
138.0,63.0,179.0,-97.0,-6.0,0.0,524.0,222.0,855.0
138.0,56.0,181.0,-96.0,-7.0,0.0,522.0,223.0,857.0
138.0,58.0,178.0,-96.0,-9.0,2.0,525.0,222.0,857.0
138.0,60.0,183.0,-95.0,-9.0,1.0,525.0,222.0,852.0
135.0,63.0,178.0,-91.0,-9.0,2.0,525.0,221.0,853.0
136.0,61.0,180.0,-89.0,-10.0,3.0,524.0,215.0,855.0
140.0,59.0,177.0,-87.0,-10.0,2.0,526.0,220.0,853.0
139.0,61.0,181.0,-85.0,-12.0,1.0,525.0,224.0,851.0
138.0,62.0,178.0,-83.0,-11.0,2.0,525.0,217.0,856.0
138.0,58.0,180.0,-83.0,-12.0,2.0,530.0,215.0,854.0
137.0,58.0,179.0,-84.0,-10.0,2.0,527.0,218.0,850.0
136.0,59.0,174.0,-83.0,-10.0,2.0,525.0,220.0,853.0
138.0,61.0,187.0,-83.0,-9.0,3.0,531.0,218.0,855.0
140.0,60.0,180.0,-83.0,-9.0,4.0,531.0,218.0,851.0
137.0,63.0,183.0,-83.0,-8.0,2.0,531.0,220.0,857.0
137.0,59.0,182.0,-83.0,-7.0,2.0,532.0,222.0,857.0
137.0,60.0,182.0,-83.0,-7.0,2.0,527.0,218.0,852.0
138.0,60.0,185.0,-82.0,-6.0,1.0,530.0,218.0,859.0
138.0,62.0,182.0,-84.0,-6.0,2.0,524.0,219.0,851.0
140.0,57.0,179.0,-83.0,-7.0,3.0,531.0,217.0,858.0
136.0,62.0,182.0,-83.0,-7.0,3.0,525.0,212.0,859.0
135.0,60.0,180.0,-83.0,-6.0,2.0,529.0,215.0,858.0
138.0,61.0,181.0,-81.0,-6.0,2.0,530.0,213.0,852.0
140.0,59.0,180.0,-81.0,-5.0,3.0,531.0,216.0,853.0
138.0,60.0,184.0,-80.0,-6.0,3.0,531.0,217.0,857.0
138.0,56.0,178.0,-79.0,-5.0,4.0,527.0,214.0,863.0
139.0,56.0,185.0,-79.0,-6.0,4.0,528.0,211.0,853.0
140.0,60.0,179.0,-76.0,-6.0,5.0,528.0,212.0,848.0
138.0,60.0,179.0,-78.0,-4.0,3.0,533.0,211.0,854.0
138.0,60.0,182.0,-78.0,-3.0,4.0,531.0,212.0,859.0
139.0,58.0,182.0,-76.0,-2.0,2.0,530.0,210.0,856.0
141.0,57.0,179.0,-79.0,-3.0,3.0,530.0,219.0,856.0
139.0,64.0,180.0,-78.0,-3.0,3.0,535.0,213.0,856.0
140.0,58.0,179.0,-78.0,-2.0,2.0,529.0,216.0,852.0
139.0,56.0,180.0,-78.0,-1.0,3.0,532.0,215.0,850.0
142.0,55.0,178.0,-76.0,-2.0,4.0,524.0,211.0,857.0
136.0,63.0,175.0,-77.0,-3.0,4.0,532.0,211.0,856.0
136.0,58.0,180.0,-75.0,-2.0,2.0,529.0,209.0,851.0
140.0,57.0,183.0,-75.0,-3.0,2.0,533.0,211.0,855.0
137.0,59.0,180.0,-73.0,-3.0,3.0,524.0,213.0,850.0
140.0,58.0,182.0,-73.0,-2.0,0.0,525.0,217.0,856.0
138.0,60.0,179.0,-73.0,-3.0,0.0,529.0,209.0,852.0
142.0,60.0,178.0,-72.0,-3.0,1.0,533.0,209.0,851.0
140.0,56.0,181.0,-71.0,-3.0,0.0,533.0,207.0,851.0
140.0,60.0,179.0,-71.0,-2.0,0.0,530.0,212.0,855.0
140.0,59.0,179.0,-71.0,-2.0,0.0,535.0,214.0,857.0
132.0,63.0,180.0,-69.0,-1.0,-1.0,526.0,209.0,855.0
140.0,57.0,183.0,-68.0,-1.0,1.0,535.0,209.0,854.0
140.0,58.0,180.0,-68.0,-1.0,2.0,532.0,214.0,859.0
142.0,58.0,180.0,-68.0,-2.0,0.0,531.0,209.0,850.0
137.0,61.0,181.0,-66.0,0.0,1.0,535.0,214.0,852.0
142.0,59.0,180.0,-65.0,1.0,1.0,532.0,212.0,854.0
142.0,59.0,186.0,-66.0,5.0,0.0,531.0,209.0,853.0
141.0,56.0,179.0,-66.0,8.0,0.0,530.0,214.0,854.0
138.0,60.0,178.0,-65.0,9.0,2.0,529.0,213.0,853.0
137.0,56.0,179.0,-62.0,10.0,3.0,529.0,210.0,852.0
137.0,58.0,181.0,-62.0,11.0,1.0,528.0,215.0,852.0
135.0,61.0,181.0,-59.0,11.0,1.0,527.0,211.0,844.0
139.0,59.0,182.0,-60.0,11.0,2.0,531.0,209.0,855.0
137.0,59.0,180.0,-61.0,10.0,1.0,532.0,211.0,850.0
139.0,60.0,182.0,-60.0,10.0,1.0,529.0,206.0,852.0
137.0,59.0,181.0,-58.0,8.0,1.0,536.0,209.0,852.0
140.0,59.0,180.0,-57.0,8.0,0.0,534.0,209.0,853.0
140.0,58.0,177.0,-59.0,7.0,0.0,533.0,210.0,848.0
138.0,60.0,182.0,-59.0,5.0,0.0,532.0,212.0,852.0
138.0,61.0,180.0,-58.0,5.0,1.0,535.0,209.0,851.0
139.0,59.0,178.0,-57.0,4.0,1.0,537.0,209.0,856.0
141.0,63.0,179.0,-57.0,4.0,0.0,535.0,211.0,853.0
142.0,61.0,184.0,-56.0,5.0,1.0,535.0,216.0,850.0
138.0,62.0,181.0,-57.0,8.0,-1.0,536.0,215.0,854.0
140.0,59.0,177.0,-55.0,9.0,-2.0,539.0,213.0,851.0
138.0,58.0,179.0,-55.0,10.0,-3.0,536.0,205.0,851.0
140.0,56.0,180.0,-54.0,11.0,-3.0,529.0,210.0,853.0
140.0,58.0,176.0,-53.0,12.0,-5.0,530.0,210.0,850.0
140.0,58.0,179.0,-52.0,14.0,-6.0,533.0,210.0,844.0
137.0,57.0,178.0,-50.0,14.0,-6.0,534.0,204.0,851.0
139.0,55.0,177.0,-50.0,15.0,-6.0,527.0,205.0,857.0
140.0,57.0,179.0,-51.0,13.0,-5.0,525.0,209.0,853.0
139.0,61.0,184.0,-53.0,10.0,-5.0,527.0,204.0,855.0
138.0,51.0,179.0,-54.0,8.0,-5.0,533.0,208.0,860.0
140.0,52.0,184.0,-52.0,5.0,-3.0,529.0,199.0,855.0
138.0,57.0,177.0,-51.0,4.0,-3.0,533.0,196.0,860.0
137.0,58.0,179.0,-46.0,6.0,-3.0,532.0,203.0,857.0
141.0,57.0,176.0,-44.0,7.0,-4.0,528.0,206.0,850.0
139.0,58.0,182.0,-44.0,11.0,-5.0,534.0,209.0,848.0
141.0,55.0,179.0,-43.0,12.0,-4.0,535.0,208.0,849.0
139.0,59.0,181.0,-46.0,12.0,-5.0,539.0,210.0,858.0
139.0,56.0,179.0,-51.0,12.0,-4.0,537.0,206.0,853.0
140.0,58.0,178.0,-52.0,12.0,-4.0,539.0,212.0,850.0
144.0,56.0,179.0,-55.0,12.0,-2.0,536.0,208.0,848.0
140.0,61.0,179.0,-54.0,11.0,-3.0,540.0,213.0,852.0
141.0,59.0,178.0,-54.0,9.0,-2.0,539.0,208.0,853.0
140.0,60.0,177.0,-54.0,8.0,-2.0,537.0,211.0,858.0
137.0,60.0,179.0,-53.0,7.0,-2.0,535.0,213.0,851.0
139.0,58.0,180.0,-51.0,8.0,-1.0,539.0,214.0,857.0
139.0,59.0,181.0,-49.0,6.0,-1.0,533.0,209.0,852.0
139.0,64.0,183.0,-48.0,5.0,-1.0,534.0,206.0,851.0
141.0,56.0,181.0,-47.0,4.0,-2.0,535.0,211.0,857.0
140.0,59.0,181.0,-46.0,5.0,-2.0,534.0,212.0,850.0
141.0,60.0,184.0,-47.0,7.0,-3.0,536.0,210.0,850.0
144.0,61.0,180.0,-44.0,8.0,-2.0,538.0,207.0,848.0
140.0,58.0,179.0,-43.0,10.0,-3.0,533.0,212.0,853.0
139.0,62.0,178.0,-43.0,11.0,-4.0,534.0,211.0,847.0
141.0,57.0,176.0,-45.0,10.0,-3.0,533.0,213.0,852.0
140.0,57.0,181.0,-44.0,13.0,-3.0,530.0,209.0,851.0
141.0,60.0,180.0,-43.0,11.0,-2.0,534.0,213.0,852.0
140.0,56.0,180.0,-45.0,12.0,-2.0,533.0,212.0,853.0
140.0,58.0,180.0,-44.0,12.0,-2.0,536.0,214.0,851.0
142.0,54.0,179.0,-43.0,13.0,-3.0,531.0,213.0,849.0
138.0,58.0,179.0,-44.0,13.0,-2.0,534.0,213.0,852.0
141.0,59.0,180.0,-43.0,13.0,-2.0,534.0,210.0,847.0
142.0,58.0,178.0,-41.0,15.0,-2.0,529.0,206.0,853.0
140.0,58.0,179.0,-41.0,15.0,-3.0,530.0,208.0,850.0
139.0,59.0,179.0,-42.0,14.0,-2.0,536.0,208.0,857.0
140.0,59.0,182.0,-42.0,14.0,-3.0,535.0,206.0,848.0
139.0,57.0,177.0,-40.0,15.0,-4.0,533.0,207.0,849.0
142.0,58.0,179.0,-41.0,16.0,-4.0,535.0,209.0,846.0
139.0,60.0,179.0,-40.0,16.0,-3.0,535.0,205.0,851.0
142.0,53.0,177.0,-40.0,16.0,-4.0,531.0,207.0,851.0
141.0,57.0,180.0,-41.0,17.0,-4.0,541.0,211.0,847.0
138.0,62.0,181.0,-43.0,17.0,-5.0,535.0,207.0,855.0
140.0,58.0,178.0,-44.0,18.0,-6.0,533.0,214.0,852.0
142.0,57.0,184.0,-46.0,19.0,-6.0,530.0,203.0,850.0
140.0,54.0,180.0,-46.0,20.0,-5.0,537.0,206.0,854.0
140.0,59.0,179.0,-42.0,19.0,-4.0,538.0,206.0,853.0
141.0,57.0,182.0,-40.0,19.0,-4.0,539.0,204.0,847.0
141.0,59.0,177.0,-37.0,17.0,-5.0,540.0,206.0,847.0
141.0,60.0,181.0,-37.0,16.0,-5.0,539.0,212.0,848.0
139.0,61.0,181.0,-38.0,16.0,-6.0,535.0,210.0,851.0
140.0,58.0,182.0,-39.0,17.0,-6.0,532.0,206.0,849.0
139.0,60.0,181.0,-41.0,19.0,-8.0,530.0,210.0,856.0
140.0,58.0,180.0,-42.0,20.0,-10.0,534.0,205.0,847.0
138.0,59.0,178.0,-39.0,22.0,-9.0,529.0,208.0,854.0
135.0,60.0,183.0,-38.0,23.0,-9.0,525.0,204.0,854.0
142.0,57.0,178.0,-39.0,24.0,-8.0,529.0,207.0,852.0
139.0,57.0,180.0,-37.0,23.0,-7.0,534.0,206.0,848.0
140.0,59.0,180.0,-38.0,24.0,-7.0,535.0,213.0,855.0
140.0,58.0,179.0,-39.0,23.0,-7.0,537.0,208.0,847.0
139.0,58.0,180.0,-40.0,25.0,-8.0,532.0,206.0,849.0
139.0,59.0,179.0,-42.0,23.0,-6.0,533.0,210.0,853.0
139.0,60.0,179.0,-42.0,22.0,-6.0,534.0,209.0,855.0
143.0,58.0,182.0,-43.0,21.0,-6.0,541.0,209.0,860.0
139.0,58.0,183.0,-45.0,19.0,-5.0,535.0,208.0,853.0
138.0,58.0,180.0,-46.0,17.0,-5.0,537.0,207.0,858.0
144.0,56.0,183.0,-44.0,16.0,-4.0,535.0,207.0,857.0
138.0,59.0,183.0,-46.0,16.0,-5.0,538.0,208.0,852.0
138.0,60.0,180.0,-45.0,16.0,-4.0,535.0,210.0,853.0
140.0,57.0,178.0,-43.0,17.0,-5.0,538.0,211.0,854.0
141.0,59.0,177.0,-43.0,18.0,-5.0,535.0,206.0,849.0
142.0,57.0,175.0,-44.0,18.0,-6.0,533.0,209.0,855.0
140.0,58.0,181.0,-43.0,19.0,-6.0,535.0,214.0,853.0
139.0,61.0,179.0,-41.0,20.0,-6.0,537.0,213.0,852.0
141.0,57.0,181.0,-42.0,20.0,-6.0,534.0,212.0,851.0
137.0,63.0,178.0,-43.0,21.0,-5.0,539.0,215.0,848.0
142.0,61.0,181.0,-42.0,20.0,-6.0,541.0,215.0,858.0
142.0,55.0,181.0,-43.0,20.0,-6.0,533.0,213.0,846.0
140.0,57.0,179.0,-44.0,19.0,-4.0,535.0,210.0,853.0
140.0,59.0,179.0,-44.0,18.0,-5.0,537.0,215.0,852.0
140.0,59.0,179.0,-44.0,18.0,-5.0,534.0,211.0,851.0
137.0,60.0,178.0,-43.0,18.0,-5.0,534.0,212.0,855.0
139.0,60.0,181.0,-42.0,18.0,-4.0,534.0,212.0,850.0
140.0,59.0,180.0,-41.0,18.0,-5.0,538.0,213.0,850.0
139.0,60.0,180.0,-42.0,17.0,-5.0,533.0,207.0,854.0
140.0,54.0,184.0,-41.0,18.0,-4.0,534.0,211.0,852.0
135.0,58.0,181.0,-40.0,20.0,-5.0,531.0,213.0,860.0
139.0,60.0,178.0,-38.0,18.0,-4.0,531.0,209.0,850.0
136.0,61.0,183.0,-39.0,19.0,-4.0,537.0,211.0,849.0
139.0,59.0,180.0,-40.0,19.0,-4.0,533.0,207.0,851.0
142.0,59.0,180.0,-42.0,20.0,-3.0,535.0,204.0,852.0
139.0,61.0,177.0,-41.0,19.0,-4.0,536.0,211.0,852.0
142.0,60.0,178.0,-40.0,20.0,-5.0,538.0,212.0,853.0
141.0,58.0,181.0,-42.0,19.0,-5.0,532.0,211.0,853.0
138.0,58.0,177.0,-43.0,21.0,-4.0,537.0,213.0,854.0
139.0,60.0,184.0,-42.0,20.0,-4.0,537.0,209.0,849.0
141.0,58.0,176.0,-43.0,20.0,-4.0,534.0,211.0,857.0
144.0,60.0,177.0,-45.0,21.0,-5.0,537.0,210.0,847.0
140.0,58.0,179.0,-43.0,19.0,-4.0,533.0,209.0,854.0
131.0,58.0,187.0,-44.0,21.0,-3.0,537.0,209.0,852.0
143.0,56.0,180.0,-42.0,19.0,-3.0,535.0,209.0,848.0
139.0,57.0,178.0,-43.0,19.0,-2.0,529.0,209.0,851.0
137.0,57.0,177.0,-42.0,18.0,-1.0,534.0,207.0,853.0
141.0,57.0,177.0,-41.0,19.0,-2.0,534.0,209.0,851.0
140.0,59.0,180.0,-41.0,18.0,-2.0,533.0,208.0,850.0
139.0,59.0,178.0,-42.0,19.0,-3.0,532.0,212.0,850.0
139.0,58.0,178.0,-42.0,18.0,-5.0,534.0,210.0,853.0
138.0,59.0,182.0,-41.0,19.0,-4.0,531.0,210.0,852.0
138.0,58.0,175.0,-40.0,20.0,-4.0,537.0,213.0,862.0
137.0,54.0,182.0,-40.0,21.0,-5.0,531.0,212.0,855.0
140.0,58.0,181.0,-39.0,20.0,-6.0,531.0,210.0,849.0
