acc1_x,acc1_y,acc1_z,gyro_x,gyro_y,gyro_z,acc2_x,acc2_y,acc2_z
1.0,-253.0,-96.0,-61.0,12.0,-6.0,-71.0,-970.0,-222.0
3.0,-256.0,-94.0,-59.0,11.0,-5.0,-74.0,-968.0,-219.0
3.0,-254.0,-97.0,-61.0,11.0,-5.0,-75.0,-973.0,-220.0
1.0,-255.0,-98.0,-62.0,10.0,-5.0,-73.0,-980.0,-223.0
3.0,-256.0,-98.0,-60.0,8.0,-7.0,-73.0,-973.0,-227.0
1.0,-254.0,-97.0,-58.0,7.0,-6.0,-73.0,-979.0,-233.0
0.0,-256.0,-97.0,-55.0,6.0,-6.0,-78.0,-971.0,-227.0
2.0,-257.0,-99.0,-55.0,6.0,-6.0,-72.0,-970.0,-227.0
4.0,-258.0,-99.0,-55.0,5.0,-7.0,-73.0,-974.0,-226.0
1.0,-256.0,-99.0,-58.0,6.0,-6.0,-73.0,-968.0,-225.0
2.0,-255.0,-104.0,-58.0,5.0,-6.0,-73.0,-969.0,-228.0
3.0,-256.0,-97.0,-57.0,5.0,-7.0,-69.0,-970.0,-227.0
6.0,-258.0,-94.0,-59.0,5.0,-8.0,-73.0,-971.0,-221.0
3.0,-258.0,-98.0,-60.0,5.0,-9.0,-70.0,-969.0,-227.0
2.0,-258.0,-99.0,-60.0,5.0,-8.0,-73.0,-975.0,-228.0
2.0,-256.0,-98.0,-57.0,4.0,-10.0,-69.0,-974.0,-231.0
1.0,-257.0,-101.0,-54.0,4.0,-11.0,-73.0,-974.0,-231.0
3.0,-259.0,-96.0,-53.0,5.0,-10.0,-67.0,-972.0,-226.0
4.0,-255.0,-102.0,-53.0,4.0,-9.0,-73.0,-972.0,-229.0
6.0,-256.0,-102.0,-54.0,3.0,-10.0,-69.0,-967.0,-226.0
1.0,-256.0,-98.0,-55.0,5.0,-9.0,-70.0,-972.0,-230.0
2.0,-253.0,-101.0,-53.0,4.0,-8.0,-70.0,-969.0,-228.0
3.0,-255.0,-99.0,-55.0,4.0,-6.0,-67.0,-974.0,-233.0
4.0,-256.0,-96.0,-56.0,2.0,-8.0,-65.0,-971.0,-223.0
5.0,-256.0,-102.0,-55.0,1.0,-5.0,-65.0,-968.0,-229.0
3.0,-254.0,-98.0,-56.0,3.0,-5.0,-61.0,-969.0,-220.0
3.0,-254.0,-99.0,-56.0,3.0,-4.0,-68.0,-968.0,-226.0
5.0,-256.0,-95.0,-56.0,4.0,-5.0,-68.0,-967.0,-223.0
3.0,-256.0,-98.0,-57.0,5.0,-5.0,-71.0,-970.0,-222.0
2.0,-256.0,-96.0,-59.0,6.0,-6.0,-65.0,-969.0,-228.0
3.0,-254.0,-93.0,-60.0,7.0,-5.0,-71.0,-968.0,-225.0
3.0,-254.0,-98.0,-64.0,9.0,-4.0,-69.0,-968.0,-234.0
1.0,-254.0,-95.0,-67.0,10.0,-4.0,-68.0,-967.0,-229.0
2.0,-256.0,-99.0,-70.0,10.0,-4.0,-72.0,-968.0,-223.0
2.0,-255.0,-98.0,-70.0,12.0,-6.0,-73.0,-969.0,-226.0
5.0,-257.0,-99.0,-70.0,13.0,-8.0,-69.0,-967.0,-226.0
0.0,-255.0,-96.0,-71.0,14.0,-8.0,-71.0,-972.0,-232.0
2.0,-254.0,-98.0,-69.0,15.0,-7.0,-70.0,-970.0,-236.0
3.0,-256.0,-98.0,-67.0,16.0,-9.0,-70.0,-970.0,-233.0
1.0,-256.0,-98.0,-65.0,17.0,-9.0,-72.0,-970.0,-233.0
1.0,-254.0,-99.0,-62.0,18.0,-10.0,-72.0,-971.0,-234.0
2.0,-252.0,-99.0,-63.0,19.0,-10.0,-71.0,-968.0,-233.0
4.0,-255.0,-96.0,-62.0,20.0,-10.0,-68.0,-967.0,-227.0
2.0,-254.0,-102.0,-64.0,22.0,-11.0,-68.0,-968.0,-233.0
2.0,-255.0,-100.0,-66.0,24.0,-9.0,-67.0,-967.0,-230.0
2.0,-255.0,-100.0,-66.0,24.0,-8.0,-69.0,-970.0,-231.0
4.0,-256.0,-99.0,-62.0,22.0,-8.0,-68.0,-970.0,-239.0
2.0,-256.0,-99.0,-60.0,19.0,-7.0,-70.0,-974.0,-234.0
5.0,-255.0,-102.0,-58.0,16.0,-5.0,-67.0,-971.0,-239.0
3.0,-256.0,-102.0,-58.0,15.0,-5.0,-69.0,-970.0,-242.0
2.0,-256.0,-101.0,-59.0,15.0,-5.0,-68.0,-964.0,-240.0
6.0,-255.0,-98.0,-63.0,17.0,-5.0,-73.0,-969.0,-235.0
3.0,-256.0,-99.0,-65.0,20.0,-5.0,-66.0,-971.0,-235.0
2.0,-255.0,-96.0,-65.0,22.0,-5.0,-72.0,-969.0,-236.0
2.0,-255.0,-93.0,-65.0,25.0,-7.0,-69.0,-975.0,-233.0
2.0,-255.0,-98.0,-61.0,26.0,-7.0,-65.0,-972.0,-229.0
2.0,-256.0,-100.0,-59.0,27.0,-7.0,-73.0,-977.0,-233.0
3.0,-257.0,-96.0,-58.0,29.0,-6.0,-72.0,-975.0,-227.0
-6.0,-254.0,-102.0,-59.0,28.0,-7.0,-66.0,-967.0,-232.0
3.0,-253.0,-95.0,-61.0,29.0,-7.0,-67.0,-967.0,-231.0
1.0,-255.0,-97.0,-63.0,29.0,-6.0,-66.0,-964.0,-232.0
3.0,-253.0,-97.0,-66.0,27.0,-6.0,-67.0,-970.0,-231.0
3.0,-254.0,-99.0,-67.0,27.0,-6.0,-64.0,-963.0,-230.0
5.0,-254.0,-98.0,-67.0,25.0,-5.0,-73.0,-971.0,-236.0
1.0,-256.0,-99.0,-66.0,25.0,-4.0,-68.0,-971.0,-236.0
5.0,-255.0,-99.0,-64.0,26.0,-4.0,-72.0,-969.0,-240.0
2.0,-255.0,-100.0,-64.0,25.0,-3.0,-73.0,-968.0,-238.0
3.0,-255.0,-102.0,-62.0,27.0,-2.0,-75.0,-976.0,-236.0
1.0,-255.0,-98.0,-58.0,27.0,-2.0,-70.0,-980.0,-233.0
3.0,-249.0,-113.0,-49.0,28.0,-1.0,-68.0,-978.0,-235.0
2.0,-258.0,-100.0,-43.0,28.0,-1.0,-70.0,-965.0,-238.0
2.0,-254.0,-102.0,-40.0,29.0,-2.0,-71.0,-966.0,-245.0
1.0,-253.0,-99.0,-43.0,28.0,-3.0,-70.0,-965.0,-243.0
3.0,-254.0,-104.0,-47.0,29.0,-3.0,-67.0,-959.0,-231.0
3.0,-251.0,-97.0,-51.0,31.0,-3.0,-66.0,-963.0,-233.0
5.0,-255.0,-98.0,-58.0,33.0,-3.0,-69.0,-963.0,-230.0
5.0,-254.0,-99.0,-62.0,34.0,-5.0,-69.0,-967.0,-234.0
4.0,-255.0,-97.0,-63.0,34.0,-5.0,-74.0,-970.0,-229.0
3.0,-255.0,-94.0,-62.0,33.0,-5.0,-69.0,-971.0,-223.0
3.0,-255.0,-94.0,-60.0,32.0,-5.0,-68.0,-970.0,-226.0
3.0,-254.0,-97.0,-54.0,29.0,-6.0,-66.0,-973.0,-227.0
3.0,-255.0,-97.0,-50.0,27.0,-6.0,-66.0,-970.0,-228.0
3.0,-256.0,-98.0,-50.0,25.0,-4.0,-69.0,-966.0,-234.0
5.0,-254.0,-97.0,-51.0,24.0,-4.0,-66.0,-968.0,-234.0
3.0,-252.0,-92.0,-52.0,22.0,-4.0,-66.0,-967.0,-235.0
3.0,-254.0,-96.0,-55.0,22.0,-4.0,-69.0,-960.0,-232.0
4.0,-255.0,-99.0,-60.0,23.0,-3.0,-72.0,-964.0,-238.0
2.0,-257.0,-101.0,-61.0,24.0,-5.0,-70.0,-965.0,-237.0
3.0,-256.0,-99.0,-67.0,25.0,-3.0,-68.0,-968.0,-242.0
2.0,-254.0,-97.0,-67.0,26.0,-3.0,-68.0,-968.0,-238.0
4.0,-256.0,-99.0,-68.0,27.0,-2.0,-67.0,-965.0,-240.0
6.0,-257.0,-98.0,-66.0,27.0,-4.0,-68.0,-969.0,-239.0
3.0,-255.0,-103.0,-62.0,29.0,-3.0,-73.0,-972.0,-241.0
1.0,-255.0,-102.0,-59.0,29.0,-4.0,-72.0,-974.0,-243.0
2.0,-257.0,-102.0,-58.0,29.0,-4.0,-72.0,-971.0,-244.0
1.0,-255.0,-103.0,-59.0,29.0,-5.0,-71.0,-968.0,-245.0
3.0,-254.0,-99.0,-61.0,29.0,-4.0,-70.0,-974.0,-246.0
1.0,-254.0,-95.0,-62.0,29.0,-2.0,-73.0,-977.0,-240.0
1.0,-255.0,-99.0,-64.0,29.0,-3.0,-71.0,-972.0,-233.0
2.0,-256.0,-99.0,-59.0,29.0,-3.0,-72.0,-968.0,-235.0
2.0,-255.0,-100.0,-57.0,28.0,-4.0,-70.0,-972.0,-241.0
1.0,-253.0,-101.0,-54.0,26.0,-5.0,-69.0,-962.0,-245.0
3.0,-254.0,-103.0,-55.0,23.0,-7.0,-70.0,-967.0,-244.0
2.0,-255.0,-103.0,-59.0,20.0,-6.0,-74.0,-966.0,-241.0
0.0,-256.0,-103.0,-62.0,17.0,-3.0,-73.0,-972.0,-238.0
2.0,-258.0,-99.0,-63.0,15.0,-2.0,-71.0,-975.0,-239.0
2.0,-257.0,-100.0,-59.0,14.0,0.0,-71.0,-978.0,-237.0
3.0,-255.0,-99.0,-55.0,15.0,-2.0,-80.0,-971.0,-242.0
5.0,-255.0,-101.0,-51.0,14.0,-3.0,-71.0,-974.0,-241.0
0.0,-256.0,-103.0,-49.0,13.0,-3.0,-69.0,-966.0,-245.0
2.0,-254.0,-104.0,-46.0,14.0,-3.0,-75.0,-969.0,-241.0
2.0,-255.0,-100.0,-46.0,15.0,-4.0,-73.0,-967.0,-246.0
3.0,-254.0,-103.0,-48.0,15.0,-3.0,-74.0,-967.0,-252.0
4.0,-257.0,-102.0,-46.0,17.0,-3.0,-73.0,-969.0,-251.0
2.0,-254.0,-100.0,-46.0,18.0,-4.0,-67.0,-976.0,-243.0
3.0,-256.0,-103.0,-44.0,19.0,-5.0,-70.0,-967.0,-241.0
4.0,-255.0,-100.0,-41.0,20.0,-6.0,-72.0,-970.0,-243.0
3.0,-254.0,-103.0,-36.0,22.0,-7.0,-66.0,-966.0,-241.0
2.0,-254.0,-100.0,-36.0,23.0,-8.0,-71.0,-964.0,-247.0
2.0,-253.0,-102.0,-36.0,23.0,-9.0,-71.0,-961.0,-240.0
1.0,-253.0,-101.0,-38.0,22.0,-12.0,-74.0,-961.0,-242.0
3.0,-254.0,-101.0,-40.0,22.0,-12.0,-77.0,-962.0,-245.0
3.0,-255.0,-103.0,-40.0,22.0,-11.0,-73.0,-970.0,-244.0
0.0,-253.0,-100.0,-41.0,20.0,-8.0,-72.0,-969.0,-239.0
1.0,-254.0,-99.0,-42.0,19.0,-8.0,-71.0,-974.0,-245.0
1.0,-257.0,-99.0,-37.0,14.0,-8.0,-76.0,-973.0,-235.0
1.0,-256.0,-101.0,-35.0,10.0,-6.0,-74.0,-971.0,-240.0
2.0,-256.0,-101.0,-31.0,7.0,-5.0,-71.0,-977.0,-240.0
4.0,-256.0,-99.0,-29.0,4.0,-4.0,-75.0,-973.0,-246.0
4.0,-256.0,-100.0,-26.0,3.0,-4.0,-76.0,-971.0,-245.0
2.0,-254.0,-99.0,-25.0,3.0,-4.0,-65.0,-971.0,-240.0
3.0,-255.0,-98.0,-27.0,1.0,-4.0,-70.0,-970.0,-241.0
2.0,-255.0,-100.0,-30.0,1.0,-4.0,-75.0,-969.0,-235.0
1.0,-253.0,-102.0,-29.0,-1.0,-3.0,-75.0,-970.0,-240.0
5.0,-253.0,-100.0,-26.0,-6.0,-2.0,-65.0,-964.0,-230.0
6.0,-255.0,-100.0,-25.0,-5.0,-7.0,-59.0,-960.0,-232.0
5.0,-254.0,-101.0,-26.0,-2.0,-11.0,-59.0,-959.0,-238.0
6.0,-253.0,-95.0,-25.0,1.0,-14.0,-60.0,-958.0,-241.0
5.0,-251.0,-98.0,-28.0,7.0,-17.0,-59.0,-963.0,-249.0
9.0,-256.0,-103.0,-33.0,11.0,-16.0,-63.0,-967.0,-244.0
7.0,-255.0,-101.0,-37.0,14.0,-14.0,-55.0,-969.0,-246.0
6.0,-256.0,-100.0,-39.0,19.0,-17.0,-58.0,-970.0,-240.0
5.0,-253.0,-100.0,-37.0,21.0,-19.0,-63.0,-970.0,-231.0
5.0,-255.0,-100.0,-33.0,25.0,-22.0,-62.0,-966.0,-229.0
5.0,-255.0,-103.0,-28.0,27.0,-23.0,-62.0,-971.0,-233.0
5.0,-256.0,-102.0,-26.0,28.0,-25.0,-69.0,-969.0,-232.0
4.0,-253.0,-99.0,-25.0,29.0,-25.0,-67.0,-971.0,-238.0
1.0,-255.0,-100.0,-29.0,31.0,-23.0,-72.0,-972.0,-233.0
4.0,-256.0,-102.0,-33.0,32.0,-22.0,-75.0,-980.0,-240.0
4.0,-255.0,-95.0,-31.0,34.0,-20.0,-70.0,-978.0,-233.0
3.0,-255.0,-101.0,-29.0,32.0,-18.0,-69.0,-977.0,-234.0
2.0,-254.0,-97.0,-26.0,34.0,-17.0,-69.0,-974.0,-231.0
2.0,-257.0,-95.0,-24.0,33.0,-18.0,-69.0,-972.0,-230.0
2.0,-254.0,-99.0,-22.0,32.0,-18.0,-68.0,-972.0,-230.0
2.0,-254.0,-100.0,-20.0,33.0,-19.0,-71.0,-969.0,-226.0
4.0,-255.0,-97.0,-21.0,35.0,-21.0,-66.0,-969.0,-228.0
3.0,-257.0,-98.0,-23.0,37.0,-19.0,-70.0,-972.0,-233.0
2.0,-254.0,-96.0,-25.0,35.0,-17.0,-69.0,-980.0,-235.0
3.0,-259.0,-99.0,-24.0,33.0,-14.0,-64.0,-985.0,-229.0
2.0,-257.0,-97.0,-26.0,29.0,-11.0,-71.0,-985.0,-222.0
5.0,-256.0,-95.0,-24.0,26.0,-9.0,-68.0,-977.0,-219.0
3.0,-254.0,-98.0,-19.0,23.0,-9.0,-65.0,-968.0,-230.0
4.0,-253.0,-98.0,-19.0,22.0,-11.0,-65.0,-959.0,-228.0
2.0,-253.0,-100.0,-21.0,22.0,-12.0,-64.0,-960.0,-233.0
4.0,-253.0,-100.0,-27.0,21.0,-13.0,-65.0,-954.0,-238.0
3.0,-255.0,-98.0,-36.0,18.0,-12.0,-68.0,-964.0,-234.0
2.0,-256.0,-100.0,-42.0,18.0,-12.0,-73.0,-970.0,-238.0
2.0,-256.0,-97.0,-46.0,19.0,-9.0,-75.0,-970.0,-240.0
1.0,-254.0,-100.0,-44.0,20.0,-9.0,-75.0,-969.0,-239.0
4.0,-258.0,-100.0,-36.0,20.0,-9.0,-72.0,-975.0,-234.0
3.0,-257.0,-102.0,-28.0,21.0,-7.0,-70.0,-970.0,-233.0
1.0,-259.0,-98.0,-20.0,23.0,-9.0,-67.0,-973.0,-243.0
4.0,-255.0,-104.0,-16.0,22.0,-9.0,-69.0,-981.0,-246.0
4.0,-255.0,-102.0,-14.0,22.0,-8.0,-65.0,-969.0,-241.0
3.0,-258.0,-99.0,-12.0,24.0,-9.0,-68.0,-966.0,-248.0
3.0,-255.0,-99.0,-14.0,26.0,-10.0,-65.0,-963.0,-239.0
3.0,-252.0,-97.0,-19.0,28.0,-11.0,-66.0,-959.0,-235.0
4.0,-254.0,-101.0,-24.0,28.0,-12.0,-70.0,-961.0,-238.0
12.0,-252.0,-107.0,-32.0,27.0,-12.0,-76.0,-958.0,-235.0
2.0,-254.0,-100.0,-40.0,26.0,-14.0,-71.0,-966.0,-241.0
1.0,-253.0,-101.0,-48.0,26.0,-9.0,-77.0,-971.0,-232.0
3.0,-256.0,-99.0,-52.0,25.0,-8.0,-68.0,-972.0,-233.0
4.0,-259.0,-98.0,-46.0,23.0,-8.0,-62.0,-969.0,-229.0
3.0,-256.0,-99.0,-40.0,25.0,-9.0,-60.0,-974.0,-228.0
3.0,-257.0,-101.0,-34.0,26.0,-9.0,-64.0,-970.0,-234.0
2.0,-257.0,-94.0,-32.0,28.0,-8.0,-61.0,-975.0,-238.0
5.0,-256.0,-101.0,-33.0,28.0,-7.0,-63.0,-970.0,-239.0
2.0,-256.0,-97.0,-32.0,29.0,-8.0,-63.0,-972.0,-237.0
1.0,-254.0,-100.0,-35.0,31.0,-8.0,-66.0,-974.0,-242.0
2.0,-263.0,-88.0,-37.0,29.0,-7.0,-65.0,-971.0,-237.0
2.0,-256.0,-98.0,-37.0,27.0,-6.0,-65.0,-974.0,-233.0
2.0,-256.0,-101.0,-36.0,29.0,-6.0,-68.0,-978.0,-240.0
3.0,-255.0,-99.0,-35.0,29.0,-6.0,-66.0,-974.0,-239.0
2.0,-255.0,-100.0,-33.0,30.0,-6.0,-70.0,-976.0,-244.0
3.0,-255.0,-100.0,-30.0,30.0,-4.0,-74.0,-976.0,-240.0
5.0,-256.0,-100.0,-30.0,33.0,-5.0,-78.0,-973.0,-242.0
1.0,-254.0,-103.0,-27.0,33.0,-4.0,-72.0,-971.0,-247.0
3.0,-256.0,-103.0,-25.0,36.0,-6.0,-68.0,-972.0,-243.0
5.0,-254.0,-101.0,-24.0,38.0,-7.0,-69.0,-972.0,-241.0
3.0,-254.0,-101.0,-22.0,39.0,-5.0,-67.0,-974.0,-246.0
3.0,-255.0,-98.0,-21.0,40.0,-7.0,-68.0,-969.0,-249.0
1.0,-256.0,-102.0,-20.0,42.0,-6.0,-64.0,-974.0,-235.0
3.0,-256.0,-102.0,-22.0,43.0,-6.0,-72.0,-972.0,-244.0
1.0,-255.0,-101.0,-22.0,40.0,-6.0,-67.0,-968.0,-238.0
2.0,-255.0,-102.0,-22.0,41.0,-6.0,-69.0,-968.0,-241.0
1.0,-255.0,-103.0,-21.0,39.0,-7.0,-66.0,-962.0,-239.0
2.0,-255.0,-99.0,-22.0,38.0,-7.0,-74.0,-965.0,-237.0
6.0,-255.0,-100.0,-25.0,38.0,-8.0,-72.0,-971.0,-240.0
2.0,-254.0,-100.0,-24.0,38.0,-8.0,-67.0,-970.0,-239.0
3.0,-255.0,-103.0,-25.0,39.0,-7.0,-70.0,-970.0,-237.0
2.0,-255.0,-99.0,-22.0,37.0,-9.0,-70.0,-968.0,-243.0
0.0,-258.0,-98.0,-15.0,36.0,-11.0,-73.0,-970.0,-243.0
1.0,-254.0,-100.0,-12.0,35.0,-12.0,-79.0,-970.0,-244.0
3.0,-258.0,-105.0,-9.0,33.0,-10.0,-73.0,-975.0,-246.0
1.0,-256.0,-102.0,-7.0,29.0,-10.0,-70.0,-966.0,-247.0
2.0,-254.0,-104.0,-7.0,27.0,-10.0,-73.0,-965.0,-246.0
2.0,-256.0,-101.0,-9.0,28.0,-10.0,-74.0,-963.0,-242.0
3.0,-254.0,-103.0,-10.0,26.0,-8.0,-70.0,-967.0,-235.0
2.0,-253.0,-99.0,-12.0,24.0,-7.0,-73.0,-964.0,-234.0
2.0,-253.0,-101.0,-11.0,20.0,-5.0,-70.0,-967.0,-239.0
2.0,-254.0,-98.0,-11.0,19.0,-4.0,-72.0,-964.0,-241.0
3.0,-256.0,-99.0,-11.0,16.0,-4.0,-72.0,-969.0,-240.0
4.0,-256.0,-102.0,-11.0,14.0,-2.0,-73.0,-971.0,-237.0
0.0,-252.0,-101.0,-13.0,11.0,-1.0,-72.0,-970.0,-244.0
4.0,-255.0,-100.0,-16.0,10.0,-1.0,-75.0,-968.0,-238.0
5.0,-256.0,-99.0,-16.0,10.0,-1.0,-74.0,-967.0,-234.0
5.0,-255.0,-98.0,-13.0,9.0,-1.0,-74.0,-968.0,-236.0
5.0,-257.0,-100.0,-10.0,9.0,-3.0,-75.0,-967.0,-237.0
1.0,-253.0,-100.0,-8.0,10.0,-3.0,-72.0,-963.0,-237.0
3.0,-255.0,-100.0,-9.0,6.0,-1.0,-74.0,-966.0,-233.0
2.0,-255.0,-98.0,-12.0,5.0,1.0,-68.0,-968.0,-238.0
2.0,-256.0,-100.0,-17.0,3.0,1.0,-71.0,-961.0,-235.0
4.0,-254.0,-102.0,-20.0,3.0,0.0,-75.0,-965.0,-235.0
1.0,-253.0,-97.0,-19.0,4.0,-1.0,-73.0,-960.0,-228.0
2.0,-253.0,-102.0,-18.0,1.0,-5.0,-69.0,-964.0,-234.0
2.0,-256.0,-101.0,-21.0,-1.0,-7.0,-72.0,-964.0,-235.0
3.0,-255.0,-95.0,-24.0,-3.0,-7.0,-69.0,-963.0,-230.0
2.0,-255.0,-98.0,-28.0,-4.0,-7.0,-70.0,-960.0,-233.0
3.0,-256.0,-96.0,-28.0,-4.0,-7.0,-69.0,-966.0,-227.0
3.0,-254.0,-99.0,-28.0,-5.0,-7.0,-67.0,-968.0,-226.0
5.0,-253.0,-97.0,-28.0,-6.0,-7.0,-63.0,-968.0,-231.0
3.0,-254.0,-99.0,-28.0,-8.0,-8.0,-66.0,-964.0,-235.0
3.0,-256.0,-101.0,-30.0,-10.0,-6.0,-64.0,-968.0,-241.0
4.0,-255.0,-102.0,-32.0,-14.0,-6.0,-69.0,-968.0,-250.0
1.0,-254.0,-101.0,-36.0,-19.0,-6.0,-71.0,-967.0,-247.0
1.0,-256.0,-107.0,-39.0,-25.0,-4.0,-72.0,-968.0,-248.0
3.0,-255.0,-103.0,-42.0,-30.0,-2.0,-68.0,-967.0,-245.0
3.0,-256.0,-102.0,-46.0,-33.0,-3.0,-69.0,-969.0,-246.0
1.0,-255.0,-100.0,-49.0,-37.0,-1.0,-74.0,-974.0,-243.0
2.0,-256.0,-101.0,-48.0,-40.0,0.0,-75.0,-972.0,-243.0
1.0,-256.0,-101.0,-45.0,-45.0,0.0,-75.0,-969.0,-244.0
3.0,-254.0,-102.0,-41.0,-48.0,-3.0,-73.0,-965.0,-245.0
2.0,-256.0,-102.0,-34.0,-51.0,-8.0,-74.0,-960.0,-244.0
0.0,-252.0,-102.0,-30.0,-53.0,-11.0,-79.0,-960.0,-241.0
1.0,-252.0,-98.0,-30.0,-55.0,-14.0,-83.0,-957.0,-239.0
0.0,-250.0,-104.0,-32.0,-58.0,-16.0,-79.0,-958.0,-239.0
1.0,-253.0,-98.0,-32.0,-61.0,-16.0,-84.0,-957.0,-231.0
0.0,-255.0,-99.0,-31.0,-68.0,-17.0,-93.0,-964.0,-232.0
1.0,-255.0,-99.0,-34.0,-75.0,-18.0,-89.0,-966.0,-229.0
0.0,-256.0,-98.0,-37.0,-80.0,-20.0,-84.0,-969.0,-233.0
0.0,-256.0,-98.0,-41.0,-86.0,-21.0,-86.0,-968.0,-236.0
0.0,-253.0,-101.0,-37.0,-88.0,-25.0,-92.0,-965.0,-233.0
1.0,-256.0,-105.0,-30.0,-89.0,-31.0,-89.0,-965.0,-234.0
0.0,-255.0,-96.0,-24.0,-88.0,-35.0,-90.0,-964.0,-233.0
2.0,-255.0,-103.0,-16.0,-87.0,-41.0,-86.0,-962.0,-241.0
1.0,-255.0,-104.0,-11.0,-86.0,-45.0,-87.0,-964.0,-241.0
-1.0,-255.0,-102.0,-8.0,-84.0,-47.0,-82.0,-962.0,-244.0
4.0,-255.0,-100.0,-10.0,-83.0,-47.0,-77.0,-968.0,-244.0
1.0,-256.0,-100.0,-11.0,-78.0,-49.0,-77.0,-967.0,-240.0
1.0,-255.0,-104.0,-10.0,-73.0,-48.0,-74.0,-967.0,-242.0
5.0,-256.0,-100.0,-7.0,-69.0,-49.0,-74.0,-970.0,-231.0
3.0,-255.0,-98.0,0.0,-67.0,-47.0,-70.0,-967.0,-233.0
1.0,-256.0,-103.0,8.0,-66.0,-49.0,-70.0,-965.0,-242.0
1.0,-256.0,-101.0,19.0,-64.0,-49.0,-71.0,-964.0,-242.0
3.0,-255.0,-99.0,28.0,-64.0,-50.0,-70.0,-961.0,-239.0
1.0,-252.0,-101.0,36.0,-65.0,-51.0,-73.0,-960.0,-239.0
1.0,-250.0,-103.0,41.0,-65.0,-53.0,-75.0,-955.0,-238.0
3.0,-253.0,-97.0,42.0,-65.0,-54.0,-75.0,-953.0,-238.0
2.0,-248.0,-100.0,38.0,-65.0,-55.0,-74.0,-945.0,-234.0
2.0,-249.0,-102.0,34.0,-65.0,-57.0,-77.0,-945.0,-232.0
1.0,-250.0,-93.0,29.0,-65.0,-56.0,-79.0,-947.0,-222.0
1.0,-248.0,-96.0,26.0,-65.0,-53.0,-77.0,-952.0,-227.0
2.0,-251.0,-96.0,24.0,-69.0,-54.0,-64.0,-950.0,-223.0
5.0,-253.0,-94.0,24.0,-69.0,-53.0,-61.0,-951.0,-223.0
4.0,-252.0,-96.0,21.0,-69.0,-52.0,-57.0,-954.0,-222.0
11.0,-250.0,-95.0,22.0,-70.0,-53.0,-61.0,-952.0,-223.0
3.0,-249.0,-96.0,21.0,-73.0,-53.0,-59.0,-951.0,-223.0
14.0,-251.0,-93.0,24.0,-78.0,-51.0,-50.0,-954.0,-223.0
7.0,-252.0,-94.0,26.0,-84.0,-48.0,-57.0,-952.0,-218.0
4.0,-252.0,-97.0,25.0,-89.0,-45.0,-54.0,-958.0,-217.0
6.0,-256.0,-96.0,23.0,-92.0,-45.0,-60.0,-967.0,-212.0
2.0,-257.0,-95.0,22.0,-92.0,-46.0,-61.0,-975.0,-207.0
3.0,-258.0,-92.0,20.0,-95.0,-48.0,-65.0,-982.0,-202.0
5.0,-258.0,-90.0,20.0,-96.0,-52.0,-67.0,-988.0,-200.0
3.0,-257.0,-90.0,22.0,-96.0,-57.0,-67.0,-981.0,-191.0
13.0,-255.0,-87.0,29.0,-95.0,-59.0,-64.0,-981.0,-195.0
4.0,-258.0,-93.0,39.0,-93.0,-63.0,-66.0,-976.0,-198.0
3.0,-253.0,-90.0,44.0,-88.0,-66.0,-68.0,-966.0,-197.0
2.0,-253.0,-84.0,49.0,-83.0,-69.0,-66.0,-963.0,-201.0
3.0,-250.0,-90.0,51.0,-81.0,-73.0,-67.0,-954.0,-215.0
1.0,-252.0,-94.0,44.0,-84.0,-76.0,-65.0,-947.0,-214.0
0.0,-249.0,-98.0,34.0,-86.0,-76.0,-72.0,-951.0,-217.0
0.0,-251.0,-95.0,24.0,-90.0,-77.0,-72.0,-949.0,-218.0
0.0,-252.0,-94.0,15.0,-93.0,-77.0,-74.0,-957.0,-218.0
2.0,-254.0,-96.0,9.0,-90.0,-77.0,-71.0,-959.0,-219.0
4.0,-254.0,-92.0,7.0,-86.0,-77.0,-71.0,-959.0,-215.0
4.0,-253.0,-94.0,8.0,-82.0,-78.0,-68.0,-964.0,-220.0
3.0,-254.0,-94.0,15.0,-75.0,-78.0,-65.0,-959.0,-217.0
4.0,-252.0,-93.0,21.0,-70.0,-77.0,-62.0,-955.0,-219.0
8.0,-251.0,-87.0,26.0,-65.0,-76.0,-59.0,-957.0,-215.0
9.0,-253.0,-96.0,33.0,-59.0,-78.0,-58.0,-959.0,-222.0
8.0,-252.0,-95.0,41.0,-52.0,-80.0,-51.0,-959.0,-219.0
12.0,-254.0,-93.0,46.0,-46.0,-80.0,-48.0,-955.0,-212.0
11.0,-253.0,-93.0,47.0,-40.0,-77.0,-46.0,-962.0,-207.0
10.0,-252.0,-88.0,48.0,-31.0,-74.0,-39.0,-958.0,-204.0
14.0,-255.0,-87.0,44.0,-25.0,-68.0,-35.0,-961.0,-196.0
12.0,-253.0,-85.0,40.0,-15.0,-64.0,-31.0,-965.0,-189.0
14.0,-253.0,-80.0,35.0,-4.0,-62.0,-30.0,-961.0,-181.0
11.0,-253.0,-87.0,30.0,5.0,-59.0,-32.0,-966.0,-176.0
12.0,-255.0,-83.0,25.0,12.0,-53.0,-37.0,-971.0,-174.0
13.0,-257.0,-82.0,22.0,15.0,-49.0,-38.0,-970.0,-173.0
11.0,-256.0,-83.0,18.0,15.0,-44.0,-39.0,-980.0,-173.0
8.0,-257.0,-84.0,20.0,12.0,-41.0,-50.0,-982.0,-170.0
9.0,-260.0,-80.0,21.0,6.0,-37.0,-50.0,-987.0,-168.0
9.0,-257.0,-86.0,24.0,1.0,-34.0,-52.0,-986.0,-174.0
8.0,-258.0,-85.0,25.0,-3.0,-31.0,-54.0,-984.0,-179.0
7.0,-257.0,-87.0,27.0,-6.0,-28.0,-56.0,-984.0,-186.0
5.0,-256.0,-89.0,20.0,-11.0,-25.0,-52.0,-977.0,-190.0
5.0,-255.0,-91.0,11.0,-16.0,-24.0,-56.0,-971.0,-198.0
8.0,-254.0,-91.0,1.0,-21.0,-27.0,-57.0,-962.0,-192.0
6.0,-252.0,-91.0,-8.0,-26.0,-28.0,-60.0,-958.0,-197.0
7.0,-254.0,-91.0,-15.0,-31.0,-31.0,-59.0,-959.0,-201.0
2.0,-253.0,-93.0,-24.0,-35.0,-34.0,-61.0,-964.0,-201.0
5.0,-255.0,-89.0,-35.0,-38.0,-35.0,-59.0,-969.0,-199.0
8.0,-256.0,-89.0,-44.0,-41.0,-38.0,-57.0,-968.0,-199.0
6.0,-253.0,-85.0,-48.0,-42.0,-43.0,-57.0,-970.0,-196.0
6.0,-257.0,-86.0,-48.0,-40.0,-48.0,-55.0,-977.0,-193.0
4.0,-260.0,-84.0,-45.0,-39.0,-53.0,-51.0,-985.0,-187.0
9.0,-262.0,-84.0,-38.0,-36.0,-55.0,-53.0,-990.0,-181.0
7.0,-260.0,-83.0,-31.0,-33.0,-56.0,-50.0,-990.0,-177.0
8.0,-261.0,-81.0,-23.0,-31.0,-58.0,-47.0,-994.0,-175.0
9.0,-263.0,-85.0,-15.0,-29.0,-58.0,-49.0,-992.0,-176.0
10.0,-260.0,-85.0,-11.0,-28.0,-61.0,-52.0,-994.0,-188.0
7.0,-257.0,-85.0,-8.0,-28.0,-62.0,-56.0,-990.0,-191.0
5.0,-257.0,-87.0,-9.0,-30.0,-62.0,-60.0,-986.0,-192.0
4.0,-258.0,-92.0,-8.0,-30.0,-61.0,-61.0,-982.0,-196.0
5.0,-257.0,-89.0,-8.0,-32.0,-59.0,-64.0,-986.0,-198.0
7.0,-259.0,-93.0,-8.0,-31.0,-55.0,-58.0,-981.0,-207.0
6.0,-256.0,-91.0,-11.0,-31.0,-50.0,-54.0,-970.0,-200.0
8.0,-255.0,-97.0,-15.0,-29.0,-49.0,-57.0,-970.0,-205.0
8.0,-250.0,-91.0,-20.0,-27.0,-47.0,-61.0,-969.0,-205.0
4.0,-252.0,-92.0,-23.0,-24.0,-45.0,-59.0,-965.0,-204.0
4.0,-253.0,-90.0,-30.0,-21.0,-42.0,-61.0,-964.0,-199.0
4.0,-253.0,-87.0,-37.0,-19.0,-39.0,-66.0,-962.0,-199.0
10.0,-259.0,-89.0,-38.0,-15.0,-36.0,-57.0,-960.0,-196.0
5.0,-252.0,-85.0,-35.0,-9.0,-34.0,-59.0,-962.0,-191.0
9.0,-253.0,-89.0,-33.0,-5.0,-33.0,-50.0,-962.0,-193.0
8.0,-253.0,-87.0,-32.0,-4.0,-31.0,-48.0,-961.0,-196.0
12.0,-253.0,-88.0,-35.0,-1.0,-30.0,-39.0,-964.0,-196.0
13.0,-256.0,-92.0,-40.0,0.0,-28.0,-36.0,-967.0,-193.0
11.0,-256.0,-88.0,-44.0,0.0,-27.0,-31.0,-971.0,-193.0
12.0,-256.0,-85.0,-46.0,-1.0,-26.0,-38.0,-978.0,-187.0
10.0,-258.0,-86.0,-43.0,0.0,-25.0,-36.0,-984.0,-184.0
10.0,-259.0,-86.0,-37.0,2.0,-22.0,-36.0,-995.0,-175.0
11.0,-259.0,-80.0,-30.0,4.0,-21.0,-46.0,-1008.0,-177.0
9.0,-263.0,-82.0,-25.0,3.0,-19.0,-50.0,-1013.0,-178.0
6.0,-269.0,-85.0,-22.0,-1.0,-15.0,-60.0,-1012.0,-181.0
2.0,-267.0,-86.0,-21.0,-7.0,-8.0,-60.0,-1019.0,-182.0
5.0,-269.0,-91.0,-16.0,-14.0,-2.0,-72.0,-1027.0,-188.0
3.0,-269.0,-87.0,-13.0,-23.0,5.0,-65.0,-1023.0,-195.0
3.0,-267.0,-90.0,-8.0,-29.0,11.0,-62.0,-1020.0,-198.0
2.0,-264.0,-90.0,1.0,-33.0,14.0,-62.0,-1007.0,-189.0
5.0,-262.0,-85.0,18.0,-36.0,13.0,-57.0,-998.0,-185.0
2.0,-259.0,-84.0,39.0,-37.0,9.0,-61.0,-987.0,-189.0
3.0,-257.0,-89.0,58.0,-39.0,6.0,-57.0,-984.0,-191.0
5.0,-258.0,-95.0,73.0,-37.0,4.0,-65.0,-984.0,-202.0
6.0,-258.0,-94.0,85.0,-34.0,1.0,-60.0,-987.0,-211.0
4.0,-257.0,-92.0,94.0,-28.0,-2.0,-59.0,-980.0,-208.0
10.0,-259.0,-90.0,103.0,-20.0,-5.0,-52.0,-990.0,-206.0
8.0,-263.0,-91.0,108.0,-10.0,-8.0,-51.0,-995.0,-197.0
10.0,-263.0,-88.0,118.0,1.0,-8.0,-51.0,-1007.0,-194.0
11.0,-266.0,-87.0,126.0,10.0,-4.0,-45.0,-1014.0,-182.0
14.0,-266.0,-83.0,137.0,20.0,-2.0,-37.0,-1010.0,-173.0
15.0,-262.0,-83.0,155.0,32.0,-5.0,-29.0,-1005.0,-165.0
15.0,-259.0,-85.0,175.0,46.0,-11.0,-30.0,-996.0,-169.0
17.0,-257.0,-79.0,184.0,58.0,-16.0,-27.0,-983.0,-173.0
15.0,-257.0,-93.0,182.0,68.0,-22.0,-28.0,-989.0,-190.0
12.0,-257.0,-87.0,163.0,81.0,-33.0,-27.0,-982.0,-195.0
13.0,-252.0,-83.0,142.0,89.0,-41.0,-31.0,-960.0,-172.0
9.0,-247.0,-83.0,140.0,84.0,-40.0,-40.0,-935.0,-175.0
11.0,-242.0,-88.0,133.0,75.0,-34.0,-40.0,-926.0,-190.0
8.0,-242.0,-91.0,112.0,68.0,-27.0,-43.0,-931.0,-208.0
10.0,-244.0,-90.0,80.0,65.0,-23.0,-41.0,-934.0,-203.0
11.0,-247.0,-87.0,47.0,66.0,-23.0,-45.0,-941.0,-198.0
8.0,-248.0,-84.0,19.0,67.0,-21.0,-44.0,-942.0,-188.0
11.0,-251.0,-84.0,5.0,63.0,-23.0,-43.0,-950.0,-169.0
8.0,-251.0,-78.0,0.0,59.0,-24.0,-47.0,-955.0,-163.0
5.0,-252.0,-78.0,-2.0,55.0,-24.0,-60.0,-960.0,-164.0
4.0,-255.0,-84.0,-4.0,53.0,-23.0,-60.0,-969.0,-160.0
6.0,-253.0,-76.0,-10.0,49.0,-21.0,-60.0,-965.0,-158.0
4.0,-255.0,-78.0,-9.0,47.0,-19.0,-67.0,-971.0,-160.0
2.0,-257.0,-79.0,-8.0,45.0,-15.0,-69.0,-969.0,-164.0
0.0,-257.0,-82.0,-9.0,39.0,-10.0,-78.0,-972.0,-161.0
1.0,-256.0,-85.0,-12.0,33.0,0.0,-75.0,-986.0,-173.0
3.0,-256.0,-90.0,-18.0,27.0,9.0,-67.0,-983.0,-178.0
6.0,-258.0,-78.0,-26.0,23.0,14.0,-70.0,-986.0,-179.0
12.0,-258.0,-83.0,-34.0,15.0,17.0,-80.0,-985.0,-179.0
2.0,-255.0,-85.0,-40.0,8.0,23.0,-73.0,-978.0,-182.0
2.0,-257.0,-87.0,-46.0,-4.0,26.0,-67.0,-970.0,-185.0
4.0,-254.0,-88.0,-48.0,-10.0,25.0,-66.0,-957.0,-184.0
2.0,-251.0,-85.0,-49.0,-16.0,23.0,-61.0,-951.0,-186.0
7.0,-247.0,-85.0,-48.0,-18.0,18.0,-54.0,-946.0,-190.0
7.0,-249.0,-87.0,-45.0,-18.0,13.0,-54.0,-933.0,-187.0
6.0,-245.0,-88.0,-49.0,-15.0,5.0,-55.0,-937.0,-186.0
9.0,-247.0,-86.0,-54.0,-9.0,0.0,-52.0,-938.0,-180.0
7.0,-245.0,-80.0,-57.0,-6.0,-7.0,-50.0,-936.0,-169.0
6.0,-248.0,-84.0,-57.0,1.0,-13.0,-48.0,-946.0,-156.0
14.0,-245.0,-93.0,-54.0,7.0,-22.0,-48.0,-946.0,-151.0
3.0,-253.0,-78.0,-52.0,13.0,-28.0,-54.0,-956.0,-154.0
3.0,-254.0,-80.0,-53.0,17.0,-32.0,-52.0,-958.0,-158.0
8.0,-256.0,-79.0,-54.0,22.0,-31.0,-47.0,-971.0,-157.0
9.0,-256.0,-81.0,-55.0,30.0,-29.0,-46.0,-973.0,-164.0
8.0,-258.0,-86.0,-56.0,40.0,-27.0,-48.0,-980.0,-168.0
12.0,-257.0,-86.0,-55.0,55.0,-23.0,-44.0,-982.0,-170.0
11.0,-256.0,-82.0,-55.0,71.0,-17.0,-35.0,-986.0,-178.0
12.0,-257.0,-87.0,-56.0,87.0,-10.0,-30.0,-988.0,-179.0
13.0,-261.0,-88.0,-62.0,100.0,0.0,-30.0,-995.0,-186.0
14.0,-262.0,-88.0,-75.0,106.0,14.0,-29.0,-1004.0,-194.0
15.0,-261.0,-86.0,-87.0,108.0,30.0,-24.0,-1005.0,-193.0
16.0,-262.0,-88.0,-91.0,105.0,44.0,-19.0,-1006.0,-200.0
17.0,-260.0,-90.0,-93.0,99.0,53.0,-18.0,-999.0,-197.0
16.0,-259.0,-91.0,-92.0,87.0,63.0,-18.0,-991.0,-203.0
16.0,-258.0,-93.0,-94.0,70.0,74.0,-27.0,-989.0,-208.0
14.0,-256.0,-88.0,-100.0,52.0,86.0,-23.0,-987.0,-203.0
18.0,-257.0,-90.0,-101.0,35.0,93.0,-17.0,-972.0,-191.0
16.0,-257.0,-85.0,-101.0,23.0,96.0,-22.0,-971.0,-183.0
13.0,-254.0,-87.0,-105.0,11.0,94.0,-34.0,-967.0,-187.0
10.0,-255.0,-85.0,-113.0,-2.0,95.0,-34.0,-968.0,-184.0
13.0,-255.0,-88.0,-122.0,-12.0,94.0,-35.0,-963.0,-179.0
11.0,-253.0,-87.0,-129.0,-16.0,94.0,-37.0,-964.0,-180.0
8.0,-251.0,-82.0,-138.0,-17.0,89.0,-46.0,-964.0,-177.0
8.0,-255.0,-80.0,-150.0,-17.0,85.0,-49.0,-965.0,-174.0
5.0,-254.0,-80.0,-159.0,-16.0,81.0,-59.0,-960.0,-168.0
5.0,-253.0,-82.0,-166.0,-17.0,76.0,-55.0,-958.0,-161.0
2.0,-254.0,-84.0,-168.0,-19.0,69.0,-65.0,-959.0,-166.0
3.0,-255.0,-80.0,-173.0,-18.0,68.0,-67.0,-967.0,-172.0
2.0,-255.0,-81.0,-182.0,-18.0,68.0,-64.0,-966.0,-172.0
4.0,-252.0,-84.0,-194.0,-15.0,66.0,-59.0,-969.0,-173.0
4.0,-251.0,-88.0,-203.0,-5.0,64.0,-63.0,-967.0,-178.0
5.0,-256.0,-89.0,-213.0,0.0,61.0,-59.0,-963.0,-184.0
5.0,-255.0,-85.0,-230.0,4.0,61.0,-62.0,-960.0,-185.0
9.0,-256.0,-85.0,-242.0,5.0,58.0,-66.0,-968.0,-192.0
6.0,-255.0,-90.0,-254.0,4.0,56.0,-63.0,-968.0,-198.0
5.0,-256.0,-87.0,-262.0,2.0,49.0,-60.0,-969.0,-198.0
4.0,-255.0,-90.0,-268.0,0.0,41.0,-56.0,-967.0,-199.0
5.0,-255.0,-94.0,-270.0,-7.0,36.0,-55.0,-972.0,-193.0
1.0,-254.0,-91.0,-267.0,-13.0,27.0,-54.0,-974.0,-199.0
4.0,-259.0,-90.0,-265.0,-21.0,19.0,-64.0,-978.0,-204.0
3.0,-254.0,-93.0,-262.0,-31.0,13.0,-69.0,-979.0,-209.0
3.0,-256.0,-92.0,-264.0,-37.0,9.0,-66.0,-980.0,-212.0
8.0,-257.0,-92.0,-266.0,-39.0,2.0,-60.0,-984.0,-209.0
7.0,-257.0,-90.0,-264.0,-35.0,-4.0,-45.0,-986.0,-198.0
5.0,-256.0,-90.0,-257.0,-32.0,-14.0,-51.0,-988.0,-197.0
6.0,-259.0,-89.0,-246.0,-30.0,-21.0,-62.0,-988.0,-184.0
6.0,-260.0,-88.0,-235.0,-33.0,-28.0,-59.0,-985.0,-190.0
8.0,-256.0,-82.0,-226.0,-39.0,-32.0,-53.0,-982.0,-185.0
9.0,-257.0,-83.0,-217.0,-42.0,-38.0,-51.0,-978.0,-183.0
7.0,-255.0,-83.0,-208.0,-44.0,-46.0,-49.0,-978.0,-179.0
9.0,-255.0,-85.0,-200.0,-46.0,-51.0,-46.0,-974.0,-192.0
5.0,-255.0,-85.0,-197.0,-47.0,-55.0,-54.0,-969.0,-188.0
3.0,-256.0,-84.0,-194.0,-49.0,-59.0,-55.0,-962.0,-188.0
4.0,-254.0,-88.0,-195.0,-48.0,-59.0,-56.0,-965.0,-195.0
9.0,-251.0,-93.0,-199.0,-47.0,-57.0,-52.0,-963.0,-200.0
8.0,-253.0,-94.0,-206.0,-42.0,-55.0,-49.0,-958.0,-202.0
10.0,-253.0,-92.0,-215.0,-37.0,-50.0,-41.0,-960.0,-202.0
12.0,-251.0,-89.0,-227.0,-33.0,-46.0,-39.0,-955.0,-204.0
12.0,-252.0,-90.0,-239.0,-29.0,-42.0,-37.0,-955.0,-202.0
12.0,-250.0,-92.0,-247.0,-26.0,-39.0,-35.0,-959.0,-204.0
10.0,-254.0,-91.0,-252.0,-28.0,-38.0,-38.0,-956.0,-200.0
11.0,-251.0,-89.0,-255.0,-25.0,-40.0,-42.0,-959.0,-208.0
7.0,-253.0,-91.0,-254.0,-25.0,-44.0,-51.0,-964.0,-214.0
5.0,-253.0,-91.0,-253.0,-26.0,-45.0,-64.0,-966.0,-215.0
2.0,-256.0,-93.0,-251.0,-30.0,-44.0,-63.0,-965.0,-212.0
5.0,-257.0,-95.0,-243.0,-29.0,-41.0,-63.0,-977.0,-217.0
7.0,-253.0,-97.0,-231.0,-26.0,-43.0,-61.0,-967.0,-227.0
8.0,-256.0,-98.0,-219.0,-19.0,-43.0,-57.0,-969.0,-222.0
9.0,-253.0,-96.0,-205.0,-6.0,-45.0,-57.0,-966.0,-223.0
11.0,-253.0,-96.0,-196.0,2.0,-47.0,-42.0,-962.0,-226.0
13.0,-250.0,-98.0,-188.0,9.0,-47.0,-32.0,-950.0,-216.0
15.0,-253.0,-97.0,-181.0,20.0,-50.0,-28.0,-948.0,-217.0
17.0,-250.0,-96.0,-185.0,29.0,-49.0,-22.0,-947.0,-217.0
16.0,-248.0,-92.0,-185.0,37.0,-48.0,-18.0,-953.0,-209.0
15.0,-251.0,-92.0,-183.0,41.0,-47.0,-21.0,-953.0,-206.0
16.0,-254.0,-91.0,-177.0,47.0,-47.0,-32.0,-953.0,-204.0
16.0,-254.0,-94.0,-171.0,53.0,-46.0,-37.0,-957.0,-210.0
10.0,-252.0,-92.0,-167.0,58.0,-44.0,-38.0,-962.0,-201.0
9.0,-253.0,-95.0,-163.0,58.0,-37.0,-45.0,-963.0,-218.0
11.0,-254.0,-96.0,-161.0,55.0,-31.0,-46.0,-966.0,-218.0
7.0,-256.0,-94.0,-163.0,54.0,-25.0,-45.0,-967.0,-219.0
8.0,-254.0,-98.0,-163.0,52.0,-21.0,-49.0,-974.0,-228.0
9.0,-256.0,-96.0,-166.0,48.0,-16.0,-53.0,-974.0,-225.0
7.0,-252.0,-101.0,-166.0,45.0,-10.0,-53.0,-978.0,-231.0
5.0,-256.0,-101.0,-161.0,44.0,-7.0,-53.0,-974.0,-233.0
7.0,-256.0,-97.0,-159.0,43.0,-6.0,-59.0,-977.0,-245.0
6.0,-258.0,-96.0,-158.0,40.0,-4.0,-63.0,-971.0,-230.0
2.0,-253.0,-100.0,-151.0,35.0,-5.0,-64.0,-968.0,-240.0
4.0,-260.0,-103.0,-154.0,34.0,-6.0,-72.0,-971.0,-240.0
2.0,-254.0,-98.0,-165.0,33.0,-7.0,-70.0,-967.0,-226.0
0.0,-253.0,-95.0,-167.0,29.0,-13.0,-73.0,-970.0,-227.0
1.0,-253.0,-92.0,-169.0,25.0,-19.0,-70.0,-964.0,-219.0
3.0,-254.0,-94.0,-165.0,20.0,-23.0,-75.0,-966.0,-213.0
0.0,-254.0,-94.0,-158.0,13.0,-26.0,-84.0,-966.0,-211.0
0.0,-256.0,-96.0,-151.0,6.0,-28.0,-88.0,-961.0,-210.0
3.0,-255.0,-90.0,-143.0,-2.0,-27.0,-87.0,-967.0,-208.0
0.0,-255.0,-91.0,-134.0,-8.0,-26.0,-87.0,-967.0,-205.0
1.0,-255.0,-90.0,-123.0,-15.0,-22.0,-83.0,-959.0,-205.0
2.0,-255.0,-94.0,-114.0,-22.0,-20.0,-83.0,-961.0,-213.0
0.0,-253.0,-96.0,-106.0,-28.0,-21.0,-86.0,-962.0,-214.0
0.0,-255.0,-99.0,-99.0,-34.0,-23.0,-89.0,-957.0,-220.0
0.0,-252.0,-96.0,-95.0,-39.0,-23.0,-83.0,-956.0,-221.0
0.0,-252.0,-94.0,-98.0,-43.0,-23.0,-91.0,-959.0,-227.0
0.0,-247.0,-98.0,-102.0,-43.0,-24.0,-92.0,-945.0,-229.0
0.0,-251.0,-98.0,-109.0,-41.0,-25.0,-88.0,-943.0,-231.0
-2.0,-246.0,-98.0,-116.0,-41.0,-22.0,-89.0,-939.0,-231.0
1.0,-246.0,-101.0,-125.0,-38.0,-21.0,-88.0,-933.0,-236.0
6.0,-244.0,-102.0,-138.0,-33.0,-16.0,-67.0,-930.0,-246.0
13.0,-233.0,-116.0,-159.0,-26.0,-15.0,-59.0,-926.0,-248.0
8.0,-241.0,-102.0,-182.0,-19.0,-15.0,-53.0,-920.0,-236.0
10.0,-240.0,-100.0,-203.0,-14.0,-16.0,-54.0,-920.0,-244.0
9.0,-239.0,-103.0,-222.0,-11.0,-17.0,-48.0,-909.0,-247.0
10.0,-236.0,-106.0,-239.0,-8.0,-14.0,-49.0,-910.0,-240.0
10.0,-238.0,-103.0,-250.0,-5.0,-13.0,-45.0,-905.0,-245.0
9.0,-240.0,-100.0,-259.0,-6.0,-10.0,-37.0,-910.0,-254.0
12.0,-241.0,-108.0,-265.0,-6.0,-11.0,-36.0,-912.0,-260.0
9.0,-240.0,-109.0,-276.0,-7.0,-12.0,-45.0,-915.0,-266.0
6.0,-241.0,-106.0,-286.0,-11.0,-12.0,-48.0,-925.0,-267.0
5.0,-239.0,-109.0,-299.0,-18.0,-12.0,-55.0,-923.0,-267.0
6.0,-246.0,-109.0,-310.0,-23.0,-12.0,-60.0,-929.0,-265.0
5.0,-247.0,-105.0,-322.0,-29.0,-14.0,-59.0,-933.0,-271.0
6.0,-243.0,-106.0,-331.0,-32.0,-13.0,-58.0,-937.0,-262.0
6.0,-249.0,-99.0,-333.0,-36.0,-14.0,-56.0,-944.0,-250.0
6.0,-251.0,-105.0,-327.0,-39.0,-14.0,-59.0,-945.0,-251.0
9.0,-251.0,-106.0,-319.0,-42.0,-13.0,-57.0,-950.0,-262.0
6.0,-251.0,-104.0,-313.0,-41.0,-10.0,-52.0,-950.0,-260.0
10.0,-252.0,-109.0,-307.0,-38.0,-7.0,-50.0,-947.0,-271.0
9.0,-251.0,-112.0,-302.0,-32.0,-3.0,-46.0,-949.0,-282.0
11.0,-249.0,-111.0,-299.0,-22.0,-1.0,-35.0,-944.0,-282.0
13.0,-249.0,-115.0,-294.0,-14.0,0.0,-40.0,-939.0,-280.0
7.0,-245.0,-108.0,-286.0,-13.0,1.0,-50.0,-931.0,-269.0
5.0,-246.0,-115.0,-277.0,-17.0,12.0,-56.0,-929.0,-291.0
10.0,-247.0,-114.0,-280.0,-17.0,19.0,-42.0,-940.0,-300.0
7.0,-250.0,-114.0,-288.0,-14.0,16.0,-46.0,-942.0,-293.0
3.0,-249.0,-109.0,-284.0,-15.0,10.0,-51.0,-951.0,-283.0
7.0,-254.0,-115.0,-270.0,-23.0,6.0,-57.0,-952.0,-290.0
5.0,-254.0,-110.0,-253.0,-30.0,2.0,-56.0,-962.0,-291.0
2.0,-254.0,-119.0,-235.0,-35.0,4.0,-67.0,-966.0,-292.0
4.0,-253.0,-118.0,-217.0,-40.0,4.0,-70.0,-965.0,-301.0
2.0,-256.0,-116.0,-204.0,-44.0,8.0,-77.0,-967.0,-303.0
1.0,-255.0,-119.0,-197.0,-50.0,10.0,-77.0,-968.0,-308.0
1.0,-254.0,-117.0,-195.0,-58.0,8.0,-76.0,-967.0,-314.0
3.0,-256.0,-117.0,-201.0,-67.0,8.0,-78.0,-968.0,-312.0
3.0,-255.0,-117.0,-208.0,-75.0,7.0,-75.0,-965.0,-308.0
2.0,-254.0,-115.0,-213.0,-83.0,6.0,-76.0,-967.0,-305.0
2.0,-255.0,-116.0,-218.0,-89.0,2.0,-70.0,-958.0,-303.0
1.0,-252.0,-117.0,-220.0,-92.0,3.0,-71.0,-959.0,-301.0
2.0,-254.0,-116.0,-222.0,-90.0,4.0,-67.0,-954.0,-303.0
8.0,-253.0,-118.0,-225.0,-88.0,4.0,-62.0,-957.0,-306.0
6.0,-254.0,-113.0,-226.0,-82.0,5.0,-55.0,-956.0,-304.0
2.0,-252.0,-114.0,-227.0,-76.0,3.0,-55.0,-963.0,-302.0
8.0,-252.0,-115.0,-230.0,-71.0,2.0,-55.0,-953.0,-304.0
7.0,-251.0,-116.0,-230.0,-66.0,0.0,-59.0,-952.0,-294.0
8.0,-252.0,-119.0,-230.0,-60.0,-3.0,-58.0,-950.0,-296.0
6.0,-249.0,-117.0,-227.0,-54.0,-4.0,-60.0,-954.0,-300.0
5.0,-253.0,-113.0,-217.0,-50.0,-3.0,-58.0,-956.0,-302.0
7.0,-254.0,-119.0,-206.0,-45.0,-1.0,-60.0,-961.0,-305.0
9.0,-255.0,-120.0,-190.0,-44.0,1.0,-56.0,-967.0,-311.0
10.0,-256.0,-117.0,-175.0,-39.0,2.0,-51.0,-970.0,-322.0
9.0,-256.0,-124.0,-162.0,-36.0,1.0,-46.0,-976.0,-330.0
9.0,-255.0,-125.0,-155.0,-37.0,-4.0,-47.0,-969.0,-328.0
7.0,-257.0,-122.0,-148.0,-42.0,-9.0,-48.0,-981.0,-321.0
8.0,-256.0,-121.0,-138.0,-49.0,-13.0,-55.0,-980.0,-328.0
3.0,-256.0,-120.0,-126.0,-55.0,-15.0,-52.0,-978.0,-324.0
6.0,-257.0,-120.0,-116.0,-61.0,-16.0,-61.0,-972.0,-324.0
3.0,-255.0,-123.0,-109.0,-65.0,-16.0,-59.0,-966.0,-325.0
5.0,-253.0,-119.0,-104.0,-68.0,-14.0,-58.0,-966.0,-320.0
9.0,-251.0,-119.0,-103.0,-66.0,-11.0,-56.0,-961.0,-311.0
8.0,-250.0,-119.0,-104.0,-64.0,-7.0,-48.0,-949.0,-303.0
11.0,-248.0,-116.0,-105.0,-62.0,-2.0,-45.0,-947.0,-307.0
10.0,-249.0,-116.0,-108.0,-60.0,-1.0,-43.0,-948.0,-305.0
11.0,-247.0,-115.0,-115.0,-60.0,2.0,-37.0,-944.0,-296.0
12.0,-249.0,-115.0,-116.0,-59.0,2.0,-37.0,-937.0,-291.0
11.0,-248.0,-116.0,-117.0,-58.0,2.0,-36.0,-935.0,-294.0
12.0,-248.0,-113.0,-116.0,-57.0,3.0,-32.0,-933.0,-292.0
13.0,-249.0,-115.0,-114.0,-57.0,2.0,-34.0,-943.0,-293.0
10.0,-248.0,-114.0,-110.0,-59.0,1.0,-36.0,-942.0,-303.0
16.0,-249.0,-117.0,-105.0,-57.0,-3.0,-38.0,-945.0,-303.0
12.0,-253.0,-118.0,-100.0,-56.0,-7.0,-39.0,-950.0,-307.0
7.0,-252.0,-120.0,-93.0,-57.0,-15.0,-49.0,-955.0,-309.0
5.0,-250.0,-119.0,-88.0,-57.0,-21.0,-54.0,-957.0,-315.0
7.0,-253.0,-123.0,-80.0,-56.0,-24.0,-60.0,-959.0,-323.0
7.0,-254.0,-121.0,-69.0,-52.0,-28.0,-59.0,-958.0,-317.0
4.0,-254.0,-122.0,-60.0,-46.0,-28.0,-61.0,-962.0,-317.0
5.0,-255.0,-118.0,-50.0,-39.0,-31.0,-60.0,-959.0,-310.0
6.0,-254.0,-115.0,-42.0,-33.0,-31.0,-63.0,-953.0,-304.0
5.0,-248.0,-115.0,-32.0,-30.0,-33.0,-57.0,-947.0,-305.0
4.0,-248.0,-114.0,-21.0,-31.0,-35.0,-59.0,-946.0,-303.0
7.0,-248.0,-114.0,-14.0,-33.0,-37.0,-57.0,-941.0,-299.0
6.0,-247.0,-115.0,-7.0,-39.0,-37.0,-50.0,-938.0,-302.0
6.0,-245.0,-118.0,-3.0,-44.0,-42.0,-49.0,-936.0,-302.0
11.0,-244.0,-117.0,-1.0,-45.0,-46.0,-36.0,-934.0,-307.0
13.0,-242.0,-114.0,-6.0,-41.0,-47.0,-34.0,-932.0,-299.0
15.0,-247.0,-116.0,-8.0,-37.0,-52.0,-25.0,-926.0,-294.0
19.0,-245.0,-115.0,-9.0,-32.0,-60.0,-15.0,-926.0,-301.0
15.0,-243.0,-116.0,-13.0,-22.0,-68.0,-21.0,-927.0,-299.0
19.0,-241.0,-115.0,-17.0,-10.0,-77.0,-18.0,-922.0,-298.0
19.0,-245.0,-115.0,-20.0,5.0,-84.0,-15.0,-925.0,-299.0
18.0,-239.0,-115.0,-22.0,17.0,-96.0,-20.0,-926.0,-305.0
15.0,-244.0,-120.0,-23.0,27.0,-101.0,-35.0,-928.0,-311.0
9.0,-246.0,-117.0,-23.0,30.0,-107.0,-44.0,-929.0,-309.0
8.0,-243.0,-120.0,-23.0,28.0,-109.0,-53.0,-930.0,-308.0
2.0,-245.0,-117.0,-26.0,23.0,-109.0,-61.0,-930.0,-314.0
2.0,-243.0,-113.0,-29.0,12.0,-107.0,-76.0,-928.0,-302.0
6.0,-247.0,-112.0,-25.0,0.0,-101.0,-70.0,-933.0,-295.0
1.0,-244.0,-115.0,-22.0,-12.0,-93.0,-75.0,-931.0,-297.0
2.0,-243.0,-114.0,-24.0,-25.0,-86.0,-73.0,-926.0,-289.0
1.0,-245.0,-109.0,-27.0,-37.0,-79.0,-77.0,-930.0,-291.0
0.0,-244.0,-111.0,-32.0,-50.0,-73.0,-72.0,-925.0,-284.0
3.0,-243.0,-113.0,-37.0,-63.0,-68.0,-70.0,-922.0,-292.0
1.0,-244.0,-115.0,-42.0,-76.0,-67.0,-73.0,-928.0,-297.0
1.0,-244.0,-117.0,-47.0,-91.0,-69.0,-77.0,-931.0,-302.0
1.0,-246.0,-119.0,-52.0,-109.0,-68.0,-74.0,-932.0,-305.0
2.0,-245.0,-118.0,-55.0,-124.0,-66.0,-71.0,-939.0,-308.0
0.0,-250.0,-121.0,-58.0,-133.0,-64.0,-79.0,-940.0,-316.0
2.0,-249.0,-124.0,-62.0,-138.0,-59.0,-75.0,-944.0,-321.0
3.0,-250.0,-120.0,-73.0,-139.0,-52.0,-70.0,-950.0,-328.0
3.0,-252.0,-122.0,-82.0,-137.0,-46.0,-62.0,-964.0,-323.0
9.0,-256.0,-123.0,-83.0,-132.0,-42.0,-55.0,-966.0,-328.0
10.0,-256.0,-122.0,-82.0,-123.0,-38.0,-41.0,-972.0,-330.0
12.0,-256.0,-121.0,-80.0,-118.0,-34.0,-34.0,-981.0,-334.0
15.0,-261.0,-126.0,-76.0,-110.0,-31.0,-32.0,-991.0,-338.0
16.0,-262.0,-126.0,-71.0,-104.0,-31.0,-24.0,-995.0,-331.0
19.0,-268.0,-122.0,-65.0,-97.0,-28.0,-18.0,-1004.0,-338.0
20.0,-269.0,-121.0,-62.0,-92.0,-31.0,-17.0,-1011.0,-329.0
12.0,-266.0,-118.0,-60.0,-83.0,-35.0,-22.0,-1017.0,-324.0
14.0,-265.0,-120.0,-53.0,-77.0,-40.0,-29.0,-1018.0,-320.0
11.0,-268.0,-120.0,-43.0,-73.0,-45.0,-35.0,-1019.0,-321.0
10.0,-256.0,-129.0,-35.0,-72.0,-49.0,-39.0,-1009.0,-319.0
8.0,-265.0,-120.0,-25.0,-72.0,-52.0,-42.0,-1004.0,-320.0
7.0,-263.0,-120.0,-16.0,-74.0,-54.0,-48.0,-998.0,-321.0
7.0,-258.0,-123.0,-9.0,-76.0,-56.0,-59.0,-991.0,-328.0
6.0,-257.0,-124.0,-5.0,-77.0,-57.0,-62.0,-984.0,-337.0
4.0,-256.0,-126.0,-6.0,-78.0,-56.0,-68.0,-976.0,-330.0
3.0,-255.0,-122.0,-8.0,-77.0,-56.0,-65.0,-974.0,-334.0
6.0,-255.0,-123.0,-10.0,-72.0,-53.0,-64.0,-970.0,-332.0
4.0,-255.0,-123.0,-15.0,-62.0,-50.0,-69.0,-964.0,-334.0
5.0,-253.0,-124.0,-24.0,-50.0,-41.0,-69.0,-958.0,-336.0
3.0,-250.0,-124.0,-35.0,-40.0,-30.0,-62.0,-954.0,-331.0
7.0,-249.0,-132.0,-46.0,-31.0,-22.0,-62.0,-945.0,-324.0
9.0,-248.0,-120.0,-55.0,-26.0,-16.0,-51.0,-951.0,-328.0
13.0,-248.0,-121.0,-65.0,-24.0,-11.0,-45.0,-946.0,-333.0
15.0,-250.0,-128.0,-72.0,-18.0,-10.0,-36.0,-947.0,-333.0
14.0,-250.0,-126.0,-82.0,-12.0,-10.0,-29.0,-946.0,-339.0
18.0,-250.0,-126.0,-95.0,-4.0,-12.0,-26.0,-948.0,-348.0
16.0,-248.0,-126.0,-103.0,8.0,-13.0,-27.0,-948.0,-340.0
13.0,-249.0,-124.0,-111.0,20.0,-15.0,-29.0,-947.0,-342.0
13.0,-249.0,-124.0,-119.0,29.0,-17.0,-25.0,-944.0,-334.0
16.0,-249.0,-121.0,-124.0,34.0,-20.0,-36.0,-945.0,-331.0
12.0,-247.0,-122.0,-130.0,35.0,-22.0,-36.0,-936.0,-328.0
9.0,-245.0,-124.0,-139.0,35.0,-23.0,-45.0,-935.0,-328.0
4.0,-244.0,-123.0,-146.0,33.0,-24.0,-48.0,-934.0,-333.0
8.0,-244.0,-124.0,-156.0,32.0,-27.0,-55.0,-928.0,-331.0
7.0,-243.0,-123.0,-164.0,32.0,-28.0,-55.0,-931.0,-330.0
8.0,-244.0,-122.0,-172.0,36.0,-30.0,-60.0,-927.0,-323.0
7.0,-244.0,-122.0,-174.0,41.0,-33.0,-61.0,-922.0,-324.0
9.0,-243.0,-126.0,-176.0,46.0,-32.0,-52.0,-925.0,-329.0
13.0,-241.0,-121.0,-180.0,51.0,-29.0,-47.0,-917.0,-331.0
9.0,-240.0,-124.0,-180.0,55.0,-28.0,-50.0,-918.0,-335.0
10.0,-241.0,-122.0,-186.0,59.0,-25.0,-50.0,-914.0,-342.0
11.0,-240.0,-128.0,-190.0,64.0,-23.0,-46.0,-914.0,-343.0
9.0,-242.0,-129.0,-193.0,65.0,-20.0,-47.0,-910.0,-339.0
10.0,-242.0,-124.0,-195.0,63.0,-15.0,-50.0,-909.0,-339.0
8.0,-237.0,-123.0,-191.0,57.0,-10.0,-47.0,-914.0,-338.0
10.0,-240.0,-128.0,-184.0,50.0,-8.0,-36.0,-913.0,-340.0
14.0,-243.0,-126.0,-173.0,44.0,-9.0,-39.0,-920.0,-341.0
11.0,-242.0,-125.0,-161.0,40.0,-9.0,-33.0,-927.0,-342.0
12.0,-245.0,-122.0,-151.0,39.0,-11.0,-33.0,-925.0,-332.0
14.0,-241.0,-121.0,-142.0,39.0,-10.0,-32.0,-921.0,-327.0
16.0,-241.0,-122.0,-134.0,44.0,-9.0,-29.0,-919.0,-323.0
19.0,-240.0,-122.0,-128.0,45.0,-7.0,-20.0,-911.0,-327.0
18.0,-239.0,-117.0,-127.0,45.0,-7.0,-23.0,-902.0,-321.0
13.0,-238.0,-118.0,-127.0,44.0,-7.0,-20.0,-896.0,-318.0
11.0,-231.0,-120.0,-129.0,39.0,-5.0,-37.0,-889.0,-324.0
12.0,-235.0,-123.0,-137.0,33.0,-2.0,-38.0,-895.0,-323.0
13.0,-236.0,-126.0,-143.0,21.0,5.0,-46.0,-885.0,-328.0
9.0,-234.0,-123.0,-143.0,7.0,16.0,-46.0,-887.0,-332.0
8.0,-235.0,-126.0,-144.0,-8.0,25.0,-53.0,-891.0,-335.0
8.0,-236.0,-124.0,-142.0,-20.0,37.0,-46.0,-890.0,-335.0
10.0,-235.0,-127.0,-137.0,-33.0,44.0,-52.0,-897.0,-341.0
8.0,-236.0,-129.0,-132.0,-42.0,51.0,-45.0,-901.0,-369.0
11.0,-235.0,-134.0,-141.0,-40.0,54.0,-38.0,-890.0,-366.0
13.0,-233.0,-127.0,-152.0,-35.0,55.0,-34.0,-878.0,-355.0
11.0,-234.0,-126.0,-154.0,-29.0,56.0,-34.0,-886.0,-344.0
16.0,-234.0,-129.0,-153.0,-24.0,57.0,-30.0,-885.0,-344.0
17.0,-236.0,-127.0,-149.0,-21.0,51.0,-27.0,-890.0,-349.0
13.0,-238.0,-128.0,-147.0,-21.0,44.0,-27.0,-903.0,-341.0
14.0,-241.0,-127.0,-146.0,-26.0,33.0,-34.0,-908.0,-346.0
19.0,-243.0,-128.0,-143.0,-32.0,22.0,-13.0,-921.0,-356.0
19.0,-245.0,-130.0,-136.0,-35.0,14.0,-14.0,-926.0,-363.0
15.0,-245.0,-130.0,-133.0,-32.0,3.0,-30.0,-927.0,-364.0
10.0,-242.0,-127.0,-133.0,-34.0,-5.0,-39.0,-934.0,-351.0
9.0,-243.0,-126.0,-141.0,-36.0,-8.0,-44.0,-931.0,-346.0
8.0,-248.0,-122.0,-139.0,-38.0,-11.0,-40.0,-937.0,-332.0
10.0,-245.0,-128.0,-135.0,-42.0,-15.0,-51.0,-933.0,-329.0
5.0,-246.0,-123.0,-135.0,-45.0,-15.0,-60.0,-936.0,-328.0
6.0,-247.0,-122.0,-129.0,-44.0,-11.0,-56.0,-929.0,-324.0
3.0,-245.0,-119.0,-119.0,-39.0,-8.0,-72.0,-932.0,-321.0
0.0,-248.0,-122.0,-105.0,-36.0,-2.0,-76.0,-929.0,-322.0
0.0,-244.0,-120.0,-93.0,-38.0,5.0,-69.0,-932.0,-317.0
1.0,-247.0,-123.0,-77.0,-44.0,10.0,-81.0,-936.0,-325.0
1.0,-247.0,-124.0,-65.0,-49.0,15.0,-73.0,-936.0,-328.0
6.0,-244.0,-125.0,-56.0,-52.0,18.0,-63.0,-934.0,-334.0
6.0,-246.0,-125.0,-50.0,-51.0,16.0,-71.0,-928.0,-328.0
4.0,-245.0,-126.0,-47.0,-44.0,17.0,-61.0,-928.0,-334.0
12.0,-249.0,-121.0,-45.0,-35.0,19.0,-57.0,-931.0,-338.0
10.0,-247.0,-127.0,-39.0,-25.0,21.0,-43.0,-934.0,-338.0
13.0,-247.0,-127.0,-36.0,-16.0,16.0,-35.0,-940.0,-338.0
13.0,-248.0,-124.0,-31.0,-9.0,11.0,-36.0,-935.0,-346.0
13.0,-247.0,-131.0,-32.0,0.0,8.0,-30.0,-937.0,-368.0
14.0,-251.0,-128.0,-44.0,4.0,2.0,-29.0,-942.0,-348.0
13.0,-250.0,-132.0,-51.0,3.0,-5.0,-38.0,-944.0,-361.0
11.0,-248.0,-127.0,-59.0,6.0,-8.0,-37.0,-943.0,-346.0
11.0,-251.0,-125.0,-60.0,1.0,-15.0,-41.0,-944.0,-341.0
9.0,-248.0,-126.0,-55.0,-2.0,-22.0,-49.0,-943.0,-338.0
6.0,-253.0,-129.0,-46.0,-4.0,-26.0,-52.0,-948.0,-338.0
4.0,-251.0,-126.0,-34.0,1.0,-28.0,-58.0,-949.0,-338.0
4.0,-250.0,-123.0,-22.0,6.0,-27.0,-58.0,-949.0,-324.0
4.0,-247.0,-120.0,-6.0,12.0,-22.0,-70.0,-941.0,-321.0
-1.0,-243.0,-118.0,5.0,19.0,-14.0,-86.0,-935.0,-317.0
2.0,-242.0,-120.0,5.0,24.0,-2.0,-85.0,-929.0,-318.0
0.0,-243.0,-119.0,-4.0,28.0,8.0,-91.0,-917.0,-307.0
0.0,-236.0,-118.0,-21.0,37.0,22.0,-83.0,-913.0,-309.0
3.0,-240.0,-120.0,-47.0,44.0,35.0,-71.0,-915.0,-305.0
5.0,-239.0,-121.0,-69.0,51.0,41.0,-58.0,-921.0,-306.0
3.0,-245.0,-118.0,-88.0,59.0,44.0,-63.0,-937.0,-311.0
3.0,-247.0,-122.0,-102.0,63.0,45.0,-67.0,-943.0,-316.0
2.0,-254.0,-121.0,-107.0,61.0,46.0,-64.0,-955.0,-322.0
1.0,-258.0,-123.0,-101.0,59.0,45.0,-73.0,-975.0,-323.0
0.0,-257.0,-123.0,-84.0,57.0,44.0,-89.0,-982.0,-341.0
-1.0,-258.0,-128.0,-60.0,59.0,49.0,-93.0,-997.0,-346.0
-3.0,-261.0,-127.0,-41.0,58.0,55.0,-108.0,-1001.0,-356.0
-5.0,-265.0,-133.0,-22.0,56.0,64.0,-106.0,-1005.0,-373.0
-3.0,-264.0,-132.0,-9.0,54.0,70.0,-95.0,-1010.0,-373.0
-4.0,-264.0,-134.0,-2.0,51.0,76.0,-102.0,-1011.0,-372.0
0.0,-263.0,-131.0,3.0,46.0,78.0,-86.0,-1009.0,-373.0
8.0,-272.0,-129.0,12.0,43.0,78.0,-68.0,-1009.0,-367.0
-5.0,-253.0,-123.0,22.0,50.0,69.0,-63.0,-1020.0,-341.0
1.0,-268.0,-131.0,40.0,48.0,58.0,-77.0,-1021.0,-340.0
2.0,-274.0,-128.0,56.0,48.0,53.0,-72.0,-1031.0,-349.0
6.0,-273.0,-130.0,64.0,44.0,47.0,-63.0,-1041.0,-346.0
5.0,-274.0,-126.0,72.0,45.0,39.0,-56.0,-1054.0,-337.0
6.0,-276.0,-122.0,84.0,47.0,34.0,-61.0,-1050.0,-338.0
4.0,-275.0,-127.0,98.0,59.0,27.0,-65.0,-1048.0,-343.0
5.0,-272.0,-123.0,114.0,71.0,25.0,-70.0,-1041.0,-346.0
3.0,-271.0,-127.0,128.0,83.0,24.0,-67.0,-1031.0,-352.0
5.0,-268.0,-125.0,140.0,97.0,20.0,-62.0,-1020.0,-349.0
9.0,-272.0,-125.0,145.0,107.0,19.0,-60.0,-1007.0,-344.0
7.0,-260.0,-126.0,151.0,117.0,10.0,-58.0,-990.0,-338.0
6.0,-260.0,-124.0,153.0,120.0,3.0,-60.0,-983.0,-327.0
3.0,-256.0,-122.0,156.0,122.0,-4.0,-68.0,-978.0,-328.0
5.0,-256.0,-123.0,153.0,117.0,-8.0,-63.0,-980.0,-332.0
3.0,-256.0,-121.0,149.0,115.0,-15.0,-70.0,-982.0,-331.0
1.0,-257.0,-127.0,145.0,109.0,-18.0,-74.0,-977.0,-338.0
0.0,-257.0,-126.0,145.0,102.0,-21.0,-82.0,-978.0,-337.0
0.0,-259.0,-124.0,150.0,91.0,-21.0,-94.0,-982.0,-345.0
1.0,-258.0,-125.0,152.0,81.0,-20.0,-80.0,-981.0,-342.0
-1.0,-255.0,-127.0,152.0,69.0,-19.0,-86.0,-971.0,-344.0
1.0,-257.0,-129.0,148.0,58.0,-23.0,-75.0,-977.0,-353.0
3.0,-256.0,-128.0,141.0,51.0,-28.0,-74.0,-970.0,-353.0
4.0,-256.0,-131.0,134.0,51.0,-37.0,-65.0,-968.0,-359.0
4.0,-254.0,-129.0,132.0,57.0,-50.0,-59.0,-970.0,-358.0
11.0,-257.0,-133.0,130.0,68.0,-59.0,-53.0,-970.0,-363.0
8.0,-256.0,-127.0,136.0,80.0,-70.0,-45.0,-969.0,-356.0
8.0,-257.0,-131.0,145.0,94.0,-80.0,-49.0,-982.0,-357.0
12.0,-261.0,-127.0,157.0,102.0,-87.0,-44.0,-975.0,-363.0
10.0,-256.0,-129.0,170.0,109.0,-91.0,-45.0,-981.0,-358.0
10.0,-256.0,-127.0,178.0,118.0,-96.0,-41.0,-978.0,-353.0
13.0,-255.0,-127.0,183.0,122.0,-101.0,-40.0,-971.0,-343.0
11.0,-257.0,-121.0,186.0,127.0,-107.0,-36.0,-977.0,-322.0
9.0,-257.0,-114.0,187.0,127.0,-112.0,-41.0,-972.0,-303.0
6.0,-255.0,-111.0,186.0,125.0,-113.0,-50.0,-974.0,-290.0
7.0,-255.0,-113.0,182.0,120.0,-115.0,-61.0,-976.0,-283.0
5.0,-258.0,-111.0,177.0,113.0,-111.0,-58.0,-978.0,-291.0
4.0,-259.0,-111.0,172.0,113.0,-107.0,-54.0,-992.0,-293.0
9.0,-261.0,-118.0,170.0,119.0,-104.0,-54.0,-991.0,-300.0
3.0,-263.0,-118.0,173.0,126.0,-101.0,-63.0,-998.0,-298.0
2.0,-260.0,-114.0,180.0,131.0,-95.0,-71.0,-1004.0,-300.0
1.0,-266.0,-112.0,191.0,132.0,-90.0,-77.0,-1007.0,-300.0
0.0,-266.0,-110.0,207.0,127.0,-82.0,-79.0,-1013.0,-305.0
2.0,-268.0,-122.0,227.0,122.0,-73.0,-74.0,-1019.0,-308.0
5.0,-268.0,-117.0,248.0,119.0,-67.0,-67.0,-1022.0,-306.0
3.0,-263.0,-111.0,273.0,112.0,-60.0,-68.0,-1016.0,-297.0
1.0,-264.0,-114.0,296.0,103.0,-58.0,-69.0,-1006.0,-290.0
4.0,-264.0,-109.0,319.0,89.0,-57.0,-62.0,-994.0,-281.0
8.0,-257.0,-109.0,336.0,73.0,-57.0,-59.0,-985.0,-280.0
5.0,-255.0,-111.0,346.0,59.0,-57.0,-52.0,-969.0,-280.0
9.0,-255.0,-105.0,350.0,49.0,-60.0,-46.0,-967.0,-276.0
7.0,-254.0,-106.0,350.0,47.0,-63.0,-46.0,-964.0,-266.0
10.0,-253.0,-107.0,351.0,47.0,-66.0,-46.0,-962.0,-262.0
11.0,-255.0,-101.0,352.0,46.0,-70.0,-46.0,-966.0,-251.0
11.0,-253.0,-102.0,351.0,48.0,-74.0,-38.0,-961.0,-248.0
9.0,-254.0,-102.0,354.0,50.0,-79.0,-39.0,-967.0,-247.0
13.0,-256.0,-101.0,356.0,53.0,-81.0,-44.0,-968.0,-250.0
13.0,-256.0,-103.0,357.0,60.0,-81.0,-38.0,-972.0,-253.0
11.0,-256.0,-103.0,356.0,66.0,-81.0,-37.0,-973.0,-255.0
13.0,-257.0,-105.0,357.0,70.0,-78.0,-35.0,-972.0,-254.0
10.0,-256.0,-103.0,361.0,74.0,-79.0,-34.0,-973.0,-255.0
15.0,-255.0,-104.0,365.0,77.0,-75.0,-34.0,-970.0,-258.0
11.0,-256.0,-107.0,368.0,81.0,-72.0,-37.0,-971.0,-258.0
13.0,-257.0,-107.0,371.0,88.0,-69.0,-32.0,-976.0,-258.0
13.0,-257.0,-102.0,372.0,95.0,-70.0,-26.0,-984.0,-249.0
16.0,-259.0,-98.0,371.0,97.0,-71.0,-34.0,-984.0,-245.0
14.0,-258.0,-100.0,376.0,95.0,-71.0,-31.0,-992.0,-235.0
15.0,-262.0,-95.0,382.0,91.0,-70.0,-32.0,-999.0,-229.0
14.0,-264.0,-101.0,392.0,86.0,-70.0,-32.0,-1002.0,-233.0
12.0,-263.0,-98.0,401.0,84.0,-71.0,-32.0,-1007.0,-225.0
12.0,-267.0,-98.0,410.0,80.0,-71.0,-32.0,-1013.0,-231.0
10.0,-266.0,-97.0,419.0,78.0,-73.0,-41.0,-1017.0,-227.0
13.0,-267.0,-95.0,421.0,77.0,-70.0,-31.0,-1020.0,-223.0
13.0,-268.0,-95.0,425.0,75.0,-69.0,-32.0,-1024.0,-218.0
10.0,-270.0,-97.0,427.0,71.0,-68.0,-41.0,-1026.0,-216.0
13.0,-271.0,-95.0,431.0,64.0,-64.0,-40.0,-1027.0,-215.0
14.0,-271.0,-91.0,435.0,58.0,-61.0,-29.0,-1031.0,-224.0
13.0,-268.0,-94.0,438.0,56.0,-61.0,-37.0,-1027.0,-223.0
16.0,-270.0,-98.0,440.0,53.0,-60.0,-28.0,-1027.0,-227.0
16.0,-270.0,-95.0,440.0,50.0,-61.0,-21.0,-1031.0,-229.0
14.0,-271.0,-96.0,439.0,51.0,-66.0,-16.0,-1031.0,-229.0
16.0,-272.0,-96.0,438.0,53.0,-72.0,-16.0,-1036.0,-223.0
17.0,-270.0,-94.0,439.0,57.0,-79.0,-12.0,-1030.0,-219.0
15.0,-270.0,-92.0,439.0,60.0,-86.0,-13.0,-1031.0,-211.0
18.0,-269.0,-91.0,440.0,57.0,-91.0,-16.0,-1032.0,-207.0
17.0,-272.0,-93.0,439.0,54.0,-92.0,-19.0,-1036.0,-202.0
13.0,-268.0,-90.0,438.0,49.0,-93.0,-26.0,-1030.0,-201.0
16.0,-270.0,-92.0,431.0,39.0,-89.0,-29.0,-1029.0,-195.0
15.0,-271.0,-89.0,425.0,30.0,-85.0,-30.0,-1031.0,-198.0
13.0,-272.0,-88.0,421.0,25.0,-81.0,-32.0,-1036.0,-191.0
11.0,-273.0,-86.0,421.0,22.0,-76.0,-34.0,-1037.0,-183.0
15.0,-271.0,-82.0,421.0,23.0,-73.0,-32.0,-1043.0,-176.0
17.0,-270.0,-79.0,424.0,27.0,-71.0,-26.0,-1037.0,-161.0
20.0,-270.0,-81.0,427.0,36.0,-73.0,-17.0,-1029.0,-164.0
23.0,-268.0,-79.0,424.0,48.0,-77.0,-6.0,-1020.0,-168.0
23.0,-265.0,-82.0,413.0,60.0,-83.0,0.0,-1012.0,-170.0
25.0,-261.0,-83.0,398.0,73.0,-89.0,10.0,-1007.0,-170.0
23.0,-262.0,-81.0,382.0,85.0,-95.0,10.0,-1001.0,-164.0
26.0,-259.0,-76.0,369.0,96.0,-102.0,9.0,-993.0,-154.0
26.0,-260.0,-78.0,356.0,106.0,-105.0,13.0,-997.0,-148.0
23.0,-259.0,-78.0,344.0,111.0,-104.0,5.0,-982.0,-147.0
22.0,-259.0,-74.0,335.0,112.0,-104.0,6.0,-990.0,-143.0
18.0,-258.0,-76.0,331.0,108.0,-103.0,-12.0,-992.0,-138.0
19.0,-260.0,-71.0,330.0,97.0,-97.0,-19.0,-988.0,-134.0
12.0,-260.0,-70.0,329.0,84.0,-90.0,-32.0,-992.0,-132.0
14.0,-259.0,-72.0,330.0,68.0,-83.0,-34.0,-988.0,-129.0
7.0,-258.0,-73.0,330.0,51.0,-75.0,-38.0,-991.0,-126.0
11.0,-261.0,-72.0,330.0,36.0,-68.0,-44.0,-993.0,-123.0
10.0,-261.0,-71.0,331.0,24.0,-63.0,-46.0,-997.0,-119.0
9.0,-261.0,-74.0,329.0,16.0,-59.0,-48.0,-1001.0,-129.0
8.0,-261.0,-72.0,332.0,8.0,-57.0,-44.0,-1001.0,-129.0
11.0,-264.0,-70.0,330.0,3.0,-53.0,-43.0,-1003.0,-126.0
9.0,-261.0,-69.0,334.0,-2.0,-50.0,-38.0,-1003.0,-131.0
11.0,-263.0,-74.0,338.0,-6.0,-47.0,-34.0,-995.0,-127.0
12.0,-256.0,-70.0,344.0,-10.0,-44.0,-30.0,-993.0,-126.0
19.0,-260.0,-66.0,347.0,-9.0,-39.0,-25.0,-995.0,-120.0
17.0,-258.0,-68.0,354.0,-4.0,-38.0,-10.0,-994.0,-108.0
22.0,-263.0,-63.0,360.0,3.0,-37.0,-2.0,-994.0,-96.0
22.0,-261.0,-63.0,365.0,11.0,-37.0,-2.0,-992.0,-91.0
18.0,-258.0,-62.0,375.0,21.0,-37.0,-3.0,-997.0,-90.0
23.0,-260.0,-63.0,384.0,29.0,-35.0,0.0,-999.0,-81.0
20.0,-262.0,-59.0,391.0,34.0,-34.0,2.0,-1002.0,-80.0
22.0,-263.0,-60.0,396.0,39.0,-31.0,1.0,-1008.0,-82.0
20.0,-261.0,-61.0,397.0,42.0,-27.0,-3.0,-1006.0,-81.0
21.0,-261.0,-63.0,399.0,43.0,-20.0,-8.0,-1006.0,-82.0
19.0,-262.0,-61.0,399.0,46.0,-9.0,-5.0,-1010.0,-82.0
19.0,-263.0,-64.0,396.0,52.0,-3.0,-8.0,-1008.0,-83.0
17.0,-260.0,-61.0,390.0,57.0,5.0,-17.0,-1004.0,-86.0
18.0,-264.0,-60.0,383.0,63.0,12.0,-10.0,-1008.0,-80.0
21.0,-263.0,-63.0,375.0,68.0,17.0,-3.0,-1001.0,-82.0
20.0,-262.0,-64.0,368.0,73.0,17.0,-4.0,-1008.0,-79.0
20.0,-264.0,-64.0,362.0,78.0,17.0,-7.0,-1001.0,-86.0
19.0,-263.0,-60.0,357.0,83.0,19.0,-4.0,-1002.0,-76.0
19.0,-263.0,-58.0,349.0,90.0,14.0,-1.0,-1005.0,-72.0
22.0,-266.0,-56.0,340.0,96.0,11.0,0.0,-1004.0,-68.0
17.0,-261.0,-59.0,332.0,100.0,7.0,-5.0,-1010.0,-55.0
19.0,-265.0,-56.0,325.0,100.0,5.0,-5.0,-1017.0,-53.0
18.0,-265.0,-54.0,318.0,101.0,3.0,-15.0,-1013.0,-50.0
14.0,-267.0,-52.0,309.0,98.0,-2.0,-19.0,-1021.0,-44.0
17.0,-266.0,-52.0,304.0,94.0,-6.0,-17.0,-1027.0,-45.0
19.0,-270.0,-51.0,300.0,88.0,-12.0,-19.0,-1027.0,-35.0
18.0,-266.0,-45.0,300.0,82.0,-16.0,-12.0,-1021.0,-25.0
17.0,-265.0,-46.0,303.0,79.0,-21.0,-17.0,-1016.0,-19.0
18.0,-265.0,-44.0,310.0,75.0,-24.0,-12.0,-1011.0,-15.0
18.0,-265.0,-44.0,320.0,75.0,-27.0,-18.0,-1002.0,-9.0
15.0,-263.0,-42.0,327.0,73.0,-28.0,-21.0,-1003.0,-14.0
17.0,-260.0,-41.0,333.0,74.0,-27.0,-24.0,-1000.0,-9.0
20.0,-260.0,-46.0,334.0,75.0,-24.0,-20.0,-995.0,-11.0
16.0,-257.0,-41.0,332.0,76.0,-23.0,-19.0,-988.0,-4.0
17.0,-256.0,-41.0,329.0,78.0,-19.0,-7.0,-986.0,-4.0
20.0,-258.0,-44.0,323.0,80.0,-16.0,-10.0,-982.0,-9.0
20.0,-256.0,-39.0,318.0,82.0,-14.0,-4.0,-975.0,-6.0
21.0,-258.0,-44.0,312.0,82.0,-15.0,1.0,-983.0,-2.0
21.0,-256.0,-45.0,305.0,83.0,-10.0,1.0,-981.0,-6.0
22.0,-253.0,-43.0,298.0,85.0,-8.0,5.0,-974.0,-4.0
24.0,-253.0,-43.0,290.0,89.0,-7.0,9.0,-974.0,-9.0
28.0,-258.0,-45.0,282.0,94.0,-7.0,13.0,-972.0,-10.0
20.0,-256.0,-41.0,271.0,99.0,-10.0,3.0,-982.0,-1.0
21.0,-258.0,-41.0,260.0,98.0,-13.0,-1.0,-984.0,-3.0
21.0,-258.0,-38.0,249.0,97.0,-14.0,-4.0,-992.0,-7.0
20.0,-262.0,-44.0,239.0,90.0,-16.0,-7.0,-992.0,2.0
19.0,-258.0,-39.0,233.0,80.0,-16.0,-10.0,-997.0,0.0
18.0,-258.0,-38.0,226.0,71.0,-13.0,-3.0,-998.0,3.0
18.0,-263.0,-44.0,221.0,60.0,-13.0,-6.0,-997.0,-1.0
19.0,-261.0,-41.0,215.0,50.0,-13.0,-8.0,-1001.0,1.0
22.0,-261.0,-35.0,211.0,44.0,-15.0,-1.0,-1004.0,6.0
19.0,-264.0,-40.0,210.0,37.0,-17.0,-1.0,-998.0,11.0
20.0,-262.0,-37.0,209.0,32.0,-19.0,2.0,-1004.0,11.0
20.0,-262.0,-35.0,210.0,26.0,-26.0,7.0,-1005.0,17.0
27.0,-264.0,-36.0,213.0,23.0,-33.0,14.0,-998.0,28.0
27.0,-261.0,-32.0,218.0,19.0,-43.0,13.0,-997.0,32.0
21.0,-260.0,-35.0,223.0,18.0,-52.0,12.0,-1003.0,32.0
21.0,-259.0,-29.0,229.0,19.0,-61.0,5.0,-997.0,38.0
23.0,-259.0,-29.0,234.0,20.0,-69.0,7.0,-993.0,45.0
19.0,-257.0,-26.0,235.0,21.0,-74.0,9.0,-988.0,47.0
25.0,-256.0,-28.0,228.0,25.0,-78.0,7.0,-982.0,53.0
23.0,-255.0,-28.0,216.0,31.0,-82.0,1.0,-974.0,59.0
22.0,-256.0,-27.0,198.0,39.0,-81.0,5.0,-973.0,65.0
20.0,-256.0,-26.0,184.0,49.0,-79.0,-3.0,-974.0,59.0
21.0,-256.0,-28.0,168.0,59.0,-74.0,-1.0,-981.0,55.0
18.0,-258.0,-25.0,157.0,68.0,-68.0,-15.0,-987.0,51.0
18.0,-262.0,-29.0,147.0,74.0,-59.0,-18.0,-993.0,46.0
19.0,-259.0,-30.0,135.0,75.0,-49.0,-16.0,-999.0,38.0
15.0,-259.0,-33.0,120.0,75.0,-41.0,-17.0,-1000.0,30.0
15.0,-259.0,-37.0,105.0,73.0,-30.0,-19.0,-1007.0,27.0
14.0,-261.0,-37.0,84.0,69.0,-21.0,-26.0,-1006.0,28.0
17.0,-260.0,-30.0,62.0,64.0,-12.0,-19.0,-1002.0,33.0
15.0,-262.0,-32.0,43.0,58.0,-9.0,-16.0,-1005.0,31.0
16.0,-261.0,-31.0,25.0,53.0,-6.0,-16.0,-1003.0,33.0
18.0,-263.0,-33.0,12.0,48.0,-6.0,-19.0,-997.0,34.0
20.0,-257.0,-27.0,-4.0,43.0,-5.0,-12.0,-997.0,33.0
21.0,-260.0,-30.0,-19.0,39.0,-3.0,-11.0,-992.0,38.0
19.0,-259.0,-31.0,-33.0,36.0,0.0,-12.0,-989.0,38.0
16.0,-256.0,-35.0,-48.0,32.0,5.0,-20.0,-988.0,38.0
20.0,-260.0,-32.0,-62.0,27.0,6.0,-15.0,-992.0,38.0
24.0,-259.0,-29.0,-75.0,25.0,7.0,-10.0,-996.0,43.0
15.0,-257.0,-32.0,-87.0,26.0,5.0,-13.0,-992.0,46.0
18.0,-258.0,-30.0,-95.0,27.0,3.0,-13.0,-989.0,48.0
16.0,-258.0,-26.0,-105.0,29.0,1.0,-14.0,-999.0,48.0
17.0,-260.0,-23.0,-109.0,28.0,-2.0,-23.0,-1000.0,56.0
18.0,-263.0,-28.0,-109.0,29.0,-3.0,-19.0,-1001.0,59.0
18.0,-264.0,-26.0,-103.0,30.0,-2.0,-16.0,-1012.0,59.0
15.0,-266.0,-24.0,-95.0,32.0,-3.0,-20.0,-1017.0,57.0
17.0,-266.0,-27.0,-82.0,34.0,-3.0,-18.0,-1018.0,56.0
16.0,-268.0,-31.0,-71.0,34.0,-2.0,-18.0,-1023.0,55.0
16.0,-266.0,-28.0,-59.0,33.0,-2.0,-21.0,-1021.0,51.0
15.0,-268.0,-31.0,-51.0,33.0,0.0,-17.0,-1019.0,39.0
17.0,-264.0,-31.0,-47.0,37.0,2.0,-17.0,-1009.0,47.0
17.0,-264.0,-35.0,-42.0,41.0,1.0,-13.0,-1008.0,41.0
16.0,-261.0,-31.0,-40.0,48.0,2.0,-16.0,-1000.0,38.0
20.0,-260.0,-31.0,-34.0,51.0,3.0,-15.0,-997.0,37.0
17.0,-259.0,-32.0,-32.0,55.0,3.0,-12.0,-995.0,44.0
17.0,-259.0,-29.0,-30.0,55.0,3.0,-17.0,-988.0,42.0
19.0,-258.0,-27.0,-29.0,52.0,1.0,-9.0,-991.0,41.0
19.0,-257.0,-31.0,-27.0,51.0,3.0,-20.0,-987.0,43.0
14.0,-258.0,-30.0,-29.0,48.0,3.0,-6.0,-984.0,46.0
16.0,-258.0,-29.0,-32.0,46.0,5.0,-11.0,-989.0,47.0
18.0,-257.0,-31.0,-34.0,41.0,5.0,-13.0,-989.0,40.0
19.0,-260.0,-35.0,-31.0,38.0,6.0,-10.0,-988.0,42.0
20.0,-260.0,-30.0,-27.0,36.0,6.0,-10.0,-993.0,45.0
20.0,-260.0,-31.0,-23.0,34.0,4.0,-15.0,-993.0,48.0
19.0,-258.0,-29.0,-19.0,32.0,2.0,-14.0,-999.0,45.0
17.0,-260.0,-31.0,-22.0,31.0,2.0,-9.0,-997.0,43.0
17.0,-260.0,-29.0,-26.0,33.0,-2.0,-4.0,-993.0,40.0
19.0,-261.0,-35.0,-31.0,36.0,-4.0,-3.0,-1003.0,40.0
19.0,-266.0,-28.0,-35.0,39.0,-5.0,-6.0,-1005.0,44.0
16.0,-267.0,-37.0,-40.0,41.0,-4.0,-1.0,-1004.0,46.0
21.0,-262.0,-28.0,-42.0,42.0,-4.0,-4.0,-1003.0,47.0
24.0,-264.0,-29.0,-40.0,43.0,-4.0,2.0,-1005.0,49.0
20.0,-266.0,-36.0,-41.0,42.0,-2.0,3.0,-1003.0,46.0
18.0,-261.0,-31.0,-41.0,43.0,1.0,0.0,-1004.0,41.0
19.0,-259.0,-30.0,-45.0,43.0,3.0,0.0,-992.0,37.0
20.0,-261.0,-30.0,-49.0,44.0,3.0,1.0,-990.0,37.0
23.0,-257.0,-32.0,-55.0,42.0,5.0,-2.0,-992.0,32.0
19.0,-257.0,-35.0,-62.0,42.0,4.0,-1.0,-989.0,34.0
22.0,-261.0,-33.0,-67.0,43.0,1.0,-10.0,-987.0,32.0
22.0,-260.0,-32.0,-68.0,44.0,0.0,-17.0,-996.0,23.0
21.0,-263.0,-34.0,-64.0,45.0,-2.0,-8.0,-995.0,22.0
17.0,-260.0,-34.0,-61.0,45.0,-2.0,-11.0,-994.0,21.0
20.0,-261.0,-35.0,-56.0,45.0,-5.0,-13.0,-1000.0,19.0
17.0,-264.0,-36.0,-54.0,44.0,-10.0,-8.0,-1005.0,16.0
18.0,-262.0,-40.0,-53.0,42.0,-14.0,-12.0,-1008.0,19.0
19.0,-267.0,-34.0,-53.0,40.0,-16.0,-6.0,-1009.0,17.0
18.0,-264.0,-39.0,-57.0,36.0,-19.0,-4.0,-1008.0,21.0
19.0,-264.0,-33.0,-62.0,35.0,-22.0,-1.0,-1007.0,23.0
24.0,-265.0,-36.0,-67.0,36.0,-25.0,1.0,-1006.0,24.0
22.0,-260.0,-35.0,-71.0,38.0,-29.0,2.0,-1007.0,24.0
20.0,-263.0,-32.0,-71.0,38.0,-31.0,-1.0,-1002.0,22.0
20.0,-263.0,-32.0,-68.0,39.0,-32.0,-3.0,-1007.0,27.0
21.0,-261.0,-32.0,-67.0,39.0,-33.0,0.0,-1003.0,28.0
24.0,-261.0,-29.0,-65.0,37.0,-34.0,2.0,-997.0,32.0
23.0,-261.0,-30.0,-67.0,36.0,-32.0,-3.0,-998.0,36.0
22.0,-260.0,-33.0,-70.0,37.0,-31.0,3.0,-998.0,35.0
23.0,-261.0,-31.0,-74.0,36.0,-31.0,3.0,-998.0,29.0
23.0,-263.0,-30.0,-78.0,35.0,-31.0,0.0,-994.0,38.0
26.0,-258.0,-31.0,-77.0,36.0,-27.0,4.0,-993.0,37.0
24.0,-260.0,-30.0,-75.0,36.0,-26.0,5.0,-997.0,41.0
23.0,-260.0,-30.0,-72.0,34.0,-25.0,9.0,-996.0,34.0
23.0,-262.0,-33.0,-72.0,33.0,-24.0,10.0,-998.0,39.0
22.0,-258.0,-32.0,-70.0,31.0,-22.0,9.0,-997.0,39.0
22.0,-259.0,-26.0,-69.0,32.0,-19.0,8.0,-998.0,31.0
22.0,-262.0,-35.0,-67.0,33.0,-16.0,9.0,-996.0,32.0
25.0,-261.0,-32.0,-65.0,35.0,-12.0,6.0,-1001.0,36.0
23.0,-260.0,-31.0,-62.0,38.0,-9.0,8.0,-997.0,35.0
24.0,-262.0,-29.0,-60.0,38.0,-7.0,2.0,-1002.0,35.0
23.0,-262.0,-29.0,-60.0,35.0,-5.0,1.0,-1001.0,31.0
20.0,-260.0,-30.0,-60.0,32.0,-4.0,3.0,-993.0,37.0
21.0,-259.0,-31.0,-63.0,30.0,-2.0,0.0,-995.0,34.0
21.0,-261.0,-34.0,-65.0,28.0,0.0,1.0,-1002.0,29.0
19.0,-260.0,-38.0,-65.0,26.0,-2.0,-4.0,-999.0,24.0
20.0,-261.0,-33.0,-62.0,26.0,-3.0,-3.0,-998.0,32.0
22.0,-260.0,-33.0,-59.0,26.0,-3.0,1.0,-1002.0,34.0
19.0,-261.0,-32.0,-55.0,26.0,-2.0,-1.0,-1001.0,34.0
22.0,-263.0,-34.0,-53.0,26.0,-1.0,3.0,-1004.0,29.0
23.0,-261.0,-37.0,-54.0,25.0,-2.0,0.0,-998.0,33.0
22.0,-265.0,-36.0,-53.0,25.0,0.0,-2.0,-999.0,36.0
22.0,-261.0,-32.0,-49.0,25.0,-1.0,-3.0,-1003.0,31.0
18.0,-257.0,-32.0,-47.0,25.0,0.0,0.0,-998.0,32.0
20.0,-261.0,-34.0,-45.0,25.0,-1.0,0.0,-998.0,36.0
24.0,-259.0,-28.0,-47.0,24.0,0.0,-2.0,-994.0,40.0
22.0,-257.0,-32.0,-51.0,21.0,1.0,4.0,-995.0,30.0
24.0,-258.0,-31.0,-56.0,20.0,3.0,10.0,-996.0,33.0
22.0,-259.0,-31.0,-62.0,21.0,3.0,5.0,-998.0,29.0
25.0,-262.0,-33.0,-67.0,22.0,2.0,9.0,-995.0,28.0
23.0,-263.0,-30.0,-66.0,24.0,4.0,7.0,-1000.0,27.0
23.0,-264.0,-33.0,-64.0,25.0,4.0,11.0,-1002.0,23.0
23.0,-262.0,-32.0,-61.0,26.0,4.0,6.0,-1004.0,25.0
22.0,-262.0,-34.0,-56.0,29.0,6.0,14.0,-1005.0,25.0
24.0,-265.0,-36.0,-50.0,29.0,5.0,5.0,-1007.0,25.0
24.0,-265.0,-34.0,-45.0,30.0,5.0,6.0,-1008.0,25.0
23.0,-266.0,-34.0,-41.0,30.0,7.0,4.0,-1006.0,25.0
24.0,-260.0,-39.0,-35.0,27.0,6.0,-2.0,-1002.0,23.0
20.0,-263.0,-36.0,-31.0,27.0,8.0,-1.0,-1007.0,25.0
21.0,-263.0,-34.0,-27.0,26.0,9.0,1.0,-1004.0,24.0
21.0,-264.0,-34.0,-22.0,25.0,10.0,0.0,-1012.0,25.0
19.0,-262.0,-34.0,-17.0,25.0,10.0,-1.0,-1003.0,30.0
23.0,-263.0,-33.0,-13.0,25.0,9.0,0.0,-1001.0,25.0
21.0,-261.0,-35.0,-7.0,25.0,9.0,-3.0,-999.0,24.0
21.0,-261.0,-34.0,-5.0,21.0,9.0,-2.0,-1000.0,30.0
23.0,-261.0,-32.0,-6.0,18.0,9.0,0.0,-999.0,32.0
19.0,-258.0,-34.0,-8.0,13.0,8.0,0.0,-998.0,34.0
21.0,-262.0,-31.0,-10.0,9.0,9.0,-4.0,-995.0,31.0
18.0,-257.0,-35.0,-14.0,6.0,9.0,-13.0,-995.0,33.0
17.0,-259.0,-29.0,-19.0,4.0,9.0,-9.0,-990.0,24.0
17.0,-258.0,-34.0,-22.0,4.0,9.0,-8.0,-994.0,23.0
20.0,-259.0,-38.0,-27.0,3.0,9.0,-8.0,-994.0,24.0
18.0,-258.0,-32.0,-27.0,7.0,9.0,-8.0,-995.0,27.0
22.0,-263.0,-33.0,-30.0,8.0,9.0,-7.0,-993.0,28.0
19.0,-258.0,-34.0,-31.0,7.0,9.0,-2.0,-999.0,34.0
17.0,-262.0,-36.0,-32.0,11.0,10.0,-14.0,-998.0,35.0
17.0,-261.0,-31.0,-32.0,12.0,11.0,-3.0,-1003.0,32.0
21.0,-258.0,-34.0,-34.0,14.0,12.0,-5.0,-1004.0,32.0
21.0,-260.0,-31.0,-37.0,14.0,13.0,2.0,-1002.0,35.0
23.0,-259.0,-36.0,-41.0,16.0,12.0,4.0,-1002.0,32.0
19.0,-259.0,-33.0,-43.0,15.0,12.0,7.0,-998.0,30.0
20.0,-259.0,-33.0,-46.0,14.0,13.0,7.0,-998.0,33.0
23.0,-262.0,-33.0,-44.0,13.0,12.0,5.0,-1000.0,29.0
23.0,-263.0,-37.0,-45.0,11.0,12.0,10.0,-1003.0,33.0
20.0,-262.0,-31.0,-45.0,12.0,12.0,4.0,-1003.0,29.0
21.0,-258.0,-35.0,-43.0,9.0,12.0,8.0,-1000.0,35.0
24.0,-261.0,-30.0,-43.0,7.0,12.0,8.0,-1002.0,37.0
23.0,-264.0,-33.0,-41.0,8.0,12.0,3.0,-1001.0,32.0
19.0,-262.0,-34.0,-39.0,10.0,10.0,-1.0,-1002.0,32.0
23.0,-260.0,-29.0,-40.0,11.0,10.0,6.0,-1000.0,35.0
18.0,-259.0,-33.0,-41.0,13.0,8.0,-2.0,-998.0,32.0
22.0,-261.0,-32.0,-46.0,15.0,8.0,2.0,-995.0,30.0
17.0,-262.0,-33.0,-50.0,17.0,6.0,-5.0,-1001.0,29.0
20.0,-262.0,-34.0,-51.0,19.0,6.0,-2.0,-1007.0,32.0
19.0,-263.0,-32.0,-48.0,20.0,5.0,-3.0,-1003.0,31.0
20.0,-263.0,-32.0,-40.0,19.0,5.0,-14.0,-1005.0,33.0
18.0,-263.0,-32.0,-32.0,18.0,4.0,-16.0,-1001.0,29.0
18.0,-264.0,-35.0,-24.0,15.0,5.0,-12.0,-1001.0,33.0
15.0,-259.0,-33.0,-22.0,12.0,4.0,-16.0,-1007.0,27.0
13.0,-257.0,-33.0,-24.0,12.0,4.0,-16.0,-1000.0,29.0
14.0,-261.0,-35.0,-26.0,11.0,6.0,-12.0,-1003.0,31.0
19.0,-260.0,-33.0,-26.0,11.0,6.0,-14.0,-1002.0,30.0
17.0,-263.0,-31.0,-27.0,9.0,5.0,-12.0,-1002.0,38.0
18.0,-265.0,-34.0,-23.0,9.0,4.0,-15.0,-1002.0,38.0
18.0,-262.0,-29.0,-20.0,5.0,2.0,-5.0,-1007.0,38.0
19.0,-262.0,-36.0,-15.0,3.0,2.0,-8.0,-1006.0,40.0
20.0,-266.0,-32.0,-10.0,1.0,1.0,-9.0,-1001.0,30.0
17.0,-266.0,-34.0,-11.0,0.0,1.0,-12.0,-1005.0,32.0
19.0,-263.0,-32.0,-15.0,2.0,3.0,-5.0,-1000.0,32.0
19.0,-261.0,-33.0,-20.0,2.0,2.0,-14.0,-1001.0,35.0
17.0,-259.0,-33.0,-25.0,3.0,1.0,-8.0,-997.0,34.0
14.0,-276.0,-24.0,-23.0,6.0,2.0,-14.0,-995.0,37.0
18.0,-260.0,-32.0,-19.0,8.0,2.0,-5.0,-1005.0,35.0
19.0,-260.0,-38.0,-10.0,11.0,1.0,-8.0,-1003.0,27.0
17.0,-264.0,-34.0,-3.0,16.0,1.0,-4.0,-1007.0,20.0
18.0,-266.0,-34.0,3.0,20.0,2.0,-10.0,-1009.0,23.0
19.0,-263.0,-37.0,5.0,23.0,1.0,-3.0,-1007.0,20.0
19.0,-266.0,-37.0,6.0,24.0,2.0,-4.0,-1011.0,21.0
17.0,-260.0,-35.0,4.0,24.0,3.0,-12.0,-1009.0,26.0
18.0,-264.0,-34.0,2.0,23.0,5.0,-12.0,-1007.0,32.0
18.0,-261.0,-32.0,2.0,18.0,5.0,-15.0,-1002.0,35.0
13.0,-259.0,-38.0,2.0,16.0,5.0,-17.0,-998.0,37.0
17.0,-264.0,-32.0,0.0,16.0,4.0,-17.0,-1001.0,44.0
16.0,-261.0,-30.0,-2.0,14.0,5.0,-18.0,-997.0,43.0
19.0,-258.0,-31.0,-2.0,14.0,4.0,-24.0,-999.0,43.0
19.0,-263.0,-29.0,-3.0,14.0,4.0,-19.0,-994.0,40.0
18.0,-261.0,-30.0,-6.0,16.0,4.0,-16.0,-997.0,39.0
20.0,-261.0,-33.0,-9.0,18.0,3.0,-20.0,-1004.0,33.0
18.0,-260.0,-36.0,-12.0,19.0,0.0,-11.0,-996.0,36.0
18.0,-262.0,-30.0,-14.0,20.0,1.0,-3.0,-999.0,31.0
18.0,-259.0,-32.0,-15.0,20.0,0.0,1.0,-1002.0,34.0
22.0,-261.0,-31.0,-14.0,19.0,-1.0,-3.0,-998.0,27.0
17.0,-258.0,-36.0,-12.0,18.0,-1.0,-8.0,-998.0,32.0
23.0,-260.0,-34.0,-11.0,16.0,-3.0,-3.0,-1003.0,34.0
23.0,-261.0,-32.0,-9.0,15.0,-5.0,2.0,-997.0,34.0
22.0,-261.0,-31.0,-8.0,15.0,-5.0,0.0,-999.0,41.0
22.0,-261.0,-28.0,-8.0,16.0,-8.0,3.0,-1004.0,41.0
23.0,-263.0,-28.0,-6.0,18.0,-9.0,5.0,-1005.0,40.0
23.0,-261.0,-33.0,-7.0,19.0,-10.0,-3.0,-1003.0,42.0
23.0,-262.0,-32.0,-10.0,21.0,-11.0,0.0,-1000.0,42.0
19.0,-260.0,-30.0,-13.0,23.0,-11.0,-8.0,-996.0,41.0
19.0,-259.0,-31.0,-17.0,23.0,-10.0,-3.0,-991.0,34.0
17.0,-261.0,-31.0,-25.0,26.0,-10.0,-17.0,-996.0,32.0
21.0,-260.0,-32.0,-33.0,26.0,-8.0,-10.0,-992.0,35.0
18.0,-259.0,-31.0,-41.0,26.0,-7.0,-11.0,-994.0,36.0
18.0,-261.0,-34.0,-46.0,26.0,-7.0,-12.0,-995.0,38.0
19.0,-261.0,-32.0,-48.0,25.0,-7.0,-8.0,-997.0,35.0
19.0,-260.0,-36.0,-49.0,24.0,-6.0,-11.0,-1000.0,38.0
17.0,-259.0,-31.0,-50.0,25.0,-7.0,-6.0,-998.0,42.0
19.0,-259.0,-32.0,-50.0,24.0,-7.0,-3.0,-994.0,37.0
24.0,-259.0,-33.0,-54.0,23.0,-6.0,-4.0,-1001.0,40.0
19.0,-258.0,-26.0,-55.0,21.0,-7.0,-5.0,-1000.0,43.0
18.0,-261.0,-31.0,-58.0,20.0,-9.0,0.0,-996.0,43.0
20.0,-261.0,-32.0,-60.0,19.0,-8.0,-3.0,-999.0,42.0
20.0,-261.0,-30.0,-59.0,17.0,-8.0,-4.0,-1001.0,41.0
17.0,-261.0,-29.0,-59.0,17.0,-8.0,-2.0,-997.0,42.0
18.0,-259.0,-28.0,-58.0,15.0,-8.0,-2.0,-996.0,44.0
19.0,-260.0,-29.0,-55.0,13.0,-8.0,-3.0,-997.0,41.0
22.0,-262.0,-28.0,-52.0,11.0,-8.0,-5.0,-1000.0,42.0
16.0,-261.0,-33.0,-48.0,9.0,-7.0,-6.0,-997.0,47.0
21.0,-262.0,-32.0,-44.0,8.0,-7.0,-8.0,-998.0,39.0
18.0,-261.0,-28.0,-41.0,7.0,-6.0,-10.0,-1003.0,44.0
17.0,-261.0,-31.0,-36.0,7.0,-5.0,-13.0,-1003.0,41.0
20.0,-261.0,-29.0,-33.0,6.0,-5.0,-14.0,-1003.0,35.0
16.0,-259.0,-28.0,-29.0,5.0,-4.0,-13.0,-1003.0,41.0
18.0,-262.0,-27.0,-27.0,5.0,-3.0,-10.0,-996.0,36.0
18.0,-260.0,-30.0,-25.0,6.0,-3.0,-15.0,-999.0,34.0
16.0,-262.0,-32.0,-25.0,6.0,-3.0,-9.0,-998.0,36.0
19.0,-260.0,-33.0,-23.0,7.0,-2.0,-8.0,-1000.0,38.0
18.0,-260.0,-31.0,-24.0,9.0,-1.0,-4.0,-997.0,36.0
19.0,-261.0,-35.0,-22.0,10.0,-2.0,-5.0,-1003.0,39.0
17.0,-263.0,-33.0,-19.0,10.0,-3.0,-2.0,-1003.0,38.0
18.0,-264.0,-29.0,-16.0,12.0,-4.0,-15.0,-1008.0,37.0
19.0,-264.0,-31.0,-13.0,13.0,-5.0,-14.0,-1005.0,43.0
19.0,-261.0,-30.0,-11.0,13.0,-5.0,-13.0,-1007.0,36.0
17.0,-262.0,-30.0,-12.0,11.0,-4.0,-12.0,-1006.0,38.0
20.0,-264.0,-34.0,-13.0,9.0,-3.0,-7.0,-1001.0,40.0
19.0,-262.0,-28.0,-13.0,8.0,-1.0,-13.0,-1003.0,42.0
21.0,-265.0,-29.0,-13.0,8.0,0.0,-7.0,-1008.0,38.0
18.0,-262.0,-32.0,-11.0,8.0,1.0,-12.0,-1002.0,38.0
20.0,-266.0,-32.0,-8.0,9.0,3.0,-1.0,-1003.0,37.0
22.0,-263.0,-31.0,-4.0,10.0,3.0,-4.0,-1003.0,34.0
21.0,-263.0,-28.0,-2.0,10.0,3.0,-1.0,-1003.0,32.0
19.0,-259.0,-34.0,0.0,11.0,3.0,-1.0,-1003.0,32.0
17.0,-261.0,-35.0,-2.0,11.0,3.0,0.0,-1004.0,33.0
19.0,-262.0,-35.0,-6.0,11.0,3.0,-2.0,-998.0,35.0
20.0,-259.0,-33.0,-12.0,13.0,2.0,-5.0,-1003.0,34.0
18.0,-260.0,-33.0,-16.0,15.0,1.0,-5.0,-1002.0,34.0
19.0,-263.0,-30.0,-19.0,17.0,1.0,-9.0,-1003.0,35.0
20.0,-263.0,-32.0,-20.0,19.0,0.0,-9.0,-1005.0,39.0
18.0,-262.0,-29.0,-19.0,21.0,1.0,-5.0,-1003.0,43.0
20.0,-258.0,-28.0,-20.0,22.0,-1.0,-4.0,-1006.0,39.0
21.0,-260.0,-26.0,-21.0,23.0,-2.0,-5.0,-999.0,45.0
23.0,-262.0,-30.0,-23.0,22.0,-3.0,-6.0,-996.0,45.0
23.0,-259.0,-30.0,-29.0,24.0,-3.0,-2.0,-995.0,43.0
22.0,-258.0,-33.0,-34.0,26.0,-3.0,6.0,-998.0,42.0
20.0,-260.0,-32.0,-40.0,28.0,-4.0,-1.0,-998.0,45.0
23.0,-260.0,-30.0,-49.0,31.0,-5.0,-1.0,-992.0,44.0
24.0,-259.0,-25.0,-57.0,34.0,-4.0,0.0,-993.0,47.0
23.0,-261.0,-28.0,-61.0,38.0,-4.0,1.0,-989.0,43.0
22.0,-260.0,-31.0,-68.0,41.0,-6.0,2.0,-992.0,43.0
22.0,-262.0,-29.0,-76.0,45.0,-8.0,-4.0,-994.0,45.0
19.0,-260.0,-27.0,-81.0,47.0,-9.0,-10.0,-995.0,43.0
18.0,-258.0,-30.0,-89.0,51.0,-10.0,-10.0,-991.0,48.0
19.0,-258.0,-29.0,-104.0,54.0,-14.0,-15.0,-984.0,46.0
17.0,-256.0,-26.0,-123.0,59.0,-20.0,-21.0,-983.0,42.0
17.0,-255.0,-29.0,-149.0,66.0,-24.0,-16.0,-983.0,38.0
18.0,-257.0,-34.0,-176.0,72.0,-28.0,-20.0,-983.0,26.0
16.0,-257.0,-35.0,-196.0,78.0,-33.0,-18.0,-986.0,24.0
15.0,-258.0,-35.0,-208.0,81.0,-35.0,-21.0,-985.0,29.0
15.0,-258.0,-34.0,-204.0,80.0,-38.0,-15.0,-989.0,34.0
17.0,-258.0,-30.0,-191.0,78.0,-37.0,-13.0,-989.0,36.0
16.0,-261.0,-32.0,-171.0,72.0,-37.0,-6.0,-994.0,40.0
18.0,-262.0,-33.0,-150.0,68.0,-37.0,-6.0,-1000.0,39.0
18.0,-263.0,-29.0,-134.0,63.0,-35.0,-6.0,-1005.0,40.0
19.0,-267.0,-32.0,-119.0,61.0,-34.0,-9.0,-1009.0,43.0
20.0,-265.0,-28.0,-109.0,59.0,-30.0,-7.0,-1012.0,37.0
20.0,-267.0,-30.0,-104.0,56.0,-28.0,-3.0,-1016.0,40.0
18.0,-266.0,-32.0,-100.0,54.0,-24.0,0.0,-1021.0,48.0
19.0,-265.0,-27.0,-98.0,50.0,-22.0,-2.0,-1013.0,46.0
19.0,-265.0,-27.0,-95.0,48.0,-17.0,5.0,-1018.0,53.0
18.0,-264.0,-28.0,-90.0,42.0,-16.0,-5.0,-1010.0,50.0
21.0,-263.0,-27.0,-84.0,39.0,-14.0,0.0,-1008.0,54.0
19.0,-262.0,-27.0,-78.0,35.0,-11.0,2.0,-1004.0,57.0
20.0,-260.0,-29.0,-73.0,34.0,-9.0,-1.0,-1006.0,54.0
20.0,-261.0,-23.0,-69.0,34.0,-9.0,-5.0,-998.0,51.0
21.0,-261.0,-28.0,-61.0,35.0,-6.0,-4.0,-999.0,52.0
20.0,-259.0,-33.0,-53.0,34.0,-4.0,-13.0,-998.0,47.0
21.0,-261.0,-30.0,-45.0,35.0,-3.0,0.0,-997.0,38.0
27.0,-251.0,-54.0,-35.0,36.0,-1.0,-7.0,-999.0,30.0
18.0,-262.0,-34.0,-30.0,38.0,1.0,-7.0,-998.0,28.0
22.0,-264.0,-36.0,-29.0,35.0,5.0,-6.0,-1003.0,25.0
18.0,-261.0,-34.0,-27.0,34.0,7.0,-4.0,-1004.0,29.0
20.0,-259.0,-34.0,-28.0,30.0,7.0,-7.0,-1000.0,35.0
19.0,-260.0,-31.0,-27.0,27.0,6.0,-7.0,-998.0,44.0
20.0,-259.0,-30.0,-27.0,25.0,5.0,-9.0,-997.0,50.0
17.0,-259.0,-29.0,-24.0,22.0,4.0,-15.0,-995.0,51.0
18.0,-259.0,-25.0,-20.0,17.0,4.0,0.0,-996.0,54.0
20.0,-260.0,-27.0,-18.0,16.0,4.0,-3.0,-991.0,59.0
20.0,-257.0,-24.0,-16.0,13.0,4.0,-8.0,-989.0,56.0
27.0,-259.0,-14.0,-18.0,9.0,2.0,-8.0,-991.0,56.0
19.0,-258.0,-23.0,-19.0,8.0,2.0,-9.0,-986.0,56.0
20.0,-258.0,-23.0,-21.0,6.0,4.0,-13.0,-991.0,56.0
16.0,-260.0,-27.0,-23.0,3.0,7.0,-14.0,-993.0,58.0
19.0,-258.0,-26.0,-24.0,3.0,7.0,-14.0,-994.0,51.0
18.0,-261.0,-35.0,-25.0,1.0,9.0,-14.0,-994.0,48.0
16.0,-259.0,-28.0,-26.0,-3.0,12.0,-15.0,-993.0,44.0
18.0,-258.0,-33.0,-29.0,-5.0,13.0,-11.0,-992.0,34.0
19.0,-259.0,-29.0,-34.0,-5.0,14.0,-10.0,-994.0,32.0
18.0,-261.0,-33.0,-35.0,-5.0,14.0,-10.0,-997.0,30.0
18.0,-262.0,-37.0,-37.0,-4.0,13.0,-13.0,-1005.0,30.0
18.0,-262.0,-30.0,-33.0,-5.0,13.0,-13.0,-1003.0,30.0
17.0,-263.0,-37.0,-27.0,-7.0,12.0,-14.0,-1013.0,24.0
19.0,-267.0,-33.0,-22.0,-9.0,14.0,-9.0,-1012.0,23.0
19.0,-267.0,-33.0,-15.0,-11.0,14.0,-10.0,-1014.0,32.0
19.0,-263.0,-34.0,-8.0,-13.0,15.0,-8.0,-1012.0,29.0
20.0,-263.0,-32.0,-1.0,-14.0,16.0,-10.0,-1010.0,28.0
21.0,-263.0,-32.0,5.0,-14.0,15.0,-6.0,-1003.0,31.0
20.0,-263.0,-37.0,6.0,-12.0,15.0,-4.0,-1000.0,34.0
18.0,-260.0,-35.0,7.0,-10.0,16.0,-11.0,-999.0,31.0
15.0,-259.0,-34.0,5.0,-9.0,17.0,-17.0,-993.0,29.0
16.0,-258.0,-34.0,0.0,-8.0,19.0,-9.0,-999.0,31.0
13.0,-257.0,-33.0,-8.0,-7.0,22.0,-12.0,-996.0,34.0
19.0,-259.0,-28.0,-16.0,-6.0,26.0,-13.0,-997.0,39.0
20.0,-261.0,-25.0,-23.0,-6.0,28.0,-7.0,-1002.0,48.0
22.0,-260.0,-29.0,-31.0,-7.0,29.0,-1.0,-1000.0,54.0
21.0,-260.0,-26.0,-35.0,-4.0,29.0,5.0,-999.0,53.0
19.0,-263.0,-25.0,-40.0,-1.0,26.0,-3.0,-998.0,49.0
16.0,-257.0,-29.0,-44.0,2.0,23.0,-12.0,-994.0,46.0
16.0,-259.0,-29.0,-49.0,3.0,16.0,-25.0,-997.0,43.0
16.0,-262.0,-28.0,-54.0,0.0,13.0,-20.0,-994.0,39.0
14.0,-258.0,-35.0,-58.0,-3.0,10.0,-21.0,-995.0,33.0
18.0,-260.0,-31.0,-65.0,-1.0,8.0,-18.0,-992.0,30.0
20.0,-263.0,-34.0,-68.0,4.0,6.0,-11.0,-996.0,30.0
17.0,-261.0,-36.0,-72.0,9.0,3.0,-3.0,-996.0,25.0
21.0,-261.0,-34.0,-74.0,18.0,1.0,4.0,-997.0,25.0
22.0,-262.0,-35.0,-73.0,24.0,-2.0,-2.0,-1002.0,24.0
23.0,-261.0,-36.0,-74.0,30.0,-5.0,0.0,-1002.0,23.0
20.0,-263.0,-35.0,-77.0,36.0,-8.0,-2.0,-1000.0,27.0
21.0,-260.0,-30.0,-75.0,39.0,-11.0,5.0,-1002.0,34.0
23.0,-262.0,-32.0,-77.0,41.0,-14.0,5.0,-1005.0,29.0
20.0,-259.0,-32.0,-78.0,42.0,-16.0,0.0,-999.0,25.0
20.0,-261.0,-34.0,-83.0,45.0,-20.0,7.0,-1003.0,27.0
22.0,-262.0,-36.0,-83.0,43.0,-25.0,12.0,-1004.0,23.0
24.0,-265.0,-35.0,-87.0,42.0,-29.0,2.0,-1004.0,28.0
20.0,-264.0,-32.0,-84.0,36.0,-31.0,3.0,-1003.0,28.0
19.0,-262.0,-35.0,-84.0,29.0,-32.0,-2.0,-1003.0,32.0
20.0,-259.0,-32.0,-84.0,22.0,-31.0,-9.0,-1001.0,34.0
18.0,-262.0,-37.0,-83.0,18.0,-28.0,-10.0,-996.0,28.0
18.0,-261.0,-35.0,-84.0,16.0,-25.0,-13.0,-1006.0,33.0
21.0,-260.0,-32.0,-86.0,17.0,-24.0,-12.0,-990.0,33.0
17.0,-260.0,-32.0,-88.0,19.0,-20.0,-11.0,-993.0,33.0
21.0,-258.0,-32.0,-92.0,23.0,-17.0,-2.0,-996.0,31.0
18.0,-260.0,-30.0,-98.0,26.0,-18.0,-1.0,-992.0,34.0
25.0,-260.0,-32.0,-103.0,27.0,-21.0,3.0,-992.0,41.0
21.0,-261.0,-32.0,-106.0,26.0,-22.0,3.0,-992.0,40.0
22.0,-259.0,-31.0,-109.0,24.0,-24.0,5.0,-992.0,41.0
22.0,-261.0,-29.0,-107.0,23.0,-26.0,-1.0,-995.0,45.0
23.0,-261.0,-31.0,-107.0,24.0,-26.0,-1.0,-993.0,40.0
21.0,-258.0,-34.0,-107.0,28.0,-25.0,1.0,-992.0,37.0
20.0,-259.0,-29.0,-112.0,30.0,-25.0,0.0,-996.0,32.0
21.0,-258.0,-32.0,-119.0,32.0,-24.0,0.0,-994.0,33.0
20.0,-259.0,-34.0,-126.0,30.0,-22.0,-1.0,-997.0,32.0
21.0,-258.0,-31.0,-129.0,29.0,-23.0,-4.0,-995.0,25.0
18.0,-259.0,-34.0,-132.0,29.0,-25.0,-6.0,-997.0,24.0
19.0,-262.0,-34.0,-135.0,28.0,-25.0,-4.0,-996.0,23.0
18.0,-260.0,-38.0,-138.0,32.0,-25.0,-4.0,-995.0,30.0
17.0,-262.0,-34.0,-139.0,38.0,-23.0,-2.0,-995.0,34.0
21.0,-261.0,-31.0,-138.0,44.0,-21.0,-2.0,-1001.0,36.0
23.0,-260.0,-30.0,-136.0,51.0,-21.0,-4.0,-997.0,35.0
21.0,-258.0,-32.0,-134.0,54.0,-23.0,-2.0,-993.0,37.0
17.0,-258.0,-29.0,-130.0,55.0,-22.0,-6.0,-991.0,38.0
17.0,-261.0,-29.0,-124.0,54.0,-21.0,-4.0,-994.0,33.0
18.0,-261.0,-28.0,-120.0,50.0,-20.0,-8.0,-996.0,31.0
17.0,-258.0,-29.0,-118.0,44.0,-21.0,-10.0,-999.0,30.0
19.0,-261.0,-35.0,-118.0,41.0,-20.0,-14.0,-1000.0,34.0
17.0,-260.0,-36.0,-117.0,35.0,-20.0,-13.0,-1003.0,32.0
16.0,-262.0,-36.0,-116.0,29.0,-19.0,-18.0,-1002.0,34.0
14.0,-262.0,-33.0,-116.0,23.0,-17.0,-28.0,-1002.0,30.0
13.0,-262.0,-35.0,-116.0,15.0,-14.0,-34.0,-1006.0,28.0
10.0,-265.0,-37.0,-117.0,7.0,-12.0,-34.0,-1009.0,21.0
9.0,-261.0,-36.0,-117.0,1.0,-9.0,-38.0,-1000.0,20.0
11.0,-263.0,-37.0,-119.0,-6.0,-5.0,-36.0,-1007.0,10.0
11.0,-264.0,-41.0,-119.0,-9.0,-5.0,-38.0,-1005.0,14.0
13.0,-263.0,-39.0,-119.0,-11.0,-2.0,-28.0,-1005.0,17.0
15.0,-264.0,-34.0,-119.0,-12.0,-4.0,-25.0,-1005.0,20.0
15.0,-263.0,-40.0,-119.0,-11.0,-5.0,-25.0,-1007.0,20.0
16.0,-263.0,-35.0,-115.0,-11.0,-7.0,-23.0,-1004.0,16.0
20.0,-262.0,-38.0,-112.0,-10.0,-8.0,-7.0,-1006.0,18.0
19.0,-264.0,-35.0,-106.0,-5.0,-10.0,-4.0,-1003.0,17.0
19.0,-260.0,-33.0,-100.0,-2.0,-11.0,-3.0,-1002.0,17.0
20.0,-259.0,-36.0,-93.0,-1.0,-13.0,-5.0,-998.0,26.0
22.0,-260.0,-38.0,-88.0,2.0,-13.0,6.0,-993.0,24.0
20.0,-259.0,-34.0,-85.0,5.0,-13.0,5.0,-993.0,23.0
26.0,-261.0,-37.0,-86.0,8.0,-11.0,6.0,-994.0,27.0
25.0,-258.0,-34.0,-89.0,11.0,-9.0,9.0,-991.0,21.0
23.0,-257.0,-34.0,-92.0,17.0,-8.0,12.0,-992.0,23.0
25.0,-260.0,-33.0,-97.0,20.0,-6.0,15.0,-994.0,23.0
24.0,-261.0,-35.0,-102.0,22.0,-5.0,11.0,-993.0,31.0
25.0,-257.0,-32.0,-108.0,22.0,-3.0,14.0,-998.0,30.0
23.0,-257.0,-35.0,-117.0,21.0,0.0,16.0,-994.0,30.0
23.0,-258.0,-29.0,-125.0,22.0,2.0,11.0,-994.0,31.0
24.0,-258.0,-32.0,-132.0,25.0,5.0,11.0,-993.0,28.0
24.0,-261.0,-35.0,-139.0,29.0,6.0,7.0,-992.0,28.0
22.0,-260.0,-34.0,-147.0,31.0,7.0,0.0,-993.0,23.0
17.0,-259.0,-32.0,-150.0,31.0,10.0,-7.0,-995.0,22.0
20.0,-260.0,-39.0,-153.0,31.0,12.0,-3.0,-996.0,12.0
20.0,-259.0,-42.0,-155.0,34.0,13.0,-2.0,-994.0,1.0
21.0,-252.0,-65.0,-158.0,37.0,13.0,-5.0,-991.0,-4.0
17.0,-258.0,-44.0,-163.0,38.0,11.0,-6.0,-991.0,-12.0
17.0,-258.0,-42.0,-170.0,39.0,11.0,-7.0,-991.0,-10.0
19.0,-259.0,-44.0,-179.0,36.0,9.0,-2.0,-993.0,-8.0
17.0,-258.0,-41.0,-189.0,34.0,8.0,-9.0,-990.0,5.0
16.0,-259.0,-38.0,-196.0,29.0,5.0,-7.0,-995.0,10.0
16.0,-259.0,-37.0,-200.0,23.0,4.0,-14.0,-988.0,20.0
17.0,-260.0,-36.0,-203.0,15.0,3.0,-17.0,-996.0,20.0
16.0,-260.0,-31.0,-207.0,5.0,0.0,-17.0,-998.0,22.0
17.0,-262.0,-36.0,-208.0,-2.0,-2.0,-17.0,-1001.0,26.0
20.0,-264.0,-35.0,-212.0,-8.0,-5.0,-10.0,-1007.0,25.0
27.0,-257.0,-39.0,-215.0,-12.0,-6.0,-15.0,-1006.0,19.0
16.0,-259.0,-33.0,-220.0,-14.0,-9.0,-9.0,-1007.0,24.0
21.0,-264.0,-37.0,-220.0,-15.0,-8.0,-9.0,-1003.0,22.0
21.0,-264.0,-34.0,-221.0,-14.0,-9.0,-5.0,-1004.0,20.0
18.0,-261.0,-39.0,-220.0,-11.0,-9.0,-5.0,-1000.0,12.0
19.0,-261.0,-38.0,-219.0,-5.0,-5.0,-1.0,-997.0,9.0
19.0,-261.0,-39.0,-216.0,1.0,-4.0,-8.0,-996.0,2.0
23.0,-259.0,-41.0,-213.0,7.0,5.0,6.0,-999.0,2.0
25.0,-262.0,-40.0,-209.0,16.0,6.0,15.0,-993.0,0.0
22.0,-257.0,-45.0,-204.0,26.0,6.0,6.0,-983.0,-3.0
21.0,-257.0,-40.0,-200.0,31.0,9.0,0.0,-991.0,-2.0
20.0,-260.0,-41.0,-193.0,37.0,12.0,0.0,-990.0,-4.0
16.0,-257.0,-43.0,-184.0,40.0,17.0,-6.0,-992.0,-5.0
16.0,-256.0,-47.0,-175.0,42.0,22.0,-15.0,-989.0,-12.0
18.0,-259.0,-47.0,-172.0,43.0,26.0,-5.0,-989.0,-12.0
17.0,-262.0,-47.0,-170.0,39.0,31.0,-19.0,-992.0,-12.0
15.0,-260.0,-41.0,-165.0,35.0,36.0,-25.0,-993.0,-19.0
17.0,-259.0,-46.0,-163.0,27.0,40.0,-25.0,-993.0,-18.0
13.0,-259.0,-48.0,-161.0,19.0,45.0,-29.0,-993.0,-16.0
11.0,-257.0,-44.0,-159.0,14.0,49.0,-29.0,-995.0,-19.0
16.0,-259.0,-46.0,-156.0,8.0,53.0,-25.0,-993.0,-23.0
18.0,-259.0,-47.0,-153.0,5.0,57.0,-25.0,-990.0,-28.0
17.0,-257.0,-48.0,-158.0,4.0,57.0,-25.0,-988.0,-32.0
15.0,-256.0,-53.0,-160.0,4.0,59.0,-20.0,-983.0,-27.0
17.0,-258.0,-51.0,-163.0,2.0,59.0,-21.0,-984.0,-37.0
16.0,-256.0,-50.0,-168.0,3.0,57.0,-21.0,-982.0,-37.0
17.0,-256.0,-51.0,-176.0,4.0,56.0,-22.0,-979.0,-36.0
18.0,-257.0,-51.0,-181.0,6.0,52.0,-18.0,-976.0,-35.0
19.0,-259.0,-49.0,-187.0,3.0,51.0,-20.0,-991.0,-36.0
18.0,-259.0,-49.0,-196.0,2.0,49.0,-15.0,-992.0,-32.0
20.0,-259.0,-50.0,-203.0,1.0,45.0,-16.0,-994.0,-29.0
20.0,-262.0,-48.0,-212.0,0.0,43.0,-17.0,-998.0,-29.0
19.0,-261.0,-51.0,-220.0,-4.0,41.0,-11.0,-1002.0,-22.0
18.0,-255.0,-46.0,-224.0,-5.0,39.0,-7.0,-1006.0,-21.0
19.0,-264.0,-48.0,-227.0,-6.0,37.0,-11.0,-1008.0,-27.0
18.0,-262.0,-52.0,-228.0,-8.0,37.0,-8.0,-1008.0,-27.0
16.0,-264.0,-50.0,-231.0,-11.0,34.0,-7.0,-1013.0,-24.0
16.0,-259.0,-50.0,-238.0,-13.0,32.0,-6.0,-1007.0,-32.0
20.0,-263.0,-51.0,-245.0,-13.0,31.0,-13.0,-1009.0,-35.0
20.0,-264.0,-50.0,-253.0,-13.0,30.0,-12.0,-1004.0,-36.0
21.0,-260.0,-51.0,-260.0,-11.0,28.0,-11.0,-1002.0,-41.0
21.0,-263.0,-52.0,-268.0,-8.0,29.0,-5.0,-1005.0,-40.0
19.0,-258.0,-50.0,-274.0,-2.0,25.0,-2.0,-994.0,-38.0
21.0,-259.0,-54.0,-282.0,3.0,22.0,-3.0,-992.0,-39.0
20.0,-257.0,-52.0,-291.0,10.0,20.0,-5.0,-985.0,-37.0
16.0,-256.0,-48.0,-300.0,17.0,18.0,-5.0,-984.0,-36.0
19.0,-257.0,-51.0,-311.0,26.0,19.0,0.0,-982.0,-32.0
21.0,-254.0,-49.0,-324.0,35.0,20.0,-1.0,-983.0,-27.0
22.0,-257.0,-50.0,-337.0,44.0,21.0,2.0,-982.0,-33.0
21.0,-255.0,-49.0,-351.0,50.0,21.0,2.0,-989.0,-26.0
21.0,-257.0,-46.0,-359.0,52.0,24.0,3.0,-992.0,-28.0
19.0,-259.0,-49.0,-366.0,54.0,22.0,-1.0,-991.0,-25.0
21.0,-258.0,-54.0,-372.0,52.0,21.0,-13.0,-992.0,-32.0
14.0,-260.0,-50.0,-380.0,48.0,21.0,-18.0,-999.0,-32.0
13.0,-262.0,-51.0,-390.0,39.0,20.0,-29.0,-1002.0,-43.0
14.0,-264.0,-51.0,-399.0,30.0,18.0,-30.0,-1001.0,-48.0
12.0,-261.0,-54.0,-410.0,18.0,14.0,-45.0,-1000.0,-56.0
13.0,-263.0,-56.0,-421.0,5.0,12.0,-49.0,-998.0,-55.0
10.0,-262.0,-56.0,-430.0,-8.0,9.0,-45.0,-1002.0,-65.0
9.0,-262.0,-53.0,-444.0,-18.0,8.0,-53.0,-1003.0,-67.0
10.0,-264.0,-57.0,-456.0,-24.0,6.0,-40.0,-997.0,-66.0
9.0,-262.0,-54.0,-467.0,-28.0,7.0,-44.0,-1006.0,-62.0
10.0,-266.0,-57.0,-470.0,-33.0,9.0,-40.0,-1014.0,-62.0
10.0,-268.0,-60.0,-471.0,-36.0,14.0,-41.0,-1017.0,-67.0
13.0,-266.0,-58.0,-470.0,-39.0,17.0,-38.0,-1024.0,-72.0
14.0,-268.0,-60.0,-470.0,-43.0,20.0,-36.0,-1018.0,-75.0
7.0,-266.0,-64.0,-469.0,-50.0,25.0,-39.0,-1017.0,-81.0
13.0,-265.0,-64.0,-472.0,-59.0,31.0,-33.0,-1012.0,-85.0
12.0,-262.0,-63.0,-474.0,-70.0,36.0,-29.0,-1009.0,-94.0
15.0,-260.0,-65.0,-475.0,-80.0,40.0,-31.0,-1004.0,-98.0
11.0,-260.0,-65.0,-479.0,-87.0,46.0,-28.0,-996.0,-102.0
17.0,-259.0,-66.0,-483.0,-90.0,50.0,-17.0,-990.0,-106.0
17.0,-256.0,-72.0,-489.0,-89.0,52.0,-14.0,-982.0,-108.0
20.0,-256.0,-70.0,-501.0,-83.0,53.0,5.0,-983.0,-115.0
21.0,-257.0,-70.0,-511.0,-75.0,49.0,5.0,-987.0,-121.0
23.0,-255.0,-73.0,-525.0,-65.0,46.0,12.0,-985.0,-123.0
24.0,-257.0,-78.0,-540.0,-53.0,40.0,11.0,-984.0,-131.0
24.0,-257.0,-73.0,-556.0,-41.0,33.0,14.0,-992.0,-142.0
22.0,-259.0,-74.0,-573.0,-31.0,26.0,7.0,-993.0,-140.0
24.0,-265.0,-77.0,-588.0,-25.0,19.0,4.0,-1002.0,-143.0
19.0,-266.0,-78.0,-598.0,-22.0,15.0,-5.0,-1010.0,-143.0
18.0,-270.0,-79.0,-607.0,-21.0,14.0,-10.0,-1020.0,-151.0
16.0,-269.0,-77.0,-611.0,-24.0,16.0,-19.0,-1019.0,-148.0
11.0,-266.0,-75.0,-614.0,-28.0,20.0,-27.0,-1024.0,-140.0
13.0,-267.0,-77.0,-618.0,-35.0,27.0,-36.0,-1018.0,-144.0
11.0,-265.0,-74.0,-626.0,-41.0,36.0,-45.0,-1011.0,-148.0
7.0,-261.0,-78.0,-635.0,-46.0,46.0,-46.0,-1010.0,-152.0
6.0,-263.0,-77.0,-649.0,-47.0,55.0,-48.0,-1013.0,-155.0
7.0,-261.0,-82.0,-666.0,-47.0,62.0,-49.0,-1003.0,-172.0
7.0,-262.0,-88.0,-689.0,-47.0,70.0,-48.0,-1003.0,-192.0
8.0,-261.0,-101.0,-719.0,-50.0,76.0,-44.0,-1008.0,-221.0
8.0,-263.0,-99.0,-750.0,-56.0,82.0,-46.0,-1008.0,-241.0
8.0,-266.0,-103.0,-781.0,-62.0,86.0,-35.0,-1029.0,-247.0
13.0,-268.0,-105.0,-795.0,-66.0,85.0,-34.0,-1025.0,-257.0
17.0,-272.0,-102.0,-791.0,-68.0,82.0,-27.0,-1026.0,-248.0
18.0,-273.0,-99.0,-776.0,-66.0,76.0,-21.0,-1032.0,-233.0
15.0,-268.0,-99.0,-750.0,-64.0,66.0,-17.0,-1027.0,-215.0
18.0,-267.0,-93.0,-721.0,-62.0,55.0,-18.0,-1015.0,-199.0
19.0,-264.0,-86.0,-698.0,-58.0,42.0,-15.0,-1007.0,-187.0
16.0,-263.0,-83.0,-680.0,-55.0,28.0,-15.0,-998.0,-181.0
16.0,-261.0,-86.0,-663.0,-55.0,16.0,-18.0,-993.0,-166.0
12.0,-258.0,-78.0,-649.0,-53.0,4.0,-14.0,-983.0,-166.0
18.0,-257.0,-77.0,-640.0,-50.0,-8.0,-14.0,-980.0,-156.0
18.0,-258.0,-81.0,-635.0,-44.0,-16.0,-20.0,-986.0,-165.0
14.0,-262.0,-82.0,-633.0,-36.0,-22.0,-18.0,-994.0,-162.0
16.0,-264.0,-80.0,-627.0,-27.0,-26.0,-29.0,-1004.0,-179.0
11.0,-264.0,-88.0,-622.0,-16.0,-24.0,-34.0,-1017.0,-187.0
9.0,-269.0,-89.0,-611.0,-2.0,-21.0,-52.0,-1026.0,-199.0
-6.0,-271.0,-77.0,-599.0,12.0,-14.0,-60.0,-1041.0,-210.0
2.0,-273.0,-95.0,-586.0,25.0,-8.0,-68.0,-1049.0,-212.0
1.0,-271.0,-92.0,-576.0,39.0,-2.0,-71.0,-1052.0,-214.0
-2.0,-273.0,-95.0,-573.0,51.0,5.0,-81.0,-1048.0,-214.0
-3.0,-271.0,-97.0,-568.0,52.0,14.0,-95.0,-1035.0,-228.0
-5.0,-268.0,-97.0,-570.0,50.0,20.0,-103.0,-1019.0,-231.0
-8.0,-262.0,-93.0,-576.0,40.0,25.0,-100.0,-1006.0,-238.0
-1.0,-264.0,-100.0,-587.0,28.0,27.0,-99.0,-1008.0,-243.0
-1.0,-264.0,-101.0,-598.0,14.0,26.0,-94.0,-1004.0,-247.0
1.0,-263.0,-103.0,-605.0,-2.0,23.0,-88.0,-1006.0,-252.0
1.0,-278.0,-91.0,-611.0,-14.0,22.0,-69.0,-1013.0,-259.0
3.0,-269.0,-105.0,-614.0,-25.0,18.0,-64.0,-1023.0,-254.0
6.0,-268.0,-103.0,-607.0,-35.0,15.0,-56.0,-1026.0,-262.0
11.0,-271.0,-108.0,-596.0,-43.0,13.0,-52.0,-1024.0,-264.0
11.0,-274.0,-106.0,-584.0,-51.0,12.0,-47.0,-1022.0,-268.0
7.0,-271.0,-112.0,-567.0,-59.0,12.0,-44.0,-1024.0,-271.0
11.0,-267.0,-110.0,-550.0,-67.0,14.0,-41.0,-1023.0,-271.0
10.0,-267.0,-106.0,-531.0,-77.0,17.0,-41.0,-1023.0,-267.0
8.0,-267.0,-107.0,-516.0,-84.0,21.0,-40.0,-1011.0,-268.0
10.0,-263.0,-108.0,-505.0,-94.0,26.0,-36.0,-1003.0,-267.0
10.0,-261.0,-106.0,-497.0,-104.0,29.0,-36.0,-992.0,-275.0
12.0,-259.0,-107.0,-494.0,-113.0,33.0,-36.0,-990.0,-283.0
12.0,-258.0,-113.0,-495.0,-116.0,37.0,-37.0,-988.0,-283.0
13.0,-259.0,-112.0,-496.0,-117.0,42.0,-34.0,-984.0,-303.0
12.0,-258.0,-120.0,-497.0,-116.0,44.0,-38.0,-989.0,-311.0
10.0,-261.0,-121.0,-497.0,-110.0,46.0,-40.0,-990.0,-322.0
12.0,-259.0,-123.0,-496.0,-103.0,46.0,-45.0,-988.0,-332.0
10.0,-261.0,-127.0,-497.0,-93.0,46.0,-44.0,-993.0,-342.0
6.0,-261.0,-124.0,-494.0,-82.0,45.0,-44.0,-997.0,-353.0
11.0,-263.0,-130.0,-484.0,-69.0,43.0,-48.0,-998.0,-366.0
9.0,-266.0,-128.0,-469.0,-58.0,39.0,-51.0,-1003.0,-368.0
9.0,-263.0,-128.0,-452.0,-48.0,33.0,-50.0,-997.0,-371.0
6.0,-261.0,-129.0,-435.0,-41.0,25.0,-55.0,-993.0,-374.0
5.0,-258.0,-130.0,-423.0,-38.0,16.0,-59.0,-988.0,-368.0
4.0,-255.0,-128.0,-412.0,-39.0,6.0,-57.0,-975.0,-372.0
5.0,-254.0,-133.0,-406.0,-40.0,-4.0,-59.0,-962.0,-373.0
4.0,-253.0,-133.0,-405.0,-42.0,-11.0,-60.0,-962.0,-371.0
6.0,-253.0,-130.0,-405.0,-43.0,-16.0,-59.0,-962.0,-370.0
4.0,-256.0,-130.0,-400.0,-44.0,-20.0,-53.0,-959.0,-371.0
9.0,-255.0,-132.0,-391.0,-43.0,-24.0,-50.0,-960.0,-367.0
9.0,-252.0,-129.0,-378.0,-43.0,-28.0,-50.0,-956.0,-365.0
10.0,-255.0,-127.0,-362.0,-41.0,-32.0,-47.0,-953.0,-366.0
11.0,-253.0,-128.0,-348.0,-38.0,-35.0,-40.0,-952.0,-358.0
8.0,-255.0,-130.0,-331.0,-34.0,-39.0,-47.0,-957.0,-362.0
13.0,-254.0,-134.0,-316.0,-31.0,-40.0,-45.0,-959.0,-355.0
6.0,-255.0,-129.0,-296.0,-24.0,-42.0,-34.0,-962.0,-361.0
14.0,-256.0,-127.0,-276.0,-16.0,-41.0,-32.0,-968.0,-362.0
17.0,-255.0,-132.0,-255.0,-6.0,-37.0,-29.0,-967.0,-366.0
18.0,-257.0,-130.0,-236.0,5.0,-31.0,-25.0,-970.0,-369.0
17.0,-256.0,-132.0,-221.0,15.0,-25.0,-22.0,-979.0,-384.0
19.0,-257.0,-136.0,-205.0,19.0,-17.0,-17.0,-977.0,-393.0
23.0,-257.0,-138.0,-191.0,20.0,-12.0,0.0,-974.0,-397.0
24.0,-257.0,-142.0,-175.0,19.0,-9.0,10.0,-969.0,-411.0
24.0,-254.0,-145.0,-162.0,17.0,-7.0,17.0,-956.0,-420.0
24.0,-250.0,-145.0,-149.0,14.0,-6.0,15.0,-953.0,-421.0
27.0,-249.0,-141.0,-140.0,11.0,-3.0,10.0,-944.0,-423.0
24.0,-249.0,-145.0,-137.0,8.0,-4.0,1.0,-940.0,-431.0
18.0,-245.0,-145.0,-138.0,9.0,-3.0,-11.0,-929.0,-432.0
18.0,-244.0,-142.0,-143.0,7.0,-3.0,-25.0,-920.0,-428.0
15.0,-244.0,-148.0,-153.0,5.0,-2.0,-33.0,-918.0,-426.0
11.0,-240.0,-143.0,-165.0,0.0,0.0,-37.0,-918.0,-424.0
11.0,-244.0,-145.0,-175.0,-2.0,2.0,-49.0,-917.0,-421.0
5.0,-242.0,-140.0,-188.0,-3.0,7.0,-48.0,-920.0,-419.0
8.0,-244.0,-143.0,-200.0,-1.0,6.0,-57.0,-926.0,-416.0
3.0,-245.0,-143.0,-210.0,3.0,7.0,-63.0,-935.0,-420.0
7.0,-249.0,-147.0,-223.0,6.0,9.0,-61.0,-943.0,-420.0
2.0,-247.0,-143.0,-234.0,17.0,9.0,-71.0,-943.0,-421.0
7.0,-252.0,-147.0,-242.0,27.0,10.0,-67.0,-950.0,-420.0
3.0,-254.0,-142.0,-247.0,39.0,10.0,-68.0,-951.0,-422.0
5.0,-253.0,-145.0,-249.0,50.0,11.0,-70.0,-959.0,-418.0
4.0,-253.0,-141.0,-251.0,61.0,11.0,-64.0,-957.0,-421.0
5.0,-255.0,-143.0,-253.0,71.0,13.0,-64.0,-958.0,-424.0
4.0,-249.0,-141.0,-256.0,79.0,15.0,-57.0,-959.0,-433.0
5.0,-254.0,-145.0,-260.0,88.0,16.0,-61.0,-959.0,-426.0
7.0,-255.0,-147.0,-258.0,94.0,15.0,-57.0,-968.0,-432.0
9.0,-256.0,-144.0,-253.0,98.0,16.0,-53.0,-964.0,-439.0
3.0,-253.0,-150.0,-243.0,101.0,13.0,-61.0,-969.0,-440.0
7.0,-256.0,-148.0,-237.0,99.0,14.0,-59.0,-969.0,-445.0
6.0,-255.0,-151.0,-227.0,98.0,16.0,-58.0,-975.0,-445.0
7.0,-256.0,-149.0,-218.0,98.0,16.0,-53.0,-966.0,-440.0
9.0,-256.0,-146.0,-208.0,100.0,16.0,-53.0,-963.0,-434.0
10.0,-254.0,-147.0,-197.0,102.0,14.0,-49.0,-963.0,-433.0
10.0,-255.0,-148.0,-186.0,107.0,12.0,-51.0,-958.0,-426.0
11.0,-253.0,-142.0,-177.0,110.0,11.0,-46.0,-949.0,-423.0
8.0,-252.0,-146.0,-171.0,113.0,7.0,-43.0,-946.0,-416.0
9.0,-251.0,-144.0,-163.0,113.0,3.0,-49.0,-950.0,-424.0
11.0,-249.0,-146.0,-160.0,112.0,-1.0,-50.0,-947.0,-426.0
10.0,-252.0,-146.0,-159.0,106.0,-7.0,-52.0,-948.0,-421.0
7.0,-252.0,-145.0,-159.0,102.0,-12.0,-57.0,-951.0,-427.0
10.0,-252.0,-143.0,-160.0,95.0,-15.0,-50.0,-949.0,-421.0
6.0,-252.0,-144.0,-159.0,88.0,-20.0,-58.0,-948.0,-427.0
5.0,-251.0,-145.0,-153.0,85.0,-25.0,-61.0,-948.0,-427.0
7.0,-248.0,-147.0,-149.0,82.0,-26.0,-51.0,-941.0,-424.0
6.0,-248.0,-148.0,-147.0,80.0,-26.0,-53.0,-934.0,-428.0
8.0,-245.0,-143.0,-144.0,79.0,-24.0,-50.0,-933.0,-423.0
9.0,-243.0,-146.0,-140.0,75.0,-22.0,-46.0,-921.0,-425.0
11.0,-242.0,-143.0,-139.0,72.0,-17.0,-43.0,-915.0,-420.0
8.0,-239.0,-143.0,-139.0,65.0,-11.0,-48.0,-913.0,-419.0
12.0,-241.0,-142.0,-142.0,55.0,-3.0,-38.0,-910.0,-412.0
8.0,-242.0,-138.0,-141.0,43.0,1.0,-45.0,-911.0,-410.0
10.0,-241.0,-141.0,-142.0,30.0,7.0,-42.0,-913.0,-409.0
7.0,-239.0,-138.0,-141.0,16.0,9.0,-46.0,-916.0,-395.0
9.0,-242.0,-134.0,-137.0,3.0,11.0,-53.0,-920.0,-390.0
6.0,-244.0,-132.0,-133.0,-8.0,10.0,-56.0,-920.0,-385.0
6.0,-243.0,-133.0,-132.0,-15.0,8.0,-59.0,-919.0,-387.0
7.0,-242.0,-139.0,-143.0,-17.0,6.0,-56.0,-925.0,-395.0
8.0,-244.0,-148.0,-162.0,-13.0,2.0,-60.0,-936.0,-409.0
4.0,-250.0,-145.0,-186.0,-3.0,-4.0,-59.0,-951.0,-423.0
4.0,-253.0,-143.0,-200.0,16.0,-13.0,-69.0,-964.0,-431.0
1.0,-260.0,-146.0,-197.0,38.0,-21.0,-75.0,-983.0,-423.0
0.0,-259.0,-149.0,-179.0,62.0,-28.0,-91.0,-987.0,-429.0
3.0,-262.0,-144.0,-150.0,83.0,-32.0,-74.0,-983.0,-423.0
6.0,-257.0,-144.0,-117.0,103.0,-35.0,-59.0,-971.0,-422.0
7.0,-250.0,-148.0,-84.0,122.0,-38.0,-67.0,-956.0,-422.0
4.0,-247.0,-140.0,-58.0,132.0,-40.0,-60.0,-937.0,-414.0
9.0,-240.0,-138.0,-43.0,134.0,-41.0,-53.0,-905.0,-418.0
15.0,-233.0,-139.0,-32.0,134.0,-36.0,-36.0,-886.0,-410.0
10.0,-230.0,-136.0,-28.0,133.0,-31.0,-37.0,-867.0,-398.0
9.0,-228.0,-139.0,-29.0,123.0,-29.0,-34.0,-863.0,-402.0
18.0,-222.0,-137.0,-37.0,106.0,-27.0,-34.0,-850.0,-394.0
14.0,-224.0,-137.0,-50.0,83.0,-24.0,-34.0,-842.0,-397.0
12.0,-227.0,-139.0,-61.0,60.0,-19.0,-27.0,-842.0,-405.0
12.0,-223.0,-143.0,-74.0,41.0,-15.0,-30.0,-848.0,-409.0
16.0,-226.0,-142.0,-87.0,28.0,-10.0,-27.0,-854.0,-413.0
12.0,-232.0,-139.0,-100.0,18.0,-6.0,-28.0,-870.0,-414.0
15.0,-235.0,-140.0,-107.0,16.0,-2.0,-29.0,-882.0,-410.0
12.0,-240.0,-139.0,-109.0,18.0,-1.0,-36.0,-909.0,-411.0
12.0,-243.0,-139.0,-101.0,17.0,4.0,-32.0,-916.0,-414.0
15.0,-249.0,-143.0,-89.0,17.0,7.0,-31.0,-928.0,-409.0
20.0,-247.0,-140.0,-74.0,25.0,14.0,-26.0,-929.0,-410.0
15.0,-253.0,-126.0,-62.0,38.0,18.0,-25.0,-936.0,-405.0
14.0,-245.0,-136.0,-50.0,49.0,20.0,-29.0,-929.0,-398.0
13.0,-245.0,-140.0,-35.0,57.0,21.0,-34.0,-923.0,-397.0
12.0,-246.0,-142.0,-21.0,61.0,20.0,-40.0,-924.0,-401.0
11.0,-240.0,-139.0,-8.0,64.0,20.0,-36.0,-918.0,-403.0
14.0,-243.0,-143.0,-1.0,67.0,21.0,-36.0,-913.0,-412.0
7.0,-236.0,-141.0,0.0,75.0,20.0,-41.0,-905.0,-416.0
7.0,-235.0,-146.0,1.0,79.0,21.0,-40.0,-899.0,-421.0
11.0,-237.0,-149.0,-5.0,83.0,24.0,-45.0,-889.0,-429.0
11.0,-239.0,-148.0,-10.0,84.0,25.0,-38.0,-888.0,-431.0
12.0,-239.0,-148.0,-16.0,83.0,27.0,-42.0,-900.0,-433.0
12.0,-240.0,-146.0,-20.0,81.0,30.0,-36.0,-906.0,-427.0
13.0,-239.0,-148.0,-23.0,77.0,35.0,-38.0,-900.0,-430.0
7.0,-236.0,-148.0,-24.0,72.0,41.0,-40.0,-906.0,-435.0
13.0,-239.0,-149.0,-24.0,68.0,48.0,-42.0,-908.0,-430.0
9.0,-239.0,-151.0,-27.0,65.0,56.0,-47.0,-917.0,-445.0
10.0,-240.0,-148.0,-31.0,61.0,67.0,-44.0,-913.0,-443.0
12.0,-243.0,-145.0,-35.0,56.0,75.0,-39.0,-912.0,-450.0
16.0,-245.0,-153.0,-42.0,52.0,82.0,-41.0,-918.0,-450.0
8.0,-243.0,-154.0,-47.0,46.0,88.0,-51.0,-924.0,-448.0
9.0,-243.0,-152.0,-53.0,41.0,95.0,-48.0,-928.0,-450.0
8.0,-247.0,-152.0,-60.0,34.0,104.0,-47.0,-934.0,-450.0
10.0,-248.0,-152.0,-63.0,29.0,110.0,-47.0,-940.0,-446.0
9.0,-252.0,-152.0,-65.0,24.0,116.0,-47.0,-945.0,-448.0
9.0,-252.0,-153.0,-64.0,23.0,122.0,-44.0,-951.0,-442.0
14.0,-256.0,-153.0,-55.0,27.0,126.0,-36.0,-962.0,-443.0
16.0,-255.0,-149.0,-41.0,35.0,126.0,-31.0,-971.0,-444.0
17.0,-255.0,-149.0,-24.0,43.0,125.0,-28.0,-970.0,-447.0
17.0,-258.0,-148.0,-9.0,54.0,120.0,-22.0,-974.0,-444.0
15.0,-257.0,-146.0,2.0,63.0,114.0,-29.0,-975.0,-442.0
18.0,-258.0,-145.0,7.0,72.0,107.0,-25.0,-969.0,-439.0
14.0,-254.0,-148.0,12.0,81.0,97.0,-24.0,-960.0,-436.0
14.0,-253.0,-146.0,13.0,85.0,90.0,-32.0,-954.0,-428.0
17.0,-251.0,-147.0,18.0,90.0,81.0,-27.0,-950.0,-429.0
13.0,-250.0,-146.0,20.0,94.0,74.0,-28.0,-944.0,-432.0
3.0,-246.0,-145.0,17.0,99.0,67.0,-63.0,-938.0,-430.0
17.0,-246.0,-145.0,10.0,98.0,67.0,-26.0,-937.0,-417.0
14.0,-244.0,-147.0,5.0,91.0,55.0,-31.0,-931.0,-427.0
14.0,-243.0,-144.0,-1.0,87.0,45.0,-32.0,-928.0,-420.0
9.0,-248.0,-145.0,-4.0,86.0,35.0,-36.0,-926.0,-419.0
12.0,-246.0,-143.0,-3.0,86.0,27.0,-38.0,-928.0,-418.0
9.0,-250.0,-142.0,-1.0,83.0,20.0,-42.0,-941.0,-416.0
11.0,-249.0,-138.0,3.0,82.0,16.0,-47.0,-941.0,-414.0
7.0,-251.0,-143.0,8.0,82.0,12.0,-49.0,-947.0,-411.0
9.0,-253.0,-136.0,11.0,81.0,10.0,-54.0,-940.0,-410.0
8.0,-249.0,-139.0,16.0,80.0,7.0,-51.0,-948.0,-411.0
9.0,-249.0,-138.0,21.0,81.0,8.0,-43.0,-949.0,-410.0
11.0,-249.0,-140.0,26.0,84.0,10.0,-42.0,-947.0,-411.0
10.0,-251.0,-142.0,29.0,86.0,10.0,-47.0,-946.0,-418.0
13.0,-249.0,-146.0,31.0,87.0,10.0,-37.0,-939.0,-418.0
9.0,-248.0,-139.0,31.0,89.0,9.0,-34.0,-946.0,-416.0
10.0,-247.0,-143.0,32.0,89.0,7.0,-40.0,-942.0,-415.0
9.0,-247.0,-142.0,38.0,86.0,4.0,-43.0,-940.0,-416.0
9.0,-246.0,-142.0,44.0,78.0,0.0,-32.0,-938.0,-407.0
13.0,-248.0,-140.0,48.0,71.0,-8.0,-37.0,-934.0,-410.0
6.0,-244.0,-138.0,53.0,63.0,-13.0,-48.0,-937.0,-396.0
4.0,-246.0,-135.0,55.0,58.0,-16.0,-60.0,-928.0,-390.0
4.0,-245.0,-136.0,56.0,50.0,-21.0,-60.0,-926.0,-383.0
2.0,-246.0,-130.0,58.0,40.0,-25.0,-61.0,-933.0,-380.0
5.0,-245.0,-133.0,60.0,35.0,-28.0,-65.0,-927.0,-386.0
1.0,-244.0,-134.0,63.0,32.0,-32.0,-64.0,-925.0,-386.0
4.0,-243.0,-132.0,65.0,28.0,-35.0,-72.0,-922.0,-388.0
1.0,-244.0,-133.0,64.0,23.0,-37.0,-68.0,-922.0,-385.0
5.0,-243.0,-134.0,65.0,20.0,-37.0,-70.0,-922.0,-388.0
3.0,-245.0,-134.0,63.0,17.0,-33.0,-71.0,-923.0,-382.0
5.0,-243.0,-136.0,63.0,16.0,-28.0,-66.0,-920.0,-383.0
7.0,-247.0,-136.0,61.0,13.0,-25.0,-72.0,-919.0,-387.0
5.0,-243.0,-136.0,60.0,8.0,-19.0,-65.0,-914.0,-389.0
7.0,-242.0,-138.0,55.0,5.0,-10.0,-50.0,-919.0,-379.0
10.0,-243.0,-133.0,53.0,7.0,-4.0,-49.0,-921.0,-377.0
7.0,-245.0,-131.0,52.0,8.0,0.0,-48.0,-922.0,-379.0
12.0,-248.0,-131.0,57.0,7.0,3.0,-45.0,-930.0,-372.0
13.0,-248.0,-130.0,64.0,9.0,4.0,-40.0,-942.0,-371.0
12.0,-249.0,-130.0,75.0,10.0,4.0,-40.0,-945.0,-374.0
13.0,-251.0,-131.0,90.0,10.0,2.0,-44.0,-945.0,-376.0
6.0,-250.0,-136.0,107.0,7.0,4.0,-49.0,-944.0,-376.0
8.0,-250.0,-134.0,126.0,4.0,7.0,-47.0,-945.0,-383.0
9.0,-249.0,-135.0,139.0,1.0,11.0,-45.0,-943.0,-387.0
12.0,-248.0,-135.0,150.0,-2.0,12.0,-40.0,-934.0,-384.0
10.0,-242.0,-136.0,151.0,-3.0,6.0,-37.0,-924.0,-395.0
6.0,-241.0,-129.0,154.0,0.0,1.0,-53.0,-910.0,-379.0
4.0,-237.0,-135.0,158.0,2.0,4.0,-54.0,-902.0,-389.0
10.0,-232.0,-132.0,157.0,3.0,4.0,-54.0,-889.0,-379.0
5.0,-233.0,-131.0,157.0,5.0,1.0,-52.0,-882.0,-376.0
5.0,-235.0,-133.0,158.0,11.0,-1.0,-58.0,-884.0,-380.0
7.0,-237.0,-137.0,155.0,16.0,-3.0,-64.0,-889.0,-398.0
10.0,-234.0,-135.0,142.0,19.0,-3.0,-50.0,-882.0,-388.0
8.0,-231.0,-134.0,138.0,25.0,-8.0,-49.0,-880.0,-378.0
8.0,-232.0,-135.0,141.0,36.0,-16.0,-49.0,-877.0,-379.0
10.0,-234.0,-136.0,146.0,48.0,-24.0,-49.0,-885.0,-380.0
9.0,-234.0,-133.0,146.0,57.0,-27.0,-52.0,-883.0,-382.0
7.0,-236.0,-135.0,142.0,62.0,-29.0,-52.0,-887.0,-373.0
8.0,-237.0,-132.0,138.0,63.0,-28.0,-49.0,-890.0,-368.0
8.0,-239.0,-131.0,136.0,62.0,-26.0,-46.0,-904.0,-364.0
7.0,-240.0,-129.0,137.0,56.0,-24.0,-53.0,-912.0,-355.0
8.0,-239.0,-128.0,139.0,49.0,-23.0,-48.0,-919.0,-354.0
11.0,-245.0,-127.0,139.0,42.0,-22.0,-46.0,-913.0,-348.0
8.0,-241.0,-130.0,142.0,38.0,-20.0,-44.0,-921.0,-348.0
4.0,-239.0,-116.0,146.0,31.0,-19.0,-36.0,-918.0,-348.0
13.0,-241.0,-128.0,147.0,26.0,-22.0,-35.0,-917.0,-354.0
14.0,-241.0,-128.0,154.0,23.0,-26.0,-35.0,-914.0,-357.0
18.0,-240.0,-129.0,164.0,23.0,-29.0,-32.0,-912.0,-360.0
15.0,-239.0,-129.0,172.0,26.0,-32.0,-30.0,-900.0,-357.0
16.0,-236.0,-131.0,186.0,33.0,-34.0,-25.0,-894.0,-360.0
13.0,-236.0,-128.0,195.0,40.0,-38.0,-25.0,-890.0,-363.0
15.0,-234.0,-128.0,202.0,48.0,-38.0,-32.0,-885.0,-359.0
17.0,-236.0,-130.0,206.0,56.0,-34.0,-32.0,-883.0,-363.0
16.0,-234.0,-127.0,205.0,61.0,-30.0,-32.0,-882.0,-363.0
14.0,-230.0,-129.0,202.0,65.0,-26.0,-29.0,-883.0,-354.0
15.0,-238.0,-122.0,194.0,69.0,-23.0,-33.0,-878.0,-348.0
13.0,-235.0,-130.0,184.0,69.0,-22.0,-27.0,-881.0,-348.0
15.0,-236.0,-127.0,170.0,70.0,-21.0,-20.0,-893.0,-346.0
12.0,-239.0,-125.0,157.0,70.0,-21.0,-29.0,-908.0,-341.0
16.0,-243.0,-125.0,149.0,71.0,-18.0,-31.0,-913.0,-335.0
14.0,-245.0,-123.0,141.0,70.0,-16.0,-31.0,-914.0,-334.0
20.0,-252.0,-124.0,128.0,72.0,-15.0,-19.0,-949.0,-340.0
12.0,-249.0,-116.0,114.0,79.0,-23.0,-46.0,-938.0,-307.0
9.0,-253.0,-115.0,118.0,74.0,-14.0,-43.0,-938.0,-297.0
11.0,-248.0,-116.0,141.0,63.0,2.0,-36.0,-948.0,-288.0
13.0,-255.0,-116.0,166.0,48.0,15.0,-39.0,-956.0,-301.0
8.0,-256.0,-111.0,188.0,38.0,25.0,-37.0,-965.0,-294.0
12.0,-258.0,-111.0,213.0,29.0,33.0,-37.0,-970.0,-294.0
8.0,-255.0,-112.0,246.0,20.0,42.0,-47.0,-970.0,-300.0
10.0,-257.0,-121.0,280.0,9.0,57.0,-47.0,-985.0,-311.0
9.0,-255.0,-122.0,304.0,-2.0,73.0,-40.0,-982.0,-314.0
12.0,-256.0,-123.0,316.0,-12.0,87.0,-33.0,-985.0,-318.0
14.0,-258.0,-126.0,318.0,-23.0,90.0,-30.0,-977.0,-326.0
12.0,-255.0,-122.0,317.0,-31.0,93.0,-27.0,-967.0,-321.0
13.0,-255.0,-120.0,311.0,-37.0,91.0,-29.0,-959.0,-327.0
11.0,-251.0,-124.0,303.0,-40.0,89.0,-33.0,-954.0,-325.0
12.0,-247.0,-125.0,295.0,-42.0,88.0,-37.0,-948.0,-323.0
14.0,-251.0,-121.0,289.0,-44.0,84.0,-38.0,-936.0,-322.0
9.0,-248.0,-120.0,282.0,-45.0,80.0,-48.0,-934.0,-318.0
9.0,-245.0,-114.0,273.0,-45.0,78.0,-41.0,-935.0,-305.0
8.0,-244.0,-114.0,268.0,-47.0,74.0,-44.0,-926.0,-307.0
8.0,-246.0,-116.0,264.0,-50.0,70.0,-46.0,-931.0,-301.0
10.0,-244.0,-114.0,260.0,-54.0,68.0,-48.0,-922.0,-299.0
5.0,-243.0,-118.0,260.0,-53.0,66.0,-53.0,-927.0,-299.0
7.0,-243.0,-119.0,256.0,-55.0,63.0,-63.0,-935.0,-307.0
3.0,-244.0,-116.0,242.0,-58.0,62.0,-61.0,-930.0,-303.0
5.0,-244.0,-113.0,228.0,-65.0,61.0,-62.0,-933.0,-297.0
4.0,-247.0,-112.0,219.0,-71.0,62.0,-60.0,-933.0,-301.0
5.0,-246.0,-113.0,211.0,-76.0,60.0,-60.0,-939.0,-298.0
5.0,-245.0,-114.0,205.0,-81.0,56.0,-60.0,-928.0,-296.0
6.0,-243.0,-114.0,202.0,-80.0,53.0,-56.0,-930.0,-289.0
4.0,-242.0,-116.0,199.0,-75.0,47.0,-55.0,-923.0,-292.0
9.0,-241.0,-115.0,195.0,-68.0,43.0,-54.0,-921.0,-295.0
8.0,-241.0,-113.0,187.0,-59.0,42.0,-53.0,-920.0,-290.0
13.0,-244.0,-115.0,180.0,-48.0,42.0,-41.0,-920.0,-298.0
11.0,-243.0,-113.0,171.0,-32.0,44.0,-37.0,-914.0,-301.0
13.0,-238.0,-114.0,161.0,-16.0,44.0,-33.0,-914.0,-290.0
16.0,-240.0,-113.0,158.0,3.0,42.0,-34.0,-912.0,-289.0
19.0,-239.0,-112.0,156.0,21.0,37.0,-24.0,-904.0,-275.0
15.0,-236.0,-109.0,157.0,35.0,34.0,-24.0,-909.0,-271.0
15.0,-238.0,-107.0,162.0,49.0,30.0,-30.0,-896.0,-269.0
14.0,-237.0,-106.0,169.0,61.0,29.0,-31.0,-894.0,-268.0
12.0,-233.0,-108.0,175.0,69.0,27.0,-35.0,-892.0,-265.0
11.0,-234.0,-104.0,180.0,75.0,23.0,-39.0,-887.0,-258.0
12.0,-236.0,-104.0,183.0,75.0,19.0,-31.0,-887.0,-265.0
14.0,-233.0,-107.0,182.0,75.0,13.0,-35.0,-894.0,-270.0
17.0,-237.0,-108.0,178.0,76.0,8.0,-28.0,-901.0,-270.0
16.0,-239.0,-106.0,172.0,81.0,4.0,-27.0,-912.0,-263.0
15.0,-240.0,-108.0,171.0,82.0,-4.0,-26.0,-918.0,-263.0
16.0,-241.0,-111.0,166.0,83.0,-11.0,-24.0,-923.0,-266.0
10.0,-243.0,-106.0,162.0,81.0,-18.0,-36.0,-924.0,-264.0
13.0,-246.0,-100.0,160.0,76.0,-12.0,-39.0,-936.0,-263.0
9.0,-251.0,-99.0,168.0,72.0,-2.0,-42.0,-949.0,-252.0
11.0,-254.0,-106.0,184.0,64.0,7.0,-46.0,-961.0,-253.0
10.0,-256.0,-104.0,205.0,56.0,16.0,-44.0,-975.0,-253.0
10.0,-258.0,-103.0,225.0,51.0,23.0,-42.0,-982.0,-245.0
3.0,-257.0,-93.0,250.0,47.0,24.0,-62.0,-975.0,-232.0
4.0,-256.0,-96.0,281.0,45.0,27.0,-69.0,-971.0,-227.0
0.0,-255.0,-102.0,307.0,41.0,29.0,-85.0,-967.0,-239.0
1.0,-253.0,-101.0,319.0,44.0,38.0,-81.0,-957.0,-241.0
1.0,-251.0,-99.0,313.0,49.0,46.0,-70.0,-966.0,-245.0
5.0,-256.0,-100.0,298.0,57.0,50.0,-64.0,-964.0,-232.0
10.0,-253.0,-97.0,291.0,65.0,50.0,-49.0,-957.0,-230.0
11.0,-251.0,-99.0,297.0,74.0,37.0,-39.0,-949.0,-220.0
8.0,-247.0,-97.0,312.0,87.0,25.0,-44.0,-944.0,-226.0
8.0,-249.0,-100.0,320.0,100.0,20.0,-45.0,-942.0,-238.0
9.0,-246.0,-102.0,317.0,107.0,17.0,-46.0,-945.0,-255.0
10.0,-248.0,-104.0,306.0,108.0,17.0,-43.0,-943.0,-254.0
8.0,-248.0,-104.0,294.0,105.0,20.0,-39.0,-943.0,-266.0
12.0,-250.0,-106.0,274.0,101.0,21.0,-34.0,-941.0,-263.0
11.0,-245.0,-109.0,257.0,99.0,21.0,-42.0,-937.0,-270.0
12.0,-247.0,-109.0,242.0,98.0,20.0,-40.0,-934.0,-268.0
6.0,-245.0,-106.0,233.0,92.0,19.0,-53.0,-932.0,-269.0
6.0,-243.0,-99.0,222.0,79.0,19.0,-52.0,-919.0,-239.0
1.0,-238.0,-104.0,226.0,63.0,17.0,-64.0,-916.0,-242.0
1.0,-238.0,-103.0,235.0,48.0,16.0,-84.0,-910.0,-245.0
0.0,-240.0,-101.0,239.0,31.0,15.0,-88.0,-922.0,-247.0
-4.0,-239.0,-104.0,232.0,13.0,14.0,-104.0,-922.0,-249.0
-6.0,-239.0,-99.0,215.0,-4.0,16.0,-112.0,-917.0,-233.0
-8.0,-241.0,-101.0,208.0,-19.0,25.0,-113.0,-921.0,-247.0
-6.0,-239.0,-102.0,202.0,-28.0,35.0,-108.0,-917.0,-240.0
-6.0,-237.0,-97.0,199.0,-33.0,39.0,-106.0,-907.0,-248.0
-2.0,-235.0,-102.0,195.0,-30.0,44.0,-96.0,-895.0,-246.0
-2.0,-235.0,-103.0,189.0,-25.0,44.0,-94.0,-906.0,-261.0
0.0,-235.0,-109.0,175.0,-19.0,41.0,-95.0,-890.0,-255.0
-2.0,-237.0,-106.0,159.0,-13.0,37.0,-98.0,-900.0,-259.0
0.0,-233.0,-104.0,140.0,-8.0,34.0,-90.0,-885.0,-255.0
1.0,-236.0,-104.0,126.0,-6.0,26.0,-84.0,-890.0,-260.0
2.0,-237.0,-109.0,106.0,-5.0,20.0,-77.0,-898.0,-264.0
0.0,-233.0,-108.0,94.0,-5.0,12.0,-73.0,-888.0,-249.0
3.0,-233.0,-100.0,95.0,-9.0,8.0,-68.0,-880.0,-247.0
6.0,-236.0,-104.0,102.0,-9.0,6.0,-58.0,-885.0,-263.0
6.0,-234.0,-107.0,101.0,-9.0,4.0,-52.0,-886.0,-264.0
9.0,-236.0,-104.0,98.0,-6.0,-2.0,-53.0,-880.0,-259.0
13.0,-234.0,-105.0,89.0,-8.0,-8.0,-49.0,-888.0,-263.0
5.0,-232.0,-103.0,78.0,-10.0,-18.0,-52.0,-890.0,-254.0
2.0,-234.0,-102.0,68.0,-17.0,-28.0,-69.0,-902.0,-251.0
1.0,-239.0,-101.0,59.0,-26.0,-34.0,-82.0,-910.0,-244.0
1.0,-241.0,-99.0,49.0,-31.0,-41.0,-87.0,-922.0,-242.0
0.0,-240.0,-96.0,48.0,-39.0,-47.0,-96.0,-911.0,-218.0
1.0,-245.0,-97.0,60.0,-53.0,-44.0,-86.0,-922.0,-224.0
0.0,-246.0,-101.0,74.0,-60.0,-44.0,-86.0,-931.0,-242.0
2.0,-246.0,-97.0,76.0,-61.0,-49.0,-92.0,-933.0,-229.0
0.0,-247.0,-94.0,77.0,-63.0,-54.0,-93.0,-938.0,-228.0
8.0,-242.0,-87.0,79.0,-62.0,-59.0,-96.0,-937.0,-223.0
-2.0,-243.0,-97.0,83.0,-64.0,-62.0,-101.0,-934.0,-220.0
-2.0,-246.0,-96.0,86.0,-66.0,-64.0,-102.0,-933.0,-222.0
0.0,-247.0,-96.0,87.0,-72.0,-61.0,-106.0,-931.0,-223.0
-1.0,-245.0,-98.0,85.0,-76.0,-58.0,-96.0,-934.0,-232.0
1.0,-247.0,-99.0,79.0,-76.0,-56.0,-96.0,-936.0,-236.0
1.0,-248.0,-101.0,72.0,-73.0,-60.0,-92.0,-945.0,-238.0
-2.0,-249.0,-101.0,63.0,-69.0,-61.0,-92.0,-954.0,-245.0
0.0,-252.0,-101.0,56.0,-62.0,-63.0,-86.0,-956.0,-242.0
1.0,-253.0,-101.0,52.0,-51.0,-62.0,-76.0,-961.0,-241.0
3.0,-255.0,-101.0,48.0,-39.0,-66.0,-73.0,-966.0,-232.0
1.0,-262.0,-88.0,46.0,-29.0,-69.0,-75.0,-961.0,-230.0
1.0,-256.0,-96.0,42.0,-20.0,-69.0,-73.0,-972.0,-221.0
2.0,-254.0,-92.0,37.0,-13.0,-65.0,-70.0,-966.0,-215.0
4.0,-257.0,-90.0,33.0,-8.0,-62.0,-70.0,-971.0,-199.0
3.0,-255.0,-89.0,33.0,-6.0,-58.0,-67.0,-966.0,-190.0
2.0,-257.0,-84.0,37.0,-6.0,-55.0,-73.0,-972.0,-186.0
1.0,-253.0,-87.0,45.0,-13.0,-50.0,-72.0,-975.0,-179.0
1.0,-257.0,-85.0,53.0,-20.0,-46.0,-73.0,-985.0,-176.0
2.0,-257.0,-87.0,59.0,-28.0,-46.0,-78.0,-983.0,-183.0
-1.0,-258.0,-88.0,66.0,-34.0,-40.0,-82.0,-978.0,-186.0
0.0,-259.0,-87.0,65.0,-37.0,-34.0,-82.0,-991.0,-186.0
0.0,-264.0,-91.0,62.0,-40.0,-30.0,-88.0,-989.0,-189.0
1.0,-257.0,-92.0,60.0,-43.0,-27.0,-94.0,-992.0,-191.0
-3.0,-257.0,-89.0,60.0,-44.0,-23.0,-102.0,-991.0,-195.0
-3.0,-260.0,-92.0,68.0,-44.0,-20.0,-103.0,-987.0,-194.0
-5.0,-258.0,-86.0,79.0,-44.0,-17.0,-100.0,-992.0,-207.0
-6.0,-260.0,-110.0,93.0,-41.0,-17.0,-108.0,-989.0,-208.0
-5.0,-256.0,-93.0,104.0,-42.0,-19.0,-104.0,-972.0,-212.0
-3.0,-255.0,-95.0,112.0,-44.0,-21.0,-101.0,-969.0,-214.0
0.0,-254.0,-93.0,112.0,-45.0,-22.0,-91.0,-962.0,-212.0
0.0,-252.0,-93.0,105.0,-40.0,-23.0,-93.0,-953.0,-205.0
-2.0,-249.0,-88.0,94.0,-38.0,-23.0,-93.0,-948.0,-200.0
-3.0,-247.0,-88.0,82.0,-37.0,-19.0,-97.0,-946.0,-191.0
-1.0,-249.0,-87.0,71.0,-39.0,-13.0,-93.0,-945.0,-180.0
4.0,-238.0,-78.0,67.0,-43.0,-9.0,-97.0,-944.0,-187.0
0.0,-247.0,-88.0,64.0,-47.0,-4.0,-86.0,-943.0,-195.0
1.0,-250.0,-89.0,59.0,-48.0,5.0,-86.0,-944.0,-206.0
1.0,-246.0,-94.0,50.0,-45.0,11.0,-71.0,-945.0,-214.0
2.0,-247.0,-95.0,36.0,-41.0,17.0,-77.0,-934.0,-211.0
0.0,-245.0,-92.0,21.0,-37.0,23.0,-74.0,-932.0,-213.0
3.0,-246.0,-93.0,7.0,-34.0,30.0,-70.0,-924.0,-214.0
4.0,-244.0,-94.0,-5.0,-29.0,39.0,-63.0,-930.0,-217.0
9.0,-245.0,-95.0,-18.0,-21.0,45.0,-57.0,-926.0,-211.0
9.0,-246.0,-95.0,-30.0,-9.0,48.0,-47.0,-932.0,-220.0
10.0,-248.0,-95.0,-46.0,3.0,56.0,-36.0,-936.0,-220.0
15.0,-246.0,-91.0,-61.0,17.0,57.0,-30.0,-935.0,-212.0
16.0,-246.0,-97.0,-71.0,33.0,59.0,-21.0,-945.0,-211.0
9.0,-235.0,-97.0,-81.0,50.0,62.0,-15.0,-945.0,-208.0
23.0,-252.0,-88.0,-92.0,68.0,67.0,-8.0,-951.0,-206.0
21.0,-254.0,-89.0,-98.0,88.0,70.0,-1.0,-963.0,-206.0
21.0,-257.0,-91.0,-104.0,108.0,72.0,-4.0,-968.0,-209.0
20.0,-258.0,-94.0,-116.0,128.0,73.0,-15.0,-989.0,-215.0
21.0,-262.0,-88.0,-132.0,147.0,80.0,-1.0,-1002.0,-212.0
16.0,-261.0,-91.0,-142.0,163.0,84.0,-17.0,-1003.0,-195.0
19.0,-269.0,-87.0,-137.0,176.0,88.0,-12.0,-1008.0,-195.0
17.0,-267.0,-86.0,-128.0,187.0,85.0,-17.0,-1012.0,-192.0
13.0,-266.0,-91.0,-112.0,196.0,80.0,-28.0,-1003.0,-194.0
10.0,-264.0,-89.0,-92.0,203.0,76.0,-38.0,-1001.0,-200.0
7.0,-261.0,-93.0,-78.0,205.0,72.0,-49.0,-994.0,-210.0
9.0,-262.0,-94.0,-70.0,203.0,71.0,-52.0,-1006.0,-218.0
6.0,-261.0,-93.0,-70.0,201.0,67.0,-55.0,-993.0,-216.0
1.0,-266.0,-90.0,-69.0,195.0,59.0,-69.0,-984.0,-220.0
5.0,-261.0,-98.0,-73.0,192.0,56.0,-64.0,-985.0,-217.0
6.0,-265.0,-99.0,-75.0,192.0,51.0,-67.0,-1013.0,-238.0
-2.0,-260.0,-91.0,-86.0,202.0,29.0,-81.0,-998.0,-198.0
1.0,-262.0,-89.0,-80.0,202.0,23.0,-91.0,-982.0,-198.0
0.0,-252.0,-84.0,-55.0,196.0,25.0,-94.0,-963.0,-181.0
-1.0,-250.0,-89.0,-24.0,187.0,33.0,-98.0,-955.0,-188.0
-5.0,-249.0,-93.0,-5.0,183.0,31.0,-102.0,-950.0,-199.0
-2.0,-251.0,-90.0,-4.0,180.0,28.0,-104.0,-951.0,-204.0
-7.0,-250.0,-92.0,-14.0,179.0,22.0,-114.0,-956.0,-198.0
-9.0,-251.0,-90.0,-30.0,175.0,17.0,-118.0,-958.0,-198.0
-6.0,-255.0,-88.0,-45.0,169.0,13.0,-113.0,-960.0,-186.0
-8.0,-255.0,-84.0,-49.0,159.0,12.0,-111.0,-962.0,-183.0
-2.0,-254.0,-84.0,-48.0,152.0,11.0,-108.0,-975.0,-183.0
0.0,-259.0,-85.0,-46.0,145.0,6.0,-98.0,-976.0,-186.0
-3.0,-262.0,-88.0,-46.0,142.0,-3.0,-103.0,-1003.0,-201.0
-1.0,-260.0,-87.0,-48.0,141.0,-11.0,-92.0,-993.0,-183.0
1.0,-261.0,-87.0,-39.0,133.0,-8.0,-87.0,-995.0,-181.0
2.0,-264.0,-85.0,-23.0,127.0,-5.0,-78.0,-1000.0,-181.0
4.0,-264.0,-89.0,-13.0,124.0,-3.0,-64.0,-1004.0,-184.0
2.0,-265.0,-80.0,-4.0,122.0,-3.0,-70.0,-1011.0,-183.0
2.0,-263.0,-81.0,1.0,122.0,-5.0,-73.0,-1006.0,-180.0
2.0,-265.0,-81.0,10.0,115.0,-4.0,-75.0,-1005.0,-177.0
-1.0,-260.0,-83.0,15.0,104.0,-2.0,-86.0,-995.0,-179.0
-2.0,-261.0,-89.0,20.0,93.0,-3.0,-90.0,-1000.0,-184.0
-4.0,-260.0,-84.0,20.0,80.0,-3.0,-99.0,-987.0,-181.0
-3.0,-257.0,-87.0,18.0,69.0,-3.0,-97.0,-985.0,-178.0
-5.0,-259.0,-87.0,18.0,57.0,-1.0,-110.0,-991.0,-179.0
-9.0,-258.0,-81.0,16.0,52.0,2.0,-107.0,-986.0,-176.0
0.0,-258.0,-78.0,20.0,43.0,7.0,-98.0,-983.0,-168.0
0.0,-256.0,-79.0,30.0,39.0,7.0,-92.0,-985.0,-164.0
1.0,-256.0,-82.0,40.0,37.0,8.0,-92.0,-976.0,-168.0
-2.0,-255.0,-85.0,48.0,39.0,10.0,-92.0,-973.0,-173.0
1.0,-254.0,-80.0,48.0,42.0,11.0,-87.0,-970.0,-174.0
1.0,-254.0,-82.0,40.0,44.0,13.0,-73.0,-968.0,-176.0
3.0,-256.0,-82.0,24.0,47.0,13.0,-66.0,-969.0,-173.0
4.0,-256.0,-83.0,10.0,48.0,12.0,-63.0,-974.0,-173.0
5.0,-256.0,-82.0,-1.0,49.0,9.0,-59.0,-968.0,-163.0
6.0,-256.0,-75.0,-6.0,50.0,7.0,-54.0,-977.0,-155.0
7.0,-256.0,-73.0,-7.0,49.0,4.0,-58.0,-982.0,-159.0
5.0,-257.0,-79.0,-9.0,48.0,0.0,-58.0,-985.0,-152.0
7.0,-258.0,-80.0,-11.0,48.0,0.0,-55.0,-987.0,-155.0
4.0,-258.0,-77.0,-10.0,47.0,0.0,-56.0,-991.0,-151.0
7.0,-260.0,-79.0,-6.0,46.0,1.0,-56.0,-990.0,-159.0
7.0,-260.0,-82.0,-1.0,48.0,1.0,-56.0,-989.0,-164.0
9.0,-259.0,-83.0,1.0,48.0,1.0,-53.0,-990.0,-164.0
5.0,-258.0,-82.0,5.0,50.0,2.0,-60.0,-989.0,-168.0
5.0,-255.0,-84.0,4.0,53.0,2.0,-61.0,-980.0,-171.0
4.0,-255.0,-81.0,-2.0,54.0,4.0,-60.0,-978.0,-174.0
3.0,-254.0,-84.0,-10.0,56.0,6.0,-57.0,-967.0,-168.0
3.0,-253.0,-84.0,-19.0,59.0,7.0,-56.0,-971.0,-172.0
9.0,-255.0,-94.0,-27.0,62.0,10.0,-60.0,-967.0,-168.0
3.0,-254.0,-82.0,-35.0,66.0,11.0,-61.0,-969.0,-169.0
8.0,-253.0,-82.0,-42.0,69.0,15.0,-54.0,-958.0,-170.0
7.0,-252.0,-81.0,-52.0,72.0,16.0,-49.0,-960.0,-173.0
9.0,-254.0,-84.0,-63.0,76.0,16.0,-42.0,-967.0,-172.0
11.0,-255.0,-82.0,-68.0,79.0,17.0,-43.0,-966.0,-171.0
8.0,-255.0,-80.0,-72.0,84.0,16.0,-43.0,-977.0,-169.0
10.0,-256.0,-78.0,-75.0,89.0,13.0,-47.0,-980.0,-167.0
20.0,-254.0,-88.0,-75.0,94.0,13.0,-51.0,-981.0,-160.0
9.0,-259.0,-77.0,-73.0,95.0,16.0,-54.0,-983.0,-160.0
8.0,-262.0,-83.0,-69.0,98.0,16.0,-48.0,-988.0,-166.0
8.0,-258.0,-81.0,-73.0,103.0,11.0,-46.0,-990.0,-164.0
10.0,-258.0,-81.0,-72.0,105.0,7.0,-49.0,-981.0,-163.0
7.0,-255.0,-80.0,-67.0,109.0,8.0,-40.0,-986.0,-172.0
7.0,-259.0,-84.0,-63.0,113.0,8.0,-42.0,-985.0,-172.0
3.0,-258.0,-85.0,-62.0,118.0,7.0,-51.0,-985.0,-178.0
7.0,-260.0,-84.0,-61.0,119.0,6.0,-57.0,-990.0,-180.0
8.0,-257.0,-81.0,-64.0,120.0,3.0,-60.0,-990.0,-181.0
6.0,-258.0,-93.0,-65.0,120.0,4.0,-62.0,-991.0,-178.0
4.0,-258.0,-84.0,-65.0,120.0,2.0,-61.0,-986.0,-179.0
5.0,-260.0,-86.0,-61.0,117.0,1.0,-60.0,-990.0,-184.0
5.0,-258.0,-89.0,-54.0,114.0,2.0,-64.0,-987.0,-182.0
3.0,-261.0,-86.0,-48.0,113.0,2.0,-62.0,-992.0,-182.0
5.0,-257.0,-81.0,-42.0,112.0,6.0,-68.0,-987.0,-181.0
2.0,-259.0,-85.0,-36.0,109.0,8.0,-66.0,-986.0,-177.0
4.0,-258.0,-87.0,-36.0,108.0,8.0,-63.0,-986.0,-176.0
2.0,-258.0,-85.0,-36.0,106.0,8.0,-68.0,-982.0,-177.0
4.0,-257.0,-80.0,-37.0,104.0,8.0,-66.0,-989.0,-170.0
3.0,-260.0,-83.0,-37.0,103.0,6.0,-65.0,-984.0,-171.0
2.0,-259.0,-80.0,-38.0,102.0,7.0,-66.0,-987.0,-162.0
3.0,-259.0,-82.0,-36.0,100.0,7.0,-71.0,-987.0,-162.0
3.0,-259.0,-83.0,-33.0,98.0,6.0,-66.0,-988.0,-161.0
1.0,-258.0,-77.0,-29.0,94.0,5.0,-70.0,-986.0,-167.0
2.0,-259.0,-81.0,-30.0,91.0,6.0,-65.0,-986.0,-172.0
6.0,-262.0,-84.0,-31.0,87.0,3.0,-67.0,-990.0,-170.0
2.0,-258.0,-79.0,-34.0,85.0,2.0,-64.0,-991.0,-167.0
5.0,-263.0,-82.0,-31.0,83.0,2.0,-63.0,-994.0,-165.0
5.0,-262.0,-78.0,-28.0,85.0,1.0,-59.0,-992.0,-157.0
4.0,-260.0,-79.0,-20.0,86.0,1.0,-60.0,-993.0,-158.0
5.0,-261.0,-83.0,-9.0,89.0,0.0,-61.0,-994.0,-167.0
4.0,-262.0,-81.0,3.0,88.0,-1.0,-54.0,-993.0,-175.0
6.0,-259.0,-87.0,12.0,90.0,-2.0,-58.0,-991.0,-179.0
3.0,-257.0,-85.0,14.0,92.0,-3.0,-60.0,-977.0,-177.0
3.0,-256.0,-82.0,10.0,93.0,-4.0,-58.0,-982.0,-176.0
3.0,-255.0,-84.0,0.0,94.0,-3.0,-64.0,-980.0,-177.0
5.0,-257.0,-86.0,-11.0,94.0,-5.0,-62.0,-981.0,-173.0
2.0,-254.0,-80.0,-25.0,95.0,-5.0,-66.0,-977.0,-163.0
5.0,-257.0,-84.0,-31.0,98.0,-4.0,-62.0,-980.0,-162.0
3.0,-257.0,-79.0,-32.0,99.0,-5.0,-58.0,-974.0,-158.0
4.0,-257.0,-78.0,-28.0,101.0,-5.0,-65.0,-982.0,-153.0
4.0,-260.0,-77.0,-26.0,100.0,-5.0,-63.0,-986.0,-151.0
2.0,-256.0,-76.0,-24.0,100.0,-3.0,-65.0,-987.0,-156.0
3.0,-257.0,-77.0,-25.0,96.0,-3.0,-64.0,-989.0,-158.0
5.0,-256.0,-80.0,-23.0,94.0,-3.0,-68.0,-991.0,-156.0
2.0,-258.0,-79.0,-24.0,91.0,-3.0,-69.0,-986.0,-159.0
4.0,-258.0,-81.0,-27.0,87.0,-3.0,-72.0,-988.0,-163.0
4.0,-257.0,-79.0,-28.0,82.0,-1.0,-74.0,-983.0,-157.0
1.0,-257.0,-80.0,-30.0,79.0,-1.0,-74.0,-985.0,-154.0
0.0,-258.0,-78.0,-31.0,75.0,-2.0,-76.0,-982.0,-153.0
0.0,-258.0,-78.0,-32.0,70.0,-2.0,-75.0,-984.0,-148.0
2.0,-257.0,-77.0,-31.0,68.0,-3.0,-73.0,-982.0,-156.0
3.0,-259.0,-80.0,-33.0,63.0,-4.0,-76.0,-988.0,-155.0
2.0,-256.0,-80.0,-36.0,58.0,-6.0,-70.0,-990.0,-158.0
2.0,-257.0,-78.0,-40.0,54.0,-6.0,-71.0,-984.0,-162.0
4.0,-257.0,-83.0,-45.0,51.0,-8.0,-68.0,-991.0,-167.0
2.0,-259.0,-79.0,-47.0,49.0,-9.0,-61.0,-989.0,-163.0
1.0,-256.0,-81.0,-48.0,47.0,-9.0,-68.0,-990.0,-164.0
5.0,-259.0,-80.0,-49.0,46.0,-10.0,-61.0,-990.0,-170.0
3.0,-258.0,-85.0,-47.0,42.0,-10.0,-64.0,-980.0,-165.0
6.0,-258.0,-79.0,-47.0,41.0,-10.0,-64.0,-988.0,-170.0
5.0,-261.0,-83.0,-50.0,37.0,-12.0,-61.0,-989.0,-165.0
5.0,-257.0,-79.0,-53.0,37.0,-13.0,-64.0,-977.0,-161.0
4.0,-259.0,-80.0,-55.0,34.0,-11.0,-62.0,-983.0,-155.0
3.0,-259.0,-77.0,-53.0,30.0,-11.0,-64.0,-985.0,-155.0
2.0,-256.0,-78.0,-53.0,29.0,-11.0,-64.0,-985.0,-158.0
3.0,-259.0,-76.0,-50.0,25.0,-11.0,-69.0,-985.0,-153.0
2.0,-258.0,-77.0,-51.0,22.0,-11.0,-69.0,-984.0,-164.0
1.0,-256.0,-81.0,-51.0,20.0,-11.0,-65.0,-985.0,-163.0
2.0,-258.0,-82.0,-54.0,18.0,-8.0,-74.0,-983.0,-162.0
3.0,-256.0,-80.0,-54.0,17.0,-8.0,-62.0,-988.0,-164.0
6.0,-258.0,-80.0,-56.0,17.0,-6.0,-57.0,-985.0,-167.0
5.0,-258.0,-79.0,-58.0,17.0,-5.0,-55.0,-989.0,-170.0
7.0,-260.0,-78.0,-61.0,20.0,-6.0,-60.0,-991.0,-172.0
5.0,-258.0,-78.0,-61.0,21.0,-5.0,-59.0,-991.0,-171.0
6.0,-259.0,-83.0,-60.0,23.0,-4.0,-64.0,-992.0,-167.0
3.0,-258.0,-82.0,-61.0,24.0,-4.0,-62.0,-992.0,-173.0
4.0,-258.0,-81.0,-59.0,24.0,-4.0,-67.0,-985.0,-165.0
5.0,-258.0,-82.0,-54.0,22.0,-4.0,-67.0,-982.0,-168.0
4.0,-257.0,-83.0,-49.0,20.0,-6.0,-68.0,-988.0,-160.0
1.0,-257.0,-78.0,-45.0,18.0,-7.0,-64.0,-986.0,-164.0
7.0,-260.0,-84.0,-45.0,15.0,-6.0,-65.0,-985.0,-165.0
5.0,-258.0,-77.0,-45.0,15.0,-7.0,-60.0,-984.0,-169.0
6.0,-256.0,-79.0,-44.0,15.0,-7.0,-59.0,-985.0,-162.0
8.0,-258.0,-83.0,-43.0,18.0,-6.0,-52.0,-988.0,-168.0
6.0,-257.0,-83.0,-39.0,20.0,-3.0,-57.0,-986.0,-167.0
7.0,-259.0,-77.0,-36.0,22.0,-4.0,-58.0,-985.0,-170.0
4.0,-257.0,-85.0,-35.0,23.0,-2.0,-59.0,-985.0,-166.0
5.0,-260.0,-81.0,-37.0,25.0,-1.0,-62.0,-985.0,-172.0
6.0,-261.0,-77.0,-39.0,23.0,-1.0,-63.0,-984.0,-164.0
4.0,-259.0,-81.0,-38.0,20.0,-1.0,-65.0,-991.0,-167.0
4.0,-260.0,-79.0,-36.0,16.0,-3.0,-61.0,-993.0,-164.0
5.0,-258.0,-80.0,-36.0,13.0,-2.0,-62.0,-988.0,-162.0
7.0,-260.0,-80.0,-31.0,11.0,-5.0,-64.0,-986.0,-161.0
4.0,-257.0,-81.0,-29.0,9.0,-6.0,-60.0,-988.0,-162.0
5.0,-258.0,-78.0,-31.0,6.0,-7.0,-63.0,-988.0,-161.0
5.0,-255.0,-81.0,-35.0,5.0,-8.0,-61.0,-983.0,-166.0
5.0,-256.0,-82.0,-37.0,6.0,-8.0,-66.0,-985.0,-165.0
5.0,-258.0,-76.0,-40.0,7.0,-6.0,-61.0,-980.0,-169.0
4.0,-256.0,-78.0,-39.0,8.0,-5.0,-58.0,-979.0,-170.0
4.0,-256.0,-84.0,-40.0,9.0,-5.0,-63.0,-980.0,-160.0
4.0,-257.0,-80.0,-43.0,10.0,-4.0,-61.0,-983.0,-166.0
5.0,-261.0,-78.0,-42.0,9.0,-5.0,-63.0,-977.0,-168.0
6.0,-259.0,-80.0,-41.0,11.0,-5.0,-67.0,-985.0,-162.0
4.0,-258.0,-82.0,-40.0,10.0,-4.0,-64.0,-984.0,-164.0
2.0,-258.0,-77.0,-40.0,10.0,-4.0,-69.0,-986.0,-160.0
2.0,-258.0,-79.0,-39.0,8.0,-4.0,-66.0,-987.0,-156.0
4.0,-263.0,-76.0,-41.0,9.0,-5.0,-69.0,-986.0,-160.0
4.0,-261.0,-77.0,-41.0,8.0,-4.0,-70.0,-989.0,-156.0
2.0,-257.0,-76.0,-43.0,7.0,-5.0,-65.0,-985.0,-167.0
4.0,-259.0,-78.0,-46.0,10.0,-5.0,-65.0,-987.0,-160.0
4.0,-259.0,-80.0,-49.0,10.0,-6.0,-63.0,-986.0,-166.0
8.0,-258.0,-79.0,-51.0,12.0,-8.0,-61.0,-989.0,-164.0
4.0,-256.0,-80.0,-50.0,13.0,-8.0,-66.0,-983.0,-164.0
3.0,-257.0,-80.0,-51.0,14.0,-9.0,-61.0,-986.0,-161.0
3.0,-257.0,-80.0,-50.0,15.0,-8.0,-66.0,-981.0,-169.0
1.0,-258.0,-81.0,-50.0,14.0,-8.0,-68.0,-988.0,-163.0
4.0,-250.0,-94.0,-49.0,10.0,-7.0,-61.0,-984.0,-165.0
3.0,-257.0,-79.0,-51.0,7.0,-7.0,-66.0,-982.0,-165.0
5.0,-259.0,-80.0,-51.0,4.0,-7.0,-65.0,-983.0,-162.0
6.0,-258.0,-84.0,-50.0,1.0,-6.0,-64.0,-979.0,-160.0
7.0,-259.0,-81.0,-51.0,-1.0,-6.0,-60.0,-984.0,-162.0
4.0,-257.0,-81.0,-50.0,0.0,-4.0,-63.0,-983.0,-167.0
5.0,-259.0,-79.0,-49.0,1.0,-5.0,-65.0,-985.0,-166.0
6.0,-258.0,-77.0,-52.0,2.0,-3.0,-58.0,-983.0,-170.0
5.0,-258.0,-79.0,-54.0,1.0,-2.0,-59.0,-986.0,-171.0
4.0,-259.0,-84.0,-56.0,1.0,-2.0,-62.0,-984.0,-167.0
3.0,-258.0,-82.0,-59.0,1.0,-3.0,-65.0,-989.0,-173.0
1.0,-255.0,-87.0,-61.0,3.0,-3.0,-63.0,-984.0,-167.0
1.0,-256.0,-84.0,-60.0,2.0,-4.0,-63.0,-991.0,-166.0
5.0,-259.0,-84.0,-59.0,2.0,-3.0,-66.0,-988.0,-170.0
4.0,-260.0,-78.0,-56.0,1.0,-2.0,-66.0,-991.0,-167.0
1.0,-259.0,-84.0,-50.0,0.0,-5.0,-67.0,-988.0,-166.0
2.0,-261.0,-80.0,-42.0,-3.0,-5.0,-67.0,-989.0,-163.0
2.0,-258.0,-83.0,-35.0,-5.0,-6.0,-69.0,-994.0,-171.0
6.0,-259.0,-81.0,-31.0,-6.0,-8.0,-64.0,-983.0,-171.0
6.0,-259.0,-84.0,-31.0,-6.0,-7.0,-66.0,-982.0,-171.0
3.0,-256.0,-83.0,-34.0,-9.0,-6.0,-65.0,-972.0,-165.0
6.0,-258.0,-84.0,-39.0,-9.0,-6.0,-65.0,-980.0,-171.0
3.0,-256.0,-86.0,-45.0,-11.0,-6.0,-68.0,-983.0,-171.0
5.0,-257.0,-81.0,-48.0,-12.0,-5.0,-64.0,-984.0,-169.0
3.0,-258.0,-83.0,-50.0,-12.0,-4.0,-67.0,-986.0,-165.0
3.0,-257.0,-86.0,-52.0,-12.0,-3.0,-64.0,-988.0,-160.0
6.0,-260.0,-85.0,-47.0,-10.0,-1.0,-62.0,-986.0,-158.0
3.0,-260.0,-77.0,-43.0,-10.0,0.0,-61.0,-982.0,-156.0
6.0,-257.0,-81.0,-38.0,-10.0,1.0,-61.0,-990.0,-158.0
4.0,-257.0,-79.0,-34.0,-12.0,3.0,-62.0,-985.0,-163.0
2.0,-256.0,-78.0,-34.0,-14.0,4.0,-63.0,-988.0,-166.0
4.0,-257.0,-80.0,-36.0,-15.0,6.0,-68.0,-986.0,-168.0
4.0,-259.0,-82.0,-40.0,-15.0,5.0,-67.0,-989.0,-169.0
6.0,-258.0,-81.0,-41.0,-13.0,3.0,-62.0,-994.0,-164.0
5.0,-258.0,-84.0,-41.0,-11.0,2.0,-59.0,-996.0,-154.0
6.0,-262.0,-82.0,-37.0,-9.0,0.0,-66.0,-990.0,-169.0
4.0,-259.0,-86.0,-28.0,-4.0,-1.0,-64.0,-995.0,-173.0
3.0,-258.0,-87.0,-22.0,0.0,-4.0,-66.0,-980.0,-180.0
3.0,-258.0,-89.0,-20.0,2.0,-6.0,-67.0,-982.0,-180.0
2.0,-258.0,-86.0,-25.0,5.0,-8.0,-72.0,-971.0,-183.0
2.0,-255.0,-84.0,-34.0,7.0,-9.0,-64.0,-976.0,-181.0
2.0,-255.0,-85.0,-47.0,6.0,-10.0,-69.0,-975.0,-175.0
3.0,-256.0,-83.0,-57.0,6.0,-11.0,-69.0,-975.0,-171.0
3.0,-258.0,-79.0,-65.0,6.0,-11.0,-69.0,-986.0,-166.0
1.0,-257.0,-79.0,-66.0,4.0,-11.0,-67.0,-988.0,-155.0
3.0,-263.0,-79.0,-61.0,0.0,-10.0,-76.0,-988.0,-156.0
1.0,-257.0,-79.0,-56.0,-2.0,-9.0,-73.0,-993.0,-156.0
2.0,-258.0,-81.0,-47.0,-4.0,-8.0,-73.0,-989.0,-164.0
4.0,-260.0,-80.0,-42.0,-7.0,-6.0,-69.0,-990.0,-163.0
4.0,-258.0,-79.0,-43.0,-7.0,-7.0,-67.0,-983.0,-159.0
3.0,-258.0,-84.0,-42.0,-8.0,-6.0,-62.0,-983.0,-166.0
3.0,-256.0,-79.0,-45.0,-7.0,-7.0,-65.0,-981.0,-162.0
5.0,-256.0,-80.0,-45.0,-6.0,-6.0,-64.0,-980.0,-163.0
4.0,-258.0,-80.0,-49.0,-7.0,-6.0,-63.0,-986.0,-160.0
4.0,-257.0,-82.0,-52.0,-5.0,-6.0,-62.0,-987.0,-166.0
3.0,-257.0,-82.0,-53.0,-3.0,-6.0,-63.0,-984.0,-163.0
5.0,-261.0,-80.0,-54.0,-4.0,-5.0,-66.0,-986.0,-166.0
1.0,-257.0,-82.0,-53.0,-7.0,-6.0,-63.0,-986.0,-164.0
1.0,-257.0,-78.0,-50.0,-6.0,-5.0,-70.0,-982.0,-167.0
4.0,-258.0,-81.0,-47.0,-6.0,-5.0,-68.0,-983.0,-163.0
3.0,-256.0,-83.0,-47.0,-7.0,-5.0,-68.0,-982.0,-171.0
2.0,-256.0,-82.0,-49.0,-8.0,-5.0,-65.0,-980.0,-172.0
5.0,-257.0,-84.0,-53.0,-7.0,-6.0,-66.0,-984.0,-171.0
3.0,-259.0,-85.0,-56.0,-5.0,-5.0,-68.0,-986.0,-170.0
3.0,-259.0,-85.0,-55.0,-2.0,-4.0,-72.0,-988.0,-168.0
2.0,-260.0,-80.0,-55.0,-2.0,-5.0,-70.0,-992.0,-169.0
2.0,-260.0,-82.0,-53.0,0.0,-3.0,-73.0,-992.0,-166.0
0.0,-259.0,-81.0,-49.0,1.0,-3.0,-74.0,-992.0,-174.0
3.0,-257.0,-83.0,-48.0,2.0,-3.0,-71.0,-988.0,-169.0
5.0,-257.0,-87.0,-50.0,4.0,-1.0,-75.0,-986.0,-172.0
2.0,-258.0,-80.0,-51.0,6.0,0.0,-65.0,-982.0,-170.0
3.0,-256.0,-83.0,-52.0,7.0,1.0,-65.0,-986.0,-175.0
7.0,-258.0,-82.0,-52.0,6.0,1.0,-67.0,-985.0,-170.0
2.0,-257.0,-80.0,-54.0,5.0,0.0,-68.0,-983.0,-169.0
2.0,-257.0,-80.0,-54.0,5.0,2.0,-65.0,-982.0,-168.0
3.0,-258.0,-82.0,-57.0,4.0,1.0,-69.0,-979.0,-170.0
3.0,-257.0,-82.0,-57.0,4.0,2.0,-64.0,-980.0,-170.0
2.0,-258.0,-84.0,-59.0,5.0,0.0,-66.0,-982.0,-168.0
4.0,-256.0,-81.0,-59.0,6.0,0.0,-65.0,-983.0,-170.0
6.0,-260.0,-82.0,-58.0,7.0,0.0,-69.0,-982.0,-169.0
2.0,-259.0,-81.0,-58.0,6.0,1.0,-66.0,-988.0,-173.0
5.0,-258.0,-83.0,-57.0,7.0,1.0,-69.0,-982.0,-172.0
3.0,-258.0,-84.0,-55.0,9.0,1.0,-66.0,-983.0,-174.0
2.0,-255.0,-84.0,-55.0,9.0,1.0,-63.0,-986.0,-173.0
1.0,-257.0,-80.0,-53.0,9.0,1.0,-68.0,-982.0,-177.0
5.0,-257.0,-84.0,-52.0,8.0,1.0,-69.0,-977.0,-170.0
4.0,-256.0,-80.0,-56.0,9.0,1.0,-71.0,-983.0,-175.0
4.0,-259.0,-79.0,-59.0,9.0,1.0,-67.0,-983.0,-173.0
3.0,-257.0,-82.0,-64.0,9.0,1.0,-68.0,-983.0,-173.0
3.0,-257.0,-80.0,-65.0,10.0,2.0,-71.0,-986.0,-172.0
2.0,-256.0,-84.0,-65.0,13.0,1.0,-70.0,-987.0,-175.0
3.0,-259.0,-85.0,-61.0,15.0,2.0,-73.0,-991.0,-173.0
1.0,-261.0,-82.0,-55.0,15.0,1.0,-71.0,-987.0,-179.0
0.0,-258.0,-82.0,-54.0,14.0,2.0,-68.0,-987.0,-174.0
3.0,-259.0,-83.0,-54.0,13.0,1.0,-71.0,-985.0,-178.0
3.0,-260.0,-81.0,-56.0,10.0,1.0,-73.0,-985.0,-174.0
4.0,-258.0,-83.0,-57.0,9.0,0.0,-73.0,-985.0,-173.0
3.0,-258.0,-80.0,-60.0,9.0,-1.0,-73.0,-982.0,-166.0
3.0,-258.0,-81.0,-62.0,8.0,-1.0,-78.0,-983.0,-169.0
0.0,-257.0,-81.0,-65.0,6.0,-1.0,-80.0,-982.0,-166.0
2.0,-257.0,-78.0,-65.0,2.0,0.0,-75.0,-981.0,-167.0
1.0,-254.0,-81.0,-65.0,0.0,0.0,-77.0,-986.0,-172.0
4.0,-257.0,-83.0,-64.0,-1.0,-1.0,-73.0,-986.0,-171.0
2.0,-257.0,-83.0,-61.0,1.0,-2.0,-70.0,-983.0,-172.0
0.0,-256.0,-82.0,-58.0,3.0,-1.0,-72.0,-985.0,-173.0
3.0,-256.0,-83.0,-59.0,5.0,-2.0,-68.0,-988.0,-175.0
3.0,-258.0,-81.0,-59.0,9.0,-3.0,-63.0,-984.0,-174.0
4.0,-257.0,-81.0,-62.0,13.0,-3.0,-66.0,-983.0,-175.0
4.0,-257.0,-81.0,-65.0,16.0,-5.0,-64.0,-985.0,-173.0
5.0,-258.0,-79.0,-66.0,18.0,-3.0,-63.0,-988.0,-170.0
2.0,-258.0,-86.0,-69.0,20.0,-5.0,-66.0,-984.0,-170.0
3.0,-256.0,-85.0,-67.0,21.0,-5.0,-69.0,-989.0,-170.0
2.0,-257.0,-85.0,-68.0,19.0,-5.0,-67.0,-981.0,-172.0
5.0,-258.0,-83.0,-68.0,18.0,-5.0,-72.0,-981.0,-173.0
2.0,-257.0,-83.0,-68.0,15.0,-4.0,-73.0,-982.0,-171.0
3.0,-258.0,-80.0,-70.0,13.0,-3.0,-70.0,-982.0,-174.0
3.0,-257.0,-87.0,-71.0,10.0,-3.0,-67.0,-987.0,-173.0
3.0,-260.0,-78.0,-70.0,9.0,-3.0,-70.0,-984.0,-170.0
3.0,-256.0,-83.0,-68.0,8.0,-3.0,-70.0,-984.0,-171.0
3.0,-258.0,-85.0,-65.0,9.0,-3.0,-66.0,-986.0,-174.0
9.0,-262.0,-80.0,-63.0,11.0,-4.0,-66.0,-983.0,-172.0
2.0,-255.0,-86.0,-62.0,11.0,-4.0,-63.0,-983.0,-173.0
4.0,-259.0,-83.0,-64.0,11.0,-4.0,-67.0,-985.0,-178.0
4.0,-256.0,-82.0,-66.0,13.0,-4.0,-66.0,-982.0,-174.0
2.0,-256.0,-87.0,-67.0,13.0,-3.0,-66.0,-978.0,-175.0
6.0,-258.0,-82.0,-69.0,13.0,-3.0,-66.0,-981.0,-173.0
5.0,-258.0,-85.0,-71.0,12.0,-2.0,-66.0,-979.0,-167.0
5.0,-255.0,-84.0,-73.0,12.0,-3.0,-63.0,-979.0,-165.0
4.0,-258.0,-83.0,-73.0,13.0,-1.0,-61.0,-981.0,-173.0
3.0,-257.0,-85.0,-73.0,15.0,-1.0,-65.0,-985.0,-176.0
5.0,-260.0,-84.0,-74.0,17.0,0.0,-66.0,-981.0,-176.0
1.0,-258.0,-84.0,-77.0,17.0,0.0,-70.0,-987.0,-174.0
2.0,-259.0,-84.0,-79.0,15.0,0.0,-71.0,-983.0,-172.0
3.0,-260.0,-84.0,-78.0,14.0,1.0,-71.0,-985.0,-176.0
2.0,-258.0,-81.0,-79.0,13.0,2.0,-67.0,-987.0,-174.0
3.0,-259.0,-81.0,-78.0,12.0,0.0,-69.0,-985.0,-179.0
3.0,-258.0,-83.0,-75.0,12.0,0.0,-68.0,-985.0,-174.0
5.0,-257.0,-83.0,-70.0,11.0,-1.0,-73.0,-985.0,-178.0
2.0,-258.0,-82.0,-67.0,11.0,-3.0,-70.0,-985.0,-175.0
3.0,-257.0,-85.0,-63.0,12.0,-3.0,-67.0,-976.0,-177.0
4.0,-257.0,-89.0,-64.0,13.0,-5.0,-68.0,-976.0,-178.0
4.0,-257.0,-88.0,-69.0,17.0,-4.0,-62.0,-979.0,-179.0
6.0,-256.0,-84.0,-76.0,19.0,-4.0,-62.0,-981.0,-177.0
5.0,-256.0,-86.0,-80.0,20.0,-5.0,-62.0,-982.0,-178.0
4.0,-259.0,-85.0,-84.0,22.0,-6.0,-63.0,-983.0,-176.0
5.0,-258.0,-81.0,-85.0,22.0,-5.0,-64.0,-983.0,-176.0
4.0,-257.0,-84.0,-80.0,21.0,-6.0,-59.0,-981.0,-168.0
6.0,-257.0,-79.0,-78.0,22.0,-4.0,-61.0,-984.0,-170.0
6.0,-258.0,-86.0,-74.0,22.0,-4.0,-67.0,-983.0,-176.0
2.0,-256.0,-86.0,-75.0,21.0,-4.0,-66.0,-981.0,-181.0
3.0,-257.0,-84.0,-77.0,19.0,-2.0,-65.0,-977.0,-177.0
4.0,-257.0,-85.0,-81.0,18.0,0.0,-68.0,-974.0,-179.0
4.0,-256.0,-84.0,-85.0,17.0,-1.0,-70.0,-981.0,-179.0
7.0,-257.0,-87.0,-89.0,14.0,-1.0,-64.0,-981.0,-182.0
4.0,-259.0,-80.0,-87.0,14.0,-1.0,-67.0,-984.0,-183.0
3.0,-259.0,-91.0,-85.0,15.0,-4.0,-65.0,-991.0,-182.0
5.0,-263.0,-89.0,-80.0,20.0,-6.0,-69.0,-994.0,-186.0
3.0,-258.0,-86.0,-70.0,23.0,-6.0,-62.0,-989.0,-186.0
3.0,-253.0,-87.0,-61.0,27.0,-8.0,-67.0,-987.0,-190.0
5.0,-260.0,-87.0,-58.0,32.0,-9.0,-66.0,-982.0,-191.0
3.0,-257.0,-87.0,-59.0,34.0,-9.0,-63.0,-983.0,-189.0
5.0,-257.0,-85.0,-65.0,34.0,-10.0,-65.0,-983.0,-183.0
4.0,-256.0,-84.0,-75.0,35.0,-11.0,-63.0,-981.0,-182.0
2.0,-255.0,-83.0,-82.0,36.0,-12.0,-70.0,-982.0,-175.0
3.0,-258.0,-80.0,-84.0,36.0,-11.0,-64.0,-984.0,-173.0
3.0,-261.0,-77.0,-83.0,36.0,-11.0,-66.0,-984.0,-170.0
6.0,-258.0,-82.0,-78.0,35.0,-10.0,-67.0,-986.0,-169.0
3.0,-257.0,-86.0,-69.0,36.0,-10.0,-64.0,-990.0,-171.0
3.0,-257.0,-83.0,-64.0,37.0,-8.0,-64.0,-987.0,-179.0
5.0,-258.0,-87.0,-61.0,35.0,-6.0,-65.0,-986.0,-176.0
4.0,-257.0,-83.0,-58.0,37.0,-7.0,-68.0,-978.0,-177.0
1.0,-254.0,-86.0,-60.0,35.0,-6.0,-65.0,-982.0,-176.0
4.0,-256.0,-89.0,-60.0,34.0,-5.0,-64.0,-974.0,-180.0
2.0,-258.0,-84.0,-63.0,31.0,-5.0,-62.0,-978.0,-179.0
5.0,-256.0,-84.0,-66.0,29.0,-7.0,-67.0,-983.0,-180.0
3.0,-260.0,-82.0,-67.0,27.0,-7.0,-67.0,-981.0,-175.0
2.0,-256.0,-85.0,-68.0,24.0,-7.0,-73.0,-977.0,-180.0
3.0,-259.0,-82.0,-68.0,23.0,-7.0,-69.0,-986.0,-181.0
1.0,-257.0,-82.0,-65.0,19.0,-5.0,-69.0,-988.0,-181.0
2.0,-256.0,-84.0,-62.0,18.0,-4.0,-67.0,-988.0,-180.0
2.0,-258.0,-87.0,-60.0,20.0,-5.0,-72.0,-984.0,-180.0
2.0,-259.0,-87.0,-56.0,21.0,-5.0,-68.0,-986.0,-182.0
3.0,-259.0,-83.0,-53.0,22.0,-4.0,-71.0,-982.0,-185.0
3.0,-258.0,-88.0,-55.0,23.0,-5.0,-70.0,-982.0,-182.0
2.0,-257.0,-84.0,-56.0,25.0,-4.0,-69.0,-983.0,-188.0
1.0,-256.0,-86.0,-57.0,24.0,-4.0,-69.0,-983.0,-182.0
