acc1_x,acc1_y,acc1_z,gyro_x,gyro_y,gyro_z,acc2_x,acc2_y,acc2_z
32.0,-253.0,32.0,-36.0,13.0,-3.0,37.0,-958.0,276.0
31.0,-250.0,33.0,-37.0,14.0,-3.0,35.0,-963.0,270.0
34.0,-250.0,29.0,-39.0,14.0,-2.0,45.0,-961.0,272.0
32.0,-253.0,28.0,-42.0,15.0,-3.0,44.0,-961.0,273.0
34.0,-253.0,29.0,-45.0,14.0,-1.0,43.0,-962.0,273.0
36.0,-254.0,32.0,-45.0,12.0,-1.0,45.0,-961.0,272.0
32.0,-255.0,27.0,-44.0,9.0,-3.0,45.0,-964.0,281.0
34.0,-255.0,33.0,-41.0,7.0,-2.0,40.0,-962.0,283.0
31.0,-252.0,30.0,-39.0,8.0,-3.0,37.0,-966.0,279.0
31.0,-251.0,28.0,-38.0,9.0,-3.0,38.0,-965.0,279.0
32.0,-250.0,35.0,-36.0,12.0,-3.0,39.0,-965.0,280.0
28.0,-249.0,31.0,-34.0,16.0,-3.0,36.0,-964.0,275.0
25.0,-251.0,28.0,-33.0,17.0,-4.0,37.0,-964.0,279.0
32.0,-252.0,31.0,-34.0,17.0,-3.0,33.0,-960.0,275.0
29.0,-252.0,29.0,-34.0,18.0,-3.0,35.0,-962.0,276.0
30.0,-250.0,34.0,-37.0,17.0,-2.0,33.0,-961.0,273.0
30.0,-250.0,28.0,-38.0,19.0,-2.0,33.0,-959.0,278.0
29.0,-250.0,26.0,-39.0,18.0,-2.0,39.0,-955.0,278.0
33.0,-251.0,30.0,-40.0,15.0,-3.0,38.0,-959.0,278.0
32.0,-249.0,29.0,-42.0,12.0,-2.0,36.0,-958.0,277.0
31.0,-254.0,31.0,-43.0,12.0,-2.0,41.0,-958.0,284.0
31.0,-251.0,28.0,-43.0,13.0,-3.0,45.0,-958.0,279.0
29.0,-252.0,32.0,-41.0,15.0,-3.0,35.0,-964.0,279.0
31.0,-255.0,33.0,-38.0,15.0,-3.0,41.0,-956.0,282.0
34.0,-250.0,29.0,-37.0,14.0,-5.0,38.0,-962.0,281.0
29.0,-250.0,34.0,-35.0,16.0,-4.0,37.0,-961.0,283.0
32.0,-253.0,28.0,-34.0,15.0,-4.0,42.0,-960.0,277.0
29.0,-250.0,30.0,-37.0,16.0,-4.0,39.0,-960.0,280.0
32.0,-252.0,28.0,-37.0,19.0,-5.0,40.0,-959.0,288.0
31.0,-250.0,29.0,-37.0,20.0,-5.0,43.0,-959.0,281.0
31.0,-247.0,32.0,-35.0,21.0,-5.0,41.0,-963.0,279.0
30.0,-252.0,36.0,-35.0,19.0,-5.0,37.0,-960.0,284.0
27.0,-248.0,27.0,-36.0,20.0,-5.0,35.0,-960.0,279.0
31.0,-253.0,34.0,-39.0,20.0,-6.0,37.0,-958.0,282.0
28.0,-251.0,30.0,-38.0,20.0,-6.0,32.0,-964.0,283.0
29.0,-250.0,33.0,-37.0,19.0,-6.0,37.0,-964.0,288.0
30.0,-251.0,29.0,-33.0,16.0,-5.0,38.0,-961.0,285.0
30.0,-250.0,30.0,-33.0,14.0,-6.0,36.0,-961.0,284.0
29.0,-250.0,27.0,-32.0,13.0,-4.0,36.0,-958.0,284.0
31.0,-254.0,32.0,-34.0,13.0,-5.0,34.0,-963.0,281.0
30.0,-251.0,31.0,-34.0,13.0,-4.0,30.0,-967.0,281.0
31.0,-253.0,31.0,-35.0,13.0,-4.0,33.0,-957.0,282.0
29.0,-249.0,34.0,-34.0,13.0,-5.0,36.0,-959.0,281.0
34.0,-255.0,35.0,-34.0,14.0,-6.0,42.0,-970.0,284.0
30.0,-251.0,33.0,-38.0,13.0,-10.0,42.0,-954.0,288.0
30.0,-248.0,32.0,-35.0,16.0,-5.0,42.0,-946.0,291.0
32.0,-251.0,31.0,-29.0,21.0,-1.0,43.0,-958.0,279.0
31.0,-252.0,33.0,-30.0,23.0,-2.0,42.0,-964.0,273.0
28.0,-251.0,34.0,-32.0,22.0,-7.0,41.0,-967.0,280.0
30.0,-251.0,29.0,-33.0,20.0,-7.0,39.0,-963.0,281.0
29.0,-251.0,32.0,-27.0,19.0,-7.0,37.0,-964.0,277.0
33.0,-252.0,32.0,-24.0,19.0,-7.0,42.0,-960.0,281.0
29.0,-252.0,31.0,-24.0,18.0,-7.0,37.0,-962.0,281.0
31.0,-251.0,31.0,-22.0,17.0,-4.0,38.0,-962.0,280.0
30.0,-251.0,27.0,-21.0,17.0,-3.0,37.0,-964.0,284.0
32.0,-251.0,32.0,-19.0,16.0,-5.0,42.0,-956.0,277.0
24.0,-251.0,30.0,-23.0,16.0,-5.0,27.0,-960.0,276.0
30.0,-253.0,30.0,-25.0,14.0,-6.0,30.0,-960.0,279.0
28.0,-251.0,29.0,-27.0,13.0,-4.0,30.0,-961.0,278.0
30.0,-252.0,30.0,-28.0,14.0,-3.0,33.0,-967.0,279.0
29.0,-253.0,30.0,-28.0,18.0,-2.0,31.0,-971.0,284.0
32.0,-254.0,29.0,-22.0,17.0,-2.0,37.0,-965.0,289.0
31.0,-251.0,31.0,-16.0,16.0,-1.0,36.0,-959.0,282.0
29.0,-249.0,29.0,-9.0,15.0,-4.0,25.0,-961.0,284.0
29.0,-253.0,29.0,0.0,12.0,-5.0,29.0,-963.0,276.0
29.0,-251.0,27.0,3.0,6.0,-4.0,36.0,-964.0,278.0
30.0,-254.0,29.0,7.0,3.0,-6.0,32.0,-975.0,273.0
33.0,-254.0,28.0,7.0,4.0,-8.0,46.0,-979.0,278.0
31.0,-249.0,28.0,7.0,4.0,-8.0,46.0,-962.0,280.0
36.0,-250.0,29.0,10.0,4.0,-7.0,53.0,-954.0,286.0
34.0,-252.0,30.0,11.0,5.0,-8.0,42.0,-957.0,280.0
31.0,-250.0,29.0,3.0,7.0,-10.0,48.0,-958.0,280.0
33.0,-249.0,32.0,-7.0,8.0,-12.0,48.0,-958.0,281.0
34.0,-251.0,34.0,-15.0,8.0,-16.0,49.0,-963.0,283.0
30.0,-251.0,33.0,-19.0,14.0,-16.0,36.0,-956.0,289.0
31.0,-253.0,30.0,-19.0,20.0,-14.0,37.0,-957.0,283.0
32.0,-253.0,32.0,-16.0,21.0,-11.0,36.0,-961.0,281.0
33.0,-252.0,28.0,-18.0,25.0,-10.0,40.0,-966.0,280.0
31.0,-251.0,32.0,-20.0,25.0,-11.0,33.0,-970.0,286.0
30.0,-251.0,29.0,-21.0,24.0,-10.0,33.0,-967.0,287.0
30.0,-254.0,30.0,-18.0,24.0,-10.0,29.0,-969.0,284.0
32.0,-254.0,30.0,-15.0,22.0,-8.0,34.0,-973.0,285.0
36.0,-254.0,32.0,-12.0,20.0,-4.0,51.0,-963.0,287.0
29.0,-251.0,32.0,-8.0,23.0,-5.0,35.0,-956.0,283.0
27.0,-247.0,31.0,-6.0,23.0,-4.0,23.0,-958.0,282.0
31.0,-250.0,32.0,-4.0,17.0,-7.0,38.0,-957.0,278.0
31.0,-246.0,31.0,-2.0,16.0,-8.0,34.0,-959.0,275.0
30.0,-253.0,31.0,-2.0,19.0,-9.0,30.0,-956.0,277.0
29.0,-252.0,31.0,0.0,16.0,-8.0,43.0,-966.0,283.0
28.0,-254.0,35.0,0.0,16.0,-10.0,38.0,-964.0,289.0
30.0,-248.0,33.0,1.0,17.0,-7.0,40.0,-958.0,292.0
29.0,-248.0,37.0,2.0,16.0,-6.0,42.0,-950.0,291.0
32.0,-250.0,35.0,2.0,14.0,-5.0,42.0,-954.0,290.0
29.0,-247.0,34.0,-4.0,10.0,-6.0,39.0,-957.0,292.0
30.0,-249.0,34.0,-8.0,6.0,-5.0,40.0,-954.0,296.0
32.0,-251.0,33.0,-10.0,2.0,-4.0,41.0,-962.0,297.0
31.0,-246.0,34.0,-8.0,-1.0,-1.0,51.0,-955.0,294.0
31.0,-249.0,30.0,-8.0,3.0,-1.0,38.0,-948.0,297.0
32.0,-251.0,38.0,-9.0,7.0,-1.0,40.0,-954.0,299.0
33.0,-251.0,37.0,-9.0,11.0,-2.0,48.0,-956.0,308.0
36.0,-252.0,34.0,-7.0,13.0,-3.0,42.0,-956.0,299.0
29.0,-252.0,37.0,-7.0,14.0,-4.0,45.0,-958.0,294.0
33.0,-252.0,38.0,-8.0,14.0,-5.0,43.0,-959.0,301.0
32.0,-249.0,35.0,-10.0,14.0,-6.0,46.0,-957.0,298.0
34.0,-248.0,31.0,-11.0,13.0,-6.0,47.0,-960.0,296.0
31.0,-251.0,37.0,-11.0,14.0,-8.0,42.0,-960.0,304.0
33.0,-253.0,37.0,-15.0,13.0,-9.0,39.0,-958.0,296.0
32.0,-255.0,38.0,-17.0,11.0,-9.0,44.0,-960.0,295.0
31.0,-254.0,34.0,-17.0,8.0,-9.0,45.0,-959.0,295.0
31.0,-252.0,34.0,-18.0,3.0,-11.0,39.0,-963.0,289.0
33.0,-250.0,35.0,-18.0,1.0,-9.0,39.0,-955.0,291.0
33.0,-251.0,32.0,-16.0,-1.0,-9.0,39.0,-959.0,286.0
29.0,-251.0,33.0,-17.0,-3.0,-11.0,36.0,-964.0,288.0
29.0,-252.0,34.0,-15.0,-2.0,-10.0,34.0,-964.0,293.0
30.0,-252.0,32.0,-15.0,-2.0,-12.0,41.0,-964.0,293.0
29.0,-249.0,33.0,-13.0,-1.0,-11.0,45.0,-961.0,292.0
32.0,-251.0,34.0,-14.0,1.0,-12.0,49.0,-956.0,295.0
30.0,-249.0,36.0,-14.0,2.0,-13.0,42.0,-953.0,294.0
28.0,-253.0,36.0,-11.0,5.0,-15.0,38.0,-954.0,297.0
31.0,-249.0,35.0,-4.0,1.0,-16.0,47.0,-949.0,290.0
29.0,-251.0,34.0,0.0,-3.0,-20.0,37.0,-953.0,293.0
33.0,-251.0,33.0,3.0,-6.0,-23.0,47.0,-957.0,292.0
34.0,-252.0,32.0,7.0,-8.0,-26.0,47.0,-956.0,296.0
32.0,-251.0,37.0,10.0,-7.0,-30.0,36.0,-957.0,303.0
28.0,-248.0,37.0,18.0,-9.0,-35.0,25.0,-952.0,301.0
27.0,-251.0,39.0,23.0,-9.0,-34.0,20.0,-959.0,297.0
29.0,-249.0,35.0,31.0,-8.0,-28.0,38.0,-957.0,298.0
35.0,-251.0,31.0,37.0,-4.0,-25.0,45.0,-952.0,298.0
37.0,-244.0,36.0,38.0,2.0,-22.0,49.0,-948.0,299.0
30.0,-247.0,32.0,36.0,6.0,-26.0,41.0,-945.0,295.0
30.0,-250.0,32.0,35.0,4.0,-27.0,39.0,-951.0,295.0
28.0,-248.0,33.0,32.0,-3.0,-26.0,42.0,-952.0,296.0
30.0,-250.0,36.0,27.0,-12.0,-26.0,39.0,-958.0,293.0
32.0,-249.0,35.0,24.0,-17.0,-25.0,42.0,-957.0,294.0
31.0,-250.0,34.0,21.0,-15.0,-26.0,39.0,-960.0,300.0
31.0,-251.0,35.0,21.0,-13.0,-21.0,36.0,-965.0,296.0
37.0,-252.0,37.0,15.0,-6.0,-15.0,48.0,-964.0,303.0
33.0,-251.0,35.0,9.0,5.0,-13.0,51.0,-958.0,304.0
35.0,-251.0,35.0,2.0,16.0,-13.0,49.0,-956.0,314.0
31.0,-249.0,38.0,-4.0,21.0,-13.0,43.0,-947.0,302.0
33.0,-250.0,30.0,-10.0,24.0,-12.0,51.0,-948.0,297.0
34.0,-248.0,38.0,-14.0,27.0,-10.0,52.0,-952.0,298.0
34.0,-247.0,37.0,-21.0,30.0,-9.0,49.0,-946.0,302.0
29.0,-247.0,38.0,-31.0,32.0,-9.0,48.0,-952.0,306.0
32.0,-251.0,37.0,-38.0,31.0,-10.0,50.0,-953.0,306.0
35.0,-253.0,35.0,-41.0,30.0,-9.0,47.0,-960.0,309.0
35.0,-252.0,43.0,-41.0,33.0,-10.0,52.0,-962.0,312.0
37.0,-253.0,42.0,-38.0,35.0,-9.0,57.0,-956.0,312.0
29.0,-251.0,35.0,-38.0,38.0,-12.0,45.0,-951.0,311.0
29.0,-250.0,40.0,-34.0,35.0,-14.0,36.0,-954.0,311.0
33.0,-251.0,40.0,-30.0,26.0,-16.0,42.0,-953.0,308.0
31.0,-252.0,38.0,-25.0,19.0,-14.0,42.0,-959.0,303.0
34.0,-251.0,37.0,-24.0,16.0,-14.0,47.0,-955.0,309.0
32.0,-247.0,37.0,-27.0,18.0,-14.0,49.0,-949.0,315.0
31.0,-250.0,40.0,-32.0,22.0,-15.0,31.0,-956.0,311.0
29.0,-248.0,34.0,-42.0,22.0,-19.0,30.0,-952.0,313.0
31.0,-251.0,40.0,-49.0,16.0,-24.0,38.0,-954.0,310.0
32.0,-253.0,40.0,-54.0,13.0,-32.0,38.0,-960.0,308.0
32.0,-254.0,39.0,-60.0,9.0,-38.0,37.0,-961.0,312.0
33.0,-253.0,40.0,-67.0,7.0,-46.0,35.0,-958.0,311.0
29.0,-252.0,41.0,-70.0,9.0,-52.0,45.0,-964.0,309.0
32.0,-253.0,34.0,-73.0,11.0,-53.0,43.0,-964.0,296.0
41.0,-252.0,30.0,-73.0,17.0,-56.0,79.0,-964.0,294.0
47.0,-252.0,29.0,-72.0,27.0,-58.0,94.0,-963.0,286.0
43.0,-252.0,29.0,-70.0,45.0,-65.0,81.0,-960.0,288.0
36.0,-250.0,34.0,-68.0,55.0,-75.0,58.0,-952.0,284.0
27.0,-247.0,37.0,-64.0,58.0,-76.0,25.0,-940.0,285.0
27.0,-244.0,33.0,-60.0,56.0,-70.0,21.0,-936.0,293.0
29.0,-242.0,36.0,-54.0,47.0,-63.0,34.0,-933.0,295.0
28.0,-240.0,34.0,-51.0,38.0,-57.0,32.0,-924.0,303.0
21.0,-241.0,37.0,-47.0,26.0,-51.0,18.0,-926.0,313.0
28.0,-245.0,40.0,-46.0,12.0,-40.0,22.0,-935.0,313.0
35.0,-243.0,39.0,-44.0,-3.0,-32.0,45.0,-934.0,310.0
30.0,-245.0,42.0,-44.0,-9.0,-25.0,36.0,-949.0,315.0
31.0,-250.0,43.0,-45.0,-9.0,-22.0,37.0,-954.0,317.0
30.0,-252.0,40.0,-46.0,-10.0,-18.0,37.0,-956.0,319.0
32.0,-253.0,41.0,-43.0,-13.0,-15.0,45.0,-962.0,311.0
31.0,-252.0,37.0,-39.0,-15.0,-11.0,42.0,-967.0,310.0
31.0,-253.0,38.0,-35.0,-15.0,-8.0,46.0,-964.0,308.0
35.0,-252.0,36.0,-31.0,-16.0,-6.0,56.0,-960.0,304.0
39.0,-253.0,31.0,-30.0,-16.0,-4.0,69.0,-958.0,293.0
43.0,-250.0,34.0,-30.0,-12.0,-1.0,74.0,-953.0,292.0
40.0,-246.0,34.0,-32.0,-6.0,0.0,72.0,-954.0,290.0
39.0,-251.0,32.0,-34.0,-1.0,2.0,72.0,-944.0,291.0
39.0,-249.0,35.0,-35.0,1.0,3.0,64.0,-947.0,284.0
34.0,-250.0,32.0,-31.0,3.0,3.0,55.0,-950.0,287.0
34.0,-250.0,34.0,-29.0,3.0,4.0,52.0,-952.0,286.0
34.0,-250.0,35.0,-23.0,-2.0,4.0,47.0,-953.0,286.0
35.0,-249.0,36.0,-20.0,-3.0,5.0,53.0,-960.0,289.0
35.0,-247.0,35.0,-21.0,-1.0,4.0,53.0,-945.0,293.0
33.0,-247.0,35.0,-25.0,0.0,0.0,48.0,-950.0,297.0
34.0,-253.0,37.0,-31.0,1.0,-3.0,41.0,-954.0,301.0
33.0,-249.0,41.0,-38.0,-1.0,-5.0,46.0,-959.0,307.0
28.0,-250.0,35.0,-45.0,-1.0,-4.0,40.0,-964.0,311.0
31.0,-250.0,32.0,-48.0,3.0,-6.0,38.0,-964.0,311.0
33.0,-253.0,40.0,-46.0,7.0,-7.0,45.0,-970.0,318.0
33.0,-252.0,40.0,-42.0,13.0,-8.0,47.0,-968.0,311.0
33.0,-252.0,36.0,-35.0,19.0,-8.0,38.0,-966.0,311.0
33.0,-249.0,35.0,-31.0,23.0,-3.0,43.0,-954.0,309.0
34.0,-252.0,41.0,-30.0,23.0,1.0,55.0,-954.0,303.0
33.0,-249.0,38.0,-32.0,26.0,3.0,60.0,-953.0,293.0
35.0,-249.0,38.0,-37.0,27.0,6.0,60.0,-952.0,294.0
36.0,-251.0,39.0,-41.0,28.0,10.0,59.0,-955.0,293.0
40.0,-252.0,33.0,-42.0,28.0,13.0,61.0,-954.0,298.0
36.0,-247.0,35.0,-42.0,24.0,15.0,54.0,-951.0,297.0
36.0,-251.0,37.0,-37.0,21.0,13.0,61.0,-948.0,300.0
35.0,-249.0,36.0,-33.0,17.0,13.0,53.0,-951.0,303.0
37.0,-250.0,35.0,-30.0,13.0,14.0,58.0,-958.0,304.0
36.0,-251.0,41.0,-30.0,11.0,15.0,63.0,-960.0,310.0
33.0,-252.0,42.0,-27.0,12.0,13.0,57.0,-962.0,313.0
36.0,-250.0,37.0,-26.0,11.0,12.0,63.0,-963.0,316.0
35.0,-250.0,38.0,-25.0,14.0,11.0,59.0,-953.0,316.0
35.0,-251.0,36.0,-24.0,19.0,8.0,47.0,-957.0,314.0
34.0,-250.0,40.0,-24.0,25.0,7.0,49.0,-959.0,310.0
37.0,-249.0,38.0,-22.0,30.0,7.0,51.0,-963.0,311.0
33.0,-249.0,42.0,-20.0,34.0,8.0,50.0,-961.0,308.0
31.0,-249.0,40.0,-16.0,36.0,7.0,48.0,-954.0,304.0
33.0,-250.0,39.0,-14.0,40.0,8.0,48.0,-950.0,310.0
33.0,-250.0,37.0,-12.0,42.0,4.0,46.0,-946.0,312.0
33.0,-248.0,38.0,-8.0,42.0,3.0,45.0,-951.0,312.0
30.0,-252.0,42.0,-4.0,39.0,2.0,44.0,-954.0,312.0
31.0,-251.0,40.0,-1.0,38.0,1.0,45.0,-959.0,311.0
31.0,-249.0,40.0,-2.0,37.0,-1.0,49.0,-951.0,315.0
32.0,-251.0,41.0,-2.0,36.0,-7.0,51.0,-953.0,311.0
34.0,-250.0,35.0,-1.0,36.0,-8.0,46.0,-958.0,314.0
31.0,-249.0,39.0,-2.0,36.0,-8.0,50.0,-962.0,310.0
33.0,-252.0,40.0,-6.0,38.0,-8.0,53.0,-956.0,314.0
33.0,-248.0,46.0,-4.0,39.0,-13.0,49.0,-955.0,311.0
32.0,-249.0,39.0,-5.0,41.0,-14.0,46.0,-960.0,316.0
49.0,-226.0,23.0,-10.0,41.0,-12.0,48.0,-957.0,317.0
30.0,-254.0,43.0,-12.0,42.0,-8.0,55.0,-955.0,316.0
39.0,-249.0,42.0,-11.0,45.0,-8.0,53.0,-951.0,316.0
34.0,-247.0,39.0,-10.0,46.0,-10.0,58.0,-945.0,315.0
37.0,-250.0,42.0,-8.0,44.0,-13.0,57.0,-949.0,317.0
36.0,-250.0,37.0,-10.0,42.0,-19.0,53.0,-955.0,314.0
38.0,-251.0,40.0,-11.0,41.0,-20.0,54.0,-961.0,311.0
34.0,-248.0,37.0,-10.0,43.0,-24.0,54.0,-960.0,309.0
30.0,-251.0,43.0,-10.0,44.0,-24.0,52.0,-964.0,313.0
36.0,-253.0,40.0,-8.0,45.0,-27.0,54.0,-955.0,320.0
36.0,-248.0,42.0,0.0,46.0,-27.0,56.0,-955.0,310.0
34.0,-250.0,40.0,6.0,52.0,-29.0,53.0,-948.0,316.0
31.0,-247.0,43.0,14.0,56.0,-30.0,50.0,-945.0,311.0
33.0,-247.0,40.0,19.0,59.0,-31.0,53.0,-945.0,311.0
33.0,-244.0,42.0,21.0,60.0,-37.0,44.0,-944.0,318.0
34.0,-246.0,35.0,19.0,58.0,-36.0,57.0,-947.0,307.0
39.0,-249.0,38.0,16.0,60.0,-35.0,76.0,-946.0,302.0
48.0,-251.0,36.0,14.0,65.0,-37.0,86.0,-956.0,298.0
47.0,-253.0,36.0,16.0,79.0,-39.0,92.0,-963.0,296.0
50.0,-254.0,36.0,28.0,99.0,-37.0,103.0,-967.0,294.0
44.0,-256.0,36.0,48.0,123.0,-35.0,86.0,-968.0,306.0
30.0,-254.0,43.0,72.0,139.0,-49.0,31.0,-961.0,318.0
31.0,-247.0,39.0,92.0,134.0,-55.0,38.0,-949.0,319.0
31.0,-247.0,42.0,102.0,121.0,-56.0,43.0,-937.0,317.0
31.0,-242.0,44.0,101.0,116.0,-59.0,38.0,-934.0,322.0
25.0,-244.0,43.0,96.0,108.0,-61.0,22.0,-928.0,322.0
26.0,-242.0,39.0,89.0,101.0,-59.0,35.0,-934.0,322.0
28.0,-240.0,41.0,79.0,91.0,-58.0,27.0,-929.0,319.0
29.0,-240.0,43.0,65.0,84.0,-56.0,31.0,-932.0,323.0
29.0,-243.0,43.0,53.0,80.0,-54.0,30.0,-936.0,319.0
29.0,-241.0,39.0,43.0,77.0,-53.0,32.0,-940.0,319.0
31.0,-245.0,42.0,36.0,79.0,-54.0,35.0,-938.0,321.0
33.0,-248.0,39.0,28.0,81.0,-57.0,36.0,-938.0,316.0
27.0,-247.0,41.0,21.0,81.0,-57.0,28.0,-943.0,318.0
30.0,-247.0,42.0,17.0,78.0,-58.0,36.0,-939.0,312.0
26.0,-245.0,39.0,12.0,73.0,-53.0,26.0,-947.0,310.0
34.0,-247.0,40.0,8.0,66.0,-51.0,49.0,-950.0,318.0
44.0,-248.0,44.0,5.0,61.0,-51.0,87.0,-944.0,319.0
41.0,-244.0,45.0,-2.0,64.0,-51.0,82.0,-941.0,319.0
37.0,-247.0,49.0,-10.0,69.0,-55.0,69.0,-945.0,324.0
37.0,-246.0,48.0,-13.0,70.0,-56.0,56.0,-944.0,337.0
37.0,-248.0,43.0,-15.0,69.0,-53.0,59.0,-942.0,335.0
37.0,-243.0,44.0,-17.0,71.0,-51.0,66.0,-941.0,330.0
35.0,-247.0,47.0,-19.0,75.0,-52.0,59.0,-941.0,331.0
30.0,-245.0,46.0,-18.0,77.0,-49.0,38.0,-946.0,336.0
32.0,-247.0,46.0,-14.0,77.0,-47.0,36.0,-945.0,339.0
27.0,-246.0,48.0,-11.0,76.0,-45.0,35.0,-945.0,336.0
25.0,-245.0,44.0,-14.0,77.0,-43.0,31.0,-943.0,335.0
27.0,-246.0,48.0,-17.0,80.0,-41.0,31.0,-941.0,340.0
24.0,-246.0,48.0,-17.0,80.0,-40.0,32.0,-944.0,340.0
36.0,-247.0,47.0,-16.0,78.0,-42.0,52.0,-954.0,342.0
33.0,-249.0,46.0,-16.0,70.0,-50.0,61.0,-958.0,340.0
30.0,-250.0,47.0,-16.0,64.0,-56.0,39.0,-949.0,327.0
35.0,-250.0,44.0,-17.0,58.0,-58.0,49.0,-950.0,332.0
39.0,-246.0,43.0,-18.0,51.0,-60.0,58.0,-952.0,323.0
34.0,-246.0,45.0,-17.0,49.0,-63.0,59.0,-945.0,324.0
35.0,-246.0,47.0,-16.0,47.0,-67.0,57.0,-940.0,321.0
33.0,-243.0,41.0,-18.0,50.0,-69.0,49.0,-936.0,319.0
34.0,-241.0,39.0,-20.0,58.0,-65.0,45.0,-936.0,312.0
35.0,-241.0,41.0,-26.0,63.0,-65.0,52.0,-934.0,322.0
35.0,-243.0,42.0,-36.0,62.0,-70.0,53.0,-933.0,330.0
34.0,-240.0,41.0,-41.0,62.0,-74.0,48.0,-933.0,326.0
32.0,-244.0,43.0,-42.0,64.0,-76.0,37.0,-932.0,327.0
28.0,-240.0,38.0,-44.0,67.0,-80.0,35.0,-929.0,324.0
34.0,-242.0,39.0,-47.0,68.0,-79.0,49.0,-935.0,321.0
32.0,-244.0,50.0,-52.0,71.0,-81.0,43.0,-934.0,325.0
32.0,-244.0,45.0,-57.0,71.0,-82.0,46.0,-933.0,333.0
32.0,-247.0,41.0,-60.0,70.0,-84.0,49.0,-941.0,343.0
36.0,-246.0,47.0,-59.0,66.0,-85.0,52.0,-944.0,342.0
35.0,-249.0,48.0,-54.0,61.0,-89.0,43.0,-949.0,339.0
33.0,-249.0,51.0,-49.0,58.0,-91.0,51.0,-946.0,340.0
31.0,-249.0,41.0,-44.0,55.0,-96.0,43.0,-949.0,334.0
32.0,-247.0,46.0,-41.0,54.0,-97.0,45.0,-950.0,329.0
32.0,-247.0,42.0,-44.0,55.0,-95.0,49.0,-946.0,325.0
31.0,-246.0,40.0,-46.0,55.0,-95.0,42.0,-942.0,323.0
34.0,-245.0,48.0,-44.0,54.0,-95.0,45.0,-941.0,330.0
33.0,-248.0,44.0,-40.0,50.0,-97.0,47.0,-937.0,332.0
33.0,-244.0,51.0,-40.0,45.0,-98.0,47.0,-941.0,336.0
32.0,-244.0,43.0,-40.0,42.0,-97.0,48.0,-945.0,334.0
35.0,-244.0,45.0,-46.0,38.0,-95.0,49.0,-940.0,327.0
35.0,-246.0,45.0,-53.0,39.0,-93.0,44.0,-938.0,331.0
34.0,-244.0,43.0,-63.0,43.0,-91.0,50.0,-944.0,333.0
36.0,-247.0,43.0,-71.0,47.0,-88.0,46.0,-941.0,328.0
34.0,-246.0,42.0,-79.0,49.0,-89.0,47.0,-951.0,321.0
33.0,-249.0,45.0,-83.0,47.0,-90.0,48.0,-946.0,328.0
35.0,-248.0,43.0,-86.0,44.0,-92.0,54.0,-950.0,326.0
34.0,-250.0,42.0,-87.0,40.0,-94.0,47.0,-950.0,331.0
31.0,-250.0,40.0,-87.0,36.0,-96.0,40.0,-953.0,321.0
33.0,-249.0,43.0,-88.0,34.0,-95.0,46.0,-953.0,323.0
32.0,-247.0,42.0,-89.0,33.0,-96.0,54.0,-949.0,320.0
34.0,-251.0,41.0,-91.0,31.0,-94.0,51.0,-951.0,322.0
35.0,-247.0,47.0,-94.0,33.0,-95.0,57.0,-949.0,321.0
33.0,-245.0,46.0,-98.0,35.0,-93.0,49.0,-943.0,328.0
32.0,-244.0,46.0,-100.0,34.0,-93.0,45.0,-949.0,328.0
33.0,-242.0,45.0,-99.0,30.0,-92.0,51.0,-940.0,338.0
36.0,-245.0,45.0,-97.0,27.0,-93.0,57.0,-944.0,334.0
36.0,-243.0,44.0,-93.0,21.0,-93.0,59.0,-939.0,334.0
32.0,-243.0,44.0,-88.0,15.0,-94.0,54.0,-940.0,324.0
40.0,-249.0,42.0,-84.0,11.0,-93.0,63.0,-945.0,327.0
35.0,-247.0,42.0,-82.0,6.0,-92.0,61.0,-941.0,324.0
37.0,-245.0,45.0,-80.0,4.0,-93.0,62.0,-943.0,325.0
39.0,-245.0,42.0,-78.0,4.0,-91.0,77.0,-939.0,325.0
43.0,-246.0,46.0,-78.0,3.0,-94.0,84.0,-937.0,321.0
43.0,-247.0,42.0,-77.0,4.0,-95.0,86.0,-946.0,321.0
44.0,-246.0,39.0,-78.0,2.0,-94.0,80.0,-938.0,324.0
43.0,-246.0,42.0,-76.0,1.0,-93.0,87.0,-942.0,326.0
44.0,-243.0,40.0,-75.0,-1.0,-91.0,93.0,-942.0,325.0
45.0,-247.0,41.0,-75.0,0.0,-90.0,90.0,-944.0,322.0
45.0,-247.0,43.0,-78.0,2.0,-88.0,97.0,-946.0,325.0
48.0,-248.0,45.0,-80.0,4.0,-86.0,92.0,-952.0,324.0
45.0,-247.0,44.0,-82.0,1.0,-86.0,95.0,-951.0,321.0
45.0,-248.0,46.0,-87.0,-1.0,-85.0,95.0,-952.0,328.0
47.0,-248.0,46.0,-88.0,-7.0,-84.0,93.0,-952.0,335.0
45.0,-250.0,46.0,-88.0,-13.0,-81.0,90.0,-953.0,327.0
47.0,-245.0,45.0,-89.0,-17.0,-79.0,98.0,-951.0,324.0
46.0,-249.0,41.0,-90.0,-21.0,-78.0,93.0,-949.0,328.0
47.0,-248.0,45.0,-91.0,-22.0,-76.0,93.0,-947.0,324.0
48.0,-247.0,41.0,-93.0,-23.0,-73.0,95.0,-950.0,319.0
45.0,-249.0,38.0,-96.0,-24.0,-69.0,96.0,-948.0,318.0
48.0,-246.0,39.0,-98.0,-27.0,-66.0,100.0,-937.0,317.0
51.0,-245.0,37.0,-98.0,-28.0,-63.0,99.0,-936.0,312.0
46.0,-245.0,36.0,-99.0,-28.0,-62.0,97.0,-942.0,310.0
47.0,-244.0,38.0,-101.0,-30.0,-56.0,90.0,-945.0,312.0
49.0,-246.0,42.0,-101.0,-32.0,-52.0,93.0,-942.0,316.0
47.0,-249.0,41.0,-101.0,-34.0,-49.0,105.0,-941.0,317.0
47.0,-247.0,39.0,-103.0,-35.0,-46.0,109.0,-943.0,317.0
51.0,-246.0,39.0,-104.0,-32.0,-45.0,110.0,-945.0,312.0
50.0,-246.0,39.0,-105.0,-31.0,-42.0,102.0,-947.0,311.0
48.0,-245.0,34.0,-111.0,-31.0,-38.0,102.0,-950.0,311.0
50.0,-244.0,41.0,-117.0,-32.0,-34.0,109.0,-940.0,307.0
49.0,-246.0,37.0,-123.0,-30.0,-30.0,114.0,-944.0,303.0
50.0,-248.0,37.0,-128.0,-25.0,-28.0,117.0,-943.0,302.0
51.0,-243.0,40.0,-135.0,-16.0,-25.0,116.0,-942.0,306.0
49.0,-247.0,35.0,-139.0,-8.0,-24.0,113.0,-939.0,305.0
47.0,-244.0,36.0,-145.0,-1.0,-23.0,115.0,-937.0,306.0
51.0,-245.0,38.0,-148.0,5.0,-21.0,113.0,-940.0,308.0
48.0,-247.0,38.0,-151.0,14.0,-23.0,106.0,-940.0,305.0
51.0,-246.0,39.0,-155.0,17.0,-25.0,105.0,-945.0,311.0
48.0,-246.0,39.0,-156.0,18.0,-27.0,104.0,-946.0,310.0
45.0,-247.0,37.0,-154.0,20.0,-26.0,103.0,-949.0,313.0
49.0,-249.0,38.0,-153.0,18.0,-24.0,96.0,-953.0,309.0
48.0,-249.0,42.0,-151.0,19.0,-22.0,98.0,-951.0,305.0
43.0,-249.0,35.0,-149.0,19.0,-22.0,89.0,-957.0,307.0
45.0,-250.0,38.0,-146.0,19.0,-17.0,86.0,-953.0,301.0
40.0,-248.0,33.0,-145.0,19.0,-13.0,91.0,-951.0,301.0
45.0,-250.0,36.0,-143.0,20.0,-10.0,82.0,-950.0,298.0
44.0,-252.0,36.0,-142.0,18.0,-6.0,92.0,-956.0,304.0
50.0,-249.0,34.0,-139.0,19.0,-6.0,93.0,-950.0,301.0
44.0,-249.0,38.0,-134.0,19.0,-3.0,90.0,-950.0,301.0
43.0,-251.0,38.0,-130.0,16.0,-2.0,84.0,-949.0,305.0
41.0,-249.0,40.0,-126.0,14.0,1.0,84.0,-956.0,300.0
42.0,-247.0,36.0,-122.0,9.0,3.0,90.0,-955.0,306.0
46.0,-252.0,39.0,-118.0,7.0,4.0,91.0,-951.0,306.0
46.0,-249.0,37.0,-117.0,9.0,5.0,96.0,-952.0,301.0
47.0,-252.0,39.0,-116.0,13.0,7.0,87.0,-956.0,292.0
47.0,-250.0,31.0,-118.0,19.0,8.0,93.0,-959.0,295.0
45.0,-250.0,38.0,-119.0,24.0,7.0,94.0,-952.0,295.0
50.0,-249.0,36.0,-120.0,29.0,8.0,98.0,-955.0,293.0
48.0,-248.0,34.0,-119.0,35.0,8.0,100.0,-956.0,299.0
51.0,-249.0,35.0,-117.0,41.0,6.0,105.0,-953.0,301.0
50.0,-251.0,38.0,-113.0,46.0,6.0,107.0,-952.0,302.0
52.0,-253.0,35.0,-110.0,51.0,8.0,105.0,-956.0,298.0
46.0,-253.0,36.0,-107.0,57.0,11.0,100.0,-957.0,298.0
46.0,-254.0,34.0,-103.0,60.0,14.0,88.0,-962.0,293.0
49.0,-251.0,36.0,-100.0,59.0,14.0,99.0,-960.0,296.0
48.0,-250.0,34.0,-95.0,59.0,16.0,103.0,-958.0,294.0
43.0,-249.0,34.0,-92.0,59.0,14.0,98.0,-959.0,295.0
38.0,-254.0,35.0,-84.0,60.0,13.0,99.0,-957.0,299.0
45.0,-250.0,33.0,-78.0,60.0,12.0,96.0,-955.0,296.0
47.0,-249.0,32.0,-74.0,64.0,13.0,91.0,-953.0,289.0
48.0,-250.0,33.0,-71.0,68.0,13.0,95.0,-954.0,287.0
47.0,-250.0,27.0,-71.0,78.0,13.0,100.0,-956.0,288.0
47.0,-250.0,32.0,-75.0,93.0,14.0,99.0,-954.0,293.0
48.0,-246.0,32.0,-81.0,107.0,13.0,97.0,-954.0,292.0
46.0,-248.0,33.0,-86.0,124.0,11.0,93.0,-955.0,294.0
43.0,-249.0,38.0,-89.0,138.0,10.0,89.0,-950.0,286.0
49.0,-252.0,36.0,-93.0,152.0,10.0,86.0,-960.0,290.0
44.0,-250.0,30.0,-95.0,158.0,8.0,88.0,-960.0,289.0
59.0,-237.0,25.0,-95.0,166.0,6.0,89.0,-958.0,288.0
44.0,-248.0,33.0,-91.0,168.0,4.0,93.0,-957.0,291.0
49.0,-252.0,36.0,-82.0,170.0,0.0,101.0,-954.0,293.0
44.0,-252.0,38.0,-70.0,167.0,-9.0,89.0,-959.0,302.0
41.0,-251.0,39.0,-56.0,162.0,-12.0,77.0,-957.0,303.0
38.0,-251.0,38.0,-51.0,156.0,-12.0,74.0,-954.0,305.0
38.0,-247.0,42.0,-52.0,145.0,-12.0,74.0,-955.0,306.0
40.0,-249.0,38.0,-51.0,133.0,-15.0,74.0,-955.0,309.0
36.0,-250.0,41.0,-47.0,125.0,-17.0,74.0,-961.0,317.0
39.0,-250.0,38.0,-41.0,118.0,-20.0,74.0,-957.0,304.0
38.0,-259.0,53.0,-41.0,114.0,-23.0,67.0,-958.0,301.0
37.0,-252.0,38.0,-43.0,112.0,-28.0,62.0,-962.0,306.0
35.0,-253.0,38.0,-43.0,107.0,-33.0,63.0,-966.0,299.0
36.0,-254.0,36.0,-45.0,104.0,-39.0,56.0,-960.0,296.0
34.0,-253.0,36.0,-47.0,101.0,-44.0,55.0,-957.0,305.0
32.0,-249.0,38.0,-42.0,99.0,-47.0,50.0,-957.0,303.0
39.0,-255.0,35.0,-42.0,101.0,-50.0,58.0,-959.0,298.0
40.0,-248.0,33.0,-41.0,104.0,-57.0,64.0,-959.0,303.0
40.0,-251.0,36.0,-34.0,109.0,-65.0,75.0,-955.0,304.0
39.0,-248.0,37.0,-29.0,114.0,-73.0,68.0,-955.0,299.0
39.0,-253.0,35.0,-23.0,114.0,-80.0,72.0,-958.0,310.0
34.0,-239.0,31.0,-10.0,106.0,-86.0,53.0,-959.0,316.0
33.0,-256.0,33.0,0.0,96.0,-84.0,38.0,-970.0,288.0
33.0,-253.0,36.0,-14.0,87.0,-82.0,61.0,-972.0,285.0
37.0,-251.0,29.0,-31.0,83.0,-83.0,59.0,-960.0,287.0
35.0,-253.0,38.0,-44.0,84.0,-81.0,58.0,-959.0,304.0
39.0,-255.0,40.0,-39.0,84.0,-81.0,59.0,-964.0,312.0
38.0,-252.0,37.0,-29.0,83.0,-83.0,62.0,-965.0,307.0
36.0,-248.0,34.0,-25.0,84.0,-82.0,58.0,-958.0,297.0
37.0,-249.0,34.0,-26.0,84.0,-83.0,58.0,-953.0,294.0
36.0,-249.0,38.0,-30.0,82.0,-84.0,59.0,-949.0,300.0
33.0,-248.0,31.0,-32.0,73.0,-89.0,56.0,-955.0,295.0
32.0,-261.0,48.0,-32.0,64.0,-93.0,47.0,-952.0,298.0
32.0,-248.0,35.0,-37.0,57.0,-97.0,47.0,-952.0,289.0
40.0,-252.0,36.0,-44.0,52.0,-99.0,51.0,-950.0,291.0
35.0,-247.0,36.0,-49.0,51.0,-102.0,47.0,-952.0,289.0
34.0,-248.0,31.0,-53.0,53.0,-109.0,52.0,-949.0,290.0
34.0,-248.0,32.0,-56.0,54.0,-111.0,52.0,-950.0,292.0
36.0,-247.0,31.0,-56.0,51.0,-117.0,48.0,-950.0,294.0
36.0,-248.0,36.0,-58.0,43.0,-122.0,42.0,-947.0,290.0
36.0,-249.0,37.0,-61.0,32.0,-124.0,52.0,-949.0,294.0
33.0,-249.0,32.0,-62.0,23.0,-124.0,52.0,-955.0,293.0
33.0,-250.0,33.0,-65.0,15.0,-124.0,52.0,-952.0,293.0
43.0,-236.0,42.0,-69.0,11.0,-124.0,56.0,-955.0,296.0
36.0,-251.0,39.0,-72.0,8.0,-124.0,58.0,-950.0,292.0
35.0,-250.0,32.0,-76.0,7.0,-123.0,61.0,-961.0,294.0
40.0,-251.0,39.0,-81.0,7.0,-123.0,67.0,-956.0,303.0
41.0,-252.0,35.0,-81.0,6.0,-127.0,75.0,-962.0,301.0
43.0,-250.0,33.0,-79.0,3.0,-132.0,83.0,-959.0,296.0
48.0,-255.0,34.0,-77.0,1.0,-136.0,92.0,-961.0,293.0
47.0,-251.0,33.0,-82.0,0.0,-141.0,92.0,-960.0,290.0
46.0,-250.0,32.0,-90.0,0.0,-143.0,97.0,-963.0,285.0
45.0,-253.0,35.0,-94.0,2.0,-145.0,95.0,-960.0,289.0
46.0,-250.0,33.0,-96.0,5.0,-147.0,96.0,-959.0,287.0
56.0,-262.0,30.0,-97.0,5.0,-149.0,102.0,-958.0,290.0
51.0,-248.0,32.0,-95.0,2.0,-151.0,104.0,-960.0,284.0
52.0,-254.0,32.0,-93.0,-3.0,-156.0,119.0,-963.0,280.0
53.0,-253.0,26.0,-88.0,-4.0,-162.0,120.0,-960.0,283.0
55.0,-253.0,32.0,-84.0,-1.0,-164.0,123.0,-964.0,283.0
55.0,-250.0,37.0,-78.0,-1.0,-168.0,137.0,-967.0,284.0
56.0,-253.0,36.0,-74.0,-4.0,-177.0,131.0,-966.0,281.0
53.0,-253.0,28.0,-72.0,-14.0,-184.0,130.0,-964.0,282.0
51.0,-253.0,34.0,-73.0,-25.0,-193.0,132.0,-959.0,280.0
57.0,-254.0,30.0,-79.0,-35.0,-199.0,133.0,-961.0,277.0
55.0,-253.0,31.0,-88.0,-48.0,-206.0,139.0,-969.0,287.0
49.0,-253.0,36.0,-93.0,-59.0,-213.0,143.0,-965.0,289.0
61.0,-253.0,31.0,-95.0,-65.0,-222.0,144.0,-972.0,285.0
60.0,-252.0,36.0,-94.0,-66.0,-228.0,141.0,-969.0,290.0
57.0,-252.0,32.0,-92.0,-64.0,-236.0,133.0,-960.0,292.0
58.0,-252.0,32.0,-89.0,-63.0,-243.0,130.0,-959.0,291.0
59.0,-253.0,33.0,-89.0,-62.0,-248.0,133.0,-960.0,291.0
56.0,-250.0,36.0,-86.0,-60.0,-253.0,134.0,-957.0,289.0
58.0,-251.0,33.0,-86.0,-57.0,-260.0,145.0,-947.0,290.0
59.0,-248.0,34.0,-84.0,-52.0,-268.0,146.0,-945.0,285.0
57.0,-245.0,34.0,-89.0,-45.0,-274.0,149.0,-940.0,287.0
62.0,-243.0,36.0,-93.0,-40.0,-278.0,148.0,-939.0,285.0
56.0,-241.0,31.0,-98.0,-34.0,-280.0,154.0,-935.0,286.0
64.0,-246.0,32.0,-101.0,-26.0,-283.0,158.0,-939.0,284.0
64.0,-245.0,33.0,-104.0,-21.0,-286.0,170.0,-939.0,292.0
64.0,-248.0,33.0,-105.0,-16.0,-292.0,171.0,-946.0,298.0
64.0,-250.0,35.0,-101.0,-12.0,-296.0,171.0,-947.0,299.0
63.0,-249.0,38.0,-95.0,-14.0,-301.0,165.0,-955.0,302.0
59.0,-252.0,38.0,-90.0,-19.0,-308.0,165.0,-959.0,301.0
60.0,-250.0,38.0,-89.0,-24.0,-314.0,161.0,-966.0,302.0
58.0,-251.0,36.0,-87.0,-29.0,-321.0,156.0,-965.0,301.0
58.0,-254.0,31.0,-85.0,-34.0,-331.0,153.0,-968.0,300.0
59.0,-253.0,34.0,-85.0,-37.0,-341.0,148.0,-969.0,295.0
60.0,-259.0,47.0,-85.0,-43.0,-350.0,140.0,-970.0,294.0
58.0,-254.0,35.0,-85.0,-48.0,-358.0,136.0,-969.0,293.0
54.0,-249.0,29.0,-84.0,-51.0,-366.0,129.0,-960.0,288.0
54.0,-251.0,32.0,-81.0,-53.0,-371.0,126.0,-957.0,284.0
52.0,-252.0,34.0,-77.0,-52.0,-373.0,120.0,-954.0,288.0
49.0,-247.0,34.0,-74.0,-51.0,-375.0,127.0,-954.0,286.0
49.0,-245.0,33.0,-71.0,-49.0,-377.0,118.0,-945.0,291.0
51.0,-246.0,36.0,-65.0,-45.0,-376.0,123.0,-941.0,291.0
50.0,-243.0,35.0,-58.0,-43.0,-376.0,119.0,-942.0,294.0
52.0,-246.0,36.0,-53.0,-40.0,-374.0,117.0,-934.0,296.0
55.0,-244.0,32.0,-51.0,-36.0,-377.0,127.0,-934.0,293.0
53.0,-253.0,42.0,-51.0,-31.0,-379.0,127.0,-934.0,291.0
55.0,-240.0,31.0,-57.0,-27.0,-378.0,130.0,-925.0,292.0
56.0,-242.0,37.0,-64.0,-24.0,-379.0,133.0,-929.0,294.0
57.0,-244.0,36.0,-71.0,-21.0,-378.0,133.0,-930.0,293.0
57.0,-245.0,37.0,-78.0,-17.0,-381.0,136.0,-929.0,297.0
55.0,-244.0,35.0,-81.0,-13.0,-382.0,137.0,-937.0,292.0
57.0,-244.0,34.0,-86.0,-6.0,-387.0,146.0,-942.0,293.0
58.0,-249.0,33.0,-89.0,-2.0,-392.0,136.0,-944.0,294.0
56.0,-251.0,31.0,-90.0,1.0,-395.0,141.0,-957.0,303.0
56.0,-251.0,34.0,-90.0,-2.0,-401.0,139.0,-957.0,299.0
57.0,-253.0,33.0,-89.0,-7.0,-409.0,138.0,-963.0,299.0
53.0,-258.0,46.0,-92.0,-14.0,-416.0,133.0,-965.0,295.0
54.0,-253.0,36.0,-91.0,-22.0,-424.0,131.0,-964.0,294.0
53.0,-252.0,37.0,-92.0,-30.0,-429.0,128.0,-966.0,297.0
50.0,-248.0,34.0,-90.0,-39.0,-435.0,125.0,-960.0,304.0
56.0,-252.0,33.0,-89.0,-49.0,-441.0,116.0,-963.0,296.0
50.0,-249.0,36.0,-88.0,-60.0,-444.0,120.0,-962.0,298.0
52.0,-250.0,36.0,-86.0,-71.0,-448.0,114.0,-954.0,291.0
52.0,-249.0,35.0,-87.0,-83.0,-454.0,116.0,-951.0,303.0
53.0,-248.0,40.0,-88.0,-91.0,-459.0,125.0,-951.0,303.0
55.0,-248.0,35.0,-85.0,-94.0,-463.0,127.0,-958.0,296.0
61.0,-252.0,39.0,-84.0,-97.0,-466.0,133.0,-952.0,304.0
57.0,-245.0,38.0,-82.0,-97.0,-472.0,145.0,-952.0,293.0
60.0,-249.0,31.0,-81.0,-97.0,-480.0,145.0,-943.0,293.0
60.0,-248.0,31.0,-85.0,-100.0,-487.0,153.0,-948.0,287.0
62.0,-247.0,36.0,-90.0,-107.0,-495.0,163.0,-940.0,290.0
64.0,-249.0,32.0,-93.0,-115.0,-500.0,172.0,-939.0,289.0
68.0,-249.0,34.0,-94.0,-120.0,-506.0,187.0,-943.0,290.0
71.0,-247.0,33.0,-92.0,-124.0,-509.0,193.0,-949.0,285.0
69.0,-247.0,31.0,-92.0,-129.0,-512.0,204.0,-946.0,283.0
75.0,-250.0,29.0,-94.0,-131.0,-518.0,203.0,-948.0,282.0
76.0,-251.0,27.0,-96.0,-135.0,-522.0,209.0,-946.0,279.0
78.0,-249.0,21.0,-104.0,-142.0,-526.0,215.0,-946.0,277.0
76.0,-247.0,30.0,-111.0,-151.0,-529.0,221.0,-947.0,279.0
83.0,-248.0,29.0,-120.0,-161.0,-531.0,226.0,-950.0,278.0
81.0,-250.0,29.0,-129.0,-168.0,-534.0,233.0,-950.0,281.0
80.0,-246.0,29.0,-140.0,-172.0,-535.0,235.0,-947.0,271.0
79.0,-247.0,24.0,-151.0,-176.0,-537.0,235.0,-950.0,266.0
82.0,-248.0,29.0,-165.0,-182.0,-541.0,241.0,-944.0,274.0
81.0,-247.0,29.0,-178.0,-192.0,-541.0,240.0,-941.0,264.0
88.0,-248.0,28.0,-184.0,-200.0,-541.0,255.0,-945.0,260.0
86.0,-249.0,25.0,-182.0,-210.0,-538.0,264.0,-950.0,261.0
91.0,-248.0,27.0,-178.0,-218.0,-538.0,275.0,-948.0,259.0
96.0,-250.0,27.0,-172.0,-228.0,-540.0,282.0,-945.0,254.0
92.0,-245.0,23.0,-169.0,-248.0,-541.0,281.0,-945.0,259.0
95.0,-247.0,24.0,-160.0,-266.0,-540.0,295.0,-945.0,260.0
101.0,-247.0,26.0,-153.0,-281.0,-537.0,310.0,-947.0,259.0
96.0,-249.0,25.0,-150.0,-298.0,-537.0,307.0,-941.0,254.0
98.0,-246.0,27.0,-149.0,-312.0,-537.0,299.0,-936.0,251.0
94.0,-242.0,23.0,-159.0,-328.0,-537.0,289.0,-938.0,243.0
96.0,-245.0,22.0,-166.0,-343.0,-536.0,291.0,-933.0,238.0
95.0,-242.0,20.0,-179.0,-354.0,-536.0,293.0,-933.0,231.0
96.0,-243.0,16.0,-193.0,-361.0,-535.0,285.0,-933.0,228.0
91.0,-243.0,16.0,-207.0,-367.0,-537.0,283.0,-931.0,227.0
94.0,-244.0,21.0,-215.0,-369.0,-541.0,285.0,-934.0,227.0
97.0,-247.0,16.0,-207.0,-368.0,-545.0,288.0,-938.0,227.0
99.0,-252.0,15.0,-191.0,-365.0,-544.0,293.0,-946.0,238.0
99.0,-251.0,21.0,-161.0,-360.0,-540.0,303.0,-958.0,241.0
106.0,-252.0,24.0,-131.0,-362.0,-533.0,325.0,-956.0,242.0
105.0,-250.0,21.0,-100.0,-372.0,-529.0,337.0,-955.0,247.0
112.0,-251.0,22.0,-75.0,-386.0,-522.0,348.0,-955.0,246.0
116.0,-249.0,25.0,-55.0,-404.0,-518.0,361.0,-949.0,248.0
120.0,-247.0,24.0,-38.0,-422.0,-519.0,374.0,-942.0,244.0
121.0,-242.0,27.0,-27.0,-439.0,-519.0,378.0,-932.0,241.0
123.0,-241.0,24.0,-17.0,-454.0,-522.0,390.0,-919.0,243.0
123.0,-236.0,23.0,-11.0,-466.0,-523.0,387.0,-910.0,238.0
125.0,-236.0,21.0,-10.0,-475.0,-523.0,389.0,-900.0,227.0
124.0,-232.0,16.0,-16.0,-481.0,-524.0,392.0,-884.0,221.0
123.0,-228.0,16.0,-27.0,-488.0,-526.0,395.0,-877.0,231.0
122.0,-227.0,26.0,-40.0,-496.0,-529.0,392.0,-873.0,233.0
124.0,-228.0,21.0,-60.0,-505.0,-533.0,381.0,-876.0,233.0
120.0,-229.0,20.0,-84.0,-516.0,-540.0,380.0,-878.0,237.0
121.0,-231.0,22.0,-105.0,-521.0,-545.0,380.0,-875.0,231.0
121.0,-233.0,17.0,-126.0,-522.0,-554.0,380.0,-890.0,230.0
116.0,-231.0,16.0,-146.0,-521.0,-562.0,373.0,-885.0,225.0
117.0,-235.0,20.0,-158.0,-520.0,-569.0,366.0,-883.0,221.0
116.0,-232.0,26.0,-166.0,-518.0,-579.0,368.0,-893.0,216.0
118.0,-234.0,13.0,-165.0,-518.0,-586.0,364.0,-895.0,215.0
119.0,-234.0,18.0,-158.0,-516.0,-590.0,365.0,-888.0,218.0
118.0,-234.0,14.0,-143.0,-513.0,-592.0,363.0,-880.0,215.0
121.0,-234.0,16.0,-123.0,-504.0,-594.0,374.0,-886.0,214.0
123.0,-231.0,16.0,-101.0,-495.0,-594.0,380.0,-885.0,221.0
125.0,-233.0,18.0,-78.0,-489.0,-592.0,386.0,-876.0,229.0
124.0,-227.0,18.0,-58.0,-491.0,-584.0,406.0,-875.0,234.0
129.0,-228.0,19.0,-42.0,-501.0,-579.0,422.0,-873.0,240.0
130.0,-230.0,20.0,-35.0,-513.0,-571.0,423.0,-874.0,235.0
135.0,-231.0,19.0,-28.0,-515.0,-554.0,430.0,-880.0,236.0
136.0,-230.0,19.0,-27.0,-510.0,-541.0,443.0,-875.0,232.0
140.0,-229.0,18.0,-29.0,-506.0,-533.0,448.0,-872.0,231.0
141.0,-228.0,18.0,-33.0,-498.0,-526.0,459.0,-870.0,229.0
146.0,-229.0,18.0,-32.0,-489.0,-522.0,464.0,-864.0,226.0
142.0,-226.0,18.0,-31.0,-478.0,-522.0,464.0,-866.0,222.0
144.0,-228.0,20.0,-29.0,-462.0,-518.0,466.0,-854.0,221.0
144.0,-224.0,13.0,-25.0,-445.0,-514.0,470.0,-852.0,221.0
150.0,-219.0,14.0,-21.0,-425.0,-513.0,478.0,-844.0,211.0
147.0,-221.0,12.0,-20.0,-406.0,-514.0,489.0,-830.0,208.0
153.0,-218.0,12.0,-23.0,-388.0,-520.0,495.0,-825.0,199.0
154.0,-217.0,12.0,-27.0,-371.0,-526.0,491.0,-825.0,192.0
156.0,-217.0,6.0,-28.0,-353.0,-535.0,501.0,-820.0,193.0
156.0,-215.0,9.0,-24.0,-334.0,-542.0,510.0,-819.0,187.0
162.0,-215.0,9.0,-16.0,-314.0,-549.0,518.0,-816.0,181.0
161.0,-213.0,5.0,-9.0,-297.0,-554.0,533.0,-810.0,185.0
165.0,-215.0,7.0,-3.0,-280.0,-559.0,547.0,-808.0,178.0
162.0,-212.0,4.0,-2.0,-266.0,-562.0,541.0,-812.0,179.0
165.0,-215.0,10.0,-5.0,-256.0,-566.0,544.0,-814.0,175.0
167.0,-213.0,6.0,-9.0,-245.0,-570.0,549.0,-815.0,176.0
167.0,-213.0,3.0,-13.0,-234.0,-575.0,551.0,-809.0,170.0
166.0,-214.0,2.0,-17.0,-222.0,-580.0,546.0,-815.0,167.0
167.0,-214.0,4.0,-20.0,-211.0,-585.0,543.0,-813.0,166.0
165.0,-214.0,2.0,-17.0,-201.0,-592.0,554.0,-806.0,159.0
169.0,-214.0,-1.0,-11.0,-190.0,-596.0,548.0,-814.0,156.0
170.0,-212.0,-1.0,-4.0,-178.0,-599.0,560.0,-803.0,150.0
170.0,-211.0,1.0,1.0,-169.0,-605.0,563.0,-800.0,156.0
172.0,-206.0,1.0,5.0,-163.0,-607.0,574.0,-794.0,156.0
169.0,-209.0,-5.0,9.0,-160.0,-611.0,568.0,-787.0,152.0
174.0,-202.0,0.0,12.0,-157.0,-614.0,573.0,-789.0,153.0
172.0,-203.0,-2.0,16.0,-155.0,-619.0,576.0,-777.0,153.0
178.0,-202.0,-3.0,17.0,-152.0,-623.0,575.0,-770.0,147.0
181.0,-202.0,-3.0,10.0,-151.0,-626.0,582.0,-759.0,147.0
180.0,-200.0,4.0,0.0,-147.0,-624.0,602.0,-755.0,146.0
187.0,-196.0,-3.0,-10.0,-143.0,-628.0,617.0,-747.0,146.0
185.0,-197.0,0.0,-23.0,-137.0,-636.0,633.0,-747.0,144.0
190.0,-197.0,-1.0,-38.0,-137.0,-644.0,633.0,-748.0,143.0
187.0,-197.0,-4.0,-51.0,-143.0,-653.0,633.0,-752.0,149.0
190.0,-200.0,-2.0,-67.0,-147.0,-661.0,631.0,-754.0,144.0
188.0,-198.0,-5.0,-80.0,-155.0,-667.0,635.0,-752.0,139.0
190.0,-200.0,1.0,-93.0,-154.0,-669.0,631.0,-762.0,148.0
190.0,-200.0,2.0,-106.0,-150.0,-672.0,634.0,-767.0,154.0
189.0,-205.0,0.0,-112.0,-139.0,-672.0,620.0,-773.0,152.0
187.0,-208.0,1.0,-108.0,-126.0,-669.0,627.0,-779.0,160.0
188.0,-207.0,2.0,-98.0,-111.0,-666.0,630.0,-786.0,162.0
188.0,-206.0,2.0,-84.0,-99.0,-663.0,640.0,-782.0,160.0
190.0,-205.0,2.0,-64.0,-96.0,-659.0,637.0,-784.0,161.0
186.0,-206.0,0.0,-46.0,-102.0,-656.0,624.0,-773.0,159.0
186.0,-205.0,0.0,-32.0,-110.0,-650.0,628.0,-770.0,152.0
188.0,-199.0,-3.0,-24.0,-114.0,-644.0,630.0,-765.0,140.0
190.0,-197.0,-5.0,-22.0,-111.0,-637.0,625.0,-751.0,137.0
188.0,-194.0,-2.0,-21.0,-105.0,-631.0,636.0,-745.0,133.0
190.0,-192.0,-5.0,-25.0,-101.0,-621.0,642.0,-732.0,133.0
191.0,-193.0,-7.0,-38.0,-104.0,-615.0,648.0,-730.0,144.0
190.0,-191.0,1.0,-49.0,-113.0,-611.0,648.0,-723.0,145.0
193.0,-192.0,1.0,-59.0,-122.0,-611.0,654.0,-720.0,151.0
193.0,-191.0,2.0,-68.0,-127.0,-612.0,658.0,-721.0,150.0
193.0,-193.0,-3.0,-71.0,-126.0,-616.0,659.0,-726.0,149.0
192.0,-193.0,-5.0,-71.0,-118.0,-620.0,655.0,-725.0,144.0
191.0,-192.0,-5.0,-66.0,-109.0,-626.0,655.0,-731.0,134.0
192.0,-192.0,-5.0,-63.0,-99.0,-630.0,651.0,-725.0,125.0
191.0,-192.0,-8.0,-60.0,-85.0,-632.0,654.0,-723.0,119.0
194.0,-190.0,-7.0,-58.0,-73.0,-634.0,659.0,-722.0,120.0
193.0,-188.0,-7.0,-56.0,-59.0,-637.0,660.0,-715.0,120.0
196.0,-185.0,-3.0,-60.0,-50.0,-639.0,669.0,-708.0,123.0
197.0,-188.0,-4.0,-68.0,-41.0,-643.0,671.0,-704.0,129.0
197.0,-187.0,-4.0,-79.0,-35.0,-647.0,680.0,-707.0,129.0
201.0,-189.0,-1.0,-88.0,-31.0,-649.0,681.0,-709.0,138.0
199.0,-191.0,-4.0,-90.0,-24.0,-651.0,688.0,-714.0,146.0
202.0,-192.0,0.0,-89.0,-20.0,-655.0,690.0,-723.0,142.0
200.0,-193.0,0.0,-89.0,-20.0,-656.0,689.0,-727.0,147.0
203.0,-195.0,-3.0,-90.0,-25.0,-660.0,687.0,-727.0,150.0
199.0,-192.0,-2.0,-87.0,-24.0,-663.0,675.0,-731.0,146.0
195.0,-194.0,0.0,-84.0,-24.0,-666.0,669.0,-726.0,141.0
194.0,-192.0,-1.0,-84.0,-23.0,-663.0,669.0,-725.0,140.0
194.0,-192.0,-2.0,-85.0,-19.0,-661.0,663.0,-722.0,137.0
193.0,-191.0,-2.0,-81.0,-15.0,-659.0,662.0,-722.0,142.0
192.0,-191.0,-3.0,-79.0,-16.0,-654.0,666.0,-717.0,138.0
194.0,-190.0,-10.0,-78.0,-22.0,-652.0,662.0,-717.0,127.0
192.0,-190.0,-9.0,-80.0,-26.0,-650.0,657.0,-714.0,122.0
193.0,-188.0,-7.0,-82.0,-32.0,-648.0,656.0,-710.0,116.0
194.0,-189.0,-6.0,-82.0,-35.0,-645.0,658.0,-704.0,124.0
195.0,-187.0,-14.0,-80.0,-41.0,-647.0,658.0,-699.0,126.0
194.0,-184.0,-9.0,-74.0,-46.0,-645.0,658.0,-691.0,118.0
197.0,-185.0,-10.0,-73.0,-51.0,-644.0,670.0,-683.0,119.0
202.0,-182.0,-11.0,-74.0,-58.0,-643.0,679.0,-674.0,121.0
199.0,-179.0,-11.0,-75.0,-66.0,-643.0,686.0,-673.0,123.0
201.0,-178.0,-7.0,-80.0,-72.0,-643.0,687.0,-670.0,122.0
201.0,-176.0,-8.0,-89.0,-74.0,-644.0,692.0,-662.0,118.0
204.0,-178.0,-7.0,-103.0,-76.0,-644.0,699.0,-659.0,125.0
203.0,-176.0,-7.0,-117.0,-77.0,-645.0,705.0,-658.0,122.0
207.0,-173.0,-10.0,-132.0,-78.0,-646.0,702.0,-654.0,117.0
206.0,-177.0,-14.0,-145.0,-72.0,-646.0,704.0,-649.0,115.0
206.0,-172.0,-11.0,-151.0,-61.0,-646.0,710.0,-650.0,117.0
213.0,-173.0,-8.0,-157.0,-48.0,-642.0,711.0,-650.0,116.0
211.0,-175.0,-7.0,-159.0,-35.0,-638.0,723.0,-642.0,116.0
210.0,-170.0,-10.0,-161.0,-25.0,-633.0,733.0,-648.0,123.0
214.0,-176.0,-11.0,-164.0,-18.0,-628.0,735.0,-642.0,120.0
217.0,-174.0,-10.0,-162.0,-11.0,-619.0,744.0,-648.0,127.0
217.0,-172.0,-9.0,-164.0,-2.0,-617.0,750.0,-648.0,121.0
219.0,-173.0,-9.0,-159.0,1.0,-616.0,750.0,-651.0,120.0
218.0,-168.0,-9.0,-155.0,2.0,-615.0,758.0,-644.0,117.0
220.0,-174.0,-11.0,-150.0,3.0,-614.0,761.0,-638.0,109.0
222.0,-165.0,-13.0,-141.0,7.0,-614.0,760.0,-620.0,103.0
218.0,-162.0,-17.0,-130.0,10.0,-616.0,754.0,-603.0,99.0
218.0,-156.0,-17.0,-124.0,6.0,-617.0,746.0,-587.0,102.0
212.0,-152.0,-16.0,-124.0,-7.0,-623.0,744.0,-573.0,96.0
212.0,-148.0,-13.0,-129.0,-20.0,-628.0,735.0,-560.0,94.0
215.0,-145.0,-19.0,-137.0,-31.0,-631.0,737.0,-542.0,95.0
214.0,-142.0,-13.0,-148.0,-37.0,-635.0,744.0,-536.0,94.0
218.0,-143.0,-13.0,-160.0,-41.0,-636.0,749.0,-536.0,94.0
221.0,-146.0,-14.0,-174.0,-47.0,-641.0,762.0,-536.0,102.0
224.0,-146.0,-9.0,-190.0,-57.0,-643.0,776.0,-560.0,107.0
228.0,-155.0,-10.0,-202.0,-66.0,-646.0,790.0,-566.0,115.0
232.0,-157.0,-12.0,-208.0,-73.0,-648.0,801.0,-581.0,119.0
235.0,-158.0,-9.0,-206.0,-75.0,-649.0,809.0,-596.0,119.0
237.0,-161.0,-5.0,-199.0,-76.0,-652.0,820.0,-606.0,122.0
241.0,-165.0,-10.0,-193.0,-77.0,-654.0,835.0,-610.0,128.0
236.0,-161.0,-5.0,-185.0,-82.0,-656.0,842.0,-609.0,136.0
240.0,-161.0,-3.0,-182.0,-91.0,-659.0,841.0,-608.0,135.0
241.0,-162.0,-9.0,-177.0,-96.0,-658.0,841.0,-606.0,134.0
241.0,-158.0,-4.0,-178.0,-94.0,-654.0,843.0,-607.0,133.0
243.0,-160.0,-4.0,-186.0,-91.0,-651.0,840.0,-602.0,138.0
239.0,-156.0,-5.0,-194.0,-88.0,-651.0,826.0,-590.0,134.0
238.0,-156.0,-3.0,-199.0,-86.0,-645.0,827.0,-586.0,131.0
235.0,-154.0,-6.0,-199.0,-83.0,-641.0,815.0,-574.0,126.0
234.0,-154.0,-6.0,-199.0,-77.0,-636.0,808.0,-574.0,124.0
233.0,-154.0,-14.0,-196.0,-69.0,-636.0,797.0,-573.0,117.0
229.0,-153.0,-12.0,-188.0,-62.0,-635.0,793.0,-566.0,108.0
230.0,-149.0,-11.0,-183.0,-57.0,-639.0,788.0,-563.0,110.0
228.0,-147.0,-16.0,-179.0,-55.0,-646.0,795.0,-546.0,106.0
229.0,-142.0,-15.0,-180.0,-55.0,-652.0,797.0,-543.0,103.0
230.0,-141.0,-15.0,-182.0,-57.0,-659.0,814.0,-528.0,103.0
236.0,-136.0,-13.0,-186.0,-60.0,-663.0,817.0,-513.0,105.0
240.0,-136.0,-12.0,-194.0,-63.0,-664.0,829.0,-503.0,109.0
242.0,-134.0,-15.0,-206.0,-63.0,-666.0,843.0,-496.0,111.0
240.0,-130.0,-10.0,-218.0,-62.0,-661.0,846.0,-490.0,112.0
245.0,-130.0,-12.0,-228.0,-54.0,-657.0,853.0,-486.0,104.0
247.0,-129.0,-14.0,-234.0,-43.0,-653.0,869.0,-487.0,110.0
249.0,-128.0,-10.0,-237.0,-35.0,-652.0,873.0,-485.0,105.0
252.0,-130.0,-13.0,-235.0,-32.0,-650.0,882.0,-480.0,107.0
254.0,-128.0,-17.0,-234.0,-34.0,-654.0,883.0,-482.0,93.0
256.0,-131.0,-20.0,-229.0,-31.0,-656.0,896.0,-477.0,84.0
256.0,-129.0,-20.0,-225.0,-23.0,-657.0,896.0,-476.0,75.0
253.0,-130.0,-24.0,-219.0,-13.0,-660.0,885.0,-481.0,75.0
250.0,-130.0,-18.0,-218.0,-3.0,-665.0,880.0,-486.0,82.0
247.0,-134.0,-16.0,-216.0,-2.0,-673.0,869.0,-491.0,94.0
245.0,-136.0,-11.0,-218.0,-5.0,-681.0,861.0,-499.0,102.0
244.0,-139.0,-9.0,-216.0,-12.0,-691.0,846.0,-515.0,115.0
240.0,-141.0,-10.0,-209.0,-21.0,-704.0,838.0,-518.0,115.0
240.0,-138.0,-14.0,-196.0,-32.0,-707.0,831.0,-518.0,117.0
243.0,-138.0,-13.0,-175.0,-41.0,-711.0,842.0,-508.0,112.0
245.0,-136.0,-13.0,-156.0,-44.0,-712.0,850.0,-497.0,104.0
245.0,-130.0,-10.0,-137.0,-47.0,-712.0,870.0,-485.0,102.0
253.0,-127.0,-17.0,-125.0,-54.0,-707.0,878.0,-472.0,100.0
254.0,-126.0,-15.0,-113.0,-61.0,-704.0,891.0,-451.0,96.0
255.0,-117.0,-15.0,-103.0,-73.0,-701.0,894.0,-434.0,99.0
257.0,-115.0,-16.0,-95.0,-81.0,-695.0,912.0,-419.0,99.0
259.0,-111.0,-18.0,-86.0,-85.0,-689.0,915.0,-406.0,103.0
259.0,-108.0,-12.0,-79.0,-86.0,-681.0,917.0,-404.0,99.0
260.0,-110.0,-15.0,-81.0,-85.0,-671.0,923.0,-392.0,99.0
260.0,-109.0,-14.0,-93.0,-83.0,-663.0,926.0,-390.0,100.0
259.0,-103.0,-14.0,-106.0,-84.0,-656.0,923.0,-383.0,106.0
259.0,-104.0,-11.0,-116.0,-91.0,-650.0,918.0,-387.0,115.0
258.0,-103.0,-8.0,-123.0,-103.0,-646.0,915.0,-374.0,112.0
260.0,-102.0,-11.0,-129.0,-111.0,-643.0,913.0,-369.0,108.0
261.0,-102.0,-18.0,-134.0,-110.0,-640.0,913.0,-360.0,97.0
260.0,-97.0,-19.0,-139.0,-102.0,-638.0,920.0,-362.0,92.0
263.0,-98.0,-15.0,-145.0,-87.0,-636.0,925.0,-351.0,94.0
267.0,-99.0,-16.0,-150.0,-70.0,-636.0,931.0,-357.0,95.0
266.0,-97.0,-13.0,-149.0,-57.0,-639.0,945.0,-356.0,99.0
272.0,-102.0,-14.0,-142.0,-46.0,-643.0,960.0,-355.0,101.0
267.0,-96.0,-14.0,-128.0,-37.0,-651.0,959.0,-359.0,99.0
272.0,-98.0,-17.0,-116.0,-36.0,-661.0,954.0,-350.0,105.0
270.0,-95.0,-16.0,-102.0,-35.0,-673.0,945.0,-344.0,103.0
267.0,-92.0,-16.0,-93.0,-35.0,-684.0,938.0,-327.0,97.0
262.0,-86.0,-19.0,-84.0,-39.0,-691.0,940.0,-323.0,100.0
264.0,-85.0,-14.0,-81.0,-42.0,-696.0,935.0,-317.0,96.0
268.0,-88.0,-16.0,-81.0,-41.0,-698.0,940.0,-309.0,96.0
268.0,-84.0,-21.0,-81.0,-33.0,-701.0,943.0,-306.0,93.0
269.0,-86.0,-16.0,-76.0,-23.0,-706.0,947.0,-303.0,94.0
269.0,-80.0,-18.0,-69.0,-13.0,-713.0,953.0,-299.0,92.0
268.0,-84.0,-17.0,-62.0,-4.0,-718.0,956.0,-297.0,92.0
268.0,-76.0,-15.0,-59.0,3.0,-722.0,960.0,-286.0,93.0
270.0,-79.0,-21.0,-62.0,4.0,-726.0,959.0,-286.0,92.0
272.0,-75.0,-21.0,-66.0,7.0,-731.0,961.0,-275.0,93.0
271.0,-76.0,-21.0,-78.0,11.0,-735.0,966.0,-267.0,84.0
269.0,-74.0,-18.0,-93.0,14.0,-740.0,959.0,-262.0,90.0
267.0,-76.0,-13.0,-111.0,15.0,-744.0,946.0,-264.0,103.0
270.0,-76.0,-8.0,-128.0,7.0,-744.0,941.0,-264.0,120.0
266.0,-75.0,-12.0,-131.0,3.0,-742.0,940.0,-260.0,113.0
268.0,-74.0,-15.0,-123.0,13.0,-736.0,949.0,-249.0,96.0
269.0,-72.0,-24.0,-112.0,40.0,-729.0,953.0,-236.0,72.0
270.0,-65.0,-25.0,-102.0,76.0,-722.0,950.0,-229.0,51.0
271.0,-63.0,-28.0,-100.0,112.0,-713.0,947.0,-220.0,44.0
268.0,-64.0,-29.0,-109.0,135.0,-702.0,953.0,-230.0,47.0
270.0,-67.0,-24.0,-125.0,141.0,-696.0,966.0,-237.0,56.0
274.0,-72.0,-22.0,-140.0,141.0,-695.0,975.0,-260.0,69.0
282.0,-80.0,-17.0,-146.0,141.0,-697.0,982.0,-277.0,73.0
274.0,-80.0,-22.0,-146.0,143.0,-701.0,978.0,-283.0,69.0
273.0,-79.0,-25.0,-148.0,150.0,-707.0,960.0,-288.0,69.0
264.0,-80.0,-24.0,-144.0,159.0,-707.0,945.0,-290.0,84.0
266.0,-79.0,-14.0,-131.0,168.0,-703.0,939.0,-285.0,101.0
267.0,-79.0,-9.0,-118.0,170.0,-695.0,942.0,-277.0,126.0
265.0,-79.0,0.0,-108.0,167.0,-686.0,946.0,-287.0,140.0
267.0,-79.0,0.0,-100.0,164.0,-682.0,944.0,-276.0,156.0
269.0,-77.0,-1.0,-83.0,169.0,-685.0,950.0,-271.0,160.0
270.0,-72.0,-5.0,-62.0,180.0,-688.0,958.0,-262.0,157.0
274.0,-70.0,0.0,-48.0,195.0,-691.0,970.0,-251.0,151.0
276.0,-67.0,0.0,-42.0,202.0,-696.0,980.0,-249.0,154.0
278.0,-68.0,0.0,-46.0,195.0,-703.0,986.0,-239.0,166.0
278.0,-68.0,0.0,-52.0,180.0,-713.0,986.0,-242.0,163.0
273.0,-69.0,2.0,-64.0,164.0,-730.0,980.0,-242.0,164.0
274.0,-67.0,1.0,-81.0,155.0,-749.0,965.0,-235.0,152.0
263.0,-62.0,-4.0,-99.0,154.0,-767.0,940.0,-227.0,154.0
262.0,-64.0,-2.0,-115.0,158.0,-784.0,919.0,-216.0,150.0
255.0,-60.0,-5.0,-128.0,158.0,-799.0,900.0,-207.0,141.0
251.0,-57.0,-6.0,-138.0,148.0,-811.0,882.0,-196.0,134.0
251.0,-53.0,-12.0,-140.0,131.0,-815.0,870.0,-182.0,118.0
247.0,-53.0,-12.0,-138.0,106.0,-815.0,866.0,-171.0,114.0
245.0,-47.0,-20.0,-142.0,76.0,-815.0,861.0,-158.0,103.0
250.0,-46.0,-20.0,-150.0,47.0,-811.0,872.0,-158.0,85.0
250.0,-44.0,-19.0,-160.0,31.0,-802.0,885.0,-144.0,79.0
254.0,-44.0,-21.0,-163.0,23.0,-789.0,897.0,-154.0,80.0
259.0,-47.0,-19.0,-168.0,27.0,-766.0,918.0,-166.0,79.0
269.0,-52.0,-23.0,-165.0,37.0,-738.0,957.0,-178.0,86.0
283.0,-57.0,-16.0,-157.0,55.0,-713.0,982.0,-183.0,97.0
286.0,-57.0,-14.0,-148.0,82.0,-692.0,1021.0,-194.0,108.0
289.0,-63.0,-14.0,-141.0,110.0,-677.0,1032.0,-204.0,119.0
291.0,-62.0,-6.0,-136.0,138.0,-673.0,1036.0,-213.0,126.0
294.0,-62.0,-9.0,-120.0,172.0,-677.0,1041.0,-208.0,123.0
295.0,-60.0,-10.0,-91.0,213.0,-683.0,1039.0,-209.0,119.0
291.0,-61.0,-13.0,-59.0,258.0,-693.0,1030.0,-210.0,112.0
289.0,-58.0,-13.0,-31.0,300.0,-699.0,1022.0,-198.0,113.0
285.0,-57.0,-11.0,-7.0,326.0,-702.0,1016.0,-194.0,119.0
284.0,-54.0,-3.0,17.0,341.0,-705.0,1008.0,-177.0,127.0
279.0,-47.0,-5.0,37.0,352.0,-709.0,981.0,-165.0,133.0
274.0,-48.0,-3.0,53.0,357.0,-713.0,969.0,-156.0,132.0
273.0,-48.0,-8.0,71.0,363.0,-717.0,956.0,-141.0,135.0
265.0,-42.0,-3.0,87.0,365.0,-719.0,946.0,-131.0,135.0
266.0,-37.0,-7.0,100.0,360.0,-718.0,938.0,-119.0,140.0
263.0,-33.0,-8.0,111.0,359.0,-713.0,933.0,-110.0,137.0
263.0,-32.0,-2.0,115.0,357.0,-708.0,932.0,-99.0,140.0
261.0,-27.0,-4.0,117.0,348.0,-705.0,928.0,-84.0,143.0
263.0,-24.0,0.0,121.0,332.0,-702.0,933.0,-80.0,148.0
264.0,-24.0,-7.0,126.0,315.0,-697.0,937.0,-62.0,143.0
269.0,-18.0,-10.0,129.0,307.0,-695.0,947.0,-47.0,134.0
269.0,-18.0,-6.0,132.0,311.0,-689.0,951.0,-38.0,129.0
273.0,-15.0,-10.0,138.0,323.0,-688.0,957.0,-21.0,126.0
274.0,-9.0,-10.0,141.0,338.0,-679.0,965.0,-10.0,127.0
277.0,0.0,-11.0,145.0,351.0,-669.0,983.0,9.0,125.0
279.0,3.0,-8.0,149.0,368.0,-658.0,994.0,23.0,121.0
284.0,9.0,-12.0,148.0,385.0,-648.0,1011.0,39.0,118.0
292.0,12.0,-8.0,138.0,403.0,-631.0,1033.0,66.0,132.0
297.0,14.0,-2.0,123.0,419.0,-609.0,1053.0,78.0,149.0
300.0,16.0,1.0,107.0,432.0,-587.0,1060.0,85.0,162.0
302.0,20.0,2.0,90.0,438.0,-566.0,1073.0,95.0,173.0
300.0,19.0,4.0,75.0,445.0,-543.0,1082.0,99.0,181.0
303.0,18.0,4.0,63.0,449.0,-517.0,1076.0,99.0,184.0
301.0,18.0,7.0,61.0,446.0,-488.0,1074.0,104.0,190.0
298.0,19.0,8.0,62.0,433.0,-454.0,1067.0,101.0,192.0
294.0,23.0,2.0,72.0,413.0,-416.0,1057.0,109.0,186.0
293.0,25.0,3.0,88.0,388.0,-374.0,1050.0,123.0,181.0
291.0,28.0,4.0,108.0,359.0,-326.0,1038.0,131.0,183.0
288.0,30.0,2.0,132.0,327.0,-275.0,1033.0,140.0,174.0
287.0,33.0,4.0,154.0,288.0,-220.0,1030.0,149.0,171.0
287.0,32.0,3.0,179.0,243.0,-162.0,1023.0,147.0,171.0
284.0,32.0,4.0,205.0,199.0,-105.0,1017.0,150.0,168.0
277.0,34.0,6.0,226.0,154.0,-52.0,989.0,149.0,175.0
273.0,31.0,6.0,243.0,105.0,-2.0,977.0,149.0,185.0
273.0,32.0,6.0,254.0,62.0,42.0,974.0,132.0,189.0
271.0,30.0,10.0,268.0,32.0,77.0,965.0,124.0,183.0
274.0,22.0,10.0,284.0,17.0,105.0,963.0,117.0,195.0
273.0,25.0,14.0,297.0,8.0,122.0,960.0,108.0,212.0
272.0,21.0,25.0,300.0,-13.0,133.0,962.0,100.0,229.0
270.0,19.0,18.0,288.0,-45.0,137.0,960.0,96.0,246.0
271.0,20.0,17.0,271.0,-71.0,137.0,948.0,89.0,241.0
266.0,19.0,18.0,251.0,-77.0,132.0,946.0,92.0,235.0
269.0,20.0,12.0,231.0,-64.0,126.0,936.0,95.0,228.0
264.0,23.0,21.0,205.0,-42.0,124.0,937.0,100.0,229.0
265.0,24.0,13.0,171.0,-22.0,128.0,937.0,108.0,224.0
264.0,27.0,14.0,138.0,-3.0,133.0,930.0,109.0,218.0
264.0,21.0,15.0,107.0,19.0,140.0,932.0,106.0,221.0
260.0,22.0,13.0,78.0,48.0,147.0,924.0,99.0,217.0
264.0,16.0,16.0,51.0,77.0,155.0,926.0,78.0,216.0
262.0,15.0,16.0,29.0,103.0,165.0,929.0,68.0,223.0
263.0,9.0,20.0,15.0,120.0,176.0,933.0,59.0,233.0
263.0,4.0,24.0,9.0,124.0,186.0,937.0,46.0,245.0
266.0,3.0,19.0,16.0,117.0,196.0,952.0,37.0,248.0
270.0,1.0,25.0,30.0,100.0,209.0,964.0,24.0,246.0
273.0,0.0,20.0,50.0,79.0,219.0,964.0,13.0,246.0
276.0,-3.0,22.0,64.0,53.0,231.0,975.0,8.0,256.0
276.0,-5.0,26.0,68.0,16.0,246.0,983.0,-8.0,269.0
276.0,-8.0,31.0,61.0,-38.0,260.0,985.0,-25.0,274.0
280.0,-14.0,34.0,39.0,-103.0,272.0,998.0,-28.0,279.0
279.0,-16.0,28.0,11.0,-171.0,277.0,1004.0,-42.0,269.0
276.0,-16.0,26.0,-21.0,-232.0,278.0,980.0,-48.0,258.0
277.0,-20.0,24.0,-46.0,-281.0,277.0,983.0,-58.0,251.0
274.0,-21.0,22.0,-63.0,-324.0,276.0,973.0,-58.0,245.0
275.0,-23.0,16.0,-73.0,-361.0,276.0,965.0,-63.0,238.0
270.0,-26.0,20.0,-74.0,-394.0,280.0,958.0,-62.0,227.0
267.0,-25.0,17.0,-68.0,-420.0,285.0,953.0,-65.0,223.0
268.0,-22.0,11.0,-61.0,-445.0,288.0,941.0,-62.0,215.0
265.0,-23.0,7.0,-50.0,-458.0,291.0,944.0,-67.0,197.0
266.0,-26.0,6.0,-37.0,-460.0,295.0,942.0,-72.0,185.0
265.0,-27.0,1.0,-23.0,-451.0,299.0,943.0,-73.0,170.0
267.0,-27.0,-2.0,-16.0,-439.0,298.0,946.0,-79.0,169.0
268.0,-28.0,4.0,-14.0,-421.0,295.0,953.0,-82.0,180.0
275.0,-29.0,5.0,-16.0,-398.0,293.0,965.0,-86.0,177.0
283.0,-29.0,7.0,-12.0,-376.0,288.0,1008.0,-86.0,172.0
294.0,-31.0,4.0,8.0,-357.0,277.0,1037.0,-86.0,175.0
298.0,-26.0,-2.0,28.0,-347.0,259.0,1054.0,-73.0,163.0
288.0,-23.0,0.0,44.0,-352.0,229.0,1041.0,-62.0,163.0
277.0,-14.0,0.0,50.0,-376.0,199.0,1005.0,-47.0,157.0
266.0,-14.0,-1.0,43.0,-411.0,181.0,955.0,-39.0,151.0
261.0,-13.0,-5.0,23.0,-446.0,182.0,938.0,-28.0,134.0
261.0,-13.0,-5.0,-10.0,-469.0,194.0,927.0,-38.0,122.0
260.0,-16.0,-12.0,-51.0,-476.0,212.0,925.0,-49.0,121.0
264.0,-24.0,-11.0,-92.0,-475.0,231.0,931.0,-67.0,124.0
265.0,-27.0,-4.0,-120.0,-469.0,249.0,934.0,-82.0,128.0
268.0,-33.0,-1.0,-132.0,-463.0,264.0,946.0,-89.0,139.0
273.0,-36.0,0.0,-130.0,-458.0,279.0,957.0,-106.0,149.0
278.0,-41.0,-6.0,-121.0,-449.0,294.0,976.0,-124.0,152.0
284.0,-42.0,-3.0,-105.0,-438.0,305.0,998.0,-130.0,150.0
289.0,-43.0,-1.0,-87.0,-423.0,315.0,1025.0,-132.0,146.0
290.0,-44.0,-4.0,-69.0,-407.0,317.0,1020.0,-139.0,147.0
293.0,-42.0,-4.0,-46.0,-393.0,316.0,1034.0,-131.0,146.0
295.0,-40.0,-6.0,-27.0,-380.0,313.0,1047.0,-127.0,143.0
297.0,-35.0,-5.0,-11.0,-369.0,303.0,1050.0,-108.0,134.0
289.0,-31.0,-4.0,5.0,-357.0,295.0,1034.0,-94.0,131.0
292.0,-28.0,-8.0,20.0,-343.0,274.0,1029.0,-74.0,123.0
289.0,-23.0,-11.0,32.0,-333.0,256.0,1029.0,-60.0,117.0
285.0,-20.0,-14.0,44.0,-324.0,238.0,1018.0,-48.0,102.0
286.0,-15.0,-16.0,53.0,-320.0,224.0,1019.0,-41.0,97.0
283.0,-12.0,-18.0,53.0,-322.0,211.0,1009.0,-31.0,88.0
283.0,-16.0,-21.0,44.0,-327.0,198.0,999.0,-29.0,87.0
281.0,-12.0,-21.0,33.0,-339.0,184.0,986.0,-32.0,79.0
274.0,-12.0,-22.0,14.0,-349.0,171.0,977.0,-27.0,63.0
273.0,-13.0,-30.0,-17.0,-355.0,160.0,966.0,-29.0,54.0
267.0,-17.0,-28.0,-52.0,-357.0,152.0,960.0,-34.0,56.0
268.0,-17.0,-26.0,-84.0,-356.0,144.0,950.0,-44.0,45.0
266.0,-18.0,-30.0,-115.0,-354.0,141.0,937.0,-51.0,44.0
266.0,-19.0,-32.0,-147.0,-351.0,141.0,939.0,-50.0,41.0
270.0,-21.0,-34.0,-179.0,-343.0,147.0,957.0,-52.0,39.0
272.0,-21.0,-34.0,-212.0,-335.0,148.0,968.0,-60.0,42.0
280.0,-26.0,-30.0,-242.0,-327.0,146.0,981.0,-72.0,29.0
285.0,-31.0,-32.0,-267.0,-322.0,138.0,999.0,-79.0,34.0
287.0,-29.0,-34.0,-288.0,-322.0,127.0,1023.0,-88.0,32.0
296.0,-33.0,-32.0,-299.0,-319.0,111.0,1048.0,-98.0,27.0
296.0,-31.0,-41.0,-300.0,-310.0,97.0,1058.0,-104.0,11.0
298.0,-38.0,-44.0,-295.0,-292.0,81.0,1065.0,-112.0,9.0
298.0,-39.0,-42.0,-281.0,-266.0,68.0,1059.0,-120.0,6.0
300.0,-39.0,-45.0,-259.0,-234.0,60.0,1063.0,-117.0,-5.0
299.0,-40.0,-49.0,-233.0,-201.0,54.0,1061.0,-110.0,-19.0
303.0,-35.0,-52.0,-212.0,-173.0,47.0,1065.0,-110.0,-29.0
297.0,-36.0,-52.0,-195.0,-153.0,35.0,1065.0,-101.0,-31.0
296.0,-34.0,-52.0,-180.0,-146.0,18.0,1051.0,-96.0,-28.0
295.0,-34.0,-46.0,-171.0,-152.0,-4.0,1039.0,-97.0,-29.0
285.0,-30.0,-44.0,-167.0,-159.0,-31.0,1019.0,-101.0,-20.0
280.0,-33.0,-45.0,-168.0,-165.0,-59.0,1010.0,-95.0,-18.0
284.0,-31.0,-43.0,-172.0,-161.0,-81.0,1001.0,-90.0,-14.0
285.0,-31.0,-44.0,-180.0,-150.0,-99.0,1006.0,-97.0,-12.0
281.0,-30.0,-45.0,-193.0,-136.0,-114.0,1002.0,-87.0,-6.0
283.0,-28.0,-42.0,-206.0,-125.0,-124.0,992.0,-87.0,-8.0
279.0,-29.0,-48.0,-224.0,-120.0,-130.0,993.0,-83.0,-12.0
279.0,-29.0,-41.0,-249.0,-118.0,-133.0,990.0,-92.0,-4.0
280.0,-28.0,-47.0,-277.0,-119.0,-131.0,999.0,-90.0,-3.0
284.0,-35.0,-44.0,-309.0,-115.0,-126.0,983.0,-107.0,-4.0
281.0,-37.0,-46.0,-340.0,-108.0,-120.0,1000.0,-113.0,1.0
285.0,-40.0,-41.0,-361.0,-98.0,-115.0,1001.0,-125.0,2.0
285.0,-45.0,-42.0,-372.0,-90.0,-103.0,1016.0,-138.0,15.0
289.0,-48.0,-41.0,-362.0,-89.0,-88.0,1020.0,-143.0,17.0
290.0,-49.0,-41.0,-336.0,-85.0,-78.0,1027.0,-158.0,15.0
290.0,-53.0,-41.0,-298.0,-76.0,-66.0,1032.0,-161.0,9.0
295.0,-54.0,-39.0,-251.0,-61.0,-56.0,1035.0,-162.0,7.0
289.0,-51.0,-41.0,-203.0,-39.0,-47.0,1026.0,-156.0,8.0
290.0,-52.0,-40.0,-156.0,-12.0,-40.0,1028.0,-156.0,9.0
290.0,-47.0,-39.0,-114.0,14.0,-35.0,1030.0,-148.0,11.0
293.0,-47.0,-43.0,-72.0,41.0,-33.0,1032.0,-141.0,14.0
291.0,-48.0,-40.0,-39.0,63.0,-32.0,1028.0,-140.0,18.0
289.0,-44.0,-39.0,-5.0,80.0,-31.0,1030.0,-141.0,18.0
288.0,-44.0,-37.0,22.0,99.0,-33.0,1026.0,-139.0,19.0
290.0,-43.0,-36.0,51.0,115.0,-34.0,1019.0,-141.0,19.0
288.0,-44.0,-35.0,68.0,129.0,-36.0,1015.0,-134.0,21.0
287.0,-45.0,-35.0,79.0,143.0,-39.0,1014.0,-127.0,24.0
286.0,-34.0,-37.0,87.0,156.0,-41.0,1015.0,-120.0,21.0
283.0,-34.0,-38.0,90.0,167.0,-40.0,1010.0,-107.0,16.0
283.0,-35.0,-40.0,89.0,176.0,-37.0,1005.0,-100.0,16.0
284.0,-30.0,-43.0,84.0,183.0,-31.0,1009.0,-91.0,10.0
285.0,-30.0,-43.0,77.0,185.0,-29.0,1015.0,-84.0,19.0
281.0,-24.0,-39.0,63.0,185.0,-25.0,1007.0,-72.0,20.0
281.0,-23.0,-35.0,45.0,182.0,-16.0,994.0,-68.0,16.0
282.0,-26.0,-37.0,28.0,177.0,-9.0,1007.0,-70.0,24.0
279.0,-27.0,-34.0,9.0,171.0,-1.0,1002.0,-71.0,29.0
283.0,-28.0,-35.0,-6.0,167.0,5.0,1013.0,-72.0,31.0
283.0,-24.0,-32.0,-18.0,168.0,8.0,1008.0,-72.0,33.0
282.0,-26.0,-31.0,-28.0,168.0,12.0,1005.0,-72.0,37.0
282.0,-25.0,-31.0,-36.0,168.0,12.0,1005.0,-73.0,45.0
280.0,-25.0,-28.0,-48.0,168.0,13.0,994.0,-75.0,45.0
278.0,-28.0,-28.0,-57.0,168.0,11.0,990.0,-77.0,51.0
276.0,-30.0,-27.0,-70.0,165.0,12.0,983.0,-84.0,58.0
277.0,-29.0,-17.0,-85.0,163.0,11.0,984.0,-84.0,67.0
277.0,-31.0,-24.0,-95.0,162.0,12.0,978.0,-83.0,69.0
277.0,-33.0,-19.0,-106.0,162.0,10.0,980.0,-97.0,75.0
277.0,-33.0,-23.0,-111.0,162.0,10.0,987.0,-102.0,75.0
278.0,-34.0,-25.0,-109.0,159.0,9.0,985.0,-106.0,74.0
277.0,-34.0,-21.0,-104.0,155.0,8.0,985.0,-104.0,78.0
281.0,-34.0,-20.0,-100.0,148.0,5.0,986.0,-98.0,71.0
282.0,-33.0,-25.0,-94.0,141.0,1.0,989.0,-98.0,69.0
282.0,-29.0,-22.0,-92.0,132.0,-2.0,997.0,-96.0,66.0
282.0,-29.0,-26.0,-93.0,127.0,-2.0,993.0,-86.0,64.0
280.0,-28.0,-23.0,-95.0,122.0,-5.0,991.0,-92.0,71.0
279.0,-28.0,-26.0,-95.0,120.0,-8.0,1002.0,-85.0,65.0
277.0,-27.0,-24.0,-100.0,120.0,-10.0,995.0,-82.0,70.0
279.0,-31.0,-24.0,-105.0,120.0,-9.0,994.0,-85.0,72.0
281.0,-28.0,-22.0,-109.0,118.0,-9.0,993.0,-83.0,72.0
282.0,-30.0,-23.0,-109.0,117.0,-10.0,995.0,-88.0,71.0
282.0,-32.0,-19.0,-108.0,115.0,-9.0,991.0,-92.0,71.0
276.0,-33.0,-23.0,-101.0,115.0,-6.0,982.0,-97.0,75.0
278.0,-34.0,-21.0,-92.0,113.0,-6.0,980.0,-102.0,70.0
278.0,-32.0,-20.0,-80.0,115.0,-3.0,985.0,-105.0,75.0
280.0,-34.0,-22.0,-69.0,116.0,0.0,984.0,-99.0,72.0
281.0,-35.0,-23.0,-59.0,118.0,1.0,986.0,-100.0,69.0
278.0,-34.0,-21.0,-49.0,118.0,4.0,987.0,-108.0,70.0
278.0,-31.0,-24.0,-44.0,118.0,5.0,988.0,-98.0,75.0
281.0,-35.0,-22.0,-40.0,115.0,5.0,982.0,-100.0,74.0
276.0,-31.0,-25.0,-41.0,111.0,3.0,983.0,-99.0,74.0
279.0,-35.0,-21.0,-46.0,106.0,1.0,981.0,-103.0,80.0
276.0,-34.0,-21.0,-52.0,105.0,-2.0,976.0,-100.0,82.0
279.0,-34.0,-23.0,-56.0,103.0,-7.0,979.0,-104.0,88.0
279.0,-34.0,-21.0,-62.0,102.0,-12.0,984.0,-102.0,91.0
278.0,-31.0,-15.0,-69.0,103.0,-15.0,984.0,-101.0,85.0
278.0,-28.0,-22.0,-76.0,102.0,-19.0,1001.0,-96.0,84.0
282.0,-28.0,-18.0,-83.0,100.0,-17.0,1009.0,-84.0,80.0
282.0,-28.0,-23.0,-88.0,96.0,-15.0,1008.0,-83.0,70.0
283.0,-30.0,-24.0,-89.0,92.0,-11.0,1014.0,-89.0,73.0
284.0,-30.0,-23.0,-89.0,86.0,-6.0,1009.0,-86.0,65.0
283.0,-30.0,-27.0,-86.0,78.0,-2.0,1015.0,-89.0,58.0
284.0,-32.0,-24.0,-80.0,72.0,-1.0,1018.0,-94.0,58.0
285.0,-33.0,-24.0,-73.0,68.0,1.0,1012.0,-92.0,55.0
283.0,-32.0,-25.0,-65.0,67.0,2.0,1011.0,-101.0,61.0
282.0,-32.0,-27.0,-55.0,69.0,3.0,1008.0,-101.0,63.0
282.0,-28.0,-25.0,-46.0,73.0,4.0,999.0,-96.0,65.0
281.0,-34.0,-25.0,-39.0,80.0,5.0,995.0,-95.0,68.0
281.0,-30.0,-17.0,-36.0,85.0,7.0,999.0,-90.0,71.0
280.0,-29.0,-24.0,-39.0,92.0,10.0,996.0,-82.0,67.0
279.0,-27.0,-24.0,-43.0,98.0,14.0,988.0,-88.0,73.0
280.0,-30.0,-21.0,-53.0,103.0,18.0,988.0,-90.0,77.0
280.0,-31.0,-23.0,-60.0,107.0,20.0,991.0,-88.0,82.0
281.0,-31.0,-22.0,-67.0,108.0,22.0,990.0,-88.0,84.0
278.0,-31.0,-19.0,-74.0,106.0,23.0,983.0,-98.0,87.0
277.0,-32.0,-21.0,-79.0,103.0,23.0,986.0,-95.0,80.0
280.0,-30.0,-16.0,-83.0,102.0,23.0,984.0,-96.0,77.0
278.0,-28.0,-23.0,-79.0,102.0,19.0,988.0,-105.0,78.0
278.0,-35.0,-22.0,-71.0,103.0,17.0,987.0,-110.0,74.0
283.0,-35.0,-23.0,-63.0,105.0,14.0,990.0,-110.0,70.0
282.0,-35.0,-23.0,-52.0,110.0,11.0,1005.0,-107.0,73.0
280.0,-34.0,-24.0,-38.0,113.0,8.0,1005.0,-106.0,67.0
284.0,-32.0,-22.0,-25.0,118.0,4.0,1014.0,-100.0,71.0
287.0,-32.0,-25.0,-16.0,122.0,2.0,1011.0,-99.0,62.0
283.0,-34.0,-28.0,-11.0,126.0,0.0,1011.0,-93.0,62.0
285.0,-27.0,-25.0,-9.0,133.0,-1.0,1013.0,-89.0,59.0
285.0,-32.0,-26.0,-12.0,139.0,-2.0,1012.0,-88.0,57.0
288.0,-28.0,-30.0,-12.0,148.0,2.0,1016.0,-84.0,61.0
285.0,-28.0,-24.0,-12.0,158.0,3.0,1012.0,-79.0,64.0
284.0,-31.0,-26.0,-10.0,167.0,3.0,1010.0,-84.0,69.0
282.0,-27.0,-26.0,-9.0,175.0,4.0,1015.0,-83.0,71.0
284.0,-27.0,-24.0,-5.0,179.0,6.0,1013.0,-79.0,70.0
285.0,-28.0,-17.0,-5.0,178.0,6.0,1010.0,-78.0,73.0
281.0,-27.0,-19.0,-7.0,176.0,5.0,1009.0,-84.0,86.0
280.0,-29.0,-18.0,-12.0,170.0,3.0,1002.0,-87.0,95.0
281.0,-32.0,-16.0,-17.0,163.0,-2.0,992.0,-94.0,109.0
281.0,-31.0,-10.0,-16.0,153.0,-6.0,992.0,-106.0,115.0
276.0,-38.0,-12.0,-10.0,140.0,-11.0,988.0,-110.0,119.0
277.0,-36.0,-9.0,-3.0,128.0,-14.0,989.0,-116.0,129.0
280.0,-42.0,-13.0,4.0,117.0,-17.0,987.0,-121.0,123.0
279.0,-40.0,-9.0,12.0,109.0,-23.0,983.0,-116.0,120.0
278.0,-38.0,-14.0,23.0,102.0,-27.0,980.0,-116.0,110.0
276.0,-36.0,-16.0,29.0,101.0,-31.0,977.0,-109.0,99.0
278.0,-36.0,-19.0,35.0,103.0,-34.0,974.0,-101.0,92.0
276.0,-29.0,-23.0,38.0,111.0,-37.0,976.0,-94.0,77.0
274.0,-27.0,-21.0,40.0,120.0,-38.0,979.0,-86.0,69.0
278.0,-24.0,-26.0,43.0,133.0,-37.0,975.0,-79.0,66.0
278.0,-27.0,-27.0,45.0,145.0,-37.0,981.0,-75.0,66.0
277.0,-22.0,-23.0,43.0,154.0,-37.0,986.0,-68.0,70.0
283.0,-25.0,-21.0,39.0,159.0,-36.0,992.0,-61.0,77.0
280.0,-24.0,-18.0,28.0,161.0,-38.0,1002.0,-65.0,91.0
281.0,-24.0,-16.0,14.0,158.0,-42.0,990.0,-70.0,101.0
278.0,-23.0,-13.0,-2.0,152.0,-47.0,996.0,-71.0,114.0
278.0,-26.0,-11.0,-25.0,146.0,-53.0,992.0,-71.0,115.0
281.0,-27.0,-9.0,-48.0,138.0,-58.0,990.0,-80.0,122.0
277.0,-31.0,-7.0,-68.0,131.0,-61.0,988.0,-85.0,130.0
274.0,-32.0,-1.0,-81.0,127.0,-64.0,986.0,-97.0,135.0
276.0,-34.0,-2.0,-85.0,125.0,-67.0,981.0,-107.0,144.0
278.0,-38.0,-2.0,-84.0,126.0,-69.0,976.0,-113.0,146.0
274.0,-37.0,-4.0,-76.0,124.0,-73.0,969.0,-112.0,139.0
275.0,-37.0,0.0,-66.0,123.0,-76.0,974.0,-116.0,145.0
274.0,-35.0,-5.0,-56.0,122.0,-79.0,971.0,-118.0,133.0
275.0,-38.0,-3.0,-45.0,119.0,-80.0,972.0,-113.0,137.0
275.0,-37.0,-7.0,-36.0,115.0,-80.0,975.0,-105.0,137.0
271.0,-31.0,-2.0,-28.0,106.0,-79.0,973.0,-97.0,136.0
272.0,-32.0,-3.0,-23.0,98.0,-75.0,969.0,-93.0,137.0
274.0,-30.0,-5.0,-18.0,87.0,-71.0,973.0,-86.0,140.0
276.0,-28.0,-4.0,-13.0,75.0,-66.0,974.0,-81.0,142.0
278.0,-27.0,-3.0,-10.0,66.0,-61.0,977.0,-79.0,139.0
276.0,-27.0,-4.0,-4.0,54.0,-56.0,980.0,-77.0,141.0
276.0,-26.0,-5.0,1.0,44.0,-52.0,980.0,-74.0,139.0
277.0,-27.0,-7.0,6.0,36.0,-50.0,977.0,-77.0,146.0
276.0,-27.0,-5.0,12.0,31.0,-46.0,977.0,-73.0,142.0
279.0,-29.0,-7.0,16.0,31.0,-44.0,979.0,-70.0,143.0
275.0,-25.0,-6.0,20.0,33.0,-40.0,983.0,-69.0,140.0
277.0,-23.0,-4.0,24.0,35.0,-38.0,982.0,-66.0,135.0
279.0,-24.0,-9.0,25.0,37.0,-38.0,979.0,-66.0,137.0
278.0,-24.0,-4.0,27.0,36.0,-40.0,982.0,-67.0,133.0
277.0,-25.0,-7.0,31.0,36.0,-39.0,979.0,-71.0,137.0
275.0,-22.0,-5.0,35.0,34.0,-40.0,978.0,-63.0,136.0
275.0,-23.0,-3.0,36.0,29.0,-39.0,975.0,-69.0,133.0
278.0,-26.0,-5.0,36.0,25.0,-38.0,983.0,-69.0,135.0
277.0,-24.0,-5.0,36.0,19.0,-36.0,983.0,-66.0,133.0
277.0,-25.0,-4.0,36.0,14.0,-31.0,987.0,-60.0,132.0
278.0,-25.0,-7.0,38.0,10.0,-27.0,986.0,-64.0,133.0
281.0,-25.0,-12.0,38.0,5.0,-25.0,989.0,-62.0,128.0
277.0,-22.0,-7.0,39.0,-1.0,-19.0,985.0,-63.0,126.0
280.0,-22.0,-6.0,37.0,-6.0,-13.0,991.0,-59.0,129.0
280.0,-23.0,-6.0,37.0,-12.0,-9.0,989.0,-64.0,130.0
278.0,-23.0,-10.0,36.0,-17.0,-6.0,987.0,-64.0,127.0
279.0,-25.0,-10.0,35.0,-20.0,-1.0,989.0,-64.0,124.0
278.0,-25.0,-7.0,34.0,-23.0,0.0,983.0,-67.0,121.0
278.0,-27.0,-10.0,34.0,-25.0,2.0,979.0,-73.0,122.0
278.0,-22.0,-9.0,33.0,-25.0,5.0,987.0,-70.0,123.0
277.0,-25.0,-8.0,33.0,-25.0,8.0,981.0,-74.0,122.0
278.0,-26.0,-8.0,34.0,-23.0,10.0,983.0,-78.0,124.0
281.0,-26.0,-8.0,33.0,-20.0,13.0,983.0,-76.0,124.0
278.0,-27.0,-8.0,35.0,-19.0,14.0,989.0,-79.0,126.0
279.0,-26.0,-8.0,40.0,-18.0,17.0,992.0,-70.0,122.0
278.0,-26.0,-14.0,47.0,-18.0,16.0,990.0,-70.0,120.0
281.0,-27.0,-17.0,52.0,-16.0,17.0,987.0,-69.0,114.0
281.0,-21.0,-13.0,54.0,-15.0,17.0,990.0,-62.0,117.0
279.0,-24.0,-9.0,50.0,-15.0,20.0,998.0,-63.0,115.0
279.0,-21.0,-12.0,44.0,-17.0,20.0,998.0,-65.0,113.0
280.0,-20.0,-11.0,38.0,-23.0,21.0,1000.0,-60.0,118.0
279.0,-22.0,-13.0,31.0,-29.0,22.0,999.0,-59.0,115.0
280.0,-22.0,-7.0,28.0,-38.0,24.0,992.0,-63.0,113.0
279.0,-25.0,-14.0,26.0,-44.0,25.0,995.0,-67.0,115.0
278.0,-26.0,-14.0,21.0,-49.0,26.0,991.0,-69.0,112.0
282.0,-29.0,-13.0,16.0,-52.0,29.0,997.0,-74.0,115.0
277.0,-31.0,-9.0,11.0,-52.0,32.0,986.0,-85.0,116.0
278.0,-31.0,-8.0,8.0,-52.0,35.0,990.0,-90.0,120.0
279.0,-31.0,-10.0,7.0,-49.0,37.0,985.0,-99.0,121.0
279.0,-32.0,-6.0,7.0,-45.0,38.0,989.0,-97.0,122.0
277.0,-33.0,-12.0,7.0,-43.0,35.0,988.0,-99.0,123.0
279.0,-32.0,-9.0,8.0,-42.0,34.0,987.0,-102.0,128.0
279.0,-34.0,-11.0,9.0,-42.0,33.0,989.0,-103.0,123.0
281.0,-31.0,-11.0,12.0,-47.0,28.0,989.0,-101.0,121.0
278.0,-32.0,-11.0,12.0,-54.0,24.0,992.0,-96.0,116.0
280.0,-28.0,-16.0,12.0,-60.0,19.0,990.0,-91.0,112.0
283.0,-29.0,-13.0,10.0,-62.0,17.0,988.0,-86.0,111.0
276.0,-28.0,-12.0,7.0,-67.0,15.0,987.0,-89.0,110.0
278.0,-25.0,-11.0,6.0,-69.0,14.0,980.0,-83.0,115.0
280.0,-26.0,-15.0,6.0,-69.0,16.0,983.0,-79.0,107.0
278.0,-29.0,-17.0,7.0,-70.0,17.0,986.0,-74.0,115.0
279.0,-24.0,-14.0,5.0,-68.0,20.0,985.0,-67.0,103.0
281.0,-26.0,-13.0,2.0,-69.0,22.0,985.0,-67.0,105.0
275.0,-23.0,-11.0,-2.0,-70.0,24.0,986.0,-65.0,103.0
279.0,-26.0,-13.0,-8.0,-70.0,25.0,991.0,-69.0,104.0
280.0,-24.0,-18.0,-16.0,-71.0,25.0,994.0,-72.0,100.0
278.0,-23.0,-15.0,-22.0,-73.0,24.0,996.0,-69.0,99.0
280.0,-25.0,-13.0,-30.0,-72.0,23.0,991.0,-76.0,98.0
282.0,-26.0,-18.0,-35.0,-74.0,22.0,993.0,-79.0,95.0
283.0,-30.0,-14.0,-42.0,-75.0,19.0,1005.0,-76.0,98.0
284.0,-28.0,-15.0,-45.0,-77.0,17.0,996.0,-83.0,97.0
280.0,-29.0,-18.0,-47.0,-80.0,13.0,1002.0,-84.0,97.0
279.0,-27.0,-19.0,-51.0,-85.0,8.0,998.0,-82.0,98.0
281.0,-31.0,-16.0,-52.0,-87.0,4.0,991.0,-83.0,105.0
278.0,-31.0,-14.0,-55.0,-90.0,-2.0,988.0,-91.0,102.0
278.0,-32.0,-19.0,-55.0,-90.0,-3.0,989.0,-97.0,101.0
277.0,-32.0,-19.0,-59.0,-90.0,-6.0,993.0,-99.0,99.0
277.0,-31.0,-13.0,-63.0,-92.0,-11.0,987.0,-98.0,99.0
280.0,-32.0,-16.0,-70.0,-92.0,-15.0,988.0,-110.0,94.0
282.0,-34.0,-19.0,-78.0,-89.0,-20.0,985.0,-105.0,101.0
279.0,-35.0,-16.0,-87.0,-87.0,-24.0,986.0,-114.0,100.0
280.0,-34.0,-16.0,-96.0,-89.0,-27.0,990.0,-110.0,97.0
277.0,-33.0,-15.0,-101.0,-90.0,-30.0,988.0,-108.0,100.0
278.0,-33.0,-16.0,-104.0,-91.0,-32.0,997.0,-108.0,96.0
281.0,-36.0,-16.0,-104.0,-89.0,-35.0,1005.0,-109.0,93.0
281.0,-37.0,-19.0,-95.0,-85.0,-34.0,1005.0,-116.0,91.0
281.0,-33.0,-22.0,-83.0,-79.0,-34.0,999.0,-106.0,80.0
283.0,-35.0,-22.0,-72.0,-69.0,-33.0,1006.0,-102.0,74.0
284.0,-32.0,-24.0,-59.0,-56.0,-31.0,1008.0,-102.0,72.0
284.0,-33.0,-25.0,-52.0,-47.0,-28.0,1011.0,-99.0,66.0
282.0,-32.0,-26.0,-44.0,-38.0,-24.0,1006.0,-94.0,65.0
283.0,-30.0,-24.0,-41.0,-29.0,-20.0,1009.0,-93.0,62.0
283.0,-28.0,-26.0,-40.0,-17.0,-18.0,1007.0,-87.0,60.0
284.0,-30.0,-24.0,-41.0,-5.0,-16.0,1018.0,-82.0,60.0
283.0,-28.0,-25.0,-39.0,4.0,-15.0,1011.0,-79.0,63.0
282.0,-28.0,-24.0,-38.0,12.0,-14.0,1018.0,-76.0,64.0
286.0,-23.0,-21.0,-39.0,18.0,-13.0,1015.0,-68.0,65.0
286.0,-25.0,-23.0,-41.0,21.0,-12.0,1012.0,-67.0,71.0
284.0,-26.0,-22.0,-45.0,24.0,-10.0,1009.0,-67.0,72.0
286.0,-25.0,-22.0,-50.0,28.0,-9.0,1018.0,-74.0,78.0
288.0,-23.0,-21.0,-53.0,35.0,-9.0,1018.0,-67.0,72.0
284.0,-23.0,-23.0,-55.0,42.0,-9.0,1016.0,-68.0,74.0
285.0,-24.0,-24.0,-60.0,48.0,-12.0,1015.0,-69.0,70.0
283.0,-23.0,-26.0,-64.0,52.0,-11.0,1014.0,-62.0,66.0
283.0,-25.0,-28.0,-70.0,53.0,-13.0,1016.0,-63.0,68.0
284.0,-25.0,-22.0,-75.0,51.0,-15.0,1011.0,-59.0,70.0
283.0,-22.0,-19.0,-81.0,52.0,-13.0,1008.0,-60.0,73.0
284.0,-22.0,-26.0,-84.0,50.0,-13.0,1002.0,-61.0,72.0
285.0,-24.0,-21.0,-89.0,50.0,-12.0,1008.0,-60.0,72.0
281.0,-22.0,-24.0,-92.0,53.0,-10.0,1006.0,-63.0,76.0
281.0,-24.0,-24.0,-97.0,57.0,-8.0,1001.0,-71.0,76.0
282.0,-29.0,-22.0,-101.0,58.0,-5.0,1001.0,-78.0,85.0
282.0,-29.0,-16.0,-100.0,61.0,-4.0,995.0,-80.0,89.0
282.0,-27.0,-19.0,-102.0,64.0,-3.0,1007.0,-81.0,89.0
280.0,-30.0,-15.0,-97.0,70.0,-3.0,1002.0,-82.0,95.0
278.0,-27.0,-18.0,-93.0,76.0,-5.0,990.0,-80.0,95.0
280.0,-25.0,-15.0,-90.0,77.0,-9.0,991.0,-77.0,101.0
278.0,-24.0,-16.0,-86.0,73.0,-15.0,984.0,-69.0,98.0
277.0,-26.0,-12.0,-88.0,68.0,-19.0,984.0,-71.0,102.0
281.0,-24.0,-15.0,-89.0,65.0,-18.0,986.0,-64.0,106.0
279.0,-23.0,-18.0,-91.0,64.0,-20.0,987.0,-65.0,107.0
277.0,-23.0,-17.0,-96.0,65.0,-20.0,987.0,-64.0,98.0
279.0,-23.0,-19.0,-99.0,65.0,-19.0,987.0,-61.0,99.0
277.0,-20.0,-15.0,-99.0,63.0,-21.0,987.0,-59.0,105.0
281.0,-25.0,-12.0,-100.0,61.0,-20.0,987.0,-55.0,100.0
280.0,-20.0,-15.0,-100.0,60.0,-20.0,990.0,-56.0,107.0
279.0,-22.0,-12.0,-104.0,56.0,-20.0,990.0,-60.0,102.0
280.0,-24.0,-12.0,-110.0,50.0,-21.0,998.0,-63.0,106.0
281.0,-26.0,-13.0,-114.0,44.0,-21.0,986.0,-73.0,108.0
277.0,-21.0,-11.0,-114.0,37.0,-23.0,995.0,-79.0,114.0
280.0,-27.0,-10.0,-113.0,29.0,-26.0,992.0,-82.0,114.0
280.0,-32.0,-10.0,-107.0,22.0,-26.0,985.0,-89.0,120.0
277.0,-32.0,-11.0,-98.0,15.0,-26.0,982.0,-96.0,121.0
278.0,-31.0,-10.0,-86.0,8.0,-28.0,987.0,-97.0,120.0
279.0,-33.0,-13.0,-76.0,1.0,-29.0,987.0,-100.0,120.0
279.0,-33.0,-10.0,-68.0,-5.0,-30.0,981.0,-95.0,119.0
276.0,-27.0,-6.0,-62.0,-6.0,-32.0,977.0,-96.0,121.0
276.0,-30.0,-10.0,-58.0,-8.0,-34.0,977.0,-85.0,125.0
276.0,-32.0,-9.0,-52.0,-9.0,-36.0,975.0,-83.0,123.0
274.0,-29.0,-10.0,-51.0,-11.0,-36.0,974.0,-85.0,124.0
275.0,-28.0,-9.0,-47.0,-10.0,-37.0,973.0,-88.0,123.0
275.0,-29.0,-10.0,-44.0,-10.0,-38.0,972.0,-81.0,122.0
275.0,-27.0,-9.0,-41.0,-10.0,-36.0,977.0,-84.0,122.0
278.0,-31.0,-13.0,-38.0,-9.0,-36.0,980.0,-87.0,122.0
277.0,-30.0,-8.0,-32.0,-10.0,-35.0,978.0,-86.0,122.0
276.0,-28.0,-9.0,-26.0,-14.0,-35.0,983.0,-85.0,119.0
276.0,-30.0,-13.0,-24.0,-20.0,-32.0,980.0,-79.0,120.0
279.0,-30.0,-9.0,-19.0,-28.0,-29.0,982.0,-84.0,121.0
278.0,-28.0,-8.0,-16.0,-34.0,-27.0,980.0,-79.0,120.0
277.0,-29.0,-8.0,-14.0,-42.0,-26.0,978.0,-80.0,119.0
277.0,-27.0,-14.0,-17.0,-49.0,-23.0,982.0,-77.0,116.0
278.0,-27.0,-10.0,-16.0,-53.0,-21.0,985.0,-79.0,114.0
278.0,-26.0,-13.0,-14.0,-56.0,-20.0,984.0,-83.0,116.0
277.0,-31.0,-12.0,-14.0,-60.0,-18.0,980.0,-82.0,111.0
277.0,-28.0,-16.0,-12.0,-62.0,-19.0,980.0,-85.0,114.0
276.0,-31.0,-13.0,-9.0,-64.0,-18.0,988.0,-83.0,109.0
277.0,-29.0,-9.0,-9.0,-66.0,-16.0,987.0,-87.0,114.0
281.0,-29.0,-12.0,-7.0,-69.0,-15.0,984.0,-89.0,113.0
282.0,-33.0,-11.0,-2.0,-72.0,-13.0,985.0,-91.0,118.0
281.0,-32.0,-11.0,6.0,-78.0,-11.0,993.0,-93.0,115.0
278.0,-31.0,-10.0,15.0,-84.0,-11.0,991.0,-94.0,114.0
280.0,-27.0,-13.0,23.0,-88.0,-12.0,992.0,-85.0,107.0
279.0,-28.0,-9.0,25.0,-95.0,-12.0,988.0,-80.0,107.0
281.0,-31.0,-16.0,27.0,-99.0,-12.0,987.0,-83.0,104.0
281.0,-28.0,-17.0,29.0,-106.0,-11.0,988.0,-84.0,109.0
277.0,-29.0,-11.0,30.0,-111.0,-9.0,983.0,-81.0,109.0
277.0,-28.0,-16.0,30.0,-117.0,-10.0,986.0,-86.0,100.0
280.0,-32.0,-15.0,31.0,-122.0,-10.0,987.0,-86.0,102.0
281.0,-29.0,-17.0,35.0,-126.0,-9.0,991.0,-89.0,101.0
282.0,-32.0,-18.0,39.0,-129.0,-10.0,994.0,-94.0,95.0
281.0,-32.0,-20.0,45.0,-134.0,-11.0,987.0,-90.0,97.0
277.0,-35.0,-18.0,53.0,-136.0,-11.0,989.0,-96.0,84.0
279.0,-33.0,-17.0,62.0,-134.0,-13.0,986.0,-97.0,82.0
279.0,-31.0,-23.0,67.0,-131.0,-16.0,989.0,-97.0,79.0
280.0,-28.0,-20.0,71.0,-128.0,-19.0,990.0,-89.0,73.0
276.0,-27.0,-23.0,75.0,-126.0,-22.0,987.0,-83.0,74.0
279.0,-25.0,-24.0,73.0,-126.0,-24.0,992.0,-79.0,76.0
282.0,-28.0,-19.0,70.0,-124.0,-25.0,998.0,-78.0,73.0
282.0,-27.0,-25.0,67.0,-121.0,-27.0,995.0,-74.0,75.0
282.0,-30.0,-25.0,66.0,-121.0,-26.0,997.0,-84.0,74.0
283.0,-28.0,-23.0,68.0,-122.0,-26.0,1011.0,-80.0,71.0
283.0,-29.0,-26.0,69.0,-120.0,-24.0,1015.0,-79.0,61.0
285.0,-24.0,-30.0,74.0,-118.0,-20.0,1007.0,-69.0,51.0
282.0,-26.0,-29.0,77.0,-114.0,-17.0,1008.0,-70.0,47.0
282.0,-23.0,-30.0,75.0,-112.0,-14.0,1006.0,-66.0,50.0
282.0,-23.0,-30.0,69.0,-111.0,-12.0,997.0,-62.0,55.0
281.0,-24.0,-26.0,59.0,-111.0,-9.0,999.0,-61.0,58.0
281.0,-23.0,-25.0,49.0,-111.0,-5.0,998.0,-71.0,65.0
281.0,-22.0,-26.0,44.0,-115.0,-4.0,1011.0,-67.0,69.0
281.0,-28.0,-22.0,41.0,-120.0,-3.0,1007.0,-72.0,68.0
283.0,-28.0,-28.0,42.0,-126.0,-4.0,1008.0,-74.0,62.0
283.0,-24.0,-29.0,45.0,-126.0,-3.0,1013.0,-70.0,53.0
283.0,-27.0,-27.0,49.0,-122.0,-3.0,1011.0,-73.0,54.0
283.0,-27.0,-30.0,53.0,-116.0,-2.0,1013.0,-75.0,51.0
284.0,-27.0,-28.0,56.0,-107.0,-3.0,1001.0,-78.0,51.0
284.0,-28.0,-29.0,58.0,-99.0,-3.0,1001.0,-77.0,53.0
280.0,-26.0,-27.0,60.0,-95.0,-4.0,1002.0,-78.0,54.0
280.0,-25.0,-25.0,62.0,-92.0,-4.0,996.0,-69.0,57.0
283.0,-28.0,-25.0,62.0,-89.0,-5.0,1000.0,-73.0,60.0
281.0,-24.0,-25.0,61.0,-86.0,0.0,995.0,-67.0,64.0
280.0,-25.0,-20.0,59.0,-85.0,6.0,992.0,-64.0,65.0
281.0,-24.0,-25.0,54.0,-86.0,11.0,1001.0,-69.0,69.0
282.0,-24.0,-24.0,52.0,-88.0,15.0,1005.0,-65.0,67.0
281.0,-20.0,-25.0,52.0,-92.0,18.0,1001.0,-61.0,66.0
283.0,-21.0,-23.0,53.0,-97.0,21.0,1009.0,-53.0,64.0
281.0,-22.0,-26.0,55.0,-101.0,21.0,995.0,-49.0,59.0
277.0,-17.0,-27.0,54.0,-104.0,22.0,995.0,-47.0,61.0
283.0,-17.0,-30.0,51.0,-107.0,21.0,998.0,-42.0,52.0
282.0,-19.0,-24.0,50.0,-105.0,21.0,997.0,-40.0,51.0
280.0,-16.0,-26.0,45.0,-103.0,21.0,991.0,-37.0,53.0
277.0,-16.0,-26.0,39.0,-102.0,22.0,986.0,-35.0,57.0
278.0,-15.0,-30.0,33.0,-105.0,22.0,980.0,-40.0,58.0
278.0,-17.0,-29.0,25.0,-106.0,25.0,985.0,-40.0,59.0
280.0,-19.0,-29.0,18.0,-108.0,25.0,987.0,-43.0,61.0
282.0,-21.0,-27.0,14.0,-108.0,24.0,988.0,-44.0,58.0
278.0,-21.0,-26.0,12.0,-107.0,22.0,995.0,-49.0,57.0
280.0,-21.0,-27.0,10.0,-111.0,20.0,988.0,-52.0,64.0
278.0,-24.0,-27.0,8.0,-115.0,21.0,991.0,-61.0,64.0
279.0,-24.0,-20.0,6.0,-120.0,22.0,990.0,-65.0,68.0
280.0,-25.0,-26.0,5.0,-124.0,24.0,984.0,-66.0,70.0
278.0,-23.0,-23.0,4.0,-129.0,24.0,988.0,-73.0,70.0
277.0,-26.0,-23.0,5.0,-135.0,27.0,984.0,-63.0,70.0
279.0,-25.0,-27.0,4.0,-142.0,30.0,982.0,-66.0,71.0
274.0,-23.0,-22.0,5.0,-151.0,31.0,976.0,-61.0,70.0
275.0,-22.0,-26.0,2.0,-161.0,31.0,983.0,-61.0,65.0
274.0,-19.0,-23.0,-3.0,-168.0,31.0,982.0,-56.0,58.0
280.0,-22.0,-30.0,-12.0,-173.0,29.0,979.0,-59.0,55.0
276.0,-21.0,-25.0,-20.0,-171.0,30.0,989.0,-57.0,58.0
282.0,-21.0,-25.0,-21.0,-168.0,31.0,1000.0,-52.0,56.0
282.0,-22.0,-27.0,-20.0,-166.0,31.0,1001.0,-59.0,62.0
283.0,-24.0,-32.0,-16.0,-166.0,31.0,1010.0,-60.0,54.0
282.0,-20.0,-31.0,-11.0,-172.0,31.0,1010.0,-56.0,53.0
284.0,-22.0,-33.0,-7.0,-186.0,28.0,998.0,-50.0,48.0
282.0,-21.0,-30.0,-6.0,-201.0,28.0,993.0,-49.0,42.0
279.0,-17.0,-30.0,-5.0,-215.0,30.0,991.0,-50.0,44.0
283.0,-19.0,-30.0,-1.0,-225.0,33.0,992.0,-49.0,39.0
279.0,-18.0,-34.0,1.0,-233.0,35.0,996.0,-45.0,39.0
278.0,-19.0,-34.0,2.0,-235.0,41.0,988.0,-48.0,36.0
281.0,-20.0,-32.0,3.0,-235.0,46.0,997.0,-55.0,39.0
278.0,-22.0,-36.0,5.0,-235.0,51.0,989.0,-60.0,41.0
281.0,-23.0,-34.0,4.0,-236.0,59.0,987.0,-61.0,46.0
281.0,-26.0,-29.0,2.0,-243.0,65.0,991.0,-68.0,55.0
289.0,-22.0,-21.0,0.0,-252.0,71.0,998.0,-70.0,58.0
283.0,-25.0,-28.0,-1.0,-264.0,73.0,1000.0,-71.0,56.0
281.0,-23.0,-29.0,1.0,-277.0,71.0,997.0,-72.0,54.0
279.0,-21.0,-29.0,6.0,-286.0,67.0,998.0,-61.0,51.0
276.0,-23.0,-40.0,9.0,-289.0,64.0,990.0,-60.0,39.0
276.0,-16.0,-34.0,13.0,-282.0,63.0,986.0,-46.0,25.0
279.0,-16.0,-39.0,13.0,-270.0,65.0,984.0,-45.0,24.0
279.0,-17.0,-34.0,11.0,-257.0,72.0,989.0,-37.0,20.0
278.0,-16.0,-42.0,9.0,-249.0,84.0,988.0,-32.0,22.0
282.0,-18.0,-41.0,9.0,-246.0,97.0,993.0,-37.0,14.0
277.0,-12.0,-44.0,9.0,-243.0,110.0,1002.0,-40.0,14.0
282.0,-20.0,-41.0,12.0,-243.0,124.0,1014.0,-41.0,13.0
284.0,-17.0,-39.0,15.0,-246.0,133.0,1018.0,-40.0,10.0
284.0,-18.0,-37.0,16.0,-255.0,142.0,1019.0,-44.0,14.0
283.0,-19.0,-37.0,14.0,-270.0,150.0,1017.0,-40.0,8.0
284.0,-16.0,-43.0,9.0,-286.0,160.0,1016.0,-38.0,7.0
282.0,-16.0,-43.0,-1.0,-307.0,169.0,1013.0,-33.0,1.0
281.0,-14.0,-46.0,-14.0,-322.0,180.0,996.0,-32.0,-6.0
281.0,-18.0,-51.0,-25.0,-330.0,191.0,1003.0,-30.0,-13.0
282.0,-13.0,-49.0,-34.0,-332.0,198.0,1008.0,-36.0,-26.0
282.0,-18.0,-52.0,-44.0,-333.0,205.0,992.0,-36.0,-25.0
269.0,-17.0,-45.0,-53.0,-337.0,210.0,1001.0,-25.0,-27.0
284.0,-14.0,-48.0,-72.0,-350.0,211.0,1002.0,-30.0,-25.0
281.0,-11.0,-48.0,-91.0,-367.0,213.0,1003.0,-26.0,-26.0
285.0,-17.0,-49.0,-114.0,-377.0,214.0,1008.0,-41.0,-29.0
284.0,-21.0,-49.0,-130.0,-381.0,214.0,1012.0,-47.0,-40.0
282.0,-23.0,-51.0,-143.0,-385.0,210.0,1009.0,-59.0,-38.0
284.0,-29.0,-53.0,-149.0,-382.0,207.0,1002.0,-76.0,-46.0
287.0,-28.0,-53.0,-145.0,-376.0,206.0,1018.0,-87.0,-48.0
285.0,-32.0,-56.0,-139.0,-369.0,201.0,1017.0,-83.0,-46.0
288.0,-32.0,-55.0,-128.0,-362.0,199.0,1022.0,-88.0,-43.0
288.0,-34.0,-51.0,-113.0,-355.0,199.0,1017.0,-97.0,-32.0
295.0,-37.0,-63.0,-98.0,-353.0,202.0,1014.0,-95.0,-37.0
285.0,-34.0,-48.0,-81.0,-352.0,208.0,1017.0,-97.0,-44.0
286.0,-33.0,-50.0,-67.0,-352.0,215.0,1019.0,-96.0,-51.0
282.0,-30.0,-52.0,-54.0,-351.0,221.0,1014.0,-92.0,-49.0
282.0,-31.0,-57.0,-41.0,-349.0,231.0,1007.0,-98.0,-50.0
279.0,-32.0,-56.0,-31.0,-348.0,240.0,1002.0,-90.0,-61.0
282.0,-31.0,-59.0,-23.0,-344.0,248.0,1002.0,-90.0,-65.0
282.0,-30.0,-58.0,-16.0,-336.0,253.0,1001.0,-93.0,-72.0
284.0,-32.0,-61.0,-11.0,-322.0,260.0,995.0,-95.0,-75.0
285.0,-34.0,-63.0,-10.0,-308.0,271.0,1009.0,-97.0,-78.0
282.0,-31.0,-61.0,-12.0,-298.0,280.0,1002.0,-103.0,-72.0
276.0,-30.0,-61.0,-9.0,-290.0,288.0,1007.0,-104.0,-84.0
287.0,-38.0,-64.0,-6.0,-279.0,292.0,1012.0,-110.0,-89.0
277.0,-37.0,-64.0,-7.0,-267.0,294.0,1011.0,-118.0,-91.0
285.0,-39.0,-64.0,-8.0,-251.0,293.0,1013.0,-112.0,-95.0
288.0,-37.0,-69.0,-9.0,-238.0,291.0,1012.0,-117.0,-103.0
286.0,-38.0,-68.0,-12.0,-224.0,287.0,1012.0,-121.0,-100.0
284.0,-41.0,-65.0,-14.0,-215.0,287.0,1007.0,-122.0,-102.0
284.0,-40.0,-69.0,-14.0,-208.0,290.0,1005.0,-121.0,-104.0
292.0,-36.0,-69.0,-18.0,-199.0,302.0,1038.0,-107.0,-95.0
276.0,-39.0,-68.0,-25.0,-198.0,329.0,974.0,-134.0,-126.0
278.0,-43.0,-65.0,-50.0,-181.0,317.0,979.0,-131.0,-106.0
291.0,-37.0,-74.0,-69.0,-170.0,317.0,989.0,-128.0,-108.0
280.0,-39.0,-69.0,-96.0,-159.0,319.0,989.0,-133.0,-113.0
283.0,-42.0,-73.0,-124.0,-143.0,326.0,998.0,-129.0,-124.0
282.0,-41.0,-70.0,-153.0,-121.0,334.0,998.0,-139.0,-119.0
283.0,-47.0,-66.0,-179.0,-101.0,344.0,1001.0,-140.0,-111.0
281.0,-46.0,-68.0,-198.0,-86.0,358.0,1002.0,-145.0,-100.0
282.0,-47.0,-67.0,-210.0,-83.0,371.0,1014.0,-148.0,-111.0
282.0,-52.0,-64.0,-227.0,-87.0,388.0,1008.0,-157.0,-108.0
284.0,-51.0,-67.0,-237.0,-92.0,407.0,1015.0,-171.0,-102.0
288.0,-51.0,-65.0,-240.0,-96.0,426.0,1024.0,-171.0,-97.0
280.0,-59.0,-73.0,-234.0,-103.0,461.0,980.0,-191.0,-123.0
272.0,-60.0,-55.0,-226.0,-88.0,453.0,968.0,-201.0,-118.0
276.0,-63.0,-71.0,-203.0,-77.0,451.0,971.0,-204.0,-129.0
279.0,-60.0,-76.0,-171.0,-71.0,458.0,1000.0,-192.0,-139.0
274.0,-60.0,-77.0,-156.0,-58.0,464.0,973.0,-197.0,-138.0
273.0,-61.0,-74.0,-144.0,-42.0,477.0,965.0,-192.0,-139.0
272.0,-59.0,-73.0,-138.0,-28.0,488.0,960.0,-199.0,-147.0
270.0,-61.0,-78.0,-134.0,-7.0,496.0,961.0,-195.0,-152.0
271.0,-60.0,-81.0,-124.0,14.0,505.0,963.0,-200.0,-165.0
271.0,-63.0,-77.0,-108.0,38.0,510.0,954.0,-201.0,-174.0
270.0,-61.0,-79.0,-90.0,60.0,516.0,960.0,-197.0,-169.0
273.0,-62.0,-85.0,-74.0,77.0,513.0,974.0,-198.0,-163.0
277.0,-61.0,-96.0,-59.0,91.0,512.0,973.0,-208.0,-166.0
281.0,-59.0,-81.0,-39.0,94.0,510.0,981.0,-205.0,-167.0
275.0,-59.0,-84.0,-22.0,95.0,498.0,976.0,-193.0,-158.0
274.0,-56.0,-82.0,-11.0,95.0,496.0,977.0,-183.0,-167.0
275.0,-55.0,-82.0,-12.0,103.0,493.0,984.0,-182.0,-169.0
276.0,-55.0,-76.0,-20.0,108.0,486.0,986.0,-187.0,-141.0
280.0,-57.0,-81.0,-31.0,105.0,484.0,992.0,-191.0,-138.0
277.0,-61.0,-75.0,-44.0,98.0,485.0,988.0,-203.0,-136.0
281.0,-61.0,-74.0,-49.0,85.0,487.0,987.0,-214.0,-130.0
278.0,-62.0,-79.0,-51.0,78.0,487.0,986.0,-211.0,-138.0
277.0,-61.0,-80.0,-55.0,78.0,481.0,978.0,-209.0,-155.0
266.0,-71.0,-65.0,-66.0,87.0,471.0,956.0,-213.0,-147.0
265.0,-64.0,-74.0,-76.0,92.0,477.0,953.0,-227.0,-130.0
277.0,-64.0,-72.0,-80.0,92.0,484.0,971.0,-231.0,-131.0
271.0,-68.0,-73.0,-90.0,94.0,479.0,958.0,-236.0,-119.0
270.0,-70.0,-69.0,-100.0,92.0,484.0,958.0,-244.0,-111.0
272.0,-73.0,-69.0,-107.0,92.0,488.0,959.0,-256.0,-103.0
278.0,-73.0,-69.0,-117.0,87.0,487.0,987.0,-253.0,-109.0
271.0,-78.0,-69.0,-131.0,91.0,474.0,965.0,-260.0,-110.0
273.0,-81.0,-69.0,-132.0,94.0,481.0,969.0,-271.0,-107.0
269.0,-81.0,-66.0,-123.0,98.0,481.0,957.0,-277.0,-117.0
272.0,-80.0,-72.0,-106.0,98.0,490.0,963.0,-286.0,-115.0
292.0,-75.0,-60.0,-101.0,98.0,493.0,966.0,-277.0,-112.0
270.0,-77.0,-65.0,-124.0,108.0,479.0,971.0,-275.0,-108.0
265.0,-86.0,-64.0,-149.0,119.0,480.0,939.0,-291.0,-88.0
264.0,-85.0,-64.0,-144.0,125.0,492.0,934.0,-308.0,-87.0
265.0,-91.0,-67.0,-120.0,128.0,503.0,930.0,-312.0,-90.0
264.0,-86.0,-70.0,-89.0,133.0,509.0,950.0,-308.0,-110.0
273.0,-84.0,-68.0,-68.0,144.0,505.0,947.0,-304.0,-110.0
270.0,-82.0,-67.0,-67.0,164.0,493.0,962.0,-293.0,-112.0
266.0,-82.0,-63.0,-77.0,179.0,495.0,948.0,-298.0,-91.0
262.0,-82.0,-60.0,-76.0,178.0,508.0,934.0,-307.0,-81.0
268.0,-89.0,-61.0,-66.0,166.0,534.0,961.0,-309.0,-83.0
274.0,-86.0,-67.0,-65.0,164.0,532.0,980.0,-307.0,-98.0
272.0,-88.0,-68.0,-74.0,180.0,517.0,953.0,-309.0,-97.0
266.0,-93.0,-63.0,-72.0,197.0,519.0,948.0,-330.0,-94.0
265.0,-97.0,-63.0,-57.0,212.0,526.0,940.0,-340.0,-93.0
264.0,-95.0,-63.0,-38.0,223.0,525.0,928.0,-345.0,-88.0
267.0,-101.0,-63.0,-18.0,230.0,525.0,935.0,-348.0,-97.0
264.0,-98.0,-63.0,-1.0,238.0,519.0,942.0,-342.0,-98.0
260.0,-95.0,-60.0,12.0,249.0,501.0,907.0,-348.0,-83.0
264.0,-95.0,-57.0,13.0,253.0,492.0,909.0,-355.0,-61.0
256.0,-102.0,-56.0,-1.0,258.0,486.0,900.0,-356.0,-42.0
260.0,-112.0,-51.0,-16.0,252.0,498.0,916.0,-360.0,-44.0
264.0,-101.0,-61.0,-18.0,252.0,499.0,943.0,-363.0,-66.0
267.0,-105.0,-56.0,-11.0,264.0,488.0,942.0,-363.0,-61.0
253.0,-104.0,-54.0,-7.0,274.0,483.0,902.0,-373.0,-56.0
259.0,-108.0,-53.0,-2.0,269.0,507.0,907.0,-382.0,-32.0
263.0,-103.0,-54.0,1.0,265.0,516.0,920.0,-379.0,-50.0
256.0,-107.0,-54.0,-3.0,271.0,515.0,907.0,-397.0,-47.0
258.0,-114.0,-55.0,4.0,278.0,523.0,905.0,-402.0,-45.0
258.0,-111.0,-55.0,18.0,283.0,529.0,919.0,-396.0,-47.0
260.0,-109.0,-53.0,23.0,278.0,534.0,916.0,-404.0,-33.0
262.0,-111.0,-55.0,22.0,265.0,545.0,923.0,-404.0,-30.0
276.0,-102.0,-61.0,23.0,261.0,538.0,941.0,-396.0,-50.0
266.0,-110.0,-52.0,27.0,258.0,531.0,937.0,-388.0,-53.0
267.0,-105.0,-60.0,46.0,260.0,523.0,940.0,-378.0,-67.0
267.0,-100.0,-59.0,63.0,275.0,507.0,940.0,-361.0,-70.0
266.0,-94.0,-52.0,62.0,303.0,488.0,946.0,-344.0,-49.0
261.0,-96.0,-42.0,33.0,333.0,471.0,925.0,-335.0,-15.0
262.0,-97.0,-41.0,2.0,352.0,463.0,917.0,-351.0,6.0
266.0,-98.0,-47.0,-9.0,362.0,451.0,921.0,-346.0,-11.0
265.0,-95.0,-47.0,-5.0,375.0,437.0,937.0,-346.0,-23.0
266.0,-95.0,-47.0,-4.0,386.0,421.0,943.0,-341.0,-22.0
269.0,-92.0,-43.0,-24.0,390.0,405.0,942.0,-334.0,1.0
272.0,-95.0,-33.0,-58.0,392.0,397.0,956.0,-329.0,9.0
273.0,-90.0,-35.0,-103.0,389.0,392.0,965.0,-338.0,20.0
269.0,-96.0,-42.0,-147.0,386.0,390.0,956.0,-352.0,2.0
262.0,-102.0,-48.0,-171.0,386.0,394.0,933.0,-371.0,-16.0
263.0,-106.0,-45.0,-164.0,391.0,405.0,929.0,-385.0,-26.0
259.0,-111.0,-49.0,-148.0,400.0,407.0,922.0,-400.0,-22.0
255.0,-113.0,-38.0,-149.0,397.0,402.0,897.0,-405.0,-4.0
254.0,-112.0,-45.0,-153.0,387.0,400.0,889.0,-415.0,-9.0
255.0,-117.0,-45.0,-145.0,374.0,393.0,895.0,-413.0,-15.0
254.0,-115.0,-45.0,-136.0,373.0,380.0,890.0,-418.0,-9.0
254.0,-111.0,-40.0,-139.0,371.0,374.0,892.0,-415.0,-11.0
254.0,-108.0,-56.0,-157.0,367.0,372.0,903.0,-414.0,2.0
256.0,-119.0,-42.0,-168.0,362.0,371.0,891.0,-419.0,2.0
251.0,-117.0,-43.0,-160.0,354.0,371.0,894.0,-424.0,-1.0
255.0,-114.0,-42.0,-143.0,343.0,371.0,895.0,-413.0,-8.0
256.0,-112.0,-42.0,-137.0,331.0,369.0,885.0,-418.0,1.0
253.0,-114.0,-38.0,-146.0,317.0,370.0,883.0,-417.0,14.0
251.0,-116.0,-40.0,-160.0,304.0,370.0,880.0,-419.0,17.0
250.0,-118.0,-37.0,-167.0,292.0,370.0,876.0,-432.0,19.0
249.0,-122.0,-43.0,-177.0,277.0,371.0,872.0,-437.0,11.0
255.0,-120.0,-37.0,-182.0,262.0,368.0,886.0,-442.0,11.0
250.0,-121.0,-38.0,-193.0,256.0,358.0,877.0,-446.0,20.0
241.0,-124.0,-51.0,-205.0,253.0,358.0,868.0,-454.0,19.0
246.0,-124.0,-34.0,-207.0,248.0,361.0,869.0,-456.0,26.0
247.0,-125.0,-39.0,-204.0,238.0,372.0,856.0,-458.0,25.0
249.0,-126.0,-34.0,-205.0,224.0,382.0,868.0,-463.0,29.0
256.0,-123.0,-36.0,-211.0,222.0,393.0,882.0,-456.0,24.0
247.0,-125.0,-35.0,-212.0,223.0,400.0,859.0,-458.0,24.0
253.0,-129.0,-40.0,-208.0,217.0,410.0,885.0,-454.0,24.0
253.0,-124.0,-34.0,-208.0,208.0,415.0,881.0,-455.0,28.0
256.0,-125.0,-38.0,-209.0,203.0,423.0,886.0,-455.0,22.0
253.0,-124.0,-35.0,-209.0,206.0,431.0,880.0,-455.0,11.0
256.0,-123.0,-36.0,-204.0,206.0,444.0,895.0,-454.0,7.0
253.0,-123.0,-37.0,-206.0,207.0,444.0,888.0,-457.0,20.0
250.0,-126.0,-35.0,-218.0,204.0,442.0,891.0,-457.0,32.0
254.0,-129.0,-35.0,-236.0,199.0,444.0,885.0,-462.0,40.0
250.0,-130.0,-36.0,-236.0,199.0,445.0,869.0,-479.0,32.0
245.0,-130.0,-33.0,-225.0,194.0,453.0,865.0,-485.0,30.0
249.0,-134.0,-32.0,-220.0,190.0,457.0,864.0,-493.0,36.0
243.0,-138.0,-28.0,-218.0,187.0,461.0,847.0,-501.0,39.0
240.0,-138.0,-25.0,-207.0,178.0,469.0,840.0,-507.0,53.0
241.0,-137.0,-25.0,-190.0,162.0,478.0,844.0,-513.0,51.0
243.0,-137.0,-29.0,-171.0,139.0,486.0,837.0,-518.0,38.0
243.0,-138.0,-34.0,-155.0,123.0,498.0,840.0,-513.0,36.0
239.0,-135.0,-29.0,-154.0,110.0,507.0,844.0,-506.0,43.0
239.0,-138.0,-33.0,-153.0,94.0,512.0,834.0,-506.0,45.0
239.0,-135.0,-29.0,-143.0,80.0,512.0,826.0,-495.0,41.0
235.0,-132.0,-35.0,-135.0,79.0,516.0,816.0,-499.0,35.0
235.0,-133.0,-35.0,-124.0,85.0,520.0,813.0,-496.0,32.0
229.0,-132.0,-29.0,-118.0,93.0,517.0,805.0,-503.0,46.0
232.0,-133.0,-23.0,-123.0,102.0,519.0,814.0,-509.0,52.0
236.0,-139.0,-19.0,-124.0,108.0,517.0,814.0,-510.0,63.0
239.0,-139.0,-25.0,-121.0,111.0,518.0,820.0,-520.0,60.0
240.0,-142.0,-23.0,-113.0,114.0,518.0,832.0,-522.0,59.0
240.0,-142.0,-28.0,-102.0,107.0,525.0,834.0,-523.0,54.0
242.0,-141.0,-23.0,-99.0,94.0,532.0,848.0,-522.0,53.0
246.0,-139.0,-22.0,-102.0,75.0,542.0,850.0,-518.0,67.0
247.0,-137.0,-23.0,-108.0,54.0,551.0,868.0,-520.0,59.0
250.0,-136.0,-26.0,-109.0,45.0,557.0,878.0,-511.0,49.0
252.0,-140.0,-31.0,-111.0,48.0,565.0,885.0,-514.0,51.0
252.0,-142.0,-27.0,-106.0,57.0,571.0,889.0,-522.0,42.0
256.0,-141.0,-33.0,-98.0,70.0,571.0,888.0,-529.0,42.0
253.0,-143.0,-26.0,-96.0,79.0,567.0,889.0,-533.0,54.0
253.0,-139.0,-27.0,-102.0,82.0,561.0,894.0,-530.0,61.0
253.0,-146.0,-22.0,-108.0,81.0,550.0,880.0,-533.0,70.0
249.0,-145.0,-25.0,-107.0,82.0,538.0,869.0,-539.0,70.0
243.0,-145.0,-26.0,-97.0,86.0,525.0,850.0,-535.0,61.0
243.0,-142.0,-26.0,-90.0,87.0,517.0,854.0,-532.0,59.0
244.0,-143.0,-26.0,-92.0,85.0,514.0,851.0,-536.0,55.0
243.0,-147.0,-29.0,-97.0,82.0,510.0,839.0,-539.0,59.0
242.0,-144.0,-30.0,-99.0,81.0,505.0,844.0,-539.0,57.0
243.0,-147.0,-23.0,-102.0,83.0,503.0,843.0,-540.0,53.0
241.0,-146.0,-25.0,-103.0,84.0,501.0,838.0,-545.0,49.0
240.0,-147.0,-29.0,-105.0,83.0,495.0,838.0,-544.0,52.0
239.0,-153.0,-25.0,-108.0,77.0,492.0,833.0,-559.0,59.0
237.0,-152.0,-24.0,-108.0,72.0,485.0,827.0,-568.0,55.0
236.0,-151.0,-35.0,-103.0,63.0,479.0,821.0,-573.0,55.0
234.0,-148.0,-30.0,-102.0,47.0,474.0,821.0,-568.0,54.0
235.0,-153.0,-31.0,-105.0,36.0,465.0,809.0,-569.0,45.0
232.0,-153.0,-28.0,-106.0,31.0,461.0,804.0,-571.0,43.0
232.0,-153.0,-29.0,-104.0,33.0,455.0,800.0,-568.0,35.0
228.0,-150.0,-34.0,-101.0,38.0,449.0,789.0,-568.0,27.0
227.0,-150.0,-35.0,-105.0,42.0,448.0,787.0,-567.0,33.0
228.0,-150.0,-33.0,-107.0,44.0,448.0,787.0,-571.0,32.0
231.0,-154.0,-33.0,-105.0,42.0,450.0,792.0,-577.0,29.0
229.0,-159.0,-34.0,-102.0,38.0,450.0,800.0,-591.0,23.0
231.0,-163.0,-37.0,-95.0,32.0,451.0,810.0,-600.0,23.0
233.0,-162.0,-34.0,-83.0,24.0,449.0,809.0,-607.0,23.0
232.0,-166.0,-35.0,-72.0,19.0,445.0,807.0,-612.0,28.0
231.0,-165.0,-35.0,-59.0,12.0,442.0,798.0,-614.0,21.0
228.0,-162.0,-37.0,-47.0,11.0,439.0,784.0,-607.0,17.0
223.0,-165.0,-39.0,-38.0,12.0,438.0,774.0,-612.0,5.0
222.0,-164.0,-42.0,-29.0,13.0,440.0,769.0,-606.0,4.0
221.0,-160.0,-44.0,-23.0,9.0,442.0,769.0,-605.0,-4.0
223.0,-160.0,-44.0,-18.0,7.0,446.0,778.0,-599.0,-19.0
227.0,-158.0,-48.0,-13.0,5.0,448.0,775.0,-600.0,-18.0
223.0,-159.0,-45.0,-15.0,3.0,451.0,770.0,-600.0,-21.0
223.0,-160.0,-41.0,-25.0,3.0,452.0,769.0,-603.0,-15.0
218.0,-163.0,-46.0,-28.0,6.0,452.0,758.0,-612.0,-15.0
220.0,-167.0,-51.0,-23.0,4.0,456.0,756.0,-623.0,-23.0
216.0,-170.0,-50.0,-16.0,-1.0,460.0,754.0,-631.0,-25.0
218.0,-171.0,-45.0,-12.0,-8.0,461.0,753.0,-639.0,-25.0
217.0,-173.0,-47.0,-8.0,-17.0,466.0,747.0,-644.0,-22.0
216.0,-175.0,-48.0,-1.0,-24.0,471.0,742.0,-646.0,-25.0
218.0,-174.0,-50.0,7.0,-27.0,478.0,740.0,-652.0,-28.0
214.0,-175.0,-49.0,15.0,-20.0,488.0,737.0,-659.0,-29.0
212.0,-181.0,-49.0,29.0,-11.0,501.0,734.0,-667.0,-32.0
211.0,-181.0,-51.0,46.0,0.0,514.0,727.0,-674.0,-32.0
209.0,-181.0,-49.0,68.0,11.0,527.0,714.0,-672.0,-37.0
207.0,-180.0,-53.0,92.0,20.0,545.0,702.0,-671.0,-34.0
207.0,-178.0,-51.0,114.0,24.0,562.0,707.0,-661.0,-37.0
209.0,-177.0,-47.0,128.0,25.0,578.0,699.0,-661.0,-31.0
204.0,-176.0,-46.0,130.0,32.0,594.0,695.0,-655.0,-25.0
200.0,-174.0,-44.0,126.0,41.0,609.0,684.0,-657.0,-18.0
199.0,-173.0,-44.0,116.0,48.0,626.0,675.0,-649.0,-1.0
199.0,-173.0,-43.0,99.0,49.0,645.0,681.0,-646.0,0.0
198.0,-172.0,-40.0,77.0,46.0,667.0,677.0,-646.0,6.0
200.0,-177.0,-42.0,53.0,40.0,686.0,685.0,-658.0,2.0
200.0,-176.0,-43.0,32.0,34.0,704.0,679.0,-658.0,-1.0
200.0,-178.0,-41.0,16.0,30.0,719.0,679.0,-665.0,-1.0
200.0,-181.0,-46.0,-1.0,26.0,732.0,683.0,-674.0,-7.0
197.0,-183.0,-40.0,-19.0,23.0,742.0,676.0,-689.0,-5.0
197.0,-184.0,-48.0,-31.0,23.0,747.0,669.0,-696.0,-13.0
194.0,-188.0,-45.0,-36.0,29.0,758.0,668.0,-704.0,-24.0
196.0,-189.0,-46.0,-34.0,39.0,771.0,660.0,-704.0,-35.0
194.0,-186.0,-50.0,-28.0,52.0,790.0,664.0,-705.0,-39.0
194.0,-190.0,-50.0,-23.0,68.0,812.0,660.0,-702.0,-47.0
193.0,-189.0,-55.0,-15.0,82.0,835.0,665.0,-709.0,-44.0
198.0,-189.0,-49.0,-8.0,98.0,858.0,674.0,-711.0,-40.0
198.0,-192.0,-47.0,4.0,119.0,877.0,675.0,-718.0,-27.0
199.0,-192.0,-46.0,17.0,138.0,895.0,685.0,-730.0,-16.0
204.0,-194.0,-39.0,26.0,152.0,909.0,691.0,-742.0,2.0
204.0,-200.0,-35.0,24.0,157.0,919.0,701.0,-753.0,18.0
204.0,-201.0,-30.0,17.0,153.0,920.0,702.0,-757.0,25.0
205.0,-201.0,-32.0,18.0,151.0,917.0,701.0,-761.0,33.0
205.0,-203.0,-34.0,17.0,147.0,911.0,706.0,-770.0,32.0
204.0,-200.0,-33.0,13.0,138.0,902.0,698.0,-765.0,25.0
202.0,-201.0,-34.0,11.0,134.0,898.0,690.0,-765.0,25.0
200.0,-198.0,-36.0,9.0,129.0,896.0,689.0,-761.0,26.0
198.0,-201.0,-34.0,6.0,124.0,894.0,672.0,-758.0,28.0
192.0,-202.0,-35.0,6.0,117.0,889.0,661.0,-769.0,24.0
190.0,-205.0,-35.0,11.0,110.0,886.0,642.0,-766.0,23.0
183.0,-203.0,-32.0,23.0,103.0,886.0,628.0,-768.0,22.0
184.0,-207.0,-35.0,35.0,96.0,887.0,614.0,-771.0,26.0
181.0,-205.0,-33.0,46.0,85.0,883.0,600.0,-778.0,32.0
176.0,-204.0,-27.0,57.0,80.0,880.0,593.0,-781.0,40.0
173.0,-203.0,-31.0,71.0,77.0,879.0,588.0,-777.0,36.0
175.0,-209.0,-26.0,85.0,79.0,878.0,575.0,-783.0,45.0
173.0,-207.0,-28.0,96.0,86.0,879.0,573.0,-791.0,52.0
171.0,-209.0,-25.0,104.0,96.0,877.0,567.0,-799.0,65.0
173.0,-214.0,-20.0,113.0,105.0,876.0,567.0,-806.0,69.0
168.0,-214.0,-25.0,121.0,108.0,877.0,568.0,-812.0,73.0
168.0,-218.0,-24.0,133.0,111.0,876.0,562.0,-822.0,71.0
169.0,-222.0,-24.0,147.0,110.0,875.0,566.0,-833.0,74.0
169.0,-220.0,-24.0,164.0,105.0,875.0,563.0,-830.0,67.0
170.0,-218.0,-22.0,180.0,99.0,874.0,569.0,-830.0,69.0
170.0,-218.0,-23.0,191.0,90.0,874.0,569.0,-822.0,71.0
168.0,-217.0,-20.0,201.0,79.0,877.0,564.0,-819.0,69.0
168.0,-215.0,-26.0,207.0,63.0,881.0,562.0,-811.0,67.0
167.0,-216.0,-23.0,210.0,46.0,883.0,551.0,-810.0,66.0
163.0,-211.0,-24.0,213.0,27.0,882.0,543.0,-801.0,68.0
165.0,-212.0,-24.0,212.0,9.0,884.0,544.0,-807.0,64.0
161.0,-214.0,-21.0,213.0,-5.0,882.0,544.0,-813.0,72.0
162.0,-216.0,-21.0,216.0,-16.0,877.0,536.0,-823.0,66.0
161.0,-220.0,-25.0,220.0,-25.0,870.0,529.0,-830.0,70.0
159.0,-225.0,-20.0,231.0,-31.0,863.0,530.0,-836.0,72.0
158.0,-220.0,-21.0,244.0,-37.0,854.0,525.0,-841.0,67.0
158.0,-224.0,-27.0,258.0,-40.0,847.0,517.0,-850.0,64.0
152.0,-227.0,-26.0,272.0,-40.0,839.0,507.0,-852.0,60.0
155.0,-230.0,-22.0,287.0,-39.0,836.0,501.0,-870.0,52.0
155.0,-234.0,-27.0,303.0,-34.0,835.0,493.0,-881.0,51.0
147.0,-239.0,-39.0,320.0,-25.0,833.0,504.0,-889.0,53.0
151.0,-237.0,-28.0,336.0,-17.0,828.0,498.0,-903.0,58.0
150.0,-235.0,-21.0,353.0,-13.0,823.0,496.0,-906.0,65.0
153.0,-236.0,-21.0,368.0,-8.0,823.0,490.0,-892.0,69.0
152.0,-236.0,-25.0,377.0,-5.0,820.0,496.0,-896.0,65.0
154.0,-230.0,-20.0,380.0,0.0,815.0,494.0,-883.0,74.0
153.0,-234.0,-23.0,377.0,2.0,807.0,495.0,-863.0,68.0
153.0,-224.0,-23.0,366.0,10.0,800.0,502.0,-861.0,71.0
157.0,-224.0,-21.0,349.0,20.0,789.0,504.0,-849.0,71.0
157.0,-224.0,-19.0,326.0,27.0,778.0,506.0,-848.0,78.0
151.0,-225.0,-21.0,302.0,35.0,769.0,497.0,-849.0,86.0
148.0,-225.0,-17.0,278.0,38.0,762.0,482.0,-852.0,93.0
143.0,-223.0,-13.0,255.0,35.0,755.0,477.0,-862.0,104.0
141.0,-227.0,-12.0,235.0,28.0,748.0,472.0,-873.0,113.0
141.0,-231.0,-9.0,216.0,19.0,742.0,452.0,-895.0,117.0
138.0,-235.0,-9.0,198.0,6.0,736.0,443.0,-895.0,115.0
136.0,-236.0,-10.0,184.0,-5.0,729.0,438.0,-907.0,127.0
133.0,-236.0,-5.0,174.0,-15.0,721.0,431.0,-912.0,127.0
129.0,-240.0,-4.0,169.0,-22.0,714.0,419.0,-920.0,135.0
130.0,-243.0,0.0,170.0,-26.0,704.0,418.0,-919.0,146.0
127.0,-243.0,-2.0,177.0,-30.0,695.0,411.0,-923.0,149.0
128.0,-243.0,1.0,189.0,-34.0,684.0,405.0,-924.0,154.0
126.0,-240.0,1.0,200.0,-39.0,676.0,397.0,-922.0,158.0
123.0,-239.0,1.0,208.0,-44.0,667.0,396.0,-916.0,146.0
124.0,-240.0,2.0,209.0,-49.0,659.0,389.0,-911.0,153.0
123.0,-236.0,0.0,209.0,-58.0,654.0,381.0,-910.0,158.0
122.0,-239.0,0.0,207.0,-69.0,649.0,379.0,-894.0,150.0
120.0,-231.0,-3.0,204.0,-77.0,647.0,379.0,-896.0,146.0
125.0,-234.0,-3.0,199.0,-82.0,642.0,385.0,-885.0,137.0
122.0,-230.0,-1.0,192.0,-82.0,637.0,385.0,-883.0,138.0
121.0,-232.0,-8.0,189.0,-80.0,635.0,378.0,-878.0,132.0
121.0,-231.0,-4.0,185.0,-76.0,635.0,380.0,-869.0,125.0
123.0,-228.0,-6.0,182.0,-67.0,632.0,387.0,-866.0,129.0
124.0,-229.0,-5.0,185.0,-53.0,628.0,386.0,-863.0,133.0
123.0,-228.0,-5.0,184.0,-39.0,626.0,386.0,-868.0,135.0
123.0,-229.0,-2.0,185.0,-27.0,625.0,389.0,-865.0,137.0
125.0,-231.0,-3.0,185.0,-16.0,624.0,389.0,-866.0,136.0
128.0,-232.0,-6.0,183.0,1.0,620.0,397.0,-880.0,138.0
129.0,-233.0,-2.0,184.0,16.0,614.0,401.0,-880.0,138.0
127.0,-234.0,-6.0,181.0,33.0,606.0,402.0,-887.0,143.0
123.0,-231.0,0.0,180.0,47.0,597.0,395.0,-888.0,142.0
124.0,-234.0,-1.0,176.0,57.0,591.0,384.0,-894.0,146.0
121.0,-235.0,0.0,171.0,67.0,584.0,383.0,-895.0,144.0
125.0,-235.0,-1.0,166.0,81.0,575.0,383.0,-902.0,144.0
118.0,-235.0,0.0,162.0,95.0,567.0,376.0,-910.0,147.0
118.0,-240.0,1.0,158.0,109.0,561.0,368.0,-916.0,153.0
115.0,-239.0,2.0,151.0,122.0,558.0,353.0,-911.0,151.0
113.0,-239.0,0.0,147.0,132.0,554.0,353.0,-915.0,151.0
115.0,-242.0,-3.0,141.0,140.0,549.0,344.0,-914.0,155.0
105.0,-238.0,0.0,133.0,148.0,544.0,328.0,-913.0,148.0
103.0,-236.0,-1.0,129.0,157.0,543.0,315.0,-912.0,143.0
102.0,-239.0,-5.0,121.0,166.0,545.0,314.0,-915.0,144.0
99.0,-241.0,-3.0,112.0,173.0,543.0,305.0,-919.0,140.0
98.0,-238.0,-7.0,103.0,179.0,542.0,297.0,-908.0,138.0
96.0,-239.0,-11.0,88.0,183.0,542.0,287.0,-913.0,134.0
94.0,-238.0,-6.0,78.0,183.0,543.0,282.0,-917.0,129.0
91.0,-238.0,-6.0,62.0,181.0,542.0,278.0,-916.0,129.0
91.0,-237.0,-7.0,49.0,176.0,542.0,278.0,-923.0,127.0
88.0,-244.0,-7.0,39.0,171.0,542.0,264.0,-923.0,126.0
90.0,-242.0,-6.0,31.0,164.0,542.0,257.0,-927.0,121.0
88.0,-247.0,-4.0,26.0,160.0,545.0,255.0,-931.0,126.0
89.0,-248.0,-5.0,24.0,159.0,546.0,258.0,-941.0,130.0
87.0,-246.0,-8.0,27.0,161.0,547.0,255.0,-940.0,119.0
90.0,-250.0,-9.0,29.0,167.0,551.0,261.0,-947.0,117.0
91.0,-249.0,-13.0,33.0,173.0,557.0,266.0,-945.0,110.0
90.0,-249.0,-15.0,38.0,180.0,562.0,258.0,-949.0,101.0
86.0,-248.0,-17.0,46.0,187.0,570.0,248.0,-949.0,91.0
83.0,-249.0,-16.0,49.0,189.0,581.0,238.0,-951.0,94.0
81.0,-251.0,-17.0,51.0,184.0,587.0,223.0,-960.0,93.0
74.0,-253.0,-14.0,50.0,178.0,593.0,214.0,-959.0,97.0
67.0,-250.0,-12.0,42.0,171.0,596.0,200.0,-960.0,100.0
67.0,-254.0,-14.0,35.0,164.0,595.0,190.0,-972.0,116.0
65.0,-257.0,-8.0,28.0,156.0,595.0,179.0,-982.0,129.0
64.0,-256.0,-4.0,23.0,148.0,592.0,178.0,-978.0,136.0
64.0,-256.0,-5.0,20.0,139.0,588.0,174.0,-983.0,140.0
61.0,-259.0,-2.0,23.0,135.0,586.0,156.0,-993.0,147.0
59.0,-258.0,2.0,28.0,135.0,585.0,145.0,-998.0,151.0
57.0,-262.0,-2.0,36.0,139.0,585.0,138.0,-1001.0,158.0
55.0,-260.0,2.0,46.0,143.0,587.0,133.0,-1003.0,157.0
50.0,-265.0,-2.0,57.0,147.0,591.0,125.0,-1011.0,162.0
52.0,-265.0,2.0,70.0,151.0,594.0,116.0,-1009.0,156.0
52.0,-268.0,2.0,80.0,151.0,598.0,117.0,-1017.0,152.0
53.0,-263.0,-1.0,90.0,155.0,603.0,116.0,-1026.0,155.0
54.0,-267.0,-2.0,97.0,156.0,608.0,120.0,-1025.0,147.0
54.0,-266.0,-1.0,106.0,156.0,613.0,128.0,-1023.0,141.0
55.0,-268.0,-3.0,114.0,156.0,616.0,131.0,-1021.0,135.0
55.0,-267.0,-5.0,122.0,157.0,621.0,138.0,-1019.0,136.0
60.0,-267.0,-5.0,132.0,161.0,626.0,145.0,-1016.0,129.0
63.0,-262.0,-4.0,147.0,172.0,630.0,154.0,-1008.0,132.0
63.0,-260.0,-7.0,162.0,187.0,634.0,159.0,-1000.0,131.0
61.0,-259.0,-6.0,183.0,205.0,639.0,151.0,-985.0,129.0
62.0,-257.0,-7.0,205.0,226.0,646.0,151.0,-977.0,128.0
61.0,-254.0,-3.0,221.0,241.0,651.0,146.0,-967.0,142.0
59.0,-250.0,-1.0,232.0,253.0,656.0,135.0,-957.0,148.0
51.0,-249.0,-2.0,239.0,258.0,662.0,121.0,-952.0,152.0
48.0,-250.0,0.0,239.0,262.0,665.0,118.0,-948.0,154.0
47.0,-247.0,2.0,231.0,263.0,665.0,106.0,-952.0,159.0
44.0,-250.0,1.0,222.0,260.0,663.0,86.0,-951.0,167.0
39.0,-251.0,1.0,211.0,259.0,665.0,80.0,-958.0,171.0
36.0,-253.0,3.0,200.0,257.0,667.0,69.0,-963.0,171.0
32.0,-253.0,4.0,191.0,255.0,669.0,54.0,-959.0,174.0
31.0,-256.0,4.0,185.0,254.0,673.0,47.0,-971.0,179.0
31.0,-256.0,11.0,186.0,255.0,675.0,35.0,-967.0,193.0
28.0,-254.0,11.0,191.0,258.0,672.0,37.0,-982.0,195.0
29.0,-257.0,12.0,197.0,257.0,665.0,33.0,-978.0,199.0
29.0,-258.0,8.0,206.0,254.0,657.0,36.0,-987.0,206.0
30.0,-258.0,15.0,216.0,250.0,644.0,34.0,-995.0,211.0
34.0,-262.0,16.0,227.0,242.0,632.0,44.0,-1003.0,215.0
32.0,-263.0,17.0,233.0,235.0,617.0,42.0,-1003.0,221.0
34.0,-265.0,18.0,241.0,226.0,607.0,50.0,-1014.0,226.0
33.0,-266.0,18.0,246.0,217.0,594.0,53.0,-1022.0,229.0
34.0,-267.0,15.0,249.0,214.0,583.0,58.0,-1031.0,229.0
37.0,-271.0,16.0,247.0,210.0,569.0,64.0,-1041.0,227.0
37.0,-268.0,21.0,244.0,214.0,560.0,73.0,-1051.0,230.0
44.0,-278.0,15.0,244.0,220.0,552.0,79.0,-1062.0,232.0
44.0,-280.0,23.0,242.0,231.0,544.0,86.0,-1079.0,240.0
46.0,-284.0,21.0,239.0,239.0,536.0,100.0,-1096.0,245.0
52.0,-293.0,25.0,239.0,241.0,525.0,110.0,-1111.0,251.0
52.0,-294.0,27.0,241.0,235.0,511.0,126.0,-1136.0,246.0
55.0,-300.0,24.0,245.0,227.0,494.0,125.0,-1153.0,245.0
50.0,-304.0,24.0,256.0,219.0,475.0,122.0,-1173.0,243.0
51.0,-308.0,24.0,268.0,216.0,456.0,110.0,-1181.0,246.0
49.0,-311.0,23.0,291.0,221.0,437.0,97.0,-1192.0,248.0
44.0,-313.0,22.0,319.0,240.0,418.0,78.0,-1187.0,246.0
35.0,-309.0,23.0,353.0,268.0,392.0,50.0,-1173.0,247.0
27.0,-301.0,23.0,392.0,296.0,367.0,17.0,-1149.0,249.0
10.0,-292.0,26.0,434.0,315.0,336.0,-29.0,-1117.0,259.0
2.0,-281.0,35.0,468.0,320.0,307.0,-66.0,-1072.0,275.0
1.0,-267.0,38.0,496.0,311.0,281.0,-90.0,-1023.0,293.0
0.0,-254.0,33.0,514.0,289.0,257.0,-87.0,-969.0,302.0
-2.0,-241.0,39.0,517.0,255.0,234.0,-85.0,-937.0,305.0
0.0,-231.0,37.0,507.0,218.0,214.0,-87.0,-892.0,303.0
-1.0,-224.0,33.0,487.0,187.0,194.0,-100.0,-861.0,294.0
-10.0,-218.0,31.0,454.0,168.0,176.0,-114.0,-839.0,285.0
-13.0,-216.0,28.0,416.0,160.0,161.0,-136.0,-829.0,273.0
-10.0,-212.0,25.0,367.0,157.0,144.0,-120.0,-827.0,260.0
-13.0,-215.0,24.0,304.0,158.0,123.0,-124.0,-825.0,262.0
-11.0,-217.0,30.0,247.0,162.0,108.0,-135.0,-831.0,274.0
-12.0,-220.0,35.0,197.0,163.0,97.0,-136.0,-840.0,289.0
-14.0,-222.0,35.0,161.0,151.0,85.0,-140.0,-856.0,294.0
-12.0,-225.0,35.0,128.0,130.0,83.0,-118.0,-868.0,291.0
-5.0,-227.0,36.0,109.0,115.0,85.0,-106.0,-878.0,308.0
0.0,-232.0,43.0,104.0,115.0,84.0,-87.0,-885.0,325.0
2.0,-237.0,40.0,110.0,116.0,79.0,-73.0,-903.0,324.0
6.0,-240.0,43.0,117.0,114.0,74.0,-57.0,-925.0,325.0
9.0,-247.0,43.0,115.0,108.0,71.0,-53.0,-942.0,323.0
9.0,-247.0,38.0,105.0,98.0,72.0,-46.0,-955.0,315.0
5.0,-250.0,37.0,87.0,87.0,76.0,-42.0,-963.0,306.0
9.0,-253.0,32.0,63.0,83.0,81.0,-51.0,-968.0,301.0
5.0,-257.0,35.0,46.0,88.0,85.0,-59.0,-981.0,296.0
7.0,-257.0,32.0,37.0,99.0,91.0,-59.0,-982.0,294.0
5.0,-257.0,30.0,38.0,113.0,93.0,-63.0,-987.0,290.0
4.0,-254.0,32.0,48.0,128.0,95.0,-63.0,-972.0,293.0
9.0,-255.0,33.0,58.0,140.0,95.0,-51.0,-976.0,281.0
9.0,-255.0,30.0,68.0,156.0,96.0,-42.0,-969.0,280.0
14.0,-254.0,28.0,74.0,172.0,94.0,-36.0,-964.0,278.0
12.0,-250.0,31.0,76.0,189.0,92.0,-34.0,-956.0,273.0
16.0,-250.0,28.0,75.0,204.0,89.0,-32.0,-953.0,273.0
13.0,-247.0,26.0,73.0,218.0,87.0,-17.0,-953.0,266.0
18.0,-251.0,26.0,67.0,230.0,81.0,-13.0,-956.0,259.0
19.0,-248.0,24.0,59.0,240.0,77.0,-12.0,-957.0,254.0
22.0,-250.0,23.0,49.0,246.0,77.0,-2.0,-952.0,256.0
22.0,-252.0,22.0,39.0,254.0,76.0,4.0,-957.0,254.0
23.0,-249.0,20.0,35.0,262.0,76.0,4.0,-959.0,246.0
25.0,-254.0,21.0,31.0,268.0,75.0,9.0,-957.0,245.0
23.0,-253.0,22.0,33.0,269.0,69.0,13.0,-959.0,245.0
16.0,-252.0,23.0,36.0,272.0,64.0,3.0,-962.0,241.0
14.0,-251.0,25.0,41.0,274.0,58.0,-11.0,-965.0,246.0
18.0,-251.0,25.0,48.0,273.0,53.0,-13.0,-959.0,252.0
14.0,-253.0,23.0,54.0,270.0,49.0,-27.0,-958.0,262.0
12.0,-253.0,31.0,63.0,267.0,46.0,-29.0,-964.0,267.0
12.0,-251.0,28.0,72.0,263.0,44.0,-37.0,-966.0,278.0
9.0,-249.0,30.0,80.0,260.0,41.0,-42.0,-962.0,281.0
8.0,-252.0,33.0,87.0,255.0,35.0,-48.0,-958.0,286.0
8.0,-249.0,36.0,94.0,251.0,31.0,-47.0,-950.0,291.0
8.0,-248.0,32.0,96.0,242.0,27.0,-42.0,-954.0,288.0
8.0,-249.0,35.0,95.0,232.0,25.0,-41.0,-957.0,290.0
9.0,-253.0,34.0,92.0,216.0,23.0,-39.0,-955.0,287.0
9.0,-250.0,33.0,92.0,199.0,24.0,-40.0,-955.0,292.0
11.0,-253.0,33.0,96.0,182.0,25.0,-38.0,-960.0,297.0
10.0,-249.0,37.0,105.0,168.0,26.0,-40.0,-956.0,303.0
12.0,-250.0,41.0,119.0,156.0,24.0,-39.0,-963.0,311.0
11.0,-250.0,36.0,132.0,152.0,20.0,-35.0,-957.0,308.0
6.0,-251.0,33.0,145.0,148.0,14.0,-45.0,-955.0,303.0
10.0,-250.0,39.0,150.0,145.0,7.0,-45.0,-957.0,302.0
10.0,-249.0,38.0,155.0,140.0,-1.0,-46.0,-951.0,312.0
5.0,-247.0,43.0,152.0,134.0,-7.0,-52.0,-955.0,317.0
5.0,-247.0,41.0,150.0,128.0,-13.0,-55.0,-946.0,325.0
5.0,-247.0,43.0,148.0,117.0,-18.0,-58.0,-948.0,327.0
5.0,-246.0,46.0,147.0,106.0,-20.0,-56.0,-946.0,340.0
5.0,-248.0,43.0,144.0,88.0,-24.0,-51.0,-946.0,336.0
6.0,-249.0,42.0,136.0,66.0,-31.0,-53.0,-944.0,327.0
5.0,-248.0,40.0,127.0,40.0,-37.0,-55.0,-947.0,320.0
4.0,-245.0,41.0,119.0,22.0,-45.0,-58.0,-939.0,318.0
6.0,-248.0,40.0,115.0,9.0,-55.0,-63.0,-939.0,321.0
5.0,-239.0,40.0,118.0,3.0,-66.0,-62.0,-932.0,319.0
4.0,-243.0,43.0,125.0,0.0,-74.0,-60.0,-933.0,328.0
3.0,-238.0,41.0,130.0,-4.0,-81.0,-57.0,-926.0,324.0
6.0,-243.0,45.0,131.0,-14.0,-86.0,-58.0,-925.0,329.0
10.0,-241.0,46.0,125.0,-25.0,-92.0,-43.0,-921.0,325.0
9.0,-238.0,42.0,116.0,-35.0,-93.0,-34.0,-921.0,323.0
12.0,-238.0,44.0,104.0,-47.0,-97.0,-35.0,-920.0,328.0
12.0,-241.0,47.0,94.0,-55.0,-101.0,-34.0,-924.0,333.0
11.0,-241.0,44.0,85.0,-63.0,-104.0,-34.0,-922.0,334.0
11.0,-238.0,47.0,76.0,-70.0,-107.0,-36.0,-923.0,336.0
12.0,-239.0,49.0,69.0,-73.0,-109.0,-37.0,-926.0,341.0
15.0,-243.0,49.0,60.0,-73.0,-110.0,-35.0,-929.0,345.0
13.0,-243.0,49.0,49.0,-70.0,-108.0,-32.0,-923.0,349.0
12.0,-238.0,49.0,40.0,-70.0,-107.0,-32.0,-924.0,350.0
15.0,-242.0,46.0,27.0,-72.0,-104.0,-30.0,-925.0,339.0
10.0,-239.0,46.0,10.0,-77.0,-102.0,-33.0,-927.0,342.0
13.0,-242.0,47.0,-3.0,-84.0,-100.0,-34.0,-921.0,334.0
10.0,-242.0,45.0,-18.0,-90.0,-97.0,-36.0,-922.0,326.0
9.0,-239.0,45.0,-25.0,-92.0,-94.0,-36.0,-926.0,329.0
14.0,-244.0,46.0,-32.0,-93.0,-94.0,-34.0,-931.0,324.0
11.0,-242.0,45.0,-37.0,-93.0,-92.0,-28.0,-934.0,326.0
14.0,-244.0,42.0,-43.0,-92.0,-92.0,-33.0,-936.0,323.0
12.0,-246.0,48.0,-45.0,-92.0,-95.0,-27.0,-937.0,327.0
12.0,-246.0,43.0,-47.0,-93.0,-97.0,-33.0,-949.0,322.0
15.0,-245.0,44.0,-53.0,-92.0,-99.0,-31.0,-942.0,329.0
13.0,-246.0,42.0,-59.0,-94.0,-103.0,-31.0,-941.0,335.0
14.0,-243.0,45.0,-66.0,-91.0,-104.0,-28.0,-936.0,347.0
16.0,-245.0,47.0,-73.0,-84.0,-103.0,-26.0,-934.0,355.0
16.0,-242.0,46.0,-75.0,-72.0,-103.0,-20.0,-940.0,363.0
18.0,-243.0,51.0,-72.0,-62.0,-103.0,-14.0,-943.0,372.0
21.0,-247.0,52.0,-68.0,-56.0,-103.0,-3.0,-940.0,367.0
26.0,-248.0,52.0,-68.0,-54.0,-102.0,1.0,-945.0,364.0
21.0,-248.0,48.0,-66.0,-52.0,-103.0,9.0,-948.0,364.0
22.0,-250.0,53.0,-66.0,-46.0,-106.0,5.0,-949.0,360.0
22.0,-248.0,51.0,-66.0,-41.0,-107.0,5.0,-949.0,357.0
21.0,-246.0,52.0,-67.0,-34.0,-110.0,-1.0,-949.0,364.0
19.0,-246.0,50.0,-69.0,-30.0,-112.0,1.0,-947.0,359.0
18.0,-246.0,51.0,-66.0,-29.0,-113.0,-6.0,-940.0,362.0
17.0,-243.0,47.0,-61.0,-32.0,-115.0,-13.0,-939.0,349.0
17.0,-246.0,49.0,-53.0,-36.0,-116.0,-19.0,-939.0,346.0
17.0,-245.0,43.0,-53.0,-39.0,-119.0,-7.0,-943.0,340.0
18.0,-243.0,45.0,-54.0,-38.0,-122.0,-16.0,-940.0,342.0
18.0,-243.0,47.0,-55.0,-38.0,-126.0,-16.0,-941.0,344.0
19.0,-246.0,48.0,-56.0,-41.0,-129.0,-10.0,-946.0,346.0
14.0,-246.0,45.0,-57.0,-43.0,-133.0,-16.0,-951.0,342.0
16.0,-246.0,44.0,-55.0,-45.0,-134.0,-17.0,-949.0,341.0
18.0,-247.0,48.0,-51.0,-47.0,-132.0,-15.0,-947.0,335.0
18.0,-247.0,43.0,-44.0,-48.0,-130.0,-6.0,-950.0,335.0
18.0,-248.0,41.0,-37.0,-47.0,-125.0,-14.0,-950.0,338.0
16.0,-245.0,47.0,-30.0,-44.0,-120.0,-11.0,-942.0,340.0
21.0,-247.0,48.0,-27.0,-38.0,-116.0,-1.0,-944.0,342.0
22.0,-243.0,46.0,-23.0,-34.0,-113.0,2.0,-943.0,343.0
21.0,-246.0,50.0,-22.0,-32.0,-111.0,11.0,-938.0,349.0
24.0,-246.0,50.0,-25.0,-33.0,-109.0,12.0,-939.0,353.0
24.0,-244.0,49.0,-33.0,-34.0,-107.0,14.0,-938.0,350.0
24.0,-244.0,48.0,-42.0,-40.0,-104.0,20.0,-938.0,353.0
22.0,-245.0,46.0,-47.0,-49.0,-100.0,12.0,-944.0,344.0
25.0,-244.0,47.0,-55.0,-58.0,-97.0,19.0,-940.0,340.0
24.0,-247.0,47.0,-60.0,-64.0,-92.0,21.0,-946.0,342.0
27.0,-246.0,44.0,-59.0,-66.0,-89.0,25.0,-945.0,337.0
29.0,-248.0,47.0,-53.0,-65.0,-85.0,33.0,-945.0,341.0
28.0,-248.0,47.0,-43.0,-61.0,-83.0,33.0,-950.0,346.0
31.0,-248.0,49.0,-36.0,-56.0,-82.0,37.0,-949.0,340.0
31.0,-249.0,45.0,-34.0,-48.0,-81.0,40.0,-950.0,335.0
30.0,-250.0,48.0,-34.0,-41.0,-80.0,43.0,-949.0,343.0
32.0,-250.0,47.0,-35.0,-35.0,-81.0,41.0,-951.0,337.0
33.0,-247.0,42.0,-35.0,-27.0,-79.0,50.0,-953.0,327.0
35.0,-247.0,46.0,-41.0,-16.0,-78.0,48.0,-950.0,333.0
35.0,-247.0,43.0,-42.0,-7.0,-80.0,53.0,-953.0,329.0
34.0,-248.0,42.0,-44.0,2.0,-82.0,54.0,-948.0,324.0
34.0,-244.0,39.0,-49.0,5.0,-87.0,56.0,-943.0,322.0
34.0,-247.0,39.0,-55.0,3.0,-90.0,52.0,-940.0,319.0
35.0,-245.0,42.0,-61.0,-2.0,-94.0,54.0,-938.0,323.0
32.0,-244.0,43.0,-68.0,-7.0,-97.0,49.0,-940.0,319.0
34.0,-246.0,43.0,-72.0,-12.0,-101.0,40.0,-939.0,320.0
31.0,-248.0,41.0,-73.0,-17.0,-104.0,46.0,-945.0,318.0
31.0,-248.0,39.0,-77.0,-17.0,-105.0,40.0,-953.0,316.0
29.0,-248.0,40.0,-84.0,-17.0,-107.0,43.0,-951.0,313.0
29.0,-249.0,43.0,-93.0,-13.0,-106.0,36.0,-949.0,314.0
30.0,-249.0,41.0,-99.0,-8.0,-106.0,36.0,-953.0,312.0
31.0,-250.0,38.0,-99.0,-1.0,-107.0,31.0,-953.0,318.0
29.0,-250.0,45.0,-98.0,9.0,-106.0,31.0,-956.0,319.0
31.0,-251.0,44.0,-93.0,19.0,-103.0,36.0,-957.0,323.0
31.0,-250.0,47.0,-86.0,29.0,-100.0,37.0,-960.0,326.0
33.0,-251.0,44.0,-75.0,37.0,-97.0,45.0,-962.0,333.0
36.0,-254.0,41.0,-64.0,41.0,-95.0,48.0,-958.0,325.0
34.0,-252.0,41.0,-53.0,39.0,-95.0,51.0,-960.0,327.0
38.0,-247.0,46.0,-43.0,40.0,-91.0,59.0,-950.0,326.0
35.0,-245.0,44.0,-35.0,40.0,-88.0,59.0,-949.0,334.0
35.0,-243.0,43.0,-27.0,36.0,-84.0,57.0,-944.0,331.0
37.0,-246.0,44.0,-20.0,35.0,-81.0,63.0,-937.0,330.0
41.0,-250.0,43.0,-17.0,37.0,-80.0,68.0,-935.0,330.0
40.0,-243.0,45.0,-14.0,41.0,-81.0,69.0,-936.0,333.0
38.0,-242.0,42.0,-18.0,47.0,-83.0,70.0,-935.0,339.0
39.0,-245.0,46.0,-21.0,53.0,-85.0,67.0,-934.0,341.0
39.0,-244.0,50.0,-27.0,56.0,-89.0,70.0,-937.0,347.0
40.0,-246.0,49.0,-34.0,58.0,-93.0,74.0,-937.0,352.0
34.0,-247.0,50.0,-39.0,60.0,-95.0,63.0,-943.0,357.0
36.0,-246.0,50.0,-43.0,59.0,-99.0,60.0,-942.0,361.0
35.0,-247.0,53.0,-41.0,57.0,-103.0,57.0,-940.0,360.0
34.0,-246.0,49.0,-38.0,53.0,-110.0,51.0,-945.0,363.0
31.0,-246.0,53.0,-33.0,51.0,-112.0,46.0,-944.0,369.0
31.0,-246.0,54.0,-26.0,49.0,-115.0,37.0,-947.0,361.0
29.0,-247.0,49.0,-19.0,51.0,-117.0,36.0,-945.0,356.0
31.0,-247.0,47.0,-16.0,53.0,-118.0,30.0,-949.0,353.0
28.0,-247.0,44.0,-18.0,59.0,-117.0,30.0,-949.0,343.0
29.0,-249.0,45.0,-22.0,63.0,-117.0,28.0,-954.0,343.0
27.0,-247.0,47.0,-27.0,72.0,-116.0,33.0,-953.0,341.0
29.0,-251.0,44.0,-23.0,82.0,-114.0,31.0,-951.0,349.0
31.0,-249.0,47.0,-18.0,96.0,-109.0,34.0,-948.0,343.0
31.0,-249.0,47.0,-8.0,109.0,-105.0,35.0,-950.0,340.0
34.0,-248.0,47.0,-1.0,118.0,-101.0,48.0,-945.0,336.0
33.0,-246.0,42.0,4.0,124.0,-96.0,48.0,-947.0,332.0
32.0,-248.0,45.0,6.0,123.0,-91.0,47.0,-942.0,332.0
28.0,-241.0,45.0,6.0,117.0,-83.0,46.0,-933.0,330.0
34.0,-242.0,47.0,9.0,107.0,-74.0,48.0,-931.0,341.0
33.0,-241.0,45.0,6.0,96.0,-65.0,44.0,-924.0,335.0
33.0,-240.0,49.0,1.0,83.0,-55.0,45.0,-923.0,339.0
31.0,-238.0,46.0,-13.0,70.0,-45.0,46.0,-923.0,339.0
31.0,-238.0,48.0,-29.0,57.0,-36.0,45.0,-923.0,340.0
30.0,-239.0,46.0,-43.0,45.0,-24.0,35.0,-922.0,339.0
29.0,-239.0,43.0,-59.0,31.0,-17.0,40.0,-925.0,344.0
34.0,-241.0,45.0,-74.0,20.0,-13.0,38.0,-929.0,344.0
31.0,-243.0,47.0,-88.0,7.0,-9.0,41.0,-934.0,342.0
30.0,-247.0,50.0,-97.0,-4.0,-7.0,42.0,-937.0,343.0
30.0,-249.0,46.0,-105.0,-9.0,-6.0,44.0,-939.0,356.0
31.0,-246.0,46.0,-113.0,-9.0,-6.0,37.0,-944.0,348.0
31.0,-247.0,48.0,-117.0,-8.0,-9.0,45.0,-946.0,344.0
31.0,-247.0,49.0,-119.0,-2.0,-14.0,47.0,-952.0,344.0
32.0,-249.0,47.0,-121.0,7.0,-18.0,49.0,-948.0,345.0
33.0,-247.0,44.0,-120.0,20.0,-23.0,46.0,-942.0,337.0
35.0,-248.0,49.0,-117.0,33.0,-28.0,52.0,-948.0,339.0
36.0,-246.0,43.0,-113.0,44.0,-33.0,50.0,-945.0,332.0
37.0,-242.0,46.0,-113.0,53.0,-36.0,56.0,-937.0,336.0
36.0,-244.0,41.0,-113.0,57.0,-39.0,55.0,-940.0,328.0
35.0,-245.0,44.0,-114.0,59.0,-41.0,55.0,-939.0,333.0
32.0,-244.0,43.0,-112.0,55.0,-43.0,56.0,-946.0,327.0
35.0,-245.0,44.0,-112.0,47.0,-43.0,53.0,-944.0,331.0
35.0,-246.0,42.0,-110.0,37.0,-43.0,54.0,-944.0,336.0
31.0,-242.0,46.0,-112.0,27.0,-43.0,52.0,-943.0,330.0
34.0,-246.0,43.0,-112.0,17.0,-42.0,48.0,-947.0,336.0
35.0,-246.0,43.0,-113.0,10.0,-41.0,52.0,-944.0,334.0
34.0,-249.0,45.0,-115.0,5.0,-38.0,49.0,-945.0,338.0
30.0,-246.0,45.0,-114.0,4.0,-37.0,49.0,-949.0,329.0
31.0,-249.0,45.0,-110.0,5.0,-36.0,50.0,-948.0,332.0
30.0,-248.0,46.0,-104.0,8.0,-34.0,49.0,-949.0,341.0
36.0,-250.0,46.0,-96.0,9.0,-31.0,53.0,-951.0,340.0
32.0,-248.0,46.0,-89.0,11.0,-29.0,54.0,-952.0,333.0
36.0,-248.0,41.0,-83.0,16.0,-28.0,50.0,-951.0,330.0
34.0,-248.0,43.0,-77.0,21.0,-27.0,52.0,-947.0,330.0
35.0,-246.0,43.0,-77.0,27.0,-27.0,59.0,-946.0,326.0
31.0,-246.0,45.0,-75.0,31.0,-26.0,51.0,-944.0,325.0
35.0,-246.0,47.0,-76.0,33.0,-23.0,56.0,-948.0,330.0
35.0,-246.0,42.0,-76.0,34.0,-22.0,59.0,-949.0,322.0
37.0,-248.0,40.0,-78.0,35.0,-21.0,59.0,-945.0,318.0
35.0,-248.0,36.0,-82.0,35.0,-20.0,61.0,-947.0,314.0
36.0,-248.0,37.0,-86.0,36.0,-22.0,62.0,-947.0,306.0
36.0,-245.0,36.0,-91.0,37.0,-19.0,60.0,-948.0,307.0
34.0,-249.0,39.0,-93.0,40.0,-19.0,60.0,-954.0,310.0
36.0,-249.0,41.0,-92.0,44.0,-18.0,59.0,-953.0,308.0
40.0,-250.0,39.0,-85.0,48.0,-21.0,55.0,-958.0,318.0
38.0,-253.0,39.0,-73.0,49.0,-22.0,56.0,-955.0,320.0
33.0,-251.0,46.0,-60.0,49.0,-21.0,56.0,-963.0,322.0
33.0,-249.0,42.0,-49.0,49.0,-21.0,54.0,-956.0,324.0
34.0,-250.0,46.0,-40.0,47.0,-21.0,49.0,-956.0,321.0
34.0,-247.0,39.0,-33.0,46.0,-20.0,53.0,-954.0,319.0
32.0,-249.0,38.0,-30.0,42.0,-17.0,51.0,-951.0,318.0
34.0,-251.0,36.0,-30.0,38.0,-14.0,51.0,-952.0,313.0
34.0,-247.0,44.0,-32.0,37.0,-14.0,54.0,-952.0,309.0
34.0,-245.0,38.0,-34.0,34.0,-10.0,55.0,-949.0,312.0
35.0,-249.0,39.0,-36.0,30.0,-9.0,51.0,-947.0,316.0
37.0,-249.0,41.0,-37.0,24.0,-5.0,53.0,-950.0,320.0
35.0,-247.0,37.0,-35.0,18.0,-3.0,54.0,-947.0,316.0
36.0,-248.0,38.0,-35.0,14.0,-2.0,58.0,-949.0,317.0
33.0,-246.0,39.0,-37.0,12.0,-1.0,56.0,-947.0,312.0
37.0,-246.0,36.0,-38.0,11.0,1.0,62.0,-949.0,317.0
37.0,-249.0,41.0,-39.0,10.0,2.0,63.0,-950.0,317.0
37.0,-248.0,42.0,-37.0,9.0,5.0,56.0,-948.0,317.0
35.0,-247.0,37.0,-39.0,10.0,4.0,63.0,-948.0,312.0
36.0,-247.0,40.0,-40.0,10.0,2.0,58.0,-944.0,309.0
38.0,-248.0,42.0,-44.0,10.0,4.0,59.0,-946.0,317.0
36.0,-248.0,44.0,-48.0,10.0,3.0,60.0,-945.0,311.0
34.0,-246.0,43.0,-52.0,11.0,4.0,54.0,-946.0,320.0
35.0,-246.0,38.0,-56.0,11.0,5.0,56.0,-942.0,322.0
35.0,-245.0,43.0,-60.0,12.0,6.0,54.0,-945.0,321.0
34.0,-245.0,41.0,-63.0,14.0,8.0,54.0,-945.0,328.0
36.0,-248.0,42.0,-66.0,15.0,10.0,56.0,-942.0,327.0
37.0,-247.0,41.0,-68.0,16.0,11.0,54.0,-942.0,322.0
36.0,-245.0,44.0,-70.0,17.0,14.0,56.0,-943.0,323.0
32.0,-247.0,42.0,-71.0,16.0,14.0,56.0,-942.0,330.0
35.0,-243.0,40.0,-76.0,11.0,15.0,57.0,-934.0,323.0
35.0,-246.0,43.0,-79.0,9.0,14.0,50.0,-942.0,333.0
31.0,-246.0,44.0,-83.0,5.0,14.0,48.0,-942.0,334.0
31.0,-246.0,46.0,-83.0,3.0,13.0,49.0,-950.0,328.0
33.0,-249.0,43.0,-82.0,0.0,14.0,50.0,-943.0,324.0
35.0,-246.0,45.0,-82.0,-3.0,16.0,49.0,-943.0,334.0
34.0,-245.0,47.0,-80.0,-2.0,17.0,51.0,-944.0,338.0
32.0,-246.0,43.0,-78.0,-3.0,19.0,53.0,-949.0,332.0
36.0,-247.0,44.0,-77.0,0.0,20.0,54.0,-944.0,334.0
35.0,-247.0,42.0,-76.0,1.0,21.0,48.0,-942.0,335.0
37.0,-244.0,43.0,-75.0,2.0,22.0,53.0,-943.0,329.0
38.0,-248.0,44.0,-74.0,5.0,22.0,52.0,-944.0,332.0
36.0,-244.0,45.0,-76.0,6.0,24.0,54.0,-946.0,328.0
34.0,-243.0,43.0,-77.0,6.0,23.0,59.0,-944.0,333.0
36.0,-248.0,46.0,-79.0,9.0,22.0,63.0,-944.0,328.0
36.0,-249.0,46.0,-79.0,7.0,21.0,58.0,-942.0,325.0
34.0,-247.0,51.0,-79.0,5.0,21.0,55.0,-949.0,329.0
34.0,-246.0,44.0,-79.0,3.0,20.0,50.0,-943.0,327.0
33.0,-247.0,46.0,-80.0,3.0,19.0,52.0,-947.0,332.0
36.0,-247.0,41.0,-78.0,2.0,18.0,55.0,-945.0,328.0
34.0,-248.0,46.0,-77.0,3.0,18.0,55.0,-948.0,325.0
35.0,-248.0,44.0,-76.0,6.0,16.0,53.0,-945.0,331.0
38.0,-250.0,40.0,-74.0,9.0,14.0,57.0,-949.0,327.0
36.0,-250.0,42.0,-75.0,11.0,14.0,56.0,-943.0,328.0
33.0,-249.0,39.0,-73.0,13.0,14.0,55.0,-946.0,325.0
35.0,-250.0,45.0,-72.0,14.0,14.0,51.0,-951.0,323.0
34.0,-250.0,43.0,-72.0,14.0,14.0,49.0,-949.0,322.0
34.0,-249.0,43.0,-70.0,14.0,13.0,49.0,-948.0,328.0
33.0,-247.0,39.0,-70.0,18.0,13.0,42.0,-949.0,317.0
32.0,-250.0,43.0,-67.0,19.0,14.0,49.0,-949.0,325.0
34.0,-249.0,42.0,-64.0,20.0,14.0,48.0,-950.0,319.0
33.0,-246.0,41.0,-64.0,21.0,14.0,46.0,-953.0,317.0
33.0,-248.0,38.0,-63.0,20.0,15.0,45.0,-949.0,316.0
30.0,-248.0,42.0,-65.0,19.0,17.0,48.0,-949.0,316.0
33.0,-248.0,37.0,-65.0,17.0,18.0,48.0,-947.0,313.0
32.0,-245.0,39.0,-68.0,17.0,20.0,50.0,-943.0,313.0
32.0,-246.0,39.0,-70.0,15.0,20.0,47.0,-948.0,316.0
32.0,-247.0,43.0,-73.0,16.0,21.0,49.0,-946.0,313.0
34.0,-247.0,39.0,-72.0,15.0,21.0,45.0,-947.0,317.0
32.0,-246.0,38.0,-75.0,13.0,22.0,51.0,-949.0,318.0
30.0,-246.0,44.0,-77.0,14.0,23.0,45.0,-950.0,314.0
32.0,-250.0,43.0,-79.0,15.0,24.0,42.0,-955.0,313.0
31.0,-250.0,43.0,-80.0,15.0,20.0,44.0,-953.0,315.0
33.0,-249.0,39.0,-80.0,14.0,21.0,41.0,-955.0,318.0
31.0,-247.0,39.0,-82.0,12.0,20.0,35.0,-958.0,317.0
35.0,-252.0,40.0,-83.0,12.0,21.0,42.0,-956.0,312.0
31.0,-252.0,41.0,-80.0,13.0,20.0,46.0,-956.0,315.0
30.0,-248.0,39.0,-79.0,17.0,22.0,37.0,-954.0,312.0
33.0,-251.0,41.0,-80.0,20.0,22.0,42.0,-954.0,306.0
32.0,-248.0,40.0,-80.0,23.0,21.0,40.0,-949.0,306.0
30.0,-249.0,37.0,-82.0,25.0,22.0,34.0,-955.0,310.0
31.0,-246.0,33.0,-86.0,28.0,22.0,38.0,-949.0,304.0
31.0,-247.0,35.0,-91.0,30.0,23.0,35.0,-955.0,305.0
32.0,-248.0,35.0,-98.0,30.0,23.0,37.0,-951.0,306.0
34.0,-250.0,35.0,-101.0,32.0,21.0,36.0,-954.0,303.0
31.0,-251.0,38.0,-104.0,34.0,19.0,35.0,-948.0,301.0
31.0,-248.0,37.0,-105.0,34.0,18.0,36.0,-952.0,305.0
30.0,-249.0,36.0,-104.0,33.0,17.0,31.0,-950.0,308.0
30.0,-248.0,37.0,-105.0,31.0,14.0,35.0,-950.0,306.0
28.0,-249.0,40.0,-107.0,28.0,15.0,37.0,-957.0,302.0
28.0,-249.0,38.0,-106.0,25.0,13.0,29.0,-954.0,304.0
26.0,-246.0,37.0,-107.0,20.0,14.0,35.0,-955.0,303.0
29.0,-248.0,34.0,-108.0,17.0,13.0,34.0,-954.0,302.0
29.0,-250.0,36.0,-109.0,16.0,11.0,33.0,-954.0,302.0
29.0,-249.0,36.0,-110.0,11.0,11.0,36.0,-956.0,298.0
31.0,-253.0,39.0,-111.0,9.0,11.0,35.0,-956.0,311.0
30.0,-254.0,39.0,-109.0,6.0,11.0,37.0,-959.0,307.0
30.0,-250.0,39.0,-107.0,2.0,10.0,36.0,-962.0,303.0
30.0,-250.0,35.0,-106.0,1.0,11.0,34.0,-961.0,298.0
31.0,-250.0,38.0,-104.0,3.0,12.0,35.0,-965.0,299.0
31.0,-252.0,34.0,-105.0,3.0,12.0,45.0,-964.0,295.0
31.0,-248.0,35.0,-106.0,7.0,11.0,40.0,-959.0,301.0
30.0,-252.0,36.0,-107.0,9.0,11.0,41.0,-963.0,297.0
32.0,-249.0,33.0,-105.0,10.0,9.0,42.0,-960.0,300.0
34.0,-251.0,36.0,-102.0,12.0,8.0,41.0,-956.0,300.0
32.0,-252.0,35.0,-100.0,12.0,6.0,47.0,-954.0,300.0
33.0,-248.0,37.0,-97.0,12.0,4.0,45.0,-960.0,299.0
33.0,-252.0,35.0,-95.0,13.0,3.0,43.0,-956.0,297.0
32.0,-250.0,38.0,-95.0,13.0,1.0,48.0,-948.0,300.0
34.0,-249.0,41.0,-96.0,14.0,2.0,43.0,-952.0,293.0
30.0,-247.0,37.0,-97.0,12.0,3.0,46.0,-953.0,302.0
33.0,-250.0,35.0,-98.0,12.0,4.0,48.0,-948.0,302.0
31.0,-249.0,35.0,-101.0,11.0,4.0,47.0,-946.0,301.0
31.0,-247.0,38.0,-104.0,9.0,2.0,39.0,-951.0,305.0
32.0,-248.0,39.0,-103.0,8.0,3.0,49.0,-950.0,304.0
34.0,-250.0,40.0,-102.0,5.0,4.0,46.0,-951.0,301.0
32.0,-249.0,40.0,-100.0,1.0,4.0,42.0,-951.0,306.0
32.0,-249.0,39.0,-99.0,-2.0,3.0,47.0,-952.0,307.0
33.0,-252.0,35.0,-97.0,-4.0,4.0,46.0,-952.0,311.0
33.0,-251.0,37.0,-98.0,-4.0,5.0,46.0,-951.0,309.0
33.0,-248.0,37.0,-95.0,-4.0,4.0,46.0,-954.0,311.0
35.0,-251.0,37.0,-94.0,-3.0,5.0,50.0,-958.0,310.0
36.0,-254.0,40.0,-91.0,-4.0,4.0,54.0,-955.0,314.0
35.0,-251.0,40.0,-88.0,-4.0,5.0,49.0,-961.0,317.0
36.0,-254.0,36.0,-84.0,-5.0,6.0,47.0,-964.0,313.0
34.0,-254.0,37.0,-81.0,-6.0,6.0,45.0,-961.0,301.0
31.0,-250.0,34.0,-78.0,-9.0,6.0,46.0,-963.0,296.0
32.0,-247.0,33.0,-79.0,-8.0,7.0,43.0,-963.0,293.0
33.0,-251.0,38.0,-80.0,-7.0,5.0,47.0,-956.0,292.0
36.0,-250.0,33.0,-80.0,-6.0,5.0,46.0,-957.0,295.0
30.0,-249.0,33.0,-79.0,-3.0,5.0,46.0,-952.0,298.0
33.0,-251.0,38.0,-77.0,-1.0,2.0,47.0,-958.0,303.0
31.0,-250.0,39.0,-73.0,1.0,2.0,41.0,-954.0,306.0
29.0,-250.0,39.0,-68.0,3.0,1.0,43.0,-953.0,307.0
29.0,-248.0,38.0,-64.0,4.0,-2.0,37.0,-952.0,315.0
30.0,-247.0,37.0,-63.0,4.0,-2.0,33.0,-951.0,311.0
31.0,-248.0,42.0,-65.0,4.0,-1.0,36.0,-950.0,312.0
28.0,-249.0,43.0,-64.0,3.0,0.0,35.0,-951.0,315.0
30.0,-248.0,40.0,-67.0,1.0,1.0,35.0,-952.0,314.0
27.0,-250.0,37.0,-70.0,3.0,2.0,34.0,-952.0,311.0
32.0,-248.0,42.0,-70.0,3.0,2.0,39.0,-956.0,309.0
27.0,-249.0,40.0,-72.0,2.0,2.0,34.0,-957.0,316.0
31.0,-253.0,37.0,-75.0,2.0,3.0,39.0,-951.0,312.0
33.0,-249.0,38.0,-75.0,-1.0,4.0,38.0,-960.0,311.0
32.0,-249.0,38.0,-77.0,1.0,5.0,33.0,-955.0,308.0
29.0,-248.0,38.0,-78.0,3.0,6.0,38.0,-958.0,304.0
31.0,-249.0,36.0,-78.0,5.0,6.0,43.0,-954.0,311.0
29.0,-251.0,33.0,-80.0,7.0,7.0,43.0,-958.0,300.0
29.0,-250.0,30.0,-81.0,11.0,5.0,41.0,-950.0,300.0
31.0,-249.0,33.0,-83.0,13.0,5.0,38.0,-952.0,293.0
30.0,-247.0,39.0,-87.0,13.0,4.0,38.0,-950.0,292.0
32.0,-249.0,34.0,-93.0,13.0,3.0,40.0,-951.0,297.0
29.0,-249.0,32.0,-96.0,11.0,3.0,36.0,-955.0,290.0
30.0,-251.0,30.0,-98.0,9.0,0.0,40.0,-956.0,293.0
30.0,-251.0,34.0,-102.0,5.0,0.0,35.0,-958.0,293.0
30.0,-251.0,33.0,-103.0,6.0,1.0,38.0,-964.0,292.0
30.0,-251.0,32.0,-105.0,7.0,0.0,39.0,-961.0,291.0
29.0,-251.0,32.0,-105.0,8.0,0.0,38.0,-959.0,285.0
29.0,-253.0,39.0,-102.0,8.0,-1.0,40.0,-970.0,291.0
32.0,-253.0,34.0,-101.0,8.0,-1.0,35.0,-966.0,292.0
30.0,-254.0,33.0,-100.0,9.0,0.0,40.0,-961.0,291.0
32.0,-254.0,32.0,-98.0,10.0,0.0,42.0,-960.0,283.0
29.0,-252.0,32.0,-93.0,9.0,-1.0,40.0,-967.0,286.0
30.0,-251.0,29.0,-90.0,12.0,-1.0,39.0,-961.0,284.0
29.0,-249.0,34.0,-87.0,11.0,0.0,43.0,-964.0,282.0
29.0,-252.0,32.0,-86.0,12.0,0.0,38.0,-957.0,287.0
33.0,-251.0,37.0,-86.0,13.0,-1.0,38.0,-957.0,283.0
30.0,-250.0,36.0,-87.0,13.0,0.0,41.0,-958.0,282.0
30.0,-249.0,32.0,-87.0,12.0,-2.0,44.0,-953.0,290.0
31.0,-250.0,28.0,-89.0,11.0,-1.0,42.0,-959.0,288.0
36.0,-251.0,40.0,-90.0,10.0,-3.0,45.0,-955.0,288.0
33.0,-250.0,32.0,-91.0,8.0,-2.0,44.0,-959.0,289.0
31.0,-252.0,32.0,-92.0,7.0,-2.0,43.0,-958.0,287.0
33.0,-252.0,30.0,-91.0,6.0,-2.0,39.0,-959.0,282.0
31.0,-250.0,35.0,-90.0,8.0,-2.0,40.0,-959.0,285.0
32.0,-251.0,34.0,-88.0,8.0,-1.0,45.0,-966.0,280.0
32.0,-253.0,31.0,-88.0,12.0,-1.0,41.0,-961.0,287.0
33.0,-252.0,32.0,-87.0,14.0,1.0,39.0,-964.0,280.0
32.0,-251.0,31.0,-89.0,16.0,-1.0,44.0,-963.0,281.0
33.0,-252.0,32.0,-89.0,18.0,0.0,42.0,-960.0,284.0
30.0,-251.0,30.0,-86.0,19.0,0.0,43.0,-962.0,286.0
30.0,-253.0,28.0,-85.0,18.0,-1.0,48.0,-962.0,283.0
31.0,-254.0,32.0,-82.0,18.0,-4.0,42.0,-958.0,285.0
31.0,-249.0,28.0,-79.0,18.0,-5.0,48.0,-963.0,290.0
34.0,-248.0,32.0,-76.0,17.0,-4.0,40.0,-960.0,289.0
29.0,-250.0,34.0,-74.0,16.0,-5.0,45.0,-960.0,291.0
33.0,-249.0,32.0,-73.0,17.0,-5.0,43.0,-963.0,284.0
30.0,-252.0,36.0,-72.0,18.0,-4.0,40.0,-968.0,287.0
30.0,-252.0,33.0,-71.0,20.0,-4.0,40.0,-960.0,289.0
32.0,-252.0,33.0,-67.0,23.0,-3.0,45.0,-958.0,287.0
29.0,-252.0,33.0,-66.0,24.0,-4.0,43.0,-959.0,287.0
29.0,-247.0,31.0,-66.0,23.0,-5.0,37.0,-959.0,291.0
36.0,-249.0,37.0,-64.0,22.0,-5.0,45.0,-957.0,292.0
31.0,-251.0,33.0,-64.0,21.0,-5.0,45.0,-960.0,291.0
32.0,-251.0,38.0,-65.0,20.0,-3.0,38.0,-960.0,291.0
31.0,-253.0,33.0,-65.0,20.0,-2.0,37.0,-961.0,293.0
28.0,-249.0,30.0,-66.0,19.0,-2.0,40.0,-961.0,287.0
32.0,-254.0,35.0,-66.0,19.0,-1.0,41.0,-963.0,291.0
30.0,-251.0,35.0,-67.0,20.0,-1.0,38.0,-958.0,286.0
29.0,-252.0,34.0,-70.0,21.0,-1.0,41.0,-959.0,287.0
30.0,-251.0,30.0,-71.0,23.0,-3.0,42.0,-962.0,281.0
31.0,-249.0,33.0,-73.0,25.0,-2.0,37.0,-960.0,283.0
29.0,-248.0,31.0,-73.0,27.0,-3.0,42.0,-952.0,286.0
34.0,-251.0,35.0,-72.0,27.0,-5.0,38.0,-960.0,287.0
32.0,-250.0,32.0,-72.0,28.0,-5.0,41.0,-961.0,282.0
28.0,-251.0,31.0,-75.0,26.0,-5.0,38.0,-960.0,282.0
30.0,-251.0,32.0,-78.0,27.0,-7.0,37.0,-959.0,288.0
30.0,-255.0,33.0,-79.0,26.0,-7.0,36.0,-960.0,286.0
34.0,-253.0,30.0,-79.0,25.0,-7.0,40.0,-961.0,284.0
32.0,-252.0,32.0,-79.0,24.0,-8.0,39.0,-962.0,280.0
35.0,-251.0,37.0,-77.0,23.0,-7.0,41.0,-961.0,280.0
32.0,-252.0,28.0,-78.0,22.0,-6.0,46.0,-961.0,284.0
32.0,-250.0,31.0,-77.0,22.0,-6.0,39.0,-965.0,280.0
32.0,-252.0,29.0,-76.0,22.0,-5.0,44.0,-965.0,284.0
29.0,-251.0,35.0,-74.0,21.0,-6.0,41.0,-958.0,282.0
29.0,-251.0,30.0,-72.0,20.0,-5.0,40.0,-958.0,281.0
31.0,-251.0,32.0,-73.0,20.0,-5.0,43.0,-953.0,280.0
30.0,-250.0,32.0,-74.0,19.0,-5.0,36.0,-961.0,278.0
30.0,-252.0,32.0,-75.0,19.0,-4.0,35.0,-963.0,278.0
32.0,-251.0,31.0,-74.0,20.0,-4.0,41.0,-956.0,273.0
31.0,-251.0,30.0,-74.0,20.0,-2.0,36.0,-963.0,283.0
28.0,-253.0,28.0,-74.0,20.0,-2.0,34.0,-961.0,277.0
31.0,-252.0,32.0,-74.0,19.0,-3.0,37.0,-959.0,276.0
29.0,-251.0,29.0,-74.0,17.0,-2.0,39.0,-959.0,278.0
31.0,-251.0,32.0,-74.0,19.0,-3.0,35.0,-966.0,282.0
28.0,-253.0,28.0,-72.0,18.0,-4.0,35.0,-959.0,280.0
33.0,-252.0,30.0,-73.0,18.0,-5.0,41.0,-965.0,273.0
29.0,-252.0,33.0,-71.0,15.0,-4.0,38.0,-964.0,278.0
30.0,-251.0,33.0,-67.0,13.0,-6.0,46.0,-963.0,281.0
30.0,-251.0,30.0,-69.0,14.0,-7.0,37.0,-961.0,276.0
31.0,-252.0,31.0,-69.0,14.0,-9.0,40.0,-960.0,278.0
33.0,-250.0,31.0,-71.0,15.0,-6.0,42.0,-958.0,281.0
32.0,-250.0,30.0,-75.0,14.0,-7.0,43.0,-955.0,278.0
29.0,-252.0,32.0,-74.0,15.0,-8.0,39.0,-955.0,284.0
32.0,-252.0,31.0,-73.0,15.0,-8.0,40.0,-958.0,284.0
32.0,-250.0,35.0,-72.0,16.0,-6.0,45.0,-961.0,281.0
32.0,-250.0,32.0,-68.0,17.0,-5.0,42.0,-961.0,285.0
33.0,-253.0,34.0,-67.0,19.0,-3.0,46.0,-959.0,279.0
29.0,-254.0,30.0,-69.0,21.0,-3.0,39.0,-958.0,279.0
30.0,-254.0,31.0,-70.0,22.0,-3.0,42.0,-963.0,281.0
30.0,-252.0,31.0,-71.0,22.0,-3.0,41.0,-963.0,280.0
30.0,-253.0,30.0,-72.0,22.0,-2.0,45.0,-968.0,282.0
31.0,-256.0,30.0,-73.0,20.0,-3.0,40.0,-967.0,278.0
28.0,-251.0,28.0,-72.0,19.0,-4.0,40.0,-958.0,276.0
30.0,-251.0,32.0,-69.0,17.0,-4.0,42.0,-962.0,282.0
30.0,-251.0,32.0,-67.0,16.0,-5.0,37.0,-960.0,286.0
34.0,-254.0,31.0,-64.0,18.0,-7.0,45.0,-963.0,283.0
30.0,-251.0,30.0,-65.0,18.0,-9.0,38.0,-961.0,280.0
30.0,-251.0,32.0,-65.0,22.0,-9.0,39.0,-962.0,279.0
32.0,-250.0,30.0,-67.0,25.0,-10.0,41.0,-960.0,283.0
35.0,-254.0,29.0,-69.0,24.0,-10.0,35.0,-963.0,287.0
31.0,-249.0,33.0,-69.0,24.0,-10.0,42.0,-960.0,278.0
33.0,-253.0,34.0,-71.0,25.0,-8.0,41.0,-962.0,282.0
29.0,-253.0,29.0,-70.0,24.0,-9.0,38.0,-968.0,283.0
