acc1_x,acc1_y,acc1_z,gyro_x,gyro_y,gyro_z,acc2_x,acc2_y,acc2_z
27.0,-222.0,85.0,-31.0,15.0,4.0,27.0,-859.0,507.0
29.0,-226.0,87.0,-30.0,13.0,4.0,29.0,-855.0,512.0
26.0,-227.0,87.0,-29.0,14.0,3.0,30.0,-854.0,498.0
30.0,-222.0,86.0,-31.0,14.0,3.0,23.0,-857.0,502.0
29.0,-223.0,84.0,-34.0,15.0,2.0,26.0,-853.0,505.0
25.0,-224.0,84.0,-35.0,16.0,1.0,23.0,-861.0,503.0
27.0,-225.0,80.0,-36.0,17.0,1.0,26.0,-857.0,503.0
29.0,-226.0,87.0,-34.0,16.0,1.0,34.0,-860.0,502.0
26.0,-225.0,88.0,-34.0,17.0,1.0,31.0,-862.0,499.0
31.0,-226.0,89.0,-33.0,18.0,0.0,32.0,-861.0,504.0
28.0,-223.0,86.0,-32.0,19.0,0.0,31.0,-862.0,500.0
27.0,-226.0,87.0,-33.0,20.0,0.0,33.0,-866.0,502.0
30.0,-226.0,88.0,-34.0,21.0,1.0,31.0,-869.0,509.0
28.0,-226.0,86.0,-33.0,20.0,-1.0,28.0,-866.0,503.0
30.0,-230.0,87.0,-28.0,19.0,0.0,30.0,-874.0,511.0
28.0,-226.0,83.0,-24.0,19.0,0.0,35.0,-868.0,508.0
31.0,-224.0,89.0,-21.0,17.0,1.0,35.0,-866.0,510.0
30.0,-229.0,87.0,-18.0,15.0,2.0,33.0,-864.0,501.0
26.0,-224.0,87.0,-18.0,14.0,3.0,31.0,-862.0,501.0
27.0,-223.0,87.0,-21.0,13.0,3.0,26.0,-856.0,504.0
29.0,-224.0,85.0,-23.0,12.0,3.0,26.0,-861.0,499.0
25.0,-225.0,85.0,-29.0,10.0,3.0,36.0,-859.0,502.0
32.0,-227.0,83.0,-33.0,10.0,1.0,32.0,-866.0,502.0
27.0,-226.0,85.0,-36.0,12.0,0.0,35.0,-861.0,505.0
32.0,-226.0,87.0,-38.0,14.0,-2.0,33.0,-862.0,502.0
28.0,-225.0,89.0,-39.0,15.0,-1.0,37.0,-863.0,506.0
31.0,-225.0,87.0,-37.0,17.0,-4.0,34.0,-860.0,512.0
29.0,-225.0,87.0,-36.0,18.0,-4.0,35.0,-869.0,513.0
29.0,-226.0,85.0,-38.0,19.0,-6.0,34.0,-866.0,506.0
25.0,-225.0,92.0,-38.0,20.0,-6.0,22.0,-866.0,508.0
30.0,-228.0,88.0,-38.0,22.0,-6.0,30.0,-864.0,505.0
30.0,-230.0,84.0,-40.0,23.0,-5.0,23.0,-867.0,501.0
28.0,-227.0,84.0,-37.0,22.0,-7.0,32.0,-873.0,502.0
29.0,-226.0,89.0,-37.0,24.0,-6.0,33.0,-866.0,503.0
28.0,-225.0,86.0,-37.0,23.0,-6.0,34.0,-857.0,501.0
30.0,-225.0,88.0,-39.0,23.0,-7.0,27.0,-869.0,505.0
29.0,-227.0,82.0,-39.0,20.0,-5.0,32.0,-864.0,502.0
27.0,-225.0,86.0,-41.0,20.0,-5.0,29.0,-859.0,506.0
29.0,-227.0,87.0,-39.0,18.0,-4.0,32.0,-863.0,505.0
30.0,-225.0,90.0,-38.0,17.0,-1.0,32.0,-871.0,504.0
28.0,-225.0,86.0,-38.0,16.0,-2.0,30.0,-864.0,508.0
29.0,-225.0,88.0,-38.0,16.0,-1.0,32.0,-867.0,501.0
25.0,-223.0,87.0,-36.0,15.0,-3.0,35.0,-863.0,503.0
29.0,-225.0,86.0,-35.0,16.0,-2.0,33.0,-861.0,509.0
30.0,-225.0,87.0,-35.0,15.0,-2.0,29.0,-856.0,509.0
29.0,-223.0,87.0,-34.0,13.0,-1.0,28.0,-855.0,509.0
27.0,-223.0,86.0,-36.0,14.0,-3.0,29.0,-859.0,511.0
27.0,-225.0,86.0,-37.0,16.0,-3.0,30.0,-861.0,503.0
29.0,-223.0,83.0,-40.0,19.0,-3.0,34.0,-854.0,505.0
27.0,-223.0,86.0,-40.0,19.0,-6.0,31.0,-856.0,503.0
28.0,-223.0,85.0,-42.0,20.0,-7.0,29.0,-865.0,506.0
29.0,-227.0,86.0,-41.0,20.0,-7.0,25.0,-862.0,505.0
29.0,-228.0,87.0,-41.0,21.0,-8.0,31.0,-860.0,514.0
26.0,-225.0,89.0,-39.0,22.0,-8.0,26.0,-865.0,512.0
30.0,-228.0,92.0,-35.0,23.0,-8.0,30.0,-864.0,515.0
30.0,-227.0,85.0,-31.0,25.0,-8.0,33.0,-865.0,515.0
29.0,-227.0,87.0,-28.0,26.0,-7.0,28.0,-866.0,511.0
27.0,-226.0,92.0,-24.0,25.0,-5.0,37.0,-866.0,506.0
27.0,-224.0,86.0,-19.0,25.0,-5.0,27.0,-865.0,511.0
31.0,-229.0,86.0,-16.0,25.0,-4.0,32.0,-865.0,512.0
30.0,-227.0,90.0,-14.0,24.0,-5.0,31.0,-868.0,508.0
27.0,-226.0,85.0,-9.0,24.0,-3.0,33.0,-867.0,506.0
29.0,-227.0,88.0,-5.0,24.0,-5.0,34.0,-865.0,513.0
27.0,-225.0,88.0,-1.0,24.0,-5.0,34.0,-864.0,509.0
27.0,-224.0,91.0,-2.0,24.0,-5.0,30.0,-862.0,506.0
29.0,-224.0,85.0,-2.0,24.0,-5.0,30.0,-863.0,509.0
30.0,-224.0,87.0,-1.0,25.0,-5.0,34.0,-860.0,505.0
30.0,-222.0,85.0,-2.0,26.0,-5.0,38.0,-858.0,505.0
29.0,-223.0,85.0,-2.0,26.0,-4.0,32.0,-857.0,506.0
28.0,-224.0,87.0,-5.0,27.0,-4.0,36.0,-853.0,510.0
28.0,-225.0,85.0,-7.0,29.0,-5.0,33.0,-852.0,508.0
30.0,-225.0,85.0,-9.0,29.0,-4.0,36.0,-857.0,508.0
29.0,-222.0,86.0,-11.0,29.0,-5.0,36.0,-853.0,511.0
27.0,-221.0,87.0,-10.0,29.0,-5.0,35.0,-856.0,515.0
30.0,-226.0,88.0,-11.0,30.0,-5.0,34.0,-852.0,507.0
30.0,-224.0,87.0,-14.0,27.0,-6.0,28.0,-857.0,511.0
30.0,-225.0,91.0,-17.0,25.0,-6.0,32.0,-850.0,512.0
28.0,-222.0,85.0,-21.0,24.0,-7.0,25.0,-849.0,512.0
27.0,-221.0,91.0,-27.0,24.0,-7.0,30.0,-846.0,512.0
30.0,-223.0,86.0,-34.0,25.0,-7.0,29.0,-850.0,518.0
28.0,-225.0,87.0,-38.0,26.0,-9.0,27.0,-868.0,521.0
31.0,-232.0,93.0,-39.0,26.0,-8.0,32.0,-881.0,521.0
30.0,-234.0,90.0,-36.0,25.0,-8.0,28.0,-881.0,522.0
29.0,-231.0,90.0,-26.0,24.0,-7.0,27.0,-876.0,521.0
28.0,-228.0,86.0,-16.0,23.0,-7.0,27.0,-870.0,515.0
28.0,-220.0,88.0,-10.0,22.0,-5.0,34.0,-856.0,515.0
29.0,-221.0,86.0,-8.0,21.0,-3.0,30.0,-850.0,509.0
28.0,-219.0,87.0,-15.0,24.0,-2.0,33.0,-843.0,508.0
28.0,-218.0,82.0,-20.0,25.0,-2.0,30.0,-847.0,508.0
26.0,-220.0,84.0,-28.0,24.0,-3.0,28.0,-849.0,506.0
29.0,-223.0,84.0,-35.0,24.0,-3.0,30.0,-856.0,507.0
29.0,-226.0,89.0,-41.0,23.0,-4.0,33.0,-867.0,519.0
30.0,-228.0,90.0,-39.0,20.0,-4.0,31.0,-878.0,528.0
27.0,-232.0,90.0,-32.0,19.0,-4.0,33.0,-884.0,525.0
25.0,-233.0,93.0,-22.0,19.0,-3.0,33.0,-888.0,528.0
28.0,-233.0,88.0,-8.0,18.0,-2.0,33.0,-890.0,530.0
25.0,-234.0,91.0,3.0,17.0,0.0,24.0,-885.0,533.0
27.0,-228.0,89.0,14.0,18.0,3.0,34.0,-882.0,529.0
27.0,-228.0,88.0,24.0,21.0,4.0,30.0,-882.0,526.0
30.0,-228.0,89.0,33.0,23.0,5.0,34.0,-869.0,517.0
27.0,-226.0,84.0,39.0,25.0,5.0,35.0,-864.0,509.0
29.0,-220.0,81.0,40.0,27.0,5.0,34.0,-858.0,496.0
30.0,-219.0,86.0,38.0,27.0,5.0,32.0,-848.0,493.0
26.0,-218.0,82.0,31.0,25.0,3.0,31.0,-840.0,494.0
26.0,-221.0,84.0,26.0,21.0,3.0,29.0,-856.0,508.0
25.0,-222.0,89.0,23.0,18.0,3.0,29.0,-848.0,508.0
28.0,-222.0,86.0,24.0,17.0,2.0,30.0,-848.0,515.0
28.0,-223.0,88.0,25.0,15.0,2.0,25.0,-856.0,519.0
27.0,-223.0,87.0,26.0,15.0,2.0,25.0,-851.0,529.0
24.0,-220.0,90.0,28.0,15.0,2.0,29.0,-854.0,530.0
28.0,-223.0,89.0,30.0,15.0,1.0,23.0,-853.0,532.0
28.0,-224.0,96.0,31.0,15.0,3.0,31.0,-860.0,533.0
28.0,-223.0,94.0,31.0,14.0,3.0,30.0,-853.0,534.0
26.0,-224.0,94.0,31.0,15.0,4.0,30.0,-853.0,536.0
31.0,-224.0,90.0,33.0,16.0,3.0,28.0,-859.0,533.0
25.0,-225.0,90.0,35.0,16.0,2.0,27.0,-857.0,536.0
29.0,-226.0,93.0,39.0,17.0,3.0,29.0,-858.0,533.0
28.0,-226.0,90.0,42.0,16.0,3.0,25.0,-863.0,534.0
27.0,-224.0,90.0,48.0,14.0,4.0,26.0,-866.0,532.0
29.0,-227.0,91.0,56.0,13.0,6.0,19.0,-865.0,530.0
29.0,-227.0,89.0,63.0,12.0,7.0,23.0,-856.0,527.0
27.0,-225.0,89.0,67.0,13.0,7.0,18.0,-856.0,525.0
26.0,-225.0,90.0,74.0,13.0,9.0,22.0,-859.0,529.0
22.0,-223.0,92.0,79.0,11.0,9.0,18.0,-859.0,520.0
27.0,-227.0,90.0,87.0,10.0,10.0,23.0,-864.0,526.0
25.0,-224.0,89.0,95.0,10.0,12.0,19.0,-862.0,526.0
28.0,-227.0,87.0,101.0,10.0,14.0,17.0,-859.0,528.0
31.0,-224.0,89.0,110.0,11.0,16.0,24.0,-859.0,527.0
27.0,-221.0,87.0,118.0,12.0,18.0,29.0,-856.0,526.0
28.0,-226.0,90.0,125.0,13.0,22.0,28.0,-856.0,521.0
26.0,-222.0,87.0,134.0,13.0,23.0,28.0,-855.0,525.0
25.0,-223.0,90.0,140.0,11.0,24.0,27.0,-860.0,523.0
27.0,-222.0,90.0,145.0,10.0,27.0,25.0,-859.0,528.0
28.0,-222.0,91.0,150.0,9.0,29.0,27.0,-858.0,526.0
25.0,-219.0,90.0,152.0,8.0,31.0,29.0,-853.0,527.0
27.0,-222.0,94.0,156.0,7.0,33.0,20.0,-859.0,531.0
29.0,-225.0,92.0,160.0,8.0,33.0,23.0,-856.0,527.0
25.0,-223.0,90.0,163.0,8.0,34.0,24.0,-854.0,524.0
21.0,-220.0,91.0,165.0,8.0,36.0,19.0,-851.0,529.0
27.0,-221.0,90.0,168.0,9.0,39.0,17.0,-849.0,529.0
26.0,-223.0,93.0,167.0,8.0,40.0,23.0,-846.0,533.0
26.0,-222.0,92.0,167.0,10.0,41.0,11.0,-845.0,524.0
26.0,-222.0,89.0,167.0,10.0,41.0,17.0,-845.0,528.0
26.0,-220.0,92.0,168.0,12.0,42.0,16.0,-846.0,532.0
25.0,-222.0,96.0,164.0,14.0,41.0,18.0,-845.0,529.0
27.0,-219.0,93.0,162.0,14.0,41.0,17.0,-837.0,528.0
28.0,-222.0,89.0,158.0,12.0,38.0,26.0,-841.0,527.0
27.0,-221.0,92.0,152.0,10.0,35.0,24.0,-833.0,529.0
26.0,-220.0,91.0,148.0,8.0,33.0,27.0,-830.0,532.0
27.0,-217.0,95.0,142.0,8.0,30.0,27.0,-831.0,528.0
30.0,-220.0,85.0,136.0,8.0,27.0,33.0,-839.0,525.0
27.0,-218.0,89.0,132.0,8.0,25.0,32.0,-838.0,528.0
30.0,-222.0,91.0,127.0,11.0,21.0,35.0,-839.0,535.0
28.0,-218.0,91.0,125.0,13.0,18.0,36.0,-841.0,532.0
29.0,-217.0,93.0,118.0,15.0,13.0,37.0,-837.0,528.0
32.0,-217.0,91.0,113.0,20.0,8.0,38.0,-832.0,534.0
34.0,-215.0,89.0,106.0,22.0,5.0,40.0,-833.0,529.0
28.0,-216.0,89.0,98.0,23.0,0.0,43.0,-830.0,523.0
32.0,-216.0,86.0,88.0,23.0,-3.0,48.0,-825.0,527.0
31.0,-214.0,89.0,74.0,20.0,-6.0,47.0,-824.0,520.0
31.0,-211.0,90.0,59.0,21.0,-10.0,46.0,-818.0,522.0
29.0,-210.0,87.0,41.0,24.0,-13.0,48.0,-814.0,518.0
32.0,-211.0,91.0,21.0,24.0,-18.0,49.0,-816.0,521.0
34.0,-213.0,84.0,0.0,20.0,-22.0,48.0,-809.0,518.0
33.0,-207.0,91.0,-23.0,20.0,-26.0,48.0,-805.0,520.0
31.0,-208.0,91.0,-44.0,21.0,-30.0,45.0,-808.0,526.0
33.0,-210.0,91.0,-66.0,20.0,-38.0,40.0,-811.0,525.0
32.0,-210.0,89.0,-87.0,22.0,-45.0,47.0,-814.0,523.0
33.0,-211.0,92.0,-108.0,19.0,-53.0,51.0,-812.0,531.0
33.0,-214.0,89.0,-130.0,13.0,-61.0,47.0,-809.0,540.0
32.0,-211.0,96.0,-150.0,8.0,-70.0,48.0,-810.0,546.0
36.0,-213.0,94.0,-171.0,6.0,-79.0,38.0,-810.0,536.0
31.0,-211.0,93.0,-193.0,6.0,-88.0,40.0,-812.0,536.0
33.0,-213.0,94.0,-220.0,12.0,-95.0,39.0,-810.0,527.0
29.0,-210.0,89.0,-252.0,21.0,-101.0,43.0,-810.0,526.0
31.0,-209.0,87.0,-285.0,30.0,-106.0,45.0,-817.0,517.0
33.0,-209.0,91.0,-318.0,40.0,-108.0,47.0,-815.0,523.0
34.0,-213.0,88.0,-350.0,49.0,-106.0,42.0,-822.0,525.0
29.0,-215.0,92.0,-372.0,59.0,-104.0,39.0,-823.0,527.0
32.0,-216.0,96.0,-386.0,67.0,-103.0,37.0,-836.0,531.0
29.0,-222.0,94.0,-392.0,72.0,-99.0,35.0,-848.0,539.0
29.0,-223.0,98.0,-390.0,76.0,-94.0,34.0,-855.0,550.0
27.0,-226.0,96.0,-379.0,78.0,-88.0,38.0,-863.0,551.0
29.0,-227.0,100.0,-361.0,79.0,-81.0,32.0,-872.0,559.0
27.0,-228.0,99.0,-336.0,77.0,-74.0,28.0,-873.0,560.0
25.0,-227.0,102.0,-313.0,74.0,-64.0,21.0,-879.0,561.0
27.0,-232.0,102.0,-291.0,71.0,-57.0,24.0,-880.0,557.0
26.0,-231.0,102.0,-273.0,71.0,-51.0,24.0,-887.0,558.0
24.0,-232.0,106.0,-255.0,73.0,-47.0,20.0,-885.0,562.0
25.0,-234.0,99.0,-230.0,74.0,-43.0,16.0,-892.0,567.0
26.0,-231.0,102.0,-205.0,73.0,-41.0,17.0,-885.0,570.0
25.0,-233.0,102.0,-175.0,73.0,-38.0,16.0,-883.0,568.0
22.0,-226.0,101.0,-148.0,72.0,-36.0,15.0,-877.0,569.0
26.0,-232.0,98.0,-125.0,72.0,-36.0,19.0,-873.0,564.0
22.0,-225.0,97.0,-102.0,71.0,-36.0,14.0,-869.0,568.0
24.0,-227.0,101.0,-80.0,70.0,-36.0,17.0,-858.0,571.0
24.0,-225.0,97.0,-58.0,71.0,-39.0,10.0,-844.0,562.0
23.0,-217.0,99.0,-44.0,73.0,-43.0,14.0,-843.0,552.0
23.0,-217.0,96.0,-34.0,74.0,-45.0,11.0,-825.0,551.0
27.0,-215.0,95.0,-28.0,78.0,-50.0,13.0,-823.0,554.0
23.0,-212.0,98.0,-29.0,83.0,-54.0,14.0,-806.0,561.0
24.0,-214.0,100.0,-29.0,87.0,-56.0,18.0,-806.0,559.0
28.0,-210.0,101.0,-31.0,92.0,-58.0,25.0,-804.0,560.0
29.0,-208.0,101.0,-35.0,94.0,-59.0,24.0,-807.0,564.0
24.0,-208.0,102.0,-36.0,92.0,-58.0,29.0,-809.0,572.0
27.0,-216.0,104.0,-33.0,91.0,-57.0,28.0,-822.0,568.0
26.0,-217.0,103.0,-24.0,89.0,-54.0,24.0,-832.0,571.0
27.0,-219.0,104.0,-6.0,88.0,-51.0,28.0,-839.0,577.0
28.0,-219.0,103.0,10.0,87.0,-48.0,23.0,-843.0,564.0
28.0,-218.0,103.0,26.0,88.0,-45.0,20.0,-838.0,563.0
25.0,-213.0,102.0,38.0,87.0,-42.0,19.0,-832.0,566.0
24.0,-217.0,100.0,42.0,87.0,-39.0,14.0,-826.0,558.0
23.0,-215.0,100.0,40.0,87.0,-37.0,13.0,-822.0,564.0
24.0,-213.0,99.0,42.0,85.0,-36.0,9.0,-820.0,569.0
21.0,-214.0,104.0,45.0,83.0,-36.0,7.0,-829.0,568.0
22.0,-217.0,104.0,47.0,79.0,-35.0,8.0,-829.0,567.0
20.0,-217.0,103.0,55.0,74.0,-31.0,1.0,-844.0,568.0
21.0,-224.0,104.0,62.0,67.0,-27.0,-6.0,-849.0,569.0
16.0,-221.0,105.0,69.0,60.0,-24.0,-12.0,-851.0,568.0
17.0,-224.0,108.0,77.0,54.0,-20.0,-6.0,-850.0,573.0
20.0,-222.0,103.0,83.0,49.0,-17.0,-16.0,-856.0,579.0
17.0,-225.0,106.0,89.0,44.0,-15.0,-13.0,-854.0,587.0
16.0,-224.0,105.0,99.0,39.0,-11.0,-9.0,-864.0,588.0
18.0,-225.0,103.0,110.0,33.0,-8.0,-3.0,-863.0,587.0
20.0,-227.0,107.0,125.0,24.0,-3.0,-6.0,-859.0,584.0
19.0,-223.0,103.0,138.0,13.0,0.0,-3.0,-855.0,579.0
20.0,-219.0,100.0,147.0,5.0,3.0,4.0,-846.0,565.0
22.0,-221.0,100.0,151.0,-2.0,4.0,10.0,-828.0,559.0
22.0,-216.0,97.0,151.0,-7.0,4.0,12.0,-827.0,554.0
25.0,-216.0,99.0,154.0,-12.0,3.0,23.0,-827.0,554.0
28.0,-218.0,96.0,155.0,-17.0,4.0,33.0,-828.0,557.0
28.0,-215.0,99.0,156.0,-22.0,4.0,31.0,-826.0,555.0
28.0,-216.0,102.0,150.0,-26.0,4.0,35.0,-821.0,553.0
32.0,-212.0,94.0,136.0,-30.0,2.0,45.0,-821.0,553.0
31.0,-210.0,100.0,122.0,-33.0,-3.0,47.0,-815.0,557.0
35.0,-213.0,97.0,106.0,-34.0,-6.0,43.0,-813.0,552.0
33.0,-213.0,97.0,93.0,-30.0,-11.0,50.0,-816.0,550.0
34.0,-213.0,97.0,80.0,-27.0,-16.0,52.0,-822.0,553.0
35.0,-216.0,97.0,71.0,-24.0,-18.0,48.0,-824.0,552.0
33.0,-216.0,97.0,64.0,-19.0,-22.0,50.0,-838.0,551.0
30.0,-219.0,96.0,61.0,-15.0,-26.0,50.0,-842.0,556.0
32.0,-222.0,96.0,65.0,-9.0,-28.0,45.0,-844.0,552.0
30.0,-224.0,98.0,70.0,-6.0,-29.0,43.0,-854.0,552.0
30.0,-226.0,100.0,77.0,-2.0,-29.0,38.0,-853.0,550.0
29.0,-225.0,98.0,85.0,2.0,-29.0,37.0,-847.0,553.0
28.0,-220.0,96.0,91.0,5.0,-28.0,40.0,-853.0,556.0
30.0,-221.0,98.0,97.0,3.0,-26.0,35.0,-851.0,552.0
27.0,-220.0,98.0,100.0,-1.0,-22.0,26.0,-841.0,548.0
27.0,-218.0,95.0,100.0,-4.0,-18.0,27.0,-833.0,550.0
25.0,-212.0,96.0,95.0,-6.0,-13.0,31.0,-827.0,543.0
25.0,-214.0,93.0,88.0,-7.0,-9.0,32.0,-818.0,545.0
28.0,-213.0,94.0,81.0,-6.0,-8.0,31.0,-822.0,548.0
28.0,-212.0,97.0,74.0,-6.0,-4.0,31.0,-819.0,548.0
32.0,-213.0,95.0,70.0,-7.0,0.0,36.0,-819.0,549.0
28.0,-213.0,96.0,65.0,-6.0,1.0,45.0,-815.0,554.0
31.0,-215.0,97.0,58.0,-6.0,2.0,40.0,-817.0,556.0
32.0,-213.0,96.0,55.0,-5.0,2.0,43.0,-816.0,565.0
31.0,-212.0,100.0,50.0,-6.0,3.0,45.0,-815.0,559.0
30.0,-210.0,98.0,43.0,-7.0,5.0,45.0,-810.0,559.0
30.0,-210.0,95.0,35.0,-6.0,5.0,43.0,-810.0,554.0
31.0,-209.0,98.0,24.0,-4.0,4.0,39.0,-805.0,552.0
33.0,-212.0,101.0,15.0,1.0,2.0,41.0,-809.0,556.0
31.0,-211.0,95.0,7.0,4.0,-1.0,41.0,-818.0,556.0
29.0,-213.0,100.0,0.0,8.0,-2.0,37.0,-812.0,562.0
32.0,-214.0,99.0,-7.0,8.0,-5.0,40.0,-821.0,564.0
30.0,-217.0,97.0,-8.0,9.0,-7.0,37.0,-822.0,560.0
31.0,-216.0,101.0,-9.0,11.0,-8.0,36.0,-826.0,566.0
27.0,-213.0,102.0,-9.0,9.0,-9.0,35.0,-827.0,564.0
30.0,-216.0,96.0,-6.0,9.0,-10.0,31.0,-828.0,566.0
30.0,-215.0,105.0,-5.0,8.0,-9.0,43.0,-827.0,567.0
31.0,-216.0,102.0,-2.0,9.0,-9.0,42.0,-829.0,567.0
31.0,-217.0,104.0,4.0,9.0,-8.0,41.0,-826.0,565.0
32.0,-215.0,102.0,6.0,8.0,-7.0,42.0,-827.0,567.0
31.0,-217.0,101.0,6.0,9.0,-5.0,46.0,-823.0,569.0
29.0,-218.0,102.0,12.0,8.0,-5.0,37.0,-828.0,564.0
31.0,-218.0,101.0,18.0,10.0,-6.0,43.0,-826.0,571.0
27.0,-214.0,104.0,23.0,11.0,-6.0,37.0,-829.0,573.0
30.0,-214.0,101.0,29.0,11.0,-6.0,41.0,-826.0,564.0
32.0,-213.0,106.0,34.0,12.0,-4.0,43.0,-828.0,567.0
31.0,-217.0,104.0,39.0,13.0,-4.0,42.0,-829.0,565.0
31.0,-218.0,100.0,42.0,13.0,-2.0,37.0,-823.0,574.0
29.0,-215.0,102.0,45.0,14.0,-3.0,31.0,-826.0,567.0
30.0,-216.0,103.0,47.0,12.0,-1.0,37.0,-826.0,573.0
29.0,-216.0,99.0,52.0,12.0,-2.0,37.0,-823.0,574.0
30.0,-214.0,108.0,57.0,11.0,-2.0,38.0,-825.0,579.0
28.0,-217.0,104.0,61.0,14.0,-1.0,35.0,-822.0,565.0
30.0,-217.0,104.0,66.0,12.0,-2.0,33.0,-826.0,580.0
32.0,-216.0,102.0,71.0,12.0,-2.0,39.0,-825.0,578.0
35.0,-215.0,105.0,79.0,13.0,-4.0,45.0,-825.0,584.0
28.0,-211.0,104.0,86.0,13.0,-4.0,43.0,-830.0,580.0
30.0,-218.0,107.0,94.0,13.0,-5.0,36.0,-830.0,585.0
31.0,-216.0,105.0,101.0,12.0,-4.0,39.0,-825.0,588.0
28.0,-216.0,106.0,108.0,15.0,-4.0,42.0,-827.0,588.0
29.0,-215.0,107.0,114.0,18.0,-5.0,42.0,-829.0,589.0
30.0,-218.0,108.0,123.0,21.0,-2.0,40.0,-829.0,591.0
30.0,-215.0,107.0,133.0,22.0,1.0,40.0,-829.0,592.0
29.0,-217.0,107.0,141.0,22.0,3.0,33.0,-828.0,594.0
30.0,-214.0,110.0,146.0,24.0,5.0,31.0,-825.0,588.0
31.0,-217.0,106.0,151.0,24.0,7.0,36.0,-820.0,593.0
29.0,-211.0,106.0,155.0,23.0,10.0,28.0,-820.0,590.0
27.0,-212.0,107.0,159.0,21.0,13.0,30.0,-814.0,584.0
24.0,-210.0,100.0,162.0,18.0,14.0,27.0,-815.0,583.0
29.0,-210.0,105.0,164.0,13.0,14.0,29.0,-809.0,580.0
28.0,-211.0,106.0,163.0,10.0,14.0,28.0,-803.0,578.0
26.0,-209.0,102.0,162.0,8.0,14.0,26.0,-803.0,578.0
29.0,-208.0,102.0,162.0,9.0,13.0,24.0,-806.0,581.0
30.0,-210.0,106.0,161.0,8.0,10.0,32.0,-805.0,580.0
29.0,-208.0,108.0,158.0,11.0,11.0,32.0,-802.0,587.0
32.0,-209.0,104.0,156.0,11.0,11.0,36.0,-804.0,582.0
29.0,-209.0,107.0,153.0,12.0,11.0,36.0,-808.0,591.0
28.0,-210.0,105.0,152.0,14.0,10.0,40.0,-806.0,592.0
30.0,-208.0,105.0,150.0,15.0,11.0,38.0,-807.0,587.0
31.0,-212.0,110.0,148.0,12.0,9.0,38.0,-797.0,589.0
28.0,-206.0,109.0,144.0,12.0,8.0,41.0,-796.0,590.0
30.0,-209.0,101.0,138.0,12.0,8.0,36.0,-796.0,593.0
30.0,-203.0,107.0,130.0,13.0,6.0,44.0,-792.0,583.0
33.0,-206.0,103.0,123.0,14.0,3.0,37.0,-793.0,593.0
36.0,-205.0,105.0,115.0,17.0,3.0,37.0,-791.0,591.0
31.0,-206.0,106.0,109.0,19.0,1.0,45.0,-795.0,599.0
31.0,-207.0,107.0,107.0,20.0,3.0,43.0,-795.0,601.0
32.0,-206.0,109.0,104.0,22.0,3.0,44.0,-796.0,601.0
29.0,-207.0,111.0,101.0,21.0,2.0,42.0,-795.0,599.0
33.0,-208.0,106.0,99.0,22.0,1.0,39.0,-795.0,602.0
31.0,-211.0,109.0,98.0,25.0,1.0,36.0,-808.0,602.0
34.0,-212.0,112.0,102.0,27.0,2.0,37.0,-817.0,602.0
31.0,-219.0,113.0,111.0,29.0,5.0,39.0,-830.0,602.0
29.0,-217.0,111.0,123.0,30.0,10.0,41.0,-831.0,603.0
29.0,-213.0,110.0,137.0,32.0,11.0,40.0,-831.0,599.0
31.0,-214.0,111.0,146.0,33.0,14.0,38.0,-815.0,598.0
31.0,-210.0,108.0,150.0,33.0,17.0,30.0,-815.0,598.0
30.0,-209.0,113.0,149.0,35.0,18.0,33.0,-803.0,601.0
31.0,-206.0,110.0,147.0,36.0,17.0,39.0,-791.0,604.0
32.0,-206.0,107.0,145.0,37.0,17.0,39.0,-795.0,601.0
31.0,-211.0,110.0,144.0,39.0,14.0,41.0,-796.0,599.0
31.0,-211.0,113.0,146.0,41.0,13.0,39.0,-803.0,606.0
31.0,-210.0,112.0,152.0,44.0,12.0,43.0,-809.0,609.0
30.0,-211.0,111.0,157.0,46.0,10.0,41.0,-806.0,611.0
34.0,-214.0,113.0,161.0,48.0,9.0,42.0,-814.0,614.0
33.0,-209.0,110.0,163.0,50.0,9.0,42.0,-809.0,615.0
31.0,-208.0,112.0,161.0,52.0,11.0,42.0,-807.0,613.0
31.0,-206.0,116.0,157.0,51.0,9.0,36.0,-805.0,614.0
27.0,-204.0,114.0,153.0,51.0,7.0,40.0,-793.0,617.0
28.0,-205.0,116.0,146.0,52.0,2.0,38.0,-797.0,613.0
34.0,-207.0,115.0,141.0,51.0,-2.0,38.0,-789.0,618.0
29.0,-203.0,113.0,139.0,50.0,-6.0,35.0,-791.0,619.0
29.0,-202.0,113.0,141.0,49.0,-8.0,40.0,-791.0,610.0
29.0,-203.0,111.0,138.0,50.0,-12.0,38.0,-789.0,612.0
30.0,-206.0,113.0,133.0,50.0,-16.0,39.0,-791.0,601.0
32.0,-205.0,112.0,131.0,50.0,-19.0,38.0,-798.0,611.0
30.0,-209.0,112.0,136.0,51.0,-21.0,34.0,-799.0,611.0
29.0,-209.0,115.0,149.0,54.0,-22.0,44.0,-805.0,609.0
30.0,-210.0,116.0,160.0,58.0,-21.0,35.0,-804.0,613.0
31.0,-210.0,115.0,175.0,64.0,-20.0,37.0,-803.0,619.0
31.0,-208.0,114.0,188.0,70.0,-17.0,43.0,-803.0,616.0
33.0,-207.0,115.0,197.0,76.0,-17.0,43.0,-795.0,618.0
31.0,-206.0,116.0,201.0,85.0,-16.0,45.0,-790.0,616.0
33.0,-203.0,112.0,200.0,92.0,-14.0,39.0,-780.0,620.0
29.0,-198.0,116.0,202.0,97.0,-11.0,42.0,-774.0,615.0
27.0,-199.0,114.0,203.0,99.0,-6.0,37.0,-766.0,625.0
29.0,-197.0,112.0,203.0,104.0,-1.0,40.0,-757.0,622.0
26.0,-198.0,114.0,202.0,107.0,1.0,32.0,-756.0,622.0
24.0,-193.0,112.0,196.0,107.0,5.0,24.0,-749.0,626.0
24.0,-194.0,116.0,185.0,103.0,6.0,12.0,-737.0,613.0
22.0,-193.0,111.0,171.0,98.0,11.0,11.0,-739.0,614.0
24.0,-193.0,114.0,154.0,92.0,15.0,10.0,-733.0,612.0
21.0,-194.0,113.0,139.0,89.0,17.0,4.0,-735.0,623.0
25.0,-193.0,121.0,126.0,85.0,21.0,3.0,-733.0,630.0
23.0,-193.0,119.0,118.0,80.0,21.0,10.0,-742.0,636.0
22.0,-192.0,120.0,111.0,75.0,21.0,16.0,-744.0,638.0
23.0,-191.0,120.0,96.0,69.0,18.0,14.0,-744.0,631.0
26.0,-195.0,116.0,78.0,66.0,13.0,18.0,-750.0,634.0
24.0,-196.0,118.0,64.0,63.0,8.0,24.0,-753.0,635.0
27.0,-199.0,118.0,57.0,60.0,3.0,32.0,-765.0,639.0
26.0,-197.0,114.0,54.0,60.0,-3.0,30.0,-766.0,634.0
28.0,-201.0,117.0,54.0,63.0,-12.0,41.0,-780.0,633.0
30.0,-202.0,122.0,54.0,66.0,-23.0,45.0,-783.0,639.0
35.0,-205.0,120.0,52.0,71.0,-31.0,42.0,-786.0,640.0
32.0,-202.0,117.0,48.0,75.0,-39.0,45.0,-783.0,643.0
31.0,-200.0,119.0,38.0,79.0,-44.0,44.0,-772.0,642.0
33.0,-202.0,124.0,25.0,88.0,-45.0,38.0,-779.0,654.0
30.0,-205.0,122.0,17.0,97.0,-41.0,38.0,-784.0,650.0
30.0,-207.0,119.0,15.0,103.0,-35.0,37.0,-792.0,658.0
32.0,-212.0,125.0,28.0,105.0,-30.0,41.0,-812.0,659.0
32.0,-212.0,126.0,46.0,107.0,-26.0,37.0,-814.0,653.0
28.0,-214.0,121.0,64.0,109.0,-24.0,35.0,-827.0,649.0
28.0,-215.0,122.0,82.0,114.0,-18.0,29.0,-827.0,654.0
25.0,-216.0,122.0,106.0,114.0,-15.0,18.0,-825.0,652.0
27.0,-218.0,119.0,132.0,116.0,-8.0,19.0,-831.0,639.0
24.0,-216.0,115.0,164.0,118.0,-6.0,13.0,-832.0,637.0
24.0,-218.0,117.0,199.0,120.0,-4.0,9.0,-835.0,632.0
20.0,-212.0,118.0,229.0,119.0,-1.0,9.0,-826.0,640.0
22.0,-209.0,112.0,259.0,119.0,-1.0,7.0,-811.0,633.0
25.0,-205.0,112.0,279.0,119.0,1.0,2.0,-792.0,623.0
22.0,-201.0,118.0,285.0,119.0,3.0,11.0,-776.0,627.0
23.0,-198.0,116.0,284.0,120.0,8.0,18.0,-768.0,632.0
27.0,-199.0,117.0,288.0,123.0,11.0,21.0,-758.0,634.0
25.0,-198.0,118.0,293.0,127.0,20.0,20.0,-762.0,635.0
26.0,-200.0,114.0,305.0,128.0,28.0,18.0,-766.0,627.0
22.0,-201.0,110.0,318.0,130.0,37.0,20.0,-768.0,622.0
26.0,-200.0,113.0,334.0,132.0,43.0,25.0,-767.0,618.0
25.0,-201.0,115.0,348.0,138.0,47.0,24.0,-780.0,626.0
25.0,-206.0,119.0,372.0,141.0,53.0,23.0,-785.0,632.0
25.0,-200.0,119.0,392.0,141.0,58.0,27.0,-782.0,638.0
28.0,-203.0,120.0,406.0,138.0,61.0,25.0,-774.0,641.0
28.0,-201.0,119.0,406.0,138.0,67.0,34.0,-774.0,644.0
27.0,-197.0,124.0,402.0,142.0,69.0,21.0,-763.0,648.0
25.0,-201.0,120.0,400.0,150.0,73.0,24.0,-771.0,648.0
25.0,-204.0,124.0,411.0,160.0,79.0,20.0,-783.0,659.0
27.0,-208.0,127.0,441.0,169.0,86.0,20.0,-788.0,665.0
26.0,-210.0,122.0,480.0,171.0,95.0,20.0,-800.0,662.0
27.0,-208.0,125.0,520.0,173.0,103.0,22.0,-793.0,655.0
23.0,-207.0,120.0,557.0,173.0,110.0,14.0,-794.0,651.0
22.0,-204.0,121.0,586.0,169.0,115.0,0.0,-784.0,645.0
26.0,-204.0,117.0,613.0,164.0,121.0,11.0,-784.0,641.0
22.0,-197.0,122.0,641.0,161.0,125.0,8.0,-769.0,646.0
24.0,-201.0,118.0,666.0,162.0,125.0,6.0,-758.0,651.0
22.0,-194.0,125.0,688.0,163.0,126.0,6.0,-746.0,657.0
20.0,-192.0,127.0,704.0,165.0,129.0,9.0,-735.0,662.0
23.0,-191.0,127.0,719.0,163.0,133.0,9.0,-721.0,672.0
22.0,-188.0,128.0,730.0,159.0,138.0,11.0,-714.0,678.0
22.0,-186.0,126.0,732.0,155.0,141.0,12.0,-705.0,685.0
23.0,-181.0,132.0,724.0,154.0,142.0,0.0,-698.0,683.0
19.0,-180.0,133.0,708.0,152.0,140.0,-3.0,-697.0,693.0
19.0,-182.0,132.0,698.0,151.0,140.0,-8.0,-698.0,693.0
15.0,-181.0,136.0,691.0,148.0,140.0,-15.0,-702.0,698.0
14.0,-186.0,133.0,693.0,145.0,143.0,-18.0,-708.0,703.0
16.0,-187.0,132.0,700.0,144.0,147.0,-16.0,-715.0,707.0
16.0,-189.0,132.0,707.0,145.0,151.0,-18.0,-721.0,707.0
18.0,-191.0,135.0,714.0,143.0,156.0,-6.0,-720.0,711.0
21.0,-190.0,135.0,729.0,145.0,160.0,-3.0,-724.0,709.0
20.0,-188.0,137.0,754.0,146.0,163.0,-8.0,-717.0,709.0
20.0,-189.0,134.0,786.0,145.0,167.0,2.0,-723.0,709.0
20.0,-189.0,134.0,814.0,141.0,172.0,-6.0,-712.0,714.0
21.0,-184.0,137.0,837.0,137.0,175.0,-16.0,-702.0,710.0
16.0,-182.0,135.0,854.0,133.0,178.0,-15.0,-694.0,721.0
20.0,-178.0,136.0,869.0,131.0,182.0,-25.0,-678.0,725.0
14.0,-174.0,140.0,883.0,132.0,186.0,-18.0,-671.0,727.0
17.0,-170.0,140.0,889.0,133.0,191.0,-20.0,-655.0,738.0
15.0,-168.0,145.0,890.0,132.0,192.0,-18.0,-636.0,738.0
14.0,-170.0,145.0,892.0,129.0,192.0,-18.0,-645.0,753.0
16.0,-171.0,145.0,900.0,120.0,195.0,-7.0,-642.0,748.0
17.0,-168.0,145.0,907.0,111.0,200.0,-3.0,-643.0,754.0
20.0,-168.0,149.0,911.0,103.0,208.0,1.0,-648.0,757.0
23.0,-172.0,144.0,921.0,98.0,215.0,0.0,-638.0,745.0
19.0,-163.0,143.0,927.0,103.0,218.0,10.0,-632.0,739.0
25.0,-160.0,140.0,932.0,115.0,212.0,26.0,-610.0,729.0
26.0,-150.0,144.0,928.0,129.0,204.0,31.0,-590.0,738.0
33.0,-153.0,150.0,919.0,141.0,199.0,45.0,-581.0,761.0
34.0,-151.0,151.0,917.0,148.0,192.0,54.0,-580.0,778.0
42.0,-154.0,150.0,921.0,154.0,184.0,80.0,-581.0,780.0
46.0,-148.0,151.0,920.0,161.0,172.0,89.0,-567.0,767.0
36.0,-143.0,150.0,911.0,166.0,156.0,58.0,-541.0,770.0
27.0,-139.0,146.0,913.0,171.0,151.0,32.0,-536.0,760.0
20.0,-140.0,147.0,922.0,178.0,163.0,11.0,-537.0,757.0
21.0,-138.0,153.0,926.0,188.0,180.0,-5.0,-538.0,778.0
13.0,-142.0,155.0,926.0,201.0,193.0,-22.0,-538.0,795.0
11.0,-138.0,159.0,923.0,212.0,199.0,-39.0,-544.0,803.0
8.0,-139.0,161.0,918.0,215.0,206.0,-51.0,-543.0,808.0
5.0,-136.0,158.0,915.0,211.0,214.0,-51.0,-528.0,801.0
6.0,-136.0,155.0,913.0,206.0,222.0,-48.0,-522.0,792.0
7.0,-131.0,155.0,916.0,201.0,224.0,-53.0,-505.0,780.0
11.0,-129.0,151.0,922.0,197.0,223.0,-42.0,-494.0,781.0
9.0,-125.0,155.0,927.0,184.0,219.0,-34.0,-482.0,787.0
9.0,-125.0,153.0,931.0,162.0,209.0,-33.0,-475.0,776.0
13.0,-120.0,147.0,926.0,139.0,202.0,-29.0,-459.0,752.0
11.0,-125.0,148.0,921.0,123.0,192.0,-31.0,-459.0,753.0
10.0,-123.0,149.0,916.0,114.0,182.0,-35.0,-465.0,767.0
12.0,-127.0,147.0,914.0,107.0,173.0,-30.0,-477.0,763.0
11.0,-130.0,148.0,912.0,101.0,162.0,-41.0,-486.0,759.0
8.0,-130.0,149.0,918.0,94.0,152.0,-49.0,-499.0,776.0
6.0,-133.0,149.0,935.0,91.0,142.0,-59.0,-511.0,779.0
3.0,-139.0,153.0,959.0,99.0,131.0,-73.0,-522.0,784.0
0.0,-136.0,156.0,987.0,107.0,124.0,-83.0,-526.0,795.0
0.0,-139.0,159.0,1011.0,111.0,125.0,-85.0,-528.0,819.0
-3.0,-139.0,163.0,1031.0,110.0,128.0,-100.0,-535.0,821.0
-5.0,-142.0,162.0,1058.0,107.0,135.0,-98.0,-541.0,832.0
-4.0,-138.0,169.0,1082.0,98.0,144.0,-102.0,-539.0,836.0
-9.0,-136.0,162.0,1107.0,90.0,146.0,-113.0,-523.0,831.0
-14.0,-133.0,173.0,1130.0,86.0,149.0,-129.0,-511.0,849.0
-15.0,-136.0,173.0,1157.0,77.0,157.0,-136.0,-510.0,851.0
-16.0,-131.0,173.0,1174.0,63.0,166.0,-144.0,-496.0,865.0
-14.0,-127.0,172.0,1188.0,51.0,179.0,-138.0,-482.0,874.0
-13.0,-124.0,180.0,1198.0,42.0,196.0,-140.0,-471.0,877.0
-11.0,-122.0,179.0,1201.0,33.0,211.0,-136.0,-458.0,869.0
-15.0,-114.0,171.0,1196.0,21.0,219.0,-133.0,-444.0,868.0
-16.0,-115.0,177.0,1198.0,12.0,222.0,-141.0,-432.0,865.0
-16.0,-116.0,177.0,1206.0,5.0,224.0,-148.0,-430.0,870.0
-18.0,-110.0,178.0,1217.0,-2.0,226.0,-149.0,-409.0,875.0
-18.0,-106.0,179.0,1222.0,-8.0,232.0,-150.0,-409.0,891.0
-17.0,-109.0,180.0,1221.0,-14.0,242.0,-146.0,-408.0,899.0
-18.0,-108.0,179.0,1221.0,-22.0,252.0,-145.0,-410.0,882.0
-13.0,-108.0,175.0,1231.0,-26.0,262.0,-139.0,-411.0,864.0
-17.0,-108.0,174.0,1244.0,-31.0,269.0,-146.0,-407.0,860.0
-15.0,-102.0,172.0,1260.0,-34.0,270.0,-144.0,-398.0,850.0
-19.0,-100.0,172.0,1269.0,-35.0,271.0,-146.0,-380.0,844.0
-12.0,-97.0,167.0,1278.0,-33.0,271.0,-137.0,-369.0,846.0
-9.0,-94.0,168.0,1291.0,-30.0,275.0,-139.0,-354.0,861.0
-10.0,-97.0,175.0,1314.0,-27.0,280.0,-130.0,-357.0,871.0
-10.0,-92.0,175.0,1330.0,-28.0,286.0,-123.0,-343.0,859.0
-14.0,-88.0,172.0,1344.0,-27.0,293.0,-136.0,-343.0,853.0
-13.0,-85.0,170.0,1358.0,-23.0,299.0,-130.0,-315.0,845.0
-11.0,-81.0,170.0,1366.0,-17.0,301.0,-140.0,-303.0,854.0
-14.0,-79.0,176.0,1372.0,-6.0,303.0,-140.0,-295.0,855.0
-13.0,-76.0,175.0,1383.0,7.0,306.0,-132.0,-286.0,862.0
-13.0,-73.0,176.0,1398.0,14.0,309.0,-121.0,-270.0,867.0
-10.0,-68.0,172.0,1415.0,12.0,316.0,-111.0,-259.0,862.0
-8.0,-66.0,172.0,1428.0,10.0,322.0,-102.0,-247.0,855.0
-3.0,-66.0,170.0,1436.0,8.0,329.0,-94.0,-240.0,848.0
1.0,-65.0,165.0,1445.0,9.0,337.0,-84.0,-234.0,831.0
0.0,-63.0,161.0,1459.0,12.0,342.0,-75.0,-234.0,824.0
1.0,-63.0,160.0,1470.0,22.0,339.0,-74.0,-230.0,818.0
4.0,-61.0,160.0,1483.0,34.0,339.0,-70.0,-220.0,824.0
3.0,-58.0,168.0,1497.0,45.0,338.0,-63.0,-215.0,834.0
4.0,-56.0,166.0,1509.0,52.0,336.0,-59.0,-208.0,829.0
7.0,-54.0,156.0,1524.0,61.0,334.0,-51.0,-195.0,804.0
8.0,-50.0,150.0,1536.0,71.0,328.0,-45.0,-175.0,788.0
12.0,-42.0,150.0,1550.0,84.0,318.0,-31.0,-157.0,777.0
12.0,-38.0,151.0,1563.0,102.0,312.0,-32.0,-135.0,789.0
11.0,-34.0,150.0,1582.0,121.0,299.0,-33.0,-115.0,782.0
15.0,-32.0,155.0,1595.0,147.0,287.0,-27.0,-108.0,789.0
11.0,-29.0,153.0,1607.0,172.0,278.0,-38.0,-101.0,795.0
10.0,-28.0,148.0,1623.0,193.0,273.0,-33.0,-100.0,787.0
11.0,-28.0,144.0,1649.0,220.0,270.0,-24.0,-105.0,759.0
13.0,-29.0,140.0,1676.0,246.0,269.0,-30.0,-95.0,742.0
14.0,-26.0,140.0,1702.0,260.0,264.0,-35.0,-78.0,742.0
10.0,-19.0,141.0,1732.0,270.0,255.0,-38.0,-56.0,741.0
6.0,-12.0,149.0,1762.0,280.0,246.0,-59.0,-31.0,763.0
0.0,-3.0,147.0,1789.0,299.0,239.0,-81.0,-6.0,772.0
0.0,1.0,147.0,1813.0,314.0,239.0,-93.0,20.0,757.0
-11.0,12.0,140.0,1830.0,312.0,242.0,-114.0,57.0,736.0
-15.0,15.0,135.0,1847.0,302.0,249.0,-146.0,76.0,717.0
-18.0,19.0,130.0,1863.0,293.0,255.0,-155.0,83.0,694.0
-16.0,17.0,130.0,1877.0,289.0,261.0,-147.0,81.0,702.0
-15.0,19.0,129.0,1884.0,287.0,267.0,-136.0,74.0,703.0
-9.0,17.0,129.0,1890.0,283.0,271.0,-123.0,65.0,702.0
-7.0,19.0,134.0,1902.0,278.0,272.0,-118.0,82.0,712.0
-7.0,21.0,131.0,1917.0,277.0,274.0,-113.0,87.0,721.0
-8.0,23.0,141.0,1915.0,288.0,276.0,-121.0,88.0,728.0
-12.0,16.0,131.0,1899.0,306.0,279.0,-136.0,71.0,701.0
-9.0,9.0,123.0,1890.0,323.0,282.0,-129.0,52.0,657.0
-7.0,7.0,105.0,1882.0,333.0,283.0,-121.0,35.0,600.0
-11.0,5.0,96.0,1874.0,328.0,283.0,-123.0,32.0,559.0
-11.0,2.0,98.0,1872.0,319.0,283.0,-118.0,28.0,566.0
-5.0,1.0,99.0,1885.0,311.0,288.0,-104.0,25.0,558.0
0.0,2.0,91.0,1902.0,296.0,294.0,-78.0,24.0,552.0
1.0,6.0,81.0,1908.0,281.0,298.0,-70.0,44.0,498.0
-2.0,13.0,77.0,1900.0,263.0,302.0,-93.0,62.0,469.0
-8.0,18.0,59.0,1889.0,246.0,312.0,-112.0,82.0,402.0
-12.0,19.0,44.0,1850.0,224.0,310.0,-128.0,74.0,349.0
-4.0,11.0,37.0,1808.0,190.0,296.0,-114.0,66.0,313.0
-1.0,5.0,23.0,1803.0,170.0,278.0,-89.0,42.0,274.0
5.0,0.0,22.0,1827.0,151.0,264.0,-50.0,24.0,244.0
10.0,7.0,27.0,1858.0,133.0,259.0,-32.0,44.0,253.0
17.0,13.0,11.0,1882.0,113.0,260.0,-13.0,59.0,216.0
28.0,18.0,6.0,1901.0,94.0,257.0,28.0,92.0,201.0
24.0,33.0,4.0,1919.0,101.0,253.0,7.0,134.0,182.0
20.0,43.0,-3.0,1944.0,96.0,247.0,-7.0,189.0,166.0
15.0,65.0,-9.0,1971.0,84.0,241.0,-25.0,258.0,148.0
6.0,76.0,-6.0,1987.0,81.0,242.0,-56.0,314.0,143.0
-6.0,86.0,-10.0,1988.0,73.0,245.0,-107.0,347.0,125.0
2.0,89.0,-25.0,1977.0,53.0,242.0,-74.0,363.0,63.0
9.0,97.0,-41.0,1948.0,41.0,238.0,-47.0,395.0,12.0
14.0,112.0,-48.0,1907.0,39.0,236.0,-37.0,466.0,3.0
44.0,133.0,-22.0,1898.0,61.0,225.0,111.0,552.0,94.0
67.0,143.0,10.0,1922.0,118.0,194.0,149.0,597.0,211.0
32.0,176.0,37.0,1938.0,147.0,153.0,37.0,699.0,342.0
32.0,209.0,84.0,1888.0,122.0,100.0,27.0,828.0,536.0
-7.0,255.0,162.0,1741.0,156.0,50.0,-124.0,981.0,863.0
-29.0,289.0,239.0,1521.0,239.0,39.0,-210.0,1118.0,1150.0
-40.0,337.0,267.0,1269.0,312.0,49.0,-246.0,1292.0,1279.0
-66.0,371.0,280.0,1003.0,341.0,80.0,-315.0,1401.0,1308.0
-35.0,386.0,294.0,711.0,307.0,65.0,-216.0,1482.0,1363.0
-62.0,444.0,336.0,416.0,307.0,-67.0,-313.0,1706.0,1538.0
-70.0,543.0,370.0,160.0,264.0,-194.0,-342.0,2109.0,1672.0
-80.0,684.0,413.0,-82.0,167.0,-273.0,-381.0,2618.0,1858.0
-59.0,805.0,462.0,-413.0,87.0,-330.0,-315.0,3074.0,2048.0
-60.0,904.0,529.0,-885.0,94.0,-374.0,-299.0,3457.0,2334.0
-52.0,956.0,537.0,-1306.0,78.0,-386.0,-264.0,3680.0,2367.0
-60.0,950.0,491.0,-1590.0,20.0,-402.0,-302.0,3668.0,2192.0
-65.0,891.0,426.0,-1786.0,0.0,-476.0,-341.0,3437.0,1949.0
-83.0,783.0,372.0,-2023.0,29.0,-623.0,-418.0,2994.0,1721.0
-78.0,626.0,362.0,-2332.0,110.0,-751.0,-429.0,2396.0,1688.0
-83.0,433.0,362.0,-2688.0,298.0,-872.0,-445.0,1677.0,1652.0
-78.0,246.0,303.0,-2893.0,514.0,-898.0,-396.0,982.0,1420.0
-73.0,108.0,256.0,-2877.0,701.0,-818.0,-369.0,474.0,1222.0
-50.0,3.0,267.0,-2609.0,828.0,-704.0,-265.0,104.0,1242.0
-37.0,-74.0,284.0,-2103.0,844.0,-595.0,-195.0,-187.0,1307.0
-44.0,-141.0,296.0,-1493.0,755.0,-465.0,-192.0,-461.0,1364.0
-73.0,-183.0,309.0,-883.0,568.0,-259.0,-317.0,-640.0,1418.0
-118.0,-203.0,346.0,-323.0,299.0,-65.0,-456.0,-719.0,1580.0
-147.0,-191.0,374.0,218.0,-43.0,107.0,-574.0,-649.0,1661.0
-163.0,-141.0,372.0,753.0,-446.0,263.0,-667.0,-472.0,1649.0
-156.0,-86.0,362.0,1268.0,-834.0,393.0,-635.0,-248.0,1633.0
-132.0,-25.0,349.0,1723.0,-1169.0,486.0,-587.0,-31.0,1592.0
-124.0,28.0,338.0,2095.0,-1296.0,545.0,-544.0,151.0,1522.0
-97.0,77.0,317.0,2344.0,-1286.0,578.0,-489.0,317.0,1444.0
-76.0,119.0,303.0,2459.0,-1177.0,587.0,-386.0,465.0,1406.0
-51.0,151.0,298.0,2484.0,-1012.0,571.0,-307.0,597.0,1376.0
-43.0,174.0,286.0,2436.0,-827.0,547.0,-266.0,669.0,1331.0
-38.0,187.0,269.0,2354.0,-648.0,529.0,-239.0,704.0,1278.0
-18.0,192.0,251.0,2228.0,-503.0,508.0,-168.0,729.0,1183.0
-1.0,200.0,230.0,2074.0,-384.0,470.0,-99.0,759.0,1112.0
10.0,200.0,211.0,1917.0,-282.0,431.0,-54.0,770.0,1025.0
14.0,192.0,188.0,1773.0,-192.0,405.0,-44.0,749.0,925.0
15.0,185.0,164.0,1635.0,-123.0,398.0,-57.0,718.0,829.0
5.0,185.0,132.0,1487.0,-80.0,393.0,-68.0,708.0,711.0
-2.0,186.0,100.0,1329.0,-69.0,382.0,-83.0,727.0,599.0
-11.0,190.0,73.0,1180.0,-106.0,362.0,-127.0,736.0,475.0
-7.0,190.0,50.0,1044.0,-179.0,339.0,-108.0,736.0,389.0
-7.0,182.0,35.0,921.0,-268.0,326.0,-100.0,716.0,317.0
-16.0,170.0,30.0,780.0,-352.0,330.0,-139.0,652.0,292.0
-16.0,145.0,29.0,611.0,-420.0,348.0,-145.0,560.0,292.0
-27.0,131.0,33.0,446.0,-462.0,359.0,-183.0,523.0,303.0
-42.0,125.0,35.0,320.0,-473.0,368.0,-229.0,494.0,316.0
-53.0,139.0,40.0,245.0,-460.0,380.0,-293.0,542.0,327.0
-78.0,153.0,36.0,203.0,-428.0,409.0,-380.0,603.0,324.0
-99.0,172.0,38.0,153.0,-398.0,463.0,-455.0,655.0,322.0
-105.0,192.0,40.0,76.0,-393.0,527.0,-480.0,734.0,339.0
-87.0,197.0,48.0,-7.0,-407.0,582.0,-462.0,771.0,317.0
-78.0,203.0,33.0,-96.0,-432.0,617.0,-392.0,783.0,314.0
-58.0,206.0,32.0,-182.0,-451.0,631.0,-307.0,794.0,296.0
-31.0,199.0,28.0,-266.0,-459.0,631.0,-196.0,780.0,291.0
-9.0,194.0,32.0,-362.0,-455.0,626.0,-111.0,754.0,309.0
13.0,192.0,41.0,-475.0,-442.0,617.0,-30.0,743.0,338.0
21.0,190.0,49.0,-597.0,-426.0,607.0,-3.0,734.0,370.0
34.0,186.0,62.0,-713.0,-409.0,595.0,45.0,730.0,419.0
26.0,189.0,76.0,-812.0,-390.0,564.0,74.0,755.0,467.0
47.0,196.0,78.0,-898.0,-376.0,524.0,99.0,775.0,497.0
50.0,202.0,89.0,-968.0,-368.0,478.0,104.0,801.0,526.0
47.0,203.0,93.0,-1026.0,-363.0,435.0,93.0,803.0,549.0
37.0,222.0,108.0,-1079.0,-358.0,404.0,73.0,795.0,571.0
38.0,202.0,107.0,-1125.0,-350.0,383.0,58.0,795.0,612.0
29.0,196.0,112.0,-1168.0,-340.0,363.0,29.0,785.0,638.0
27.0,197.0,122.0,-1201.0,-325.0,344.0,13.0,773.0,683.0
26.0,201.0,135.0,-1215.0,-299.0,316.0,11.0,787.0,721.0
21.0,197.0,142.0,-1210.0,-264.0,281.0,-4.0,786.0,753.0
16.0,198.0,146.0,-1203.0,-225.0,252.0,-21.0,779.0,778.0
16.0,197.0,152.0,-1200.0,-185.0,218.0,-31.0,773.0,792.0
10.0,196.0,155.0,-1203.0,-145.0,194.0,-37.0,774.0,811.0
12.0,192.0,165.0,-1223.0,-109.0,185.0,-43.0,736.0,829.0
9.0,185.0,172.0,-1253.0,-78.0,174.0,-39.0,724.0,865.0
13.0,177.0,181.0,-1283.0,-54.0,167.0,-33.0,696.0,909.0
12.0,175.0,191.0,-1310.0,-35.0,159.0,-32.0,678.0,932.0
16.0,170.0,192.0,-1330.0,-23.0,148.0,-18.0,658.0,962.0
13.0,173.0,198.0,-1346.0,-9.0,131.0,-21.0,667.0,994.0
16.0,172.0,209.0,-1358.0,-8.0,118.0,-8.0,665.0,1016.0
18.0,168.0,212.0,-1363.0,-35.0,110.0,-1.0,650.0,1027.0
24.0,158.0,221.0,-1365.0,-86.0,92.0,6.0,629.0,1050.0
30.0,154.0,230.0,-1369.0,-146.0,70.0,35.0,598.0,1082.0
28.0,147.0,233.0,-1377.0,-220.0,60.0,51.0,570.0,1105.0
39.0,135.0,241.0,-1391.0,-306.0,47.0,75.0,538.0,1153.0
46.0,124.0,251.0,-1405.0,-400.0,13.0,114.0,461.0,1190.0
42.0,116.0,257.0,-1422.0,-498.0,-36.0,86.0,446.0,1214.0
31.0,115.0,263.0,-1437.0,-588.0,-66.0,57.0,449.0,1231.0
39.0,127.0,256.0,-1439.0,-643.0,-73.0,75.0,489.0,1216.0
33.0,131.0,250.0,-1431.0,-654.0,-67.0,48.0,529.0,1180.0
30.0,134.0,247.0,-1434.0,-634.0,-56.0,39.0,520.0,1168.0
33.0,129.0,241.0,-1458.0,-600.0,-67.0,36.0,491.0,1157.0
22.0,127.0,241.0,-1506.0,-559.0,-87.0,3.0,483.0,1140.0
25.0,120.0,244.0,-1564.0,-516.0,-95.0,10.0,444.0,1147.0
31.0,114.0,240.0,-1600.0,-472.0,-96.0,33.0,430.0,1143.0
36.0,104.0,236.0,-1612.0,-424.0,-92.0,45.0,412.0,1142.0
39.0,97.0,240.0,-1610.0,-373.0,-93.0,67.0,380.0,1142.0
43.0,85.0,242.0,-1609.0,-325.0,-108.0,88.0,329.0,1146.0
46.0,77.0,244.0,-1624.0,-286.0,-138.0,95.0,292.0,1153.0
47.0,65.0,243.0,-1651.0,-259.0,-174.0,103.0,255.0,1161.0
61.0,51.0,243.0,-1684.0,-246.0,-209.0,156.0,200.0,1167.0
57.0,35.0,253.0,-1709.0,-239.0,-232.0,150.0,135.0,1184.0
57.0,18.0,255.0,-1710.0,-247.0,-249.0,148.0,93.0,1200.0
63.0,8.0,257.0,-1677.0,-265.0,-262.0,176.0,47.0,1193.0
66.0,0.0,246.0,-1621.0,-287.0,-272.0,190.0,8.0,1173.0
61.0,-5.0,241.0,-1548.0,-309.0,-270.0,176.0,-10.0,1149.0
59.0,-16.0,237.0,-1462.0,-343.0,-265.0,152.0,-46.0,1141.0
56.0,-17.0,233.0,-1362.0,-390.0,-259.0,150.0,-55.0,1098.0
61.0,-21.0,221.0,-1261.0,-440.0,-253.0,164.0,-64.0,1063.0
62.0,-28.0,215.0,-1160.0,-482.0,-248.0,166.0,-82.0,1034.0
56.0,-27.0,211.0,-1058.0,-517.0,-232.0,134.0,-80.0,1011.0
44.0,-17.0,206.0,-963.0,-543.0,-228.0,92.0,-48.0,999.0
44.0,-13.0,200.0,-871.0,-557.0,-237.0,96.0,-28.0,984.0
45.0,-3.0,200.0,-793.0,-562.0,-250.0,98.0,2.0,976.0
41.0,-20.0,202.0,-729.0,-557.0,-267.0,84.0,-37.0,991.0
47.0,-18.0,203.0,-648.0,-568.0,-276.0,97.0,-48.0,973.0
56.0,-11.0,199.0,-583.0,-564.0,-274.0,128.0,-9.0,979.0
44.0,0.0,199.0,-530.0,-532.0,-277.0,84.0,10.0,978.0
27.0,0.0,199.0,-468.0,-501.0,-277.0,28.0,15.0,983.0
30.0,2.0,201.0,-397.0,-487.0,-279.0,37.0,30.0,971.0
29.0,5.0,201.0,-336.0,-490.0,-286.0,30.0,39.0,971.0
29.0,9.0,198.0,-292.0,-499.0,-287.0,35.0,42.0,973.0
18.0,8.0,202.0,-253.0,-506.0,-287.0,-2.0,38.0,986.0
17.0,9.0,205.0,-229.0,-521.0,-275.0,-1.0,40.0,995.0
23.0,9.0,203.0,-209.0,-538.0,-251.0,2.0,46.0,981.0
24.0,15.0,194.0,-191.0,-541.0,-222.0,18.0,67.0,958.0
20.0,19.0,189.0,-174.0,-525.0,-190.0,6.0,66.0,930.0
31.0,21.0,184.0,-154.0,-503.0,-164.0,34.0,78.0,917.0
34.0,13.0,180.0,-126.0,-469.0,-145.0,41.0,61.0,893.0
27.0,8.0,176.0,-94.0,-424.0,-130.0,21.0,53.0,887.0
36.0,5.0,180.0,-49.0,-387.0,-115.0,57.0,40.0,888.0
38.0,2.0,179.0,2.0,-346.0,-105.0,65.0,21.0,895.0
38.0,0.0,185.0,50.0,-297.0,-92.0,56.0,7.0,908.0
35.0,0.0,188.0,93.0,-261.0,-69.0,60.0,17.0,923.0
21.0,12.0,191.0,130.0,-233.0,-43.0,13.0,52.0,931.0
36.0,18.0,190.0,154.0,-228.0,-16.0,58.0,77.0,927.0
51.0,29.0,189.0,167.0,-234.0,-4.0,121.0,116.0,927.0
54.0,38.0,192.0,165.0,-239.0,15.0,131.0,129.0,933.0
62.0,43.0,193.0,139.0,-246.0,41.0,141.0,158.0,956.0
63.0,58.0,193.0,98.0,-251.0,62.0,179.0,206.0,940.0
66.0,68.0,193.0,46.0,-249.0,75.0,197.0,259.0,942.0
77.0,76.0,187.0,-5.0,-245.0,78.0,223.0,286.0,931.0
91.0,76.0,181.0,-46.0,-238.0,58.0,260.0,303.0,903.0
98.0,71.0,181.0,-83.0,-218.0,39.0,299.0,286.0,892.0
108.0,62.0,181.0,-118.0,-187.0,13.0,324.0,249.0,894.0
105.0,56.0,185.0,-149.0,-146.0,-13.0,315.0,207.0,922.0
95.0,39.0,204.0,-178.0,-99.0,-33.0,301.0,161.0,930.0
100.0,29.0,194.0,-204.0,-56.0,-46.0,297.0,112.0,950.0
101.0,19.0,199.0,-225.0,-4.0,-59.0,302.0,67.0,959.0
92.0,5.0,197.0,-231.0,36.0,-69.0,282.0,26.0,983.0
96.0,-7.0,212.0,-214.0,60.0,-82.0,287.0,-9.0,1013.0
88.0,0.0,202.0,-175.0,60.0,-94.0,266.0,6.0,982.0
87.0,0.0,207.0,-133.0,65.0,-98.0,270.0,14.0,997.0
89.0,5.0,203.0,-86.0,73.0,-103.0,264.0,27.0,994.0
94.0,6.0,206.0,-38.0,76.0,-104.0,294.0,48.0,998.0
96.0,14.0,212.0,1.0,72.0,-111.0,291.0,78.0,1008.0
98.0,29.0,210.0,36.0,68.0,-113.0,305.0,112.0,1003.0
99.0,32.0,204.0,69.0,73.0,-110.0,306.0,131.0,999.0
98.0,35.0,199.0,103.0,83.0,-102.0,301.0,140.0,983.0
93.0,38.0,199.0,136.0,97.0,-93.0,285.0,150.0,971.0
94.0,42.0,198.0,167.0,118.0,-83.0,284.0,160.0,971.0
90.0,44.0,198.0,191.0,141.0,-77.0,263.0,167.0,970.0
83.0,49.0,199.0,207.0,160.0,-70.0,250.0,191.0,974.0
80.0,54.0,200.0,217.0,179.0,-66.0,234.0,214.0,980.0
77.0,60.0,202.0,218.0,197.0,-61.0,215.0,228.0,982.0
73.0,62.0,199.0,209.0,213.0,-58.0,207.0,243.0,1001.0
71.0,66.0,203.0,197.0,225.0,-53.0,202.0,246.0,1005.0
68.0,63.0,207.0,183.0,234.0,-48.0,191.0,252.0,1011.0
67.0,66.0,212.0,173.0,237.0,-41.0,192.0,253.0,1020.0
69.0,64.0,214.0,168.0,236.0,-35.0,185.0,248.0,1032.0
65.0,64.0,215.0,165.0,233.0,-28.0,180.0,245.0,1032.0
63.0,62.0,216.0,164.0,224.0,-18.0,167.0,239.0,1029.0
63.0,62.0,211.0,163.0,215.0,-11.0,165.0,240.0,1029.0
63.0,61.0,211.0,161.0,206.0,-3.0,162.0,237.0,1024.0
63.0,60.0,206.0,155.0,202.0,4.0,152.0,237.0,1006.0
56.0,62.0,210.0,146.0,199.0,12.0,146.0,232.0,1007.0
54.0,61.0,204.0,135.0,197.0,18.0,131.0,235.0,998.0
51.0,58.0,206.0,123.0,201.0,23.0,115.0,235.0,983.0
51.0,58.0,199.0,107.0,206.0,27.0,114.0,223.0,981.0
49.0,59.0,196.0,91.0,212.0,31.0,106.0,223.0,964.0
48.0,58.0,201.0,81.0,215.0,34.0,105.0,216.0,967.0
48.0,57.0,195.0,73.0,223.0,33.0,104.0,220.0,960.0
47.0,56.0,195.0,68.0,233.0,38.0,93.0,220.0,957.0
45.0,58.0,194.0,66.0,242.0,39.0,94.0,221.0,951.0
47.0,57.0,191.0,66.0,251.0,41.0,82.0,221.0,948.0
40.0,58.0,193.0,65.0,260.0,43.0,78.0,217.0,954.0
43.0,57.0,195.0,67.0,265.0,46.0,78.0,214.0,956.0
39.0,57.0,195.0,70.0,267.0,47.0,79.0,219.0,956.0
39.0,55.0,193.0,74.0,269.0,51.0,79.0,216.0,961.0
40.0,52.0,196.0,74.0,268.0,53.0,74.0,208.0,963.0
41.0,52.0,196.0,73.0,266.0,58.0,75.0,208.0,969.0
42.0,54.0,198.0,69.0,262.0,61.0,69.0,203.0,967.0
40.0,51.0,196.0,64.0,257.0,64.0,82.0,195.0,975.0
39.0,51.0,201.0,56.0,253.0,64.0,73.0,196.0,979.0
44.0,50.0,202.0,49.0,249.0,65.0,92.0,189.0,985.0
41.0,50.0,201.0,48.0,246.0,67.0,77.0,194.0,995.0
39.0,51.0,205.0,46.0,240.0,67.0,76.0,195.0,1003.0
42.0,55.0,206.0,49.0,233.0,70.0,80.0,208.0,1000.0
39.0,57.0,206.0,57.0,226.0,74.0,79.0,212.0,1006.0
41.0,53.0,208.0,63.0,215.0,72.0,82.0,208.0,1008.0
42.0,55.0,203.0,70.0,207.0,68.0,80.0,214.0,1011.0
40.0,61.0,208.0,69.0,199.0,69.0,78.0,223.0,1009.0
39.0,59.0,207.0,70.0,190.0,69.0,75.0,226.0,1010.0
41.0,60.0,205.0,69.0,182.0,69.0,84.0,228.0,1002.0
35.0,64.0,206.0,67.0,178.0,68.0,75.0,237.0,1005.0
39.0,62.0,204.0,61.0,173.0,65.0,70.0,234.0,995.0
40.0,62.0,211.0,52.0,168.0,60.0,80.0,235.0,1002.0
37.0,60.0,206.0,46.0,165.0,53.0,56.0,242.0,1007.0
37.0,63.0,207.0,41.0,162.0,50.0,68.0,251.0,1007.0
41.0,67.0,206.0,36.0,156.0,46.0,84.0,254.0,998.0
35.0,68.0,203.0,32.0,155.0,43.0,70.0,258.0,990.0
36.0,67.0,204.0,32.0,154.0,35.0,61.0,266.0,998.0
39.0,68.0,201.0,29.0,154.0,29.0,72.0,271.0,989.0
34.0,69.0,197.0,25.0,158.0,26.0,59.0,273.0,989.0
37.0,72.0,204.0,20.0,160.0,21.0,67.0,271.0,994.0
37.0,68.0,200.0,12.0,160.0,18.0,68.0,274.0,987.0
43.0,70.0,200.0,3.0,165.0,16.0,80.0,271.0,981.0
45.0,68.0,205.0,-6.0,175.0,13.0,91.0,270.0,999.0
38.0,66.0,206.0,-15.0,184.0,9.0,59.0,258.0,1001.0
42.0,67.0,203.0,-19.0,187.0,4.0,80.0,254.0,998.0
42.0,64.0,202.0,-15.0,189.0,-3.0,79.0,253.0,998.0
36.0,65.0,205.0,-11.0,188.0,-7.0,58.0,256.0,999.0
40.0,65.0,205.0,-13.0,185.0,-11.0,86.0,250.0,1001.0
42.0,66.0,209.0,-13.0,182.0,-15.0,76.0,252.0,1000.0
35.0,66.0,203.0,-16.0,181.0,-14.0,58.0,254.0,1002.0
36.0,64.0,209.0,-19.0,177.0,-13.0,57.0,250.0,1011.0
36.0,66.0,206.0,-21.0,175.0,-15.0,57.0,256.0,1002.0
30.0,66.0,207.0,-22.0,175.0,-18.0,39.0,254.0,1004.0
27.0,71.0,205.0,-24.0,176.0,-17.0,31.0,258.0,991.0
33.0,65.0,204.0,-30.0,179.0,-16.0,45.0,260.0,997.0
32.0,66.0,202.0,-35.0,184.0,-20.0,45.0,255.0,991.0
29.0,62.0,202.0,-38.0,190.0,-23.0,39.0,246.0,1003.0
30.0,63.0,201.0,-33.0,197.0,-27.0,31.0,245.0,995.0
26.0,64.0,203.0,-30.0,205.0,-32.0,40.0,232.0,996.0
31.0,59.0,203.0,-25.0,215.0,-37.0,26.0,237.0,988.0
34.0,62.0,199.0,-19.0,223.0,-40.0,52.0,235.0,996.0
27.0,62.0,203.0,-12.0,231.0,-44.0,37.0,231.0,998.0
34.0,59.0,208.0,-10.0,235.0,-45.0,56.0,235.0,1001.0
30.0,58.0,205.0,-12.0,239.0,-50.0,42.0,237.0,1006.0
32.0,60.0,212.0,-17.0,236.0,-53.0,47.0,229.0,1010.0
21.0,58.0,206.0,-26.0,228.0,-53.0,10.0,230.0,1014.0
25.0,63.0,210.0,-36.0,215.0,-54.0,6.0,241.0,1024.0
28.0,60.0,212.0,-49.0,198.0,-51.0,36.0,227.0,1010.0
24.0,61.0,210.0,-65.0,185.0,-52.0,13.0,237.0,1020.0
20.0,63.0,207.0,-83.0,171.0,-51.0,-3.0,241.0,1010.0
30.0,60.0,208.0,-95.0,154.0,-53.0,33.0,235.0,1011.0
21.0,63.0,206.0,-97.0,144.0,-55.0,15.0,235.0,1002.0
15.0,61.0,203.0,-95.0,135.0,-56.0,-20.0,244.0,991.0
21.0,61.0,201.0,-87.0,123.0,-56.0,9.0,239.0,982.0
28.0,61.0,194.0,-75.0,114.0,-56.0,30.0,236.0,963.0
21.0,61.0,197.0,-74.0,114.0,-56.0,3.0,244.0,961.0
15.0,62.0,196.0,-79.0,115.0,-58.0,-11.0,238.0,963.0
24.0,63.0,193.0,-87.0,110.0,-59.0,17.0,239.0,966.0
24.0,63.0,199.0,-95.0,107.0,-60.0,17.0,233.0,973.0
17.0,62.0,199.0,-104.0,103.0,-58.0,-8.0,233.0,984.0
9.0,62.0,204.0,-111.0,93.0,-56.0,-25.0,232.0,994.0
25.0,63.0,206.0,-112.0,82.0,-53.0,27.0,232.0,1001.0
22.0,60.0,205.0,-111.0,77.0,-55.0,3.0,231.0,1005.0
21.0,58.0,209.0,-107.0,75.0,-54.0,1.0,222.0,1005.0
16.0,59.0,205.0,-98.0,70.0,-54.0,-20.0,225.0,1006.0
23.0,56.0,206.0,-96.0,64.0,-56.0,10.0,216.0,1002.0
23.0,56.0,207.0,-86.0,61.0,-60.0,19.0,211.0,1003.0
19.0,61.0,207.0,-77.0,60.0,-61.0,0.0,226.0,1005.0
17.0,59.0,207.0,-69.0,55.0,-58.0,-5.0,221.0,1007.0
15.0,54.0,209.0,-60.0,46.0,-55.0,-12.0,211.0,1009.0
15.0,52.0,207.0,-52.0,35.0,-52.0,-9.0,210.0,1007.0
16.0,53.0,209.0,-45.0,24.0,-46.0,-7.0,202.0,1006.0
15.0,55.0,209.0,-41.0,15.0,-41.0,-24.0,203.0,1008.0
17.0,53.0,210.0,-39.0,10.0,-33.0,-16.0,203.0,1009.0
16.0,51.0,203.0,-33.0,4.0,-31.0,-20.0,199.0,1006.0
12.0,54.0,206.0,-29.0,-2.0,-29.0,-18.0,217.0,997.0
16.0,53.0,204.0,-28.0,-8.0,-29.0,-12.0,213.0,998.0
17.0,56.0,202.0,-30.0,-13.0,-29.0,-12.0,219.0,1001.0
18.0,60.0,204.0,-29.0,-18.0,-27.0,-6.0,219.0,1006.0
18.0,58.0,204.0,-28.0,-25.0,-23.0,-9.0,222.0,1004.0
18.0,55.0,205.0,-27.0,-33.0,-21.0,-10.0,220.0,1003.0
15.0,55.0,204.0,-24.0,-44.0,-18.0,-12.0,221.0,1007.0
19.0,57.0,203.0,-23.0,-52.0,-19.0,-16.0,217.0,1005.0
16.0,58.0,203.0,-20.0,-60.0,-19.0,-7.0,217.0,1004.0
19.0,56.0,203.0,-20.0,-68.0,-19.0,-5.0,215.0,1000.0
16.0,60.0,207.0,-16.0,-74.0,-19.0,1.0,218.0,1002.0
18.0,52.0,204.0,-13.0,-80.0,-20.0,-3.0,209.0,998.0
19.0,54.0,207.0,-9.0,-86.0,-21.0,-1.0,216.0,1002.0
22.0,56.0,205.0,-4.0,-92.0,-22.0,0.0,213.0,1006.0
20.0,54.0,206.0,-1.0,-97.0,-23.0,5.0,210.0,1001.0
20.0,55.0,202.0,3.0,-102.0,-22.0,5.0,211.0,1006.0
24.0,53.0,205.0,5.0,-108.0,-21.0,10.0,213.0,1007.0
26.0,54.0,210.0,9.0,-113.0,-22.0,15.0,209.0,1008.0
23.0,56.0,205.0,11.0,-120.0,-23.0,15.0,213.0,1008.0
25.0,56.0,205.0,15.0,-122.0,-26.0,30.0,217.0,1005.0
26.0,58.0,204.0,21.0,-126.0,-27.0,31.0,223.0,1011.0
30.0,57.0,202.0,26.0,-126.0,-29.0,27.0,222.0,1004.0
30.0,59.0,209.0,31.0,-126.0,-29.0,34.0,222.0,1007.0
28.0,56.0,205.0,37.0,-124.0,-29.0,37.0,226.0,1005.0
30.0,58.0,209.0,41.0,-122.0,-29.0,31.0,223.0,1011.0
30.0,60.0,207.0,46.0,-122.0,-28.0,41.0,224.0,1012.0
29.0,59.0,207.0,51.0,-120.0,-27.0,47.0,229.0,1008.0
34.0,61.0,204.0,54.0,-118.0,-24.0,45.0,229.0,1001.0
34.0,61.0,202.0,53.0,-117.0,-24.0,55.0,235.0,995.0
35.0,63.0,203.0,56.0,-112.0,-24.0,59.0,238.0,988.0
37.0,63.0,201.0,52.0,-103.0,-26.0,63.0,246.0,992.0
41.0,63.0,206.0,51.0,-96.0,-27.0,69.0,245.0,993.0
41.0,64.0,198.0,49.0,-92.0,-22.0,75.0,253.0,991.0
39.0,65.0,201.0,49.0,-88.0,-22.0,78.0,256.0,995.0
33.0,65.0,192.0,45.0,-83.0,-17.0,54.0,226.0,912.0
42.0,62.0,212.0,-15.0,-144.0,6.0,95.0,254.0,1026.0
49.0,64.0,205.0,-2.0,-158.0,-1.0,104.0,253.0,1004.0
52.0,65.0,205.0,22.0,-130.0,-8.0,102.0,255.0,1003.0
47.0,66.0,203.0,35.0,-102.0,-10.0,97.0,257.0,998.0
45.0,64.0,202.0,40.0,-78.0,-10.0,92.0,250.0,996.0
46.0,64.0,204.0,41.0,-62.0,-13.0,88.0,252.0,993.0
42.0,63.0,203.0,39.0,-55.0,-13.0,88.0,247.0,989.0
45.0,65.0,201.0,36.0,-50.0,-14.0,83.0,244.0,985.0
43.0,62.0,202.0,33.0,-47.0,-12.0,78.0,248.0,979.0
41.0,62.0,198.0,32.0,-45.0,-11.0,83.0,243.0,975.0
49.0,62.0,200.0,33.0,-40.0,-11.0,86.0,244.0,971.0
43.0,63.0,198.0,35.0,-38.0,-9.0,87.0,243.0,973.0
42.0,64.0,196.0,35.0,-34.0,-9.0,82.0,247.0,968.0
39.0,63.0,197.0,33.0,-30.0,-9.0,79.0,244.0,976.0
42.0,64.0,197.0,31.0,-26.0,-9.0,85.0,242.0,975.0
43.0,63.0,200.0,29.0,-20.0,-7.0,77.0,246.0,975.0
41.0,65.0,196.0,26.0,-15.0,-7.0,85.0,254.0,974.0
42.0,65.0,195.0,24.0,-10.0,-9.0,79.0,252.0,974.0
40.0,66.0,196.0,22.0,-4.0,-10.0,78.0,251.0,975.0
39.0,66.0,198.0,21.0,1.0,-10.0,82.0,249.0,971.0
40.0,67.0,197.0,21.0,3.0,-11.0,78.0,252.0,974.0
39.0,66.0,196.0,18.0,4.0,-12.0,77.0,255.0,983.0
40.0,66.0,197.0,13.0,3.0,-11.0,73.0,258.0,972.0
39.0,65.0,198.0,6.0,3.0,-11.0,72.0,260.0,979.0
39.0,68.0,201.0,-1.0,4.0,-10.0,75.0,258.0,976.0
41.0,67.0,201.0,-8.0,9.0,-8.0,74.0,258.0,978.0
40.0,65.0,201.0,-12.0,15.0,-6.0,73.0,259.0,981.0
36.0,66.0,202.0,-19.0,20.0,-4.0,73.0,257.0,984.0
37.0,67.0,201.0,-24.0,25.0,0.0,74.0,257.0,982.0
42.0,67.0,200.0,-28.0,28.0,2.0,71.0,255.0,981.0
38.0,65.0,200.0,-33.0,31.0,7.0,76.0,253.0,983.0
37.0,67.0,201.0,-36.0,34.0,11.0,69.0,252.0,982.0
27.0,65.0,223.0,-41.0,34.0,14.0,73.0,254.0,986.0
37.0,65.0,196.0,-43.0,34.0,16.0,74.0,256.0,987.0
40.0,66.0,204.0,-47.0,32.0,17.0,72.0,258.0,980.0
40.0,65.0,202.0,-49.0,32.0,19.0,66.0,256.0,980.0
41.0,65.0,199.0,-50.0,34.0,20.0,79.0,255.0,980.0
39.0,68.0,202.0,-50.0,39.0,21.0,69.0,258.0,981.0
38.0,64.0,200.0,-47.0,43.0,23.0,70.0,254.0,977.0
37.0,64.0,201.0,-44.0,49.0,22.0,72.0,250.0,974.0
37.0,65.0,201.0,-40.0,56.0,21.0,71.0,248.0,985.0
35.0,66.0,200.0,-36.0,63.0,22.0,72.0,249.0,974.0
43.0,63.0,199.0,-31.0,71.0,21.0,76.0,251.0,984.0
41.0,66.0,200.0,-30.0,77.0,20.0,73.0,250.0,986.0
40.0,62.0,201.0,-27.0,84.0,17.0,76.0,249.0,986.0
42.0,64.0,197.0,-22.0,91.0,14.0,74.0,250.0,992.0
40.0,65.0,204.0,-17.0,95.0,12.0,71.0,250.0,991.0
40.0,63.0,202.0,-13.0,97.0,11.0,73.0,248.0,990.0
42.0,61.0,205.0,-12.0,97.0,10.0,62.0,245.0,992.0
36.0,64.0,204.0,-11.0,94.0,9.0,68.0,245.0,996.0
35.0,64.0,204.0,-12.0,90.0,8.0,64.0,247.0,989.0
35.0,65.0,202.0,-14.0,87.0,9.0,57.0,246.0,991.0
34.0,63.0,200.0,-18.0,84.0,9.0,56.0,249.0,993.0
34.0,61.0,208.0,-21.0,84.0,9.0,55.0,249.0,997.0
34.0,63.0,203.0,-22.0,84.0,10.0,52.0,248.0,999.0
27.0,61.0,205.0,-21.0,86.0,13.0,25.0,244.0,990.0
37.0,63.0,202.0,-15.0,86.0,14.0,72.0,240.0,989.0
39.0,60.0,200.0,-4.0,88.0,13.0,65.0,242.0,970.0
35.0,65.0,199.0,6.0,95.0,15.0,56.0,253.0,966.0
33.0,64.0,196.0,5.0,103.0,14.0,52.0,247.0,965.0
33.0,66.0,204.0,-2.0,107.0,12.0,56.0,255.0,969.0
31.0,64.0,198.0,-10.0,104.0,10.0,48.0,258.0,974.0
34.0,67.0,198.0,-18.0,100.0,9.0,51.0,261.0,973.0
33.0,67.0,198.0,-27.0,94.0,8.0,50.0,262.0,983.0
31.0,68.0,200.0,-32.0,89.0,7.0,40.0,270.0,984.0
28.0,67.0,201.0,-34.0,83.0,7.0,41.0,267.0,990.0
27.0,70.0,203.0,-34.0,76.0,7.0,38.0,271.0,988.0
27.0,69.0,204.0,-36.0,69.0,5.0,30.0,271.0,992.0
26.0,70.0,201.0,-38.0,65.0,5.0,35.0,273.0,981.0
33.0,67.0,204.0,-41.0,60.0,5.0,53.0,267.0,993.0
30.0,67.0,201.0,-44.0,61.0,1.0,42.0,265.0,990.0
24.0,69.0,204.0,-44.0,62.0,-1.0,14.0,267.0,1005.0
23.0,71.0,204.0,-43.0,58.0,-3.0,21.0,265.0,1001.0
25.0,67.0,206.0,-43.0,51.0,-5.0,26.0,267.0,999.0
29.0,68.0,205.0,-46.0,45.0,-7.0,33.0,265.0,998.0
23.0,68.0,202.0,-48.0,45.0,-12.0,31.0,263.0,1000.0
28.0,67.0,203.0,-48.0,47.0,-14.0,23.0,261.0,994.0
34.0,68.0,202.0,-47.0,49.0,-15.0,57.0,254.0,983.0
28.0,63.0,204.0,-46.0,55.0,-16.0,33.0,251.0,996.0
24.0,65.0,205.0,-43.0,60.0,-16.0,18.0,248.0,997.0
28.0,62.0,204.0,-38.0,58.0,-16.0,21.0,250.0,995.0
28.0,62.0,205.0,-35.0,54.0,-17.0,25.0,252.0,996.0
28.0,62.0,203.0,-32.0,48.0,-16.0,40.0,245.0,998.0
30.0,65.0,203.0,-30.0,46.0,-14.0,38.0,241.0,995.0
27.0,62.0,209.0,-29.0,46.0,-11.0,32.0,241.0,999.0
28.0,63.0,204.0,-25.0,46.0,-10.0,32.0,239.0,997.0
24.0,64.0,207.0,-21.0,44.0,-12.0,25.0,251.0,1000.0
26.0,63.0,204.0,-20.0,40.0,-12.0,24.0,250.0,996.0
27.0,63.0,206.0,-16.0,33.0,-10.0,20.0,245.0,1002.0
24.0,65.0,205.0,-13.0,26.0,-9.0,20.0,247.0,1000.0
28.0,64.0,201.0,-11.0,18.0,-9.0,20.0,256.0,991.0
28.0,63.0,203.0,-7.0,14.0,-9.0,23.0,248.0,991.0
28.0,66.0,199.0,-6.0,12.0,-10.0,25.0,254.0,988.0
28.0,64.0,203.0,-5.0,8.0,-13.0,28.0,247.0,988.0
24.0,66.0,202.0,-3.0,3.0,-14.0,24.0,255.0,987.0
27.0,66.0,200.0,-4.0,-4.0,-14.0,24.0,252.0,990.0
27.0,64.0,205.0,-7.0,-11.0,-14.0,25.0,256.0,992.0
25.0,67.0,202.0,-7.0,-17.0,-14.0,23.0,257.0,991.0
28.0,68.0,204.0,-8.0,-20.0,-14.0,30.0,256.0,986.0
25.0,67.0,197.0,-11.0,-22.0,-14.0,22.0,263.0,984.0
26.0,66.0,201.0,-11.0,-25.0,-14.0,31.0,266.0,980.0
28.0,65.0,200.0,-11.0,-24.0,-13.0,28.0,266.0,982.0
27.0,67.0,202.0,-13.0,-24.0,-14.0,27.0,269.0,982.0
26.0,68.0,202.0,-16.0,-23.0,-13.0,33.0,267.0,986.0
28.0,67.0,205.0,-19.0,-21.0,-14.0,32.0,262.0,986.0
30.0,66.0,204.0,-19.0,-21.0,-13.0,41.0,260.0,988.0
29.0,67.0,205.0,-21.0,-20.0,-13.0,34.0,258.0,987.0
30.0,65.0,202.0,-23.0,-20.0,-14.0,39.0,254.0,994.0
28.0,64.0,205.0,-23.0,-19.0,-14.0,46.0,255.0,993.0
30.0,63.0,202.0,-21.0,-19.0,-14.0,43.0,247.0,996.0
32.0,64.0,201.0,-17.0,-20.0,-14.0,43.0,251.0,994.0
32.0,64.0,204.0,-13.0,-20.0,-14.0,48.0,250.0,998.0
32.0,65.0,200.0,-5.0,-19.0,-13.0,48.0,253.0,992.0
32.0,64.0,200.0,2.0,-20.0,-13.0,50.0,256.0,997.0
31.0,66.0,202.0,7.0,-21.0,-12.0,49.0,254.0,992.0
35.0,62.0,203.0,9.0,-23.0,-12.0,51.0,255.0,989.0
32.0,64.0,203.0,14.0,-24.0,-12.0,49.0,258.0,987.0
34.0,65.0,206.0,17.0,-23.0,-12.0,42.0,257.0,984.0
32.0,66.0,198.0,18.0,-23.0,-11.0,51.0,256.0,986.0
33.0,65.0,201.0,22.0,-23.0,-11.0,50.0,258.0,985.0
32.0,65.0,203.0,23.0,-23.0,-11.0,49.0,259.0,987.0
33.0,67.0,199.0,27.0,-23.0,-12.0,53.0,258.0,987.0
33.0,65.0,209.0,26.0,-20.0,-10.0,48.0,266.0,990.0
33.0,68.0,200.0,25.0,-18.0,-8.0,49.0,266.0,984.0
32.0,68.0,201.0,24.0,-17.0,-7.0,50.0,270.0,985.0
34.0,68.0,202.0,23.0,-15.0,-6.0,51.0,262.0,985.0
30.0,70.0,200.0,21.0,-13.0,-6.0,54.0,263.0,989.0
35.0,70.0,201.0,19.0,-12.0,-5.0,51.0,268.0,985.0
36.0,66.0,203.0,18.0,-11.0,-3.0,51.0,272.0,987.0
34.0,68.0,201.0,14.0,-8.0,-3.0,57.0,266.0,981.0
36.0,67.0,201.0,13.0,-7.0,-1.0,60.0,272.0,983.0
37.0,69.0,199.0,10.0,-6.0,0.0,55.0,267.0,982.0
36.0,69.0,202.0,6.0,-1.0,-2.0,56.0,276.0,986.0
35.0,70.0,200.0,-1.0,-1.0,-1.0,60.0,272.0,983.0
34.0,70.0,199.0,-6.0,0.0,-3.0,60.0,273.0,981.0
38.0,70.0,200.0,-10.0,-1.0,-1.0,59.0,277.0,988.0
35.0,68.0,201.0,-15.0,0.0,-2.0,58.0,277.0,982.0
33.0,71.0,201.0,-18.0,-1.0,0.0,59.0,274.0,986.0
33.0,71.0,197.0,-21.0,-2.0,0.0,61.0,279.0,980.0
37.0,70.0,199.0,-25.0,-2.0,1.0,58.0,276.0,981.0
34.0,72.0,198.0,-29.0,0.0,3.0,58.0,280.0,981.0
33.0,70.0,200.0,-32.0,2.0,2.0,56.0,278.0,983.0
36.0,68.0,203.0,-34.0,4.0,1.0,59.0,280.0,980.0
34.0,69.0,203.0,-36.0,7.0,-1.0,61.0,273.0,984.0
38.0,71.0,201.0,-38.0,12.0,-2.0,60.0,272.0,982.0
34.0,71.0,199.0,-39.0,15.0,-3.0,59.0,277.0,981.0
36.0,70.0,202.0,-40.0,19.0,-5.0,62.0,277.0,986.0
36.0,71.0,197.0,-41.0,22.0,-7.0,61.0,278.0,981.0
37.0,69.0,199.0,-40.0,25.0,-10.0,64.0,276.0,981.0
36.0,68.0,196.0,-40.0,26.0,-11.0,62.0,267.0,983.0
34.0,69.0,202.0,-40.0,26.0,-12.0,60.0,271.0,984.0
32.0,70.0,201.0,-40.0,24.0,-12.0,64.0,272.0,984.0
36.0,69.0,199.0,-44.0,23.0,-12.0,68.0,273.0,987.0
35.0,67.0,200.0,-46.0,23.0,-10.0,65.0,272.0,979.0
36.0,67.0,199.0,-46.0,22.0,-8.0,61.0,272.0,984.0
32.0,70.0,201.0,-46.0,20.0,-8.0,60.0,276.0,981.0
32.0,70.0,203.0,-46.0,20.0,-6.0,57.0,275.0,987.0
33.0,69.0,202.0,-45.0,22.0,-3.0,57.0,272.0,984.0
34.0,68.0,194.0,-43.0,26.0,0.0,58.0,270.0,975.0
34.0,68.0,200.0,-39.0,29.0,-1.0,56.0,267.0,977.0
33.0,68.0,200.0,-35.0,32.0,0.0,57.0,268.0,981.0
33.0,69.0,200.0,-32.0,35.0,0.0,56.0,267.0,981.0
34.0,66.0,200.0,-30.0,38.0,0.0,49.0,272.0,983.0
34.0,67.0,203.0,-30.0,41.0,1.0,57.0,267.0,984.0
35.0,66.0,202.0,-31.0,44.0,1.0,52.0,266.0,985.0
33.0,67.0,200.0,-30.0,48.0,1.0,51.0,264.0,982.0
35.0,70.0,200.0,-29.0,50.0,0.0,48.0,262.0,988.0
33.0,67.0,202.0,-26.0,55.0,2.0,56.0,260.0,981.0
35.0,68.0,205.0,-24.0,57.0,0.0,51.0,264.0,983.0
32.0,66.0,199.0,-22.0,58.0,-1.0,52.0,268.0,989.0
32.0,66.0,203.0,-23.0,58.0,-3.0,51.0,261.0,992.0
36.0,66.0,201.0,-25.0,57.0,0.0,45.0,258.0,989.0
31.0,68.0,202.0,-25.0,58.0,2.0,47.0,266.0,988.0
34.0,68.0,201.0,-28.0,60.0,5.0,51.0,268.0,995.0
31.0,67.0,203.0,-33.0,61.0,7.0,49.0,258.0,994.0
31.0,67.0,204.0,-33.0,64.0,8.0,42.0,258.0,997.0
32.0,65.0,199.0,-30.0,64.0,12.0,55.0,254.0,982.0
36.0,65.0,198.0,-18.0,63.0,17.0,47.0,256.0,969.0
30.0,68.0,198.0,-6.0,67.0,21.0,42.0,259.0,963.0
30.0,67.0,192.0,2.0,68.0,18.0,32.0,265.0,959.0
26.0,69.0,200.0,2.0,64.0,17.0,36.0,277.0,972.0
27.0,71.0,195.0,3.0,56.0,18.0,29.0,273.0,965.0
28.0,70.0,198.0,1.0,44.0,16.0,37.0,278.0,975.0
30.0,71.0,198.0,-6.0,33.0,13.0,37.0,280.0,972.0
33.0,72.0,200.0,-14.0,25.0,11.0,48.0,284.0,972.0
26.0,74.0,196.0,-21.0,20.0,11.0,38.0,284.0,968.0
27.0,73.0,201.0,-25.0,19.0,8.0,16.0,283.0,983.0
21.0,74.0,197.0,-30.0,16.0,6.0,18.0,283.0,974.0
37.0,74.0,201.0,-36.0,11.0,1.0,63.0,287.0,985.0
36.0,75.0,200.0,-38.0,12.0,-5.0,53.0,288.0,980.0
32.0,72.0,202.0,-40.0,19.0,-6.0,38.0,285.0,985.0
37.0,71.0,201.0,-40.0,25.0,-6.0,61.0,284.0,978.0
31.0,68.0,202.0,-44.0,31.0,-9.0,40.0,280.0,990.0
30.0,72.0,204.0,-51.0,34.0,-13.0,45.0,280.0,995.0
30.0,72.0,203.0,-55.0,34.0,-13.0,38.0,281.0,1001.0
29.0,69.0,209.0,-58.0,35.0,-12.0,30.0,281.0,998.0
31.0,73.0,206.0,-61.0,31.0,-12.0,28.0,284.0,1003.0
28.0,74.0,206.0,-63.0,30.0,-12.0,40.0,280.0,1007.0
33.0,71.0,204.0,-62.0,27.0,-11.0,48.0,274.0,997.0
33.0,71.0,203.0,-62.0,29.0,-12.0,45.0,273.0,999.0
31.0,69.0,208.0,-61.0,32.0,-12.0,41.0,271.0,995.0
30.0,65.0,201.0,-59.0,29.0,-11.0,40.0,259.0,987.0
29.0,64.0,204.0,-53.0,25.0,-7.0,36.0,258.0,993.0
32.0,67.0,204.0,-48.0,22.0,-5.0,35.0,260.0,989.0
30.0,68.0,201.0,-44.0,21.0,-4.0,37.0,258.0,984.0
31.0,67.0,196.0,-40.0,21.0,-2.0,38.0,267.0,980.0
29.0,70.0,200.0,-39.0,26.0,-1.0,40.0,270.0,976.0
32.0,73.0,196.0,-42.0,31.0,-1.0,43.0,278.0,977.0
32.0,71.0,199.0,-47.0,37.0,0.0,42.0,276.0,975.0
31.0,70.0,197.0,-51.0,41.0,2.0,39.0,281.0,973.0
29.0,72.0,200.0,-54.0,41.0,3.0,42.0,276.0,978.0
30.0,72.0,201.0,-59.0,39.0,6.0,47.0,278.0,980.0
32.0,68.0,200.0,-61.0,34.0,10.0,48.0,276.0,983.0
32.0,69.0,198.0,-59.0,27.0,15.0,38.0,273.0,978.0
29.0,69.0,198.0,-57.0,19.0,19.0,48.0,279.0,984.0
32.0,71.0,199.0,-55.0,14.0,20.0,53.0,279.0,979.0
31.0,71.0,201.0,-53.0,9.0,20.0,42.0,285.0,983.0
23.0,71.0,198.0,-50.0,4.0,19.0,43.0,288.0,981.0
34.0,70.0,203.0,-48.0,-2.0,18.0,39.0,290.0,979.0
33.0,73.0,198.0,-47.0,-6.0,17.0,46.0,291.0,977.0
32.0,74.0,203.0,-45.0,-8.0,16.0,43.0,293.0,983.0
34.0,73.0,199.0,-49.0,-8.0,14.0,41.0,294.0,983.0
34.0,73.0,199.0,-51.0,-7.0,11.0,43.0,291.0,986.0
31.0,72.0,202.0,-59.0,-4.0,7.0,42.0,285.0,994.0
33.0,76.0,205.0,-62.0,-3.0,3.0,39.0,278.0,994.0
32.0,68.0,205.0,-68.0,2.0,0.0,36.0,268.0,991.0
27.0,70.0,204.0,-71.0,5.0,-3.0,36.0,271.0,1000.0
30.0,68.0,205.0,-73.0,8.0,-6.0,39.0,258.0,1002.0
30.0,67.0,202.0,-76.0,11.0,-9.0,33.0,260.0,1000.0
30.0,65.0,203.0,-74.0,13.0,-9.0,40.0,258.0,993.0
30.0,66.0,205.0,-72.0,18.0,-12.0,35.0,257.0,996.0
29.0,66.0,203.0,-69.0,20.0,-12.0,39.0,258.0,987.0
31.0,64.0,204.0,-68.0,23.0,-13.0,32.0,256.0,984.0
28.0,68.0,204.0,-66.0,24.0,-14.0,35.0,259.0,990.0
28.0,69.0,200.0,-65.0,22.0,-14.0,39.0,260.0,992.0
32.0,66.0,198.0,-65.0,22.0,-10.0,42.0,266.0,989.0
28.0,67.0,203.0,-66.0,19.0,-8.0,38.0,266.0,983.0
30.0,66.0,206.0,-63.0,16.0,-5.0,36.0,264.0,984.0
30.0,68.0,198.0,-65.0,14.0,-5.0,43.0,267.0,981.0
34.0,65.0,203.0,-65.0,15.0,-4.0,43.0,267.0,981.0
31.0,66.0,201.0,-67.0,14.0,-5.0,40.0,267.0,985.0
29.0,68.0,201.0,-68.0,15.0,-3.0,41.0,260.0,978.0
30.0,69.0,199.0,-70.0,13.0,-1.0,43.0,260.0,983.0
29.0,67.0,200.0,-67.0,9.0,0.0,36.0,270.0,977.0
30.0,67.0,200.0,-64.0,7.0,1.0,39.0,270.0,978.0
30.0,70.0,200.0,-64.0,4.0,2.0,40.0,275.0,974.0
31.0,70.0,198.0,-62.0,3.0,3.0,41.0,275.0,974.0
31.0,69.0,199.0,-61.0,5.0,2.0,47.0,274.0,974.0
31.0,68.0,202.0,-56.0,10.0,2.0,45.0,274.0,980.0
32.0,71.0,204.0,-53.0,13.0,2.0,45.0,278.0,975.0
30.0,73.0,200.0,-53.0,17.0,0.0,45.0,276.0,981.0
31.0,70.0,202.0,-52.0,20.0,-1.0,43.0,274.0,987.0
33.0,71.0,200.0,-52.0,20.0,0.0,50.0,277.0,982.0
35.0,70.0,205.0,-52.0,20.0,-1.0,53.0,279.0,983.0
32.0,72.0,205.0,-54.0,20.0,-2.0,47.0,277.0,984.0
32.0,73.0,201.0,-56.0,20.0,-1.0,51.0,280.0,987.0
31.0,71.0,201.0,-59.0,21.0,-1.0,53.0,279.0,987.0
33.0,70.0,199.0,-63.0,23.0,-1.0,51.0,280.0,995.0
30.0,72.0,202.0,-68.0,25.0,-2.0,51.0,278.0,992.0
37.0,69.0,205.0,-72.0,27.0,-2.0,50.0,275.0,993.0
34.0,68.0,196.0,-77.0,28.0,-1.0,55.0,270.0,989.0
35.0,69.0,203.0,-82.0,29.0,-2.0,51.0,273.0,990.0
32.0,71.0,202.0,-86.0,29.0,-3.0,51.0,268.0,988.0
32.0,70.0,204.0,-87.0,29.0,-1.0,50.0,266.0,982.0
32.0,72.0,204.0,-85.0,29.0,-2.0,50.0,265.0,984.0
33.0,69.0,200.0,-83.0,27.0,-3.0,50.0,261.0,989.0
32.0,67.0,200.0,-84.0,24.0,-4.0,48.0,258.0,984.0
32.0,71.0,197.0,-85.0,20.0,-3.0,51.0,268.0,979.0
31.0,69.0,200.0,-86.0,18.0,-4.0,48.0,262.0,980.0
31.0,69.0,196.0,-87.0,18.0,-3.0,45.0,271.0,972.0
32.0,66.0,199.0,-87.0,17.0,-3.0,51.0,269.0,982.0
33.0,69.0,198.0,-87.0,17.0,-3.0,48.0,268.0,974.0
33.0,71.0,197.0,-87.0,17.0,-2.0,53.0,265.0,979.0
35.0,65.0,200.0,-87.0,15.0,-1.0,50.0,263.0,972.0
32.0,67.0,195.0,-85.0,14.0,-2.0,48.0,259.0,966.0
34.0,66.0,200.0,-83.0,13.0,-1.0,48.0,265.0,973.0
35.0,66.0,197.0,-79.0,14.0,-3.0,53.0,260.0,972.0
30.0,67.0,197.0,-76.0,16.0,-3.0,48.0,260.0,976.0
32.0,64.0,200.0,-76.0,18.0,-6.0,46.0,258.0,980.0
33.0,64.0,203.0,-71.0,19.0,-6.0,49.0,245.0,981.0
30.0,66.0,199.0,-57.0,21.0,-9.0,42.0,255.0,985.0
29.0,71.0,203.0,-53.0,23.0,-12.0,37.0,271.0,987.0
26.0,72.0,203.0,-59.0,20.0,-15.0,36.0,282.0,993.0
29.0,70.0,203.0,-63.0,22.0,-19.0,39.0,285.0,994.0
27.0,70.0,203.0,-69.0,22.0,-20.0,35.0,273.0,992.0
26.0,67.0,202.0,-68.0,18.0,-22.0,31.0,263.0,996.0
27.0,68.0,204.0,-73.0,18.0,-28.0,30.0,258.0,1002.0
29.0,65.0,209.0,-85.0,20.0,-37.0,23.0,264.0,1004.0
29.0,62.0,206.0,-103.0,21.0,-43.0,21.0,262.0,1015.0
27.0,65.0,210.0,-119.0,24.0,-46.0,29.0,257.0,1014.0
27.0,64.0,205.0,-123.0,28.0,-41.0,35.0,251.0,1011.0
32.0,61.0,206.0,-114.0,33.0,-35.0,47.0,249.0,1000.0
33.0,63.0,201.0,-98.0,37.0,-31.0,44.0,247.0,982.0
35.0,63.0,200.0,-76.0,44.0,-27.0,43.0,249.0,977.0
33.0,63.0,200.0,-57.0,49.0,-27.0,47.0,250.0,976.0
32.0,63.0,200.0,-43.0,57.0,-27.0,43.0,249.0,968.0
31.0,66.0,198.0,-31.0,66.0,-25.0,38.0,257.0,970.0
25.0,67.0,196.0,-22.0,77.0,-24.0,27.0,261.0,971.0
26.0,70.0,199.0,-21.0,82.0,-23.0,25.0,273.0,969.0
26.0,71.0,197.0,-28.0,84.0,-21.0,28.0,279.0,976.0
26.0,72.0,203.0,-40.0,81.0,-20.0,30.0,285.0,972.0
29.0,76.0,196.0,-51.0,71.0,-16.0,34.0,286.0,981.0
27.0,72.0,199.0,-67.0,52.0,-11.0,36.0,290.0,989.0
29.0,73.0,203.0,-88.0,32.0,-5.0,38.0,285.0,995.0
29.0,73.0,206.0,-110.0,10.0,-2.0,38.0,281.0,997.0
30.0,74.0,208.0,-135.0,-11.0,-2.0,47.0,296.0,1011.0
33.0,79.0,213.0,-160.0,-23.0,-2.0,52.0,299.0,1021.0
37.0,73.0,207.0,-175.0,-30.0,1.0,54.0,287.0,1019.0
37.0,67.0,204.0,-180.0,-32.0,10.0,60.0,258.0,1008.0
35.0,57.0,207.0,-169.0,-27.0,15.0,60.0,228.0,999.0
35.0,51.0,204.0,-135.0,-14.0,19.0,64.0,207.0,973.0
36.0,46.0,196.0,-91.0,5.0,21.0,56.0,189.0,966.0
33.0,46.0,197.0,-50.0,26.0,20.0,56.0,177.0,962.0
33.0,50.0,197.0,-14.0,41.0,18.0,47.0,179.0,963.0
35.0,50.0,197.0,10.0,48.0,19.0,53.0,195.0,967.0
35.0,56.0,199.0,27.0,52.0,21.0,57.0,221.0,966.0
36.0,63.0,198.0,43.0,53.0,23.0,65.0,239.0,963.0
33.0,72.0,196.0,62.0,53.0,23.0,62.0,277.0,963.0
33.0,81.0,196.0,79.0,50.0,20.0,57.0,305.0,960.0
35.0,87.0,196.0,84.0,49.0,12.0,51.0,339.0,958.0
31.0,90.0,194.0,77.0,45.0,2.0,51.0,354.0,964.0
32.0,94.0,193.0,52.0,42.0,-7.0,52.0,362.0,967.0
31.0,94.0,202.0,10.0,37.0,-15.0,51.0,350.0,978.0
32.0,89.0,203.0,-42.0,27.0,-22.0,52.0,331.0,1003.0
31.0,82.0,205.0,-100.0,19.0,-25.0,51.0,302.0,1007.0
31.0,69.0,208.0,-150.0,10.0,-24.0,46.0,275.0,1019.0
32.0,66.0,208.0,-185.0,-1.0,-22.0,47.0,246.0,1027.0
31.0,60.0,209.0,-204.0,-11.0,-19.0,48.0,231.0,1020.0
31.0,54.0,205.0,-209.0,-18.0,-15.0,39.0,211.0,1012.0
30.0,55.0,208.0,-198.0,-20.0,-8.0,39.0,203.0,1010.0
31.0,49.0,206.0,-176.0,-20.0,-4.0,42.0,199.0,1003.0
29.0,51.0,201.0,-145.0,-15.0,1.0,32.0,199.0,995.0
30.0,55.0,202.0,-113.0,-6.0,2.0,36.0,210.0,985.0
27.0,55.0,205.0,-76.0,4.0,3.0,29.0,215.0,987.0
26.0,57.0,201.0,-46.0,17.0,2.0,30.0,221.0,976.0
24.0,59.0,197.0,-19.0,26.0,2.0,24.0,222.0,974.0
25.0,59.0,199.0,3.0,37.0,2.0,30.0,231.0,975.0
28.0,62.0,202.0,17.0,46.0,1.0,26.0,240.0,978.0
29.0,65.0,201.0,23.0,53.0,-2.0,29.0,251.0,980.0
25.0,67.0,200.0,18.0,60.0,-4.0,24.0,254.0,980.0
29.0,68.0,199.0,10.0,63.0,-5.0,22.0,267.0,984.0
26.0,69.0,201.0,-1.0,64.0,-8.0,22.0,272.0,984.0
27.0,71.0,201.0,-16.0,62.0,-10.0,24.0,281.0,986.0
28.0,70.0,201.0,-29.0,56.0,-10.0,28.0,284.0,988.0
30.0,73.0,200.0,-40.0,50.0,-9.0,30.0,284.0,979.0
27.0,75.0,200.0,-53.0,43.0,-7.0,30.0,287.0,981.0
30.0,71.0,197.0,-66.0,37.0,-8.0,32.0,290.0,982.0
29.0,71.0,199.0,-74.0,32.0,-7.0,33.0,282.0,974.0
24.0,72.0,201.0,-82.0,29.0,-8.0,30.0,281.0,973.0
29.0,70.0,199.0,-88.0,26.0,-8.0,36.0,270.0,976.0
28.0,70.0,202.0,-92.0,23.0,-6.0,36.0,271.0,979.0
29.0,68.0,200.0,-96.0,23.0,-8.0,34.0,266.0,981.0
29.0,68.0,200.0,-96.0,22.0,-6.0,32.0,257.0,983.0
36.0,65.0,198.0,-96.0,21.0,-5.0,52.0,254.0,981.0
30.0,64.0,199.0,-92.0,27.0,-4.0,42.0,255.0,993.0
29.0,66.0,202.0,-89.0,30.0,-9.0,36.0,254.0,991.0
30.0,63.0,206.0,-86.0,30.0,-12.0,36.0,249.0,998.0
30.0,65.0,207.0,-81.0,27.0,-11.0,42.0,248.0,1000.0
31.0,62.0,204.0,-80.0,26.0,-10.0,50.0,243.0,1001.0
35.0,62.0,207.0,-76.0,30.0,-11.0,46.0,240.0,998.0
30.0,64.0,204.0,-76.0,31.0,-11.0,51.0,238.0,997.0
31.0,62.0,206.0,-74.0,35.0,-11.0,42.0,239.0,1005.0
31.0,63.0,201.0,-72.0,35.0,-10.0,46.0,245.0,994.0
31.0,66.0,203.0,-73.0,34.0,-10.0,43.0,247.0,997.0
32.0,65.0,202.0,-72.0,33.0,-9.0,46.0,254.0,996.0
33.0,64.0,206.0,-72.0,31.0,-7.0,43.0,253.0,999.0
30.0,66.0,205.0,-74.0,29.0,-6.0,43.0,252.0,994.0
32.0,64.0,203.0,-76.0,26.0,-3.0,43.0,253.0,995.0
32.0,64.0,204.0,-77.0,25.0,-5.0,50.0,257.0,986.0
30.0,67.0,202.0,-78.0,23.0,-6.0,42.0,257.0,990.0
30.0,67.0,199.0,-77.0,22.0,-7.0,37.0,257.0,986.0
27.0,67.0,198.0,-80.0,20.0,-8.0,33.0,256.0,991.0
28.0,68.0,199.0,-81.0,19.0,-8.0,29.0,258.0,992.0
30.0,66.0,202.0,-83.0,17.0,-8.0,33.0,255.0,986.0
28.0,67.0,203.0,-83.0,15.0,-10.0,36.0,258.0,984.0
31.0,66.0,201.0,-82.0,16.0,-11.0,34.0,251.0,982.0
32.0,65.0,206.0,-83.0,18.0,-13.0,38.0,256.0,982.0
28.0,65.0,202.0,-83.0,22.0,-13.0,30.0,255.0,982.0
27.0,65.0,196.0,-82.0,28.0,-13.0,33.0,251.0,991.0
29.0,64.0,202.0,-81.0,30.0,-13.0,34.0,253.0,988.0
27.0,64.0,203.0,-80.0,29.0,-16.0,40.0,254.0,986.0
30.0,65.0,200.0,-78.0,30.0,-16.0,45.0,251.0,984.0
27.0,63.0,197.0,-74.0,30.0,-13.0,33.0,251.0,987.0
27.0,65.0,201.0,-71.0,28.0,-12.0,34.0,250.0,996.0
28.0,67.0,205.0,-71.0,27.0,-13.0,43.0,252.0,992.0
29.0,64.0,203.0,-71.0,26.0,-12.0,41.0,250.0,995.0
28.0,65.0,201.0,-71.0,26.0,-11.0,31.0,251.0,996.0
30.0,66.0,204.0,-72.0,25.0,-11.0,39.0,249.0,1000.0
28.0,64.0,206.0,-70.0,25.0,-12.0,33.0,245.0,991.0
28.0,64.0,208.0,-71.0,24.0,-10.0,31.0,248.0,998.0
29.0,65.0,202.0,-70.0,25.0,-12.0,31.0,248.0,998.0
28.0,63.0,201.0,-67.0,26.0,-11.0,33.0,245.0,997.0
26.0,64.0,203.0,-65.0,28.0,-10.0,27.0,246.0,996.0
29.0,63.0,204.0,-60.0,29.0,-9.0,28.0,244.0,992.0
30.0,62.0,203.0,-57.0,31.0,-8.0,27.0,246.0,995.0
29.0,65.0,204.0,-55.0,34.0,-7.0,26.0,244.0,993.0
30.0,64.0,199.0,-53.0,34.0,-7.0,28.0,245.0,989.0
27.0,60.0,207.0,-51.0,33.0,-5.0,29.0,245.0,987.0
27.0,64.0,201.0,-47.0,31.0,-7.0,28.0,244.0,981.0
28.0,64.0,196.0,-46.0,29.0,-8.0,30.0,243.0,991.0
26.0,63.0,201.0,-41.0,26.0,-7.0,29.0,243.0,985.0
25.0,64.0,201.0,-40.0,23.0,-5.0,24.0,246.0,980.0
26.0,64.0,201.0,-39.0,21.0,-6.0,24.0,241.0,981.0
31.0,64.0,199.0,-36.0,18.0,-6.0,32.0,243.0,983.0
25.0,63.0,197.0,-33.0,18.0,-5.0,30.0,241.0,973.0
28.0,61.0,197.0,-29.0,16.0,-6.0,36.0,240.0,972.0
28.0,61.0,199.0,-25.0,16.0,-6.0,29.0,242.0,974.0
28.0,63.0,200.0,-20.0,15.0,-5.0,29.0,247.0,973.0
33.0,62.0,200.0,-17.0,16.0,-7.0,34.0,245.0,974.0
30.0,62.0,199.0,-16.0,17.0,-7.0,33.0,241.0,980.0
29.0,61.0,199.0,-14.0,16.0,-9.0,32.0,239.0,977.0
29.0,62.0,202.0,-11.0,14.0,-12.0,39.0,242.0,979.0
30.0,62.0,202.0,-11.0,12.0,-14.0,38.0,247.0,983.0
32.0,60.0,201.0,-11.0,13.0,-13.0,34.0,246.0,985.0
27.0,64.0,203.0,-12.0,12.0,-14.0,38.0,245.0,986.0
31.0,64.0,202.0,-13.0,12.0,-13.0,36.0,246.0,986.0
27.0,63.0,204.0,-13.0,12.0,-13.0,34.0,250.0,984.0
29.0,64.0,201.0,-10.0,11.0,-12.0,38.0,247.0,988.0
32.0,64.0,202.0,-9.0,12.0,-12.0,37.0,255.0,988.0
34.0,63.0,204.0,-10.0,15.0,-11.0,42.0,253.0,992.0
27.0,66.0,203.0,-11.0,16.0,-11.0,36.0,255.0,992.0
28.0,66.0,205.0,-12.0,16.0,-10.0,32.0,252.0,992.0
32.0,64.0,200.0,-15.0,17.0,-11.0,40.0,257.0,997.0
28.0,67.0,200.0,-15.0,17.0,-10.0,37.0,257.0,994.0
30.0,68.0,202.0,-16.0,16.0,-8.0,33.0,258.0,989.0
30.0,69.0,203.0,-18.0,18.0,-5.0,34.0,260.0,984.0
27.0,67.0,202.0,-18.0,18.0,-4.0,30.0,256.0,996.0
29.0,64.0,207.0,-20.0,19.0,-4.0,36.0,253.0,984.0
31.0,67.0,201.0,-18.0,20.0,-4.0,35.0,258.0,991.0
31.0,65.0,201.0,-15.0,20.0,-4.0,30.0,258.0,986.0
30.0,65.0,200.0,-12.0,20.0,-5.0,33.0,254.0,992.0
29.0,65.0,204.0,-13.0,22.0,-3.0,34.0,254.0,986.0
25.0,64.0,205.0,-13.0,23.0,-3.0,8.0,255.0,995.0
19.0,64.0,200.0,-14.0,23.0,-1.0,6.0,255.0,985.0
32.0,64.0,204.0,-15.0,19.0,-6.0,57.0,257.0,989.0
31.0,66.0,200.0,-15.0,23.0,-8.0,45.0,250.0,983.0
28.0,64.0,198.0,-18.0,27.0,-5.0,32.0,251.0,983.0
29.0,65.0,201.0,-24.0,27.0,-4.0,30.0,247.0,987.0
26.0,64.0,202.0,-32.0,22.0,-3.0,29.0,245.0,983.0
38.0,64.0,201.0,-38.0,17.0,-2.0,55.0,252.0,975.0
24.0,65.0,204.0,-39.0,16.0,1.0,19.0,244.0,995.0
24.0,65.0,202.0,-41.0,16.0,0.0,13.0,251.0,998.0
26.0,65.0,201.0,-41.0,17.0,0.0,16.0,251.0,999.0
29.0,64.0,206.0,-37.0,16.0,-2.0,18.0,249.0,1009.0
30.0,60.0,207.0,-28.0,18.0,-1.0,38.0,244.0,999.0
30.0,59.0,211.0,-13.0,19.0,-2.0,39.0,243.0,988.0
31.0,62.0,201.0,5.0,22.0,-2.0,40.0,255.0,979.0
30.0,65.0,200.0,12.0,25.0,-1.0,33.0,254.0,970.0
30.0,64.0,202.0,14.0,25.0,-1.0,38.0,257.0,978.0
28.0,68.0,199.0,16.0,23.0,-1.0,28.0,258.0,981.0
27.0,65.0,201.0,13.0,21.0,-2.0,32.0,267.0,983.0
28.0,67.0,200.0,9.0,16.0,-2.0,31.0,272.0,980.0
29.0,68.0,204.0,3.0,11.0,-3.0,34.0,271.0,980.0
29.0,70.0,202.0,-2.0,8.0,-2.0,30.0,272.0,983.0
25.0,72.0,205.0,-7.0,7.0,-2.0,32.0,270.0,986.0
26.0,69.0,201.0,-9.0,7.0,-2.0,25.0,270.0,984.0
29.0,69.0,201.0,-14.0,5.0,-3.0,23.0,271.0,991.0
31.0,68.0,202.0,-17.0,4.0,-3.0,28.0,266.0,988.0
29.0,66.0,202.0,-22.0,4.0,-3.0,30.0,266.0,992.0
27.0,69.0,199.0,-26.0,5.0,-4.0,31.0,268.0,995.0
28.0,67.0,204.0,-29.0,5.0,-4.0,34.0,259.0,993.0
30.0,66.0,201.0,-30.0,6.0,-6.0,35.0,258.0,997.0
28.0,66.0,203.0,-30.0,8.0,-6.0,36.0,255.0,997.0
28.0,63.0,205.0,-31.0,9.0,-6.0,30.0,253.0,990.0
29.0,65.0,203.0,-29.0,10.0,-8.0,32.0,251.0,997.0
27.0,65.0,201.0,-29.0,11.0,-9.0,27.0,250.0,989.0
29.0,66.0,199.0,-23.0,11.0,-7.0,30.0,254.0,989.0
25.0,63.0,202.0,-19.0,11.0,-7.0,26.0,251.0,992.0
28.0,64.0,203.0,-18.0,12.0,-7.0,35.0,258.0,987.0
26.0,66.0,201.0,-15.0,13.0,-6.0,33.0,254.0,988.0
27.0,67.0,198.0,-12.0,16.0,-6.0,33.0,258.0,984.0
28.0,66.0,200.0,-9.0,17.0,-6.0,34.0,254.0,983.0
29.0,66.0,201.0,-8.0,16.0,-6.0,40.0,256.0,983.0
29.0,66.0,197.0,-8.0,16.0,-5.0,33.0,254.0,981.0
30.0,64.0,205.0,-8.0,14.0,-6.0,35.0,257.0,984.0
30.0,65.0,200.0,-7.0,12.0,-5.0,33.0,257.0,984.0
29.0,66.0,200.0,-8.0,11.0,-5.0,36.0,258.0,994.0
30.0,66.0,199.0,-9.0,7.0,-3.0,33.0,260.0,984.0
30.0,66.0,202.0,-8.0,5.0,-4.0,34.0,261.0,984.0
31.0,65.0,202.0,-10.0,3.0,-4.0,38.0,259.0,986.0
29.0,66.0,201.0,-9.0,3.0,-3.0,40.0,261.0,981.0
29.0,65.0,200.0,-9.0,3.0,-2.0,35.0,260.0,977.0
26.0,70.0,200.0,-10.0,3.0,-2.0,38.0,268.0,978.0
29.0,68.0,200.0,-10.0,6.0,-3.0,36.0,266.0,976.0
29.0,69.0,197.0,-12.0,5.0,-3.0,34.0,262.0,980.0
31.0,61.0,200.0,-17.0,4.0,-4.0,34.0,273.0,981.0
31.0,67.0,200.0,-19.0,5.0,-5.0,32.0,264.0,975.0
31.0,70.0,200.0,-23.0,6.0,-5.0,45.0,275.0,978.0
32.0,70.0,200.0,-26.0,8.0,-5.0,42.0,265.0,985.0
31.0,68.0,205.0,-28.0,10.0,-6.0,39.0,272.0,983.0
28.0,71.0,202.0,-28.0,9.0,-7.0,33.0,266.0,990.0
25.0,72.0,205.0,-28.0,9.0,-6.0,37.0,266.0,992.0
30.0,67.0,206.0,-28.0,10.0,-6.0,38.0,265.0,990.0
27.0,67.0,205.0,-31.0,8.0,-6.0,30.0,266.0,995.0
27.0,69.0,199.0,-35.0,8.0,-8.0,33.0,265.0,988.0
29.0,67.0,203.0,-38.0,6.0,-7.0,38.0,269.0,986.0
31.0,66.0,198.0,-39.0,7.0,-5.0,33.0,259.0,994.0
28.0,67.0,203.0,-40.0,7.0,-5.0,34.0,265.0,983.0
30.0,65.0,201.0,-39.0,11.0,-5.0,38.0,263.0,988.0
29.0,65.0,200.0,-37.0,14.0,-6.0,33.0,257.0,984.0
32.0,66.0,202.0,-33.0,14.0,-5.0,34.0,267.0,988.0
28.0,69.0,196.0,-33.0,15.0,-5.0,35.0,256.0,994.0
29.0,69.0,204.0,-29.0,16.0,-4.0,34.0,258.0,986.0
29.0,67.0,201.0,-26.0,17.0,-3.0,39.0,258.0,989.0
29.0,67.0,200.0,-24.0,16.0,-3.0,36.0,268.0,982.0
27.0,67.0,202.0,-22.0,16.0,-2.0,39.0,260.0,985.0
30.0,67.0,198.0,-23.0,18.0,-3.0,35.0,265.0,976.0
28.0,68.0,203.0,-21.0,17.0,-2.0,38.0,262.0,981.0
27.0,70.0,203.0,-20.0,17.0,-2.0,38.0,259.0,984.0
31.0,66.0,201.0,-18.0,18.0,-1.0,35.0,260.0,982.0
30.0,71.0,199.0,-17.0,17.0,1.0,34.0,270.0,982.0
29.0,67.0,198.0,-16.0,18.0,1.0,39.0,267.0,982.0
30.0,69.0,202.0,-15.0,20.0,2.0,31.0,270.0,982.0
29.0,67.0,200.0,-16.0,19.0,2.0,35.0,269.0,981.0
30.0,68.0,199.0,-17.0,21.0,2.0,29.0,264.0,982.0
28.0,69.0,199.0,-15.0,22.0,2.0,33.0,262.0,983.0
28.0,68.0,203.0,-16.0,24.0,2.0,32.0,265.0,984.0
28.0,68.0,201.0,-15.0,23.0,3.0,25.0,270.0,994.0
27.0,69.0,202.0,-17.0,22.0,4.0,34.0,266.0,987.0
30.0,67.0,199.0,-18.0,20.0,4.0,32.0,273.0,987.0
28.0,69.0,200.0,-21.0,17.0,4.0,33.0,263.0,990.0
27.0,69.0,200.0,-25.0,16.0,3.0,28.0,267.0,982.0
27.0,72.0,199.0,-26.0,12.0,3.0,29.0,271.0,989.0
28.0,71.0,198.0,-27.0,9.0,1.0,28.0,271.0,983.0
26.0,69.0,203.0,-31.0,7.0,1.0,34.0,271.0,984.0
29.0,69.0,204.0,-34.0,5.0,-1.0,33.0,275.0,983.0
27.0,69.0,198.0,-35.0,5.0,-1.0,36.0,268.0,984.0
29.0,68.0,202.0,-38.0,4.0,-2.0,35.0,271.0,981.0
28.0,71.0,199.0,-38.0,5.0,-3.0,32.0,271.0,979.0
28.0,70.0,202.0,-37.0,4.0,-3.0,32.0,272.0,984.0
29.0,69.0,198.0,-37.0,3.0,-4.0,38.0,274.0,982.0
29.0,71.0,198.0,-39.0,5.0,-4.0,35.0,274.0,989.0
28.0,73.0,201.0,-38.0,5.0,-3.0,40.0,276.0,983.0
29.0,71.0,199.0,-37.0,6.0,-5.0,33.0,273.0,985.0
29.0,68.0,199.0,-36.0,7.0,-6.0,34.0,278.0,990.0
29.0,69.0,202.0,-35.0,8.0,-5.0,42.0,274.0,985.0
29.0,69.0,206.0,-35.0,11.0,-7.0,35.0,268.0,987.0
31.0,70.0,202.0,-35.0,12.0,-7.0,43.0,269.0,984.0
32.0,68.0,200.0,-36.0,13.0,-8.0,38.0,265.0,988.0
29.0,68.0,203.0,-37.0,15.0,-8.0,31.0,271.0,990.0
31.0,72.0,201.0,-37.0,13.0,-6.0,33.0,268.0,984.0
27.0,68.0,203.0,-42.0,14.0,-5.0,36.0,261.0,990.0
29.0,66.0,202.0,-44.0,12.0,-6.0,34.0,270.0,993.0
26.0,69.0,203.0,-45.0,9.0,-5.0,31.0,262.0,985.0
27.0,66.0,200.0,-42.0,5.0,-4.0,26.0,259.0,993.0
27.0,65.0,205.0,-39.0,2.0,-3.0,28.0,265.0,987.0
25.0,67.0,202.0,-37.0,0.0,-2.0,23.0,267.0,983.0
25.0,69.0,200.0,-35.0,-1.0,-3.0,30.0,268.0,985.0
25.0,68.0,203.0,-35.0,-1.0,-4.0,28.0,268.0,979.0
29.0,69.0,204.0,-34.0,0.0,-2.0,31.0,268.0,980.0
31.0,68.0,204.0,-33.0,3.0,-2.0,36.0,273.0,982.0
28.0,70.0,203.0,-34.0,3.0,-4.0,36.0,273.0,979.0
29.0,70.0,197.0,-33.0,6.0,-4.0,34.0,271.0,981.0
29.0,67.0,204.0,-34.0,8.0,-6.0,36.0,275.0,980.0
32.0,68.0,196.0,-35.0,10.0,-6.0,34.0,272.0,983.0
29.0,69.0,204.0,-35.0,10.0,-7.0,37.0,262.0,987.0
31.0,71.0,204.0,-33.0,12.0,-6.0,39.0,270.0,983.0
29.0,67.0,201.0,-32.0,12.0,-6.0,43.0,264.0,987.0
30.0,68.0,201.0,-30.0,11.0,-4.0,39.0,266.0,984.0
31.0,68.0,201.0,-30.0,13.0,-3.0,35.0,260.0,992.0
32.0,67.0,202.0,-29.0,13.0,-4.0,39.0,265.0,992.0
29.0,70.0,204.0,-30.0,12.0,-4.0,37.0,264.0,985.0
31.0,70.0,200.0,-29.0,9.0,-3.0,33.0,264.0,990.0
31.0,68.0,199.0,-30.0,7.0,-3.0,37.0,273.0,984.0
31.0,69.0,204.0,-31.0,6.0,-1.0,42.0,267.0,985.0
31.0,69.0,199.0,-32.0,3.0,-1.0,36.0,275.0,986.0
28.0,69.0,200.0,-31.0,2.0,-2.0,43.0,273.0,982.0
32.0,71.0,202.0,-32.0,2.0,0.0,40.0,273.0,978.0
29.0,69.0,203.0,-31.0,3.0,-1.0,42.0,273.0,979.0
29.0,68.0,199.0,-27.0,4.0,-2.0,34.0,275.0,980.0
30.0,71.0,197.0,-24.0,5.0,-4.0,43.0,278.0,977.0
30.0,70.0,197.0,-20.0,8.0,-5.0,47.0,274.0,976.0
31.0,67.0,199.0,-19.0,8.0,-6.0,40.0,274.0,976.0
31.0,68.0,200.0,-15.0,8.0,-6.0,46.0,274.0,980.0
32.0,67.0,200.0,-11.0,10.0,-8.0,46.0,274.0,979.0
33.0,68.0,195.0,-10.0,11.0,-8.0,45.0,271.0,983.0
31.0,70.0,199.0,-7.0,11.0,-8.0,48.0,272.0,979.0
29.0,70.0,197.0,-4.0,13.0,-9.0,43.0,267.0,983.0
30.0,66.0,201.0,-1.0,12.0,-10.0,37.0,268.0,982.0
33.0,67.0,199.0,4.0,14.0,-10.0,38.0,265.0,988.0
31.0,68.0,200.0,4.0,13.0,-10.0,41.0,266.0,984.0
32.0,67.0,205.0,1.0,15.0,-12.0,40.0,260.0,992.0
30.0,65.0,201.0,-1.0,15.0,-10.0,42.0,266.0,994.0
30.0,67.0,201.0,-6.0,15.0,-13.0,38.0,261.0,987.0
28.0,68.0,201.0,-9.0,16.0,-12.0,33.0,261.0,997.0
31.0,66.0,202.0,-6.0,17.0,-9.0,35.0,263.0,995.0
31.0,65.0,201.0,2.0,18.0,-6.0,39.0,259.0,986.0
28.0,67.0,194.0,16.0,21.0,-5.0,36.0,259.0,976.0
33.0,69.0,196.0,28.0,24.0,-4.0,40.0,270.0,959.0
32.0,71.0,195.0,37.0,29.0,-5.0,41.0,268.0,959.0
30.0,67.0,199.0,39.0,29.0,-3.0,43.0,274.0,967.0
30.0,72.0,194.0,41.0,28.0,-2.0,38.0,278.0,962.0
33.0,75.0,198.0,41.0,23.0,-1.0,39.0,283.0,967.0
29.0,74.0,193.0,40.0,20.0,1.0,46.0,288.0,971.0
30.0,68.0,194.0,37.0,17.0,1.0,39.0,289.0,973.0
29.0,77.0,202.0,33.0,13.0,-1.0,38.0,290.0,985.0
30.0,73.0,201.0,29.0,11.0,-3.0,36.0,295.0,980.0
30.0,76.0,200.0,24.0,12.0,-3.0,36.0,295.0,982.0
29.0,76.0,200.0,18.0,12.0,-3.0,38.0,295.0,982.0
28.0,78.0,203.0,12.0,14.0,-4.0,35.0,299.0,981.0
30.0,77.0,200.0,8.0,15.0,-5.0,42.0,292.0,982.0
28.0,78.0,199.0,2.0,16.0,-5.0,40.0,298.0,982.0
30.0,75.0,203.0,-5.0,17.0,-6.0,42.0,294.0,986.0
28.0,73.0,202.0,-10.0,20.0,-5.0,38.0,289.0,989.0
29.0,72.0,199.0,-12.0,22.0,-5.0,38.0,289.0,987.0
27.0,74.0,204.0,-16.0,23.0,-6.0,37.0,287.0,983.0
32.0,72.0,200.0,-19.0,25.0,-5.0,39.0,282.0,984.0
29.0,71.0,199.0,-20.0,23.0,-6.0,39.0,286.0,986.0
30.0,71.0,200.0,-19.0,22.0,-5.0,39.0,281.0,993.0
31.0,73.0,202.0,-18.0,21.0,-4.0,37.0,280.0,987.0
30.0,73.0,200.0,-18.0,20.0,-5.0,41.0,286.0,982.0
28.0,70.0,198.0,-18.0,19.0,-4.0,34.0,280.0,978.0
30.0,69.0,203.0,-17.0,21.0,-4.0,37.0,277.0,984.0
27.0,72.0,200.0,-16.0,19.0,-4.0,27.0,281.0,978.0
29.0,73.0,200.0,-17.0,18.0,-3.0,32.0,287.0,975.0
29.0,73.0,201.0,-14.0,18.0,-4.0,33.0,280.0,982.0
27.0,76.0,195.0,-15.0,16.0,-4.0,29.0,279.0,978.0
30.0,72.0,202.0,-15.0,17.0,-4.0,40.0,286.0,977.0
29.0,73.0,202.0,-17.0,17.0,-3.0,34.0,286.0,977.0
31.0,72.0,200.0,-19.0,16.0,-3.0,40.0,282.0,975.0
30.0,73.0,199.0,-21.0,14.0,-2.0,41.0,282.0,980.0
29.0,74.0,203.0,-20.0,15.0,-1.0,34.0,284.0,977.0
33.0,70.0,195.0,-22.0,17.0,2.0,46.0,285.0,969.0
24.0,73.0,199.0,-23.0,16.0,1.0,24.0,291.0,982.0
26.0,74.0,202.0,-26.0,11.0,0.0,26.0,281.0,983.0
27.0,75.0,199.0,-24.0,8.0,0.0,28.0,289.0,977.0
27.0,73.0,199.0,-22.0,5.0,-1.0,28.0,291.0,988.0
30.0,71.0,197.0,-23.0,2.0,0.0,41.0,287.0,977.0
34.0,74.0,199.0,-22.0,1.0,-1.0,40.0,289.0,977.0
30.0,71.0,198.0,-24.0,3.0,-2.0,33.0,293.0,975.0
28.0,72.0,202.0,-25.0,3.0,-1.0,38.0,284.0,977.0
29.0,72.0,200.0,-26.0,4.0,-2.0,30.0,288.0,978.0
28.0,72.0,202.0,-25.0,4.0,-1.0,38.0,283.0,976.0
27.0,72.0,197.0,-21.0,5.0,-1.0,41.0,283.0,977.0
27.0,75.0,200.0,-17.0,9.0,-3.0,30.0,288.0,982.0
30.0,72.0,199.0,-14.0,7.0,-2.0,33.0,285.0,979.0
29.0,72.0,203.0,-12.0,4.0,-2.0,35.0,283.0,983.0
30.0,71.0,198.0,-12.0,4.0,-3.0,35.0,282.0,992.0
29.0,73.0,200.0,-12.0,4.0,-3.0,34.0,282.0,987.0
30.0,72.0,202.0,-15.0,2.0,-5.0,35.0,279.0,979.0
27.0,72.0,202.0,-18.0,4.0,-6.0,34.0,283.0,983.0
28.0,72.0,199.0,-15.0,4.0,-6.0,35.0,287.0,980.0
30.0,70.0,199.0,-16.0,3.0,-5.0,31.0,287.0,980.0
31.0,72.0,194.0,-16.0,2.0,-6.0,35.0,291.0,980.0
30.0,72.0,200.0,-13.0,0.0,-6.0,35.0,290.0,974.0
31.0,72.0,200.0,-11.0,-2.0,-5.0,36.0,288.0,975.0
28.0,73.0,196.0,-12.0,0.0,-4.0,36.0,289.0,975.0
28.0,74.0,196.0,-10.0,0.0,-4.0,38.0,289.0,978.0
28.0,72.0,197.0,-10.0,0.0,-4.0,40.0,288.0,978.0
29.0,71.0,199.0,-10.0,-1.0,-4.0,35.0,281.0,976.0
32.0,72.0,201.0,-8.0,0.0,-3.0,38.0,285.0,979.0
36.0,70.0,198.0,-6.0,1.0,-4.0,38.0,285.0,979.0
29.0,74.0,200.0,-4.0,4.0,-4.0,41.0,292.0,974.0
31.0,73.0,196.0,0.0,4.0,-4.0,39.0,287.0,971.0
32.0,75.0,197.0,2.0,4.0,-4.0,47.0,294.0,984.0
30.0,73.0,199.0,1.0,5.0,-4.0,37.0,296.0,984.0
31.0,72.0,199.0,3.0,4.0,-4.0,36.0,294.0,989.0
30.0,75.0,200.0,1.0,5.0,-1.0,40.0,297.0,986.0
31.0,77.0,203.0,1.0,4.0,1.0,43.0,296.0,984.0
31.0,73.0,200.0,-1.0,5.0,-1.0,45.0,299.0,983.0
31.0,75.0,198.0,0.0,6.0,-2.0,49.0,301.0,978.0
31.0,76.0,202.0,-4.0,6.0,-2.0,43.0,297.0,980.0
29.0,78.0,197.0,-5.0,6.0,-4.0,42.0,302.0,980.0
32.0,77.0,200.0,-8.0,6.0,-4.0,47.0,302.0,981.0
31.0,78.0,198.0,-11.0,5.0,-3.0,48.0,301.0,982.0
34.0,76.0,200.0,-17.0,4.0,-3.0,47.0,302.0,981.0
31.0,75.0,202.0,-20.0,4.0,-3.0,43.0,298.0,974.0
31.0,77.0,200.0,-26.0,3.0,-3.0,48.0,302.0,982.0
35.0,72.0,200.0,-30.0,5.0,-3.0,49.0,295.0,979.0
32.0,72.0,201.0,-34.0,7.0,-2.0,45.0,298.0,979.0
32.0,77.0,198.0,-33.0,9.0,-3.0,45.0,295.0,981.0
32.0,75.0,198.0,-35.0,10.0,-4.0,49.0,296.0,980.0
31.0,77.0,199.0,-35.0,12.0,-4.0,43.0,293.0,976.0
34.0,73.0,199.0,-34.0,12.0,-3.0,46.0,295.0,974.0
32.0,73.0,200.0,-35.0,14.0,-4.0,42.0,302.0,979.0
30.0,75.0,199.0,-35.0,14.0,-4.0,45.0,297.0,974.0
28.0,74.0,199.0,-34.0,15.0,-6.0,36.0,296.0,977.0
33.0,73.0,198.0,-36.0,15.0,-6.0,47.0,294.0,975.0
32.0,73.0,199.0,-37.0,16.0,-7.0,44.0,294.0,976.0
31.0,74.0,199.0,-37.0,14.0,-5.0,45.0,294.0,977.0
31.0,76.0,198.0,-37.0,14.0,-5.0,38.0,298.0,977.0
28.0,74.0,202.0,-37.0,14.0,-5.0,41.0,294.0,979.0
32.0,72.0,199.0,-40.0,13.0,-4.0,43.0,295.0,976.0
32.0,73.0,197.0,-40.0,13.0,-4.0,40.0,299.0,980.0
32.0,74.0,201.0,-41.0,13.0,-6.0,45.0,295.0,977.0
30.0,74.0,201.0,-43.0,14.0,-6.0,43.0,292.0,981.0
33.0,74.0,200.0,-44.0,14.0,-7.0,46.0,295.0,971.0
29.0,75.0,200.0,-43.0,14.0,-5.0,39.0,295.0,980.0
32.0,74.0,198.0,-45.0,16.0,-6.0,37.0,301.0,978.0
30.0,76.0,201.0,-45.0,17.0,-5.0,40.0,293.0,975.0
31.0,75.0,198.0,-44.0,18.0,-4.0,40.0,294.0,978.0
31.0,75.0,200.0,-43.0,19.0,-4.0,43.0,299.0,983.0
33.0,74.0,198.0,-43.0,20.0,-5.0,39.0,295.0,980.0
30.0,75.0,201.0,-43.0,19.0,-4.0,38.0,291.0,978.0
32.0,74.0,201.0,-44.0,18.0,-4.0,38.0,294.0,984.0
31.0,75.0,199.0,-44.0,19.0,-2.0,39.0,295.0,979.0
30.0,73.0,203.0,-46.0,18.0,-1.0,40.0,292.0,981.0
28.0,74.0,199.0,-47.0,19.0,-1.0,38.0,296.0,980.0
28.0,78.0,199.0,-50.0,18.0,-2.0,38.0,296.0,983.0
30.0,75.0,203.0,-52.0,18.0,-2.0,40.0,296.0,983.0
30.0,76.0,200.0,-54.0,17.0,0.0,40.0,294.0,975.0
30.0,76.0,198.0,-54.0,16.0,-2.0,45.0,299.0,983.0
32.0,78.0,201.0,-54.0,17.0,-3.0,43.0,297.0,980.0
31.0,78.0,201.0,-54.0,18.0,-4.0,42.0,296.0,976.0
34.0,74.0,199.0,-58.0,19.0,-5.0,38.0,300.0,981.0
32.0,73.0,201.0,-58.0,22.0,-7.0,38.0,299.0,978.0
30.0,74.0,201.0,-59.0,23.0,-7.0,37.0,297.0,978.0
30.0,78.0,198.0,-63.0,23.0,-8.0,46.0,301.0,983.0
32.0,76.0,200.0,-64.0,24.0,-10.0,45.0,293.0,978.0
30.0,78.0,201.0,-65.0,26.0,-9.0,41.0,299.0,982.0
30.0,76.0,200.0,-67.0,26.0,-10.0,38.0,295.0,978.0
31.0,73.0,197.0,-66.0,26.0,-9.0,38.0,292.0,985.0
33.0,76.0,201.0,-67.0,26.0,-7.0,41.0,297.0,984.0
30.0,74.0,200.0,-69.0,25.0,-6.0,37.0,294.0,980.0
31.0,76.0,200.0,-68.0,24.0,-6.0,37.0,297.0,982.0
31.0,79.0,203.0,-67.0,23.0,-6.0,36.0,295.0,978.0
32.0,75.0,201.0,-67.0,24.0,-6.0,33.0,297.0,983.0
29.0,75.0,198.0,-68.0,23.0,-5.0,39.0,297.0,975.0
30.0,76.0,200.0,-65.0,24.0,-5.0,37.0,294.0,978.0
32.0,72.0,199.0,-66.0,24.0,-6.0,39.0,297.0,976.0
30.0,75.0,199.0,-66.0,24.0,-5.0,43.0,296.0,979.0
28.0,76.0,203.0,-67.0,25.0,-7.0,37.0,296.0,984.0
32.0,74.0,199.0,-68.0,24.0,-8.0,40.0,292.0,984.0
31.0,72.0,197.0,-69.0,22.0,-7.0,37.0,288.0,985.0
32.0,74.0,203.0,-67.0,23.0,-8.0,35.0,287.0,982.0
30.0,74.0,198.0,-67.0,22.0,-8.0,37.0,293.0,982.0
29.0,71.0,199.0,-64.0,23.0,-7.0,45.0,290.0,977.0
29.0,73.0,199.0,-64.0,27.0,-8.0,42.0,292.0,973.0
30.0,73.0,200.0,-65.0,26.0,-8.0,39.0,288.0,981.0
26.0,74.0,193.0,-65.0,26.0,-8.0,21.0,292.0,971.0
30.0,71.0,199.0,-68.0,23.0,-7.0,42.0,287.0,973.0
35.0,73.0,196.0,-67.0,23.0,-7.0,56.0,293.0,977.0
32.0,73.0,198.0,-67.0,28.0,-7.0,43.0,292.0,974.0
29.0,73.0,194.0,-67.0,28.0,-5.0,38.0,282.0,980.0
28.0,72.0,197.0,-67.0,24.0,-5.0,41.0,284.0,971.0
30.0,69.0,196.0,-68.0,20.0,-5.0,43.0,285.0,975.0
29.0,75.0,196.0,-68.0,19.0,-4.0,45.0,293.0,973.0
28.0,77.0,201.0,-65.0,19.0,-3.0,37.0,294.0,978.0
31.0,73.0,197.0,-62.0,18.0,-5.0,38.0,295.0,982.0
30.0,76.0,199.0,-58.0,17.0,-5.0,45.0,301.0,979.0
29.0,80.0,202.0,-57.0,18.0,-6.0,38.0,299.0,976.0
31.0,75.0,200.0,-58.0,19.0,-6.0,37.0,295.0,982.0
33.0,73.0,204.0,-58.0,19.0,-7.0,35.0,291.0,981.0
32.0,76.0,197.0,-58.0,20.0,-7.0,42.0,295.0,983.0
29.0,77.0,201.0,-59.0,21.0,-6.0,40.0,289.0,982.0
28.0,75.0,197.0,-58.0,25.0,-6.0,36.0,289.0,976.0
33.0,72.0,202.0,-61.0,27.0,-7.0,40.0,287.0,985.0
31.0,73.0,204.0,-65.0,27.0,-9.0,34.0,284.0,982.0
29.0,73.0,205.0,-69.0,28.0,-10.0,38.0,290.0,982.0
30.0,74.0,199.0,-75.0,28.0,-11.0,33.0,293.0,989.0
30.0,74.0,207.0,-81.0,28.0,-11.0,34.0,286.0,988.0
30.0,72.0,204.0,-88.0,29.0,-11.0,35.0,281.0,991.0
29.0,73.0,202.0,-93.0,29.0,-10.0,42.0,279.0,991.0
30.0,67.0,202.0,-91.0,29.0,-7.0,42.0,269.0,990.0
28.0,66.0,199.0,-79.0,30.0,-7.0,40.0,261.0,983.0
32.0,67.0,202.0,-61.0,30.0,-4.0,41.0,266.0,978.0
30.0,70.0,197.0,-45.0,30.0,-2.0,38.0,278.0,965.0
31.0,73.0,193.0,-35.0,32.0,-1.0,37.0,287.0,960.0
32.0,71.0,192.0,-33.0,34.0,0.0,36.0,285.0,960.0
28.0,74.0,194.0,-31.0,31.0,-1.0,34.0,293.0,964.0
29.0,72.0,199.0,-35.0,27.0,-1.0,35.0,293.0,967.0
29.0,77.0,201.0,-38.0,23.0,-2.0,30.0,292.0,976.0
32.0,76.0,197.0,-43.0,22.0,-1.0,37.0,296.0,975.0
30.0,76.0,200.0,-47.0,20.0,-2.0,33.0,295.0,977.0
29.0,80.0,199.0,-52.0,19.0,-2.0,34.0,298.0,976.0
30.0,77.0,198.0,-57.0,20.0,-2.0,34.0,301.0,980.0
28.0,76.0,202.0,-59.0,21.0,-4.0,38.0,299.0,981.0
28.0,76.0,195.0,-63.0,22.0,-4.0,35.0,299.0,983.0
28.0,77.0,203.0,-66.0,23.0,-5.0,34.0,306.0,985.0
30.0,75.0,202.0,-71.0,23.0,-6.0,37.0,298.0,987.0
30.0,76.0,201.0,-75.0,21.0,-5.0,39.0,294.0,984.0
29.0,75.0,197.0,-77.0,19.0,-5.0,38.0,294.0,984.0
25.0,74.0,202.0,-78.0,17.0,-6.0,38.0,294.0,989.0
29.0,72.0,199.0,-80.0,19.0,-6.0,42.0,290.0,991.0
28.0,73.0,205.0,-82.0,19.0,-6.0,41.0,289.0,988.0
29.0,73.0,202.0,-83.0,21.0,-6.0,41.0,283.0,982.0
29.0,73.0,202.0,-83.0,22.0,-7.0,37.0,289.0,985.0
31.0,70.0,202.0,-81.0,25.0,-7.0,38.0,282.0,983.0
29.0,72.0,196.0,-80.0,24.0,-7.0,41.0,286.0,982.0
29.0,71.0,201.0,-80.0,23.0,-5.0,38.0,288.0,992.0
29.0,74.0,197.0,-79.0,23.0,-7.0,35.0,285.0,981.0
29.0,74.0,198.0,-78.0,23.0,-5.0,39.0,291.0,982.0
28.0,75.0,198.0,-78.0,24.0,-5.0,43.0,282.0,978.0
29.0,74.0,201.0,-77.0,24.0,-4.0,38.0,286.0,984.0
32.0,71.0,198.0,-76.0,23.0,-4.0,42.0,289.0,973.0
28.0,72.0,199.0,-76.0,22.0,-6.0,38.0,285.0,975.0
30.0,73.0,200.0,-75.0,21.0,-4.0,37.0,286.0,980.0
29.0,70.0,198.0,-75.0,20.0,-4.0,40.0,283.0,977.0
27.0,69.0,198.0,-76.0,20.0,-4.0,35.0,281.0,980.0
29.0,68.0,204.0,-77.0,18.0,-5.0,36.0,282.0,982.0
30.0,70.0,202.0,-77.0,17.0,-4.0,36.0,281.0,980.0
29.0,71.0,197.0,-77.0,18.0,-3.0,38.0,277.0,983.0
31.0,73.0,202.0,-77.0,17.0,-3.0,40.0,277.0,979.0
28.0,74.0,198.0,-76.0,18.0,-5.0,33.0,283.0,974.0
30.0,71.0,200.0,-75.0,18.0,-4.0,33.0,282.0,980.0
29.0,72.0,199.0,-74.0,19.0,-4.0,40.0,279.0,977.0
31.0,71.0,201.0,-72.0,19.0,-4.0,37.0,278.0,977.0
29.0,71.0,201.0,-70.0,19.0,-5.0,35.0,281.0,980.0
29.0,72.0,197.0,-69.0,19.0,-7.0,38.0,282.0,973.0
28.0,73.0,197.0,-67.0,21.0,-6.0,36.0,288.0,976.0
29.0,70.0,196.0,-66.0,20.0,-7.0,39.0,281.0,981.0
30.0,73.0,198.0,-66.0,21.0,-8.0,35.0,283.0,975.0
29.0,73.0,200.0,-69.0,21.0,-8.0,34.0,285.0,981.0
30.0,69.0,200.0,-71.0,20.0,-8.0,35.0,281.0,982.0
29.0,70.0,202.0,-74.0,18.0,-7.0,34.0,276.0,987.0
27.0,69.0,202.0,-77.0,16.0,-7.0,35.0,278.0,989.0
30.0,70.0,200.0,-78.0,16.0,-6.0,35.0,276.0,984.0
30.0,72.0,200.0,-79.0,15.0,-6.0,32.0,280.0,984.0
31.0,69.0,200.0,-79.0,15.0,-5.0,38.0,274.0,978.0
27.0,73.0,202.0,-79.0,17.0,-6.0,41.0,278.0,978.0
29.0,73.0,199.0,-81.0,18.0,-6.0,34.0,275.0,983.0
29.0,72.0,205.0,-82.0,19.0,-6.0,35.0,279.0,981.0
31.0,70.0,200.0,-81.0,20.0,-4.0,36.0,282.0,982.0
27.0,73.0,199.0,-80.0,19.0,-5.0,32.0,282.0,983.0
31.0,71.0,203.0,-81.0,19.0,-4.0,31.0,277.0,986.0
26.0,71.0,203.0,-80.0,19.0,-4.0,36.0,283.0,980.0
30.0,72.0,196.0,-82.0,19.0,-5.0,35.0,291.0,986.0
29.0,73.0,200.0,-81.0,19.0,-5.0,36.0,284.0,982.0
31.0,72.0,199.0,-81.0,20.0,-4.0,34.0,281.0,981.0
30.0,69.0,199.0,-81.0,19.0,-3.0,34.0,282.0,981.0
28.0,72.0,202.0,-81.0,22.0,-3.0,33.0,279.0,984.0
28.0,72.0,202.0,-81.0,22.0,-4.0,34.0,282.0,983.0
32.0,71.0,200.0,-81.0,23.0,-3.0,35.0,278.0,986.0
31.0,74.0,200.0,-80.0,23.0,-4.0,39.0,282.0,984.0
32.0,70.0,200.0,-81.0,25.0,-4.0,36.0,279.0,989.0
30.0,70.0,202.0,-80.0,26.0,-5.0,37.0,281.0,985.0
28.0,72.0,200.0,-83.0,26.0,-5.0,37.0,276.0,986.0
29.0,76.0,198.0,-84.0,26.0,-5.0,38.0,282.0,987.0
29.0,72.0,201.0,-84.0,25.0,-3.0,39.0,280.0,984.0
31.0,70.0,199.0,-84.0,24.0,-2.0,27.0,281.0,985.0
27.0,69.0,200.0,-83.0,24.0,-1.0,34.0,279.0,986.0
31.0,69.0,202.0,-82.0,23.0,-1.0,35.0,280.0,983.0
28.0,69.0,199.0,-81.0,23.0,-2.0,38.0,273.0,983.0
31.0,69.0,200.0,-80.0,22.0,-3.0,35.0,272.0,984.0
29.0,69.0,200.0,-79.0,23.0,-1.0,33.0,270.0,984.0
30.0,67.0,197.0,-81.0,23.0,-2.0,38.0,274.0,976.0
26.0,69.0,202.0,-80.0,23.0,-2.0,34.0,270.0,981.0
28.0,70.0,207.0,-79.0,25.0,-2.0,34.0,268.0,995.0
26.0,70.0,201.0,-80.0,24.0,-3.0,34.0,272.0,984.0
25.0,73.0,200.0,-79.0,25.0,-5.0,35.0,274.0,982.0
32.0,69.0,204.0,-79.0,25.0,-7.0,35.0,272.0,982.0
29.0,68.0,201.0,-78.0,25.0,-5.0,29.0,266.0,983.0
29.0,69.0,202.0,-76.0,23.0,-6.0,38.0,276.0,983.0
30.0,70.0,200.0,-77.0,22.0,-7.0,36.0,279.0,981.0
29.0,72.0,198.0,-77.0,23.0,-6.0,39.0,274.0,983.0
29.0,67.0,201.0,-79.0,24.0,-6.0,31.0,277.0,984.0
29.0,68.0,202.0,-79.0,25.0,-7.0,35.0,273.0,977.0
30.0,70.0,199.0,-80.0,25.0,-6.0,36.0,275.0,982.0
29.0,73.0,201.0,-82.0,23.0,-6.0,35.0,272.0,978.0
30.0,65.0,199.0,-86.0,22.0,-6.0,30.0,273.0,983.0
29.0,67.0,200.0,-87.0,21.0,-4.0,36.0,263.0,983.0
28.0,68.0,199.0,-88.0,21.0,-6.0,33.0,267.0,982.0
30.0,68.0,201.0,-87.0,20.0,-6.0,35.0,271.0,981.0
26.0,69.0,200.0,-86.0,22.0,-4.0,35.0,271.0,984.0
29.0,68.0,200.0,-86.0,22.0,-3.0,33.0,271.0,986.0
29.0,68.0,204.0,-85.0,23.0,-4.0,34.0,274.0,983.0
27.0,71.0,201.0,-86.0,22.0,-4.0,31.0,267.0,982.0
29.0,68.0,200.0,-87.0,20.0,-5.0,35.0,273.0,984.0
29.0,67.0,196.0,-88.0,20.0,-4.0,28.0,271.0,984.0
29.0,66.0,204.0,-91.0,19.0,-3.0,30.0,271.0,985.0
29.0,70.0,201.0,-90.0,19.0,-4.0,37.0,274.0,983.0
26.0,69.0,202.0,-92.0,19.0,-5.0,28.0,270.0,992.0
28.0,70.0,203.0,-91.0,20.0,-6.0,31.0,268.0,998.0
29.0,68.0,201.0,-93.0,23.0,-6.0,34.0,271.0,992.0
28.0,69.0,202.0,-95.0,22.0,-5.0,32.0,274.0,989.0
29.0,69.0,198.0,-96.0,23.0,-3.0,29.0,271.0,992.0
28.0,72.0,199.0,-95.0,22.0,-2.0,32.0,270.0,989.0
25.0,70.0,204.0,-97.0,21.0,-4.0,27.0,271.0,990.0
25.0,69.0,205.0,-97.0,20.0,-3.0,31.0,275.0,989.0
27.0,70.0,200.0,-98.0,18.0,-4.0,33.0,270.0,986.0
27.0,69.0,199.0,-99.0,17.0,-7.0,34.0,267.0,983.0
29.0,68.0,202.0,-99.0,18.0,-6.0,31.0,262.0,989.0
28.0,71.0,203.0,-99.0,19.0,-7.0,32.0,266.0,983.0
26.0,67.0,199.0,-98.0,21.0,-7.0,36.0,270.0,980.0
30.0,68.0,198.0,-100.0,22.0,-7.0,32.0,271.0,990.0
34.0,65.0,200.0,-101.0,25.0,-8.0,33.0,262.0,987.0
27.0,69.0,205.0,-102.0,26.0,-9.0,38.0,264.0,985.0
26.0,68.0,202.0,-100.0,27.0,-8.0,36.0,258.0,983.0
28.0,65.0,202.0,-99.0,28.0,-9.0,36.0,255.0,994.0
29.0,66.0,205.0,-95.0,28.0,-9.0,34.0,258.0,984.0
29.0,66.0,199.0,-95.0,26.0,-7.0,30.0,258.0,989.0
28.0,67.0,200.0,-94.0,26.0,-7.0,36.0,255.0,993.0
29.0,65.0,200.0,-92.0,26.0,-6.0,35.0,255.0,993.0
29.0,67.0,203.0,-91.0,25.0,-5.0,39.0,256.0,990.0
30.0,64.0,202.0,-89.0,25.0,-3.0,33.0,255.0,991.0
26.0,65.0,199.0,-90.0,22.0,-4.0,35.0,257.0,991.0
28.0,69.0,200.0,-89.0,22.0,-3.0,41.0,258.0,983.0
28.0,66.0,199.0,-91.0,20.0,-3.0,33.0,255.0,983.0
30.0,65.0,205.0,-89.0,19.0,-1.0,31.0,262.0,985.0
27.0,65.0,199.0,-87.0,19.0,-1.0,36.0,259.0,986.0
29.0,67.0,202.0,-85.0,18.0,-2.0,34.0,259.0,978.0
28.0,67.0,201.0,-80.0,20.0,-1.0,31.0,262.0,982.0
29.0,66.0,196.0,-76.0,21.0,-2.0,35.0,263.0,978.0
28.0,65.0,200.0,-71.0,22.0,-3.0,32.0,261.0,980.0
30.0,65.0,205.0,-70.0,23.0,-3.0,35.0,264.0,982.0
28.0,67.0,200.0,-69.0,24.0,-4.0,34.0,258.0,990.0
27.0,65.0,203.0,-69.0,25.0,-5.0,35.0,258.0,983.0
30.0,63.0,200.0,-72.0,26.0,-5.0,33.0,257.0,984.0
30.0,65.0,203.0,-71.0,27.0,-7.0,31.0,258.0,985.0
27.0,65.0,200.0,-69.0,29.0,-6.0,30.0,253.0,994.0
29.0,65.0,202.0,-69.0,28.0,-6.0,30.0,252.0,990.0
29.0,65.0,201.0,-70.0,29.0,-7.0,31.0,253.0,987.0
28.0,62.0,205.0,-71.0,26.0,-7.0,27.0,251.0,996.0
30.0,62.0,206.0,-75.0,24.0,-8.0,32.0,249.0,995.0
27.0,66.0,205.0,-79.0,22.0,-5.0,31.0,251.0,998.0
28.0,65.0,201.0,-82.0,20.0,-5.0,31.0,257.0,996.0
29.0,64.0,204.0,-87.0,20.0,-4.0,30.0,254.0,999.0
28.0,65.0,204.0,-87.0,21.0,-4.0,31.0,254.0,996.0
28.0,63.0,206.0,-82.0,22.0,-3.0,28.0,245.0,997.0
27.0,64.0,203.0,-72.0,23.0,-3.0,29.0,245.0,994.0
25.0,64.0,202.0,-55.0,25.0,-3.0,29.0,250.0,979.0
29.0,64.0,199.0,-43.0,27.0,-1.0,39.0,252.0,975.0
30.0,64.0,197.0,-37.0,29.0,0.0,34.0,254.0,974.0
31.0,64.0,199.0,-37.0,31.0,0.0,32.0,255.0,972.0
29.0,67.0,200.0,-37.0,31.0,1.0,30.0,260.0,970.0
30.0,65.0,200.0,-41.0,29.0,0.0,27.0,258.0,975.0
26.0,66.0,200.0,-43.0,25.0,-1.0,32.0,255.0,981.0
23.0,67.0,202.0,-44.0,23.0,-1.0,27.0,261.0,979.0
27.0,68.0,201.0,-44.0,20.0,-1.0,31.0,264.0,982.0
27.0,70.0,202.0,-45.0,19.0,-1.0,33.0,273.0,984.0
29.0,69.0,197.0,-44.0,19.0,-2.0,31.0,277.0,990.0
29.0,69.0,203.0,-47.0,21.0,-4.0,31.0,265.0,987.0
28.0,70.0,199.0,-52.0,19.0,-6.0,33.0,272.0,994.0
28.0,70.0,206.0,-54.0,18.0,-5.0,33.0,267.0,986.0
30.0,68.0,205.0,-60.0,21.0,-6.0,35.0,258.0,996.0
28.0,69.0,205.0,-64.0,20.0,-6.0,32.0,259.0,998.0
29.0,66.0,207.0,-67.0,20.0,-4.0,33.0,251.0,994.0
28.0,64.0,205.0,-69.0,20.0,-5.0,32.0,254.0,995.0
30.0,63.0,202.0,-71.0,21.0,-6.0,28.0,252.0,997.0
30.0,64.0,198.0,-70.0,22.0,-5.0,32.0,250.0,992.0
29.0,65.0,201.0,-70.0,22.0,-5.0,32.0,250.0,991.0
30.0,66.0,203.0,-69.0,21.0,-4.0,35.0,251.0,994.0
30.0,63.0,201.0,-70.0,22.0,-3.0,35.0,256.0,984.0
29.0,65.0,200.0,-70.0,22.0,-3.0,36.0,259.0,983.0
29.0,64.0,201.0,-72.0,22.0,-4.0,30.0,251.0,983.0
29.0,66.0,201.0,-75.0,22.0,-3.0,32.0,254.0,984.0
28.0,67.0,203.0,-76.0,21.0,-3.0,30.0,254.0,986.0
27.0,67.0,202.0,-77.0,19.0,-3.0,30.0,247.0,985.0
29.0,65.0,203.0,-76.0,18.0,-2.0,34.0,257.0,985.0
29.0,62.0,199.0,-75.0,16.0,-4.0,30.0,254.0,983.0
27.0,66.0,205.0,-73.0,15.0,-4.0,33.0,252.0,983.0
29.0,65.0,202.0,-71.0,13.0,-5.0,30.0,250.0,983.0
27.0,64.0,202.0,-69.0,13.0,-4.0,25.0,250.0,989.0
27.0,65.0,198.0,-65.0,13.0,-5.0,29.0,251.0,986.0
29.0,63.0,202.0,-63.0,13.0,-5.0,25.0,254.0,982.0
27.0,65.0,199.0,-60.0,15.0,-4.0,27.0,251.0,982.0
25.0,65.0,200.0,-55.0,16.0,-5.0,27.0,249.0,983.0
30.0,65.0,201.0,-50.0,15.0,-6.0,27.0,247.0,980.0
27.0,64.0,197.0,-44.0,16.0,-7.0,32.0,249.0,980.0
29.0,64.0,200.0,-38.0,15.0,-7.0,32.0,254.0,975.0
23.0,65.0,199.0,-33.0,15.0,-7.0,28.0,247.0,981.0
28.0,65.0,198.0,-28.0,15.0,-7.0,33.0,252.0,978.0
24.0,65.0,198.0,-24.0,15.0,-6.0,32.0,252.0,973.0
27.0,65.0,199.0,-20.0,14.0,-7.0,34.0,248.0,974.0
30.0,65.0,201.0,-19.0,13.0,-7.0,33.0,249.0,975.0
30.0,63.0,198.0,-15.0,12.0,-7.0,30.0,251.0,976.0
28.0,64.0,201.0,-14.0,11.0,-6.0,34.0,249.0,984.0
32.0,63.0,197.0,-16.0,10.0,-7.0,33.0,251.0,984.0
28.0,64.0,199.0,-17.0,12.0,-7.0,29.0,247.0,982.0
27.0,63.0,201.0,-16.0,10.0,-6.0,34.0,248.0,986.0
29.0,63.0,199.0,-16.0,10.0,-7.0,32.0,248.0,979.0
27.0,63.0,203.0,-16.0,10.0,-7.0,34.0,246.0,981.0
29.0,63.0,201.0,-16.0,9.0,-5.0,32.0,251.0,982.0
30.0,63.0,198.0,-11.0,8.0,-3.0,33.0,253.0,985.0
29.0,65.0,197.0,-10.0,8.0,-2.0,26.0,256.0,988.0
25.0,65.0,200.0,-9.0,7.0,-1.0,30.0,255.0,983.0
28.0,64.0,203.0,-9.0,6.0,-2.0,36.0,253.0,984.0
29.0,65.0,202.0,-9.0,8.0,0.0,30.0,258.0,987.0
29.0,65.0,202.0,-7.0,9.0,-1.0,37.0,258.0,990.0
30.0,64.0,201.0,-8.0,10.0,-1.0,31.0,260.0,991.0
29.0,65.0,205.0,-9.0,11.0,-3.0,35.0,259.0,992.0
32.0,65.0,204.0,-11.0,12.0,-3.0,32.0,266.0,986.0
28.0,67.0,204.0,-10.0,13.0,-4.0,30.0,260.0,989.0
29.0,68.0,203.0,-10.0,13.0,-4.0,33.0,262.0,987.0
28.0,66.0,201.0,-12.0,13.0,-4.0,32.0,263.0,990.0
28.0,66.0,204.0,-14.0,12.0,-3.0,35.0,260.0,995.0
28.0,65.0,201.0,-15.0,13.0,-4.0,30.0,263.0,988.0
29.0,67.0,203.0,-16.0,11.0,-4.0,37.0,262.0,994.0
30.0,66.0,202.0,-15.0,12.0,-5.0,34.0,269.0,993.0
29.0,66.0,203.0,-13.0,12.0,-4.0,36.0,270.0,987.0
28.0,65.0,205.0,-13.0,12.0,-3.0,34.0,260.0,991.0
26.0,69.0,204.0,-11.0,12.0,-3.0,38.0,264.0,991.0
28.0,67.0,205.0,-8.0,11.0,-3.0,33.0,257.0,993.0
31.0,68.0,202.0,-8.0,10.0,-1.0,36.0,260.0,987.0
28.0,66.0,201.0,-7.0,10.0,0.0,38.0,258.0,996.0
29.0,69.0,205.0,-5.0,10.0,0.0,37.0,259.0,990.0
31.0,63.0,201.0,-4.0,10.0,0.0,33.0,259.0,991.0
31.0,67.0,201.0,-5.0,10.0,-1.0,35.0,258.0,993.0
26.0,67.0,206.0,-7.0,10.0,0.0,32.0,258.0,989.0
29.0,65.0,202.0,-8.0,11.0,-3.0,32.0,259.0,983.0
29.0,67.0,199.0,-8.0,12.0,-2.0,33.0,259.0,984.0
26.0,67.0,203.0,-10.0,12.0,-4.0,35.0,262.0,992.0
28.0,64.0,200.0,-10.0,12.0,-4.0,31.0,263.0,990.0
29.0,65.0,203.0,-9.0,12.0,-6.0,32.0,259.0,982.0
30.0,66.0,203.0,-8.0,15.0,-5.0,32.0,260.0,986.0
26.0,66.0,203.0,-8.0,14.0,-6.0,26.0,271.0,991.0
30.0,67.0,201.0,-9.0,15.0,-6.0,26.0,260.0,991.0
25.0,69.0,201.0,-9.0,14.0,-5.0,27.0,264.0,986.0
28.0,67.0,201.0,-10.0,16.0,-5.0,33.0,265.0,982.0
26.0,65.0,200.0,-14.0,16.0,-5.0,26.0,263.0,987.0
28.0,66.0,196.0,-15.0,16.0,-6.0,31.0,268.0,986.0
28.0,68.0,201.0,-16.0,15.0,-5.0,36.0,266.0,984.0
30.0,67.0,203.0,-17.0,15.0,-5.0,30.0,271.0,986.0
30.0,67.0,201.0,-18.0,16.0,-4.0,27.0,264.0,987.0
29.0,66.0,201.0,-17.0,15.0,-3.0,27.0,264.0,984.0
27.0,67.0,202.0,-19.0,14.0,-3.0,31.0,259.0,993.0
26.0,63.0,202.0,-18.0,13.0,-3.0,36.0,262.0,991.0
28.0,65.0,197.0,-17.0,12.0,-3.0,31.0,259.0,982.0
27.0,67.0,203.0,-18.0,12.0,-2.0,28.0,262.0,983.0
29.0,65.0,206.0,-19.0,13.0,-1.0,31.0,258.0,984.0
26.0,67.0,203.0,-20.0,13.0,-1.0,32.0,267.0,985.0
27.0,68.0,202.0,-20.0,13.0,-1.0,32.0,265.0,987.0
27.0,69.0,205.0,-22.0,12.0,-3.0,33.0,267.0,983.0
29.0,66.0,200.0,-24.0,12.0,-2.0,30.0,269.0,985.0
28.0,70.0,203.0,-25.0,12.0,-2.0,32.0,274.0,987.0
30.0,65.0,204.0,-26.0,10.0,-3.0,33.0,267.0,984.0
25.0,69.0,201.0,-28.0,11.0,-5.0,34.0,273.0,989.0
28.0,69.0,199.0,-29.0,11.0,-4.0,32.0,271.0,985.0
29.0,66.0,201.0,-31.0,11.0,-5.0,32.0,273.0,986.0
27.0,70.0,201.0,-31.0,11.0,-4.0,25.0,267.0,983.0
28.0,68.0,201.0,-32.0,13.0,-4.0,30.0,273.0,995.0
27.0,71.0,201.0,-37.0,14.0,-4.0,32.0,270.0,985.0
30.0,66.0,202.0,-40.0,15.0,-5.0,33.0,275.0,995.0
31.0,66.0,200.0,-43.0,17.0,-7.0,32.0,268.0,990.0
27.0,68.0,199.0,-44.0,18.0,-6.0,34.0,262.0,986.0
32.0,67.0,198.0,-45.0,19.0,-6.0,32.0,265.0,987.0
30.0,66.0,201.0,-45.0,16.0,-5.0,33.0,270.0,987.0
29.0,65.0,199.0,-44.0,13.0,-5.0,36.0,268.0,986.0
29.0,68.0,201.0,-45.0,13.0,-4.0,36.0,260.0,991.0
29.0,69.0,201.0,-44.0,10.0,-4.0,37.0,261.0,987.0
28.0,69.0,202.0,-45.0,9.0,-4.0,34.0,268.0,988.0
29.0,68.0,204.0,-46.0,7.0,-4.0,34.0,260.0,985.0
29.0,63.0,201.0,-46.0,8.0,-3.0,34.0,264.0,992.0
28.0,66.0,203.0,-44.0,6.0,-3.0,36.0,270.0,981.0
27.0,68.0,202.0,-42.0,6.0,-2.0,31.0,260.0,987.0
29.0,67.0,197.0,-38.0,7.0,-3.0,37.0,267.0,984.0
32.0,69.0,196.0,-34.0,8.0,-3.0,34.0,265.0,980.0
31.0,64.0,201.0,-30.0,9.0,-5.0,30.0,265.0,981.0
30.0,67.0,201.0,-27.0,10.0,-4.0,32.0,266.0,979.0
29.0,66.0,202.0,-26.0,8.0,-5.0,33.0,259.0,982.0
27.0,68.0,201.0,-26.0,12.0,-5.0,32.0,261.0,987.0
28.0,67.0,196.0,-24.0,13.0,-7.0,27.0,262.0,983.0
26.0,68.0,203.0,-21.0,13.0,-8.0,31.0,259.0,982.0
30.0,69.0,198.0,-18.0,13.0,-8.0,31.0,262.0,987.0
28.0,65.0,203.0,-15.0,13.0,-8.0,32.0,265.0,982.0
31.0,67.0,199.0,-16.0,13.0,-7.0,28.0,262.0,985.0
29.0,66.0,202.0,-16.0,12.0,-9.0,30.0,261.0,989.0
27.0,68.0,205.0,-18.0,13.0,-9.0,35.0,261.0,988.0
32.0,65.0,202.0,-22.0,15.0,-9.0,34.0,261.0,993.0
28.0,67.0,204.0,-25.0,16.0,-10.0,35.0,266.0,992.0
27.0,66.0,201.0,-29.0,16.0,-11.0,31.0,260.0,1000.0
29.0,65.0,201.0,-33.0,18.0,-11.0,22.0,257.0,1000.0
27.0,68.0,204.0,-33.0,18.0,-9.0,30.0,256.0,992.0
29.0,66.0,203.0,-28.0,19.0,-5.0,30.0,257.0,989.0
30.0,65.0,201.0,-15.0,21.0,-3.0,30.0,256.0,986.0
28.0,67.0,198.0,-3.0,21.0,-1.0,33.0,261.0,973.0
29.0,70.0,196.0,10.0,23.0,1.0,37.0,266.0,964.0
30.0,68.0,196.0,12.0,25.0,0.0,35.0,271.0,967.0
28.0,68.0,198.0,15.0,25.0,2.0,33.0,273.0,967.0
28.0,74.0,195.0,15.0,22.0,2.0,33.0,276.0,968.0
29.0,71.0,197.0,14.0,19.0,2.0,31.0,278.0,971.0
30.0,70.0,194.0,10.0,17.0,0.0,35.0,275.0,979.0
30.0,72.0,202.0,8.0,14.0,0.0,33.0,278.0,975.0
29.0,73.0,200.0,8.0,14.0,-3.0,39.0,279.0,979.0
30.0,73.0,198.0,4.0,13.0,-3.0,37.0,286.0,985.0
30.0,71.0,200.0,1.0,14.0,-4.0,35.0,280.0,982.0
29.0,74.0,199.0,-2.0,13.0,-2.0,34.0,281.0,982.0
32.0,72.0,206.0,-6.0,13.0,-4.0,34.0,286.0,981.0
30.0,74.0,203.0,-9.0,13.0,-2.0,35.0,289.0,990.0
31.0,70.0,204.0,-13.0,12.0,-3.0,36.0,283.0,989.0
29.0,70.0,204.0,-18.0,11.0,-3.0,33.0,279.0,984.0
27.0,69.0,201.0,-22.0,10.0,-4.0,31.0,281.0,992.0
29.0,67.0,202.0,-26.0,8.0,-2.0,33.0,275.0,988.0
29.0,70.0,200.0,-26.0,7.0,-2.0,33.0,275.0,987.0
30.0,69.0,200.0,-24.0,7.0,-1.0,30.0,272.0,984.0
26.0,71.0,202.0,-24.0,7.0,-2.0,34.0,271.0,985.0
27.0,70.0,199.0,-23.0,8.0,-3.0,37.0,267.0,977.0
31.0,67.0,196.0,-22.0,10.0,-1.0,37.0,271.0,984.0
31.0,68.0,198.0,-21.0,10.0,-3.0,38.0,274.0,984.0
28.0,69.0,198.0,-19.0,12.0,-3.0,35.0,271.0,983.0
29.0,68.0,200.0,-20.0,13.0,-3.0,33.0,272.0,984.0
29.0,69.0,199.0,-20.0,14.0,-5.0,34.0,276.0,991.0
29.0,70.0,197.0,-18.0,15.0,-8.0,32.0,271.0,986.0
30.0,71.0,199.0,-16.0,15.0,-7.0,39.0,280.0,983.0
31.0,63.0,205.0,-17.0,14.0,-6.0,30.0,275.0,979.0
30.0,71.0,203.0,-15.0,12.0,-4.0,35.0,278.0,979.0
28.0,70.0,204.0,-14.0,12.0,-5.0,35.0,275.0,983.0
27.0,73.0,197.0,-15.0,10.0,-4.0,32.0,281.0,977.0
28.0,70.0,201.0,-14.0,8.0,-3.0,24.0,276.0,979.0
28.0,71.0,200.0,-15.0,7.0,-2.0,29.0,276.0,978.0
28.0,72.0,197.0,-16.0,5.0,-3.0,34.0,281.0,977.0
26.0,70.0,204.0,-18.0,4.0,-2.0,32.0,278.0,974.0
26.0,71.0,201.0,-18.0,6.0,-3.0,32.0,279.0,976.0
29.0,72.0,200.0,-20.0,7.0,-3.0,33.0,279.0,980.0
32.0,74.0,197.0,-22.0,8.0,-4.0,31.0,280.0,979.0
29.0,72.0,203.0,-23.0,10.0,-3.0,37.0,275.0,982.0
30.0,73.0,201.0,-23.0,10.0,-4.0,38.0,279.0,982.0
28.0,70.0,197.0,-23.0,10.0,-3.0,35.0,282.0,985.0
29.0,72.0,200.0,-23.0,9.0,-3.0,30.0,283.0,981.0
28.0,70.0,199.0,-24.0,9.0,-3.0,36.0,285.0,982.0
30.0,73.0,203.0,-22.0,8.0,-2.0,34.0,282.0,978.0
28.0,71.0,199.0,-21.0,4.0,-1.0,32.0,284.0,982.0
28.0,73.0,203.0,-19.0,4.0,-3.0,33.0,284.0,984.0
26.0,70.0,198.0,-19.0,3.0,-2.0,35.0,280.0,986.0
27.0,72.0,203.0,-22.0,2.0,-3.0,32.0,278.0,987.0
29.0,73.0,204.0,-24.0,4.0,-5.0,32.0,277.0,986.0
30.0,76.0,200.0,-28.0,5.0,-5.0,37.0,274.0,982.0
30.0,69.0,199.0,-30.0,8.0,-4.0,27.0,276.0,984.0
30.0,70.0,203.0,-31.0,10.0,-6.0,37.0,276.0,978.0
27.0,70.0,201.0,-30.0,11.0,-5.0,32.0,278.0,981.0
30.0,67.0,198.0,-29.0,13.0,-5.0,32.0,274.0,980.0
27.0,71.0,203.0,-27.0,14.0,-5.0,33.0,278.0,982.0
30.0,71.0,197.0,-24.0,14.0,-3.0,34.0,278.0,980.0
30.0,73.0,203.0,-23.0,13.0,-3.0,38.0,272.0,975.0
29.0,70.0,201.0,-22.0,12.0,-4.0,32.0,280.0,981.0
27.0,71.0,202.0,-21.0,11.0,-3.0,36.0,277.0,982.0
28.0,72.0,197.0,-20.0,9.0,-2.0,29.0,275.0,982.0
31.0,71.0,202.0,-18.0,8.0,-1.0,34.0,278.0,983.0
30.0,70.0,198.0,-15.0,6.0,-2.0,37.0,278.0,983.0
28.0,74.0,201.0,-14.0,6.0,-1.0,30.0,280.0,977.0
29.0,75.0,198.0,-11.0,4.0,-2.0,35.0,287.0,983.0
30.0,73.0,201.0,-11.0,3.0,-1.0,31.0,289.0,973.0
31.0,72.0,198.0,-12.0,4.0,-2.0,33.0,285.0,978.0
28.0,74.0,200.0,-12.0,2.0,-1.0,32.0,286.0,979.0
33.0,74.0,199.0,-13.0,4.0,-1.0,34.0,291.0,981.0
29.0,73.0,199.0,-14.0,5.0,-2.0,37.0,289.0,975.0
28.0,73.0,201.0,-15.0,7.0,-2.0,37.0,289.0,983.0
28.0,74.0,199.0,-16.0,9.0,-2.0,35.0,290.0,986.0
33.0,73.0,196.0,-18.0,11.0,-3.0,38.0,290.0,982.0
31.0,72.0,200.0,-19.0,13.0,-2.0,39.0,288.0,985.0
29.0,72.0,200.0,-20.0,12.0,-2.0,36.0,287.0,981.0
34.0,70.0,200.0,-22.0,13.0,-2.0,36.0,282.0,979.0
30.0,72.0,200.0,-23.0,13.0,-2.0,44.0,284.0,991.0
30.0,74.0,197.0,-23.0,13.0,-2.0,41.0,290.0,987.0
33.0,72.0,201.0,-24.0,13.0,-2.0,40.0,290.0,985.0
32.0,73.0,204.0,-26.0,13.0,-3.0,38.0,281.0,983.0
30.0,74.0,199.0,-27.0,12.0,-1.0,34.0,282.0,983.0
27.0,75.0,201.0,-27.0,13.0,-3.0,32.0,288.0,982.0
29.0,72.0,200.0,-28.0,14.0,-3.0,38.0,283.0,981.0
28.0,73.0,199.0,-27.0,14.0,-2.0,37.0,281.0,983.0
28.0,71.0,199.0,-27.0,14.0,-3.0,36.0,289.0,976.0
27.0,73.0,199.0,-27.0,14.0,-3.0,28.0,287.0,982.0
31.0,72.0,199.0,-28.0,15.0,-5.0,33.0,284.0,978.0
28.0,73.0,202.0,-28.0,15.0,-5.0,31.0,286.0,978.0
29.0,72.0,199.0,-29.0,14.0,-4.0,32.0,288.0,982.0
28.0,73.0,197.0,-29.0,13.0,-4.0,31.0,288.0,979.0
28.0,72.0,200.0,-28.0,13.0,-4.0,36.0,283.0,975.0
30.0,75.0,201.0,-30.0,14.0,-5.0,36.0,289.0,978.0
27.0,73.0,199.0,-31.0,14.0,-4.0,41.0,287.0,975.0
30.0,72.0,201.0,-32.0,15.0,-6.0,33.0,294.0,973.0
26.0,75.0,199.0,-33.0,14.0,-5.0,32.0,288.0,978.0
29.0,72.0,198.0,-35.0,13.0,-4.0,32.0,286.0,977.0
28.0,75.0,199.0,-36.0,11.0,-4.0,39.0,290.0,976.0
30.0,70.0,199.0,-39.0,10.0,-4.0,38.0,291.0,976.0
27.0,75.0,201.0,-41.0,10.0,-3.0,41.0,288.0,977.0
28.0,72.0,201.0,-39.0,9.0,-3.0,35.0,284.0,975.0
29.0,73.0,196.0,-40.0,8.0,-3.0,34.0,285.0,983.0
29.0,72.0,201.0,-40.0,5.0,-3.0,36.0,290.0,980.0
30.0,76.0,199.0,-40.0,4.0,-2.0,37.0,290.0,982.0
24.0,74.0,199.0,-40.0,5.0,-2.0,37.0,281.0,981.0
29.0,71.0,203.0,-40.0,5.0,-4.0,34.0,284.0,985.0
31.0,72.0,198.0,-40.0,5.0,-4.0,32.0,287.0,986.0
30.0,75.0,202.0,-39.0,5.0,-3.0,36.0,286.0,982.0
29.0,73.0,197.0,-38.0,7.0,-3.0,38.0,286.0,973.0
32.0,72.0,202.0,-38.0,7.0,-3.0,35.0,289.0,973.0
30.0,73.0,198.0,-36.0,8.0,-4.0,41.0,290.0,980.0
29.0,72.0,197.0,-37.0,7.0,-3.0,35.0,291.0,979.0
30.0,73.0,198.0,-36.0,8.0,-2.0,34.0,291.0,983.0
33.0,73.0,198.0,-36.0,9.0,-3.0,44.0,285.0,983.0
32.0,74.0,196.0,-36.0,9.0,-3.0,46.0,288.0,983.0
30.0,73.0,199.0,-37.0,9.0,-3.0,34.0,290.0,980.0
28.0,73.0,202.0,-37.0,7.0,-3.0,38.0,287.0,985.0
29.0,74.0,198.0,-40.0,5.0,-3.0,34.0,294.0,985.0
29.0,75.0,198.0,-39.0,2.0,-2.0,37.0,288.0,979.0
28.0,73.0,199.0,-40.0,1.0,-2.0,37.0,289.0,988.0
30.0,74.0,200.0,-41.0,0.0,-3.0,31.0,285.0,975.0
29.0,75.0,202.0,-40.0,2.0,-4.0,34.0,286.0,980.0
31.0,72.0,197.0,-41.0,3.0,-4.0,35.0,282.0,978.0
30.0,70.0,197.0,-39.0,5.0,-4.0,37.0,281.0,979.0
29.0,73.0,204.0,-37.0,8.0,-3.0,43.0,282.0,978.0
28.0,73.0,200.0,-34.0,10.0,-3.0,37.0,283.0,980.0
31.0,73.0,200.0,-35.0,10.0,-3.0,41.0,287.0,983.0
28.0,73.0,196.0,-35.0,9.0,-2.0,38.0,284.0,983.0
31.0,74.0,196.0,-33.0,9.0,-3.0,38.0,283.0,981.0
29.0,72.0,199.0,-32.0,10.0,-4.0,45.0,287.0,984.0
33.0,71.0,196.0,-29.0,10.0,-3.0,42.0,286.0,981.0
29.0,73.0,198.0,-29.0,12.0,-3.0,38.0,279.0,982.0
31.0,73.0,200.0,-27.0,16.0,-3.0,41.0,285.0,984.0
30.0,71.0,206.0,-27.0,16.0,-3.0,39.0,282.0,983.0
31.0,74.0,199.0,-26.0,17.0,-2.0,43.0,290.0,981.0
32.0,73.0,197.0,-21.0,15.0,-2.0,39.0,284.0,981.0
32.0,73.0,202.0,-18.0,16.0,-1.0,37.0,289.0,973.0
28.0,74.0,196.0,-15.0,15.0,-1.0,38.0,284.0,979.0
31.0,73.0,199.0,-13.0,15.0,-2.0,38.0,292.0,971.0
31.0,74.0,200.0,-9.0,16.0,-2.0,40.0,289.0,974.0
30.0,73.0,199.0,-9.0,16.0,-1.0,35.0,292.0,973.0
30.0,71.0,200.0,-9.0,18.0,-3.0,38.0,292.0,972.0
31.0,72.0,197.0,-7.0,19.0,-2.0,41.0,292.0,971.0
31.0,75.0,197.0,-7.0,21.0,-1.0,42.0,287.0,981.0
30.0,72.0,197.0,-6.0,22.0,-1.0,41.0,290.0,976.0
30.0,74.0,197.0,-6.0,22.0,-1.0,39.0,289.0,974.0
29.0,74.0,199.0,-6.0,22.0,1.0,42.0,291.0,978.0
30.0,74.0,198.0,-7.0,22.0,-1.0,38.0,295.0,973.0
31.0,73.0,202.0,-10.0,21.0,-2.0,40.0,293.0,983.0
30.0,77.0,198.0,-14.0,20.0,-3.0,43.0,291.0,987.0
33.0,75.0,200.0,-18.0,19.0,-4.0,41.0,293.0,985.0
33.0,72.0,199.0,-24.0,19.0,-6.0,42.0,294.0,985.0
30.0,75.0,199.0,-31.0,20.0,-6.0,35.0,296.0,989.0
30.0,73.0,198.0,-36.0,21.0,-6.0,33.0,289.0,984.0
30.0,74.0,200.0,-35.0,22.0,-7.0,33.0,282.0,990.0
26.0,72.0,202.0,-27.0,21.0,-4.0,13.0,285.0,985.0
28.0,71.0,198.0,-15.0,18.0,-2.0,41.0,284.0,966.0
39.0,74.0,198.0,-3.0,17.0,0.0,58.0,298.0,961.0
19.0,79.0,187.0,1.0,25.0,-3.0,-4.0,312.0,931.0
23.0,82.0,197.0,-1.0,27.0,-5.0,15.0,313.0,974.0
29.0,77.0,193.0,2.0,23.0,-8.0,45.0,314.0,945.0
39.0,78.0,196.0,2.0,18.0,-6.0,63.0,302.0,963.0
42.0,77.0,195.0,4.0,15.0,-5.0,76.0,294.0,945.0
34.0,76.0,193.0,-5.0,15.0,-4.0,55.0,284.0,958.0
34.0,74.0,194.0,-19.0,15.0,-4.0,47.0,280.0,960.0
32.0,72.0,200.0,-36.0,15.0,-5.0,42.0,284.0,968.0
28.0,73.0,197.0,-47.0,12.0,-3.0,36.0,279.0,983.0
26.0,77.0,199.0,-54.0,9.0,-4.0,30.0,299.0,996.0
27.0,78.0,204.0,-53.0,8.0,-3.0,28.0,306.0,998.0
31.0,77.0,205.0,-45.0,6.0,-3.0,35.0,306.0,1002.0
28.0,81.0,206.0,-35.0,4.0,-4.0,39.0,314.0,1006.0
34.0,76.0,206.0,-27.0,2.0,-6.0,39.0,303.0,1002.0
29.0,77.0,207.0,-21.0,0.0,-6.0,40.0,299.0,1000.0
27.0,75.0,206.0,-17.0,1.0,-6.0,38.0,298.0,999.0
31.0,74.0,206.0,-14.0,0.0,-4.0,29.0,300.0,995.0
29.0,78.0,203.0,-16.0,0.0,-1.0,38.0,299.0,993.0
29.0,76.0,201.0,-19.0,-1.0,0.0,37.0,304.0,983.0
32.0,78.0,199.0,-27.0,-1.0,-1.0,34.0,300.0,981.0
31.0,77.0,197.0,-35.0,-1.0,-3.0,28.0,295.0,992.0
29.0,74.0,198.0,-42.0,-2.0,-4.0,32.0,301.0,987.0
30.0,77.0,199.0,-46.0,0.0,-5.0,45.0,300.0,974.0
31.0,76.0,196.0,-50.0,3.0,-8.0,42.0,295.0,969.0
30.0,74.0,196.0,-52.0,7.0,-9.0,39.0,294.0,969.0
29.0,75.0,195.0,-53.0,9.0,-10.0,33.0,288.0,970.0
31.0,68.0,198.0,-51.0,10.0,-8.0,38.0,281.0,974.0
28.0,71.0,201.0,-48.0,9.0,-7.0,39.0,281.0,972.0
27.0,72.0,198.0,-41.0,8.0,-4.0,35.0,279.0,975.0
28.0,75.0,203.0,-36.0,6.0,-3.0,38.0,279.0,972.0
30.0,71.0,199.0,-30.0,5.0,0.0,37.0,282.0,977.0
31.0,73.0,200.0,-28.0,6.0,0.0,40.0,283.0,978.0
30.0,75.0,200.0,-23.0,5.0,0.0,38.0,286.0,983.0
30.0,75.0,201.0,-22.0,3.0,1.0,35.0,292.0,977.0
29.0,76.0,200.0,-23.0,6.0,0.0,38.0,292.0,978.0
28.0,76.0,199.0,-23.0,8.0,1.0,37.0,298.0,978.0
32.0,76.0,201.0,-27.0,7.0,1.0,38.0,303.0,977.0
30.0,80.0,200.0,-31.0,7.0,2.0,30.0,299.0,970.0
27.0,78.0,198.0,-34.0,6.0,0.0,38.0,307.0,972.0
29.0,78.0,200.0,-37.0,8.0,0.0,49.0,305.0,980.0
27.0,78.0,200.0,-43.0,5.0,-1.0,41.0,304.0,977.0
29.0,77.0,197.0,-46.0,4.0,-1.0,40.0,308.0,975.0
30.0,80.0,200.0,-51.0,4.0,-2.0,40.0,305.0,981.0
28.0,79.0,199.0,-54.0,5.0,-2.0,39.0,307.0,982.0
34.0,76.0,197.0,-57.0,6.0,-3.0,41.0,309.0,980.0
31.0,79.0,201.0,-59.0,9.0,-5.0,42.0,306.0,981.0
29.0,77.0,198.0,-62.0,10.0,-6.0,43.0,303.0,986.0
32.0,77.0,202.0,-66.0,12.0,-9.0,45.0,298.0,983.0
30.0,76.0,199.0,-69.0,17.0,-10.0,46.0,298.0,979.0
34.0,75.0,202.0,-72.0,20.0,-10.0,45.0,295.0,979.0
31.0,74.0,199.0,-77.0,22.0,-11.0,43.0,296.0,983.0
30.0,77.0,199.0,-80.0,24.0,-11.0,40.0,295.0,978.0
30.0,77.0,198.0,-82.0,24.0,-12.0,47.0,299.0,980.0
30.0,75.0,199.0,-86.0,22.0,-10.0,46.0,293.0,983.0
32.0,76.0,195.0,-88.0,22.0,-8.0,46.0,297.0,981.0
31.0,77.0,200.0,-90.0,19.0,-9.0,46.0,299.0,982.0
30.0,76.0,197.0,-89.0,16.0,-9.0,45.0,303.0,980.0
31.0,77.0,197.0,-89.0,14.0,-6.0,36.0,294.0,976.0
30.0,75.0,198.0,-90.0,13.0,-4.0,37.0,298.0,975.0
31.0,81.0,202.0,-90.0,14.0,-4.0,45.0,297.0,977.0
30.0,73.0,199.0,-91.0,14.0,-2.0,42.0,296.0,976.0
31.0,71.0,199.0,-90.0,16.0,-2.0,40.0,292.0,979.0
29.0,75.0,202.0,-87.0,16.0,-2.0,40.0,291.0,977.0
30.0,76.0,203.0,-86.0,17.0,-3.0,42.0,290.0,977.0
31.0,78.0,196.0,-83.0,17.0,-4.0,45.0,292.0,975.0
30.0,77.0,200.0,-83.0,18.0,-2.0,44.0,292.0,978.0
31.0,75.0,200.0,-84.0,20.0,-3.0,42.0,290.0,980.0
30.0,75.0,200.0,-85.0,21.0,-6.0,42.0,294.0,981.0
32.0,73.0,204.0,-85.0,22.0,-8.0,41.0,294.0,978.0
29.0,76.0,201.0,-83.0,23.0,-7.0,34.0,293.0,982.0
29.0,73.0,202.0,-84.0,24.0,-6.0,36.0,293.0,983.0
33.0,73.0,199.0,-83.0,25.0,-9.0,39.0,284.0,981.0
28.0,74.0,200.0,-82.0,25.0,-9.0,36.0,291.0,986.0
29.0,72.0,202.0,-81.0,24.0,-6.0,42.0,291.0,983.0
29.0,74.0,202.0,-79.0,23.0,-6.0,38.0,287.0,983.0
33.0,72.0,200.0,-77.0,22.0,-6.0,40.0,291.0,982.0
31.0,71.0,200.0,-77.0,22.0,-9.0,40.0,283.0,983.0
28.0,74.0,198.0,-78.0,22.0,-8.0,34.0,288.0,982.0
29.0,71.0,201.0,-78.0,20.0,-7.0,36.0,285.0,981.0
30.0,73.0,199.0,-81.0,18.0,-6.0,36.0,284.0,983.0
31.0,73.0,202.0,-81.0,17.0,-6.0,35.0,291.0,982.0
30.0,72.0,201.0,-80.0,18.0,-8.0,41.0,288.0,982.0
29.0,74.0,199.0,-78.0,19.0,-6.0,37.0,288.0,976.0
30.0,73.0,199.0,-79.0,18.0,-5.0,33.0,290.0,979.0
29.0,73.0,203.0,-79.0,18.0,-4.0,42.0,290.0,973.0
29.0,74.0,201.0,-77.0,17.0,-3.0,38.0,291.0,978.0
28.0,76.0,197.0,-79.0,18.0,-4.0,38.0,287.0,977.0
29.0,73.0,201.0,-78.0,17.0,-5.0,38.0,290.0,980.0
27.0,73.0,197.0,-77.0,17.0,-5.0,35.0,282.0,978.0
30.0,74.0,197.0,-77.0,18.0,-5.0,34.0,289.0,979.0
28.0,74.0,201.0,-77.0,18.0,-5.0,32.0,283.0,980.0
28.0,72.0,199.0,-77.0,18.0,-5.0,33.0,281.0,981.0
30.0,71.0,200.0,-76.0,18.0,-5.0,36.0,281.0,984.0
28.0,69.0,204.0,-78.0,18.0,-5.0,35.0,283.0,981.0
30.0,69.0,197.0,-80.0,18.0,-5.0,38.0,282.0,981.0
29.0,72.0,201.0,-79.0,17.0,-5.0,39.0,283.0,981.0
31.0,74.0,202.0,-80.0,16.0,-5.0,43.0,288.0,980.0
29.0,74.0,201.0,-82.0,17.0,-5.0,39.0,279.0,981.0
32.0,71.0,197.0,-82.0,17.0,-5.0,41.0,291.0,983.0
34.0,73.0,200.0,-83.0,17.0,-5.0,40.0,279.0,983.0
32.0,73.0,199.0,-84.0,17.0,-4.0,39.0,282.0,979.0
29.0,72.0,199.0,-83.0,16.0,-4.0,40.0,289.0,983.0
29.0,73.0,198.0,-83.0,16.0,-4.0,42.0,282.0,983.0
30.0,73.0,198.0,-83.0,18.0,-4.0,40.0,285.0,980.0
29.0,76.0,200.0,-83.0,19.0,-5.0,40.0,282.0,978.0
29.0,70.0,201.0,-81.0,20.0,-5.0,49.0,283.0,978.0
33.0,71.0,200.0,-82.0,20.0,-5.0,43.0,284.0,982.0
31.0,72.0,199.0,-83.0,21.0,-4.0,38.0,285.0,976.0
32.0,71.0,201.0,-85.0,22.0,-5.0,39.0,284.0,980.0
31.0,73.0,200.0,-85.0,22.0,-6.0,43.0,282.0,979.0
33.0,70.0,201.0,-87.0,21.0,-6.0,40.0,286.0,979.0
31.0,72.0,199.0,-88.0,20.0,-5.0,39.0,283.0,978.0
32.0,71.0,199.0,-87.0,20.0,-5.0,40.0,283.0,974.0
29.0,73.0,200.0,-89.0,20.0,-5.0,46.0,283.0,977.0
31.0,73.0,199.0,-92.0,20.0,-5.0,43.0,282.0,975.0
29.0,73.0,197.0,-95.0,21.0,-6.0,42.0,276.0,979.0
30.0,71.0,201.0,-96.0,22.0,-4.0,43.0,274.0,985.0
31.0,70.0,197.0,-99.0,23.0,-4.0,48.0,280.0,980.0
32.0,74.0,202.0,-99.0,23.0,-5.0,38.0,282.0,984.0
32.0,72.0,200.0,-98.0,25.0,-5.0,40.0,279.0,983.0
32.0,70.0,199.0,-97.0,25.0,-6.0,34.0,276.0,984.0
30.0,67.0,200.0,-95.0,26.0,-8.0,46.0,282.0,984.0
28.0,71.0,198.0,-94.0,27.0,-8.0,34.0,282.0,986.0
31.0,71.0,205.0,-93.0,27.0,-6.0,34.0,279.0,980.0
26.0,70.0,199.0,-91.0,28.0,-8.0,35.0,279.0,984.0
29.0,71.0,196.0,-91.0,27.0,-7.0,38.0,278.0,984.0
32.0,68.0,199.0,-89.0,29.0,-9.0,37.0,278.0,984.0
31.0,71.0,202.0,-89.0,31.0,-9.0,36.0,279.0,981.0
30.0,70.0,199.0,-91.0,31.0,-9.0,35.0,278.0,983.0
29.0,71.0,197.0,-91.0,32.0,-10.0,43.0,278.0,981.0
30.0,71.0,199.0,-91.0,33.0,-10.0,39.0,276.0,978.0
32.0,71.0,203.0,-92.0,33.0,-10.0,43.0,280.0,981.0
29.0,70.0,198.0,-92.0,32.0,-9.0,41.0,275.0,979.0
29.0,70.0,200.0,-94.0,33.0,-9.0,43.0,275.0,981.0
32.0,68.0,206.0,-96.0,32.0,-9.0,40.0,271.0,983.0
32.0,68.0,201.0,-97.0,33.0,-8.0,41.0,277.0,984.0
29.0,69.0,197.0,-97.0,30.0,-9.0,37.0,274.0,982.0
29.0,72.0,202.0,-98.0,29.0,-7.0,36.0,275.0,982.0
27.0,69.0,198.0,-96.0,27.0,-5.0,36.0,270.0,984.0
30.0,67.0,204.0,-97.0,24.0,-2.0,37.0,268.0,992.0
29.0,67.0,199.0,-96.0,22.0,-2.0,33.0,270.0,980.0
29.0,67.0,202.0,-94.0,19.0,-2.0,34.0,266.0,981.0
31.0,67.0,200.0,-93.0,21.0,-1.0,36.0,270.0,977.0
32.0,68.0,198.0,-93.0,22.0,-1.0,37.0,277.0,976.0
30.0,68.0,199.0,-87.0,23.0,-1.0,34.0,276.0,979.0
29.0,71.0,203.0,-84.0,23.0,-2.0,32.0,272.0,974.0
29.0,71.0,199.0,-80.0,25.0,-2.0,41.0,274.0,979.0
28.0,70.0,197.0,-78.0,25.0,-3.0,40.0,278.0,981.0
27.0,72.0,198.0,-76.0,26.0,-5.0,36.0,273.0,979.0
31.0,68.0,200.0,-74.0,25.0,-6.0,37.0,271.0,981.0
29.0,69.0,201.0,-72.0,27.0,-6.0,35.0,271.0,986.0
31.0,67.0,200.0,-71.0,27.0,-7.0,40.0,270.0,983.0
31.0,66.0,200.0,-69.0,28.0,-6.0,36.0,265.0,990.0
29.0,67.0,202.0,-70.0,27.0,-6.0,35.0,265.0,987.0
31.0,68.0,204.0,-71.0,26.0,-6.0,31.0,258.0,988.0
29.0,67.0,200.0,-72.0,25.0,-7.0,34.0,259.0,989.0
29.0,66.0,203.0,-73.0,25.0,-6.0,35.0,264.0,988.0
30.0,67.0,204.0,-77.0,24.0,-6.0,31.0,265.0,991.0
29.0,67.0,201.0,-80.0,24.0,-5.0,32.0,265.0,995.0
28.0,69.0,200.0,-82.0,23.0,-5.0,34.0,261.0,995.0
27.0,69.0,204.0,-84.0,22.0,-4.0,33.0,259.0,993.0
30.0,65.0,206.0,-83.0,24.0,-3.0,33.0,260.0,992.0
28.0,65.0,202.0,-77.0,27.0,-4.0,32.0,255.0,993.0
29.0,65.0,201.0,-62.0,28.0,0.0,33.0,254.0,985.0
27.0,67.0,202.0,-45.0,26.0,1.0,28.0,260.0,973.0
30.0,69.0,197.0,-35.0,26.0,1.0,31.0,269.0,967.0
28.0,68.0,198.0,-32.0,29.0,2.0,35.0,273.0,962.0
28.0,70.0,198.0,-32.0,30.0,1.0,31.0,268.0,968.0
31.0,70.0,196.0,-36.0,27.0,2.0,30.0,274.0,966.0
27.0,72.0,197.0,-40.0,23.0,1.0,34.0,271.0,971.0
29.0,70.0,200.0,-45.0,21.0,1.0,40.0,278.0,979.0
29.0,71.0,203.0,-50.0,20.0,0.0,36.0,279.0,981.0
32.0,71.0,201.0,-54.0,21.0,0.0,35.0,279.0,981.0
30.0,73.0,199.0,-59.0,20.0,-2.0,37.0,285.0,977.0
31.0,72.0,204.0,-61.0,21.0,-2.0,37.0,280.0,995.0
29.0,70.0,200.0,-64.0,20.0,-2.0,34.0,279.0,988.0
30.0,72.0,201.0,-69.0,20.0,-1.0,34.0,280.0,990.0
29.0,70.0,203.0,-73.0,20.0,-2.0,37.0,281.0,995.0
28.0,72.0,204.0,-78.0,20.0,-2.0,33.0,280.0,995.0
28.0,69.0,206.0,-83.0,19.0,-5.0,36.0,273.0,994.0
28.0,67.0,204.0,-87.0,19.0,-4.0,35.0,270.0,996.0
30.0,70.0,200.0,-91.0,18.0,-4.0,38.0,272.0,991.0
29.0,64.0,206.0,-92.0,18.0,-4.0,42.0,269.0,996.0
31.0,68.0,207.0,-94.0,18.0,-7.0,33.0,256.0,1005.0
25.0,66.0,205.0,-93.0,15.0,-9.0,24.0,263.0,983.0
28.0,68.0,202.0,-93.0,13.0,-6.0,32.0,263.0,994.0
29.0,66.0,201.0,-92.0,15.0,-5.0,36.0,261.0,982.0
28.0,68.0,199.0,-94.0,19.0,-4.0,36.0,267.0,979.0
32.0,67.0,197.0,-95.0,26.0,-5.0,47.0,264.0,978.0
29.0,67.0,200.0,-95.0,28.0,-5.0,47.0,265.0,983.0
32.0,67.0,200.0,-95.0,32.0,-7.0,38.0,262.0,979.0
28.0,67.0,202.0,-94.0,32.0,-8.0,37.0,267.0,991.0
29.0,65.0,198.0,-96.0,29.0,-7.0,38.0,260.0,988.0
29.0,67.0,201.0,-97.0,26.0,-5.0,38.0,257.0,985.0
28.0,69.0,203.0,-97.0,23.0,-4.0,34.0,258.0,986.0
30.0,67.0,200.0,-99.0,21.0,-4.0,42.0,258.0,981.0
31.0,65.0,201.0,-99.0,18.0,-5.0,37.0,257.0,982.0
25.0,68.0,202.0,-99.0,19.0,-4.0,36.0,262.0,983.0
28.0,66.0,195.0,-100.0,19.0,-4.0,35.0,257.0,983.0
27.0,66.0,201.0,-100.0,21.0,-4.0,30.0,256.0,983.0
28.0,66.0,199.0,-99.0,23.0,-4.0,29.0,259.0,982.0
27.0,67.0,199.0,-97.0,24.0,-4.0,26.0,259.0,981.0
29.0,65.0,200.0,-95.0,24.0,-5.0,37.0,259.0,992.0
30.0,65.0,200.0,-91.0,23.0,-5.0,37.0,258.0,986.0
27.0,66.0,198.0,-89.0,24.0,-5.0,31.0,258.0,982.0
29.0,64.0,202.0,-87.0,22.0,-6.0,33.0,259.0,983.0
28.0,67.0,198.0,-83.0,21.0,-6.0,38.0,255.0,986.0
29.0,68.0,201.0,-81.0,22.0,-6.0,35.0,258.0,983.0
28.0,67.0,203.0,-78.0,23.0,-7.0,42.0,256.0,983.0
29.0,67.0,200.0,-78.0,24.0,-6.0,38.0,257.0,984.0
27.0,67.0,199.0,-76.0,24.0,-7.0,33.0,255.0,989.0
31.0,67.0,205.0,-79.0,23.0,-7.0,36.0,255.0,990.0
26.0,66.0,203.0,-83.0,23.0,-7.0,35.0,255.0,996.0
28.0,67.0,205.0,-84.0,20.0,-8.0,35.0,256.0,997.0
31.0,64.0,204.0,-85.0,17.0,-7.0,35.0,254.0,989.0
27.0,66.0,203.0,-88.0,17.0,-6.0,36.0,254.0,996.0
30.0,64.0,200.0,-91.0,16.0,-6.0,33.0,254.0,991.0
27.0,64.0,200.0,-93.0,18.0,-6.0,35.0,253.0,991.0
30.0,64.0,202.0,-94.0,19.0,-5.0,32.0,257.0,989.0
27.0,65.0,204.0,-98.0,19.0,-5.0,31.0,252.0,986.0
30.0,65.0,203.0,-99.0,19.0,-5.0,28.0,255.0,988.0
28.0,67.0,201.0,-99.0,18.0,-4.0,29.0,257.0,986.0
28.0,64.0,200.0,-98.0,17.0,-3.0,24.0,255.0,989.0
26.0,66.0,199.0,-97.0,14.0,-2.0,27.0,258.0,986.0
28.0,66.0,204.0,-95.0,15.0,-2.0,31.0,256.0,991.0
25.0,65.0,188.0,-94.0,16.0,-2.0,31.0,258.0,980.0
30.0,67.0,205.0,-93.0,17.0,-2.0,32.0,260.0,983.0
29.0,64.0,197.0,-92.0,20.0,-2.0,34.0,258.0,984.0
28.0,65.0,206.0,-91.0,21.0,-4.0,32.0,256.0,989.0
27.0,67.0,201.0,-91.0,23.0,-4.0,34.0,256.0,986.0
27.0,65.0,201.0,-88.0,25.0,-5.0,31.0,254.0,990.0
29.0,65.0,201.0,-88.0,26.0,-5.0,34.0,257.0,989.0
28.0,65.0,203.0,-87.0,27.0,-5.0,36.0,255.0,994.0
29.0,68.0,201.0,-84.0,29.0,-5.0,32.0,252.0,989.0
27.0,64.0,205.0,-86.0,29.0,-5.0,34.0,253.0,994.0
29.0,64.0,204.0,-86.0,29.0,-5.0,35.0,252.0,989.0
29.0,65.0,202.0,-87.0,29.0,-5.0,34.0,252.0,995.0
28.0,66.0,201.0,-87.0,29.0,-4.0,37.0,251.0,999.0
32.0,64.0,205.0,-86.0,28.0,-1.0,35.0,254.0,994.0
30.0,63.0,205.0,-86.0,25.0,-3.0,33.0,253.0,996.0
27.0,63.0,205.0,-87.0,21.0,-1.0,34.0,251.0,1000.0
27.0,65.0,202.0,-89.0,19.0,-2.0,31.0,247.0,995.0
28.0,62.0,202.0,-89.0,18.0,-2.0,33.0,251.0,990.0
30.0,65.0,202.0,-89.0,18.0,-2.0,30.0,254.0,984.0
28.0,66.0,205.0,-91.0,17.0,-2.0,37.0,251.0,991.0
27.0,63.0,201.0,-91.0,17.0,-2.0,32.0,253.0,985.0
34.0,63.0,204.0,-91.0,17.0,-4.0,32.0,249.0,993.0
25.0,66.0,203.0,-91.0,19.0,-4.0,34.0,247.0,983.0
29.0,64.0,201.0,-91.0,20.0,-5.0,34.0,250.0,984.0
27.0,63.0,200.0,-90.0,23.0,-5.0,33.0,245.0,982.0
31.0,63.0,200.0,-91.0,24.0,-6.0,27.0,246.0,983.0
30.0,63.0,202.0,-89.0,25.0,-6.0,32.0,242.0,983.0
31.0,63.0,206.0,-87.0,24.0,-7.0,28.0,245.0,990.0
29.0,63.0,199.0,-86.0,26.0,-7.0,29.0,245.0,992.0
32.0,64.0,199.0,-84.0,25.0,-7.0,36.0,246.0,996.0
28.0,64.0,204.0,-85.0,25.0,-6.0,36.0,246.0,993.0
30.0,65.0,202.0,-85.0,26.0,-7.0,35.0,246.0,989.0
29.0,64.0,201.0,-83.0,25.0,-7.0,31.0,247.0,991.0
27.0,64.0,205.0,-84.0,21.0,-5.0,33.0,248.0,996.0
31.0,63.0,204.0,-84.0,21.0,-6.0,33.0,248.0,994.0
29.0,66.0,199.0,-83.0,18.0,-5.0,31.0,243.0,992.0
28.0,62.0,203.0,-82.0,18.0,-5.0,36.0,247.0,985.0
31.0,62.0,201.0,-82.0,18.0,-6.0,30.0,247.0,987.0
30.0,60.0,199.0,-80.0,16.0,-3.0,30.0,245.0,983.0
27.0,63.0,199.0,-79.0,17.0,-5.0,28.0,240.0,985.0
28.0,64.0,201.0,-77.0,17.0,-5.0,28.0,244.0,990.0
26.0,64.0,200.0,-72.0,18.0,-6.0,27.0,247.0,989.0
25.0,64.0,200.0,-70.0,18.0,-5.0,26.0,246.0,982.0
26.0,64.0,199.0,-67.0,20.0,-4.0,31.0,241.0,984.0
28.0,64.0,198.0,-64.0,22.0,-7.0,30.0,247.0,985.0
28.0,61.0,201.0,-61.0,23.0,-6.0,31.0,245.0,982.0
26.0,62.0,202.0,-58.0,25.0,-7.0,34.0,245.0,982.0
31.0,59.0,204.0,-54.0,26.0,-7.0,31.0,237.0,983.0
28.0,60.0,200.0,-48.0,24.0,-7.0,36.0,232.0,981.0
30.0,61.0,202.0,-42.0,24.0,-7.0,34.0,235.0,984.0
26.0,61.0,200.0,-34.0,21.0,-6.0,40.0,236.0,982.0
27.0,60.0,199.0,-29.0,18.0,-3.0,32.0,230.0,979.0
24.0,62.0,200.0,-21.0,16.0,-2.0,35.0,234.0,979.0
30.0,63.0,198.0,-17.0,14.0,-2.0,32.0,236.0,976.0
29.0,61.0,198.0,-15.0,11.0,-2.0,31.0,238.0,978.0
26.0,63.0,203.0,-13.0,11.0,-2.0,33.0,242.0,981.0
29.0,63.0,201.0,-13.0,9.0,-2.0,33.0,245.0,983.0
29.0,63.0,198.0,-13.0,6.0,-2.0,34.0,246.0,985.0
28.0,63.0,204.0,-11.0,5.0,-1.0,32.0,240.0,980.0
28.0,63.0,201.0,-10.0,6.0,-1.0,32.0,240.0,983.0
29.0,62.0,199.0,-7.0,5.0,-1.0,34.0,241.0,980.0
27.0,64.0,199.0,-5.0,8.0,-3.0,39.0,248.0,983.0
29.0,64.0,201.0,-4.0,8.0,-3.0,34.0,249.0,981.0
29.0,63.0,203.0,-2.0,9.0,-6.0,25.0,253.0,984.0
30.0,63.0,202.0,-3.0,11.0,-6.0,35.0,249.0,986.0
29.0,63.0,207.0,-2.0,11.0,-7.0,31.0,250.0,991.0
28.0,65.0,202.0,-4.0,13.0,-6.0,31.0,252.0,994.0
29.0,64.0,203.0,-7.0,14.0,-5.0,29.0,252.0,989.0
30.0,67.0,203.0,-5.0,16.0,-6.0,35.0,252.0,994.0
30.0,64.0,203.0,-5.0,17.0,-7.0,37.0,253.0,997.0
29.0,65.0,202.0,-4.0,18.0,-9.0,29.0,251.0,988.0
30.0,64.0,201.0,-4.0,18.0,-7.0,33.0,245.0,998.0
26.0,64.0,206.0,-3.0,18.0,-7.0,34.0,246.0,997.0
30.0,64.0,206.0,-5.0,15.0,-7.0,31.0,247.0,996.0
27.0,62.0,205.0,-6.0,12.0,-5.0,32.0,250.0,996.0
28.0,63.0,205.0,-7.0,11.0,-5.0,32.0,246.0,999.0
30.0,64.0,206.0,-9.0,12.0,-5.0,38.0,244.0,999.0
30.0,65.0,205.0,-9.0,12.0,-5.0,30.0,245.0,995.0
28.0,64.0,203.0,-9.0,13.0,-3.0,26.0,245.0,1002.0
29.0,61.0,203.0,-7.0,13.0,-2.0,30.0,243.0,990.0
27.0,62.0,202.0,2.0,15.0,-2.0,30.0,236.0,995.0
31.0,60.0,203.0,13.0,15.0,-2.0,32.0,246.0,982.0
29.0,63.0,199.0,24.0,18.0,0.0,35.0,248.0,976.0
27.0,63.0,202.0,30.0,20.0,-1.0,32.0,253.0,974.0
28.0,65.0,197.0,31.0,21.0,-1.0,33.0,254.0,975.0
29.0,64.0,202.0,27.0,21.0,0.0,30.0,255.0,977.0
