acc1_x,acc1_y,acc1_z,gyro_x,gyro_y,gyro_z,acc2_x,acc2_y,acc2_z
26.0,-251.0,-64.0,-20.0,171.0,10.0,115.0,-962.0,-295.0
23.0,-253.0,-70.0,-19.0,170.0,11.0,113.0,-961.0,-297.0
24.0,-252.0,-62.0,-18.0,169.0,11.0,120.0,-965.0,-293.0
22.0,-248.0,-65.0,-17.0,166.0,12.0,122.0,-960.0,-289.0
23.0,-249.0,-63.0,-15.0,164.0,12.0,125.0,-954.0,-292.0
17.0,-250.0,-53.0,-14.0,162.0,12.0,119.0,-952.0,-286.0
23.0,-250.0,-64.0,-10.0,162.0,13.0,118.0,-954.0,-281.0
21.0,-249.0,-64.0,-6.0,157.0,15.0,114.0,-948.0,-282.0
22.0,-248.0,-60.0,0.0,151.0,15.0,117.0,-943.0,-283.0
21.0,-247.0,-62.0,2.0,147.0,17.0,115.0,-946.0,-288.0
21.0,-248.0,-60.0,1.0,140.0,15.0,113.0,-944.0,-286.0
21.0,-248.0,-60.0,-2.0,135.0,15.0,115.0,-942.0,-281.0
17.0,-245.0,-60.0,-9.0,128.0,15.0,114.0,-948.0,-289.0
21.0,-247.0,-66.0,-15.0,121.0,14.0,112.0,-946.0,-295.0
19.0,-249.0,-63.0,-21.0,116.0,12.0,119.0,-953.0,-291.0
21.0,-249.0,-64.0,-25.0,113.0,14.0,121.0,-957.0,-288.0
23.0,-253.0,-61.0,-25.0,111.0,12.0,113.0,-960.0,-286.0
21.0,-250.0,-60.0,-22.0,110.0,11.0,120.0,-959.0,-286.0
24.0,-252.0,-64.0,-18.0,108.0,10.0,118.0,-960.0,-291.0
25.0,-252.0,-64.0,-14.0,107.0,10.0,120.0,-962.0,-290.0
22.0,-250.0,-64.0,-8.0,107.0,9.0,129.0,-961.0,-284.0
26.0,-252.0,-63.0,-4.0,109.0,7.0,127.0,-962.0,-291.0
26.0,-252.0,-65.0,2.0,107.0,6.0,122.0,-965.0,-288.0
22.0,-251.0,-65.0,6.0,107.0,5.0,128.0,-956.0,-296.0
23.0,-249.0,-63.0,9.0,106.0,3.0,127.0,-956.0,-296.0
23.0,-249.0,-62.0,13.0,105.0,3.0,127.0,-955.0,-290.0
23.0,-253.0,-70.0,16.0,102.0,2.0,129.0,-950.0,-294.0
24.0,-249.0,-67.0,14.0,100.0,0.0,130.0,-947.0,-301.0
23.0,-249.0,-65.0,12.0,97.0,-2.0,126.0,-957.0,-305.0
24.0,-248.0,-66.0,9.0,93.0,-2.0,123.0,-951.0,-294.0
24.0,-250.0,-65.0,3.0,90.0,-3.0,117.0,-954.0,-298.0
21.0,-249.0,-69.0,1.0,89.0,-4.0,123.0,-957.0,-291.0
21.0,-249.0,-60.0,2.0,85.0,-6.0,127.0,-959.0,-283.0
22.0,-251.0,-64.0,4.0,82.0,-6.0,114.0,-965.0,-284.0
20.0,-251.0,-61.0,8.0,77.0,-6.0,117.0,-962.0,-290.0
20.0,-250.0,-63.0,16.0,71.0,-4.0,120.0,-963.0,-294.0
20.0,-251.0,-63.0,22.0,66.0,-5.0,115.0,-962.0,-290.0
20.0,-251.0,-65.0,26.0,62.0,-3.0,114.0,-959.0,-293.0
19.0,-250.0,-66.0,30.0,55.0,-6.0,114.0,-956.0,-299.0
22.0,-248.0,-62.0,30.0,50.0,-6.0,111.0,-955.0,-290.0
21.0,-247.0,-63.0,25.0,44.0,-7.0,112.0,-953.0,-290.0
21.0,-246.0,-63.0,23.0,38.0,-9.0,116.0,-952.0,-286.0
23.0,-246.0,-59.0,18.0,34.0,-9.0,119.0,-951.0,-278.0
24.0,-249.0,-63.0,15.0,31.0,-8.0,122.0,-952.0,-294.0
21.0,-248.0,-66.0,10.0,30.0,-10.0,118.0,-956.0,-292.0
20.0,-247.0,-66.0,9.0,29.0,-9.0,123.0,-951.0,-295.0
23.0,-248.0,-63.0,10.0,28.0,-9.0,123.0,-952.0,-294.0
23.0,-248.0,-61.0,13.0,29.0,-10.0,125.0,-952.0,-293.0
21.0,-245.0,-57.0,15.0,27.0,-11.0,120.0,-952.0,-292.0
23.0,-249.0,-64.0,18.0,27.0,-12.0,122.0,-952.0,-295.0
21.0,-248.0,-65.0,19.0,27.0,-14.0,121.0,-955.0,-293.0
20.0,-248.0,-64.0,20.0,23.0,-16.0,119.0,-955.0,-290.0
19.0,-249.0,-64.0,19.0,20.0,-16.0,122.0,-951.0,-301.0
23.0,-248.0,-67.0,15.0,18.0,-17.0,123.0,-947.0,-294.0
22.0,-247.0,-65.0,12.0,15.0,-18.0,125.0,-954.0,-309.0
21.0,-248.0,-64.0,11.0,12.0,-14.0,128.0,-952.0,-302.0
23.0,-250.0,-66.0,9.0,10.0,-14.0,130.0,-950.0,-303.0
25.0,-250.0,-62.0,7.0,7.0,-13.0,130.0,-953.0,-300.0
23.0,-248.0,-66.0,6.0,6.0,-13.0,125.0,-953.0,-301.0
23.0,-248.0,-60.0,7.0,5.0,-14.0,130.0,-947.0,-294.0
26.0,-249.0,-68.0,7.0,4.0,-12.0,133.0,-950.0,-290.0
25.0,-248.0,-62.0,5.0,4.0,-13.0,125.0,-946.0,-298.0
24.0,-247.0,-63.0,4.0,3.0,-14.0,130.0,-947.0,-295.0
21.0,-248.0,-64.0,0.0,5.0,-16.0,133.0,-951.0,-291.0
23.0,-247.0,-68.0,-4.0,6.0,-16.0,130.0,-949.0,-296.0
24.0,-246.0,-65.0,-8.0,9.0,-18.0,129.0,-951.0,-295.0
23.0,-247.0,-67.0,-10.0,13.0,-18.0,132.0,-946.0,-297.0
26.0,-247.0,-67.0,-13.0,16.0,-18.0,136.0,-950.0,-297.0
27.0,-248.0,-67.0,-16.0,18.0,-17.0,131.0,-954.0,-300.0
26.0,-248.0,-68.0,-18.0,20.0,-19.0,132.0,-947.0,-299.0
29.0,-247.0,-62.0,-18.0,23.0,-17.0,130.0,-952.0,-300.0
26.0,-248.0,-66.0,-19.0,23.0,-16.0,128.0,-953.0,-301.0
26.0,-250.0,-64.0,-20.0,21.0,-16.0,130.0,-954.0,-296.0
26.0,-252.0,-71.0,-20.0,20.0,-15.0,130.0,-956.0,-299.0
25.0,-249.0,-67.0,-18.0,16.0,-14.0,126.0,-943.0,-295.0
26.0,-249.0,-67.0,-19.0,14.0,-13.0,123.0,-951.0,-302.0
26.0,-250.0,-65.0,-22.0,11.0,-14.0,129.0,-950.0,-302.0
26.0,-248.0,-68.0,-24.0,10.0,-12.0,132.0,-950.0,-305.0
24.0,-248.0,-67.0,-25.0,8.0,-10.0,130.0,-953.0,-305.0
26.0,-248.0,-66.0,-26.0,8.0,-10.0,120.0,-951.0,-303.0
24.0,-248.0,-67.0,-29.0,8.0,-9.0,133.0,-959.0,-303.0
26.0,-250.0,-67.0,-29.0,9.0,-8.0,138.0,-956.0,-306.0
25.0,-250.0,-66.0,-31.0,10.0,-8.0,132.0,-958.0,-306.0
25.0,-249.0,-64.0,-30.0,11.0,-7.0,132.0,-952.0,-304.0
27.0,-248.0,-67.0,-30.0,16.0,-6.0,134.0,-956.0,-309.0
26.0,-250.0,-71.0,-29.0,17.0,-7.0,137.0,-956.0,-313.0
25.0,-250.0,-69.0,-26.0,19.0,-7.0,136.0,-959.0,-314.0
24.0,-246.0,-70.0,-23.0,21.0,-6.0,133.0,-956.0,-311.0
25.0,-249.0,-67.0,-20.0,25.0,-7.0,131.0,-952.0,-308.0
25.0,-252.0,-64.0,-18.0,26.0,-7.0,130.0,-950.0,-311.0
25.0,-248.0,-72.0,-15.0,28.0,-8.0,132.0,-951.0,-309.0
24.0,-247.0,-67.0,-13.0,31.0,-7.0,130.0,-953.0,-307.0
17.0,-241.0,-65.0,-10.0,30.0,-9.0,130.0,-953.0,-308.0
23.0,-249.0,-66.0,-6.0,31.0,-8.0,129.0,-947.0,-304.0
23.0,-247.0,-66.0,-4.0,33.0,-7.0,130.0,-951.0,-307.0
26.0,-249.0,-69.0,-1.0,32.0,-7.0,127.0,-949.0,-310.0
22.0,-248.0,-70.0,0.0,31.0,-7.0,122.0,-943.0,-311.0
20.0,-247.0,-72.0,-2.0,26.0,-7.0,125.0,-943.0,-323.0
24.0,-246.0,-71.0,-6.0,23.0,-6.0,118.0,-949.0,-320.0
23.0,-247.0,-72.0,-12.0,21.0,-6.0,128.0,-944.0,-328.0
24.0,-248.0,-74.0,-18.0,20.0,-7.0,125.0,-942.0,-323.0
24.0,-248.0,-72.0,-23.0,19.0,-6.0,131.0,-941.0,-323.0
25.0,-247.0,-72.0,-27.0,19.0,-7.0,130.0,-945.0,-326.0
22.0,-246.0,-72.0,-30.0,18.0,-7.0,130.0,-946.0,-323.0
27.0,-248.0,-71.0,-31.0,20.0,-6.0,133.0,-945.0,-320.0
22.0,-247.0,-72.0,-33.0,20.0,-6.0,130.0,-941.0,-321.0
26.0,-248.0,-71.0,-33.0,20.0,-5.0,137.0,-943.0,-328.0
25.0,-248.0,-73.0,-34.0,19.0,-4.0,135.0,-940.0,-320.0
23.0,-246.0,-69.0,-35.0,20.0,-3.0,133.0,-943.0,-321.0
24.0,-246.0,-69.0,-36.0,22.0,-5.0,133.0,-943.0,-318.0
27.0,-245.0,-71.0,-37.0,21.0,-5.0,134.0,-938.0,-323.0
26.0,-246.0,-72.0,-39.0,22.0,-5.0,135.0,-934.0,-325.0
24.0,-245.0,-70.0,-42.0,24.0,-3.0,133.0,-936.0,-328.0
28.0,-239.0,-66.0,-46.0,24.0,-5.0,128.0,-939.0,-325.0
27.0,-248.0,-74.0,-49.0,26.0,-6.0,133.0,-932.0,-321.0
26.0,-246.0,-75.0,-51.0,26.0,-4.0,134.0,-928.0,-321.0
24.0,-245.0,-73.0,-55.0,27.0,-4.0,134.0,-935.0,-322.0
29.0,-247.0,-69.0,-57.0,28.0,-6.0,133.0,-939.0,-323.0
25.0,-245.0,-73.0,-60.0,30.0,-3.0,134.0,-938.0,-324.0
25.0,-245.0,-68.0,-63.0,31.0,-5.0,134.0,-934.0,-319.0
26.0,-245.0,-70.0,-67.0,32.0,-4.0,135.0,-942.0,-326.0
26.0,-246.0,-74.0,-71.0,34.0,-4.0,133.0,-933.0,-321.0
26.0,-247.0,-69.0,-77.0,36.0,-4.0,130.0,-936.0,-322.0
27.0,-245.0,-71.0,-82.0,37.0,-4.0,130.0,-934.0,-321.0
27.0,-246.0,-72.0,-87.0,41.0,-4.0,131.0,-936.0,-325.0
27.0,-245.0,-71.0,-94.0,43.0,-4.0,135.0,-944.0,-322.0
24.0,-247.0,-69.0,-102.0,47.0,-3.0,139.0,-943.0,-323.0
26.0,-246.0,-72.0,-110.0,50.0,-6.0,135.0,-939.0,-318.0
29.0,-248.0,-72.0,-119.0,53.0,-6.0,138.0,-945.0,-314.0
27.0,-247.0,-71.0,-126.0,57.0,-6.0,140.0,-939.0,-312.0
28.0,-246.0,-70.0,-133.0,59.0,-6.0,142.0,-935.0,-316.0
22.0,-246.0,-68.0,-140.0,62.0,-6.0,137.0,-939.0,-314.0
26.0,-244.0,-74.0,-148.0,64.0,-7.0,139.0,-939.0,-322.0
28.0,-245.0,-71.0,-154.0,67.0,-7.0,141.0,-935.0,-318.0
25.0,-246.0,-70.0,-160.0,69.0,-6.0,134.0,-937.0,-321.0
24.0,-243.0,-65.0,-167.0,70.0,-8.0,139.0,-937.0,-321.0
26.0,-246.0,-71.0,-172.0,70.0,-7.0,134.0,-936.0,-320.0
25.0,-247.0,-72.0,-176.0,68.0,-6.0,132.0,-942.0,-320.0
27.0,-250.0,-73.0,-179.0,66.0,-7.0,129.0,-939.0,-322.0
23.0,-248.0,-70.0,-180.0,62.0,-5.0,129.0,-940.0,-324.0
24.0,-246.0,-73.0,-182.0,57.0,-4.0,127.0,-951.0,-322.0
24.0,-248.0,-75.0,-181.0,55.0,-3.0,132.0,-943.0,-328.0
25.0,-248.0,-73.0,-177.0,55.0,-1.0,126.0,-948.0,-326.0
26.0,-249.0,-76.0,-174.0,55.0,2.0,131.0,-946.0,-335.0
24.0,-247.0,-74.0,-172.0,56.0,3.0,129.0,-944.0,-331.0
24.0,-248.0,-75.0,-169.0,56.0,4.0,131.0,-950.0,-331.0
27.0,-248.0,-74.0,-168.0,55.0,6.0,129.0,-943.0,-333.0
21.0,-248.0,-75.0,-166.0,55.0,6.0,130.0,-944.0,-340.0
28.0,-248.0,-79.0,-164.0,54.0,7.0,127.0,-943.0,-339.0
26.0,-247.0,-74.0,-159.0,54.0,9.0,136.0,-947.0,-339.0
25.0,-247.0,-75.0,-157.0,53.0,9.0,133.0,-946.0,-340.0
25.0,-247.0,-72.0,-154.0,54.0,9.0,134.0,-942.0,-338.0
24.0,-244.0,-77.0,-153.0,55.0,9.0,129.0,-941.0,-344.0
24.0,-245.0,-75.0,-150.0,54.0,11.0,131.0,-939.0,-341.0
25.0,-247.0,-77.0,-150.0,54.0,8.0,131.0,-937.0,-339.0
27.0,-248.0,-78.0,-150.0,53.0,6.0,126.0,-946.0,-345.0
22.0,-245.0,-76.0,-150.0,52.0,7.0,129.0,-942.0,-346.0
25.0,-243.0,-71.0,-149.0,54.0,6.0,128.0,-944.0,-351.0
24.0,-247.0,-82.0,-150.0,52.0,5.0,123.0,-949.0,-352.0
25.0,-249.0,-75.0,-148.0,51.0,6.0,119.0,-950.0,-349.0
24.0,-248.0,-78.0,-142.0,53.0,4.0,124.0,-948.0,-353.0
25.0,-247.0,-78.0,-133.0,54.0,6.0,123.0,-952.0,-349.0
23.0,-248.0,-77.0,-124.0,55.0,7.0,124.0,-947.0,-349.0
28.0,-249.0,-77.0,-113.0,54.0,6.0,128.0,-947.0,-348.0
22.0,-245.0,-77.0,-106.0,54.0,6.0,125.0,-941.0,-347.0
24.0,-245.0,-80.0,-100.0,52.0,5.0,124.0,-942.0,-351.0
23.0,-246.0,-75.0,-96.0,51.0,3.0,124.0,-941.0,-348.0
24.0,-246.0,-76.0,-93.0,52.0,2.0,129.0,-941.0,-346.0
25.0,-246.0,-79.0,-94.0,52.0,2.0,128.0,-942.0,-347.0
21.0,-245.0,-80.0,-94.0,55.0,3.0,120.0,-945.0,-347.0
23.0,-246.0,-78.0,-95.0,55.0,1.0,129.0,-939.0,-348.0
23.0,-248.0,-75.0,-96.0,57.0,0.0,119.0,-942.0,-347.0
20.0,-245.0,-81.0,-94.0,57.0,0.0,130.0,-940.0,-348.0
22.0,-243.0,-78.0,-91.0,57.0,-1.0,128.0,-940.0,-344.0
25.0,-247.0,-79.0,-87.0,57.0,-1.0,126.0,-939.0,-344.0
25.0,-246.0,-81.0,-83.0,57.0,-3.0,127.0,-946.0,-348.0
24.0,-248.0,-78.0,-81.0,57.0,-3.0,129.0,-937.0,-350.0
24.0,-248.0,-80.0,-77.0,55.0,-2.0,129.0,-942.0,-350.0
25.0,-248.0,-78.0,-73.0,52.0,-2.0,130.0,-938.0,-356.0
22.0,-243.0,-77.0,-69.0,51.0,-3.0,131.0,-938.0,-357.0
25.0,-246.0,-79.0,-65.0,48.0,1.0,129.0,-941.0,-360.0
26.0,-247.0,-82.0,-59.0,46.0,1.0,136.0,-942.0,-364.0
27.0,-248.0,-81.0,-53.0,45.0,4.0,136.0,-947.0,-372.0
25.0,-247.0,-82.0,-44.0,43.0,7.0,138.0,-937.0,-366.0
29.0,-247.0,-80.0,-38.0,43.0,9.0,138.0,-941.0,-366.0
28.0,-247.0,-81.0,-32.0,44.0,8.0,138.0,-938.0,-369.0
27.0,-246.0,-85.0,-28.0,44.0,9.0,138.0,-936.0,-366.0
26.0,-243.0,-83.0,-25.0,47.0,9.0,142.0,-935.0,-364.0
26.0,-245.0,-82.0,-21.0,52.0,7.0,141.0,-933.0,-363.0
28.0,-244.0,-82.0,-19.0,57.0,7.0,139.0,-939.0,-372.0
28.0,-246.0,-80.0,-16.0,63.0,6.0,135.0,-934.0,-365.0
25.0,-244.0,-82.0,-15.0,70.0,2.0,133.0,-934.0,-369.0
25.0,-248.0,-84.0,-13.0,77.0,0.0,133.0,-940.0,-368.0
21.0,-246.0,-80.0,-11.0,81.0,-1.0,125.0,-927.0,-380.0
25.0,-245.0,-87.0,-10.0,86.0,-1.0,129.0,-927.0,-371.0
22.0,-244.0,-83.0,-9.0,92.0,-2.0,119.0,-926.0,-371.0
22.0,-244.0,-86.0,-10.0,96.0,-2.0,122.0,-931.0,-375.0
21.0,-244.0,-84.0,-8.0,98.0,-3.0,125.0,-925.0,-373.0
22.0,-245.0,-85.0,-6.0,100.0,-3.0,114.0,-927.0,-376.0
22.0,-243.0,-84.0,-6.0,100.0,-2.0,118.0,-926.0,-378.0
18.0,-240.0,-83.0,-8.0,98.0,-1.0,121.0,-917.0,-376.0
24.0,-243.0,-74.0,-10.0,96.0,-1.0,115.0,-923.0,-379.0
22.0,-243.0,-85.0,-13.0,93.0,-1.0,117.0,-925.0,-381.0
21.0,-244.0,-85.0,-15.0,90.0,1.0,115.0,-923.0,-380.0
23.0,-243.0,-84.0,-17.0,86.0,3.0,120.0,-927.0,-371.0
20.0,-241.0,-83.0,-19.0,82.0,3.0,122.0,-925.0,-377.0
19.0,-243.0,-83.0,-21.0,77.0,4.0,122.0,-923.0,-376.0
22.0,-242.0,-84.0,-24.0,72.0,4.0,122.0,-930.0,-378.0
23.0,-247.0,-84.0,-25.0,68.0,5.0,129.0,-930.0,-378.0
28.0,-246.0,-85.0,-26.0,66.0,6.0,134.0,-933.0,-377.0
23.0,-245.0,-85.0,-27.0,62.0,7.0,130.0,-928.0,-371.0
20.0,-245.0,-82.0,-26.0,61.0,7.0,133.0,-935.0,-375.0
24.0,-246.0,-84.0,-25.0,60.0,7.0,126.0,-932.0,-378.0
24.0,-244.0,-83.0,-24.0,58.0,7.0,133.0,-932.0,-378.0
23.0,-247.0,-85.0,-22.0,58.0,7.0,130.0,-929.0,-367.0
24.0,-244.0,-81.0,-23.0,59.0,6.0,130.0,-928.0,-376.0
27.0,-246.0,-83.0,-24.0,58.0,6.0,130.0,-930.0,-374.0
23.0,-243.0,-84.0,-25.0,59.0,7.0,130.0,-929.0,-372.0
24.0,-245.0,-86.0,-27.0,62.0,5.0,128.0,-924.0,-374.0
23.0,-242.0,-84.0,-28.0,65.0,5.0,133.0,-931.0,-376.0
23.0,-244.0,-81.0,-29.0,68.0,6.0,127.0,-923.0,-379.0
23.0,-245.0,-83.0,-27.0,71.0,5.0,123.0,-924.0,-376.0
17.0,-248.0,-64.0,-26.0,73.0,5.0,122.0,-925.0,-373.0
22.0,-245.0,-84.0,-24.0,74.0,4.0,125.0,-930.0,-372.0
23.0,-243.0,-83.0,-24.0,77.0,4.0,123.0,-926.0,-374.0
23.0,-240.0,-89.0,-24.0,81.0,2.0,119.0,-921.0,-378.0
21.0,-245.0,-83.0,-24.0,82.0,0.0,116.0,-925.0,-382.0
22.0,-245.0,-85.0,-23.0,82.0,-1.0,116.0,-926.0,-378.0
21.0,-241.0,-79.0,-24.0,82.0,-1.0,117.0,-924.0,-377.0
21.0,-241.0,-84.0,-26.0,83.0,-2.0,118.0,-924.0,-381.0
25.0,-245.0,-85.0,-27.0,84.0,-4.0,119.0,-927.0,-382.0
21.0,-244.0,-82.0,-29.0,85.0,-4.0,113.0,-927.0,-381.0
21.0,-244.0,-84.0,-31.0,83.0,-5.0,113.0,-927.0,-377.0
19.0,-241.0,-86.0,-31.0,82.0,-4.0,118.0,-929.0,-384.0
22.0,-246.0,-83.0,-33.0,81.0,-5.0,115.0,-933.0,-377.0
22.0,-244.0,-84.0,-32.0,80.0,-5.0,118.0,-940.0,-379.0
22.0,-246.0,-85.0,-32.0,78.0,-4.0,122.0,-935.0,-378.0
26.0,-246.0,-84.0,-31.0,77.0,-2.0,128.0,-930.0,-380.0
25.0,-246.0,-84.0,-30.0,76.0,-2.0,123.0,-927.0,-381.0
21.0,-246.0,-87.0,-29.0,75.0,-2.0,128.0,-932.0,-381.0
26.0,-246.0,-84.0,-28.0,76.0,-1.0,132.0,-925.0,-381.0
24.0,-244.0,-85.0,-25.0,73.0,1.0,130.0,-932.0,-380.0
24.0,-246.0,-83.0,-24.0,73.0,3.0,134.0,-925.0,-375.0
24.0,-244.0,-85.0,-23.0,71.0,3.0,130.0,-927.0,-377.0
28.0,-253.0,-96.0,-23.0,73.0,1.0,131.0,-930.0,-378.0
23.0,-244.0,-85.0,-26.0,75.0,2.0,132.0,-928.0,-378.0
25.0,-243.0,-84.0,-27.0,75.0,3.0,131.0,-925.0,-374.0
24.0,-246.0,-82.0,-28.0,77.0,2.0,131.0,-928.0,-373.0
25.0,-243.0,-85.0,-28.0,78.0,3.0,131.0,-932.0,-378.0
23.0,-244.0,-79.0,-28.0,79.0,3.0,122.0,-932.0,-374.0
23.0,-242.0,-84.0,-26.0,79.0,1.0,122.0,-928.0,-377.0
22.0,-243.0,-83.0,-27.0,80.0,1.0,123.0,-932.0,-379.0
24.0,-243.0,-81.0,-26.0,82.0,1.0,117.0,-927.0,-377.0
24.0,-245.0,-84.0,-25.0,83.0,2.0,117.0,-925.0,-371.0
23.0,-243.0,-86.0,-22.0,87.0,0.0,114.0,-924.0,-375.0
23.0,-244.0,-84.0,-23.0,89.0,1.0,115.0,-931.0,-375.0
19.0,-244.0,-82.0,-21.0,91.0,0.0,116.0,-930.0,-375.0
22.0,-245.0,-84.0,-22.0,93.0,0.0,116.0,-924.0,-379.0
20.0,-243.0,-84.0,-23.0,94.0,0.0,114.0,-926.0,-376.0
23.0,-244.0,-84.0,-27.0,94.0,0.0,118.0,-924.0,-376.0
22.0,-243.0,-82.0,-30.0,92.0,0.0,117.0,-924.0,-372.0
22.0,-247.0,-83.0,-33.0,91.0,-1.0,125.0,-930.0,-373.0
18.0,-247.0,-84.0,-35.0,90.0,1.0,123.0,-927.0,-376.0
23.0,-245.0,-83.0,-37.0,89.0,1.0,121.0,-928.0,-368.0
21.0,-246.0,-82.0,-39.0,85.0,1.0,121.0,-927.0,-368.0
19.0,-244.0,-83.0,-42.0,83.0,1.0,118.0,-928.0,-373.0
24.0,-247.0,-79.0,-43.0,81.0,1.0,123.0,-930.0,-370.0
21.0,-244.0,-82.0,-43.0,78.0,1.0,121.0,-926.0,-375.0
23.0,-245.0,-84.0,-40.0,77.0,0.0,121.0,-928.0,-370.0
21.0,-246.0,-81.0,-42.0,75.0,0.0,119.0,-933.0,-372.0
21.0,-245.0,-83.0,-40.0,72.0,0.0,117.0,-928.0,-374.0
22.0,-246.0,-80.0,-39.0,69.0,-1.0,119.0,-936.0,-367.0
19.0,-244.0,-83.0,-36.0,65.0,1.0,118.0,-929.0,-372.0
22.0,-244.0,-84.0,-33.0,63.0,0.0,118.0,-934.0,-368.0
24.0,-246.0,-84.0,-30.0,60.0,0.0,118.0,-925.0,-374.0
20.0,-245.0,-84.0,-27.0,58.0,0.0,123.0,-929.0,-379.0
23.0,-247.0,-86.0,-27.0,59.0,-1.0,123.0,-924.0,-383.0
26.0,-248.0,-85.0,-25.0,58.0,0.0,120.0,-928.0,-378.0
22.0,-245.0,-86.0,-24.0,57.0,0.0,118.0,-926.0,-382.0
19.0,-242.0,-85.0,-25.0,59.0,-2.0,123.0,-930.0,-382.0
23.0,-243.0,-83.0,-24.0,59.0,-1.0,118.0,-930.0,-383.0
23.0,-245.0,-86.0,-22.0,61.0,-2.0,121.0,-930.0,-383.0
22.0,-244.0,-84.0,-21.0,62.0,-5.0,122.0,-930.0,-381.0
22.0,-245.0,-86.0,-19.0,61.0,-4.0,127.0,-935.0,-385.0
23.0,-245.0,-86.0,-17.0,63.0,-5.0,122.0,-934.0,-379.0
21.0,-248.0,-83.0,-15.0,62.0,-6.0,121.0,-938.0,-381.0
21.0,-243.0,-85.0,-11.0,62.0,-7.0,122.0,-939.0,-376.0
22.0,-247.0,-84.0,-5.0,62.0,-7.0,120.0,-937.0,-374.0
25.0,-241.0,-85.0,2.0,61.0,-6.0,128.0,-936.0,-380.0
24.0,-245.0,-83.0,6.0,61.0,-8.0,119.0,-928.0,-377.0
23.0,-246.0,-84.0,9.0,60.0,-6.0,119.0,-934.0,-373.0
22.0,-242.0,-84.0,9.0,56.0,-6.0,123.0,-931.0,-378.0
22.0,-244.0,-83.0,6.0,55.0,-6.0,123.0,-936.0,-380.0
25.0,-242.0,-83.0,3.0,54.0,-5.0,122.0,-934.0,-376.0
21.0,-243.0,-84.0,0.0,54.0,-4.0,121.0,-934.0,-380.0
25.0,-247.0,-84.0,-2.0,53.0,-3.0,126.0,-932.0,-375.0
26.0,-247.0,-83.0,-5.0,56.0,-2.0,129.0,-936.0,-378.0
24.0,-247.0,-84.0,-7.0,59.0,-4.0,130.0,-929.0,-380.0
26.0,-244.0,-83.0,-9.0,59.0,-5.0,129.0,-921.0,-376.0
17.0,-241.0,-84.0,-11.0,60.0,-5.0,135.0,-922.0,-375.0
25.0,-244.0,-79.0,-11.0,63.0,-7.0,128.0,-928.0,-373.0
21.0,-241.0,-83.0,-9.0,64.0,-7.0,129.0,-922.0,-370.0
22.0,-241.0,-82.0,-4.0,64.0,-7.0,123.0,-923.0,-371.0
24.0,-244.0,-81.0,1.0,64.0,-9.0,128.0,-920.0,-361.0
24.0,-244.0,-79.0,8.0,65.0,-11.0,123.0,-922.0,-365.0
24.0,-246.0,-79.0,11.0,65.0,-13.0,123.0,-924.0,-362.0
24.0,-244.0,-80.0,13.0,65.0,-13.0,131.0,-923.0,-363.0
21.0,-245.0,-81.0,13.0,64.0,-16.0,126.0,-930.0,-362.0
23.0,-244.0,-83.0,13.0,63.0,-16.0,123.0,-930.0,-366.0
22.0,-243.0,-81.0,11.0,63.0,-17.0,124.0,-928.0,-367.0
23.0,-245.0,-72.0,8.0,62.0,-16.0,121.0,-925.0,-367.0
21.0,-245.0,-82.0,6.0,61.0,-17.0,130.0,-931.0,-367.0
22.0,-247.0,-84.0,4.0,61.0,-17.0,115.0,-930.0,-369.0
22.0,-245.0,-80.0,1.0,61.0,-16.0,115.0,-935.0,-362.0
20.0,-245.0,-80.0,1.0,61.0,-15.0,121.0,-936.0,-368.0
22.0,-245.0,-83.0,-1.0,61.0,-14.0,117.0,-932.0,-369.0
22.0,-246.0,-78.0,-4.0,64.0,-15.0,117.0,-935.0,-373.0
21.0,-243.0,-87.0,-5.0,66.0,-13.0,115.0,-930.0,-368.0
20.0,-244.0,-84.0,-7.0,66.0,-12.0,114.0,-927.0,-374.0
23.0,-242.0,-83.0,-10.0,66.0,-14.0,122.0,-929.0,-372.0
24.0,-244.0,-80.0,-13.0,64.0,-14.0,115.0,-927.0,-370.0
21.0,-246.0,-80.0,-13.0,64.0,-14.0,117.0,-929.0,-370.0
23.0,-246.0,-79.0,-13.0,62.0,-16.0,108.0,-928.0,-365.0
22.0,-246.0,-82.0,-12.0,61.0,-18.0,116.0,-927.0,-362.0
20.0,-245.0,-81.0,-11.0,56.0,-19.0,115.0,-927.0,-360.0
22.0,-246.0,-80.0,-7.0,54.0,-20.0,112.0,-927.0,-358.0
20.0,-246.0,-78.0,-5.0,49.0,-22.0,115.0,-933.0,-352.0
20.0,-244.0,-78.0,-3.0,44.0,-22.0,114.0,-928.0,-352.0
19.0,-245.0,-79.0,-1.0,38.0,-23.0,113.0,-931.0,-358.0
19.0,-246.0,-78.0,-1.0,32.0,-23.0,114.0,-935.0,-352.0
22.0,-246.0,-82.0,-1.0,28.0,-24.0,118.0,-935.0,-359.0
17.0,-254.0,-77.0,-2.0,24.0,-25.0,116.0,-938.0,-361.0
19.0,-248.0,-82.0,-3.0,22.0,-24.0,117.0,-937.0,-367.0
22.0,-246.0,-83.0,-4.0,17.0,-24.0,118.0,-933.0,-354.0
23.0,-244.0,-82.0,-5.0,16.0,-23.0,118.0,-942.0,-363.0
21.0,-246.0,-83.0,-2.0,15.0,-23.0,125.0,-943.0,-364.0
26.0,-246.0,-83.0,0.0,13.0,-20.0,126.0,-934.0,-366.0
23.0,-246.0,-76.0,3.0,14.0,-20.0,131.0,-933.0,-366.0
24.0,-247.0,-81.0,4.0,14.0,-21.0,128.0,-933.0,-369.0
23.0,-243.0,-82.0,3.0,15.0,-22.0,128.0,-935.0,-369.0
21.0,-243.0,-84.0,2.0,16.0,-22.0,123.0,-932.0,-370.0
23.0,-242.0,-84.0,-1.0,18.0,-22.0,127.0,-928.0,-370.0
22.0,-245.0,-83.0,-4.0,19.0,-21.0,130.0,-931.0,-368.0
25.0,-244.0,-83.0,-8.0,22.0,-21.0,120.0,-928.0,-371.0
24.0,-246.0,-82.0,-9.0,24.0,-20.0,122.0,-932.0,-372.0
25.0,-245.0,-83.0,-9.0,26.0,-20.0,117.0,-936.0,-371.0
24.0,-248.0,-84.0,-7.0,27.0,-19.0,124.0,-929.0,-369.0
21.0,-247.0,-81.0,-3.0,27.0,-19.0,129.0,-935.0,-365.0
22.0,-247.0,-82.0,0.0,29.0,-17.0,123.0,-934.0,-360.0
24.0,-246.0,-82.0,4.0,29.0,-18.0,131.0,-932.0,-367.0
25.0,-246.0,-83.0,3.0,28.0,-17.0,130.0,-933.0,-363.0
27.0,-243.0,-83.0,2.0,29.0,-15.0,134.0,-930.0,-367.0
30.0,-246.0,-83.0,0.0,31.0,-14.0,133.0,-929.0,-366.0
25.0,-239.0,-81.0,-3.0,31.0,-12.0,135.0,-930.0,-367.0
29.0,-242.0,-82.0,-6.0,34.0,-10.0,140.0,-929.0,-365.0
25.0,-241.0,-82.0,-9.0,34.0,-8.0,136.0,-922.0,-368.0
27.0,-241.0,-81.0,-8.0,35.0,-7.0,140.0,-927.0,-369.0
31.0,-243.0,-81.0,-9.0,38.0,-3.0,148.0,-928.0,-369.0
30.0,-242.0,-78.0,-8.0,42.0,-2.0,148.0,-926.0,-368.0
31.0,-244.0,-78.0,-8.0,45.0,0.0,152.0,-925.0,-363.0
30.0,-246.0,-78.0,-5.0,49.0,1.0,146.0,-923.0,-358.0
28.0,-240.0,-79.0,1.0,52.0,1.0,151.0,-921.0,-349.0
28.0,-244.0,-73.0,7.0,57.0,1.0,146.0,-926.0,-351.0
26.0,-245.0,-78.0,14.0,62.0,1.0,149.0,-921.0,-342.0
28.0,-246.0,-72.0,20.0,67.0,-1.0,139.0,-933.0,-342.0
25.0,-244.0,-78.0,24.0,74.0,-4.0,138.0,-933.0,-343.0
27.0,-247.0,-78.0,21.0,79.0,-8.0,131.0,-928.0,-342.0
20.0,-244.0,-75.0,20.0,85.0,-9.0,122.0,-937.0,-344.0
22.0,-247.0,-75.0,19.0,92.0,-11.0,113.0,-943.0,-341.0
18.0,-248.0,-75.0,17.0,94.0,-13.0,112.0,-946.0,-350.0
19.0,-249.0,-80.0,23.0,95.0,-14.0,106.0,-947.0,-350.0
20.0,-249.0,-82.0,28.0,98.0,-14.0,105.0,-952.0,-353.0
15.0,-249.0,-83.0,32.0,100.0,-15.0,95.0,-957.0,-364.0
16.0,-248.0,-81.0,36.0,100.0,-14.0,95.0,-957.0,-369.0
16.0,-248.0,-83.0,34.0,101.0,-14.0,94.0,-953.0,-375.0
15.0,-242.0,-86.0,31.0,100.0,-15.0,93.0,-954.0,-374.0
18.0,-246.0,-81.0,28.0,98.0,-11.0,92.0,-942.0,-383.0
16.0,-247.0,-84.0,24.0,95.0,-11.0,102.0,-942.0,-381.0
15.0,-246.0,-85.0,21.0,91.0,-9.0,102.0,-931.0,-383.0
18.0,-246.0,-85.0,19.0,85.0,-6.0,97.0,-930.0,-382.0
18.0,-243.0,-83.0,18.0,77.0,-4.0,103.0,-930.0,-379.0
18.0,-243.0,-84.0,21.0,69.0,-3.0,114.0,-924.0,-373.0
20.0,-241.0,-82.0,22.0,57.0,-2.0,118.0,-922.0,-368.0
22.0,-245.0,-82.0,23.0,44.0,-2.0,125.0,-924.0,-365.0
22.0,-243.0,-80.0,21.0,34.0,-2.0,123.0,-928.0,-350.0
25.0,-246.0,-72.0,18.0,22.0,-2.0,126.0,-930.0,-348.0
27.0,-244.0,-80.0,16.0,11.0,-1.0,130.0,-938.0,-343.0
27.0,-248.0,-77.0,18.0,4.0,1.0,137.0,-937.0,-347.0
26.0,-247.0,-78.0,17.0,-2.0,0.0,135.0,-941.0,-344.0
25.0,-247.0,-74.0,20.0,-8.0,0.0,131.0,-937.0,-343.0
26.0,-245.0,-75.0,21.0,-12.0,-1.0,133.0,-939.0,-342.0
26.0,-247.0,-78.0,25.0,-17.0,1.0,135.0,-943.0,-338.0
28.0,-247.0,-79.0,31.0,-17.0,2.0,132.0,-941.0,-344.0
25.0,-247.0,-80.0,35.0,-18.0,1.0,136.0,-942.0,-342.0
29.0,-247.0,-76.0,39.0,-15.0,1.0,139.0,-944.0,-345.0
25.0,-247.0,-74.0,44.0,-10.0,1.0,134.0,-942.0,-349.0
28.0,-246.0,-77.0,47.0,-4.0,0.0,139.0,-931.0,-336.0
26.0,-252.0,-87.0,49.0,1.0,2.0,146.0,-935.0,-346.0
29.0,-244.0,-79.0,52.0,8.0,4.0,144.0,-934.0,-347.0
27.0,-246.0,-77.0,54.0,18.0,8.0,141.0,-922.0,-350.0
27.0,-243.0,-77.0,54.0,27.0,14.0,140.0,-919.0,-348.0
29.0,-245.0,-79.0,54.0,37.0,20.0,152.0,-929.0,-358.0
28.0,-244.0,-79.0,49.0,47.0,18.0,142.0,-926.0,-361.0
30.0,-241.0,-80.0,44.0,56.0,23.0,141.0,-923.0,-360.0
32.0,-244.0,-79.0,46.0,67.0,30.0,155.0,-916.0,-360.0
28.0,-236.0,-80.0,57.0,81.0,48.0,143.0,-904.0,-357.0
31.0,-237.0,-82.0,78.0,99.0,80.0,156.0,-893.0,-374.0
38.0,-241.0,-87.0,97.0,115.0,104.0,172.0,-911.0,-391.0
39.0,-244.0,-92.0,85.0,129.0,95.0,183.0,-930.0,-418.0
38.0,-247.0,-87.0,44.0,142.0,61.0,173.0,-953.0,-401.0
39.0,-252.0,-88.0,-3.0,156.0,28.0,171.0,-970.0,-385.0
33.0,-252.0,-85.0,-35.0,173.0,-1.0,164.0,-957.0,-378.0
27.0,-249.0,-87.0,-38.0,190.0,-10.0,148.0,-953.0,-382.0
27.0,-244.0,-85.0,-25.0,210.0,-2.0,137.0,-929.0,-396.0
28.0,-242.0,-88.0,-11.0,224.0,13.0,139.0,-921.0,-403.0
27.0,-240.0,-88.0,-7.0,235.0,22.0,138.0,-916.0,-401.0
27.0,-242.0,-85.0,-10.0,240.0,21.0,138.0,-927.0,-388.0
21.0,-248.0,-79.0,-14.0,238.0,6.0,122.0,-948.0,-366.0
19.0,-249.0,-72.0,-10.0,226.0,-11.0,109.0,-956.0,-333.0
17.0,-248.0,-75.0,5.0,210.0,-20.0,110.0,-965.0,-318.0
19.0,-249.0,-68.0,25.0,197.0,-25.0,104.0,-958.0,-323.0
16.0,-248.0,-73.0,44.0,192.0,-26.0,98.0,-939.0,-323.0
13.0,-245.0,-73.0,55.0,191.0,-21.0,91.0,-939.0,-335.0
11.0,-243.0,-76.0,56.0,190.0,-16.0,86.0,-923.0,-333.0
14.0,-239.0,-77.0,46.0,184.0,-11.0,81.0,-920.0,-337.0
7.0,-241.0,-78.0,32.0,174.0,-5.0,71.0,-923.0,-344.0
6.0,-242.0,-80.0,14.0,162.0,0.0,61.0,-925.0,-347.0
9.0,-246.0,-80.0,1.0,146.0,11.0,73.0,-933.0,-346.0
11.0,-248.0,-78.0,-3.0,129.0,18.0,82.0,-946.0,-350.0
16.0,-254.0,-80.0,-2.0,111.0,24.0,89.0,-956.0,-354.0
16.0,-250.0,-77.0,3.0,98.0,25.0,116.0,-956.0,-353.0
25.0,-250.0,-80.0,13.0,91.0,25.0,130.0,-961.0,-353.0
26.0,-248.0,-79.0,26.0,90.0,23.0,138.0,-955.0,-351.0
30.0,-248.0,-80.0,43.0,93.0,18.0,144.0,-946.0,-344.0
30.0,-243.0,-78.0,55.0,98.0,10.0,160.0,-935.0,-341.0
30.0,-245.0,-75.0,62.0,104.0,2.0,155.0,-927.0,-341.0
31.0,-247.0,-73.0,67.0,109.0,-4.0,146.0,-921.0,-332.0
28.0,-244.0,-70.0,66.0,108.0,-8.0,147.0,-923.0,-330.0
28.0,-245.0,-76.0,64.0,105.0,-8.0,142.0,-926.0,-340.0
26.0,-244.0,-78.0,62.0,104.0,-3.0,139.0,-926.0,-339.0
20.0,-246.0,-82.0,59.0,104.0,1.0,140.0,-936.0,-347.0
31.0,-247.0,-81.0,58.0,104.0,9.0,144.0,-934.0,-346.0
29.0,-248.0,-77.0,55.0,113.0,16.0,143.0,-942.0,-355.0
29.0,-248.0,-80.0,47.0,124.0,21.0,149.0,-942.0,-352.0
31.0,-247.0,-79.0,41.0,138.0,24.0,146.0,-953.0,-355.0
30.0,-248.0,-79.0,36.0,154.0,23.0,149.0,-956.0,-352.0
33.0,-247.0,-75.0,32.0,169.0,21.0,149.0,-952.0,-347.0
32.0,-249.0,-77.0,34.0,185.0,19.0,153.0,-953.0,-345.0
32.0,-248.0,-75.0,40.0,198.0,16.0,158.0,-941.0,-338.0
32.0,-247.0,-75.0,46.0,209.0,14.0,161.0,-939.0,-337.0
31.0,-244.0,-76.0,53.0,220.0,11.0,162.0,-931.0,-332.0
30.0,-243.0,-76.0,59.0,231.0,9.0,156.0,-930.0,-333.0
32.0,-243.0,-72.0,62.0,238.0,5.0,155.0,-923.0,-331.0
31.0,-243.0,-73.0,58.0,243.0,4.0,145.0,-933.0,-330.0
29.0,-246.0,-71.0,53.0,243.0,4.0,143.0,-925.0,-330.0
28.0,-246.0,-72.0,47.0,242.0,3.0,140.0,-933.0,-330.0
22.0,-248.0,-74.0,39.0,239.0,7.0,130.0,-940.0,-336.0
24.0,-247.0,-77.0,32.0,235.0,10.0,131.0,-950.0,-345.0
21.0,-250.0,-77.0,31.0,232.0,17.0,123.0,-946.0,-345.0
23.0,-248.0,-80.0,32.0,227.0,22.0,126.0,-946.0,-346.0
22.0,-250.0,-79.0,36.0,223.0,29.0,118.0,-952.0,-348.0
18.0,-249.0,-75.0,41.0,218.0,33.0,120.0,-953.0,-342.0
33.0,-246.0,-78.0,46.0,214.0,35.0,116.0,-950.0,-343.0
22.0,-248.0,-77.0,51.0,209.0,35.0,120.0,-943.0,-343.0
20.0,-244.0,-76.0,54.0,201.0,34.0,118.0,-936.0,-338.0
21.0,-244.0,-74.0,56.0,195.0,32.0,122.0,-931.0,-341.0
20.0,-248.0,-75.0,55.0,189.0,29.0,118.0,-932.0,-333.0
19.0,-242.0,-73.0,54.0,183.0,26.0,116.0,-924.0,-330.0
23.0,-243.0,-73.0,51.0,178.0,24.0,118.0,-930.0,-328.0
21.0,-245.0,-72.0,47.0,173.0,20.0,120.0,-929.0,-327.0
20.0,-245.0,-72.0,41.0,168.0,17.0,116.0,-930.0,-335.0
21.0,-247.0,-73.0,35.0,165.0,15.0,115.0,-941.0,-330.0
19.0,-247.0,-76.0,31.0,162.0,13.0,113.0,-946.0,-331.0
20.0,-247.0,-73.0,28.0,161.0,11.0,114.0,-944.0,-329.0
19.0,-248.0,-73.0,28.0,160.0,11.0,113.0,-951.0,-328.0
20.0,-248.0,-74.0,31.0,159.0,11.0,107.0,-949.0,-331.0
17.0,-248.0,-78.0,36.0,156.0,9.0,103.0,-952.0,-330.0
16.0,-248.0,-71.0,40.0,154.0,8.0,105.0,-948.0,-327.0
19.0,-249.0,-76.0,46.0,150.0,6.0,102.0,-951.0,-330.0
14.0,-248.0,-73.0,47.0,143.0,4.0,102.0,-942.0,-329.0
17.0,-247.0,-73.0,48.0,135.0,2.0,102.0,-947.0,-327.0
15.0,-245.0,-71.0,45.0,126.0,-1.0,100.0,-940.0,-325.0
15.0,-245.0,-71.0,41.0,118.0,-6.0,95.0,-941.0,-323.0
14.0,-245.0,-70.0,38.0,107.0,-9.0,98.0,-939.0,-325.0
18.0,-246.0,-74.0,37.0,97.0,-10.0,90.0,-937.0,-324.0
13.0,-248.0,-76.0,34.0,85.0,-10.0,90.0,-942.0,-325.0
11.0,-246.0,-73.0,33.0,75.0,-11.0,91.0,-938.0,-327.0
15.0,-246.0,-69.0,33.0,69.0,-12.0,90.0,-944.0,-330.0
14.0,-248.0,-76.0,34.0,59.0,-13.0,92.0,-947.0,-328.0
18.0,-247.0,-75.0,36.0,54.0,-12.0,97.0,-952.0,-327.0
17.0,-249.0,-73.0,36.0,48.0,-13.0,105.0,-950.0,-328.0
16.0,-246.0,-75.0,38.0,42.0,-13.0,104.0,-951.0,-331.0
19.0,-248.0,-72.0,40.0,38.0,-15.0,103.0,-948.0,-326.0
21.0,-248.0,-72.0,42.0,35.0,-16.0,111.0,-945.0,-326.0
20.0,-246.0,-71.0,42.0,32.0,-18.0,116.0,-946.0,-322.0
18.0,-249.0,-69.0,42.0,28.0,-21.0,115.0,-942.0,-322.0
20.0,-247.0,-72.0,42.0,24.0,-24.0,116.0,-941.0,-323.0
21.0,-246.0,-73.0,40.0,21.0,-26.0,116.0,-943.0,-321.0
23.0,-247.0,-71.0,40.0,19.0,-27.0,118.0,-947.0,-318.0
23.0,-249.0,-70.0,40.0,17.0,-28.0,118.0,-946.0,-317.0
24.0,-249.0,-70.0,39.0,16.0,-30.0,118.0,-945.0,-318.0
22.0,-248.0,-67.0,37.0,13.0,-29.0,117.0,-944.0,-317.0
21.0,-247.0,-68.0,36.0,12.0,-27.0,117.0,-948.0,-320.0
21.0,-251.0,-74.0,32.0,11.0,-28.0,120.0,-952.0,-321.0
20.0,-246.0,-71.0,30.0,8.0,-26.0,113.0,-951.0,-322.0
19.0,-249.0,-73.0,31.0,5.0,-25.0,119.0,-955.0,-323.0
23.0,-251.0,-61.0,30.0,5.0,-23.0,110.0,-953.0,-323.0
21.0,-248.0,-74.0,31.0,3.0,-21.0,110.0,-953.0,-330.0
21.0,-248.0,-71.0,33.0,3.0,-19.0,113.0,-945.0,-320.0
20.0,-249.0,-72.0,34.0,2.0,-19.0,122.0,-950.0,-325.0
22.0,-248.0,-70.0,36.0,0.0,-17.0,117.0,-947.0,-319.0
25.0,-251.0,-73.0,38.0,0.0,-17.0,129.0,-944.0,-324.0
24.0,-249.0,-71.0,37.0,1.0,-16.0,123.0,-950.0,-319.0
23.0,-246.0,-69.0,36.0,0.0,-16.0,126.0,-947.0,-322.0
24.0,-246.0,-73.0,36.0,0.0,-15.0,129.0,-946.0,-319.0
23.0,-247.0,-70.0,34.0,0.0,-16.0,126.0,-951.0,-315.0
23.0,-248.0,-70.0,34.0,3.0,-15.0,131.0,-947.0,-317.0
23.0,-248.0,-72.0,33.0,3.0,-15.0,128.0,-953.0,-320.0
23.0,-249.0,-70.0,33.0,3.0,-13.0,122.0,-953.0,-314.0
22.0,-247.0,-72.0,35.0,6.0,-12.0,123.0,-947.0,-316.0
24.0,-248.0,-70.0,37.0,6.0,-11.0,129.0,-951.0,-312.0
24.0,-249.0,-70.0,37.0,8.0,-10.0,129.0,-952.0,-308.0
21.0,-248.0,-71.0,38.0,8.0,-7.0,132.0,-950.0,-313.0
24.0,-249.0,-64.0,40.0,9.0,-6.0,123.0,-951.0,-310.0
23.0,-248.0,-70.0,40.0,9.0,-5.0,125.0,-947.0,-309.0
22.0,-248.0,-67.0,38.0,10.0,-4.0,132.0,-948.0,-310.0
27.0,-247.0,-70.0,37.0,12.0,-4.0,129.0,-943.0,-305.0
25.0,-245.0,-73.0,35.0,13.0,-3.0,126.0,-943.0,-311.0
22.0,-248.0,-69.0,35.0,14.0,-6.0,130.0,-947.0,-306.0
24.0,-249.0,-68.0,33.0,15.0,-5.0,124.0,-947.0,-305.0
24.0,-246.0,-67.0,33.0,16.0,-3.0,130.0,-943.0,-308.0
18.0,-245.0,-65.0,31.0,18.0,-4.0,129.0,-942.0,-306.0
23.0,-248.0,-68.0,30.0,18.0,-4.0,122.0,-946.0,-307.0
24.0,-250.0,-67.0,27.0,19.0,-3.0,119.0,-949.0,-308.0
21.0,-247.0,-67.0,22.0,17.0,-4.0,123.0,-948.0,-308.0
22.0,-248.0,-64.0,19.0,16.0,-5.0,126.0,-943.0,-309.0
19.0,-247.0,-66.0,15.0,16.0,-5.0,122.0,-948.0,-309.0
21.0,-249.0,-69.0,11.0,16.0,-6.0,120.0,-950.0,-307.0
23.0,-251.0,-65.0,10.0,16.0,-6.0,121.0,-956.0,-309.0
25.0,-251.0,-68.0,10.0,16.0,-7.0,127.0,-956.0,-310.0
21.0,-249.0,-68.0,9.0,15.0,-6.0,123.0,-953.0,-310.0
20.0,-247.0,-71.0,10.0,16.0,-7.0,122.0,-951.0,-308.0
22.0,-248.0,-66.0,10.0,15.0,-8.0,124.0,-956.0,-308.0
20.0,-245.0,-69.0,11.0,11.0,-8.0,121.0,-952.0,-312.0
23.0,-250.0,-67.0,10.0,11.0,-8.0,118.0,-946.0,-310.0
21.0,-247.0,-68.0,8.0,11.0,-8.0,122.0,-948.0,-309.0
23.0,-248.0,-65.0,5.0,7.0,-8.0,116.0,-947.0,-311.0
22.0,-246.0,-66.0,2.0,7.0,-8.0,122.0,-946.0,-311.0
23.0,-249.0,-68.0,-1.0,5.0,-10.0,128.0,-947.0,-314.0
22.0,-246.0,-67.0,-4.0,5.0,-10.0,122.0,-954.0,-312.0
23.0,-251.0,-67.0,-6.0,4.0,-9.0,129.0,-948.0,-305.0
24.0,-250.0,-70.0,-4.0,5.0,-8.0,125.0,-949.0,-314.0
24.0,-249.0,-70.0,-1.0,4.0,-8.0,129.0,-954.0,-314.0
23.0,-248.0,-66.0,2.0,3.0,-8.0,123.0,-952.0,-315.0
25.0,-248.0,-69.0,3.0,2.0,-8.0,127.0,-950.0,-312.0
22.0,-247.0,-71.0,1.0,-1.0,-7.0,128.0,-950.0,-310.0
23.0,-247.0,-68.0,-2.0,-1.0,-7.0,124.0,-947.0,-306.0
24.0,-249.0,-66.0,-3.0,-3.0,-8.0,123.0,-950.0,-305.0
24.0,-247.0,-64.0,-6.0,-4.0,-8.0,130.0,-950.0,-303.0
25.0,-249.0,-67.0,-5.0,-5.0,-6.0,131.0,-946.0,-305.0
26.0,-248.0,-66.0,-8.0,-7.0,-7.0,124.0,-943.0,-304.0
27.0,-248.0,-70.0,-10.0,-9.0,-8.0,127.0,-945.0,-308.0
22.0,-248.0,-70.0,-15.0,-13.0,-9.0,125.0,-949.0,-303.0
22.0,-249.0,-67.0,-21.0,-17.0,-12.0,119.0,-948.0,-312.0
22.0,-247.0,-67.0,-26.0,-22.0,-17.0,112.0,-950.0,-312.0
19.0,-247.0,-68.0,-29.0,-28.0,-18.0,108.0,-954.0,-315.0
18.0,-250.0,-67.0,-30.0,-36.0,-18.0,104.0,-952.0,-313.0
19.0,-248.0,-70.0,-25.0,-44.0,-20.0,107.0,-956.0,-312.0
16.0,-250.0,-69.0,-19.0,-52.0,-20.0,100.0,-958.0,-313.0
17.0,-250.0,-73.0,-12.0,-60.0,-19.0,97.0,-961.0,-322.0
18.0,-250.0,-74.0,-6.0,-69.0,-17.0,89.0,-951.0,-330.0
11.0,-255.0,-88.0,-7.0,-79.0,-16.0,94.0,-956.0,-344.0
14.0,-249.0,-78.0,-9.0,-88.0,-13.0,93.0,-953.0,-346.0
13.0,-246.0,-81.0,-14.0,-97.0,-10.0,88.0,-949.0,-352.0
12.0,-248.0,-77.0,-21.0,-107.0,-7.0,83.0,-946.0,-360.0
13.0,-248.0,-78.0,-24.0,-114.0,-3.0,84.0,-945.0,-352.0
14.0,-246.0,-78.0,-26.0,-121.0,-2.0,90.0,-946.0,-351.0
15.0,-246.0,-78.0,-27.0,-128.0,2.0,94.0,-943.0,-348.0
15.0,-246.0,-79.0,-24.0,-131.0,4.0,96.0,-944.0,-342.0
15.0,-246.0,-74.0,-23.0,-132.0,4.0,98.0,-947.0,-344.0
16.0,-245.0,-78.0,-24.0,-130.0,3.0,101.0,-943.0,-342.0
18.0,-246.0,-77.0,-29.0,-128.0,1.0,106.0,-944.0,-347.0
20.0,-249.0,-78.0,-36.0,-125.0,-5.0,106.0,-941.0,-350.0
17.0,-248.0,-76.0,-42.0,-121.0,-9.0,114.0,-953.0,-350.0
19.0,-248.0,-81.0,-49.0,-115.0,-14.0,113.0,-954.0,-353.0
23.0,-250.0,-83.0,-54.0,-107.0,-19.0,115.0,-952.0,-366.0
23.0,-248.0,-80.0,-62.0,-100.0,-23.0,115.0,-953.0,-373.0
19.0,-248.0,-82.0,-71.0,-97.0,-28.0,111.0,-953.0,-376.0
22.0,-248.0,-84.0,-83.0,-93.0,-33.0,112.0,-948.0,-372.0
19.0,-246.0,-85.0,-93.0,-91.0,-39.0,108.0,-949.0,-375.0
18.0,-247.0,-84.0,-103.0,-91.0,-42.0,109.0,-944.0,-375.0
21.0,-245.0,-85.0,-114.0,-90.0,-44.0,111.0,-939.0,-379.0
21.0,-244.0,-84.0,-128.0,-89.0,-48.0,122.0,-931.0,-374.0
12.0,-236.0,-93.0,-143.0,-86.0,-50.0,123.0,-929.0,-374.0
25.0,-245.0,-80.0,-159.0,-85.0,-52.0,128.0,-919.0,-375.0
24.0,-241.0,-81.0,-172.0,-83.0,-53.0,134.0,-921.0,-375.0
27.0,-241.0,-83.0,-184.0,-80.0,-52.0,131.0,-916.0,-378.0
26.0,-240.0,-89.0,-193.0,-76.0,-52.0,138.0,-915.0,-384.0
29.0,-237.0,-85.0,-200.0,-71.0,-53.0,148.0,-914.0,-381.0
30.0,-236.0,-85.0,-205.0,-65.0,-55.0,147.0,-905.0,-383.0
31.0,-239.0,-83.0,-208.0,-59.0,-56.0,155.0,-909.0,-389.0
30.0,-237.0,-86.0,-206.0,-52.0,-55.0,158.0,-899.0,-391.0
36.0,-230.0,-88.0,-206.0,-44.0,-54.0,161.0,-890.0,-390.0
31.0,-228.0,-89.0,-208.0,-38.0,-55.0,158.0,-879.0,-398.0
34.0,-226.0,-87.0,-211.0,-34.0,-54.0,163.0,-870.0,-395.0
33.0,-226.0,-86.0,-214.0,-33.0,-55.0,159.0,-858.0,-400.0
29.0,-221.0,-87.0,-218.0,-30.0,-55.0,157.0,-847.0,-396.0
31.0,-218.0,-85.0,-222.0,-26.0,-56.0,146.0,-836.0,-389.0
32.0,-215.0,-85.0,-227.0,-22.0,-54.0,147.0,-821.0,-393.0
29.0,-212.0,-84.0,-235.0,-17.0,-53.0,142.0,-809.0,-394.0
27.0,-205.0,-88.0,-246.0,-12.0,-51.0,129.0,-802.0,-394.0
24.0,-208.0,-88.0,-257.0,-9.0,-50.0,123.0,-788.0,-380.0
21.0,-200.0,-84.0,-264.0,-9.0,-48.0,106.0,-776.0,-368.0
17.0,-201.0,-81.0,-265.0,-13.0,-42.0,94.0,-756.0,-353.0
13.0,-197.0,-80.0,-266.0,-17.0,-37.0,83.0,-751.0,-348.0
8.0,-204.0,-72.0,-267.0,-28.0,-28.0,75.0,-738.0,-339.0
6.0,-192.0,-78.0,-269.0,-38.0,-22.0,66.0,-731.0,-339.0
9.0,-189.0,-73.0,-274.0,-49.0,-13.0,56.0,-723.0,-333.0
9.0,-188.0,-71.0,-280.0,-59.0,-7.0,55.0,-710.0,-327.0
6.0,-187.0,-70.0,-284.0,-68.0,0.0,55.0,-713.0,-320.0
9.0,-184.0,-69.0,-286.0,-77.0,5.0,63.0,-703.0,-310.0
13.0,-184.0,-73.0,-290.0,-81.0,10.0,72.0,-704.0,-311.0
15.0,-183.0,-69.0,-298.0,-87.0,12.0,85.0,-690.0,-313.0
19.0,-181.0,-73.0,-315.0,-92.0,11.0,98.0,-679.0,-319.0
22.0,-174.0,-75.0,-343.0,-101.0,5.0,103.0,-669.0,-327.0
15.0,-169.0,-80.0,-375.0,-116.0,-3.0,108.0,-666.0,-335.0
19.0,-173.0,-77.0,-412.0,-135.0,-13.0,112.0,-662.0,-338.0
21.0,-171.0,-76.0,-445.0,-155.0,-24.0,111.0,-660.0,-337.0
22.0,-174.0,-75.0,-472.0,-176.0,-36.0,113.0,-655.0,-341.0
24.0,-174.0,-74.0,-487.0,-192.0,-48.0,118.0,-668.0,-332.0
22.0,-176.0,-66.0,-496.0,-204.0,-62.0,118.0,-674.0,-326.0
23.0,-182.0,-70.0,-495.0,-212.0,-77.0,118.0,-691.0,-315.0
24.0,-184.0,-66.0,-485.0,-215.0,-91.0,119.0,-697.0,-310.0
23.0,-187.0,-69.0,-475.0,-213.0,-107.0,120.0,-713.0,-309.0
24.0,-190.0,-70.0,-465.0,-207.0,-120.0,119.0,-724.0,-310.0
26.0,-194.0,-68.0,-459.0,-195.0,-132.0,118.0,-746.0,-308.0
23.0,-197.0,-58.0,-454.0,-185.0,-147.0,109.0,-751.0,-303.0
17.0,-203.0,-72.0,-452.0,-182.0,-157.0,91.0,-773.0,-305.0
10.0,-203.0,-68.0,-450.0,-185.0,-165.0,75.0,-792.0,-309.0
12.0,-208.0,-73.0,-452.0,-195.0,-168.0,74.0,-806.0,-318.0
13.0,-214.0,-71.0,-456.0,-207.0,-167.0,76.0,-823.0,-325.0
14.0,-216.0,-76.0,-463.0,-216.0,-163.0,84.0,-830.0,-327.0
15.0,-219.0,-78.0,-474.0,-220.0,-158.0,96.0,-838.0,-349.0
22.0,-218.0,-83.0,-496.0,-222.0,-154.0,104.0,-837.0,-372.0
23.0,-217.0,-92.0,-528.0,-221.0,-148.0,114.0,-828.0,-398.0
21.0,-208.0,-96.0,-563.0,-220.0,-146.0,117.0,-806.0,-428.0
24.0,-209.0,-101.0,-597.0,-220.0,-143.0,116.0,-794.0,-451.0
26.0,-203.0,-105.0,-626.0,-222.0,-140.0,129.0,-787.0,-471.0
25.0,-203.0,-109.0,-650.0,-222.0,-135.0,128.0,-766.0,-480.0
25.0,-195.0,-112.0,-666.0,-222.0,-129.0,121.0,-744.0,-484.0
24.0,-195.0,-109.0,-679.0,-228.0,-124.0,125.0,-737.0,-487.0
26.0,-190.0,-105.0,-681.0,-236.0,-122.0,136.0,-724.0,-473.0
25.0,-188.0,-103.0,-673.0,-245.0,-126.0,136.0,-720.0,-462.0
31.0,-191.0,-97.0,-651.0,-253.0,-127.0,145.0,-720.0,-432.0
30.0,-189.0,-90.0,-616.0,-258.0,-136.0,145.0,-728.0,-419.0
32.0,-192.0,-87.0,-578.0,-267.0,-149.0,150.0,-731.0,-404.0
32.0,-193.0,-88.0,-544.0,-280.0,-163.0,150.0,-740.0,-394.0
32.0,-199.0,-91.0,-517.0,-293.0,-179.0,158.0,-752.0,-392.0
34.0,-201.0,-91.0,-496.0,-302.0,-196.0,163.0,-761.0,-397.0
34.0,-203.0,-85.0,-477.0,-304.0,-210.0,161.0,-782.0,-392.0
37.0,-207.0,-93.0,-460.0,-292.0,-218.0,168.0,-794.0,-398.0
37.0,-207.0,-91.0,-451.0,-275.0,-221.0,178.0,-802.0,-414.0
40.0,-208.0,-96.0,-455.0,-254.0,-223.0,184.0,-798.0,-428.0
41.0,-210.0,-102.0,-464.0,-234.0,-224.0,182.0,-804.0,-444.0
39.0,-209.0,-105.0,-477.0,-217.0,-222.0,179.0,-805.0,-454.0
39.0,-210.0,-105.0,-493.0,-202.0,-211.0,179.0,-804.0,-464.0
39.0,-210.0,-106.0,-506.0,-189.0,-200.0,180.0,-812.0,-474.0
40.0,-213.0,-110.0,-516.0,-179.0,-190.0,184.0,-811.0,-486.0
44.0,-216.0,-105.0,-519.0,-172.0,-184.0,196.0,-819.0,-475.0
47.0,-216.0,-102.0,-509.0,-163.0,-185.0,206.0,-825.0,-468.0
48.0,-218.0,-104.0,-488.0,-152.0,-192.0,213.0,-824.0,-458.0
48.0,-218.0,-103.0,-460.0,-141.0,-204.0,206.0,-831.0,-458.0
44.0,-215.0,-104.0,-428.0,-127.0,-215.0,203.0,-825.0,-456.0
44.0,-217.0,-103.0,-401.0,-113.0,-231.0,193.0,-819.0,-463.0
40.0,-216.0,-105.0,-382.0,-101.0,-244.0,186.0,-815.0,-470.0
38.0,-208.0,-106.0,-372.0,-92.0,-260.0,177.0,-795.0,-479.0
33.0,-202.0,-112.0,-373.0,-86.0,-277.0,158.0,-783.0,-491.0
28.0,-199.0,-115.0,-387.0,-81.0,-289.0,144.0,-766.0,-504.0
32.0,-199.0,-117.0,-407.0,-79.0,-297.0,133.0,-757.0,-511.0
27.0,-197.0,-120.0,-428.0,-76.0,-300.0,131.0,-746.0,-511.0
31.0,-186.0,-118.0,-446.0,-69.0,-296.0,119.0,-749.0,-508.0
23.0,-196.0,-113.0,-461.0,-61.0,-292.0,121.0,-750.0,-509.0
20.0,-197.0,-117.0,-473.0,-50.0,-288.0,114.0,-751.0,-511.0
20.0,-200.0,-121.0,-484.0,-43.0,-283.0,106.0,-763.0,-518.0
16.0,-203.0,-120.0,-495.0,-37.0,-278.0,91.0,-770.0,-514.0
14.0,-204.0,-117.0,-502.0,-42.0,-268.0,84.0,-777.0,-516.0
10.0,-207.0,-120.0,-504.0,-55.0,-259.0,81.0,-782.0,-518.0
9.0,-204.0,-118.0,-505.0,-76.0,-244.0,73.0,-792.0,-524.0
11.0,-206.0,-120.0,-512.0,-106.0,-229.0,75.0,-793.0,-539.0
13.0,-209.0,-118.0,-516.0,-133.0,-215.0,76.0,-801.0,-525.0
11.0,-212.0,-118.0,-508.0,-159.0,-204.0,83.0,-806.0,-517.0
12.0,-212.0,-117.0,-499.0,-186.0,-195.0,89.0,-810.0,-511.0
14.0,-214.0,-116.0,-484.0,-215.0,-191.0,91.0,-815.0,-513.0
15.0,-212.0,-117.0,-465.0,-246.0,-187.0,94.0,-820.0,-511.0
19.0,-217.0,-119.0,-447.0,-272.0,-179.0,109.0,-831.0,-507.0
13.0,-218.0,-120.0,-429.0,-292.0,-172.0,95.0,-833.0,-517.0
19.0,-220.0,-123.0,-415.0,-310.0,-160.0,110.0,-839.0,-520.0
18.0,-215.0,-119.0,-405.0,-325.0,-152.0,113.0,-833.0,-532.0
22.0,-218.0,-123.0,-398.0,-340.0,-140.0,122.0,-837.0,-534.0
27.0,-217.0,-126.0,-394.0,-347.0,-136.0,136.0,-818.0,-547.0
30.0,-209.0,-126.0,-388.0,-343.0,-134.0,144.0,-814.0,-545.0
41.0,-210.0,-122.0,-380.0,-330.0,-127.0,169.0,-809.0,-544.0
35.0,-209.0,-140.0,-367.0,-312.0,-133.0,158.0,-787.0,-546.0
32.0,-201.0,-128.0,-353.0,-301.0,-140.0,146.0,-773.0,-550.0
26.0,-202.0,-124.0,-345.0,-299.0,-140.0,135.0,-774.0,-555.0
26.0,-198.0,-125.0,-349.0,-301.0,-135.0,132.0,-772.0,-552.0
27.0,-199.0,-126.0,-350.0,-305.0,-126.0,124.0,-753.0,-551.0
22.0,-194.0,-126.0,-348.0,-311.0,-123.0,123.0,-743.0,-549.0
28.0,-190.0,-127.0,-345.0,-315.0,-123.0,121.0,-733.0,-548.0
26.0,-191.0,-128.0,-347.0,-317.0,-121.0,123.0,-726.0,-559.0
26.0,-184.0,-128.0,-355.0,-312.0,-120.0,133.0,-721.0,-560.0
24.0,-191.0,-131.0,-365.0,-300.0,-118.0,132.0,-720.0,-557.0
27.0,-188.0,-128.0,-376.0,-286.0,-119.0,126.0,-726.0,-560.0
24.0,-191.0,-131.0,-387.0,-273.0,-123.0,117.0,-732.0,-559.0
17.0,-195.0,-127.0,-404.0,-267.0,-131.0,105.0,-745.0,-559.0
18.0,-199.0,-133.0,-423.0,-267.0,-136.0,101.0,-752.0,-569.0
19.0,-203.0,-136.0,-451.0,-272.0,-144.0,89.0,-774.0,-581.0
17.0,-205.0,-139.0,-493.0,-276.0,-149.0,88.0,-795.0,-594.0
16.0,-210.0,-140.0,-536.0,-277.0,-152.0,94.0,-807.0,-601.0
11.0,-212.0,-142.0,-565.0,-279.0,-155.0,78.0,-818.0,-612.0
8.0,-216.0,-145.0,-597.0,-285.0,-157.0,74.0,-823.0,-618.0
4.0,-217.0,-144.0,-619.0,-293.0,-158.0,59.0,-839.0,-611.0
8.0,-223.0,-143.0,-626.0,-302.0,-157.0,58.0,-842.0,-615.0
5.0,-225.0,-130.0,-622.0,-318.0,-158.0,54.0,-848.0,-612.0
4.0,-221.0,-141.0,-609.0,-336.0,-165.0,58.0,-849.0,-611.0
8.0,-222.0,-142.0,-590.0,-355.0,-169.0,55.0,-846.0,-607.0
6.0,-221.0,-140.0,-564.0,-369.0,-172.0,51.0,-846.0,-608.0
8.0,-221.0,-142.0,-534.0,-378.0,-175.0,48.0,-842.0,-612.0
8.0,-218.0,-146.0,-504.0,-388.0,-175.0,60.0,-835.0,-627.0
17.0,-219.0,-145.0,-474.0,-389.0,-174.0,92.0,-823.0,-632.0
21.0,-216.0,-147.0,-450.0,-381.0,-181.0,113.0,-816.0,-628.0
25.0,-214.0,-146.0,-426.0,-362.0,-192.0,125.0,-815.0,-634.0
29.0,-211.0,-144.0,-407.0,-338.0,-200.0,145.0,-809.0,-630.0
33.0,-211.0,-148.0,-390.0,-312.0,-212.0,160.0,-815.0,-634.0
39.0,-211.0,-145.0,-377.0,-280.0,-219.0,179.0,-809.0,-633.0
47.0,-214.0,-148.0,-371.0,-249.0,-220.0,203.0,-812.0,-639.0
43.0,-211.0,-151.0,-368.0,-214.0,-222.0,206.0,-805.0,-635.0
44.0,-210.0,-148.0,-365.0,-184.0,-225.0,200.0,-808.0,-632.0
42.0,-216.0,-148.0,-363.0,-160.0,-224.0,189.0,-821.0,-642.0
38.0,-220.0,-151.0,-361.0,-152.0,-224.0,170.0,-830.0,-641.0
33.0,-229.0,-145.0,-345.0,-162.0,-223.0,157.0,-852.0,-629.0
30.0,-231.0,-146.0,-305.0,-189.0,-219.0,146.0,-862.0,-617.0
27.0,-232.0,-152.0,-245.0,-227.0,-216.0,139.0,-876.0,-657.0
30.0,-227.0,-162.0,-205.0,-264.0,-211.0,144.0,-877.0,-705.0
30.0,-225.0,-175.0,-211.0,-277.0,-206.0,148.0,-858.0,-758.0
34.0,-210.0,-198.0,-256.0,-245.0,-201.0,149.0,-841.0,-814.0
33.0,-215.0,-199.0,-337.0,-158.0,-189.0,132.0,-829.0,-848.0
30.0,-218.0,-195.0,-420.0,-48.0,-169.0,127.0,-832.0,-835.0
25.0,-220.0,-182.0,-472.0,56.0,-148.0,112.0,-839.0,-790.0
20.0,-227.0,-166.0,-466.0,135.0,-135.0,110.0,-851.0,-732.0
23.0,-231.0,-152.0,-402.0,185.0,-130.0,114.0,-854.0,-668.0
21.0,-229.0,-147.0,-298.0,216.0,-125.0,115.0,-850.0,-631.0
21.0,-228.0,-138.0,-191.0,235.0,-119.0,101.0,-852.0,-601.0
18.0,-222.0,-135.0,-100.0,236.0,-113.0,120.0,-840.0,-589.0
25.0,-218.0,-129.0,-41.0,223.0,-112.0,124.0,-831.0,-574.0
28.0,-215.0,-131.0,-10.0,195.0,-129.0,134.0,-824.0,-574.0
28.0,-210.0,-131.0,-7.0,159.0,-154.0,140.0,-805.0,-572.0
27.0,-209.0,-133.0,-22.0,122.0,-175.0,137.0,-806.0,-577.0
27.0,-206.0,-138.0,-50.0,79.0,-194.0,142.0,-797.0,-587.0
23.0,-201.0,-143.0,-86.0,36.0,-210.0,136.0,-793.0,-602.0
24.0,-201.0,-146.0,-127.0,-8.0,-220.0,126.0,-781.0,-617.0
21.0,-204.0,-147.0,-166.0,-52.0,-222.0,128.0,-773.0,-630.0
18.0,-199.0,-149.0,-196.0,-91.0,-218.0,107.0,-767.0,-648.0
22.0,-201.0,-149.0,-212.0,-121.0,-205.0,105.0,-760.0,-667.0
15.0,-200.0,-151.0,-209.0,-144.0,-203.0,90.0,-763.0,-673.0
14.0,-199.0,-158.0,-196.0,-161.0,-197.0,88.0,-752.0,-690.0
13.0,-201.0,-162.0,-178.0,-177.0,-189.0,79.0,-763.0,-705.0
8.0,-202.0,-170.0,-155.0,-196.0,-186.0,70.0,-759.0,-711.0
2.0,-197.0,-167.0,-120.0,-221.0,-186.0,45.0,-762.0,-729.0
2.0,-203.0,-169.0,-87.0,-259.0,-176.0,36.0,-765.0,-738.0
1.0,-200.0,-177.0,-60.0,-310.0,-165.0,30.0,-763.0,-749.0
2.0,-198.0,-172.0,-47.0,-352.0,-154.0,36.0,-749.0,-744.0
0.0,-192.0,-175.0,-32.0,-381.0,-147.0,37.0,-733.0,-749.0
1.0,-187.0,-183.0,-26.0,-399.0,-137.0,23.0,-721.0,-780.0
2.0,-188.0,-180.0,-48.0,-416.0,-120.0,43.0,-719.0,-777.0
15.0,-192.0,-177.0,-74.0,-414.0,-104.0,86.0,-733.0,-761.0
25.0,-197.0,-170.0,-97.0,-399.0,-90.0,124.0,-748.0,-745.0
30.0,-200.0,-173.0,-121.0,-382.0,-88.0,148.0,-775.0,-739.0
37.0,-204.0,-170.0,-151.0,-365.0,-89.0,171.0,-782.0,-739.0
46.0,-208.0,-173.0,-186.0,-352.0,-84.0,200.0,-798.0,-744.0
48.0,-214.0,-171.0,-232.0,-351.0,-73.0,225.0,-818.0,-747.0
58.0,-220.0,-178.0,-269.0,-355.0,-75.0,247.0,-832.0,-754.0
59.0,-225.0,-181.0,-296.0,-358.0,-79.0,262.0,-847.0,-765.0
63.0,-226.0,-178.0,-308.0,-353.0,-78.0,259.0,-857.0,-765.0
59.0,-232.0,-181.0,-302.0,-343.0,-71.0,256.0,-875.0,-779.0
53.0,-238.0,-175.0,-284.0,-333.0,-65.0,244.0,-897.0,-766.0
52.0,-242.0,-178.0,-246.0,-328.0,-60.0,229.0,-908.0,-768.0
47.0,-243.0,-178.0,-194.0,-317.0,-58.0,208.0,-910.0,-760.0
36.0,-241.0,-177.0,-133.0,-303.0,-58.0,163.0,-911.0,-771.0
33.0,-237.0,-179.0,-71.0,-295.0,-56.0,143.0,-895.0,-771.0
18.0,-236.0,-180.0,-12.0,-288.0,-56.0,108.0,-898.0,-777.0
11.0,-236.0,-181.0,33.0,-293.0,-53.0,76.0,-883.0,-782.0
4.0,-226.0,-180.0,67.0,-308.0,-49.0,62.0,-867.0,-780.0
4.0,-225.0,-181.0,95.0,-321.0,-44.0,38.0,-852.0,-774.0
1.0,-219.0,-179.0,113.0,-330.0,-38.0,30.0,-839.0,-776.0
1.0,-213.0,-176.0,121.0,-332.0,-29.0,27.0,-824.0,-766.0
2.0,-211.0,-177.0,116.0,-332.0,-24.0,31.0,-816.0,-760.0
2.0,-209.0,-174.0,105.0,-331.0,-26.0,26.0,-795.0,-752.0
-3.0,-203.0,-177.0,92.0,-337.0,-31.0,16.0,-782.0,-756.0
3.0,-204.0,-179.0,67.0,-357.0,-31.0,40.0,-769.0,-768.0
3.0,-198.0,-181.0,36.0,-369.0,-39.0,42.0,-763.0,-770.0
8.0,-202.0,-178.0,10.0,-359.0,-40.0,48.0,-760.0,-765.0
10.0,-202.0,-174.0,-13.0,-338.0,-32.0,64.0,-769.0,-763.0
16.0,-202.0,-176.0,-34.0,-314.0,-26.0,87.0,-776.0,-759.0
22.0,-205.0,-179.0,-53.0,-296.0,-20.0,104.0,-785.0,-761.0
31.0,-209.0,-176.0,-69.0,-280.0,-22.0,140.0,-796.0,-758.0
28.0,-212.0,-178.0,-81.0,-263.0,-20.0,145.0,-805.0,-769.0
35.0,-213.0,-179.0,-95.0,-251.0,-14.0,162.0,-806.0,-774.0
37.0,-213.0,-179.0,-107.0,-233.0,-9.0,172.0,-814.0,-778.0
34.0,-212.0,-180.0,-114.0,-215.0,-1.0,164.0,-811.0,-780.0
36.0,-214.0,-181.0,-121.0,-204.0,9.0,152.0,-816.0,-780.0
30.0,-219.0,-184.0,-124.0,-205.0,20.0,141.0,-814.0,-779.0
23.0,-215.0,-180.0,-116.0,-209.0,31.0,131.0,-822.0,-782.0
16.0,-215.0,-182.0,-105.0,-219.0,41.0,108.0,-829.0,-779.0
13.0,-218.0,-184.0,-92.0,-240.0,46.0,92.0,-829.0,-778.0
10.0,-224.0,-181.0,-72.0,-259.0,50.0,72.0,-844.0,-782.0
3.0,-225.0,-186.0,-51.0,-277.0,55.0,49.0,-850.0,-784.0
1.0,-226.0,-182.0,-16.0,-296.0,59.0,31.0,-860.0,-780.0
-7.0,-227.0,-182.0,29.0,-312.0,57.0,11.0,-857.0,-773.0
-10.0,-228.0,-181.0,78.0,-329.0,54.0,-16.0,-857.0,-775.0
-10.0,-222.0,-178.0,124.0,-345.0,50.0,-24.0,-853.0,-769.0
-14.0,-221.0,-178.0,158.0,-362.0,41.0,-34.0,-836.0,-772.0
-18.0,-214.0,-180.0,185.0,-381.0,31.0,-43.0,-834.0,-777.0
-16.0,-212.0,-179.0,203.0,-405.0,23.0,-40.0,-817.0,-787.0
-18.0,-213.0,-184.0,214.0,-420.0,13.0,-40.0,-810.0,-792.0
-17.0,-209.0,-187.0,222.0,-433.0,6.0,-37.0,-813.0,-794.0
-14.0,-211.0,-184.0,224.0,-445.0,0.0,-28.0,-815.0,-796.0
-6.0,-210.0,-184.0,218.0,-454.0,-4.0,1.0,-812.0,-797.0
1.0,-210.0,-189.0,205.0,-452.0,-4.0,24.0,-809.0,-803.0
3.0,-213.0,-187.0,181.0,-446.0,-8.0,43.0,-809.0,-808.0
12.0,-212.0,-193.0,151.0,-438.0,-11.0,58.0,-812.0,-833.0
10.0,-213.0,-197.0,124.0,-425.0,-8.0,73.0,-820.0,-835.0
17.0,-216.0,-195.0,106.0,-406.0,0.0,62.0,-820.0,-836.0
7.0,-221.0,-200.0,100.0,-390.0,7.0,54.0,-838.0,-851.0
6.0,-223.0,-200.0,105.0,-381.0,11.0,48.0,-849.0,-849.0
3.0,-229.0,-199.0,117.0,-375.0,14.0,34.0,-857.0,-858.0
-3.0,-229.0,-197.0,136.0,-377.0,20.0,29.0,-865.0,-846.0
-2.0,-230.0,-197.0,164.0,-386.0,27.0,18.0,-870.0,-842.0
1.0,-233.0,-191.0,194.0,-398.0,37.0,23.0,-883.0,-829.0
3.0,-236.0,-189.0,223.0,-411.0,44.0,25.0,-881.0,-813.0
3.0,-232.0,-190.0,254.0,-416.0,49.0,42.0,-889.0,-806.0
7.0,-227.0,-189.0,279.0,-421.0,44.0,57.0,-870.0,-807.0
7.0,-224.0,-194.0,288.0,-432.0,27.0,59.0,-848.0,-809.0
10.0,-215.0,-189.0,277.0,-438.0,11.0,67.0,-833.0,-806.0
10.0,-210.0,-189.0,254.0,-436.0,-4.0,65.0,-806.0,-789.0
9.0,-204.0,-186.0,226.0,-431.0,-16.0,65.0,-791.0,-787.0
9.0,-202.0,-179.0,196.0,-429.0,-29.0,62.0,-784.0,-788.0
5.0,-201.0,-180.0,167.0,-423.0,-44.0,47.0,-775.0,-775.0
1.0,-203.0,-180.0,138.0,-415.0,-51.0,36.0,-767.0,-777.0
6.0,-204.0,-179.0,110.0,-413.0,-49.0,40.0,-788.0,-776.0
4.0,-214.0,-179.0,87.0,-407.0,-46.0,31.0,-799.0,-768.0
2.0,-215.0,-179.0,73.0,-397.0,-41.0,26.0,-813.0,-770.0
1.0,-219.0,-181.0,64.0,-382.0,-34.0,39.0,-844.0,-764.0
5.0,-224.0,-172.0,63.0,-364.0,-29.0,33.0,-850.0,-766.0
0.0,-226.0,-175.0,62.0,-346.0,-26.0,32.0,-854.0,-769.0
2.0,-228.0,-175.0,55.0,-322.0,-22.0,36.0,-874.0,-750.0
0.0,-228.0,-169.0,59.0,-298.0,-24.0,19.0,-867.0,-737.0
-2.0,-228.0,-171.0,63.0,-275.0,-24.0,14.0,-869.0,-733.0
-2.0,-231.0,-171.0,68.0,-255.0,-22.0,13.0,-873.0,-734.0
-3.0,-233.0,-173.0,75.0,-238.0,-22.0,1.0,-871.0,-734.0
-7.0,-224.0,-175.0,82.0,-228.0,-26.0,-8.0,-859.0,-751.0
-12.0,-220.0,-178.0,85.0,-226.0,-29.0,-21.0,-846.0,-766.0
-12.0,-217.0,-181.0,88.0,-229.0,-31.0,-24.0,-828.0,-772.0
-11.0,-221.0,-177.0,85.0,-232.0,-32.0,-30.0,-832.0,-768.0
-17.0,-219.0,-172.0,90.0,-231.0,-32.0,-44.0,-839.0,-761.0
-18.0,-223.0,-173.0,95.0,-225.0,-33.0,-48.0,-847.0,-740.0
-20.0,-224.0,-171.0,106.0,-216.0,-32.0,-42.0,-852.0,-729.0
-14.0,-225.0,-166.0,117.0,-206.0,-33.0,-41.0,-852.0,-724.0
-17.0,-221.0,-171.0,128.0,-197.0,-41.0,-33.0,-849.0,-728.0
-12.0,-223.0,-165.0,139.0,-187.0,-51.0,-36.0,-850.0,-728.0
-17.0,-222.0,-165.0,150.0,-178.0,-60.0,-48.0,-846.0,-711.0
-17.0,-221.0,-160.0,159.0,-165.0,-63.0,-45.0,-848.0,-697.0
-13.0,-222.0,-156.0,170.0,-150.0,-61.0,-37.0,-845.0,-687.0
-9.0,-224.0,-154.0,176.0,-133.0,-58.0,-27.0,-847.0,-687.0
-13.0,-217.0,-156.0,181.0,-117.0,-49.0,-29.0,-841.0,-692.0
-11.0,-217.0,-161.0,175.0,-106.0,-40.0,-19.0,-836.0,-699.0
-5.0,-208.0,-164.0,170.0,-94.0,-27.0,-17.0,-828.0,-702.0
-10.0,-217.0,-162.0,167.0,-82.0,-14.0,-16.0,-828.0,-705.0
-8.0,-218.0,-159.0,165.0,-66.0,-2.0,-17.0,-828.0,-698.0
-7.0,-219.0,-155.0,163.0,-51.0,8.0,-5.0,-836.0,-690.0
-10.0,-219.0,-156.0,173.0,-34.0,11.0,-14.0,-834.0,-678.0
-14.0,-215.0,-154.0,186.0,-25.0,16.0,-28.0,-826.0,-677.0
-16.0,-212.0,-156.0,196.0,-23.0,17.0,-27.0,-818.0,-673.0
-20.0,-209.0,-156.0,205.0,-28.0,18.0,-45.0,-808.0,-675.0
-20.0,-208.0,-156.0,202.0,-41.0,19.0,-51.0,-808.0,-683.0
-21.0,-210.0,-161.0,191.0,-54.0,20.0,-57.0,-809.0,-688.0
-21.0,-214.0,-157.0,170.0,-69.0,19.0,-57.0,-815.0,-699.0
-20.0,-212.0,-160.0,144.0,-77.0,19.0,-61.0,-824.0,-703.0
-18.0,-216.0,-163.0,118.0,-84.0,21.0,-47.0,-834.0,-706.0
-15.0,-216.0,-163.0,100.0,-87.0,22.0,-38.0,-835.0,-708.0
-17.0,-219.0,-166.0,88.0,-87.0,22.0,-42.0,-844.0,-707.0
-16.0,-219.0,-167.0,85.0,-89.0,22.0,-41.0,-847.0,-707.0
-16.0,-224.0,-160.0,90.0,-90.0,24.0,-40.0,-845.0,-705.0
-16.0,-223.0,-164.0,99.0,-83.0,23.0,-32.0,-851.0,-703.0
-12.0,-221.0,-160.0,109.0,-74.0,20.0,-35.0,-846.0,-697.0
-12.0,-222.0,-160.0,115.0,-64.0,18.0,-29.0,-846.0,-699.0
-10.0,-219.0,-164.0,119.0,-51.0,15.0,-25.0,-837.0,-709.0
-15.0,-215.0,-164.0,116.0,-35.0,16.0,-35.0,-832.0,-702.0
-22.0,-215.0,-161.0,115.0,-24.0,16.0,-45.0,-834.0,-698.0
-11.0,-221.0,-160.0,112.0,-15.0,18.0,-20.0,-841.0,-702.0
-13.0,-218.0,-159.0,111.0,-4.0,16.0,-26.0,-843.0,-693.0
-15.0,-222.0,-160.0,107.0,6.0,15.0,-28.0,-851.0,-694.0
-12.0,-224.0,-161.0,111.0,10.0,9.0,-38.0,-853.0,-697.0
-15.0,-225.0,-157.0,118.0,14.0,4.0,-33.0,-849.0,-708.0
-15.0,-217.0,-162.0,126.0,15.0,-1.0,-32.0,-846.0,-704.0
-11.0,-219.0,-159.0,132.0,18.0,-4.0,-37.0,-843.0,-698.0
-15.0,-221.0,-159.0,140.0,23.0,-5.0,-33.0,-845.0,-693.0
-16.0,-220.0,-159.0,149.0,32.0,-8.0,-40.0,-839.0,-691.0
-15.0,-217.0,-158.0,153.0,40.0,-9.0,-49.0,-837.0,-691.0
-19.0,-221.0,-161.0,158.0,42.0,-15.0,-45.0,-841.0,-690.0
-18.0,-218.0,-159.0,161.0,48.0,-19.0,-47.0,-840.0,-688.0
-19.0,-217.0,-162.0,159.0,55.0,-22.0,-50.0,-835.0,-686.0
-21.0,-218.0,-155.0,154.0,60.0,-22.0,-63.0,-838.0,-684.0
-19.0,-220.0,-153.0,143.0,65.0,-21.0,-54.0,-833.0,-685.0
-21.0,-221.0,-151.0,136.0,67.0,-19.0,-50.0,-844.0,-676.0
-17.0,-219.0,-156.0,129.0,69.0,-20.0,-47.0,-842.0,-672.0
-16.0,-220.0,-154.0,127.0,71.0,-18.0,-43.0,-845.0,-665.0
-15.0,-216.0,-157.0,127.0,73.0,-17.0,-37.0,-823.0,-669.0
-13.0,-214.0,-154.0,124.0,78.0,-12.0,-33.0,-814.0,-674.0
-15.0,-209.0,-158.0,114.0,80.0,-9.0,-28.0,-805.0,-684.0
-21.0,-202.0,-163.0,104.0,86.0,-5.0,-34.0,-796.0,-688.0
-15.0,-205.0,-160.0,87.0,91.0,0.0,-35.0,-792.0,-689.0
-16.0,-206.0,-158.0,70.0,94.0,5.0,-44.0,-790.0,-686.0
-19.0,-209.0,-158.0,54.0,101.0,8.0,-51.0,-797.0,-687.0
-18.0,-211.0,-154.0,42.0,105.0,12.0,-62.0,-805.0,-680.0
-22.0,-212.0,-154.0,38.0,112.0,15.0,-59.0,-806.0,-660.0
-24.0,-216.0,-152.0,41.0,117.0,16.0,-64.0,-815.0,-664.0
-24.0,-210.0,-156.0,48.0,118.0,16.0,-69.0,-811.0,-660.0
-22.0,-211.0,-154.0,53.0,120.0,16.0,-65.0,-803.0,-661.0
-19.0,-208.0,-155.0,54.0,121.0,15.0,-57.0,-801.0,-670.0
-17.0,-204.0,-157.0,50.0,122.0,15.0,-44.0,-793.0,-674.0
-16.0,-208.0,-157.0,45.0,126.0,19.0,-42.0,-796.0,-681.0
-15.0,-208.0,-151.0,36.0,131.0,23.0,-37.0,-798.0,-680.0
-16.0,-210.0,-157.0,32.0,136.0,27.0,-36.0,-797.0,-686.0
-18.0,-209.0,-155.0,29.0,140.0,31.0,-36.0,-801.0,-682.0
-15.0,-208.0,-155.0,31.0,140.0,35.0,-43.0,-795.0,-682.0
-19.0,-206.0,-158.0,34.0,138.0,39.0,-46.0,-799.0,-679.0
-22.0,-205.0,-155.0,37.0,131.0,41.0,-46.0,-800.0,-667.0
-19.0,-210.0,-153.0,42.0,119.0,41.0,-49.0,-805.0,-663.0
-21.0,-211.0,-153.0,44.0,106.0,39.0,-57.0,-806.0,-661.0
-22.0,-212.0,-154.0,46.0,93.0,36.0,-50.0,-808.0,-666.0
-29.0,-214.0,-161.0,42.0,81.0,30.0,-50.0,-812.0,-673.0
-18.0,-213.0,-157.0,38.0,71.0,25.0,-44.0,-817.0,-677.0
-18.0,-214.0,-154.0,37.0,68.0,19.0,-47.0,-816.0,-668.0
-15.0,-213.0,-153.0,36.0,68.0,16.0,-38.0,-823.0,-674.0
-14.0,-213.0,-157.0,35.0,75.0,12.0,-36.0,-819.0,-670.0
-18.0,-214.0,-158.0,32.0,87.0,8.0,-37.0,-814.0,-667.0
-15.0,-210.0,-152.0,33.0,103.0,7.0,-43.0,-807.0,-675.0
-19.0,-208.0,-157.0,32.0,116.0,5.0,-55.0,-807.0,-678.0
-17.0,-212.0,-154.0,31.0,130.0,8.0,-49.0,-811.0,-666.0
-17.0,-213.0,-154.0,31.0,140.0,8.0,-49.0,-808.0,-666.0
-17.0,-212.0,-151.0,29.0,151.0,7.0,-54.0,-812.0,-662.0
-22.0,-213.0,-149.0,29.0,158.0,4.0,-49.0,-815.0,-661.0
-18.0,-210.0,-149.0,27.0,165.0,0.0,-50.0,-812.0,-659.0
-18.0,-211.0,-151.0,21.0,169.0,-3.0,-56.0,-808.0,-661.0
-20.0,-209.0,-149.0,15.0,171.0,-5.0,-61.0,-800.0,-658.0
-18.0,-209.0,-151.0,10.0,174.0,-6.0,-54.0,-795.0,-661.0
-21.0,-206.0,-156.0,7.0,174.0,-8.0,-49.0,-795.0,-664.0
-18.0,-204.0,-151.0,7.0,174.0,-9.0,-54.0,-792.0,-660.0
-13.0,-210.0,-153.0,5.0,175.0,-6.0,-42.0,-796.0,-661.0
-13.0,-207.0,-150.0,6.0,175.0,-4.0,-35.0,-793.0,-661.0
-17.0,-207.0,-152.0,10.0,176.0,-2.0,-36.0,-800.0,-655.0
-15.0,-208.0,-151.0,14.0,175.0,1.0,-38.0,-805.0,-657.0
-12.0,-209.0,-160.0,19.0,173.0,1.0,-36.0,-805.0,-655.0
-16.0,-210.0,-150.0,21.0,167.0,4.0,-36.0,-805.0,-660.0
-16.0,-211.0,-150.0,22.0,164.0,8.0,-39.0,-798.0,-657.0
-14.0,-208.0,-154.0,19.0,159.0,11.0,-40.0,-806.0,-665.0
-17.0,-207.0,-152.0,15.0,155.0,12.0,-41.0,-805.0,-666.0
-15.0,-208.0,-156.0,14.0,152.0,14.0,-45.0,-803.0,-668.0
-19.0,-208.0,-156.0,13.0,150.0,17.0,-42.0,-798.0,-665.0
-15.0,-209.0,-156.0,13.0,150.0,20.0,-45.0,-797.0,-660.0
-17.0,-210.0,-149.0,14.0,150.0,23.0,-40.0,-804.0,-655.0
-14.0,-210.0,-148.0,19.0,152.0,23.0,-38.0,-808.0,-647.0
-14.0,-212.0,-149.0,22.0,154.0,24.0,-40.0,-806.0,-646.0
-14.0,-209.0,-148.0,27.0,154.0,24.0,-38.0,-802.0,-644.0
-15.0,-207.0,-148.0,26.0,154.0,24.0,-35.0,-801.0,-650.0
-15.0,-208.0,-152.0,26.0,154.0,22.0,-40.0,-794.0,-657.0
-17.0,-205.0,-152.0,25.0,154.0,22.0,-48.0,-796.0,-654.0
-15.0,-206.0,-152.0,19.0,152.0,22.0,-48.0,-801.0,-657.0
-18.0,-210.0,-151.0,15.0,152.0,24.0,-43.0,-802.0,-659.0
-19.0,-209.0,-150.0,11.0,149.0,23.0,-46.0,-795.0,-660.0
-18.0,-209.0,-149.0,9.0,148.0,23.0,-39.0,-805.0,-654.0
-15.0,-208.0,-147.0,6.0,146.0,23.0,-39.0,-804.0,-653.0
-18.0,-208.0,-146.0,7.0,143.0,22.0,-36.0,-807.0,-649.0
-16.0,-212.0,-152.0,8.0,139.0,20.0,-34.0,-808.0,-648.0
-20.0,-208.0,-152.0,9.0,137.0,17.0,-34.0,-811.0,-648.0
-13.0,-209.0,-147.0,11.0,132.0,16.0,-34.0,-804.0,-647.0
-16.0,-209.0,-151.0,13.0,129.0,15.0,-31.0,-808.0,-648.0
-14.0,-208.0,-151.0,9.0,125.0,15.0,-34.0,-800.0,-656.0
-14.0,-207.0,-150.0,3.0,121.0,17.0,-26.0,-799.0,-652.0
-13.0,-209.0,-148.0,-3.0,121.0,18.0,-31.0,-798.0,-647.0
-14.0,-207.0,-151.0,-6.0,120.0,21.0,-34.0,-801.0,-654.0
-16.0,-207.0,-151.0,-9.0,116.0,19.0,-35.0,-796.0,-655.0
-13.0,-210.0,-149.0,-11.0,114.0,19.0,-34.0,-801.0,-652.0
-13.0,-207.0,-150.0,-13.0,109.0,17.0,-42.0,-800.0,-652.0
-17.0,-211.0,-149.0,-15.0,104.0,15.0,-40.0,-800.0,-649.0
-14.0,-213.0,-149.0,-17.0,99.0,14.0,-40.0,-805.0,-646.0
-16.0,-214.0,-149.0,-21.0,94.0,13.0,-40.0,-801.0,-649.0
-16.0,-211.0,-148.0,-25.0,88.0,10.0,-42.0,-803.0,-648.0
-16.0,-211.0,-148.0,-28.0,84.0,9.0,-41.0,-808.0,-654.0
-17.0,-210.0,-148.0,-29.0,80.0,9.0,-46.0,-811.0,-645.0
-19.0,-211.0,-150.0,-30.0,77.0,9.0,-41.0,-814.0,-648.0
-17.0,-212.0,-151.0,-29.0,73.0,10.0,-35.0,-818.0,-652.0
-14.0,-211.0,-150.0,-28.0,74.0,13.0,-34.0,-820.0,-658.0
-10.0,-214.0,-150.0,-28.0,74.0,14.0,-26.0,-816.0,-654.0
-14.0,-212.0,-152.0,-29.0,76.0,14.0,-29.0,-822.0,-654.0
-13.0,-211.0,-153.0,-32.0,78.0,16.0,-30.0,-817.0,-654.0
-17.0,-213.0,-144.0,-36.0,79.0,19.0,-31.0,-821.0,-654.0
-15.0,-214.0,-150.0,-37.0,80.0,23.0,-32.0,-823.0,-657.0
-12.0,-213.0,-149.0,-37.0,77.0,24.0,-33.0,-820.0,-658.0
-15.0,-217.0,-150.0,-36.0,75.0,24.0,-35.0,-828.0,-646.0
-17.0,-214.0,-149.0,-29.0,75.0,21.0,-32.0,-830.0,-653.0
-16.0,-216.0,-150.0,-22.0,72.0,17.0,-38.0,-818.0,-646.0
-13.0,-212.0,-150.0,-15.0,71.0,13.0,-38.0,-818.0,-646.0
-13.0,-214.0,-148.0,-12.0,68.0,11.0,-35.0,-811.0,-653.0
-16.0,-213.0,-149.0,-12.0,67.0,8.0,-35.0,-810.0,-653.0
-18.0,-210.0,-149.0,-13.0,64.0,5.0,-37.0,-805.0,-650.0
-11.0,-210.0,-152.0,-13.0,61.0,3.0,-34.0,-805.0,-648.0
-14.0,-209.0,-149.0,-15.0,62.0,2.0,-34.0,-804.0,-656.0
-15.0,-209.0,-149.0,-16.0,62.0,2.0,-33.0,-799.0,-655.0
-11.0,-209.0,-150.0,-16.0,65.0,2.0,-34.0,-804.0,-653.0
-13.0,-210.0,-150.0,-14.0,67.0,4.0,-34.0,-804.0,-646.0
-13.0,-211.0,-148.0,-11.0,67.0,5.0,-33.0,-804.0,-637.0
-13.0,-208.0,-148.0,-10.0,64.0,6.0,-34.0,-802.0,-637.0
-14.0,-210.0,-147.0,-10.0,61.0,5.0,-34.0,-803.0,-634.0
-16.0,-211.0,-149.0,-13.0,56.0,7.0,-36.0,-806.0,-640.0
-15.0,-207.0,-149.0,-21.0,48.0,8.0,-32.0,-807.0,-637.0
-16.0,-208.0,-147.0,-35.0,40.0,11.0,-30.0,-805.0,-636.0
-13.0,-206.0,-148.0,-50.0,31.0,13.0,-32.0,-794.0,-639.0
-17.0,-201.0,-144.0,-64.0,21.0,16.0,-34.0,-786.0,-649.0
-19.0,-200.0,-149.0,-74.0,14.0,19.0,-44.0,-770.0,-647.0
-18.0,-203.0,-149.0,-77.0,9.0,24.0,-54.0,-780.0,-645.0
-18.0,-203.0,-148.0,-80.0,5.0,35.0,-58.0,-786.0,-648.0
-21.0,-206.0,-147.0,-84.0,5.0,43.0,-54.0,-796.0,-646.0
-20.0,-208.0,-146.0,-87.0,7.0,50.0,-52.0,-800.0,-649.0
-20.0,-207.0,-148.0,-88.0,5.0,50.0,-55.0,-796.0,-642.0
-20.0,-207.0,-148.0,-84.0,-1.0,43.0,-61.0,-791.0,-647.0
-22.0,-205.0,-152.0,-83.0,-9.0,33.0,-71.0,-791.0,-646.0
-27.0,-203.0,-150.0,-85.0,-15.0,27.0,-79.0,-787.0,-643.0
-25.0,-207.0,-146.0,-90.0,-18.0,26.0,-78.0,-798.0,-643.0
-23.0,-211.0,-148.0,-99.0,-22.0,32.0,-73.0,-810.0,-636.0
-23.0,-214.0,-149.0,-104.0,-26.0,41.0,-68.0,-821.0,-650.0
-19.0,-218.0,-147.0,-109.0,-28.0,49.0,-55.0,-823.0,-649.0
-19.0,-217.0,-150.0,-109.0,-28.0,56.0,-49.0,-830.0,-642.0
-18.0,-215.0,-147.0,-105.0,-23.0,60.0,-40.0,-834.0,-647.0
-14.0,-217.0,-148.0,-95.0,-13.0,65.0,-42.0,-826.0,-647.0
-16.0,-218.0,-148.0,-82.0,0.0,67.0,-38.0,-835.0,-647.0
-13.0,-219.0,-148.0,-66.0,15.0,69.0,-44.0,-829.0,-643.0
-18.0,-218.0,-149.0,-49.0,25.0,71.0,-40.0,-830.0,-632.0
-16.0,-221.0,-147.0,-38.0,31.0,74.0,-43.0,-830.0,-633.0
-14.0,-219.0,-149.0,-29.0,30.0,72.0,-42.0,-831.0,-634.0
-15.0,-215.0,-147.0,-22.0,29.0,68.0,-34.0,-831.0,-633.0
-13.0,-217.0,-143.0,-21.0,33.0,62.0,-31.0,-828.0,-632.0
-11.0,-219.0,-146.0,-18.0,37.0,55.0,-34.0,-835.0,-632.0
-13.0,-218.0,-145.0,-12.0,50.0,51.0,-32.0,-837.0,-630.0
-14.0,-219.0,-145.0,-5.0,64.0,46.0,-39.0,-836.0,-631.0
-17.0,-220.0,-146.0,1.0,81.0,43.0,-36.0,-840.0,-630.0
-13.0,-219.0,-146.0,12.0,99.0,41.0,-38.0,-834.0,-631.0
-13.0,-217.0,-144.0,26.0,115.0,38.0,-33.0,-833.0,-626.0
-12.0,-218.0,-144.0,42.0,129.0,35.0,-33.0,-833.0,-627.0
-12.0,-215.0,-149.0,57.0,141.0,31.0,-36.0,-829.0,-634.0
-12.0,-213.0,-148.0,66.0,151.0,27.0,-27.0,-824.0,-632.0
-10.0,-217.0,-147.0,71.0,161.0,24.0,-24.0,-824.0,-625.0
-7.0,-216.0,-145.0,75.0,169.0,22.0,-22.0,-821.0,-632.0
-11.0,-217.0,-146.0,77.0,173.0,20.0,-21.0,-823.0,-631.0
-10.0,-216.0,-148.0,78.0,177.0,17.0,-17.0,-820.0,-638.0
-12.0,-214.0,-151.0,77.0,179.0,13.0,-22.0,-822.0,-638.0
-12.0,-213.0,-149.0,78.0,180.0,9.0,-18.0,-816.0,-650.0
-12.0,-212.0,-149.0,80.0,184.0,8.0,-22.0,-812.0,-643.0
-12.0,-213.0,-147.0,85.0,189.0,7.0,-19.0,-819.0,-641.0
-9.0,-209.0,-146.0,91.0,191.0,8.0,-20.0,-808.0,-649.0
-11.0,-208.0,-150.0,96.0,193.0,8.0,-20.0,-811.0,-650.0
-18.0,-217.0,-145.0,101.0,193.0,8.0,-27.0,-799.0,-640.0
-15.0,-207.0,-149.0,103.0,191.0,10.0,-27.0,-796.0,-644.0
-13.0,-206.0,-148.0,105.0,188.0,11.0,-30.0,-794.0,-639.0
-16.0,-204.0,-146.0,103.0,182.0,11.0,-31.0,-790.0,-645.0
-16.0,-205.0,-148.0,103.0,178.0,12.0,-37.0,-783.0,-645.0
-14.0,-205.0,-151.0,101.0,176.0,13.0,-43.0,-783.0,-639.0
-20.0,-207.0,-150.0,98.0,169.0,17.0,-50.0,-790.0,-636.0
-20.0,-203.0,-152.0,92.0,163.0,20.0,-54.0,-791.0,-639.0
-21.0,-206.0,-149.0,86.0,158.0,22.0,-52.0,-795.0,-635.0
-20.0,-205.0,-147.0,83.0,147.0,24.0,-52.0,-793.0,-638.0
-19.0,-206.0,-149.0,79.0,141.0,23.0,-60.0,-795.0,-639.0
-20.0,-206.0,-147.0,74.0,137.0,23.0,-55.0,-794.0,-634.0
-18.0,-210.0,-149.0,70.0,134.0,24.0,-57.0,-800.0,-633.0
-19.0,-211.0,-143.0,67.0,135.0,27.0,-51.0,-803.0,-626.0
-22.0,-208.0,-141.0,66.0,136.0,30.0,-49.0,-812.0,-624.0
-16.0,-210.0,-145.0,65.0,137.0,32.0,-42.0,-810.0,-620.0
-14.0,-209.0,-146.0,61.0,137.0,36.0,-36.0,-805.0,-620.0
-14.0,-209.0,-144.0,55.0,134.0,36.0,-33.0,-806.0,-624.0
-14.0,-211.0,-145.0,45.0,131.0,36.0,-27.0,-800.0,-624.0
-13.0,-207.0,-143.0,34.0,128.0,36.0,-24.0,-803.0,-626.0
-11.0,-209.0,-145.0,25.0,124.0,36.0,-27.0,-800.0,-634.0
-11.0,-212.0,-144.0,21.0,121.0,36.0,-22.0,-805.0,-626.0
-12.0,-212.0,-138.0,18.0,119.0,37.0,-22.0,-810.0,-628.0
-10.0,-214.0,-145.0,17.0,118.0,34.0,-26.0,-808.0,-627.0
-13.0,-211.0,-146.0,18.0,115.0,34.0,-29.0,-808.0,-627.0
-11.0,-213.0,-143.0,19.0,112.0,32.0,-30.0,-812.0,-629.0
-15.0,-212.0,-148.0,20.0,109.0,28.0,-33.0,-809.0,-630.0
-14.0,-215.0,-147.0,21.0,105.0,27.0,-33.0,-818.0,-633.0
-12.0,-217.0,-148.0,19.0,103.0,26.0,-35.0,-813.0,-631.0
-16.0,-210.0,-146.0,19.0,102.0,23.0,-36.0,-822.0,-631.0
-16.0,-214.0,-147.0,19.0,102.0,22.0,-33.0,-816.0,-629.0
-16.0,-216.0,-143.0,20.0,102.0,21.0,-39.0,-828.0,-624.0
-15.0,-214.0,-145.0,23.0,102.0,21.0,-37.0,-821.0,-625.0
-16.0,-216.0,-146.0,27.0,102.0,20.0,-35.0,-823.0,-629.0
-13.0,-214.0,-144.0,30.0,103.0,18.0,-37.0,-819.0,-630.0
-12.0,-215.0,-144.0,32.0,103.0,15.0,-34.0,-818.0,-626.0
-13.0,-211.0,-146.0,32.0,103.0,14.0,-31.0,-813.0,-628.0
-11.0,-213.0,-150.0,32.0,105.0,11.0,-32.0,-812.0,-630.0
-13.0,-210.0,-147.0,31.0,107.0,9.0,-31.0,-808.0,-629.0
-13.0,-211.0,-148.0,30.0,107.0,9.0,-35.0,-807.0,-632.0
-14.0,-211.0,-149.0,27.0,109.0,11.0,-37.0,-810.0,-631.0
-15.0,-213.0,-145.0,28.0,111.0,12.0,-43.0,-813.0,-629.0
-18.0,-215.0,-143.0,28.0,112.0,14.0,-46.0,-816.0,-621.0
-19.0,-215.0,-143.0,31.0,112.0,15.0,-46.0,-820.0,-625.0
-22.0,-221.0,-141.0,39.0,111.0,15.0,-47.0,-832.0,-623.0
-17.0,-219.0,-146.0,43.0,108.0,14.0,-40.0,-827.0,-621.0
-17.0,-215.0,-147.0,46.0,104.0,12.0,-43.0,-824.0,-625.0
-18.0,-213.0,-143.0,48.0,102.0,10.0,-42.0,-820.0,-623.0
-19.0,-212.0,-144.0,47.0,99.0,7.0,-47.0,-819.0,-626.0
-18.0,-213.0,-147.0,47.0,97.0,7.0,-50.0,-815.0,-635.0
-18.0,-214.0,-145.0,47.0,95.0,6.0,-50.0,-813.0,-630.0
-20.0,-211.0,-146.0,48.0,96.0,5.0,-54.0,-815.0,-632.0
-19.0,-212.0,-146.0,48.0,97.0,5.0,-52.0,-811.0,-624.0
-14.0,-212.0,-143.0,50.0,102.0,5.0,-45.0,-818.0,-628.0
-18.0,-213.0,-147.0,54.0,105.0,9.0,-43.0,-819.0,-623.0
-15.0,-214.0,-147.0,59.0,111.0,8.0,-47.0,-815.0,-620.0
-16.0,-213.0,-148.0,59.0,114.0,9.0,-45.0,-819.0,-621.0
-16.0,-213.0,-144.0,61.0,113.0,9.0,-43.0,-815.0,-626.0
-16.0,-211.0,-142.0,59.0,111.0,8.0,-40.0,-813.0,-617.0
-13.0,-213.0,-145.0,57.0,108.0,7.0,-37.0,-815.0,-624.0
-15.0,-210.0,-147.0,51.0,105.0,7.0,-39.0,-810.0,-633.0
-17.0,-211.0,-146.0,44.0,103.0,5.0,-41.0,-816.0,-631.0
-17.0,-211.0,-147.0,38.0,100.0,4.0,-46.0,-817.0,-634.0
-19.0,-212.0,-147.0,36.0,101.0,5.0,-52.0,-825.0,-628.0
-20.0,-215.0,-142.0,35.0,102.0,7.0,-50.0,-829.0,-625.0
-14.0,-210.0,-148.0,40.0,105.0,9.0,-55.0,-837.0,-622.0
-17.0,-217.0,-148.0,46.0,111.0,11.0,-50.0,-832.0,-627.0
-19.0,-215.0,-143.0,51.0,118.0,12.0,-45.0,-835.0,-626.0
-20.0,-216.0,-146.0,54.0,123.0,13.0,-47.0,-829.0,-624.0
-17.0,-215.0,-145.0,54.0,126.0,12.0,-48.0,-819.0,-629.0
-17.0,-213.0,-148.0,50.0,130.0,13.0,-41.0,-820.0,-630.0
-18.0,-213.0,-145.0,46.0,130.0,12.0,-44.0,-817.0,-631.0
-15.0,-214.0,-145.0,43.0,131.0,14.0,-48.0,-816.0,-629.0
-18.0,-212.0,-146.0,38.0,130.0,17.0,-49.0,-816.0,-630.0
-20.0,-213.0,-145.0,37.0,129.0,18.0,-46.0,-818.0,-627.0
-20.0,-215.0,-145.0,37.0,129.0,21.0,-58.0,-821.0,-627.0
-19.0,-217.0,-146.0,36.0,125.0,23.0,-54.0,-824.0,-628.0
-19.0,-218.0,-145.0,36.0,122.0,25.0,-54.0,-820.0,-629.0
-22.0,-216.0,-146.0,34.0,122.0,26.0,-59.0,-829.0,-630.0
-21.0,-217.0,-147.0,31.0,122.0,29.0,-60.0,-827.0,-627.0
-19.0,-219.0,-148.0,26.0,121.0,30.0,-55.0,-831.0,-627.0
-16.0,-220.0,-145.0,20.0,124.0,33.0,-59.0,-832.0,-624.0
-18.0,-217.0,-145.0,14.0,123.0,35.0,-46.0,-839.0,-626.0
-18.0,-221.0,-147.0,10.0,125.0,38.0,-45.0,-843.0,-630.0
-22.0,-220.0,-148.0,5.0,126.0,38.0,-55.0,-840.0,-628.0
-20.0,-217.0,-145.0,-1.0,125.0,42.0,-53.0,-839.0,-631.0
-20.0,-217.0,-151.0,-8.0,122.0,42.0,-54.0,-835.0,-636.0
-12.0,-222.0,-145.0,-13.0,119.0,42.0,-50.0,-832.0,-636.0
-16.0,-221.0,-147.0,-20.0,114.0,41.0,-51.0,-827.0,-633.0
-19.0,-215.0,-148.0,-24.0,112.0,38.0,-51.0,-829.0,-633.0
-17.0,-214.0,-148.0,-26.0,112.0,37.0,-45.0,-818.0,-631.0
-19.0,-213.0,-147.0,-27.0,114.0,33.0,-49.0,-824.0,-632.0
-19.0,-212.0,-143.0,-26.0,115.0,30.0,-49.0,-820.0,-625.0
-16.0,-214.0,-146.0,-24.0,115.0,26.0,-46.0,-820.0,-622.0
-19.0,-215.0,-146.0,-21.0,113.0,23.0,-50.0,-824.0,-625.0
-18.0,-216.0,-143.0,-21.0,108.0,22.0,-51.0,-826.0,-623.0
-17.0,-214.0,-148.0,-22.0,105.0,19.0,-51.0,-820.0,-630.0
-18.0,-216.0,-147.0,-23.0,100.0,18.0,-47.0,-826.0,-631.0
-18.0,-216.0,-146.0,-24.0,98.0,16.0,-47.0,-824.0,-633.0
-19.0,-219.0,-146.0,-25.0,97.0,14.0,-49.0,-827.0,-632.0
-17.0,-219.0,-148.0,-24.0,98.0,12.0,-46.0,-835.0,-635.0
-16.0,-220.0,-148.0,-21.0,99.0,9.0,-47.0,-834.0,-629.0
-17.0,-217.0,-146.0,-16.0,102.0,9.0,-44.0,-841.0,-631.0
-15.0,-220.0,-144.0,-10.0,102.0,5.0,-46.0,-836.0,-623.0
-14.0,-217.0,-147.0,-2.0,101.0,2.0,-44.0,-835.0,-626.0
-17.0,-216.0,-146.0,3.0,97.0,-3.0,-46.0,-834.0,-624.0
-21.0,-215.0,-146.0,8.0,94.0,-5.0,-44.0,-831.0,-623.0
-16.0,-216.0,-140.0,10.0,90.0,-7.0,-41.0,-828.0,-626.0
-17.0,-215.0,-142.0,7.0,85.0,-11.0,-44.0,-824.0,-619.0
-19.0,-209.0,-148.0,7.0,79.0,-14.0,-44.0,-820.0,-615.0
-16.0,-216.0,-138.0,7.0,74.0,-14.0,-46.0,-819.0,-619.0
-19.0,-213.0,-148.0,7.0,70.0,-15.0,-45.0,-817.0,-625.0
-17.0,-213.0,-142.0,7.0,66.0,-15.0,-47.0,-816.0,-622.0
-18.0,-211.0,-146.0,5.0,64.0,-16.0,-40.0,-818.0,-620.0
-16.0,-213.0,-145.0,2.0,65.0,-18.0,-46.0,-812.0,-622.0
-18.0,-210.0,-141.0,0.0,65.0,-16.0,-45.0,-813.0,-619.0
-18.0,-215.0,-144.0,-4.0,65.0,-17.0,-44.0,-815.0,-618.0
-12.0,-214.0,-144.0,-5.0,64.0,-18.0,-38.0,-813.0,-620.0
-14.0,-211.0,-144.0,-7.0,63.0,-19.0,-35.0,-815.0,-619.0
-18.0,-212.0,-146.0,-5.0,64.0,-21.0,-42.0,-816.0,-618.0
-16.0,-211.0,-146.0,-3.0,62.0,-23.0,-43.0,-809.0,-625.0
-15.0,-211.0,-144.0,-2.0,62.0,-26.0,-43.0,-811.0,-620.0
-17.0,-214.0,-145.0,-2.0,63.0,-26.0,-46.0,-810.0,-617.0
-17.0,-211.0,-142.0,-2.0,62.0,-28.0,-43.0,-816.0,-619.0
-18.0,-212.0,-142.0,-3.0,59.0,-28.0,-43.0,-811.0,-622.0
-14.0,-211.0,-143.0,-6.0,58.0,-28.0,-43.0,-810.0,-618.0
-20.0,-211.0,-140.0,-8.0,54.0,-29.0,-41.0,-811.0,-618.0
-14.0,-215.0,-144.0,-11.0,49.0,-29.0,-40.0,-811.0,-619.0
-17.0,-210.0,-141.0,-13.0,48.0,-29.0,-35.0,-811.0,-621.0
-15.0,-212.0,-142.0,-13.0,45.0,-30.0,-33.0,-813.0,-618.0
-18.0,-211.0,-141.0,-15.0,43.0,-30.0,-33.0,-812.0,-617.0
-6.0,-206.0,-152.0,-14.0,42.0,-30.0,-33.0,-808.0,-619.0
-16.0,-214.0,-145.0,-13.0,42.0,-30.0,-34.0,-812.0,-617.0
-16.0,-212.0,-143.0,-15.0,42.0,-27.0,-35.0,-811.0,-622.0
-17.0,-211.0,-146.0,-17.0,45.0,-24.0,-35.0,-810.0,-630.0
-16.0,-211.0,-151.0,-19.0,46.0,-22.0,-29.0,-818.0,-640.0
-11.0,-211.0,-150.0,-20.0,52.0,-17.0,-28.0,-803.0,-640.0
-14.0,-208.0,-148.0,-18.0,58.0,-14.0,-32.0,-800.0,-640.0
-14.0,-209.0,-150.0,-21.0,65.0,-11.0,-36.0,-796.0,-639.0
-15.0,-206.0,-147.0,-23.0,70.0,-8.0,-32.0,-797.0,-631.0
-14.0,-211.0,-140.0,-26.0,70.0,-8.0,-34.0,-800.0,-623.0
-15.0,-207.0,-143.0,-29.0,70.0,-10.0,-33.0,-800.0,-616.0
-15.0,-203.0,-139.0,-30.0,68.0,-9.0,-38.0,-802.0,-612.0
-15.0,-206.0,-135.0,-31.0,64.0,-8.0,-38.0,-801.0,-601.0
-13.0,-210.0,-137.0,-32.0,62.0,-10.0,-44.0,-804.0,-601.0
-17.0,-210.0,-135.0,-36.0,61.0,-8.0,-36.0,-798.0,-590.0
-15.0,-212.0,-140.0,-40.0,58.0,-6.0,-37.0,-811.0,-589.0
-16.0,-210.0,-138.0,-46.0,55.0,-5.0,-40.0,-805.0,-590.0
-16.0,-208.0,-137.0,-54.0,48.0,-5.0,-41.0,-796.0,-598.0
-17.0,-204.0,-142.0,-61.0,43.0,-5.0,-40.0,-794.0,-610.0
-14.0,-204.0,-140.0,-67.0,40.0,-3.0,-41.0,-796.0,-611.0
-14.0,-208.0,-140.0,-73.0,39.0,-1.0,-36.0,-793.0,-611.0
-17.0,-206.0,-145.0,-81.0,39.0,1.0,-35.0,-795.0,-611.0
-23.0,-219.0,-132.0,-88.0,40.0,3.0,-34.0,-810.0,-616.0
-15.0,-210.0,-142.0,-96.0,39.0,3.0,-32.0,-810.0,-617.0
-13.0,-211.0,-146.0,-103.0,38.0,2.0,-27.0,-817.0,-614.0
-13.0,-214.0,-144.0,-107.0,39.0,1.0,-32.0,-811.0,-613.0
-12.0,-213.0,-143.0,-108.0,44.0,2.0,-37.0,-815.0,-614.0
-13.0,-211.0,-140.0,-107.0,52.0,4.0,-35.0,-815.0,-616.0
-15.0,-216.0,-143.0,-109.0,61.0,7.0,-33.0,-816.0,-615.0
-13.0,-214.0,-144.0,-112.0,68.0,9.0,-34.0,-823.0,-619.0
-14.0,-215.0,-139.0,-117.0,72.0,7.0,-30.0,-826.0,-610.0
-15.0,-218.0,-142.0,-118.0,71.0,7.0,-29.0,-838.0,-613.0
-12.0,-220.0,-144.0,-117.0,67.0,5.0,-29.0,-844.0,-610.0
-12.0,-218.0,-142.0,-114.0,61.0,2.0,-28.0,-844.0,-619.0
-13.0,-222.0,-142.0,-109.0,53.0,-1.0,-31.0,-846.0,-620.0
-14.0,-223.0,-145.0,-101.0,50.0,-4.0,-29.0,-857.0,-625.0
-15.0,-226.0,-144.0,-91.0,47.0,-6.0,-33.0,-853.0,-630.0
-18.0,-220.0,-149.0,-81.0,47.0,-10.0,-32.0,-855.0,-626.0
-17.0,-222.0,-146.0,-72.0,50.0,-12.0,-33.0,-849.0,-630.0
-16.0,-224.0,-147.0,-65.0,51.0,-14.0,-36.0,-847.0,-630.0
-15.0,-222.0,-148.0,-59.0,53.0,-15.0,-31.0,-844.0,-632.0
-12.0,-219.0,-147.0,-54.0,53.0,-15.0,-32.0,-843.0,-631.0
-14.0,-218.0,-146.0,-50.0,54.0,-15.0,-32.0,-841.0,-634.0
-11.0,-224.0,-141.0,-45.0,56.0,-14.0,-30.0,-843.0,-635.0
-13.0,-219.0,-149.0,-39.0,60.0,-14.0,-25.0,-838.0,-634.0
-10.0,-220.0,-147.0,-35.0,62.0,-14.0,-27.0,-831.0,-632.0
-10.0,-220.0,-149.0,-32.0,66.0,-14.0,-29.0,-831.0,-634.0
-13.0,-215.0,-146.0,-28.0,69.0,-12.0,-33.0,-832.0,-634.0
-14.0,-218.0,-150.0,-24.0,71.0,-10.0,-34.0,-838.0,-637.0
-11.0,-218.0,-148.0,-22.0,74.0,-8.0,-34.0,-833.0,-636.0
-14.0,-216.0,-149.0,-23.0,78.0,-10.0,-36.0,-830.0,-634.0
-14.0,-214.0,-146.0,-24.0,80.0,-11.0,-30.0,-832.0,-635.0
-12.0,-219.0,-146.0,-25.0,83.0,-12.0,-34.0,-829.0,-636.0
-13.0,-213.0,-147.0,-29.0,82.0,-13.0,-33.0,-826.0,-634.0
-16.0,-212.0,-146.0,-30.0,83.0,-15.0,-27.0,-821.0,-632.0
-16.0,-212.0,-147.0,-30.0,85.0,-15.0,-33.0,-818.0,-630.0
-13.0,-215.0,-145.0,-31.0,86.0,-16.0,-32.0,-822.0,-627.0
-14.0,-211.0,-142.0,-32.0,85.0,-14.0,-32.0,-818.0,-624.0
-13.0,-212.0,-141.0,-33.0,86.0,-15.0,-33.0,-820.0,-626.0
-14.0,-213.0,-146.0,-38.0,83.0,-14.0,-35.0,-807.0,-620.0
-17.0,-207.0,-142.0,-46.0,79.0,-13.0,-35.0,-811.0,-624.0
-16.0,-208.0,-146.0,-56.0,75.0,-12.0,-39.0,-810.0,-625.0
-15.0,-211.0,-144.0,-65.0,68.0,-12.0,-38.0,-808.0,-620.0
-17.0,-209.0,-145.0,-75.0,61.0,-12.0,-51.0,-803.0,-622.0
-16.0,-210.0,-143.0,-84.0,56.0,-11.0,-44.0,-810.0,-623.0
-15.0,-211.0,-130.0,-94.0,52.0,-12.0,-45.0,-804.0,-617.0
-16.0,-211.0,-147.0,-105.0,47.0,-9.0,-45.0,-808.0,-615.0
-14.0,-213.0,-142.0,-118.0,43.0,-8.0,-38.0,-807.0,-617.0
-19.0,-207.0,-140.0,-132.0,37.0,-7.0,-45.0,-806.0,-611.0
-17.0,-209.0,-143.0,-142.0,32.0,-11.0,-43.0,-807.0,-609.0
-16.0,-207.0,-142.0,-154.0,26.0,-12.0,-43.0,-801.0,-616.0
-16.0,-210.0,-145.0,-164.0,23.0,-13.0,-45.0,-805.0,-617.0
-17.0,-211.0,-145.0,-170.0,21.0,-12.0,-40.0,-804.0,-623.0
-14.0,-209.0,-146.0,-174.0,22.0,-12.0,-35.0,-804.0,-626.0
-16.0,-209.0,-148.0,-175.0,25.0,-9.0,-40.0,-806.0,-634.0
-14.0,-209.0,-146.0,-173.0,29.0,-4.0,-39.0,-807.0,-639.0
-13.0,-208.0,-147.0,-168.0,34.0,-2.0,-40.0,-806.0,-637.0
-17.0,-208.0,-150.0,-162.0,39.0,2.0,-42.0,-804.0,-641.0
-16.0,-208.0,-146.0,-156.0,43.0,5.0,-45.0,-805.0,-637.0
-16.0,-208.0,-148.0,-147.0,45.0,7.0,-46.0,-802.0,-642.0
-17.0,-210.0,-148.0,-140.0,49.0,8.0,-53.0,-805.0,-642.0
-18.0,-209.0,-150.0,-135.0,49.0,9.0,-47.0,-807.0,-639.0
-21.0,-210.0,-149.0,-132.0,50.0,9.0,-50.0,-803.0,-639.0
-19.0,-209.0,-148.0,-130.0,50.0,11.0,-49.0,-800.0,-640.0
-15.0,-212.0,-147.0,-132.0,49.0,11.0,-45.0,-810.0,-633.0
-14.0,-213.0,-146.0,-134.0,50.0,8.0,-37.0,-803.0,-642.0
-14.0,-212.0,-149.0,-139.0,48.0,5.0,-38.0,-806.0,-642.0
-11.0,-207.0,-144.0,-142.0,46.0,2.0,-38.0,-805.0,-642.0
-14.0,-212.0,-150.0,-142.0,44.0,-1.0,-35.0,-812.0,-641.0
-10.0,-212.0,-150.0,-140.0,42.0,-4.0,-33.0,-810.0,-644.0
-13.0,-212.0,-149.0,-137.0,44.0,-4.0,-30.0,-805.0,-646.0
-15.0,-213.0,-150.0,-131.0,47.0,-8.0,-33.0,-813.0,-653.0
-15.0,-212.0,-148.0,-122.0,52.0,-9.0,-36.0,-809.0,-652.0
-14.0,-208.0,-152.0,-111.0,57.0,-12.0,-40.0,-804.0,-653.0
-13.0,-209.0,-149.0,-98.0,64.0,-13.0,-37.0,-806.0,-658.0
-17.0,-208.0,-150.0,-88.0,70.0,-13.0,-38.0,-802.0,-658.0
-11.0,-211.0,-152.0,-79.0,77.0,-14.0,-42.0,-806.0,-655.0
-14.0,-209.0,-151.0,-72.0,85.0,-13.0,-43.0,-804.0,-658.0
-18.0,-212.0,-150.0,-65.0,93.0,-11.0,-44.0,-812.0,-659.0
-15.0,-209.0,-151.0,-61.0,98.0,-7.0,-39.0,-802.0,-658.0
-15.0,-212.0,-147.0,-57.0,102.0,-7.0,-41.0,-808.0,-652.0
-16.0,-210.0,-151.0,-56.0,105.0,-6.0,-37.0,-810.0,-655.0
-15.0,-210.0,-151.0,-55.0,106.0,-4.0,-31.0,-813.0,-650.0
-13.0,-213.0,-150.0,-53.0,107.0,-6.0,-32.0,-805.0,-656.0
-13.0,-211.0,-150.0,-52.0,106.0,-7.0,-26.0,-807.0,-660.0
-11.0,-208.0,-152.0,-49.0,108.0,-7.0,-23.0,-805.0,-657.0
-14.0,-207.0,-153.0,-49.0,110.0,-5.0,-28.0,-801.0,-660.0
-11.0,-206.0,-153.0,-48.0,109.0,-6.0,-30.0,-798.0,-660.0
-13.0,-207.0,-150.0,-50.0,112.0,-4.0,-32.0,-798.0,-658.0
-13.0,-209.0,-160.0,-50.0,113.0,-5.0,-37.0,-795.0,-656.0
-15.0,-209.0,-149.0,-51.0,111.0,-4.0,-38.0,-788.0,-659.0
-16.0,-206.0,-151.0,-50.0,110.0,-2.0,-37.0,-791.0,-658.0
-17.0,-203.0,-157.0,-51.0,109.0,-4.0,-41.0,-792.0,-659.0
-18.0,-207.0,-149.0,-54.0,106.0,-3.0,-40.0,-792.0,-662.0
-21.0,-203.0,-150.0,-55.0,103.0,-6.0,-39.0,-794.0,-659.0
-18.0,-208.0,-152.0,-57.0,100.0,-7.0,-52.0,-799.0,-660.0
-16.0,-209.0,-149.0,-55.0,97.0,-11.0,-47.0,-799.0,-656.0
-16.0,-209.0,-152.0,-52.0,95.0,-12.0,-54.0,-797.0,-656.0
-18.0,-208.0,-149.0,-51.0,95.0,-14.0,-44.0,-810.0,-659.0
-17.0,-212.0,-154.0,-48.0,94.0,-14.0,-46.0,-806.0,-660.0
-20.0,-213.0,-154.0,-49.0,93.0,-15.0,-43.0,-817.0,-654.0
-20.0,-212.0,-151.0,-50.0,92.0,-17.0,-41.0,-814.0,-659.0
-16.0,-210.0,-153.0,-52.0,91.0,-18.0,-40.0,-813.0,-655.0
-19.0,-209.0,-152.0,-55.0,89.0,-20.0,-45.0,-813.0,-654.0
-17.0,-213.0,-152.0,-56.0,88.0,-22.0,-40.0,-815.0,-658.0
-13.0,-212.0,-151.0,-58.0,87.0,-23.0,-33.0,-805.0,-660.0
-14.0,-210.0,-155.0,-62.0,87.0,-24.0,-30.0,-800.0,-663.0
-14.0,-211.0,-156.0,-68.0,87.0,-23.0,-32.0,-801.0,-668.0
-13.0,-207.0,-154.0,-72.0,88.0,-24.0,-30.0,-799.0,-671.0
-14.0,-207.0,-154.0,-76.0,89.0,-22.0,-31.0,-794.0,-673.0
-12.0,-207.0,-152.0,-77.0,93.0,-20.0,-32.0,-792.0,-673.0
-14.0,-206.0,-157.0,-76.0,95.0,-18.0,-35.0,-796.0,-675.0
-14.0,-211.0,-154.0,-72.0,102.0,-15.0,-37.0,-797.0,-673.0
-14.0,-207.0,-156.0,-66.0,106.0,-10.0,-36.0,-796.0,-666.0
-13.0,-212.0,-152.0,-60.0,112.0,-5.0,-37.0,-800.0,-667.0
-15.0,-209.0,-157.0,-53.0,115.0,-3.0,-36.0,-795.0,-676.0
-16.0,-209.0,-155.0,-47.0,119.0,1.0,-37.0,-796.0,-668.0
-16.0,-206.0,-156.0,-44.0,122.0,5.0,-39.0,-797.0,-661.0
-13.0,-207.0,-157.0,-41.0,123.0,6.0,-35.0,-795.0,-661.0
-12.0,-211.0,-151.0,-41.0,125.0,9.0,-36.0,-796.0,-664.0
-14.0,-204.0,-150.0,-42.0,127.0,9.0,-35.0,-798.0,-659.0
-18.0,-205.0,-156.0,-46.0,126.0,9.0,-34.0,-798.0,-661.0
-15.0,-205.0,-154.0,-48.0,123.0,6.0,-35.0,-799.0,-668.0
-18.0,-203.0,-153.0,-51.0,119.0,3.0,-39.0,-804.0,-663.0
-16.0,-209.0,-155.0,-53.0,114.0,1.0,-42.0,-796.0,-669.0
-18.0,-207.0,-154.0,-56.0,110.0,0.0,-37.0,-800.0,-665.0
-16.0,-206.0,-156.0,-58.0,106.0,-3.0,-40.0,-795.0,-667.0
-13.0,-207.0,-155.0,-61.0,102.0,-5.0,-33.0,-796.0,-676.0
-16.0,-207.0,-155.0,-59.0,99.0,-6.0,-35.0,-795.0,-677.0
-18.0,-206.0,-160.0,-55.0,97.0,-6.0,-34.0,-796.0,-673.0
-11.0,-206.0,-155.0,-50.0,94.0,-4.0,-35.0,-790.0,-676.0
-15.0,-203.0,-157.0,-45.0,93.0,-5.0,-33.0,-791.0,-676.0
-23.0,-204.0,-157.0,-42.0,92.0,-5.0,-32.0,-788.0,-676.0
-16.0,-204.0,-155.0,-40.0,91.0,-5.0,-35.0,-792.0,-670.0
-13.0,-207.0,-157.0,-39.0,90.0,-5.0,-33.0,-792.0,-679.0
-16.0,-205.0,-155.0,-39.0,88.0,-5.0,-36.0,-793.0,-672.0
-16.0,-205.0,-152.0,-41.0,87.0,-4.0,-37.0,-793.0,-669.0
-15.0,-206.0,-151.0,-41.0,85.0,-5.0,-38.0,-791.0,-677.0
-17.0,-204.0,-156.0,-40.0,82.0,-6.0,-38.0,-791.0,-673.0
-17.0,-203.0,-152.0,-42.0,81.0,-5.0,-42.0,-794.0,-676.0
-16.0,-203.0,-158.0,-45.0,80.0,-7.0,-39.0,-793.0,-676.0
-16.0,-206.0,-155.0,-43.0,81.0,-8.0,-43.0,-788.0,-676.0
-15.0,-206.0,-155.0,-44.0,80.0,-8.0,-39.0,-785.0,-673.0
-16.0,-204.0,-154.0,-44.0,81.0,-11.0,-45.0,-783.0,-670.0
-16.0,-207.0,-155.0,-42.0,81.0,-13.0,-43.0,-791.0,-666.0
-15.0,-208.0,-155.0,-39.0,81.0,-11.0,-36.0,-790.0,-666.0
-16.0,-206.0,-150.0,-37.0,83.0,-11.0,-40.0,-794.0,-663.0
-16.0,-210.0,-157.0,-34.0,82.0,-12.0,-32.0,-791.0,-662.0
-12.0,-211.0,-154.0,-32.0,84.0,-12.0,-25.0,-795.0,-663.0
-13.0,-207.0,-152.0,-30.0,84.0,-12.0,-33.0,-798.0,-661.0
-15.0,-206.0,-148.0,-29.0,81.0,-14.0,-30.0,-794.0,-657.0
-11.0,-208.0,-152.0,-29.0,79.0,-15.0,-31.0,-795.0,-658.0
-11.0,-206.0,-153.0,-30.0,76.0,-17.0,-29.0,-794.0,-663.0
-11.0,-204.0,-150.0,-29.0,74.0,-18.0,-26.0,-790.0,-665.0
-15.0,-198.0,-158.0,-31.0,69.0,-18.0,-26.0,-792.0,-666.0
-13.0,-205.0,-154.0,-32.0,68.0,-18.0,-24.0,-787.0,-669.0
-14.0,-205.0,-153.0,-33.0,69.0,-19.0,-31.0,-791.0,-663.0
-14.0,-204.0,-154.0,-32.0,68.0,-19.0,-27.0,-791.0,-662.0
-12.0,-204.0,-151.0,-30.0,69.0,-19.0,-26.0,-789.0,-662.0
-10.0,-207.0,-152.0,-29.0,70.0,-17.0,-24.0,-797.0,-663.0
-12.0,-205.0,-152.0,-29.0,72.0,-17.0,-22.0,-788.0,-664.0
-12.0,-204.0,-153.0,-28.0,74.0,-17.0,-22.0,-783.0,-663.0
-12.0,-202.0,-156.0,-28.0,75.0,-19.0,-27.0,-786.0,-659.0
-9.0,-206.0,-150.0,-26.0,75.0,-20.0,-23.0,-782.0,-668.0
-13.0,-204.0,-152.0,-25.0,77.0,-20.0,-26.0,-787.0,-662.0
-12.0,-206.0,-152.0,-25.0,78.0,-20.0,-28.0,-782.0,-663.0
-14.0,-205.0,-155.0,-25.0,80.0,-20.0,-31.0,-791.0,-667.0
-11.0,-204.0,-155.0,-25.0,81.0,-21.0,-30.0,-793.0,-664.0
-11.0,-208.0,-150.0,-26.0,83.0,-21.0,-32.0,-794.0,-665.0
-14.0,-205.0,-153.0,-26.0,85.0,-22.0,-29.0,-797.0,-666.0
-15.0,-209.0,-151.0,-24.0,86.0,-23.0,-27.0,-795.0,-662.0
-11.0,-205.0,-153.0,-20.0,87.0,-26.0,-30.0,-796.0,-668.0
-10.0,-208.0,-155.0,-15.0,88.0,-26.0,-29.0,-793.0,-665.0
-11.0,-204.0,-150.0,-10.0,88.0,-29.0,-32.0,-792.0,-664.0
-10.0,-206.0,-154.0,-4.0,90.0,-29.0,-23.0,-788.0,-660.0
-10.0,-207.0,-151.0,0.0,90.0,-28.0,-21.0,-789.0,-661.0
-14.0,-201.0,-144.0,1.0,92.0,-28.0,-18.0,-786.0,-662.0
-11.0,-206.0,-153.0,3.0,93.0,-27.0,-23.0,-777.0,-659.0
-10.0,-207.0,-150.0,5.0,96.0,-26.0,-23.0,-784.0,-661.0
-10.0,-205.0,-155.0,7.0,101.0,-25.0,-24.0,-786.0,-662.0
-14.0,-203.0,-152.0,9.0,106.0,-26.0,-17.0,-789.0,-660.0
-11.0,-207.0,-152.0,14.0,111.0,-26.0,-26.0,-784.0,-661.0
-11.0,-203.0,-152.0,16.0,114.0,-25.0,-13.0,-790.0,-663.0
-8.0,-202.0,-151.0,17.0,120.0,-26.0,-18.0,-787.0,-662.0
-11.0,-205.0,-152.0,19.0,123.0,-26.0,-13.0,-787.0,-659.0
-11.0,-207.0,-154.0,21.0,125.0,-25.0,-22.0,-795.0,-662.0
-12.0,-208.0,-153.0,24.0,129.0,-26.0,-22.0,-793.0,-658.0
-9.0,-206.0,-156.0,27.0,133.0,-25.0,-20.0,-798.0,-662.0
-10.0,-205.0,-151.0,30.0,136.0,-25.0,-19.0,-797.0,-662.0
-12.0,-208.0,-153.0,35.0,138.0,-25.0,-20.0,-800.0,-661.0
-9.0,-209.0,-153.0,39.0,138.0,-24.0,-20.0,-800.0,-668.0
-6.0,-210.0,-153.0,41.0,141.0,-23.0,-16.0,-795.0,-666.0
-7.0,-206.0,-152.0,43.0,143.0,-24.0,-12.0,-796.0,-665.0
-12.0,-207.0,-156.0,45.0,144.0,-24.0,-15.0,-803.0,-675.0
-6.0,-208.0,-152.0,44.0,146.0,-23.0,-14.0,-803.0,-676.0
-6.0,-210.0,-154.0,44.0,148.0,-25.0,-10.0,-799.0,-670.0
-5.0,-211.0,-155.0,44.0,154.0,-27.0,-11.0,-802.0,-666.0
-9.0,-208.0,-152.0,47.0,160.0,-29.0,-5.0,-801.0,-662.0
-8.0,-214.0,-149.0,51.0,165.0,-31.0,-10.0,-802.0,-663.0
-4.0,-210.0,-152.0,54.0,172.0,-33.0,-10.0,-805.0,-660.0
-8.0,-211.0,-150.0,57.0,177.0,-33.0,-6.0,-807.0,-662.0
-9.0,-211.0,-151.0,58.0,181.0,-34.0,-11.0,-803.0,-661.0
-7.0,-207.0,-150.0,59.0,185.0,-38.0,-6.0,-801.0,-660.0
-5.0,-209.0,-153.0,60.0,188.0,-40.0,-10.0,-800.0,-660.0
-9.0,-208.0,-154.0,62.0,191.0,-44.0,-9.0,-796.0,-664.0
-5.0,-211.0,-153.0,65.0,196.0,-46.0,-4.0,-795.0,-662.0
-8.0,-208.0,-152.0,69.0,204.0,-48.0,-13.0,-804.0,-662.0
-8.0,-211.0,-152.0,74.0,212.0,-50.0,-6.0,-804.0,-664.0
-6.0,-209.0,-154.0,77.0,219.0,-53.0,-4.0,-806.0,-658.0
-5.0,-211.0,-152.0,80.0,223.0,-54.0,-2.0,-806.0,-657.0
-4.0,-212.0,-152.0,78.0,225.0,-55.0,-3.0,-813.0,-657.0
-4.0,-212.0,-155.0,71.0,225.0,-60.0,1.0,-808.0,-661.0
-4.0,-212.0,-151.0,63.0,223.0,-63.0,-4.0,-806.0,-666.0
-7.0,-209.0,-155.0,55.0,216.0,-67.0,-5.0,-806.0,-664.0
-10.0,-207.0,-156.0,49.0,209.0,-68.0,-8.0,-801.0,-671.0
-9.0,-210.0,-153.0,47.0,204.0,-70.0,-10.0,-811.0,-678.0
-10.0,-212.0,-156.0,45.0,201.0,-70.0,-11.0,-810.0,-680.0
-10.0,-213.0,-158.0,46.0,201.0,-69.0,-9.0,-818.0,-677.0
-10.0,-215.0,-157.0,49.0,201.0,-69.0,-12.0,-826.0,-680.0
-17.0,-224.0,-152.0,52.0,204.0,-66.0,-8.0,-832.0,-680.0
-8.0,-219.0,-156.0,56.0,207.0,-66.0,-7.0,-832.0,-688.0
-9.0,-217.0,-161.0,57.0,209.0,-62.0,-8.0,-833.0,-691.0
-9.0,-219.0,-161.0,58.0,212.0,-59.0,-12.0,-828.0,-693.0
-9.0,-218.0,-161.0,58.0,215.0,-57.0,-8.0,-833.0,-696.0
-6.0,-216.0,-164.0,59.0,217.0,-54.0,-9.0,-828.0,-699.0
-4.0,-216.0,-160.0,58.0,217.0,-49.0,-1.0,-838.0,-709.0
-2.0,-220.0,-170.0,55.0,220.0,-45.0,-6.0,-837.0,-711.0
-10.0,-218.0,-168.0,51.0,223.0,-40.0,-6.0,-837.0,-716.0
-7.0,-220.0,-168.0,44.0,224.0,-35.0,-6.0,-845.0,-723.0
-8.0,-221.0,-169.0,39.0,226.0,-32.0,-7.0,-844.0,-730.0
-10.0,-223.0,-170.0,31.0,225.0,-28.0,-24.0,-855.0,-740.0
-13.0,-225.0,-171.0,21.0,226.0,-22.0,-32.0,-862.0,-742.0
-18.0,-226.0,-176.0,13.0,225.0,-16.0,-38.0,-862.0,-752.0
-15.0,-229.0,-179.0,5.0,228.0,-5.0,-36.0,-877.0,-754.0
-14.0,-230.0,-180.0,0.0,232.0,6.0,-32.0,-883.0,-771.0
-12.0,-234.0,-180.0,-7.0,236.0,14.0,-32.0,-891.0,-774.0
-14.0,-235.0,-182.0,-14.0,236.0,21.0,-30.0,-904.0,-785.0
-14.0,-239.0,-182.0,-23.0,234.0,26.0,-30.0,-913.0,-785.0
-18.0,-234.0,-187.0,-30.0,231.0,28.0,-34.0,-916.0,-790.0
-13.0,-240.0,-186.0,-39.0,224.0,28.0,-28.0,-915.0,-797.0
-14.0,-240.0,-190.0,-47.0,218.0,20.0,-36.0,-915.0,-807.0
-20.0,-239.0,-193.0,-57.0,211.0,13.0,-37.0,-910.0,-813.0
-12.0,-237.0,-195.0,-68.0,204.0,4.0,-31.0,-905.0,-829.0
-14.0,-239.0,-196.0,-78.0,200.0,-5.0,-33.0,-910.0,-829.0
-16.0,-239.0,-198.0,-85.0,195.0,-10.0,-31.0,-899.0,-833.0
-16.0,-237.0,-196.0,-92.0,193.0,-15.0,-34.0,-905.0,-833.0
-16.0,-241.0,-196.0,-96.0,192.0,-16.0,-31.0,-913.0,-826.0
-11.0,-238.0,-195.0,-94.0,191.0,-17.0,-25.0,-908.0,-829.0
-11.0,-242.0,-194.0,-97.0,190.0,-17.0,-23.0,-912.0,-823.0
-9.0,-242.0,-190.0,-100.0,186.0,-16.0,-15.0,-919.0,-821.0
-7.0,-243.0,-195.0,-105.0,181.0,-19.0,-15.0,-924.0,-813.0
-5.0,-242.0,-189.0,-110.0,177.0,-26.0,-2.0,-922.0,-811.0
-5.0,-238.0,-187.0,-115.0,172.0,-32.0,1.0,-916.0,-806.0
-1.0,-240.0,-187.0,-117.0,169.0,-39.0,4.0,-914.0,-807.0
-6.0,-240.0,-188.0,-121.0,170.0,-45.0,-2.0,-909.0,-798.0
-7.0,-237.0,-186.0,-123.0,170.0,-47.0,6.0,-906.0,-796.0
-6.0,-235.0,-182.0,-125.0,173.0,-46.0,10.0,-895.0,-788.0
-5.0,-236.0,-181.0,-129.0,175.0,-45.0,6.0,-901.0,-780.0
-5.0,-237.0,-180.0,-129.0,175.0,-44.0,5.0,-898.0,-773.0
-4.0,-235.0,-178.0,-128.0,176.0,-43.0,11.0,-897.0,-766.0
-1.0,-237.0,-175.0,-129.0,175.0,-41.0,10.0,-893.0,-753.0
-4.0,-235.0,-172.0,-133.0,174.0,-45.0,11.0,-897.0,-751.0
-3.0,-240.0,-169.0,-133.0,172.0,-47.0,2.0,-897.0,-735.0
-6.0,-232.0,-176.0,-131.0,171.0,-51.0,4.0,-903.0,-725.0
-3.0,-237.0,-169.0,-123.0,172.0,-53.0,6.0,-900.0,-726.0
-4.0,-238.0,-167.0,-121.0,177.0,-54.0,8.0,-898.0,-722.0
-1.0,-235.0,-170.0,-119.0,177.0,-54.0,15.0,-897.0,-720.0
-3.0,-237.0,-166.0,-119.0,179.0,-56.0,16.0,-892.0,-722.0
0.0,-232.0,-164.0,-115.0,180.0,-57.0,22.0,-885.0,-713.0
1.0,-230.0,-168.0,-108.0,179.0,-55.0,27.0,-877.0,-709.0
0.0,-229.0,-163.0,-99.0,180.0,-51.0,21.0,-872.0,-709.0
-2.0,-226.0,-164.0,-85.0,180.0,-44.0,26.0,-869.0,-704.0
1.0,-228.0,-161.0,-69.0,180.0,-39.0,31.0,-869.0,-699.0
3.0,-228.0,-160.0,-53.0,181.0,-33.0,40.0,-874.0,-688.0
6.0,-230.0,-158.0,-37.0,179.0,-27.0,44.0,-877.0,-683.0
5.0,-229.0,-154.0,-16.0,181.0,-25.0,50.0,-881.0,-677.0
11.0,-232.0,-155.0,0.0,183.0,-22.0,56.0,-879.0,-670.0
9.0,-228.0,-154.0,12.0,187.0,-23.0,63.0,-877.0,-670.0
7.0,-227.0,-154.0,22.0,189.0,-27.0,68.0,-868.0,-668.0
6.0,-226.0,-155.0,29.0,190.0,-32.0,57.0,-862.0,-677.0
10.0,-224.0,-158.0,34.0,189.0,-36.0,50.0,-856.0,-680.0
7.0,-222.0,-154.0,35.0,188.0,-44.0,55.0,-846.0,-683.0
6.0,-221.0,-156.0,34.0,185.0,-51.0,53.0,-841.0,-686.0
5.0,-217.0,-158.0,36.0,186.0,-57.0,52.0,-842.0,-686.0
6.0,-217.0,-156.0,40.0,189.0,-61.0,47.0,-830.0,-679.0
11.0,-222.0,-153.0,43.0,195.0,-62.0,44.0,-828.0,-675.0
7.0,-219.0,-152.0,50.0,204.0,-66.0,54.0,-829.0,-664.0
8.0,-220.0,-151.0,57.0,212.0,-65.0,52.0,-837.0,-663.0
10.0,-220.0,-151.0,63.0,219.0,-63.0,59.0,-841.0,-664.0
8.0,-216.0,-158.0,67.0,222.0,-63.0,57.0,-835.0,-665.0
9.0,-220.0,-153.0,68.0,224.0,-62.0,58.0,-828.0,-677.0
8.0,-215.0,-156.0,68.0,220.0,-62.0,58.0,-829.0,-678.0
9.0,-215.0,-158.0,65.0,213.0,-61.0,61.0,-823.0,-686.0
9.0,-212.0,-161.0,55.0,206.0,-61.0,65.0,-819.0,-692.0
8.0,-212.0,-160.0,41.0,201.0,-60.0,63.0,-810.0,-692.0
14.0,-213.0,-163.0,26.0,196.0,-56.0,66.0,-808.0,-690.0
9.0,-214.0,-156.0,14.0,192.0,-52.0,71.0,-810.0,-683.0
9.0,-210.0,-155.0,7.0,191.0,-47.0,70.0,-811.0,-678.0
10.0,-216.0,-158.0,0.0,189.0,-44.0,66.0,-814.0,-680.0
8.0,-210.0,-159.0,-9.0,185.0,-44.0,68.0,-807.0,-679.0
10.0,-209.0,-160.0,-14.0,182.0,-45.0,59.0,-800.0,-679.0
8.0,-206.0,-156.0,-20.0,174.0,-47.0,54.0,-796.0,-679.0
6.0,-206.0,-155.0,-31.0,166.0,-46.0,52.0,-794.0,-687.0
4.0,-204.0,-160.0,-47.0,156.0,-42.0,48.0,-796.0,-681.0
10.0,-205.0,-159.0,-56.0,144.0,-42.0,50.0,-790.0,-682.0
7.0,-205.0,-159.0,-62.0,139.0,-45.0,52.0,-780.0,-683.0
6.0,-203.0,-159.0,-65.0,137.0,-45.0,55.0,-780.0,-693.0
8.0,-210.0,-167.0,-67.0,139.0,-41.0,50.0,-785.0,-697.0
2.0,-208.0,-167.0,-70.0,142.0,-38.0,45.0,-794.0,-699.0
3.0,-210.0,-167.0,-76.0,143.0,-36.0,39.0,-802.0,-712.0
5.0,-213.0,-166.0,-83.0,139.0,-31.0,40.0,-804.0,-707.0
3.0,-213.0,-167.0,-85.0,137.0,-27.0,43.0,-819.0,-709.0
4.0,-215.0,-163.0,-83.0,136.0,-24.0,49.0,-827.0,-711.0
6.0,-221.0,-165.0,-81.0,134.0,-14.0,55.0,-841.0,-708.0
7.0,-219.0,-163.0,-72.0,131.0,-10.0,59.0,-840.0,-702.0
8.0,-221.0,-165.0,-62.0,130.0,-5.0,60.0,-842.0,-712.0
9.0,-220.0,-163.0,-52.0,129.0,-6.0,63.0,-845.0,-704.0
11.0,-221.0,-161.0,-47.0,120.0,-7.0,66.0,-839.0,-697.0
9.0,-219.0,-159.0,-44.0,110.0,-10.0,70.0,-837.0,-694.0
6.0,-219.0,-160.0,-43.0,95.0,-17.0,58.0,-833.0,-696.0
8.0,-218.0,-155.0,-42.0,81.0,-20.0,53.0,-837.0,-685.0
5.0,-217.0,-159.0,-42.0,68.0,-22.0,53.0,-833.0,-682.0
7.0,-219.0,-159.0,-40.0,56.0,-24.0,53.0,-835.0,-673.0
4.0,-217.0,-153.0,-35.0,48.0,-20.0,45.0,-835.0,-665.0
3.0,-219.0,-154.0,-25.0,47.0,-16.0,48.0,-838.0,-671.0
8.0,-217.0,-155.0,-13.0,49.0,-13.0,63.0,-833.0,-665.0
10.0,-216.0,-158.0,-4.0,60.0,-11.0,72.0,-831.0,-663.0
12.0,-216.0,-155.0,1.0,76.0,-7.0,82.0,-826.0,-674.0
17.0,-213.0,-158.0,4.0,93.0,-1.0,84.0,-824.0,-678.0
13.0,-216.0,-158.0,0.0,105.0,3.0,76.0,-821.0,-688.0
11.0,-217.0,-161.0,-7.0,115.0,7.0,77.0,-820.0,-692.0
10.0,-212.0,-165.0,-16.0,115.0,11.0,71.0,-818.0,-694.0
11.0,-216.0,-160.0,-25.0,112.0,14.0,65.0,-827.0,-698.0
5.0,-214.0,-161.0,-33.0,107.0,16.0,55.0,-819.0,-706.0
9.0,-214.0,-163.0,-39.0,101.0,18.0,54.0,-826.0,-700.0
6.0,-216.0,-160.0,-41.0,93.0,22.0,52.0,-835.0,-694.0
3.0,-218.0,-157.0,-39.0,88.0,25.0,53.0,-830.0,-692.0
8.0,-221.0,-156.0,-33.0,88.0,27.0,57.0,-839.0,-691.0
8.0,-221.0,-157.0,-23.0,89.0,27.0,55.0,-844.0,-694.0
10.0,-221.0,-156.0,-13.0,95.0,26.0,58.0,-844.0,-688.0
5.0,-220.0,-159.0,-4.0,104.0,24.0,62.0,-840.0,-685.0
8.0,-218.0,-160.0,1.0,108.0,23.0,57.0,-844.0,-690.0
11.0,-222.0,-157.0,4.0,111.0,21.0,53.0,-847.0,-681.0
6.0,-221.0,-158.0,4.0,108.0,19.0,52.0,-848.0,-684.0
8.0,-222.0,-156.0,2.0,100.0,21.0,55.0,-845.0,-679.0
6.0,-223.0,-151.0,2.0,94.0,18.0,53.0,-847.0,-674.0
7.0,-222.0,-157.0,2.0,89.0,18.0,60.0,-849.0,-670.0
10.0,-223.0,-158.0,5.0,88.0,18.0,53.0,-852.0,-676.0
8.0,-222.0,-158.0,6.0,87.0,19.0,54.0,-856.0,-681.0
8.0,-222.0,-154.0,7.0,93.0,16.0,58.0,-857.0,-680.0
10.0,-234.0,-149.0,8.0,99.0,18.0,60.0,-855.0,-677.0
8.0,-224.0,-159.0,10.0,106.0,20.0,61.0,-860.0,-668.0
8.0,-225.0,-156.0,13.0,116.0,22.0,56.0,-856.0,-676.0
7.0,-225.0,-157.0,15.0,128.0,25.0,52.0,-856.0,-677.0
5.0,-224.0,-162.0,19.0,137.0,28.0,48.0,-854.0,-675.0
4.0,-222.0,-158.0,18.0,142.0,31.0,41.0,-854.0,-688.0
1.0,-220.0,-162.0,14.0,143.0,31.0,38.0,-851.0,-688.0
3.0,-223.0,-157.0,6.0,141.0,34.0,33.0,-852.0,-688.0
2.0,-223.0,-157.0,3.0,137.0,39.0,32.0,-848.0,-677.0
4.0,-223.0,-155.0,3.0,133.0,42.0,34.0,-836.0,-675.0
0.0,-220.0,-156.0,9.0,132.0,42.0,37.0,-846.0,-666.0
3.0,-221.0,-152.0,16.0,131.0,43.0,38.0,-844.0,-662.0
4.0,-220.0,-151.0,23.0,139.0,40.0,39.0,-845.0,-659.0
2.0,-221.0,-152.0,28.0,148.0,37.0,40.0,-843.0,-654.0
3.0,-218.0,-154.0,31.0,158.0,36.0,44.0,-844.0,-650.0
10.0,-219.0,-149.0,33.0,163.0,34.0,56.0,-841.0,-644.0
5.0,-217.0,-147.0,36.0,172.0,29.0,54.0,-840.0,-645.0
6.0,-219.0,-148.0,42.0,182.0,28.0,50.0,-839.0,-639.0
4.0,-220.0,-147.0,50.0,188.0,28.0,49.0,-838.0,-641.0
7.0,-222.0,-148.0,60.0,189.0,31.0,52.0,-842.0,-641.0
5.0,-219.0,-147.0,65.0,182.0,31.0,47.0,-839.0,-637.0
7.0,-217.0,-148.0,71.0,176.0,33.0,53.0,-835.0,-644.0
8.0,-229.0,-144.0,75.0,168.0,30.0,50.0,-829.0,-641.0
7.0,-219.0,-149.0,79.0,162.0,26.0,52.0,-831.0,-651.0
8.0,-219.0,-149.0,83.0,161.0,27.0,48.0,-833.0,-645.0
5.0,-217.0,-149.0,86.0,162.0,29.0,50.0,-827.0,-648.0
6.0,-216.0,-145.0,91.0,164.0,31.0,47.0,-831.0,-651.0
5.0,-217.0,-151.0,94.0,165.0,31.0,51.0,-824.0,-652.0
7.0,-218.0,-149.0,92.0,169.0,33.0,46.0,-823.0,-646.0
4.0,-217.0,-148.0,89.0,169.0,34.0,47.0,-819.0,-648.0
4.0,-217.0,-149.0,86.0,167.0,36.0,38.0,-824.0,-647.0
3.0,-218.0,-145.0,82.0,159.0,40.0,45.0,-824.0,-637.0
2.0,-215.0,-148.0,87.0,153.0,41.0,40.0,-827.0,-635.0
4.0,-218.0,-146.0,94.0,146.0,42.0,47.0,-833.0,-628.0
4.0,-217.0,-147.0,99.0,144.0,43.0,50.0,-833.0,-628.0
3.0,-217.0,-146.0,105.0,145.0,43.0,44.0,-832.0,-624.0
9.0,-219.0,-145.0,108.0,149.0,46.0,49.0,-826.0,-626.0
4.0,-217.0,-147.0,115.0,155.0,45.0,50.0,-823.0,-628.0
7.0,-213.0,-145.0,122.0,162.0,50.0,53.0,-817.0,-625.0
6.0,-215.0,-143.0,132.0,168.0,54.0,51.0,-812.0,-625.0
8.0,-212.0,-149.0,139.0,173.0,55.0,54.0,-811.0,-627.0
11.0,-211.0,-142.0,137.0,174.0,56.0,58.0,-807.0,-624.0
13.0,-210.0,-143.0,136.0,178.0,55.0,73.0,-801.0,-626.0
8.0,-208.0,-145.0,136.0,188.0,52.0,60.0,-791.0,-624.0
10.0,-200.0,-148.0,137.0,193.0,53.0,58.0,-793.0,-632.0
9.0,-207.0,-144.0,131.0,192.0,54.0,66.0,-798.0,-630.0
11.0,-209.0,-147.0,125.0,187.0,50.0,59.0,-797.0,-638.0
12.0,-209.0,-147.0,116.0,177.0,46.0,68.0,-792.0,-644.0
11.0,-209.0,-153.0,102.0,165.0,44.0,68.0,-800.0,-657.0
11.0,-209.0,-152.0,86.0,151.0,35.0,82.0,-798.0,-652.0
13.0,-204.0,-150.0,80.0,150.0,24.0,73.0,-790.0,-661.0
10.0,-209.0,-151.0,77.0,152.0,20.0,66.0,-791.0,-664.0
6.0,-207.0,-153.0,73.0,159.0,20.0,56.0,-790.0,-666.0
6.0,-208.0,-155.0,68.0,161.0,20.0,44.0,-796.0,-667.0
4.0,-208.0,-150.0,67.0,169.0,21.0,55.0,-795.0,-664.0
9.0,-209.0,-151.0,70.0,175.0,16.0,52.0,-789.0,-671.0
6.0,-206.0,-150.0,72.0,180.0,10.0,52.0,-791.0,-675.0
6.0,-205.0,-152.0,71.0,186.0,11.0,44.0,-791.0,-673.0
3.0,-206.0,-155.0,72.0,193.0,4.0,43.0,-790.0,-670.0
3.0,-208.0,-157.0,70.0,198.0,1.0,38.0,-794.0,-677.0
3.0,-209.0,-154.0,65.0,197.0,3.0,37.0,-793.0,-672.0
1.0,-209.0,-153.0,65.0,191.0,4.0,35.0,-806.0,-671.0
4.0,-214.0,-153.0,64.0,179.0,7.0,36.0,-817.0,-660.0
1.0,-215.0,-148.0,71.0,167.0,10.0,37.0,-826.0,-636.0
1.0,-221.0,-148.0,87.0,155.0,17.0,34.0,-841.0,-637.0
0.0,-221.0,-147.0,102.0,142.0,29.0,30.0,-856.0,-638.0
3.0,-228.0,-142.0,110.0,125.0,48.0,56.0,-862.0,-627.0
9.0,-229.0,-140.0,129.0,115.0,51.0,65.0,-863.0,-610.0
6.0,-227.0,-138.0,157.0,122.0,43.0,53.0,-861.0,-606.0
5.0,-226.0,-140.0,178.0,125.0,45.0,47.0,-860.0,-605.0
8.0,-224.0,-141.0,194.0,125.0,52.0,49.0,-861.0,-601.0
4.0,-226.0,-143.0,202.0,123.0,61.0,50.0,-858.0,-608.0
13.0,-225.0,-140.0,194.0,116.0,78.0,74.0,-857.0,-605.0
14.0,-225.0,-137.0,190.0,117.0,86.0,87.0,-852.0,-588.0
12.0,-221.0,-131.0,205.0,130.0,93.0,81.0,-844.0,-575.0
17.0,-220.0,-139.0,232.0,139.0,98.0,99.0,-834.0,-590.0
12.0,-219.0,-128.0,243.0,132.0,90.0,88.0,-823.0,-605.0
14.0,-215.0,-140.0,237.0,124.0,82.0,82.0,-815.0,-605.0
14.0,-209.0,-144.0,225.0,122.0,79.0,82.0,-809.0,-609.0
16.0,-213.0,-142.0,211.0,124.0,82.0,89.0,-804.0,-615.0
16.0,-210.0,-140.0,201.0,129.0,80.0,89.0,-793.0,-612.0
17.0,-208.0,-141.0,193.0,138.0,74.0,88.0,-791.0,-604.0
18.0,-209.0,-137.0,186.0,146.0,71.0,88.0,-788.0,-601.0
14.0,-207.0,-136.0,179.0,153.0,64.0,84.0,-794.0,-591.0
11.0,-206.0,-136.0,174.0,157.0,61.0,78.0,-789.0,-584.0
16.0,-205.0,-134.0,163.0,155.0,59.0,72.0,-787.0,-576.0
14.0,-207.0,-136.0,153.0,152.0,53.0,84.0,-792.0,-580.0
11.0,-204.0,-139.0,139.0,148.0,44.0,72.0,-794.0,-573.0
8.0,-205.0,-129.0,130.0,151.0,38.0,62.0,-790.0,-559.0
14.0,-212.0,-126.0,129.0,158.0,43.0,69.0,-803.0,-569.0
13.0,-212.0,-136.0,130.0,169.0,43.0,74.0,-814.0,-565.0
13.0,-214.0,-129.0,121.0,180.0,46.0,84.0,-823.0,-566.0
15.0,-219.0,-127.0,112.0,190.0,46.0,79.0,-830.0,-565.0
14.0,-216.0,-126.0,106.0,200.0,45.0,86.0,-827.0,-557.0
15.0,-220.0,-128.0,106.0,206.0,49.0,81.0,-834.0,-562.0
16.0,-220.0,-126.0,108.0,206.0,52.0,93.0,-841.0,-563.0
20.0,-219.0,-127.0,112.0,209.0,52.0,97.0,-844.0,-560.0
18.0,-224.0,-127.0,119.0,211.0,52.0,95.0,-842.0,-558.0
20.0,-220.0,-128.0,131.0,212.0,51.0,100.0,-837.0,-559.0
17.0,-219.0,-128.0,144.0,207.0,52.0,96.0,-832.0,-555.0
17.0,-217.0,-128.0,157.0,203.0,51.0,103.0,-829.0,-557.0
16.0,-214.0,-128.0,166.0,201.0,52.0,97.0,-820.0,-555.0
18.0,-210.0,-127.0,174.0,202.0,52.0,106.0,-816.0,-556.0
20.0,-212.0,-125.0,181.0,206.0,51.0,108.0,-807.0,-552.0
23.0,-209.0,-127.0,190.0,215.0,50.0,111.0,-801.0,-549.0
21.0,-209.0,-127.0,200.0,223.0,50.0,113.0,-803.0,-549.0
24.0,-208.0,-127.0,205.0,228.0,47.0,113.0,-800.0,-553.0
22.0,-210.0,-128.0,203.0,228.0,44.0,109.0,-786.0,-556.0
20.0,-205.0,-129.0,199.0,226.0,43.0,106.0,-794.0,-561.0
7.0,-200.0,-137.0,192.0,222.0,44.0,90.0,-792.0,-567.0
13.0,-207.0,-127.0,181.0,215.0,48.0,79.0,-787.0,-555.0
20.0,-207.0,-124.0,172.0,207.0,52.0,100.0,-789.0,-554.0
16.0,-205.0,-125.0,171.0,209.0,43.0,89.0,-787.0,-547.0
16.0,-205.0,-122.0,171.0,213.0,43.0,90.0,-780.0,-539.0
13.0,-204.0,-118.0,171.0,218.0,45.0,79.0,-782.0,-533.0
14.0,-209.0,-122.0,168.0,221.0,53.0,82.0,-793.0,-521.0
13.0,-207.0,-120.0,165.0,223.0,60.0,92.0,-800.0,-515.0
20.0,-212.0,-115.0,164.0,224.0,63.0,95.0,-812.0,-509.0
19.0,-213.0,-116.0,165.0,226.0,65.0,99.0,-809.0,-507.0
22.0,-215.0,-115.0,167.0,229.0,64.0,108.0,-818.0,-504.0
20.0,-212.0,-116.0,176.0,235.0,58.0,105.0,-817.0,-509.0
17.0,-217.0,-116.0,188.0,242.0,55.0,108.0,-820.0,-507.0
18.0,-216.0,-116.0,200.0,244.0,53.0,99.0,-828.0,-512.0
19.0,-218.0,-120.0,212.0,245.0,52.0,97.0,-828.0,-506.0
17.0,-215.0,-117.0,225.0,241.0,48.0,98.0,-824.0,-508.0
19.0,-213.0,-115.0,232.0,238.0,46.0,98.0,-819.0,-510.0
15.0,-214.0,-113.0,233.0,230.0,42.0,97.0,-818.0,-505.0
15.0,-213.0,-111.0,241.0,229.0,36.0,85.0,-815.0,-492.0
12.0,-213.0,-110.0,255.0,227.0,32.0,74.0,-805.0,-488.0
11.0,-208.0,-112.0,267.0,219.0,35.0,73.0,-799.0,-492.0
11.0,-206.0,-109.0,273.0,209.0,36.0,68.0,-799.0,-484.0
18.0,-199.0,-93.0,275.0,199.0,34.0,74.0,-789.0,-473.0
16.0,-206.0,-110.0,275.0,193.0,32.0,80.0,-785.0,-480.0
12.0,-208.0,-105.0,277.0,190.0,31.0,70.0,-791.0,-466.0
12.0,-204.0,-109.0,277.0,188.0,30.0,72.0,-793.0,-466.0
9.0,-205.0,-105.0,275.0,185.0,28.0,72.0,-792.0,-466.0
12.0,-205.0,-108.0,274.0,180.0,26.0,73.0,-786.0,-462.0
9.0,-206.0,-104.0,273.0,179.0,24.0,70.0,-788.0,-469.0
13.0,-210.0,-104.0,275.0,178.0,22.0,76.0,-788.0,-464.0
11.0,-204.0,-104.0,280.0,174.0,19.0,81.0,-782.0,-461.0
15.0,-205.0,-108.0,287.0,170.0,15.0,83.0,-791.0,-457.0
15.0,-209.0,-104.0,294.0,169.0,14.0,95.0,-798.0,-452.0
15.0,-208.0,-99.0,299.0,170.0,8.0,92.0,-793.0,-449.0
19.0,-211.0,-101.0,308.0,171.0,3.0,94.0,-807.0,-453.0
15.0,-205.0,-102.0,314.0,171.0,-4.0,92.0,-810.0,-450.0
16.0,-213.0,-108.0,318.0,175.0,-10.0,87.0,-818.0,-466.0
18.0,-219.0,-103.0,314.0,177.0,-13.0,102.0,-823.0,-468.0
20.0,-213.0,-104.0,310.0,184.0,-17.0,102.0,-819.0,-466.0
18.0,-213.0,-102.0,314.0,193.0,-21.0,101.0,-815.0,-464.0
18.0,-210.0,-107.0,320.0,200.0,-21.0,96.0,-814.0,-466.0
17.0,-213.0,-108.0,320.0,203.0,-22.0,94.0,-813.0,-475.0
20.0,-212.0,-108.0,311.0,199.0,-21.0,96.0,-813.0,-469.0
17.0,-213.0,-106.0,306.0,197.0,-24.0,99.0,-811.0,-462.0
10.0,-205.0,-114.0,304.0,195.0,-26.0,86.0,-796.0,-461.0
16.0,-210.0,-107.0,305.0,189.0,-23.0,89.0,-799.0,-461.0
15.0,-208.0,-103.0,308.0,181.0,-20.0,85.0,-796.0,-459.0
12.0,-206.0,-108.0,309.0,176.0,-20.0,78.0,-801.0,-465.0
13.0,-209.0,-108.0,306.0,169.0,-17.0,83.0,-797.0,-465.0
15.0,-205.0,-109.0,299.0,165.0,-15.0,86.0,-795.0,-466.0
17.0,-209.0,-102.0,295.0,162.0,-11.0,89.0,-798.0,-465.0
20.0,-208.0,-104.0,292.0,163.0,-10.0,96.0,-797.0,-465.0
21.0,-205.0,-103.0,291.0,166.0,-7.0,101.0,-792.0,-454.0
19.0,-207.0,-104.0,295.0,166.0,-8.0,101.0,-794.0,-453.0
19.0,-206.0,-100.0,300.0,164.0,-8.0,104.0,-800.0,-444.0
17.0,-202.0,-97.0,307.0,161.0,-15.0,108.0,-781.0,-433.0
16.0,-202.0,-99.0,317.0,157.0,-17.0,98.0,-787.0,-433.0
16.0,-202.0,-94.0,321.0,149.0,-14.0,96.0,-790.0,-429.0
15.0,-206.0,-102.0,319.0,134.0,-14.0,92.0,-785.0,-432.0
16.0,-205.0,-99.0,316.0,122.0,-19.0,100.0,-794.0,-433.0
11.0,-206.0,-99.0,310.0,114.0,-24.0,98.0,-797.0,-431.0
16.0,-212.0,-99.0,306.0,112.0,-28.0,97.0,-808.0,-438.0
15.0,-215.0,-104.0,295.0,111.0,-34.0,88.0,-823.0,-440.0
15.0,-216.0,-99.0,286.0,113.0,-39.0,90.0,-828.0,-443.0
11.0,-220.0,-99.0,283.0,119.0,-42.0,74.0,-833.0,-446.0
15.0,-215.0,-97.0,287.0,128.0,-40.0,72.0,-833.0,-445.0
11.0,-218.0,-102.0,294.0,133.0,-34.0,71.0,-838.0,-449.0
11.0,-217.0,-99.0,304.0,135.0,-29.0,79.0,-831.0,-447.0
13.0,-218.0,-103.0,310.0,137.0,-24.0,76.0,-832.0,-447.0
11.0,-218.0,-101.0,312.0,140.0,-20.0,77.0,-831.0,-441.0
15.0,-220.0,-98.0,312.0,143.0,-14.0,80.0,-830.0,-436.0
15.0,-213.0,-100.0,316.0,146.0,-11.0,83.0,-828.0,-438.0
12.0,-213.0,-98.0,317.0,149.0,-7.0,86.0,-823.0,-440.0
17.0,-218.0,-99.0,318.0,150.0,-10.0,99.0,-819.0,-441.0
15.0,-214.0,-97.0,316.0,153.0,-9.0,94.0,-812.0,-444.0
17.0,-213.0,-99.0,314.0,156.0,-10.0,99.0,-812.0,-445.0
17.0,-210.0,-96.0,312.0,160.0,-10.0,96.0,-805.0,-438.0
20.0,-207.0,-99.0,315.0,163.0,-8.0,104.0,-796.0,-434.0
15.0,-203.0,-95.0,319.0,167.0,-8.0,96.0,-794.0,-434.0
15.0,-208.0,-100.0,321.0,167.0,-5.0,95.0,-801.0,-434.0
17.0,-208.0,-92.0,318.0,167.0,-5.0,98.0,-801.0,-431.0
17.0,-211.0,-98.0,310.0,169.0,-6.0,102.0,-807.0,-429.0
20.0,-212.0,-94.0,299.0,171.0,-9.0,111.0,-809.0,-427.0
20.0,-215.0,-92.0,288.0,173.0,-12.0,107.0,-816.0,-424.0
23.0,-217.0,-93.0,278.0,175.0,-15.0,112.0,-822.0,-420.0
21.0,-218.0,-94.0,270.0,179.0,-19.0,116.0,-832.0,-423.0
22.0,-216.0,-94.0,261.0,185.0,-21.0,119.0,-836.0,-428.0
28.0,-214.0,-98.0,256.0,188.0,-17.0,122.0,-844.0,-432.0
24.0,-218.0,-103.0,246.0,193.0,-15.0,119.0,-849.0,-439.0
22.0,-218.0,-103.0,236.0,196.0,-13.0,118.0,-847.0,-447.0
21.0,-222.0,-101.0,225.0,200.0,-13.0,113.0,-856.0,-450.0
22.0,-226.0,-101.0,214.0,205.0,-10.0,110.0,-853.0,-453.0
21.0,-225.0,-100.0,209.0,209.0,-7.0,115.0,-852.0,-449.0
22.0,-225.0,-104.0,209.0,212.0,-5.0,108.0,-862.0,-451.0
22.0,-226.0,-105.0,214.0,216.0,-5.0,109.0,-864.0,-465.0
20.0,-225.0,-105.0,220.0,221.0,-5.0,106.0,-860.0,-453.0
17.0,-220.0,-104.0,224.0,221.0,2.0,113.0,-846.0,-455.0
23.0,-220.0,-101.0,231.0,219.0,10.0,123.0,-848.0,-453.0
27.0,-224.0,-103.0,240.0,220.0,16.0,129.0,-843.0,-449.0
27.0,-219.0,-98.0,242.0,219.0,17.0,130.0,-833.0,-448.0
23.0,-215.0,-97.0,239.0,220.0,18.0,126.0,-834.0,-446.0
23.0,-217.0,-99.0,233.0,224.0,20.0,125.0,-834.0,-443.0
22.0,-216.0,-98.0,224.0,224.0,21.0,127.0,-838.0,-437.0
22.0,-220.0,-99.0,219.0,226.0,18.0,113.0,-842.0,-435.0
18.0,-224.0,-97.0,210.0,230.0,18.0,109.0,-847.0,-435.0
18.0,-227.0,-101.0,201.0,232.0,21.0,102.0,-857.0,-438.0
18.0,-227.0,-98.0,191.0,235.0,24.0,102.0,-866.0,-441.0
17.0,-228.0,-104.0,184.0,239.0,30.0,96.0,-875.0,-444.0
17.0,-231.0,-99.0,180.0,241.0,34.0,100.0,-883.0,-437.0
15.0,-232.0,-101.0,178.0,246.0,39.0,102.0,-892.0,-435.0
22.0,-235.0,-96.0,181.0,253.0,47.0,107.0,-897.0,-437.0
20.0,-237.0,-97.0,186.0,263.0,56.0,112.0,-896.0,-431.0
20.0,-237.0,-95.0,193.0,274.0,64.0,119.0,-903.0,-427.0
22.0,-236.0,-93.0,200.0,283.0,69.0,123.0,-902.0,-429.0
24.0,-240.0,-90.0,204.0,288.0,75.0,113.0,-907.0,-417.0
25.0,-239.0,-93.0,208.0,289.0,83.0,118.0,-908.0,-417.0
19.0,-237.0,-95.0,214.0,290.0,86.0,123.0,-904.0,-425.0
21.0,-236.0,-94.0,212.0,285.0,92.0,115.0,-899.0,-420.0
20.0,-236.0,-96.0,207.0,280.0,95.0,115.0,-891.0,-425.0
21.0,-235.0,-95.0,197.0,274.0,100.0,114.0,-892.0,-425.0
22.0,-232.0,-96.0,187.0,270.0,104.0,115.0,-888.0,-419.0
24.0,-232.0,-94.0,180.0,266.0,107.0,122.0,-885.0,-417.0
20.0,-231.0,-93.0,171.0,265.0,107.0,118.0,-889.0,-416.0
22.0,-231.0,-89.0,162.0,269.0,108.0,120.0,-875.0,-412.0
25.0,-233.0,-92.0,155.0,276.0,108.0,133.0,-885.0,-412.0
25.0,-229.0,-94.0,146.0,283.0,109.0,131.0,-886.0,-416.0
28.0,-231.0,-95.0,131.0,290.0,114.0,130.0,-884.0,-423.0
23.0,-229.0,-91.0,115.0,293.0,116.0,126.0,-879.0,-418.0
21.0,-228.0,-93.0,100.0,291.0,119.0,113.0,-872.0,-419.0
19.0,-227.0,-89.0,87.0,289.0,123.0,108.0,-870.0,-414.0
17.0,-232.0,-91.0,75.0,284.0,133.0,104.0,-879.0,-410.0
12.0,-228.0,-90.0,61.0,278.0,142.0,108.0,-871.0,-409.0
18.0,-228.0,-87.0,50.0,269.0,152.0,103.0,-877.0,-393.0
18.0,-231.0,-89.0,41.0,264.0,158.0,104.0,-877.0,-394.0
16.0,-228.0,-90.0,32.0,258.0,162.0,96.0,-877.0,-402.0
13.0,-230.0,-91.0,19.0,251.0,164.0,85.0,-877.0,-409.0
14.0,-229.0,-91.0,3.0,243.0,167.0,82.0,-879.0,-408.0
13.0,-230.0,-92.0,-12.0,239.0,169.0,82.0,-878.0,-410.0
14.0,-230.0,-91.0,-23.0,237.0,170.0,80.0,-872.0,-411.0
15.0,-231.0,-91.0,-30.0,238.0,169.0,87.0,-873.0,-412.0
17.0,-228.0,-92.0,-37.0,242.0,164.0,78.0,-874.0,-417.0
13.0,-230.0,-91.0,-46.0,246.0,159.0,79.0,-875.0,-413.0
14.0,-230.0,-92.0,-57.0,252.0,154.0,84.0,-875.0,-415.0
14.0,-226.0,-92.0,-65.0,261.0,145.0,88.0,-875.0,-418.0
12.0,-227.0,-94.0,-73.0,272.0,139.0,76.0,-874.0,-415.0
13.0,-231.0,-93.0,-79.0,284.0,134.0,80.0,-872.0,-412.0
14.0,-227.0,-93.0,-84.0,296.0,130.0,88.0,-872.0,-409.0
15.0,-229.0,-89.0,-86.0,309.0,124.0,85.0,-872.0,-404.0
14.0,-231.0,-91.0,-84.0,321.0,117.0,89.0,-887.0,-403.0
17.0,-230.0,-87.0,-84.0,334.0,111.0,97.0,-880.0,-399.0
14.0,-228.0,-86.0,-83.0,345.0,106.0,88.0,-889.0,-398.0
13.0,-229.0,-96.0,-87.0,352.0,100.0,86.0,-883.0,-398.0
9.0,-230.0,-89.0,-88.0,357.0,93.0,71.0,-879.0,-403.0
8.0,-226.0,-83.0,-93.0,358.0,90.0,63.0,-884.0,-403.0
8.0,-234.0,-90.0,-99.0,357.0,90.0,59.0,-892.0,-401.0
7.0,-237.0,-88.0,-103.0,351.0,90.0,58.0,-894.0,-401.0
4.0,-236.0,-86.0,-105.0,345.0,86.0,54.0,-902.0,-396.0
4.0,-237.0,-87.0,-104.0,337.0,82.0,52.0,-911.0,-405.0
3.0,-238.0,-89.0,-99.0,331.0,77.0,52.0,-914.0,-410.0
4.0,-242.0,-93.0,-97.0,326.0,76.0,48.0,-927.0,-417.0
5.0,-243.0,-96.0,-91.0,324.0,78.0,51.0,-923.0,-426.0
8.0,-243.0,-98.0,-88.0,325.0,77.0,56.0,-922.0,-431.0
7.0,-244.0,-99.0,-86.0,326.0,73.0,57.0,-920.0,-434.0
10.0,-241.0,-94.0,-83.0,328.0,70.0,70.0,-918.0,-427.0
11.0,-240.0,-94.0,-79.0,331.0,65.0,68.0,-918.0,-429.0
13.0,-242.0,-93.0,-73.0,336.0,62.0,85.0,-915.0,-421.0
15.0,-240.0,-95.0,-69.0,338.0,60.0,90.0,-916.0,-418.0
17.0,-238.0,-91.0,-61.0,338.0,52.0,97.0,-906.0,-417.0
17.0,-237.0,-91.0,-53.0,335.0,48.0,102.0,-897.0,-410.0
15.0,-236.0,-86.0,-44.0,327.0,46.0,98.0,-893.0,-398.0
16.0,-232.0,-89.0,-35.0,317.0,42.0,91.0,-891.0,-398.0
12.0,-230.0,-88.0,-30.0,301.0,40.0,90.0,-887.0,-410.0
12.0,-233.0,-92.0,-34.0,280.0,38.0,80.0,-887.0,-414.0
11.0,-233.0,-93.0,-44.0,256.0,39.0,68.0,-891.0,-418.0
7.0,-247.0,-88.0,-55.0,231.0,39.0,63.0,-897.0,-431.0
7.0,-238.0,-95.0,-67.0,211.0,39.0,60.0,-903.0,-437.0
9.0,-239.0,-102.0,-76.0,194.0,39.0,63.0,-907.0,-441.0
10.0,-241.0,-101.0,-83.0,183.0,39.0,64.0,-914.0,-450.0
10.0,-242.0,-106.0,-86.0,176.0,39.0,67.0,-924.0,-455.0
10.0,-244.0,-107.0,-90.0,176.0,38.0,78.0,-930.0,-465.0
14.0,-245.0,-107.0,-90.0,179.0,39.0,80.0,-931.0,-468.0
17.0,-244.0,-107.0,-88.0,186.0,38.0,92.0,-937.0,-472.0
18.0,-248.0,-103.0,-88.0,195.0,42.0,99.0,-931.0,-464.0
18.0,-244.0,-105.0,-82.0,206.0,46.0,113.0,-939.0,-459.0
20.0,-247.0,-102.0,-73.0,215.0,49.0,117.0,-941.0,-455.0
23.0,-246.0,-102.0,-63.0,224.0,52.0,124.0,-932.0,-452.0
23.0,-247.0,-100.0,-50.0,234.0,55.0,117.0,-931.0,-450.0
26.0,-245.0,-104.0,-42.0,240.0,58.0,130.0,-929.0,-451.0
23.0,-246.0,-101.0,-38.0,244.0,57.0,117.0,-936.0,-451.0
19.0,-246.0,-103.0,-36.0,250.0,55.0,113.0,-932.0,-449.0
20.0,-247.0,-103.0,-36.0,252.0,51.0,113.0,-937.0,-455.0
17.0,-247.0,-100.0,-38.0,254.0,44.0,97.0,-936.0,-449.0
17.0,-249.0,-102.0,-37.0,253.0,41.0,88.0,-944.0,-451.0
13.0,-248.0,-98.0,-28.0,251.0,38.0,84.0,-953.0,-442.0
9.0,-247.0,-96.0,-15.0,247.0,34.0,74.0,-952.0,-436.0
9.0,-250.0,-98.0,0.0,241.0,29.0,68.0,-952.0,-427.0
13.0,-248.0,-92.0,18.0,234.0,24.0,58.0,-960.0,-424.0
4.0,-249.0,-94.0,33.0,225.0,18.0,54.0,-950.0,-423.0
3.0,-249.0,-94.0,46.0,214.0,12.0,51.0,-956.0,-424.0
3.0,-250.0,-92.0,56.0,207.0,6.0,41.0,-952.0,-418.0
2.0,-249.0,-90.0,64.0,198.0,5.0,43.0,-950.0,-409.0
0.0,-247.0,-91.0,72.0,185.0,5.0,37.0,-945.0,-410.0
3.0,-248.0,-90.0,79.0,177.0,7.0,31.0,-939.0,-409.0
1.0,-246.0,-90.0,83.0,168.0,9.0,34.0,-929.0,-407.0
0.0,-245.0,-89.0,88.0,160.0,12.0,33.0,-924.0,-400.0
-1.0,-242.0,-89.0,89.0,150.0,16.0,28.0,-917.0,-403.0
1.0,-238.0,-86.0,91.0,141.0,18.0,30.0,-913.0,-398.0
4.0,-240.0,-89.0,92.0,132.0,20.0,37.0,-911.0,-400.0
2.0,-238.0,-88.0,91.0,122.0,18.0,37.0,-909.0,-396.0
3.0,-236.0,-86.0,92.0,114.0,17.0,44.0,-898.0,-395.0
5.0,-237.0,-87.0,91.0,103.0,17.0,47.0,-896.0,-394.0
7.0,-235.0,-85.0,89.0,91.0,13.0,52.0,-899.0,-395.0
9.0,-237.0,-92.0,82.0,81.0,10.0,54.0,-901.0,-408.0
5.0,-238.0,-88.0,76.0,72.0,8.0,62.0,-907.0,-403.0
9.0,-237.0,-95.0,66.0,65.0,4.0,62.0,-905.0,-411.0
10.0,-238.0,-92.0,59.0,56.0,-2.0,73.0,-910.0,-418.0
11.0,-239.0,-94.0,49.0,50.0,-6.0,79.0,-916.0,-421.0
13.0,-241.0,-94.0,45.0,47.0,-8.0,84.0,-917.0,-418.0
7.0,-246.0,-98.0,42.0,45.0,-10.0,87.0,-924.0,-410.0
15.0,-246.0,-91.0,43.0,47.0,-11.0,82.0,-930.0,-418.0
12.0,-244.0,-91.0,47.0,48.0,-12.0,88.0,-927.0,-414.0
16.0,-245.0,-89.0,51.0,51.0,-13.0,88.0,-928.0,-416.0
15.0,-243.0,-92.0,54.0,53.0,-14.0,90.0,-927.0,-417.0
15.0,-246.0,-90.0,58.0,56.0,-16.0,89.0,-926.0,-421.0
15.0,-246.0,-90.0,57.0,57.0,-17.0,87.0,-924.0,-414.0
14.0,-243.0,-91.0,56.0,60.0,-15.0,94.0,-920.0,-416.0
13.0,-239.0,-89.0,55.0,65.0,-13.0,90.0,-916.0,-413.0
12.0,-237.0,-90.0,52.0,72.0,-13.0,93.0,-913.0,-412.0
14.0,-240.0,-92.0,53.0,75.0,-14.0,89.0,-909.0,-419.0
11.0,-238.0,-97.0,53.0,78.0,-13.0,88.0,-914.0,-416.0
15.0,-241.0,-92.0,49.0,83.0,-14.0,84.0,-915.0,-416.0
16.0,-241.0,-91.0,44.0,83.0,-15.0,91.0,-910.0,-416.0
16.0,-239.0,-90.0,40.0,85.0,-15.0,88.0,-910.0,-411.0
15.0,-240.0,-89.0,42.0,90.0,-16.0,89.0,-913.0,-410.0
14.0,-238.0,-91.0,43.0,97.0,-18.0,90.0,-913.0,-411.0
15.0,-240.0,-91.0,44.0,102.0,-20.0,89.0,-918.0,-407.0
14.0,-239.0,-91.0,42.0,105.0,-25.0,91.0,-917.0,-404.0
14.0,-243.0,-91.0,38.0,107.0,-23.0,99.0,-919.0,-409.0
14.0,-241.0,-87.0,37.0,110.0,-23.0,96.0,-921.0,-397.0
18.0,-244.0,-92.0,36.0,113.0,-26.0,97.0,-922.0,-402.0
22.0,-243.0,-85.0,35.0,115.0,-26.0,91.0,-924.0,-405.0
17.0,-244.0,-91.0,36.0,117.0,-27.0,94.0,-923.0,-404.0
14.0,-242.0,-88.0,36.0,120.0,-25.0,98.0,-921.0,-395.0
12.0,-238.0,-91.0,37.0,123.0,-27.0,90.0,-918.0,-404.0
13.0,-243.0,-91.0,38.0,123.0,-29.0,89.0,-918.0,-406.0
13.0,-239.0,-89.0,38.0,121.0,-31.0,78.0,-915.0,-401.0
12.0,-239.0,-89.0,37.0,121.0,-31.0,77.0,-910.0,-402.0
13.0,-237.0,-86.0,34.0,119.0,-33.0,84.0,-907.0,-396.0
10.0,-235.0,-90.0,32.0,117.0,-34.0,79.0,-908.0,-391.0
13.0,-238.0,-86.0,26.0,115.0,-32.0,77.0,-911.0,-389.0
13.0,-238.0,-85.0,21.0,113.0,-30.0,76.0,-906.0,-390.0
11.0,-239.0,-85.0,15.0,107.0,-29.0,79.0,-906.0,-383.0
12.0,-236.0,-86.0,12.0,100.0,-28.0,75.0,-913.0,-385.0
11.0,-237.0,-86.0,11.0,95.0,-28.0,76.0,-912.0,-384.0
11.0,-237.0,-86.0,8.0,92.0,-27.0,77.0,-911.0,-386.0
12.0,-239.0,-86.0,3.0,87.0,-28.0,79.0,-911.0,-386.0
14.0,-240.0,-84.0,-2.0,84.0,-27.0,83.0,-912.0,-386.0
12.0,-240.0,-85.0,-6.0,83.0,-28.0,85.0,-914.0,-387.0
13.0,-243.0,-87.0,-11.0,82.0,-28.0,87.0,-920.0,-388.0
13.0,-241.0,-86.0,-16.0,78.0,-30.0,84.0,-920.0,-394.0
15.0,-244.0,-87.0,-19.0,78.0,-30.0,88.0,-922.0,-395.0
16.0,-241.0,-85.0,-23.0,79.0,-29.0,90.0,-923.0,-395.0
17.0,-244.0,-86.0,-26.0,81.0,-29.0,91.0,-929.0,-399.0
17.0,-247.0,-87.0,-28.0,82.0,-29.0,99.0,-936.0,-394.0
18.0,-245.0,-87.0,-26.0,81.0,-27.0,93.0,-929.0,-396.0
17.0,-247.0,-89.0,-23.0,81.0,-25.0,100.0,-938.0,-394.0
19.0,-246.0,-85.0,-22.0,82.0,-24.0,106.0,-941.0,-400.0
17.0,-247.0,-88.0,-24.0,79.0,-23.0,101.0,-941.0,-402.0
16.0,-246.0,-91.0,-26.0,77.0,-23.0,102.0,-945.0,-404.0
19.0,-247.0,-89.0,-27.0,77.0,-22.0,105.0,-937.0,-407.0
18.0,-245.0,-89.0,-31.0,79.0,-22.0,103.0,-937.0,-399.0
16.0,-246.0,-91.0,-32.0,79.0,-23.0,105.0,-931.0,-398.0
17.0,-246.0,-89.0,-32.0,79.0,-23.0,106.0,-941.0,-397.0
18.0,-246.0,-85.0,-34.0,77.0,-24.0,105.0,-935.0,-397.0
21.0,-246.0,-89.0,-33.0,81.0,-22.0,103.0,-937.0,-393.0
17.0,-245.0,-84.0,-31.0,82.0,-21.0,100.0,-935.0,-385.0
18.0,-244.0,-87.0,-29.0,85.0,-20.0,101.0,-939.0,-386.0
18.0,-243.0,-86.0,-29.0,85.0,-20.0,100.0,-933.0,-389.0
17.0,-245.0,-85.0,-28.0,84.0,-19.0,96.0,-928.0,-380.0
16.0,-243.0,-83.0,-30.0,85.0,-17.0,99.0,-929.0,-379.0
18.0,-244.0,-83.0,-33.0,86.0,-16.0,96.0,-925.0,-383.0
14.0,-244.0,-84.0,-33.0,86.0,-14.0,88.0,-928.0,-382.0
14.0,-242.0,-86.0,-35.0,84.0,-13.0,88.0,-925.0,-378.0
21.0,-242.0,-84.0,-36.0,81.0,-12.0,89.0,-929.0,-379.0
16.0,-244.0,-84.0,-37.0,79.0,-12.0,87.0,-924.0,-376.0
13.0,-246.0,-85.0,-36.0,78.0,-11.0,89.0,-924.0,-369.0
15.0,-247.0,-83.0,-35.0,76.0,-9.0,87.0,-936.0,-373.0
10.0,-244.0,-85.0,-34.0,72.0,-9.0,85.0,-934.0,-371.0
13.0,-246.0,-82.0,-36.0,64.0,-10.0,85.0,-928.0,-370.0
13.0,-247.0,-84.0,-38.0,59.0,-13.0,89.0,-927.0,-374.0
18.0,-245.0,-81.0,-41.0,55.0,-13.0,89.0,-932.0,-369.0
13.0,-246.0,-84.0,-44.0,52.0,-13.0,92.0,-933.0,-372.0
12.0,-243.0,-82.0,-46.0,49.0,-14.0,91.0,-933.0,-378.0
13.0,-244.0,-85.0,-45.0,49.0,-15.0,88.0,-926.0,-373.0
15.0,-246.0,-85.0,-46.0,46.0,-16.0,90.0,-930.0,-378.0
14.0,-246.0,-82.0,-46.0,46.0,-15.0,95.0,-934.0,-377.0
17.0,-245.0,-84.0,-48.0,46.0,-14.0,96.0,-934.0,-378.0
14.0,-246.0,-82.0,-49.0,47.0,-15.0,92.0,-929.0,-374.0
15.0,-243.0,-86.0,-46.0,48.0,-15.0,92.0,-926.0,-373.0
14.0,-247.0,-83.0,-46.0,44.0,-15.0,91.0,-931.0,-374.0
15.0,-245.0,-85.0,-45.0,42.0,-15.0,95.0,-935.0,-375.0
16.0,-245.0,-86.0,-45.0,37.0,-14.0,98.0,-930.0,-378.0
18.0,-246.0,-85.0,-46.0,34.0,-16.0,97.0,-935.0,-380.0
17.0,-244.0,-87.0,-49.0,31.0,-17.0,99.0,-934.0,-384.0
18.0,-245.0,-85.0,-50.0,30.0,-17.0,96.0,-942.0,-383.0
21.0,-249.0,-82.0,-49.0,27.0,-18.0,105.0,-936.0,-378.0
16.0,-246.0,-85.0,-50.0,23.0,-16.0,104.0,-941.0,-379.0
17.0,-248.0,-83.0,-49.0,20.0,-16.0,104.0,-936.0,-381.0
19.0,-248.0,-89.0,-51.0,20.0,-17.0,108.0,-938.0,-380.0
20.0,-247.0,-85.0,-51.0,20.0,-19.0,106.0,-938.0,-385.0
19.0,-245.0,-86.0,-50.0,20.0,-20.0,105.0,-933.0,-382.0
18.0,-247.0,-85.0,-48.0,20.0,-20.0,105.0,-935.0,-383.0
21.0,-245.0,-84.0,-45.0,20.0,-20.0,103.0,-938.0,-379.0
19.0,-244.0,-83.0,-41.0,20.0,-19.0,106.0,-936.0,-380.0
17.0,-245.0,-85.0,-38.0,20.0,-20.0,106.0,-930.0,-377.0
22.0,-247.0,-82.0,-35.0,21.0,-20.0,106.0,-930.0,-376.0
19.0,-245.0,-84.0,-33.0,22.0,-20.0,111.0,-932.0,-376.0
19.0,-245.0,-81.0,-31.0,24.0,-22.0,109.0,-928.0,-375.0
20.0,-246.0,-83.0,-30.0,26.0,-23.0,111.0,-930.0,-378.0
21.0,-245.0,-84.0,-30.0,27.0,-24.0,110.0,-932.0,-375.0
22.0,-245.0,-83.0,-26.0,27.0,-25.0,114.0,-937.0,-377.0
22.0,-243.0,-86.0,-22.0,31.0,-23.0,114.0,-932.0,-380.0
22.0,-246.0,-83.0,-23.0,32.0,-24.0,117.0,-931.0,-379.0
23.0,-245.0,-80.0,-20.0,32.0,-23.0,117.0,-931.0,-374.0
22.0,-244.0,-82.0,-18.0,35.0,-22.0,113.0,-927.0,-378.0
24.0,-245.0,-82.0,-19.0,36.0,-23.0,108.0,-935.0,-376.0
21.0,-245.0,-83.0,-20.0,38.0,-24.0,114.0,-923.0,-379.0
17.0,-241.0,-83.0,-21.0,38.0,-24.0,112.0,-928.0,-376.0
19.0,-245.0,-85.0,-23.0,39.0,-23.0,110.0,-931.0,-375.0
17.0,-240.0,-83.0,-23.0,40.0,-23.0,109.0,-927.0,-374.0
18.0,-242.0,-84.0,-24.0,39.0,-24.0,108.0,-924.0,-372.0
19.0,-245.0,-83.0,-25.0,40.0,-25.0,112.0,-927.0,-370.0
19.0,-243.0,-86.0,-25.0,41.0,-24.0,109.0,-928.0,-374.0
19.0,-241.0,-84.0,-24.0,41.0,-23.0,113.0,-929.0,-371.0
22.0,-243.0,-85.0,-24.0,41.0,-22.0,115.0,-928.0,-376.0
23.0,-243.0,-84.0,-25.0,41.0,-21.0,116.0,-929.0,-373.0
18.0,-243.0,-84.0,-25.0,42.0,-20.0,115.0,-925.0,-375.0
24.0,-245.0,-79.0,-27.0,43.0,-21.0,118.0,-930.0,-375.0
23.0,-247.0,-83.0,-28.0,43.0,-21.0,111.0,-935.0,-373.0
20.0,-247.0,-85.0,-29.0,43.0,-20.0,121.0,-929.0,-371.0
20.0,-244.0,-83.0,-29.0,43.0,-21.0,120.0,-930.0,-371.0
23.0,-244.0,-84.0,-29.0,43.0,-19.0,113.0,-934.0,-375.0
23.0,-245.0,-86.0,-28.0,44.0,-17.0,116.0,-929.0,-379.0
20.0,-245.0,-84.0,-27.0,45.0,-16.0,117.0,-935.0,-381.0
21.0,-247.0,-84.0,-25.0,46.0,-16.0,114.0,-930.0,-383.0
19.0,-245.0,-84.0,-23.0,46.0,-16.0,123.0,-931.0,-378.0
22.0,-245.0,-87.0,-19.0,48.0,-14.0,116.0,-927.0,-383.0
22.0,-246.0,-88.0,-15.0,50.0,-13.0,122.0,-930.0,-384.0
24.0,-245.0,-85.0,-10.0,53.0,-12.0,120.0,-928.0,-384.0
16.0,-241.0,-86.0,-7.0,55.0,-11.0,115.0,-927.0,-383.0
23.0,-245.0,-85.0,-3.0,58.0,-10.0,117.0,-930.0,-381.0
25.0,-245.0,-85.0,-1.0,62.0,-10.0,118.0,-927.0,-389.0
23.0,-245.0,-88.0,-1.0,64.0,-8.0,123.0,-929.0,-386.0
21.0,-245.0,-85.0,-1.0,68.0,-8.0,122.0,-933.0,-382.0
19.0,-246.0,-86.0,0.0,72.0,-9.0,117.0,-933.0,-383.0
23.0,-249.0,-86.0,2.0,74.0,-10.0,122.0,-936.0,-385.0
21.0,-246.0,-83.0,3.0,77.0,-10.0,120.0,-932.0,-381.0
24.0,-248.0,-85.0,4.0,79.0,-10.0,120.0,-939.0,-385.0
20.0,-246.0,-86.0,5.0,80.0,-12.0,118.0,-934.0,-387.0
20.0,-244.0,-85.0,7.0,82.0,-11.0,111.0,-933.0,-379.0
21.0,-247.0,-84.0,9.0,83.0,-14.0,107.0,-929.0,-377.0
17.0,-245.0,-83.0,10.0,80.0,-16.0,107.0,-933.0,-379.0
17.0,-245.0,-83.0,9.0,77.0,-18.0,109.0,-928.0,-380.0
18.0,-247.0,-83.0,9.0,73.0,-17.0,110.0,-932.0,-378.0
20.0,-245.0,-83.0,11.0,73.0,-16.0,111.0,-929.0,-379.0
19.0,-244.0,-82.0,13.0,76.0,-16.0,112.0,-929.0,-383.0
20.0,-244.0,-85.0,12.0,77.0,-15.0,111.0,-924.0,-379.0
17.0,-242.0,-87.0,12.0,77.0,-15.0,110.0,-922.0,-383.0
18.0,-245.0,-84.0,10.0,76.0,-14.0,109.0,-926.0,-383.0
19.0,-243.0,-85.0,9.0,78.0,-14.0,100.0,-930.0,-382.0
20.0,-242.0,-85.0,8.0,79.0,-15.0,100.0,-927.0,-376.0
17.0,-236.0,-85.0,6.0,80.0,-13.0,107.0,-927.0,-379.0
15.0,-244.0,-83.0,3.0,84.0,-12.0,100.0,-927.0,-381.0
18.0,-243.0,-83.0,1.0,88.0,-12.0,103.0,-933.0,-382.0
17.0,-244.0,-85.0,1.0,89.0,-13.0,110.0,-930.0,-380.0
19.0,-245.0,-87.0,1.0,91.0,-13.0,104.0,-930.0,-382.0
16.0,-244.0,-81.0,4.0,93.0,-14.0,105.0,-931.0,-377.0
18.0,-248.0,-86.0,5.0,94.0,-12.0,103.0,-933.0,-379.0
16.0,-242.0,-85.0,8.0,97.0,-13.0,108.0,-930.0,-378.0
18.0,-247.0,-83.0,9.0,97.0,-12.0,108.0,-936.0,-375.0
18.0,-245.0,-83.0,9.0,99.0,-11.0,104.0,-931.0,-380.0
19.0,-243.0,-84.0,11.0,98.0,-11.0,105.0,-927.0,-382.0
17.0,-245.0,-83.0,13.0,97.0,-11.0,108.0,-926.0,-381.0
16.0,-243.0,-84.0,14.0,94.0,-11.0,110.0,-924.0,-381.0
20.0,-245.0,-84.0,15.0,92.0,-13.0,106.0,-925.0,-378.0
18.0,-242.0,-83.0,16.0,89.0,-13.0,103.0,-923.0,-381.0
19.0,-245.0,-84.0,14.0,84.0,-13.0,100.0,-924.0,-384.0
17.0,-245.0,-83.0,14.0,78.0,-12.0,106.0,-925.0,-380.0
17.0,-243.0,-84.0,17.0,73.0,-11.0,114.0,-929.0,-387.0
21.0,-243.0,-87.0,22.0,70.0,-10.0,110.0,-925.0,-387.0
20.0,-246.0,-84.0,25.0,68.0,-10.0,111.0,-924.0,-392.0
18.0,-244.0,-89.0,27.0,64.0,-9.0,107.0,-923.0,-392.0
28.0,-236.0,-85.0,27.0,60.0,-7.0,112.0,-925.0,-396.0
24.0,-241.0,-88.0,26.0,59.0,-6.0,113.0,-924.0,-391.0
21.0,-243.0,-85.0,23.0,58.0,-8.0,118.0,-927.0,-390.0
22.0,-244.0,-87.0,17.0,57.0,-8.0,115.0,-921.0,-390.0
22.0,-245.0,-87.0,13.0,56.0,-9.0,115.0,-923.0,-390.0
19.0,-246.0,-86.0,7.0,56.0,-9.0,111.0,-925.0,-388.0
22.0,-246.0,-84.0,3.0,57.0,-9.0,114.0,-930.0,-386.0
20.0,-246.0,-86.0,4.0,58.0,-11.0,111.0,-933.0,-381.0
20.0,-248.0,-85.0,9.0,59.0,-10.0,111.0,-930.0,-382.0
17.0,-245.0,-83.0,14.0,58.0,-12.0,113.0,-936.0,-377.0
20.0,-245.0,-83.0,23.0,58.0,-12.0,110.0,-937.0,-377.0
20.0,-247.0,-84.0,31.0,57.0,-10.0,106.0,-936.0,-376.0
18.0,-243.0,-83.0,36.0,55.0,-11.0,108.0,-928.0,-378.0
23.0,-245.0,-83.0,39.0,53.0,-12.0,105.0,-930.0,-372.0
20.0,-244.0,-84.0,40.0,51.0,-12.0,112.0,-925.0,-377.0
18.0,-240.0,-83.0,38.0,49.0,-12.0,110.0,-928.0,-380.0
21.0,-245.0,-84.0,37.0,50.0,-13.0,116.0,-926.0,-377.0
23.0,-246.0,-84.0,36.0,47.0,-13.0,116.0,-929.0,-379.0
19.0,-242.0,-84.0,34.0,45.0,-13.0,113.0,-926.0,-375.0
23.0,-244.0,-84.0,32.0,45.0,-13.0,116.0,-925.0,-375.0
23.0,-242.0,-84.0,32.0,45.0,-13.0,115.0,-927.0,-373.0
22.0,-246.0,-80.0,32.0,44.0,-13.0,120.0,-925.0,-366.0
19.0,-244.0,-75.0,33.0,41.0,-12.0,122.0,-928.0,-366.0
25.0,-243.0,-84.0,37.0,41.0,-12.0,123.0,-929.0,-370.0
22.0,-242.0,-80.0,42.0,39.0,-12.0,123.0,-928.0,-370.0
26.0,-244.0,-82.0,50.0,37.0,-12.0,123.0,-934.0,-373.0
25.0,-242.0,-83.0,58.0,38.0,-12.0,131.0,-925.0,-372.0
25.0,-244.0,-83.0,65.0,39.0,-11.0,133.0,-924.0,-373.0
24.0,-243.0,-85.0,68.0,40.0,-9.0,132.0,-929.0,-373.0
24.0,-242.0,-82.0,70.0,41.0,-9.0,133.0,-927.0,-371.0
24.0,-244.0,-83.0,70.0,43.0,-8.0,137.0,-930.0,-371.0
25.0,-245.0,-85.0,69.0,44.0,-9.0,133.0,-924.0,-370.0
24.0,-243.0,-83.0,69.0,45.0,-8.0,132.0,-928.0,-367.0
26.0,-247.0,-84.0,70.0,48.0,-8.0,129.0,-928.0,-368.0
25.0,-245.0,-82.0,72.0,53.0,-8.0,134.0,-932.0,-363.0
25.0,-247.0,-81.0,75.0,58.0,-6.0,135.0,-941.0,-363.0
24.0,-248.0,-83.0,77.0,64.0,-8.0,136.0,-948.0,-363.0
28.0,-248.0,-82.0,83.0,70.0,-5.0,141.0,-953.0,-363.0
28.0,-247.0,-81.0,87.0,75.0,-6.0,138.0,-943.0,-370.0
28.0,-244.0,-83.0,92.0,82.0,-4.0,139.0,-941.0,-367.0
28.0,-246.0,-83.0,95.0,90.0,-1.0,138.0,-944.0,-376.0
28.0,-246.0,-82.0,98.0,98.0,0.0,142.0,-943.0,-375.0
28.0,-245.0,-86.0,98.0,102.0,2.0,138.0,-931.0,-379.0
26.0,-246.0,-85.0,96.0,108.0,5.0,137.0,-936.0,-380.0
23.0,-245.0,-84.0,94.0,113.0,9.0,135.0,-939.0,-381.0
26.0,-245.0,-85.0,93.0,115.0,8.0,133.0,-938.0,-386.0
26.0,-247.0,-85.0,93.0,118.0,10.0,129.0,-938.0,-385.0
22.0,-246.0,-84.0,96.0,121.0,15.0,129.0,-937.0,-383.0
22.0,-244.0,-85.0,97.0,122.0,18.0,128.0,-925.0,-388.0
23.0,-243.0,-82.0,97.0,124.0,20.0,121.0,-925.0,-382.0
21.0,-242.0,-89.0,97.0,121.0,19.0,116.0,-923.0,-386.0
20.0,-242.0,-84.0,95.0,120.0,21.0,115.0,-921.0,-382.0
17.0,-239.0,-84.0,93.0,120.0,23.0,114.0,-918.0,-382.0
21.0,-241.0,-84.0,90.0,120.0,24.0,113.0,-920.0,-379.0
19.0,-243.0,-82.0,86.0,121.0,24.0,107.0,-919.0,-365.0
16.0,-243.0,-83.0,82.0,121.0,24.0,106.0,-922.0,-370.0
16.0,-242.0,-79.0,76.0,121.0,22.0,104.0,-919.0,-361.0
15.0,-243.0,-79.0,72.0,119.0,20.0,103.0,-923.0,-349.0
18.0,-244.0,-78.0,66.0,117.0,19.0,102.0,-921.0,-348.0
18.0,-244.0,-78.0,59.0,115.0,19.0,97.0,-927.0,-349.0
16.0,-243.0,-79.0,54.0,112.0,16.0,101.0,-925.0,-348.0
16.0,-244.0,-78.0,49.0,108.0,14.0,99.0,-927.0,-348.0
17.0,-244.0,-82.0,47.0,105.0,14.0,98.0,-933.0,-348.0
14.0,-242.0,-81.0,47.0,101.0,13.0,97.0,-934.0,-351.0
16.0,-245.0,-79.0,47.0,100.0,13.0,94.0,-931.0,-350.0
16.0,-246.0,-78.0,49.0,97.0,14.0,96.0,-930.0,-348.0
19.0,-243.0,-78.0,49.0,95.0,13.0,94.0,-935.0,-354.0
16.0,-245.0,-80.0,50.0,91.0,11.0,94.0,-935.0,-350.0
18.0,-246.0,-80.0,51.0,87.0,10.0,96.0,-937.0,-354.0
14.0,-245.0,-81.0,50.0,85.0,7.0,99.0,-937.0,-360.0
15.0,-245.0,-77.0,47.0,84.0,6.0,95.0,-938.0,-360.0
17.0,-245.0,-82.0,44.0,79.0,4.0,100.0,-937.0,-362.0
19.0,-247.0,-81.0,42.0,77.0,4.0,96.0,-931.0,-358.0
16.0,-246.0,-79.0,38.0,74.0,2.0,100.0,-936.0,-355.0
17.0,-247.0,-81.0,36.0,71.0,-1.0,100.0,-935.0,-362.0
16.0,-246.0,-83.0,33.0,68.0,-1.0,106.0,-936.0,-359.0
21.0,-247.0,-83.0,31.0,66.0,-4.0,106.0,-936.0,-351.0
20.0,-245.0,-79.0,31.0,66.0,-6.0,103.0,-936.0,-351.0
18.0,-248.0,-79.0,31.0,67.0,-7.0,108.0,-938.0,-351.0
16.0,-246.0,-79.0,33.0,66.0,-7.0,105.0,-946.0,-346.0
19.0,-248.0,-79.0,35.0,66.0,-8.0,111.0,-943.0,-352.0
19.0,-245.0,-80.0,38.0,64.0,-9.0,104.0,-941.0,-354.0
16.0,-247.0,-79.0,40.0,64.0,-8.0,103.0,-944.0,-357.0
17.0,-250.0,-79.0,43.0,62.0,-9.0,98.0,-945.0,-357.0
17.0,-247.0,-83.0,41.0,61.0,-10.0,100.0,-943.0,-366.0
17.0,-247.0,-82.0,40.0,60.0,-12.0,103.0,-951.0,-357.0
18.0,-248.0,-80.0,40.0,62.0,-12.0,110.0,-940.0,-357.0
18.0,-245.0,-82.0,40.0,65.0,-11.0,118.0,-943.0,-363.0
23.0,-248.0,-81.0,42.0,69.0,-10.0,122.0,-942.0,-360.0
21.0,-247.0,-82.0,44.0,77.0,-9.0,122.0,-939.0,-360.0
25.0,-248.0,-80.0,46.0,85.0,-7.0,124.0,-939.0,-361.0
21.0,-246.0,-83.0,48.0,93.0,-5.0,123.0,-944.0,-362.0
23.0,-246.0,-83.0,48.0,101.0,-4.0,120.0,-943.0,-363.0
24.0,-247.0,-81.0,51.0,105.0,-1.0,119.0,-942.0,-358.0
19.0,-247.0,-80.0,52.0,110.0,0.0,122.0,-935.0,-359.0
18.0,-246.0,-80.0,53.0,114.0,1.0,120.0,-936.0,-349.0
21.0,-247.0,-80.0,55.0,114.0,0.0,119.0,-934.0,-351.0
19.0,-244.0,-80.0,55.0,115.0,3.0,108.0,-932.0,-343.0
22.0,-246.0,-80.0,53.0,115.0,3.0,110.0,-931.0,-346.0
21.0,-246.0,-74.0,52.0,114.0,4.0,109.0,-931.0,-343.0
19.0,-246.0,-77.0,51.0,114.0,4.0,110.0,-933.0,-338.0
17.0,-245.0,-78.0,49.0,111.0,6.0,106.0,-935.0,-349.0
17.0,-245.0,-80.0,47.0,108.0,8.0,102.0,-939.0,-346.0
15.0,-245.0,-77.0,46.0,106.0,9.0,91.0,-939.0,-342.0
