acc1_x,acc1_y,acc1_z,gyro_x,gyro_y,gyro_z,acc2_x,acc2_y,acc2_z
-17.0,-254.0,-61.0,3.0,65.0,-7.0,-22.0,-984.0,-259.0
-14.0,-251.0,-59.0,0.0,65.0,-8.0,-23.0,-982.0,-257.0
-13.0,-255.0,-59.0,-3.0,66.0,-6.0,-24.0,-978.0,-257.0
-13.0,-254.0,-60.0,-5.0,65.0,-7.0,-23.0,-982.0,-257.0
-14.0,-254.0,-59.0,-7.0,64.0,-6.0,-24.0,-983.0,-262.0
-11.0,-253.0,-61.0,-8.0,63.0,-6.0,-26.0,-981.0,-258.0
-17.0,-252.0,-59.0,-10.0,62.0,-6.0,-21.0,-982.0,-261.0
-14.0,-254.0,-58.0,-10.0,62.0,-5.0,-21.0,-981.0,-261.0
-12.0,-254.0,-59.0,-12.0,63.0,-5.0,-26.0,-985.0,-262.0
-12.0,-256.0,-56.0,-12.0,66.0,-4.0,-24.0,-978.0,-257.0
-13.0,-250.0,-58.0,-14.0,68.0,-4.0,-24.0,-981.0,-260.0
-13.0,-255.0,-58.0,-15.0,70.0,0.0,-21.0,-980.0,-262.0
-16.0,-254.0,-59.0,-18.0,70.0,-1.0,-24.0,-981.0,-260.0
-13.0,-254.0,-59.0,-19.0,70.0,-1.0,-19.0,-980.0,-260.0
-13.0,-255.0,-59.0,-19.0,67.0,-2.0,-25.0,-977.0,-267.0
-15.0,-253.0,-63.0,-20.0,64.0,-2.0,-21.0,-981.0,-262.0
-14.0,-254.0,-61.0,-20.0,63.0,-3.0,-22.0,-984.0,-262.0
-15.0,-253.0,-60.0,-20.0,62.0,-2.0,-21.0,-988.0,-265.0
-14.0,-253.0,-61.0,-21.0,62.0,-3.0,-21.0,-984.0,-263.0
-13.0,-255.0,-58.0,-20.0,63.0,-4.0,-23.0,-988.0,-263.0
-13.0,-256.0,-58.0,-17.0,62.0,-4.0,-23.0,-984.0,-262.0
-15.0,-255.0,-58.0,-17.0,64.0,-4.0,-25.0,-990.0,-263.0
-14.0,-255.0,-57.0,-15.0,66.0,-3.0,-23.0,-984.0,-266.0
-14.0,-256.0,-59.0,-14.0,67.0,-3.0,-24.0,-987.0,-266.0
-13.0,-258.0,-61.0,-11.0,69.0,-4.0,-23.0,-991.0,-269.0
-12.0,-257.0,-59.0,-10.0,70.0,-1.0,-23.0,-988.0,-262.0
-18.0,-256.0,-65.0,-8.0,72.0,-2.0,-23.0,-984.0,-264.0
-15.0,-254.0,-58.0,-6.0,72.0,-3.0,-24.0,-988.0,-259.0
-16.0,-255.0,-58.0,-6.0,74.0,-3.0,-24.0,-988.0,-271.0
-12.0,-254.0,-61.0,-5.0,74.0,-4.0,-26.0,-985.0,-263.0
-14.0,-252.0,-59.0,-7.0,74.0,-4.0,-22.0,-984.0,-263.0
-15.0,-255.0,-62.0,-7.0,74.0,-4.0,-22.0,-986.0,-262.0
-12.0,-255.0,-62.0,-7.0,74.0,-4.0,-25.0,-984.0,-258.0
-12.0,-256.0,-57.0,-9.0,73.0,-4.0,-18.0,-982.0,-262.0
-15.0,-254.0,-57.0,-11.0,72.0,-4.0,-20.0,-980.0,-260.0
-14.0,-255.0,-59.0,-12.0,70.0,-3.0,-23.0,-983.0,-262.0
-15.0,-256.0,-60.0,-12.0,69.0,-2.0,-21.0,-982.0,-266.0
-11.0,-255.0,-58.0,-14.0,69.0,-3.0,-18.0,-983.0,-268.0
-12.0,-253.0,-59.0,-14.0,68.0,-2.0,-24.0,-985.0,-263.0
-14.0,-253.0,-61.0,-15.0,67.0,-3.0,-24.0,-982.0,-258.0
-13.0,-253.0,-57.0,-15.0,69.0,-3.0,-22.0,-980.0,-255.0
-13.0,-254.0,-56.0,-14.0,70.0,-4.0,-20.0,-980.0,-258.0
-11.0,-255.0,-58.0,-13.0,71.0,-2.0,-19.0,-984.0,-254.0
-12.0,-254.0,-58.0,-14.0,72.0,-4.0,-19.0,-981.0,-257.0
-10.0,-256.0,-60.0,-14.0,71.0,-3.0,-25.0,-981.0,-257.0
-14.0,-254.0,-58.0,-14.0,71.0,-3.0,-24.0,-984.0,-256.0
-13.0,-255.0,-59.0,-17.0,70.0,-5.0,-20.0,-984.0,-262.0
-11.0,-256.0,-57.0,-18.0,69.0,-4.0,-21.0,-985.0,-259.0
-13.0,-252.0,-65.0,-18.0,69.0,-2.0,-20.0,-979.0,-260.0
-12.0,-254.0,-60.0,-18.0,68.0,-3.0,-22.0,-983.0,-257.0
-12.0,-256.0,-58.0,-18.0,70.0,-3.0,-21.0,-985.0,-258.0
-12.0,-255.0,-61.0,-17.0,71.0,-5.0,-24.0,-991.0,-256.0
-13.0,-253.0,-58.0,-16.0,72.0,-4.0,-22.0,-988.0,-263.0
-13.0,-255.0,-61.0,-15.0,71.0,-4.0,-25.0,-983.0,-262.0
-14.0,-255.0,-61.0,-16.0,70.0,-6.0,-24.0,-983.0,-266.0
-13.0,-251.0,-58.0,-17.0,72.0,-4.0,-23.0,-982.0,-259.0
-12.0,-255.0,-59.0,-18.0,71.0,-4.0,-18.0,-985.0,-258.0
-13.0,-253.0,-58.0,-20.0,73.0,-5.0,-24.0,-984.0,-257.0
-10.0,-255.0,-58.0,-20.0,73.0,-4.0,-24.0,-985.0,-256.0
-14.0,-255.0,-60.0,-19.0,76.0,-4.0,-23.0,-980.0,-258.0
-14.0,-255.0,-60.0,-18.0,75.0,-5.0,-21.0,-983.0,-256.0
-12.0,-256.0,-59.0,-17.0,74.0,-4.0,-20.0,-979.0,-258.0
-15.0,-256.0,-63.0,-15.0,74.0,-3.0,-22.0,-985.0,-257.0
-14.0,-256.0,-60.0,-16.0,73.0,-4.0,-24.0,-991.0,-261.0
-14.0,-254.0,-60.0,-15.0,73.0,-5.0,-19.0,-984.0,-254.0
-16.0,-255.0,-61.0,-16.0,73.0,-5.0,-26.0,-984.0,-254.0
-13.0,-254.0,-56.0,-15.0,71.0,-5.0,-22.0,-985.0,-254.0
-11.0,-254.0,-59.0,-15.0,71.0,-4.0,-22.0,-985.0,-262.0
-13.0,-256.0,-60.0,-15.0,70.0,-2.0,-22.0,-987.0,-262.0
-12.0,-254.0,-58.0,-15.0,69.0,-4.0,-22.0,-983.0,-259.0
-15.0,-260.0,-57.0,-14.0,70.0,-2.0,-17.0,-983.0,-262.0
-13.0,-255.0,-59.0,-13.0,71.0,-4.0,-20.0,-987.0,-262.0
-15.0,-257.0,-61.0,-13.0,71.0,-2.0,-20.0,-985.0,-260.0
-12.0,-257.0,-59.0,-13.0,71.0,-3.0,-24.0,-987.0,-256.0
-12.0,-256.0,-59.0,-16.0,71.0,-3.0,-23.0,-983.0,-255.0
-11.0,-255.0,-60.0,-17.0,73.0,-2.0,-24.0,-985.0,-257.0
-12.0,-253.0,-59.0,-19.0,73.0,-3.0,-19.0,-987.0,-254.0
-13.0,-254.0,-55.0,-21.0,74.0,-4.0,-18.0,-990.0,-258.0
-12.0,-255.0,-59.0,-22.0,76.0,-4.0,-19.0,-988.0,-259.0
-16.0,-255.0,-61.0,-21.0,77.0,-2.0,-23.0,-988.0,-255.0
-11.0,-257.0,-57.0,-18.0,78.0,-2.0,-26.0,-988.0,-255.0
-11.0,-258.0,-62.0,-17.0,78.0,-2.0,-17.0,-986.0,-256.0
-17.0,-256.0,-58.0,-14.0,77.0,-2.0,-23.0,-990.0,-263.0
-13.0,-257.0,-60.0,-13.0,77.0,-1.0,-21.0,-985.0,-266.0
-15.0,-253.0,-61.0,-15.0,78.0,-2.0,-23.0,-983.0,-258.0
-13.0,-253.0,-58.0,-16.0,79.0,-2.0,-22.0,-983.0,-264.0
-13.0,-255.0,-60.0,-16.0,78.0,-2.0,-23.0,-981.0,-260.0
-13.0,-257.0,-58.0,-18.0,77.0,-2.0,-21.0,-979.0,-264.0
-14.0,-252.0,-60.0,-18.0,78.0,-2.0,-23.0,-980.0,-258.0
-14.0,-256.0,-59.0,-17.0,79.0,-2.0,-22.0,-981.0,-259.0
-14.0,-253.0,-59.0,-16.0,79.0,-3.0,-20.0,-985.0,-255.0
-14.0,-253.0,-58.0,-15.0,78.0,-3.0,-22.0,-982.0,-263.0
-15.0,-255.0,-59.0,-17.0,77.0,-3.0,-24.0,-983.0,-260.0
-13.0,-252.0,-59.0,-17.0,77.0,-2.0,-24.0,-985.0,-255.0
-12.0,-255.0,-59.0,-18.0,77.0,-3.0,-21.0,-985.0,-265.0
-12.0,-252.0,-60.0,-20.0,77.0,-4.0,-20.0,-976.0,-260.0
-12.0,-255.0,-56.0,-20.0,80.0,-3.0,-25.0,-979.0,-263.0
-15.0,-254.0,-59.0,-21.0,82.0,-3.0,-21.0,-986.0,-258.0
-14.0,-254.0,-61.0,-19.0,81.0,-3.0,-25.0,-983.0,-261.0
-14.0,-255.0,-60.0,-18.0,83.0,-4.0,-23.0,-981.0,-263.0
-15.0,-253.0,-57.0,-16.0,84.0,-4.0,-24.0,-981.0,-259.0
-15.0,-254.0,-61.0,-15.0,86.0,-5.0,-24.0,-983.0,-262.0
-12.0,-253.0,-62.0,-16.0,85.0,-4.0,-21.0,-978.0,-269.0
-13.0,-252.0,-61.0,-15.0,83.0,-4.0,-26.0,-983.0,-268.0
-14.0,-254.0,-58.0,-17.0,80.0,-3.0,-25.0,-983.0,-262.0
-14.0,-255.0,-58.0,-17.0,79.0,-3.0,-20.0,-979.0,-260.0
-15.0,-253.0,-58.0,-18.0,76.0,-3.0,-19.0,-985.0,-262.0
-12.0,-255.0,-58.0,-18.0,73.0,-1.0,-22.0,-984.0,-257.0
-12.0,-256.0,-59.0,-17.0,74.0,-1.0,-22.0,-986.0,-257.0
-14.0,-251.0,-55.0,-17.0,73.0,0.0,-20.0,-985.0,-254.0
-16.0,-255.0,-56.0,-18.0,74.0,2.0,-25.0,-984.0,-256.0
-13.0,-254.0,-59.0,-20.0,73.0,2.0,-23.0,-985.0,-256.0
-15.0,-256.0,-58.0,-19.0,75.0,1.0,-22.0,-988.0,-257.0
-34.0,-253.0,-78.0,-20.0,76.0,-1.0,-18.0,-992.0,-257.0
-27.0,-253.0,-57.0,-21.0,78.0,2.0,-19.0,-992.0,-256.0
-8.0,-252.0,-51.0,-21.0,78.0,1.0,-20.0,-990.0,-257.0
-3.0,-250.0,-53.0,-18.0,79.0,1.0,-22.0,-985.0,-256.0
-8.0,-243.0,-62.0,-18.0,80.0,-1.0,-25.0,-983.0,-254.0
-5.0,-260.0,-62.0,-16.0,80.0,0.0,-26.0,-986.0,-255.0
-22.0,-255.0,-64.0,-13.0,79.0,-1.0,-24.0,-992.0,-250.0
-9.0,-258.0,-63.0,-11.0,78.0,-1.0,-25.0,-989.0,-253.0
-11.0,-250.0,-51.0,-12.0,80.0,-2.0,-24.0,-988.0,-257.0
-9.0,-252.0,-57.0,-11.0,80.0,-3.0,-25.0,-988.0,-258.0
-16.0,-251.0,-60.0,-13.0,79.0,-3.0,-21.0,-983.0,-257.0
-12.0,-256.0,-61.0,-14.0,81.0,-4.0,-19.0,-988.0,-268.0
-14.0,-252.0,-58.0,-14.0,82.0,-3.0,-19.0,-984.0,-262.0
-13.0,-254.0,-56.0,-12.0,83.0,-5.0,-19.0,-984.0,-258.0
-12.0,-254.0,-59.0,-13.0,83.0,-4.0,-18.0,-980.0,-257.0
-14.0,-251.0,-58.0,-11.0,81.0,-3.0,-21.0,-988.0,-254.0
-10.0,-257.0,-59.0,-11.0,81.0,-4.0,-17.0,-982.0,-259.0
-12.0,-257.0,-59.0,-11.0,81.0,-4.0,-18.0,-983.0,-255.0
-15.0,-257.0,-59.0,-11.0,80.0,-2.0,-18.0,-986.0,-263.0
-11.0,-257.0,-49.0,-12.0,79.0,-1.0,-22.0,-981.0,-261.0
-16.0,-250.0,-66.0,-12.0,77.0,-1.0,-20.0,-985.0,-261.0
-13.0,-256.0,-47.0,-13.0,76.0,-3.0,-19.0,-986.0,-264.0
-2.0,-253.0,-44.0,-12.0,76.0,-1.0,-18.0,-982.0,-259.0
-15.0,-252.0,-75.0,-12.0,74.0,0.0,-23.0,-984.0,-260.0
-15.0,-257.0,-59.0,-10.0,73.0,-2.0,-21.0,-975.0,-258.0
-7.0,-251.0,-61.0,-8.0,72.0,0.0,-25.0,-986.0,-262.0
-12.0,-256.0,-61.0,-8.0,73.0,-1.0,-26.0,-981.0,-259.0
-13.0,-256.0,-57.0,-7.0,74.0,0.0,-19.0,-985.0,-257.0
-14.0,-255.0,-55.0,-8.0,73.0,-1.0,-24.0,-984.0,-255.0
-16.0,-256.0,-57.0,-6.0,75.0,-1.0,-22.0,-990.0,-256.0
-23.0,-263.0,-52.0,-7.0,76.0,0.0,-21.0,-980.0,-255.0
-16.0,-248.0,-57.0,-8.0,78.0,0.0,-23.0,-986.0,-255.0
-12.0,-254.0,-63.0,-8.0,79.0,-2.0,-26.0,-988.0,-258.0
-13.0,-256.0,-54.0,-9.0,77.0,-3.0,-24.0,-985.0,-255.0
-12.0,-259.0,-55.0,-11.0,78.0,-3.0,-25.0,-988.0,-259.0
-13.0,-261.0,-52.0,-12.0,77.0,-3.0,-22.0,-985.0,-257.0
-18.0,-265.0,-59.0,-10.0,78.0,-3.0,-23.0,-987.0,-258.0
-11.0,-257.0,-51.0,-11.0,77.0,-5.0,-26.0,-985.0,-254.0
-19.0,-248.0,-61.0,-10.0,76.0,-3.0,-25.0,-986.0,-255.0
-20.0,-254.0,-63.0,-11.0,75.0,-3.0,-22.0,-988.0,-259.0
-21.0,-254.0,-26.0,-13.0,74.0,-2.0,-26.0,-985.0,-260.0
-13.0,-255.0,-59.0,-14.0,74.0,-2.0,-21.0,-982.0,-261.0
-13.0,-254.0,-58.0,-14.0,71.0,-2.0,-24.0,-986.0,-254.0
-14.0,-256.0,-58.0,-16.0,71.0,-3.0,-26.0,-982.0,-263.0
-12.0,-255.0,-57.0,-17.0,69.0,-4.0,-20.0,-982.0,-271.0
-7.0,-250.0,-64.0,-18.0,69.0,-2.0,-24.0,-985.0,-261.0
-11.0,-257.0,-49.0,-16.0,68.0,-4.0,-22.0,-984.0,-263.0
-10.0,-257.0,-57.0,-15.0,68.0,-4.0,-22.0,-981.0,-266.0
-14.0,-254.0,-64.0,-13.0,67.0,-3.0,-26.0,-978.0,-261.0
-19.0,-254.0,-56.0,-13.0,66.0,-4.0,-23.0,-980.0,-258.0
-17.0,-256.0,-66.0,-14.0,65.0,-3.0,-19.0,-983.0,-263.0
-13.0,-249.0,-43.0,-14.0,65.0,-3.0,-23.0,-978.0,-265.0
-18.0,-250.0,-52.0,-14.0,67.0,-3.0,-18.0,-981.0,-258.0
-12.0,-251.0,-65.0,-16.0,68.0,-2.0,-19.0,-982.0,-256.0
-16.0,-254.0,-59.0,-18.0,71.0,-1.0,-22.0,-985.0,-256.0
-2.0,-254.0,-66.0,-18.0,74.0,-3.0,-20.0,-982.0,-256.0
-12.0,-252.0,-60.0,-18.0,76.0,-2.0,-21.0,-983.0,-257.0
-10.0,-256.0,-59.0,-17.0,75.0,-1.0,-23.0,-988.0,-257.0
-13.0,-253.0,-59.0,-16.0,76.0,-2.0,-23.0,-978.0,-256.0
-13.0,-256.0,-59.0,-16.0,76.0,-2.0,-21.0,-985.0,-258.0
-14.0,-253.0,-52.0,-15.0,75.0,0.0,-17.0,-989.0,-256.0
-11.0,-259.0,-59.0,-15.0,75.0,-1.0,-18.0,-978.0,-258.0
-15.0,-255.0,-66.0,-16.0,74.0,-2.0,-20.0,-991.0,-257.0
-16.0,-260.0,-60.0,-17.0,74.0,-3.0,-22.0,-988.0,-258.0
-9.0,-253.0,-59.0,-17.0,74.0,-3.0,-22.0,-980.0,-258.0
-27.0,-255.0,-60.0,-19.0,74.0,-3.0,-15.0,-982.0,-256.0
-16.0,-256.0,-45.0,-20.0,74.0,-4.0,-19.0,-987.0,-260.0
-13.0,-250.0,-53.0,-20.0,76.0,-3.0,-24.0,-984.0,-260.0
-6.0,-256.0,-58.0,-17.0,75.0,-2.0,-23.0,-989.0,-260.0
-15.0,-252.0,-49.0,-19.0,77.0,-3.0,-18.0,-983.0,-258.0
-8.0,-263.0,-52.0,-15.0,76.0,-4.0,-20.0,-987.0,-262.0
-12.0,-242.0,-51.0,-15.0,74.0,-4.0,-27.0,-985.0,-257.0
-12.0,-256.0,-57.0,-14.0,73.0,-2.0,-27.0,-991.0,-259.0
-13.0,-255.0,-59.0,-12.0,72.0,-2.0,-23.0,-986.0,-261.0
-12.0,-256.0,-58.0,-11.0,70.0,-2.0,-21.0,-983.0,-258.0
-12.0,-254.0,-57.0,-11.0,69.0,-2.0,-23.0,-987.0,-261.0
-9.0,-261.0,-59.0,-10.0,66.0,-2.0,-27.0,-989.0,-260.0
-10.0,-261.0,-66.0,-10.0,66.0,-2.0,-29.0,-986.0,-259.0
-13.0,-256.0,-51.0,-9.0,67.0,-3.0,-23.0,-988.0,-259.0
-11.0,-250.0,-60.0,-9.0,68.0,-3.0,-20.0,-986.0,-262.0
-15.0,-251.0,-64.0,-7.0,68.0,-2.0,-21.0,-988.0,-257.0
-18.0,-254.0,-55.0,-8.0,69.0,-2.0,-20.0,-984.0,-256.0
-14.0,-258.0,-62.0,-8.0,72.0,-3.0,-22.0,-990.0,-257.0
-14.0,-255.0,-62.0,-7.0,72.0,-2.0,-22.0,-986.0,-257.0
-7.0,-249.0,-68.0,-7.0,72.0,-5.0,-27.0,-993.0,-258.0
-13.0,-248.0,-54.0,-6.0,73.0,-5.0,-22.0,-990.0,-260.0
-11.0,-254.0,-57.0,-5.0,72.0,-5.0,-21.0,-986.0,-255.0
-13.0,-255.0,-60.0,-3.0,71.0,-3.0,-18.0,-985.0,-260.0
-14.0,-254.0,-61.0,0.0,70.0,-3.0,-23.0,-987.0,-260.0
-12.0,-253.0,-58.0,-1.0,72.0,-3.0,-21.0,-990.0,-259.0
-18.0,-255.0,-60.0,-1.0,72.0,-5.0,-25.0,-984.0,-261.0
-14.0,-256.0,-51.0,0.0,73.0,-4.0,-19.0,-980.0,-257.0
-11.0,-253.0,-54.0,-3.0,73.0,-5.0,-22.0,-985.0,-258.0
-15.0,-263.0,-59.0,-2.0,72.0,-5.0,-24.0,-979.0,-255.0
-10.0,-253.0,-58.0,-3.0,72.0,-4.0,-26.0,-983.0,-258.0
-3.0,-256.0,-60.0,-2.0,71.0,-4.0,-20.0,-978.0,-257.0
-14.0,-254.0,-55.0,-4.0,71.0,-3.0,-19.0,-984.0,-262.0
-12.0,-256.0,-62.0,-3.0,70.0,-4.0,-26.0,-984.0,-256.0
-10.0,-254.0,-60.0,-2.0,67.0,-5.0,-20.0,-984.0,-257.0
-14.0,-255.0,-61.0,1.0,67.0,-4.0,-25.0,-987.0,-258.0
-13.0,-256.0,-59.0,2.0,67.0,-5.0,-22.0,-987.0,-257.0
-11.0,-258.0,-58.0,3.0,69.0,-5.0,-31.0,-988.0,-258.0
-13.0,-256.0,-59.0,4.0,70.0,-4.0,-23.0,-987.0,-258.0
-11.0,-256.0,-57.0,5.0,70.0,-4.0,-29.0,-989.0,-257.0
-11.0,-256.0,-61.0,4.0,70.0,-4.0,-19.0,-986.0,-259.0
-5.0,-254.0,-57.0,4.0,69.0,-3.0,-22.0,-987.0,-260.0
-11.0,-257.0,-58.0,3.0,69.0,-4.0,-23.0,-988.0,-262.0
-14.0,-253.0,-59.0,2.0,67.0,-2.0,-22.0,-982.0,-259.0
-14.0,-252.0,-59.0,2.0,66.0,-3.0,-24.0,-983.0,-263.0
-9.0,-254.0,-59.0,2.0,64.0,-3.0,-24.0,-986.0,-261.0
-10.0,-255.0,-58.0,-1.0,65.0,-5.0,-19.0,-984.0,-260.0
-16.0,-253.0,-60.0,-1.0,65.0,-4.0,-20.0,-988.0,-260.0
-13.0,-255.0,-59.0,-1.0,65.0,-5.0,-25.0,-987.0,-258.0
-13.0,-255.0,-60.0,-1.0,64.0,-4.0,-21.0,-984.0,-259.0
-14.0,-254.0,-62.0,0.0,64.0,-2.0,-22.0,-983.0,-262.0
-13.0,-252.0,-59.0,0.0,65.0,-2.0,-19.0,-984.0,-260.0
-14.0,-253.0,-60.0,2.0,66.0,-2.0,-21.0,-988.0,-268.0
-15.0,-254.0,-56.0,5.0,66.0,-1.0,-24.0,-984.0,-256.0
-12.0,-253.0,-58.0,4.0,67.0,-3.0,-17.0,-981.0,-263.0
-12.0,-254.0,-60.0,3.0,67.0,-3.0,-17.0,-984.0,-261.0
-12.0,-252.0,-57.0,2.0,67.0,-3.0,-16.0,-982.0,-263.0
-11.0,-255.0,-58.0,1.0,68.0,-3.0,-18.0,-980.0,-262.0
-13.0,-254.0,-60.0,-2.0,67.0,-2.0,-19.0,-981.0,-258.0
-14.0,-252.0,-61.0,-3.0,68.0,-2.0,-20.0,-984.0,-263.0
-11.0,-254.0,-56.0,-3.0,68.0,-2.0,-19.0,-982.0,-262.0
-12.0,-254.0,-61.0,-4.0,68.0,-2.0,-18.0,-982.0,-258.0
-17.0,-255.0,-57.0,-5.0,68.0,-2.0,-24.0,-981.0,-257.0
-12.0,-252.0,-56.0,-7.0,68.0,-3.0,-16.0,-981.0,-256.0
-15.0,-256.0,-58.0,-9.0,71.0,-2.0,-27.0,-980.0,-258.0
-9.0,-253.0,-56.0,-11.0,71.0,-1.0,-22.0,-983.0,-263.0
-14.0,-251.0,-64.0,-12.0,70.0,-2.0,-20.0,-983.0,-261.0
-13.0,-252.0,-59.0,-15.0,72.0,0.0,-21.0,-985.0,-257.0
-11.0,-255.0,-58.0,-16.0,70.0,-1.0,-26.0,-978.0,-256.0
-12.0,-252.0,-54.0,-15.0,70.0,-2.0,-26.0,-983.0,-259.0
-14.0,-255.0,-61.0,-15.0,69.0,-3.0,-25.0,-986.0,-261.0
-13.0,-254.0,-60.0,-15.0,70.0,-2.0,-24.0,-985.0,-258.0
-12.0,-254.0,-62.0,-14.0,70.0,-2.0,-22.0,-987.0,-267.0
-16.0,-254.0,-60.0,-13.0,72.0,-3.0,-22.0,-991.0,-262.0
-10.0,-255.0,-60.0,-12.0,73.0,-3.0,-18.0,-986.0,-261.0
-15.0,-255.0,-60.0,-11.0,72.0,-1.0,-23.0,-985.0,-265.0
-13.0,-256.0,-60.0,-10.0,72.0,-2.0,-20.0,-982.0,-266.0
-16.0,-255.0,-61.0,-10.0,71.0,-2.0,-22.0,-984.0,-265.0
-13.0,-254.0,-61.0,-11.0,70.0,-2.0,-25.0,-983.0,-271.0
-13.0,-253.0,-60.0,-12.0,71.0,-1.0,-17.0,-982.0,-262.0
-12.0,-256.0,-60.0,-12.0,71.0,0.0,-17.0,-984.0,-259.0
-12.0,-254.0,-59.0,-12.0,70.0,-1.0,-17.0,-984.0,-262.0
-12.0,-256.0,-59.0,-11.0,71.0,-1.0,-19.0,-988.0,-260.0
-13.0,-254.0,-56.0,-10.0,71.0,-2.0,-18.0,-984.0,-256.0
-14.0,-257.0,-56.0,-8.0,71.0,0.0,-22.0,-985.0,-257.0
-11.0,-255.0,-58.0,-8.0,70.0,1.0,-20.0,-985.0,-252.0
-17.0,-255.0,-58.0,-7.0,68.0,1.0,-21.0,-986.0,-252.0
-12.0,-252.0,-56.0,-6.0,67.0,0.0,-19.0,-981.0,-253.0
-13.0,-255.0,-53.0,-8.0,66.0,0.0,-23.0,-985.0,-258.0
-14.0,-252.0,-58.0,-11.0,66.0,1.0,-22.0,-984.0,-258.0
-11.0,-254.0,-58.0,-14.0,68.0,1.0,-24.0,-972.0,-254.0
-10.0,-254.0,-60.0,-17.0,70.0,1.0,-21.0,-980.0,-254.0
-14.0,-253.0,-60.0,-20.0,71.0,0.0,-20.0,-984.0,-252.0
-12.0,-254.0,-57.0,-22.0,70.0,0.0,-25.0,-982.0,-253.0
-15.0,-255.0,-61.0,-23.0,69.0,0.0,-26.0,-979.0,-254.0
-14.0,-256.0,-61.0,-24.0,69.0,0.0,-26.0,-991.0,-251.0
-15.0,-257.0,-54.0,-22.0,69.0,0.0,-21.0,-995.0,-257.0
-13.0,-257.0,-58.0,-21.0,71.0,1.0,-24.0,-988.0,-255.0
-11.0,-255.0,-60.0,-19.0,73.0,-1.0,-25.0,-993.0,-257.0
-16.0,-255.0,-57.0,-18.0,74.0,-1.0,-29.0,-985.0,-263.0
-14.0,-254.0,-58.0,-18.0,73.0,-1.0,-28.0,-991.0,-259.0
-13.0,-256.0,-62.0,-20.0,73.0,-1.0,-25.0,-989.0,-258.0
-12.0,-254.0,-59.0,-19.0,74.0,-2.0,-26.0,-991.0,-263.0
-15.0,-256.0,-60.0,-20.0,73.0,-2.0,-29.0,-989.0,-264.0
-14.0,-254.0,-60.0,-20.0,74.0,-3.0,-22.0,-986.0,-258.0
-12.0,-255.0,-53.0,-19.0,73.0,-3.0,-22.0,-988.0,-258.0
-12.0,-255.0,-55.0,-18.0,73.0,-3.0,-19.0,-992.0,-262.0
-15.0,-256.0,-60.0,-14.0,71.0,-4.0,-24.0,-983.0,-258.0
-11.0,-255.0,-55.0,-10.0,68.0,-5.0,-20.0,-985.0,-261.0
-13.0,-255.0,-60.0,-8.0,68.0,-5.0,-24.0,-980.0,-259.0
-13.0,-253.0,-59.0,-7.0,66.0,-3.0,-18.0,-981.0,-258.0
-11.0,-253.0,-70.0,-6.0,64.0,-3.0,-21.0,-980.0,-262.0
-11.0,-254.0,-58.0,-6.0,64.0,-3.0,-20.0,-980.0,-264.0
-12.0,-255.0,-59.0,-6.0,63.0,-2.0,-19.0,-982.0,-260.0
-11.0,-255.0,-60.0,-6.0,63.0,-2.0,-18.0,-982.0,-257.0
-11.0,-253.0,-55.0,-8.0,64.0,-3.0,-21.0,-986.0,-257.0
-13.0,-255.0,-58.0,-9.0,61.0,-4.0,-17.0,-985.0,-255.0
-14.0,-256.0,-57.0,-10.0,61.0,-4.0,-26.0,-978.0,-252.0
-13.0,-255.0,-59.0,-11.0,61.0,-4.0,-23.0,-984.0,-258.0
-13.0,-255.0,-58.0,-10.0,61.0,-4.0,-24.0,-984.0,-247.0
-13.0,-255.0,-56.0,-11.0,63.0,-2.0,-23.0,-981.0,-252.0
-14.0,-255.0,-58.0,-11.0,64.0,-4.0,-26.0,-987.0,-249.0
-15.0,-255.0,-58.0,-12.0,66.0,-3.0,-27.0,-988.0,-251.0
-15.0,-254.0,-55.0,-13.0,68.0,-3.0,-26.0,-992.0,-252.0
-12.0,-256.0,-57.0,-13.0,68.0,-4.0,-28.0,-993.0,-251.0
-13.0,-254.0,-55.0,-15.0,66.0,-3.0,-22.0,-992.0,-255.0
-15.0,-253.0,-59.0,-15.0,66.0,-4.0,-21.0,-987.0,-262.0
-14.0,-258.0,-60.0,-15.0,65.0,-4.0,-27.0,-987.0,-255.0
-13.0,-256.0,-56.0,-13.0,65.0,-5.0,-21.0,-985.0,-260.0
-16.0,-253.0,-55.0,-12.0,65.0,-5.0,-22.0,-985.0,-260.0
-13.0,-255.0,-57.0,-10.0,64.0,-5.0,-25.0,-984.0,-258.0
-14.0,-255.0,-60.0,-9.0,63.0,-5.0,-26.0,-983.0,-257.0
-13.0,-254.0,-57.0,-8.0,63.0,-5.0,-24.0,-978.0,-260.0
-13.0,-255.0,-58.0,-11.0,64.0,-3.0,-19.0,-985.0,-253.0
-12.0,-257.0,-61.0,-13.0,66.0,-3.0,-18.0,-985.0,-254.0
-12.0,-256.0,-58.0,-14.0,67.0,-3.0,-16.0,-986.0,-254.0
-14.0,-252.0,-57.0,-15.0,68.0,-2.0,-17.0,-980.0,-251.0
-13.0,-253.0,-59.0,-16.0,69.0,-1.0,-22.0,-980.0,-249.0
-10.0,-255.0,-60.0,-15.0,69.0,-2.0,-18.0,-992.0,-257.0
-15.0,-254.0,-55.0,-16.0,68.0,-2.0,-20.0,-985.0,-254.0
-12.0,-256.0,-58.0,-16.0,67.0,-1.0,-24.0,-985.0,-254.0
-13.0,-255.0,-60.0,-16.0,68.0,0.0,-20.0,-985.0,-251.0
-13.0,-256.0,-57.0,-19.0,65.0,1.0,-20.0,-982.0,-254.0
-12.0,-253.0,-58.0,-19.0,64.0,0.0,-22.0,-983.0,-255.0
-16.0,-252.0,-55.0,-22.0,65.0,-1.0,-19.0,-982.0,-253.0
-15.0,-255.0,-58.0,-24.0,64.0,1.0,-23.0,-989.0,-252.0
-12.0,-256.0,-58.0,-25.0,66.0,0.0,-24.0,-987.0,-256.0
-12.0,-254.0,-60.0,-26.0,66.0,0.0,-25.0,-988.0,-255.0
-15.0,-256.0,-59.0,-28.0,67.0,1.0,-29.0,-988.0,-260.0
-14.0,-256.0,-60.0,-27.0,70.0,0.0,-25.0,-987.0,-259.0
-14.0,-255.0,-59.0,-27.0,71.0,-1.0,-25.0,-988.0,-261.0
-13.0,-255.0,-58.0,-26.0,69.0,0.0,-18.0,-988.0,-258.0
-16.0,-253.0,-59.0,-25.0,70.0,-1.0,-27.0,-986.0,-260.0
-16.0,-253.0,-59.0,-25.0,70.0,-1.0,-25.0,-986.0,-257.0
-6.0,-256.0,-54.0,-25.0,69.0,-1.0,-25.0,-985.0,-258.0
-13.0,-253.0,-57.0,-25.0,71.0,-2.0,-24.0,-983.0,-257.0
-15.0,-255.0,-60.0,-26.0,71.0,-1.0,-25.0,-988.0,-255.0
-13.0,-255.0,-57.0,-25.0,73.0,-2.0,-24.0,-983.0,-253.0
-9.0,-255.0,-57.0,-25.0,74.0,-2.0,-21.0,-983.0,-253.0
-13.0,-256.0,-58.0,-25.0,74.0,-3.0,-22.0,-989.0,-253.0
-17.0,-256.0,-57.0,-23.0,73.0,-2.0,-21.0,-987.0,-253.0
-17.0,-257.0,-59.0,-23.0,73.0,-2.0,-27.0,-988.0,-255.0
-14.0,-252.0,-58.0,-22.0,73.0,0.0,-24.0,-987.0,-258.0
-13.0,-255.0,-58.0,-24.0,72.0,-1.0,-26.0,-984.0,-257.0
-13.0,-255.0,-59.0,-25.0,72.0,0.0,-23.0,-983.0,-259.0
-16.0,-252.0,-57.0,-26.0,72.0,0.0,-21.0,-976.0,-258.0
-14.0,-256.0,-61.0,-26.0,72.0,-1.0,-25.0,-980.0,-261.0
-14.0,-254.0,-58.0,-28.0,71.0,0.0,-22.0,-987.0,-259.0
-15.0,-255.0,-60.0,-27.0,70.0,-2.0,-22.0,-983.0,-259.0
-13.0,-255.0,-60.0,-28.0,69.0,0.0,-23.0,-985.0,-257.0
-13.0,-254.0,-59.0,-27.0,67.0,-1.0,-23.0,-978.0,-256.0
-14.0,-255.0,-59.0,-28.0,66.0,-2.0,-23.0,-982.0,-255.0
-15.0,-253.0,-59.0,-30.0,66.0,-1.0,-27.0,-981.0,-250.0
-16.0,-253.0,-57.0,-30.0,65.0,-2.0,-23.0,-983.0,-258.0
-16.0,-256.0,-60.0,-30.0,64.0,-1.0,-22.0,-988.0,-262.0
-15.0,-255.0,-59.0,-30.0,64.0,-1.0,-28.0,-984.0,-262.0
-10.0,-253.0,-62.0,-30.0,65.0,-1.0,-22.0,-983.0,-259.0
-12.0,-255.0,-61.0,-30.0,63.0,-1.0,-23.0,-985.0,-259.0
-13.0,-256.0,-58.0,-30.0,65.0,-1.0,-30.0,-981.0,-258.0
-17.0,-253.0,-60.0,-29.0,65.0,-2.0,-29.0,-985.0,-264.0
-15.0,-254.0,-59.0,-28.0,67.0,-2.0,-27.0,-985.0,-259.0
-14.0,-255.0,-61.0,-27.0,65.0,-3.0,-28.0,-984.0,-259.0
-13.0,-255.0,-59.0,-27.0,66.0,-2.0,-20.0,-979.0,-261.0
-14.0,-256.0,-60.0,-27.0,66.0,-1.0,-22.0,-983.0,-260.0
-11.0,-256.0,-55.0,-29.0,65.0,-3.0,-24.0,-984.0,-258.0
-15.0,-252.0,-59.0,-30.0,66.0,-2.0,-24.0,-986.0,-257.0
-10.0,-252.0,-62.0,-31.0,67.0,-4.0,-30.0,-984.0,-265.0
-13.0,-254.0,-60.0,-33.0,69.0,-3.0,-27.0,-984.0,-264.0
-12.0,-254.0,-63.0,-35.0,69.0,-4.0,-28.0,-981.0,-266.0
-14.0,-255.0,-60.0,-37.0,69.0,-4.0,-23.0,-985.0,-268.0
-14.0,-255.0,-63.0,-41.0,71.0,-3.0,-28.0,-983.0,-272.0
-16.0,-253.0,-63.0,-43.0,71.0,-3.0,-24.0,-975.0,-275.0
-14.0,-254.0,-59.0,-45.0,71.0,-2.0,-23.0,-983.0,-269.0
-16.0,-253.0,-61.0,-48.0,70.0,0.0,-27.0,-978.0,-273.0
-11.0,-256.0,-61.0,-54.0,68.0,0.0,-27.0,-980.0,-275.0
-13.0,-254.0,-62.0,-60.0,64.0,0.0,-28.0,-982.0,-274.0
-11.0,-254.0,-66.0,-67.0,62.0,1.0,-26.0,-983.0,-274.0
-14.0,-251.0,-58.0,-74.0,60.0,2.0,-27.0,-973.0,-266.0
-19.0,-253.0,-57.0,-80.0,59.0,3.0,-25.0,-975.0,-274.0
-14.0,-251.0,-60.0,-86.0,57.0,4.0,-27.0,-976.0,-274.0
-13.0,-253.0,-63.0,-93.0,57.0,4.0,-28.0,-972.0,-279.0
-15.0,-253.0,-61.0,-99.0,55.0,4.0,-25.0,-973.0,-283.0
-15.0,-252.0,-63.0,-105.0,53.0,4.0,-30.0,-971.0,-283.0
-15.0,-253.0,-66.0,-112.0,49.0,4.0,-31.0,-970.0,-287.0
-14.0,-252.0,-64.0,-120.0,48.0,4.0,-31.0,-969.0,-292.0
-16.0,-249.0,-65.0,-128.0,44.0,2.0,-32.0,-965.0,-294.0
-16.0,-252.0,-66.0,-137.0,44.0,2.0,-30.0,-963.0,-299.0
-15.0,-248.0,-67.0,-145.0,42.0,2.0,-31.0,-958.0,-298.0
-15.0,-248.0,-69.0,-155.0,42.0,1.0,-32.0,-954.0,-298.0
-13.0,-246.0,-67.0,-165.0,41.0,-1.0,-34.0,-955.0,-305.0
-14.0,-246.0,-71.0,-172.0,39.0,-1.0,-35.0,-952.0,-306.0
-16.0,-245.0,-69.0,-181.0,36.0,-2.0,-31.0,-948.0,-315.0
-16.0,-243.0,-73.0,-191.0,36.0,-3.0,-36.0,-944.0,-324.0
-19.0,-243.0,-78.0,-203.0,33.0,-3.0,-34.0,-935.0,-330.0
-17.0,-240.0,-74.0,-215.0,32.0,-3.0,-44.0,-933.0,-332.0
-18.0,-240.0,-73.0,-228.0,30.0,-3.0,-46.0,-930.0,-333.0
-18.0,-236.0,-72.0,-238.0,26.0,-3.0,-51.0,-926.0,-334.0
-21.0,-235.0,-74.0,-246.0,24.0,-3.0,-47.0,-920.0,-335.0
-19.0,-237.0,-76.0,-253.0,21.0,-2.0,-47.0,-916.0,-334.0
-20.0,-235.0,-77.0,-258.0,20.0,-2.0,-52.0,-913.0,-342.0
-20.0,-237.0,-75.0,-262.0,17.0,-1.0,-50.0,-911.0,-340.0
-19.0,-236.0,-80.0,-267.0,18.0,-1.0,-49.0,-906.0,-347.0
-20.0,-234.0,-79.0,-273.0,19.0,-1.0,-53.0,-908.0,-349.0
-20.0,-231.0,-80.0,-279.0,20.0,-2.0,-49.0,-898.0,-349.0
-20.0,-235.0,-77.0,-285.0,21.0,-4.0,-45.0,-897.0,-353.0
-20.0,-228.0,-83.0,-291.0,22.0,-3.0,-47.0,-894.0,-359.0
-16.0,-231.0,-83.0,-298.0,24.0,-3.0,-44.0,-893.0,-363.0
-17.0,-227.0,-85.0,-304.0,26.0,-4.0,-42.0,-896.0,-364.0
-16.0,-231.0,-82.0,-313.0,30.0,-7.0,-36.0,-889.0,-372.0
-15.0,-228.0,-87.0,-324.0,33.0,-9.0,-30.0,-886.0,-379.0
-14.0,-218.0,-92.0,-335.0,34.0,-11.0,-31.0,-887.0,-390.0
-18.0,-224.0,-92.0,-351.0,35.0,-15.0,-38.0,-875.0,-401.0
-19.0,-225.0,-93.0,-368.0,34.0,-17.0,-41.0,-878.0,-404.0
-15.0,-225.0,-92.0,-385.0,29.0,-18.0,-34.0,-875.0,-412.0
-16.0,-225.0,-96.0,-401.0,24.0,-19.0,-34.0,-869.0,-418.0
-17.0,-221.0,-95.0,-413.0,21.0,-22.0,-28.0,-861.0,-418.0
-13.0,-223.0,-98.0,-423.0,15.0,-23.0,-23.0,-867.0,-418.0
-16.0,-221.0,-95.0,-426.0,16.0,-25.0,-28.0,-859.0,-421.0
-14.0,-220.0,-101.0,-424.0,19.0,-28.0,-23.0,-851.0,-423.0
-13.0,-216.0,-96.0,-416.0,26.0,-31.0,-26.0,-847.0,-425.0
-12.0,-214.0,-98.0,-405.0,34.0,-34.0,-20.0,-834.0,-425.0
-11.0,-206.0,-106.0,-392.0,43.0,-40.0,-20.0,-816.0,-436.0
-10.0,-204.0,-103.0,-382.0,55.0,-44.0,-16.0,-797.0,-452.0
-10.0,-197.0,-103.0,-375.0,66.0,-47.0,-11.0,-774.0,-462.0
-8.0,-194.0,-106.0,-372.0,78.0,-51.0,1.0,-756.0,-466.0
-6.0,-191.0,-109.0,-375.0,92.0,-54.0,0.0,-729.0,-473.0
-7.0,-184.0,-112.0,-383.0,106.0,-58.0,3.0,-710.0,-477.0
-4.0,-178.0,-110.0,-393.0,120.0,-61.0,17.0,-685.0,-480.0
-4.0,-169.0,-109.0,-406.0,133.0,-63.0,16.0,-655.0,-483.0
-2.0,-160.0,-110.0,-419.0,144.0,-64.0,13.0,-627.0,-469.0
-2.0,-156.0,-109.0,-427.0,154.0,-66.0,18.0,-597.0,-466.0
1.0,-149.0,-104.0,-430.0,163.0,-67.0,16.0,-569.0,-459.0
0.0,-137.0,-98.0,-431.0,175.0,-68.0,25.0,-539.0,-448.0
3.0,-130.0,-99.0,-427.0,186.0,-70.0,16.0,-508.0,-424.0
0.0,-126.0,-95.0,-418.0,194.0,-68.0,24.0,-479.0,-403.0
4.0,-117.0,-90.0,-409.0,202.0,-69.0,20.0,-453.0,-395.0
4.0,-110.0,-84.0,-401.0,208.0,-67.0,25.0,-417.0,-374.0
4.0,-105.0,-82.0,-396.0,210.0,-67.0,22.0,-390.0,-357.0
3.0,-92.0,-76.0,-398.0,212.0,-65.0,26.0,-361.0,-338.0
0.0,-83.0,-74.0,-410.0,210.0,-63.0,23.0,-335.0,-325.0
3.0,-77.0,-67.0,-434.0,204.0,-61.0,26.0,-315.0,-299.0
4.0,-71.0,-64.0,-470.0,191.0,-59.0,27.0,-283.0,-282.0
3.0,-65.0,-58.0,-521.0,178.0,-59.0,22.0,-257.0,-269.0
1.0,-60.0,-53.0,-585.0,160.0,-56.0,16.0,-241.0,-247.0
-1.0,-55.0,-53.0,-661.0,144.0,-53.0,-3.0,-218.0,-237.0
-1.0,-50.0,-49.0,-746.0,123.0,-46.0,3.0,-206.0,-227.0
-6.0,-50.0,-45.0,-841.0,104.0,-40.0,-2.0,-192.0,-215.0
-4.0,-43.0,-44.0,-940.0,84.0,-32.0,-3.0,-192.0,-196.0
-5.0,-42.0,-39.0,-1039.0,74.0,-31.0,-7.0,-167.0,-176.0
-4.0,-40.0,-36.0,-1131.0,66.0,-28.0,-8.0,-165.0,-162.0
-5.0,-40.0,-30.0,-1214.0,62.0,-19.0,-16.0,-160.0,-142.0
-4.0,-42.0,-24.0,-1268.0,60.0,-16.0,-5.0,-152.0,-126.0
-4.0,-41.0,-24.0,-1318.0,59.0,-25.0,-16.0,-152.0,-114.0
-7.0,-42.0,-27.0,-1348.0,58.0,-36.0,-10.0,-164.0,-117.0
-5.0,-45.0,-29.0,-1372.0,53.0,-48.0,-14.0,-173.0,-134.0
-9.0,-50.0,-35.0,-1394.0,50.0,-54.0,-17.0,-197.0,-148.0
-6.0,-56.0,-35.0,-1409.0,45.0,-56.0,-13.0,-202.0,-171.0
-4.0,-64.0,-41.0,-1410.0,39.0,-60.0,-12.0,-223.0,-189.0
-1.0,-65.0,-48.0,-1392.0,39.0,-65.0,-3.0,-242.0,-208.0
-2.0,-73.0,-60.0,-1351.0,46.0,-74.0,7.0,-272.0,-243.0
4.0,-81.0,-68.0,-1287.0,65.0,-83.0,11.0,-296.0,-298.0
1.0,-88.0,-82.0,-1216.0,92.0,-95.0,9.0,-326.0,-354.0
1.0,-91.0,-97.0,-1147.0,126.0,-110.0,12.0,-340.0,-400.0
-1.0,-96.0,-113.0,-1098.0,151.0,-129.0,15.0,-361.0,-470.0
-4.0,-100.0,-125.0,-1079.0,149.0,-145.0,4.0,-394.0,-515.0
-10.0,-108.0,-136.0,-1096.0,111.0,-161.0,-8.0,-411.0,-576.0
-11.0,-115.0,-142.0,-1141.0,40.0,-174.0,-17.0,-448.0,-610.0
-18.0,-124.0,-141.0,-1192.0,-46.0,-180.0,-28.0,-473.0,-612.0
-17.0,-133.0,-135.0,-1225.0,-131.0,-178.0,-39.0,-509.0,-584.0
-21.0,-145.0,-125.0,-1222.0,-201.0,-174.0,-45.0,-562.0,-526.0
-21.0,-166.0,-103.0,-1166.0,-249.0,-168.0,-51.0,-626.0,-460.0
-17.0,-191.0,-86.0,-1053.0,-270.0,-162.0,-55.0,-708.0,-379.0
-19.0,-214.0,-71.0,-888.0,-270.0,-154.0,-62.0,-794.0,-316.0
-27.0,-246.0,-56.0,-687.0,-256.0,-144.0,-83.0,-899.0,-254.0
-31.0,-273.0,-40.0,-463.0,-241.0,-134.0,-99.0,-1017.0,-186.0
-42.0,-309.0,-24.0,-203.0,-231.0,-133.0,-128.0,-1157.0,-117.0
-48.0,-346.0,-10.0,92.0,-238.0,-130.0,-150.0,-1293.0,-79.0
-54.0,-383.0,-5.0,423.0,-261.0,-123.0,-168.0,-1455.0,-39.0
-52.0,-413.0,-4.0,795.0,-279.0,-102.0,-162.0,-1582.0,-27.0
-46.0,-449.0,2.0,1198.0,-275.0,-83.0,-148.0,-1694.0,-13.0
-49.0,-479.0,2.0,1635.0,-248.0,-62.0,-144.0,-1788.0,-9.0
-53.0,-501.0,-8.0,2094.0,-220.0,-40.0,-156.0,-1878.0,-47.0
-38.0,-504.0,-25.0,2542.0,-198.0,-17.0,-111.0,-1915.0,-105.0
-39.0,-497.0,-33.0,2956.0,-171.0,-17.0,-112.0,-1879.0,-148.0
-32.0,-480.0,-28.0,3338.0,-144.0,-23.0,-82.0,-1831.0,-136.0
-25.0,-462.0,-29.0,3723.0,-107.0,-27.0,-64.0,-1751.0,-127.0
-11.0,-437.0,-34.0,4100.0,-66.0,-32.0,-17.0,-1682.0,-158.0
-11.0,-401.0,-60.0,4432.0,-36.0,-69.0,-4.0,-1561.0,-225.0
-11.0,-354.0,-77.0,4680.0,-22.0,-100.0,-3.0,-1371.0,-317.0
-7.0,-309.0,-97.0,4809.0,-18.0,-123.0,15.0,-1200.0,-397.0
4.0,-259.0,-127.0,4793.0,-31.0,-142.0,44.0,-1050.0,-510.0
8.0,-212.0,-157.0,4579.0,-58.0,-151.0,66.0,-893.0,-634.0
12.0,-164.0,-182.0,4141.0,-103.0,-142.0,92.0,-739.0,-739.0
26.0,-130.0,-199.0,3486.0,-149.0,-112.0,111.0,-618.0,-832.0
28.0,-109.0,-213.0,2642.0,-178.0,-74.0,142.0,-558.0,-878.0
31.0,-101.0,-215.0,1662.0,-196.0,-31.0,152.0,-544.0,-891.0
34.0,-112.0,-204.0,631.0,-208.0,-1.0,151.0,-554.0,-844.0
30.0,-129.0,-159.0,-340.0,-208.0,10.0,143.0,-597.0,-689.0
24.0,-164.0,-105.0,-1137.0,-190.0,22.0,119.0,-694.0,-474.0
22.0,-201.0,-49.0,-1694.0,-156.0,37.0,113.0,-854.0,-173.0
16.0,-247.0,-3.0,-2002.0,-121.0,43.0,102.0,-1000.0,-34.0
9.0,-281.0,10.0,-2131.0,-128.0,64.0,93.0,-1114.0,35.0
4.0,-313.0,17.0,-2134.0,-186.0,75.0,66.0,-1184.0,56.0
4.0,-318.0,-8.0,-2037.0,-258.0,80.0,39.0,-1210.0,-38.0
0.0,-313.0,-54.0,-1897.0,-298.0,80.0,31.0,-1203.0,-197.0
-20.0,-320.0,-79.0,-1775.0,-302.0,68.0,-8.0,-1237.0,-314.0
1.0,-351.0,-122.0,-1696.0,-282.0,101.0,53.0,-1375.0,-464.0
9.0,-342.0,-165.0,-1699.0,-278.0,167.0,83.0,-1374.0,-668.0
-27.0,-325.0,-197.0,-1784.0,-332.0,213.0,-31.0,-1275.0,-840.0
-6.0,-321.0,-194.0,-1876.0,-387.0,273.0,-33.0,-1216.0,-826.0
-1.0,-346.0,-172.0,-1844.0,-301.0,318.0,-17.0,-1313.0,-706.0
-10.0,-387.0,-146.0,-1669.0,-111.0,332.0,-11.0,-1458.0,-622.0
-3.0,-412.0,-127.0,-1399.0,85.0,283.0,1.0,-1536.0,-548.0
-35.0,-407.0,-118.0,-1045.0,232.0,154.0,-92.0,-1474.0,-490.0
-61.0,-390.0,-105.0,-652.0,268.0,113.0,-161.0,-1494.0,-429.0
-76.0,-383.0,-81.0,-261.0,233.0,125.0,-265.0,-1456.0,-388.0
-45.0,-362.0,-96.0,69.0,167.0,147.0,-138.0,-1412.0,-443.0
-60.0,-341.0,-98.0,291.0,142.0,149.0,-163.0,-1339.0,-424.0
-12.0,-327.0,-111.0,449.0,155.0,218.0,30.0,-1272.0,-507.0
-17.0,-340.0,-101.0,519.0,209.0,229.0,-67.0,-1334.0,-448.0
-15.0,-327.0,-102.0,569.0,281.0,228.0,-69.0,-1266.0,-460.0
-8.0,-335.0,-91.0,581.0,330.0,216.0,-50.0,-1294.0,-464.0
-11.0,-325.0,-91.0,570.0,361.0,172.0,17.0,-1276.0,-401.0
30.0,-321.0,-96.0,588.0,368.0,140.0,25.0,-1238.0,-406.0
8.0,-328.0,-82.0,621.0,351.0,89.0,107.0,-1269.0,-386.0
30.0,-314.0,-102.0,658.0,327.0,17.0,150.0,-1192.0,-424.0
-12.0,-323.0,-75.0,720.0,311.0,-26.0,37.0,-1220.0,-360.0
33.0,-296.0,-100.0,811.0,308.0,-50.0,168.0,-1150.0,-453.0
-13.0,-297.0,-91.0,863.0,323.0,-121.0,-9.0,-1159.0,-380.0
-2.0,-300.0,-100.0,926.0,329.0,-148.0,-6.0,-1199.0,-431.0
-28.0,-308.0,-87.0,957.0,357.0,-161.0,-26.0,-1178.0,-393.0
4.0,-292.0,-104.0,1028.0,371.0,-152.0,125.0,-1150.0,-445.0
-32.0,-298.0,-85.0,1050.0,387.0,-207.0,-113.0,-1181.0,-394.0
9.0,-304.0,-98.0,1079.0,376.0,-208.0,61.0,-1160.0,-403.0
-41.0,-293.0,-85.0,1102.0,358.0,-255.0,-120.0,-1120.0,-393.0
-41.0,-287.0,-83.0,1128.0,319.0,-210.0,-121.0,-1115.0,-373.0
-61.0,-308.0,-70.0,1142.0,269.0,-150.0,-195.0,-1164.0,-338.0
2.0,-314.0,-107.0,1197.0,216.0,-60.0,44.0,-1223.0,-442.0
-18.0,-297.0,-107.0,1180.0,200.0,-119.0,-48.0,-1172.0,-430.0
-40.0,-295.0,-97.0,1149.0,216.0,-152.0,-97.0,-1191.0,-415.0
-22.0,-304.0,-98.0,1128.0,226.0,-136.0,-86.0,-1187.0,-429.0
3.0,-313.0,-96.0,1099.0,233.0,-105.0,31.0,-1214.0,-438.0
-20.0,-300.0,-103.0,1084.0,229.0,-99.0,-52.0,-1151.0,-414.0
23.0,-300.0,-108.0,1076.0,211.0,-71.0,75.0,-1159.0,-439.0
-11.0,-299.0,-88.0,1051.0,193.0,-92.0,10.0,-1176.0,-371.0
-33.0,-320.0,-65.0,1081.0,157.0,-78.0,-72.0,-1232.0,-313.0
1.0,-325.0,-71.0,1190.0,103.0,-38.0,47.0,-1217.0,-322.0
-11.0,-307.0,-70.0,1305.0,69.0,-75.0,-14.0,-1181.0,-319.0
-6.0,-296.0,-63.0,1378.0,64.0,-111.0,-30.0,-1159.0,-260.0
-22.0,-296.0,-53.0,1458.0,76.0,-152.0,-41.0,-1151.0,-240.0
-15.0,-288.0,-52.0,1526.0,88.0,-160.0,-35.0,-1121.0,-229.0
-13.0,-277.0,-53.0,1587.0,101.0,-168.0,-12.0,-1084.0,-240.0
-12.0,-273.0,-52.0,1620.0,112.0,-174.0,-16.0,-1067.0,-227.0
-12.0,-269.0,-43.0,1637.0,123.0,-177.0,-17.0,-1057.0,-204.0
-10.0,-265.0,-37.0,1658.0,126.0,-174.0,-17.0,-1049.0,-176.0
5.0,-214.0,-18.0,1687.0,119.0,-165.0,39.0,-823.0,-97.0
13.0,-136.0,-29.0,1728.0,95.0,-159.0,85.0,-559.0,-145.0
-19.0,-163.0,-56.0,1656.0,45.0,-174.0,-37.0,-668.0,-230.0
-48.0,-274.0,-39.0,1422.0,1.0,-156.0,-160.0,-1064.0,-183.0
-10.0,-448.0,41.0,1210.0,1.0,-114.0,-23.0,-1714.0,111.0
5.0,-500.0,113.0,1240.0,55.0,-83.0,80.0,-1894.0,404.0
-7.0,-576.0,148.0,1494.0,57.0,-96.0,51.0,-2172.0,574.0
-46.0,-670.0,172.0,1878.0,13.0,-128.0,-74.0,-2611.0,590.0
-29.0,-776.0,105.0,2421.0,-10.0,-144.0,37.0,-2932.0,446.0
-84.0,-822.0,-40.0,2969.0,28.0,-287.0,-197.0,-3212.0,-96.0
-68.0,-807.0,-217.0,3076.0,90.0,-260.0,-156.0,-3324.0,-965.0
16.0,-727.0,-336.0,2549.0,126.0,-309.0,112.0,-2916.0,-1436.0
24.0,-581.0,-376.0,1617.0,160.0,-447.0,127.0,-2341.0,-1549.0
-18.0,-504.0,-212.0,740.0,234.0,-423.0,-11.0,-1944.0,-868.0
15.0,-412.0,-78.0,489.0,273.0,-280.0,134.0,-1542.0,-338.0
13.0,-322.0,-4.0,583.0,252.0,-207.0,100.0,-1245.0,-30.0
17.0,-284.0,55.0,626.0,204.0,-155.0,51.0,-1097.0,195.0
-8.0,-233.0,72.0,647.0,164.0,-114.0,14.0,-946.0,266.0
-31.0,-186.0,48.0,686.0,156.0,-86.0,-75.0,-766.0,201.0
-26.0,-153.0,0.0,721.0,186.0,-44.0,-106.0,-622.0,26.0
-31.0,-138.0,-53.0,697.0,240.0,-20.0,-96.0,-562.0,-181.0
-47.0,-132.0,-93.0,618.0,282.0,-19.0,-136.0,-544.0,-389.0
-49.0,-142.0,-112.0,518.0,295.0,-23.0,-174.0,-554.0,-483.0
-46.0,-166.0,-119.0,451.0,293.0,-29.0,-159.0,-642.0,-514.0
-39.0,-187.0,-120.0,443.0,305.0,-56.0,-133.0,-724.0,-514.0
-37.0,-198.0,-101.0,480.0,336.0,-92.0,-121.0,-764.0,-474.0
-34.0,-203.0,-79.0,542.0,357.0,-113.0,-95.0,-777.0,-373.0
-31.0,-199.0,-73.0,604.0,356.0,-111.0,-59.0,-767.0,-303.0
-18.0,-196.0,-40.0,632.0,342.0,-87.0,-30.0,-737.0,-177.0
1.0,-182.0,11.0,648.0,289.0,-60.0,14.0,-730.0,-18.0
10.0,-186.0,59.0,679.0,208.0,-42.0,56.0,-742.0,162.0
8.0,-187.0,84.0,712.0,140.0,-30.0,81.0,-739.0,307.0
20.0,-188.0,110.0,742.0,83.0,-23.0,92.0,-759.0,423.0
23.0,-205.0,120.0,718.0,69.0,-20.0,112.0,-796.0,506.0
19.0,-212.0,142.0,651.0,65.0,-29.0,122.0,-858.0,558.0
9.0,-244.0,157.0,591.0,49.0,-46.0,91.0,-935.0,623.0
14.0,-253.0,171.0,565.0,32.0,-55.0,90.0,-1015.0,664.0
15.0,-273.0,150.0,569.0,34.0,-61.0,71.0,-1068.0,627.0
16.0,-290.0,142.0,578.0,49.0,-66.0,83.0,-1104.0,586.0
10.0,-286.0,151.0,604.0,61.0,-64.0,54.0,-1135.0,568.0
3.0,-292.0,138.0,664.0,66.0,-46.0,19.0,-1134.0,526.0
0.0,-295.0,113.0,747.0,67.0,-16.0,22.0,-1134.0,482.0
5.0,-288.0,108.0,816.0,77.0,11.0,65.0,-1124.0,426.0
8.0,-279.0,101.0,852.0,90.0,16.0,71.0,-1096.0,409.0
14.0,-269.0,86.0,862.0,110.0,12.0,81.0,-1061.0,358.0
12.0,-271.0,80.0,833.0,131.0,-6.0,71.0,-1051.0,345.0
8.0,-259.0,88.0,793.0,167.0,-14.0,67.0,-1035.0,322.0
6.0,-262.0,96.0,734.0,188.0,-27.0,36.0,-1034.0,343.0
-7.0,-265.0,96.0,698.0,196.0,-27.0,17.0,-1051.0,355.0
0.0,-259.0,89.0,688.0,192.0,-19.0,18.0,-1028.0,334.0
-5.0,-253.0,76.0,695.0,183.0,-15.0,2.0,-992.0,291.0
-11.0,-240.0,63.0,674.0,165.0,-8.0,-12.0,-949.0,225.0
-13.0,-233.0,47.0,617.0,144.0,7.0,0.0,-933.0,181.0
-14.0,-231.0,46.0,531.0,118.0,24.0,-21.0,-913.0,147.0
-13.0,-230.0,40.0,446.0,98.0,43.0,-20.0,-910.0,136.0
-16.0,-235.0,40.0,366.0,71.0,63.0,-31.0,-913.0,139.0
-19.0,-238.0,41.0,308.0,48.0,80.0,-39.0,-937.0,139.0
-19.0,-246.0,43.0,282.0,28.0,94.0,-48.0,-946.0,149.0
-20.0,-245.0,52.0,281.0,8.0,105.0,-46.0,-962.0,164.0
-18.0,-256.0,51.0,307.0,-2.0,112.0,-43.0,-976.0,172.0
-20.0,-260.0,58.0,350.0,-7.0,115.0,-34.0,-1014.0,189.0
-17.0,-266.0,56.0,396.0,-7.0,113.0,-27.0,-1010.0,198.0
-15.0,-267.0,56.0,435.0,5.0,101.0,-22.0,-1046.0,190.0
-11.0,-263.0,54.0,434.0,1.0,89.0,-22.0,-1051.0,190.0
-8.0,-265.0,64.0,413.0,11.0,67.0,-13.0,-1035.0,222.0
-4.0,-266.0,71.0,419.0,53.0,53.0,-2.0,-1036.0,256.0
-4.0,-268.0,75.0,447.0,108.0,34.0,8.0,-1050.0,292.0
-11.0,-265.0,80.0,485.0,154.0,18.0,-3.0,-1042.0,306.0
-6.0,-264.0,87.0,525.0,184.0,3.0,-1.0,-1034.0,319.0
-11.0,-260.0,87.0,560.0,195.0,-11.0,-14.0,-1014.0,330.0
-10.0,-256.0,88.0,592.0,199.0,-15.0,-8.0,-998.0,326.0
-5.0,-256.0,90.0,619.0,196.0,-17.0,-4.0,-996.0,336.0
-9.0,-250.0,89.0,639.0,191.0,-22.0,-10.0,-980.0,334.0
-11.0,-248.0,88.0,653.0,182.0,-19.0,-16.0,-969.0,329.0
-8.0,-249.0,87.0,653.0,175.0,-17.0,-5.0,-966.0,326.0
-8.0,-246.0,83.0,644.0,166.0,-8.0,-5.0,-959.0,314.0
-4.0,-244.0,85.0,626.0,155.0,-1.0,9.0,-959.0,302.0
-7.0,-242.0,76.0,605.0,145.0,2.0,10.0,-947.0,294.0
-3.0,-242.0,80.0,576.0,133.0,5.0,16.0,-939.0,291.0
3.0,-241.0,77.0,549.0,120.0,6.0,23.0,-935.0,278.0
2.0,-235.0,68.0,521.0,109.0,6.0,33.0,-929.0,274.0
4.0,-247.0,77.0,492.0,100.0,7.0,37.0,-934.0,268.0
10.0,-237.0,78.0,464.0,91.0,7.0,35.0,-932.0,259.0
3.0,-240.0,71.0,438.0,84.0,6.0,43.0,-938.0,262.0
4.0,-242.0,69.0,417.0,80.0,6.0,46.0,-951.0,259.0
4.0,-243.0,69.0,397.0,81.0,4.0,49.0,-949.0,263.0
5.0,-248.0,71.0,379.0,83.0,2.0,47.0,-968.0,263.0
5.0,-251.0,71.0,363.0,85.0,2.0,49.0,-965.0,260.0
6.0,-253.0,71.0,350.0,85.0,4.0,45.0,-974.0,267.0
3.0,-255.0,75.0,337.0,79.0,8.0,43.0,-981.0,272.0
4.0,-252.0,78.0,327.0,66.0,17.0,43.0,-986.0,275.0
4.0,-254.0,75.0,319.0,52.0,20.0,36.0,-993.0,279.0
4.0,-255.0,78.0,316.0,40.0,26.0,37.0,-996.0,284.0
3.0,-255.0,82.0,314.0,32.0,28.0,43.0,-1004.0,293.0
2.0,-257.0,85.0,314.0,31.0,24.0,31.0,-1010.0,298.0
4.0,-262.0,82.0,317.0,34.0,22.0,40.0,-1017.0,303.0
4.0,-259.0,83.0,316.0,41.0,15.0,41.0,-1021.0,309.0
0.0,-258.0,86.0,317.0,50.0,7.0,33.0,-1026.0,308.0
4.0,-264.0,81.0,314.0,57.0,2.0,40.0,-1038.0,307.0
0.0,-261.0,79.0,310.0,66.0,-8.0,32.0,-1041.0,307.0
1.0,-263.0,82.0,308.0,73.0,-16.0,25.0,-1032.0,301.0
0.0,-263.0,88.0,304.0,77.0,-19.0,25.0,-1032.0,296.0
-3.0,-262.0,80.0,301.0,81.0,-21.0,23.0,-1025.0,292.0
-5.0,-268.0,76.0,301.0,82.0,-25.0,17.0,-1018.0,285.0
-3.0,-262.0,74.0,299.0,79.0,-30.0,14.0,-1017.0,277.0
-6.0,-258.0,77.0,300.0,73.0,-31.0,5.0,-1004.0,271.0
-6.0,-257.0,71.0,299.0,64.0,-29.0,6.0,-998.0,265.0
-6.0,-255.0,72.0,298.0,54.0,-30.0,10.0,-985.0,261.0
-3.0,-254.0,67.0,292.0,45.0,-26.0,10.0,-983.0,253.0
-9.0,-248.0,68.0,279.0,37.0,-29.0,1.0,-972.0,253.0
-8.0,-246.0,71.0,261.0,29.0,-28.0,-1.0,-964.0,252.0
-9.0,-246.0,73.0,237.0,26.0,-27.0,-1.0,-960.0,258.0
-7.0,-244.0,71.0,208.0,20.0,-28.0,3.0,-955.0,264.0
-8.0,-243.0,76.0,177.0,16.0,-25.0,-7.0,-945.0,271.0
-5.0,-242.0,75.0,144.0,12.0,-20.0,1.0,-951.0,282.0
-7.0,-240.0,77.0,111.0,8.0,-20.0,-2.0,-943.0,282.0
-8.0,-239.0,79.0,78.0,10.0,-15.0,-2.0,-949.0,290.0
-9.0,-245.0,82.0,45.0,14.0,-11.0,-1.0,-955.0,290.0
-7.0,-243.0,80.0,15.0,20.0,-10.0,1.0,-960.0,296.0
-6.0,-247.0,80.0,-16.0,30.0,-7.0,2.0,-963.0,293.0
-7.0,-248.0,78.0,-44.0,39.0,-6.0,2.0,-968.0,292.0
-4.0,-255.0,78.0,-70.0,48.0,-6.0,9.0,-980.0,285.0
-4.0,-251.0,75.0,-89.0,55.0,-7.0,6.0,-982.0,280.0
-6.0,-255.0,77.0,-98.0,59.0,-9.0,4.0,-997.0,279.0
1.0,-263.0,72.0,-98.0,63.0,-10.0,10.0,-1002.0,286.0
-5.0,-258.0,78.0,-92.0,66.0,-11.0,10.0,-1013.0,289.0
-4.0,-258.0,79.0,-80.0,68.0,-11.0,15.0,-1011.0,289.0
-6.0,-261.0,79.0,-64.0,70.0,-13.0,17.0,-1021.0,294.0
-5.0,-263.0,75.0,-47.0,70.0,-14.0,17.0,-1025.0,293.0
-3.0,-262.0,83.0,-29.0,71.0,-12.0,18.0,-1026.0,302.0
-2.0,-264.0,82.0,-10.0,73.0,-13.0,25.0,-1029.0,297.0
1.0,-262.0,79.0,4.0,75.0,-13.0,26.0,-1020.0,298.0
1.0,-264.0,80.0,23.0,76.0,-14.0,22.0,-1024.0,296.0
0.0,-262.0,80.0,37.0,76.0,-14.0,25.0,-1018.0,301.0
0.0,-260.0,86.0,48.0,73.0,-14.0,25.0,-1023.0,296.0
-1.0,-260.0,84.0,57.0,69.0,-13.0,27.0,-1019.0,299.0
1.0,-259.0,82.0,67.0,64.0,-13.0,30.0,-1024.0,298.0
1.0,-260.0,81.0,76.0,60.0,-13.0,22.0,-1022.0,304.0
-3.0,-259.0,84.0,86.0,56.0,-12.0,24.0,-1018.0,302.0
0.0,-260.0,85.0,93.0,50.0,-11.0,22.0,-1016.0,309.0
1.0,-258.0,83.0,98.0,46.0,-11.0,20.0,-1008.0,307.0
1.0,-260.0,82.0,103.0,40.0,-12.0,20.0,-1003.0,300.0
-4.0,-253.0,77.0,105.0,39.0,-10.0,20.0,-995.0,300.0
-4.0,-253.0,81.0,106.0,43.0,-10.0,16.0,-987.0,301.0
-4.0,-251.0,83.0,103.0,49.0,-9.0,12.0,-976.0,303.0
-5.0,-246.0,80.0,100.0,55.0,-8.0,16.0,-966.0,303.0
-3.0,-248.0,85.0,92.0,62.0,-8.0,16.0,-957.0,311.0
0.0,-247.0,81.0,83.0,66.0,-7.0,17.0,-956.0,312.0
-5.0,-243.0,87.0,77.0,68.0,-2.0,14.0,-955.0,323.0
-7.0,-245.0,90.0,70.0,67.0,2.0,22.0,-959.0,330.0
-2.0,-246.0,92.0,62.0,65.0,6.0,15.0,-959.0,334.0
1.0,-249.0,90.0,55.0,59.0,9.0,17.0,-963.0,334.0
-3.0,-244.0,86.0,49.0,55.0,13.0,18.0,-961.0,342.0
0.0,-248.0,90.0,45.0,53.0,15.0,16.0,-961.0,340.0
-4.0,-248.0,89.0,44.0,48.0,16.0,22.0,-960.0,342.0
-3.0,-249.0,90.0,45.0,44.0,17.0,17.0,-966.0,338.0
-3.0,-251.0,86.0,48.0,40.0,15.0,21.0,-963.0,337.0
-3.0,-250.0,91.0,50.0,38.0,12.0,20.0,-973.0,333.0
-1.0,-255.0,86.0,49.0,34.0,11.0,15.0,-981.0,327.0
-4.0,-252.0,84.0,50.0,32.0,9.0,15.0,-980.0,327.0
-3.0,-254.0,87.0,48.0,30.0,7.0,15.0,-982.0,318.0
-5.0,-252.0,85.0,46.0,30.0,5.0,11.0,-980.0,319.0
-1.0,-252.0,84.0,44.0,30.0,6.0,13.0,-974.0,313.0
-4.0,-252.0,85.0,42.0,31.0,5.0,8.0,-982.0,316.0
-3.0,-249.0,83.0,35.0,32.0,6.0,15.0,-977.0,312.0
-1.0,-250.0,86.0,28.0,35.0,9.0,19.0,-976.0,316.0
-3.0,-249.0,87.0,20.0,37.0,12.0,20.0,-980.0,321.0
0.0,-249.0,90.0,14.0,44.0,13.0,23.0,-979.0,336.0
3.0,-250.0,95.0,7.0,49.0,12.0,24.0,-970.0,341.0
-1.0,-253.0,95.0,6.0,50.0,11.0,25.0,-974.0,353.0
0.0,-252.0,95.0,9.0,47.0,9.0,22.0,-972.0,362.0
1.0,-251.0,95.0,14.0,43.0,7.0,27.0,-979.0,365.0
4.0,-251.0,94.0,17.0,36.0,7.0,23.0,-982.0,366.0
2.0,-252.0,99.0,22.0,30.0,4.0,24.0,-978.0,360.0
0.0,-250.0,97.0,22.0,26.0,6.0,20.0,-981.0,362.0
-1.0,-252.0,94.0,24.0,21.0,4.0,25.0,-977.0,354.0
-1.0,-253.0,93.0,27.0,23.0,4.0,23.0,-979.0,351.0
-2.0,-253.0,95.0,30.0,25.0,4.0,20.0,-976.0,345.0
-2.0,-252.0,92.0,30.0,25.0,3.0,18.0,-982.0,336.0
-4.0,-252.0,89.0,28.0,29.0,4.0,14.0,-979.0,332.0
-1.0,-252.0,86.0,23.0,31.0,6.0,13.0,-981.0,329.0
-4.0,-252.0,87.0,16.0,34.0,7.0,17.0,-979.0,322.0
-3.0,-250.0,87.0,5.0,37.0,6.0,16.0,-984.0,326.0
-5.0,-254.0,87.0,-8.0,40.0,6.0,10.0,-984.0,320.0
-5.0,-253.0,86.0,-19.0,43.0,6.0,16.0,-983.0,318.0
0.0,-253.0,85.0,-30.0,46.0,6.0,15.0,-988.0,316.0
0.0,-254.0,83.0,-39.0,49.0,4.0,12.0,-988.0,319.0
-7.0,-256.0,83.0,-42.0,53.0,2.0,11.0,-994.0,316.0
1.0,-255.0,84.0,-44.0,56.0,-2.0,17.0,-999.0,313.0
-1.0,-255.0,84.0,-43.0,61.0,-5.0,16.0,-997.0,309.0
-3.0,-255.0,86.0,-39.0,64.0,-8.0,20.0,-1004.0,307.0
-3.0,-257.0,87.0,-34.0,67.0,-11.0,12.0,-996.0,299.0
-4.0,-256.0,79.0,-30.0,69.0,-13.0,10.0,-999.0,304.0
-3.0,-257.0,78.0,-25.0,71.0,-12.0,14.0,-996.0,296.0
-4.0,-257.0,78.0,-22.0,70.0,-13.0,13.0,-1001.0,294.0
-5.0,-254.0,76.0,-22.0,67.0,-13.0,14.0,-998.0,292.0
-3.0,-257.0,79.0,-23.0,61.0,-10.0,16.0,-995.0,291.0
-6.0,-254.0,78.0,-25.0,53.0,-10.0,18.0,-997.0,287.0
-4.0,-257.0,79.0,-29.0,48.0,-7.0,15.0,-998.0,291.0
-3.0,-254.0,78.0,-36.0,45.0,-6.0,15.0,-1002.0,287.0
2.0,-258.0,77.0,-43.0,44.0,-3.0,21.0,-997.0,291.0
-5.0,-255.0,80.0,-47.0,45.0,-1.0,23.0,-1002.0,295.0
-1.0,-256.0,79.0,-49.0,50.0,-1.0,17.0,-1006.0,302.0
-4.0,-259.0,81.0,-51.0,54.0,-2.0,27.0,-1009.0,302.0
-1.0,-259.0,82.0,-46.0,61.0,-2.0,27.0,-1006.0,306.0
-1.0,-260.0,84.0,-39.0,67.0,-4.0,26.0,-1012.0,308.0
-1.0,-259.0,82.0,-31.0,73.0,-6.0,28.0,-1012.0,305.0
3.0,-260.0,81.0,-24.0,77.0,-8.0,32.0,-1008.0,305.0
0.0,-260.0,81.0,-14.0,78.0,-9.0,31.0,-1018.0,299.0
0.0,-259.0,78.0,-7.0,80.0,-10.0,25.0,-1012.0,294.0
1.0,-260.0,78.0,-4.0,79.0,-11.0,26.0,-1013.0,295.0
4.0,-258.0,76.0,-2.0,78.0,-13.0,23.0,-1013.0,290.0
2.0,-258.0,78.0,-1.0,78.0,-12.0,28.0,-1008.0,290.0
-2.0,-258.0,81.0,-2.0,77.0,-13.0,24.0,-1007.0,287.0
-1.0,-257.0,76.0,-5.0,77.0,-13.0,22.0,-1003.0,288.0
-2.0,-256.0,75.0,-6.0,77.0,-14.0,14.0,-1001.0,283.0
-4.0,-258.0,75.0,-7.0,78.0,-14.0,17.0,-1001.0,280.0
-6.0,-258.0,79.0,-5.0,78.0,-16.0,18.0,-998.0,285.0
-5.0,-258.0,76.0,-2.0,76.0,-12.0,21.0,-997.0,287.0
-5.0,-257.0,76.0,2.0,76.0,-11.0,14.0,-997.0,289.0
-4.0,-256.0,82.0,8.0,76.0,-10.0,12.0,-1004.0,296.0
-1.0,-258.0,82.0,16.0,74.0,-8.0,13.0,-1004.0,297.0
-4.0,-256.0,85.0,27.0,72.0,-8.0,11.0,-1001.0,308.0
-3.0,-255.0,85.0,34.0,71.0,-8.0,15.0,-998.0,310.0
-6.0,-256.0,84.0,42.0,71.0,-7.0,11.0,-1002.0,321.0
-6.0,-254.0,83.0,48.0,67.0,-8.0,13.0,-1002.0,318.0
-3.0,-256.0,87.0,52.0,64.0,-6.0,10.0,-994.0,324.0
-4.0,-255.0,86.0,55.0,62.0,-6.0,11.0,-996.0,323.0
-3.0,-254.0,87.0,54.0,63.0,-7.0,10.0,-990.0,324.0
-2.0,-254.0,90.0,52.0,62.0,-7.0,11.0,-991.0,330.0
-6.0,-251.0,90.0,46.0,61.0,-6.0,14.0,-985.0,331.0
-5.0,-251.0,90.0,43.0,62.0,-6.0,12.0,-985.0,335.0
-5.0,-253.0,85.0,41.0,62.0,-5.0,17.0,-983.0,334.0
-2.0,-253.0,91.0,38.0,62.0,-5.0,18.0,-983.0,340.0
-1.0,-252.0,86.0,35.0,62.0,-3.0,23.0,-982.0,336.0
-3.0,-252.0,89.0,34.0,61.0,-3.0,19.0,-985.0,331.0
0.0,-253.0,90.0,30.0,61.0,-4.0,20.0,-977.0,331.0
-3.0,-248.0,88.0,25.0,60.0,-2.0,26.0,-967.0,330.0
-2.0,-251.0,91.0,21.0,60.0,1.0,22.0,-975.0,324.0
0.0,-250.0,86.0,13.0,60.0,2.0,20.0,-975.0,321.0
-5.0,-250.0,84.0,9.0,59.0,4.0,21.0,-972.0,319.0
-1.0,-247.0,83.0,2.0,58.0,5.0,14.0,-978.0,314.0
-5.0,-250.0,85.0,-7.0,59.0,5.0,20.0,-972.0,315.0
-4.0,-250.0,85.0,-13.0,61.0,5.0,20.0,-977.0,319.0
-2.0,-252.0,90.0,-15.0,64.0,4.0,16.0,-977.0,322.0
-4.0,-251.0,89.0,-15.0,67.0,2.0,23.0,-979.0,323.0
-2.0,-251.0,88.0,-12.0,73.0,1.0,20.0,-981.0,329.0
-2.0,-251.0,89.0,-7.0,80.0,-2.0,24.0,-984.0,331.0
0.0,-253.0,85.0,-1.0,85.0,-4.0,20.0,-988.0,333.0
2.0,-253.0,90.0,4.0,91.0,-7.0,28.0,-981.0,330.0
1.0,-251.0,89.0,5.0,95.0,-10.0,21.0,-976.0,339.0
-1.0,-251.0,92.0,6.0,99.0,-11.0,27.0,-984.0,340.0
-2.0,-253.0,94.0,6.0,100.0,-13.0,19.0,-981.0,338.0
2.0,-252.0,92.0,5.0,100.0,-14.0,25.0,-981.0,334.0
-1.0,-250.0,90.0,4.0,99.0,-14.0,31.0,-980.0,339.0
0.0,-251.0,93.0,2.0,97.0,-14.0,27.0,-977.0,335.0
-2.0,-253.0,88.0,-1.0,98.0,-13.0,23.0,-979.0,330.0
-2.0,-252.0,93.0,-2.0,99.0,-12.0,25.0,-982.0,335.0
-2.0,-252.0,85.0,-6.0,101.0,-11.0,22.0,-983.0,335.0
-3.0,-252.0,89.0,-8.0,103.0,-12.0,23.0,-981.0,338.0
-3.0,-252.0,92.0,-8.0,103.0,-9.0,21.0,-983.0,342.0
-3.0,-252.0,91.0,-7.0,103.0,-9.0,23.0,-981.0,341.0
-1.0,-254.0,89.0,-6.0,99.0,-8.0,22.0,-979.0,337.0
-3.0,-252.0,90.0,-5.0,96.0,-6.0,24.0,-976.0,347.0
-1.0,-252.0,91.0,-4.0,92.0,-5.0,21.0,-977.0,338.0
-1.0,-254.0,90.0,-5.0,87.0,-4.0,17.0,-976.0,343.0
-3.0,-249.0,93.0,-8.0,84.0,0.0,21.0,-977.0,341.0
-2.0,-252.0,86.0,-11.0,81.0,0.0,18.0,-978.0,336.0
-4.0,-254.0,88.0,-12.0,81.0,0.0,16.0,-980.0,331.0
-5.0,-251.0,88.0,-14.0,82.0,-1.0,15.0,-984.0,324.0
-2.0,-253.0,86.0,-17.0,83.0,-1.0,20.0,-983.0,322.0
-3.0,-252.0,84.0,-15.0,82.0,0.0,14.0,-984.0,319.0
-4.0,-257.0,89.0,-14.0,80.0,1.0,23.0,-992.0,322.0
-5.0,-255.0,81.0,-10.0,76.0,2.0,14.0,-992.0,319.0
-3.0,-257.0,85.0,-6.0,73.0,3.0,14.0,-992.0,313.0
-4.0,-257.0,83.0,1.0,70.0,2.0,16.0,-998.0,314.0
-2.0,-255.0,87.0,10.0,70.0,2.0,13.0,-999.0,316.0
-3.0,-256.0,84.0,16.0,69.0,2.0,20.0,-997.0,313.0
-1.0,-255.0,86.0,22.0,69.0,3.0,14.0,-999.0,311.0
-6.0,-255.0,85.0,28.0,68.0,0.0,16.0,-997.0,314.0
1.0,-257.0,88.0,31.0,66.0,0.0,24.0,-996.0,318.0
-6.0,-253.0,85.0,34.0,64.0,-1.0,18.0,-993.0,313.0
-2.0,-256.0,85.0,35.0,63.0,0.0,23.0,-995.0,319.0
-3.0,-256.0,84.0,37.0,63.0,0.0,18.0,-993.0,322.0
-1.0,-255.0,87.0,36.0,62.0,1.0,21.0,-988.0,324.0
-3.0,-253.0,89.0,35.0,63.0,0.0,18.0,-985.0,324.0
-4.0,-255.0,89.0,32.0,61.0,0.0,19.0,-982.0,325.0
-3.0,-252.0,90.0,29.0,64.0,0.0,12.0,-980.0,329.0
-3.0,-252.0,89.0,26.0,65.0,-1.0,16.0,-970.0,332.0
0.0,-249.0,91.0,27.0,64.0,0.0,24.0,-977.0,336.0
-2.0,-253.0,94.0,25.0,63.0,2.0,20.0,-969.0,342.0
-1.0,-250.0,90.0,22.0,62.0,3.0,14.0,-974.0,343.0
0.0,-252.0,93.0,19.0,61.0,4.0,21.0,-972.0,340.0
-5.0,-251.0,94.0,17.0,60.0,4.0,13.0,-977.0,343.0
-2.0,-251.0,92.0,14.0,58.0,4.0,14.0,-976.0,340.0
-4.0,-249.0,93.0,11.0,58.0,4.0,21.0,-974.0,347.0
-2.0,-250.0,94.0,8.0,58.0,2.0,20.0,-977.0,339.0
-3.0,-251.0,88.0,7.0,62.0,2.0,22.0,-979.0,341.0
-2.0,-252.0,91.0,6.0,63.0,0.0,25.0,-979.0,341.0
-2.0,-252.0,91.0,5.0,66.0,-1.0,20.0,-975.0,341.0
0.0,-252.0,93.0,1.0,69.0,-3.0,15.0,-981.0,336.0
-2.0,-253.0,90.0,3.0,69.0,-3.0,23.0,-980.0,334.0
-6.0,-253.0,88.0,3.0,68.0,-4.0,20.0,-981.0,337.0
-4.0,-253.0,89.0,2.0,68.0,-1.0,14.0,-979.0,326.0
-6.0,-252.0,89.0,0.0,68.0,-2.0,10.0,-980.0,323.0
-5.0,-252.0,88.0,-4.0,68.0,-3.0,11.0,-979.0,321.0
-3.0,-250.0,84.0,-9.0,69.0,-1.0,9.0,-978.0,327.0
-3.0,-253.0,89.0,-14.0,68.0,2.0,13.0,-976.0,324.0
-4.0,-249.0,88.0,-15.0,66.0,2.0,11.0,-982.0,332.0
-4.0,-254.0,94.0,-13.0,64.0,3.0,10.0,-979.0,332.0
-5.0,-253.0,91.0,-10.0,63.0,6.0,10.0,-979.0,336.0
-1.0,-252.0,91.0,-4.0,61.0,6.0,7.0,-981.0,342.0
-5.0,-254.0,92.0,2.0,63.0,6.0,13.0,-982.0,342.0
-8.0,-251.0,91.0,6.0,62.0,6.0,12.0,-982.0,343.0
-5.0,-252.0,92.0,9.0,63.0,4.0,7.0,-985.0,337.0
-4.0,-255.0,90.0,12.0,65.0,4.0,7.0,-982.0,340.0
-5.0,-255.0,91.0,15.0,68.0,1.0,18.0,-981.0,339.0
-4.0,-254.0,92.0,17.0,70.0,0.0,2.0,-985.0,340.0
-5.0,-250.0,90.0,18.0,71.0,-1.0,10.0,-983.0,336.0
-6.0,-253.0,88.0,20.0,72.0,-1.0,10.0,-990.0,338.0
-5.0,-248.0,86.0,22.0,73.0,-2.0,10.0,-986.0,339.0
-1.0,-253.0,89.0,25.0,75.0,-3.0,9.0,-985.0,332.0
-3.0,-255.0,89.0,27.0,77.0,-5.0,10.0,-983.0,332.0
-4.0,-253.0,85.0,28.0,80.0,-5.0,13.0,-988.0,331.0
-4.0,-254.0,90.0,27.0,84.0,-6.0,11.0,-984.0,340.0
-2.0,-255.0,91.0,25.0,87.0,-6.0,21.0,-984.0,336.0
0.0,-255.0,93.0,23.0,87.0,-8.0,23.0,-984.0,339.0
-1.0,-250.0,92.0,22.0,87.0,-8.0,29.0,-978.0,342.0
-1.0,-250.0,94.0,21.0,88.0,-10.0,27.0,-980.0,338.0
3.0,-251.0,90.0,20.0,87.0,-10.0,32.0,-981.0,339.0
3.0,-249.0,90.0,18.0,90.0,-10.0,30.0,-977.0,339.0
3.0,-252.0,93.0,17.0,87.0,-8.0,35.0,-973.0,336.0
2.0,-250.0,91.0,14.0,86.0,-9.0,37.0,-972.0,339.0
1.0,-251.0,86.0,9.0,81.0,-8.0,35.0,-973.0,330.0
2.0,-252.0,86.0,3.0,74.0,-5.0,32.0,-969.0,328.0
4.0,-252.0,90.0,-4.0,66.0,-1.0,25.0,-966.0,328.0
0.0,-250.0,88.0,-11.0,60.0,2.0,26.0,-970.0,332.0
-2.0,-252.0,91.0,-20.0,54.0,7.0,20.0,-973.0,329.0
2.0,-251.0,89.0,-27.0,52.0,8.0,18.0,-969.0,326.0
-4.0,-251.0,88.0,-31.0,53.0,10.0,20.0,-975.0,334.0
-5.0,-252.0,91.0,-37.0,56.0,10.0,13.0,-982.0,339.0
-2.0,-248.0,89.0,-40.0,60.0,11.0,14.0,-982.0,334.0
-3.0,-254.0,92.0,-42.0,64.0,11.0,11.0,-985.0,335.0
-7.0,-255.0,90.0,-39.0,67.0,10.0,11.0,-987.0,337.0
-4.0,-251.0,84.0,-33.0,69.0,11.0,9.0,-984.0,335.0
-4.0,-254.0,88.0,-29.0,70.0,10.0,9.0,-990.0,334.0
-5.0,-254.0,89.0,-22.0,68.0,8.0,9.0,-983.0,335.0
-5.0,-254.0,94.0,-16.0,66.0,7.0,12.0,-988.0,336.0
-4.0,-254.0,90.0,-11.0,64.0,5.0,8.0,-986.0,335.0
-5.0,-254.0,91.0,-4.0,64.0,2.0,11.0,-985.0,331.0
-2.0,-255.0,89.0,2.0,67.0,2.0,11.0,-984.0,328.0
-4.0,-252.0,88.0,5.0,68.0,-1.0,9.0,-984.0,328.0
-4.0,-252.0,87.0,8.0,70.0,-3.0,11.0,-988.0,334.0
-5.0,-251.0,89.0,8.0,71.0,-5.0,12.0,-984.0,334.0
-5.0,-254.0,90.0,6.0,72.0,-7.0,17.0,-985.0,328.0
-3.0,-255.0,89.0,3.0,72.0,-7.0,16.0,-982.0,335.0
-4.0,-254.0,91.0,1.0,71.0,-7.0,11.0,-982.0,332.0
-1.0,-255.0,90.0,0.0,72.0,-8.0,17.0,-984.0,334.0
-2.0,-255.0,90.0,-2.0,70.0,-7.0,15.0,-981.0,335.0
-4.0,-252.0,91.0,-4.0,69.0,-7.0,18.0,-982.0,335.0
-3.0,-252.0,88.0,-6.0,70.0,-5.0,20.0,-987.0,334.0
-3.0,-256.0,91.0,-5.0,67.0,-2.0,14.0,-983.0,341.0
-2.0,-256.0,98.0,-3.0,67.0,-2.0,23.0,-986.0,332.0
-4.0,-255.0,88.0,-2.0,66.0,-1.0,22.0,-986.0,338.0
-3.0,-253.0,92.0,2.0,66.0,-1.0,16.0,-990.0,335.0
-2.0,-252.0,92.0,4.0,67.0,1.0,15.0,-986.0,334.0
-7.0,-255.0,91.0,7.0,66.0,1.0,14.0,-985.0,339.0
-5.0,-255.0,90.0,11.0,67.0,0.0,13.0,-983.0,332.0
-5.0,-253.0,89.0,11.0,68.0,0.0,14.0,-982.0,334.0
-1.0,-252.0,90.0,9.0,70.0,0.0,16.0,-982.0,332.0
-3.0,-253.0,92.0,6.0,72.0,1.0,12.0,-985.0,336.0
-3.0,-255.0,86.0,4.0,71.0,0.0,22.0,-980.0,339.0
-7.0,-253.0,89.0,2.0,71.0,-2.0,13.0,-983.0,336.0
-4.0,-251.0,89.0,1.0,69.0,-3.0,11.0,-984.0,336.0
-3.0,-252.0,87.0,-1.0,66.0,-5.0,7.0,-979.0,334.0
-6.0,-253.0,90.0,-2.0,66.0,-6.0,10.0,-982.0,339.0
-5.0,-250.0,89.0,-2.0,64.0,-6.0,10.0,-980.0,334.0
-7.0,-253.0,92.0,-4.0,64.0,-7.0,8.0,-980.0,337.0
-5.0,-252.0,89.0,-5.0,65.0,-6.0,12.0,-982.0,334.0
-5.0,-251.0,88.0,-6.0,66.0,-7.0,14.0,-980.0,332.0
-5.0,-253.0,88.0,-7.0,66.0,-8.0,11.0,-983.0,340.0
-5.0,-251.0,90.0,-8.0,68.0,-9.0,10.0,-977.0,343.0
-2.0,-253.0,93.0,-6.0,68.0,-9.0,11.0,-979.0,339.0
-4.0,-254.0,94.0,-4.0,68.0,-8.0,22.0,-984.0,342.0
-4.0,-249.0,89.0,-3.0,67.0,-7.0,13.0,-975.0,343.0
-6.0,-254.0,90.0,-1.0,65.0,-7.0,22.0,-981.0,340.0
-6.0,-253.0,91.0,0.0,65.0,-8.0,19.0,-984.0,337.0
-5.0,-254.0,94.0,1.0,66.0,-6.0,17.0,-979.0,333.0
-1.0,-253.0,89.0,1.0,66.0,-7.0,12.0,-984.0,342.0
-1.0,-254.0,90.0,4.0,66.0,-5.0,20.0,-986.0,337.0
-4.0,-251.0,92.0,3.0,69.0,-5.0,18.0,-978.0,332.0
-6.0,-249.0,86.0,5.0,70.0,-6.0,18.0,-981.0,336.0
-4.0,-253.0,89.0,5.0,69.0,-5.0,14.0,-980.0,339.0
2.0,-253.0,91.0,4.0,70.0,-4.0,21.0,-985.0,340.0
-3.0,-254.0,91.0,3.0,68.0,-4.0,18.0,-980.0,344.0
-2.0,-253.0,92.0,1.0,65.0,-3.0,18.0,-981.0,339.0
-6.0,-251.0,93.0,0.0,64.0,-4.0,13.0,-977.0,342.0
-1.0,-252.0,92.0,-3.0,63.0,-6.0,18.0,-980.0,342.0
-2.0,-251.0,91.0,-3.0,61.0,-5.0,17.0,-982.0,341.0
-2.0,-254.0,94.0,-3.0,59.0,-4.0,24.0,-983.0,341.0
-3.0,-251.0,95.0,-4.0,61.0,-4.0,24.0,-986.0,350.0
-2.0,-252.0,90.0,-2.0,63.0,-2.0,20.0,-983.0,344.0
-4.0,-252.0,90.0,-2.0,64.0,-2.0,29.0,-981.0,339.0
-4.0,-250.0,89.0,-3.0,65.0,-2.0,21.0,-983.0,333.0
-1.0,-252.0,92.0,-4.0,65.0,-2.0,25.0,-981.0,338.0
-1.0,-254.0,92.0,-6.0,66.0,-1.0,18.0,-985.0,343.0
4.0,-257.0,98.0,-8.0,68.0,0.0,22.0,-981.0,342.0
-2.0,-253.0,90.0,-8.0,66.0,0.0,23.0,-979.0,343.0
-3.0,-250.0,94.0,-4.0,66.0,1.0,22.0,-983.0,338.0
-3.0,-253.0,91.0,-1.0,65.0,1.0,20.0,-981.0,342.0
-2.0,-251.0,94.0,3.0,64.0,2.0,21.0,-985.0,344.0
-2.0,-251.0,95.0,7.0,64.0,3.0,22.0,-979.0,340.0
-2.0,-251.0,92.0,10.0,64.0,3.0,22.0,-983.0,340.0
0.0,-251.0,89.0,12.0,64.0,2.0,25.0,-977.0,339.0
-3.0,-253.0,90.0,12.0,60.0,3.0,18.0,-979.0,339.0
-2.0,-252.0,92.0,12.0,60.0,3.0,20.0,-980.0,339.0
-3.0,-249.0,89.0,10.0,60.0,2.0,20.0,-974.0,337.0
-1.0,-251.0,91.0,8.0,61.0,3.0,16.0,-980.0,343.0
-3.0,-251.0,91.0,6.0,60.0,2.0,17.0,-977.0,342.0
-2.0,-250.0,90.0,4.0,59.0,2.0,20.0,-980.0,348.0
-4.0,-253.0,91.0,2.0,60.0,2.0,22.0,-979.0,348.0
-5.0,-252.0,92.0,2.0,63.0,2.0,19.0,-987.0,350.0
-2.0,-252.0,94.0,1.0,64.0,1.0,17.0,-984.0,353.0
0.0,-254.0,93.0,2.0,65.0,1.0,22.0,-985.0,352.0
1.0,-254.0,94.0,4.0,66.0,0.0,18.0,-993.0,346.0
-4.0,-253.0,94.0,6.0,66.0,-1.0,11.0,-987.0,345.0
-4.0,-256.0,90.0,10.0,66.0,-1.0,22.0,-990.0,340.0
1.0,-256.0,89.0,14.0,65.0,-2.0,17.0,-987.0,339.0
-4.0,-254.0,90.0,16.0,66.0,-1.0,12.0,-980.0,334.0
-3.0,-254.0,88.0,15.0,67.0,-3.0,18.0,-975.0,332.0
-1.0,-251.0,87.0,16.0,68.0,-3.0,18.0,-978.0,331.0
-1.0,-250.0,87.0,13.0,70.0,-5.0,17.0,-976.0,332.0
-4.0,-250.0,91.0,10.0,72.0,-4.0,18.0,-974.0,328.0
-6.0,-252.0,91.0,6.0,72.0,-4.0,11.0,-974.0,332.0
-4.0,-252.0,91.0,4.0,72.0,-4.0,18.0,-977.0,340.0
-3.0,-250.0,93.0,1.0,72.0,-5.0,14.0,-981.0,339.0
-1.0,-250.0,93.0,1.0,72.0,-5.0,23.0,-971.0,342.0
-2.0,-252.0,90.0,1.0,71.0,-4.0,18.0,-973.0,343.0
-3.0,-251.0,97.0,-1.0,69.0,-3.0,19.0,-974.0,341.0
-1.0,-250.0,93.0,-2.0,68.0,-2.0,21.0,-975.0,351.0
-3.0,-252.0,92.0,-4.0,68.0,0.0,20.0,-978.0,344.0
-3.0,-251.0,91.0,-5.0,69.0,1.0,16.0,-977.0,346.0
-4.0,-251.0,93.0,-7.0,69.0,2.0,15.0,-975.0,342.0
-6.0,-249.0,95.0,-10.0,69.0,3.0,15.0,-978.0,343.0
-3.0,-252.0,96.0,-12.0,69.0,2.0,13.0,-976.0,341.0
-6.0,-253.0,90.0,-15.0,69.0,3.0,12.0,-977.0,340.0
-1.0,-253.0,94.0,-22.0,68.0,3.0,14.0,-975.0,340.0
-3.0,-251.0,89.0,-25.0,68.0,1.0,15.0,-975.0,342.0
-3.0,-250.0,89.0,-28.0,69.0,-1.0,19.0,-976.0,348.0
-6.0,-250.0,90.0,-30.0,71.0,0.0,15.0,-976.0,342.0
-4.0,-245.0,88.0,-27.0,71.0,-3.0,18.0,-981.0,348.0
-5.0,-251.0,92.0,-25.0,73.0,-4.0,16.0,-977.0,352.0
-7.0,-249.0,95.0,-22.0,73.0,-7.0,11.0,-976.0,345.0
-5.0,-251.0,90.0,-19.0,73.0,-8.0,11.0,-980.0,355.0
-5.0,-253.0,95.0,-17.0,73.0,-8.0,12.0,-983.0,350.0
-7.0,-254.0,93.0,-15.0,74.0,-7.0,15.0,-981.0,351.0
-5.0,-248.0,93.0,-14.0,71.0,-7.0,13.0,-982.0,344.0
-3.0,-253.0,90.0,-15.0,69.0,-8.0,14.0,-978.0,343.0
-4.0,-254.0,91.0,-14.0,68.0,-6.0,15.0,-983.0,344.0
-5.0,-251.0,90.0,-14.0,68.0,-5.0,13.0,-978.0,345.0
-1.0,-251.0,94.0,-15.0,66.0,-5.0,17.0,-982.0,342.0
0.0,-252.0,90.0,-13.0,66.0,-6.0,15.0,-983.0,343.0
1.0,-251.0,93.0,-15.0,67.0,-3.0,13.0,-980.0,344.0
-3.0,-250.0,91.0,-15.0,68.0,-3.0,14.0,-980.0,343.0
-3.0,-253.0,91.0,-16.0,68.0,-3.0,22.0,-981.0,346.0
-1.0,-253.0,91.0,-17.0,68.0,-1.0,20.0,-978.0,341.0
-1.0,-253.0,95.0,-16.0,68.0,-3.0,18.0,-981.0,343.0
-3.0,-254.0,92.0,-14.0,65.0,-3.0,24.0,-978.0,340.0
-3.0,-252.0,95.0,-13.0,63.0,-3.0,17.0,-980.0,342.0
-2.0,-255.0,90.0,-13.0,60.0,-1.0,17.0,-977.0,340.0
-4.0,-251.0,90.0,-11.0,59.0,0.0,15.0,-985.0,335.0
-5.0,-253.0,91.0,-12.0,58.0,-1.0,18.0,-976.0,340.0
-7.0,-250.0,84.0,-11.0,57.0,1.0,15.0,-983.0,329.0
-2.0,-251.0,89.0,-12.0,55.0,1.0,13.0,-982.0,331.0
-3.0,-249.0,88.0,-14.0,56.0,0.0,20.0,-983.0,334.0
-3.0,-252.0,86.0,-14.0,58.0,-1.0,7.0,-981.0,330.0
-3.0,-252.0,93.0,-13.0,61.0,-1.0,11.0,-982.0,335.0
-3.0,-254.0,92.0,-13.0,62.0,-1.0,13.0,-981.0,336.0
-4.0,-253.0,94.0,-12.0,64.0,-2.0,11.0,-985.0,343.0
-5.0,-252.0,92.0,-12.0,66.0,-2.0,14.0,-987.0,342.0
-4.0,-254.0,92.0,-10.0,66.0,-3.0,12.0,-985.0,346.0
-6.0,-252.0,92.0,-8.0,70.0,-4.0,15.0,-985.0,346.0
-3.0,-253.0,93.0,-5.0,72.0,-5.0,12.0,-985.0,350.0
-6.0,-252.0,91.0,-1.0,73.0,-5.0,10.0,-986.0,344.0
-4.0,-253.0,93.0,3.0,72.0,-5.0,13.0,-981.0,342.0
-4.0,-254.0,93.0,4.0,71.0,-5.0,9.0,-980.0,341.0
-3.0,-251.0,90.0,3.0,72.0,-4.0,13.0,-976.0,340.0
-3.0,-255.0,88.0,2.0,71.0,-4.0,11.0,-977.0,340.0
-4.0,-252.0,92.0,0.0,70.0,-3.0,12.0,-980.0,340.0
-2.0,-252.0,95.0,-2.0,72.0,-4.0,12.0,-978.0,338.0
-2.0,-252.0,92.0,-3.0,73.0,-5.0,11.0,-973.0,335.0
-4.0,-250.0,92.0,-4.0,74.0,-6.0,20.0,-982.0,339.0
-2.0,-252.0,95.0,-2.0,75.0,-6.0,20.0,-972.0,345.0
-4.0,-252.0,91.0,-3.0,77.0,-8.0,15.0,-978.0,342.0
-3.0,-253.0,89.0,-2.0,79.0,-8.0,18.0,-980.0,344.0
0.0,-253.0,91.0,-1.0,78.0,-9.0,17.0,-982.0,347.0
-5.0,-250.0,95.0,2.0,78.0,-8.0,24.0,-977.0,350.0
-3.0,-250.0,91.0,5.0,76.0,-6.0,18.0,-982.0,352.0
-2.0,-253.0,91.0,5.0,77.0,-6.0,22.0,-980.0,346.0
-2.0,-253.0,95.0,6.0,76.0,-6.0,23.0,-974.0,348.0
0.0,-252.0,93.0,7.0,77.0,-7.0,17.0,-980.0,348.0
-1.0,-252.0,90.0,6.0,77.0,-5.0,18.0,-981.0,350.0
-2.0,-251.0,91.0,4.0,77.0,-5.0,24.0,-976.0,338.0
-3.0,-251.0,92.0,5.0,76.0,-4.0,20.0,-977.0,343.0
-5.0,-247.0,91.0,5.0,74.0,-3.0,20.0,-975.0,340.0
-3.0,-251.0,89.0,3.0,73.0,-2.0,13.0,-973.0,340.0
-3.0,-251.0,90.0,4.0,72.0,0.0,17.0,-977.0,339.0
-6.0,-253.0,89.0,4.0,71.0,2.0,16.0,-977.0,338.0
-2.0,-251.0,89.0,3.0,71.0,2.0,18.0,-974.0,344.0
-6.0,-252.0,92.0,2.0,71.0,2.0,16.0,-974.0,343.0
-4.0,-253.0,90.0,1.0,72.0,2.0,18.0,-987.0,343.0
-4.0,-253.0,94.0,2.0,72.0,2.0,12.0,-976.0,343.0
-4.0,-253.0,93.0,2.0,74.0,1.0,14.0,-974.0,347.0
-4.0,-250.0,91.0,1.0,75.0,-1.0,20.0,-981.0,349.0
-5.0,-251.0,92.0,1.0,76.0,-2.0,12.0,-974.0,346.0
-2.0,-253.0,92.0,0.0,77.0,-1.0,17.0,-973.0,349.0
-3.0,-246.0,89.0,0.0,77.0,-1.0,14.0,-977.0,348.0
-2.0,-253.0,90.0,1.0,78.0,-3.0,14.0,-973.0,347.0
-1.0,-251.0,92.0,1.0,78.0,-4.0,13.0,-972.0,346.0
-1.0,-251.0,90.0,-1.0,79.0,-4.0,17.0,-973.0,353.0
-4.0,-251.0,90.0,-2.0,78.0,-5.0,18.0,-973.0,346.0
-6.0,-250.0,93.0,-3.0,77.0,-5.0,21.0,-985.0,354.0
-4.0,-250.0,90.0,-4.0,78.0,-5.0,14.0,-978.0,351.0
-4.0,-250.0,94.0,-5.0,78.0,-5.0,14.0,-977.0,350.0
-6.0,-251.0,91.0,-5.0,78.0,-5.0,16.0,-975.0,349.0
-6.0,-250.0,92.0,-6.0,80.0,-4.0,15.0,-979.0,354.0
-4.0,-249.0,91.0,-6.0,80.0,-4.0,14.0,-979.0,348.0
-3.0,-251.0,92.0,-6.0,78.0,-3.0,16.0,-973.0,347.0
1.0,-253.0,90.0,-5.0,78.0,-3.0,16.0,-979.0,354.0
-3.0,-251.0,92.0,-3.0,80.0,-3.0,13.0,-980.0,351.0
-3.0,-254.0,93.0,-2.0,81.0,-4.0,14.0,-977.0,351.0
-2.0,-252.0,89.0,-2.0,79.0,-5.0,18.0,-981.0,353.0
-3.0,-254.0,95.0,-2.0,77.0,-4.0,18.0,-986.0,349.0
-1.0,-253.0,92.0,-1.0,77.0,-3.0,17.0,-982.0,350.0
-3.0,-252.0,94.0,-4.0,79.0,-5.0,20.0,-973.0,347.0
-1.0,-252.0,95.0,-4.0,80.0,-4.0,12.0,-975.0,346.0
-5.0,-252.0,92.0,-7.0,81.0,-6.0,9.0,-981.0,352.0
-5.0,-249.0,93.0,-7.0,81.0,-6.0,13.0,-980.0,342.0
-2.0,-251.0,87.0,-8.0,82.0,-5.0,12.0,-973.0,348.0
-5.0,-251.0,94.0,-10.0,82.0,-5.0,14.0,-973.0,347.0
-3.0,-251.0,92.0,-12.0,81.0,-5.0,17.0,-977.0,350.0
-4.0,-251.0,92.0,-13.0,80.0,-4.0,12.0,-974.0,343.0
-4.0,-250.0,93.0,-15.0,79.0,-5.0,11.0,-979.0,349.0
-4.0,-250.0,91.0,-17.0,78.0,-4.0,14.0,-980.0,353.0
-1.0,-252.0,94.0,-19.0,77.0,-4.0,9.0,-979.0,350.0
-4.0,-253.0,92.0,-19.0,76.0,-5.0,12.0,-975.0,348.0
-2.0,-252.0,95.0,-18.0,76.0,-5.0,17.0,-972.0,355.0
-5.0,-248.0,91.0,-17.0,75.0,-6.0,14.0,-976.0,355.0
-5.0,-250.0,94.0,-17.0,74.0,-6.0,18.0,-976.0,352.0
-6.0,-249.0,96.0,-16.0,77.0,-6.0,16.0,-978.0,352.0
-4.0,-249.0,92.0,-14.0,78.0,-9.0,12.0,-976.0,349.0
-4.0,-250.0,95.0,-13.0,80.0,-9.0,16.0,-976.0,350.0
-6.0,-251.0,89.0,-12.0,81.0,-10.0,14.0,-978.0,346.0
-2.0,-252.0,92.0,-10.0,81.0,-10.0,14.0,-976.0,356.0
0.0,-253.0,94.0,-11.0,81.0,-10.0,18.0,-974.0,353.0
-4.0,-253.0,92.0,-10.0,78.0,-9.0,20.0,-975.0,345.0
-5.0,-251.0,96.0,-10.0,76.0,-9.0,22.0,-975.0,349.0
-4.0,-250.0,92.0,-11.0,74.0,-7.0,20.0,-979.0,353.0
-1.0,-254.0,92.0,-11.0,74.0,-5.0,17.0,-977.0,351.0
-3.0,-252.0,91.0,-12.0,72.0,-6.0,18.0,-978.0,352.0
-3.0,-253.0,94.0,-13.0,71.0,-6.0,13.0,-974.0,354.0
-4.0,-254.0,92.0,-16.0,71.0,-5.0,15.0,-980.0,343.0
-4.0,-253.0,94.0,-16.0,72.0,-4.0,18.0,-981.0,351.0
-6.0,-252.0,96.0,-18.0,73.0,-4.0,17.0,-981.0,354.0
-1.0,-254.0,96.0,-19.0,73.0,-4.0,12.0,-976.0,357.0
-2.0,-253.0,95.0,-18.0,73.0,-4.0,8.0,-978.0,356.0
-4.0,-252.0,95.0,-15.0,73.0,-4.0,12.0,-981.0,353.0
-5.0,-253.0,96.0,-13.0,72.0,-4.0,12.0,-978.0,353.0
-5.0,-249.0,94.0,-11.0,72.0,-3.0,9.0,-980.0,354.0
-5.0,-251.0,94.0,-12.0,72.0,-3.0,9.0,-977.0,350.0
-4.0,-252.0,89.0,-12.0,73.0,-3.0,11.0,-979.0,344.0
-5.0,-251.0,90.0,-14.0,72.0,-4.0,9.0,-977.0,347.0
-5.0,-248.0,94.0,-16.0,73.0,-3.0,9.0,-975.0,352.0
-6.0,-251.0,93.0,-16.0,74.0,-4.0,13.0,-977.0,345.0
-6.0,-252.0,89.0,-14.0,74.0,-4.0,18.0,-980.0,343.0
-3.0,-254.0,92.0,-11.0,74.0,-4.0,15.0,-975.0,351.0
-3.0,-253.0,93.0,-8.0,74.0,-2.0,14.0,-977.0,352.0
-2.0,-253.0,93.0,-5.0,75.0,-3.0,15.0,-979.0,343.0
-1.0,-249.0,93.0,-3.0,74.0,-4.0,17.0,-977.0,347.0
-4.0,-249.0,96.0,0.0,74.0,-5.0,20.0,-982.0,343.0
-3.0,-251.0,96.0,1.0,73.0,-4.0,13.0,-980.0,342.0
-1.0,-250.0,87.0,-3.0,73.0,-5.0,14.0,-979.0,348.0
-3.0,-251.0,90.0,-6.0,71.0,-5.0,18.0,-975.0,345.0
-1.0,-250.0,95.0,-10.0,71.0,-2.0,13.0,-980.0,346.0
-5.0,-250.0,92.0,-14.0,68.0,-1.0,15.0,-979.0,348.0
-3.0,-252.0,93.0,-16.0,69.0,-1.0,11.0,-978.0,344.0
-3.0,-252.0,91.0,-18.0,70.0,-1.0,13.0,-977.0,343.0
-2.0,-252.0,94.0,-19.0,69.0,-2.0,14.0,-979.0,341.0
-5.0,-250.0,91.0,-19.0,70.0,-1.0,14.0,-980.0,343.0
-2.0,-254.0,95.0,-18.0,72.0,-2.0,20.0,-976.0,346.0
-4.0,-251.0,88.0,-16.0,72.0,-2.0,12.0,-980.0,347.0
-8.0,-246.0,95.0,-13.0,73.0,-2.0,16.0,-977.0,353.0
-4.0,-250.0,94.0,-10.0,75.0,-4.0,18.0,-975.0,354.0
-3.0,-251.0,94.0,-5.0,75.0,-4.0,9.0,-977.0,354.0
-2.0,-252.0,97.0,-3.0,75.0,-5.0,10.0,-979.0,357.0
-3.0,-251.0,98.0,0.0,74.0,-6.0,9.0,-977.0,354.0
-5.0,-249.0,95.0,-1.0,74.0,-6.0,13.0,-975.0,357.0
-6.0,-247.0,94.0,-1.0,75.0,-6.0,11.0,-977.0,354.0
-4.0,-251.0,96.0,-2.0,76.0,-7.0,12.0,-975.0,354.0
-3.0,-252.0,96.0,-2.0,75.0,-8.0,15.0,-976.0,359.0
-3.0,-250.0,93.0,-2.0,75.0,-8.0,15.0,-975.0,359.0
-2.0,-252.0,94.0,-4.0,75.0,-7.0,12.0,-977.0,355.0
-4.0,-250.0,95.0,-7.0,75.0,-8.0,16.0,-976.0,353.0
-4.0,-249.0,94.0,-11.0,76.0,-7.0,16.0,-975.0,354.0
-3.0,-253.0,96.0,-12.0,78.0,-7.0,15.0,-975.0,354.0
-6.0,-250.0,95.0,-15.0,78.0,-7.0,20.0,-982.0,351.0
3.0,-252.0,93.0,-17.0,79.0,-8.0,16.0,-975.0,352.0
-4.0,-252.0,94.0,-17.0,80.0,-7.0,16.0,-979.0,353.0
-1.0,-255.0,91.0,-17.0,80.0,-7.0,20.0,-978.0,351.0
-2.0,-252.0,91.0,-16.0,78.0,-5.0,23.0,-974.0,348.0
0.0,-252.0,92.0,-17.0,75.0,-4.0,23.0,-977.0,351.0
-4.0,-251.0,91.0,-18.0,72.0,-3.0,17.0,-976.0,350.0
-2.0,-253.0,91.0,-19.0,69.0,-2.0,17.0,-973.0,347.0
-1.0,-253.0,92.0,-20.0,67.0,-3.0,17.0,-977.0,344.0
-5.0,-248.0,92.0,-21.0,66.0,-4.0,15.0,-974.0,346.0
-5.0,-250.0,94.0,-22.0,66.0,-4.0,16.0,-976.0,341.0
-5.0,-249.0,90.0,-22.0,64.0,-4.0,15.0,-977.0,337.0
-3.0,-252.0,91.0,-21.0,64.0,-4.0,14.0,-981.0,346.0
-1.0,-253.0,90.0,-23.0,67.0,-4.0,16.0,-979.0,343.0
-5.0,-251.0,88.0,-21.0,67.0,-6.0,12.0,-976.0,344.0
-5.0,-252.0,89.0,-21.0,68.0,-6.0,14.0,-981.0,344.0
-2.0,-253.0,91.0,-19.0,71.0,-7.0,13.0,-987.0,349.0
-4.0,-250.0,92.0,-18.0,74.0,-8.0,16.0,-978.0,348.0
-4.0,-251.0,93.0,-17.0,77.0,-7.0,13.0,-985.0,345.0
-3.0,-251.0,96.0,-14.0,80.0,-6.0,12.0,-983.0,345.0
-4.0,-253.0,93.0,-13.0,80.0,-6.0,15.0,-987.0,349.0
-4.0,-251.0,97.0,-10.0,79.0,-6.0,18.0,-982.0,350.0
-4.0,-254.0,97.0,-10.0,80.0,-7.0,14.0,-984.0,348.0
-2.0,-254.0,92.0,-9.0,78.0,-4.0,13.0,-974.0,348.0
-2.0,-252.0,91.0,-11.0,78.0,-5.0,15.0,-979.0,346.0
-4.0,-247.0,93.0,-11.0,78.0,-5.0,15.0,-976.0,354.0
-5.0,-252.0,94.0,-12.0,77.0,-3.0,14.0,-975.0,352.0
-3.0,-251.0,95.0,-15.0,76.0,-4.0,11.0,-973.0,350.0
-5.0,-252.0,95.0,-17.0,74.0,-3.0,15.0,-978.0,353.0
0.0,-252.0,95.0,-19.0,74.0,-3.0,15.0,-975.0,358.0
-5.0,-251.0,94.0,-19.0,72.0,-5.0,13.0,-979.0,352.0
-2.0,-251.0,95.0,-19.0,72.0,-5.0,20.0,-981.0,357.0
-4.0,-251.0,94.0,-17.0,71.0,-5.0,15.0,-979.0,356.0
-7.0,-250.0,93.0,-14.0,74.0,-4.0,14.0,-979.0,357.0
-5.0,-251.0,97.0,-13.0,74.0,-5.0,15.0,-980.0,355.0
-3.0,-253.0,93.0,-10.0,75.0,-6.0,13.0,-981.0,352.0
-7.0,-250.0,93.0,-10.0,76.0,-5.0,12.0,-976.0,353.0
-2.0,-251.0,95.0,-12.0,75.0,-8.0,12.0,-974.0,353.0
-3.0,-250.0,91.0,-14.0,76.0,-7.0,12.0,-984.0,344.0
-4.0,-254.0,95.0,-16.0,72.0,-7.0,20.0,-978.0,342.0
-8.0,-249.0,93.0,-20.0,72.0,-6.0,16.0,-978.0,351.0
-1.0,-249.0,92.0,-21.0,70.0,-4.0,18.0,-980.0,343.0
-4.0,-250.0,91.0,-22.0,70.0,-3.0,15.0,-978.0,352.0
1.0,-252.0,94.0,-23.0,70.0,-4.0,13.0,-980.0,348.0
-3.0,-252.0,94.0,-23.0,68.0,-2.0,20.0,-979.0,348.0
-7.0,-250.0,95.0,-21.0,70.0,-1.0,11.0,-982.0,348.0
-2.0,-251.0,89.0,-19.0,69.0,-1.0,12.0,-977.0,345.0
-6.0,-251.0,86.0,-17.0,69.0,-2.0,14.0,-978.0,345.0
-5.0,-252.0,90.0,-17.0,70.0,-2.0,17.0,-980.0,346.0
-2.0,-251.0,97.0,-18.0,69.0,-2.0,14.0,-986.0,342.0
-4.0,-253.0,90.0,-19.0,69.0,-2.0,12.0,-980.0,353.0
-4.0,-252.0,93.0,-18.0,69.0,-1.0,14.0,-982.0,345.0
-2.0,-251.0,89.0,-18.0,69.0,-1.0,17.0,-977.0,347.0
-4.0,-253.0,93.0,-19.0,70.0,-2.0,18.0,-981.0,347.0
-4.0,-254.0,93.0,-19.0,69.0,-2.0,17.0,-975.0,348.0
-5.0,-250.0,92.0,-21.0,70.0,-1.0,17.0,-977.0,348.0
-3.0,-251.0,94.0,-20.0,69.0,-1.0,13.0,-976.0,351.0
-4.0,-251.0,95.0,-19.0,67.0,-1.0,14.0,-978.0,346.0
-5.0,-250.0,93.0,-19.0,66.0,-2.0,11.0,-974.0,353.0
-3.0,-249.0,95.0,-18.0,66.0,-3.0,13.0,-974.0,347.0
-6.0,-246.0,95.0,-18.0,66.0,-1.0,8.0,-980.0,343.0
-7.0,-252.0,93.0,-18.0,66.0,-2.0,9.0,-980.0,341.0
-4.0,-252.0,94.0,-17.0,67.0,-4.0,15.0,-974.0,344.0
-5.0,-250.0,97.0,-19.0,69.0,-3.0,10.0,-982.0,344.0
-4.0,-251.0,95.0,-20.0,69.0,-4.0,13.0,-981.0,348.0
-5.0,-252.0,91.0,-21.0,72.0,-7.0,8.0,-980.0,340.0
-7.0,-249.0,93.0,-19.0,74.0,-7.0,6.0,-980.0,346.0
-5.0,-250.0,93.0,-18.0,73.0,-7.0,15.0,-976.0,348.0
-3.0,-251.0,92.0,-16.0,74.0,-7.0,17.0,-978.0,344.0
-2.0,-253.0,94.0,-15.0,74.0,-6.0,13.0,-977.0,349.0
-4.0,-251.0,94.0,-14.0,72.0,-9.0,10.0,-975.0,347.0
1.0,-252.0,91.0,-14.0,72.0,-9.0,15.0,-979.0,348.0
1.0,-255.0,96.0,-14.0,71.0,-7.0,14.0,-980.0,344.0
-5.0,-250.0,92.0,-14.0,70.0,-7.0,12.0,-979.0,349.0
-3.0,-251.0,93.0,-14.0,70.0,-7.0,17.0,-979.0,352.0
-2.0,-253.0,92.0,-12.0,69.0,-7.0,14.0,-979.0,354.0
-2.0,-252.0,96.0,-11.0,70.0,-5.0,16.0,-976.0,348.0
-4.0,-252.0,95.0,-12.0,72.0,-5.0,13.0,-978.0,343.0
-4.0,-252.0,94.0,-12.0,73.0,-6.0,15.0,-977.0,343.0
-4.0,-252.0,89.0,-13.0,74.0,-4.0,15.0,-982.0,341.0
-2.0,-253.0,92.0,-13.0,75.0,-5.0,13.0,-978.0,342.0
-2.0,-253.0,93.0,-15.0,77.0,-5.0,15.0,-979.0,340.0
-1.0,-251.0,95.0,-16.0,76.0,-5.0,18.0,-978.0,341.0
-2.0,-250.0,92.0,-16.0,76.0,-6.0,18.0,-978.0,345.0
-4.0,-251.0,91.0,-17.0,76.0,-5.0,22.0,-982.0,348.0
-3.0,-248.0,91.0,-17.0,74.0,-4.0,24.0,-980.0,346.0
-3.0,-253.0,93.0,-16.0,73.0,-5.0,20.0,-978.0,353.0
-6.0,-253.0,92.0,-16.0,69.0,-4.0,15.0,-981.0,348.0
-4.0,-251.0,96.0,-16.0,68.0,-3.0,18.0,-979.0,339.0
-4.0,-250.0,92.0,-15.0,68.0,-3.0,20.0,-976.0,347.0
-1.0,-252.0,90.0,-15.0,67.0,-3.0,23.0,-975.0,344.0
-3.0,-251.0,92.0,-16.0,66.0,-4.0,15.0,-983.0,347.0
-2.0,-249.0,93.0,-15.0,66.0,-4.0,12.0,-970.0,348.0
-2.0,-249.0,91.0,-16.0,67.0,-4.0,15.0,-976.0,342.0
-6.0,-250.0,92.0,-16.0,67.0,-3.0,20.0,-980.0,347.0
-2.0,-251.0,92.0,-16.0,68.0,-3.0,12.0,-981.0,349.0
0.0,-253.0,94.0,-18.0,66.0,-2.0,17.0,-981.0,349.0
-4.0,-251.0,95.0,-16.0,67.0,-2.0,16.0,-978.0,349.0
-3.0,-254.0,95.0,-16.0,69.0,-2.0,15.0,-981.0,342.0
-2.0,-254.0,93.0,-16.0,69.0,-1.0,16.0,-978.0,352.0
1.0,-254.0,93.0,-15.0,71.0,1.0,18.0,-982.0,355.0
-5.0,-250.0,92.0,-15.0,71.0,0.0,21.0,-981.0,348.0
-3.0,-252.0,92.0,-14.0,70.0,-1.0,15.0,-981.0,350.0
-1.0,-253.0,92.0,-15.0,69.0,-1.0,12.0,-979.0,355.0
-7.0,-252.0,92.0,-12.0,67.0,-1.0,13.0,-980.0,352.0
-4.0,-250.0,90.0,-12.0,67.0,-1.0,10.0,-975.0,351.0
-5.0,-252.0,92.0,-14.0,66.0,-2.0,16.0,-980.0,348.0
-5.0,-251.0,94.0,-16.0,66.0,-2.0,11.0,-979.0,354.0
-4.0,-251.0,94.0,-17.0,66.0,-4.0,13.0,-981.0,348.0
-5.0,-250.0,97.0,-16.0,66.0,-5.0,13.0,-983.0,352.0
-6.0,-251.0,94.0,-14.0,66.0,-5.0,7.0,-977.0,345.0
-3.0,-253.0,92.0,-12.0,66.0,-7.0,14.0,-983.0,346.0
-3.0,-254.0,93.0,-10.0,65.0,-6.0,9.0,-981.0,344.0
-3.0,-253.0,94.0,-8.0,67.0,-5.0,20.0,-983.0,347.0
-6.0,-251.0,92.0,-6.0,67.0,-6.0,15.0,-982.0,346.0
-5.0,-254.0,91.0,-4.0,68.0,-6.0,15.0,-982.0,348.0
-6.0,-252.0,90.0,-2.0,68.0,-6.0,14.0,-978.0,347.0
-3.0,-252.0,92.0,-2.0,68.0,-4.0,20.0,-978.0,340.0
-5.0,-252.0,93.0,-1.0,66.0,-4.0,15.0,-980.0,342.0
-1.0,-252.0,92.0,-2.0,65.0,-3.0,20.0,-975.0,340.0
1.0,-253.0,92.0,-4.0,64.0,-3.0,22.0,-979.0,340.0
1.0,-253.0,94.0,-7.0,61.0,-3.0,15.0,-981.0,338.0
-3.0,-250.0,88.0,-12.0,61.0,-1.0,20.0,-977.0,336.0
-5.0,-255.0,90.0,-17.0,61.0,-2.0,19.0,-981.0,336.0
-4.0,-251.0,90.0,-21.0,61.0,-1.0,18.0,-981.0,334.0
-3.0,-254.0,92.0,-22.0,63.0,-2.0,16.0,-982.0,339.0
-4.0,-254.0,92.0,-21.0,65.0,-1.0,15.0,-985.0,339.0
-5.0,-254.0,93.0,-16.0,67.0,-1.0,13.0,-981.0,341.0
-6.0,-248.0,91.0,-13.0,70.0,-1.0,15.0,-981.0,349.0
-6.0,-253.0,94.0,-8.0,71.0,-2.0,15.0,-982.0,353.0
-2.0,-254.0,93.0,-2.0,72.0,-2.0,17.0,-981.0,352.0
1.0,-254.0,89.0,2.0,74.0,-4.0,20.0,-973.0,351.0
-3.0,-252.0,95.0,2.0,74.0,-5.0,14.0,-976.0,349.0
-5.0,-247.0,95.0,2.0,73.0,-4.0,17.0,-975.0,348.0
-7.0,-247.0,93.0,0.0,72.0,-6.0,13.0,-976.0,353.0
-4.0,-253.0,96.0,-2.0,71.0,-6.0,17.0,-975.0,353.0
-6.0,-250.0,95.0,-5.0,71.0,-7.0,12.0,-981.0,352.0
-5.0,-249.0,99.0,-5.0,72.0,-7.0,10.0,-974.0,355.0
-7.0,-249.0,97.0,-7.0,73.0,-9.0,14.0,-981.0,350.0
-4.0,-254.0,93.0,-9.0,74.0,-9.0,13.0,-981.0,351.0
-6.0,-252.0,93.0,-10.0,73.0,-8.0,13.0,-986.0,354.0
-6.0,-251.0,92.0,-10.0,71.0,-9.0,17.0,-981.0,349.0
-4.0,-252.0,94.0,-10.0,71.0,-8.0,18.0,-980.0,350.0
-5.0,-250.0,91.0,-10.0,70.0,-7.0,15.0,-979.0,351.0
-3.0,-253.0,95.0,-10.0,68.0,-6.0,20.0,-977.0,347.0
-3.0,-251.0,91.0,-13.0,68.0,-4.0,15.0,-979.0,340.0
-6.0,-250.0,92.0,-14.0,69.0,-3.0,22.0,-981.0,340.0
-2.0,-253.0,89.0,-17.0,67.0,-2.0,16.0,-978.0,332.0
0.0,-254.0,86.0,-22.0,68.0,0.0,17.0,-983.0,333.0
-4.0,-248.0,86.0,-28.0,69.0,1.0,21.0,-984.0,329.0
-5.0,-252.0,91.0,-32.0,70.0,1.0,17.0,-981.0,331.0
2.0,-255.0,89.0,-35.0,72.0,0.0,18.0,-981.0,338.0
-4.0,-251.0,88.0,-32.0,71.0,0.0,23.0,-982.0,338.0
-3.0,-251.0,90.0,-29.0,69.0,1.0,16.0,-979.0,338.0
-4.0,-252.0,91.0,-25.0,66.0,-2.0,21.0,-977.0,343.0
0.0,-254.0,88.0,-22.0,66.0,-2.0,16.0,-978.0,341.0
1.0,-250.0,93.0,-20.0,68.0,-2.0,17.0,-976.0,337.0
-4.0,-253.0,92.0,-21.0,68.0,-4.0,13.0,-976.0,338.0
-4.0,-252.0,92.0,-20.0,73.0,-5.0,13.0,-974.0,341.0
-6.0,-250.0,93.0,-21.0,78.0,-8.0,13.0,-979.0,343.0
-4.0,-253.0,93.0,-26.0,81.0,-10.0,20.0,-977.0,348.0
0.0,-252.0,93.0,-29.0,85.0,-13.0,17.0,-980.0,350.0
-3.0,-252.0,91.0,-36.0,86.0,-13.0,15.0,-983.0,353.0
-1.0,-254.0,94.0,-40.0,90.0,-12.0,14.0,-983.0,343.0
-4.0,-254.0,90.0,-46.0,90.0,-11.0,13.0,-981.0,348.0
-3.0,-254.0,93.0,-53.0,87.0,-10.0,16.0,-979.0,344.0
-3.0,-252.0,91.0,-63.0,84.0,-7.0,22.0,-982.0,345.0
-3.0,-253.0,90.0,-72.0,80.0,-5.0,17.0,-973.0,341.0
0.0,-254.0,91.0,-82.0,74.0,-4.0,20.0,-975.0,347.0
-1.0,-253.0,92.0,-92.0,71.0,-3.0,17.0,-981.0,341.0
-4.0,-250.0,89.0,-107.0,67.0,-2.0,22.0,-983.0,337.0
-2.0,-248.0,92.0,-123.0,62.0,-1.0,20.0,-981.0,346.0
-1.0,-253.0,88.0,-142.0,57.0,-3.0,17.0,-979.0,346.0
0.0,-254.0,95.0,-163.0,56.0,-2.0,17.0,-978.0,350.0
-5.0,-250.0,98.0,-188.0,53.0,-6.0,17.0,-974.0,347.0
-5.0,-248.0,93.0,-217.0,53.0,-10.0,19.0,-974.0,345.0
-3.0,-248.0,85.0,-253.0,52.0,-15.0,13.0,-971.0,330.0
-4.0,-248.0,88.0,-297.0,52.0,-23.0,15.0,-973.0,325.0
-9.0,-244.0,85.0,-349.0,51.0,-31.0,9.0,-970.0,311.0
-2.0,-242.0,78.0,-398.0,52.0,-39.0,10.0,-959.0,292.0
-4.0,-240.0,74.0,-469.0,53.0,-49.0,9.0,-951.0,277.0
-3.0,-241.0,70.0,-548.0,50.0,-59.0,9.0,-948.0,263.0
-3.0,-241.0,65.0,-626.0,51.0,-67.0,8.0,-950.0,240.0
-3.0,-245.0,60.0,-695.0,59.0,-72.0,12.0,-959.0,217.0
-1.0,-249.0,57.0,-746.0,74.0,-79.0,11.0,-971.0,199.0
-4.0,-253.0,49.0,-776.0,95.0,-84.0,6.0,-983.0,179.0
-7.0,-257.0,49.0,-796.0,118.0,-92.0,7.0,-998.0,162.0
-3.0,-260.0,45.0,-810.0,139.0,-99.0,11.0,-1003.0,149.0
-5.0,-257.0,43.0,-823.0,155.0,-104.0,10.0,-1016.0,147.0
1.0,-262.0,45.0,-844.0,168.0,-105.0,12.0,-1012.0,157.0
1.0,-257.0,50.0,-866.0,174.0,-99.0,20.0,-1013.0,169.0
-1.0,-256.0,54.0,-889.0,179.0,-88.0,23.0,-999.0,191.0
1.0,-256.0,62.0,-911.0,178.0,-71.0,29.0,-994.0,212.0
-4.0,-252.0,63.0,-927.0,176.0,-52.0,27.0,-988.0,240.0
0.0,-255.0,71.0,-935.0,175.0,-33.0,27.0,-987.0,257.0
-1.0,-254.0,71.0,-935.0,164.0,-13.0,30.0,-990.0,277.0
0.0,-258.0,77.0,-926.0,149.0,3.0,32.0,-1000.0,294.0
-1.0,-260.0,85.0,-899.0,124.0,17.0,30.0,-1016.0,305.0
-1.0,-263.0,84.0,-856.0,98.0,30.0,30.0,-1020.0,309.0
-1.0,-268.0,81.0,-804.0,74.0,40.0,28.0,-1034.0,298.0
-1.0,-264.0,75.0,-746.0,56.0,49.0,22.0,-1036.0,289.0
2.0,-266.0,73.0,-688.0,45.0,53.0,26.0,-1040.0,280.0
2.0,-266.0,69.0,-634.0,41.0,51.0,29.0,-1040.0,270.0
2.0,-262.0,70.0,-587.0,43.0,50.0,26.0,-1027.0,263.0
-1.0,-260.0,72.0,-546.0,49.0,43.0,26.0,-1015.0,261.0
1.0,-257.0,73.0,-517.0,57.0,35.0,34.0,-1004.0,262.0
3.0,-256.0,72.0,-500.0,69.0,27.0,33.0,-992.0,256.0
2.0,-252.0,66.0,-498.0,84.0,16.0,35.0,-988.0,251.0
4.0,-252.0,67.0,-506.0,100.0,7.0,36.0,-979.0,252.0
1.0,-249.0,68.0,-521.0,112.0,0.0,36.0,-972.0,244.0
4.0,-248.0,65.0,-544.0,121.0,-5.0,38.0,-969.0,241.0
4.0,-248.0,64.0,-570.0,124.0,-9.0,39.0,-965.0,237.0
3.0,-248.0,62.0,-595.0,125.0,-10.0,35.0,-960.0,230.0
5.0,-244.0,60.0,-625.0,122.0,-15.0,37.0,-957.0,231.0
4.0,-245.0,60.0,-658.0,119.0,-19.0,33.0,-957.0,226.0
2.0,-247.0,64.0,-685.0,116.0,-17.0,29.0,-963.0,230.0
0.0,-250.0,61.0,-706.0,114.0,-17.0,29.0,-971.0,223.0
-2.0,-248.0,63.0,-726.0,112.0,-16.0,14.0,-968.0,228.0
-3.0,-248.0,62.0,-739.0,110.0,-11.0,18.0,-960.0,226.0
-3.0,-250.0,60.0,-746.0,105.0,-12.0,14.0,-961.0,227.0
-5.0,-245.0,64.0,-747.0,104.0,-13.0,15.0,-960.0,231.0
-3.0,-244.0,65.0,-745.0,108.0,-17.0,8.0,-957.0,228.0
-5.0,-245.0,63.0,-742.0,111.0,-19.0,8.0,-955.0,225.0
-5.0,-247.0,58.0,-744.0,110.0,-15.0,4.0,-958.0,220.0
-6.0,-244.0,64.0,-754.0,105.0,-11.0,4.0,-955.0,218.0
-9.0,-241.0,60.0,-773.0,101.0,-12.0,-3.0,-940.0,218.0
-11.0,-238.0,60.0,-799.0,90.0,-10.0,-9.0,-935.0,220.0
-11.0,-238.0,60.0,-835.0,79.0,-5.0,-7.0,-939.0,218.0
-7.0,-238.0,63.0,-871.0,67.0,2.0,-16.0,-935.0,225.0
-12.0,-240.0,64.0,-905.0,52.0,6.0,-16.0,-940.0,231.0
-11.0,-244.0,65.0,-943.0,40.0,11.0,-6.0,-954.0,247.0
-13.0,-248.0,74.0,-972.0,28.0,4.0,-19.0,-971.0,269.0
-13.0,-255.0,83.0,-999.0,32.0,3.0,-25.0,-989.0,293.0
-6.0,-252.0,87.0,-1028.0,54.0,5.0,-4.0,-987.0,323.0
-13.0,-249.0,87.0,-1080.0,80.0,2.0,-17.0,-966.0,341.0
-6.0,-246.0,91.0,-1144.0,87.0,11.0,-9.0,-962.0,343.0
1.0,-240.0,85.0,-1209.0,67.0,24.0,31.0,-956.0,318.0
-5.0,-240.0,67.0,-1292.0,28.0,28.0,16.0,-962.0,244.0
-7.0,-244.0,57.0,-1421.0,-23.0,46.0,26.0,-981.0,200.0
4.0,-250.0,43.0,-1591.0,-75.0,62.0,46.0,-1004.0,155.0
-9.0,-252.0,30.0,-1795.0,-111.0,71.0,4.0,-1035.0,125.0
4.0,-269.0,27.0,-2010.0,-147.0,96.0,43.0,-1082.0,89.0
-9.0,-282.0,19.0,-2213.0,-170.0,96.0,-31.0,-1139.0,51.0
-7.0,-316.0,16.0,-2360.0,-170.0,100.0,16.0,-1199.0,47.0
6.0,-320.0,14.0,-2410.0,-145.0,71.0,83.0,-1208.0,45.0
-4.0,-333.0,28.0,-2372.0,-114.0,21.0,20.0,-1240.0,79.0
20.0,-332.0,24.0,-2247.0,-90.0,33.0,71.0,-1276.0,82.0
21.0,-330.0,-8.0,-2065.0,-33.0,27.0,149.0,-1234.0,-17.0
44.0,-312.0,-40.0,-1915.0,113.0,2.0,122.0,-1224.0,-182.0
21.0,-303.0,-71.0,-1832.0,302.0,2.0,120.0,-1189.0,-295.0
29.0,-299.0,-103.0,-1815.0,465.0,17.0,141.0,-1168.0,-419.0
36.0,-316.0,-113.0,-1853.0,583.0,48.0,152.0,-1238.0,-461.0
23.0,-323.0,-110.0,-1906.0,664.0,67.0,121.0,-1247.0,-485.0
8.0,-344.0,-87.0,-1987.0,751.0,58.0,54.0,-1326.0,-370.0
-9.0,-361.0,-58.0,-2018.0,814.0,79.0,-20.0,-1427.0,-264.0
-50.0,-383.0,-35.0,-2017.0,842.0,94.0,-160.0,-1481.0,-166.0
-52.0,-385.0,-15.0,-2004.0,827.0,136.0,-159.0,-1502.0,-96.0
-49.0,-386.0,-4.0,-2020.0,779.0,157.0,-140.0,-1524.0,-46.0
-50.0,-407.0,8.0,-2082.0,710.0,155.0,-138.0,-1579.0,18.0
-40.0,-421.0,12.0,-2133.0,622.0,147.0,-96.0,-1638.0,29.0
-30.0,-436.0,7.0,-2160.0,507.0,123.0,-29.0,-1720.0,8.0
-19.0,-457.0,2.0,-2151.0,354.0,85.0,5.0,-1768.0,-20.0
-3.0,-462.0,-17.0,-2102.0,213.0,44.0,51.0,-1797.0,-87.0
7.0,-466.0,-31.0,-2032.0,109.0,-6.0,99.0,-1814.0,-153.0
19.0,-462.0,-46.0,-1964.0,55.0,-50.0,140.0,-1789.0,-218.0
22.0,-450.0,-56.0,-1910.0,44.0,-87.0,139.0,-1758.0,-242.0
16.0,-443.0,-58.0,-1873.0,65.0,-115.0,108.0,-1734.0,-268.0
4.0,-441.0,-57.0,-1861.0,107.0,-140.0,60.0,-1716.0,-258.0
-1.0,-436.0,-58.0,-1851.0,158.0,-160.0,44.0,-1712.0,-256.0
-11.0,-433.0,-59.0,-1845.0,212.0,-176.0,8.0,-1697.0,-255.0
-17.0,-424.0,-64.0,-1842.0,262.0,-182.0,-32.0,-1656.0,-271.0
-26.0,-406.0,-70.0,-1854.0,302.0,-180.0,-56.0,-1584.0,-320.0
-30.0,-385.0,-85.0,-1876.0,325.0,-166.0,-70.0,-1525.0,-370.0
-26.0,-373.0,-99.0,-1923.0,332.0,-146.0,-60.0,-1460.0,-427.0
-41.0,-352.0,-112.0,-1980.0,318.0,-119.0,-92.0,-1382.0,-481.0
-24.0,-332.0,-122.0,-2024.0,280.0,-84.0,-58.0,-1305.0,-513.0
-24.0,-324.0,-127.0,-2031.0,221.0,-54.0,-52.0,-1264.0,-542.0
-15.0,-312.0,-134.0,-1988.0,145.0,-20.0,-22.0,-1203.0,-574.0
-18.0,-306.0,-142.0,-1900.0,68.0,-3.0,-26.0,-1173.0,-596.0
-19.0,-296.0,-142.0,-1799.0,-4.0,11.0,-30.0,-1132.0,-630.0
-12.0,-289.0,-153.0,-1700.0,-64.0,19.0,-10.0,-1106.0,-640.0
-4.0,-307.0,-142.0,-1608.0,-107.0,27.0,45.0,-1167.0,-635.0
-12.0,-306.0,-146.0,-1471.0,-134.0,15.0,-15.0,-1181.0,-635.0
-9.0,-303.0,-150.0,-1303.0,-160.0,27.0,-37.0,-1177.0,-633.0
-7.0,-313.0,-142.0,-1118.0,-164.0,62.0,35.0,-1186.0,-635.0
-33.0,-297.0,-155.0,-901.0,-128.0,81.0,-79.0,-1147.0,-638.0
-9.0,-301.0,-134.0,-714.0,-83.0,121.0,4.0,-1132.0,-624.0
-4.0,-293.0,-134.0,-550.0,-18.0,121.0,21.0,-1123.0,-595.0
-10.0,-271.0,-135.0,-374.0,35.0,88.0,-14.0,-1034.0,-591.0
-5.0,-275.0,-129.0,-181.0,67.0,80.0,12.0,-1047.0,-578.0
9.0,-268.0,-122.0,24.0,69.0,73.0,25.0,-1032.0,-567.0
-22.0,-259.0,-146.0,248.0,42.0,45.0,-68.0,-929.0,-607.0
7.0,-263.0,-138.0,488.0,1.0,61.0,4.0,-944.0,-567.0
0.0,-235.0,-135.0,777.0,-58.0,63.0,-30.0,-925.0,-589.0
-9.0,-235.0,-131.0,1061.0,-111.0,80.0,-48.0,-878.0,-622.0
2.0,-202.0,-136.0,1316.0,-130.0,111.0,17.0,-841.0,-622.0
6.0,-226.0,-125.0,1554.0,-129.0,131.0,50.0,-786.0,-602.0
-7.0,-213.0,-121.0,1760.0,-112.0,150.0,17.0,-787.0,-577.0
3.0,-205.0,-136.0,1917.0,-102.0,158.0,21.0,-795.0,-548.0
-12.0,-199.0,-121.0,2027.0,-88.0,129.0,15.0,-751.0,-571.0
5.0,-187.0,-127.0,2088.0,-86.0,82.0,-22.0,-742.0,-559.0
-16.0,-195.0,-116.0,2107.0,-66.0,45.0,3.0,-751.0,-505.0
-12.0,-190.0,-126.0,2101.0,-63.0,0.0,-38.0,-734.0,-525.0
-27.0,-200.0,-112.0,2064.0,-61.0,-37.0,-49.0,-768.0,-500.0
-17.0,-201.0,-104.0,2009.0,-67.0,-68.0,-61.0,-793.0,-466.0
-8.0,-205.0,-112.0,1930.0,-68.0,-93.0,-55.0,-824.0,-487.0
-16.0,-216.0,-124.0,1820.0,-74.0,-112.0,-38.0,-846.0,-517.0
-13.0,-214.0,-140.0,1668.0,-64.0,-123.0,-33.0,-862.0,-598.0
-14.0,-212.0,-159.0,1433.0,-34.0,-115.0,-19.0,-888.0,-681.0
-11.0,-228.0,-167.0,1120.0,11.0,-100.0,-14.0,-930.0,-706.0
-9.0,-245.0,-169.0,771.0,53.0,-92.0,-5.0,-989.0,-706.0
-3.0,-265.0,-156.0,434.0,84.0,-90.0,3.0,-1061.0,-677.0
-5.0,-287.0,-139.0,157.0,102.0,-87.0,6.0,-1128.0,-617.0
-7.0,-306.0,-123.0,-36.0,109.0,-80.0,12.0,-1182.0,-546.0
-8.0,-320.0,-99.0,-127.0,110.0,-69.0,13.0,-1214.0,-471.0
-8.0,-322.0,-85.0,-133.0,108.0,-52.0,22.0,-1248.0,-382.0
-3.0,-327.0,-70.0,-75.0,101.0,-38.0,18.0,-1258.0,-328.0
-4.0,-329.0,-61.0,19.0,83.0,-28.0,23.0,-1266.0,-271.0
-4.0,-327.0,-50.0,126.0,57.0,-19.0,18.0,-1257.0,-234.0
-6.0,-319.0,-47.0,208.0,29.0,-14.0,14.0,-1243.0,-222.0
-4.0,-307.0,-49.0,296.0,12.0,-2.0,16.0,-1198.0,-220.0
-4.0,-295.0,-44.0,356.0,4.0,20.0,27.0,-1158.0,-215.0
-1.0,-286.0,-43.0,385.0,-5.0,41.0,28.0,-1130.0,-212.0
-4.0,-278.0,-42.0,381.0,-28.0,58.0,21.0,-1100.0,-192.0
-2.0,-275.0,-42.0,356.0,-58.0,73.0,21.0,-1086.0,-196.0
-6.0,-272.0,-40.0,312.0,-87.0,85.0,8.0,-1070.0,-180.0
-8.0,-268.0,-43.0,263.0,-105.0,96.0,7.0,-1062.0,-189.0
-3.0,-265.0,-48.0,213.0,-112.0,106.0,17.0,-1054.0,-215.0
-1.0,-266.0,-55.0,152.0,-116.0,106.0,20.0,-1048.0,-236.0
-8.0,-261.0,-57.0,88.0,-117.0,101.0,7.0,-1022.0,-250.0
-7.0,-257.0,-60.0,23.0,-122.0,91.0,6.0,-1002.0,-278.0
-6.0,-252.0,-64.0,-50.0,-125.0,73.0,7.0,-987.0,-291.0
-2.0,-250.0,-65.0,-122.0,-119.0,58.0,19.0,-966.0,-290.0
4.0,-244.0,-60.0,-193.0,-103.0,45.0,31.0,-956.0,-288.0
6.0,-247.0,-64.0,-262.0,-83.0,30.0,43.0,-957.0,-287.0
5.0,-249.0,-66.0,-332.0,-64.0,13.0,54.0,-957.0,-281.0
6.0,-245.0,-61.0,-407.0,-46.0,-4.0,49.0,-955.0,-269.0
5.0,-247.0,-52.0,-481.0,-35.0,-12.0,49.0,-957.0,-240.0
2.0,-242.0,-53.0,-548.0,-31.0,-16.0,52.0,-957.0,-215.0
5.0,-245.0,-45.0,-606.0,-30.0,-16.0,52.0,-960.0,-207.0
4.0,-247.0,-40.0,-660.0,-29.0,-21.0,44.0,-958.0,-186.0
3.0,-246.0,-39.0,-704.0,-24.0,-23.0,30.0,-958.0,-182.0
0.0,-246.0,-36.0,-737.0,-16.0,-24.0,30.0,-959.0,-175.0
0.0,-251.0,-39.0,-762.0,-2.0,-24.0,14.0,-962.0,-171.0
-6.0,-253.0,-35.0,-775.0,13.0,-22.0,2.0,-977.0,-173.0
-8.0,-255.0,-39.0,-779.0,27.0,-15.0,-11.0,-976.0,-171.0
-12.0,-256.0,-39.0,-768.0,39.0,-7.0,-19.0,-983.0,-175.0
-10.0,-257.0,-42.0,-739.0,51.0,2.0,-13.0,-986.0,-183.0
-13.0,-258.0,-44.0,-697.0,64.0,3.0,-19.0,-994.0,-197.0
-11.0,-258.0,-45.0,-644.0,77.0,2.0,-21.0,-995.0,-216.0
-14.0,-256.0,-49.0,-586.0,90.0,-2.0,-32.0,-994.0,-218.0
-14.0,-256.0,-49.0,-528.0,102.0,-4.0,-28.0,-984.0,-224.0
-15.0,-254.0,-49.0,-479.0,113.0,-7.0,-31.0,-977.0,-225.0
-14.0,-255.0,-50.0,-435.0,120.0,-10.0,-29.0,-973.0,-231.0
-12.0,-255.0,-50.0,-398.0,124.0,-14.0,-24.0,-968.0,-228.0
-10.0,-254.0,-49.0,-364.0,123.0,-14.0,-7.0,-962.0,-224.0
-4.0,-249.0,-49.0,-335.0,121.0,-17.0,1.0,-955.0,-225.0
-8.0,-245.0,-53.0,-308.0,113.0,-16.0,-1.0,-943.0,-225.0
0.0,-241.0,-50.0,-284.0,104.0,-11.0,16.0,-928.0,-223.0
-2.0,-234.0,-49.0,-264.0,97.0,-9.0,12.0,-909.0,-224.0
3.0,-231.0,-51.0,-247.0,89.0,-6.0,31.0,-894.0,-220.0
0.0,-224.0,-49.0,-232.0,84.0,-10.0,19.0,-867.0,-219.0
4.0,-218.0,-48.0,-214.0,78.0,-2.0,38.0,-851.0,-210.0
6.0,-213.0,-46.0,-193.0,74.0,-2.0,48.0,-833.0,-205.0
5.0,-208.0,-45.0,-170.0,73.0,-4.0,53.0,-809.0,-201.0
7.0,-208.0,-44.0,-151.0,79.0,-7.0,60.0,-793.0,-189.0
10.0,-205.0,-43.0,-131.0,83.0,-11.0,65.0,-783.0,-191.0
7.0,-198.0,-42.0,-112.0,89.0,-21.0,59.0,-768.0,-185.0
9.0,-194.0,-41.0,-97.0,95.0,-29.0,54.0,-754.0,-180.0
5.0,-189.0,-36.0,-75.0,96.0,-33.0,47.0,-737.0,-168.0
5.0,-189.0,-38.0,-49.0,96.0,-39.0,53.0,-730.0,-177.0
8.0,-188.0,-42.0,-28.0,95.0,-42.0,53.0,-715.0,-178.0
7.0,-184.0,-47.0,-12.0,95.0,-40.0,48.0,-700.0,-184.0
1.0,-181.0,-47.0,0.0,99.0,-39.0,34.0,-703.0,-206.0
8.0,-180.0,-47.0,-4.0,105.0,-32.0,62.0,-699.0,-207.0
1.0,-175.0,-45.0,-6.0,117.0,-42.0,42.0,-678.0,-206.0
4.0,-170.0,-47.0,5.0,127.0,-45.0,42.0,-652.0,-208.0
5.0,-168.0,-42.0,21.0,133.0,-47.0,33.0,-641.0,-209.0
4.0,-166.0,-47.0,49.0,138.0,-47.0,24.0,-640.0,-211.0
4.0,-163.0,-48.0,81.0,138.0,-47.0,33.0,-626.0,-209.0
5.0,-163.0,-45.0,122.0,134.0,-50.0,46.0,-629.0,-210.0
3.0,-160.0,-48.0,165.0,131.0,-67.0,31.0,-609.0,-214.0
-3.0,-154.0,-49.0,210.0,130.0,-71.0,10.0,-591.0,-216.0
-5.0,-153.0,-48.0,255.0,121.0,-56.0,4.0,-581.0,-218.0
-3.0,-147.0,-51.0,292.0,109.0,-35.0,2.0,-570.0,-219.0
-9.0,-146.0,-50.0,330.0,97.0,-16.0,-26.0,-570.0,-220.0
3.0,-142.0,-49.0,361.0,85.0,9.0,26.0,-555.0,-222.0
2.0,-135.0,-44.0,396.0,88.0,8.0,13.0,-517.0,-209.0
3.0,-131.0,-47.0,438.0,96.0,16.0,29.0,-513.0,-206.0
5.0,-128.0,-44.0,474.0,112.0,22.0,35.0,-489.0,-201.0
8.0,-124.0,-45.0,503.0,130.0,27.0,45.0,-464.0,-207.0
14.0,-123.0,-54.0,533.0,152.0,31.0,75.0,-457.0,-207.0
15.0,-109.0,-48.0,561.0,181.0,3.0,68.0,-404.0,-202.0
17.0,-100.0,-48.0,586.0,204.0,-10.0,76.0,-373.0,-215.0
16.0,-90.0,-49.0,602.0,224.0,-5.0,88.0,-355.0,-223.0
23.0,-87.0,-54.0,606.0,237.0,2.0,120.0,-350.0,-234.0
24.0,-79.0,-54.0,601.0,247.0,-20.0,112.0,-297.0,-233.0
19.0,-73.0,-54.0,598.0,253.0,-30.0,100.0,-269.0,-242.0
19.0,-63.0,-59.0,582.0,246.0,-30.0,98.0,-255.0,-269.0
6.0,-64.0,-69.0,552.0,232.0,-28.0,75.0,-238.0,-292.0
15.0,-58.0,-70.0,506.0,205.0,-16.0,78.0,-224.0,-307.0
16.0,-60.0,-73.0,452.0,174.0,-30.0,74.0,-233.0,-335.0
5.0,-58.0,-79.0,394.0,138.0,-41.0,37.0,-222.0,-336.0
4.0,-64.0,-80.0,334.0,90.0,-27.0,37.0,-234.0,-350.0
4.0,-70.0,-87.0,278.0,33.0,-15.0,30.0,-275.0,-371.0
0.0,-76.0,-84.0,222.0,-27.0,-3.0,18.0,-318.0,-376.0
-4.0,-93.0,-92.0,176.0,-89.0,10.0,8.0,-350.0,-393.0
-8.0,-104.0,-100.0,129.0,-148.0,28.0,-3.0,-390.0,-419.0
-7.0,-115.0,-110.0,82.0,-208.0,39.0,-12.0,-438.0,-454.0
-13.0,-127.0,-119.0,29.0,-259.0,51.0,-23.0,-488.0,-497.0
-14.0,-141.0,-125.0,-29.0,-293.0,65.0,-32.0,-544.0,-546.0
-15.0,-155.0,-144.0,-99.0,-302.0,78.0,-49.0,-599.0,-601.0
-18.0,-175.0,-156.0,-185.0,-283.0,93.0,-55.0,-680.0,-648.0
-21.0,-197.0,-168.0,-284.0,-240.0,105.0,-59.0,-759.0,-700.0
-21.0,-221.0,-173.0,-394.0,-183.0,114.0,-68.0,-853.0,-722.0
-21.0,-250.0,-169.0,-495.0,-121.0,124.0,-70.0,-968.0,-728.0
-23.0,-273.0,-170.0,-558.0,-61.0,134.0,-65.0,-1065.0,-717.0
-19.0,-298.0,-165.0,-612.0,-3.0,143.0,-55.0,-1156.0,-699.0
-17.0,-320.0,-161.0,-630.0,42.0,149.0,-31.0,-1235.0,-675.0
-11.0,-332.0,-151.0,-613.0,101.0,155.0,-20.0,-1286.0,-647.0
-7.0,-347.0,-144.0,-560.0,161.0,157.0,-10.0,-1333.0,-615.0
-9.0,-356.0,-134.0,-480.0,217.0,153.0,-2.0,-1364.0,-590.0
-6.0,-360.0,-128.0,-382.0,264.0,149.0,1.0,-1378.0,-560.0
-7.0,-358.0,-124.0,-271.0,303.0,143.0,10.0,-1379.0,-531.0
-5.0,-359.0,-114.0,-147.0,329.0,134.0,16.0,-1366.0,-491.0
-3.0,-348.0,-101.0,-9.0,344.0,123.0,20.0,-1326.0,-460.0
-4.0,-336.0,-94.0,146.0,349.0,113.0,27.0,-1272.0,-421.0
-4.0,-323.0,-89.0,312.0,347.0,103.0,22.0,-1225.0,-400.0
-1.0,-309.0,-89.0,468.0,339.0,97.0,18.0,-1169.0,-393.0
-3.0,-291.0,-88.0,605.0,328.0,91.0,27.0,-1119.0,-392.0
-4.0,-276.0,-90.0,709.0,321.0,84.0,21.0,-1061.0,-387.0
-2.0,-256.0,-86.0,780.0,316.0,81.0,12.0,-1003.0,-382.0
-6.0,-244.0,-87.0,820.0,315.0,77.0,6.0,-954.0,-376.0
-10.0,-232.0,-83.0,829.0,316.0,72.0,-5.0,-909.0,-365.0
-11.0,-219.0,-81.0,813.0,311.0,68.0,-15.0,-873.0,-350.0
-15.0,-210.0,-69.0,773.0,301.0,65.0,-30.0,-830.0,-329.0
-17.0,-198.0,-66.0,714.0,286.0,61.0,-42.0,-796.0,-302.0
-17.0,-193.0,-62.0,644.0,264.0,61.0,-50.0,-766.0,-271.0
-18.0,-191.0,-51.0,569.0,237.0,58.0,-57.0,-747.0,-239.0
-24.0,-189.0,-49.0,496.0,211.0,54.0,-63.0,-739.0,-221.0
-25.0,-189.0,-48.0,426.0,183.0,50.0,-71.0,-739.0,-209.0
-28.0,-188.0,-45.0,362.0,157.0,49.0,-76.0,-741.0,-199.0
-30.0,-192.0,-43.0,304.0,130.0,45.0,-89.0,-754.0,-202.0
-34.0,-194.0,-49.0,248.0,103.0,43.0,-98.0,-768.0,-210.0
-31.0,-203.0,-47.0,193.0,80.0,44.0,-113.0,-790.0,-216.0
-36.0,-206.0,-48.0,137.0,59.0,44.0,-104.0,-813.0,-221.0
-34.0,-215.0,-50.0,80.0,44.0,42.0,-98.0,-844.0,-227.0
-34.0,-220.0,-57.0,27.0,31.0,40.0,-98.0,-868.0,-235.0
-33.0,-229.0,-59.0,-24.0,23.0,39.0,-91.0,-896.0,-251.0
-33.0,-233.0,-61.0,-70.0,17.0,37.0,-89.0,-911.0,-265.0
-29.0,-237.0,-64.0,-111.0,12.0,33.0,-88.0,-930.0,-287.0
-32.0,-240.0,-70.0,-148.0,9.0,28.0,-82.0,-946.0,-309.0
-22.0,-248.0,-66.0,-180.0,3.0,24.0,-78.0,-956.0,-331.0
-24.0,-250.0,-82.0,-206.0,-2.0,18.0,-75.0,-965.0,-351.0
-25.0,-248.0,-87.0,-230.0,-9.0,12.0,-65.0,-968.0,-365.0
-24.0,-254.0,-89.0,-245.0,-18.0,8.0,-60.0,-975.0,-380.0
-22.0,-258.0,-87.0,-254.0,-26.0,5.0,-56.0,-983.0,-389.0
-18.0,-255.0,-89.0,-258.0,-36.0,-1.0,-46.0,-984.0,-396.0
-13.0,-256.0,-90.0,-254.0,-44.0,-5.0,-31.0,-985.0,-394.0
-16.0,-257.0,-85.0,-242.0,-51.0,-6.0,-27.0,-990.0,-376.0
-14.0,-259.0,-82.0,-222.0,-54.0,-11.0,-19.0,-996.0,-369.0
-11.0,-259.0,-80.0,-196.0,-52.0,-13.0,-14.0,-992.0,-352.0
-7.0,-257.0,-79.0,-174.0,-48.0,-17.0,-6.0,-993.0,-341.0
-10.0,-256.0,-75.0,-143.0,-39.0,-22.0,3.0,-994.0,-337.0
-3.0,-259.0,-75.0,-117.0,-32.0,-26.0,12.0,-994.0,-333.0
-5.0,-256.0,-78.0,-95.0,-21.0,-28.0,13.0,-995.0,-334.0
-2.0,-258.0,-77.0,-82.0,-9.0,-29.0,20.0,-993.0,-334.0
-3.0,-257.0,-73.0,-72.0,-3.0,-30.0,21.0,-995.0,-340.0
-4.0,-254.0,-76.0,-70.0,-1.0,-30.0,23.0,-995.0,-341.0
-4.0,-258.0,-73.0,-71.0,0.0,-30.0,22.0,-999.0,-348.0
-6.0,-259.0,-76.0,-70.0,-4.0,-31.0,18.0,-1003.0,-332.0
-4.0,-262.0,-71.0,-68.0,-11.0,-33.0,12.0,-1007.0,-323.0
-2.0,-263.0,-70.0,-59.0,-23.0,-34.0,8.0,-1015.0,-308.0
-6.0,-263.0,-69.0,-38.0,-39.0,-34.0,2.0,-1017.0,-306.0
-6.0,-264.0,-64.0,-10.0,-58.0,-32.0,-2.0,-1019.0,-300.0
-8.0,-262.0,-64.0,21.0,-75.0,-32.0,-5.0,-1025.0,-289.0
-10.0,-264.0,-64.0,57.0,-91.0,-31.0,-10.0,-1021.0,-286.0
-11.0,-262.0,-62.0,89.0,-104.0,-29.0,-18.0,-1018.0,-280.0
-13.0,-258.0,-60.0,122.0,-117.0,-29.0,-18.0,-1011.0,-280.0
-13.0,-260.0,-58.0,146.0,-126.0,-28.0,-24.0,-1000.0,-264.0
-14.0,-257.0,-57.0,161.0,-132.0,-27.0,-20.0,-995.0,-261.0
-15.0,-253.0,-58.0,169.0,-133.0,-28.0,-25.0,-990.0,-250.0
-13.0,-253.0,-57.0,169.0,-133.0,-27.0,-23.0,-983.0,-252.0
-14.0,-253.0,-56.0,161.0,-132.0,-30.0,-28.0,-973.0,-248.0
-15.0,-251.0,-54.0,147.0,-129.0,-33.0,-25.0,-965.0,-247.0
-12.0,-249.0,-58.0,124.0,-128.0,-36.0,-26.0,-962.0,-250.0
-12.0,-249.0,-56.0,98.0,-122.0,-39.0,-24.0,-957.0,-246.0
-11.0,-246.0,-62.0,68.0,-116.0,-45.0,-17.0,-963.0,-250.0
-9.0,-250.0,-56.0,38.0,-108.0,-49.0,-7.0,-962.0,-250.0
-9.0,-250.0,-56.0,11.0,-100.0,-53.0,-4.0,-964.0,-246.0
-6.0,-249.0,-58.0,-11.0,-92.0,-60.0,-1.0,-966.0,-252.0
-5.0,-251.0,-57.0,-29.0,-81.0,-63.0,6.0,-966.0,-248.0
-3.0,-248.0,-56.0,-41.0,-71.0,-67.0,15.0,-967.0,-251.0
-3.0,-252.0,-59.0,-52.0,-61.0,-69.0,20.0,-966.0,-250.0
1.0,-251.0,-57.0,-62.0,-55.0,-70.0,24.0,-969.0,-254.0
3.0,-247.0,-47.0,-73.0,-48.0,-68.0,30.0,-964.0,-251.0
5.0,-253.0,-59.0,-82.0,-44.0,-68.0,37.0,-965.0,-256.0
4.0,-252.0,-61.0,-93.0,-44.0,-70.0,44.0,-969.0,-261.0
4.0,-250.0,-62.0,-103.0,-43.0,-67.0,46.0,-967.0,-262.0
5.0,-252.0,-63.0,-113.0,-42.0,-65.0,50.0,-976.0,-272.0
6.0,-253.0,-62.0,-124.0,-45.0,-63.0,51.0,-975.0,-281.0
4.0,-253.0,-66.0,-132.0,-46.0,-63.0,54.0,-973.0,-289.0
4.0,-254.0,-65.0,-140.0,-46.0,-60.0,48.0,-981.0,-297.0
4.0,-257.0,-69.0,-143.0,-44.0,-59.0,46.0,-985.0,-308.0
5.0,-254.0,-71.0,-145.0,-39.0,-57.0,45.0,-985.0,-314.0
4.0,-253.0,-70.0,-143.0,-34.0,-55.0,35.0,-981.0,-317.0
2.0,-257.0,-71.0,-138.0,-32.0,-53.0,32.0,-982.0,-313.0
1.0,-254.0,-71.0,-131.0,-31.0,-52.0,15.0,-981.0,-309.0
-3.0,-253.0,-68.0,-123.0,-29.0,-50.0,16.0,-983.0,-306.0
-4.0,-256.0,-71.0,-118.0,-27.0,-48.0,12.0,-982.0,-306.0
-7.0,-253.0,-68.0,-111.0,-20.0,-47.0,2.0,-979.0,-309.0
-8.0,-253.0,-71.0,-108.0,-12.0,-47.0,-1.0,-970.0,-315.0
-12.0,-250.0,-74.0,-104.0,-3.0,-46.0,-9.0,-970.0,-313.0
-7.0,-251.0,-68.0,-103.0,7.0,-46.0,-8.0,-969.0,-317.0
-8.0,-252.0,-73.0,-101.0,16.0,-46.0,-14.0,-966.0,-323.0
-8.0,-251.0,-73.0,-101.0,24.0,-45.0,-11.0,-965.0,-318.0
-12.0,-251.0,-73.0,-97.0,31.0,-42.0,-16.0,-968.0,-322.0
-12.0,-255.0,-78.0,-92.0,35.0,-41.0,-11.0,-963.0,-315.0
-11.0,-248.0,-69.0,-85.0,39.0,-39.0,-18.0,-962.0,-319.0
-11.0,-249.0,-71.0,-78.0,41.0,-38.0,-12.0,-965.0,-316.0
-10.0,-251.0,-69.0,-69.0,41.0,-37.0,-6.0,-963.0,-318.0
-10.0,-250.0,-69.0,-63.0,38.0,-36.0,-5.0,-965.0,-312.0
-9.0,-252.0,-68.0,-56.0,36.0,-34.0,-8.0,-964.0,-309.0
-8.0,-250.0,-71.0,-51.0,33.0,-34.0,-5.0,-968.0,-312.0
-11.0,-249.0,-71.0,-48.0,31.0,-34.0,-8.0,-964.0,-315.0
-11.0,-253.0,-68.0,-46.0,29.0,-34.0,-6.0,-965.0,-311.0
-9.0,-250.0,-69.0,-46.0,26.0,-31.0,-10.0,-968.0,-314.0
-11.0,-252.0,-68.0,-46.0,20.0,-31.0,-11.0,-975.0,-307.0
-8.0,-254.0,-67.0,-45.0,13.0,-31.0,-12.0,-971.0,-305.0
-9.0,-253.0,-65.0,-44.0,8.0,-31.0,-7.0,-975.0,-306.0
-11.0,-253.0,-69.0,-41.0,4.0,-29.0,-10.0,-975.0,-304.0
-10.0,-253.0,-68.0,-36.0,3.0,-28.0,-12.0,-973.0,-305.0
-10.0,-253.0,-66.0,-30.0,2.0,-26.0,-10.0,-974.0,-301.0
-11.0,-251.0,-66.0,-25.0,1.0,-26.0,-7.0,-977.0,-300.0
-6.0,-252.0,-66.0,-20.0,1.0,-25.0,-7.0,-977.0,-302.0
-12.0,-255.0,-68.0,-14.0,1.0,-23.0,-7.0,-983.0,-305.0
-6.0,-255.0,-67.0,-10.0,4.0,-21.0,-3.0,-983.0,-296.0
-8.0,-255.0,-65.0,-5.0,9.0,-21.0,-8.0,-979.0,-297.0
-8.0,-256.0,-67.0,2.0,13.0,-21.0,-7.0,-983.0,-290.0
-6.0,-264.0,-69.0,11.0,16.0,-24.0,-5.0,-982.0,-290.0
-9.0,-252.0,-65.0,20.0,18.0,-25.0,-5.0,-983.0,-285.0
-10.0,-257.0,-64.0,29.0,20.0,-23.0,-12.0,-981.0,-288.0
-9.0,-253.0,-65.0,37.0,22.0,-22.0,-4.0,-976.0,-288.0
-12.0,-251.0,-64.0,44.0,23.0,-21.0,-12.0,-976.0,-290.0
-8.0,-252.0,-67.0,47.0,24.0,-22.0,-12.0,-974.0,-294.0
-10.0,-250.0,-66.0,47.0,25.0,-19.0,-16.0,-970.0,-294.0
-11.0,-252.0,-66.0,48.0,26.0,-19.0,-16.0,-970.0,-296.0
-11.0,-252.0,-69.0,47.0,27.0,-14.0,-14.0,-966.0,-306.0
-10.0,-253.0,-67.0,43.0,26.0,-13.0,-16.0,-965.0,-300.0
-8.0,-249.0,-74.0,38.0,29.0,-10.0,-11.0,-965.0,-300.0
-10.0,-249.0,-73.0,30.0,31.0,-7.0,-9.0,-967.0,-303.0
-8.0,-249.0,-70.0,20.0,35.0,-4.0,-5.0,-966.0,-310.0
-8.0,-248.0,-71.0,9.0,39.0,-3.0,-10.0,-967.0,-313.0
-7.0,-252.0,-71.0,-1.0,43.0,-2.0,-6.0,-974.0,-310.0
-7.0,-252.0,-69.0,-8.0,45.0,0.0,-4.0,-973.0,-309.0
-11.0,-253.0,-66.0,-11.0,45.0,1.0,-1.0,-977.0,-307.0
-7.0,-256.0,-66.0,-13.0,45.0,1.0,-3.0,-979.0,-310.0
-8.0,-254.0,-69.0,-11.0,46.0,2.0,1.0,-984.0,-309.0
-6.0,-256.0,-67.0,-8.0,47.0,0.0,0.0,-981.0,-304.0
-8.0,-254.0,-67.0,-3.0,49.0,-1.0,-1.0,-988.0,-297.0
-6.0,-255.0,-69.0,3.0,52.0,-3.0,-1.0,-985.0,-295.0
-7.0,-255.0,-69.0,9.0,56.0,-2.0,-2.0,-983.0,-294.0
-8.0,-256.0,-67.0,13.0,57.0,-3.0,0.0,-985.0,-296.0
-9.0,-252.0,-68.0,18.0,61.0,-5.0,-2.0,-984.0,-294.0
-7.0,-255.0,-67.0,18.0,65.0,-6.0,1.0,-986.0,-297.0
-7.0,-253.0,-65.0,16.0,72.0,-7.0,-4.0,-977.0,-301.0
-8.0,-253.0,-66.0,16.0,79.0,-7.0,-3.0,-985.0,-299.0
-11.0,-253.0,-69.0,17.0,88.0,-9.0,-4.0,-973.0,-298.0
-8.0,-252.0,-70.0,20.0,92.0,-7.0,-6.0,-976.0,-297.0
-11.0,-252.0,-68.0,25.0,95.0,-6.0,-13.0,-970.0,-296.0
-10.0,-253.0,-65.0,32.0,96.0,-6.0,-9.0,-971.0,-297.0
-11.0,-252.0,-65.0,38.0,96.0,-5.0,-12.0,-963.0,-297.0
-11.0,-251.0,-66.0,43.0,94.0,-3.0,-13.0,-962.0,-300.0
-10.0,-251.0,-68.0,45.0,92.0,-1.0,-14.0,-960.0,-292.0
-12.0,-246.0,-66.0,44.0,89.0,2.0,-18.0,-960.0,-299.0
-12.0,-245.0,-71.0,41.0,87.0,6.0,-20.0,-956.0,-299.0
-11.0,-248.0,-65.0,34.0,84.0,7.0,-21.0,-959.0,-301.0
-10.0,-247.0,-65.0,28.0,81.0,9.0,-17.0,-958.0,-307.0
-16.0,-248.0,-65.0,24.0,79.0,11.0,-20.0,-963.0,-299.0
-14.0,-251.0,-64.0,20.0,80.0,11.0,-17.0,-962.0,-302.0
-12.0,-249.0,-67.0,17.0,77.0,11.0,-17.0,-963.0,-306.0
-10.0,-251.0,-69.0,16.0,76.0,10.0,-14.0,-963.0,-304.0
-13.0,-250.0,-65.0,15.0,74.0,11.0,-16.0,-971.0,-300.0
-11.0,-249.0,-66.0,15.0,72.0,12.0,-16.0,-965.0,-304.0
-11.0,-252.0,-65.0,15.0,70.0,13.0,-21.0,-973.0,-307.0
-12.0,-251.0,-67.0,14.0,69.0,11.0,-10.0,-974.0,-303.0
-13.0,-254.0,-68.0,11.0,67.0,11.0,-14.0,-977.0,-302.0
-11.0,-252.0,-71.0,11.0,68.0,9.0,-19.0,-977.0,-313.0
-10.0,-252.0,-70.0,12.0,70.0,9.0,-16.0,-981.0,-311.0
-10.0,-252.0,-71.0,12.0,74.0,7.0,-15.0,-982.0,-310.0
-10.0,-255.0,-69.0,11.0,76.0,6.0,-18.0,-976.0,-310.0
-10.0,-254.0,-70.0,12.0,77.0,4.0,-17.0,-983.0,-313.0
-13.0,-255.0,-68.0,14.0,78.0,4.0,-16.0,-983.0,-306.0
-13.0,-254.0,-71.0,17.0,78.0,3.0,-19.0,-977.0,-309.0
-12.0,-254.0,-67.0,21.0,75.0,3.0,-14.0,-980.0,-310.0
-10.0,-256.0,-66.0,24.0,75.0,2.0,-20.0,-975.0,-305.0
-12.0,-254.0,-70.0,25.0,74.0,1.0,-17.0,-980.0,-302.0
-12.0,-253.0,-69.0,26.0,75.0,3.0,-16.0,-970.0,-300.0
-14.0,-254.0,-64.0,28.0,75.0,4.0,-19.0,-974.0,-298.0
-13.0,-250.0,-67.0,28.0,74.0,3.0,-16.0,-972.0,-296.0
-14.0,-254.0,-64.0,27.0,74.0,2.0,-16.0,-974.0,-296.0
-8.0,-254.0,-66.0,24.0,74.0,3.0,-18.0,-975.0,-294.0
-13.0,-251.0,-67.0,22.0,70.0,4.0,-22.0,-978.0,-293.0
-12.0,-254.0,-68.0,23.0,68.0,3.0,-19.0,-975.0,-298.0
-13.0,-254.0,-67.0,24.0,65.0,4.0,-21.0,-972.0,-295.0
-11.0,-254.0,-67.0,25.0,65.0,3.0,-24.0,-970.0,-293.0
-13.0,-255.0,-62.0,28.0,64.0,5.0,-23.0,-978.0,-290.0
-15.0,-252.0,-64.0,29.0,62.0,3.0,-20.0,-980.0,-293.0
-13.0,-253.0,-68.0,29.0,63.0,3.0,-19.0,-981.0,-292.0
-10.0,-254.0,-65.0,31.0,62.0,4.0,-19.0,-975.0,-295.0
-13.0,-250.0,-66.0,29.0,61.0,2.0,-16.0,-968.0,-297.0
-10.0,-251.0,-64.0,26.0,61.0,1.0,-16.0,-971.0,-292.0
-10.0,-252.0,-67.0,26.0,60.0,2.0,-17.0,-974.0,-295.0
-11.0,-250.0,-67.0,26.0,60.0,2.0,-16.0,-974.0,-293.0
-11.0,-251.0,-67.0,23.0,62.0,0.0,-19.0,-971.0,-293.0
-12.0,-251.0,-66.0,23.0,62.0,0.0,-16.0,-966.0,-291.0
-10.0,-250.0,-66.0,23.0,60.0,0.0,-14.0,-972.0,-292.0
-12.0,-253.0,-66.0,22.0,60.0,1.0,-12.0,-977.0,-299.0
-12.0,-253.0,-67.0,22.0,59.0,0.0,-13.0,-972.0,-299.0
-9.0,-253.0,-67.0,21.0,57.0,1.0,-16.0,-974.0,-298.0
-13.0,-254.0,-66.0,20.0,56.0,1.0,-15.0,-971.0,-299.0
-11.0,-253.0,-67.0,20.0,56.0,2.0,-14.0,-970.0,-296.0
-12.0,-251.0,-67.0,21.0,55.0,1.0,-16.0,-977.0,-298.0
-9.0,-253.0,-66.0,22.0,52.0,2.0,-10.0,-973.0,-301.0
-15.0,-253.0,-66.0,25.0,53.0,2.0,-13.0,-970.0,-299.0
-11.0,-253.0,-66.0,24.0,55.0,4.0,-14.0,-977.0,-297.0
-8.0,-250.0,-65.0,22.0,58.0,3.0,-11.0,-970.0,-294.0
-11.0,-256.0,-65.0,21.0,61.0,3.0,-13.0,-976.0,-300.0
-10.0,-252.0,-65.0,19.0,65.0,5.0,-11.0,-971.0,-293.0
-11.0,-251.0,-68.0,17.0,65.0,4.0,-10.0,-977.0,-296.0
-8.0,-251.0,-70.0,16.0,67.0,5.0,-14.0,-974.0,-294.0
-9.0,-251.0,-65.0,16.0,68.0,3.0,-15.0,-977.0,-292.0
-9.0,-252.0,-67.0,15.0,68.0,4.0,-9.0,-979.0,-296.0
-8.0,-252.0,-64.0,16.0,68.0,6.0,-8.0,-973.0,-296.0
-12.0,-255.0,-66.0,16.0,68.0,5.0,-14.0,-974.0,-295.0
-12.0,-252.0,-62.0,17.0,69.0,7.0,-17.0,-975.0,-295.0
-10.0,-252.0,-67.0,19.0,69.0,7.0,-14.0,-971.0,-293.0
-13.0,-253.0,-66.0,18.0,67.0,8.0,-12.0,-973.0,-294.0
-11.0,-249.0,-68.0,18.0,66.0,7.0,-11.0,-970.0,-297.0
-8.0,-253.0,-67.0,17.0,65.0,8.0,-14.0,-972.0,-294.0
-10.0,-253.0,-67.0,16.0,63.0,8.0,-14.0,-971.0,-298.0
-13.0,-255.0,-69.0,15.0,62.0,10.0,-18.0,-977.0,-296.0
-11.0,-253.0,-69.0,14.0,64.0,9.0,-13.0,-973.0,-295.0
-12.0,-254.0,-67.0,16.0,67.0,11.0,-16.0,-974.0,-297.0
-11.0,-253.0,-66.0,17.0,69.0,13.0,-17.0,-977.0,-291.0
-10.0,-252.0,-65.0,20.0,71.0,12.0,-19.0,-977.0,-293.0
-10.0,-254.0,-66.0,21.0,72.0,12.0,-17.0,-978.0,-293.0
-9.0,-253.0,-65.0,23.0,74.0,13.0,-15.0,-976.0,-289.0
-11.0,-254.0,-65.0,24.0,74.0,12.0,-16.0,-973.0,-289.0
-10.0,-253.0,-65.0,23.0,74.0,12.0,-11.0,-977.0,-287.0
-10.0,-253.0,-67.0,24.0,74.0,12.0,-16.0,-981.0,-291.0
-9.0,-256.0,-67.0,23.0,74.0,11.0,-13.0,-979.0,-300.0
-14.0,-250.0,-69.0,21.0,73.0,11.0,-14.0,-979.0,-295.0
-9.0,-254.0,-66.0,20.0,72.0,10.0,-17.0,-977.0,-293.0
-12.0,-254.0,-64.0,20.0,72.0,10.0,-19.0,-974.0,-292.0
-15.0,-253.0,-64.0,23.0,74.0,9.0,-17.0,-971.0,-291.0
-9.0,-251.0,-63.0,25.0,75.0,7.0,-17.0,-971.0,-286.0
-15.0,-252.0,-65.0,29.0,75.0,7.0,-18.0,-974.0,-285.0
-15.0,-252.0,-63.0,33.0,73.0,8.0,-16.0,-972.0,-287.0
-12.0,-252.0,-64.0,35.0,71.0,8.0,-17.0,-973.0,-282.0
-14.0,-251.0,-63.0,35.0,70.0,7.0,-21.0,-974.0,-282.0
-13.0,-253.0,-64.0,35.0,67.0,7.0,-19.0,-971.0,-282.0
-11.0,-251.0,-63.0,31.0,64.0,7.0,-20.0,-968.0,-284.0
-15.0,-251.0,-62.0,26.0,62.0,9.0,-15.0,-969.0,-288.0
-11.0,-253.0,-67.0,23.0,58.0,11.0,-17.0,-973.0,-282.0
-13.0,-252.0,-64.0,17.0,56.0,9.0,-19.0,-973.0,-283.0
-13.0,-253.0,-60.0,14.0,54.0,9.0,-14.0,-973.0,-285.0
-12.0,-250.0,-62.0,11.0,56.0,7.0,-15.0,-974.0,-285.0
-12.0,-254.0,-64.0,10.0,54.0,8.0,-19.0,-979.0,-285.0
-13.0,-250.0,-66.0,10.0,52.0,8.0,-16.0,-974.0,-281.0
-12.0,-251.0,-60.0,9.0,53.0,5.0,-15.0,-980.0,-283.0
-12.0,-254.0,-64.0,9.0,52.0,4.0,-16.0,-976.0,-283.0
-11.0,-253.0,-64.0,10.0,52.0,3.0,-21.0,-978.0,-281.0
-10.0,-257.0,-62.0,9.0,51.0,3.0,-18.0,-976.0,-282.0
-13.0,-252.0,-62.0,7.0,49.0,2.0,-19.0,-978.0,-282.0
-10.0,-251.0,-61.0,7.0,47.0,3.0,-22.0,-983.0,-280.0
-14.0,-250.0,-63.0,5.0,46.0,2.0,-19.0,-976.0,-284.0
-8.0,-255.0,-63.0,4.0,46.0,2.0,-19.0,-978.0,-282.0
-12.0,-253.0,-64.0,4.0,46.0,3.0,-15.0,-976.0,-282.0
-13.0,-251.0,-63.0,6.0,48.0,4.0,-16.0,-974.0,-283.0
-12.0,-252.0,-61.0,7.0,47.0,3.0,-14.0,-976.0,-283.0
-11.0,-254.0,-67.0,10.0,48.0,4.0,-16.0,-981.0,-283.0
-10.0,-250.0,-65.0,9.0,46.0,3.0,-17.0,-972.0,-282.0
-12.0,-253.0,-64.0,7.0,45.0,5.0,-12.0,-971.0,-278.0
-11.0,-253.0,-63.0,6.0,43.0,5.0,-15.0,-976.0,-275.0
-11.0,-253.0,-62.0,3.0,40.0,6.0,-15.0,-979.0,-274.0
-9.0,-253.0,-64.0,4.0,36.0,5.0,-19.0,-985.0,-269.0
-14.0,-255.0,-58.0,3.0,33.0,7.0,-18.0,-988.0,-276.0
-13.0,-256.0,-58.0,5.0,32.0,6.0,-15.0,-987.0,-271.0
-11.0,-257.0,-58.0,7.0,34.0,4.0,-16.0,-984.0,-277.0
-12.0,-254.0,-60.0,11.0,35.0,4.0,-18.0,-993.0,-276.0
-8.0,-260.0,-65.0,15.0,39.0,4.0,-17.0,-985.0,-279.0
-14.0,-255.0,-62.0,19.0,41.0,4.0,-14.0,-992.0,-267.0
-10.0,-257.0,-62.0,21.0,43.0,2.0,-18.0,-993.0,-273.0
-15.0,-256.0,-57.0,23.0,45.0,3.0,-18.0,-994.0,-272.0
-10.0,-256.0,-62.0,25.0,46.0,2.0,-15.0,-991.0,-267.0
-15.0,-255.0,-59.0,27.0,46.0,1.0,-11.0,-986.0,-269.0
-10.0,-256.0,-63.0,30.0,45.0,0.0,-17.0,-995.0,-272.0
-10.0,-256.0,-64.0,32.0,45.0,-2.0,-18.0,-993.0,-264.0
-12.0,-256.0,-60.0,32.0,45.0,-2.0,-18.0,-988.0,-265.0
-12.0,-256.0,-59.0,32.0,45.0,-3.0,-14.0,-989.0,-266.0
-14.0,-255.0,-64.0,32.0,44.0,-4.0,-8.0,-984.0,-266.0
-12.0,-256.0,-59.0,32.0,46.0,-5.0,-12.0,-983.0,-268.0
-9.0,-256.0,-61.0,32.0,47.0,-5.0,-12.0,-979.0,-266.0
-8.0,-255.0,-62.0,35.0,49.0,-5.0,-16.0,-984.0,-270.0
-10.0,-253.0,-62.0,37.0,50.0,-5.0,-7.0,-983.0,-275.0
-10.0,-255.0,-61.0,39.0,50.0,-3.0,-12.0,-983.0,-274.0
-11.0,-252.0,-61.0,38.0,51.0,-3.0,-7.0,-983.0,-264.0
-9.0,-252.0,-63.0,36.0,51.0,-1.0,-11.0,-981.0,-273.0
-9.0,-254.0,-60.0,36.0,52.0,1.0,-6.0,-979.0,-262.0
-8.0,-252.0,-55.0,35.0,50.0,-1.0,-11.0,-977.0,-253.0
-9.0,-252.0,-59.0,35.0,51.0,1.0,-12.0,-979.0,-258.0
-10.0,-253.0,-58.0,34.0,52.0,1.0,-14.0,-983.0,-255.0
-13.0,-256.0,-61.0,32.0,56.0,3.0,-4.0,-985.0,-258.0
-11.0,-254.0,-60.0,29.0,60.0,4.0,-13.0,-980.0,-256.0
-8.0,-253.0,-58.0,25.0,63.0,5.0,-14.0,-984.0,-263.0
-9.0,-255.0,-58.0,22.0,70.0,6.0,-10.0,-981.0,-263.0
-10.0,-256.0,-56.0,21.0,74.0,7.0,-15.0,-984.0,-258.0
-12.0,-253.0,-59.0,21.0,80.0,7.0,-14.0,-981.0,-257.0
-13.0,-251.0,-60.0,22.0,82.0,8.0,-14.0,-981.0,-257.0
-9.0,-253.0,-56.0,23.0,84.0,8.0,-15.0,-985.0,-256.0
-12.0,-255.0,-59.0,24.0,82.0,8.0,-14.0,-982.0,-254.0
-11.0,-254.0,-61.0,24.0,81.0,9.0,-18.0,-983.0,-252.0
-12.0,-256.0,-54.0,22.0,79.0,10.0,-17.0,-985.0,-255.0
-10.0,-252.0,-56.0,20.0,79.0,8.0,-18.0,-980.0,-256.0
-14.0,-252.0,-58.0,15.0,80.0,9.0,-12.0,-980.0,-256.0
-12.0,-252.0,-59.0,9.0,82.0,9.0,-18.0,-983.0,-257.0
-14.0,-253.0,-59.0,2.0,85.0,9.0,-20.0,-982.0,-258.0
-12.0,-253.0,-61.0,-4.0,86.0,9.0,-17.0,-981.0,-258.0
-14.0,-254.0,-61.0,-8.0,87.0,7.0,-18.0,-978.0,-257.0
-13.0,-252.0,-55.0,-13.0,89.0,8.0,-25.0,-984.0,-257.0
-12.0,-250.0,-62.0,-17.0,90.0,7.0,-20.0,-982.0,-263.0
-14.0,-255.0,-61.0,-17.0,92.0,8.0,-20.0,-985.0,-257.0
-15.0,-254.0,-59.0,-15.0,91.0,7.0,-23.0,-981.0,-264.0
-12.0,-255.0,-57.0,-14.0,92.0,8.0,-23.0,-982.0,-261.0
-15.0,-251.0,-62.0,-11.0,93.0,7.0,-21.0,-978.0,-258.0
-13.0,-254.0,-55.0,-10.0,95.0,8.0,-25.0,-976.0,-256.0
-13.0,-253.0,-63.0,-11.0,96.0,9.0,-18.0,-972.0,-259.0
-12.0,-254.0,-57.0,-12.0,95.0,12.0,-20.0,-975.0,-257.0
-15.0,-253.0,-58.0,-13.0,94.0,12.0,-20.0,-978.0,-258.0
-12.0,-254.0,-58.0,-15.0,93.0,13.0,-17.0,-977.0,-254.0
-12.0,-253.0,-61.0,-16.0,89.0,15.0,-18.0,-979.0,-255.0
-11.0,-255.0,-61.0,-19.0,88.0,14.0,-19.0,-982.0,-254.0
-12.0,-256.0,-59.0,-20.0,86.0,15.0,-19.0,-984.0,-256.0
-13.0,-256.0,-55.0,-18.0,83.0,14.0,-19.0,-986.0,-256.0
-14.0,-255.0,-57.0,-15.0,79.0,13.0,-22.0,-992.0,-253.0
-13.0,-257.0,-58.0,-13.0,77.0,12.0,-18.0,-992.0,-250.0
-13.0,-255.0,-60.0,-11.0,73.0,11.0,-17.0,-992.0,-255.0
-14.0,-257.0,-54.0,-12.0,71.0,10.0,-18.0,-998.0,-257.0
-13.0,-257.0,-58.0,-10.0,68.0,8.0,-16.0,-999.0,-257.0
-15.0,-256.0,-58.0,-9.0,67.0,9.0,-21.0,-997.0,-261.0
-12.0,-256.0,-59.0,-6.0,65.0,8.0,-24.0,-996.0,-260.0
-15.0,-256.0,-63.0,-3.0,66.0,9.0,-23.0,-991.0,-263.0
-15.0,-257.0,-62.0,0.0,68.0,8.0,-24.0,-994.0,-265.0
-15.0,-257.0,-56.0,1.0,69.0,6.0,-26.0,-996.0,-264.0
-16.0,-254.0,-60.0,4.0,71.0,4.0,-19.0,-995.0,-260.0
-14.0,-255.0,-61.0,7.0,73.0,6.0,-26.0,-993.0,-271.0
-19.0,-255.0,-70.0,10.0,73.0,5.0,-30.0,-993.0,-262.0
-12.0,-255.0,-59.0,13.0,72.0,4.0,-31.0,-986.0,-272.0
-14.0,-255.0,-61.0,18.0,68.0,3.0,-25.0,-984.0,-251.0
-16.0,-255.0,-56.0,24.0,65.0,3.0,-24.0,-983.0,-256.0
-13.0,-255.0,-57.0,27.0,61.0,2.0,-26.0,-987.0,-255.0
-16.0,-251.0,-57.0,29.0,58.0,2.0,-23.0,-979.0,-253.0
-14.0,-253.0,-59.0,27.0,58.0,1.0,-27.0,-983.0,-255.0
-12.0,-254.0,-56.0,24.0,58.0,1.0,-27.0,-984.0,-254.0
-14.0,-254.0,-57.0,20.0,59.0,1.0,-17.0,-978.0,-255.0
-15.0,-253.0,-57.0,16.0,60.0,-2.0,-22.0,-982.0,-257.0
-12.0,-253.0,-57.0,11.0,62.0,-1.0,-20.0,-983.0,-258.0
-12.0,-255.0,-57.0,6.0,64.0,-1.0,-22.0,-983.0,-263.0
-13.0,-255.0,-58.0,1.0,63.0,1.0,-21.0,-989.0,-255.0
-15.0,-252.0,-57.0,-3.0,62.0,0.0,-22.0,-984.0,-257.0
-13.0,-254.0,-57.0,-6.0,59.0,-2.0,-23.0,-989.0,-259.0
-10.0,-256.0,-62.0,-13.0,56.0,-1.0,-24.0,-989.0,-258.0
-10.0,-256.0,-60.0,-15.0,53.0,-1.0,-26.0,-987.0,-255.0
-10.0,-256.0,-58.0,-16.0,55.0,-2.0,-25.0,-991.0,-264.0
-14.0,-255.0,-57.0,-16.0,55.0,-2.0,-23.0,-985.0,-256.0
-12.0,-257.0,-60.0,-13.0,57.0,-3.0,-21.0,-993.0,-256.0
-14.0,-256.0,-61.0,-14.0,60.0,-3.0,-19.0,-986.0,-254.0
-14.0,-255.0,-53.0,-13.0,63.0,-3.0,-26.0,-989.0,-258.0
-15.0,-254.0,-55.0,-10.0,63.0,-3.0,-24.0,-989.0,-251.0
-13.0,-255.0,-56.0,-9.0,65.0,-4.0,-21.0,-991.0,-251.0
-13.0,-255.0,-63.0,-8.0,63.0,-4.0,-28.0,-990.0,-249.0
-14.0,-258.0,-57.0,-6.0,59.0,-5.0,-25.0,-984.0,-253.0
-17.0,-255.0,-57.0,-6.0,56.0,-5.0,-24.0,-992.0,-255.0
-14.0,-255.0,-58.0,-6.0,52.0,-5.0,-29.0,-985.0,-256.0
-15.0,-255.0,-58.0,-7.0,48.0,-5.0,-26.0,-985.0,-257.0
-17.0,-256.0,-57.0,-7.0,46.0,-4.0,-25.0,-987.0,-256.0
-16.0,-255.0,-53.0,-7.0,47.0,-4.0,-24.0,-988.0,-253.0
-14.0,-255.0,-58.0,-6.0,47.0,-4.0,-24.0,-983.0,-256.0
-14.0,-255.0,-58.0,-4.0,48.0,-3.0,-21.0,-983.0,-257.0
-14.0,-256.0,-55.0,-4.0,50.0,-1.0,-24.0,-981.0,-253.0
-14.0,-254.0,-58.0,-3.0,51.0,-3.0,-19.0,-985.0,-251.0
-14.0,-256.0,-61.0,-2.0,50.0,-3.0,-21.0,-985.0,-250.0
-12.0,-257.0,-57.0,-3.0,50.0,-4.0,-20.0,-988.0,-252.0
-12.0,-255.0,-56.0,-5.0,50.0,-4.0,-23.0,-983.0,-254.0
-13.0,-255.0,-61.0,-8.0,48.0,-3.0,-22.0,-984.0,-261.0
-14.0,-252.0,-61.0,-10.0,46.0,-5.0,-21.0,-984.0,-258.0
-12.0,-255.0,-60.0,-14.0,46.0,-5.0,-23.0,-980.0,-260.0
-15.0,-256.0,-61.0,-18.0,46.0,-3.0,-17.0,-984.0,-260.0
-12.0,-253.0,-57.0,-21.0,46.0,-4.0,-23.0,-983.0,-263.0
-7.0,-253.0,-54.0,-25.0,48.0,-6.0,-22.0,-989.0,-259.0
-13.0,-256.0,-59.0,-26.0,49.0,-5.0,-20.0,-986.0,-259.0
-15.0,-255.0,-60.0,-26.0,51.0,-4.0,-22.0,-988.0,-263.0
-15.0,-254.0,-61.0,-26.0,51.0,-4.0,-23.0,-985.0,-259.0
-13.0,-256.0,-58.0,-24.0,52.0,-5.0,-25.0,-986.0,-262.0
-12.0,-253.0,-60.0,-20.0,52.0,-5.0,-29.0,-986.0,-257.0
-12.0,-257.0,-60.0,-15.0,53.0,-5.0,-27.0,-991.0,-263.0
-19.0,-254.0,-59.0,-13.0,55.0,-5.0,-22.0,-988.0,-258.0
-15.0,-253.0,-59.0,-11.0,57.0,-6.0,-29.0,-987.0,-257.0
-13.0,-256.0,-60.0,-9.0,59.0,-6.0,-23.0,-987.0,-254.0
-14.0,-253.0,-55.0,-8.0,58.0,-6.0,-25.0,-987.0,-255.0
-15.0,-256.0,-59.0,-8.0,59.0,-5.0,-22.0,-981.0,-253.0
-15.0,-253.0,-59.0,-7.0,57.0,-5.0,-25.0,-982.0,-255.0
-14.0,-255.0,-56.0,-8.0,57.0,-5.0,-26.0,-990.0,-254.0
-13.0,-256.0,-54.0,-9.0,58.0,-4.0,-28.0,-990.0,-257.0
-16.0,-255.0,-58.0,-10.0,57.0,-4.0,-26.0,-986.0,-256.0
-15.0,-256.0,-56.0,-10.0,56.0,-5.0,-24.0,-989.0,-255.0
-14.0,-257.0,-57.0,-10.0,55.0,-4.0,-30.0,-988.0,-254.0
-13.0,-254.0,-54.0,-8.0,53.0,-4.0,-24.0,-985.0,-252.0
-13.0,-255.0,-60.0,-7.0,52.0,-4.0,-24.0,-988.0,-254.0
-13.0,-254.0,-58.0,-6.0,52.0,-2.0,-22.0,-981.0,-253.0
-15.0,-254.0,-57.0,-7.0,53.0,-1.0,-20.0,-988.0,-255.0
-13.0,-260.0,-59.0,-9.0,53.0,-1.0,-26.0,-985.0,-257.0
-14.0,-253.0,-60.0,-11.0,55.0,-1.0,-20.0,-990.0,-253.0
-16.0,-252.0,-59.0,-14.0,55.0,0.0,-23.0,-986.0,-254.0
-13.0,-255.0,-58.0,-15.0,55.0,-1.0,-21.0,-987.0,-257.0
-15.0,-254.0,-58.0,-16.0,56.0,-1.0,-18.0,-985.0,-249.0
-13.0,-255.0,-54.0,-19.0,56.0,-1.0,-21.0,-984.0,-250.0
-15.0,-256.0,-56.0,-18.0,54.0,-2.0,-21.0,-986.0,-255.0
-11.0,-257.0,-58.0,-19.0,54.0,-1.0,-20.0,-980.0,-253.0
-14.0,-256.0,-61.0,-20.0,52.0,-1.0,-21.0,-982.0,-254.0
-12.0,-256.0,-62.0,-20.0,54.0,-1.0,-25.0,-978.0,-255.0
-13.0,-255.0,-56.0,-20.0,56.0,0.0,-22.0,-980.0,-256.0
-13.0,-252.0,-62.0,-20.0,57.0,0.0,-21.0,-978.0,-256.0
-14.0,-253.0,-56.0,-20.0,60.0,1.0,-24.0,-981.0,-254.0
-13.0,-253.0,-56.0,-21.0,61.0,1.0,-21.0,-979.0,-258.0
-12.0,-255.0,-59.0,-19.0,61.0,2.0,-19.0,-977.0,-253.0
-11.0,-253.0,-56.0,-19.0,62.0,1.0,-22.0,-976.0,-257.0
-13.0,-254.0,-61.0,-22.0,62.0,2.0,-24.0,-980.0,-250.0
-12.0,-254.0,-58.0,-25.0,64.0,1.0,-23.0,-981.0,-250.0
-13.0,-253.0,-55.0,-28.0,66.0,0.0,-21.0,-979.0,-253.0
-13.0,-257.0,-56.0,-32.0,66.0,0.0,-23.0,-983.0,-256.0
-13.0,-255.0,-58.0,-36.0,68.0,0.0,-25.0,-982.0,-258.0
-12.0,-255.0,-58.0,-37.0,70.0,0.0,-26.0,-981.0,-257.0
-16.0,-253.0,-61.0,-39.0,68.0,-2.0,-21.0,-988.0,-264.0
-16.0,-253.0,-59.0,-38.0,71.0,-2.0,-26.0,-984.0,-267.0
-14.0,-254.0,-61.0,-40.0,70.0,-3.0,-26.0,-986.0,-263.0
-14.0,-253.0,-62.0,-36.0,67.0,-3.0,-26.0,-980.0,-266.0
-15.0,-254.0,-63.0,-33.0,66.0,-4.0,-27.0,-985.0,-260.0
-16.0,-254.0,-61.0,-31.0,64.0,-1.0,-26.0,-982.0,-257.0
-15.0,-251.0,-57.0,-27.0,63.0,-1.0,-26.0,-986.0,-256.0
-15.0,-255.0,-59.0,-24.0,64.0,-3.0,-26.0,-987.0,-252.0
-10.0,-255.0,-58.0,-21.0,61.0,-2.0,-31.0,-982.0,-253.0
-13.0,-254.0,-60.0,-19.0,60.0,-1.0,-21.0,-984.0,-258.0
-13.0,-255.0,-57.0,-16.0,57.0,1.0,-26.0,-984.0,-260.0
-14.0,-256.0,-58.0,-15.0,55.0,1.0,-18.0,-985.0,-263.0
-13.0,-253.0,-59.0,-16.0,53.0,1.0,-22.0,-989.0,-273.0
-13.0,-255.0,-63.0,-19.0,54.0,1.0,-22.0,-989.0,-272.0
-13.0,-256.0,-64.0,-22.0,56.0,1.0,-21.0,-981.0,-279.0
-15.0,-255.0,-64.0,-25.0,59.0,1.0,-21.0,-986.0,-279.0
-15.0,-255.0,-63.0,-29.0,62.0,-1.0,-22.0,-985.0,-276.0
-13.0,-255.0,-64.0,-30.0,64.0,0.0,-24.0,-979.0,-273.0
-12.0,-255.0,-61.0,-32.0,66.0,-1.0,-24.0,-982.0,-266.0
-12.0,-255.0,-60.0,-30.0,68.0,0.0,-21.0,-988.0,-268.0
-15.0,-254.0,-60.0,-27.0,70.0,0.0,-24.0,-986.0,-265.0
-14.0,-255.0,-60.0,-26.0,72.0,0.0,-18.0,-983.0,-261.0
-14.0,-256.0,-61.0,-27.0,72.0,-1.0,-24.0,-985.0,-268.0
-13.0,-255.0,-62.0,-27.0,69.0,-2.0,-22.0,-992.0,-263.0
-11.0,-255.0,-60.0,-28.0,66.0,-2.0,-27.0,-985.0,-260.0
-15.0,-255.0,-57.0,-29.0,66.0,-3.0,-24.0,-988.0,-258.0
-13.0,-257.0,-61.0,-26.0,63.0,-2.0,-22.0,-989.0,-265.0
-15.0,-257.0,-61.0,-27.0,61.0,-2.0,-24.0,-988.0,-258.0
-16.0,-254.0,-61.0,-26.0,59.0,-2.0,-26.0,-986.0,-257.0
-16.0,-254.0,-58.0,-24.0,58.0,-2.0,-25.0,-989.0,-258.0
-13.0,-253.0,-56.0,-23.0,58.0,-1.0,-27.0,-988.0,-256.0
-14.0,-255.0,-60.0,-20.0,57.0,-2.0,-26.0,-983.0,-263.0
-12.0,-255.0,-61.0,-20.0,58.0,-4.0,-27.0,-983.0,-263.0
-17.0,-254.0,-60.0,-20.0,60.0,-5.0,-29.0,-985.0,-264.0
-13.0,-254.0,-58.0,-18.0,60.0,-4.0,-23.0,-983.0,-260.0
-14.0,-253.0,-63.0,-18.0,62.0,-3.0,-25.0,-985.0,-268.0
-13.0,-255.0,-62.0,-17.0,61.0,-5.0,-26.0,-979.0,-276.0
-14.0,-256.0,-61.0,-20.0,61.0,-5.0,-26.0,-980.0,-272.0
-14.0,-252.0,-60.0,-21.0,61.0,-4.0,-24.0,-976.0,-270.0
-16.0,-252.0,-62.0,-22.0,60.0,-4.0,-24.0,-981.0,-267.0
-13.0,-252.0,-60.0,-21.0,60.0,-4.0,-23.0,-982.0,-268.0
-13.0,-254.0,-58.0,-22.0,61.0,-4.0,-29.0,-982.0,-270.0
-14.0,-255.0,-63.0,-24.0,62.0,-4.0,-27.0,-977.0,-270.0
-16.0,-251.0,-61.0,-27.0,62.0,-3.0,-26.0,-978.0,-268.0
-17.0,-253.0,-66.0,-27.0,61.0,-3.0,-25.0,-984.0,-272.0
-11.0,-254.0,-63.0,-28.0,61.0,-2.0,-24.0,-978.0,-271.0
-13.0,-251.0,-60.0,-29.0,60.0,-1.0,-20.0,-979.0,-273.0
-16.0,-253.0,-59.0,-28.0,58.0,-1.0,-22.0,-978.0,-257.0
-12.0,-254.0,-58.0,-26.0,57.0,1.0,-23.0,-977.0,-267.0
-13.0,-251.0,-60.0,-25.0,57.0,0.0,-20.0,-984.0,-257.0
-16.0,-251.0,-60.0,-24.0,56.0,-1.0,-19.0,-982.0,-260.0
-10.0,-255.0,-61.0,-24.0,57.0,1.0,-22.0,-981.0,-259.0
-14.0,-252.0,-60.0,-26.0,57.0,-2.0,-22.0,-982.0,-261.0
-12.0,-256.0,-59.0,-27.0,60.0,-2.0,-20.0,-982.0,-262.0
-16.0,-253.0,-61.0,-29.0,60.0,-1.0,-23.0,-983.0,-257.0
-11.0,-254.0,-58.0,-29.0,60.0,-4.0,-25.0,-988.0,-259.0
-15.0,-256.0,-62.0,-29.0,62.0,-5.0,-19.0,-992.0,-260.0
-14.0,-254.0,-57.0,-31.0,64.0,-5.0,-30.0,-985.0,-266.0
-13.0,-254.0,-62.0,-30.0,65.0,-6.0,-27.0,-976.0,-260.0
-18.0,-255.0,-63.0,-30.0,66.0,-6.0,-24.0,-982.0,-266.0
-13.0,-255.0,-63.0,-31.0,66.0,-7.0,-27.0,-984.0,-273.0
-16.0,-253.0,-61.0,-31.0,65.0,-8.0,-24.0,-982.0,-274.0
-12.0,-259.0,-62.0,-31.0,66.0,-6.0,-27.0,-982.0,-277.0
-13.0,-256.0,-62.0,-32.0,66.0,-7.0,-25.0,-983.0,-275.0
-12.0,-256.0,-62.0,-31.0,64.0,-5.0,-24.0,-979.0,-279.0
-16.0,-254.0,-60.0,-30.0,62.0,-3.0,-25.0,-985.0,-274.0
-18.0,-252.0,-62.0,-30.0,62.0,-3.0,-27.0,-983.0,-277.0
-12.0,-254.0,-63.0,-29.0,62.0,-2.0,-24.0,-986.0,-274.0
-13.0,-253.0,-62.0,-27.0,64.0,-2.0,-23.0,-984.0,-266.0
-14.0,-252.0,-60.0,-27.0,66.0,-1.0,-21.0,-983.0,-268.0
-12.0,-253.0,-63.0,-26.0,66.0,-1.0,-21.0,-979.0,-268.0
-14.0,-252.0,-61.0,-25.0,68.0,-2.0,-24.0,-980.0,-269.0
-14.0,-252.0,-62.0,-25.0,69.0,-1.0,-24.0,-975.0,-267.0
-13.0,-253.0,-59.0,-25.0,70.0,-2.0,-25.0,-980.0,-267.0
-13.0,-253.0,-60.0,-25.0,68.0,-3.0,-22.0,-983.0,-271.0
-12.0,-255.0,-60.0,-25.0,70.0,-3.0,-25.0,-981.0,-263.0
-13.0,-256.0,-59.0,-24.0,69.0,-5.0,-24.0,-981.0,-265.0
-12.0,-255.0,-59.0,-24.0,68.0,-5.0,-20.0,-980.0,-265.0
-15.0,-254.0,-59.0,-24.0,68.0,-5.0,-26.0,-985.0,-266.0
-15.0,-256.0,-60.0,-25.0,68.0,-4.0,-24.0,-988.0,-260.0
-14.0,-256.0,-63.0,-23.0,67.0,-6.0,-23.0,-983.0,-262.0
-15.0,-255.0,-62.0,-23.0,68.0,-6.0,-24.0,-985.0,-270.0
-11.0,-255.0,-60.0,-24.0,69.0,-6.0,-25.0,-981.0,-260.0
-13.0,-255.0,-56.0,-23.0,72.0,-6.0,-25.0,-984.0,-268.0
-12.0,-255.0,-61.0,-23.0,73.0,-5.0,-25.0,-978.0,-266.0
-15.0,-254.0,-59.0,-24.0,75.0,-5.0,-21.0,-984.0,-270.0
-10.0,-254.0,-66.0,-24.0,73.0,-5.0,-23.0,-981.0,-269.0
-16.0,-255.0,-62.0,-23.0,74.0,-3.0,-23.0,-988.0,-268.0
-13.0,-254.0,-64.0,-21.0,76.0,-3.0,-26.0,-980.0,-268.0
-14.0,-255.0,-61.0,-21.0,76.0,-3.0,-22.0,-979.0,-274.0
-15.0,-252.0,-59.0,-20.0,75.0,-3.0,-23.0,-983.0,-271.0
-15.0,-253.0,-63.0,-18.0,75.0,-5.0,-23.0,-986.0,-270.0
-14.0,-256.0,-61.0,-18.0,75.0,-2.0,-29.0,-985.0,-271.0
-13.0,-254.0,-61.0,-17.0,74.0,-1.0,-29.0,-983.0,-269.0
-15.0,-256.0,-62.0,-17.0,73.0,-2.0,-23.0,-979.0,-261.0
-15.0,-254.0,-64.0,-16.0,72.0,-1.0,-28.0,-982.0,-275.0
-14.0,-252.0,-61.0,-14.0,74.0,-3.0,-26.0,-980.0,-269.0
-14.0,-256.0,-63.0,-15.0,76.0,-2.0,-28.0,-983.0,-264.0
-14.0,-251.0,-58.0,-14.0,76.0,-1.0,-20.0,-985.0,-270.0
-16.0,-256.0,-63.0,-14.0,78.0,-3.0,-24.0,-977.0,-262.0
-13.0,-255.0,-60.0,-13.0,79.0,-2.0,-24.0,-982.0,-267.0
-13.0,-254.0,-60.0,-11.0,79.0,0.0,-29.0,-982.0,-262.0
-17.0,-253.0,-60.0,-11.0,79.0,-2.0,-30.0,-981.0,-267.0
-15.0,-253.0,-57.0,-11.0,79.0,-2.0,-22.0,-979.0,-261.0
-17.0,-253.0,-57.0,-11.0,79.0,-1.0,-28.0,-981.0,-269.0
-14.0,-251.0,-61.0,-12.0,79.0,-2.0,-26.0,-982.0,-264.0
-14.0,-251.0,-60.0,-13.0,78.0,-2.0,-24.0,-982.0,-270.0
-16.0,-256.0,-59.0,-13.0,77.0,-1.0,-25.0,-982.0,-271.0
-12.0,-254.0,-60.0,-14.0,75.0,-2.0,-28.0,-984.0,-269.0
-12.0,-253.0,-62.0,-12.0,74.0,-1.0,-33.0,-984.0,-267.0
-15.0,-255.0,-63.0,-11.0,75.0,-2.0,-31.0,-975.0,-266.0
-13.0,-253.0,-59.0,-13.0,75.0,-1.0,-27.0,-981.0,-265.0
-13.0,-255.0,-60.0,-12.0,76.0,1.0,-29.0,-982.0,-265.0
-15.0,-255.0,-57.0,-11.0,78.0,1.0,-28.0,-983.0,-263.0
-15.0,-255.0,-60.0,-8.0,78.0,0.0,-28.0,-982.0,-266.0
-14.0,-253.0,-61.0,-7.0,78.0,0.0,-25.0,-982.0,-263.0
-14.0,-254.0,-62.0,-7.0,77.0,1.0,-23.0,-989.0,-268.0
-18.0,-253.0,-61.0,-7.0,80.0,1.0,-28.0,-982.0,-260.0
-14.0,-256.0,-63.0,-7.0,80.0,2.0,-24.0,-977.0,-268.0
-13.0,-256.0,-59.0,-7.0,79.0,1.0,-29.0,-987.0,-265.0
-13.0,-255.0,-61.0,-8.0,79.0,0.0,-26.0,-983.0,-260.0
-14.0,-256.0,-55.0,-7.0,78.0,1.0,-25.0,-985.0,-259.0
-14.0,-253.0,-60.0,-5.0,77.0,0.0,-23.0,-983.0,-260.0
-13.0,-256.0,-62.0,-4.0,77.0,1.0,-23.0,-988.0,-257.0
-14.0,-253.0,-62.0,-3.0,77.0,1.0,-21.0,-983.0,-268.0
-14.0,-255.0,-60.0,-1.0,77.0,0.0,-22.0,-982.0,-264.0
-16.0,-254.0,-60.0,-3.0,79.0,0.0,-21.0,-983.0,-258.0
-16.0,-255.0,-62.0,-4.0,79.0,1.0,-28.0,-988.0,-263.0
-13.0,-255.0,-61.0,-5.0,78.0,1.0,-23.0,-981.0,-265.0
-11.0,-255.0,-62.0,-7.0,78.0,1.0,-24.0,-985.0,-259.0
-15.0,-253.0,-60.0,-9.0,77.0,-1.0,-25.0,-982.0,-262.0
-12.0,-252.0,-60.0,-11.0,76.0,0.0,-26.0,-980.0,-263.0
-14.0,-254.0,-61.0,-11.0,75.0,-1.0,-24.0,-985.0,-273.0
-15.0,-255.0,-57.0,-11.0,74.0,-2.0,-29.0,-982.0,-269.0
-13.0,-256.0,-60.0,-12.0,73.0,-1.0,-22.0,-979.0,-271.0
-14.0,-256.0,-62.0,-10.0,72.0,-1.0,-20.0,-985.0,-264.0
-13.0,-252.0,-59.0,-8.0,72.0,1.0,-24.0,-980.0,-262.0
-14.0,-256.0,-61.0,-7.0,73.0,1.0,-24.0,-982.0,-257.0
-15.0,-252.0,-61.0,-9.0,71.0,2.0,-20.0,-983.0,-265.0
-13.0,-253.0,-60.0,-9.0,72.0,1.0,-21.0,-979.0,-268.0
-11.0,-254.0,-62.0,-10.0,74.0,-1.0,-22.0,-981.0,-268.0
-13.0,-253.0,-60.0,-10.0,74.0,-1.0,-20.0,-981.0,-263.0
-12.0,-252.0,-59.0,-12.0,74.0,0.0,-20.0,-983.0,-266.0
-14.0,-253.0,-61.0,-13.0,74.0,0.0,-25.0,-979.0,-271.0
-12.0,-254.0,-59.0,-13.0,75.0,-1.0,-19.0,-977.0,-269.0
-14.0,-254.0,-62.0,-12.0,75.0,-1.0,-18.0,-988.0,-275.0
-14.0,-255.0,-57.0,-13.0,76.0,0.0,-21.0,-982.0,-268.0
-14.0,-255.0,-60.0,-13.0,75.0,1.0,-22.0,-980.0,-258.0
-13.0,-253.0,-62.0,-12.0,74.0,-2.0,-27.0,-986.0,-264.0
-11.0,-255.0,-61.0,-13.0,74.0,-2.0,-21.0,-985.0,-268.0
-13.0,-255.0,-62.0,-12.0,72.0,-2.0,-28.0,-980.0,-270.0
-14.0,-250.0,-63.0,-14.0,74.0,-2.0,-26.0,-982.0,-269.0
-15.0,-255.0,-64.0,-14.0,73.0,-4.0,-21.0,-988.0,-269.0
-13.0,-257.0,-59.0,-15.0,73.0,-3.0,-25.0,-981.0,-276.0
-17.0,-252.0,-63.0,-13.0,73.0,-4.0,-23.0,-985.0,-275.0
-14.0,-254.0,-62.0,-13.0,75.0,-4.0,-29.0,-980.0,-270.0
-13.0,-254.0,-63.0,-9.0,75.0,-4.0,-27.0,-985.0,-275.0
-13.0,-255.0,-60.0,-7.0,75.0,-3.0,-29.0,-978.0,-278.0
-13.0,-253.0,-61.0,-5.0,74.0,-4.0,-29.0,-984.0,-275.0
-14.0,-255.0,-61.0,-3.0,74.0,-4.0,-30.0,-982.0,-274.0
-13.0,-256.0,-62.0,-1.0,74.0,-5.0,-23.0,-981.0,-273.0
-13.0,-254.0,-62.0,1.0,73.0,-4.0,-26.0,-980.0,-282.0
-17.0,-253.0,-64.0,2.0,71.0,-4.0,-22.0,-981.0,-277.0
-12.0,-252.0,-61.0,2.0,72.0,-2.0,-16.0,-980.0,-278.0
-15.0,-252.0,-62.0,3.0,71.0,-2.0,-19.0,-980.0,-282.0
-12.0,-253.0,-63.0,2.0,71.0,-2.0,-24.0,-980.0,-278.0
-15.0,-251.0,-63.0,2.0,70.0,-2.0,-23.0,-981.0,-277.0
-13.0,-253.0,-63.0,3.0,71.0,-2.0,-20.0,-979.0,-277.0
-13.0,-252.0,-61.0,3.0,72.0,-2.0,-18.0,-979.0,-268.0
-14.0,-254.0,-59.0,3.0,70.0,-3.0,-18.0,-978.0,-269.0
-14.0,-253.0,-55.0,4.0,69.0,-1.0,-22.0,-981.0,-265.0
-13.0,-253.0,-61.0,2.0,71.0,-2.0,-18.0,-981.0,-259.0
-14.0,-257.0,-57.0,1.0,72.0,-2.0,-23.0,-982.0,-260.0
-14.0,-254.0,-56.0,-1.0,74.0,-3.0,-21.0,-983.0,-265.0
-16.0,-254.0,-61.0,-4.0,75.0,-2.0,-23.0,-983.0,-257.0
-16.0,-255.0,-60.0,-7.0,76.0,-4.0,-22.0,-989.0,-265.0
-13.0,-253.0,-57.0,-8.0,76.0,-3.0,-24.0,-989.0,-263.0
-15.0,-256.0,-61.0,-10.0,76.0,-5.0,-25.0,-985.0,-258.0
-17.0,-254.0,-61.0,-12.0,76.0,-6.0,-25.0,-986.0,-257.0
-14.0,-255.0,-58.0,-10.0,75.0,-6.0,-23.0,-986.0,-262.0
-15.0,-256.0,-63.0,-8.0,74.0,-8.0,-28.0,-985.0,-260.0
-15.0,-255.0,-58.0,-6.0,75.0,-7.0,-24.0,-984.0,-267.0
-15.0,-256.0,-61.0,-4.0,75.0,-7.0,-26.0,-989.0,-272.0
-15.0,-254.0,-63.0,-4.0,76.0,-6.0,-19.0,-981.0,-273.0
-13.0,-255.0,-63.0,-5.0,76.0,-7.0,-25.0,-984.0,-273.0
-11.0,-254.0,-62.0,-5.0,78.0,-5.0,-27.0,-982.0,-273.0
-13.0,-256.0,-62.0,-6.0,78.0,-5.0,-29.0,-986.0,-270.0
-13.0,-256.0,-61.0,-7.0,80.0,-5.0,-24.0,-980.0,-271.0
-15.0,-255.0,-58.0,-8.0,81.0,-3.0,-25.0,-980.0,-268.0
-14.0,-254.0,-62.0,-10.0,80.0,-2.0,-19.0,-983.0,-271.0
-12.0,-255.0,-63.0,-10.0,77.0,-2.0,-22.0,-982.0,-277.0
-13.0,-252.0,-63.0,-11.0,75.0,-2.0,-19.0,-980.0,-270.0
-12.0,-253.0,-62.0,-13.0,73.0,-2.0,-19.0,-978.0,-275.0
-13.0,-255.0,-63.0,-14.0,71.0,-2.0,-23.0,-976.0,-274.0
-10.0,-254.0,-60.0,-13.0,71.0,-1.0,-19.0,-981.0,-275.0
-11.0,-253.0,-62.0,-14.0,72.0,0.0,-16.0,-979.0,-271.0
-11.0,-257.0,-60.0,-13.0,71.0,0.0,-20.0,-981.0,-269.0
-17.0,-253.0,-63.0,-13.0,70.0,0.0,-23.0,-976.0,-262.0
-11.0,-256.0,-59.0,-11.0,70.0,-1.0,-24.0,-977.0,-267.0
-12.0,-255.0,-58.0,-10.0,69.0,-1.0,-19.0,-979.0,-267.0
-13.0,-255.0,-57.0,-9.0,70.0,0.0,-25.0,-978.0,-266.0
-14.0,-252.0,-59.0,-8.0,70.0,-3.0,-22.0,-984.0,-268.0
-14.0,-255.0,-60.0,-11.0,70.0,-3.0,-25.0,-982.0,-269.0
-15.0,-254.0,-60.0,-11.0,70.0,-2.0,-24.0,-978.0,-259.0
-11.0,-253.0,-60.0,-13.0,71.0,-3.0,-25.0,-980.0,-266.0
-17.0,-255.0,-59.0,-15.0,74.0,-3.0,-26.0,-988.0,-265.0
-18.0,-256.0,-60.0,-16.0,75.0,-3.0,-29.0,-978.0,-269.0
-16.0,-254.0,-60.0,-16.0,75.0,-4.0,-28.0,-983.0,-262.0
-14.0,-253.0,-57.0,-16.0,77.0,-5.0,-23.0,-983.0,-269.0
-16.0,-255.0,-59.0,-15.0,77.0,-5.0,-31.0,-982.0,-263.0
-15.0,-253.0,-61.0,-14.0,76.0,-4.0,-23.0,-983.0,-268.0
-13.0,-254.0,-64.0,-14.0,76.0,-5.0,-26.0,-981.0,-262.0
-18.0,-253.0,-61.0,-14.0,77.0,-6.0,-26.0,-981.0,-268.0
-13.0,-254.0,-62.0,-14.0,76.0,-6.0,-18.0,-981.0,-262.0
-14.0,-255.0,-59.0,-17.0,75.0,-5.0,-25.0,-982.0,-262.0
-13.0,-255.0,-61.0,-17.0,75.0,-5.0,-22.0,-986.0,-265.0
-14.0,-255.0,-61.0,-19.0,73.0,-5.0,-25.0,-982.0,-273.0
-17.0,-254.0,-63.0,-21.0,71.0,-5.0,-21.0,-978.0,-266.0
-15.0,-250.0,-61.0,-22.0,71.0,-6.0,-19.0,-988.0,-269.0
-12.0,-252.0,-64.0,-23.0,69.0,-4.0,-22.0,-985.0,-260.0
-14.0,-254.0,-59.0,-21.0,68.0,-5.0,-23.0,-977.0,-263.0
-14.0,-254.0,-56.0,-20.0,67.0,-5.0,-23.0,-982.0,-262.0
-11.0,-253.0,-60.0,-17.0,65.0,-4.0,-25.0,-980.0,-267.0
-15.0,-255.0,-59.0,-16.0,64.0,-4.0,-21.0,-984.0,-269.0
-14.0,-253.0,-61.0,-17.0,66.0,-5.0,-25.0,-980.0,-266.0
-14.0,-255.0,-60.0,-17.0,66.0,-4.0,-27.0,-977.0,-267.0
-17.0,-252.0,-61.0,-18.0,67.0,-5.0,-21.0,-980.0,-266.0
-14.0,-256.0,-62.0,-19.0,67.0,-4.0,-22.0,-979.0,-269.0
-11.0,-254.0,-61.0,-18.0,69.0,-3.0,-23.0,-980.0,-271.0
-12.0,-254.0,-60.0,-20.0,68.0,-3.0,-27.0,-978.0,-272.0
-14.0,-254.0,-65.0,-20.0,70.0,-4.0,-26.0,-978.0,-275.0
-15.0,-254.0,-58.0,-21.0,71.0,-2.0,-26.0,-980.0,-267.0
-13.0,-252.0,-60.0,-22.0,71.0,-2.0,-22.0,-980.0,-269.0
-11.0,-255.0,-61.0,-24.0,70.0,-2.0,-22.0,-982.0,-268.0
-12.0,-256.0,-58.0,-23.0,69.0,-3.0,-23.0,-982.0,-275.0
-14.0,-256.0,-60.0,-22.0,69.0,-2.0,-21.0,-980.0,-268.0
-14.0,-255.0,-62.0,-22.0,70.0,-1.0,-23.0,-992.0,-275.0
-12.0,-256.0,-63.0,-21.0,70.0,-2.0,-24.0,-983.0,-272.0
-11.0,-255.0,-62.0,-21.0,69.0,-1.0,-24.0,-982.0,-271.0
-15.0,-255.0,-60.0,-22.0,70.0,-2.0,-26.0,-991.0,-268.0
-13.0,-256.0,-64.0,-20.0,69.0,-2.0,-25.0,-989.0,-271.0
-14.0,-256.0,-62.0,-19.0,70.0,-3.0,-24.0,-982.0,-268.0
-13.0,-256.0,-60.0,-18.0,71.0,-4.0,-23.0,-985.0,-277.0
-14.0,-255.0,-62.0,-16.0,72.0,-5.0,-24.0,-988.0,-273.0
-14.0,-256.0,-60.0,-14.0,72.0,-4.0,-24.0,-981.0,-268.0
-13.0,-254.0,-60.0,-14.0,73.0,-4.0,-26.0,-985.0,-265.0
