acc1_x,acc1_y,acc1_z,gyro_x,gyro_y,gyro_z,acc2_x,acc2_y,acc2_z
4.0,-251.0,-66.0,-13.0,61.0,-7.0,32.0,-974.0,-294.0
4.0,-254.0,-65.0,-14.0,64.0,-5.0,32.0,-974.0,-292.0
1.0,-253.0,-69.0,-17.0,65.0,-5.0,32.0,-973.0,-290.0
4.0,-253.0,-65.0,-18.0,68.0,-5.0,30.0,-973.0,-293.0
1.0,-253.0,-65.0,-17.0,69.0,-5.0,34.0,-972.0,-289.0
3.0,-252.0,-59.0,-17.0,69.0,-4.0,30.0,-974.0,-288.0
3.0,-250.0,-66.0,-15.0,70.0,-4.0,34.0,-974.0,-288.0
-1.0,-256.0,-70.0,-14.0,71.0,-4.0,36.0,-973.0,-288.0
4.0,-250.0,-64.0,-13.0,71.0,-3.0,31.0,-972.0,-285.0
1.0,-247.0,-61.0,-11.0,71.0,-5.0,31.0,-973.0,-291.0
-2.0,-251.0,-62.0,-12.0,68.0,-6.0,28.0,-975.0,-288.0
2.0,-250.0,-74.0,-14.0,66.0,-6.0,31.0,-972.0,-294.0
0.0,-254.0,-65.0,-17.0,65.0,-6.0,32.0,-969.0,-292.0
-3.0,-248.0,-62.0,-18.0,64.0,-8.0,29.0,-972.0,-289.0
3.0,-239.0,-61.0,-20.0,63.0,-7.0,29.0,-972.0,-288.0
7.0,-257.0,-70.0,-23.0,64.0,-7.0,31.0,-969.0,-287.0
2.0,-248.0,-62.0,-22.0,64.0,-8.0,31.0,-974.0,-291.0
1.0,-250.0,-64.0,-22.0,64.0,-8.0,30.0,-973.0,-287.0
2.0,-253.0,-65.0,-23.0,66.0,-7.0,32.0,-977.0,-278.0
4.0,-252.0,-63.0,-25.0,65.0,-9.0,32.0,-976.0,-290.0
-1.0,-254.0,-62.0,-26.0,66.0,-9.0,32.0,-979.0,-287.0
0.0,-253.0,-68.0,-26.0,66.0,-7.0,27.0,-976.0,-288.0
3.0,-253.0,-66.0,-28.0,68.0,-9.0,31.0,-985.0,-291.0
-2.0,-254.0,-64.0,-28.0,66.0,-8.0,33.0,-980.0,-291.0
2.0,-255.0,-65.0,-28.0,66.0,-7.0,26.0,-983.0,-293.0
1.0,-252.0,-59.0,-28.0,65.0,-7.0,29.0,-981.0,-290.0
-1.0,-254.0,-67.0,-26.0,63.0,-6.0,31.0,-980.0,-292.0
0.0,-250.0,-61.0,-23.0,63.0,-6.0,36.0,-981.0,-296.0
2.0,-255.0,-66.0,-18.0,64.0,-5.0,32.0,-982.0,-292.0
-2.0,-252.0,-62.0,-16.0,65.0,-4.0,33.0,-983.0,-291.0
2.0,-254.0,-54.0,-12.0,65.0,-3.0,28.0,-981.0,-290.0
3.0,-255.0,-66.0,-12.0,66.0,-3.0,33.0,-983.0,-289.0
16.0,-255.0,-55.0,-12.0,64.0,-2.0,33.0,-973.0,-291.0
4.0,-268.0,-64.0,-12.0,63.0,-2.0,32.0,-971.0,-291.0
4.0,-241.0,-68.0,-14.0,65.0,-1.0,30.0,-980.0,-292.0
3.0,-252.0,-54.0,-16.0,63.0,-1.0,33.0,-974.0,-289.0
0.0,-249.0,-64.0,-18.0,60.0,-2.0,35.0,-971.0,-288.0
0.0,-253.0,-66.0,-18.0,57.0,-3.0,32.0,-969.0,-291.0
-1.0,-249.0,-65.0,-20.0,56.0,-4.0,31.0,-976.0,-288.0
2.0,-251.0,-65.0,-20.0,57.0,-3.0,28.0,-973.0,-290.0
7.0,-251.0,-76.0,-23.0,56.0,-4.0,31.0,-980.0,-286.0
-5.0,-247.0,-54.0,-24.0,57.0,-4.0,29.0,-972.0,-292.0
-4.0,-250.0,-54.0,-24.0,58.0,-4.0,28.0,-977.0,-291.0
6.0,-251.0,-64.0,-25.0,61.0,-5.0,27.0,-973.0,-293.0
-3.0,-252.0,-72.0,-25.0,60.0,-5.0,33.0,-974.0,-293.0
-10.0,-257.0,-58.0,-26.0,62.0,-6.0,30.0,-975.0,-291.0
2.0,-251.0,-66.0,-26.0,64.0,-6.0,29.0,-978.0,-301.0
0.0,-254.0,-66.0,-26.0,66.0,-6.0,33.0,-970.0,-297.0
2.0,-253.0,-67.0,-30.0,66.0,-6.0,32.0,-974.0,-295.0
2.0,-254.0,-66.0,-29.0,67.0,-6.0,28.0,-979.0,-297.0
2.0,-253.0,-64.0,-31.0,68.0,-7.0,34.0,-976.0,-296.0
2.0,-255.0,-64.0,-31.0,67.0,-8.0,29.0,-979.0,-288.0
0.0,-252.0,-64.0,-30.0,66.0,-6.0,34.0,-976.0,-290.0
2.0,-251.0,-64.0,-28.0,66.0,-8.0,33.0,-975.0,-295.0
-6.0,-253.0,-57.0,-26.0,65.0,-8.0,34.0,-979.0,-293.0
1.0,-252.0,-66.0,-25.0,63.0,-8.0,34.0,-977.0,-294.0
-2.0,-255.0,-64.0,-25.0,62.0,-8.0,30.0,-976.0,-293.0
2.0,-255.0,-66.0,-23.0,63.0,-8.0,34.0,-976.0,-292.0
4.0,-255.0,-67.0,-23.0,64.0,-9.0,31.0,-983.0,-301.0
2.0,-248.0,-62.0,-22.0,65.0,-6.0,36.0,-977.0,-302.0
2.0,-254.0,-66.0,-20.0,65.0,-6.0,30.0,-982.0,-301.0
0.0,-253.0,-69.0,-20.0,67.0,-5.0,32.0,-981.0,-300.0
3.0,-255.0,-67.0,-19.0,68.0,-6.0,36.0,-982.0,-292.0
2.0,-254.0,-65.0,-17.0,69.0,-5.0,31.0,-981.0,-296.0
0.0,-253.0,-69.0,-17.0,68.0,-5.0,28.0,-979.0,-295.0
1.0,-256.0,-68.0,-15.0,68.0,-6.0,31.0,-976.0,-295.0
3.0,-253.0,-65.0,-14.0,69.0,-6.0,34.0,-976.0,-296.0
-1.0,-252.0,-68.0,-13.0,71.0,-5.0,33.0,-973.0,-294.0
2.0,-254.0,-64.0,-12.0,72.0,-4.0,31.0,-980.0,-299.0
2.0,-254.0,-62.0,-10.0,73.0,-4.0,29.0,-973.0,-294.0
1.0,-251.0,-66.0,-9.0,73.0,-4.0,29.0,-972.0,-298.0
3.0,-254.0,-69.0,-8.0,73.0,-5.0,32.0,-975.0,-297.0
2.0,-252.0,-69.0,-8.0,73.0,-6.0,34.0,-971.0,-300.0
3.0,-253.0,-68.0,-8.0,73.0,-5.0,32.0,-971.0,-306.0
4.0,-251.0,-66.0,-9.0,73.0,-5.0,32.0,-964.0,-294.0
0.0,-251.0,-65.0,-9.0,74.0,-4.0,32.0,-968.0,-298.0
2.0,-251.0,-64.0,-11.0,73.0,-4.0,32.0,-973.0,-299.0
-3.0,-253.0,-62.0,-13.0,72.0,-4.0,31.0,-971.0,-296.0
4.0,-251.0,-65.0,-14.0,71.0,-5.0,33.0,-973.0,-291.0
-1.0,-250.0,-65.0,-15.0,72.0,-4.0,34.0,-966.0,-292.0
-2.0,-251.0,-66.0,-16.0,71.0,-4.0,31.0,-972.0,-289.0
1.0,-254.0,-65.0,-16.0,71.0,-3.0,32.0,-973.0,-290.0
0.0,-252.0,-65.0,-15.0,71.0,-3.0,33.0,-974.0,-291.0
2.0,-252.0,-65.0,-15.0,70.0,-4.0,31.0,-973.0,-291.0
4.0,-253.0,-67.0,-16.0,69.0,-3.0,25.0,-978.0,-298.0
2.0,-253.0,-65.0,-17.0,68.0,-4.0,29.0,-980.0,-296.0
0.0,-253.0,-65.0,-19.0,70.0,-2.0,30.0,-979.0,-296.0
2.0,-254.0,-66.0,-20.0,70.0,-3.0,32.0,-975.0,-290.0
1.0,-252.0,-65.0,-22.0,72.0,-2.0,32.0,-978.0,-292.0
1.0,-256.0,-63.0,-21.0,73.0,-3.0,32.0,-983.0,-291.0
3.0,-255.0,-67.0,-20.0,73.0,-3.0,30.0,-981.0,-291.0
2.0,-256.0,-63.0,-19.0,74.0,-3.0,31.0,-980.0,-298.0
1.0,-252.0,-65.0,-18.0,73.0,-3.0,31.0,-979.0,-297.0
2.0,-255.0,-68.0,-16.0,75.0,-4.0,33.0,-980.0,-293.0
4.0,-254.0,-64.0,-15.0,75.0,-3.0,32.0,-976.0,-291.0
0.0,-253.0,-67.0,-11.0,75.0,-2.0,36.0,-977.0,-294.0
3.0,-254.0,-68.0,-11.0,75.0,-4.0,32.0,-978.0,-295.0
2.0,-252.0,-66.0,-9.0,76.0,-4.0,31.0,-978.0,-296.0
2.0,-252.0,-67.0,-8.0,75.0,0.0,33.0,-974.0,-294.0
2.0,-256.0,-65.0,-5.0,74.0,-1.0,31.0,-974.0,-295.0
0.0,-251.0,-66.0,-3.0,73.0,-1.0,37.0,-976.0,-295.0
1.0,-254.0,-67.0,-4.0,74.0,-2.0,31.0,-971.0,-300.0
3.0,-253.0,-65.0,-4.0,74.0,0.0,36.0,-969.0,-298.0
3.0,-253.0,-66.0,-3.0,74.0,-1.0,35.0,-971.0,-294.0
4.0,-251.0,-67.0,-5.0,75.0,-1.0,33.0,-974.0,-297.0
2.0,-253.0,-66.0,-5.0,75.0,-1.0,30.0,-968.0,-297.0
1.0,-254.0,-68.0,-5.0,74.0,0.0,34.0,-972.0,-296.0
3.0,-253.0,-66.0,-6.0,77.0,0.0,33.0,-966.0,-298.0
-1.0,-252.0,-67.0,-9.0,77.0,1.0,33.0,-970.0,-300.0
4.0,-255.0,-67.0,-12.0,78.0,0.0,30.0,-969.0,-301.0
2.0,-253.0,-67.0,-13.0,77.0,-1.0,30.0,-972.0,-296.0
0.0,-252.0,-67.0,-14.0,76.0,-2.0,35.0,-974.0,-297.0
1.0,-254.0,-69.0,-15.0,76.0,-1.0,31.0,-974.0,-294.0
1.0,-254.0,-65.0,-18.0,77.0,-1.0,31.0,-973.0,-297.0
0.0,-251.0,-64.0,-18.0,77.0,-3.0,30.0,-975.0,-293.0
-3.0,-251.0,-64.0,-18.0,76.0,-3.0,33.0,-973.0,-294.0
-1.0,-251.0,-64.0,-16.0,75.0,-4.0,31.0,-977.0,-296.0
0.0,-252.0,-66.0,-15.0,74.0,-4.0,29.0,-974.0,-296.0
1.0,-253.0,-63.0,-13.0,76.0,-5.0,34.0,-975.0,-295.0
0.0,-252.0,-66.0,-12.0,75.0,-6.0,27.0,-977.0,-297.0
3.0,-251.0,-67.0,-11.0,74.0,-5.0,34.0,-975.0,-296.0
4.0,-256.0,-65.0,-9.0,74.0,-5.0,31.0,-977.0,-293.0
2.0,-254.0,-64.0,-7.0,75.0,-4.0,31.0,-974.0,-292.0
2.0,-251.0,-65.0,-7.0,74.0,-5.0,29.0,-972.0,-292.0
-2.0,-252.0,-66.0,-7.0,73.0,-5.0,26.0,-974.0,-291.0
-3.0,-252.0,-65.0,-8.0,73.0,-5.0,27.0,-970.0,-298.0
2.0,-254.0,-66.0,-9.0,73.0,-5.0,32.0,-973.0,-295.0
1.0,-253.0,-65.0,-9.0,74.0,-3.0,36.0,-974.0,-296.0
1.0,-251.0,-65.0,-8.0,75.0,-5.0,31.0,-974.0,-298.0
3.0,-255.0,-69.0,-7.0,73.0,-5.0,31.0,-975.0,-301.0
1.0,-251.0,-67.0,-7.0,73.0,-4.0,29.0,-973.0,-295.0
1.0,-252.0,-64.0,-7.0,73.0,-3.0,34.0,-974.0,-295.0
1.0,-252.0,-68.0,-7.0,72.0,-3.0,34.0,-969.0,-298.0
2.0,-250.0,-72.0,-6.0,71.0,-3.0,34.0,-972.0,-298.0
1.0,-250.0,-65.0,-6.0,69.0,-2.0,35.0,-966.0,-298.0
2.0,-254.0,-65.0,-6.0,70.0,-3.0,37.0,-971.0,-298.0
4.0,-250.0,-65.0,-6.0,69.0,-2.0,30.0,-971.0,-298.0
0.0,-254.0,-68.0,-7.0,69.0,-2.0,36.0,-964.0,-297.0
3.0,-253.0,-65.0,-7.0,71.0,-1.0,37.0,-972.0,-303.0
2.0,-250.0,-66.0,-8.0,72.0,0.0,35.0,-970.0,-297.0
2.0,-250.0,-64.0,-8.0,73.0,-1.0,36.0,-969.0,-294.0
3.0,-253.0,-63.0,-10.0,74.0,-1.0,36.0,-972.0,-295.0
2.0,-254.0,-66.0,-9.0,73.0,-1.0,37.0,-976.0,-292.0
0.0,-252.0,-64.0,-11.0,73.0,-1.0,36.0,-972.0,-295.0
3.0,-254.0,-65.0,-11.0,71.0,-1.0,34.0,-979.0,-294.0
4.0,-251.0,-66.0,-11.0,72.0,0.0,34.0,-980.0,-293.0
1.0,-254.0,-63.0,-9.0,71.0,-1.0,40.0,-974.0,-297.0
4.0,-252.0,-64.0,-9.0,73.0,-1.0,33.0,-973.0,-288.0
0.0,-252.0,-67.0,-9.0,72.0,-1.0,33.0,-974.0,-293.0
4.0,-254.0,-65.0,-6.0,73.0,-1.0,35.0,-974.0,-289.0
2.0,-251.0,-65.0,-5.0,72.0,-1.0,33.0,-973.0,-292.0
2.0,-253.0,-66.0,-6.0,74.0,-1.0,35.0,-977.0,-287.0
4.0,-255.0,-65.0,-5.0,75.0,-1.0,36.0,-976.0,-292.0
4.0,-251.0,-66.0,-7.0,75.0,-2.0,35.0,-976.0,-293.0
1.0,-254.0,-66.0,-7.0,75.0,-2.0,36.0,-976.0,-289.0
3.0,-255.0,-64.0,-9.0,76.0,-3.0,36.0,-981.0,-292.0
2.0,-255.0,-64.0,-9.0,76.0,0.0,35.0,-975.0,-292.0
4.0,-253.0,-64.0,-10.0,77.0,1.0,29.0,-977.0,-294.0
3.0,-253.0,-66.0,-8.0,77.0,-1.0,36.0,-975.0,-290.0
3.0,-255.0,-63.0,-8.0,77.0,-1.0,36.0,-978.0,-295.0
1.0,-253.0,-67.0,-7.0,78.0,0.0,37.0,-975.0,-296.0
3.0,-250.0,-66.0,-5.0,77.0,0.0,32.0,-975.0,-292.0
3.0,-253.0,-67.0,-5.0,78.0,-1.0,36.0,-974.0,-291.0
3.0,-252.0,-64.0,-5.0,78.0,-2.0,38.0,-970.0,-292.0
-1.0,-251.0,-67.0,-4.0,77.0,0.0,35.0,-974.0,-294.0
4.0,-253.0,-68.0,-3.0,76.0,0.0,32.0,-977.0,-296.0
4.0,-250.0,-68.0,-2.0,76.0,0.0,35.0,-972.0,-294.0
1.0,-253.0,-66.0,-2.0,75.0,0.0,34.0,-972.0,-294.0
4.0,-251.0,-68.0,-1.0,75.0,-2.0,35.0,-968.0,-289.0
3.0,-252.0,-68.0,-2.0,75.0,0.0,35.0,-975.0,-294.0
-1.0,-253.0,-67.0,-3.0,75.0,1.0,36.0,-980.0,-290.0
2.0,-256.0,-62.0,-4.0,77.0,0.0,33.0,-979.0,-286.0
1.0,-254.0,-64.0,-4.0,76.0,-2.0,31.0,-975.0,-287.0
1.0,-251.0,-64.0,-5.0,76.0,-2.0,34.0,-976.0,-291.0
2.0,-256.0,-66.0,-7.0,75.0,-2.0,35.0,-978.0,-293.0
4.0,-255.0,-66.0,-6.0,74.0,-2.0,34.0,-977.0,-290.0
4.0,-255.0,-64.0,-7.0,73.0,-1.0,34.0,-978.0,-289.0
1.0,-254.0,-62.0,-5.0,73.0,-1.0,32.0,-978.0,-292.0
3.0,-253.0,-66.0,-3.0,72.0,-2.0,33.0,-981.0,-292.0
-2.0,-249.0,-63.0,-2.0,72.0,-3.0,32.0,-973.0,-290.0
4.0,-253.0,-64.0,1.0,71.0,-3.0,34.0,-974.0,-288.0
-1.0,-252.0,-67.0,2.0,70.0,-1.0,32.0,-971.0,-294.0
0.0,-251.0,-66.0,1.0,72.0,-1.0,30.0,-967.0,-291.0
0.0,-253.0,-68.0,0.0,71.0,-3.0,34.0,-974.0,-286.0
3.0,-254.0,-63.0,0.0,70.0,-2.0,31.0,-975.0,-295.0
3.0,-255.0,-67.0,-3.0,71.0,-1.0,33.0,-975.0,-290.0
1.0,-253.0,-66.0,-3.0,71.0,-3.0,33.0,-969.0,-291.0
3.0,-255.0,-67.0,-2.0,69.0,-2.0,37.0,-973.0,-292.0
1.0,-252.0,-66.0,-3.0,70.0,-3.0,35.0,-977.0,-291.0
4.0,-252.0,-66.0,-2.0,71.0,-1.0,30.0,-972.0,-292.0
4.0,-254.0,-66.0,-3.0,70.0,-1.0,30.0,-969.0,-293.0
4.0,-253.0,-69.0,-3.0,70.0,-2.0,33.0,-975.0,-291.0
3.0,-252.0,-67.0,-5.0,70.0,-3.0,37.0,-974.0,-288.0
1.0,-252.0,-64.0,-5.0,69.0,-3.0,34.0,-968.0,-294.0
3.0,-256.0,-66.0,-5.0,69.0,-3.0,35.0,-973.0,-287.0
-1.0,-250.0,-64.0,-3.0,69.0,-3.0,33.0,-972.0,-290.0
2.0,-253.0,-68.0,-3.0,69.0,-2.0,33.0,-975.0,-289.0
1.0,-254.0,-63.0,-3.0,69.0,-2.0,35.0,-973.0,-296.0
0.0,-253.0,-65.0,-4.0,71.0,-3.0,35.0,-974.0,-293.0
-2.0,-251.0,-67.0,-5.0,73.0,-3.0,34.0,-976.0,-294.0
4.0,-254.0,-64.0,-7.0,72.0,-4.0,33.0,-974.0,-293.0
4.0,-249.0,-64.0,-9.0,72.0,-2.0,28.0,-972.0,-292.0
4.0,-255.0,-67.0,-8.0,70.0,-3.0,30.0,-976.0,-289.0
-1.0,-254.0,-67.0,-7.0,71.0,-4.0,32.0,-972.0,-288.0
4.0,-253.0,-64.0,-8.0,69.0,-4.0,35.0,-973.0,-291.0
2.0,-252.0,-65.0,-8.0,68.0,-4.0,35.0,-977.0,-292.0
2.0,-252.0,-66.0,-8.0,66.0,-3.0,31.0,-982.0,-289.0
2.0,-252.0,-64.0,-6.0,67.0,-3.0,35.0,-978.0,-287.0
3.0,-252.0,-65.0,-6.0,66.0,-2.0,34.0,-977.0,-291.0
5.0,-254.0,-63.0,-5.0,65.0,-4.0,34.0,-975.0,-293.0
4.0,-253.0,-62.0,-3.0,65.0,-1.0,34.0,-978.0,-287.0
3.0,-253.0,-65.0,-1.0,65.0,-3.0,36.0,-978.0,-287.0
3.0,-253.0,-67.0,1.0,64.0,-3.0,34.0,-974.0,-289.0
0.0,-250.0,-65.0,1.0,66.0,-3.0,34.0,-976.0,-289.0
3.0,-254.0,-67.0,1.0,68.0,-3.0,36.0,-975.0,-290.0
0.0,-253.0,-64.0,-2.0,70.0,-3.0,35.0,-976.0,-291.0
1.0,-251.0,-64.0,-3.0,68.0,-5.0,34.0,-978.0,-291.0
4.0,-254.0,-66.0,-3.0,69.0,-4.0,31.0,-979.0,-295.0
2.0,-251.0,-65.0,-5.0,69.0,-3.0,32.0,-975.0,-292.0
0.0,-255.0,-64.0,-6.0,69.0,-3.0,32.0,-972.0,-291.0
2.0,-254.0,-67.0,-6.0,68.0,-3.0,36.0,-970.0,-288.0
4.0,-253.0,-66.0,-5.0,68.0,-4.0,36.0,-977.0,-287.0
0.0,-254.0,-64.0,-3.0,68.0,-4.0,35.0,-971.0,-285.0
1.0,-252.0,-64.0,0.0,68.0,-4.0,34.0,-977.0,-287.0
4.0,-253.0,-65.0,2.0,69.0,-4.0,38.0,-975.0,-290.0
4.0,-254.0,-66.0,3.0,69.0,-4.0,35.0,-972.0,-287.0
4.0,-252.0,-65.0,2.0,69.0,-4.0,38.0,-978.0,-288.0
4.0,-253.0,-66.0,2.0,68.0,-5.0,35.0,-972.0,-287.0
3.0,-255.0,-65.0,2.0,69.0,-3.0,33.0,-971.0,-289.0
1.0,-254.0,-65.0,0.0,70.0,-5.0,35.0,-976.0,-291.0
1.0,-253.0,-64.0,-3.0,71.0,-3.0,35.0,-973.0,-292.0
-1.0,-255.0,-63.0,-6.0,70.0,-4.0,32.0,-982.0,-289.0
1.0,-252.0,-66.0,-7.0,70.0,-4.0,34.0,-975.0,-287.0
-1.0,-254.0,-64.0,-9.0,72.0,-4.0,28.0,-976.0,-289.0
3.0,-252.0,-65.0,-9.0,73.0,-4.0,34.0,-981.0,-293.0
2.0,-253.0,-65.0,-8.0,73.0,-3.0,31.0,-976.0,-290.0
3.0,-253.0,-67.0,-8.0,74.0,-3.0,36.0,-976.0,-290.0
2.0,-253.0,-68.0,-5.0,75.0,-3.0,37.0,-975.0,-284.0
2.0,-255.0,-67.0,-5.0,74.0,-3.0,36.0,-975.0,-287.0
4.0,-253.0,-62.0,-6.0,74.0,-3.0,31.0,-973.0,-290.0
0.0,-251.0,-67.0,-5.0,75.0,-3.0,32.0,-976.0,-287.0
1.0,-250.0,-63.0,-6.0,76.0,-2.0,37.0,-978.0,-286.0
2.0,-253.0,-65.0,-6.0,77.0,-4.0,33.0,-972.0,-284.0
1.0,-252.0,-66.0,-8.0,75.0,-3.0,33.0,-974.0,-288.0
-1.0,-254.0,-68.0,-10.0,75.0,-5.0,36.0,-977.0,-287.0
-1.0,-252.0,-62.0,-11.0,74.0,-4.0,34.0,-969.0,-288.0
0.0,-254.0,-65.0,-10.0,72.0,-3.0,31.0,-968.0,-282.0
0.0,-252.0,-65.0,-10.0,69.0,-3.0,33.0,-970.0,-284.0
2.0,-253.0,-64.0,-8.0,68.0,-4.0,31.0,-970.0,-290.0
1.0,-255.0,-63.0,-8.0,67.0,-4.0,33.0,-975.0,-290.0
2.0,-254.0,-67.0,-9.0,66.0,-4.0,33.0,-979.0,-296.0
2.0,-251.0,-64.0,-9.0,65.0,-3.0,32.0,-973.0,-290.0
2.0,-251.0,-64.0,-9.0,65.0,-3.0,31.0,-979.0,-291.0
1.0,-252.0,-67.0,-10.0,66.0,-3.0,35.0,-974.0,-289.0
1.0,-252.0,-65.0,-11.0,67.0,-1.0,36.0,-971.0,-291.0
4.0,-254.0,-65.0,-12.0,68.0,0.0,29.0,-974.0,-284.0
0.0,-254.0,-63.0,-11.0,69.0,1.0,34.0,-974.0,-291.0
0.0,-251.0,-64.0,-10.0,69.0,2.0,31.0,-984.0,-279.0
2.0,-255.0,-64.0,-10.0,69.0,0.0,30.0,-979.0,-285.0
3.0,-254.0,-64.0,-10.0,70.0,-1.0,32.0,-984.0,-289.0
0.0,-252.0,-64.0,-10.0,71.0,-1.0,35.0,-979.0,-285.0
4.0,-254.0,-62.0,-10.0,71.0,-1.0,32.0,-984.0,-284.0
4.0,-255.0,-64.0,-10.0,73.0,-1.0,31.0,-983.0,-287.0
2.0,-256.0,-62.0,-10.0,74.0,-2.0,31.0,-985.0,-287.0
3.0,-254.0,-63.0,-9.0,74.0,-2.0,36.0,-981.0,-286.0
1.0,-254.0,-63.0,-9.0,74.0,-3.0,31.0,-981.0,-294.0
-4.0,-252.0,-63.0,-7.0,74.0,-5.0,33.0,-979.0,-290.0
2.0,-253.0,-65.0,-7.0,72.0,-5.0,30.0,-979.0,-286.0
3.0,-255.0,-66.0,-4.0,75.0,-5.0,31.0,-982.0,-288.0
4.0,-253.0,-64.0,-5.0,72.0,-4.0,29.0,-981.0,-285.0
1.0,-254.0,-65.0,-5.0,72.0,-6.0,30.0,-981.0,-286.0
4.0,-252.0,-64.0,-4.0,73.0,-5.0,31.0,-976.0,-288.0
0.0,-254.0,-65.0,-4.0,73.0,-4.0,31.0,-975.0,-288.0
2.0,-251.0,-66.0,-4.0,72.0,-5.0,30.0,-979.0,-287.0
2.0,-253.0,-64.0,-3.0,68.0,-3.0,33.0,-978.0,-284.0
4.0,-254.0,-64.0,-2.0,67.0,-5.0,29.0,-979.0,-284.0
1.0,-253.0,-65.0,-4.0,66.0,-4.0,26.0,-973.0,-286.0
2.0,-255.0,-64.0,-3.0,64.0,-5.0,32.0,-977.0,-287.0
-1.0,-252.0,-64.0,-4.0,63.0,-4.0,30.0,-980.0,-282.0
3.0,-253.0,-61.0,-4.0,63.0,-3.0,32.0,-976.0,-285.0
3.0,-256.0,-62.0,-2.0,63.0,-3.0,34.0,-967.0,-284.0
1.0,-252.0,-63.0,-1.0,62.0,-3.0,36.0,-971.0,-281.0
4.0,-251.0,-65.0,-1.0,63.0,-1.0,31.0,-973.0,-283.0
2.0,-252.0,-67.0,-1.0,63.0,-2.0,34.0,-973.0,-286.0
1.0,-254.0,-67.0,-4.0,62.0,-2.0,29.0,-973.0,-287.0
2.0,-255.0,-65.0,-6.0,64.0,-1.0,31.0,-975.0,-292.0
-3.0,-254.0,-61.0,-6.0,65.0,-1.0,35.0,-976.0,-289.0
3.0,-255.0,-66.0,-8.0,66.0,-1.0,33.0,-979.0,-285.0
6.0,-258.0,-58.0,-8.0,65.0,0.0,32.0,-976.0,-281.0
1.0,-253.0,-65.0,-7.0,65.0,0.0,33.0,-973.0,-289.0
3.0,-253.0,-63.0,-6.0,64.0,-1.0,34.0,-978.0,-280.0
0.0,-254.0,-64.0,-5.0,64.0,-1.0,33.0,-977.0,-283.0
3.0,-254.0,-63.0,-5.0,64.0,-2.0,36.0,-978.0,-283.0
0.0,-255.0,-63.0,-4.0,66.0,-3.0,34.0,-981.0,-283.0
0.0,-252.0,-62.0,-4.0,65.0,-5.0,28.0,-976.0,-283.0
0.0,-255.0,-62.0,-5.0,64.0,-4.0,28.0,-984.0,-285.0
-2.0,-254.0,-65.0,-6.0,63.0,-5.0,32.0,-978.0,-283.0
-3.0,-251.0,-64.0,-8.0,63.0,-7.0,30.0,-981.0,-287.0
-1.0,-253.0,-64.0,-8.0,61.0,-7.0,32.0,-979.0,-283.0
2.0,-253.0,-64.0,-7.0,60.0,-6.0,28.0,-979.0,-283.0
1.0,-254.0,-63.0,-7.0,59.0,-6.0,25.0,-979.0,-286.0
1.0,-253.0,-62.0,-7.0,58.0,-8.0,24.0,-982.0,-281.0
-1.0,-255.0,-65.0,-5.0,57.0,-7.0,26.0,-978.0,-282.0
3.0,-256.0,-65.0,-5.0,57.0,-8.0,27.0,-980.0,-284.0
1.0,-254.0,-66.0,-5.0,56.0,-7.0,31.0,-973.0,-285.0
2.0,-255.0,-63.0,-6.0,55.0,-6.0,30.0,-981.0,-284.0
3.0,-253.0,-64.0,-7.0,55.0,-6.0,32.0,-979.0,-286.0
1.0,-254.0,-61.0,-7.0,52.0,-5.0,30.0,-975.0,-281.0
0.0,-251.0,-63.0,-8.0,52.0,-6.0,34.0,-978.0,-288.0
1.0,-254.0,-64.0,-9.0,55.0,-6.0,32.0,-976.0,-288.0
4.0,-248.0,-62.0,-9.0,56.0,-5.0,34.0,-972.0,-282.0
2.0,-254.0,-64.0,-10.0,56.0,-4.0,31.0,-976.0,-287.0
2.0,-253.0,-63.0,-8.0,58.0,-5.0,29.0,-979.0,-282.0
3.0,-251.0,-64.0,-8.0,59.0,-5.0,34.0,-975.0,-283.0
2.0,-251.0,-61.0,-9.0,61.0,-3.0,38.0,-970.0,-290.0
1.0,-255.0,-63.0,-12.0,60.0,-4.0,35.0,-975.0,-284.0
3.0,-252.0,-65.0,-14.0,61.0,-4.0,31.0,-975.0,-285.0
-1.0,-254.0,-63.0,-17.0,62.0,-4.0,34.0,-972.0,-286.0
4.0,-254.0,-63.0,-18.0,62.0,-5.0,36.0,-976.0,-281.0
1.0,-253.0,-65.0,-20.0,62.0,-4.0,39.0,-983.0,-287.0
2.0,-255.0,-64.0,-18.0,62.0,-4.0,35.0,-980.0,-280.0
4.0,-254.0,-64.0,-17.0,63.0,-2.0,36.0,-983.0,-283.0
1.0,-251.0,-63.0,-17.0,62.0,-3.0,34.0,-980.0,-279.0
1.0,-254.0,-63.0,-14.0,64.0,-4.0,35.0,-981.0,-283.0
1.0,-255.0,-62.0,-14.0,65.0,-3.0,36.0,-975.0,-280.0
2.0,-250.0,-63.0,-13.0,65.0,-3.0,34.0,-978.0,-284.0
2.0,-254.0,-64.0,-13.0,66.0,-3.0,31.0,-981.0,-283.0
2.0,-254.0,-64.0,-13.0,66.0,-5.0,35.0,-977.0,-288.0
3.0,-256.0,-65.0,-12.0,66.0,-4.0,31.0,-979.0,-285.0
1.0,-254.0,-62.0,-13.0,66.0,-3.0,34.0,-977.0,-288.0
0.0,-253.0,-63.0,-13.0,66.0,-2.0,34.0,-979.0,-288.0
-2.0,-257.0,-59.0,-12.0,66.0,-2.0,32.0,-979.0,-287.0
1.0,-254.0,-65.0,-12.0,65.0,-1.0,31.0,-981.0,-283.0
3.0,-255.0,-63.0,-12.0,66.0,-2.0,32.0,-980.0,-288.0
1.0,-256.0,-61.0,-10.0,66.0,-2.0,31.0,-980.0,-286.0
1.0,-253.0,-63.0,-9.0,66.0,-2.0,31.0,-980.0,-287.0
0.0,-252.0,-62.0,-8.0,66.0,-2.0,30.0,-981.0,-288.0
2.0,-254.0,-65.0,-7.0,64.0,-1.0,36.0,-979.0,-286.0
1.0,-251.0,-63.0,-7.0,67.0,-2.0,29.0,-981.0,-284.0
1.0,-254.0,-61.0,-8.0,68.0,-2.0,33.0,-979.0,-283.0
1.0,-253.0,-61.0,-11.0,69.0,-2.0,38.0,-973.0,-285.0
4.0,-255.0,-64.0,-12.0,69.0,-4.0,34.0,-984.0,-286.0
4.0,-255.0,-63.0,-12.0,71.0,-2.0,36.0,-976.0,-287.0
2.0,-252.0,-62.0,-13.0,72.0,-3.0,32.0,-983.0,-281.0
4.0,-254.0,-63.0,-13.0,71.0,-3.0,37.0,-981.0,-284.0
-1.0,-255.0,-64.0,-14.0,71.0,-3.0,35.0,-975.0,-283.0
3.0,-254.0,-64.0,-13.0,70.0,-2.0,35.0,-977.0,-283.0
2.0,-254.0,-64.0,-13.0,70.0,-3.0,29.0,-980.0,-284.0
4.0,-254.0,-64.0,-12.0,71.0,-3.0,35.0,-974.0,-282.0
-1.0,-253.0,-64.0,-13.0,71.0,-5.0,34.0,-980.0,-281.0
4.0,-256.0,-64.0,-13.0,73.0,-2.0,32.0,-977.0,-289.0
3.0,-253.0,-66.0,-14.0,73.0,-4.0,32.0,-983.0,-284.0
0.0,-253.0,-66.0,-14.0,73.0,-4.0,30.0,-978.0,-284.0
0.0,-255.0,-65.0,-15.0,72.0,-4.0,33.0,-980.0,-287.0
-1.0,-252.0,-59.0,-13.0,73.0,-2.0,34.0,-979.0,-286.0
2.0,-252.0,-65.0,-12.0,73.0,-3.0,29.0,-978.0,-286.0
3.0,-255.0,-65.0,-12.0,74.0,-3.0,31.0,-976.0,-286.0
4.0,-255.0,-66.0,-10.0,75.0,-3.0,31.0,-981.0,-283.0
4.0,-255.0,-61.0,-8.0,75.0,-2.0,31.0,-977.0,-285.0
2.0,-255.0,-63.0,-8.0,74.0,-2.0,29.0,-976.0,-284.0
3.0,-255.0,-64.0,-6.0,74.0,-3.0,33.0,-973.0,-287.0
-1.0,-253.0,-64.0,-8.0,72.0,-3.0,30.0,-978.0,-286.0
4.0,-252.0,-66.0,-9.0,73.0,-1.0,32.0,-978.0,-286.0
-1.0,-257.0,-60.0,-11.0,73.0,-3.0,27.0,-980.0,-284.0
0.0,-256.0,-62.0,-11.0,72.0,-4.0,29.0,-975.0,-286.0
3.0,-253.0,-62.0,-12.0,72.0,-4.0,30.0,-983.0,-284.0
1.0,-254.0,-62.0,-10.0,72.0,-4.0,30.0,-974.0,-283.0
2.0,-254.0,-63.0,-10.0,72.0,-3.0,26.0,-980.0,-275.0
-4.0,-253.0,-63.0,-10.0,70.0,-3.0,31.0,-980.0,-281.0
-1.0,-253.0,-64.0,-8.0,69.0,-5.0,25.0,-979.0,-283.0
-1.0,-253.0,-64.0,-8.0,68.0,-6.0,28.0,-977.0,-286.0
3.0,-256.0,-65.0,-9.0,67.0,-6.0,29.0,-976.0,-286.0
-3.0,-253.0,-63.0,-11.0,65.0,-6.0,27.0,-977.0,-285.0
-2.0,-253.0,-64.0,-12.0,64.0,-7.0,29.0,-980.0,-284.0
-1.0,-250.0,-62.0,-13.0,64.0,-7.0,31.0,-985.0,-282.0
4.0,-254.0,-64.0,-12.0,65.0,-8.0,33.0,-981.0,-286.0
1.0,-254.0,-64.0,-11.0,65.0,-7.0,28.0,-980.0,-284.0
0.0,-252.0,-63.0,-12.0,67.0,-9.0,30.0,-977.0,-287.0
4.0,-253.0,-62.0,-11.0,67.0,-9.0,30.0,-971.0,-283.0
4.0,-254.0,-63.0,-8.0,68.0,-8.0,29.0,-972.0,-285.0
3.0,-253.0,-67.0,-9.0,68.0,-6.0,29.0,-978.0,-280.0
2.0,-252.0,-63.0,-7.0,69.0,-7.0,32.0,-979.0,-279.0
1.0,-254.0,-63.0,-7.0,71.0,-8.0,28.0,-979.0,-280.0
-2.0,-255.0,-63.0,-8.0,70.0,-7.0,31.0,-982.0,-280.0
2.0,-256.0,-63.0,-9.0,69.0,-7.0,27.0,-981.0,-279.0
-1.0,-253.0,-64.0,-10.0,69.0,-6.0,29.0,-978.0,-282.0
0.0,-254.0,-62.0,-12.0,70.0,-6.0,35.0,-980.0,-281.0
0.0,-255.0,-61.0,-11.0,71.0,-6.0,33.0,-980.0,-281.0
2.0,-256.0,-64.0,-10.0,69.0,-5.0,31.0,-970.0,-280.0
3.0,-254.0,-66.0,-10.0,69.0,-5.0,31.0,-980.0,-284.0
2.0,-256.0,-64.0,-11.0,71.0,-6.0,34.0,-979.0,-284.0
-2.0,-253.0,-62.0,-9.0,72.0,-5.0,31.0,-976.0,-286.0
-2.0,-255.0,-64.0,-8.0,71.0,-5.0,28.0,-977.0,-284.0
1.0,-253.0,-64.0,-7.0,71.0,-4.0,31.0,-977.0,-283.0
6.0,-255.0,-63.0,-6.0,71.0,-3.0,28.0,-974.0,-285.0
0.0,-254.0,-65.0,-6.0,72.0,-2.0,32.0,-976.0,-286.0
1.0,-252.0,-64.0,-5.0,72.0,-3.0,33.0,-978.0,-286.0
1.0,-253.0,-63.0,-6.0,73.0,-2.0,34.0,-975.0,-283.0
3.0,-256.0,-65.0,-10.0,73.0,-2.0,32.0,-977.0,-282.0
2.0,-253.0,-63.0,-13.0,73.0,-1.0,31.0,-972.0,-289.0
0.0,-254.0,-63.0,-15.0,73.0,-1.0,29.0,-974.0,-289.0
-1.0,-251.0,-66.0,-18.0,74.0,-2.0,33.0,-974.0,-284.0
1.0,-252.0,-66.0,-20.0,75.0,-3.0,28.0,-978.0,-284.0
1.0,-254.0,-64.0,-20.0,75.0,-3.0,28.0,-976.0,-285.0
-1.0,-252.0,-64.0,-18.0,76.0,-3.0,27.0,-984.0,-289.0
1.0,-253.0,-64.0,-15.0,77.0,-4.0,31.0,-984.0,-286.0
-3.0,-254.0,-64.0,-12.0,77.0,-4.0,30.0,-979.0,-283.0
1.0,-255.0,-62.0,-10.0,78.0,-4.0,30.0,-974.0,-286.0
-2.0,-252.0,-64.0,-8.0,78.0,-4.0,32.0,-978.0,-284.0
0.0,-254.0,-64.0,-9.0,78.0,-4.0,36.0,-978.0,-287.0
0.0,-253.0,-66.0,-9.0,78.0,-3.0,32.0,-982.0,-286.0
0.0,-252.0,-66.0,-9.0,77.0,-4.0,30.0,-980.0,-283.0
0.0,-253.0,-64.0,-10.0,78.0,-3.0,31.0,-978.0,-287.0
1.0,-251.0,-64.0,-11.0,77.0,-3.0,31.0,-977.0,-285.0
0.0,-253.0,-61.0,-12.0,77.0,-3.0,30.0,-978.0,-282.0
-1.0,-253.0,-63.0,-12.0,78.0,-3.0,31.0,-980.0,-278.0
-1.0,-253.0,-64.0,-13.0,77.0,-2.0,33.0,-976.0,-279.0
0.0,-254.0,-65.0,-10.0,75.0,-2.0,32.0,-975.0,-286.0
2.0,-255.0,-61.0,-10.0,73.0,-1.0,32.0,-976.0,-283.0
3.0,-255.0,-64.0,-9.0,73.0,-1.0,32.0,-978.0,-289.0
3.0,-254.0,-65.0,-7.0,73.0,-1.0,32.0,-975.0,-282.0
-1.0,-251.0,-64.0,-7.0,71.0,0.0,30.0,-973.0,-284.0
3.0,-255.0,-65.0,-8.0,69.0,1.0,33.0,-979.0,-288.0
2.0,-252.0,-63.0,-10.0,69.0,0.0,35.0,-974.0,-286.0
0.0,-254.0,-61.0,-10.0,68.0,1.0,34.0,-980.0,-285.0
0.0,-252.0,-61.0,-13.0,69.0,2.0,30.0,-980.0,-283.0
0.0,-252.0,-63.0,-15.0,71.0,0.0,31.0,-977.0,-285.0
0.0,-252.0,-61.0,-16.0,72.0,0.0,33.0,-979.0,-284.0
2.0,-254.0,-59.0,-15.0,77.0,-1.0,33.0,-981.0,-278.0
1.0,-256.0,-64.0,-14.0,78.0,-1.0,29.0,-984.0,-284.0
0.0,-254.0,-65.0,-13.0,79.0,-3.0,32.0,-979.0,-282.0
4.0,-256.0,-61.0,-12.0,81.0,-3.0,31.0,-988.0,-283.0
-1.0,-255.0,-61.0,-11.0,81.0,-2.0,31.0,-983.0,-283.0
-2.0,-255.0,-64.0,-9.0,81.0,-2.0,29.0,-973.0,-282.0
0.0,-254.0,-61.0,-9.0,80.0,-3.0,29.0,-978.0,-283.0
1.0,-256.0,-64.0,-8.0,80.0,-2.0,32.0,-982.0,-288.0
-3.0,-253.0,-61.0,-8.0,78.0,-3.0,30.0,-982.0,-285.0
-1.0,-253.0,-64.0,-8.0,78.0,-3.0,33.0,-983.0,-282.0
2.0,-255.0,-65.0,-7.0,80.0,0.0,30.0,-980.0,-281.0
-1.0,-254.0,-63.0,-8.0,78.0,-2.0,33.0,-982.0,-279.0
0.0,-253.0,-67.0,-8.0,79.0,-3.0,32.0,-975.0,-287.0
3.0,-252.0,-64.0,-7.0,79.0,-2.0,28.0,-978.0,-286.0
2.0,-255.0,-66.0,-6.0,80.0,-2.0,35.0,-979.0,-280.0
0.0,-251.0,-63.0,-6.0,80.0,-3.0,24.0,-975.0,-285.0
1.0,-251.0,-66.0,-7.0,79.0,-2.0,33.0,-974.0,-286.0
0.0,-251.0,-64.0,-7.0,80.0,-1.0,29.0,-974.0,-282.0
2.0,-253.0,-65.0,-9.0,80.0,-2.0,33.0,-977.0,-287.0
1.0,-251.0,-65.0,-11.0,79.0,0.0,26.0,-974.0,-285.0
2.0,-254.0,-62.0,-11.0,79.0,-1.0,25.0,-979.0,-283.0
-1.0,-254.0,-63.0,-10.0,78.0,-1.0,32.0,-981.0,-288.0
4.0,-254.0,-59.0,-10.0,78.0,-2.0,35.0,-980.0,-289.0
1.0,-253.0,-63.0,-9.0,78.0,-2.0,29.0,-975.0,-287.0
1.0,-252.0,-64.0,-8.0,77.0,-1.0,28.0,-976.0,-288.0
0.0,-250.0,-63.0,-7.0,78.0,-2.0,30.0,-975.0,-286.0
3.0,-253.0,-64.0,-8.0,79.0,-3.0,31.0,-977.0,-286.0
2.0,-255.0,-61.0,-8.0,80.0,-2.0,30.0,-976.0,-285.0
1.0,-253.0,-65.0,-7.0,80.0,-1.0,28.0,-979.0,-283.0
-1.0,-252.0,-67.0,-5.0,81.0,-1.0,31.0,-979.0,-282.0
-1.0,-255.0,-62.0,-5.0,84.0,1.0,29.0,-974.0,-287.0
3.0,-253.0,-66.0,-5.0,83.0,0.0,29.0,-980.0,-280.0
3.0,-255.0,-65.0,-6.0,83.0,-1.0,33.0,-975.0,-285.0
1.0,-251.0,-64.0,-8.0,82.0,-2.0,31.0,-981.0,-282.0
1.0,-255.0,-65.0,-9.0,80.0,-1.0,31.0,-981.0,-284.0
3.0,-252.0,-65.0,-9.0,81.0,-1.0,35.0,-981.0,-287.0
5.0,-254.0,-64.0,-12.0,81.0,-1.0,30.0,-983.0,-290.0
4.0,-256.0,-61.0,-11.0,78.0,0.0,29.0,-977.0,-289.0
2.0,-253.0,-64.0,-10.0,78.0,-1.0,28.0,-975.0,-289.0
1.0,-254.0,-66.0,-9.0,79.0,-1.0,31.0,-978.0,-295.0
3.0,-255.0,-67.0,-9.0,80.0,-1.0,31.0,-972.0,-287.0
3.0,-253.0,-66.0,-7.0,79.0,-1.0,31.0,-979.0,-288.0
2.0,-254.0,-64.0,-9.0,80.0,-1.0,31.0,-978.0,-290.0
1.0,-252.0,-64.0,-9.0,80.0,-1.0,34.0,-975.0,-291.0
6.0,-254.0,-60.0,-11.0,80.0,-1.0,32.0,-973.0,-289.0
0.0,-253.0,-64.0,-11.0,79.0,-1.0,33.0,-970.0,-285.0
-2.0,-251.0,-64.0,-12.0,82.0,-2.0,33.0,-979.0,-290.0
2.0,-253.0,-64.0,-13.0,82.0,-2.0,35.0,-977.0,-284.0
1.0,-254.0,-64.0,-12.0,81.0,-2.0,30.0,-971.0,-283.0
3.0,-254.0,-65.0,-11.0,83.0,-1.0,35.0,-978.0,-281.0
1.0,-253.0,-66.0,-10.0,82.0,-1.0,33.0,-972.0,-283.0
4.0,-255.0,-61.0,-10.0,85.0,-1.0,36.0,-973.0,-284.0
2.0,-252.0,-63.0,-8.0,85.0,0.0,30.0,-977.0,-289.0
4.0,-253.0,-67.0,-8.0,85.0,0.0,35.0,-978.0,-281.0
4.0,-256.0,-63.0,-10.0,85.0,-1.0,36.0,-975.0,-283.0
3.0,-251.0,-65.0,-12.0,86.0,0.0,37.0,-978.0,-282.0
2.0,-253.0,-62.0,-13.0,86.0,0.0,37.0,-973.0,-281.0
3.0,-252.0,-64.0,-14.0,87.0,0.0,35.0,-974.0,-283.0
0.0,-253.0,-61.0,-17.0,89.0,1.0,34.0,-976.0,-282.0
2.0,-254.0,-65.0,-17.0,90.0,1.0,32.0,-981.0,-279.0
3.0,-254.0,-63.0,-16.0,89.0,-1.0,34.0,-979.0,-287.0
-1.0,-255.0,-61.0,-16.0,86.0,1.0,30.0,-978.0,-284.0
2.0,-252.0,-63.0,-17.0,88.0,-1.0,35.0,-984.0,-283.0
3.0,-253.0,-66.0,-17.0,87.0,0.0,29.0,-982.0,-280.0
1.0,-254.0,-64.0,-17.0,88.0,-1.0,39.0,-979.0,-284.0
2.0,-256.0,-65.0,-17.0,86.0,-3.0,31.0,-980.0,-288.0
-7.0,-254.0,-65.0,-17.0,83.0,-2.0,30.0,-982.0,-287.0
-1.0,-253.0,-64.0,-17.0,83.0,-4.0,30.0,-982.0,-289.0
4.0,-256.0,-64.0,-17.0,83.0,-2.0,33.0,-979.0,-291.0
3.0,-253.0,-63.0,-15.0,84.0,-3.0,28.0,-978.0,-289.0
1.0,-254.0,-61.0,-15.0,84.0,-1.0,31.0,-974.0,-285.0
4.0,-251.0,-62.0,-13.0,84.0,0.0,30.0,-973.0,-290.0
1.0,-252.0,-65.0,-10.0,83.0,1.0,32.0,-978.0,-289.0
1.0,-252.0,-61.0,-7.0,82.0,0.0,30.0,-973.0,-284.0
-1.0,-253.0,-64.0,-6.0,81.0,1.0,33.0,-977.0,-282.0
4.0,-253.0,-63.0,-5.0,80.0,1.0,31.0,-976.0,-288.0
0.0,-254.0,-65.0,-7.0,79.0,0.0,33.0,-977.0,-285.0
1.0,-253.0,-64.0,-7.0,80.0,0.0,32.0,-975.0,-282.0
4.0,-254.0,-69.0,-10.0,79.0,1.0,31.0,-976.0,-287.0
3.0,-254.0,-64.0,-13.0,80.0,2.0,33.0,-976.0,-283.0
2.0,-253.0,-64.0,-17.0,79.0,2.0,32.0,-973.0,-283.0
0.0,-254.0,-64.0,-19.0,79.0,2.0,33.0,-977.0,-285.0
1.0,-254.0,-61.0,-20.0,80.0,2.0,34.0,-976.0,-282.0
-1.0,-255.0,-63.0,-18.0,80.0,1.0,35.0,-979.0,-284.0
0.0,-252.0,-64.0,-19.0,83.0,2.0,33.0,-973.0,-286.0
4.0,-251.0,-66.0,-18.0,84.0,3.0,36.0,-974.0,-284.0
3.0,-251.0,-67.0,-18.0,86.0,3.0,35.0,-978.0,-286.0
4.0,-249.0,-67.0,-21.0,87.0,2.0,35.0,-979.0,-294.0
6.0,-254.0,-60.0,-22.0,90.0,1.0,32.0,-970.0,-295.0
1.0,-251.0,-63.0,-24.0,91.0,1.0,35.0,-978.0,-288.0
4.0,-250.0,-65.0,-25.0,91.0,-1.0,34.0,-973.0,-291.0
3.0,-256.0,-67.0,-27.0,90.0,2.0,37.0,-980.0,-286.0
4.0,-254.0,-64.0,-26.0,90.0,1.0,36.0,-975.0,-287.0
4.0,-256.0,-64.0,-26.0,88.0,1.0,35.0,-978.0,-282.0
1.0,-253.0,-63.0,-23.0,86.0,1.0,31.0,-978.0,-284.0
-1.0,-251.0,-64.0,-23.0,84.0,1.0,36.0,-977.0,-285.0
1.0,-253.0,-65.0,-22.0,82.0,0.0,28.0,-981.0,-285.0
2.0,-252.0,-64.0,-23.0,80.0,-2.0,29.0,-973.0,-281.0
3.0,-255.0,-64.0,-23.0,80.0,-1.0,32.0,-983.0,-285.0
-7.0,-256.0,-61.0,-23.0,77.0,0.0,32.0,-980.0,-288.0
1.0,-256.0,-65.0,-23.0,79.0,0.0,25.0,-982.0,-286.0
2.0,-254.0,-67.0,-24.0,79.0,-1.0,29.0,-980.0,-284.0
0.0,-254.0,-64.0,-21.0,78.0,0.0,30.0,-978.0,-288.0
4.0,-255.0,-64.0,-20.0,79.0,0.0,31.0,-977.0,-288.0
2.0,-254.0,-62.0,-18.0,78.0,0.0,26.0,-981.0,-290.0
2.0,-252.0,-62.0,-16.0,79.0,-1.0,24.0,-979.0,-287.0
-3.0,-252.0,-63.0,-14.0,79.0,-1.0,30.0,-978.0,-285.0
2.0,-253.0,-65.0,-14.0,79.0,-1.0,31.0,-980.0,-285.0
0.0,-252.0,-66.0,-15.0,78.0,-1.0,30.0,-967.0,-287.0
2.0,-254.0,-58.0,-15.0,77.0,-1.0,29.0,-974.0,-282.0
2.0,-252.0,-66.0,-16.0,77.0,0.0,31.0,-975.0,-283.0
-2.0,-254.0,-64.0,-17.0,77.0,-1.0,30.0,-972.0,-282.0
2.0,-253.0,-64.0,-20.0,76.0,-1.0,33.0,-975.0,-284.0
-2.0,-253.0,-64.0,-22.0,76.0,-1.0,36.0,-975.0,-285.0
4.0,-253.0,-66.0,-24.0,76.0,-3.0,33.0,-974.0,-286.0
-1.0,-251.0,-64.0,-25.0,76.0,-2.0,36.0,-975.0,-279.0
3.0,-252.0,-61.0,-25.0,77.0,-3.0,38.0,-979.0,-287.0
3.0,-252.0,-64.0,-25.0,74.0,-1.0,36.0,-969.0,-287.0
1.0,-254.0,-64.0,-25.0,74.0,-2.0,37.0,-980.0,-288.0
3.0,-255.0,-64.0,-25.0,73.0,-4.0,35.0,-977.0,-285.0
1.0,-253.0,-63.0,-25.0,74.0,-3.0,31.0,-973.0,-287.0
1.0,-259.0,-64.0,-25.0,73.0,-3.0,34.0,-973.0,-286.0
1.0,-254.0,-64.0,-26.0,72.0,-2.0,34.0,-979.0,-286.0
2.0,-254.0,-64.0,-27.0,71.0,-3.0,32.0,-976.0,-289.0
4.0,-255.0,-66.0,-27.0,72.0,-3.0,34.0,-976.0,-285.0
4.0,-254.0,-64.0,-26.0,71.0,-3.0,36.0,-976.0,-284.0
3.0,-255.0,-64.0,-25.0,72.0,-1.0,35.0,-978.0,-285.0
5.0,-253.0,-63.0,-26.0,73.0,0.0,37.0,-979.0,-292.0
2.0,-255.0,-63.0,-27.0,75.0,0.0,36.0,-975.0,-283.0
1.0,-255.0,-63.0,-27.0,74.0,-1.0,34.0,-978.0,-288.0
3.0,-254.0,-66.0,-27.0,73.0,0.0,40.0,-975.0,-285.0
1.0,-253.0,-64.0,-28.0,73.0,0.0,35.0,-981.0,-284.0
4.0,-254.0,-64.0,-28.0,75.0,1.0,35.0,-979.0,-283.0
2.0,-254.0,-65.0,-27.0,77.0,2.0,35.0,-978.0,-289.0
4.0,-254.0,-64.0,-26.0,77.0,1.0,35.0,-979.0,-292.0
3.0,-255.0,-64.0,-24.0,77.0,1.0,36.0,-981.0,-286.0
3.0,-253.0,-65.0,-23.0,76.0,0.0,41.0,-977.0,-283.0
2.0,-253.0,-62.0,-23.0,76.0,0.0,39.0,-985.0,-283.0
3.0,-255.0,-64.0,-22.0,78.0,0.0,37.0,-977.0,-288.0
0.0,-254.0,-65.0,-21.0,78.0,-1.0,33.0,-984.0,-281.0
0.0,-253.0,-66.0,-22.0,78.0,-1.0,35.0,-976.0,-284.0
2.0,-252.0,-60.0,-23.0,77.0,-3.0,32.0,-982.0,-287.0
0.0,-253.0,-62.0,-25.0,76.0,-2.0,33.0,-977.0,-283.0
-6.0,-255.0,-62.0,-25.0,76.0,-4.0,29.0,-974.0,-285.0
0.0,-254.0,-64.0,-23.0,74.0,-5.0,32.0,-976.0,-284.0
1.0,-255.0,-64.0,-25.0,74.0,-7.0,31.0,-979.0,-284.0
1.0,-253.0,-65.0,-25.0,72.0,-8.0,34.0,-974.0,-285.0
3.0,-255.0,-65.0,-24.0,72.0,-6.0,31.0,-980.0,-287.0
-2.0,-253.0,-63.0,-25.0,73.0,-5.0,32.0,-971.0,-289.0
1.0,-254.0,-64.0,-26.0,74.0,-6.0,30.0,-978.0,-288.0
3.0,-252.0,-67.0,-27.0,73.0,-6.0,29.0,-977.0,-290.0
3.0,-255.0,-63.0,-26.0,72.0,-5.0,30.0,-976.0,-297.0
0.0,-251.0,-65.0,-26.0,72.0,-6.0,35.0,-976.0,-290.0
-1.0,-252.0,-65.0,-26.0,71.0,-3.0,31.0,-971.0,-290.0
2.0,-252.0,-64.0,-27.0,72.0,-3.0,35.0,-982.0,-286.0
4.0,-253.0,-67.0,-27.0,73.0,-3.0,40.0,-976.0,-290.0
4.0,-255.0,-64.0,-27.0,71.0,-3.0,37.0,-978.0,-285.0
3.0,-253.0,-65.0,-25.0,71.0,-3.0,36.0,-978.0,-289.0
2.0,-254.0,-63.0,-24.0,71.0,-3.0,30.0,-977.0,-288.0
3.0,-253.0,-68.0,-23.0,70.0,-4.0,37.0,-977.0,-291.0
0.0,-255.0,-65.0,-22.0,68.0,-3.0,34.0,-982.0,-289.0
0.0,-254.0,-66.0,-20.0,65.0,-3.0,37.0,-978.0,-286.0
3.0,-255.0,-67.0,-19.0,63.0,-3.0,34.0,-980.0,-287.0
-1.0,-253.0,-65.0,-19.0,61.0,-2.0,33.0,-977.0,-294.0
4.0,-253.0,-64.0,-19.0,60.0,-3.0,27.0,-980.0,-284.0
3.0,-253.0,-60.0,-20.0,59.0,-3.0,30.0,-978.0,-287.0
0.0,-252.0,-65.0,-21.0,60.0,-4.0,27.0,-980.0,-286.0
-4.0,-256.0,-64.0,-21.0,62.0,-2.0,27.0,-979.0,-284.0
3.0,-253.0,-67.0,-22.0,64.0,-4.0,27.0,-985.0,-290.0
0.0,-254.0,-64.0,-24.0,67.0,-4.0,25.0,-981.0,-286.0
2.0,-255.0,-64.0,-25.0,70.0,-3.0,28.0,-982.0,-285.0
1.0,-252.0,-64.0,-26.0,71.0,-4.0,33.0,-979.0,-285.0
0.0,-251.0,-65.0,-26.0,72.0,-5.0,30.0,-977.0,-287.0
-1.0,-253.0,-64.0,-26.0,72.0,-5.0,30.0,-984.0,-290.0
-1.0,-254.0,-63.0,-26.0,73.0,-5.0,34.0,-979.0,-288.0
2.0,-256.0,-64.0,-23.0,73.0,-5.0,34.0,-977.0,-290.0
1.0,-255.0,-62.0,-23.0,72.0,-5.0,33.0,-978.0,-291.0
3.0,-255.0,-61.0,-20.0,70.0,-5.0,35.0,-976.0,-291.0
0.0,-252.0,-69.0,-17.0,70.0,-6.0,36.0,-974.0,-291.0
2.0,-256.0,-67.0,-14.0,68.0,-6.0,33.0,-980.0,-294.0
0.0,-251.0,-64.0,-11.0,66.0,-6.0,34.0,-974.0,-296.0
2.0,-256.0,-66.0,-10.0,65.0,-5.0,33.0,-976.0,-295.0
2.0,-251.0,-68.0,-9.0,64.0,-6.0,35.0,-976.0,-293.0
1.0,-252.0,-65.0,-12.0,63.0,-6.0,32.0,-976.0,-294.0
0.0,-251.0,-71.0,-13.0,62.0,-6.0,33.0,-975.0,-299.0
1.0,-253.0,-64.0,-13.0,60.0,-7.0,31.0,-975.0,-291.0
4.0,-252.0,-66.0,-16.0,62.0,-5.0,31.0,-973.0,-292.0
1.0,-252.0,-61.0,-17.0,61.0,-6.0,31.0,-975.0,-288.0
0.0,-252.0,-65.0,-17.0,60.0,-8.0,31.0,-969.0,-288.0
3.0,-255.0,-62.0,-17.0,61.0,-7.0,31.0,-975.0,-292.0
2.0,-254.0,-65.0,-18.0,62.0,-6.0,31.0,-974.0,-287.0
-2.0,-254.0,-66.0,-16.0,63.0,-7.0,32.0,-973.0,-289.0
2.0,-252.0,-67.0,-15.0,64.0,-6.0,32.0,-972.0,-295.0
1.0,-254.0,-63.0,-15.0,63.0,-6.0,33.0,-973.0,-289.0
-1.0,-250.0,-63.0,-16.0,65.0,-4.0,29.0,-972.0,-291.0
4.0,-253.0,-64.0,-17.0,65.0,-4.0,32.0,-975.0,-298.0
2.0,-251.0,-64.0,-18.0,66.0,-5.0,33.0,-976.0,-287.0
2.0,-253.0,-65.0,-20.0,66.0,-5.0,33.0,-976.0,-287.0
2.0,-252.0,-66.0,-20.0,66.0,-4.0,37.0,-970.0,-285.0
3.0,-254.0,-63.0,-21.0,66.0,-4.0,33.0,-974.0,-292.0
4.0,-253.0,-64.0,-23.0,67.0,-4.0,29.0,-970.0,-285.0
3.0,-254.0,-62.0,-25.0,68.0,-4.0,35.0,-975.0,-291.0
0.0,-253.0,-62.0,-28.0,67.0,-3.0,34.0,-971.0,-293.0
4.0,-253.0,-64.0,-29.0,69.0,-3.0,32.0,-978.0,-291.0
3.0,-252.0,-67.0,-31.0,70.0,-3.0,33.0,-975.0,-294.0
2.0,-254.0,-66.0,-34.0,67.0,-4.0,32.0,-973.0,-293.0
1.0,-253.0,-64.0,-35.0,67.0,-5.0,35.0,-976.0,-296.0
2.0,-252.0,-65.0,-36.0,64.0,-3.0,35.0,-979.0,-295.0
1.0,-257.0,-67.0,-36.0,63.0,-4.0,33.0,-973.0,-299.0
4.0,-251.0,-63.0,-36.0,62.0,-3.0,29.0,-970.0,-295.0
2.0,-253.0,-67.0,-34.0,61.0,-2.0,31.0,-977.0,-299.0
4.0,-252.0,-68.0,-34.0,59.0,-2.0,33.0,-972.0,-295.0
2.0,-252.0,-66.0,-33.0,59.0,-1.0,32.0,-971.0,-296.0
4.0,-251.0,-64.0,-35.0,58.0,-2.0,33.0,-972.0,-297.0
4.0,-252.0,-67.0,-37.0,59.0,-1.0,32.0,-970.0,-296.0
2.0,-251.0,-68.0,-38.0,58.0,-2.0,35.0,-969.0,-295.0
3.0,-252.0,-70.0,-40.0,59.0,-2.0,34.0,-968.0,-296.0
3.0,-254.0,-67.0,-42.0,59.0,-2.0,33.0,-962.0,-295.0
2.0,-252.0,-68.0,-44.0,60.0,-2.0,32.0,-967.0,-297.0
4.0,-253.0,-67.0,-45.0,62.0,-3.0,29.0,-965.0,-294.0
1.0,-252.0,-66.0,-46.0,64.0,-3.0,30.0,-965.0,-289.0
-1.0,-250.0,-66.0,-46.0,64.0,-2.0,35.0,-968.0,-292.0
1.0,-249.0,-64.0,-48.0,65.0,-5.0,30.0,-965.0,-298.0
-1.0,-252.0,-67.0,-50.0,64.0,-3.0,30.0,-973.0,-302.0
1.0,-253.0,-68.0,-53.0,66.0,-3.0,35.0,-966.0,-297.0
4.0,-252.0,-68.0,-56.0,67.0,-3.0,30.0,-967.0,-292.0
3.0,-250.0,-66.0,-60.0,68.0,-2.0,30.0,-972.0,-302.0
3.0,-251.0,-69.0,-63.0,70.0,-3.0,27.0,-973.0,-297.0
1.0,-253.0,-67.0,-64.0,71.0,-3.0,33.0,-970.0,-299.0
4.0,-252.0,-66.0,-65.0,72.0,-4.0,34.0,-980.0,-299.0
-1.0,-256.0,-67.0,-66.0,70.0,-3.0,32.0,-975.0,-293.0
2.0,-255.0,-65.0,-67.0,69.0,-4.0,36.0,-971.0,-300.0
-2.0,-252.0,-68.0,-65.0,68.0,-3.0,33.0,-977.0,-297.0
3.0,-255.0,-65.0,-62.0,66.0,-4.0,35.0,-974.0,-300.0
1.0,-254.0,-67.0,-60.0,64.0,-4.0,34.0,-972.0,-299.0
4.0,-252.0,-67.0,-59.0,63.0,-4.0,34.0,-977.0,-299.0
0.0,-252.0,-68.0,-56.0,62.0,-3.0,34.0,-975.0,-305.0
2.0,-251.0,-68.0,-54.0,62.0,-3.0,36.0,-971.0,-308.0
2.0,-249.0,-69.0,-54.0,64.0,-3.0,35.0,-969.0,-313.0
1.0,-252.0,-72.0,-50.0,62.0,-2.0,33.0,-971.0,-307.0
1.0,-255.0,-68.0,-49.0,64.0,-1.0,35.0,-970.0,-311.0
2.0,-252.0,-72.0,-49.0,65.0,0.0,35.0,-965.0,-308.0
2.0,-251.0,-68.0,-48.0,66.0,0.0,33.0,-969.0,-307.0
2.0,-251.0,-67.0,-46.0,67.0,-1.0,35.0,-975.0,-299.0
4.0,-252.0,-64.0,-45.0,69.0,0.0,37.0,-971.0,-300.0
1.0,-253.0,-67.0,-44.0,71.0,3.0,38.0,-970.0,-295.0
4.0,-251.0,-67.0,-43.0,72.0,0.0,35.0,-968.0,-298.0
1.0,-251.0,-66.0,-42.0,71.0,1.0,34.0,-971.0,-301.0
2.0,-250.0,-67.0,-41.0,71.0,-1.0,38.0,-974.0,-298.0
2.0,-253.0,-68.0,-38.0,71.0,1.0,38.0,-967.0,-305.0
2.0,-253.0,-66.0,-38.0,68.0,0.0,38.0,-971.0,-302.0
3.0,-251.0,-65.0,-38.0,68.0,0.0,34.0,-965.0,-304.0
2.0,-249.0,-74.0,-37.0,68.0,-1.0,36.0,-970.0,-305.0
-1.0,-251.0,-69.0,-38.0,67.0,0.0,32.0,-968.0,-301.0
3.0,-252.0,-67.0,-41.0,69.0,-1.0,35.0,-969.0,-305.0
2.0,-252.0,-65.0,-41.0,68.0,-1.0,33.0,-968.0,-303.0
4.0,-252.0,-67.0,-44.0,68.0,0.0,31.0,-971.0,-308.0
2.0,-249.0,-70.0,-45.0,68.0,0.0,36.0,-974.0,-307.0
0.0,-252.0,-68.0,-46.0,68.0,1.0,33.0,-970.0,-302.0
2.0,-254.0,-67.0,-46.0,67.0,-1.0,34.0,-968.0,-304.0
0.0,-250.0,-67.0,-44.0,67.0,0.0,33.0,-970.0,-307.0
0.0,-251.0,-69.0,-44.0,68.0,0.0,28.0,-966.0,-303.0
-1.0,-254.0,-65.0,-43.0,67.0,0.0,31.0,-963.0,-309.0
4.0,-254.0,-71.0,-43.0,68.0,1.0,29.0,-967.0,-310.0
-2.0,-251.0,-69.0,-42.0,69.0,1.0,36.0,-968.0,-305.0
-2.0,-249.0,-69.0,-42.0,71.0,1.0,31.0,-966.0,-312.0
1.0,-252.0,-71.0,-41.0,74.0,3.0,32.0,-965.0,-309.0
3.0,-251.0,-71.0,-41.0,76.0,2.0,30.0,-966.0,-309.0
2.0,-250.0,-70.0,-43.0,78.0,4.0,34.0,-968.0,-307.0
4.0,-251.0,-73.0,-42.0,80.0,3.0,34.0,-967.0,-307.0
3.0,-249.0,-71.0,-45.0,80.0,3.0,34.0,-962.0,-312.0
2.0,-250.0,-70.0,-44.0,82.0,4.0,38.0,-961.0,-304.0
3.0,-249.0,-68.0,-44.0,81.0,4.0,39.0,-965.0,-312.0
1.0,-249.0,-70.0,-44.0,82.0,4.0,38.0,-963.0,-317.0
5.0,-251.0,-70.0,-45.0,84.0,5.0,35.0,-966.0,-316.0
3.0,-250.0,-68.0,-44.0,86.0,6.0,35.0,-959.0,-308.0
4.0,-250.0,-66.0,-44.0,87.0,8.0,36.0,-963.0,-305.0
4.0,-250.0,-66.0,-46.0,88.0,10.0,41.0,-961.0,-308.0
4.0,-249.0,-72.0,-47.0,88.0,9.0,37.0,-959.0,-306.0
2.0,-246.0,-71.0,-50.0,88.0,10.0,45.0,-961.0,-311.0
4.0,-251.0,-68.0,-54.0,88.0,11.0,43.0,-964.0,-302.0
4.0,-246.0,-66.0,-56.0,89.0,11.0,39.0,-960.0,-308.0
3.0,-252.0,-69.0,-60.0,88.0,12.0,37.0,-966.0,-301.0
1.0,-250.0,-70.0,-60.0,88.0,13.0,36.0,-965.0,-307.0
4.0,-250.0,-66.0,-61.0,88.0,12.0,30.0,-964.0,-304.0
4.0,-253.0,-70.0,-62.0,87.0,12.0,33.0,-969.0,-308.0
-1.0,-252.0,-64.0,-62.0,85.0,13.0,30.0,-965.0,-302.0
0.0,-251.0,-68.0,-61.0,85.0,13.0,34.0,-971.0,-306.0
3.0,-250.0,-67.0,-61.0,85.0,13.0,33.0,-969.0,-301.0
1.0,-250.0,-72.0,-63.0,86.0,13.0,32.0,-976.0,-306.0
2.0,-253.0,-68.0,-65.0,88.0,14.0,33.0,-975.0,-302.0
3.0,-253.0,-68.0,-67.0,90.0,14.0,28.0,-976.0,-303.0
3.0,-254.0,-67.0,-66.0,92.0,14.0,30.0,-974.0,-299.0
4.0,-251.0,-67.0,-65.0,92.0,14.0,29.0,-978.0,-304.0
-1.0,-253.0,-68.0,-64.0,92.0,14.0,32.0,-977.0,-304.0
-1.0,-254.0,-66.0,-63.0,91.0,14.0,25.0,-979.0,-306.0
0.0,-254.0,-68.0,-62.0,91.0,13.0,31.0,-975.0,-305.0
4.0,-252.0,-69.0,-60.0,92.0,12.0,33.0,-974.0,-309.0
0.0,-256.0,-69.0,-58.0,91.0,12.0,31.0,-976.0,-305.0
0.0,-255.0,-69.0,-58.0,91.0,12.0,32.0,-972.0,-305.0
1.0,-252.0,-68.0,-59.0,91.0,11.0,31.0,-975.0,-311.0
-1.0,-251.0,-67.0,-59.0,92.0,10.0,33.0,-966.0,-313.0
2.0,-252.0,-72.0,-58.0,91.0,9.0,31.0,-970.0,-313.0
3.0,-251.0,-72.0,-59.0,90.0,9.0,31.0,-968.0,-317.0
1.0,-251.0,-73.0,-59.0,90.0,8.0,27.0,-967.0,-321.0
3.0,-254.0,-71.0,-60.0,92.0,5.0,29.0,-967.0,-318.0
1.0,-252.0,-70.0,-60.0,94.0,6.0,28.0,-967.0,-319.0
-1.0,-249.0,-69.0,-59.0,94.0,5.0,27.0,-967.0,-321.0
-3.0,-253.0,-73.0,-59.0,95.0,6.0,31.0,-967.0,-324.0
-1.0,-248.0,-73.0,-58.0,94.0,6.0,30.0,-965.0,-322.0
2.0,-251.0,-70.0,-55.0,96.0,5.0,30.0,-965.0,-318.0
0.0,-250.0,-69.0,-52.0,98.0,5.0,31.0,-962.0,-322.0
2.0,-247.0,-71.0,-48.0,99.0,5.0,31.0,-961.0,-318.0
0.0,-248.0,-71.0,-46.0,102.0,6.0,34.0,-963.0,-318.0
3.0,-248.0,-73.0,-45.0,105.0,5.0,32.0,-958.0,-324.0
3.0,-247.0,-72.0,-43.0,106.0,6.0,30.0,-954.0,-325.0
1.0,-247.0,-71.0,-43.0,106.0,7.0,34.0,-952.0,-323.0
1.0,-249.0,-74.0,-45.0,106.0,8.0,32.0,-954.0,-330.0
2.0,-246.0,-72.0,-48.0,105.0,9.0,34.0,-955.0,-326.0
3.0,-248.0,-77.0,-54.0,106.0,9.0,33.0,-951.0,-329.0
4.0,-247.0,-72.0,-60.0,107.0,9.0,29.0,-956.0,-328.0
2.0,-246.0,-71.0,-65.0,108.0,9.0,31.0,-952.0,-323.0
2.0,-247.0,-71.0,-70.0,110.0,9.0,31.0,-955.0,-326.0
3.0,-248.0,-72.0,-72.0,109.0,11.0,31.0,-954.0,-326.0
1.0,-249.0,-70.0,-73.0,108.0,12.0,33.0,-958.0,-325.0
-1.0,-247.0,-73.0,-73.0,106.0,11.0,30.0,-957.0,-327.0
3.0,-248.0,-74.0,-74.0,104.0,14.0,33.0,-959.0,-329.0
2.0,-248.0,-74.0,-73.0,101.0,12.0,29.0,-963.0,-330.0
2.0,-250.0,-77.0,-73.0,100.0,13.0,27.0,-961.0,-331.0
3.0,-248.0,-74.0,-73.0,99.0,13.0,27.0,-960.0,-332.0
0.0,-249.0,-71.0,-72.0,96.0,14.0,29.0,-962.0,-328.0
-2.0,-251.0,-77.0,-71.0,95.0,15.0,28.0,-966.0,-332.0
-1.0,-251.0,-74.0,-71.0,93.0,16.0,26.0,-963.0,-328.0
1.0,-253.0,-73.0,-72.0,94.0,16.0,25.0,-962.0,-330.0
-1.0,-251.0,-75.0,-72.0,94.0,18.0,25.0,-967.0,-329.0
-1.0,-250.0,-74.0,-71.0,95.0,17.0,24.0,-967.0,-336.0
1.0,-251.0,-74.0,-71.0,97.0,16.0,29.0,-966.0,-333.0
-1.0,-249.0,-74.0,-68.0,99.0,16.0,27.0,-968.0,-336.0
3.0,-250.0,-76.0,-66.0,102.0,17.0,26.0,-973.0,-335.0
1.0,-252.0,-73.0,-62.0,102.0,16.0,26.0,-963.0,-337.0
3.0,-252.0,-79.0,-60.0,105.0,16.0,29.0,-962.0,-336.0
1.0,-250.0,-75.0,-57.0,105.0,16.0,26.0,-965.0,-342.0
1.0,-251.0,-75.0,-56.0,105.0,16.0,30.0,-967.0,-339.0
3.0,-254.0,-78.0,-55.0,106.0,15.0,31.0,-966.0,-344.0
2.0,-253.0,-78.0,-55.0,104.0,15.0,27.0,-963.0,-342.0
4.0,-250.0,-81.0,-54.0,104.0,15.0,32.0,-960.0,-341.0
3.0,-251.0,-78.0,-54.0,102.0,16.0,33.0,-958.0,-346.0
4.0,-248.0,-77.0,-51.0,100.0,16.0,32.0,-958.0,-345.0
-4.0,-246.0,-76.0,-52.0,100.0,16.0,29.0,-957.0,-347.0
2.0,-247.0,-78.0,-51.0,100.0,17.0,29.0,-954.0,-346.0
4.0,-248.0,-81.0,-51.0,101.0,17.0,31.0,-952.0,-351.0
0.0,-246.0,-77.0,-49.0,103.0,17.0,36.0,-950.0,-348.0
2.0,-245.0,-77.0,-48.0,106.0,17.0,31.0,-952.0,-352.0
3.0,-245.0,-80.0,-45.0,109.0,15.0,39.0,-945.0,-351.0
2.0,-247.0,-79.0,-44.0,111.0,15.0,33.0,-946.0,-347.0
2.0,-243.0,-80.0,-47.0,109.0,15.0,33.0,-942.0,-350.0
-1.0,-243.0,-81.0,-50.0,110.0,15.0,28.0,-947.0,-354.0
2.0,-243.0,-77.0,-55.0,110.0,15.0,26.0,-941.0,-356.0
0.0,-242.0,-78.0,-61.0,111.0,15.0,32.0,-936.0,-355.0
-2.0,-242.0,-86.0,-67.0,114.0,16.0,30.0,-941.0,-356.0
4.0,-244.0,-82.0,-73.0,116.0,18.0,32.0,-937.0,-363.0
4.0,-240.0,-82.0,-79.0,117.0,19.0,32.0,-940.0,-362.0
0.0,-242.0,-83.0,-84.0,117.0,18.0,26.0,-942.0,-361.0
-1.0,-244.0,-82.0,-88.0,119.0,21.0,32.0,-938.0,-368.0
2.0,-242.0,-82.0,-91.0,121.0,21.0,26.0,-940.0,-369.0
1.0,-243.0,-83.0,-95.0,122.0,22.0,35.0,-935.0,-367.0
-1.0,-242.0,-84.0,-95.0,122.0,23.0,28.0,-934.0,-369.0
0.0,-242.0,-85.0,-96.0,122.0,22.0,33.0,-935.0,-372.0
2.0,-243.0,-82.0,-96.0,122.0,23.0,27.0,-935.0,-367.0
0.0,-241.0,-82.0,-97.0,119.0,21.0,31.0,-931.0,-372.0
1.0,-240.0,-86.0,-100.0,117.0,20.0,32.0,-933.0,-371.0
0.0,-242.0,-84.0,-104.0,114.0,22.0,31.0,-929.0,-375.0
4.0,-240.0,-85.0,-106.0,113.0,22.0,31.0,-930.0,-379.0
0.0,-240.0,-83.0,-113.0,111.0,21.0,28.0,-928.0,-381.0
4.0,-239.0,-88.0,-119.0,112.0,22.0,30.0,-929.0,-388.0
2.0,-238.0,-86.0,-123.0,114.0,23.0,33.0,-927.0,-387.0
1.0,-237.0,-85.0,-126.0,116.0,22.0,29.0,-921.0,-384.0
1.0,-235.0,-84.0,-126.0,118.0,23.0,33.0,-918.0,-382.0
4.0,-240.0,-89.0,-126.0,121.0,22.0,31.0,-919.0,-386.0
3.0,-235.0,-87.0,-124.0,122.0,22.0,36.0,-913.0,-391.0
3.0,-236.0,-89.0,-127.0,124.0,22.0,31.0,-911.0,-395.0
2.0,-238.0,-92.0,-130.0,125.0,24.0,32.0,-908.0,-399.0
3.0,-236.0,-92.0,-138.0,128.0,25.0,35.0,-911.0,-398.0
3.0,-234.0,-92.0,-147.0,132.0,25.0,37.0,-910.0,-402.0
4.0,-234.0,-95.0,-156.0,135.0,29.0,35.0,-908.0,-404.0
2.0,-234.0,-95.0,-167.0,136.0,30.0,36.0,-904.0,-401.0
1.0,-232.0,-94.0,-176.0,137.0,30.0,39.0,-903.0,-398.0
4.0,-234.0,-95.0,-185.0,137.0,31.0,37.0,-902.0,-407.0
4.0,-231.0,-93.0,-194.0,137.0,34.0,31.0,-895.0,-406.0
4.0,-234.0,-96.0,-203.0,134.0,37.0,37.0,-899.0,-409.0
2.0,-232.0,-98.0,-212.0,134.0,39.0,34.0,-900.0,-412.0
2.0,-235.0,-96.0,-220.0,132.0,40.0,34.0,-899.0,-414.0
0.0,-233.0,-99.0,-222.0,129.0,41.0,37.0,-898.0,-416.0
0.0,-232.0,-94.0,-224.0,126.0,43.0,35.0,-906.0,-418.0
-2.0,-234.0,-99.0,-224.0,124.0,45.0,36.0,-902.0,-423.0
4.0,-234.0,-102.0,-224.0,123.0,47.0,34.0,-904.0,-422.0
-1.0,-234.0,-98.0,-225.0,122.0,48.0,34.0,-906.0,-446.0
3.0,-232.0,-102.0,-225.0,125.0,50.0,27.0,-901.0,-436.0
1.0,-234.0,-105.0,-227.0,126.0,53.0,31.0,-903.0,-452.0
1.0,-232.0,-104.0,-227.0,128.0,51.0,22.0,-896.0,-456.0
-3.0,-227.0,-104.0,-229.0,126.0,51.0,21.0,-898.0,-457.0
-3.0,-228.0,-104.0,-229.0,126.0,52.0,12.0,-882.0,-453.0
-4.0,-222.0,-103.0,-228.0,123.0,51.0,15.0,-873.0,-447.0
-6.0,-220.0,-101.0,-225.0,118.0,49.0,13.0,-860.0,-442.0
-5.0,-216.0,-100.0,-223.0,111.0,48.0,5.0,-847.0,-432.0
-6.0,-214.0,-101.0,-222.0,109.0,45.0,2.0,-838.0,-424.0
-5.0,-210.0,-98.0,-229.0,108.0,41.0,-3.0,-827.0,-416.0
-4.0,-209.0,-97.0,-238.0,108.0,38.0,-1.0,-822.0,-413.0
-7.0,-205.0,-94.0,-256.0,110.0,36.0,-4.0,-807.0,-409.0
-7.0,-203.0,-95.0,-282.0,112.0,34.0,-8.0,-796.0,-411.0
-9.0,-205.0,-95.0,-314.0,113.0,34.0,-2.0,-796.0,-410.0
-10.0,-199.0,-95.0,-355.0,114.0,32.0,-11.0,-795.0,-407.0
-7.0,-204.0,-98.0,-400.0,114.0,30.0,-4.0,-793.0,-419.0
-6.0,-203.0,-97.0,-449.0,112.0,31.0,-2.0,-804.0,-423.0
-7.0,-202.0,-100.0,-503.0,109.0,30.0,4.0,-799.0,-439.0
-5.0,-202.0,-105.0,-557.0,107.0,32.0,10.0,-801.0,-458.0
-2.0,-205.0,-112.0,-599.0,104.0,31.0,14.0,-813.0,-472.0
-3.0,-210.0,-114.0,-650.0,97.0,32.0,17.0,-814.0,-474.0
-4.0,-210.0,-116.0,-695.0,89.0,34.0,21.0,-825.0,-482.0
-3.0,-209.0,-113.0,-732.0,80.0,37.0,18.0,-829.0,-486.0
-4.0,-210.0,-115.0,-759.0,66.0,40.0,17.0,-835.0,-490.0
0.0,-214.0,-111.0,-775.0,52.0,44.0,26.0,-832.0,-487.0
-4.0,-213.0,-114.0,-782.0,39.0,45.0,23.0,-832.0,-489.0
0.0,-209.0,-113.0,-781.0,28.0,48.0,20.0,-832.0,-487.0
-1.0,-208.0,-114.0,-774.0,20.0,50.0,27.0,-824.0,-488.0
1.0,-204.0,-109.0,-762.0,15.0,51.0,16.0,-801.0,-480.0
-2.0,-205.0,-111.0,-748.0,10.0,53.0,15.0,-791.0,-472.0
-1.0,-199.0,-106.0,-735.0,5.0,52.0,13.0,-780.0,-466.0
-6.0,-196.0,-107.0,-720.0,-2.0,51.0,6.0,-758.0,-458.0
-8.0,-191.0,-101.0,-712.0,-9.0,46.0,2.0,-747.0,-447.0
-9.0,-191.0,-101.0,-713.0,-17.0,43.0,-1.0,-735.0,-433.0
-8.0,-187.0,-103.0,-727.0,-27.0,38.0,-1.0,-730.0,-435.0
-10.0,-185.0,-104.0,-754.0,-36.0,30.0,-10.0,-729.0,-427.0
-8.0,-189.0,-100.0,-797.0,-46.0,23.0,-1.0,-727.0,-431.0
-3.0,-190.0,-103.0,-854.0,-52.0,15.0,-6.0,-737.0,-441.0
-7.0,-192.0,-104.0,-924.0,-57.0,5.0,-10.0,-751.0,-449.0
-7.0,-196.0,-108.0,-1005.0,-59.0,-4.0,-13.0,-766.0,-463.0
-12.0,-199.0,-111.0,-1088.0,-60.0,-12.0,-16.0,-783.0,-472.0
-13.0,-204.0,-115.0,-1167.0,-62.0,-20.0,-14.0,-802.0,-488.0
-9.0,-211.0,-121.0,-1236.0,-67.0,-28.0,-13.0,-823.0,-498.0
-11.0,-216.0,-120.0,-1293.0,-72.0,-35.0,-12.0,-847.0,-510.0
-9.0,-222.0,-127.0,-1333.0,-76.0,-39.0,-8.0,-860.0,-530.0
-7.0,-229.0,-126.0,-1359.0,-76.0,-44.0,3.0,-879.0,-541.0
-4.0,-234.0,-129.0,-1371.0,-72.0,-47.0,-1.0,-898.0,-551.0
-7.0,-235.0,-129.0,-1366.0,-63.0,-49.0,8.0,-914.0,-561.0
-5.0,-242.0,-128.0,-1343.0,-49.0,-51.0,6.0,-920.0,-557.0
-5.0,-242.0,-131.0,-1303.0,-32.0,-49.0,12.0,-925.0,-561.0
0.0,-240.0,-129.0,-1249.0,-10.0,-46.0,19.0,-926.0,-549.0
-1.0,-243.0,-125.0,-1184.0,8.0,-45.0,27.0,-915.0,-540.0
1.0,-238.0,-125.0,-1110.0,23.0,-40.0,33.0,-915.0,-530.0
4.0,-240.0,-123.0,-1032.0,32.0,-37.0,34.0,-909.0,-522.0
4.0,-237.0,-122.0,-958.0,33.0,-34.0,44.0,-898.0,-520.0
4.0,-230.0,-121.0,-893.0,26.0,-28.0,50.0,-896.0,-520.0
5.0,-229.0,-123.0,-843.0,13.0,-21.0,48.0,-885.0,-519.0
4.0,-229.0,-124.0,-809.0,-6.0,-11.0,44.0,-878.0,-529.0
3.0,-227.0,-127.0,-794.0,-26.0,2.0,42.0,-870.0,-534.0
4.0,-223.0,-128.0,-795.0,-44.0,12.0,40.0,-859.0,-540.0
0.0,-217.0,-128.0,-808.0,-63.0,22.0,33.0,-855.0,-542.0
3.0,-217.0,-128.0,-833.0,-79.0,31.0,32.0,-849.0,-539.0
-1.0,-216.0,-126.0,-857.0,-90.0,40.0,26.0,-847.0,-546.0
0.0,-216.0,-126.0,-891.0,-100.0,46.0,31.0,-840.0,-543.0
1.0,-217.0,-130.0,-927.0,-105.0,51.0,20.0,-841.0,-543.0
-3.0,-215.0,-129.0,-959.0,-103.0,52.0,21.0,-840.0,-544.0
-4.0,-215.0,-131.0,-988.0,-95.0,53.0,16.0,-846.0,-552.0
-6.0,-216.0,-134.0,-1013.0,-83.0,50.0,2.0,-843.0,-557.0
-8.0,-218.0,-134.0,-1031.0,-67.0,48.0,-10.0,-854.0,-569.0
-8.0,-220.0,-136.0,-1043.0,-56.0,43.0,-12.0,-858.0,-589.0
-12.0,-223.0,-138.0,-1047.0,-44.0,37.0,-14.0,-868.0,-592.0
-12.0,-225.0,-142.0,-1042.0,-36.0,33.0,-19.0,-875.0,-606.0
-11.0,-229.0,-144.0,-1027.0,-31.0,25.0,-19.0,-887.0,-619.0
-10.0,-231.0,-146.0,-1005.0,-28.0,21.0,-11.0,-890.0,-634.0
-8.0,-234.0,-151.0,-974.0,-24.0,17.0,-15.0,-888.0,-641.0
-11.0,-231.0,-151.0,-930.0,-17.0,17.0,-12.0,-892.0,-642.0
-11.0,-231.0,-149.0,-872.0,-9.0,15.0,-6.0,-887.0,-643.0
-8.0,-233.0,-149.0,-801.0,2.0,15.0,-7.0,-890.0,-640.0
-8.0,-231.0,-149.0,-719.0,11.0,15.0,-7.0,-883.0,-627.0
-13.0,-230.0,-148.0,-630.0,19.0,15.0,-8.0,-869.0,-616.0
-10.0,-229.0,-143.0,-539.0,23.0,21.0,-7.0,-880.0,-611.0
-4.0,-227.0,-140.0,-450.0,22.0,29.0,-1.0,-868.0,-600.0
-5.0,-223.0,-142.0,-372.0,18.0,32.0,-1.0,-858.0,-602.0
-5.0,-220.0,-141.0,-305.0,12.0,36.0,5.0,-850.0,-595.0
-3.0,-215.0,-138.0,-256.0,5.0,41.0,5.0,-830.0,-594.0
-4.0,-212.0,-141.0,-216.0,0.0,45.0,14.0,-826.0,-592.0
-2.0,-208.0,-139.0,-193.0,-5.0,45.0,24.0,-819.0,-597.0
1.0,-210.0,-142.0,-185.0,-6.0,42.0,28.0,-801.0,-604.0
-1.0,-206.0,-143.0,-189.0,-6.0,38.0,25.0,-804.0,-608.0
-1.0,-206.0,-148.0,-202.0,-4.0,32.0,25.0,-802.0,-618.0
2.0,-208.0,-149.0,-222.0,4.0,27.0,25.0,-804.0,-629.0
1.0,-204.0,-147.0,-247.0,10.0,21.0,23.0,-803.0,-639.0
0.0,-210.0,-152.0,-260.0,15.0,16.0,26.0,-810.0,-646.0
0.0,-208.0,-151.0,-262.0,19.0,3.0,20.0,-797.0,-645.0
-4.0,-210.0,-154.0,-249.0,20.0,-10.0,20.0,-816.0,-658.0
-7.0,-209.0,-153.0,-228.0,20.0,-24.0,8.0,-817.0,-653.0
-4.0,-213.0,-148.0,-194.0,21.0,-27.0,8.0,-818.0,-653.0
-7.0,-215.0,-149.0,-149.0,19.0,-32.0,4.0,-825.0,-646.0
-10.0,-216.0,-148.0,-88.0,15.0,-39.0,-1.0,-820.0,-643.0
-10.0,-219.0,-153.0,-15.0,14.0,-40.0,-9.0,-832.0,-643.0
-10.0,-217.0,-153.0,59.0,12.0,-37.0,-17.0,-837.0,-643.0
-12.0,-218.0,-149.0,133.0,12.0,-34.0,-17.0,-832.0,-640.0
-12.0,-219.0,-149.0,206.0,11.0,-31.0,-24.0,-840.0,-641.0
-16.0,-219.0,-150.0,273.0,9.0,-35.0,-24.0,-850.0,-640.0
-16.0,-220.0,-148.0,330.0,9.0,-37.0,-31.0,-851.0,-646.0
-14.0,-220.0,-151.0,379.0,10.0,-36.0,-32.0,-851.0,-647.0
-15.0,-220.0,-150.0,412.0,11.0,-36.0,-29.0,-851.0,-647.0
-13.0,-224.0,-150.0,451.0,14.0,-39.0,-24.0,-857.0,-654.0
-16.0,-223.0,-152.0,480.0,18.0,-43.0,-22.0,-852.0,-651.0
-13.0,-221.0,-153.0,505.0,23.0,-45.0,-22.0,-849.0,-657.0
-12.0,-218.0,-158.0,522.0,33.0,-49.0,-22.0,-843.0,-662.0
-14.0,-214.0,-154.0,533.0,46.0,-54.0,-24.0,-837.0,-654.0
-11.0,-213.0,-152.0,541.0,59.0,-52.0,-16.0,-825.0,-656.0
-10.0,-208.0,-155.0,549.0,70.0,-61.0,-20.0,-804.0,-644.0
-12.0,-203.0,-154.0,550.0,79.0,-70.0,-18.0,-787.0,-643.0
-7.0,-198.0,-160.0,540.0,86.0,-72.0,-22.0,-790.0,-642.0
-7.0,-201.0,-148.0,521.0,94.0,-77.0,-11.0,-789.0,-640.0
-8.0,-202.0,-146.0,497.0,96.0,-86.0,-15.0,-780.0,-630.0
-6.0,-203.0,-149.0,470.0,97.0,-93.0,-6.0,-782.0,-626.0
-8.0,-200.0,-143.0,438.0,100.0,-98.0,-6.0,-777.0,-627.0
-7.0,-200.0,-149.0,407.0,101.0,-102.0,-2.0,-786.0,-627.0
-6.0,-201.0,-149.0,381.0,98.0,-104.0,-8.0,-778.0,-635.0
-7.0,-202.0,-151.0,357.0,95.0,-104.0,0.0,-782.0,-645.0
-11.0,-200.0,-147.0,338.0,94.0,-99.0,0.0,-777.0,-648.0
-3.0,-209.0,-155.0,325.0,96.0,-85.0,11.0,-813.0,-659.0
-6.0,-211.0,-155.0,315.0,94.0,-79.0,8.0,-815.0,-662.0
-5.0,-212.0,-154.0,308.0,89.0,-74.0,6.0,-827.0,-665.0
-6.0,-216.0,-157.0,305.0,83.0,-63.0,11.0,-836.0,-676.0
-9.0,-213.0,-153.0,310.0,77.0,-62.0,1.0,-829.0,-661.0
-9.0,-214.0,-159.0,324.0,71.0,-60.0,-13.0,-822.0,-659.0
-11.0,-212.0,-155.0,339.0,69.0,-54.0,-18.0,-822.0,-664.0
-11.0,-211.0,-160.0,352.0,69.0,-44.0,-13.0,-824.0,-665.0
-13.0,-206.0,-156.0,360.0,71.0,-41.0,-18.0,-802.0,-653.0
-11.0,-204.0,-153.0,352.0,72.0,-43.0,-29.0,-796.0,-652.0
-11.0,-201.0,-151.0,331.0,76.0,-45.0,-27.0,-781.0,-647.0
-17.0,-197.0,-150.0,303.0,81.0,-37.0,-43.0,-774.0,-648.0
-19.0,-199.0,-148.0,267.0,87.0,-30.0,-48.0,-773.0,-646.0
-20.0,-199.0,-150.0,221.0,88.0,-26.0,-54.0,-767.0,-637.0
-17.0,-197.0,-155.0,173.0,92.0,-20.0,-38.0,-787.0,-638.0
-16.0,-199.0,-148.0,128.0,98.0,-23.0,-35.0,-784.0,-624.0
-14.0,-202.0,-146.0,84.0,103.0,-34.0,-33.0,-789.0,-629.0
-19.0,-205.0,-148.0,47.0,113.0,-44.0,-48.0,-803.0,-632.0
-14.0,-210.0,-148.0,19.0,125.0,-37.0,-40.0,-826.0,-637.0
-14.0,-211.0,-150.0,-4.0,134.0,-42.0,-42.0,-822.0,-642.0
-17.0,-214.0,-152.0,-22.0,142.0,-48.0,-39.0,-831.0,-644.0
-23.0,-203.0,-144.0,-35.0,149.0,-51.0,-40.0,-830.0,-642.0
-12.0,-217.0,-149.0,-37.0,157.0,-47.0,-21.0,-847.0,-651.0
-10.0,-219.0,-157.0,-37.0,159.0,-61.0,-22.0,-848.0,-653.0
-10.0,-221.0,-155.0,-30.0,166.0,-75.0,-21.0,-850.0,-654.0
-15.0,-215.0,-152.0,-18.0,173.0,-81.0,-33.0,-842.0,-655.0
-7.0,-223.0,-153.0,-1.0,179.0,-69.0,-12.0,-860.0,-652.0
-8.0,-221.0,-154.0,7.0,178.0,-76.0,-11.0,-859.0,-656.0
-8.0,-221.0,-154.0,11.0,180.0,-78.0,-13.0,-856.0,-658.0
-7.0,-224.0,-156.0,12.0,183.0,-72.0,-4.0,-858.0,-665.0
-4.0,-218.0,-146.0,17.0,182.0,-73.0,10.0,-854.0,-651.0
-4.0,-219.0,-151.0,10.0,177.0,-83.0,13.0,-851.0,-653.0
-1.0,-218.0,-150.0,8.0,174.0,-91.0,13.0,-843.0,-646.0
-2.0,-217.0,-150.0,12.0,170.0,-93.0,13.0,-839.0,-638.0
-7.0,-213.0,-152.0,19.0,166.0,-85.0,13.0,-845.0,-650.0
-5.0,-219.0,-147.0,19.0,159.0,-76.0,17.0,-839.0,-638.0
-4.0,-213.0,-149.0,11.0,148.0,-83.0,7.0,-834.0,-637.0
-2.0,-211.0,-149.0,0.0,139.0,-82.0,11.0,-824.0,-627.0
-8.0,-212.0,-146.0,-13.0,131.0,-84.0,-7.0,-818.0,-629.0
-6.0,-209.0,-149.0,-29.0,128.0,-74.0,6.0,-821.0,-626.0
-14.0,-200.0,-141.0,-45.0,124.0,-65.0,-9.0,-797.0,-624.0
-3.0,-209.0,-149.0,-57.0,123.0,-50.0,8.0,-824.0,-634.0
-5.0,-209.0,-146.0,-74.0,118.0,-53.0,2.0,-812.0,-631.0
-6.0,-207.0,-147.0,-89.0,121.0,-56.0,-6.0,-809.0,-635.0
-9.0,-205.0,-149.0,-104.0,124.0,-56.0,-6.0,-809.0,-635.0
-9.0,-210.0,-151.0,-118.0,130.0,-54.0,-6.0,-803.0,-635.0
-3.0,-215.0,-152.0,-126.0,136.0,-42.0,-3.0,-838.0,-644.0
-5.0,-214.0,-148.0,-133.0,138.0,-37.0,4.0,-831.0,-639.0
-7.0,-215.0,-150.0,-143.0,144.0,-46.0,-6.0,-835.0,-646.0
-9.0,-216.0,-151.0,-152.0,151.0,-50.0,-13.0,-837.0,-646.0
-10.0,-217.0,-148.0,-159.0,154.0,-46.0,-1.0,-842.0,-648.0
-10.0,-221.0,-153.0,-155.0,153.0,-58.0,-12.0,-850.0,-653.0
-17.0,-218.0,-153.0,-148.0,154.0,-62.0,-37.0,-846.0,-655.0
-9.0,-225.0,-152.0,-141.0,151.0,-45.0,-8.0,-868.0,-649.0
-10.0,-220.0,-155.0,-134.0,141.0,-39.0,-4.0,-866.0,-651.0
-6.0,-221.0,-150.0,-128.0,131.0,-35.0,2.0,-859.0,-647.0
-8.0,-218.0,-154.0,-120.0,125.0,-35.0,-1.0,-850.0,-660.0
-8.0,-221.0,-147.0,-114.0,124.0,-34.0,2.0,-840.0,-653.0
-3.0,-217.0,-155.0,-113.0,125.0,-27.0,4.0,-836.0,-656.0
-16.0,-208.0,-156.0,-111.0,125.0,-19.0,-125.0,-740.0,-606.0
5.0,-220.0,-151.0,-90.0,121.0,22.0,40.0,-841.0,-635.0
2.0,-213.0,-148.0,-92.0,119.0,1.0,29.0,-832.0,-647.0
1.0,-214.0,-149.0,-100.0,123.0,-9.0,25.0,-823.0,-646.0
1.0,-211.0,-155.0,-108.0,126.0,-13.0,24.0,-828.0,-644.0
1.0,-213.0,-151.0,-114.0,124.0,-13.0,16.0,-824.0,-644.0
-1.0,-213.0,-151.0,-120.0,121.0,-10.0,12.0,-826.0,-645.0
-4.0,-215.0,-154.0,-119.0,120.0,-20.0,34.0,-813.0,-643.0
-2.0,-219.0,-153.0,-122.0,121.0,-18.0,-4.0,-838.0,-651.0
-1.0,-217.0,-156.0,-129.0,115.0,-4.0,22.0,-839.0,-648.0
2.0,-213.0,-153.0,-136.0,109.0,4.0,33.0,-840.0,-649.0
2.0,-215.0,-154.0,-140.0,107.0,6.0,32.0,-838.0,-651.0
2.0,-214.0,-154.0,-144.0,105.0,10.0,36.0,-837.0,-657.0
2.0,-212.0,-154.0,-150.0,106.0,8.0,36.0,-830.0,-654.0
3.0,-213.0,-154.0,-159.0,111.0,6.0,38.0,-827.0,-653.0
4.0,-213.0,-149.0,-167.0,119.0,4.0,39.0,-829.0,-649.0
3.0,-211.0,-149.0,-173.0,126.0,1.0,37.0,-824.0,-644.0
5.0,-211.0,-151.0,-179.0,133.0,-3.0,39.0,-816.0,-640.0
4.0,-210.0,-150.0,-182.0,138.0,-3.0,45.0,-810.0,-629.0
7.0,-211.0,-142.0,-183.0,143.0,-5.0,45.0,-807.0,-623.0
1.0,-211.0,-160.0,-182.0,147.0,-5.0,43.0,-795.0,-624.0
4.0,-207.0,-146.0,-177.0,148.0,-7.0,42.0,-797.0,-616.0
5.0,-205.0,-142.0,-171.0,145.0,-6.0,40.0,-793.0,-613.0
1.0,-206.0,-142.0,-162.0,141.0,-5.0,36.0,-796.0,-615.0
4.0,-209.0,-146.0,-152.0,138.0,-2.0,37.0,-793.0,-615.0
2.0,-207.0,-144.0,-141.0,132.0,2.0,34.0,-800.0,-618.0
4.0,-209.0,-149.0,-132.0,128.0,8.0,37.0,-797.0,-618.0
4.0,-205.0,-150.0,-122.0,121.0,13.0,33.0,-795.0,-621.0
3.0,-208.0,-147.0,-115.0,117.0,18.0,38.0,-790.0,-631.0
5.0,-204.0,-150.0,-109.0,113.0,23.0,34.0,-789.0,-634.0
4.0,-202.0,-150.0,-109.0,110.0,28.0,35.0,-788.0,-639.0
4.0,-202.0,-151.0,-107.0,109.0,32.0,37.0,-791.0,-646.0
4.0,-204.0,-150.0,-105.0,106.0,34.0,36.0,-786.0,-639.0
4.0,-204.0,-149.0,-102.0,105.0,34.0,37.0,-786.0,-644.0
3.0,-200.0,-152.0,-99.0,104.0,33.0,34.0,-786.0,-644.0
5.0,-204.0,-149.0,-95.0,105.0,32.0,36.0,-780.0,-642.0
5.0,-203.0,-149.0,-88.0,107.0,31.0,45.0,-781.0,-642.0
4.0,-201.0,-148.0,-80.0,110.0,28.0,41.0,-776.0,-644.0
5.0,-202.0,-147.0,-74.0,114.0,24.0,44.0,-785.0,-646.0
5.0,-207.0,-150.0,-67.0,118.0,20.0,46.0,-780.0,-645.0
6.0,-204.0,-152.0,-61.0,122.0,18.0,42.0,-787.0,-646.0
4.0,-203.0,-152.0,-55.0,127.0,14.0,44.0,-780.0,-649.0
6.0,-203.0,-147.0,-50.0,128.0,14.0,50.0,-776.0,-648.0
6.0,-199.0,-155.0,-48.0,129.0,15.0,51.0,-778.0,-655.0
6.0,-202.0,-155.0,-47.0,126.0,12.0,52.0,-776.0,-653.0
5.0,-202.0,-152.0,-49.0,127.0,10.0,48.0,-774.0,-657.0
6.0,-193.0,-144.0,-42.0,129.0,-13.0,118.0,-722.0,-621.0
-5.0,-208.0,-152.0,-21.0,145.0,-46.0,-18.0,-802.0,-660.0
4.0,-205.0,-156.0,-34.0,134.0,-12.0,42.0,-798.0,-662.0
5.0,-201.0,-152.0,-52.0,119.0,4.0,44.0,-789.0,-660.0
3.0,-202.0,-155.0,-61.0,113.0,11.0,42.0,-773.0,-665.0
4.0,-200.0,-159.0,-71.0,112.0,12.0,34.0,-766.0,-672.0
4.0,-202.0,-158.0,-76.0,111.0,14.0,35.0,-766.0,-675.0
4.0,-201.0,-159.0,-80.0,112.0,15.0,40.0,-776.0,-670.0
1.0,-200.0,-157.0,-82.0,111.0,16.0,40.0,-777.0,-671.0
2.0,-202.0,-157.0,-82.0,113.0,16.0,38.0,-778.0,-668.0
6.0,-201.0,-153.0,-80.0,114.0,16.0,45.0,-775.0,-672.0
7.0,-201.0,-155.0,-79.0,115.0,17.0,46.0,-771.0,-667.0
4.0,-200.0,-159.0,-78.0,114.0,16.0,45.0,-767.0,-669.0
3.0,-199.0,-152.0,-76.0,116.0,16.0,47.0,-766.0,-667.0
4.0,-198.0,-157.0,-74.0,114.0,12.0,50.0,-764.0,-667.0
4.0,-199.0,-161.0,-71.0,115.0,12.0,44.0,-762.0,-665.0
4.0,-196.0,-156.0,-70.0,113.0,11.0,39.0,-764.0,-665.0
5.0,-198.0,-158.0,-69.0,112.0,10.0,43.0,-761.0,-668.0
10.0,-193.0,-155.0,-67.0,111.0,9.0,44.0,-761.0,-668.0
5.0,-193.0,-155.0,-68.0,110.0,8.0,40.0,-754.0,-663.0
4.0,-195.0,-159.0,-69.0,109.0,5.0,42.0,-754.0,-662.0
4.0,-196.0,-155.0,-71.0,108.0,4.0,39.0,-763.0,-655.0
4.0,-197.0,-153.0,-70.0,106.0,3.0,42.0,-759.0,-657.0
6.0,-198.0,-153.0,-69.0,105.0,2.0,44.0,-760.0,-658.0
4.0,-201.0,-155.0,-66.0,103.0,1.0,44.0,-765.0,-658.0
5.0,-198.0,-156.0,-61.0,101.0,-2.0,43.0,-765.0,-658.0
4.0,-199.0,-156.0,-54.0,97.0,-4.0,42.0,-765.0,-655.0
4.0,-201.0,-155.0,-48.0,98.0,-4.0,46.0,-766.0,-662.0
6.0,-199.0,-158.0,-45.0,96.0,-6.0,48.0,-767.0,-671.0
4.0,-196.0,-157.0,-40.0,96.0,-5.0,47.0,-765.0,-676.0
5.0,-197.0,-158.0,-39.0,96.0,-5.0,44.0,-766.0,-673.0
4.0,-197.0,-159.0,-37.0,96.0,-3.0,46.0,-761.0,-679.0
4.0,-198.0,-162.0,-37.0,95.0,-1.0,43.0,-762.0,-680.0
4.0,-196.0,-162.0,-35.0,94.0,1.0,46.0,-766.0,-674.0
7.0,-198.0,-158.0,-33.0,92.0,6.0,48.0,-769.0,-679.0
5.0,-201.0,-161.0,-29.0,92.0,8.0,47.0,-767.0,-674.0
5.0,-195.0,-157.0,-24.0,89.0,9.0,42.0,-764.0,-672.0
5.0,-200.0,-159.0,-16.0,86.0,11.0,45.0,-767.0,-670.0
4.0,-199.0,-156.0,-11.0,82.0,13.0,38.0,-765.0,-667.0
2.0,-205.0,-158.0,-4.0,80.0,14.0,47.0,-761.0,-669.0
4.0,-196.0,-158.0,0.0,79.0,15.0,44.0,-762.0,-668.0
3.0,-198.0,-156.0,4.0,76.0,15.0,44.0,-764.0,-677.0
5.0,-198.0,-158.0,7.0,74.0,16.0,36.0,-759.0,-663.0
2.0,-197.0,-156.0,8.0,72.0,15.0,40.0,-762.0,-663.0
6.0,-198.0,-159.0,7.0,72.0,13.0,34.0,-759.0,-667.0
4.0,-197.0,-156.0,7.0,73.0,14.0,36.0,-760.0,-674.0
4.0,-198.0,-155.0,6.0,73.0,11.0,38.0,-753.0,-663.0
2.0,-197.0,-155.0,4.0,75.0,11.0,39.0,-759.0,-669.0
9.0,-195.0,-155.0,3.0,76.0,7.0,46.0,-753.0,-665.0
3.0,-195.0,-153.0,1.0,79.0,3.0,41.0,-754.0,-665.0
4.0,-193.0,-155.0,2.0,80.0,1.0,49.0,-754.0,-673.0
5.0,-192.0,-159.0,2.0,82.0,0.0,51.0,-751.0,-669.0
6.0,-193.0,-157.0,3.0,81.0,-1.0,52.0,-750.0,-664.0
7.0,-194.0,-160.0,3.0,83.0,-1.0,51.0,-748.0,-665.0
6.0,-196.0,-154.0,5.0,81.0,0.0,54.0,-748.0,-662.0
6.0,-193.0,-157.0,6.0,79.0,0.0,53.0,-749.0,-667.0
6.0,-194.0,-157.0,9.0,77.0,-1.0,49.0,-751.0,-663.0
6.0,-194.0,-162.0,9.0,77.0,-2.0,51.0,-742.0,-661.0
7.0,-194.0,-157.0,10.0,75.0,0.0,50.0,-749.0,-661.0
6.0,-193.0,-153.0,11.0,75.0,1.0,53.0,-748.0,-657.0
6.0,-193.0,-153.0,12.0,73.0,2.0,51.0,-750.0,-662.0
5.0,-196.0,-158.0,13.0,74.0,3.0,51.0,-749.0,-661.0
4.0,-195.0,-152.0,13.0,73.0,3.0,53.0,-753.0,-657.0
4.0,-195.0,-152.0,15.0,74.0,4.0,49.0,-757.0,-652.0
4.0,-193.0,-152.0,16.0,74.0,4.0,47.0,-759.0,-651.0
4.0,-199.0,-152.0,20.0,74.0,3.0,51.0,-762.0,-657.0
6.0,-196.0,-153.0,23.0,74.0,2.0,47.0,-760.0,-648.0
5.0,-197.0,-151.0,28.0,72.0,1.0,49.0,-763.0,-654.0
5.0,-195.0,-153.0,31.0,70.0,3.0,44.0,-757.0,-657.0
5.0,-197.0,-153.0,35.0,69.0,2.0,36.0,-761.0,-662.0
5.0,-195.0,-155.0,39.0,68.0,2.0,38.0,-761.0,-660.0
4.0,-195.0,-152.0,42.0,66.0,1.0,41.0,-761.0,-669.0
4.0,-197.0,-161.0,44.0,64.0,1.0,41.0,-762.0,-673.0
4.0,-195.0,-163.0,44.0,65.0,1.0,40.0,-761.0,-674.0
4.0,-197.0,-158.0,43.0,63.0,1.0,46.0,-762.0,-687.0
3.0,-194.0,-159.0,41.0,64.0,0.0,40.0,-761.0,-682.0
6.0,-194.0,-158.0,38.0,65.0,-1.0,43.0,-757.0,-682.0
4.0,-196.0,-158.0,36.0,65.0,-2.0,39.0,-760.0,-679.0
4.0,-196.0,-163.0,35.0,64.0,-1.0,37.0,-750.0,-679.0
3.0,-193.0,-158.0,32.0,64.0,-2.0,37.0,-755.0,-678.0
5.0,-195.0,-159.0,29.0,63.0,-1.0,39.0,-756.0,-678.0
5.0,-197.0,-157.0,24.0,64.0,-1.0,34.0,-758.0,-679.0
3.0,-196.0,-157.0,21.0,66.0,-2.0,35.0,-758.0,-675.0
1.0,-190.0,-160.0,17.0,67.0,-4.0,31.0,-756.0,-677.0
2.0,-196.0,-159.0,13.0,66.0,-4.0,31.0,-750.0,-671.0
0.0,-195.0,-155.0,10.0,68.0,-3.0,28.0,-755.0,-674.0
2.0,-197.0,-154.0,8.0,69.0,-3.0,24.0,-759.0,-658.0
4.0,-198.0,-158.0,4.0,68.0,-4.0,30.0,-754.0,-659.0
4.0,-194.0,-155.0,3.0,67.0,-4.0,27.0,-754.0,-661.0
0.0,-193.0,-154.0,0.0,66.0,-5.0,25.0,-754.0,-657.0
4.0,-197.0,-155.0,0.0,65.0,-5.0,29.0,-758.0,-656.0
0.0,-194.0,-156.0,0.0,65.0,-5.0,29.0,-762.0,-659.0
2.0,-197.0,-156.0,-1.0,62.0,-4.0,27.0,-761.0,-658.0
-1.0,-198.0,-155.0,-1.0,60.0,-3.0,26.0,-767.0,-662.0
1.0,-195.0,-157.0,0.0,57.0,-2.0,26.0,-762.0,-660.0
2.0,-199.0,-156.0,2.0,54.0,-3.0,30.0,-759.0,-669.0
2.0,-196.0,-158.0,4.0,53.0,-1.0,30.0,-762.0,-676.0
2.0,-195.0,-157.0,5.0,53.0,-2.0,31.0,-764.0,-674.0
3.0,-198.0,-157.0,3.0,51.0,-1.0,33.0,-758.0,-680.0
4.0,-197.0,-160.0,-1.0,51.0,-1.0,35.0,-761.0,-678.0
4.0,-196.0,-160.0,-4.0,52.0,-3.0,36.0,-759.0,-681.0
2.0,-195.0,-157.0,-8.0,56.0,-5.0,37.0,-762.0,-674.0
5.0,-197.0,-159.0,-11.0,61.0,-6.0,34.0,-766.0,-670.0
5.0,-198.0,-152.0,-12.0,65.0,-9.0,39.0,-764.0,-664.0
2.0,-196.0,-157.0,-12.0,71.0,-8.0,42.0,-763.0,-661.0
3.0,-201.0,-145.0,-10.0,76.0,-9.0,36.0,-768.0,-657.0
2.0,-196.0,-154.0,-4.0,80.0,-10.0,37.0,-764.0,-651.0
2.0,-197.0,-153.0,3.0,84.0,-11.0,35.0,-761.0,-650.0
4.0,-197.0,-150.0,10.0,87.0,-11.0,35.0,-762.0,-639.0
4.0,-197.0,-148.0,16.0,88.0,-10.0,30.0,-762.0,-645.0
3.0,-196.0,-150.0,23.0,88.0,-11.0,35.0,-762.0,-645.0
3.0,-196.0,-150.0,28.0,87.0,-9.0,32.0,-761.0,-644.0
3.0,-197.0,-152.0,31.0,85.0,-9.0,30.0,-758.0,-647.0
3.0,-196.0,-154.0,34.0,83.0,-7.0,36.0,-754.0,-647.0
1.0,-194.0,-151.0,34.0,82.0,-8.0,33.0,-757.0,-647.0
2.0,-194.0,-153.0,35.0,80.0,-5.0,34.0,-753.0,-648.0
4.0,-196.0,-151.0,33.0,78.0,-3.0,34.0,-754.0,-652.0
3.0,-195.0,-153.0,31.0,77.0,-4.0,29.0,-756.0,-648.0
4.0,-194.0,-153.0,29.0,76.0,-2.0,32.0,-750.0,-654.0
4.0,-194.0,-153.0,26.0,75.0,-2.0,35.0,-761.0,-654.0
5.0,-197.0,-158.0,24.0,74.0,-1.0,32.0,-759.0,-660.0
3.0,-195.0,-156.0,22.0,72.0,-2.0,33.0,-756.0,-650.0
1.0,-196.0,-157.0,19.0,71.0,-4.0,34.0,-758.0,-663.0
2.0,-196.0,-159.0,16.0,71.0,-4.0,33.0,-757.0,-667.0
1.0,-198.0,-156.0,13.0,70.0,-4.0,34.0,-762.0,-662.0
4.0,-198.0,-156.0,9.0,69.0,-4.0,36.0,-757.0,-664.0
1.0,-197.0,-158.0,4.0,70.0,-3.0,35.0,-759.0,-663.0
4.0,-201.0,-157.0,-1.0,68.0,-3.0,35.0,-759.0,-666.0
3.0,-197.0,-156.0,-2.0,68.0,-4.0,33.0,-766.0,-671.0
4.0,-200.0,-156.0,-2.0,69.0,-3.0,31.0,-771.0,-667.0
2.0,-199.0,-156.0,-2.0,70.0,-2.0,37.0,-772.0,-664.0
-1.0,-197.0,-156.0,-1.0,72.0,-1.0,34.0,-770.0,-662.0
1.0,-201.0,-157.0,0.0,72.0,1.0,37.0,-774.0,-666.0
4.0,-199.0,-157.0,2.0,73.0,-1.0,28.0,-773.0,-659.0
3.0,-201.0,-155.0,3.0,75.0,-1.0,29.0,-769.0,-667.0
1.0,-200.0,-157.0,3.0,76.0,0.0,32.0,-773.0,-662.0
4.0,-201.0,-153.0,4.0,75.0,-1.0,28.0,-774.0,-663.0
4.0,-199.0,-156.0,4.0,75.0,0.0,28.0,-769.0,-661.0
4.0,-199.0,-157.0,6.0,73.0,-2.0,33.0,-769.0,-664.0
4.0,-200.0,-156.0,7.0,71.0,-2.0,30.0,-768.0,-660.0
4.0,-198.0,-155.0,6.0,69.0,-1.0,28.0,-763.0,-658.0
4.0,-198.0,-158.0,5.0,68.0,-3.0,33.0,-765.0,-660.0
3.0,-195.0,-156.0,5.0,67.0,-4.0,34.0,-768.0,-653.0
1.0,-198.0,-151.0,4.0,67.0,-3.0,32.0,-766.0,-654.0
2.0,-196.0,-153.0,5.0,68.0,-4.0,32.0,-763.0,-649.0
4.0,-200.0,-154.0,5.0,67.0,-5.0,29.0,-765.0,-648.0
2.0,-197.0,-152.0,6.0,70.0,-5.0,30.0,-767.0,-649.0
2.0,-197.0,-153.0,6.0,73.0,-6.0,32.0,-765.0,-645.0
-5.0,-194.0,-154.0,9.0,75.0,-7.0,34.0,-764.0,-649.0
4.0,-195.0,-148.0,10.0,78.0,-7.0,28.0,-763.0,-650.0
3.0,-198.0,-155.0,12.0,79.0,-8.0,24.0,-769.0,-646.0
4.0,-198.0,-150.0,17.0,80.0,-7.0,28.0,-764.0,-644.0
0.0,-199.0,-153.0,18.0,80.0,-7.0,29.0,-771.0,-654.0
3.0,-199.0,-154.0,18.0,80.0,-7.0,31.0,-766.0,-652.0
3.0,-198.0,-152.0,20.0,79.0,-8.0,31.0,-767.0,-649.0
3.0,-201.0,-155.0,19.0,77.0,-6.0,31.0,-766.0,-654.0
4.0,-196.0,-151.0,17.0,77.0,-7.0,35.0,-769.0,-657.0
2.0,-198.0,-151.0,15.0,75.0,-6.0,32.0,-768.0,-658.0
4.0,-197.0,-153.0,13.0,75.0,-6.0,29.0,-775.0,-654.0
1.0,-201.0,-151.0,11.0,75.0,-5.0,31.0,-767.0,-654.0
2.0,-199.0,-152.0,9.0,76.0,-2.0,31.0,-778.0,-654.0
3.0,-199.0,-153.0,9.0,76.0,-3.0,31.0,-775.0,-650.0
4.0,-201.0,-153.0,11.0,76.0,-3.0,35.0,-774.0,-650.0
4.0,-200.0,-151.0,14.0,76.0,-4.0,34.0,-770.0,-651.0
3.0,-201.0,-149.0,20.0,76.0,-5.0,34.0,-772.0,-652.0
2.0,-198.0,-149.0,27.0,76.0,-2.0,34.0,-771.0,-648.0
4.0,-200.0,-153.0,34.0,79.0,-2.0,36.0,-771.0,-652.0
1.0,-201.0,-154.0,39.0,79.0,-1.0,35.0,-770.0,-649.0
4.0,-200.0,-153.0,41.0,79.0,-3.0,37.0,-775.0,-652.0
3.0,-200.0,-154.0,43.0,79.0,-1.0,33.0,-769.0,-649.0
6.0,-200.0,-147.0,44.0,75.0,-1.0,36.0,-771.0,-648.0
2.0,-197.0,-148.0,43.0,69.0,0.0,39.0,-768.0,-652.0
2.0,-197.0,-154.0,41.0,65.0,0.0,39.0,-762.0,-652.0
1.0,-197.0,-153.0,39.0,59.0,-1.0,33.0,-762.0,-651.0
4.0,-197.0,-153.0,37.0,55.0,1.0,36.0,-765.0,-649.0
3.0,-197.0,-152.0,35.0,53.0,1.0,28.0,-765.0,-656.0
4.0,-200.0,-151.0,30.0,52.0,1.0,35.0,-770.0,-655.0
3.0,-201.0,-153.0,28.0,53.0,1.0,29.0,-771.0,-650.0
1.0,-199.0,-153.0,25.0,55.0,-1.0,31.0,-777.0,-649.0
4.0,-203.0,-157.0,21.0,58.0,-1.0,30.0,-777.0,-649.0
3.0,-200.0,-151.0,19.0,62.0,-2.0,31.0,-776.0,-649.0
4.0,-198.0,-153.0,16.0,66.0,-3.0,36.0,-776.0,-649.0
1.0,-200.0,-151.0,16.0,71.0,-3.0,33.0,-777.0,-648.0
3.0,-200.0,-151.0,14.0,73.0,-4.0,33.0,-771.0,-651.0
4.0,-197.0,-149.0,14.0,74.0,-5.0,29.0,-773.0,-644.0
4.0,-202.0,-152.0,14.0,76.0,-6.0,37.0,-772.0,-649.0
4.0,-200.0,-147.0,15.0,76.0,-6.0,36.0,-769.0,-652.0
4.0,-204.0,-151.0,14.0,77.0,-7.0,36.0,-775.0,-650.0
4.0,-199.0,-153.0,15.0,75.0,-6.0,37.0,-773.0,-651.0
3.0,-201.0,-151.0,13.0,73.0,-7.0,36.0,-771.0,-652.0
2.0,-201.0,-157.0,13.0,69.0,-7.0,33.0,-774.0,-651.0
4.0,-203.0,-151.0,11.0,65.0,-5.0,37.0,-774.0,-651.0
7.0,-202.0,-158.0,11.0,60.0,-5.0,32.0,-773.0,-650.0
4.0,-201.0,-151.0,12.0,56.0,-4.0,33.0,-773.0,-649.0
1.0,-202.0,-151.0,10.0,53.0,-5.0,28.0,-774.0,-646.0
2.0,-200.0,-152.0,10.0,49.0,-4.0,32.0,-773.0,-647.0
4.0,-203.0,-153.0,12.0,46.0,-4.0,32.0,-776.0,-644.0
4.0,-201.0,-152.0,12.0,45.0,-4.0,34.0,-781.0,-644.0
4.0,-202.0,-153.0,13.0,45.0,-4.0,34.0,-777.0,-643.0
2.0,-203.0,-154.0,15.0,47.0,-5.0,33.0,-773.0,-643.0
3.0,-201.0,-154.0,16.0,48.0,-8.0,32.0,-777.0,-642.0
0.0,-203.0,-151.0,18.0,51.0,-7.0,33.0,-773.0,-642.0
1.0,-200.0,-151.0,20.0,52.0,-7.0,37.0,-777.0,-638.0
3.0,-201.0,-153.0,20.0,56.0,-6.0,32.0,-775.0,-644.0
1.0,-200.0,-153.0,22.0,60.0,-6.0,32.0,-774.0,-641.0
3.0,-202.0,-148.0,23.0,63.0,-5.0,36.0,-775.0,-647.0
3.0,-201.0,-147.0,25.0,64.0,-6.0,36.0,-778.0,-639.0
2.0,-196.0,-151.0,26.0,66.0,-6.0,33.0,-769.0,-646.0
4.0,-201.0,-151.0,26.0,68.0,-5.0,33.0,-769.0,-645.0
3.0,-201.0,-149.0,27.0,70.0,-6.0,30.0,-774.0,-643.0
4.0,-202.0,-154.0,28.0,71.0,-5.0,35.0,-774.0,-644.0
4.0,-202.0,-152.0,30.0,72.0,-4.0,35.0,-777.0,-644.0
1.0,-200.0,-146.0,30.0,72.0,-5.0,33.0,-776.0,-645.0
4.0,-202.0,-151.0,32.0,70.0,-4.0,31.0,-777.0,-644.0
-2.0,-191.0,-149.0,34.0,70.0,-4.0,30.0,-778.0,-642.0
-1.0,-200.0,-151.0,36.0,67.0,-3.0,30.0,-780.0,-637.0
4.0,-201.0,-147.0,36.0,67.0,-3.0,30.0,-777.0,-638.0
-1.0,-200.0,-150.0,37.0,66.0,-2.0,31.0,-780.0,-641.0
3.0,-203.0,-147.0,40.0,64.0,-1.0,33.0,-781.0,-639.0
1.0,-203.0,-155.0,43.0,61.0,-1.0,30.0,-781.0,-642.0
4.0,-201.0,-153.0,42.0,60.0,0.0,31.0,-780.0,-645.0
3.0,-196.0,-152.0,42.0,60.0,0.0,29.0,-777.0,-647.0
3.0,-199.0,-150.0,40.0,58.0,1.0,29.0,-769.0,-649.0
0.0,-200.0,-153.0,39.0,56.0,0.0,31.0,-772.0,-647.0
3.0,-198.0,-153.0,36.0,56.0,0.0,31.0,-773.0,-648.0
2.0,-199.0,-152.0,34.0,55.0,1.0,32.0,-775.0,-645.0
1.0,-199.0,-155.0,31.0,56.0,0.0,30.0,-771.0,-643.0
-1.0,-202.0,-150.0,28.0,56.0,3.0,30.0,-776.0,-643.0
2.0,-197.0,-152.0,26.0,57.0,2.0,31.0,-777.0,-640.0
2.0,-201.0,-150.0,23.0,56.0,0.0,37.0,-780.0,-641.0
2.0,-201.0,-151.0,21.0,56.0,1.0,34.0,-779.0,-647.0
2.0,-204.0,-152.0,21.0,56.0,1.0,33.0,-776.0,-641.0
4.0,-203.0,-150.0,19.0,58.0,0.0,32.0,-775.0,-644.0
3.0,-202.0,-150.0,19.0,58.0,-1.0,36.0,-775.0,-635.0
3.0,-201.0,-150.0,18.0,58.0,-2.0,35.0,-780.0,-640.0
2.0,-197.0,-142.0,18.0,60.0,-1.0,36.0,-784.0,-638.0
2.0,-203.0,-148.0,17.0,61.0,-1.0,36.0,-781.0,-639.0
0.0,-202.0,-151.0,17.0,62.0,-1.0,33.0,-776.0,-636.0
3.0,-203.0,-149.0,16.0,64.0,-3.0,32.0,-782.0,-637.0
4.0,-201.0,-147.0,15.0,64.0,-3.0,34.0,-784.0,-638.0
4.0,-204.0,-151.0,15.0,66.0,-2.0,32.0,-782.0,-634.0
1.0,-201.0,-146.0,17.0,66.0,-3.0,32.0,-783.0,-633.0
-2.0,-201.0,-147.0,20.0,67.0,-2.0,32.0,-786.0,-626.0
2.0,-205.0,-148.0,22.0,67.0,-4.0,28.0,-787.0,-637.0
1.0,-201.0,-151.0,27.0,66.0,-4.0,30.0,-780.0,-636.0
1.0,-205.0,-148.0,28.0,65.0,-5.0,30.0,-785.0,-629.0
-1.0,-202.0,-146.0,30.0,65.0,-5.0,30.0,-783.0,-640.0
4.0,-205.0,-149.0,33.0,65.0,-6.0,26.0,-781.0,-638.0
3.0,-203.0,-147.0,34.0,65.0,-7.0,27.0,-780.0,-636.0
0.0,-200.0,-152.0,36.0,63.0,-8.0,28.0,-785.0,-641.0
-1.0,-201.0,-150.0,35.0,62.0,-7.0,28.0,-779.0,-640.0
0.0,-200.0,-149.0,36.0,63.0,-8.0,29.0,-777.0,-640.0
1.0,-199.0,-152.0,34.0,63.0,-8.0,29.0,-784.0,-641.0
1.0,-203.0,-152.0,32.0,64.0,-9.0,32.0,-776.0,-638.0
3.0,-200.0,-150.0,32.0,65.0,-9.0,29.0,-778.0,-640.0
-1.0,-201.0,-147.0,31.0,66.0,-8.0,32.0,-780.0,-633.0
-1.0,-203.0,-149.0,30.0,65.0,-8.0,27.0,-780.0,-636.0
-1.0,-196.0,-149.0,30.0,67.0,-8.0,32.0,-775.0,-635.0
4.0,-203.0,-147.0,32.0,65.0,-7.0,27.0,-780.0,-636.0
3.0,-202.0,-149.0,33.0,64.0,-6.0,27.0,-784.0,-628.0
4.0,-204.0,-150.0,37.0,63.0,-8.0,27.0,-779.0,-628.0
2.0,-202.0,-150.0,39.0,61.0,-8.0,27.0,-786.0,-628.0
3.0,-203.0,-148.0,42.0,60.0,-9.0,26.0,-784.0,-623.0
4.0,-201.0,-145.0,45.0,58.0,-8.0,23.0,-782.0,-632.0
-3.0,-202.0,-150.0,44.0,57.0,-9.0,29.0,-788.0,-627.0
3.0,-204.0,-145.0,48.0,55.0,-9.0,28.0,-777.0,-625.0
2.0,-203.0,-150.0,48.0,54.0,-6.0,31.0,-788.0,-631.0
4.0,-204.0,-148.0,49.0,55.0,-6.0,27.0,-786.0,-634.0
0.0,-205.0,-148.0,48.0,51.0,-7.0,29.0,-789.0,-634.0
-1.0,-204.0,-147.0,48.0,52.0,-3.0,26.0,-794.0,-636.0
4.0,-206.0,-143.0,44.0,52.0,-1.0,28.0,-789.0,-635.0
3.0,-206.0,-149.0,41.0,52.0,-2.0,24.0,-793.0,-642.0
1.0,-203.0,-147.0,41.0,51.0,-1.0,28.0,-788.0,-632.0
0.0,-206.0,-148.0,39.0,51.0,0.0,27.0,-789.0,-637.0
2.0,-205.0,-150.0,39.0,50.0,-1.0,28.0,-791.0,-637.0
0.0,-202.0,-150.0,38.0,51.0,-1.0,25.0,-786.0,-631.0
0.0,-203.0,-147.0,37.0,52.0,-1.0,25.0,-790.0,-629.0
2.0,-203.0,-148.0,36.0,52.0,-2.0,28.0,-791.0,-634.0
2.0,-202.0,-148.0,35.0,51.0,-3.0,29.0,-789.0,-628.0
3.0,-206.0,-147.0,34.0,54.0,-2.0,28.0,-795.0,-624.0
4.0,-206.0,-152.0,34.0,54.0,-3.0,30.0,-796.0,-627.0
1.0,-208.0,-149.0,34.0,56.0,-3.0,35.0,-791.0,-622.0
3.0,-202.0,-147.0,34.0,55.0,-4.0,32.0,-796.0,-633.0
3.0,-204.0,-146.0,34.0,56.0,-5.0,31.0,-792.0,-625.0
4.0,-204.0,-147.0,34.0,54.0,-6.0,33.0,-793.0,-621.0
1.0,-206.0,-150.0,34.0,54.0,-7.0,36.0,-790.0,-624.0
4.0,-205.0,-149.0,34.0,53.0,-8.0,39.0,-792.0,-623.0
2.0,-201.0,-146.0,33.0,55.0,-10.0,33.0,-791.0,-627.0
1.0,-202.0,-148.0,31.0,54.0,-8.0,35.0,-790.0,-624.0
1.0,-203.0,-149.0,28.0,53.0,-11.0,35.0,-793.0,-621.0
4.0,-206.0,-147.0,27.0,54.0,-13.0,34.0,-794.0,-623.0
2.0,-208.0,-145.0,25.0,54.0,-15.0,38.0,-795.0,-622.0
6.0,-209.0,-145.0,27.0,55.0,-16.0,34.0,-798.0,-620.0
4.0,-208.0,-142.0,29.0,57.0,-18.0,34.0,-798.0,-620.0
3.0,-204.0,-144.0,30.0,61.0,-18.0,34.0,-800.0,-619.0
5.0,-210.0,-142.0,34.0,61.0,-20.0,35.0,-796.0,-616.0
3.0,-206.0,-143.0,36.0,63.0,-20.0,33.0,-798.0,-618.0
5.0,-205.0,-145.0,40.0,66.0,-21.0,34.0,-796.0,-615.0
3.0,-202.0,-146.0,43.0,67.0,-22.0,37.0,-802.0,-616.0
4.0,-204.0,-145.0,48.0,67.0,-21.0,32.0,-795.0,-618.0
3.0,-204.0,-140.0,52.0,66.0,-21.0,30.0,-792.0,-617.0
3.0,-205.0,-143.0,55.0,65.0,-20.0,27.0,-804.0,-618.0
1.0,-206.0,-143.0,58.0,64.0,-19.0,27.0,-799.0,-621.0
4.0,-206.0,-146.0,60.0,62.0,-17.0,27.0,-801.0,-618.0
3.0,-206.0,-144.0,61.0,61.0,-13.0,29.0,-800.0,-618.0
2.0,-211.0,-144.0,61.0,60.0,-12.0,24.0,-798.0,-618.0
-2.0,-207.0,-144.0,60.0,59.0,-11.0,33.0,-805.0,-622.0
3.0,-209.0,-145.0,58.0,57.0,-8.0,26.0,-797.0,-620.0
1.0,-207.0,-149.0,56.0,56.0,-7.0,26.0,-804.0,-616.0
1.0,-205.0,-145.0,54.0,53.0,-7.0,25.0,-798.0,-616.0
1.0,-207.0,-147.0,54.0,50.0,-7.0,25.0,-808.0,-619.0
6.0,-210.0,-142.0,53.0,47.0,-5.0,26.0,-803.0,-616.0
0.0,-206.0,-144.0,51.0,45.0,-6.0,20.0,-798.0,-618.0
0.0,-206.0,-145.0,51.0,42.0,-6.0,22.0,-797.0,-617.0
-1.0,-206.0,-145.0,49.0,41.0,-5.0,28.0,-797.0,-617.0
-3.0,-207.0,-148.0,48.0,40.0,-6.0,23.0,-800.0,-620.0
2.0,-205.0,-144.0,45.0,40.0,-7.0,25.0,-796.0,-617.0
-1.0,-207.0,-150.0,44.0,41.0,-9.0,26.0,-798.0,-616.0
1.0,-207.0,-146.0,41.0,42.0,-9.0,21.0,-800.0,-616.0
2.0,-207.0,-140.0,38.0,44.0,-10.0,26.0,-797.0,-615.0
0.0,-208.0,-144.0,34.0,45.0,-12.0,27.0,-804.0,-616.0
1.0,-208.0,-144.0,31.0,46.0,-12.0,24.0,-812.0,-612.0
2.0,-209.0,-142.0,28.0,50.0,-12.0,25.0,-806.0,-614.0
4.0,-212.0,-143.0,24.0,52.0,-10.0,20.0,-809.0,-607.0
0.0,-206.0,-139.0,21.0,54.0,-11.0,24.0,-801.0,-609.0
-1.0,-210.0,-142.0,18.0,55.0,-12.0,25.0,-808.0,-610.0
2.0,-210.0,-145.0,17.0,58.0,-11.0,26.0,-805.0,-610.0
-1.0,-208.0,-141.0,18.0,59.0,-13.0,25.0,-812.0,-610.0
1.0,-206.0,-143.0,20.0,59.0,-12.0,28.0,-808.0,-610.0
1.0,-208.0,-145.0,21.0,61.0,-11.0,30.0,-811.0,-613.0
1.0,-210.0,-141.0,21.0,64.0,-13.0,29.0,-816.0,-608.0
2.0,-207.0,-142.0,21.0,65.0,-12.0,33.0,-806.0,-605.0
4.0,-208.0,-142.0,20.0,66.0,-11.0,33.0,-806.0,-603.0
-2.0,-207.0,-143.0,18.0,66.0,-13.0,37.0,-802.0,-607.0
4.0,-207.0,-143.0,16.0,65.0,-13.0,38.0,-803.0,-606.0
4.0,-205.0,-139.0,15.0,66.0,-14.0,37.0,-797.0,-609.0
3.0,-209.0,-142.0,14.0,65.0,-14.0,42.0,-792.0,-616.0
5.0,-209.0,-142.0,13.0,67.0,-15.0,37.0,-794.0,-607.0
4.0,-205.0,-139.0,11.0,67.0,-17.0,39.0,-795.0,-605.0
4.0,-205.0,-141.0,10.0,68.0,-18.0,41.0,-805.0,-607.0
1.0,-206.0,-139.0,9.0,69.0,-20.0,35.0,-803.0,-607.0
1.0,-208.0,-140.0,7.0,68.0,-21.0,35.0,-803.0,-603.0
4.0,-208.0,-142.0,8.0,69.0,-22.0,36.0,-799.0,-602.0
4.0,-206.0,-141.0,10.0,69.0,-23.0,35.0,-795.0,-600.0
4.0,-207.0,-137.0,11.0,69.0,-23.0,41.0,-800.0,-605.0
2.0,-204.0,-139.0,13.0,67.0,-21.0,36.0,-795.0,-606.0
2.0,-208.0,-138.0,13.0,65.0,-20.0,34.0,-799.0,-603.0
3.0,-205.0,-140.0,13.0,62.0,-18.0,30.0,-800.0,-611.0
2.0,-208.0,-143.0,13.0,60.0,-15.0,31.0,-804.0,-616.0
2.0,-208.0,-143.0,11.0,56.0,-11.0,32.0,-805.0,-614.0
1.0,-211.0,-143.0,7.0,52.0,-9.0,31.0,-811.0,-620.0
2.0,-211.0,-143.0,3.0,48.0,-5.0,29.0,-804.0,-618.0
1.0,-212.0,-144.0,0.0,49.0,-4.0,27.0,-806.0,-619.0
3.0,-212.0,-149.0,-2.0,48.0,-4.0,23.0,-812.0,-618.0
0.0,-209.0,-142.0,-3.0,49.0,-3.0,24.0,-812.0,-619.0
-2.0,-206.0,-140.0,-4.0,50.0,-1.0,20.0,-808.0,-616.0
-2.0,-207.0,-143.0,-6.0,51.0,-2.0,24.0,-807.0,-617.0
2.0,-211.0,-141.0,-6.0,54.0,-2.0,26.0,-811.0,-618.0
-1.0,-209.0,-142.0,-5.0,53.0,-3.0,29.0,-807.0,-618.0
0.0,-212.0,-141.0,-3.0,54.0,-2.0,28.0,-814.0,-608.0
3.0,-210.0,-141.0,0.0,55.0,-1.0,28.0,-811.0,-611.0
1.0,-212.0,-142.0,3.0,57.0,-1.0,30.0,-816.0,-612.0
3.0,-208.0,-142.0,5.0,60.0,-2.0,30.0,-811.0,-615.0
4.0,-207.0,-144.0,8.0,61.0,-3.0,33.0,-808.0,-606.0
4.0,-208.0,-143.0,10.0,63.0,-5.0,36.0,-809.0,-608.0
2.0,-207.0,-143.0,10.0,63.0,-6.0,35.0,-805.0,-614.0
1.0,-210.0,-143.0,10.0,66.0,-9.0,42.0,-800.0,-607.0
2.0,-208.0,-144.0,9.0,70.0,-9.0,39.0,-805.0,-615.0
5.0,-208.0,-145.0,7.0,71.0,-11.0,40.0,-803.0,-615.0
6.0,-208.0,-142.0,5.0,73.0,-12.0,43.0,-796.0,-609.0
4.0,-208.0,-143.0,3.0,74.0,-16.0,39.0,-797.0,-613.0
4.0,-206.0,-143.0,0.0,72.0,-17.0,45.0,-791.0,-615.0
2.0,-206.0,-141.0,-3.0,71.0,-17.0,37.0,-792.0,-610.0
4.0,-205.0,-146.0,-5.0,71.0,-18.0,34.0,-797.0,-613.0
3.0,-202.0,-146.0,-8.0,71.0,-18.0,43.0,-796.0,-609.0
3.0,-205.0,-145.0,-9.0,71.0,-16.0,37.0,-800.0,-613.0
4.0,-210.0,-142.0,-11.0,71.0,-15.0,30.0,-799.0,-610.0
2.0,-207.0,-139.0,-11.0,71.0,-16.0,36.0,-812.0,-612.0
4.0,-209.0,-140.0,-10.0,72.0,-14.0,30.0,-805.0,-606.0
-1.0,-207.0,-145.0,-11.0,73.0,-13.0,31.0,-809.0,-605.0
1.0,-211.0,-138.0,-8.0,74.0,-12.0,39.0,-810.0,-605.0
1.0,-210.0,-143.0,-6.0,73.0,-11.0,27.0,-806.0,-607.0
4.0,-209.0,-142.0,-4.0,70.0,-9.0,27.0,-813.0,-605.0
0.0,-210.0,-141.0,-2.0,69.0,-8.0,28.0,-808.0,-608.0
0.0,-210.0,-142.0,-2.0,68.0,-8.0,26.0,-812.0,-608.0
0.0,-207.0,-144.0,-2.0,66.0,-7.0,27.0,-805.0,-610.0
2.0,-209.0,-142.0,-4.0,66.0,-6.0,27.0,-809.0,-609.0
-1.0,-209.0,-142.0,-6.0,64.0,-5.0,26.0,-809.0,-613.0
1.0,-204.0,-143.0,-9.0,64.0,-5.0,26.0,-798.0,-609.0
2.0,-209.0,-142.0,-12.0,63.0,-5.0,26.0,-802.0,-607.0
3.0,-208.0,-144.0,-14.0,62.0,-5.0,31.0,-802.0,-613.0
3.0,-205.0,-143.0,-17.0,62.0,-6.0,27.0,-807.0,-607.0
0.0,-207.0,-145.0,-20.0,62.0,-7.0,30.0,-805.0,-613.0
4.0,-208.0,-147.0,-21.0,64.0,-7.0,30.0,-805.0,-613.0
4.0,-208.0,-146.0,-23.0,66.0,-7.0,33.0,-803.0,-613.0
1.0,-206.0,-143.0,-25.0,68.0,-8.0,31.0,-807.0,-610.0
1.0,-205.0,-141.0,-27.0,71.0,-9.0,32.0,-802.0,-610.0
2.0,-208.0,-144.0,-29.0,73.0,-8.0,31.0,-804.0,-606.0
2.0,-206.0,-142.0,-30.0,73.0,-9.0,34.0,-805.0,-609.0
-1.0,-206.0,-147.0,-30.0,75.0,-10.0,34.0,-808.0,-612.0
4.0,-210.0,-143.0,-28.0,75.0,-10.0,35.0,-802.0,-608.0
2.0,-209.0,-139.0,-27.0,74.0,-11.0,31.0,-802.0,-612.0
3.0,-210.0,-141.0,-27.0,72.0,-9.0,29.0,-808.0,-610.0
0.0,-206.0,-141.0,-27.0,69.0,-12.0,27.0,-800.0,-615.0
4.0,-209.0,-145.0,-26.0,68.0,-11.0,26.0,-800.0,-609.0
0.0,-209.0,-140.0,-27.0,65.0,-11.0,28.0,-806.0,-612.0
1.0,-206.0,-140.0,-25.0,64.0,-11.0,28.0,-804.0,-611.0
-1.0,-207.0,-145.0,-25.0,64.0,-11.0,28.0,-803.0,-611.0
0.0,-207.0,-139.0,-25.0,62.0,-10.0,29.0,-796.0,-607.0
3.0,-208.0,-142.0,-24.0,62.0,-8.0,27.0,-803.0,-611.0
3.0,-209.0,-142.0,-23.0,62.0,-8.0,29.0,-808.0,-610.0
0.0,-205.0,-143.0,-21.0,64.0,-7.0,31.0,-799.0,-607.0
4.0,-210.0,-144.0,-18.0,65.0,-7.0,33.0,-807.0,-609.0
2.0,-205.0,-143.0,-16.0,65.0,-5.0,35.0,-803.0,-609.0
4.0,-208.0,-144.0,-13.0,68.0,-6.0,37.0,-798.0,-614.0
4.0,-206.0,-142.0,-12.0,70.0,-8.0,37.0,-792.0,-612.0
4.0,-208.0,-142.0,-13.0,72.0,-9.0,36.0,-799.0,-614.0
3.0,-204.0,-142.0,-12.0,73.0,-9.0,35.0,-793.0,-607.0
5.0,-205.0,-143.0,-14.0,73.0,-10.0,35.0,-794.0,-612.0
5.0,-204.0,-143.0,-15.0,72.0,-10.0,38.0,-800.0,-611.0
5.0,-205.0,-144.0,-14.0,72.0,-11.0,40.0,-794.0,-611.0
3.0,-208.0,-142.0,-15.0,70.0,-12.0,37.0,-797.0,-605.0
3.0,-208.0,-143.0,-14.0,71.0,-11.0,34.0,-802.0,-609.0
4.0,-210.0,-144.0,-10.0,70.0,-9.0,33.0,-801.0,-607.0
5.0,-206.0,-145.0,-6.0,70.0,-10.0,33.0,-806.0,-611.0
3.0,-209.0,-145.0,-4.0,69.0,-10.0,29.0,-800.0,-612.0
1.0,-208.0,-143.0,-2.0,68.0,-10.0,29.0,-808.0,-610.0
0.0,-207.0,-142.0,-1.0,67.0,-9.0,30.0,-804.0,-617.0
1.0,-208.0,-144.0,1.0,65.0,-8.0,28.0,-804.0,-614.0
3.0,-208.0,-144.0,0.0,64.0,-9.0,29.0,-809.0,-607.0
1.0,-208.0,-145.0,0.0,62.0,-9.0,23.0,-806.0,-613.0
4.0,-211.0,-142.0,1.0,61.0,-8.0,24.0,-807.0,-614.0
6.0,-208.0,-141.0,1.0,59.0,-7.0,26.0,-808.0,-614.0
2.0,-209.0,-146.0,-1.0,57.0,-6.0,27.0,-810.0,-614.0
0.0,-205.0,-146.0,-3.0,56.0,-8.0,22.0,-802.0,-613.0
1.0,-211.0,-140.0,-3.0,57.0,-7.0,23.0,-804.0,-614.0
0.0,-209.0,-140.0,-3.0,58.0,-6.0,25.0,-804.0,-617.0
3.0,-209.0,-144.0,-3.0,59.0,-6.0,27.0,-810.0,-615.0
2.0,-209.0,-142.0,-6.0,60.0,-7.0,27.0,-807.0,-620.0
0.0,-205.0,-146.0,-8.0,62.0,-6.0,30.0,-803.0,-612.0
2.0,-210.0,-144.0,-11.0,65.0,-5.0,34.0,-803.0,-615.0
-1.0,-207.0,-142.0,-15.0,67.0,-4.0,31.0,-798.0,-614.0
2.0,-206.0,-146.0,-17.0,68.0,-5.0,36.0,-803.0,-616.0
5.0,-205.0,-145.0,-19.0,69.0,-5.0,32.0,-797.0,-616.0
0.0,-206.0,-150.0,-21.0,71.0,-5.0,31.0,-793.0,-617.0
3.0,-209.0,-143.0,-23.0,71.0,-5.0,31.0,-793.0,-613.0
1.0,-205.0,-143.0,-24.0,69.0,-6.0,34.0,-797.0,-614.0
4.0,-204.0,-137.0,-22.0,70.0,-8.0,34.0,-794.0,-611.0
0.0,-209.0,-140.0,-21.0,69.0,-8.0,33.0,-794.0,-610.0
1.0,-206.0,-141.0,-18.0,69.0,-8.0,37.0,-802.0,-603.0
3.0,-205.0,-139.0,-16.0,68.0,-9.0,38.0,-800.0,-608.0
3.0,-209.0,-143.0,-13.0,68.0,-8.0,34.0,-807.0,-604.0
1.0,-207.0,-139.0,-10.0,69.0,-6.0,33.0,-801.0,-605.0
3.0,-209.0,-142.0,-6.0,69.0,-8.0,31.0,-800.0,-603.0
4.0,-208.0,-140.0,-6.0,70.0,-8.0,33.0,-803.0,-608.0
3.0,-207.0,-145.0,-6.0,69.0,-7.0,35.0,-796.0,-607.0
3.0,-208.0,-140.0,-5.0,70.0,-8.0,29.0,-798.0,-602.0
4.0,-206.0,-142.0,-6.0,71.0,-9.0,33.0,-801.0,-607.0
4.0,-206.0,-141.0,-6.0,71.0,-10.0,32.0,-804.0,-611.0
2.0,-206.0,-141.0,-6.0,71.0,-8.0,34.0,-797.0,-612.0
4.0,-207.0,-143.0,-7.0,71.0,-8.0,26.0,-803.0,-611.0
2.0,-209.0,-141.0,-5.0,72.0,-9.0,35.0,-800.0,-610.0
1.0,-206.0,-141.0,-4.0,69.0,-8.0,31.0,-800.0,-606.0
4.0,-208.0,-141.0,-2.0,69.0,-8.0,31.0,-808.0,-605.0
-1.0,-206.0,-145.0,2.0,68.0,-7.0,30.0,-805.0,-611.0
2.0,-207.0,-144.0,4.0,66.0,-7.0,33.0,-806.0,-605.0
2.0,-206.0,-139.0,8.0,64.0,-6.0,29.0,-803.0,-609.0
4.0,-207.0,-143.0,12.0,62.0,-5.0,32.0,-807.0,-615.0
1.0,-209.0,-141.0,14.0,59.0,-3.0,32.0,-808.0,-611.0
4.0,-208.0,-140.0,17.0,56.0,-2.0,31.0,-811.0,-609.0
4.0,-206.0,-143.0,18.0,57.0,-2.0,31.0,-799.0,-609.0
3.0,-208.0,-140.0,16.0,56.0,-1.0,30.0,-807.0,-611.0
3.0,-208.0,-146.0,13.0,55.0,-1.0,30.0,-801.0,-616.0
-1.0,-206.0,-146.0,10.0,57.0,-1.0,28.0,-797.0,-610.0
-1.0,-207.0,-145.0,7.0,56.0,-2.0,29.0,-799.0,-615.0
2.0,-208.0,-145.0,2.0,58.0,-3.0,29.0,-803.0,-611.0
2.0,-208.0,-142.0,-1.0,60.0,-4.0,28.0,-805.0,-613.0
1.0,-210.0,-145.0,-4.0,61.0,-3.0,26.0,-804.0,-614.0
2.0,-208.0,-142.0,-7.0,61.0,-5.0,29.0,-808.0,-613.0
2.0,-205.0,-140.0,-9.0,62.0,-6.0,29.0,-803.0,-607.0
2.0,-209.0,-142.0,-9.0,63.0,-7.0,31.0,-806.0,-607.0
-1.0,-207.0,-141.0,-7.0,64.0,-5.0,30.0,-804.0,-607.0
0.0,-208.0,-143.0,-5.0,64.0,-5.0,29.0,-805.0,-605.0
2.0,-205.0,-139.0,-4.0,63.0,-6.0,28.0,-807.0,-609.0
1.0,-208.0,-145.0,-1.0,61.0,-6.0,31.0,-802.0,-609.0
1.0,-209.0,-142.0,1.0,61.0,-5.0,30.0,-806.0,-615.0
3.0,-210.0,-141.0,2.0,60.0,-4.0,29.0,-804.0,-608.0
2.0,-211.0,-145.0,3.0,59.0,-4.0,28.0,-812.0,-608.0
-1.0,-209.0,-146.0,5.0,60.0,-2.0,29.0,-805.0,-610.0
0.0,-211.0,-141.0,5.0,59.0,-2.0,24.0,-811.0,-613.0
2.0,-209.0,-142.0,4.0,59.0,-1.0,31.0,-810.0,-605.0
1.0,-212.0,-141.0,4.0,60.0,-2.0,40.0,-821.0,-605.0
4.0,-214.0,-141.0,2.0,60.0,-3.0,35.0,-812.0,-604.0
3.0,-209.0,-140.0,1.0,61.0,-4.0,34.0,-823.0,-602.0
2.0,-210.0,-142.0,1.0,63.0,-4.0,32.0,-818.0,-604.0
4.0,-210.0,-142.0,0.0,63.0,-4.0,29.0,-822.0,-605.0
4.0,-211.0,-144.0,3.0,64.0,-5.0,34.0,-820.0,-606.0
4.0,-211.0,-144.0,1.0,65.0,-6.0,32.0,-817.0,-607.0
3.0,-211.0,-143.0,1.0,66.0,-7.0,35.0,-820.0,-605.0
4.0,-210.0,-145.0,1.0,65.0,-8.0,34.0,-820.0,-609.0
1.0,-210.0,-141.0,2.0,64.0,-6.0,33.0,-813.0,-607.0
3.0,-210.0,-140.0,2.0,62.0,-5.0,32.0,-813.0,-607.0
4.0,-209.0,-142.0,2.0,61.0,-3.0,35.0,-804.0,-605.0
2.0,-206.0,-140.0,2.0,59.0,-1.0,29.0,-809.0,-603.0
3.0,-207.0,-139.0,1.0,54.0,0.0,35.0,-810.0,-604.0
2.0,-210.0,-143.0,1.0,53.0,3.0,29.0,-804.0,-600.0
0.0,-211.0,-139.0,2.0,50.0,3.0,33.0,-810.0,-603.0
1.0,-212.0,-139.0,3.0,48.0,4.0,28.0,-816.0,-601.0
4.0,-209.0,-139.0,4.0,48.0,6.0,35.0,-814.0,-597.0
-1.0,-210.0,-141.0,7.0,44.0,5.0,30.0,-816.0,-596.0
3.0,-211.0,-139.0,8.0,44.0,7.0,33.0,-814.0,-599.0
-3.0,-212.0,-139.0,10.0,43.0,5.0,23.0,-823.0,-593.0
4.0,-212.0,-141.0,12.0,43.0,5.0,25.0,-826.0,-602.0
-1.0,-207.0,-143.0,13.0,45.0,6.0,24.0,-824.0,-602.0
1.0,-212.0,-140.0,13.0,45.0,8.0,29.0,-823.0,-601.0
1.0,-213.0,-140.0,12.0,45.0,9.0,26.0,-825.0,-610.0
0.0,-210.0,-144.0,10.0,48.0,10.0,27.0,-824.0,-610.0
1.0,-211.0,-143.0,7.0,50.0,9.0,26.0,-829.0,-606.0
0.0,-212.0,-144.0,2.0,50.0,9.0,27.0,-827.0,-613.0
4.0,-209.0,-138.0,-2.0,52.0,14.0,25.0,-828.0,-608.0
0.0,-213.0,-145.0,-7.0,53.0,14.0,26.0,-833.0,-612.0
1.0,-214.0,-145.0,-12.0,54.0,15.0,25.0,-833.0,-614.0
3.0,-211.0,-143.0,-19.0,54.0,17.0,26.0,-832.0,-609.0
2.0,-213.0,-142.0,-25.0,56.0,16.0,32.0,-825.0,-612.0
3.0,-214.0,-145.0,-33.0,55.0,17.0,29.0,-829.0,-612.0
3.0,-214.0,-147.0,-38.0,56.0,17.0,30.0,-828.0,-615.0
4.0,-213.0,-145.0,-46.0,58.0,15.0,29.0,-828.0,-613.0
3.0,-213.0,-145.0,-52.0,59.0,12.0,34.0,-827.0,-614.0
2.0,-212.0,-141.0,-58.0,58.0,12.0,35.0,-830.0,-609.0
4.0,-211.0,-141.0,-63.0,58.0,11.0,31.0,-832.0,-609.0
3.0,-213.0,-139.0,-66.0,61.0,12.0,31.0,-824.0,-611.0
4.0,-211.0,-143.0,-68.0,64.0,13.0,33.0,-823.0,-606.0
2.0,-210.0,-140.0,-67.0,67.0,13.0,34.0,-824.0,-604.0
3.0,-212.0,-139.0,-68.0,67.0,14.0,36.0,-823.0,-604.0
2.0,-215.0,-138.0,-67.0,71.0,14.0,34.0,-831.0,-600.0
5.0,-213.0,-137.0,-62.0,71.0,17.0,32.0,-825.0,-602.0
2.0,-211.0,-139.0,-54.0,71.0,18.0,39.0,-831.0,-597.0
0.0,-215.0,-137.0,-44.0,71.0,19.0,39.0,-831.0,-597.0
3.0,-217.0,-137.0,-31.0,69.0,20.0,32.0,-836.0,-597.0
2.0,-218.0,-138.0,-15.0,64.0,22.0,34.0,-836.0,-593.0
3.0,-217.0,-137.0,1.0,62.0,21.0,31.0,-839.0,-596.0
0.0,-218.0,-140.0,19.0,59.0,21.0,29.0,-836.0,-605.0
1.0,-216.0,-141.0,33.0,55.0,22.0,22.0,-839.0,-601.0
1.0,-220.0,-144.0,45.0,52.0,23.0,18.0,-837.0,-605.0
-2.0,-214.0,-144.0,54.0,48.0,24.0,25.0,-841.0,-612.0
-4.0,-218.0,-143.0,61.0,44.0,25.0,20.0,-837.0,-616.0
0.0,-216.0,-146.0,65.0,40.0,26.0,17.0,-837.0,-618.0
-1.0,-218.0,-143.0,66.0,39.0,26.0,16.0,-839.0,-616.0
-3.0,-216.0,-146.0,66.0,38.0,27.0,17.0,-836.0,-622.0
-1.0,-216.0,-145.0,65.0,36.0,27.0,14.0,-838.0,-620.0
-2.0,-217.0,-147.0,65.0,37.0,26.0,23.0,-838.0,-619.0
0.0,-218.0,-144.0,68.0,37.0,27.0,21.0,-848.0,-617.0
0.0,-220.0,-145.0,74.0,36.0,28.0,26.0,-853.0,-622.0
3.0,-221.0,-147.0,81.0,37.0,27.0,21.0,-852.0,-622.0
-3.0,-220.0,-146.0,91.0,39.0,24.0,18.0,-858.0,-615.0
-2.0,-222.0,-144.0,101.0,38.0,25.0,27.0,-855.0,-619.0
2.0,-223.0,-144.0,112.0,39.0,23.0,25.0,-854.0,-625.0
-1.0,-222.0,-145.0,120.0,43.0,21.0,25.0,-854.0,-620.0
3.0,-222.0,-145.0,127.0,45.0,20.0,27.0,-851.0,-619.0
2.0,-221.0,-145.0,129.0,48.0,19.0,22.0,-852.0,-619.0
2.0,-217.0,-140.0,129.0,52.0,19.0,25.0,-846.0,-616.0
-2.0,-216.0,-144.0,127.0,56.0,17.0,28.0,-841.0,-610.0
5.0,-219.0,-141.0,124.0,58.0,15.0,25.0,-839.0,-613.0
0.0,-217.0,-141.0,120.0,56.0,13.0,30.0,-838.0,-612.0
4.0,-218.0,-140.0,115.0,56.0,11.0,29.0,-838.0,-604.0
3.0,-217.0,-142.0,113.0,56.0,12.0,26.0,-838.0,-606.0
3.0,-219.0,-140.0,110.0,54.0,11.0,29.0,-833.0,-595.0
3.0,-216.0,-138.0,110.0,52.0,12.0,26.0,-838.0,-599.0
2.0,-215.0,-138.0,112.0,51.0,11.0,27.0,-842.0,-588.0
0.0,-218.0,-137.0,114.0,49.0,12.0,25.0,-841.0,-592.0
2.0,-214.0,-136.0,115.0,47.0,13.0,29.0,-848.0,-590.0
3.0,-218.0,-139.0,117.0,45.0,15.0,22.0,-848.0,-588.0
0.0,-221.0,-138.0,118.0,44.0,14.0,22.0,-849.0,-588.0
2.0,-219.0,-135.0,120.0,42.0,14.0,25.0,-851.0,-586.0
-2.0,-220.0,-136.0,124.0,39.0,16.0,22.0,-847.0,-592.0
1.0,-224.0,-136.0,126.0,37.0,15.0,26.0,-856.0,-589.0
0.0,-219.0,-137.0,128.0,35.0,16.0,22.0,-856.0,-590.0
-1.0,-223.0,-137.0,129.0,33.0,19.0,24.0,-858.0,-591.0
1.0,-218.0,-136.0,132.0,30.0,21.0,22.0,-855.0,-595.0
2.0,-221.0,-139.0,131.0,26.0,21.0,24.0,-865.0,-595.0
-7.0,-219.0,-137.0,131.0,24.0,21.0,26.0,-858.0,-589.0
-2.0,-223.0,-139.0,130.0,20.0,22.0,20.0,-861.0,-589.0
-2.0,-220.0,-138.0,130.0,15.0,24.0,24.0,-867.0,-594.0
-2.0,-224.0,-136.0,131.0,9.0,25.0,17.0,-870.0,-592.0
-2.0,-226.0,-137.0,132.0,3.0,27.0,18.0,-863.0,-593.0
-3.0,-225.0,-138.0,133.0,1.0,28.0,13.0,-863.0,-592.0
-2.0,-222.0,-136.0,133.0,-2.0,26.0,9.0,-869.0,-584.0
-5.0,-221.0,-135.0,133.0,-3.0,26.0,10.0,-866.0,-588.0
-4.0,-222.0,-136.0,132.0,-5.0,25.0,15.0,-858.0,-586.0
-4.0,-221.0,-137.0,127.0,-3.0,25.0,13.0,-864.0,-582.0
-7.0,-220.0,-135.0,122.0,-4.0,24.0,9.0,-859.0,-585.0
-3.0,-221.0,-133.0,116.0,-3.0,22.0,8.0,-860.0,-572.0
-3.0,-219.0,-132.0,112.0,-5.0,23.0,2.0,-859.0,-572.0
-3.0,-222.0,-133.0,108.0,-5.0,24.0,8.0,-855.0,-573.0
-5.0,-221.0,-136.0,105.0,-5.0,23.0,8.0,-859.0,-567.0
-5.0,-222.0,-130.0,103.0,-6.0,24.0,9.0,-853.0,-567.0
-6.0,-221.0,-135.0,105.0,-7.0,24.0,11.0,-858.0,-569.0
-6.0,-223.0,-135.0,106.0,-8.0,20.0,6.0,-862.0,-570.0
-9.0,-223.0,-132.0,107.0,-5.0,20.0,4.0,-862.0,-570.0
-8.0,-221.0,-132.0,110.0,-5.0,21.0,2.0,-858.0,-567.0
-4.0,-219.0,-134.0,111.0,-2.0,20.0,10.0,-858.0,-570.0
-4.0,-220.0,-133.0,111.0,-1.0,20.0,4.0,-863.0,-569.0
0.0,-223.0,-134.0,112.0,2.0,18.0,12.0,-862.0,-571.0
-7.0,-222.0,-132.0,110.0,5.0,15.0,10.0,-861.0,-576.0
-3.0,-221.0,-135.0,105.0,7.0,14.0,17.0,-861.0,-575.0
-5.0,-222.0,-132.0,99.0,11.0,12.0,16.0,-859.0,-572.0
-2.0,-221.0,-136.0,94.0,12.0,12.0,16.0,-868.0,-571.0
-2.0,-224.0,-132.0,90.0,13.0,11.0,18.0,-866.0,-574.0
-3.0,-223.0,-134.0,86.0,12.0,9.0,14.0,-862.0,-571.0
-4.0,-222.0,-131.0,82.0,10.0,7.0,18.0,-868.0,-568.0
-4.0,-223.0,-131.0,81.0,9.0,6.0,14.0,-865.0,-568.0
-4.0,-222.0,-133.0,80.0,7.0,5.0,20.0,-860.0,-561.0
-1.0,-224.0,-129.0,79.0,3.0,3.0,18.0,-864.0,-560.0
0.0,-223.0,-128.0,78.0,4.0,2.0,21.0,-862.0,-558.0
-2.0,-222.0,-128.0,79.0,2.0,0.0,15.0,-869.0,-554.0
-3.0,-224.0,-131.0,80.0,-1.0,-1.0,8.0,-869.0,-557.0
-5.0,-221.0,-130.0,81.0,-3.0,1.0,12.0,-870.0,-556.0
0.0,-228.0,-129.0,83.0,-2.0,0.0,11.0,-869.0,-563.0
-2.0,-225.0,-130.0,86.0,-4.0,1.0,6.0,-873.0,-553.0
-4.0,-227.0,-128.0,89.0,-5.0,2.0,7.0,-874.0,-554.0
-8.0,-227.0,-131.0,91.0,-5.0,2.0,7.0,-875.0,-563.0
-4.0,-228.0,-127.0,95.0,-7.0,5.0,5.0,-880.0,-558.0
-5.0,-227.0,-129.0,100.0,-8.0,3.0,6.0,-885.0,-553.0
-6.0,-229.0,-134.0,104.0,-12.0,5.0,-1.0,-890.0,-556.0
-7.0,-230.0,-127.0,108.0,-14.0,6.0,2.0,-888.0,-563.0
-9.0,-234.0,-128.0,111.0,-16.0,6.0,2.0,-891.0,-555.0
-6.0,-230.0,-127.0,115.0,-17.0,6.0,1.0,-894.0,-552.0
-9.0,-227.0,-126.0,115.0,-16.0,3.0,-5.0,-893.0,-558.0
-10.0,-228.0,-133.0,114.0,-17.0,3.0,-3.0,-889.0,-550.0
-8.0,-229.0,-130.0,111.0,-17.0,5.0,-4.0,-894.0,-553.0
-8.0,-228.0,-127.0,106.0,-19.0,4.0,-3.0,-885.0,-547.0
-9.0,-230.0,-125.0,100.0,-18.0,2.0,-2.0,-885.0,-546.0
-7.0,-227.0,-128.0,92.0,-18.0,-1.0,-9.0,-888.0,-543.0
-6.0,-225.0,-129.0,85.0,-17.0,0.0,-1.0,-885.0,-545.0
-10.0,-225.0,-126.0,75.0,-14.0,1.0,-6.0,-885.0,-545.0
-5.0,-231.0,-126.0,61.0,-11.0,-1.0,-2.0,-890.0,-542.0
-7.0,-221.0,-128.0,49.0,-7.0,-3.0,-2.0,-884.0,-536.0
-5.0,-229.0,-129.0,38.0,-3.0,-6.0,1.0,-887.0,-544.0
-7.0,-225.0,-126.0,28.0,3.0,-7.0,-3.0,-884.0,-538.0
-9.0,-227.0,-124.0,18.0,7.0,-12.0,-5.0,-889.0,-536.0
-7.0,-229.0,-124.0,10.0,11.0,-14.0,3.0,-888.0,-539.0
-7.0,-230.0,-123.0,4.0,14.0,-15.0,3.0,-891.0,-533.0
-6.0,-230.0,-123.0,2.0,14.0,-20.0,-2.0,-892.0,-530.0
-8.0,-229.0,-124.0,0.0,16.0,-22.0,-2.0,-892.0,-529.0
-7.0,-233.0,-121.0,2.0,15.0,-23.0,-2.0,-889.0,-523.0
-6.0,-231.0,-124.0,7.0,12.0,-25.0,-2.0,-892.0,-525.0
-5.0,-234.0,-122.0,11.0,9.0,-29.0,1.0,-895.0,-515.0
-8.0,-229.0,-122.0,15.0,7.0,-31.0,-1.0,-891.0,-524.0
-6.0,-231.0,-122.0,22.0,5.0,-32.0,-7.0,-897.0,-518.0
-6.0,-233.0,-120.0,30.0,4.0,-33.0,0.0,-896.0,-518.0
-7.0,-231.0,-123.0,37.0,1.0,-36.0,-1.0,-896.0,-521.0
-8.0,-231.0,-123.0,43.0,1.0,-37.0,5.0,-898.0,-521.0
-4.0,-234.0,-121.0,51.0,-1.0,-39.0,5.0,-902.0,-520.0
-7.0,-232.0,-121.0,59.0,-4.0,-42.0,1.0,-897.0,-516.0
-9.0,-231.0,-123.0,68.0,-6.0,-42.0,-3.0,-896.0,-512.0
-9.0,-231.0,-121.0,75.0,-11.0,-41.0,-3.0,-902.0,-518.0
-8.0,-234.0,-117.0,83.0,-14.0,-39.0,-1.0,-903.0,-514.0
-8.0,-237.0,-118.0,93.0,-17.0,-39.0,-6.0,-902.0,-511.0
-10.0,-232.0,-117.0,102.0,-18.0,-39.0,-2.0,-907.0,-505.0
-8.0,-233.0,-118.0,108.0,-18.0,-40.0,-5.0,-908.0,-501.0
-9.0,-235.0,-117.0,117.0,-18.0,-40.0,-5.0,-902.0,-501.0
-9.0,-234.0,-119.0,125.0,-18.0,-41.0,-10.0,-908.0,-501.0
-10.0,-233.0,-116.0,132.0,-16.0,-44.0,-13.0,-903.0,-494.0
-9.0,-233.0,-120.0,137.0,-14.0,-45.0,-8.0,-901.0,-499.0
-11.0,-232.0,-119.0,142.0,-9.0,-46.0,-10.0,-900.0,-497.0
-11.0,-234.0,-113.0,147.0,-5.0,-45.0,-11.0,-906.0,-503.0
-11.0,-235.0,-115.0,150.0,-3.0,-49.0,-13.0,-908.0,-499.0
-10.0,-236.0,-116.0,152.0,0.0,-51.0,-10.0,-908.0,-498.0
-9.0,-233.0,-117.0,152.0,2.0,-52.0,-19.0,-907.0,-499.0
-12.0,-235.0,-115.0,152.0,1.0,-52.0,-12.0,-912.0,-495.0
-12.0,-233.0,-116.0,153.0,1.0,-54.0,-18.0,-907.0,-495.0
-18.0,-236.0,-118.0,155.0,-1.0,-55.0,-18.0,-909.0,-493.0
-13.0,-235.0,-114.0,155.0,-5.0,-54.0,-18.0,-911.0,-488.0
-13.0,-236.0,-115.0,158.0,-6.0,-53.0,-19.0,-913.0,-490.0
-14.0,-234.0,-114.0,161.0,-8.0,-52.0,-16.0,-910.0,-485.0
-13.0,-236.0,-113.0,161.0,-10.0,-53.0,-23.0,-909.0,-486.0
-13.0,-232.0,-115.0,160.0,-12.0,-53.0,-16.0,-911.0,-481.0
-10.0,-233.0,-109.0,156.0,-15.0,-51.0,-15.0,-913.0,-482.0
-9.0,-237.0,-115.0,152.0,-19.0,-50.0,-8.0,-914.0,-485.0
-9.0,-238.0,-112.0,147.0,-20.0,-51.0,-16.0,-914.0,-479.0
-11.0,-236.0,-114.0,141.0,-21.0,-55.0,-13.0,-911.0,-474.0
-9.0,-235.0,-113.0,134.0,-21.0,-61.0,-15.0,-911.0,-490.0
-8.0,-233.0,-111.0,130.0,-17.0,-57.0,-7.0,-915.0,-491.0
-9.0,-235.0,-116.0,124.0,-14.0,-56.0,-8.0,-908.0,-488.0
-6.0,-238.0,-115.0,122.0,-11.0,-55.0,-5.0,-924.0,-488.0
-7.0,-237.0,-117.0,122.0,-8.0,-55.0,-5.0,-918.0,-494.0
-7.0,-237.0,-114.0,124.0,-3.0,-54.0,-4.0,-916.0,-492.0
-7.0,-238.0,-112.0,129.0,2.0,-55.0,-3.0,-918.0,-490.0
-3.0,-242.0,-116.0,135.0,7.0,-59.0,-3.0,-920.0,-481.0
-9.0,-238.0,-112.0,145.0,10.0,-58.0,1.0,-919.0,-486.0
-9.0,-237.0,-115.0,157.0,11.0,-58.0,-2.0,-923.0,-481.0
-5.0,-241.0,-113.0,173.0,12.0,-56.0,3.0,-930.0,-474.0
-9.0,-234.0,-108.0,185.0,13.0,-68.0,-2.0,-916.0,-481.0
-10.0,-236.0,-112.0,201.0,13.0,-66.0,4.0,-921.0,-481.0
-6.0,-238.0,-112.0,220.0,20.0,-57.0,6.0,-916.0,-483.0
-5.0,-241.0,-112.0,238.0,29.0,-56.0,5.0,-921.0,-480.0
-2.0,-241.0,-112.0,256.0,39.0,-57.0,7.0,-919.0,-483.0
-4.0,-239.0,-108.0,272.0,52.0,-61.0,7.0,-920.0,-485.0
-3.0,-235.0,-111.0,287.0,65.0,-64.0,2.0,-915.0,-485.0
-4.0,-236.0,-108.0,301.0,77.0,-65.0,4.0,-909.0,-471.0
-2.0,-237.0,-109.0,314.0,88.0,-65.0,1.0,-910.0,-475.0
-6.0,-232.0,-108.0,326.0,95.0,-67.0,3.0,-906.0,-471.0
-4.0,-236.0,-106.0,337.0,102.0,-69.0,6.0,-902.0,-470.0
-4.0,-231.0,-107.0,342.0,106.0,-73.0,8.0,-902.0,-464.0
-7.0,-232.0,-107.0,347.0,111.0,-71.0,1.0,-899.0,-461.0
-6.0,-232.0,-108.0,350.0,111.0,-67.0,7.0,-897.0,-462.0
-4.0,-230.0,-103.0,348.0,115.0,-74.0,9.0,-893.0,-458.0
-8.0,-230.0,-104.0,346.0,112.0,-78.0,-3.0,-893.0,-456.0
-9.0,-228.0,-105.0,347.0,113.0,-67.0,4.0,-888.0,-454.0
-7.0,-230.0,-103.0,348.0,113.0,-59.0,6.0,-892.0,-449.0
-7.0,-229.0,-101.0,350.0,109.0,-56.0,-2.0,-886.0,-443.0
-8.0,-225.0,-102.0,350.0,105.0,-47.0,4.0,-887.0,-437.0
-8.0,-226.0,-101.0,352.0,102.0,-41.0,-3.0,-882.0,-433.0
-7.0,-228.0,-101.0,356.0,98.0,-36.0,-6.0,-878.0,-430.0
-9.0,-226.0,-98.0,360.0,95.0,-33.0,-3.0,-876.0,-435.0
-10.0,-222.0,-99.0,361.0,93.0,-30.0,-3.0,-872.0,-439.0
-9.0,-223.0,-104.0,357.0,94.0,-29.0,-7.0,-877.0,-447.0
-8.0,-227.0,-106.0,350.0,100.0,-27.0,-4.0,-876.0,-451.0
-11.0,-225.0,-106.0,338.0,107.0,-28.0,-7.0,-879.0,-460.0
-8.0,-228.0,-107.0,324.0,115.0,-29.0,-10.0,-882.0,-465.0
-8.0,-229.0,-112.0,310.0,123.0,-32.0,-12.0,-883.0,-469.0
-8.0,-227.0,-108.0,306.0,135.0,-35.0,-11.0,-882.0,-467.0
-7.0,-226.0,-110.0,304.0,143.0,-36.0,-11.0,-882.0,-469.0
-8.0,-229.0,-105.0,305.0,149.0,-44.0,-5.0,-890.0,-470.0
-8.0,-231.0,-109.0,310.0,153.0,-56.0,-1.0,-894.0,-473.0
-11.0,-227.0,-110.0,318.0,153.0,-70.0,-14.0,-881.0,-462.0
-10.0,-225.0,-103.0,338.0,160.0,-57.0,0.0,-883.0,-461.0
-5.0,-225.0,-104.0,360.0,165.0,-53.0,2.0,-875.0,-456.0
-8.0,-225.0,-105.0,383.0,172.0,-54.0,0.0,-874.0,-451.0
-5.0,-222.0,-104.0,403.0,176.0,-53.0,-2.0,-870.0,-448.0
-6.0,-225.0,-101.0,420.0,183.0,-52.0,-1.0,-861.0,-442.0
-6.0,-218.0,-100.0,432.0,189.0,-50.0,5.0,-852.0,-437.0
-5.0,-220.0,-103.0,440.0,191.0,-48.0,7.0,-850.0,-443.0
-2.0,-216.0,-102.0,443.0,195.0,-47.0,7.0,-846.0,-435.0
-1.0,-216.0,-101.0,435.0,198.0,-44.0,10.0,-844.0,-443.0
-1.0,-213.0,-102.0,421.0,200.0,-41.0,16.0,-844.0,-437.0
-1.0,-217.0,-103.0,404.0,198.0,-36.0,17.0,-840.0,-444.0
3.0,-217.0,-99.0,383.0,197.0,-33.0,24.0,-839.0,-438.0
1.0,-218.0,-103.0,361.0,196.0,-30.0,24.0,-836.0,-445.0
-2.0,-213.0,-104.0,338.0,195.0,-26.0,24.0,-839.0,-447.0
1.0,-218.0,-103.0,314.0,195.0,-19.0,33.0,-848.0,-452.0
3.0,-220.0,-104.0,292.0,195.0,-18.0,31.0,-855.0,-450.0
1.0,-220.0,-103.0,270.0,197.0,-7.0,35.0,-853.0,-452.0
0.0,-219.0,-103.0,255.0,200.0,-6.0,28.0,-861.0,-447.0
1.0,-220.0,-104.0,240.0,198.0,-4.0,28.0,-862.0,-451.0
3.0,-226.0,-101.0,232.0,198.0,5.0,25.0,-873.0,-451.0
3.0,-227.0,-101.0,227.0,196.0,7.0,30.0,-880.0,-449.0
0.0,-229.0,-100.0,224.0,196.0,8.0,27.0,-884.0,-439.0
3.0,-230.0,-102.0,224.0,195.0,10.0,27.0,-885.0,-439.0
-2.0,-226.0,-100.0,229.0,197.0,15.0,27.0,-886.0,-443.0
3.0,-232.0,-99.0,234.0,195.0,20.0,30.0,-889.0,-442.0
1.0,-228.0,-103.0,232.0,195.0,6.0,22.0,-885.0,-435.0
3.0,-226.0,-103.0,235.0,189.0,12.0,21.0,-884.0,-440.0
3.0,-231.0,-102.0,241.0,189.0,28.0,28.0,-888.0,-437.0
1.0,-228.0,-102.0,246.0,187.0,33.0,28.0,-892.0,-430.0
-1.0,-232.0,-101.0,249.0,184.0,36.0,22.0,-892.0,-426.0
-4.0,-230.0,-100.0,250.0,180.0,40.0,21.0,-900.0,-444.0
1.0,-232.0,-103.0,247.0,176.0,42.0,20.0,-898.0,-438.0
-1.0,-231.0,-100.0,242.0,172.0,42.0,17.0,-891.0,-446.0
-3.0,-228.0,-101.0,239.0,171.0,44.0,22.0,-891.0,-445.0
-3.0,-231.0,-105.0,238.0,174.0,46.0,22.0,-891.0,-454.0
-6.0,-228.0,-104.0,234.0,178.0,47.0,16.0,-893.0,-456.0
1.0,-231.0,-99.0,231.0,183.0,47.0,9.0,-889.0,-453.0
-1.0,-230.0,-103.0,226.0,187.0,51.0,22.0,-889.0,-448.0
-5.0,-228.0,-101.0,229.0,188.0,43.0,16.0,-886.0,-438.0
-3.0,-229.0,-99.0,239.0,182.0,39.0,12.0,-883.0,-438.0
-3.0,-227.0,-101.0,247.0,176.0,38.0,16.0,-878.0,-441.0
-2.0,-228.0,-100.0,254.0,169.0,36.0,15.0,-876.0,-439.0
-3.0,-224.0,-99.0,259.0,161.0,34.0,16.0,-876.0,-437.0
-5.0,-224.0,-101.0,260.0,156.0,29.0,10.0,-862.0,-443.0
-4.0,-223.0,-104.0,258.0,153.0,27.0,11.0,-864.0,-437.0
-4.0,-223.0,-101.0,250.0,153.0,25.0,5.0,-866.0,-433.0
-4.0,-218.0,-99.0,238.0,154.0,24.0,17.0,-863.0,-423.0
-2.0,-223.0,-97.0,225.0,158.0,22.0,13.0,-862.0,-421.0
-5.0,-224.0,-97.0,212.0,160.0,18.0,17.0,-868.0,-415.0
-2.0,-220.0,-95.0,193.0,160.0,16.0,13.0,-861.0,-418.0
-2.0,-222.0,-98.0,174.0,160.0,15.0,14.0,-870.0,-417.0
-4.0,-226.0,-99.0,152.0,154.0,13.0,16.0,-879.0,-417.0
-1.0,-226.0,-95.0,128.0,147.0,9.0,22.0,-883.0,-415.0
-5.0,-232.0,-98.0,106.0,139.0,11.0,22.0,-891.0,-414.0
-2.0,-232.0,-96.0,93.0,135.0,10.0,26.0,-890.0,-409.0
-1.0,-234.0,-92.0,87.0,129.0,9.0,27.0,-900.0,-405.0
-3.0,-235.0,-90.0,85.0,124.0,8.0,23.0,-908.0,-398.0
2.0,-237.0,-89.0,84.0,120.0,6.0,26.0,-913.0,-394.0
-2.0,-236.0,-86.0,88.0,117.0,2.0,26.0,-914.0,-390.0
-1.0,-242.0,-89.0,90.0,114.0,0.0,22.0,-923.0,-391.0
-4.0,-242.0,-88.0,92.0,113.0,-5.0,23.0,-936.0,-396.0
-6.0,-243.0,-95.0,91.0,108.0,-6.0,13.0,-939.0,-396.0
-7.0,-243.0,-91.0,85.0,106.0,-15.0,14.0,-958.0,-405.0
-6.0,-244.0,-94.0,70.0,91.0,-32.0,-1.0,-935.0,-403.0
-5.0,-245.0,-92.0,72.0,83.0,-14.0,15.0,-947.0,-404.0
-3.0,-243.0,-95.0,75.0,77.0,-9.0,11.0,-948.0,-404.0
-6.0,-247.0,-93.0,78.0,75.0,-5.0,21.0,-941.0,-399.0
-7.0,-247.0,-92.0,88.0,67.0,-15.0,7.0,-943.0,-405.0
-3.0,-245.0,-96.0,101.0,63.0,-16.0,4.0,-943.0,-406.0
-5.0,-243.0,-93.0,113.0,63.0,-19.0,8.0,-944.0,-401.0
-7.0,-244.0,-92.0,124.0,63.0,-21.0,14.0,-936.0,-401.0
-4.0,-242.0,-91.0,137.0,63.0,-23.0,8.0,-939.0,-398.0
-9.0,-241.0,-93.0,145.0,64.0,-27.0,8.0,-930.0,-406.0
-3.0,-242.0,-94.0,149.0,67.0,-34.0,15.0,-933.0,-403.0
-3.0,-239.0,-93.0,150.0,70.0,-36.0,12.0,-925.0,-410.0
0.0,-242.0,-90.0,148.0,73.0,-38.0,12.0,-922.0,-407.0
-8.0,-237.0,-90.0,144.0,76.0,-40.0,16.0,-918.0,-405.0
-2.0,-238.0,-95.0,137.0,76.0,-45.0,16.0,-914.0,-406.0
-4.0,-235.0,-94.0,128.0,76.0,-49.0,20.0,-911.0,-398.0
0.0,-234.0,-90.0,122.0,73.0,-55.0,19.0,-909.0,-391.0
-1.0,-233.0,-90.0,116.0,71.0,-58.0,22.0,-907.0,-392.0
-1.0,-234.0,-90.0,110.0,65.0,-60.0,25.0,-905.0,-397.0
1.0,-233.0,-95.0,101.0,62.0,-61.0,27.0,-901.0,-401.0
2.0,-234.0,-95.0,90.0,60.0,-62.0,35.0,-902.0,-409.0
2.0,-234.0,-93.0,77.0,60.0,-63.0,36.0,-907.0,-414.0
5.0,-234.0,-96.0,65.0,61.0,-64.0,35.0,-905.0,-415.0
4.0,-235.0,-93.0,55.0,64.0,-62.0,43.0,-912.0,-416.0
4.0,-233.0,-96.0,51.0,66.0,-60.0,46.0,-913.0,-413.0
4.0,-236.0,-92.0,49.0,67.0,-57.0,45.0,-917.0,-406.0
5.0,-241.0,-93.0,49.0,67.0,-54.0,52.0,-916.0,-409.0
4.0,-239.0,-92.0,52.0,66.0,-51.0,50.0,-913.0,-408.0
7.0,-241.0,-97.0,57.0,65.0,-48.0,47.0,-921.0,-408.0
4.0,-241.0,-91.0,64.0,63.0,-45.0,46.0,-927.0,-404.0
4.0,-241.0,-93.0,71.0,62.0,-41.0,49.0,-932.0,-398.0
4.0,-238.0,-92.0,78.0,61.0,-37.0,48.0,-935.0,-399.0
4.0,-241.0,-91.0,82.0,59.0,-34.0,46.0,-934.0,-394.0
4.0,-239.0,-90.0,84.0,58.0,-30.0,48.0,-934.0,-394.0
4.0,-241.0,-87.0,84.0,60.0,-26.0,40.0,-939.0,-398.0
4.0,-246.0,-92.0,79.0,66.0,-23.0,46.0,-937.0,-396.0
2.0,-240.0,-91.0,72.0,75.0,-20.0,49.0,-945.0,-398.0
4.0,-246.0,-88.0,65.0,82.0,-19.0,48.0,-949.0,-381.0
6.0,-247.0,-88.0,61.0,88.0,-19.0,44.0,-948.0,-388.0
5.0,-246.0,-89.0,57.0,95.0,-19.0,47.0,-952.0,-388.0
4.0,-246.0,-88.0,56.0,101.0,-20.0,48.0,-956.0,-378.0
5.0,-247.0,-88.0,58.0,107.0,-20.0,49.0,-956.0,-376.0
4.0,-245.0,-88.0,63.0,112.0,-20.0,56.0,-952.0,-372.0
5.0,-246.0,-86.0,66.0,111.0,-24.0,47.0,-955.0,-376.0
12.0,-253.0,-88.0,68.0,110.0,-30.0,70.0,-963.0,-385.0
4.0,-244.0,-84.0,66.0,110.0,-44.0,44.0,-938.0,-368.0
4.0,-244.0,-83.0,72.0,113.0,-34.0,51.0,-946.0,-375.0
6.0,-247.0,-83.0,72.0,118.0,-16.0,29.0,-969.0,-374.0
6.0,-242.0,-80.0,69.0,125.0,-4.0,73.0,-943.0,-367.0
8.0,-244.0,-86.0,75.0,128.0,-24.0,56.0,-943.0,-373.0
4.0,-246.0,-83.0,82.0,131.0,-29.0,50.0,-945.0,-367.0
4.0,-247.0,-83.0,85.0,130.0,-29.0,46.0,-938.0,-363.0
4.0,-243.0,-79.0,86.0,125.0,-29.0,47.0,-943.0,-363.0
4.0,-241.0,-83.0,86.0,118.0,-29.0,49.0,-941.0,-363.0
3.0,-244.0,-82.0,85.0,112.0,-27.0,41.0,-935.0,-362.0
4.0,-243.0,-81.0,83.0,108.0,-22.0,41.0,-934.0,-363.0
4.0,-242.0,-84.0,81.0,106.0,-17.0,45.0,-937.0,-358.0
0.0,-243.0,-79.0,78.0,100.0,-12.0,43.0,-938.0,-355.0
3.0,-242.0,-81.0,77.0,98.0,-7.0,38.0,-940.0,-353.0
3.0,-243.0,-71.0,75.0,95.0,-2.0,35.0,-939.0,-343.0
3.0,-245.0,-78.0,76.0,92.0,1.0,36.0,-942.0,-342.0
3.0,-243.0,-79.0,77.0,90.0,6.0,41.0,-941.0,-337.0
4.0,-244.0,-78.0,76.0,87.0,11.0,38.0,-944.0,-339.0
3.0,-242.0,-77.0,73.0,83.0,13.0,34.0,-944.0,-337.0
4.0,-246.0,-75.0,67.0,80.0,15.0,33.0,-944.0,-342.0
2.0,-246.0,-78.0,59.0,75.0,17.0,33.0,-949.0,-339.0
4.0,-248.0,-78.0,48.0,72.0,15.0,27.0,-950.0,-346.0
3.0,-245.0,-80.0,39.0,72.0,15.0,28.0,-956.0,-353.0
1.0,-252.0,-82.0,32.0,74.0,15.0,29.0,-960.0,-352.0
3.0,-249.0,-79.0,28.0,74.0,15.0,27.0,-958.0,-350.0
3.0,-252.0,-80.0,25.0,72.0,13.0,29.0,-964.0,-350.0
3.0,-249.0,-79.0,23.0,72.0,10.0,31.0,-966.0,-347.0
2.0,-250.0,-77.0,24.0,68.0,7.0,27.0,-963.0,-350.0
0.0,-250.0,-79.0,27.0,64.0,3.0,25.0,-967.0,-355.0
-2.0,-250.0,-80.0,32.0,61.0,0.0,30.0,-962.0,-357.0
3.0,-250.0,-80.0,39.0,57.0,-3.0,29.0,-969.0,-357.0
1.0,-250.0,-83.0,48.0,54.0,-6.0,28.0,-966.0,-351.0
-2.0,-251.0,-74.0,56.0,53.0,-7.0,27.0,-963.0,-340.0
1.0,-245.0,-83.0,63.0,50.0,-11.0,29.0,-965.0,-343.0
-1.0,-251.0,-76.0,69.0,46.0,-13.0,27.0,-960.0,-340.0
-1.0,-250.0,-75.0,75.0,42.0,-14.0,29.0,-962.0,-336.0
2.0,-247.0,-75.0,78.0,37.0,-17.0,29.0,-961.0,-331.0
-1.0,-251.0,-67.0,81.0,34.0,-17.0,28.0,-962.0,-327.0
-1.0,-249.0,-77.0,83.0,30.0,-19.0,35.0,-960.0,-328.0
0.0,-250.0,-74.0,83.0,28.0,-20.0,32.0,-965.0,-327.0
3.0,-249.0,-74.0,80.0,29.0,-22.0,29.0,-961.0,-327.0
-2.0,-250.0,-75.0,76.0,29.0,-25.0,31.0,-960.0,-329.0
-2.0,-251.0,-71.0,72.0,32.0,-27.0,21.0,-964.0,-322.0
-3.0,-250.0,-70.0,70.0,35.0,-28.0,27.0,-963.0,-318.0
0.0,-251.0,-68.0,70.0,36.0,-31.0,22.0,-958.0,-321.0
-2.0,-251.0,-69.0,76.0,35.0,-33.0,22.0,-958.0,-313.0
-1.0,-250.0,-68.0,80.0,30.0,-34.0,18.0,-960.0,-313.0
1.0,-248.0,-71.0,83.0,27.0,-33.0,17.0,-960.0,-314.0
-2.0,-247.0,-69.0,83.0,27.0,-34.0,23.0,-957.0,-319.0
-2.0,-248.0,-68.0,79.0,26.0,-32.0,24.0,-959.0,-313.0
-2.0,-249.0,-72.0,73.0,26.0,-31.0,27.0,-963.0,-321.0
-1.0,-244.0,-69.0,65.0,28.0,-31.0,31.0,-962.0,-318.0
2.0,-252.0,-74.0,58.0,29.0,-29.0,25.0,-963.0,-315.0
0.0,-250.0,-70.0,52.0,30.0,-28.0,37.0,-971.0,-319.0
2.0,-248.0,-68.0,47.0,29.0,-27.0,36.0,-964.0,-323.0
0.0,-253.0,-79.0,45.0,29.0,-28.0,43.0,-974.0,-319.0
3.0,-253.0,-69.0,47.0,26.0,-27.0,45.0,-973.0,-312.0
4.0,-253.0,-72.0,52.0,23.0,-25.0,43.0,-974.0,-318.0
4.0,-253.0,-75.0,56.0,17.0,-25.0,41.0,-976.0,-321.0
4.0,-254.0,-70.0,63.0,16.0,-24.0,40.0,-972.0,-315.0
4.0,-249.0,-73.0,72.0,18.0,-22.0,40.0,-968.0,-310.0
2.0,-251.0,-72.0,78.0,19.0,-23.0,42.0,-974.0,-315.0
3.0,-251.0,-68.0,81.0,23.0,-21.0,43.0,-970.0,-316.0
4.0,-253.0,-69.0,86.0,27.0,-21.0,42.0,-970.0,-320.0
4.0,-251.0,-71.0,88.0,30.0,-21.0,40.0,-968.0,-313.0
4.0,-253.0,-65.0,88.0,34.0,-19.0,40.0,-968.0,-309.0
2.0,-249.0,-69.0,90.0,35.0,-18.0,38.0,-966.0,-309.0
4.0,-254.0,-69.0,93.0,36.0,-18.0,48.0,-969.0,-313.0
3.0,-251.0,-69.0,96.0,38.0,-17.0,41.0,-969.0,-311.0
5.0,-254.0,-67.0,99.0,42.0,-17.0,45.0,-968.0,-302.0
10.0,-256.0,-71.0,100.0,45.0,-24.0,94.0,-1005.0,-309.0
-1.0,-249.0,-69.0,95.0,52.0,-45.0,26.0,-962.0,-299.0
4.0,-249.0,-68.0,101.0,49.0,-24.0,35.0,-976.0,-302.0
2.0,-256.0,-71.0,102.0,42.0,-22.0,40.0,-977.0,-299.0
3.0,-254.0,-69.0,101.0,40.0,-22.0,40.0,-978.0,-306.0
4.0,-255.0,-69.0,102.0,40.0,-19.0,40.0,-973.0,-315.0
3.0,-254.0,-72.0,103.0,43.0,-20.0,38.0,-980.0,-306.0
0.0,-252.0,-77.0,105.0,48.0,-18.0,35.0,-980.0,-307.0
1.0,-255.0,-69.0,109.0,54.0,-17.0,35.0,-976.0,-307.0
3.0,-253.0,-69.0,112.0,59.0,-15.0,29.0,-976.0,-309.0
3.0,-254.0,-68.0,115.0,63.0,-14.0,39.0,-978.0,-306.0
1.0,-251.0,-68.0,121.0,63.0,-13.0,35.0,-973.0,-306.0
3.0,-252.0,-70.0,124.0,62.0,-14.0,26.0,-972.0,-306.0
0.0,-252.0,-69.0,125.0,62.0,-13.0,35.0,-963.0,-304.0
0.0,-250.0,-67.0,124.0,61.0,-11.0,29.0,-965.0,-299.0
-1.0,-250.0,-65.0,122.0,59.0,-11.0,31.0,-966.0,-306.0
0.0,-249.0,-69.0,123.0,57.0,-10.0,26.0,-963.0,-303.0
1.0,-250.0,-66.0,120.0,53.0,-11.0,27.0,-960.0,-300.0
-2.0,-250.0,-67.0,117.0,48.0,-9.0,26.0,-958.0,-297.0
2.0,-250.0,-68.0,112.0,46.0,-10.0,30.0,-961.0,-299.0
0.0,-248.0,-67.0,105.0,47.0,-9.0,29.0,-960.0,-301.0
1.0,-247.0,-67.0,99.0,50.0,-9.0,32.0,-959.0,-298.0
4.0,-249.0,-68.0,94.0,50.0,-9.0,30.0,-956.0,-295.0
3.0,-249.0,-65.0,90.0,53.0,-10.0,29.0,-960.0,-296.0
3.0,-252.0,-66.0,85.0,54.0,-10.0,33.0,-963.0,-297.0
0.0,-250.0,-63.0,85.0,55.0,-10.0,31.0,-965.0,-294.0
2.0,-252.0,-62.0,81.0,57.0,-9.0,34.0,-963.0,-296.0
3.0,-252.0,-68.0,78.0,58.0,-10.0,31.0,-961.0,-297.0
4.0,-252.0,-65.0,73.0,60.0,-9.0,31.0,-969.0,-296.0
7.0,-245.0,-62.0,67.0,61.0,-7.0,38.0,-965.0,-287.0
2.0,-252.0,-64.0,63.0,61.0,-7.0,41.0,-968.0,-286.0
4.0,-252.0,-67.0,53.0,59.0,8.0,19.0,-955.0,-288.0
4.0,-247.0,-64.0,48.0,56.0,9.0,59.0,-963.0,-279.0
5.0,-250.0,-69.0,49.0,54.0,-3.0,42.0,-959.0,-290.0
4.0,-251.0,-65.0,47.0,57.0,-4.0,38.0,-963.0,-287.0
4.0,-248.0,-65.0,44.0,60.0,-4.0,39.0,-962.0,-288.0
5.0,-247.0,-66.0,40.0,60.0,-3.0,41.0,-964.0,-295.0
2.0,-248.0,-64.0,37.0,61.0,-3.0,43.0,-965.0,-294.0
4.0,-252.0,-68.0,31.0,64.0,-4.0,45.0,-963.0,-297.0
4.0,-251.0,-66.0,28.0,66.0,-4.0,43.0,-963.0,-292.0
3.0,-251.0,-65.0,23.0,68.0,-3.0,37.0,-963.0,-294.0
5.0,-253.0,-65.0,20.0,68.0,-4.0,41.0,-963.0,-293.0
2.0,-250.0,-67.0,18.0,68.0,-3.0,38.0,-964.0,-289.0
0.0,-249.0,-66.0,16.0,68.0,0.0,37.0,-964.0,-290.0
4.0,-251.0,-65.0,15.0,69.0,0.0,38.0,-965.0,-288.0
4.0,-253.0,-64.0,13.0,70.0,3.0,36.0,-962.0,-288.0
0.0,-249.0,-64.0,11.0,74.0,4.0,39.0,-960.0,-285.0
4.0,-246.0,-64.0,8.0,75.0,5.0,36.0,-963.0,-288.0
3.0,-250.0,-65.0,4.0,77.0,5.0,31.0,-970.0,-285.0
2.0,-250.0,-63.0,-1.0,77.0,5.0,35.0,-965.0,-285.0
6.0,-245.0,-64.0,-7.0,79.0,5.0,39.0,-964.0,-288.0
3.0,-252.0,-64.0,-11.0,80.0,4.0,38.0,-970.0,-291.0
1.0,-250.0,-65.0,-14.0,84.0,5.0,36.0,-969.0,-288.0
4.0,-250.0,-64.0,-17.0,85.0,4.0,40.0,-968.0,-288.0
5.0,-253.0,-64.0,-22.0,89.0,7.0,38.0,-970.0,-286.0
3.0,-251.0,-62.0,-24.0,91.0,5.0,40.0,-962.0,-286.0
4.0,-252.0,-64.0,-27.0,92.0,5.0,42.0,-967.0,-279.0
5.0,-252.0,-64.0,-28.0,92.0,4.0,47.0,-963.0,-282.0
4.0,-253.0,-64.0,-29.0,92.0,2.0,44.0,-970.0,-281.0
4.0,-247.0,-61.0,-31.0,92.0,2.0,49.0,-971.0,-285.0
4.0,-253.0,-64.0,-34.0,92.0,1.0,43.0,-968.0,-287.0
4.0,-253.0,-66.0,-37.0,91.0,0.0,42.0,-975.0,-286.0
4.0,-253.0,-64.0,-43.0,90.0,-1.0,47.0,-978.0,-283.0
2.0,-252.0,-67.0,-47.0,89.0,-1.0,45.0,-971.0,-286.0
2.0,-252.0,-66.0,-51.0,89.0,0.0,41.0,-979.0,-286.0
1.0,-252.0,-60.0,-52.0,91.0,0.0,33.0,-979.0,-279.0
3.0,-252.0,-64.0,-56.0,92.0,1.0,38.0,-978.0,-287.0
-1.0,-252.0,-64.0,-56.0,93.0,0.0,38.0,-978.0,-284.0
3.0,-251.0,-63.0,-53.0,93.0,0.0,37.0,-977.0,-283.0
3.0,-252.0,-65.0,-51.0,95.0,2.0,40.0,-979.0,-284.0
3.0,-254.0,-64.0,-50.0,96.0,4.0,42.0,-979.0,-281.0
4.0,-254.0,-64.0,-50.0,98.0,5.0,41.0,-981.0,-280.0
2.0,-254.0,-66.0,-50.0,98.0,4.0,38.0,-979.0,-287.0
1.0,-252.0,-64.0,-50.0,98.0,5.0,35.0,-979.0,-290.0
3.0,-253.0,-67.0,-51.0,96.0,6.0,42.0,-979.0,-281.0
6.0,-254.0,-64.0,-49.0,95.0,5.0,42.0,-979.0,-283.0
3.0,-255.0,-66.0,-47.0,95.0,6.0,43.0,-972.0,-282.0
4.0,-254.0,-65.0,-46.0,95.0,5.0,42.0,-979.0,-277.0
3.0,-256.0,-64.0,-43.0,96.0,4.0,33.0,-977.0,-278.0
2.0,-253.0,-61.0,-42.0,97.0,4.0,39.0,-981.0,-277.0
4.0,-253.0,-61.0,-41.0,95.0,2.0,35.0,-979.0,-276.0
2.0,-255.0,-60.0,-38.0,92.0,1.0,36.0,-984.0,-275.0
2.0,-254.0,-64.0,-36.0,89.0,0.0,35.0,-984.0,-278.0
2.0,-255.0,-60.0,-37.0,87.0,1.0,37.0,-982.0,-271.0
2.0,-255.0,-61.0,-34.0,85.0,0.0,33.0,-985.0,-276.0
2.0,-255.0,-63.0,-30.0,84.0,-1.0,36.0,-981.0,-271.0
1.0,-255.0,-59.0,-29.0,83.0,-2.0,37.0,-982.0,-277.0
3.0,-254.0,-61.0,-26.0,80.0,-2.0,32.0,-978.0,-272.0
0.0,-255.0,-63.0,-26.0,79.0,-3.0,37.0,-980.0,-277.0
3.0,-253.0,-63.0,-27.0,79.0,-3.0,34.0,-984.0,-276.0
3.0,-253.0,-60.0,-30.0,79.0,-3.0,29.0,-983.0,-280.0
1.0,-254.0,-63.0,-30.0,80.0,-2.0,40.0,-981.0,-279.0
0.0,-255.0,-60.0,-32.0,81.0,-1.0,34.0,-988.0,-275.0
4.0,-250.0,-64.0,-34.0,80.0,-3.0,31.0,-982.0,-278.0
-3.0,-258.0,-54.0,-34.0,79.0,-3.0,31.0,-974.0,-281.0
1.0,-251.0,-63.0,-33.0,80.0,-2.0,32.0,-974.0,-282.0
2.0,-255.0,-60.0,-32.0,80.0,0.0,34.0,-975.0,-283.0
4.0,-254.0,-63.0,-30.0,80.0,-1.0,35.0,-978.0,-279.0
3.0,-252.0,-64.0,-29.0,82.0,1.0,34.0,-978.0,-278.0
4.0,-256.0,-64.0,-32.0,84.0,1.0,38.0,-981.0,-280.0
4.0,-254.0,-63.0,-35.0,84.0,1.0,35.0,-976.0,-278.0
4.0,-252.0,-61.0,-39.0,83.0,1.0,38.0,-979.0,-280.0
4.0,-255.0,-62.0,-43.0,84.0,0.0,42.0,-978.0,-280.0
5.0,-257.0,-63.0,-44.0,82.0,0.0,45.0,-981.0,-280.0
3.0,-255.0,-61.0,-43.0,80.0,0.0,45.0,-983.0,-285.0
4.0,-257.0,-65.0,-41.0,76.0,0.0,43.0,-988.0,-279.0
4.0,-255.0,-64.0,-39.0,75.0,0.0,47.0,-984.0,-280.0
5.0,-257.0,-64.0,-33.0,75.0,-1.0,49.0,-988.0,-281.0
4.0,-255.0,-64.0,-28.0,76.0,1.0,46.0,-983.0,-285.0
4.0,-256.0,-62.0,-26.0,76.0,0.0,48.0,-989.0,-284.0
3.0,-253.0,-65.0,-24.0,77.0,0.0,45.0,-987.0,-284.0
4.0,-255.0,-63.0,-24.0,76.0,1.0,42.0,-983.0,-284.0
4.0,-257.0,-64.0,-22.0,76.0,1.0,41.0,-980.0,-291.0
4.0,-258.0,-62.0,-20.0,76.0,0.0,38.0,-980.0,-289.0
3.0,-255.0,-65.0,-19.0,75.0,0.0,40.0,-977.0,-287.0
2.0,-254.0,-59.0,-13.0,75.0,0.0,38.0,-981.0,-287.0
4.0,-245.0,-58.0,-8.0,76.0,0.0,38.0,-974.0,-291.0
2.0,-254.0,-65.0,-5.0,77.0,0.0,31.0,-975.0,-292.0
3.0,-252.0,-66.0,-3.0,79.0,0.0,36.0,-973.0,-290.0
2.0,-252.0,-65.0,-4.0,80.0,0.0,40.0,-972.0,-292.0
4.0,-253.0,-64.0,-5.0,83.0,0.0,40.0,-973.0,-285.0
4.0,-253.0,-66.0,-7.0,84.0,-1.0,33.0,-969.0,-290.0
3.0,-252.0,-64.0,-9.0,85.0,-1.0,36.0,-972.0,-290.0
0.0,-251.0,-69.0,-10.0,88.0,-1.0,35.0,-975.0,-288.0
5.0,-250.0,-65.0,-12.0,88.0,-1.0,35.0,-976.0,-290.0
3.0,-254.0,-65.0,-13.0,89.0,-1.0,37.0,-970.0,-289.0
0.0,-251.0,-63.0,-11.0,88.0,-3.0,37.0,-969.0,-286.0
1.0,-253.0,-64.0,-11.0,86.0,-2.0,34.0,-975.0,-287.0
4.0,-251.0,-63.0,-11.0,84.0,-3.0,38.0,-975.0,-286.0
3.0,-252.0,-65.0,-9.0,81.0,-1.0,36.0,-976.0,-291.0
2.0,-256.0,-63.0,-10.0,82.0,-1.0,37.0,-971.0,-289.0
4.0,-254.0,-65.0,-11.0,81.0,-2.0,43.0,-971.0,-289.0
4.0,-252.0,-64.0,-13.0,80.0,-1.0,40.0,-979.0,-288.0
3.0,-250.0,-64.0,-16.0,80.0,-2.0,37.0,-973.0,-286.0
2.0,-252.0,-63.0,-19.0,79.0,-1.0,39.0,-968.0,-289.0
4.0,-252.0,-65.0,-21.0,79.0,-2.0,32.0,-973.0,-286.0
1.0,-255.0,-62.0,-22.0,80.0,-2.0,36.0,-973.0,-286.0
1.0,-250.0,-65.0,-23.0,79.0,-2.0,41.0,-974.0,-287.0
5.0,-255.0,-63.0,-25.0,79.0,-1.0,42.0,-971.0,-290.0
4.0,-254.0,-66.0,-26.0,81.0,0.0,33.0,-972.0,-291.0
3.0,-255.0,-65.0,-27.0,79.0,-1.0,33.0,-969.0,-290.0
3.0,-253.0,-65.0,-26.0,76.0,0.0,36.0,-974.0,-289.0
3.0,-255.0,-65.0,-28.0,75.0,3.0,38.0,-972.0,-292.0
3.0,-253.0,-66.0,-27.0,75.0,2.0,40.0,-982.0,-295.0
4.0,-254.0,-67.0,-28.0,75.0,2.0,35.0,-977.0,-287.0
1.0,-250.0,-65.0,-29.0,72.0,2.0,34.0,-972.0,-288.0
1.0,-253.0,-66.0,-29.0,71.0,3.0,35.0,-982.0,-286.0
-1.0,-253.0,-65.0,-31.0,70.0,4.0,33.0,-976.0,-288.0
1.0,-253.0,-63.0,-32.0,68.0,4.0,37.0,-978.0,-286.0
2.0,-253.0,-63.0,-33.0,67.0,1.0,33.0,-972.0,-282.0
3.0,-254.0,-67.0,-34.0,69.0,0.0,32.0,-975.0,-285.0
5.0,-254.0,-65.0,-32.0,70.0,-1.0,33.0,-975.0,-283.0
1.0,-253.0,-66.0,-32.0,70.0,1.0,32.0,-977.0,-285.0
2.0,-254.0,-63.0,-33.0,72.0,1.0,34.0,-976.0,-286.0
2.0,-253.0,-66.0,-32.0,74.0,-1.0,31.0,-978.0,-291.0
2.0,-256.0,-67.0,-33.0,72.0,-1.0,31.0,-974.0,-288.0
4.0,-254.0,-65.0,-35.0,71.0,0.0,32.0,-976.0,-289.0
1.0,-254.0,-63.0,-35.0,70.0,-1.0,32.0,-977.0,-292.0
0.0,-255.0,-67.0,-36.0,68.0,-1.0,33.0,-980.0,-290.0
0.0,-251.0,-64.0,-34.0,67.0,-1.0,31.0,-979.0,-291.0
2.0,-254.0,-67.0,-33.0,66.0,-3.0,37.0,-981.0,-292.0
3.0,-252.0,-65.0,-31.0,65.0,-3.0,32.0,-976.0,-291.0
0.0,-254.0,-65.0,-30.0,66.0,-2.0,35.0,-978.0,-296.0
5.0,-255.0,-71.0,-31.0,63.0,-2.0,36.0,-973.0,-297.0
-2.0,-251.0,-69.0,-33.0,63.0,-3.0,30.0,-972.0,-299.0
1.0,-251.0,-67.0,-33.0,63.0,-3.0,31.0,-973.0,-298.0
1.0,-253.0,-66.0,-33.0,62.0,-3.0,37.0,-976.0,-297.0
4.0,-253.0,-67.0,-32.0,62.0,-3.0,35.0,-968.0,-296.0
4.0,-252.0,-64.0,-30.0,62.0,-4.0,34.0,-971.0,-299.0
1.0,-252.0,-68.0,-31.0,63.0,-3.0,31.0,-969.0,-294.0
2.0,-252.0,-64.0,-29.0,63.0,-4.0,33.0,-975.0,-295.0
1.0,-253.0,-67.0,-28.0,64.0,-5.0,34.0,-971.0,-295.0
0.0,-251.0,-66.0,-25.0,62.0,-5.0,33.0,-973.0,-295.0
1.0,-254.0,-67.0,-25.0,62.0,-5.0,34.0,-968.0,-290.0
1.0,-254.0,-65.0,-24.0,60.0,-5.0,34.0,-978.0,-297.0
2.0,-254.0,-67.0,-24.0,60.0,-7.0,33.0,-973.0,-292.0
4.0,-251.0,-64.0,-26.0,60.0,-6.0,33.0,-970.0,-296.0
4.0,-251.0,-69.0,-26.0,62.0,-5.0,32.0,-973.0,-296.0
-2.0,-252.0,-67.0,-26.0,62.0,-6.0,32.0,-969.0,-295.0
1.0,-252.0,-69.0,-28.0,62.0,-6.0,35.0,-974.0,-294.0
1.0,-250.0,-65.0,-30.0,62.0,-5.0,36.0,-980.0,-298.0
1.0,-251.0,-63.0,-30.0,63.0,-4.0,35.0,-976.0,-293.0
4.0,-252.0,-66.0,-31.0,64.0,-2.0,33.0,-973.0,-290.0
2.0,-254.0,-66.0,-33.0,65.0,-4.0,41.0,-974.0,-297.0
2.0,-254.0,-66.0,-35.0,64.0,-2.0,37.0,-977.0,-293.0
4.0,-255.0,-66.0,-35.0,66.0,-3.0,39.0,-981.0,-296.0
4.0,-253.0,-67.0,-33.0,69.0,-2.0,35.0,-980.0,-295.0
4.0,-254.0,-64.0,-31.0,70.0,-2.0,43.0,-978.0,-293.0
6.0,-255.0,-65.0,-27.0,72.0,-2.0,39.0,-976.0,-293.0
6.0,-256.0,-69.0,-24.0,72.0,-2.0,39.0,-974.0,-292.0
4.0,-252.0,-64.0,-24.0,73.0,-2.0,44.0,-971.0,-296.0
5.0,-255.0,-64.0,-24.0,72.0,-2.0,39.0,-972.0,-297.0
4.0,-253.0,-67.0,-26.0,72.0,-2.0,40.0,-972.0,-297.0
4.0,-251.0,-71.0,-26.0,73.0,-1.0,37.0,-973.0,-302.0
3.0,-253.0,-68.0,-27.0,74.0,0.0,36.0,-970.0,-299.0
4.0,-252.0,-69.0,-25.0,73.0,-1.0,36.0,-973.0,-298.0
2.0,-252.0,-66.0,-24.0,73.0,-1.0,36.0,-971.0,-301.0
4.0,-252.0,-69.0,-24.0,73.0,-2.0,38.0,-971.0,-295.0
1.0,-250.0,-68.0,-24.0,73.0,-3.0,34.0,-966.0,-297.0
-2.0,-251.0,-68.0,-25.0,72.0,-3.0,37.0,-968.0,-293.0
2.0,-252.0,-71.0,-29.0,70.0,-3.0,33.0,-966.0,-303.0
0.0,-251.0,-67.0,-30.0,72.0,-3.0,35.0,-969.0,-302.0
3.0,-250.0,-66.0,-33.0,71.0,-4.0,37.0,-970.0,-301.0
4.0,-252.0,-64.0,-37.0,72.0,-4.0,38.0,-966.0,-301.0
4.0,-253.0,-68.0,-39.0,70.0,-4.0,34.0,-966.0,-303.0
3.0,-253.0,-70.0,-40.0,70.0,-3.0,39.0,-971.0,-301.0
2.0,-255.0,-67.0,-43.0,69.0,-3.0,33.0,-971.0,-299.0
3.0,-253.0,-68.0,-43.0,70.0,-2.0,32.0,-969.0,-300.0
4.0,-252.0,-65.0,-39.0,70.0,-3.0,33.0,-972.0,-297.0
3.0,-254.0,-68.0,-38.0,75.0,-2.0,37.0,-976.0,-296.0
3.0,-252.0,-67.0,-35.0,74.0,-2.0,36.0,-971.0,-297.0
-1.0,-253.0,-68.0,-33.0,76.0,-2.0,37.0,-966.0,-299.0
3.0,-251.0,-67.0,-35.0,77.0,-2.0,28.0,-971.0,-306.0
1.0,-251.0,-68.0,-37.0,75.0,-3.0,33.0,-974.0,-301.0
2.0,-253.0,-68.0,-39.0,74.0,-2.0,33.0,-974.0,-300.0
2.0,-255.0,-69.0,-41.0,73.0,-4.0,38.0,-976.0,-298.0
2.0,-253.0,-67.0,-40.0,70.0,-3.0,34.0,-975.0,-300.0
2.0,-252.0,-68.0,-40.0,71.0,-4.0,38.0,-971.0,-298.0
4.0,-253.0,-64.0,-39.0,71.0,-5.0,34.0,-973.0,-297.0
2.0,-255.0,-68.0,-37.0,72.0,-3.0,36.0,-977.0,-304.0
1.0,-252.0,-67.0,-36.0,73.0,-3.0,30.0,-973.0,-308.0
4.0,-251.0,-69.0,-37.0,73.0,-4.0,32.0,-975.0,-302.0
3.0,-253.0,-70.0,-37.0,75.0,-3.0,37.0,-971.0,-309.0
3.0,-253.0,-67.0,-37.0,77.0,-3.0,34.0,-974.0,-312.0
3.0,-252.0,-68.0,-39.0,80.0,-4.0,36.0,-968.0,-307.0
2.0,-244.0,-69.0,-38.0,79.0,-6.0,37.0,-967.0,-310.0
2.0,-251.0,-69.0,-38.0,80.0,-5.0,37.0,-969.0,-305.0
1.0,-250.0,-68.0,-38.0,78.0,-3.0,40.0,-972.0,-311.0
4.0,-253.0,-68.0,-38.0,79.0,-4.0,39.0,-971.0,-301.0
3.0,-250.0,-67.0,-37.0,80.0,-4.0,40.0,-971.0,-307.0
4.0,-253.0,-68.0,-38.0,79.0,-3.0,37.0,-965.0,-311.0
4.0,-252.0,-69.0,-38.0,76.0,-3.0,38.0,-970.0,-308.0
4.0,-250.0,-70.0,-38.0,76.0,-4.0,36.0,-968.0,-302.0
3.0,-251.0,-68.0,-36.0,75.0,-3.0,35.0,-974.0,-305.0
2.0,-253.0,-70.0,-35.0,75.0,-1.0,34.0,-972.0,-301.0
3.0,-252.0,-72.0,-34.0,75.0,-1.0,35.0,-968.0,-301.0
2.0,-255.0,-71.0,-33.0,75.0,-1.0,35.0,-976.0,-306.0
1.0,-254.0,-69.0,-32.0,76.0,-1.0,39.0,-971.0,-307.0
1.0,-249.0,-69.0,-29.0,76.0,1.0,40.0,-973.0,-299.0
0.0,-250.0,-67.0,-29.0,78.0,2.0,34.0,-967.0,-302.0
5.0,-252.0,-70.0,-29.0,76.0,1.0,35.0,-972.0,-304.0
0.0,-251.0,-69.0,-31.0,76.0,1.0,41.0,-972.0,-304.0
3.0,-254.0,-70.0,-32.0,75.0,1.0,41.0,-969.0,-309.0
3.0,-251.0,-69.0,-35.0,76.0,1.0,34.0,-973.0,-307.0
2.0,-254.0,-66.0,-34.0,77.0,2.0,38.0,-970.0,-308.0
0.0,-254.0,-68.0,-35.0,78.0,1.0,38.0,-967.0,-304.0
4.0,-253.0,-68.0,-34.0,81.0,1.0,39.0,-974.0,-310.0
1.0,-254.0,-71.0,-33.0,82.0,2.0,38.0,-966.0,-309.0
4.0,-250.0,-70.0,-31.0,83.0,2.0,39.0,-972.0,-313.0
4.0,-253.0,-70.0,-31.0,84.0,1.0,39.0,-970.0,-306.0
2.0,-252.0,-67.0,-29.0,84.0,2.0,39.0,-964.0,-307.0
0.0,-249.0,-70.0,-28.0,84.0,1.0,39.0,-964.0,-309.0
2.0,-252.0,-70.0,-28.0,84.0,-1.0,37.0,-966.0,-313.0
2.0,-251.0,-69.0,-28.0,84.0,1.0,37.0,-965.0,-320.0
4.0,-252.0,-69.0,-27.0,82.0,0.0,37.0,-962.0,-314.0
1.0,-253.0,-69.0,-29.0,81.0,0.0,39.0,-963.0,-314.0
0.0,-251.0,-67.0,-31.0,80.0,0.0,33.0,-967.0,-317.0
2.0,-253.0,-67.0,-33.0,78.0,-1.0,34.0,-965.0,-311.0
2.0,-252.0,-68.0,-35.0,75.0,-1.0,27.0,-962.0,-314.0
4.0,-248.0,-66.0,-39.0,75.0,1.0,34.0,-960.0,-308.0
1.0,-252.0,-67.0,-41.0,73.0,2.0,33.0,-964.0,-306.0
0.0,-250.0,-72.0,-40.0,73.0,2.0,30.0,-971.0,-309.0
3.0,-254.0,-71.0,-41.0,75.0,3.0,38.0,-971.0,-308.0
4.0,-254.0,-71.0,-40.0,76.0,4.0,36.0,-970.0,-310.0
4.0,-252.0,-69.0,-39.0,76.0,3.0,37.0,-966.0,-308.0
2.0,-253.0,-71.0,-39.0,79.0,2.0,33.0,-969.0,-311.0
3.0,-255.0,-71.0,-35.0,81.0,4.0,33.0,-979.0,-304.0
-1.0,-252.0,-72.0,-35.0,82.0,4.0,34.0,-970.0,-311.0
-1.0,-252.0,-74.0,-32.0,84.0,2.0,33.0,-981.0,-312.0
3.0,-253.0,-71.0,-32.0,84.0,4.0,38.0,-972.0,-315.0
2.0,-252.0,-72.0,-32.0,85.0,4.0,34.0,-969.0,-321.0
3.0,-253.0,-69.0,-32.0,84.0,5.0,33.0,-967.0,-320.0
4.0,-251.0,-73.0,-30.0,81.0,4.0,31.0,-971.0,-320.0
2.0,-251.0,-69.0,-29.0,80.0,5.0,32.0,-968.0,-313.0
3.0,-252.0,-70.0,-28.0,77.0,4.0,34.0,-964.0,-312.0
0.0,-249.0,-68.0,-27.0,76.0,4.0,34.0,-965.0,-314.0
4.0,-253.0,-72.0,-25.0,74.0,4.0,32.0,-965.0,-309.0
2.0,-249.0,-69.0,-24.0,77.0,3.0,34.0,-967.0,-314.0
4.0,-250.0,-67.0,-25.0,77.0,4.0,36.0,-963.0,-313.0
1.0,-252.0,-71.0,-26.0,79.0,2.0,38.0,-967.0,-311.0
4.0,-253.0,-72.0,-28.0,80.0,2.0,37.0,-965.0,-308.0
4.0,-249.0,-70.0,-33.0,81.0,3.0,36.0,-971.0,-307.0
3.0,-250.0,-72.0,-35.0,82.0,2.0,35.0,-965.0,-309.0
3.0,-250.0,-70.0,-37.0,83.0,3.0,34.0,-968.0,-311.0
3.0,-251.0,-70.0,-39.0,82.0,3.0,37.0,-968.0,-309.0
3.0,-251.0,-68.0,-39.0,83.0,3.0,37.0,-968.0,-312.0
0.0,-250.0,-66.0,-39.0,83.0,3.0,33.0,-960.0,-319.0
3.0,-251.0,-71.0,-37.0,82.0,4.0,36.0,-969.0,-310.0
3.0,-252.0,-66.0,-35.0,80.0,4.0,34.0,-974.0,-309.0
3.0,-250.0,-70.0,-33.0,79.0,3.0,39.0,-965.0,-308.0
0.0,-249.0,-72.0,-31.0,77.0,3.0,33.0,-965.0,-307.0
2.0,-251.0,-68.0,-33.0,74.0,2.0,35.0,-964.0,-315.0
3.0,-254.0,-71.0,-34.0,71.0,2.0,34.0,-961.0,-317.0
3.0,-253.0,-67.0,-36.0,66.0,4.0,33.0,-965.0,-317.0
2.0,-252.0,-70.0,-37.0,66.0,3.0,38.0,-964.0,-313.0
2.0,-250.0,-67.0,-38.0,65.0,4.0,40.0,-967.0,-314.0
4.0,-252.0,-71.0,-39.0,66.0,5.0,40.0,-969.0,-315.0
5.0,-254.0,-71.0,-38.0,66.0,5.0,35.0,-968.0,-321.0
4.0,-251.0,-71.0,-36.0,70.0,5.0,40.0,-968.0,-316.0
3.0,-252.0,-69.0,-35.0,71.0,5.0,42.0,-964.0,-311.0
4.0,-249.0,-67.0,-35.0,73.0,5.0,44.0,-967.0,-313.0
-1.0,-250.0,-69.0,-36.0,75.0,5.0,35.0,-970.0,-317.0
2.0,-252.0,-70.0,-37.0,77.0,3.0,35.0,-970.0,-319.0
3.0,-253.0,-69.0,-38.0,80.0,2.0,37.0,-970.0,-313.0
2.0,-252.0,-73.0,-38.0,81.0,2.0,37.0,-971.0,-318.0
3.0,-251.0,-71.0,-38.0,81.0,1.0,35.0,-975.0,-314.0
-1.0,-251.0,-71.0,-38.0,79.0,1.0,33.0,-969.0,-312.0
5.0,-253.0,-73.0,-36.0,78.0,1.0,37.0,-970.0,-317.0
3.0,-251.0,-70.0,-34.0,77.0,0.0,31.0,-968.0,-319.0
1.0,-252.0,-69.0,-32.0,75.0,0.0,32.0,-971.0,-321.0
-1.0,-253.0,-73.0,-30.0,73.0,-1.0,35.0,-970.0,-317.0
-2.0,-249.0,-71.0,-29.0,69.0,-1.0,34.0,-971.0,-320.0
0.0,-248.0,-75.0,-30.0,67.0,-1.0,29.0,-965.0,-326.0
3.0,-250.0,-69.0,-29.0,65.0,0.0,35.0,-967.0,-324.0
2.0,-252.0,-67.0,-26.0,63.0,-1.0,31.0,-967.0,-317.0
2.0,-254.0,-73.0,-25.0,63.0,-1.0,35.0,-965.0,-322.0
1.0,-251.0,-73.0,-24.0,62.0,0.0,33.0,-964.0,-324.0
4.0,-252.0,-72.0,-23.0,62.0,-2.0,30.0,-965.0,-321.0
1.0,-252.0,-75.0,-23.0,62.0,1.0,30.0,-970.0,-321.0
4.0,-252.0,-74.0,-24.0,62.0,0.0,35.0,-966.0,-313.0
2.0,-250.0,-71.0,-26.0,63.0,-1.0,35.0,-966.0,-324.0
4.0,-252.0,-73.0,-28.0,65.0,-2.0,34.0,-968.0,-324.0
3.0,-252.0,-73.0,-29.0,67.0,-2.0,36.0,-967.0,-320.0
0.0,-253.0,-70.0,-26.0,67.0,-4.0,35.0,-965.0,-321.0
4.0,-251.0,-75.0,-23.0,68.0,-3.0,38.0,-961.0,-326.0
3.0,-252.0,-75.0,-21.0,64.0,-3.0,34.0,-970.0,-322.0
