acc1_x,acc1_y,acc1_z,gyro_x,gyro_y,gyro_z,acc2_x,acc2_y,acc2_z
-1.0,-243.0,56.0,-29.0,112.0,-34.0,-26.0,-928.0,281.0
-1.0,-242.0,54.0,-27.0,113.0,-37.0,-25.0,-929.0,282.0
1.0,-242.0,51.0,-26.0,114.0,-36.0,-26.0,-932.0,280.0
-2.0,-242.0,55.0,-26.0,115.0,-38.0,-24.0,-937.0,279.0
-3.0,-246.0,54.0,-27.0,116.0,-37.0,-26.0,-939.0,275.0
0.0,-243.0,55.0,-27.0,119.0,-39.0,-24.0,-937.0,282.0
-1.0,-245.0,53.0,-28.0,119.0,-34.0,-28.0,-946.0,280.0
-1.0,-248.0,48.0,-29.0,119.0,-35.0,-31.0,-949.0,274.0
-1.0,-246.0,55.0,-29.0,118.0,-29.0,-29.0,-952.0,281.0
-3.0,-248.0,53.0,-27.0,118.0,-28.0,-32.0,-946.0,277.0
-5.0,-248.0,50.0,-27.0,116.0,-22.0,-33.0,-948.0,275.0
-2.0,-248.0,50.0,-27.0,115.0,-22.0,-40.0,-950.0,276.0
-4.0,-249.0,53.0,-25.0,113.0,-16.0,-37.0,-945.0,275.0
-6.0,-248.0,56.0,-26.0,111.0,-16.0,-38.0,-940.0,275.0
-3.0,-247.0,56.0,-24.0,110.0,-14.0,-40.0,-945.0,278.0
-6.0,-246.0,56.0,-23.0,108.0,-18.0,-43.0,-942.0,270.0
-5.0,-246.0,50.0,-21.0,107.0,-15.0,-42.0,-939.0,277.0
-5.0,-246.0,51.0,-20.0,105.0,-20.0,-40.0,-945.0,275.0
-7.0,-246.0,53.0,-21.0,103.0,-19.0,-38.0,-938.0,273.0
-9.0,-241.0,50.0,-20.0,103.0,-24.0,-48.0,-937.0,276.0
-3.0,-245.0,52.0,-23.0,103.0,-23.0,-46.0,-933.0,274.0
-2.0,-244.0,51.0,-26.0,102.0,-28.0,-47.0,-934.0,277.0
-5.0,-246.0,51.0,-28.0,101.0,-26.0,-37.0,-932.0,280.0
-4.0,-243.0,55.0,-30.0,101.0,-28.0,-48.0,-928.0,279.0
-3.0,-243.0,54.0,-30.0,99.0,-25.0,-38.0,-929.0,280.0
-2.0,-245.0,54.0,-30.0,98.0,-27.0,-38.0,-927.0,280.0
-4.0,-244.0,49.0,-30.0,91.0,-21.0,-41.0,-927.0,278.0
-3.0,-246.0,52.0,-26.0,88.0,-20.0,-43.0,-928.0,281.0
-7.0,-243.0,55.0,-24.0,84.0,-14.0,-47.0,-934.0,281.0
-6.0,-247.0,53.0,-22.0,79.0,-14.0,-43.0,-939.0,279.0
-7.0,-245.0,54.0,-20.0,74.0,-8.0,-47.0,-941.0,278.0
-7.0,-246.0,54.0,-18.0,69.0,-6.0,-49.0,-936.0,275.0
-5.0,-245.0,53.0,-18.0,66.0,-1.0,-49.0,-943.0,274.0
-9.0,-248.0,52.0,-16.0,63.0,-1.0,-48.0,-943.0,274.0
-7.0,-246.0,55.0,-14.0,59.0,5.0,-51.0,-943.0,277.0
-5.0,-249.0,54.0,-13.0,56.0,4.0,-59.0,-944.0,276.0
-7.0,-246.0,53.0,-13.0,54.0,6.0,-49.0,-947.0,279.0
-8.0,-246.0,54.0,-14.0,51.0,4.0,-52.0,-949.0,275.0
-5.0,-247.0,56.0,-14.0,51.0,6.0,-51.0,-944.0,276.0
-5.0,-247.0,53.0,-14.0,49.0,2.0,-51.0,-946.0,280.0
-4.0,-247.0,54.0,-13.0,48.0,2.0,-45.0,-947.0,281.0
-7.0,-248.0,49.0,-13.0,45.0,-1.0,-49.0,-950.0,283.0
-6.0,-249.0,52.0,-14.0,41.0,-1.0,-40.0,-947.0,279.0
-5.0,-248.0,53.0,-13.0,40.0,-4.0,-41.0,-952.0,278.0
-4.0,-250.0,54.0,-15.0,39.0,-3.0,-37.0,-953.0,280.0
-5.0,-249.0,58.0,-15.0,39.0,-5.0,-39.0,-949.0,278.0
-3.0,-249.0,55.0,-15.0,39.0,-2.0,-37.0,-948.0,279.0
-5.0,-247.0,54.0,-13.0,38.0,-5.0,-39.0,-946.0,279.0
-5.0,-247.0,54.0,-13.0,36.0,-2.0,-37.0,-948.0,280.0
-3.0,-247.0,55.0,-12.0,38.0,-4.0,-37.0,-944.0,282.0
-5.0,-248.0,57.0,-13.0,37.0,-1.0,-38.0,-941.0,280.0
-2.0,-247.0,53.0,-11.0,37.0,-3.0,-37.0,-939.0,283.0
-5.0,-243.0,54.0,-12.0,36.0,1.0,-39.0,-932.0,282.0
-5.0,-244.0,55.0,-10.0,36.0,-1.0,-42.0,-932.0,279.0
-4.0,-245.0,52.0,-10.0,34.0,2.0,-38.0,-937.0,279.0
-6.0,-242.0,52.0,-11.0,33.0,0.0,-38.0,-934.0,281.0
-5.0,-248.0,56.0,-12.0,30.0,2.0,-41.0,-936.0,284.0
-6.0,-244.0,59.0,-13.0,28.0,-1.0,-35.0,-929.0,282.0
-4.0,-245.0,55.0,-13.0,28.0,-1.0,-37.0,-939.0,281.0
-2.0,-244.0,54.0,-16.0,27.0,-4.0,-35.0,-934.0,287.0
-2.0,-246.0,52.0,-15.0,25.0,-3.0,-35.0,-933.0,281.0
-5.0,-245.0,55.0,-15.0,26.0,-7.0,-28.0,-935.0,287.0
-3.0,-246.0,52.0,-13.0,26.0,-7.0,-34.0,-933.0,286.0
-3.0,-247.0,55.0,-12.0,27.0,-10.0,-26.0,-943.0,280.0
-2.0,-245.0,57.0,-12.0,27.0,-8.0,-29.0,-942.0,280.0
-3.0,-244.0,56.0,-10.0,28.0,-12.0,-27.0,-934.0,284.0
-3.0,-248.0,51.0,-7.0,30.0,-11.0,-32.0,-942.0,282.0
-2.0,-246.0,55.0,-5.0,30.0,-11.0,-29.0,-939.0,282.0
-3.0,-245.0,54.0,-4.0,30.0,-9.0,-28.0,-942.0,281.0
-2.0,-247.0,54.0,-2.0,31.0,-9.0,-28.0,-940.0,282.0
-2.0,-245.0,55.0,0.0,31.0,-6.0,-32.0,-943.0,278.0
-2.0,-246.0,58.0,2.0,30.0,-7.0,-33.0,-947.0,284.0
-4.0,-246.0,56.0,2.0,31.0,-4.0,-32.0,-941.0,281.0
-2.0,-248.0,53.0,3.0,31.0,-4.0,-37.0,-940.0,280.0
-5.0,-245.0,54.0,5.0,30.0,0.0,-37.0,-935.0,284.0
-6.0,-246.0,53.0,5.0,29.0,-2.0,-38.0,-944.0,281.0
-4.0,-244.0,58.0,4.0,29.0,0.0,-41.0,-936.0,281.0
-3.0,-244.0,55.0,5.0,29.0,0.0,-40.0,-943.0,280.0
-4.0,-245.0,53.0,4.0,32.0,2.0,-39.0,-938.0,286.0
-5.0,-244.0,55.0,5.0,31.0,-1.0,-37.0,-936.0,284.0
-7.0,-246.0,54.0,4.0,31.0,1.0,-38.0,-931.0,281.0
-6.0,-245.0,55.0,2.0,33.0,-1.0,-34.0,-938.0,281.0
-3.0,-245.0,57.0,0.0,34.0,2.0,-40.0,-936.0,280.0
-3.0,-247.0,55.0,-1.0,38.0,0.0,-41.0,-938.0,285.0
-2.0,-244.0,56.0,-3.0,38.0,1.0,-34.0,-934.0,279.0
-1.0,-245.0,54.0,-4.0,40.0,1.0,-33.0,-935.0,281.0
-2.0,-246.0,59.0,-7.0,40.0,4.0,-31.0,-930.0,283.0
-1.0,-246.0,57.0,-7.0,39.0,1.0,-26.0,-936.0,281.0
-4.0,-244.0,56.0,-7.0,40.0,3.0,-27.0,-935.0,284.0
-2.0,-244.0,56.0,-7.0,38.0,5.0,-24.0,-933.0,285.0
-1.0,-246.0,56.0,-7.0,36.0,5.0,-24.0,-934.0,288.0
-1.0,-249.0,54.0,-6.0,36.0,4.0,-27.0,-943.0,288.0
1.0,-247.0,55.0,-9.0,34.0,5.0,-26.0,-937.0,287.0
-5.0,-246.0,58.0,-7.0,34.0,3.0,-25.0,-939.0,283.0
-1.0,-246.0,53.0,-7.0,34.0,5.0,-26.0,-948.0,283.0
-1.0,-246.0,57.0,-6.0,35.0,3.0,-25.0,-943.0,286.0
-2.0,-245.0,52.0,-6.0,36.0,5.0,-28.0,-952.0,282.0
-3.0,-245.0,54.0,-4.0,40.0,2.0,-32.0,-945.0,283.0
-3.0,-246.0,56.0,-4.0,43.0,3.0,-34.0,-950.0,281.0
-2.0,-249.0,52.0,-4.0,46.0,1.0,-36.0,-951.0,280.0
0.0,-250.0,53.0,-3.0,49.0,3.0,-37.0,-946.0,278.0
-5.0,-246.0,55.0,-2.0,52.0,1.0,-40.0,-943.0,278.0
-6.0,-247.0,54.0,-2.0,54.0,2.0,-41.0,-946.0,279.0
-2.0,-248.0,57.0,-1.0,56.0,1.0,-39.0,-942.0,277.0
0.0,-250.0,55.0,-1.0,55.0,2.0,-37.0,-939.0,278.0
-4.0,-244.0,53.0,-1.0,53.0,2.0,-33.0,-940.0,275.0
-4.0,-247.0,55.0,-1.0,51.0,2.0,-35.0,-934.0,279.0
-3.0,-248.0,53.0,1.0,50.0,3.0,-28.0,-941.0,281.0
-4.0,-243.0,57.0,2.0,47.0,4.0,-37.0,-934.0,282.0
-5.0,-244.0,55.0,2.0,44.0,2.0,-29.0,-942.0,284.0
-1.0,-246.0,56.0,3.0,41.0,4.0,-32.0,-935.0,287.0
-1.0,-244.0,58.0,4.0,40.0,2.0,-30.0,-941.0,287.0
-3.0,-247.0,54.0,4.0,41.0,2.0,-29.0,-940.0,284.0
0.0,-245.0,50.0,2.0,41.0,0.0,-33.0,-942.0,288.0
3.0,-249.0,56.0,-2.0,44.0,0.0,-33.0,-948.0,287.0
-5.0,-247.0,39.0,-6.0,48.0,1.0,-33.0,-946.0,290.0
4.0,-247.0,50.0,-11.0,52.0,2.0,-27.0,-941.0,290.0
3.0,-250.0,55.0,-15.0,56.0,2.0,-29.0,-938.0,289.0
-3.0,-248.0,48.0,-15.0,60.0,3.0,-21.0,-947.0,284.0
9.0,-239.0,50.0,-15.0,63.0,3.0,-20.0,-946.0,288.0
-8.0,-247.0,59.0,-14.0,66.0,6.0,-20.0,-939.0,285.0
7.0,-246.0,57.0,-13.0,69.0,6.0,-23.0,-943.0,281.0
7.0,-244.0,70.0,-12.0,72.0,7.0,-18.0,-939.0,282.0
0.0,-245.0,52.0,-12.0,74.0,6.0,-21.0,-944.0,280.0
0.0,-243.0,52.0,-14.0,78.0,6.0,-26.0,-936.0,281.0
2.0,-244.0,51.0,-14.0,82.0,4.0,-27.0,-942.0,280.0
-1.0,-245.0,55.0,-12.0,83.0,3.0,-24.0,-934.0,278.0
10.0,-231.0,41.0,-11.0,87.0,0.0,-35.0,-931.0,278.0
-2.0,-247.0,54.0,-8.0,89.0,-2.0,-30.0,-933.0,278.0
-2.0,-244.0,54.0,-5.0,90.0,-3.0,-34.0,-931.0,282.0
-3.0,-243.0,54.0,-3.0,92.0,-4.0,-29.0,-934.0,282.0
-4.0,-243.0,58.0,0.0,93.0,-6.0,-35.0,-933.0,278.0
-1.0,-245.0,57.0,3.0,93.0,-5.0,-37.0,-926.0,284.0
-2.0,-246.0,61.0,4.0,93.0,-6.0,-27.0,-931.0,291.0
-1.0,-244.0,56.0,7.0,91.0,-7.0,-26.0,-939.0,286.0
-2.0,-246.0,59.0,5.0,89.0,-6.0,-28.0,-941.0,286.0
-1.0,-245.0,54.0,5.0,86.0,-6.0,-27.0,-943.0,287.0
-2.0,-246.0,57.0,3.0,84.0,-5.0,-29.0,-943.0,287.0
-1.0,-246.0,56.0,2.0,82.0,-4.0,-27.0,-944.0,288.0
-3.0,-246.0,55.0,3.0,80.0,-3.0,-28.0,-945.0,282.0
-3.0,-245.0,53.0,3.0,77.0,-2.0,-26.0,-943.0,289.0
0.0,-245.0,56.0,3.0,74.0,0.0,-25.0,-945.0,285.0
-2.0,-245.0,57.0,4.0,73.0,1.0,-29.0,-944.0,284.0
-2.0,-247.0,55.0,6.0,73.0,4.0,-26.0,-949.0,288.0
-2.0,-245.0,60.0,6.0,69.0,4.0,-27.0,-938.0,283.0
-2.0,-245.0,56.0,5.0,71.0,6.0,-33.0,-942.0,283.0
-1.0,-245.0,56.0,3.0,68.0,5.0,-29.0,-942.0,286.0
-3.0,-247.0,56.0,2.0,68.0,7.0,-31.0,-936.0,284.0
-1.0,-246.0,57.0,0.0,68.0,4.0,-31.0,-943.0,286.0
-3.0,-245.0,53.0,-1.0,69.0,5.0,-31.0,-942.0,288.0
-2.0,-246.0,54.0,-3.0,68.0,4.0,-28.0,-936.0,282.0
-2.0,-245.0,57.0,-5.0,69.0,4.0,-35.0,-936.0,287.0
-3.0,-243.0,57.0,-7.0,71.0,2.0,-39.0,-937.0,285.0
0.0,-245.0,56.0,-8.0,71.0,0.0,-35.0,-935.0,284.0
-3.0,-243.0,56.0,-9.0,72.0,-3.0,-37.0,-932.0,288.0
-6.0,-243.0,57.0,-9.0,75.0,-2.0,-39.0,-940.0,290.0
-4.0,-246.0,55.0,-9.0,74.0,-4.0,-37.0,-934.0,289.0
-3.0,-245.0,56.0,-11.0,77.0,-4.0,-36.0,-932.0,290.0
-4.0,-244.0,58.0,-11.0,78.0,-6.0,-32.0,-934.0,287.0
-5.0,-243.0,59.0,-12.0,77.0,-5.0,-30.0,-935.0,294.0
-3.0,-242.0,56.0,-9.0,75.0,-5.0,-35.0,-933.0,288.0
-2.0,-243.0,55.0,-9.0,75.0,-5.0,-30.0,-941.0,286.0
-4.0,-242.0,54.0,-9.0,72.0,-6.0,-31.0,-931.0,285.0
0.0,-244.0,53.0,-7.0,72.0,-3.0,-26.0,-929.0,285.0
0.0,-242.0,56.0,-7.0,69.0,-6.0,-32.0,-938.0,288.0
-6.0,-243.0,56.0,-8.0,67.0,-3.0,-36.0,-937.0,282.0
-2.0,-244.0,53.0,-8.0,66.0,-5.0,-29.0,-936.0,282.0
-4.0,-244.0,58.0,-9.0,63.0,-4.0,-32.0,-935.0,284.0
-4.0,-244.0,54.0,-11.0,64.0,-5.0,-36.0,-941.0,286.0
-2.0,-245.0,55.0,-12.0,63.0,-5.0,-36.0,-938.0,283.0
-1.0,-246.0,52.0,-12.0,62.0,-7.0,-36.0,-944.0,284.0
-2.0,-245.0,55.0,-11.0,61.0,-6.0,-38.0,-938.0,286.0
-4.0,-245.0,57.0,-11.0,63.0,-7.0,-37.0,-941.0,284.0
-2.0,-248.0,54.0,-9.0,63.0,-4.0,-38.0,-941.0,283.0
-2.0,-246.0,54.0,-8.0,64.0,-7.0,-37.0,-943.0,289.0
-4.0,-245.0,56.0,-7.0,62.0,-6.0,-37.0,-944.0,282.0
-2.0,-244.0,57.0,-6.0,61.0,-7.0,-35.0,-933.0,282.0
-4.0,-245.0,54.0,-5.0,61.0,-4.0,-35.0,-939.0,283.0
-5.0,-245.0,54.0,-1.0,61.0,-7.0,-32.0,-941.0,284.0
-2.0,-248.0,57.0,-1.0,58.0,-4.0,-36.0,-938.0,286.0
0.0,-245.0,54.0,0.0,59.0,-5.0,-36.0,-938.0,282.0
-4.0,-245.0,57.0,0.0,58.0,-3.0,-31.0,-939.0,288.0
-2.0,-242.0,54.0,-2.0,58.0,-4.0,-36.0,-934.0,284.0
-2.0,-245.0,56.0,-1.0,58.0,-3.0,-33.0,-937.0,285.0
-2.0,-242.0,56.0,-1.0,57.0,-5.0,-31.0,-933.0,287.0
-4.0,-244.0,58.0,0.0,56.0,-3.0,-32.0,-934.0,287.0
-2.0,-243.0,57.0,-1.0,56.0,-6.0,-32.0,-938.0,287.0
-2.0,-244.0,54.0,-2.0,57.0,-5.0,-31.0,-930.0,284.0
-1.0,-244.0,54.0,-2.0,57.0,-7.0,-28.0,-935.0,288.0
-2.0,-244.0,55.0,-3.0,57.0,-6.0,-31.0,-938.0,288.0
-1.0,-245.0,59.0,-3.0,58.0,-8.0,-29.0,-936.0,293.0
-4.0,-244.0,56.0,-4.0,58.0,-8.0,-30.0,-931.0,286.0
-1.0,-246.0,57.0,-4.0,59.0,-9.0,-33.0,-934.0,291.0
-4.0,-245.0,53.0,-4.0,59.0,-7.0,-28.0,-937.0,286.0
-2.0,-247.0,58.0,-4.0,60.0,-8.0,-29.0,-942.0,287.0
0.0,-247.0,54.0,-5.0,59.0,-7.0,-29.0,-943.0,290.0
-3.0,-245.0,57.0,-6.0,60.0,-8.0,-26.0,-938.0,290.0
-3.0,-246.0,59.0,-6.0,61.0,-6.0,-30.0,-940.0,285.0
-2.0,-245.0,58.0,-5.0,61.0,-7.0,-28.0,-940.0,285.0
-1.0,-249.0,56.0,-7.0,62.0,-4.0,-37.0,-937.0,290.0
-7.0,-244.0,54.0,-7.0,62.0,-6.0,-32.0,-946.0,293.0
-5.0,-248.0,57.0,-9.0,63.0,-2.0,-32.0,-942.0,287.0
-1.0,-247.0,56.0,-10.0,63.0,-3.0,-29.0,-942.0,285.0
-1.0,-243.0,55.0,-10.0,65.0,-1.0,-31.0,-943.0,289.0
-4.0,-241.0,57.0,-13.0,65.0,-3.0,-34.0,-940.0,289.0
-4.0,-244.0,57.0,-14.0,66.0,0.0,-39.0,-932.0,283.0
-4.0,-244.0,53.0,-15.0,67.0,-3.0,-34.0,-932.0,283.0
-4.0,-245.0,49.0,-17.0,66.0,-2.0,-40.0,-933.0,288.0
-5.0,-244.0,54.0,-16.0,67.0,-4.0,-36.0,-937.0,285.0
-3.0,-247.0,57.0,-15.0,66.0,-3.0,-40.0,-932.0,282.0
-5.0,-245.0,55.0,-14.0,66.0,-4.0,-37.0,-939.0,283.0
-4.0,-246.0,52.0,-15.0,63.0,-4.0,-32.0,-938.0,281.0
-4.0,-247.0,57.0,-15.0,62.0,-6.0,-35.0,-940.0,285.0
-2.0,-246.0,56.0,-16.0,60.0,-4.0,-30.0,-931.0,284.0
-3.0,-245.0,58.0,-17.0,56.0,-7.0,-32.0,-933.0,286.0
-5.0,-245.0,54.0,-20.0,54.0,-6.0,-30.0,-932.0,286.0
-2.0,-244.0,57.0,-23.0,52.0,-8.0,-30.0,-933.0,285.0
-1.0,-244.0,56.0,-25.0,52.0,-8.0,-25.0,-938.0,287.0
-4.0,-244.0,54.0,-24.0,52.0,-12.0,-30.0,-939.0,286.0
-2.0,-244.0,56.0,-26.0,53.0,-11.0,-31.0,-939.0,291.0
-4.0,-246.0,53.0,-26.0,55.0,-14.0,-37.0,-943.0,291.0
-2.0,-247.0,52.0,-25.0,58.0,-13.0,-31.0,-943.0,286.0
-5.0,-245.0,53.0,-26.0,60.0,-15.0,-32.0,-946.0,288.0
-3.0,-245.0,60.0,-27.0,64.0,-12.0,-35.0,-944.0,286.0
-2.0,-249.0,56.0,-27.0,67.0,-13.0,-31.0,-948.0,291.0
-2.0,-246.0,56.0,-29.0,69.0,-10.0,-36.0,-944.0,289.0
-1.0,-248.0,55.0,-26.0,70.0,-9.0,-30.0,-942.0,284.0
-2.0,-244.0,54.0,-27.0,73.0,-4.0,-26.0,-937.0,289.0
-3.0,-246.0,57.0,-28.0,74.0,-6.0,-28.0,-940.0,284.0
0.0,-244.0,55.0,-28.0,74.0,0.0,-24.0,-940.0,288.0
-1.0,-246.0,56.0,-27.0,74.0,-1.0,-24.0,-936.0,282.0
0.0,-245.0,56.0,-27.0,71.0,2.0,-28.0,-933.0,285.0
-3.0,-243.0,56.0,-25.0,70.0,-1.0,-27.0,-932.0,287.0
-3.0,-244.0,55.0,-24.0,69.0,-1.0,-30.0,-937.0,288.0
-2.0,-243.0,54.0,-26.0,68.0,-6.0,-23.0,-934.0,284.0
-2.0,-246.0,55.0,-24.0,68.0,-6.0,-28.0,-934.0,281.0
-4.0,-243.0,53.0,-24.0,68.0,-10.0,-27.0,-937.0,282.0
-3.0,-246.0,56.0,-23.0,70.0,-10.0,-32.0,-941.0,282.0
-2.0,-247.0,53.0,-22.0,69.0,-14.0,-35.0,-934.0,288.0
-2.0,-245.0,57.0,-19.0,71.0,-14.0,-33.0,-942.0,286.0
-6.0,-244.0,51.0,-17.0,73.0,-17.0,-34.0,-935.0,285.0
-5.0,-245.0,60.0,-17.0,74.0,-14.0,-33.0,-938.0,286.0
-3.0,-245.0,58.0,-15.0,74.0,-14.0,-34.0,-935.0,287.0
-3.0,-247.0,58.0,-15.0,77.0,-12.0,-38.0,-939.0,287.0
-1.0,-246.0,56.0,-14.0,77.0,-11.0,-38.0,-936.0,288.0
-6.0,-244.0,54.0,-13.0,78.0,-7.0,-40.0,-937.0,286.0
-4.0,-245.0,56.0,-13.0,75.0,-6.0,-39.0,-934.0,289.0
-4.0,-246.0,55.0,-12.0,74.0,-3.0,-38.0,-935.0,286.0
0.0,-247.0,54.0,-12.0,72.0,-2.0,-37.0,-936.0,289.0
-5.0,-245.0,58.0,-13.0,72.0,1.0,-36.0,-934.0,284.0
-2.0,-246.0,58.0,-15.0,70.0,1.0,-32.0,-937.0,282.0
0.0,-245.0,61.0,-16.0,68.0,2.0,-35.0,-937.0,290.0
-3.0,-246.0,58.0,-18.0,68.0,-1.0,-30.0,-938.0,287.0
-1.0,-244.0,55.0,-19.0,67.0,0.0,-35.0,-941.0,287.0
-4.0,-245.0,59.0,-22.0,65.0,-4.0,-29.0,-944.0,288.0
-2.0,-247.0,54.0,-24.0,64.0,-3.0,-30.0,-941.0,289.0
-1.0,-246.0,54.0,-26.0,63.0,-7.0,-28.0,-936.0,285.0
-1.0,-246.0,53.0,-24.0,62.0,-6.0,-28.0,-939.0,293.0
-4.0,-244.0,55.0,-25.0,61.0,-9.0,-33.0,-937.0,284.0
-3.0,-245.0,56.0,-24.0,59.0,-9.0,-34.0,-936.0,285.0
-5.0,-246.0,53.0,-24.0,59.0,-11.0,-35.0,-942.0,282.0
0.0,-244.0,57.0,-22.0,59.0,-11.0,-32.0,-943.0,286.0
-5.0,-244.0,57.0,-20.0,58.0,-13.0,-29.0,-945.0,284.0
-2.0,-246.0,60.0,-20.0,57.0,-11.0,-35.0,-943.0,286.0
-2.0,-248.0,58.0,-17.0,56.0,-13.0,-35.0,-943.0,285.0
-3.0,-247.0,56.0,-16.0,56.0,-11.0,-38.0,-936.0,282.0
-1.0,-247.0,54.0,-17.0,55.0,-15.0,-34.0,-936.0,282.0
-1.0,-245.0,58.0,-16.0,53.0,-13.0,-40.0,-937.0,288.0
-5.0,-247.0,54.0,-17.0,51.0,-16.0,-38.0,-934.0,284.0
1.0,-244.0,56.0,-16.0,51.0,-18.0,-36.0,-934.0,281.0
-4.0,-244.0,58.0,-16.0,49.0,-21.0,-37.0,-939.0,284.0
-5.0,-245.0,56.0,-16.0,46.0,-23.0,-35.0,-938.0,284.0
-4.0,-248.0,57.0,-17.0,45.0,-25.0,-35.0,-941.0,285.0
-6.0,-246.0,54.0,-18.0,45.0,-27.0,-37.0,-938.0,282.0
-3.0,-246.0,55.0,-19.0,43.0,-31.0,-37.0,-943.0,284.0
-5.0,-245.0,55.0,-18.0,44.0,-32.0,-37.0,-941.0,285.0
-5.0,-246.0,52.0,-19.0,47.0,-35.0,-39.0,-942.0,286.0
-3.0,-245.0,52.0,-20.0,50.0,-33.0,-37.0,-949.0,286.0
-6.0,-245.0,54.0,-19.0,54.0,-33.0,-36.0,-945.0,285.0
-3.0,-243.0,55.0,-18.0,54.0,-33.0,-28.0,-946.0,287.0
-1.0,-246.0,54.0,-17.0,56.0,-30.0,-31.0,-941.0,285.0
-3.0,-246.0,57.0,-15.0,56.0,-28.0,-32.0,-949.0,285.0
-3.0,-246.0,56.0,-14.0,51.0,-24.0,-29.0,-945.0,284.0
-5.0,-249.0,57.0,-12.0,47.0,-17.0,-29.0,-945.0,282.0
-2.0,-247.0,51.0,-9.0,42.0,-13.0,-27.0,-941.0,279.0
0.0,-246.0,55.0,-7.0,36.0,-6.0,-25.0,-944.0,283.0
-1.0,-249.0,58.0,-4.0,29.0,-2.0,-28.0,-948.0,278.0
-3.0,-244.0,58.0,-2.0,22.0,6.0,-32.0,-936.0,276.0
-4.0,-246.0,51.0,-4.0,15.0,8.0,-28.0,-940.0,277.0
-1.0,-244.0,53.0,-2.0,11.0,10.0,-31.0,-932.0,266.0
-2.0,-246.0,52.0,-1.0,6.0,11.0,-30.0,-931.0,275.0
-3.0,-241.0,52.0,-4.0,3.0,10.0,-35.0,-943.0,277.0
-1.0,-247.0,52.0,-6.0,1.0,7.0,-32.0,-932.0,274.0
-3.0,-242.0,53.0,-9.0,1.0,5.0,-29.0,-938.0,279.0
-2.0,-246.0,54.0,-11.0,2.0,0.0,-30.0,-934.0,282.0
-1.0,-244.0,58.0,-14.0,3.0,-4.0,-25.0,-937.0,284.0
-1.0,-246.0,53.0,-14.0,4.0,-10.0,-24.0,-935.0,283.0
-2.0,-245.0,54.0,-16.0,8.0,-15.0,-22.0,-936.0,290.0
1.0,-245.0,56.0,-18.0,10.0,-18.0,-21.0,-943.0,289.0
1.0,-247.0,58.0,-20.0,13.0,-21.0,-14.0,-939.0,288.0
3.0,-244.0,55.0,-21.0,15.0,-21.0,-16.0,-941.0,288.0
2.0,-243.0,58.0,-21.0,17.0,-22.0,-13.0,-946.0,294.0
0.0,-244.0,57.0,-23.0,20.0,-23.0,-15.0,-938.0,296.0
4.0,-246.0,57.0,-23.0,22.0,-23.0,-13.0,-939.0,294.0
2.0,-245.0,59.0,-22.0,27.0,-22.0,-11.0,-939.0,292.0
3.0,-248.0,58.0,-22.0,31.0,-20.0,-14.0,-946.0,292.0
2.0,-242.0,54.0,-20.0,37.0,-19.0,-14.0,-943.0,295.0
1.0,-246.0,58.0,-18.0,40.0,-17.0,-19.0,-939.0,285.0
0.0,-246.0,57.0,-16.0,46.0,-14.0,-20.0,-941.0,286.0
1.0,-247.0,51.0,-15.0,47.0,-14.0,-18.0,-938.0,287.0
-1.0,-246.0,58.0,-13.0,50.0,-11.0,-21.0,-939.0,283.0
1.0,-245.0,57.0,-8.0,50.0,-11.0,-25.0,-934.0,286.0
1.0,-245.0,55.0,-5.0,52.0,-9.0,-22.0,-937.0,289.0
-2.0,-245.0,53.0,-4.0,52.0,-7.0,-25.0,-936.0,286.0
-3.0,-247.0,54.0,-1.0,53.0,-6.0,-29.0,-945.0,286.0
-1.0,-247.0,56.0,2.0,51.0,-7.0,-31.0,-942.0,281.0
-3.0,-245.0,55.0,3.0,49.0,-5.0,-34.0,-933.0,284.0
-3.0,-246.0,54.0,4.0,48.0,-6.0,-30.0,-938.0,292.0
-3.0,-244.0,55.0,2.0,46.0,-5.0,-33.0,-935.0,285.0
-1.0,-247.0,50.0,1.0,44.0,-8.0,-28.0,-934.0,283.0
-1.0,-247.0,54.0,-1.0,42.0,-7.0,-30.0,-931.0,284.0
-3.0,-243.0,53.0,-3.0,40.0,-9.0,-25.0,-935.0,281.0
1.0,-247.0,53.0,-4.0,39.0,-9.0,-29.0,-934.0,289.0
-2.0,-247.0,55.0,-6.0,39.0,-9.0,-25.0,-934.0,289.0
0.0,-245.0,60.0,-6.0,39.0,-9.0,-23.0,-937.0,289.0
2.0,-244.0,58.0,-8.0,37.0,-11.0,-25.0,-935.0,290.0
1.0,-244.0,56.0,-8.0,38.0,-9.0,-24.0,-933.0,285.0
0.0,-245.0,58.0,-6.0,39.0,-9.0,-21.0,-937.0,287.0
0.0,-247.0,57.0,-5.0,39.0,-5.0,-23.0,-934.0,286.0
-1.0,-248.0,58.0,-4.0,40.0,-5.0,-24.0,-941.0,287.0
-1.0,-247.0,57.0,-2.0,43.0,-2.0,-29.0,-939.0,289.0
0.0,-244.0,56.0,0.0,44.0,-2.0,-31.0,-935.0,285.0
0.0,-248.0,54.0,0.0,45.0,1.0,-28.0,-943.0,287.0
-4.0,-245.0,59.0,1.0,47.0,3.0,-27.0,-942.0,287.0
-3.0,-246.0,56.0,0.0,48.0,4.0,-31.0,-946.0,288.0
-2.0,-245.0,56.0,-2.0,50.0,4.0,-27.0,-951.0,289.0
-1.0,-245.0,58.0,-4.0,49.0,7.0,-28.0,-941.0,288.0
-3.0,-247.0,57.0,-6.0,50.0,5.0,-28.0,-943.0,283.0
0.0,-246.0,52.0,-7.0,50.0,6.0,-26.0,-944.0,286.0
-1.0,-246.0,54.0,-9.0,51.0,4.0,-27.0,-945.0,287.0
-1.0,-247.0,55.0,-9.0,51.0,3.0,-28.0,-942.0,279.0
-3.0,-247.0,57.0,-12.0,51.0,0.0,-25.0,-938.0,288.0
-1.0,-247.0,53.0,-14.0,52.0,0.0,-24.0,-935.0,280.0
-1.0,-242.0,55.0,-13.0,53.0,-3.0,-23.0,-932.0,282.0
-1.0,-244.0,55.0,-11.0,54.0,-4.0,-21.0,-934.0,284.0
-2.0,-247.0,57.0,-9.0,55.0,-8.0,-22.0,-928.0,288.0
4.0,-246.0,55.0,-7.0,57.0,-6.0,-23.0,-933.0,284.0
2.0,-243.0,58.0,-4.0,57.0,-7.0,-17.0,-933.0,291.0
1.0,-243.0,54.0,-3.0,57.0,-6.0,-19.0,-936.0,290.0
1.0,-243.0,57.0,-2.0,58.0,-6.0,-19.0,-934.0,282.0
2.0,-245.0,56.0,-2.0,58.0,-3.0,-19.0,-934.0,285.0
0.0,-245.0,54.0,-4.0,59.0,-4.0,-24.0,-936.0,287.0
-1.0,-243.0,56.0,-5.0,58.0,-1.0,-20.0,-937.0,288.0
-1.0,-245.0,57.0,-8.0,57.0,-2.0,-21.0,-930.0,285.0
-1.0,-245.0,56.0,-10.0,57.0,1.0,-26.0,-932.0,282.0
-1.0,-245.0,57.0,-13.0,56.0,1.0,-22.0,-936.0,282.0
-2.0,-246.0,55.0,-15.0,55.0,4.0,-25.0,-937.0,285.0
0.0,-244.0,54.0,-15.0,54.0,3.0,-26.0,-936.0,286.0
-2.0,-246.0,55.0,-16.0,53.0,8.0,-23.0,-937.0,283.0
-1.0,-248.0,53.0,-16.0,54.0,7.0,-26.0,-939.0,286.0
-2.0,-245.0,55.0,-15.0,51.0,10.0,-27.0,-936.0,282.0
1.0,-249.0,55.0,-16.0,51.0,8.0,-27.0,-942.0,281.0
0.0,-248.0,55.0,-15.0,49.0,9.0,-29.0,-944.0,280.0
1.0,-249.0,55.0,-13.0,50.0,7.0,-28.0,-939.0,286.0
2.0,-245.0,54.0,-10.0,51.0,11.0,-25.0,-937.0,285.0
-2.0,-245.0,54.0,-10.0,51.0,9.0,-23.0,-944.0,282.0
-2.0,-243.0,54.0,-8.0,50.0,11.0,-22.0,-935.0,284.0
2.0,-244.0,56.0,-7.0,50.0,7.0,-23.0,-934.0,281.0
0.0,-244.0,57.0,-5.0,50.0,10.0,-23.0,-941.0,285.0
-1.0,-245.0,55.0,-1.0,49.0,6.0,-25.0,-938.0,282.0
-1.0,-245.0,54.0,1.0,49.0,10.0,-25.0,-941.0,281.0
-1.0,-247.0,56.0,2.0,50.0,7.0,-24.0,-933.0,282.0
-4.0,-243.0,56.0,2.0,50.0,9.0,-23.0,-940.0,287.0
-2.0,-243.0,55.0,2.0,50.0,6.0,-22.0,-934.0,285.0
2.0,-247.0,56.0,0.0,53.0,10.0,-24.0,-940.0,283.0
2.0,-246.0,54.0,-2.0,55.0,7.0,-21.0,-942.0,282.0
1.0,-245.0,56.0,-2.0,56.0,10.0,-19.0,-941.0,282.0
2.0,-244.0,55.0,-3.0,58.0,7.0,-16.0,-931.0,284.0
2.0,-245.0,55.0,-6.0,59.0,10.0,-20.0,-935.0,285.0
1.0,-244.0,53.0,-6.0,62.0,5.0,-17.0,-935.0,285.0
4.0,-246.0,58.0,-5.0,62.0,7.0,-17.0,-943.0,285.0
3.0,-246.0,58.0,-5.0,64.0,3.0,-17.0,-943.0,291.0
2.0,-245.0,56.0,-4.0,63.0,3.0,-19.0,-945.0,285.0
2.0,-245.0,57.0,-3.0,65.0,-1.0,-16.0,-942.0,287.0
2.0,-247.0,58.0,-3.0,65.0,1.0,-17.0,-944.0,286.0
4.0,-248.0,58.0,-3.0,64.0,-3.0,-16.0,-943.0,289.0
3.0,-249.0,59.0,-2.0,65.0,-2.0,-18.0,-947.0,290.0
0.0,-247.0,56.0,-1.0,65.0,-5.0,-16.0,-945.0,287.0
2.0,-246.0,56.0,-1.0,65.0,-4.0,-16.0,-941.0,294.0
0.0,-248.0,56.0,-2.0,67.0,-7.0,-14.0,-940.0,287.0
-2.0,-243.0,56.0,-4.0,71.0,-6.0,-15.0,-943.0,287.0
-1.0,-246.0,57.0,-8.0,74.0,-9.0,-17.0,-937.0,286.0
-3.0,-244.0,54.0,-10.0,78.0,-8.0,-20.0,-943.0,287.0
3.0,-242.0,57.0,-11.0,79.0,-11.0,-22.0,-935.0,282.0
0.0,-246.0,50.0,-11.0,82.0,-8.0,-21.0,-929.0,285.0
2.0,-245.0,55.0,-9.0,82.0,-11.0,-25.0,-929.0,289.0
-2.0,-241.0,57.0,-7.0,82.0,-9.0,-26.0,-925.0,284.0
-1.0,-244.0,54.0,-6.0,82.0,-12.0,-25.0,-935.0,290.0
-4.0,-244.0,57.0,-4.0,79.0,-10.0,-26.0,-931.0,289.0
-1.0,-244.0,61.0,0.0,75.0,-11.0,-27.0,-928.0,289.0
-1.0,-243.0,60.0,1.0,71.0,-8.0,-27.0,-932.0,292.0
-1.0,-245.0,56.0,1.0,68.0,-9.0,-28.0,-935.0,291.0
-1.0,-244.0,53.0,0.0,64.0,-6.0,-39.0,-929.0,294.0
-2.0,-242.0,55.0,0.0,61.0,-6.0,-32.0,-932.0,287.0
-1.0,-247.0,56.0,-2.0,57.0,-4.0,-32.0,-930.0,293.0
-6.0,-244.0,58.0,-5.0,56.0,-5.0,-37.0,-937.0,290.0
-3.0,-243.0,56.0,-9.0,54.0,-1.0,-39.0,-934.0,289.0
-2.0,-244.0,58.0,-12.0,53.0,-1.0,-37.0,-933.0,289.0
-8.0,-242.0,54.0,-15.0,51.0,2.0,-37.0,-934.0,293.0
-2.0,-244.0,59.0,-18.0,51.0,1.0,-33.0,-929.0,291.0
-1.0,-244.0,58.0,-20.0,50.0,4.0,-33.0,-935.0,296.0
-3.0,-246.0,58.0,-20.0,50.0,4.0,-32.0,-937.0,294.0
0.0,-244.0,54.0,-22.0,49.0,8.0,-32.0,-928.0,293.0
0.0,-243.0,56.0,-22.0,49.0,8.0,-32.0,-942.0,295.0
-3.0,-244.0,56.0,-22.0,49.0,11.0,-26.0,-938.0,294.0
-4.0,-245.0,55.0,-21.0,49.0,11.0,-24.0,-939.0,295.0
-2.0,-246.0,61.0,-20.0,47.0,15.0,-23.0,-937.0,297.0
-3.0,-243.0,57.0,-16.0,47.0,13.0,-27.0,-934.0,293.0
0.0,-246.0,59.0,-13.0,45.0,16.0,-26.0,-932.0,297.0
-2.0,-246.0,59.0,-11.0,44.0,16.0,-26.0,-946.0,290.0
-1.0,-245.0,59.0,-9.0,42.0,20.0,-31.0,-943.0,294.0
-3.0,-245.0,57.0,-4.0,45.0,20.0,-29.0,-943.0,293.0
-2.0,-246.0,60.0,-1.0,45.0,21.0,-34.0,-936.0,291.0
-4.0,-243.0,56.0,2.0,44.0,21.0,-36.0,-941.0,291.0
-4.0,-247.0,51.0,2.0,42.0,24.0,-30.0,-935.0,286.0
-2.0,-248.0,57.0,2.0,42.0,22.0,-33.0,-937.0,281.0
-4.0,-245.0,56.0,0.0,41.0,21.0,-37.0,-938.0,289.0
0.0,-244.0,57.0,-4.0,40.0,18.0,-34.0,-936.0,289.0
-1.0,-245.0,58.0,-6.0,40.0,18.0,-30.0,-934.0,285.0
-4.0,-243.0,55.0,-12.0,39.0,15.0,-31.0,-931.0,282.0
-4.0,-246.0,56.0,-16.0,39.0,14.0,-32.0,-931.0,291.0
-1.0,-246.0,55.0,-19.0,39.0,13.0,-26.0,-938.0,287.0
-1.0,-245.0,56.0,-22.0,38.0,12.0,-30.0,-941.0,287.0
-1.0,-245.0,56.0,-22.0,39.0,10.0,-22.0,-934.0,287.0
0.0,-244.0,56.0,-25.0,37.0,11.0,-25.0,-940.0,289.0
-1.0,-247.0,57.0,-24.0,37.0,11.0,-26.0,-939.0,289.0
-1.0,-246.0,58.0,-23.0,37.0,13.0,-28.0,-937.0,285.0
-2.0,-244.0,58.0,-22.0,36.0,14.0,-26.0,-935.0,286.0
-1.0,-245.0,56.0,-22.0,35.0,17.0,-24.0,-944.0,285.0
-2.0,-247.0,55.0,-21.0,33.0,17.0,-22.0,-943.0,285.0
-2.0,-247.0,54.0,-21.0,31.0,21.0,-25.0,-946.0,288.0
0.0,-250.0,58.0,-19.0,30.0,23.0,-20.0,-941.0,290.0
-1.0,-246.0,58.0,-19.0,28.0,24.0,-24.0,-947.0,284.0
-2.0,-246.0,53.0,-17.0,28.0,25.0,-23.0,-949.0,286.0
-1.0,-248.0,54.0,-17.0,30.0,27.0,-24.0,-946.0,288.0
0.0,-247.0,56.0,-16.0,32.0,27.0,-35.0,-940.0,284.0
-4.0,-250.0,57.0,-15.0,35.0,26.0,-32.0,-946.0,284.0
-2.0,-247.0,55.0,-15.0,38.0,25.0,-31.0,-949.0,283.0
-4.0,-246.0,53.0,-14.0,42.0,22.0,-31.0,-944.0,284.0
-2.0,-247.0,53.0,-15.0,47.0,19.0,-37.0,-944.0,284.0
-2.0,-247.0,52.0,-14.0,51.0,14.0,-37.0,-944.0,281.0
-2.0,-245.0,56.0,-11.0,55.0,12.0,-32.0,-936.0,283.0
-1.0,-247.0,57.0,-8.0,57.0,9.0,-34.0,-935.0,286.0
-2.0,-244.0,56.0,-3.0,60.0,6.0,-31.0,-935.0,290.0
-6.0,-243.0,58.0,-1.0,62.0,5.0,-33.0,-930.0,287.0
-4.0,-244.0,57.0,2.0,64.0,4.0,-32.0,-930.0,286.0
-1.0,-245.0,53.0,3.0,63.0,5.0,-32.0,-931.0,288.0
-2.0,-242.0,59.0,4.0,62.0,5.0,-32.0,-927.0,286.0
-1.0,-243.0,57.0,2.0,62.0,7.0,-28.0,-927.0,290.0
-1.0,-244.0,59.0,2.0,56.0,7.0,-29.0,-929.0,289.0
-2.0,-243.0,60.0,1.0,53.0,8.0,-28.0,-931.0,291.0
-1.0,-243.0,61.0,-3.0,48.0,11.0,-27.0,-926.0,293.0
-2.0,-243.0,56.0,-5.0,44.0,12.0,-25.0,-933.0,291.0
0.0,-244.0,52.0,-10.0,43.0,13.0,-25.0,-935.0,291.0
-1.0,-244.0,57.0,-14.0,39.0,13.0,-26.0,-935.0,291.0
0.0,-247.0,58.0,-17.0,37.0,15.0,-25.0,-936.0,296.0
-2.0,-246.0,57.0,-21.0,36.0,13.0,-30.0,-938.0,288.0
-2.0,-244.0,53.0,-26.0,35.0,13.0,-31.0,-940.0,284.0
-3.0,-244.0,54.0,-27.0,37.0,11.0,-30.0,-934.0,287.0
-1.0,-244.0,53.0,-29.0,38.0,12.0,-30.0,-941.0,291.0
-2.0,-246.0,56.0,-30.0,39.0,11.0,-33.0,-942.0,286.0
-1.0,-249.0,56.0,-31.0,42.0,12.0,-32.0,-927.0,286.0
-1.0,-245.0,56.0,-30.0,44.0,9.0,-37.0,-934.0,284.0
-6.0,-237.0,62.0,-31.0,44.0,9.0,-30.0,-936.0,280.0
-2.0,-248.0,61.0,-30.0,46.0,9.0,-27.0,-931.0,285.0
-1.0,-245.0,54.0,-31.0,47.0,8.0,-31.0,-933.0,285.0
-3.0,-246.0,56.0,-28.0,46.0,8.0,-32.0,-937.0,285.0
-2.0,-246.0,53.0,-24.0,46.0,8.0,-37.0,-937.0,283.0
-3.0,-243.0,57.0,-21.0,45.0,7.0,-32.0,-938.0,290.0
-5.0,-243.0,56.0,-17.0,42.0,8.0,-28.0,-940.0,286.0
-3.0,-245.0,57.0,-12.0,42.0,7.0,-29.0,-941.0,283.0
-4.0,-243.0,56.0,-11.0,40.0,9.0,-32.0,-944.0,289.0
1.0,-244.0,56.0,-9.0,40.0,7.0,-29.0,-939.0,290.0
1.0,-246.0,56.0,-9.0,39.0,9.0,-25.0,-940.0,285.0
-3.0,-245.0,57.0,-9.0,41.0,9.0,-31.0,-937.0,290.0
-1.0,-246.0,56.0,-12.0,41.0,11.0,-26.0,-943.0,283.0
-3.0,-248.0,57.0,-13.0,41.0,9.0,-29.0,-940.0,286.0
-1.0,-247.0,56.0,-15.0,42.0,10.0,-30.0,-946.0,287.0
-1.0,-246.0,56.0,-20.0,43.0,7.0,-26.0,-936.0,284.0
-1.0,-241.0,58.0,-22.0,44.0,8.0,-27.0,-939.0,283.0
-2.0,-244.0,56.0,-24.0,44.0,6.0,-30.0,-941.0,282.0
-4.0,-245.0,52.0,-26.0,44.0,7.0,-30.0,-933.0,286.0
-2.0,-246.0,52.0,-27.0,44.0,5.0,-23.0,-938.0,289.0
1.0,-246.0,56.0,-29.0,43.0,5.0,-32.0,-943.0,285.0
1.0,-245.0,54.0,-29.0,43.0,5.0,-24.0,-936.0,284.0
0.0,-246.0,57.0,-28.0,45.0,6.0,-25.0,-937.0,283.0
-2.0,-245.0,54.0,-28.0,45.0,4.0,-22.0,-942.0,286.0
0.0,-245.0,53.0,-26.0,46.0,5.0,-22.0,-927.0,283.0
-1.0,-244.0,54.0,-24.0,46.0,2.0,-24.0,-934.0,285.0
1.0,-247.0,52.0,-24.0,48.0,4.0,-21.0,-936.0,279.0
-1.0,-244.0,51.0,-23.0,51.0,1.0,-24.0,-933.0,285.0
0.0,-242.0,53.0,-20.0,52.0,2.0,-24.0,-936.0,285.0
-2.0,-242.0,57.0,-18.0,53.0,-2.0,-24.0,-934.0,281.0
0.0,-245.0,54.0,-16.0,54.0,-2.0,-23.0,-939.0,281.0
0.0,-246.0,56.0,-15.0,56.0,-6.0,-25.0,-931.0,284.0
1.0,-247.0,56.0,-13.0,56.0,-6.0,-23.0,-936.0,284.0
-1.0,-246.0,55.0,-12.0,55.0,-8.0,-21.0,-938.0,282.0
1.0,-246.0,58.0,-10.0,56.0,-7.0,-21.0,-937.0,284.0
-1.0,-246.0,55.0,-8.0,56.0,-10.0,-27.0,-937.0,284.0
-3.0,-246.0,58.0,-7.0,56.0,-8.0,-24.0,-940.0,289.0
0.0,-244.0,57.0,-4.0,56.0,-8.0,-27.0,-936.0,292.0
0.0,-248.0,55.0,-3.0,56.0,-5.0,-30.0,-941.0,284.0
-1.0,-247.0,59.0,-1.0,56.0,-7.0,-35.0,-946.0,290.0
0.0,-246.0,61.0,-1.0,56.0,-5.0,-26.0,-945.0,288.0
-3.0,-247.0,61.0,1.0,57.0,-6.0,-30.0,-945.0,297.0
-1.0,-247.0,54.0,1.0,58.0,-4.0,-27.0,-947.0,296.0
-4.0,-246.0,60.0,1.0,59.0,-7.0,-26.0,-938.0,294.0
-4.0,-237.0,48.0,0.0,61.0,-5.0,-29.0,-941.0,290.0
1.0,-258.0,57.0,0.0,62.0,-7.0,-27.0,-939.0,291.0
-7.0,-244.0,62.0,1.0,63.0,-4.0,-28.0,-943.0,295.0
1.0,-244.0,60.0,0.0,67.0,-6.0,-27.0,-936.0,295.0
-2.0,-237.0,55.0,0.0,66.0,-5.0,-23.0,-937.0,297.0
0.0,-254.0,57.0,1.0,68.0,-8.0,-25.0,-934.0,298.0
10.0,-246.0,46.0,2.0,69.0,-5.0,-23.0,-932.0,292.0
2.0,-244.0,63.0,3.0,69.0,-8.0,-25.0,-935.0,294.0
9.0,-233.0,58.0,4.0,68.0,-6.0,-25.0,-935.0,292.0
8.0,-244.0,56.0,5.0,68.0,-8.0,-28.0,-933.0,297.0
-4.0,-241.0,57.0,5.0,67.0,-7.0,-27.0,-936.0,296.0
-3.0,-244.0,61.0,5.0,69.0,-9.0,-32.0,-930.0,292.0
-5.0,-244.0,57.0,5.0,69.0,-5.0,-27.0,-940.0,294.0
-3.0,-245.0,57.0,5.0,69.0,-8.0,-28.0,-934.0,290.0
-5.0,-240.0,59.0,3.0,68.0,-5.0,-30.0,-933.0,288.0
-2.0,-244.0,55.0,2.0,69.0,-8.0,-31.0,-935.0,289.0
-4.0,-245.0,54.0,0.0,67.0,-5.0,-29.0,-937.0,286.0
-2.0,-244.0,58.0,-3.0,67.0,-7.0,-32.0,-935.0,288.0
-3.0,-245.0,55.0,-6.0,67.0,-5.0,-31.0,-933.0,288.0
-1.0,-243.0,58.0,-8.0,65.0,-9.0,-28.0,-935.0,293.0
-3.0,-244.0,57.0,-7.0,64.0,-8.0,-30.0,-940.0,286.0
1.0,-247.0,55.0,-7.0,63.0,-11.0,-31.0,-936.0,293.0
-2.0,-245.0,58.0,-6.0,63.0,-9.0,-28.0,-942.0,295.0
-1.0,-247.0,54.0,-5.0,61.0,-13.0,-27.0,-941.0,289.0
-3.0,-247.0,56.0,-5.0,60.0,-11.0,-32.0,-945.0,293.0
-2.0,-246.0,59.0,-7.0,61.0,-14.0,-34.0,-950.0,298.0
-2.0,-250.0,55.0,-7.0,60.0,-10.0,-30.0,-950.0,291.0
-2.0,-249.0,55.0,-8.0,61.0,-11.0,-30.0,-951.0,290.0
-2.0,-247.0,60.0,-9.0,60.0,-9.0,-27.0,-945.0,288.0
-2.0,-247.0,58.0,-9.0,63.0,-10.0,-25.0,-949.0,296.0
-1.0,-246.0,55.0,-8.0,66.0,-5.0,-26.0,-943.0,295.0
-1.0,-247.0,60.0,-6.0,70.0,-6.0,-22.0,-941.0,295.0
-1.0,-248.0,57.0,-3.0,73.0,-3.0,-19.0,-946.0,283.0
2.0,-251.0,56.0,0.0,77.0,-4.0,-24.0,-943.0,286.0
-1.0,-245.0,55.0,3.0,79.0,-2.0,-19.0,-939.0,289.0
1.0,-246.0,56.0,7.0,82.0,-4.0,-18.0,-936.0,287.0
2.0,-245.0,57.0,9.0,85.0,-2.0,-16.0,-935.0,283.0
0.0,-243.0,53.0,14.0,88.0,-6.0,-24.0,-931.0,290.0
0.0,-246.0,57.0,18.0,89.0,-7.0,-26.0,-939.0,290.0
0.0,-246.0,58.0,21.0,92.0,-12.0,-23.0,-936.0,293.0
-3.0,-245.0,56.0,25.0,92.0,-12.0,-24.0,-928.0,291.0
-2.0,-245.0,58.0,28.0,92.0,-17.0,-21.0,-933.0,292.0
-2.0,-243.0,59.0,31.0,92.0,-17.0,-18.0,-935.0,289.0
-1.0,-244.0,55.0,31.0,91.0,-21.0,-24.0,-933.0,291.0
1.0,-244.0,57.0,29.0,91.0,-18.0,-26.0,-935.0,297.0
-2.0,-245.0,57.0,29.0,91.0,-20.0,-24.0,-931.0,295.0
0.0,-246.0,58.0,27.0,91.0,-16.0,-24.0,-928.0,292.0
-3.0,-242.0,58.0,25.0,91.0,-18.0,-24.0,-930.0,292.0
-2.0,-243.0,56.0,22.0,90.0,-17.0,-20.0,-936.0,295.0
0.0,-244.0,56.0,19.0,90.0,-18.0,-20.0,-933.0,295.0
1.0,-243.0,59.0,17.0,90.0,-16.0,-22.0,-931.0,289.0
0.0,-245.0,56.0,17.0,92.0,-16.0,-22.0,-935.0,299.0
1.0,-243.0,58.0,17.0,92.0,-15.0,-25.0,-928.0,295.0
0.0,-245.0,60.0,17.0,92.0,-17.0,-23.0,-933.0,299.0
2.0,-245.0,56.0,17.0,94.0,-15.0,-25.0,-928.0,297.0
-1.0,-243.0,58.0,16.0,93.0,-16.0,-24.0,-940.0,300.0
-1.0,-244.0,62.0,16.0,93.0,-15.0,-24.0,-932.0,299.0
1.0,-245.0,57.0,16.0,94.0,-15.0,-20.0,-943.0,300.0
1.0,-244.0,60.0,16.0,92.0,-14.0,-21.0,-934.0,299.0
-1.0,-244.0,60.0,16.0,93.0,-16.0,-20.0,-933.0,297.0
-2.0,-245.0,62.0,14.0,94.0,-13.0,-25.0,-931.0,303.0
1.0,-245.0,63.0,15.0,95.0,-12.0,-26.0,-929.0,300.0
-3.0,-246.0,61.0,10.0,97.0,-11.0,-29.0,-934.0,297.0
-3.0,-243.0,57.0,7.0,97.0,-12.0,-29.0,-932.0,300.0
-2.0,-245.0,59.0,7.0,98.0,-10.0,-27.0,-934.0,300.0
-4.0,-246.0,58.0,4.0,101.0,-11.0,-36.0,-933.0,298.0
-3.0,-244.0,58.0,3.0,103.0,-12.0,-39.0,-933.0,299.0
-5.0,-243.0,58.0,2.0,105.0,-13.0,-38.0,-933.0,296.0
-4.0,-242.0,57.0,3.0,107.0,-13.0,-37.0,-926.0,297.0
-4.0,-242.0,60.0,2.0,107.0,-15.0,-30.0,-930.0,292.0
-4.0,-245.0,57.0,3.0,107.0,-13.0,-27.0,-936.0,295.0
-2.0,-242.0,57.0,5.0,106.0,-13.0,-25.0,-928.0,294.0
-2.0,-243.0,57.0,6.0,105.0,-11.0,-25.0,-934.0,297.0
0.0,-243.0,56.0,7.0,102.0,-11.0,-26.0,-934.0,295.0
-2.0,-244.0,62.0,11.0,100.0,-7.0,-26.0,-935.0,300.0
2.0,-244.0,61.0,12.0,96.0,-6.0,-21.0,-932.0,297.0
1.0,-246.0,58.0,11.0,94.0,-6.0,-25.0,-933.0,298.0
-1.0,-245.0,56.0,9.0,92.0,-6.0,-24.0,-937.0,298.0
-2.0,-245.0,57.0,6.0,89.0,-5.0,-24.0,-940.0,299.0
-2.0,-246.0,58.0,2.0,90.0,-6.0,-29.0,-936.0,298.0
-4.0,-244.0,60.0,1.0,88.0,-6.0,-27.0,-936.0,300.0
-2.0,-245.0,57.0,-3.0,87.0,-7.0,-30.0,-936.0,295.0
-5.0,-244.0,60.0,-5.0,90.0,-7.0,-33.0,-932.0,298.0
-2.0,-245.0,54.0,-6.0,88.0,-9.0,-35.0,-942.0,297.0
-3.0,-244.0,57.0,-8.0,90.0,-8.0,-37.0,-933.0,298.0
-4.0,-245.0,57.0,-7.0,90.0,-10.0,-37.0,-935.0,293.0
-2.0,-247.0,59.0,-6.0,88.0,-10.0,-33.0,-934.0,300.0
-3.0,-243.0,57.0,-6.0,86.0,-8.0,-29.0,-939.0,295.0
-5.0,-246.0,60.0,-5.0,84.0,-8.0,-32.0,-938.0,297.0
-2.0,-242.0,58.0,-4.0,81.0,-8.0,-34.0,-936.0,293.0
-1.0,-246.0,59.0,-4.0,78.0,-6.0,-37.0,-936.0,290.0
-6.0,-246.0,58.0,-4.0,75.0,-5.0,-35.0,-939.0,295.0
-3.0,-248.0,55.0,-2.0,70.0,-3.0,-34.0,-936.0,297.0
-3.0,-246.0,60.0,-2.0,66.0,-2.0,-37.0,-939.0,294.0
-3.0,-247.0,58.0,0.0,64.0,-1.0,-37.0,-943.0,293.0
-5.0,-246.0,59.0,-1.0,59.0,0.0,-37.0,-934.0,294.0
-5.0,-245.0,56.0,1.0,57.0,0.0,-37.0,-938.0,300.0
-3.0,-252.0,53.0,1.0,58.0,0.0,-40.0,-940.0,293.0
-4.0,-247.0,62.0,2.0,57.0,2.0,-39.0,-939.0,297.0
-4.0,-245.0,56.0,2.0,56.0,4.0,-37.0,-938.0,291.0
-3.0,-244.0,58.0,2.0,55.0,2.0,-39.0,-933.0,296.0
-3.0,-244.0,57.0,3.0,55.0,4.0,-37.0,-929.0,296.0
-1.0,-245.0,55.0,4.0,54.0,2.0,-42.0,-942.0,304.0
-4.0,-244.0,57.0,2.0,52.0,3.0,-39.0,-931.0,299.0
-6.0,-245.0,59.0,4.0,51.0,5.0,-32.0,-933.0,298.0
-4.0,-246.0,59.0,4.0,50.0,7.0,-37.0,-935.0,299.0
-3.0,-243.0,59.0,4.0,48.0,5.0,-34.0,-927.0,305.0
-2.0,-246.0,57.0,4.0,48.0,6.0,-32.0,-936.0,300.0
-2.0,-244.0,61.0,5.0,46.0,4.0,-32.0,-935.0,301.0
-1.0,-246.0,61.0,4.0,46.0,7.0,-34.0,-934.0,304.0
-1.0,-245.0,55.0,2.0,44.0,7.0,-39.0,-926.0,304.0
-4.0,-241.0,57.0,1.0,44.0,8.0,-35.0,-929.0,296.0
-4.0,-243.0,57.0,-1.0,44.0,9.0,-32.0,-931.0,299.0
-3.0,-243.0,59.0,-5.0,44.0,10.0,-38.0,-929.0,297.0
-7.0,-242.0,57.0,-6.0,44.0,10.0,-36.0,-929.0,301.0
-4.0,-242.0,56.0,-7.0,43.0,12.0,-33.0,-930.0,299.0
-6.0,-243.0,60.0,-7.0,42.0,11.0,-40.0,-932.0,299.0
-6.0,-245.0,55.0,-7.0,43.0,13.0,-41.0,-933.0,298.0
-4.0,-245.0,58.0,-6.0,41.0,12.0,-37.0,-932.0,300.0
-2.0,-245.0,58.0,-6.0,40.0,14.0,-37.0,-929.0,299.0
-4.0,-245.0,55.0,-7.0,39.0,14.0,-37.0,-933.0,300.0
-5.0,-242.0,59.0,-8.0,38.0,17.0,-37.0,-930.0,295.0
-5.0,-243.0,58.0,-11.0,36.0,20.0,-41.0,-933.0,304.0
-4.0,-242.0,57.0,-13.0,32.0,24.0,-40.0,-929.0,304.0
-6.0,-243.0,63.0,-16.0,32.0,24.0,-41.0,-925.0,303.0
-3.0,-245.0,60.0,-21.0,30.0,27.0,-41.0,-929.0,300.0
-5.0,-241.0,57.0,-26.0,31.0,27.0,-38.0,-926.0,296.0
-5.0,-242.0,60.0,-31.0,33.0,29.0,-40.0,-926.0,307.0
-5.0,-241.0,59.0,-37.0,33.0,28.0,-39.0,-924.0,302.0
-4.0,-242.0,63.0,-41.0,35.0,30.0,-37.0,-924.0,305.0
-3.0,-240.0,59.0,-44.0,38.0,27.0,-39.0,-922.0,315.0
-4.0,-241.0,63.0,-47.0,42.0,29.0,-38.0,-925.0,307.0
-1.0,-242.0,61.0,-49.0,47.0,26.0,-37.0,-928.0,309.0
-4.0,-244.0,61.0,-52.0,50.0,28.0,-25.0,-929.0,311.0
-1.0,-243.0,60.0,-53.0,53.0,24.0,-24.0,-928.0,304.0
2.0,-246.0,58.0,-54.0,56.0,25.0,-27.0,-925.0,309.0
0.0,-243.0,62.0,-50.0,58.0,20.0,-20.0,-934.0,302.0
2.0,-245.0,60.0,-48.0,60.0,21.0,-15.0,-934.0,300.0
1.0,-247.0,60.0,-44.0,60.0,15.0,-23.0,-938.0,299.0
0.0,-246.0,57.0,-40.0,61.0,13.0,-19.0,-943.0,296.0
1.0,-249.0,62.0,-38.0,61.0,8.0,-24.0,-941.0,296.0
-2.0,-246.0,57.0,-35.0,61.0,7.0,-26.0,-945.0,295.0
-4.0,-248.0,60.0,-31.0,59.0,2.0,-25.0,-950.0,299.0
-5.0,-247.0,58.0,-28.0,60.0,3.0,-35.0,-945.0,294.0
-6.0,-249.0,56.0,-24.0,60.0,2.0,-40.0,-946.0,299.0
-7.0,-249.0,55.0,-20.0,59.0,4.0,-47.0,-944.0,297.0
-7.0,-248.0,60.0,-16.0,55.0,4.0,-50.0,-943.0,301.0
-11.0,-245.0,58.0,-14.0,56.0,8.0,-52.0,-943.0,299.0
-10.0,-246.0,57.0,-11.0,51.0,7.0,-58.0,-947.0,303.0
-11.0,-244.0,61.0,-9.0,48.0,13.0,-63.0,-934.0,304.0
-10.0,-244.0,62.0,-7.0,43.0,12.0,-64.0,-933.0,299.0
-10.0,-245.0,59.0,-4.0,38.0,19.0,-67.0,-932.0,308.0
-10.0,-243.0,63.0,-1.0,33.0,19.0,-64.0,-927.0,302.0
-11.0,-242.0,61.0,2.0,26.0,26.0,-71.0,-927.0,309.0
-11.0,-243.0,64.0,4.0,22.0,25.0,-66.0,-928.0,305.0
-10.0,-243.0,64.0,9.0,15.0,31.0,-70.0,-929.0,310.0
-10.0,-243.0,58.0,11.0,10.0,30.0,-62.0,-929.0,309.0
-8.0,-246.0,62.0,13.0,4.0,35.0,-58.0,-930.0,304.0
-7.0,-243.0,61.0,15.0,-1.0,34.0,-57.0,-934.0,311.0
-5.0,-245.0,65.0,17.0,-6.0,35.0,-54.0,-935.0,313.0
-8.0,-247.0,62.0,18.0,-9.0,34.0,-50.0,-935.0,309.0
-6.0,-244.0,60.0,19.0,-14.0,35.0,-44.0,-939.0,309.0
-5.0,-246.0,63.0,19.0,-17.0,33.0,-39.0,-934.0,315.0
-5.0,-246.0,64.0,20.0,-19.0,34.0,-39.0,-944.0,312.0
-6.0,-247.0,63.0,22.0,-21.0,31.0,-36.0,-937.0,312.0
-7.0,-246.0,61.0,20.0,-22.0,32.0,-37.0,-938.0,311.0
-1.0,-245.0,63.0,21.0,-23.0,29.0,-31.0,-941.0,319.0
-3.0,-245.0,59.0,22.0,-22.0,31.0,-32.0,-934.0,315.0
-4.0,-246.0,63.0,22.0,-21.0,28.0,-34.0,-940.0,319.0
-2.0,-245.0,61.0,24.0,-18.0,30.0,-27.0,-938.0,320.0
-4.0,-244.0,62.0,27.0,-15.0,27.0,-31.0,-935.0,316.0
-2.0,-243.0,64.0,27.0,-13.0,29.0,-34.0,-932.0,315.0
-2.0,-242.0,60.0,26.0,-10.0,24.0,-27.0,-929.0,313.0
-2.0,-243.0,63.0,26.0,-8.0,26.0,-30.0,-929.0,320.0
-5.0,-238.0,62.0,25.0,-5.0,22.0,-27.0,-926.0,317.0
0.0,-241.0,64.0,24.0,-2.0,21.0,-24.0,-926.0,319.0
1.0,-243.0,60.0,23.0,2.0,18.0,-25.0,-926.0,315.0
-1.0,-242.0,63.0,23.0,6.0,17.0,-22.0,-922.0,317.0
2.0,-240.0,65.0,22.0,11.0,12.0,-22.0,-924.0,313.0
-1.0,-241.0,60.0,18.0,16.0,11.0,-18.0,-922.0,313.0
2.0,-242.0,60.0,14.0,22.0,6.0,-15.0,-923.0,316.0
4.0,-245.0,62.0,10.0,27.0,5.0,-18.0,-925.0,312.0
0.0,-241.0,57.0,5.0,33.0,-1.0,-16.0,-924.0,313.0
3.0,-241.0,61.0,1.0,37.0,-2.0,-18.0,-925.0,307.0
3.0,-242.0,58.0,-1.0,44.0,-6.0,-21.0,-927.0,311.0
-1.0,-241.0,60.0,-2.0,49.0,-6.0,-17.0,-923.0,309.0
-2.0,-243.0,62.0,-2.0,54.0,-9.0,-20.0,-929.0,306.0
1.0,-243.0,57.0,-2.0,60.0,-9.0,-22.0,-928.0,301.0
1.0,-246.0,62.0,0.0,65.0,-13.0,-20.0,-931.0,301.0
-1.0,-246.0,57.0,0.0,69.0,-12.0,-21.0,-926.0,303.0
0.0,-244.0,62.0,0.0,73.0,-14.0,-24.0,-930.0,301.0
1.0,-245.0,59.0,0.0,76.0,-12.0,-24.0,-938.0,301.0
-1.0,-244.0,59.0,-2.0,78.0,-17.0,-26.0,-931.0,300.0
1.0,-244.0,61.0,-5.0,79.0,-17.0,-26.0,-937.0,301.0
0.0,-246.0,58.0,-8.0,79.0,-21.0,-29.0,-934.0,302.0
-3.0,-245.0,61.0,-10.0,81.0,-21.0,-26.0,-935.0,300.0
-2.0,-243.0,57.0,-12.0,82.0,-24.0,-25.0,-929.0,302.0
-3.0,-241.0,60.0,-15.0,82.0,-24.0,-30.0,-927.0,312.0
-2.0,-244.0,60.0,-18.0,81.0,-28.0,-32.0,-932.0,312.0
-1.0,-245.0,63.0,-21.0,80.0,-28.0,-31.0,-927.0,309.0
-2.0,-242.0,59.0,-22.0,79.0,-29.0,-36.0,-931.0,316.0
-4.0,-242.0,61.0,-23.0,78.0,-29.0,-36.0,-927.0,313.0
-2.0,-244.0,61.0,-24.0,79.0,-29.0,-32.0,-928.0,309.0
-1.0,-241.0,63.0,-27.0,80.0,-25.0,-40.0,-929.0,312.0
-5.0,-242.0,60.0,-28.0,83.0,-26.0,-33.0,-926.0,313.0
-4.0,-245.0,59.0,-30.0,82.0,-21.0,-38.0,-926.0,315.0
-3.0,-240.0,59.0,-29.0,84.0,-21.0,-36.0,-928.0,310.0
-3.0,-243.0,60.0,-28.0,85.0,-17.0,-37.0,-925.0,301.0
-3.0,-242.0,60.0,-28.0,86.0,-14.0,-36.0,-926.0,307.0
-3.0,-242.0,57.0,-28.0,87.0,-10.0,-32.0,-926.0,304.0
-4.0,-243.0,58.0,-24.0,88.0,-8.0,-32.0,-924.0,310.0
-1.0,-242.0,61.0,-22.0,88.0,-7.0,-36.0,-928.0,300.0
-4.0,-245.0,59.0,-22.0,87.0,-7.0,-36.0,-929.0,302.0
-5.0,-240.0,59.0,-23.0,87.0,-3.0,-34.0,-931.0,307.0
-4.0,-242.0,61.0,-22.0,85.0,-3.0,-36.0,-926.0,300.0
-3.0,-245.0,60.0,-21.0,85.0,-2.0,-38.0,-930.0,301.0
-6.0,-243.0,61.0,-20.0,83.0,-3.0,-38.0,-930.0,308.0
-3.0,-243.0,60.0,-19.0,84.0,-5.0,-37.0,-929.0,302.0
-5.0,-242.0,61.0,-20.0,85.0,-5.0,-32.0,-936.0,303.0
-3.0,-245.0,60.0,-21.0,86.0,-7.0,-32.0,-936.0,306.0
-3.0,-244.0,58.0,-22.0,87.0,-8.0,-26.0,-934.0,303.0
-3.0,-245.0,55.0,-25.0,89.0,-9.0,-32.0,-943.0,300.0
-3.0,-247.0,59.0,-24.0,90.0,-11.0,-32.0,-938.0,303.0
-3.0,-241.0,60.0,-23.0,90.0,-11.0,-24.0,-930.0,302.0
-2.0,-246.0,65.0,-24.0,92.0,-13.0,-28.0,-932.0,308.0
-2.0,-246.0,63.0,-23.0,93.0,-12.0,-23.0,-931.0,306.0
-2.0,-241.0,60.0,-22.0,96.0,-12.0,-22.0,-932.0,305.0
1.0,-242.0,56.0,-25.0,96.0,-13.0,-27.0,-932.0,301.0
1.0,-244.0,63.0,-26.0,95.0,-13.0,-25.0,-930.0,303.0
1.0,-244.0,57.0,-26.0,96.0,-11.0,-26.0,-927.0,303.0
-2.0,-242.0,59.0,-27.0,97.0,-11.0,-26.0,-928.0,300.0
-1.0,-245.0,58.0,-28.0,96.0,-12.0,-25.0,-931.0,298.0
-2.0,-242.0,59.0,-28.0,98.0,-12.0,-30.0,-930.0,297.0
0.0,-243.0,58.0,-29.0,98.0,-11.0,-26.0,-934.0,300.0
1.0,-244.0,55.0,-30.0,100.0,-11.0,-31.0,-927.0,302.0
-1.0,-245.0,59.0,-32.0,102.0,-9.0,-31.0,-935.0,298.0
0.0,-244.0,62.0,-35.0,104.0,-8.0,-29.0,-931.0,298.0
-2.0,-246.0,63.0,-36.0,107.0,-9.0,-29.0,-929.0,300.0
0.0,-245.0,58.0,-40.0,107.0,-9.0,-32.0,-937.0,309.0
0.0,-246.0,59.0,-41.0,109.0,-9.0,-27.0,-931.0,298.0
0.0,-245.0,60.0,-42.0,108.0,-9.0,-24.0,-928.0,302.0
-2.0,-245.0,56.0,-44.0,108.0,-11.0,-24.0,-931.0,296.0
1.0,-246.0,58.0,-46.0,109.0,-12.0,-22.0,-936.0,296.0
1.0,-246.0,60.0,-50.0,109.0,-14.0,-23.0,-940.0,294.0
1.0,-246.0,62.0,-50.0,112.0,-17.0,-24.0,-932.0,295.0
-2.0,-246.0,58.0,-52.0,113.0,-20.0,-21.0,-935.0,296.0
-1.0,-243.0,60.0,-52.0,116.0,-22.0,-21.0,-934.0,296.0
1.0,-247.0,58.0,-51.0,119.0,-25.0,-23.0,-942.0,295.0
-1.0,-244.0,58.0,-49.0,124.0,-26.0,-25.0,-941.0,298.0
1.0,-247.0,55.0,-46.0,129.0,-27.0,-23.0,-937.0,295.0
-2.0,-246.0,59.0,-43.0,132.0,-27.0,-21.0,-936.0,294.0
-1.0,-246.0,57.0,-41.0,135.0,-28.0,-25.0,-930.0,294.0
1.0,-245.0,55.0,-40.0,137.0,-26.0,-24.0,-941.0,294.0
-1.0,-246.0,58.0,-37.0,139.0,-26.0,-21.0,-939.0,292.0
2.0,-244.0,61.0,-36.0,139.0,-27.0,-23.0,-929.0,294.0
-2.0,-246.0,58.0,-34.0,140.0,-28.0,-20.0,-935.0,287.0
1.0,-246.0,59.0,-33.0,142.0,-26.0,-22.0,-942.0,286.0
4.0,-246.0,58.0,-33.0,143.0,-27.0,-22.0,-936.0,292.0
-1.0,-246.0,57.0,-33.0,141.0,-26.0,-21.0,-941.0,292.0
-2.0,-246.0,61.0,-34.0,140.0,-26.0,-23.0,-941.0,296.0
1.0,-245.0,57.0,-36.0,138.0,-25.0,-27.0,-939.0,292.0
1.0,-243.0,62.0,-35.0,136.0,-26.0,-22.0,-939.0,292.0
-3.0,-247.0,56.0,-36.0,136.0,-24.0,-23.0,-944.0,298.0
0.0,-247.0,54.0,-35.0,135.0,-25.0,-25.0,-941.0,298.0
1.0,-244.0,58.0,-35.0,137.0,-23.0,-28.0,-935.0,296.0
1.0,-245.0,61.0,-34.0,138.0,-26.0,-28.0,-935.0,295.0
-2.0,-241.0,55.0,-34.0,140.0,-24.0,-27.0,-931.0,296.0
0.0,-245.0,57.0,-35.0,142.0,-27.0,-28.0,-934.0,292.0
-4.0,-243.0,53.0,-34.0,146.0,-26.0,-30.0,-935.0,297.0
-3.0,-243.0,56.0,-34.0,149.0,-28.0,-27.0,-932.0,293.0
-2.0,-242.0,58.0,-31.0,154.0,-27.0,-31.0,-932.0,291.0
-1.0,-244.0,58.0,-31.0,155.0,-29.0,-28.0,-939.0,291.0
-2.0,-244.0,57.0,-29.0,158.0,-29.0,-25.0,-933.0,291.0
-1.0,-244.0,58.0,-29.0,157.0,-34.0,-25.0,-932.0,292.0
-4.0,-243.0,56.0,-26.0,156.0,-33.0,-28.0,-927.0,294.0
0.0,-245.0,55.0,-26.0,153.0,-37.0,-22.0,-928.0,295.0
-2.0,-242.0,58.0,-25.0,150.0,-35.0,-25.0,-933.0,294.0
-1.0,-244.0,54.0,-24.0,148.0,-38.0,-27.0,-929.0,295.0
-1.0,-244.0,58.0,-21.0,144.0,-35.0,-26.0,-933.0,297.0
0.0,-245.0,57.0,-21.0,141.0,-37.0,-25.0,-935.0,295.0
-2.0,-244.0,59.0,-21.0,140.0,-36.0,-27.0,-932.0,286.0
0.0,-245.0,55.0,-23.0,140.0,-37.0,-25.0,-939.0,295.0
-2.0,-242.0,58.0,-27.0,137.0,-34.0,-33.0,-943.0,294.0
-2.0,-245.0,58.0,-30.0,137.0,-36.0,-32.0,-933.0,291.0
-4.0,-246.0,57.0,-34.0,138.0,-33.0,-30.0,-944.0,288.0
-4.0,-246.0,56.0,-38.0,138.0,-36.0,-36.0,-944.0,293.0
-3.0,-246.0,58.0,-41.0,139.0,-33.0,-37.0,-935.0,290.0
-5.0,-246.0,56.0,-42.0,139.0,-36.0,-39.0,-938.0,285.0
-5.0,-245.0,59.0,-46.0,141.0,-33.0,-35.0,-935.0,293.0
-3.0,-247.0,59.0,-46.0,140.0,-36.0,-30.0,-933.0,291.0
-2.0,-246.0,61.0,-47.0,140.0,-35.0,-33.0,-936.0,289.0
-5.0,-245.0,54.0,-46.0,139.0,-37.0,-37.0,-931.0,288.0
-3.0,-248.0,57.0,-45.0,139.0,-35.0,-35.0,-931.0,292.0
-3.0,-246.0,55.0,-42.0,137.0,-37.0,-37.0,-937.0,289.0
-1.0,-243.0,59.0,-40.0,137.0,-34.0,-36.0,-934.0,293.0
-4.0,-244.0,55.0,-38.0,136.0,-35.0,-33.0,-934.0,286.0
-4.0,-245.0,57.0,-36.0,135.0,-33.0,-33.0,-933.0,287.0
-3.0,-243.0,57.0,-33.0,134.0,-35.0,-35.0,-935.0,291.0
-4.0,-244.0,56.0,-32.0,132.0,-34.0,-31.0,-933.0,293.0
-2.0,-245.0,59.0,-30.0,131.0,-36.0,-29.0,-933.0,287.0
-3.0,-246.0,56.0,-25.0,130.0,-33.0,-28.0,-941.0,289.0
-4.0,-246.0,54.0,-24.0,128.0,-35.0,-26.0,-940.0,292.0
-2.0,-246.0,56.0,-25.0,127.0,-34.0,-29.0,-941.0,293.0
-3.0,-245.0,58.0,-24.0,126.0,-36.0,-29.0,-944.0,292.0
-2.0,-245.0,56.0,-23.0,126.0,-33.0,-26.0,-946.0,294.0
-1.0,-246.0,56.0,-23.0,125.0,-37.0,-29.0,-939.0,294.0
0.0,-247.0,57.0,-20.0,126.0,-34.0,-26.0,-944.0,292.0
-3.0,-245.0,58.0,-21.0,126.0,-37.0,-25.0,-944.0,295.0
-2.0,-248.0,55.0,-21.0,126.0,-35.0,-23.0,-944.0,297.0
0.0,-244.0,58.0,-20.0,126.0,-38.0,-24.0,-946.0,295.0
1.0,-246.0,60.0,-18.0,127.0,-36.0,-19.0,-939.0,293.0
1.0,-244.0,56.0,-17.0,127.0,-37.0,-25.0,-942.0,298.0
1.0,-247.0,54.0,-14.0,129.0,-35.0,-22.0,-933.0,296.0
0.0,-245.0,60.0,-11.0,130.0,-38.0,-20.0,-940.0,296.0
-1.0,-246.0,57.0,-8.0,131.0,-37.0,-22.0,-941.0,294.0
0.0,-248.0,57.0,-4.0,131.0,-39.0,-21.0,-937.0,297.0
1.0,-245.0,56.0,0.0,133.0,-38.0,-20.0,-940.0,295.0
0.0,-247.0,55.0,4.0,134.0,-41.0,-17.0,-939.0,297.0
0.0,-242.0,58.0,8.0,137.0,-40.0,-19.0,-931.0,301.0
2.0,-244.0,58.0,13.0,139.0,-43.0,-18.0,-936.0,297.0
0.0,-244.0,55.0,16.0,141.0,-42.0,-23.0,-933.0,298.0
2.0,-246.0,58.0,17.0,146.0,-46.0,-22.0,-934.0,295.0
0.0,-245.0,58.0,16.0,149.0,-45.0,-19.0,-934.0,297.0
1.0,-243.0,60.0,15.0,151.0,-49.0,-27.0,-933.0,296.0
0.0,-247.0,57.0,13.0,153.0,-49.0,-24.0,-937.0,296.0
2.0,-245.0,60.0,9.0,156.0,-53.0,-27.0,-932.0,293.0
-3.0,-243.0,61.0,6.0,158.0,-51.0,-24.0,-932.0,296.0
-5.0,-244.0,61.0,2.0,159.0,-54.0,-29.0,-928.0,296.0
-4.0,-243.0,62.0,1.0,163.0,-50.0,-38.0,-931.0,295.0
-2.0,-244.0,58.0,-2.0,166.0,-51.0,-36.0,-931.0,298.0
-4.0,-244.0,60.0,-5.0,166.0,-48.0,-41.0,-930.0,301.0
-6.0,-242.0,56.0,-6.0,167.0,-49.0,-46.0,-931.0,297.0
-5.0,-241.0,58.0,-6.0,167.0,-44.0,-44.0,-926.0,298.0
-6.0,-245.0,61.0,-6.0,166.0,-42.0,-47.0,-927.0,301.0
-9.0,-241.0,61.0,-7.0,163.0,-36.0,-46.0,-926.0,298.0
-5.0,-242.0,63.0,-11.0,162.0,-33.0,-51.0,-919.0,298.0
-8.0,-239.0,57.0,-12.0,158.0,-27.0,-44.0,-925.0,299.0
-8.0,-242.0,55.0,-17.0,149.0,-25.0,-48.0,-925.0,302.0
-8.0,-242.0,59.0,-25.0,141.0,-20.0,-51.0,-926.0,297.0
-7.0,-245.0,58.0,-31.0,132.0,-19.0,-54.0,-924.0,296.0
-6.0,-245.0,57.0,-39.0,125.0,-13.0,-51.0,-933.0,298.0
-8.0,-243.0,56.0,-44.0,118.0,-13.0,-44.0,-930.0,288.0
-8.0,-244.0,59.0,-47.0,112.0,-11.0,-40.0,-936.0,290.0
-6.0,-248.0,55.0,-51.0,109.0,-10.0,-47.0,-934.0,288.0
-6.0,-245.0,56.0,-53.0,105.0,-10.0,-42.0,-933.0,289.0
-7.0,-248.0,56.0,-56.0,103.0,-11.0,-45.0,-933.0,287.0
-4.0,-244.0,57.0,-55.0,101.0,-10.0,-43.0,-943.0,282.0
-6.0,-245.0,54.0,-51.0,100.0,-12.0,-43.0,-936.0,292.0
-2.0,-246.0,54.0,-46.0,101.0,-11.0,-39.0,-940.0,289.0
-2.0,-247.0,54.0,-36.0,102.0,-11.0,-36.0,-940.0,289.0
-4.0,-245.0,58.0,-31.0,103.0,-12.0,-34.0,-948.0,285.0
-2.0,-246.0,56.0,-24.0,103.0,-11.0,-32.0,-941.0,284.0
-7.0,-246.0,55.0,-16.0,105.0,-10.0,-24.0,-942.0,282.0
-3.0,-244.0,56.0,-12.0,102.0,-10.0,-25.0,-936.0,287.0
-1.0,-246.0,59.0,-8.0,102.0,-8.0,-25.0,-941.0,296.0
-1.0,-246.0,59.0,-8.0,99.0,-8.0,-22.0,-935.0,286.0
2.0,-246.0,51.0,-8.0,96.0,-6.0,-19.0,-937.0,298.0
1.0,-247.0,57.0,-7.0,94.0,-6.0,-19.0,-940.0,297.0
-1.0,-245.0,58.0,-6.0,93.0,-5.0,-20.0,-939.0,291.0
1.0,-245.0,60.0,-8.0,91.0,-3.0,-23.0,-936.0,293.0
-1.0,-245.0,56.0,-8.0,91.0,-3.0,-20.0,-940.0,290.0
-4.0,-247.0,58.0,-9.0,91.0,-4.0,-22.0,-939.0,296.0
-2.0,-244.0,58.0,-10.0,90.0,-5.0,-23.0,-941.0,296.0
0.0,-245.0,59.0,-11.0,90.0,-7.0,-21.0,-939.0,297.0
-4.0,-243.0,60.0,-13.0,92.0,-8.0,-26.0,-934.0,293.0
-2.0,-244.0,57.0,-13.0,93.0,-8.0,-27.0,-934.0,287.0
-1.0,-244.0,59.0,-14.0,96.0,-9.0,-25.0,-933.0,291.0
-5.0,-243.0,60.0,-13.0,98.0,-12.0,-33.0,-932.0,291.0
-2.0,-243.0,55.0,-12.0,100.0,-15.0,-25.0,-935.0,285.0
0.0,-245.0,57.0,-11.0,103.0,-17.0,-25.0,-930.0,293.0
-4.0,-242.0,56.0,-9.0,104.0,-17.0,-32.0,-935.0,290.0
-2.0,-244.0,55.0,-8.0,105.0,-19.0,-32.0,-933.0,291.0
-5.0,-242.0,57.0,-6.0,107.0,-20.0,-28.0,-941.0,293.0
-4.0,-248.0,56.0,-1.0,106.0,-22.0,-37.0,-947.0,295.0
-3.0,-245.0,58.0,0.0,106.0,-23.0,-29.0,-943.0,298.0
-1.0,-247.0,59.0,1.0,105.0,-23.0,-32.0,-946.0,296.0
-2.0,-249.0,58.0,2.0,102.0,-23.0,-34.0,-940.0,293.0
-4.0,-244.0,62.0,4.0,99.0,-23.0,-30.0,-947.0,291.0
-3.0,-246.0,55.0,4.0,98.0,-22.0,-35.0,-943.0,297.0
-6.0,-244.0,61.0,5.0,96.0,-19.0,-35.0,-940.0,300.0
-2.0,-248.0,59.0,6.0,93.0,-19.0,-37.0,-945.0,298.0
-4.0,-246.0,57.0,7.0,90.0,-17.0,-33.0,-944.0,301.0
-3.0,-248.0,55.0,4.0,88.0,-16.0,-34.0,-941.0,290.0
-4.0,-248.0,59.0,4.0,86.0,-14.0,-37.0,-946.0,292.0
-4.0,-246.0,57.0,1.0,84.0,-12.0,-41.0,-940.0,294.0
-4.0,-249.0,57.0,-1.0,81.0,-10.0,-38.0,-941.0,298.0
-6.0,-247.0,57.0,-3.0,79.0,-11.0,-38.0,-935.0,295.0
-6.0,-246.0,54.0,-2.0,77.0,-8.0,-41.0,-932.0,293.0
-5.0,-244.0,57.0,-1.0,75.0,-10.0,-38.0,-939.0,297.0
-5.0,-242.0,59.0,1.0,72.0,-9.0,-43.0,-927.0,298.0
-6.0,-243.0,59.0,2.0,71.0,-9.0,-43.0,-929.0,293.0
-2.0,-242.0,52.0,4.0,70.0,-6.0,-40.0,-928.0,294.0
8.0,-239.0,48.0,5.0,66.0,-7.0,-46.0,-927.0,290.0
-4.0,-245.0,55.0,4.0,64.0,-5.0,-35.0,-933.0,285.0
-3.0,-244.0,53.0,3.0,62.0,-4.0,-38.0,-927.0,286.0
-2.0,-250.0,62.0,2.0,57.0,-2.0,-41.0,-928.0,284.0
-5.0,-243.0,55.0,1.0,52.0,-2.0,-39.0,-926.0,293.0
-7.0,-240.0,56.0,-2.0,49.0,0.0,-40.0,-924.0,290.0
-6.0,-246.0,57.0,-2.0,46.0,-3.0,-45.0,-926.0,291.0
2.0,-247.0,59.0,-2.0,41.0,-1.0,-40.0,-927.0,295.0
-7.0,-252.0,76.0,-1.0,37.0,-1.0,-36.0,-932.0,295.0
-6.0,-236.0,58.0,1.0,35.0,2.0,-37.0,-932.0,291.0
-2.0,-243.0,62.0,2.0,33.0,2.0,-39.0,-937.0,296.0
-8.0,-238.0,57.0,1.0,29.0,5.0,-32.0,-935.0,290.0
-7.0,-247.0,68.0,2.0,26.0,6.0,-30.0,-935.0,293.0
10.0,-239.0,45.0,1.0,24.0,8.0,-32.0,-943.0,299.0
-8.0,-250.0,55.0,1.0,21.0,8.0,-30.0,-947.0,297.0
-4.0,-245.0,69.0,0.0,20.0,10.0,-35.0,-945.0,297.0
-9.0,-241.0,55.0,0.0,20.0,10.0,-32.0,-948.0,294.0
0.0,-247.0,57.0,0.0,20.0,13.0,-35.0,-945.0,296.0
-5.0,-240.0,49.0,-1.0,21.0,12.0,-34.0,-950.0,295.0
-3.0,-247.0,58.0,-1.0,22.0,13.0,-27.0,-942.0,296.0
2.0,-239.0,51.0,-1.0,23.0,10.0,-27.0,-945.0,294.0
-6.0,-249.0,70.0,-1.0,22.0,11.0,-25.0,-942.0,296.0
16.0,-240.0,59.0,0.0,22.0,8.0,-25.0,-942.0,295.0
2.0,-247.0,60.0,0.0,22.0,9.0,-22.0,-942.0,299.0
-5.0,-251.0,56.0,-1.0,21.0,7.0,-26.0,-932.0,289.0
1.0,-245.0,59.0,0.0,20.0,9.0,-24.0,-938.0,299.0
-1.0,-245.0,57.0,-1.0,21.0,5.0,-25.0,-936.0,296.0
-5.0,-241.0,56.0,1.0,20.0,9.0,-31.0,-932.0,296.0
0.0,-244.0,63.0,0.0,20.0,6.0,-26.0,-932.0,299.0
-1.0,-245.0,65.0,-1.0,22.0,8.0,-28.0,-929.0,298.0
-3.0,-244.0,60.0,-5.0,23.0,6.0,-32.0,-937.0,298.0
0.0,-238.0,60.0,-7.0,23.0,8.0,-30.0,-928.0,303.0
5.0,-239.0,56.0,-11.0,25.0,6.0,-37.0,-928.0,300.0
3.0,-238.0,62.0,-14.0,25.0,9.0,-31.0,-930.0,305.0
2.0,-244.0,58.0,-17.0,27.0,6.0,-27.0,-923.0,298.0
-10.0,-241.0,63.0,-18.0,29.0,7.0,-33.0,-921.0,297.0
-7.0,-252.0,62.0,-20.0,30.0,5.0,-32.0,-924.0,304.0
-6.0,-232.0,60.0,-23.0,30.0,8.0,-33.0,-923.0,299.0
5.0,-223.0,55.0,-23.0,32.0,6.0,-33.0,-922.0,306.0
-4.0,-238.0,66.0,-25.0,32.0,8.0,-27.0,-921.0,312.0
-1.0,-233.0,50.0,-24.0,32.0,7.0,-32.0,-919.0,299.0
-1.0,-225.0,69.0,-25.0,35.0,12.0,-33.0,-928.0,308.0
-1.0,-241.0,66.0,-25.0,37.0,11.0,-29.0,-923.0,302.0
-5.0,-243.0,50.0,-27.0,39.0,14.0,-33.0,-929.0,308.0
-1.0,-235.0,49.0,-26.0,40.0,13.0,-30.0,-927.0,309.0
-1.0,-241.0,67.0,-27.0,40.0,16.0,-27.0,-931.0,313.0
-4.0,-239.0,54.0,-29.0,42.0,16.0,-32.0,-931.0,301.0
1.0,-247.0,63.0,-30.0,44.0,18.0,-28.0,-931.0,307.0
-2.0,-242.0,66.0,-32.0,45.0,17.0,-27.0,-928.0,300.0
-6.0,-245.0,70.0,-32.0,46.0,20.0,-26.0,-928.0,307.0
3.0,-246.0,60.0,-35.0,47.0,17.0,-24.0,-927.0,299.0
-2.0,-245.0,62.0,-34.0,49.0,17.0,-22.0,-929.0,302.0
9.0,-236.0,58.0,-36.0,52.0,12.0,-22.0,-918.0,297.0
9.0,-235.0,56.0,-36.0,53.0,11.0,-24.0,-921.0,294.0
-4.0,-238.0,46.0,-36.0,56.0,6.0,-23.0,-920.0,298.0
-3.0,-240.0,60.0,-34.0,58.0,5.0,-27.0,-916.0,296.0
-5.0,-246.0,51.0,-30.0,59.0,0.0,-24.0,-918.0,298.0
-4.0,-237.0,58.0,-27.0,59.0,0.0,-27.0,-920.0,297.0
-5.0,-241.0,60.0,-25.0,58.0,-4.0,-32.0,-918.0,293.0
1.0,-241.0,55.0,-22.0,58.0,-3.0,-34.0,-922.0,286.0
3.0,-242.0,57.0,-22.0,56.0,-4.0,-32.0,-916.0,296.0
-8.0,-238.0,59.0,-23.0,53.0,-3.0,-34.0,-920.0,288.0
3.0,-233.0,45.0,-27.0,52.0,-4.0,-35.0,-920.0,291.0
1.0,-246.0,65.0,-31.0,48.0,0.0,-33.0,-919.0,293.0
-10.0,-248.0,48.0,-34.0,45.0,-1.0,-33.0,-921.0,299.0
-4.0,-235.0,57.0,-35.0,44.0,3.0,-39.0,-925.0,298.0
4.0,-236.0,57.0,-36.0,40.0,2.0,-30.0,-927.0,302.0
1.0,-240.0,57.0,-38.0,40.0,5.0,-36.0,-927.0,305.0
4.0,-238.0,61.0,-42.0,39.0,6.0,-38.0,-925.0,299.0
1.0,-245.0,69.0,-45.0,40.0,11.0,-40.0,-927.0,299.0
-3.0,-233.0,51.0,-49.0,42.0,11.0,-39.0,-930.0,299.0
-6.0,-243.0,56.0,-51.0,44.0,16.0,-39.0,-929.0,304.0
1.0,-244.0,57.0,-52.0,46.0,17.0,-39.0,-935.0,302.0
3.0,-247.0,59.0,-56.0,48.0,20.0,-46.0,-934.0,298.0
-2.0,-242.0,58.0,-57.0,48.0,22.0,-43.0,-934.0,299.0
-6.0,-238.0,51.0,-59.0,50.0,25.0,-49.0,-931.0,293.0
2.0,-254.0,58.0,-62.0,48.0,22.0,-45.0,-934.0,289.0
-5.0,-243.0,53.0,-65.0,48.0,25.0,-40.0,-933.0,282.0
-10.0,-244.0,57.0,-71.0,47.0,24.0,-46.0,-936.0,283.0
-10.0,-244.0,46.0,-76.0,43.0,25.0,-49.0,-933.0,283.0
-6.0,-236.0,50.0,-79.0,40.0,24.0,-47.0,-937.0,286.0
-11.0,-242.0,61.0,-81.0,36.0,26.0,-46.0,-936.0,288.0
5.0,-250.0,55.0,-80.0,32.0,26.0,-45.0,-943.0,281.0
-1.0,-246.0,51.0,-81.0,28.0,27.0,-45.0,-945.0,284.0
-3.0,-249.0,57.0,-80.0,25.0,24.0,-44.0,-942.0,280.0
-7.0,-243.0,41.0,-80.0,23.0,26.0,-45.0,-949.0,280.0
-7.0,-245.0,71.0,-81.0,20.0,25.0,-45.0,-943.0,280.0
-7.0,-241.0,46.0,-81.0,19.0,27.0,-47.0,-945.0,280.0
-3.0,-249.0,53.0,-80.0,16.0,26.0,-43.0,-944.0,282.0
-4.0,-247.0,53.0,-77.0,13.0,27.0,-43.0,-948.0,282.0
-4.0,-248.0,54.0,-74.0,10.0,28.0,-39.0,-951.0,282.0
-6.0,-247.0,53.0,-73.0,10.0,30.0,-38.0,-953.0,281.0
-8.0,-251.0,57.0,-74.0,8.0,27.0,-32.0,-952.0,277.0
-9.0,-252.0,52.0,-76.0,7.0,28.0,-28.0,-951.0,277.0
7.0,-257.0,53.0,-77.0,7.0,26.0,-27.0,-954.0,272.0
-1.0,-251.0,54.0,-80.0,5.0,27.0,-27.0,-949.0,275.0
-4.0,-251.0,61.0,-82.0,5.0,24.0,-26.0,-954.0,272.0
3.0,-238.0,47.0,-84.0,7.0,22.0,-25.0,-957.0,270.0
-1.0,-237.0,46.0,-84.0,7.0,20.0,-24.0,-952.0,268.0
-1.0,-243.0,48.0,-87.0,8.0,18.0,-17.0,-946.0,267.0
6.0,-257.0,66.0,-89.0,9.0,15.0,-19.0,-951.0,268.0
3.0,-246.0,53.0,-89.0,11.0,12.0,-17.0,-948.0,269.0
2.0,-253.0,75.0,-89.0,10.0,10.0,-15.0,-949.0,268.0
1.0,-247.0,49.0,-89.0,11.0,8.0,-20.0,-942.0,269.0
7.0,-242.0,58.0,-86.0,11.0,4.0,-15.0,-951.0,267.0
5.0,-245.0,39.0,-86.0,13.0,2.0,-17.0,-946.0,273.0
6.0,-254.0,50.0,-86.0,16.0,-1.0,-19.0,-951.0,267.0
9.0,-247.0,47.0,-87.0,18.0,-5.0,-18.0,-948.0,268.0
4.0,-253.0,62.0,-84.0,18.0,-6.0,-18.0,-946.0,269.0
8.0,-247.0,47.0,-85.0,19.0,-8.0,-23.0,-941.0,269.0
3.0,-242.0,30.0,-86.0,20.0,-9.0,-18.0,-950.0,268.0
1.0,-241.0,38.0,-88.0,20.0,-11.0,-19.0,-941.0,265.0
5.0,-243.0,47.0,-91.0,22.0,-12.0,-22.0,-942.0,264.0
4.0,-246.0,43.0,-92.0,24.0,-12.0,-25.0,-944.0,265.0
-2.0,-247.0,49.0,-94.0,26.0,-14.0,-21.0,-940.0,264.0
0.0,-249.0,53.0,-96.0,26.0,-13.0,-25.0,-945.0,268.0
-2.0,-244.0,59.0,-96.0,29.0,-13.0,-23.0,-943.0,262.0
-1.0,-238.0,48.0,-97.0,31.0,-14.0,-29.0,-935.0,266.0
4.0,-239.0,48.0,-96.0,34.0,-11.0,-28.0,-943.0,263.0
1.0,-244.0,49.0,-98.0,35.0,-12.0,-27.0,-943.0,258.0
-1.0,-246.0,44.0,-101.0,39.0,-11.0,-27.0,-939.0,262.0
-1.0,-243.0,47.0,-105.0,42.0,-11.0,-27.0,-931.0,261.0
-5.0,-243.0,44.0,-109.0,42.0,-9.0,-28.0,-933.0,260.0
1.0,-243.0,44.0,-114.0,44.0,-9.0,-30.0,-940.0,252.0
-6.0,-243.0,45.0,-119.0,45.0,-9.0,-26.0,-939.0,250.0
-3.0,-237.0,33.0,-125.0,46.0,-7.0,-25.0,-933.0,245.0
4.0,-236.0,35.0,-129.0,49.0,-7.0,-27.0,-941.0,246.0
2.0,-244.0,41.0,-134.0,49.0,-8.0,-26.0,-944.0,246.0
-3.0,-242.0,39.0,-139.0,52.0,-5.0,-24.0,-943.0,241.0
-6.0,-247.0,42.0,-142.0,53.0,-5.0,-25.0,-950.0,238.0
-2.0,-250.0,54.0,-145.0,55.0,-4.0,-22.0,-952.0,242.0
3.0,-253.0,43.0,-145.0,58.0,-6.0,-23.0,-950.0,240.0
-1.0,-257.0,46.0,-146.0,61.0,-6.0,-21.0,-946.0,235.0
10.0,-247.0,39.0,-147.0,62.0,-8.0,-20.0,-945.0,235.0
4.0,-247.0,34.0,-147.0,62.0,-7.0,-18.0,-945.0,230.0
9.0,-247.0,41.0,-147.0,65.0,-11.0,-17.0,-943.0,231.0
1.0,-250.0,46.0,-148.0,66.0,-10.0,-20.0,-941.0,228.0
9.0,-249.0,41.0,-151.0,68.0,-12.0,-18.0,-939.0,226.0
-4.0,-250.0,50.0,-152.0,67.0,-12.0,-13.0,-940.0,226.0
4.0,-241.0,38.0,-155.0,67.0,-15.0,-15.0,-944.0,228.0
2.0,-237.0,40.0,-161.0,68.0,-15.0,-15.0,-939.0,226.0
26.0,-243.0,34.0,-168.0,66.0,-17.0,-14.0,-941.0,226.0
11.0,-242.0,49.0,-177.0,68.0,-16.0,-19.0,-945.0,219.0
-1.0,-254.0,60.0,-188.0,69.0,-21.0,-14.0,-939.0,222.0
7.0,-253.0,43.0,-199.0,72.0,-22.0,-15.0,-937.0,223.0
7.0,-244.0,51.0,-212.0,76.0,-25.0,-15.0,-941.0,224.0
1.0,-240.0,27.0,-223.0,82.0,-23.0,-13.0,-936.0,218.0
3.0,-254.0,39.0,-231.0,87.0,-26.0,-15.0,-938.0,218.0
4.0,-243.0,43.0,-239.0,93.0,-24.0,-15.0,-938.0,222.0
6.0,-251.0,42.0,-247.0,97.0,-27.0,-9.0,-936.0,217.0
6.0,-240.0,36.0,-256.0,101.0,-24.0,-14.0,-939.0,214.0
-2.0,-250.0,30.0,-265.0,102.0,-28.0,-7.0,-938.0,210.0
5.0,-245.0,32.0,-273.0,106.0,-28.0,-3.0,-935.0,210.0
4.0,-245.0,34.0,-280.0,107.0,-33.0,-10.0,-927.0,206.0
3.0,-244.0,32.0,-292.0,108.0,-36.0,-9.0,-934.0,207.0
3.0,-245.0,37.0,-301.0,112.0,-41.0,-13.0,-929.0,203.0
1.0,-253.0,30.0,-310.0,114.0,-42.0,-14.0,-929.0,203.0
-3.0,-253.0,46.0,-318.0,116.0,-47.0,-14.0,-929.0,202.0
0.0,-247.0,27.0,-325.0,119.0,-46.0,-16.0,-926.0,202.0
6.0,-239.0,34.0,-334.0,121.0,-49.0,-15.0,-931.0,200.0
-1.0,-245.0,26.0,-342.0,123.0,-48.0,-14.0,-935.0,196.0
-5.0,-252.0,48.0,-353.0,129.0,-50.0,-17.0,-944.0,194.0
0.0,-255.0,41.0,-361.0,133.0,-49.0,-16.0,-947.0,195.0
1.0,-236.0,27.0,-371.0,140.0,-51.0,-12.0,-949.0,192.0
1.0,-245.0,36.0,-387.0,148.0,-47.0,-11.0,-949.0,188.0
-2.0,-247.0,21.0,-400.0,156.0,-49.0,-13.0,-957.0,189.0
6.0,-248.0,28.0,-414.0,165.0,-49.0,-16.0,-965.0,187.0
1.0,-252.0,31.0,-426.0,171.0,-50.0,-21.0,-977.0,186.0
0.0,-252.0,38.0,-438.0,175.0,-45.0,-25.0,-983.0,182.0
2.0,-258.0,25.0,-444.0,178.0,-45.0,-24.0,-996.0,186.0
3.0,-251.0,16.0,-448.0,179.0,-39.0,-35.0,-1006.0,185.0
8.0,-267.0,25.0,-451.0,179.0,-36.0,-36.0,-1012.0,187.0
-7.0,-255.0,30.0,-448.0,178.0,-32.0,-34.0,-1010.0,188.0
-7.0,-269.0,30.0,-442.0,177.0,-31.0,-34.0,-1012.0,187.0
4.0,-267.0,29.0,-437.0,177.0,-27.0,-26.0,-1013.0,188.0
11.0,-263.0,29.0,-431.0,175.0,-31.0,-23.0,-1007.0,183.0
0.0,-258.0,27.0,-423.0,175.0,-32.0,-22.0,-1001.0,178.0
1.0,-256.0,25.0,-415.0,180.0,-38.0,-14.0,-989.0,178.0
7.0,-251.0,26.0,-406.0,188.0,-42.0,-7.0,-986.0,172.0
8.0,-249.0,35.0,-399.0,197.0,-55.0,3.0,-973.0,166.0
10.0,-245.0,15.0,-393.0,210.0,-65.0,7.0,-962.0,165.0
22.0,-246.0,23.0,-388.0,224.0,-78.0,9.0,-953.0,151.0
11.0,-245.0,14.0,-384.0,244.0,-82.0,15.0,-942.0,140.0
10.0,-244.0,18.0,-387.0,258.0,-88.0,11.0,-940.0,136.0
10.0,-243.0,11.0,-392.0,270.0,-87.0,15.0,-929.0,123.0
7.0,-242.0,14.0,-399.0,281.0,-91.0,13.0,-926.0,124.0
12.0,-240.0,10.0,-409.0,291.0,-87.0,16.0,-922.0,114.0
11.0,-242.0,9.0,-421.0,300.0,-87.0,10.0,-920.0,111.0
6.0,-237.0,11.0,-432.0,305.0,-83.0,10.0,-914.0,108.0
5.0,-241.0,9.0,-446.0,308.0,-80.0,-1.0,-921.0,108.0
6.0,-239.0,9.0,-459.0,310.0,-74.0,-3.0,-921.0,103.0
0.0,-244.0,10.0,-475.0,309.0,-66.0,-5.0,-917.0,106.0
2.0,-238.0,10.0,-494.0,306.0,-54.0,-6.0,-920.0,108.0
3.0,-238.0,10.0,-510.0,305.0,-48.0,-15.0,-917.0,109.0
2.0,-241.0,9.0,-524.0,304.0,-37.0,-15.0,-914.0,114.0
-1.0,-236.0,10.0,-538.0,301.0,-31.0,-20.0,-914.0,119.0
-4.0,-239.0,19.0,-547.0,297.0,-21.0,-23.0,-911.0,121.0
-3.0,-236.0,13.0,-553.0,288.0,-17.0,-32.0,-908.0,125.0
-4.0,-235.0,13.0,-561.0,281.0,-9.0,-40.0,-912.0,126.0
-6.0,-237.0,13.0,-568.0,270.0,-5.0,-42.0,-906.0,119.0
-10.0,-238.0,14.0,-576.0,259.0,2.0,-53.0,-912.0,119.0
-9.0,-239.0,10.0,-584.0,247.0,5.0,-49.0,-914.0,122.0
-10.0,-236.0,8.0,-591.0,234.0,12.0,-55.0,-915.0,116.0
-12.0,-236.0,8.0,-597.0,222.0,20.0,-63.0,-914.0,109.0
-12.0,-241.0,5.0,-608.0,208.0,34.0,-72.0,-915.0,108.0
-11.0,-241.0,-6.0,-618.0,192.0,42.0,-77.0,-917.0,113.0
-16.0,-241.0,9.0,-628.0,177.0,55.0,-83.0,-921.0,108.0
-15.0,-244.0,10.0,-635.0,161.0,65.0,-95.0,-927.0,107.0
-17.0,-245.0,8.0,-639.0,143.0,80.0,-99.0,-941.0,106.0
-16.0,-249.0,9.0,-639.0,126.0,92.0,-105.0,-951.0,105.0
-27.0,-257.0,6.0,-640.0,104.0,105.0,-108.0,-972.0,102.0
-23.0,-253.0,8.0,-638.0,86.0,114.0,-108.0,-974.0,99.0
-22.0,-258.0,7.0,-635.0,64.0,125.0,-109.0,-996.0,96.0
-25.0,-259.0,8.0,-628.0,44.0,133.0,-121.0,-1001.0,97.0
-26.0,-260.0,7.0,-621.0,24.0,144.0,-114.0,-1014.0,94.0
-23.0,-262.0,2.0,-616.0,5.0,149.0,-118.0,-1016.0,86.0
-25.0,-264.0,2.0,-615.0,-14.0,156.0,-118.0,-1023.0,78.0
-24.0,-262.0,0.0,-610.0,-35.0,159.0,-114.0,-1026.0,71.0
-21.0,-265.0,-2.0,-610.0,-53.0,162.0,-111.0,-1023.0,65.0
-30.0,-259.0,0.0,-611.0,-74.0,163.0,-108.0,-1018.0,59.0
-21.0,-261.0,-5.0,-615.0,-87.0,163.0,-105.0,-1018.0,49.0
-17.0,-260.0,-9.0,-621.0,-99.0,160.0,-101.0,-1003.0,36.0
-13.0,-255.0,-12.0,-624.0,-107.0,158.0,-97.0,-985.0,27.0
-16.0,-252.0,-15.0,-631.0,-114.0,152.0,-93.0,-971.0,16.0
-13.0,-248.0,-28.0,-640.0,-114.0,148.0,-83.0,-957.0,9.0
-12.0,-248.0,-17.0,-650.0,-113.0,141.0,-78.0,-946.0,-1.0
-12.0,-242.0,-19.0,-661.0,-107.0,137.0,-79.0,-930.0,-11.0
-11.0,-239.0,-26.0,-675.0,-102.0,129.0,-67.0,-922.0,-14.0
-11.0,-235.0,-23.0,-692.0,-94.0,124.0,-66.0,-912.0,-23.0
-12.0,-235.0,-26.0,-711.0,-79.0,118.0,-57.0,-903.0,-23.0
-9.0,-232.0,-27.0,-726.0,-67.0,113.0,-57.0,-902.0,-34.0
-9.0,-233.0,-30.0,-741.0,-56.0,108.0,-52.0,-899.0,-38.0
-5.0,-233.0,-30.0,-755.0,-45.0,106.0,-52.0,-898.0,-45.0
-8.0,-231.0,-35.0,-769.0,-35.0,100.0,-46.0,-896.0,-50.0
-4.0,-233.0,-36.0,-782.0,-27.0,98.0,-42.0,-897.0,-58.0
-4.0,-232.0,-35.0,-792.0,-19.0,94.0,-39.0,-898.0,-64.0
-6.0,-234.0,-36.0,-801.0,-13.0,92.0,-36.0,-902.0,-64.0
-3.0,-234.0,-39.0,-807.0,-7.0,89.0,-36.0,-905.0,-67.0
2.0,-228.0,-33.0,-811.0,-3.0,88.0,-38.0,-919.0,-73.0
-3.0,-238.0,-36.0,-811.0,1.0,85.0,-36.0,-919.0,-79.0
-7.0,-239.0,-43.0,-814.0,4.0,84.0,-34.0,-924.0,-83.0
-4.0,-244.0,-39.0,-813.0,7.0,81.0,-32.0,-930.0,-86.0
0.0,-246.0,-40.0,-812.0,9.0,80.0,-39.0,-944.0,-89.0
-1.0,-239.0,-43.0,-811.0,9.0,78.0,-32.0,-948.0,-92.0
-5.0,-246.0,-45.0,-810.0,8.0,77.0,-34.0,-948.0,-92.0
-1.0,-247.0,-42.0,-808.0,7.0,73.0,-26.0,-952.0,-95.0
-1.0,-252.0,-47.0,-806.0,6.0,71.0,-24.0,-960.0,-101.0
-3.0,-250.0,-43.0,-803.0,5.0,66.0,-27.0,-969.0,-102.0
-2.0,-253.0,-47.0,-799.0,3.0,63.0,-22.0,-974.0,-110.0
-1.0,-254.0,-48.0,-795.0,-1.0,59.0,-24.0,-977.0,-114.0
-1.0,-257.0,-49.0,-793.0,-5.0,55.0,-25.0,-997.0,-117.0
-3.0,-259.0,-50.0,-789.0,-10.0,52.0,-28.0,-1004.0,-120.0
1.0,-260.0,-48.0,-780.0,-15.0,49.0,-27.0,-1009.0,-124.0
-3.0,-262.0,-48.0,-770.0,-21.0,48.0,-30.0,-1013.0,-130.0
-3.0,-262.0,-48.0,-759.0,-27.0,49.0,-36.0,-1021.0,-124.0
-5.0,-263.0,-51.0,-746.0,-34.0,51.0,-40.0,-1022.0,-127.0
-6.0,-266.0,-55.0,-732.0,-41.0,51.0,-43.0,-1031.0,-128.0
-1.0,-271.0,-63.0,-712.0,-49.0,55.0,-53.0,-1034.0,-133.0
-11.0,-266.0,-54.0,-699.0,-54.0,58.0,-58.0,-1037.0,-143.0
-8.0,-266.0,-56.0,-689.0,-61.0,61.0,-60.0,-1030.0,-146.0
-10.0,-267.0,-55.0,-683.0,-67.0,62.0,-67.0,-1030.0,-157.0
-11.0,-266.0,-58.0,-682.0,-73.0,64.0,-72.0,-1027.0,-163.0
-12.0,-260.0,-62.0,-687.0,-75.0,66.0,-73.0,-1018.0,-171.0
-12.0,-260.0,-62.0,-694.0,-79.0,69.0,-73.0,-1010.0,-182.0
-12.0,-256.0,-64.0,-700.0,-81.0,72.0,-74.0,-993.0,-184.0
-8.0,-255.0,-69.0,-703.0,-78.0,73.0,-68.0,-982.0,-186.0
-8.0,-249.0,-58.0,-704.0,-72.0,73.0,-58.0,-969.0,-185.0
-8.0,-249.0,-64.0,-699.0,-61.0,73.0,-60.0,-960.0,-183.0
-5.0,-248.0,-63.0,-689.0,-52.0,68.0,-49.0,-949.0,-184.0
-6.0,-245.0,-65.0,-677.0,-39.0,65.0,-44.0,-932.0,-186.0
0.0,-242.0,-66.0,-668.0,-25.0,65.0,-29.0,-924.0,-188.0
-3.0,-251.0,-66.0,-662.0,-11.0,65.0,-25.0,-918.0,-197.0
2.0,-234.0,-69.0,-657.0,4.0,63.0,-16.0,-924.0,-195.0
4.0,-238.0,-70.0,-652.0,21.0,62.0,-8.0,-915.0,-211.0
7.0,-237.0,-73.0,-648.0,39.0,58.0,-1.0,-917.0,-213.0
8.0,-242.0,-72.0,-646.0,61.0,51.0,2.0,-926.0,-223.0
10.0,-241.0,-76.0,-651.0,80.0,46.0,-1.0,-929.0,-231.0
8.0,-240.0,-78.0,-662.0,101.0,41.0,5.0,-926.0,-234.0
7.0,-242.0,-75.0,-677.0,120.0,34.0,-5.0,-926.0,-246.0
1.0,-239.0,-79.0,-695.0,137.0,30.0,-9.0,-929.0,-244.0
1.0,-240.0,-79.0,-713.0,151.0,24.0,-18.0,-932.0,-251.0
1.0,-241.0,-78.0,-733.0,165.0,21.0,-21.0,-928.0,-256.0
-3.0,-239.0,-80.0,-753.0,175.0,15.0,-24.0,-930.0,-251.0
-2.0,-240.0,-79.0,-768.0,181.0,13.0,-32.0,-922.0,-244.0
-4.0,-239.0,-77.0,-775.0,187.0,15.0,-38.0,-924.0,-246.0
-8.0,-241.0,-78.0,-778.0,186.0,22.0,-41.0,-921.0,-243.0
-10.0,-237.0,-75.0,-774.0,183.0,30.0,-53.0,-929.0,-236.0
-7.0,-241.0,-76.0,-766.0,175.0,40.0,-56.0,-927.0,-234.0
-12.0,-242.0,-77.0,-753.0,166.0,47.0,-60.0,-928.0,-233.0
-12.0,-243.0,-79.0,-739.0,155.0,57.0,-65.0,-933.0,-227.0
-11.0,-243.0,-73.0,-726.0,139.0,64.0,-72.0,-931.0,-229.0
-17.0,-244.0,-73.0,-712.0,123.0,72.0,-78.0,-934.0,-229.0
-13.0,-246.0,-73.0,-700.0,106.0,79.0,-90.0,-943.0,-229.0
-19.0,-244.0,-75.0,-692.0,86.0,88.0,-97.0,-944.0,-243.0
-17.0,-249.0,-79.0,-688.0,63.0,95.0,-110.0,-947.0,-243.0
-23.0,-248.0,-80.0,-691.0,43.0,102.0,-115.0,-952.0,-251.0
-24.0,-249.0,-83.0,-694.0,24.0,100.0,-121.0,-959.0,-257.0
-25.0,-247.0,-84.0,-701.0,7.0,103.0,-125.0,-951.0,-271.0
-27.0,-243.0,-92.0,-718.0,-9.0,98.0,-131.0,-942.0,-289.0
-30.0,-244.0,-91.0,-739.0,-22.0,101.0,-127.0,-935.0,-295.0
-29.0,-239.0,-94.0,-758.0,-34.0,93.0,-127.0,-940.0,-298.0
-26.0,-240.0,-96.0,-777.0,-41.0,86.0,-126.0,-931.0,-314.0
-23.0,-242.0,-97.0,-794.0,-43.0,75.0,-121.0,-924.0,-313.0
-19.0,-240.0,-99.0,-806.0,-41.0,63.0,-110.0,-925.0,-320.0
-19.0,-241.0,-98.0,-812.0,-31.0,48.0,-106.0,-919.0,-316.0
-16.0,-238.0,-95.0,-809.0,-22.0,41.0,-101.0,-916.0,-317.0
-16.0,-239.0,-97.0,-800.0,-11.0,30.0,-93.0,-916.0,-314.0
-10.0,-238.0,-97.0,-782.0,2.0,29.0,-78.0,-914.0,-321.0
-13.0,-240.0,-97.0,-760.0,17.0,25.0,-72.0,-920.0,-318.0
-9.0,-244.0,-99.0,-733.0,31.0,30.0,-71.0,-928.0,-324.0
-10.0,-245.0,-102.0,-704.0,46.0,29.0,-65.0,-935.0,-325.0
-10.0,-245.0,-102.0,-677.0,59.0,34.0,-59.0,-941.0,-340.0
-5.0,-246.0,-108.0,-653.0,75.0,36.0,-58.0,-945.0,-352.0
-4.0,-248.0,-107.0,-627.0,91.0,43.0,-50.0,-949.0,-365.0
-6.0,-247.0,-112.0,-610.0,103.0,41.0,-44.0,-950.0,-381.0
-6.0,-248.0,-116.0,-597.0,115.0,42.0,-49.0,-954.0,-390.0
-4.0,-250.0,-117.0,-588.0,123.0,33.0,-41.0,-953.0,-401.0
-4.0,-247.0,-121.0,-582.0,128.0,29.0,-38.0,-957.0,-412.0
-5.0,-247.0,-120.0,-578.0,132.0,17.0,-32.0,-954.0,-417.0
-3.0,-248.0,-123.0,-571.0,131.0,9.0,-32.0,-953.0,-426.0
-3.0,-243.0,-124.0,-568.0,129.0,-4.0,-30.0,-947.0,-427.0
-4.0,-242.0,-125.0,-560.0,125.0,-14.0,-38.0,-940.0,-430.0
-7.0,-242.0,-123.0,-556.0,121.0,-24.0,-40.0,-934.0,-431.0
-9.0,-239.0,-123.0,-546.0,114.0,-22.0,-50.0,-925.0,-421.0
-12.0,-233.0,-119.0,-535.0,105.0,-20.0,-62.0,-913.0,-415.0
-12.0,-233.0,-119.0,-524.0,98.0,-9.0,-66.0,-905.0,-409.0
-12.0,-230.0,-116.0,-513.0,92.0,-1.0,-71.0,-893.0,-405.0
-14.0,-228.0,-119.0,-508.0,84.0,16.0,-86.0,-894.0,-398.0
-19.0,-230.0,-117.0,-505.0,76.0,27.0,-101.0,-892.0,-397.0
-22.0,-227.0,-114.0,-501.0,62.0,50.0,-120.0,-873.0,-390.0
-28.0,-223.0,-112.0,-506.0,48.0,72.0,-129.0,-868.0,-387.0
-30.0,-220.0,-116.0,-512.0,33.0,115.0,-140.0,-859.0,-386.0
-31.0,-217.0,-115.0,-523.0,12.0,148.0,-151.0,-852.0,-384.0
-37.0,-213.0,-110.0,-537.0,-2.0,189.0,-166.0,-839.0,-377.0
-39.0,-210.0,-114.0,-561.0,-13.0,224.0,-176.0,-826.0,-382.0
-42.0,-206.0,-113.0,-593.0,-29.0,262.0,-186.0,-821.0,-385.0
-42.0,-206.0,-113.0,-629.0,-42.0,291.0,-194.0,-803.0,-386.0
-47.0,-203.0,-115.0,-661.0,-55.0,317.0,-201.0,-797.0,-379.0
-44.0,-202.0,-112.0,-689.0,-64.0,333.0,-199.0,-804.0,-387.0
-43.0,-203.0,-115.0,-713.0,-69.0,347.0,-189.0,-799.0,-384.0
-40.0,-205.0,-113.0,-729.0,-71.0,350.0,-177.0,-800.0,-389.0
-35.0,-203.0,-117.0,-744.0,-69.0,352.0,-164.0,-800.0,-394.0
-31.0,-207.0,-115.0,-752.0,-62.0,346.0,-151.0,-805.0,-391.0
-29.0,-207.0,-118.0,-756.0,-55.0,340.0,-139.0,-804.0,-397.0
-25.0,-208.0,-120.0,-759.0,-49.0,329.0,-121.0,-812.0,-404.0
-24.0,-212.0,-118.0,-758.0,-46.0,319.0,-110.0,-824.0,-410.0
-14.0,-218.0,-124.0,-754.0,-44.0,302.0,-103.0,-839.0,-413.0
-12.0,-218.0,-121.0,-747.0,-43.0,288.0,-88.0,-849.0,-435.0
-11.0,-221.0,-128.0,-740.0,-43.0,270.0,-74.0,-860.0,-445.0
-12.0,-226.0,-133.0,-731.0,-44.0,256.0,-78.0,-866.0,-456.0
-12.0,-226.0,-136.0,-720.0,-48.0,235.0,-78.0,-876.0,-470.0
-12.0,-225.0,-140.0,-710.0,-55.0,224.0,-72.0,-882.0,-491.0
-12.0,-228.0,-141.0,-703.0,-62.0,212.0,-83.0,-883.0,-499.0
-17.0,-229.0,-142.0,-698.0,-67.0,205.0,-93.0,-888.0,-506.0
-17.0,-229.0,-145.0,-692.0,-72.0,195.0,-98.0,-883.0,-516.0
-16.0,-228.0,-144.0,-685.0,-74.0,189.0,-100.0,-882.0,-523.0
-17.0,-226.0,-144.0,-677.0,-73.0,180.0,-108.0,-881.0,-522.0
-22.0,-224.0,-150.0,-668.0,-69.0,176.0,-111.0,-873.0,-523.0
-23.0,-224.0,-144.0,-659.0,-64.0,171.0,-119.0,-875.0,-524.0
-21.0,-218.0,-142.0,-648.0,-56.0,168.0,-122.0,-868.0,-519.0
-25.0,-214.0,-152.0,-636.0,-47.0,164.0,-124.0,-872.0,-515.0
-25.0,-227.0,-141.0,-626.0,-38.0,162.0,-128.0,-869.0,-514.0
-35.0,-228.0,-145.0,-616.0,-32.0,155.0,-127.0,-872.0,-517.0
-22.0,-225.0,-157.0,-606.0,-24.0,151.0,-131.0,-876.0,-517.0
-24.0,-227.0,-153.0,-597.0,-15.0,143.0,-129.0,-882.0,-511.0
-25.0,-224.0,-120.0,-587.0,-6.0,137.0,-129.0,-870.0,-528.0
-30.0,-224.0,-139.0,-581.0,1.0,125.0,-135.0,-878.0,-534.0
-27.0,-223.0,-152.0,-578.0,9.0,115.0,-140.0,-868.0,-541.0
-28.0,-222.0,-156.0,-579.0,17.0,100.0,-140.0,-866.0,-553.0
-29.0,-220.0,-157.0,-582.0,27.0,85.0,-139.0,-863.0,-568.0
-32.0,-221.0,-162.0,-589.0,35.0,70.0,-144.0,-852.0,-575.0
-31.0,-210.0,-157.0,-593.0,42.0,57.0,-149.0,-848.0,-591.0
-34.0,-214.0,-170.0,-599.0,49.0,45.0,-153.0,-834.0,-602.0
-35.0,-210.0,-167.0,-608.0,53.0,37.0,-156.0,-830.0,-603.0
-35.0,-207.0,-166.0,-616.0,55.0,28.0,-165.0,-821.0,-604.0
-38.0,-207.0,-169.0,-621.0,56.0,22.0,-172.0,-809.0,-603.0
-40.0,-203.0,-167.0,-623.0,58.0,19.0,-175.0,-800.0,-600.0
-40.0,-202.0,-164.0,-621.0,56.0,18.0,-182.0,-794.0,-586.0
-42.0,-203.0,-162.0,-614.0,53.0,17.0,-188.0,-794.0,-582.0
-43.0,-201.0,-159.0,-601.0,52.0,22.0,-194.0,-788.0,-576.0
-46.0,-200.0,-150.0,-588.0,51.0,28.0,-194.0,-784.0,-571.0
-42.0,-201.0,-164.0,-573.0,52.0,36.0,-194.0,-779.0,-566.0
-43.0,-197.0,-159.0,-559.0,53.0,41.0,-190.0,-769.0,-561.0
-42.0,-196.0,-157.0,-547.0,54.0,52.0,-188.0,-762.0,-567.0
-42.0,-193.0,-154.0,-540.0,57.0,61.0,-184.0,-761.0,-568.0
-41.0,-196.0,-157.0,-535.0,59.0,71.0,-183.0,-754.0,-567.0
-41.0,-194.0,-160.0,-532.0,61.0,82.0,-184.0,-751.0,-571.0
-41.0,-192.0,-158.0,-531.0,64.0,92.0,-175.0,-749.0,-573.0
-39.0,-192.0,-164.0,-531.0,67.0,107.0,-175.0,-745.0,-586.0
-36.0,-191.0,-163.0,-530.0,72.0,122.0,-166.0,-745.0,-594.0
-32.0,-192.0,-164.0,-527.0,76.0,141.0,-163.0,-739.0,-591.0
-33.0,-192.0,-165.0,-523.0,77.0,159.0,-150.0,-743.0,-605.0
-33.0,-193.0,-171.0,-520.0,80.0,179.0,-145.0,-745.0,-605.0
-32.0,-194.0,-169.0,-516.0,79.0,198.0,-140.0,-745.0,-618.0
-30.0,-195.0,-171.0,-514.0,79.0,217.0,-141.0,-755.0,-629.0
-28.0,-195.0,-173.0,-510.0,80.0,237.0,-139.0,-760.0,-633.0
-26.0,-197.0,-177.0,-506.0,82.0,257.0,-135.0,-761.0,-637.0
-28.0,-196.0,-174.0,-502.0,86.0,280.0,-138.0,-763.0,-635.0
-27.0,-195.0,-177.0,-495.0,91.0,301.0,-139.0,-756.0,-641.0
-31.0,-192.0,-179.0,-496.0,99.0,323.0,-141.0,-752.0,-643.0
-31.0,-188.0,-181.0,-500.0,109.0,347.0,-142.0,-738.0,-647.0
-31.0,-185.0,-176.0,-507.0,120.0,368.0,-142.0,-730.0,-648.0
-29.0,-186.0,-182.0,-515.0,132.0,390.0,-147.0,-714.0,-644.0
-31.0,-178.0,-180.0,-525.0,145.0,408.0,-150.0,-708.0,-645.0
-32.0,-178.0,-179.0,-532.0,157.0,420.0,-152.0,-700.0,-639.0
-32.0,-179.0,-175.0,-537.0,170.0,427.0,-152.0,-698.0,-644.0
-32.0,-178.0,-176.0,-538.0,180.0,429.0,-154.0,-703.0,-639.0
-35.0,-179.0,-176.0,-538.0,188.0,422.0,-161.0,-704.0,-637.0
-36.0,-180.0,-176.0,-539.0,194.0,416.0,-162.0,-705.0,-644.0
-36.0,-184.0,-180.0,-542.0,196.0,404.0,-170.0,-713.0,-647.0
-36.0,-183.0,-178.0,-545.0,195.0,390.0,-161.0,-712.0,-651.0
-38.0,-185.0,-181.0,-549.0,196.0,370.0,-163.0,-726.0,-657.0
-38.0,-189.0,-180.0,-551.0,193.0,349.0,-169.0,-736.0,-653.0
-36.0,-194.0,-181.0,-550.0,190.0,329.0,-167.0,-742.0,-658.0
-35.0,-192.0,-181.0,-550.0,186.0,306.0,-165.0,-743.0,-665.0
-34.0,-191.0,-187.0,-556.0,183.0,280.0,-161.0,-739.0,-682.0
-38.0,-186.0,-187.0,-567.0,180.0,248.0,-168.0,-725.0,-683.0
-37.0,-182.0,-187.0,-586.0,175.0,219.0,-170.0,-708.0,-683.0
-35.0,-179.0,-185.0,-600.0,173.0,193.0,-167.0,-694.0,-680.0
-37.0,-174.0,-182.0,-610.0,173.0,166.0,-167.0,-682.0,-679.0
-37.0,-171.0,-187.0,-617.0,173.0,140.0,-168.0,-670.0,-671.0
-41.0,-169.0,-185.0,-619.0,174.0,112.0,-175.0,-663.0,-666.0
-42.0,-168.0,-181.0,-615.0,178.0,88.0,-179.0,-660.0,-656.0
-45.0,-167.0,-177.0,-602.0,181.0,66.0,-184.0,-655.0,-652.0
-44.0,-168.0,-182.0,-585.0,185.0,50.0,-193.0,-658.0,-646.0
-46.0,-169.0,-180.0,-562.0,189.0,36.0,-196.0,-661.0,-647.0
-48.0,-169.0,-178.0,-533.0,188.0,32.0,-210.0,-665.0,-651.0
-52.0,-169.0,-181.0,-508.0,187.0,29.0,-215.0,-661.0,-649.0
-56.0,-169.0,-182.0,-485.0,180.0,36.0,-235.0,-658.0,-655.0
-56.0,-172.0,-184.0,-466.0,169.0,47.0,-242.0,-663.0,-670.0
-57.0,-171.0,-184.0,-450.0,153.0,63.0,-248.0,-663.0,-670.0
-61.0,-170.0,-184.0,-432.0,137.0,78.0,-253.0,-666.0,-682.0
-65.0,-169.0,-186.0,-421.0,115.0,102.0,-261.0,-660.0,-687.0
-65.0,-170.0,-189.0,-414.0,89.0,125.0,-261.0,-656.0,-696.0
-67.0,-163.0,-187.0,-409.0,62.0,154.0,-270.0,-651.0,-700.0
-69.0,-163.0,-192.0,-405.0,31.0,175.0,-277.0,-646.0,-707.0
-65.0,-161.0,-189.0,-402.0,5.0,203.0,-269.0,-640.0,-710.0
-63.0,-162.0,-191.0,-399.0,-18.0,220.0,-267.0,-635.0,-710.0
-61.0,-162.0,-189.0,-396.0,-37.0,239.0,-261.0,-635.0,-711.0
-63.0,-163.0,-189.0,-391.0,-57.0,251.0,-250.0,-632.0,-702.0
-63.0,-161.0,-187.0,-383.0,-79.0,264.0,-249.0,-633.0,-694.0
-58.0,-161.0,-187.0,-372.0,-96.0,267.0,-241.0,-627.0,-688.0
-55.0,-158.0,-187.0,-359.0,-113.0,270.0,-232.0,-627.0,-686.0
-55.0,-156.0,-185.0,-349.0,-131.0,267.0,-224.0,-611.0,-681.0
-55.0,-149.0,-183.0,-339.0,-149.0,265.0,-219.0,-592.0,-679.0
-47.0,-148.0,-183.0,-333.0,-164.0,257.0,-206.0,-581.0,-673.0
-52.0,-137.0,-184.0,-329.0,-181.0,257.0,-204.0,-559.0,-675.0
-49.0,-139.0,-183.0,-329.0,-199.0,252.0,-207.0,-537.0,-670.0
-49.0,-134.0,-184.0,-334.0,-224.0,246.0,-212.0,-527.0,-670.0
-47.0,-130.0,-184.0,-348.0,-259.0,222.0,-205.0,-513.0,-678.0
-44.0,-123.0,-184.0,-366.0,-284.0,206.0,-194.0,-497.0,-678.0
-48.0,-127.0,-188.0,-366.0,-296.0,217.0,-185.0,-503.0,-688.0
-43.0,-129.0,-189.0,-372.0,-314.0,220.0,-190.0,-504.0,-697.0
-43.0,-130.0,-192.0,-386.0,-334.0,227.0,-181.0,-503.0,-691.0
-44.0,-133.0,-194.0,-394.0,-343.0,254.0,-180.0,-521.0,-705.0
-41.0,-141.0,-192.0,-392.0,-351.0,258.0,-177.0,-554.0,-710.0
-44.0,-144.0,-194.0,-393.0,-364.0,253.0,-187.0,-579.0,-711.0
-42.0,-152.0,-191.0,-400.0,-381.0,237.0,-187.0,-591.0,-712.0
-47.0,-150.0,-194.0,-412.0,-400.0,215.0,-200.0,-601.0,-720.0
-50.0,-150.0,-197.0,-427.0,-416.0,189.0,-212.0,-599.0,-717.0
-52.0,-153.0,-191.0,-443.0,-433.0,173.0,-218.0,-598.0,-714.0
-58.0,-145.0,-196.0,-455.0,-442.0,156.0,-236.0,-590.0,-719.0
-60.0,-150.0,-195.0,-463.0,-452.0,145.0,-250.0,-576.0,-723.0
-62.0,-142.0,-202.0,-472.0,-458.0,130.0,-259.0,-561.0,-727.0
-65.0,-137.0,-201.0,-481.0,-461.0,129.0,-265.0,-549.0,-734.0
-62.0,-135.0,-201.0,-490.0,-454.0,121.0,-263.0,-533.0,-735.0
-62.0,-129.0,-199.0,-496.0,-435.0,117.0,-251.0,-513.0,-741.0
-69.0,-132.0,-201.0,-496.0,-417.0,112.0,-287.0,-511.0,-733.0
-77.0,-131.0,-199.0,-495.0,-409.0,125.0,-317.0,-512.0,-741.0
-79.0,-131.0,-206.0,-493.0,-411.0,139.0,-330.0,-524.0,-755.0
-77.0,-137.0,-205.0,-490.0,-413.0,157.0,-313.0,-544.0,-772.0
-73.0,-141.0,-210.0,-483.0,-411.0,163.0,-295.0,-556.0,-778.0
-71.0,-141.0,-212.0,-475.0,-408.0,168.0,-291.0,-561.0,-791.0
-65.0,-148.0,-214.0,-458.0,-402.0,165.0,-274.0,-579.0,-791.0
-66.0,-153.0,-211.0,-438.0,-395.0,163.0,-278.0,-590.0,-788.0
-61.0,-159.0,-216.0,-413.0,-385.0,156.0,-257.0,-620.0,-791.0
-60.0,-161.0,-210.0,-381.0,-374.0,147.0,-261.0,-623.0,-787.0
-54.0,-162.0,-210.0,-339.0,-357.0,134.0,-236.0,-635.0,-786.0
-53.0,-161.0,-207.0,-292.0,-327.0,115.0,-229.0,-633.0,-768.0
-59.0,-163.0,-202.0,-240.0,-294.0,96.0,-237.0,-639.0,-754.0
-60.0,-164.0,-202.0,-182.0,-272.0,89.0,-251.0,-628.0,-756.0
-59.0,-162.0,-202.0,-126.0,-251.0,81.0,-252.0,-628.0,-754.0
-63.0,-159.0,-201.0,-61.0,-234.0,73.0,-257.0,-624.0,-748.0
-66.0,-159.0,-200.0,-3.0,-226.0,64.0,-276.0,-625.0,-739.0
-68.0,-160.0,-201.0,53.0,-223.0,62.0,-279.0,-623.0,-734.0
-67.0,-158.0,-200.0,102.0,-225.0,58.0,-265.0,-630.0,-735.0
-63.0,-157.0,-199.0,148.0,-233.0,51.0,-272.0,-626.0,-735.0
-66.0,-158.0,-195.0,186.0,-242.0,40.0,-266.0,-623.0,-723.0
-65.0,-160.0,-195.0,219.0,-253.0,31.0,-268.0,-631.0,-721.0
-67.0,-155.0,-198.0,247.0,-272.0,18.0,-279.0,-624.0,-720.0
-68.0,-160.0,-195.0,264.0,-295.0,7.0,-282.0,-626.0,-717.0
-65.0,-157.0,-193.0,278.0,-325.0,-11.0,-275.0,-626.0,-713.0
-70.0,-157.0,-189.0,296.0,-354.0,-23.0,-284.0,-611.0,-707.0
-74.0,-154.0,-187.0,304.0,-390.0,-35.0,-294.0,-611.0,-698.0
-74.0,-153.0,-188.0,312.0,-430.0,-41.0,-292.0,-610.0,-691.0
-71.0,-158.0,-186.0,322.0,-473.0,-51.0,-290.0,-600.0,-700.0
-73.0,-153.0,-191.0,334.0,-510.0,-64.0,-297.0,-597.0,-691.0
-77.0,-152.0,-188.0,353.0,-539.0,-87.0,-311.0,-594.0,-692.0
-79.0,-150.0,-191.0,375.0,-563.0,-98.0,-319.0,-594.0,-693.0
-78.0,-152.0,-187.0,398.0,-584.0,-112.0,-332.0,-593.0,-694.0
-80.0,-154.0,-189.0,426.0,-598.0,-128.0,-336.0,-599.0,-703.0
-79.0,-157.0,-189.0,464.0,-604.0,-147.0,-333.0,-595.0,-694.0
-77.0,-156.0,-190.0,501.0,-602.0,-163.0,-335.0,-601.0,-699.0
-78.0,-156.0,-191.0,536.0,-592.0,-182.0,-334.0,-600.0,-705.0
-76.0,-156.0,-190.0,568.0,-570.0,-207.0,-322.0,-600.0,-706.0
-86.0,-157.0,-195.0,599.0,-550.0,-234.0,-343.0,-602.0,-706.0
-86.0,-157.0,-190.0,625.0,-542.0,-251.0,-351.0,-612.0,-707.0
-82.0,-158.0,-192.0,651.0,-538.0,-273.0,-342.0,-619.0,-717.0
-78.0,-155.0,-192.0,675.0,-531.0,-298.0,-333.0,-621.0,-711.0
-79.0,-157.0,-189.0,703.0,-524.0,-328.0,-339.0,-605.0,-711.0
-85.0,-155.0,-194.0,727.0,-523.0,-355.0,-357.0,-609.0,-712.0
-84.0,-158.0,-191.0,750.0,-531.0,-373.0,-355.0,-619.0,-711.0
-89.0,-160.0,-190.0,770.0,-544.0,-393.0,-359.0,-619.0,-709.0
-85.0,-159.0,-187.0,792.0,-557.0,-419.0,-360.0,-616.0,-705.0
-88.0,-158.0,-188.0,817.0,-568.0,-440.0,-361.0,-614.0,-696.0
-90.0,-155.0,-188.0,846.0,-578.0,-460.0,-369.0,-609.0,-688.0
-90.0,-154.0,-184.0,878.0,-581.0,-472.0,-372.0,-599.0,-683.0
-87.0,-154.0,-185.0,913.0,-585.0,-487.0,-370.0,-599.0,-675.0
-89.0,-151.0,-181.0,949.0,-581.0,-500.0,-365.0,-595.0,-655.0
-93.0,-149.0,-180.0,979.0,-577.0,-512.0,-393.0,-585.0,-652.0
-106.0,-148.0,-177.0,1005.0,-576.0,-538.0,-410.0,-580.0,-634.0
-109.0,-150.0,-180.0,1026.0,-585.0,-556.0,-437.0,-585.0,-640.0
-110.0,-148.0,-176.0,1048.0,-609.0,-548.0,-439.0,-582.0,-645.0
-107.0,-149.0,-169.0,1064.0,-638.0,-533.0,-442.0,-581.0,-634.0
-114.0,-145.0,-175.0,1081.0,-665.0,-528.0,-442.0,-578.0,-635.0
-112.0,-144.0,-172.0,1091.0,-693.0,-530.0,-447.0,-574.0,-624.0
-113.0,-148.0,-169.0,1101.0,-721.0,-528.0,-456.0,-571.0,-605.0
-109.0,-146.0,-165.0,1121.0,-751.0,-519.0,-441.0,-564.0,-601.0
-112.0,-144.0,-168.0,1152.0,-785.0,-500.0,-447.0,-565.0,-589.0
-111.0,-143.0,-162.0,1183.0,-842.0,-481.0,-447.0,-557.0,-588.0
-114.0,-143.0,-167.0,1213.0,-895.0,-472.0,-449.0,-553.0,-585.0
-112.0,-142.0,-162.0,1231.0,-947.0,-463.0,-448.0,-547.0,-579.0
-110.0,-139.0,-161.0,1246.0,-1002.0,-458.0,-441.0,-546.0,-569.0
-111.0,-140.0,-155.0,1254.0,-1055.0,-453.0,-446.0,-535.0,-565.0
-117.0,-139.0,-155.0,1257.0,-1106.0,-445.0,-463.0,-535.0,-564.0
-114.0,-141.0,-155.0,1259.0,-1161.0,-434.0,-462.0,-541.0,-551.0
-113.0,-141.0,-154.0,1265.0,-1216.0,-423.0,-457.0,-546.0,-549.0
-113.0,-139.0,-155.0,1272.0,-1271.0,-415.0,-455.0,-550.0,-538.0
-111.0,-141.0,-153.0,1275.0,-1322.0,-410.0,-463.0,-542.0,-534.0
-112.0,-142.0,-146.0,1278.0,-1382.0,-402.0,-452.0,-541.0,-526.0
-115.0,-138.0,-145.0,1281.0,-1431.0,-401.0,-451.0,-543.0,-525.0
-115.0,-141.0,-145.0,1282.0,-1480.0,-399.0,-450.0,-540.0,-517.0
-112.0,-139.0,-142.0,1283.0,-1532.0,-400.0,-452.0,-540.0,-505.0
-115.0,-137.0,-143.0,1286.0,-1586.0,-399.0,-456.0,-535.0,-508.0
-116.0,-134.0,-140.0,1289.0,-1641.0,-399.0,-458.0,-533.0,-500.0
-116.0,-135.0,-136.0,1289.0,-1697.0,-398.0,-460.0,-530.0,-500.0
-116.0,-135.0,-142.0,1285.0,-1752.0,-398.0,-466.0,-524.0,-499.0
-116.0,-132.0,-140.0,1281.0,-1809.0,-398.0,-461.0,-521.0,-495.0
-114.0,-135.0,-139.0,1275.0,-1877.0,-401.0,-463.0,-517.0,-492.0
-113.0,-134.0,-140.0,1269.0,-1933.0,-404.0,-451.0,-519.0,-485.0
-111.0,-133.0,-139.0,1265.0,-1989.0,-415.0,-455.0,-513.0,-487.0
-111.0,-131.0,-142.0,1253.0,-2044.0,-424.0,-445.0,-511.0,-489.0
-110.0,-131.0,-138.0,1237.0,-2095.0,-439.0,-441.0,-505.0,-487.0
-109.0,-129.0,-143.0,1219.0,-2145.0,-451.0,-435.0,-496.0,-493.0
-105.0,-126.0,-138.0,1195.0,-2190.0,-470.0,-426.0,-492.0,-494.0
-104.0,-122.0,-143.0,1171.0,-2233.0,-492.0,-408.0,-490.0,-496.0
-100.0,-121.0,-141.0,1146.0,-2272.0,-520.0,-397.0,-478.0,-490.0
-92.0,-118.0,-138.0,1123.0,-2313.0,-560.0,-379.0,-464.0,-488.0
-91.0,-115.0,-139.0,1092.0,-2340.0,-598.0,-361.0,-453.0,-483.0
-86.0,-113.0,-136.0,1069.0,-2361.0,-640.0,-348.0,-440.0,-468.0
-80.0,-112.0,-128.0,1050.0,-2371.0,-693.0,-326.0,-433.0,-460.0
-77.0,-109.0,-130.0,1038.0,-2372.0,-745.0,-301.0,-429.0,-446.0
-69.0,-113.0,-120.0,1032.0,-2364.0,-808.0,-276.0,-426.0,-427.0
-63.0,-110.0,-116.0,1034.0,-2348.0,-881.0,-260.0,-421.0,-403.0
-56.0,-111.0,-111.0,1049.0,-2322.0,-967.0,-242.0,-423.0,-374.0
-49.0,-110.0,-103.0,1079.0,-2291.0,-1052.0,-222.0,-420.0,-339.0
-47.0,-110.0,-99.0,1125.0,-2257.0,-1163.0,-208.0,-412.0,-317.0
-45.0,-107.0,-90.0,1192.0,-2211.0,-1247.0,-188.0,-404.0,-287.0
-36.0,-108.0,-81.0,1262.0,-2173.0,-1330.0,-168.0,-392.0,-251.0
-33.0,-103.0,-73.0,1343.0,-2138.0,-1414.0,-148.0,-384.0,-216.0
-32.0,-100.0,-62.0,1434.0,-2104.0,-1496.0,-139.0,-373.0,-186.0
-27.0,-104.0,-56.0,1527.0,-2075.0,-1578.0,-129.0,-381.0,-155.0
-25.0,-103.0,-58.0,1632.0,-2056.0,-1678.0,-122.0,-369.0,-140.0
-27.0,-99.0,-50.0,1738.0,-2037.0,-1775.0,-118.0,-358.0,-122.0
-25.0,-101.0,-44.0,1842.0,-2016.0,-1865.0,-114.0,-360.0,-87.0
-28.0,-91.0,-38.0,1954.0,-1993.0,-1948.0,-120.0,-348.0,-80.0
-29.0,-91.0,-34.0,2053.0,-1965.0,-2037.0,-121.0,-346.0,-48.0
-25.0,-88.0,-25.0,2159.0,-1948.0,-2111.0,-123.0,-340.0,-27.0
-31.0,-80.0,-22.0,2234.0,-1925.0,-2180.0,-126.0,-315.0,-13.0
-29.0,-80.0,-18.0,2298.0,-1904.0,-2228.0,-123.0,-312.0,21.0
-28.0,-83.0,-6.0,2357.0,-1894.0,-2281.0,-122.0,-307.0,50.0
-32.0,-78.0,-8.0,2428.0,-1893.0,-2343.0,-131.0,-290.0,59.0
-32.0,-72.0,-6.0,2481.0,-1907.0,-2404.0,-131.0,-277.0,53.0
-32.0,-65.0,-7.0,2512.0,-1928.0,-2441.0,-128.0,-236.0,45.0
-30.0,-59.0,-8.0,2518.0,-1966.0,-2467.0,-112.0,-229.0,35.0
-18.0,-61.0,-9.0,2500.0,-2021.0,-2492.0,-63.0,-228.0,26.0
-29.0,-48.0,-20.0,2470.0,-2095.0,-2524.0,-94.0,-194.0,6.0
-17.0,-53.0,-26.0,2449.0,-2172.0,-2515.0,-67.0,-200.0,-14.0
-13.0,-57.0,-27.0,2432.0,-2261.0,-2485.0,-42.0,-227.0,-25.0
-12.0,-63.0,-27.0,2435.0,-2361.0,-2436.0,-41.0,-243.0,-28.0
13.0,-83.0,-18.0,2466.0,-2461.0,-2372.0,30.0,-316.0,5.0
19.0,-92.0,-9.0,2568.0,-2474.0,-2370.0,85.0,-331.0,34.0
-28.0,-86.0,2.0,2703.0,-2435.0,-2388.0,-64.0,-346.0,91.0
-8.0,-99.0,16.0,2830.0,-2458.0,-2272.0,-62.0,-374.0,127.0
-9.0,-111.0,19.0,2944.0,-2484.0,-2135.0,-24.0,-411.0,163.0
0.0,-123.0,36.0,3036.0,-2488.0,-1973.0,-17.0,-463.0,236.0
33.0,-137.0,51.0,3081.0,-2449.0,-1844.0,126.0,-563.0,297.0
39.0,-158.0,73.0,3124.0,-2316.0,-1748.0,104.0,-622.0,377.0
52.0,-172.0,92.0,3167.0,-2153.0,-1657.0,170.0,-670.0,449.0
61.0,-186.0,113.0,3185.0,-2015.0,-1601.0,206.0,-715.0,541.0
64.0,-205.0,149.0,3190.0,-1921.0,-1595.0,226.0,-778.0,667.0
64.0,-239.0,197.0,3200.0,-1881.0,-1614.0,231.0,-875.0,835.0
78.0,-300.0,251.0,3230.0,-1885.0,-1666.0,273.0,-1093.0,1045.0
64.0,-336.0,288.0,3291.0,-1915.0,-1734.0,234.0,-1310.0,1253.0
75.0,-437.0,326.0,3305.0,-1951.0,-1768.0,266.0,-1694.0,1405.0
129.0,-582.0,430.0,3088.0,-1929.0,-1769.0,442.0,-2230.0,1781.0
162.0,-753.0,514.0,2830.0,-1801.0,-1800.0,502.0,-2821.0,2078.0
157.0,-953.0,584.0,2430.0,-1560.0,-1809.0,530.0,-3582.0,2351.0
276.0,-1230.0,624.0,1821.0,-1252.0,-1728.0,760.0,-4540.0,2571.0
365.0,-1444.0,504.0,987.0,-713.0,-1599.0,1182.0,-5704.0,2187.0
335.0,-1570.0,421.0,-153.0,-9.0,-1450.0,1234.0,-6345.0,1712.0
387.0,-1689.0,339.0,-1305.0,441.0,-1206.0,1353.0,-6515.0,1399.0
275.0,-1562.0,291.0,-1859.0,556.0,-1106.0,1026.0,-5814.0,1252.0
148.0,-1343.0,280.0,-1378.0,506.0,-1221.0,487.0,-4862.0,1196.0
149.0,-1097.0,207.0,372.0,339.0,-1463.0,468.0,-4021.0,931.0
111.0,-847.0,115.0,2084.0,302.0,-1985.0,389.0,-3143.0,570.0
118.0,-647.0,33.0,3426.0,295.0,-2523.0,406.0,-2491.0,271.0
169.0,-525.0,-8.0,4170.0,263.0,-2923.0,631.0,-2091.0,71.0
173.0,-442.0,-12.0,4343.0,109.0,-3339.0,696.0,-1755.0,39.0
155.0,-333.0,15.0,4151.0,-184.0,-3686.0,639.0,-1390.0,134.0
126.0,-194.0,56.0,3770.0,-554.0,-3870.0,531.0,-904.0,272.0
124.0,-54.0,87.0,3284.0,-908.0,-3801.0,494.0,-404.0,448.0
126.0,60.0,135.0,2754.0,-1198.0,-3485.0,514.0,166.0,611.0
115.0,160.0,184.0,2164.0,-1461.0,-3159.0,463.0,527.0,790.0
87.0,228.0,211.0,1789.0,-1593.0,-2825.0,364.0,768.0,907.0
86.0,252.0,217.0,1513.0,-1664.0,-2496.0,340.0,948.0,946.0
69.0,269.0,218.0,1284.0,-1670.0,-2253.0,270.0,1008.0,956.0
39.0,257.0,214.0,1063.0,-1642.0,-2120.0,152.0,964.0,951.0
-3.0,232.0,207.0,821.0,-1649.0,-2091.0,15.0,847.0,889.0
-34.0,182.0,181.0,537.0,-1718.0,-2105.0,-101.0,678.0,816.0
-62.0,129.0,163.0,208.0,-1827.0,-2133.0,-203.0,487.0,715.0
-74.0,57.0,142.0,-140.0,-1954.0,-2151.0,-255.0,240.0,642.0
-76.0,-3.0,120.0,-442.0,-2092.0,-2163.0,-296.0,-35.0,557.0
-87.0,-75.0,89.0,-728.0,-2191.0,-2138.0,-357.0,-306.0,445.0
-71.0,-128.0,58.0,-934.0,-2280.0,-2099.0,-336.0,-510.0,274.0
-57.0,-182.0,32.0,-1075.0,-2325.0,-2055.0,-243.0,-715.0,203.0
-26.0,-231.0,26.0,-1099.0,-2331.0,-1982.0,-123.0,-863.0,156.0
22.0,-269.0,8.0,-980.0,-2307.0,-1927.0,53.0,-990.0,110.0
52.0,-291.0,-5.0,-720.0,-2219.0,-1932.0,142.0,-1079.0,59.0
84.0,-308.0,-3.0,-392.0,-2075.0,-1931.0,242.0,-1128.0,47.0
106.0,-309.0,-3.0,-37.0,-1894.0,-1933.0,347.0,-1138.0,94.0
123.0,-298.0,20.0,318.0,-1699.0,-1945.0,415.0,-1125.0,163.0
134.0,-277.0,46.0,699.0,-1487.0,-1970.0,467.0,-1052.0,242.0
140.0,-245.0,66.0,955.0,-1349.0,-1991.0,495.0,-935.0,325.0
142.0,-207.0,85.0,1123.0,-1251.0,-2024.0,528.0,-823.0,404.0
144.0,-169.0,104.0,1218.0,-1193.0,-2062.0,529.0,-689.0,463.0
146.0,-129.0,115.0,1260.0,-1170.0,-2086.0,531.0,-535.0,525.0
139.0,-89.0,126.0,1254.0,-1166.0,-2093.0,518.0,-332.0,578.0
124.0,-48.0,140.0,1209.0,-1192.0,-2080.0,472.0,-171.0,639.0
110.0,-6.0,156.0,1146.0,-1244.0,-2044.0,417.0,-31.0,689.0
115.0,21.0,153.0,1098.0,-1319.0,-1980.0,456.0,79.0,707.0
124.0,44.0,149.0,1055.0,-1370.0,-1967.0,473.0,157.0,682.0
103.0,64.0,152.0,1029.0,-1365.0,-1967.0,386.0,227.0,687.0
97.0,59.0,151.0,1010.0,-1380.0,-1912.0,321.0,240.0,697.0
126.0,47.0,136.0,1004.0,-1384.0,-1872.0,474.0,181.0,624.0
110.0,41.0,127.0,1031.0,-1267.0,-1925.0,384.0,158.0,591.0
87.0,29.0,126.0,1090.0,-1126.0,-1957.0,323.0,118.0,567.0
89.0,9.0,108.0,1175.0,-998.0,-1955.0,313.0,62.0,511.0
94.0,-4.0,100.0,1257.0,-862.0,-1932.0,334.0,-14.0,487.0
97.0,-24.0,101.0,1341.0,-698.0,-1904.0,331.0,-87.0,477.0
101.0,-39.0,100.0,1414.0,-503.0,-1856.0,345.0,-152.0,478.0
101.0,-51.0,111.0,1483.0,-359.0,-1817.0,357.0,-185.0,514.0
87.0,-55.0,122.0,1536.0,-259.0,-1759.0,318.0,-206.0,559.0
109.0,-59.0,125.0,1594.0,-226.0,-1673.0,400.0,-222.0,578.0
133.0,-61.0,129.0,1641.0,-217.0,-1604.0,515.0,-220.0,581.0
169.0,-55.0,127.0,1653.0,-212.0,-1563.0,614.0,-219.0,579.0
187.0,-55.0,131.0,1654.0,-196.0,-1497.0,706.0,-218.0,588.0
219.0,-61.0,137.0,1664.0,-207.0,-1401.0,857.0,-241.0,596.0
223.0,-71.0,131.0,1699.0,-249.0,-1354.0,865.0,-269.0,598.0
242.0,-71.0,125.0,1745.0,-378.0,-1355.0,920.0,-269.0,557.0
229.0,-64.0,112.0,1775.0,-508.0,-1317.0,864.0,-250.0,561.0
292.0,-87.0,121.0,1822.0,-639.0,-1260.0,1107.0,-319.0,567.0
299.0,-82.0,115.0,1898.0,-732.0,-1387.0,1144.0,-319.0,541.0
275.0,-71.0,104.0,1963.0,-774.0,-1555.0,1079.0,-284.0,511.0
246.0,-67.0,101.0,2033.0,-807.0,-1697.0,959.0,-240.0,481.0
235.0,-40.0,108.0,2105.0,-845.0,-1846.0,894.0,-160.0,504.0
217.0,-8.0,115.0,2165.0,-828.0,-1997.0,822.0,-52.0,537.0
206.0,17.0,123.0,2194.0,-756.0,-2112.0,786.0,76.0,571.0
219.0,58.0,129.0,2193.0,-690.0,-2207.0,837.0,217.0,584.0
296.0,90.0,116.0,2146.0,-532.0,-2347.0,1108.0,305.0,550.0
320.0,134.0,95.0,2050.0,-349.0,-2588.0,1227.0,459.0,480.0
324.0,175.0,81.0,1906.0,-214.0,-2797.0,1307.0,590.0,380.0
317.0,211.0,51.0,1725.0,-195.0,-2840.0,1285.0,737.0,289.0
390.0,228.0,19.0,1567.0,-369.0,-2655.0,1466.0,815.0,187.0
446.0,233.0,-1.0,1460.0,-634.0,-2403.0,1778.0,831.0,78.0
506.0,223.0,-32.0,1358.0,-848.0,-2177.0,1973.0,789.0,-34.0
527.0,206.0,-43.0,1228.0,-898.0,-1949.0,2054.0,686.0,-98.0
560.0,171.0,-73.0,1052.0,-805.0,-1659.0,2150.0,569.0,-180.0
589.0,139.0,-57.0,832.0,-518.0,-1296.0,2260.0,451.0,-150.0
622.0,93.0,-55.0,636.0,-184.0,-1028.0,2355.0,310.0,-124.0
633.0,83.0,-30.0,629.0,233.0,-774.0,2419.0,263.0,-44.0
635.0,55.0,5.0,678.0,634.0,-414.0,2417.0,173.0,77.0
628.0,60.0,7.0,733.0,974.0,-20.0,2412.0,164.0,105.0
603.0,46.0,2.0,681.0,1225.0,324.0,2315.0,91.0,111.0
576.0,38.0,7.0,532.0,1430.0,610.0,2232.0,68.0,119.0
539.0,51.0,6.0,284.0,1596.0,801.0,2109.0,95.0,121.0
516.0,84.0,18.0,-74.0,1702.0,940.0,2003.0,198.0,132.0
488.0,120.0,36.0,-542.0,1749.0,1052.0,1888.0,323.0,185.0
492.0,95.0,60.0,-1160.0,1804.0,1102.0,1888.0,320.0,288.0
502.0,89.0,69.0,-1513.0,1967.0,1064.0,1923.0,306.0,371.0
490.0,72.0,87.0,-1642.0,2225.0,938.0,1860.0,262.0,453.0
438.0,65.0,83.0,-1581.0,2516.0,671.0,1662.0,269.0,419.0
389.0,59.0,77.0,-1464.0,2713.0,358.0,1506.0,245.0,386.0
335.0,36.0,51.0,-1291.0,2843.0,52.0,1293.0,158.0,295.0
252.0,33.0,17.0,-1084.0,2972.0,-279.0,979.0,135.0,178.0
203.0,32.0,-1.0,-901.0,3117.0,-586.0,769.0,141.0,95.0
169.0,21.0,-8.0,-739.0,3281.0,-820.0,661.0,98.0,70.0
128.0,27.0,-14.0,-539.0,3495.0,-961.0,470.0,123.0,37.0
75.0,40.0,-13.0,-425.0,3587.0,-988.0,299.0,150.0,25.0
41.0,45.0,-9.0,-372.0,3588.0,-975.0,164.0,176.0,34.0
16.0,70.0,2.0,-360.0,3526.0,-954.0,64.0,280.0,69.0
-10.0,76.0,0.0,-354.0,3453.0,-927.0,6.0,276.0,80.0
-60.0,93.0,14.0,-328.0,3353.0,-885.0,-131.0,364.0,132.0
-58.0,109.0,29.0,-273.0,3197.0,-763.0,-227.0,419.0,178.0
-57.0,119.0,43.0,-197.0,3021.0,-579.0,-155.0,457.0,241.0
-31.0,125.0,57.0,-110.0,2865.0,-404.0,-90.0,489.0,277.0
-30.0,132.0,64.0,-41.0,2693.0,-226.0,-96.0,512.0,311.0
-12.0,131.0,73.0,20.0,2547.0,-90.0,-42.0,511.0,359.0
0.0,137.0,93.0,79.0,2413.0,14.0,20.0,529.0,417.0
53.0,139.0,101.0,171.0,2279.0,101.0,192.0,533.0,469.0
89.0,155.0,102.0,261.0,2201.0,139.0,322.0,579.0,473.0
83.0,153.0,105.0,281.0,2173.0,114.0,310.0,586.0,486.0
106.0,145.0,115.0,280.0,2141.0,103.0,401.0,548.0,534.0
111.0,136.0,118.0,297.0,2107.0,82.0,410.0,511.0,537.0
135.0,142.0,127.0,320.0,2085.0,44.0,516.0,539.0,567.0
134.0,130.0,121.0,320.0,2063.0,-17.0,490.0,492.0,567.0
144.0,130.0,129.0,287.0,2039.0,-60.0,559.0,478.0,587.0
138.0,122.0,123.0,265.0,2027.0,-113.0,533.0,442.0,569.0
144.0,107.0,126.0,221.0,1983.0,-140.0,559.0,398.0,563.0
143.0,103.0,128.0,166.0,1939.0,-169.0,554.0,378.0,600.0
151.0,92.0,142.0,138.0,1909.0,-192.0,577.0,343.0,643.0
155.0,83.0,153.0,112.0,1876.0,-220.0,591.0,314.0,683.0
144.0,80.0,170.0,80.0,1842.0,-232.0,565.0,304.0,732.0
135.0,79.0,184.0,49.0,1796.0,-238.0,527.0,300.0,803.0
126.0,76.0,202.0,35.0,1748.0,-236.0,492.0,301.0,872.0
118.0,78.0,225.0,42.0,1687.0,-233.0,459.0,299.0,948.0
112.0,76.0,240.0,50.0,1630.0,-220.0,440.0,300.0,1025.0
106.0,78.0,257.0,62.0,1563.0,-213.0,415.0,307.0,1078.0
105.0,79.0,270.0,80.0,1489.0,-205.0,406.0,302.0,1151.0
104.0,76.0,276.0,105.0,1408.0,-205.0,401.0,307.0,1196.0
104.0,73.0,293.0,139.0,1323.0,-204.0,398.0,303.0,1234.0
108.0,73.0,301.0,181.0,1242.0,-213.0,405.0,307.0,1273.0
108.0,73.0,311.0,224.0,1171.0,-216.0,411.0,303.0,1301.0
109.0,72.0,312.0,267.0,1118.0,-224.0,412.0,294.0,1314.0
109.0,70.0,309.0,309.0,1071.0,-223.0,412.0,281.0,1325.0
107.0,65.0,313.0,361.0,1040.0,-218.0,403.0,269.0,1316.0
105.0,64.0,304.0,394.0,998.0,-208.0,403.0,247.0,1281.0
102.0,59.0,294.0,412.0,948.0,-208.0,386.0,229.0,1261.0
97.0,55.0,283.0,429.0,895.0,-190.0,365.0,223.0,1215.0
93.0,54.0,274.0,443.0,845.0,-166.0,354.0,209.0,1180.0
86.0,52.0,260.0,449.0,794.0,-134.0,335.0,212.0,1127.0
83.0,50.0,252.0,446.0,747.0,-104.0,322.0,198.0,1061.0
76.0,56.0,243.0,430.0,706.0,-73.0,294.0,202.0,1023.0
73.0,51.0,226.0,402.0,665.0,-44.0,271.0,195.0,978.0
65.0,56.0,211.0,354.0,643.0,-24.0,245.0,204.0,933.0
54.0,58.0,207.0,305.0,636.0,-4.0,211.0,216.0,897.0
49.0,57.0,201.0,257.0,634.0,18.0,183.0,212.0,866.0
43.0,51.0,193.0,211.0,643.0,30.0,164.0,206.0,842.0
39.0,50.0,191.0,169.0,654.0,39.0,135.0,200.0,827.0
24.0,56.0,187.0,137.0,671.0,38.0,101.0,208.0,814.0
19.0,53.0,186.0,104.0,680.0,47.0,67.0,207.0,817.0
13.0,55.0,190.0,67.0,672.0,57.0,45.0,219.0,828.0
11.0,58.0,199.0,36.0,655.0,69.0,42.0,218.0,839.0
10.0,53.0,197.0,5.0,621.0,70.0,47.0,207.0,857.0
12.0,50.0,208.0,-22.0,583.0,71.0,45.0,190.0,883.0
11.0,43.0,213.0,-52.0,542.0,64.0,48.0,167.0,910.0
10.0,39.0,217.0,-82.0,497.0,53.0,45.0,151.0,937.0
14.0,32.0,224.0,-111.0,449.0,34.0,47.0,131.0,962.0
21.0,19.0,234.0,-132.0,406.0,18.0,43.0,117.0,984.0
16.0,22.0,236.0,-139.0,376.0,3.0,55.0,97.0,1000.0
18.0,18.0,236.0,-145.0,352.0,-12.0,53.0,87.0,1019.0
20.0,14.0,239.0,-150.0,339.0,-31.0,66.0,72.0,1022.0
20.0,11.0,240.0,-148.0,334.0,-50.0,76.0,57.0,1033.0
29.0,5.0,242.0,-140.0,343.0,-67.0,96.0,41.0,1036.0
31.0,1.0,241.0,-121.0,362.0,-86.0,103.0,19.0,1030.0
30.0,-1.0,241.0,-101.0,387.0,-107.0,111.0,13.0,1030.0
33.0,-1.0,239.0,-81.0,404.0,-122.0,112.0,14.0,1033.0
31.0,1.0,241.0,-59.0,410.0,-134.0,120.0,16.0,1030.0
35.0,-1.0,238.0,-36.0,405.0,-139.0,126.0,13.0,1027.0
35.0,2.0,238.0,-13.0,388.0,-144.0,128.0,14.0,1027.0
35.0,2.0,237.0,8.0,364.0,-145.0,133.0,16.0,1025.0
35.0,2.0,239.0,27.0,323.0,-146.0,134.0,20.0,1024.0
35.0,7.0,238.0,44.0,284.0,-144.0,137.0,25.0,1023.0
36.0,7.0,235.0,50.0,240.0,-141.0,139.0,29.0,1018.0
38.0,9.0,238.0,50.0,196.0,-132.0,139.0,35.0,1019.0
39.0,10.0,238.0,46.0,149.0,-125.0,147.0,52.0,1020.0
41.0,13.0,239.0,41.0,101.0,-116.0,157.0,58.0,1027.0
42.0,19.0,238.0,32.0,58.0,-110.0,153.0,70.0,1024.0
46.0,20.0,241.0,22.0,18.0,-101.0,163.0,84.0,1026.0
49.0,21.0,243.0,12.0,-13.0,-99.0,176.0,91.0,1023.0
53.0,27.0,242.0,-1.0,-40.0,-97.0,202.0,108.0,1027.0
52.0,27.0,236.0,-13.0,-52.0,-101.0,197.0,107.0,1030.0
54.0,26.0,240.0,-20.0,-53.0,-102.0,212.0,116.0,1034.0
61.0,27.0,243.0,-31.0,-50.0,-106.0,222.0,125.0,1036.0
59.0,33.0,245.0,-40.0,-43.0,-110.0,232.0,131.0,1040.0
62.0,34.0,239.0,-48.0,-33.0,-115.0,246.0,125.0,1042.0
68.0,34.0,245.0,-51.0,-19.0,-119.0,262.0,128.0,1040.0
74.0,31.0,244.0,-53.0,-13.0,-121.0,274.0,129.0,1042.0
77.0,33.0,240.0,-54.0,-9.0,-123.0,284.0,137.0,1040.0
78.0,33.0,243.0,-57.0,-7.0,-123.0,294.0,131.0,1034.0
82.0,29.0,242.0,-62.0,-7.0,-120.0,301.0,128.0,1026.0
82.0,33.0,234.0,-63.0,-14.0,-112.0,306.0,134.0,1017.0
84.0,30.0,236.0,-66.0,-25.0,-99.0,315.0,133.0,1017.0
82.0,33.0,235.0,-67.0,-43.0,-88.0,319.0,133.0,998.0
84.0,34.0,227.0,-69.0,-63.0,-74.0,322.0,134.0,985.0
84.0,36.0,230.0,-69.0,-88.0,-60.0,319.0,143.0,974.0
83.0,39.0,228.0,-66.0,-111.0,-46.0,314.0,152.0,968.0
83.0,39.0,223.0,-57.0,-133.0,-33.0,312.0,162.0,959.0
83.0,42.0,220.0,-46.0,-151.0,-19.0,317.0,174.0,941.0
85.0,45.0,213.0,-38.0,-161.0,-5.0,317.0,184.0,935.0
86.0,52.0,213.0,-36.0,-161.0,2.0,317.0,199.0,927.0
87.0,52.0,211.0,-38.0,-157.0,11.0,324.0,209.0,911.0
89.0,59.0,210.0,-46.0,-152.0,14.0,325.0,220.0,911.0
86.0,61.0,209.0,-57.0,-142.0,18.0,321.0,231.0,907.0
87.0,61.0,209.0,-70.0,-134.0,22.0,324.0,231.0,908.0
86.0,59.0,211.0,-83.0,-128.0,28.0,322.0,242.0,905.0
85.0,60.0,209.0,-89.0,-125.0,37.0,322.0,241.0,901.0
85.0,60.0,207.0,-92.0,-127.0,45.0,323.0,234.0,904.0
88.0,60.0,211.0,-95.0,-133.0,56.0,327.0,241.0,916.0
84.0,59.0,208.0,-96.0,-141.0,66.0,324.0,233.0,914.0
86.0,60.0,212.0,-89.0,-150.0,73.0,326.0,235.0,919.0
86.0,59.0,216.0,-84.0,-160.0,83.0,320.0,231.0,929.0
84.0,59.0,213.0,-71.0,-169.0,89.0,320.0,228.0,934.0
88.0,55.0,218.0,-57.0,-178.0,98.0,318.0,225.0,940.0
84.0,54.0,220.0,-44.0,-184.0,105.0,321.0,218.0,947.0
85.0,53.0,220.0,-30.0,-189.0,111.0,318.0,218.0,954.0
85.0,55.0,222.0,-17.0,-187.0,115.0,317.0,212.0,957.0
85.0,55.0,225.0,-6.0,-183.0,120.0,330.0,211.0,967.0
89.0,51.0,227.0,5.0,-175.0,120.0,328.0,202.0,972.0
90.0,52.0,228.0,13.0,-163.0,123.0,332.0,196.0,978.0
89.0,52.0,224.0,25.0,-145.0,125.0,329.0,195.0,981.0
90.0,46.0,231.0,29.0,-132.0,127.0,337.0,182.0,986.0
92.0,49.0,230.0,28.0,-119.0,125.0,344.0,180.0,988.0
93.0,43.0,227.0,30.0,-109.0,123.0,344.0,178.0,988.0
91.0,43.0,229.0,34.0,-98.0,121.0,352.0,177.0,989.0
96.0,43.0,227.0,38.0,-87.0,121.0,361.0,167.0,985.0
98.0,41.0,225.0,41.0,-78.0,119.0,369.0,162.0,976.0
99.0,40.0,224.0,46.0,-70.0,122.0,367.0,162.0,972.0
103.0,37.0,223.0,52.0,-63.0,115.0,377.0,156.0,967.0
106.0,34.0,224.0,59.0,-56.0,114.0,384.0,154.0,966.0
104.0,37.0,223.0,65.0,-49.0,110.0,393.0,150.0,956.0
107.0,37.0,223.0,70.0,-41.0,109.0,395.0,145.0,961.0
106.0,39.0,219.0,75.0,-34.0,102.0,395.0,153.0,951.0
112.0,37.0,218.0,77.0,-28.0,99.0,399.0,152.0,952.0
108.0,40.0,219.0,80.0,-24.0,93.0,407.0,154.0,945.0
109.0,41.0,215.0,77.0,-19.0,91.0,414.0,159.0,941.0
112.0,45.0,216.0,76.0,-10.0,82.0,413.0,160.0,938.0
113.0,41.0,216.0,70.0,-5.0,80.0,419.0,165.0,931.0
115.0,44.0,216.0,66.0,1.0,73.0,421.0,161.0,935.0
115.0,45.0,214.0,61.0,9.0,71.0,422.0,173.0,927.0
113.0,46.0,216.0,55.0,15.0,64.0,422.0,177.0,926.0
115.0,46.0,217.0,48.0,22.0,63.0,428.0,178.0,926.0
114.0,46.0,212.0,45.0,30.0,57.0,428.0,176.0,926.0
114.0,51.0,213.0,44.0,36.0,53.0,433.0,176.0,925.0
115.0,44.0,214.0,43.0,43.0,46.0,429.0,179.0,914.0
116.0,46.0,208.0,44.0,52.0,40.0,426.0,178.0,920.0
113.0,46.0,211.0,48.0,59.0,30.0,421.0,183.0,919.0
114.0,49.0,208.0,53.0,66.0,25.0,420.0,187.0,921.0
116.0,46.0,212.0,55.0,74.0,15.0,417.0,181.0,918.0
111.0,50.0,214.0,59.0,80.0,11.0,418.0,182.0,919.0
111.0,49.0,212.0,61.0,87.0,2.0,414.0,184.0,926.0
112.0,49.0,213.0,62.0,93.0,0.0,409.0,190.0,925.0
110.0,48.0,208.0,61.0,102.0,-8.0,409.0,183.0,929.0
109.0,50.0,214.0,59.0,107.0,-11.0,407.0,185.0,932.0
110.0,48.0,213.0,54.0,114.0,-16.0,408.0,186.0,924.0
110.0,49.0,214.0,49.0,121.0,-17.0,404.0,185.0,930.0
109.0,48.0,214.0,43.0,128.0,-21.0,400.0,184.0,933.0
108.0,47.0,214.0,36.0,134.0,-21.0,398.0,183.0,938.0
105.0,49.0,212.0,30.0,139.0,-24.0,397.0,182.0,931.0
105.0,45.0,216.0,23.0,144.0,-24.0,391.0,182.0,940.0
105.0,47.0,218.0,17.0,150.0,-28.0,392.0,178.0,939.0
106.0,46.0,215.0,10.0,154.0,-26.0,387.0,177.0,938.0
103.0,46.0,216.0,7.0,159.0,-27.0,373.0,177.0,943.0
102.0,44.0,218.0,4.0,159.0,-26.0,376.0,174.0,944.0
97.0,45.0,217.0,0.0,164.0,-29.0,372.0,166.0,947.0
100.0,41.0,219.0,-2.0,162.0,-27.0,367.0,162.0,945.0
96.0,42.0,219.0,-1.0,162.0,-29.0,358.0,165.0,945.0
97.0,41.0,221.0,0.0,160.0,-27.0,360.0,163.0,953.0
92.0,43.0,216.0,-1.0,160.0,-30.0,356.0,169.0,950.0
93.0,45.0,217.0,-1.0,159.0,-28.0,351.0,165.0,945.0
94.0,41.0,220.0,-2.0,157.0,-32.0,347.0,163.0,949.0
91.0,42.0,218.0,-2.0,157.0,-33.0,342.0,160.0,950.0
93.0,40.0,216.0,0.0,156.0,-33.0,341.0,160.0,947.0
90.0,40.0,220.0,1.0,158.0,-29.0,334.0,161.0,951.0
87.0,42.0,215.0,3.0,157.0,-33.0,335.0,157.0,946.0
85.0,43.0,218.0,4.0,156.0,-32.0,328.0,163.0,948.0
85.0,39.0,217.0,5.0,155.0,-37.0,327.0,162.0,952.0
85.0,40.0,223.0,8.0,156.0,-34.0,322.0,162.0,946.0
86.0,42.0,215.0,14.0,158.0,-35.0,315.0,164.0,951.0
82.0,42.0,221.0,20.0,161.0,-30.0,311.0,162.0,957.0
82.0,42.0,224.0,24.0,161.0,-32.0,314.0,166.0,957.0
82.0,40.0,221.0,26.0,160.0,-31.0,306.0,171.0,956.0
79.0,42.0,223.0,28.0,156.0,-33.0,304.0,168.0,959.0
78.0,45.0,221.0,32.0,155.0,-31.0,302.0,168.0,956.0
81.0,44.0,225.0,38.0,155.0,-30.0,297.0,178.0,956.0
77.0,44.0,224.0,43.0,151.0,-28.0,299.0,179.0,959.0
80.0,49.0,225.0,46.0,149.0,-29.0,293.0,181.0,962.0
78.0,48.0,222.0,50.0,147.0,-25.0,296.0,189.0,963.0
78.0,48.0,224.0,50.0,139.0,-27.0,294.0,191.0,964.0
79.0,48.0,225.0,51.0,135.0,-25.0,291.0,193.0,971.0
78.0,47.0,226.0,54.0,131.0,-25.0,296.0,190.0,965.0
78.0,51.0,224.0,51.0,127.0,-23.0,295.0,192.0,970.0
77.0,50.0,227.0,53.0,120.0,-21.0,289.0,193.0,978.0
78.0,49.0,224.0,54.0,117.0,-17.0,294.0,192.0,977.0
77.0,51.0,227.0,56.0,113.0,-14.0,288.0,190.0,973.0
79.0,49.0,224.0,55.0,109.0,-9.0,294.0,194.0,974.0
79.0,47.0,229.0,54.0,105.0,-8.0,293.0,191.0,971.0
78.0,50.0,223.0,50.0,100.0,-5.0,292.0,194.0,972.0
76.0,50.0,227.0,45.0,97.0,-5.0,294.0,195.0,973.0
76.0,52.0,228.0,36.0,94.0,0.0,296.0,190.0,979.0
80.0,50.0,228.0,31.0,90.0,-1.0,293.0,191.0,983.0
78.0,48.0,226.0,24.0,88.0,4.0,292.0,189.0,981.0
77.0,47.0,230.0,23.0,83.0,4.0,294.0,193.0,979.0
75.0,46.0,231.0,25.0,80.0,8.0,295.0,187.0,976.0
78.0,50.0,228.0,27.0,76.0,12.0,292.0,195.0,977.0
78.0,51.0,225.0,29.0,73.0,16.0,298.0,186.0,970.0
79.0,49.0,222.0,30.0,71.0,18.0,303.0,190.0,966.0
82.0,49.0,225.0,31.0,68.0,23.0,303.0,194.0,961.0
81.0,50.0,224.0,32.0,65.0,22.0,298.0,198.0,963.0
78.0,53.0,223.0,32.0,62.0,25.0,308.0,198.0,961.0
83.0,51.0,221.0,33.0,61.0,22.0,308.0,196.0,957.0
82.0,50.0,221.0,29.0,61.0,22.0,304.0,194.0,955.0
78.0,54.0,221.0,31.0,61.0,21.0,310.0,197.0,957.0
85.0,51.0,221.0,29.0,61.0,21.0,308.0,199.0,959.0
82.0,51.0,225.0,30.0,62.0,18.0,306.0,198.0,960.0
83.0,50.0,220.0,31.0,64.0,18.0,312.0,195.0,953.0
85.0,51.0,223.0,32.0,67.0,18.0,316.0,199.0,954.0
85.0,51.0,223.0,31.0,66.0,18.0,313.0,196.0,957.0
82.0,50.0,220.0,31.0,68.0,17.0,317.0,197.0,957.0
84.0,50.0,223.0,31.0,66.0,13.0,314.0,199.0,960.0
87.0,50.0,221.0,32.0,64.0,9.0,318.0,195.0,954.0
87.0,50.0,224.0,33.0,62.0,12.0,328.0,193.0,956.0
86.0,51.0,222.0,34.0,60.0,12.0,331.0,194.0,949.0
88.0,51.0,223.0,32.0,58.0,12.0,333.0,195.0,955.0
87.0,52.0,223.0,32.0,57.0,11.0,338.0,194.0,952.0
91.0,48.0,223.0,31.0,56.0,10.0,337.0,199.0,954.0
90.0,52.0,225.0,34.0,54.0,9.0,337.0,194.0,954.0
91.0,53.0,220.0,35.0,53.0,11.0,341.0,200.0,960.0
92.0,50.0,220.0,38.0,52.0,9.0,340.0,190.0,958.0
91.0,53.0,224.0,39.0,52.0,7.0,340.0,193.0,959.0
92.0,50.0,221.0,39.0,52.0,7.0,340.0,193.0,957.0
90.0,51.0,222.0,41.0,51.0,6.0,343.0,192.0,956.0
91.0,52.0,221.0,40.0,53.0,7.0,344.0,193.0,954.0
92.0,48.0,217.0,38.0,53.0,7.0,341.0,191.0,957.0
90.0,50.0,222.0,37.0,53.0,8.0,344.0,189.0,955.0
90.0,48.0,221.0,35.0,53.0,9.0,342.0,187.0,948.0
89.0,53.0,223.0,34.0,54.0,8.0,339.0,194.0,954.0
92.0,51.0,220.0,31.0,54.0,8.0,345.0,191.0,956.0
92.0,48.0,222.0,26.0,55.0,8.0,342.0,191.0,953.0
92.0,50.0,218.0,23.0,58.0,7.0,344.0,193.0,953.0
89.0,49.0,222.0,20.0,59.0,10.0,344.0,193.0,953.0
88.0,50.0,217.0,17.0,58.0,10.0,343.0,192.0,955.0
92.0,48.0,221.0,15.0,59.0,11.0,345.0,190.0,953.0
92.0,46.0,220.0,14.0,61.0,10.0,341.0,192.0,954.0
90.0,49.0,217.0,11.0,60.0,10.0,347.0,190.0,954.0
93.0,50.0,217.0,10.0,61.0,10.0,345.0,191.0,961.0
90.0,48.0,217.0,7.0,62.0,10.0,338.0,191.0,953.0
92.0,46.0,227.0,6.0,63.0,6.0,340.0,195.0,956.0
91.0,52.0,226.0,4.0,64.0,7.0,340.0,193.0,954.0
92.0,51.0,221.0,4.0,65.0,4.0,342.0,195.0,952.0
90.0,51.0,216.0,2.0,69.0,6.0,342.0,194.0,952.0
90.0,52.0,223.0,1.0,69.0,5.0,337.0,192.0,953.0
90.0,50.0,219.0,2.0,69.0,8.0,338.0,194.0,954.0
90.0,51.0,221.0,2.0,71.0,6.0,340.0,192.0,951.0
91.0,50.0,220.0,2.0,72.0,6.0,338.0,196.0,954.0
90.0,49.0,223.0,2.0,75.0,3.0,334.0,193.0,948.0
89.0,51.0,218.0,4.0,76.0,5.0,333.0,192.0,954.0
91.0,51.0,219.0,5.0,76.0,2.0,334.0,194.0,950.0
91.0,50.0,221.0,7.0,77.0,4.0,329.0,196.0,950.0
90.0,50.0,219.0,8.0,81.0,1.0,334.0,198.0,954.0
90.0,52.0,222.0,10.0,81.0,4.0,335.0,195.0,952.0
90.0,52.0,223.0,10.0,82.0,0.0,338.0,196.0,952.0
88.0,49.0,218.0,12.0,85.0,2.0,332.0,197.0,953.0
86.0,53.0,217.0,13.0,86.0,0.0,331.0,198.0,948.0
86.0,54.0,221.0,13.0,87.0,1.0,327.0,200.0,953.0
89.0,53.0,219.0,14.0,88.0,-2.0,333.0,196.0,955.0
89.0,53.0,223.0,12.0,88.0,-2.0,333.0,201.0,955.0
89.0,53.0,219.0,12.0,89.0,-4.0,333.0,200.0,954.0
89.0,51.0,219.0,10.0,91.0,-4.0,332.0,199.0,953.0
89.0,53.0,223.0,10.0,92.0,-6.0,329.0,198.0,956.0
87.0,52.0,224.0,9.0,94.0,-4.0,331.0,206.0,952.0
87.0,51.0,220.0,7.0,98.0,-6.0,330.0,199.0,951.0
85.0,50.0,223.0,7.0,98.0,-5.0,328.0,200.0,953.0
89.0,52.0,222.0,6.0,99.0,-7.0,325.0,202.0,954.0
85.0,53.0,223.0,7.0,98.0,-5.0,328.0,205.0,953.0
86.0,52.0,220.0,6.0,99.0,-7.0,329.0,196.0,961.0
88.0,52.0,221.0,8.0,98.0,-5.0,327.0,205.0,958.0
88.0,50.0,221.0,7.0,98.0,-7.0,329.0,203.0,958.0
87.0,52.0,221.0,7.0,96.0,-5.0,325.0,203.0,958.0
87.0,53.0,221.0,7.0,95.0,-6.0,320.0,201.0,954.0
87.0,51.0,223.0,8.0,91.0,-4.0,325.0,206.0,951.0
87.0,51.0,220.0,8.0,89.0,-6.0,323.0,205.0,957.0
86.0,49.0,220.0,11.0,88.0,-4.0,326.0,201.0,956.0
85.0,51.0,221.0,11.0,86.0,-6.0,327.0,198.0,958.0
85.0,53.0,223.0,10.0,84.0,-1.0,317.0,202.0,956.0
86.0,51.0,219.0,8.0,85.0,-1.0,323.0,200.0,961.0
85.0,51.0,224.0,7.0,86.0,2.0,319.0,203.0,959.0
84.0,53.0,223.0,3.0,85.0,-1.0,316.0,205.0,961.0
84.0,52.0,223.0,2.0,83.0,1.0,319.0,204.0,958.0
85.0,49.0,223.0,0.0,83.0,-1.0,311.0,205.0,958.0
86.0,53.0,221.0,-4.0,80.0,0.0,310.0,202.0,957.0
86.0,51.0,220.0,-5.0,82.0,-4.0,315.0,208.0,962.0
82.0,53.0,224.0,-9.0,81.0,-2.0,317.0,206.0,963.0
86.0,52.0,223.0,-12.0,81.0,-4.0,314.0,208.0,958.0
85.0,54.0,227.0,-15.0,81.0,-3.0,315.0,205.0,962.0
84.0,54.0,224.0,-17.0,82.0,-5.0,316.0,201.0,961.0
82.0,51.0,221.0,-19.0,81.0,-4.0,318.0,204.0,964.0
85.0,52.0,227.0,-19.0,79.0,-5.0,315.0,204.0,963.0
85.0,49.0,223.0,-20.0,77.0,-5.0,319.0,199.0,959.0
86.0,49.0,225.0,-21.0,75.0,-5.0,321.0,202.0,962.0
86.0,51.0,225.0,-22.0,73.0,-3.0,323.0,200.0,961.0
85.0,50.0,228.0,-26.0,70.0,-7.0,322.0,199.0,966.0
85.0,48.0,226.0,-29.0,67.0,-4.0,327.0,199.0,967.0
86.0,47.0,224.0,-29.0,64.0,-6.0,321.0,191.0,972.0
83.0,53.0,226.0,-27.0,61.0,-3.0,317.0,193.0,964.0
85.0,48.0,223.0,-24.0,60.0,-2.0,315.0,193.0,969.0
84.0,49.0,220.0,-19.0,57.0,2.0,316.0,196.0,965.0
87.0,51.0,223.0,-14.0,54.0,2.0,316.0,194.0,960.0
85.0,51.0,219.0,-9.0,53.0,6.0,321.0,194.0,956.0
86.0,51.0,222.0,-6.0,54.0,6.0,317.0,195.0,954.0
84.0,51.0,218.0,-2.0,52.0,9.0,318.0,196.0,954.0
84.0,53.0,219.0,1.0,52.0,6.0,316.0,197.0,953.0
84.0,50.0,219.0,6.0,54.0,7.0,316.0,200.0,947.0
87.0,47.0,217.0,8.0,55.0,2.0,314.0,198.0,946.0
84.0,52.0,221.0,9.0,55.0,2.0,310.0,201.0,952.0
85.0,49.0,222.0,9.0,57.0,0.0,311.0,201.0,950.0
81.0,51.0,218.0,8.0,58.0,1.0,314.0,199.0,955.0
88.0,49.0,221.0,8.0,60.0,-2.0,311.0,200.0,955.0
84.0,55.0,219.0,6.0,61.0,0.0,314.0,202.0,956.0
85.0,53.0,220.0,5.0,62.0,-2.0,316.0,206.0,954.0
83.0,53.0,223.0,1.0,63.0,1.0,314.0,207.0,955.0
84.0,53.0,222.0,1.0,63.0,1.0,315.0,203.0,963.0
85.0,53.0,224.0,-1.0,63.0,3.0,316.0,207.0,965.0
85.0,54.0,226.0,-3.0,62.0,2.0,321.0,204.0,957.0
87.0,52.0,220.0,-4.0,60.0,5.0,320.0,202.0,958.0
87.0,55.0,221.0,-5.0,61.0,3.0,322.0,204.0,955.0
86.0,55.0,224.0,-5.0,61.0,4.0,326.0,207.0,957.0
85.0,53.0,223.0,-4.0,62.0,4.0,325.0,206.0,957.0
83.0,55.0,220.0,-2.0,63.0,7.0,319.0,210.0,961.0
87.0,53.0,223.0,-1.0,64.0,5.0,318.0,202.0,964.0
86.0,56.0,218.0,0.0,65.0,6.0,324.0,203.0,960.0
84.0,55.0,222.0,0.0,65.0,5.0,322.0,208.0,961.0
88.0,54.0,223.0,-1.0,66.0,5.0,325.0,210.0,956.0
87.0,53.0,223.0,-1.0,67.0,3.0,326.0,201.0,958.0
88.0,52.0,222.0,-2.0,67.0,4.0,326.0,207.0,957.0
86.0,51.0,223.0,-3.0,66.0,1.0,325.0,205.0,955.0
87.0,51.0,221.0,-5.0,66.0,3.0,324.0,202.0,955.0
88.0,53.0,224.0,-7.0,67.0,2.0,327.0,205.0,958.0
88.0,50.0,223.0,-9.0,66.0,3.0,329.0,202.0,957.0
88.0,51.0,221.0,-10.0,66.0,2.0,327.0,205.0,959.0
86.0,48.0,220.0,-11.0,67.0,1.0,326.0,199.0,957.0
84.0,50.0,223.0,-11.0,68.0,0.0,323.0,200.0,959.0
87.0,50.0,223.0,-14.0,69.0,0.0,328.0,200.0,960.0
89.0,49.0,220.0,-15.0,68.0,-2.0,327.0,202.0,958.0
91.0,51.0,218.0,-15.0,70.0,-1.0,327.0,201.0,957.0
87.0,52.0,227.0,-15.0,69.0,-3.0,330.0,205.0,956.0
89.0,53.0,224.0,-14.0,70.0,-1.0,331.0,202.0,956.0
89.0,49.0,223.0,-14.0,68.0,-3.0,333.0,204.0,960.0
89.0,54.0,223.0,-14.0,68.0,-3.0,331.0,199.0,958.0
90.0,52.0,221.0,-15.0,67.0,-4.0,328.0,207.0,953.0
88.0,52.0,225.0,-15.0,67.0,-4.0,333.0,204.0,958.0
86.0,52.0,220.0,-16.0,67.0,-5.0,330.0,205.0,955.0
87.0,57.0,219.0,-18.0,66.0,-6.0,332.0,196.0,953.0
89.0,51.0,220.0,-20.0,67.0,-6.0,328.0,205.0,953.0
87.0,52.0,220.0,-20.0,65.0,-7.0,325.0,204.0,954.0
88.0,49.0,218.0,-21.0,67.0,-7.0,326.0,207.0,957.0
86.0,53.0,219.0,-23.0,66.0,-7.0,325.0,202.0,955.0
85.0,54.0,221.0,-23.0,65.0,-9.0,322.0,204.0,958.0
84.0,54.0,222.0,-25.0,66.0,-10.0,316.0,198.0,960.0
85.0,52.0,220.0,-25.0,66.0,-9.0,320.0,199.0,955.0
86.0,53.0,221.0,-25.0,65.0,-9.0,324.0,199.0,960.0
86.0,49.0,220.0,-25.0,66.0,-8.0,317.0,199.0,957.0
84.0,52.0,223.0,-24.0,68.0,-9.0,314.0,196.0,959.0
84.0,50.0,226.0,-24.0,67.0,-10.0,315.0,198.0,962.0
85.0,49.0,225.0,-24.0,68.0,-10.0,318.0,199.0,957.0
83.0,53.0,225.0,-23.0,68.0,-8.0,318.0,199.0,959.0
84.0,49.0,220.0,-22.0,69.0,-7.0,317.0,199.0,955.0
85.0,53.0,223.0,-22.0,68.0,-7.0,317.0,202.0,959.0
83.0,51.0,222.0,-21.0,69.0,-8.0,317.0,202.0,959.0
83.0,52.0,222.0,-22.0,69.0,-7.0,317.0,204.0,960.0
85.0,51.0,225.0,-23.0,69.0,-8.0,315.0,205.0,958.0
85.0,49.0,220.0,-24.0,69.0,-8.0,311.0,199.0,957.0
83.0,51.0,220.0,-26.0,69.0,-10.0,317.0,204.0,960.0
86.0,51.0,223.0,-28.0,69.0,-10.0,314.0,201.0,959.0
85.0,51.0,225.0,-30.0,67.0,-9.0,316.0,200.0,960.0
88.0,50.0,221.0,-31.0,66.0,-8.0,317.0,201.0,963.0
84.0,53.0,225.0,-32.0,65.0,-8.0,316.0,200.0,955.0
83.0,51.0,223.0,-34.0,66.0,-6.0,320.0,205.0,954.0
85.0,50.0,221.0,-34.0,65.0,-8.0,326.0,199.0,958.0
86.0,52.0,220.0,-36.0,63.0,-6.0,321.0,199.0,961.0
83.0,52.0,222.0,-35.0,60.0,-6.0,318.0,204.0,960.0
87.0,53.0,223.0,-34.0,60.0,-5.0,322.0,202.0,960.0
81.0,57.0,225.0,-33.0,57.0,-7.0,324.0,195.0,959.0
82.0,52.0,222.0,-32.0,58.0,-4.0,323.0,198.0,963.0
85.0,48.0,222.0,-30.0,56.0,-4.0,319.0,200.0,962.0
85.0,54.0,223.0,-30.0,56.0,-3.0,318.0,201.0,960.0
85.0,51.0,225.0,-29.0,55.0,-4.0,317.0,206.0,961.0
84.0,54.0,224.0,-31.0,54.0,-3.0,317.0,204.0,958.0
85.0,51.0,222.0,-32.0,56.0,-5.0,314.0,201.0,962.0
84.0,53.0,224.0,-31.0,57.0,-5.0,316.0,200.0,962.0
80.0,52.0,222.0,-32.0,56.0,-5.0,313.0,205.0,957.0
84.0,54.0,218.0,-33.0,57.0,-4.0,316.0,197.0,959.0
83.0,50.0,223.0,-33.0,59.0,-7.0,315.0,200.0,957.0
84.0,54.0,224.0,-31.0,60.0,-5.0,316.0,199.0,963.0
85.0,52.0,222.0,-31.0,60.0,-6.0,316.0,197.0,958.0
85.0,51.0,224.0,-33.0,61.0,-3.0,313.0,200.0,961.0
85.0,50.0,222.0,-32.0,60.0,-4.0,312.0,198.0,963.0
84.0,55.0,221.0,-32.0,58.0,-1.0,315.0,199.0,958.0
84.0,49.0,224.0,-32.0,56.0,-3.0,316.0,194.0,959.0
82.0,55.0,219.0,-34.0,55.0,0.0,316.0,201.0,957.0
86.0,53.0,220.0,-36.0,54.0,-2.0,322.0,199.0,958.0
88.0,48.0,223.0,-38.0,54.0,-1.0,319.0,200.0,953.0
86.0,51.0,218.0,-38.0,55.0,-4.0,322.0,194.0,959.0
87.0,49.0,220.0,-38.0,54.0,-3.0,329.0,196.0,955.0
88.0,53.0,220.0,-38.0,55.0,-6.0,331.0,197.0,956.0
86.0,53.0,222.0,-35.0,56.0,-4.0,328.0,195.0,957.0
88.0,51.0,225.0,-35.0,57.0,-6.0,328.0,198.0,956.0
88.0,52.0,221.0,-34.0,57.0,-4.0,332.0,198.0,958.0
90.0,54.0,223.0,-34.0,57.0,-4.0,332.0,200.0,955.0
89.0,50.0,223.0,-36.0,56.0,-2.0,331.0,197.0,955.0
87.0,50.0,221.0,-40.0,55.0,-4.0,330.0,199.0,955.0
87.0,51.0,225.0,-43.0,54.0,-2.0,329.0,197.0,961.0
88.0,52.0,224.0,-50.0,50.0,-5.0,328.0,196.0,960.0
84.0,50.0,226.0,-55.0,50.0,-3.0,328.0,197.0,969.0
86.0,49.0,223.0,-56.0,47.0,-4.0,323.0,193.0,962.0
86.0,50.0,229.0,-54.0,44.0,-1.0,316.0,187.0,962.0
84.0,49.0,223.0,-49.0,40.0,-2.0,316.0,192.0,965.0
86.0,46.0,219.0,-47.0,38.0,1.0,317.0,189.0,963.0
86.0,49.0,226.0,-45.0,36.0,-2.0,317.0,196.0,961.0
85.0,50.0,221.0,-43.0,37.0,1.0,320.0,194.0,956.0
85.0,48.0,224.0,-40.0,38.0,-2.0,320.0,191.0,959.0
88.0,49.0,223.0,-39.0,40.0,-2.0,323.0,194.0,956.0
83.0,50.0,218.0,-35.0,41.0,-6.0,316.0,192.0,953.0
82.0,52.0,222.0,-32.0,45.0,-6.0,316.0,192.0,950.0
85.0,45.0,220.0,-30.0,50.0,-9.0,317.0,192.0,948.0
84.0,52.0,221.0,-28.0,53.0,-8.0,321.0,195.0,957.0
86.0,54.0,221.0,-27.0,56.0,-10.0,315.0,191.0,953.0
88.0,47.0,221.0,-26.0,59.0,-8.0,323.0,193.0,953.0
84.0,52.0,222.0,-25.0,62.0,-9.0,318.0,191.0,953.0
84.0,50.0,224.0,-24.0,62.0,-5.0,318.0,193.0,949.0
87.0,52.0,223.0,-24.0,62.0,-7.0,321.0,197.0,951.0
87.0,51.0,220.0,-26.0,61.0,-4.0,327.0,200.0,953.0
84.0,51.0,224.0,-29.0,59.0,-6.0,331.0,196.0,960.0
91.0,53.0,220.0,-30.0,59.0,-2.0,330.0,201.0,958.0
88.0,49.0,222.0,-30.0,56.0,-5.0,330.0,195.0,958.0
87.0,52.0,221.0,-29.0,55.0,-3.0,327.0,202.0,956.0
87.0,52.0,221.0,-28.0,54.0,-6.0,329.0,196.0,958.0
88.0,51.0,227.0,-28.0,53.0,-3.0,327.0,193.0,964.0
88.0,50.0,222.0,-27.0,54.0,-5.0,330.0,201.0,959.0
87.0,48.0,226.0,-26.0,55.0,-3.0,324.0,193.0,964.0
86.0,51.0,221.0,-25.0,56.0,-7.0,324.0,194.0,959.0
87.0,52.0,220.0,-25.0,59.0,-4.0,326.0,194.0,963.0
87.0,49.0,223.0,-23.0,61.0,-6.0,322.0,192.0,963.0
85.0,50.0,222.0,-23.0,61.0,-4.0,322.0,189.0,962.0
86.0,50.0,222.0,-25.0,64.0,-6.0,325.0,191.0,960.0
85.0,50.0,222.0,-26.0,66.0,-4.0,321.0,193.0,959.0
83.0,52.0,222.0,-28.0,68.0,-6.0,317.0,195.0,955.0
84.0,51.0,223.0,-30.0,68.0,-4.0,323.0,192.0,956.0
83.0,50.0,222.0,-30.0,70.0,-5.0,317.0,193.0,952.0
85.0,49.0,220.0,-31.0,71.0,-2.0,317.0,193.0,955.0
84.0,48.0,222.0,-32.0,72.0,-4.0,317.0,191.0,953.0
84.0,48.0,222.0,-32.0,70.0,-2.0,323.0,194.0,954.0
83.0,50.0,221.0,-33.0,68.0,-4.0,322.0,191.0,955.0
84.0,47.0,217.0,-32.0,66.0,-2.0,320.0,192.0,952.0
84.0,46.0,220.0,-32.0,66.0,-4.0,324.0,194.0,956.0
85.0,51.0,222.0,-29.0,63.0,-3.0,325.0,191.0,952.0
85.0,47.0,218.0,-28.0,59.0,-4.0,325.0,190.0,952.0
87.0,51.0,224.0,-27.0,59.0,-1.0,318.0,192.0,952.0
84.0,51.0,222.0,-25.0,58.0,-3.0,319.0,189.0,955.0
82.0,50.0,222.0,-24.0,55.0,-2.0,315.0,195.0,953.0
83.0,54.0,218.0,-24.0,53.0,-3.0,315.0,191.0,953.0
82.0,50.0,223.0,-24.0,52.0,-3.0,316.0,193.0,951.0
85.0,46.0,219.0,-22.0,53.0,-5.0,317.0,196.0,959.0
85.0,49.0,221.0,-23.0,52.0,-4.0,313.0,193.0,961.0
84.0,50.0,225.0,-24.0,51.0,-5.0,316.0,193.0,960.0
83.0,50.0,222.0,-23.0,51.0,-4.0,315.0,194.0,957.0
84.0,50.0,222.0,-23.0,50.0,-6.0,313.0,187.0,963.0
83.0,50.0,226.0,-23.0,53.0,-4.0,312.0,195.0,958.0
84.0,49.0,225.0,-22.0,53.0,-5.0,311.0,195.0,966.0
85.0,48.0,225.0,-22.0,54.0,-3.0,313.0,195.0,962.0
82.0,50.0,227.0,-22.0,54.0,-4.0,312.0,187.0,964.0
87.0,47.0,224.0,-22.0,54.0,-3.0,315.0,192.0,971.0
83.0,48.0,219.0,-21.0,53.0,-3.0,316.0,193.0,965.0
83.0,49.0,226.0,-20.0,55.0,-1.0,318.0,186.0,961.0
84.0,48.0,222.0,-20.0,55.0,-1.0,317.0,187.0,963.0
85.0,50.0,219.0,-17.0,55.0,0.0,322.0,189.0,957.0
85.0,48.0,227.0,-17.0,56.0,-1.0,322.0,192.0,957.0
84.0,51.0,223.0,-16.0,55.0,1.0,323.0,189.0,955.0
86.0,49.0,222.0,-18.0,57.0,-1.0,315.0,195.0,957.0
87.0,50.0,220.0,-19.0,58.0,-1.0,325.0,195.0,959.0
85.0,48.0,221.0,-20.0,59.0,-3.0,328.0,195.0,955.0
84.0,51.0,221.0,-20.0,60.0,-4.0,324.0,198.0,956.0
86.0,51.0,220.0,-19.0,59.0,-5.0,321.0,197.0,955.0
86.0,50.0,219.0,-20.0,60.0,-5.0,330.0,193.0,958.0
86.0,50.0,223.0,-19.0,62.0,-7.0,327.0,196.0,955.0
85.0,49.0,222.0,-20.0,62.0,-7.0,327.0,194.0,953.0
88.0,49.0,219.0,-19.0,62.0,-8.0,330.0,200.0,953.0
88.0,49.0,219.0,-17.0,65.0,-10.0,330.0,195.0,954.0
89.0,51.0,220.0,-17.0,66.0,-10.0,330.0,197.0,955.0
89.0,48.0,222.0,-15.0,66.0,-10.0,331.0,191.0,952.0
90.0,50.0,223.0,-15.0,66.0,-10.0,330.0,194.0,956.0
89.0,48.0,224.0,-13.0,68.0,-10.0,328.0,189.0,954.0
88.0,51.0,221.0,-13.0,66.0,-9.0,328.0,195.0,960.0
87.0,46.0,223.0,-11.0,68.0,-8.0,331.0,190.0,957.0
85.0,49.0,222.0,-9.0,68.0,-8.0,331.0,186.0,954.0
89.0,49.0,221.0,-10.0,68.0,-6.0,332.0,188.0,952.0
88.0,48.0,222.0,-10.0,69.0,-6.0,329.0,188.0,953.0
90.0,48.0,221.0,-11.0,69.0,-6.0,333.0,191.0,954.0
89.0,48.0,221.0,-11.0,69.0,-4.0,333.0,188.0,957.0
90.0,48.0,220.0,-12.0,70.0,-5.0,328.0,186.0,952.0
90.0,50.0,223.0,-12.0,69.0,-5.0,332.0,191.0,957.0
87.0,50.0,219.0,-13.0,67.0,-4.0,329.0,191.0,957.0
87.0,48.0,217.0,-13.0,68.0,-5.0,330.0,192.0,953.0
87.0,49.0,219.0,-13.0,67.0,-4.0,329.0,191.0,954.0
87.0,53.0,220.0,-14.0,68.0,-5.0,324.0,194.0,953.0
86.0,50.0,219.0,-14.0,67.0,-5.0,327.0,192.0,956.0
84.0,48.0,223.0,-15.0,68.0,-5.0,321.0,192.0,957.0
87.0,46.0,223.0,-12.0,68.0,-5.0,319.0,192.0,953.0
86.0,48.0,221.0,-13.0,68.0,-4.0,318.0,193.0,958.0
86.0,48.0,222.0,-12.0,68.0,-5.0,318.0,191.0,953.0
84.0,48.0,223.0,-12.0,67.0,-3.0,321.0,189.0,959.0
85.0,48.0,223.0,-11.0,67.0,-4.0,313.0,182.0,959.0
84.0,48.0,220.0,-10.0,68.0,-2.0,311.0,190.0,957.0
82.0,51.0,222.0,-10.0,65.0,-2.0,315.0,189.0,959.0
83.0,48.0,223.0,-10.0,63.0,0.0,316.0,189.0,959.0
83.0,50.0,219.0,-12.0,60.0,0.0,314.0,189.0,960.0
86.0,50.0,223.0,-12.0,60.0,2.0,316.0,188.0,959.0
84.0,46.0,224.0,-14.0,57.0,0.0,317.0,190.0,961.0
84.0,50.0,222.0,-16.0,57.0,1.0,319.0,188.0,961.0
84.0,49.0,224.0,-16.0,58.0,0.0,320.0,191.0,960.0
86.0,50.0,220.0,-15.0,57.0,1.0,321.0,190.0,965.0
85.0,50.0,223.0,-13.0,57.0,-1.0,318.0,194.0,962.0
87.0,48.0,226.0,-12.0,59.0,1.0,323.0,189.0,963.0
86.0,50.0,219.0,-10.0,62.0,2.0,318.0,186.0,961.0
82.0,51.0,225.0,-8.0,61.0,3.0,318.0,193.0,958.0
84.0,53.0,223.0,-6.0,62.0,2.0,321.0,192.0,959.0
85.0,51.0,223.0,-7.0,62.0,4.0,322.0,194.0,962.0
85.0,49.0,221.0,-8.0,62.0,2.0,320.0,200.0,959.0
85.0,51.0,225.0,-13.0,60.0,4.0,317.0,193.0,961.0
84.0,48.0,224.0,-17.0,59.0,3.0,314.0,203.0,969.0
84.0,48.0,227.0,-21.0,56.0,4.0,315.0,192.0,970.0
82.0,47.0,222.0,-22.0,55.0,3.0,314.0,195.0,966.0
84.0,48.0,225.0,-21.0,52.0,6.0,312.0,185.0,970.0
86.0,46.0,225.0,-18.0,48.0,5.0,312.0,190.0,968.0
83.0,47.0,223.0,-14.0,46.0,8.0,310.0,190.0,969.0
81.0,50.0,220.0,-12.0,44.0,7.0,313.0,190.0,963.0
83.0,49.0,224.0,-9.0,44.0,9.0,312.0,187.0,962.0
85.0,47.0,219.0,-7.0,45.0,4.0,315.0,191.0,959.0
86.0,47.0,223.0,-7.0,48.0,5.0,322.0,192.0,954.0
85.0,50.0,217.0,-7.0,50.0,2.0,316.0,187.0,955.0
85.0,49.0,222.0,-6.0,54.0,0.0,316.0,192.0,954.0
86.0,49.0,222.0,-6.0,57.0,-3.0,323.0,194.0,953.0
86.0,48.0,221.0,-4.0,60.0,-3.0,322.0,195.0,952.0
87.0,49.0,220.0,-3.0,65.0,-4.0,318.0,195.0,951.0
90.0,47.0,223.0,-2.0,66.0,-2.0,325.0,192.0,952.0
84.0,52.0,218.0,-1.0,66.0,-5.0,326.0,194.0,953.0
88.0,48.0,224.0,-2.0,67.0,-2.0,329.0,196.0,951.0
88.0,43.0,222.0,-2.0,64.0,-3.0,330.0,199.0,950.0
81.0,46.0,227.0,-1.0,62.0,0.0,327.0,200.0,952.0
90.0,47.0,223.0,-2.0,60.0,-2.0,338.0,203.0,953.0
90.0,53.0,222.0,-3.0,58.0,0.0,336.0,196.0,953.0
88.0,52.0,222.0,-5.0,58.0,-2.0,335.0,197.0,950.0
89.0,51.0,222.0,-4.0,57.0,-1.0,340.0,197.0,954.0
91.0,51.0,224.0,-5.0,58.0,-4.0,337.0,198.0,961.0
90.0,51.0,220.0,-6.0,58.0,-2.0,334.0,195.0,967.0
91.0,49.0,221.0,-5.0,60.0,-6.0,333.0,196.0,960.0
90.0,47.0,222.0,-5.0,61.0,-5.0,327.0,195.0,961.0
86.0,52.0,224.0,-6.0,63.0,-7.0,332.0,197.0,957.0
87.0,50.0,223.0,-5.0,67.0,-5.0,326.0,191.0,963.0
86.0,51.0,220.0,-5.0,68.0,-6.0,329.0,194.0,959.0
84.0,52.0,224.0,-6.0,70.0,-5.0,317.0,192.0,959.0
86.0,50.0,219.0,-4.0,70.0,-7.0,322.0,196.0,955.0
85.0,51.0,221.0,-5.0,71.0,-4.0,320.0,195.0,957.0
83.0,51.0,219.0,-6.0,70.0,-6.0,318.0,192.0,957.0
87.0,47.0,220.0,-7.0,71.0,-4.0,320.0,190.0,955.0
83.0,50.0,224.0,-8.0,71.0,-6.0,316.0,189.0,956.0
85.0,49.0,223.0,-8.0,71.0,-5.0,317.0,192.0,959.0
86.0,49.0,226.0,-8.0,73.0,-5.0,318.0,194.0,960.0
84.0,48.0,225.0,-8.0,71.0,-3.0,318.0,190.0,956.0
83.0,49.0,223.0,-7.0,69.0,-4.0,325.0,191.0,962.0
87.0,50.0,221.0,-5.0,68.0,-2.0,322.0,195.0,955.0
86.0,51.0,219.0,-4.0,67.0,-5.0,315.0,191.0,957.0
86.0,48.0,222.0,-4.0,66.0,-2.0,324.0,193.0,956.0
85.0,48.0,220.0,-4.0,67.0,-6.0,318.0,196.0,955.0
84.0,50.0,222.0,-1.0,65.0,-3.0,321.0,192.0,954.0
85.0,49.0,220.0,0.0,65.0,-6.0,317.0,192.0,956.0
84.0,50.0,223.0,0.0,68.0,-3.0,322.0,192.0,957.0
86.0,48.0,218.0,1.0,67.0,-7.0,318.0,194.0,954.0
84.0,46.0,221.0,1.0,66.0,-5.0,321.0,198.0,958.0
86.0,51.0,223.0,0.0,66.0,-9.0,317.0,195.0,960.0
85.0,49.0,221.0,0.0,68.0,-6.0,311.0,194.0,957.0
82.0,50.0,226.0,-3.0,67.0,-9.0,316.0,194.0,960.0
82.0,52.0,221.0,-3.0,67.0,-7.0,316.0,193.0,957.0
82.0,52.0,221.0,-4.0,67.0,-8.0,314.0,194.0,955.0
84.0,50.0,223.0,-5.0,66.0,-5.0,312.0,194.0,957.0
82.0,50.0,227.0,-7.0,66.0,-6.0,313.0,190.0,961.0
84.0,47.0,222.0,-9.0,66.0,-4.0,312.0,194.0,963.0
84.0,46.0,222.0,-9.0,65.0,-6.0,313.0,187.0,964.0
84.0,49.0,222.0,-10.0,66.0,-2.0,312.0,189.0,966.0
82.0,46.0,226.0,-11.0,65.0,-4.0,316.0,188.0,964.0
87.0,47.0,222.0,-10.0,65.0,-1.0,315.0,191.0,963.0
86.0,47.0,223.0,-10.0,66.0,-2.0,317.0,186.0,960.0
87.0,51.0,225.0,-9.0,65.0,0.0,316.0,189.0,960.0
86.0,50.0,219.0,-7.0,65.0,-1.0,317.0,192.0,958.0
85.0,50.0,223.0,-4.0,66.0,1.0,321.0,194.0,955.0
85.0,49.0,221.0,-4.0,66.0,-1.0,322.0,193.0,954.0
85.0,50.0,223.0,-3.0,65.0,2.0,321.0,195.0,955.0
85.0,52.0,223.0,-3.0,64.0,-1.0,321.0,198.0,959.0
87.0,51.0,224.0,-3.0,66.0,1.0,317.0,199.0,959.0
85.0,52.0,222.0,-4.0,65.0,-3.0,326.0,199.0,959.0
84.0,51.0,221.0,-5.0,66.0,-3.0,323.0,199.0,953.0
87.0,49.0,222.0,-6.0,67.0,-4.0,323.0,197.0,957.0
89.0,51.0,222.0,-6.0,67.0,-3.0,322.0,200.0,954.0
86.0,50.0,223.0,-7.0,69.0,-5.0,327.0,198.0,956.0
85.0,52.0,220.0,-8.0,69.0,-4.0,327.0,198.0,956.0
87.0,52.0,218.0,-8.0,69.0,-7.0,323.0,192.0,957.0
86.0,53.0,222.0,-11.0,70.0,-4.0,321.0,200.0,958.0
88.0,49.0,222.0,-11.0,68.0,-5.0,324.0,193.0,957.0
87.0,50.0,223.0,-10.0,66.0,-4.0,320.0,193.0,956.0
88.0,50.0,223.0,-10.0,66.0,-5.0,326.0,197.0,957.0
84.0,52.0,221.0,-10.0,64.0,-4.0,328.0,194.0,959.0
88.0,51.0,219.0,-9.0,64.0,-3.0,326.0,193.0,959.0
86.0,48.0,221.0,-9.0,62.0,-4.0,327.0,196.0,954.0
86.0,50.0,221.0,-11.0,61.0,-3.0,324.0,197.0,955.0
87.0,47.0,224.0,-11.0,62.0,0.0,323.0,194.0,955.0
86.0,50.0,219.0,-11.0,61.0,-2.0,317.0,194.0,959.0
87.0,51.0,221.0,-13.0,59.0,0.0,319.0,195.0,960.0
86.0,50.0,219.0,-13.0,60.0,-2.0,318.0,199.0,959.0
85.0,52.0,225.0,-13.0,59.0,-2.0,322.0,198.0,955.0
88.0,47.0,223.0,-13.0,60.0,-2.0,325.0,196.0,956.0
85.0,47.0,222.0,-14.0,61.0,-2.0,321.0,197.0,960.0
87.0,50.0,221.0,-14.0,62.0,-4.0,321.0,196.0,959.0
86.0,51.0,226.0,-14.0,63.0,-4.0,320.0,191.0,960.0
87.0,51.0,220.0,-13.0,63.0,-4.0,318.0,196.0,960.0
85.0,50.0,224.0,-14.0,64.0,-3.0,317.0,197.0,961.0
83.0,54.0,224.0,-13.0,66.0,-5.0,317.0,199.0,961.0
86.0,51.0,221.0,-14.0,65.0,-4.0,317.0,196.0,958.0
85.0,49.0,226.0,-14.0,64.0,-5.0,315.0,200.0,962.0
88.0,50.0,225.0,-15.0,65.0,-4.0,315.0,193.0,962.0
85.0,50.0,224.0,-15.0,66.0,-4.0,316.0,196.0,962.0
84.0,51.0,222.0,-15.0,66.0,-5.0,315.0,196.0,962.0
84.0,48.0,225.0,-15.0,65.0,-4.0,316.0,197.0,954.0
88.0,52.0,218.0,-15.0,65.0,-4.0,326.0,193.0,953.0
82.0,53.0,223.0,-14.0,64.0,-4.0,325.0,193.0,958.0
86.0,47.0,224.0,-14.0,64.0,-4.0,324.0,191.0,959.0
85.0,52.0,224.0,-12.0,63.0,-4.0,320.0,193.0,958.0
87.0,45.0,224.0,-11.0,63.0,-3.0,322.0,194.0,956.0
86.0,51.0,221.0,-9.0,62.0,-3.0,327.0,193.0,959.0
86.0,51.0,220.0,-9.0,61.0,-4.0,318.0,192.0,959.0
86.0,49.0,223.0,-8.0,61.0,-4.0,317.0,189.0,957.0
85.0,50.0,221.0,-9.0,63.0,-4.0,318.0,196.0,955.0
82.0,52.0,222.0,-9.0,63.0,-3.0,319.0,195.0,960.0
85.0,50.0,224.0,-7.0,66.0,-4.0,318.0,196.0,958.0
85.0,50.0,225.0,-8.0,66.0,-3.0,316.0,194.0,955.0
85.0,50.0,222.0,-7.0,67.0,-3.0,317.0,190.0,958.0
85.0,48.0,222.0,-8.0,68.0,-2.0,319.0,194.0,958.0
83.0,50.0,223.0,-8.0,68.0,-3.0,321.0,193.0,957.0
83.0,51.0,223.0,-7.0,68.0,-1.0,315.0,190.0,958.0
85.0,51.0,224.0,-8.0,69.0,-2.0,317.0,195.0,960.0
85.0,51.0,223.0,-8.0,68.0,-1.0,319.0,193.0,955.0
83.0,50.0,222.0,-9.0,66.0,-2.0,314.0,196.0,960.0
87.0,48.0,223.0,-10.0,64.0,-1.0,318.0,204.0,957.0
88.0,50.0,220.0,-12.0,64.0,-2.0,317.0,193.0,956.0
84.0,50.0,218.0,-13.0,64.0,-1.0,326.0,195.0,961.0
