acc1_x,acc1_y,acc1_z,gyro_x,gyro_y,gyro_z,acc2_x,acc2_y,acc2_z
3.0,-248.0,42.0,14.0,82.0,-2.0,-12.0,-957.0,225.0
4.0,-251.0,39.0,12.0,84.0,1.0,-8.0,-960.0,228.0
3.0,-250.0,37.0,11.0,84.0,0.0,-7.0,-958.0,219.0
3.0,-249.0,40.0,12.0,85.0,4.0,-5.0,-963.0,226.0
5.0,-251.0,36.0,13.0,87.0,3.0,-13.0,-963.0,223.0
5.0,-252.0,41.0,15.0,86.0,5.0,-10.0,-954.0,217.0
5.0,-248.0,40.0,16.0,84.0,3.0,-9.0,-957.0,219.0
3.0,-248.0,42.0,15.0,84.0,4.0,-8.0,-955.0,220.0
6.0,-250.0,40.0,15.0,83.0,4.0,-7.0,-952.0,224.0
1.0,-246.0,39.0,16.0,82.0,4.0,-11.0,-956.0,222.0
2.0,-251.0,39.0,14.0,82.0,1.0,-11.0,-959.0,222.0
4.0,-249.0,37.0,13.0,81.0,0.0,-10.0,-961.0,226.0
3.0,-250.0,41.0,12.0,80.0,-2.0,-15.0,-959.0,223.0
4.0,-250.0,37.0,11.0,80.0,-1.0,-11.0,-957.0,217.0
1.0,-247.0,42.0,9.0,81.0,-3.0,-12.0,-962.0,219.0
2.0,-248.0,38.0,8.0,80.0,-2.0,-13.0,-956.0,227.0
6.0,-248.0,42.0,8.0,79.0,-4.0,-6.0,-954.0,224.0
4.0,-248.0,38.0,8.0,80.0,-4.0,-9.0,-951.0,224.0
2.0,-249.0,39.0,6.0,82.0,-4.0,-11.0,-949.0,221.0
3.0,-247.0,38.0,3.0,82.0,-4.0,-13.0,-952.0,219.0
5.0,-248.0,41.0,1.0,84.0,-5.0,-15.0,-952.0,219.0
3.0,-247.0,41.0,-2.0,85.0,-2.0,-12.0,-955.0,221.0
3.0,-247.0,39.0,-4.0,86.0,-5.0,-10.0,-952.0,222.0
3.0,-251.0,39.0,-9.0,86.0,-3.0,-15.0,-954.0,225.0
4.0,-250.0,38.0,-12.0,86.0,-5.0,-13.0,-952.0,221.0
5.0,-248.0,37.0,-15.0,84.0,-3.0,-12.0,-953.0,225.0
2.0,-249.0,42.0,-16.0,84.0,-4.0,-13.0,-954.0,220.0
3.0,-252.0,38.0,-16.0,84.0,-5.0,-15.0,-955.0,221.0
1.0,-252.0,35.0,-18.0,84.0,-5.0,-15.0,-954.0,219.0
2.0,-251.0,36.0,-18.0,84.0,-5.0,-11.0,-960.0,223.0
3.0,-252.0,36.0,-17.0,84.0,-7.0,-7.0,-959.0,221.0
2.0,-250.0,34.0,-13.0,85.0,-6.0,-11.0,-960.0,216.0
7.0,-251.0,36.0,-12.0,85.0,-9.0,-4.0,-964.0,223.0
5.0,-250.0,37.0,-9.0,84.0,-7.0,-11.0,-964.0,221.0
3.0,-250.0,38.0,-7.0,83.0,-10.0,-9.0,-964.0,219.0
5.0,-252.0,38.0,-5.0,83.0,-10.0,-7.0,-966.0,221.0
5.0,-249.0,38.0,-4.0,83.0,-13.0,0.0,-968.0,217.0
4.0,-249.0,39.0,-3.0,84.0,-13.0,-4.0,-962.0,220.0
3.0,-252.0,37.0,-1.0,84.0,-15.0,-7.0,-966.0,222.0
6.0,-253.0,39.0,-1.0,84.0,-16.0,-6.0,-967.0,218.0
7.0,-252.0,40.0,1.0,82.0,-19.0,-9.0,-970.0,220.0
5.0,-252.0,38.0,0.0,79.0,-19.0,-6.0,-967.0,224.0
4.0,-252.0,40.0,0.0,80.0,-21.0,-6.0,-962.0,226.0
5.0,-254.0,39.0,1.0,79.0,-19.0,-11.0,-965.0,223.0
3.0,-254.0,43.0,3.0,80.0,-23.0,-9.0,-956.0,228.0
3.0,-249.0,37.0,4.0,79.0,-20.0,-9.0,-959.0,226.0
3.0,-251.0,38.0,5.0,79.0,-23.0,-11.0,-954.0,229.0
4.0,-251.0,37.0,7.0,79.0,-21.0,-7.0,-956.0,226.0
1.0,-248.0,42.0,8.0,80.0,-23.0,-13.0,-959.0,229.0
3.0,-252.0,42.0,11.0,79.0,-20.0,-10.0,-959.0,228.0
1.0,-248.0,40.0,14.0,79.0,-22.0,-10.0,-957.0,228.0
2.0,-248.0,39.0,17.0,79.0,-18.0,-13.0,-957.0,232.0
4.0,-251.0,39.0,19.0,78.0,-19.0,-15.0,-961.0,230.0
3.0,-253.0,42.0,23.0,77.0,-17.0,-6.0,-957.0,228.0
3.0,-251.0,40.0,25.0,76.0,-18.0,-11.0,-951.0,227.0
4.0,-249.0,43.0,27.0,75.0,-17.0,-14.0,-956.0,236.0
2.0,-246.0,40.0,29.0,73.0,-17.0,-7.0,-954.0,231.0
4.0,-248.0,44.0,31.0,73.0,-16.0,-10.0,-950.0,231.0
-1.0,-249.0,42.0,31.0,72.0,-18.0,-15.0,-955.0,229.0
1.0,-246.0,38.0,31.0,71.0,-17.0,-15.0,-948.0,234.0
5.0,-249.0,41.0,27.0,69.0,-18.0,-15.0,-954.0,236.0
3.0,-248.0,38.0,22.0,69.0,-15.0,-13.0,-949.0,232.0
4.0,-249.0,41.0,19.0,67.0,-19.0,-16.0,-950.0,233.0
2.0,-247.0,42.0,13.0,65.0,-16.0,-14.0,-948.0,236.0
1.0,-248.0,42.0,10.0,63.0,-18.0,-7.0,-948.0,236.0
3.0,-248.0,42.0,7.0,60.0,-15.0,-9.0,-945.0,234.0
5.0,-248.0,44.0,2.0,56.0,-18.0,-9.0,-938.0,239.0
5.0,-247.0,42.0,-1.0,52.0,-13.0,-3.0,-943.0,236.0
4.0,-247.0,42.0,-5.0,48.0,-15.0,-7.0,-943.0,236.0
4.0,-246.0,44.0,-12.0,46.0,-13.0,-3.0,-947.0,239.0
6.0,-244.0,40.0,-16.0,42.0,-15.0,-6.0,-944.0,235.0
8.0,-246.0,41.0,-21.0,40.0,-13.0,-8.0,-948.0,234.0
4.0,-247.0,42.0,-25.0,40.0,-14.0,-12.0,-953.0,231.0
3.0,-247.0,45.0,-30.0,39.0,-13.0,-8.0,-954.0,234.0
5.0,-251.0,43.0,-35.0,39.0,-15.0,-9.0,-957.0,229.0
7.0,-251.0,41.0,-38.0,40.0,-12.0,-4.0,-955.0,235.0
3.0,-249.0,38.0,-42.0,42.0,-14.0,-8.0,-948.0,230.0
5.0,-249.0,34.0,-43.0,44.0,-11.0,-7.0,-962.0,229.0
7.0,-255.0,38.0,-43.0,47.0,-12.0,-4.0,-961.0,226.0
3.0,-248.0,41.0,-39.0,50.0,-9.0,-1.0,-958.0,222.0
6.0,-250.0,38.0,-34.0,54.0,-10.0,-1.0,-955.0,227.0
6.0,-249.0,35.0,-31.0,54.0,-8.0,1.0,-961.0,225.0
4.0,-246.0,40.0,-28.0,54.0,-10.0,0.0,-960.0,226.0
8.0,-250.0,35.0,-26.0,55.0,-9.0,0.0,-958.0,226.0
4.0,-251.0,42.0,-27.0,52.0,-12.0,-2.0,-962.0,224.0
7.0,-252.0,39.0,-25.0,53.0,-11.0,-1.0,-961.0,223.0
5.0,-249.0,36.0,-22.0,52.0,-15.0,-1.0,-965.0,226.0
7.0,-250.0,39.0,-20.0,50.0,-15.0,2.0,-958.0,225.0
5.0,-251.0,44.0,-17.0,49.0,-19.0,-3.0,-962.0,227.0
1.0,-251.0,37.0,-15.0,48.0,-16.0,-6.0,-961.0,226.0
5.0,-252.0,43.0,-14.0,46.0,-19.0,-3.0,-955.0,226.0
6.0,-250.0,42.0,-14.0,45.0,-17.0,-8.0,-956.0,226.0
5.0,-250.0,41.0,-13.0,47.0,-19.0,-7.0,-955.0,232.0
5.0,-252.0,44.0,-12.0,48.0,-17.0,-5.0,-960.0,227.0
4.0,-248.0,44.0,-11.0,47.0,-18.0,-3.0,-953.0,222.0
7.0,-247.0,40.0,-12.0,46.0,-15.0,-11.0,-953.0,225.0
6.0,-250.0,40.0,-11.0,46.0,-18.0,-5.0,-956.0,225.0
5.0,-250.0,37.0,-9.0,46.0,-15.0,-4.0,-953.0,228.0
4.0,-250.0,39.0,-9.0,44.0,-17.0,-10.0,-954.0,223.0
5.0,-248.0,41.0,-9.0,44.0,-14.0,-5.0,-954.0,227.0
5.0,-244.0,38.0,-8.0,40.0,-13.0,-5.0,-951.0,225.0
4.0,-248.0,39.0,-9.0,41.0,-12.0,-10.0,-953.0,230.0
7.0,-251.0,42.0,-9.0,41.0,-13.0,-4.0,-957.0,232.0
2.0,-248.0,41.0,-11.0,39.0,-12.0,-4.0,-954.0,229.0
5.0,-249.0,43.0,-12.0,37.0,-15.0,-9.0,-954.0,229.0
5.0,-249.0,39.0,-13.0,36.0,-12.0,-5.0,-951.0,231.0
7.0,-250.0,41.0,-14.0,33.0,-14.0,-2.0,-954.0,230.0
5.0,-246.0,41.0,-16.0,32.0,-11.0,-7.0,-953.0,235.0
5.0,-246.0,43.0,-17.0,33.0,-11.0,-7.0,-945.0,237.0
1.0,-245.0,41.0,-17.0,30.0,-10.0,-8.0,-949.0,238.0
3.0,-248.0,42.0,-19.0,28.0,-11.0,-9.0,-949.0,238.0
3.0,-249.0,43.0,-18.0,28.0,-8.0,-4.0,-952.0,237.0
5.0,-248.0,42.0,-19.0,25.0,-9.0,-13.0,-950.0,245.0
2.0,-250.0,43.0,-20.0,24.0,-7.0,-6.0,-949.0,240.0
1.0,-246.0,42.0,-18.0,24.0,-9.0,-10.0,-949.0,237.0
3.0,-247.0,41.0,-17.0,22.0,-6.0,-14.0,-950.0,238.0
5.0,-246.0,46.0,-19.0,21.0,-8.0,-5.0,-950.0,236.0
3.0,-248.0,44.0,-19.0,19.0,-5.0,-9.0,-948.0,236.0
4.0,-249.0,47.0,-20.0,20.0,-7.0,-9.0,-949.0,238.0
3.0,-249.0,40.0,-20.0,21.0,-6.0,-7.0,-950.0,235.0
5.0,-248.0,38.0,-21.0,23.0,-7.0,-3.0,-949.0,240.0
6.0,-246.0,46.0,-22.0,22.0,-3.0,-4.0,-950.0,236.0
3.0,-244.0,41.0,-24.0,24.0,-6.0,-5.0,-949.0,235.0
7.0,-249.0,40.0,-25.0,27.0,-4.0,-1.0,-952.0,235.0
6.0,-249.0,43.0,-29.0,27.0,-5.0,-2.0,-954.0,234.0
3.0,-248.0,42.0,-32.0,28.0,-5.0,-1.0,-952.0,233.0
6.0,-247.0,41.0,-37.0,29.0,-6.0,-3.0,-950.0,234.0
8.0,-250.0,41.0,-40.0,28.0,-5.0,-1.0,-950.0,231.0
5.0,-245.0,40.0,-44.0,27.0,-5.0,0.0,-951.0,233.0
5.0,-246.0,46.0,-45.0,24.0,-5.0,1.0,-948.0,228.0
4.0,-246.0,41.0,-48.0,20.0,-6.0,-1.0,-947.0,229.0
6.0,-249.0,39.0,-52.0,19.0,-5.0,-3.0,-944.0,230.0
6.0,-248.0,42.0,-53.0,17.0,-6.0,-2.0,-942.0,228.0
6.0,-248.0,37.0,-53.0,16.0,-3.0,0.0,-950.0,228.0
5.0,-249.0,37.0,-54.0,15.0,-4.0,-1.0,-950.0,225.0
6.0,-247.0,41.0,-54.0,15.0,-2.0,-2.0,-949.0,227.0
5.0,-246.0,36.0,-53.0,15.0,-3.0,-2.0,-950.0,226.0
6.0,-247.0,36.0,-55.0,17.0,-3.0,-5.0,-953.0,223.0
4.0,-249.0,40.0,-54.0,21.0,-4.0,-6.0,-952.0,226.0
4.0,-247.0,39.0,-54.0,23.0,-4.0,-2.0,-956.0,224.0
5.0,-249.0,39.0,-52.0,24.0,-6.0,0.0,-955.0,219.0
6.0,-249.0,36.0,-54.0,28.0,-7.0,5.0,-958.0,226.0
7.0,-253.0,35.0,-56.0,28.0,-9.0,3.0,-959.0,223.0
11.0,-253.0,34.0,-56.0,30.0,-10.0,5.0,-963.0,221.0
7.0,-250.0,37.0,-58.0,30.0,-12.0,5.0,-964.0,217.0
8.0,-251.0,36.0,-59.0,30.0,-12.0,11.0,-965.0,219.0
8.0,-253.0,33.0,-62.0,31.0,-15.0,8.0,-962.0,220.0
7.0,-252.0,37.0,-64.0,30.0,-16.0,11.0,-967.0,219.0
10.0,-253.0,37.0,-66.0,30.0,-19.0,6.0,-966.0,219.0
9.0,-253.0,37.0,-67.0,29.0,-19.0,6.0,-968.0,222.0
11.0,-255.0,37.0,-67.0,30.0,-19.0,6.0,-971.0,220.0
8.0,-254.0,39.0,-67.0,31.0,-19.0,7.0,-976.0,216.0
9.0,-252.0,37.0,-67.0,31.0,-19.0,9.0,-967.0,213.0
9.0,-254.0,36.0,-64.0,31.0,-18.0,7.0,-968.0,218.0
10.0,-251.0,35.0,-61.0,33.0,-18.0,7.0,-961.0,219.0
7.0,-251.0,38.0,-57.0,34.0,-18.0,7.0,-953.0,216.0
8.0,-254.0,33.0,-54.0,35.0,-16.0,5.0,-958.0,214.0
5.0,-246.0,39.0,-50.0,35.0,-15.0,3.0,-954.0,218.0
7.0,-249.0,41.0,-46.0,37.0,-12.0,2.0,-956.0,223.0
8.0,-250.0,39.0,-43.0,37.0,-10.0,1.0,-953.0,217.0
6.0,-249.0,38.0,-40.0,36.0,-8.0,0.0,-955.0,216.0
5.0,-248.0,38.0,-38.0,35.0,-8.0,0.0,-958.0,222.0
7.0,-249.0,37.0,-38.0,35.0,-7.0,-4.0,-952.0,224.0
6.0,-248.0,37.0,-37.0,34.0,-7.0,-6.0,-951.0,221.0
3.0,-249.0,40.0,-38.0,34.0,-8.0,-6.0,-952.0,226.0
2.0,-249.0,40.0,-38.0,34.0,-8.0,-4.0,-952.0,226.0
5.0,-249.0,38.0,-39.0,33.0,-8.0,-5.0,-961.0,223.0
3.0,-249.0,38.0,-39.0,32.0,-9.0,-5.0,-954.0,227.0
2.0,-249.0,41.0,-38.0,33.0,-10.0,-8.0,-961.0,224.0
4.0,-247.0,38.0,-39.0,34.0,-11.0,-4.0,-955.0,224.0
3.0,-248.0,39.0,-39.0,34.0,-10.0,-2.0,-953.0,226.0
7.0,-250.0,41.0,-40.0,36.0,-12.0,0.0,-954.0,228.0
7.0,-249.0,39.0,-42.0,37.0,-11.0,0.0,-956.0,225.0
5.0,-254.0,38.0,-41.0,40.0,-9.0,3.0,-957.0,225.0
6.0,-251.0,38.0,-41.0,42.0,-9.0,1.0,-954.0,219.0
8.0,-253.0,37.0,-39.0,43.0,-8.0,1.0,-956.0,220.0
9.0,-251.0,36.0,-38.0,44.0,-6.0,0.0,-952.0,221.0
5.0,-247.0,36.0,-38.0,43.0,-6.0,3.0,-953.0,220.0
6.0,-249.0,36.0,-37.0,45.0,-4.0,2.0,-955.0,221.0
8.0,-249.0,38.0,-39.0,47.0,-5.0,4.0,-954.0,216.0
4.0,-248.0,39.0,-39.0,48.0,-4.0,2.0,-959.0,219.0
6.0,-248.0,34.0,-40.0,50.0,-4.0,6.0,-956.0,218.0
8.0,-249.0,39.0,-38.0,51.0,-4.0,10.0,-955.0,217.0
9.0,-249.0,38.0,-39.0,52.0,-4.0,5.0,-950.0,218.0
8.0,-248.0,35.0,-38.0,53.0,-5.0,8.0,-953.0,220.0
9.0,-247.0,37.0,-39.0,54.0,-8.0,9.0,-956.0,217.0
9.0,-248.0,36.0,-39.0,55.0,-7.0,6.0,-955.0,222.0
8.0,-249.0,34.0,-37.0,57.0,-8.0,5.0,-959.0,219.0
9.0,-248.0,37.0,-35.0,58.0,-6.0,6.0,-959.0,214.0
9.0,-249.0,37.0,-33.0,59.0,-7.0,7.0,-957.0,218.0
6.0,-251.0,34.0,-29.0,61.0,-7.0,6.0,-958.0,214.0
8.0,-250.0,37.0,-26.0,63.0,-7.0,4.0,-953.0,216.0
8.0,-249.0,37.0,-24.0,66.0,-6.0,5.0,-951.0,217.0
8.0,-248.0,37.0,-20.0,65.0,-6.0,5.0,-954.0,213.0
5.0,-250.0,35.0,-17.0,68.0,-2.0,6.0,-951.0,219.0
10.0,-251.0,36.0,-14.0,68.0,-3.0,1.0,-949.0,218.0
9.0,-248.0,38.0,-14.0,69.0,0.0,3.0,-954.0,217.0
9.0,-246.0,38.0,-12.0,70.0,-1.0,4.0,-956.0,211.0
4.0,-247.0,36.0,-12.0,69.0,2.0,8.0,-952.0,218.0
6.0,-247.0,35.0,-10.0,69.0,3.0,4.0,-954.0,221.0
7.0,-250.0,37.0,-11.0,69.0,4.0,-1.0,-954.0,215.0
7.0,-252.0,40.0,-10.0,68.0,4.0,3.0,-956.0,220.0
5.0,-249.0,34.0,-11.0,67.0,7.0,1.0,-956.0,218.0
7.0,-250.0,41.0,-12.0,66.0,6.0,0.0,-957.0,218.0
6.0,-253.0,39.0,-12.0,67.0,8.0,-4.0,-956.0,218.0
4.0,-252.0,36.0,-11.0,67.0,4.0,0.0,-955.0,218.0
3.0,-249.0,37.0,-8.0,68.0,5.0,-1.0,-956.0,217.0
6.0,-250.0,37.0,-7.0,68.0,4.0,-2.0,-959.0,215.0
4.0,-250.0,39.0,-7.0,68.0,5.0,-6.0,-959.0,214.0
5.0,-251.0,37.0,-7.0,68.0,4.0,-4.0,-962.0,216.0
2.0,-248.0,36.0,-8.0,68.0,6.0,-5.0,-954.0,217.0
5.0,-250.0,35.0,-11.0,68.0,4.0,-9.0,-958.0,215.0
3.0,-251.0,35.0,-14.0,66.0,7.0,-8.0,-959.0,213.0
3.0,-249.0,34.0,-21.0,63.0,4.0,-8.0,-954.0,211.0
3.0,-251.0,33.0,-27.0,58.0,5.0,-9.0,-952.0,212.0
4.0,-248.0,35.0,-38.0,54.0,2.0,-9.0,-950.0,209.0
4.0,-245.0,34.0,-45.0,49.0,5.0,-5.0,-945.0,210.0
5.0,-243.0,37.0,-55.0,43.0,1.0,-5.0,-943.0,208.0
4.0,-244.0,37.0,-63.0,39.0,3.0,-1.0,-930.0,211.0
6.0,-245.0,37.0,-74.0,33.0,0.0,3.0,-939.0,217.0
7.0,-243.0,36.0,-82.0,29.0,1.0,6.0,-940.0,216.0
6.0,-244.0,36.0,-92.0,26.0,0.0,3.0,-938.0,216.0
6.0,-245.0,39.0,-101.0,25.0,1.0,4.0,-940.0,223.0
8.0,-246.0,37.0,-108.0,28.0,-1.0,6.0,-947.0,221.0
8.0,-247.0,38.0,-120.0,32.0,3.0,4.0,-951.0,222.0
7.0,-249.0,40.0,-126.0,34.0,1.0,0.0,-952.0,225.0
6.0,-247.0,42.0,-131.0,40.0,2.0,2.0,-956.0,223.0
8.0,-250.0,38.0,-135.0,45.0,-1.0,6.0,-959.0,223.0
5.0,-250.0,41.0,-135.0,49.0,1.0,0.0,-964.0,221.0
7.0,-253.0,36.0,-132.0,55.0,-3.0,5.0,-964.0,219.0
11.0,-256.0,37.0,-128.0,59.0,0.0,0.0,-967.0,216.0
7.0,-253.0,35.0,-118.0,65.0,-3.0,-2.0,-968.0,212.0
3.0,-255.0,33.0,-109.0,70.0,0.0,-1.0,-979.0,207.0
5.0,-256.0,28.0,-96.0,73.0,-4.0,0.0,-969.0,200.0
5.0,-255.0,34.0,-80.0,75.0,0.0,-2.0,-977.0,196.0
5.0,-258.0,33.0,-67.0,73.0,-4.0,-6.0,-975.0,193.0
2.0,-253.0,29.0,-55.0,67.0,-2.0,-4.0,-970.0,190.0
4.0,-253.0,30.0,-43.0,64.0,-7.0,-2.0,-969.0,194.0
6.0,-252.0,30.0,-35.0,56.0,-5.0,-3.0,-973.0,193.0
5.0,-254.0,29.0,-27.0,49.0,-8.0,-6.0,-969.0,196.0
4.0,-253.0,29.0,-22.0,42.0,-8.0,-3.0,-963.0,196.0
4.0,-251.0,32.0,-17.0,37.0,-12.0,0.0,-966.0,199.0
7.0,-252.0,34.0,-16.0,34.0,-10.0,-4.0,-962.0,206.0
6.0,-252.0,34.0,-12.0,31.0,-13.0,-3.0,-963.0,208.0
7.0,-249.0,36.0,-11.0,31.0,-12.0,-3.0,-955.0,208.0
6.0,-249.0,33.0,-13.0,33.0,-13.0,2.0,-952.0,215.0
6.0,-248.0,34.0,-16.0,36.0,-10.0,2.0,-954.0,217.0
9.0,-247.0,36.0,-21.0,43.0,-13.0,5.0,-949.0,216.0
7.0,-247.0,34.0,-24.0,45.0,-10.0,3.0,-947.0,215.0
10.0,-248.0,37.0,-30.0,50.0,-14.0,5.0,-946.0,216.0
10.0,-248.0,37.0,-35.0,56.0,-10.0,8.0,-940.0,211.0
8.0,-244.0,35.0,-40.0,61.0,-13.0,10.0,-942.0,213.0
8.0,-247.0,39.0,-43.0,67.0,-9.0,13.0,-938.0,208.0
13.0,-248.0,39.0,-46.0,69.0,-10.0,16.0,-945.0,211.0
11.0,-249.0,33.0,-48.0,71.0,-9.0,13.0,-947.0,208.0
9.0,-246.0,30.0,-47.0,74.0,-9.0,15.0,-948.0,203.0
10.0,-247.0,33.0,-47.0,75.0,-7.0,16.0,-951.0,199.0
11.0,-251.0,33.0,-45.0,77.0,-9.0,12.0,-959.0,199.0
9.0,-252.0,32.0,-45.0,80.0,-8.0,11.0,-962.0,200.0
10.0,-253.0,35.0,-42.0,81.0,-9.0,9.0,-970.0,195.0
10.0,-253.0,36.0,-36.0,84.0,-6.0,9.0,-967.0,200.0
5.0,-250.0,33.0,-33.0,86.0,-9.0,9.0,-973.0,200.0
10.0,-255.0,31.0,-28.0,88.0,-7.0,6.0,-968.0,200.0
6.0,-253.0,31.0,-25.0,92.0,-12.0,4.0,-976.0,200.0
8.0,-257.0,36.0,-26.0,94.0,-11.0,2.0,-976.0,202.0
7.0,-254.0,36.0,-28.0,95.0,-16.0,0.0,-979.0,204.0
5.0,-255.0,36.0,-33.0,101.0,-19.0,-1.0,-989.0,208.0
7.0,-255.0,32.0,-39.0,103.0,-23.0,-3.0,-990.0,206.0
8.0,-257.0,33.0,-46.0,106.0,-25.0,-2.0,-989.0,208.0
7.0,-256.0,38.0,-53.0,109.0,-32.0,-1.0,-997.0,207.0
6.0,-257.0,35.0,-59.0,111.0,-34.0,5.0,-991.0,207.0
5.0,-256.0,35.0,-64.0,113.0,-38.0,5.0,-991.0,208.0
8.0,-257.0,34.0,-68.0,115.0,-38.0,1.0,-981.0,210.0
9.0,-253.0,37.0,-68.0,116.0,-43.0,6.0,-972.0,208.0
8.0,-253.0,34.0,-65.0,118.0,-40.0,11.0,-967.0,208.0
9.0,-252.0,34.0,-59.0,120.0,-41.0,11.0,-965.0,207.0
11.0,-251.0,37.0,-52.0,121.0,-37.0,11.0,-957.0,206.0
8.0,-249.0,37.0,-45.0,121.0,-35.0,13.0,-960.0,205.0
8.0,-252.0,33.0,-41.0,121.0,-30.0,9.0,-962.0,201.0
9.0,-252.0,35.0,-35.0,120.0,-31.0,12.0,-958.0,204.0
9.0,-254.0,33.0,-29.0,120.0,-25.0,11.0,-966.0,203.0
10.0,-250.0,33.0,-24.0,119.0,-23.0,7.0,-965.0,201.0
7.0,-253.0,31.0,-22.0,119.0,-19.0,5.0,-971.0,198.0
7.0,-252.0,30.0,-21.0,122.0,-20.0,3.0,-969.0,195.0
5.0,-252.0,30.0,-21.0,122.0,-19.0,-1.0,-969.0,201.0
3.0,-252.0,33.0,-24.0,121.0,-22.0,0.0,-979.0,198.0
6.0,-252.0,30.0,-25.0,122.0,-20.0,-8.0,-972.0,196.0
5.0,-256.0,33.0,-26.0,122.0,-22.0,-2.0,-972.0,194.0
6.0,-251.0,32.0,-25.0,122.0,-21.0,-6.0,-972.0,194.0
3.0,-250.0,27.0,-22.0,123.0,-22.0,-4.0,-968.0,188.0
5.0,-251.0,31.0,-17.0,122.0,-19.0,-6.0,-966.0,191.0
3.0,-249.0,32.0,-11.0,119.0,-18.0,-5.0,-957.0,191.0
5.0,-250.0,31.0,-6.0,117.0,-14.0,1.0,-951.0,192.0
6.0,-249.0,30.0,1.0,115.0,-12.0,-5.0,-951.0,190.0
5.0,-246.0,33.0,9.0,112.0,-7.0,-4.0,-952.0,196.0
1.0,-247.0,32.0,13.0,110.0,-6.0,0.0,-949.0,190.0
6.0,-248.0,26.0,18.0,105.0,-2.0,-2.0,-949.0,195.0
7.0,-246.0,33.0,21.0,103.0,0.0,0.0,-949.0,192.0
5.0,-248.0,32.0,26.0,98.0,4.0,-1.0,-950.0,194.0
9.0,-248.0,33.0,28.0,94.0,7.0,-2.0,-955.0,199.0
5.0,-250.0,33.0,31.0,90.0,11.0,2.0,-954.0,199.0
4.0,-247.0,31.0,30.0,86.0,12.0,-1.0,-954.0,207.0
6.0,-250.0,31.0,32.0,81.0,16.0,-3.0,-957.0,207.0
5.0,-251.0,37.0,31.0,79.0,16.0,-1.0,-959.0,206.0
3.0,-249.0,33.0,31.0,77.0,19.0,-11.0,-963.0,208.0
2.0,-251.0,35.0,29.0,75.0,18.0,-12.0,-962.0,204.0
4.0,-254.0,35.0,24.0,73.0,19.0,-11.0,-956.0,202.0
6.0,-250.0,35.0,19.0,73.0,17.0,-9.0,-957.0,198.0
3.0,-249.0,33.0,12.0,71.0,17.0,-13.0,-956.0,201.0
5.0,-251.0,37.0,-1.0,72.0,16.0,-8.0,-956.0,202.0
3.0,-248.0,28.0,-15.0,71.0,14.0,-11.0,-947.0,198.0
2.0,-244.0,33.0,-29.0,70.0,10.0,-10.0,-947.0,201.0
1.0,-247.0,32.0,-39.0,69.0,9.0,-11.0,-944.0,202.0
2.0,-248.0,37.0,-49.0,67.0,6.0,-11.0,-945.0,204.0
5.0,-245.0,33.0,-56.0,67.0,6.0,-10.0,-939.0,205.0
5.0,-246.0,35.0,-57.0,67.0,1.0,-8.0,-934.0,204.0
6.0,-249.0,32.0,-58.0,70.0,0.0,-7.0,-935.0,209.0
6.0,-244.0,36.0,-58.0,69.0,-3.0,-3.0,-935.0,205.0
9.0,-247.0,36.0,-58.0,70.0,-3.0,2.0,-941.0,207.0
10.0,-248.0,32.0,-57.0,74.0,-4.0,3.0,-951.0,207.0
7.0,-247.0,32.0,-59.0,74.0,-3.0,8.0,-951.0,205.0
9.0,-253.0,33.0,-58.0,76.0,-4.0,10.0,-962.0,199.0
10.0,-253.0,33.0,-59.0,79.0,-3.0,16.0,-969.0,204.0
10.0,-251.0,33.0,-60.0,80.0,-3.0,9.0,-972.0,198.0
10.0,-255.0,32.0,-58.0,83.0,-2.0,8.0,-986.0,203.0
9.0,-254.0,30.0,-55.0,85.0,-3.0,10.0,-980.0,199.0
9.0,-257.0,31.0,-54.0,86.0,1.0,6.0,-995.0,199.0
7.0,-258.0,32.0,-52.0,87.0,0.0,7.0,-991.0,202.0
7.0,-258.0,32.0,-49.0,87.0,0.0,4.0,-987.0,196.0
7.0,-258.0,34.0,-45.0,87.0,1.0,3.0,-985.0,198.0
4.0,-254.0,29.0,-41.0,88.0,1.0,0.0,-977.0,204.0
4.0,-257.0,31.0,-37.0,89.0,2.0,1.0,-982.0,197.0
5.0,-255.0,31.0,-31.0,88.0,3.0,-2.0,-971.0,195.0
5.0,-254.0,30.0,-28.0,86.0,3.0,-2.0,-973.0,195.0
5.0,-251.0,33.0,-24.0,87.0,5.0,-4.0,-968.0,190.0
4.0,-251.0,28.0,-20.0,86.0,5.0,-5.0,-963.0,195.0
3.0,-248.0,29.0,-19.0,85.0,6.0,-2.0,-960.0,193.0
3.0,-249.0,29.0,-14.0,83.0,6.0,-8.0,-956.0,195.0
1.0,-251.0,33.0,-12.0,83.0,6.0,-5.0,-960.0,193.0
2.0,-250.0,32.0,-9.0,82.0,9.0,-2.0,-955.0,196.0
4.0,-249.0,29.0,-7.0,80.0,9.0,-6.0,-951.0,195.0
4.0,-249.0,29.0,-2.0,80.0,10.0,-2.0,-948.0,194.0
4.0,-247.0,29.0,0.0,78.0,11.0,-6.0,-950.0,198.0
6.0,-246.0,29.0,1.0,75.0,12.0,-5.0,-950.0,194.0
6.0,-248.0,27.0,5.0,74.0,13.0,-7.0,-945.0,194.0
4.0,-246.0,29.0,7.0,73.0,14.0,-7.0,-944.0,202.0
5.0,-250.0,29.0,9.0,72.0,15.0,-5.0,-953.0,202.0
5.0,-247.0,31.0,9.0,71.0,18.0,-6.0,-950.0,196.0
3.0,-251.0,31.0,10.0,71.0,19.0,-7.0,-954.0,199.0
4.0,-246.0,33.0,11.0,71.0,23.0,-11.0,-962.0,198.0
3.0,-247.0,32.0,10.0,69.0,23.0,-7.0,-955.0,198.0
3.0,-250.0,31.0,10.0,67.0,24.0,-11.0,-965.0,199.0
6.0,-252.0,33.0,13.0,67.0,24.0,-10.0,-966.0,197.0
3.0,-252.0,31.0,16.0,66.0,23.0,-11.0,-968.0,197.0
4.0,-254.0,32.0,17.0,66.0,25.0,-12.0,-970.0,200.0
4.0,-254.0,33.0,20.0,65.0,28.0,-11.0,-971.0,199.0
2.0,-253.0,33.0,23.0,64.0,27.0,-13.0,-972.0,199.0
3.0,-254.0,29.0,25.0,65.0,29.0,-14.0,-971.0,198.0
1.0,-254.0,33.0,27.0,63.0,27.0,-16.0,-973.0,200.0
1.0,-254.0,31.0,28.0,62.0,28.0,-17.0,-977.0,198.0
2.0,-257.0,32.0,30.0,61.0,26.0,-16.0,-974.0,195.0
1.0,-252.0,30.0,31.0,60.0,26.0,-18.0,-975.0,198.0
2.0,-252.0,29.0,32.0,60.0,23.0,-19.0,-973.0,201.0
3.0,-255.0,34.0,33.0,58.0,23.0,-15.0,-969.0,202.0
0.0,-252.0,33.0,34.0,58.0,21.0,-20.0,-968.0,201.0
1.0,-250.0,30.0,35.0,54.0,20.0,-20.0,-966.0,208.0
-1.0,-248.0,33.0,39.0,54.0,18.0,-15.0,-963.0,207.0
3.0,-251.0,31.0,42.0,53.0,19.0,-14.0,-965.0,204.0
2.0,-250.0,36.0,44.0,50.0,17.0,-14.0,-964.0,202.0
0.0,-252.0,34.0,44.0,48.0,18.0,-8.0,-964.0,208.0
3.0,-252.0,33.0,47.0,45.0,17.0,-11.0,-963.0,209.0
1.0,-250.0,32.0,49.0,43.0,17.0,-15.0,-960.0,208.0
1.0,-251.0,35.0,47.0,41.0,15.0,-11.0,-959.0,211.0
2.0,-253.0,34.0,47.0,39.0,17.0,-9.0,-959.0,209.0
5.0,-251.0,38.0,46.0,38.0,16.0,-12.0,-961.0,211.0
0.0,-250.0,33.0,43.0,39.0,19.0,-8.0,-957.0,209.0
4.0,-249.0,38.0,39.0,40.0,20.0,-11.0,-957.0,209.0
4.0,-250.0,34.0,37.0,42.0,25.0,-7.0,-955.0,212.0
4.0,-248.0,32.0,39.0,44.0,25.0,-7.0,-955.0,211.0
4.0,-248.0,35.0,38.0,46.0,29.0,-3.0,-952.0,210.0
6.0,-250.0,34.0,39.0,48.0,30.0,-3.0,-951.0,210.0
3.0,-248.0,36.0,41.0,50.0,35.0,2.0,-949.0,209.0
7.0,-248.0,36.0,40.0,52.0,35.0,-6.0,-952.0,212.0
8.0,-247.0,35.0,39.0,53.0,38.0,-3.0,-949.0,211.0
0.0,-246.0,36.0,38.0,50.0,37.0,-2.0,-947.0,214.0
4.0,-250.0,35.0,39.0,48.0,38.0,-3.0,-950.0,218.0
5.0,-242.0,29.0,43.0,45.0,37.0,-15.0,-948.0,212.0
-5.0,-251.0,47.0,46.0,42.0,38.0,-11.0,-950.0,216.0
5.0,-257.0,30.0,51.0,37.0,33.0,-16.0,-946.0,217.0
10.0,-247.0,40.0,53.0,35.0,33.0,-15.0,-953.0,213.0
2.0,-249.0,23.0,55.0,32.0,30.0,-16.0,-949.0,221.0
1.0,-249.0,38.0,54.0,29.0,29.0,-17.0,-952.0,219.0
3.0,-248.0,38.0,54.0,27.0,27.0,-18.0,-954.0,221.0
2.0,-250.0,41.0,51.0,27.0,27.0,-16.0,-953.0,225.0
5.0,-247.0,42.0,50.0,26.0,24.0,-16.0,-954.0,223.0
5.0,-251.0,39.0,46.0,28.0,26.0,-14.0,-953.0,223.0
1.0,-250.0,40.0,44.0,29.0,24.0,-14.0,-957.0,218.0
4.0,-251.0,39.0,43.0,31.0,27.0,-14.0,-956.0,225.0
2.0,-250.0,41.0,42.0,33.0,26.0,-7.0,-954.0,227.0
1.0,-252.0,35.0,38.0,35.0,29.0,-11.0,-962.0,224.0
4.0,-252.0,43.0,36.0,35.0,27.0,-10.0,-960.0,220.0
3.0,-250.0,37.0,32.0,37.0,31.0,-10.0,-959.0,220.0
5.0,-253.0,38.0,29.0,38.0,31.0,-12.0,-959.0,219.0
3.0,-249.0,35.0,22.0,40.0,33.0,-15.0,-960.0,218.0
2.0,-250.0,37.0,18.0,41.0,31.0,-14.0,-959.0,219.0
0.0,-249.0,41.0,13.0,40.0,32.0,-8.0,-955.0,220.0
3.0,-250.0,38.0,10.0,39.0,27.0,-10.0,-959.0,216.0
5.0,-248.0,34.0,8.0,39.0,28.0,-15.0,-956.0,221.0
4.0,-248.0,35.0,4.0,39.0,23.0,-17.0,-956.0,219.0
2.0,-252.0,36.0,1.0,37.0,22.0,-15.0,-953.0,227.0
2.0,-251.0,39.0,0.0,36.0,18.0,-16.0,-959.0,226.0
0.0,-247.0,38.0,-3.0,35.0,19.0,-16.0,-959.0,231.0
3.0,-252.0,40.0,-4.0,31.0,14.0,-14.0,-964.0,227.0
1.0,-253.0,41.0,-3.0,29.0,16.0,-17.0,-960.0,225.0
1.0,-251.0,40.0,-4.0,27.0,11.0,-15.0,-965.0,228.0
1.0,-249.0,41.0,-7.0,26.0,13.0,-13.0,-964.0,222.0
1.0,-250.0,40.0,-8.0,25.0,9.0,-17.0,-963.0,225.0
2.0,-254.0,38.0,-10.0,24.0,12.0,-18.0,-965.0,225.0
0.0,-252.0,34.0,-14.0,24.0,7.0,-16.0,-959.0,224.0
3.0,-251.0,43.0,-16.0,23.0,9.0,-16.0,-967.0,222.0
3.0,-252.0,35.0,-19.0,23.0,7.0,-14.0,-965.0,223.0
1.0,-253.0,38.0,-21.0,25.0,10.0,-16.0,-966.0,222.0
4.0,-253.0,37.0,-24.0,27.0,8.0,-14.0,-965.0,225.0
7.0,-254.0,39.0,-26.0,30.0,10.0,-13.0,-965.0,217.0
4.0,-251.0,36.0,-27.0,31.0,6.0,-6.0,-968.0,218.0
5.0,-253.0,33.0,-27.0,32.0,8.0,-6.0,-960.0,216.0
2.0,-253.0,37.0,-28.0,34.0,6.0,-6.0,-963.0,213.0
0.0,-250.0,35.0,-27.0,36.0,8.0,-8.0,-966.0,211.0
5.0,-255.0,37.0,-25.0,36.0,5.0,-6.0,-966.0,211.0
2.0,-250.0,32.0,-23.0,37.0,8.0,-12.0,-964.0,210.0
16.0,-241.0,31.0,-19.0,37.0,5.0,-8.0,-963.0,216.0
6.0,-250.0,36.0,-14.0,38.0,8.0,-7.0,-961.0,211.0
4.0,-250.0,37.0,-11.0,36.0,8.0,-7.0,-964.0,213.0
3.0,-250.0,38.0,-9.0,36.0,9.0,-4.0,-955.0,212.0
6.0,-253.0,36.0,-4.0,34.0,7.0,-8.0,-962.0,210.0
4.0,-251.0,37.0,-1.0,34.0,9.0,-4.0,-956.0,215.0
2.0,-249.0,35.0,2.0,33.0,9.0,-6.0,-960.0,217.0
4.0,-250.0,34.0,5.0,32.0,12.0,-6.0,-958.0,213.0
4.0,-249.0,35.0,8.0,31.0,10.0,-7.0,-955.0,214.0
4.0,-250.0,37.0,12.0,31.0,13.0,-8.0,-958.0,217.0
5.0,-250.0,37.0,14.0,30.0,11.0,-7.0,-954.0,218.0
4.0,-250.0,38.0,15.0,29.0,16.0,-11.0,-953.0,220.0
5.0,-251.0,38.0,15.0,30.0,15.0,-4.0,-953.0,221.0
5.0,-249.0,36.0,14.0,30.0,17.0,-3.0,-956.0,221.0
6.0,-248.0,37.0,13.0,31.0,16.0,-10.0,-956.0,217.0
4.0,-253.0,38.0,11.0,32.0,18.0,-8.0,-960.0,223.0
3.0,-251.0,37.0,10.0,33.0,16.0,-4.0,-958.0,220.0
2.0,-247.0,39.0,8.0,35.0,19.0,-7.0,-962.0,220.0
4.0,-249.0,41.0,7.0,36.0,15.0,-5.0,-960.0,222.0
6.0,-249.0,36.0,8.0,39.0,18.0,-2.0,-960.0,220.0
5.0,-251.0,39.0,6.0,40.0,17.0,-8.0,-952.0,221.0
7.0,-252.0,41.0,5.0,42.0,20.0,-7.0,-954.0,222.0
4.0,-251.0,36.0,4.0,44.0,18.0,-3.0,-953.0,219.0
3.0,-249.0,39.0,3.0,46.0,20.0,-6.0,-954.0,220.0
3.0,-248.0,38.0,-1.0,48.0,20.0,-7.0,-953.0,221.0
3.0,-247.0,36.0,-5.0,49.0,23.0,-7.0,-955.0,219.0
5.0,-246.0,36.0,-11.0,49.0,21.0,-7.0,-956.0,220.0
2.0,-246.0,38.0,-16.0,49.0,25.0,-8.0,-958.0,217.0
7.0,-250.0,40.0,-19.0,47.0,22.0,-12.0,-959.0,219.0
3.0,-252.0,38.0,-24.0,47.0,23.0,-14.0,-963.0,219.0
3.0,-254.0,36.0,-24.0,46.0,21.0,-13.0,-965.0,220.0
0.0,-251.0,39.0,-24.0,45.0,22.0,-11.0,-961.0,215.0
3.0,-251.0,37.0,-24.0,44.0,19.0,-12.0,-962.0,214.0
6.0,-252.0,36.0,-25.0,45.0,18.0,-14.0,-966.0,214.0
2.0,-252.0,36.0,-25.0,43.0,14.0,-17.0,-956.0,212.0
0.0,-252.0,39.0,-24.0,44.0,14.0,-17.0,-957.0,212.0
2.0,-250.0,36.0,-25.0,46.0,12.0,-24.0,-964.0,215.0
1.0,-251.0,35.0,-27.0,47.0,12.0,-18.0,-955.0,212.0
-1.0,-249.0,38.0,-29.0,48.0,8.0,-16.0,-962.0,209.0
1.0,-250.0,32.0,-37.0,48.0,8.0,-15.0,-955.0,213.0
4.0,-247.0,36.0,-44.0,48.0,6.0,-17.0,-953.0,208.0
3.0,-249.0,35.0,-52.0,49.0,8.0,-13.0,-957.0,213.0
1.0,-246.0,33.0,-59.0,49.0,7.0,-16.0,-953.0,206.0
6.0,-250.0,34.0,-66.0,53.0,7.0,-19.0,-953.0,211.0
4.0,-249.0,39.0,-71.0,53.0,7.0,-15.0,-952.0,211.0
4.0,-249.0,34.0,-76.0,57.0,10.0,-11.0,-955.0,210.0
2.0,-249.0,36.0,-76.0,58.0,9.0,-14.0,-953.0,211.0
3.0,-250.0,33.0,-76.0,61.0,12.0,-9.0,-952.0,210.0
2.0,-247.0,37.0,-76.0,60.0,12.0,-11.0,-952.0,209.0
5.0,-249.0,33.0,-78.0,59.0,14.0,-10.0,-954.0,207.0
1.0,-251.0,36.0,-79.0,59.0,13.0,-15.0,-954.0,209.0
1.0,-250.0,34.0,-79.0,56.0,13.0,-14.0,-951.0,209.0
4.0,-249.0,33.0,-79.0,53.0,12.0,-13.0,-957.0,207.0
0.0,-251.0,33.0,-77.0,52.0,12.0,-22.0,-960.0,208.0
3.0,-251.0,33.0,-76.0,49.0,9.0,-14.0,-956.0,205.0
3.0,-253.0,34.0,-77.0,44.0,9.0,-17.0,-954.0,209.0
-1.0,-252.0,32.0,-76.0,43.0,6.0,-18.0,-955.0,206.0
1.0,-250.0,35.0,-76.0,40.0,7.0,-17.0,-958.0,205.0
1.0,-251.0,33.0,-76.0,40.0,6.0,-20.0,-964.0,204.0
2.0,-249.0,31.0,-77.0,39.0,6.0,-20.0,-963.0,205.0
2.0,-253.0,35.0,-76.0,39.0,5.0,-20.0,-961.0,205.0
1.0,-249.0,28.0,-77.0,40.0,5.0,-17.0,-967.0,205.0
1.0,-249.0,30.0,-76.0,43.0,4.0,-18.0,-964.0,204.0
2.0,-252.0,32.0,-77.0,43.0,3.0,-16.0,-967.0,206.0
1.0,-254.0,31.0,-76.0,46.0,1.0,-17.0,-968.0,203.0
1.0,-251.0,33.0,-75.0,50.0,1.0,-13.0,-963.0,205.0
4.0,-253.0,33.0,-74.0,49.0,0.0,-14.0,-966.0,202.0
3.0,-254.0,33.0,-72.0,53.0,-1.0,-17.0,-967.0,202.0
1.0,-254.0,33.0,-73.0,54.0,-2.0,-15.0,-966.0,201.0
5.0,-254.0,37.0,-71.0,57.0,-4.0,-7.0,-964.0,206.0
1.0,-251.0,33.0,-68.0,56.0,-4.0,-15.0,-962.0,208.0
1.0,-253.0,34.0,-64.0,58.0,-5.0,-14.0,-962.0,202.0
3.0,-253.0,30.0,-62.0,58.0,-7.0,-15.0,-956.0,202.0
2.0,-250.0,33.0,-61.0,59.0,-5.0,-13.0,-961.0,203.0
1.0,-252.0,36.0,-59.0,57.0,-7.0,-13.0,-961.0,207.0
3.0,-252.0,34.0,-59.0,55.0,-7.0,-13.0,-958.0,206.0
-1.0,-251.0,33.0,-58.0,54.0,-6.0,-14.0,-964.0,205.0
2.0,-250.0,35.0,-56.0,51.0,-8.0,-16.0,-965.0,206.0
2.0,-248.0,33.0,-56.0,51.0,-8.0,-13.0,-964.0,207.0
6.0,-251.0,31.0,-55.0,49.0,-10.0,-15.0,-963.0,203.0
3.0,-254.0,32.0,-53.0,48.0,-11.0,-15.0,-965.0,204.0
0.0,-252.0,33.0,-50.0,47.0,-11.0,-14.0,-964.0,200.0
4.0,-252.0,31.0,-48.0,47.0,-12.0,-10.0,-965.0,198.0
0.0,-252.0,30.0,-45.0,49.0,-13.0,-15.0,-964.0,198.0
2.0,-253.0,33.0,-42.0,52.0,-13.0,-15.0,-965.0,198.0
3.0,-252.0,31.0,-42.0,54.0,-15.0,-17.0,-961.0,198.0
3.0,-251.0,33.0,-40.0,58.0,-16.0,-17.0,-965.0,200.0
3.0,-253.0,33.0,-38.0,59.0,-18.0,-17.0,-965.0,199.0
5.0,-252.0,32.0,-36.0,64.0,-18.0,-14.0,-969.0,196.0
-1.0,-252.0,30.0,-36.0,66.0,-19.0,-16.0,-962.0,196.0
2.0,-251.0,33.0,-38.0,68.0,-19.0,-12.0,-966.0,200.0
2.0,-250.0,30.0,-40.0,70.0,-19.0,-11.0,-961.0,199.0
2.0,-250.0,31.0,-42.0,70.0,-18.0,-15.0,-955.0,198.0
1.0,-248.0,33.0,-41.0,70.0,-19.0,-16.0,-957.0,202.0
1.0,-250.0,33.0,-43.0,68.0,-17.0,-10.0,-958.0,197.0
3.0,-249.0,29.0,-44.0,67.0,-18.0,-10.0,-954.0,200.0
5.0,-252.0,32.0,-42.0,62.0,-18.0,-14.0,-960.0,201.0
3.0,-253.0,34.0,-43.0,60.0,-18.0,-15.0,-954.0,198.0
0.0,-249.0,32.0,-41.0,57.0,-16.0,-14.0,-962.0,202.0
2.0,-249.0,31.0,-38.0,54.0,-17.0,-11.0,-957.0,200.0
2.0,-248.0,32.0,-37.0,53.0,-16.0,-18.0,-960.0,202.0
0.0,-250.0,32.0,-36.0,51.0,-16.0,-19.0,-958.0,200.0
4.0,-252.0,32.0,-37.0,49.0,-14.0,-15.0,-961.0,200.0
2.0,-252.0,31.0,-34.0,49.0,-14.0,-18.0,-962.0,204.0
1.0,-248.0,33.0,-33.0,51.0,-12.0,-18.0,-960.0,199.0
0.0,-250.0,35.0,-33.0,51.0,-14.0,-19.0,-956.0,197.0
2.0,-250.0,34.0,-33.0,51.0,-12.0,-16.0,-954.0,195.0
2.0,-251.0,26.0,-34.0,51.0,-13.0,-16.0,-967.0,197.0
1.0,-252.0,28.0,-33.0,52.0,-12.0,-16.0,-960.0,203.0
1.0,-252.0,33.0,-33.0,51.0,-13.0,-15.0,-961.0,198.0
2.0,-253.0,33.0,-33.0,52.0,-11.0,-14.0,-961.0,202.0
2.0,-250.0,32.0,-35.0,51.0,-12.0,-14.0,-961.0,199.0
4.0,-251.0,32.0,-36.0,52.0,-10.0,-15.0,-965.0,200.0
3.0,-253.0,28.0,-36.0,50.0,-12.0,-14.0,-963.0,202.0
3.0,-252.0,30.0,-33.0,48.0,-9.0,-12.0,-966.0,201.0
2.0,-248.0,33.0,-33.0,46.0,-12.0,-14.0,-961.0,203.0
7.0,-250.0,31.0,-34.0,46.0,-9.0,-12.0,-964.0,201.0
4.0,-250.0,32.0,-34.0,46.0,-11.0,-10.0,-961.0,199.0
3.0,-251.0,32.0,-36.0,46.0,-8.0,-12.0,-965.0,205.0
4.0,-254.0,34.0,-36.0,44.0,-9.0,-11.0,-961.0,201.0
1.0,-252.0,32.0,-36.0,43.0,-6.0,-9.0,-961.0,207.0
0.0,-251.0,32.0,-36.0,42.0,-8.0,-14.0,-964.0,205.0
4.0,-252.0,35.0,-37.0,44.0,-8.0,-10.0,-956.0,208.0
0.0,-252.0,29.0,-40.0,45.0,-11.0,-14.0,-960.0,202.0
3.0,-250.0,37.0,-41.0,45.0,-11.0,-15.0,-960.0,197.0
3.0,-250.0,31.0,-42.0,45.0,-14.0,-7.0,-964.0,199.0
4.0,-251.0,31.0,-44.0,47.0,-12.0,-8.0,-966.0,198.0
4.0,-254.0,32.0,-45.0,50.0,-15.0,-12.0,-964.0,198.0
3.0,-253.0,31.0,-47.0,51.0,-15.0,-3.0,-963.0,199.0
4.0,-253.0,29.0,-47.0,52.0,-18.0,-11.0,-968.0,197.0
4.0,-253.0,31.0,-46.0,54.0,-17.0,-6.0,-968.0,195.0
3.0,-251.0,32.0,-47.0,54.0,-18.0,-7.0,-970.0,195.0
3.0,-250.0,33.0,-47.0,58.0,-15.0,-7.0,-970.0,195.0
3.0,-255.0,34.0,-46.0,60.0,-19.0,-8.0,-971.0,194.0
4.0,-254.0,31.0,-45.0,62.0,-17.0,-4.0,-972.0,196.0
4.0,-255.0,30.0,-46.0,63.0,-17.0,-12.0,-972.0,191.0
4.0,-255.0,30.0,-45.0,65.0,-14.0,-6.0,-971.0,194.0
2.0,-252.0,31.0,-46.0,66.0,-14.0,-9.0,-963.0,191.0
3.0,-253.0,32.0,-48.0,65.0,-9.0,-13.0,-969.0,194.0
5.0,-252.0,30.0,-48.0,66.0,-11.0,-11.0,-965.0,193.0
4.0,-253.0,26.0,-48.0,66.0,-9.0,-12.0,-964.0,190.0
5.0,-250.0,30.0,-51.0,64.0,-10.0,-12.0,-961.0,191.0
5.0,-252.0,29.0,-54.0,65.0,-8.0,-9.0,-964.0,189.0
7.0,-251.0,32.0,-55.0,66.0,-10.0,-9.0,-957.0,189.0
4.0,-253.0,30.0,-55.0,67.0,-8.0,-7.0,-960.0,191.0
4.0,-252.0,29.0,-56.0,65.0,-9.0,-1.0,-960.0,187.0
5.0,-252.0,32.0,-56.0,64.0,-9.0,-4.0,-964.0,193.0
4.0,-251.0,30.0,-54.0,64.0,-12.0,-13.0,-966.0,195.0
5.0,-252.0,29.0,-53.0,62.0,-9.0,-10.0,-963.0,193.0
3.0,-252.0,30.0,-49.0,61.0,-11.0,-10.0,-965.0,195.0
3.0,-251.0,31.0,-43.0,61.0,-8.0,-10.0,-964.0,187.0
3.0,-253.0,31.0,-38.0,63.0,-11.0,-13.0,-963.0,193.0
1.0,-250.0,24.0,-32.0,62.0,-6.0,-12.0,-962.0,195.0
2.0,-250.0,29.0,-27.0,62.0,-8.0,-15.0,-959.0,188.0
4.0,-252.0,28.0,-24.0,60.0,-3.0,-18.0,-960.0,190.0
2.0,-249.0,28.0,-20.0,60.0,-4.0,-16.0,-954.0,193.0
2.0,-249.0,28.0,-19.0,60.0,1.0,-18.0,-955.0,192.0
1.0,-249.0,32.0,-18.0,62.0,-1.0,-19.0,-955.0,194.0
2.0,-252.0,29.0,-19.0,59.0,2.0,-15.0,-959.0,191.0
4.0,-251.0,27.0,-19.0,60.0,0.0,-18.0,-954.0,189.0
3.0,-248.0,31.0,-21.0,59.0,3.0,-14.0,-954.0,191.0
3.0,-252.0,32.0,-25.0,58.0,1.0,-16.0,-962.0,192.0
1.0,-251.0,29.0,-26.0,59.0,4.0,-15.0,-958.0,193.0
1.0,-251.0,26.0,-28.0,58.0,2.0,-20.0,-962.0,193.0
3.0,-249.0,28.0,-28.0,56.0,4.0,-15.0,-959.0,190.0
0.0,-252.0,30.0,-29.0,55.0,0.0,-14.0,-965.0,194.0
1.0,-250.0,31.0,-28.0,55.0,2.0,-15.0,-958.0,189.0
4.0,-251.0,31.0,-27.0,53.0,-1.0,-16.0,-956.0,194.0
0.0,-253.0,30.0,-26.0,52.0,1.0,-23.0,-952.0,193.0
3.0,-250.0,32.0,-25.0,51.0,0.0,-16.0,-959.0,190.0
1.0,-246.0,30.0,-23.0,51.0,0.0,-17.0,-955.0,192.0
0.0,-251.0,30.0,-23.0,48.0,-1.0,-19.0,-957.0,185.0
1.0,-249.0,30.0,-23.0,48.0,0.0,-19.0,-956.0,193.0
0.0,-250.0,26.0,-24.0,47.0,-3.0,-19.0,-955.0,190.0
-1.0,-249.0,30.0,-25.0,44.0,-2.0,-20.0,-957.0,182.0
0.0,-251.0,28.0,-24.0,42.0,-3.0,-24.0,-962.0,185.0
-4.0,-250.0,29.0,-27.0,41.0,-1.0,-18.0,-961.0,183.0
1.0,-250.0,26.0,-28.0,39.0,-4.0,-23.0,-962.0,178.0
2.0,-249.0,25.0,-30.0,36.0,0.0,-26.0,-958.0,178.0
1.0,-248.0,29.0,-31.0,34.0,-2.0,-17.0,-954.0,177.0
1.0,-250.0,29.0,-33.0,32.0,-1.0,-19.0,-956.0,184.0
-1.0,-248.0,26.0,-33.0,29.0,-3.0,-19.0,-955.0,181.0
4.0,-251.0,30.0,-36.0,28.0,0.0,-16.0,-959.0,181.0
2.0,-251.0,26.0,-35.0,25.0,-2.0,-20.0,-959.0,177.0
2.0,-250.0,29.0,-37.0,24.0,0.0,-14.0,-960.0,173.0
1.0,-250.0,27.0,-39.0,22.0,-3.0,-17.0,-962.0,178.0
4.0,-252.0,26.0,-41.0,21.0,0.0,-11.0,-962.0,177.0
1.0,-248.0,25.0,-41.0,20.0,-2.0,-11.0,-965.0,173.0
3.0,-252.0,27.0,-41.0,22.0,0.0,-8.0,-964.0,177.0
4.0,-248.0,25.0,-42.0,21.0,-1.0,-5.0,-961.0,176.0
6.0,-251.0,26.0,-43.0,21.0,-1.0,-2.0,-966.0,178.0
7.0,-254.0,24.0,-43.0,22.0,-2.0,-5.0,-964.0,176.0
5.0,-252.0,25.0,-42.0,22.0,-1.0,-2.0,-968.0,177.0
6.0,-252.0,28.0,-39.0,23.0,-3.0,-1.0,-966.0,176.0
5.0,-255.0,27.0,-37.0,24.0,0.0,1.0,-967.0,176.0
7.0,-254.0,26.0,-35.0,27.0,-3.0,1.0,-967.0,176.0
6.0,-253.0,26.0,-31.0,28.0,-1.0,0.0,-963.0,172.0
6.0,-255.0,26.0,-29.0,30.0,-2.0,-1.0,-971.0,174.0
6.0,-254.0,24.0,-27.0,33.0,-1.0,-2.0,-967.0,171.0
7.0,-252.0,29.0,-25.0,36.0,-2.0,-2.0,-969.0,173.0
4.0,-255.0,28.0,-22.0,38.0,-3.0,-1.0,-969.0,172.0
4.0,-253.0,27.0,-19.0,41.0,-5.0,-4.0,-967.0,173.0
6.0,-256.0,25.0,-17.0,44.0,-2.0,-1.0,-974.0,174.0
6.0,-252.0,26.0,-15.0,46.0,-6.0,0.0,-972.0,175.0
7.0,-256.0,28.0,-13.0,48.0,-5.0,-1.0,-980.0,183.0
6.0,-255.0,26.0,-12.0,51.0,-7.0,-2.0,-974.0,179.0
8.0,-256.0,28.0,-11.0,53.0,-6.0,-1.0,-976.0,180.0
8.0,-253.0,29.0,-9.0,55.0,-7.0,0.0,-973.0,181.0
6.0,-254.0,26.0,-6.0,57.0,-5.0,-5.0,-972.0,180.0
8.0,-253.0,24.0,-4.0,60.0,-6.0,0.0,-971.0,178.0
8.0,-253.0,30.0,-2.0,62.0,-7.0,-1.0,-971.0,180.0
6.0,-254.0,32.0,-1.0,63.0,-8.0,-4.0,-969.0,186.0
3.0,-254.0,27.0,-1.0,66.0,-8.0,-1.0,-969.0,186.0
6.0,-253.0,29.0,-1.0,69.0,-9.0,-7.0,-968.0,181.0
6.0,-251.0,28.0,1.0,73.0,-7.0,-3.0,-970.0,189.0
4.0,-250.0,25.0,2.0,76.0,-9.0,-3.0,-966.0,193.0
5.0,-253.0,30.0,3.0,79.0,-7.0,-2.0,-968.0,182.0
5.0,-249.0,26.0,3.0,80.0,-9.0,-8.0,-963.0,188.0
3.0,-252.0,32.0,0.0,80.0,-9.0,-9.0,-966.0,183.0
3.0,-250.0,31.0,-2.0,83.0,-11.0,-12.0,-962.0,185.0
5.0,-250.0,27.0,-3.0,83.0,-11.0,-15.0,-964.0,187.0
4.0,-252.0,28.0,-6.0,86.0,-13.0,-9.0,-964.0,186.0
3.0,-253.0,29.0,-6.0,86.0,-13.0,-15.0,-965.0,190.0
2.0,-250.0,26.0,-8.0,87.0,-13.0,-14.0,-963.0,184.0
1.0,-251.0,27.0,-9.0,89.0,-11.0,-6.0,-962.0,186.0
2.0,-251.0,32.0,-10.0,89.0,-12.0,-9.0,-962.0,188.0
2.0,-253.0,28.0,-8.0,89.0,-11.0,-13.0,-964.0,186.0
4.0,-251.0,29.0,-9.0,88.0,-9.0,-14.0,-968.0,184.0
1.0,-252.0,26.0,-10.0,88.0,-9.0,-13.0,-964.0,186.0
1.0,-251.0,29.0,-11.0,88.0,-7.0,-17.0,-965.0,181.0
-1.0,-249.0,26.0,-8.0,85.0,-4.0,-18.0,-965.0,179.0
2.0,-251.0,29.0,-7.0,85.0,-3.0,-16.0,-959.0,183.0
3.0,-251.0,26.0,-6.0,85.0,-2.0,-15.0,-954.0,178.0
3.0,-249.0,24.0,-6.0,86.0,-2.0,-16.0,-955.0,180.0
4.0,-254.0,32.0,-7.0,86.0,0.0,-8.0,-958.0,181.0
2.0,-252.0,31.0,-6.0,87.0,-1.0,-12.0,-961.0,181.0
3.0,-252.0,25.0,-9.0,89.0,1.0,-14.0,-963.0,188.0
3.0,-247.0,26.0,-8.0,89.0,1.0,-6.0,-966.0,182.0
4.0,-250.0,30.0,-9.0,91.0,2.0,-7.0,-965.0,180.0
5.0,-252.0,28.0,-9.0,92.0,1.0,-9.0,-968.0,185.0
4.0,-254.0,26.0,-12.0,93.0,2.0,-9.0,-964.0,183.0
5.0,-254.0,29.0,-13.0,95.0,0.0,-5.0,-967.0,186.0
0.0,-254.0,28.0,-13.0,95.0,0.0,-7.0,-970.0,183.0
1.0,-252.0,29.0,-13.0,95.0,-1.0,-8.0,-972.0,186.0
0.0,-254.0,30.0,-12.0,96.0,-1.0,-8.0,-972.0,188.0
5.0,-254.0,29.0,-11.0,95.0,-2.0,-10.0,-969.0,181.0
4.0,-250.0,26.0,-8.0,95.0,-2.0,-10.0,-968.0,182.0
3.0,-253.0,30.0,-7.0,95.0,-2.0,-8.0,-967.0,180.0
6.0,-251.0,26.0,-4.0,95.0,-2.0,-9.0,-966.0,184.0
6.0,-252.0,27.0,-2.0,96.0,-2.0,-10.0,-958.0,180.0
5.0,-251.0,24.0,-3.0,96.0,-4.0,-6.0,-957.0,181.0
2.0,-250.0,29.0,-1.0,99.0,-3.0,-6.0,-960.0,178.0
5.0,-252.0,28.0,0.0,98.0,-4.0,-5.0,-959.0,179.0
7.0,-249.0,28.0,3.0,101.0,-4.0,-1.0,-959.0,181.0
2.0,-252.0,28.0,1.0,102.0,-5.0,-4.0,-962.0,180.0
2.0,-250.0,24.0,2.0,102.0,-4.0,-9.0,-960.0,176.0
7.0,-255.0,27.0,3.0,103.0,-6.0,-8.0,-966.0,181.0
1.0,-253.0,26.0,4.0,103.0,-5.0,-11.0,-970.0,179.0
4.0,-254.0,30.0,4.0,104.0,-7.0,-5.0,-967.0,178.0
5.0,-254.0,28.0,5.0,104.0,-6.0,-5.0,-972.0,181.0
3.0,-252.0,28.0,6.0,107.0,-9.0,-4.0,-966.0,176.0
5.0,-254.0,31.0,7.0,105.0,-9.0,-12.0,-968.0,183.0
2.0,-253.0,31.0,7.0,106.0,-10.0,-6.0,-965.0,182.0
2.0,-252.0,29.0,8.0,106.0,-10.0,-10.0,-961.0,185.0
3.0,-251.0,29.0,10.0,105.0,-11.0,-9.0,-965.0,178.0
5.0,-253.0,30.0,9.0,104.0,-8.0,-8.0,-962.0,187.0
3.0,-253.0,28.0,10.0,105.0,-9.0,-10.0,-962.0,189.0
3.0,-253.0,27.0,9.0,106.0,-8.0,-9.0,-968.0,192.0
3.0,-252.0,26.0,7.0,105.0,-10.0,-10.0,-968.0,191.0
4.0,-252.0,33.0,6.0,106.0,-9.0,-17.0,-968.0,191.0
3.0,-254.0,29.0,5.0,109.0,-11.0,-17.0,-971.0,182.0
1.0,-254.0,29.0,6.0,108.0,-10.0,-17.0,-971.0,185.0
1.0,-253.0,28.0,7.0,109.0,-11.0,-15.0,-971.0,187.0
0.0,-253.0,27.0,7.0,111.0,-10.0,-18.0,-970.0,187.0
2.0,-250.0,30.0,8.0,112.0,-14.0,-17.0,-970.0,185.0
1.0,-250.0,31.0,11.0,113.0,-11.0,-15.0,-963.0,184.0
4.0,-253.0,28.0,12.0,113.0,-12.0,-10.0,-964.0,182.0
3.0,-253.0,29.0,13.0,113.0,-9.0,-13.0,-963.0,189.0
3.0,-250.0,27.0,13.0,113.0,-10.0,-9.0,-961.0,190.0
5.0,-251.0,29.0,15.0,113.0,-8.0,-8.0,-951.0,186.0
3.0,-253.0,30.0,15.0,111.0,-9.0,-8.0,-961.0,179.0
2.0,-251.0,27.0,16.0,109.0,-7.0,-11.0,-955.0,185.0
2.0,-248.0,28.0,14.0,109.0,-8.0,-11.0,-957.0,185.0
6.0,-250.0,30.0,12.0,109.0,-6.0,-8.0,-958.0,189.0
6.0,-248.0,28.0,9.0,109.0,-8.0,-9.0,-954.0,187.0
3.0,-249.0,31.0,8.0,109.0,-5.0,-8.0,-954.0,185.0
4.0,-249.0,28.0,6.0,108.0,-7.0,-7.0,-957.0,190.0
4.0,-250.0,28.0,4.0,108.0,-5.0,-7.0,-955.0,192.0
4.0,-249.0,30.0,3.0,108.0,-8.0,-11.0,-953.0,190.0
6.0,-251.0,32.0,2.0,110.0,-7.0,-4.0,-958.0,188.0
4.0,-249.0,30.0,3.0,111.0,-8.0,-13.0,-961.0,194.0
2.0,-249.0,27.0,3.0,110.0,-7.0,-10.0,-964.0,185.0
6.0,-254.0,30.0,6.0,111.0,-8.0,-9.0,-961.0,187.0
3.0,-253.0,30.0,9.0,112.0,-7.0,-13.0,-961.0,193.0
3.0,-251.0,28.0,11.0,114.0,-9.0,-6.0,-966.0,185.0
3.0,-251.0,29.0,13.0,115.0,-8.0,-11.0,-966.0,186.0
4.0,-251.0,30.0,14.0,116.0,-10.0,-10.0,-959.0,190.0
2.0,-251.0,32.0,17.0,118.0,-8.0,-6.0,-968.0,189.0
4.0,-252.0,33.0,18.0,118.0,-10.0,-10.0,-970.0,194.0
4.0,-252.0,29.0,18.0,122.0,-7.0,-12.0,-963.0,193.0
7.0,-252.0,29.0,20.0,123.0,-9.0,-3.0,-966.0,188.0
3.0,-252.0,27.0,21.0,125.0,-6.0,-9.0,-966.0,193.0
2.0,-251.0,31.0,20.0,125.0,-7.0,-8.0,-966.0,192.0
5.0,-252.0,33.0,19.0,126.0,-5.0,-14.0,-969.0,197.0
3.0,-253.0,30.0,19.0,126.0,-8.0,-13.0,-965.0,196.0
4.0,-252.0,32.0,20.0,126.0,-4.0,-10.0,-961.0,193.0
4.0,-251.0,31.0,18.0,125.0,-7.0,-13.0,-963.0,194.0
4.0,-250.0,34.0,15.0,129.0,-4.0,-15.0,-962.0,193.0
2.0,-251.0,28.0,14.0,129.0,-6.0,-15.0,-964.0,192.0
5.0,-251.0,30.0,14.0,129.0,-2.0,-16.0,-957.0,193.0
5.0,-249.0,32.0,11.0,130.0,-4.0,-15.0,-956.0,195.0
2.0,-251.0,26.0,10.0,133.0,-3.0,-17.0,-954.0,193.0
0.0,-247.0,30.0,9.0,132.0,-6.0,-17.0,-960.0,192.0
2.0,-250.0,34.0,8.0,132.0,-5.0,-13.0,-956.0,193.0
4.0,-252.0,32.0,8.0,132.0,-9.0,-14.0,-961.0,192.0
0.0,-248.0,27.0,7.0,134.0,-6.0,-16.0,-957.0,187.0
2.0,-249.0,31.0,8.0,134.0,-9.0,-14.0,-955.0,192.0
2.0,-249.0,25.0,10.0,133.0,-7.0,-17.0,-955.0,191.0
3.0,-248.0,26.0,14.0,132.0,-8.0,-10.0,-959.0,188.0
4.0,-252.0,33.0,17.0,129.0,-4.0,-15.0,-957.0,192.0
3.0,-251.0,28.0,22.0,128.0,-4.0,-17.0,-958.0,187.0
0.0,-253.0,32.0,30.0,125.0,1.0,-17.0,-960.0,190.0
1.0,-251.0,28.0,38.0,120.0,2.0,-19.0,-963.0,192.0
5.0,-255.0,33.0,46.0,117.0,7.0,-17.0,-969.0,193.0
2.0,-253.0,33.0,51.0,113.0,8.0,-15.0,-963.0,193.0
4.0,-255.0,32.0,57.0,109.0,15.0,-19.0,-967.0,195.0
0.0,-250.0,30.0,61.0,107.0,18.0,-17.0,-967.0,195.0
3.0,-252.0,30.0,63.0,103.0,24.0,-18.0,-968.0,197.0
0.0,-253.0,33.0,64.0,104.0,25.0,-17.0,-965.0,198.0
4.0,-254.0,32.0,64.0,104.0,29.0,-20.0,-966.0,195.0
1.0,-253.0,30.0,65.0,106.0,29.0,-23.0,-972.0,200.0
2.0,-254.0,34.0,65.0,107.0,31.0,-21.0,-967.0,207.0
-2.0,-249.0,32.0,64.0,109.0,29.0,-24.0,-967.0,200.0
-1.0,-252.0,29.0,62.0,110.0,29.0,-24.0,-964.0,200.0
-3.0,-251.0,35.0,58.0,111.0,24.0,-20.0,-964.0,207.0
-1.0,-252.0,34.0,54.0,112.0,21.0,-24.0,-964.0,208.0
2.0,-255.0,31.0,50.0,113.0,14.0,-27.0,-971.0,203.0
1.0,-253.0,32.0,44.0,113.0,12.0,-25.0,-966.0,204.0
0.0,-253.0,36.0,39.0,112.0,5.0,-25.0,-967.0,206.0
-1.0,-253.0,32.0,35.0,111.0,3.0,-25.0,-965.0,203.0
1.0,-251.0,35.0,32.0,108.0,-2.0,-22.0,-967.0,209.0
0.0,-250.0,34.0,29.0,105.0,-2.0,-25.0,-964.0,207.0
-2.0,-249.0,36.0,26.0,103.0,-5.0,-26.0,-957.0,209.0
1.0,-248.0,39.0,24.0,101.0,-4.0,-22.0,-958.0,207.0
3.0,-251.0,35.0,19.0,99.0,-6.0,-27.0,-957.0,210.0
-3.0,-249.0,30.0,14.0,96.0,-4.0,-25.0,-954.0,208.0
-2.0,-247.0,36.0,10.0,94.0,-5.0,-21.0,-953.0,208.0
-1.0,-249.0,35.0,6.0,96.0,-5.0,-24.0,-956.0,208.0
2.0,-251.0,39.0,2.0,96.0,-8.0,-24.0,-960.0,205.0
0.0,-245.0,34.0,-2.0,95.0,-5.0,-18.0,-955.0,210.0
1.0,-248.0,34.0,-6.0,95.0,-7.0,-21.0,-954.0,211.0
3.0,-252.0,37.0,-8.0,96.0,-6.0,-22.0,-960.0,209.0
2.0,-251.0,32.0,-11.0,97.0,-9.0,-19.0,-959.0,213.0
1.0,-253.0,36.0,-12.0,100.0,-7.0,-20.0,-962.0,216.0
-1.0,-249.0,40.0,-13.0,100.0,-8.0,-16.0,-959.0,219.0
2.0,-254.0,39.0,-14.0,100.0,-8.0,-19.0,-957.0,214.0
2.0,-251.0,34.0,-15.0,100.0,-9.0,-13.0,-964.0,215.0
2.0,-248.0,36.0,-15.0,100.0,-7.0,-16.0,-959.0,215.0
1.0,-251.0,33.0,-16.0,99.0,-9.0,-13.0,-960.0,216.0
2.0,-251.0,34.0,-18.0,97.0,-7.0,-14.0,-963.0,214.0
5.0,-253.0,35.0,-18.0,95.0,-8.0,-11.0,-966.0,217.0
2.0,-250.0,39.0,-20.0,93.0,-7.0,-13.0,-969.0,216.0
4.0,-253.0,38.0,-21.0,92.0,-9.0,-13.0,-963.0,217.0
1.0,-250.0,41.0,-19.0,90.0,-8.0,-15.0,-962.0,214.0
0.0,-250.0,32.0,-19.0,86.0,-9.0,-16.0,-967.0,214.0
2.0,-253.0,35.0,-17.0,83.0,-7.0,-14.0,-969.0,211.0
1.0,-251.0,35.0,-15.0,81.0,-9.0,-14.0,-963.0,205.0
3.0,-250.0,34.0,-12.0,78.0,-10.0,-15.0,-964.0,203.0
1.0,-253.0,35.0,-6.0,77.0,-8.0,-11.0,-962.0,211.0
2.0,-254.0,33.0,-2.0,77.0,-7.0,-14.0,-959.0,200.0
1.0,-252.0,35.0,3.0,77.0,-6.0,-15.0,-965.0,205.0
1.0,-252.0,32.0,11.0,77.0,-3.0,-20.0,-964.0,203.0
4.0,-251.0,32.0,16.0,80.0,-4.0,-19.0,-968.0,202.0
0.0,-254.0,34.0,20.0,83.0,-1.0,-22.0,-966.0,203.0
2.0,-252.0,35.0,25.0,86.0,-1.0,-18.0,-966.0,202.0
2.0,-250.0,33.0,28.0,85.0,0.0,-18.0,-968.0,204.0
0.0,-252.0,36.0,32.0,87.0,-2.0,-26.0,-963.0,198.0
1.0,-250.0,36.0,37.0,87.0,-2.0,-24.0,-967.0,201.0
1.0,-253.0,31.0,39.0,88.0,-3.0,-21.0,-959.0,206.0
-1.0,-251.0,30.0,39.0,88.0,-4.0,-24.0,-963.0,201.0
1.0,-251.0,35.0,42.0,89.0,-5.0,-19.0,-961.0,208.0
1.0,-252.0,35.0,43.0,87.0,-7.0,-18.0,-963.0,207.0
2.0,-250.0,40.0,44.0,88.0,-9.0,-17.0,-959.0,209.0
1.0,-253.0,32.0,47.0,88.0,-9.0,-16.0,-962.0,209.0
1.0,-252.0,35.0,50.0,88.0,-10.0,-17.0,-965.0,209.0
5.0,-254.0,31.0,54.0,87.0,-11.0,-15.0,-964.0,207.0
2.0,-252.0,37.0,56.0,86.0,-13.0,-14.0,-966.0,207.0
5.0,-253.0,35.0,60.0,86.0,-14.0,-13.0,-966.0,209.0
3.0,-252.0,39.0,61.0,85.0,-15.0,-12.0,-964.0,207.0
4.0,-251.0,34.0,65.0,83.0,-14.0,-6.0,-964.0,212.0
3.0,-250.0,34.0,69.0,84.0,-16.0,-15.0,-970.0,211.0
4.0,-250.0,36.0,73.0,83.0,-16.0,-12.0,-963.0,212.0
4.0,-252.0,36.0,76.0,83.0,-15.0,-9.0,-965.0,209.0
5.0,-250.0,34.0,79.0,83.0,-16.0,-14.0,-962.0,213.0
1.0,-250.0,35.0,82.0,82.0,-16.0,-12.0,-964.0,211.0
0.0,-252.0,37.0,84.0,83.0,-16.0,-12.0,-959.0,218.0
3.0,-253.0,35.0,86.0,85.0,-15.0,-14.0,-955.0,219.0
4.0,-253.0,38.0,88.0,85.0,-16.0,-15.0,-960.0,219.0
3.0,-249.0,40.0,87.0,86.0,-16.0,-12.0,-959.0,217.0
2.0,-250.0,33.0,87.0,90.0,-17.0,-12.0,-955.0,212.0
1.0,-250.0,36.0,86.0,92.0,-18.0,-17.0,-958.0,214.0
3.0,-251.0,37.0,88.0,93.0,-19.0,-11.0,-963.0,211.0
2.0,-251.0,38.0,87.0,96.0,-19.0,-15.0,-954.0,214.0
0.0,-250.0,37.0,86.0,96.0,-20.0,-11.0,-954.0,214.0
3.0,-250.0,37.0,85.0,97.0,-20.0,-16.0,-958.0,217.0
1.0,-249.0,39.0,83.0,100.0,-22.0,-18.0,-956.0,221.0
3.0,-250.0,34.0,80.0,99.0,-23.0,-21.0,-956.0,219.0
4.0,-251.0,37.0,78.0,98.0,-24.0,-21.0,-951.0,222.0
0.0,-250.0,40.0,75.0,98.0,-24.0,-18.0,-964.0,221.0
2.0,-251.0,41.0,76.0,97.0,-25.0,-18.0,-957.0,222.0
2.0,-248.0,37.0,76.0,97.0,-26.0,-18.0,-953.0,218.0
2.0,-249.0,36.0,76.0,95.0,-27.0,-16.0,-953.0,227.0
1.0,-246.0,39.0,75.0,96.0,-27.0,-17.0,-946.0,224.0
-1.0,-249.0,38.0,74.0,93.0,-27.0,-13.0,-949.0,226.0
2.0,-247.0,41.0,73.0,91.0,-26.0,-15.0,-947.0,228.0
1.0,-248.0,37.0,71.0,91.0,-29.0,-14.0,-949.0,228.0
3.0,-247.0,39.0,67.0,89.0,-28.0,-20.0,-948.0,228.0
-2.0,-244.0,41.0,62.0,88.0,-30.0,-17.0,-950.0,231.0
5.0,-248.0,38.0,57.0,88.0,-29.0,-15.0,-953.0,226.0
2.0,-246.0,40.0,52.0,88.0,-31.0,-16.0,-953.0,227.0
3.0,-252.0,42.0,45.0,90.0,-30.0,-15.0,-950.0,227.0
3.0,-250.0,40.0,39.0,91.0,-32.0,-17.0,-949.0,236.0
5.0,-250.0,41.0,35.0,94.0,-30.0,-14.0,-949.0,229.0
1.0,-247.0,41.0,31.0,97.0,-31.0,-10.0,-952.0,226.0
1.0,-249.0,41.0,30.0,100.0,-28.0,-9.0,-951.0,228.0
4.0,-249.0,38.0,34.0,100.0,-29.0,-14.0,-945.0,229.0
2.0,-247.0,41.0,36.0,103.0,-25.0,-10.0,-945.0,225.0
3.0,-247.0,37.0,39.0,103.0,-25.0,-9.0,-947.0,227.0
6.0,-249.0,40.0,37.0,103.0,-22.0,-15.0,-948.0,229.0
2.0,-246.0,42.0,34.0,102.0,-23.0,-13.0,-946.0,228.0
4.0,-248.0,38.0,32.0,100.0,-20.0,-12.0,-955.0,229.0
0.0,-249.0,37.0,30.0,97.0,-23.0,-16.0,-954.0,232.0
2.0,-248.0,42.0,25.0,96.0,-23.0,-15.0,-959.0,229.0
3.0,-251.0,42.0,22.0,93.0,-26.0,-15.0,-958.0,228.0
2.0,-250.0,43.0,17.0,92.0,-27.0,-18.0,-950.0,228.0
3.0,-251.0,43.0,14.0,91.0,-30.0,-16.0,-957.0,226.0
1.0,-247.0,39.0,11.0,93.0,-29.0,-14.0,-959.0,223.0
2.0,-250.0,36.0,10.0,93.0,-33.0,-15.0,-956.0,222.0
5.0,-250.0,37.0,10.0,96.0,-32.0,-16.0,-954.0,225.0
1.0,-250.0,40.0,10.0,97.0,-34.0,-14.0,-953.0,225.0
5.0,-249.0,38.0,14.0,101.0,-34.0,-9.0,-954.0,227.0
4.0,-250.0,38.0,18.0,105.0,-37.0,-13.0,-955.0,225.0
7.0,-249.0,40.0,21.0,108.0,-35.0,-6.0,-951.0,230.0
4.0,-251.0,43.0,24.0,112.0,-40.0,-7.0,-957.0,228.0
4.0,-252.0,41.0,27.0,114.0,-36.0,-6.0,-955.0,226.0
10.0,-251.0,38.0,28.0,117.0,-39.0,1.0,-961.0,233.0
6.0,-250.0,39.0,29.0,118.0,-37.0,5.0,-960.0,231.0
6.0,-251.0,38.0,30.0,118.0,-40.0,6.0,-959.0,228.0
6.0,-251.0,41.0,33.0,120.0,-39.0,4.0,-966.0,236.0
6.0,-253.0,40.0,35.0,121.0,-42.0,2.0,-966.0,229.0
6.0,-253.0,40.0,36.0,122.0,-41.0,-1.0,-964.0,234.0
7.0,-253.0,45.0,37.0,124.0,-44.0,4.0,-966.0,239.0
9.0,-253.0,43.0,38.0,124.0,-46.0,9.0,-962.0,239.0
5.0,-251.0,42.0,37.0,127.0,-50.0,6.0,-962.0,242.0
7.0,-251.0,43.0,37.0,130.0,-49.0,3.0,-955.0,247.0
9.0,-250.0,44.0,34.0,133.0,-56.0,6.0,-962.0,244.0
10.0,-252.0,45.0,33.0,136.0,-54.0,4.0,-958.0,250.0
8.0,-252.0,44.0,32.0,139.0,-58.0,7.0,-964.0,245.0
7.0,-249.0,45.0,29.0,141.0,-55.0,3.0,-958.0,252.0
10.0,-250.0,44.0,27.0,143.0,-59.0,4.0,-957.0,252.0
5.0,-249.0,48.0,27.0,143.0,-57.0,-1.0,-951.0,245.0
3.0,-248.0,46.0,25.0,143.0,-58.0,-4.0,-951.0,251.0
6.0,-248.0,48.0,23.0,144.0,-54.0,-7.0,-946.0,247.0
3.0,-247.0,42.0,21.0,145.0,-55.0,-9.0,-935.0,245.0
5.0,-245.0,43.0,19.0,146.0,-52.0,-11.0,-939.0,248.0
2.0,-245.0,46.0,17.0,144.0,-53.0,-12.0,-933.0,248.0
4.0,-243.0,49.0,15.0,144.0,-50.0,-14.0,-932.0,252.0
3.0,-244.0,49.0,13.0,144.0,-49.0,-14.0,-928.0,250.0
1.0,-243.0,49.0,9.0,142.0,-48.0,-17.0,-925.0,253.0
2.0,-240.0,47.0,6.0,141.0,-48.0,-16.0,-927.0,257.0
2.0,-241.0,48.0,2.0,142.0,-46.0,-16.0,-929.0,255.0
4.0,-242.0,51.0,-9.0,143.0,-49.0,-15.0,-930.0,257.0
4.0,-243.0,50.0,-20.0,145.0,-46.0,-13.0,-933.0,254.0
1.0,-244.0,46.0,-31.0,148.0,-48.0,-15.0,-934.0,253.0
2.0,-248.0,46.0,-43.0,153.0,-46.0,-17.0,-941.0,248.0
0.0,-247.0,47.0,-52.0,157.0,-48.0,-15.0,-948.0,241.0
4.0,-251.0,47.0,-57.0,160.0,-44.0,-15.0,-949.0,239.0
1.0,-251.0,44.0,-55.0,165.0,-46.0,-17.0,-946.0,238.0
2.0,-249.0,46.0,-48.0,165.0,-44.0,-13.0,-952.0,232.0
3.0,-248.0,44.0,-35.0,165.0,-44.0,-15.0,-951.0,230.0
3.0,-248.0,39.0,-12.0,159.0,-41.0,-14.0,-948.0,232.0
7.0,-250.0,39.0,11.0,157.0,-43.0,-12.0,-949.0,228.0
3.0,-245.0,40.0,35.0,151.0,-41.0,-10.0,-950.0,229.0
4.0,-250.0,38.0,53.0,143.0,-42.0,-4.0,-948.0,229.0
6.0,-250.0,46.0,67.0,131.0,-40.0,0.0,-951.0,228.0
5.0,-248.0,43.0,75.0,120.0,-40.0,-2.0,-954.0,233.0
9.0,-253.0,41.0,82.0,108.0,-34.0,-1.0,-959.0,235.0
6.0,-250.0,42.0,84.0,97.0,-33.0,-2.0,-969.0,234.0
7.0,-254.0,41.0,82.0,86.0,-28.0,-3.0,-968.0,234.0
5.0,-254.0,46.0,76.0,79.0,-26.0,-5.0,-974.0,238.0
7.0,-257.0,42.0,69.0,74.0,-20.0,-4.0,-973.0,239.0
4.0,-255.0,40.0,62.0,73.0,-20.0,-2.0,-971.0,236.0
6.0,-254.0,45.0,52.0,73.0,-17.0,-7.0,-968.0,239.0
7.0,-252.0,43.0,43.0,76.0,-20.0,-6.0,-966.0,241.0
2.0,-251.0,45.0,33.0,80.0,-18.0,-12.0,-959.0,246.0
4.0,-247.0,44.0,23.0,84.0,-22.0,-11.0,-957.0,246.0
1.0,-249.0,49.0,11.0,89.0,-21.0,-9.0,-948.0,245.0
6.0,-246.0,41.0,2.0,92.0,-25.0,-13.0,-944.0,249.0
5.0,-245.0,49.0,-7.0,95.0,-26.0,-9.0,-943.0,248.0
7.0,-246.0,47.0,-15.0,97.0,-29.0,-2.0,-929.0,248.0
4.0,-244.0,48.0,-21.0,96.0,-30.0,-5.0,-933.0,248.0
2.0,-242.0,47.0,-26.0,93.0,-35.0,0.0,-931.0,252.0
3.0,-245.0,48.0,-32.0,89.0,-36.0,-2.0,-932.0,247.0
7.0,-245.0,45.0,-38.0,85.0,-39.0,-2.0,-939.0,252.0
9.0,-248.0,48.0,-41.0,79.0,-40.0,0.0,-941.0,252.0
5.0,-246.0,42.0,-44.0,75.0,-43.0,6.0,-937.0,251.0
5.0,-245.0,46.0,-47.0,74.0,-41.0,2.0,-946.0,254.0
8.0,-247.0,46.0,-51.0,71.0,-43.0,1.0,-947.0,246.0
5.0,-247.0,45.0,-54.0,72.0,-43.0,1.0,-944.0,245.0
5.0,-247.0,43.0,-59.0,72.0,-46.0,-2.0,-947.0,246.0
4.0,-246.0,47.0,-64.0,75.0,-44.0,-1.0,-951.0,239.0
4.0,-248.0,42.0,-67.0,80.0,-44.0,-3.0,-951.0,239.0
6.0,-246.0,42.0,-70.0,84.0,-42.0,-3.0,-952.0,240.0
4.0,-250.0,46.0,-73.0,86.0,-42.0,-3.0,-951.0,240.0
8.0,-248.0,40.0,-77.0,88.0,-39.0,0.0,-953.0,241.0
5.0,-251.0,42.0,-82.0,87.0,-39.0,-4.0,-953.0,239.0
4.0,-248.0,46.0,-85.0,85.0,-35.0,-4.0,-950.0,241.0
4.0,-248.0,43.0,-88.0,82.0,-35.0,2.0,-953.0,239.0
7.0,-247.0,44.0,-92.0,78.0,-31.0,-3.0,-950.0,241.0
4.0,-249.0,43.0,-92.0,73.0,-30.0,1.0,-952.0,241.0
6.0,-245.0,40.0,-94.0,68.0,-27.0,1.0,-946.0,237.0
5.0,-245.0,43.0,-96.0,62.0,-27.0,-2.0,-948.0,241.0
5.0,-248.0,38.0,-99.0,59.0,-26.0,-2.0,-945.0,239.0
3.0,-246.0,43.0,-101.0,55.0,-26.0,-4.0,-953.0,238.0
4.0,-249.0,42.0,-102.0,53.0,-24.0,-6.0,-957.0,236.0
6.0,-250.0,40.0,-102.0,48.0,-26.0,-2.0,-954.0,238.0
5.0,-251.0,44.0,-102.0,46.0,-25.0,-4.0,-952.0,237.0
9.0,-247.0,50.0,-99.0,44.0,-26.0,-5.0,-950.0,235.0
4.0,-249.0,37.0,-95.0,45.0,-24.0,-6.0,-951.0,238.0
4.0,-249.0,46.0,-94.0,44.0,-24.0,-6.0,-952.0,233.0
7.0,-248.0,45.0,-90.0,46.0,-22.0,-7.0,-950.0,232.0
6.0,-247.0,41.0,-90.0,47.0,-21.0,-3.0,-952.0,233.0
4.0,-246.0,41.0,-87.0,46.0,-20.0,-2.0,-948.0,229.0
4.0,-246.0,43.0,-85.0,46.0,-21.0,-1.0,-949.0,229.0
4.0,-245.0,36.0,-84.0,46.0,-21.0,3.0,-950.0,227.0
6.0,-250.0,41.0,-84.0,46.0,-20.0,-3.0,-948.0,229.0
5.0,-248.0,40.0,-84.0,44.0,-18.0,0.0,-951.0,230.0
6.0,-248.0,42.0,-86.0,42.0,-16.0,1.0,-948.0,230.0
10.0,-248.0,39.0,-88.0,42.0,-16.0,2.0,-951.0,235.0
8.0,-250.0,40.0,-90.0,40.0,-16.0,4.0,-951.0,236.0
9.0,-251.0,44.0,-94.0,40.0,-15.0,6.0,-951.0,238.0
6.0,-247.0,44.0,-98.0,38.0,-16.0,3.0,-955.0,232.0
8.0,-250.0,41.0,-100.0,37.0,-16.0,3.0,-954.0,232.0
8.0,-248.0,43.0,-105.0,36.0,-17.0,7.0,-955.0,233.0
9.0,-247.0,43.0,-109.0,35.0,-16.0,8.0,-951.0,235.0
9.0,-250.0,42.0,-112.0,36.0,-14.0,6.0,-954.0,234.0
6.0,-249.0,42.0,-116.0,36.0,-14.0,10.0,-955.0,238.0
8.0,-250.0,40.0,-120.0,34.0,-14.0,8.0,-956.0,229.0
8.0,-248.0,42.0,-122.0,35.0,-14.0,5.0,-955.0,229.0
7.0,-248.0,40.0,-124.0,34.0,-12.0,4.0,-954.0,227.0
8.0,-249.0,41.0,-126.0,34.0,-12.0,0.0,-948.0,223.0
6.0,-246.0,41.0,-128.0,35.0,-11.0,0.0,-949.0,223.0
4.0,-246.0,37.0,-129.0,34.0,-11.0,1.0,-946.0,219.0
6.0,-247.0,38.0,-130.0,35.0,-11.0,3.0,-944.0,218.0
5.0,-244.0,40.0,-130.0,35.0,-9.0,1.0,-941.0,219.0
5.0,-246.0,35.0,-132.0,32.0,-9.0,-1.0,-939.0,214.0
2.0,-245.0,34.0,-134.0,29.0,-9.0,-2.0,-944.0,210.0
4.0,-246.0,37.0,-134.0,26.0,-6.0,3.0,-941.0,214.0
6.0,-247.0,37.0,-136.0,24.0,-6.0,-2.0,-945.0,214.0
7.0,-249.0,40.0,-137.0,20.0,-3.0,-1.0,-948.0,219.0
6.0,-245.0,36.0,-137.0,15.0,-2.0,-1.0,-949.0,218.0
5.0,-248.0,36.0,-139.0,11.0,1.0,2.0,-950.0,219.0
6.0,-253.0,36.0,-141.0,6.0,1.0,0.0,-950.0,213.0
6.0,-246.0,35.0,-141.0,3.0,3.0,0.0,-947.0,217.0
5.0,-250.0,37.0,-142.0,-2.0,2.0,-2.0,-951.0,224.0
8.0,-248.0,38.0,-146.0,-3.0,5.0,0.0,-952.0,222.0
4.0,-248.0,34.0,-149.0,-5.0,3.0,-6.0,-954.0,221.0
6.0,-249.0,40.0,-152.0,-4.0,5.0,0.0,-950.0,217.0
8.0,-249.0,38.0,-154.0,-4.0,3.0,0.0,-948.0,218.0
7.0,-251.0,38.0,-158.0,-5.0,3.0,6.0,-949.0,217.0
8.0,-249.0,36.0,-159.0,-2.0,5.0,3.0,-956.0,215.0
7.0,-249.0,34.0,-157.0,1.0,8.0,7.0,-954.0,214.0
8.0,-249.0,34.0,-155.0,5.0,8.0,6.0,-956.0,212.0
8.0,-249.0,37.0,-154.0,6.0,10.0,11.0,-954.0,209.0
8.0,-249.0,35.0,-152.0,8.0,8.0,7.0,-957.0,211.0
6.0,-251.0,37.0,-153.0,9.0,10.0,5.0,-957.0,210.0
10.0,-252.0,35.0,-152.0,9.0,9.0,7.0,-961.0,207.0
8.0,-250.0,33.0,-151.0,10.0,9.0,4.0,-963.0,206.0
8.0,-252.0,34.0,-150.0,9.0,8.0,5.0,-958.0,209.0
7.0,-251.0,36.0,-151.0,5.0,8.0,2.0,-966.0,210.0
8.0,-254.0,37.0,-152.0,2.0,5.0,5.0,-966.0,203.0
8.0,-253.0,36.0,-154.0,0.0,5.0,4.0,-967.0,206.0
8.0,-254.0,35.0,-155.0,-2.0,2.0,5.0,-967.0,207.0
7.0,-253.0,33.0,-156.0,-2.0,3.0,4.0,-964.0,205.0
7.0,-254.0,32.0,-155.0,-2.0,-1.0,2.0,-964.0,197.0
10.0,-250.0,36.0,-153.0,-1.0,-2.0,6.0,-963.0,202.0
6.0,-254.0,32.0,-155.0,0.0,-6.0,10.0,-964.0,204.0
7.0,-251.0,34.0,-153.0,4.0,-5.0,7.0,-969.0,200.0
7.0,-253.0,27.0,-149.0,7.0,-8.0,9.0,-969.0,196.0
7.0,-252.0,29.0,-145.0,11.0,-7.0,7.0,-962.0,195.0
9.0,-252.0,31.0,-145.0,14.0,-10.0,6.0,-957.0,187.0
6.0,-247.0,30.0,-142.0,15.0,-11.0,8.0,-966.0,186.0
10.0,-250.0,25.0,-140.0,17.0,-14.0,8.0,-961.0,189.0
10.0,-252.0,27.0,-140.0,20.0,-13.0,8.0,-964.0,182.0
9.0,-249.0,29.0,-142.0,21.0,-17.0,8.0,-965.0,188.0
12.0,-252.0,31.0,-141.0,21.0,-17.0,10.0,-966.0,187.0
8.0,-251.0,28.0,-140.0,23.0,-20.0,15.0,-965.0,191.0
11.0,-254.0,26.0,-137.0,23.0,-18.0,14.0,-973.0,189.0
11.0,-253.0,26.0,-131.0,22.0,-17.0,17.0,-970.0,186.0
10.0,-251.0,27.0,-126.0,25.0,-14.0,15.0,-973.0,191.0
13.0,-255.0,30.0,-120.0,25.0,-14.0,20.0,-974.0,190.0
10.0,-251.0,28.0,-111.0,27.0,-7.0,15.0,-974.0,185.0
13.0,-255.0,32.0,-103.0,28.0,-5.0,15.0,-977.0,189.0
11.0,-253.0,29.0,-90.0,30.0,-1.0,13.0,-971.0,195.0
9.0,-254.0,34.0,-81.0,32.0,2.0,14.0,-971.0,197.0
8.0,-253.0,31.0,-73.0,36.0,8.0,9.0,-969.0,196.0
9.0,-253.0,30.0,-67.0,38.0,11.0,8.0,-966.0,195.0
6.0,-250.0,31.0,-65.0,40.0,16.0,-1.0,-962.0,191.0
12.0,-248.0,32.0,-65.0,39.0,16.0,-6.0,-953.0,193.0
0.0,-242.0,29.0,-72.0,38.0,23.0,-6.0,-941.0,195.0
5.0,-246.0,32.0,-84.0,34.0,25.0,-3.0,-948.0,196.0
4.0,-247.0,31.0,-95.0,31.0,24.0,-3.0,-950.0,192.0
5.0,-246.0,29.0,-105.0,34.0,18.0,-2.0,-949.0,188.0
8.0,-250.0,28.0,-110.0,40.0,15.0,-1.0,-951.0,191.0
7.0,-251.0,24.0,-109.0,47.0,10.0,2.0,-949.0,182.0
4.0,-247.0,25.0,-105.0,54.0,10.0,-2.0,-956.0,176.0
5.0,-247.0,23.0,-106.0,54.0,2.0,-1.0,-951.0,179.0
3.0,-247.0,27.0,-111.0,51.0,-1.0,-4.0,-947.0,178.0
4.0,-245.0,27.0,-116.0,48.0,-6.0,-1.0,-947.0,178.0
5.0,-247.0,26.0,-120.0,44.0,-6.0,2.0,-953.0,180.0
9.0,-250.0,31.0,-121.0,43.0,-7.0,5.0,-948.0,175.0
7.0,-248.0,24.0,-119.0,41.0,-3.0,6.0,-953.0,172.0
8.0,-249.0,24.0,-116.0,37.0,-4.0,-1.0,-952.0,175.0
7.0,-246.0,24.0,-115.0,34.0,1.0,0.0,-945.0,171.0
7.0,-249.0,22.0,-113.0,31.0,3.0,1.0,-943.0,168.0
8.0,-248.0,24.0,-109.0,28.0,8.0,4.0,-947.0,164.0
8.0,-247.0,27.0,-109.0,28.0,9.0,4.0,-946.0,159.0
6.0,-246.0,21.0,-110.0,27.0,13.0,3.0,-943.0,164.0
7.0,-247.0,20.0,-110.0,28.0,13.0,1.0,-953.0,163.0
8.0,-247.0,23.0,-111.0,28.0,19.0,2.0,-957.0,163.0
7.0,-246.0,24.0,-114.0,28.0,19.0,1.0,-946.0,163.0
7.0,-249.0,24.0,-121.0,27.0,24.0,4.0,-953.0,169.0
7.0,-247.0,21.0,-127.0,25.0,20.0,3.0,-951.0,170.0
7.0,-248.0,26.0,-136.0,26.0,23.0,8.0,-958.0,172.0
7.0,-248.0,22.0,-145.0,27.0,20.0,9.0,-957.0,172.0
7.0,-248.0,21.0,-152.0,28.0,20.0,8.0,-957.0,170.0
10.0,-252.0,24.0,-158.0,27.0,16.0,13.0,-962.0,172.0
7.0,-251.0,23.0,-165.0,31.0,18.0,11.0,-966.0,169.0
9.0,-251.0,28.0,-170.0,32.0,12.0,20.0,-968.0,168.0
12.0,-252.0,25.0,-175.0,36.0,11.0,17.0,-968.0,167.0
12.0,-256.0,24.0,-181.0,39.0,7.0,21.0,-970.0,169.0
10.0,-252.0,26.0,-187.0,43.0,7.0,20.0,-978.0,168.0
12.0,-254.0,23.0,-191.0,46.0,2.0,20.0,-974.0,167.0
14.0,-254.0,25.0,-193.0,49.0,3.0,21.0,-977.0,159.0
14.0,-255.0,21.0,-197.0,51.0,-1.0,23.0,-975.0,158.0
14.0,-255.0,21.0,-198.0,54.0,-1.0,23.0,-987.0,158.0
14.0,-258.0,20.0,-198.0,58.0,-6.0,22.0,-981.0,154.0
13.0,-256.0,17.0,-195.0,61.0,-4.0,23.0,-999.0,153.0
14.0,-257.0,18.0,-192.0,65.0,-7.0,26.0,-997.0,147.0
9.0,-256.0,19.0,-187.0,69.0,-6.0,26.0,-995.0,139.0
12.0,-257.0,15.0,-182.0,72.0,-8.0,23.0,-1000.0,137.0
12.0,-257.0,15.0,-174.0,75.0,-6.0,22.0,-997.0,139.0
11.0,-258.0,10.0,-169.0,77.0,-9.0,16.0,-1001.0,133.0
12.0,-259.0,10.0,-161.0,80.0,-8.0,15.0,-994.0,133.0
11.0,-257.0,9.0,-158.0,83.0,-13.0,17.0,-989.0,121.0
12.0,-258.0,9.0,-153.0,85.0,-11.0,11.0,-999.0,117.0
10.0,-258.0,12.0,-148.0,86.0,-17.0,10.0,-1001.0,120.0
9.0,-260.0,10.0,-141.0,89.0,-15.0,16.0,-1002.0,120.0
7.0,-257.0,12.0,-135.0,90.0,-21.0,12.0,-1000.0,114.0
11.0,-259.0,10.0,-129.0,90.0,-23.0,12.0,-1004.0,111.0
10.0,-261.0,10.0,-124.0,91.0,-29.0,10.0,-1005.0,112.0
9.0,-260.0,8.0,-121.0,91.0,-32.0,7.0,-1004.0,110.0
7.0,-258.0,9.0,-117.0,89.0,-38.0,11.0,-1007.0,107.0
10.0,-259.0,11.0,-113.0,87.0,-39.0,6.0,-1008.0,107.0
7.0,-262.0,31.0,-110.0,85.0,-43.0,6.0,-1007.0,108.0
-3.0,-257.0,9.0,-106.0,83.0,-41.0,7.0,-1003.0,105.0
10.0,-269.0,13.0,-101.0,80.0,-44.0,2.0,-1010.0,107.0
6.0,-260.0,11.0,-97.0,77.0,-44.0,-1.0,-1008.0,98.0
2.0,-264.0,4.0,-91.0,74.0,-42.0,1.0,-1009.0,106.0
3.0,-264.0,10.0,-86.0,74.0,-40.0,-2.0,-1010.0,99.0
3.0,-260.0,8.0,-79.0,70.0,-35.0,-3.0,-1011.0,95.0
4.0,-260.0,8.0,-72.0,70.0,-28.0,-1.0,-1009.0,97.0
6.0,-261.0,8.0,-62.0,71.0,-23.0,0.0,-1020.0,95.0
8.0,-265.0,8.0,-49.0,75.0,-13.0,11.0,-1022.0,98.0
14.0,-267.0,7.0,-33.0,83.0,-11.0,17.0,-1027.0,98.0
17.0,-266.0,5.0,-11.0,97.0,-12.0,39.0,-1038.0,100.0
21.0,-268.0,8.0,14.0,115.0,-25.0,48.0,-1040.0,97.0
25.0,-267.0,3.0,45.0,134.0,-39.0,62.0,-1033.0,91.0
22.0,-263.0,0.0,61.0,145.0,-55.0,58.0,-1028.0,80.0
22.0,-261.0,3.0,70.0,149.0,-70.0,65.0,-1018.0,78.0
28.0,-260.0,4.0,77.0,151.0,-85.0,79.0,-1010.0,73.0
32.0,-262.0,2.0,83.0,159.0,-103.0,99.0,-1008.0,74.0
34.0,-259.0,0.0,90.0,173.0,-129.0,112.0,-999.0,76.0
39.0,-260.0,-1.0,99.0,188.0,-156.0,124.0,-998.0,81.0
41.0,-254.0,3.0,107.0,203.0,-183.0,129.0,-982.0,86.0
42.0,-254.0,3.0,110.0,218.0,-208.0,133.0,-977.0,85.0
43.0,-253.0,7.0,107.0,234.0,-232.0,137.0,-968.0,86.0
43.0,-252.0,5.0,100.0,248.0,-249.0,130.0,-961.0,89.0
41.0,-249.0,3.0,91.0,266.0,-265.0,131.0,-958.0,90.0
42.0,-248.0,8.0,82.0,285.0,-275.0,127.0,-955.0,88.0
41.0,-246.0,3.0,80.0,308.0,-283.0,119.0,-952.0,96.0
36.0,-243.0,6.0,76.0,331.0,-286.0,111.0,-934.0,99.0
30.0,-241.0,6.0,73.0,353.0,-283.0,97.0,-924.0,106.0
26.0,-239.0,9.0,71.0,373.0,-274.0,75.0,-922.0,114.0
22.0,-238.0,12.0,70.0,391.0,-260.0,58.0,-912.0,121.0
17.0,-234.0,9.0,70.0,407.0,-240.0,38.0,-910.0,117.0
13.0,-236.0,15.0,62.0,415.0,-221.0,14.0,-903.0,127.0
6.0,-231.0,17.0,52.0,420.0,-202.0,6.0,-894.0,133.0
4.0,-229.0,13.0,37.0,418.0,-183.0,-13.0,-887.0,137.0
2.0,-229.0,12.0,19.0,409.0,-162.0,-17.0,-882.0,143.0
-5.0,-225.0,19.0,0.0,394.0,-143.0,-29.0,-876.0,147.0
-6.0,-223.0,22.0,-21.0,375.0,-125.0,-44.0,-870.0,151.0
-7.0,-225.0,22.0,-41.0,352.0,-111.0,-50.0,-869.0,154.0
-11.0,-222.0,22.0,-64.0,328.0,-99.0,-55.0,-865.0,152.0
-11.0,-222.0,22.0,-91.0,304.0,-87.0,-54.0,-872.0,156.0
-9.0,-226.0,20.0,-128.0,272.0,-80.0,-57.0,-872.0,148.0
-11.0,-227.0,21.0,-162.0,245.0,-75.0,-59.0,-878.0,151.0
-11.0,-226.0,20.0,-196.0,221.0,-74.0,-53.0,-884.0,146.0
-7.0,-230.0,14.0,-234.0,198.0,-68.0,-51.0,-886.0,142.0
-9.0,-230.0,17.0,-270.0,175.0,-64.0,-45.0,-900.0,141.0
-4.0,-234.0,18.0,-307.0,153.0,-59.0,-39.0,-902.0,135.0
-2.0,-239.0,14.0,-342.0,135.0,-52.0,-31.0,-906.0,134.0
-1.0,-237.0,14.0,-376.0,118.0,-48.0,-24.0,-915.0,125.0
-2.0,-241.0,12.0,-403.0,105.0,-44.0,-12.0,-927.0,122.0
2.0,-242.0,12.0,-436.0,94.0,-39.0,-17.0,-940.0,115.0
5.0,-246.0,10.0,-456.0,90.0,-36.0,-1.0,-946.0,113.0
8.0,-250.0,9.0,-472.0,88.0,-32.0,3.0,-954.0,106.0
10.0,-254.0,10.0,-485.0,87.0,-25.0,11.0,-966.0,104.0
10.0,-252.0,6.0,-491.0,88.0,-18.0,14.0,-970.0,94.0
15.0,-257.0,6.0,-496.0,90.0,-11.0,26.0,-981.0,92.0
15.0,-257.0,3.0,-497.0,92.0,-4.0,30.0,-994.0,87.0
16.0,-260.0,3.0,-494.0,96.0,2.0,28.0,-1006.0,85.0
18.0,-263.0,-1.0,-489.0,96.0,9.0,34.0,-1009.0,86.0
17.0,-260.0,4.0,-481.0,98.0,15.0,40.0,-1010.0,81.0
17.0,-260.0,4.0,-468.0,99.0,22.0,34.0,-1013.0,80.0
14.0,-263.0,0.0,-458.0,99.0,25.0,34.0,-1008.0,79.0
15.0,-260.0,3.0,-449.0,96.0,27.0,31.0,-1013.0,83.0
16.0,-262.0,8.0,-436.0,97.0,28.0,32.0,-1009.0,83.0
13.0,-259.0,2.0,-424.0,98.0,34.0,28.0,-1007.0,84.0
14.0,-260.0,3.0,-409.0,101.0,35.0,30.0,-999.0,87.0
14.0,-257.0,6.0,-397.0,103.0,39.0,24.0,-981.0,90.0
12.0,-254.0,4.0,-383.0,102.0,43.0,22.0,-986.0,96.0
14.0,-256.0,8.0,-371.0,105.0,51.0,17.0,-976.0,94.0
9.0,-251.0,10.0,-360.0,101.0,53.0,17.0,-973.0,100.0
8.0,-254.0,7.0,-349.0,95.0,60.0,14.0,-970.0,106.0
11.0,-253.0,8.0,-339.0,87.0,62.0,17.0,-970.0,99.0
10.0,-251.0,8.0,-332.0,78.0,68.0,12.0,-966.0,104.0
6.0,-247.0,10.0,-321.0,68.0,70.0,9.0,-960.0,107.0
7.0,-251.0,8.0,-314.0,58.0,76.0,7.0,-957.0,102.0
5.0,-250.0,7.0,-312.0,43.0,79.0,2.0,-962.0,102.0
4.0,-249.0,7.0,-314.0,29.0,86.0,-4.0,-958.0,92.0
2.0,-251.0,8.0,-322.0,14.0,85.0,-12.0,-957.0,88.0
3.0,-248.0,2.0,-333.0,-4.0,91.0,-15.0,-955.0,82.0
0.0,-248.0,2.0,-348.0,-19.0,89.0,-17.0,-950.0,72.0
1.0,-248.0,-4.0,-366.0,-33.0,92.0,-15.0,-951.0,66.0
-2.0,-247.0,-3.0,-384.0,-44.0,90.0,-18.0,-958.0,61.0
2.0,-246.0,-11.0,-407.0,-57.0,90.0,-10.0,-953.0,56.0
6.0,-249.0,-6.0,-428.0,-65.0,90.0,-8.0,-954.0,51.0
7.0,-250.0,-10.0,-446.0,-72.0,90.0,-2.0,-957.0,33.0
9.0,-249.0,-12.0,-468.0,-79.0,84.0,7.0,-951.0,29.0
10.0,-246.0,-12.0,-488.0,-85.0,86.0,15.0,-952.0,32.0
12.0,-247.0,-12.0,-503.0,-89.0,87.0,27.0,-948.0,20.0
18.0,-247.0,-15.0,-521.0,-91.0,87.0,40.0,-956.0,11.0
19.0,-247.0,-17.0,-533.0,-90.0,79.0,54.0,-950.0,11.0
24.0,-249.0,-17.0,-540.0,-86.0,76.0,63.0,-953.0,3.0
23.0,-248.0,-19.0,-542.0,-77.0,66.0,67.0,-951.0,-1.0
28.0,-249.0,-18.0,-539.0,-67.0,63.0,79.0,-951.0,8.0
30.0,-249.0,-18.0,-534.0,-55.0,56.0,83.0,-958.0,1.0
31.0,-249.0,-16.0,-523.0,-39.0,56.0,90.0,-966.0,6.0
30.0,-252.0,-20.0,-508.0,-21.0,52.0,94.0,-967.0,4.0
31.0,-256.0,-18.0,-492.0,-3.0,49.0,91.0,-969.0,6.0
30.0,-257.0,-19.0,-472.0,19.0,43.0,95.0,-988.0,11.0
31.0,-258.0,-17.0,-453.0,36.0,43.0,92.0,-998.0,13.0
34.0,-260.0,-16.0,-432.0,53.0,37.0,96.0,-1003.0,14.0
31.0,-261.0,-15.0,-415.0,66.0,35.0,95.0,-1007.0,21.0
32.0,-261.0,-12.0,-398.0,76.0,24.0,96.0,-1014.0,28.0
33.0,-262.0,-10.0,-381.0,89.0,16.0,98.0,-1016.0,28.0
35.0,-263.0,-11.0,-365.0,98.0,4.0,101.0,-1020.0,33.0
35.0,-264.0,-9.0,-353.0,110.0,-4.0,105.0,-1022.0,37.0
39.0,-261.0,-10.0,-339.0,122.0,-16.0,113.0,-1024.0,32.0
40.0,-262.0,-11.0,-327.0,137.0,-29.0,118.0,-1017.0,29.0
34.0,-262.0,-14.0,-322.0,150.0,-42.0,115.0,-1016.0,22.0
36.0,-260.0,-18.0,-320.0,167.0,-50.0,117.0,-1008.0,20.0
38.0,-259.0,-17.0,-321.0,182.0,-62.0,115.0,-1001.0,17.0
35.0,-254.0,-16.0,-325.0,201.0,-66.0,115.0,-987.0,11.0
34.0,-253.0,-19.0,-329.0,218.0,-76.0,104.0,-972.0,11.0
34.0,-249.0,-17.0,-334.0,237.0,-79.0,102.0,-959.0,2.0
30.0,-245.0,-17.0,-340.0,253.0,-87.0,93.0,-941.0,-2.0
26.0,-242.0,-19.0,-347.0,268.0,-88.0,80.0,-935.0,0.0
21.0,-239.0,-21.0,-351.0,284.0,-91.0,71.0,-922.0,2.0
23.0,-238.0,-19.0,-356.0,292.0,-88.0,63.0,-908.0,3.0
19.0,-234.0,-21.0,-360.0,296.0,-86.0,55.0,-904.0,1.0
17.0,-233.0,-21.0,-366.0,296.0,-78.0,50.0,-903.0,1.0
14.0,-234.0,-21.0,-372.0,292.0,-73.0,35.0,-907.0,-6.0
11.0,-230.0,-21.0,-379.0,284.0,-63.0,20.0,-901.0,-8.0
7.0,-234.0,-22.0,-388.0,273.0,-57.0,11.0,-901.0,-14.0
4.0,-236.0,-23.0,-399.0,256.0,-44.0,5.0,-910.0,-15.0
-1.0,-236.0,-25.0,-411.0,238.0,-36.0,-15.0,-913.0,-18.0
-3.0,-238.0,-21.0,-424.0,213.0,-22.0,-24.0,-921.0,-27.0
-3.0,-241.0,-31.0,-441.0,181.0,-13.0,-37.0,-930.0,-30.0
-9.0,-242.0,-32.0,-459.0,153.0,0.0,-46.0,-934.0,-38.0
-11.0,-247.0,-33.0,-478.0,124.0,10.0,-57.0,-946.0,-53.0
-10.0,-250.0,-38.0,-495.0,97.0,22.0,-60.0,-953.0,-55.0
-11.0,-253.0,-37.0,-511.0,70.0,36.0,-67.0,-963.0,-65.0
-10.0,-255.0,-36.0,-523.0,43.0,51.0,-71.0,-965.0,-79.0
-13.0,-256.0,-39.0,-532.0,20.0,61.0,-74.0,-981.0,-86.0
-12.0,-255.0,-44.0,-539.0,-1.0,76.0,-78.0,-992.0,-102.0
-12.0,-255.0,-49.0,-549.0,-21.0,86.0,-78.0,-993.0,-101.0
-12.0,-257.0,-49.0,-556.0,-42.0,98.0,-73.0,-998.0,-116.0
-15.0,-257.0,-52.0,-559.0,-59.0,105.0,-75.0,-999.0,-118.0
-12.0,-258.0,-49.0,-558.0,-76.0,114.0,-73.0,-1000.0,-124.0
-11.0,-259.0,-52.0,-555.0,-94.0,119.0,-69.0,-1004.0,-118.0
-11.0,-258.0,-50.0,-554.0,-108.0,126.0,-60.0,-1004.0,-123.0
-8.0,-260.0,-48.0,-547.0,-121.0,127.0,-55.0,-1003.0,-118.0
-5.0,-260.0,-51.0,-538.0,-129.0,132.0,-40.0,-1005.0,-123.0
-2.0,-260.0,-50.0,-530.0,-137.0,134.0,-35.0,-1008.0,-122.0
-2.0,-259.0,-50.0,-521.0,-140.0,139.0,-27.0,-1009.0,-124.0
1.0,-259.0,-55.0,-513.0,-143.0,136.0,-23.0,-1007.0,-124.0
4.0,-259.0,-52.0,-504.0,-142.0,138.0,-15.0,-1004.0,-125.0
4.0,-257.0,-51.0,-498.0,-139.0,137.0,-3.0,-999.0,-126.0
9.0,-257.0,-48.0,-494.0,-133.0,136.0,11.0,-1002.0,-129.0
10.0,-257.0,-50.0,-491.0,-126.0,134.0,17.0,-998.0,-128.0
12.0,-255.0,-48.0,-489.0,-119.0,133.0,20.0,-995.0,-126.0
14.0,-253.0,-48.0,-488.0,-110.0,130.0,31.0,-979.0,-126.0
19.0,-256.0,-48.0,-489.0,-100.0,130.0,41.0,-974.0,-125.0
22.0,-251.0,-50.0,-492.0,-93.0,127.0,50.0,-961.0,-122.0
22.0,-248.0,-50.0,-500.0,-88.0,127.0,55.0,-955.0,-120.0
23.0,-246.0,-47.0,-509.0,-84.0,122.0,65.0,-948.0,-120.0
22.0,-241.0,-48.0,-519.0,-82.0,117.0,66.0,-932.0,-120.0
27.0,-241.0,-52.0,-529.0,-78.0,109.0,77.0,-932.0,-121.0
27.0,-238.0,-45.0,-538.0,-75.0,101.0,79.0,-924.0,-115.0
26.0,-237.0,-48.0,-546.0,-71.0,91.0,81.0,-920.0,-115.0
30.0,-237.0,-46.0,-554.0,-69.0,83.0,86.0,-915.0,-116.0
29.0,-235.0,-52.0,-562.0,-64.0,72.0,82.0,-913.0,-123.0
27.0,-239.0,-50.0,-570.0,-60.0,66.0,80.0,-911.0,-126.0
29.0,-235.0,-52.0,-580.0,-57.0,56.0,79.0,-917.0,-133.0
28.0,-236.0,-54.0,-591.0,-51.0,51.0,74.0,-916.0,-140.0
23.0,-239.0,-56.0,-601.0,-45.0,43.0,68.0,-916.0,-141.0
24.0,-241.0,-56.0,-610.0,-40.0,35.0,57.0,-920.0,-148.0
16.0,-239.0,-56.0,-618.0,-36.0,26.0,53.0,-924.0,-151.0
17.0,-238.0,-57.0,-623.0,-31.0,20.0,48.0,-928.0,-157.0
14.0,-240.0,-59.0,-626.0,-27.0,10.0,40.0,-936.0,-164.0
16.0,-244.0,-59.0,-626.0,-25.0,4.0,32.0,-937.0,-168.0
11.0,-243.0,-64.0,-627.0,-23.0,-4.0,18.0,-934.0,-174.0
13.0,-245.0,-67.0,-626.0,-22.0,-9.0,15.0,-942.0,-179.0
11.0,-244.0,-64.0,-624.0,-23.0,-13.0,3.0,-941.0,-186.0
6.0,-246.0,-67.0,-621.0,-28.0,-20.0,2.0,-950.0,-189.0
1.0,-250.0,-64.0,-617.0,-34.0,-23.0,-4.0,-960.0,-198.0
13.0,-250.0,-63.0,-611.0,-40.0,-26.0,-5.0,-963.0,-199.0
2.0,-253.0,-67.0,-604.0,-44.0,-28.0,-20.0,-972.0,-199.0
-1.0,-255.0,-67.0,-599.0,-48.0,-27.0,-23.0,-976.0,-205.0
-2.0,-258.0,-67.0,-593.0,-52.0,-25.0,-28.0,-988.0,-203.0
-1.0,-260.0,-74.0,-584.0,-54.0,-18.0,-36.0,-1003.0,-207.0
-1.0,-260.0,-67.0,-577.0,-53.0,-12.0,-35.0,-1013.0,-207.0
-2.0,-263.0,-68.0,-567.0,-50.0,-1.0,-29.0,-1016.0,-208.0
1.0,-264.0,-68.0,-552.0,-45.0,9.0,-37.0,-1026.0,-210.0
2.0,-265.0,-67.0,-544.0,-37.0,19.0,-24.0,-1030.0,-211.0
1.0,-264.0,-70.0,-533.0,-29.0,28.0,-17.0,-1030.0,-209.0
8.0,-266.0,-67.0,-521.0,-19.0,34.0,0.0,-1032.0,-208.0
8.0,-266.0,-71.0,-510.0,-13.0,40.0,1.0,-1031.0,-215.0
12.0,-261.0,-70.0,-497.0,-6.0,44.0,12.0,-1028.0,-214.0
12.0,-261.0,-73.0,-488.0,2.0,45.0,21.0,-1022.0,-226.0
16.0,-263.0,-77.0,-477.0,9.0,44.0,31.0,-1016.0,-226.0
15.0,-261.0,-77.0,-467.0,19.0,41.0,38.0,-1010.0,-233.0
21.0,-259.0,-78.0,-454.0,31.0,33.0,50.0,-1002.0,-244.0
22.0,-255.0,-80.0,-445.0,41.0,27.0,52.0,-998.0,-252.0
18.0,-252.0,-82.0,-436.0,57.0,19.0,53.0,-978.0,-255.0
21.0,-250.0,-84.0,-427.0,69.0,13.0,54.0,-969.0,-257.0
23.0,-251.0,-81.0,-420.0,83.0,11.0,55.0,-958.0,-261.0
21.0,-244.0,-82.0,-416.0,95.0,16.0,57.0,-948.0,-255.0
23.0,-239.0,-82.0,-423.0,106.0,31.0,53.0,-922.0,-256.0
19.0,-230.0,-86.0,-438.0,111.0,57.0,49.0,-903.0,-259.0
17.0,-228.0,-82.0,-464.0,112.0,94.0,42.0,-891.0,-258.0
14.0,-226.0,-81.0,-502.0,101.0,129.0,33.0,-887.0,-261.0
12.0,-224.0,-79.0,-536.0,86.0,153.0,24.0,-885.0,-256.0
9.0,-229.0,-78.0,-564.0,69.0,171.0,10.0,-888.0,-254.0
4.0,-230.0,-84.0,-585.0,51.0,179.0,-1.0,-894.0,-259.0
2.0,-232.0,-81.0,-598.0,36.0,181.0,-16.0,-901.0,-267.0
0.0,-233.0,-85.0,-607.0,19.0,177.0,-19.0,-904.0,-270.0
-3.0,-234.0,-83.0,-612.0,6.0,171.0,-24.0,-906.0,-271.0
1.0,-234.0,-86.0,-611.0,-5.0,160.0,-22.0,-909.0,-277.0
2.0,-236.0,-87.0,-612.0,-15.0,150.0,-17.0,-916.0,-281.0
4.0,-239.0,-90.0,-609.0,-23.0,132.0,-15.0,-913.0,-286.0
1.0,-240.0,-92.0,-602.0,-27.0,119.0,-16.0,-916.0,-295.0
0.0,-239.0,-92.0,-593.0,-28.0,101.0,-18.0,-921.0,-290.0
0.0,-241.0,-92.0,-584.0,-30.0,88.0,-23.0,-919.0,-299.0
-1.0,-236.0,-95.0,-569.0,-26.0,69.0,-24.0,-922.0,-303.0
-1.0,-241.0,-97.0,-558.0,-18.0,53.0,-32.0,-917.0,-311.0
-4.0,-239.0,-97.0,-545.0,-9.0,35.0,-42.0,-924.0,-311.0
-8.0,-239.0,-94.0,-535.0,1.0,23.0,-46.0,-921.0,-320.0
-9.0,-239.0,-99.0,-529.0,17.0,11.0,-57.0,-921.0,-321.0
-11.0,-240.0,-102.0,-521.0,30.0,2.0,-54.0,-925.0,-330.0
-10.0,-239.0,-103.0,-520.0,39.0,-4.0,-61.0,-926.0,-332.0
-12.0,-240.0,-101.0,-522.0,44.0,-5.0,-63.0,-930.0,-331.0
-11.0,-237.0,-100.0,-523.0,46.0,-8.0,-61.0,-932.0,-337.0
-7.0,-243.0,-104.0,-526.0,47.0,-6.0,-58.0,-935.0,-344.0
-7.0,-240.0,-103.0,-528.0,46.0,-8.0,-50.0,-939.0,-336.0
-7.0,-244.0,-105.0,-528.0,46.0,-5.0,-39.0,-941.0,-336.0
-5.0,-244.0,-104.0,-526.0,47.0,-5.0,-39.0,-943.0,-339.0
2.0,-243.0,-105.0,-524.0,49.0,-2.0,-25.0,-940.0,-337.0
-1.0,-247.0,-104.0,-523.0,54.0,0.0,-19.0,-944.0,-336.0
0.0,-245.0,-104.0,-518.0,62.0,5.0,-13.0,-945.0,-341.0
4.0,-244.0,-103.0,-515.0,70.0,5.0,-11.0,-949.0,-340.0
5.0,-241.0,-108.0,-515.0,81.0,11.0,-1.0,-945.0,-347.0
9.0,-242.0,-108.0,-518.0,93.0,12.0,4.0,-938.0,-356.0
12.0,-239.0,-111.0,-519.0,103.0,19.0,9.0,-936.0,-362.0
9.0,-238.0,-110.0,-524.0,115.0,21.0,15.0,-924.0,-370.0
11.0,-237.0,-111.0,-531.0,129.0,25.0,22.0,-914.0,-377.0
16.0,-232.0,-109.0,-540.0,140.0,26.0,23.0,-903.0,-387.0
15.0,-227.0,-114.0,-550.0,150.0,33.0,27.0,-888.0,-393.0
16.0,-227.0,-119.0,-561.0,161.0,32.0,38.0,-874.0,-400.0
16.0,-219.0,-117.0,-571.0,167.0,39.0,35.0,-870.0,-399.0
12.0,-217.0,-119.0,-576.0,170.0,43.0,39.0,-855.0,-403.0
14.0,-217.0,-120.0,-579.0,175.0,54.0,33.0,-851.0,-407.0
15.0,-217.0,-122.0,-582.0,173.0,58.0,38.0,-842.0,-413.0
14.0,-214.0,-120.0,-585.0,171.0,70.0,34.0,-841.0,-414.0
12.0,-212.0,-121.0,-585.0,166.0,77.0,22.0,-841.0,-412.0
11.0,-214.0,-119.0,-585.0,159.0,84.0,21.0,-833.0,-418.0
6.0,-213.0,-124.0,-584.0,155.0,95.0,16.0,-838.0,-418.0
8.0,-217.0,-120.0,-582.0,149.0,113.0,6.0,-843.0,-421.0
3.0,-214.0,-125.0,-579.0,143.0,120.0,3.0,-841.0,-423.0
0.0,-216.0,-121.0,-577.0,138.0,130.0,-9.0,-846.0,-427.0
4.0,-220.0,-121.0,-574.0,134.0,140.0,-20.0,-847.0,-415.0
-2.0,-219.0,-123.0,-569.0,130.0,150.0,-33.0,-852.0,-424.0
-6.0,-221.0,-121.0,-562.0,125.0,157.0,-42.0,-859.0,-421.0
-8.0,-224.0,-121.0,-554.0,121.0,167.0,-52.0,-860.0,-419.0
-12.0,-223.0,-122.0,-547.0,116.0,173.0,-59.0,-868.0,-426.0
-11.0,-227.0,-123.0,-537.0,111.0,182.0,-68.0,-874.0,-419.0
-12.0,-227.0,-121.0,-526.0,107.0,186.0,-74.0,-879.0,-421.0
-12.0,-225.0,-125.0,-514.0,101.0,193.0,-76.0,-875.0,-426.0
-13.0,-227.0,-123.0,-499.0,95.0,193.0,-82.0,-877.0,-423.0
-15.0,-227.0,-126.0,-484.0,88.0,201.0,-90.0,-882.0,-424.0
-16.0,-228.0,-122.0,-470.0,80.0,201.0,-95.0,-884.0,-428.0
-14.0,-229.0,-126.0,-454.0,72.0,209.0,-99.0,-885.0,-430.0
-17.0,-229.0,-124.0,-437.0,58.0,210.0,-101.0,-888.0,-427.0
-19.0,-232.0,-123.0,-422.0,45.0,214.0,-102.0,-895.0,-434.0
-21.0,-229.0,-127.0,-410.0,32.0,214.0,-106.0,-892.0,-446.0
-21.0,-230.0,-128.0,-399.0,18.0,218.0,-105.0,-895.0,-446.0
-19.0,-229.0,-130.0,-388.0,-1.0,216.0,-103.0,-893.0,-444.0
-20.0,-227.0,-129.0,-378.0,-17.0,218.0,-101.0,-887.0,-447.0
-17.0,-229.0,-130.0,-370.0,-35.0,216.0,-96.0,-882.0,-450.0
-20.0,-228.0,-132.0,-363.0,-54.0,217.0,-100.0,-881.0,-449.0
-21.0,-225.0,-128.0,-354.0,-71.0,210.0,-98.0,-874.0,-452.0
-19.0,-221.0,-124.0,-345.0,-88.0,209.0,-99.0,-865.0,-444.0
-20.0,-220.0,-126.0,-335.0,-103.0,204.0,-102.0,-861.0,-441.0
-19.0,-221.0,-123.0,-323.0,-118.0,202.0,-104.0,-855.0,-439.0
-21.0,-219.0,-129.0,-307.0,-134.0,197.0,-105.0,-861.0,-440.0
-17.0,-222.0,-125.0,-295.0,-153.0,198.0,-99.0,-860.0,-441.0
-20.0,-223.0,-129.0,-278.0,-169.0,196.0,-105.0,-863.0,-445.0
-19.0,-223.0,-128.0,-267.0,-182.0,199.0,-103.0,-876.0,-446.0
-16.0,-225.0,-130.0,-257.0,-196.0,198.0,-97.0,-872.0,-454.0
-15.0,-227.0,-131.0,-251.0,-206.0,202.0,-88.0,-882.0,-460.0
-15.0,-223.0,-132.0,-244.0,-217.0,199.0,-86.0,-879.0,-466.0
-14.0,-226.0,-137.0,-240.0,-228.0,201.0,-70.0,-881.0,-481.0
-12.0,-225.0,-136.0,-241.0,-237.0,195.0,-67.0,-875.0,-484.0
-9.0,-226.0,-141.0,-243.0,-245.0,195.0,-61.0,-876.0,-491.0
-9.0,-223.0,-138.0,-245.0,-252.0,190.0,-62.0,-870.0,-489.0
-4.0,-220.0,-136.0,-246.0,-258.0,190.0,-43.0,-864.0,-490.0
-5.0,-219.0,-137.0,-245.0,-262.0,184.0,-36.0,-856.0,-490.0
-3.0,-220.0,-137.0,-243.0,-261.0,184.0,-28.0,-851.0,-492.0
0.0,-217.0,-136.0,-238.0,-259.0,182.0,-24.0,-845.0,-488.0
3.0,-215.0,-136.0,-234.0,-254.0,182.0,-17.0,-836.0,-488.0
3.0,-212.0,-136.0,-229.0,-248.0,178.0,-8.0,-831.0,-485.0
5.0,-209.0,-137.0,-223.0,-243.0,180.0,-1.0,-827.0,-482.0
4.0,-210.0,-137.0,-215.0,-237.0,180.0,-1.0,-821.0,-471.0
5.0,-206.0,-134.0,-206.0,-230.0,187.0,-1.0,-816.0,-468.0
6.0,-204.0,-135.0,-197.0,-220.0,192.0,-5.0,-807.0,-467.0
4.0,-209.0,-131.0,-191.0,-214.0,197.0,-5.0,-812.0,-457.0
3.0,-207.0,-132.0,-184.0,-210.0,200.0,-10.0,-812.0,-455.0
3.0,-209.0,-131.0,-176.0,-210.0,204.0,-19.0,-812.0,-453.0
-2.0,-210.0,-133.0,-170.0,-210.0,207.0,-21.0,-824.0,-460.0
2.0,-211.0,-132.0,-162.0,-210.0,211.0,-22.0,-827.0,-455.0
-3.0,-211.0,-130.0,-154.0,-208.0,212.0,-29.0,-824.0,-457.0
-2.0,-211.0,-131.0,-147.0,-206.0,217.0,-27.0,-826.0,-455.0
-5.0,-216.0,-132.0,-142.0,-207.0,215.0,-26.0,-829.0,-462.0
-5.0,-211.0,-134.0,-136.0,-208.0,219.0,-33.0,-833.0,-471.0
-6.0,-210.0,-138.0,-132.0,-212.0,216.0,-36.0,-831.0,-480.0
-4.0,-212.0,-138.0,-128.0,-216.0,214.0,-41.0,-830.0,-490.0
-8.0,-213.0,-142.0,-128.0,-219.0,208.0,-44.0,-828.0,-495.0
-9.0,-206.0,-146.0,-129.0,-225.0,200.0,-53.0,-818.0,-502.0
-7.0,-204.0,-140.0,-133.0,-230.0,194.0,-48.0,-807.0,-498.0
-10.0,-205.0,-142.0,-136.0,-233.0,189.0,-57.0,-800.0,-500.0
-8.0,-199.0,-141.0,-144.0,-237.0,183.0,-61.0,-785.0,-502.0
-11.0,-199.0,-142.0,-151.0,-240.0,181.0,-63.0,-778.0,-503.0
-12.0,-195.0,-142.0,-156.0,-242.0,181.0,-67.0,-767.0,-505.0
-11.0,-197.0,-143.0,-158.0,-246.0,181.0,-71.0,-761.0,-499.0
-15.0,-194.0,-140.0,-155.0,-249.0,183.0,-73.0,-769.0,-494.0
-13.0,-194.0,-140.0,-149.0,-255.0,187.0,-87.0,-761.0,-501.0
-16.0,-196.0,-136.0,-144.0,-258.0,193.0,-87.0,-764.0,-494.0
-18.0,-195.0,-134.0,-136.0,-260.0,199.0,-96.0,-751.0,-496.0
-18.0,-193.0,-137.0,-130.0,-258.0,200.0,-99.0,-752.0,-491.0
-23.0,-195.0,-137.0,-126.0,-260.0,194.0,-106.0,-770.0,-482.0
-19.0,-196.0,-138.0,-121.0,-263.0,187.0,-98.0,-781.0,-488.0
-17.0,-205.0,-130.0,-113.0,-254.0,195.0,-95.0,-793.0,-458.0
-17.0,-211.0,-127.0,-82.0,-247.0,200.0,-98.0,-822.0,-446.0
-19.0,-214.0,-134.0,-51.0,-243.0,202.0,-100.0,-837.0,-461.0
-17.0,-212.0,-137.0,-46.0,-240.0,204.0,-96.0,-849.0,-490.0
-19.0,-218.0,-143.0,-60.0,-234.0,206.0,-99.0,-849.0,-495.0
-14.0,-217.0,-140.0,-73.0,-226.0,202.0,-98.0,-850.0,-490.0
-15.0,-218.0,-142.0,-85.0,-214.0,197.0,-94.0,-843.0,-502.0
-16.0,-216.0,-145.0,-97.0,-199.0,190.0,-90.0,-849.0,-505.0
-13.0,-213.0,-147.0,-110.0,-178.0,186.0,-86.0,-839.0,-514.0
-10.0,-213.0,-150.0,-122.0,-155.0,179.0,-77.0,-831.0,-518.0
-9.0,-210.0,-147.0,-137.0,-123.0,174.0,-71.0,-827.0,-521.0
-11.0,-204.0,-150.0,-153.0,-97.0,173.0,-64.0,-811.0,-525.0
-11.0,-204.0,-148.0,-165.0,-72.0,171.0,-64.0,-806.0,-523.0
-6.0,-203.0,-148.0,-173.0,-50.0,169.0,-57.0,-797.0,-525.0
-10.0,-197.0,-148.0,-181.0,-32.0,168.0,-53.0,-789.0,-525.0
-7.0,-198.0,-148.0,-189.0,-17.0,169.0,-52.0,-782.0,-523.0
-8.0,-195.0,-142.0,-191.0,-4.0,171.0,-52.0,-779.0,-517.0
-7.0,-195.0,-145.0,-192.0,6.0,177.0,-57.0,-770.0,-508.0
-12.0,-197.0,-138.0,-185.0,15.0,184.0,-66.0,-768.0,-505.0
-12.0,-196.0,-142.0,-174.0,21.0,198.0,-69.0,-766.0,-497.0
-13.0,-198.0,-140.0,-154.0,27.0,212.0,-90.0,-772.0,-492.0
-14.0,-197.0,-138.0,-135.0,31.0,227.0,-84.0,-775.0,-490.0
-17.0,-197.0,-135.0,-116.0,35.0,247.0,-96.0,-763.0,-487.0
-19.0,-196.0,-140.0,-101.0,37.0,269.0,-103.0,-761.0,-485.0
-20.0,-193.0,-135.0,-87.0,40.0,290.0,-104.0,-757.0,-479.0
-20.0,-194.0,-138.0,-79.0,44.0,316.0,-107.0,-751.0,-485.0
-21.0,-193.0,-135.0,-71.0,48.0,341.0,-106.0,-746.0,-484.0
-18.0,-193.0,-135.0,-63.0,53.0,363.0,-101.0,-742.0,-486.0
-19.0,-192.0,-137.0,-57.0,58.0,389.0,-100.0,-741.0,-469.0
-16.0,-193.0,-134.0,-47.0,67.0,412.0,-94.0,-744.0,-475.0
-13.0,-195.0,-127.0,-37.0,73.0,428.0,-92.0,-749.0,-461.0
-12.0,-196.0,-133.0,-29.0,80.0,447.0,-83.0,-755.0,-463.0
-11.0,-196.0,-132.0,-19.0,87.0,462.0,-76.0,-763.0,-462.0
-11.0,-197.0,-133.0,-12.0,93.0,477.0,-70.0,-779.0,-463.0
-13.0,-201.0,-132.0,-4.0,103.0,489.0,-69.0,-788.0,-457.0
-12.0,-203.0,-130.0,8.0,113.0,503.0,-67.0,-803.0,-455.0
-9.0,-206.0,-133.0,23.0,125.0,515.0,-62.0,-809.0,-456.0
-12.0,-210.0,-131.0,38.0,137.0,524.0,-61.0,-825.0,-464.0
-12.0,-211.0,-131.0,51.0,151.0,530.0,-72.0,-830.0,-457.0
-12.0,-214.0,-131.0,65.0,160.0,535.0,-70.0,-840.0,-463.0
-12.0,-218.0,-131.0,79.0,170.0,539.0,-85.0,-851.0,-463.0
-15.0,-221.0,-136.0,92.0,174.0,548.0,-96.0,-857.0,-462.0
-20.0,-220.0,-134.0,110.0,178.0,548.0,-101.0,-853.0,-463.0
-22.0,-221.0,-133.0,120.0,186.0,551.0,-118.0,-856.0,-461.0
-24.0,-219.0,-135.0,138.0,190.0,555.0,-131.0,-851.0,-466.0
-30.0,-216.0,-132.0,155.0,193.0,563.0,-139.0,-839.0,-466.0
-34.0,-208.0,-136.0,174.0,196.0,569.0,-151.0,-825.0,-471.0
-31.0,-207.0,-135.0,195.0,199.0,584.0,-141.0,-801.0,-468.0
-32.0,-201.0,-131.0,230.0,198.0,598.0,-144.0,-785.0,-467.0
-21.0,-189.0,-138.0,255.0,193.0,616.0,-118.0,-740.0,-503.0
-31.0,-182.0,-138.0,279.0,191.0,632.0,-132.0,-749.0,-452.0
-27.0,-192.0,-133.0,309.0,191.0,647.0,-130.0,-729.0,-456.0
-25.0,-186.0,-127.0,347.0,188.0,660.0,-114.0,-712.0,-453.0
-18.0,-187.0,-125.0,387.0,186.0,681.0,-101.0,-711.0,-437.0
-16.0,-186.0,-122.0,438.0,183.0,691.0,-92.0,-707.0,-431.0
-11.0,-184.0,-120.0,490.0,177.0,697.0,-63.0,-703.0,-421.0
-8.0,-186.0,-120.0,542.0,175.0,715.0,-56.0,-716.0,-405.0
-6.0,-189.0,-118.0,598.0,174.0,744.0,-50.0,-728.0,-393.0
-3.0,-195.0,-115.0,637.0,173.0,762.0,-39.0,-746.0,-387.0
-2.0,-202.0,-110.0,667.0,178.0,786.0,-36.0,-779.0,-376.0
-2.0,-204.0,-107.0,694.0,179.0,807.0,-26.0,-800.0,-368.0
-5.0,-211.0,-111.0,717.0,179.0,831.0,-45.0,-827.0,-372.0
-12.0,-216.0,-116.0,729.0,171.0,852.0,-61.0,-839.0,-373.0
-10.0,-216.0,-112.0,739.0,153.0,888.0,-60.0,-844.0,-371.0
-9.0,-217.0,-109.0,744.0,127.0,913.0,-66.0,-842.0,-371.0
-11.0,-209.0,-111.0,742.0,94.0,947.0,-60.0,-828.0,-379.0
-12.0,-205.0,-114.0,727.0,53.0,961.0,-64.0,-802.0,-387.0
-10.0,-191.0,-114.0,702.0,23.0,966.0,-59.0,-750.0,-387.0
-3.0,-174.0,-116.0,670.0,-3.0,970.0,-38.0,-692.0,-388.0
-6.0,-158.0,-116.0,632.0,-28.0,983.0,-37.0,-640.0,-394.0
-7.0,-143.0,-117.0,581.0,-50.0,987.0,-36.0,-590.0,-386.0
-5.0,-133.0,-109.0,520.0,-76.0,995.0,-35.0,-521.0,-374.0
-4.0,-120.0,-111.0,464.0,-104.0,1001.0,-28.0,-473.0,-353.0
0.0,-110.0,-100.0,426.0,-133.0,1022.0,-8.0,-436.0,-336.0
-1.0,-109.0,-99.0,408.0,-172.0,1053.0,-7.0,-425.0,-319.0
-1.0,-111.0,-91.0,402.0,-223.0,1081.0,-14.0,-432.0,-289.0
6.0,-107.0,-85.0,411.0,-271.0,1104.0,10.0,-415.0,-262.0
4.0,-104.0,-72.0,427.0,-318.0,1147.0,1.0,-412.0,-231.0
-1.0,-104.0,-69.0,447.0,-358.0,1189.0,-9.0,-422.0,-210.0
-4.0,-111.0,-65.0,466.0,-393.0,1224.0,-20.0,-428.0,-181.0
-7.0,-109.0,-58.0,479.0,-422.0,1250.0,-42.0,-431.0,-158.0
-12.0,-111.0,-52.0,487.0,-449.0,1292.0,-53.0,-431.0,-141.0
-21.0,-115.0,-54.0,480.0,-474.0,1335.0,-92.0,-449.0,-126.0
-25.0,-120.0,-43.0,455.0,-496.0,1387.0,-112.0,-470.0,-124.0
-35.0,-125.0,-45.0,417.0,-518.0,1433.0,-157.0,-493.0,-101.0
-39.0,-127.0,-38.0,374.0,-547.0,1488.0,-156.0,-492.0,-90.0
-46.0,-132.0,-44.0,347.0,-582.0,1547.0,-186.0,-514.0,-85.0
-51.0,-135.0,-37.0,321.0,-628.0,1599.0,-207.0,-532.0,-88.0
-51.0,-143.0,-38.0,297.0,-680.0,1636.0,-213.0,-547.0,-79.0
-57.0,-143.0,-37.0,284.0,-742.0,1665.0,-229.0,-561.0,-69.0
-57.0,-147.0,-31.0,279.0,-808.0,1685.0,-231.0,-568.0,-60.0
-58.0,-149.0,-30.0,285.0,-881.0,1702.0,-242.0,-574.0,-48.0
-59.0,-152.0,-26.0,302.0,-960.0,1713.0,-238.0,-583.0,-41.0
-62.0,-156.0,-24.0,330.0,-1056.0,1727.0,-248.0,-598.0,-25.0
-64.0,-159.0,-25.0,370.0,-1133.0,1731.0,-255.0,-618.0,-32.0
-65.0,-160.0,-17.0,399.0,-1206.0,1723.0,-263.0,-636.0,-13.0
-56.0,-158.0,-18.0,438.0,-1283.0,1722.0,-228.0,-602.0,7.0
-53.0,-160.0,-15.0,476.0,-1359.0,1744.0,-215.0,-622.0,14.0
-55.0,-161.0,-14.0,497.0,-1429.0,1762.0,-223.0,-633.0,17.0
-55.0,-168.0,-13.0,503.0,-1492.0,1775.0,-227.0,-650.0,16.0
-54.0,-168.0,-12.0,499.0,-1548.0,1768.0,-229.0,-643.0,15.0
-51.0,-165.0,-16.0,488.0,-1601.0,1770.0,-218.0,-648.0,7.0
-53.0,-163.0,-16.0,472.0,-1653.0,1768.0,-217.0,-650.0,-6.0
-42.0,-161.0,-29.0,443.0,-1716.0,1760.0,-193.0,-634.0,-26.0
-57.0,-162.0,-21.0,395.0,-1742.0,1679.0,-201.0,-632.0,3.0
-65.0,-149.0,-30.0,368.0,-1788.0,1616.0,-275.0,-591.0,-38.0
-24.0,-142.0,-47.0,346.0,-1862.0,1656.0,-113.0,-559.0,-90.0
-74.0,-136.0,-37.0,323.0,-1935.0,1664.0,-289.0,-543.0,-71.0
-73.0,-133.0,-45.0,302.0,-2039.0,1715.0,-297.0,-522.0,-97.0
-73.0,-130.0,-46.0,279.0,-2137.0,1753.0,-269.0,-507.0,-103.0
-70.0,-127.0,-45.0,259.0,-2220.0,1745.0,-255.0,-486.0,-89.0
-84.0,-117.0,-42.0,253.0,-2297.0,1731.0,-324.0,-451.0,-102.0
-86.0,-111.0,-53.0,246.0,-2396.0,1749.0,-340.0,-426.0,-121.0
-83.0,-108.0,-54.0,225.0,-2471.0,1772.0,-338.0,-417.0,-130.0
-84.0,-106.0,-54.0,193.0,-2537.0,1776.0,-348.0,-411.0,-146.0
-81.0,-100.0,-56.0,142.0,-2599.0,1778.0,-332.0,-401.0,-156.0
-83.0,-101.0,-57.0,80.0,-2656.0,1769.0,-332.0,-392.0,-144.0
-81.0,-102.0,-53.0,19.0,-2714.0,1759.0,-325.0,-388.0,-132.0
-85.0,-95.0,-42.0,-24.0,-2777.0,1736.0,-344.0,-373.0,-109.0
-87.0,-93.0,-36.0,-51.0,-2848.0,1720.0,-348.0,-346.0,-78.0
-93.0,-87.0,-23.0,-62.0,-2928.0,1700.0,-352.0,-335.0,-26.0
-99.0,-89.0,-17.0,-60.0,-3028.0,1673.0,-382.0,-329.0,12.0
-103.0,-95.0,3.0,-36.0,-3122.0,1643.0,-390.0,-353.0,85.0
-101.0,-111.0,19.0,18.0,-3221.0,1595.0,-393.0,-401.0,157.0
-115.0,-127.0,33.0,94.0,-3325.0,1521.0,-453.0,-459.0,204.0
-144.0,-140.0,43.0,193.0,-3442.0,1441.0,-549.0,-511.0,244.0
-167.0,-160.0,58.0,306.0,-3587.0,1372.0,-635.0,-583.0,296.0
-207.0,-186.0,69.0,417.0,-3764.0,1318.0,-756.0,-678.0,345.0
-275.0,-210.0,84.0,521.0,-3975.0,1288.0,-1101.0,-771.0,424.0
-373.0,-231.0,55.0,647.0,-4259.0,1374.0,-1449.0,-861.0,293.0
-434.0,-283.0,12.0,744.0,-4490.0,1604.0,-1713.0,-1058.0,158.0
-525.0,-320.0,-29.0,810.0,-4447.0,1830.0,-2045.0,-1208.0,-24.0
-654.0,-300.0,-69.0,739.0,-4220.0,2143.0,-2563.0,-1169.0,-178.0
-765.0,-286.0,-92.0,583.0,-3734.0,2715.0,-3004.0,-1073.0,-192.0
-939.0,-316.0,-32.0,353.0,-2996.0,3424.0,-3653.0,-1154.0,1.0
-1015.0,-285.0,-16.0,190.0,-2146.0,4143.0,-4147.0,-1125.0,115.0
-1277.0,-226.0,-3.0,21.0,-1409.0,4794.0,-4871.0,-751.0,70.0
-1079.0,29.0,-51.0,-267.0,-956.0,5464.0,-4621.0,-4.0,-91.0
-1350.0,121.0,-7.0,-729.0,-608.0,5759.0,-5079.0,561.0,94.0
-1387.0,232.0,25.0,-1181.0,-409.0,5781.0,-5299.0,916.0,176.0
-1262.0,215.0,-29.0,-1557.0,-374.0,5785.0,-4890.0,907.0,3.0
-1139.0,111.0,-131.0,-1747.0,-310.0,5612.0,-4464.0,547.0,-402.0
-994.0,-49.0,-213.0,-1831.0,-84.0,5219.0,-3976.0,1.0,-736.0
-929.0,-129.0,-217.0,-1706.0,204.0,4747.0,-3603.0,-396.0,-820.0
-856.0,-187.0,-170.0,-1366.0,273.0,4453.0,-3273.0,-626.0,-642.0
-755.0,-200.0,-137.0,-982.0,-6.0,4363.0,-2907.0,-685.0,-504.0
-631.0,-215.0,-76.0,-672.0,-385.0,4287.0,-2456.0,-710.0,-303.0
-494.0,-211.0,-26.0,-285.0,-603.0,4125.0,-2109.0,-765.0,-87.0
-378.0,-227.0,47.0,157.0,-680.0,3911.0,-1610.0,-790.0,169.0
-293.0,-212.0,65.0,702.0,-669.0,3544.0,-1189.0,-768.0,297.0
-261.0,-201.0,70.0,955.0,-566.0,3116.0,-1065.0,-739.0,365.0
-267.0,-163.0,99.0,881.0,-406.0,2637.0,-1068.0,-649.0,459.0
-265.0,-123.0,116.0,554.0,-309.0,2235.0,-1042.0,-502.0,528.0
-335.0,-92.0,210.0,147.0,-322.0,1961.0,-1307.0,-346.0,831.0
-217.0,-110.0,129.0,-91.0,-568.0,1833.0,-758.0,-454.0,588.0
-84.0,-71.0,93.0,-391.0,-672.0,1482.0,-407.0,-362.0,493.0
-76.0,-41.0,103.0,-849.0,-563.0,914.0,-469.0,-219.0,588.0
-111.0,-1.0,163.0,-1343.0,-390.0,385.0,-552.0,-46.0,693.0
-63.0,37.0,145.0,-1783.0,-123.0,-117.0,-405.0,-10.0,726.0
-61.0,38.0,148.0,-2169.0,168.0,-425.0,-314.0,138.0,684.0
-111.0,43.0,172.0,-2337.0,551.0,-656.0,-522.0,222.0,787.0
-88.0,5.0,152.0,-2283.0,968.0,-804.0,-394.0,76.0,693.0
-112.0,-15.0,151.0,-2076.0,1411.0,-1010.0,-478.0,6.0,674.0
-135.0,-30.0,129.0,-1757.0,1749.0,-1150.0,-562.0,-41.0,607.0
-150.0,-29.0,83.0,-1390.0,1971.0,-1149.0,-619.0,-58.0,444.0
-146.0,-24.0,67.0,-1063.0,2154.0,-1023.0,-574.0,-59.0,325.0
-128.0,-35.0,46.0,-815.0,2252.0,-832.0,-504.0,-106.0,254.0
-160.0,-37.0,49.0,-617.0,2209.0,-662.0,-604.0,-111.0,253.0
-191.0,-43.0,35.0,-406.0,1995.0,-489.0,-701.0,-146.0,190.0
-186.0,-50.0,7.0,-271.0,1689.0,-282.0,-687.0,-180.0,104.0
-175.0,-53.0,-36.0,-200.0,1368.0,-96.0,-652.0,-205.0,-50.0
-183.0,-63.0,-41.0,-196.0,1110.0,48.0,-688.0,-219.0,-106.0
-179.0,-75.0,-40.0,-152.0,867.0,194.0,-684.0,-273.0,-99.0
-177.0,-97.0,-34.0,-38.0,620.0,313.0,-661.0,-341.0,-82.0
-191.0,-84.0,-29.0,113.0,362.0,397.0,-717.0,-311.0,-49.0
-193.0,-90.0,-32.0,215.0,68.0,480.0,-724.0,-338.0,-54.0
-193.0,-96.0,-28.0,251.0,-203.0,534.0,-745.0,-351.0,-62.0
-184.0,-88.0,-29.0,250.0,-456.0,539.0,-715.0,-342.0,-49.0
-185.0,-66.0,-21.0,237.0,-623.0,533.0,-724.0,-266.0,-12.0
-158.0,-58.0,-9.0,235.0,-750.0,583.0,-627.0,-211.0,29.0
-166.0,-46.0,8.0,245.0,-840.0,613.0,-650.0,-167.0,95.0
-178.0,-38.0,21.0,284.0,-939.0,650.0,-689.0,-84.0,162.0
-117.0,-13.0,14.0,389.0,-1018.0,723.0,-485.0,-34.0,137.0
-105.0,7.0,17.0,503.0,-964.0,679.0,-444.0,46.0,151.0
-114.0,28.0,31.0,613.0,-835.0,603.0,-465.0,118.0,163.0
-204.0,46.0,61.0,734.0,-705.0,581.0,-664.0,240.0,248.0
-109.0,58.0,30.0,947.0,-688.0,790.0,-526.0,211.0,212.0
-78.0,57.0,27.0,1064.0,-612.0,905.0,-328.0,242.0,181.0
-137.0,83.0,27.0,1129.0,-478.0,887.0,-549.0,366.0,189.0
-128.0,113.0,34.0,1206.0,-428.0,989.0,-485.0,432.0,189.0
-102.0,125.0,13.0,1268.0,-410.0,1119.0,-393.0,481.0,129.0
-112.0,148.0,-4.0,1285.0,-377.0,1173.0,-442.0,549.0,65.0
-125.0,163.0,-7.0,1229.0,-352.0,1221.0,-477.0,600.0,41.0
-156.0,170.0,-3.0,1148.0,-355.0,1255.0,-576.0,640.0,36.0
-205.0,173.0,38.0,1078.0,-402.0,1295.0,-700.0,679.0,54.0
-252.0,192.0,24.0,1056.0,-548.0,1409.0,-936.0,743.0,161.0
-231.0,202.0,-4.0,1109.0,-703.0,1552.0,-905.0,773.0,79.0
-233.0,219.0,-3.0,1086.0,-759.0,1566.0,-908.0,834.0,42.0
-280.0,237.0,0.0,993.0,-755.0,1474.0,-1062.0,901.0,46.0
-322.0,246.0,10.0,878.0,-755.0,1364.0,-1208.0,941.0,91.0
-366.0,255.0,15.0,789.0,-769.0,1273.0,-1386.0,964.0,130.0
-396.0,268.0,24.0,712.0,-781.0,1191.0,-1550.0,1036.0,157.0
-413.0,277.0,33.0,634.0,-771.0,1131.0,-1599.0,1082.0,194.0
-427.0,289.0,41.0,557.0,-757.0,1059.0,-1637.0,1123.0,216.0
-431.0,291.0,47.0,476.0,-761.0,932.0,-1659.0,1141.0,241.0
-476.0,295.0,63.0,410.0,-839.0,833.0,-1817.0,1164.0,325.0
-405.0,286.0,29.0,442.0,-967.0,825.0,-1605.0,1106.0,171.0
-387.0,286.0,5.0,342.0,-969.0,682.0,-1490.0,1101.0,71.0
-390.0,272.0,-4.0,156.0,-940.0,478.0,-1496.0,1067.0,60.0
-381.0,262.0,-10.0,-9.0,-955.0,323.0,-1456.0,1011.0,31.0
-369.0,246.0,-9.0,-139.0,-995.0,213.0,-1419.0,949.0,17.0
-358.0,227.0,-21.0,-231.0,-1063.0,121.0,-1387.0,882.0,-17.0
-342.0,220.0,-32.0,-318.0,-1168.0,2.0,-1332.0,846.0,-64.0
-342.0,198.0,-25.0,-392.0,-1261.0,-102.0,-1310.0,779.0,-36.0
-338.0,167.0,-21.0,-410.0,-1377.0,-166.0,-1283.0,669.0,-6.0
-346.0,149.0,-14.0,-347.0,-1504.0,-177.0,-1315.0,593.0,-6.0
-321.0,131.0,-20.0,-240.0,-1660.0,-139.0,-1255.0,541.0,-9.0
-302.0,130.0,-24.0,-166.0,-1764.0,-141.0,-1171.0,502.0,-38.0
-294.0,122.0,-13.0,-161.0,-1803.0,-196.0,-1146.0,476.0,13.0
-290.0,121.0,-2.0,-167.0,-1830.0,-257.0,-1129.0,469.0,56.0
-271.0,126.0,8.0,-177.0,-1845.0,-292.0,-1067.0,482.0,101.0
-248.0,131.0,20.0,-191.0,-1825.0,-320.0,-968.0,500.0,142.0
-217.0,136.0,31.0,-219.0,-1745.0,-324.0,-876.0,522.0,178.0
-207.0,127.0,66.0,-262.0,-1594.0,-302.0,-816.0,518.0,279.0
-199.0,120.0,77.0,-252.0,-1494.0,-276.0,-794.0,477.0,363.0
-195.0,117.0,88.0,-226.0,-1420.0,-244.0,-764.0,442.0,414.0
-179.0,106.0,103.0,-229.0,-1371.0,-196.0,-718.0,412.0,480.0
-160.0,100.0,108.0,-266.0,-1338.0,-143.0,-632.0,374.0,504.0
-149.0,93.0,119.0,-336.0,-1294.0,-105.0,-581.0,352.0,539.0
-139.0,90.0,125.0,-412.0,-1264.0,-76.0,-532.0,346.0,563.0
-118.0,85.0,133.0,-477.0,-1260.0,-33.0,-470.0,344.0,586.0
-118.0,86.0,133.0,-524.0,-1272.0,-16.0,-457.0,343.0,591.0
-121.0,86.0,135.0,-554.0,-1299.0,-10.0,-467.0,337.0,602.0
-120.0,80.0,136.0,-552.0,-1346.0,-13.0,-478.0,331.0,605.0
-127.0,81.0,134.0,-526.0,-1405.0,-17.0,-491.0,328.0,606.0
-139.0,81.0,136.0,-485.0,-1478.0,-37.0,-522.0,319.0,593.0
-143.0,75.0,129.0,-433.0,-1559.0,-56.0,-546.0,308.0,585.0
-156.0,72.0,127.0,-368.0,-1640.0,-83.0,-590.0,297.0,568.0
-163.0,68.0,116.0,-296.0,-1709.0,-104.0,-623.0,293.0,545.0
-172.0,66.0,115.0,-227.0,-1757.0,-128.0,-659.0,280.0,534.0
-172.0,61.0,116.0,-154.0,-1785.0,-147.0,-677.0,268.0,529.0
-170.0,63.0,122.0,-79.0,-1782.0,-182.0,-680.0,265.0,536.0
-171.0,62.0,115.0,4.0,-1729.0,-217.0,-691.0,258.0,537.0
-175.0,58.0,120.0,65.0,-1645.0,-265.0,-705.0,248.0,556.0
-178.0,52.0,127.0,113.0,-1532.0,-309.0,-722.0,222.0,579.0
-178.0,52.0,132.0,144.0,-1405.0,-361.0,-720.0,203.0,591.0
-190.0,41.0,145.0,148.0,-1274.0,-405.0,-759.0,184.0,643.0
-194.0,39.0,150.0,153.0,-1165.0,-438.0,-769.0,154.0,674.0
-194.0,26.0,154.0,145.0,-1055.0,-456.0,-776.0,125.0,695.0
-198.0,17.0,161.0,123.0,-943.0,-482.0,-800.0,92.0,708.0
-206.0,14.0,167.0,97.0,-829.0,-497.0,-831.0,67.0,727.0
-211.0,5.0,172.0,61.0,-694.0,-492.0,-845.0,46.0,748.0
-206.0,1.0,176.0,32.0,-599.0,-466.0,-840.0,22.0,755.0
-163.0,-18.0,166.0,-20.0,-495.0,-458.0,-652.0,-42.0,739.0
-207.0,-10.0,180.0,-88.0,-350.0,-535.0,-806.0,-37.0,772.0
-202.0,-18.0,181.0,-136.0,-266.0,-576.0,-828.0,-56.0,781.0
-211.0,-26.0,186.0,-173.0,-219.0,-576.0,-826.0,-73.0,810.0
-225.0,-39.0,181.0,-161.0,-217.0,-546.0,-872.0,-118.0,799.0
-253.0,-55.0,189.0,-108.0,-248.0,-491.0,-968.0,-167.0,812.0
-253.0,-67.0,176.0,-2.0,-340.0,-389.0,-988.0,-211.0,796.0
-210.0,-72.0,168.0,135.0,-474.0,-235.0,-862.0,-253.0,754.0
-190.0,-77.0,163.0,277.0,-522.0,-179.0,-751.0,-266.0,717.0
-179.0,-72.0,159.0,354.0,-503.0,-169.0,-717.0,-273.0,703.0
-173.0,-67.0,158.0,399.0,-456.0,-166.0,-692.0,-244.0,700.0
-164.0,-65.0,160.0,423.0,-408.0,-141.0,-674.0,-231.0,695.0
-163.0,-57.0,157.0,441.0,-361.0,-114.0,-665.0,-198.0,690.0
-165.0,-50.0,155.0,454.0,-312.0,-87.0,-672.0,-171.0,694.0
-164.0,-40.0,151.0,455.0,-269.0,-66.0,-652.0,-146.0,678.0
-166.0,-34.0,152.0,439.0,-231.0,-46.0,-653.0,-120.0,671.0
-166.0,-28.0,146.0,410.0,-201.0,-32.0,-665.0,-87.0,664.0
-170.0,-15.0,148.0,364.0,-180.0,-21.0,-686.0,-58.0,653.0
-180.0,-11.0,145.0,319.0,-159.0,-15.0,-707.0,-39.0,657.0
-178.0,-4.0,146.0,282.0,-148.0,-1.0,-708.0,-15.0,655.0
-181.0,-1.0,144.0,251.0,-139.0,8.0,-725.0,19.0,643.0
-181.0,8.0,141.0,224.0,-118.0,11.0,-722.0,40.0,648.0
-184.0,15.0,144.0,206.0,-91.0,1.0,-725.0,64.0,644.0
-186.0,22.0,141.0,197.0,-66.0,-3.0,-726.0,89.0,640.0
-188.0,24.0,142.0,190.0,-38.0,-11.0,-749.0,105.0,642.0
-191.0,32.0,139.0,189.0,-22.0,-13.0,-748.0,128.0,635.0
-193.0,31.0,144.0,176.0,-8.0,-20.0,-759.0,135.0,637.0
-196.0,29.0,142.0,159.0,-2.0,-25.0,-774.0,138.0,630.0
-195.0,32.0,139.0,133.0,-2.0,-29.0,-775.0,137.0,630.0
-198.0,28.0,140.0,100.0,-5.0,-31.0,-773.0,125.0,618.0
-193.0,24.0,144.0,56.0,-4.0,-37.0,-760.0,118.0,629.0
-198.0,20.0,142.0,17.0,-5.0,-50.0,-784.0,86.0,623.0
-203.0,11.0,139.0,-16.0,-9.0,-56.0,-793.0,62.0,625.0
-204.0,6.0,134.0,-45.0,-10.0,-56.0,-802.0,39.0,602.0
-203.0,-1.0,132.0,-67.0,-3.0,-55.0,-801.0,10.0,607.0
-216.0,-3.0,135.0,-74.0,15.0,-48.0,-849.0,-2.0,627.0
-206.0,-8.0,132.0,-74.0,23.0,-29.0,-835.0,-20.0,585.0
-208.0,-12.0,127.0,-84.0,44.0,-24.0,-820.0,-32.0,590.0
-209.0,-11.0,131.0,-81.0,61.0,-28.0,-822.0,-30.0,581.0
-210.0,-14.0,128.0,-76.0,77.0,-28.0,-833.0,-26.0,581.0
-211.0,-11.0,127.0,-59.0,81.0,-26.0,-832.0,-20.0,581.0
-211.0,-5.0,128.0,-47.0,71.0,-25.0,-837.0,-17.0,573.0
-211.0,-4.0,125.0,-38.0,57.0,-29.0,-833.0,-2.0,572.0
-214.0,1.0,130.0,-32.0,50.0,-30.0,-848.0,11.0,573.0
-214.0,2.0,126.0,-27.0,37.0,-36.0,-855.0,26.0,568.0
-219.0,2.0,126.0,-24.0,23.0,-41.0,-868.0,45.0,567.0
-222.0,11.0,130.0,-24.0,7.0,-37.0,-876.0,63.0,568.0
-225.0,17.0,126.0,-25.0,-14.0,-24.0,-886.0,83.0,561.0
-233.0,19.0,124.0,-33.0,-35.0,-14.0,-906.0,85.0,556.0
-241.0,22.0,135.0,-46.0,-49.0,-9.0,-929.0,102.0,579.0
-240.0,27.0,130.0,-46.0,-73.0,9.0,-940.0,112.0,585.0
-233.0,28.0,128.0,-47.0,-91.0,25.0,-924.0,124.0,578.0
-233.0,29.0,123.0,-58.0,-91.0,30.0,-922.0,139.0,570.0
-227.0,30.0,123.0,-72.0,-83.0,28.0,-905.0,135.0,564.0
-230.0,30.0,121.0,-89.0,-67.0,28.0,-902.0,138.0,574.0
-229.0,32.0,131.0,-91.0,-64.0,35.0,-899.0,137.0,580.0
-226.0,30.0,131.0,-94.0,-65.0,46.0,-887.0,124.0,582.0
-225.0,27.0,136.0,-96.0,-70.0,53.0,-885.0,132.0,593.0
-220.0,27.0,138.0,-100.0,-75.0,66.0,-876.0,122.0,603.0
-219.0,25.0,134.0,-103.0,-84.0,77.0,-865.0,117.0,603.0
-218.0,24.0,137.0,-103.0,-93.0,88.0,-858.0,112.0,602.0
-213.0,24.0,137.0,-102.0,-98.0,98.0,-850.0,110.0,612.0
-209.0,22.0,138.0,-97.0,-98.0,105.0,-838.0,106.0,613.0
-213.0,19.0,144.0,-88.0,-101.0,116.0,-836.0,105.0,626.0
-203.0,22.0,144.0,-69.0,-113.0,127.0,-815.0,103.0,632.0
-200.0,23.0,139.0,-51.0,-114.0,133.0,-791.0,108.0,626.0
-201.0,25.0,140.0,-41.0,-111.0,138.0,-786.0,114.0,627.0
-198.0,27.0,139.0,-36.0,-105.0,139.0,-778.0,121.0,632.0
-194.0,28.0,139.0,-30.0,-99.0,138.0,-767.0,130.0,637.0
-195.0,30.0,144.0,-23.0,-94.0,137.0,-758.0,143.0,644.0
-194.0,33.0,140.0,-13.0,-89.0,140.0,-751.0,143.0,651.0
-190.0,36.0,151.0,-1.0,-90.0,143.0,-748.0,152.0,661.0
-190.0,37.0,147.0,18.0,-95.0,147.0,-742.0,159.0,664.0
-191.0,40.0,149.0,37.0,-94.0,145.0,-742.0,169.0,660.0
-191.0,43.0,150.0,43.0,-90.0,144.0,-748.0,177.0,678.0
-188.0,41.0,153.0,56.0,-90.0,136.0,-744.0,181.0,685.0
-187.0,43.0,152.0,70.0,-90.0,126.0,-731.0,189.0,671.0
-187.0,48.0,151.0,78.0,-83.0,111.0,-729.0,202.0,675.0
-181.0,48.0,154.0,84.0,-76.0,103.0,-725.0,204.0,675.0
-184.0,51.0,150.0,84.0,-68.0,92.0,-725.0,212.0,678.0
-182.0,55.0,154.0,82.0,-60.0,84.0,-725.0,217.0,681.0
-185.0,55.0,155.0,77.0,-51.0,74.0,-715.0,226.0,685.0
-180.0,56.0,157.0,76.0,-46.0,69.0,-714.0,234.0,701.0
-182.0,57.0,156.0,77.0,-49.0,62.0,-717.0,232.0,698.0
-185.0,58.0,162.0,79.0,-51.0,63.0,-729.0,241.0,708.0
-187.0,57.0,167.0,84.0,-62.0,64.0,-742.0,238.0,719.0
-188.0,59.0,164.0,85.0,-77.0,65.0,-740.0,242.0,715.0
-186.0,60.0,161.0,77.0,-90.0,63.0,-732.0,244.0,707.0
-179.0,61.0,154.0,57.0,-98.0,63.0,-715.0,253.0,690.0
-181.0,61.0,154.0,30.0,-94.0,59.0,-710.0,256.0,682.0
-183.0,64.0,152.0,9.0,-89.0,58.0,-711.0,264.0,674.0
-181.0,62.0,152.0,-7.0,-83.0,51.0,-709.0,265.0,677.0
-181.0,64.0,153.0,-24.0,-79.0,52.0,-715.0,265.0,682.0
-183.0,63.0,156.0,-34.0,-77.0,49.0,-724.0,258.0,684.0
-189.0,61.0,152.0,-42.0,-76.0,52.0,-730.0,258.0,686.0
-187.0,60.0,155.0,-49.0,-74.0,53.0,-733.0,253.0,684.0
-189.0,60.0,154.0,-57.0,-70.0,52.0,-738.0,231.0,683.0
-190.0,57.0,155.0,-67.0,-62.0,47.0,-741.0,227.0,682.0
-190.0,53.0,158.0,-74.0,-54.0,45.0,-746.0,224.0,683.0
-190.0,54.0,158.0,-80.0,-44.0,38.0,-749.0,224.0,695.0
-193.0,51.0,156.0,-82.0,-33.0,35.0,-752.0,216.0,691.0
-196.0,53.0,153.0,-83.0,-24.0,28.0,-753.0,211.0,698.0
-193.0,49.0,158.0,-82.0,-13.0,27.0,-756.0,216.0,699.0
-197.0,48.0,159.0,-81.0,-3.0,20.0,-763.0,205.0,697.0
-197.0,48.0,161.0,-80.0,9.0,17.0,-766.0,205.0,702.0
-193.0,43.0,159.0,-84.0,16.0,10.0,-766.0,195.0,699.0
-197.0,43.0,156.0,-87.0,22.0,5.0,-777.0,191.0,697.0
-201.0,44.0,156.0,-91.0,28.0,-1.0,-775.0,181.0,693.0
-197.0,41.0,157.0,-94.0,32.0,-5.0,-775.0,179.0,691.0
-180.0,47.0,156.0,-100.0,34.0,-13.0,-772.0,176.0,689.0
-195.0,43.0,155.0,-104.0,35.0,-15.0,-778.0,173.0,684.0
-209.0,35.0,149.0,-106.0,33.0,-20.0,-775.0,162.0,680.0
-203.0,36.0,140.0,-106.0,33.0,-18.0,-774.0,158.0,680.0
-198.0,33.0,156.0,-102.0,30.0,-20.0,-770.0,161.0,670.0
-198.0,33.0,152.0,-96.0,26.0,-16.0,-773.0,155.0,662.0
-196.0,36.0,148.0,-87.0,25.0,-16.0,-766.0,157.0,662.0
-197.0,34.0,148.0,-75.0,21.0,-11.0,-767.0,144.0,656.0
-197.0,32.0,146.0,-61.0,19.0,-12.0,-770.0,146.0,653.0
-198.0,29.0,147.0,-50.0,18.0,-10.0,-770.0,137.0,647.0
-199.0,29.0,143.0,-41.0,16.0,-13.0,-774.0,134.0,643.0
-201.0,29.0,145.0,-34.0,12.0,-13.0,-780.0,136.0,648.0
-201.0,28.0,146.0,-29.0,10.0,-18.0,-775.0,127.0,649.0
-200.0,27.0,146.0,-25.0,10.0,-21.0,-772.0,121.0,651.0
-198.0,28.0,149.0,-23.0,14.0,-27.0,-775.0,120.0,655.0
-194.0,24.0,144.0,-17.0,20.0,-27.0,-772.0,114.0,651.0
-199.0,24.0,148.0,-11.0,26.0,-29.0,-769.0,113.0,653.0
-196.0,24.0,146.0,-4.0,29.0,-26.0,-773.0,114.0,651.0
-201.0,28.0,143.0,2.0,29.0,-30.0,-772.0,109.0,653.0
-199.0,23.0,144.0,4.0,24.0,-26.0,-775.0,117.0,652.0
-200.0,28.0,150.0,5.0,22.0,-29.0,-778.0,121.0,653.0
-198.0,26.0,144.0,5.0,18.0,-25.0,-776.0,121.0,653.0
-202.0,25.0,146.0,4.0,13.0,-26.0,-786.0,113.0,646.0
-198.0,24.0,149.0,1.0,7.0,-21.0,-781.0,115.0,655.0
-199.0,27.0,149.0,-2.0,0.0,-20.0,-782.0,118.0,656.0
-201.0,28.0,149.0,-7.0,-7.0,-15.0,-787.0,116.0,661.0
-200.0,25.0,143.0,-8.0,-13.0,-14.0,-786.0,114.0,654.0
-203.0,28.0,148.0,-11.0,-17.0,-10.0,-788.0,119.0,655.0
-202.0,26.0,149.0,-13.0,-20.0,-7.0,-784.0,122.0,654.0
-200.0,25.0,149.0,-15.0,-23.0,-2.0,-789.0,125.0,660.0
-201.0,27.0,144.0,-16.0,-22.0,-3.0,-783.0,122.0,657.0
-199.0,28.0,149.0,-18.0,-22.0,2.0,-786.0,123.0,662.0
-203.0,26.0,149.0,-18.0,-23.0,1.0,-788.0,128.0,657.0
-201.0,26.0,150.0,-19.0,-21.0,5.0,-785.0,125.0,661.0
-202.0,29.0,149.0,-18.0,-20.0,4.0,-787.0,123.0,668.0
-203.0,29.0,150.0,-18.0,-18.0,8.0,-784.0,130.0,661.0
-201.0,27.0,147.0,-19.0,-15.0,8.0,-780.0,127.0,669.0
-200.0,29.0,148.0,-22.0,-14.0,11.0,-781.0,129.0,665.0
-199.0,29.0,154.0,-25.0,-12.0,9.0,-777.0,120.0,667.0
-195.0,27.0,153.0,-28.0,-10.0,12.0,-772.0,129.0,668.0
-197.0,27.0,153.0,-32.0,-7.0,10.0,-769.0,130.0,674.0
-198.0,30.0,153.0,-33.0,-4.0,14.0,-768.0,124.0,672.0
-196.0,30.0,151.0,-35.0,-1.0,14.0,-763.0,126.0,673.0
-195.0,29.0,154.0,-35.0,3.0,17.0,-763.0,133.0,676.0
-195.0,29.0,154.0,-35.0,3.0,15.0,-762.0,133.0,677.0
-194.0,31.0,149.0,-36.0,4.0,18.0,-760.0,133.0,673.0
-192.0,31.0,150.0,-36.0,3.0,16.0,-753.0,131.0,678.0
-189.0,28.0,153.0,-37.0,4.0,18.0,-754.0,134.0,679.0
-192.0,29.0,154.0,-36.0,4.0,17.0,-748.0,138.0,679.0
-190.0,30.0,155.0,-35.0,4.0,19.0,-747.0,136.0,684.0
-191.0,29.0,153.0,-31.0,6.0,19.0,-750.0,141.0,683.0
-190.0,34.0,157.0,-27.0,8.0,21.0,-747.0,139.0,682.0
-187.0,31.0,152.0,-25.0,11.0,19.0,-747.0,143.0,686.0
-191.0,33.0,159.0,-22.0,15.0,24.0,-746.0,150.0,687.0
-189.0,35.0,154.0,-18.0,15.0,21.0,-745.0,150.0,686.0
-188.0,34.0,157.0,-16.0,17.0,24.0,-739.0,143.0,691.0
-190.0,36.0,153.0,-16.0,18.0,25.0,-744.0,145.0,686.0
-189.0,36.0,157.0,-15.0,19.0,27.0,-736.0,151.0,684.0
-189.0,33.0,155.0,-14.0,20.0,25.0,-736.0,154.0,696.0
-188.0,34.0,156.0,-13.0,22.0,27.0,-740.0,155.0,689.0
-189.0,33.0,157.0,-12.0,25.0,26.0,-739.0,155.0,691.0
-189.0,38.0,153.0,-12.0,28.0,27.0,-743.0,153.0,693.0
-187.0,36.0,157.0,-10.0,32.0,23.0,-740.0,154.0,687.0
-188.0,34.0,152.0,-9.0,34.0,27.0,-745.0,155.0,690.0
-184.0,36.0,156.0,-6.0,36.0,25.0,-739.0,155.0,687.0
-189.0,36.0,156.0,-7.0,39.0,26.0,-740.0,156.0,690.0
-188.0,36.0,157.0,-6.0,41.0,26.0,-744.0,158.0,684.0
-190.0,38.0,156.0,-3.0,44.0,27.0,-747.0,161.0,692.0
-188.0,36.0,156.0,-4.0,46.0,23.0,-746.0,160.0,690.0
-190.0,39.0,157.0,-2.0,46.0,24.0,-746.0,163.0,688.0
-191.0,38.0,155.0,-1.0,44.0,22.0,-748.0,167.0,690.0
-191.0,38.0,155.0,-1.0,44.0,22.0,-750.0,168.0,693.0
-189.0,40.0,155.0,0.0,44.0,19.0,-754.0,170.0,687.0
-193.0,38.0,156.0,0.0,44.0,18.0,-752.0,172.0,684.0
-193.0,42.0,154.0,-3.0,43.0,16.0,-757.0,174.0,688.0
-194.0,39.0,156.0,-3.0,43.0,15.0,-755.0,173.0,684.0
-191.0,39.0,157.0,-3.0,42.0,14.0,-754.0,174.0,684.0
-191.0,40.0,158.0,-2.0,40.0,16.0,-754.0,171.0,680.0
-194.0,40.0,156.0,-3.0,39.0,11.0,-759.0,175.0,685.0
-195.0,41.0,156.0,-7.0,36.0,12.0,-756.0,173.0,684.0
-195.0,41.0,156.0,-9.0,34.0,8.0,-757.0,174.0,679.0
-193.0,39.0,156.0,-11.0,32.0,9.0,-759.0,176.0,680.0
-195.0,39.0,153.0,-12.0,29.0,8.0,-756.0,169.0,688.0
-194.0,38.0,156.0,-15.0,27.0,8.0,-754.0,170.0,683.0
-195.0,41.0,156.0,-18.0,27.0,6.0,-761.0,171.0,684.0
-193.0,40.0,156.0,-18.0,26.0,6.0,-754.0,166.0,681.0
-192.0,39.0,155.0,-22.0,25.0,6.0,-758.0,162.0,689.0
-189.0,37.0,153.0,-22.0,24.0,5.0,-753.0,172.0,685.0
-195.0,41.0,150.0,-21.0,20.0,3.0,-758.0,167.0,679.0
-194.0,40.0,154.0,-22.0,20.0,3.0,-756.0,165.0,685.0
-193.0,40.0,154.0,-24.0,21.0,3.0,-751.0,162.0,686.0
-193.0,40.0,154.0,-23.0,21.0,5.0,-754.0,164.0,688.0
-192.0,37.0,153.0,-25.0,23.0,4.0,-755.0,163.0,690.0
-191.0,37.0,154.0,-25.0,21.0,4.0,-757.0,161.0,689.0
-193.0,36.0,153.0,-27.0,21.0,5.0,-756.0,157.0,688.0
-196.0,36.0,158.0,-29.0,22.0,5.0,-756.0,158.0,686.0
-195.0,36.0,155.0,-32.0,22.0,8.0,-757.0,155.0,689.0
-192.0,36.0,155.0,-33.0,25.0,9.0,-756.0,157.0,685.0
-194.0,36.0,155.0,-33.0,26.0,9.0,-756.0,155.0,692.0
-192.0,35.0,159.0,-32.0,26.0,8.0,-757.0,148.0,687.0
-193.0,34.0,157.0,-31.0,27.0,7.0,-757.0,150.0,691.0
-194.0,34.0,156.0,-29.0,27.0,7.0,-756.0,149.0,688.0
-191.0,33.0,156.0,-27.0,27.0,7.0,-751.0,144.0,685.0
-193.0,31.0,154.0,-26.0,29.0,6.0,-755.0,148.0,692.0
-191.0,37.0,154.0,-22.0,30.0,6.0,-749.0,147.0,686.0
-193.0,38.0,154.0,-19.0,31.0,5.0,-752.0,153.0,690.0
-191.0,33.0,152.0,-16.0,31.0,6.0,-747.0,151.0,694.0
-193.0,36.0,152.0,-16.0,33.0,6.0,-752.0,156.0,686.0
-189.0,34.0,156.0,-12.0,32.0,8.0,-750.0,148.0,683.0
-192.0,38.0,154.0,-8.0,34.0,9.0,-750.0,153.0,690.0
-190.0,34.0,156.0,-5.0,35.0,10.0,-746.0,153.0,687.0
-193.0,35.0,154.0,-3.0,34.0,11.0,-752.0,144.0,684.0
-190.0,32.0,158.0,-5.0,33.0,8.0,-748.0,143.0,688.0
-191.0,31.0,155.0,-7.0,33.0,7.0,-753.0,141.0,688.0
-194.0,31.0,156.0,-11.0,36.0,5.0,-750.0,139.0,691.0
-193.0,31.0,158.0,-15.0,34.0,0.0,-754.0,132.0,694.0
-192.0,29.0,158.0,-18.0,37.0,-4.0,-756.0,135.0,698.0
-190.0,27.0,159.0,-20.0,40.0,-8.0,-750.0,134.0,693.0
-192.0,30.0,158.0,-19.0,44.0,-8.0,-750.0,133.0,695.0
-190.0,30.0,157.0,-17.0,49.0,-8.0,-752.0,131.0,697.0
-192.0,29.0,157.0,-14.0,54.0,-8.0,-750.0,130.0,692.0
-191.0,31.0,155.0,-10.0,56.0,-11.0,-749.0,136.0,686.0
-193.0,33.0,154.0,-11.0,57.0,-7.0,-750.0,142.0,692.0
-192.0,33.0,156.0,-12.0,54.0,-8.0,-750.0,140.0,685.0
-190.0,36.0,154.0,-13.0,53.0,-5.0,-749.0,146.0,684.0
-190.0,34.0,153.0,-15.0,52.0,-6.0,-748.0,154.0,686.0
-189.0,35.0,158.0,-16.0,50.0,-4.0,-749.0,148.0,692.0
-191.0,36.0,156.0,-17.0,47.0,-3.0,-752.0,155.0,684.0
-192.0,32.0,157.0,-17.0,44.0,1.0,-750.0,150.0,684.0
-192.0,34.0,157.0,-20.0,42.0,1.0,-751.0,156.0,686.0
-194.0,36.0,160.0,-22.0,39.0,4.0,-752.0,153.0,683.0
-190.0,35.0,156.0,-24.0,37.0,4.0,-748.0,154.0,688.0
-191.0,34.0,157.0,-24.0,36.0,8.0,-750.0,151.0,690.0
-191.0,36.0,155.0,-25.0,38.0,5.0,-747.0,155.0,684.0
-193.0,35.0,152.0,-22.0,39.0,7.0,-756.0,152.0,682.0
-191.0,32.0,155.0,-21.0,39.0,5.0,-753.0,151.0,685.0
-191.0,35.0,158.0,-19.0,39.0,6.0,-754.0,147.0,682.0
-192.0,36.0,153.0,-17.0,39.0,5.0,-752.0,153.0,686.0
-192.0,35.0,158.0,-14.0,41.0,6.0,-752.0,152.0,691.0
-191.0,35.0,159.0,-12.0,41.0,4.0,-747.0,156.0,689.0
-193.0,34.0,159.0,-11.0,41.0,6.0,-754.0,147.0,693.0
-193.0,37.0,157.0,-8.0,39.0,4.0,-750.0,152.0,690.0
-194.0,36.0,158.0,-7.0,38.0,7.0,-751.0,148.0,692.0
-192.0,34.0,157.0,-4.0,38.0,7.0,-749.0,154.0,691.0
-190.0,33.0,157.0,-5.0,37.0,8.0,-752.0,153.0,691.0
-190.0,36.0,153.0,-3.0,35.0,6.0,-747.0,150.0,686.0
-190.0,38.0,160.0,-2.0,36.0,9.0,-749.0,155.0,688.0
-190.0,36.0,156.0,-1.0,35.0,6.0,-746.0,156.0,691.0
-193.0,37.0,156.0,1.0,34.0,9.0,-747.0,155.0,691.0
-191.0,37.0,157.0,1.0,35.0,6.0,-749.0,156.0,695.0
-190.0,36.0,159.0,2.0,33.0,7.0,-750.0,154.0,697.0
-191.0,36.0,155.0,4.0,34.0,2.0,-754.0,157.0,692.0
-192.0,36.0,158.0,5.0,33.0,5.0,-757.0,160.0,685.0
-188.0,37.0,157.0,6.0,34.0,4.0,-747.0,158.0,692.0
-192.0,38.0,156.0,9.0,35.0,8.0,-746.0,158.0,687.0
-191.0,34.0,156.0,9.0,36.0,6.0,-747.0,159.0,695.0
-194.0,38.0,158.0,7.0,34.0,7.0,-749.0,161.0,693.0
-192.0,38.0,160.0,4.0,34.0,4.0,-749.0,161.0,696.0
-191.0,38.0,156.0,4.0,32.0,6.0,-748.0,160.0,692.0
-190.0,37.0,156.0,3.0,30.0,5.0,-752.0,159.0,691.0
-193.0,36.0,158.0,1.0,28.0,8.0,-747.0,161.0,693.0
-191.0,35.0,158.0,-2.0,29.0,6.0,-750.0,162.0,695.0
-190.0,37.0,156.0,-3.0,28.0,7.0,-747.0,160.0,698.0
-189.0,33.0,159.0,-7.0,26.0,4.0,-748.0,157.0,695.0
-188.0,35.0,156.0,-7.0,26.0,7.0,-746.0,156.0,699.0
-190.0,39.0,155.0,-8.0,27.0,3.0,-743.0,152.0,696.0
-191.0,34.0,157.0,-7.0,28.0,4.0,-746.0,158.0,697.0
-191.0,32.0,156.0,-7.0,31.0,2.0,-745.0,156.0,696.0
-190.0,38.0,161.0,-6.0,33.0,5.0,-741.0,155.0,692.0
-188.0,34.0,155.0,-4.0,34.0,2.0,-742.0,150.0,696.0
-190.0,33.0,156.0,-4.0,34.0,4.0,-746.0,155.0,696.0
-189.0,35.0,157.0,-5.0,34.0,2.0,-743.0,161.0,696.0
-191.0,36.0,157.0,-3.0,37.0,4.0,-743.0,154.0,695.0
-190.0,36.0,155.0,-4.0,37.0,2.0,-745.0,156.0,697.0
-190.0,35.0,158.0,-5.0,38.0,6.0,-748.0,156.0,695.0
-189.0,37.0,156.0,-4.0,40.0,3.0,-740.0,158.0,696.0
-193.0,36.0,159.0,-6.0,39.0,6.0,-741.0,156.0,696.0
-191.0,36.0,158.0,-6.0,38.0,3.0,-745.0,157.0,699.0
-193.0,36.0,162.0,-6.0,36.0,5.0,-746.0,156.0,693.0
-190.0,35.0,155.0,-9.0,37.0,2.0,-750.0,155.0,692.0
-191.0,36.0,157.0,-11.0,36.0,6.0,-740.0,155.0,695.0
-187.0,35.0,156.0,-13.0,37.0,3.0,-744.0,158.0,696.0
-191.0,35.0,160.0,-13.0,37.0,6.0,-746.0,158.0,692.0
-191.0,38.0,159.0,-14.0,35.0,5.0,-745.0,159.0,696.0
-190.0,35.0,156.0,-13.0,35.0,7.0,-742.0,151.0,692.0
-190.0,38.0,155.0,-13.0,35.0,6.0,-741.0,158.0,696.0
-188.0,38.0,157.0,-14.0,33.0,7.0,-744.0,156.0,696.0
-188.0,35.0,157.0,-12.0,35.0,5.0,-740.0,159.0,697.0
-189.0,36.0,158.0,-11.0,35.0,6.0,-736.0,162.0,697.0
-189.0,38.0,158.0,-12.0,37.0,4.0,-740.0,158.0,701.0
-188.0,36.0,161.0,-12.0,38.0,5.0,-746.0,157.0,702.0
-189.0,39.0,156.0,-12.0,37.0,2.0,-742.0,154.0,700.0
-189.0,35.0,161.0,-12.0,38.0,5.0,-745.0,158.0,696.0
-188.0,35.0,160.0,-11.0,37.0,4.0,-744.0,153.0,701.0
-188.0,34.0,164.0,-13.0,38.0,5.0,-745.0,156.0,698.0
-188.0,36.0,156.0,-16.0,40.0,2.0,-743.0,154.0,703.0
-191.0,39.0,157.0,-16.0,41.0,3.0,-744.0,155.0,698.0
-191.0,36.0,161.0,-17.0,41.0,2.0,-746.0,156.0,699.0
-186.0,35.0,159.0,-18.0,41.0,5.0,-744.0,156.0,699.0
-190.0,35.0,156.0,-16.0,42.0,4.0,-752.0,155.0,700.0
-190.0,34.0,157.0,-17.0,44.0,3.0,-744.0,156.0,699.0
-189.0,35.0,158.0,-16.0,45.0,1.0,-744.0,157.0,699.0
-190.0,36.0,162.0,-16.0,46.0,4.0,-741.0,156.0,697.0
-187.0,37.0,158.0,-15.0,46.0,3.0,-741.0,157.0,700.0
-189.0,37.0,156.0,-14.0,48.0,5.0,-742.0,159.0,699.0
-189.0,36.0,158.0,-12.0,48.0,4.0,-744.0,156.0,701.0
-191.0,35.0,158.0,-11.0,50.0,4.0,-738.0,159.0,699.0
-188.0,37.0,155.0,-10.0,50.0,4.0,-741.0,157.0,699.0
-189.0,35.0,156.0,-8.0,50.0,4.0,-739.0,150.0,697.0
-190.0,34.0,158.0,-6.0,49.0,2.0,-739.0,158.0,698.0
-189.0,40.0,163.0,-6.0,48.0,5.0,-740.0,155.0,696.0
-188.0,36.0,160.0,-5.0,51.0,4.0,-735.0,156.0,695.0
-188.0,39.0,158.0,-3.0,50.0,5.0,-742.0,159.0,699.0
-188.0,35.0,157.0,-3.0,51.0,3.0,-737.0,154.0,692.0
-188.0,37.0,158.0,-3.0,52.0,4.0,-737.0,156.0,698.0
-187.0,35.0,163.0,-3.0,54.0,3.0,-736.0,159.0,703.0
-189.0,39.0,155.0,-2.0,55.0,2.0,-745.0,158.0,702.0
-189.0,36.0,156.0,-1.0,55.0,1.0,-742.0,158.0,694.0
-188.0,35.0,157.0,-1.0,56.0,1.0,-742.0,158.0,700.0
-187.0,36.0,158.0,-1.0,57.0,2.0,-746.0,159.0,697.0
-189.0,38.0,154.0,0.0,59.0,5.0,-739.0,155.0,697.0
-190.0,37.0,157.0,4.0,62.0,2.0,-740.0,156.0,697.0
-187.0,39.0,161.0,9.0,64.0,4.0,-730.0,159.0,698.0
-190.0,34.0,158.0,14.0,65.0,6.0,-742.0,157.0,697.0
-190.0,35.0,152.0,17.0,66.0,3.0,-742.0,158.0,695.0
-188.0,38.0,158.0,18.0,68.0,3.0,-736.0,152.0,692.0
-191.0,36.0,154.0,21.0,71.0,3.0,-740.0,159.0,697.0
-187.0,35.0,158.0,24.0,73.0,2.0,-738.0,156.0,692.0
-191.0,37.0,156.0,28.0,73.0,3.0,-733.0,157.0,689.0
-190.0,36.0,155.0,32.0,72.0,4.0,-741.0,156.0,692.0
-188.0,37.0,159.0,34.0,73.0,6.0,-733.0,156.0,690.0
-190.0,35.0,155.0,36.0,76.0,7.0,-738.0,159.0,688.0
-188.0,39.0,156.0,36.0,75.0,9.0,-735.0,156.0,690.0
-186.0,34.0,160.0,34.0,71.0,11.0,-733.0,157.0,699.0
-188.0,37.0,158.0,38.0,65.0,10.0,-732.0,163.0,696.0
-189.0,38.0,158.0,37.0,60.0,9.0,-736.0,160.0,698.0
-192.0,37.0,157.0,34.0,55.0,9.0,-740.0,163.0,698.0
-191.0,39.0,159.0,32.0,51.0,9.0,-743.0,156.0,696.0
-190.0,36.0,157.0,27.0,49.0,7.0,-746.0,162.0,698.0
-185.0,37.0,160.0,21.0,48.0,5.0,-738.0,171.0,705.0
-192.0,39.0,159.0,15.0,48.0,2.0,-737.0,162.0,703.0
-191.0,40.0,159.0,10.0,45.0,2.0,-742.0,166.0,701.0
-189.0,42.0,160.0,4.0,41.0,1.0,-749.0,164.0,703.0
-189.0,37.0,162.0,-4.0,40.0,1.0,-747.0,162.0,704.0
-191.0,41.0,159.0,-11.0,42.0,0.0,-746.0,164.0,701.0
-192.0,39.0,157.0,-14.0,45.0,0.0,-752.0,164.0,704.0
-189.0,38.0,160.0,-18.0,49.0,-2.0,-746.0,163.0,705.0
-192.0,38.0,161.0,-24.0,53.0,-3.0,-749.0,162.0,708.0
-189.0,39.0,160.0,-26.0,57.0,-5.0,-753.0,167.0,705.0
-191.0,39.0,161.0,-29.0,62.0,-6.0,-753.0,160.0,708.0
-189.0,37.0,156.0,-33.0,66.0,-8.0,-747.0,161.0,703.0
-191.0,36.0,159.0,-37.0,73.0,-9.0,-749.0,159.0,700.0
-191.0,37.0,157.0,-36.0,81.0,-8.0,-749.0,154.0,701.0
-190.0,35.0,155.0,-35.0,85.0,-9.0,-754.0,150.0,696.0
-189.0,32.0,155.0,-33.0,90.0,-10.0,-747.0,152.0,694.0
-191.0,36.0,155.0,-31.0,96.0,-8.0,-748.0,152.0,693.0
-191.0,35.0,158.0,-29.0,101.0,-9.0,-748.0,158.0,695.0
-190.0,36.0,154.0,-26.0,104.0,-6.0,-748.0,155.0,695.0
-191.0,36.0,157.0,-24.0,106.0,-6.0,-744.0,152.0,696.0
-189.0,39.0,155.0,-21.0,105.0,-4.0,-743.0,156.0,694.0
-189.0,38.0,156.0,-21.0,102.0,-4.0,-736.0,156.0,690.0
-192.0,40.0,157.0,-22.0,97.0,-3.0,-746.0,158.0,696.0
-191.0,38.0,159.0,-21.0,89.0,-4.0,-740.0,163.0,696.0
-191.0,41.0,154.0,-21.0,81.0,-3.0,-740.0,164.0,700.0
-192.0,40.0,158.0,-22.0,73.0,-5.0,-738.0,163.0,702.0
-189.0,37.0,156.0,-21.0,69.0,-1.0,-738.0,161.0,703.0
-192.0,37.0,158.0,-18.0,63.0,-3.0,-740.0,164.0,697.0
-190.0,37.0,158.0,-15.0,57.0,-2.0,-742.0,164.0,696.0
-191.0,40.0,158.0,-13.0,52.0,-4.0,-745.0,168.0,696.0
-189.0,37.0,159.0,-10.0,53.0,-2.0,-741.0,164.0,698.0
-188.0,39.0,161.0,-7.0,53.0,-3.0,-746.0,161.0,699.0
-191.0,38.0,157.0,-2.0,54.0,-3.0,-744.0,161.0,694.0
-189.0,36.0,155.0,1.0,57.0,-7.0,-745.0,168.0,697.0
-190.0,38.0,155.0,2.0,60.0,-8.0,-749.0,163.0,691.0
-191.0,41.0,157.0,3.0,63.0,-12.0,-749.0,166.0,694.0
-188.0,40.0,159.0,1.0,71.0,-14.0,-750.0,165.0,693.0
-189.0,38.0,155.0,0.0,80.0,-20.0,-747.0,164.0,696.0
-190.0,38.0,160.0,2.0,90.0,-24.0,-748.0,174.0,696.0
-194.0,41.0,157.0,-1.0,103.0,-31.0,-759.0,166.0,698.0
-196.0,39.0,155.0,-1.0,116.0,-35.0,-759.0,166.0,701.0
-191.0,38.0,160.0,1.0,129.0,-38.0,-752.0,160.0,706.0
-193.0,30.0,158.0,16.0,131.0,-28.0,-754.0,157.0,702.0
-201.0,29.0,158.0,31.0,134.0,-30.0,-781.0,145.0,686.0
-201.0,35.0,154.0,38.0,148.0,-32.0,-790.0,151.0,688.0
-198.0,34.0,152.0,43.0,165.0,-33.0,-784.0,141.0,692.0
-200.0,32.0,160.0,48.0,183.0,-31.0,-780.0,143.0,694.0
-196.0,33.0,161.0,56.0,201.0,-31.0,-770.0,141.0,695.0
-195.0,30.0,160.0,60.0,217.0,-27.0,-768.0,145.0,695.0
-194.0,31.0,160.0,64.0,230.0,-21.0,-754.0,146.0,697.0
-192.0,31.0,158.0,72.0,245.0,-5.0,-753.0,140.0,698.0
-189.0,34.0,152.0,84.0,264.0,-6.0,-751.0,142.0,701.0
-185.0,33.0,157.0,94.0,285.0,3.0,-732.0,147.0,698.0
-184.0,38.0,158.0,107.0,299.0,9.0,-716.0,154.0,705.0
-182.0,36.0,161.0,119.0,302.0,20.0,-707.0,156.0,702.0
-180.0,37.0,156.0,128.0,295.0,24.0,-703.0,162.0,696.0
-179.0,40.0,158.0,131.0,275.0,27.0,-705.0,169.0,697.0
-179.0,42.0,157.0,130.0,249.0,25.0,-704.0,177.0,694.0
-184.0,45.0,157.0,126.0,220.0,21.0,-709.0,183.0,692.0
-183.0,44.0,157.0,120.0,189.0,14.0,-721.0,185.0,688.0
-184.0,44.0,156.0,106.0,151.0,13.0,-730.0,189.0,685.0
-189.0,47.0,153.0,94.0,122.0,8.0,-739.0,194.0,692.0
-191.0,47.0,159.0,80.0,96.0,9.0,-742.0,197.0,681.0
-191.0,45.0,155.0,63.0,74.0,4.0,-750.0,193.0,687.0
-195.0,46.0,156.0,48.0,57.0,8.0,-757.0,187.0,682.0
-195.0,45.0,155.0,33.0,47.0,5.0,-759.0,181.0,678.0
-194.0,42.0,150.0,21.0,43.0,8.0,-760.0,178.0,674.0
-193.0,36.0,150.0,12.0,47.0,6.0,-767.0,173.0,669.0
-196.0,40.0,150.0,6.0,54.0,8.0,-767.0,173.0,668.0
-196.0,39.0,149.0,6.0,64.0,6.0,-769.0,166.0,667.0
-196.0,37.0,150.0,7.0,71.0,7.0,-765.0,160.0,667.0
-195.0,36.0,150.0,10.0,75.0,7.0,-768.0,164.0,665.0
-196.0,39.0,151.0,14.0,77.0,10.0,-765.0,160.0,664.0
-196.0,41.0,151.0,20.0,74.0,8.0,-759.0,162.0,665.0
-193.0,40.0,149.0,25.0,68.0,12.0,-759.0,167.0,664.0
-196.0,42.0,150.0,29.0,62.0,10.0,-761.0,168.0,664.0
-192.0,42.0,150.0,34.0,54.0,12.0,-760.0,171.0,663.0
-195.0,39.0,149.0,36.0,46.0,9.0,-759.0,174.0,666.0
-195.0,41.0,151.0,39.0,42.0,8.0,-766.0,180.0,668.0
-198.0,42.0,152.0,40.0,37.0,4.0,-763.0,179.0,664.0
-197.0,43.0,153.0,37.0,31.0,7.0,-765.0,179.0,664.0
-193.0,41.0,151.0,33.0,24.0,5.0,-766.0,179.0,665.0
-196.0,44.0,149.0,29.0,20.0,6.0,-764.0,182.0,668.0
-198.0,47.0,152.0,23.0,16.0,5.0,-765.0,183.0,667.0
-198.0,43.0,152.0,19.0,11.0,10.0,-763.0,184.0,666.0
-196.0,45.0,150.0,13.0,5.0,10.0,-758.0,184.0,668.0
-193.0,44.0,149.0,7.0,-1.0,14.0,-761.0,185.0,670.0
-191.0,44.0,150.0,1.0,-8.0,13.0,-757.0,185.0,676.0
-202.0,40.0,140.0,-5.0,-16.0,17.0,-761.0,181.0,677.0
-199.0,39.0,156.0,-9.0,-19.0,18.0,-764.0,187.0,675.0
-194.0,41.0,151.0,-16.0,-24.0,21.0,-761.0,181.0,680.0
-195.0,44.0,155.0,-25.0,-27.0,20.0,-763.0,179.0,682.0
-190.0,42.0,156.0,-31.0,-31.0,22.0,-752.0,176.0,687.0
-193.0,41.0,152.0,-38.0,-34.0,22.0,-755.0,173.0,687.0
-192.0,41.0,158.0,-46.0,-37.0,24.0,-750.0,174.0,694.0
-191.0,39.0,160.0,-55.0,-42.0,22.0,-750.0,170.0,697.0
-191.0,42.0,157.0,-64.0,-46.0,25.0,-748.0,168.0,695.0
-191.0,39.0,157.0,-74.0,-49.0,24.0,-747.0,167.0,700.0
-189.0,40.0,159.0,-82.0,-51.0,27.0,-737.0,166.0,700.0
-189.0,37.0,155.0,-87.0,-53.0,26.0,-746.0,161.0,700.0
-188.0,37.0,157.0,-91.0,-52.0,29.0,-739.0,162.0,705.0
-188.0,41.0,157.0,-94.0,-51.0,28.0,-744.0,158.0,704.0
-189.0,37.0,163.0,-97.0,-49.0,30.0,-737.0,159.0,702.0
-190.0,36.0,161.0,-97.0,-46.0,29.0,-740.0,160.0,702.0
-190.0,36.0,160.0,-98.0,-42.0,32.0,-743.0,156.0,700.0
-188.0,34.0,155.0,-92.0,-36.0,28.0,-745.0,156.0,700.0
-190.0,35.0,158.0,-89.0,-26.0,30.0,-747.0,158.0,696.0
-189.0,33.0,153.0,-80.0,-17.0,29.0,-751.0,154.0,697.0
-189.0,35.0,156.0,-72.0,-7.0,29.0,-746.0,155.0,690.0
-190.0,34.0,154.0,-63.0,1.0,27.0,-745.0,152.0,692.0
-188.0,33.0,155.0,-54.0,8.0,27.0,-743.0,154.0,684.0
-187.0,36.0,154.0,-46.0,14.0,25.0,-743.0,156.0,687.0
-186.0,36.0,156.0,-37.0,18.0,26.0,-739.0,155.0,683.0
-190.0,37.0,157.0,-28.0,23.0,24.0,-738.0,158.0,683.0
-192.0,40.0,152.0,-22.0,24.0,26.0,-746.0,158.0,682.0
-189.0,38.0,151.0,-14.0,23.0,23.0,-741.0,161.0,679.0
-188.0,34.0,154.0,-8.0,25.0,21.0,-746.0,164.0,680.0
-192.0,40.0,158.0,-4.0,24.0,20.0,-747.0,161.0,680.0
-189.0,39.0,156.0,0.0,24.0,20.0,-746.0,165.0,683.0
-192.0,42.0,154.0,5.0,22.0,18.0,-745.0,170.0,684.0
-189.0,41.0,155.0,6.0,20.0,18.0,-738.0,171.0,687.0
-191.0,42.0,157.0,5.0,20.0,15.0,-744.0,177.0,688.0
-190.0,41.0,157.0,3.0,19.0,13.0,-746.0,179.0,690.0
-190.0,42.0,159.0,3.0,17.0,10.0,-743.0,181.0,693.0
-190.0,42.0,158.0,1.0,15.0,9.0,-744.0,179.0,695.0
-191.0,42.0,157.0,-1.0,13.0,4.0,-742.0,184.0,695.0
-193.0,42.0,161.0,-3.0,12.0,2.0,-745.0,182.0,699.0
-188.0,43.0,157.0,-6.0,11.0,-1.0,-747.0,181.0,694.0
-192.0,43.0,156.0,-7.0,11.0,-3.0,-749.0,183.0,697.0
-187.0,41.0,159.0,-10.0,13.0,-5.0,-745.0,182.0,696.0
-190.0,46.0,157.0,-12.0,15.0,-5.0,-741.0,186.0,701.0
-192.0,42.0,157.0,-11.0,17.0,-2.0,-748.0,179.0,696.0
-191.0,43.0,156.0,-12.0,20.0,-4.0,-756.0,180.0,700.0
-192.0,41.0,157.0,-15.0,22.0,-9.0,-756.0,185.0,700.0
-192.0,42.0,157.0,-18.0,28.0,-12.0,-751.0,180.0,699.0
-191.0,42.0,156.0,-20.0,31.0,-13.0,-751.0,183.0,699.0
-193.0,43.0,157.0,-21.0,32.0,-12.0,-746.0,185.0,701.0
-188.0,42.0,160.0,-23.0,33.0,-12.0,-744.0,181.0,699.0
-190.0,42.0,157.0,-27.0,35.0,-11.0,-744.0,181.0,701.0
-190.0,44.0,158.0,-29.0,37.0,-11.0,-742.0,177.0,701.0
-191.0,42.0,157.0,-33.0,39.0,-12.0,-743.0,180.0,704.0
-191.0,41.0,160.0,-33.0,39.0,-11.0,-737.0,180.0,703.0
-191.0,43.0,157.0,-36.0,39.0,-10.0,-740.0,178.0,704.0
-188.0,42.0,159.0,-39.0,42.0,-8.0,-732.0,183.0,702.0
-189.0,41.0,162.0,-42.0,43.0,-7.0,-734.0,175.0,699.0
-188.0,44.0,157.0,-41.0,44.0,-5.0,-734.0,178.0,704.0
-185.0,44.0,163.0,-42.0,43.0,-5.0,-732.0,174.0,698.0
-186.0,40.0,156.0,-44.0,43.0,-4.0,-727.0,177.0,701.0
-188.0,42.0,158.0,-45.0,44.0,-4.0,-732.0,179.0,704.0
-186.0,43.0,157.0,-45.0,45.0,-2.0,-727.0,175.0,704.0
-187.0,42.0,156.0,-44.0,45.0,-1.0,-733.0,174.0,701.0
-185.0,40.0,161.0,-44.0,45.0,1.0,-730.0,179.0,699.0
-185.0,39.0,158.0,-42.0,45.0,0.0,-733.0,170.0,705.0
-186.0,42.0,158.0,-42.0,45.0,2.0,-731.0,176.0,700.0
-184.0,39.0,162.0,-41.0,45.0,1.0,-731.0,176.0,702.0
-186.0,40.0,162.0,-41.0,44.0,2.0,-732.0,171.0,703.0
-187.0,42.0,157.0,-40.0,46.0,1.0,-733.0,170.0,702.0
-189.0,40.0,160.0,-39.0,48.0,1.0,-734.0,168.0,703.0
-189.0,42.0,159.0,-39.0,47.0,2.0,-733.0,174.0,702.0
-186.0,40.0,155.0,-39.0,48.0,3.0,-731.0,164.0,703.0
-189.0,39.0,161.0,-40.0,47.0,2.0,-735.0,167.0,705.0
-185.0,39.0,160.0,-38.0,49.0,3.0,-735.0,166.0,699.0
-188.0,41.0,162.0,-39.0,49.0,1.0,-733.0,174.0,703.0
-188.0,42.0,160.0,-38.0,50.0,2.0,-737.0,169.0,703.0
-188.0,40.0,156.0,-38.0,49.0,1.0,-736.0,166.0,701.0
-188.0,40.0,157.0,-40.0,51.0,3.0,-734.0,168.0,698.0
-189.0,41.0,161.0,-41.0,52.0,1.0,-740.0,173.0,699.0
-190.0,38.0,159.0,-40.0,52.0,3.0,-739.0,171.0,697.0
-191.0,40.0,161.0,-40.0,53.0,1.0,-745.0,174.0,700.0
-188.0,37.0,159.0,-41.0,51.0,3.0,-741.0,167.0,701.0
-190.0,39.0,156.0,-40.0,53.0,0.0,-739.0,163.0,700.0
-188.0,37.0,158.0,-41.0,53.0,3.0,-744.0,174.0,699.0
-188.0,42.0,162.0,-42.0,53.0,-1.0,-743.0,171.0,697.0
-191.0,39.0,157.0,-42.0,53.0,0.0,-745.0,165.0,698.0
-191.0,39.0,160.0,-42.0,52.0,-2.0,-745.0,163.0,701.0
-189.0,38.0,157.0,-43.0,53.0,-1.0,-745.0,164.0,698.0
-190.0,36.0,154.0,-42.0,55.0,-3.0,-746.0,157.0,696.0
-190.0,39.0,159.0,-43.0,55.0,-2.0,-747.0,165.0,698.0
-192.0,37.0,162.0,-42.0,54.0,-4.0,-749.0,159.0,696.0
-188.0,38.0,156.0,-42.0,54.0,-3.0,-737.0,163.0,695.0
-189.0,36.0,157.0,-41.0,54.0,-5.0,-743.0,160.0,697.0
-190.0,37.0,158.0,-41.0,54.0,-2.0,-747.0,163.0,693.0
-189.0,41.0,156.0,-41.0,52.0,-4.0,-747.0,166.0,693.0
-193.0,40.0,158.0,-40.0,52.0,-3.0,-743.0,170.0,692.0
-188.0,39.0,152.0,-41.0,51.0,-5.0,-745.0,165.0,696.0
-192.0,39.0,160.0,-38.0,51.0,-2.0,-744.0,166.0,690.0
-189.0,35.0,155.0,-40.0,51.0,-4.0,-741.0,165.0,693.0
-190.0,37.0,157.0,-40.0,52.0,-2.0,-740.0,162.0,703.0
-190.0,36.0,158.0,-41.0,49.0,-4.0,-739.0,162.0,700.0
-188.0,39.0,160.0,-41.0,50.0,-1.0,-745.0,162.0,701.0
-188.0,38.0,158.0,-39.0,51.0,-4.0,-741.0,165.0,706.0
-190.0,37.0,159.0,-36.0,52.0,-3.0,-734.0,166.0,699.0
-190.0,37.0,160.0,-34.0,51.0,-3.0,-740.0,162.0,698.0
-187.0,38.0,158.0,-31.0,52.0,0.0,-738.0,168.0,701.0
-191.0,40.0,159.0,-29.0,53.0,-1.0,-743.0,162.0,696.0
-190.0,37.0,161.0,-28.0,53.0,1.0,-741.0,162.0,698.0
-190.0,38.0,156.0,-27.0,51.0,-2.0,-736.0,166.0,700.0
-190.0,39.0,161.0,-27.0,50.0,0.0,-737.0,169.0,695.0
-190.0,37.0,159.0,-25.0,49.0,-4.0,-737.0,162.0,696.0
-189.0,38.0,158.0,-24.0,50.0,-2.0,-747.0,162.0,700.0
-188.0,38.0,157.0,-24.0,51.0,-5.0,-735.0,167.0,702.0
-187.0,37.0,155.0,-25.0,50.0,-3.0,-732.0,164.0,700.0
-188.0,43.0,157.0,-25.0,51.0,-6.0,-734.0,173.0,701.0
-193.0,38.0,161.0,-24.0,52.0,-4.0,-736.0,168.0,697.0
-186.0,41.0,156.0,-23.0,50.0,-5.0,-736.0,173.0,702.0
-188.0,37.0,159.0,-21.0,50.0,-2.0,-740.0,173.0,702.0
-187.0,39.0,160.0,-18.0,49.0,-1.0,-738.0,173.0,702.0
-187.0,39.0,161.0,-15.0,49.0,1.0,-737.0,167.0,701.0
-188.0,38.0,158.0,-13.0,49.0,-1.0,-737.0,170.0,695.0
-187.0,39.0,156.0,-13.0,47.0,0.0,-738.0,159.0,699.0
-186.0,35.0,158.0,-14.0,48.0,-3.0,-738.0,166.0,704.0
-189.0,38.0,161.0,-16.0,48.0,-3.0,-746.0,160.0,705.0
-189.0,36.0,160.0,-18.0,50.0,-6.0,-742.0,161.0,703.0
-191.0,34.0,161.0,-21.0,51.0,-5.0,-741.0,156.0,705.0
-190.0,38.0,159.0,-23.0,53.0,-9.0,-736.0,155.0,708.0
-185.0,35.0,158.0,-25.0,57.0,-4.0,-737.0,159.0,705.0
-187.0,38.0,163.0,-21.0,61.0,-5.0,-733.0,156.0,710.0
-186.0,34.0,159.0,-17.0,66.0,-1.0,-735.0,161.0,703.0
-187.0,38.0,157.0,-13.0,70.0,-3.0,-732.0,159.0,705.0
-186.0,37.0,155.0,-9.0,71.0,1.0,-735.0,160.0,699.0
-189.0,38.0,160.0,-9.0,71.0,-2.0,-735.0,160.0,699.0
-188.0,39.0,160.0,-9.0,69.0,1.0,-740.0,168.0,700.0
-191.0,40.0,155.0,-8.0,68.0,0.0,-740.0,172.0,696.0
-189.0,40.0,156.0,-8.0,69.0,3.0,-742.0,170.0,696.0
-188.0,38.0,162.0,-8.0,68.0,1.0,-740.0,171.0,697.0
-184.0,40.0,159.0,-6.0,63.0,4.0,-734.0,174.0,700.0
-189.0,40.0,161.0,-8.0,62.0,4.0,-737.0,175.0,695.0
-186.0,37.0,157.0,-9.0,58.0,7.0,-738.0,164.0,697.0
-186.0,38.0,160.0,-8.0,54.0,6.0,-735.0,168.0,696.0
-185.0,38.0,158.0,-10.0,51.0,8.0,-733.0,165.0,694.0
-188.0,38.0,159.0,-11.0,50.0,7.0,-733.0,169.0,697.0
-189.0,40.0,160.0,-10.0,51.0,10.0,-739.0,169.0,697.0
-189.0,41.0,164.0,-9.0,51.0,6.0,-740.0,168.0,706.0
-188.0,38.0,161.0,-9.0,51.0,8.0,-739.0,166.0,696.0
-188.0,37.0,160.0,-8.0,53.0,4.0,-740.0,167.0,704.0
-188.0,39.0,159.0,-7.0,53.0,5.0,-742.0,170.0,700.0
-188.0,40.0,161.0,-6.0,55.0,3.0,-734.0,170.0,699.0
-187.0,41.0,157.0,-3.0,55.0,4.0,-740.0,168.0,699.0
-188.0,39.0,161.0,-2.0,56.0,1.0,-740.0,172.0,706.0
-187.0,38.0,159.0,-2.0,54.0,2.0,-738.0,171.0,704.0
-187.0,41.0,159.0,-2.0,53.0,-1.0,-738.0,170.0,702.0
-190.0,40.0,157.0,-3.0,52.0,0.0,-739.0,172.0,701.0
-188.0,39.0,159.0,-1.0,51.0,-2.0,-733.0,166.0,702.0
-188.0,41.0,162.0,-2.0,51.0,0.0,-734.0,170.0,705.0
-187.0,39.0,159.0,-4.0,51.0,-2.0,-734.0,168.0,701.0
-190.0,39.0,160.0,-4.0,50.0,-1.0,-737.0,175.0,703.0
-188.0,39.0,158.0,-4.0,51.0,-3.0,-733.0,170.0,702.0
-187.0,38.0,155.0,-3.0,51.0,-1.0,-732.0,166.0,707.0
-187.0,36.0,164.0,-4.0,51.0,-1.0,-733.0,171.0,703.0
-187.0,38.0,160.0,-5.0,50.0,-1.0,-733.0,171.0,709.0
-186.0,40.0,157.0,-5.0,49.0,-3.0,-733.0,171.0,702.0
-189.0,39.0,160.0,-4.0,48.0,-1.0,-738.0,163.0,701.0
-188.0,39.0,163.0,-4.0,45.0,-2.0,-737.0,161.0,705.0
-187.0,38.0,157.0,-2.0,45.0,0.0,-734.0,163.0,704.0
-189.0,39.0,156.0,-2.0,45.0,-2.0,-734.0,162.0,703.0
-187.0,37.0,160.0,-1.0,43.0,0.0,-734.0,168.0,701.0
-192.0,41.0,160.0,-1.0,43.0,0.0,-740.0,167.0,702.0
-189.0,37.0,161.0,-3.0,43.0,1.0,-736.0,167.0,702.0
-188.0,41.0,152.0,-4.0,43.0,2.0,-733.0,170.0,705.0
-188.0,39.0,158.0,-3.0,42.0,4.0,-735.0,174.0,705.0
-187.0,36.0,161.0,-1.0,42.0,3.0,-737.0,169.0,707.0
-189.0,40.0,163.0,-1.0,42.0,4.0,-734.0,164.0,702.0
-188.0,38.0,159.0,-2.0,43.0,2.0,-731.0,164.0,704.0
-188.0,43.0,158.0,-1.0,45.0,3.0,-734.0,164.0,701.0
-188.0,42.0,158.0,2.0,47.0,2.0,-736.0,165.0,700.0
-189.0,36.0,158.0,3.0,47.0,3.0,-734.0,161.0,701.0
-187.0,35.0,159.0,5.0,48.0,2.0,-737.0,163.0,702.0
-188.0,37.0,158.0,6.0,51.0,2.0,-735.0,162.0,702.0
-186.0,39.0,158.0,8.0,52.0,2.0,-732.0,162.0,704.0
