acc1_x,acc1_y,acc1_z,gyro_x,gyro_y,gyro_z,acc2_x,acc2_y,acc2_z
29.0,-235.0,-100.0,-48.0,62.0,-11.0,103.0,-933.0,-298.0
30.0,-235.0,-93.0,-53.0,58.0,-8.0,100.0,-930.0,-299.0
30.0,-234.0,-97.0,-58.0,56.0,-9.0,98.0,-926.0,-302.0
27.0,-237.0,-93.0,-65.0,54.0,-5.0,103.0,-923.0,-302.0
27.0,-231.0,-99.0,-72.0,53.0,-5.0,93.0,-922.0,-303.0
28.0,-233.0,-97.0,-78.0,52.0,-3.0,99.0,-920.0,-303.0
27.0,-234.0,-95.0,-84.0,50.0,-3.0,99.0,-922.0,-301.0
29.0,-234.0,-96.0,-89.0,49.0,-1.0,101.0,-924.0,-301.0
28.0,-235.0,-95.0,-91.0,49.0,-1.0,99.0,-929.0,-301.0
28.0,-238.0,-96.0,-93.0,50.0,2.0,101.0,-938.0,-302.0
26.0,-235.0,-92.0,-93.0,48.0,0.0,100.0,-936.0,-300.0
28.0,-237.0,-92.0,-92.0,50.0,4.0,98.0,-939.0,-300.0
30.0,-240.0,-95.0,-88.0,48.0,2.0,102.0,-939.0,-301.0
28.0,-235.0,-96.0,-84.0,50.0,2.0,104.0,-937.0,-303.0
26.0,-237.0,-99.0,-83.0,50.0,0.0,102.0,-930.0,-308.0
29.0,-238.0,-99.0,-79.0,50.0,1.0,104.0,-932.0,-304.0
28.0,-235.0,-98.0,-76.0,52.0,0.0,102.0,-934.0,-304.0
32.0,-235.0,-97.0,-74.0,51.0,2.0,107.0,-932.0,-302.0
30.0,-238.0,-93.0,-69.0,53.0,1.0,99.0,-935.0,-303.0
29.0,-238.0,-96.0,-68.0,56.0,4.0,102.0,-932.0,-305.0
31.0,-238.0,-95.0,-66.0,56.0,2.0,101.0,-933.0,-304.0
29.0,-240.0,-96.0,-66.0,55.0,4.0,105.0,-940.0,-307.0
39.0,-230.0,-101.0,-67.0,56.0,3.0,104.0,-940.0,-305.0
28.0,-242.0,-103.0,-66.0,57.0,2.0,104.0,-933.0,-304.0
26.0,-236.0,-104.0,-67.0,59.0,2.0,103.0,-932.0,-310.0
27.0,-239.0,-100.0,-70.0,59.0,2.0,105.0,-926.0,-310.0
24.0,-235.0,-106.0,-73.0,59.0,1.0,108.0,-928.0,-312.0
27.0,-246.0,-92.0,-75.0,60.0,2.0,104.0,-927.0,-313.0
25.0,-239.0,-103.0,-77.0,59.0,0.0,103.0,-929.0,-314.0
31.0,-231.0,-98.0,-78.0,60.0,1.0,103.0,-927.0,-315.0
25.0,-243.0,-101.0,-78.0,60.0,-1.0,107.0,-928.0,-312.0
29.0,-233.0,-99.0,-78.0,60.0,0.0,105.0,-931.0,-315.0
36.0,-233.0,-95.0,-78.0,59.0,-1.0,105.0,-933.0,-320.0
27.0,-240.0,-106.0,-80.0,58.0,-1.0,100.0,-930.0,-316.0
26.0,-232.0,-112.0,-81.0,58.0,-1.0,102.0,-930.0,-314.0
31.0,-243.0,-104.0,-79.0,56.0,-2.0,97.0,-929.0,-318.0
31.0,-239.0,-99.0,-82.0,55.0,-3.0,98.0,-928.0,-311.0
26.0,-229.0,-95.0,-82.0,53.0,-3.0,99.0,-930.0,-314.0
23.0,-234.0,-113.0,-86.0,52.0,-6.0,99.0,-927.0,-315.0
27.0,-258.0,-104.0,-87.0,52.0,-7.0,98.0,-928.0,-314.0
29.0,-235.0,-103.0,-91.0,51.0,-5.0,94.0,-935.0,-312.0
26.0,-235.0,-100.0,-92.0,51.0,-5.0,99.0,-934.0,-317.0
27.0,-234.0,-102.0,-96.0,51.0,-7.0,93.0,-930.0,-318.0
31.0,-236.0,-104.0,-98.0,50.0,-5.0,96.0,-931.0,-317.0
27.0,-238.0,-101.0,-98.0,50.0,-6.0,98.0,-935.0,-315.0
29.0,-239.0,-99.0,-99.0,50.0,-4.0,97.0,-931.0,-316.0
26.0,-232.0,-101.0,-100.0,50.0,-5.0,100.0,-931.0,-312.0
29.0,-233.0,-98.0,-99.0,50.0,-5.0,97.0,-931.0,-319.0
28.0,-237.0,-101.0,-97.0,50.0,-3.0,98.0,-938.0,-318.0
30.0,-239.0,-100.0,-95.0,49.0,-4.0,101.0,-930.0,-320.0
29.0,-239.0,-105.0,-91.0,47.0,-4.0,99.0,-929.0,-325.0
30.0,-235.0,-101.0,-87.0,46.0,-5.0,105.0,-931.0,-327.0
30.0,-236.0,-103.0,-83.0,44.0,-5.0,100.0,-926.0,-322.0
28.0,-232.0,-106.0,-79.0,45.0,-4.0,107.0,-921.0,-327.0
30.0,-232.0,-102.0,-76.0,45.0,-5.0,101.0,-922.0,-329.0
30.0,-234.0,-101.0,-77.0,46.0,-6.0,98.0,-924.0,-329.0
32.0,-233.0,-101.0,-81.0,47.0,-4.0,100.0,-919.0,-331.0
30.0,-231.0,-104.0,-84.0,46.0,-5.0,102.0,-918.0,-323.0
29.0,-233.0,-103.0,-90.0,48.0,-4.0,104.0,-920.0,-330.0
29.0,-234.0,-101.0,-98.0,49.0,-4.0,102.0,-923.0,-330.0
31.0,-232.0,-107.0,-103.0,49.0,-4.0,98.0,-927.0,-326.0
29.0,-236.0,-103.0,-108.0,53.0,-4.0,100.0,-926.0,-335.0
29.0,-232.0,-107.0,-111.0,54.0,-3.0,103.0,-929.0,-337.0
29.0,-235.0,-100.0,-112.0,53.0,-6.0,102.0,-930.0,-338.0
30.0,-234.0,-107.0,-110.0,53.0,-8.0,101.0,-925.0,-340.0
28.0,-234.0,-106.0,-106.0,52.0,-12.0,101.0,-922.0,-338.0
31.0,-231.0,-106.0,-95.0,53.0,-14.0,99.0,-926.0,-335.0
29.0,-234.0,-107.0,-86.0,56.0,-15.0,99.0,-921.0,-335.0
26.0,-232.0,-103.0,-80.0,57.0,-12.0,100.0,-920.0,-334.0
29.0,-233.0,-103.0,-75.0,57.0,-14.0,99.0,-917.0,-334.0
28.0,-230.0,-104.0,-75.0,55.0,-11.0,95.0,-922.0,-335.0
27.0,-234.0,-103.0,-77.0,54.0,-10.0,97.0,-923.0,-328.0
29.0,-234.0,-105.0,-82.0,51.0,-10.0,97.0,-920.0,-342.0
30.0,-231.0,-104.0,-89.0,46.0,-11.0,100.0,-914.0,-332.0
30.0,-230.0,-104.0,-94.0,44.0,-10.0,99.0,-914.0,-338.0
28.0,-231.0,-108.0,-101.0,41.0,-11.0,95.0,-913.0,-338.0
25.0,-229.0,-106.0,-107.0,39.0,-9.0,95.0,-912.0,-337.0
28.0,-229.0,-106.0,-118.0,35.0,-7.0,95.0,-910.0,-330.0
26.0,-228.0,-102.0,-124.0,31.0,-6.0,94.0,-911.0,-332.0
24.0,-230.0,-97.0,-133.0,28.0,-4.0,93.0,-916.0,-330.0
27.0,-231.0,-102.0,-140.0,25.0,-4.0,94.0,-918.0,-327.0
26.0,-232.0,-102.0,-148.0,23.0,-4.0,93.0,-916.0,-334.0
27.0,-231.0,-103.0,-157.0,23.0,-3.0,92.0,-916.0,-327.0
28.0,-233.0,-102.0,-163.0,23.0,-5.0,95.0,-921.0,-334.0
29.0,-234.0,-102.0,-168.0,26.0,-2.0,97.0,-923.0,-334.0
26.0,-231.0,-107.0,-169.0,28.0,-3.0,96.0,-918.0,-335.0
26.0,-233.0,-103.0,-168.0,29.0,-2.0,97.0,-924.0,-338.0
26.0,-233.0,-108.0,-166.0,29.0,-6.0,95.0,-921.0,-343.0
27.0,-233.0,-105.0,-160.0,31.0,-6.0,98.0,-920.0,-342.0
27.0,-231.0,-108.0,-154.0,33.0,-8.0,100.0,-916.0,-348.0
26.0,-230.0,-113.0,-149.0,34.0,-9.0,98.0,-913.0,-351.0
29.0,-231.0,-113.0,-146.0,34.0,-10.0,96.0,-916.0,-351.0
28.0,-232.0,-108.0,-144.0,36.0,-9.0,98.0,-911.0,-355.0
29.0,-230.0,-106.0,-145.0,35.0,-12.0,99.0,-910.0,-353.0
29.0,-231.0,-111.0,-146.0,34.0,-10.0,94.0,-909.0,-353.0
28.0,-229.0,-109.0,-149.0,34.0,-12.0,94.0,-915.0,-353.0
26.0,-227.0,-112.0,-153.0,33.0,-10.0,94.0,-913.0,-350.0
30.0,-231.0,-107.0,-156.0,33.0,-12.0,99.0,-916.0,-352.0
29.0,-232.0,-108.0,-161.0,33.0,-10.0,97.0,-911.0,-349.0
28.0,-231.0,-108.0,-168.0,34.0,-12.0,97.0,-914.0,-348.0
28.0,-230.0,-109.0,-173.0,34.0,-10.0,93.0,-920.0,-346.0
26.0,-232.0,-108.0,-182.0,35.0,-10.0,97.0,-924.0,-350.0
28.0,-234.0,-110.0,-187.0,35.0,-8.0,93.0,-924.0,-347.0
27.0,-236.0,-110.0,-192.0,36.0,-10.0,94.0,-926.0,-346.0
26.0,-234.0,-110.0,-195.0,34.0,-9.0,100.0,-925.0,-346.0
30.0,-238.0,-108.0,-195.0,35.0,-10.0,99.0,-928.0,-347.0
28.0,-234.0,-107.0,-191.0,37.0,-10.0,98.0,-926.0,-342.0
28.0,-232.0,-106.0,-186.0,39.0,-13.0,98.0,-925.0,-346.0
27.0,-234.0,-108.0,-178.0,38.0,-11.0,97.0,-926.0,-354.0
28.0,-236.0,-107.0,-167.0,37.0,-13.0,95.0,-925.0,-352.0
27.0,-233.0,-111.0,-155.0,37.0,-10.0,97.0,-924.0,-356.0
24.0,-232.0,-108.0,-143.0,35.0,-13.0,93.0,-922.0,-355.0
24.0,-233.0,-109.0,-128.0,36.0,-12.0,90.0,-920.0,-353.0
28.0,-233.0,-106.0,-117.0,37.0,-15.0,95.0,-922.0,-350.0
26.0,-235.0,-112.0,-107.0,37.0,-12.0,92.0,-920.0,-355.0
22.0,-234.0,-110.0,-100.0,39.0,-14.0,89.0,-919.0,-356.0
25.0,-233.0,-110.0,-97.0,41.0,-12.0,89.0,-917.0,-353.0
25.0,-229.0,-110.0,-96.0,42.0,-15.0,87.0,-921.0,-357.0
29.0,-232.0,-107.0,-96.0,44.0,-14.0,89.0,-919.0,-361.0
25.0,-230.0,-109.0,-98.0,47.0,-14.0,92.0,-915.0,-354.0
22.0,-232.0,-110.0,-102.0,49.0,-13.0,93.0,-915.0,-353.0
27.0,-231.0,-110.0,-107.0,51.0,-14.0,93.0,-916.0,-353.0
26.0,-230.0,-106.0,-113.0,52.0,-13.0,93.0,-911.0,-354.0
25.0,-231.0,-112.0,-120.0,54.0,-15.0,90.0,-914.0,-354.0
25.0,-233.0,-110.0,-124.0,52.0,-14.0,86.0,-914.0,-351.0
26.0,-230.0,-107.0,-129.0,51.0,-15.0,87.0,-917.0,-359.0
25.0,-231.0,-108.0,-131.0,51.0,-13.0,90.0,-920.0,-359.0
23.0,-229.0,-106.0,-132.0,50.0,-16.0,90.0,-922.0,-353.0
24.0,-232.0,-108.0,-130.0,49.0,-11.0,92.0,-920.0,-355.0
29.0,-235.0,-111.0,-126.0,47.0,-12.0,92.0,-920.0,-355.0
27.0,-234.0,-109.0,-123.0,48.0,-11.0,99.0,-921.0,-355.0
28.0,-232.0,-110.0,-117.0,48.0,-13.0,96.0,-922.0,-359.0
27.0,-235.0,-109.0,-109.0,49.0,-10.0,97.0,-923.0,-358.0
27.0,-233.0,-109.0,-103.0,49.0,-13.0,97.0,-925.0,-360.0
29.0,-237.0,-111.0,-95.0,49.0,-9.0,96.0,-923.0,-366.0
27.0,-235.0,-111.0,-86.0,48.0,-12.0,93.0,-921.0,-360.0
26.0,-234.0,-112.0,-78.0,50.0,-8.0,95.0,-925.0,-362.0
25.0,-236.0,-107.0,-71.0,50.0,-9.0,100.0,-922.0,-367.0
27.0,-236.0,-111.0,-62.0,50.0,-7.0,98.0,-925.0,-360.0
26.0,-236.0,-110.0,-54.0,51.0,-8.0,97.0,-928.0,-354.0
28.0,-233.0,-110.0,-45.0,50.0,-7.0,96.0,-927.0,-357.0
27.0,-235.0,-112.0,-34.0,50.0,-10.0,98.0,-929.0,-357.0
27.0,-232.0,-113.0,-24.0,52.0,-7.0,95.0,-924.0,-362.0
28.0,-235.0,-110.0,-11.0,54.0,-9.0,94.0,-925.0,-361.0
31.0,-236.0,-108.0,-1.0,56.0,-5.0,96.0,-927.0,-360.0
29.0,-235.0,-110.0,11.0,59.0,-8.0,103.0,-924.0,-363.0
30.0,-232.0,-110.0,22.0,62.0,-5.0,101.0,-924.0,-359.0
27.0,-233.0,-111.0,27.0,62.0,-7.0,95.0,-925.0,-358.0
26.0,-234.0,-112.0,34.0,64.0,-3.0,100.0,-920.0,-359.0
29.0,-233.0,-112.0,40.0,65.0,-5.0,100.0,-921.0,-362.0
29.0,-234.0,-111.0,42.0,66.0,-4.0,101.0,-920.0,-361.0
28.0,-231.0,-113.0,45.0,69.0,-6.0,96.0,-918.0,-360.0
28.0,-233.0,-110.0,50.0,71.0,-3.0,97.0,-920.0,-368.0
26.0,-233.0,-111.0,50.0,70.0,-6.0,98.0,-920.0,-359.0
27.0,-232.0,-114.0,53.0,71.0,-5.0,98.0,-919.0,-363.0
29.0,-233.0,-112.0,56.0,71.0,-9.0,99.0,-920.0,-364.0
28.0,-231.0,-111.0,60.0,71.0,-7.0,94.0,-913.0,-361.0
29.0,-232.0,-115.0,64.0,72.0,-8.0,97.0,-913.0,-368.0
27.0,-233.0,-113.0,66.0,72.0,-4.0,95.0,-921.0,-364.0
26.0,-232.0,-113.0,72.0,73.0,-8.0,98.0,-917.0,-363.0
26.0,-234.0,-113.0,77.0,73.0,-4.0,95.0,-918.0,-364.0
25.0,-232.0,-109.0,82.0,73.0,-6.0,93.0,-917.0,-364.0
26.0,-231.0,-111.0,86.0,74.0,-3.0,94.0,-919.0,-366.0
27.0,-233.0,-113.0,92.0,73.0,-6.0,96.0,-923.0,-365.0
26.0,-235.0,-113.0,95.0,74.0,0.0,97.0,-922.0,-368.0
27.0,-236.0,-110.0,98.0,73.0,0.0,89.0,-921.0,-365.0
29.0,-235.0,-109.0,97.0,74.0,1.0,95.0,-920.0,-363.0
28.0,-234.0,-110.0,97.0,71.0,-2.0,96.0,-918.0,-364.0
30.0,-233.0,-113.0,99.0,69.0,1.0,95.0,-918.0,-363.0
30.0,-233.0,-110.0,97.0,68.0,-2.0,98.0,-919.0,-363.0
29.0,-233.0,-111.0,100.0,69.0,1.0,98.0,-921.0,-363.0
28.0,-233.0,-112.0,103.0,68.0,-2.0,98.0,-918.0,-354.0
26.0,-232.0,-115.0,107.0,68.0,1.0,97.0,-918.0,-362.0
27.0,-231.0,-108.0,111.0,69.0,-2.0,95.0,-921.0,-358.0
27.0,-231.0,-113.0,118.0,70.0,-2.0,99.0,-920.0,-356.0
28.0,-233.0,-109.0,123.0,72.0,-5.0,98.0,-920.0,-350.0
28.0,-231.0,-107.0,127.0,74.0,-2.0,95.0,-921.0,-354.0
27.0,-234.0,-107.0,132.0,76.0,-5.0,96.0,-923.0,-347.0
26.0,-232.0,-107.0,134.0,77.0,-3.0,98.0,-920.0,-351.0
28.0,-231.0,-108.0,137.0,75.0,-8.0,99.0,-918.0,-347.0
28.0,-230.0,-112.0,138.0,77.0,-5.0,98.0,-919.0,-352.0
28.0,-230.0,-111.0,138.0,75.0,-9.0,102.0,-911.0,-352.0
29.0,-228.0,-112.0,137.0,74.0,-7.0,99.0,-907.0,-360.0
27.0,-227.0,-112.0,136.0,74.0,-8.0,100.0,-904.0,-360.0
27.0,-230.0,-109.0,133.0,73.0,-6.0,98.0,-902.0,-360.0
29.0,-229.0,-110.0,125.0,70.0,-5.0,95.0,-908.0,-358.0
30.0,-230.0,-109.0,116.0,67.0,-3.0,97.0,-911.0,-356.0
31.0,-231.0,-112.0,106.0,67.0,-5.0,101.0,-911.0,-349.0
29.0,-234.0,-106.0,98.0,66.0,-1.0,101.0,-915.0,-350.0
32.0,-230.0,-105.0,89.0,67.0,-4.0,100.0,-915.0,-349.0
28.0,-233.0,-109.0,83.0,67.0,-2.0,105.0,-917.0,-345.0
33.0,-232.0,-107.0,78.0,69.0,-4.0,104.0,-920.0,-343.0
30.0,-233.0,-104.0,76.0,70.0,-1.0,105.0,-918.0,-345.0
30.0,-233.0,-104.0,78.0,71.0,-3.0,105.0,-922.0,-343.0
29.0,-233.0,-104.0,83.0,71.0,-1.0,104.0,-922.0,-341.0
30.0,-235.0,-106.0,88.0,73.0,-4.0,101.0,-921.0,-339.0
29.0,-233.0,-105.0,96.0,75.0,-2.0,103.0,-922.0,-344.0
29.0,-234.0,-104.0,103.0,76.0,-5.0,102.0,-922.0,-344.0
29.0,-232.0,-104.0,109.0,77.0,-3.0,106.0,-924.0,-341.0
28.0,-232.0,-102.0,112.0,77.0,-5.0,103.0,-923.0,-340.0
30.0,-233.0,-104.0,115.0,78.0,-2.0,105.0,-920.0,-341.0
32.0,-232.0,-104.0,115.0,77.0,-6.0,105.0,-922.0,-340.0
30.0,-232.0,-106.0,113.0,78.0,-2.0,105.0,-924.0,-339.0
29.0,-235.0,-103.0,112.0,78.0,-4.0,109.0,-921.0,-341.0
32.0,-235.0,-103.0,110.0,79.0,-1.0,103.0,-923.0,-333.0
31.0,-233.0,-105.0,105.0,78.0,-1.0,103.0,-923.0,-338.0
31.0,-234.0,-105.0,102.0,77.0,1.0,101.0,-924.0,-336.0
31.0,-235.0,-105.0,99.0,77.0,2.0,103.0,-922.0,-338.0
28.0,-233.0,-106.0,98.0,78.0,4.0,102.0,-920.0,-339.0
29.0,-232.0,-102.0,97.0,79.0,3.0,102.0,-924.0,-337.0
29.0,-234.0,-104.0,96.0,79.0,4.0,102.0,-923.0,-341.0
28.0,-235.0,-105.0,96.0,80.0,2.0,106.0,-922.0,-336.0
28.0,-233.0,-106.0,99.0,82.0,3.0,104.0,-922.0,-340.0
26.0,-232.0,-106.0,100.0,86.0,2.0,102.0,-921.0,-340.0
29.0,-231.0,-105.0,98.0,89.0,2.0,101.0,-921.0,-339.0
26.0,-234.0,-109.0,96.0,91.0,2.0,98.0,-916.0,-336.0
29.0,-234.0,-105.0,94.0,93.0,4.0,102.0,-918.0,-335.0
29.0,-228.0,-101.0,91.0,95.0,2.0,103.0,-921.0,-332.0
27.0,-233.0,-101.0,86.0,96.0,3.0,99.0,-922.0,-331.0
30.0,-235.0,-104.0,81.0,98.0,0.0,102.0,-921.0,-325.0
30.0,-235.0,-104.0,75.0,99.0,2.0,100.0,-920.0,-327.0
28.0,-230.0,-103.0,69.0,102.0,0.0,107.0,-925.0,-334.0
26.0,-232.0,-101.0,59.0,100.0,0.0,105.0,-923.0,-329.0
31.0,-231.0,-105.0,54.0,100.0,-1.0,104.0,-923.0,-334.0
31.0,-232.0,-107.0,46.0,98.0,0.0,106.0,-919.0,-334.0
30.0,-234.0,-103.0,36.0,97.0,-2.0,108.0,-918.0,-339.0
32.0,-233.0,-103.0,26.0,95.0,-1.0,108.0,-919.0,-334.0
34.0,-232.0,-106.0,20.0,94.0,-3.0,106.0,-919.0,-338.0
33.0,-234.0,-105.0,15.0,94.0,0.0,106.0,-923.0,-324.0
29.0,-234.0,-103.0,12.0,93.0,-2.0,104.0,-924.0,-331.0
32.0,-233.0,-102.0,13.0,94.0,-1.0,103.0,-922.0,-338.0
29.0,-237.0,-107.0,17.0,92.0,-4.0,99.0,-923.0,-336.0
29.0,-234.0,-101.0,19.0,92.0,-1.0,99.0,-923.0,-321.0
28.0,-237.0,-102.0,26.0,92.0,-3.0,99.0,-924.0,-329.0
28.0,-236.0,-103.0,31.0,91.0,-5.0,96.0,-929.0,-327.0
29.0,-236.0,-105.0,36.0,90.0,-5.0,97.0,-925.0,-330.0
25.0,-233.0,-100.0,44.0,88.0,-3.0,98.0,-923.0,-329.0
28.0,-236.0,-102.0,50.0,88.0,-5.0,98.0,-924.0,-325.0
28.0,-233.0,-101.0,54.0,87.0,-3.0,95.0,-925.0,-325.0
28.0,-235.0,-103.0,59.0,85.0,-4.0,95.0,-928.0,-327.0
29.0,-233.0,-100.0,63.0,85.0,-2.0,94.0,-925.0,-323.0
28.0,-233.0,-97.0,65.0,84.0,-3.0,97.0,-925.0,-324.0
28.0,-235.0,-97.0,65.0,80.0,-1.0,99.0,-927.0,-321.0
29.0,-232.0,-102.0,65.0,80.0,-2.0,96.0,-923.0,-322.0
29.0,-236.0,-98.0,63.0,78.0,0.0,94.0,-923.0,-325.0
28.0,-233.0,-102.0,62.0,75.0,1.0,95.0,-925.0,-326.0
26.0,-235.0,-103.0,58.0,74.0,2.0,90.0,-925.0,-315.0
28.0,-234.0,-97.0,53.0,73.0,1.0,92.0,-927.0,-318.0
29.0,-234.0,-101.0,50.0,72.0,1.0,99.0,-922.0,-321.0
26.0,-234.0,-100.0,46.0,72.0,-1.0,99.0,-923.0,-315.0
29.0,-235.0,-98.0,43.0,73.0,-1.0,96.0,-923.0,-314.0
29.0,-232.0,-100.0,39.0,75.0,-3.0,96.0,-921.0,-315.0
28.0,-232.0,-99.0,35.0,76.0,-3.0,101.0,-924.0,-312.0
29.0,-233.0,-101.0,30.0,77.0,-3.0,97.0,-923.0,-314.0
26.0,-233.0,-99.0,23.0,77.0,-2.0,97.0,-921.0,-310.0
24.0,-233.0,-100.0,18.0,76.0,-3.0,101.0,-925.0,-318.0
28.0,-233.0,-99.0,13.0,75.0,-2.0,104.0,-929.0,-320.0
27.0,-235.0,-98.0,7.0,71.0,-1.0,102.0,-922.0,-320.0
28.0,-233.0,-97.0,1.0,70.0,4.0,104.0,-922.0,-322.0
32.0,-235.0,-102.0,-3.0,68.0,4.0,106.0,-924.0,-321.0
30.0,-235.0,-101.0,-6.0,69.0,7.0,103.0,-927.0,-321.0
28.0,-234.0,-100.0,-7.0,68.0,6.0,107.0,-925.0,-317.0
30.0,-236.0,-103.0,-9.0,67.0,8.0,105.0,-927.0,-326.0
32.0,-236.0,-100.0,-11.0,66.0,9.0,102.0,-926.0,-322.0
32.0,-235.0,-99.0,-13.0,66.0,10.0,105.0,-927.0,-328.0
32.0,-232.0,-99.0,-15.0,67.0,11.0,104.0,-927.0,-313.0
28.0,-233.0,-99.0,-13.0,70.0,10.0,107.0,-926.0,-322.0
29.0,-234.0,-100.0,-12.0,72.0,11.0,106.0,-932.0,-320.0
29.0,-233.0,-100.0,-10.0,74.0,9.0,102.0,-933.0,-317.0
29.0,-237.0,-102.0,-7.0,77.0,10.0,100.0,-931.0,-318.0
28.0,-236.0,-102.0,-5.0,78.0,9.0,96.0,-927.0,-316.0
28.0,-236.0,-99.0,-4.0,77.0,7.0,96.0,-924.0,-314.0
26.0,-236.0,-105.0,-6.0,79.0,6.0,96.0,-928.0,-317.0
30.0,-234.0,-98.0,-7.0,79.0,7.0,97.0,-923.0,-314.0
29.0,-232.0,-95.0,-9.0,78.0,7.0,97.0,-930.0,-313.0
29.0,-235.0,-101.0,-10.0,79.0,7.0,97.0,-926.0,-309.0
26.0,-233.0,-100.0,-13.0,78.0,7.0,95.0,-929.0,-312.0
27.0,-237.0,-99.0,-15.0,76.0,7.0,99.0,-932.0,-310.0
28.0,-236.0,-98.0,-16.0,75.0,7.0,97.0,-931.0,-311.0
29.0,-234.0,-98.0,-17.0,75.0,8.0,98.0,-932.0,-308.0
27.0,-236.0,-96.0,-19.0,75.0,7.0,99.0,-932.0,-312.0
29.0,-234.0,-97.0,-21.0,75.0,5.0,96.0,-928.0,-313.0
27.0,-237.0,-97.0,-22.0,73.0,5.0,100.0,-928.0,-315.0
27.0,-235.0,-95.0,-25.0,75.0,6.0,100.0,-927.0,-309.0
28.0,-233.0,-101.0,-26.0,76.0,4.0,97.0,-929.0,-313.0
28.0,-234.0,-97.0,-28.0,79.0,3.0,101.0,-930.0,-312.0
30.0,-236.0,-95.0,-28.0,78.0,2.0,94.0,-929.0,-311.0
27.0,-233.0,-99.0,-29.0,78.0,1.0,96.0,-927.0,-310.0
28.0,-234.0,-101.0,-29.0,78.0,-1.0,96.0,-930.0,-314.0
26.0,-234.0,-98.0,-32.0,76.0,-1.0,96.0,-927.0,-313.0
29.0,-239.0,-102.0,-33.0,74.0,-4.0,100.0,-924.0,-313.0
27.0,-235.0,-103.0,-33.0,72.0,-5.0,97.0,-928.0,-317.0
27.0,-238.0,-97.0,-35.0,72.0,-6.0,94.0,-924.0,-322.0
26.0,-234.0,-103.0,-37.0,70.0,-6.0,95.0,-924.0,-321.0
29.0,-234.0,-98.0,-38.0,68.0,-6.0,98.0,-925.0,-327.0
26.0,-235.0,-101.0,-38.0,63.0,-3.0,100.0,-923.0,-321.0
28.0,-237.0,-100.0,-40.0,62.0,-4.0,95.0,-928.0,-327.0
25.0,-232.0,-103.0,-40.0,61.0,-3.0,94.0,-926.0,-320.0
28.0,-236.0,-104.0,-40.0,62.0,-2.0,94.0,-931.0,-317.0
28.0,-237.0,-101.0,-41.0,60.0,-1.0,100.0,-936.0,-318.0
29.0,-237.0,-100.0,-39.0,61.0,-3.0,99.0,-931.0,-317.0
27.0,-238.0,-96.0,-39.0,61.0,0.0,98.0,-932.0,-316.0
32.0,-236.0,-99.0,-38.0,63.0,0.0,99.0,-935.0,-311.0
26.0,-233.0,-102.0,-36.0,64.0,0.0,103.0,-932.0,-311.0
30.0,-237.0,-95.0,-37.0,65.0,-1.0,101.0,-933.0,-311.0
28.0,-235.0,-101.0,-37.0,67.0,-2.0,106.0,-933.0,-313.0
31.0,-239.0,-101.0,-35.0,68.0,-2.0,102.0,-935.0,-316.0
30.0,-233.0,-95.0,-32.0,69.0,-2.0,104.0,-927.0,-314.0
30.0,-238.0,-100.0,-32.0,67.0,-3.0,100.0,-935.0,-311.0
29.0,-239.0,-99.0,-31.0,66.0,-3.0,98.0,-930.0,-314.0
30.0,-234.0,-97.0,-32.0,66.0,-5.0,102.0,-931.0,-321.0
30.0,-238.0,-100.0,-31.0,66.0,-4.0,100.0,-928.0,-323.0
29.0,-235.0,-98.0,-34.0,66.0,-5.0,102.0,-929.0,-314.0
31.0,-236.0,-99.0,-35.0,66.0,-3.0,104.0,-935.0,-315.0
28.0,-236.0,-101.0,-37.0,66.0,-3.0,99.0,-932.0,-316.0
27.0,-235.0,-103.0,-40.0,65.0,-2.0,98.0,-930.0,-323.0
30.0,-237.0,-103.0,-43.0,68.0,-2.0,104.0,-928.0,-321.0
30.0,-231.0,-100.0,-45.0,67.0,-1.0,99.0,-929.0,-321.0
25.0,-236.0,-102.0,-44.0,69.0,-1.0,103.0,-931.0,-323.0
30.0,-235.0,-96.0,-45.0,69.0,0.0,99.0,-933.0,-320.0
26.0,-236.0,-100.0,-42.0,69.0,-1.0,100.0,-929.0,-319.0
27.0,-235.0,-98.0,-40.0,69.0,1.0,102.0,-935.0,-318.0
29.0,-239.0,-103.0,-38.0,69.0,-2.0,97.0,-931.0,-319.0
27.0,-236.0,-100.0,-36.0,69.0,-1.0,95.0,-936.0,-317.0
26.0,-236.0,-104.0,-33.0,70.0,-4.0,94.0,-935.0,-320.0
27.0,-235.0,-104.0,-29.0,69.0,-2.0,95.0,-934.0,-321.0
28.0,-238.0,-100.0,-23.0,69.0,-2.0,96.0,-933.0,-320.0
27.0,-237.0,-99.0,-22.0,69.0,-1.0,95.0,-928.0,-312.0
27.0,-236.0,-102.0,-20.0,66.0,-3.0,94.0,-929.0,-318.0
28.0,-237.0,-98.0,-20.0,66.0,-4.0,94.0,-932.0,-317.0
28.0,-236.0,-100.0,-20.0,64.0,-6.0,93.0,-929.0,-314.0
27.0,-235.0,-100.0,-23.0,61.0,-5.0,97.0,-925.0,-318.0
26.0,-234.0,-100.0,-26.0,60.0,-6.0,94.0,-928.0,-312.0
26.0,-234.0,-101.0,-29.0,58.0,-4.0,96.0,-920.0,-316.0
25.0,-233.0,-102.0,-34.0,57.0,-6.0,97.0,-925.0,-312.0
27.0,-232.0,-102.0,-37.0,56.0,-4.0,94.0,-928.0,-313.0
28.0,-233.0,-102.0,-39.0,54.0,-5.0,94.0,-931.0,-313.0
30.0,-237.0,-99.0,-43.0,54.0,-4.0,94.0,-919.0,-317.0
28.0,-236.0,-98.0,-45.0,53.0,-5.0,96.0,-922.0,-311.0
28.0,-232.0,-102.0,-47.0,54.0,-5.0,98.0,-922.0,-309.0
28.0,-234.0,-99.0,-50.0,53.0,-7.0,96.0,-924.0,-313.0
30.0,-232.0,-103.0,-52.0,53.0,-4.0,99.0,-918.0,-317.0
27.0,-235.0,-101.0,-55.0,51.0,-5.0,98.0,-925.0,-315.0
28.0,-233.0,-99.0,-60.0,50.0,-4.0,95.0,-922.0,-316.0
29.0,-234.0,-101.0,-64.0,48.0,-5.0,103.0,-926.0,-315.0
31.0,-239.0,-101.0,-67.0,50.0,-3.0,96.0,-923.0,-318.0
28.0,-234.0,-102.0,-69.0,51.0,-4.0,96.0,-924.0,-319.0
29.0,-235.0,-101.0,-71.0,53.0,-2.0,98.0,-929.0,-318.0
29.0,-236.0,-101.0,-72.0,55.0,-3.0,98.0,-929.0,-322.0
27.0,-237.0,-99.0,-71.0,56.0,-1.0,99.0,-935.0,-321.0
29.0,-239.0,-105.0,-68.0,55.0,-2.0,100.0,-939.0,-325.0
29.0,-239.0,-99.0,-64.0,54.0,-2.0,100.0,-938.0,-325.0
29.0,-239.0,-104.0,-57.0,56.0,-4.0,100.0,-931.0,-327.0
29.0,-238.0,-103.0,-47.0,57.0,-2.0,101.0,-938.0,-329.0
28.0,-238.0,-98.0,-40.0,57.0,-5.0,102.0,-932.0,-328.0
26.0,-237.0,-101.0,-33.0,60.0,-1.0,100.0,-933.0,-331.0
28.0,-239.0,-102.0,-27.0,60.0,-4.0,100.0,-929.0,-327.0
30.0,-236.0,-103.0,-21.0,61.0,-3.0,103.0,-929.0,-325.0
30.0,-236.0,-98.0,-17.0,62.0,-3.0,101.0,-930.0,-324.0
29.0,-235.0,-98.0,-11.0,64.0,-3.0,98.0,-934.0,-317.0
29.0,-237.0,-104.0,-9.0,62.0,-5.0,98.0,-933.0,-316.0
29.0,-237.0,-97.0,-8.0,63.0,-3.0,98.0,-929.0,-322.0
28.0,-237.0,-103.0,-6.0,64.0,-5.0,94.0,-934.0,-321.0
29.0,-237.0,-101.0,-9.0,66.0,-3.0,96.0,-930.0,-322.0
27.0,-236.0,-100.0,-10.0,65.0,-5.0,96.0,-923.0,-321.0
31.0,-234.0,-100.0,-12.0,63.0,-4.0,95.0,-926.0,-328.0
28.0,-235.0,-101.0,-14.0,64.0,-5.0,98.0,-923.0,-320.0
26.0,-234.0,-102.0,-18.0,63.0,-1.0,93.0,-921.0,-317.0
27.0,-234.0,-100.0,-21.0,60.0,-2.0,93.0,-923.0,-316.0
25.0,-235.0,-98.0,-25.0,60.0,2.0,93.0,-928.0,-321.0
28.0,-238.0,-99.0,-27.0,58.0,-1.0,98.0,-924.0,-315.0
28.0,-234.0,-100.0,-32.0,58.0,2.0,96.0,-931.0,-318.0
27.0,-236.0,-100.0,-32.0,58.0,-1.0,91.0,-926.0,-319.0
28.0,-236.0,-104.0,-32.0,60.0,1.0,96.0,-923.0,-319.0
26.0,-233.0,-99.0,-32.0,61.0,-1.0,96.0,-925.0,-320.0
31.0,-234.0,-101.0,-33.0,60.0,0.0,99.0,-927.0,-322.0
27.0,-235.0,-100.0,-31.0,61.0,-3.0,96.0,-925.0,-321.0
28.0,-236.0,-101.0,-31.0,62.0,-1.0,101.0,-924.0,-326.0
28.0,-234.0,-101.0,-30.0,63.0,-2.0,101.0,-933.0,-326.0
26.0,-233.0,-106.0,-30.0,60.0,1.0,96.0,-922.0,-325.0
28.0,-236.0,-103.0,-27.0,62.0,0.0,97.0,-925.0,-326.0
25.0,-236.0,-101.0,-25.0,62.0,3.0,94.0,-926.0,-324.0
11.0,-248.0,-125.0,-25.0,60.0,1.0,99.0,-924.0,-320.0
28.0,-236.0,-102.0,-23.0,62.0,4.0,104.0,-929.0,-318.0
29.0,-236.0,-103.0,-23.0,62.0,3.0,96.0,-929.0,-328.0
29.0,-237.0,-99.0,-20.0,62.0,5.0,97.0,-934.0,-325.0
29.0,-236.0,-103.0,-17.0,62.0,1.0,100.0,-935.0,-328.0
28.0,-235.0,-105.0,-15.0,63.0,4.0,97.0,-930.0,-327.0
29.0,-238.0,-101.0,-10.0,63.0,0.0,97.0,-931.0,-324.0
28.0,-236.0,-98.0,-9.0,62.0,1.0,98.0,-926.0,-328.0
31.0,-237.0,-99.0,-5.0,64.0,-2.0,100.0,-926.0,-324.0
27.0,-236.0,-99.0,-2.0,65.0,0.0,101.0,-925.0,-325.0
26.0,-233.0,-102.0,1.0,68.0,-3.0,101.0,-928.0,-323.0
30.0,-233.0,-100.0,4.0,68.0,0.0,96.0,-931.0,-320.0
27.0,-236.0,-99.0,5.0,68.0,-4.0,99.0,-923.0,-322.0
26.0,-233.0,-106.0,8.0,69.0,-2.0,94.0,-921.0,-318.0
29.0,-235.0,-100.0,9.0,69.0,-5.0,95.0,-923.0,-320.0
26.0,-237.0,-101.0,7.0,70.0,-3.0,98.0,-920.0,-326.0
26.0,-233.0,-100.0,7.0,70.0,-4.0,93.0,-922.0,-322.0
25.0,-231.0,-100.0,7.0,69.0,0.0,96.0,-926.0,-319.0
31.0,-236.0,-98.0,3.0,67.0,-4.0,99.0,-925.0,-321.0
27.0,-237.0,-105.0,1.0,68.0,0.0,99.0,-925.0,-320.0
25.0,-233.0,-103.0,-1.0,68.0,-2.0,96.0,-924.0,-317.0
27.0,-231.0,-103.0,-2.0,66.0,-2.0,97.0,-921.0,-326.0
28.0,-231.0,-100.0,-9.0,66.0,-5.0,96.0,-917.0,-324.0
25.0,-231.0,-101.0,-18.0,66.0,-2.0,95.0,-912.0,-323.0
27.0,-231.0,-101.0,-25.0,64.0,-5.0,94.0,-914.0,-324.0
27.0,-232.0,-102.0,-31.0,61.0,1.0,96.0,-915.0,-326.0
27.0,-232.0,-101.0,-40.0,62.0,-1.0,95.0,-919.0,-317.0
25.0,-231.0,-99.0,-46.0,60.0,3.0,94.0,-918.0,-318.0
29.0,-234.0,-98.0,-53.0,61.0,1.0,98.0,-920.0,-314.0
26.0,-233.0,-101.0,-57.0,63.0,5.0,99.0,-921.0,-314.0
27.0,-235.0,-102.0,-61.0,64.0,2.0,99.0,-928.0,-314.0
28.0,-234.0,-102.0,-63.0,64.0,5.0,96.0,-928.0,-316.0
27.0,-234.0,-98.0,-65.0,64.0,2.0,100.0,-924.0,-317.0
27.0,-233.0,-101.0,-65.0,66.0,5.0,98.0,-924.0,-312.0
28.0,-234.0,-100.0,-64.0,67.0,2.0,99.0,-925.0,-317.0
28.0,-238.0,-98.0,-63.0,68.0,3.0,98.0,-926.0,-319.0
30.0,-235.0,-102.0,-60.0,65.0,-1.0,98.0,-926.0,-319.0
28.0,-237.0,-100.0,-57.0,67.0,-1.0,100.0,-930.0,-328.0
30.0,-236.0,-102.0,-56.0,65.0,-3.0,99.0,-926.0,-327.0
30.0,-235.0,-98.0,-54.0,65.0,-2.0,101.0,-927.0,-327.0
28.0,-237.0,-100.0,-51.0,66.0,-5.0,96.0,-930.0,-333.0
28.0,-236.0,-104.0,-49.0,68.0,-2.0,94.0,-930.0,-328.0
29.0,-234.0,-101.0,-45.0,67.0,-4.0,93.0,-925.0,-335.0
28.0,-239.0,-103.0,-40.0,68.0,-1.0,95.0,-928.0,-329.0
29.0,-237.0,-107.0,-37.0,69.0,-3.0,98.0,-932.0,-328.0
29.0,-239.0,-102.0,-33.0,72.0,-2.0,98.0,-934.0,-333.0
29.0,-240.0,-108.0,-31.0,71.0,-3.0,96.0,-927.0,-328.0
31.0,-235.0,-104.0,-26.0,75.0,-2.0,96.0,-934.0,-336.0
27.0,-235.0,-104.0,-24.0,76.0,-3.0,95.0,-930.0,-331.0
28.0,-234.0,-103.0,-23.0,76.0,0.0,95.0,-929.0,-333.0
27.0,-233.0,-105.0,-21.0,75.0,-2.0,98.0,-928.0,-322.0
26.0,-236.0,-100.0,-18.0,74.0,-1.0,98.0,-926.0,-318.0
28.0,-236.0,-104.0,-16.0,71.0,-2.0,97.0,-930.0,-328.0
26.0,-235.0,-100.0,-14.0,70.0,0.0,102.0,-932.0,-324.0
28.0,-236.0,-98.0,-9.0,69.0,-4.0,99.0,-929.0,-321.0
26.0,-239.0,-102.0,-9.0,70.0,-3.0,96.0,-930.0,-325.0
27.0,-235.0,-101.0,-6.0,69.0,-6.0,99.0,-928.0,-322.0
27.0,-239.0,-100.0,-4.0,64.0,-5.0,96.0,-931.0,-321.0
25.0,-236.0,-102.0,-2.0,66.0,-7.0,99.0,-931.0,-325.0
26.0,-236.0,-100.0,0.0,65.0,-4.0,99.0,-928.0,-324.0
30.0,-236.0,-107.0,4.0,63.0,-7.0,99.0,-934.0,-328.0
27.0,-235.0,-100.0,9.0,62.0,-7.0,98.0,-928.0,-323.0
28.0,-239.0,-106.0,13.0,63.0,-7.0,100.0,-930.0,-322.0
26.0,-236.0,-101.0,16.0,63.0,-5.0,99.0,-921.0,-326.0
29.0,-235.0,-104.0,20.0,62.0,-7.0,102.0,-923.0,-325.0
27.0,-234.0,-103.0,21.0,60.0,-5.0,94.0,-923.0,-326.0
28.0,-238.0,-100.0,20.0,59.0,-5.0,97.0,-927.0,-323.0
25.0,-235.0,-99.0,18.0,58.0,-3.0,100.0,-924.0,-329.0
31.0,-234.0,-103.0,17.0,56.0,-5.0,102.0,-925.0,-321.0
28.0,-236.0,-102.0,18.0,55.0,-4.0,99.0,-931.0,-324.0
28.0,-238.0,-98.0,17.0,56.0,-6.0,97.0,-929.0,-328.0
29.0,-236.0,-100.0,21.0,58.0,-5.0,101.0,-929.0,-328.0
30.0,-236.0,-99.0,26.0,59.0,-5.0,100.0,-927.0,-327.0
28.0,-235.0,-100.0,29.0,63.0,-4.0,102.0,-929.0,-326.0
29.0,-238.0,-101.0,31.0,64.0,-6.0,98.0,-930.0,-326.0
29.0,-236.0,-100.0,33.0,64.0,-5.0,99.0,-932.0,-323.0
31.0,-239.0,-101.0,35.0,65.0,-9.0,101.0,-929.0,-321.0
27.0,-238.0,-101.0,38.0,64.0,-8.0,104.0,-936.0,-326.0
27.0,-238.0,-102.0,39.0,63.0,-11.0,99.0,-936.0,-326.0
28.0,-237.0,-99.0,43.0,64.0,-9.0,100.0,-931.0,-321.0
31.0,-239.0,-102.0,46.0,65.0,-12.0,100.0,-936.0,-325.0
29.0,-239.0,-101.0,53.0,66.0,-8.0,103.0,-935.0,-325.0
28.0,-239.0,-100.0,57.0,66.0,-11.0,101.0,-938.0,-325.0
31.0,-239.0,-102.0,64.0,65.0,-8.0,105.0,-940.0,-323.0
29.0,-239.0,-100.0,69.0,65.0,-11.0,101.0,-934.0,-322.0
28.0,-237.0,-104.0,74.0,64.0,-7.0,102.0,-930.0,-321.0
33.0,-238.0,-99.0,79.0,63.0,-11.0,106.0,-933.0,-324.0
32.0,-236.0,-102.0,85.0,63.0,-9.0,100.0,-925.0,-320.0
28.0,-234.0,-99.0,87.0,64.0,-9.0,101.0,-931.0,-317.0
27.0,-236.0,-99.0,90.0,63.0,-9.0,101.0,-936.0,-310.0
28.0,-236.0,-98.0,90.0,63.0,-12.0,101.0,-932.0,-310.0
28.0,-236.0,-101.0,88.0,62.0,-8.0,104.0,-930.0,-310.0
29.0,-239.0,-99.0,89.0,62.0,-10.0,102.0,-930.0,-310.0
31.0,-235.0,-97.0,87.0,62.0,-9.0,102.0,-931.0,-315.0
29.0,-236.0,-100.0,85.0,60.0,-12.0,102.0,-932.0,-314.0
29.0,-235.0,-94.0,83.0,59.0,-9.0,104.0,-929.0,-313.0
29.0,-234.0,-99.0,82.0,59.0,-9.0,106.0,-923.0,-316.0
28.0,-232.0,-98.0,79.0,58.0,-8.0,104.0,-926.0,-312.0
31.0,-236.0,-100.0,76.0,56.0,-7.0,101.0,-921.0,-309.0
26.0,-236.0,-101.0,74.0,55.0,-5.0,102.0,-926.0,-305.0
30.0,-237.0,-98.0,71.0,53.0,-5.0,102.0,-924.0,-309.0
32.0,-235.0,-95.0,69.0,53.0,-4.0,100.0,-926.0,-307.0
30.0,-235.0,-97.0,66.0,54.0,-6.0,99.0,-923.0,-303.0
30.0,-236.0,-98.0,64.0,53.0,-3.0,100.0,-934.0,-317.0
29.0,-235.0,-99.0,62.0,51.0,-5.0,107.0,-926.0,-309.0
28.0,-235.0,-96.0,60.0,51.0,-3.0,103.0,-923.0,-306.0
28.0,-235.0,-99.0,58.0,50.0,-6.0,102.0,-929.0,-309.0
30.0,-237.0,-102.0,54.0,50.0,-3.0,108.0,-924.0,-309.0
25.0,-235.0,-99.0,51.0,50.0,-4.0,102.0,-925.0,-309.0
30.0,-235.0,-98.0,50.0,50.0,-1.0,101.0,-927.0,-309.0
28.0,-237.0,-95.0,47.0,50.0,-2.0,99.0,-931.0,-306.0
33.0,-237.0,-97.0,45.0,50.0,-2.0,99.0,-933.0,-309.0
31.0,-238.0,-95.0,42.0,51.0,-3.0,101.0,-932.0,-307.0
31.0,-237.0,-98.0,40.0,52.0,-3.0,100.0,-930.0,-306.0
28.0,-237.0,-96.0,38.0,52.0,-4.0,103.0,-936.0,-307.0
28.0,-236.0,-99.0,38.0,52.0,-3.0,99.0,-934.0,-304.0
29.0,-238.0,-97.0,36.0,51.0,-6.0,102.0,-942.0,-305.0
30.0,-238.0,-95.0,36.0,51.0,-6.0,103.0,-935.0,-305.0
32.0,-240.0,-97.0,37.0,52.0,-7.0,103.0,-933.0,-307.0
28.0,-237.0,-98.0,36.0,53.0,-7.0,106.0,-939.0,-303.0
29.0,-237.0,-100.0,35.0,54.0,-8.0,101.0,-930.0,-306.0
28.0,-237.0,-95.0,35.0,52.0,-7.0,103.0,-934.0,-313.0
30.0,-240.0,-97.0,30.0,50.0,-7.0,102.0,-930.0,-309.0
31.0,-237.0,-98.0,26.0,48.0,-4.0,103.0,-931.0,-307.0
30.0,-236.0,-96.0,22.0,45.0,-4.0,98.0,-935.0,-307.0
30.0,-237.0,-97.0,18.0,43.0,0.0,101.0,-932.0,-303.0
31.0,-241.0,-98.0,15.0,42.0,-2.0,103.0,-935.0,-305.0
29.0,-237.0,-96.0,12.0,41.0,0.0,99.0,-939.0,-306.0
29.0,-239.0,-94.0,11.0,39.0,-3.0,96.0,-941.0,-304.0
28.0,-239.0,-100.0,10.0,39.0,-2.0,97.0,-940.0,-312.0
26.0,-237.0,-100.0,9.0,37.0,-5.0,96.0,-928.0,-312.0
27.0,-234.0,-98.0,8.0,34.0,-6.0,99.0,-927.0,-324.0
29.0,-238.0,-99.0,5.0,36.0,-6.0,100.0,-920.0,-321.0
29.0,-235.0,-102.0,0.0,35.0,-5.0,96.0,-923.0,-325.0
29.0,-234.0,-100.0,-11.0,33.0,-6.0,97.0,-926.0,-325.0
29.0,-235.0,-102.0,-21.0,31.0,-4.0,100.0,-924.0,-322.0
28.0,-235.0,-105.0,-32.0,32.0,-1.0,98.0,-927.0,-326.0
30.0,-234.0,-101.0,-45.0,35.0,3.0,99.0,-926.0,-334.0
31.0,-233.0,-103.0,-56.0,35.0,3.0,100.0,-929.0,-321.0
31.0,-236.0,-105.0,-72.0,35.0,5.0,104.0,-924.0,-326.0
30.0,-234.0,-104.0,-85.0,36.0,5.0,105.0,-925.0,-335.0
30.0,-233.0,-103.0,-97.0,35.0,8.0,108.0,-926.0,-330.0
31.0,-232.0,-102.0,-110.0,35.0,10.0,111.0,-924.0,-335.0
32.0,-232.0,-105.0,-120.0,38.0,9.0,112.0,-923.0,-338.0
31.0,-232.0,-109.0,-127.0,41.0,8.0,116.0,-921.0,-343.0
31.0,-234.0,-102.0,-133.0,45.0,8.0,119.0,-922.0,-340.0
33.0,-233.0,-104.0,-133.0,49.0,5.0,113.0,-917.0,-346.0
36.0,-232.0,-105.0,-132.0,54.0,5.0,121.0,-918.0,-344.0
35.0,-235.0,-109.0,-131.0,57.0,2.0,122.0,-923.0,-345.0
37.0,-234.0,-108.0,-129.0,63.0,-1.0,126.0,-929.0,-351.0
37.0,-234.0,-107.0,-127.0,68.0,-1.0,130.0,-932.0,-352.0
38.0,-234.0,-113.0,-129.0,72.0,-4.0,137.0,-931.0,-360.0
41.0,-236.0,-109.0,-136.0,77.0,-7.0,137.0,-925.0,-359.0
42.0,-238.0,-108.0,-137.0,85.0,-6.0,139.0,-931.0,-341.0
40.0,-242.0,-103.0,-122.0,93.0,0.0,145.0,-957.0,-332.0
42.0,-249.0,-109.0,-99.0,102.0,4.0,148.0,-969.0,-339.0
45.0,-243.0,-112.0,-78.0,105.0,8.0,154.0,-955.0,-362.0
44.0,-236.0,-115.0,-77.0,92.0,8.0,154.0,-932.0,-375.0
41.0,-224.0,-116.0,-103.0,68.0,6.0,154.0,-900.0,-388.0
41.0,-219.0,-115.0,-156.0,45.0,10.0,145.0,-876.0,-381.0
42.0,-211.0,-116.0,-222.0,32.0,12.0,142.0,-856.0,-386.0
40.0,-189.0,-137.0,-307.0,35.0,18.0,134.0,-777.0,-466.0
36.0,-143.0,-172.0,-466.0,57.0,21.0,122.0,-647.0,-599.0
35.0,-100.0,-209.0,-770.0,93.0,15.0,127.0,-508.0,-742.0
37.0,-80.0,-221.0,-1232.0,129.0,-4.0,125.0,-433.0,-823.0
39.0,-107.0,-192.0,-1767.0,161.0,-16.0,135.0,-472.0,-738.0
35.0,-158.0,-138.0,-2196.0,184.0,-10.0,133.0,-605.0,-542.0
29.0,-198.0,-108.0,-2365.0,190.0,14.0,122.0,-765.0,-358.0
33.0,-238.0,-95.0,-2225.0,168.0,38.0,112.0,-890.0,-289.0
27.0,-253.0,-97.0,-1976.0,134.0,45.0,104.0,-955.0,-307.0
30.0,-254.0,-110.0,-1727.0,104.0,29.0,99.0,-975.0,-351.0
29.0,-249.0,-118.0,-1510.0,95.0,8.0,107.0,-956.0,-387.0
31.0,-235.0,-130.0,-1317.0,104.0,-1.0,96.0,-905.0,-445.0
28.0,-202.0,-158.0,-1161.0,128.0,14.0,88.0,-820.0,-544.0
22.0,-169.0,-186.0,-1077.0,163.0,46.0,72.0,-709.0,-654.0
21.0,-145.0,-197.0,-1089.0,190.0,80.0,70.0,-593.0,-735.0
18.0,-117.0,-214.0,-1175.0,205.0,110.0,68.0,-502.0,-772.0
21.0,-101.0,-214.0,-1293.0,210.0,133.0,73.0,-433.0,-772.0
24.0,-91.0,-202.0,-1406.0,213.0,153.0,90.0,-392.0,-752.0
24.0,-83.0,-198.0,-1495.0,220.0,166.0,84.0,-360.0,-723.0
20.0,-82.0,-189.0,-1524.0,229.0,169.0,94.0,-351.0,-695.0
21.0,-80.0,-181.0,-1509.0,238.0,164.0,86.0,-334.0,-661.0
21.0,-84.0,-177.0,-1448.0,238.0,153.0,83.0,-335.0,-632.0
18.0,-86.0,-178.0,-1348.0,234.0,139.0,69.0,-339.0,-616.0
20.0,-87.0,-172.0,-1207.0,226.0,125.0,72.0,-338.0,-605.0
25.0,-86.0,-171.0,-1051.0,217.0,105.0,75.0,-333.0,-610.0
23.0,-76.0,-170.0,-900.0,209.0,84.0,77.0,-312.0,-611.0
24.0,-71.0,-172.0,-762.0,205.0,54.0,94.0,-296.0,-604.0
23.0,-64.0,-167.0,-653.0,196.0,21.0,89.0,-270.0,-595.0
21.0,-58.0,-161.0,-572.0,182.0,-26.0,82.0,-247.0,-583.0
15.0,-53.0,-161.0,-519.0,158.0,-60.0,69.0,-234.0,-562.0
15.0,-49.0,-153.0,-502.0,140.0,-94.0,59.0,-210.0,-533.0
10.0,-39.0,-147.0,-512.0,121.0,-128.0,44.0,-192.0,-510.0
4.0,-34.0,-134.0,-545.0,101.0,-159.0,27.0,-172.0,-472.0
0.0,-33.0,-126.0,-593.0,85.0,-179.0,12.0,-158.0,-422.0
-5.0,-30.0,-111.0,-648.0,73.0,-191.0,-26.0,-154.0,-380.0
-16.0,-32.0,-99.0,-713.0,60.0,-191.0,-44.0,-164.0,-334.0
-18.0,-35.0,-92.0,-791.0,49.0,-182.0,-82.0,-183.0,-289.0
-22.0,-43.0,-88.0,-880.0,38.0,-162.0,-97.0,-202.0,-270.0
-21.0,-46.0,-83.0,-983.0,25.0,-144.0,-82.0,-219.0,-258.0
-17.0,-50.0,-84.0,-1096.0,12.0,-121.0,-70.0,-244.0,-262.0
-9.0,-55.0,-93.0,-1218.0,-10.0,-106.0,-37.0,-254.0,-278.0
-5.0,-51.0,-100.0,-1386.0,-24.0,-94.0,-5.0,-256.0,-323.0
4.0,-52.0,-115.0,-1543.0,-41.0,-86.0,15.0,-249.0,-376.0
12.0,-46.0,-134.0,-1720.0,-55.0,-77.0,44.0,-233.0,-445.0
19.0,-43.0,-156.0,-1919.0,-68.0,-74.0,67.0,-217.0,-526.0
19.0,-37.0,-175.0,-2133.0,-77.0,-73.0,76.0,-197.0,-607.0
26.0,-31.0,-190.0,-2343.0,-84.0,-77.0,100.0,-189.0,-673.0
28.0,-33.0,-197.0,-2528.0,-87.0,-84.0,110.0,-188.0,-707.0
28.0,-43.0,-199.0,-2665.0,-94.0,-105.0,101.0,-204.0,-720.0
19.0,-49.0,-192.0,-2744.0,-100.0,-129.0,68.0,-222.0,-694.0
7.0,-60.0,-183.0,-2761.0,-113.0,-163.0,27.0,-248.0,-660.0
1.0,-69.0,-173.0,-2724.0,-133.0,-204.0,-3.0,-287.0,-613.0
-7.0,-78.0,-166.0,-2627.0,-152.0,-241.0,-24.0,-319.0,-578.0
-10.0,-90.0,-160.0,-2528.0,-169.0,-271.0,-34.0,-355.0,-546.0
-10.0,-98.0,-157.0,-2426.0,-184.0,-307.0,-31.0,-394.0,-526.0
-1.0,-111.0,-155.0,-2328.0,-190.0,-350.0,-9.0,-437.0,-525.0
4.0,-117.0,-161.0,-2243.0,-184.0,-399.0,16.0,-475.0,-546.0
15.0,-127.0,-166.0,-2186.0,-169.0,-448.0,49.0,-507.0,-585.0
23.0,-130.0,-175.0,-2152.0,-140.0,-497.0,72.0,-529.0,-615.0
35.0,-132.0,-185.0,-2140.0,-98.0,-541.0,110.0,-547.0,-662.0
42.0,-136.0,-199.0,-2146.0,-48.0,-585.0,146.0,-560.0,-715.0
48.0,-139.0,-216.0,-2177.0,18.0,-614.0,176.0,-588.0,-783.0
52.0,-141.0,-224.0,-2227.0,101.0,-645.0,192.0,-604.0,-821.0
53.0,-148.0,-232.0,-2305.0,165.0,-658.0,204.0,-641.0,-839.0
58.0,-164.0,-232.0,-2381.0,206.0,-658.0,211.0,-675.0,-859.0
52.0,-173.0,-237.0,-2460.0,219.0,-646.0,207.0,-716.0,-867.0
49.0,-185.0,-240.0,-2548.0,200.0,-626.0,191.0,-763.0,-864.0
46.0,-199.0,-237.0,-2643.0,153.0,-579.0,186.0,-819.0,-868.0
46.0,-217.0,-234.0,-2753.0,81.0,-503.0,187.0,-873.0,-864.0
45.0,-237.0,-235.0,-2884.0,-3.0,-409.0,169.0,-945.0,-870.0
42.0,-247.0,-241.0,-3045.0,-86.0,-305.0,161.0,-1034.0,-886.0
42.0,-268.0,-243.0,-3222.0,-158.0,-208.0,159.0,-1100.0,-874.0
40.0,-279.0,-248.0,-3396.0,-217.0,-135.0,137.0,-1148.0,-915.0
32.0,-269.0,-251.0,-3562.0,-238.0,-82.0,107.0,-1107.0,-934.0
24.0,-246.0,-254.0,-3708.0,-240.0,-96.0,74.0,-1016.0,-934.0
21.0,-222.0,-256.0,-3775.0,-210.0,-139.0,54.0,-882.0,-959.0
23.0,-212.0,-256.0,-3764.0,-159.0,-193.0,68.0,-851.0,-972.0
17.0,-208.0,-257.0,-3636.0,-123.0,-220.0,70.0,-811.0,-1003.0
32.0,-219.0,-262.0,-3377.0,-111.0,-209.0,112.0,-828.0,-989.0
42.0,-235.0,-266.0,-3026.0,-68.0,-215.0,129.0,-877.0,-1011.0
56.0,-217.0,-268.0,-2639.0,-22.0,-252.0,201.0,-800.0,-954.0
51.0,-199.0,-270.0,-2228.0,-6.0,-250.0,208.0,-742.0,-985.0
55.0,-186.0,-243.0,-1844.0,-23.0,-266.0,223.0,-721.0,-900.0
76.0,-164.0,-213.0,-1479.0,-40.0,-260.0,290.0,-632.0,-865.0
78.0,-122.0,-203.0,-1163.0,-83.0,-222.0,280.0,-597.0,-834.0
68.0,-107.0,-193.0,-912.0,-113.0,-191.0,288.0,-458.0,-772.0
78.0,-78.0,-198.0,-849.0,-128.0,-134.0,312.0,-380.0,-765.0
78.0,-44.0,-201.0,-929.0,-112.0,-91.0,276.0,-247.0,-726.0
63.0,-29.0,-205.0,-1114.0,-93.0,-36.0,220.0,-208.0,-723.0
36.0,-12.0,-194.0,-1394.0,-80.0,-19.0,147.0,-157.0,-703.0
46.0,-11.0,-226.0,-1761.0,-85.0,0.0,181.0,-123.0,-757.0
51.0,6.0,-213.0,-2129.0,-94.0,-2.0,209.0,-44.0,-820.0
51.0,11.0,-232.0,-2414.0,-56.0,-61.0,159.0,-29.0,-832.0
66.0,18.0,-238.0,-2633.0,-7.0,-75.0,242.0,-22.0,-893.0
59.0,12.0,-240.0,-2785.0,38.0,-62.0,219.0,-11.0,-882.0
58.0,14.0,-251.0,-2861.0,81.0,-19.0,209.0,3.0,-912.0
41.0,-12.0,-243.0,-2931.0,90.0,55.0,178.0,-49.0,-907.0
29.0,-22.0,-260.0,-2874.0,10.0,136.0,125.0,-104.0,-995.0
45.0,-4.0,-267.0,-2859.0,-33.0,155.0,158.0,-67.0,-1017.0
49.0,-12.0,-256.0,-2940.0,-14.0,276.0,229.0,-114.0,-1004.0
47.0,-34.0,-263.0,-3133.0,0.0,318.0,173.0,-86.0,-912.0
73.0,10.0,-264.0,-3364.0,-33.0,311.0,168.0,-5.0,-989.0
44.0,-15.0,-266.0,-3410.0,-63.0,395.0,154.0,-75.0,-999.0
67.0,-21.0,-264.0,-3300.0,-89.0,393.0,256.0,-119.0,-965.0
34.0,-6.0,-279.0,-3113.0,-57.0,437.0,138.0,-12.0,-1022.0
38.0,-13.0,-267.0,-2872.0,-67.0,429.0,163.0,-73.0,-1033.0
42.0,-7.0,-273.0,-2671.0,-83.0,364.0,161.0,-75.0,-1028.0
16.0,-29.0,-263.0,-2489.0,-94.0,299.0,75.0,-107.0,-1025.0
32.0,-33.0,-281.0,-2396.0,-125.0,281.0,56.0,-184.0,-1039.0
28.0,-23.0,-274.0,-2368.0,-120.0,359.0,95.0,-35.0,-1078.0
16.0,-2.0,-295.0,-2315.0,-152.0,383.0,36.0,0.0,-1091.0
0.0,33.0,-294.0,-2225.0,-153.0,386.0,-14.0,152.0,-1122.0
-10.0,52.0,-298.0,-2048.0,-126.0,342.0,-50.0,182.0,-1112.0
-4.0,58.0,-292.0,-1805.0,-47.0,324.0,-5.0,226.0,-1109.0
13.0,59.0,-307.0,-1566.0,23.0,312.0,-19.0,177.0,-1160.0
-3.0,60.0,-302.0,-1397.0,77.0,287.0,16.0,203.0,-1136.0
16.0,76.0,-309.0,-1256.0,99.0,287.0,41.0,274.0,-1141.0
22.0,70.0,-300.0,-1090.0,121.0,279.0,35.0,255.0,-1143.0
26.0,63.0,-307.0,-889.0,137.0,269.0,107.0,209.0,-1148.0
26.0,42.0,-280.0,-769.0,155.0,279.0,80.0,139.0,-1124.0
12.0,59.0,-313.0,-676.0,115.0,250.0,39.0,177.0,-1230.0
8.0,33.0,-317.0,-610.0,102.0,263.0,8.0,106.0,-1220.0
-8.0,31.0,-316.0,-498.0,92.0,246.0,-43.0,118.0,-1199.0
-11.0,25.0,-317.0,-377.0,74.0,204.0,-50.0,78.0,-1231.0
1.0,32.0,-334.0,-242.0,24.0,154.0,37.0,78.0,-1292.0
-5.0,28.0,-336.0,-150.0,15.0,144.0,-30.0,-20.0,-1175.0
-6.0,36.0,-329.0,-37.0,-15.0,151.0,-15.0,129.0,-1224.0
-2.0,34.0,-318.0,109.0,-45.0,180.0,12.0,115.0,-1206.0
6.0,35.0,-299.0,257.0,-84.0,195.0,71.0,117.0,-1119.0
11.0,49.0,-289.0,378.0,-126.0,214.0,49.0,160.0,-1103.0
15.0,60.0,-301.0,424.0,-170.0,205.0,43.0,234.0,-1117.0
1.0,72.0,-287.0,443.0,-164.0,215.0,44.0,252.0,-1087.0
28.0,69.0,-301.0,481.0,-161.0,237.0,101.0,245.0,-1114.0
22.0,72.0,-301.0,522.0,-143.0,260.0,87.0,249.0,-1123.0
10.0,82.0,-297.0,575.0,-117.0,269.0,60.0,283.0,-1155.0
8.0,74.0,-307.0,633.0,-104.0,291.0,42.0,264.0,-1203.0
35.0,55.0,-328.0,711.0,-106.0,307.0,128.0,211.0,-1266.0
36.0,60.0,-337.0,804.0,-104.0,326.0,133.0,230.0,-1295.0
36.0,58.0,-340.0,900.0,-101.0,343.0,131.0,213.0,-1290.0
38.0,50.0,-338.0,1002.0,-106.0,373.0,151.0,187.0,-1285.0
41.0,62.0,-325.0,1090.0,-112.0,392.0,138.0,197.0,-1271.0
45.0,54.0,-331.0,1175.0,-122.0,408.0,138.0,169.0,-1258.0
41.0,52.0,-330.0,1235.0,-121.0,407.0,143.0,185.0,-1270.0
40.0,56.0,-324.0,1298.0,-115.0,406.0,147.0,182.0,-1232.0
37.0,51.0,-319.0,1343.0,-107.0,399.0,141.0,165.0,-1216.0
37.0,48.0,-312.0,1390.0,-95.0,390.0,142.0,158.0,-1205.0
34.0,46.0,-310.0,1439.0,-89.0,382.0,127.0,144.0,-1190.0
36.0,49.0,-309.0,1474.0,-86.0,377.0,130.0,148.0,-1160.0
35.0,45.0,-310.0,1493.0,-89.0,368.0,122.0,141.0,-1179.0
31.0,43.0,-313.0,1522.0,-85.0,355.0,117.0,144.0,-1182.0
33.0,41.0,-309.0,1553.0,-82.0,336.0,125.0,132.0,-1190.0
30.0,41.0,-313.0,1574.0,-77.0,314.0,111.0,134.0,-1197.0
32.0,44.0,-308.0,1599.0,-71.0,290.0,106.0,133.0,-1195.0
26.0,40.0,-310.0,1615.0,-63.0,268.0,100.0,128.0,-1181.0
23.0,40.0,-308.0,1625.0,-58.0,242.0,93.0,118.0,-1158.0
23.0,36.0,-306.0,1626.0,-56.0,221.0,82.0,110.0,-1156.0
22.0,33.0,-307.0,1628.0,-55.0,195.0,87.0,95.0,-1153.0
23.0,32.0,-306.0,1625.0,-53.0,179.0,84.0,89.0,-1159.0
27.0,30.0,-307.0,1621.0,-54.0,158.0,99.0,76.0,-1158.0
30.0,27.0,-306.0,1615.0,-53.0,141.0,109.0,73.0,-1156.0
33.0,26.0,-307.0,1608.0,-53.0,123.0,114.0,69.0,-1155.0
34.0,23.0,-306.0,1601.0,-50.0,112.0,122.0,54.0,-1147.0
31.0,18.0,-303.0,1594.0,-45.0,101.0,126.0,42.0,-1143.0
31.0,17.0,-301.0,1588.0,-38.0,101.0,125.0,29.0,-1131.0
28.0,8.0,-300.0,1589.0,-28.0,102.0,112.0,10.0,-1121.0
32.0,5.0,-298.0,1595.0,-15.0,110.0,113.0,-7.0,-1113.0
31.0,-2.0,-293.0,1607.0,-2.0,114.0,105.0,-36.0,-1096.0
29.0,-4.0,-285.0,1624.0,13.0,125.0,110.0,-61.0,-1077.0
32.0,-13.0,-279.0,1648.0,25.0,130.0,108.0,-82.0,-1056.0
30.0,-17.0,-271.0,1670.0,32.0,141.0,116.0,-97.0,-1024.0
33.0,-18.0,-272.0,1687.0,39.0,149.0,122.0,-108.0,-1007.0
33.0,-23.0,-263.0,1700.0,44.0,161.0,122.0,-124.0,-993.0
33.0,-30.0,-260.0,1705.0,48.0,165.0,126.0,-151.0,-970.0
33.0,-68.0,-254.0,1703.0,48.0,173.0,119.0,-254.0,-953.0
38.0,-68.0,-267.0,1642.0,46.0,185.0,141.0,-307.0,-993.0
57.0,-54.0,-274.0,1545.0,62.0,202.0,221.0,-255.0,-1027.0
30.0,-86.0,-277.0,1488.0,81.0,197.0,115.0,-380.0,-1040.0
10.0,-127.0,-289.0,1440.0,73.0,204.0,42.0,-524.0,-1082.0
7.0,-155.0,-324.0,1399.0,39.0,224.0,13.0,-647.0,-1213.0
16.0,-165.0,-381.0,1382.0,17.0,251.0,36.0,-671.0,-1414.0
33.0,-192.0,-449.0,1388.0,32.0,257.0,89.0,-757.0,-1657.0
46.0,-218.0,-547.0,1394.0,105.0,236.0,126.0,-887.0,-2103.0
51.0,-200.0,-614.0,1356.0,201.0,192.0,188.0,-812.0,-2463.0
73.0,-134.0,-652.0,1250.0,291.0,140.0,257.0,-553.0,-2590.0
77.0,-66.0,-627.0,1123.0,360.0,54.0,273.0,-292.0,-2466.0
66.0,-7.0,-562.0,1061.0,390.0,-26.0,241.0,-64.0,-2220.0
61.0,30.0,-491.0,1115.0,388.0,-84.0,239.0,72.0,-1945.0
59.0,58.0,-432.0,1187.0,346.0,-108.0,224.0,171.0,-1709.0
66.0,56.0,-369.0,1248.0,263.0,-96.0,267.0,192.0,-1475.0
62.0,47.0,-311.0,1340.0,139.0,-70.0,255.0,177.0,-1231.0
47.0,44.0,-264.0,1507.0,-9.0,-25.0,201.0,150.0,-1001.0
18.0,28.0,-206.0,1739.0,-132.0,50.0,82.0,102.0,-765.0
14.0,15.0,-160.0,1979.0,-214.0,93.0,40.0,63.0,-579.0
-6.0,9.0,-125.0,2164.0,-246.0,132.0,-11.0,18.0,-417.0
-5.0,1.0,-100.0,2254.0,-240.0,170.0,-53.0,3.0,-297.0
-17.0,0.0,-86.0,2257.0,-183.0,263.0,-86.0,-31.0,-256.0
-22.0,6.0,-89.0,2201.0,-123.0,304.0,-94.0,-21.0,-289.0
-25.0,8.0,-111.0,2055.0,-69.0,316.0,-106.0,-26.0,-353.0
-23.0,-8.0,-124.0,1829.0,-23.0,311.0,-101.0,-112.0,-439.0
-19.0,-33.0,-149.0,1555.0,15.0,284.0,-85.0,-202.0,-534.0
-16.0,-54.0,-179.0,1256.0,53.0,225.0,-92.0,-273.0,-635.0
-18.0,-74.0,-194.0,948.0,98.0,163.0,-86.0,-353.0,-704.0
-16.0,-97.0,-214.0,670.0,133.0,101.0,-79.0,-424.0,-773.0
-15.0,-108.0,-221.0,430.0,159.0,41.0,-60.0,-463.0,-829.0
-10.0,-119.0,-239.0,244.0,171.0,-9.0,-53.0,-501.0,-859.0
-10.0,-128.0,-244.0,107.0,167.0,-47.0,-44.0,-528.0,-893.0
-5.0,-133.0,-247.0,20.0,150.0,-88.0,-23.0,-546.0,-918.0
-9.0,-140.0,-246.0,-10.0,120.0,-100.0,-23.0,-569.0,-918.0
-7.0,-147.0,-246.0,24.0,80.0,-118.0,-17.0,-593.0,-928.0
0.0,-153.0,-245.0,107.0,32.0,-132.0,-8.0,-602.0,-916.0
4.0,-159.0,-244.0,241.0,-22.0,-146.0,10.0,-609.0,-906.0
12.0,-158.0,-239.0,415.0,-62.0,-154.0,31.0,-626.0,-886.0
13.0,-160.0,-236.0,603.0,-77.0,-146.0,43.0,-636.0,-875.0
14.0,-163.0,-234.0,787.0,-85.0,-137.0,37.0,-644.0,-861.0
15.0,-164.0,-228.0,960.0,-93.0,-144.0,62.0,-645.0,-852.0
24.0,-159.0,-227.0,1110.0,-90.0,-149.0,80.0,-645.0,-834.0
23.0,-160.0,-228.0,1228.0,-80.0,-139.0,76.0,-650.0,-841.0
24.0,-162.0,-223.0,1318.0,-69.0,-119.0,81.0,-657.0,-827.0
27.0,-163.0,-224.0,1391.0,-64.0,-108.0,75.0,-670.0,-826.0
25.0,-166.0,-222.0,1428.0,-56.0,-76.0,91.0,-680.0,-818.0
23.0,-172.0,-220.0,1451.0,-49.0,-47.0,76.0,-687.0,-813.0
23.0,-172.0,-220.0,1466.0,-50.0,-16.0,81.0,-694.0,-811.0
26.0,-170.0,-219.0,1472.0,-45.0,15.0,71.0,-688.0,-785.0
18.0,-165.0,-213.0,1471.0,-46.0,42.0,59.0,-668.0,-779.0
16.0,-157.0,-214.0,1473.0,-53.0,54.0,57.0,-647.0,-770.0
26.0,-164.0,-243.0,1497.0,-50.0,67.0,97.0,-676.0,-733.0
9.0,-153.0,-201.0,1523.0,-47.0,70.0,44.0,-599.0,-731.0
19.0,-146.0,-196.0,1533.0,-71.0,58.0,63.0,-595.0,-723.0
11.0,-137.0,-197.0,1555.0,-83.0,34.0,48.0,-571.0,-719.0
21.0,-139.0,-196.0,1579.0,-106.0,8.0,65.0,-568.0,-705.0
17.0,-137.0,-191.0,1592.0,-110.0,-18.0,60.0,-560.0,-692.0
20.0,-134.0,-187.0,1589.0,-116.0,-35.0,76.0,-551.0,-682.0
18.0,-133.0,-183.0,1580.0,-123.0,-58.0,61.0,-549.0,-669.0
22.0,-133.0,-187.0,1564.0,-128.0,-70.0,67.0,-538.0,-669.0
16.0,-131.0,-183.0,1538.0,-133.0,-80.0,66.0,-538.0,-654.0
14.0,-131.0,-187.0,1495.0,-135.0,-82.0,49.0,-548.0,-663.0
14.0,-134.0,-188.0,1436.0,-138.0,-84.0,53.0,-569.0,-665.0
17.0,-140.0,-189.0,1366.0,-137.0,-85.0,60.0,-587.0,-676.0
15.0,-146.0,-186.0,1287.0,-129.0,-80.0,51.0,-607.0,-683.0
17.0,-151.0,-190.0,1203.0,-126.0,-76.0,54.0,-625.0,-678.0
21.0,-153.0,-191.0,1107.0,-115.0,-75.0,60.0,-637.0,-701.0
18.0,-153.0,-199.0,1034.0,-106.0,-72.0,71.0,-640.0,-710.0
23.0,-160.0,-198.0,979.0,-93.0,-70.0,66.0,-649.0,-720.0
24.0,-158.0,-206.0,937.0,-75.0,-66.0,77.0,-654.0,-731.0
21.0,-162.0,-200.0,909.0,-57.0,-68.0,83.0,-665.0,-739.0
23.0,-165.0,-203.0,890.0,-44.0,-68.0,82.0,-675.0,-746.0
24.0,-167.0,-207.0,881.0,-37.0,-76.0,81.0,-681.0,-745.0
22.0,-167.0,-206.0,883.0,-33.0,-79.0,76.0,-689.0,-752.0
22.0,-167.0,-209.0,892.0,-31.0,-81.0,75.0,-685.0,-748.0
19.0,-166.0,-209.0,897.0,-38.0,-82.0,64.0,-680.0,-753.0
19.0,-170.0,-207.0,905.0,-41.0,-80.0,66.0,-686.0,-751.0
20.0,-169.0,-207.0,912.0,-43.0,-69.0,61.0,-692.0,-750.0
17.0,-172.0,-206.0,907.0,-52.0,-71.0,65.0,-697.0,-736.0
18.0,-173.0,-198.0,898.0,-54.0,-67.0,73.0,-709.0,-724.0
17.0,-175.0,-199.0,883.0,-56.0,-59.0,73.0,-716.0,-721.0
23.0,-178.0,-193.0,862.0,-62.0,-47.0,73.0,-718.0,-707.0
20.0,-174.0,-193.0,840.0,-67.0,-35.0,70.0,-717.0,-700.0
26.0,-176.0,-195.0,815.0,-69.0,-20.0,79.0,-710.0,-696.0
25.0,-176.0,-190.0,787.0,-60.0,-2.0,82.0,-712.0,-687.0
24.0,-171.0,-185.0,753.0,-48.0,17.0,79.0,-706.0,-680.0
22.0,-178.0,-183.0,719.0,-38.0,35.0,72.0,-707.0,-663.0
26.0,-176.0,-181.0,693.0,-29.0,55.0,78.0,-699.0,-655.0
24.0,-172.0,-178.0,671.0,-13.0,69.0,75.0,-699.0,-650.0
21.0,-172.0,-179.0,657.0,-2.0,85.0,72.0,-695.0,-634.0
22.0,-172.0,-177.0,642.0,6.0,100.0,62.0,-690.0,-629.0
20.0,-174.0,-174.0,617.0,12.0,117.0,62.0,-690.0,-616.0
15.0,-176.0,-170.0,588.0,15.0,136.0,56.0,-718.0,-604.0
14.0,-184.0,-166.0,559.0,15.0,152.0,46.0,-736.0,-580.0
15.0,-190.0,-161.0,528.0,10.0,167.0,42.0,-749.0,-570.0
8.0,-189.0,-160.0,495.0,4.0,178.0,35.0,-761.0,-566.0
11.0,-189.0,-159.0,462.0,-4.0,188.0,27.0,-770.0,-559.0
11.0,-189.0,-166.0,424.0,-11.0,190.0,34.0,-762.0,-570.0
15.0,-187.0,-165.0,385.0,-15.0,192.0,41.0,-749.0,-576.0
16.0,-188.0,-164.0,362.0,-15.0,191.0,46.0,-749.0,-578.0
17.0,-184.0,-163.0,349.0,-11.0,189.0,55.0,-735.0,-586.0
22.0,-185.0,-166.0,347.0,-4.0,187.0,67.0,-739.0,-577.0
21.0,-186.0,-165.0,344.0,10.0,181.0,79.0,-740.0,-590.0
23.0,-184.0,-161.0,335.0,30.0,176.0,75.0,-742.0,-582.0
22.0,-184.0,-171.0,317.0,48.0,171.0,80.0,-752.0,-599.0
21.0,-186.0,-169.0,291.0,66.0,160.0,76.0,-749.0,-604.0
18.0,-184.0,-174.0,256.0,87.0,150.0,68.0,-746.0,-618.0
23.0,-188.0,-175.0,212.0,110.0,145.0,74.0,-759.0,-624.0
19.0,-188.0,-178.0,161.0,131.0,140.0,67.0,-756.0,-629.0
19.0,-186.0,-179.0,114.0,152.0,136.0,61.0,-743.0,-646.0
17.0,-182.0,-182.0,70.0,176.0,131.0,58.0,-731.0,-658.0
19.0,-181.0,-184.0,34.0,196.0,128.0,55.0,-722.0,-660.0
16.0,-180.0,-185.0,17.0,212.0,127.0,49.0,-715.0,-671.0
13.0,-178.0,-191.0,7.0,227.0,127.0,36.0,-717.0,-663.0
11.0,-178.0,-187.0,2.0,238.0,126.0,29.0,-714.0,-670.0
12.0,-179.0,-189.0,2.0,245.0,127.0,26.0,-718.0,-671.0
8.0,-181.0,-187.0,2.0,247.0,125.0,20.0,-725.0,-667.0
7.0,-184.0,-181.0,2.0,243.0,124.0,20.0,-738.0,-663.0
8.0,-190.0,-183.0,4.0,232.0,122.0,16.0,-747.0,-671.0
5.0,-188.0,-184.0,10.0,218.0,117.0,13.0,-746.0,-660.0
2.0,-186.0,-182.0,21.0,198.0,116.0,5.0,-752.0,-661.0
2.0,-182.0,-186.0,37.0,174.0,110.0,6.0,-740.0,-666.0
4.0,-186.0,-185.0,60.0,151.0,106.0,0.0,-735.0,-665.0
0.0,-182.0,-183.0,81.0,127.0,105.0,3.0,-728.0,-663.0
0.0,-182.0,-184.0,103.0,105.0,101.0,0.0,-726.0,-654.0
1.0,-182.0,-181.0,121.0,83.0,97.0,-9.0,-730.0,-648.0
1.0,-184.0,-176.0,133.0,62.0,93.0,-15.0,-732.0,-631.0
-2.0,-185.0,-177.0,137.0,41.0,88.0,-8.0,-739.0,-626.0
0.0,-185.0,-168.0,132.0,25.0,84.0,-3.0,-742.0,-614.0
2.0,-190.0,-173.0,121.0,14.0,80.0,-9.0,-757.0,-605.0
-4.0,-190.0,-174.0,103.0,5.0,74.0,-10.0,-767.0,-601.0
-1.0,-192.0,-171.0,83.0,0.0,67.0,-8.0,-770.0,-598.0
2.0,-191.0,-166.0,62.0,-2.0,59.0,-2.0,-770.0,-595.0
6.0,-196.0,-168.0,43.0,1.0,51.0,3.0,-784.0,-587.0
3.0,-194.0,-168.0,31.0,12.0,44.0,12.0,-789.0,-598.0
7.0,-195.0,-168.0,18.0,20.0,33.0,14.0,-788.0,-600.0
10.0,-192.0,-170.0,8.0,33.0,25.0,22.0,-780.0,-602.0
10.0,-193.0,-173.0,1.0,45.0,16.0,34.0,-773.0,-609.0
11.0,-192.0,-174.0,-5.0,56.0,10.0,38.0,-769.0,-607.0
13.0,-191.0,-175.0,-10.0,66.0,5.0,38.0,-758.0,-616.0
8.0,-188.0,-177.0,-15.0,78.0,5.0,34.0,-756.0,-618.0
11.0,-187.0,-173.0,-20.0,89.0,2.0,39.0,-750.0,-613.0
13.0,-188.0,-173.0,-20.0,97.0,0.0,33.0,-748.0,-614.0
11.0,-188.0,-173.0,-20.0,103.0,-4.0,35.0,-754.0,-617.0
13.0,-189.0,-176.0,-27.0,100.0,0.0,36.0,-751.0,-628.0
10.0,-190.0,-173.0,-32.0,91.0,6.0,26.0,-756.0,-625.0
11.0,-191.0,-174.0,-34.0,83.0,11.0,25.0,-759.0,-627.0
12.0,-189.0,-176.0,-34.0,74.0,16.0,25.0,-753.0,-628.0
10.0,-191.0,-176.0,-34.0,64.0,21.0,25.0,-752.0,-626.0
7.0,-188.0,-177.0,-35.0,57.0,22.0,22.0,-748.0,-622.0
8.0,-188.0,-168.0,-36.0,49.0,23.0,22.0,-747.0,-620.0
8.0,-188.0,-173.0,-37.0,43.0,21.0,25.0,-747.0,-612.0
11.0,-188.0,-172.0,-35.0,36.0,17.0,23.0,-755.0,-605.0
8.0,-192.0,-171.0,-32.0,31.0,10.0,22.0,-755.0,-604.0
6.0,-189.0,-167.0,-26.0,23.0,2.0,24.0,-757.0,-596.0
9.0,-189.0,-173.0,-17.0,14.0,-2.0,21.0,-759.0,-600.0
9.0,-188.0,-170.0,-14.0,9.0,-6.0,21.0,-748.0,-603.0
7.0,-189.0,-172.0,-16.0,8.0,-12.0,18.0,-751.0,-606.0
8.0,-188.0,-173.0,-26.0,7.0,-16.0,21.0,-755.0,-610.0
9.0,-188.0,-173.0,-41.0,6.0,-21.0,25.0,-755.0,-611.0
7.0,-192.0,-173.0,-57.0,5.0,-23.0,28.0,-764.0,-615.0
12.0,-195.0,-178.0,-70.0,7.0,-30.0,27.0,-771.0,-615.0
10.0,-194.0,-175.0,-77.0,9.0,-33.0,33.0,-771.0,-619.0
11.0,-195.0,-177.0,-76.0,12.0,-36.0,31.0,-763.0,-632.0
10.0,-188.0,-177.0,-68.0,13.0,-36.0,33.0,-763.0,-644.0
16.0,-189.0,-183.0,-57.0,16.0,-35.0,43.0,-763.0,-651.0
12.0,-191.0,-179.0,-46.0,18.0,-32.0,30.0,-755.0,-641.0
10.0,-192.0,-181.0,-33.0,20.0,-31.0,31.0,-756.0,-650.0
11.0,-189.0,-184.0,-18.0,25.0,-26.0,35.0,-752.0,-651.0
12.0,-190.0,-182.0,-4.0,32.0,-24.0,34.0,-746.0,-652.0
11.0,-188.0,-181.0,4.0,42.0,-21.0,32.0,-746.0,-659.0
10.0,-185.0,-186.0,9.0,51.0,-20.0,28.0,-744.0,-660.0
7.0,-185.0,-182.0,13.0,60.0,-14.0,24.0,-744.0,-659.0
7.0,-189.0,-183.0,8.0,68.0,-11.0,25.0,-744.0,-658.0
9.0,-186.0,-181.0,7.0,72.0,-4.0,25.0,-748.0,-653.0
12.0,-188.0,-184.0,4.0,75.0,-1.0,17.0,-751.0,-653.0
6.0,-188.0,-182.0,3.0,74.0,7.0,18.0,-744.0,-651.0
4.0,-185.0,-182.0,3.0,69.0,10.0,14.0,-743.0,-652.0
6.0,-186.0,-180.0,2.0,61.0,14.0,13.0,-748.0,-652.0
7.0,-189.0,-179.0,1.0,53.0,17.0,18.0,-749.0,-642.0
7.0,-188.0,-177.0,-3.0,47.0,22.0,17.0,-747.0,-639.0
7.0,-186.0,-179.0,-8.0,41.0,23.0,9.0,-750.0,-642.0
6.0,-192.0,-180.0,-9.0,35.0,29.0,14.0,-748.0,-641.0
6.0,-188.0,-178.0,-9.0,31.0,29.0,16.0,-747.0,-632.0
7.0,-186.0,-178.0,-7.0,28.0,31.0,15.0,-750.0,-640.0
6.0,-187.0,-180.0,-8.0,24.0,27.0,15.0,-748.0,-633.0
6.0,-190.0,-177.0,-9.0,19.0,27.0,16.0,-752.0,-642.0
10.0,-190.0,-178.0,-11.0,16.0,25.0,18.0,-746.0,-638.0
9.0,-189.0,-178.0,-12.0,15.0,24.0,18.0,-752.0,-635.0
8.0,-193.0,-179.0,-14.0,19.0,20.0,16.0,-757.0,-637.0
8.0,-189.0,-179.0,-15.0,20.0,18.0,13.0,-752.0,-639.0
6.0,-187.0,-182.0,-16.0,28.0,14.0,9.0,-752.0,-639.0
6.0,-185.0,-181.0,-18.0,31.0,14.0,11.0,-752.0,-639.0
4.0,-185.0,-183.0,-19.0,36.0,13.0,16.0,-749.0,-639.0
4.0,-185.0,-179.0,-22.0,45.0,20.0,6.0,-749.0,-639.0
5.0,-189.0,-182.0,-26.0,50.0,24.0,9.0,-749.0,-643.0
2.0,-184.0,-182.0,-30.0,56.0,32.0,8.0,-746.0,-643.0
6.0,-186.0,-183.0,-39.0,61.0,39.0,10.0,-744.0,-647.0
7.0,-185.0,-181.0,-46.0,65.0,49.0,13.0,-749.0,-652.0
4.0,-192.0,-181.0,-54.0,72.0,56.0,17.0,-755.0,-642.0
5.0,-189.0,-181.0,-58.0,76.0,64.0,19.0,-760.0,-649.0
8.0,-192.0,-181.0,-58.0,79.0,67.0,21.0,-757.0,-653.0
8.0,-195.0,-181.0,-56.0,75.0,71.0,18.0,-764.0,-650.0
9.0,-192.0,-179.0,-50.0,74.0,70.0,20.0,-767.0,-644.0
9.0,-193.0,-182.0,-39.0,69.0,73.0,16.0,-761.0,-654.0
6.0,-193.0,-179.0,-27.0,63.0,70.0,20.0,-767.0,-648.0
9.0,-190.0,-178.0,-12.0,59.0,69.0,20.0,-761.0,-637.0
6.0,-189.0,-182.0,-3.0,59.0,63.0,12.0,-756.0,-635.0
6.0,-189.0,-175.0,2.0,61.0,60.0,11.0,-750.0,-629.0
2.0,-189.0,-176.0,6.0,60.0,52.0,2.0,-751.0,-633.0
5.0,-191.0,-178.0,12.0,63.0,40.0,6.0,-757.0,-630.0
5.0,-187.0,-173.0,19.0,68.0,31.0,6.0,-751.0,-625.0
8.0,-188.0,-174.0,22.0,77.0,26.0,9.0,-753.0,-622.0
4.0,-186.0,-174.0,20.0,88.0,20.0,9.0,-756.0,-616.0
5.0,-189.0,-178.0,15.0,97.0,21.0,4.0,-758.0,-624.0
4.0,-189.0,-176.0,8.0,102.0,21.0,7.0,-759.0,-629.0
5.0,-190.0,-182.0,1.0,103.0,26.0,12.0,-763.0,-633.0
7.0,-192.0,-178.0,-5.0,104.0,28.0,11.0,-765.0,-634.0
5.0,-193.0,-179.0,-9.0,106.0,37.0,11.0,-764.0,-640.0
4.0,-191.0,-178.0,-6.0,110.0,40.0,13.0,-758.0,-643.0
6.0,-189.0,-180.0,-2.0,114.0,47.0,8.0,-748.0,-640.0
1.0,-189.0,-180.0,7.0,115.0,55.0,7.0,-757.0,-638.0
7.0,-190.0,-180.0,18.0,111.0,60.0,11.0,-753.0,-634.0
6.0,-191.0,-177.0,17.0,109.0,62.0,10.0,-759.0,-633.0
6.0,-193.0,-176.0,12.0,107.0,67.0,13.0,-767.0,-625.0
6.0,-194.0,-175.0,7.0,106.0,62.0,12.0,-771.0,-631.0
9.0,-194.0,-176.0,-3.0,104.0,60.0,20.0,-771.0,-627.0
9.0,-191.0,-174.0,-9.0,107.0,50.0,25.0,-778.0,-624.0
11.0,-195.0,-174.0,-9.0,109.0,41.0,20.0,-784.0,-617.0
6.0,-194.0,-173.0,-12.0,106.0,27.0,12.0,-775.0,-606.0
5.0,-194.0,-167.0,-11.0,98.0,18.0,2.0,-781.0,-605.0
5.0,-196.0,-171.0,-10.0,93.0,10.0,5.0,-784.0,-599.0
7.0,-196.0,-168.0,-10.0,85.0,7.0,4.0,-791.0,-596.0
5.0,-194.0,-171.0,-6.0,81.0,-4.0,7.0,-795.0,-588.0
6.0,-198.0,-167.0,-4.0,80.0,-6.0,16.0,-797.0,-593.0
7.0,-196.0,-169.0,0.0,80.0,-15.0,22.0,-794.0,-584.0
4.0,-197.0,-166.0,-3.0,81.0,-14.0,8.0,-794.0,-594.0
4.0,-197.0,-165.0,-11.0,87.0,-20.0,9.0,-798.0,-595.0
4.0,-198.0,-165.0,-20.0,96.0,-20.0,7.0,-797.0,-589.0
1.0,-197.0,-169.0,-25.0,105.0,-22.0,2.0,-800.0,-591.0
-1.0,-196.0,-167.0,-28.0,113.0,-16.0,-1.0,-798.0,-584.0
2.0,-197.0,-169.0,-31.0,120.0,-13.0,-2.0,-797.0,-589.0
3.0,-196.0,-169.0,-35.0,124.0,-4.0,-14.0,-791.0,-597.0
-2.0,-197.0,-172.0,-38.0,122.0,0.0,-19.0,-787.0,-602.0
-6.0,-194.0,-174.0,-40.0,117.0,3.0,-21.0,-788.0,-610.0
-5.0,-192.0,-174.0,-42.0,110.0,4.0,-24.0,-784.0,-619.0
-7.0,-195.0,-180.0,-42.0,102.0,9.0,-31.0,-770.0,-624.0
-5.0,-193.0,-178.0,-41.0,93.0,9.0,-23.0,-766.0,-632.0
-5.0,-188.0,-181.0,-40.0,82.0,15.0,-26.0,-765.0,-643.0
-7.0,-190.0,-180.0,-39.0,75.0,20.0,-26.0,-758.0,-646.0
-3.0,-188.0,-182.0,-37.0,61.0,27.0,-15.0,-755.0,-656.0
0.0,-191.0,-183.0,-31.0,55.0,31.0,-14.0,-746.0,-660.0
2.0,-187.0,-183.0,-22.0,46.0,40.0,-5.0,-747.0,-659.0
2.0,-184.0,-181.0,-13.0,36.0,45.0,0.0,-737.0,-660.0
7.0,-182.0,-184.0,-2.0,26.0,55.0,7.0,-730.0,-663.0
8.0,-179.0,-180.0,8.0,22.0,56.0,9.0,-725.0,-664.0
13.0,-182.0,-184.0,17.0,21.0,59.0,28.0,-720.0,-665.0
12.0,-179.0,-184.0,28.0,25.0,58.0,38.0,-713.0,-660.0
12.0,-176.0,-182.0,35.0,29.0,58.0,43.0,-704.0,-661.0
16.0,-179.0,-184.0,40.0,34.0,50.0,52.0,-707.0,-660.0
16.0,-175.0,-184.0,42.0,41.0,48.0,52.0,-707.0,-666.0
16.0,-175.0,-185.0,39.0,46.0,38.0,55.0,-701.0,-659.0
16.0,-176.0,-182.0,34.0,50.0,34.0,56.0,-706.0,-657.0
16.0,-177.0,-185.0,27.0,56.0,26.0,56.0,-706.0,-656.0
16.0,-179.0,-184.0,16.0,61.0,25.0,43.0,-717.0,-654.0
13.0,-175.0,-181.0,2.0,65.0,20.0,46.0,-719.0,-655.0
11.0,-179.0,-180.0,-14.0,69.0,20.0,40.0,-724.0,-654.0
11.0,-182.0,-179.0,-28.0,74.0,17.0,38.0,-736.0,-651.0
12.0,-184.0,-176.0,-39.0,77.0,20.0,34.0,-742.0,-646.0
8.0,-187.0,-178.0,-46.0,78.0,19.0,35.0,-753.0,-637.0
11.0,-191.0,-178.0,-53.0,79.0,23.0,29.0,-759.0,-639.0
7.0,-190.0,-179.0,-58.0,78.0,21.0,22.0,-760.0,-633.0
6.0,-192.0,-175.0,-62.0,76.0,23.0,16.0,-758.0,-629.0
4.0,-189.0,-179.0,-61.0,74.0,20.0,13.0,-764.0,-630.0
5.0,-192.0,-176.0,-59.0,70.0,22.0,12.0,-763.0,-629.0
3.0,-192.0,-177.0,-55.0,65.0,20.0,8.0,-767.0,-622.0
5.0,-192.0,-175.0,-52.0,62.0,20.0,-1.0,-768.0,-614.0
5.0,-193.0,-173.0,-44.0,57.0,17.0,1.0,-766.0,-618.0
0.0,-187.0,-178.0,-35.0,54.0,18.0,-3.0,-765.0,-612.0
1.0,-189.0,-175.0,-25.0,53.0,15.0,0.0,-758.0,-612.0
-1.0,-189.0,-176.0,-19.0,52.0,16.0,1.0,-754.0,-619.0
2.0,-190.0,-177.0,-13.0,50.0,17.0,3.0,-755.0,-621.0
3.0,-188.0,-174.0,-10.0,51.0,21.0,-1.0,-754.0,-617.0
1.0,-188.0,-171.0,-10.0,55.0,20.0,-2.0,-750.0,-624.0
1.0,-189.0,-175.0,-9.0,58.0,25.0,4.0,-749.0,-627.0
3.0,-188.0,-174.0,-9.0,65.0,25.0,5.0,-754.0,-625.0
3.0,-189.0,-178.0,-13.0,71.0,28.0,1.0,-747.0,-633.0
4.0,-187.0,-174.0,-11.0,79.0,27.0,11.0,-750.0,-627.0
5.0,-190.0,-176.0,-10.0,85.0,29.0,10.0,-753.0,-630.0
6.0,-190.0,-177.0,-12.0,93.0,27.0,18.0,-754.0,-633.0
10.0,-190.0,-174.0,-13.0,99.0,30.0,15.0,-753.0,-629.0
8.0,-189.0,-180.0,-14.0,101.0,25.0,21.0,-762.0,-633.0
9.0,-190.0,-177.0,-16.0,102.0,25.0,24.0,-758.0,-631.0
10.0,-190.0,-180.0,-18.0,103.0,23.0,19.0,-759.0,-633.0
9.0,-194.0,-175.0,-15.0,103.0,25.0,20.0,-764.0,-640.0
9.0,-191.0,-180.0,-14.0,104.0,23.0,23.0,-767.0,-641.0
8.0,-191.0,-179.0,-10.0,103.0,27.0,25.0,-770.0,-644.0
8.0,-190.0,-177.0,-5.0,101.0,28.0,23.0,-771.0,-644.0
10.0,-194.0,-181.0,-2.0,99.0,31.0,20.0,-769.0,-644.0
6.0,-192.0,-181.0,8.0,95.0,29.0,17.0,-767.0,-634.0
5.0,-189.0,-178.0,16.0,92.0,32.0,11.0,-759.0,-641.0
5.0,-189.0,-179.0,22.0,90.0,31.0,13.0,-759.0,-633.0
4.0,-189.0,-176.0,29.0,88.0,31.0,9.0,-752.0,-638.0
7.0,-189.0,-177.0,35.0,84.0,28.0,7.0,-756.0,-633.0
2.0,-190.0,-179.0,40.0,82.0,31.0,5.0,-753.0,-630.0
3.0,-190.0,-177.0,40.0,80.0,29.0,4.0,-751.0,-626.0
2.0,-187.0,-173.0,37.0,77.0,31.0,4.0,-749.0,-620.0
2.0,-188.0,-177.0,33.0,74.0,28.0,7.0,-751.0,-623.0
2.0,-188.0,-173.0,28.0,71.0,28.0,3.0,-751.0,-618.0
3.0,-187.0,-178.0,23.0,68.0,23.0,5.0,-744.0,-623.0
5.0,-186.0,-178.0,12.0,65.0,26.0,5.0,-745.0,-618.0
6.0,-187.0,-174.0,1.0,64.0,23.0,4.0,-745.0,-622.0
4.0,-187.0,-177.0,-9.0,64.0,24.0,8.0,-745.0,-625.0
0.0,-188.0,-177.0,-17.0,63.0,24.0,8.0,-742.0,-628.0
4.0,-186.0,-174.0,-25.0,63.0,25.0,6.0,-746.0,-619.0
5.0,-189.0,-178.0,-30.0,63.0,22.0,8.0,-746.0,-623.0
6.0,-186.0,-176.0,-38.0,62.0,24.0,6.0,-745.0,-619.0
5.0,-190.0,-178.0,-46.0,63.0,22.0,4.0,-744.0,-623.0
4.0,-186.0,-178.0,-54.0,64.0,26.0,8.0,-745.0,-626.0
4.0,-190.0,-175.0,-58.0,65.0,23.0,4.0,-756.0,-628.0
4.0,-191.0,-179.0,-61.0,67.0,25.0,8.0,-757.0,-630.0
2.0,-191.0,-175.0,-64.0,69.0,20.0,4.0,-767.0,-630.0
2.0,-191.0,-180.0,-63.0,69.0,22.0,4.0,-767.0,-631.0
3.0,-194.0,-179.0,-62.0,72.0,17.0,1.0,-767.0,-637.0
4.0,-192.0,-177.0,-57.0,73.0,19.0,1.0,-776.0,-638.0
3.0,-191.0,-179.0,-54.0,72.0,15.0,1.0,-772.0,-638.0
4.0,-193.0,-181.0,-51.0,71.0,16.0,-1.0,-770.0,-638.0
5.0,-195.0,-178.0,-46.0,72.0,12.0,0.0,-764.0,-646.0
1.0,-190.0,-179.0,-40.0,71.0,13.0,0.0,-757.0,-649.0
2.0,-190.0,-180.0,-33.0,71.0,11.0,-2.0,-760.0,-644.0
-1.0,-191.0,-180.0,-26.0,71.0,13.0,-3.0,-759.0,-646.0
1.0,-189.0,-179.0,-18.0,74.0,10.0,-6.0,-759.0,-638.0
-1.0,-189.0,-180.0,-11.0,78.0,11.0,-7.0,-761.0,-632.0
-2.0,-188.0,-181.0,-8.0,80.0,9.0,-6.0,-760.0,-638.0
-1.0,-192.0,-180.0,-5.0,80.0,10.0,-6.0,-762.0,-629.0
1.0,-191.0,-178.0,-2.0,79.0,7.0,-7.0,-757.0,-635.0
-2.0,-189.0,-179.0,-1.0,80.0,7.0,-10.0,-759.0,-630.0
-1.0,-186.0,-174.0,0.0,78.0,4.0,-10.0,-752.0,-637.0
-1.0,-187.0,-177.0,0.0,75.0,5.0,-11.0,-745.0,-637.0
1.0,-190.0,-179.0,-3.0,73.0,0.0,-15.0,-743.0,-638.0
-2.0,-187.0,-179.0,-6.0,68.0,0.0,-12.0,-743.0,-630.0
-2.0,-186.0,-178.0,-9.0,66.0,-6.0,-9.0,-743.0,-627.0
-1.0,-188.0,-178.0,-13.0,64.0,-5.0,-15.0,-741.0,-628.0
-4.0,-184.0,-177.0,-17.0,63.0,-9.0,-10.0,-745.0,-628.0
0.0,-190.0,-173.0,-21.0,61.0,-9.0,-12.0,-749.0,-621.0
-3.0,-189.0,-177.0,-25.0,64.0,-11.0,-8.0,-751.0,-619.0
0.0,-193.0,-174.0,-26.0,65.0,-9.0,-6.0,-759.0,-620.0
3.0,-191.0,-176.0,-26.0,65.0,-12.0,-6.0,-757.0,-617.0
-1.0,-188.0,-175.0,-28.0,64.0,-12.0,-3.0,-762.0,-616.0
1.0,-192.0,-178.0,-25.0,64.0,-14.0,0.0,-763.0,-618.0
3.0,-190.0,-175.0,-23.0,64.0,-14.0,5.0,-765.0,-619.0
6.0,-191.0,-174.0,-20.0,64.0,-17.0,6.0,-761.0,-617.0
6.0,-193.0,-174.0,-18.0,61.0,-16.0,13.0,-755.0,-622.0
4.0,-192.0,-172.0,-20.0,58.0,-19.0,13.0,-755.0,-625.0
6.0,-188.0,-175.0,-19.0,54.0,-18.0,14.0,-751.0,-627.0
5.0,-190.0,-177.0,-21.0,51.0,-21.0,12.0,-753.0,-630.0
8.0,-190.0,-179.0,-22.0,47.0,-19.0,15.0,-752.0,-630.0
4.0,-187.0,-178.0,-22.0,45.0,-21.0,14.0,-757.0,-633.0
6.0,-187.0,-177.0,-23.0,42.0,-20.0,17.0,-754.0,-631.0
8.0,-190.0,-178.0,-24.0,43.0,-20.0,17.0,-759.0,-631.0
7.0,-192.0,-172.0,-24.0,43.0,-17.0,15.0,-756.0,-638.0
5.0,-187.0,-181.0,-25.0,44.0,-16.0,13.0,-751.0,-645.0
6.0,-189.0,-180.0,-24.0,44.0,-14.0,13.0,-756.0,-640.0
7.0,-191.0,-180.0,-21.0,44.0,-12.0,19.0,-758.0,-642.0
9.0,-189.0,-180.0,-18.0,46.0,-7.0,21.0,-763.0,-641.0
8.0,-190.0,-180.0,-17.0,45.0,-5.0,18.0,-764.0,-642.0
7.0,-189.0,-180.0,-13.0,45.0,-2.0,22.0,-752.0,-638.0
10.0,-193.0,-180.0,-11.0,46.0,0.0,23.0,-763.0,-640.0
7.0,-193.0,-181.0,-8.0,48.0,3.0,21.0,-770.0,-637.0
8.0,-193.0,-181.0,-5.0,49.0,3.0,20.0,-766.0,-646.0
8.0,-193.0,-180.0,-1.0,52.0,5.0,18.0,-769.0,-644.0
6.0,-192.0,-178.0,3.0,55.0,4.0,17.0,-770.0,-645.0
4.0,-189.0,-181.0,10.0,57.0,3.0,12.0,-765.0,-642.0
3.0,-192.0,-181.0,15.0,61.0,2.0,10.0,-761.0,-648.0
6.0,-190.0,-180.0,20.0,63.0,2.0,6.0,-764.0,-647.0
3.0,-191.0,-179.0,26.0,65.0,-2.0,9.0,-753.0,-641.0
2.0,-190.0,-177.0,30.0,64.0,-2.0,2.0,-757.0,-635.0
1.0,-187.0,-177.0,35.0,66.0,-7.0,4.0,-757.0,-634.0
1.0,-186.0,-177.0,41.0,66.0,-8.0,0.0,-757.0,-630.0
0.0,-189.0,-179.0,45.0,67.0,-10.0,2.0,-759.0,-617.0
22.0,-192.0,-190.0,45.0,68.0,-8.0,-2.0,-758.0,-620.0
5.0,-191.0,-174.0,45.0,68.0,-9.0,-1.0,-759.0,-620.0
2.0,-191.0,-174.0,45.0,66.0,-7.0,0.0,-756.0,-613.0
5.0,-191.0,-171.0,39.0,67.0,-6.0,3.0,-757.0,-609.0
3.0,-190.0,-171.0,33.0,66.0,-4.0,3.0,-752.0,-616.0
3.0,-188.0,-172.0,30.0,66.0,-3.0,2.0,-749.0,-613.0
1.0,-188.0,-171.0,20.0,65.0,-1.0,1.0,-752.0,-614.0
3.0,-186.0,-176.0,12.0,63.0,0.0,5.0,-750.0,-617.0
5.0,-187.0,-173.0,3.0,62.0,2.0,6.0,-750.0,-623.0
5.0,-189.0,-176.0,-7.0,60.0,4.0,4.0,-750.0,-625.0
2.0,-189.0,-178.0,-15.0,60.0,6.0,0.0,-747.0,-625.0
1.0,-187.0,-176.0,-23.0,61.0,7.0,0.0,-751.0,-625.0
1.0,-191.0,-175.0,-29.0,65.0,8.0,2.0,-754.0,-624.0
2.0,-189.0,-175.0,-36.0,67.0,8.0,1.0,-750.0,-629.0
3.0,-189.0,-177.0,-38.0,70.0,9.0,5.0,-757.0,-630.0
4.0,-193.0,-175.0,-38.0,73.0,7.0,3.0,-749.0,-625.0
3.0,-190.0,-175.0,-39.0,72.0,6.0,8.0,-760.0,-631.0
6.0,-191.0,-177.0,-36.0,73.0,3.0,11.0,-756.0,-628.0
7.0,-189.0,-180.0,-32.0,74.0,3.0,10.0,-756.0,-627.0
4.0,-187.0,-178.0,-31.0,74.0,1.0,10.0,-759.0,-628.0
3.0,-187.0,-175.0,-29.0,73.0,1.0,11.0,-756.0,-631.0
5.0,-189.0,-179.0,-28.0,73.0,0.0,8.0,-752.0,-629.0
4.0,-189.0,-178.0,-27.0,70.0,-1.0,7.0,-764.0,-629.0
4.0,-191.0,-179.0,-26.0,70.0,-3.0,4.0,-753.0,-632.0
6.0,-188.0,-178.0,-23.0,70.0,-3.0,5.0,-755.0,-632.0
3.0,-188.0,-176.0,-22.0,71.0,-4.0,2.0,-757.0,-631.0
2.0,-186.0,-179.0,-18.0,72.0,-8.0,4.0,-753.0,-633.0
2.0,-190.0,-178.0,-17.0,74.0,-11.0,2.0,-759.0,-628.0
2.0,-190.0,-174.0,-16.0,75.0,-12.0,0.0,-758.0,-631.0
3.0,-190.0,-177.0,-16.0,77.0,-15.0,4.0,-750.0,-632.0
2.0,-188.0,-176.0,-17.0,77.0,-17.0,0.0,-754.0,-631.0
5.0,-190.0,-177.0,-19.0,79.0,-19.0,2.0,-758.0,-631.0
3.0,-186.0,-176.0,-19.0,80.0,-20.0,5.0,-751.0,-629.0
3.0,-191.0,-176.0,-20.0,81.0,-20.0,7.0,-756.0,-636.0
4.0,-189.0,-179.0,-22.0,81.0,-20.0,8.0,-755.0,-628.0
2.0,-190.0,-177.0,-24.0,82.0,-20.0,1.0,-757.0,-629.0
1.0,-188.0,-174.0,-24.0,84.0,-19.0,4.0,-759.0,-628.0
1.0,-189.0,-173.0,-23.0,83.0,-19.0,7.0,-759.0,-627.0
4.0,-190.0,-179.0,-23.0,83.0,-20.0,8.0,-759.0,-625.0
2.0,-192.0,-175.0,-22.0,79.0,-20.0,5.0,-756.0,-628.0
6.0,-190.0,-176.0,-23.0,77.0,-18.0,4.0,-757.0,-630.0
0.0,-189.0,-176.0,-24.0,75.0,-17.0,6.0,-763.0,-632.0
3.0,-189.0,-177.0,-25.0,72.0,-18.0,6.0,-757.0,-629.0
2.0,-192.0,-175.0,-24.0,71.0,-17.0,6.0,-755.0,-632.0
2.0,-192.0,-179.0,-23.0,68.0,-17.0,6.0,-755.0,-633.0
4.0,-190.0,-181.0,-19.0,68.0,-16.0,7.0,-757.0,-635.0
3.0,-191.0,-178.0,-17.0,66.0,-15.0,8.0,-755.0,-634.0
5.0,-188.0,-177.0,-12.0,66.0,-14.0,10.0,-758.0,-630.0
3.0,-190.0,-179.0,-10.0,67.0,-15.0,12.0,-760.0,-633.0
7.0,-190.0,-176.0,-8.0,65.0,-13.0,12.0,-758.0,-630.0
6.0,-193.0,-176.0,-6.0,64.0,-12.0,10.0,-764.0,-638.0
7.0,-194.0,-177.0,-6.0,65.0,-10.0,11.0,-762.0,-631.0
2.0,-189.0,-178.0,-7.0,66.0,-10.0,14.0,-761.0,-625.0
6.0,-193.0,-175.0,-8.0,67.0,-10.0,11.0,-764.0,-630.0
5.0,-191.0,-177.0,-10.0,69.0,-6.0,5.0,-766.0,-628.0
5.0,-189.0,-174.0,-9.0,70.0,-6.0,13.0,-765.0,-628.0
4.0,-191.0,-177.0,-9.0,68.0,-4.0,9.0,-767.0,-630.0
2.0,-190.0,-179.0,-8.0,69.0,-2.0,6.0,-762.0,-627.0
7.0,-189.0,-175.0,-8.0,68.0,-2.0,10.0,-764.0,-624.0
4.0,-192.0,-178.0,-5.0,68.0,2.0,9.0,-764.0,-626.0
4.0,-192.0,-178.0,-7.0,65.0,3.0,3.0,-765.0,-620.0
3.0,-191.0,-175.0,-9.0,63.0,3.0,3.0,-757.0,-629.0
5.0,-194.0,-175.0,-9.0,63.0,4.0,4.0,-764.0,-625.0
3.0,-189.0,-177.0,-12.0,61.0,5.0,4.0,-759.0,-628.0
3.0,-190.0,-174.0,-14.0,58.0,3.0,10.0,-750.0,-628.0
4.0,-190.0,-177.0,-15.0,55.0,2.0,4.0,-751.0,-626.0
4.0,-188.0,-178.0,-11.0,55.0,0.0,3.0,-752.0,-624.0
6.0,-188.0,-178.0,-11.0,55.0,-1.0,1.0,-754.0,-633.0
6.0,-187.0,-175.0,-11.0,55.0,-5.0,1.0,-756.0,-632.0
3.0,-188.0,-179.0,-12.0,57.0,-3.0,5.0,-747.0,-635.0
8.0,-187.0,-177.0,-12.0,57.0,-3.0,9.0,-748.0,-633.0
5.0,-187.0,-177.0,-15.0,59.0,-2.0,11.0,-745.0,-635.0
5.0,-189.0,-179.0,-18.0,60.0,-2.0,14.0,-755.0,-636.0
4.0,-188.0,-177.0,-19.0,63.0,-2.0,15.0,-753.0,-632.0
8.0,-188.0,-176.0,-17.0,64.0,-2.0,20.0,-757.0,-630.0
7.0,-188.0,-176.0,-13.0,67.0,1.0,21.0,-755.0,-628.0
8.0,-187.0,-179.0,-10.0,68.0,1.0,12.0,-759.0,-627.0
5.0,-192.0,-178.0,-8.0,69.0,5.0,16.0,-758.0,-625.0
4.0,-186.0,-175.0,-9.0,71.0,7.0,19.0,-764.0,-629.0
6.0,-190.0,-175.0,-9.0,70.0,9.0,15.0,-752.0,-626.0
5.0,-192.0,-174.0,-8.0,70.0,9.0,15.0,-767.0,-624.0
8.0,-192.0,-175.0,-12.0,70.0,14.0,13.0,-762.0,-621.0
5.0,-192.0,-176.0,-15.0,70.0,16.0,20.0,-761.0,-625.0
5.0,-190.0,-175.0,-17.0,65.0,17.0,15.0,-759.0,-623.0
7.0,-191.0,-176.0,-21.0,63.0,16.0,11.0,-760.0,-626.0
7.0,-189.0,-176.0,-22.0,61.0,17.0,13.0,-759.0,-631.0
5.0,-189.0,-177.0,-24.0,59.0,17.0,12.0,-755.0,-632.0
5.0,-186.0,-179.0,-22.0,57.0,18.0,11.0,-748.0,-632.0
4.0,-190.0,-179.0,-19.0,57.0,16.0,13.0,-750.0,-639.0
5.0,-192.0,-180.0,-15.0,54.0,16.0,11.0,-749.0,-633.0
3.0,-188.0,-177.0,-9.0,55.0,12.0,10.0,-754.0,-634.0
8.0,-191.0,-178.0,-3.0,55.0,12.0,11.0,-755.0,-635.0
4.0,-188.0,-173.0,5.0,56.0,7.0,12.0,-756.0,-628.0
5.0,-192.0,-178.0,6.0,55.0,5.0,10.0,-756.0,-629.0
6.0,-192.0,-176.0,5.0,54.0,4.0,9.0,-755.0,-622.0
4.0,-189.0,-178.0,2.0,52.0,3.0,11.0,-758.0,-622.0
2.0,-188.0,-172.0,0.0,52.0,2.0,10.0,-759.0,-625.0
3.0,-191.0,-172.0,-4.0,51.0,1.0,6.0,-756.0,-619.0
4.0,-189.0,-175.0,-10.0,49.0,1.0,8.0,-757.0,-622.0
2.0,-191.0,-175.0,-15.0,49.0,3.0,0.0,-763.0,-624.0
5.0,-191.0,-176.0,-21.0,48.0,3.0,6.0,-759.0,-621.0
3.0,-192.0,-178.0,-25.0,49.0,6.0,3.0,-762.0,-623.0
1.0,-190.0,-174.0,-28.0,50.0,5.0,6.0,-769.0,-626.0
3.0,-191.0,-175.0,-28.0,50.0,7.0,5.0,-764.0,-627.0
1.0,-192.0,-176.0,-26.0,50.0,6.0,0.0,-760.0,-627.0
3.0,-192.0,-175.0,-24.0,50.0,7.0,7.0,-765.0,-626.0
3.0,-191.0,-178.0,-18.0,52.0,6.0,5.0,-761.0,-626.0
2.0,-190.0,-173.0,-13.0,52.0,6.0,4.0,-765.0,-625.0
3.0,-193.0,-175.0,-9.0,53.0,5.0,6.0,-763.0,-626.0
3.0,-193.0,-179.0,-6.0,56.0,7.0,0.0,-764.0,-620.0
3.0,-190.0,-174.0,-7.0,58.0,5.0,11.0,-765.0,-620.0
5.0,-192.0,-177.0,-8.0,61.0,7.0,7.0,-758.0,-625.0
2.0,-191.0,-175.0,-7.0,61.0,7.0,7.0,-761.0,-621.0
0.0,-187.0,-176.0,-7.0,62.0,9.0,6.0,-753.0,-620.0
1.0,-189.0,-175.0,-9.0,62.0,7.0,5.0,-756.0,-628.0
4.0,-189.0,-179.0,-14.0,62.0,11.0,6.0,-757.0,-626.0
2.0,-189.0,-176.0,-18.0,61.0,10.0,8.0,-758.0,-629.0
5.0,-187.0,-178.0,-20.0,60.0,13.0,5.0,-750.0,-631.0
5.0,-188.0,-175.0,-23.0,56.0,11.0,7.0,-750.0,-633.0
3.0,-189.0,-178.0,-24.0,54.0,12.0,5.0,-754.0,-631.0
3.0,-187.0,-180.0,-27.0,54.0,10.0,7.0,-751.0,-637.0
2.0,-189.0,-179.0,-26.0,51.0,13.0,6.0,-754.0,-638.0
6.0,-189.0,-178.0,-26.0,50.0,11.0,10.0,-757.0,-634.0
5.0,-190.0,-176.0,-25.0,52.0,13.0,6.0,-752.0,-633.0
5.0,-189.0,-179.0,-25.0,51.0,11.0,8.0,-754.0,-632.0
5.0,-187.0,-179.0,-23.0,52.0,13.0,6.0,-756.0,-634.0
5.0,-188.0,-178.0,-22.0,52.0,13.0,7.0,-751.0,-635.0
2.0,-186.0,-179.0,-20.0,51.0,15.0,6.0,-753.0,-638.0
3.0,-190.0,-178.0,-19.0,52.0,14.0,9.0,-755.0,-642.0
1.0,-187.0,-176.0,-19.0,54.0,14.0,0.0,-753.0,-636.0
4.0,-189.0,-179.0,-18.0,55.0,13.0,2.0,-757.0,-631.0
3.0,-190.0,-177.0,-15.0,56.0,14.0,4.0,-757.0,-635.0
1.0,-190.0,-179.0,-11.0,58.0,11.0,3.0,-771.0,-631.0
2.0,-193.0,-177.0,-7.0,59.0,11.0,-1.0,-758.0,-629.0
2.0,-190.0,-174.0,-6.0,60.0,6.0,2.0,-767.0,-630.0
5.0,-190.0,-179.0,-6.0,61.0,8.0,2.0,-766.0,-632.0
2.0,-193.0,-180.0,-5.0,61.0,5.0,4.0,-757.0,-632.0
3.0,-193.0,-180.0,-6.0,62.0,6.0,8.0,-769.0,-631.0
1.0,-191.0,-180.0,-8.0,62.0,2.0,2.0,-764.0,-628.0
7.0,-193.0,-180.0,-9.0,62.0,3.0,3.0,-766.0,-630.0
3.0,-194.0,-178.0,-9.0,63.0,3.0,7.0,-768.0,-625.0
4.0,-192.0,-177.0,-11.0,64.0,7.0,8.0,-764.0,-625.0
1.0,-189.0,-177.0,-10.0,63.0,4.0,5.0,-764.0,-625.0
0.0,-189.0,-176.0,-8.0,63.0,6.0,7.0,-762.0,-625.0
3.0,-190.0,-176.0,-7.0,65.0,5.0,4.0,-757.0,-620.0
4.0,-192.0,-175.0,-6.0,64.0,9.0,4.0,-760.0,-620.0
3.0,-190.0,-177.0,-4.0,63.0,6.0,7.0,-758.0,-621.0
4.0,-190.0,-176.0,-4.0,63.0,9.0,8.0,-756.0,-622.0
4.0,-186.0,-173.0,-2.0,63.0,7.0,1.0,-758.0,-616.0
4.0,-190.0,-172.0,-1.0,65.0,8.0,4.0,-757.0,-622.0
3.0,-188.0,-176.0,-2.0,66.0,4.0,3.0,-750.0,-619.0
3.0,-187.0,-174.0,-4.0,65.0,5.0,3.0,-752.0,-616.0
3.0,-190.0,-175.0,-4.0,68.0,2.0,-1.0,-755.0,-624.0
2.0,-188.0,-177.0,-5.0,69.0,3.0,7.0,-753.0,-625.0
3.0,-189.0,-178.0,-5.0,69.0,-2.0,3.0,-754.0,-626.0
2.0,-190.0,-177.0,-6.0,67.0,-2.0,6.0,-747.0,-629.0
5.0,-186.0,-179.0,-8.0,67.0,-7.0,4.0,-754.0,-629.0
5.0,-187.0,-177.0,-10.0,64.0,-5.0,4.0,-754.0,-633.0
3.0,-188.0,-178.0,-13.0,62.0,-9.0,6.0,-762.0,-644.0
3.0,-191.0,-180.0,-16.0,57.0,-7.0,4.0,-757.0,-638.0
4.0,-189.0,-178.0,-19.0,56.0,-7.0,7.0,-759.0,-638.0
6.0,-193.0,-178.0,-20.0,54.0,-4.0,10.0,-758.0,-646.0
4.0,-190.0,-180.0,-20.0,54.0,-5.0,13.0,-762.0,-643.0
4.0,-192.0,-181.0,-19.0,53.0,-3.0,10.0,-761.0,-642.0
5.0,-193.0,-181.0,-17.0,53.0,-4.0,8.0,-767.0,-633.0
2.0,-190.0,-181.0,-15.0,53.0,-3.0,9.0,-762.0,-639.0
4.0,-191.0,-178.0,-12.0,52.0,-2.0,9.0,-762.0,-633.0
6.0,-195.0,-179.0,-9.0,54.0,0.0,8.0,-768.0,-630.0
4.0,-191.0,-176.0,-4.0,54.0,-2.0,5.0,-765.0,-629.0
3.0,-193.0,-177.0,0.0,54.0,0.0,5.0,-768.0,-626.0
3.0,-193.0,-178.0,2.0,54.0,-1.0,8.0,-769.0,-629.0
4.0,-193.0,-176.0,5.0,54.0,2.0,8.0,-773.0,-625.0
4.0,-194.0,-178.0,8.0,54.0,2.0,2.0,-771.0,-627.0
5.0,-194.0,-175.0,9.0,55.0,3.0,3.0,-768.0,-624.0
1.0,-192.0,-177.0,13.0,56.0,2.0,0.0,-761.0,-621.0
3.0,-193.0,-174.0,16.0,55.0,6.0,2.0,-758.0,-628.0
3.0,-189.0,-177.0,17.0,55.0,4.0,2.0,-757.0,-623.0
7.0,-188.0,-175.0,18.0,54.0,6.0,4.0,-756.0,-625.0
4.0,-188.0,-174.0,18.0,55.0,3.0,4.0,-758.0,-628.0
4.0,-190.0,-175.0,18.0,56.0,3.0,-1.0,-751.0,-630.0
2.0,-187.0,-177.0,16.0,55.0,-1.0,0.0,-752.0,-630.0
4.0,-190.0,-175.0,14.0,58.0,1.0,3.0,-745.0,-630.0
2.0,-190.0,-180.0,14.0,58.0,-1.0,-1.0,-752.0,-634.0
1.0,-187.0,-176.0,11.0,59.0,1.0,-5.0,-751.0,-631.0
1.0,-189.0,-179.0,10.0,58.0,-2.0,-1.0,-752.0,-628.0
0.0,-192.0,-174.0,10.0,58.0,0.0,4.0,-769.0,-622.0
2.0,-189.0,-180.0,12.0,59.0,-3.0,7.0,-765.0,-627.0
4.0,-190.0,-174.0,16.0,60.0,0.0,3.0,-760.0,-627.0
1.0,-193.0,-175.0,18.0,60.0,-2.0,1.0,-765.0,-628.0
2.0,-190.0,-172.0,18.0,60.0,-1.0,-3.0,-760.0,-625.0
5.0,-191.0,-178.0,21.0,59.0,-3.0,0.0,-765.0,-623.0
4.0,-191.0,-174.0,21.0,57.0,-1.0,0.0,-762.0,-622.0
0.0,-189.0,-178.0,20.0,56.0,-4.0,2.0,-761.0,-619.0
1.0,-188.0,-176.0,18.0,56.0,-3.0,1.0,-760.0,-623.0
3.0,-191.0,-176.0,17.0,53.0,-7.0,2.0,-755.0,-623.0
1.0,-187.0,-177.0,14.0,50.0,-5.0,4.0,-758.0,-624.0
0.0,-188.0,-179.0,11.0,49.0,-8.0,7.0,-758.0,-624.0
2.0,-187.0,-179.0,8.0,48.0,-3.0,-1.0,-750.0,-624.0
1.0,-187.0,-175.0,4.0,47.0,-8.0,0.0,-752.0,-630.0
4.0,-185.0,-177.0,0.0,46.0,-5.0,3.0,-751.0,-628.0
2.0,-190.0,-179.0,-3.0,45.0,-6.0,0.0,-755.0,-627.0
1.0,-188.0,-176.0,-10.0,47.0,-3.0,1.0,-752.0,-621.0
2.0,-187.0,-176.0,-14.0,50.0,-5.0,4.0,-749.0,-629.0
3.0,-190.0,-174.0,-15.0,52.0,-1.0,-1.0,-753.0,-622.0
2.0,-191.0,-174.0,-18.0,54.0,-4.0,1.0,-758.0,-621.0
1.0,-188.0,-177.0,-19.0,57.0,-1.0,-1.0,-756.0,-624.0
2.0,-190.0,-175.0,-21.0,59.0,-3.0,2.0,-756.0,-619.0
0.0,-188.0,-178.0,-27.0,60.0,0.0,-1.0,-756.0,-618.0
1.0,-190.0,-171.0,-32.0,63.0,-3.0,-4.0,-760.0,-622.0
2.0,-189.0,-173.0,-38.0,64.0,0.0,-2.0,-758.0,-616.0
-1.0,-192.0,-174.0,-43.0,64.0,-4.0,-4.0,-765.0,-617.0
5.0,-193.0,-176.0,-47.0,63.0,-3.0,-7.0,-764.0,-621.0
0.0,-192.0,-174.0,-50.0,64.0,-7.0,-8.0,-762.0,-615.0
-2.0,-192.0,-177.0,-54.0,63.0,-7.0,-13.0,-764.0,-616.0
1.0,-191.0,-172.0,-52.0,63.0,-11.0,-11.0,-765.0,-619.0
0.0,-191.0,-177.0,-50.0,61.0,-9.0,-7.0,-763.0,-621.0
0.0,-190.0,-175.0,-49.0,60.0,-15.0,-3.0,-764.0,-624.0
2.0,-193.0,-172.0,-48.0,60.0,-14.0,-4.0,-761.0,-618.0
1.0,-191.0,-174.0,-47.0,61.0,-19.0,0.0,-758.0,-625.0
2.0,-192.0,-175.0,-48.0,60.0,-18.0,4.0,-757.0,-624.0
2.0,-193.0,-175.0,-47.0,58.0,-22.0,4.0,-759.0,-626.0
5.0,-195.0,-177.0,-44.0,58.0,-21.0,5.0,-760.0,-628.0
4.0,-194.0,-178.0,-44.0,60.0,-25.0,4.0,-760.0,-629.0
2.0,-190.0,-177.0,-40.0,58.0,-22.0,4.0,-765.0,-629.0
5.0,-192.0,-175.0,-38.0,58.0,-24.0,10.0,-763.0,-629.0
4.0,-192.0,-176.0,-37.0,56.0,-21.0,10.0,-769.0,-626.0
4.0,-190.0,-173.0,-36.0,53.0,-22.0,11.0,-768.0,-626.0
6.0,-191.0,-178.0,-37.0,52.0,-19.0,10.0,-768.0,-631.0
3.0,-191.0,-176.0,-36.0,51.0,-22.0,11.0,-770.0,-628.0
5.0,-192.0,-175.0,-34.0,50.0,-20.0,8.0,-767.0,-624.0
5.0,-192.0,-179.0,-32.0,50.0,-22.0,5.0,-769.0,-629.0
7.0,-192.0,-179.0,-30.0,51.0,-19.0,14.0,-769.0,-633.0
8.0,-191.0,-175.0,-26.0,50.0,-21.0,12.0,-767.0,-626.0
6.0,-190.0,-177.0,-22.0,52.0,-18.0,14.0,-763.0,-629.0
6.0,-190.0,-176.0,-18.0,51.0,-17.0,14.0,-761.0,-627.0
5.0,-190.0,-178.0,-15.0,52.0,-14.0,12.0,-763.0,-628.0
6.0,-188.0,-174.0,-11.0,53.0,-16.0,7.0,-759.0,-629.0
7.0,-190.0,-177.0,-7.0,54.0,-11.0,9.0,-757.0,-627.0
5.0,-190.0,-175.0,-5.0,55.0,-13.0,8.0,-756.0,-626.0
4.0,-189.0,-178.0,-4.0,54.0,-9.0,5.0,-757.0,-626.0
4.0,-190.0,-173.0,-3.0,55.0,-9.0,10.0,-764.0,-628.0
5.0,-189.0,-175.0,-4.0,54.0,-5.0,4.0,-757.0,-627.0
4.0,-190.0,-175.0,-6.0,54.0,-5.0,7.0,-765.0,-627.0
3.0,-190.0,-173.0,-7.0,54.0,0.0,5.0,-754.0,-627.0
2.0,-187.0,-177.0,-9.0,51.0,-1.0,0.0,-754.0,-627.0
3.0,-190.0,-174.0,-11.0,48.0,2.0,-1.0,-754.0,-625.0
1.0,-193.0,-177.0,-15.0,46.0,1.0,0.0,-754.0,-620.0
2.0,-190.0,-175.0,-19.0,46.0,3.0,2.0,-753.0,-625.0
0.0,-186.0,-175.0,-22.0,44.0,0.0,-3.0,-758.0,-628.0
2.0,-189.0,-180.0,-23.0,45.0,3.0,0.0,-760.0,-624.0
4.0,-194.0,-175.0,-25.0,47.0,0.0,-1.0,-757.0,-623.0
4.0,-190.0,-171.0,-26.0,46.0,2.0,-3.0,-757.0,-619.0
4.0,-191.0,-176.0,-27.0,51.0,0.0,3.0,-760.0,-616.0
6.0,-193.0,-175.0,-26.0,54.0,2.0,2.0,-770.0,-623.0
0.0,-191.0,-175.0,-26.0,56.0,-1.0,2.0,-768.0,-620.0
5.0,-192.0,-174.0,-26.0,57.0,1.0,-1.0,-765.0,-621.0
3.0,-195.0,-175.0,-24.0,59.0,-1.0,4.0,-767.0,-624.0
5.0,-195.0,-176.0,-22.0,61.0,1.0,4.0,-771.0,-627.0
3.0,-191.0,-174.0,-20.0,65.0,0.0,6.0,-771.0,-628.0
8.0,-192.0,-173.0,-16.0,67.0,2.0,8.0,-769.0,-627.0
6.0,-194.0,-180.0,-9.0,67.0,0.0,9.0,-769.0,-628.0
6.0,-194.0,-175.0,-1.0,69.0,2.0,10.0,-771.0,-625.0
3.0,-193.0,-179.0,7.0,69.0,1.0,7.0,-770.0,-627.0
5.0,-193.0,-177.0,16.0,71.0,4.0,11.0,-768.0,-629.0
2.0,-195.0,-175.0,21.0,70.0,1.0,11.0,-773.0,-626.0
1.0,-194.0,-177.0,28.0,70.0,6.0,10.0,-773.0,-624.0
5.0,-194.0,-178.0,30.0,71.0,3.0,6.0,-770.0,-628.0
4.0,-192.0,-176.0,36.0,71.0,7.0,8.0,-771.0,-634.0
4.0,-192.0,-176.0,40.0,69.0,6.0,8.0,-770.0,-628.0
4.0,-191.0,-176.0,43.0,68.0,8.0,8.0,-768.0,-630.0
8.0,-191.0,-174.0,46.0,66.0,5.0,13.0,-765.0,-629.0
2.0,-191.0,-180.0,49.0,64.0,5.0,11.0,-757.0,-629.0
6.0,-188.0,-178.0,52.0,63.0,3.0,10.0,-761.0,-629.0
4.0,-189.0,-177.0,54.0,62.0,5.0,11.0,-756.0,-628.0
5.0,-187.0,-174.0,54.0,62.0,3.0,8.0,-748.0,-627.0
5.0,-186.0,-176.0,55.0,63.0,3.0,6.0,-750.0,-628.0
5.0,-188.0,-176.0,57.0,63.0,2.0,7.0,-749.0,-621.0
2.0,-188.0,-174.0,54.0,62.0,3.0,5.0,-751.0,-624.0
4.0,-188.0,-177.0,49.0,63.0,-1.0,4.0,-738.0,-623.0
1.0,-189.0,-177.0,41.0,66.0,0.0,4.0,-753.0,-624.0
2.0,-186.0,-179.0,35.0,67.0,-4.0,6.0,-751.0,-623.0
3.0,-187.0,-175.0,31.0,66.0,-3.0,7.0,-751.0,-625.0
1.0,-188.0,-176.0,27.0,67.0,-7.0,-2.0,-752.0,-627.0
1.0,-189.0,-178.0,25.0,68.0,-4.0,-3.0,-753.0,-625.0
-1.0,-186.0,-175.0,22.0,68.0,-4.0,-7.0,-756.0,-622.0
1.0,-188.0,-176.0,16.0,65.0,0.0,-2.0,-759.0,-624.0
2.0,-191.0,-177.0,8.0,65.0,0.0,-1.0,-759.0,-623.0
1.0,-190.0,-175.0,3.0,64.0,1.0,-2.0,-766.0,-625.0
2.0,-191.0,-176.0,1.0,63.0,1.0,-2.0,-761.0,-627.0
1.0,-191.0,-175.0,-3.0,64.0,3.0,-2.0,-763.0,-628.0
2.0,-193.0,-177.0,-2.0,64.0,0.0,-6.0,-762.0,-626.0
1.0,-192.0,-178.0,0.0,65.0,1.0,-6.0,-761.0,-628.0
3.0,-190.0,-176.0,2.0,66.0,-1.0,-6.0,-762.0,-628.0
1.0,-191.0,-176.0,6.0,67.0,2.0,-7.0,-761.0,-627.0
2.0,-191.0,-176.0,10.0,67.0,-1.0,-8.0,-758.0,-625.0
2.0,-189.0,-177.0,13.0,67.0,1.0,0.0,-766.0,-623.0
3.0,-192.0,-173.0,15.0,66.0,-1.0,0.0,-769.0,-613.0
1.0,-193.0,-176.0,15.0,64.0,1.0,2.0,-771.0,-617.0
2.0,-193.0,-175.0,12.0,63.0,0.0,3.0,-766.0,-613.0
2.0,-194.0,-171.0,11.0,63.0,3.0,-1.0,-772.0,-611.0
4.0,-194.0,-169.0,10.0,62.0,3.0,1.0,-778.0,-616.0
3.0,-195.0,-173.0,12.0,61.0,7.0,2.0,-779.0,-613.0
2.0,-193.0,-175.0,15.0,60.0,7.0,0.0,-774.0,-612.0
2.0,-194.0,-172.0,17.0,58.0,8.0,-1.0,-770.0,-607.0
3.0,-194.0,-171.0,15.0,56.0,7.0,6.0,-770.0,-608.0
3.0,-191.0,-173.0,15.0,55.0,9.0,2.0,-764.0,-612.0
2.0,-191.0,-175.0,12.0,55.0,6.0,3.0,-770.0,-613.0
1.0,-190.0,-172.0,9.0,54.0,6.0,3.0,-761.0,-612.0
3.0,-191.0,-176.0,5.0,54.0,2.0,0.0,-762.0,-615.0
4.0,-188.0,-172.0,1.0,53.0,-1.0,7.0,-757.0,-613.0
5.0,-190.0,-177.0,-2.0,52.0,-5.0,6.0,-756.0,-620.0
4.0,-192.0,-179.0,-4.0,53.0,-8.0,7.0,-762.0,-624.0
5.0,-191.0,-176.0,-5.0,54.0,-14.0,5.0,-761.0,-626.0
5.0,-193.0,-178.0,-6.0,57.0,-15.0,7.0,-760.0,-628.0
3.0,-191.0,-178.0,-8.0,58.0,-19.0,0.0,-764.0,-622.0
0.0,-192.0,-175.0,-8.0,58.0,-20.0,3.0,-769.0,-626.0
0.0,-190.0,-174.0,-8.0,56.0,-22.0,3.0,-763.0,-624.0
2.0,-193.0,-176.0,-5.0,54.0,-20.0,-1.0,-767.0,-619.0
1.0,-191.0,-177.0,-5.0,52.0,-20.0,1.0,-764.0,-619.0
4.0,-194.0,-173.0,-5.0,50.0,-20.0,0.0,-774.0,-622.0
3.0,-194.0,-173.0,-3.0,49.0,-21.0,-2.0,-771.0,-618.0
2.0,-194.0,-176.0,-3.0,51.0,-19.0,0.0,-769.0,-617.0
1.0,-190.0,-175.0,-2.0,49.0,-19.0,-4.0,-768.0,-622.0
0.0,-194.0,-175.0,0.0,49.0,-15.0,-5.0,-767.0,-619.0
1.0,-188.0,-174.0,0.0,49.0,-15.0,-2.0,-763.0,-616.0
0.0,-191.0,-174.0,-1.0,49.0,-12.0,-6.0,-761.0,-616.0
-1.0,-190.0,-176.0,0.0,50.0,-11.0,-9.0,-768.0,-617.0
0.0,-193.0,-172.0,-3.0,49.0,-7.0,-10.0,-764.0,-612.0
-1.0,-192.0,-176.0,-4.0,51.0,-7.0,-3.0,-762.0,-616.0
1.0,-193.0,-175.0,-7.0,50.0,-7.0,-3.0,-762.0,-617.0
2.0,-192.0,-174.0,-8.0,54.0,-6.0,-1.0,-765.0,-617.0
1.0,-189.0,-172.0,-10.0,56.0,-7.0,-1.0,-755.0,-616.0
2.0,-191.0,-172.0,-12.0,58.0,-6.0,0.0,-756.0,-616.0
2.0,-191.0,-177.0,-13.0,59.0,-4.0,1.0,-756.0,-623.0
1.0,-193.0,-174.0,-13.0,58.0,-5.0,1.0,-762.0,-619.0
5.0,-191.0,-173.0,-13.0,58.0,-4.0,0.0,-763.0,-624.0
4.0,-192.0,-171.0,-13.0,55.0,-7.0,3.0,-769.0,-622.0
6.0,-194.0,-174.0,-12.0,55.0,-9.0,5.0,-767.0,-626.0
4.0,-192.0,-176.0,-12.0,54.0,-13.0,9.0,-763.0,-620.0
4.0,-194.0,-176.0,-13.0,54.0,-15.0,9.0,-768.0,-622.0
4.0,-191.0,-172.0,-11.0,55.0,-15.0,9.0,-762.0,-623.0
4.0,-191.0,-177.0,-11.0,56.0,-15.0,9.0,-767.0,-623.0
7.0,-190.0,-178.0,-13.0,56.0,-16.0,12.0,-761.0,-624.0
8.0,-194.0,-175.0,-14.0,59.0,-17.0,15.0,-762.0,-620.0
6.0,-194.0,-176.0,-13.0,61.0,-17.0,15.0,-762.0,-616.0
4.0,-192.0,-174.0,-13.0,64.0,-16.0,14.0,-765.0,-621.0
5.0,-192.0,-172.0,-14.0,63.0,-18.0,11.0,-763.0,-617.0
6.0,-189.0,-175.0,-16.0,65.0,-16.0,15.0,-759.0,-614.0
7.0,-190.0,-170.0,-17.0,67.0,-15.0,10.0,-755.0,-619.0
2.0,-189.0,-173.0,-17.0,68.0,-13.0,10.0,-761.0,-620.0
4.0,-188.0,-176.0,-18.0,70.0,-13.0,11.0,-763.0,-616.0
7.0,-191.0,-171.0,-19.0,72.0,-11.0,11.0,-757.0,-615.0
6.0,-193.0,-177.0,-19.0,72.0,-11.0,12.0,-761.0,-620.0
5.0,-190.0,-175.0,-19.0,72.0,-11.0,10.0,-761.0,-623.0
4.0,-188.0,-178.0,-20.0,72.0,-12.0,12.0,-764.0,-617.0
6.0,-190.0,-176.0,-21.0,72.0,-15.0,14.0,-760.0,-627.0
6.0,-192.0,-176.0,-21.0,73.0,-15.0,11.0,-759.0,-622.0
3.0,-189.0,-178.0,-21.0,75.0,-14.0,4.0,-760.0,-623.0
2.0,-190.0,-174.0,-23.0,79.0,-12.0,2.0,-769.0,-618.0
-4.0,-206.0,-178.0,-27.0,83.0,-9.0,7.0,-772.0,-619.0
1.0,-191.0,-174.0,-31.0,88.0,-5.0,4.0,-776.0,-617.0
3.0,-189.0,-174.0,-37.0,89.0,-1.0,1.0,-776.0,-616.0
4.0,-190.0,-172.0,-43.0,91.0,6.0,5.0,-774.0,-621.0
4.0,-192.0,-177.0,-49.0,88.0,13.0,7.0,-776.0,-624.0
5.0,-196.0,-173.0,-55.0,83.0,17.0,4.0,-774.0,-628.0
3.0,-195.0,-176.0,-60.0,76.0,23.0,7.0,-771.0,-625.0
3.0,-193.0,-177.0,-63.0,70.0,29.0,5.0,-781.0,-632.0
4.0,-193.0,-176.0,-61.0,64.0,36.0,3.0,-778.0,-630.0
2.0,-192.0,-175.0,-59.0,58.0,38.0,-1.0,-765.0,-629.0
0.0,-190.0,-177.0,-55.0,52.0,43.0,-12.0,-764.0,-628.0
-1.0,-192.0,-174.0,-50.0,47.0,46.0,-13.0,-757.0,-632.0
-2.0,-190.0,-177.0,-44.0,42.0,49.0,-17.0,-756.0,-633.0
-4.0,-187.0,-177.0,-43.0,40.0,48.0,-18.0,-747.0,-631.0
-2.0,-189.0,-177.0,-45.0,36.0,47.0,-16.0,-747.0,-629.0
1.0,-184.0,-179.0,-51.0,36.0,46.0,-5.0,-746.0,-628.0
4.0,-188.0,-180.0,-60.0,35.0,42.0,-1.0,-749.0,-628.0
4.0,-187.0,-177.0,-66.0,34.0,36.0,5.0,-747.0,-631.0
8.0,-190.0,-178.0,-70.0,34.0,27.0,14.0,-756.0,-625.0
9.0,-191.0,-176.0,-65.0,35.0,22.0,14.0,-763.0,-630.0
6.0,-194.0,-179.0,-55.0,36.0,14.0,13.0,-771.0,-623.0
8.0,-195.0,-173.0,-45.0,39.0,1.0,19.0,-787.0,-617.0
8.0,-196.0,-171.0,-40.0,39.0,-11.0,22.0,-792.0,-603.0
4.0,-195.0,-168.0,-51.0,36.0,-17.0,12.0,-787.0,-603.0
5.0,-194.0,-164.0,-61.0,35.0,-19.0,10.0,-774.0,-597.0
1.0,-197.0,-172.0,-72.0,36.0,-26.0,-1.0,-794.0,-613.0
3.0,-204.0,-172.0,-82.0,54.0,-45.0,-9.0,-807.0,-614.0
4.0,-203.0,-171.0,-79.0,68.0,-63.0,-2.0,-823.0,-603.0
1.0,-213.0,-165.0,-60.0,75.0,-79.0,-1.0,-844.0,-580.0
4.0,-216.0,-158.0,-41.0,79.0,-103.0,-2.0,-865.0,-573.0
2.0,-217.0,-159.0,-27.0,80.0,-125.0,0.0,-874.0,-551.0
-2.0,-220.0,-155.0,-30.0,74.0,-148.0,-4.0,-880.0,-538.0
1.0,-225.0,-147.0,-45.0,61.0,-165.0,-2.0,-895.0,-516.0
2.0,-231.0,-139.0,-69.0,42.0,-183.0,5.0,-915.0,-484.0
3.0,-238.0,-135.0,-82.0,6.0,-202.0,18.0,-939.0,-471.0
12.0,-243.0,-127.0,-80.0,-42.0,-218.0,21.0,-949.0,-453.0
13.0,-236.0,-145.0,-62.0,-83.0,-229.0,40.0,-936.0,-499.0
12.0,-245.0,-153.0,-37.0,-100.0,-220.0,38.0,-956.0,-502.0
8.0,-253.0,-150.0,1.0,-115.0,-226.0,10.0,-992.0,-542.0
1.0,-253.0,-169.0,72.0,-111.0,-238.0,-7.0,-971.0,-591.0
0.0,-246.0,-181.0,183.0,-89.0,-242.0,-18.0,-944.0,-653.0
-7.0,-223.0,-208.0,337.0,-72.0,-245.0,-37.0,-859.0,-761.0
-18.0,-191.0,-238.0,452.0,-28.0,-239.0,-85.0,-740.0,-850.0
-7.0,-142.0,-259.0,580.0,42.0,-209.0,-48.0,-574.0,-966.0
-2.0,-124.0,-269.0,679.0,101.0,-197.0,-40.0,-504.0,-989.0
0.0,-125.0,-257.0,743.0,137.0,-196.0,-7.0,-506.0,-976.0
5.0,-143.0,-248.0,773.0,139.0,-217.0,22.0,-589.0,-912.0
9.0,-168.0,-224.0,789.0,130.0,-217.0,37.0,-676.0,-839.0
18.0,-176.0,-212.0,817.0,108.0,-198.0,65.0,-701.0,-779.0
11.0,-175.0,-195.0,833.0,74.0,-177.0,35.0,-694.0,-717.0
10.0,-174.0,-174.0,828.0,31.0,-144.0,32.0,-709.0,-633.0
9.0,-170.0,-151.0,819.0,-19.0,-93.0,25.0,-699.0,-525.0
6.0,-158.0,-133.0,803.0,-64.0,-38.0,20.0,-656.0,-468.0
5.0,-150.0,-118.0,755.0,-111.0,-4.0,10.0,-613.0,-405.0
5.0,-136.0,-114.0,670.0,-143.0,15.0,30.0,-567.0,-368.0
10.0,-126.0,-102.0,559.0,-140.0,55.0,36.0,-531.0,-343.0
2.0,-125.0,-92.0,408.0,-136.0,77.0,8.0,-535.0,-287.0
7.0,-122.0,-92.0,222.0,-138.0,76.0,20.0,-520.0,-291.0
5.0,-120.0,-92.0,-3.0,-134.0,68.0,25.0,-532.0,-307.0
-5.0,-127.0,-102.0,-263.0,-133.0,55.0,-8.0,-549.0,-337.0
-2.0,-129.0,-117.0,-534.0,-126.0,31.0,-2.0,-557.0,-374.0
5.0,-135.0,-128.0,-790.0,-112.0,14.0,-5.0,-562.0,-426.0
4.0,-140.0,-141.0,-1009.0,-89.0,-3.0,10.0,-582.0,-485.0
6.0,-146.0,-155.0,-1220.0,-69.0,-14.0,21.0,-607.0,-529.0
5.0,-155.0,-161.0,-1364.0,-47.0,-23.0,19.0,-633.0,-553.0
2.0,-161.0,-167.0,-1475.0,-27.0,-28.0,10.0,-675.0,-591.0
0.0,-167.0,-172.0,-1563.0,0.0,-34.0,-4.0,-676.0,-619.0
-2.0,-166.0,-182.0,-1634.0,22.0,-38.0,-13.0,-692.0,-637.0
2.0,-173.0,-183.0,-1685.0,41.0,-46.0,-1.0,-704.0,-659.0
2.0,-181.0,-193.0,-1712.0,56.0,-53.0,7.0,-716.0,-689.0
7.0,-185.0,-202.0,-1725.0,69.0,-63.0,13.0,-745.0,-722.0
9.0,-191.0,-206.0,-1733.0,78.0,-77.0,23.0,-776.0,-767.0
13.0,-202.0,-213.0,-1734.0,84.0,-94.0,41.0,-808.0,-778.0
17.0,-211.0,-219.0,-1722.0,78.0,-110.0,54.0,-854.0,-797.0
17.0,-221.0,-218.0,-1692.0,74.0,-116.0,65.0,-878.0,-815.0
17.0,-229.0,-218.0,-1655.0,61.0,-107.0,58.0,-907.0,-800.0
15.0,-236.0,-222.0,-1615.0,53.0,-88.0,52.0,-928.0,-783.0
19.0,-243.0,-209.0,-1550.0,49.0,-73.0,64.0,-948.0,-762.0
18.0,-251.0,-198.0,-1451.0,44.0,-60.0,64.0,-969.0,-723.0
15.0,-245.0,-191.0,-1336.0,38.0,-47.0,49.0,-968.0,-686.0
10.0,-243.0,-181.0,-1226.0,34.0,-34.0,21.0,-959.0,-648.0
7.0,-244.0,-180.0,-1129.0,36.0,-32.0,10.0,-946.0,-628.0
11.0,-237.0,-166.0,-1045.0,58.0,-43.0,7.0,-926.0,-605.0
10.0,-229.0,-163.0,-970.0,79.0,-58.0,20.0,-900.0,-572.0
9.0,-221.0,-155.0,-903.0,106.0,-76.0,19.0,-867.0,-540.0
11.0,-210.0,-143.0,-853.0,126.0,-89.0,20.0,-842.0,-506.0
10.0,-200.0,-137.0,-853.0,148.0,-105.0,15.0,-806.0,-469.0
4.0,-189.0,-130.0,-890.0,167.0,-119.0,1.0,-758.0,-453.0
0.0,-174.0,-135.0,-962.0,188.0,-135.0,-15.0,-709.0,-445.0
-6.0,-160.0,-141.0,-1063.0,213.0,-141.0,-26.0,-672.0,-473.0
-4.0,-150.0,-150.0,-1179.0,239.0,-151.0,-27.0,-631.0,-509.0
-1.0,-138.0,-165.0,-1294.0,267.0,-156.0,-16.0,-579.0,-568.0
3.0,-134.0,-171.0,-1392.0,300.0,-157.0,4.0,-549.0,-612.0
14.0,-132.0,-178.0,-1470.0,336.0,-150.0,31.0,-540.0,-638.0
16.0,-130.0,-186.0,-1530.0,381.0,-143.0,44.0,-532.0,-666.0
20.0,-130.0,-192.0,-1573.0,426.0,-131.0,68.0,-531.0,-697.0
21.0,-131.0,-202.0,-1608.0,459.0,-119.0,67.0,-544.0,-732.0
22.0,-144.0,-216.0,-1627.0,487.0,-101.0,62.0,-576.0,-757.0
16.0,-154.0,-216.0,-1641.0,514.0,-83.0,54.0,-630.0,-774.0
3.0,-166.0,-220.0,-1645.0,543.0,-63.0,11.0,-674.0,-790.0
0.0,-176.0,-221.0,-1642.0,569.0,-54.0,2.0,-704.0,-803.0
1.0,-184.0,-219.0,-1630.0,585.0,-46.0,-9.0,-732.0,-808.0
-5.0,-188.0,-217.0,-1616.0,584.0,-47.0,-23.0,-752.0,-805.0
1.0,-186.0,-240.0,-1601.0,568.0,-55.0,-19.0,-739.0,-866.0
17.0,-189.0,-244.0,-1564.0,581.0,-80.0,48.0,-751.0,-880.0
21.0,-187.0,-197.0,-1487.0,513.0,-92.0,92.0,-731.0,-721.0
-24.0,-156.0,-172.0,-1437.0,266.0,-45.0,-63.0,-631.0,-627.0
-26.0,-125.0,-183.0,-1494.0,27.0,24.0,-100.0,-523.0,-663.0
-36.0,-129.0,-218.0,-1598.0,-106.0,84.0,-143.0,-522.0,-774.0
-24.0,-130.0,-240.0,-1588.0,-125.0,71.0,-116.0,-507.0,-880.0
-18.0,-127.0,-244.0,-1476.0,-94.0,23.0,-77.0,-502.0,-905.0
-16.0,-123.0,-243.0,-1366.0,-60.0,-19.0,-74.0,-502.0,-903.0
-14.0,-118.0,-240.0,-1312.0,-35.0,-59.0,-66.0,-489.0,-890.0
-9.0,-111.0,-245.0,-1306.0,-21.0,-102.0,-29.0,-472.0,-902.0
-11.0,-104.0,-242.0,-1314.0,-21.0,-149.0,-21.0,-438.0,-920.0
-1.0,-100.0,-255.0,-1318.0,-25.0,-185.0,-18.0,-414.0,-924.0
2.0,-86.0,-252.0,-1330.0,-23.0,-216.0,9.0,-395.0,-952.0
13.0,-83.0,-248.0,-1366.0,-6.0,-221.0,6.0,-364.0,-956.0
8.0,-82.0,-253.0,-1431.0,14.0,-215.0,35.0,-356.0,-982.0
23.0,-74.0,-264.0,-1519.0,35.0,-209.0,66.0,-348.0,-1000.0
28.0,-83.0,-266.0,-1631.0,36.0,-208.0,117.0,-367.0,-993.0
34.0,-77.0,-265.0,-1738.0,11.0,-198.0,139.0,-366.0,-994.0
48.0,-61.0,-261.0,-1860.0,-34.0,-185.0,198.0,-300.0,-978.0
51.0,-68.0,-257.0,-2007.0,-109.0,-127.0,188.0,-317.0,-982.0
51.0,-68.0,-292.0,-2148.0,-163.0,-103.0,211.0,-301.0,-1062.0
63.0,-92.0,-303.0,-2190.0,-172.0,-79.0,231.0,-389.0,-1140.0
65.0,-87.0,-307.0,-2153.0,-132.0,-94.0,246.0,-378.0,-1151.0
71.0,-94.0,-306.0,-2097.0,-99.0,-80.0,251.0,-372.0,-1171.0
75.0,-91.0,-315.0,-2003.0,-60.0,-103.0,278.0,-368.0,-1185.0
73.0,-89.0,-304.0,-1928.0,-36.0,-144.0,274.0,-389.0,-1138.0
69.0,-100.0,-302.0,-1888.0,10.0,-202.0,258.0,-418.0,-1135.0
65.0,-113.0,-297.0,-1869.0,70.0,-258.0,247.0,-475.0,-1142.0
43.0,-131.0,-301.0,-1820.0,133.0,-287.0,150.0,-532.0,-1120.0
28.0,-145.0,-292.0,-1766.0,205.0,-289.0,88.0,-582.0,-1097.0
18.0,-152.0,-292.0,-1710.0,275.0,-296.0,42.0,-604.0,-1102.0
6.0,-144.0,-284.0,-1650.0,326.0,-294.0,27.0,-596.0,-1066.0
0.0,-147.0,-287.0,-1582.0,337.0,-283.0,3.0,-596.0,-1065.0
0.0,-139.0,-280.0,-1507.0,315.0,-273.0,-5.0,-574.0,-1055.0
1.0,-132.0,-279.0,-1447.0,278.0,-266.0,-7.0,-538.0,-1058.0
3.0,-117.0,-280.0,-1399.0,241.0,-259.0,14.0,-496.0,-1054.0
10.0,-103.0,-283.0,-1373.0,224.0,-265.0,27.0,-436.0,-1063.0
14.0,-86.0,-295.0,-1353.0,216.0,-272.0,46.0,-377.0,-1105.0
15.0,-75.0,-308.0,-1332.0,216.0,-291.0,59.0,-323.0,-1165.0
23.0,-64.0,-324.0,-1306.0,216.0,-312.0,77.0,-276.0,-1229.0
26.0,-46.0,-336.0,-1273.0,214.0,-343.0,99.0,-216.0,-1287.0
34.0,-32.0,-340.0,-1238.0,210.0,-371.0,132.0,-159.0,-1316.0
40.0,-22.0,-346.0,-1196.0,202.0,-400.0,150.0,-119.0,-1324.0
40.0,-8.0,-346.0,-1152.0,189.0,-420.0,151.0,-77.0,-1324.0
37.0,0.0,-347.0,-1115.0,172.0,-440.0,153.0,-46.0,-1328.0
40.0,1.0,-345.0,-1081.0,149.0,-455.0,139.0,-23.0,-1320.0
35.0,8.0,-342.0,-1040.0,128.0,-463.0,131.0,0.0,-1308.0
33.0,13.0,-337.0,-1006.0,110.0,-460.0,121.0,6.0,-1290.0
32.0,14.0,-333.0,-970.0,101.0,-453.0,114.0,18.0,-1271.0
29.0,17.0,-325.0,-937.0,95.0,-434.0,111.0,40.0,-1250.0
33.0,26.0,-320.0,-903.0,89.0,-412.0,116.0,58.0,-1235.0
30.0,30.0,-320.0,-874.0,87.0,-379.0,107.0,80.0,-1231.0
26.0,37.0,-318.0,-846.0,87.0,-351.0,96.0,99.0,-1233.0
22.0,43.0,-316.0,-829.0,85.0,-321.0,83.0,125.0,-1225.0
20.0,51.0,-318.0,-816.0,83.0,-295.0,87.0,149.0,-1222.0
16.0,57.0,-317.0,-814.0,84.0,-264.0,65.0,175.0,-1207.0
19.0,61.0,-313.0,-837.0,88.0,-237.0,69.0,198.0,-1196.0
23.0,64.0,-311.0,-868.0,97.0,-213.0,79.0,217.0,-1189.0
19.0,69.0,-305.0,-886.0,105.0,-198.0,80.0,213.0,-1165.0
27.0,63.0,-305.0,-908.0,115.0,-176.0,96.0,199.0,-1158.0
24.0,58.0,-307.0,-933.0,131.0,-160.0,95.0,183.0,-1158.0
26.0,57.0,-306.0,-957.0,151.0,-139.0,97.0,179.0,-1165.0
28.0,55.0,-311.0,-973.0,173.0,-121.0,102.0,173.0,-1185.0
23.0,58.0,-311.0,-966.0,196.0,-101.0,94.0,179.0,-1196.0
22.0,57.0,-313.0,-951.0,206.0,-84.0,82.0,183.0,-1191.0
20.0,58.0,-311.0,-924.0,202.0,-66.0,98.0,180.0,-1184.0
17.0,53.0,-308.0,-889.0,183.0,-53.0,87.0,176.0,-1183.0
14.0,53.0,-301.0,-854.0,158.0,-36.0,75.0,154.0,-1167.0
18.0,47.0,-302.0,-829.0,138.0,-22.0,68.0,125.0,-1162.0
20.0,43.0,-304.0,-817.0,119.0,-15.0,77.0,122.0,-1147.0
20.0,42.0,-297.0,-801.0,117.0,-7.0,80.0,132.0,-1131.0
24.0,44.0,-294.0,-784.0,112.0,-1.0,91.0,132.0,-1125.0
27.0,44.0,-297.0,-747.0,121.0,-2.0,108.0,136.0,-1117.0
36.0,49.0,-293.0,-700.0,126.0,-17.0,111.0,144.0,-1116.0
20.0,50.0,-300.0,-654.0,129.0,-34.0,85.0,176.0,-1138.0
29.0,51.0,-295.0,-611.0,111.0,-45.0,119.0,163.0,-1150.0
22.0,51.0,-309.0,-562.0,97.0,-51.0,84.0,167.0,-1167.0
37.0,41.0,-311.0,-517.0,55.0,-48.0,122.0,132.0,-1148.0
20.0,48.0,-309.0,-473.0,17.0,-44.0,79.0,130.0,-1146.0
27.0,33.0,-293.0,-422.0,-5.0,-57.0,93.0,117.0,-1103.0
5.0,31.0,-294.0,-378.0,-3.0,-72.0,70.0,97.0,-1095.0
26.0,29.0,-284.0,-335.0,7.0,-95.0,83.0,104.0,-1082.0
11.0,42.0,-278.0,-315.0,2.0,-102.0,29.0,102.0,-1055.0
21.0,34.0,-278.0,-304.0,-5.0,-131.0,69.0,93.0,-1056.0
21.0,36.0,-283.0,-296.0,-13.0,-165.0,66.0,104.0,-1060.0
14.0,34.0,-283.0,-274.0,-20.0,-177.0,37.0,88.0,-1062.0
20.0,38.0,-280.0,-240.0,-21.0,-205.0,59.0,105.0,-1063.0
6.0,33.0,-282.0,-203.0,-11.0,-211.0,72.0,105.0,-1072.0
17.0,42.0,-286.0,-160.0,-20.0,-217.0,102.0,117.0,-1074.0
28.0,36.0,-299.0,-108.0,-43.0,-185.0,113.0,120.0,-1109.0
12.0,40.0,-288.0,-14.0,-58.0,-175.0,80.0,114.0,-1102.0
23.0,40.0,-300.0,63.0,-105.0,-156.0,85.0,105.0,-1131.0
27.0,28.0,-290.0,123.0,-135.0,-146.0,92.0,96.0,-1144.0
18.0,32.0,-295.0,201.0,-157.0,-113.0,101.0,69.0,-1152.0
14.0,32.0,-306.0,278.0,-188.0,-86.0,70.0,86.0,-1176.0
21.0,27.0,-315.0,355.0,-238.0,-51.0,83.0,64.0,-1193.0
19.0,19.0,-317.0,445.0,-273.0,-5.0,89.0,44.0,-1203.0
14.0,16.0,-316.0,553.0,-280.0,45.0,59.0,44.0,-1165.0
23.0,15.0,-310.0,666.0,-320.0,95.0,85.0,45.0,-1217.0
16.0,15.0,-316.0,751.0,-356.0,138.0,58.0,38.0,-1222.0
18.0,9.0,-308.0,850.0,-347.0,210.0,62.0,18.0,-1136.0
13.0,8.0,-301.0,986.0,-333.0,268.0,57.0,12.0,-1183.0
8.0,1.0,-299.0,1098.0,-328.0,307.0,30.0,-20.0,-1134.0
10.0,4.0,-300.0,1196.0,-322.0,342.0,19.0,-9.0,-1182.0
16.0,1.0,-318.0,1297.0,-323.0,355.0,43.0,-46.0,-1193.0
14.0,-12.0,-316.0,1381.0,-309.0,353.0,38.0,-79.0,-1137.0
26.0,-19.0,-310.0,1470.0,-281.0,348.0,58.0,-99.0,-1156.0
16.0,-24.0,-297.0,1554.0,-233.0,344.0,78.0,-120.0,-1109.0
18.0,-27.0,-303.0,1622.0,-209.0,327.0,95.0,-148.0,-1102.0
24.0,-32.0,-310.0,1685.0,-192.0,304.0,120.0,-155.0,-1098.0
29.0,-40.0,-299.0,1754.0,-147.0,279.0,138.0,-183.0,-1073.0
33.0,-41.0,-283.0,1833.0,-78.0,271.0,119.0,-188.0,-1066.0
40.0,-44.0,-273.0,1928.0,-27.0,258.0,118.0,-198.0,-1076.0
46.0,-45.0,-279.0,2000.0,13.0,242.0,127.0,-188.0,-1073.0
30.0,-35.0,-275.0,2062.0,58.0,224.0,152.0,-205.0,-1071.0
42.0,-35.0,-299.0,2126.0,100.0,203.0,139.0,-186.0,-1096.0
34.0,-36.0,-294.0,2191.0,147.0,184.0,143.0,-160.0,-1099.0
34.0,-46.0,-290.0,2261.0,189.0,184.0,120.0,-186.0,-1064.0
24.0,-44.0,-273.0,2335.0,208.0,188.0,96.0,-197.0,-1057.0
29.0,-48.0,-275.0,2398.0,202.0,183.0,100.0,-213.0,-1050.0
30.0,-55.0,-280.0,2449.0,216.0,157.0,100.0,-258.0,-1049.0
20.0,-65.0,-275.0,2498.0,253.0,134.0,82.0,-281.0,-1044.0
19.0,-65.0,-277.0,2528.0,292.0,98.0,61.0,-297.0,-1035.0
23.0,-75.0,-276.0,2558.0,314.0,77.0,79.0,-319.0,-1028.0
21.0,-77.0,-274.0,2580.0,341.0,38.0,67.0,-327.0,-1025.0
22.0,-82.0,-277.0,2596.0,367.0,2.0,70.0,-348.0,-1040.0
23.0,-80.0,-270.0,2603.0,381.0,-31.0,80.0,-351.0,-1024.0
32.0,-95.0,-269.0,2607.0,397.0,-42.0,108.0,-408.0,-1008.0
25.0,-101.0,-266.0,2606.0,411.0,-66.0,102.0,-418.0,-983.0
31.0,-107.0,-260.0,2615.0,415.0,-74.0,109.0,-461.0,-975.0
35.0,-118.0,-255.0,2621.0,424.0,-90.0,117.0,-487.0,-935.0
32.0,-126.0,-245.0,2627.0,429.0,-83.0,119.0,-505.0,-917.0
29.0,-135.0,-244.0,2636.0,420.0,-65.0,106.0,-551.0,-909.0
28.0,-137.0,-240.0,2619.0,416.0,-56.0,98.0,-571.0,-874.0
22.0,-145.0,-237.0,2594.0,396.0,-46.0,85.0,-597.0,-853.0
27.0,-149.0,-222.0,2566.0,362.0,-32.0,104.0,-637.0,-822.0
27.0,-150.0,-216.0,2540.0,318.0,-18.0,104.0,-623.0,-788.0
25.0,-164.0,-215.0,2522.0,283.0,-8.0,84.0,-672.0,-769.0
21.0,-170.0,-206.0,2503.0,248.0,-7.0,83.0,-695.0,-756.0
12.0,-167.0,-185.0,2481.0,212.0,-3.0,44.0,-678.0,-691.0
15.0,-182.0,-186.0,2504.0,155.0,17.0,53.0,-716.0,-687.0
8.0,-189.0,-196.0,2548.0,88.0,10.0,28.0,-743.0,-694.0
18.0,-188.0,-193.0,2584.0,54.0,-19.0,55.0,-749.0,-693.0
12.0,-185.0,-167.0,2612.0,59.0,-30.0,58.0,-724.0,-572.0
5.0,-181.0,-189.0,2728.0,25.0,-21.0,23.0,-728.0,-662.0
1.0,-171.0,-178.0,2821.0,16.0,37.0,8.0,-689.0,-640.0
-12.0,-163.0,-172.0,2917.0,-11.0,100.0,-26.0,-648.0,-615.0
-9.0,-154.0,-186.0,3032.0,-70.0,174.0,-50.0,-616.0,-667.0
-15.0,-144.0,-183.0,3097.0,-97.0,208.0,-71.0,-582.0,-657.0
-16.0,-136.0,-168.0,3128.0,-92.0,204.0,-76.0,-547.0,-619.0
-32.0,-130.0,-160.0,3182.0,-98.0,174.0,-131.0,-523.0,-568.0
-27.0,-125.0,-159.0,3255.0,-124.0,171.0,-120.0,-523.0,-552.0
-26.0,-130.0,-152.0,3297.0,-141.0,219.0,-95.0,-528.0,-517.0
-22.0,-129.0,-134.0,3308.0,-140.0,247.0,-97.0,-525.0,-473.0
-29.0,-124.0,-132.0,3310.0,-134.0,251.0,-122.0,-513.0,-443.0
-22.0,-127.0,-128.0,3308.0,-136.0,283.0,-107.0,-515.0,-428.0
-25.0,-123.0,-121.0,3269.0,-139.0,296.0,-107.0,-498.0,-406.0
-29.0,-112.0,-115.0,3198.0,-119.0,272.0,-111.0,-469.0,-375.0
-35.0,-107.0,-105.0,3145.0,-108.0,226.0,-129.0,-443.0,-328.0
-37.0,-102.0,-105.0,3111.0,-130.0,187.0,-142.0,-434.0,-333.0
-30.0,-95.0,-107.0,3044.0,-152.0,200.0,-134.0,-419.0,-351.0
-24.0,-92.0,-113.0,2946.0,-157.0,240.0,-104.0,-414.0,-360.0
-28.0,-88.0,-106.0,2788.0,-138.0,237.0,-109.0,-380.0,-351.0
-35.0,-77.0,-108.0,2615.0,-121.0,239.0,-137.0,-361.0,-346.0
-41.0,-77.0,-122.0,2448.0,-146.0,262.0,-153.0,-359.0,-406.0
-36.0,-76.0,-131.0,2231.0,-179.0,303.0,-138.0,-355.0,-431.0
-23.0,-76.0,-143.0,1989.0,-221.0,354.0,-101.0,-359.0,-495.0
-9.0,-78.0,-147.0,1686.0,-244.0,376.0,-51.0,-346.0,-508.0
-12.0,-75.0,-157.0,1482.0,-234.0,351.0,-49.0,-343.0,-528.0
1.0,-81.0,-135.0,1313.0,-183.0,342.0,-15.0,-354.0,-471.0
-2.0,-91.0,-117.0,1213.0,-117.0,353.0,-22.0,-373.0,-418.0
-20.0,-98.0,-123.0,1200.0,-52.0,339.0,-84.0,-395.0,-406.0
-11.0,-94.0,-131.0,1219.0,-41.0,341.0,-43.0,-403.0,-444.0
3.0,-92.0,-130.0,1251.0,-106.0,306.0,-3.0,-377.0,-437.0
27.0,-88.0,-128.0,1291.0,-199.0,246.0,119.0,-367.0,-417.0
45.0,-96.0,-95.0,1333.0,-235.0,153.0,152.0,-369.0,-286.0
47.0,-108.0,-60.0,1455.0,-188.0,77.0,151.0,-411.0,-161.0
24.0,-110.0,-51.0,1648.0,-26.0,148.0,60.0,-425.0,-118.0
-4.0,-109.0,-67.0,1886.0,122.0,252.0,-12.0,-441.0,-173.0
-12.0,-117.0,-76.0,1992.0,182.0,275.0,-30.0,-457.0,-221.0
-12.0,-124.0,-90.0,1996.0,135.0,178.0,-21.0,-500.0,-267.0
-12.0,-121.0,-95.0,1907.0,-7.0,31.0,-19.0,-519.0,-302.0
-13.0,-117.0,-97.0,1735.0,-210.0,-96.0,-26.0,-501.0,-326.0
-15.0,-107.0,-104.0,1500.0,-432.0,-167.0,-43.0,-473.0,-341.0
-16.0,-98.0,-101.0,1222.0,-621.0,-198.0,-51.0,-443.0,-333.0
-14.0,-97.0,-96.0,922.0,-753.0,-200.0,-48.0,-442.0,-313.0
-5.0,-122.0,-99.0,622.0,-817.0,-185.0,-32.0,-508.0,-306.0
1.0,-154.0,-103.0,328.0,-814.0,-151.0,-17.0,-675.0,-318.0
-13.0,-203.0,-115.0,66.0,-776.0,-115.0,-44.0,-832.0,-396.0
-34.0,-243.0,-147.0,-206.0,-771.0,-109.0,-128.0,-966.0,-488.0
-57.0,-258.0,-177.0,-397.0,-823.0,-133.0,-218.0,-1050.0,-639.0
-61.0,-259.0,-220.0,-590.0,-946.0,-194.0,-229.0,-1060.0,-824.0
-35.0,-250.0,-246.0,-821.0,-1116.0,-316.0,-118.0,-1025.0,-913.0
36.0,-254.0,-234.0,-1047.0,-1252.0,-500.0,114.0,-1025.0,-872.0
97.0,-274.0,-201.0,-1164.0,-1275.0,-718.0,323.0,-1069.0,-724.0
133.0,-301.0,-154.0,-1111.0,-1195.0,-860.0,458.0,-1127.0,-553.0
145.0,-321.0,-128.0,-851.0,-1052.0,-888.0,511.0,-1197.0,-445.0
133.0,-331.0,-122.0,-443.0,-892.0,-837.0,485.0,-1231.0,-402.0
107.0,-325.0,-126.0,31.0,-777.0,-737.0,401.0,-1224.0,-415.0
81.0,-314.0,-145.0,575.0,-743.0,-641.0,301.0,-1195.0,-496.0
50.0,-300.0,-154.0,953.0,-793.0,-539.0,183.0,-1142.0,-550.0
13.0,-293.0,-161.0,1253.0,-899.0,-434.0,41.0,-1124.0,-555.0
-25.0,-289.0,-155.0,1497.0,-1035.0,-339.0,-96.0,-1121.0,-541.0
-42.0,-294.0,-147.0,1687.0,-1183.0,-269.0,-161.0,-1139.0,-511.0
-47.0,-284.0,-135.0,1824.0,-1344.0,-254.0,-177.0,-1111.0,-469.0
-45.0,-236.0,-110.0,1917.0,-1505.0,-255.0,-163.0,-1011.0,-404.0
-14.0,-235.0,-143.0,1964.0,-1669.0,-239.0,-39.0,-926.0,-482.0
3.0,-196.0,-140.0,1888.0,-1779.0,-271.0,-3.0,-819.0,-492.0
11.0,-174.0,-132.0,1716.0,-1784.0,-316.0,14.0,-735.0,-456.0
10.0,-172.0,-108.0,1511.0,-1679.0,-346.0,-2.0,-715.0,-362.0
-2.0,-178.0,-87.0,1306.0,-1446.0,-364.0,-34.0,-724.0,-273.0
-9.0,-185.0,-69.0,1188.0,-1230.0,-383.0,-63.0,-740.0,-203.0
-11.0,-183.0,-70.0,1093.0,-1048.0,-425.0,-67.0,-739.0,-189.0
-9.0,-179.0,-68.0,994.0,-928.0,-478.0,-58.0,-733.0,-191.0
-6.0,-172.0,-74.0,859.0,-873.0,-539.0,-24.0,-709.0,-223.0
-4.0,-159.0,-90.0,679.0,-874.0,-580.0,-8.0,-671.0,-279.0
9.0,-141.0,-106.0,460.0,-904.0,-599.0,34.0,-607.0,-349.0
27.0,-126.0,-118.0,209.0,-940.0,-601.0,105.0,-555.0,-391.0
50.0,-126.0,-120.0,-55.0,-959.0,-610.0,188.0,-541.0,-402.0
71.0,-131.0,-114.0,-306.0,-938.0,-636.0,246.0,-556.0,-392.0
84.0,-144.0,-109.0,-524.0,-885.0,-678.0,301.0,-592.0,-356.0
89.0,-155.0,-96.0,-702.0,-815.0,-708.0,329.0,-636.0,-334.0
93.0,-163.0,-98.0,-763.0,-771.0,-728.0,336.0,-659.0,-307.0
92.0,-168.0,-95.0,-740.0,-743.0,-726.0,330.0,-676.0,-305.0
81.0,-176.0,-95.0,-651.0,-721.0,-707.0,303.0,-678.0,-313.0
75.0,-177.0,-99.0,-509.0,-696.0,-668.0,275.0,-684.0,-322.0
68.0,-174.0,-103.0,-339.0,-660.0,-621.0,248.0,-680.0,-315.0
63.0,-170.0,-106.0,-166.0,-616.0,-577.0,221.0,-665.0,-336.0
54.0,-162.0,-105.0,-27.0,-550.0,-536.0,198.0,-652.0,-328.0
48.0,-157.0,-100.0,65.0,-465.0,-486.0,172.0,-635.0,-321.0
45.0,-150.0,-97.0,108.0,-372.0,-434.0,159.0,-610.0,-299.0
41.0,-145.0,-97.0,114.0,-258.0,-373.0,123.0,-587.0,-296.0
34.0,-135.0,-90.0,73.0,-164.0,-322.0,114.0,-565.0,-287.0
32.0,-132.0,-93.0,8.0,-70.0,-266.0,103.0,-550.0,-294.0
30.0,-131.0,-98.0,-82.0,23.0,-221.0,93.0,-544.0,-300.0
25.0,-130.0,-102.0,-198.0,117.0,-180.0,91.0,-539.0,-322.0
30.0,-131.0,-109.0,-336.0,210.0,-152.0,94.0,-546.0,-353.0
28.0,-133.0,-113.0,-488.0,298.0,-131.0,93.0,-550.0,-367.0
26.0,-135.0,-117.0,-641.0,373.0,-121.0,94.0,-566.0,-385.0
22.0,-139.0,-117.0,-782.0,432.0,-113.0,84.0,-583.0,-394.0
22.0,-146.0,-118.0,-898.0,466.0,-104.0,79.0,-606.0,-411.0
20.0,-152.0,-125.0,-989.0,481.0,-95.0,81.0,-634.0,-417.0
23.0,-159.0,-123.0,-1058.0,477.0,-82.0,78.0,-650.0,-420.0
21.0,-169.0,-126.0,-1119.0,464.0,-69.0,76.0,-675.0,-419.0
19.0,-176.0,-129.0,-1157.0,444.0,-57.0,70.0,-709.0,-421.0
16.0,-187.0,-126.0,-1183.0,420.0,-46.0,71.0,-741.0,-416.0
18.0,-199.0,-123.0,-1197.0,391.0,-39.0,70.0,-781.0,-414.0
19.0,-206.0,-119.0,-1202.0,362.0,-33.0,58.0,-829.0,-413.0
12.0,-218.0,-124.0,-1196.0,334.0,-22.0,51.0,-861.0,-407.0
8.0,-229.0,-122.0,-1175.0,309.0,-11.0,26.0,-899.0,-413.0
4.0,-239.0,-119.0,-1141.0,286.0,-1.0,11.0,-933.0,-413.0
4.0,-241.0,-140.0,-1099.0,271.0,11.0,-10.0,-969.0,-421.0
-5.0,-259.0,-122.0,-1049.0,265.0,23.0,-22.0,-999.0,-430.0
-12.0,-264.0,-128.0,-977.0,272.0,34.0,-48.0,-1036.0,-438.0
-15.0,-269.0,-132.0,-913.0,285.0,40.0,-74.0,-1056.0,-438.0
-16.0,-273.0,-130.0,-850.0,303.0,44.0,-77.0,-1071.0,-452.0
-19.0,-278.0,-136.0,-790.0,317.0,38.0,-105.0,-1090.0,-464.0
-19.0,-283.0,-132.0,-731.0,329.0,33.0,-108.0,-1105.0,-456.0
-22.0,-286.0,-133.0,-675.0,333.0,25.0,-107.0,-1124.0,-460.0
-21.0,-288.0,-135.0,-622.0,327.0,12.0,-100.0,-1135.0,-464.0
-15.0,-289.0,-135.0,-569.0,314.0,-1.0,-86.0,-1138.0,-467.0
-12.0,-290.0,-135.0,-513.0,301.0,-14.0,-72.0,-1137.0,-465.0
-9.0,-289.0,-133.0,-459.0,286.0,-25.0,-51.0,-1125.0,-453.0
-3.0,-286.0,-131.0,-403.0,272.0,-32.0,-29.0,-1113.0,-455.0
1.0,-277.0,-128.0,-331.0,258.0,-28.0,-9.0,-1091.0,-441.0
6.0,-271.0,-126.0,-271.0,252.0,-9.0,6.0,-1068.0,-428.0
12.0,-263.0,-126.0,-217.0,250.0,16.0,26.0,-1038.0,-418.0
16.0,-259.0,-117.0,-171.0,251.0,48.0,36.0,-1018.0,-406.0
10.0,-252.0,-114.0,-131.0,250.0,83.0,35.0,-1006.0,-386.0
10.0,-253.0,-114.0,-101.0,246.0,119.0,33.0,-991.0,-363.0
10.0,-253.0,-103.0,-74.0,237.0,149.0,33.0,-995.0,-341.0
9.0,-255.0,-101.0,-53.0,226.0,171.0,33.0,-993.0,-324.0
10.0,-255.0,-98.0,-37.0,221.0,185.0,27.0,-994.0,-314.0
12.0,-251.0,-104.0,-26.0,218.0,189.0,30.0,-991.0,-308.0
12.0,-248.0,-102.0,-20.0,218.0,189.0,24.0,-987.0,-309.0
10.0,-244.0,-101.0,-28.0,222.0,182.0,23.0,-975.0,-319.0
10.0,-240.0,-103.0,-44.0,230.0,170.0,23.0,-953.0,-337.0
14.0,-236.0,-112.0,-68.0,242.0,153.0,30.0,-935.0,-346.0
14.0,-232.0,-111.0,-102.0,257.0,135.0,34.0,-919.0,-367.0
13.0,-227.0,-116.0,-140.0,274.0,117.0,32.0,-905.0,-380.0
14.0,-225.0,-123.0,-182.0,297.0,101.0,34.0,-899.0,-389.0
13.0,-223.0,-117.0,-223.0,323.0,82.0,26.0,-894.0,-397.0
13.0,-224.0,-118.0,-258.0,346.0,69.0,29.0,-891.0,-391.0
12.0,-226.0,-118.0,-286.0,367.0,57.0,34.0,-896.0,-390.0
11.0,-226.0,-116.0,-304.0,380.0,50.0,34.0,-894.0,-385.0
9.0,-226.0,-113.0,-319.0,383.0,46.0,22.0,-899.0,-386.0
5.0,-225.0,-117.0,-330.0,378.0,45.0,15.0,-897.0,-378.0
6.0,-225.0,-115.0,-335.0,366.0,50.0,11.0,-894.0,-372.0
3.0,-228.0,-112.0,-338.0,348.0,60.0,6.0,-897.0,-370.0
0.0,-233.0,-111.0,-338.0,326.0,71.0,0.0,-911.0,-369.0
-2.0,-233.0,-116.0,-335.0,304.0,85.0,-14.0,-918.0,-368.0
-6.0,-240.0,-109.0,-325.0,279.0,99.0,-22.0,-928.0,-366.0
-7.0,-238.0,-114.0,-307.0,253.0,116.0,-29.0,-933.0,-369.0
-9.0,-237.0,-113.0,-284.0,228.0,128.0,-49.0,-933.0,-374.0
-13.0,-237.0,-118.0,-258.0,209.0,138.0,-55.0,-925.0,-384.0
-14.0,-233.0,-118.0,-234.0,194.0,144.0,-65.0,-923.0,-395.0
-15.0,-230.0,-125.0,-216.0,179.0,144.0,-63.0,-911.0,-407.0
-14.0,-226.0,-127.0,-206.0,173.0,143.0,-67.0,-900.0,-420.0
-12.0,-224.0,-126.0,-207.0,171.0,139.0,-68.0,-893.0,-426.0
-15.0,-223.0,-131.0,-218.0,174.0,135.0,-62.0,-889.0,-437.0
-14.0,-223.0,-129.0,-235.0,180.0,125.0,-64.0,-888.0,-438.0
-9.0,-227.0,-131.0,-253.0,191.0,112.0,-53.0,-896.0,-439.0
-13.0,-228.0,-127.0,-269.0,201.0,97.0,-48.0,-910.0,-433.0
-11.0,-229.0,-127.0,-280.0,210.0,76.0,-41.0,-916.0,-427.0
-7.0,-231.0,-126.0,-285.0,215.0,52.0,-27.0,-914.0,-424.0
-2.0,-233.0,-127.0,-283.0,214.0,27.0,-25.0,-916.0,-425.0
-3.0,-232.0,-130.0,-275.0,207.0,5.0,-16.0,-914.0,-435.0
1.0,-229.0,-129.0,-264.0,191.0,-18.0,-3.0,-908.0,-435.0
3.0,-230.0,-132.0,-253.0,168.0,-32.0,0.0,-906.0,-443.0
5.0,-227.0,-132.0,-250.0,145.0,-41.0,9.0,-899.0,-448.0
4.0,-228.0,-133.0,-249.0,120.0,-43.0,15.0,-898.0,-455.0
8.0,-225.0,-133.0,-248.0,97.0,-42.0,18.0,-901.0,-460.0
7.0,-229.0,-133.0,-244.0,75.0,-38.0,22.0,-900.0,-449.0
11.0,-229.0,-128.0,-232.0,56.0,-35.0,27.0,-904.0,-446.0
11.0,-229.0,-132.0,-212.0,37.0,-32.0,31.0,-907.0,-444.0
10.0,-231.0,-129.0,-188.0,23.0,-31.0,28.0,-913.0,-445.0
10.0,-232.0,-133.0,-162.0,10.0,-28.0,31.0,-911.0,-444.0
12.0,-232.0,-133.0,-134.0,0.0,-28.0,34.0,-914.0,-439.0
14.0,-234.0,-127.0,-108.0,-6.0,-28.0,35.0,-911.0,-441.0
17.0,-231.0,-125.0,-83.0,-8.0,-29.0,44.0,-911.0,-429.0
16.0,-230.0,-129.0,-68.0,-6.0,-28.0,48.0,-912.0,-429.0
17.0,-229.0,-124.0,-59.0,-4.0,-28.0,49.0,-910.0,-426.0
17.0,-227.0,-123.0,-55.0,-2.0,-26.0,59.0,-904.0,-424.0
17.0,-230.0,-120.0,-55.0,1.0,-25.0,62.0,-905.0,-423.0
20.0,-229.0,-123.0,-59.0,1.0,-21.0,66.0,-905.0,-415.0
19.0,-226.0,-120.0,-66.0,0.0,-18.0,68.0,-908.0,-417.0
22.0,-229.0,-126.0,-76.0,-3.0,-12.0,71.0,-907.0,-425.0
21.0,-228.0,-127.0,-88.0,-5.0,-10.0,78.0,-907.0,-424.0
23.0,-225.0,-130.0,-99.0,-6.0,-4.0,78.0,-907.0,-433.0
21.0,-222.0,-129.0,-106.0,-6.0,3.0,79.0,-898.0,-439.0
25.0,-228.0,-136.0,-113.0,-5.0,11.0,81.0,-895.0,-452.0
23.0,-224.0,-134.0,-114.0,-1.0,20.0,82.0,-891.0,-461.0
26.0,-223.0,-135.0,-112.0,2.0,29.0,83.0,-886.0,-467.0
25.0,-223.0,-136.0,-107.0,4.0,37.0,91.0,-883.0,-471.0
25.0,-223.0,-132.0,-97.0,8.0,48.0,86.0,-883.0,-463.0
24.0,-222.0,-138.0,-80.0,11.0,60.0,83.0,-877.0,-454.0
23.0,-221.0,-131.0,-60.0,10.0,75.0,79.0,-881.0,-445.0
22.0,-220.0,-131.0,-33.0,7.0,82.0,85.0,-879.0,-439.0
22.0,-226.0,-126.0,-4.0,5.0,89.0,77.0,-880.0,-427.0
25.0,-224.0,-120.0,28.0,8.0,94.0,82.0,-883.0,-411.0
24.0,-224.0,-121.0,71.0,7.0,106.0,81.0,-886.0,-400.0
23.0,-225.0,-113.0,109.0,7.0,116.0,84.0,-894.0,-389.0
26.0,-226.0,-112.0,149.0,7.0,124.0,79.0,-891.0,-382.0
25.0,-225.0,-113.0,191.0,6.0,130.0,79.0,-894.0,-374.0
24.0,-223.0,-112.0,235.0,10.0,136.0,76.0,-890.0,-364.0
23.0,-228.0,-104.0,277.0,16.0,142.0,74.0,-892.0,-346.0
21.0,-229.0,-102.0,320.0,27.0,151.0,72.0,-904.0,-341.0
20.0,-234.0,-108.0,359.0,43.0,156.0,67.0,-921.0,-336.0
20.0,-232.0,-112.0,379.0,67.0,165.0,63.0,-926.0,-357.0
20.0,-231.0,-119.0,366.0,98.0,172.0,52.0,-923.0,-390.0
19.0,-227.0,-131.0,312.0,141.0,182.0,55.0,-920.0,-437.0
21.0,-227.0,-141.0,197.0,199.0,186.0,63.0,-915.0,-489.0
21.0,-229.0,-153.0,73.0,251.0,182.0,66.0,-921.0,-528.0
22.0,-232.0,-154.0,-50.0,300.0,171.0,75.0,-932.0,-537.0
23.0,-241.0,-156.0,-145.0,344.0,160.0,73.0,-958.0,-548.0
21.0,-246.0,-155.0,-189.0,384.0,147.0,64.0,-967.0,-548.0
21.0,-251.0,-156.0,-179.0,418.0,131.0,65.0,-972.0,-544.0
23.0,-250.0,-154.0,-119.0,455.0,112.0,75.0,-970.0,-541.0
28.0,-249.0,-155.0,-30.0,498.0,91.0,79.0,-966.0,-537.0
31.0,-247.0,-153.0,72.0,544.0,67.0,98.0,-962.0,-546.0
31.0,-241.0,-157.0,171.0,590.0,43.0,111.0,-947.0,-541.0
35.0,-239.0,-155.0,254.0,639.0,21.0,124.0,-946.0,-544.0
40.0,-240.0,-157.0,328.0,673.0,12.0,135.0,-943.0,-537.0
45.0,-237.0,-149.0,372.0,702.0,9.0,150.0,-939.0,-525.0
44.0,-240.0,-148.0,403.0,727.0,15.0,156.0,-935.0,-517.0
47.0,-238.0,-147.0,426.0,747.0,26.0,151.0,-931.0,-505.0
42.0,-235.0,-139.0,446.0,763.0,44.0,143.0,-935.0,-495.0
40.0,-238.0,-143.0,467.0,775.0,63.0,137.0,-938.0,-481.0
38.0,-237.0,-138.0,486.0,785.0,86.0,132.0,-932.0,-479.0
36.0,-232.0,-138.0,499.0,793.0,105.0,134.0,-918.0,-482.0
37.0,-229.0,-143.0,501.0,805.0,124.0,133.0,-915.0,-491.0
32.0,-227.0,-142.0,490.0,811.0,140.0,115.0,-909.0,-490.0
24.0,-230.0,-137.0,477.0,808.0,163.0,94.0,-918.0,-479.0
21.0,-233.0,-136.0,467.0,792.0,180.0,60.0,-910.0,-475.0
11.0,-230.0,-133.0,472.0,771.0,200.0,37.0,-911.0,-466.0
8.0,-231.0,-136.0,482.0,750.0,217.0,16.0,-902.0,-469.0
1.0,-231.0,-134.0,496.0,735.0,233.0,0.0,-901.0,-470.0
-2.0,-226.0,-134.0,508.0,729.0,242.0,-18.0,-895.0,-463.0
-7.0,-226.0,-135.0,516.0,726.0,250.0,-34.0,-886.0,-462.0
-8.0,-221.0,-133.0,517.0,726.0,250.0,-48.0,-880.0,-463.0
-14.0,-219.0,-138.0,514.0,730.0,250.0,-53.0,-873.0,-464.0
-13.0,-216.0,-136.0,504.0,735.0,245.0,-62.0,-868.0,-459.0
-12.0,-217.0,-133.0,493.0,740.0,244.0,-64.0,-865.0,-457.0
-14.0,-217.0,-131.0,483.0,745.0,238.0,-71.0,-866.0,-446.0
-16.0,-217.0,-134.0,473.0,743.0,234.0,-74.0,-863.0,-443.0
-17.0,-217.0,-124.0,470.0,732.0,227.0,-80.0,-866.0,-429.0
-19.0,-218.0,-126.0,471.0,715.0,224.0,-86.0,-865.0,-425.0
-17.0,-218.0,-123.0,476.0,690.0,220.0,-89.0,-864.0,-420.0
-20.0,-218.0,-122.0,481.0,660.0,219.0,-82.0,-863.0,-416.0
-19.0,-218.0,-121.0,485.0,629.0,215.0,-91.0,-863.0,-412.0
-16.0,-217.0,-124.0,486.0,600.0,216.0,-78.0,-862.0,-412.0
-18.0,-216.0,-121.0,486.0,569.0,212.0,-81.0,-857.0,-412.0
-17.0,-211.0,-119.0,482.0,538.0,212.0,-76.0,-848.0,-408.0
-17.0,-211.0,-120.0,473.0,509.0,206.0,-75.0,-848.0,-405.0
-18.0,-212.0,-120.0,458.0,473.0,206.0,-76.0,-845.0,-403.0
-17.0,-214.0,-117.0,443.0,441.0,206.0,-69.0,-843.0,-393.0
-15.0,-211.0,-117.0,426.0,409.0,210.0,-65.0,-847.0,-402.0
-15.0,-211.0,-120.0,405.0,379.0,213.0,-61.0,-847.0,-391.0
-12.0,-215.0,-119.0,385.0,351.0,218.0,-60.0,-848.0,-402.0
-16.0,-209.0,-117.0,361.0,329.0,216.0,-56.0,-850.0,-403.0
-18.0,-211.0,-118.0,337.0,307.0,221.0,-73.0,-856.0,-403.0
-19.0,-213.0,-121.0,309.0,285.0,223.0,-81.0,-857.0,-407.0
-16.0,-213.0,-124.0,280.0,256.0,222.0,-73.0,-861.0,-415.0
-13.0,-217.0,-125.0,246.0,227.0,208.0,-60.0,-866.0,-413.0
-9.0,-219.0,-124.0,215.0,205.0,196.0,-37.0,-868.0,-407.0
-3.0,-223.0,-118.0,188.0,187.0,186.0,-19.0,-881.0,-398.0
-1.0,-228.0,-114.0,180.0,178.0,179.0,-11.0,-895.0,-393.0
5.0,-229.0,-116.0,181.0,171.0,167.0,5.0,-905.0,-384.0
10.0,-234.0,-114.0,187.0,169.0,159.0,17.0,-915.0,-377.0
6.0,-233.0,-116.0,195.0,166.0,146.0,22.0,-911.0,-377.0
7.0,-230.0,-114.0,199.0,165.0,142.0,21.0,-913.0,-371.0
6.0,-229.0,-112.0,202.0,163.0,137.0,19.0,-915.0,-369.0
8.0,-231.0,-108.0,207.0,157.0,137.0,21.0,-900.0,-362.0
9.0,-228.0,-109.0,212.0,150.0,131.0,24.0,-908.0,-361.0
12.0,-227.0,-108.0,217.0,142.0,129.0,28.0,-901.0,-358.0
10.0,-224.0,-111.0,219.0,137.0,126.0,32.0,-894.0,-357.0
8.0,-223.0,-107.0,220.0,136.0,129.0,22.0,-889.0,-360.0
9.0,-224.0,-113.0,218.0,132.0,130.0,24.0,-895.0,-358.0
9.0,-222.0,-109.0,213.0,129.0,130.0,27.0,-883.0,-352.0
11.0,-222.0,-108.0,208.0,122.0,126.0,33.0,-886.0,-353.0
11.0,-225.0,-108.0,200.0,120.0,125.0,36.0,-887.0,-351.0
14.0,-227.0,-107.0,193.0,119.0,118.0,38.0,-895.0,-345.0
11.0,-224.0,-106.0,189.0,116.0,114.0,42.0,-897.0,-345.0
16.0,-227.0,-109.0,186.0,113.0,105.0,49.0,-899.0,-337.0
16.0,-223.0,-108.0,179.0,111.0,98.0,53.0,-897.0,-341.0
16.0,-225.0,-103.0,172.0,109.0,91.0,57.0,-900.0,-338.0
16.0,-225.0,-102.0,167.0,104.0,86.0,58.0,-898.0,-330.0
17.0,-226.0,-105.0,162.0,99.0,76.0,58.0,-895.0,-326.0
19.0,-227.0,-103.0,158.0,93.0,73.0,59.0,-901.0,-327.0
19.0,-228.0,-100.0,151.0,87.0,65.0,64.0,-907.0,-317.0
19.0,-228.0,-99.0,142.0,83.0,63.0,71.0,-911.0,-312.0
20.0,-231.0,-95.0,132.0,80.0,57.0,67.0,-914.0,-305.0
18.0,-233.0,-99.0,118.0,78.0,59.0,71.0,-920.0,-302.0
20.0,-234.0,-98.0,102.0,75.0,55.0,70.0,-930.0,-303.0
20.0,-239.0,-96.0,81.0,71.0,55.0,71.0,-937.0,-302.0
19.0,-240.0,-96.0,62.0,68.0,53.0,70.0,-946.0,-300.0
19.0,-242.0,-95.0,43.0,65.0,56.0,73.0,-961.0,-298.0
21.0,-245.0,-97.0,29.0,63.0,53.0,66.0,-965.0,-300.0
19.0,-249.0,-94.0,20.0,60.0,56.0,58.0,-970.0,-296.0
19.0,-249.0,-97.0,23.0,59.0,54.0,61.0,-979.0,-299.0
20.0,-253.0,-95.0,31.0,61.0,55.0,58.0,-985.0,-302.0
18.0,-255.0,-93.0,47.0,63.0,51.0,57.0,-996.0,-302.0
15.0,-256.0,-95.0,69.0,66.0,52.0,50.0,-991.0,-304.0
13.0,-255.0,-97.0,94.0,67.0,48.0,45.0,-1004.0,-302.0
15.0,-257.0,-96.0,122.0,72.0,49.0,48.0,-1003.0,-302.0
10.0,-253.0,-98.0,155.0,73.0,43.0,45.0,-1011.0,-299.0
12.0,-255.0,-97.0,193.0,73.0,45.0,44.0,-996.0,-312.0
12.0,-252.0,-97.0,233.0,75.0,41.0,41.0,-986.0,-313.0
10.0,-246.0,-101.0,269.0,72.0,40.0,38.0,-974.0,-311.0
10.0,-246.0,-100.0,312.0,65.0,32.0,36.0,-963.0,-321.0
12.0,-243.0,-105.0,341.0,54.0,31.0,27.0,-949.0,-323.0
9.0,-238.0,-106.0,363.0,45.0,27.0,20.0,-940.0,-319.0
9.0,-237.0,-99.0,380.0,33.0,23.0,15.0,-924.0,-322.0
6.0,-231.0,-104.0,391.0,22.0,20.0,19.0,-914.0,-323.0
6.0,-228.0,-104.0,394.0,10.0,19.0,15.0,-900.0,-322.0
7.0,-227.0,-101.0,392.0,0.0,14.0,17.0,-890.0,-326.0
8.0,-222.0,-102.0,387.0,-9.0,11.0,16.0,-878.0,-320.0
6.0,-215.0,-105.0,378.0,-17.0,6.0,21.0,-871.0,-315.0
6.0,-216.0,-101.0,362.0,-22.0,4.0,21.0,-865.0,-317.0
9.0,-216.0,-99.0,337.0,-28.0,1.0,22.0,-854.0,-311.0
11.0,-210.0,-95.0,313.0,-34.0,4.0,23.0,-849.0,-303.0
12.0,-211.0,-96.0,281.0,-42.0,-2.0,33.0,-850.0,-302.0
13.0,-210.0,-96.0,239.0,-50.0,-3.0,51.0,-843.0,-303.0
15.0,-210.0,-94.0,189.0,-58.0,-9.0,60.0,-850.0,-303.0
20.0,-214.0,-96.0,136.0,-65.0,-11.0,64.0,-859.0,-296.0
22.0,-213.0,-96.0,81.0,-71.0,-14.0,73.0,-864.0,-299.0
23.0,-213.0,-94.0,29.0,-74.0,-15.0,75.0,-870.0,-298.0
24.0,-217.0,-92.0,-17.0,-77.0,-20.0,76.0,-869.0,-299.0
23.0,-219.0,-98.0,-57.0,-76.0,-21.0,73.0,-870.0,-304.0
22.0,-220.0,-100.0,-92.0,-73.0,-28.0,78.0,-877.0,-307.0
22.0,-223.0,-101.0,-130.0,-72.0,-31.0,82.0,-882.0,-311.0
23.0,-224.0,-99.0,-155.0,-66.0,-40.0,79.0,-893.0,-315.0
27.0,-224.0,-101.0,-177.0,-61.0,-45.0,90.0,-901.0,-323.0
25.0,-230.0,-106.0,-192.0,-57.0,-54.0,93.0,-904.0,-332.0
27.0,-234.0,-105.0,-204.0,-51.0,-58.0,94.0,-915.0,-331.0
29.0,-234.0,-108.0,-211.0,-47.0,-68.0,105.0,-922.0,-338.0
35.0,-234.0,-109.0,-214.0,-42.0,-74.0,116.0,-930.0,-346.0
39.0,-235.0,-107.0,-211.0,-37.0,-86.0,132.0,-934.0,-351.0
44.0,-240.0,-106.0,-203.0,-27.0,-91.0,148.0,-952.0,-349.0
46.0,-241.0,-109.0,-190.0,-17.0,-103.0,160.0,-953.0,-357.0
47.0,-242.0,-111.0,-171.0,-5.0,-109.0,171.0,-960.0,-362.0
49.0,-242.0,-109.0,-142.0,14.0,-117.0,179.0,-952.0,-360.0
50.0,-246.0,-110.0,-115.0,33.0,-120.0,182.0,-960.0,-363.0
49.0,-246.0,-108.0,-91.0,51.0,-125.0,185.0,-958.0,-366.0
51.0,-244.0,-115.0,-72.0,70.0,-125.0,195.0,-956.0,-371.0
54.0,-240.0,-113.0,-61.0,87.0,-126.0,194.0,-950.0,-373.0
54.0,-238.0,-114.0,-55.0,104.0,-126.0,199.0,-939.0,-370.0
58.0,-239.0,-114.0,-54.0,122.0,-129.0,209.0,-933.0,-373.0
58.0,-235.0,-109.0,-55.0,138.0,-124.0,211.0,-923.0,-366.0
57.0,-234.0,-111.0,-53.0,155.0,-124.0,213.0,-919.0,-356.0
57.0,-229.0,-108.0,-52.0,171.0,-117.0,215.0,-908.0,-350.0
60.0,-230.0,-106.0,-53.0,191.0,-113.0,220.0,-903.0,-343.0
61.0,-226.0,-105.0,-59.0,206.0,-105.0,221.0,-900.0,-329.0
61.0,-227.0,-98.0,-68.0,223.0,-99.0,228.0,-902.0,-318.0
63.0,-225.0,-99.0,-83.0,238.0,-89.0,230.0,-903.0,-305.0
63.0,-228.0,-95.0,-108.0,251.0,-82.0,242.0,-908.0,-302.0
67.0,-227.0,-96.0,-144.0,257.0,-70.0,247.0,-909.0,-301.0
68.0,-225.0,-98.0,-191.0,266.0,-59.0,249.0,-904.0,-301.0
66.0,-230.0,-95.0,-244.0,273.0,-42.0,248.0,-916.0,-292.0
67.0,-233.0,-90.0,-302.0,275.0,-34.0,241.0,-923.0,-294.0
63.0,-234.0,-91.0,-349.0,273.0,-24.0,236.0,-925.0,-291.0
58.0,-236.0,-94.0,-388.0,266.0,-19.0,222.0,-938.0,-281.0
55.0,-238.0,-91.0,-413.0,253.0,-8.0,211.0,-945.0,-284.0
53.0,-239.0,-88.0,-429.0,243.0,-4.0,208.0,-949.0,-285.0
51.0,-244.0,-96.0,-430.0,231.0,1.0,201.0,-954.0,-286.0
49.0,-243.0,-94.0,-423.0,221.0,0.0,185.0,-966.0,-293.0
48.0,-246.0,-93.0,-411.0,213.0,4.0,177.0,-965.0,-298.0
49.0,-246.0,-98.0,-396.0,206.0,0.0,180.0,-967.0,-307.0
52.0,-246.0,-97.0,-381.0,199.0,-4.0,178.0,-963.0,-318.0
47.0,-241.0,-107.0,-369.0,196.0,-12.0,179.0,-957.0,-327.0
45.0,-243.0,-107.0,-357.0,197.0,-15.0,177.0,-952.0,-335.0
48.0,-242.0,-103.0,-343.0,198.0,-20.0,170.0,-954.0,-336.0
45.0,-244.0,-106.0,-325.0,201.0,-21.0,168.0,-953.0,-328.0
45.0,-243.0,-103.0,-299.0,199.0,-27.0,171.0,-954.0,-330.0
47.0,-242.0,-99.0,-264.0,199.0,-30.0,177.0,-951.0,-324.0
49.0,-235.0,-101.0,-232.0,199.0,-34.0,173.0,-938.0,-319.0
48.0,-234.0,-102.0,-196.0,196.0,-31.0,170.0,-929.0,-328.0
49.0,-231.0,-100.0,-164.0,189.0,-33.0,179.0,-918.0,-317.0
50.0,-229.0,-100.0,-134.0,183.0,-28.0,189.0,-904.0,-314.0
52.0,-225.0,-96.0,-107.0,173.0,-27.0,195.0,-898.0,-314.0
52.0,-224.0,-100.0,-89.0,162.0,-20.0,202.0,-895.0,-308.0
54.0,-227.0,-97.0,-80.0,152.0,-17.0,206.0,-901.0,-305.0
55.0,-226.0,-99.0,-77.0,143.0,-7.0,201.0,-898.0,-303.0
54.0,-229.0,-98.0,-85.0,134.0,2.0,205.0,-900.0,-305.0
49.0,-224.0,-102.0,-104.0,119.0,15.0,191.0,-900.0,-322.0
48.0,-221.0,-109.0,-142.0,107.0,25.0,187.0,-886.0,-351.0
47.0,-214.0,-114.0,-195.0,93.0,39.0,175.0,-880.0,-378.0
48.0,-212.0,-122.0,-267.0,76.0,45.0,180.0,-867.0,-394.0
49.0,-212.0,-120.0,-349.0,63.0,55.0,185.0,-863.0,-410.0
49.0,-214.0,-117.0,-434.0,53.0,59.0,187.0,-867.0,-410.0
47.0,-221.0,-118.0,-504.0,50.0,64.0,173.0,-877.0,-391.0
45.0,-232.0,-108.0,-541.0,55.0,67.0,165.0,-904.0,-359.0
41.0,-237.0,-105.0,-540.0,65.0,71.0,143.0,-932.0,-331.0
34.0,-245.0,-100.0,-501.0,79.0,71.0,127.0,-955.0,-309.0
31.0,-249.0,-95.0,-438.0,93.0,71.0,113.0,-963.0,-298.0
31.0,-251.0,-90.0,-365.0,107.0,56.0,107.0,-978.0,-294.0
30.0,-253.0,-93.0,-287.0,114.0,44.0,100.0,-982.0,-289.0
29.0,-249.0,-91.0,-238.0,115.0,24.0,95.0,-988.0,-299.0
30.0,-252.0,-101.0,-209.0,114.0,11.0,94.0,-989.0,-314.0
26.0,-250.0,-107.0,-198.0,112.0,-2.0,94.0,-976.0,-341.0
29.0,-245.0,-113.0,-203.0,112.0,-3.0,96.0,-968.0,-362.0
32.0,-240.0,-117.0,-216.0,117.0,-9.0,98.0,-948.0,-386.0
36.0,-237.0,-123.0,-234.0,122.0,-9.0,112.0,-933.0,-409.0
35.0,-231.0,-129.0,-253.0,124.0,-14.0,125.0,-920.0,-432.0
38.0,-227.0,-130.0,-271.0,127.0,-16.0,132.0,-904.0,-454.0
38.0,-225.0,-133.0,-280.0,129.0,-20.0,145.0,-893.0,-458.0
42.0,-225.0,-130.0,-275.0,129.0,-15.0,146.0,-892.0,-439.0
39.0,-223.0,-131.0,-244.0,124.0,-15.0,149.0,-892.0,-433.0
40.0,-226.0,-125.0,-203.0,117.0,-10.0,156.0,-893.0,-433.0
44.0,-227.0,-124.0,-150.0,109.0,-12.0,166.0,-892.0,-425.0
47.0,-224.0,-120.0,-96.0,105.0,-10.0,169.0,-889.0,-418.0
46.0,-223.0,-123.0,-44.0,99.0,-12.0,166.0,-881.0,-412.0
46.0,-220.0,-119.0,0.0,90.0,-9.0,166.0,-872.0,-402.0
46.0,-217.0,-118.0,33.0,84.0,-10.0,167.0,-863.0,-400.0
47.0,-214.0,-120.0,54.0,76.0,-9.0,167.0,-857.0,-398.0
42.0,-210.0,-117.0,59.0,67.0,-9.0,153.0,-851.0,-395.0
38.0,-209.0,-118.0,47.0,57.0,-8.0,137.0,-839.0,-391.0
33.0,-208.0,-117.0,16.0,48.0,-8.0,121.0,-835.0,-386.0
29.0,-209.0,-119.0,-26.0,43.0,-4.0,105.0,-835.0,-387.0
27.0,-207.0,-116.0,-75.0,40.0,-6.0,91.0,-839.0,-390.0
22.0,-208.0,-117.0,-131.0,41.0,-6.0,80.0,-839.0,-386.0
20.0,-210.0,-118.0,-184.0,45.0,-12.0,70.0,-845.0,-393.0
20.0,-212.0,-119.0,-235.0,52.0,-13.0,60.0,-845.0,-403.0
15.0,-213.0,-119.0,-277.0,63.0,-20.0,57.0,-859.0,-404.0
15.0,-216.0,-124.0,-310.0,72.0,-27.0,55.0,-863.0,-408.0
16.0,-218.0,-126.0,-333.0,83.0,-35.0,52.0,-872.0,-413.0
13.0,-222.0,-123.0,-346.0,91.0,-40.0,46.0,-879.0,-415.0
12.0,-223.0,-127.0,-350.0,94.0,-50.0,45.0,-893.0,-423.0
15.0,-225.0,-123.0,-346.0,92.0,-55.0,43.0,-895.0,-431.0
15.0,-227.0,-132.0,-339.0,83.0,-62.0,49.0,-898.0,-436.0
14.0,-229.0,-130.0,-330.0,72.0,-63.0,46.0,-906.0,-436.0
15.0,-230.0,-131.0,-317.0,57.0,-66.0,44.0,-899.0,-445.0
12.0,-229.0,-133.0,-298.0,38.0,-65.0,40.0,-908.0,-453.0
10.0,-229.0,-130.0,-273.0,18.0,-65.0,41.0,-904.0,-447.0
11.0,-229.0,-136.0,-239.0,-4.0,-64.0,38.0,-900.0,-450.0
13.0,-228.0,-134.0,-198.0,-27.0,-63.0,40.0,-898.0,-439.0
11.0,-227.0,-128.0,-152.0,-54.0,-62.0,40.0,-903.0,-442.0
9.0,-227.0,-133.0,-103.0,-81.0,-58.0,31.0,-897.0,-440.0
7.0,-225.0,-127.0,-54.0,-108.0,-52.0,28.0,-890.0,-439.0
6.0,-224.0,-135.0,-3.0,-132.0,-50.0,22.0,-885.0,-440.0
2.0,-219.0,-129.0,30.0,-155.0,-44.0,5.0,-873.0,-441.0
-2.0,-218.0,-128.0,58.0,-176.0,-42.0,-6.0,-867.0,-430.0
-5.0,-215.0,-125.0,80.0,-197.0,-33.0,-18.0,-860.0,-425.0
-4.0,-212.0,-127.0,96.0,-214.0,-32.0,-22.0,-851.0,-422.0
-8.0,-211.0,-125.0,106.0,-229.0,-29.0,-34.0,-849.0,-415.0
-7.0,-212.0,-121.0,111.0,-236.0,-26.0,-37.0,-844.0,-417.0
-8.0,-208.0,-122.0,109.0,-243.0,-24.0,-40.0,-842.0,-413.0
-9.0,-211.0,-122.0,97.0,-245.0,-25.0,-39.0,-843.0,-410.0
-7.0,-210.0,-120.0,74.0,-247.0,-26.0,-41.0,-846.0,-407.0
-9.0,-209.0,-122.0,40.0,-248.0,-31.0,-41.0,-848.0,-409.0
-10.0,-213.0,-120.0,-8.0,-250.0,-35.0,-47.0,-855.0,-412.0
-6.0,-213.0,-118.0,-56.0,-255.0,-42.0,-27.0,-860.0,-405.0
-9.0,-214.0,-121.0,-105.0,-260.0,-51.0,-38.0,-866.0,-414.0
-8.0,-218.0,-118.0,-157.0,-263.0,-61.0,-38.0,-877.0,-406.0
-8.0,-222.0,-124.0,-207.0,-271.0,-68.0,-39.0,-885.0,-406.0
-10.0,-224.0,-122.0,-250.0,-279.0,-74.0,-34.0,-899.0,-405.0
-6.0,-231.0,-119.0,-282.0,-288.0,-79.0,-27.0,-914.0,-402.0
-4.0,-236.0,-118.0,-307.0,-294.0,-88.0,-25.0,-919.0,-397.0
0.0,-241.0,-118.0,-318.0,-300.0,-94.0,-14.0,-940.0,-398.0
-4.0,-242.0,-118.0,-320.0,-300.0,-103.0,-8.0,-958.0,-393.0
1.0,-247.0,-117.0,-306.0,-299.0,-104.0,-1.0,-970.0,-391.0
7.0,-254.0,-117.0,-278.0,-295.0,-110.0,10.0,-983.0,-393.0
2.0,-253.0,-117.0,-246.0,-288.0,-106.0,9.0,-987.0,-390.0
5.0,-254.0,-120.0,-208.0,-280.0,-104.0,13.0,-1005.0,-387.0
8.0,-259.0,-118.0,-167.0,-274.0,-97.0,17.0,-1013.0,-396.0
6.0,-256.0,-116.0,-126.0,-265.0,-93.0,18.0,-1019.0,-397.0
11.0,-257.0,-121.0,-84.0,-257.0,-84.0,22.0,-1014.0,-401.0
11.0,-259.0,-120.0,-45.0,-249.0,-78.0,26.0,-1014.0,-402.0
11.0,-256.0,-122.0,-14.0,-243.0,-67.0,21.0,-1011.0,-394.0
12.0,-256.0,-121.0,13.0,-232.0,-61.0,24.0,-1002.0,-398.0
24.0,-257.0,-117.0,36.0,-219.0,-51.0,28.0,-1009.0,-397.0
17.0,-256.0,-118.0,59.0,-196.0,-46.0,39.0,-1007.0,-396.0
16.0,-259.0,-118.0,76.0,-169.0,-38.0,42.0,-1012.0,-387.0
18.0,-253.0,-114.0,94.0,-141.0,-34.0,35.0,-1002.0,-374.0
14.0,-253.0,-116.0,114.0,-110.0,-27.0,31.0,-1000.0,-374.0
12.0,-250.0,-113.0,135.0,-81.0,-24.0,36.0,-988.0,-367.0
11.0,-247.0,-114.0,152.0,-54.0,-21.0,34.0,-985.0,-368.0
11.0,-246.0,-112.0,168.0,-31.0,-22.0,33.0,-975.0,-364.0
11.0,-247.0,-110.0,182.0,-15.0,-20.0,25.0,-966.0,-359.0
8.0,-243.0,-109.0,192.0,-4.0,-21.0,28.0,-952.0,-354.0
5.0,-237.0,-112.0,200.0,4.0,-19.0,12.0,-947.0,-356.0
5.0,-238.0,-107.0,205.0,14.0,-18.0,7.0,-934.0,-349.0
-3.0,-233.0,-107.0,206.0,21.0,-14.0,-12.0,-926.0,-354.0
-5.0,-232.0,-108.0,203.0,26.0,-10.0,-27.0,-920.0,-349.0
-7.0,-233.0,-109.0,195.0,26.0,-8.0,-36.0,-907.0,-353.0
-10.0,-229.0,-111.0,169.0,18.0,-13.0,-49.0,-906.0,-354.0
-13.0,-224.0,-108.0,141.0,10.0,-17.0,-62.0,-900.0,-352.0
-14.0,-230.0,-110.0,118.0,2.0,-20.0,-70.0,-897.0,-348.0
-16.0,-226.0,-107.0,105.0,-8.0,-22.0,-80.0,-892.0,-340.0
-18.0,-225.0,-102.0,103.0,-23.0,-28.0,-95.0,-897.0,-338.0
-21.0,-227.0,-103.0,104.0,-39.0,-33.0,-97.0,-894.0,-325.0
-25.0,-229.0,-101.0,105.0,-54.0,-37.0,-107.0,-898.0,-321.0
-19.0,-231.0,-98.0,107.0,-69.0,-41.0,-104.0,-903.0,-317.0
