acc1_x,acc1_y,acc1_z,gyro_x,gyro_y,gyro_z,acc2_x,acc2_y,acc2_z
-15.0,-248.0,-47.0,-41.0,11.0,-5.0,-47.0,-975.0,-47.0
-15.0,-251.0,-45.0,-44.0,8.0,-5.0,-46.0,-971.0,-49.0
-12.0,-251.0,-49.0,-46.0,8.0,-4.0,-46.0,-973.0,-49.0
-15.0,-249.0,-47.0,-51.0,6.0,-4.0,-49.0,-968.0,-58.0
-12.0,-251.0,-50.0,-56.0,4.0,-3.0,-53.0,-974.0,-62.0
-13.0,-253.0,-49.0,-61.0,4.0,-4.0,-41.0,-977.0,-57.0
-15.0,-251.0,-50.0,-68.0,2.0,-3.0,-50.0,-975.0,-62.0
-12.0,-252.0,-51.0,-75.0,1.0,-1.0,-46.0,-976.0,-59.0
-11.0,-252.0,-52.0,-82.0,2.0,-1.0,-45.0,-975.0,-58.0
-10.0,-252.0,-51.0,-82.0,2.0,1.0,-52.0,-971.0,-55.0
-14.0,-251.0,-48.0,-82.0,4.0,2.0,-46.0,-980.0,-57.0
-14.0,-251.0,-46.0,-82.0,6.0,3.0,-50.0,-977.0,-53.0
-14.0,-253.0,-47.0,-81.0,8.0,2.0,-48.0,-979.0,-44.0
-12.0,-254.0,-48.0,-82.0,13.0,2.0,-45.0,-978.0,-42.0
-13.0,-252.0,-44.0,-83.0,16.0,2.0,-43.0,-985.0,-42.0
-11.0,-255.0,-43.0,-81.0,18.0,2.0,-47.0,-982.0,-39.0
-15.0,-251.0,-51.0,-77.0,20.0,3.0,-46.0,-981.0,-45.0
-15.0,-253.0,-45.0,-76.0,21.0,4.0,-47.0,-984.0,-46.0
-14.0,-251.0,-47.0,-74.0,20.0,3.0,-46.0,-986.0,-53.0
-14.0,-254.0,-49.0,-75.0,20.0,4.0,-44.0,-987.0,-51.0
-14.0,-252.0,-51.0,-74.0,18.0,4.0,-44.0,-982.0,-54.0
-15.0,-255.0,-50.0,-72.0,17.0,6.0,-53.0,-979.0,-58.0
-13.0,-253.0,-49.0,-73.0,19.0,8.0,-49.0,-974.0,-54.0
-10.0,-253.0,-49.0,-72.0,21.0,7.0,-47.0,-978.0,-59.0
-12.0,-253.0,-50.0,-72.0,24.0,8.0,-50.0,-981.0,-59.0
-13.0,-253.0,-48.0,-71.0,28.0,9.0,-41.0,-974.0,-58.0
-15.0,-248.0,-49.0,-73.0,32.0,8.0,-47.0,-980.0,-63.0
-15.0,-250.0,-47.0,-73.0,33.0,8.0,-52.0,-975.0,-58.0
-11.0,-251.0,-48.0,-73.0,32.0,10.0,-42.0,-978.0,-56.0
-15.0,-252.0,-49.0,-74.0,32.0,9.0,-48.0,-978.0,-56.0
-14.0,-252.0,-51.0,-72.0,34.0,9.0,-46.0,-973.0,-58.0
-13.0,-251.0,-46.0,-71.0,37.0,10.0,-49.0,-983.0,-55.0
-15.0,-253.0,-48.0,-74.0,40.0,9.0,-49.0,-975.0,-56.0
-15.0,-254.0,-53.0,-78.0,43.0,8.0,-53.0,-974.0,-57.0
-12.0,-252.0,-48.0,-80.0,47.0,9.0,-51.0,-979.0,-56.0
-15.0,-250.0,-49.0,-82.0,49.0,7.0,-54.0,-983.0,-61.0
-13.0,-254.0,-45.0,-84.0,52.0,6.0,-51.0,-979.0,-52.0
-14.0,-256.0,-50.0,-82.0,54.0,4.0,-50.0,-983.0,-53.0
-15.0,-254.0,-50.0,-78.0,57.0,5.0,-48.0,-984.0,-52.0
-15.0,-254.0,-44.0,-75.0,60.0,2.0,-54.0,-988.0,-47.0
-13.0,-253.0,-49.0,-70.0,60.0,1.0,-51.0,-986.0,-54.0
-14.0,-254.0,-51.0,-67.0,59.0,0.0,-53.0,-985.0,-50.0
-16.0,-253.0,-47.0,-63.0,60.0,-3.0,-48.0,-984.0,-56.0
-14.0,-253.0,-50.0,-61.0,61.0,-5.0,-50.0,-981.0,-56.0
-16.0,-250.0,-49.0,-59.0,61.0,-5.0,-51.0,-984.0,-60.0
-15.0,-251.0,-48.0,-57.0,60.0,-8.0,-49.0,-976.0,-62.0
-15.0,-250.0,-55.0,-58.0,62.0,-9.0,-50.0,-977.0,-68.0
-15.0,-253.0,-53.0,-62.0,65.0,-10.0,-61.0,-980.0,-60.0
-15.0,-249.0,-49.0,-66.0,68.0,-11.0,-57.0,-979.0,-61.0
-16.0,-251.0,-48.0,-67.0,68.0,-11.0,-65.0,-981.0,-56.0
-16.0,-253.0,-46.0,-70.0,68.0,-11.0,-59.0,-981.0,-56.0
-16.0,-253.0,-48.0,-69.0,68.0,-10.0,-67.0,-976.0,-57.0
-16.0,-252.0,-47.0,-67.0,68.0,-10.0,-61.0,-986.0,-52.0
-16.0,-253.0,-46.0,-67.0,70.0,-9.0,-66.0,-982.0,-57.0
-16.0,-251.0,-48.0,-66.0,71.0,-10.0,-64.0,-981.0,-53.0
-16.0,-251.0,-50.0,-66.0,74.0,-8.0,-59.0,-985.0,-52.0
-16.0,-254.0,-49.0,-65.0,75.0,-9.0,-65.0,-983.0,-49.0
-16.0,-252.0,-47.0,-65.0,76.0,-9.0,-54.0,-979.0,-52.0
-15.0,-254.0,-49.0,-67.0,77.0,-9.0,-53.0,-978.0,-47.0
-14.0,-253.0,-49.0,-67.0,75.0,-9.0,-49.0,-979.0,-51.0
-15.0,-251.0,-47.0,-68.0,74.0,-7.0,-58.0,-972.0,-52.0
-15.0,-253.0,-48.0,-69.0,73.0,-8.0,-56.0,-979.0,-54.0
-15.0,-251.0,-52.0,-68.0,72.0,-8.0,-56.0,-979.0,-62.0
-16.0,-251.0,-49.0,-69.0,71.0,-7.0,-56.0,-978.0,-54.0
-15.0,-254.0,-49.0,-71.0,71.0,-7.0,-54.0,-977.0,-55.0
-16.0,-250.0,-51.0,-70.0,73.0,-8.0,-53.0,-984.0,-59.0
-15.0,-253.0,-49.0,-70.0,75.0,-8.0,-56.0,-977.0,-64.0
-16.0,-252.0,-53.0,-69.0,78.0,-6.0,-55.0,-982.0,-60.0
-15.0,-252.0,-49.0,-70.0,80.0,-6.0,-54.0,-982.0,-59.0
-14.0,-253.0,-56.0,-67.0,82.0,-6.0,-54.0,-980.0,-64.0
-13.0,-252.0,-51.0,-66.0,83.0,-3.0,-55.0,-985.0,-62.0
-14.0,-252.0,-53.0,-63.0,85.0,-2.0,-46.0,-978.0,-67.0
-14.0,-252.0,-49.0,-60.0,87.0,-3.0,-49.0,-978.0,-58.0
-14.0,-252.0,-51.0,-57.0,90.0,-4.0,-49.0,-982.0,-59.0
-13.0,-251.0,-46.0,-54.0,92.0,-3.0,-48.0,-978.0,-58.0
-14.0,-250.0,-52.0,-54.0,95.0,-1.0,-48.0,-978.0,-54.0
-15.0,-250.0,-50.0,-54.0,97.0,-2.0,-44.0,-972.0,-55.0
-14.0,-250.0,-45.0,-54.0,96.0,-4.0,-49.0,-975.0,-55.0
-15.0,-251.0,-49.0,-54.0,99.0,-4.0,-46.0,-975.0,-58.0
-12.0,-251.0,-51.0,-55.0,98.0,-5.0,-47.0,-976.0,-54.0
-16.0,-250.0,-42.0,-57.0,100.0,-4.0,-49.0,-974.0,-63.0
-15.0,-250.0,-51.0,-59.0,102.0,-6.0,-52.0,-971.0,-65.0
-14.0,-250.0,-49.0,-61.0,101.0,-6.0,-58.0,-976.0,-61.0
-16.0,-252.0,-51.0,-61.0,103.0,-6.0,-65.0,-972.0,-62.0
-15.0,-251.0,-50.0,-64.0,105.0,-8.0,-62.0,-977.0,-58.0
-16.0,-252.0,-52.0,-66.0,108.0,-10.0,-57.0,-976.0,-63.0
-14.0,-252.0,-53.0,-70.0,112.0,-12.0,-66.0,-976.0,-58.0
-14.0,-253.0,-48.0,-72.0,115.0,-11.0,-66.0,-974.0,-60.0
-16.0,-250.0,-47.0,-77.0,118.0,-10.0,-69.0,-974.0,-61.0
-16.0,-252.0,-49.0,-78.0,120.0,-11.0,-62.0,-973.0,-53.0
-16.0,-253.0,-50.0,-81.0,122.0,-11.0,-62.0,-977.0,-58.0
-15.0,-251.0,-47.0,-83.0,124.0,-10.0,-56.0,-976.0,-55.0
-16.0,-250.0,-50.0,-85.0,126.0,-9.0,-59.0,-973.0,-59.0
-14.0,-252.0,-46.0,-86.0,128.0,-9.0,-50.0,-974.0,-58.0
-15.0,-249.0,-51.0,-89.0,130.0,-8.0,-55.0,-970.0,-58.0
-14.0,-250.0,-51.0,-91.0,131.0,-7.0,-54.0,-974.0,-59.0
-16.0,-249.0,-54.0,-93.0,132.0,-7.0,-52.0,-974.0,-64.0
-13.0,-252.0,-51.0,-94.0,133.0,-7.0,-52.0,-975.0,-61.0
-15.0,-250.0,-51.0,-94.0,132.0,-4.0,-54.0,-975.0,-63.0
-14.0,-251.0,-50.0,-93.0,133.0,-5.0,-53.0,-974.0,-65.0
-15.0,-252.0,-49.0,-93.0,133.0,-4.0,-51.0,-974.0,-62.0
-15.0,-253.0,-48.0,-94.0,134.0,-4.0,-52.0,-973.0,-67.0
-18.0,-250.0,-57.0,-95.0,138.0,-4.0,-56.0,-975.0,-67.0
-16.0,-253.0,-57.0,-96.0,139.0,-3.0,-54.0,-977.0,-70.0
-16.0,-250.0,-53.0,-99.0,142.0,-2.0,-64.0,-975.0,-71.0
-16.0,-252.0,-52.0,-100.0,145.0,-1.0,-56.0,-981.0,-69.0
-14.0,-252.0,-52.0,-100.0,147.0,0.0,-60.0,-977.0,-71.0
-15.0,-256.0,-54.0,-100.0,149.0,1.0,-65.0,-979.0,-75.0
-15.0,-251.0,-53.0,-99.0,151.0,1.0,-57.0,-978.0,-74.0
-13.0,-253.0,-51.0,-98.0,156.0,0.0,-61.0,-984.0,-70.0
-15.0,-252.0,-54.0,-97.0,159.0,-1.0,-54.0,-980.0,-71.0
-17.0,-250.0,-52.0,-95.0,160.0,-3.0,-57.0,-980.0,-68.0
-13.0,-256.0,-52.0,-92.0,164.0,-4.0,-56.0,-976.0,-61.0
-15.0,-251.0,-52.0,-91.0,167.0,-5.0,-50.0,-977.0,-69.0
-15.0,-250.0,-50.0,-91.0,168.0,-6.0,-56.0,-978.0,-66.0
-13.0,-251.0,-52.0,-89.0,170.0,-8.0,-60.0,-985.0,-69.0
-13.0,-252.0,-52.0,-91.0,172.0,-8.0,-53.0,-975.0,-77.0
-16.0,-252.0,-55.0,-96.0,173.0,-8.0,-50.0,-980.0,-77.0
-14.0,-252.0,-52.0,-100.0,173.0,-8.0,-46.0,-975.0,-73.0
-14.0,-251.0,-55.0,-103.0,176.0,-10.0,-51.0,-979.0,-76.0
-12.0,-253.0,-51.0,-103.0,179.0,-13.0,-49.0,-980.0,-71.0
-14.0,-252.0,-54.0,-103.0,183.0,-14.0,-43.0,-981.0,-78.0
-12.0,-252.0,-53.0,-98.0,187.0,-16.0,-44.0,-980.0,-75.0
-13.0,-252.0,-50.0,-96.0,189.0,-20.0,-47.0,-982.0,-74.0
-13.0,-255.0,-54.0,-90.0,192.0,-22.0,-42.0,-979.0,-72.0
-12.0,-251.0,-52.0,-87.0,193.0,-25.0,-46.0,-982.0,-69.0
-12.0,-253.0,-52.0,-84.0,193.0,-26.0,-44.0,-979.0,-70.0
-15.0,-251.0,-56.0,-87.0,194.0,-28.0,-46.0,-981.0,-75.0
-15.0,-250.0,-55.0,-89.0,194.0,-31.0,-48.0,-978.0,-77.0
-15.0,-252.0,-53.0,-92.0,195.0,-31.0,-47.0,-977.0,-76.0
-13.0,-253.0,-53.0,-92.0,195.0,-32.0,-41.0,-974.0,-76.0
-13.0,-249.0,-52.0,-94.0,196.0,-32.0,-48.0,-968.0,-74.0
-14.0,-250.0,-54.0,-91.0,201.0,-35.0,-44.0,-968.0,-71.0
-15.0,-250.0,-49.0,-89.0,206.0,-37.0,-51.0,-974.0,-67.0
-12.0,-249.0,-49.0,-84.0,210.0,-38.0,-49.0,-968.0,-66.0
-15.0,-250.0,-54.0,-82.0,215.0,-40.0,-41.0,-969.0,-66.0
-14.0,-249.0,-52.0,-83.0,216.0,-41.0,-44.0,-969.0,-73.0
-11.0,-251.0,-50.0,-85.0,217.0,-43.0,-37.0,-969.0,-66.0
-9.0,-251.0,-54.0,-91.0,220.0,-43.0,-30.0,-969.0,-73.0
-10.0,-250.0,-55.0,-98.0,222.0,-44.0,-33.0,-974.0,-73.0
-9.0,-250.0,-56.0,-108.0,224.0,-44.0,-32.0,-976.0,-73.0
-6.0,-250.0,-53.0,-118.0,225.0,-44.0,-25.0,-974.0,-75.0
-7.0,-254.0,-55.0,-126.0,224.0,-45.0,-26.0,-977.0,-80.0
-8.0,-257.0,-56.0,-133.0,222.0,-45.0,-26.0,-982.0,-78.0
-9.0,-255.0,-57.0,-141.0,219.0,-43.0,-29.0,-991.0,-78.0
-11.0,-254.0,-54.0,-143.0,214.0,-43.0,-28.0,-989.0,-82.0
-11.0,-259.0,-55.0,-144.0,210.0,-43.0,-30.0,-996.0,-80.0
-12.0,-258.0,-54.0,-140.0,209.0,-41.0,-38.0,-994.0,-82.0
-13.0,-259.0,-54.0,-131.0,205.0,-41.0,-42.0,-996.0,-82.0
-12.0,-256.0,-51.0,-120.0,204.0,-39.0,-40.0,-992.0,-87.0
-10.0,-258.0,-56.0,-108.0,202.0,-37.0,-41.0,-986.0,-81.0
-12.0,-253.0,-54.0,-95.0,202.0,-37.0,-45.0,-983.0,-83.0
-11.0,-255.0,-55.0,-80.0,202.0,-35.0,-39.0,-986.0,-86.0
-12.0,-252.0,-54.0,-70.0,204.0,-35.0,-40.0,-982.0,-89.0
-13.0,-251.0,-57.0,-61.0,206.0,-34.0,-38.0,-978.0,-87.0
-10.0,-250.0,-56.0,-57.0,208.0,-33.0,-32.0,-975.0,-85.0
-8.0,-252.0,-57.0,-58.0,208.0,-33.0,-29.0,-976.0,-81.0
-6.0,-251.0,-54.0,-62.0,209.0,-32.0,-30.0,-978.0,-80.0
-9.0,-264.0,-53.0,-65.0,208.0,-32.0,-26.0,-977.0,-81.0
-11.0,-254.0,-52.0,-68.0,207.0,-30.0,-21.0,-977.0,-81.0
-8.0,-260.0,-62.0,-69.0,205.0,-30.0,-21.0,-976.0,-86.0
-12.0,-250.0,-52.0,-70.0,205.0,-28.0,-24.0,-980.0,-84.0
-4.0,-251.0,-57.0,-67.0,202.0,-26.0,-21.0,-984.0,-80.0
-5.0,-249.0,-55.0,-63.0,198.0,-24.0,-22.0,-983.0,-88.0
-5.0,-252.0,-55.0,-61.0,196.0,-21.0,-22.0,-975.0,-89.0
-10.0,-258.0,-56.0,-55.0,192.0,-19.0,-26.0,-979.0,-88.0
-9.0,-254.0,-60.0,-53.0,188.0,-16.0,-29.0,-975.0,-90.0
-8.0,-256.0,-53.0,-50.0,183.0,-14.0,-27.0,-979.0,-89.0
-11.0,-251.0,-58.0,-49.0,180.0,-12.0,-33.0,-975.0,-93.0
-10.0,-250.0,-55.0,-52.0,176.0,-8.0,-35.0,-972.0,-92.0
-9.0,-250.0,-60.0,-57.0,173.0,-5.0,-37.0,-975.0,-93.0
-12.0,-249.0,-57.0,-66.0,173.0,-4.0,-36.0,-975.0,-96.0
-9.0,-262.0,-41.0,-72.0,175.0,-1.0,-30.0,-972.0,-97.0
-2.0,-263.0,-49.0,-75.0,177.0,0.0,-34.0,-969.0,-99.0
-8.0,-257.0,-88.0,-81.0,179.0,1.0,-27.0,-974.0,-104.0
-10.0,-266.0,-63.0,-84.0,183.0,0.0,-24.0,-968.0,-100.0
14.0,-247.0,-57.0,-85.0,185.0,0.0,-22.0,-974.0,-95.0
-6.0,-260.0,-53.0,-87.0,186.0,0.0,-25.0,-972.0,-94.0
-8.0,-239.0,-56.0,-90.0,187.0,1.0,-22.0,-976.0,-89.0
-7.0,-244.0,-83.0,-92.0,186.0,0.0,-16.0,-972.0,-95.0
-8.0,-247.0,-52.0,-95.0,186.0,1.0,-20.0,-976.0,-91.0
-8.0,-268.0,-52.0,-96.0,185.0,1.0,-14.0,-976.0,-92.0
-4.0,-240.0,-62.0,-97.0,186.0,1.0,-11.0,-979.0,-91.0
-2.0,-252.0,-59.0,-95.0,186.0,-1.0,-12.0,-976.0,-87.0
-2.0,-251.0,-61.0,-90.0,186.0,0.0,-12.0,-975.0,-88.0
-3.0,-250.0,-56.0,-86.0,187.0,-1.0,-12.0,-976.0,-91.0
-5.0,-250.0,-57.0,-83.0,186.0,-1.0,-12.0,-967.0,-95.0
-5.0,-249.0,-60.0,-84.0,187.0,-1.0,-11.0,-971.0,-95.0
-2.0,-254.0,-55.0,-88.0,187.0,-1.0,-20.0,-966.0,-98.0
7.0,-247.0,-60.0,-96.0,184.0,-1.0,-20.0,-965.0,-98.0
-5.0,-247.0,-65.0,-108.0,180.0,0.0,-19.0,-964.0,-106.0
-4.0,-250.0,-55.0,-119.0,174.0,2.0,-20.0,-968.0,-104.0
-6.0,-252.0,-58.0,-131.0,171.0,4.0,-25.0,-972.0,-106.0
-4.0,-250.0,-58.0,-141.0,165.0,5.0,-23.0,-966.0,-103.0
-9.0,-251.0,-62.0,-149.0,164.0,5.0,-25.0,-971.0,-97.0
-7.0,-254.0,-58.0,-155.0,163.0,8.0,-24.0,-973.0,-99.0
-5.0,-253.0,-65.0,-156.0,160.0,9.0,-30.0,-974.0,-97.0
-8.0,-255.0,-58.0,-155.0,159.0,10.0,-25.0,-976.0,-96.0
-7.0,-250.0,-63.0,-155.0,158.0,12.0,-24.0,-974.0,-93.0
-8.0,-253.0,-59.0,-151.0,157.0,13.0,-24.0,-975.0,-94.0
-7.0,-253.0,-58.0,-149.0,156.0,13.0,-29.0,-979.0,-99.0
-9.0,-249.0,-60.0,-147.0,156.0,15.0,-29.0,-973.0,-97.0
-8.0,-249.0,-59.0,-146.0,158.0,18.0,-28.0,-972.0,-104.0
-7.0,-251.0,-68.0,-147.0,158.0,18.0,-21.0,-973.0,-102.0
-13.0,-254.0,-62.0,-148.0,159.0,17.0,-17.0,-967.0,-105.0
-3.0,-250.0,-51.0,-153.0,161.0,14.0,-15.0,-974.0,-105.0
-8.0,-244.0,-71.0,-155.0,162.0,12.0,-19.0,-971.0,-107.0
-12.0,-239.0,-71.0,-157.0,162.0,10.0,-16.0,-975.0,-104.0
3.0,-241.0,-73.0,-158.0,160.0,9.0,-17.0,-973.0,-106.0
-8.0,-262.0,-72.0,-158.0,158.0,8.0,-14.0,-978.0,-99.0
-1.0,-262.0,-47.0,-159.0,154.0,8.0,-17.0,-982.0,-101.0
-5.0,-272.0,-42.0,-158.0,148.0,7.0,-15.0,-985.0,-109.0
4.0,-256.0,-73.0,-153.0,141.0,9.0,-20.0,-986.0,-104.0
-8.0,-249.0,-61.0,-148.0,138.0,9.0,-24.0,-986.0,-107.0
-6.0,-261.0,-43.0,-138.0,134.0,9.0,-21.0,-987.0,-106.0
-7.0,-253.0,-61.0,-129.0,131.0,10.0,-22.0,-986.0,-109.0
-7.0,-256.0,-62.0,-121.0,128.0,10.0,-24.0,-985.0,-111.0
-8.0,-254.0,-61.0,-112.0,126.0,12.0,-23.0,-983.0,-113.0
-8.0,-251.0,-62.0,-106.0,124.0,11.0,-23.0,-977.0,-118.0
-1.0,-260.0,-50.0,-102.0,120.0,10.0,-26.0,-976.0,-121.0
-2.0,-247.0,-60.0,-100.0,117.0,11.0,-30.0,-971.0,-126.0
-6.0,-247.0,-64.0,-102.0,112.0,12.0,-28.0,-976.0,-121.0
-7.0,-252.0,-56.0,-106.0,111.0,11.0,-25.0,-973.0,-119.0
-6.0,-251.0,-60.0,-110.0,109.0,11.0,-26.0,-976.0,-117.0
1.0,-248.0,-61.0,-115.0,108.0,10.0,-24.0,-971.0,-116.0
0.0,-253.0,-46.0,-120.0,104.0,9.0,-24.0,-982.0,-113.0
-6.0,-260.0,-53.0,-124.0,104.0,10.0,-20.0,-982.0,-104.0
-4.0,-251.0,-62.0,-127.0,99.0,9.0,-22.0,-989.0,-106.0
-2.0,-250.0,-62.0,-126.0,93.0,8.0,-20.0,-990.0,-109.0
-5.0,-257.0,-59.0,-121.0,85.0,10.0,-24.0,-994.0,-107.0
-8.0,-257.0,-58.0,-116.0,78.0,9.0,-23.0,-989.0,-107.0
-10.0,-256.0,-61.0,-109.0,70.0,7.0,-26.0,-989.0,-110.0
-9.0,-259.0,-62.0,-100.0,62.0,7.0,-27.0,-997.0,-115.0
-10.0,-253.0,-62.0,-91.0,54.0,8.0,-27.0,-999.0,-116.0
-11.0,-259.0,-62.0,-83.0,46.0,8.0,-32.0,-986.0,-120.0
-12.0,-256.0,-64.0,-77.0,38.0,6.0,-37.0,-989.0,-131.0
-7.0,-259.0,-68.0,-70.0,29.0,5.0,-36.0,-989.0,-129.0
-13.0,-257.0,-72.0,-65.0,20.0,2.0,-39.0,-990.0,-132.0
-14.0,-259.0,-69.0,-61.0,14.0,-1.0,-39.0,-985.0,-134.0
-15.0,-249.0,-72.0,-56.0,7.0,-3.0,-42.0,-982.0,-136.0
-11.0,-250.0,-66.0,-53.0,2.0,-6.0,-42.0,-981.0,-137.0
-12.0,-250.0,-53.0,-51.0,0.0,-8.0,-42.0,-982.0,-135.0
-9.0,-255.0,-66.0,-48.0,-1.0,-10.0,-43.0,-986.0,-135.0
-14.0,-249.0,-64.0,-49.0,-2.0,-10.0,-42.0,-981.0,-133.0
-6.0,-255.0,-65.0,-48.0,-1.0,-12.0,-42.0,-983.0,-125.0
-16.0,-258.0,-67.0,-46.0,-2.0,-15.0,-44.0,-986.0,-123.0
-11.0,-255.0,-68.0,-42.0,-4.0,-16.0,-38.0,-985.0,-121.0
-12.0,-255.0,-66.0,-39.0,-7.0,-18.0,-40.0,-987.0,-124.0
-8.0,-257.0,-61.0,-35.0,-13.0,-20.0,-36.0,-986.0,-123.0
-9.0,-256.0,-69.0,-32.0,-19.0,-21.0,-36.0,-989.0,-121.0
-12.0,-258.0,-62.0,-29.0,-26.0,-21.0,-33.0,-986.0,-126.0
-8.0,-258.0,-61.0,-28.0,-32.0,-23.0,-30.0,-983.0,-129.0
-6.0,-256.0,-63.0,-27.0,-37.0,-24.0,-22.0,-981.0,-132.0
-10.0,-251.0,-80.0,-27.0,-41.0,-23.0,-29.0,-983.0,-133.0
-8.0,-253.0,-66.0,-27.0,-42.0,-24.0,-24.0,-977.0,-135.0
-7.0,-249.0,-67.0,-23.0,-43.0,-25.0,-24.0,-972.0,-138.0
-7.0,-249.0,-67.0,-21.0,-43.0,-25.0,-22.0,-974.0,-141.0
-8.0,-251.0,-68.0,-18.0,-41.0,-25.0,-16.0,-964.0,-142.0
8.0,-231.0,-93.0,-17.0,-39.0,-24.0,-12.0,-966.0,-134.0
-6.0,-249.0,-63.0,-17.0,-36.0,-24.0,-22.0,-967.0,-142.0
-5.0,-251.0,-73.0,-16.0,-35.0,-23.0,-18.0,-965.0,-140.0
-7.0,-248.0,-70.0,-14.0,-33.0,-22.0,-18.0,-968.0,-142.0
-5.0,-247.0,-71.0,-12.0,-32.0,-20.0,-18.0,-974.0,-142.0
-8.0,-250.0,-68.0,-12.0,-33.0,-19.0,-17.0,-971.0,-143.0
-6.0,-249.0,-68.0,-11.0,-34.0,-16.0,-15.0,-970.0,-137.0
-4.0,-251.0,-68.0,-9.0,-34.0,-16.0,-14.0,-975.0,-139.0
-3.0,-249.0,-70.0,-7.0,-34.0,-15.0,-14.0,-976.0,-138.0
-2.0,-252.0,-68.0,-4.0,-33.0,-15.0,-6.0,-975.0,-140.0
-7.0,-251.0,-60.0,1.0,-29.0,-14.0,-8.0,-977.0,-141.0
-2.0,-252.0,-68.0,4.0,-24.0,-15.0,-5.0,-974.0,-138.0
1.0,-254.0,-69.0,9.0,-20.0,-13.0,-4.0,-972.0,-139.0
-3.0,-251.0,-69.0,12.0,-18.0,-14.0,-3.0,-971.0,-139.0
3.0,-256.0,-66.0,16.0,-14.0,-13.0,-1.0,-974.0,-136.0
0.0,-251.0,-71.0,13.0,-12.0,-12.0,-5.0,-970.0,-134.0
-3.0,-251.0,-67.0,10.0,-8.0,-12.0,-12.0,-969.0,-139.0
-4.0,-250.0,-70.0,4.0,-4.0,-14.0,-7.0,-966.0,-138.0
-1.0,-250.0,-65.0,-4.0,-1.0,-12.0,-11.0,-967.0,-134.0
4.0,-254.0,-63.0,-14.0,2.0,-11.0,-12.0,-965.0,-135.0
-3.0,-250.0,-67.0,-21.0,8.0,-9.0,-13.0,-966.0,-131.0
-5.0,-251.0,-65.0,-28.0,12.0,-8.0,-16.0,-969.0,-131.0
-5.0,-249.0,-64.0,-32.0,19.0,-7.0,-18.0,-970.0,-123.0
-3.0,-250.0,-65.0,-30.0,23.0,-5.0,-21.0,-966.0,-118.0
-6.0,-251.0,-63.0,-26.0,26.0,-3.0,-23.0,-973.0,-118.0
-8.0,-251.0,-64.0,-20.0,27.0,-2.0,-22.0,-969.0,-119.0
-6.0,-250.0,-60.0,-14.0,26.0,0.0,-23.0,-972.0,-118.0
-8.0,-252.0,-61.0,-10.0,26.0,-1.0,-25.0,-967.0,-116.0
-7.0,-249.0,-64.0,-9.0,26.0,0.0,-23.0,-967.0,-125.0
-8.0,-250.0,-66.0,-11.0,24.0,0.0,-23.0,-969.0,-127.0
-7.0,-249.0,-68.0,-17.0,22.0,0.0,-23.0,-968.0,-131.0
-8.0,-247.0,-66.0,-28.0,22.0,-1.0,-21.0,-967.0,-135.0
-6.0,-253.0,-70.0,-41.0,24.0,1.0,-21.0,-967.0,-138.0
-5.0,-249.0,-68.0,-55.0,25.0,1.0,-25.0,-964.0,-141.0
-7.0,-250.0,-67.0,-64.0,25.0,1.0,-22.0,-973.0,-140.0
-8.0,-249.0,-70.0,-71.0,27.0,3.0,-22.0,-973.0,-133.0
-9.0,-252.0,-66.0,-72.0,28.0,2.0,-23.0,-970.0,-128.0
-10.0,-252.0,-67.0,-70.0,28.0,4.0,-27.0,-970.0,-123.0
-7.0,-250.0,-61.0,-58.0,27.0,3.0,-29.0,-974.0,-124.0
-11.0,-253.0,-62.0,-49.0,27.0,3.0,-31.0,-972.0,-122.0
-7.0,-253.0,-66.0,-40.0,24.0,3.0,-34.0,-974.0,-121.0
-14.0,-252.0,-68.0,-35.0,20.0,5.0,-34.0,-970.0,-124.0
-11.0,-249.0,-63.0,-32.0,17.0,5.0,-34.0,-973.0,-120.0
-10.0,-249.0,-64.0,-33.0,14.0,7.0,-34.0,-971.0,-124.0
-9.0,-249.0,-66.0,-37.0,9.0,8.0,-34.0,-973.0,-129.0
-9.0,-252.0,-64.0,-43.0,6.0,6.0,-35.0,-974.0,-126.0
-9.0,-252.0,-66.0,-51.0,5.0,5.0,-34.0,-975.0,-123.0
-7.0,-253.0,-68.0,-59.0,5.0,7.0,-32.0,-974.0,-132.0
-7.0,-253.0,-63.0,-67.0,4.0,6.0,-27.0,-978.0,-121.0
-6.0,-253.0,-63.0,-72.0,8.0,5.0,-32.0,-979.0,-121.0
-9.0,-252.0,-63.0,-77.0,12.0,5.0,-25.0,-979.0,-119.0
-7.0,-253.0,-64.0,-76.0,17.0,5.0,-24.0,-981.0,-117.0
-4.0,-254.0,-62.0,-73.0,21.0,5.0,-24.0,-981.0,-110.0
-3.0,-252.0,-60.0,-68.0,20.0,5.0,-22.0,-975.0,-117.0
-6.0,-255.0,-60.0,-59.0,18.0,4.0,-30.0,-981.0,-112.0
-7.0,-254.0,-62.0,-52.0,16.0,4.0,-26.0,-978.0,-115.0
-6.0,-252.0,-60.0,-46.0,11.0,3.0,-27.0,-974.0,-118.0
-6.0,-252.0,-63.0,-44.0,4.0,2.0,-29.0,-974.0,-114.0
-11.0,-247.0,-62.0,-44.0,-4.0,2.0,-29.0,-973.0,-122.0
-7.0,-251.0,-64.0,-47.0,-4.0,3.0,-26.0,-974.0,-122.0
-7.0,-250.0,-64.0,-48.0,-4.0,3.0,-28.0,-965.0,-122.0
-11.0,-249.0,-61.0,-52.0,-2.0,4.0,-32.0,-971.0,-125.0
-7.0,-249.0,-74.0,-56.0,-4.0,3.0,-38.0,-966.0,-125.0
-11.0,-252.0,-66.0,-60.0,-6.0,3.0,-35.0,-967.0,-126.0
-12.0,-251.0,-65.0,-63.0,-7.0,3.0,-36.0,-969.0,-115.0
-13.0,-249.0,-64.0,-65.0,-9.0,4.0,-40.0,-971.0,-119.0
-11.0,-251.0,-61.0,-68.0,-8.0,2.0,-35.0,-975.0,-115.0
-11.0,-248.0,-63.0,-69.0,-7.0,3.0,-39.0,-973.0,-113.0
-9.0,-252.0,-61.0,-69.0,-7.0,2.0,-34.0,-970.0,-114.0
-8.0,-250.0,-62.0,-67.0,-5.0,1.0,-34.0,-977.0,-108.0
-11.0,-253.0,-61.0,-67.0,-5.0,-2.0,-33.0,-974.0,-108.0
-8.0,-252.0,-58.0,-64.0,-6.0,-4.0,-34.0,-972.0,-109.0
-10.0,-253.0,-60.0,-62.0,-8.0,-6.0,-35.0,-975.0,-106.0
-12.0,-252.0,-63.0,-57.0,-10.0,-8.0,-33.0,-977.0,-104.0
-10.0,-250.0,-61.0,-55.0,-13.0,-8.0,-34.0,-974.0,-108.0
-10.0,-254.0,-61.0,-55.0,-15.0,-10.0,-40.0,-974.0,-111.0
-11.0,-253.0,-60.0,-56.0,-19.0,-9.0,-37.0,-972.0,-112.0
-12.0,-251.0,-65.0,-56.0,-24.0,-8.0,-37.0,-974.0,-113.0
-13.0,-253.0,-65.0,-56.0,-28.0,-8.0,-40.0,-973.0,-113.0
-10.0,-250.0,-59.0,-58.0,-31.0,-8.0,-38.0,-974.0,-116.0
-10.0,-251.0,-62.0,-61.0,-35.0,-7.0,-37.0,-973.0,-121.0
-11.0,-252.0,-63.0,-66.0,-36.0,-8.0,-40.0,-977.0,-115.0
-8.0,-253.0,-64.0,-70.0,-37.0,-8.0,-39.0,-975.0,-120.0
-10.0,-254.0,-62.0,-73.0,-39.0,-6.0,-40.0,-977.0,-122.0
-12.0,-253.0,-62.0,-73.0,-39.0,-6.0,-36.0,-977.0,-117.0
-11.0,-254.0,-62.0,-71.0,-39.0,-5.0,-36.0,-977.0,-116.0
-12.0,-250.0,-62.0,-70.0,-38.0,-6.0,-33.0,-978.0,-114.0
-10.0,-254.0,-58.0,-66.0,-38.0,-7.0,-36.0,-977.0,-115.0
-11.0,-249.0,-61.0,-61.0,-38.0,-7.0,-36.0,-973.0,-116.0
-9.0,-248.0,-62.0,-59.0,-35.0,-3.0,-32.0,-976.0,-110.0
-11.0,-250.0,-60.0,-58.0,-34.0,-4.0,-36.0,-971.0,-114.0
-12.0,-250.0,-61.0,-53.0,-36.0,-5.0,-32.0,-969.0,-110.0
-10.0,-251.0,-60.0,-50.0,-38.0,-5.0,-24.0,-971.0,-111.0
-7.0,-251.0,-62.0,-44.0,-39.0,-6.0,-28.0,-972.0,-107.0
-7.0,-251.0,-61.0,-44.0,-40.0,-7.0,-30.0,-968.0,-116.0
-8.0,-252.0,-58.0,-44.0,-42.0,-9.0,-31.0,-958.0,-109.0
-9.0,-252.0,-62.0,-45.0,-45.0,-9.0,-26.0,-968.0,-112.0
-11.0,-250.0,-63.0,-46.0,-46.0,-9.0,-36.0,-970.0,-110.0
-14.0,-250.0,-58.0,-49.0,-46.0,-11.0,-37.0,-967.0,-114.0
-11.0,-249.0,-60.0,-57.0,-49.0,-10.0,-37.0,-971.0,-111.0
-11.0,-250.0,-67.0,-61.0,-51.0,-11.0,-42.0,-973.0,-115.0
-11.0,-250.0,-62.0,-66.0,-52.0,-12.0,-36.0,-970.0,-117.0
-15.0,-248.0,-63.0,-68.0,-53.0,-12.0,-45.0,-970.0,-117.0
-13.0,-251.0,-67.0,-70.0,-56.0,-12.0,-44.0,-971.0,-124.0
-15.0,-250.0,-61.0,-72.0,-56.0,-11.0,-46.0,-973.0,-120.0
-11.0,-252.0,-62.0,-71.0,-56.0,-12.0,-47.0,-974.0,-116.0
-13.0,-251.0,-61.0,-67.0,-55.0,-10.0,-45.0,-972.0,-117.0
-14.0,-253.0,-64.0,-66.0,-55.0,-10.0,-47.0,-973.0,-113.0
-14.0,-251.0,-62.0,-64.0,-57.0,-7.0,-45.0,-970.0,-114.0
-13.0,-253.0,-61.0,-63.0,-59.0,-6.0,-47.0,-974.0,-112.0
-14.0,-251.0,-60.0,-61.0,-62.0,-4.0,-47.0,-977.0,-110.0
-15.0,-250.0,-61.0,-58.0,-63.0,-3.0,-47.0,-975.0,-113.0
-10.0,-254.0,-67.0,-56.0,-66.0,-2.0,-48.0,-978.0,-114.0
-16.0,-251.0,-59.0,-54.0,-70.0,-2.0,-45.0,-976.0,-116.0
-11.0,-252.0,-61.0,-52.0,-73.0,-1.0,-47.0,-979.0,-114.0
-14.0,-253.0,-60.0,-49.0,-78.0,-2.0,-43.0,-981.0,-119.0
-12.0,-254.0,-63.0,-49.0,-81.0,0.0,-44.0,-978.0,-118.0
-15.0,-250.0,-64.0,-49.0,-85.0,1.0,-42.0,-977.0,-123.0
-13.0,-251.0,-64.0,-48.0,-88.0,2.0,-48.0,-974.0,-121.0
-13.0,-251.0,-63.0,-48.0,-89.0,2.0,-44.0,-980.0,-121.0
-14.0,-249.0,-64.0,-45.0,-91.0,3.0,-47.0,-978.0,-120.0
-12.0,-252.0,-63.0,-45.0,-91.0,3.0,-51.0,-975.0,-121.0
-14.0,-252.0,-64.0,-46.0,-92.0,4.0,-46.0,-976.0,-120.0
-15.0,-252.0,-64.0,-46.0,-92.0,4.0,-45.0,-976.0,-120.0
-14.0,-251.0,-60.0,-46.0,-93.0,5.0,-46.0,-974.0,-122.0
-13.0,-251.0,-64.0,-46.0,-95.0,8.0,-46.0,-976.0,-115.0
-14.0,-251.0,-59.0,-45.0,-98.0,8.0,-51.0,-977.0,-114.0
-15.0,-251.0,-63.0,-44.0,-100.0,7.0,-49.0,-972.0,-110.0
-15.0,-250.0,-63.0,-43.0,-104.0,8.0,-51.0,-977.0,-105.0
-13.0,-252.0,-61.0,-44.0,-107.0,6.0,-51.0,-973.0,-109.0
-14.0,-248.0,-63.0,-45.0,-111.0,7.0,-51.0,-975.0,-107.0
-12.0,-251.0,-63.0,-44.0,-115.0,6.0,-49.0,-974.0,-104.0
-15.0,-247.0,-61.0,-43.0,-119.0,3.0,-50.0,-975.0,-112.0
-11.0,-252.0,-62.0,-44.0,-119.0,1.0,-47.0,-972.0,-111.0
-12.0,-252.0,-63.0,-45.0,-119.0,-1.0,-38.0,-967.0,-109.0
-13.0,-250.0,-61.0,-46.0,-119.0,-4.0,-47.0,-968.0,-114.0
-12.0,-250.0,-59.0,-50.0,-119.0,-6.0,-49.0,-963.0,-113.0
-15.0,-248.0,-60.0,-53.0,-117.0,-8.0,-47.0,-966.0,-112.0
-13.0,-249.0,-64.0,-56.0,-116.0,-8.0,-50.0,-966.0,-115.0
-14.0,-248.0,-62.0,-58.0,-118.0,-9.0,-47.0,-965.0,-112.0
-15.0,-248.0,-61.0,-61.0,-120.0,-13.0,-47.0,-965.0,-119.0
-13.0,-249.0,-62.0,-65.0,-122.0,-14.0,-52.0,-966.0,-114.0
-14.0,-250.0,-59.0,-70.0,-125.0,-14.0,-49.0,-972.0,-119.0
-15.0,-251.0,-63.0,-75.0,-129.0,-17.0,-48.0,-968.0,-115.0
-13.0,-249.0,-60.0,-79.0,-134.0,-18.0,-49.0,-967.0,-116.0
-15.0,-251.0,-63.0,-82.0,-139.0,-18.0,-49.0,-970.0,-115.0
-15.0,-250.0,-61.0,-83.0,-142.0,-18.0,-57.0,-968.0,-119.0
-14.0,-250.0,-63.0,-83.0,-145.0,-17.0,-56.0,-970.0,-119.0
-13.0,-252.0,-63.0,-80.0,-147.0,-16.0,-56.0,-972.0,-116.0
-16.0,-249.0,-65.0,-78.0,-151.0,-14.0,-50.0,-971.0,-115.0
-15.0,-254.0,-65.0,-74.0,-153.0,-16.0,-55.0,-971.0,-115.0
-15.0,-253.0,-63.0,-76.0,-156.0,-16.0,-54.0,-967.0,-113.0
-15.0,-250.0,-60.0,-76.0,-157.0,-15.0,-54.0,-974.0,-116.0
-16.0,-250.0,-63.0,-76.0,-160.0,-16.0,-57.0,-966.0,-118.0
-16.0,-252.0,-63.0,-77.0,-161.0,-15.0,-51.0,-976.0,-112.0
-13.0,-252.0,-65.0,-79.0,-163.0,-16.0,-52.0,-974.0,-122.0
-15.0,-251.0,-63.0,-79.0,-166.0,-16.0,-54.0,-974.0,-114.0
-16.0,-251.0,-62.0,-82.0,-170.0,-17.0,-47.0,-977.0,-117.0
-16.0,-253.0,-68.0,-85.0,-172.0,-18.0,-57.0,-977.0,-115.0
-14.0,-247.0,-65.0,-85.0,-174.0,-17.0,-53.0,-976.0,-127.0
-15.0,-254.0,-68.0,-86.0,-178.0,-18.0,-49.0,-976.0,-126.0
-10.0,-250.0,-65.0,-86.0,-181.0,-20.0,-50.0,-979.0,-129.0
-13.0,-252.0,-69.0,-82.0,-183.0,-19.0,-43.0,-984.0,-127.0
-11.0,-250.0,-68.0,-79.0,-183.0,-19.0,-44.0,-986.0,-127.0
-13.0,-251.0,-61.0,-74.0,-182.0,-19.0,-43.0,-980.0,-125.0
-12.0,-255.0,-66.0,-70.0,-184.0,-19.0,-41.0,-985.0,-126.0
-13.0,-257.0,-63.0,-66.0,-185.0,-20.0,-38.0,-983.0,-120.0
-10.0,-255.0,-70.0,-62.0,-186.0,-21.0,-35.0,-983.0,-129.0
-12.0,-255.0,-66.0,-59.0,-188.0,-22.0,-38.0,-983.0,-125.0
-12.0,-252.0,-66.0,-56.0,-188.0,-22.0,-40.0,-985.0,-130.0
-4.0,-257.0,-68.0,-56.0,-187.0,-23.0,-37.0,-983.0,-128.0
-10.0,-253.0,-67.0,-56.0,-186.0,-23.0,-36.0,-985.0,-130.0
-10.0,-256.0,-68.0,-54.0,-183.0,-24.0,-33.0,-982.0,-128.0
-11.0,-251.0,-63.0,-55.0,-180.0,-24.0,-33.0,-979.0,-130.0
-13.0,-253.0,-66.0,-55.0,-173.0,-24.0,-29.0,-977.0,-125.0
-7.0,-256.0,-63.0,-54.0,-170.0,-23.0,-36.0,-983.0,-119.0
-11.0,-252.0,-66.0,-51.0,-167.0,-22.0,-34.0,-978.0,-121.0
-10.0,-254.0,-64.0,-48.0,-169.0,-20.0,-36.0,-983.0,-123.0
-8.0,-252.0,-61.0,-44.0,-170.0,-20.0,-27.0,-980.0,-122.0
-8.0,-253.0,-63.0,-40.0,-171.0,-18.0,-31.0,-982.0,-125.0
-7.0,-255.0,-66.0,-39.0,-176.0,-17.0,-35.0,-980.0,-120.0
-10.0,-252.0,-69.0,-39.0,-178.0,-18.0,-33.0,-984.0,-120.0
-9.0,-250.0,-62.0,-38.0,-179.0,-15.0,-30.0,-979.0,-122.0
-8.0,-254.0,-65.0,-38.0,-180.0,-12.0,-29.0,-981.0,-122.0
-10.0,-250.0,-63.0,-39.0,-178.0,-11.0,-31.0,-976.0,-128.0
-11.0,-250.0,-63.0,-40.0,-175.0,-9.0,-31.0,-977.0,-124.0
-10.0,-252.0,-60.0,-40.0,-170.0,-9.0,-33.0,-972.0,-122.0
-9.0,-250.0,-60.0,-41.0,-165.0,-10.0,-30.0,-975.0,-117.0
-8.0,-251.0,-63.0,-40.0,-161.0,-8.0,-32.0,-974.0,-114.0
-9.0,-249.0,-60.0,-40.0,-155.0,-6.0,-34.0,-974.0,-112.0
-11.0,-251.0,-59.0,-40.0,-150.0,-7.0,-32.0,-974.0,-110.0
-9.0,-250.0,-60.0,-37.0,-147.0,-6.0,-36.0,-977.0,-110.0
-10.0,-251.0,-63.0,-36.0,-145.0,-6.0,-35.0,-968.0,-110.0
-11.0,-250.0,-60.0,-38.0,-145.0,-3.0,-29.0,-974.0,-110.0
-9.0,-251.0,-61.0,-38.0,-147.0,-2.0,-31.0,-973.0,-115.0
-9.0,-252.0,-61.0,-39.0,-148.0,-2.0,-26.0,-972.0,-114.0
-9.0,-250.0,-63.0,-41.0,-149.0,-3.0,-28.0,-968.0,-117.0
-7.0,-248.0,-66.0,-42.0,-148.0,-4.0,-26.0,-972.0,-117.0
-7.0,-250.0,-66.0,-46.0,-143.0,-3.0,-29.0,-969.0,-117.0
-9.0,-250.0,-62.0,-46.0,-138.0,-3.0,-27.0,-971.0,-120.0
-10.0,-250.0,-63.0,-47.0,-133.0,-3.0,-31.0,-972.0,-111.0
-9.0,-248.0,-61.0,-47.0,-126.0,-3.0,-28.0,-974.0,-109.0
-7.0,-249.0,-60.0,-45.0,-121.0,-3.0,-32.0,-972.0,-105.0
-11.0,-251.0,-63.0,-43.0,-118.0,-2.0,-37.0,-972.0,-107.0
-9.0,-251.0,-58.0,-45.0,-118.0,-2.0,-31.0,-969.0,-111.0
-13.0,-251.0,-62.0,-48.0,-119.0,-1.0,-37.0,-973.0,-111.0
-9.0,-252.0,-59.0,-52.0,-121.0,0.0,-36.0,-973.0,-115.0
-11.0,-251.0,-62.0,-54.0,-121.0,1.0,-38.0,-969.0,-115.0
-12.0,-249.0,-62.0,-58.0,-122.0,4.0,-42.0,-969.0,-116.0
-10.0,-251.0,-62.0,-58.0,-121.0,4.0,-40.0,-976.0,-124.0
-9.0,-252.0,-62.0,-56.0,-118.0,3.0,-35.0,-973.0,-115.0
-12.0,-248.0,-60.0,-51.0,-114.0,4.0,-34.0,-974.0,-115.0
-9.0,-251.0,-63.0,-46.0,-110.0,4.0,-32.0,-973.0,-111.0
-8.0,-251.0,-59.0,-42.0,-105.0,5.0,-37.0,-971.0,-114.0
-7.0,-250.0,-58.0,-38.0,-102.0,6.0,-30.0,-971.0,-110.0
-10.0,-251.0,-66.0,-38.0,-103.0,5.0,-30.0,-972.0,-113.0
-9.0,-250.0,-58.0,-41.0,-102.0,4.0,-32.0,-970.0,-112.0
-11.0,-249.0,-61.0,-47.0,-105.0,6.0,-32.0,-970.0,-115.0
-13.0,-250.0,-63.0,-52.0,-106.0,6.0,-36.0,-970.0,-113.0
-10.0,-249.0,-60.0,-60.0,-106.0,6.0,-36.0,-972.0,-114.0
-13.0,-249.0,-62.0,-66.0,-105.0,7.0,-36.0,-968.0,-113.0
-11.0,-251.0,-61.0,-68.0,-103.0,7.0,-39.0,-972.0,-112.0
-12.0,-248.0,-60.0,-69.0,-103.0,10.0,-42.0,-973.0,-108.0
-12.0,-252.0,-61.0,-69.0,-101.0,13.0,-41.0,-978.0,-101.0
-14.0,-251.0,-59.0,-67.0,-99.0,15.0,-38.0,-976.0,-103.0
-11.0,-251.0,-59.0,-63.0,-98.0,17.0,-39.0,-977.0,-104.0
-12.0,-251.0,-61.0,-59.0,-97.0,17.0,-34.0,-977.0,-106.0
-10.0,-253.0,-58.0,-57.0,-97.0,18.0,-40.0,-976.0,-102.0
-11.0,-252.0,-59.0,-56.0,-97.0,18.0,-40.0,-979.0,-105.0
-10.0,-251.0,-58.0,-53.0,-96.0,17.0,-40.0,-974.0,-110.0
-12.0,-250.0,-62.0,-54.0,-96.0,18.0,-38.0,-974.0,-107.0
-11.0,-251.0,-65.0,-55.0,-98.0,17.0,-40.0,-976.0,-115.0
-12.0,-249.0,-62.0,-56.0,-100.0,18.0,-41.0,-969.0,-123.0
-13.0,-252.0,-64.0,-60.0,-101.0,19.0,-42.0,-971.0,-118.0
-12.0,-252.0,-64.0,-63.0,-101.0,19.0,-48.0,-972.0,-115.0
-13.0,-253.0,-64.0,-63.0,-99.0,19.0,-44.0,-972.0,-118.0
-14.0,-251.0,-65.0,-66.0,-95.0,21.0,-45.0,-976.0,-114.0
-11.0,-252.0,-66.0,-65.0,-90.0,20.0,-44.0,-975.0,-112.0
-15.0,-253.0,-60.0,-64.0,-85.0,21.0,-45.0,-975.0,-111.0
-13.0,-249.0,-63.0,-61.0,-80.0,20.0,-42.0,-976.0,-107.0
-13.0,-251.0,-58.0,-57.0,-75.0,21.0,-48.0,-976.0,-102.0
-9.0,-254.0,-59.0,-52.0,-72.0,20.0,-41.0,-972.0,-105.0
-13.0,-251.0,-61.0,-49.0,-69.0,19.0,-44.0,-974.0,-106.0
-14.0,-249.0,-61.0,-50.0,-69.0,18.0,-47.0,-976.0,-106.0
-15.0,-248.0,-64.0,-50.0,-70.0,18.0,-45.0,-975.0,-113.0
-11.0,-251.0,-63.0,-58.0,-71.0,18.0,-43.0,-971.0,-114.0
-11.0,-251.0,-67.0,-63.0,-74.0,17.0,-43.0,-975.0,-124.0
-14.0,-254.0,-62.0,-66.0,-74.0,17.0,-43.0,-978.0,-119.0
-12.0,-252.0,-63.0,-67.0,-73.0,16.0,-44.0,-974.0,-125.0
-10.0,-254.0,-65.0,-67.0,-71.0,14.0,-42.0,-978.0,-121.0
-13.0,-251.0,-62.0,-63.0,-68.0,13.0,-45.0,-977.0,-122.0
-11.0,-254.0,-62.0,-59.0,-64.0,13.0,-43.0,-977.0,-117.0
-11.0,-254.0,-65.0,-53.0,-59.0,12.0,-49.0,-977.0,-117.0
-13.0,-255.0,-63.0,-49.0,-55.0,12.0,-40.0,-976.0,-117.0
-13.0,-253.0,-62.0,-46.0,-50.0,10.0,-46.0,-973.0,-115.0
-11.0,-254.0,-65.0,-44.0,-46.0,7.0,-47.0,-978.0,-113.0
-14.0,-254.0,-62.0,-39.0,-43.0,4.0,-47.0,-979.0,-111.0
-13.0,-253.0,-60.0,-37.0,-42.0,4.0,-48.0,-975.0,-109.0
-13.0,-255.0,-64.0,-36.0,-42.0,5.0,-42.0,-975.0,-113.0
-11.0,-255.0,-58.0,-39.0,-43.0,5.0,-43.0,-976.0,-109.0
-13.0,-252.0,-61.0,-39.0,-44.0,6.0,-41.0,-979.0,-113.0
-14.0,-252.0,-60.0,-38.0,-42.0,6.0,-47.0,-975.0,-116.0
-13.0,-251.0,-62.0,-37.0,-43.0,5.0,-44.0,-974.0,-116.0
-15.0,-251.0,-65.0,-37.0,-42.0,5.0,-48.0,-973.0,-114.0
-15.0,-250.0,-63.0,-37.0,-41.0,5.0,-45.0,-975.0,-116.0
-13.0,-251.0,-63.0,-35.0,-43.0,5.0,-51.0,-977.0,-114.0
-14.0,-251.0,-59.0,-33.0,-42.0,6.0,-57.0,-976.0,-117.0
-15.0,-251.0,-60.0,-34.0,-44.0,6.0,-54.0,-978.0,-112.0
-13.0,-253.0,-58.0,-34.0,-44.0,7.0,-54.0,-974.0,-112.0
-15.0,-251.0,-59.0,-31.0,-44.0,10.0,-54.0,-970.0,-112.0
-15.0,-253.0,-60.0,-29.0,-43.0,9.0,-57.0,-973.0,-108.0
-13.0,-254.0,-64.0,-28.0,-43.0,13.0,-56.0,-968.0,-110.0
-13.0,-253.0,-62.0,-26.0,-41.0,13.0,-60.0,-970.0,-108.0
-14.0,-249.0,-58.0,-29.0,-39.0,13.0,-58.0,-974.0,-114.0
-16.0,-252.0,-63.0,-30.0,-38.0,14.0,-58.0,-965.0,-117.0
-16.0,-251.0,-64.0,-34.0,-38.0,13.0,-59.0,-968.0,-114.0
-14.0,-254.0,-61.0,-41.0,-36.0,11.0,-54.0,-970.0,-121.0
-15.0,-248.0,-61.0,-44.0,-36.0,10.0,-49.0,-975.0,-114.0
-15.0,-253.0,-60.0,-47.0,-32.0,9.0,-59.0,-970.0,-118.0
-14.0,-253.0,-64.0,-46.0,-31.0,7.0,-60.0,-974.0,-117.0
-12.0,-254.0,-66.0,-44.0,-29.0,6.0,-61.0,-979.0,-118.0
-14.0,-253.0,-62.0,-43.0,-28.0,3.0,-65.0,-974.0,-116.0
-15.0,-251.0,-58.0,-42.0,-25.0,3.0,-63.0,-980.0,-114.0
-16.0,-250.0,-63.0,-39.0,-20.0,2.0,-59.0,-974.0,-115.0
-15.0,-252.0,-59.0,-40.0,-16.0,1.0,-59.0,-974.0,-110.0
-15.0,-251.0,-63.0,-38.0,-10.0,-1.0,-51.0,-975.0,-117.0
-15.0,-251.0,-58.0,-38.0,-4.0,-1.0,-58.0,-974.0,-111.0
-15.0,-252.0,-62.0,-38.0,0.0,-4.0,-56.0,-975.0,-111.0
-16.0,-249.0,-61.0,-37.0,2.0,-4.0,-53.0,-975.0,-104.0
-14.0,-251.0,-58.0,-36.0,1.0,-4.0,-51.0,-975.0,-114.0
-16.0,-251.0,-60.0,-34.0,-1.0,-4.0,-51.0,-972.0,-115.0
-16.0,-250.0,-62.0,-35.0,-5.0,-4.0,-50.0,-974.0,-116.0
-15.0,-250.0,-67.0,-34.0,-9.0,-3.0,-55.0,-974.0,-124.0
-15.0,-250.0,-66.0,-35.0,-11.0,-2.0,-50.0,-972.0,-123.0
-12.0,-252.0,-66.0,-33.0,-11.0,-1.0,-56.0,-973.0,-115.0
-15.0,-251.0,-60.0,-31.0,-9.0,0.0,-58.0,-974.0,-121.0
-17.0,-250.0,-62.0,-28.0,-7.0,2.0,-54.0,-974.0,-116.0
-15.0,-252.0,-60.0,-27.0,-4.0,5.0,-61.0,-973.0,-114.0
-13.0,-252.0,-63.0,-24.0,0.0,8.0,-55.0,-977.0,-116.0
-14.0,-249.0,-64.0,-24.0,4.0,9.0,-60.0,-976.0,-110.0
-16.0,-248.0,-58.0,-24.0,7.0,10.0,-54.0,-975.0,-115.0
-16.0,-252.0,-60.0,-25.0,8.0,10.0,-51.0,-969.0,-113.0
-15.0,-250.0,-60.0,-25.0,10.0,8.0,-57.0,-971.0,-111.0
-12.0,-251.0,-64.0,-29.0,10.0,8.0,-54.0,-969.0,-116.0
-16.0,-253.0,-63.0,-34.0,7.0,8.0,-62.0,-969.0,-114.0
-16.0,-251.0,-62.0,-39.0,4.0,7.0,-56.0,-975.0,-117.0
-15.0,-253.0,-61.0,-46.0,3.0,6.0,-54.0,-972.0,-118.0
-17.0,-250.0,-64.0,-50.0,3.0,8.0,-61.0,-975.0,-116.0
-15.0,-252.0,-60.0,-52.0,2.0,9.0,-61.0,-974.0,-117.0
-15.0,-253.0,-64.0,-52.0,3.0,9.0,-66.0,-979.0,-115.0
-15.0,-251.0,-67.0,-50.0,4.0,10.0,-65.0,-975.0,-117.0
-16.0,-252.0,-62.0,-49.0,6.0,10.0,-64.0,-976.0,-115.0
-13.0,-254.0,-62.0,-47.0,11.0,11.0,-67.0,-980.0,-116.0
-16.0,-252.0,-62.0,-48.0,16.0,12.0,-60.0,-974.0,-114.0
-16.0,-252.0,-58.0,-46.0,20.0,11.0,-68.0,-976.0,-106.0
-15.0,-252.0,-63.0,-47.0,23.0,11.0,-62.0,-977.0,-113.0
-16.0,-251.0,-64.0,-43.0,22.0,9.0,-62.0,-982.0,-117.0
-15.0,-252.0,-63.0,-40.0,20.0,9.0,-65.0,-974.0,-120.0
-16.0,-254.0,-65.0,-41.0,16.0,8.0,-70.0,-981.0,-126.0
-19.0,-251.0,-60.0,-43.0,13.0,7.0,-61.0,-974.0,-131.0
-15.0,-250.0,-64.0,-45.0,6.0,8.0,-62.0,-976.0,-126.0
-16.0,-250.0,-63.0,-44.0,2.0,9.0,-64.0,-974.0,-132.0
-16.0,-250.0,-65.0,-41.0,1.0,10.0,-67.0,-970.0,-129.0
-16.0,-249.0,-63.0,-40.0,-2.0,11.0,-67.0,-970.0,-126.0
-15.0,-251.0,-63.0,-38.0,-2.0,11.0,-63.0,-972.0,-126.0
-15.0,-250.0,-65.0,-37.0,-3.0,13.0,-61.0,-973.0,-117.0
-14.0,-251.0,-67.0,-37.0,2.0,13.0,-58.0,-969.0,-117.0
-14.0,-250.0,-61.0,-41.0,7.0,13.0,-56.0,-968.0,-113.0
-14.0,-250.0,-61.0,-44.0,9.0,13.0,-53.0,-972.0,-110.0
-15.0,-250.0,-57.0,-48.0,8.0,12.0,-53.0,-977.0,-109.0
-15.0,-253.0,-58.0,-52.0,7.0,13.0,-51.0,-973.0,-109.0
-16.0,-250.0,-62.0,-56.0,1.0,14.0,-56.0,-976.0,-111.0
-15.0,-251.0,-60.0,-63.0,-5.0,13.0,-58.0,-977.0,-111.0
-16.0,-252.0,-61.0,-66.0,-10.0,15.0,-54.0,-973.0,-108.0
-17.0,-247.0,-62.0,-67.0,-14.0,16.0,-62.0,-970.0,-112.0
-16.0,-251.0,-59.0,-68.0,-17.0,16.0,-59.0,-973.0,-105.0
-16.0,-252.0,-64.0,-66.0,-19.0,18.0,-55.0,-967.0,-105.0
-15.0,-249.0,-58.0,-64.0,-18.0,21.0,-61.0,-975.0,-102.0
-16.0,-251.0,-62.0,-64.0,-17.0,22.0,-55.0,-970.0,-97.0
-16.0,-254.0,-62.0,-60.0,-18.0,23.0,-61.0,-980.0,-92.0
-15.0,-252.0,-57.0,-56.0,-19.0,24.0,-63.0,-978.0,-98.0
-14.0,-251.0,-59.0,-52.0,-20.0,25.0,-62.0,-979.0,-105.0
-15.0,-252.0,-58.0,-48.0,-20.0,25.0,-58.0,-979.0,-104.0
-16.0,-254.0,-61.0,-44.0,-22.0,25.0,-58.0,-976.0,-112.0
-15.0,-251.0,-62.0,-41.0,-24.0,23.0,-56.0,-972.0,-119.0
-15.0,-249.0,-63.0,-42.0,-25.0,21.0,-57.0,-967.0,-120.0
-10.0,-243.0,-64.0,-46.0,-28.0,18.0,-62.0,-971.0,-125.0
-15.0,-251.0,-68.0,-49.0,-28.0,15.0,-54.0,-966.0,-131.0
-13.0,-250.0,-69.0,-53.0,-27.0,13.0,-62.0,-967.0,-133.0
-14.0,-250.0,-64.0,-56.0,-25.0,12.0,-67.0,-968.0,-130.0
-15.0,-249.0,-66.0,-61.0,-20.0,9.0,-61.0,-966.0,-126.0
-15.0,-249.0,-65.0,-63.0,-16.0,8.0,-60.0,-973.0,-123.0
-15.0,-251.0,-65.0,-61.0,-12.0,6.0,-67.0,-972.0,-122.0
-14.0,-250.0,-63.0,-59.0,-8.0,8.0,-58.0,-976.0,-119.0
-16.0,-252.0,-64.0,-54.0,-4.0,7.0,-59.0,-976.0,-121.0
-14.0,-254.0,-60.0,-47.0,-1.0,8.0,-66.0,-978.0,-112.0
-13.0,-253.0,-63.0,-40.0,1.0,7.0,-53.0,-978.0,-107.0
-15.0,-251.0,-60.0,-32.0,2.0,7.0,-55.0,-981.0,-106.0
-15.0,-250.0,-57.0,-28.0,0.0,7.0,-53.0,-976.0,-104.0
-15.0,-252.0,-61.0,-23.0,-2.0,7.0,-54.0,-981.0,-113.0
-14.0,-255.0,-66.0,-21.0,-7.0,8.0,-51.0,-978.0,-113.0
-15.0,-251.0,-62.0,-23.0,-11.0,5.0,-48.0,-975.0,-115.0
-14.0,-253.0,-64.0,-23.0,-15.0,7.0,-53.0,-974.0,-122.0
-14.0,-250.0,-62.0,-27.0,-18.0,5.0,-56.0,-971.0,-124.0
-14.0,-251.0,-67.0,-28.0,-21.0,4.0,-45.0,-983.0,-125.0
-15.0,-249.0,-65.0,-32.0,-21.0,4.0,-50.0,-975.0,-127.0
-15.0,-249.0,-61.0,-35.0,-19.0,6.0,-48.0,-969.0,-123.0
-13.0,-251.0,-60.0,-41.0,-14.0,7.0,-53.0,-970.0,-128.0
-14.0,-250.0,-65.0,-44.0,-12.0,6.0,-47.0,-967.0,-122.0
-13.0,-249.0,-65.0,-46.0,-6.0,8.0,-51.0,-969.0,-117.0
-15.0,-251.0,-65.0,-47.0,-1.0,6.0,-49.0,-968.0,-113.0
-15.0,-253.0,-60.0,-46.0,4.0,6.0,-51.0,-976.0,-116.0
-16.0,-252.0,-62.0,-44.0,9.0,7.0,-53.0,-975.0,-113.0
-16.0,-250.0,-62.0,-40.0,13.0,8.0,-49.0,-974.0,-117.0
-15.0,-251.0,-61.0,-39.0,15.0,8.0,-51.0,-973.0,-116.0
-15.0,-251.0,-60.0,-36.0,16.0,8.0,-56.0,-971.0,-115.0
-16.0,-250.0,-63.0,-37.0,17.0,7.0,-59.0,-973.0,-123.0
-12.0,-249.0,-64.0,-40.0,15.0,9.0,-56.0,-972.0,-125.0
-16.0,-252.0,-68.0,-46.0,16.0,10.0,-64.0,-972.0,-128.0
-15.0,-251.0,-64.0,-50.0,14.0,10.0,-60.0,-974.0,-123.0
-16.0,-250.0,-64.0,-52.0,14.0,9.0,-58.0,-974.0,-123.0
-14.0,-252.0,-60.0,-53.0,15.0,10.0,-61.0,-973.0,-122.0
-16.0,-253.0,-62.0,-53.0,17.0,10.0,-56.0,-976.0,-113.0
-16.0,-251.0,-64.0,-53.0,19.0,9.0,-60.0,-975.0,-117.0
-17.0,-252.0,-62.0,-50.0,22.0,7.0,-59.0,-974.0,-116.0
-14.0,-251.0,-64.0,-49.0,24.0,7.0,-56.0,-979.0,-110.0
-14.0,-253.0,-63.0,-45.0,26.0,8.0,-53.0,-974.0,-117.0
-14.0,-252.0,-62.0,-42.0,30.0,7.0,-56.0,-975.0,-116.0
-14.0,-249.0,-66.0,-41.0,32.0,5.0,-59.0,-979.0,-113.0
-13.0,-261.0,-63.0,-41.0,36.0,4.0,-55.0,-975.0,-119.0
-13.0,-252.0,-61.0,-40.0,36.0,3.0,-54.0,-969.0,-120.0
-15.0,-251.0,-66.0,-40.0,38.0,2.0,-49.0,-974.0,-120.0
-14.0,-250.0,-65.0,-41.0,37.0,1.0,-56.0,-971.0,-119.0
-15.0,-251.0,-62.0,-43.0,37.0,2.0,-52.0,-969.0,-122.0
-14.0,-251.0,-64.0,-44.0,38.0,2.0,-50.0,-969.0,-121.0
-14.0,-249.0,-64.0,-47.0,38.0,2.0,-57.0,-972.0,-118.0
-16.0,-251.0,-62.0,-47.0,38.0,2.0,-50.0,-972.0,-117.0
-15.0,-250.0,-65.0,-50.0,38.0,2.0,-56.0,-975.0,-115.0
-14.0,-250.0,-65.0,-52.0,36.0,3.0,-60.0,-968.0,-118.0
-15.0,-250.0,-59.0,-54.0,36.0,2.0,-61.0,-975.0,-116.0
-13.0,-255.0,-61.0,-56.0,35.0,5.0,-61.0,-976.0,-118.0
-16.0,-252.0,-63.0,-55.0,35.0,5.0,-59.0,-979.0,-119.0
-16.0,-251.0,-59.0,-56.0,36.0,5.0,-64.0,-978.0,-116.0
-16.0,-250.0,-65.0,-53.0,37.0,7.0,-58.0,-977.0,-116.0
-16.0,-251.0,-58.0,-51.0,36.0,7.0,-57.0,-975.0,-116.0
-16.0,-252.0,-62.0,-48.0,37.0,7.0,-58.0,-976.0,-121.0
-16.0,-250.0,-61.0,-47.0,36.0,7.0,-54.0,-974.0,-116.0
-15.0,-250.0,-61.0,-44.0,33.0,8.0,-53.0,-973.0,-122.0
-16.0,-250.0,-61.0,-46.0,31.0,7.0,-66.0,-974.0,-119.0
-13.0,-251.0,-65.0,-48.0,29.0,7.0,-58.0,-971.0,-118.0
-15.0,-251.0,-61.0,-50.0,28.0,6.0,-62.0,-976.0,-118.0
-14.0,-250.0,-54.0,-51.0,28.0,5.0,-63.0,-968.0,-119.0
-16.0,-248.0,-64.0,-52.0,27.0,1.0,-62.0,-969.0,-119.0
-15.0,-250.0,-65.0,-50.0,28.0,0.0,-64.0,-972.0,-122.0
-16.0,-249.0,-64.0,-50.0,32.0,0.0,-60.0,-973.0,-121.0
-16.0,-253.0,-66.0,-50.0,34.0,1.0,-65.0,-967.0,-120.0
-18.0,-250.0,-66.0,-51.0,37.0,1.0,-62.0,-968.0,-121.0
-16.0,-249.0,-64.0,-57.0,41.0,-1.0,-61.0,-967.0,-126.0
-15.0,-250.0,-64.0,-62.0,46.0,-1.0,-59.0,-971.0,-124.0
-13.0,-249.0,-63.0,-69.0,50.0,-2.0,-56.0,-973.0,-117.0
-14.0,-250.0,-59.0,-73.0,53.0,-3.0,-57.0,-974.0,-121.0
-15.0,-252.0,-64.0,-73.0,55.0,-4.0,-58.0,-977.0,-114.0
-15.0,-252.0,-62.0,-68.0,53.0,-5.0,-54.0,-976.0,-119.0
-15.0,-252.0,-64.0,-65.0,53.0,-7.0,-53.0,-977.0,-121.0
-15.0,-250.0,-59.0,-59.0,53.0,-7.0,-60.0,-976.0,-115.0
-15.0,-253.0,-64.0,-52.0,48.0,-6.0,-56.0,-969.0,-121.0
-15.0,-251.0,-63.0,-50.0,47.0,-7.0,-54.0,-974.0,-123.0
-15.0,-249.0,-60.0,-47.0,46.0,-5.0,-53.0,-964.0,-122.0
-16.0,-249.0,-65.0,-45.0,45.0,-5.0,-58.0,-968.0,-123.0
-15.0,-249.0,-65.0,-47.0,46.0,-5.0,-56.0,-969.0,-124.0
-15.0,-250.0,-66.0,-48.0,48.0,-5.0,-49.0,-971.0,-126.0
-13.0,-252.0,-62.0,-52.0,50.0,-4.0,-57.0,-966.0,-121.0
-14.0,-254.0,-63.0,-56.0,51.0,-5.0,-51.0,-964.0,-119.0
-16.0,-250.0,-67.0,-60.0,52.0,-6.0,-57.0,-970.0,-126.0
-16.0,-252.0,-63.0,-65.0,54.0,-5.0,-58.0,-975.0,-119.0
-16.0,-250.0,-63.0,-68.0,54.0,-4.0,-60.0,-978.0,-119.0
-15.0,-254.0,-65.0,-67.0,55.0,-4.0,-63.0,-975.0,-119.0
-15.0,-253.0,-63.0,-66.0,53.0,-4.0,-56.0,-983.0,-114.0
-16.0,-251.0,-61.0,-63.0,52.0,-3.0,-54.0,-980.0,-119.0
-15.0,-252.0,-66.0,-60.0,52.0,-4.0,-57.0,-970.0,-116.0
-14.0,-250.0,-64.0,-55.0,53.0,-4.0,-51.0,-975.0,-111.0
-15.0,-253.0,-61.0,-54.0,53.0,-5.0,-60.0,-969.0,-120.0
-15.0,-249.0,-62.0,-53.0,53.0,-3.0,-55.0,-974.0,-122.0
-16.0,-248.0,-65.0,-54.0,53.0,-5.0,-57.0,-971.0,-124.0
-16.0,-251.0,-63.0,-58.0,53.0,-4.0,-54.0,-971.0,-125.0
-14.0,-251.0,-66.0,-63.0,55.0,-4.0,-60.0,-970.0,-126.0
-14.0,-251.0,-67.0,-68.0,54.0,-3.0,-56.0,-974.0,-134.0
-14.0,-249.0,-64.0,-71.0,52.0,-3.0,-64.0,-969.0,-128.0
-15.0,-252.0,-63.0,-73.0,50.0,-2.0,-53.0,-971.0,-126.0
-13.0,-252.0,-64.0,-73.0,48.0,0.0,-62.0,-972.0,-121.0
-16.0,-252.0,-63.0,-70.0,47.0,0.0,-65.0,-975.0,-124.0
-16.0,-250.0,-65.0,-67.0,44.0,2.0,-62.0,-976.0,-124.0
-16.0,-251.0,-66.0,-64.0,44.0,2.0,-62.0,-974.0,-120.0
-16.0,-254.0,-64.0,-59.0,43.0,1.0,-58.0,-973.0,-125.0
-16.0,-251.0,-66.0,-57.0,42.0,1.0,-62.0,-975.0,-122.0
-16.0,-252.0,-70.0,-55.0,41.0,1.0,-64.0,-971.0,-128.0
-14.0,-251.0,-64.0,-58.0,39.0,1.0,-66.0,-971.0,-128.0
-16.0,-253.0,-62.0,-63.0,41.0,1.0,-64.0,-970.0,-125.0
-16.0,-250.0,-64.0,-65.0,40.0,1.0,-66.0,-972.0,-125.0
-17.0,-249.0,-65.0,-67.0,41.0,0.0,-74.0,-970.0,-121.0
-16.0,-251.0,-65.0,-71.0,41.0,0.0,-67.0,-975.0,-120.0
-16.0,-251.0,-63.0,-72.0,39.0,1.0,-68.0,-974.0,-123.0
-16.0,-250.0,-63.0,-72.0,40.0,2.0,-62.0,-974.0,-125.0
-16.0,-251.0,-64.0,-70.0,39.0,2.0,-61.0,-979.0,-119.0
-16.0,-250.0,-64.0,-66.0,38.0,1.0,-57.0,-974.0,-124.0
-13.0,-253.0,-65.0,-61.0,39.0,1.0,-66.0,-976.0,-119.0
-16.0,-251.0,-65.0,-58.0,37.0,0.0,-64.0,-974.0,-121.0
-17.0,-249.0,-61.0,-53.0,35.0,1.0,-60.0,-969.0,-119.0
-15.0,-252.0,-62.0,-51.0,34.0,1.0,-61.0,-975.0,-118.0
-15.0,-249.0,-68.0,-51.0,34.0,3.0,-61.0,-973.0,-122.0
-16.0,-249.0,-64.0,-51.0,35.0,1.0,-64.0,-972.0,-122.0
-15.0,-251.0,-67.0,-53.0,35.0,1.0,-67.0,-970.0,-124.0
-16.0,-249.0,-66.0,-55.0,34.0,2.0,-68.0,-966.0,-121.0
-14.0,-250.0,-64.0,-57.0,33.0,2.0,-63.0,-967.0,-120.0
-16.0,-249.0,-61.0,-61.0,32.0,0.0,-65.0,-971.0,-115.0
-15.0,-250.0,-65.0,-60.0,29.0,1.0,-66.0,-969.0,-116.0
-19.0,-249.0,-62.0,-59.0,27.0,2.0,-68.0,-969.0,-118.0
-18.0,-249.0,-64.0,-59.0,23.0,1.0,-63.0,-968.0,-118.0
-16.0,-249.0,-63.0,-59.0,22.0,2.0,-68.0,-970.0,-120.0
-20.0,-250.0,-61.0,-60.0,19.0,2.0,-63.0,-972.0,-120.0
-16.0,-249.0,-64.0,-61.0,17.0,1.0,-68.0,-968.0,-119.0
-16.0,-251.0,-62.0,-63.0,16.0,1.0,-67.0,-971.0,-123.0
-16.0,-251.0,-64.0,-63.0,15.0,1.0,-65.0,-970.0,-122.0
-15.0,-250.0,-62.0,-63.0,14.0,1.0,-69.0,-975.0,-119.0
-16.0,-251.0,-66.0,-64.0,13.0,0.0,-67.0,-978.0,-120.0
-15.0,-251.0,-68.0,-63.0,16.0,-1.0,-62.0,-970.0,-123.0
-16.0,-251.0,-58.0,-64.0,17.0,-2.0,-61.0,-970.0,-115.0
-16.0,-251.0,-61.0,-64.0,17.0,-2.0,-62.0,-968.0,-120.0
-16.0,-250.0,-59.0,-64.0,18.0,-1.0,-54.0,-970.0,-124.0
-16.0,-253.0,-66.0,-64.0,17.0,-2.0,-64.0,-969.0,-122.0
-15.0,-252.0,-66.0,-65.0,17.0,-2.0,-59.0,-975.0,-124.0
-15.0,-251.0,-65.0,-64.0,18.0,-2.0,-59.0,-974.0,-124.0
-15.0,-252.0,-67.0,-66.0,19.0,-4.0,-64.0,-975.0,-123.0
-12.0,-253.0,-68.0,-70.0,20.0,-3.0,-62.0,-973.0,-129.0
-15.0,-251.0,-62.0,-71.0,20.0,-4.0,-56.0,-971.0,-127.0
-14.0,-252.0,-63.0,-73.0,22.0,-4.0,-60.0,-980.0,-127.0
-13.0,-252.0,-69.0,-72.0,20.0,-5.0,-53.0,-977.0,-127.0
-14.0,-254.0,-73.0,-68.0,18.0,-4.0,-57.0,-979.0,-128.0
-15.0,-253.0,-63.0,-66.0,15.0,-4.0,-54.0,-977.0,-128.0
-16.0,-252.0,-67.0,-63.0,12.0,-3.0,-54.0,-975.0,-127.0
-15.0,-251.0,-64.0,-61.0,9.0,-4.0,-58.0,-973.0,-124.0
-16.0,-252.0,-61.0,-58.0,6.0,-3.0,-60.0,-975.0,-129.0
-15.0,-249.0,-69.0,-54.0,5.0,-2.0,-62.0,-978.0,-125.0
-16.0,-253.0,-62.0,-52.0,7.0,-1.0,-58.0,-975.0,-129.0
-16.0,-250.0,-65.0,-50.0,9.0,0.0,-61.0,-977.0,-123.0
-15.0,-253.0,-67.0,-50.0,12.0,0.0,-66.0,-972.0,-127.0
-16.0,-251.0,-69.0,-50.0,16.0,1.0,-62.0,-973.0,-126.0
-15.0,-250.0,-68.0,-52.0,18.0,1.0,-62.0,-972.0,-125.0
-17.0,-249.0,-65.0,-53.0,18.0,1.0,-62.0,-975.0,-125.0
-16.0,-248.0,-66.0,-56.0,19.0,1.0,-63.0,-975.0,-130.0
-16.0,-251.0,-65.0,-57.0,18.0,-1.0,-62.0,-974.0,-128.0
-16.0,-252.0,-66.0,-58.0,18.0,-1.0,-58.0,-976.0,-127.0
-15.0,-250.0,-64.0,-56.0,18.0,-2.0,-59.0,-970.0,-128.0
-14.0,-250.0,-60.0,-55.0,20.0,-1.0,-59.0,-971.0,-126.0
-15.0,-253.0,-62.0,-54.0,21.0,-2.0,-56.0,-978.0,-130.0
-14.0,-253.0,-67.0,-55.0,21.0,-3.0,-54.0,-972.0,-120.0
-16.0,-248.0,-64.0,-55.0,21.0,-3.0,-61.0,-970.0,-125.0
-15.0,-253.0,-69.0,-57.0,21.0,-3.0,-61.0,-970.0,-125.0
-16.0,-251.0,-64.0,-60.0,20.0,-2.0,-62.0,-973.0,-126.0
-15.0,-250.0,-65.0,-61.0,20.0,-1.0,-59.0,-977.0,-127.0
-15.0,-254.0,-65.0,-62.0,20.0,-1.0,-58.0,-971.0,-129.0
-18.0,-250.0,-66.0,-63.0,24.0,-1.0,-65.0,-976.0,-125.0
-16.0,-251.0,-63.0,-63.0,25.0,-2.0,-62.0,-973.0,-127.0
-15.0,-253.0,-64.0,-61.0,24.0,-2.0,-63.0,-969.0,-129.0
-16.0,-248.0,-66.0,-56.0,28.0,-3.0,-60.0,-973.0,-127.0
-16.0,-249.0,-64.0,-51.0,29.0,-3.0,-54.0,-974.0,-129.0
-16.0,-250.0,-63.0,-47.0,32.0,-3.0,-60.0,-969.0,-127.0
-15.0,-249.0,-64.0,-42.0,33.0,-2.0,-64.0,-971.0,-128.0
-16.0,-251.0,-64.0,-39.0,33.0,-3.0,-65.0,-972.0,-130.0
-16.0,-250.0,-66.0,-36.0,33.0,-2.0,-64.0,-968.0,-126.0
-16.0,-250.0,-65.0,-34.0,30.0,-2.0,-63.0,-969.0,-133.0
-14.0,-250.0,-65.0,-34.0,28.0,-2.0,-64.0,-972.0,-132.0
-13.0,-252.0,-66.0,-37.0,26.0,-1.0,-64.0,-966.0,-129.0
-16.0,-252.0,-66.0,-41.0,23.0,0.0,-63.0,-970.0,-133.0
-16.0,-249.0,-67.0,-44.0,24.0,-1.0,-59.0,-974.0,-132.0
-15.0,-249.0,-67.0,-48.0,23.0,-1.0,-60.0,-971.0,-133.0
-16.0,-249.0,-61.0,-50.0,24.0,-2.0,-54.0,-975.0,-130.0
-14.0,-251.0,-62.0,-52.0,25.0,-1.0,-63.0,-977.0,-129.0
-15.0,-252.0,-66.0,-51.0,25.0,-1.0,-59.0,-972.0,-121.0
-17.0,-252.0,-67.0,-49.0,27.0,-2.0,-63.0,-979.0,-124.0
-15.0,-250.0,-62.0,-43.0,28.0,-2.0,-62.0,-977.0,-124.0
-19.0,-248.0,-63.0,-39.0,28.0,-1.0,-51.0,-979.0,-123.0
-10.0,-249.0,-69.0,-36.0,29.0,-2.0,-60.0,-976.0,-125.0
-15.0,-251.0,-64.0,-33.0,28.0,-2.0,-62.0,-975.0,-130.0
-16.0,-250.0,-66.0,-32.0,29.0,-2.0,-62.0,-974.0,-131.0
-16.0,-250.0,-64.0,-31.0,28.0,-3.0,-63.0,-971.0,-130.0
-13.0,-251.0,-65.0,-30.0,27.0,-1.0,-66.0,-972.0,-132.0
-16.0,-251.0,-66.0,-31.0,27.0,-1.0,-66.0,-974.0,-129.0
-16.0,-249.0,-69.0,-32.0,26.0,-1.0,-66.0,-966.0,-133.0
-16.0,-250.0,-63.0,-33.0,26.0,0.0,-66.0,-970.0,-127.0
-16.0,-252.0,-65.0,-33.0,23.0,1.0,-69.0,-969.0,-130.0
-16.0,-251.0,-66.0,-33.0,23.0,1.0,-65.0,-974.0,-129.0
-16.0,-252.0,-66.0,-31.0,23.0,1.0,-70.0,-973.0,-125.0
-16.0,-253.0,-65.0,-31.0,23.0,1.0,-67.0,-974.0,-128.0
-16.0,-250.0,-66.0,-29.0,22.0,0.0,-65.0,-974.0,-126.0
-16.0,-251.0,-64.0,-30.0,22.0,0.0,-69.0,-975.0,-128.0
-15.0,-251.0,-63.0,-31.0,24.0,0.0,-65.0,-972.0,-125.0
-16.0,-251.0,-62.0,-30.0,23.0,1.0,-63.0,-973.0,-125.0
-17.0,-250.0,-66.0,-32.0,22.0,1.0,-65.0,-971.0,-126.0
-16.0,-248.0,-60.0,-33.0,22.0,0.0,-62.0,-973.0,-128.0
-18.0,-251.0,-66.0,-33.0,21.0,-1.0,-68.0,-974.0,-127.0
-16.0,-249.0,-66.0,-35.0,19.0,0.0,-60.0,-972.0,-127.0
-16.0,-250.0,-64.0,-37.0,17.0,0.0,-56.0,-972.0,-128.0
-16.0,-249.0,-64.0,-41.0,17.0,0.0,-66.0,-970.0,-123.0
-16.0,-251.0,-65.0,-43.0,16.0,0.0,-65.0,-972.0,-125.0
-16.0,-249.0,-64.0,-42.0,16.0,0.0,-61.0,-976.0,-130.0
-14.0,-250.0,-65.0,-40.0,17.0,1.0,-60.0,-969.0,-127.0
-16.0,-250.0,-65.0,-38.0,20.0,-1.0,-64.0,-972.0,-125.0
-15.0,-250.0,-63.0,-39.0,21.0,-1.0,-61.0,-979.0,-126.0
-14.0,-250.0,-66.0,-38.0,22.0,1.0,-56.0,-971.0,-124.0
-14.0,-252.0,-65.0,-38.0,23.0,0.0,-64.0,-969.0,-130.0
-15.0,-251.0,-68.0,-40.0,23.0,0.0,-62.0,-970.0,-126.0
-15.0,-249.0,-65.0,-41.0,24.0,0.0,-62.0,-970.0,-129.0
-18.0,-248.0,-65.0,-43.0,25.0,2.0,-65.0,-969.0,-126.0
-16.0,-249.0,-63.0,-42.0,25.0,0.0,-60.0,-973.0,-124.0
-16.0,-251.0,-63.0,-43.0,22.0,0.0,-66.0,-970.0,-128.0
-18.0,-250.0,-68.0,-43.0,21.0,2.0,-61.0,-971.0,-126.0
-16.0,-250.0,-65.0,-43.0,20.0,1.0,-62.0,-970.0,-127.0
-15.0,-250.0,-67.0,-42.0,21.0,1.0,-59.0,-975.0,-124.0
-16.0,-251.0,-66.0,-40.0,20.0,1.0,-61.0,-972.0,-128.0
-16.0,-251.0,-67.0,-38.0,20.0,2.0,-62.0,-972.0,-125.0
-15.0,-251.0,-66.0,-37.0,19.0,1.0,-60.0,-972.0,-125.0
-15.0,-250.0,-64.0,-39.0,20.0,2.0,-65.0,-974.0,-128.0
-16.0,-251.0,-66.0,-41.0,21.0,1.0,-60.0,-973.0,-132.0
-16.0,-250.0,-71.0,-42.0,25.0,1.0,-61.0,-970.0,-126.0
-15.0,-253.0,-65.0,-42.0,25.0,-1.0,-60.0,-974.0,-133.0
-15.0,-252.0,-66.0,-44.0,27.0,-1.0,-62.0,-974.0,-129.0
-15.0,-253.0,-64.0,-42.0,30.0,-2.0,-55.0,-976.0,-128.0
-15.0,-250.0,-64.0,-42.0,30.0,-1.0,-62.0,-976.0,-125.0
-15.0,-252.0,-68.0,-41.0,28.0,-1.0,-62.0,-976.0,-130.0
-16.0,-249.0,-66.0,-40.0,27.0,-1.0,-59.0,-973.0,-132.0
-16.0,-250.0,-67.0,-39.0,24.0,-2.0,-63.0,-973.0,-128.0
-14.0,-250.0,-68.0,-36.0,24.0,-1.0,-62.0,-970.0,-130.0
-14.0,-249.0,-66.0,-35.0,21.0,-1.0,-60.0,-970.0,-128.0
-17.0,-250.0,-65.0,-34.0,21.0,-1.0,-61.0,-971.0,-132.0
-15.0,-251.0,-67.0,-36.0,21.0,-1.0,-61.0,-968.0,-127.0
-16.0,-250.0,-63.0,-37.0,21.0,-1.0,-60.0,-970.0,-128.0
-16.0,-249.0,-66.0,-37.0,21.0,-1.0,-62.0,-975.0,-127.0
-18.0,-247.0,-64.0,-40.0,21.0,-2.0,-67.0,-969.0,-125.0
-16.0,-249.0,-66.0,-40.0,21.0,-1.0,-64.0,-970.0,-127.0
-16.0,-252.0,-68.0,-42.0,22.0,-2.0,-57.0,-971.0,-129.0
-16.0,-252.0,-64.0,-44.0,23.0,-2.0,-66.0,-977.0,-124.0
-16.0,-253.0,-65.0,-45.0,23.0,-3.0,-60.0,-975.0,-126.0
-16.0,-253.0,-66.0,-48.0,23.0,-3.0,-65.0,-976.0,-130.0
-16.0,-253.0,-67.0,-49.0,20.0,-5.0,-64.0,-973.0,-131.0
-16.0,-251.0,-66.0,-47.0,19.0,-3.0,-61.0,-976.0,-131.0
-13.0,-251.0,-65.0,-45.0,17.0,-4.0,-66.0,-974.0,-135.0
-16.0,-250.0,-64.0,-42.0,15.0,-2.0,-64.0,-978.0,-132.0
-15.0,-251.0,-63.0,-39.0,15.0,-2.0,-60.0,-976.0,-128.0
-15.0,-250.0,-66.0,-35.0,14.0,-1.0,-66.0,-971.0,-136.0
-16.0,-249.0,-65.0,-30.0,13.0,-1.0,-69.0,-970.0,-132.0
-15.0,-252.0,-64.0,-26.0,12.0,-1.0,-64.0,-973.0,-125.0
-16.0,-250.0,-64.0,-25.0,11.0,0.0,-64.0,-974.0,-124.0
-15.0,-249.0,-67.0,-25.0,11.0,-1.0,-69.0,-968.0,-133.0
-16.0,-252.0,-64.0,-23.0,11.0,-3.0,-68.0,-967.0,-126.0
-18.0,-251.0,-65.0,-24.0,12.0,-3.0,-63.0,-971.0,-122.0
-15.0,-248.0,-65.0,-27.0,11.0,-4.0,-63.0,-969.0,-128.0
-16.0,-251.0,-66.0,-28.0,11.0,-3.0,-68.0,-973.0,-126.0
-16.0,-249.0,-61.0,-31.0,12.0,-3.0,-65.0,-968.0,-127.0
-16.0,-250.0,-67.0,-33.0,13.0,-3.0,-67.0,-972.0,-126.0
-16.0,-250.0,-67.0,-38.0,15.0,-2.0,-66.0,-972.0,-123.0
-16.0,-250.0,-65.0,-42.0,15.0,-1.0,-66.0,-976.0,-121.0
-15.0,-249.0,-66.0,-47.0,15.0,-1.0,-62.0,-975.0,-126.0
-16.0,-251.0,-65.0,-48.0,13.0,1.0,-64.0,-974.0,-131.0
-16.0,-253.0,-68.0,-49.0,14.0,1.0,-66.0,-977.0,-128.0
-18.0,-253.0,-62.0,-45.0,14.0,-1.0,-67.0,-971.0,-129.0
-16.0,-250.0,-64.0,-42.0,11.0,-2.0,-62.0,-976.0,-127.0
-13.0,-251.0,-65.0,-36.0,12.0,-1.0,-63.0,-980.0,-124.0
-15.0,-251.0,-65.0,-32.0,13.0,-3.0,-65.0,-976.0,-130.0
-14.0,-250.0,-70.0,-26.0,14.0,-4.0,-61.0,-977.0,-129.0
-16.0,-253.0,-69.0,-24.0,15.0,-2.0,-57.0,-974.0,-134.0
-15.0,-250.0,-67.0,-21.0,14.0,-3.0,-64.0,-972.0,-132.0
-14.0,-250.0,-66.0,-22.0,11.0,-2.0,-66.0,-970.0,-130.0
-15.0,-250.0,-62.0,-24.0,9.0,-2.0,-60.0,-965.0,-130.0
-16.0,-250.0,-66.0,-27.0,7.0,-2.0,-57.0,-972.0,-133.0
-16.0,-250.0,-68.0,-33.0,6.0,-2.0,-61.0,-967.0,-129.0
-16.0,-250.0,-68.0,-37.0,5.0,-4.0,-63.0,-969.0,-125.0
-15.0,-251.0,-65.0,-39.0,4.0,-5.0,-63.0,-970.0,-128.0
-16.0,-249.0,-66.0,-41.0,4.0,-3.0,-63.0,-973.0,-118.0
-15.0,-251.0,-62.0,-41.0,5.0,-4.0,-62.0,-974.0,-115.0
-18.0,-253.0,-66.0,-39.0,5.0,-4.0,-66.0,-975.0,-117.0
-16.0,-251.0,-62.0,-39.0,6.0,-4.0,-65.0,-970.0,-121.0
-16.0,-251.0,-62.0,-36.0,6.0,-3.0,-66.0,-971.0,-117.0
-15.0,-251.0,-63.0,-34.0,6.0,-3.0,-65.0,-973.0,-116.0
-15.0,-250.0,-64.0,-35.0,7.0,-3.0,-68.0,-969.0,-120.0
-15.0,-253.0,-67.0,-36.0,5.0,-3.0,-59.0,-969.0,-119.0
-16.0,-250.0,-63.0,-39.0,4.0,-3.0,-63.0,-972.0,-124.0
-16.0,-249.0,-63.0,-42.0,3.0,0.0,-64.0,-975.0,-125.0
-14.0,-254.0,-65.0,-43.0,3.0,-1.0,-64.0,-968.0,-123.0
-14.0,-250.0,-66.0,-46.0,2.0,-2.0,-62.0,-973.0,-125.0
-11.0,-249.0,-70.0,-49.0,2.0,-2.0,-64.0,-973.0,-128.0
-15.0,-249.0,-65.0,-50.0,2.0,-3.0,-56.0,-971.0,-128.0
-14.0,-255.0,-67.0,-49.0,4.0,-3.0,-63.0,-970.0,-126.0
-15.0,-250.0,-65.0,-47.0,6.0,-3.0,-61.0,-971.0,-127.0
-16.0,-248.0,-65.0,-47.0,7.0,-3.0,-60.0,-971.0,-122.0
-15.0,-252.0,-63.0,-46.0,7.0,-4.0,-65.0,-970.0,-118.0
-19.0,-251.0,-65.0,-44.0,6.0,-5.0,-62.0,-968.0,-122.0
-16.0,-249.0,-66.0,-44.0,5.0,-5.0,-61.0,-972.0,-120.0
-16.0,-253.0,-64.0,-41.0,3.0,-5.0,-67.0,-972.0,-122.0
-17.0,-249.0,-62.0,-43.0,1.0,-4.0,-71.0,-973.0,-121.0
-16.0,-252.0,-66.0,-42.0,1.0,-4.0,-66.0,-975.0,-117.0
-16.0,-253.0,-60.0,-43.0,0.0,-3.0,-68.0,-972.0,-116.0
-16.0,-249.0,-64.0,-46.0,-1.0,-4.0,-68.0,-977.0,-122.0
-17.0,-249.0,-67.0,-46.0,-3.0,-4.0,-67.0,-972.0,-127.0
-16.0,-252.0,-66.0,-49.0,-2.0,-4.0,-67.0,-972.0,-127.0
-16.0,-254.0,-68.0,-49.0,0.0,-2.0,-72.0,-976.0,-130.0
-15.0,-254.0,-65.0,-48.0,0.0,-1.0,-66.0,-975.0,-129.0
-16.0,-251.0,-72.0,-45.0,2.0,-2.0,-64.0,-975.0,-127.0
-15.0,-254.0,-65.0,-42.0,4.0,-1.0,-58.0,-977.0,-128.0
-14.0,-252.0,-64.0,-38.0,5.0,-2.0,-57.0,-975.0,-128.0
-15.0,-252.0,-65.0,-35.0,5.0,-2.0,-62.0,-977.0,-128.0
-15.0,-254.0,-63.0,-33.0,6.0,-2.0,-55.0,-977.0,-129.0
-15.0,-252.0,-64.0,-30.0,5.0,-3.0,-61.0,-972.0,-128.0
-15.0,-254.0,-64.0,-30.0,4.0,-2.0,-62.0,-978.0,-125.0
-18.0,-249.0,-61.0,-30.0,1.0,-3.0,-56.0,-977.0,-130.0
-16.0,-253.0,-66.0,-30.0,0.0,-4.0,-60.0,-976.0,-125.0
-16.0,-252.0,-67.0,-28.0,-4.0,-5.0,-57.0,-975.0,-126.0
-14.0,-254.0,-66.0,-29.0,-3.0,-5.0,-63.0,-975.0,-126.0
-16.0,-253.0,-66.0,-30.0,-3.0,-5.0,-65.0,-977.0,-126.0
-15.0,-254.0,-64.0,-28.0,-3.0,-6.0,-56.0,-976.0,-132.0
-15.0,-253.0,-69.0,-31.0,-2.0,-7.0,-58.0,-974.0,-131.0
-16.0,-252.0,-65.0,-31.0,-1.0,-8.0,-61.0,-975.0,-131.0
-14.0,-251.0,-65.0,-31.0,1.0,-8.0,-66.0,-977.0,-129.0
-16.0,-251.0,-66.0,-33.0,4.0,-8.0,-67.0,-977.0,-128.0
-16.0,-251.0,-67.0,-33.0,5.0,-9.0,-67.0,-971.0,-134.0
-16.0,-252.0,-64.0,-33.0,4.0,-8.0,-66.0,-979.0,-131.0
-16.0,-253.0,-65.0,-35.0,4.0,-9.0,-66.0,-978.0,-130.0
-16.0,-253.0,-62.0,-37.0,2.0,-8.0,-73.0,-977.0,-132.0
-17.0,-255.0,-67.0,-40.0,0.0,-8.0,-75.0,-976.0,-130.0
-18.0,-252.0,-68.0,-40.0,-3.0,-7.0,-75.0,-978.0,-130.0
-20.0,-252.0,-63.0,-42.0,-8.0,-6.0,-77.0,-979.0,-131.0
-19.0,-252.0,-69.0,-41.0,-12.0,-5.0,-76.0,-980.0,-137.0
-18.0,-251.0,-63.0,-39.0,-15.0,-5.0,-69.0,-984.0,-127.0
-16.0,-253.0,-71.0,-37.0,-14.0,-6.0,-77.0,-983.0,-134.0
-17.0,-260.0,-66.0,-35.0,-12.0,-8.0,-80.0,-983.0,-134.0
-18.0,-253.0,-66.0,-33.0,-13.0,-8.0,-81.0,-977.0,-129.0
-18.0,-256.0,-64.0,-30.0,-16.0,-9.0,-79.0,-981.0,-125.0
-22.0,-255.0,-59.0,-26.0,-21.0,-8.0,-79.0,-977.0,-122.0
-21.0,-253.0,-65.0,-23.0,-28.0,-9.0,-85.0,-979.0,-127.0
-23.0,-254.0,-62.0,-24.0,-33.0,-10.0,-88.0,-979.0,-129.0
-23.0,-253.0,-66.0,-27.0,-38.0,-11.0,-84.0,-981.0,-131.0
-24.0,-252.0,-67.0,-30.0,-44.0,-13.0,-91.0,-981.0,-134.0
-24.0,-254.0,-66.0,-36.0,-50.0,-14.0,-93.0,-984.0,-137.0
-23.0,-255.0,-68.0,-44.0,-57.0,-14.0,-97.0,-988.0,-135.0
-22.0,-258.0,-68.0,-50.0,-63.0,-17.0,-97.0,-985.0,-149.0
-26.0,-253.0,-68.0,-59.0,-69.0,-19.0,-95.0,-988.0,-147.0
-24.0,-257.0,-70.0,-67.0,-76.0,-20.0,-89.0,-992.0,-146.0
-23.0,-258.0,-72.0,-72.0,-82.0,-22.0,-82.0,-989.0,-147.0
-23.0,-256.0,-68.0,-73.0,-86.0,-23.0,-87.0,-995.0,-141.0
-20.0,-258.0,-74.0,-68.0,-90.0,-26.0,-90.0,-997.0,-146.0
-26.0,-259.0,-69.0,-61.0,-95.0,-28.0,-92.0,-997.0,-140.0
-25.0,-259.0,-69.0,-51.0,-101.0,-30.0,-89.0,-1006.0,-132.0
-25.0,-260.0,-65.0,-41.0,-108.0,-32.0,-93.0,-1005.0,-134.0
-25.0,-262.0,-65.0,-26.0,-114.0,-34.0,-103.0,-1006.0,-126.0
-23.0,-260.0,-64.0,-12.0,-122.0,-37.0,-99.0,-1007.0,-132.0
-25.0,-258.0,-66.0,1.0,-134.0,-41.0,-99.0,-1009.0,-130.0
-24.0,-255.0,-58.0,11.0,-142.0,-44.0,-96.0,-1005.0,-136.0
-25.0,-258.0,-69.0,20.0,-148.0,-48.0,-96.0,-1001.0,-138.0
-27.0,-257.0,-69.0,24.0,-151.0,-53.0,-98.0,-999.0,-139.0
-24.0,-255.0,-70.0,27.0,-154.0,-59.0,-97.0,-998.0,-143.0
-22.0,-255.0,-73.0,28.0,-158.0,-64.0,-88.0,-994.0,-150.0
-20.0,-253.0,-77.0,19.0,-161.0,-70.0,-82.0,-988.0,-169.0
-16.0,-252.0,-78.0,7.0,-160.0,-77.0,-71.0,-986.0,-181.0
-16.0,-252.0,-84.0,-9.0,-154.0,-86.0,-68.0,-976.0,-194.0
-16.0,-248.0,-88.0,-27.0,-141.0,-94.0,-71.0,-967.0,-202.0
-16.0,-249.0,-87.0,-40.0,-127.0,-98.0,-74.0,-962.0,-210.0
-15.0,-247.0,-85.0,-49.0,-116.0,-98.0,-65.0,-949.0,-219.0
-15.0,-244.0,-91.0,-51.0,-101.0,-94.0,-55.0,-938.0,-220.0
-9.0,-241.0,-89.0,-48.0,-85.0,-84.0,-43.0,-919.0,-220.0
-4.0,-234.0,-88.0,-41.0,-65.0,-71.0,-24.0,-905.0,-216.0
-1.0,-229.0,-84.0,-29.0,-38.0,-51.0,-6.0,-887.0,-199.0
6.0,-227.0,-72.0,-12.0,-8.0,-30.0,22.0,-869.0,-168.0
14.0,-223.0,-65.0,9.0,21.0,-6.0,50.0,-860.0,-132.0
20.0,-223.0,-61.0,39.0,43.0,14.0,73.0,-852.0,-91.0
28.0,-220.0,-50.0,68.0,57.0,35.0,98.0,-853.0,-53.0
29.0,-221.0,-37.0,98.0,64.0,53.0,117.0,-854.0,-16.0
37.0,-223.0,-33.0,123.0,65.0,69.0,144.0,-860.0,10.0
41.0,-226.0,-29.0,140.0,64.0,79.0,158.0,-872.0,24.0
43.0,-226.0,-25.0,142.0,63.0,83.0,157.0,-895.0,31.0
34.0,-228.0,-25.0,127.0,58.0,83.0,129.0,-904.0,24.0
28.0,-234.0,-30.0,93.0,50.0,77.0,111.0,-920.0,17.0
22.0,-238.0,-37.0,45.0,32.0,71.0,99.0,-930.0,-5.0
22.0,-239.0,-44.0,-13.0,11.0,67.0,93.0,-939.0,-33.0
21.0,-245.0,-52.0,-77.0,-6.0,62.0,83.0,-948.0,-60.0
19.0,-247.0,-54.0,-140.0,-16.0,59.0,74.0,-960.0,-72.0
14.0,-247.0,-56.0,-198.0,-17.0,60.0,57.0,-971.0,-89.0
10.0,-250.0,-57.0,-244.0,-13.0,61.0,39.0,-976.0,-89.0
9.0,-253.0,-60.0,-280.0,-6.0,68.0,29.0,-984.0,-100.0
4.0,-256.0,-58.0,-300.0,6.0,78.0,23.0,-991.0,-102.0
0.0,-263.0,-62.0,-303.0,19.0,89.0,4.0,-1009.0,-111.0
-3.0,-264.0,-64.0,-291.0,36.0,97.0,-5.0,-1009.0,-116.0
-6.0,-265.0,-64.0,-263.0,54.0,104.0,-17.0,-1020.0,-117.0
-7.0,-264.0,-65.0,-223.0,67.0,104.0,-26.0,-1017.0,-129.0
-10.0,-262.0,-68.0,-176.0,78.0,100.0,-32.0,-1009.0,-139.0
-12.0,-261.0,-71.0,-127.0,88.0,95.0,-41.0,-1003.0,-149.0
-13.0,-257.0,-74.0,-78.0,94.0,87.0,-43.0,-987.0,-153.0
-15.0,-253.0,-72.0,-40.0,100.0,80.0,-56.0,-980.0,-155.0
-17.0,-249.0,-74.0,-14.0,103.0,71.0,-68.0,-966.0,-163.0
-21.0,-247.0,-76.0,-3.0,107.0,67.0,-76.0,-957.0,-170.0
-20.0,-239.0,-76.0,-9.0,113.0,66.0,-89.0,-951.0,-174.0
-25.0,-242.0,-78.0,-28.0,122.0,64.0,-93.0,-941.0,-179.0
-27.0,-243.0,-78.0,-57.0,131.0,68.0,-101.0,-942.0,-179.0
-27.0,-244.0,-77.0,-89.0,140.0,71.0,-101.0,-943.0,-186.0
-28.0,-242.0,-81.0,-123.0,146.0,77.0,-106.0,-945.0,-189.0
-26.0,-245.0,-81.0,-154.0,150.0,84.0,-100.0,-952.0,-187.0
-22.0,-248.0,-79.0,-188.0,152.0,92.0,-95.0,-954.0,-176.0
-18.0,-250.0,-76.0,-209.0,152.0,100.0,-85.0,-970.0,-174.0
-19.0,-251.0,-75.0,-223.0,152.0,111.0,-78.0,-985.0,-168.0
-16.0,-256.0,-76.0,-232.0,151.0,119.0,-63.0,-985.0,-162.0
-13.0,-258.0,-75.0,-234.0,149.0,126.0,-51.0,-995.0,-167.0
-9.0,-260.0,-75.0,-234.0,145.0,132.0,-39.0,-1006.0,-169.0
-7.0,-264.0,-77.0,-234.0,140.0,136.0,-24.0,-1010.0,-174.0
-5.0,-265.0,-77.0,-230.0,129.0,136.0,-14.0,-1021.0,-181.0
1.0,-264.0,-82.0,-223.0,113.0,136.0,-4.0,-1035.0,-180.0
0.0,-264.0,-83.0,-210.0,93.0,134.0,-7.0,-1027.0,-189.0
-8.0,-265.0,-84.0,-190.0,70.0,135.0,-8.0,-1022.0,-194.0
-4.0,-263.0,-84.0,-168.0,46.0,137.0,-13.0,-1013.0,-205.0
-2.0,-259.0,-87.0,-147.0,27.0,140.0,-13.0,-1010.0,-205.0
-6.0,-261.0,-88.0,-131.0,14.0,143.0,-20.0,-1003.0,-210.0
-3.0,-261.0,-86.0,-121.0,5.0,147.0,-13.0,-1000.0,-211.0
-4.0,-259.0,-83.0,-117.0,3.0,146.0,-13.0,-1008.0,-216.0
-7.0,-268.0,-83.0,-113.0,1.0,144.0,-26.0,-1016.0,-199.0
-14.0,-264.0,-79.0,-106.0,-2.0,144.0,-42.0,-1035.0,-179.0
-17.0,-270.0,-76.0,-92.0,-12.0,142.0,-67.0,-1042.0,-160.0
-17.0,-270.0,-68.0,-66.0,-25.0,141.0,-77.0,-1044.0,-140.0
-22.0,-272.0,-62.0,-28.0,-40.0,140.0,-92.0,-1050.0,-127.0
-28.0,-274.0,-63.0,23.0,-51.0,138.0,-111.0,-1051.0,-119.0
-32.0,-275.0,-64.0,80.0,-60.0,135.0,-135.0,-1050.0,-126.0
-37.0,-271.0,-70.0,134.0,-66.0,134.0,-153.0,-1042.0,-138.0
-45.0,-264.0,-71.0,178.0,-71.0,131.0,-166.0,-1029.0,-162.0
-49.0,-262.0,-75.0,206.0,-79.0,127.0,-188.0,-1007.0,-185.0
-52.0,-253.0,-85.0,216.0,-92.0,126.0,-205.0,-983.0,-207.0
-55.0,-248.0,-91.0,209.0,-111.0,122.0,-207.0,-960.0,-225.0
-62.0,-240.0,-97.0,185.0,-137.0,118.0,-219.0,-932.0,-240.0
-63.0,-238.0,-92.0,151.0,-175.0,119.0,-238.0,-910.0,-240.0
-66.0,-229.0,-96.0,113.0,-219.0,119.0,-246.0,-894.0,-236.0
-69.0,-224.0,-93.0,70.0,-266.0,119.0,-258.0,-868.0,-229.0
-71.0,-218.0,-87.0,27.0,-315.0,120.0,-262.0,-860.0,-224.0
-73.0,-216.0,-85.0,-15.0,-358.0,121.0,-274.0,-844.0,-214.0
-74.0,-217.0,-81.0,-55.0,-397.0,119.0,-279.0,-841.0,-205.0
-76.0,-216.0,-84.0,-92.0,-432.0,113.0,-295.0,-847.0,-192.0
-77.0,-218.0,-79.0,-120.0,-465.0,110.0,-288.0,-841.0,-172.0
-79.0,-218.0,-72.0,-144.0,-494.0,103.0,-293.0,-844.0,-154.0
-79.0,-221.0,-67.0,-161.0,-526.0,95.0,-303.0,-855.0,-137.0
-80.0,-223.0,-62.0,-169.0,-557.0,85.0,-303.0,-855.0,-122.0
-80.0,-224.0,-61.0,-171.0,-595.0,72.0,-303.0,-859.0,-98.0
-79.0,-224.0,-55.0,-166.0,-638.0,56.0,-305.0,-861.0,-93.0
-81.0,-225.0,-59.0,-161.0,-688.0,35.0,-306.0,-861.0,-88.0
-79.0,-222.0,-57.0,-155.0,-739.0,16.0,-299.0,-863.0,-94.0
-77.0,-225.0,-65.0,-152.0,-785.0,-3.0,-287.0,-867.0,-102.0
-71.0,-229.0,-61.0,-156.0,-819.0,-22.0,-279.0,-869.0,-113.0
-67.0,-229.0,-62.0,-163.0,-842.0,-44.0,-270.0,-885.0,-112.0
-65.0,-233.0,-59.0,-171.0,-850.0,-62.0,-244.0,-900.0,-110.0
-58.0,-234.0,-59.0,-175.0,-848.0,-80.0,-213.0,-920.0,-112.0
-49.0,-241.0,-63.0,-175.0,-841.0,-94.0,-191.0,-936.0,-118.0
-39.0,-247.0,-63.0,-174.0,-830.0,-107.0,-159.0,-949.0,-117.0
-33.0,-250.0,-61.0,-175.0,-819.0,-120.0,-128.0,-977.0,-122.0
-26.0,-255.0,-66.0,-179.0,-807.0,-130.0,-95.0,-992.0,-126.0
-17.0,-264.0,-68.0,-183.0,-798.0,-143.0,-71.0,-1010.0,-129.0
-14.0,-264.0,-66.0,-188.0,-793.0,-154.0,-40.0,-1020.0,-126.0
-7.0,-267.0,-62.0,-190.0,-788.0,-163.0,-22.0,-1029.0,-118.0
2.0,-272.0,-61.0,-188.0,-784.0,-164.0,0.0,-1050.0,-109.0
1.0,-273.0,-56.0,-180.0,-783.0,-160.0,15.0,-1059.0,-93.0
9.0,-280.0,-55.0,-164.0,-777.0,-150.0,21.0,-1071.0,-82.0
9.0,-282.0,-52.0,-140.0,-765.0,-138.0,36.0,-1080.0,-70.0
11.0,-285.0,-47.0,-111.0,-750.0,-125.0,36.0,-1093.0,-55.0
6.0,-282.0,-50.0,-81.0,-731.0,-111.0,28.0,-1095.0,-53.0
1.0,-282.0,-47.0,-48.0,-715.0,-95.0,15.0,-1096.0,-46.0
-4.0,-281.0,-46.0,-14.0,-704.0,-80.0,-4.0,-1095.0,-52.0
-11.0,-281.0,-45.0,20.0,-695.0,-65.0,-25.0,-1095.0,-51.0
-13.0,-277.0,-47.0,58.0,-684.0,-52.0,-48.0,-1081.0,-39.0
-18.0,-279.0,-48.0,101.0,-672.0,-33.0,-69.0,-1082.0,-36.0
-17.0,-280.0,-42.0,143.0,-647.0,-10.0,-86.0,-1078.0,-30.0
-25.0,-275.0,-40.0,182.0,-619.0,15.0,-100.0,-1072.0,-21.0
-33.0,-273.0,-41.0,218.0,-588.0,41.0,-118.0,-1068.0,-28.0
-30.0,-279.0,-40.0,251.0,-559.0,68.0,-126.0,-1073.0,-18.0
-30.0,-275.0,-42.0,264.0,-532.0,99.0,-125.0,-1070.0,-17.0
-27.0,-275.0,-37.0,268.0,-507.0,131.0,-113.0,-1065.0,-3.0
-29.0,-268.0,-32.0,275.0,-487.0,152.0,-102.0,-1048.0,7.0
-28.0,-265.0,-33.0,283.0,-477.0,166.0,-109.0,-1036.0,16.0
-31.0,-258.0,-28.0,288.0,-480.0,181.0,-109.0,-1017.0,8.0
-27.0,-256.0,-28.0,286.0,-486.0,197.0,-109.0,-996.0,16.0
-29.0,-251.0,-28.0,279.0,-489.0,207.0,-111.0,-978.0,19.0
-32.0,-248.0,-29.0,274.0,-485.0,217.0,-114.0,-958.0,14.0
-31.0,-246.0,-28.0,261.0,-476.0,226.0,-123.0,-938.0,18.0
-35.0,-240.0,-34.0,243.0,-461.0,236.0,-124.0,-932.0,10.0
-27.0,-238.0,-28.0,219.0,-434.0,245.0,-119.0,-928.0,9.0
-28.0,-240.0,-33.0,191.0,-405.0,251.0,-114.0,-927.0,11.0
-28.0,-238.0,-29.0,157.0,-371.0,254.0,-108.0,-925.0,7.0
-30.0,-239.0,-31.0,124.0,-331.0,253.0,-128.0,-936.0,12.0
-33.0,-243.0,-33.0,82.0,-288.0,252.0,-138.0,-949.0,18.0
-32.0,-247.0,-26.0,28.0,-253.0,257.0,-125.0,-964.0,22.0
-27.0,-250.0,-24.0,-29.0,-223.0,259.0,-118.0,-981.0,40.0
-30.0,-254.0,-25.0,-75.0,-199.0,257.0,-116.0,-989.0,47.0
-30.0,-256.0,-18.0,-108.0,-185.0,250.0,-123.0,-995.0,51.0
-34.0,-259.0,-19.0,-120.0,-181.0,248.0,-128.0,-1003.0,52.0
-36.0,-262.0,-19.0,-116.0,-183.0,248.0,-126.0,-1012.0,53.0
-36.0,-262.0,-22.0,-95.0,-189.0,249.0,-137.0,-1022.0,44.0
-45.0,-265.0,-27.0,-64.0,-201.0,255.0,-166.0,-1035.0,27.0
-50.0,-269.0,-32.0,-30.0,-218.0,267.0,-192.0,-1038.0,27.0
-51.0,-275.0,-29.0,4.0,-235.0,293.0,-188.0,-1058.0,21.0
-49.0,-277.0,-30.0,46.0,-249.0,322.0,-188.0,-1072.0,19.0
-51.0,-281.0,-32.0,87.0,-265.0,344.0,-185.0,-1086.0,6.0
-53.0,-281.0,-37.0,129.0,-288.0,358.0,-195.0,-1089.0,-2.0
-53.0,-280.0,-39.0,166.0,-317.0,368.0,-197.0,-1077.0,-17.0
-54.0,-278.0,-36.0,209.0,-349.0,378.0,-205.0,-1074.0,-18.0
-58.0,-277.0,-45.0,255.0,-373.0,385.0,-208.0,-1064.0,-31.0
-57.0,-281.0,-45.0,300.0,-393.0,394.0,-222.0,-1059.0,-40.0
-59.0,-274.0,-45.0,340.0,-401.0,404.0,-223.0,-1053.0,-36.0
-58.0,-270.0,-41.0,375.0,-392.0,413.0,-219.0,-1047.0,-25.0
-57.0,-269.0,-37.0,411.0,-374.0,420.0,-226.0,-1036.0,-11.0
-60.0,-264.0,-34.0,455.0,-356.0,422.0,-232.0,-1021.0,18.0
-61.0,-260.0,-26.0,503.0,-344.0,423.0,-236.0,-1001.0,30.0
-63.0,-256.0,-23.0,556.0,-345.0,423.0,-231.0,-981.0,43.0
-62.0,-253.0,-22.0,610.0,-349.0,423.0,-239.0,-967.0,50.0
-62.0,-245.0,-20.0,660.0,-359.0,424.0,-237.0,-948.0,54.0
-62.0,-242.0,-23.0,703.0,-368.0,426.0,-241.0,-925.0,46.0
-62.0,-237.0,-26.0,733.0,-378.0,430.0,-235.0,-912.0,41.0
-56.0,-231.0,-25.0,751.0,-382.0,430.0,-216.0,-900.0,41.0
-53.0,-227.0,-23.0,758.0,-373.0,430.0,-194.0,-888.0,30.0
-45.0,-226.0,-23.0,750.0,-360.0,428.0,-184.0,-874.0,29.0
-44.0,-224.0,-28.0,733.0,-339.0,424.0,-173.0,-874.0,28.0
-41.0,-225.0,-26.0,708.0,-311.0,416.0,-161.0,-876.0,39.0
-41.0,-227.0,-22.0,679.0,-286.0,406.0,-157.0,-885.0,41.0
-36.0,-231.0,-22.0,648.0,-265.0,395.0,-142.0,-889.0,46.0
-34.0,-231.0,-21.0,616.0,-247.0,383.0,-137.0,-899.0,51.0
-34.0,-233.0,-19.0,584.0,-227.0,373.0,-133.0,-897.0,68.0
-34.0,-233.0,-18.0,559.0,-210.0,365.0,-125.0,-909.0,69.0
-35.0,-235.0,-15.0,537.0,-202.0,354.0,-133.0,-917.0,67.0
-35.0,-241.0,-9.0,520.0,-203.0,343.0,-137.0,-912.0,70.0
-38.0,-234.0,-16.0,504.0,-211.0,333.0,-144.0,-907.0,68.0
-44.0,-234.0,-18.0,497.0,-225.0,320.0,-164.0,-904.0,68.0
-46.0,-234.0,-19.0,497.0,-235.0,313.0,-177.0,-907.0,63.0
-50.0,-231.0,-18.0,501.0,-242.0,307.0,-185.0,-906.0,66.0
-49.0,-231.0,-18.0,506.0,-245.0,296.0,-195.0,-903.0,67.0
-55.0,-234.0,-18.0,512.0,-249.0,288.0,-200.0,-912.0,56.0
-54.0,-236.0,-18.0,511.0,-246.0,278.0,-211.0,-921.0,56.0
-56.0,-239.0,-13.0,501.0,-241.0,270.0,-216.0,-920.0,68.0
-58.0,-238.0,-17.0,491.0,-231.0,259.0,-218.0,-935.0,69.0
-60.0,-244.0,-13.0,479.0,-223.0,250.0,-231.0,-938.0,77.0
-63.0,-245.0,-12.0,466.0,-216.0,243.0,-246.0,-944.0,91.0
-64.0,-247.0,-8.0,457.0,-211.0,239.0,-243.0,-949.0,90.0
-65.0,-249.0,-10.0,449.0,-208.0,237.0,-247.0,-962.0,88.0
-69.0,-246.0,-10.0,437.0,-219.0,235.0,-257.0,-957.0,92.0
-71.0,-246.0,-10.0,429.0,-237.0,233.0,-264.0,-951.0,95.0
-75.0,-243.0,-11.0,425.0,-261.0,232.0,-278.0,-944.0,95.0
-78.0,-238.0,-9.0,431.0,-285.0,233.0,-283.0,-928.0,103.0
-74.0,-240.0,-4.0,446.0,-308.0,237.0,-291.0,-920.0,112.0
-80.0,-235.0,-2.0,472.0,-327.0,239.0,-294.0,-903.0,124.0
-79.0,-234.0,1.0,508.0,-344.0,239.0,-291.0,-894.0,130.0
-78.0,-229.0,4.0,549.0,-354.0,238.0,-298.0,-891.0,144.0
-77.0,-229.0,10.0,589.0,-358.0,241.0,-300.0,-887.0,148.0
-79.0,-229.0,6.0,627.0,-351.0,247.0,-293.0,-880.0,154.0
-78.0,-228.0,8.0,658.0,-333.0,255.0,-293.0,-871.0,162.0
-79.0,-223.0,10.0,679.0,-310.0,261.0,-293.0,-871.0,166.0
-75.0,-225.0,9.0,695.0,-289.0,264.0,-289.0,-864.0,167.0
-71.0,-223.0,11.0,701.0,-271.0,264.0,-283.0,-851.0,176.0
-67.0,-217.0,8.0,699.0,-254.0,260.0,-263.0,-846.0,180.0
-62.0,-216.0,10.0,685.0,-232.0,250.0,-245.0,-833.0,173.0
-58.0,-210.0,11.0,672.0,-212.0,235.0,-234.0,-818.0,177.0
-59.0,-209.0,9.0,653.0,-194.0,215.0,-220.0,-803.0,182.0
-55.0,-201.0,14.0,628.0,-186.0,194.0,-211.0,-790.0,176.0
-56.0,-199.0,11.0,599.0,-188.0,176.0,-212.0,-771.0,174.0
-56.0,-192.0,9.0,562.0,-195.0,163.0,-214.0,-764.0,176.0
-57.0,-189.0,9.0,520.0,-196.0,150.0,-215.0,-750.0,173.0
-59.0,-190.0,13.0,470.0,-183.0,139.0,-218.0,-746.0,178.0
-58.0,-187.0,12.0,416.0,-156.0,133.0,-237.0,-748.0,180.0
-63.0,-191.0,15.0,359.0,-120.0,125.0,-248.0,-752.0,189.0
-66.0,-196.0,13.0,303.0,-85.0,120.0,-254.0,-753.0,198.0
-67.0,-197.0,22.0,248.0,-52.0,114.0,-255.0,-771.0,214.0
-65.0,-202.0,23.0,193.0,-26.0,106.0,-257.0,-784.0,217.0
-65.0,-207.0,28.0,137.0,-7.0,91.0,-260.0,-811.0,235.0
-70.0,-210.0,33.0,85.0,2.0,79.0,-259.0,-822.0,242.0
-70.0,-216.0,33.0,44.0,0.0,66.0,-258.0,-841.0,256.0
-71.0,-221.0,32.0,19.0,-11.0,54.0,-268.0,-858.0,260.0
-72.0,-227.0,31.0,8.0,-22.0,40.0,-278.0,-872.0,253.0
-76.0,-228.0,34.0,9.0,-32.0,25.0,-289.0,-890.0,249.0
-79.0,-228.0,27.0,19.0,-38.0,10.0,-301.0,-896.0,241.0
-81.0,-230.0,28.0,31.0,-34.0,-1.0,-303.0,-891.0,241.0
-81.0,-231.0,26.0,45.0,-23.0,-9.0,-320.0,-901.0,236.0
-86.0,-235.0,28.0,61.0,-5.0,-16.0,-319.0,-914.0,240.0
-83.0,-239.0,31.0,77.0,19.0,-22.0,-333.0,-914.0,243.0
-83.0,-237.0,29.0,99.0,47.0,-27.0,-330.0,-925.0,248.0
-83.0,-241.0,32.0,122.0,77.0,-27.0,-330.0,-930.0,256.0
-82.0,-246.0,34.0,143.0,106.0,-28.0,-325.0,-935.0,266.0
-82.0,-240.0,34.0,163.0,132.0,-30.0,-329.0,-940.0,270.0
-83.0,-242.0,37.0,181.0,150.0,-32.0,-321.0,-942.0,270.0
-84.0,-242.0,34.0,191.0,157.0,-33.0,-319.0,-941.0,259.0
-80.0,-241.0,27.0,198.0,154.0,-31.0,-318.0,-937.0,247.0
-80.0,-241.0,22.0,204.0,149.0,-27.0,-309.0,-928.0,219.0
-78.0,-234.0,18.0,201.0,156.0,-26.0,-296.0,-917.0,203.0
-71.0,-230.0,13.0,188.0,174.0,-21.0,-285.0,-901.0,180.0
-72.0,-224.0,10.0,165.0,204.0,-16.0,-271.0,-871.0,173.0
-65.0,-219.0,8.0,144.0,237.0,-11.0,-252.0,-861.0,177.0
-63.0,-218.0,13.0,118.0,270.0,-1.0,-242.0,-845.0,194.0
-55.0,-215.0,24.0,93.0,302.0,10.0,-220.0,-846.0,224.0
-53.0,-217.0,31.0,73.0,332.0,20.0,-205.0,-840.0,247.0
-49.0,-219.0,37.0,56.0,362.0,32.0,-193.0,-847.0,278.0
-51.0,-222.0,41.0,35.0,390.0,41.0,-188.0,-856.0,299.0
-54.0,-225.0,44.0,11.0,414.0,42.0,-204.0,-873.0,302.0
-55.0,-232.0,41.0,-13.0,428.0,40.0,-214.0,-904.0,298.0
-66.0,-234.0,43.0,-38.0,435.0,33.0,-241.0,-924.0,293.0
-73.0,-238.0,43.0,-66.0,440.0,27.0,-276.0,-929.0,276.0
-79.0,-243.0,32.0,-94.0,446.0,25.0,-308.0,-937.0,251.0
-84.0,-241.0,19.0,-118.0,455.0,23.0,-323.0,-938.0,216.0
-90.0,-239.0,11.0,-145.0,463.0,25.0,-352.0,-929.0,179.0
-93.0,-236.0,8.0,-174.0,473.0,30.0,-356.0,-918.0,160.0
-90.0,-231.0,6.0,-195.0,486.0,35.0,-350.0,-907.0,153.0
-86.0,-230.0,9.0,-213.0,502.0,37.0,-338.0,-894.0,162.0
-82.0,-227.0,11.0,-225.0,521.0,37.0,-323.0,-893.0,182.0
-81.0,-226.0,19.0,-225.0,541.0,31.0,-323.0,-879.0,193.0
-86.0,-228.0,23.0,-219.0,561.0,23.0,-332.0,-885.0,222.0
-90.0,-232.0,29.0,-208.0,576.0,15.0,-357.0,-896.0,248.0
-98.0,-234.0,30.0,-192.0,581.0,9.0,-382.0,-905.0,265.0
-108.0,-237.0,36.0,-174.0,582.0,4.0,-409.0,-916.0,261.0
-115.0,-238.0,29.0,-153.0,578.0,1.0,-438.0,-920.0,252.0
-118.0,-239.0,19.0,-137.0,572.0,-7.0,-467.0,-921.0,225.0
-130.0,-237.0,14.0,-127.0,568.0,-12.0,-491.0,-918.0,194.0
-132.0,-232.0,10.0,-129.0,564.0,-17.0,-501.0,-907.0,167.0
-131.0,-228.0,7.0,-140.0,557.0,-23.0,-505.0,-895.0,140.0
-128.0,-222.0,-8.0,-159.0,542.0,-31.0,-496.0,-864.0,115.0
-127.0,-211.0,-17.0,-181.0,526.0,-39.0,-483.0,-829.0,90.0
-119.0,-206.0,-16.0,-204.0,511.0,-51.0,-469.0,-800.0,72.0
-124.0,-195.0,-19.0,-231.0,499.0,-67.0,-465.0,-777.0,65.0
-118.0,-191.0,-18.0,-258.0,489.0,-82.0,-454.0,-750.0,67.0
-122.0,-187.0,-15.0,-280.0,481.0,-93.0,-465.0,-738.0,63.0
-124.0,-191.0,-17.0,-304.0,470.0,-100.0,-466.0,-734.0,59.0
-114.0,-194.0,-20.0,-336.0,460.0,-99.0,-462.0,-753.0,46.0
-116.0,-200.0,-22.0,-371.0,455.0,-96.0,-450.0,-778.0,36.0
-113.0,-210.0,-29.0,-409.0,458.0,-93.0,-437.0,-813.0,26.0
-107.0,-222.0,-35.0,-445.0,465.0,-89.0,-421.0,-854.0,17.0
-105.0,-233.0,-33.0,-480.0,474.0,-86.0,-408.0,-903.0,19.0
-105.0,-243.0,-33.0,-511.0,479.0,-81.0,-391.0,-933.0,15.0
-102.0,-246.0,-26.0,-533.0,472.0,-73.0,-390.0,-963.0,26.0
-101.0,-251.0,-21.0,-539.0,453.0,-62.0,-384.0,-978.0,47.0
-97.0,-257.0,-19.0,-522.0,431.0,-51.0,-377.0,-992.0,67.0
-98.0,-261.0,-10.0,-484.0,411.0,-36.0,-379.0,-1000.0,89.0
-94.0,-263.0,-7.0,-427.0,400.0,-17.0,-372.0,-1004.0,111.0
-88.0,-259.0,2.0,-357.0,398.0,5.0,-365.0,-1001.0,119.0
-87.0,-257.0,-5.0,-279.0,411.0,30.0,-350.0,-998.0,121.0
-83.0,-255.0,-4.0,-200.0,435.0,59.0,-333.0,-987.0,124.0
-78.0,-253.0,-4.0,-127.0,476.0,86.0,-311.0,-980.0,124.0
-69.0,-248.0,0.0,-62.0,531.0,116.0,-283.0,-965.0,133.0
-60.0,-244.0,6.0,-6.0,602.0,146.0,-244.0,-954.0,138.0
-51.0,-242.0,4.0,35.0,686.0,173.0,-206.0,-937.0,150.0
-43.0,-240.0,8.0,61.0,775.0,193.0,-181.0,-936.0,160.0
-42.0,-239.0,12.0,73.0,859.0,207.0,-164.0,-921.0,175.0
-39.0,-235.0,14.0,76.0,931.0,213.0,-148.0,-907.0,182.0
-37.0,-229.0,17.0,69.0,984.0,213.0,-144.0,-901.0,192.0
-36.0,-229.0,15.0,58.0,1019.0,206.0,-143.0,-892.0,193.0
-35.0,-222.0,14.0,44.0,1042.0,194.0,-155.0,-873.0,188.0
-41.0,-224.0,10.0,26.0,1063.0,179.0,-160.0,-867.0,175.0
-43.0,-223.0,9.0,1.0,1087.0,162.0,-185.0,-866.0,167.0
-52.0,-219.0,5.0,-27.0,1120.0,144.0,-210.0,-859.0,148.0
-58.0,-223.0,2.0,-59.0,1165.0,127.0,-236.0,-864.0,129.0
-66.0,-221.0,-4.0,-92.0,1220.0,108.0,-258.0,-857.0,119.0
-73.0,-218.0,-7.0,-125.0,1279.0,89.0,-279.0,-857.0,112.0
-81.0,-218.0,-7.0,-151.0,1330.0,69.0,-306.0,-846.0,96.0
-84.0,-217.0,-16.0,-178.0,1373.0,52.0,-330.0,-836.0,81.0
-88.0,-215.0,-23.0,-196.0,1402.0,35.0,-353.0,-834.0,62.0
-96.0,-216.0,-24.0,-210.0,1422.0,23.0,-378.0,-833.0,46.0
-103.0,-215.0,-27.0,-223.0,1435.0,11.0,-400.0,-827.0,34.0
-105.0,-217.0,-26.0,-236.0,1448.0,2.0,-420.0,-834.0,29.0
-113.0,-213.0,-29.0,-249.0,1464.0,-5.0,-438.0,-835.0,21.0
-118.0,-217.0,-35.0,-263.0,1482.0,-9.0,-452.0,-846.0,18.0
-121.0,-222.0,-32.0,-272.0,1497.0,-11.0,-473.0,-861.0,15.0
-126.0,-223.0,-35.0,-277.0,1509.0,-14.0,-483.0,-868.0,16.0
-133.0,-223.0,-30.0,-277.0,1520.0,-14.0,-504.0,-867.0,15.0
-135.0,-226.0,-32.0,-277.0,1531.0,-15.0,-516.0,-885.0,11.0
-139.0,-228.0,-35.0,-271.0,1540.0,-11.0,-530.0,-891.0,3.0
-143.0,-225.0,-35.0,-266.0,1546.0,0.0,-540.0,-888.0,-2.0
-142.0,-230.0,-38.0,-259.0,1545.0,13.0,-535.0,-894.0,-7.0
-138.0,-229.0,-43.0,-252.0,1540.0,31.0,-531.0,-894.0,-18.0
-140.0,-226.0,-46.0,-248.0,1534.0,54.0,-520.0,-887.0,-32.0
-132.0,-227.0,-47.0,-251.0,1523.0,71.0,-503.0,-872.0,-48.0
-128.0,-225.0,-50.0,-262.0,1514.0,85.0,-491.0,-867.0,-58.0
-126.0,-220.0,-45.0,-283.0,1501.0,94.0,-477.0,-864.0,-49.0
-122.0,-219.0,-48.0,-307.0,1487.0,99.0,-472.0,-849.0,-46.0
-120.0,-217.0,-41.0,-333.0,1469.0,100.0,-462.0,-847.0,-27.0
-119.0,-218.0,-40.0,-358.0,1446.0,103.0,-459.0,-849.0,-8.0
-118.0,-221.0,-35.0,-374.0,1416.0,108.0,-455.0,-848.0,4.0
-115.0,-220.0,-27.0,-381.0,1384.0,112.0,-449.0,-852.0,14.0
-116.0,-219.0,-27.0,-385.0,1354.0,117.0,-442.0,-854.0,18.0
-112.0,-224.0,-28.0,-390.0,1332.0,121.0,-439.0,-863.0,26.0
-114.0,-226.0,-27.0,-395.0,1323.0,127.0,-441.0,-870.0,21.0
-110.0,-230.0,-34.0,-400.0,1324.0,137.0,-436.0,-889.0,16.0
-106.0,-232.0,-34.0,-403.0,1323.0,147.0,-427.0,-899.0,9.0
-108.0,-236.0,-41.0,-403.0,1315.0,151.0,-418.0,-903.0,-10.0
-112.0,-232.0,-44.0,-402.0,1298.0,150.0,-424.0,-903.0,-34.0
-110.0,-232.0,-48.0,-401.0,1274.0,154.0,-426.0,-905.0,-54.0
-113.0,-229.0,-49.0,-400.0,1248.0,156.0,-429.0,-901.0,-65.0
-111.0,-231.0,-58.0,-400.0,1226.0,159.0,-435.0,-894.0,-80.0
-113.0,-230.0,-57.0,-398.0,1206.0,165.0,-435.0,-892.0,-88.0
-114.0,-229.0,-58.0,-397.0,1184.0,171.0,-436.0,-892.0,-101.0
-113.0,-226.0,-65.0,-395.0,1164.0,170.0,-435.0,-868.0,-125.0
-113.0,-220.0,-65.0,-396.0,1144.0,171.0,-437.0,-861.0,-133.0
-115.0,-219.0,-73.0,-404.0,1125.0,165.0,-437.0,-848.0,-146.0
-115.0,-217.0,-74.0,-413.0,1103.0,151.0,-430.0,-836.0,-170.0
-110.0,-214.0,-81.0,-432.0,1082.0,134.0,-421.0,-827.0,-183.0
-107.0,-212.0,-83.0,-455.0,1060.0,116.0,-410.0,-818.0,-191.0
-103.0,-213.0,-85.0,-483.0,1035.0,91.0,-400.0,-816.0,-197.0
-98.0,-210.0,-82.0,-515.0,1007.0,71.0,-391.0,-812.0,-196.0
-98.0,-212.0,-84.0,-545.0,973.0,50.0,-382.0,-808.0,-200.0
-98.0,-212.0,-83.0,-578.0,936.0,32.0,-380.0,-813.0,-193.0
-97.0,-213.0,-82.0,-612.0,897.0,14.0,-373.0,-822.0,-193.0
-95.0,-213.0,-81.0,-645.0,855.0,-5.0,-366.0,-832.0,-186.0
-97.0,-219.0,-81.0,-678.0,813.0,-24.0,-361.0,-846.0,-183.0
-96.0,-224.0,-81.0,-707.0,772.0,-38.0,-375.0,-864.0,-176.0
-96.0,-227.0,-78.0,-730.0,728.0,-52.0,-378.0,-877.0,-177.0
-97.0,-232.0,-76.0,-745.0,687.0,-66.0,-382.0,-896.0,-181.0
-99.0,-236.0,-76.0,-749.0,647.0,-77.0,-386.0,-913.0,-182.0
-102.0,-241.0,-78.0,-739.0,607.0,-87.0,-390.0,-923.0,-187.0
-104.0,-245.0,-81.0,-716.0,563.0,-96.0,-389.0,-930.0,-196.0
-102.0,-243.0,-84.0,-682.0,515.0,-102.0,-387.0,-933.0,-205.0
-98.0,-241.0,-85.0,-636.0,463.0,-105.0,-379.0,-933.0,-220.0
-97.0,-240.0,-91.0,-588.0,411.0,-105.0,-378.0,-921.0,-235.0
-91.0,-239.0,-94.0,-539.0,367.0,-106.0,-366.0,-916.0,-244.0
-90.0,-236.0,-98.0,-500.0,330.0,-106.0,-352.0,-908.0,-254.0
-86.0,-232.0,-101.0,-472.0,302.0,-104.0,-336.0,-896.0,-260.0
-83.0,-229.0,-98.0,-455.0,281.0,-102.0,-328.0,-889.0,-258.0
-82.0,-227.0,-97.0,-444.0,262.0,-100.0,-321.0,-880.0,-251.0
-81.0,-225.0,-94.0,-439.0,244.0,-96.0,-307.0,-868.0,-240.0
-82.0,-224.0,-96.0,-438.0,222.0,-94.0,-309.0,-866.0,-245.0
-82.0,-225.0,-95.0,-440.0,201.0,-90.0,-313.0,-852.0,-241.0
-83.0,-221.0,-94.0,-448.0,182.0,-84.0,-320.0,-850.0,-236.0
-87.0,-221.0,-103.0,-460.0,166.0,-77.0,-329.0,-848.0,-237.0
-85.0,-222.0,-94.0,-474.0,156.0,-70.0,-339.0,-854.0,-236.0
-84.0,-222.0,-96.0,-486.0,151.0,-63.0,-341.0,-852.0,-235.0
-86.0,-224.0,-97.0,-490.0,151.0,-56.0,-333.0,-854.0,-246.0
-84.0,-224.0,-98.0,-491.0,161.0,-50.0,-326.0,-858.0,-252.0
-80.0,-225.0,-100.0,-491.0,178.0,-43.0,-323.0,-851.0,-254.0
-78.0,-223.0,-98.0,-488.0,202.0,-37.0,-299.0,-855.0,-253.0
-71.0,-223.0,-100.0,-485.0,228.0,-33.0,-278.0,-854.0,-248.0
-63.0,-220.0,-100.0,-478.0,250.0,-36.0,-252.0,-852.0,-249.0
-55.0,-222.0,-96.0,-471.0,266.0,-43.0,-216.0,-860.0,-257.0
-50.0,-222.0,-100.0,-464.0,280.0,-56.0,-195.0,-857.0,-259.0
-44.0,-224.0,-101.0,-461.0,286.0,-71.0,-174.0,-865.0,-266.0
-39.0,-223.0,-107.0,-461.0,287.0,-88.0,-153.0,-863.0,-284.0
-38.0,-225.0,-106.0,-469.0,285.0,-109.0,-157.0,-868.0,-288.0
-44.0,-225.0,-112.0,-472.0,278.0,-127.0,-168.0,-866.0,-301.0
-41.0,-226.0,-111.0,-480.0,264.0,-137.0,-166.0,-867.0,-316.0
-43.0,-227.0,-114.0,-491.0,251.0,-150.0,-180.0,-868.0,-323.0
-50.0,-223.0,-118.0,-513.0,240.0,-164.0,-192.0,-868.0,-328.0
-55.0,-222.0,-115.0,-543.0,233.0,-167.0,-211.0,-863.0,-335.0
-59.0,-223.0,-119.0,-572.0,230.0,-169.0,-238.0,-857.0,-342.0
-65.0,-221.0,-117.0,-603.0,226.0,-163.0,-248.0,-853.0,-343.0
-66.0,-226.0,-123.0,-632.0,224.0,-156.0,-262.0,-855.0,-344.0
-66.0,-221.0,-122.0,-655.0,226.0,-152.0,-270.0,-859.0,-343.0
-71.0,-227.0,-120.0,-665.0,235.0,-145.0,-275.0,-859.0,-342.0
-71.0,-227.0,-118.0,-655.0,248.0,-138.0,-276.0,-866.0,-335.0
-69.0,-227.0,-117.0,-628.0,263.0,-133.0,-267.0,-869.0,-334.0
-68.0,-234.0,-113.0,-583.0,276.0,-131.0,-271.0,-880.0,-323.0
-69.0,-233.0,-113.0,-515.0,288.0,-128.0,-269.0,-894.0,-323.0
-68.0,-238.0,-109.0,-438.0,296.0,-124.0,-268.0,-898.0,-305.0
-70.0,-236.0,-113.0,-348.0,297.0,-132.0,-268.0,-899.0,-312.0
-68.0,-237.0,-115.0,-257.0,289.0,-142.0,-262.0,-903.0,-313.0
-65.0,-238.0,-114.0,-167.0,280.0,-153.0,-259.0,-902.0,-309.0
-69.0,-237.0,-112.0,-87.0,275.0,-169.0,-266.0,-899.0,-311.0
-68.0,-231.0,-111.0,-20.0,273.0,-185.0,-267.0,-887.0,-304.0
-73.0,-228.0,-104.0,45.0,273.0,-201.0,-269.0,-885.0,-294.0
-73.0,-227.0,-107.0,96.0,271.0,-218.0,-274.0,-871.0,-281.0
-71.0,-228.0,-104.0,138.0,264.0,-240.0,-273.0,-863.0,-271.0
-72.0,-223.0,-97.0,173.0,254.0,-261.0,-274.0,-858.0,-256.0
-72.0,-222.0,-91.0,195.0,237.0,-281.0,-275.0,-853.0,-248.0
-70.0,-220.0,-90.0,216.0,211.0,-302.0,-274.0,-849.0,-228.0
-75.0,-220.0,-83.0,237.0,176.0,-321.0,-277.0,-841.0,-215.0
-71.0,-219.0,-87.0,260.0,132.0,-335.0,-269.0,-846.0,-202.0
-66.0,-220.0,-81.0,283.0,82.0,-353.0,-262.0,-842.0,-201.0
-68.0,-222.0,-87.0,306.0,29.0,-373.0,-254.0,-837.0,-194.0
-71.0,-219.0,-81.0,332.0,-23.0,-392.0,-240.0,-846.0,-181.0
-62.0,-221.0,-71.0,363.0,-70.0,-416.0,-236.0,-847.0,-167.0
-58.0,-225.0,-71.0,404.0,-102.0,-440.0,-233.0,-852.0,-147.0
-52.0,-229.0,-66.0,449.0,-118.0,-464.0,-210.0,-871.0,-136.0
-44.0,-235.0,-62.0,498.0,-120.0,-496.0,-189.0,-902.0,-117.0
-39.0,-240.0,-57.0,546.0,-105.0,-536.0,-162.0,-918.0,-101.0
-29.0,-248.0,-57.0,593.0,-79.0,-580.0,-137.0,-943.0,-93.0
-33.0,-243.0,-56.0,636.0,-46.0,-634.0,-96.0,-967.0,-89.0
-14.0,-257.0,-59.0,678.0,-10.0,-683.0,-60.0,-990.0,-88.0
-7.0,-261.0,-59.0,703.0,18.0,-749.0,-44.0,-1005.0,-107.0
1.0,-264.0,-60.0,726.0,38.0,-814.0,-8.0,-1009.0,-118.0
-5.0,-262.0,-65.0,737.0,44.0,-883.0,-1.0,-1014.0,-139.0
-1.0,-264.0,-77.0,745.0,36.0,-942.0,-7.0,-1022.0,-153.0
-1.0,-264.0,-74.0,747.0,12.0,-993.0,4.0,-1031.0,-180.0
-5.0,-264.0,-85.0,738.0,-25.0,-1038.0,0.0,-1033.0,-192.0
-6.0,-268.0,-87.0,730.0,-68.0,-1068.0,-13.0,-1039.0,-209.0
-9.0,-265.0,-87.0,722.0,-109.0,-1095.0,-21.0,-1043.0,-225.0
-13.0,-268.0,-96.0,704.0,-147.0,-1123.0,-37.0,-1043.0,-233.0
-16.0,-267.0,-89.0,679.0,-181.0,-1141.0,-71.0,-1045.0,-225.0
-23.0,-270.0,-87.0,655.0,-211.0,-1148.0,-83.0,-1045.0,-215.0
-30.0,-272.0,-85.0,635.0,-237.0,-1146.0,-107.0,-1056.0,-204.0
-39.0,-275.0,-78.0,621.0,-265.0,-1134.0,-140.0,-1069.0,-192.0
-41.0,-282.0,-81.0,618.0,-291.0,-1112.0,-155.0,-1092.0,-183.0
-44.0,-287.0,-73.0,622.0,-318.0,-1086.0,-164.0,-1106.0,-171.0
-41.0,-294.0,-71.0,638.0,-340.0,-1060.0,-161.0,-1128.0,-157.0
-43.0,-296.0,-72.0,666.0,-359.0,-1035.0,-165.0,-1143.0,-144.0
-38.0,-303.0,-71.0,710.0,-372.0,-1012.0,-153.0,-1163.0,-153.0
-31.0,-308.0,-72.0,774.0,-382.0,-998.0,-139.0,-1168.0,-158.0
-28.0,-309.0,-75.0,854.0,-385.0,-993.0,-112.0,-1174.0,-167.0
-16.0,-310.0,-77.0,946.0,-379.0,-998.0,-78.0,-1186.0,-179.0
-11.0,-313.0,-77.0,1038.0,-362.0,-1013.0,-43.0,-1191.0,-184.0
0.0,-322.0,-79.0,1124.0,-325.0,-1030.0,-25.0,-1215.0,-189.0
-1.0,-328.0,-84.0,1204.0,-275.0,-1039.0,-7.0,-1251.0,-181.0
9.0,-331.0,-77.0,1275.0,-220.0,-1032.0,14.0,-1271.0,-181.0
13.0,-340.0,-76.0,1335.0,-165.0,-1018.0,29.0,-1306.0,-173.0
12.0,-344.0,-84.0,1386.0,-115.0,-1001.0,51.0,-1337.0,-192.0
13.0,-337.0,-93.0,1415.0,-90.0,-1004.0,57.0,-1324.0,-230.0
10.0,-333.0,-107.0,1410.0,-100.0,-1017.0,58.0,-1301.0,-282.0
14.0,-325.0,-124.0,1370.0,-134.0,-1041.0,65.0,-1289.0,-360.0
16.0,-322.0,-142.0,1280.0,-184.0,-1065.0,58.0,-1270.0,-423.0
22.0,-321.0,-147.0,1151.0,-219.0,-1080.0,74.0,-1261.0,-454.0
29.0,-317.0,-147.0,1006.0,-231.0,-1088.0,107.0,-1236.0,-461.0
43.0,-307.0,-135.0,861.0,-228.0,-1082.0,133.0,-1230.0,-459.0
38.0,-313.0,-145.0,729.0,-217.0,-1069.0,147.0,-1229.0,-447.0
40.0,-315.0,-135.0,621.0,-202.0,-1050.0,160.0,-1222.0,-412.0
45.0,-315.0,-124.0,538.0,-192.0,-1023.0,174.0,-1228.0,-363.0
49.0,-319.0,-114.0,488.0,-183.0,-998.0,182.0,-1224.0,-316.0
48.0,-318.0,-100.0,464.0,-178.0,-973.0,183.0,-1230.0,-253.0
48.0,-322.0,-83.0,481.0,-184.0,-956.0,173.0,-1224.0,-199.0
40.0,-317.0,-74.0,527.0,-200.0,-947.0,154.0,-1221.0,-142.0
34.0,-313.0,-56.0,586.0,-225.0,-939.0,134.0,-1212.0,-95.0
24.0,-309.0,-48.0,655.0,-252.0,-937.0,112.0,-1190.0,-61.0
24.0,-306.0,-41.0,724.0,-278.0,-940.0,96.0,-1170.0,-29.0
22.0,-296.0,-33.0,782.0,-292.0,-929.0,93.0,-1141.0,1.0
17.0,-287.0,-33.0,825.0,-298.0,-918.0,74.0,-1108.0,14.0
21.0,-278.0,-23.0,851.0,-296.0,-906.0,76.0,-1070.0,36.0
18.0,-269.0,-26.0,866.0,-289.0,-897.0,70.0,-1046.0,44.0
15.0,-264.0,-25.0,869.0,-285.0,-892.0,52.0,-1009.0,54.0
17.0,-251.0,-19.0,863.0,-284.0,-882.0,73.0,-978.0,62.0
24.0,-247.0,-15.0,846.0,-279.0,-875.0,91.0,-952.0,71.0
27.0,-239.0,-12.0,819.0,-270.0,-869.0,108.0,-928.0,82.0
32.0,-230.0,-13.0,785.0,-261.0,-869.0,121.0,-907.0,82.0
37.0,-228.0,-10.0,748.0,-248.0,-870.0,141.0,-894.0,89.0
34.0,-221.0,-20.0,706.0,-234.0,-880.0,172.0,-867.0,85.0
39.0,-216.0,-14.0,667.0,-220.0,-906.0,158.0,-850.0,89.0
46.0,-213.0,-11.0,628.0,-203.0,-918.0,175.0,-831.0,85.0
43.0,-210.0,-12.0,587.0,-187.0,-926.0,169.0,-823.0,84.0
39.0,-209.0,-12.0,539.0,-175.0,-933.0,152.0,-807.0,87.0
32.0,-207.0,-9.0,489.0,-169.0,-936.0,132.0,-805.0,103.0
31.0,-206.0,-3.0,442.0,-168.0,-937.0,116.0,-806.0,123.0
19.0,-204.0,1.0,401.0,-179.0,-930.0,87.0,-801.0,134.0
21.0,-207.0,8.0,368.0,-197.0,-903.0,86.0,-795.0,161.0
17.0,-206.0,13.0,347.0,-229.0,-871.0,83.0,-798.0,187.0
18.0,-205.0,18.0,346.0,-270.0,-836.0,75.0,-807.0,197.0
17.0,-208.0,19.0,347.0,-314.0,-796.0,79.0,-808.0,202.0
19.0,-212.0,17.0,353.0,-358.0,-759.0,87.0,-820.0,204.0
21.0,-214.0,16.0,357.0,-398.0,-727.0,81.0,-825.0,195.0
19.0,-214.0,14.0,354.0,-429.0,-691.0,79.0,-837.0,180.0
22.0,-218.0,9.0,341.0,-451.0,-659.0,84.0,-834.0,166.0
20.0,-215.0,5.0,323.0,-460.0,-631.0,83.0,-844.0,152.0
27.0,-219.0,-2.0,303.0,-460.0,-601.0,93.0,-857.0,125.0
29.0,-222.0,-9.0,281.0,-447.0,-579.0,110.0,-869.0,100.0
32.0,-233.0,-16.0,257.0,-426.0,-569.0,119.0,-884.0,83.0
37.0,-232.0,-17.0,236.0,-396.0,-563.0,152.0,-909.0,65.0
46.0,-239.0,-24.0,227.0,-357.0,-567.0,175.0,-921.0,41.0
46.0,-245.0,-34.0,224.0,-315.0,-580.0,189.0,-939.0,24.0
62.0,-252.0,-31.0,228.0,-274.0,-588.0,240.0,-966.0,18.0
62.0,-257.0,-27.0,255.0,-224.0,-604.0,243.0,-989.0,22.0
64.0,-263.0,-30.0,307.0,-165.0,-621.0,240.0,-1001.0,12.0
64.0,-268.0,-31.0,372.0,-118.0,-633.0,261.0,-1016.0,15.0
62.0,-267.0,-27.0,454.0,-82.0,-639.0,231.0,-1035.0,25.0
59.0,-265.0,-30.0,546.0,-57.0,-630.0,234.0,-1039.0,27.0
62.0,-270.0,-26.0,640.0,-43.0,-608.0,227.0,-1047.0,31.0
51.0,-269.0,-21.0,715.0,-46.0,-602.0,210.0,-1034.0,47.0
53.0,-263.0,-24.0,786.0,-55.0,-587.0,226.0,-1031.0,43.0
54.0,-262.0,-27.0,832.0,-64.0,-580.0,218.0,-1015.0,47.0
57.0,-261.0,-23.0,847.0,-80.0,-570.0,232.0,-1011.0,39.0
58.0,-258.0,-21.0,830.0,-100.0,-555.0,228.0,-1001.0,41.0
53.0,-256.0,-27.0,804.0,-115.0,-536.0,207.0,-1003.0,45.0
65.0,-259.0,-24.0,774.0,-129.0,-522.0,235.0,-998.0,34.0
54.0,-254.0,-30.0,738.0,-136.0,-532.0,215.0,-987.0,21.0
62.0,-255.0,-34.0,691.0,-133.0,-536.0,210.0,-978.0,6.0
50.0,-254.0,-33.0,633.0,-121.0,-539.0,204.0,-984.0,19.0
52.0,-253.0,-29.0,587.0,-103.0,-544.0,218.0,-979.0,20.0
67.0,-259.0,-19.0,549.0,-80.0,-546.0,267.0,-986.0,40.0
66.0,-250.0,-21.0,527.0,-52.0,-561.0,231.0,-977.0,56.0
52.0,-254.0,-15.0,517.0,-22.0,-562.0,221.0,-975.0,78.0
72.0,-258.0,-8.0,524.0,-5.0,-554.0,264.0,-989.0,95.0
60.0,-256.0,-3.0,543.0,9.0,-559.0,260.0,-994.0,115.0
70.0,-257.0,1.0,563.0,25.0,-561.0,287.0,-1000.0,120.0
80.0,-261.0,5.0,574.0,31.0,-570.0,314.0,-999.0,149.0
75.0,-258.0,7.0,590.0,41.0,-583.0,311.0,-1014.0,154.0
70.0,-259.0,10.0,601.0,45.0,-593.0,286.0,-1012.0,166.0
71.0,-257.0,14.0,605.0,44.0,-590.0,281.0,-1013.0,182.0
73.0,-254.0,17.0,612.0,39.0,-591.0,284.0,-991.0,181.0
68.0,-251.0,19.0,600.0,27.0,-587.0,285.0,-985.0,191.0
79.0,-250.0,21.0,588.0,20.0,-580.0,305.0,-976.0,217.0
73.0,-245.0,21.0,591.0,19.0,-597.0,303.0,-944.0,211.0
73.0,-235.0,18.0,582.0,18.0,-603.0,286.0,-929.0,210.0
76.0,-237.0,20.0,559.0,11.0,-598.0,285.0,-921.0,224.0
75.0,-234.0,29.0,535.0,14.0,-600.0,304.0,-902.0,233.0
92.0,-233.0,27.0,518.0,22.0,-601.0,325.0,-900.0,238.0
71.0,-224.0,39.0,511.0,38.0,-609.0,312.0,-890.0,269.0
89.0,-226.0,38.0,517.0,51.0,-601.0,315.0,-876.0,282.0
74.0,-227.0,42.0,533.0,51.0,-587.0,288.0,-871.0,302.0
82.0,-228.0,45.0,557.0,39.0,-560.0,315.0,-883.0,298.0
83.0,-227.0,45.0,587.0,23.0,-534.0,331.0,-880.0,321.0
79.0,-229.0,46.0,617.0,15.0,-519.0,338.0,-879.0,316.0
88.0,-229.0,48.0,635.0,4.0,-492.0,327.0,-889.0,315.0
80.0,-229.0,48.0,658.0,-4.0,-469.0,311.0,-904.0,322.0
99.0,-232.0,50.0,698.0,-15.0,-444.0,343.0,-906.0,322.0
96.0,-234.0,44.0,734.0,-19.0,-418.0,324.0,-903.0,298.0
87.0,-230.0,39.0,757.0,-17.0,-389.0,315.0,-899.0,284.0
76.0,-227.0,34.0,766.0,-11.0,-363.0,320.0,-893.0,279.0
88.0,-223.0,34.0,765.0,-8.0,-336.0,348.0,-867.0,270.0
83.0,-222.0,42.0,757.0,1.0,-321.0,310.0,-861.0,281.0
80.0,-221.0,43.0,752.0,6.0,-296.0,320.0,-867.0,291.0
83.0,-219.0,37.0,743.0,14.0,-266.0,343.0,-856.0,289.0
88.0,-226.0,52.0,723.0,15.0,-245.0,332.0,-880.0,337.0
84.0,-218.0,41.0,717.0,23.0,-228.0,339.0,-864.0,303.0
103.0,-225.0,54.0,678.0,7.0,-204.0,373.0,-872.0,325.0
88.0,-225.0,49.0,660.0,-2.0,-197.0,338.0,-892.0,325.0
95.0,-227.0,54.0,653.0,-16.0,-180.0,331.0,-894.0,329.0
83.0,-228.0,52.0,656.0,-34.0,-174.0,336.0,-895.0,335.0
84.0,-227.0,52.0,656.0,-53.0,-166.0,336.0,-881.0,322.0
87.0,-222.0,54.0,640.0,-71.0,-156.0,362.0,-891.0,345.0
83.0,-224.0,52.0,632.0,-81.0,-158.0,343.0,-880.0,330.0
93.0,-222.0,45.0,614.0,-99.0,-155.0,377.0,-868.0,319.0
99.0,-222.0,50.0,593.0,-114.0,-165.0,382.0,-866.0,326.0
92.0,-216.0,43.0,581.0,-128.0,-175.0,347.0,-858.0,297.0
101.0,-216.0,47.0,563.0,-147.0,-172.0,400.0,-844.0,302.0
106.0,-216.0,40.0,551.0,-161.0,-190.0,401.0,-836.0,298.0
93.0,-216.0,38.0,545.0,-172.0,-213.0,392.0,-839.0,293.0
105.0,-216.0,44.0,527.0,-186.0,-218.0,394.0,-838.0,290.0
114.0,-217.0,42.0,512.0,-198.0,-230.0,404.0,-830.0,300.0
107.0,-215.0,42.0,505.0,-209.0,-240.0,410.0,-837.0,303.0
109.0,-218.0,48.0,505.0,-220.0,-243.0,418.0,-846.0,316.0
106.0,-220.0,50.0,521.0,-226.0,-249.0,426.0,-845.0,318.0
111.0,-222.0,47.0,548.0,-225.0,-246.0,416.0,-859.0,321.0
99.0,-220.0,54.0,580.0,-222.0,-243.0,393.0,-859.0,320.0
101.0,-221.0,48.0,608.0,-226.0,-231.0,398.0,-849.0,329.0
104.0,-217.0,58.0,632.0,-231.0,-219.0,405.0,-846.0,346.0
108.0,-224.0,56.0,659.0,-229.0,-209.0,406.0,-844.0,352.0
111.0,-213.0,56.0,689.0,-227.0,-202.0,419.0,-837.0,358.0
112.0,-213.0,64.0,713.0,-222.0,-201.0,412.0,-832.0,366.0
114.0,-210.0,63.0,734.0,-223.0,-192.0,440.0,-818.0,364.0
115.0,-204.0,63.0,735.0,-234.0,-186.0,441.0,-792.0,378.0
113.0,-205.0,60.0,732.0,-244.0,-188.0,450.0,-784.0,368.0
120.0,-197.0,62.0,707.0,-259.0,-186.0,460.0,-776.0,383.0
125.0,-196.0,70.0,678.0,-261.0,-191.0,471.0,-779.0,400.0
131.0,-201.0,71.0,653.0,-256.0,-195.0,501.0,-774.0,415.0
125.0,-201.0,70.0,623.0,-258.0,-200.0,469.0,-779.0,417.0
125.0,-200.0,75.0,586.0,-255.0,-193.0,490.0,-785.0,433.0
134.0,-199.0,79.0,554.0,-250.0,-193.0,498.0,-791.0,432.0
135.0,-201.0,74.0,523.0,-238.0,-194.0,508.0,-782.0,430.0
129.0,-202.0,79.0,493.0,-213.0,-200.0,507.0,-785.0,437.0
128.0,-206.0,77.0,467.0,-183.0,-197.0,505.0,-789.0,441.0
129.0,-203.0,77.0,439.0,-155.0,-193.0,500.0,-787.0,442.0
130.0,-197.0,76.0,410.0,-125.0,-192.0,498.0,-781.0,451.0
127.0,-199.0,84.0,387.0,-87.0,-190.0,482.0,-771.0,467.0
131.0,-193.0,86.0,371.0,-50.0,-186.0,484.0,-764.0,481.0
129.0,-189.0,88.0,360.0,-17.0,-187.0,472.0,-744.0,473.0
123.0,-185.0,89.0,344.0,10.0,-181.0,483.0,-735.0,489.0
117.0,-182.0,97.0,327.0,43.0,-174.0,473.0,-712.0,508.0
117.0,-182.0,98.0,309.0,62.0,-162.0,465.0,-707.0,524.0
130.0,-176.0,100.0,291.0,67.0,-142.0,484.0,-694.0,530.0
125.0,-176.0,97.0,253.0,72.0,-137.0,473.0,-693.0,531.0
125.0,-179.0,100.0,215.0,75.0,-121.0,473.0,-696.0,528.0
122.0,-180.0,100.0,168.0,82.0,-103.0,472.0,-706.0,530.0
118.0,-188.0,97.0,115.0,83.0,-79.0,442.0,-734.0,523.0
119.0,-194.0,95.0,60.0,76.0,-54.0,464.0,-761.0,500.0
114.0,-199.0,87.0,11.0,69.0,-33.0,447.0,-782.0,481.0
109.0,-204.0,87.0,-35.0,60.0,-13.0,427.0,-801.0,471.0
114.0,-211.0,86.0,-69.0,49.0,10.0,449.0,-815.0,462.0
112.0,-211.0,81.0,-94.0,37.0,22.0,435.0,-831.0,448.0
110.0,-218.0,79.0,-114.0,27.0,35.0,426.0,-835.0,446.0
111.0,-217.0,79.0,-122.0,16.0,49.0,429.0,-847.0,442.0
112.0,-217.0,77.0,-121.0,7.0,61.0,440.0,-838.0,438.0
109.0,-215.0,73.0,-113.0,2.0,64.0,440.0,-841.0,425.0
108.0,-212.0,72.0,-114.0,4.0,62.0,418.0,-828.0,417.0
112.0,-213.0,71.0,-118.0,6.0,63.0,433.0,-821.0,405.0
106.0,-209.0,72.0,-123.0,15.0,59.0,408.0,-808.0,405.0
104.0,-210.0,66.0,-123.0,24.0,64.0,380.0,-802.0,403.0
111.0,-203.0,69.0,-115.0,36.0,77.0,407.0,-801.0,398.0
99.0,-207.0,66.0,-104.0,52.0,80.0,392.0,-799.0,386.0
96.0,-209.0,67.0,-90.0,63.0,89.0,358.0,-799.0,394.0
102.0,-210.0,68.0,-60.0,71.0,109.0,392.0,-795.0,394.0
100.0,-203.0,62.0,-25.0,80.0,102.0,380.0,-784.0,389.0
94.0,-202.0,64.0,10.0,91.0,103.0,365.0,-787.0,378.0
92.0,-198.0,60.0,40.0,101.0,100.0,372.0,-778.0,363.0
96.0,-195.0,60.0,60.0,114.0,95.0,359.0,-768.0,365.0
92.0,-197.0,58.0,86.0,119.0,94.0,364.0,-764.0,375.0
91.0,-191.0,60.0,111.0,117.0,86.0,358.0,-747.0,367.0
87.0,-192.0,59.0,132.0,113.0,74.0,350.0,-752.0,369.0
86.0,-191.0,62.0,148.0,101.0,69.0,347.0,-748.0,368.0
83.0,-194.0,57.0,163.0,87.0,68.0,339.0,-748.0,369.0
84.0,-193.0,63.0,181.0,72.0,75.0,333.0,-756.0,376.0
86.0,-195.0,67.0,196.0,51.0,83.0,336.0,-758.0,393.0
92.0,-195.0,68.0,212.0,27.0,86.0,344.0,-774.0,394.0
85.0,-199.0,71.0,224.0,8.0,84.0,338.0,-778.0,399.0
94.0,-200.0,69.0,231.0,-9.0,86.0,353.0,-778.0,401.0
92.0,-203.0,68.0,230.0,-21.0,85.0,354.0,-780.0,401.0
88.0,-202.0,70.0,227.0,-31.0,88.0,352.0,-788.0,407.0
92.0,-203.0,68.0,220.0,-44.0,90.0,350.0,-792.0,408.0
94.0,-206.0,70.0,213.0,-58.0,95.0,369.0,-798.0,405.0
96.0,-203.0,68.0,207.0,-70.0,91.0,379.0,-789.0,396.0
94.0,-201.0,65.0,197.0,-71.0,85.0,365.0,-787.0,395.0
94.0,-203.0,69.0,189.0,-70.0,86.0,362.0,-787.0,397.0
93.0,-204.0,69.0,185.0,-69.0,92.0,356.0,-792.0,402.0
90.0,-205.0,70.0,197.0,-70.0,104.0,353.0,-793.0,412.0
91.0,-206.0,73.0,223.0,-77.0,120.0,354.0,-802.0,429.0
98.0,-208.0,76.0,261.0,-84.0,137.0,357.0,-805.0,434.0
92.0,-208.0,76.0,303.0,-91.0,152.0,369.0,-812.0,435.0
96.0,-213.0,76.0,348.0,-93.0,166.0,370.0,-815.0,431.0
95.0,-212.0,81.0,393.0,-88.0,176.0,369.0,-818.0,437.0
98.0,-211.0,76.0,436.0,-79.0,182.0,369.0,-812.0,441.0
97.0,-206.0,82.0,473.0,-64.0,184.0,372.0,-805.0,455.0
96.0,-203.0,83.0,507.0,-47.0,179.0,386.0,-799.0,454.0
99.0,-204.0,81.0,533.0,-26.0,168.0,387.0,-797.0,463.0
103.0,-200.0,88.0,553.0,-6.0,158.0,400.0,-780.0,476.0
108.0,-198.0,90.0,567.0,16.0,147.0,410.0,-777.0,481.0
110.0,-198.0,89.0,578.0,37.0,137.0,429.0,-777.0,492.0
114.0,-198.0,95.0,582.0,55.0,124.0,427.0,-765.0,511.0
110.0,-192.0,98.0,582.0,62.0,116.0,435.0,-762.0,527.0
116.0,-190.0,102.0,577.0,64.0,112.0,449.0,-753.0,532.0
119.0,-193.0,102.0,570.0,57.0,107.0,455.0,-750.0,537.0
119.0,-193.0,105.0,548.0,44.0,104.0,458.0,-740.0,545.0
116.0,-189.0,100.0,520.0,26.0,105.0,451.0,-739.0,532.0
119.0,-183.0,99.0,484.0,4.0,105.0,459.0,-714.0,528.0
118.0,-177.0,98.0,428.0,-17.0,104.0,463.0,-708.0,527.0
114.0,-177.0,99.0,355.0,-29.0,102.0,455.0,-701.0,537.0
116.0,-179.0,106.0,283.0,-31.0,109.0,446.0,-706.0,562.0
115.0,-178.0,113.0,211.0,-34.0,121.0,446.0,-704.0,579.0
114.0,-179.0,120.0,165.0,-40.0,138.0,455.0,-712.0,589.0
118.0,-182.0,111.0,126.0,-50.0,152.0,457.0,-709.0,574.0
119.0,-178.0,111.0,83.0,-55.0,161.0,450.0,-706.0,560.0
119.0,-184.0,108.0,36.0,-51.0,175.0,438.0,-715.0,568.0
117.0,-187.0,118.0,3.0,-39.0,194.0,437.0,-729.0,597.0
115.0,-193.0,115.0,-2.0,-27.0,214.0,450.0,-747.0,605.0
112.0,-194.0,128.0,12.0,-27.0,225.0,456.0,-750.0,608.0
115.0,-194.0,119.0,28.0,-31.0,229.0,445.0,-761.0,607.0
119.0,-198.0,115.0,48.0,-37.0,232.0,459.0,-775.0,603.0
114.0,-197.0,117.0,59.0,-39.0,225.0,440.0,-772.0,591.0
112.0,-200.0,110.0,70.0,-39.0,219.0,436.0,-774.0,569.0
114.0,-197.0,107.0,81.0,-41.0,206.0,444.0,-774.0,556.0
116.0,-195.0,99.0,76.0,-42.0,184.0,453.0,-767.0,531.0
113.0,-190.0,97.0,53.0,-38.0,151.0,433.0,-752.0,516.0
112.0,-190.0,98.0,21.0,-34.0,121.0,436.0,-737.0,517.0
112.0,-188.0,93.0,-8.0,-30.0,94.0,432.0,-727.0,516.0
112.0,-185.0,94.0,-33.0,-25.0,72.0,425.0,-717.0,511.0
110.0,-184.0,90.0,-54.0,-18.0,53.0,423.0,-716.0,500.0
108.0,-184.0,90.0,-77.0,-12.0,41.0,420.0,-712.0,482.0
111.0,-184.0,84.0,-103.0,-5.0,34.0,417.0,-712.0,472.0
110.0,-182.0,83.0,-126.0,0.0,31.0,411.0,-721.0,466.0
102.0,-184.0,82.0,-142.0,4.0,31.0,400.0,-717.0,464.0
100.0,-187.0,85.0,-154.0,0.0,38.0,397.0,-737.0,471.0
101.0,-194.0,86.0,-157.0,-7.0,47.0,392.0,-747.0,471.0
100.0,-196.0,78.0,-150.0,-14.0,54.0,384.0,-762.0,464.0
98.0,-201.0,83.0,-142.0,-21.0,64.0,381.0,-781.0,459.0
96.0,-201.0,79.0,-129.0,-31.0,73.0,368.0,-787.0,453.0
92.0,-207.0,78.0,-110.0,-43.0,81.0,364.0,-801.0,450.0
87.0,-206.0,79.0,-87.0,-52.0,81.0,357.0,-809.0,439.0
90.0,-212.0,77.0,-63.0,-61.0,81.0,356.0,-821.0,438.0
92.0,-214.0,74.0,-35.0,-60.0,72.0,349.0,-818.0,431.0
90.0,-214.0,76.0,-4.0,-58.0,63.0,343.0,-828.0,439.0
90.0,-214.0,80.0,33.0,-53.0,52.0,346.0,-828.0,446.0
88.0,-214.0,80.0,70.0,-47.0,38.0,337.0,-825.0,459.0
84.0,-213.0,85.0,109.0,-42.0,25.0,340.0,-822.0,470.0
85.0,-210.0,88.0,149.0,-38.0,16.0,324.0,-814.0,482.0
87.0,-210.0,90.0,186.0,-42.0,5.0,333.0,-810.0,493.0
83.0,-205.0,88.0,218.0,-49.0,-7.0,326.0,-799.0,493.0
84.0,-203.0,91.0,244.0,-55.0,-16.0,327.0,-786.0,496.0
80.0,-196.0,95.0,264.0,-56.0,-26.0,323.0,-775.0,508.0
80.0,-192.0,95.0,278.0,-54.0,-31.0,320.0,-756.0,518.0
77.0,-187.0,99.0,284.0,-52.0,-37.0,313.0,-745.0,529.0
80.0,-185.0,100.0,284.0,-53.0,-39.0,315.0,-720.0,534.0
76.0,-179.0,103.0,273.0,-57.0,-41.0,304.0,-699.0,548.0
75.0,-179.0,101.0,258.0,-64.0,-34.0,302.0,-687.0,552.0
79.0,-174.0,103.0,235.0,-73.0,-21.0,298.0,-681.0,554.0
79.0,-174.0,104.0,207.0,-87.0,-3.0,311.0,-676.0,549.0
76.0,-172.0,100.0,173.0,-99.0,18.0,307.0,-675.0,550.0
77.0,-174.0,107.0,131.0,-116.0,42.0,303.0,-681.0,543.0
76.0,-177.0,110.0,86.0,-138.0,68.0,303.0,-689.0,553.0
78.0,-180.0,102.0,49.0,-156.0,95.0,310.0,-706.0,548.0
82.0,-185.0,102.0,22.0,-171.0,119.0,317.0,-717.0,542.0
82.0,-190.0,101.0,3.0,-177.0,140.0,322.0,-733.0,538.0
85.0,-191.0,102.0,-8.0,-178.0,156.0,334.0,-743.0,535.0
87.0,-193.0,99.0,-16.0,-175.0,170.0,340.0,-749.0,529.0
89.0,-193.0,102.0,-20.0,-169.0,181.0,350.0,-758.0,535.0
93.0,-195.0,98.0,-21.0,-166.0,189.0,356.0,-760.0,533.0
96.0,-199.0,100.0,-18.0,-164.0,200.0,366.0,-770.0,524.0
95.0,-198.0,97.0,-15.0,-159.0,208.0,374.0,-777.0,527.0
97.0,-201.0,98.0,-10.0,-154.0,211.0,384.0,-780.0,528.0
100.0,-199.0,97.0,-5.0,-148.0,212.0,395.0,-786.0,527.0
104.0,-205.0,101.0,-2.0,-145.0,209.0,397.0,-794.0,527.0
106.0,-203.0,96.0,1.0,-144.0,203.0,401.0,-800.0,524.0
108.0,-208.0,95.0,0.0,-140.0,198.0,412.0,-807.0,520.0
109.0,-209.0,95.0,-3.0,-132.0,189.0,417.0,-808.0,513.0
112.0,-206.0,94.0,-10.0,-119.0,181.0,433.0,-805.0,511.0
114.0,-205.0,93.0,-18.0,-108.0,172.0,441.0,-803.0,512.0
114.0,-204.0,97.0,-29.0,-96.0,161.0,443.0,-803.0,517.0
114.0,-202.0,99.0,-41.0,-91.0,149.0,445.0,-790.0,521.0
114.0,-199.0,97.0,-51.0,-88.0,137.0,444.0,-784.0,523.0
115.0,-197.0,99.0,-64.0,-87.0,122.0,442.0,-774.0,519.0
112.0,-193.0,95.0,-77.0,-85.0,109.0,438.0,-762.0,524.0
117.0,-192.0,102.0,-87.0,-86.0,100.0,450.0,-750.0,526.0
113.0,-192.0,98.0,-97.0,-85.0,89.0,439.0,-749.0,525.0
114.0,-188.0,98.0,-102.0,-88.0,81.0,438.0,-737.0,536.0
113.0,-187.0,99.0,-101.0,-91.0,71.0,436.0,-730.0,533.0
113.0,-188.0,103.0,-103.0,-89.0,58.0,442.0,-738.0,536.0
112.0,-190.0,101.0,-101.0,-81.0,46.0,445.0,-739.0,531.0
112.0,-186.0,99.0,-98.0,-70.0,33.0,442.0,-738.0,523.0
112.0,-188.0,95.0,-100.0,-58.0,21.0,434.0,-736.0,518.0
115.0,-191.0,95.0,-106.0,-46.0,8.0,436.0,-739.0,500.0
113.0,-191.0,92.0,-113.0,-35.0,-4.0,431.0,-742.0,490.0
111.0,-193.0,87.0,-119.0,-23.0,-18.0,428.0,-752.0,489.0
110.0,-194.0,90.0,-124.0,-13.0,-31.0,427.0,-752.0,482.0
108.0,-193.0,91.0,-130.0,-3.0,-43.0,414.0,-753.0,482.0
106.0,-195.0,89.0,-135.0,4.0,-55.0,407.0,-761.0,480.0
105.0,-196.0,85.0,-140.0,9.0,-66.0,401.0,-757.0,483.0
103.0,-193.0,87.0,-150.0,10.0,-74.0,399.0,-757.0,488.0
101.0,-194.0,87.0,-162.0,12.0,-84.0,398.0,-764.0,481.0
97.0,-192.0,88.0,-177.0,9.0,-93.0,389.0,-766.0,489.0
102.0,-198.0,91.0,-189.0,2.0,-104.0,383.0,-771.0,495.0
97.0,-197.0,92.0,-203.0,-7.0,-115.0,379.0,-769.0,497.0
99.0,-199.0,94.0,-213.0,-15.0,-128.0,381.0,-773.0,493.0
101.0,-199.0,90.0,-222.0,-20.0,-139.0,382.0,-779.0,506.0
98.0,-201.0,93.0,-228.0,-26.0,-151.0,384.0,-784.0,503.0
97.0,-202.0,92.0,-230.0,-27.0,-165.0,380.0,-789.0,506.0
98.0,-205.0,94.0,-227.0,-25.0,-180.0,383.0,-794.0,503.0
101.0,-200.0,94.0,-224.0,-19.0,-194.0,380.0,-790.0,501.0
100.0,-199.0,95.0,-219.0,-13.0,-208.0,382.0,-784.0,502.0
99.0,-202.0,91.0,-211.0,-5.0,-219.0,384.0,-782.0,497.0
99.0,-198.0,94.0,-203.0,6.0,-228.0,381.0,-774.0,495.0
99.0,-198.0,89.0,-197.0,18.0,-237.0,382.0,-776.0,490.0
95.0,-195.0,86.0,-193.0,31.0,-247.0,380.0,-769.0,496.0
95.0,-204.0,92.0,-187.0,39.0,-256.0,369.0,-769.0,511.0
93.0,-198.0,95.0,-179.0,43.0,-261.0,365.0,-766.0,509.0
92.0,-199.0,99.0,-171.0,42.0,-259.0,356.0,-772.0,514.0
88.0,-200.0,99.0,-162.0,36.0,-252.0,347.0,-769.0,524.0
88.0,-201.0,94.0,-148.0,23.0,-240.0,344.0,-783.0,529.0
85.0,-206.0,95.0,-137.0,7.0,-230.0,342.0,-786.0,523.0
88.0,-208.0,97.0,-123.0,-10.0,-218.0,337.0,-798.0,521.0
90.0,-210.0,91.0,-108.0,-30.0,-208.0,354.0,-813.0,505.0
89.0,-213.0,87.0,-91.0,-51.0,-203.0,357.0,-820.0,489.0
95.0,-215.0,85.0,-73.0,-65.0,-200.0,364.0,-829.0,479.0
95.0,-215.0,87.0,-54.0,-73.0,-204.0,380.0,-834.0,473.0
100.0,-218.0,84.0,-41.0,-75.0,-211.0,371.0,-829.0,472.0
105.0,-214.0,78.0,-26.0,-69.0,-220.0,389.0,-832.0,464.0
102.0,-214.0,84.0,-15.0,-56.0,-238.0,395.0,-821.0,465.0
105.0,-210.0,85.0,-12.0,-39.0,-257.0,404.0,-819.0,466.0
106.0,-211.0,85.0,-7.0,-17.0,-278.0,397.0,-804.0,467.0
104.0,-204.0,91.0,1.0,7.0,-297.0,399.0,-794.0,483.0
106.0,-202.0,90.0,15.0,27.0,-313.0,406.0,-780.0,494.0
104.0,-195.0,95.0,35.0,42.0,-327.0,402.0,-767.0,513.0
104.0,-191.0,99.0,56.0,46.0,-337.0,401.0,-752.0,524.0
105.0,-191.0,101.0,81.0,44.0,-336.0,398.0,-740.0,537.0
100.0,-189.0,104.0,109.0,28.0,-331.0,396.0,-731.0,547.0
98.0,-188.0,101.0,138.0,6.0,-318.0,398.0,-718.0,547.0
107.0,-184.0,103.0,159.0,-18.0,-307.0,407.0,-718.0,544.0
103.0,-183.0,104.0,167.0,-39.0,-299.0,401.0,-712.0,536.0
110.0,-183.0,96.0,166.0,-58.0,-280.0,418.0,-711.0,528.0
107.0,-182.0,100.0,157.0,-69.0,-266.0,406.0,-713.0,524.0
104.0,-183.0,96.0,144.0,-76.0,-243.0,412.0,-717.0,511.0
113.0,-184.0,93.0,128.0,-75.0,-226.0,435.0,-720.0,487.0
107.0,-182.0,87.0,106.0,-64.0,-218.0,425.0,-715.0,482.0
105.0,-186.0,90.0,79.0,-46.0,-208.0,405.0,-716.0,483.0
111.0,-183.0,85.0,57.0,-33.0,-196.0,414.0,-720.0,482.0
112.0,-186.0,88.0,36.0,-18.0,-188.0,424.0,-719.0,479.0
109.0,-184.0,84.0,14.0,-3.0,-178.0,422.0,-714.0,470.0
113.0,-185.0,87.0,-1.0,12.0,-169.0,424.0,-716.0,487.0
119.0,-185.0,91.0,-7.0,28.0,-158.0,447.0,-710.0,484.0
121.0,-182.0,88.0,-16.0,44.0,-156.0,470.0,-701.0,488.0
117.0,-180.0,89.0,-29.0,57.0,-154.0,456.0,-704.0,498.0
117.0,-178.0,94.0,-43.0,67.0,-149.0,450.0,-699.0,508.0
116.0,-183.0,98.0,-50.0,67.0,-135.0,457.0,-703.0,521.0
116.0,-182.0,98.0,-50.0,63.0,-120.0,446.0,-707.0,528.0
116.0,-183.0,98.0,-40.0,51.0,-99.0,454.0,-718.0,530.0
121.0,-185.0,101.0,-29.0,39.0,-84.0,457.0,-719.0,529.0
123.0,-188.0,95.0,-20.0,29.0,-67.0,465.0,-719.0,523.0
119.0,-187.0,98.0,-12.0,20.0,-51.0,465.0,-729.0,515.0
125.0,-190.0,95.0,0.0,13.0,-32.0,483.0,-740.0,510.0
121.0,-189.0,96.0,7.0,6.0,-24.0,468.0,-739.0,508.0
123.0,-193.0,93.0,14.0,3.0,-16.0,478.0,-751.0,497.0
124.0,-193.0,86.0,19.0,5.0,-16.0,481.0,-755.0,491.0
125.0,-191.0,85.0,17.0,12.0,-26.0,478.0,-749.0,486.0
122.0,-191.0,92.0,14.0,23.0,-35.0,477.0,-749.0,488.0
122.0,-193.0,89.0,9.0,35.0,-45.0,469.0,-748.0,488.0
124.0,-192.0,93.0,3.0,47.0,-56.0,476.0,-749.0,488.0
120.0,-193.0,90.0,-2.0,57.0,-66.0,463.0,-751.0,491.0
123.0,-192.0,90.0,-9.0,69.0,-73.0,467.0,-751.0,494.0
120.0,-195.0,86.0,-13.0,79.0,-79.0,463.0,-758.0,507.0
112.0,-192.0,96.0,-9.0,84.0,-86.0,441.0,-756.0,507.0
113.0,-191.0,96.0,-6.0,86.0,-86.0,451.0,-759.0,505.0
112.0,-194.0,92.0,-1.0,85.0,-87.0,435.0,-766.0,503.0
113.0,-199.0,98.0,6.0,82.0,-82.0,437.0,-762.0,513.0
113.0,-196.0,88.0,26.0,75.0,-81.0,437.0,-757.0,498.0
111.0,-195.0,90.0,49.0,69.0,-76.0,427.0,-757.0,498.0
114.0,-196.0,94.0,74.0,63.0,-65.0,434.0,-755.0,504.0
111.0,-193.0,88.0,102.0,60.0,-61.0,442.0,-756.0,491.0
112.0,-193.0,88.0,126.0,58.0,-62.0,427.0,-744.0,491.0
114.0,-185.0,85.0,141.0,61.0,-58.0,461.0,-743.0,487.0
111.0,-190.0,85.0,150.0,66.0,-63.0,437.0,-735.0,487.0
113.0,-187.0,89.0,153.0,70.0,-53.0,444.0,-733.0,496.0
112.0,-189.0,94.0,159.0,70.0,-42.0,433.0,-724.0,501.0
112.0,-186.0,93.0,165.0,69.0,-38.0,431.0,-719.0,517.0
111.0,-183.0,96.0,172.0,68.0,-31.0,438.0,-714.0,512.0
115.0,-184.0,97.0,169.0,66.0,-24.0,445.0,-712.0,505.0
113.0,-182.0,95.0,155.0,66.0,-19.0,444.0,-706.0,517.0
111.0,-182.0,98.0,143.0,63.0,-16.0,439.0,-705.0,520.0
115.0,-183.0,99.0,125.0,58.0,-15.0,447.0,-710.0,514.0
111.0,-181.0,96.0,107.0,56.0,-18.0,435.0,-706.0,511.0
112.0,-183.0,97.0,85.0,53.0,-14.0,438.0,-713.0,509.0
107.0,-179.0,93.0,63.0,53.0,-10.0,418.0,-716.0,508.0
113.0,-185.0,99.0,47.0,55.0,1.0,434.0,-718.0,520.0
110.0,-189.0,91.0,39.0,56.0,4.0,418.0,-722.0,520.0
109.0,-185.0,96.0,33.0,58.0,11.0,416.0,-736.0,519.0
104.0,-187.0,96.0,31.0,61.0,15.0,408.0,-736.0,531.0
109.0,-189.0,98.0,37.0,66.0,22.0,418.0,-739.0,519.0
110.0,-188.0,93.0,44.0,71.0,26.0,421.0,-742.0,516.0
108.0,-189.0,99.0,54.0,79.0,31.0,419.0,-738.0,525.0
109.0,-190.0,97.0,65.0,86.0,38.0,416.0,-739.0,524.0
109.0,-189.0,98.0,81.0,91.0,46.0,420.0,-738.0,521.0
108.0,-188.0,95.0,94.0,98.0,49.0,416.0,-739.0,527.0
109.0,-191.0,104.0,107.0,108.0,56.0,410.0,-740.0,531.0
104.0,-190.0,103.0,123.0,119.0,65.0,408.0,-743.0,536.0
104.0,-185.0,107.0,136.0,126.0,71.0,403.0,-743.0,545.0
107.0,-189.0,106.0,149.0,131.0,76.0,404.0,-739.0,556.0
106.0,-189.0,108.0,165.0,133.0,79.0,399.0,-732.0,561.0
105.0,-188.0,107.0,177.0,132.0,85.0,401.0,-731.0,561.0
104.0,-188.0,112.0,183.0,129.0,88.0,401.0,-727.0,565.0
105.0,-185.0,106.0,187.0,127.0,91.0,396.0,-726.0,566.0
100.0,-184.0,106.0,185.0,125.0,95.0,390.0,-730.0,569.0
103.0,-186.0,110.0,179.0,120.0,101.0,396.0,-728.0,571.0
96.0,-184.0,106.0,172.0,114.0,105.0,392.0,-718.0,566.0
101.0,-186.0,112.0,163.0,109.0,109.0,392.0,-716.0,562.0
99.0,-184.0,111.0,152.0,104.0,113.0,394.0,-717.0,576.0
97.0,-186.0,109.0,143.0,101.0,120.0,388.0,-717.0,570.0
102.0,-185.0,110.0,139.0,98.0,126.0,397.0,-726.0,568.0
103.0,-186.0,109.0,135.0,99.0,129.0,393.0,-732.0,567.0
101.0,-188.0,106.0,129.0,104.0,134.0,395.0,-725.0,571.0
104.0,-188.0,111.0,125.0,109.0,134.0,397.0,-727.0,566.0
106.0,-185.0,111.0,122.0,113.0,139.0,403.0,-729.0,567.0
102.0,-185.0,112.0,121.0,119.0,135.0,397.0,-719.0,565.0
108.0,-185.0,107.0,119.0,118.0,133.0,408.0,-711.0,568.0
102.0,-183.0,106.0,115.0,119.0,127.0,397.0,-708.0,568.0
105.0,-180.0,108.0,110.0,116.0,127.0,411.0,-703.0,564.0
108.0,-182.0,108.0,101.0,112.0,123.0,407.0,-703.0,562.0
112.0,-181.0,108.0,95.0,104.0,115.0,422.0,-692.0,560.0
108.0,-178.0,108.0,87.0,100.0,104.0,415.0,-693.0,557.0
111.0,-180.0,104.0,79.0,93.0,100.0,420.0,-690.0,560.0
111.0,-180.0,108.0,72.0,85.0,91.0,427.0,-689.0,555.0
106.0,-177.0,105.0,64.0,78.0,81.0,426.0,-688.0,554.0
111.0,-177.0,102.0,55.0,70.0,73.0,421.0,-690.0,559.0
110.0,-174.0,105.0,47.0,63.0,67.0,423.0,-689.0,549.0
111.0,-178.0,103.0,39.0,53.0,58.0,435.0,-685.0,551.0
114.0,-179.0,103.0,34.0,46.0,49.0,434.0,-684.0,551.0
112.0,-176.0,99.0,27.0,40.0,42.0,429.0,-687.0,546.0
111.0,-175.0,107.0,21.0,33.0,33.0,435.0,-688.0,537.0
112.0,-181.0,104.0,17.0,28.0,25.0,434.0,-692.0,540.0
113.0,-176.0,102.0,10.0,24.0,17.0,443.0,-689.0,535.0
112.0,-176.0,101.0,4.0,18.0,6.0,436.0,-683.0,538.0
113.0,-176.0,104.0,-2.0,9.0,0.0,435.0,-686.0,541.0
113.0,-177.0,102.0,-7.0,0.0,-3.0,435.0,-678.0,539.0
110.0,-176.0,105.0,-12.0,-7.0,-6.0,429.0,-685.0,541.0
111.0,-177.0,105.0,-14.0,-18.0,-9.0,425.0,-682.0,548.0
110.0,-175.0,104.0,-20.0,-28.0,-11.0,424.0,-691.0,552.0
109.0,-178.0,104.0,-23.0,-35.0,-12.0,424.0,-696.0,552.0
108.0,-179.0,105.0,-29.0,-41.0,-15.0,420.0,-694.0,556.0
108.0,-184.0,106.0,-31.0,-45.0,-14.0,415.0,-697.0,553.0
109.0,-181.0,105.0,-36.0,-47.0,-16.0,420.0,-706.0,558.0
108.0,-184.0,103.0,-40.0,-48.0,-17.0,411.0,-709.0,556.0
104.0,-184.0,106.0,-45.0,-46.0,-16.0,415.0,-714.0,554.0
106.0,-184.0,105.0,-47.0,-42.0,-16.0,407.0,-720.0,555.0
106.0,-187.0,109.0,-45.0,-37.0,-14.0,406.0,-725.0,556.0
106.0,-188.0,104.0,-44.0,-31.0,-14.0,405.0,-731.0,562.0
105.0,-186.0,110.0,-40.0,-23.0,-11.0,405.0,-730.0,560.0
104.0,-188.0,110.0,-38.0,-15.0,-10.0,399.0,-735.0,566.0
103.0,-187.0,114.0,-32.0,-9.0,-7.0,400.0,-738.0,570.0
104.0,-184.0,109.0,-26.0,-3.0,-6.0,399.0,-730.0,567.0
101.0,-185.0,112.0,-22.0,0.0,-3.0,397.0,-721.0,566.0
103.0,-185.0,111.0,-21.0,2.0,0.0,392.0,-714.0,565.0
100.0,-185.0,113.0,-21.0,8.0,4.0,395.0,-724.0,573.0
102.0,-187.0,114.0,-22.0,16.0,10.0,391.0,-722.0,579.0
101.0,-185.0,113.0,-17.0,27.0,18.0,388.0,-723.0,591.0
101.0,-187.0,114.0,-14.0,36.0,26.0,381.0,-729.0,597.0
101.0,-188.0,116.0,-6.0,47.0,34.0,385.0,-731.0,606.0
99.0,-186.0,121.0,1.0,52.0,44.0,385.0,-730.0,607.0
98.0,-185.0,118.0,8.0,54.0,50.0,382.0,-727.0,607.0
98.0,-186.0,115.0,13.0,54.0,54.0,389.0,-728.0,603.0
97.0,-184.0,119.0,16.0,53.0,56.0,383.0,-720.0,593.0
97.0,-185.0,118.0,17.0,56.0,60.0,382.0,-720.0,591.0
98.0,-186.0,119.0,16.0,59.0,63.0,382.0,-721.0,592.0
99.0,-187.0,116.0,11.0,66.0,68.0,377.0,-730.0,597.0
93.0,-185.0,114.0,12.0,73.0,75.0,374.0,-726.0,592.0
96.0,-186.0,118.0,12.0,79.0,86.0,369.0,-739.0,603.0
94.0,-188.0,116.0,16.0,85.0,102.0,367.0,-737.0,602.0
94.0,-189.0,122.0,23.0,90.0,115.0,366.0,-742.0,593.0
96.0,-189.0,117.0,31.0,95.0,133.0,382.0,-750.0,603.0
100.0,-194.0,118.0,43.0,100.0,150.0,384.0,-752.0,603.0
102.0,-194.0,113.0,58.0,109.0,163.0,392.0,-754.0,600.0
104.0,-192.0,120.0,72.0,117.0,176.0,395.0,-751.0,603.0
102.0,-193.0,118.0,86.0,125.0,186.0,394.0,-752.0,597.0
104.0,-192.0,114.0,96.0,132.0,196.0,394.0,-755.0,596.0
105.0,-193.0,111.0,103.0,142.0,207.0,393.0,-751.0,588.0
101.0,-193.0,122.0,106.0,156.0,223.0,389.0,-757.0,597.0
98.0,-197.0,119.0,119.0,173.0,245.0,381.0,-775.0,602.0
101.0,-200.0,124.0,140.0,192.0,268.0,389.0,-781.0,618.0
97.0,-201.0,121.0,164.0,206.0,292.0,380.0,-787.0,615.0
95.0,-202.0,120.0,183.0,215.0,315.0,386.0,-793.0,610.0
95.0,-204.0,127.0,195.0,218.0,341.0,371.0,-796.0,628.0
98.0,-207.0,122.0,216.0,220.0,371.0,374.0,-796.0,633.0
93.0,-203.0,124.0,234.0,214.0,399.0,373.0,-789.0,629.0
93.0,-206.0,124.0,253.0,208.0,428.0,372.0,-802.0,614.0
91.0,-209.0,116.0,267.0,205.0,459.0,366.0,-806.0,610.0
92.0,-207.0,118.0,276.0,207.0,489.0,352.0,-803.0,606.0
93.0,-207.0,118.0,281.0,211.0,519.0,353.0,-803.0,600.0
96.0,-198.0,119.0,275.0,217.0,543.0,351.0,-796.0,601.0
86.0,-202.0,113.0,261.0,224.0,561.0,345.0,-791.0,592.0
90.0,-196.0,113.0,236.0,229.0,579.0,337.0,-780.0,589.0
87.0,-200.0,113.0,204.0,237.0,592.0,337.0,-777.0,584.0
90.0,-199.0,114.0,161.0,255.0,605.0,334.0,-779.0,595.0
82.0,-198.0,103.0,116.0,275.0,620.0,345.0,-778.0,591.0
87.0,-199.0,122.0,71.0,295.0,637.0,340.0,-785.0,612.0
90.0,-204.0,121.0,44.0,320.0,659.0,349.0,-794.0,610.0
87.0,-204.0,124.0,25.0,337.0,677.0,341.0,-794.0,612.0
87.0,-209.0,121.0,7.0,344.0,695.0,336.0,-801.0,610.0
84.0,-205.0,117.0,-9.0,343.0,714.0,335.0,-802.0,595.0
86.0,-209.0,116.0,-26.0,337.0,736.0,329.0,-808.0,599.0
82.0,-209.0,113.0,-23.0,335.0,762.0,334.0,-819.0,601.0
80.0,-206.0,121.0,-10.0,330.0,789.0,325.0,-806.0,600.0
83.0,-204.0,112.0,8.0,323.0,815.0,323.0,-791.0,587.0
85.0,-201.0,112.0,25.0,317.0,834.0,334.0,-787.0,572.0
86.0,-199.0,111.0,31.0,316.0,838.0,328.0,-766.0,568.0
84.0,-191.0,107.0,29.0,324.0,839.0,321.0,-744.0,569.0
83.0,-186.0,112.0,17.0,343.0,837.0,320.0,-721.0,570.0
81.0,-181.0,113.0,-4.0,365.0,829.0,318.0,-708.0,573.0
85.0,-176.0,111.0,-34.0,384.0,815.0,324.0,-694.0,575.0
85.0,-171.0,114.0,-68.0,401.0,801.0,330.0,-679.0,591.0
82.0,-170.0,115.0,-98.0,420.0,786.0,324.0,-665.0,605.0
81.0,-166.0,119.0,-126.0,437.0,773.0,326.0,-647.0,607.0
84.0,-166.0,122.0,-147.0,455.0,766.0,319.0,-645.0,628.0
86.0,-167.0,124.0,-149.0,470.0,762.0,335.0,-634.0,625.0
81.0,-159.0,119.0,-147.0,475.0,756.0,321.0,-623.0,605.0
83.0,-163.0,123.0,-152.0,475.0,751.0,303.0,-609.0,603.0
71.0,-153.0,118.0,-168.0,475.0,745.0,286.0,-597.0,605.0
64.0,-149.0,118.0,-192.0,476.0,741.0,251.0,-588.0,605.0
54.0,-147.0,119.0,-225.0,483.0,738.0,217.0,-577.0,608.0
49.0,-147.0,121.0,-270.0,496.0,740.0,188.0,-583.0,612.0
38.0,-146.0,116.0,-321.0,515.0,744.0,148.0,-584.0,624.0
35.0,-152.0,123.0,-379.0,551.0,756.0,130.0,-594.0,638.0
32.0,-155.0,134.0,-428.0,602.0,763.0,128.0,-605.0,658.0
37.0,-159.0,133.0,-454.0,673.0,776.0,120.0,-616.0,676.0
33.0,-160.0,137.0,-454.0,763.0,794.0,130.0,-631.0,690.0
34.0,-167.0,142.0,-434.0,858.0,814.0,122.0,-639.0,704.0
31.0,-170.0,146.0,-406.0,948.0,838.0,113.0,-651.0,721.0
26.0,-171.0,148.0,-378.0,1027.0,870.0,99.0,-663.0,732.0
22.0,-170.0,151.0,-352.0,1091.0,905.0,83.0,-675.0,742.0
17.0,-172.0,156.0,-336.0,1146.0,944.0,77.0,-674.0,766.0
18.0,-177.0,153.0,-326.0,1192.0,985.0,70.0,-689.0,758.0
17.0,-177.0,153.0,-320.0,1230.0,1022.0,70.0,-697.0,752.0
11.0,-177.0,151.0,-318.0,1267.0,1052.0,51.0,-697.0,740.0
11.0,-178.0,143.0,-311.0,1303.0,1077.0,49.0,-704.0,712.0
9.0,-180.0,137.0,-298.0,1337.0,1097.0,41.0,-702.0,679.0
7.0,-181.0,121.0,-286.0,1370.0,1106.0,23.0,-704.0,639.0
5.0,-184.0,119.0,-277.0,1396.0,1107.0,17.0,-701.0,604.0
1.0,-170.0,105.0,-268.0,1416.0,1100.0,-10.0,-697.0,567.0
-8.0,-179.0,105.0,-262.0,1425.0,1098.0,-20.0,-692.0,545.0
-15.0,-177.0,99.0,-270.0,1419.0,1090.0,-33.0,-692.0,529.0
-15.0,-176.0,98.0,-289.0,1395.0,1074.0,-48.0,-693.0,521.0
-20.0,-178.0,93.0,-309.0,1365.0,1049.0,-80.0,-695.0,518.0
-31.0,-180.0,98.0,-328.0,1330.0,1020.0,-108.0,-699.0,525.0
-37.0,-182.0,102.0,-341.0,1296.0,993.0,-136.0,-701.0,534.0
-41.0,-182.0,101.0,-339.0,1260.0,962.0,-142.0,-709.0,538.0
-43.0,-183.0,99.0,-333.0,1223.0,919.0,-160.0,-713.0,536.0
-44.0,-187.0,105.0,-323.0,1185.0,874.0,-165.0,-726.0,560.0
-43.0,-189.0,107.0,-293.0,1154.0,826.0,-165.0,-733.0,571.0
-43.0,-190.0,113.0,-251.0,1125.0,776.0,-163.0,-733.0,581.0
-43.0,-191.0,114.0,-194.0,1093.0,721.0,-159.0,-738.0,594.0
-40.0,-191.0,119.0,-125.0,1055.0,665.0,-148.0,-729.0,598.0
-37.0,-190.0,116.0,-50.0,1013.0,609.0,-139.0,-729.0,600.0
-32.0,-188.0,113.0,30.0,966.0,556.0,-111.0,-730.0,591.0
-26.0,-187.0,115.0,113.0,918.0,500.0,-108.0,-731.0,582.0
-26.0,-190.0,106.0,193.0,867.0,442.0,-92.0,-732.0,564.0
-25.0,-189.0,98.0,262.0,812.0,381.0,-80.0,-729.0,551.0
-19.0,-187.0,97.0,309.0,747.0,319.0,-73.0,-730.0,519.0
-18.0,-188.0,89.0,334.0,673.0,256.0,-58.0,-734.0,495.0
-10.0,-190.0,88.0,336.0,589.0,195.0,-32.0,-733.0,482.0
-6.0,-188.0,81.0,316.0,497.0,132.0,0.0,-735.0,465.0
0.0,-189.0,81.0,280.0,397.0,62.0,21.0,-745.0,460.0
7.0,-192.0,79.0,232.0,297.0,-8.0,37.0,-750.0,448.0
11.0,-193.0,77.0,180.0,197.0,-77.0,54.0,-758.0,445.0
15.0,-196.0,77.0,127.0,100.0,-143.0,73.0,-766.0,441.0
18.0,-199.0,80.0,82.0,10.0,-202.0,82.0,-778.0,449.0
19.0,-206.0,80.0,56.0,-76.0,-257.0,94.0,-796.0,450.0
29.0,-209.0,79.0,44.0,-163.0,-310.0,118.0,-810.0,452.0
39.0,-215.0,80.0,48.0,-250.0,-362.0,165.0,-831.0,444.0
51.0,-218.0,77.0,54.0,-338.0,-419.0,219.0,-842.0,437.0
59.0,-217.0,72.0,53.0,-421.0,-480.0,244.0,-852.0,424.0
59.0,-221.0,75.0,42.0,-492.0,-540.0,247.0,-855.0,417.0
59.0,-219.0,75.0,25.0,-554.0,-588.0,236.0,-861.0,427.0
54.0,-223.0,79.0,10.0,-608.0,-626.0,226.0,-858.0,442.0
49.0,-222.0,91.0,4.0,-656.0,-645.0,211.0,-866.0,478.0
49.0,-221.0,91.0,9.0,-699.0,-648.0,198.0,-867.0,498.0
49.0,-224.0,102.0,20.0,-738.0,-636.0,201.0,-866.0,533.0
49.0,-220.0,109.0,33.0,-772.0,-611.0,202.0,-863.0,567.0
51.0,-222.0,119.0,47.0,-803.0,-575.0,203.0,-864.0,596.0
47.0,-223.0,123.0,64.0,-830.0,-536.0,202.0,-859.0,623.0
46.0,-221.0,132.0,88.0,-854.0,-490.0,192.0,-859.0,640.0
32.0,-222.0,126.0,111.0,-872.0,-446.0,172.0,-854.0,659.0
40.0,-217.0,136.0,134.0,-882.0,-401.0,158.0,-846.0,671.0
39.0,-215.0,137.0,163.0,-882.0,-357.0,151.0,-830.0,689.0
32.0,-212.0,140.0,195.0,-868.0,-311.0,130.0,-823.0,695.0
32.0,-210.0,141.0,223.0,-842.0,-270.0,119.0,-809.0,701.0
32.0,-204.0,141.0,245.0,-802.0,-237.0,117.0,-803.0,708.0
30.0,-206.0,142.0,266.0,-754.0,-210.0,107.0,-791.0,709.0
26.0,-199.0,141.0,279.0,-700.0,-193.0,101.0,-786.0,712.0
32.0,-204.0,142.0,289.0,-644.0,-173.0,109.0,-798.0,708.0
28.0,-202.0,143.0,291.0,-590.0,-177.0,100.0,-786.0,696.0
24.0,-198.0,138.0,279.0,-535.0,-193.0,94.0,-787.0,692.0
22.0,-198.0,138.0,255.0,-483.0,-214.0,88.0,-782.0,691.0
19.0,-197.0,136.0,222.0,-433.0,-240.0,77.0,-778.0,684.0
16.0,-195.0,134.0,180.0,-385.0,-269.0,61.0,-774.0,681.0
14.0,-192.0,136.0,133.0,-341.0,-299.0,45.0,-752.0,680.0
15.0,-191.0,135.0,82.0,-296.0,-320.0,54.0,-760.0,674.0
9.0,-188.0,137.0,26.0,-252.0,-352.0,37.0,-745.0,680.0
8.0,-188.0,135.0,-28.0,-207.0,-378.0,27.0,-739.0,679.0
4.0,-186.0,137.0,-81.0,-166.0,-395.0,22.0,-735.0,681.0
-1.0,-186.0,138.0,-130.0,-124.0,-408.0,11.0,-740.0,681.0
-8.0,-184.0,139.0,-174.0,-86.0,-415.0,-12.0,-736.0,693.0
-6.0,-190.0,143.0,-204.0,-52.0,-403.0,-8.0,-755.0,700.0
-9.0,-194.0,141.0,-231.0,-22.0,-400.0,-23.0,-754.0,709.0
-11.0,-195.0,145.0,-250.0,6.0,-396.0,-36.0,-766.0,720.0
-15.0,-199.0,151.0,-259.0,28.0,-383.0,-48.0,-774.0,730.0
-16.0,-204.0,152.0,-251.0,46.0,-364.0,-66.0,-781.0,736.0
-18.0,-204.0,151.0,-230.0,59.0,-344.0,-75.0,-795.0,741.0
-22.0,-207.0,152.0,-202.0,71.0,-318.0,-81.0,-801.0,750.0
-26.0,-208.0,154.0,-169.0,81.0,-290.0,-95.0,-806.0,750.0
-29.0,-207.0,153.0,-128.0,87.0,-262.0,-103.0,-809.0,743.0
-26.0,-211.0,148.0,-84.0,91.0,-235.0,-111.0,-817.0,736.0
-30.0,-214.0,148.0,-43.0,97.0,-210.0,-115.0,-821.0,732.0
-32.0,-214.0,147.0,3.0,107.0,-185.0,-122.0,-828.0,722.0
-30.0,-211.0,143.0,35.0,116.0,-162.0,-126.0,-820.0,715.0
-36.0,-209.0,139.0,58.0,123.0,-143.0,-139.0,-816.0,710.0
-37.0,-207.0,141.0,74.0,130.0,-122.0,-145.0,-811.0,704.0
-39.0,-206.0,138.0,87.0,135.0,-101.0,-147.0,-808.0,701.0
-43.0,-204.0,139.0,97.0,136.0,-84.0,-151.0,-797.0,691.0
-43.0,-202.0,138.0,106.0,133.0,-68.0,-153.0,-789.0,685.0
-41.0,-202.0,136.0,112.0,127.0,-56.0,-153.0,-786.0,680.0
-38.0,-198.0,134.0,120.0,118.0,-47.0,-145.0,-779.0,677.0
-35.0,-199.0,133.0,126.0,108.0,-39.0,-135.0,-773.0,670.0
-33.0,-196.0,133.0,132.0,99.0,-33.0,-123.0,-766.0,669.0
-30.0,-195.0,137.0,137.0,91.0,-32.0,-105.0,-763.0,662.0
-21.0,-194.0,132.0,143.0,84.0,-30.0,-91.0,-761.0,662.0
-19.0,-195.0,130.0,149.0,78.0,-33.0,-75.0,-757.0,660.0
-13.0,-194.0,126.0,155.0,72.0,-37.0,-48.0,-759.0,654.0
-14.0,-192.0,127.0,158.0,68.0,-41.0,-38.0,-753.0,650.0
-6.0,-195.0,128.0,161.0,61.0,-45.0,-14.0,-750.0,648.0
0.0,-194.0,125.0,165.0,57.0,-50.0,-5.0,-751.0,638.0
1.0,-192.0,127.0,169.0,52.0,-55.0,20.0,-754.0,636.0
6.0,-190.0,124.0,178.0,48.0,-59.0,32.0,-747.0,630.0
12.0,-191.0,122.0,189.0,45.0,-65.0,51.0,-746.0,632.0
17.0,-191.0,120.0,202.0,42.0,-70.0,67.0,-740.0,621.0
18.0,-190.0,119.0,219.0,38.0,-74.0,82.0,-738.0,622.0
21.0,-187.0,123.0,237.0,33.0,-76.0,89.0,-733.0,618.0
26.0,-186.0,123.0,249.0,27.0,-79.0,98.0,-731.0,619.0
28.0,-189.0,121.0,260.0,19.0,-82.0,112.0,-731.0,617.0
29.0,-188.0,115.0,267.0,11.0,-86.0,126.0,-735.0,613.0
32.0,-188.0,118.0,267.0,5.0,-89.0,132.0,-737.0,610.0
35.0,-187.0,116.0,262.0,-2.0,-94.0,141.0,-742.0,608.0
37.0,-188.0,118.0,250.0,-6.0,-99.0,145.0,-741.0,599.0
38.0,-188.0,120.0,235.0,-8.0,-103.0,154.0,-742.0,603.0
37.0,-187.0,112.0,220.0,-9.0,-106.0,157.0,-742.0,602.0
39.0,-186.0,123.0,202.0,-9.0,-107.0,156.0,-744.0,600.0
40.0,-192.0,120.0,184.0,-8.0,-109.0,158.0,-746.0,605.0
41.0,-192.0,117.0,170.0,-7.0,-109.0,158.0,-746.0,604.0
43.0,-190.0,120.0,158.0,-9.0,-107.0,163.0,-744.0,621.0
41.0,-188.0,126.0,149.0,-12.0,-105.0,161.0,-748.0,621.0
40.0,-192.0,125.0,144.0,-18.0,-100.0,160.0,-761.0,625.0
38.0,-192.0,125.0,140.0,-25.0,-95.0,155.0,-753.0,627.0
40.0,-189.0,122.0,137.0,-31.0,-90.0,152.0,-756.0,640.0
36.0,-193.0,125.0,134.0,-36.0,-83.0,154.0,-753.0,640.0
35.0,-191.0,125.0,130.0,-43.0,-78.0,145.0,-750.0,637.0
34.0,-192.0,128.0,125.0,-49.0,-72.0,137.0,-750.0,640.0
35.0,-193.0,125.0,118.0,-57.0,-67.0,139.0,-750.0,642.0
34.0,-190.0,125.0,108.0,-63.0,-62.0,132.0,-745.0,641.0
35.0,-188.0,127.0,99.0,-70.0,-55.0,136.0,-738.0,642.0
33.0,-190.0,131.0,91.0,-79.0,-51.0,140.0,-740.0,641.0
34.0,-188.0,126.0,81.0,-85.0,-47.0,129.0,-736.0,642.0
32.0,-185.0,129.0,70.0,-89.0,-42.0,135.0,-736.0,641.0
32.0,-186.0,129.0,54.0,-94.0,-39.0,129.0,-733.0,641.0
33.0,-187.0,128.0,44.0,-96.0,-37.0,135.0,-733.0,643.0
31.0,-187.0,128.0,31.0,-97.0,-36.0,124.0,-727.0,649.0
34.0,-184.0,128.0,22.0,-95.0,-35.0,126.0,-730.0,635.0
28.0,-184.0,131.0,14.0,-91.0,-33.0,120.0,-724.0,649.0
29.0,-184.0,133.0,4.0,-91.0,-33.0,120.0,-718.0,652.0
27.0,-183.0,128.0,-3.0,-88.0,-33.0,114.0,-714.0,658.0
29.0,-184.0,131.0,-9.0,-84.0,-33.0,106.0,-718.0,658.0
27.0,-183.0,131.0,-15.0,-80.0,-33.0,98.0,-710.0,663.0
24.0,-182.0,134.0,-19.0,-74.0,-32.0,98.0,-704.0,670.0
22.0,-183.0,137.0,-22.0,-68.0,-30.0,88.0,-703.0,672.0
16.0,-182.0,137.0,-23.0,-63.0,-27.0,82.0,-701.0,674.0
19.0,-184.0,135.0,-24.0,-62.0,-23.0,81.0,-698.0,682.0
19.0,-180.0,137.0,-23.0,-60.0,-17.0,79.0,-697.0,686.0
16.0,-177.0,140.0,-26.0,-57.0,-13.0,67.0,-697.0,685.0
15.0,-180.0,141.0,-26.0,-57.0,-8.0,67.0,-692.0,688.0
16.0,-180.0,138.0,-27.0,-56.0,-3.0,67.0,-693.0,693.0
14.0,-179.0,139.0,-31.0,-51.0,3.0,65.0,-692.0,693.0
15.0,-180.0,137.0,-34.0,-44.0,5.0,58.0,-695.0,696.0
14.0,-176.0,140.0,-38.0,-36.0,10.0,64.0,-699.0,703.0
13.0,-182.0,140.0,-45.0,-28.0,13.0,60.0,-694.0,696.0
14.0,-180.0,143.0,-50.0,-18.0,15.0,57.0,-702.0,701.0
14.0,-177.0,141.0,-56.0,-7.0,17.0,60.0,-703.0,700.0
16.0,-182.0,140.0,-62.0,2.0,18.0,62.0,-708.0,692.0
14.0,-183.0,143.0,-70.0,11.0,19.0,56.0,-706.0,698.0
14.0,-181.0,144.0,-75.0,20.0,21.0,59.0,-706.0,699.0
13.0,-181.0,143.0,-82.0,26.0,22.0,56.0,-707.0,706.0
13.0,-183.0,144.0,-87.0,32.0,22.0,58.0,-710.0,698.0
9.0,-178.0,138.0,-89.0,36.0,21.0,55.0,-708.0,705.0
13.0,-183.0,143.0,-92.0,42.0,20.0,64.0,-715.0,700.0
11.0,-182.0,144.0,-94.0,45.0,21.0,58.0,-708.0,701.0
14.0,-182.0,137.0,-93.0,46.0,20.0,58.0,-716.0,698.0
13.0,-183.0,137.0,-87.0,49.0,18.0,59.0,-712.0,695.0
10.0,-183.0,139.0,-82.0,49.0,17.0,59.0,-715.0,695.0
14.0,-184.0,141.0,-76.0,50.0,17.0,62.0,-716.0,696.0
14.0,-187.0,143.0,-67.0,51.0,14.0,60.0,-718.0,700.0
15.0,-183.0,140.0,-57.0,54.0,13.0,62.0,-722.0,698.0
18.0,-185.0,140.0,-46.0,56.0,9.0,71.0,-728.0,691.0
17.0,-186.0,138.0,-37.0,60.0,6.0,72.0,-723.0,695.0
18.0,-186.0,139.0,-27.0,64.0,3.0,74.0,-732.0,693.0
17.0,-184.0,138.0,-20.0,67.0,-1.0,78.0,-729.0,691.0
18.0,-186.0,138.0,-14.0,70.0,-5.0,77.0,-729.0,691.0
21.0,-188.0,141.0,-9.0,70.0,-8.0,82.0,-720.0,689.0
20.0,-184.0,136.0,-6.0,72.0,-12.0,83.0,-722.0,689.0
21.0,-184.0,138.0,-5.0,69.0,-15.0,84.0,-724.0,684.0
21.0,-184.0,139.0,-9.0,69.0,-15.0,80.0,-722.0,684.0
21.0,-186.0,136.0,-13.0,66.0,-17.0,82.0,-720.0,678.0
21.0,-186.0,138.0,-16.0,63.0,-14.0,86.0,-728.0,677.0
20.0,-186.0,135.0,-24.0,57.0,-14.0,84.0,-726.0,674.0
19.0,-185.0,134.0,-30.0,51.0,-13.0,84.0,-732.0,672.0
19.0,-187.0,131.0,-40.0,45.0,-14.0,78.0,-727.0,664.0
20.0,-185.0,134.0,-48.0,39.0,-12.0,84.0,-728.0,669.0
20.0,-189.0,134.0,-58.0,32.0,-14.0,81.0,-732.0,664.0
17.0,-187.0,134.0,-65.0,24.0,-12.0,84.0,-729.0,665.0
21.0,-186.0,131.0,-71.0,18.0,-14.0,86.0,-726.0,656.0
22.0,-187.0,133.0,-75.0,11.0,-13.0,77.0,-733.0,661.0
20.0,-186.0,130.0,-78.0,6.0,-13.0,84.0,-725.0,655.0
21.0,-185.0,133.0,-78.0,2.0,-15.0,81.0,-728.0,661.0
22.0,-186.0,130.0,-75.0,-2.0,-14.0,88.0,-726.0,663.0
19.0,-184.0,133.0,-75.0,-4.0,-16.0,93.0,-725.0,663.0
23.0,-185.0,132.0,-75.0,-6.0,-17.0,95.0,-726.0,660.0
23.0,-186.0,134.0,-74.0,-6.0,-16.0,97.0,-730.0,662.0
25.0,-186.0,131.0,-70.0,-5.0,-18.0,100.0,-725.0,662.0
24.0,-185.0,130.0,-72.0,-5.0,-18.0,98.0,-726.0,659.0
20.0,-185.0,129.0,-71.0,-4.0,-20.0,101.0,-723.0,657.0
24.0,-186.0,130.0,-68.0,-5.0,-22.0,96.0,-728.0,657.0
24.0,-186.0,131.0,-65.0,-4.0,-22.0,94.0,-728.0,661.0
