acc1_x,acc1_y,acc1_z,gyro_x,gyro_y,gyro_z,acc2_x,acc2_y,acc2_z
20.0,-247.0,19.0,-51.0,0.0,4.0,89.0,-951.0,209.0
24.0,-247.0,23.0,-50.0,-1.0,3.0,88.0,-964.0,216.0
20.0,-248.0,19.0,-48.0,0.0,3.0,89.0,-958.0,216.0
22.0,-247.0,18.0,-45.0,-1.0,2.0,89.0,-959.0,218.0
23.0,-249.0,24.0,-42.0,2.0,2.0,84.0,-955.0,217.0
25.0,-240.0,30.0,-40.0,2.0,2.0,89.0,-950.0,220.0
22.0,-247.0,22.0,-39.0,5.0,2.0,86.0,-957.0,218.0
24.0,-247.0,21.0,-36.0,6.0,2.0,81.0,-954.0,215.0
23.0,-248.0,23.0,-35.0,7.0,2.0,91.0,-961.0,212.0
22.0,-249.0,22.0,-35.0,7.0,2.0,88.0,-954.0,213.0
21.0,-247.0,17.0,-36.0,7.0,0.0,87.0,-959.0,213.0
22.0,-248.0,19.0,-35.0,8.0,1.0,96.0,-957.0,211.0
21.0,-249.0,20.0,-35.0,8.0,-1.0,90.0,-961.0,205.0
21.0,-247.0,22.0,-34.0,9.0,-1.0,88.0,-952.0,208.0
22.0,-247.0,18.0,-36.0,9.0,-1.0,88.0,-958.0,208.0
22.0,-247.0,25.0,-36.0,11.0,-1.0,86.0,-954.0,211.0
25.0,-247.0,21.0,-39.0,12.0,-2.0,87.0,-954.0,211.0
21.0,-247.0,22.0,-39.0,13.0,-2.0,95.0,-957.0,211.0
24.0,-248.0,22.0,-40.0,14.0,-2.0,96.0,-958.0,211.0
24.0,-247.0,19.0,-44.0,15.0,-3.0,95.0,-960.0,213.0
24.0,-247.0,22.0,-48.0,15.0,-4.0,91.0,-963.0,211.0
23.0,-248.0,24.0,-52.0,13.0,-6.0,96.0,-956.0,213.0
24.0,-246.0,22.0,-55.0,14.0,-6.0,97.0,-960.0,209.0
22.0,-247.0,21.0,-58.0,14.0,-7.0,87.0,-965.0,215.0
23.0,-246.0,20.0,-60.0,13.0,-9.0,93.0,-961.0,216.0
20.0,-248.0,23.0,-61.0,11.0,-11.0,91.0,-964.0,211.0
24.0,-246.0,20.0,-64.0,10.0,-14.0,89.0,-956.0,214.0
22.0,-248.0,23.0,-66.0,8.0,-15.0,88.0,-959.0,219.0
22.0,-248.0,22.0,-69.0,10.0,-17.0,90.0,-960.0,221.0
21.0,-248.0,23.0,-72.0,13.0,-20.0,89.0,-958.0,215.0
23.0,-247.0,23.0,-79.0,18.0,-22.0,92.0,-954.0,209.0
25.0,-248.0,22.0,-86.0,23.0,-25.0,90.0,-954.0,209.0
26.0,-246.0,18.0,-94.0,26.0,-27.0,98.0,-963.0,204.0
25.0,-247.0,17.0,-102.0,28.0,-27.0,99.0,-958.0,208.0
24.0,-248.0,20.0,-108.0,28.0,-30.0,104.0,-963.0,206.0
26.0,-248.0,16.0,-112.0,31.0,-32.0,106.0,-963.0,209.0
30.0,-250.0,26.0,-115.0,31.0,-34.0,108.0,-969.0,207.0
28.0,-248.0,23.0,-116.0,32.0,-35.0,105.0,-962.0,216.0
27.0,-248.0,22.0,-114.0,31.0,-36.0,114.0,-964.0,218.0
28.0,-248.0,20.0,-114.0,29.0,-36.0,111.0,-974.0,216.0
29.0,-249.0,19.0,-114.0,29.0,-37.0,112.0,-972.0,218.0
29.0,-249.0,23.0,-109.0,31.0,-36.0,112.0,-974.0,217.0
30.0,-252.0,20.0,-112.0,34.0,-36.0,119.0,-976.0,215.0
31.0,-249.0,21.0,-113.0,39.0,-39.0,117.0,-979.0,210.0
30.0,-249.0,19.0,-120.0,45.0,-42.0,124.0,-979.0,208.0
31.0,-251.0,20.0,-123.0,52.0,-45.0,120.0,-971.0,214.0
30.0,-248.0,22.0,-125.0,60.0,-47.0,117.0,-974.0,216.0
33.0,-249.0,20.0,-129.0,67.0,-51.0,127.0,-971.0,212.0
34.0,-248.0,22.0,-131.0,73.0,-57.0,124.0,-966.0,215.0
32.0,-247.0,20.0,-136.0,77.0,-62.0,133.0,-964.0,209.0
33.0,-248.0,21.0,-143.0,80.0,-67.0,126.0,-960.0,216.0
35.0,-248.0,18.0,-148.0,79.0,-72.0,132.0,-961.0,212.0
33.0,-247.0,20.0,-154.0,80.0,-76.0,140.0,-963.0,209.0
37.0,-247.0,22.0,-160.0,81.0,-83.0,141.0,-965.0,205.0
37.0,-251.0,20.0,-167.0,85.0,-90.0,139.0,-964.0,207.0
35.0,-247.0,19.0,-173.0,89.0,-97.0,144.0,-972.0,206.0
36.0,-251.0,19.0,-180.0,94.0,-105.0,142.0,-966.0,209.0
37.0,-249.0,20.0,-188.0,101.0,-114.0,147.0,-971.0,205.0
40.0,-248.0,16.0,-192.0,109.0,-120.0,148.0,-964.0,204.0
39.0,-248.0,15.0,-197.0,118.0,-128.0,152.0,-971.0,200.0
39.0,-248.0,14.0,-202.0,127.0,-137.0,154.0,-971.0,200.0
44.0,-249.0,14.0,-201.0,140.0,-145.0,161.0,-971.0,195.0
43.0,-249.0,16.0,-199.0,154.0,-154.0,161.0,-970.0,193.0
45.0,-248.0,14.0,-198.0,167.0,-163.0,160.0,-964.0,191.0
46.0,-248.0,14.0,-195.0,183.0,-167.0,169.0,-953.0,186.0
47.0,-244.0,11.0,-193.0,201.0,-172.0,174.0,-943.0,179.0
44.0,-239.0,12.0,-189.0,218.0,-176.0,174.0,-932.0,184.0
41.0,-232.0,9.0,-190.0,236.0,-174.0,176.0,-915.0,179.0
45.0,-232.0,15.0,-192.0,249.0,-169.0,177.0,-903.0,183.0
46.0,-229.0,17.0,-194.0,260.0,-163.0,178.0,-886.0,191.0
40.0,-222.0,16.0,-195.0,263.0,-155.0,174.0,-871.0,202.0
43.0,-221.0,19.0,-194.0,261.0,-143.0,171.0,-851.0,208.0
44.0,-216.0,24.0,-198.0,258.0,-128.0,167.0,-836.0,226.0
42.0,-212.0,30.0,-202.0,252.0,-111.0,171.0,-830.0,247.0
45.0,-213.0,35.0,-201.0,236.0,-93.0,176.0,-823.0,268.0
38.0,-212.0,43.0,-201.0,218.0,-77.0,157.0,-813.0,289.0
36.0,-210.0,44.0,-195.0,197.0,-59.0,143.0,-808.0,303.0
28.0,-210.0,44.0,-194.0,173.0,-38.0,115.0,-818.0,308.0
25.0,-216.0,49.0,-197.0,150.0,-16.0,104.0,-821.0,316.0
20.0,-214.0,44.0,-201.0,132.0,5.0,75.0,-831.0,314.0
12.0,-218.0,46.0,-206.0,119.0,25.0,63.0,-840.0,310.0
13.0,-220.0,46.0,-217.0,106.0,44.0,55.0,-855.0,307.0
10.0,-224.0,42.0,-222.0,99.0,57.0,51.0,-863.0,306.0
14.0,-229.0,44.0,-226.0,95.0,69.0,54.0,-876.0,305.0
12.0,-226.0,47.0,-230.0,94.0,75.0,62.0,-891.0,305.0
13.0,-231.0,39.0,-232.0,93.0,80.0,62.0,-901.0,299.0
17.0,-234.0,40.0,-231.0,91.0,83.0,74.0,-912.0,297.0
19.0,-235.0,41.0,-229.0,90.0,83.0,86.0,-919.0,289.0
28.0,-239.0,35.0,-230.0,89.0,82.0,104.0,-926.0,277.0
28.0,-243.0,34.0,-231.0,91.0,79.0,113.0,-934.0,265.0
32.0,-243.0,31.0,-235.0,88.0,75.0,124.0,-939.0,260.0
38.0,-243.0,30.0,-237.0,85.0,71.0,155.0,-951.0,249.0
45.0,-248.0,28.0,-240.0,79.0,63.0,162.0,-958.0,240.0
45.0,-249.0,27.0,-245.0,74.0,55.0,173.0,-971.0,234.0
47.0,-252.0,26.0,-245.0,69.0,50.0,182.0,-976.0,227.0
46.0,-252.0,26.0,-245.0,68.0,45.0,175.0,-986.0,229.0
49.0,-255.0,27.0,-241.0,67.0,45.0,194.0,-988.0,224.0
48.0,-258.0,28.0,-234.0,66.0,46.0,193.0,-1000.0,229.0
46.0,-259.0,25.0,-223.0,63.0,48.0,182.0,-1002.0,225.0
45.0,-264.0,28.0,-215.0,63.0,52.0,172.0,-1014.0,223.0
43.0,-260.0,29.0,-210.0,61.0,60.0,166.0,-1018.0,226.0
39.0,-263.0,27.0,-203.0,61.0,68.0,157.0,-1025.0,229.0
38.0,-265.0,27.0,-196.0,57.0,77.0,146.0,-1025.0,228.0
34.0,-261.0,28.0,-191.0,59.0,88.0,141.0,-1034.0,228.0
32.0,-262.0,25.0,-186.0,58.0,98.0,130.0,-1022.0,220.0
30.0,-264.0,20.0,-180.0,60.0,108.0,120.0,-1024.0,214.0
28.0,-263.0,20.0,-177.0,65.0,118.0,117.0,-1031.0,211.0
30.0,-265.0,17.0,-176.0,71.0,126.0,105.0,-1030.0,208.0
24.0,-269.0,21.0,-177.0,79.0,132.0,87.0,-1043.0,208.0
21.0,-265.0,15.0,-180.0,86.0,136.0,84.0,-1044.0,200.0
19.0,-267.0,22.0,-185.0,93.0,139.0,79.0,-1044.0,204.0
21.0,-268.0,19.0,-185.0,98.0,144.0,72.0,-1049.0,200.0
16.0,-269.0,18.0,-187.0,99.0,147.0,70.0,-1049.0,204.0
17.0,-270.0,13.0,-183.0,97.0,152.0,73.0,-1047.0,197.0
11.0,-265.0,16.0,-175.0,94.0,157.0,55.0,-1044.0,193.0
12.0,-267.0,12.0,-167.0,86.0,164.0,50.0,-1042.0,189.0
9.0,-263.0,12.0,-159.0,78.0,173.0,42.0,-1029.0,179.0
8.0,-261.0,8.0,-155.0,63.0,183.0,39.0,-1020.0,175.0
5.0,-260.0,11.0,-149.0,48.0,193.0,33.0,-1008.0,167.0
5.0,-255.0,8.0,-147.0,29.0,209.0,23.0,-1000.0,161.0
0.0,-255.0,8.0,-146.0,5.0,225.0,8.0,-985.0,156.0
-4.0,-249.0,6.0,-152.0,-23.0,244.0,-7.0,-983.0,155.0
-8.0,-250.0,2.0,-159.0,-58.0,266.0,-12.0,-972.0,147.0
-9.0,-248.0,7.0,-164.0,-97.0,288.0,-23.0,-959.0,144.0
-9.0,-244.0,4.0,-174.0,-141.0,311.0,-34.0,-945.0,128.0
-16.0,-241.0,-3.0,-181.0,-191.0,331.0,-54.0,-938.0,127.0
-24.0,-240.0,-1.0,-185.0,-242.0,352.0,-84.0,-931.0,122.0
-31.0,-239.0,-2.0,-185.0,-293.0,372.0,-116.0,-925.0,116.0
-33.0,-235.0,-5.0,-181.0,-341.0,392.0,-125.0,-923.0,109.0
-32.0,-233.0,-10.0,-172.0,-386.0,412.0,-124.0,-911.0,106.0
-39.0,-233.0,-5.0,-159.0,-431.0,424.0,-146.0,-904.0,105.0
-43.0,-231.0,-3.0,-149.0,-476.0,431.0,-163.0,-898.0,108.0
-48.0,-230.0,-5.0,-131.0,-522.0,433.0,-174.0,-878.0,105.0
-52.0,-223.0,-2.0,-105.0,-570.0,432.0,-181.0,-868.0,114.0
-53.0,-218.0,-3.0,-78.0,-618.0,424.0,-192.0,-846.0,113.0
-60.0,-211.0,0.0,-53.0,-662.0,408.0,-211.0,-826.0,120.0
-59.0,-209.0,2.0,-26.0,-704.0,391.0,-210.0,-815.0,131.0
-55.0,-209.0,6.0,-7.0,-737.0,370.0,-202.0,-798.0,152.0
-52.0,-209.0,8.0,13.0,-763.0,348.0,-203.0,-802.0,162.0
-43.0,-207.0,11.0,30.0,-779.0,320.0,-159.0,-799.0,181.0
-32.0,-214.0,19.0,50.0,-783.0,286.0,-130.0,-815.0,197.0
-25.0,-217.0,26.0,64.0,-769.0,250.0,-97.0,-837.0,223.0
-21.0,-223.0,28.0,80.0,-751.0,213.0,-72.0,-857.0,242.0
-12.0,-233.0,33.0,85.0,-719.0,185.0,-40.0,-907.0,257.0
1.0,-238.0,38.0,88.0,-678.0,154.0,-4.0,-927.0,271.0
6.0,-248.0,38.0,80.0,-626.0,126.0,28.0,-967.0,281.0
15.0,-258.0,44.0,68.0,-568.0,99.0,61.0,-1011.0,293.0
19.0,-263.0,40.0,58.0,-520.0,70.0,80.0,-1027.0,283.0
25.0,-266.0,37.0,31.0,-482.0,52.0,95.0,-1044.0,265.0
26.0,-274.0,37.0,-12.0,-455.0,51.0,97.0,-1071.0,274.0
27.0,-277.0,37.0,-43.0,-435.0,68.0,103.0,-1088.0,271.0
22.0,-278.0,35.0,-60.0,-422.0,96.0,90.0,-1090.0,263.0
28.0,-279.0,32.0,-75.0,-415.0,138.0,110.0,-1084.0,257.0
26.0,-271.0,23.0,-89.0,-414.0,181.0,105.0,-1066.0,238.0
26.0,-267.0,25.0,-108.0,-418.0,222.0,109.0,-1051.0,232.0
25.0,-262.0,30.0,-122.0,-419.0,259.0,101.0,-1025.0,239.0
26.0,-255.0,20.0,-128.0,-421.0,289.0,91.0,-1009.0,240.0
20.0,-251.0,26.0,-144.0,-416.0,322.0,85.0,-991.0,237.0
28.0,-257.0,35.0,-169.0,-409.0,341.0,92.0,-992.0,250.0
22.0,-256.0,36.0,-191.0,-399.0,349.0,81.0,-990.0,275.0
13.0,-258.0,45.0,-205.0,-384.0,351.0,57.0,-1003.0,304.0
3.0,-263.0,45.0,-206.0,-371.0,350.0,30.0,-1018.0,318.0
0.0,-265.0,51.0,-195.0,-367.0,348.0,6.0,-1038.0,333.0
-3.0,-266.0,54.0,-176.0,-371.0,348.0,-7.0,-1039.0,332.0
-6.0,-266.0,50.0,-160.0,-380.0,350.0,-16.0,-1035.0,338.0
-9.0,-262.0,52.0,-144.0,-391.0,348.0,-33.0,-1024.0,339.0
-16.0,-256.0,47.0,-129.0,-407.0,348.0,-51.0,-1006.0,335.0
-22.0,-253.0,48.0,-113.0,-424.0,349.0,-89.0,-983.0,325.0
-22.0,-249.0,45.0,-97.0,-444.0,350.0,-95.0,-965.0,303.0
-34.0,-243.0,40.0,-81.0,-454.0,346.0,-139.0,-942.0,282.0
-37.0,-241.0,35.0,-71.0,-461.0,347.0,-142.0,-927.0,267.0
-44.0,-231.0,27.0,-61.0,-468.0,344.0,-162.0,-916.0,242.0
-44.0,-230.0,23.0,-60.0,-469.0,340.0,-166.0,-900.0,213.0
-48.0,-233.0,19.0,-71.0,-462.0,330.0,-180.0,-894.0,207.0
-41.0,-227.0,14.0,-85.0,-453.0,327.0,-170.0,-876.0,197.0
-45.0,-225.0,14.0,-104.0,-438.0,320.0,-166.0,-885.0,183.0
-41.0,-226.0,13.0,-125.0,-424.0,312.0,-160.0,-889.0,187.0
-38.0,-224.0,15.0,-143.0,-412.0,302.0,-150.0,-886.0,188.0
-28.0,-231.0,14.0,-162.0,-398.0,292.0,-126.0,-891.0,189.0
-32.0,-228.0,17.0,-183.0,-385.0,280.0,-119.0,-902.0,189.0
-22.0,-230.0,15.0,-200.0,-373.0,271.0,-92.0,-904.0,195.0
-16.0,-231.0,17.0,-215.0,-358.0,256.0,-71.0,-906.0,206.0
-16.0,-234.0,23.0,-225.0,-343.0,240.0,-50.0,-907.0,217.0
-12.0,-237.0,23.0,-232.0,-332.0,223.0,-45.0,-917.0,227.0
-9.0,-236.0,22.0,-238.0,-323.0,202.0,-34.0,-921.0,230.0
-9.0,-241.0,27.0,-237.0,-312.0,187.0,-31.0,-925.0,235.0
-7.0,-236.0,28.0,-232.0,-304.0,175.0,-15.0,-932.0,240.0
-7.0,-242.0,29.0,-218.0,-300.0,165.0,-16.0,-930.0,241.0
-6.0,-243.0,24.0,-194.0,-296.0,161.0,-9.0,-935.0,240.0
-3.0,-243.0,28.0,-168.0,-290.0,158.0,-14.0,-940.0,233.0
-2.0,-238.0,24.0,-146.0,-278.0,155.0,-7.0,-932.0,227.0
-5.0,-241.0,23.0,-129.0,-261.0,149.0,-13.0,-930.0,228.0
-1.0,-237.0,22.0,-112.0,-242.0,149.0,-7.0,-928.0,223.0
-1.0,-237.0,25.0,-98.0,-221.0,145.0,-7.0,-924.0,219.0
-2.0,-234.0,21.0,-89.0,-200.0,139.0,-5.0,-917.0,225.0
-2.0,-236.0,26.0,-89.0,-180.0,129.0,-3.0,-916.0,234.0
-3.0,-235.0,31.0,-90.0,-162.0,118.0,-6.0,-912.0,242.0
-2.0,-238.0,32.0,-90.0,-150.0,105.0,-8.0,-915.0,254.0
-4.0,-236.0,36.0,-89.0,-138.0,91.0,-16.0,-916.0,271.0
-9.0,-234.0,33.0,-86.0,-131.0,74.0,-18.0,-913.0,281.0
-8.0,-238.0,43.0,-85.0,-124.0,56.0,-51.0,-916.0,285.0
-17.0,-238.0,37.0,-80.0,-117.0,42.0,-66.0,-922.0,293.0
-19.0,-235.0,40.0,-67.0,-112.0,30.0,-83.0,-909.0,293.0
-21.0,-232.0,35.0,-52.0,-104.0,19.0,-91.0,-906.0,289.0
-26.0,-233.0,40.0,-43.0,-93.0,7.0,-110.0,-907.0,290.0
-28.0,-226.0,40.0,-39.0,-79.0,0.0,-110.0,-893.0,282.0
-26.0,-227.0,41.0,-46.0,-60.0,-8.0,-109.0,-893.0,281.0
-31.0,-227.0,43.0,-51.0,-40.0,-15.0,-114.0,-892.0,287.0
-27.0,-232.0,43.0,-50.0,-28.0,-18.0,-110.0,-895.0,297.0
-24.0,-228.0,43.0,-37.0,-21.0,-20.0,-111.0,-889.0,291.0
-24.0,-223.0,39.0,-33.0,-7.0,-26.0,-95.0,-870.0,289.0
-29.0,-223.0,43.0,-38.0,11.0,-32.0,-101.0,-871.0,296.0
-20.0,-227.0,39.0,-44.0,26.0,-37.0,-86.0,-875.0,293.0
-23.0,-226.0,40.0,-47.0,40.0,-40.0,-84.0,-868.0,294.0
-21.0,-231.0,47.0,-56.0,55.0,-47.0,-85.0,-899.0,316.0
-17.0,-233.0,49.0,-54.0,61.0,-54.0,-80.0,-908.0,318.0
-16.0,-232.0,48.0,-41.0,64.0,-54.0,-66.0,-907.0,319.0
-14.0,-237.0,48.0,-29.0,69.0,-57.0,-64.0,-903.0,320.0
-13.0,-233.0,50.0,-19.0,73.0,-64.0,-48.0,-914.0,330.0
-13.0,-234.0,49.0,-18.0,77.0,-76.0,-51.0,-912.0,326.0
-14.0,-243.0,53.0,-29.0,81.0,-83.0,-56.0,-933.0,341.0
-15.0,-247.0,57.0,-33.0,85.0,-91.0,-67.0,-953.0,356.0
-16.0,-244.0,58.0,-22.0,85.0,-92.0,-70.0,-951.0,357.0
-20.0,-251.0,64.0,-11.0,87.0,-87.0,-88.0,-967.0,369.0
-25.0,-253.0,72.0,10.0,85.0,-79.0,-100.0,-986.0,397.0
-20.0,-259.0,71.0,50.0,75.0,-61.0,-99.0,-991.0,413.0
-26.0,-254.0,72.0,99.0,63.0,-44.0,-88.0,-973.0,403.0
-35.0,-255.0,76.0,136.0,56.0,-34.0,-121.0,-989.0,435.0
-31.0,-252.0,76.0,177.0,45.0,-18.0,-120.0,-986.0,448.0
-40.0,-247.0,75.0,218.0,33.0,-6.0,-139.0,-973.0,441.0
-32.0,-247.0,74.0,234.0,33.0,10.0,-131.0,-955.0,424.0
-36.0,-246.0,78.0,223.0,41.0,15.0,-129.0,-957.0,440.0
-42.0,-247.0,77.0,211.0,40.0,18.0,-148.0,-969.0,440.0
-46.0,-250.0,72.0,214.0,26.0,24.0,-160.0,-984.0,421.0
-46.0,-254.0,61.0,220.0,7.0,36.0,-158.0,-994.0,376.0
-47.0,-261.0,46.0,206.0,-16.0,47.0,-170.0,-1021.0,307.0
-49.0,-267.0,34.0,161.0,-32.0,62.0,-187.0,-1045.0,262.0
-51.0,-278.0,32.0,100.0,-43.0,78.0,-196.0,-1081.0,241.0
-52.0,-284.0,26.0,46.0,-52.0,90.0,-190.0,-1103.0,223.0
-50.0,-293.0,25.0,-5.0,-58.0,101.0,-187.0,-1148.0,226.0
-41.0,-309.0,30.0,-44.0,-59.0,108.0,-170.0,-1202.0,244.0
-41.0,-322.0,39.0,-76.0,-51.0,110.0,-153.0,-1235.0,281.0
-35.0,-334.0,50.0,-89.0,-29.0,106.0,-146.0,-1296.0,317.0
-32.0,-347.0,63.0,-71.0,2.0,99.0,-124.0,-1340.0,362.0
-26.0,-360.0,66.0,-10.0,39.0,89.0,-119.0,-1376.0,388.0
-31.0,-367.0,67.0,84.0,72.0,84.0,-127.0,-1404.0,397.0
-23.0,-370.0,68.0,194.0,102.0,89.0,-96.0,-1419.0,392.0
-27.0,-371.0,62.0,306.0,129.0,96.0,-104.0,-1420.0,385.0
-20.0,-372.0,59.0,424.0,135.0,114.0,-89.0,-1424.0,358.0
-18.0,-362.0,41.0,535.0,121.0,134.0,-77.0,-1398.0,310.0
-13.0,-350.0,24.0,619.0,92.0,150.0,-49.0,-1367.0,230.0
-5.0,-336.0,3.0,664.0,54.0,154.0,-13.0,-1315.0,159.0
3.0,-329.0,-18.0,670.0,11.0,146.0,-2.0,-1275.0,72.0
-1.0,-309.0,-45.0,631.0,-32.0,125.0,22.0,-1224.0,-23.0
0.0,-299.0,-57.0,551.0,-61.0,93.0,-3.0,-1174.0,-100.0
-5.0,-288.0,-74.0,444.0,-73.0,53.0,-13.0,-1131.0,-152.0
-8.0,-277.0,-74.0,325.0,-63.0,15.0,-31.0,-1104.0,-171.0
-8.0,-274.0,-74.0,214.0,-29.0,-18.0,-37.0,-1067.0,-155.0
-8.0,-266.0,-65.0,131.0,17.0,-45.0,-32.0,-1033.0,-128.0
-1.0,-257.0,-59.0,72.0,68.0,-65.0,-17.0,-999.0,-107.0
-1.0,-250.0,-52.0,42.0,125.0,-82.0,-10.0,-973.0,-77.0
7.0,-242.0,-47.0,36.0,184.0,-95.0,20.0,-935.0,-50.0
12.0,-233.0,-35.0,44.0,239.0,-107.0,37.0,-905.0,-15.0
19.0,-227.0,-30.0,62.0,289.0,-116.0,66.0,-872.0,22.0
25.0,-218.0,-24.0,91.0,326.0,-122.0,95.0,-847.0,54.0
30.0,-218.0,-20.0,129.0,350.0,-123.0,117.0,-840.0,55.0
31.0,-214.0,-22.0,167.0,352.0,-121.0,133.0,-825.0,61.0
34.0,-213.0,-22.0,197.0,340.0,-120.0,137.0,-830.0,56.0
32.0,-216.0,-23.0,218.0,320.0,-117.0,130.0,-838.0,51.0
30.0,-224.0,-23.0,226.0,293.0,-110.0,119.0,-865.0,44.0
30.0,-232.0,-25.0,225.0,259.0,-100.0,116.0,-894.0,36.0
20.0,-237.0,-23.0,215.0,224.0,-91.0,100.0,-924.0,36.0
24.0,-247.0,-21.0,198.0,192.0,-86.0,86.0,-957.0,43.0
14.0,-253.0,-18.0,179.0,168.0,-87.0,58.0,-985.0,58.0
13.0,-260.0,-15.0,157.0,151.0,-90.0,51.0,-1009.0,75.0
8.0,-265.0,-10.0,137.0,136.0,-102.0,34.0,-1036.0,93.0
-1.0,-274.0,-4.0,116.0,122.0,-116.0,12.0,-1053.0,116.0
-1.0,-278.0,-1.0,95.0,100.0,-130.0,0.0,-1075.0,137.0
-2.0,-281.0,4.0,71.0,72.0,-147.0,8.0,-1097.0,155.0
2.0,-288.0,12.0,55.0,47.0,-168.0,14.0,-1119.0,174.0
3.0,-299.0,16.0,55.0,36.0,-201.0,2.0,-1141.0,194.0
4.0,-307.0,25.0,80.0,36.0,-237.0,14.0,-1168.0,216.0
0.0,-303.0,22.0,136.0,43.0,-271.0,7.0,-1161.0,216.0
7.0,-299.0,20.0,190.0,44.0,-297.0,27.0,-1157.0,210.0
8.0,-295.0,19.0,227.0,40.0,-317.0,38.0,-1142.0,201.0
11.0,-292.0,15.0,250.0,34.0,-338.0,55.0,-1125.0,201.0
9.0,-283.0,16.0,272.0,34.0,-356.0,59.0,-1087.0,186.0
9.0,-271.0,10.0,289.0,37.0,-368.0,45.0,-1066.0,186.0
6.0,-260.0,11.0,293.0,37.0,-376.0,35.0,-1022.0,175.0
6.0,-252.0,7.0,283.0,42.0,-375.0,23.0,-991.0,168.0
0.0,-244.0,7.0,252.0,47.0,-369.0,-1.0,-956.0,156.0
-14.0,-239.0,5.0,211.0,51.0,-358.0,-43.0,-935.0,146.0
-18.0,-232.0,5.0,165.0,47.0,-328.0,-75.0,-908.0,144.0
-24.0,-224.0,0.0,119.0,33.0,-304.0,-80.0,-888.0,136.0
-28.0,-216.0,2.0,77.0,10.0,-286.0,-108.0,-853.0,129.0
-29.0,-211.0,-2.0,35.0,-22.0,-260.0,-107.0,-827.0,118.0
-27.0,-207.0,-1.0,-8.0,-58.0,-229.0,-106.0,-812.0,121.0
-27.0,-203.0,1.0,-43.0,-87.0,-201.0,-104.0,-795.0,134.0
-30.0,-199.0,2.0,-64.0,-115.0,-178.0,-105.0,-780.0,140.0
-33.0,-194.0,5.0,-76.0,-142.0,-159.0,-115.0,-768.0,144.0
-29.0,-193.0,9.0,-89.0,-170.0,-147.0,-102.0,-750.0,156.0
-21.0,-193.0,9.0,-90.0,-194.0,-140.0,-87.0,-738.0,162.0
-16.0,-191.0,8.0,-91.0,-219.0,-143.0,-71.0,-736.0,171.0
-16.0,-191.0,13.0,-84.0,-240.0,-150.0,-62.0,-737.0,182.0
-14.0,-194.0,14.0,-73.0,-252.0,-153.0,-46.0,-735.0,200.0
-13.0,-190.0,15.0,-48.0,-261.0,-156.0,-31.0,-731.0,203.0
-9.0,-186.0,14.0,-23.0,-280.0,-165.0,-13.0,-731.0,200.0
-7.0,-191.0,20.0,-5.0,-305.0,-176.0,-6.0,-742.0,204.0
1.0,-190.0,15.0,11.0,-327.0,-189.0,4.0,-747.0,207.0
-2.0,-196.0,15.0,25.0,-346.0,-192.0,6.0,-754.0,197.0
6.0,-197.0,18.0,27.0,-367.0,-196.0,35.0,-764.0,201.0
11.0,-192.0,16.0,19.0,-391.0,-214.0,55.0,-752.0,188.0
12.0,-193.0,14.0,5.0,-413.0,-235.0,62.0,-741.0,187.0
15.0,-193.0,18.0,-9.0,-443.0,-248.0,69.0,-756.0,186.0
19.0,-196.0,12.0,-16.0,-475.0,-255.0,75.0,-765.0,192.0
16.0,-198.0,17.0,-21.0,-509.0,-258.0,84.0,-772.0,199.0
19.0,-196.0,21.0,-25.0,-534.0,-261.0,83.0,-769.0,215.0
21.0,-200.0,24.0,-33.0,-549.0,-258.0,83.0,-776.0,231.0
17.0,-201.0,33.0,-36.0,-555.0,-249.0,81.0,-783.0,254.0
21.0,-206.0,35.0,-35.0,-564.0,-228.0,85.0,-794.0,279.0
20.0,-207.0,42.0,-26.0,-574.0,-200.0,79.0,-801.0,295.0
20.0,-209.0,46.0,-13.0,-580.0,-163.0,86.0,-811.0,313.0
18.0,-207.0,52.0,5.0,-584.0,-123.0,79.0,-809.0,325.0
21.0,-208.0,53.0,23.0,-590.0,-79.0,83.0,-813.0,338.0
17.0,-210.0,57.0,46.0,-595.0,-35.0,84.0,-812.0,357.0
15.0,-208.0,60.0,72.0,-600.0,13.0,78.0,-814.0,365.0
16.0,-211.0,66.0,99.0,-606.0,61.0,67.0,-811.0,377.0
14.0,-211.0,63.0,124.0,-619.0,108.0,66.0,-814.0,387.0
10.0,-211.0,64.0,146.0,-629.0,154.0,58.0,-814.0,392.0
11.0,-212.0,66.0,163.0,-639.0,195.0,46.0,-812.0,398.0
18.0,-207.0,58.0,179.0,-644.0,231.0,42.0,-817.0,401.0
11.0,-214.0,68.0,187.0,-646.0,265.0,34.0,-822.0,406.0
5.0,-212.0,68.0,194.0,-646.0,294.0,37.0,-826.0,404.0
11.0,-219.0,72.0,201.0,-642.0,319.0,37.0,-834.0,403.0
9.0,-215.0,65.0,209.0,-632.0,339.0,35.0,-832.0,393.0
12.0,-218.0,62.0,209.0,-619.0,353.0,42.0,-832.0,377.0
11.0,-215.0,55.0,200.0,-599.0,362.0,43.0,-830.0,347.0
14.0,-211.0,49.0,177.0,-574.0,363.0,56.0,-832.0,324.0
13.0,-210.0,42.0,144.0,-545.0,359.0,59.0,-831.0,305.0
16.0,-212.0,37.0,106.0,-512.0,347.0,69.0,-831.0,290.0
18.0,-212.0,37.0,62.0,-483.0,328.0,78.0,-831.0,278.0
25.0,-217.0,41.0,24.0,-450.0,299.0,90.0,-839.0,293.0
29.0,-224.0,47.0,-3.0,-422.0,262.0,113.0,-865.0,312.0
36.0,-231.0,57.0,-14.0,-395.0,214.0,141.0,-893.0,345.0
40.0,-236.0,63.0,-12.0,-371.0,156.0,159.0,-915.0,376.0
49.0,-246.0,69.0,-8.0,-352.0,96.0,186.0,-950.0,399.0
51.0,-248.0,73.0,-5.0,-330.0,34.0,212.0,-974.0,431.0
60.0,-256.0,85.0,-5.0,-306.0,-26.0,235.0,-1005.0,464.0
66.0,-265.0,92.0,-7.0,-279.0,-83.0,264.0,-1036.0,487.0
73.0,-272.0,98.0,-5.0,-250.0,-137.0,288.0,-1068.0,519.0
80.0,-282.0,105.0,-7.0,-223.0,-186.0,305.0,-1090.0,548.0
76.0,-283.0,110.0,-6.0,-201.0,-230.0,312.0,-1105.0,571.0
81.0,-280.0,119.0,5.0,-192.0,-258.0,312.0,-1101.0,601.0
77.0,-277.0,123.0,21.0,-195.0,-278.0,313.0,-1079.0,621.0
76.0,-272.0,124.0,48.0,-206.0,-294.0,315.0,-1056.0,630.0
80.0,-261.0,126.0,77.0,-213.0,-312.0,319.0,-1020.0,640.0
59.0,-261.0,123.0,117.0,-212.0,-320.0,240.0,-1018.0,636.0
57.0,-258.0,121.0,158.0,-227.0,-291.0,232.0,-1016.0,613.0
51.0,-255.0,111.0,198.0,-248.0,-264.0,221.0,-998.0,579.0
47.0,-260.0,101.0,230.0,-265.0,-238.0,180.0,-1013.0,542.0
40.0,-265.0,89.0,251.0,-274.0,-215.0,157.0,-1041.0,494.0
40.0,-270.0,77.0,247.0,-269.0,-206.0,151.0,-1066.0,436.0
32.0,-274.0,64.0,209.0,-256.0,-209.0,119.0,-1084.0,384.0
26.0,-281.0,57.0,136.0,-240.0,-223.0,110.0,-1107.0,348.0
24.0,-288.0,45.0,43.0,-223.0,-237.0,105.0,-1143.0,314.0
25.0,-301.0,47.0,-62.0,-207.0,-252.0,102.0,-1182.0,317.0
24.0,-311.0,49.0,-150.0,-192.0,-263.0,94.0,-1230.0,321.0
27.0,-324.0,49.0,-210.0,-178.0,-272.0,99.0,-1271.0,318.0
25.0,-334.0,47.0,-242.0,-163.0,-277.0,103.0,-1300.0,308.0
28.0,-336.0,40.0,-243.0,-145.0,-282.0,115.0,-1310.0,288.0
32.0,-340.0,38.0,-220.0,-124.0,-286.0,125.0,-1315.0,262.0
35.0,-336.0,28.0,-174.0,-94.0,-282.0,132.0,-1312.0,233.0
40.0,-338.0,16.0,-110.0,-54.0,-269.0,146.0,-1300.0,194.0
42.0,-334.0,8.0,-40.0,-6.0,-250.0,172.0,-1280.0,140.0
46.0,-323.0,-14.0,20.0,37.0,-232.0,179.0,-1264.0,72.0
50.0,-319.0,-33.0,50.0,66.0,-207.0,197.0,-1237.0,11.0
51.0,-314.0,-40.0,56.0,68.0,-182.0,206.0,-1212.0,-34.0
47.0,-307.0,-46.0,49.0,38.0,-156.0,199.0,-1180.0,-57.0
44.0,-299.0,-49.0,42.0,-19.0,-131.0,193.0,-1158.0,-62.0
39.0,-293.0,-50.0,44.0,-91.0,-103.0,160.0,-1121.0,-78.0
32.0,-280.0,-55.0,55.0,-165.0,-76.0,130.0,-1088.0,-89.0
22.0,-267.0,-57.0,64.0,-234.0,-53.0,102.0,-1045.0,-94.0
17.0,-257.0,-57.0,73.0,-291.0,-34.0,69.0,-991.0,-91.0
8.0,-246.0,-57.0,82.0,-332.0,-23.0,31.0,-944.0,-88.0
0.0,-235.0,-54.0,94.0,-357.0,-17.0,1.0,-905.0,-81.0
-6.0,-228.0,-53.0,106.0,-364.0,-18.0,-19.0,-869.0,-66.0
-8.0,-219.0,-45.0,115.0,-356.0,-25.0,-39.0,-836.0,-45.0
-13.0,-216.0,-39.0,115.0,-336.0,-38.0,-50.0,-828.0,-19.0
-16.0,-212.0,-29.0,106.0,-312.0,-51.0,-66.0,-830.0,17.0
-22.0,-213.0,-31.0,89.0,-293.0,-65.0,-81.0,-833.0,21.0
-20.0,-222.0,-23.0,53.0,-283.0,-74.0,-85.0,-854.0,52.0
-21.0,-225.0,-20.0,27.0,-265.0,-79.0,-87.0,-868.0,60.0
-18.0,-227.0,-17.0,-3.0,-245.0,-78.0,-81.0,-906.0,69.0
-16.0,-233.0,-17.0,-32.0,-209.0,-72.0,-71.0,-911.0,71.0
-14.0,-231.0,-17.0,-64.0,-164.0,-62.0,-55.0,-925.0,70.0
-10.0,-244.0,-19.0,-108.0,-118.0,-46.0,-43.0,-951.0,81.0
-1.0,-250.0,-9.0,-151.0,-60.0,-27.0,-14.0,-974.0,93.0
5.0,-255.0,-3.0,-185.0,10.0,-6.0,6.0,-988.0,104.0
10.0,-258.0,-3.0,-218.0,83.0,16.0,28.0,-1009.0,115.0
17.0,-267.0,1.0,-260.0,150.0,45.0,61.0,-1036.0,125.0
22.0,-268.0,5.0,-301.0,210.0,78.0,83.0,-1052.0,141.0
28.0,-275.0,10.0,-337.0,260.0,114.0,111.0,-1072.0,158.0
38.0,-281.0,15.0,-360.0,298.0,153.0,128.0,-1085.0,176.0
39.0,-280.0,11.0,-367.0,325.0,194.0,145.0,-1094.0,184.0
36.0,-281.0,13.0,-362.0,339.0,234.0,158.0,-1091.0,186.0
43.0,-279.0,14.0,-343.0,342.0,269.0,155.0,-1085.0,192.0
39.0,-272.0,13.0,-312.0,336.0,304.0,161.0,-1062.0,183.0
40.0,-266.0,12.0,-273.0,321.0,333.0,156.0,-1044.0,171.0
33.0,-260.0,7.0,-235.0,301.0,359.0,145.0,-1015.0,157.0
37.0,-253.0,2.0,-195.0,278.0,382.0,145.0,-990.0,136.0
32.0,-248.0,-4.0,-163.0,255.0,399.0,141.0,-961.0,121.0
31.0,-240.0,-10.0,-136.0,233.0,408.0,118.0,-933.0,107.0
26.0,-230.0,-6.0,-116.0,210.0,412.0,104.0,-901.0,104.0
16.0,-222.0,-13.0,-101.0,191.0,412.0,84.0,-863.0,93.0
15.0,-213.0,-9.0,-98.0,174.0,409.0,71.0,-830.0,83.0
3.0,-198.0,-11.0,-102.0,158.0,403.0,37.0,-803.0,80.0
7.0,-199.0,-11.0,-112.0,149.0,392.0,37.0,-774.0,81.0
-1.0,-194.0,-9.0,-127.0,143.0,377.0,0.0,-760.0,90.0
-1.0,-191.0,-8.0,-142.0,141.0,366.0,-6.0,-738.0,94.0
-4.0,-186.0,-5.0,-157.0,144.0,351.0,-14.0,-726.0,109.0
-3.0,-186.0,-4.0,-177.0,157.0,331.0,-11.0,-718.0,122.0
-8.0,-184.0,3.0,-194.0,181.0,301.0,-24.0,-709.0,133.0
-8.0,-188.0,5.0,-211.0,210.0,270.0,-31.0,-714.0,156.0
-16.0,-188.0,10.0,-222.0,237.0,239.0,-47.0,-721.0,167.0
-16.0,-189.0,10.0,-225.0,259.0,215.0,-71.0,-732.0,179.0
-19.0,-191.0,17.0,-221.0,275.0,202.0,-84.0,-748.0,189.0
-20.0,-200.0,19.0,-212.0,286.0,199.0,-77.0,-754.0,199.0
-24.0,-199.0,22.0,-205.0,296.0,193.0,-88.0,-767.0,213.0
-25.0,-202.0,24.0,-200.0,305.0,190.0,-94.0,-786.0,227.0
-27.0,-209.0,30.0,-191.0,313.0,191.0,-103.0,-807.0,242.0
-30.0,-212.0,29.0,-186.0,320.0,192.0,-103.0,-830.0,244.0
-27.0,-221.0,37.0,-184.0,325.0,200.0,-98.0,-844.0,267.0
-23.0,-220.0,38.0,-172.0,335.0,206.0,-99.0,-850.0,270.0
-24.0,-225.0,36.0,-162.0,347.0,211.0,-100.0,-864.0,265.0
-19.0,-224.0,34.0,-153.0,366.0,217.0,-86.0,-871.0,268.0
-24.0,-225.0,37.0,-147.0,384.0,220.0,-87.0,-885.0,286.0
-20.0,-227.0,42.0,-136.0,398.0,223.0,-82.0,-885.0,286.0
-19.0,-229.0,44.0,-122.0,407.0,222.0,-75.0,-890.0,296.0
-15.0,-227.0,38.0,-106.0,415.0,217.0,-59.0,-880.0,292.0
-11.0,-224.0,39.0,-101.0,426.0,208.0,-41.0,-869.0,295.0
-5.0,-223.0,46.0,-100.0,440.0,195.0,-21.0,-860.0,310.0
-1.0,-222.0,52.0,-96.0,452.0,174.0,-3.0,-859.0,331.0
3.0,-219.0,59.0,-87.0,454.0,146.0,21.0,-854.0,354.0
8.0,-217.0,60.0,-72.0,451.0,115.0,37.0,-846.0,365.0
15.0,-217.0,62.0,-52.0,448.0,77.0,57.0,-833.0,375.0
17.0,-212.0,65.0,-36.0,446.0,36.0,75.0,-831.0,382.0
22.0,-213.0,65.0,-22.0,449.0,-10.0,87.0,-825.0,388.0
26.0,-208.0,60.0,-12.0,462.0,-58.0,99.0,-814.0,387.0
25.0,-208.0,65.0,-9.0,481.0,-107.0,105.0,-812.0,388.0
27.0,-208.0,66.0,-7.0,504.0,-157.0,109.0,-820.0,390.0
28.0,-211.0,62.0,-8.0,531.0,-206.0,116.0,-813.0,382.0
31.0,-207.0,59.0,-17.0,555.0,-257.0,117.0,-808.0,359.0
24.0,-215.0,60.0,-47.0,572.0,-306.0,96.0,-817.0,360.0
17.0,-220.0,63.0,-64.0,578.0,-335.0,72.0,-853.0,365.0
13.0,-225.0,53.0,-61.0,568.0,-342.0,69.0,-870.0,339.0
11.0,-226.0,46.0,-57.0,545.0,-353.0,48.0,-882.0,315.0
7.0,-230.0,37.0,-59.0,520.0,-361.0,40.0,-900.0,290.0
1.0,-235.0,38.0,-71.0,498.0,-362.0,17.0,-912.0,277.0
-4.0,-238.0,30.0,-85.0,479.0,-354.0,-7.0,-930.0,257.0
-6.0,-244.0,33.0,-102.0,461.0,-341.0,-22.0,-943.0,260.0
-12.0,-247.0,34.0,-113.0,441.0,-323.0,-33.0,-955.0,258.0
-16.0,-249.0,35.0,-123.0,423.0,-305.0,-55.0,-967.0,272.0
-18.0,-251.0,40.0,-129.0,404.0,-285.0,-70.0,-980.0,284.0
-20.0,-253.0,48.0,-136.0,391.0,-269.0,-78.0,-990.0,315.0
-22.0,-257.0,56.0,-134.0,377.0,-252.0,-82.0,-1002.0,360.0
-24.0,-259.0,69.0,-118.0,363.0,-235.0,-86.0,-1014.0,405.0
-27.0,-264.0,77.0,-91.0,347.0,-214.0,-95.0,-1036.0,446.0
-31.0,-269.0,89.0,-53.0,331.0,-189.0,-116.0,-1043.0,484.0
-33.0,-273.0,97.0,-10.0,316.0,-164.0,-129.0,-1059.0,513.0
-39.0,-275.0,102.0,35.0,301.0,-138.0,-157.0,-1063.0,531.0
-45.0,-276.0,104.0,73.0,291.0,-109.0,-161.0,-1084.0,543.0
-52.0,-278.0,106.0,107.0,283.0,-79.0,-194.0,-1090.0,553.0
-56.0,-279.0,105.0,132.0,271.0,-47.0,-204.0,-1094.0,551.0
-54.0,-277.0,104.0,144.0,261.0,-19.0,-203.0,-1091.0,539.0
-53.0,-273.0,101.0,139.0,261.0,9.0,-202.0,-1081.0,537.0
-52.0,-267.0,101.0,126.0,269.0,30.0,-196.0,-1052.0,536.0
-48.0,-263.0,104.0,111.0,282.0,45.0,-183.0,-1035.0,537.0
-39.0,-256.0,105.0,102.0,303.0,52.0,-160.0,-997.0,540.0
-33.0,-248.0,105.0,96.0,330.0,56.0,-128.0,-976.0,553.0
-20.0,-248.0,110.0,98.0,357.0,57.0,-95.0,-960.0,561.0
-13.0,-242.0,107.0,109.0,384.0,59.0,-50.0,-953.0,560.0
-6.0,-241.0,99.0,124.0,405.0,67.0,-10.0,-955.0,546.0
3.0,-244.0,92.0,134.0,417.0,78.0,9.0,-965.0,499.0
7.0,-253.0,73.0,125.0,423.0,98.0,33.0,-990.0,455.0
13.0,-263.0,69.0,94.0,421.0,120.0,42.0,-1025.0,409.0
13.0,-274.0,56.0,52.0,415.0,142.0,52.0,-1064.0,357.0
16.0,-294.0,43.0,2.0,408.0,161.0,71.0,-1127.0,298.0
12.0,-307.0,30.0,-43.0,396.0,174.0,59.0,-1189.0,248.0
7.0,-313.0,18.0,-86.0,377.0,185.0,37.0,-1245.0,201.0
5.0,-332.0,14.0,-126.0,354.0,200.0,27.0,-1307.0,193.0
-1.0,-343.0,16.0,-139.0,331.0,215.0,7.0,-1341.0,196.0
-3.0,-354.0,21.0,-116.0,310.0,235.0,-13.0,-1371.0,214.0
-13.0,-353.0,24.0,-56.0,288.0,253.0,-31.0,-1369.0,221.0
-16.0,-351.0,25.0,26.0,268.0,274.0,-70.0,-1358.0,207.0
-25.0,-343.0,11.0,108.0,248.0,298.0,-99.0,-1334.0,182.0
-29.0,-337.0,6.0,173.0,236.0,324.0,-116.0,-1311.0,155.0
-29.0,-330.0,-5.0,223.0,223.0,350.0,-114.0,-1290.0,109.0
-25.0,-324.0,-23.0,265.0,213.0,369.0,-101.0,-1266.0,52.0
-17.0,-316.0,-38.0,290.0,206.0,373.0,-81.0,-1227.0,-20.0
-11.0,-311.0,-56.0,297.0,211.0,367.0,-49.0,-1193.0,-85.0
-7.0,-300.0,-69.0,288.0,239.0,356.0,-28.0,-1164.0,-137.0
3.0,-293.0,-78.0,264.0,291.0,346.0,-1.0,-1129.0,-183.0
10.0,-284.0,-82.0,233.0,355.0,335.0,40.0,-1091.0,-202.0
21.0,-263.0,-87.0,201.0,428.0,322.0,69.0,-1014.0,-209.0
36.0,-245.0,-80.0,177.0,503.0,314.0,135.0,-957.0,-191.0
49.0,-231.0,-77.0,161.0,577.0,303.0,180.0,-879.0,-170.0
62.0,-213.0,-69.0,156.0,650.0,289.0,228.0,-818.0,-140.0
75.0,-198.0,-58.0,164.0,718.0,272.0,283.0,-767.0,-106.0
88.0,-185.0,-51.0,177.0,783.0,250.0,328.0,-719.0,-79.0
98.0,-181.0,-36.0,180.0,837.0,218.0,365.0,-692.0,-24.0
100.0,-178.0,-31.0,177.0,874.0,184.0,387.0,-686.0,19.0
103.0,-181.0,-21.0,167.0,891.0,151.0,407.0,-691.0,51.0
104.0,-183.0,-8.0,152.0,889.0,123.0,405.0,-710.0,92.0
100.0,-190.0,-6.0,128.0,868.0,95.0,397.0,-743.0,117.0
102.0,-205.0,4.0,96.0,830.0,68.0,393.0,-787.0,129.0
94.0,-215.0,4.0,59.0,781.0,35.0,370.0,-833.0,136.0
84.0,-231.0,6.0,11.0,721.0,1.0,342.0,-884.0,137.0
72.0,-241.0,9.0,-39.0,655.0,-32.0,303.0,-930.0,149.0
57.0,-253.0,8.0,-82.0,585.0,-66.0,239.0,-980.0,155.0
45.0,-267.0,10.0,-115.0,507.0,-104.0,190.0,-1045.0,160.0
36.0,-277.0,7.0,-145.0,433.0,-151.0,162.0,-1086.0,150.0
17.0,-287.0,8.0,-176.0,377.0,-207.0,68.0,-1119.0,160.0
2.0,-299.0,10.0,-201.0,318.0,-266.0,8.0,-1162.0,178.0
-19.0,-305.0,10.0,-208.0,266.0,-326.0,-67.0,-1179.0,193.0
-26.0,-307.0,16.0,-204.0,219.0,-374.0,-125.0,-1200.0,189.0
-52.0,-312.0,20.0,-192.0,180.0,-414.0,-197.0,-1197.0,196.0
-67.0,-311.0,23.0,-174.0,148.0,-435.0,-250.0,-1212.0,199.0
-74.0,-312.0,18.0,-141.0,124.0,-442.0,-282.0,-1200.0,193.0
-79.0,-311.0,12.0,-99.0,103.0,-447.0,-307.0,-1190.0,186.0
-80.0,-305.0,12.0,-52.0,90.0,-445.0,-312.0,-1172.0,183.0
-77.0,-297.0,14.0,-4.0,81.0,-442.0,-291.0,-1156.0,173.0
-78.0,-286.0,7.0,47.0,75.0,-441.0,-283.0,-1116.0,157.0
-73.0,-279.0,2.0,85.0,70.0,-426.0,-284.0,-1075.0,145.0
-70.0,-264.0,1.0,105.0,64.0,-403.0,-262.0,-1024.0,134.0
-58.0,-248.0,-6.0,108.0,58.0,-378.0,-226.0,-964.0,115.0
-50.0,-240.0,-1.0,98.0,53.0,-355.0,-198.0,-923.0,127.0
-44.0,-225.0,1.0,89.0,46.0,-337.0,-169.0,-874.0,133.0
-34.0,-215.0,4.0,82.0,39.0,-321.0,-139.0,-826.0,139.0
-26.0,-205.0,5.0,75.0,30.0,-310.0,-105.0,-792.0,147.0
-21.0,-191.0,8.0,70.0,22.0,-302.0,-86.0,-750.0,152.0
-16.0,-184.0,6.0,60.0,10.0,-292.0,-57.0,-716.0,153.0
-7.0,-182.0,9.0,40.0,-9.0,-284.0,-28.0,-701.0,168.0
1.0,-176.0,10.0,18.0,-36.0,-281.0,-2.0,-683.0,173.0
11.0,-176.0,16.0,-4.0,-63.0,-276.0,36.0,-680.0,198.0
11.0,-175.0,21.0,-12.0,-88.0,-272.0,58.0,-666.0,205.0
19.0,-172.0,23.0,-17.0,-118.0,-264.0,78.0,-663.0,214.0
32.0,-173.0,28.0,-24.0,-157.0,-256.0,98.0,-673.0,220.0
29.0,-179.0,25.0,-29.0,-196.0,-252.0,116.0,-685.0,234.0
31.0,-178.0,24.0,-31.0,-232.0,-245.0,129.0,-682.0,236.0
36.0,-179.0,32.0,-36.0,-266.0,-235.0,151.0,-699.0,241.0
41.0,-186.0,28.0,-36.0,-300.0,-228.0,151.0,-709.0,254.0
41.0,-189.0,33.0,-33.0,-333.0,-216.0,162.0,-735.0,260.0
49.0,-203.0,36.0,-25.0,-371.0,-210.0,192.0,-789.0,267.0
51.0,-202.0,32.0,-4.0,-407.0,-222.0,211.0,-784.0,251.0
49.0,-201.0,29.0,2.0,-435.0,-232.0,200.0,-777.0,248.0
48.0,-202.0,33.0,-14.0,-465.0,-222.0,197.0,-792.0,243.0
46.0,-207.0,34.0,-40.0,-498.0,-212.0,193.0,-810.0,259.0
45.0,-210.0,35.0,-66.0,-528.0,-208.0,173.0,-830.0,268.0
41.0,-218.0,34.0,-88.0,-551.0,-208.0,156.0,-847.0,271.0
36.0,-223.0,35.0,-105.0,-562.0,-206.0,135.0,-866.0,271.0
34.0,-223.0,41.0,-118.0,-562.0,-201.0,124.0,-865.0,278.0
29.0,-221.0,37.0,-133.0,-554.0,-191.0,110.0,-863.0,283.0
23.0,-221.0,45.0,-145.0,-540.0,-175.0,95.0,-860.0,298.0
22.0,-219.0,48.0,-150.0,-524.0,-151.0,87.0,-852.0,314.0
23.0,-218.0,49.0,-145.0,-507.0,-123.0,90.0,-848.0,337.0
18.0,-214.0,57.0,-132.0,-483.0,-94.0,77.0,-831.0,352.0
16.0,-213.0,64.0,-113.0,-466.0,-56.0,68.0,-819.0,374.0
20.0,-208.0,71.0,-90.0,-455.0,-14.0,73.0,-808.0,383.0
14.0,-203.0,66.0,-70.0,-448.0,33.0,60.0,-790.0,392.0
12.0,-198.0,68.0,-60.0,-451.0,90.0,50.0,-777.0,400.0
16.0,-198.0,65.0,-52.0,-462.0,145.0,71.0,-762.0,403.0
15.0,-194.0,68.0,-49.0,-468.0,196.0,61.0,-749.0,402.0
15.0,-192.0,63.0,-49.0,-472.0,244.0,70.0,-755.0,399.0
16.0,-193.0,63.0,-53.0,-470.0,282.0,62.0,-753.0,394.0
16.0,-193.0,61.0,-60.0,-465.0,315.0,73.0,-762.0,384.0
17.0,-198.0,64.0,-69.0,-455.0,338.0,66.0,-775.0,381.0
22.0,-204.0,63.0,-78.0,-451.0,352.0,74.0,-787.0,378.0
18.0,-204.0,63.0,-82.0,-443.0,362.0,77.0,-798.0,375.0
18.0,-212.0,60.0,-79.0,-435.0,363.0,76.0,-823.0,377.0
20.0,-216.0,63.0,-71.0,-432.0,360.0,75.0,-843.0,379.0
18.0,-223.0,61.0,-60.0,-428.0,356.0,80.0,-869.0,373.0
18.0,-228.0,60.0,-51.0,-417.0,349.0,78.0,-877.0,364.0
18.0,-229.0,60.0,-50.0,-400.0,337.0,84.0,-905.0,363.0
20.0,-237.0,58.0,-56.0,-379.0,320.0,80.0,-922.0,365.0
22.0,-241.0,59.0,-58.0,-349.0,297.0,86.0,-937.0,366.0
25.0,-243.0,62.0,-58.0,-316.0,265.0,90.0,-953.0,381.0
25.0,-249.0,66.0,-56.0,-280.0,223.0,98.0,-971.0,400.0
28.0,-257.0,67.0,-47.0,-247.0,176.0,104.0,-994.0,412.0
29.0,-260.0,73.0,-35.0,-217.0,120.0,109.0,-1016.0,438.0
34.0,-265.0,70.0,-24.0,-202.0,56.0,120.0,-1044.0,453.0
30.0,-271.0,85.0,-17.0,-196.0,-9.0,130.0,-1063.0,473.0
33.0,-273.0,94.0,-10.0,-198.0,-73.0,140.0,-1078.0,493.0
37.0,-275.0,97.0,1.0,-204.0,-130.0,156.0,-1069.0,524.0
39.0,-274.0,101.0,9.0,-212.0,-180.0,152.0,-1072.0,535.0
39.0,-273.0,111.0,17.0,-217.0,-221.0,158.0,-1059.0,566.0
41.0,-266.0,113.0,24.0,-223.0,-243.0,160.0,-1041.0,585.0
44.0,-257.0,122.0,40.0,-226.0,-255.0,171.0,-1016.0,610.0
45.0,-255.0,124.0,57.0,-226.0,-259.0,175.0,-987.0,624.0
54.0,-249.0,121.0,75.0,-222.0,-257.0,212.0,-975.0,615.0
47.0,-248.0,117.0,89.0,-204.0,-274.0,182.0,-963.0,606.0
34.0,-247.0,112.0,100.0,-180.0,-275.0,127.0,-976.0,582.0
40.0,-259.0,100.0,104.0,-173.0,-257.0,122.0,-1008.0,538.0
32.0,-263.0,86.0,90.0,-170.0,-250.0,130.0,-1039.0,490.0
34.0,-276.0,73.0,59.0,-157.0,-253.0,128.0,-1075.0,447.0
30.0,-290.0,69.0,5.0,-139.0,-262.0,110.0,-1128.0,421.0
31.0,-304.0,62.0,-64.0,-128.0,-271.0,126.0,-1182.0,397.0
33.0,-320.0,63.0,-136.0,-121.0,-281.0,129.0,-1253.0,378.0
41.0,-342.0,58.0,-199.0,-114.0,-287.0,152.0,-1318.0,367.0
47.0,-360.0,57.0,-232.0,-102.0,-296.0,181.0,-1382.0,352.0
52.0,-372.0,56.0,-237.0,-81.0,-308.0,199.0,-1432.0,337.0
58.0,-382.0,57.0,-208.0,-50.0,-322.0,215.0,-1463.0,321.0
63.0,-378.0,46.0,-157.0,-10.0,-340.0,234.0,-1457.0,298.0
74.0,-374.0,29.0,-94.0,36.0,-360.0,267.0,-1444.0,260.0
76.0,-361.0,17.0,-31.0,82.0,-376.0,296.0,-1413.0,210.0
83.0,-347.0,7.0,18.0,122.0,-383.0,315.0,-1355.0,164.0
88.0,-337.0,-11.0,52.0,150.0,-373.0,331.0,-1312.0,89.0
87.0,-326.0,-23.0,80.0,163.0,-347.0,333.0,-1254.0,29.0
83.0,-316.0,-40.0,102.0,156.0,-313.0,333.0,-1217.0,-18.0
78.0,-304.0,-48.0,123.0,128.0,-274.0,309.0,-1165.0,-58.0
69.0,-286.0,-54.0,140.0,81.0,-230.0,277.0,-1105.0,-82.0
58.0,-261.0,-58.0,147.0,26.0,-187.0,233.0,-1042.0,-98.0
50.0,-251.0,-63.0,151.0,-30.0,-144.0,198.0,-970.0,-104.0
35.0,-232.0,-65.0,145.0,-84.0,-105.0,143.0,-904.0,-108.0
23.0,-216.0,-59.0,138.0,-129.0,-68.0,92.0,-835.0,-115.0
10.0,-203.0,-64.0,127.0,-161.0,-41.0,49.0,-788.0,-105.0
-2.0,-192.0,-56.0,114.0,-174.0,-28.0,1.0,-748.0,-88.0
-10.0,-188.0,-48.0,99.0,-171.0,-26.0,-36.0,-736.0,-58.0
-17.0,-190.0,-42.0,84.0,-155.0,-36.0,-69.0,-741.0,-23.0
-19.0,-195.0,-35.0,68.0,-136.0,-50.0,-82.0,-751.0,9.0
-25.0,-200.0,-25.0,44.0,-118.0,-63.0,-93.0,-777.0,36.0
-23.0,-208.0,-20.0,12.0,-101.0,-76.0,-93.0,-803.0,67.0
-19.0,-215.0,-13.0,-23.0,-80.0,-86.0,-91.0,-845.0,94.0
-22.0,-227.0,-9.0,-57.0,-54.0,-97.0,-88.0,-876.0,112.0
-18.0,-235.0,1.0,-87.0,-18.0,-101.0,-82.0,-917.0,121.0
-14.0,-245.0,0.0,-118.0,30.0,-101.0,-70.0,-949.0,132.0
-15.0,-251.0,2.0,-146.0,90.0,-97.0,-59.0,-984.0,135.0
-8.0,-265.0,4.0,-173.0,161.0,-88.0,-39.0,-1021.0,142.0
-3.0,-271.0,6.0,-199.0,239.0,-72.0,-18.0,-1058.0,149.0
3.0,-278.0,7.0,-229.0,319.0,-52.0,9.0,-1087.0,159.0
15.0,-286.0,10.0,-254.0,395.0,-23.0,41.0,-1112.0,167.0
23.0,-295.0,11.0,-269.0,462.0,11.0,78.0,-1138.0,174.0
30.0,-299.0,16.0,-282.0,520.0,49.0,113.0,-1150.0,188.0
35.0,-306.0,25.0,-287.0,566.0,87.0,130.0,-1168.0,202.0
45.0,-306.0,25.0,-277.0,601.0,132.0,159.0,-1189.0,219.0
45.0,-309.0,29.0,-252.0,618.0,166.0,169.0,-1190.0,236.0
48.0,-301.0,31.0,-208.0,615.0,196.0,182.0,-1172.0,240.0
47.0,-293.0,30.0,-165.0,599.0,215.0,191.0,-1149.0,233.0
46.0,-288.0,25.0,-125.0,576.0,230.0,190.0,-1112.0,232.0
44.0,-276.0,23.0,-84.0,551.0,248.0,178.0,-1078.0,224.0
47.0,-267.0,23.0,-41.0,525.0,267.0,181.0,-1027.0,216.0
45.0,-256.0,14.0,-5.0,494.0,273.0,171.0,-979.0,192.0
34.0,-242.0,10.0,15.0,467.0,275.0,140.0,-935.0,180.0
31.0,-230.0,8.0,24.0,442.0,281.0,126.0,-891.0,159.0
30.0,-216.0,8.0,21.0,416.0,288.0,121.0,-845.0,152.0
27.0,-205.0,4.0,10.0,391.0,289.0,100.0,-804.0,144.0
23.0,-193.0,0.0,-3.0,371.0,285.0,83.0,-758.0,138.0
19.0,-185.0,2.0,-25.0,360.0,275.0,75.0,-716.0,136.0
13.0,-178.0,4.0,-47.0,361.0,260.0,56.0,-692.0,127.0
4.0,-168.0,1.0,-72.0,363.0,239.0,18.0,-653.0,136.0
-6.0,-167.0,0.0,-97.0,370.0,224.0,-1.0,-638.0,132.0
-10.0,-161.0,2.0,-125.0,381.0,209.0,-30.0,-625.0,133.0
-8.0,-161.0,2.0,-157.0,396.0,198.0,-42.0,-618.0,141.0
-16.0,-159.0,3.0,-189.0,413.0,187.0,-60.0,-622.0,147.0
-16.0,-159.0,7.0,-220.0,429.0,176.0,-69.0,-628.0,144.0
-10.0,-172.0,10.0,-255.0,448.0,164.0,-43.0,-660.0,167.0
-15.0,-176.0,12.0,-276.0,476.0,139.0,-76.0,-674.0,175.0
-17.0,-178.0,13.0,-284.0,504.0,116.0,-76.0,-691.0,190.0
-16.0,-185.0,16.0,-283.0,533.0,97.0,-71.0,-714.0,199.0
-15.0,-190.0,17.0,-282.0,566.0,80.0,-66.0,-735.0,213.0
-16.0,-195.0,21.0,-277.0,606.0,64.0,-72.0,-754.0,221.0
-15.0,-199.0,25.0,-279.0,644.0,54.0,-61.0,-770.0,237.0
-14.0,-204.0,29.0,-284.0,681.0,42.0,-48.0,-787.0,245.0
-12.0,-210.0,31.0,-286.0,716.0,31.0,-40.0,-809.0,254.0
-11.0,-214.0,34.0,-289.0,745.0,21.0,-34.0,-818.0,262.0
-9.0,-218.0,36.0,-285.0,777.0,10.0,-33.0,-839.0,277.0
-5.0,-227.0,41.0,-277.0,805.0,0.0,-25.0,-865.0,281.0
-2.0,-229.0,43.0,-263.0,828.0,-9.0,-15.0,-887.0,299.0
0.0,-227.0,45.0,-238.0,846.0,-19.0,4.0,-891.0,305.0
7.0,-230.0,42.0,-205.0,857.0,-34.0,21.0,-885.0,296.0
4.0,-228.0,41.0,-183.0,869.0,-59.0,26.0,-875.0,293.0
8.0,-228.0,51.0,-165.0,882.0,-84.0,40.0,-896.0,317.0
12.0,-228.0,54.0,-124.0,887.0,-112.0,58.0,-876.0,337.0
21.0,-227.0,57.0,-73.0,888.0,-142.0,81.0,-871.0,341.0
23.0,-222.0,55.0,-21.0,888.0,-177.0,97.0,-861.0,342.0
30.0,-221.0,58.0,19.0,890.0,-220.0,113.0,-850.0,350.0
34.0,-217.0,58.0,49.0,894.0,-264.0,128.0,-845.0,359.0
40.0,-212.0,49.0,72.0,901.0,-309.0,141.0,-830.0,362.0
33.0,-217.0,62.0,88.0,909.0,-359.0,140.0,-823.0,372.0
31.0,-212.0,66.0,103.0,916.0,-404.0,123.0,-813.0,381.0
28.0,-210.0,65.0,110.0,913.0,-442.0,115.0,-812.0,380.0
22.0,-212.0,67.0,117.0,899.0,-470.0,96.0,-814.0,379.0
19.0,-209.0,64.0,117.0,876.0,-491.0,68.0,-812.0,379.0
9.0,-211.0,58.0,114.0,847.0,-500.0,51.0,-819.0,364.0
3.0,-211.0,58.0,108.0,816.0,-498.0,25.0,-834.0,351.0
-2.0,-217.0,50.0,98.0,788.0,-492.0,-4.0,-833.0,329.0
-14.0,-218.0,46.0,79.0,764.0,-480.0,-28.0,-844.0,318.0
-16.0,-220.0,46.0,58.0,746.0,-467.0,-49.0,-861.0,302.0
-16.0,-227.0,39.0,33.0,724.0,-447.0,-71.0,-860.0,300.0
-25.0,-227.0,44.0,5.0,699.0,-424.0,-88.0,-883.0,304.0
-33.0,-231.0,48.0,-20.0,672.0,-392.0,-113.0,-898.0,316.0
-36.0,-233.0,53.0,-41.0,643.0,-357.0,-131.0,-915.0,325.0
-39.0,-241.0,58.0,-57.0,613.0,-319.0,-141.0,-933.0,349.0
-41.0,-247.0,62.0,-64.0,582.0,-278.0,-152.0,-954.0,375.0
-44.0,-253.0,72.0,-67.0,552.0,-233.0,-166.0,-988.0,406.0
-48.0,-260.0,76.0,-64.0,522.0,-189.0,-170.0,-1010.0,440.0
-51.0,-265.0,88.0,-54.0,493.0,-146.0,-186.0,-1036.0,476.0
-55.0,-270.0,99.0,-39.0,465.0,-106.0,-199.0,-1054.0,515.0
-53.0,-276.0,102.0,-17.0,441.0,-69.0,-203.0,-1070.0,534.0
-54.0,-279.0,106.0,14.0,421.0,-34.0,-201.0,-1084.0,553.0
-53.0,-282.0,112.0,45.0,407.0,-8.0,-196.0,-1094.0,571.0
-50.0,-278.0,111.0,78.0,397.0,16.0,-188.0,-1098.0,584.0
-47.0,-280.0,115.0,110.0,393.0,34.0,-171.0,-1087.0,579.0
-40.0,-273.0,113.0,136.0,393.0,46.0,-151.0,-1070.0,575.0
-34.0,-272.0,112.0,156.0,394.0,54.0,-110.0,-1058.0,570.0
-21.0,-267.0,107.0,169.0,396.0,53.0,-77.0,-1045.0,566.0
-11.0,-264.0,105.0,182.0,399.0,48.0,-41.0,-1032.0,548.0
-6.0,-264.0,92.0,188.0,403.0,42.0,-16.0,-1021.0,510.0
-2.0,-263.0,87.0,180.0,409.0,45.0,15.0,-1038.0,471.0
10.0,-265.0,74.0,150.0,412.0,58.0,46.0,-1054.0,428.0
12.0,-282.0,63.0,98.0,417.0,76.0,70.0,-1103.0,398.0
20.0,-296.0,63.0,44.0,429.0,99.0,81.0,-1158.0,368.0
26.0,-312.0,57.0,-11.0,437.0,117.0,102.0,-1226.0,356.0
29.0,-331.0,54.0,-57.0,445.0,129.0,117.0,-1298.0,336.0
24.0,-344.0,50.0,-82.0,453.0,134.0,106.0,-1356.0,320.0
20.0,-357.0,43.0,-86.0,458.0,142.0,85.0,-1399.0,308.0
18.0,-373.0,47.0,-69.0,463.0,156.0,72.0,-1431.0,319.0
15.0,-373.0,51.0,-23.0,466.0,171.0,59.0,-1435.0,324.0
14.0,-370.0,50.0,53.0,461.0,184.0,55.0,-1419.0,337.0
11.0,-363.0,46.0,150.0,449.0,198.0,46.0,-1396.0,312.0
10.0,-352.0,40.0,258.0,429.0,214.0,47.0,-1354.0,285.0
7.0,-341.0,29.0,362.0,409.0,231.0,37.0,-1327.0,247.0
4.0,-334.0,12.0,450.0,385.0,246.0,30.0,-1289.0,178.0
1.0,-318.0,-10.0,511.0,361.0,256.0,16.0,-1240.0,97.0
1.0,-307.0,-37.0,539.0,335.0,259.0,1.0,-1186.0,8.0
0.0,-290.0,-59.0,530.0,315.0,250.0,-8.0,-1132.0,-93.0
-2.0,-274.0,-81.0,470.0,310.0,231.0,-4.0,-1074.0,-193.0
-1.0,-257.0,-91.0,373.0,325.0,210.0,-10.0,-1014.0,-235.0
2.0,-245.0,-96.0,264.0,361.0,196.0,-4.0,-962.0,-246.0
8.0,-232.0,-94.0,163.0,417.0,183.0,11.0,-907.0,-248.0
14.0,-216.0,-84.0,79.0,488.0,176.0,22.0,-849.0,-204.0
19.0,-205.0,-77.0,19.0,567.0,178.0,65.0,-797.0,-161.0
25.0,-194.0,-57.0,-23.0,638.0,181.0,83.0,-754.0,-109.0
30.0,-185.0,-46.0,-54.0,702.0,182.0,103.0,-719.0,-54.0
39.0,-183.0,-26.0,-73.0,748.0,186.0,141.0,-699.0,18.0
45.0,-184.0,-18.0,-81.0,775.0,190.0,157.0,-701.0,61.0
47.0,-185.0,-7.0,-79.0,782.0,188.0,186.0,-717.0,106.0
48.0,-191.0,8.0,-78.0,774.0,180.0,195.0,-743.0,136.0
48.0,-202.0,10.0,-77.0,759.0,169.0,195.0,-786.0,177.0
48.0,-217.0,17.0,-71.0,740.0,149.0,196.0,-844.0,202.0
47.0,-232.0,27.0,-58.0,715.0,122.0,200.0,-906.0,223.0
46.0,-247.0,25.0,-40.0,680.0,86.0,178.0,-959.0,232.0
44.0,-260.0,27.0,-18.0,627.0,44.0,177.0,-1013.0,229.0
32.0,-273.0,25.0,3.0,559.0,-6.0,132.0,-1067.0,230.0
23.0,-282.0,26.0,16.0,470.0,-53.0,107.0,-1108.0,211.0
17.0,-295.0,17.0,19.0,374.0,-101.0,77.0,-1148.0,208.0
11.0,-309.0,23.0,19.0,281.0,-149.0,52.0,-1190.0,228.0
1.0,-314.0,28.0,30.0,201.0,-200.0,15.0,-1215.0,242.0
-7.0,-320.0,33.0,48.0,129.0,-257.0,-12.0,-1253.0,253.0
-13.0,-318.0,34.0,79.0,76.0,-316.0,-43.0,-1255.0,258.0
-27.0,-316.0,32.0,122.0,43.0,-369.0,-110.0,-1223.0,270.0
-34.0,-316.0,42.0,176.0,20.0,-406.0,-136.0,-1225.0,295.0
-43.0,-302.0,31.0,240.0,-5.0,-425.0,-164.0,-1167.0,264.0
-52.0,-290.0,35.0,273.0,-27.0,-429.0,-180.0,-1123.0,246.0
-40.0,-282.0,23.0,279.0,-46.0,-421.0,-158.0,-1102.0,229.0
-36.0,-275.0,17.0,265.0,-39.0,-412.0,-141.0,-1074.0,202.0
-34.0,-266.0,12.0,226.0,-13.0,-408.0,-134.0,-1037.0,190.0
-38.0,-250.0,12.0,182.0,12.0,-403.0,-137.0,-982.0,178.0
-32.0,-240.0,8.0,131.0,30.0,-394.0,-130.0,-936.0,160.0
-28.0,-230.0,8.0,78.0,42.0,-383.0,-116.0,-904.0,164.0
-23.0,-218.0,9.0,41.0,58.0,-372.0,-94.0,-859.0,160.0
-17.0,-208.0,8.0,15.0,71.0,-357.0,-79.0,-816.0,160.0
-13.0,-196.0,9.0,-7.0,76.0,-345.0,-57.0,-769.0,166.0
-12.0,-184.0,8.0,-31.0,74.0,-335.0,-37.0,-722.0,173.0
-8.0,-172.0,13.0,-65.0,68.0,-327.0,-22.0,-680.0,178.0
4.0,-168.0,15.0,-93.0,57.0,-320.0,6.0,-635.0,193.0
3.0,-158.0,20.0,-114.0,43.0,-317.0,21.0,-620.0,206.0
7.0,-159.0,23.0,-124.0,24.0,-314.0,39.0,-598.0,224.0
12.0,-155.0,27.0,-122.0,7.0,-309.0,62.0,-593.0,234.0
18.0,-158.0,34.0,-112.0,-5.0,-306.0,70.0,-594.0,245.0
22.0,-157.0,32.0,-101.0,-16.0,-304.0,83.0,-599.0,255.0
25.0,-155.0,32.0,-89.0,-25.0,-301.0,97.0,-603.0,261.0
24.0,-157.0,33.0,-82.0,-38.0,-300.0,99.0,-615.0,271.0
28.0,-161.0,32.0,-71.0,-53.0,-292.0,110.0,-615.0,275.0
27.0,-169.0,31.0,-60.0,-72.0,-277.0,108.0,-633.0,268.0
27.0,-172.0,37.0,-59.0,-100.0,-257.0,117.0,-664.0,279.0
31.0,-179.0,35.0,-61.0,-138.0,-238.0,111.0,-694.0,278.0
28.0,-185.0,36.0,-66.0,-178.0,-217.0,114.0,-714.0,270.0
26.0,-192.0,37.0,-75.0,-215.0,-195.0,112.0,-755.0,277.0
28.0,-195.0,38.0,-85.0,-252.0,-179.0,119.0,-769.0,271.0
27.0,-196.0,36.0,-101.0,-287.0,-166.0,119.0,-784.0,275.0
29.0,-204.0,37.0,-126.0,-322.0,-149.0,119.0,-793.0,277.0
31.0,-210.0,45.0,-156.0,-356.0,-133.0,122.0,-809.0,292.0
31.0,-211.0,44.0,-179.0,-388.0,-114.0,114.0,-825.0,308.0
24.0,-217.0,52.0,-195.0,-415.0,-94.0,108.0,-845.0,324.0
25.0,-219.0,51.0,-195.0,-437.0,-72.0,107.0,-848.0,334.0
25.0,-215.0,56.0,-191.0,-456.0,-50.0,94.0,-832.0,342.0
18.0,-212.0,60.0,-190.0,-469.0,-25.0,79.0,-817.0,353.0
15.0,-212.0,58.0,-193.0,-476.0,11.0,68.0,-807.0,366.0
13.0,-204.0,62.0,-189.0,-479.0,53.0,59.0,-798.0,380.0
9.0,-203.0,69.0,-179.0,-476.0,95.0,43.0,-789.0,399.0
6.0,-199.0,74.0,-160.0,-470.0,146.0,29.0,-779.0,415.0
5.0,-198.0,72.0,-137.0,-461.0,194.0,25.0,-773.0,418.0
-1.0,-199.0,71.0,-115.0,-452.0,239.0,6.0,-775.0,418.0
-2.0,-199.0,69.0,-97.0,-446.0,283.0,5.0,-775.0,401.0
2.0,-198.0,66.0,-93.0,-431.0,326.0,7.0,-778.0,391.0
6.0,-207.0,76.0,-98.0,-412.0,358.0,4.0,-785.0,400.0
1.0,-204.0,65.0,-98.0,-397.0,388.0,4.0,-798.0,401.0
1.0,-207.0,67.0,-91.0,-390.0,413.0,6.0,-808.0,399.0
2.0,-219.0,68.0,-83.0,-380.0,431.0,10.0,-836.0,394.0
5.0,-219.0,60.0,-74.0,-370.0,443.0,24.0,-853.0,379.0
8.0,-232.0,67.0,-67.0,-354.0,445.0,30.0,-895.0,388.0
10.0,-237.0,62.0,-57.0,-339.0,440.0,44.0,-920.0,380.0
16.0,-239.0,62.0,-50.0,-322.0,430.0,63.0,-936.0,371.0
21.0,-248.0,63.0,-45.0,-294.0,414.0,76.0,-960.0,388.0
23.0,-251.0,60.0,-37.0,-263.0,387.0,96.0,-979.0,385.0
30.0,-258.0,70.0,-29.0,-227.0,347.0,100.0,-996.0,400.0
28.0,-261.0,72.0,-25.0,-189.0,297.0,115.0,-1020.0,405.0
34.0,-267.0,74.0,-19.0,-151.0,233.0,128.0,-1045.0,419.0
34.0,-273.0,83.0,-14.0,-121.0,156.0,137.0,-1065.0,439.0
41.0,-277.0,86.0,-6.0,-98.0,64.0,150.0,-1076.0,469.0
44.0,-279.0,91.0,1.0,-85.0,-34.0,167.0,-1086.0,488.0
50.0,-276.0,93.0,5.0,-75.0,-136.0,199.0,-1084.0,505.0
54.0,-274.0,102.0,7.0,-66.0,-240.0,215.0,-1076.0,528.0
50.0,-272.0,107.0,5.0,-62.0,-335.0,212.0,-1058.0,552.0
53.0,-270.0,121.0,-1.0,-68.0,-400.0,227.0,-1052.0,586.0
51.0,-266.0,122.0,2.0,-87.0,-443.0,212.0,-1048.0,626.0
57.0,-261.0,132.0,22.0,-116.0,-467.0,229.0,-1027.0,646.0
60.0,-249.0,132.0,39.0,-144.0,-491.0,249.0,-986.0,663.0
51.0,-247.0,140.0,45.0,-166.0,-508.0,213.0,-968.0,682.0
48.0,-243.0,140.0,69.0,-182.0,-484.0,196.0,-955.0,696.0
45.0,-234.0,139.0,110.0,-197.0,-443.0,190.0,-921.0,694.0
29.0,-231.0,136.0,136.0,-219.0,-412.0,139.0,-911.0,684.0
19.0,-240.0,131.0,150.0,-233.0,-364.0,97.0,-927.0,661.0
12.0,-248.0,125.0,156.0,-244.0,-324.0,65.0,-963.0,637.0
7.0,-247.0,107.0,154.0,-256.0,-291.0,44.0,-972.0,582.0
9.0,-254.0,96.0,125.0,-261.0,-259.0,41.0,-1001.0,534.0
8.0,-262.0,77.0,67.0,-256.0,-232.0,53.0,-1039.0,465.0
9.0,-280.0,66.0,-20.0,-244.0,-206.0,46.0,-1098.0,409.0
11.0,-306.0,51.0,-129.0,-229.0,-184.0,38.0,-1166.0,351.0
15.0,-323.0,43.0,-235.0,-207.0,-161.0,35.0,-1251.0,291.0
16.0,-344.0,31.0,-325.0,-177.0,-143.0,61.0,-1341.0,247.0
22.0,-365.0,21.0,-371.0,-142.0,-134.0,82.0,-1404.0,206.0
31.0,-372.0,2.0,-363.0,-106.0,-127.0,112.0,-1429.0,142.0
37.0,-374.0,-18.0,-324.0,-70.0,-130.0,148.0,-1441.0,65.0
46.0,-373.0,-31.0,-278.0,-42.0,-138.0,170.0,-1426.0,13.0
49.0,-365.0,-46.0,-246.0,-29.0,-146.0,191.0,-1411.0,-50.0
50.0,-357.0,-54.0,-220.0,-33.0,-148.0,196.0,-1377.0,-81.0
49.0,-344.0,-56.0,-195.0,-51.0,-145.0,204.0,-1339.0,-94.0
56.0,-336.0,-56.0,-156.0,-88.0,-137.0,222.0,-1295.0,-96.0
54.0,-315.0,-55.0,-106.0,-136.0,-130.0,215.0,-1229.0,-98.0
51.0,-303.0,-54.0,-56.0,-192.0,-127.0,209.0,-1164.0,-88.0
47.0,-282.0,-50.0,-3.0,-239.0,-121.0,188.0,-1097.0,-69.0
39.0,-267.0,-49.0,56.0,-274.0,-121.0,155.0,-1021.0,-54.0
31.0,-245.0,-44.0,107.0,-298.0,-124.0,122.0,-953.0,-36.0
25.0,-230.0,-40.0,153.0,-303.0,-129.0,97.0,-886.0,-13.0
19.0,-213.0,-35.0,195.0,-286.0,-136.0,73.0,-829.0,2.0
11.0,-205.0,-26.0,217.0,-254.0,-145.0,38.0,-793.0,21.0
3.0,-197.0,-27.0,216.0,-216.0,-155.0,8.0,-770.0,33.0
-3.0,-196.0,-23.0,195.0,-184.0,-166.0,-12.0,-761.0,47.0
-7.0,-194.0,-20.0,153.0,-157.0,-173.0,-25.0,-765.0,63.0
-9.0,-197.0,-13.0,96.0,-129.0,-175.0,-32.0,-772.0,75.0
-9.0,-200.0,-8.0,32.0,-105.0,-174.0,-35.0,-786.0,98.0
-9.0,-210.0,-5.0,-35.0,-84.0,-170.0,-26.0,-808.0,120.0
-2.0,-216.0,-1.0,-102.0,-61.0,-156.0,-25.0,-832.0,133.0
2.0,-222.0,6.0,-167.0,-33.0,-137.0,-15.0,-856.0,151.0
1.0,-228.0,8.0,-228.0,2.0,-115.0,-1.0,-890.0,169.0
5.0,-234.0,12.0,-285.0,45.0,-87.0,9.0,-912.0,176.0
11.0,-245.0,14.0,-329.0,103.0,-56.0,32.0,-939.0,193.0
13.0,-251.0,18.0,-362.0,170.0,-18.0,38.0,-979.0,196.0
21.0,-263.0,23.0,-388.0,237.0,25.0,76.0,-1010.0,211.0
31.0,-275.0,22.0,-403.0,305.0,64.0,92.0,-1062.0,215.0
30.0,-283.0,24.0,-405.0,370.0,103.0,112.0,-1094.0,228.0
33.0,-297.0,31.0,-399.0,423.0,142.0,125.0,-1134.0,242.0
34.0,-301.0,28.0,-382.0,464.0,176.0,130.0,-1163.0,243.0
34.0,-306.0,25.0,-357.0,487.0,204.0,126.0,-1175.0,248.0
33.0,-305.0,33.0,-324.0,492.0,230.0,130.0,-1170.0,249.0
36.0,-298.0,29.0,-279.0,488.0,248.0,137.0,-1152.0,243.0
37.0,-292.0,27.0,-226.0,476.0,255.0,141.0,-1120.0,242.0
36.0,-281.0,27.0,-170.0,459.0,256.0,133.0,-1090.0,222.0
36.0,-272.0,23.0,-117.0,444.0,249.0,139.0,-1050.0,209.0
34.0,-258.0,16.0,-66.0,429.0,237.0,123.0,-1009.0,192.0
28.0,-250.0,14.0,-28.0,417.0,225.0,117.0,-968.0,188.0
23.0,-240.0,11.0,0.0,402.0,213.0,91.0,-925.0,178.0
23.0,-229.0,8.0,16.0,389.0,200.0,96.0,-891.0,164.0
15.0,-216.0,10.0,12.0,381.0,180.0,71.0,-842.0,156.0
9.0,-208.0,2.0,-3.0,376.0,166.0,42.0,-802.0,154.0
9.0,-196.0,6.0,-29.0,370.0,155.0,34.0,-775.0,137.0
8.0,-192.0,3.0,-67.0,370.0,139.0,35.0,-744.0,139.0
6.0,-184.0,5.0,-103.0,380.0,117.0,31.0,-721.0,149.0
0.0,-183.0,5.0,-129.0,404.0,89.0,7.0,-705.0,152.0
-3.0,-179.0,6.0,-151.0,424.0,62.0,-14.0,-681.0,152.0
-6.0,-173.0,6.0,-171.0,443.0,45.0,-16.0,-673.0,162.0
-8.0,-171.0,9.0,-191.0,457.0,28.0,-25.0,-658.0,163.0
-11.0,-167.0,8.0,-209.0,474.0,12.0,-35.0,-654.0,163.0
-11.0,-170.0,8.0,-228.0,494.0,5.0,-39.0,-658.0,164.0
-12.0,-178.0,11.0,-248.0,514.0,-1.0,-39.0,-678.0,176.0
-14.0,-178.0,16.0,-263.0,536.0,-10.0,-33.0,-690.0,185.0
-10.0,-183.0,17.0,-274.0,557.0,-16.0,-38.0,-702.0,200.0
-10.0,-185.0,17.0,-280.0,579.0,-17.0,-44.0,-717.0,210.0
-14.0,-191.0,23.0,-288.0,598.0,-13.0,-56.0,-741.0,211.0
-11.0,-202.0,34.0,-300.0,611.0,-8.0,-45.0,-781.0,244.0
-10.0,-203.0,34.0,-297.0,625.0,-9.0,-43.0,-779.0,274.0
-9.0,-202.0,41.0,-282.0,641.0,-10.0,-37.0,-789.0,274.0
-10.0,-208.0,37.0,-270.0,660.0,-13.0,-35.0,-800.0,273.0
-6.0,-208.0,38.0,-265.0,679.0,-15.0,-19.0,-816.0,289.0
-6.0,-208.0,44.0,-266.0,698.0,-23.0,-9.0,-807.0,307.0
-5.0,-213.0,48.0,-258.0,721.0,-34.0,-11.0,-830.0,336.0
0.0,-219.0,53.0,-226.0,740.0,-43.0,-8.0,-844.0,340.0
-1.0,-218.0,50.0,-184.0,750.0,-62.0,5.0,-846.0,334.0
-1.0,-212.0,53.0,-149.0,758.0,-84.0,14.0,-828.0,337.0
5.0,-214.0,57.0,-127.0,758.0,-115.0,33.0,-828.0,346.0
12.0,-216.0,63.0,-105.0,758.0,-150.0,46.0,-828.0,356.0
12.0,-213.0,55.0,-75.0,761.0,-189.0,51.0,-823.0,360.0
18.0,-207.0,63.0,-49.0,765.0,-228.0,70.0,-816.0,357.0
17.0,-210.0,58.0,-31.0,768.0,-270.0,71.0,-815.0,357.0
18.0,-210.0,58.0,-20.0,766.0,-312.0,78.0,-808.0,355.0
21.0,-209.0,52.0,-16.0,760.0,-349.0,79.0,-805.0,345.0
17.0,-207.0,49.0,-16.0,749.0,-382.0,76.0,-804.0,338.0
15.0,-208.0,54.0,-28.0,734.0,-411.0,65.0,-808.0,336.0
12.0,-211.0,50.0,-39.0,714.0,-434.0,55.0,-819.0,326.0
4.0,-212.0,42.0,-53.0,691.0,-448.0,33.0,-828.0,308.0
0.0,-219.0,41.0,-72.0,666.0,-454.0,11.0,-851.0,301.0
-2.0,-224.0,38.0,-91.0,639.0,-453.0,-8.0,-881.0,285.0
-8.0,-231.0,40.0,-113.0,612.0,-443.0,-27.0,-901.0,276.0
-11.0,-238.0,34.0,-130.0,590.0,-426.0,-37.0,-925.0,273.0
-17.0,-241.0,35.0,-143.0,573.0,-405.0,-64.0,-941.0,274.0
-21.0,-246.0,38.0,-147.0,560.0,-377.0,-82.0,-957.0,285.0
-26.0,-248.0,42.0,-150.0,549.0,-349.0,-91.0,-972.0,290.0
-29.0,-253.0,49.0,-146.0,539.0,-318.0,-94.0,-981.0,309.0
-31.0,-256.0,55.0,-140.0,525.0,-286.0,-106.0,-992.0,341.0
-30.0,-258.0,62.0,-127.0,507.0,-249.0,-118.0,-1005.0,364.0
-29.0,-260.0,70.0,-104.0,483.0,-209.0,-119.0,-1013.0,403.0
-37.0,-262.0,73.0,-71.0,457.0,-169.0,-127.0,-1020.0,424.0
-35.0,-266.0,81.0,-33.0,431.0,-125.0,-133.0,-1038.0,446.0
-36.0,-267.0,87.0,7.0,406.0,-82.0,-129.0,-1041.0,468.0
-43.0,-270.0,81.0,48.0,383.0,-41.0,-131.0,-1040.0,485.0
-30.0,-267.0,90.0,80.0,363.0,-2.0,-123.0,-1041.0,503.0
-34.0,-264.0,89.0,103.0,351.0,30.0,-117.0,-1040.0,500.0
-26.0,-265.0,97.0,118.0,348.0,60.0,-96.0,-1030.0,500.0
-21.0,-257.0,95.0,125.0,350.0,83.0,-78.0,-1012.0,518.0
-13.0,-255.0,101.0,124.0,363.0,96.0,-46.0,-992.0,526.0
-4.0,-248.0,101.0,122.0,385.0,98.0,-16.0,-967.0,539.0
2.0,-245.0,106.0,120.0,414.0,90.0,-6.0,-943.0,548.0
9.0,-237.0,107.0,117.0,443.0,76.0,31.0,-924.0,557.0
15.0,-233.0,107.0,113.0,470.0,54.0,58.0,-914.0,566.0
21.0,-233.0,105.0,110.0,492.0,32.0,78.0,-907.0,559.0
26.0,-234.0,97.0,100.0,507.0,16.0,103.0,-918.0,531.0
29.0,-242.0,90.0,78.0,519.0,7.0,94.0,-940.0,500.0
31.0,-248.0,83.0,39.0,531.0,14.0,118.0,-971.0,464.0
37.0,-262.0,77.0,-5.0,548.0,38.0,141.0,-1021.0,437.0
40.0,-274.0,72.0,-43.0,572.0,65.0,146.0,-1076.0,415.0
42.0,-293.0,63.0,-72.0,595.0,91.0,155.0,-1136.0,376.0
39.0,-311.0,52.0,-96.0,611.0,109.0,145.0,-1205.0,342.0
34.0,-324.0,52.0,-119.0,621.0,124.0,141.0,-1270.0,323.0
35.0,-347.0,48.0,-133.0,624.0,140.0,138.0,-1340.0,321.0
33.0,-361.0,52.0,-124.0,617.0,155.0,115.0,-1397.0,319.0
25.0,-370.0,58.0,-89.0,602.0,167.0,95.0,-1432.0,323.0
10.0,-376.0,47.0,-30.0,577.0,178.0,44.0,-1447.0,318.0
0.0,-377.0,51.0,52.0,545.0,197.0,4.0,-1445.0,309.0
-10.0,-371.0,37.0,147.0,510.0,222.0,-36.0,-1421.0,281.0
-16.0,-363.0,25.0,240.0,475.0,255.0,-56.0,-1397.0,236.0
-22.0,-356.0,9.0,316.0,439.0,287.0,-77.0,-1366.0,165.0
-25.0,-344.0,-17.0,366.0,410.0,312.0,-87.0,-1345.0,92.0
-17.0,-332.0,-41.0,384.0,391.0,326.0,-85.0,-1296.0,0.0
-20.0,-318.0,-54.0,368.0,392.0,325.0,-83.0,-1254.0,-81.0
-16.0,-304.0,-74.0,326.0,409.0,316.0,-69.0,-1185.0,-147.0
-7.0,-288.0,-82.0,265.0,448.0,296.0,-44.0,-1132.0,-188.0
-3.0,-272.0,-85.0,191.0,501.0,270.0,-29.0,-1076.0,-198.0
5.0,-258.0,-80.0,129.0,558.0,246.0,2.0,-1013.0,-191.0
14.0,-242.0,-73.0,84.0,617.0,228.0,43.0,-929.0,-163.0
26.0,-227.0,-64.0,53.0,676.0,212.0,97.0,-866.0,-131.0
36.0,-216.0,-56.0,34.0,727.0,196.0,131.0,-809.0,-83.0
43.0,-202.0,-47.0,25.0,773.0,175.0,163.0,-773.0,-51.0
45.0,-193.0,-40.0,22.0,810.0,153.0,174.0,-740.0,-6.0
54.0,-190.0,-28.0,20.0,833.0,137.0,203.0,-720.0,36.0
55.0,-187.0,-17.0,6.0,843.0,115.0,222.0,-729.0,68.0
58.0,-188.0,-6.0,-17.0,838.0,87.0,239.0,-742.0,111.0
58.0,-196.0,5.0,-41.0,827.0,55.0,241.0,-770.0,151.0
62.0,-203.0,24.0,-65.0,806.0,24.0,230.0,-809.0,177.0
51.0,-220.0,21.0,-84.0,777.0,-4.0,214.0,-846.0,199.0
49.0,-229.0,13.0,-96.0,735.0,-29.0,201.0,-901.0,194.0
47.0,-246.0,15.0,-113.0,683.0,-58.0,183.0,-946.0,186.0
39.0,-253.0,10.0,-134.0,623.0,-90.0,163.0,-991.0,169.0
32.0,-267.0,12.0,-152.0,558.0,-124.0,132.0,-1044.0,163.0
25.0,-279.0,10.0,-161.0,489.0,-157.0,109.0,-1087.0,162.0
15.0,-289.0,8.0,-160.0,421.0,-192.0,66.0,-1122.0,162.0
6.0,-300.0,8.0,-153.0,350.0,-224.0,35.0,-1163.0,159.0
-2.0,-309.0,10.0,-141.0,284.0,-261.0,-7.0,-1189.0,166.0
-16.0,-313.0,9.0,-121.0,230.0,-295.0,-56.0,-1203.0,174.0
-27.0,-313.0,14.0,-90.0,181.0,-326.0,-98.0,-1207.0,183.0
-32.0,-312.0,12.0,-42.0,147.0,-352.0,-134.0,-1204.0,185.0
-41.0,-312.0,17.0,16.0,122.0,-372.0,-156.0,-1196.0,193.0
-50.0,-309.0,20.0,84.0,109.0,-386.0,-181.0,-1178.0,212.0
-51.0,-295.0,20.0,172.0,98.0,-391.0,-198.0,-1137.0,200.0
-51.0,-277.0,13.0,236.0,90.0,-389.0,-191.0,-1083.0,173.0
-54.0,-264.0,7.0,258.0,81.0,-379.0,-208.0,-1041.0,161.0
-50.0,-247.0,3.0,243.0,73.0,-362.0,-191.0,-964.0,129.0
-44.0,-234.0,-1.0,181.0,69.0,-340.0,-174.0,-922.0,116.0
-34.0,-231.0,0.0,98.0,67.0,-321.0,-140.0,-905.0,130.0
-23.0,-217.0,5.0,34.0,74.0,-313.0,-113.0,-864.0,141.0
-24.0,-212.0,8.0,-2.0,83.0,-301.0,-93.0,-821.0,159.0
-16.0,-200.0,8.0,-24.0,87.0,-294.0,-69.0,-773.0,168.0
-15.0,-191.0,9.0,-33.0,81.0,-292.0,-40.0,-734.0,169.0
-8.0,-182.0,9.0,-46.0,72.0,-290.0,-19.0,-703.0,172.0
-3.0,-175.0,8.0,-58.0,61.0,-286.0,6.0,-675.0,174.0
6.0,-170.0,12.0,-77.0,49.0,-286.0,30.0,-652.0,182.0
12.0,-170.0,15.0,-94.0,34.0,-286.0,58.0,-644.0,185.0
20.0,-169.0,13.0,-110.0,24.0,-287.0,81.0,-644.0,183.0
25.0,-171.0,16.0,-128.0,12.0,-289.0,100.0,-647.0,195.0
30.0,-169.0,16.0,-149.0,0.0,-296.0,111.0,-655.0,198.0
34.0,-172.0,19.0,-159.0,-9.0,-297.0,122.0,-661.0,205.0
34.0,-177.0,18.0,-164.0,-24.0,-294.0,137.0,-677.0,210.0
33.0,-178.0,22.0,-169.0,-45.0,-280.0,141.0,-697.0,209.0
36.0,-186.0,18.0,-173.0,-70.0,-264.0,147.0,-716.0,211.0
38.0,-190.0,14.0,-182.0,-97.0,-240.0,151.0,-731.0,212.0
34.0,-197.0,20.0,-194.0,-123.0,-220.0,155.0,-760.0,223.0
40.0,-202.0,29.0,-204.0,-143.0,-206.0,160.0,-783.0,227.0
42.0,-206.0,31.0,-214.0,-165.0,-191.0,169.0,-809.0,244.0
44.0,-216.0,33.0,-212.0,-187.0,-188.0,166.0,-834.0,259.0
48.0,-220.0,35.0,-207.0,-208.0,-187.0,174.0,-846.0,271.0
45.0,-228.0,43.0,-203.0,-223.0,-182.0,176.0,-870.0,295.0
47.0,-227.0,48.0,-187.0,-234.0,-172.0,178.0,-886.0,312.0
47.0,-228.0,47.0,-167.0,-244.0,-173.0,176.0,-893.0,312.0
41.0,-229.0,52.0,-163.0,-254.0,-181.0,159.0,-891.0,322.0
35.0,-232.0,53.0,-166.0,-259.0,-181.0,151.0,-905.0,340.0
35.0,-233.0,58.0,-169.0,-267.0,-175.0,143.0,-907.0,351.0
27.0,-230.0,60.0,-165.0,-271.0,-170.0,112.0,-901.0,365.0
22.0,-229.0,62.0,-153.0,-271.0,-159.0,99.0,-895.0,375.0
14.0,-223.0,69.0,-134.0,-270.0,-138.0,72.0,-889.0,386.0
11.0,-225.0,71.0,-112.0,-273.0,-103.0,50.0,-873.0,393.0
4.0,-224.0,72.0,-89.0,-275.0,-63.0,32.0,-863.0,401.0
-1.0,-218.0,67.0,-63.0,-278.0,-20.0,10.0,-852.0,410.0
-6.0,-214.0,71.0,-41.0,-282.0,26.0,-14.0,-834.0,411.0
-13.0,-209.0,69.0,-27.0,-287.0,80.0,-27.0,-812.0,415.0
-14.0,-206.0,76.0,-18.0,-294.0,135.0,-49.0,-804.0,421.0
-16.0,-203.0,73.0,-13.0,-307.0,192.0,-66.0,-797.0,424.0
-18.0,-200.0,78.0,-11.0,-321.0,247.0,-68.0,-793.0,431.0
-18.0,-201.0,71.0,-13.0,-333.0,298.0,-74.0,-785.0,423.0
-17.0,-202.0,76.0,-18.0,-340.0,346.0,-71.0,-788.0,434.0
-21.0,-200.0,71.0,-21.0,-343.0,383.0,-69.0,-791.0,432.0
-15.0,-208.0,74.0,-23.0,-344.0,416.0,-60.0,-803.0,421.0
-11.0,-212.0,70.0,-25.0,-339.0,439.0,-36.0,-824.0,416.0
-7.0,-217.0,66.0,-24.0,-329.0,448.0,-21.0,-829.0,391.0
-1.0,-218.0,55.0,-31.0,-315.0,447.0,-1.0,-858.0,368.0
-1.0,-220.0,48.0,-42.0,-293.0,429.0,14.0,-857.0,336.0
11.0,-224.0,44.0,-65.0,-266.0,401.0,39.0,-865.0,314.0
17.0,-229.0,45.0,-93.0,-232.0,359.0,56.0,-880.0,310.0
21.0,-229.0,47.0,-114.0,-199.0,302.0,85.0,-895.0,306.0
28.0,-234.0,51.0,-128.0,-164.0,237.0,102.0,-907.0,319.0
34.0,-243.0,54.0,-134.0,-134.0,166.0,135.0,-930.0,337.0
38.0,-247.0,59.0,-136.0,-110.0,77.0,142.0,-959.0,362.0
46.0,-253.0,63.0,-135.0,-99.0,6.0,171.0,-977.0,371.0
45.0,-262.0,72.0,-136.0,-84.0,-58.0,195.0,-1007.0,413.0
55.0,-264.0,77.0,-138.0,-77.0,-117.0,214.0,-1026.0,447.0
51.0,-273.0,93.0,-140.0,-71.0,-177.0,210.0,-1050.0,496.0
52.0,-275.0,103.0,-126.0,-73.0,-228.0,221.0,-1066.0,527.0
55.0,-275.0,102.0,-106.0,-88.0,-266.0,227.0,-1071.0,545.0
55.0,-276.0,105.0,-84.0,-101.0,-291.0,227.0,-1064.0,546.0
53.0,-270.0,111.0,-64.0,-114.0,-303.0,213.0,-1052.0,551.0
49.0,-265.0,107.0,-41.0,-130.0,-304.0,207.0,-1033.0,551.0
43.0,-260.0,105.0,-16.0,-151.0,-297.0,178.0,-1016.0,548.0
39.0,-258.0,103.0,15.0,-172.0,-268.0,168.0,-1005.0,548.0
42.0,-255.0,92.0,53.0,-185.0,-234.0,161.0,-994.0,521.0
33.0,-252.0,87.0,69.0,-197.0,-219.0,138.0,-991.0,477.0
24.0,-262.0,86.0,59.0,-198.0,-207.0,109.0,-1015.0,455.0
14.0,-271.0,74.0,39.0,-185.0,-195.0,65.0,-1052.0,430.0
10.0,-274.0,65.0,7.0,-170.0,-190.0,39.0,-1083.0,388.0
7.0,-285.0,63.0,-55.0,-153.0,-194.0,23.0,-1125.0,369.0
5.0,-300.0,57.0,-129.0,-137.0,-205.0,28.0,-1171.0,355.0
13.0,-311.0,54.0,-207.0,-110.0,-222.0,50.0,-1227.0,340.0
19.0,-327.0,53.0,-274.0,-76.0,-249.0,77.0,-1275.0,320.0
31.0,-338.0,45.0,-318.0,-36.0,-276.0,112.0,-1318.0,308.0
40.0,-343.0,42.0,-336.0,11.0,-302.0,155.0,-1348.0,290.0
48.0,-352.0,34.0,-330.0,59.0,-331.0,185.0,-1356.0,255.0
60.0,-352.0,33.0,-302.0,108.0,-356.0,222.0,-1353.0,225.0
66.0,-344.0,20.0,-266.0,157.0,-371.0,261.0,-1341.0,200.0
74.0,-340.0,8.0,-221.0,199.0,-372.0,280.0,-1318.0,166.0
82.0,-335.0,0.0,-175.0,234.0,-363.0,304.0,-1299.0,125.0
84.0,-326.0,-10.0,-135.0,261.0,-345.0,322.0,-1272.0,81.0
85.0,-320.0,-17.0,-95.0,275.0,-318.0,330.0,-1244.0,49.0
84.0,-312.0,-30.0,-56.0,275.0,-287.0,329.0,-1202.0,22.0
78.0,-298.0,-35.0,-19.0,256.0,-252.0,315.0,-1156.0,-4.0
70.0,-284.0,-36.0,14.0,219.0,-213.0,291.0,-1103.0,-26.0
63.0,-268.0,-45.0,43.0,167.0,-168.0,259.0,-1043.0,-47.0
48.0,-251.0,-52.0,73.0,102.0,-124.0,213.0,-984.0,-68.0
40.0,-237.0,-56.0,97.0,36.0,-84.0,169.0,-921.0,-77.0
28.0,-218.0,-59.0,115.0,-19.0,-53.0,119.0,-853.0,-102.0
18.0,-204.0,-64.0,119.0,-58.0,-29.0,73.0,-800.0,-112.0
4.0,-193.0,-60.0,107.0,-78.0,-18.0,25.0,-756.0,-114.0
-7.0,-190.0,-59.0,79.0,-85.0,-13.0,-25.0,-736.0,-101.0
-17.0,-185.0,-55.0,45.0,-77.0,-12.0,-65.0,-728.0,-89.0
-19.0,-191.0,-54.0,-2.0,-57.0,-19.0,-73.0,-743.0,-68.0
-17.0,-194.0,-46.0,-58.0,-40.0,-38.0,-84.0,-768.0,-46.0
-18.0,-204.0,-34.0,-128.0,-19.0,-61.0,-87.0,-789.0,-13.0
-23.0,-208.0,-26.0,-196.0,12.0,-87.0,-87.0,-810.0,28.0
-21.0,-215.0,-19.0,-263.0,42.0,-109.0,-96.0,-827.0,57.0
-13.0,-231.0,-8.0,-327.0,83.0,-124.0,-68.0,-885.0,100.0
-9.0,-245.0,4.0,-367.0,137.0,-150.0,-57.0,-933.0,139.0
-6.0,-252.0,9.0,-375.0,205.0,-170.0,-35.0,-984.0,159.0
-9.0,-253.0,10.0,-361.0,279.0,-183.0,-19.0,-997.0,152.0
-2.0,-262.0,6.0,-357.0,354.0,-190.0,-6.0,-1017.0,146.0
8.0,-270.0,2.0,-372.0,422.0,-187.0,20.0,-1050.0,147.0
12.0,-275.0,3.0,-395.0,487.0,-175.0,46.0,-1073.0,153.0
17.0,-278.0,7.0,-425.0,547.0,-155.0,75.0,-1095.0,163.0
23.0,-286.0,9.0,-449.0,598.0,-127.0,92.0,-1114.0,170.0
31.0,-290.0,14.0,-462.0,634.0,-92.0,115.0,-1132.0,185.0
34.0,-294.0,16.0,-463.0,654.0,-53.0,136.0,-1136.0,202.0
36.0,-295.0,18.0,-446.0,661.0,-16.0,134.0,-1136.0,208.0
35.0,-287.0,23.0,-416.0,653.0,22.0,143.0,-1126.0,219.0
35.0,-288.0,22.0,-367.0,638.0,57.0,143.0,-1105.0,210.0
34.0,-280.0,16.0,-307.0,621.0,94.0,147.0,-1082.0,199.0
36.0,-271.0,14.0,-247.0,603.0,132.0,139.0,-1053.0,184.0
33.0,-265.0,9.0,-195.0,584.0,171.0,131.0,-1018.0,172.0
30.0,-252.0,8.0,-151.0,564.0,207.0,122.0,-987.0,155.0
30.0,-248.0,6.0,-120.0,543.0,241.0,117.0,-950.0,142.0
22.0,-234.0,-3.0,-103.0,523.0,266.0,93.0,-919.0,129.0
25.0,-226.0,-8.0,-96.0,506.0,290.0,92.0,-891.0,119.0
18.0,-218.0,-6.0,-103.0,496.0,296.0,82.0,-851.0,107.0
15.0,-209.0,-10.0,-119.0,495.0,293.0,63.0,-817.0,100.0
6.0,-202.0,-10.0,-135.0,501.0,283.0,41.0,-797.0,98.0
-1.0,-192.0,-9.0,-156.0,509.0,272.0,3.0,-750.0,96.0
-7.0,-186.0,-9.0,-182.0,519.0,270.0,-13.0,-726.0,93.0
-5.0,-184.0,-10.0,-210.0,531.0,259.0,-17.0,-708.0,99.0
-8.0,-180.0,-12.0,-236.0,549.0,242.0,-26.0,-703.0,103.0
-8.0,-179.0,-9.0,-259.0,570.0,224.0,-38.0,-690.0,94.0
-9.0,-182.0,-7.0,-284.0,595.0,199.0,-37.0,-697.0,108.0
-12.0,-185.0,-1.0,-300.0,622.0,169.0,-39.0,-716.0,120.0
-11.0,-189.0,-4.0,-304.0,653.0,139.0,-34.0,-729.0,125.0
-10.0,-194.0,1.0,-302.0,688.0,111.0,-47.0,-749.0,135.0
-10.0,-196.0,7.0,-299.0,721.0,84.0,-35.0,-758.0,158.0
-2.0,-198.0,5.0,-288.0,750.0,55.0,-17.0,-761.0,161.0
-6.0,-198.0,6.0,-279.0,785.0,29.0,-13.0,-773.0,168.0
-1.0,-202.0,11.0,-283.0,812.0,4.0,-4.0,-794.0,175.0
5.0,-213.0,15.0,-286.0,837.0,-17.0,14.0,-817.0,199.0
1.0,-216.0,23.0,-277.0,861.0,-35.0,18.0,-830.0,221.0
3.0,-222.0,28.0,-259.0,880.0,-48.0,22.0,-853.0,234.0
2.0,-224.0,33.0,-232.0,894.0,-63.0,21.0,-859.0,256.0
2.0,-225.0,33.0,-199.0,907.0,-74.0,17.0,-866.0,257.0
7.0,-226.0,35.0,-172.0,919.0,-82.0,28.0,-881.0,266.0
9.0,-231.0,37.0,-148.0,929.0,-92.0,29.0,-891.0,279.0
6.0,-229.0,41.0,-125.0,936.0,-106.0,33.0,-876.0,291.0
5.0,-225.0,40.0,-99.0,947.0,-119.0,27.0,-866.0,291.0
4.0,-218.0,41.0,-76.0,958.0,-133.0,22.0,-850.0,291.0
7.0,-215.0,40.0,-67.0,968.0,-150.0,27.0,-839.0,301.0
9.0,-217.0,48.0,-67.0,975.0,-173.0,38.0,-828.0,318.0
13.0,-215.0,52.0,-67.0,978.0,-198.0,50.0,-825.0,335.0
13.0,-219.0,59.0,-58.0,982.0,-224.0,53.0,-838.0,367.0
9.0,-220.0,61.0,-33.0,980.0,-246.0,42.0,-855.0,373.0
9.0,-222.0,62.0,1.0,973.0,-264.0,45.0,-847.0,367.0
6.0,-218.0,59.0,24.0,962.0,-280.0,35.0,-848.0,369.0
4.0,-216.0,64.0,36.0,941.0,-295.0,23.0,-848.0,371.0
-1.0,-216.0,62.0,46.0,921.0,-305.0,6.0,-854.0,376.0
-6.0,-222.0,67.0,52.0,906.0,-314.0,-15.0,-861.0,367.0
-13.0,-224.0,59.0,54.0,893.0,-318.0,-33.0,-870.0,364.0
-15.0,-227.0,55.0,51.0,883.0,-323.0,-51.0,-884.0,350.0
-16.0,-232.0,51.0,43.0,869.0,-326.0,-72.0,-899.0,339.0
-25.0,-236.0,53.0,34.0,854.0,-330.0,-89.0,-909.0,325.0
-33.0,-237.0,50.0,26.0,835.0,-331.0,-119.0,-926.0,313.0
-41.0,-240.0,45.0,18.0,801.0,-327.0,-141.0,-933.0,316.0
-45.0,-245.0,48.0,8.0,759.0,-316.0,-168.0,-944.0,316.0
-52.0,-243.0,51.0,3.0,712.0,-298.0,-194.0,-955.0,322.0
-60.0,-249.0,55.0,-1.0,664.0,-274.0,-212.0,-969.0,338.0
-63.0,-251.0,58.0,4.0,622.0,-246.0,-236.0,-983.0,357.0
-66.0,-256.0,59.0,11.0,589.0,-213.0,-248.0,-995.0,378.0
-67.0,-262.0,72.0,27.0,564.0,-179.0,-254.0,-1008.0,403.0
-71.0,-260.0,75.0,49.0,546.0,-147.0,-265.0,-1026.0,429.0
-70.0,-265.0,80.0,75.0,532.0,-114.0,-273.0,-1039.0,438.0
-69.0,-268.0,82.0,100.0,520.0,-88.0,-268.0,-1044.0,458.0
-69.0,-270.0,86.0,126.0,510.0,-63.0,-256.0,-1049.0,470.0
-63.0,-270.0,87.0,150.0,501.0,-36.0,-249.0,-1054.0,485.0
-55.0,-272.0,86.0,173.0,493.0,-16.0,-217.0,-1046.0,484.0
-52.0,-268.0,89.0,193.0,487.0,3.0,-193.0,-1042.0,488.0
-44.0,-265.0,90.0,216.0,483.0,14.0,-156.0,-1036.0,490.0
-37.0,-264.0,84.0,245.0,486.0,20.0,-126.0,-1026.0,480.0
-25.0,-259.0,81.0,272.0,486.0,22.0,-88.0,-1014.0,465.0
-16.0,-257.0,74.0,301.0,486.0,23.0,-43.0,-1010.0,424.0
-8.0,-256.0,65.0,315.0,483.0,25.0,-10.0,-1018.0,386.0
9.0,-264.0,53.0,308.0,477.0,27.0,31.0,-1035.0,338.0
16.0,-265.0,40.0,281.0,472.0,29.0,62.0,-1048.0,302.0
21.0,-274.0,28.0,235.0,464.0,30.0,79.0,-1078.0,249.0
21.0,-283.0,18.0,171.0,455.0,33.0,90.0,-1110.0,203.0
24.0,-294.0,11.0,92.0,447.0,45.0,94.0,-1147.0,174.0
26.0,-309.0,5.0,17.0,439.0,60.0,100.0,-1200.0,143.0
29.0,-322.0,-4.0,-54.0,440.0,80.0,103.0,-1260.0,121.0
21.0,-338.0,-2.0,-113.0,440.0,106.0,93.0,-1313.0,115.0
21.0,-348.0,3.0,-156.0,436.0,140.0,78.0,-1360.0,136.0
16.0,-361.0,12.0,-175.0,426.0,180.0,70.0,-1397.0,160.0
9.0,-368.0,12.0,-160.0,405.0,222.0,47.0,-1425.0,179.0
0.0,-372.0,15.0,-121.0,380.0,271.0,15.0,-1431.0,191.0
-4.0,-370.0,20.0,-61.0,351.0,324.0,-5.0,-1423.0,205.0
1.0,-371.0,24.0,18.0,326.0,372.0,1.0,-1420.0,215.0
6.0,-367.0,20.0,117.0,306.0,403.0,26.0,-1407.0,193.0
15.0,-363.0,8.0,218.0,295.0,414.0,63.0,-1392.0,141.0
26.0,-351.0,-9.0,310.0,295.0,403.0,92.0,-1360.0,81.0
29.0,-344.0,-29.0,375.0,309.0,371.0,139.0,-1329.0,7.0
47.0,-333.0,-49.0,403.0,338.0,315.0,174.0,-1279.0,-72.0
54.0,-316.0,-61.0,387.0,382.0,246.0,207.0,-1213.0,-122.0
62.0,-298.0,-69.0,340.0,441.0,172.0,238.0,-1161.0,-139.0
72.0,-285.0,-64.0,284.0,511.0,104.0,281.0,-1099.0,-129.0
80.0,-269.0,-64.0,242.0,587.0,43.0,303.0,-1029.0,-114.0
85.0,-248.0,-55.0,219.0,669.0,-10.0,332.0,-957.0,-80.0
95.0,-234.0,-51.0,204.0,751.0,-57.0,351.0,-896.0,-48.0
97.0,-213.0,-38.0,195.0,826.0,-99.0,365.0,-825.0,-24.0
96.0,-201.0,-39.0,177.0,895.0,-140.0,371.0,-777.0,0.0
103.0,-187.0,-25.0,152.0,950.0,-176.0,384.0,-736.0,37.0
104.0,-187.0,-18.0,118.0,988.0,-207.0,398.0,-720.0,67.0
104.0,-183.0,-15.0,79.0,1008.0,-235.0,395.0,-712.0,93.0
99.0,-184.0,-3.0,35.0,1005.0,-255.0,380.0,-717.0,113.0
91.0,-190.0,-4.0,-21.0,982.0,-265.0,362.0,-746.0,120.0
81.0,-198.0,0.0,-86.0,943.0,-274.0,322.0,-788.0,136.0
74.0,-209.0,1.0,-148.0,889.0,-271.0,300.0,-824.0,127.0
59.0,-226.0,-1.0,-209.0,824.0,-270.0,255.0,-872.0,136.0
46.0,-240.0,4.0,-259.0,753.0,-271.0,216.0,-924.0,138.0
39.0,-250.0,2.0,-289.0,681.0,-273.0,172.0,-967.0,134.0
30.0,-262.0,-4.0,-300.0,614.0,-280.0,128.0,-1014.0,136.0
20.0,-269.0,2.0,-304.0,556.0,-293.0,105.0,-1048.0,122.0
20.0,-279.0,1.0,-314.0,519.0,-315.0,79.0,-1069.0,114.0
12.0,-286.0,-3.0,-332.0,498.0,-336.0,49.0,-1102.0,115.0
0.0,-292.0,-6.0,-345.0,492.0,-362.0,16.0,-1127.0,119.0
-7.0,-299.0,2.0,-349.0,491.0,-387.0,-20.0,-1147.0,120.0
-9.0,-305.0,2.0,-344.0,491.0,-410.0,-36.0,-1163.0,128.0
-15.0,-305.0,2.0,-327.0,500.0,-427.0,-46.0,-1170.0,142.0
-15.0,-306.0,8.0,-291.0,515.0,-438.0,-68.0,-1175.0,148.0
-22.0,-302.0,8.0,-240.0,537.0,-446.0,-80.0,-1165.0,156.0
-16.0,-299.0,7.0,-177.0,560.0,-439.0,-74.0,-1150.0,155.0
-15.0,-281.0,5.0,-114.0,587.0,-429.0,-64.0,-1117.0,146.0
-10.0,-281.0,7.0,-59.0,612.0,-414.0,-37.0,-1080.0,142.0
-5.0,-269.0,1.0,-17.0,638.0,-402.0,-26.0,-1053.0,138.0
-6.0,-257.0,3.0,20.0,657.0,-395.0,-20.0,-1000.0,134.0
-4.0,-242.0,-7.0,39.0,671.0,-382.0,-11.0,-944.0,115.0
-4.0,-228.0,-3.0,32.0,680.0,-366.0,-13.0,-894.0,111.0
0.0,-218.0,-4.0,7.0,674.0,-348.0,6.0,-842.0,114.0
4.0,-205.0,-3.0,-19.0,657.0,-334.0,21.0,-798.0,118.0
9.0,-190.0,0.0,-47.0,637.0,-321.0,41.0,-751.0,122.0
12.0,-183.0,-3.0,-73.0,615.0,-312.0,55.0,-714.0,129.0
15.0,-177.0,4.0,-97.0,597.0,-305.0,73.0,-681.0,142.0
18.0,-166.0,2.0,-118.0,577.0,-298.0,80.0,-651.0,140.0
22.0,-168.0,10.0,-139.0,555.0,-291.0,96.0,-637.0,161.0
26.0,-160.0,11.0,-152.0,532.0,-287.0,108.0,-626.0,168.0
31.0,-166.0,15.0,-162.0,510.0,-287.0,120.0,-626.0,180.0
33.0,-163.0,15.0,-166.0,492.0,-289.0,124.0,-630.0,190.0
31.0,-164.0,13.0,-166.0,479.0,-290.0,130.0,-635.0,195.0
37.0,-166.0,15.0,-160.0,468.0,-290.0,146.0,-652.0,198.0
36.0,-169.0,14.0,-162.0,460.0,-288.0,144.0,-654.0,199.0
36.0,-174.0,21.0,-170.0,447.0,-286.0,144.0,-670.0,212.0
38.0,-182.0,23.0,-179.0,431.0,-276.0,143.0,-696.0,216.0
39.0,-187.0,26.0,-183.0,413.0,-264.0,144.0,-724.0,223.0
35.0,-192.0,21.0,-188.0,395.0,-254.0,150.0,-746.0,233.0
39.0,-200.0,27.0,-189.0,375.0,-248.0,153.0,-770.0,236.0
40.0,-207.0,29.0,-193.0,358.0,-248.0,164.0,-792.0,239.0
37.0,-213.0,28.0,-202.0,341.0,-254.0,155.0,-811.0,250.0
36.0,-221.0,31.0,-206.0,325.0,-259.0,138.0,-841.0,250.0
32.0,-227.0,32.0,-208.0,307.0,-264.0,136.0,-871.0,258.0
28.0,-230.0,39.0,-205.0,286.0,-268.0,110.0,-894.0,268.0
23.0,-233.0,36.0,-200.0,266.0,-268.0,104.0,-900.0,278.0
23.0,-235.0,41.0,-191.0,245.0,-263.0,94.0,-912.0,292.0
22.0,-235.0,46.0,-174.0,229.0,-253.0,91.0,-913.0,300.0
21.0,-239.0,48.0,-153.0,216.0,-236.0,82.0,-919.0,315.0
21.0,-235.0,50.0,-132.0,208.0,-217.0,81.0,-914.0,321.0
20.0,-234.0,62.0,-112.0,203.0,-191.0,77.0,-910.0,345.0
14.0,-229.0,63.0,-89.0,197.0,-160.0,63.0,-900.0,368.0
12.0,-231.0,65.0,-60.0,190.0,-121.0,53.0,-893.0,392.0
10.0,-228.0,70.0,-28.0,182.0,-75.0,44.0,-888.0,413.0
10.0,-226.0,75.0,7.0,177.0,-23.0,37.0,-869.0,428.0
5.0,-223.0,77.0,38.0,172.0,28.0,34.0,-860.0,432.0
1.0,-221.0,78.0,64.0,172.0,83.0,16.0,-854.0,438.0
1.0,-221.0,79.0,88.0,169.0,139.0,9.0,-860.0,446.0
6.0,-218.0,74.0,112.0,168.0,193.0,24.0,-854.0,440.0
8.0,-218.0,71.0,130.0,175.0,242.0,33.0,-846.0,421.0
14.0,-217.0,67.0,137.0,185.0,286.0,54.0,-845.0,401.0
22.0,-220.0,62.0,132.0,200.0,323.0,92.0,-851.0,367.0
29.0,-221.0,54.0,119.0,210.0,342.0,108.0,-859.0,341.0
25.0,-224.0,42.0,104.0,212.0,346.0,103.0,-872.0,304.0
27.0,-224.0,35.0,82.0,210.0,340.0,106.0,-887.0,260.0
29.0,-226.0,26.0,52.0,203.0,331.0,109.0,-869.0,232.0
25.0,-220.0,23.0,15.0,195.0,314.0,111.0,-865.0,202.0
22.0,-223.0,17.0,-26.0,187.0,290.0,98.0,-870.0,198.0
26.0,-228.0,18.0,-65.0,174.0,259.0,83.0,-885.0,202.0
21.0,-231.0,25.0,-106.0,162.0,221.0,86.0,-899.0,227.0
17.0,-240.0,35.0,-140.0,146.0,174.0,73.0,-932.0,274.0
19.0,-249.0,53.0,-161.0,128.0,125.0,83.0,-965.0,332.0
24.0,-261.0,67.0,-165.0,110.0,70.0,91.0,-1001.0,399.0
27.0,-270.0,86.0,-149.0,97.0,16.0,102.0,-1025.0,456.0
26.0,-273.0,100.0,-113.0,93.0,-31.0,107.0,-1058.0,508.0
25.0,-276.0,105.0,-71.0,90.0,-69.0,101.0,-1068.0,550.0
21.0,-275.0,114.0,-21.0,89.0,-97.0,92.0,-1066.0,572.0
18.0,-273.0,111.0,26.0,87.0,-117.0,82.0,-1060.0,595.0
22.0,-271.0,114.0,72.0,94.0,-123.0,84.0,-1051.0,593.0
23.0,-270.0,111.0,121.0,109.0,-119.0,94.0,-1047.0,571.0
29.0,-271.0,104.0,169.0,130.0,-111.0,100.0,-1051.0,537.0
25.0,-269.0,88.0,206.0,157.0,-106.0,98.0,-1057.0,490.0
20.0,-274.0,76.0,224.0,187.0,-102.0,82.0,-1071.0,437.0
20.0,-281.0,61.0,217.0,215.0,-103.0,87.0,-1111.0,383.0
28.0,-294.0,51.0,185.0,246.0,-116.0,102.0,-1154.0,330.0
34.0,-307.0,39.0,129.0,278.0,-127.0,134.0,-1203.0,263.0
46.0,-327.0,21.0,53.0,311.0,-137.0,169.0,-1280.0,204.0
56.0,-343.0,9.0,-44.0,338.0,-146.0,210.0,-1350.0,153.0
61.0,-359.0,-12.0,-150.0,356.0,-149.0,247.0,-1410.0,109.0
72.0,-376.0,-11.0,-242.0,369.0,-146.0,281.0,-1458.0,81.0
77.0,-383.0,-14.0,-304.0,372.0,-140.0,294.0,-1492.0,54.0
78.0,-390.0,-24.0,-328.0,368.0,-132.0,298.0,-1512.0,42.0
77.0,-387.0,-25.0,-316.0,357.0,-116.0,298.0,-1506.0,22.0
82.0,-381.0,-40.0,-276.0,339.0,-94.0,285.0,-1480.0,1.0
64.0,-367.0,-44.0,-218.0,315.0,-68.0,266.0,-1424.0,-33.0
57.0,-351.0,-46.0,-152.0,285.0,-36.0,233.0,-1360.0,-56.0
49.0,-333.0,-51.0,-83.0,248.0,-5.0,208.0,-1291.0,-68.0
44.0,-311.0,-50.0,-8.0,209.0,24.0,182.0,-1202.0,-75.0
36.0,-291.0,-54.0,77.0,173.0,45.0,150.0,-1120.0,-77.0
27.0,-267.0,-54.0,161.0,137.0,53.0,114.0,-1044.0,-90.0
24.0,-246.0,-59.0,239.0,108.0,50.0,92.0,-959.0,-98.0
14.0,-229.0,-57.0,291.0,91.0,31.0,63.0,-895.0,-99.0
7.0,-214.0,-61.0,319.0,87.0,-2.0,29.0,-831.0,-108.0
-1.0,-200.0,-57.0,319.0,95.0,-46.0,-8.0,-792.0,-108.0
-11.0,-194.0,-60.0,297.0,115.0,-96.0,-34.0,-752.0,-101.0
-16.0,-188.0,-61.0,256.0,139.0,-148.0,-61.0,-740.0,-102.0
-20.0,-187.0,-61.0,193.0,169.0,-198.0,-78.0,-730.0,-101.0
-25.0,-188.0,-56.0,105.0,196.0,-244.0,-84.0,-741.0,-93.0
-17.0,-195.0,-48.0,3.0,234.0,-287.0,-77.0,-764.0,-61.0
-13.0,-202.0,-47.0,-97.0,280.0,-326.0,-53.0,-786.0,-30.0
-6.0,-208.0,-27.0,-203.0,328.0,-368.0,-22.0,-812.0,27.0
8.0,-219.0,-11.0,-291.0,385.0,-400.0,18.0,-850.0,76.0
18.0,-230.0,-3.0,-354.0,450.0,-425.0,39.0,-901.0,115.0
20.0,-236.0,2.0,-396.0,513.0,-438.0,84.0,-935.0,140.0
28.0,-250.0,6.0,-419.0,579.0,-437.0,108.0,-966.0,154.0
41.0,-269.0,7.0,-428.0,644.0,-419.0,127.0,-1013.0,160.0
42.0,-273.0,9.0,-422.0,705.0,-385.0,149.0,-1057.0,168.0
45.0,-283.0,11.0,-405.0,759.0,-344.0,169.0,-1095.0,172.0
50.0,-290.0,13.0,-381.0,811.0,-296.0,189.0,-1125.0,172.0
52.0,-299.0,10.0,-355.0,853.0,-240.0,201.0,-1155.0,183.0
53.0,-303.0,14.0,-320.0,889.0,-182.0,222.0,-1171.0,177.0
59.0,-310.0,13.0,-286.0,918.0,-128.0,222.0,-1183.0,175.0
51.0,-312.0,14.0,-250.0,937.0,-76.0,197.0,-1202.0,179.0
49.0,-314.0,13.0,-207.0,939.0,-28.0,195.0,-1207.0,175.0
48.0,-307.0,10.0,-160.0,924.0,8.0,190.0,-1182.0,168.0
42.0,-295.0,6.0,-113.0,904.0,34.0,172.0,-1146.0,151.0
39.0,-286.0,0.0,-69.0,885.0,50.0,152.0,-1109.0,146.0
31.0,-273.0,2.0,-37.0,868.0,60.0,135.0,-1064.0,131.0
32.0,-265.0,-4.0,-16.0,850.0,60.0,112.0,-1017.0,116.0
23.0,-252.0,-4.0,-7.0,842.0,54.0,84.0,-980.0,97.0
22.0,-242.0,-6.0,-7.0,841.0,44.0,88.0,-937.0,90.0
13.0,-232.0,-18.0,-16.0,848.0,21.0,43.0,-896.0,84.0
7.0,-222.0,-18.0,-28.0,858.0,-3.0,30.0,-855.0,69.0
4.0,-215.0,-17.0,-42.0,873.0,-31.0,17.0,-832.0,62.0
-4.0,-206.0,-19.0,-59.0,892.0,-62.0,-6.0,-798.0,50.0
-10.0,-196.0,-25.0,-80.0,912.0,-97.0,-28.0,-777.0,45.0
-15.0,-188.0,-38.0,-101.0,931.0,-124.0,-53.0,-748.0,40.0
-19.0,-183.0,-31.0,-123.0,950.0,-146.0,-74.0,-714.0,29.0
-19.0,-184.0,-26.0,-149.0,967.0,-158.0,-81.0,-708.0,32.0
-17.0,-182.0,-23.0,-174.0,984.0,-172.0,-75.0,-704.0,46.0
-20.0,-182.0,-23.0,-184.0,1000.0,-186.0,-83.0,-695.0,55.0
-18.0,-182.0,-20.0,-190.0,1013.0,-190.0,-75.0,-697.0,72.0
-17.0,-178.0,-15.0,-192.0,1027.0,-192.0,-72.0,-701.0,78.0
-17.0,-184.0,-11.0,-199.0,1046.0,-195.0,-62.0,-714.0,92.0
-15.0,-185.0,-11.0,-207.0,1065.0,-204.0,-48.0,-730.0,100.0
-14.0,-187.0,-4.0,-222.0,1080.0,-213.0,-37.0,-738.0,120.0
-9.0,-192.0,1.0,-234.0,1095.0,-220.0,-21.0,-754.0,132.0
-4.0,-201.0,8.0,-239.0,1110.0,-223.0,-11.0,-778.0,149.0
3.0,-208.0,10.0,-244.0,1125.0,-225.0,7.0,-793.0,164.0
3.0,-210.0,11.0,-245.0,1135.0,-226.0,22.0,-808.0,180.0
8.0,-215.0,13.0,-243.0,1143.0,-225.0,28.0,-826.0,195.0
13.0,-216.0,19.0,-240.0,1144.0,-223.0,45.0,-845.0,212.0
12.0,-218.0,26.0,-229.0,1143.0,-221.0,52.0,-848.0,230.0
16.0,-224.0,25.0,-218.0,1134.0,-219.0,65.0,-855.0,244.0
16.0,-222.0,34.0,-199.0,1120.0,-220.0,71.0,-851.0,258.0
17.0,-220.0,32.0,-178.0,1106.0,-223.0,72.0,-852.0,273.0
17.0,-218.0,38.0,-156.0,1091.0,-230.0,70.0,-844.0,281.0
16.0,-216.0,39.0,-130.0,1079.0,-244.0,69.0,-830.0,283.0
8.0,-209.0,47.0,-103.0,1071.0,-264.0,71.0,-817.0,291.0
11.0,-204.0,40.0,-78.0,1066.0,-284.0,65.0,-803.0,299.0
13.0,-204.0,46.0,-50.0,1062.0,-306.0,62.0,-788.0,302.0
13.0,-195.0,44.0,-25.0,1058.0,-330.0,57.0,-766.0,308.0
12.0,-194.0,49.0,-4.0,1051.0,-355.0,51.0,-753.0,313.0
11.0,-189.0,48.0,15.0,1038.0,-370.0,43.0,-737.0,323.0
7.0,-187.0,52.0,31.0,1015.0,-380.0,34.0,-726.0,321.0
3.0,-188.0,50.0,42.0,988.0,-380.0,15.0,-723.0,326.0
-7.0,-189.0,44.0,54.0,959.0,-369.0,-11.0,-736.0,319.0
-12.0,-192.0,44.0,63.0,929.0,-355.0,-32.0,-744.0,314.0
-16.0,-193.0,45.0,65.0,905.0,-337.0,-54.0,-763.0,302.0
-24.0,-200.0,39.0,61.0,888.0,-318.0,-78.0,-777.0,287.0
-28.0,-205.0,38.0,50.0,879.0,-301.0,-98.0,-801.0,284.0
-28.0,-216.0,32.0,31.0,869.0,-283.0,-118.0,-835.0,281.0
-33.0,-224.0,36.0,15.0,856.0,-268.0,-120.0,-857.0,279.0
-35.0,-229.0,35.0,1.0,837.0,-258.0,-125.0,-897.0,264.0
-35.0,-239.0,31.0,-19.0,807.0,-252.0,-126.0,-930.0,255.0
-33.0,-248.0,35.0,-42.0,767.0,-246.0,-120.0,-967.0,256.0
-29.0,-254.0,35.0,-60.0,724.0,-248.0,-109.0,-994.0,265.0
-21.0,-262.0,33.0,-66.0,686.0,-256.0,-96.0,-1022.0,274.0
-20.0,-270.0,41.0,-62.0,656.0,-268.0,-77.0,-1048.0,288.0
-15.0,-276.0,49.0,-47.0,638.0,-278.0,-50.0,-1069.0,310.0
-7.0,-277.0,55.0,-23.0,629.0,-290.0,-27.0,-1088.0,337.0
-1.0,-284.0,58.0,12.0,627.0,-306.0,1.0,-1097.0,366.0
5.0,-283.0,69.0,56.0,627.0,-324.0,35.0,-1098.0,398.0
13.0,-283.0,72.0,102.0,626.0,-342.0,53.0,-1101.0,420.0
15.0,-281.0,82.0,149.0,622.0,-355.0,65.0,-1096.0,452.0
19.0,-278.0,86.0,191.0,613.0,-364.0,86.0,-1089.0,477.0
24.0,-278.0,89.0,228.0,601.0,-370.0,96.0,-1079.0,491.0
20.0,-273.0,91.0,255.0,585.0,-366.0,98.0,-1064.0,504.0
22.0,-265.0,96.0,270.0,568.0,-355.0,98.0,-1048.0,506.0
25.0,-263.0,96.0,271.0,546.0,-331.0,100.0,-1020.0,503.0
26.0,-256.0,95.0,261.0,525.0,-300.0,106.0,-997.0,515.0
29.0,-249.0,101.0,248.0,515.0,-265.0,110.0,-982.0,520.0
31.0,-248.0,100.0,236.0,517.0,-229.0,112.0,-966.0,538.0
29.0,-244.0,108.0,227.0,535.0,-196.0,109.0,-942.0,555.0
29.0,-238.0,111.0,219.0,568.0,-168.0,114.0,-938.0,563.0
34.0,-237.0,108.0,214.0,604.0,-141.0,129.0,-934.0,570.0
35.0,-243.0,104.0,208.0,639.0,-121.0,143.0,-944.0,546.0
43.0,-251.0,95.0,200.0,660.0,-101.0,162.0,-980.0,509.0
42.0,-261.0,78.0,179.0,673.0,-80.0,167.0,-1035.0,442.0
41.0,-277.0,65.0,142.0,675.0,-52.0,169.0,-1088.0,382.0
40.0,-288.0,41.0,94.0,666.0,-28.0,159.0,-1124.0,307.0
21.0,-305.0,29.0,31.0,640.0,-3.0,122.0,-1174.0,235.0
22.0,-317.0,9.0,-48.0,595.0,26.0,97.0,-1243.0,167.0
8.0,-337.0,0.0,-137.0,536.0,53.0,48.0,-1316.0,120.0
-9.0,-355.0,-10.0,-223.0,461.0,75.0,-9.0,-1395.0,100.0
-21.0,-379.0,-12.0,-282.0,386.0,101.0,-79.0,-1467.0,86.0
-32.0,-399.0,-13.0,-306.0,319.0,131.0,-121.0,-1536.0,69.0
-51.0,-410.0,-19.0,-300.0,276.0,165.0,-185.0,-1602.0,49.0
-66.0,-426.0,-21.0,-267.0,247.0,199.0,-277.0,-1650.0,38.0
-81.0,-429.0,-30.0,-198.0,231.0,237.0,-308.0,-1648.0,16.0
-84.0,-425.0,-40.0,-110.0,226.0,269.0,-328.0,-1639.0,-13.0
-82.0,-414.0,-56.0,-14.0,230.0,293.0,-315.0,-1620.0,-67.0
-67.0,-404.0,-66.0,66.0,239.0,309.0,-268.0,-1576.0,-126.0
-49.0,-390.0,-73.0,129.0,255.0,312.0,-195.0,-1511.0,-177.0
-27.0,-374.0,-86.0,180.0,282.0,301.0,-128.0,-1438.0,-208.0
-8.0,-349.0,-90.0,230.0,322.0,285.0,-49.0,-1356.0,-231.0
11.0,-325.0,-91.0,281.0,377.0,259.0,20.0,-1262.0,-244.0
27.0,-299.0,-95.0,322.0,438.0,223.0,81.0,-1157.0,-241.0
40.0,-273.0,-89.0,354.0,493.0,190.0,141.0,-1063.0,-234.0
55.0,-246.0,-89.0,371.0,542.0,157.0,202.0,-972.0,-227.0
70.0,-222.0,-85.0,372.0,586.0,122.0,257.0,-873.0,-206.0
85.0,-203.0,-76.0,353.0,624.0,89.0,309.0,-796.0,-169.0
89.0,-186.0,-69.0,323.0,655.0,59.0,340.0,-740.0,-135.0
94.0,-177.0,-54.0,281.0,669.0,33.0,359.0,-706.0,-97.0
97.0,-178.0,-49.0,225.0,666.0,8.0,372.0,-683.0,-63.0
97.0,-174.0,-36.0,151.0,653.0,-22.0,376.0,-685.0,-21.0
90.0,-183.0,-25.0,65.0,636.0,-58.0,352.0,-702.0,21.0
81.0,-195.0,-14.0,-27.0,615.0,-104.0,331.0,-752.0,65.0
76.0,-207.0,-8.0,-114.0,591.0,-153.0,307.0,-799.0,104.0
67.0,-223.0,6.0,-196.0,561.0,-203.0,273.0,-854.0,127.0
56.0,-236.0,6.0,-270.0,512.0,-255.0,241.0,-914.0,148.0
46.0,-249.0,10.0,-333.0,440.0,-299.0,203.0,-970.0,152.0
36.0,-260.0,7.0,-384.0,352.0,-338.0,168.0,-1025.0,152.0
24.0,-277.0,6.0,-420.0,262.0,-376.0,119.0,-1066.0,147.0
12.0,-291.0,8.0,-445.0,177.0,-407.0,79.0,-1115.0,152.0
-1.0,-302.0,7.0,-446.0,108.0,-437.0,23.0,-1146.0,141.0
-14.0,-305.0,0.0,-427.0,55.0,-460.0,-30.0,-1175.0,133.0
-19.0,-315.0,0.0,-390.0,20.0,-471.0,-75.0,-1198.0,132.0
-24.0,-315.0,3.0,-317.0,2.0,-473.0,-99.0,-1219.0,125.0
-21.0,-318.0,3.0,-223.0,7.0,-467.0,-97.0,-1224.0,115.0
-24.0,-320.0,-5.0,-115.0,31.0,-462.0,-104.0,-1221.0,117.0
-29.0,-311.0,-1.0,2.0,70.0,-450.0,-102.0,-1191.0,110.0
-24.0,-304.0,2.0,109.0,116.0,-436.0,-113.0,-1165.0,123.0
-28.0,-287.0,-6.0,203.0,147.0,-418.0,-97.0,-1117.0,122.0
-19.0,-272.0,-2.0,268.0,172.0,-388.0,-89.0,-1069.0,112.0
-22.0,-265.0,6.0,296.0,200.0,-359.0,-81.0,-1038.0,148.0
-15.0,-252.0,1.0,324.0,208.0,-334.0,-50.0,-983.0,148.0
-10.0,-242.0,9.0,338.0,215.0,-317.0,-34.0,-937.0,157.0
-5.0,-228.0,8.0,331.0,207.0,-303.0,-22.0,-891.0,169.0
-1.0,-218.0,14.0,318.0,189.0,-292.0,-5.0,-850.0,180.0
0.0,-210.0,12.0,300.0,167.0,-284.0,17.0,-823.0,198.0
7.0,-203.0,17.0,286.0,141.0,-280.0,29.0,-799.0,205.0
5.0,-195.0,13.0,271.0,110.0,-279.0,34.0,-765.0,193.0
12.0,-191.0,14.0,242.0,80.0,-279.0,48.0,-744.0,190.0
16.0,-187.0,20.0,205.0,46.0,-283.0,63.0,-732.0,188.0
16.0,-184.0,12.0,167.0,13.0,-290.0,72.0,-717.0,184.0
19.0,-185.0,13.0,127.0,-20.0,-299.0,80.0,-721.0,182.0
21.0,-184.0,10.0,90.0,-55.0,-309.0,98.0,-712.0,181.0
24.0,-187.0,13.0,63.0,-89.0,-319.0,102.0,-718.0,180.0
28.0,-188.0,13.0,48.0,-129.0,-332.0,109.0,-733.0,187.0
29.0,-190.0,13.0,45.0,-173.0,-340.0,124.0,-737.0,185.0
32.0,-194.0,20.0,45.0,-217.0,-348.0,118.0,-747.0,199.0
31.0,-197.0,22.0,55.0,-264.0,-356.0,132.0,-768.0,215.0
36.0,-201.0,21.0,72.0,-308.0,-363.0,137.0,-775.0,209.0
36.0,-203.0,20.0,87.0,-346.0,-365.0,142.0,-790.0,210.0
38.0,-215.0,23.0,94.0,-373.0,-362.0,155.0,-812.0,220.0
42.0,-218.0,23.0,102.0,-396.0,-362.0,156.0,-831.0,219.0
36.0,-223.0,25.0,111.0,-410.0,-359.0,151.0,-852.0,231.0
47.0,-224.0,23.0,129.0,-419.0,-346.0,168.0,-861.0,228.0
45.0,-218.0,22.0,140.0,-416.0,-343.0,191.0,-849.0,210.0
44.0,-217.0,19.0,131.0,-399.0,-344.0,176.0,-851.0,212.0
48.0,-224.0,21.0,112.0,-380.0,-332.0,190.0,-873.0,213.0
50.0,-222.0,20.0,98.0,-365.0,-320.0,192.0,-861.0,217.0
50.0,-224.0,24.0,91.0,-352.0,-302.0,196.0,-858.0,214.0
50.0,-224.0,26.0,90.0,-344.0,-283.0,202.0,-867.0,231.0
49.0,-220.0,22.0,105.0,-339.0,-261.0,210.0,-851.0,221.0
51.0,-215.0,19.0,121.0,-339.0,-229.0,204.0,-844.0,207.0
51.0,-216.0,20.0,123.0,-339.0,-202.0,214.0,-843.0,205.0
49.0,-210.0,20.0,121.0,-344.0,-179.0,203.0,-815.0,203.0
49.0,-213.0,19.0,110.0,-353.0,-150.0,196.0,-825.0,206.0
46.0,-212.0,21.0,94.0,-366.0,-127.0,183.0,-820.0,216.0
42.0,-209.0,26.0,86.0,-383.0,-97.0,168.0,-809.0,226.0
40.0,-205.0,25.0,83.0,-404.0,-66.0,151.0,-802.0,218.0
33.0,-201.0,23.0,80.0,-428.0,-32.0,140.0,-790.0,221.0
30.0,-192.0,23.0,74.0,-450.0,4.0,120.0,-764.0,216.0
26.0,-187.0,21.0,58.0,-468.0,38.0,110.0,-735.0,212.0
23.0,-181.0,19.0,38.0,-484.0,65.0,90.0,-705.0,204.0
22.0,-174.0,21.0,15.0,-498.0,90.0,79.0,-677.0,209.0
20.0,-169.0,20.0,-3.0,-508.0,107.0,77.0,-648.0,206.0
15.0,-163.0,25.0,-16.0,-516.0,115.0,73.0,-634.0,218.0
17.0,-162.0,24.0,-20.0,-524.0,119.0,74.0,-626.0,227.0
21.0,-163.0,29.0,-16.0,-527.0,116.0,84.0,-625.0,255.0
24.0,-168.0,37.0,-6.0,-532.0,108.0,98.0,-636.0,281.0
26.0,-170.0,41.0,6.0,-540.0,95.0,109.0,-663.0,292.0
31.0,-179.0,45.0,10.0,-553.0,88.0,121.0,-683.0,305.0
33.0,-184.0,52.0,4.0,-565.0,86.0,131.0,-710.0,320.0
34.0,-190.0,52.0,-12.0,-576.0,86.0,141.0,-739.0,339.0
36.0,-196.0,56.0,-30.0,-586.0,90.0,139.0,-762.0,344.0
36.0,-200.0,60.0,-52.0,-594.0,99.0,144.0,-785.0,352.0
40.0,-206.0,61.0,-74.0,-601.0,111.0,144.0,-805.0,366.0
37.0,-209.0,62.0,-92.0,-601.0,128.0,142.0,-811.0,372.0
35.0,-213.0,66.0,-104.0,-598.0,153.0,146.0,-832.0,383.0
38.0,-216.0,67.0,-112.0,-599.0,186.0,142.0,-839.0,397.0
39.0,-219.0,68.0,-112.0,-607.0,233.0,146.0,-847.0,414.0
44.0,-220.0,70.0,-112.0,-617.0,266.0,161.0,-859.0,416.0
46.0,-223.0,72.0,-109.0,-630.0,304.0,179.0,-870.0,427.0
45.0,-229.0,77.0,-106.0,-641.0,351.0,174.0,-898.0,430.0
43.0,-234.0,78.0,-106.0,-656.0,383.0,167.0,-910.0,433.0
41.0,-241.0,75.0,-119.0,-683.0,430.0,171.0,-938.0,433.0
37.0,-241.0,74.0,-136.0,-721.0,482.0,161.0,-954.0,422.0
42.0,-251.0,73.0,-158.0,-766.0,540.0,160.0,-973.0,416.0
40.0,-252.0,71.0,-181.0,-807.0,597.0,159.0,-997.0,409.0
42.0,-258.0,71.0,-204.0,-833.0,649.0,168.0,-1010.0,413.0
45.0,-257.0,71.0,-226.0,-839.0,690.0,169.0,-1013.0,411.0
46.0,-264.0,73.0,-254.0,-823.0,719.0,186.0,-1037.0,424.0
49.0,-264.0,78.0,-279.0,-795.0,729.0,186.0,-1039.0,435.0
59.0,-263.0,78.0,-308.0,-762.0,728.0,217.0,-1035.0,432.0
63.0,-268.0,78.0,-347.0,-720.0,709.0,242.0,-1052.0,449.0
70.0,-270.0,82.0,-383.0,-678.0,668.0,273.0,-1059.0,447.0
76.0,-275.0,80.0,-421.0,-636.0,627.0,302.0,-1068.0,445.0
84.0,-277.0,79.0,-459.0,-602.0,581.0,324.0,-1081.0,450.0
90.0,-285.0,80.0,-497.0,-576.0,538.0,345.0,-1106.0,441.0
91.0,-288.0,78.0,-521.0,-553.0,500.0,356.0,-1130.0,439.0
90.0,-294.0,69.0,-536.0,-537.0,454.0,349.0,-1141.0,407.0
87.0,-303.0,66.0,-552.0,-505.0,419.0,342.0,-1183.0,395.0
92.0,-310.0,55.0,-556.0,-462.0,397.0,338.0,-1195.0,350.0
90.0,-311.0,48.0,-573.0,-409.0,376.0,344.0,-1209.0,311.0
90.0,-319.0,38.0,-604.0,-356.0,351.0,344.0,-1234.0,298.0
95.0,-330.0,34.0,-624.0,-297.0,332.0,359.0,-1282.0,274.0
96.0,-343.0,28.0,-627.0,-244.0,313.0,369.0,-1326.0,247.0
106.0,-349.0,18.0,-620.0,-194.0,302.0,384.0,-1355.0,204.0
106.0,-355.0,11.0,-625.0,-147.0,289.0,393.0,-1378.0,167.0
105.0,-361.0,7.0,-647.0,-103.0,278.0,403.0,-1405.0,136.0
100.0,-373.0,5.0,-680.0,-67.0,259.0,392.0,-1448.0,140.0
97.0,-384.0,7.0,-705.0,-38.0,242.0,371.0,-1487.0,143.0
93.0,-389.0,6.0,-718.0,-28.0,226.0,362.0,-1515.0,146.0
92.0,-401.0,10.0,-722.0,-31.0,215.0,352.0,-1569.0,161.0
90.0,-411.0,15.0,-714.0,-34.0,193.0,360.0,-1592.0,179.0
97.0,-415.0,19.0,-694.0,-30.0,152.0,370.0,-1613.0,193.0
91.0,-422.0,24.0,-669.0,-27.0,98.0,353.0,-1630.0,222.0
85.0,-423.0,28.0,-638.0,-28.0,46.0,330.0,-1636.0,244.0
78.0,-423.0,34.0,-590.0,-35.0,5.0,304.0,-1634.0,247.0
67.0,-419.0,34.0,-529.0,-49.0,-27.0,252.0,-1612.0,251.0
46.0,-412.0,32.0,-449.0,-70.0,-40.0,176.0,-1577.0,249.0
22.0,-395.0,30.0,-350.0,-105.0,-30.0,94.0,-1517.0,229.0
-4.0,-377.0,21.0,-229.0,-158.0,7.0,8.0,-1451.0,200.0
-25.0,-355.0,9.0,-97.0,-225.0,61.0,-83.0,-1367.0,155.0
-44.0,-333.0,-9.0,25.0,-302.0,140.0,-161.0,-1284.0,98.0
-64.0,-310.0,-25.0,125.0,-378.0,236.0,-241.0,-1189.0,35.0
-88.0,-284.0,-40.0,190.0,-459.0,345.0,-321.0,-1105.0,-22.0
-102.0,-260.0,-59.0,222.0,-555.0,459.0,-382.0,-1015.0,-86.0
-127.0,-235.0,-67.0,197.0,-663.0,572.0,-471.0,-921.0,-130.0
-134.0,-214.0,-68.0,152.0,-768.0,681.0,-496.0,-861.0,-153.0
-146.0,-199.0,-80.0,102.0,-857.0,772.0,-564.0,-768.0,-184.0
-153.0,-186.0,-84.0,46.0,-925.0,868.0,-591.0,-723.0,-201.0
-153.0,-187.0,-83.0,4.0,-976.0,933.0,-605.0,-713.0,-193.0
-160.0,-179.0,-83.0,-29.0,-1012.0,985.0,-624.0,-673.0,-203.0
-151.0,-180.0,-89.0,-51.0,-1023.0,1023.0,-593.0,-687.0,-215.0
-152.0,-166.0,-97.0,-92.0,-1031.0,1029.0,-599.0,-656.0,-255.0
-145.0,-175.0,-94.0,-151.0,-1033.0,1033.0,-565.0,-683.0,-219.0
-134.0,-181.0,-87.0,-198.0,-1018.0,1026.0,-523.0,-689.0,-228.0
-117.0,-200.0,-75.0,-237.0,-1003.0,996.0,-456.0,-757.0,-176.0
-106.0,-199.0,-78.0,-226.0,-977.0,934.0,-425.0,-769.0,-171.0
-99.0,-207.0,-77.0,-208.0,-949.0,865.0,-395.0,-790.0,-176.0
-81.0,-210.0,-90.0,-204.0,-926.0,789.0,-343.0,-799.0,-219.0
-74.0,-220.0,-84.0,-209.0,-899.0,703.0,-284.0,-848.0,-196.0
-60.0,-219.0,-86.0,-190.0,-881.0,604.0,-248.0,-842.0,-192.0
-49.0,-217.0,-80.0,-183.0,-871.0,512.0,-197.0,-846.0,-182.0
-42.0,-221.0,-85.0,-196.0,-862.0,429.0,-164.0,-856.0,-187.0
-37.0,-228.0,-74.0,-238.0,-859.0,348.0,-136.0,-894.0,-161.0
-33.0,-236.0,-68.0,-289.0,-856.0,277.0,-132.0,-922.0,-128.0
-35.0,-248.0,-57.0,-324.0,-861.0,217.0,-135.0,-956.0,-88.0
-33.0,-258.0,-40.0,-337.0,-875.0,174.0,-134.0,-1002.0,-42.0
-37.0,-265.0,-36.0,-312.0,-892.0,150.0,-135.0,-1028.0,-5.0
-35.0,-275.0,-17.0,-267.0,-919.0,145.0,-130.0,-1054.0,23.0
-37.0,-271.0,-21.0,-212.0,-962.0,145.0,-122.0,-1063.0,50.0
-32.0,-278.0,-13.0,-148.0,-1012.0,152.0,-105.0,-1067.0,68.0
-29.0,-276.0,-16.0,-76.0,-1067.0,159.0,-115.0,-1060.0,70.0
-31.0,-269.0,-18.0,-12.0,-1119.0,170.0,-111.0,-1053.0,57.0
-28.0,-266.0,-18.0,34.0,-1154.0,190.0,-102.0,-1025.0,54.0
-26.0,-260.0,-25.0,65.0,-1176.0,209.0,-105.0,-1000.0,49.0
-23.0,-254.0,-23.0,83.0,-1192.0,230.0,-96.0,-981.0,43.0
-26.0,-248.0,-24.0,100.0,-1188.0,246.0,-116.0,-948.0,45.0
-30.0,-240.0,-23.0,113.0,-1173.0,262.0,-116.0,-923.0,48.0
-34.0,-227.0,-22.0,119.0,-1142.0,275.0,-129.0,-889.0,47.0
-35.0,-224.0,-24.0,121.0,-1097.0,289.0,-139.0,-865.0,52.0
-34.0,-219.0,-18.0,118.0,-1038.0,295.0,-141.0,-845.0,64.0
-38.0,-215.0,-20.0,117.0,-969.0,294.0,-154.0,-832.0,70.0
-38.0,-210.0,-15.0,111.0,-898.0,293.0,-159.0,-815.0,70.0
-42.0,-211.0,-15.0,99.0,-825.0,290.0,-169.0,-814.0,66.0
-34.0,-210.0,-15.0,82.0,-760.0,289.0,-146.0,-813.0,70.0
-33.0,-214.0,-12.0,70.0,-695.0,269.0,-138.0,-809.0,78.0
-33.0,-209.0,-12.0,62.0,-631.0,240.0,-135.0,-805.0,78.0
-29.0,-214.0,-16.0,63.0,-573.0,213.0,-131.0,-815.0,85.0
-26.0,-215.0,-19.0,71.0,-529.0,183.0,-110.0,-814.0,67.0
-15.0,-208.0,-9.0,84.0,-499.0,144.0,-90.0,-795.0,56.0
-25.0,-206.0,-22.0,95.0,-482.0,111.0,-88.0,-792.0,43.0
-16.0,-204.0,-27.0,114.0,-473.0,73.0,-76.0,-788.0,32.0
-16.0,-198.0,-30.0,136.0,-474.0,34.0,-71.0,-763.0,14.0
-19.0,-190.0,-38.0,153.0,-481.0,-1.0,-83.0,-741.0,-3.0
-20.0,-186.0,-37.0,166.0,-488.0,-29.0,-86.0,-724.0,-13.0
-16.0,-186.0,-45.0,169.0,-493.0,-58.0,-76.0,-713.0,-27.0
-19.0,-183.0,-47.0,164.0,-486.0,-92.0,-79.0,-691.0,-34.0
-25.0,-176.0,-49.0,148.0,-471.0,-125.0,-94.0,-674.0,-60.0
-27.0,-172.0,-52.0,114.0,-445.0,-153.0,-106.0,-663.0,-73.0
-26.0,-167.0,-51.0,66.0,-414.0,-190.0,-112.0,-658.0,-72.0
-30.0,-167.0,-55.0,10.0,-380.0,-236.0,-121.0,-644.0,-85.0
-33.0,-164.0,-58.0,-58.0,-345.0,-286.0,-130.0,-639.0,-100.0
-32.0,-166.0,-58.0,-128.0,-310.0,-336.0,-137.0,-636.0,-104.0
-37.0,-162.0,-61.0,-199.0,-272.0,-387.0,-143.0,-630.0,-108.0
-37.0,-161.0,-58.0,-271.0,-243.0,-430.0,-151.0,-630.0,-96.0
-40.0,-162.0,-57.0,-338.0,-225.0,-465.0,-156.0,-631.0,-82.0
-41.0,-164.0,-51.0,-391.0,-215.0,-490.0,-158.0,-636.0,-61.0
-45.0,-168.0,-46.0,-428.0,-203.0,-509.0,-169.0,-642.0,-38.0
-46.0,-176.0,-37.0,-446.0,-196.0,-520.0,-185.0,-666.0,-20.0
-50.0,-178.0,-31.0,-454.0,-182.0,-529.0,-198.0,-688.0,8.0
-49.0,-184.0,-25.0,-452.0,-164.0,-543.0,-197.0,-709.0,45.0
-50.0,-191.0,-24.0,-427.0,-122.0,-561.0,-209.0,-739.0,63.0
-57.0,-194.0,-9.0,-404.0,-71.0,-583.0,-223.0,-766.0,93.0
-59.0,-201.0,-5.0,-368.0,-10.0,-614.0,-236.0,-785.0,115.0
-64.0,-209.0,2.0,-321.0,55.0,-647.0,-251.0,-806.0,136.0
-67.0,-215.0,1.0,-261.0,116.0,-681.0,-257.0,-818.0,133.0
-64.0,-218.0,-1.0,-196.0,174.0,-718.0,-258.0,-828.0,137.0
-65.0,-217.0,0.0,-131.0,222.0,-763.0,-254.0,-831.0,127.0
-68.0,-206.0,-15.0,-73.0,256.0,-815.0,-260.0,-807.0,102.0
-69.0,-201.0,-19.0,-32.0,287.0,-866.0,-261.0,-784.0,69.0
-61.0,-197.0,-18.0,-14.0,314.0,-918.0,-248.0,-774.0,67.0
-54.0,-195.0,-15.0,-9.0,328.0,-965.0,-223.0,-744.0,48.0
-51.0,-180.0,-25.0,-17.0,336.0,-1013.0,-199.0,-717.0,53.0
-48.0,-179.0,-27.0,-28.0,343.0,-1054.0,-174.0,-699.0,43.0
-43.0,-173.0,-27.0,-37.0,351.0,-1092.0,-170.0,-682.0,29.0
-41.0,-164.0,-32.0,-44.0,369.0,-1126.0,-163.0,-640.0,17.0
-38.0,-164.0,-32.0,-58.0,397.0,-1161.0,-155.0,-619.0,15.0
-33.0,-158.0,-32.0,-76.0,437.0,-1198.0,-133.0,-595.0,12.0
-23.0,-148.0,-38.0,-100.0,494.0,-1234.0,-112.0,-573.0,4.0
-16.0,-141.0,-31.0,-130.0,568.0,-1269.0,-80.0,-549.0,13.0
-4.0,-131.0,-35.0,-154.0,651.0,-1305.0,-27.0,-505.0,15.0
11.0,-123.0,-26.0,-175.0,742.0,-1344.0,29.0,-474.0,39.0
26.0,-115.0,-25.0,-186.0,833.0,-1379.0,90.0,-439.0,45.0
42.0,-107.0,-19.0,-181.0,922.0,-1413.0,153.0,-396.0,57.0
56.0,-98.0,-18.0,-163.0,1007.0,-1443.0,208.0,-368.0,64.0
62.0,-84.0,-15.0,-129.0,1073.0,-1468.0,242.0,-325.0,71.0
78.0,-74.0,-18.0,-82.0,1114.0,-1482.0,297.0,-281.0,64.0
84.0,-63.0,-23.0,-31.0,1138.0,-1492.0,323.0,-229.0,50.0
95.0,-56.0,-26.0,11.0,1155.0,-1500.0,363.0,-203.0,53.0
95.0,-53.0,-19.0,50.0,1165.0,-1512.0,354.0,-164.0,49.0
87.0,-35.0,-23.0,85.0,1163.0,-1512.0,344.0,-135.0,44.0
78.0,-32.0,-23.0,98.0,1141.0,-1487.0,321.0,-123.0,54.0
77.0,-25.0,-30.0,79.0,1095.0,-1440.0,318.0,-120.0,26.0
70.0,-29.0,-41.0,-1.0,1027.0,-1376.0,281.0,-121.0,-1.0
60.0,-39.0,-47.0,-130.0,957.0,-1294.0,248.0,-152.0,-28.0
47.0,-42.0,-55.0,-289.0,891.0,-1214.0,200.0,-193.0,-66.0
29.0,-61.0,-63.0,-472.0,837.0,-1141.0,131.0,-236.0,-104.0
14.0,-90.0,-58.0,-653.0,784.0,-1082.0,76.0,-339.0,-83.0
-2.0,-114.0,-60.0,-780.0,742.0,-1044.0,14.0,-429.0,-94.0
-15.0,-132.0,-64.0,-870.0,718.0,-1019.0,-37.0,-500.0,-114.0
-21.0,-160.0,-67.0,-930.0,697.0,-992.0,-81.0,-590.0,-119.0
-33.0,-183.0,-67.0,-959.0,679.0,-962.0,-125.0,-673.0,-127.0
-43.0,-204.0,-68.0,-953.0,665.0,-920.0,-157.0,-768.0,-131.0
-48.0,-217.0,-61.0,-919.0,660.0,-866.0,-181.0,-823.0,-130.0
-51.0,-230.0,-61.0,-867.0,669.0,-802.0,-188.0,-868.0,-116.0
-52.0,-233.0,-53.0,-810.0,692.0,-733.0,-211.0,-894.0,-87.0
-55.0,-235.0,-42.0,-742.0,729.0,-650.0,-213.0,-899.0,-33.0
-53.0,-236.0,-30.0,-657.0,781.0,-554.0,-214.0,-899.0,17.0
-51.0,-232.0,-22.0,-554.0,829.0,-459.0,-201.0,-895.0,58.0
-50.0,-236.0,-10.0,-424.0,867.0,-379.0,-201.0,-884.0,97.0
-56.0,-228.0,-6.0,-275.0,895.0,-322.0,-212.0,-855.0,99.0
-55.0,-213.0,-10.0,-144.0,913.0,-291.0,-216.0,-826.0,105.0
-53.0,-198.0,-18.0,-47.0,940.0,-281.0,-213.0,-774.0,82.0
-58.0,-186.0,-16.0,-7.0,986.0,-291.0,-227.0,-725.0,70.0
-53.0,-170.0,-27.0,-20.0,1037.0,-313.0,-217.0,-657.0,46.0
-49.0,-151.0,-31.0,-80.0,1089.0,-342.0,-203.0,-588.0,24.0
-42.0,-130.0,-38.0,-152.0,1136.0,-384.0,-182.0,-522.0,-15.0
-37.0,-114.0,-54.0,-226.0,1175.0,-432.0,-148.0,-450.0,-65.0
-21.0,-103.0,-58.0,-292.0,1210.0,-481.0,-95.0,-394.0,-84.0
-9.0,-90.0,-58.0,-327.0,1232.0,-533.0,-36.0,-345.0,-94.0
8.0,-77.0,-61.0,-344.0,1231.0,-585.0,17.0,-284.0,-115.0
25.0,-61.0,-71.0,-363.0,1203.0,-631.0,78.0,-220.0,-141.0
35.0,-57.0,-75.0,-399.0,1154.0,-679.0,152.0,-211.0,-167.0
38.0,-54.0,-79.0,-439.0,1087.0,-734.0,170.0,-200.0,-176.0
50.0,-54.0,-94.0,-472.0,1016.0,-789.0,205.0,-197.0,-232.0
48.0,-59.0,-104.0,-514.0,942.0,-847.0,202.0,-212.0,-269.0
43.0,-60.0,-114.0,-562.0,872.0,-893.0,185.0,-223.0,-328.0
40.0,-72.0,-124.0,-634.0,799.0,-929.0,173.0,-276.0,-347.0
36.0,-96.0,-119.0,-709.0,726.0,-951.0,149.0,-345.0,-344.0
35.0,-118.0,-111.0,-761.0,656.0,-958.0,139.0,-435.0,-319.0
27.0,-143.0,-107.0,-770.0,601.0,-966.0,114.0,-517.0,-290.0
21.0,-174.0,-90.0,-751.0,563.0,-978.0,91.0,-628.0,-242.0
16.0,-197.0,-73.0,-702.0,540.0,-994.0,83.0,-737.0,-175.0
9.0,-226.0,-51.0,-625.0,527.0,-1003.0,55.0,-840.0,-88.0
14.0,-250.0,-30.0,-516.0,527.0,-1000.0,58.0,-933.0,-7.0
15.0,-265.0,-14.0,-389.0,536.0,-997.0,55.0,-1000.0,49.0
25.0,-281.0,0.0,-250.0,562.0,-980.0,77.0,-1058.0,114.0
27.0,-295.0,12.0,-98.0,605.0,-958.0,108.0,-1107.0,164.0
43.0,-309.0,31.0,66.0,650.0,-946.0,137.0,-1156.0,236.0
44.0,-313.0,31.0,239.0,700.0,-954.0,174.0,-1195.0,250.0
39.0,-320.0,35.0,402.0,760.0,-971.0,155.0,-1244.0,265.0
42.0,-330.0,40.0,524.0,806.0,-984.0,153.0,-1272.0,276.0
51.0,-329.0,34.0,603.0,831.0,-1022.0,185.0,-1301.0,267.0
50.0,-334.0,34.0,657.0,864.0,-1090.0,184.0,-1317.0,254.0
58.0,-344.0,29.0,701.0,913.0,-1160.0,199.0,-1319.0,246.0
60.0,-324.0,17.0,733.0,981.0,-1230.0,220.0,-1274.0,190.0
55.0,-306.0,4.0,735.0,1060.0,-1286.0,248.0,-1205.0,144.0
73.0,-301.0,-1.0,679.0,1103.0,-1360.0,260.0,-1157.0,140.0
70.0,-279.0,1.0,621.0,1126.0,-1428.0,287.0,-1086.0,112.0
75.0,-248.0,-16.0,582.0,1135.0,-1496.0,310.0,-976.0,81.0
78.0,-232.0,-24.0,526.0,1141.0,-1551.0,309.0,-912.0,42.0
73.0,-226.0,-22.0,461.0,1139.0,-1596.0,287.0,-864.0,49.0
76.0,-213.0,-30.0,449.0,1142.0,-1636.0,298.0,-817.0,26.0
70.0,-201.0,-25.0,445.0,1144.0,-1691.0,287.0,-784.0,30.0
73.0,-195.0,-24.0,437.0,1143.0,-1752.0,283.0,-765.0,50.0
93.0,-199.0,-12.0,440.0,1164.0,-1825.0,340.0,-769.0,75.0
104.0,-214.0,8.0,450.0,1203.0,-1936.0,385.0,-801.0,156.0
107.0,-227.0,40.0,509.0,1248.0,-2072.0,397.0,-848.0,280.0
101.0,-241.0,73.0,633.0,1269.0,-2225.0,418.0,-908.0,400.0
107.0,-250.0,98.0,795.0,1260.0,-2380.0,440.0,-959.0,513.0
105.0,-262.0,113.0,958.0,1213.0,-2542.0,434.0,-986.0,586.0
111.0,-270.0,122.0,1096.0,1141.0,-2697.0,450.0,-1035.0,625.0
118.0,-277.0,126.0,1186.0,1058.0,-2852.0,465.0,-1070.0,626.0
126.0,-286.0,124.0,1244.0,993.0,-2994.0,500.0,-1099.0,615.0
109.0,-288.0,115.0,1278.0,923.0,-3119.0,442.0,-1105.0,584.0
103.0,-295.0,94.0,1312.0,823.0,-3210.0,436.0,-1150.0,527.0
52.0,-277.0,87.0,1309.0,675.0,-3274.0,271.0,-1092.0,490.0
54.0,-280.0,79.0,1243.0,481.0,-3265.0,269.0,-1115.0,436.0
35.0,-294.0,76.0,1116.0,307.0,-3222.0,167.0,-1146.0,432.0
14.0,-308.0,85.0,990.0,185.0,-3154.0,86.0,-1197.0,453.0
-6.0,-337.0,104.0,902.0,122.0,-3053.0,17.0,-1309.0,542.0
9.0,-383.0,127.0,897.0,120.0,-2904.0,-27.0,-1431.0,636.0
48.0,-452.0,135.0,994.0,174.0,-2758.0,169.0,-1752.0,666.0
91.0,-518.0,138.0,1172.0,306.0,-2649.0,329.0,-2006.0,685.0
146.0,-607.0,153.0,1447.0,564.0,-2539.0,503.0,-2321.0,741.0
206.0,-687.0,195.0,1823.0,1013.0,-2467.0,702.0,-2622.0,920.0
380.0,-799.0,253.0,2358.0,1656.0,-2412.0,1389.0,-3021.0,1141.0
745.0,-906.0,242.0,3083.0,2323.0,-2531.0,2878.0,-3419.0,1121.0
1057.0,-891.0,222.0,3840.0,2966.0,-3025.0,4037.0,-3354.0,989.0
1098.0,-788.0,270.0,4430.0,3438.0,-3542.0,4307.0,-3056.0,1193.0
1198.0,-718.0,417.0,4813.0,3573.0,-3487.0,4835.0,-2802.0,1718.0
1359.0,-657.0,464.0,5014.0,2831.0,-3307.0,5691.0,-2578.0,1911.0
1244.0,-518.0,341.0,5060.0,735.0,-3153.0,5181.0,-2143.0,1452.0
1283.0,-400.0,206.0,4633.0,-1515.0,-2766.0,5116.0,-1720.0,963.0
1278.0,-198.0,140.0,3665.0,-2988.0,-2560.0,4968.0,-975.0,681.0
1117.0,-55.0,134.0,2439.0,-3618.0,-2552.0,4326.0,-330.0,653.0
821.0,-49.0,113.0,1390.0,-3694.0,-2655.0,3169.0,-258.0,599.0
613.0,-103.0,108.0,683.0,-3535.0,-2726.0,2389.0,-436.0,561.0
389.0,-134.0,93.0,249.0,-3471.0,-2806.0,1572.0,-584.0,521.0
225.0,-124.0,80.0,-88.0,-3509.0,-2819.0,903.0,-565.0,454.0
97.0,-107.0,82.0,-409.0,-3565.0,-2804.0,404.0,-467.0,487.0
52.0,-95.0,74.0,-654.0,-3551.0,-2828.0,171.0,-394.0,442.0
25.0,-113.0,66.0,-783.0,-3401.0,-2907.0,53.0,-408.0,384.0
7.0,-138.0,39.0,-727.0,-3125.0,-2971.0,-31.0,-492.0,313.0
-6.0,-151.0,24.0,-557.0,-2795.0,-2953.0,-69.0,-576.0,251.0
1.0,-177.0,24.0,-395.0,-2446.0,-2823.0,-23.0,-647.0,253.0
47.0,-195.0,50.0,-277.0,-2125.0,-2664.0,165.0,-741.0,327.0
91.0,-205.0,72.0,-140.0,-1833.0,-2576.0,317.0,-764.0,422.0
118.0,-210.0,108.0,98.0,-1521.0,-2592.0,435.0,-780.0,599.0
116.0,-197.0,106.0,465.0,-1210.0,-2715.0,458.0,-736.0,598.0
101.0,-191.0,85.0,836.0,-937.0,-2866.0,390.0,-697.0,497.0
110.0,-137.0,83.0,1122.0,-704.0,-2995.0,407.0,-527.0,487.0
66.0,-72.0,69.0,1322.0,-500.0,-3164.0,282.0,-318.0,412.0
24.0,-22.0,72.0,1387.0,-337.0,-3266.0,112.0,-98.0,412.0
19.0,22.0,59.0,1388.0,-235.0,-3279.0,61.0,80.0,362.0
20.0,64.0,47.0,1338.0,-173.0,-3272.0,84.0,248.0,328.0
21.0,103.0,51.0,1272.0,-102.0,-3275.0,73.0,415.0,349.0
15.0,131.0,57.0,1216.0,-36.0,-3277.0,59.0,536.0,385.0
12.0,152.0,55.0,1208.0,-7.0,-3301.0,52.0,608.0,357.0
28.0,169.0,39.0,1221.0,-39.0,-3315.0,140.0,664.0,301.0
59.0,182.0,13.0,1237.0,-110.0,-3349.0,269.0,702.0,185.0
105.0,174.0,-14.0,1216.0,-174.0,-3386.0,412.0,676.0,96.0
131.0,165.0,-22.0,1161.0,-178.0,-3450.0,501.0,624.0,50.0
165.0,151.0,-22.0,1103.0,-99.0,-3515.0,623.0,586.0,54.0
196.0,152.0,-10.0,1066.0,50.0,-3572.0,732.0,586.0,103.0
229.0,150.0,-3.0,1059.0,234.0,-3622.0,859.0,599.0,130.0
242.0,164.0,-4.0,1058.0,411.0,-3669.0,934.0,626.0,120.0
281.0,166.0,0.0,1042.0,563.0,-3690.0,1070.0,646.0,142.0
297.0,198.0,0.0,1013.0,712.0,-3695.0,1122.0,750.0,137.0
308.0,223.0,15.0,916.0,845.0,-3635.0,1179.0,850.0,213.0
310.0,262.0,38.0,777.0,932.0,-3489.0,1207.0,984.0,291.0
318.0,291.0,71.0,613.0,962.0,-3193.0,1251.0,1123.0,412.0
389.0,310.0,91.0,466.0,925.0,-2737.0,1519.0,1205.0,504.0
474.0,333.0,96.0,376.0,846.0,-2241.0,1842.0,1290.0,528.0
499.0,355.0,101.0,392.0,760.0,-1770.0,1950.0,1395.0,549.0
500.0,368.0,91.0,520.0,631.0,-1277.0,1960.0,1456.0,499.0
487.0,363.0,65.0,678.0,423.0,-801.0,1925.0,1431.0,402.0
446.0,332.0,39.0,806.0,128.0,-437.0,1784.0,1309.0,298.0
412.0,271.0,9.0,916.0,-173.0,-122.0,1633.0,1098.0,170.0
388.0,203.0,-42.0,1040.0,-412.0,127.0,1519.0,826.0,-8.0
330.0,147.0,-92.0,1141.0,-540.0,269.0,1256.0,596.0,-184.0
248.0,124.0,-94.0,1149.0,-590.0,375.0,983.0,469.0,-250.0
155.0,107.0,-86.0,1031.0,-643.0,434.0,670.0,391.0,-217.0
107.0,103.0,-57.0,787.0,-750.0,486.0,429.0,368.0,-102.0
66.0,99.0,-5.0,496.0,-918.0,483.0,272.0,354.0,140.0
30.0,92.0,37.0,249.0,-1080.0,416.0,159.0,363.0,291.0
16.0,99.0,74.0,93.0,-1127.0,309.0,58.0,386.0,437.0
15.0,101.0,86.0,39.0,-995.0,189.0,22.0,411.0,496.0
-1.0,126.0,83.0,67.0,-712.0,60.0,-40.0,490.0,495.0
-12.0,109.0,94.0,116.0,-343.0,-47.0,-62.0,516.0,495.0
18.0,146.0,90.0,158.0,65.0,-67.0,34.0,572.0,498.0
17.0,127.0,98.0,230.0,441.0,-139.0,54.0,498.0,560.0
0.0,109.0,113.0,346.0,683.0,-174.0,-4.0,451.0,573.0
5.0,105.0,84.0,512.0,753.0,-173.0,30.0,426.0,477.0
28.0,106.0,50.0,667.0,712.0,-155.0,130.0,425.0,333.0
56.0,115.0,21.0,767.0,634.0,-130.0,243.0,445.0,209.0
89.0,126.0,-3.0,801.0,552.0,-86.0,354.0,490.0,119.0
109.0,140.0,-14.0,779.0,470.0,-28.0,433.0,542.0,89.0
123.0,161.0,-5.0,728.0,367.0,39.0,497.0,619.0,110.0
145.0,175.0,-1.0,668.0,224.0,108.0,580.0,674.0,137.0
174.0,180.0,5.0,600.0,53.0,163.0,693.0,697.0,150.0
195.0,180.0,0.0,550.0,-109.0,181.0,769.0,702.0,120.0
225.0,169.0,-19.0,536.0,-233.0,184.0,863.0,664.0,58.0
241.0,176.0,-44.0,545.0,-295.0,176.0,915.0,652.0,-24.0
245.0,170.0,-59.0,538.0,-291.0,159.0,936.0,658.0,-88.0
253.0,171.0,-59.0,504.0,-232.0,137.0,960.0,660.0,-103.0
259.0,178.0,-61.0,459.0,-139.0,107.0,980.0,688.0,-97.0
262.0,186.0,-57.0,405.0,-31.0,57.0,990.0,714.0,-86.0
256.0,195.0,-52.0,354.0,71.0,-11.0,971.0,747.0,-63.0
249.0,205.0,-48.0,305.0,164.0,-78.0,943.0,796.0,-44.0
240.0,217.0,-43.0,255.0,239.0,-140.0,920.0,844.0,-17.0
229.0,220.0,-33.0,206.0,280.0,-181.0,892.0,870.0,10.0
228.0,224.0,-23.0,161.0,286.0,-198.0,874.0,866.0,45.0
225.0,216.0,-9.0,120.0,263.0,-192.0,869.0,842.0,92.0
229.0,197.0,1.0,89.0,216.0,-166.0,883.0,774.0,132.0
235.0,175.0,11.0,68.0,161.0,-127.0,909.0,697.0,175.0
236.0,160.0,16.0,64.0,112.0,-82.0,917.0,631.0,214.0
231.0,155.0,26.0,70.0,79.0,-31.0,901.0,602.0,242.0
236.0,150.0,37.0,90.0,44.0,31.0,903.0,599.0,283.0
244.0,154.0,45.0,126.0,-17.0,88.0,954.0,596.0,319.0
250.0,156.0,41.0,180.0,-90.0,127.0,986.0,620.0,300.0
260.0,162.0,34.0,234.0,-153.0,149.0,1004.0,640.0,264.0
265.0,167.0,24.0,276.0,-186.0,162.0,1029.0,659.0,233.0
264.0,172.0,19.0,301.0,-190.0,173.0,1014.0,672.0,213.0
261.0,182.0,20.0,313.0,-171.0,184.0,1006.0,701.0,216.0
259.0,183.0,16.0,324.0,-145.0,200.0,993.0,711.0,214.0
250.0,182.0,18.0,342.0,-120.0,227.0,980.0,710.0,208.0
246.0,180.0,12.0,376.0,-103.0,265.0,956.0,713.0,184.0
244.0,182.0,8.0,422.0,-98.0,315.0,960.0,708.0,171.0
247.0,178.0,10.0,472.0,-105.0,370.0,957.0,701.0,173.0
246.0,170.0,11.0,524.0,-120.0,433.0,964.0,667.0,176.0
244.0,160.0,10.0,582.0,-130.0,499.0,946.0,633.0,176.0
239.0,153.0,8.0,629.0,-135.0,560.0,928.0,604.0,169.0
234.0,140.0,14.0,663.0,-129.0,618.0,904.0,563.0,187.0
220.0,140.0,24.0,695.0,-119.0,672.0,847.0,550.0,219.0
212.0,142.0,28.0,721.0,-111.0,731.0,806.0,551.0,238.0
206.0,137.0,38.0,724.0,-123.0,777.0,789.0,536.0,263.0
190.0,137.0,43.0,715.0,-144.0,813.0,753.0,531.0,297.0
195.0,133.0,49.0,702.0,-179.0,845.0,740.0,507.0,321.0
183.0,135.0,51.0,693.0,-208.0,867.0,705.0,528.0,332.0
188.0,131.0,51.0,677.0,-234.0,885.0,725.0,511.0,342.0
195.0,132.0,46.0,666.0,-256.0,888.0,723.0,517.0,321.0
192.0,129.0,36.0,649.0,-265.0,882.0,738.0,503.0,297.0
200.0,126.0,39.0,633.0,-265.0,867.0,755.0,490.0,299.0
195.0,126.0,43.0,626.0,-253.0,854.0,761.0,472.0,289.0
183.0,136.0,37.0,608.0,-247.0,848.0,700.0,524.0,290.0
206.0,121.0,17.0,565.0,-263.0,855.0,768.0,492.0,254.0
204.0,118.0,20.0,500.0,-246.0,829.0,784.0,449.0,232.0
195.0,109.0,21.0,422.0,-223.0,796.0,745.0,431.0,231.0
185.0,108.0,28.0,344.0,-226.0,779.0,729.0,419.0,228.0
173.0,117.0,24.0,275.0,-251.0,773.0,695.0,443.0,223.0
177.0,116.0,21.0,192.0,-284.0,802.0,672.0,439.0,206.0
190.0,110.0,15.0,88.0,-306.0,835.0,740.0,407.0,197.0
165.0,115.0,16.0,-5.0,-303.0,828.0,643.0,444.0,212.0
176.0,112.0,17.0,-79.0,-285.0,832.0,671.0,424.0,214.0
178.0,111.0,17.0,-130.0,-265.0,838.0,692.0,424.0,198.0
180.0,113.0,9.0,-186.0,-245.0,836.0,696.0,430.0,176.0
190.0,105.0,10.0,-266.0,-217.0,857.0,735.0,401.0,183.0
200.0,91.0,17.0,-334.0,-184.0,876.0,752.0,375.0,182.0
217.0,82.0,19.0,-369.0,-141.0,903.0,830.0,321.0,194.0
209.0,78.0,9.0,-363.0,-107.0,935.0,819.0,323.0,187.0
225.0,73.0,17.0,-352.0,-104.0,986.0,863.0,296.0,185.0
246.0,65.0,15.0,-334.0,-137.0,1063.0,953.0,262.0,193.0
257.0,67.0,12.0,-300.0,-178.0,1136.0,991.0,266.0,164.0
259.0,66.0,5.0,-282.0,-221.0,1223.0,1042.0,245.0,176.0
263.0,70.0,-1.0,-278.0,-281.0,1308.0,1036.0,257.0,152.0
278.0,57.0,11.0,-305.0,-357.0,1401.0,1074.0,229.0,157.0
279.0,49.0,12.0,-335.0,-445.0,1483.0,1092.0,204.0,172.0
284.0,46.0,11.0,-370.0,-539.0,1546.0,1111.0,170.0,166.0
285.0,43.0,7.0,-416.0,-637.0,1573.0,1094.0,160.0,149.0
284.0,29.0,3.0,-472.0,-714.0,1598.0,1101.0,118.0,136.0
275.0,19.0,3.0,-520.0,-772.0,1585.0,1075.0,93.0,136.0
271.0,12.0,-2.0,-557.0,-807.0,1547.0,1044.0,60.0,131.0
259.0,9.0,-3.0,-577.0,-828.0,1500.0,1009.0,51.0,120.0
263.0,-4.0,3.0,-584.0,-846.0,1445.0,1012.0,11.0,130.0
247.0,-3.0,-12.0,-555.0,-846.0,1366.0,966.0,-3.0,121.0
247.0,-12.0,-17.0,-532.0,-839.0,1304.0,952.0,-4.0,65.0
248.0,-13.0,-19.0,-524.0,-828.0,1249.0,959.0,-34.0,66.0
249.0,-23.0,-18.0,-494.0,-813.0,1188.0,961.0,-65.0,67.0
250.0,-30.0,-20.0,-444.0,-799.0,1133.0,958.0,-80.0,46.0
255.0,-41.0,-23.0,-388.0,-787.0,1084.0,989.0,-116.0,55.0
265.0,-36.0,-30.0,-322.0,-780.0,1025.0,1010.0,-124.0,21.0
271.0,-43.0,-28.0,-267.0,-778.0,973.0,1052.0,-153.0,22.0
278.0,-47.0,-26.0,-225.0,-782.0,929.0,1078.0,-159.0,24.0
288.0,-53.0,-24.0,-192.0,-787.0,894.0,1098.0,-177.0,33.0
299.0,-56.0,-24.0,-163.0,-799.0,870.0,1142.0,-197.0,32.0
303.0,-58.0,-20.0,-156.0,-796.0,852.0,1176.0,-213.0,48.0
309.0,-60.0,-16.0,-162.0,-789.0,839.0,1184.0,-225.0,58.0
316.0,-64.0,-23.0,-179.0,-791.0,828.0,1221.0,-238.0,59.0
320.0,-68.0,-22.0,-204.0,-788.0,810.0,1238.0,-249.0,49.0
318.0,-65.0,-23.0,-245.0,-779.0,783.0,1233.0,-249.0,37.0
324.0,-64.0,-31.0,-297.0,-775.0,757.0,1242.0,-247.0,1.0
324.0,-60.0,-34.0,-371.0,-773.0,720.0,1241.0,-231.0,-2.0
324.0,-57.0,-35.0,-449.0,-765.0,673.0,1240.0,-224.0,-11.0
317.0,-51.0,-38.0,-522.0,-755.0,617.0,1229.0,-200.0,-12.0
313.0,-43.0,-37.0,-602.0,-751.0,548.0,1211.0,-168.0,-26.0
312.0,-36.0,-45.0,-693.0,-752.0,472.0,1200.0,-129.0,-33.0
304.0,-28.0,-44.0,-786.0,-752.0,393.0,1176.0,-104.0,-40.0
304.0,-28.0,-47.0,-871.0,-748.0,327.0,1161.0,-84.0,-25.0
302.0,-30.0,-37.0,-920.0,-734.0,272.0,1159.0,-92.0,-2.0
300.0,-30.0,-31.0,-926.0,-718.0,220.0,1155.0,-93.0,13.0
297.0,-26.0,-35.0,-905.0,-705.0,173.0,1131.0,-85.0,2.0
290.0,-27.0,-28.0,-877.0,-688.0,140.0,1121.0,-83.0,15.0
293.0,-32.0,-28.0,-828.0,-663.0,121.0,1130.0,-102.0,34.0
290.0,-40.0,-25.0,-743.0,-624.0,112.0,1118.0,-126.0,36.0
282.0,-49.0,-25.0,-632.0,-576.0,120.0,1086.0,-156.0,37.0
285.0,-55.0,-25.0,-505.0,-528.0,149.0,1095.0,-183.0,32.0
283.0,-56.0,-33.0,-368.0,-483.0,182.0,1086.0,-196.0,17.0
282.0,-60.0,-35.0,-228.0,-450.0,215.0,1082.0,-206.0,-3.0
282.0,-61.0,-48.0,-89.0,-430.0,251.0,1088.0,-211.0,-39.0
285.0,-63.0,-57.0,30.0,-413.0,284.0,1102.0,-212.0,-83.0
290.0,-61.0,-63.0,126.0,-394.0,310.0,1111.0,-218.0,-120.0
291.0,-57.0,-76.0,205.0,-368.0,324.0,1126.0,-211.0,-171.0
301.0,-50.0,-84.0,259.0,-329.0,327.0,1146.0,-177.0,-197.0
298.0,-42.0,-89.0,283.0,-279.0,314.0,1124.0,-150.0,-220.0
293.0,-44.0,-84.0,294.0,-231.0,296.0,1121.0,-138.0,-203.0
297.0,-34.0,-90.0,299.0,-189.0,268.0,1122.0,-114.0,-216.0
291.0,-32.0,-91.0,290.0,-145.0,232.0,1113.0,-103.0,-225.0
290.0,-27.0,-88.0,264.0,-98.0,192.0,1111.0,-95.0,-226.0
292.0,-31.0,-82.0,225.0,-55.0,148.0,1120.0,-100.0,-197.0
292.0,-32.0,-86.0,197.0,-13.0,85.0,1113.0,-92.0,-189.0
289.0,-27.0,-76.0,168.0,31.0,39.0,1113.0,-94.0,-172.0
289.0,-23.0,-77.0,146.0,72.0,-26.0,1099.0,-69.0,-171.0
287.0,-23.0,-73.0,115.0,109.0,-75.0,1091.0,-69.0,-157.0
283.0,-17.0,-68.0,95.0,137.0,-121.0,1090.0,-64.0,-134.0
276.0,-15.0,-63.0,82.0,164.0,-162.0,1073.0,-52.0,-118.0
275.0,-16.0,-58.0,68.0,187.0,-199.0,1061.0,-41.0,-108.0
268.0,-6.0,-61.0,55.0,203.0,-230.0,1037.0,-18.0,-113.0
267.0,-5.0,-49.0,29.0,216.0,-253.0,1035.0,-21.0,-82.0
264.0,-5.0,-52.0,8.0,223.0,-277.0,1011.0,-6.0,-65.0
256.0,-1.0,-44.0,-2.0,233.0,-292.0,992.0,3.0,-45.0
254.0,-1.0,-40.0,-5.0,241.0,-303.0,985.0,13.0,-29.0
250.0,3.0,-40.0,-4.0,247.0,-309.0,970.0,20.0,-24.0
251.0,4.0,-42.0,3.0,251.0,-313.0,964.0,25.0,-19.0
250.0,3.0,-33.0,15.0,251.0,-313.0,958.0,30.0,-13.0
247.0,8.0,-38.0,21.0,243.0,-313.0,965.0,39.0,-16.0
250.0,10.0,-40.0,21.0,232.0,-317.0,972.0,42.0,-18.0
259.0,8.0,-43.0,21.0,216.0,-321.0,987.0,49.0,-19.0
256.0,11.0,-43.0,22.0,205.0,-328.0,980.0,59.0,-37.0
251.0,14.0,-45.0,15.0,195.0,-337.0,977.0,67.0,-44.0
257.0,16.0,-45.0,11.0,177.0,-333.0,996.0,73.0,-43.0
261.0,19.0,-47.0,10.0,157.0,-333.0,1008.0,76.0,-54.0
269.0,17.0,-55.0,4.0,149.0,-332.0,1049.0,81.0,-66.0
269.0,16.0,-52.0,-11.0,156.0,-338.0,1048.0,68.0,-83.0
263.0,15.0,-53.0,-35.0,174.0,-338.0,1020.0,72.0,-71.0
263.0,12.0,-47.0,-61.0,186.0,-334.0,1016.0,58.0,-67.0
273.0,11.0,-51.0,-79.0,196.0,-324.0,1039.0,65.0,-66.0
276.0,12.0,-50.0,-102.0,207.0,-317.0,1062.0,56.0,-83.0
268.0,14.0,-54.0,-126.0,227.0,-314.0,1038.0,65.0,-75.0
274.0,11.0,-48.0,-142.0,245.0,-289.0,1047.0,54.0,-62.0
264.0,5.0,-36.0,-132.0,255.0,-260.0,1000.0,40.0,-14.0
265.0,4.0,-35.0,-86.0,248.0,-242.0,1023.0,29.0,0.0
279.0,-3.0,-38.0,-30.0,234.0,-239.0,1068.0,11.0,-25.0
271.0,15.0,-47.0,-4.0,234.0,-237.0,1052.0,70.0,-52.0
283.0,15.0,-36.0,-18.0,231.0,-205.0,1076.0,70.0,-10.0
282.0,16.0,-40.0,-18.0,228.0,-188.0,1087.0,73.0,-15.0
283.0,18.0,-44.0,-10.0,235.0,-176.0,1098.0,71.0,-20.0
287.0,10.0,-44.0,-1.0,252.0,-171.0,1099.0,68.0,-38.0
287.0,14.0,-52.0,10.0,271.0,-174.0,1092.0,72.0,-54.0
275.0,19.0,-47.0,8.0,297.0,-174.0,1061.0,78.0,-51.0
271.0,22.0,-45.0,9.0,315.0,-151.0,1047.0,91.0,-43.0
274.0,22.0,-43.0,17.0,324.0,-129.0,1061.0,106.0,-39.0
273.0,23.0,-42.0,36.0,331.0,-119.0,1063.0,92.0,-29.0
274.0,26.0,-43.0,52.0,342.0,-116.0,1050.0,111.0,-49.0
271.0,31.0,-49.0,47.0,355.0,-112.0,1045.0,125.0,-53.0
270.0,30.0,-44.0,33.0,373.0,-108.0,1043.0,130.0,-42.0
271.0,35.0,-46.0,17.0,396.0,-101.0,1040.0,133.0,-47.0
273.0,34.0,-43.0,7.0,415.0,-99.0,1042.0,135.0,-35.0
268.0,36.0,-48.0,-6.0,432.0,-100.0,1037.0,146.0,-36.0
267.0,41.0,-46.0,-23.0,453.0,-97.0,1040.0,153.0,-46.0
269.0,39.0,-41.0,-52.0,477.0,-93.0,1031.0,145.0,-29.0
270.0,35.0,-37.0,-73.0,497.0,-85.0,1036.0,142.0,-18.0
273.0,32.0,-41.0,-85.0,510.0,-83.0,1052.0,131.0,-24.0
271.0,32.0,-39.0,-108.0,526.0,-79.0,1048.0,128.0,-17.0
273.0,27.0,-37.0,-131.0,537.0,-70.0,1055.0,110.0,-16.0
264.0,29.0,-31.0,-142.0,541.0,-66.0,1016.0,120.0,14.0
274.0,25.0,-28.0,-141.0,542.0,-52.0,1041.0,110.0,22.0
272.0,25.0,-30.0,-143.0,543.0,-44.0,1046.0,98.0,16.0
270.0,32.0,-28.0,-151.0,545.0,-37.0,1048.0,93.0,27.0
274.0,19.0,-25.0,-161.0,547.0,-33.0,1058.0,90.0,25.0
276.0,14.0,-24.0,-177.0,547.0,-27.0,1060.0,75.0,30.0
277.0,15.0,-23.0,-189.0,544.0,-27.0,1063.0,76.0,37.0
277.0,16.0,-28.0,-199.0,539.0,-25.0,1065.0,78.0,33.0
277.0,16.0,-23.0,-214.0,537.0,-21.0,1068.0,76.0,46.0
276.0,20.0,-24.0,-223.0,528.0,-21.0,1067.0,81.0,43.0
276.0,20.0,-26.0,-234.0,518.0,-19.0,1070.0,82.0,40.0
273.0,16.0,-24.0,-249.0,506.0,-20.0,1059.0,84.0,43.0
280.0,17.0,-22.0,-266.0,492.0,-18.0,1063.0,81.0,46.0
272.0,22.0,-22.0,-280.0,479.0,-18.0,1055.0,80.0,47.0
272.0,17.0,-23.0,-299.0,463.0,-17.0,1051.0,76.0,49.0
268.0,16.0,-19.0,-313.0,449.0,-16.0,1044.0,75.0,51.0
266.0,16.0,-18.0,-325.0,440.0,-17.0,1039.0,71.0,61.0
265.0,12.0,-12.0,-329.0,432.0,-17.0,1034.0,63.0,67.0
266.0,14.0,-17.0,-329.0,430.0,-16.0,1020.0,63.0,76.0
265.0,13.0,-13.0,-326.0,435.0,-17.0,1019.0,49.0,76.0
264.0,10.0,-12.0,-326.0,441.0,-19.0,1011.0,46.0,78.0
262.0,9.0,-9.0,-326.0,448.0,-23.0,1009.0,44.0,85.0
263.0,8.0,-6.0,-321.0,458.0,-28.0,1011.0,37.0,99.0
259.0,8.0,-5.0,-314.0,467.0,-36.0,1005.0,37.0,105.0
251.0,9.0,-2.0,-305.0,472.0,-43.0,998.0,37.0,113.0
259.0,8.0,1.0,-294.0,480.0,-52.0,1001.0,30.0,114.0
258.0,8.0,-3.0,-282.0,486.0,-62.0,993.0,32.0,125.0
254.0,8.0,2.0,-263.0,489.0,-70.0,993.0,27.0,131.0
258.0,5.0,3.0,-246.0,494.0,-81.0,990.0,33.0,141.0
257.0,6.0,5.0,-228.0,498.0,-89.0,995.0,30.0,151.0
256.0,8.0,6.0,-209.0,505.0,-98.0,987.0,34.0,154.0
256.0,9.0,8.0,-194.0,510.0,-103.0,985.0,39.0,158.0
257.0,8.0,8.0,-183.0,515.0,-104.0,987.0,39.0,168.0
256.0,8.0,11.0,-171.0,517.0,-110.0,990.0,38.0,174.0
254.0,9.0,10.0,-158.0,519.0,-110.0,988.0,40.0,170.0
252.0,12.0,17.0,-149.0,519.0,-106.0,987.0,52.0,174.0
252.0,12.0,15.0,-148.0,516.0,-103.0,982.0,56.0,182.0
254.0,15.0,9.0,-147.0,509.0,-98.0,977.0,59.0,181.0
252.0,15.0,15.0,-151.0,497.0,-93.0,980.0,64.0,177.0
251.0,14.0,13.0,-153.0,482.0,-85.0,977.0,71.0,180.0
254.0,16.0,11.0,-156.0,463.0,-81.0,974.0,68.0,189.0
250.0,18.0,10.0,-158.0,442.0,-73.0,977.0,67.0,185.0
250.0,15.0,12.0,-158.0,419.0,-64.0,977.0,70.0,183.0
251.0,15.0,15.0,-157.0,397.0,-57.0,977.0,67.0,189.0
250.0,18.0,14.0,-151.0,378.0,-49.0,967.0,67.0,191.0
250.0,12.0,19.0,-144.0,360.0,-40.0,965.0,62.0,195.0
247.0,19.0,19.0,-136.0,345.0,-33.0,965.0,65.0,195.0
253.0,12.0,17.0,-125.0,334.0,-30.0,971.0,63.0,202.0
258.0,11.0,17.0,-114.0,326.0,-28.0,979.0,64.0,202.0
259.0,12.0,18.0,-102.0,320.0,-26.0,988.0,59.0,203.0
240.0,15.0,28.0,-96.0,315.0,-29.0,936.0,72.0,221.0
249.0,15.0,21.0,-84.0,302.0,-34.0,962.0,70.0,220.0
249.0,17.0,20.0,-77.0,282.0,-44.0,970.0,69.0,215.0
250.0,15.0,23.0,-79.0,263.0,-53.0,971.0,68.0,215.0
251.0,14.0,26.0,-83.0,249.0,-59.0,979.0,67.0,219.0
256.0,13.0,24.0,-86.0,234.0,-65.0,981.0,62.0,225.0
256.0,16.0,20.0,-91.0,219.0,-68.0,987.0,60.0,226.0
260.0,13.0,26.0,-95.0,204.0,-70.0,992.0,61.0,235.0
258.0,11.0,27.0,-102.0,191.0,-71.0,996.0,56.0,236.0
260.0,18.0,32.0,-107.0,179.0,-72.0,998.0,54.0,237.0
260.0,18.0,28.0,-114.0,172.0,-72.0,1005.0,54.0,238.0
258.0,8.0,22.0,-117.0,166.0,-71.0,1009.0,57.0,245.0
258.0,10.0,23.0,-120.0,161.0,-69.0,1009.0,48.0,247.0
263.0,13.0,28.0,-126.0,156.0,-66.0,1010.0,53.0,248.0
266.0,13.0,31.0,-130.0,151.0,-62.0,1010.0,56.0,250.0
257.0,11.0,31.0,-132.0,143.0,-59.0,1010.0,57.0,250.0
259.0,15.0,32.0,-136.0,133.0,-53.0,1017.0,56.0,251.0
261.0,10.0,39.0,-140.0,125.0,-48.0,1013.0,50.0,246.0
261.0,11.0,32.0,-143.0,114.0,-43.0,1007.0,54.0,245.0
261.0,12.0,34.0,-146.0,105.0,-38.0,1008.0,49.0,245.0
259.0,11.0,31.0,-149.0,96.0,-33.0,1011.0,44.0,244.0
260.0,11.0,31.0,-150.0,88.0,-27.0,1011.0,44.0,243.0
254.0,8.0,25.0,-150.0,83.0,-23.0,1007.0,44.0,242.0
256.0,11.0,28.0,-146.0,79.0,-17.0,1003.0,39.0,242.0
279.0,11.0,17.0,-139.0,77.0,-12.0,1054.0,15.0,230.0
249.0,15.0,33.0,-132.0,74.0,-8.0,981.0,37.0,223.0
246.0,17.0,34.0,-124.0,68.0,-1.0,963.0,39.0,234.0
253.0,16.0,27.0,-111.0,59.0,3.0,989.0,41.0,228.0
255.0,5.0,19.0,-98.0,55.0,5.0,990.0,37.0,220.0
260.0,0.0,22.0,-86.0,57.0,5.0,985.0,44.0,219.0
259.0,0.0,22.0,-70.0,59.0,5.0,987.0,37.0,222.0
262.0,16.0,11.0,-53.0,63.0,4.0,983.0,45.0,224.0
255.0,23.0,26.0,-33.0,66.0,3.0,984.0,51.0,219.0
258.0,11.0,21.0,-14.0,67.0,1.0,986.0,50.0,218.0
257.0,11.0,22.0,2.0,70.0,1.0,985.0,58.0,213.0
256.0,10.0,23.0,16.0,73.0,-2.0,987.0,60.0,212.0
258.0,13.0,21.0,30.0,72.0,-3.0,990.0,63.0,218.0
255.0,15.0,22.0,46.0,69.0,-5.0,985.0,66.0,214.0
256.0,18.0,21.0,54.0,67.0,-7.0,987.0,67.0,216.0
251.0,12.0,20.0,57.0,63.0,-9.0,989.0,70.0,214.0
253.0,12.0,27.0,59.0,56.0,-10.0,986.0,76.0,218.0
253.0,14.0,27.0,57.0,51.0,-10.0,994.0,73.0,212.0
252.0,16.0,23.0,55.0,47.0,-11.0,985.0,79.0,214.0
257.0,25.0,28.0,52.0,41.0,-10.0,990.0,77.0,216.0
262.0,16.0,29.0,45.0,36.0,-11.0,986.0,77.0,213.0
259.0,27.0,22.0,38.0,31.0,-9.0,989.0,85.0,209.0
253.0,15.0,21.0,28.0,27.0,-8.0,989.0,88.0,212.0
259.0,14.0,17.0,20.0,20.0,-5.0,992.0,84.0,212.0
256.0,18.0,19.0,16.0,12.0,-3.0,995.0,83.0,208.0
257.0,20.0,21.0,15.0,4.0,-1.0,997.0,82.0,210.0
260.0,15.0,15.0,15.0,-6.0,0.0,999.0,80.0,207.0
260.0,20.0,19.0,14.0,-14.0,3.0,1000.0,77.0,207.0
258.0,23.0,19.0,11.0,-22.0,4.0,998.0,79.0,208.0
265.0,21.0,22.0,8.0,-30.0,6.0,999.0,69.0,211.0
259.0,13.0,21.0,6.0,-36.0,6.0,998.0,71.0,213.0
259.0,18.0,20.0,9.0,-40.0,7.0,1005.0,69.0,212.0
260.0,13.0,18.0,15.0,-39.0,6.0,1001.0,66.0,209.0
262.0,12.0,16.0,22.0,-42.0,2.0,996.0,65.0,212.0
261.0,16.0,20.0,28.0,-40.0,0.0,1003.0,64.0,210.0
261.0,18.0,13.0,32.0,-42.0,-5.0,1005.0,66.0,201.0
264.0,17.0,18.0,36.0,-41.0,-7.0,1004.0,72.0,198.0
267.0,12.0,14.0,38.0,-42.0,-5.0,1023.0,68.0,193.0
254.0,21.0,23.0,36.0,-41.0,-7.0,988.0,75.0,193.0
262.0,18.0,17.0,32.0,-42.0,-9.0,1003.0,71.0,193.0
264.0,20.0,15.0,26.0,-46.0,-12.0,1003.0,75.0,191.0
263.0,18.0,12.0,13.0,-50.0,-10.0,1005.0,78.0,192.0
264.0,18.0,15.0,4.0,-56.0,-9.0,1007.0,76.0,188.0
261.0,16.0,16.0,-3.0,-57.0,-6.0,1010.0,70.0,192.0
264.0,15.0,16.0,-6.0,-59.0,-3.0,1013.0,71.0,187.0
266.0,15.0,8.0,-8.0,-62.0,1.0,1015.0,72.0,190.0
265.0,23.0,16.0,-7.0,-64.0,6.0,1014.0,65.0,192.0
264.0,11.0,14.0,-3.0,-64.0,10.0,1019.0,60.0,189.0
272.0,17.0,22.0,3.0,-63.0,13.0,1014.0,60.0,190.0
271.0,11.0,21.0,9.0,-62.0,17.0,1014.0,53.0,194.0
266.0,16.0,27.0,16.0,-59.0,19.0,1015.0,55.0,195.0
266.0,14.0,16.0,25.0,-54.0,20.0,1015.0,57.0,188.0
260.0,11.0,11.0,32.0,-49.0,19.0,1025.0,53.0,193.0
267.0,12.0,15.0,33.0,-44.0,19.0,1023.0,60.0,185.0
261.0,13.0,14.0,33.0,-38.0,16.0,1012.0,62.0,182.0
266.0,14.0,13.0,29.0,-35.0,14.0,1023.0,61.0,182.0
264.0,16.0,9.0,29.0,-32.0,13.0,1022.0,68.0,183.0
265.0,15.0,10.0,30.0,-28.0,11.0,1018.0,74.0,176.0
264.0,19.0,9.0,30.0,-28.0,10.0,1018.0,76.0,172.0
270.0,18.0,9.0,32.0,-24.0,10.0,1016.0,81.0,175.0
247.0,13.0,27.0,31.0,-24.0,11.0,1019.0,80.0,178.0
271.0,24.0,5.0,32.0,-20.0,13.0,1013.0,86.0,179.0
274.0,13.0,22.0,32.0,-18.0,13.0,1016.0,84.0,176.0
257.0,21.0,6.0,31.0,-15.0,16.0,1025.0,83.0,174.0
255.0,24.0,14.0,32.0,-15.0,19.0,1020.0,84.0,176.0
284.0,30.0,8.0,28.0,-12.0,21.0,1029.0,89.0,179.0
264.0,24.0,29.0,26.0,-12.0,22.0,1026.0,84.0,181.0
260.0,25.0,14.0,21.0,-12.0,22.0,1029.0,85.0,179.0
253.0,17.0,14.0,17.0,-13.0,23.0,1026.0,83.0,175.0
276.0,38.0,-7.0,14.0,-14.0,23.0,1025.0,79.0,176.0
274.0,17.0,17.0,11.0,-15.0,24.0,1022.0,76.0,178.0
265.0,17.0,12.0,8.0,-17.0,23.0,1025.0,71.0,177.0
266.0,15.0,10.0,6.0,-18.0,23.0,1013.0,71.0,172.0
262.0,16.0,10.0,3.0,-19.0,21.0,1013.0,71.0,175.0
265.0,15.0,11.0,2.0,-21.0,20.0,1011.0,68.0,169.0
261.0,35.0,14.0,1.0,-20.0,18.0,1010.0,72.0,178.0
265.0,18.0,9.0,-3.0,-21.0,18.0,1008.0,74.0,178.0
264.0,14.0,11.0,-3.0,-19.0,16.0,1002.0,69.0,180.0
263.0,24.0,14.0,-3.0,-17.0,13.0,1000.0,65.0,175.0
263.0,19.0,11.0,-4.0,-14.0,9.0,1001.0,68.0,182.0
258.0,15.0,13.0,-4.0,-11.0,5.0,1001.0,66.0,180.0
260.0,14.0,13.0,-4.0,-9.0,0.0,998.0,66.0,182.0
258.0,16.0,11.0,-6.0,-6.0,-5.0,999.0,69.0,182.0
261.0,17.0,14.0,-6.0,-1.0,-9.0,1004.0,65.0,180.0
258.0,16.0,12.0,-9.0,4.0,-16.0,1003.0,74.0,180.0
261.0,19.0,11.0,-12.0,10.0,-22.0,1010.0,73.0,179.0
263.0,14.0,12.0,-12.0,15.0,-25.0,1004.0,73.0,180.0
260.0,18.0,13.0,-13.0,20.0,-27.0,1007.0,75.0,174.0
267.0,11.0,24.0,-13.0,21.0,-28.0,1014.0,71.0,177.0
263.0,16.0,9.0,-13.0,22.0,-28.0,1010.0,75.0,178.0
261.0,16.0,11.0,-12.0,25.0,-27.0,1010.0,72.0,177.0
263.0,15.0,11.0,-10.0,22.0,-24.0,1012.0,68.0,186.0
261.0,14.0,13.0,-7.0,20.0,-22.0,1008.0,69.0,187.0
261.0,19.0,30.0,-3.0,16.0,-18.0,1010.0,68.0,192.0
263.0,16.0,18.0,1.0,11.0,-14.0,1006.0,68.0,190.0
261.0,17.0,12.0,5.0,7.0,-10.0,1009.0,71.0,193.0
262.0,15.0,18.0,12.0,2.0,-7.0,1018.0,67.0,194.0
264.0,14.0,17.0,17.0,0.0,-6.0,1012.0,69.0,192.0
262.0,17.0,17.0,18.0,-1.0,-6.0,1015.0,75.0,185.0
262.0,19.0,13.0,19.0,0.0,-11.0,1013.0,75.0,190.0
263.0,20.0,14.0,15.0,0.0,-16.0,1015.0,78.0,182.0
260.0,19.0,14.0,11.0,2.0,-20.0,1007.0,77.0,180.0
261.0,22.0,11.0,3.0,1.0,-21.0,1011.0,84.0,183.0
274.0,15.0,10.0,-8.0,0.0,-19.0,1040.0,82.0,174.0
257.0,21.0,13.0,-15.0,3.0,-18.0,993.0,79.0,173.0
256.0,22.0,12.0,-28.0,6.0,-20.0,978.0,86.0,187.0
259.0,16.0,14.0,-33.0,1.0,-16.0,997.0,85.0,188.0
262.0,17.0,12.0,-35.0,-3.0,-16.0,998.0,80.0,185.0
259.0,17.0,14.0,-41.0,-3.0,-14.0,1001.0,79.0,185.0
259.0,17.0,14.0,-46.0,0.0,-13.0,1002.0,73.0,188.0
261.0,18.0,14.0,-51.0,1.0,-11.0,1011.0,73.0,186.0
261.0,15.0,16.0,-51.0,2.0,-8.0,1010.0,70.0,190.0
261.0,14.0,19.0,-50.0,3.0,-4.0,1016.0,65.0,188.0
262.0,14.0,16.0,-46.0,2.0,-2.0,1011.0,58.0,191.0
262.0,14.0,16.0,-38.0,1.0,3.0,1015.0,61.0,190.0
265.0,12.0,17.0,-30.0,0.0,8.0,1017.0,54.0,193.0
264.0,11.0,17.0,-18.0,0.0,12.0,1018.0,54.0,190.0
262.0,10.0,12.0,-10.0,0.0,16.0,1023.0,53.0,188.0
265.0,10.0,10.0,-2.0,-1.0,19.0,1018.0,52.0,187.0
264.0,11.0,15.0,5.0,-1.0,21.0,1022.0,52.0,186.0
263.0,9.0,14.0,13.0,0.0,20.0,1029.0,54.0,182.0
266.0,12.0,15.0,18.0,2.0,17.0,1029.0,61.0,181.0
266.0,14.0,10.0,19.0,4.0,16.0,1021.0,67.0,175.0
267.0,14.0,12.0,19.0,8.0,15.0,1028.0,70.0,177.0
263.0,17.0,10.0,13.0,11.0,13.0,1022.0,76.0,173.0
260.0,18.0,9.0,6.0,12.0,12.0,1015.0,77.0,171.0
