acc1_x,acc1_y,acc1_z,gyro_x,gyro_y,gyro_z,acc2_x,acc2_y,acc2_z
15.0,-243.0,28.0,-37.0,11.0,-33.0,69.0,-945.0,253.0
15.0,-244.0,31.0,-40.0,12.0,-33.0,64.0,-947.0,253.0
15.0,-244.0,32.0,-38.0,9.0,-33.0,65.0,-940.0,252.0
16.0,-245.0,31.0,-36.0,7.0,-34.0,67.0,-944.0,253.0
15.0,-243.0,32.0,-36.0,4.0,-30.0,70.0,-941.0,256.0
12.0,-248.0,42.0,-30.0,4.0,-29.0,66.0,-941.0,257.0
13.0,-243.0,30.0,-25.0,1.0,-25.0,66.0,-939.0,258.0
15.0,-243.0,31.0,-24.0,-1.0,-23.0,66.0,-935.0,265.0
17.0,-243.0,34.0,-20.0,-1.0,-20.0,72.0,-942.0,267.0
14.0,-242.0,32.0,-20.0,-2.0,-18.0,68.0,-940.0,265.0
14.0,-245.0,33.0,-19.0,-1.0,-18.0,69.0,-944.0,269.0
15.0,-242.0,36.0,-20.0,0.0,-16.0,65.0,-940.0,263.0
17.0,-243.0,31.0,-22.0,1.0,-14.0,65.0,-942.0,262.0
19.0,-247.0,37.0,-24.0,2.0,-13.0,73.0,-943.0,262.0
16.0,-244.0,33.0,-26.0,2.0,-15.0,73.0,-942.0,261.0
18.0,-244.0,34.0,-29.0,4.0,-14.0,71.0,-942.0,263.0
19.0,-243.0,31.0,-31.0,5.0,-14.0,73.0,-940.0,256.0
19.0,-243.0,34.0,-36.0,5.0,-14.0,74.0,-941.0,257.0
17.0,-242.0,31.0,-40.0,6.0,-14.0,76.0,-944.0,258.0
19.0,-245.0,31.0,-48.0,8.0,-15.0,79.0,-943.0,255.0
21.0,-245.0,33.0,-54.0,11.0,-15.0,83.0,-945.0,254.0
19.0,-245.0,30.0,-61.0,14.0,-17.0,79.0,-950.0,252.0
21.0,-245.0,30.0,-67.0,18.0,-16.0,82.0,-946.0,255.0
20.0,-246.0,30.0,-72.0,21.0,-19.0,82.0,-948.0,250.0
20.0,-247.0,30.0,-75.0,23.0,-22.0,84.0,-950.0,255.0
22.0,-246.0,28.0,-78.0,28.0,-23.0,83.0,-951.0,247.0
21.0,-244.0,27.0,-81.0,31.0,-25.0,90.0,-955.0,250.0
27.0,-246.0,30.0,-86.0,33.0,-26.0,95.0,-946.0,245.0
23.0,-245.0,25.0,-91.0,34.0,-28.0,101.0,-946.0,238.0
26.0,-244.0,24.0,-98.0,35.0,-31.0,105.0,-948.0,240.0
25.0,-241.0,25.0,-108.0,35.0,-31.0,105.0,-945.0,227.0
25.0,-243.0,22.0,-123.0,35.0,-32.0,109.0,-948.0,226.0
27.0,-242.0,22.0,-140.0,38.0,-33.0,102.0,-946.0,215.0
22.0,-239.0,21.0,-163.0,43.0,-32.0,103.0,-945.0,204.0
29.0,-246.0,16.0,-192.0,48.0,-33.0,106.0,-947.0,201.0
26.0,-243.0,21.0,-219.0,54.0,-38.0,83.0,-943.0,201.0
25.0,-243.0,20.0,-247.0,60.0,-41.0,98.0,-951.0,197.0
25.0,-247.0,18.0,-273.0,65.0,-48.0,95.0,-952.0,205.0
25.0,-248.0,19.0,-294.0,67.0,-50.0,93.0,-959.0,210.0
27.0,-249.0,19.0,-308.0,66.0,-52.0,100.0,-972.0,217.0
26.0,-251.0,28.0,-314.0,65.0,-52.0,109.0,-974.0,219.0
32.0,-258.0,25.0,-314.0,65.0,-51.0,116.0,-989.0,228.0
35.0,-259.0,25.0,-306.0,67.0,-52.0,130.0,-1006.0,224.0
42.0,-263.0,21.0,-294.0,71.0,-53.0,151.0,-1018.0,218.0
46.0,-267.0,23.0,-278.0,80.0,-55.0,173.0,-1033.0,218.0
50.0,-272.0,22.0,-260.0,90.0,-60.0,189.0,-1054.0,223.0
50.0,-269.0,27.0,-238.0,101.0,-65.0,196.0,-1056.0,231.0
50.0,-274.0,28.0,-207.0,110.0,-67.0,201.0,-1059.0,244.0
49.0,-272.0,33.0,-176.0,112.0,-66.0,197.0,-1057.0,258.0
48.0,-269.0,39.0,-134.0,112.0,-64.0,194.0,-1055.0,268.0
46.0,-272.0,39.0,-88.0,108.0,-53.0,187.0,-1039.0,290.0
44.0,-263.0,44.0,-31.0,100.0,-39.0,182.0,-1022.0,299.0
41.0,-258.0,47.0,24.0,83.0,-19.0,163.0,-1005.0,299.0
34.0,-252.0,48.0,76.0,63.0,4.0,151.0,-983.0,305.0
38.0,-249.0,46.0,124.0,41.0,28.0,152.0,-964.0,308.0
35.0,-242.0,46.0,162.0,22.0,55.0,134.0,-946.0,313.0
32.0,-239.0,49.0,199.0,5.0,82.0,128.0,-927.0,315.0
27.0,-233.0,43.0,231.0,-11.0,108.0,113.0,-902.0,311.0
31.0,-223.0,42.0,254.0,-24.0,134.0,113.0,-869.0,309.0
28.0,-217.0,52.0,265.0,-42.0,159.0,108.0,-850.0,321.0
22.0,-211.0,49.0,266.0,-60.0,182.0,93.0,-827.0,320.0
21.0,-211.0,51.0,261.0,-77.0,202.0,95.0,-819.0,335.0
18.0,-207.0,55.0,249.0,-97.0,218.0,82.0,-803.0,344.0
17.0,-203.0,57.0,229.0,-117.0,232.0,83.0,-805.0,357.0
18.0,-206.0,64.0,205.0,-140.0,240.0,81.0,-797.0,370.0
18.0,-201.0,64.0,180.0,-166.0,247.0,83.0,-794.0,388.0
22.0,-205.0,65.0,152.0,-190.0,250.0,84.0,-796.0,388.0
21.0,-204.0,69.0,119.0,-209.0,254.0,91.0,-800.0,401.0
26.0,-207.0,69.0,96.0,-224.0,257.0,100.0,-809.0,406.0
27.0,-212.0,74.0,75.0,-237.0,259.0,106.0,-815.0,416.0
26.0,-217.0,70.0,62.0,-251.0,257.0,115.0,-832.0,417.0
29.0,-219.0,70.0,57.0,-265.0,256.0,116.0,-854.0,417.0
29.0,-224.0,72.0,55.0,-275.0,254.0,119.0,-863.0,408.0
32.0,-229.0,65.0,55.0,-283.0,253.0,124.0,-877.0,399.0
32.0,-229.0,64.0,55.0,-286.0,250.0,126.0,-898.0,379.0
34.0,-234.0,57.0,59.0,-286.0,249.0,138.0,-905.0,357.0
37.0,-234.0,55.0,63.0,-279.0,247.0,140.0,-914.0,349.0
37.0,-234.0,49.0,68.0,-270.0,248.0,147.0,-920.0,341.0
43.0,-235.0,50.0,71.0,-256.0,249.0,173.0,-915.0,336.0
46.0,-236.0,50.0,77.0,-241.0,249.0,178.0,-919.0,336.0
49.0,-232.0,48.0,80.0,-226.0,249.0,199.0,-917.0,336.0
51.0,-234.0,49.0,81.0,-211.0,249.0,202.0,-917.0,326.0
54.0,-235.0,44.0,77.0,-197.0,249.0,208.0,-920.0,317.0
54.0,-235.0,47.0,67.0,-184.0,250.0,220.0,-911.0,312.0
55.0,-236.0,42.0,54.0,-171.0,252.0,221.0,-917.0,301.0
56.0,-236.0,39.0,35.0,-158.0,250.0,222.0,-920.0,290.0
54.0,-239.0,36.0,13.0,-144.0,247.0,222.0,-923.0,272.0
53.0,-240.0,30.0,-20.0,-129.0,243.0,217.0,-934.0,255.0
58.0,-247.0,27.0,-51.0,-116.0,240.0,233.0,-956.0,241.0
49.0,-248.0,22.0,-86.0,-104.0,226.0,200.0,-971.0,220.0
48.0,-252.0,19.0,-135.0,-89.0,206.0,193.0,-987.0,204.0
46.0,-264.0,17.0,-187.0,-75.0,183.0,176.0,-1015.0,196.0
43.0,-268.0,16.0,-230.0,-65.0,154.0,159.0,-1050.0,196.0
35.0,-276.0,13.0,-259.0,-56.0,121.0,134.0,-1066.0,194.0
35.0,-279.0,14.0,-282.0,-47.0,88.0,124.0,-1085.0,192.0
29.0,-283.0,18.0,-290.0,-38.0,55.0,110.0,-1098.0,197.0
26.0,-286.0,18.0,-284.0,-29.0,27.0,97.0,-1104.0,197.0
20.0,-282.0,19.0,-264.0,-22.0,0.0,85.0,-1099.0,190.0
18.0,-280.0,14.0,-235.0,-15.0,-18.0,77.0,-1093.0,184.0
12.0,-274.0,14.0,-204.0,-10.0,-30.0,71.0,-1074.0,194.0
16.0,-269.0,19.0,-170.0,-8.0,-34.0,53.0,-1053.0,194.0
8.0,-265.0,17.0,-136.0,-7.0,-31.0,45.0,-1032.0,205.0
9.0,-255.0,23.0,-105.0,-10.0,-21.0,42.0,-1003.0,212.0
9.0,-249.0,21.0,-74.0,-15.0,-6.0,33.0,-972.0,216.0
6.0,-247.0,23.0,-47.0,-23.0,13.0,37.0,-949.0,216.0
5.0,-234.0,23.0,-25.0,-32.0,33.0,25.0,-930.0,219.0
1.0,-232.0,24.0,-12.0,-43.0,55.0,19.0,-904.0,219.0
-2.0,-228.0,21.0,-6.0,-60.0,76.0,6.0,-889.0,223.0
-2.0,-224.0,26.0,-11.0,-77.0,99.0,0.0,-882.0,222.0
-5.0,-223.0,21.0,-21.0,-98.0,121.0,-15.0,-867.0,222.0
-12.0,-221.0,19.0,-38.0,-122.0,145.0,-26.0,-861.0,214.0
-9.0,-219.0,21.0,-62.0,-150.0,167.0,-23.0,-856.0,212.0
-2.0,-213.0,18.0,-93.0,-180.0,189.0,-14.0,-857.0,208.0
-5.0,-219.0,17.0,-127.0,-212.0,209.0,-13.0,-858.0,205.0
-9.0,-218.0,17.0,-162.0,-245.0,224.0,-22.0,-862.0,201.0
-9.0,-218.0,17.0,-196.0,-276.0,239.0,-18.0,-856.0,195.0
-9.0,-220.0,14.0,-227.0,-306.0,253.0,-24.0,-863.0,194.0
-5.0,-224.0,15.0,-258.0,-334.0,263.0,-15.0,-860.0,182.0
-10.0,-222.0,13.0,-289.0,-365.0,269.0,-17.0,-863.0,178.0
-9.0,-222.0,9.0,-319.0,-397.0,275.0,-21.0,-863.0,173.0
-12.0,-226.0,9.0,-341.0,-431.0,276.0,-41.0,-870.0,171.0
-13.0,-227.0,5.0,-364.0,-467.0,282.0,-37.0,-870.0,167.0
-16.0,-226.0,5.0,-378.0,-503.0,285.0,-50.0,-876.0,158.0
-15.0,-227.0,9.0,-388.0,-540.0,287.0,-56.0,-871.0,154.0
-16.0,-228.0,8.0,-395.0,-573.0,287.0,-56.0,-876.0,154.0
-16.0,-225.0,8.0,-396.0,-608.0,284.0,-69.0,-881.0,160.0
-25.0,-226.0,12.0,-389.0,-641.0,277.0,-99.0,-869.0,167.0
-32.0,-225.0,11.0,-373.0,-679.0,269.0,-116.0,-869.0,179.0
-36.0,-227.0,16.0,-348.0,-716.0,260.0,-146.0,-867.0,197.0
-46.0,-223.0,18.0,-319.0,-756.0,254.0,-175.0,-863.0,205.0
-62.0,-220.0,25.0,-287.0,-800.0,252.0,-213.0,-857.0,224.0
-43.0,-222.0,30.0,-261.0,-853.0,250.0,-171.0,-850.0,245.0
-49.0,-223.0,35.0,-226.0,-871.0,229.0,-194.0,-867.0,275.0
-40.0,-227.0,42.0,-185.0,-871.0,205.0,-162.0,-878.0,288.0
-33.0,-232.0,43.0,-146.0,-853.0,162.0,-142.0,-898.0,308.0
-21.0,-236.0,53.0,-106.0,-808.0,111.0,-111.0,-909.0,344.0
-26.0,-241.0,59.0,-61.0,-737.0,57.0,-107.0,-931.0,376.0
-13.0,-248.0,66.0,-13.0,-670.0,9.0,-48.0,-943.0,410.0
-10.0,-248.0,73.0,36.0,-600.0,-41.0,-27.0,-971.0,419.0
2.0,-251.0,72.0,86.0,-527.0,-85.0,5.0,-976.0,429.0
9.0,-257.0,78.0,132.0,-451.0,-129.0,29.0,-997.0,445.0
14.0,-258.0,78.0,173.0,-367.0,-170.0,44.0,-1005.0,444.0
16.0,-262.0,75.0,201.0,-286.0,-197.0,54.0,-1032.0,437.0
21.0,-270.0,72.0,214.0,-214.0,-221.0,74.0,-1049.0,414.0
22.0,-269.0,67.0,214.0,-148.0,-233.0,86.0,-1062.0,391.0
26.0,-272.0,64.0,209.0,-89.0,-238.0,92.0,-1062.0,379.0
26.0,-271.0,60.0,206.0,-38.0,-236.0,106.0,-1062.0,375.0
30.0,-268.0,58.0,216.0,-1.0,-230.0,114.0,-1053.0,367.0
28.0,-265.0,58.0,233.0,28.0,-220.0,111.0,-1038.0,351.0
27.0,-260.0,52.0,259.0,54.0,-203.0,104.0,-1004.0,347.0
26.0,-253.0,53.0,298.0,78.0,-182.0,91.0,-975.0,338.0
19.0,-245.0,50.0,349.0,107.0,-157.0,84.0,-947.0,332.0
13.0,-238.0,47.0,403.0,132.0,-129.0,58.0,-919.0,324.0
15.0,-230.0,41.0,451.0,157.0,-103.0,56.0,-893.0,313.0
13.0,-224.0,43.0,489.0,179.0,-80.0,58.0,-857.0,297.0
13.0,-213.0,42.0,511.0,197.0,-61.0,57.0,-826.0,297.0
9.0,-198.0,43.0,519.0,205.0,-48.0,42.0,-794.0,295.0
9.0,-199.0,45.0,516.0,199.0,-38.0,42.0,-768.0,314.0
5.0,-189.0,47.0,507.0,179.0,-28.0,33.0,-743.0,319.0
-1.0,-184.0,51.0,491.0,146.0,-20.0,14.0,-728.0,325.0
-4.0,-182.0,46.0,468.0,107.0,-11.0,-7.0,-706.0,317.0
-8.0,-181.0,38.0,442.0,68.0,-7.0,-25.0,-703.0,293.0
-14.0,-181.0,32.0,412.0,35.0,-9.0,-44.0,-694.0,259.0
-15.0,-180.0,26.0,381.0,11.0,-17.0,-56.0,-702.0,241.0
-15.0,-184.0,21.0,341.0,-11.0,-28.0,-55.0,-707.0,221.0
-16.0,-183.0,18.0,300.0,-26.0,-43.0,-48.0,-717.0,212.0
-14.0,-188.0,21.0,255.0,-40.0,-59.0,-49.0,-740.0,219.0
-13.0,-194.0,24.0,211.0,-55.0,-74.0,-43.0,-765.0,226.0
-13.0,-203.0,21.0,168.0,-63.0,-87.0,-40.0,-794.0,227.0
-15.0,-208.0,18.0,124.0,-66.0,-94.0,-40.0,-825.0,206.0
-12.0,-217.0,14.0,74.0,-67.0,-97.0,-37.0,-859.0,192.0
-10.0,-226.0,9.0,23.0,-65.0,-97.0,-29.0,-893.0,177.0
-11.0,-232.0,8.0,-21.0,-61.0,-92.0,-34.0,-908.0,165.0
-3.0,-243.0,6.0,-52.0,-54.0,-79.0,-9.0,-937.0,152.0
2.0,-247.0,4.0,-62.0,-46.0,-68.0,10.0,-953.0,137.0
9.0,-250.0,7.0,-64.0,-38.0,-53.0,31.0,-971.0,154.0
17.0,-252.0,12.0,-48.0,-35.0,-31.0,69.0,-986.0,193.0
20.0,-255.0,21.0,-15.0,-38.0,-7.0,82.0,-992.0,218.0
21.0,-268.0,27.0,24.0,-39.0,20.0,102.0,-1003.0,258.0
29.0,-261.0,41.0,61.0,-39.0,44.0,113.0,-1009.0,305.0
29.0,-260.0,52.0,94.0,-36.0,69.0,120.0,-1017.0,332.0
31.0,-263.0,60.0,123.0,-28.0,92.0,119.0,-1017.0,362.0
31.0,-264.0,62.0,143.0,-15.0,110.0,115.0,-1030.0,386.0
29.0,-263.0,70.0,164.0,2.0,125.0,110.0,-1034.0,398.0
26.0,-265.0,66.0,176.0,27.0,133.0,103.0,-1032.0,392.0
26.0,-265.0,59.0,178.0,56.0,136.0,98.0,-1034.0,378.0
24.0,-263.0,56.0,167.0,83.0,134.0,94.0,-1037.0,357.0
22.0,-263.0,49.0,148.0,107.0,127.0,89.0,-1035.0,325.0
21.0,-259.0,44.0,121.0,128.0,116.0,84.0,-1014.0,307.0
24.0,-257.0,35.0,92.0,141.0,101.0,92.0,-998.0,282.0
25.0,-252.0,33.0,71.0,154.0,81.0,98.0,-977.0,273.0
26.0,-247.0,35.0,56.0,169.0,61.0,100.0,-956.0,274.0
25.0,-242.0,38.0,53.0,184.0,39.0,102.0,-930.0,289.0
20.0,-233.0,42.0,55.0,193.0,20.0,88.0,-906.0,299.0
15.0,-227.0,44.0,66.0,192.0,1.0,64.0,-884.0,313.0
10.0,-222.0,52.0,77.0,185.0,-14.0,49.0,-859.0,320.0
5.0,-217.0,48.0,84.0,174.0,-24.0,32.0,-847.0,327.0
1.0,-217.0,47.0,87.0,158.0,-35.0,9.0,-836.0,317.0
-1.0,-218.0,51.0,82.0,141.0,-45.0,-4.0,-839.0,319.0
-4.0,-216.0,42.0,72.0,123.0,-57.0,-9.0,-840.0,307.0
-7.0,-220.0,36.0,55.0,104.0,-69.0,-8.0,-849.0,294.0
-1.0,-222.0,39.0,32.0,83.0,-80.0,-5.0,-854.0,279.0
0.0,-221.0,35.0,6.0,64.0,-94.0,5.0,-870.0,273.0
0.0,-223.0,33.0,-21.0,42.0,-105.0,16.0,-875.0,278.0
6.0,-228.0,39.0,-39.0,19.0,-113.0,23.0,-886.0,281.0
5.0,-233.0,44.0,-49.0,-6.0,-118.0,27.0,-898.0,296.0
5.0,-232.0,47.0,-49.0,-30.0,-118.0,33.0,-904.0,310.0
11.0,-232.0,48.0,-41.0,-49.0,-118.0,46.0,-904.0,320.0
11.0,-232.0,53.0,-29.0,-65.0,-115.0,50.0,-911.0,337.0
14.0,-235.0,55.0,-15.0,-75.0,-112.0,64.0,-906.0,342.0
21.0,-235.0,56.0,2.0,-80.0,-109.0,80.0,-909.0,353.0
23.0,-233.0,58.0,13.0,-84.0,-104.0,95.0,-907.0,358.0
27.0,-235.0,55.0,19.0,-87.0,-101.0,102.0,-908.0,356.0
27.0,-229.0,55.0,19.0,-88.0,-98.0,107.0,-904.0,342.0
29.0,-234.0,51.0,15.0,-90.0,-96.0,107.0,-902.0,321.0
26.0,-230.0,42.0,4.0,-92.0,-91.0,110.0,-903.0,310.0
29.0,-230.0,42.0,-9.0,-95.0,-89.0,114.0,-899.0,295.0
29.0,-230.0,33.0,-23.0,-96.0,-88.0,112.0,-896.0,283.0
27.0,-228.0,41.0,-31.0,-97.0,-89.0,106.0,-893.0,287.0
25.0,-223.0,42.0,-37.0,-96.0,-92.0,101.0,-884.0,281.0
24.0,-223.0,40.0,-41.0,-91.0,-94.0,92.0,-875.0,301.0
28.0,-215.0,40.0,-43.0,-83.0,-97.0,99.0,-868.0,301.0
27.0,-224.0,42.0,-45.0,-73.0,-99.0,102.0,-861.0,303.0
27.0,-222.0,43.0,-49.0,-58.0,-100.0,97.0,-865.0,307.0
25.0,-221.0,45.0,-54.0,-43.0,-102.0,97.0,-861.0,316.0
27.0,-221.0,47.0,-62.0,-29.0,-101.0,101.0,-857.0,317.0
27.0,-222.0,48.0,-68.0,-16.0,-97.0,113.0,-857.0,330.0
27.0,-223.0,51.0,-69.0,-1.0,-94.0,111.0,-860.0,337.0
31.0,-223.0,55.0,-68.0,10.0,-88.0,112.0,-865.0,355.0
28.0,-223.0,60.0,-60.0,19.0,-82.0,115.0,-877.0,368.0
29.0,-229.0,64.0,-50.0,23.0,-77.0,108.0,-890.0,378.0
27.0,-231.0,68.0,-39.0,24.0,-72.0,100.0,-900.0,394.0
23.0,-239.0,72.0,-30.0,23.0,-68.0,92.0,-921.0,404.0
16.0,-241.0,70.0,-20.0,26.0,-66.0,75.0,-939.0,410.0
18.0,-248.0,70.0,-13.0,31.0,-62.0,74.0,-952.0,410.0
11.0,-248.0,70.0,-1.0,40.0,-62.0,57.0,-965.0,411.0
13.0,-251.0,72.0,8.0,51.0,-60.0,55.0,-969.0,409.0
14.0,-250.0,70.0,14.0,64.0,-57.0,51.0,-975.0,405.0
13.0,-249.0,63.0,16.0,81.0,-58.0,53.0,-977.0,395.0
14.0,-249.0,63.0,14.0,97.0,-56.0,49.0,-975.0,375.0
17.0,-249.0,63.0,12.0,112.0,-56.0,61.0,-975.0,379.0
16.0,-248.0,63.0,10.0,125.0,-54.0,65.0,-966.0,374.0
20.0,-250.0,62.0,9.0,130.0,-53.0,73.0,-966.0,382.0
13.0,-243.0,57.0,13.0,129.0,-52.0,75.0,-959.0,396.0
17.0,-247.0,72.0,21.0,124.0,-50.0,72.0,-953.0,405.0
15.0,-247.0,73.0,34.0,115.0,-45.0,60.0,-952.0,418.0
12.0,-247.0,73.0,48.0,104.0,-40.0,53.0,-951.0,427.0
9.0,-242.0,78.0,60.0,93.0,-36.0,47.0,-945.0,434.0
14.0,-245.0,74.0,69.0,82.0,-32.0,54.0,-949.0,435.0
6.0,-243.0,78.0,68.0,71.0,-32.0,39.0,-941.0,437.0
6.0,-242.0,72.0,67.0,61.0,-26.0,35.0,-941.0,434.0
2.0,-239.0,73.0,61.0,51.0,-24.0,26.0,-947.0,419.0
3.0,-244.0,70.0,51.0,40.0,-24.0,20.0,-948.0,411.0
4.0,-246.0,69.0,39.0,31.0,-24.0,9.0,-945.0,409.0
2.0,-246.0,70.0,28.0,25.0,-26.0,12.0,-959.0,404.0
2.0,-247.0,70.0,23.0,24.0,-27.0,11.0,-961.0,402.0
5.0,-249.0,70.0,20.0,27.0,-32.0,12.0,-965.0,408.0
6.0,-249.0,69.0,22.0,34.0,-35.0,27.0,-973.0,408.0
11.0,-250.0,69.0,27.0,40.0,-36.0,36.0,-973.0,409.0
9.0,-247.0,69.0,34.0,47.0,-37.0,46.0,-969.0,413.0
13.0,-249.0,70.0,45.0,52.0,-37.0,69.0,-966.0,411.0
19.0,-247.0,72.0,56.0,52.0,-34.0,75.0,-956.0,411.0
17.0,-245.0,67.0,69.0,52.0,-32.0,73.0,-949.0,414.0
20.0,-244.0,72.0,78.0,48.0,-27.0,82.0,-947.0,415.0
23.0,-245.0,71.0,87.0,43.0,-22.0,90.0,-941.0,415.0
15.0,-246.0,75.0,92.0,37.0,-16.0,91.0,-940.0,421.0
20.0,-243.0,71.0,93.0,29.0,-12.0,84.0,-937.0,423.0
18.0,-242.0,69.0,88.0,21.0,-10.0,87.0,-934.0,417.0
17.0,-239.0,73.0,79.0,13.0,-6.0,83.0,-940.0,412.0
21.0,-241.0,67.0,67.0,2.0,-7.0,82.0,-936.0,412.0
20.0,-241.0,67.0,54.0,-7.0,-7.0,84.0,-934.0,402.0
20.0,-238.0,67.0,39.0,-16.0,-8.0,82.0,-931.0,399.0
16.0,-235.0,66.0,26.0,-23.0,-10.0,76.0,-923.0,390.0
15.0,-233.0,63.0,15.0,-28.0,-13.0,76.0,-916.0,382.0
18.0,-233.0,61.0,10.0,-32.0,-16.0,78.0,-907.0,376.0
18.0,-233.0,59.0,8.0,-33.0,-18.0,70.0,-906.0,372.0
19.0,-230.0,61.0,7.0,-30.0,-21.0,78.0,-897.0,376.0
18.0,-231.0,60.0,5.0,-23.0,-25.0,79.0,-894.0,370.0
18.0,-229.0,63.0,4.0,-14.0,-27.0,76.0,-891.0,370.0
17.0,-228.0,58.0,2.0,-5.0,-28.0,71.0,-888.0,371.0
22.0,-227.0,59.0,-1.0,4.0,-27.0,72.0,-888.0,371.0
16.0,-228.0,63.0,-6.0,10.0,-25.0,75.0,-891.0,375.0
17.0,-230.0,61.0,-7.0,18.0,-19.0,74.0,-892.0,380.0
19.0,-230.0,64.0,-7.0,23.0,-17.0,74.0,-892.0,395.0
20.0,-231.0,69.0,-7.0,29.0,-14.0,73.0,-898.0,398.0
19.0,-233.0,68.0,-5.0,34.0,-11.0,72.0,-904.0,409.0
17.0,-233.0,68.0,-6.0,39.0,-5.0,76.0,-910.0,409.0
15.0,-239.0,62.0,-9.0,44.0,-3.0,74.0,-910.0,404.0
19.0,-237.0,72.0,-10.0,47.0,-3.0,69.0,-922.0,407.0
17.0,-237.0,63.0,-10.0,49.0,-6.0,70.0,-914.0,396.0
15.0,-234.0,67.0,-11.0,53.0,-7.0,70.0,-923.0,390.0
19.0,-235.0,64.0,-9.0,55.0,-7.0,79.0,-917.0,379.0
21.0,-236.0,61.0,-5.0,57.0,-9.0,83.0,-910.0,379.0
20.0,-231.0,60.0,-2.0,58.0,-15.0,84.0,-906.0,375.0
25.0,-231.0,61.0,3.0,60.0,-24.0,98.0,-900.0,372.0
23.0,-230.0,65.0,3.0,62.0,-32.0,100.0,-895.0,371.0
26.0,-226.0,65.0,1.0,63.0,-39.0,101.0,-893.0,375.0
27.0,-226.0,58.0,-9.0,67.0,-44.0,104.0,-880.0,373.0
30.0,-224.0,60.0,-22.0,67.0,-48.0,99.0,-869.0,370.0
20.0,-223.0,63.0,-35.0,67.0,-53.0,98.0,-874.0,376.0
20.0,-224.0,66.0,-45.0,67.0,-55.0,99.0,-864.0,384.0
19.0,-221.0,64.0,-54.0,67.0,-60.0,92.0,-865.0,388.0
19.0,-225.0,69.0,-64.0,69.0,-60.0,81.0,-869.0,393.0
19.0,-226.0,68.0,-69.0,69.0,-59.0,78.0,-879.0,396.0
13.0,-222.0,73.0,-70.0,68.0,-62.0,28.0,-858.0,424.0
26.0,-228.0,67.0,-65.0,68.0,-61.0,110.0,-901.0,393.0
19.0,-231.0,69.0,-70.0,67.0,-61.0,79.0,-903.0,397.0
15.0,-233.0,67.0,-75.0,68.0,-62.0,72.0,-902.0,399.0
16.0,-231.0,70.0,-76.0,67.0,-63.0,70.0,-910.0,396.0
15.0,-236.0,67.0,-74.0,65.0,-60.0,74.0,-913.0,399.0
16.0,-235.0,68.0,-67.0,62.0,-58.0,66.0,-920.0,404.0
15.0,-236.0,70.0,-62.0,59.0,-55.0,69.0,-917.0,407.0
16.0,-237.0,67.0,-54.0,57.0,-58.0,67.0,-913.0,402.0
17.0,-233.0,67.0,-45.0,56.0,-61.0,63.0,-914.0,403.0
18.0,-234.0,69.0,-37.0,55.0,-63.0,70.0,-914.0,403.0
18.0,-232.0,69.0,-32.0,54.0,-66.0,78.0,-901.0,408.0
16.0,-229.0,68.0,-29.0,55.0,-69.0,77.0,-896.0,407.0
18.0,-230.0,67.0,-34.0,55.0,-73.0,84.0,-893.0,403.0
21.0,-222.0,67.0,-38.0,56.0,-76.0,81.0,-878.0,400.0
20.0,-227.0,69.0,-50.0,61.0,-80.0,81.0,-876.0,401.0
22.0,-224.0,67.0,-60.0,61.0,-81.0,75.0,-870.0,401.0
19.0,-219.0,65.0,-68.0,60.0,-82.0,84.0,-862.0,390.0
22.0,-218.0,63.0,-78.0,58.0,-84.0,92.0,-848.0,383.0
23.0,-218.0,63.0,-93.0,57.0,-86.0,94.0,-851.0,390.0
25.0,-218.0,67.0,-101.0,55.0,-88.0,95.0,-846.0,383.0
23.0,-219.0,63.0,-113.0,55.0,-89.0,93.0,-846.0,388.0
23.0,-217.0,68.0,-123.0,54.0,-90.0,98.0,-853.0,390.0
21.0,-219.0,64.0,-130.0,52.0,-92.0,96.0,-851.0,386.0
23.0,-220.0,64.0,-138.0,50.0,-90.0,88.0,-855.0,391.0
22.0,-225.0,66.0,-146.0,48.0,-89.0,86.0,-861.0,399.0
16.0,-227.0,70.0,-150.0,45.0,-91.0,80.0,-865.0,398.0
17.0,-219.0,72.0,-148.0,45.0,-92.0,81.0,-861.0,407.0
21.0,-222.0,68.0,-146.0,46.0,-94.0,82.0,-862.0,404.0
21.0,-222.0,65.0,-148.0,48.0,-96.0,82.0,-860.0,405.0
24.0,-225.0,70.0,-148.0,52.0,-100.0,87.0,-863.0,406.0
24.0,-223.0,71.0,-147.0,55.0,-107.0,82.0,-859.0,411.0
20.0,-218.0,69.0,-146.0,57.0,-113.0,91.0,-859.0,403.0
19.0,-216.0,69.0,-149.0,61.0,-117.0,85.0,-849.0,402.0
22.0,-216.0,68.0,-149.0,64.0,-120.0,83.0,-841.0,402.0
22.0,-213.0,69.0,-154.0,65.0,-124.0,90.0,-833.0,397.0
20.0,-215.0,71.0,-158.0,64.0,-127.0,84.0,-832.0,402.0
18.0,-210.0,69.0,-163.0,60.0,-129.0,83.0,-821.0,405.0
18.0,-208.0,70.0,-168.0,56.0,-128.0,84.0,-802.0,406.0
20.0,-210.0,70.0,-178.0,55.0,-125.0,86.0,-805.0,411.0
20.0,-207.0,71.0,-185.0,55.0,-123.0,86.0,-801.0,413.0
19.0,-203.0,72.0,-194.0,56.0,-122.0,81.0,-799.0,419.0
22.0,-206.0,75.0,-200.0,56.0,-120.0,80.0,-795.0,421.0
20.0,-203.0,73.0,-205.0,57.0,-115.0,77.0,-796.0,422.0
17.0,-200.0,74.0,-211.0,62.0,-110.0,76.0,-790.0,416.0
16.0,-203.0,72.0,-218.0,68.0,-107.0,72.0,-790.0,419.0
16.0,-201.0,72.0,-223.0,71.0,-103.0,72.0,-792.0,418.0
13.0,-202.0,75.0,-227.0,70.0,-99.0,69.0,-786.0,415.0
15.0,-201.0,69.0,-229.0,69.0,-95.0,69.0,-786.0,418.0
13.0,-201.0,72.0,-234.0,67.0,-93.0,66.0,-787.0,424.0
17.0,-203.0,72.0,-235.0,65.0,-92.0,69.0,-792.0,411.0
11.0,-202.0,70.0,-238.0,63.0,-92.0,58.0,-785.0,407.0
16.0,-203.0,68.0,-239.0,57.0,-95.0,62.0,-788.0,402.0
15.0,-199.0,68.0,-236.0,52.0,-97.0,63.0,-779.0,395.0
16.0,-197.0,67.0,-235.0,50.0,-98.0,77.0,-783.0,398.0
16.0,-197.0,69.0,-238.0,52.0,-102.0,79.0,-771.0,396.0
20.0,-200.0,67.0,-246.0,55.0,-103.0,81.0,-771.0,407.0
25.0,-196.0,71.0,-253.0,59.0,-110.0,94.0,-774.0,419.0
24.0,-196.0,71.0,-251.0,65.0,-116.0,98.0,-772.0,421.0
24.0,-198.0,72.0,-252.0,67.0,-118.0,99.0,-769.0,422.0
27.0,-196.0,72.0,-258.0,72.0,-118.0,96.0,-766.0,416.0
25.0,-199.0,69.0,-272.0,79.0,-115.0,95.0,-770.0,421.0
23.0,-193.0,69.0,-279.0,86.0,-110.0,102.0,-755.0,408.0
21.0,-194.0,69.0,-288.0,92.0,-102.0,100.0,-755.0,405.0
21.0,-193.0,60.0,-294.0,95.0,-97.0,78.0,-750.0,389.0
16.0,-191.0,64.0,-305.0,98.0,-90.0,80.0,-755.0,383.0
17.0,-189.0,58.0,-310.0,100.0,-84.0,71.0,-740.0,374.0
23.0,-186.0,55.0,-321.0,99.0,-80.0,83.0,-737.0,357.0
24.0,-184.0,55.0,-338.0,102.0,-81.0,99.0,-715.0,348.0
22.0,-183.0,56.0,-359.0,104.0,-86.0,90.0,-708.0,348.0
19.0,-184.0,51.0,-383.0,97.0,-91.0,83.0,-708.0,343.0
21.0,-181.0,53.0,-408.0,84.0,-94.0,93.0,-704.0,327.0
22.0,-180.0,47.0,-438.0,78.0,-98.0,91.0,-700.0,329.0
18.0,-174.0,49.0,-465.0,69.0,-107.0,81.0,-690.0,320.0
17.0,-178.0,46.0,-490.0,58.0,-118.0,65.0,-686.0,316.0
15.0,-178.0,49.0,-510.0,52.0,-128.0,59.0,-685.0,322.0
17.0,-178.0,48.0,-525.0,49.0,-137.0,59.0,-685.0,316.0
11.0,-176.0,48.0,-533.0,51.0,-143.0,47.0,-684.0,317.0
13.0,-176.0,47.0,-546.0,55.0,-149.0,50.0,-679.0,322.0
13.0,-172.0,51.0,-557.0,58.0,-154.0,55.0,-671.0,334.0
6.0,-170.0,54.0,-563.0,63.0,-161.0,34.0,-665.0,338.0
6.0,-168.0,54.0,-574.0,59.0,-160.0,35.0,-660.0,334.0
7.0,-166.0,53.0,-590.0,51.0,-156.0,35.0,-663.0,345.0
8.0,-171.0,57.0,-609.0,40.0,-151.0,31.0,-661.0,352.0
3.0,-168.0,58.0,-633.0,25.0,-143.0,28.0,-660.0,359.0
3.0,-171.0,60.0,-662.0,8.0,-133.0,20.0,-664.0,367.0
2.0,-167.0,60.0,-695.0,-9.0,-126.0,24.0,-656.0,374.0
-1.0,-168.0,58.0,-722.0,-27.0,-122.0,11.0,-656.0,366.0
-3.0,-167.0,52.0,-746.0,-49.0,-120.0,5.0,-651.0,347.0
0.0,-169.0,44.0,-768.0,-70.0,-119.0,-6.0,-651.0,322.0
-4.0,-168.0,39.0,-788.0,-90.0,-123.0,-8.0,-652.0,294.0
-3.0,-170.0,34.0,-814.0,-109.0,-124.0,-5.0,-652.0,278.0
-5.0,-167.0,29.0,-840.0,-126.0,-128.0,-7.0,-643.0,257.0
1.0,-166.0,28.0,-870.0,-139.0,-131.0,-6.0,-639.0,242.0
-2.0,-168.0,21.0,-899.0,-157.0,-134.0,7.0,-641.0,229.0
0.0,-168.0,16.0,-931.0,-173.0,-137.0,11.0,-640.0,209.0
3.0,-166.0,15.0,-964.0,-188.0,-142.0,21.0,-641.0,201.0
4.0,-166.0,12.0,-998.0,-200.0,-146.0,28.0,-637.0,191.0
9.0,-167.0,12.0,-1030.0,-208.0,-149.0,34.0,-642.0,186.0
8.0,-167.0,17.0,-1058.0,-213.0,-151.0,41.0,-648.0,178.0
11.0,-174.0,7.0,-1081.0,-219.0,-150.0,45.0,-659.0,182.0
13.0,-174.0,8.0,-1098.0,-226.0,-148.0,54.0,-666.0,164.0
15.0,-176.0,3.0,-1114.0,-236.0,-143.0,63.0,-690.0,149.0
17.0,-179.0,-1.0,-1130.0,-245.0,-137.0,66.0,-699.0,143.0
16.0,-184.0,-1.0,-1145.0,-257.0,-129.0,67.0,-709.0,131.0
17.0,-185.0,-8.0,-1162.0,-273.0,-122.0,73.0,-714.0,119.0
20.0,-185.0,-9.0,-1181.0,-288.0,-115.0,69.0,-723.0,94.0
17.0,-187.0,-13.0,-1212.0,-304.0,-112.0,63.0,-738.0,74.0
14.0,-191.0,-24.0,-1244.0,-320.0,-111.0,62.0,-744.0,53.0
15.0,-193.0,-30.0,-1281.0,-331.0,-111.0,66.0,-745.0,24.0
16.0,-193.0,-40.0,-1327.0,-329.0,-117.0,62.0,-755.0,-9.0
17.0,-194.0,-50.0,-1374.0,-316.0,-120.0,63.0,-763.0,-43.0
18.0,-197.0,-52.0,-1424.0,-290.0,-125.0,70.0,-767.0,-63.0
21.0,-200.0,-60.0,-1472.0,-256.0,-128.0,75.0,-774.0,-86.0
24.0,-200.0,-62.0,-1518.0,-214.0,-129.0,85.0,-785.0,-104.0
27.0,-200.0,-61.0,-1564.0,-171.0,-128.0,89.0,-787.0,-110.0
25.0,-205.0,-64.0,-1607.0,-129.0,-124.0,94.0,-793.0,-116.0
29.0,-206.0,-72.0,-1652.0,-87.0,-110.0,101.0,-799.0,-136.0
30.0,-207.0,-74.0,-1703.0,-50.0,-95.0,114.0,-808.0,-160.0
30.0,-208.0,-85.0,-1767.0,-15.0,-77.0,110.0,-818.0,-191.0
28.0,-212.0,-98.0,-1844.0,23.0,-53.0,103.0,-825.0,-241.0
23.0,-214.0,-109.0,-1932.0,60.0,-21.0,96.0,-834.0,-295.0
25.0,-218.0,-126.0,-2022.0,91.0,18.0,100.0,-850.0,-341.0
30.0,-227.0,-141.0,-2116.0,110.0,59.0,102.0,-882.0,-405.0
33.0,-235.0,-149.0,-2212.0,123.0,105.0,118.0,-912.0,-457.0
41.0,-246.0,-162.0,-2312.0,137.0,149.0,137.0,-951.0,-491.0
43.0,-257.0,-170.0,-2415.0,155.0,189.0,152.0,-997.0,-530.0
47.0,-267.0,-178.0,-2536.0,179.0,217.0,168.0,-1047.0,-557.0
47.0,-283.0,-170.0,-2683.0,198.0,237.0,178.0,-1096.0,-559.0
50.0,-307.0,-168.0,-2838.0,208.0,249.0,184.0,-1171.0,-537.0
46.0,-322.0,-166.0,-2981.0,206.0,243.0,175.0,-1244.0,-536.0
40.0,-350.0,-170.0,-3132.0,195.0,231.0,170.0,-1333.0,-529.0
43.0,-379.0,-168.0,-3273.0,171.0,203.0,165.0,-1475.0,-523.0
26.0,-410.0,-168.0,-3379.0,147.0,166.0,103.0,-1596.0,-528.0
13.0,-444.0,-165.0,-3450.0,114.0,125.0,50.0,-1716.0,-539.0
-1.0,-468.0,-162.0,-3493.0,65.0,84.0,2.0,-1819.0,-514.0
-14.0,-505.0,-158.0,-3499.0,9.0,33.0,-63.0,-1935.0,-500.0
-16.0,-531.0,-149.0,-3487.0,-41.0,-9.0,-54.0,-2031.0,-465.0
-14.0,-545.0,-134.0,-3450.0,-69.0,-52.0,-47.0,-2097.0,-411.0
-5.0,-547.0,-121.0,-3380.0,-73.0,-93.0,-19.0,-2106.0,-347.0
1.0,-535.0,-105.0,-3277.0,-59.0,-129.0,-7.0,-2058.0,-291.0
15.0,-518.0,-99.0,-3140.0,-31.0,-163.0,39.0,-1991.0,-259.0
12.0,-492.0,-90.0,-2976.0,12.0,-199.0,49.0,-1893.0,-211.0
33.0,-459.0,-75.0,-2788.0,59.0,-222.0,95.0,-1777.0,-172.0
49.0,-428.0,-68.0,-2590.0,103.0,-241.0,164.0,-1651.0,-130.0
61.0,-391.0,-57.0,-2412.0,160.0,-274.0,237.0,-1503.0,-91.0
82.0,-342.0,-50.0,-2279.0,229.0,-316.0,276.0,-1355.0,-63.0
90.0,-297.0,-37.0,-2213.0,315.0,-361.0,328.0,-1177.0,-34.0
91.0,-255.0,-29.0,-2209.0,434.0,-407.0,325.0,-1021.0,28.0
120.0,-217.0,-25.0,-2239.0,557.0,-446.0,425.0,-876.0,47.0
129.0,-176.0,-16.0,-2318.0,701.0,-510.0,486.0,-716.0,64.0
134.0,-144.0,-7.0,-2442.0,866.0,-582.0,474.0,-591.0,106.0
131.0,-124.0,6.0,-2565.0,1022.0,-635.0,489.0,-499.0,147.0
132.0,-104.0,8.0,-2669.0,1157.0,-678.0,496.0,-424.0,164.0
130.0,-89.0,11.0,-2753.0,1270.0,-721.0,486.0,-361.0,185.0
121.0,-77.0,14.0,-2814.0,1363.0,-763.0,464.0,-319.0,191.0
117.0,-73.0,11.0,-2857.0,1441.0,-792.0,458.0,-286.0,189.0
124.0,-71.0,7.0,-2884.0,1505.0,-818.0,469.0,-265.0,177.0
125.0,-63.0,6.0,-2894.0,1559.0,-849.0,477.0,-242.0,173.0
127.0,-67.0,-3.0,-2884.0,1599.0,-885.0,480.0,-237.0,134.0
127.0,-67.0,-11.0,-2854.0,1625.0,-923.0,490.0,-238.0,104.0
124.0,-73.0,-31.0,-2794.0,1635.0,-964.0,481.0,-247.0,41.0
118.0,-80.0,-36.0,-2716.0,1621.0,-1008.0,467.0,-285.0,-1.0
109.0,-88.0,-43.0,-2624.0,1584.0,-1060.0,417.0,-311.0,-24.0
95.0,-96.0,-48.0,-2519.0,1520.0,-1111.0,368.0,-341.0,-42.0
78.0,-101.0,-48.0,-2405.0,1442.0,-1158.0,334.0,-382.0,-53.0
67.0,-116.0,-49.0,-2284.0,1362.0,-1211.0,277.0,-420.0,-57.0
56.0,-121.0,-53.0,-2178.0,1278.0,-1267.0,240.0,-449.0,-65.0
49.0,-125.0,-53.0,-2109.0,1191.0,-1312.0,210.0,-477.0,-63.0
48.0,-136.0,-49.0,-2071.0,1108.0,-1342.0,204.0,-515.0,-53.0
49.0,-149.0,-47.0,-2051.0,1034.0,-1359.0,197.0,-561.0,-24.0
50.0,-157.0,-31.0,-2042.0,967.0,-1367.0,199.0,-599.0,9.0
49.0,-164.0,-20.0,-2042.0,900.0,-1360.0,201.0,-616.0,39.0
47.0,-165.0,-13.0,-2042.0,822.0,-1340.0,196.0,-634.0,87.0
43.0,-174.0,6.0,-2033.0,734.0,-1305.0,172.0,-660.0,141.0
32.0,-189.0,17.0,-1997.0,624.0,-1263.0,137.0,-704.0,192.0
16.0,-192.0,2.0,-1908.0,502.0,-1217.0,69.0,-723.0,169.0
-1.0,-188.0,-14.0,-1806.0,367.0,-1161.0,29.0,-719.0,87.0
-7.0,-201.0,-19.0,-1721.0,217.0,-1107.0,-21.0,-751.0,60.0
-18.0,-208.0,-38.0,-1585.0,61.0,-1069.0,-37.0,-759.0,21.0
-20.0,-176.0,-62.0,-1398.0,-87.0,-1044.0,-59.0,-677.0,-83.0
-23.0,-182.0,-68.0,-1215.0,-198.0,-999.0,-91.0,-634.0,-169.0
-45.0,-162.0,-94.0,-1015.0,-281.0,-951.0,-145.0,-604.0,-199.0
-44.0,-114.0,-132.0,-809.0,-341.0,-908.0,-172.0,-472.0,-342.0
-51.0,-86.0,-167.0,-694.0,-366.0,-858.0,-171.0,-368.0,-457.0
-64.0,-71.0,-174.0,-667.0,-362.0,-808.0,-244.0,-274.0,-547.0
-61.0,-44.0,-198.0,-668.0,-345.0,-752.0,-260.0,-164.0,-652.0
-47.0,-28.0,-217.0,-702.0,-315.0,-675.0,-240.0,-85.0,-761.0
-34.0,-33.0,-198.0,-746.0,-274.0,-623.0,-133.0,-94.0,-692.0
-17.0,11.0,-227.0,-667.0,-253.0,-640.0,-112.0,18.0,-734.0
-4.0,43.0,-254.0,-567.0,-199.0,-633.0,-60.0,123.0,-821.0
23.0,36.0,-243.0,-531.0,-98.0,-593.0,27.0,148.0,-837.0
36.0,40.0,-242.0,-485.0,33.0,-564.0,94.0,180.0,-832.0
72.0,74.0,-267.0,-422.0,161.0,-525.0,249.0,299.0,-961.0
97.0,79.0,-260.0,-485.0,300.0,-477.0,355.0,338.0,-929.0
160.0,82.0,-862.0,-547.0,394.0,-503.0,963.0,-142.0,-3319.0
329.0,84.0,-603.0,-2098.0,-329.0,-354.0,1233.0,195.0,-2230.0
291.0,131.0,-591.0,-3602.0,-635.0,-170.0,888.0,483.0,-2026.0
318.0,248.0,-383.0,-5059.0,-299.0,-290.0,1013.0,1015.0,-1287.0
456.0,251.0,-933.0,-5684.0,953.0,-989.0,1726.0,439.0,-3226.0
597.0,433.0,-702.0,-7708.0,1419.0,-1514.0,2420.0,1238.0,-2790.0
164.0,514.0,-175.0,-10867.0,596.0,-2005.0,780.0,2210.0,-749.0
208.0,392.0,-310.0,-11975.0,-873.0,-1980.0,753.0,2098.0,-1498.0
358.0,408.0,-236.0,-11150.0,-2342.0,-1519.0,1320.0,2399.0,-814.0
111.0,510.0,-291.0,-7403.0,-2285.0,-1229.0,216.0,2302.0,-1022.0
98.0,370.0,-402.0,-4426.0,-1773.0,-944.0,408.0,1385.0,-1533.0
1151.0,157.0,-1048.0,-2983.0,-1418.0,-617.0,4150.0,1023.0,-4277.0
99.0,-28.0,-316.0,-2274.0,-369.0,-127.0,818.0,36.0,-1112.0
230.0,-49.0,-525.0,-1341.0,-874.0,-176.0,1014.0,-197.0,-2050.0
191.0,91.0,-912.0,-1234.0,-1361.0,-327.0,827.0,342.0,-3622.0
224.0,65.0,-788.0,-1634.0,-2023.0,-295.0,933.0,240.0,-3113.0
180.0,-86.0,-883.0,-1858.0,-2684.0,-307.0,636.0,-277.0,-3478.0
192.0,17.0,-906.0,-1939.0,-2747.0,-323.0,659.0,147.0,-3567.0
177.0,18.0,-861.0,-1829.0,-2502.0,-255.0,615.0,163.0,-3386.0
203.0,53.0,-776.0,-1601.0,-2254.0,-192.0,728.0,319.0,-3055.0
142.0,17.0,-737.0,-1238.0,-2015.0,-150.0,480.0,160.0,-2891.0
91.0,-8.0,-726.0,-954.0,-1663.0,-174.0,276.0,30.0,-2820.0
101.0,-36.0,-699.0,-787.0,-1151.0,-217.0,295.0,-88.0,-2705.0
115.0,3.0,-631.0,-696.0,-563.0,-255.0,346.0,49.0,-2445.0
135.0,-8.0,-547.0,-620.0,-21.0,-302.0,402.0,34.0,-2129.0
92.0,4.0,-490.0,-529.0,414.0,-393.0,294.0,86.0,-1893.0
102.0,15.0,-421.0,-511.0,735.0,-451.0,371.0,72.0,-1528.0
87.0,41.0,-371.0,-550.0,950.0,-492.0,323.0,184.0,-1355.0
97.0,44.0,-344.0,-592.0,1078.0,-527.0,366.0,153.0,-1234.0
102.0,38.0,-312.0,-637.0,1147.0,-538.0,384.0,152.0,-1128.0
96.0,28.0,-300.0,-691.0,1154.0,-543.0,374.0,120.0,-1068.0
96.0,23.0,-291.0,-731.0,1163.0,-566.0,360.0,111.0,-1046.0
110.0,17.0,-287.0,-738.0,1167.0,-585.0,395.0,98.0,-1042.0
108.0,15.0,-318.0,-698.0,1195.0,-595.0,400.0,78.0,-1157.0
138.0,-24.0,-318.0,-693.0,1286.0,-621.0,499.0,-54.0,-1137.0
127.0,-13.0,-314.0,-688.0,1381.0,-707.0,446.0,-20.0,-1117.0
120.0,-23.0,-316.0,-625.0,1473.0,-851.0,425.0,-51.0,-1136.0
102.0,20.0,-314.0,-527.0,1624.0,-1016.0,353.0,83.0,-1135.0
120.0,-26.0,-272.0,-461.0,1796.0,-1086.0,451.0,-46.0,-968.0
126.0,-64.0,-258.0,-282.0,1930.0,-1251.0,463.0,-191.0,-930.0
119.0,-27.0,-273.0,-86.0,1940.0,-1525.0,457.0,-68.0,-962.0
100.0,29.0,-274.0,-58.0,1994.0,-1642.0,380.0,118.0,-975.0
113.0,6.0,-234.0,-134.0,2005.0,-1616.0,452.0,32.0,-795.0
122.0,-19.0,-195.0,-146.0,1943.0,-1630.0,470.0,-71.0,-612.0
81.0,-1.0,-180.0,-105.0,1842.0,-1669.0,289.0,30.0,-576.0
65.0,23.0,-180.0,-71.0,1768.0,-1622.0,284.0,114.0,-614.0
111.0,18.0,-205.0,-77.0,1776.0,-1638.0,445.0,78.0,-703.0
52.0,33.0,-193.0,-113.0,1676.0,-1624.0,231.0,119.0,-635.0
14.0,67.0,-183.0,-216.0,1506.0,-1429.0,84.0,228.0,-617.0
44.0,66.0,-178.0,-386.0,1296.0,-1110.0,188.0,236.0,-561.0
53.0,38.0,-158.0,-470.0,1084.0,-816.0,228.0,167.0,-501.0
78.0,13.0,-151.0,-418.0,895.0,-562.0,333.0,99.0,-466.0
92.0,0.0,-153.0,-273.0,721.0,-404.0,368.0,55.0,-469.0
77.0,20.0,-180.0,-119.0,575.0,-308.0,303.0,92.0,-577.0
97.0,39.0,-193.0,-65.0,437.0,-225.0,379.0,138.0,-622.0
111.0,59.0,-188.0,-55.0,342.0,-180.0,410.0,243.0,-633.0
112.0,90.0,-200.0,-38.0,264.0,-169.0,447.0,360.0,-667.0
145.0,119.0,-206.0,-33.0,201.0,-183.0,539.0,477.0,-691.0
142.0,126.0,-212.0,-28.0,150.0,-201.0,545.0,498.0,-701.0
158.0,134.0,-222.0,-26.0,78.0,-225.0,620.0,545.0,-762.0
147.0,142.0,-239.0,-64.0,-12.0,-276.0,579.0,579.0,-831.0
137.0,122.0,-231.0,-178.0,-77.0,-294.0,519.0,459.0,-802.0
129.0,79.0,-233.0,-214.0,-135.0,-213.0,509.0,320.0,-807.0
113.0,37.0,-243.0,-167.0,-235.0,-141.0,415.0,126.0,-849.0
126.0,26.0,-237.0,-178.0,-270.0,-109.0,478.0,132.0,-806.0
105.0,36.0,-216.0,-225.0,-261.0,-123.0,389.0,166.0,-725.0
124.0,48.0,-225.0,-241.0,-254.0,-142.0,470.0,231.0,-769.0
123.0,72.0,-225.0,-269.0,-258.0,-159.0,454.0,297.0,-759.0
104.0,85.0,-232.0,-256.0,-247.0,-144.0,407.0,337.0,-775.0
105.0,74.0,-225.0,-234.0,-232.0,-117.0,390.0,303.0,-753.0
110.0,63.0,-220.0,-197.0,-213.0,-91.0,425.0,252.0,-751.0
141.0,72.0,-219.0,-187.0,-211.0,-81.0,547.0,291.0,-753.0
161.0,81.0,-220.0,-173.0,-244.0,-83.0,609.0,342.0,-751.0
166.0,71.0,-211.0,-128.0,-306.0,-81.0,640.0,303.0,-706.0
97.0,58.0,-221.0,-37.0,-399.0,-58.0,366.0,237.0,-739.0
107.0,67.0,-260.0,-29.0,-456.0,-29.0,404.0,260.0,-908.0
150.0,46.0,-238.0,-56.0,-448.0,1.0,554.0,217.0,-839.0
127.0,53.0,-222.0,13.0,-450.0,16.0,496.0,231.0,-772.0
117.0,47.0,-228.0,95.0,-501.0,39.0,459.0,199.0,-780.0
110.0,50.0,-242.0,152.0,-580.0,51.0,417.0,200.0,-816.0
125.0,43.0,-239.0,165.0,-639.0,59.0,476.0,187.0,-818.0
127.0,50.0,-244.0,192.0,-671.0,62.0,488.0,201.0,-834.0
130.0,45.0,-239.0,209.0,-695.0,73.0,490.0,199.0,-821.0
129.0,44.0,-240.0,244.0,-726.0,86.0,489.0,187.0,-833.0
122.0,36.0,-243.0,284.0,-770.0,102.0,470.0,162.0,-848.0
135.0,45.0,-257.0,324.0,-816.0,106.0,479.0,194.0,-909.0
111.0,53.0,-264.0,346.0,-846.0,95.0,410.0,215.0,-927.0
118.0,45.0,-259.0,363.0,-845.0,97.0,442.0,190.0,-915.0
119.0,40.0,-267.0,380.0,-844.0,101.0,443.0,170.0,-911.0
119.0,44.0,-265.0,384.0,-852.0,95.0,462.0,179.0,-950.0
133.0,43.0,-268.0,364.0,-864.0,82.0,514.0,190.0,-953.0
128.0,35.0,-269.0,355.0,-876.0,73.0,453.0,165.0,-957.0
100.0,39.0,-280.0,358.0,-908.0,54.0,374.0,157.0,-990.0
86.0,33.0,-277.0,332.0,-913.0,50.0,308.0,144.0,-969.0
127.0,69.0,-298.0,305.0,-894.0,36.0,464.0,231.0,-1070.0
100.0,22.0,-272.0,266.0,-857.0,53.0,365.0,109.0,-966.0
76.0,56.0,-270.0,215.0,-858.0,51.0,276.0,245.0,-959.0
95.0,72.0,-288.0,181.0,-834.0,63.0,361.0,307.0,-1019.0
90.0,39.0,-286.0,196.0,-784.0,69.0,334.0,169.0,-1013.0
108.0,30.0,-301.0,259.0,-719.0,93.0,401.0,125.0,-1085.0
81.0,50.0,-296.0,244.0,-675.0,87.0,297.0,214.0,-1061.0
86.0,45.0,-289.0,230.0,-623.0,94.0,311.0,190.0,-1033.0
81.0,45.0,-291.0,221.0,-581.0,104.0,309.0,190.0,-1038.0
83.0,30.0,-279.0,210.0,-528.0,109.0,313.0,144.0,-989.0
105.0,30.0,-285.0,230.0,-497.0,128.0,387.0,130.0,-1004.0
101.0,23.0,-277.0,240.0,-492.0,131.0,382.0,121.0,-985.0
94.0,31.0,-290.0,261.0,-449.0,133.0,338.0,153.0,-1014.0
105.0,35.0,-294.0,267.0,-400.0,159.0,410.0,154.0,-1061.0
95.0,34.0,-293.0,250.0,-432.0,168.0,347.0,160.0,-1042.0
60.0,29.0,-293.0,268.0,-450.0,157.0,211.0,134.0,-1047.0
56.0,16.0,-298.0,294.0,-368.0,138.0,232.0,90.0,-1070.0
110.0,16.0,-289.0,250.0,-336.0,127.0,395.0,71.0,-1032.0
95.0,27.0,-280.0,158.0,-332.0,99.0,334.0,140.0,-981.0
72.0,45.0,-284.0,127.0,-259.0,90.0,272.0,192.0,-991.0
69.0,25.0,-284.0,132.0,-229.0,99.0,294.0,109.0,-1036.0
60.0,22.0,-298.0,138.0,-199.0,115.0,219.0,106.0,-1060.0
111.0,23.0,-298.0,119.0,-204.0,117.0,417.0,133.0,-1064.0
64.0,43.0,-284.0,102.0,-118.0,93.0,248.0,177.0,-1020.0
72.0,22.0,-290.0,123.0,-60.0,98.0,265.0,121.0,-1043.0
84.0,34.0,-290.0,119.0,-32.0,106.0,323.0,136.0,-1050.0
81.0,34.0,-291.0,102.0,3.0,104.0,310.0,146.0,-1049.0
96.0,24.0,-292.0,78.0,25.0,106.0,353.0,118.0,-1036.0
108.0,31.0,-282.0,56.0,33.0,106.0,395.0,141.0,-1006.0
79.0,36.0,-282.0,52.0,62.0,109.0,298.0,159.0,-1001.0
79.0,37.0,-284.0,59.0,78.0,118.0,304.0,157.0,-1008.0
73.0,46.0,-290.0,59.0,88.0,142.0,275.0,189.0,-1039.0
82.0,34.0,-286.0,39.0,107.0,186.0,309.0,160.0,-1024.0
76.0,4.0,-286.0,48.0,127.0,201.0,296.0,40.0,-994.0
94.0,11.0,-291.0,68.0,142.0,165.0,345.0,57.0,-1050.0
76.0,40.0,-295.0,38.0,167.0,114.0,289.0,175.0,-1039.0
75.0,37.0,-284.0,26.0,200.0,98.0,280.0,158.0,-1031.0
71.0,20.0,-296.0,37.0,236.0,98.0,275.0,114.0,-996.0
87.0,31.0,-295.0,55.0,278.0,92.0,337.0,131.0,-1044.0
79.0,29.0,-288.0,34.0,313.0,80.0,307.0,134.0,-1042.0
83.0,24.0,-288.0,23.0,342.0,74.0,317.0,119.0,-1020.0
87.0,29.0,-288.0,21.0,374.0,67.0,323.0,136.0,-1029.0
92.0,21.0,-284.0,24.0,407.0,66.0,339.0,115.0,-1016.0
89.0,19.0,-285.0,27.0,430.0,62.0,333.0,89.0,-1004.0
96.0,14.0,-280.0,27.0,445.0,67.0,353.0,84.0,-1001.0
96.0,15.0,-281.0,22.0,456.0,60.0,357.0,84.0,-987.0
101.0,17.0,-277.0,18.0,472.0,53.0,369.0,84.0,-978.0
99.0,16.0,-268.0,17.0,489.0,53.0,368.0,87.0,-966.0
100.0,15.0,-271.0,20.0,510.0,55.0,374.0,87.0,-952.0
109.0,12.0,-264.0,19.0,521.0,53.0,394.0,76.0,-940.0
107.0,14.0,-258.0,16.0,530.0,52.0,420.0,72.0,-911.0
98.0,12.0,-254.0,10.0,520.0,48.0,388.0,70.0,-888.0
100.0,17.0,-253.0,0.0,499.0,41.0,371.0,71.0,-871.0
98.0,11.0,-245.0,-12.0,475.0,33.0,385.0,66.0,-855.0
100.0,16.0,-248.0,-22.0,441.0,17.0,386.0,91.0,-854.0
96.0,23.0,-241.0,-43.0,398.0,4.0,353.0,113.0,-840.0
98.0,28.0,-239.0,-52.0,347.0,-2.0,385.0,122.0,-815.0
102.0,23.0,-235.0,-54.0,295.0,-4.0,394.0,119.0,-812.0
101.0,29.0,-237.0,-55.0,236.0,-7.0,391.0,121.0,-815.0
106.0,27.0,-236.0,-52.0,179.0,-7.0,381.0,121.0,-820.0
101.0,24.0,-241.0,-46.0,126.0,-6.0,378.0,121.0,-833.0
98.0,27.0,-245.0,-42.0,78.0,-3.0,374.0,118.0,-853.0
99.0,27.0,-246.0,-42.0,34.0,0.0,379.0,121.0,-872.0
105.0,24.0,-253.0,-41.0,0.0,1.0,390.0,116.0,-884.0
104.0,25.0,-252.0,-46.0,-24.0,2.0,387.0,108.0,-897.0
102.0,24.0,-259.0,-49.0,-41.0,-1.0,379.0,110.0,-908.0
100.0,23.0,-255.0,-56.0,-53.0,1.0,381.0,109.0,-918.0
104.0,23.0,-261.0,-60.0,-62.0,-2.0,384.0,123.0,-929.0
104.0,26.0,-263.0,-71.0,-67.0,-5.0,389.0,118.0,-929.0
105.0,22.0,-264.0,-77.0,-71.0,-7.0,391.0,112.0,-928.0
105.0,20.0,-268.0,-83.0,-77.0,-9.0,392.0,109.0,-939.0
104.0,24.0,-266.0,-91.0,-86.0,-11.0,397.0,114.0,-941.0
105.0,22.0,-271.0,-96.0,-91.0,-15.0,396.0,108.0,-948.0
105.0,23.0,-271.0,-103.0,-99.0,-18.0,396.0,118.0,-954.0
106.0,24.0,-270.0,-106.0,-103.0,-20.0,392.0,112.0,-956.0
105.0,23.0,-270.0,-106.0,-110.0,-23.0,396.0,118.0,-965.0
105.0,29.0,-273.0,-108.0,-112.0,-25.0,398.0,122.0,-975.0
101.0,31.0,-276.0,-110.0,-118.0,-29.0,389.0,124.0,-971.0
104.0,24.0,-271.0,-109.0,-119.0,-29.0,388.0,126.0,-975.0
101.0,27.0,-278.0,-105.0,-117.0,-30.0,384.0,130.0,-974.0
100.0,29.0,-272.0,-101.0,-111.0,-30.0,387.0,125.0,-972.0
106.0,26.0,-263.0,-96.0,-101.0,-31.0,386.0,133.0,-972.0
102.0,29.0,-271.0,-93.0,-94.0,-31.0,373.0,135.0,-962.0
101.0,30.0,-269.0,-90.0,-91.0,-31.0,381.0,133.0,-963.0
104.0,27.0,-268.0,-84.0,-87.0,-29.0,382.0,130.0,-962.0
101.0,32.0,-271.0,-79.0,-84.0,-29.0,382.0,131.0,-962.0
100.0,29.0,-270.0,-77.0,-83.0,-32.0,379.0,130.0,-960.0
98.0,28.0,-273.0,-76.0,-89.0,-30.0,380.0,131.0,-956.0
101.0,24.0,-264.0,-77.0,-93.0,-31.0,378.0,132.0,-953.0
100.0,24.0,-267.0,-70.0,-96.0,-28.0,373.0,114.0,-945.0
101.0,26.0,-265.0,-68.0,-104.0,-26.0,379.0,124.0,-941.0
100.0,29.0,-265.0,-71.0,-111.0,-27.0,378.0,125.0,-942.0
100.0,27.0,-267.0,-74.0,-119.0,-28.0,378.0,133.0,-941.0
96.0,24.0,-264.0,-72.0,-128.0,-27.0,363.0,127.0,-938.0
97.0,28.0,-264.0,-68.0,-136.0,-24.0,371.0,121.0,-944.0
99.0,24.0,-264.0,-65.0,-142.0,-23.0,369.0,128.0,-943.0
96.0,28.0,-265.0,-69.0,-148.0,-24.0,361.0,135.0,-944.0
92.0,30.0,-265.0,-74.0,-154.0,-23.0,359.0,128.0,-944.0
97.0,28.0,-269.0,-76.0,-161.0,-23.0,361.0,129.0,-946.0
97.0,29.0,-268.0,-81.0,-165.0,-23.0,362.0,133.0,-957.0
95.0,29.0,-274.0,-84.0,-166.0,-24.0,354.0,133.0,-954.0
94.0,31.0,-270.0,-89.0,-166.0,-25.0,360.0,125.0,-958.0
93.0,31.0,-265.0,-92.0,-168.0,-25.0,354.0,134.0,-952.0
93.0,30.0,-274.0,-96.0,-168.0,-25.0,350.0,135.0,-958.0
93.0,33.0,-272.0,-98.0,-169.0,-25.0,349.0,134.0,-958.0
92.0,31.0,-267.0,-99.0,-170.0,-23.0,352.0,135.0,-959.0
93.0,29.0,-271.0,-96.0,-168.0,-22.0,351.0,135.0,-958.0
95.0,27.0,-269.0,-93.0,-166.0,-19.0,350.0,137.0,-957.0
88.0,29.0,-273.0,-88.0,-161.0,-16.0,343.0,139.0,-958.0
90.0,31.0,-275.0,-80.0,-157.0,-12.0,342.0,138.0,-958.0
88.0,28.0,-271.0,-76.0,-150.0,-8.0,341.0,136.0,-960.0
89.0,32.0,-276.0,-69.0,-144.0,-6.0,343.0,128.0,-963.0
92.0,26.0,-274.0,-65.0,-139.0,-1.0,339.0,130.0,-968.0
91.0,28.0,-274.0,-62.0,-132.0,1.0,343.0,135.0,-961.0
87.0,30.0,-274.0,-58.0,-125.0,2.0,337.0,124.0,-958.0
87.0,29.0,-272.0,-54.0,-119.0,3.0,337.0,124.0,-959.0
88.0,27.0,-270.0,-50.0,-114.0,5.0,332.0,130.0,-967.0
89.0,29.0,-274.0,-52.0,-103.0,5.0,344.0,131.0,-973.0
86.0,26.0,-277.0,-49.0,-95.0,6.0,336.0,127.0,-966.0
89.0,25.0,-272.0,-43.0,-87.0,6.0,335.0,127.0,-975.0
88.0,28.0,-276.0,-42.0,-79.0,8.0,331.0,132.0,-973.0
89.0,27.0,-277.0,-41.0,-72.0,8.0,331.0,125.0,-978.0
86.0,29.0,-273.0,-41.0,-63.0,8.0,331.0,127.0,-975.0
88.0,26.0,-276.0,-39.0,-56.0,9.0,330.0,126.0,-982.0
87.0,26.0,-278.0,-40.0,-47.0,9.0,330.0,127.0,-976.0
89.0,26.0,-275.0,-39.0,-39.0,9.0,334.0,129.0,-977.0
86.0,29.0,-277.0,-38.0,-31.0,8.0,331.0,130.0,-984.0
85.0,31.0,-276.0,-36.0,-24.0,7.0,331.0,134.0,-980.0
88.0,31.0,-277.0,-37.0,-17.0,7.0,336.0,125.0,-978.0
90.0,29.0,-277.0,-38.0,-11.0,5.0,332.0,130.0,-977.0
88.0,27.0,-273.0,-37.0,-5.0,5.0,336.0,134.0,-974.0
90.0,25.0,-275.0,-38.0,1.0,4.0,337.0,132.0,-970.0
87.0,26.0,-269.0,-39.0,5.0,3.0,338.0,131.0,-962.0
91.0,31.0,-270.0,-36.0,8.0,3.0,338.0,131.0,-969.0
86.0,28.0,-273.0,-33.0,11.0,4.0,337.0,133.0,-965.0
88.0,30.0,-274.0,-31.0,12.0,2.0,340.0,126.0,-975.0
89.0,26.0,-277.0,-30.0,13.0,1.0,339.0,127.0,-979.0
90.0,28.0,-274.0,-34.0,19.0,0.0,340.0,128.0,-978.0
90.0,28.0,-267.0,-34.0,25.0,-1.0,342.0,131.0,-963.0
88.0,27.0,-272.0,-36.0,28.0,1.0,339.0,129.0,-965.0
91.0,28.0,-270.0,-36.0,32.0,1.0,339.0,132.0,-966.0
88.0,26.0,-270.0,-36.0,36.0,1.0,342.0,130.0,-960.0
88.0,28.0,-272.0,-37.0,39.0,0.0,346.0,131.0,-963.0
89.0,30.0,-268.0,-36.0,38.0,0.0,343.0,128.0,-957.0
91.0,28.0,-270.0,-34.0,39.0,0.0,338.0,128.0,-963.0
92.0,26.0,-271.0,-34.0,38.0,0.0,346.0,126.0,-960.0
86.0,26.0,-271.0,-34.0,38.0,1.0,341.0,123.0,-956.0
89.0,27.0,-272.0,-34.0,36.0,-1.0,344.0,127.0,-960.0
88.0,28.0,-274.0,-33.0,36.0,-2.0,343.0,128.0,-958.0
87.0,30.0,-272.0,-35.0,35.0,-2.0,343.0,132.0,-959.0
87.0,27.0,-271.0,-36.0,34.0,-3.0,341.0,124.0,-958.0
92.0,28.0,-271.0,-37.0,31.0,-2.0,344.0,130.0,-957.0
92.0,28.0,-270.0,-40.0,29.0,-1.0,344.0,124.0,-959.0
90.0,28.0,-269.0,-39.0,28.0,-1.0,340.0,128.0,-954.0
88.0,26.0,-271.0,-38.0,25.0,-2.0,344.0,128.0,-959.0
91.0,27.0,-274.0,-38.0,21.0,-1.0,343.0,125.0,-954.0
90.0,26.0,-271.0,-40.0,18.0,-1.0,342.0,127.0,-957.0
92.0,28.0,-272.0,-39.0,15.0,-3.0,346.0,127.0,-960.0
91.0,26.0,-276.0,-41.0,14.0,-3.0,346.0,126.0,-958.0
90.0,27.0,-272.0,-39.0,12.0,-4.0,344.0,127.0,-957.0
92.0,27.0,-275.0,-38.0,10.0,-2.0,345.0,127.0,-958.0
91.0,29.0,-273.0,-39.0,7.0,-3.0,346.0,125.0,-959.0
92.0,27.0,-275.0,-39.0,6.0,-4.0,342.0,126.0,-966.0
88.0,28.0,-273.0,-38.0,4.0,-5.0,344.0,128.0,-960.0
91.0,27.0,-271.0,-40.0,3.0,-3.0,344.0,122.0,-962.0
88.0,28.0,-274.0,-42.0,1.0,-3.0,347.0,126.0,-959.0
94.0,26.0,-271.0,-43.0,-1.0,-4.0,343.0,130.0,-963.0
91.0,27.0,-274.0,-44.0,-3.0,-4.0,342.0,123.0,-961.0
90.0,24.0,-274.0,-48.0,-2.0,-5.0,332.0,127.0,-963.0
91.0,29.0,-271.0,-48.0,-3.0,-5.0,348.0,129.0,-963.0
90.0,25.0,-271.0,-48.0,-5.0,-6.0,341.0,123.0,-967.0
86.0,28.0,-273.0,-50.0,-8.0,-5.0,339.0,125.0,-972.0
89.0,27.0,-270.0,-51.0,-9.0,-5.0,342.0,125.0,-962.0
90.0,29.0,-273.0,-51.0,-8.0,-6.0,334.0,127.0,-964.0
91.0,26.0,-271.0,-51.0,-9.0,-6.0,341.0,123.0,-959.0
89.0,27.0,-269.0,-50.0,-8.0,-6.0,335.0,132.0,-959.0
89.0,27.0,-269.0,-51.0,-9.0,-6.0,336.0,130.0,-960.0
90.0,27.0,-270.0,-51.0,-12.0,-6.0,341.0,127.0,-961.0
85.0,29.0,-273.0,-49.0,-12.0,-5.0,336.0,128.0,-961.0
88.0,29.0,-271.0,-50.0,-13.0,-5.0,336.0,127.0,-963.0
90.0,27.0,-270.0,-51.0,-13.0,-5.0,337.0,128.0,-962.0
89.0,27.0,-272.0,-51.0,-12.0,-6.0,337.0,128.0,-961.0
88.0,28.0,-272.0,-52.0,-13.0,-6.0,337.0,124.0,-962.0
90.0,28.0,-275.0,-52.0,-12.0,-7.0,339.0,128.0,-964.0
88.0,28.0,-270.0,-52.0,-11.0,-5.0,336.0,125.0,-962.0
88.0,29.0,-272.0,-53.0,-11.0,-7.0,340.0,127.0,-965.0
88.0,29.0,-271.0,-54.0,-11.0,-7.0,337.0,130.0,-959.0
88.0,29.0,-272.0,-54.0,-11.0,-6.0,339.0,129.0,-965.0
87.0,28.0,-271.0,-55.0,-10.0,-6.0,338.0,123.0,-961.0
89.0,27.0,-271.0,-56.0,-11.0,-5.0,338.0,130.0,-966.0
88.0,27.0,-270.0,-57.0,-13.0,-6.0,335.0,129.0,-963.0
87.0,27.0,-273.0,-56.0,-13.0,-5.0,340.0,126.0,-962.0
89.0,25.0,-273.0,-54.0,-12.0,-4.0,338.0,130.0,-969.0
88.0,29.0,-273.0,-55.0,-10.0,-4.0,336.0,130.0,-963.0
87.0,26.0,-273.0,-53.0,-9.0,-4.0,336.0,129.0,-963.0
89.0,26.0,-272.0,-53.0,-8.0,-4.0,335.0,131.0,-963.0
89.0,29.0,-271.0,-53.0,-8.0,-4.0,338.0,129.0,-962.0
90.0,25.0,-273.0,-54.0,-5.0,-4.0,333.0,130.0,-965.0
87.0,26.0,-274.0,-52.0,-2.0,-4.0,331.0,127.0,-962.0
86.0,26.0,-275.0,-53.0,0.0,-4.0,336.0,127.0,-965.0
87.0,28.0,-273.0,-51.0,1.0,-5.0,333.0,130.0,-972.0
87.0,27.0,-271.0,-49.0,3.0,-3.0,332.0,128.0,-972.0
89.0,25.0,-275.0,-51.0,3.0,-4.0,336.0,123.0,-974.0
88.0,25.0,-273.0,-50.0,5.0,-5.0,334.0,129.0,-973.0
89.0,27.0,-276.0,-50.0,6.0,-5.0,335.0,127.0,-968.0
88.0,26.0,-272.0,-48.0,7.0,-6.0,331.0,129.0,-966.0
89.0,28.0,-274.0,-47.0,6.0,-6.0,336.0,132.0,-968.0
88.0,29.0,-273.0,-47.0,9.0,-7.0,339.0,133.0,-967.0
90.0,29.0,-273.0,-47.0,9.0,-4.0,331.0,130.0,-966.0
87.0,29.0,-274.0,-45.0,10.0,-4.0,338.0,128.0,-960.0
86.0,29.0,-270.0,-47.0,10.0,-5.0,336.0,131.0,-962.0
88.0,27.0,-274.0,-46.0,9.0,-6.0,337.0,135.0,-961.0
86.0,28.0,-272.0,-45.0,9.0,-7.0,331.0,134.0,-963.0
91.0,27.0,-270.0,-45.0,10.0,-6.0,334.0,130.0,-966.0
88.0,28.0,-271.0,-45.0,11.0,-5.0,335.0,128.0,-964.0
87.0,30.0,-271.0,-45.0,10.0,-6.0,332.0,130.0,-961.0
89.0,28.0,-274.0,-45.0,10.0,-5.0,334.0,128.0,-958.0
89.0,29.0,-272.0,-45.0,11.0,-6.0,331.0,132.0,-962.0
88.0,26.0,-271.0,-44.0,11.0,-7.0,329.0,132.0,-962.0
86.0,31.0,-270.0,-44.0,11.0,-7.0,335.0,132.0,-962.0
87.0,29.0,-268.0,-44.0,10.0,-7.0,336.0,132.0,-960.0
89.0,28.0,-268.0,-44.0,8.0,-6.0,336.0,129.0,-961.0
89.0,27.0,-271.0,-44.0,7.0,-5.0,338.0,130.0,-966.0
88.0,28.0,-273.0,-41.0,6.0,-5.0,335.0,130.0,-961.0
90.0,24.0,-272.0,-42.0,5.0,-4.0,338.0,129.0,-963.0
87.0,29.0,-274.0,-42.0,4.0,-3.0,332.0,128.0,-959.0
86.0,29.0,-269.0,-42.0,3.0,-4.0,333.0,127.0,-962.0
86.0,29.0,-270.0,-42.0,2.0,-3.0,333.0,126.0,-966.0
94.0,28.0,-268.0,-43.0,1.0,-4.0,338.0,128.0,-962.0
86.0,29.0,-270.0,-43.0,-1.0,-2.0,336.0,129.0,-963.0
89.0,27.0,-270.0,-42.0,-1.0,-2.0,339.0,132.0,-972.0
89.0,26.0,-272.0,-39.0,-1.0,-2.0,334.0,123.0,-975.0
90.0,27.0,-274.0,-41.0,0.0,-4.0,339.0,123.0,-965.0
86.0,18.0,-265.0,-43.0,-1.0,-3.0,335.0,129.0,-966.0
88.0,22.0,-270.0,-43.0,1.0,-2.0,334.0,127.0,-968.0
88.0,30.0,-277.0,-46.0,1.0,-3.0,335.0,127.0,-966.0
89.0,28.0,-269.0,-45.0,1.0,-3.0,334.0,128.0,-966.0
87.0,30.0,-272.0,-44.0,1.0,-2.0,336.0,130.0,-966.0
86.0,29.0,-274.0,-43.0,3.0,-1.0,331.0,132.0,-963.0
87.0,28.0,-277.0,-42.0,3.0,-2.0,337.0,126.0,-970.0
90.0,26.0,-273.0,-42.0,4.0,-2.0,338.0,131.0,-965.0
88.0,27.0,-273.0,-41.0,4.0,-1.0,333.0,131.0,-968.0
87.0,30.0,-269.0,-42.0,3.0,-3.0,334.0,130.0,-961.0
91.0,31.0,-278.0,-43.0,4.0,-2.0,335.0,128.0,-957.0
90.0,27.0,-271.0,-43.0,3.0,-3.0,336.0,131.0,-960.0
88.0,28.0,-272.0,-44.0,1.0,-2.0,333.0,124.0,-961.0
87.0,27.0,-274.0,-46.0,0.0,-2.0,333.0,129.0,-957.0
87.0,27.0,-272.0,-47.0,-4.0,-3.0,334.0,125.0,-955.0
86.0,26.0,-271.0,-47.0,-6.0,-4.0,331.0,126.0,-957.0
87.0,27.0,-274.0,-45.0,-9.0,-4.0,335.0,127.0,-968.0
90.0,26.0,-270.0,-44.0,-10.0,-4.0,334.0,130.0,-967.0
91.0,27.0,-270.0,-43.0,-11.0,-2.0,332.0,125.0,-969.0
85.0,27.0,-271.0,-45.0,-11.0,-3.0,331.0,128.0,-963.0
88.0,28.0,-271.0,-47.0,-12.0,-3.0,332.0,125.0,-963.0
85.0,27.0,-276.0,-49.0,-10.0,-3.0,328.0,128.0,-967.0
86.0,28.0,-271.0,-48.0,-10.0,-3.0,330.0,120.0,-966.0
85.0,30.0,-275.0,-48.0,-10.0,-3.0,336.0,129.0,-969.0
88.0,29.0,-270.0,-49.0,-10.0,-4.0,334.0,124.0,-965.0
90.0,30.0,-275.0,-47.0,-12.0,-3.0,331.0,125.0,-969.0
88.0,28.0,-274.0,-46.0,-11.0,-4.0,332.0,132.0,-966.0
89.0,26.0,-275.0,-48.0,-10.0,-3.0,338.0,131.0,-975.0
86.0,29.0,-276.0,-49.0,-12.0,-3.0,330.0,132.0,-963.0
85.0,25.0,-273.0,-47.0,-10.0,-2.0,329.0,125.0,-966.0
85.0,27.0,-273.0,-46.0,-9.0,-2.0,334.0,129.0,-966.0
87.0,27.0,-274.0,-48.0,-8.0,-3.0,329.0,129.0,-971.0
88.0,24.0,-272.0,-47.0,-8.0,-4.0,331.0,128.0,-965.0
87.0,26.0,-275.0,-47.0,-7.0,-3.0,334.0,131.0,-963.0
86.0,27.0,-275.0,-45.0,-7.0,-3.0,328.0,131.0,-969.0
87.0,28.0,-274.0,-45.0,-5.0,-4.0,333.0,131.0,-969.0
86.0,28.0,-271.0,-45.0,-5.0,-5.0,331.0,126.0,-969.0
90.0,26.0,-273.0,-46.0,-5.0,-4.0,328.0,126.0,-969.0
84.0,28.0,-271.0,-47.0,-4.0,-5.0,330.0,127.0,-970.0
89.0,26.0,-272.0,-46.0,-4.0,-3.0,326.0,128.0,-972.0
87.0,28.0,-272.0,-46.0,-3.0,-5.0,328.0,128.0,-964.0
84.0,27.0,-272.0,-46.0,-3.0,-5.0,328.0,127.0,-966.0
85.0,27.0,-273.0,-46.0,-3.0,-4.0,330.0,130.0,-967.0
86.0,28.0,-277.0,-47.0,-4.0,-4.0,328.0,126.0,-963.0
86.0,31.0,-273.0,-46.0,-3.0,-5.0,329.0,129.0,-965.0
87.0,29.0,-275.0,-47.0,-5.0,-6.0,327.0,126.0,-964.0
87.0,30.0,-273.0,-49.0,-5.0,-5.0,330.0,130.0,-959.0
88.0,25.0,-269.0,-48.0,-5.0,-5.0,332.0,130.0,-962.0
87.0,26.0,-275.0,-48.0,-5.0,-6.0,328.0,130.0,-963.0
87.0,29.0,-268.0,-48.0,-5.0,-5.0,328.0,131.0,-966.0
82.0,28.0,-274.0,-49.0,-4.0,-4.0,332.0,130.0,-963.0
85.0,27.0,-274.0,-48.0,-4.0,-3.0,332.0,132.0,-968.0
85.0,29.0,-272.0,-47.0,-3.0,-4.0,330.0,130.0,-970.0
86.0,23.0,-270.0,-47.0,-4.0,-3.0,328.0,130.0,-965.0
84.0,25.0,-275.0,-46.0,-5.0,-4.0,330.0,126.0,-964.0
88.0,29.0,-269.0,-46.0,-5.0,-3.0,323.0,134.0,-970.0
84.0,22.0,-273.0,-46.0,-6.0,-5.0,323.0,129.0,-968.0
83.0,22.0,-269.0,-47.0,-6.0,-4.0,329.0,130.0,-968.0
92.0,27.0,-267.0,-46.0,-8.0,-4.0,332.0,132.0,-960.0
82.0,38.0,-291.0,-45.0,-8.0,-3.0,330.0,129.0,-965.0
92.0,19.0,-264.0,-46.0,-6.0,-4.0,327.0,130.0,-966.0
103.0,44.0,-303.0,-45.0,-5.0,-3.0,328.0,131.0,-963.0
87.0,28.0,-265.0,-45.0,-5.0,-4.0,327.0,130.0,-972.0
85.0,30.0,-270.0,-44.0,-3.0,-3.0,324.0,129.0,-970.0
92.0,31.0,-275.0,-44.0,-4.0,-5.0,328.0,130.0,-972.0
79.0,28.0,-267.0,-43.0,-4.0,-4.0,323.0,123.0,-963.0
86.0,27.0,-276.0,-45.0,-4.0,-3.0,329.0,127.0,-968.0
84.0,28.0,-272.0,-46.0,-2.0,-3.0,326.0,126.0,-965.0
88.0,25.0,-273.0,-44.0,0.0,-2.0,328.0,132.0,-968.0
86.0,28.0,-274.0,-43.0,-1.0,-2.0,325.0,131.0,-971.0
87.0,18.0,-267.0,-42.0,0.0,-1.0,328.0,129.0,-971.0
70.0,26.0,-280.0,-41.0,0.0,-2.0,321.0,129.0,-966.0
81.0,30.0,-275.0,-43.0,0.0,-2.0,323.0,130.0,-970.0
84.0,32.0,-265.0,-43.0,0.0,-2.0,322.0,128.0,-975.0
83.0,29.0,-267.0,-44.0,2.0,-3.0,323.0,128.0,-967.0
80.0,45.0,-282.0,-43.0,2.0,-3.0,329.0,127.0,-971.0
94.0,38.0,-277.0,-44.0,4.0,-1.0,324.0,127.0,-966.0
90.0,18.0,-266.0,-44.0,3.0,-3.0,329.0,126.0,-976.0
92.0,33.0,-299.0,-45.0,4.0,-4.0,322.0,127.0,-966.0
75.0,27.0,-276.0,-47.0,5.0,-4.0,325.0,131.0,-970.0
89.0,33.0,-278.0,-47.0,4.0,-5.0,323.0,129.0,-967.0
74.0,38.0,-277.0,-46.0,6.0,-4.0,326.0,131.0,-972.0
84.0,26.0,-273.0,-47.0,7.0,-4.0,323.0,130.0,-967.0
87.0,28.0,-275.0,-47.0,7.0,-5.0,325.0,129.0,-972.0
87.0,25.0,-273.0,-47.0,8.0,-5.0,321.0,127.0,-963.0
86.0,27.0,-271.0,-47.0,8.0,-4.0,324.0,129.0,-970.0
82.0,27.0,-285.0,-48.0,10.0,-4.0,327.0,130.0,-969.0
83.0,27.0,-256.0,-47.0,7.0,-5.0,324.0,129.0,-960.0
97.0,43.0,-288.0,-47.0,7.0,-5.0,328.0,127.0,-966.0
95.0,29.0,-270.0,-46.0,5.0,-6.0,324.0,131.0,-967.0
75.0,36.0,-287.0,-45.0,5.0,-4.0,318.0,136.0,-969.0
89.0,31.0,-283.0,-44.0,6.0,-4.0,323.0,129.0,-969.0
88.0,21.0,-268.0,-44.0,5.0,-4.0,329.0,127.0,-965.0
88.0,26.0,-290.0,-43.0,5.0,-4.0,324.0,132.0,-960.0
91.0,22.0,-282.0,-43.0,6.0,-3.0,323.0,131.0,-967.0
91.0,35.0,-275.0,-41.0,5.0,-4.0,324.0,131.0,-967.0
92.0,39.0,-271.0,-42.0,5.0,-4.0,320.0,127.0,-967.0
88.0,28.0,-274.0,-43.0,7.0,-4.0,324.0,129.0,-965.0
85.0,29.0,-272.0,-44.0,6.0,-5.0,327.0,128.0,-969.0
86.0,30.0,-271.0,-45.0,4.0,-3.0,331.0,128.0,-970.0
84.0,31.0,-273.0,-45.0,5.0,-5.0,328.0,126.0,-967.0
84.0,26.0,-285.0,-45.0,5.0,-5.0,323.0,127.0,-969.0
86.0,24.0,-268.0,-45.0,3.0,-4.0,321.0,128.0,-966.0
86.0,27.0,-274.0,-45.0,3.0,-4.0,324.0,126.0,-969.0
81.0,38.0,-277.0,-45.0,2.0,-4.0,322.0,129.0,-966.0
90.0,34.0,-271.0,-45.0,2.0,-4.0,320.0,132.0,-967.0
91.0,22.0,-270.0,-45.0,2.0,-4.0,325.0,126.0,-966.0
74.0,25.0,-284.0,-46.0,1.0,-4.0,324.0,123.0,-962.0
84.0,29.0,-278.0,-44.0,2.0,-4.0,325.0,123.0,-972.0
83.0,26.0,-265.0,-45.0,1.0,-3.0,321.0,127.0,-960.0
85.0,24.0,-275.0,-47.0,0.0,-3.0,325.0,127.0,-969.0
82.0,31.0,-267.0,-45.0,2.0,-3.0,320.0,128.0,-967.0
84.0,28.0,-272.0,-48.0,1.0,-3.0,324.0,130.0,-966.0
83.0,29.0,-269.0,-46.0,0.0,-4.0,320.0,133.0,-972.0
85.0,26.0,-274.0,-45.0,1.0,-4.0,323.0,132.0,-973.0
85.0,28.0,-275.0,-43.0,2.0,-3.0,322.0,130.0,-974.0
79.0,27.0,-274.0,-43.0,2.0,-4.0,324.0,125.0,-980.0
78.0,27.0,-276.0,-43.0,3.0,-3.0,324.0,127.0,-967.0
72.0,19.0,-268.0,-42.0,4.0,-2.0,324.0,134.0,-978.0
93.0,29.0,-275.0,-42.0,6.0,-3.0,324.0,132.0,-972.0
74.0,30.0,-274.0,-40.0,7.0,-1.0,324.0,127.0,-967.0
82.0,32.0,-268.0,-41.0,6.0,-2.0,322.0,129.0,-968.0
85.0,28.0,-270.0,-42.0,6.0,-3.0,320.0,128.0,-966.0
77.0,18.0,-272.0,-41.0,7.0,-1.0,322.0,125.0,-971.0
81.0,32.0,-269.0,-41.0,6.0,0.0,324.0,131.0,-966.0
91.0,25.0,-268.0,-41.0,4.0,-3.0,323.0,129.0,-967.0
83.0,21.0,-266.0,-43.0,6.0,-1.0,328.0,129.0,-963.0
86.0,27.0,-272.0,-43.0,5.0,-3.0,325.0,125.0,-962.0
85.0,27.0,-270.0,-45.0,3.0,-4.0,323.0,125.0,-962.0
84.0,28.0,-272.0,-46.0,1.0,-4.0,322.0,129.0,-964.0
85.0,27.0,-266.0,-47.0,0.0,-4.0,321.0,126.0,-959.0
91.0,25.0,-276.0,-47.0,-1.0,-5.0,323.0,133.0,-963.0
86.0,27.0,-280.0,-46.0,-4.0,-6.0,324.0,125.0,-972.0
83.0,33.0,-275.0,-45.0,-5.0,-2.0,317.0,126.0,-970.0
90.0,30.0,-273.0,-44.0,-5.0,-4.0,320.0,122.0,-974.0
86.0,22.0,-281.0,-44.0,-6.0,-4.0,322.0,126.0,-972.0
82.0,27.0,-277.0,-45.0,-6.0,-3.0,323.0,126.0,-971.0
87.0,13.0,-261.0,-46.0,-7.0,-3.0,318.0,129.0,-974.0
69.0,26.0,-261.0,-47.0,-7.0,-5.0,318.0,122.0,-969.0
85.0,30.0,-269.0,-46.0,-6.0,-5.0,320.0,127.0,-972.0
87.0,29.0,-278.0,-46.0,-4.0,-4.0,323.0,125.0,-969.0
73.0,33.0,-279.0,-46.0,-2.0,-3.0,326.0,128.0,-972.0
72.0,18.0,-253.0,-47.0,-2.0,-3.0,320.0,128.0,-969.0
83.0,28.0,-277.0,-46.0,0.0,-4.0,320.0,130.0,-970.0
82.0,30.0,-273.0,-46.0,0.0,-4.0,319.0,128.0,-975.0
85.0,25.0,-272.0,-47.0,1.0,-4.0,322.0,129.0,-967.0
83.0,31.0,-275.0,-46.0,2.0,-5.0,320.0,130.0,-964.0
93.0,30.0,-275.0,-45.0,3.0,-5.0,319.0,129.0,-967.0
78.0,27.0,-269.0,-45.0,3.0,-4.0,321.0,133.0,-969.0
85.0,30.0,-274.0,-45.0,2.0,-4.0,322.0,129.0,-973.0
80.0,28.0,-267.0,-45.0,3.0,-4.0,322.0,129.0,-972.0
85.0,29.0,-277.0,-44.0,3.0,-4.0,322.0,127.0,-970.0
82.0,29.0,-274.0,-45.0,3.0,-5.0,320.0,130.0,-969.0
82.0,30.0,-275.0,-44.0,3.0,-6.0,320.0,131.0,-968.0
84.0,26.0,-276.0,-45.0,3.0,-4.0,321.0,126.0,-970.0
77.0,24.0,-273.0,-44.0,4.0,-3.0,318.0,126.0,-967.0
82.0,29.0,-273.0,-46.0,4.0,-4.0,315.0,130.0,-971.0
84.0,31.0,-274.0,-44.0,1.0,-5.0,322.0,125.0,-963.0
84.0,26.0,-275.0,-43.0,1.0,-4.0,324.0,130.0,-971.0
78.0,29.0,-267.0,-45.0,-1.0,-3.0,321.0,127.0,-963.0
82.0,31.0,-271.0,-45.0,0.0,-4.0,316.0,127.0,-972.0
80.0,32.0,-275.0,-43.0,-1.0,-3.0,319.0,128.0,-965.0
85.0,27.0,-271.0,-43.0,-2.0,-3.0,318.0,130.0,-969.0
85.0,28.0,-274.0,-45.0,-3.0,-3.0,317.0,129.0,-970.0
66.0,29.0,-263.0,-44.0,-2.0,-3.0,319.0,129.0,-967.0
81.0,27.0,-271.0,-44.0,-2.0,-3.0,317.0,126.0,-971.0
84.0,28.0,-277.0,-42.0,-2.0,-4.0,321.0,129.0,-973.0
86.0,27.0,-276.0,-41.0,-1.0,-5.0,323.0,130.0,-972.0
84.0,27.0,-275.0,-40.0,-2.0,-3.0,319.0,129.0,-973.0
86.0,37.0,-273.0,-41.0,-1.0,-3.0,320.0,124.0,-973.0
85.0,26.0,-273.0,-41.0,-4.0,-2.0,318.0,127.0,-971.0
81.0,28.0,-277.0,-41.0,-3.0,-4.0,318.0,130.0,-972.0
80.0,28.0,-272.0,-40.0,-4.0,-3.0,321.0,126.0,-968.0
84.0,26.0,-274.0,-41.0,-4.0,-4.0,315.0,129.0,-970.0
85.0,35.0,-275.0,-43.0,-5.0,-3.0,316.0,124.0,-968.0
84.0,26.0,-273.0,-43.0,-5.0,-2.0,320.0,128.0,-970.0
84.0,25.0,-273.0,-42.0,-5.0,-2.0,317.0,131.0,-963.0
82.0,30.0,-271.0,-43.0,-6.0,-3.0,317.0,127.0,-967.0
84.0,26.0,-271.0,-42.0,-5.0,-2.0,317.0,127.0,-972.0
84.0,27.0,-275.0,-43.0,-7.0,-2.0,317.0,127.0,-968.0
85.0,27.0,-275.0,-44.0,-7.0,-3.0,313.0,131.0,-972.0
83.0,27.0,-274.0,-44.0,-6.0,-3.0,316.0,126.0,-973.0
82.0,27.0,-274.0,-44.0,-5.0,-2.0,314.0,124.0,-972.0
81.0,28.0,-273.0,-44.0,-4.0,-2.0,315.0,131.0,-971.0
83.0,28.0,-273.0,-44.0,-4.0,-1.0,316.0,125.0,-971.0
84.0,25.0,-274.0,-44.0,-4.0,-3.0,316.0,125.0,-971.0
83.0,27.0,-273.0,-44.0,-5.0,-3.0,318.0,124.0,-973.0
84.0,28.0,-275.0,-43.0,-3.0,-3.0,320.0,130.0,-972.0
82.0,29.0,-274.0,-44.0,-3.0,-3.0,319.0,125.0,-971.0
82.0,25.0,-275.0,-43.0,-2.0,-3.0,319.0,128.0,-973.0
82.0,27.0,-273.0,-44.0,-2.0,-2.0,317.0,128.0,-973.0
82.0,29.0,-274.0,-43.0,0.0,-4.0,315.0,129.0,-972.0
82.0,29.0,-273.0,-45.0,1.0,-4.0,315.0,125.0,-976.0
83.0,27.0,-273.0,-46.0,3.0,-5.0,312.0,129.0,-972.0
81.0,30.0,-275.0,-46.0,3.0,-4.0,318.0,131.0,-968.0
83.0,28.0,-274.0,-46.0,6.0,-5.0,319.0,127.0,-976.0
82.0,20.0,-272.0,-46.0,6.0,-4.0,315.0,125.0,-975.0
81.0,29.0,-271.0,-46.0,7.0,-5.0,312.0,126.0,-975.0
82.0,27.0,-274.0,-46.0,8.0,-5.0,319.0,127.0,-971.0
80.0,28.0,-279.0,-47.0,8.0,-6.0,315.0,131.0,-975.0
82.0,31.0,-275.0,-48.0,9.0,-5.0,319.0,131.0,-976.0
82.0,26.0,-274.0,-46.0,11.0,-5.0,320.0,126.0,-972.0
80.0,29.0,-274.0,-46.0,11.0,-7.0,312.0,131.0,-967.0
83.0,30.0,-271.0,-46.0,11.0,-8.0,316.0,131.0,-965.0
82.0,28.0,-272.0,-46.0,10.0,-5.0,320.0,130.0,-970.0
85.0,28.0,-276.0,-45.0,10.0,-4.0,314.0,131.0,-966.0
80.0,26.0,-274.0,-45.0,10.0,-5.0,320.0,131.0,-968.0
85.0,25.0,-277.0,-45.0,10.0,-4.0,317.0,129.0,-972.0
82.0,28.0,-271.0,-44.0,10.0,-4.0,316.0,132.0,-968.0
82.0,28.0,-271.0,-44.0,10.0,-4.0,313.0,129.0,-974.0
83.0,28.0,-276.0,-43.0,9.0,-4.0,313.0,128.0,-967.0
83.0,30.0,-272.0,-44.0,8.0,-4.0,320.0,131.0,-968.0
82.0,28.0,-271.0,-44.0,7.0,-4.0,315.0,127.0,-970.0
84.0,28.0,-275.0,-41.0,6.0,-3.0,312.0,127.0,-968.0
82.0,27.0,-274.0,-44.0,6.0,-5.0,316.0,127.0,-966.0
84.0,29.0,-273.0,-43.0,6.0,-5.0,317.0,126.0,-969.0
84.0,25.0,-273.0,-44.0,7.0,-3.0,317.0,131.0,-969.0
81.0,29.0,-278.0,-43.0,5.0,-2.0,314.0,127.0,-969.0
82.0,25.0,-276.0,-43.0,4.0,-3.0,313.0,128.0,-977.0
85.0,25.0,-274.0,-43.0,4.0,-3.0,317.0,128.0,-972.0
82.0,26.0,-277.0,-43.0,6.0,-3.0,315.0,123.0,-970.0
85.0,26.0,-275.0,-43.0,5.0,-4.0,315.0,126.0,-973.0
79.0,31.0,-274.0,-43.0,8.0,-3.0,309.0,128.0,-974.0
84.0,26.0,-274.0,-45.0,6.0,-4.0,316.0,126.0,-977.0
84.0,28.0,-270.0,-44.0,6.0,-3.0,313.0,129.0,-975.0
81.0,28.0,-275.0,-45.0,7.0,-4.0,316.0,125.0,-969.0
82.0,27.0,-272.0,-45.0,7.0,-3.0,319.0,128.0,-978.0
83.0,29.0,-275.0,-43.0,6.0,-3.0,311.0,125.0,-976.0
83.0,26.0,-276.0,-42.0,6.0,-3.0,313.0,130.0,-973.0
85.0,25.0,-276.0,-42.0,7.0,-3.0,309.0,129.0,-979.0
83.0,26.0,-274.0,-43.0,8.0,-3.0,314.0,132.0,-972.0
81.0,29.0,-275.0,-43.0,9.0,-3.0,313.0,125.0,-973.0
81.0,27.0,-275.0,-43.0,11.0,-2.0,315.0,128.0,-974.0
82.0,28.0,-273.0,-43.0,12.0,-3.0,315.0,127.0,-973.0
82.0,27.0,-276.0,-41.0,13.0,-3.0,317.0,127.0,-974.0
81.0,27.0,-273.0,-42.0,13.0,-3.0,316.0,127.0,-968.0
82.0,28.0,-273.0,-44.0,13.0,-3.0,314.0,125.0,-975.0
83.0,22.0,-273.0,-44.0,13.0,-3.0,312.0,129.0,-974.0
81.0,28.0,-273.0,-44.0,14.0,-4.0,316.0,129.0,-976.0
82.0,28.0,-275.0,-42.0,12.0,-3.0,312.0,127.0,-966.0
82.0,23.0,-273.0,-45.0,12.0,-2.0,314.0,126.0,-972.0
81.0,27.0,-272.0,-45.0,11.0,-5.0,316.0,125.0,-967.0
84.0,27.0,-271.0,-46.0,11.0,-4.0,316.0,125.0,-968.0
83.0,24.0,-272.0,-47.0,9.0,-4.0,313.0,124.0,-968.0
79.0,26.0,-271.0,-50.0,8.0,-4.0,313.0,127.0,-960.0
82.0,25.0,-275.0,-49.0,6.0,-4.0,314.0,131.0,-964.0
85.0,28.0,-271.0,-48.0,4.0,-4.0,315.0,125.0,-972.0
82.0,27.0,-274.0,-46.0,2.0,-4.0,314.0,126.0,-976.0
83.0,27.0,-278.0,-44.0,0.0,-3.0,320.0,127.0,-977.0
84.0,27.0,-273.0,-46.0,2.0,-3.0,314.0,124.0,-973.0
82.0,30.0,-274.0,-47.0,3.0,-3.0,317.0,128.0,-977.0
80.0,29.0,-273.0,-48.0,4.0,-4.0,315.0,125.0,-971.0
81.0,29.0,-276.0,-48.0,4.0,-4.0,312.0,126.0,-968.0
82.0,26.0,-279.0,-48.0,5.0,-4.0,315.0,126.0,-971.0
83.0,26.0,-273.0,-49.0,5.0,-3.0,317.0,122.0,-977.0
82.0,28.0,-274.0,-49.0,7.0,-5.0,308.0,130.0,-976.0
80.0,30.0,-273.0,-46.0,7.0,-4.0,316.0,127.0,-969.0
80.0,29.0,-273.0,-48.0,8.0,-5.0,309.0,126.0,-979.0
81.0,26.0,-272.0,-48.0,9.0,-5.0,315.0,128.0,-973.0
83.0,26.0,-271.0,-49.0,9.0,-4.0,315.0,126.0,-978.0
82.0,30.0,-274.0,-49.0,11.0,-4.0,312.0,132.0,-976.0
81.0,29.0,-275.0,-49.0,10.0,-3.0,312.0,129.0,-974.0
80.0,30.0,-280.0,-48.0,12.0,-5.0,314.0,122.0,-975.0
82.0,26.0,-277.0,-48.0,10.0,-4.0,312.0,130.0,-974.0
81.0,25.0,-273.0,-46.0,10.0,-4.0,313.0,130.0,-969.0
80.0,29.0,-274.0,-44.0,9.0,-4.0,313.0,122.0,-974.0
82.0,25.0,-271.0,-45.0,9.0,-3.0,314.0,130.0,-974.0
81.0,24.0,-272.0,-46.0,9.0,-4.0,313.0,127.0,-974.0
83.0,26.0,-272.0,-47.0,9.0,-3.0,314.0,124.0,-973.0
82.0,28.0,-273.0,-48.0,8.0,-3.0,312.0,129.0,-976.0
80.0,30.0,-273.0,-45.0,7.0,-5.0,314.0,124.0,-973.0
82.0,25.0,-275.0,-45.0,8.0,-4.0,311.0,126.0,-973.0
83.0,27.0,-271.0,-45.0,8.0,-3.0,318.0,122.0,-973.0
80.0,29.0,-275.0,-44.0,6.0,-3.0,309.0,130.0,-969.0
82.0,29.0,-276.0,-45.0,6.0,-4.0,311.0,129.0,-974.0
81.0,28.0,-272.0,-45.0,7.0,-3.0,317.0,132.0,-973.0
81.0,26.0,-277.0,-43.0,7.0,-4.0,313.0,127.0,-974.0
82.0,28.0,-274.0,-43.0,6.0,-3.0,313.0,129.0,-976.0
78.0,26.0,-272.0,-43.0,7.0,-3.0,311.0,131.0,-975.0
82.0,26.0,-276.0,-43.0,7.0,-2.0,310.0,124.0,-975.0
81.0,26.0,-274.0,-43.0,8.0,-3.0,312.0,128.0,-974.0
81.0,29.0,-272.0,-43.0,8.0,-2.0,316.0,124.0,-968.0
82.0,30.0,-275.0,-43.0,9.0,-3.0,314.0,128.0,-974.0
83.0,30.0,-277.0,-42.0,10.0,-2.0,311.0,130.0,-975.0
81.0,28.0,-277.0,-43.0,9.0,-2.0,315.0,128.0,-973.0
85.0,25.0,-277.0,-44.0,10.0,-3.0,313.0,124.0,-973.0
79.0,27.0,-273.0,-44.0,10.0,-5.0,311.0,124.0,-969.0
81.0,27.0,-273.0,-45.0,10.0,-3.0,310.0,129.0,-974.0
83.0,30.0,-270.0,-45.0,10.0,-2.0,312.0,131.0,-971.0
81.0,30.0,-275.0,-44.0,11.0,-3.0,309.0,126.0,-974.0
81.0,28.0,-275.0,-44.0,10.0,-3.0,310.0,124.0,-972.0
80.0,27.0,-275.0,-46.0,11.0,-4.0,310.0,129.0,-973.0
81.0,29.0,-274.0,-45.0,10.0,-2.0,312.0,127.0,-969.0
82.0,29.0,-273.0,-46.0,11.0,-2.0,317.0,126.0,-972.0
83.0,28.0,-274.0,-46.0,12.0,-2.0,316.0,127.0,-971.0
85.0,26.0,-273.0,-45.0,11.0,-3.0,311.0,128.0,-977.0
82.0,25.0,-275.0,-44.0,12.0,-2.0,309.0,123.0,-972.0
79.0,28.0,-277.0,-43.0,13.0,-1.0,312.0,124.0,-970.0
79.0,29.0,-271.0,-44.0,14.0,-3.0,311.0,129.0,-967.0
81.0,28.0,-274.0,-45.0,14.0,-3.0,310.0,128.0,-973.0
82.0,26.0,-272.0,-46.0,15.0,-3.0,309.0,125.0,-975.0
76.0,30.0,-272.0,-45.0,13.0,-4.0,315.0,127.0,-971.0
82.0,26.0,-271.0,-47.0,13.0,-3.0,312.0,128.0,-971.0
82.0,29.0,-273.0,-48.0,14.0,-4.0,307.0,126.0,-982.0
80.0,28.0,-274.0,-47.0,14.0,-5.0,314.0,126.0,-975.0
82.0,28.0,-273.0,-48.0,14.0,-4.0,310.0,123.0,-973.0
81.0,28.0,-274.0,-49.0,14.0,-4.0,311.0,122.0,-978.0
84.0,25.0,-273.0,-48.0,14.0,-4.0,314.0,130.0,-975.0
83.0,31.0,-273.0,-49.0,15.0,-4.0,314.0,128.0,-976.0
83.0,27.0,-275.0,-49.0,16.0,-4.0,313.0,128.0,-969.0
82.0,29.0,-278.0,-49.0,16.0,-4.0,313.0,129.0,-975.0
82.0,29.0,-271.0,-48.0,16.0,-6.0,309.0,123.0,-975.0
84.0,28.0,-275.0,-49.0,16.0,-6.0,313.0,127.0,-973.0
80.0,27.0,-275.0,-49.0,16.0,-5.0,313.0,125.0,-972.0
81.0,27.0,-274.0,-49.0,16.0,-4.0,312.0,123.0,-973.0
82.0,27.0,-276.0,-48.0,17.0,-4.0,310.0,126.0,-970.0
86.0,27.0,-275.0,-49.0,17.0,-5.0,313.0,131.0,-971.0
85.0,27.0,-276.0,-49.0,17.0,-3.0,318.0,125.0,-970.0
80.0,28.0,-271.0,-49.0,16.0,-4.0,311.0,129.0,-973.0
83.0,27.0,-275.0,-48.0,15.0,-4.0,306.0,127.0,-971.0
81.0,26.0,-273.0,-48.0,14.0,-3.0,312.0,129.0,-968.0
81.0,28.0,-276.0,-48.0,14.0,-3.0,313.0,126.0,-969.0
83.0,27.0,-275.0,-47.0,13.0,-4.0,311.0,131.0,-972.0
85.0,26.0,-276.0,-46.0,11.0,-3.0,316.0,126.0,-972.0
80.0,30.0,-271.0,-46.0,10.0,-4.0,312.0,128.0,-967.0
82.0,27.0,-274.0,-46.0,10.0,-3.0,311.0,126.0,-972.0
82.0,26.0,-273.0,-47.0,12.0,-3.0,317.0,133.0,-967.0
84.0,29.0,-272.0,-45.0,12.0,-3.0,311.0,129.0,-971.0
82.0,28.0,-274.0,-45.0,10.0,-5.0,311.0,134.0,-973.0
82.0,25.0,-276.0,-46.0,10.0,-4.0,313.0,127.0,-971.0
83.0,25.0,-272.0,-45.0,11.0,-3.0,314.0,127.0,-973.0
84.0,27.0,-272.0,-44.0,10.0,-3.0,309.0,128.0,-974.0
82.0,27.0,-277.0,-45.0,9.0,-3.0,315.0,122.0,-971.0
80.0,29.0,-273.0,-46.0,8.0,-2.0,312.0,130.0,-973.0
84.0,25.0,-274.0,-46.0,10.0,-3.0,312.0,127.0,-970.0
83.0,26.0,-275.0,-44.0,10.0,-2.0,312.0,131.0,-971.0
82.0,28.0,-272.0,-46.0,10.0,-2.0,315.0,128.0,-975.0
82.0,29.0,-275.0,-44.0,11.0,-3.0,313.0,128.0,-974.0
79.0,28.0,-276.0,-44.0,11.0,-4.0,309.0,130.0,-977.0
79.0,30.0,-275.0,-45.0,12.0,-4.0,313.0,125.0,-976.0
84.0,27.0,-271.0,-45.0,12.0,-3.0,314.0,127.0,-973.0
82.0,25.0,-278.0,-46.0,11.0,-4.0,311.0,126.0,-968.0
81.0,27.0,-277.0,-46.0,11.0,-4.0,312.0,126.0,-974.0
80.0,26.0,-275.0,-46.0,10.0,-3.0,312.0,131.0,-977.0
82.0,24.0,-275.0,-46.0,10.0,-4.0,312.0,127.0,-975.0
82.0,28.0,-276.0,-45.0,11.0,-3.0,311.0,128.0,-976.0
80.0,29.0,-272.0,-44.0,10.0,-3.0,310.0,125.0,-973.0
85.0,27.0,-277.0,-45.0,12.0,-3.0,312.0,123.0,-975.0
80.0,25.0,-279.0,-46.0,13.0,-3.0,311.0,129.0,-981.0
84.0,27.0,-276.0,-47.0,13.0,-3.0,313.0,126.0,-971.0
81.0,28.0,-275.0,-47.0,13.0,-3.0,313.0,128.0,-974.0
78.0,29.0,-273.0,-47.0,15.0,-4.0,310.0,131.0,-972.0
79.0,26.0,-275.0,-48.0,17.0,-4.0,309.0,130.0,-976.0
81.0,28.0,-273.0,-47.0,19.0,-4.0,313.0,126.0,-971.0
82.0,28.0,-275.0,-47.0,18.0,-4.0,312.0,126.0,-979.0
81.0,27.0,-276.0,-47.0,18.0,-2.0,313.0,128.0,-973.0
82.0,25.0,-279.0,-45.0,18.0,-2.0,315.0,130.0,-972.0
84.0,26.0,-274.0,-44.0,18.0,-4.0,311.0,124.0,-971.0
85.0,29.0,-275.0,-44.0,16.0,-2.0,312.0,126.0,-968.0
85.0,32.0,-269.0,-45.0,16.0,-3.0,309.0,128.0,-968.0
83.0,27.0,-272.0,-47.0,15.0,-4.0,309.0,124.0,-969.0
82.0,28.0,-276.0,-48.0,13.0,-5.0,310.0,122.0,-965.0
81.0,24.0,-272.0,-48.0,11.0,-4.0,305.0,131.0,-966.0
79.0,29.0,-275.0,-49.0,9.0,-4.0,309.0,127.0,-965.0
82.0,29.0,-276.0,-47.0,7.0,-4.0,310.0,126.0,-975.0
81.0,27.0,-274.0,-45.0,7.0,-4.0,312.0,126.0,-976.0
84.0,26.0,-274.0,-46.0,8.0,-4.0,310.0,127.0,-972.0
79.0,27.0,-275.0,-48.0,8.0,-3.0,313.0,131.0,-972.0
84.0,26.0,-274.0,-49.0,8.0,-4.0,309.0,127.0,-973.0
81.0,29.0,-279.0,-49.0,9.0,-4.0,312.0,123.0,-978.0
78.0,31.0,-272.0,-48.0,10.0,-4.0,312.0,124.0,-975.0
81.0,30.0,-273.0,-50.0,11.0,-6.0,312.0,125.0,-972.0
80.0,31.0,-273.0,-50.0,11.0,-5.0,313.0,126.0,-979.0
81.0,27.0,-273.0,-49.0,10.0,-4.0,318.0,128.0,-974.0
83.0,29.0,-273.0,-48.0,10.0,-4.0,317.0,128.0,-978.0
81.0,29.0,-274.0,-51.0,12.0,-4.0,309.0,130.0,-973.0
81.0,28.0,-279.0,-49.0,12.0,-4.0,307.0,123.0,-970.0
83.0,28.0,-278.0,-50.0,13.0,-5.0,311.0,130.0,-970.0
80.0,25.0,-273.0,-50.0,12.0,-3.0,310.0,130.0,-975.0
84.0,27.0,-275.0,-49.0,12.0,-4.0,309.0,127.0,-975.0
81.0,31.0,-273.0,-46.0,13.0,-2.0,315.0,125.0,-971.0
80.0,27.0,-281.0,-48.0,12.0,-4.0,315.0,129.0,-976.0
80.0,30.0,-272.0,-47.0,11.0,-6.0,312.0,127.0,-973.0
81.0,30.0,-277.0,-47.0,12.0,-5.0,315.0,126.0,-976.0
81.0,29.0,-269.0,-48.0,12.0,-4.0,311.0,126.0,-972.0
80.0,24.0,-277.0,-46.0,12.0,-4.0,314.0,128.0,-970.0
82.0,26.0,-275.0,-46.0,13.0,-4.0,312.0,127.0,-968.0
80.0,28.0,-273.0,-47.0,11.0,-4.0,311.0,130.0,-972.0
83.0,26.0,-272.0,-46.0,11.0,-4.0,311.0,127.0,-975.0
80.0,29.0,-274.0,-47.0,10.0,-3.0,307.0,127.0,-973.0
81.0,28.0,-272.0,-47.0,11.0,-5.0,308.0,128.0,-970.0
82.0,30.0,-271.0,-48.0,12.0,-4.0,310.0,125.0,-974.0
77.0,29.0,-276.0,-47.0,10.0,-3.0,307.0,130.0,-974.0
82.0,27.0,-276.0,-46.0,10.0,-3.0,310.0,127.0,-973.0
79.0,28.0,-273.0,-46.0,10.0,-3.0,311.0,124.0,-965.0
81.0,28.0,-273.0,-47.0,10.0,-3.0,309.0,129.0,-974.0
79.0,25.0,-270.0,-45.0,10.0,-3.0,311.0,126.0,-976.0
78.0,30.0,-274.0,-46.0,11.0,-3.0,310.0,127.0,-975.0
80.0,29.0,-273.0,-46.0,11.0,-3.0,306.0,127.0,-971.0
81.0,27.0,-279.0,-45.0,11.0,-4.0,309.0,126.0,-974.0
81.0,29.0,-274.0,-43.0,11.0,-4.0,311.0,129.0,-978.0
83.0,28.0,-274.0,-44.0,12.0,-3.0,311.0,132.0,-977.0
84.0,27.0,-279.0,-46.0,12.0,-4.0,311.0,128.0,-969.0
79.0,27.0,-277.0,-46.0,12.0,-3.0,309.0,130.0,-973.0
81.0,25.0,-272.0,-46.0,12.0,-4.0,310.0,131.0,-976.0
82.0,27.0,-272.0,-47.0,12.0,-4.0,310.0,126.0,-973.0
82.0,28.0,-274.0,-46.0,13.0,-4.0,308.0,131.0,-972.0
81.0,26.0,-276.0,-47.0,13.0,-4.0,313.0,131.0,-976.0
82.0,25.0,-275.0,-46.0,14.0,-5.0,309.0,125.0,-977.0
80.0,30.0,-277.0,-46.0,15.0,-4.0,312.0,129.0,-969.0
79.0,25.0,-272.0,-47.0,15.0,-5.0,309.0,129.0,-974.0
83.0,28.0,-280.0,-47.0,13.0,-4.0,308.0,128.0,-966.0
80.0,29.0,-274.0,-46.0,15.0,-4.0,312.0,128.0,-975.0
81.0,27.0,-275.0,-45.0,15.0,-4.0,307.0,127.0,-971.0
86.0,27.0,-282.0,-48.0,14.0,-4.0,312.0,124.0,-977.0
79.0,29.0,-275.0,-48.0,14.0,-4.0,307.0,123.0,-975.0
80.0,28.0,-275.0,-48.0,14.0,-5.0,308.0,126.0,-973.0
78.0,27.0,-273.0,-47.0,14.0,-3.0,309.0,129.0,-979.0
81.0,28.0,-277.0,-47.0,14.0,-4.0,310.0,129.0,-972.0
80.0,29.0,-276.0,-48.0,14.0,-5.0,309.0,126.0,-970.0
83.0,27.0,-273.0,-47.0,13.0,-4.0,310.0,126.0,-975.0
80.0,27.0,-275.0,-47.0,11.0,-4.0,311.0,124.0,-976.0
82.0,29.0,-276.0,-46.0,12.0,-3.0,307.0,128.0,-973.0
81.0,28.0,-275.0,-48.0,12.0,-3.0,312.0,129.0,-972.0
83.0,28.0,-277.0,-46.0,13.0,-4.0,313.0,128.0,-976.0
80.0,27.0,-274.0,-47.0,13.0,-4.0,311.0,125.0,-973.0
80.0,26.0,-274.0,-47.0,14.0,-3.0,312.0,125.0,-974.0
81.0,26.0,-275.0,-48.0,13.0,-3.0,307.0,124.0,-978.0
78.0,30.0,-271.0,-49.0,14.0,-4.0,310.0,124.0,-975.0
82.0,28.0,-276.0,-50.0,16.0,-3.0,309.0,125.0,-974.0
82.0,28.0,-277.0,-50.0,15.0,-4.0,312.0,128.0,-976.0
82.0,25.0,-278.0,-48.0,15.0,-5.0,309.0,122.0,-972.0
83.0,27.0,-278.0,-47.0,15.0,-4.0,313.0,126.0,-966.0
79.0,30.0,-273.0,-48.0,16.0,-3.0,313.0,122.0,-976.0
83.0,27.0,-273.0,-49.0,16.0,-4.0,309.0,123.0,-981.0
82.0,28.0,-272.0,-49.0,16.0,-5.0,311.0,129.0,-976.0
74.0,34.0,-269.0,-49.0,16.0,-6.0,310.0,133.0,-975.0
81.0,29.0,-279.0,-48.0,17.0,-5.0,306.0,129.0,-969.0
83.0,27.0,-271.0,-48.0,16.0,-5.0,313.0,129.0,-970.0
81.0,31.0,-274.0,-49.0,15.0,-5.0,312.0,127.0,-967.0
83.0,27.0,-273.0,-48.0,15.0,-4.0,315.0,129.0,-971.0
81.0,29.0,-273.0,-49.0,15.0,-5.0,310.0,132.0,-970.0
83.0,27.0,-278.0,-48.0,16.0,-4.0,310.0,127.0,-975.0
84.0,25.0,-273.0,-48.0,14.0,-4.0,309.0,128.0,-975.0
81.0,26.0,-275.0,-48.0,13.0,-2.0,308.0,128.0,-967.0
78.0,28.0,-275.0,-47.0,13.0,-5.0,310.0,129.0,-974.0
80.0,29.0,-274.0,-47.0,11.0,-5.0,308.0,128.0,-972.0
82.0,25.0,-277.0,-47.0,11.0,-4.0,309.0,135.0,-972.0
81.0,26.0,-278.0,-46.0,11.0,-3.0,308.0,129.0,-975.0
79.0,28.0,-276.0,-46.0,11.0,-4.0,310.0,129.0,-971.0
82.0,27.0,-274.0,-47.0,11.0,-5.0,308.0,132.0,-972.0
81.0,28.0,-273.0,-47.0,10.0,-4.0,313.0,132.0,-973.0
81.0,29.0,-274.0,-46.0,10.0,-4.0,306.0,128.0,-974.0
79.0,28.0,-275.0,-47.0,11.0,-3.0,308.0,128.0,-975.0
82.0,28.0,-274.0,-47.0,12.0,-4.0,310.0,127.0,-975.0
83.0,24.0,-276.0,-46.0,12.0,-3.0,308.0,128.0,-973.0
79.0,28.0,-274.0,-46.0,11.0,-4.0,310.0,126.0,-974.0
82.0,28.0,-275.0,-46.0,12.0,-3.0,309.0,125.0,-973.0
76.0,27.0,-275.0,-45.0,13.0,-4.0,307.0,131.0,-975.0
80.0,26.0,-278.0,-46.0,14.0,-3.0,313.0,130.0,-973.0
82.0,26.0,-270.0,-46.0,15.0,-3.0,308.0,125.0,-977.0
80.0,29.0,-274.0,-46.0,14.0,-4.0,312.0,129.0,-966.0
83.0,29.0,-275.0,-46.0,13.0,-3.0,310.0,131.0,-973.0
81.0,29.0,-274.0,-46.0,15.0,-4.0,310.0,130.0,-970.0
80.0,28.0,-275.0,-44.0,15.0,-3.0,310.0,123.0,-976.0
80.0,28.0,-275.0,-45.0,15.0,-4.0,312.0,128.0,-974.0
81.0,27.0,-272.0,-45.0,15.0,-4.0,304.0,128.0,-972.0
81.0,28.0,-274.0,-46.0,14.0,-4.0,309.0,128.0,-974.0
80.0,27.0,-272.0,-46.0,15.0,-4.0,309.0,128.0,-974.0
82.0,27.0,-277.0,-47.0,15.0,-4.0,311.0,125.0,-972.0
82.0,27.0,-276.0,-47.0,14.0,-3.0,308.0,127.0,-973.0
82.0,28.0,-276.0,-47.0,15.0,-4.0,307.0,128.0,-976.0
84.0,27.0,-272.0,-46.0,14.0,-4.0,309.0,125.0,-975.0
82.0,29.0,-273.0,-47.0,14.0,-5.0,310.0,125.0,-966.0
83.0,24.0,-270.0,-47.0,14.0,-2.0,312.0,128.0,-977.0
81.0,27.0,-272.0,-47.0,14.0,-2.0,310.0,130.0,-976.0
80.0,26.0,-277.0,-47.0,15.0,-2.0,309.0,126.0,-974.0
79.0,29.0,-273.0,-47.0,13.0,-3.0,309.0,130.0,-973.0
78.0,28.0,-275.0,-45.0,13.0,-4.0,308.0,130.0,-972.0
79.0,26.0,-273.0,-46.0,13.0,-3.0,308.0,128.0,-970.0
80.0,28.0,-275.0,-47.0,12.0,-4.0,311.0,123.0,-974.0
79.0,27.0,-274.0,-47.0,12.0,-4.0,310.0,131.0,-972.0
80.0,26.0,-272.0,-46.0,11.0,-5.0,307.0,127.0,-974.0
80.0,29.0,-276.0,-47.0,11.0,-4.0,309.0,130.0,-976.0
82.0,30.0,-274.0,-46.0,12.0,-3.0,308.0,125.0,-971.0
82.0,27.0,-278.0,-46.0,12.0,-4.0,307.0,130.0,-974.0
79.0,25.0,-275.0,-45.0,12.0,-4.0,310.0,127.0,-972.0
82.0,27.0,-273.0,-47.0,11.0,-4.0,308.0,129.0,-977.0
81.0,27.0,-274.0,-47.0,12.0,-4.0,308.0,126.0,-974.0
81.0,28.0,-273.0,-46.0,12.0,-3.0,309.0,127.0,-977.0
81.0,28.0,-277.0,-47.0,11.0,-3.0,309.0,131.0,-977.0
80.0,30.0,-276.0,-48.0,12.0,-3.0,308.0,134.0,-970.0
82.0,27.0,-275.0,-46.0,12.0,-3.0,309.0,132.0,-974.0
81.0,25.0,-275.0,-47.0,13.0,-4.0,309.0,128.0,-973.0
79.0,26.0,-275.0,-47.0,12.0,-3.0,306.0,124.0,-969.0
80.0,29.0,-276.0,-47.0,13.0,-4.0,309.0,126.0,-973.0
79.0,25.0,-276.0,-47.0,13.0,-5.0,314.0,131.0,-974.0
80.0,27.0,-274.0,-48.0,13.0,-4.0,308.0,130.0,-974.0
83.0,26.0,-275.0,-46.0,14.0,-4.0,308.0,127.0,-973.0
82.0,28.0,-274.0,-46.0,13.0,-3.0,307.0,128.0,-972.0
82.0,26.0,-276.0,-47.0,12.0,-4.0,309.0,129.0,-968.0
77.0,31.0,-276.0,-47.0,14.0,-3.0,306.0,124.0,-972.0
80.0,28.0,-273.0,-45.0,12.0,-4.0,310.0,126.0,-972.0
82.0,29.0,-277.0,-44.0,12.0,-3.0,308.0,129.0,-976.0
81.0,28.0,-273.0,-46.0,12.0,-4.0,309.0,130.0,-979.0
80.0,27.0,-274.0,-47.0,12.0,-4.0,306.0,122.0,-977.0
82.0,28.0,-274.0,-47.0,13.0,-3.0,305.0,124.0,-970.0
78.0,31.0,-277.0,-48.0,13.0,-4.0,309.0,124.0,-969.0
79.0,30.0,-274.0,-48.0,13.0,-4.0,309.0,127.0,-971.0
84.0,27.0,-270.0,-47.0,14.0,-5.0,311.0,135.0,-975.0
80.0,30.0,-276.0,-46.0,13.0,-3.0,311.0,129.0,-978.0
79.0,28.0,-275.0,-47.0,14.0,-3.0,310.0,125.0,-976.0
80.0,28.0,-277.0,-47.0,13.0,-2.0,309.0,126.0,-972.0
79.0,27.0,-275.0,-45.0,14.0,-3.0,310.0,125.0,-976.0
81.0,25.0,-276.0,-45.0,14.0,-3.0,311.0,129.0,-974.0
81.0,28.0,-274.0,-46.0,13.0,-4.0,312.0,127.0,-968.0
81.0,25.0,-273.0,-47.0,12.0,-4.0,309.0,124.0,-974.0
81.0,27.0,-276.0,-46.0,11.0,-3.0,305.0,129.0,-971.0
80.0,28.0,-275.0,-45.0,12.0,-3.0,312.0,126.0,-972.0
79.0,26.0,-269.0,-46.0,12.0,-4.0,310.0,123.0,-971.0
79.0,27.0,-272.0,-45.0,12.0,-3.0,307.0,131.0,-972.0
82.0,29.0,-278.0,-46.0,13.0,-4.0,308.0,132.0,-975.0
80.0,28.0,-276.0,-46.0,12.0,-3.0,309.0,129.0,-973.0
74.0,28.0,-268.0,-46.0,13.0,-3.0,309.0,130.0,-975.0
80.0,24.0,-272.0,-46.0,14.0,-4.0,309.0,129.0,-973.0
81.0,31.0,-276.0,-46.0,14.0,-4.0,306.0,131.0,-979.0
79.0,29.0,-272.0,-46.0,13.0,-3.0,310.0,125.0,-969.0
81.0,28.0,-277.0,-47.0,12.0,-4.0,307.0,125.0,-972.0
80.0,28.0,-274.0,-47.0,12.0,-5.0,306.0,131.0,-973.0
80.0,28.0,-276.0,-48.0,13.0,-4.0,306.0,132.0,-977.0
80.0,29.0,-277.0,-46.0,13.0,-4.0,310.0,128.0,-969.0
82.0,26.0,-275.0,-45.0,13.0,-3.0,310.0,125.0,-976.0
81.0,26.0,-272.0,-47.0,13.0,-3.0,307.0,128.0,-974.0
80.0,27.0,-274.0,-46.0,13.0,-3.0,307.0,127.0,-970.0
79.0,28.0,-272.0,-47.0,13.0,-5.0,312.0,133.0,-976.0
80.0,29.0,-275.0,-46.0,13.0,-3.0,309.0,126.0,-972.0
78.0,30.0,-273.0,-47.0,13.0,-4.0,306.0,133.0,-974.0
78.0,31.0,-271.0,-46.0,12.0,-4.0,308.0,127.0,-970.0
80.0,27.0,-273.0,-47.0,12.0,-4.0,312.0,130.0,-974.0
81.0,29.0,-274.0,-48.0,13.0,-4.0,307.0,127.0,-974.0
81.0,29.0,-275.0,-46.0,12.0,-3.0,310.0,133.0,-975.0
80.0,29.0,-274.0,-47.0,13.0,-5.0,308.0,129.0,-975.0
82.0,26.0,-278.0,-46.0,13.0,-4.0,307.0,129.0,-971.0
81.0,29.0,-273.0,-47.0,13.0,-5.0,308.0,129.0,-973.0
81.0,28.0,-275.0,-46.0,12.0,-5.0,307.0,126.0,-972.0
76.0,21.0,-275.0,-47.0,13.0,-3.0,308.0,130.0,-977.0
80.0,29.0,-271.0,-47.0,13.0,-5.0,310.0,125.0,-971.0
80.0,27.0,-279.0,-47.0,13.0,-4.0,309.0,130.0,-973.0
81.0,28.0,-274.0,-47.0,13.0,-4.0,307.0,128.0,-975.0
84.0,30.0,-277.0,-47.0,12.0,-4.0,312.0,127.0,-972.0
80.0,28.0,-276.0,-47.0,13.0,-4.0,309.0,129.0,-974.0
81.0,26.0,-275.0,-46.0,13.0,-3.0,309.0,125.0,-976.0
80.0,29.0,-275.0,-46.0,12.0,-4.0,310.0,127.0,-977.0
82.0,29.0,-274.0,-47.0,13.0,-4.0,308.0,128.0,-978.0
82.0,29.0,-277.0,-48.0,13.0,-5.0,309.0,127.0,-973.0
79.0,29.0,-276.0,-47.0,12.0,-5.0,309.0,128.0,-974.0
82.0,29.0,-274.0,-48.0,12.0,-4.0,309.0,127.0,-970.0
80.0,29.0,-273.0,-47.0,11.0,-5.0,308.0,130.0,-974.0
83.0,27.0,-272.0,-46.0,10.0,-3.0,309.0,129.0,-973.0
82.0,27.0,-274.0,-45.0,9.0,-4.0,306.0,130.0,-972.0
80.0,29.0,-273.0,-46.0,11.0,-3.0,312.0,128.0,-980.0
81.0,28.0,-276.0,-48.0,10.0,-4.0,309.0,128.0,-976.0
77.0,26.0,-273.0,-47.0,10.0,-4.0,310.0,128.0,-973.0
80.0,30.0,-271.0,-47.0,9.0,-4.0,308.0,133.0,-976.0
80.0,30.0,-275.0,-45.0,9.0,-4.0,311.0,135.0,-976.0
81.0,28.0,-277.0,-43.0,10.0,-3.0,309.0,133.0,-977.0
79.0,27.0,-275.0,-43.0,11.0,-3.0,309.0,131.0,-976.0
80.0,30.0,-276.0,-41.0,12.0,-2.0,307.0,129.0,-974.0
82.0,29.0,-275.0,-41.0,15.0,-2.0,308.0,128.0,-973.0
80.0,29.0,-280.0,-44.0,17.0,-5.0,309.0,129.0,-974.0
78.0,28.0,-272.0,-44.0,17.0,-4.0,308.0,129.0,-974.0
79.0,27.0,-274.0,-44.0,16.0,-4.0,307.0,130.0,-972.0
82.0,27.0,-278.0,-44.0,18.0,-3.0,311.0,125.0,-971.0
81.0,25.0,-275.0,-45.0,16.0,-3.0,309.0,127.0,-969.0
79.0,27.0,-275.0,-45.0,15.0,-1.0,307.0,129.0,-969.0
78.0,29.0,-273.0,-46.0,14.0,-3.0,307.0,132.0,-968.0
81.0,26.0,-272.0,-46.0,13.0,-2.0,312.0,126.0,-972.0
80.0,27.0,-275.0,-44.0,12.0,-2.0,303.0,130.0,-978.0
79.0,30.0,-278.0,-42.0,11.0,-3.0,309.0,123.0,-978.0
79.0,29.0,-277.0,-43.0,12.0,-4.0,308.0,122.0,-977.0
81.0,24.0,-274.0,-45.0,13.0,-3.0,308.0,126.0,-976.0
83.0,24.0,-272.0,-44.0,12.0,-4.0,306.0,126.0,-980.0
81.0,28.0,-276.0,-46.0,12.0,-4.0,307.0,120.0,-974.0
80.0,28.0,-275.0,-47.0,13.0,-4.0,307.0,128.0,-976.0
80.0,26.0,-270.0,-48.0,15.0,-3.0,308.0,130.0,-975.0
82.0,25.0,-277.0,-49.0,17.0,-3.0,307.0,123.0,-979.0
81.0,30.0,-274.0,-48.0,16.0,-4.0,308.0,127.0,-976.0
83.0,25.0,-276.0,-49.0,16.0,-4.0,309.0,129.0,-978.0
80.0,29.0,-275.0,-49.0,17.0,-4.0,308.0,129.0,-976.0
81.0,28.0,-276.0,-47.0,18.0,-4.0,306.0,126.0,-972.0
80.0,27.0,-271.0,-47.0,17.0,-5.0,311.0,130.0,-971.0
82.0,29.0,-275.0,-50.0,15.0,-4.0,302.0,130.0,-976.0
82.0,29.0,-276.0,-50.0,16.0,-5.0,307.0,130.0,-976.0
79.0,30.0,-276.0,-49.0,16.0,-5.0,306.0,130.0,-965.0
82.0,27.0,-273.0,-48.0,16.0,-3.0,312.0,129.0,-976.0
80.0,29.0,-276.0,-46.0,16.0,-5.0,310.0,133.0,-973.0
82.0,29.0,-273.0,-46.0,16.0,-6.0,315.0,130.0,-977.0
83.0,28.0,-273.0,-47.0,15.0,-4.0,306.0,134.0,-970.0
81.0,32.0,-274.0,-46.0,15.0,-5.0,308.0,130.0,-974.0
82.0,27.0,-273.0,-45.0,14.0,-5.0,307.0,129.0,-971.0
83.0,28.0,-271.0,-47.0,13.0,-4.0,310.0,128.0,-975.0
79.0,30.0,-273.0,-47.0,14.0,-4.0,311.0,128.0,-973.0
77.0,30.0,-276.0,-45.0,13.0,-4.0,310.0,133.0,-969.0
80.0,25.0,-275.0,-47.0,13.0,-4.0,309.0,129.0,-970.0
80.0,26.0,-274.0,-48.0,12.0,-5.0,312.0,128.0,-976.0
78.0,27.0,-275.0,-48.0,11.0,-5.0,305.0,127.0,-978.0
82.0,27.0,-273.0,-47.0,10.0,-4.0,306.0,126.0,-972.0
80.0,26.0,-272.0,-48.0,10.0,-5.0,308.0,129.0,-974.0
81.0,29.0,-278.0,-47.0,12.0,-4.0,309.0,130.0,-973.0
80.0,27.0,-274.0,-47.0,12.0,-4.0,308.0,126.0,-975.0
81.0,29.0,-275.0,-47.0,12.0,-5.0,310.0,126.0,-975.0
81.0,28.0,-276.0,-48.0,11.0,-4.0,307.0,128.0,-971.0
78.0,30.0,-275.0,-48.0,10.0,-4.0,306.0,129.0,-976.0
79.0,29.0,-273.0,-47.0,11.0,-4.0,307.0,129.0,-972.0
79.0,26.0,-275.0,-47.0,11.0,-4.0,311.0,131.0,-969.0
80.0,28.0,-274.0,-49.0,11.0,-4.0,306.0,127.0,-973.0
80.0,25.0,-279.0,-50.0,11.0,-4.0,308.0,126.0,-975.0
81.0,28.0,-275.0,-48.0,11.0,-3.0,307.0,132.0,-973.0
80.0,29.0,-277.0,-49.0,12.0,-4.0,304.0,123.0,-974.0
79.0,31.0,-272.0,-49.0,11.0,-5.0,310.0,129.0,-974.0
79.0,29.0,-277.0,-49.0,11.0,-4.0,304.0,128.0,-975.0
80.0,29.0,-275.0,-48.0,9.0,-5.0,306.0,129.0,-972.0
80.0,28.0,-276.0,-48.0,8.0,-6.0,301.0,131.0,-969.0
78.0,27.0,-277.0,-48.0,8.0,-5.0,304.0,123.0,-973.0
79.0,29.0,-274.0,-49.0,7.0,-5.0,308.0,128.0,-966.0
80.0,27.0,-274.0,-48.0,7.0,-4.0,304.0,127.0,-973.0
80.0,28.0,-274.0,-50.0,8.0,-6.0,305.0,132.0,-977.0
80.0,27.0,-272.0,-50.0,7.0,-6.0,302.0,130.0,-971.0
83.0,29.0,-278.0,-49.0,6.0,-5.0,308.0,125.0,-972.0
80.0,26.0,-272.0,-48.0,6.0,-4.0,309.0,126.0,-969.0
77.0,30.0,-274.0,-49.0,7.0,-4.0,306.0,130.0,-976.0
79.0,28.0,-275.0,-49.0,6.0,-4.0,304.0,132.0,-974.0
82.0,27.0,-275.0,-48.0,7.0,-4.0,308.0,128.0,-974.0
81.0,28.0,-274.0,-48.0,7.0,-4.0,304.0,129.0,-974.0
78.0,28.0,-275.0,-47.0,8.0,-5.0,306.0,130.0,-974.0
82.0,28.0,-275.0,-47.0,8.0,-3.0,310.0,132.0,-978.0
78.0,29.0,-276.0,-47.0,9.0,-4.0,305.0,125.0,-978.0
80.0,29.0,-276.0,-47.0,9.0,-5.0,303.0,127.0,-978.0
80.0,28.0,-275.0,-44.0,9.0,-4.0,307.0,129.0,-976.0
80.0,28.0,-277.0,-48.0,10.0,-5.0,309.0,128.0,-975.0
80.0,28.0,-278.0,-49.0,10.0,-5.0,309.0,129.0,-974.0
80.0,29.0,-276.0,-48.0,11.0,-6.0,303.0,128.0,-978.0
78.0,27.0,-274.0,-48.0,12.0,-6.0,308.0,129.0,-975.0
79.0,29.0,-276.0,-49.0,12.0,-6.0,305.0,130.0,-974.0
81.0,27.0,-277.0,-49.0,13.0,-4.0,308.0,130.0,-975.0
79.0,29.0,-274.0,-47.0,13.0,-6.0,308.0,133.0,-979.0
81.0,25.0,-279.0,-50.0,14.0,-6.0,309.0,131.0,-978.0
83.0,27.0,-277.0,-49.0,14.0,-5.0,307.0,129.0,-972.0
78.0,26.0,-275.0,-48.0,14.0,-5.0,308.0,128.0,-975.0
80.0,27.0,-278.0,-49.0,14.0,-4.0,306.0,126.0,-977.0
81.0,30.0,-276.0,-47.0,15.0,-6.0,309.0,132.0,-971.0
80.0,30.0,-272.0,-47.0,16.0,-5.0,306.0,127.0,-974.0
79.0,27.0,-271.0,-48.0,13.0,-6.0,307.0,129.0,-971.0
82.0,28.0,-274.0,-49.0,14.0,-5.0,308.0,127.0,-972.0
82.0,30.0,-275.0,-48.0,15.0,-6.0,307.0,130.0,-963.0
78.0,31.0,-274.0,-48.0,14.0,-3.0,306.0,131.0,-973.0
79.0,26.0,-272.0,-49.0,13.0,-5.0,307.0,133.0,-970.0
82.0,26.0,-270.0,-48.0,13.0,-5.0,308.0,127.0,-975.0
82.0,26.0,-276.0,-47.0,13.0,-4.0,304.0,130.0,-970.0
79.0,28.0,-273.0,-47.0,13.0,-4.0,309.0,128.0,-971.0
79.0,30.0,-276.0,-47.0,11.0,-3.0,306.0,131.0,-972.0
77.0,29.0,-275.0,-47.0,10.0,-3.0,309.0,133.0,-976.0
80.0,30.0,-272.0,-47.0,9.0,-3.0,305.0,129.0,-976.0
80.0,28.0,-274.0,-45.0,9.0,-5.0,304.0,129.0,-976.0
78.0,31.0,-275.0,-44.0,8.0,-4.0,307.0,132.0,-975.0
80.0,28.0,-274.0,-46.0,8.0,-5.0,304.0,128.0,-975.0
80.0,28.0,-272.0,-48.0,8.0,-4.0,307.0,131.0,-974.0
82.0,25.0,-274.0,-47.0,8.0,-4.0,304.0,128.0,-973.0
80.0,26.0,-277.0,-46.0,8.0,-5.0,301.0,127.0,-969.0
79.0,29.0,-274.0,-45.0,8.0,-5.0,307.0,128.0,-973.0
82.0,31.0,-277.0,-47.0,8.0,-5.0,305.0,127.0,-976.0
77.0,30.0,-276.0,-45.0,7.0,-4.0,305.0,136.0,-975.0
79.0,27.0,-274.0,-46.0,7.0,-4.0,308.0,127.0,-976.0
80.0,27.0,-277.0,-47.0,6.0,-4.0,310.0,129.0,-973.0
77.0,27.0,-273.0,-46.0,6.0,-4.0,311.0,132.0,-977.0
79.0,30.0,-273.0,-44.0,7.0,-5.0,305.0,133.0,-973.0
78.0,28.0,-276.0,-47.0,6.0,-5.0,303.0,130.0,-976.0
79.0,26.0,-276.0,-48.0,8.0,-5.0,306.0,127.0,-977.0
79.0,29.0,-273.0,-46.0,8.0,-5.0,307.0,132.0,-979.0
80.0,29.0,-277.0,-46.0,8.0,-5.0,305.0,127.0,-975.0
81.0,25.0,-276.0,-47.0,8.0,-5.0,306.0,128.0,-976.0
79.0,28.0,-274.0,-48.0,8.0,-6.0,307.0,127.0,-974.0
79.0,29.0,-272.0,-49.0,8.0,-5.0,308.0,129.0,-966.0
77.0,28.0,-275.0,-50.0,9.0,-6.0,306.0,130.0,-975.0
79.0,27.0,-274.0,-49.0,8.0,-5.0,304.0,129.0,-972.0
81.0,26.0,-279.0,-50.0,8.0,-5.0,309.0,126.0,-976.0
79.0,27.0,-276.0,-50.0,8.0,-5.0,301.0,131.0,-978.0
79.0,28.0,-275.0,-49.0,8.0,-6.0,308.0,131.0,-972.0
77.0,29.0,-275.0,-50.0,8.0,-5.0,307.0,133.0,-974.0
76.0,30.0,-274.0,-52.0,7.0,-5.0,303.0,127.0,-976.0
79.0,30.0,-275.0,-51.0,7.0,-5.0,306.0,130.0,-969.0
79.0,29.0,-274.0,-52.0,6.0,-5.0,305.0,129.0,-972.0
78.0,29.0,-275.0,-51.0,7.0,-6.0,306.0,128.0,-968.0
79.0,28.0,-271.0,-49.0,6.0,-6.0,303.0,131.0,-971.0
80.0,24.0,-272.0,-48.0,6.0,-6.0,305.0,126.0,-972.0
82.0,27.0,-275.0,-49.0,4.0,-5.0,306.0,132.0,-971.0
81.0,28.0,-270.0,-48.0,4.0,-5.0,306.0,132.0,-971.0
76.0,28.0,-274.0,-46.0,3.0,-5.0,307.0,134.0,-971.0
81.0,27.0,-274.0,-47.0,3.0,-5.0,308.0,126.0,-974.0
78.0,30.0,-275.0,-49.0,3.0,-5.0,307.0,127.0,-974.0
78.0,31.0,-273.0,-49.0,3.0,-5.0,306.0,132.0,-974.0
80.0,27.0,-275.0,-47.0,3.0,-4.0,306.0,130.0,-972.0
80.0,27.0,-277.0,-46.0,4.0,-5.0,301.0,132.0,-975.0
77.0,28.0,-278.0,-48.0,4.0,-4.0,304.0,127.0,-973.0
79.0,27.0,-272.0,-46.0,5.0,-4.0,299.0,129.0,-976.0
79.0,27.0,-275.0,-47.0,5.0,-4.0,306.0,125.0,-972.0
80.0,28.0,-274.0,-47.0,4.0,-3.0,304.0,133.0,-982.0
80.0,22.0,-270.0,-47.0,7.0,-5.0,308.0,132.0,-977.0
79.0,30.0,-275.0,-48.0,6.0,-6.0,306.0,133.0,-978.0
79.0,27.0,-276.0,-48.0,7.0,-6.0,300.0,133.0,-976.0
77.0,29.0,-275.0,-47.0,8.0,-6.0,302.0,130.0,-974.0
79.0,29.0,-272.0,-46.0,7.0,-5.0,306.0,131.0,-971.0
79.0,27.0,-275.0,-46.0,9.0,-3.0,300.0,127.0,-972.0
79.0,27.0,-275.0,-46.0,11.0,-4.0,308.0,127.0,-977.0
79.0,26.0,-277.0,-45.0,10.0,-3.0,307.0,133.0,-975.0
79.0,28.0,-273.0,-45.0,9.0,-6.0,302.0,130.0,-976.0
79.0,27.0,-275.0,-46.0,9.0,-5.0,302.0,130.0,-972.0
82.0,27.0,-277.0,-46.0,10.0,-5.0,305.0,125.0,-974.0
77.0,30.0,-280.0,-44.0,10.0,-4.0,302.0,125.0,-973.0
79.0,27.0,-272.0,-44.0,10.0,-3.0,304.0,131.0,-975.0
77.0,29.0,-274.0,-46.0,9.0,-4.0,302.0,132.0,-978.0
78.0,29.0,-273.0,-45.0,10.0,-4.0,306.0,132.0,-973.0
81.0,25.0,-274.0,-45.0,9.0,-5.0,305.0,131.0,-979.0
77.0,27.0,-274.0,-45.0,8.0,-5.0,301.0,133.0,-976.0
79.0,26.0,-272.0,-45.0,10.0,-4.0,303.0,131.0,-978.0
78.0,28.0,-279.0,-44.0,11.0,-5.0,301.0,127.0,-972.0
76.0,27.0,-275.0,-45.0,11.0,-5.0,304.0,132.0,-982.0
79.0,26.0,-276.0,-44.0,12.0,-4.0,302.0,129.0,-981.0
81.0,27.0,-274.0,-45.0,11.0,-5.0,305.0,136.0,-977.0
76.0,30.0,-277.0,-46.0,11.0,-5.0,305.0,133.0,-974.0
80.0,27.0,-275.0,-45.0,12.0,-4.0,304.0,134.0,-975.0
79.0,31.0,-274.0,-44.0,10.0,-5.0,305.0,129.0,-978.0
80.0,27.0,-273.0,-44.0,11.0,-4.0,301.0,125.0,-970.0
79.0,30.0,-274.0,-45.0,13.0,-4.0,304.0,128.0,-980.0
81.0,29.0,-278.0,-44.0,13.0,-5.0,307.0,130.0,-976.0
79.0,28.0,-276.0,-47.0,13.0,-4.0,306.0,131.0,-974.0
80.0,28.0,-274.0,-44.0,12.0,-3.0,302.0,128.0,-978.0
79.0,28.0,-274.0,-45.0,11.0,-4.0,304.0,132.0,-974.0
78.0,31.0,-277.0,-43.0,10.0,-4.0,302.0,129.0,-977.0
80.0,25.0,-270.0,-45.0,10.0,-4.0,304.0,130.0,-972.0
80.0,29.0,-275.0,-44.0,10.0,-3.0,299.0,126.0,-973.0
81.0,25.0,-278.0,-45.0,11.0,-3.0,307.0,127.0,-977.0
76.0,27.0,-270.0,-47.0,11.0,-4.0,306.0,131.0,-982.0
78.0,29.0,-275.0,-46.0,11.0,-4.0,306.0,129.0,-974.0
78.0,28.0,-276.0,-46.0,10.0,-3.0,309.0,132.0,-977.0
77.0,27.0,-272.0,-46.0,10.0,-2.0,303.0,125.0,-978.0
78.0,28.0,-276.0,-45.0,11.0,-3.0,305.0,127.0,-981.0
77.0,27.0,-273.0,-46.0,11.0,-4.0,298.0,128.0,-975.0
79.0,27.0,-273.0,-46.0,11.0,-4.0,304.0,126.0,-976.0
79.0,27.0,-277.0,-46.0,11.0,-4.0,303.0,130.0,-972.0
79.0,28.0,-274.0,-46.0,11.0,-6.0,306.0,126.0,-979.0
78.0,31.0,-275.0,-47.0,12.0,-4.0,303.0,128.0,-974.0
80.0,27.0,-276.0,-46.0,12.0,-3.0,302.0,129.0,-979.0
79.0,30.0,-275.0,-44.0,13.0,-3.0,303.0,133.0,-978.0
79.0,27.0,-277.0,-43.0,13.0,-3.0,302.0,130.0,-976.0
79.0,29.0,-274.0,-43.0,14.0,-3.0,307.0,129.0,-975.0
79.0,30.0,-275.0,-44.0,15.0,-3.0,308.0,130.0,-977.0
78.0,28.0,-276.0,-46.0,17.0,-2.0,300.0,132.0,-976.0
79.0,27.0,-274.0,-41.0,16.0,-2.0,300.0,128.0,-972.0
75.0,28.0,-271.0,-44.0,16.0,-3.0,305.0,132.0,-980.0
79.0,27.0,-275.0,-44.0,17.0,-3.0,306.0,130.0,-972.0
82.0,28.0,-275.0,-46.0,16.0,-3.0,306.0,128.0,-971.0
79.0,27.0,-277.0,-47.0,14.0,-5.0,304.0,130.0,-973.0
82.0,26.0,-279.0,-49.0,13.0,-4.0,307.0,128.0,-970.0
78.0,29.0,-275.0,-51.0,12.0,-5.0,303.0,129.0,-970.0
78.0,27.0,-273.0,-52.0,11.0,-6.0,299.0,129.0,-974.0
80.0,29.0,-275.0,-50.0,8.0,-6.0,302.0,130.0,-971.0
80.0,28.0,-276.0,-47.0,7.0,-6.0,299.0,129.0,-978.0
81.0,28.0,-277.0,-47.0,5.0,-5.0,305.0,124.0,-980.0
81.0,27.0,-275.0,-46.0,4.0,-7.0,305.0,124.0,-978.0
78.0,28.0,-277.0,-45.0,2.0,-5.0,309.0,128.0,-975.0
78.0,29.0,-273.0,-47.0,3.0,-5.0,300.0,128.0,-979.0
79.0,26.0,-274.0,-47.0,5.0,-5.0,303.0,129.0,-977.0
77.0,29.0,-272.0,-49.0,5.0,-5.0,303.0,127.0,-970.0
77.0,30.0,-278.0,-49.0,7.0,-5.0,299.0,129.0,-977.0
78.0,29.0,-272.0,-51.0,8.0,-5.0,299.0,132.0,-976.0
80.0,26.0,-274.0,-48.0,9.0,-7.0,300.0,131.0,-975.0
79.0,30.0,-274.0,-48.0,9.0,-4.0,300.0,131.0,-977.0
77.0,31.0,-276.0,-46.0,9.0,-4.0,306.0,133.0,-975.0
80.0,27.0,-278.0,-45.0,8.0,-4.0,304.0,129.0,-972.0
77.0,30.0,-275.0,-46.0,10.0,-6.0,303.0,131.0,-974.0
81.0,31.0,-278.0,-47.0,10.0,-6.0,303.0,134.0,-978.0
82.0,29.0,-277.0,-46.0,10.0,-6.0,299.0,131.0,-976.0
79.0,28.0,-275.0,-45.0,9.0,-4.0,300.0,131.0,-972.0
80.0,33.0,-275.0,-44.0,9.0,-3.0,303.0,128.0,-975.0
82.0,25.0,-278.0,-44.0,9.0,-5.0,303.0,128.0,-978.0
78.0,29.0,-275.0,-44.0,8.0,-3.0,303.0,125.0,-975.0
78.0,29.0,-277.0,-42.0,8.0,-3.0,305.0,131.0,-975.0
78.0,30.0,-274.0,-42.0,8.0,-2.0,301.0,127.0,-979.0
81.0,26.0,-275.0,-45.0,8.0,-4.0,301.0,134.0,-975.0
78.0,29.0,-278.0,-45.0,6.0,-5.0,299.0,131.0,-969.0
79.0,28.0,-274.0,-43.0,6.0,-5.0,301.0,134.0,-973.0
76.0,29.0,-276.0,-43.0,6.0,-5.0,302.0,129.0,-977.0
78.0,29.0,-275.0,-44.0,5.0,-4.0,301.0,130.0,-980.0
78.0,25.0,-273.0,-44.0,6.0,-4.0,299.0,127.0,-972.0
80.0,30.0,-276.0,-44.0,7.0,-4.0,300.0,130.0,-971.0
79.0,29.0,-276.0,-45.0,7.0,-4.0,304.0,124.0,-977.0
79.0,26.0,-276.0,-44.0,7.0,-4.0,303.0,128.0,-979.0
76.0,28.0,-278.0,-43.0,8.0,-4.0,305.0,131.0,-976.0
80.0,30.0,-275.0,-45.0,8.0,-4.0,302.0,132.0,-981.0
79.0,29.0,-278.0,-44.0,8.0,-4.0,302.0,128.0,-976.0
77.0,30.0,-275.0,-42.0,8.0,-4.0,305.0,133.0,-979.0
79.0,27.0,-276.0,-44.0,9.0,-3.0,302.0,131.0,-980.0
80.0,29.0,-275.0,-43.0,10.0,-4.0,302.0,132.0,-978.0
78.0,29.0,-275.0,-45.0,11.0,-5.0,297.0,131.0,-975.0
81.0,27.0,-276.0,-46.0,12.0,-4.0,300.0,133.0,-977.0
75.0,27.0,-283.0,-45.0,12.0,-5.0,303.0,128.0,-979.0
80.0,28.0,-273.0,-45.0,12.0,-5.0,302.0,131.0,-979.0
79.0,26.0,-275.0,-47.0,13.0,-4.0,301.0,131.0,-979.0
80.0,30.0,-277.0,-46.0,12.0,-3.0,301.0,131.0,-974.0
79.0,27.0,-278.0,-46.0,13.0,-5.0,300.0,128.0,-975.0
78.0,30.0,-271.0,-45.0,14.0,-5.0,303.0,132.0,-978.0
81.0,28.0,-275.0,-44.0,14.0,-5.0,301.0,128.0,-975.0
77.0,27.0,-279.0,-45.0,15.0,-4.0,296.0,132.0,-973.0
80.0,27.0,-273.0,-45.0,15.0,-5.0,299.0,126.0,-976.0
82.0,29.0,-272.0,-45.0,15.0,-5.0,301.0,129.0,-975.0
80.0,29.0,-277.0,-47.0,17.0,-3.0,302.0,131.0,-973.0
75.0,29.0,-273.0,-48.0,17.0,-4.0,296.0,128.0,-975.0
80.0,30.0,-277.0,-46.0,17.0,-4.0,302.0,131.0,-973.0
76.0,26.0,-275.0,-47.0,19.0,-5.0,304.0,127.0,-976.0
76.0,28.0,-273.0,-47.0,18.0,-5.0,299.0,124.0,-977.0
79.0,28.0,-277.0,-47.0,18.0,-4.0,300.0,131.0,-975.0
76.0,31.0,-271.0,-47.0,20.0,-4.0,302.0,128.0,-973.0
77.0,27.0,-273.0,-46.0,19.0,-6.0,302.0,131.0,-981.0
80.0,26.0,-277.0,-46.0,19.0,-5.0,298.0,127.0,-975.0
78.0,26.0,-274.0,-46.0,21.0,-5.0,301.0,129.0,-978.0
80.0,26.0,-273.0,-46.0,21.0,-4.0,299.0,126.0,-979.0
77.0,25.0,-274.0,-46.0,21.0,-5.0,303.0,131.0,-977.0
76.0,29.0,-271.0,-48.0,21.0,-4.0,303.0,127.0,-976.0
78.0,27.0,-273.0,-48.0,21.0,-4.0,303.0,130.0,-975.0
79.0,28.0,-273.0,-47.0,20.0,-5.0,302.0,129.0,-975.0
79.0,30.0,-276.0,-48.0,21.0,-5.0,301.0,125.0,-977.0
80.0,28.0,-271.0,-49.0,21.0,-4.0,300.0,129.0,-972.0
79.0,26.0,-278.0,-48.0,20.0,-4.0,300.0,127.0,-980.0
79.0,31.0,-277.0,-48.0,19.0,-4.0,296.0,132.0,-975.0
79.0,29.0,-274.0,-47.0,19.0,-4.0,304.0,130.0,-975.0
78.0,31.0,-275.0,-47.0,20.0,-5.0,299.0,132.0,-977.0
79.0,27.0,-276.0,-47.0,20.0,-5.0,299.0,125.0,-979.0
77.0,29.0,-275.0,-48.0,19.0,-4.0,298.0,131.0,-975.0
79.0,26.0,-276.0,-48.0,20.0,-5.0,297.0,131.0,-976.0
77.0,28.0,-275.0,-47.0,20.0,-4.0,301.0,129.0,-979.0
78.0,30.0,-274.0,-45.0,19.0,-5.0,302.0,130.0,-974.0
80.0,27.0,-271.0,-46.0,19.0,-5.0,306.0,130.0,-975.0
76.0,25.0,-276.0,-47.0,18.0,-3.0,304.0,134.0,-972.0
78.0,30.0,-275.0,-47.0,19.0,-5.0,305.0,129.0,-974.0
80.0,27.0,-274.0,-45.0,19.0,-4.0,301.0,132.0,-978.0
78.0,28.0,-271.0,-45.0,17.0,-5.0,301.0,128.0,-973.0
76.0,28.0,-273.0,-47.0,16.0,-4.0,304.0,129.0,-967.0
77.0,26.0,-275.0,-46.0,14.0,-4.0,300.0,131.0,-968.0
78.0,31.0,-277.0,-46.0,13.0,-5.0,304.0,131.0,-973.0
68.0,23.0,-270.0,-46.0,13.0,-5.0,302.0,130.0,-974.0
79.0,28.0,-276.0,-46.0,11.0,-4.0,303.0,130.0,-979.0
79.0,26.0,-278.0,-45.0,11.0,-4.0,303.0,132.0,-974.0
79.0,28.0,-274.0,-46.0,11.0,-3.0,298.0,132.0,-974.0
76.0,32.0,-276.0,-44.0,11.0,-3.0,299.0,131.0,-975.0
76.0,29.0,-274.0,-44.0,11.0,-4.0,302.0,133.0,-973.0
78.0,27.0,-277.0,-45.0,10.0,-3.0,302.0,132.0,-972.0
79.0,28.0,-274.0,-46.0,9.0,-4.0,299.0,131.0,-973.0
80.0,25.0,-277.0,-45.0,9.0,-4.0,303.0,129.0,-979.0
79.0,27.0,-276.0,-44.0,10.0,-4.0,301.0,128.0,-977.0
79.0,31.0,-277.0,-46.0,11.0,-3.0,302.0,130.0,-979.0
79.0,31.0,-275.0,-46.0,12.0,-4.0,298.0,130.0,-967.0
73.0,31.0,-272.0,-46.0,12.0,-4.0,302.0,129.0,-977.0
75.0,31.0,-279.0,-46.0,13.0,-4.0,298.0,132.0,-979.0
77.0,30.0,-274.0,-46.0,13.0,-4.0,303.0,130.0,-976.0
78.0,29.0,-274.0,-44.0,13.0,-4.0,300.0,134.0,-977.0
79.0,29.0,-278.0,-46.0,14.0,-4.0,299.0,128.0,-979.0
80.0,27.0,-276.0,-47.0,14.0,-4.0,302.0,130.0,-975.0
80.0,30.0,-276.0,-45.0,15.0,-4.0,306.0,127.0,-976.0
76.0,29.0,-273.0,-44.0,16.0,-3.0,303.0,132.0,-976.0
79.0,28.0,-276.0,-45.0,16.0,-4.0,301.0,125.0,-972.0
78.0,27.0,-279.0,-44.0,15.0,-4.0,303.0,128.0,-973.0
78.0,27.0,-266.0,-43.0,16.0,-3.0,304.0,131.0,-974.0
76.0,29.0,-275.0,-44.0,16.0,-5.0,301.0,130.0,-978.0
79.0,26.0,-275.0,-46.0,15.0,-2.0,302.0,132.0,-971.0
78.0,28.0,-274.0,-46.0,15.0,-2.0,304.0,131.0,-972.0
80.0,27.0,-276.0,-44.0,15.0,-3.0,299.0,127.0,-973.0
79.0,30.0,-274.0,-45.0,13.0,-3.0,299.0,130.0,-979.0
78.0,29.0,-274.0,-44.0,14.0,-3.0,300.0,127.0,-973.0
78.0,32.0,-273.0,-43.0,14.0,-3.0,301.0,129.0,-978.0
79.0,28.0,-278.0,-45.0,13.0,-4.0,299.0,127.0,-974.0
80.0,26.0,-274.0,-46.0,13.0,-4.0,300.0,128.0,-973.0
77.0,29.0,-274.0,-45.0,12.0,-4.0,301.0,132.0,-970.0
78.0,27.0,-272.0,-45.0,13.0,-4.0,299.0,132.0,-975.0
78.0,28.0,-280.0,-47.0,12.0,-5.0,301.0,125.0,-977.0
77.0,28.0,-272.0,-46.0,11.0,-4.0,297.0,125.0,-973.0
78.0,28.0,-273.0,-47.0,11.0,-5.0,301.0,128.0,-972.0
75.0,31.0,-275.0,-45.0,9.0,-3.0,303.0,129.0,-978.0
78.0,28.0,-273.0,-44.0,6.0,-3.0,303.0,128.0,-975.0
79.0,26.0,-273.0,-45.0,8.0,-4.0,304.0,128.0,-978.0
76.0,27.0,-279.0,-45.0,7.0,-3.0,299.0,131.0,-981.0
81.0,26.0,-275.0,-45.0,6.0,-3.0,298.0,133.0,-973.0
79.0,27.0,-277.0,-45.0,8.0,-4.0,303.0,129.0,-974.0
81.0,28.0,-267.0,-45.0,10.0,-4.0,303.0,129.0,-982.0
77.0,31.0,-276.0,-45.0,9.0,-4.0,297.0,131.0,-976.0
81.0,28.0,-276.0,-45.0,10.0,-2.0,304.0,124.0,-976.0
77.0,29.0,-273.0,-44.0,12.0,-2.0,301.0,134.0,-980.0
78.0,31.0,-276.0,-44.0,15.0,-3.0,301.0,127.0,-978.0
78.0,28.0,-276.0,-44.0,16.0,-4.0,301.0,135.0,-979.0
78.0,25.0,-273.0,-43.0,16.0,-5.0,303.0,129.0,-978.0
77.0,27.0,-276.0,-45.0,16.0,-4.0,304.0,124.0,-974.0
79.0,25.0,-276.0,-43.0,16.0,-5.0,302.0,130.0,-972.0
79.0,27.0,-274.0,-44.0,15.0,-3.0,307.0,128.0,-977.0
78.0,28.0,-274.0,-44.0,15.0,-4.0,304.0,125.0,-971.0
76.0,27.0,-274.0,-44.0,14.0,-4.0,301.0,127.0,-973.0
77.0,29.0,-277.0,-46.0,13.0,-4.0,303.0,126.0,-973.0
79.0,29.0,-268.0,-48.0,11.0,-5.0,303.0,128.0,-970.0
77.0,32.0,-272.0,-49.0,9.0,-4.0,299.0,128.0,-971.0
79.0,28.0,-273.0,-47.0,8.0,-5.0,299.0,133.0,-971.0
79.0,28.0,-277.0,-46.0,6.0,-4.0,298.0,128.0,-975.0
78.0,30.0,-276.0,-46.0,5.0,-3.0,298.0,129.0,-974.0
81.0,28.0,-275.0,-44.0,6.0,-3.0,304.0,124.0,-977.0
79.0,29.0,-276.0,-45.0,7.0,-3.0,298.0,128.0,-980.0
78.0,28.0,-277.0,-43.0,5.0,-3.0,303.0,131.0,-983.0
80.0,29.0,-278.0,-44.0,5.0,-3.0,302.0,129.0,-978.0
77.0,29.0,-277.0,-46.0,7.0,-3.0,298.0,129.0,-976.0
76.0,26.0,-275.0,-46.0,10.0,-4.0,301.0,132.0,-975.0
78.0,30.0,-275.0,-47.0,12.0,-4.0,299.0,129.0,-978.0
78.0,28.0,-275.0,-47.0,13.0,-5.0,301.0,127.0,-976.0
78.0,29.0,-273.0,-47.0,15.0,-3.0,299.0,131.0,-978.0
78.0,31.0,-277.0,-47.0,15.0,-2.0,300.0,129.0,-973.0
76.0,28.0,-278.0,-47.0,15.0,-3.0,308.0,125.0,-974.0
76.0,27.0,-272.0,-46.0,16.0,-3.0,299.0,128.0,-974.0
79.0,29.0,-272.0,-46.0,16.0,-4.0,302.0,133.0,-977.0
78.0,28.0,-272.0,-46.0,14.0,-3.0,302.0,129.0,-977.0
77.0,28.0,-273.0,-46.0,14.0,-4.0,300.0,130.0,-974.0
80.0,26.0,-274.0,-47.0,14.0,-5.0,302.0,130.0,-975.0
78.0,28.0,-276.0,-45.0,14.0,-4.0,298.0,127.0,-977.0
77.0,29.0,-275.0,-44.0,13.0,-5.0,295.0,130.0,-974.0
81.0,28.0,-279.0,-45.0,13.0,-3.0,295.0,129.0,-976.0
79.0,28.0,-277.0,-44.0,12.0,-3.0,303.0,128.0,-983.0
77.0,29.0,-276.0,-46.0,12.0,-3.0,298.0,129.0,-980.0
79.0,28.0,-278.0,-45.0,11.0,-2.0,297.0,127.0,-972.0
78.0,27.0,-276.0,-45.0,10.0,-3.0,298.0,131.0,-975.0
78.0,28.0,-277.0,-45.0,12.0,-4.0,299.0,130.0,-979.0
78.0,27.0,-271.0,-45.0,12.0,-4.0,302.0,129.0,-977.0
83.0,25.0,-275.0,-47.0,12.0,-2.0,299.0,127.0,-976.0
80.0,31.0,-274.0,-46.0,14.0,-3.0,302.0,126.0,-979.0
78.0,27.0,-274.0,-45.0,12.0,-4.0,298.0,131.0,-975.0
76.0,27.0,-277.0,-45.0,12.0,-4.0,300.0,126.0,-979.0
78.0,29.0,-277.0,-45.0,12.0,-4.0,300.0,128.0,-979.0
77.0,29.0,-274.0,-46.0,14.0,-2.0,301.0,132.0,-978.0
78.0,29.0,-275.0,-43.0,14.0,-3.0,302.0,130.0,-974.0
78.0,28.0,-276.0,-44.0,14.0,-2.0,304.0,129.0,-975.0
79.0,29.0,-272.0,-44.0,13.0,-3.0,297.0,130.0,-977.0
78.0,30.0,-277.0,-45.0,14.0,-3.0,302.0,127.0,-974.0
80.0,27.0,-276.0,-46.0,15.0,-3.0,300.0,127.0,-978.0
79.0,27.0,-276.0,-47.0,14.0,-3.0,303.0,129.0,-972.0
77.0,27.0,-278.0,-46.0,15.0,-3.0,299.0,127.0,-973.0
79.0,26.0,-273.0,-47.0,16.0,-4.0,305.0,130.0,-974.0
76.0,27.0,-276.0,-46.0,15.0,-3.0,303.0,132.0,-976.0
77.0,28.0,-278.0,-46.0,15.0,-2.0,295.0,128.0,-980.0
77.0,29.0,-275.0,-46.0,14.0,-3.0,300.0,132.0,-971.0
78.0,28.0,-275.0,-46.0,14.0,-4.0,302.0,122.0,-978.0
76.0,29.0,-277.0,-47.0,13.0,-3.0,300.0,129.0,-972.0
79.0,27.0,-274.0,-47.0,14.0,-3.0,300.0,127.0,-975.0
79.0,28.0,-276.0,-45.0,15.0,-4.0,293.0,129.0,-973.0
76.0,30.0,-276.0,-46.0,14.0,-5.0,304.0,132.0,-974.0
79.0,27.0,-272.0,-46.0,14.0,-3.0,296.0,129.0,-972.0
77.0,27.0,-274.0,-46.0,14.0,-4.0,300.0,129.0,-973.0
77.0,29.0,-278.0,-46.0,16.0,-3.0,293.0,129.0,-976.0
80.0,28.0,-277.0,-45.0,15.0,-3.0,299.0,126.0,-978.0
76.0,29.0,-276.0,-45.0,16.0,-5.0,300.0,132.0,-981.0
76.0,31.0,-275.0,-46.0,17.0,-4.0,302.0,129.0,-978.0
76.0,31.0,-277.0,-47.0,16.0,-3.0,300.0,129.0,-975.0
78.0,27.0,-277.0,-48.0,17.0,-4.0,300.0,124.0,-978.0
79.0,27.0,-274.0,-48.0,17.0,-3.0,298.0,128.0,-981.0
80.0,29.0,-275.0,-47.0,16.0,-3.0,296.0,123.0,-977.0
77.0,28.0,-277.0,-47.0,15.0,-4.0,296.0,131.0,-978.0
78.0,28.0,-275.0,-49.0,15.0,-4.0,299.0,129.0,-981.0
80.0,25.0,-278.0,-48.0,16.0,-4.0,301.0,127.0,-981.0
78.0,29.0,-275.0,-49.0,16.0,-4.0,303.0,133.0,-977.0
78.0,28.0,-275.0,-49.0,16.0,-4.0,301.0,126.0,-975.0
77.0,28.0,-276.0,-50.0,17.0,-3.0,302.0,127.0,-980.0
79.0,28.0,-275.0,-49.0,16.0,-3.0,298.0,131.0,-976.0
77.0,29.0,-275.0,-49.0,18.0,-4.0,298.0,129.0,-979.0
77.0,28.0,-277.0,-49.0,18.0,-4.0,299.0,126.0,-980.0
79.0,31.0,-275.0,-50.0,20.0,-3.0,302.0,129.0,-977.0
80.0,26.0,-275.0,-50.0,20.0,-4.0,301.0,133.0,-975.0
78.0,30.0,-276.0,-49.0,20.0,-4.0,303.0,131.0,-977.0
77.0,28.0,-272.0,-48.0,21.0,-4.0,301.0,131.0,-977.0
79.0,29.0,-276.0,-49.0,21.0,-5.0,304.0,132.0,-976.0
76.0,32.0,-276.0,-49.0,20.0,-5.0,298.0,131.0,-976.0
78.0,27.0,-277.0,-48.0,19.0,-5.0,297.0,127.0,-978.0
80.0,27.0,-277.0,-49.0,20.0,-4.0,295.0,125.0,-973.0
78.0,30.0,-275.0,-48.0,19.0,-5.0,295.0,132.0,-974.0
77.0,28.0,-273.0,-47.0,18.0,-5.0,301.0,126.0,-972.0
81.0,27.0,-275.0,-46.0,17.0,-3.0,300.0,128.0,-976.0
77.0,30.0,-277.0,-46.0,17.0,-5.0,302.0,133.0,-973.0
76.0,29.0,-275.0,-48.0,17.0,-4.0,302.0,127.0,-975.0
77.0,31.0,-278.0,-46.0,16.0,-3.0,300.0,128.0,-977.0
77.0,30.0,-271.0,-46.0,16.0,-4.0,295.0,128.0,-974.0
76.0,29.0,-273.0,-48.0,16.0,-4.0,307.0,128.0,-973.0
79.0,28.0,-275.0,-47.0,16.0,-4.0,304.0,131.0,-979.0
77.0,28.0,-280.0,-47.0,16.0,-5.0,296.0,132.0,-975.0
76.0,28.0,-275.0,-47.0,16.0,-4.0,298.0,126.0,-978.0
77.0,27.0,-270.0,-46.0,16.0,-3.0,297.0,132.0,-976.0
80.0,26.0,-278.0,-47.0,17.0,-4.0,301.0,127.0,-976.0
77.0,29.0,-276.0,-46.0,17.0,-3.0,301.0,129.0,-978.0
78.0,28.0,-277.0,-47.0,17.0,-4.0,300.0,130.0,-975.0
82.0,30.0,-278.0,-46.0,17.0,-4.0,297.0,134.0,-977.0
77.0,27.0,-277.0,-46.0,18.0,-5.0,298.0,131.0,-981.0
79.0,26.0,-277.0,-46.0,18.0,-3.0,302.0,128.0,-977.0
80.0,28.0,-277.0,-47.0,19.0,-3.0,299.0,133.0,-977.0
79.0,33.0,-279.0,-47.0,18.0,-3.0,298.0,126.0,-977.0
79.0,29.0,-276.0,-47.0,18.0,-3.0,303.0,127.0,-974.0
78.0,28.0,-273.0,-46.0,18.0,-3.0,301.0,127.0,-973.0
80.0,28.0,-276.0,-46.0,18.0,-4.0,299.0,129.0,-972.0
77.0,29.0,-274.0,-46.0,18.0,-4.0,301.0,128.0,-974.0
79.0,24.0,-276.0,-47.0,18.0,-3.0,301.0,128.0,-971.0
77.0,28.0,-273.0,-47.0,16.0,-3.0,303.0,130.0,-974.0
78.0,27.0,-274.0,-46.0,17.0,-3.0,302.0,130.0,-974.0
77.0,30.0,-275.0,-47.0,17.0,-3.0,299.0,126.0,-974.0
77.0,27.0,-272.0,-47.0,16.0,-4.0,302.0,129.0,-974.0
79.0,26.0,-275.0,-47.0,17.0,-4.0,300.0,129.0,-975.0
78.0,28.0,-276.0,-47.0,16.0,-5.0,302.0,131.0,-971.0
78.0,30.0,-277.0,-47.0,16.0,-4.0,297.0,130.0,-979.0
77.0,29.0,-276.0,-48.0,16.0,-5.0,300.0,132.0,-977.0
75.0,30.0,-277.0,-49.0,17.0,-5.0,299.0,132.0,-976.0
77.0,31.0,-279.0,-49.0,16.0,-3.0,300.0,132.0,-974.0
79.0,29.0,-276.0,-48.0,15.0,-3.0,302.0,134.0,-982.0
77.0,28.0,-275.0,-47.0,16.0,-4.0,297.0,131.0,-979.0
77.0,29.0,-277.0,-46.0,15.0,-3.0,295.0,128.0,-977.0
79.0,28.0,-275.0,-47.0,17.0,-4.0,303.0,131.0,-976.0
74.0,29.0,-278.0,-46.0,16.0,-3.0,300.0,131.0,-979.0
79.0,26.0,-278.0,-46.0,16.0,-4.0,303.0,125.0,-978.0
77.0,30.0,-274.0,-48.0,18.0,-4.0,299.0,126.0,-977.0
79.0,26.0,-272.0,-47.0,20.0,-4.0,302.0,130.0,-980.0
80.0,28.0,-277.0,-44.0,20.0,-3.0,299.0,128.0,-977.0
75.0,29.0,-273.0,-44.0,19.0,-3.0,299.0,131.0,-978.0
77.0,28.0,-277.0,-45.0,19.0,-3.0,298.0,128.0,-979.0
77.0,26.0,-275.0,-46.0,19.0,-2.0,299.0,132.0,-977.0
78.0,27.0,-274.0,-44.0,18.0,-3.0,303.0,128.0,-977.0
77.0,28.0,-276.0,-45.0,18.0,-4.0,300.0,127.0,-975.0
77.0,27.0,-272.0,-46.0,18.0,-4.0,300.0,130.0,-972.0
79.0,28.0,-273.0,-47.0,17.0,-5.0,298.0,126.0,-971.0
78.0,31.0,-274.0,-49.0,16.0,-3.0,303.0,126.0,-970.0
79.0,26.0,-276.0,-48.0,15.0,-4.0,300.0,133.0,-967.0
76.0,29.0,-278.0,-49.0,12.0,-4.0,304.0,128.0,-970.0
78.0,26.0,-272.0,-48.0,12.0,-5.0,301.0,133.0,-970.0
80.0,26.0,-277.0,-46.0,11.0,-5.0,302.0,133.0,-981.0
78.0,27.0,-276.0,-44.0,12.0,-3.0,302.0,128.0,-975.0
79.0,28.0,-273.0,-44.0,10.0,-3.0,309.0,124.0,-978.0
76.0,28.0,-276.0,-45.0,11.0,-5.0,300.0,125.0,-980.0
79.0,25.0,-275.0,-47.0,11.0,-5.0,297.0,123.0,-977.0
80.0,29.0,-275.0,-48.0,14.0,-4.0,299.0,128.0,-976.0
80.0,30.0,-277.0,-48.0,14.0,-5.0,296.0,124.0,-979.0
77.0,27.0,-276.0,-50.0,14.0,-4.0,300.0,128.0,-977.0
78.0,31.0,-273.0,-50.0,15.0,-5.0,299.0,131.0,-976.0
79.0,25.0,-275.0,-49.0,15.0,-5.0,301.0,131.0,-978.0
77.0,29.0,-274.0,-47.0,16.0,-4.0,296.0,128.0,-981.0
78.0,29.0,-276.0,-48.0,17.0,-3.0,301.0,129.0,-975.0
79.0,30.0,-275.0,-49.0,18.0,-3.0,301.0,129.0,-973.0
77.0,30.0,-276.0,-48.0,16.0,-3.0,302.0,135.0,-973.0
80.0,28.0,-273.0,-46.0,15.0,-4.0,298.0,135.0,-977.0
75.0,30.0,-273.0,-47.0,17.0,-3.0,302.0,130.0,-974.0
75.0,33.0,-275.0,-46.0,17.0,-4.0,301.0,132.0,-977.0
76.0,29.0,-278.0,-45.0,18.0,-3.0,299.0,130.0,-972.0
78.0,30.0,-275.0,-45.0,16.0,-3.0,301.0,127.0,-972.0
80.0,29.0,-277.0,-47.0,18.0,-3.0,301.0,130.0,-977.0
78.0,33.0,-274.0,-46.0,17.0,-3.0,301.0,127.0,-972.0
78.0,31.0,-273.0,-46.0,15.0,-4.0,299.0,128.0,-973.0
76.0,27.0,-277.0,-46.0,16.0,-5.0,302.0,128.0,-974.0
79.0,27.0,-273.0,-46.0,15.0,-5.0,302.0,128.0,-978.0
78.0,27.0,-274.0,-45.0,15.0,-5.0,305.0,132.0,-974.0
77.0,29.0,-274.0,-46.0,15.0,-4.0,306.0,133.0,-974.0
79.0,30.0,-277.0,-46.0,16.0,-4.0,303.0,127.0,-978.0
81.0,25.0,-269.0,-47.0,15.0,-4.0,299.0,128.0,-978.0
79.0,31.0,-275.0,-47.0,15.0,-3.0,302.0,133.0,-969.0
79.0,25.0,-274.0,-46.0,15.0,-3.0,300.0,129.0,-967.0
77.0,30.0,-273.0,-46.0,15.0,-4.0,295.0,135.0,-977.0
79.0,27.0,-275.0,-45.0,15.0,-4.0,299.0,127.0,-972.0
77.0,27.0,-277.0,-46.0,16.0,-3.0,299.0,130.0,-972.0
79.0,27.0,-274.0,-46.0,16.0,-4.0,302.0,129.0,-974.0
76.0,27.0,-276.0,-46.0,15.0,-3.0,298.0,128.0,-972.0
77.0,27.0,-276.0,-45.0,16.0,-4.0,301.0,133.0,-975.0
80.0,27.0,-277.0,-44.0,17.0,-4.0,299.0,125.0,-975.0
79.0,27.0,-275.0,-44.0,18.0,-4.0,296.0,126.0,-977.0
79.0,28.0,-277.0,-46.0,17.0,-3.0,300.0,128.0,-979.0
77.0,28.0,-273.0,-46.0,17.0,-4.0,302.0,130.0,-977.0
76.0,28.0,-275.0,-45.0,18.0,-4.0,300.0,127.0,-978.0
78.0,31.0,-274.0,-45.0,18.0,-3.0,302.0,130.0,-972.0
77.0,30.0,-275.0,-48.0,19.0,-3.0,299.0,131.0,-979.0
77.0,29.0,-274.0,-46.0,17.0,-3.0,298.0,131.0,-970.0
77.0,31.0,-274.0,-47.0,16.0,-2.0,300.0,128.0,-978.0
79.0,27.0,-279.0,-46.0,15.0,-4.0,303.0,129.0,-982.0
76.0,28.0,-274.0,-46.0,16.0,-4.0,300.0,132.0,-976.0
79.0,27.0,-275.0,-47.0,16.0,-3.0,299.0,129.0,-975.0
79.0,28.0,-276.0,-48.0,17.0,-3.0,298.0,130.0,-971.0
80.0,28.0,-278.0,-48.0,16.0,-3.0,302.0,130.0,-978.0
79.0,31.0,-273.0,-48.0,16.0,-3.0,306.0,124.0,-972.0
79.0,29.0,-276.0,-47.0,16.0,-5.0,298.0,132.0,-975.0
75.0,28.0,-274.0,-45.0,17.0,-2.0,299.0,131.0,-976.0
78.0,28.0,-273.0,-46.0,16.0,-3.0,297.0,125.0,-973.0
79.0,28.0,-277.0,-47.0,16.0,-3.0,300.0,128.0,-971.0
78.0,28.0,-274.0,-47.0,15.0,-5.0,300.0,126.0,-975.0
78.0,29.0,-273.0,-46.0,15.0,-3.0,302.0,131.0,-978.0
77.0,28.0,-276.0,-47.0,16.0,-4.0,294.0,130.0,-978.0
77.0,30.0,-275.0,-47.0,15.0,-3.0,299.0,132.0,-978.0
79.0,24.0,-270.0,-46.0,15.0,-4.0,301.0,128.0,-975.0
78.0,25.0,-278.0,-47.0,15.0,-4.0,301.0,125.0,-974.0
77.0,25.0,-275.0,-47.0,15.0,-4.0,299.0,131.0,-974.0
81.0,26.0,-275.0,-47.0,16.0,-4.0,306.0,127.0,-975.0
80.0,28.0,-275.0,-47.0,16.0,-4.0,302.0,130.0,-977.0
80.0,28.0,-272.0,-50.0,17.0,-4.0,302.0,129.0,-975.0
76.0,28.0,-277.0,-48.0,18.0,-5.0,297.0,131.0,-977.0
77.0,29.0,-277.0,-50.0,17.0,-4.0,302.0,129.0,-980.0
80.0,25.0,-276.0,-49.0,17.0,-4.0,296.0,127.0,-979.0
78.0,30.0,-276.0,-50.0,18.0,-5.0,298.0,126.0,-978.0
80.0,28.0,-277.0,-49.0,18.0,-5.0,299.0,129.0,-974.0
78.0,31.0,-275.0,-49.0,20.0,-5.0,301.0,129.0,-977.0
76.0,15.0,-271.0,-48.0,20.0,-4.0,301.0,121.0,-977.0
77.0,29.0,-274.0,-48.0,18.0,-5.0,298.0,129.0,-977.0
78.0,27.0,-275.0,-48.0,18.0,-4.0,300.0,126.0,-975.0
77.0,29.0,-275.0,-46.0,19.0,-4.0,304.0,129.0,-975.0
80.0,29.0,-276.0,-47.0,17.0,-6.0,297.0,129.0,-978.0
77.0,28.0,-274.0,-47.0,17.0,-5.0,303.0,135.0,-971.0
79.0,27.0,-272.0,-46.0,15.0,-4.0,304.0,135.0,-977.0
77.0,30.0,-277.0,-47.0,16.0,-4.0,301.0,131.0,-977.0
80.0,27.0,-274.0,-48.0,16.0,-4.0,303.0,126.0,-974.0
77.0,29.0,-274.0,-48.0,17.0,-5.0,305.0,128.0,-976.0
81.0,28.0,-276.0,-47.0,17.0,-4.0,302.0,130.0,-972.0
79.0,28.0,-274.0,-47.0,17.0,-3.0,298.0,128.0,-979.0
77.0,30.0,-277.0,-47.0,15.0,-4.0,298.0,130.0,-977.0
79.0,27.0,-272.0,-47.0,16.0,-3.0,300.0,128.0,-975.0
79.0,28.0,-276.0,-47.0,15.0,-4.0,299.0,134.0,-975.0
78.0,27.0,-278.0,-48.0,14.0,-5.0,300.0,128.0,-974.0
77.0,28.0,-275.0,-47.0,14.0,-5.0,297.0,130.0,-977.0
80.0,29.0,-274.0,-47.0,14.0,-4.0,300.0,130.0,-977.0
79.0,31.0,-274.0,-46.0,14.0,-4.0,303.0,134.0,-979.0
78.0,28.0,-278.0,-45.0,14.0,-3.0,297.0,133.0,-977.0
76.0,28.0,-275.0,-47.0,13.0,-4.0,297.0,134.0,-973.0
76.0,27.0,-276.0,-46.0,13.0,-4.0,300.0,130.0,-979.0
74.0,33.0,-285.0,-46.0,14.0,-4.0,300.0,130.0,-979.0
77.0,27.0,-276.0,-46.0,14.0,-3.0,298.0,132.0,-979.0
79.0,30.0,-275.0,-46.0,15.0,-4.0,301.0,131.0,-975.0
80.0,27.0,-274.0,-45.0,16.0,-5.0,299.0,131.0,-977.0
76.0,29.0,-274.0,-45.0,16.0,-5.0,300.0,130.0,-975.0
80.0,29.0,-274.0,-46.0,16.0,-4.0,293.0,128.0,-977.0
78.0,28.0,-272.0,-45.0,16.0,-4.0,297.0,127.0,-974.0
78.0,28.0,-275.0,-45.0,18.0,-3.0,306.0,129.0,-981.0
78.0,29.0,-278.0,-43.0,19.0,-4.0,300.0,128.0,-979.0
78.0,29.0,-275.0,-45.0,19.0,-4.0,302.0,131.0,-978.0
80.0,31.0,-279.0,-46.0,19.0,-4.0,298.0,134.0,-977.0
78.0,30.0,-274.0,-48.0,18.0,-3.0,300.0,131.0,-973.0
77.0,27.0,-273.0,-46.0,19.0,-4.0,296.0,131.0,-977.0
79.0,29.0,-279.0,-45.0,18.0,-2.0,294.0,130.0,-974.0
78.0,30.0,-278.0,-45.0,19.0,-3.0,302.0,128.0,-976.0
78.0,29.0,-274.0,-47.0,19.0,-4.0,305.0,133.0,-975.0
78.0,27.0,-273.0,-46.0,20.0,-4.0,295.0,125.0,-972.0
80.0,28.0,-276.0,-46.0,17.0,-3.0,303.0,130.0,-977.0
74.0,27.0,-275.0,-45.0,16.0,-3.0,303.0,129.0,-977.0
78.0,29.0,-279.0,-47.0,17.0,-4.0,300.0,132.0,-977.0
78.0,29.0,-278.0,-47.0,17.0,-4.0,300.0,132.0,-976.0
77.0,28.0,-277.0,-48.0,17.0,-5.0,307.0,131.0,-973.0
79.0,27.0,-270.0,-48.0,16.0,-4.0,301.0,128.0,-976.0
77.0,29.0,-277.0,-48.0,18.0,-6.0,301.0,127.0,-976.0
78.0,29.0,-276.0,-49.0,16.0,-4.0,301.0,128.0,-974.0
80.0,29.0,-275.0,-49.0,16.0,-5.0,302.0,127.0,-973.0
79.0,30.0,-277.0,-49.0,15.0,-5.0,302.0,131.0,-973.0
79.0,26.0,-279.0,-48.0,16.0,-5.0,298.0,132.0,-972.0
80.0,28.0,-275.0,-47.0,15.0,-6.0,300.0,129.0,-980.0
77.0,26.0,-271.0,-47.0,14.0,-5.0,299.0,129.0,-979.0
80.0,28.0,-275.0,-48.0,16.0,-4.0,302.0,131.0,-973.0
79.0,26.0,-274.0,-48.0,15.0,-4.0,295.0,131.0,-972.0
80.0,29.0,-278.0,-47.0,16.0,-4.0,302.0,132.0,-980.0
78.0,31.0,-277.0,-45.0,17.0,-5.0,304.0,134.0,-982.0
78.0,28.0,-276.0,-46.0,16.0,-4.0,299.0,131.0,-975.0
78.0,28.0,-273.0,-44.0,18.0,-4.0,304.0,131.0,-974.0
79.0,26.0,-273.0,-46.0,20.0,-5.0,301.0,132.0,-976.0
78.0,29.0,-275.0,-46.0,21.0,-4.0,303.0,131.0,-978.0
79.0,29.0,-277.0,-45.0,21.0,-3.0,300.0,133.0,-978.0
78.0,28.0,-279.0,-45.0,21.0,-4.0,305.0,129.0,-981.0
77.0,28.0,-275.0,-44.0,21.0,-4.0,301.0,135.0,-974.0
77.0,28.0,-274.0,-45.0,21.0,-5.0,305.0,130.0,-971.0
81.0,29.0,-274.0,-46.0,20.0,-5.0,303.0,132.0,-971.0
80.0,27.0,-277.0,-48.0,20.0,-5.0,304.0,132.0,-969.0
77.0,30.0,-276.0,-48.0,18.0,-5.0,299.0,131.0,-967.0
79.0,27.0,-274.0,-48.0,16.0,-6.0,305.0,128.0,-971.0
80.0,28.0,-276.0,-48.0,14.0,-5.0,303.0,132.0,-970.0
80.0,29.0,-274.0,-45.0,14.0,-4.0,301.0,126.0,-980.0
80.0,29.0,-275.0,-44.0,13.0,-4.0,304.0,126.0,-979.0
77.0,30.0,-276.0,-45.0,12.0,-4.0,299.0,127.0,-975.0
78.0,30.0,-274.0,-46.0,14.0,-3.0,300.0,128.0,-976.0
78.0,28.0,-276.0,-45.0,14.0,-4.0,300.0,133.0,-978.0
79.0,29.0,-272.0,-47.0,15.0,-4.0,304.0,132.0,-976.0
78.0,30.0,-276.0,-48.0,16.0,-5.0,303.0,131.0,-976.0
78.0,28.0,-277.0,-48.0,16.0,-4.0,302.0,127.0,-982.0
76.0,31.0,-275.0,-48.0,14.0,-5.0,298.0,128.0,-978.0
78.0,31.0,-277.0,-47.0,14.0,-4.0,300.0,128.0,-970.0
79.0,31.0,-279.0,-49.0,15.0,-4.0,301.0,132.0,-980.0
80.0,29.0,-277.0,-53.0,15.0,-5.0,299.0,132.0,-980.0
79.0,29.0,-277.0,-52.0,15.0,-5.0,299.0,134.0,-974.0
79.0,29.0,-277.0,-52.0,15.0,-6.0,305.0,130.0,-976.0
77.0,30.0,-275.0,-51.0,16.0,-5.0,301.0,134.0,-976.0
79.0,27.0,-276.0,-48.0,16.0,-6.0,301.0,136.0,-977.0
81.0,27.0,-275.0,-48.0,16.0,-6.0,301.0,131.0,-977.0
80.0,30.0,-277.0,-47.0,14.0,-5.0,303.0,132.0,-972.0
82.0,27.0,-277.0,-46.0,15.0,-5.0,304.0,135.0,-982.0
77.0,27.0,-275.0,-47.0,14.0,-5.0,304.0,132.0,-981.0
78.0,30.0,-275.0,-46.0,14.0,-5.0,302.0,133.0,-979.0
79.0,27.0,-276.0,-44.0,14.0,-3.0,301.0,135.0,-971.0
78.0,31.0,-275.0,-45.0,14.0,-4.0,299.0,133.0,-975.0
79.0,30.0,-275.0,-45.0,14.0,-5.0,299.0,127.0,-976.0
78.0,30.0,-274.0,-44.0,15.0,-4.0,299.0,133.0,-974.0
77.0,30.0,-277.0,-44.0,14.0,-4.0,296.0,131.0,-972.0
77.0,25.0,-274.0,-45.0,17.0,-4.0,299.0,127.0,-979.0
79.0,31.0,-274.0,-45.0,15.0,-4.0,306.0,129.0,-980.0
80.0,27.0,-278.0,-45.0,17.0,-4.0,302.0,129.0,-975.0
78.0,32.0,-278.0,-46.0,16.0,-5.0,300.0,130.0,-977.0
78.0,29.0,-272.0,-45.0,15.0,-4.0,302.0,131.0,-974.0
78.0,31.0,-271.0,-46.0,16.0,-3.0,298.0,139.0,-980.0
78.0,30.0,-277.0,-46.0,16.0,-3.0,302.0,133.0,-978.0
77.0,29.0,-270.0,-46.0,16.0,-4.0,299.0,126.0,-980.0
79.0,29.0,-274.0,-46.0,17.0,-4.0,303.0,132.0,-977.0
78.0,26.0,-276.0,-46.0,16.0,-5.0,301.0,134.0,-974.0
80.0,28.0,-275.0,-46.0,16.0,-5.0,294.0,130.0,-979.0
79.0,28.0,-278.0,-44.0,15.0,-4.0,301.0,127.0,-975.0
78.0,28.0,-274.0,-46.0,17.0,-5.0,302.0,133.0,-967.0
79.0,23.0,-278.0,-45.0,16.0,-4.0,308.0,129.0,-968.0
83.0,30.0,-281.0,-45.0,17.0,-3.0,304.0,131.0,-978.0
77.0,31.0,-273.0,-45.0,15.0,-3.0,299.0,130.0,-973.0
75.0,28.0,-277.0,-47.0,15.0,-4.0,300.0,129.0,-975.0
78.0,31.0,-276.0,-47.0,14.0,-3.0,307.0,131.0,-971.0
78.0,28.0,-277.0,-48.0,13.0,-4.0,302.0,125.0,-974.0
80.0,31.0,-275.0,-49.0,13.0,-5.0,304.0,128.0,-973.0
78.0,28.0,-276.0,-47.0,14.0,-4.0,302.0,131.0,-975.0
78.0,30.0,-275.0,-46.0,14.0,-4.0,297.0,131.0,-972.0
80.0,30.0,-273.0,-47.0,15.0,-4.0,300.0,132.0,-974.0
77.0,27.0,-275.0,-47.0,15.0,-5.0,300.0,130.0,-974.0
79.0,26.0,-277.0,-47.0,16.0,-4.0,298.0,133.0,-975.0
77.0,30.0,-275.0,-48.0,14.0,-4.0,304.0,129.0,-978.0
77.0,29.0,-273.0,-46.0,15.0,-4.0,301.0,131.0,-975.0
79.0,30.0,-277.0,-46.0,14.0,-4.0,300.0,126.0,-979.0
78.0,28.0,-278.0,-44.0,15.0,-3.0,301.0,129.0,-978.0
82.0,26.0,-272.0,-47.0,16.0,-4.0,301.0,126.0,-977.0
80.0,27.0,-275.0,-47.0,16.0,-4.0,300.0,132.0,-976.0
79.0,30.0,-278.0,-47.0,16.0,-3.0,304.0,129.0,-977.0
79.0,31.0,-281.0,-47.0,14.0,-5.0,302.0,129.0,-977.0
80.0,30.0,-276.0,-47.0,14.0,-4.0,301.0,129.0,-976.0
81.0,25.0,-274.0,-47.0,14.0,-4.0,306.0,132.0,-974.0
78.0,27.0,-273.0,-49.0,14.0,-3.0,301.0,131.0,-975.0
77.0,23.0,-275.0,-49.0,14.0,-4.0,304.0,130.0,-975.0
80.0,24.0,-273.0,-46.0,15.0,-4.0,301.0,127.0,-977.0
77.0,28.0,-273.0,-48.0,16.0,-5.0,300.0,132.0,-978.0
78.0,29.0,-277.0,-49.0,16.0,-6.0,303.0,128.0,-979.0
76.0,30.0,-276.0,-49.0,18.0,-5.0,307.0,132.0,-975.0
78.0,30.0,-275.0,-51.0,18.0,-7.0,300.0,129.0,-973.0
77.0,31.0,-275.0,-48.0,16.0,-5.0,301.0,130.0,-975.0
77.0,27.0,-278.0,-47.0,16.0,-6.0,301.0,131.0,-976.0
78.0,29.0,-276.0,-48.0,17.0,-6.0,306.0,133.0,-974.0
79.0,29.0,-275.0,-49.0,17.0,-7.0,303.0,127.0,-980.0
78.0,27.0,-275.0,-47.0,17.0,-5.0,301.0,132.0,-975.0
78.0,30.0,-275.0,-48.0,18.0,-6.0,302.0,125.0,-974.0
77.0,29.0,-275.0,-46.0,17.0,-5.0,303.0,132.0,-979.0
76.0,31.0,-276.0,-48.0,17.0,-6.0,299.0,132.0,-974.0
80.0,26.0,-273.0,-48.0,17.0,-5.0,303.0,132.0,-974.0
77.0,31.0,-276.0,-47.0,17.0,-5.0,302.0,132.0,-980.0
79.0,28.0,-273.0,-48.0,16.0,-5.0,306.0,134.0,-974.0
78.0,29.0,-273.0,-48.0,17.0,-4.0,303.0,131.0,-974.0
79.0,26.0,-274.0,-48.0,15.0,-4.0,299.0,132.0,-974.0
80.0,31.0,-273.0,-47.0,17.0,-4.0,297.0,128.0,-974.0
80.0,28.0,-274.0,-47.0,16.0,-4.0,303.0,131.0,-968.0
78.0,26.0,-272.0,-47.0,17.0,-5.0,304.0,133.0,-978.0
75.0,27.0,-276.0,-46.0,16.0,-4.0,304.0,130.0,-975.0
78.0,28.0,-273.0,-45.0,14.0,-3.0,295.0,132.0,-979.0
79.0,25.0,-280.0,-46.0,16.0,-5.0,301.0,126.0,-977.0
75.0,26.0,-273.0,-46.0,14.0,-3.0,301.0,130.0,-977.0
78.0,28.0,-279.0,-47.0,14.0,-4.0,299.0,136.0,-981.0
75.0,31.0,-275.0,-47.0,15.0,-4.0,299.0,128.0,-976.0
78.0,28.0,-275.0,-45.0,16.0,-5.0,299.0,136.0,-981.0
79.0,30.0,-276.0,-45.0,15.0,-5.0,302.0,130.0,-968.0
77.0,28.0,-276.0,-45.0,16.0,-5.0,304.0,131.0,-977.0
79.0,28.0,-277.0,-46.0,16.0,-4.0,306.0,135.0,-980.0
75.0,29.0,-275.0,-46.0,15.0,-4.0,301.0,130.0,-977.0
77.0,30.0,-274.0,-44.0,16.0,-4.0,302.0,127.0,-975.0
79.0,26.0,-271.0,-46.0,16.0,-6.0,304.0,133.0,-977.0
79.0,28.0,-278.0,-46.0,16.0,-4.0,302.0,131.0,-981.0
77.0,31.0,-273.0,-45.0,17.0,-4.0,303.0,128.0,-977.0
79.0,28.0,-273.0,-44.0,15.0,-3.0,303.0,132.0,-979.0
81.0,27.0,-278.0,-46.0,16.0,-4.0,300.0,126.0,-975.0
77.0,28.0,-276.0,-46.0,17.0,-5.0,304.0,129.0,-975.0
79.0,28.0,-271.0,-46.0,17.0,-4.0,299.0,129.0,-975.0
77.0,30.0,-275.0,-46.0,16.0,-5.0,301.0,134.0,-977.0
78.0,28.0,-274.0,-46.0,16.0,-4.0,303.0,130.0,-972.0
78.0,28.0,-275.0,-47.0,17.0,-4.0,301.0,128.0,-975.0
79.0,26.0,-275.0,-47.0,18.0,-4.0,302.0,128.0,-980.0
80.0,27.0,-273.0,-48.0,17.0,-4.0,302.0,123.0,-976.0
79.0,26.0,-276.0,-47.0,15.0,-4.0,300.0,130.0,-976.0
77.0,30.0,-274.0,-48.0,15.0,-4.0,300.0,127.0,-977.0
78.0,29.0,-275.0,-47.0,15.0,-4.0,305.0,131.0,-975.0
78.0,29.0,-273.0,-47.0,16.0,-4.0,300.0,132.0,-972.0
77.0,31.0,-272.0,-47.0,16.0,-4.0,298.0,133.0,-977.0
79.0,28.0,-273.0,-46.0,15.0,-3.0,299.0,129.0,-978.0
79.0,25.0,-274.0,-48.0,14.0,-3.0,302.0,127.0,-972.0
75.0,29.0,-275.0,-48.0,14.0,-3.0,300.0,132.0,-977.0
81.0,27.0,-273.0,-45.0,15.0,-4.0,306.0,133.0,-972.0
78.0,28.0,-273.0,-46.0,14.0,-4.0,303.0,132.0,-970.0
78.0,27.0,-273.0,-46.0,13.0,-3.0,298.0,132.0,-977.0
76.0,30.0,-277.0,-46.0,13.0,-4.0,304.0,132.0,-971.0
78.0,31.0,-275.0,-47.0,11.0,-6.0,298.0,131.0,-978.0
78.0,29.0,-273.0,-47.0,11.0,-5.0,301.0,135.0,-975.0
79.0,31.0,-276.0,-48.0,12.0,-5.0,305.0,129.0,-975.0
79.0,26.0,-277.0,-48.0,12.0,-5.0,303.0,131.0,-971.0
79.0,27.0,-277.0,-47.0,12.0,-5.0,303.0,133.0,-973.0
79.0,29.0,-275.0,-47.0,11.0,-4.0,301.0,129.0,-972.0
78.0,28.0,-274.0,-48.0,11.0,-4.0,301.0,133.0,-975.0
78.0,31.0,-275.0,-48.0,12.0,-4.0,302.0,129.0,-975.0
78.0,27.0,-278.0,-46.0,12.0,-5.0,305.0,134.0,-975.0
80.0,28.0,-274.0,-46.0,14.0,-4.0,297.0,129.0,-978.0
78.0,28.0,-274.0,-45.0,13.0,-5.0,301.0,133.0,-979.0
77.0,25.0,-276.0,-46.0,15.0,-5.0,304.0,129.0,-982.0
78.0,29.0,-278.0,-46.0,15.0,-6.0,296.0,134.0,-979.0
77.0,28.0,-274.0,-48.0,15.0,-6.0,300.0,132.0,-979.0
79.0,28.0,-278.0,-47.0,16.0,-6.0,301.0,131.0,-975.0
82.0,27.0,-276.0,-47.0,18.0,-6.0,300.0,131.0,-977.0
78.0,30.0,-276.0,-48.0,18.0,-5.0,302.0,133.0,-974.0
78.0,27.0,-275.0,-48.0,17.0,-5.0,303.0,132.0,-975.0
77.0,31.0,-274.0,-48.0,17.0,-4.0,303.0,133.0,-975.0
79.0,26.0,-276.0,-47.0,17.0,-5.0,301.0,130.0,-972.0
78.0,29.0,-277.0,-47.0,17.0,-5.0,301.0,130.0,-974.0
78.0,29.0,-274.0,-46.0,15.0,-5.0,300.0,133.0,-974.0
79.0,29.0,-275.0,-46.0,13.0,-4.0,299.0,133.0,-981.0
79.0,28.0,-279.0,-44.0,14.0,-3.0,302.0,132.0,-973.0
81.0,27.0,-272.0,-46.0,14.0,-4.0,297.0,131.0,-972.0
76.0,29.0,-276.0,-44.0,13.0,-4.0,300.0,134.0,-976.0
77.0,30.0,-274.0,-45.0,12.0,-4.0,298.0,128.0,-976.0
79.0,29.0,-277.0,-46.0,13.0,-4.0,297.0,133.0,-973.0
78.0,29.0,-276.0,-46.0,13.0,-3.0,303.0,132.0,-974.0
77.0,29.0,-276.0,-48.0,14.0,-4.0,300.0,131.0,-974.0
77.0,30.0,-276.0,-46.0,15.0,-4.0,303.0,130.0,-974.0
76.0,29.0,-278.0,-46.0,14.0,-6.0,304.0,134.0,-972.0
80.0,27.0,-273.0,-47.0,13.0,-4.0,301.0,130.0,-976.0
77.0,28.0,-276.0,-47.0,14.0,-4.0,302.0,132.0,-977.0
80.0,29.0,-273.0,-46.0,14.0,-5.0,301.0,125.0,-970.0
75.0,29.0,-274.0,-46.0,14.0,-5.0,300.0,130.0,-977.0
79.0,30.0,-273.0,-46.0,14.0,-5.0,300.0,131.0,-984.0
78.0,26.0,-274.0,-46.0,14.0,-6.0,301.0,130.0,-977.0
76.0,29.0,-275.0,-46.0,13.0,-5.0,300.0,128.0,-971.0
77.0,28.0,-276.0,-45.0,13.0,-3.0,303.0,131.0,-976.0
78.0,30.0,-276.0,-45.0,14.0,-4.0,304.0,131.0,-973.0
74.0,28.0,-275.0,-45.0,13.0,-3.0,301.0,133.0,-978.0
79.0,27.0,-276.0,-44.0,13.0,-5.0,301.0,133.0,-978.0
78.0,28.0,-276.0,-45.0,13.0,-4.0,297.0,130.0,-977.0
78.0,27.0,-276.0,-47.0,12.0,-4.0,304.0,133.0,-980.0
79.0,31.0,-277.0,-46.0,11.0,-3.0,300.0,130.0,-982.0
78.0,27.0,-276.0,-45.0,13.0,-4.0,300.0,134.0,-973.0
80.0,27.0,-276.0,-45.0,13.0,-4.0,298.0,128.0,-981.0
82.0,26.0,-274.0,-45.0,14.0,-3.0,301.0,131.0,-973.0
80.0,28.0,-273.0,-47.0,14.0,-4.0,300.0,130.0,-974.0
78.0,29.0,-274.0,-47.0,15.0,-4.0,304.0,133.0,-976.0
80.0,32.0,-277.0,-48.0,14.0,-4.0,301.0,133.0,-979.0
78.0,31.0,-273.0,-47.0,13.0,-4.0,305.0,129.0,-979.0
78.0,28.0,-277.0,-45.0,12.0,-6.0,302.0,135.0,-978.0
75.0,30.0,-278.0,-47.0,12.0,-5.0,302.0,132.0,-974.0
80.0,25.0,-277.0,-45.0,12.0,-4.0,300.0,129.0,-973.0
79.0,25.0,-275.0,-45.0,12.0,-3.0,305.0,132.0,-980.0
76.0,25.0,-274.0,-45.0,13.0,-3.0,304.0,129.0,-978.0
79.0,29.0,-277.0,-46.0,14.0,-3.0,298.0,132.0,-973.0
78.0,29.0,-276.0,-45.0,13.0,-3.0,302.0,135.0,-978.0
79.0,28.0,-275.0,-43.0,14.0,-4.0,301.0,134.0,-981.0
78.0,31.0,-276.0,-43.0,15.0,-2.0,299.0,133.0,-981.0
78.0,29.0,-278.0,-43.0,17.0,-3.0,302.0,129.0,-976.0
81.0,29.0,-278.0,-44.0,18.0,-4.0,300.0,132.0,-979.0
78.0,28.0,-276.0,-44.0,20.0,-3.0,295.0,128.0,-975.0
79.0,30.0,-276.0,-43.0,21.0,-3.0,298.0,128.0,-979.0
77.0,28.0,-276.0,-45.0,20.0,-3.0,301.0,129.0,-976.0
78.0,28.0,-278.0,-45.0,21.0,-5.0,301.0,133.0,-976.0
76.0,29.0,-273.0,-46.0,20.0,-5.0,301.0,132.0,-971.0
79.0,29.0,-271.0,-48.0,20.0,-5.0,301.0,129.0,-973.0
80.0,29.0,-274.0,-50.0,19.0,-5.0,300.0,129.0,-971.0
79.0,28.0,-274.0,-51.0,19.0,-6.0,301.0,129.0,-970.0
79.0,30.0,-274.0,-52.0,18.0,-6.0,297.0,132.0,-965.0
75.0,29.0,-274.0,-50.0,16.0,-5.0,297.0,127.0,-972.0
78.0,26.0,-275.0,-47.0,15.0,-5.0,297.0,131.0,-979.0
80.0,27.0,-276.0,-44.0,16.0,-4.0,305.0,132.0,-985.0
77.0,30.0,-278.0,-45.0,15.0,-5.0,307.0,125.0,-985.0
79.0,27.0,-277.0,-47.0,13.0,-4.0,304.0,132.0,-974.0
80.0,28.0,-279.0,-49.0,13.0,-5.0,297.0,133.0,-979.0
80.0,28.0,-276.0,-49.0,13.0,-4.0,299.0,131.0,-976.0
78.0,31.0,-276.0,-48.0,14.0,-5.0,301.0,128.0,-979.0
79.0,25.0,-276.0,-47.0,15.0,-5.0,300.0,129.0,-974.0
78.0,29.0,-280.0,-48.0,16.0,-5.0,300.0,134.0,-973.0
79.0,30.0,-281.0,-47.0,16.0,-4.0,303.0,128.0,-972.0
78.0,27.0,-273.0,-47.0,16.0,-4.0,298.0,132.0,-976.0
78.0,27.0,-277.0,-47.0,18.0,-4.0,300.0,129.0,-975.0
79.0,28.0,-275.0,-46.0,16.0,-3.0,301.0,129.0,-979.0
78.0,30.0,-272.0,-47.0,15.0,-4.0,303.0,131.0,-973.0
79.0,28.0,-276.0,-46.0,15.0,-5.0,297.0,131.0,-973.0
77.0,29.0,-277.0,-47.0,15.0,-4.0,301.0,135.0,-969.0
78.0,29.0,-273.0,-47.0,15.0,-4.0,298.0,136.0,-974.0
80.0,28.0,-275.0,-48.0,14.0,-3.0,303.0,129.0,-974.0
79.0,28.0,-274.0,-46.0,14.0,-4.0,298.0,132.0,-971.0
82.0,29.0,-272.0,-47.0,13.0,-4.0,303.0,129.0,-974.0
77.0,29.0,-275.0,-46.0,13.0,-5.0,300.0,129.0,-974.0
79.0,28.0,-277.0,-46.0,14.0,-4.0,305.0,132.0,-969.0
78.0,29.0,-274.0,-45.0,12.0,-4.0,300.0,131.0,-967.0
77.0,29.0,-275.0,-45.0,12.0,-4.0,302.0,130.0,-964.0
81.0,29.0,-276.0,-45.0,13.0,-5.0,300.0,130.0,-979.0
78.0,27.0,-277.0,-45.0,12.0,-5.0,301.0,131.0,-981.0
77.0,30.0,-275.0,-46.0,12.0,-4.0,302.0,133.0,-973.0
80.0,28.0,-275.0,-45.0,13.0,-5.0,301.0,134.0,-979.0
80.0,27.0,-274.0,-46.0,14.0,-5.0,299.0,131.0,-975.0
76.0,30.0,-277.0,-44.0,12.0,-5.0,302.0,128.0,-975.0
74.0,29.0,-270.0,-46.0,12.0,-4.0,300.0,130.0,-976.0
79.0,29.0,-278.0,-45.0,13.0,-3.0,293.0,132.0,-975.0
80.0,27.0,-274.0,-45.0,12.0,-4.0,303.0,131.0,-977.0
79.0,25.0,-274.0,-44.0,13.0,-3.0,304.0,132.0,-974.0
80.0,30.0,-274.0,-43.0,14.0,-4.0,299.0,132.0,-976.0
79.0,29.0,-274.0,-42.0,15.0,-3.0,302.0,128.0,-977.0
78.0,28.0,-276.0,-44.0,14.0,-3.0,297.0,131.0,-974.0
78.0,26.0,-274.0,-45.0,14.0,-4.0,299.0,128.0,-972.0
78.0,27.0,-276.0,-46.0,14.0,-4.0,304.0,130.0,-977.0
80.0,26.0,-278.0,-46.0,15.0,-4.0,303.0,132.0,-971.0
79.0,26.0,-276.0,-46.0,15.0,-4.0,300.0,135.0,-978.0
76.0,31.0,-276.0,-44.0,15.0,-3.0,304.0,132.0,-977.0
77.0,30.0,-273.0,-45.0,15.0,-4.0,301.0,129.0,-978.0
79.0,30.0,-273.0,-46.0,15.0,-3.0,302.0,133.0,-977.0
77.0,27.0,-276.0,-44.0,14.0,-4.0,299.0,129.0,-974.0
79.0,27.0,-277.0,-46.0,14.0,-4.0,304.0,126.0,-973.0
77.0,28.0,-273.0,-44.0,14.0,-6.0,301.0,131.0,-975.0
79.0,30.0,-274.0,-45.0,15.0,-3.0,302.0,130.0,-973.0
79.0,26.0,-277.0,-46.0,14.0,-4.0,301.0,130.0,-974.0
79.0,30.0,-277.0,-46.0,14.0,-4.0,298.0,132.0,-973.0
77.0,31.0,-273.0,-45.0,14.0,-4.0,299.0,130.0,-976.0
78.0,30.0,-275.0,-47.0,14.0,-4.0,300.0,135.0,-970.0
79.0,25.0,-275.0,-47.0,14.0,-4.0,300.0,128.0,-976.0
77.0,30.0,-275.0,-46.0,14.0,-5.0,303.0,131.0,-968.0
79.0,30.0,-276.0,-47.0,15.0,-6.0,303.0,128.0,-972.0
78.0,29.0,-275.0,-50.0,14.0,-5.0,301.0,131.0,-977.0
78.0,30.0,-277.0,-49.0,15.0,-4.0,301.0,129.0,-976.0
78.0,28.0,-275.0,-50.0,15.0,-5.0,298.0,126.0,-973.0
77.0,31.0,-275.0,-50.0,15.0,-5.0,301.0,135.0,-977.0
81.0,25.0,-278.0,-49.0,15.0,-6.0,298.0,132.0,-980.0
79.0,29.0,-278.0,-48.0,16.0,-5.0,301.0,128.0,-974.0
81.0,30.0,-273.0,-47.0,17.0,-5.0,301.0,129.0,-979.0
77.0,29.0,-274.0,-47.0,17.0,-6.0,301.0,132.0,-978.0
78.0,27.0,-281.0,-46.0,16.0,-6.0,300.0,133.0,-978.0
78.0,30.0,-272.0,-47.0,15.0,-5.0,296.0,133.0,-976.0
76.0,30.0,-275.0,-49.0,16.0,-6.0,304.0,137.0,-980.0
80.0,30.0,-281.0,-50.0,17.0,-5.0,301.0,130.0,-978.0
80.0,28.0,-276.0,-50.0,18.0,-7.0,302.0,129.0,-979.0
81.0,28.0,-277.0,-50.0,18.0,-7.0,301.0,129.0,-976.0
81.0,26.0,-279.0,-48.0,18.0,-6.0,302.0,133.0,-976.0
78.0,27.0,-274.0,-49.0,20.0,-5.0,300.0,126.0,-982.0
78.0,31.0,-274.0,-49.0,21.0,-4.0,300.0,130.0,-979.0
78.0,29.0,-278.0,-48.0,21.0,-5.0,303.0,131.0,-975.0
77.0,30.0,-276.0,-48.0,21.0,-5.0,301.0,132.0,-980.0
79.0,27.0,-275.0,-46.0,20.0,-4.0,302.0,131.0,-971.0
77.0,29.0,-276.0,-47.0,21.0,-5.0,302.0,131.0,-975.0
