acc1_x,acc1_y,acc1_z,gyro_x,gyro_y,gyro_z,acc2_x,acc2_y,acc2_z
-9.0,-248.0,39.0,-77.0,393.0,-236.0,-19.0,-962.0,298.0
-13.0,-243.0,43.0,-69.0,365.0,-240.0,-31.0,-947.0,290.0
-13.0,-241.0,43.0,-69.0,333.0,-239.0,-37.0,-936.0,293.0
-14.0,-236.0,44.0,-71.0,293.0,-235.0,-40.0,-935.0,303.0
-14.0,-235.0,46.0,-80.0,244.0,-228.0,-42.0,-928.0,312.0
-16.0,-233.0,53.0,-91.0,192.0,-219.0,-44.0,-916.0,334.0
-16.0,-232.0,59.0,-100.0,138.0,-207.0,-59.0,-904.0,351.0
-18.0,-226.0,63.0,-109.0,90.0,-189.0,-66.0,-894.0,370.0
-21.0,-227.0,66.0,-112.0,45.0,-169.0,-71.0,-886.0,382.0
-19.0,-223.0,66.0,-118.0,9.0,-147.0,-61.0,-886.0,388.0
-16.0,-225.0,65.0,-118.0,-19.0,-124.0,-70.0,-876.0,385.0
-15.0,-225.0,63.0,-116.0,-36.0,-102.0,-49.0,-869.0,387.0
-12.0,-224.0,58.0,-113.0,-47.0,-83.0,-37.0,-873.0,369.0
-8.0,-224.0,56.0,-117.0,-57.0,-65.0,-19.0,-870.0,368.0
0.0,-221.0,60.0,-116.0,-63.0,-52.0,-2.0,-867.0,366.0
4.0,-225.0,60.0,-108.0,-69.0,-42.0,16.0,-865.0,365.0
6.0,-221.0,57.0,-103.0,-73.0,-32.0,43.0,-859.0,350.0
11.0,-218.0,59.0,-99.0,-79.0,-25.0,54.0,-859.0,351.0
19.0,-221.0,54.0,-92.0,-82.0,-17.0,73.0,-855.0,345.0
22.0,-220.0,53.0,-82.0,-83.0,-12.0,90.0,-856.0,346.0
27.0,-222.0,54.0,-67.0,-80.0,-7.0,105.0,-857.0,349.0
31.0,-223.0,56.0,-54.0,-71.0,-3.0,120.0,-865.0,351.0
36.0,-225.0,56.0,-38.0,-57.0,0.0,136.0,-871.0,355.0
40.0,-229.0,59.0,-15.0,-37.0,-1.0,151.0,-880.0,355.0
40.0,-231.0,54.0,10.0,-18.0,0.0,154.0,-894.0,348.0
41.0,-233.0,54.0,35.0,3.0,3.0,158.0,-906.0,353.0
42.0,-239.0,51.0,58.0,24.0,7.0,159.0,-917.0,353.0
44.0,-243.0,55.0,82.0,43.0,11.0,167.0,-932.0,349.0
43.0,-243.0,57.0,107.0,60.0,17.0,166.0,-941.0,349.0
44.0,-244.0,55.0,132.0,73.0,21.0,169.0,-953.0,348.0
44.0,-248.0,58.0,157.0,84.0,19.0,168.0,-957.0,358.0
40.0,-250.0,61.0,182.0,95.0,16.0,163.0,-973.0,366.0
42.0,-254.0,61.0,206.0,104.0,7.0,160.0,-978.0,366.0
39.0,-251.0,58.0,227.0,113.0,-1.0,157.0,-984.0,368.0
40.0,-249.0,62.0,238.0,119.0,-11.0,151.0,-982.0,367.0
36.0,-250.0,60.0,242.0,123.0,-19.0,147.0,-976.0,366.0
35.0,-249.0,58.0,245.0,131.0,-27.0,138.0,-966.0,358.0
37.0,-246.0,56.0,234.0,135.0,-29.0,141.0,-957.0,352.0
34.0,-246.0,52.0,220.0,142.0,-31.0,136.0,-946.0,353.0
33.0,-240.0,51.0,203.0,148.0,-28.0,141.0,-938.0,342.0
36.0,-235.0,51.0,187.0,154.0,-24.0,139.0,-912.0,339.0
37.0,-231.0,48.0,162.0,158.0,-17.0,142.0,-911.0,330.0
37.0,-232.0,49.0,136.0,160.0,-10.0,151.0,-903.0,326.0
38.0,-228.0,49.0,117.0,158.0,-2.0,154.0,-899.0,331.0
38.0,-229.0,49.0,109.0,149.0,7.0,158.0,-893.0,332.0
42.0,-231.0,53.0,104.0,138.0,14.0,163.0,-890.0,324.0
39.0,-229.0,52.0,101.0,124.0,20.0,160.0,-888.0,327.0
41.0,-227.0,51.0,96.0,109.0,27.0,158.0,-890.0,325.0
41.0,-227.0,48.0,91.0,93.0,33.0,159.0,-896.0,329.0
41.0,-228.0,46.0,86.0,72.0,39.0,155.0,-903.0,331.0
38.0,-229.0,49.0,75.0,52.0,43.0,148.0,-898.0,321.0
37.0,-229.0,48.0,60.0,35.0,50.0,149.0,-900.0,318.0
36.0,-228.0,50.0,43.0,24.0,57.0,143.0,-893.0,321.0
36.0,-230.0,49.0,28.0,15.0,65.0,144.0,-906.0,323.0
40.0,-234.0,46.0,15.0,8.0,71.0,157.0,-903.0,318.0
40.0,-227.0,50.0,0.0,2.0,75.0,157.0,-898.0,317.0
39.0,-230.0,51.0,-11.0,-6.0,80.0,163.0,-895.0,324.0
40.0,-231.0,52.0,-21.0,-13.0,83.0,163.0,-895.0,323.0
42.0,-228.0,52.0,-25.0,-20.0,85.0,160.0,-893.0,331.0
46.0,-227.0,52.0,-21.0,-26.0,86.0,170.0,-896.0,335.0
48.0,-229.0,53.0,-16.0,-32.0,80.0,169.0,-883.0,337.0
42.0,-229.0,53.0,-10.0,-38.0,73.0,174.0,-895.0,335.0
45.0,-230.0,53.0,-5.0,-44.0,63.0,172.0,-896.0,340.0
44.0,-233.0,57.0,1.0,-48.0,52.0,173.0,-898.0,343.0
43.0,-233.0,53.0,5.0,-49.0,40.0,167.0,-906.0,344.0
40.0,-233.0,53.0,8.0,-42.0,26.0,167.0,-906.0,342.0
43.0,-233.0,54.0,10.0,-31.0,13.0,170.0,-910.0,341.0
45.0,-234.0,53.0,11.0,-18.0,0.0,173.0,-904.0,338.0
45.0,-234.0,52.0,9.0,-1.0,-14.0,173.0,-907.0,332.0
44.0,-232.0,50.0,7.0,16.0,-26.0,175.0,-905.0,338.0
44.0,-230.0,55.0,5.0,30.0,-36.0,172.0,-908.0,336.0
46.0,-233.0,54.0,7.0,44.0,-42.0,171.0,-910.0,338.0
44.0,-234.0,52.0,12.0,58.0,-43.0,169.0,-911.0,341.0
44.0,-236.0,50.0,24.0,67.0,-44.0,173.0,-916.0,341.0
41.0,-235.0,54.0,31.0,74.0,-44.0,169.0,-913.0,343.0
42.0,-236.0,55.0,42.0,77.0,-41.0,159.0,-920.0,351.0
38.0,-238.0,54.0,53.0,77.0,-39.0,156.0,-923.0,353.0
38.0,-239.0,58.0,62.0,73.0,-36.0,151.0,-923.0,354.0
36.0,-241.0,58.0,69.0,71.0,-32.0,141.0,-922.0,355.0
34.0,-239.0,55.0,73.0,68.0,-28.0,134.0,-926.0,349.0
31.0,-236.0,55.0,72.0,66.0,-26.0,121.0,-928.0,353.0
32.0,-238.0,58.0,63.0,65.0,-23.0,117.0,-924.0,350.0
29.0,-237.0,55.0,53.0,68.0,-22.0,120.0,-922.0,347.0
31.0,-236.0,55.0,38.0,68.0,-19.0,116.0,-916.0,342.0
32.0,-236.0,57.0,25.0,69.0,-16.0,109.0,-915.0,341.0
25.0,-235.0,49.0,12.0,68.0,-12.0,112.0,-908.0,348.0
30.0,-234.0,56.0,2.0,63.0,-7.0,111.0,-904.0,345.0
24.0,-231.0,57.0,-6.0,59.0,-3.0,107.0,-903.0,352.0
24.0,-232.0,58.0,-9.0,56.0,3.0,99.0,-904.0,359.0
22.0,-230.0,57.0,-10.0,52.0,6.0,94.0,-900.0,363.0
21.0,-231.0,59.0,-11.0,42.0,10.0,88.0,-900.0,367.0
19.0,-230.0,62.0,-9.0,36.0,13.0,82.0,-899.0,372.0
20.0,-231.0,61.0,-12.0,31.0,15.0,77.0,-897.0,372.0
17.0,-232.0,60.0,-17.0,30.0,18.0,79.0,-902.0,386.0
18.0,-229.0,62.0,-24.0,32.0,19.0,80.0,-904.0,385.0
21.0,-231.0,63.0,-32.0,36.0,21.0,83.0,-905.0,382.0
20.0,-234.0,62.0,-44.0,39.0,19.0,82.0,-906.0,375.0
19.0,-231.0,62.0,-65.0,39.0,18.0,83.0,-907.0,376.0
22.0,-234.0,60.0,-83.0,32.0,18.0,86.0,-906.0,373.0
24.0,-234.0,62.0,-97.0,26.0,20.0,86.0,-909.0,384.0
21.0,-234.0,64.0,-104.0,20.0,22.0,85.0,-909.0,384.0
20.0,-232.0,67.0,-103.0,14.0,25.0,92.0,-916.0,395.0
22.0,-234.0,68.0,-99.0,13.0,27.0,97.0,-916.0,389.0
24.0,-238.0,66.0,-97.0,12.0,29.0,93.0,-918.0,394.0
21.0,-239.0,70.0,-97.0,13.0,30.0,90.0,-924.0,394.0
21.0,-239.0,69.0,-98.0,14.0,32.0,81.0,-927.0,398.0
21.0,-239.0,68.0,-100.0,15.0,34.0,82.0,-926.0,403.0
22.0,-238.0,66.0,-101.0,20.0,38.0,81.0,-928.0,403.0
19.0,-238.0,66.0,-101.0,27.0,43.0,84.0,-929.0,400.0
21.0,-238.0,66.0,-97.0,35.0,48.0,87.0,-929.0,393.0
22.0,-238.0,65.0,-95.0,41.0,51.0,89.0,-922.0,394.0
22.0,-235.0,66.0,-89.0,47.0,52.0,82.0,-917.0,392.0
18.0,-232.0,61.0,-83.0,45.0,50.0,89.0,-913.0,388.0
20.0,-235.0,64.0,-79.0,43.0,50.0,83.0,-909.0,387.0
21.0,-232.0,63.0,-75.0,38.0,49.0,83.0,-910.0,392.0
21.0,-231.0,67.0,-70.0,30.0,47.0,83.0,-908.0,388.0
16.0,-231.0,68.0,-67.0,22.0,45.0,78.0,-910.0,387.0
19.0,-234.0,63.0,-64.0,15.0,43.0,80.0,-915.0,387.0
17.0,-233.0,64.0,-62.0,8.0,43.0,74.0,-910.0,391.0
16.0,-233.0,64.0,-63.0,3.0,41.0,73.0,-917.0,390.0
18.0,-235.0,63.0,-65.0,-2.0,37.0,65.0,-912.0,381.0
20.0,-236.0,63.0,-67.0,-3.0,30.0,60.0,-916.0,391.0
15.0,-232.0,65.0,-67.0,0.0,22.0,67.0,-917.0,383.0
19.0,-234.0,65.0,-62.0,4.0,13.0,70.0,-916.0,390.0
18.0,-238.0,66.0,-57.0,9.0,-1.0,73.0,-919.0,399.0
20.0,-237.0,70.0,-48.0,12.0,-10.0,75.0,-914.0,402.0
19.0,-235.0,69.0,-35.0,17.0,-19.0,80.0,-916.0,403.0
21.0,-234.0,71.0,-23.0,19.0,-25.0,90.0,-913.0,406.0
26.0,-233.0,68.0,-10.0,22.0,-30.0,91.0,-907.0,398.0
26.0,-229.0,66.0,3.0,24.0,-30.0,96.0,-902.0,397.0
26.0,-230.0,68.0,15.0,24.0,-30.0,103.0,-900.0,395.0
28.0,-229.0,71.0,28.0,25.0,-31.0,106.0,-898.0,401.0
29.0,-230.0,69.0,43.0,24.0,-30.0,106.0,-894.0,396.0
29.0,-231.0,66.0,57.0,26.0,-29.0,109.0,-895.0,401.0
23.0,-228.0,69.0,72.0,28.0,-28.0,103.0,-897.0,403.0
24.0,-230.0,70.0,82.0,31.0,-30.0,111.0,-898.0,407.0
29.0,-233.0,74.0,93.0,35.0,-32.0,102.0,-898.0,408.0
28.0,-232.0,70.0,99.0,43.0,-35.0,106.0,-896.0,409.0
29.0,-231.0,70.0,104.0,49.0,-39.0,110.0,-894.0,408.0
32.0,-230.0,67.0,104.0,56.0,-42.0,108.0,-897.0,408.0
31.0,-227.0,70.0,105.0,63.0,-42.0,117.0,-891.0,406.0
32.0,-228.0,69.0,108.0,70.0,-45.0,124.0,-896.0,407.0
35.0,-234.0,70.0,106.0,75.0,-46.0,127.0,-897.0,407.0
34.0,-228.0,69.0,104.0,75.0,-46.0,131.0,-893.0,398.0
33.0,-226.0,68.0,99.0,74.0,-45.0,140.0,-894.0,402.0
36.0,-227.0,61.0,95.0,71.0,-40.0,137.0,-893.0,396.0
36.0,-227.0,68.0,90.0,66.0,-37.0,137.0,-892.0,396.0
33.0,-231.0,66.0,82.0,61.0,-33.0,133.0,-896.0,398.0
33.0,-231.0,65.0,71.0,55.0,-28.0,131.0,-901.0,393.0
30.0,-233.0,63.0,62.0,50.0,-26.0,132.0,-907.0,394.0
29.0,-235.0,68.0,50.0,44.0,-25.0,123.0,-913.0,400.0
27.0,-233.0,68.0,41.0,37.0,-25.0,119.0,-917.0,396.0
26.0,-234.0,68.0,31.0,33.0,-26.0,112.0,-917.0,401.0
30.0,-239.0,67.0,24.0,32.0,-26.0,104.0,-920.0,399.0
27.0,-236.0,68.0,19.0,29.0,-28.0,109.0,-925.0,399.0
29.0,-237.0,70.0,19.0,28.0,-31.0,108.0,-920.0,400.0
24.0,-234.0,72.0,18.0,27.0,-32.0,110.0,-918.0,403.0
29.0,-232.0,69.0,21.0,26.0,-33.0,108.0,-914.0,399.0
26.0,-234.0,68.0,27.0,27.0,-33.0,115.0,-909.0,402.0
29.0,-229.0,67.0,32.0,29.0,-32.0,118.0,-902.0,392.0
33.0,-234.0,67.0,35.0,27.0,-29.0,128.0,-902.0,390.0
32.0,-229.0,65.0,39.0,24.0,-28.0,122.0,-897.0,388.0
32.0,-229.0,64.0,42.0,21.0,-26.0,135.0,-893.0,382.0
34.0,-229.0,65.0,45.0,17.0,-25.0,131.0,-893.0,387.0
31.0,-228.0,61.0,47.0,15.0,-26.0,134.0,-889.0,389.0
34.0,-228.0,67.0,48.0,12.0,-27.0,127.0,-882.0,389.0
32.0,-226.0,64.0,52.0,12.0,-31.0,129.0,-891.0,392.0
34.0,-229.0,67.0,50.0,10.0,-35.0,133.0,-890.0,404.0
31.0,-228.0,68.0,45.0,12.0,-40.0,129.0,-894.0,400.0
32.0,-230.0,69.0,41.0,14.0,-45.0,124.0,-899.0,401.0
34.0,-227.0,66.0,36.0,18.0,-50.0,132.0,-894.0,404.0
33.0,-229.0,68.0,30.0,23.0,-53.0,126.0,-896.0,406.0
35.0,-229.0,67.0,23.0,25.0,-56.0,124.0,-894.0,412.0
34.0,-230.0,71.0,19.0,29.0,-59.0,125.0,-894.0,408.0
31.0,-228.0,66.0,16.0,33.0,-59.0,129.0,-890.0,407.0
32.0,-227.0,70.0,15.0,36.0,-57.0,127.0,-893.0,409.0
29.0,-226.0,68.0,16.0,34.0,-54.0,124.0,-892.0,409.0
30.0,-229.0,69.0,16.0,31.0,-48.0,122.0,-893.0,409.0
31.0,-226.0,67.0,21.0,26.0,-43.0,115.0,-894.0,408.0
28.0,-227.0,61.0,23.0,20.0,-37.0,115.0,-892.0,408.0
29.0,-226.0,66.0,26.0,14.0,-32.0,114.0,-888.0,407.0
28.0,-227.0,69.0,27.0,8.0,-27.0,107.0,-894.0,409.0
27.0,-227.0,69.0,27.0,5.0,-27.0,116.0,-891.0,415.0
29.0,-229.0,71.0,23.0,2.0,-26.0,115.0,-892.0,409.0
30.0,-229.0,72.0,18.0,1.0,-27.0,113.0,-891.0,417.0
29.0,-229.0,71.0,11.0,0.0,-26.0,112.0,-895.0,415.0
28.0,-228.0,73.0,5.0,2.0,-27.0,113.0,-893.0,416.0
31.0,-229.0,71.0,-3.0,3.0,-25.0,114.0,-894.0,414.0
26.0,-227.0,69.0,-10.0,4.0,-23.0,117.0,-894.0,404.0
27.0,-224.0,71.0,-21.0,4.0,-20.0,117.0,-881.0,407.0
28.0,-224.0,68.0,-31.0,3.0,-14.0,120.0,-876.0,400.0
30.0,-226.0,66.0,-40.0,4.0,-6.0,116.0,-877.0,395.0
31.0,-225.0,68.0,-45.0,2.0,0.0,120.0,-873.0,396.0
32.0,-225.0,68.0,-50.0,0.0,3.0,117.0,-881.0,395.0
30.0,-228.0,67.0,-55.0,-1.0,7.0,114.0,-888.0,399.0
28.0,-227.0,68.0,-55.0,-4.0,9.0,108.0,-890.0,397.0
28.0,-230.0,67.0,-52.0,-6.0,7.0,110.0,-898.0,401.0
27.0,-231.0,72.0,-48.0,-7.0,4.0,101.0,-904.0,403.0
24.0,-232.0,71.0,-44.0,-9.0,-1.0,106.0,-915.0,407.0
29.0,-236.0,71.0,-40.0,-10.0,-7.0,107.0,-917.0,412.0
26.0,-238.0,72.0,-39.0,-10.0,-15.0,109.0,-922.0,413.0
30.0,-233.0,77.0,-36.0,-8.0,-24.0,111.0,-924.0,415.0
28.0,-236.0,72.0,-33.0,-7.0,-32.0,112.0,-925.0,416.0
26.0,-237.0,71.0,-29.0,-5.0,-39.0,114.0,-922.0,416.0
30.0,-236.0,70.0,-22.0,-4.0,-45.0,113.0,-919.0,417.0
30.0,-238.0,72.0,-15.0,-1.0,-49.0,111.0,-918.0,414.0
30.0,-235.0,73.0,-4.0,3.0,-50.0,116.0,-911.0,418.0
28.0,-232.0,72.0,6.0,3.0,-48.0,118.0,-907.0,414.0
29.0,-229.0,71.0,13.0,-1.0,-45.0,115.0,-903.0,410.0
29.0,-227.0,71.0,22.0,-4.0,-41.0,115.0,-896.0,406.0
30.0,-227.0,68.0,28.0,-9.0,-36.0,113.0,-889.0,407.0
27.0,-224.0,69.0,31.0,-14.0,-31.0,113.0,-873.0,415.0
27.0,-224.0,71.0,36.0,-17.0,-26.0,114.0,-874.0,407.0
29.0,-225.0,69.0,34.0,-20.0,-24.0,116.0,-868.0,409.0
29.0,-230.0,71.0,31.0,-23.0,-24.0,106.0,-877.0,409.0
29.0,-226.0,71.0,27.0,-23.0,-24.0,106.0,-877.0,422.0
30.0,-228.0,71.0,17.0,-22.0,-25.0,108.0,-893.0,419.0
29.0,-227.0,72.0,9.0,-21.0,-27.0,113.0,-891.0,426.0
27.0,-227.0,73.0,1.0,-19.0,-31.0,110.0,-897.0,428.0
29.0,-229.0,74.0,-6.0,-13.0,-33.0,113.0,-900.0,431.0
31.0,-229.0,75.0,-11.0,-8.0,-35.0,117.0,-905.0,428.0
30.0,-232.0,76.0,-15.0,-4.0,-36.0,118.0,-894.0,428.0
28.0,-221.0,72.0,-22.0,-3.0,-35.0,117.0,-896.0,424.0
31.0,-229.0,72.0,-22.0,-2.0,-34.0,122.0,-892.0,424.0
31.0,-228.0,74.0,-24.0,-3.0,-31.0,114.0,-882.0,417.0
27.0,-228.0,74.0,-25.0,-4.0,-28.0,113.0,-880.0,417.0
26.0,-223.0,71.0,-25.0,-6.0,-22.0,114.0,-884.0,418.0
29.0,-225.0,72.0,-21.0,-7.0,-17.0,113.0,-877.0,419.0
27.0,-226.0,71.0,-18.0,-10.0,-12.0,107.0,-873.0,418.0
31.0,-227.0,75.0,-15.0,-11.0,-8.0,110.0,-880.0,428.0
27.0,-226.0,74.0,-10.0,-12.0,-6.0,107.0,-876.0,421.0
25.0,-227.0,71.0,-7.0,-9.0,-5.0,111.0,-884.0,425.0
28.0,-226.0,69.0,-6.0,-5.0,-6.0,110.0,-892.0,428.0
29.0,-230.0,74.0,-5.0,0.0,-5.0,115.0,-891.0,418.0
29.0,-226.0,72.0,-7.0,4.0,-8.0,116.0,-887.0,419.0
33.0,-232.0,76.0,-9.0,10.0,-10.0,117.0,-892.0,420.0
32.0,-229.0,73.0,-8.0,14.0,-12.0,120.0,-893.0,415.0
30.0,-229.0,71.0,-8.0,20.0,-14.0,122.0,-889.0,415.0
33.0,-229.0,67.0,-8.0,21.0,-15.0,123.0,-892.0,417.0
30.0,-224.0,68.0,-5.0,25.0,-16.0,126.0,-889.0,415.0
32.0,-226.0,72.0,-3.0,26.0,-15.0,126.0,-887.0,414.0
32.0,-226.0,72.0,-2.0,29.0,-14.0,133.0,-891.0,413.0
33.0,-227.0,70.0,0.0,28.0,-15.0,139.0,-882.0,410.0
36.0,-227.0,70.0,0.0,25.0,-14.0,132.0,-886.0,414.0
34.0,-225.0,66.0,-2.0,21.0,-10.0,132.0,-882.0,413.0
31.0,-226.0,68.0,-4.0,19.0,-11.0,127.0,-886.0,414.0
32.0,-228.0,72.0,-4.0,16.0,-12.0,128.0,-884.0,412.0
31.0,-227.0,73.0,-7.0,13.0,-12.0,128.0,-891.0,415.0
30.0,-227.0,74.0,-9.0,11.0,-14.0,122.0,-889.0,417.0
29.0,-228.0,68.0,-10.0,10.0,-16.0,120.0,-894.0,420.0
33.0,-229.0,72.0,-12.0,7.0,-19.0,122.0,-888.0,418.0
29.0,-227.0,69.0,-14.0,6.0,-20.0,123.0,-893.0,418.0
32.0,-228.0,71.0,-15.0,9.0,-22.0,123.0,-884.0,419.0
32.0,-225.0,73.0,-15.0,10.0,-24.0,122.0,-888.0,419.0
33.0,-225.0,69.0,-18.0,7.0,-23.0,127.0,-883.0,416.0
31.0,-226.0,70.0,-18.0,7.0,-22.0,131.0,-878.0,415.0
34.0,-227.0,70.0,-17.0,8.0,-23.0,132.0,-885.0,414.0
35.0,-227.0,71.0,-18.0,8.0,-24.0,135.0,-884.0,408.0
35.0,-226.0,72.0,-20.0,5.0,-23.0,138.0,-876.0,416.0
37.0,-226.0,73.0,-25.0,6.0,-21.0,138.0,-879.0,408.0
35.0,-227.0,72.0,-29.0,7.0,-20.0,140.0,-874.0,414.0
34.0,-223.0,71.0,-35.0,7.0,-22.0,136.0,-872.0,414.0
34.0,-226.0,70.0,-38.0,8.0,-21.0,135.0,-883.0,410.0
34.0,-226.0,70.0,-42.0,11.0,-20.0,139.0,-888.0,415.0
33.0,-228.0,70.0,-43.0,15.0,-21.0,141.0,-891.0,413.0
34.0,-227.0,70.0,-47.0,17.0,-21.0,139.0,-889.0,412.0
27.0,-227.0,70.0,-45.0,17.0,-21.0,135.0,-892.0,412.0
33.0,-229.0,72.0,-42.0,16.0,-22.0,133.0,-889.0,415.0
33.0,-227.0,72.0,-40.0,17.0,-23.0,126.0,-891.0,416.0
36.0,-229.0,72.0,-37.0,15.0,-21.0,138.0,-894.0,414.0
34.0,-229.0,74.0,-32.0,15.0,-20.0,130.0,-894.0,417.0
31.0,-228.0,71.0,-27.0,14.0,-18.0,128.0,-891.0,414.0
30.0,-227.0,71.0,-25.0,14.0,-17.0,128.0,-894.0,417.0
30.0,-229.0,70.0,-26.0,12.0,-17.0,132.0,-883.0,413.0
34.0,-228.0,69.0,-28.0,13.0,-15.0,130.0,-881.0,415.0
34.0,-227.0,73.0,-31.0,14.0,-14.0,132.0,-886.0,415.0
34.0,-225.0,74.0,-30.0,14.0,-15.0,132.0,-889.0,418.0
35.0,-230.0,73.0,-33.0,17.0,-15.0,128.0,-884.0,414.0
31.0,-226.0,70.0,-29.0,19.0,-15.0,134.0,-885.0,417.0
32.0,-227.0,72.0,-27.0,19.0,-16.0,134.0,-884.0,425.0
34.0,-225.0,72.0,-20.0,18.0,-19.0,135.0,-887.0,422.0
36.0,-227.0,73.0,-13.0,19.0,-20.0,133.0,-885.0,420.0
34.0,-228.0,73.0,-6.0,19.0,-20.0,127.0,-893.0,421.0
32.0,-228.0,75.0,-1.0,18.0,-22.0,131.0,-890.0,421.0
35.0,-229.0,72.0,0.0,20.0,-25.0,133.0,-895.0,427.0
34.0,-230.0,72.0,0.0,21.0,-27.0,134.0,-896.0,424.0
37.0,-232.0,74.0,0.0,21.0,-25.0,140.0,-896.0,421.0
33.0,-228.0,72.0,-2.0,23.0,-25.0,139.0,-895.0,422.0
34.0,-225.0,73.0,-6.0,23.0,-22.0,136.0,-891.0,423.0
36.0,-229.0,71.0,-11.0,23.0,-20.0,143.0,-895.0,417.0
35.0,-231.0,73.0,-16.0,23.0,-16.0,134.0,-886.0,424.0
37.0,-227.0,72.0,-15.0,22.0,-14.0,136.0,-890.0,422.0
35.0,-228.0,71.0,-15.0,20.0,-12.0,132.0,-893.0,424.0
33.0,-227.0,73.0,-13.0,18.0,-10.0,129.0,-887.0,420.0
31.0,-228.0,74.0,-10.0,16.0,-7.0,129.0,-881.0,417.0
32.0,-228.0,73.0,-8.0,15.0,-6.0,123.0,-886.0,418.0
30.0,-225.0,72.0,-8.0,15.0,-6.0,122.0,-884.0,418.0
34.0,-222.0,73.0,-7.0,15.0,-4.0,128.0,-883.0,425.0
32.0,-226.0,74.0,-6.0,15.0,-4.0,129.0,-874.0,428.0
31.0,-223.0,77.0,-7.0,15.0,-4.0,130.0,-878.0,428.0
33.0,-226.0,74.0,-7.0,16.0,-6.0,125.0,-881.0,429.0
31.0,-225.0,73.0,-7.0,16.0,-6.0,127.0,-876.0,433.0
34.0,-225.0,76.0,-7.0,14.0,-8.0,128.0,-883.0,435.0
33.0,-224.0,71.0,-7.0,15.0,-9.0,134.0,-878.0,433.0
35.0,-230.0,79.0,-8.0,16.0,-10.0,128.0,-883.0,439.0
31.0,-227.0,77.0,-11.0,17.0,-11.0,132.0,-891.0,434.0
35.0,-230.0,79.0,-12.0,17.0,-13.0,130.0,-888.0,438.0
34.0,-229.0,73.0,-13.0,17.0,-13.0,125.0,-889.0,432.0
29.0,-228.0,78.0,-14.0,17.0,-12.0,123.0,-877.0,433.0
32.0,-224.0,73.0,-12.0,18.0,-13.0,121.0,-887.0,436.0
32.0,-223.0,76.0,-10.0,20.0,-10.0,124.0,-884.0,429.0
34.0,-229.0,73.0,-9.0,23.0,-12.0,124.0,-871.0,428.0
34.0,-227.0,74.0,-8.0,25.0,-10.0,123.0,-870.0,428.0
30.0,-223.0,73.0,-6.0,26.0,-7.0,128.0,-878.0,423.0
32.0,-223.0,73.0,-1.0,27.0,-4.0,129.0,-867.0,426.0
32.0,-222.0,73.0,-2.0,28.0,-3.0,133.0,-867.0,423.0
35.0,-222.0,70.0,-2.0,29.0,0.0,127.0,-869.0,423.0
35.0,-224.0,70.0,-1.0,29.0,4.0,128.0,-877.0,429.0
34.0,-225.0,72.0,-1.0,28.0,5.0,128.0,-866.0,429.0
32.0,-222.0,73.0,-5.0,27.0,7.0,128.0,-871.0,430.0
32.0,-226.0,72.0,-5.0,28.0,7.0,127.0,-883.0,428.0
32.0,-227.0,72.0,-8.0,28.0,7.0,133.0,-880.0,428.0
32.0,-227.0,75.0,-8.0,28.0,6.0,132.0,-885.0,431.0
35.0,-226.0,75.0,-10.0,28.0,3.0,125.0,-895.0,434.0
34.0,-228.0,74.0,-10.0,30.0,-1.0,128.0,-891.0,437.0
31.0,-227.0,73.0,-9.0,30.0,-4.0,128.0,-894.0,435.0
33.0,-229.0,76.0,-6.0,30.0,-6.0,125.0,-893.0,434.0
33.0,-227.0,76.0,-6.0,29.0,-7.0,127.0,-890.0,436.0
32.0,-226.0,78.0,-3.0,29.0,-9.0,125.0,-876.0,437.0
33.0,-225.0,76.0,-2.0,30.0,-8.0,128.0,-878.0,429.0
32.0,-226.0,75.0,2.0,31.0,-8.0,129.0,-887.0,433.0
27.0,-226.0,74.0,3.0,30.0,-8.0,122.0,-878.0,429.0
33.0,-221.0,73.0,1.0,30.0,-6.0,127.0,-868.0,433.0
33.0,-223.0,74.0,1.0,29.0,-5.0,126.0,-870.0,429.0
34.0,-224.0,75.0,1.0,29.0,-3.0,131.0,-869.0,431.0
33.0,-225.0,74.0,0.0,27.0,1.0,127.0,-868.0,435.0
32.0,-226.0,76.0,-3.0,26.0,1.0,128.0,-871.0,424.0
35.0,-226.0,73.0,-7.0,25.0,2.0,129.0,-878.0,424.0
33.0,-226.0,73.0,-9.0,24.0,4.0,126.0,-887.0,433.0
32.0,-226.0,75.0,-10.0,25.0,4.0,130.0,-882.0,435.0
30.0,-227.0,77.0,-14.0,24.0,3.0,126.0,-884.0,438.0
33.0,-226.0,73.0,-13.0,26.0,2.0,127.0,-890.0,434.0
35.0,-230.0,77.0,-14.0,26.0,1.0,124.0,-886.0,436.0
33.0,-227.0,75.0,-14.0,29.0,0.0,132.0,-880.0,438.0
33.0,-225.0,77.0,-10.0,27.0,1.0,131.0,-886.0,437.0
33.0,-226.0,80.0,-10.0,27.0,0.0,130.0,-878.0,437.0
35.0,-226.0,72.0,-6.0,25.0,1.0,128.0,-875.0,435.0
31.0,-226.0,75.0,-4.0,23.0,3.0,128.0,-882.0,440.0
34.0,-225.0,74.0,-3.0,21.0,2.0,127.0,-875.0,440.0
33.0,-226.0,76.0,-2.0,19.0,2.0,123.0,-876.0,436.0
33.0,-226.0,76.0,-1.0,18.0,3.0,122.0,-880.0,439.0
32.0,-225.0,76.0,-2.0,19.0,2.0,123.0,-883.0,440.0
31.0,-226.0,76.0,-4.0,20.0,2.0,120.0,-881.0,436.0
32.0,-225.0,76.0,-4.0,20.0,2.0,125.0,-868.0,438.0
31.0,-225.0,76.0,-7.0,20.0,2.0,118.0,-877.0,438.0
32.0,-225.0,77.0,-9.0,22.0,0.0,119.0,-869.0,436.0
28.0,-224.0,74.0,-8.0,22.0,0.0,122.0,-879.0,437.0
32.0,-225.0,74.0,-7.0,24.0,-2.0,124.0,-879.0,435.0
32.0,-225.0,76.0,-3.0,26.0,-3.0,125.0,-884.0,440.0
35.0,-225.0,76.0,-1.0,28.0,-2.0,128.0,-878.0,438.0
34.0,-223.0,79.0,5.0,29.0,-3.0,128.0,-883.0,437.0
35.0,-222.0,74.0,10.0,32.0,0.0,129.0,-879.0,444.0
35.0,-225.0,76.0,14.0,35.0,1.0,131.0,-872.0,443.0
34.0,-224.0,80.0,15.0,37.0,0.0,137.0,-873.0,438.0
36.0,-224.0,79.0,15.0,38.0,2.0,138.0,-878.0,443.0
33.0,-222.0,76.0,15.0,40.0,1.0,136.0,-870.0,439.0
33.0,-226.0,75.0,13.0,38.0,1.0,139.0,-868.0,437.0
33.0,-223.0,79.0,9.0,39.0,2.0,136.0,-873.0,433.0
33.0,-224.0,75.0,5.0,38.0,3.0,129.0,-868.0,435.0
32.0,-223.0,78.0,2.0,32.0,3.0,120.0,-878.0,440.0
32.0,-225.0,75.0,1.0,31.0,4.0,120.0,-868.0,442.0
30.0,-224.0,76.0,-2.0,30.0,4.0,118.0,-868.0,444.0
30.0,-224.0,80.0,-1.0,28.0,4.0,123.0,-873.0,443.0
30.0,-224.0,80.0,-2.0,29.0,5.0,115.0,-879.0,445.0
30.0,-227.0,77.0,-4.0,26.0,5.0,118.0,-879.0,443.0
28.0,-226.0,80.0,-5.0,25.0,5.0,113.0,-872.0,443.0
31.0,-227.0,81.0,-4.0,26.0,2.0,112.0,-886.0,441.0
32.0,-224.0,80.0,-5.0,27.0,3.0,120.0,-874.0,447.0
30.0,-223.0,80.0,-6.0,28.0,4.0,117.0,-880.0,448.0
35.0,-224.0,78.0,-5.0,30.0,3.0,120.0,-874.0,445.0
32.0,-223.0,80.0,-5.0,31.0,4.0,128.0,-867.0,444.0
33.0,-224.0,78.0,-4.0,31.0,4.0,130.0,-870.0,442.0
34.0,-225.0,76.0,-4.0,31.0,3.0,131.0,-870.0,440.0
32.0,-225.0,78.0,-3.0,31.0,3.0,133.0,-867.0,441.0
30.0,-223.0,81.0,-1.0,31.0,2.0,133.0,-871.0,442.0
34.0,-225.0,79.0,5.0,32.0,2.0,132.0,-870.0,443.0
34.0,-226.0,77.0,11.0,30.0,1.0,129.0,-872.0,445.0
33.0,-220.0,77.0,17.0,32.0,1.0,134.0,-878.0,448.0
30.0,-225.0,77.0,21.0,33.0,0.0,128.0,-874.0,445.0
33.0,-227.0,79.0,24.0,34.0,0.0,127.0,-877.0,443.0
34.0,-224.0,79.0,26.0,36.0,-2.0,124.0,-880.0,447.0
35.0,-228.0,80.0,29.0,38.0,0.0,128.0,-882.0,448.0
33.0,-226.0,78.0,29.0,40.0,1.0,126.0,-879.0,441.0
33.0,-223.0,73.0,31.0,40.0,4.0,134.0,-880.0,442.0
34.0,-222.0,76.0,28.0,39.0,5.0,129.0,-878.0,443.0
34.0,-224.0,77.0,27.0,39.0,6.0,127.0,-869.0,445.0
30.0,-222.0,77.0,27.0,37.0,7.0,125.0,-869.0,443.0
33.0,-224.0,78.0,27.0,36.0,7.0,125.0,-869.0,442.0
32.0,-223.0,81.0,26.0,35.0,5.0,124.0,-866.0,443.0
31.0,-224.0,81.0,26.0,34.0,5.0,121.0,-868.0,447.0
31.0,-224.0,78.0,24.0,33.0,3.0,121.0,-864.0,452.0
32.0,-225.0,79.0,24.0,31.0,2.0,119.0,-865.0,452.0
31.0,-222.0,84.0,26.0,28.0,0.0,119.0,-867.0,458.0
32.0,-223.0,83.0,28.0,28.0,-2.0,122.0,-870.0,461.0
31.0,-221.0,85.0,32.0,28.0,-4.0,118.0,-867.0,456.0
30.0,-225.0,81.0,33.0,29.0,-5.0,114.0,-873.0,461.0
29.0,-222.0,87.0,34.0,29.0,-4.0,115.0,-868.0,455.0
28.0,-221.0,82.0,34.0,31.0,-3.0,118.0,-866.0,459.0
27.0,-221.0,80.0,36.0,31.0,-3.0,117.0,-867.0,463.0
30.0,-220.0,78.0,34.0,30.0,0.0,116.0,-866.0,459.0
33.0,-223.0,79.0,37.0,32.0,2.0,114.0,-862.0,459.0
28.0,-221.0,80.0,38.0,31.0,4.0,115.0,-862.0,459.0
30.0,-224.0,83.0,35.0,29.0,7.0,113.0,-867.0,462.0
27.0,-221.0,81.0,34.0,29.0,10.0,117.0,-866.0,458.0
28.0,-221.0,84.0,31.0,30.0,10.0,117.0,-863.0,462.0
29.0,-223.0,80.0,29.0,30.0,10.0,118.0,-863.0,457.0
30.0,-221.0,83.0,26.0,31.0,9.0,116.0,-867.0,460.0
33.0,-224.0,85.0,26.0,33.0,8.0,121.0,-868.0,461.0
31.0,-224.0,83.0,27.0,33.0,5.0,117.0,-869.0,459.0
34.0,-223.0,85.0,30.0,34.0,3.0,123.0,-870.0,463.0
31.0,-223.0,82.0,33.0,34.0,2.0,125.0,-869.0,461.0
34.0,-225.0,85.0,39.0,37.0,0.0,128.0,-868.0,463.0
31.0,-222.0,81.0,46.0,36.0,-2.0,140.0,-867.0,464.0
31.0,-223.0,81.0,52.0,36.0,-4.0,136.0,-862.0,467.0
34.0,-222.0,85.0,57.0,35.0,-5.0,132.0,-866.0,464.0
33.0,-224.0,79.0,62.0,33.0,-3.0,136.0,-858.0,463.0
33.0,-222.0,82.0,68.0,33.0,-5.0,130.0,-861.0,465.0
33.0,-222.0,85.0,71.0,31.0,-4.0,127.0,-865.0,459.0
37.0,-218.0,72.0,73.0,30.0,-3.0,125.0,-862.0,465.0
32.0,-222.0,84.0,73.0,30.0,-2.0,124.0,-860.0,465.0
29.0,-218.0,85.0,72.0,30.0,-2.0,114.0,-862.0,464.0
29.0,-219.0,81.0,70.0,29.0,-3.0,118.0,-867.0,469.0
30.0,-222.0,86.0,66.0,31.0,-1.0,121.0,-861.0,465.0
31.0,-219.0,81.0,64.0,31.0,-1.0,121.0,-864.0,469.0
29.0,-223.0,86.0,63.0,32.0,-4.0,119.0,-863.0,467.0
32.0,-223.0,83.0,62.0,34.0,-4.0,127.0,-860.0,472.0
30.0,-224.0,82.0,63.0,35.0,-3.0,122.0,-860.0,473.0
31.0,-221.0,86.0,66.0,36.0,-3.0,124.0,-863.0,473.0
31.0,-224.0,85.0,67.0,37.0,-4.0,123.0,-858.0,473.0
38.0,-224.0,86.0,69.0,37.0,-2.0,126.0,-856.0,476.0
31.0,-220.0,85.0,71.0,38.0,0.0,127.0,-856.0,470.0
31.0,-222.0,86.0,72.0,37.0,3.0,122.0,-850.0,476.0
34.0,-220.0,83.0,71.0,37.0,6.0,127.0,-855.0,473.0
31.0,-219.0,84.0,73.0,36.0,9.0,118.0,-855.0,473.0
29.0,-222.0,84.0,72.0,35.0,11.0,116.0,-857.0,477.0
30.0,-222.0,86.0,72.0,31.0,13.0,116.0,-857.0,474.0
29.0,-219.0,89.0,70.0,32.0,13.0,116.0,-860.0,471.0
30.0,-222.0,83.0,71.0,31.0,12.0,117.0,-865.0,473.0
28.0,-220.0,83.0,70.0,35.0,12.0,117.0,-854.0,478.0
32.0,-224.0,85.0,71.0,39.0,11.0,118.0,-862.0,476.0
30.0,-222.0,85.0,74.0,43.0,10.0,126.0,-859.0,476.0
35.0,-222.0,85.0,75.0,45.0,7.0,125.0,-858.0,474.0
30.0,-221.0,86.0,76.0,46.0,7.0,124.0,-863.0,476.0
35.0,-222.0,84.0,76.0,49.0,8.0,123.0,-859.0,468.0
33.0,-221.0,82.0,75.0,51.0,8.0,126.0,-858.0,476.0
34.0,-220.0,85.0,79.0,51.0,8.0,129.0,-852.0,478.0
35.0,-220.0,84.0,82.0,51.0,9.0,129.0,-852.0,485.0
31.0,-218.0,86.0,85.0,51.0,8.0,126.0,-852.0,478.0
32.0,-221.0,87.0,87.0,52.0,8.0,124.0,-858.0,479.0
30.0,-220.0,88.0,90.0,50.0,9.0,123.0,-862.0,481.0
32.0,-222.0,88.0,96.0,50.0,9.0,123.0,-859.0,486.0
31.0,-225.0,85.0,99.0,49.0,7.0,121.0,-861.0,485.0
30.0,-225.0,87.0,103.0,49.0,5.0,118.0,-866.0,489.0
32.0,-218.0,92.0,107.0,50.0,2.0,120.0,-860.0,480.0
29.0,-222.0,87.0,111.0,52.0,0.0,119.0,-860.0,488.0
31.0,-220.0,90.0,114.0,57.0,-3.0,125.0,-860.0,490.0
33.0,-222.0,88.0,119.0,62.0,-4.0,122.0,-854.0,487.0
34.0,-221.0,87.0,124.0,67.0,-5.0,124.0,-853.0,483.0
28.0,-216.0,92.0,128.0,71.0,-7.0,124.0,-849.0,490.0
33.0,-219.0,87.0,131.0,74.0,-7.0,123.0,-845.0,488.0
32.0,-218.0,88.0,136.0,78.0,-6.0,129.0,-845.0,488.0
32.0,-219.0,85.0,141.0,80.0,-3.0,127.0,-846.0,492.0
31.0,-219.0,91.0,145.0,81.0,1.0,126.0,-840.0,500.0
30.0,-218.0,90.0,149.0,80.0,3.0,127.0,-848.0,498.0
28.0,-218.0,88.0,153.0,81.0,5.0,120.0,-850.0,499.0
31.0,-223.0,90.0,157.0,80.0,6.0,115.0,-853.0,500.0
31.0,-218.0,91.0,159.0,78.0,7.0,111.0,-850.0,496.0
28.0,-219.0,89.0,162.0,76.0,9.0,118.0,-856.0,492.0
28.0,-220.0,90.0,164.0,78.0,7.0,118.0,-861.0,490.0
27.0,-224.0,88.0,167.0,80.0,5.0,112.0,-858.0,493.0
28.0,-221.0,90.0,170.0,82.0,3.0,111.0,-856.0,496.0
29.0,-220.0,88.0,173.0,87.0,3.0,117.0,-860.0,497.0
28.0,-219.0,91.0,175.0,89.0,1.0,123.0,-858.0,492.0
29.0,-218.0,89.0,176.0,92.0,1.0,118.0,-853.0,498.0
23.0,-216.0,90.0,181.0,96.0,2.0,123.0,-846.0,501.0
31.0,-215.0,92.0,187.0,97.0,2.0,118.0,-845.0,503.0
30.0,-219.0,94.0,195.0,98.0,3.0,118.0,-845.0,502.0
31.0,-216.0,94.0,206.0,98.0,4.0,119.0,-840.0,506.0
31.0,-218.0,92.0,216.0,95.0,8.0,120.0,-834.0,505.0
31.0,-216.0,93.0,223.0,92.0,10.0,119.0,-836.0,510.0
27.0,-216.0,93.0,232.0,90.0,11.0,114.0,-841.0,516.0
28.0,-218.0,97.0,240.0,86.0,12.0,115.0,-841.0,518.0
28.0,-218.0,95.0,249.0,85.0,13.0,113.0,-836.0,519.0
25.0,-216.0,97.0,254.0,84.0,13.0,113.0,-843.0,517.0
27.0,-218.0,96.0,257.0,85.0,14.0,111.0,-847.0,510.0
29.0,-217.0,93.0,260.0,86.0,15.0,110.0,-848.0,515.0
28.0,-219.0,96.0,262.0,86.0,15.0,110.0,-845.0,519.0
28.0,-219.0,95.0,265.0,87.0,16.0,108.0,-848.0,513.0
29.0,-218.0,93.0,267.0,90.0,16.0,110.0,-847.0,513.0
24.0,-216.0,94.0,268.0,93.0,17.0,111.0,-847.0,513.0
28.0,-214.0,95.0,270.0,95.0,19.0,110.0,-842.0,522.0
24.0,-217.0,98.0,275.0,99.0,18.0,115.0,-838.0,519.0
29.0,-218.0,98.0,279.0,103.0,21.0,112.0,-845.0,525.0
34.0,-216.0,95.0,285.0,107.0,22.0,120.0,-838.0,520.0
32.0,-217.0,96.0,289.0,109.0,25.0,120.0,-836.0,518.0
32.0,-215.0,93.0,296.0,110.0,26.0,123.0,-842.0,513.0
29.0,-217.0,90.0,303.0,108.0,28.0,121.0,-836.0,508.0
31.0,-216.0,93.0,307.0,109.0,28.0,118.0,-833.0,512.0
30.0,-215.0,95.0,315.0,110.0,30.0,124.0,-841.0,516.0
29.0,-214.0,96.0,323.0,112.0,30.0,118.0,-832.0,513.0
29.0,-215.0,94.0,332.0,114.0,32.0,120.0,-840.0,513.0
32.0,-215.0,97.0,342.0,115.0,32.0,116.0,-840.0,514.0
30.0,-214.0,91.0,350.0,117.0,31.0,117.0,-832.0,518.0
30.0,-214.0,96.0,358.0,121.0,31.0,115.0,-829.0,517.0
32.0,-214.0,101.0,368.0,125.0,32.0,122.0,-826.0,520.0
29.0,-211.0,98.0,378.0,132.0,33.0,119.0,-821.0,524.0
30.0,-209.0,98.0,388.0,138.0,35.0,117.0,-814.0,525.0
29.0,-210.0,100.0,397.0,147.0,36.0,123.0,-806.0,532.0
29.0,-207.0,98.0,408.0,156.0,38.0,120.0,-800.0,532.0
33.0,-205.0,98.0,414.0,166.0,42.0,123.0,-801.0,533.0
33.0,-207.0,97.0,425.0,174.0,44.0,123.0,-796.0,533.0
31.0,-202.0,97.0,434.0,181.0,47.0,124.0,-798.0,526.0
30.0,-203.0,99.0,441.0,183.0,50.0,124.0,-793.0,528.0
33.0,-207.0,97.0,444.0,185.0,52.0,128.0,-791.0,528.0
31.0,-204.0,103.0,448.0,187.0,53.0,120.0,-798.0,527.0
31.0,-202.0,99.0,455.0,188.0,53.0,119.0,-798.0,534.0
28.0,-204.0,99.0,463.0,192.0,50.0,117.0,-799.0,531.0
38.0,-215.0,109.0,474.0,195.0,48.0,120.0,-805.0,538.0
29.0,-206.0,100.0,485.0,198.0,43.0,120.0,-803.0,542.0
29.0,-208.0,100.0,493.0,203.0,41.0,115.0,-801.0,544.0
32.0,-205.0,106.0,503.0,208.0,42.0,117.0,-800.0,549.0
32.0,-209.0,104.0,518.0,216.0,40.0,124.0,-798.0,551.0
31.0,-205.0,103.0,526.0,222.0,41.0,121.0,-800.0,548.0
32.0,-206.0,104.0,535.0,228.0,45.0,122.0,-796.0,553.0
31.0,-204.0,104.0,541.0,232.0,47.0,120.0,-787.0,551.0
32.0,-201.0,104.0,548.0,233.0,49.0,115.0,-781.0,550.0
32.0,-199.0,102.0,553.0,234.0,52.0,120.0,-771.0,553.0
29.0,-193.0,104.0,556.0,234.0,57.0,121.0,-773.0,548.0
29.0,-195.0,104.0,557.0,228.0,59.0,112.0,-767.0,548.0
27.0,-197.0,99.0,557.0,220.0,61.0,111.0,-760.0,548.0
25.0,-194.0,104.0,559.0,215.0,62.0,98.0,-761.0,555.0
23.0,-195.0,106.0,565.0,213.0,62.0,99.0,-764.0,557.0
22.0,-198.0,108.0,574.0,212.0,64.0,90.0,-765.0,558.0
23.0,-196.0,108.0,583.0,213.0,62.0,87.0,-767.0,565.0
19.0,-198.0,106.0,591.0,218.0,60.0,86.0,-768.0,570.0
17.0,-194.0,112.0,597.0,224.0,58.0,87.0,-763.0,567.0
19.0,-195.0,113.0,599.0,231.0,55.0,82.0,-770.0,568.0
23.0,-198.0,112.0,600.0,238.0,53.0,82.0,-770.0,578.0
22.0,-195.0,111.0,601.0,244.0,51.0,91.0,-768.0,578.0
22.0,-192.0,106.0,604.0,250.0,49.0,89.0,-769.0,589.0
20.0,-195.0,111.0,607.0,258.0,45.0,90.0,-765.0,590.0
21.0,-191.0,117.0,614.0,266.0,43.0,94.0,-756.0,590.0
23.0,-191.0,118.0,621.0,273.0,41.0,95.0,-753.0,594.0
23.0,-191.0,118.0,632.0,279.0,37.0,98.0,-746.0,598.0
21.0,-190.0,118.0,644.0,285.0,36.0,96.0,-739.0,596.0
20.0,-189.0,115.0,656.0,287.0,34.0,89.0,-735.0,593.0
19.0,-187.0,113.0,665.0,286.0,34.0,86.0,-739.0,594.0
20.0,-189.0,115.0,675.0,281.0,35.0,70.0,-734.0,594.0
14.0,-189.0,111.0,685.0,274.0,37.0,63.0,-734.0,593.0
11.0,-186.0,117.0,696.0,268.0,40.0,56.0,-730.0,600.0
13.0,-190.0,114.0,707.0,262.0,45.0,41.0,-724.0,606.0
7.0,-187.0,117.0,716.0,258.0,52.0,40.0,-731.0,609.0
3.0,-185.0,121.0,723.0,252.0,59.0,32.0,-717.0,606.0
6.0,-185.0,116.0,731.0,248.0,66.0,32.0,-723.0,607.0
9.0,-184.0,121.0,738.0,250.0,71.0,26.0,-718.0,614.0
5.0,-184.0,121.0,743.0,252.0,78.0,33.0,-708.0,615.0
9.0,-182.0,120.0,749.0,257.0,80.0,37.0,-708.0,624.0
8.0,-179.0,123.0,756.0,265.0,82.0,39.0,-696.0,625.0
11.0,-182.0,128.0,771.0,273.0,83.0,39.0,-696.0,638.0
9.0,-178.0,129.0,793.0,284.0,86.0,38.0,-688.0,644.0
9.0,-177.0,129.0,823.0,292.0,88.0,43.0,-689.0,657.0
10.0,-178.0,127.0,856.0,299.0,90.0,47.0,-687.0,666.0
12.0,-179.0,135.0,891.0,299.0,90.0,51.0,-682.0,671.0
11.0,-177.0,131.0,933.0,297.0,89.0,54.0,-682.0,670.0
10.0,-176.0,131.0,966.0,288.0,89.0,45.0,-684.0,662.0
5.0,-171.0,130.0,990.0,277.0,86.0,31.0,-677.0,650.0
2.0,-171.0,129.0,1007.0,267.0,80.0,15.0,-661.0,645.0
-1.0,-166.0,129.0,1014.0,263.0,71.0,8.0,-648.0,655.0
-2.0,-165.0,133.0,1016.0,266.0,61.0,-8.0,-639.0,671.0
-7.0,-163.0,137.0,1016.0,279.0,54.0,-8.0,-636.0,680.0
-5.0,-164.0,141.0,1017.0,293.0,50.0,-11.0,-639.0,695.0
-3.0,-165.0,142.0,1025.0,308.0,50.0,-12.0,-639.0,720.0
-4.0,-161.0,151.0,1038.0,319.0,54.0,-17.0,-629.0,728.0
-7.0,-161.0,148.0,1054.0,325.0,58.0,-10.0,-624.0,735.0
-6.0,-157.0,146.0,1066.0,329.0,58.0,-11.0,-612.0,733.0
-3.0,-154.0,152.0,1080.0,330.0,56.0,-8.0,-595.0,737.0
-4.0,-150.0,150.0,1089.0,335.0,58.0,-7.0,-582.0,746.0
-4.0,-142.0,158.0,1097.0,346.0,61.0,-3.0,-560.0,757.0
0.0,-136.0,155.0,1101.0,355.0,71.0,-6.0,-545.0,771.0
-8.0,-133.0,159.0,1097.0,359.0,82.0,-16.0,-518.0,777.0
-14.0,-129.0,158.0,1085.0,357.0,94.0,-30.0,-512.0,774.0
-15.0,-127.0,159.0,1063.0,350.0,110.0,-41.0,-502.0,777.0
-18.0,-124.0,158.0,1041.0,341.0,123.0,-67.0,-502.0,782.0
-21.0,-123.0,159.0,1018.0,335.0,135.0,-82.0,-501.0,787.0
-23.0,-128.0,162.0,1000.0,335.0,146.0,-91.0,-506.0,789.0
-22.0,-131.0,158.0,989.0,346.0,152.0,-97.0,-517.0,789.0
-21.0,-135.0,160.0,987.0,366.0,157.0,-89.0,-515.0,780.0
-17.0,-133.0,157.0,996.0,393.0,159.0,-79.0,-522.0,766.0
-17.0,-134.0,148.0,1010.0,422.0,161.0,-67.0,-513.0,759.0
-14.0,-135.0,154.0,1036.0,444.0,163.0,-43.0,-514.0,762.0
-11.0,-130.0,154.0,1074.0,456.0,165.0,-30.0,-509.0,765.0
-9.0,-127.0,160.0,1115.0,456.0,167.0,-21.0,-489.0,773.0
-5.0,-122.0,165.0,1160.0,444.0,176.0,-5.0,-471.0,795.0
-3.0,-119.0,172.0,1196.0,417.0,182.0,-6.0,-455.0,829.0
-6.0,-118.0,185.0,1225.0,381.0,191.0,-4.0,-451.0,871.0
-7.0,-120.0,191.0,1252.0,345.0,196.0,-13.0,-458.0,904.0
-13.0,-117.0,197.0,1275.0,307.0,194.0,-40.0,-460.0,923.0
-13.0,-123.0,194.0,1289.0,269.0,189.0,-25.0,-495.0,922.0
-15.0,-132.0,197.0,1288.0,231.0,166.0,-55.0,-509.0,913.0
-21.0,-132.0,194.0,1272.0,205.0,128.0,-81.0,-524.0,910.0
-26.0,-134.0,189.0,1246.0,194.0,82.0,-100.0,-531.0,887.0
-24.0,-135.0,178.0,1231.0,209.0,45.0,-94.0,-541.0,858.0
-29.0,-130.0,173.0,1217.0,257.0,-4.0,-118.0,-511.0,830.0
-29.0,-123.0,168.0,1196.0,318.0,-47.0,-115.0,-487.0,809.0
-24.0,-119.0,164.0,1174.0,393.0,-73.0,-100.0,-467.0,812.0
-21.0,-111.0,169.0,1157.0,469.0,-87.0,-84.0,-451.0,828.0
-16.0,-108.0,174.0,1153.0,529.0,-90.0,-62.0,-431.0,844.0
-14.0,-103.0,177.0,1160.0,566.0,-81.0,-41.0,-408.0,851.0
-9.0,-99.0,182.0,1169.0,584.0,-58.0,-15.0,-390.0,858.0
-3.0,-94.0,181.0,1173.0,585.0,-29.0,7.0,-375.0,871.0
1.0,-92.0,183.0,1163.0,570.0,0.0,8.0,-369.0,883.0
-7.0,-93.0,191.0,1126.0,537.0,14.0,-16.0,-364.0,898.0
-4.0,-85.0,189.0,1061.0,500.0,19.0,-5.0,-346.0,899.0
-11.0,-84.0,190.0,996.0,499.0,37.0,-27.0,-337.0,904.0
-12.0,-79.0,187.0,929.0,507.0,52.0,-48.0,-325.0,890.0
-12.0,-78.0,182.0,870.0,532.0,67.0,-38.0,-318.0,877.0
-9.0,-83.0,175.0,821.0,573.0,87.0,-46.0,-310.0,856.0
-5.0,-79.0,168.0,782.0,617.0,106.0,-21.0,-314.0,826.0
-5.0,-81.0,161.0,752.0,658.0,125.0,-19.0,-325.0,798.0
-5.0,-84.0,153.0,736.0,678.0,144.0,-18.0,-338.0,760.0
-33.0,-84.0,146.0,723.0,675.0,159.0,-14.0,-339.0,719.0
0.0,-88.0,135.0,695.0,625.0,151.0,14.0,-343.0,676.0
12.0,-83.0,125.0,696.0,604.0,166.0,45.0,-330.0,629.0
12.0,-83.0,120.0,722.0,612.0,202.0,49.0,-323.0,615.0
8.0,-78.0,119.0,753.0,617.0,239.0,40.0,-308.0,613.0
3.0,-80.0,117.0,786.0,608.0,264.0,29.0,-306.0,611.0
-2.0,-79.0,116.0,810.0,588.0,270.0,5.0,-282.0,607.0
-5.0,-63.0,116.0,815.0,566.0,272.0,-16.0,-256.0,594.0
-13.0,-57.0,111.0,799.0,547.0,269.0,-33.0,-234.0,583.0
-14.0,-57.0,103.0,768.0,534.0,263.0,-41.0,-222.0,565.0
-16.0,-53.0,100.0,732.0,529.0,254.0,-45.0,-208.0,548.0
-9.0,-56.0,90.0,702.0,538.0,250.0,-39.0,-212.0,505.0
-15.0,-54.0,81.0,670.0,553.0,238.0,-48.0,-204.0,464.0
-16.0,-45.0,72.0,648.0,555.0,225.0,-48.0,-181.0,422.0
-17.0,-36.0,59.0,632.0,539.0,222.0,-59.0,-145.0,382.0
-22.0,-28.0,54.0,619.0,514.0,233.0,-75.0,-102.0,358.0
-22.0,-23.0,43.0,613.0,484.0,262.0,-83.0,-80.0,308.0
-29.0,-18.0,33.0,616.0,455.0,288.0,-112.0,-57.0,269.0
-32.0,-14.0,27.0,623.0,431.0,314.0,-124.0,-44.0,249.0
-32.0,-15.0,35.0,619.0,405.0,331.0,-125.0,-44.0,262.0
-34.0,-16.0,34.0,618.0,376.0,339.0,-126.0,-48.0,262.0
-30.0,-16.0,35.0,608.0,354.0,339.0,-110.0,-60.0,277.0
-17.0,-20.0,27.0,582.0,350.0,335.0,-66.0,-83.0,260.0
-9.0,-29.0,30.0,537.0,368.0,328.0,-36.0,-108.0,254.0
0.0,-43.0,38.0,486.0,402.0,318.0,-4.0,-148.0,281.0
12.0,-54.0,43.0,444.0,424.0,308.0,37.0,-187.0,302.0
23.0,-63.0,37.0,432.0,439.0,306.0,83.0,-223.0,294.0
30.0,-73.0,38.0,451.0,449.0,312.0,125.0,-264.0,294.0
34.0,-81.0,45.0,501.0,442.0,310.0,132.0,-298.0,298.0
34.0,-90.0,43.0,573.0,423.0,295.0,142.0,-321.0,308.0
32.0,-92.0,54.0,652.0,394.0,272.0,132.0,-332.0,336.0
27.0,-85.0,59.0,729.0,367.0,243.0,115.0,-323.0,367.0
20.0,-85.0,64.0,802.0,348.0,205.0,83.0,-317.0,379.0
14.0,-84.0,67.0,861.0,334.0,166.0,65.0,-315.0,390.0
5.0,-81.0,71.0,903.0,315.0,129.0,37.0,-310.0,420.0
-2.0,-82.0,76.0,926.0,296.0,99.0,1.0,-322.0,443.0
-6.0,-88.0,76.0,943.0,288.0,73.0,-28.0,-334.0,438.0
-16.0,-95.0,68.0,955.0,292.0,53.0,-51.0,-363.0,396.0
-14.0,-100.0,48.0,955.0,306.0,41.0,-43.0,-384.0,327.0
-4.0,-97.0,30.0,934.0,328.0,47.0,-13.0,-384.0,264.0
9.0,-94.0,25.0,894.0,369.0,82.0,39.0,-366.0,240.0
22.0,-96.0,18.0,853.0,409.0,127.0,87.0,-351.0,219.0
29.0,-83.0,11.0,842.0,437.0,176.0,113.0,-313.0,173.0
29.0,-66.0,-10.0,838.0,454.0,216.0,124.0,-261.0,101.0
26.0,-43.0,-29.0,823.0,458.0,239.0,113.0,-167.0,38.0
28.0,-11.0,-39.0,792.0,448.0,246.0,113.0,-50.0,-2.0
32.0,11.0,-40.0,749.0,444.0,245.0,127.0,53.0,-12.0
45.0,28.0,-35.0,708.0,456.0,242.0,157.0,125.0,9.0
56.0,46.0,-32.0,697.0,491.0,241.0,215.0,165.0,21.0
72.0,47.0,-29.0,707.0,546.0,243.0,263.0,194.0,20.0
88.0,59.0,-35.0,718.0,625.0,250.0,318.0,217.0,13.0
102.0,66.0,-24.0,715.0,685.0,259.0,350.0,252.0,44.0
129.0,68.0,-6.0,711.0,759.0,257.0,477.0,268.0,96.0
134.0,62.0,4.0,751.0,868.0,239.0,485.0,250.0,155.0
175.0,41.0,10.0,828.0,993.0,206.0,626.0,188.0,182.0
204.0,17.0,15.0,914.0,1150.0,136.0,735.0,108.0,201.0
250.0,-9.0,23.0,1015.0,1336.0,19.0,897.0,11.0,227.0
191.0,-40.0,58.0,1131.0,1578.0,-124.0,772.0,-86.0,339.0
115.0,-68.0,105.0,1314.0,1771.0,-172.0,492.0,-222.0,518.0
-10.0,-97.0,146.0,1522.0,1815.0,-93.0,98.0,-338.0,688.0
-97.0,-82.0,157.0,1660.0,1701.0,-14.0,-336.0,-303.0,786.0
-172.0,-93.0,247.0,1681.0,1512.0,57.0,-556.0,-360.0,1009.0
-299.0,-83.0,428.0,1693.0,1234.0,86.0,-908.0,-369.0,1634.0
-372.0,-57.0,652.0,1764.0,694.0,99.0,-1251.0,-258.0,2723.0
-444.0,-41.0,900.0,1989.0,8.0,182.0,-1557.0,-138.0,3704.0
-532.0,-21.0,1199.0,2401.0,-632.0,394.0,-1986.0,-48.0,4851.0
-696.0,-12.0,1537.0,3028.0,-1154.0,611.0,-2610.0,-31.0,6166.0
-1039.0,54.0,1896.0,3826.0,-1578.0,822.0,-3859.0,202.0,7581.0
-1409.0,163.0,2030.0,4611.0,-1975.0,1233.0,-5390.0,576.0,8191.0
-1694.0,98.0,1798.0,5138.0,-2135.0,1854.0,-6642.0,239.0,7470.0
-1865.0,158.0,1175.0,5128.0,-1919.0,2296.0,-7597.0,270.0,5201.0
-1781.0,350.0,824.0,4338.0,-1178.0,2895.0,-7144.0,1055.0,3554.0
-987.0,431.0,781.0,3181.0,-834.0,3479.0,-4022.0,1588.0,3358.0
-459.0,448.0,584.0,2687.0,-545.0,3270.0,-2067.0,1714.0,2623.0
-106.0,433.0,405.0,2411.0,244.0,2665.0,-617.0,1640.0,1877.0
179.0,319.0,403.0,2116.0,1152.0,2035.0,474.0,1324.0,1766.0
331.0,164.0,465.0,2202.0,2121.0,1516.0,1125.0,791.0,2018.0
418.0,69.0,473.0,2685.0,2829.0,1162.0,1561.0,356.0,2059.0
437.0,54.0,477.0,3264.0,3025.0,946.0,1805.0,210.0,2073.0
371.0,95.0,438.0,3912.0,2849.0,840.0,1504.0,446.0,1971.0
384.0,58.0,345.0,4564.0,2549.0,898.0,1502.0,318.0,1618.0
374.0,16.0,236.0,5041.0,2214.0,891.0,1585.0,96.0,1190.0
306.0,4.0,143.0,5249.0,1772.0,807.0,1303.0,-29.0,790.0
235.0,-7.0,72.0,5126.0,1165.0,815.0,1057.0,-86.0,509.0
170.0,-31.0,44.0,4756.0,525.0,916.0,740.0,-149.0,394.0
86.0,-28.0,6.0,4256.0,24.0,1044.0,396.0,-179.0,197.0
24.0,-8.0,-18.0,3679.0,-273.0,1105.0,139.0,-109.0,105.0
-42.0,10.0,-36.0,3147.0,-382.0,1082.0,-120.0,-8.0,15.0
-37.0,13.0,-56.0,2733.0,-357.0,987.0,-188.0,46.0,-56.0
-47.0,17.0,-50.0,2464.0,-212.0,815.0,-215.0,80.0,-51.0
-73.0,21.0,-30.0,2348.0,-1.0,591.0,-303.0,106.0,25.0
-88.0,34.0,2.0,2363.0,193.0,371.0,-335.0,155.0,123.0
-124.0,57.0,37.0,2465.0,306.0,191.0,-447.0,222.0,276.0
-169.0,57.0,57.0,2642.0,346.0,78.0,-610.0,258.0,389.0
-200.0,61.0,75.0,2845.0,324.0,-2.0,-779.0,246.0,440.0
-230.0,71.0,76.0,3005.0,222.0,-124.0,-863.0,297.0,449.0
-229.0,100.0,60.0,3116.0,39.0,-264.0,-858.0,400.0,391.0
-230.0,122.0,45.0,3206.0,-128.0,-361.0,-857.0,466.0,334.0
-243.0,143.0,49.0,3246.0,-259.0,-412.0,-909.0,543.0,339.0
-231.0,182.0,57.0,3217.0,-355.0,-427.0,-906.0,676.0,378.0
-246.0,217.0,70.0,3128.0,-368.0,-382.0,-930.0,816.0,427.0
-236.0,242.0,75.0,2934.0,-352.0,-319.0,-927.0,893.0,469.0
-254.0,259.0,66.0,2674.0,-351.0,-224.0,-1010.0,953.0,425.0
-228.0,264.0,64.0,2320.0,-432.0,-107.0,-903.0,982.0,398.0
-200.0,293.0,40.0,1936.0,-578.0,27.0,-784.0,1065.0,317.0
-159.0,305.0,30.0,1525.0,-711.0,211.0,-610.0,1137.0,280.0
-112.0,323.0,16.0,1123.0,-810.0,409.0,-411.0,1197.0,222.0
-85.0,328.0,8.0,758.0,-899.0,558.0,-328.0,1242.0,191.0
-49.0,331.0,-3.0,461.0,-978.0,682.0,-195.0,1266.0,148.0
-16.0,332.0,-3.0,228.0,-1047.0,767.0,-76.0,1279.0,126.0
8.0,340.0,-17.0,51.0,-1111.0,816.0,23.0,1306.0,96.0
41.0,342.0,-27.0,-93.0,-1159.0,825.0,117.0,1321.0,70.0
44.0,335.0,-32.0,-197.0,-1191.0,800.0,183.0,1312.0,29.0
75.0,333.0,-35.0,-262.0,-1188.0,748.0,244.0,1309.0,21.0
84.0,326.0,-30.0,-282.0,-1139.0,652.0,319.0,1280.0,31.0
102.0,307.0,-8.0,-239.0,-1051.0,522.0,406.0,1210.0,88.0
104.0,293.0,14.0,-138.0,-937.0,368.0,373.0,1194.0,197.0
105.0,270.0,40.0,13.0,-805.0,222.0,381.0,1106.0,283.0
113.0,248.0,55.0,171.0,-664.0,82.0,403.0,1010.0,358.0
118.0,222.0,64.0,305.0,-527.0,-48.0,438.0,899.0,392.0
115.0,196.0,69.0,399.0,-390.0,-170.0,437.0,779.0,420.0
111.0,174.0,77.0,442.0,-256.0,-264.0,419.0,703.0,438.0
101.0,158.0,78.0,456.0,-133.0,-325.0,384.0,624.0,450.0
87.0,151.0,78.0,465.0,-26.0,-349.0,342.0,592.0,451.0
65.0,147.0,77.0,480.0,55.0,-332.0,265.0,582.0,446.0
47.0,152.0,59.0,516.0,102.0,-273.0,188.0,593.0,394.0
16.0,149.0,53.0,580.0,119.0,-187.0,96.0,589.0,346.0
-1.0,154.0,28.0,678.0,108.0,-83.0,5.0,610.0,255.0
-42.0,163.0,17.0,777.0,101.0,10.0,-143.0,649.0,225.0
-46.0,174.0,-3.0,888.0,84.0,96.0,-162.0,695.0,144.0
-50.0,196.0,-31.0,999.0,89.0,142.0,-166.0,755.0,33.0
-74.0,206.0,-18.0,1064.0,145.0,138.0,-261.0,816.0,77.0
-76.0,221.0,-32.0,1132.0,210.0,113.0,-263.0,852.0,24.0
-63.0,239.0,-21.0,1142.0,306.0,63.0,-280.0,901.0,57.0
-64.0,253.0,-23.0,1117.0,413.0,22.0,-227.0,964.0,78.0
-58.0,264.0,-13.0,1057.0,481.0,-41.0,-258.0,1007.0,116.0
-70.0,269.0,3.0,972.0,492.0,-70.0,-296.0,1038.0,163.0
-43.0,267.0,-4.0,895.0,459.0,-45.0,-113.0,1024.0,130.0
-37.0,271.0,17.0,768.0,384.0,-61.0,-154.0,1063.0,195.0
-27.0,277.0,8.0,655.0,274.0,-28.0,-61.0,1063.0,198.0
-37.0,275.0,17.0,532.0,126.0,-2.0,-2.0,1041.0,216.0
-37.0,254.0,19.0,435.0,-53.0,34.0,-25.0,1017.0,198.0
-23.0,239.0,24.0,350.0,-240.0,73.0,-66.0,965.0,235.0
-16.0,248.0,5.0,299.0,-411.0,105.0,-84.0,962.0,172.0
-48.0,258.0,15.0,208.0,-530.0,95.0,-162.0,929.0,166.0
-53.0,231.0,7.0,124.0,-615.0,97.0,-195.0,893.0,172.0
-50.0,235.0,-15.0,74.0,-699.0,88.0,-178.0,931.0,126.0
-51.0,248.0,-21.0,3.0,-751.0,50.0,-187.0,939.0,77.0
-50.0,248.0,-21.0,-106.0,-762.0,13.0,-240.0,946.0,94.0
-61.0,254.0,-11.0,-204.0,-764.0,-17.0,-235.0,976.0,93.0
-55.0,246.0,-8.0,-287.0,-753.0,-54.0,-201.0,941.0,112.0
-57.0,251.0,-3.0,-350.0,-738.0,-84.0,-219.0,970.0,115.0
-49.0,247.0,-1.0,-391.0,-710.0,-98.0,-179.0,949.0,150.0
-50.0,239.0,11.0,-399.0,-683.0,-93.0,-194.0,963.0,180.0
-39.0,238.0,5.0,-361.0,-654.0,-81.0,-156.0,940.0,167.0
-45.0,242.0,3.0,-321.0,-617.0,-92.0,-191.0,966.0,166.0
-52.0,257.0,6.0,-259.0,-573.0,-94.0,-205.0,1013.0,161.0
-61.0,270.0,6.0,-204.0,-525.0,-97.0,-250.0,1074.0,169.0
-69.0,272.0,8.0,-139.0,-478.0,-98.0,-260.0,1074.0,181.0
-76.0,277.0,8.0,-73.0,-429.0,-120.0,-304.0,1109.0,184.0
-81.0,286.0,11.0,-11.0,-378.0,-159.0,-329.0,1138.0,207.0
-82.0,297.0,24.0,64.0,-332.0,-198.0,-338.0,1177.0,244.0
-98.0,299.0,31.0,127.0,-290.0,-251.0,-373.0,1174.0,272.0
-100.0,304.0,39.0,184.0,-253.0,-319.0,-381.0,1181.0,303.0
-105.0,305.0,47.0,220.0,-223.0,-399.0,-410.0,1201.0,338.0
-105.0,310.0,52.0,230.0,-204.0,-473.0,-405.0,1207.0,355.0
-110.0,313.0,64.0,212.0,-192.0,-539.0,-422.0,1208.0,398.0
-111.0,312.0,74.0,170.0,-190.0,-596.0,-427.0,1220.0,449.0
-110.0,310.0,82.0,108.0,-195.0,-645.0,-422.0,1197.0,481.0
-115.0,305.0,84.0,41.0,-204.0,-688.0,-435.0,1177.0,490.0
-115.0,299.0,84.0,-26.0,-219.0,-715.0,-425.0,1151.0,495.0
-108.0,288.0,86.0,-96.0,-239.0,-722.0,-403.0,1103.0,488.0
-101.0,274.0,83.0,-162.0,-259.0,-714.0,-393.0,1062.0,485.0
-98.0,263.0,78.0,-227.0,-281.0,-690.0,-387.0,1025.0,473.0
-101.0,262.0,79.0,-278.0,-310.0,-653.0,-382.0,1010.0,479.0
-99.0,258.0,81.0,-307.0,-343.0,-602.0,-381.0,1001.0,477.0
-101.0,256.0,81.0,-321.0,-375.0,-546.0,-386.0,994.0,484.0
-94.0,249.0,93.0,-325.0,-402.0,-492.0,-376.0,968.0,506.0
-93.0,245.0,91.0,-318.0,-417.0,-453.0,-376.0,947.0,515.0
-97.0,242.0,93.0,-312.0,-418.0,-426.0,-367.0,942.0,533.0
-83.0,249.0,88.0,-310.0,-414.0,-401.0,-356.0,945.0,542.0
-90.0,244.0,97.0,-313.0,-410.0,-375.0,-359.0,941.0,540.0
-80.0,242.0,95.0,-332.0,-405.0,-350.0,-316.0,933.0,532.0
-81.0,245.0,96.0,-368.0,-400.0,-329.0,-304.0,928.0,536.0
-76.0,234.0,101.0,-418.0,-398.0,-309.0,-287.0,924.0,538.0
-72.0,238.0,98.0,-482.0,-397.0,-294.0,-277.0,913.0,544.0
-72.0,238.0,97.0,-556.0,-395.0,-286.0,-272.0,908.0,550.0
-78.0,237.0,102.0,-638.0,-389.0,-284.0,-293.0,920.0,561.0
-74.0,238.0,102.0,-730.0,-383.0,-282.0,-275.0,905.0,557.0
-68.0,228.0,101.0,-836.0,-374.0,-283.0,-274.0,881.0,548.0
-73.0,229.0,102.0,-948.0,-366.0,-294.0,-270.0,875.0,544.0
-69.0,228.0,98.0,-1066.0,-357.0,-308.0,-255.0,867.0,545.0
-71.0,224.0,106.0,-1180.0,-353.0,-321.0,-264.0,849.0,559.0
-65.0,221.0,106.0,-1285.0,-352.0,-329.0,-257.0,846.0,562.0
-63.0,218.0,106.0,-1385.0,-351.0,-325.0,-244.0,836.0,563.0
-65.0,213.0,105.0,-1472.0,-358.0,-315.0,-256.0,821.0,573.0
-63.0,213.0,105.0,-1549.0,-362.0,-306.0,-251.0,818.0,585.0
-62.0,213.0,111.0,-1618.0,-359.0,-287.0,-238.0,818.0,601.0
-71.0,215.0,124.0,-1678.0,-360.0,-270.0,-258.0,832.0,637.0
-68.0,213.0,128.0,-1727.0,-377.0,-248.0,-254.0,819.0,657.0
-72.0,211.0,128.0,-1765.0,-397.0,-234.0,-275.0,817.0,666.0
-70.0,204.0,124.0,-1793.0,-415.0,-225.0,-262.0,786.0,650.0
-69.0,200.0,124.0,-1825.0,-428.0,-219.0,-259.0,789.0,642.0
-78.0,202.0,130.0,-1851.0,-442.0,-218.0,-296.0,775.0,668.0
-83.0,201.0,136.0,-1885.0,-466.0,-216.0,-305.0,771.0,670.0
-80.0,198.0,133.0,-1919.0,-493.0,-205.0,-307.0,765.0,679.0
-80.0,196.0,133.0,-1958.0,-523.0,-188.0,-293.0,752.0,687.0
-84.0,192.0,136.0,-1988.0,-551.0,-179.0,-315.0,731.0,685.0
-90.0,190.0,131.0,-2019.0,-582.0,-165.0,-322.0,721.0,688.0
-84.0,184.0,144.0,-2048.0,-615.0,-138.0,-323.0,711.0,717.0
-84.0,179.0,145.0,-2072.0,-638.0,-119.0,-305.0,682.0,730.0
-91.0,179.0,153.0,-2101.0,-663.0,-112.0,-330.0,696.0,771.0
-96.0,179.0,162.0,-2125.0,-698.0,-89.0,-358.0,695.0,806.0
-92.0,177.0,164.0,-2133.0,-734.0,-51.0,-343.0,672.0,809.0
-94.0,169.0,163.0,-2134.0,-761.0,-24.0,-344.0,650.0,814.0
-80.0,169.0,166.0,-2131.0,-773.0,-21.0,-320.0,651.0,822.0
-80.0,167.0,173.0,-2130.0,-758.0,-27.0,-315.0,652.0,831.0
-74.0,164.0,169.0,-2129.0,-743.0,-27.0,-302.0,626.0,836.0
-63.0,151.0,169.0,-2130.0,-725.0,-27.0,-251.0,598.0,833.0
-73.0,164.0,169.0,-2128.0,-703.0,-42.0,-267.0,616.0,834.0
-60.0,150.0,168.0,-2146.0,-682.0,-65.0,-222.0,569.0,818.0
-66.0,154.0,175.0,-2181.0,-646.0,-97.0,-247.0,587.0,851.0
-68.0,139.0,180.0,-2208.0,-611.0,-117.0,-218.0,539.0,872.0
-50.0,144.0,198.0,-2209.0,-591.0,-114.0,-204.0,533.0,916.0
-45.0,127.0,184.0,-2174.0,-590.0,-112.0,-166.0,507.0,890.0
-43.0,131.0,182.0,-2133.0,-579.0,-131.0,-139.0,507.0,892.0
-8.0,111.0,172.0,-2097.0,-558.0,-154.0,-75.0,459.0,839.0
-34.0,125.0,175.0,-2086.0,-510.0,-213.0,-115.0,482.0,852.0
-39.0,120.0,186.0,-2070.0,-467.0,-242.0,-167.0,461.0,887.0
-11.0,118.0,179.0,-2010.0,-444.0,-242.0,-75.0,469.0,864.0
-30.0,112.0,186.0,-1940.0,-414.0,-262.0,-97.0,457.0,902.0
-33.0,106.0,194.0,-1831.0,-372.0,-286.0,-103.0,441.0,920.0
-19.0,90.0,185.0,-1688.0,-345.0,-299.0,-46.0,381.0,872.0
-48.0,107.0,199.0,-1574.0,-328.0,-342.0,-234.0,438.0,914.0
-33.0,110.0,200.0,-1414.0,-325.0,-282.0,-158.0,443.0,938.0
-31.0,112.0,214.0,-1225.0,-324.0,-192.0,-150.0,402.0,1003.0
-21.0,105.0,221.0,-1012.0,-314.0,-143.0,-146.0,437.0,1015.0
-20.0,124.0,217.0,-804.0,-303.0,-117.0,-147.0,493.0,1060.0
-11.0,101.0,207.0,-604.0,-280.0,-85.0,56.0,448.0,1037.0
-17.0,142.0,227.0,-449.0,-229.0,-101.0,-86.0,488.0,1077.0
56.0,77.0,206.0,-353.0,-181.0,-133.0,249.0,325.0,976.0
-4.0,139.0,216.0,-310.0,-115.0,-191.0,-168.0,516.0,1032.0
8.0,131.0,216.0,-198.0,-43.0,-105.0,51.0,492.0,974.0
0.0,135.0,218.0,-102.0,-3.0,-99.0,17.0,468.0,1003.0
-4.0,115.0,201.0,-2.0,42.0,-142.0,-78.0,459.0,964.0
-37.0,115.0,187.0,96.0,97.0,-177.0,-64.0,431.0,907.0
47.0,105.0,179.0,212.0,152.0,-170.0,15.0,412.0,879.0
17.0,106.0,187.0,338.0,181.0,-172.0,110.0,396.0,893.0
-12.0,75.0,199.0,482.0,179.0,-166.0,45.0,356.0,929.0
-20.0,93.0,198.0,607.0,172.0,-155.0,-24.0,317.0,931.0
-93.0,84.0,208.0,710.0,160.0,-128.0,-191.0,302.0,967.0
-81.0,70.0,209.0,808.0,132.0,-111.0,-254.0,264.0,1018.0
-48.0,63.0,223.0,901.0,102.0,-99.0,-192.0,261.0,1018.0
-48.0,60.0,222.0,970.0,75.0,-91.0,-162.0,238.0,1034.0
-31.0,68.0,215.0,1003.0,43.0,-86.0,-81.0,258.0,1026.0
-34.0,69.0,232.0,1008.0,14.0,-86.0,-190.0,275.0,1069.0
-54.0,94.0,234.0,1008.0,-2.0,-76.0,-249.0,287.0,1063.0
-71.0,82.0,220.0,989.0,-25.0,-77.0,-237.0,296.0,1037.0
-64.0,85.0,227.0,955.0,-43.0,-82.0,-324.0,311.0,1081.0
-77.0,94.0,233.0,926.0,-48.0,-101.0,-274.0,344.0,1043.0
-66.0,96.0,218.0,896.0,-44.0,-138.0,-274.0,367.0,1011.0
-58.0,94.0,207.0,854.0,-26.0,-186.0,-231.0,373.0,975.0
-56.0,101.0,207.0,802.0,8.0,-248.0,-260.0,386.0,971.0
-75.0,98.0,192.0,741.0,49.0,-315.0,-251.0,381.0,925.0
-68.0,101.0,186.0,671.0,101.0,-384.0,-218.0,388.0,899.0
-62.0,106.0,186.0,603.0,152.0,-450.0,-237.0,391.0,884.0
-73.0,101.0,180.0,545.0,199.0,-512.0,-223.0,386.0,858.0
-54.0,103.0,177.0,491.0,234.0,-571.0,-232.0,391.0,852.0
-65.0,102.0,178.0,443.0,259.0,-628.0,-247.0,386.0,859.0
-68.0,99.0,181.0,394.0,271.0,-673.0,-241.0,379.0,865.0
-70.0,100.0,187.0,349.0,272.0,-706.0,-242.0,376.0,896.0
-71.0,93.0,188.0,318.0,270.0,-718.0,-250.0,352.0,912.0
-70.0,87.0,193.0,288.0,273.0,-707.0,-253.0,327.0,909.0
-68.0,87.0,186.0,258.0,275.0,-673.0,-259.0,314.0,903.0
-62.0,87.0,186.0,215.0,277.0,-628.0,-242.0,319.0,884.0
-64.0,88.0,178.0,166.0,275.0,-585.0,-258.0,318.0,860.0
-68.0,97.0,171.0,101.0,269.0,-540.0,-244.0,346.0,834.0
-75.0,99.0,173.0,19.0,244.0,-511.0,-282.0,367.0,845.0
-80.0,96.0,176.0,-33.0,216.0,-458.0,-287.0,374.0,849.0
-75.0,99.0,179.0,-48.0,201.0,-405.0,-275.0,371.0,867.0
-77.0,108.0,175.0,-39.0,173.0,-382.0,-283.0,399.0,849.0
-86.0,99.0,182.0,-15.0,143.0,-365.0,-315.0,378.0,885.0
-78.0,98.0,183.0,50.0,136.0,-337.0,-293.0,371.0,882.0
-78.0,96.0,190.0,126.0,148.0,-326.0,-307.0,379.0,912.0
-71.0,102.0,192.0,214.0,182.0,-319.0,-281.0,382.0,927.0
-75.0,114.0,183.0,268.0,217.0,-327.0,-277.0,430.0,895.0
-72.0,118.0,189.0,276.0,266.0,-334.0,-278.0,450.0,907.0
-68.0,127.0,191.0,278.0,328.0,-329.0,-270.0,477.0,915.0
-70.0,135.0,194.0,281.0,391.0,-312.0,-256.0,495.0,914.0
-64.0,140.0,186.0,277.0,446.0,-292.0,-247.0,528.0,906.0
-61.0,149.0,179.0,268.0,490.0,-263.0,-238.0,552.0,872.0
-61.0,153.0,175.0,255.0,511.0,-225.0,-228.0,587.0,858.0
-54.0,160.0,168.0,251.0,508.0,-187.0,-206.0,613.0,832.0
-55.0,169.0,163.0,256.0,484.0,-155.0,-199.0,648.0,810.0
-61.0,172.0,168.0,265.0,447.0,-123.0,-217.0,655.0,806.0
-62.0,171.0,163.0,281.0,400.0,-88.0,-213.0,653.0,783.0
-57.0,171.0,151.0,279.0,351.0,-62.0,-206.0,653.0,767.0
-63.0,167.0,150.0,253.0,298.0,-51.0,-230.0,638.0,746.0
-59.0,163.0,149.0,215.0,246.0,-46.0,-211.0,623.0,761.0
-57.0,159.0,160.0,163.0,204.0,-53.0,-209.0,614.0,788.0
-54.0,156.0,166.0,112.0,178.0,-66.0,-194.0,591.0,811.0
-46.0,154.0,169.0,68.0,175.0,-86.0,-170.0,589.0,825.0
-43.0,152.0,170.0,33.0,195.0,-107.0,-156.0,579.0,816.0
-41.0,158.0,164.0,-5.0,222.0,-127.0,-160.0,594.0,799.0
-42.0,164.0,156.0,-49.0,249.0,-134.0,-150.0,618.0,781.0
-38.0,167.0,154.0,-97.0,265.0,-138.0,-145.0,634.0,755.0
-39.0,173.0,145.0,-128.0,268.0,-141.0,-146.0,665.0,728.0
-37.0,177.0,145.0,-148.0,259.0,-137.0,-139.0,693.0,731.0
-35.0,182.0,142.0,-141.0,234.0,-131.0,-125.0,708.0,713.0
-34.0,181.0,139.0,-120.0,202.0,-125.0,-132.0,718.0,715.0
-43.0,182.0,149.0,-84.0,165.0,-131.0,-140.0,712.0,729.0
-39.0,178.0,147.0,-39.0,120.0,-144.0,-135.0,691.0,740.0
-35.0,179.0,152.0,2.0,79.0,-161.0,-124.0,678.0,763.0
-32.0,174.0,159.0,32.0,44.0,-190.0,-121.0,672.0,780.0
-37.0,176.0,161.0,51.0,24.0,-227.0,-125.0,662.0,786.0
-31.0,169.0,166.0,32.0,30.0,-262.0,-124.0,650.0,803.0
-42.0,160.0,192.0,-12.0,41.0,-312.0,-159.0,616.0,903.0
-37.0,151.0,198.0,-21.0,39.0,-358.0,-147.0,587.0,937.0
-45.0,140.0,209.0,-15.0,36.0,-405.0,-163.0,545.0,971.0
-44.0,132.0,215.0,1.0,48.0,-429.0,-158.0,505.0,1005.0
-47.0,124.0,221.0,15.0,59.0,-453.0,-174.0,484.0,1022.0
-58.0,124.0,213.0,34.0,62.0,-470.0,-214.0,479.0,1006.0
-61.0,119.0,208.0,42.0,63.0,-461.0,-226.0,448.0,989.0
-65.0,118.0,199.0,36.0,51.0,-445.0,-233.0,435.0,945.0
-77.0,116.0,184.0,24.0,32.0,-426.0,-271.0,439.0,887.0
-88.0,118.0,173.0,-14.0,7.0,-397.0,-325.0,436.0,840.0
-94.0,119.0,165.0,-59.0,-25.0,-361.0,-358.0,439.0,809.0
-104.0,114.0,163.0,-99.0,-53.0,-330.0,-389.0,438.0,802.0
-111.0,113.0,161.0,-124.0,-66.0,-305.0,-422.0,424.0,794.0
-117.0,113.0,162.0,-135.0,-65.0,-281.0,-449.0,430.0,801.0
-126.0,113.0,164.0,-137.0,-52.0,-265.0,-467.0,413.0,802.0
-131.0,108.0,161.0,-131.0,-26.0,-249.0,-507.0,412.0,809.0
-137.0,109.0,156.0,-121.0,4.0,-234.0,-532.0,404.0,800.0
-144.0,109.0,163.0,-110.0,36.0,-217.0,-553.0,404.0,806.0
-143.0,107.0,170.0,-95.0,68.0,-201.0,-552.0,409.0,812.0
-141.0,105.0,173.0,-75.0,100.0,-186.0,-547.0,419.0,827.0
-141.0,110.0,171.0,-43.0,136.0,-174.0,-542.0,424.0,840.0
-136.0,111.0,174.0,-4.0,172.0,-163.0,-524.0,431.0,847.0
-131.0,112.0,174.0,41.0,205.0,-154.0,-498.0,437.0,848.0
-121.0,118.0,172.0,88.0,238.0,-145.0,-472.0,442.0,835.0
-115.0,119.0,172.0,136.0,272.0,-142.0,-448.0,456.0,824.0
-114.0,123.0,163.0,183.0,305.0,-143.0,-429.0,470.0,806.0
-104.0,122.0,164.0,223.0,327.0,-153.0,-409.0,474.0,794.0
-102.0,126.0,160.0,254.0,341.0,-158.0,-390.0,474.0,788.0
-100.0,126.0,164.0,273.0,348.0,-168.0,-376.0,471.0,786.0
-95.0,124.0,156.0,288.0,353.0,-175.0,-357.0,471.0,780.0
-91.0,126.0,161.0,298.0,358.0,-180.0,-355.0,474.0,786.0
-92.0,127.0,163.0,302.0,362.0,-183.0,-357.0,479.0,788.0
-89.0,127.0,155.0,303.0,365.0,-181.0,-358.0,489.0,799.0
-90.0,128.0,167.0,300.0,367.0,-178.0,-351.0,495.0,802.0
-89.0,133.0,165.0,297.0,370.0,-176.0,-344.0,505.0,813.0
-92.0,137.0,168.0,291.0,374.0,-175.0,-350.0,515.0,811.0
-91.0,141.0,166.0,278.0,378.0,-167.0,-344.0,536.0,819.0
-92.0,148.0,172.0,250.0,382.0,-157.0,-342.0,542.0,825.0
-99.0,149.0,169.0,227.0,385.0,-147.0,-360.0,569.0,831.0
-94.0,152.0,173.0,199.0,388.0,-129.0,-359.0,577.0,827.0
-89.0,155.0,166.0,171.0,388.0,-115.0,-342.0,592.0,832.0
-91.0,159.0,170.0,149.0,389.0,-106.0,-352.0,603.0,832.0
-93.0,162.0,172.0,130.0,389.0,-95.0,-354.0,617.0,824.0
-89.0,160.0,165.0,111.0,381.0,-82.0,-351.0,629.0,817.0
-88.0,165.0,168.0,93.0,371.0,-73.0,-333.0,627.0,812.0
-87.0,167.0,168.0,84.0,357.0,-70.0,-333.0,636.0,806.0
-91.0,165.0,167.0,82.0,342.0,-70.0,-341.0,630.0,807.0
-94.0,165.0,167.0,89.0,326.0,-69.0,-353.0,630.0,809.0
-94.0,161.0,167.0,89.0,310.0,-68.0,-356.0,624.0,806.0
-93.0,156.0,164.0,95.0,294.0,-65.0,-369.0,607.0,800.0
-99.0,157.0,168.0,97.0,286.0,-77.0,-371.0,605.0,808.0
-101.0,153.0,164.0,97.0,276.0,-93.0,-385.0,595.0,815.0
-99.0,153.0,169.0,98.0,267.0,-101.0,-387.0,591.0,815.0
-98.0,151.0,169.0,97.0,259.0,-109.0,-379.0,585.0,821.0
-98.0,150.0,168.0,95.0,251.0,-119.0,-380.0,584.0,816.0
-99.0,151.0,167.0,89.0,242.0,-126.0,-377.0,584.0,824.0
-93.0,153.0,167.0,82.0,231.0,-126.0,-358.0,594.0,830.0
-88.0,149.0,165.0,78.0,222.0,-127.0,-334.0,582.0,808.0
-95.0,151.0,162.0,77.0,219.0,-135.0,-367.0,581.0,794.0
-92.0,151.0,158.0,80.0,210.0,-139.0,-345.0,578.0,772.0
-83.0,145.0,154.0,90.0,212.0,-144.0,-331.0,566.0,762.0
-86.0,144.0,148.0,106.0,214.0,-156.0,-322.0,559.0,752.0
-85.0,140.0,142.0,122.0,220.0,-173.0,-330.0,555.0,728.0
-85.0,143.0,147.0,130.0,232.0,-189.0,-339.0,548.0,718.0
-85.0,144.0,140.0,131.0,241.0,-203.0,-322.0,550.0,705.0
-89.0,145.0,136.0,126.0,242.0,-215.0,-331.0,549.0,709.0
-94.0,143.0,139.0,118.0,234.0,-220.0,-345.0,555.0,705.0
-94.0,144.0,141.0,109.0,221.0,-221.0,-354.0,556.0,708.0
-97.0,147.0,140.0,103.0,207.0,-219.0,-367.0,554.0,713.0
-100.0,145.0,147.0,98.0,193.0,-218.0,-385.0,559.0,723.0
-106.0,146.0,146.0,99.0,179.0,-212.0,-397.0,557.0,735.0
-104.0,145.0,149.0,99.0,172.0,-207.0,-394.0,567.0,737.0
-105.0,145.0,150.0,98.0,168.0,-202.0,-403.0,561.0,746.0
-109.0,145.0,151.0,94.0,163.0,-201.0,-423.0,564.0,766.0
-113.0,145.0,154.0,92.0,160.0,-198.0,-427.0,557.0,772.0
-116.0,143.0,156.0,91.0,159.0,-195.0,-439.0,556.0,776.0
-117.0,142.0,156.0,89.0,159.0,-196.0,-447.0,551.0,777.0
-117.0,144.0,159.0,85.0,160.0,-196.0,-459.0,557.0,782.0
-121.0,144.0,157.0,84.0,163.0,-196.0,-460.0,552.0,776.0
-117.0,143.0,156.0,80.0,166.0,-196.0,-460.0,553.0,774.0
-118.0,145.0,154.0,77.0,172.0,-197.0,-462.0,553.0,767.0
-122.0,140.0,149.0,71.0,180.0,-201.0,-464.0,560.0,765.0
-123.0,143.0,151.0,65.0,190.0,-205.0,-472.0,551.0,753.0
-124.0,143.0,149.0,60.0,200.0,-206.0,-477.0,547.0,749.0
-128.0,142.0,149.0,54.0,207.0,-209.0,-480.0,544.0,745.0
-125.0,139.0,146.0,47.0,211.0,-208.0,-482.0,541.0,740.0
-129.0,139.0,146.0,41.0,216.0,-208.0,-482.0,541.0,742.0
-129.0,143.0,148.0,37.0,220.0,-208.0,-490.0,535.0,737.0
-128.0,139.0,145.0,32.0,222.0,-205.0,-489.0,535.0,733.0
-130.0,138.0,146.0,26.0,226.0,-205.0,-494.0,542.0,734.0
-128.0,138.0,150.0,23.0,233.0,-202.0,-482.0,532.0,736.0
-123.0,139.0,150.0,21.0,237.0,-204.0,-479.0,536.0,736.0
-127.0,138.0,144.0,21.0,244.0,-201.0,-477.0,533.0,727.0
-122.0,139.0,144.0,16.0,249.0,-197.0,-465.0,535.0,724.0
-125.0,140.0,141.0,14.0,250.0,-196.0,-466.0,535.0,721.0
-123.0,138.0,141.0,14.0,247.0,-189.0,-462.0,532.0,713.0
-123.0,138.0,141.0,15.0,244.0,-182.0,-464.0,527.0,711.0
-122.0,137.0,139.0,19.0,234.0,-178.0,-471.0,531.0,710.0
-123.0,138.0,138.0,24.0,224.0,-170.0,-470.0,525.0,708.0
-124.0,140.0,141.0,30.0,211.0,-163.0,-471.0,532.0,705.0
-126.0,137.0,138.0,37.0,198.0,-155.0,-473.0,532.0,696.0
-126.0,135.0,137.0,41.0,180.0,-144.0,-476.0,535.0,694.0
-126.0,135.0,140.0,43.0,165.0,-135.0,-479.0,536.0,701.0
-130.0,141.0,137.0,44.0,150.0,-124.0,-489.0,533.0,703.0
-130.0,140.0,136.0,40.0,135.0,-113.0,-487.0,540.0,705.0
-128.0,138.0,141.0,32.0,123.0,-103.0,-487.0,536.0,708.0
-127.0,139.0,140.0,24.0,113.0,-95.0,-488.0,536.0,708.0
-128.0,138.0,138.0,16.0,104.0,-88.0,-488.0,539.0,701.0
-129.0,139.0,138.0,8.0,101.0,-80.0,-486.0,536.0,699.0
-131.0,137.0,141.0,-1.0,99.0,-76.0,-492.0,533.0,694.0
-130.0,136.0,136.0,-3.0,102.0,-72.0,-490.0,532.0,701.0
-130.0,136.0,133.0,-5.0,107.0,-70.0,-500.0,528.0,691.0
-128.0,138.0,136.0,-7.0,112.0,-66.0,-494.0,535.0,699.0
-131.0,143.0,135.0,-11.0,118.0,-65.0,-492.0,533.0,703.0
-129.0,137.0,144.0,-14.0,122.0,-65.0,-493.0,527.0,710.0
-129.0,139.0,139.0,-15.0,121.0,-63.0,-501.0,542.0,712.0
-130.0,140.0,141.0,-14.0,118.0,-60.0,-490.0,538.0,718.0
-130.0,141.0,145.0,-12.0,115.0,-57.0,-499.0,541.0,726.0
-130.0,138.0,148.0,-5.0,110.0,-56.0,-495.0,540.0,737.0
-130.0,141.0,145.0,5.0,106.0,-54.0,-493.0,551.0,740.0
-133.0,141.0,150.0,11.0,103.0,-54.0,-494.0,547.0,743.0
-134.0,144.0,147.0,17.0,98.0,-58.0,-493.0,547.0,739.0
-131.0,145.0,145.0,21.0,91.0,-61.0,-502.0,547.0,732.0
-132.0,141.0,145.0,21.0,87.0,-60.0,-500.0,555.0,732.0
-133.0,142.0,143.0,22.0,85.0,-61.0,-503.0,551.0,739.0
-132.0,144.0,146.0,23.0,83.0,-61.0,-500.0,555.0,729.0
-130.0,144.0,143.0,24.0,83.0,-61.0,-503.0,555.0,728.0
-130.0,143.0,143.0,25.0,87.0,-62.0,-499.0,554.0,722.0
-132.0,147.0,141.0,22.0,90.0,-65.0,-502.0,551.0,719.0
-132.0,144.0,139.0,18.0,94.0,-68.0,-495.0,551.0,713.0
-131.0,141.0,143.0,11.0,95.0,-69.0,-494.0,552.0,712.0
-130.0,142.0,140.0,10.0,100.0,-70.0,-492.0,553.0,719.0
-129.0,144.0,144.0,9.0,104.0,-69.0,-502.0,550.0,718.0
-129.0,144.0,140.0,11.0,106.0,-69.0,-489.0,551.0,712.0
-131.0,151.0,141.0,10.0,108.0,-67.0,-486.0,557.0,719.0
-130.0,145.0,139.0,8.0,108.0,-68.0,-486.0,555.0,718.0
-124.0,142.0,144.0,4.0,104.0,-68.0,-485.0,555.0,722.0
-130.0,147.0,142.0,1.0,102.0,-66.0,-483.0,559.0,719.0
-127.0,148.0,142.0,-1.0,96.0,-67.0,-486.0,566.0,712.0
-128.0,147.0,140.0,-4.0,93.0,-65.0,-487.0,565.0,716.0
-127.0,147.0,141.0,-7.0,87.0,-62.0,-485.0,564.0,714.0
-126.0,148.0,140.0,-11.0,81.0,-58.0,-483.0,559.0,717.0
-130.0,146.0,143.0,-13.0,75.0,-57.0,-485.0,559.0,713.0
-128.0,146.0,143.0,-17.0,73.0,-55.0,-492.0,561.0,714.0
-129.0,146.0,141.0,-23.0,70.0,-52.0,-490.0,559.0,708.0
-129.0,148.0,137.0,-29.0,67.0,-50.0,-495.0,563.0,706.0
-139.0,145.0,146.0,-33.0,66.0,-48.0,-493.0,561.0,706.0
-127.0,143.0,142.0,-37.0,65.0,-46.0,-489.0,560.0,711.0
-129.0,147.0,137.0,-38.0,64.0,-45.0,-491.0,555.0,713.0
-129.0,146.0,142.0,-41.0,65.0,-44.0,-482.0,556.0,711.0
-129.0,143.0,141.0,-42.0,65.0,-44.0,-489.0,555.0,707.0
-128.0,145.0,136.0,-44.0,65.0,-46.0,-493.0,557.0,715.0
-129.0,146.0,144.0,-43.0,64.0,-46.0,-488.0,554.0,714.0
-127.0,141.0,141.0,-41.0,63.0,-45.0,-493.0,555.0,713.0
-130.0,142.0,140.0,-41.0,62.0,-45.0,-496.0,555.0,712.0
-133.0,143.0,141.0,-42.0,60.0,-46.0,-497.0,555.0,708.0
-131.0,144.0,137.0,-40.0,56.0,-44.0,-501.0,556.0,710.0
-134.0,145.0,139.0,-43.0,53.0,-41.0,-505.0,552.0,709.0
-132.0,142.0,137.0,-43.0,51.0,-40.0,-509.0,556.0,713.0
-133.0,143.0,137.0,-48.0,52.0,-38.0,-510.0,550.0,706.0
-133.0,142.0,143.0,-50.0,52.0,-39.0,-509.0,550.0,708.0
-134.0,144.0,138.0,-54.0,52.0,-38.0,-508.0,550.0,709.0
-134.0,143.0,138.0,-59.0,53.0,-37.0,-511.0,548.0,712.0
-134.0,139.0,138.0,-63.0,54.0,-36.0,-508.0,546.0,709.0
-133.0,140.0,137.0,-66.0,55.0,-35.0,-505.0,548.0,711.0
-133.0,140.0,138.0,-69.0,55.0,-34.0,-503.0,544.0,711.0
-133.0,142.0,138.0,-70.0,55.0,-35.0,-506.0,540.0,706.0
-133.0,140.0,141.0,-71.0,55.0,-33.0,-502.0,550.0,703.0
-127.0,138.0,145.0,-71.0,56.0,-31.0,-503.0,547.0,709.0
-133.0,141.0,140.0,-71.0,53.0,-30.0,-504.0,550.0,708.0
-132.0,141.0,138.0,-69.0,54.0,-28.0,-504.0,548.0,706.0
-131.0,141.0,136.0,-68.0,52.0,-27.0,-501.0,551.0,708.0
-133.0,142.0,141.0,-69.0,49.0,-24.0,-507.0,548.0,704.0
-136.0,142.0,140.0,-71.0,48.0,-23.0,-507.0,550.0,705.0
-135.0,140.0,139.0,-72.0,44.0,-21.0,-508.0,546.0,706.0
-133.0,142.0,138.0,-72.0,41.0,-18.0,-511.0,545.0,704.0
-134.0,140.0,139.0,-75.0,38.0,-16.0,-510.0,545.0,705.0
-132.0,139.0,136.0,-76.0,32.0,-13.0,-507.0,541.0,705.0
-136.0,140.0,139.0,-78.0,28.0,-12.0,-511.0,543.0,709.0
-136.0,139.0,137.0,-78.0,24.0,-9.0,-513.0,539.0,704.0
-136.0,139.0,136.0,-79.0,20.0,-6.0,-512.0,536.0,707.0
-134.0,141.0,137.0,-77.0,15.0,-3.0,-512.0,538.0,699.0
-138.0,138.0,138.0,-75.0,14.0,-2.0,-514.0,536.0,704.0
-136.0,140.0,138.0,-72.0,13.0,0.0,-511.0,539.0,711.0
-132.0,138.0,142.0,-66.0,13.0,1.0,-510.0,539.0,702.0
-136.0,138.0,138.0,-63.0,13.0,0.0,-507.0,544.0,704.0
-132.0,139.0,139.0,-61.0,17.0,1.0,-509.0,543.0,698.0
-132.0,138.0,140.0,-57.0,16.0,1.0,-505.0,542.0,701.0
-131.0,140.0,139.0,-53.0,19.0,0.0,-501.0,541.0,703.0
-133.0,140.0,139.0,-49.0,21.0,-2.0,-503.0,542.0,707.0
-127.0,142.0,143.0,-45.0,23.0,-2.0,-499.0,543.0,702.0
-131.0,142.0,141.0,-43.0,22.0,-1.0,-502.0,550.0,705.0
-132.0,140.0,141.0,-43.0,19.0,-1.0,-501.0,545.0,707.0
-133.0,142.0,138.0,-43.0,15.0,1.0,-503.0,548.0,714.0
-133.0,141.0,142.0,-44.0,11.0,3.0,-501.0,545.0,710.0
-134.0,141.0,141.0,-46.0,7.0,3.0,-503.0,543.0,710.0
-131.0,138.0,138.0,-47.0,3.0,4.0,-503.0,541.0,714.0
-132.0,140.0,141.0,-47.0,0.0,4.0,-504.0,543.0,713.0
-133.0,140.0,142.0,-49.0,-3.0,4.0,-502.0,548.0,712.0
-132.0,142.0,141.0,-53.0,-3.0,3.0,-506.0,546.0,719.0
-132.0,140.0,143.0,-56.0,-3.0,2.0,-504.0,548.0,718.0
-132.0,140.0,141.0,-58.0,-2.0,2.0,-501.0,551.0,720.0
-134.0,143.0,142.0,-59.0,-2.0,3.0,-497.0,544.0,719.0
-132.0,143.0,142.0,-62.0,1.0,0.0,-500.0,548.0,716.0
-130.0,138.0,145.0,-65.0,4.0,-1.0,-497.0,541.0,712.0
-129.0,138.0,142.0,-65.0,7.0,-2.0,-494.0,543.0,718.0
-129.0,142.0,140.0,-66.0,10.0,-3.0,-492.0,543.0,718.0
-130.0,141.0,145.0,-65.0,12.0,-2.0,-497.0,540.0,715.0
-129.0,140.0,140.0,-67.0,14.0,-2.0,-493.0,543.0,720.0
-128.0,139.0,142.0,-66.0,13.0,-2.0,-493.0,545.0,713.0
-129.0,142.0,141.0,-66.0,13.0,-1.0,-488.0,543.0,717.0
-129.0,142.0,143.0,-65.0,13.0,1.0,-497.0,543.0,711.0
-130.0,137.0,142.0,-64.0,11.0,3.0,-496.0,544.0,718.0
-130.0,139.0,144.0,-63.0,7.0,7.0,-498.0,545.0,719.0
-131.0,142.0,141.0,-60.0,5.0,10.0,-494.0,548.0,718.0
-131.0,146.0,145.0,-59.0,4.0,13.0,-495.0,548.0,718.0
-130.0,140.0,142.0,-59.0,2.0,15.0,-501.0,551.0,718.0
-129.0,140.0,141.0,-60.0,1.0,19.0,-497.0,546.0,718.0
-129.0,141.0,140.0,-63.0,-2.0,18.0,-494.0,544.0,721.0
-129.0,141.0,142.0,-64.0,-2.0,20.0,-497.0,543.0,724.0
-131.0,144.0,147.0,-68.0,-2.0,20.0,-495.0,548.0,727.0
-127.0,142.0,146.0,-71.0,0.0,18.0,-493.0,545.0,727.0
-128.0,139.0,146.0,-69.0,2.0,14.0,-489.0,545.0,728.0
-132.0,142.0,143.0,-68.0,8.0,9.0,-495.0,545.0,723.0
-127.0,140.0,141.0,-67.0,15.0,4.0,-493.0,543.0,719.0
-128.0,140.0,142.0,-67.0,18.0,1.0,-498.0,545.0,716.0
-130.0,142.0,138.0,-68.0,21.0,0.0,-493.0,541.0,713.0
-133.0,144.0,137.0,-70.0,20.0,0.0,-498.0,550.0,707.0
-131.0,140.0,137.0,-74.0,22.0,-1.0,-489.0,545.0,707.0
-132.0,140.0,141.0,-77.0,23.0,-1.0,-493.0,543.0,710.0
-130.0,142.0,138.0,-83.0,22.0,-1.0,-495.0,545.0,711.0
-128.0,142.0,142.0,-85.0,22.0,1.0,-491.0,546.0,716.0
-128.0,142.0,141.0,-86.0,19.0,3.0,-494.0,550.0,721.0
-121.0,141.0,146.0,-85.0,19.0,2.0,-484.0,550.0,723.0
-127.0,141.0,140.0,-83.0,16.0,5.0,-487.0,546.0,722.0
-126.0,141.0,142.0,-77.0,14.0,7.0,-489.0,551.0,723.0
-130.0,142.0,140.0,-74.0,12.0,8.0,-482.0,547.0,720.0
-129.0,142.0,140.0,-71.0,10.0,8.0,-489.0,545.0,713.0
-128.0,140.0,138.0,-65.0,9.0,9.0,-491.0,547.0,714.0
-130.0,141.0,140.0,-59.0,9.0,8.0,-488.0,548.0,711.0
-130.0,143.0,140.0,-56.0,8.0,6.0,-491.0,550.0,704.0
-130.0,142.0,139.0,-54.0,6.0,4.0,-492.0,550.0,704.0
-130.0,141.0,139.0,-53.0,7.0,2.0,-489.0,546.0,707.0
-130.0,140.0,138.0,-52.0,5.0,0.0,-492.0,546.0,707.0
-130.0,141.0,140.0,-52.0,7.0,-1.0,-492.0,545.0,711.0
-129.0,141.0,147.0,-54.0,7.0,-4.0,-494.0,547.0,717.0
-130.0,140.0,143.0,-54.0,10.0,-5.0,-491.0,544.0,718.0
-130.0,141.0,142.0,-56.0,11.0,-6.0,-496.0,545.0,724.0
-129.0,142.0,143.0,-54.0,12.0,-7.0,-494.0,547.0,720.0
-130.0,145.0,145.0,-55.0,12.0,-8.0,-488.0,542.0,732.0
-130.0,142.0,143.0,-55.0,15.0,-10.0,-488.0,546.0,730.0
-133.0,141.0,146.0,-52.0,18.0,-12.0,-492.0,549.0,723.0
-128.0,141.0,144.0,-52.0,20.0,-14.0,-486.0,549.0,727.0
-127.0,139.0,143.0,-51.0,23.0,-17.0,-485.0,547.0,725.0
-127.0,140.0,143.0,-49.0,26.0,-19.0,-487.0,544.0,719.0
-132.0,144.0,140.0,-48.0,29.0,-21.0,-490.0,545.0,721.0
-128.0,141.0,142.0,-47.0,34.0,-27.0,-486.0,542.0,716.0
-128.0,141.0,142.0,-46.0,37.0,-29.0,-489.0,545.0,708.0
-129.0,139.0,140.0,-43.0,39.0,-31.0,-492.0,542.0,711.0
-132.0,140.0,142.0,-41.0,42.0,-35.0,-497.0,539.0,710.0
-128.0,139.0,138.0,-37.0,46.0,-39.0,-497.0,541.0,717.0
-133.0,139.0,139.0,-33.0,46.0,-41.0,-495.0,542.0,709.0
-130.0,137.0,142.0,-31.0,46.0,-41.0,-497.0,542.0,712.0
-131.0,139.0,140.0,-28.0,46.0,-41.0,-493.0,541.0,714.0
-130.0,139.0,144.0,-27.0,44.0,-40.0,-491.0,540.0,719.0
-129.0,139.0,146.0,-27.0,42.0,-35.0,-494.0,546.0,723.0
-127.0,140.0,145.0,-26.0,42.0,-32.0,-492.0,546.0,728.0
-126.0,139.0,144.0,-26.0,39.0,-29.0,-488.0,546.0,730.0
-130.0,140.0,147.0,-28.0,39.0,-28.0,-490.0,548.0,729.0
-129.0,143.0,150.0,-28.0,37.0,-26.0,-492.0,546.0,732.0
-130.0,139.0,147.0,-32.0,37.0,-26.0,-490.0,548.0,727.0
-128.0,143.0,146.0,-34.0,37.0,-24.0,-492.0,548.0,726.0
-130.0,139.0,141.0,-36.0,39.0,-25.0,-494.0,548.0,727.0
-132.0,145.0,142.0,-39.0,42.0,-27.0,-497.0,545.0,723.0
-130.0,142.0,144.0,-42.0,43.0,-28.0,-496.0,546.0,721.0
-128.0,142.0,143.0,-46.0,46.0,-31.0,-494.0,543.0,717.0
-127.0,137.0,141.0,-51.0,49.0,-32.0,-495.0,549.0,719.0
-129.0,143.0,144.0,-55.0,53.0,-32.0,-498.0,540.0,718.0
-128.0,139.0,140.0,-60.0,55.0,-34.0,-495.0,534.0,717.0
-129.0,138.0,143.0,-66.0,55.0,-35.0,-498.0,540.0,716.0
-132.0,138.0,140.0,-70.0,55.0,-34.0,-504.0,536.0,717.0
-129.0,138.0,139.0,-71.0,56.0,-33.0,-497.0,533.0,714.0
-133.0,139.0,142.0,-69.0,55.0,-33.0,-500.0,536.0,718.0
-130.0,138.0,141.0,-67.0,55.0,-32.0,-499.0,534.0,719.0
-130.0,142.0,139.0,-66.0,53.0,-30.0,-499.0,538.0,718.0
-132.0,143.0,141.0,-65.0,52.0,-29.0,-497.0,538.0,719.0
-129.0,140.0,139.0,-65.0,48.0,-27.0,-497.0,546.0,714.0
-130.0,140.0,140.0,-65.0,47.0,-26.0,-498.0,549.0,715.0
-132.0,140.0,140.0,-62.0,43.0,-25.0,-501.0,547.0,713.0
-135.0,139.0,140.0,-62.0,42.0,-23.0,-504.0,550.0,703.0
-133.0,142.0,140.0,-63.0,40.0,-23.0,-505.0,546.0,710.0
-134.0,142.0,138.0,-62.0,38.0,-22.0,-501.0,545.0,706.0
-135.0,141.0,138.0,-60.0,37.0,-22.0,-505.0,543.0,708.0
-135.0,139.0,139.0,-59.0,37.0,-23.0,-502.0,543.0,706.0
-135.0,140.0,141.0,-57.0,39.0,-24.0,-511.0,541.0,711.0
-135.0,140.0,141.0,-57.0,42.0,-25.0,-506.0,539.0,707.0
-132.0,140.0,137.0,-52.0,43.0,-26.0,-511.0,535.0,710.0
-132.0,139.0,138.0,-50.0,43.0,-27.0,-506.0,536.0,709.0
-134.0,137.0,137.0,-49.0,44.0,-28.0,-508.0,535.0,715.0
-134.0,133.0,144.0,-45.0,43.0,-28.0,-503.0,533.0,712.0
-132.0,137.0,142.0,-41.0,44.0,-29.0,-503.0,539.0,710.0
-131.0,139.0,138.0,-38.0,44.0,-28.0,-502.0,533.0,711.0
-134.0,137.0,138.0,-38.0,44.0,-28.0,-504.0,537.0,709.0
-133.0,137.0,139.0,-39.0,43.0,-28.0,-501.0,536.0,712.0
-134.0,139.0,141.0,-39.0,44.0,-29.0,-501.0,539.0,708.0
-135.0,143.0,144.0,-38.0,44.0,-30.0,-501.0,538.0,710.0
-135.0,138.0,139.0,-38.0,43.0,-29.0,-503.0,534.0,706.0
-133.0,141.0,137.0,-41.0,42.0,-30.0,-505.0,539.0,706.0
-132.0,140.0,138.0,-41.0,40.0,-31.0,-503.0,545.0,712.0
-133.0,140.0,140.0,-40.0,40.0,-31.0,-503.0,543.0,709.0
-135.0,140.0,139.0,-41.0,38.0,-30.0,-504.0,549.0,711.0
-135.0,141.0,143.0,-41.0,37.0,-30.0,-505.0,543.0,712.0
-136.0,141.0,148.0,-43.0,36.0,-29.0,-515.0,537.0,722.0
-131.0,141.0,138.0,-48.0,33.0,-28.0,-503.0,546.0,711.0
-134.0,140.0,138.0,-53.0,33.0,-29.0,-502.0,541.0,713.0
-137.0,140.0,143.0,-54.0,34.0,-30.0,-505.0,538.0,713.0
-135.0,137.0,143.0,-54.0,35.0,-29.0,-504.0,532.0,715.0
-132.0,138.0,140.0,-53.0,37.0,-28.0,-503.0,534.0,713.0
-133.0,139.0,140.0,-53.0,36.0,-28.0,-502.0,528.0,713.0
-133.0,139.0,140.0,-55.0,38.0,-27.0,-502.0,535.0,708.0
-132.0,139.0,141.0,-55.0,39.0,-26.0,-504.0,532.0,709.0
-137.0,134.0,147.0,-56.0,37.0,-27.0,-503.0,535.0,709.0
-134.0,138.0,137.0,-54.0,37.0,-24.0,-504.0,536.0,710.0
-131.0,137.0,139.0,-52.0,36.0,-21.0,-510.0,540.0,707.0
-134.0,139.0,137.0,-48.0,34.0,-20.0,-512.0,539.0,708.0
-136.0,141.0,138.0,-46.0,32.0,-19.0,-510.0,544.0,712.0
-134.0,138.0,142.0,-45.0,32.0,-19.0,-509.0,542.0,713.0
-136.0,141.0,140.0,-45.0,34.0,-19.0,-508.0,541.0,717.0
-135.0,138.0,144.0,-44.0,36.0,-21.0,-510.0,545.0,719.0
-135.0,141.0,138.0,-45.0,39.0,-24.0,-509.0,543.0,714.0
-135.0,139.0,144.0,-49.0,40.0,-23.0,-507.0,545.0,718.0
-137.0,139.0,139.0,-52.0,40.0,-24.0,-512.0,541.0,719.0
-134.0,137.0,141.0,-55.0,41.0,-24.0,-516.0,540.0,716.0
-134.0,140.0,141.0,-57.0,40.0,-25.0,-514.0,535.0,717.0
-137.0,136.0,142.0,-56.0,39.0,-25.0,-511.0,524.0,716.0
-133.0,135.0,137.0,-54.0,38.0,-25.0,-510.0,521.0,716.0
-132.0,134.0,139.0,-51.0,37.0,-22.0,-516.0,513.0,712.0
-134.0,134.0,140.0,-50.0,37.0,-21.0,-517.0,521.0,711.0
-134.0,136.0,140.0,-48.0,37.0,-19.0,-514.0,518.0,704.0
-134.0,135.0,136.0,-48.0,35.0,-17.0,-513.0,525.0,706.0
-133.0,136.0,136.0,-47.0,35.0,-14.0,-511.0,529.0,702.0
-132.0,138.0,138.0,-46.0,35.0,-11.0,-506.0,530.0,706.0
-133.0,137.0,140.0,-43.0,33.0,-10.0,-503.0,530.0,706.0
-134.0,139.0,139.0,-40.0,33.0,-9.0,-503.0,536.0,702.0
-131.0,137.0,138.0,-36.0,32.0,-6.0,-504.0,537.0,708.0
-134.0,140.0,139.0,-32.0,31.0,-4.0,-502.0,535.0,703.0
-134.0,137.0,140.0,-28.0,29.0,-4.0,-505.0,543.0,705.0
-134.0,139.0,140.0,-27.0,26.0,-3.0,-505.0,538.0,703.0
-133.0,139.0,137.0,-26.0,26.0,-2.0,-509.0,543.0,706.0
-134.0,139.0,139.0,-24.0,25.0,-1.0,-511.0,538.0,706.0
-133.0,141.0,138.0,-22.0,23.0,-2.0,-517.0,541.0,707.0
-138.0,141.0,141.0,-24.0,22.0,-3.0,-517.0,537.0,702.0
-135.0,141.0,141.0,-27.0,19.0,-1.0,-519.0,542.0,709.0
-135.0,139.0,139.0,-29.0,19.0,-2.0,-519.0,537.0,705.0
-137.0,139.0,141.0,-31.0,16.0,-2.0,-522.0,536.0,710.0
-135.0,140.0,142.0,-33.0,15.0,-4.0,-519.0,539.0,715.0
-135.0,136.0,140.0,-35.0,16.0,-5.0,-518.0,540.0,707.0
-136.0,139.0,138.0,-36.0,16.0,-6.0,-513.0,537.0,711.0
-139.0,141.0,141.0,-35.0,17.0,-7.0,-511.0,536.0,709.0
-139.0,143.0,139.0,-37.0,19.0,-7.0,-516.0,536.0,708.0
-135.0,138.0,142.0,-39.0,21.0,-8.0,-510.0,536.0,707.0
-136.0,142.0,138.0,-39.0,21.0,-10.0,-513.0,531.0,707.0
-135.0,141.0,138.0,-38.0,21.0,-10.0,-511.0,539.0,701.0
-134.0,137.0,141.0,-37.0,21.0,-9.0,-513.0,538.0,710.0
-133.0,140.0,138.0,-36.0,21.0,-9.0,-511.0,531.0,708.0
-133.0,138.0,138.0,-34.0,21.0,-9.0,-512.0,541.0,703.0
-135.0,138.0,139.0,-33.0,21.0,-8.0,-510.0,539.0,707.0
-135.0,140.0,138.0,-31.0,22.0,-8.0,-510.0,533.0,705.0
-134.0,138.0,137.0,-30.0,22.0,-7.0,-505.0,532.0,705.0
-135.0,139.0,138.0,-32.0,21.0,-5.0,-512.0,533.0,708.0
-133.0,140.0,137.0,-31.0,21.0,-5.0,-517.0,536.0,710.0
-137.0,139.0,138.0,-30.0,20.0,-4.0,-512.0,537.0,711.0
-134.0,139.0,139.0,-33.0,18.0,-4.0,-510.0,543.0,714.0
-136.0,140.0,139.0,-32.0,18.0,-3.0,-509.0,540.0,710.0
-133.0,139.0,137.0,-32.0,16.0,-4.0,-508.0,536.0,708.0
-138.0,139.0,140.0,-33.0,15.0,-3.0,-511.0,546.0,709.0
-131.0,139.0,138.0,-34.0,17.0,-4.0,-503.0,537.0,710.0
-132.0,138.0,140.0,-33.0,18.0,-5.0,-512.0,542.0,711.0
-133.0,138.0,137.0,-35.0,18.0,-6.0,-508.0,541.0,712.0
-132.0,137.0,139.0,-37.0,19.0,-6.0,-503.0,548.0,710.0
-133.0,137.0,140.0,-37.0,20.0,-6.0,-506.0,545.0,709.0
-136.0,140.0,142.0,-37.0,20.0,-7.0,-506.0,542.0,710.0
-133.0,141.0,142.0,-37.0,19.0,-5.0,-512.0,542.0,716.0
-136.0,140.0,140.0,-37.0,20.0,-5.0,-510.0,542.0,715.0
-136.0,139.0,143.0,-37.0,19.0,-5.0,-514.0,541.0,716.0
-132.0,140.0,145.0,-39.0,21.0,-7.0,-515.0,542.0,721.0
-132.0,141.0,147.0,-38.0,21.0,-7.0,-515.0,532.0,720.0
-136.0,137.0,142.0,-38.0,23.0,-7.0,-513.0,536.0,717.0
-134.0,137.0,142.0,-40.0,24.0,-8.0,-508.0,539.0,717.0
-134.0,140.0,142.0,-42.0,26.0,-10.0,-511.0,543.0,721.0
-134.0,138.0,140.0,-45.0,29.0,-10.0,-513.0,539.0,718.0
-132.0,138.0,139.0,-46.0,30.0,-10.0,-506.0,541.0,716.0
-132.0,142.0,140.0,-44.0,32.0,-9.0,-506.0,539.0,711.0
-135.0,140.0,143.0,-41.0,34.0,-11.0,-508.0,540.0,711.0
-133.0,142.0,137.0,-39.0,36.0,-11.0,-508.0,539.0,709.0
-132.0,140.0,136.0,-38.0,36.0,-10.0,-505.0,540.0,709.0
-129.0,139.0,137.0,-39.0,35.0,-10.0,-512.0,541.0,699.0
-135.0,141.0,138.0,-39.0,31.0,-9.0,-509.0,542.0,701.0
-135.0,136.0,137.0,-42.0,29.0,-7.0,-505.0,540.0,700.0
-138.0,140.0,139.0,-43.0,26.0,-5.0,-518.0,544.0,704.0
-136.0,137.0,138.0,-47.0,22.0,-5.0,-513.0,538.0,696.0
-133.0,138.0,140.0,-49.0,21.0,-2.0,-517.0,532.0,700.0
-136.0,140.0,143.0,-49.0,19.0,-2.0,-519.0,541.0,712.0
-135.0,139.0,139.0,-49.0,18.0,-1.0,-514.0,538.0,709.0
-136.0,140.0,141.0,-47.0,17.0,-1.0,-513.0,543.0,707.0
-135.0,138.0,138.0,-48.0,20.0,-3.0,-511.0,535.0,709.0
-135.0,138.0,141.0,-46.0,21.0,-3.0,-516.0,537.0,709.0
-135.0,142.0,140.0,-45.0,22.0,-4.0,-511.0,542.0,705.0
-132.0,139.0,142.0,-43.0,23.0,-6.0,-507.0,538.0,709.0
-135.0,140.0,136.0,-41.0,25.0,-4.0,-511.0,537.0,709.0
-134.0,139.0,140.0,-39.0,27.0,-5.0,-514.0,539.0,707.0
-135.0,136.0,136.0,-36.0,29.0,-6.0,-508.0,535.0,708.0
-134.0,140.0,140.0,-35.0,30.0,-7.0,-515.0,541.0,706.0
-137.0,141.0,138.0,-33.0,31.0,-6.0,-513.0,537.0,702.0
-138.0,139.0,137.0,-31.0,30.0,-6.0,-511.0,542.0,708.0
-136.0,140.0,143.0,-32.0,26.0,-4.0,-521.0,537.0,707.0
-138.0,140.0,137.0,-33.0,23.0,-4.0,-513.0,537.0,710.0
-139.0,142.0,141.0,-32.0,19.0,-4.0,-511.0,537.0,709.0
-139.0,140.0,137.0,-33.0,17.0,-2.0,-514.0,533.0,711.0
-136.0,138.0,140.0,-33.0,16.0,-1.0,-516.0,537.0,711.0
-136.0,140.0,143.0,-34.0,16.0,-1.0,-525.0,537.0,708.0
-133.0,140.0,138.0,-35.0,15.0,-3.0,-523.0,538.0,711.0
-136.0,138.0,139.0,-36.0,16.0,-4.0,-523.0,542.0,711.0
-135.0,139.0,141.0,-35.0,21.0,-7.0,-517.0,535.0,705.0
-134.0,140.0,138.0,-35.0,24.0,-10.0,-518.0,540.0,706.0
-136.0,140.0,139.0,-32.0,26.0,-13.0,-517.0,537.0,702.0
-136.0,140.0,138.0,-31.0,31.0,-17.0,-512.0,533.0,706.0
-133.0,138.0,139.0,-29.0,35.0,-20.0,-507.0,536.0,707.0
-137.0,138.0,136.0,-25.0,38.0,-23.0,-504.0,543.0,704.0
-135.0,138.0,137.0,-26.0,38.0,-23.0,-505.0,535.0,697.0
-133.0,138.0,138.0,-26.0,37.0,-24.0,-508.0,540.0,708.0
-135.0,140.0,138.0,-27.0,35.0,-21.0,-505.0,541.0,696.0
-134.0,141.0,136.0,-28.0,33.0,-20.0,-511.0,538.0,697.0
-135.0,142.0,139.0,-27.0,30.0,-19.0,-514.0,547.0,692.0
-134.0,141.0,138.0,-30.0,27.0,-16.0,-513.0,543.0,702.0
-135.0,141.0,137.0,-30.0,24.0,-13.0,-509.0,543.0,698.0
-134.0,143.0,138.0,-32.0,19.0,-9.0,-519.0,546.0,701.0
-136.0,139.0,136.0,-33.0,17.0,-6.0,-509.0,540.0,700.0
-137.0,140.0,138.0,-36.0,18.0,-3.0,-512.0,542.0,706.0
-132.0,142.0,135.0,-35.0,20.0,-4.0,-507.0,542.0,713.0
-134.0,142.0,140.0,-36.0,22.0,-4.0,-516.0,535.0,713.0
-138.0,141.0,139.0,-37.0,25.0,-4.0,-510.0,541.0,714.0
-133.0,138.0,142.0,-38.0,28.0,-5.0,-505.0,538.0,719.0
-135.0,142.0,142.0,-41.0,28.0,-5.0,-515.0,536.0,718.0
-137.0,141.0,143.0,-40.0,28.0,-6.0,-509.0,538.0,712.0
-135.0,137.0,143.0,-38.0,27.0,-5.0,-513.0,537.0,715.0
-135.0,138.0,137.0,-34.0,26.0,-7.0,-516.0,539.0,713.0
-137.0,141.0,139.0,-33.0,26.0,-7.0,-522.0,542.0,710.0
-137.0,137.0,140.0,-34.0,25.0,-6.0,-521.0,544.0,708.0
-136.0,141.0,139.0,-36.0,26.0,-6.0,-525.0,547.0,710.0
-137.0,142.0,138.0,-40.0,29.0,-7.0,-520.0,547.0,707.0
-134.0,140.0,140.0,-43.0,31.0,-8.0,-517.0,547.0,705.0
-140.0,142.0,140.0,-43.0,34.0,-11.0,-518.0,547.0,706.0
-137.0,141.0,141.0,-46.0,38.0,-12.0,-522.0,541.0,707.0
-135.0,140.0,138.0,-50.0,42.0,-15.0,-508.0,541.0,700.0
-137.0,140.0,139.0,-52.0,42.0,-16.0,-514.0,538.0,702.0
-132.0,137.0,139.0,-52.0,43.0,-16.0,-513.0,541.0,700.0
-136.0,143.0,137.0,-50.0,44.0,-16.0,-513.0,538.0,705.0
-135.0,138.0,137.0,-47.0,43.0,-15.0,-515.0,540.0,700.0
-133.0,140.0,136.0,-44.0,39.0,-13.0,-511.0,541.0,692.0
-134.0,140.0,139.0,-43.0,36.0,-10.0,-512.0,534.0,695.0
-138.0,140.0,137.0,-41.0,30.0,-9.0,-517.0,543.0,707.0
-136.0,138.0,136.0,-39.0,26.0,-6.0,-511.0,543.0,697.0
-137.0,139.0,136.0,-38.0,22.0,-5.0,-512.0,540.0,695.0
-137.0,139.0,137.0,-36.0,20.0,-4.0,-531.0,540.0,699.0
-138.0,141.0,137.0,-38.0,19.0,-2.0,-518.0,540.0,696.0
-137.0,141.0,141.0,-37.0,17.0,-3.0,-522.0,541.0,696.0
-139.0,139.0,138.0,-36.0,17.0,-1.0,-523.0,545.0,698.0
-138.0,140.0,139.0,-35.0,16.0,-1.0,-520.0,545.0,701.0
-135.0,140.0,138.0,-36.0,16.0,-4.0,-518.0,539.0,697.0
-137.0,141.0,140.0,-37.0,18.0,-6.0,-517.0,546.0,698.0
-137.0,141.0,136.0,-39.0,19.0,-7.0,-512.0,540.0,707.0
-137.0,140.0,139.0,-40.0,19.0,-8.0,-513.0,537.0,697.0
-133.0,139.0,141.0,-41.0,19.0,-9.0,-520.0,536.0,696.0
-136.0,138.0,137.0,-42.0,20.0,-10.0,-523.0,540.0,702.0
-137.0,138.0,138.0,-44.0,20.0,-11.0,-524.0,536.0,704.0
-139.0,139.0,138.0,-43.0,21.0,-12.0,-518.0,537.0,701.0
-136.0,139.0,138.0,-41.0,21.0,-13.0,-522.0,537.0,706.0
-138.0,139.0,140.0,-40.0,21.0,-11.0,-518.0,539.0,706.0
-137.0,140.0,139.0,-39.0,21.0,-13.0,-523.0,538.0,704.0
-140.0,140.0,134.0,-37.0,20.0,-12.0,-525.0,540.0,696.0
-139.0,140.0,139.0,-36.0,19.0,-10.0,-521.0,542.0,695.0
-138.0,140.0,135.0,-36.0,16.0,-9.0,-519.0,543.0,693.0
-139.0,140.0,135.0,-37.0,16.0,-8.0,-524.0,543.0,700.0
-140.0,139.0,135.0,-34.0,14.0,-8.0,-520.0,539.0,699.0
-134.0,139.0,135.0,-33.0,12.0,-7.0,-524.0,538.0,698.0
-136.0,139.0,138.0,-32.0,12.0,-6.0,-520.0,535.0,695.0
-139.0,140.0,137.0,-30.0,12.0,-6.0,-520.0,532.0,694.0
-135.0,136.0,138.0,-30.0,14.0,-6.0,-519.0,533.0,696.0
-135.0,137.0,137.0,-31.0,14.0,-8.0,-522.0,536.0,701.0
-133.0,140.0,138.0,-29.0,15.0,-9.0,-515.0,532.0,701.0
-133.0,138.0,136.0,-30.0,18.0,-9.0,-509.0,535.0,699.0
-138.0,141.0,136.0,-29.0,17.0,-10.0,-516.0,538.0,703.0
-135.0,139.0,139.0,-29.0,18.0,-10.0,-515.0,535.0,705.0
-137.0,138.0,137.0,-27.0,21.0,-10.0,-510.0,535.0,702.0
-140.0,134.0,145.0,-28.0,23.0,-10.0,-512.0,538.0,704.0
-135.0,140.0,142.0,-28.0,26.0,-9.0,-514.0,544.0,706.0
-134.0,138.0,140.0,-29.0,27.0,-9.0,-509.0,541.0,705.0
-134.0,141.0,139.0,-28.0,28.0,-8.0,-511.0,542.0,711.0
-138.0,141.0,140.0,-28.0,28.0,-9.0,-515.0,542.0,710.0
-135.0,143.0,145.0,-30.0,28.0,-6.0,-519.0,547.0,711.0
-137.0,141.0,141.0,-31.0,27.0,-7.0,-523.0,549.0,713.0
-135.0,143.0,142.0,-31.0,26.0,-6.0,-516.0,547.0,715.0
-136.0,143.0,138.0,-32.0,25.0,-5.0,-516.0,546.0,717.0
-137.0,143.0,138.0,-33.0,26.0,-4.0,-524.0,549.0,712.0
-139.0,143.0,139.0,-34.0,26.0,-5.0,-523.0,543.0,707.0
-137.0,142.0,144.0,-32.0,27.0,-6.0,-524.0,543.0,707.0
-136.0,140.0,135.0,-34.0,28.0,-9.0,-527.0,543.0,707.0
-135.0,140.0,136.0,-36.0,30.0,-10.0,-516.0,544.0,703.0
-136.0,142.0,139.0,-39.0,32.0,-12.0,-519.0,544.0,704.0
-138.0,143.0,137.0,-42.0,34.0,-13.0,-519.0,538.0,700.0
-136.0,140.0,139.0,-44.0,37.0,-14.0,-517.0,542.0,700.0
-136.0,139.0,139.0,-42.0,40.0,-17.0,-510.0,541.0,705.0
-134.0,141.0,138.0,-41.0,42.0,-19.0,-514.0,535.0,700.0
-136.0,139.0,138.0,-41.0,41.0,-20.0,-512.0,539.0,693.0
-134.0,137.0,136.0,-40.0,40.0,-19.0,-514.0,543.0,692.0
-137.0,140.0,137.0,-40.0,37.0,-20.0,-507.0,542.0,693.0
-137.0,141.0,139.0,-40.0,32.0,-17.0,-517.0,544.0,691.0
-136.0,141.0,139.0,-37.0,30.0,-16.0,-518.0,544.0,697.0
-136.0,139.0,137.0,-34.0,27.0,-13.0,-518.0,540.0,699.0
-135.0,139.0,136.0,-33.0,26.0,-9.0,-522.0,543.0,694.0
-139.0,140.0,140.0,-31.0,24.0,-7.0,-517.0,544.0,701.0
-136.0,140.0,139.0,-31.0,21.0,-6.0,-519.0,546.0,700.0
-139.0,140.0,138.0,-30.0,20.0,-3.0,-522.0,543.0,707.0
-138.0,142.0,138.0,-29.0,19.0,-3.0,-525.0,540.0,707.0
-137.0,142.0,137.0,-31.0,17.0,-1.0,-521.0,548.0,705.0
-138.0,143.0,136.0,-31.0,19.0,0.0,-518.0,544.0,707.0
-137.0,139.0,138.0,-31.0,19.0,-2.0,-521.0,543.0,703.0
-138.0,140.0,137.0,-33.0,21.0,-5.0,-523.0,541.0,705.0
-137.0,139.0,137.0,-36.0,23.0,-6.0,-526.0,546.0,693.0
-138.0,141.0,138.0,-36.0,23.0,-8.0,-530.0,540.0,694.0
-140.0,141.0,135.0,-38.0,26.0,-9.0,-521.0,542.0,696.0
-139.0,140.0,137.0,-41.0,28.0,-11.0,-520.0,544.0,693.0
-137.0,140.0,137.0,-41.0,28.0,-14.0,-530.0,542.0,696.0
-138.0,137.0,134.0,-38.0,29.0,-15.0,-526.0,543.0,699.0
-137.0,140.0,138.0,-37.0,29.0,-15.0,-531.0,542.0,694.0
-138.0,139.0,136.0,-37.0,30.0,-16.0,-525.0,539.0,699.0
-140.0,139.0,137.0,-38.0,30.0,-17.0,-530.0,541.0,698.0
-142.0,138.0,138.0,-36.0,30.0,-18.0,-528.0,540.0,698.0
-140.0,141.0,136.0,-35.0,31.0,-18.0,-523.0,539.0,706.0
-139.0,140.0,138.0,-33.0,30.0,-18.0,-525.0,541.0,694.0
-139.0,140.0,138.0,-33.0,30.0,-18.0,-519.0,534.0,692.0
-138.0,140.0,135.0,-29.0,28.0,-17.0,-524.0,545.0,696.0
-138.0,139.0,139.0,-29.0,28.0,-17.0,-526.0,541.0,692.0
-138.0,139.0,139.0,-29.0,26.0,-14.0,-520.0,541.0,689.0
-134.0,138.0,138.0,-29.0,28.0,-16.0,-530.0,547.0,687.0
-138.0,143.0,136.0,-30.0,29.0,-15.0,-523.0,538.0,693.0
-138.0,139.0,137.0,-29.0,29.0,-14.0,-518.0,541.0,687.0
-137.0,141.0,137.0,-30.0,27.0,-11.0,-527.0,541.0,691.0
-139.0,142.0,135.0,-31.0,26.0,-8.0,-531.0,548.0,695.0
-138.0,139.0,138.0,-31.0,26.0,-6.0,-521.0,547.0,695.0
-136.0,138.0,138.0,-31.0,26.0,-6.0,-523.0,539.0,696.0
-138.0,140.0,136.0,-30.0,26.0,-5.0,-524.0,536.0,701.0
-137.0,137.0,138.0,-29.0,26.0,-6.0,-522.0,537.0,697.0
-139.0,139.0,137.0,-31.0,26.0,-5.0,-524.0,541.0,703.0
-139.0,140.0,137.0,-31.0,26.0,-5.0,-520.0,538.0,707.0
-135.0,139.0,139.0,-33.0,26.0,-5.0,-523.0,536.0,710.0
-137.0,141.0,141.0,-34.0,26.0,-4.0,-527.0,540.0,707.0
-137.0,142.0,139.0,-33.0,25.0,-5.0,-520.0,546.0,702.0
-138.0,140.0,136.0,-34.0,24.0,-5.0,-522.0,545.0,707.0
-135.0,145.0,135.0,-32.0,25.0,-5.0,-524.0,544.0,702.0
-136.0,141.0,136.0,-34.0,25.0,-5.0,-516.0,544.0,700.0
-135.0,140.0,135.0,-33.0,28.0,-5.0,-519.0,548.0,700.0
-139.0,142.0,135.0,-34.0,28.0,-6.0,-520.0,547.0,697.0
-139.0,144.0,136.0,-35.0,29.0,-8.0,-522.0,552.0,692.0
-135.0,140.0,138.0,-34.0,31.0,-8.0,-524.0,546.0,689.0
-139.0,140.0,137.0,-33.0,31.0,-11.0,-524.0,549.0,699.0
-140.0,143.0,138.0,-33.0,31.0,-10.0,-527.0,548.0,694.0
-138.0,140.0,138.0,-35.0,31.0,-10.0,-528.0,548.0,698.0
-137.0,141.0,136.0,-35.0,30.0,-11.0,-521.0,543.0,698.0
-138.0,141.0,138.0,-33.0,32.0,-10.0,-527.0,546.0,694.0
-139.0,140.0,137.0,-34.0,30.0,-9.0,-521.0,543.0,697.0
-138.0,139.0,135.0,-35.0,29.0,-9.0,-520.0,541.0,694.0
-136.0,140.0,136.0,-38.0,25.0,-7.0,-527.0,543.0,700.0
-142.0,140.0,137.0,-37.0,24.0,-4.0,-525.0,541.0,698.0
-139.0,139.0,136.0,-37.0,23.0,-4.0,-527.0,542.0,695.0
-139.0,139.0,136.0,-38.0,21.0,-3.0,-532.0,536.0,690.0
-137.0,139.0,137.0,-38.0,21.0,0.0,-526.0,537.0,690.0
-142.0,139.0,137.0,-39.0,21.0,-2.0,-530.0,540.0,699.0
-140.0,140.0,138.0,-37.0,20.0,-1.0,-525.0,538.0,691.0
-140.0,141.0,137.0,-34.0,22.0,0.0,-528.0,538.0,690.0
-139.0,141.0,138.0,-31.0,24.0,-1.0,-523.0,541.0,696.0
-136.0,137.0,133.0,-29.0,27.0,-3.0,-526.0,539.0,691.0
-140.0,143.0,137.0,-26.0,29.0,-5.0,-522.0,544.0,695.0
-137.0,139.0,138.0,-24.0,30.0,-6.0,-520.0,548.0,691.0
-137.0,142.0,135.0,-22.0,31.0,-6.0,-524.0,552.0,694.0
-137.0,139.0,134.0,-19.0,33.0,-5.0,-521.0,544.0,693.0
-138.0,144.0,139.0,-19.0,34.0,-7.0,-525.0,547.0,688.0
-138.0,142.0,136.0,-17.0,33.0,-7.0,-524.0,550.0,689.0
-138.0,141.0,136.0,-16.0,30.0,-6.0,-524.0,549.0,695.0
-139.0,142.0,137.0,-19.0,28.0,-6.0,-530.0,546.0,700.0
-139.0,142.0,138.0,-21.0,27.0,-4.0,-533.0,549.0,696.0
-139.0,143.0,139.0,-22.0,26.0,-3.0,-533.0,548.0,704.0
-140.0,141.0,137.0,-27.0,25.0,-2.0,-528.0,549.0,695.0
-141.0,142.0,138.0,-30.0,23.0,-3.0,-527.0,547.0,704.0
-138.0,142.0,139.0,-34.0,22.0,-3.0,-527.0,547.0,694.0
-136.0,143.0,137.0,-36.0,22.0,-3.0,-531.0,544.0,700.0
-140.0,141.0,135.0,-38.0,24.0,-4.0,-528.0,548.0,697.0
-139.0,142.0,137.0,-40.0,25.0,-6.0,-524.0,547.0,695.0
-135.0,141.0,135.0,-43.0,26.0,-7.0,-523.0,545.0,690.0
-138.0,144.0,137.0,-44.0,28.0,-7.0,-527.0,545.0,689.0
-134.0,141.0,134.0,-45.0,28.0,-8.0,-528.0,542.0,683.0
-138.0,141.0,132.0,-46.0,28.0,-8.0,-523.0,540.0,689.0
-139.0,139.0,135.0,-44.0,28.0,-7.0,-521.0,543.0,686.0
-138.0,137.0,134.0,-45.0,27.0,-4.0,-522.0,540.0,688.0
-137.0,141.0,133.0,-42.0,25.0,-1.0,-525.0,543.0,687.0
-138.0,140.0,135.0,-41.0,24.0,0.0,-526.0,540.0,686.0
-139.0,141.0,134.0,-40.0,25.0,1.0,-528.0,547.0,689.0
-141.0,142.0,136.0,-39.0,21.0,4.0,-531.0,550.0,693.0
-140.0,142.0,136.0,-37.0,19.0,11.0,-530.0,544.0,695.0
-142.0,143.0,137.0,-32.0,21.0,12.0,-529.0,549.0,697.0
-137.0,140.0,136.0,-30.0,20.0,11.0,-529.0,547.0,693.0
-139.0,142.0,137.0,-31.0,21.0,10.0,-522.0,550.0,700.0
-141.0,141.0,138.0,-32.0,20.0,9.0,-527.0,542.0,691.0
-137.0,141.0,138.0,-31.0,18.0,6.0,-526.0,549.0,694.0
-142.0,143.0,135.0,-31.0,19.0,7.0,-527.0,545.0,693.0
-139.0,138.0,134.0,-31.0,19.0,6.0,-526.0,542.0,691.0
-139.0,143.0,136.0,-31.0,19.0,3.0,-523.0,548.0,694.0
-138.0,142.0,134.0,-29.0,20.0,1.0,-525.0,545.0,694.0
-138.0,141.0,135.0,-29.0,23.0,-2.0,-524.0,546.0,690.0
-136.0,141.0,136.0,-30.0,27.0,-4.0,-526.0,543.0,693.0
-141.0,141.0,136.0,-29.0,28.0,-6.0,-522.0,548.0,693.0
-138.0,140.0,136.0,-30.0,31.0,-7.0,-530.0,540.0,691.0
-136.0,143.0,138.0,-30.0,32.0,-5.0,-527.0,548.0,688.0
-138.0,142.0,137.0,-33.0,32.0,-6.0,-525.0,545.0,690.0
-138.0,143.0,136.0,-33.0,32.0,-6.0,-524.0,548.0,692.0
-137.0,139.0,137.0,-34.0,33.0,-7.0,-519.0,548.0,692.0
-140.0,140.0,135.0,-31.0,31.0,-7.0,-524.0,547.0,695.0
-137.0,140.0,138.0,-32.0,30.0,-7.0,-524.0,548.0,692.0
-137.0,142.0,131.0,-34.0,30.0,-6.0,-527.0,549.0,686.0
-135.0,143.0,135.0,-38.0,26.0,-4.0,-526.0,553.0,686.0
-134.0,140.0,136.0,-40.0,23.0,-1.0,-531.0,554.0,686.0
-140.0,143.0,137.0,-40.0,19.0,-1.0,-528.0,547.0,686.0
-142.0,143.0,135.0,-39.0,16.0,-1.0,-532.0,550.0,690.0
-136.0,139.0,135.0,-37.0,16.0,-1.0,-529.0,544.0,689.0
-139.0,140.0,136.0,-33.0,19.0,-2.0,-527.0,549.0,685.0
-139.0,139.0,131.0,-29.0,21.0,-5.0,-526.0,549.0,688.0
-138.0,142.0,138.0,-25.0,26.0,-6.0,-530.0,547.0,690.0
-137.0,141.0,136.0,-23.0,29.0,-9.0,-528.0,541.0,692.0
-139.0,140.0,138.0,-22.0,34.0,-11.0,-527.0,546.0,692.0
-141.0,142.0,134.0,-26.0,36.0,-13.0,-521.0,548.0,688.0
-136.0,141.0,138.0,-27.0,39.0,-14.0,-516.0,544.0,696.0
-136.0,143.0,136.0,-26.0,41.0,-15.0,-524.0,545.0,700.0
-137.0,141.0,138.0,-24.0,42.0,-18.0,-527.0,547.0,704.0
-138.0,139.0,137.0,-23.0,43.0,-15.0,-523.0,546.0,693.0
-139.0,142.0,136.0,-18.0,43.0,-14.0,-528.0,548.0,692.0
-140.0,141.0,135.0,-19.0,42.0,-12.0,-535.0,546.0,688.0
-142.0,141.0,136.0,-22.0,39.0,-10.0,-529.0,548.0,688.0
-141.0,143.0,133.0,-26.0,38.0,-6.0,-531.0,552.0,691.0
-141.0,145.0,136.0,-29.0,34.0,0.0,-540.0,550.0,688.0
-137.0,141.0,133.0,-29.0,32.0,6.0,-530.0,549.0,685.0
-141.0,143.0,137.0,-27.0,39.0,5.0,-534.0,549.0,692.0
-142.0,142.0,137.0,-29.0,44.0,1.0,-535.0,546.0,694.0
-140.0,141.0,137.0,-29.0,45.0,-2.0,-533.0,546.0,689.0
-139.0,143.0,133.0,-32.0,45.0,-4.0,-530.0,549.0,688.0
-141.0,143.0,136.0,-35.0,45.0,-3.0,-526.0,549.0,685.0
-140.0,143.0,135.0,-35.0,44.0,-3.0,-529.0,548.0,688.0
-138.0,143.0,134.0,-36.0,43.0,-4.0,-525.0,550.0,684.0
-139.0,143.0,135.0,-36.0,43.0,-2.0,-527.0,550.0,682.0
-137.0,142.0,136.0,-36.0,42.0,0.0,-526.0,552.0,683.0
-138.0,140.0,133.0,-35.0,41.0,0.0,-519.0,547.0,684.0
-136.0,144.0,134.0,-32.0,40.0,-2.0,-523.0,548.0,682.0
-139.0,140.0,131.0,-32.0,40.0,-1.0,-533.0,547.0,685.0
-140.0,140.0,131.0,-28.0,39.0,0.0,-527.0,548.0,682.0
-139.0,144.0,136.0,-27.0,39.0,-1.0,-529.0,549.0,685.0
-138.0,141.0,133.0,-24.0,40.0,-3.0,-529.0,553.0,684.0
-140.0,142.0,135.0,-20.0,40.0,-4.0,-537.0,557.0,684.0
-142.0,144.0,137.0,-16.0,40.0,-5.0,-534.0,555.0,689.0
-139.0,144.0,135.0,-13.0,41.0,-5.0,-534.0,554.0,684.0
-141.0,144.0,137.0,-11.0,42.0,-4.0,-533.0,557.0,688.0
-140.0,141.0,134.0,-12.0,41.0,-3.0,-527.0,542.0,685.0
-140.0,143.0,136.0,-9.0,38.0,-3.0,-536.0,557.0,690.0
-143.0,141.0,136.0,-6.0,39.0,0.0,-533.0,549.0,686.0
-142.0,143.0,135.0,-6.0,38.0,-5.0,-539.0,549.0,686.0
-140.0,142.0,133.0,-8.0,37.0,-10.0,-539.0,551.0,688.0
-140.0,141.0,137.0,-13.0,38.0,-11.0,-534.0,552.0,688.0
-139.0,143.0,135.0,-13.0,39.0,-12.0,-534.0,547.0,687.0
-142.0,141.0,134.0,-15.0,40.0,-10.0,-535.0,549.0,687.0
-136.0,138.0,135.0,-16.0,42.0,-13.0,-529.0,549.0,686.0
-141.0,142.0,133.0,-18.0,41.0,-13.0,-528.0,544.0,688.0
-140.0,145.0,136.0,-19.0,43.0,-14.0,-530.0,544.0,685.0
-137.0,142.0,134.0,-18.0,43.0,-13.0,-532.0,549.0,678.0
-139.0,141.0,136.0,-22.0,43.0,-12.0,-530.0,547.0,683.0
-142.0,143.0,137.0,-24.0,43.0,-10.0,-530.0,547.0,687.0
-139.0,141.0,134.0,-24.0,42.0,-7.0,-525.0,547.0,685.0
-142.0,147.0,130.0,-25.0,40.0,-4.0,-531.0,553.0,683.0
-140.0,143.0,135.0,-26.0,38.0,-2.0,-540.0,551.0,683.0
-142.0,142.0,134.0,-25.0,35.0,0.0,-530.0,553.0,682.0
-138.0,144.0,133.0,-26.0,32.0,-1.0,-536.0,553.0,681.0
-141.0,144.0,135.0,-28.0,30.0,0.0,-528.0,552.0,682.0
-133.0,147.0,134.0,-28.0,30.0,-2.0,-534.0,556.0,683.0
-140.0,145.0,135.0,-33.0,30.0,1.0,-536.0,554.0,685.0
-140.0,143.0,138.0,-32.0,28.0,1.0,-530.0,552.0,684.0
-140.0,143.0,134.0,-32.0,27.0,0.0,-531.0,550.0,685.0
-137.0,143.0,134.0,-34.0,27.0,1.0,-531.0,554.0,683.0
-141.0,142.0,135.0,-36.0,26.0,0.0,-529.0,551.0,686.0
-138.0,145.0,133.0,-39.0,24.0,-1.0,-535.0,553.0,680.0
-140.0,146.0,134.0,-43.0,23.0,-1.0,-535.0,553.0,690.0
-141.0,145.0,133.0,-46.0,22.0,-1.0,-534.0,553.0,684.0
-143.0,143.0,135.0,-46.0,21.0,-1.0,-532.0,550.0,688.0
-138.0,141.0,136.0,-47.0,21.0,-1.0,-530.0,554.0,687.0
-141.0,145.0,135.0,-46.0,23.0,-1.0,-534.0,549.0,686.0
-140.0,143.0,133.0,-45.0,23.0,-1.0,-533.0,551.0,688.0
-138.0,142.0,137.0,-44.0,24.0,-3.0,-533.0,555.0,683.0
-139.0,141.0,132.0,-44.0,25.0,-3.0,-539.0,553.0,685.0
-141.0,144.0,133.0,-42.0,27.0,-4.0,-531.0,550.0,685.0
-140.0,141.0,135.0,-40.0,28.0,-4.0,-532.0,549.0,684.0
-137.0,143.0,134.0,-39.0,26.0,-3.0,-534.0,552.0,687.0
-141.0,147.0,139.0,-37.0,24.0,-4.0,-536.0,550.0,681.0
-139.0,142.0,133.0,-36.0,23.0,-5.0,-524.0,552.0,683.0
-141.0,144.0,136.0,-34.0,24.0,-3.0,-534.0,551.0,682.0
-142.0,144.0,138.0,-32.0,22.0,-3.0,-531.0,556.0,680.0
-141.0,142.0,140.0,-35.0,21.0,-4.0,-540.0,556.0,684.0
-139.0,144.0,136.0,-36.0,19.0,-3.0,-534.0,555.0,682.0
-142.0,143.0,132.0,-39.0,19.0,-3.0,-535.0,558.0,676.0
-140.0,145.0,137.0,-43.0,20.0,-5.0,-536.0,558.0,678.0
-140.0,144.0,134.0,-45.0,21.0,-6.0,-535.0,559.0,687.0
-140.0,144.0,133.0,-46.0,21.0,-7.0,-534.0,561.0,685.0
-141.0,144.0,131.0,-48.0,20.0,-7.0,-534.0,560.0,684.0
-140.0,145.0,131.0,-50.0,19.0,-5.0,-527.0,557.0,683.0
-139.0,147.0,134.0,-54.0,18.0,-6.0,-535.0,559.0,685.0
-142.0,145.0,133.0,-57.0,17.0,-7.0,-538.0,554.0,686.0
-140.0,146.0,136.0,-57.0,17.0,-7.0,-538.0,556.0,684.0
-140.0,140.0,136.0,-57.0,16.0,-7.0,-538.0,557.0,691.0
-138.0,143.0,136.0,-57.0,16.0,-8.0,-534.0,551.0,689.0
-139.0,143.0,135.0,-57.0,17.0,-7.0,-541.0,552.0,682.0
-141.0,143.0,135.0,-55.0,17.0,-9.0,-538.0,556.0,683.0
-142.0,144.0,136.0,-57.0,17.0,-9.0,-533.0,551.0,688.0
-142.0,143.0,133.0,-58.0,16.0,-10.0,-540.0,551.0,684.0
-143.0,143.0,133.0,-60.0,17.0,-11.0,-538.0,550.0,679.0
-141.0,144.0,139.0,-57.0,18.0,-11.0,-542.0,553.0,685.0
-139.0,142.0,133.0,-57.0,18.0,-10.0,-532.0,555.0,683.0
-139.0,142.0,132.0,-58.0,18.0,-12.0,-538.0,559.0,679.0
-139.0,141.0,134.0,-58.0,20.0,-13.0,-533.0,559.0,681.0
-143.0,145.0,135.0,-60.0,21.0,-12.0,-535.0,552.0,676.0
-140.0,140.0,135.0,-60.0,22.0,-13.0,-536.0,554.0,678.0
-140.0,142.0,130.0,-61.0,22.0,-14.0,-537.0,554.0,678.0
-143.0,145.0,134.0,-61.0,22.0,-14.0,-536.0,559.0,677.0
-141.0,142.0,133.0,-64.0,22.0,-14.0,-535.0,554.0,676.0
-142.0,146.0,134.0,-63.0,22.0,-12.0,-538.0,555.0,679.0
-139.0,144.0,134.0,-63.0,20.0,-12.0,-537.0,552.0,681.0
-141.0,145.0,135.0,-63.0,17.0,-10.0,-534.0,550.0,685.0
-139.0,142.0,137.0,-63.0,16.0,-9.0,-533.0,551.0,682.0
-141.0,141.0,137.0,-62.0,14.0,-8.0,-536.0,549.0,682.0
-143.0,140.0,135.0,-62.0,12.0,-7.0,-537.0,550.0,686.0
-142.0,141.0,133.0,-64.0,10.0,-6.0,-539.0,549.0,690.0
-138.0,138.0,133.0,-63.0,11.0,-6.0,-532.0,550.0,686.0
-143.0,142.0,135.0,-63.0,10.0,-5.0,-537.0,550.0,685.0
-141.0,141.0,136.0,-65.0,10.0,-6.0,-538.0,549.0,690.0
-142.0,143.0,135.0,-64.0,10.0,-8.0,-535.0,548.0,685.0
-141.0,140.0,137.0,-62.0,12.0,-7.0,-531.0,551.0,686.0
-141.0,141.0,133.0,-62.0,14.0,-8.0,-537.0,550.0,685.0
-140.0,141.0,136.0,-62.0,13.0,-10.0,-537.0,551.0,678.0
-139.0,142.0,133.0,-62.0,17.0,-11.0,-535.0,552.0,681.0
-141.0,141.0,134.0,-63.0,18.0,-10.0,-541.0,547.0,681.0
-142.0,145.0,134.0,-60.0,17.0,-9.0,-540.0,552.0,680.0
-147.0,143.0,132.0,-58.0,17.0,-10.0,-540.0,556.0,682.0
-142.0,143.0,135.0,-60.0,17.0,-9.0,-540.0,550.0,679.0
-143.0,144.0,136.0,-60.0,18.0,-9.0,-538.0,547.0,680.0
-143.0,143.0,136.0,-60.0,17.0,-9.0,-537.0,552.0,681.0
-141.0,141.0,136.0,-59.0,17.0,-9.0,-534.0,551.0,680.0
-142.0,144.0,133.0,-60.0,19.0,-9.0,-534.0,553.0,683.0
-141.0,143.0,134.0,-61.0,18.0,-8.0,-539.0,548.0,683.0
-143.0,141.0,134.0,-61.0,18.0,-6.0,-537.0,551.0,682.0
-139.0,144.0,135.0,-61.0,16.0,-7.0,-533.0,547.0,682.0
-142.0,140.0,132.0,-63.0,16.0,-8.0,-534.0,549.0,684.0
-141.0,142.0,135.0,-62.0,17.0,-8.0,-536.0,547.0,688.0
-140.0,139.0,135.0,-63.0,17.0,-6.0,-535.0,547.0,686.0
-139.0,141.0,138.0,-63.0,16.0,-7.0,-535.0,549.0,686.0
-141.0,141.0,135.0,-63.0,15.0,-7.0,-539.0,545.0,683.0
-140.0,142.0,134.0,-63.0,15.0,-6.0,-539.0,549.0,686.0
-139.0,138.0,133.0,-63.0,16.0,-6.0,-538.0,549.0,683.0
-140.0,141.0,131.0,-62.0,18.0,-7.0,-538.0,548.0,685.0
-141.0,142.0,135.0,-61.0,19.0,-9.0,-535.0,546.0,688.0
-140.0,139.0,134.0,-62.0,19.0,-9.0,-540.0,548.0,683.0
-140.0,139.0,133.0,-63.0,19.0,-8.0,-534.0,548.0,686.0
-140.0,141.0,132.0,-65.0,18.0,-9.0,-540.0,548.0,684.0
-143.0,142.0,135.0,-64.0,18.0,-9.0,-531.0,552.0,678.0
-143.0,141.0,132.0,-64.0,16.0,-7.0,-537.0,544.0,682.0
-141.0,140.0,135.0,-65.0,16.0,-7.0,-538.0,551.0,685.0
-141.0,139.0,133.0,-66.0,13.0,-9.0,-541.0,545.0,682.0
-140.0,143.0,135.0,-65.0,13.0,-8.0,-539.0,550.0,686.0
-139.0,140.0,134.0,-65.0,14.0,-6.0,-543.0,554.0,684.0
-140.0,139.0,135.0,-63.0,16.0,-9.0,-535.0,544.0,686.0
-141.0,143.0,132.0,-61.0,20.0,-10.0,-534.0,542.0,689.0
-142.0,142.0,134.0,-60.0,20.0,-11.0,-536.0,545.0,683.0
-139.0,141.0,135.0,-59.0,22.0,-11.0,-537.0,548.0,685.0
-143.0,141.0,136.0,-60.0,21.0,-12.0,-533.0,548.0,685.0
-138.0,145.0,136.0,-60.0,21.0,-13.0,-531.0,549.0,692.0
-140.0,143.0,138.0,-59.0,22.0,-13.0,-528.0,552.0,684.0
-140.0,139.0,135.0,-61.0,22.0,-14.0,-533.0,548.0,684.0
-143.0,141.0,135.0,-61.0,22.0,-13.0,-536.0,545.0,689.0
-140.0,142.0,135.0,-61.0,21.0,-12.0,-531.0,550.0,686.0
-142.0,141.0,136.0,-62.0,20.0,-12.0,-534.0,548.0,686.0
-140.0,142.0,135.0,-61.0,20.0,-12.0,-535.0,547.0,688.0
-141.0,138.0,135.0,-60.0,22.0,-13.0,-538.0,544.0,686.0
-139.0,139.0,134.0,-62.0,24.0,-13.0,-532.0,538.0,682.0
-138.0,138.0,130.0,-64.0,22.0,-12.0,-537.0,537.0,681.0
-139.0,141.0,132.0,-67.0,20.0,-11.0,-539.0,540.0,681.0
-141.0,141.0,133.0,-69.0,18.0,-10.0,-539.0,544.0,677.0
-142.0,142.0,130.0,-70.0,16.0,-7.0,-533.0,545.0,684.0
-142.0,141.0,131.0,-70.0,11.0,-6.0,-536.0,543.0,679.0
-140.0,141.0,136.0,-65.0,10.0,-4.0,-538.0,544.0,681.0
-139.0,141.0,135.0,-60.0,7.0,-3.0,-538.0,543.0,684.0
-140.0,139.0,135.0,-54.0,7.0,-3.0,-541.0,545.0,683.0
-141.0,140.0,135.0,-49.0,6.0,-5.0,-536.0,544.0,685.0
-143.0,142.0,134.0,-47.0,8.0,-5.0,-540.0,542.0,694.0
-138.0,141.0,136.0,-41.0,11.0,-7.0,-535.0,545.0,693.0
-142.0,143.0,133.0,-40.0,10.0,-7.0,-534.0,545.0,689.0
-138.0,143.0,135.0,-39.0,11.0,-8.0,-533.0,548.0,691.0
-139.0,143.0,135.0,-43.0,14.0,-11.0,-533.0,549.0,688.0
-140.0,140.0,136.0,-46.0,15.0,-13.0,-536.0,544.0,692.0
-142.0,143.0,134.0,-49.0,16.0,-14.0,-540.0,545.0,695.0
-142.0,141.0,135.0,-50.0,17.0,-15.0,-534.0,545.0,686.0
-142.0,139.0,136.0,-49.0,19.0,-15.0,-534.0,543.0,687.0
-141.0,139.0,132.0,-48.0,21.0,-15.0,-539.0,537.0,685.0
-139.0,139.0,136.0,-46.0,22.0,-18.0,-541.0,541.0,687.0
-140.0,139.0,135.0,-46.0,22.0,-16.0,-540.0,543.0,675.0
-142.0,142.0,132.0,-51.0,24.0,-15.0,-543.0,542.0,686.0
-143.0,141.0,131.0,-55.0,24.0,-15.0,-540.0,537.0,683.0
-142.0,139.0,134.0,-56.0,25.0,-15.0,-537.0,544.0,677.0
-139.0,142.0,133.0,-56.0,25.0,-15.0,-534.0,546.0,683.0
-145.0,138.0,133.0,-54.0,27.0,-15.0,-528.0,544.0,677.0
-138.0,139.0,135.0,-51.0,28.0,-13.0,-536.0,544.0,677.0
-139.0,143.0,134.0,-48.0,26.0,-13.0,-529.0,549.0,677.0
-143.0,142.0,132.0,-43.0,26.0,-11.0,-533.0,551.0,679.0
-139.0,139.0,134.0,-41.0,25.0,-9.0,-534.0,545.0,677.0
-142.0,142.0,135.0,-40.0,25.0,-6.0,-536.0,545.0,683.0
-143.0,142.0,136.0,-36.0,23.0,-5.0,-536.0,548.0,679.0
-138.0,140.0,136.0,-33.0,23.0,-4.0,-536.0,547.0,681.0
-141.0,142.0,132.0,-30.0,23.0,-5.0,-538.0,546.0,682.0
-141.0,142.0,134.0,-29.0,24.0,-6.0,-534.0,547.0,686.0
-139.0,142.0,132.0,-32.0,26.0,-7.0,-540.0,551.0,688.0
-139.0,141.0,136.0,-32.0,27.0,-8.0,-534.0,548.0,686.0
-143.0,144.0,136.0,-35.0,26.0,-9.0,-538.0,552.0,690.0
-142.0,144.0,136.0,-36.0,26.0,-10.0,-538.0,555.0,690.0
-141.0,142.0,136.0,-38.0,25.0,-11.0,-542.0,556.0,692.0
-142.0,144.0,136.0,-42.0,25.0,-13.0,-541.0,548.0,691.0
-144.0,141.0,139.0,-47.0,22.0,-13.0,-539.0,548.0,695.0
-144.0,145.0,135.0,-53.0,22.0,-15.0,-542.0,547.0,692.0
-142.0,141.0,136.0,-56.0,23.0,-16.0,-535.0,543.0,699.0
-143.0,139.0,137.0,-58.0,23.0,-17.0,-537.0,547.0,692.0
-142.0,141.0,138.0,-57.0,24.0,-17.0,-541.0,544.0,690.0
-144.0,141.0,132.0,-55.0,24.0,-17.0,-539.0,534.0,683.0
-141.0,141.0,134.0,-54.0,25.0,-18.0,-536.0,541.0,682.0
-142.0,139.0,134.0,-53.0,27.0,-19.0,-535.0,536.0,689.0
-143.0,141.0,131.0,-49.0,31.0,-20.0,-533.0,541.0,685.0
-138.0,140.0,133.0,-45.0,32.0,-21.0,-533.0,544.0,680.0
-138.0,139.0,136.0,-41.0,33.0,-21.0,-537.0,540.0,683.0
-139.0,139.0,136.0,-37.0,32.0,-21.0,-533.0,541.0,683.0
-140.0,139.0,132.0,-36.0,32.0,-21.0,-535.0,544.0,682.0
-142.0,139.0,134.0,-34.0,31.0,-20.0,-538.0,539.0,681.0
-141.0,141.0,133.0,-31.0,32.0,-19.0,-539.0,539.0,681.0
-143.0,140.0,134.0,-31.0,30.0,-17.0,-543.0,544.0,678.0
-144.0,143.0,131.0,-31.0,29.0,-17.0,-543.0,548.0,681.0
-140.0,141.0,132.0,-33.0,25.0,-14.0,-542.0,552.0,680.0
-142.0,138.0,135.0,-35.0,26.0,-14.0,-544.0,544.0,680.0
-142.0,142.0,134.0,-37.0,26.0,-12.0,-542.0,545.0,677.0
-140.0,142.0,134.0,-41.0,25.0,-10.0,-544.0,543.0,676.0
-141.0,142.0,134.0,-45.0,23.0,-10.0,-549.0,543.0,684.0
-143.0,142.0,131.0,-48.0,25.0,-12.0,-541.0,542.0,684.0
-142.0,142.0,134.0,-51.0,24.0,-10.0,-542.0,542.0,685.0
-140.0,141.0,135.0,-51.0,23.0,-12.0,-545.0,546.0,686.0
-142.0,141.0,136.0,-51.0,24.0,-12.0,-537.0,546.0,687.0
-140.0,140.0,135.0,-50.0,23.0,-13.0,-539.0,548.0,686.0
-142.0,141.0,135.0,-48.0,24.0,-15.0,-539.0,543.0,680.0
-142.0,141.0,134.0,-47.0,28.0,-16.0,-542.0,547.0,684.0
-142.0,140.0,135.0,-49.0,29.0,-19.0,-545.0,545.0,682.0
-141.0,138.0,135.0,-50.0,29.0,-20.0,-541.0,542.0,684.0
-140.0,139.0,136.0,-50.0,32.0,-21.0,-540.0,546.0,686.0
-144.0,140.0,134.0,-50.0,32.0,-22.0,-542.0,540.0,683.0
-143.0,142.0,132.0,-51.0,33.0,-24.0,-541.0,540.0,685.0
-143.0,139.0,135.0,-50.0,32.0,-23.0,-547.0,542.0,685.0
-140.0,140.0,133.0,-51.0,32.0,-24.0,-542.0,539.0,686.0
-142.0,137.0,136.0,-51.0,33.0,-25.0,-544.0,545.0,688.0
-142.0,141.0,136.0,-50.0,32.0,-24.0,-542.0,541.0,686.0
-142.0,139.0,135.0,-50.0,31.0,-24.0,-541.0,542.0,683.0
-143.0,139.0,135.0,-48.0,32.0,-23.0,-537.0,547.0,685.0
-142.0,140.0,134.0,-45.0,32.0,-22.0,-541.0,542.0,683.0
-143.0,142.0,135.0,-46.0,32.0,-22.0,-547.0,544.0,682.0
-142.0,139.0,134.0,-46.0,31.0,-22.0,-543.0,540.0,679.0
-143.0,143.0,134.0,-47.0,30.0,-20.0,-546.0,541.0,676.0
-144.0,142.0,135.0,-47.0,32.0,-18.0,-547.0,548.0,682.0
-141.0,143.0,131.0,-48.0,32.0,-17.0,-542.0,546.0,683.0
-141.0,141.0,135.0,-48.0,32.0,-19.0,-537.0,549.0,680.0
-144.0,140.0,136.0,-49.0,31.0,-19.0,-543.0,546.0,677.0
-142.0,143.0,133.0,-49.0,29.0,-21.0,-539.0,545.0,681.0
-140.0,139.0,133.0,-51.0,29.0,-22.0,-546.0,549.0,685.0
-143.0,141.0,134.0,-51.0,28.0,-23.0,-547.0,547.0,683.0
-142.0,142.0,131.0,-51.0,28.0,-24.0,-540.0,550.0,679.0
-144.0,139.0,136.0,-54.0,28.0,-23.0,-541.0,546.0,684.0
-143.0,142.0,135.0,-56.0,26.0,-23.0,-550.0,543.0,680.0
-143.0,138.0,134.0,-58.0,25.0,-24.0,-547.0,542.0,680.0
-141.0,138.0,134.0,-58.0,25.0,-22.0,-547.0,548.0,683.0
-144.0,141.0,132.0,-58.0,24.0,-22.0,-546.0,544.0,681.0
-142.0,139.0,135.0,-60.0,24.0,-20.0,-547.0,539.0,681.0
-143.0,139.0,135.0,-60.0,24.0,-18.0,-543.0,542.0,682.0
-143.0,139.0,132.0,-60.0,23.0,-18.0,-545.0,534.0,687.0
-142.0,140.0,132.0,-58.0,23.0,-18.0,-541.0,537.0,685.0
-143.0,139.0,135.0,-58.0,24.0,-18.0,-544.0,538.0,684.0
-144.0,140.0,133.0,-56.0,24.0,-19.0,-539.0,536.0,685.0
-142.0,139.0,132.0,-54.0,24.0,-19.0,-544.0,542.0,681.0
-141.0,137.0,132.0,-51.0,24.0,-19.0,-546.0,541.0,681.0
-143.0,143.0,131.0,-51.0,24.0,-19.0,-542.0,545.0,682.0
-142.0,141.0,136.0,-52.0,22.0,-18.0,-548.0,542.0,681.0
-142.0,141.0,134.0,-53.0,21.0,-18.0,-551.0,544.0,678.0
-145.0,142.0,131.0,-51.0,20.0,-17.0,-550.0,541.0,675.0
-143.0,142.0,136.0,-52.0,20.0,-17.0,-546.0,540.0,678.0
-144.0,139.0,136.0,-53.0,19.0,-17.0,-547.0,543.0,683.0
-144.0,139.0,136.0,-52.0,19.0,-16.0,-548.0,542.0,676.0
-144.0,142.0,134.0,-53.0,18.0,-16.0,-548.0,542.0,686.0
-143.0,142.0,136.0,-55.0,20.0,-15.0,-550.0,543.0,685.0
-144.0,141.0,136.0,-56.0,21.0,-15.0,-551.0,543.0,682.0
-144.0,139.0,137.0,-58.0,21.0,-15.0,-544.0,542.0,689.0
-141.0,139.0,135.0,-60.0,21.0,-16.0,-545.0,540.0,685.0
-142.0,140.0,137.0,-62.0,19.0,-18.0,-548.0,539.0,685.0
-143.0,140.0,135.0,-61.0,19.0,-18.0,-547.0,542.0,686.0
-143.0,138.0,133.0,-63.0,21.0,-17.0,-550.0,533.0,689.0
-144.0,141.0,134.0,-64.0,21.0,-17.0,-543.0,538.0,687.0
-143.0,140.0,131.0,-66.0,22.0,-16.0,-548.0,531.0,684.0
-143.0,137.0,136.0,-69.0,24.0,-15.0,-548.0,535.0,681.0
-143.0,138.0,135.0,-68.0,26.0,-15.0,-545.0,537.0,684.0
-143.0,139.0,133.0,-67.0,29.0,-18.0,-545.0,539.0,682.0
-142.0,138.0,131.0,-66.0,30.0,-17.0,-543.0,541.0,684.0
-141.0,140.0,136.0,-64.0,32.0,-17.0,-542.0,538.0,683.0
-141.0,138.0,135.0,-64.0,30.0,-18.0,-547.0,538.0,686.0
-143.0,140.0,135.0,-62.0,30.0,-15.0,-541.0,537.0,681.0
-141.0,137.0,136.0,-60.0,27.0,-15.0,-542.0,537.0,684.0
-144.0,138.0,134.0,-58.0,25.0,-14.0,-542.0,538.0,683.0
-144.0,139.0,133.0,-57.0,24.0,-12.0,-544.0,536.0,683.0
-140.0,137.0,134.0,-59.0,20.0,-11.0,-542.0,531.0,678.0
-144.0,137.0,134.0,-58.0,17.0,-9.0,-547.0,534.0,678.0
-143.0,137.0,135.0,-59.0,16.0,-7.0,-545.0,536.0,680.0
-144.0,139.0,134.0,-58.0,15.0,-7.0,-543.0,535.0,682.0
-144.0,139.0,133.0,-57.0,16.0,-6.0,-552.0,541.0,679.0
-144.0,137.0,133.0,-53.0,16.0,-7.0,-548.0,540.0,676.0
-143.0,138.0,134.0,-52.0,17.0,-8.0,-551.0,540.0,674.0
-143.0,139.0,134.0,-48.0,18.0,-8.0,-550.0,545.0,679.0
-143.0,139.0,134.0,-47.0,19.0,-9.0,-547.0,537.0,680.0
-143.0,138.0,133.0,-45.0,21.0,-10.0,-549.0,531.0,680.0
-144.0,139.0,134.0,-41.0,20.0,-11.0,-552.0,541.0,682.0
-144.0,140.0,133.0,-42.0,19.0,-11.0,-552.0,529.0,685.0
-143.0,138.0,135.0,-46.0,20.0,-11.0,-544.0,537.0,686.0
-142.0,139.0,136.0,-47.0,21.0,-10.0,-545.0,535.0,684.0
-141.0,138.0,134.0,-49.0,20.0,-9.0,-544.0,532.0,685.0
-144.0,138.0,135.0,-45.0,20.0,-6.0,-544.0,533.0,686.0
-140.0,138.0,133.0,-43.0,20.0,-6.0,-542.0,532.0,683.0
-144.0,138.0,134.0,-42.0,18.0,-4.0,-542.0,536.0,684.0
-143.0,137.0,135.0,-41.0,18.0,-3.0,-545.0,531.0,679.0
-142.0,137.0,133.0,-40.0,17.0,0.0,-545.0,529.0,681.0
-141.0,137.0,135.0,-40.0,15.0,2.0,-549.0,532.0,679.0
-141.0,138.0,130.0,-40.0,16.0,4.0,-550.0,536.0,678.0
-143.0,138.0,132.0,-41.0,16.0,6.0,-547.0,531.0,677.0
-144.0,140.0,134.0,-39.0,17.0,5.0,-543.0,539.0,680.0
-140.0,140.0,133.0,-35.0,17.0,6.0,-541.0,538.0,685.0
-142.0,139.0,137.0,-33.0,19.0,6.0,-544.0,535.0,681.0
-142.0,138.0,137.0,-32.0,20.0,6.0,-540.0,538.0,686.0
-143.0,142.0,132.0,-31.0,21.0,5.0,-542.0,539.0,687.0
-142.0,139.0,133.0,-31.0,22.0,5.0,-543.0,542.0,684.0
-143.0,140.0,133.0,-30.0,21.0,3.0,-543.0,545.0,684.0
-141.0,139.0,131.0,-31.0,21.0,2.0,-544.0,542.0,682.0
-145.0,142.0,135.0,-28.0,22.0,3.0,-550.0,540.0,682.0
-144.0,139.0,134.0,-30.0,20.0,2.0,-551.0,539.0,681.0
-144.0,139.0,129.0,-32.0,18.0,-1.0,-549.0,543.0,678.0
-144.0,145.0,135.0,-34.0,16.0,0.0,-552.0,543.0,678.0
-142.0,138.0,133.0,-35.0,14.0,-1.0,-551.0,539.0,685.0
-143.0,139.0,134.0,-37.0,12.0,-1.0,-554.0,548.0,685.0
-143.0,138.0,136.0,-37.0,11.0,-2.0,-552.0,542.0,686.0
-144.0,141.0,137.0,-36.0,11.0,-2.0,-550.0,542.0,681.0
-142.0,138.0,136.0,-36.0,11.0,-2.0,-549.0,533.0,683.0
-143.0,141.0,135.0,-34.0,11.0,-3.0,-545.0,541.0,685.0
-142.0,142.0,134.0,-34.0,16.0,-4.0,-542.0,539.0,680.0
-142.0,137.0,134.0,-33.0,17.0,-5.0,-544.0,539.0,680.0
-143.0,140.0,127.0,-34.0,20.0,-4.0,-541.0,543.0,679.0
-143.0,139.0,134.0,-34.0,19.0,-5.0,-540.0,538.0,679.0
-142.0,140.0,134.0,-32.0,19.0,-5.0,-537.0,536.0,680.0
-143.0,137.0,134.0,-30.0,18.0,-5.0,-544.0,539.0,682.0
-143.0,140.0,133.0,-31.0,16.0,-6.0,-545.0,540.0,679.0
-144.0,138.0,136.0,-28.0,16.0,-5.0,-539.0,539.0,685.0
-141.0,137.0,135.0,-28.0,16.0,-6.0,-544.0,538.0,685.0
-142.0,137.0,136.0,-26.0,15.0,-6.0,-547.0,542.0,681.0
-143.0,138.0,131.0,-25.0,16.0,-5.0,-548.0,543.0,681.0
-143.0,140.0,134.0,-24.0,15.0,-4.0,-547.0,544.0,678.0
-142.0,143.0,132.0,-23.0,14.0,-5.0,-548.0,541.0,682.0
-146.0,141.0,132.0,-21.0,14.0,-5.0,-548.0,547.0,680.0
-142.0,140.0,137.0,-23.0,14.0,-5.0,-550.0,547.0,681.0
-143.0,139.0,134.0,-24.0,14.0,-4.0,-546.0,545.0,681.0
-144.0,142.0,132.0,-27.0,15.0,-3.0,-548.0,547.0,681.0
-144.0,142.0,136.0,-29.0,14.0,-3.0,-549.0,547.0,684.0
-143.0,141.0,136.0,-33.0,17.0,-4.0,-548.0,544.0,677.0
-140.0,142.0,135.0,-33.0,18.0,-7.0,-550.0,540.0,673.0
-143.0,140.0,133.0,-37.0,19.0,-8.0,-549.0,540.0,684.0
-141.0,141.0,134.0,-38.0,20.0,-10.0,-545.0,539.0,678.0
-143.0,139.0,135.0,-40.0,22.0,-10.0,-544.0,538.0,684.0
-144.0,140.0,135.0,-41.0,21.0,-11.0,-546.0,539.0,680.0
-143.0,142.0,135.0,-42.0,21.0,-9.0,-543.0,537.0,686.0
-145.0,140.0,137.0,-42.0,22.0,-8.0,-539.0,538.0,682.0
-140.0,138.0,136.0,-41.0,22.0,-8.0,-546.0,538.0,685.0
-144.0,141.0,136.0,-37.0,21.0,-7.0,-549.0,544.0,678.0
-140.0,138.0,135.0,-36.0,20.0,-5.0,-547.0,533.0,685.0
-143.0,139.0,136.0,-35.0,19.0,-6.0,-550.0,539.0,684.0
-144.0,139.0,135.0,-33.0,19.0,-5.0,-550.0,544.0,686.0
-143.0,141.0,136.0,-32.0,19.0,-5.0,-551.0,538.0,686.0
-142.0,140.0,133.0,-30.0,19.0,-4.0,-552.0,539.0,687.0
-144.0,138.0,136.0,-30.0,22.0,-5.0,-549.0,543.0,685.0
-144.0,139.0,133.0,-28.0,24.0,-6.0,-552.0,540.0,680.0
-142.0,139.0,135.0,-24.0,27.0,-9.0,-551.0,542.0,681.0
-144.0,138.0,134.0,-24.0,29.0,-10.0,-550.0,544.0,683.0
-144.0,140.0,132.0,-23.0,30.0,-12.0,-550.0,540.0,681.0
-143.0,140.0,133.0,-23.0,31.0,-12.0,-549.0,540.0,684.0
-143.0,141.0,129.0,-21.0,31.0,-13.0,-547.0,546.0,682.0
-144.0,139.0,133.0,-20.0,31.0,-14.0,-550.0,544.0,680.0
-144.0,138.0,135.0,-20.0,30.0,-14.0,-547.0,548.0,680.0
-143.0,142.0,136.0,-21.0,30.0,-14.0,-545.0,545.0,677.0
-144.0,144.0,134.0,-21.0,30.0,-14.0,-544.0,546.0,679.0
-143.0,139.0,131.0,-24.0,30.0,-12.0,-549.0,543.0,677.0
-145.0,142.0,131.0,-27.0,29.0,-13.0,-545.0,540.0,679.0
-143.0,140.0,132.0,-30.0,28.0,-10.0,-549.0,544.0,675.0
-142.0,146.0,137.0,-33.0,27.0,-11.0,-547.0,541.0,673.0
-144.0,143.0,134.0,-35.0,24.0,-10.0,-544.0,544.0,676.0
-143.0,139.0,129.0,-37.0,21.0,-9.0,-547.0,541.0,674.0
-143.0,140.0,133.0,-38.0,20.0,-5.0,-544.0,542.0,674.0
-142.0,138.0,131.0,-38.0,18.0,-4.0,-547.0,536.0,672.0
-145.0,141.0,132.0,-37.0,16.0,-3.0,-546.0,542.0,672.0
-144.0,137.0,130.0,-34.0,16.0,-3.0,-550.0,539.0,675.0
-144.0,138.0,133.0,-29.0,13.0,-3.0,-552.0,539.0,670.0
-143.0,140.0,131.0,-26.0,13.0,-3.0,-548.0,535.0,671.0
-144.0,142.0,135.0,-22.0,13.0,-4.0,-553.0,538.0,672.0
-144.0,138.0,131.0,-18.0,15.0,-4.0,-556.0,541.0,668.0
-141.0,141.0,131.0,-15.0,14.0,-3.0,-553.0,543.0,672.0
-144.0,139.0,133.0,-13.0,13.0,-3.0,-553.0,542.0,670.0
-146.0,140.0,129.0,-13.0,14.0,-3.0,-552.0,541.0,671.0
-145.0,140.0,130.0,-12.0,15.0,-4.0,-558.0,542.0,672.0
-144.0,140.0,132.0,-11.0,15.0,-3.0,-558.0,541.0,669.0
-143.0,140.0,130.0,-11.0,17.0,-3.0,-559.0,542.0,674.0
-145.0,140.0,134.0,-9.0,20.0,-5.0,-551.0,546.0,675.0
-144.0,141.0,132.0,-9.0,19.0,-5.0,-555.0,546.0,680.0
-144.0,142.0,131.0,-7.0,22.0,-5.0,-559.0,545.0,675.0
-143.0,139.0,134.0,-5.0,25.0,-5.0,-550.0,549.0,679.0
-143.0,141.0,134.0,-6.0,25.0,-7.0,-549.0,547.0,682.0
-138.0,141.0,137.0,-5.0,27.0,-8.0,-547.0,548.0,682.0
-142.0,144.0,135.0,-6.0,27.0,-9.0,-546.0,549.0,687.0
-143.0,141.0,135.0,-8.0,29.0,-11.0,-548.0,546.0,685.0
-145.0,144.0,135.0,-10.0,29.0,-10.0,-550.0,548.0,690.0
-144.0,143.0,134.0,-14.0,28.0,-8.0,-549.0,550.0,687.0
-143.0,143.0,134.0,-17.0,28.0,-11.0,-548.0,554.0,688.0
-143.0,142.0,135.0,-20.0,26.0,-13.0,-548.0,545.0,686.0
-144.0,142.0,135.0,-23.0,28.0,-12.0,-547.0,549.0,686.0
-145.0,143.0,132.0,-25.0,29.0,-15.0,-553.0,548.0,681.0
-143.0,142.0,131.0,-27.0,30.0,-13.0,-549.0,543.0,680.0
-144.0,145.0,131.0,-30.0,29.0,-12.0,-553.0,547.0,674.0
-144.0,142.0,134.0,-32.0,29.0,-11.0,-549.0,547.0,675.0
-144.0,140.0,130.0,-34.0,27.0,-8.0,-555.0,545.0,668.0
-146.0,141.0,129.0,-37.0,27.0,-6.0,-551.0,550.0,671.0
-145.0,142.0,133.0,-38.0,23.0,-3.0,-556.0,548.0,666.0
-142.0,140.0,133.0,-38.0,22.0,-3.0,-554.0,548.0,668.0
-143.0,141.0,126.0,-38.0,20.0,-1.0,-549.0,549.0,669.0
-142.0,140.0,128.0,-38.0,20.0,1.0,-548.0,549.0,669.0
-144.0,139.0,133.0,-37.0,19.0,1.0,-549.0,545.0,672.0
-146.0,142.0,133.0,-36.0,19.0,1.0,-548.0,544.0,666.0
-144.0,140.0,129.0,-36.0,20.0,0.0,-548.0,542.0,669.0
-140.0,141.0,134.0,-35.0,23.0,-2.0,-544.0,544.0,669.0
-143.0,141.0,132.0,-36.0,24.0,-4.0,-550.0,544.0,680.0
-143.0,143.0,133.0,-38.0,23.0,-4.0,-550.0,546.0,678.0
-143.0,143.0,134.0,-37.0,23.0,-5.0,-544.0,544.0,681.0
-145.0,141.0,137.0,-35.0,22.0,-4.0,-551.0,545.0,685.0
-144.0,141.0,132.0,-34.0,22.0,-4.0,-551.0,543.0,679.0
-146.0,142.0,131.0,-32.0,21.0,-4.0,-552.0,546.0,678.0
-144.0,142.0,134.0,-29.0,22.0,-3.0,-556.0,546.0,677.0
-146.0,139.0,132.0,-29.0,20.0,-3.0,-555.0,545.0,675.0
-145.0,142.0,134.0,-27.0,19.0,-4.0,-557.0,545.0,679.0
-149.0,142.0,132.0,-29.0,19.0,-3.0,-555.0,542.0,672.0
-146.0,142.0,131.0,-32.0,21.0,-1.0,-552.0,543.0,673.0
-145.0,140.0,133.0,-31.0,21.0,-2.0,-559.0,539.0,668.0
-144.0,140.0,130.0,-34.0,21.0,-2.0,-554.0,546.0,673.0
-145.0,139.0,132.0,-34.0,23.0,-3.0,-553.0,540.0,671.0
-144.0,141.0,127.0,-33.0,24.0,-4.0,-551.0,544.0,670.0
-143.0,139.0,135.0,-33.0,25.0,-4.0,-555.0,548.0,673.0
-144.0,141.0,131.0,-31.0,25.0,-3.0,-548.0,544.0,674.0
-145.0,140.0,132.0,-28.0,24.0,-3.0,-552.0,545.0,668.0
-143.0,142.0,136.0,-29.0,23.0,-3.0,-549.0,549.0,675.0
-143.0,143.0,132.0,-26.0,24.0,-4.0,-544.0,553.0,676.0
-144.0,142.0,130.0,-23.0,24.0,-4.0,-547.0,554.0,671.0
-141.0,143.0,129.0,-21.0,24.0,-3.0,-552.0,550.0,670.0
-142.0,140.0,131.0,-21.0,25.0,-3.0,-544.0,553.0,673.0
-144.0,143.0,129.0,-20.0,23.0,-3.0,-547.0,555.0,669.0
-143.0,143.0,130.0,-20.0,24.0,-5.0,-553.0,553.0,670.0
-145.0,145.0,131.0,-20.0,23.0,-5.0,-548.0,553.0,669.0
-143.0,141.0,131.0,-21.0,21.0,-4.0,-553.0,554.0,665.0
-144.0,141.0,132.0,-24.0,21.0,-4.0,-552.0,550.0,668.0
-145.0,143.0,130.0,-25.0,19.0,-4.0,-549.0,552.0,669.0
-144.0,140.0,127.0,-26.0,19.0,-2.0,-552.0,548.0,671.0
-143.0,141.0,131.0,-26.0,18.0,-2.0,-549.0,547.0,669.0
-144.0,143.0,131.0,-28.0,19.0,-1.0,-548.0,544.0,676.0
-145.0,142.0,131.0,-28.0,18.0,0.0,-550.0,552.0,672.0
-134.0,142.0,123.0,-30.0,18.0,2.0,-548.0,548.0,674.0
-144.0,143.0,133.0,-30.0,18.0,3.0,-547.0,549.0,678.0
-143.0,143.0,130.0,-28.0,19.0,3.0,-546.0,549.0,677.0
-143.0,142.0,133.0,-27.0,18.0,1.0,-546.0,545.0,679.0
-143.0,140.0,134.0,-24.0,19.0,2.0,-546.0,551.0,677.0
-140.0,142.0,134.0,-22.0,18.0,2.0,-547.0,550.0,677.0
-145.0,145.0,130.0,-24.0,17.0,1.0,-547.0,549.0,670.0
-144.0,140.0,130.0,-21.0,17.0,0.0,-546.0,551.0,674.0
-145.0,141.0,132.0,-22.0,17.0,-1.0,-550.0,549.0,672.0
-142.0,141.0,132.0,-22.0,19.0,-3.0,-548.0,546.0,670.0
-138.0,145.0,113.0,-23.0,22.0,-3.0,-550.0,546.0,669.0
-145.0,144.0,133.0,-24.0,22.0,-4.0,-552.0,549.0,668.0
-145.0,143.0,132.0,-27.0,22.0,-4.0,-553.0,552.0,675.0
-143.0,142.0,130.0,-26.0,22.0,-4.0,-550.0,552.0,672.0
-144.0,142.0,130.0,-27.0,21.0,-4.0,-550.0,549.0,671.0
-145.0,145.0,132.0,-29.0,20.0,-5.0,-550.0,552.0,673.0
-143.0,140.0,135.0,-29.0,21.0,-4.0,-549.0,551.0,673.0
-144.0,140.0,130.0,-30.0,22.0,-4.0,-555.0,553.0,672.0
-145.0,141.0,133.0,-34.0,22.0,-5.0,-549.0,546.0,674.0
-144.0,141.0,136.0,-34.0,22.0,-5.0,-553.0,548.0,673.0
-142.0,143.0,133.0,-34.0,22.0,-5.0,-549.0,549.0,673.0
-144.0,143.0,131.0,-35.0,22.0,-4.0,-547.0,549.0,676.0
-144.0,142.0,134.0,-33.0,21.0,-4.0,-553.0,548.0,673.0
-144.0,145.0,131.0,-30.0,21.0,-4.0,-550.0,548.0,671.0
-145.0,144.0,135.0,-26.0,22.0,-2.0,-555.0,549.0,675.0
-143.0,142.0,130.0,-28.0,22.0,-2.0,-551.0,548.0,681.0
-143.0,139.0,130.0,-29.0,23.0,-3.0,-554.0,551.0,669.0
-144.0,141.0,131.0,-30.0,23.0,-3.0,-555.0,552.0,671.0
-146.0,141.0,136.0,-28.0,23.0,-2.0,-554.0,548.0,670.0
-144.0,142.0,131.0,-25.0,23.0,-1.0,-559.0,545.0,665.0
-144.0,140.0,129.0,-24.0,21.0,0.0,-556.0,545.0,670.0
-145.0,142.0,133.0,-23.0,23.0,0.0,-558.0,544.0,673.0
-143.0,143.0,145.0,-21.0,25.0,0.0,-549.0,542.0,669.0
-142.0,139.0,131.0,-19.0,26.0,0.0,-559.0,549.0,668.0
-143.0,141.0,133.0,-19.0,26.0,-1.0,-557.0,550.0,664.0
-145.0,140.0,130.0,-17.0,28.0,0.0,-556.0,548.0,669.0
-143.0,139.0,129.0,-17.0,29.0,1.0,-550.0,549.0,663.0
-144.0,139.0,131.0,-16.0,28.0,6.0,-552.0,551.0,668.0
-143.0,143.0,130.0,-13.0,26.0,9.0,-550.0,547.0,674.0
-145.0,144.0,132.0,-11.0,26.0,7.0,-550.0,550.0,665.0
-143.0,144.0,131.0,-8.0,24.0,4.0,-554.0,555.0,668.0
-143.0,141.0,132.0,-11.0,22.0,2.0,-551.0,555.0,665.0
-142.0,142.0,132.0,-11.0,21.0,0.0,-550.0,549.0,673.0
-141.0,143.0,130.0,-10.0,19.0,2.0,-557.0,557.0,666.0
-143.0,143.0,130.0,-9.0,19.0,1.0,-549.0,554.0,665.0
-144.0,144.0,125.0,-9.0,20.0,0.0,-554.0,552.0,669.0
-147.0,144.0,127.0,-12.0,21.0,2.0,-563.0,553.0,661.0
-144.0,144.0,130.0,-16.0,20.0,4.0,-548.0,556.0,661.0
-144.0,143.0,132.0,-21.0,22.0,2.0,-551.0,553.0,660.0
-145.0,144.0,134.0,-21.0,25.0,1.0,-554.0,556.0,666.0
-144.0,144.0,129.0,-20.0,26.0,0.0,-557.0,549.0,666.0
-144.0,145.0,129.0,-23.0,26.0,0.0,-549.0,553.0,666.0
-144.0,141.0,129.0,-23.0,28.0,0.0,-556.0,553.0,663.0
-146.0,147.0,134.0,-20.0,28.0,1.0,-551.0,549.0,668.0
-144.0,142.0,128.0,-20.0,26.0,2.0,-559.0,555.0,665.0
-144.0,142.0,130.0,-19.0,27.0,2.0,-554.0,550.0,663.0
-146.0,142.0,130.0,-18.0,24.0,5.0,-561.0,556.0,666.0
-144.0,145.0,128.0,-17.0,22.0,7.0,-561.0,555.0,662.0
-145.0,144.0,124.0,-17.0,20.0,12.0,-569.0,557.0,654.0
-144.0,142.0,125.0,-27.0,20.0,18.0,-558.0,549.0,660.0
-145.0,145.0,134.0,-33.0,16.0,18.0,-546.0,549.0,673.0
-144.0,144.0,129.0,-31.0,13.0,14.0,-551.0,554.0,670.0
-146.0,145.0,129.0,-23.0,13.0,12.0,-560.0,552.0,669.0
-144.0,143.0,130.0,-22.0,14.0,14.0,-554.0,556.0,663.0
-142.0,146.0,130.0,-23.0,17.0,15.0,-552.0,559.0,670.0
-143.0,145.0,129.0,-18.0,22.0,12.0,-557.0,564.0,667.0
-144.0,147.0,132.0,-15.0,25.0,10.0,-556.0,559.0,668.0
-144.0,146.0,132.0,-11.0,28.0,9.0,-550.0,563.0,668.0
-141.0,142.0,133.0,-11.0,30.0,9.0,-550.0,562.0,670.0
-143.0,145.0,134.0,-14.0,29.0,9.0,-547.0,561.0,675.0
-142.0,146.0,131.0,-16.0,29.0,6.0,-548.0,561.0,671.0
-144.0,142.0,131.0,-18.0,31.0,5.0,-548.0,559.0,668.0
-144.0,146.0,134.0,-19.0,34.0,3.0,-549.0,558.0,668.0
-144.0,147.0,131.0,-23.0,35.0,1.0,-548.0,562.0,667.0
-146.0,147.0,132.0,-26.0,34.0,1.0,-562.0,566.0,674.0
-148.0,144.0,132.0,-24.0,32.0,-1.0,-548.0,564.0,664.0
-143.0,143.0,130.0,-26.0,32.0,-2.0,-547.0,566.0,673.0
-142.0,144.0,129.0,-27.0,33.0,-3.0,-550.0,558.0,667.0
-144.0,147.0,130.0,-28.0,31.0,-3.0,-551.0,559.0,665.0
-143.0,144.0,134.0,-29.0,29.0,-1.0,-550.0,560.0,669.0
-145.0,146.0,133.0,-31.0,28.0,0.0,-549.0,556.0,659.0
-145.0,144.0,131.0,-31.0,29.0,1.0,-554.0,558.0,664.0
-144.0,145.0,126.0,-31.0,28.0,2.0,-551.0,558.0,659.0
-144.0,144.0,129.0,-36.0,26.0,1.0,-552.0,564.0,664.0
-143.0,146.0,128.0,-38.0,24.0,2.0,-552.0,559.0,664.0
-146.0,148.0,131.0,-39.0,22.0,4.0,-550.0,558.0,668.0
-140.0,141.0,126.0,-39.0,22.0,4.0,-552.0,557.0,663.0
-144.0,146.0,128.0,-38.0,21.0,5.0,-550.0,555.0,666.0
-144.0,142.0,130.0,-38.0,21.0,7.0,-552.0,553.0,661.0
-146.0,146.0,128.0,-41.0,20.0,6.0,-552.0,556.0,663.0
-143.0,143.0,129.0,-39.0,20.0,5.0,-548.0,559.0,665.0
-144.0,145.0,130.0,-40.0,21.0,5.0,-553.0,553.0,664.0
-146.0,144.0,130.0,-40.0,23.0,4.0,-550.0,553.0,665.0
-145.0,146.0,129.0,-39.0,21.0,4.0,-553.0,558.0,666.0
-144.0,147.0,132.0,-41.0,21.0,2.0,-557.0,557.0,665.0
-144.0,144.0,129.0,-41.0,23.0,2.0,-551.0,560.0,665.0
-145.0,144.0,130.0,-36.0,24.0,1.0,-560.0,557.0,665.0
-144.0,143.0,126.0,-34.0,26.0,-2.0,-559.0,560.0,669.0
-143.0,142.0,132.0,-34.0,27.0,-2.0,-552.0,559.0,663.0
-146.0,143.0,129.0,-33.0,29.0,-4.0,-557.0,555.0,664.0
-143.0,144.0,128.0,-31.0,28.0,-5.0,-556.0,556.0,667.0
-143.0,143.0,127.0,-32.0,27.0,-5.0,-550.0,558.0,666.0
-146.0,144.0,132.0,-33.0,27.0,-7.0,-555.0,558.0,664.0
-143.0,146.0,127.0,-34.0,27.0,-6.0,-553.0,557.0,660.0
-145.0,145.0,133.0,-36.0,24.0,-6.0,-556.0,559.0,663.0
-146.0,146.0,127.0,-35.0,22.0,-6.0,-555.0,557.0,662.0
-145.0,146.0,125.0,-35.0,22.0,-4.0,-556.0,560.0,662.0
-147.0,146.0,129.0,-36.0,21.0,-3.0,-559.0,553.0,658.0
-143.0,141.0,126.0,-35.0,18.0,-3.0,-553.0,554.0,662.0
-146.0,145.0,128.0,-34.0,19.0,-4.0,-558.0,554.0,661.0
-141.0,140.0,132.0,-33.0,20.0,-4.0,-556.0,554.0,661.0
-143.0,142.0,127.0,-30.0,22.0,-6.0,-548.0,554.0,661.0
-143.0,145.0,127.0,-29.0,23.0,-6.0,-556.0,551.0,666.0
-144.0,143.0,129.0,-28.0,26.0,-7.0,-556.0,556.0,667.0
-145.0,146.0,131.0,-27.0,28.0,-9.0,-557.0,565.0,666.0
-142.0,145.0,133.0,-30.0,30.0,-10.0,-552.0,560.0,661.0
-144.0,145.0,130.0,-29.0,32.0,-10.0,-548.0,555.0,666.0
-143.0,143.0,131.0,-26.0,34.0,-10.0,-549.0,557.0,665.0
-143.0,143.0,135.0,-23.0,34.0,-10.0,-554.0,558.0,667.0
-142.0,145.0,126.0,-21.0,33.0,-9.0,-555.0,560.0,659.0
-146.0,140.0,130.0,-23.0,33.0,-7.0,-554.0,561.0,654.0
-145.0,144.0,125.0,-26.0,31.0,-3.0,-557.0,560.0,659.0
-146.0,147.0,128.0,-30.0,28.0,-1.0,-556.0,559.0,657.0
-145.0,145.0,128.0,-30.0,26.0,2.0,-558.0,555.0,660.0
-144.0,145.0,128.0,-32.0,26.0,2.0,-554.0,559.0,656.0
-143.0,147.0,126.0,-34.0,26.0,2.0,-558.0,568.0,660.0
-144.0,144.0,130.0,-34.0,27.0,3.0,-560.0,562.0,657.0
-145.0,144.0,130.0,-36.0,28.0,2.0,-555.0,557.0,661.0
-144.0,149.0,125.0,-37.0,29.0,2.0,-551.0,558.0,667.0
-143.0,145.0,126.0,-37.0,30.0,0.0,-549.0,560.0,662.0
-145.0,146.0,131.0,-38.0,32.0,-1.0,-557.0,562.0,665.0
-144.0,147.0,128.0,-35.0,32.0,-1.0,-549.0,562.0,661.0
-144.0,147.0,128.0,-33.0,32.0,-2.0,-548.0,562.0,659.0
-145.0,144.0,130.0,-31.0,30.0,-1.0,-553.0,564.0,660.0
-143.0,143.0,125.0,-31.0,30.0,-1.0,-550.0,562.0,663.0
-143.0,146.0,128.0,-30.0,28.0,-1.0,-555.0,558.0,659.0
-144.0,146.0,126.0,-27.0,28.0,-3.0,-546.0,567.0,660.0
-145.0,144.0,128.0,-25.0,28.0,-3.0,-558.0,564.0,659.0
-144.0,143.0,128.0,-25.0,28.0,-3.0,-557.0,565.0,660.0
-143.0,147.0,129.0,-22.0,27.0,-3.0,-558.0,560.0,651.0
-145.0,148.0,130.0,-22.0,25.0,-2.0,-555.0,565.0,660.0
-142.0,146.0,128.0,-23.0,26.0,-2.0,-558.0,562.0,661.0
-144.0,146.0,131.0,-23.0,26.0,-2.0,-550.0,570.0,660.0
-145.0,146.0,129.0,-23.0,26.0,-2.0,-557.0,564.0,661.0
-147.0,146.0,129.0,-24.0,25.0,-2.0,-556.0,565.0,663.0
-146.0,150.0,126.0,-23.0,23.0,-2.0,-556.0,566.0,665.0
-143.0,145.0,125.0,-26.0,22.0,-3.0,-552.0,567.0,657.0
-143.0,144.0,125.0,-28.0,20.0,-3.0,-558.0,564.0,662.0
-145.0,146.0,134.0,-32.0,19.0,-2.0,-552.0,564.0,658.0
-144.0,144.0,127.0,-37.0,18.0,0.0,-553.0,560.0,654.0
-146.0,146.0,129.0,-40.0,19.0,1.0,-560.0,563.0,653.0
-144.0,147.0,127.0,-40.0,18.0,2.0,-553.0,562.0,655.0
-144.0,145.0,128.0,-45.0,18.0,2.0,-553.0,562.0,655.0
-145.0,148.0,127.0,-45.0,19.0,3.0,-560.0,562.0,655.0
-144.0,144.0,127.0,-43.0,19.0,3.0,-554.0,564.0,657.0
-144.0,146.0,126.0,-42.0,17.0,3.0,-554.0,563.0,661.0
-145.0,146.0,126.0,-41.0,17.0,2.0,-560.0,567.0,662.0
-143.0,147.0,128.0,-40.0,18.0,2.0,-559.0,562.0,665.0
-146.0,145.0,130.0,-41.0,18.0,1.0,-556.0,567.0,660.0
-147.0,147.0,128.0,-40.0,16.0,3.0,-559.0,568.0,669.0
-142.0,148.0,132.0,-40.0,14.0,3.0,-555.0,562.0,663.0
-146.0,145.0,127.0,-41.0,14.0,1.0,-554.0,560.0,663.0
-146.0,148.0,130.0,-43.0,15.0,-1.0,-554.0,558.0,664.0
-142.0,145.0,131.0,-45.0,14.0,-3.0,-555.0,563.0,664.0
-146.0,148.0,126.0,-50.0,14.0,-4.0,-551.0,562.0,662.0
-146.0,147.0,131.0,-53.0,15.0,-4.0,-552.0,566.0,654.0
-146.0,148.0,128.0,-56.0,15.0,-5.0,-553.0,567.0,658.0
-144.0,146.0,132.0,-58.0,16.0,-6.0,-553.0,565.0,660.0
-144.0,146.0,130.0,-60.0,17.0,-7.0,-551.0,575.0,656.0
-146.0,148.0,127.0,-59.0,17.0,-9.0,-558.0,575.0,662.0
-143.0,146.0,130.0,-60.0,17.0,-8.0,-558.0,568.0,664.0
-146.0,146.0,129.0,-62.0,16.0,-9.0,-555.0,565.0,659.0
-143.0,146.0,125.0,-65.0,16.0,-8.0,-558.0,566.0,665.0
-144.0,144.0,129.0,-66.0,16.0,-9.0,-561.0,566.0,654.0
-144.0,144.0,127.0,-67.0,13.0,-7.0,-556.0,558.0,662.0
-145.0,146.0,130.0,-70.0,14.0,-9.0,-554.0,560.0,662.0
-144.0,142.0,131.0,-70.0,15.0,-9.0,-555.0,557.0,664.0
-143.0,141.0,130.0,-70.0,16.0,-11.0,-552.0,559.0,665.0
-144.0,145.0,127.0,-68.0,17.0,-11.0,-557.0,558.0,662.0
-145.0,148.0,125.0,-66.0,16.0,-11.0,-561.0,559.0,660.0
-144.0,145.0,127.0,-65.0,17.0,-12.0,-550.0,557.0,659.0
-144.0,143.0,127.0,-63.0,16.0,-12.0,-557.0,558.0,662.0
-145.0,144.0,130.0,-59.0,16.0,-12.0,-552.0,564.0,658.0
-144.0,139.0,132.0,-58.0,17.0,-12.0,-556.0,558.0,657.0
