acc1_x,acc1_y,acc1_z,gyro_x,gyro_y,gyro_z,acc2_x,acc2_y,acc2_z
10.0,-255.0,17.0,-50.0,12.0,-1.0,-35.0,-972.0,220.0
13.0,-255.0,17.0,-49.0,13.0,-2.0,-31.0,-968.0,223.0
10.0,-253.0,15.0,-49.0,15.0,-2.0,-36.0,-973.0,218.0
9.0,-253.0,16.0,-50.0,15.0,-3.0,-34.0,-973.0,219.0
12.0,-253.0,17.0,-51.0,15.0,-4.0,-33.0,-969.0,222.0
11.0,-253.0,19.0,-52.0,18.0,-3.0,-34.0,-972.0,221.0
12.0,-257.0,20.0,-53.0,20.0,-3.0,-39.0,-972.0,229.0
15.0,-256.0,20.0,-55.0,20.0,-4.0,-35.0,-974.0,225.0
8.0,-254.0,19.0,-56.0,21.0,-3.0,-37.0,-969.0,226.0
11.0,-254.0,17.0,-55.0,19.0,-3.0,-44.0,-980.0,224.0
12.0,-256.0,17.0,-57.0,21.0,-4.0,-35.0,-976.0,230.0
10.0,-254.0,19.0,-54.0,19.0,-5.0,-38.0,-981.0,226.0
12.0,-255.0,19.0,-52.0,18.0,-5.0,-41.0,-981.0,229.0
11.0,-255.0,16.0,-50.0,16.0,-3.0,-36.0,-976.0,224.0
11.0,-258.0,17.0,-46.0,17.0,-4.0,-35.0,-976.0,229.0
12.0,-256.0,23.0,-43.0,16.0,-3.0,-41.0,-978.0,226.0
11.0,-256.0,16.0,-42.0,16.0,-3.0,-33.0,-975.0,224.0
10.0,-255.0,20.0,-42.0,15.0,-3.0,-35.0,-979.0,233.0
9.0,-257.0,20.0,-39.0,15.0,-2.0,-35.0,-980.0,230.0
10.0,-255.0,15.0,-38.0,17.0,-1.0,-38.0,-972.0,226.0
10.0,-255.0,16.0,-37.0,16.0,-2.0,-36.0,-977.0,225.0
9.0,-254.0,18.0,-37.0,18.0,-2.0,-35.0,-977.0,230.0
10.0,-255.0,19.0,-37.0,16.0,-2.0,-36.0,-973.0,228.0
12.0,-255.0,18.0,-37.0,15.0,0.0,-38.0,-976.0,225.0
8.0,-252.0,12.0,-38.0,14.0,0.0,-38.0,-975.0,224.0
11.0,-254.0,18.0,-41.0,15.0,0.0,-36.0,-976.0,220.0
6.0,-252.0,15.0,-43.0,15.0,-1.0,-36.0,-973.0,222.0
14.0,-253.0,17.0,-43.0,14.0,-1.0,-38.0,-974.0,224.0
12.0,-254.0,18.0,-44.0,14.0,-2.0,-39.0,-972.0,220.0
10.0,-256.0,18.0,-44.0,15.0,-2.0,-40.0,-973.0,224.0
10.0,-256.0,18.0,-44.0,15.0,-2.0,-39.0,-971.0,226.0
9.0,-256.0,18.0,-46.0,15.0,-2.0,-38.0,-971.0,226.0
9.0,-253.0,14.0,-46.0,15.0,-2.0,-38.0,-976.0,226.0
11.0,-251.0,15.0,-44.0,16.0,-2.0,-42.0,-971.0,227.0
12.0,-254.0,17.0,-45.0,15.0,-3.0,-43.0,-977.0,227.0
11.0,-254.0,19.0,-45.0,15.0,-2.0,-36.0,-971.0,225.0
13.0,-255.0,22.0,-45.0,14.0,-1.0,-38.0,-978.0,226.0
8.0,-253.0,18.0,-45.0,15.0,0.0,-36.0,-980.0,229.0
10.0,-256.0,21.0,-45.0,15.0,-1.0,-38.0,-974.0,227.0
9.0,-254.0,16.0,-45.0,15.0,-1.0,-37.0,-977.0,233.0
11.0,-255.0,19.0,-43.0,14.0,-1.0,-37.0,-974.0,233.0
11.0,-256.0,15.0,-43.0,14.0,0.0,-40.0,-978.0,226.0
13.0,-255.0,17.0,-43.0,14.0,0.0,-35.0,-970.0,227.0
13.0,-256.0,13.0,-44.0,13.0,0.0,-37.0,-971.0,230.0
10.0,-255.0,20.0,-43.0,13.0,0.0,-34.0,-973.0,228.0
11.0,-255.0,20.0,-42.0,13.0,-2.0,-38.0,-978.0,229.0
11.0,-255.0,17.0,-41.0,15.0,-1.0,-38.0,-969.0,228.0
9.0,-254.0,15.0,-41.0,13.0,-2.0,-38.0,-971.0,231.0
13.0,-254.0,18.0,-42.0,13.0,-2.0,-34.0,-983.0,226.0
10.0,-255.0,16.0,-44.0,13.0,-1.0,-40.0,-973.0,226.0
10.0,-253.0,17.0,-43.0,13.0,-2.0,-38.0,-973.0,227.0
13.0,-256.0,16.0,-42.0,14.0,-2.0,-44.0,-977.0,224.0
8.0,-255.0,24.0,-43.0,14.0,-1.0,-41.0,-973.0,226.0
6.0,-255.0,19.0,-44.0,13.0,-2.0,-41.0,-971.0,228.0
12.0,-256.0,18.0,-44.0,13.0,-1.0,-37.0,-973.0,229.0
11.0,-255.0,19.0,-45.0,12.0,-2.0,-35.0,-970.0,228.0
10.0,-254.0,19.0,-46.0,11.0,-1.0,-38.0,-973.0,230.0
8.0,-255.0,17.0,-48.0,10.0,0.0,-39.0,-973.0,227.0
12.0,-256.0,14.0,-49.0,10.0,0.0,-36.0,-974.0,225.0
10.0,-255.0,12.0,-49.0,10.0,0.0,-37.0,-972.0,227.0
12.0,-254.0,16.0,-51.0,11.0,1.0,-33.0,-972.0,228.0
8.0,-255.0,14.0,-52.0,11.0,1.0,-39.0,-978.0,230.0
11.0,-255.0,13.0,-52.0,12.0,1.0,-39.0,-976.0,229.0
11.0,-254.0,19.0,-54.0,12.0,1.0,-39.0,-977.0,226.0
9.0,-255.0,18.0,-54.0,13.0,2.0,-38.0,-973.0,226.0
12.0,-257.0,14.0,-54.0,12.0,0.0,-37.0,-977.0,223.0
8.0,-255.0,19.0,-52.0,10.0,1.0,-36.0,-976.0,228.0
10.0,-254.0,21.0,-51.0,10.0,0.0,-40.0,-975.0,224.0
12.0,-256.0,16.0,-50.0,12.0,0.0,-38.0,-974.0,229.0
13.0,-265.0,32.0,-48.0,12.0,-1.0,-41.0,-968.0,226.0
12.0,-254.0,21.0,-46.0,12.0,-3.0,-33.0,-974.0,228.0
13.0,-259.0,16.0,-47.0,12.0,-4.0,-37.0,-971.0,227.0
12.0,-253.0,18.0,-45.0,12.0,-3.0,-32.0,-978.0,230.0
10.0,-255.0,18.0,-43.0,14.0,-4.0,-40.0,-971.0,230.0
13.0,-254.0,19.0,-44.0,14.0,-3.0,-35.0,-971.0,230.0
12.0,-254.0,19.0,-46.0,15.0,-4.0,-35.0,-975.0,227.0
9.0,-256.0,18.0,-46.0,16.0,-4.0,-36.0,-970.0,231.0
11.0,-254.0,21.0,-46.0,17.0,-3.0,-35.0,-973.0,235.0
10.0,-254.0,17.0,-47.0,15.0,-2.0,-38.0,-969.0,233.0
10.0,-254.0,19.0,-48.0,15.0,-2.0,-35.0,-970.0,229.0
8.0,-264.0,27.0,-49.0,15.0,-2.0,-44.0,-972.0,227.0
10.0,-254.0,15.0,-49.0,15.0,-2.0,-39.0,-972.0,232.0
13.0,-255.0,17.0,-49.0,14.0,-1.0,-36.0,-975.0,230.0
10.0,-255.0,19.0,-51.0,13.0,0.0,-39.0,-976.0,230.0
10.0,-257.0,19.0,-51.0,13.0,0.0,-37.0,-973.0,230.0
12.0,-255.0,16.0,-53.0,12.0,0.0,-39.0,-966.0,228.0
10.0,-256.0,20.0,-54.0,12.0,0.0,-39.0,-974.0,226.0
10.0,-255.0,23.0,-52.0,11.0,0.0,-39.0,-971.0,226.0
9.0,-255.0,17.0,-53.0,11.0,0.0,-39.0,-980.0,225.0
9.0,-255.0,15.0,-52.0,10.0,1.0,-37.0,-980.0,228.0
13.0,-256.0,17.0,-51.0,11.0,0.0,-40.0,-973.0,228.0
12.0,-255.0,17.0,-52.0,10.0,0.0,-36.0,-973.0,225.0
12.0,-256.0,16.0,-51.0,9.0,-3.0,-39.0,-971.0,222.0
9.0,-253.0,18.0,-52.0,12.0,-1.0,-41.0,-976.0,225.0
10.0,-254.0,15.0,-50.0,12.0,-2.0,-34.0,-978.0,221.0
12.0,-255.0,18.0,-48.0,13.0,-2.0,-36.0,-968.0,221.0
11.0,-255.0,16.0,-50.0,15.0,-2.0,-36.0,-975.0,227.0
13.0,-256.0,19.0,-51.0,16.0,-2.0,-38.0,-974.0,223.0
13.0,-254.0,17.0,-52.0,16.0,-2.0,-41.0,-977.0,227.0
10.0,-255.0,20.0,-52.0,15.0,-3.0,-39.0,-977.0,225.0
11.0,-257.0,24.0,-49.0,15.0,-3.0,-35.0,-972.0,231.0
10.0,-254.0,18.0,-50.0,15.0,-2.0,-38.0,-969.0,226.0
11.0,-256.0,19.0,-47.0,16.0,-2.0,-34.0,-976.0,225.0
12.0,-256.0,20.0,-48.0,16.0,-1.0,-35.0,-973.0,227.0
10.0,-255.0,21.0,-48.0,15.0,-1.0,-38.0,-970.0,226.0
10.0,-255.0,19.0,-46.0,15.0,-2.0,-34.0,-972.0,227.0
12.0,-256.0,17.0,-46.0,13.0,-1.0,-37.0,-977.0,229.0
10.0,-255.0,19.0,-46.0,13.0,-3.0,-39.0,-974.0,236.0
12.0,-256.0,19.0,-47.0,14.0,-3.0,-31.0,-972.0,225.0
11.0,-255.0,20.0,-49.0,13.0,-2.0,-35.0,-974.0,228.0
10.0,-253.0,16.0,-50.0,12.0,-2.0,-39.0,-975.0,226.0
12.0,-255.0,18.0,-50.0,12.0,-1.0,-36.0,-968.0,223.0
7.0,-255.0,14.0,-53.0,12.0,-2.0,-35.0,-970.0,231.0
9.0,-252.0,19.0,-55.0,13.0,-1.0,-35.0,-976.0,229.0
12.0,-255.0,17.0,-56.0,13.0,-1.0,-38.0,-974.0,227.0
12.0,-257.0,19.0,-57.0,14.0,-2.0,-38.0,-968.0,225.0
11.0,-252.0,13.0,-57.0,15.0,-2.0,-35.0,-969.0,223.0
10.0,-257.0,15.0,-55.0,15.0,-3.0,-39.0,-970.0,227.0
11.0,-256.0,15.0,-55.0,16.0,-1.0,-33.0,-967.0,223.0
8.0,-255.0,18.0,-54.0,18.0,-3.0,-42.0,-979.0,228.0
8.0,-256.0,18.0,-54.0,18.0,-3.0,-37.0,-972.0,225.0
11.0,-257.0,21.0,-55.0,17.0,-2.0,-39.0,-974.0,227.0
12.0,-256.0,19.0,-55.0,18.0,-2.0,-36.0,-977.0,224.0
9.0,-255.0,16.0,-55.0,18.0,-2.0,-34.0,-975.0,226.0
9.0,-255.0,18.0,-53.0,19.0,-2.0,-40.0,-976.0,221.0
10.0,-256.0,17.0,-54.0,21.0,-3.0,-34.0,-976.0,220.0
14.0,-255.0,16.0,-54.0,20.0,-5.0,-41.0,-973.0,221.0
9.0,-255.0,20.0,-54.0,22.0,-4.0,-38.0,-974.0,225.0
12.0,-257.0,15.0,-54.0,22.0,-5.0,-40.0,-981.0,225.0
12.0,-256.0,15.0,-52.0,21.0,-5.0,-39.0,-975.0,227.0
6.0,-255.0,16.0,-53.0,20.0,-3.0,-37.0,-983.0,225.0
9.0,-252.0,19.0,-53.0,20.0,-4.0,-36.0,-974.0,222.0
8.0,-254.0,14.0,-51.0,19.0,-4.0,-39.0,-972.0,224.0
12.0,-255.0,15.0,-51.0,18.0,-4.0,-38.0,-972.0,228.0
10.0,-256.0,20.0,-51.0,17.0,-4.0,-39.0,-976.0,220.0
10.0,-255.0,18.0,-52.0,17.0,-4.0,-34.0,-975.0,222.0
12.0,-257.0,14.0,-48.0,17.0,-2.0,-38.0,-976.0,225.0
8.0,-253.0,17.0,-46.0,18.0,-4.0,-37.0,-975.0,226.0
10.0,-255.0,15.0,-47.0,18.0,-4.0,-38.0,-974.0,228.0
12.0,-256.0,19.0,-49.0,18.0,-2.0,-36.0,-973.0,222.0
11.0,-256.0,16.0,-49.0,16.0,-2.0,-37.0,-972.0,224.0
11.0,-256.0,18.0,-51.0,13.0,-3.0,-38.0,-969.0,222.0
9.0,-254.0,20.0,-52.0,14.0,-2.0,-39.0,-970.0,221.0
11.0,-255.0,18.0,-56.0,15.0,-4.0,-37.0,-968.0,225.0
11.0,-254.0,19.0,-55.0,15.0,-3.0,-37.0,-977.0,222.0
12.0,-254.0,16.0,-57.0,16.0,-5.0,-33.0,-968.0,219.0
9.0,-256.0,20.0,-57.0,17.0,-4.0,-37.0,-972.0,214.0
15.0,-255.0,14.0,-59.0,18.0,-4.0,-37.0,-969.0,225.0
10.0,-255.0,12.0,-61.0,20.0,-5.0,-34.0,-977.0,219.0
8.0,-256.0,16.0,-62.0,21.0,-5.0,-36.0,-977.0,221.0
13.0,-256.0,15.0,-64.0,22.0,-4.0,-37.0,-974.0,223.0
12.0,-257.0,17.0,-65.0,24.0,-5.0,-37.0,-982.0,226.0
12.0,-255.0,17.0,-64.0,25.0,-6.0,-36.0,-990.0,229.0
11.0,-256.0,14.0,-61.0,24.0,-5.0,-34.0,-981.0,224.0
13.0,-256.0,15.0,-57.0,23.0,-6.0,-37.0,-987.0,223.0
10.0,-255.0,17.0,-55.0,22.0,-7.0,-44.0,-982.0,221.0
11.0,-256.0,20.0,-51.0,21.0,-6.0,-37.0,-976.0,220.0
14.0,-256.0,16.0,-49.0,20.0,-7.0,-36.0,-978.0,223.0
10.0,-255.0,14.0,-44.0,20.0,-6.0,-41.0,-978.0,222.0
10.0,-256.0,15.0,-43.0,21.0,-6.0,-45.0,-976.0,224.0
7.0,-256.0,19.0,-43.0,22.0,-5.0,-36.0,-971.0,221.0
11.0,-256.0,17.0,-41.0,22.0,-6.0,-33.0,-976.0,219.0
11.0,-256.0,16.0,-43.0,22.0,-6.0,-39.0,-977.0,224.0
11.0,-254.0,17.0,-42.0,23.0,-5.0,-35.0,-972.0,226.0
12.0,-256.0,20.0,-45.0,23.0,-4.0,-36.0,-971.0,223.0
8.0,-254.0,12.0,-46.0,24.0,-5.0,-36.0,-973.0,223.0
12.0,-255.0,20.0,-47.0,24.0,-5.0,-39.0,-968.0,220.0
9.0,-255.0,16.0,-48.0,23.0,-6.0,-40.0,-978.0,224.0
12.0,-255.0,17.0,-49.0,23.0,-5.0,-38.0,-972.0,222.0
9.0,-254.0,18.0,-49.0,23.0,-5.0,-40.0,-972.0,224.0
13.0,-254.0,16.0,-49.0,23.0,-4.0,-37.0,-979.0,217.0
10.0,-254.0,19.0,-50.0,23.0,-5.0,-36.0,-972.0,221.0
12.0,-256.0,16.0,-53.0,22.0,-5.0,-41.0,-981.0,221.0
11.0,-257.0,16.0,-53.0,23.0,-5.0,-36.0,-978.0,220.0
9.0,-256.0,18.0,-54.0,23.0,-4.0,-38.0,-973.0,218.0
11.0,-256.0,19.0,-56.0,23.0,-4.0,-38.0,-976.0,221.0
8.0,-253.0,16.0,-56.0,22.0,-5.0,-41.0,-983.0,219.0
10.0,-257.0,14.0,-58.0,22.0,-4.0,-38.0,-975.0,223.0
19.0,-251.0,-2.0,-58.0,20.0,-3.0,-37.0,-978.0,219.0
12.0,-255.0,11.0,-56.0,20.0,-4.0,-38.0,-983.0,221.0
12.0,-256.0,16.0,-55.0,20.0,-3.0,-40.0,-971.0,216.0
11.0,-255.0,18.0,-55.0,19.0,-3.0,-39.0,-976.0,220.0
9.0,-254.0,15.0,-52.0,19.0,-3.0,-38.0,-977.0,218.0
12.0,-258.0,18.0,-51.0,19.0,-4.0,-38.0,-977.0,218.0
10.0,-256.0,13.0,-48.0,20.0,-3.0,-41.0,-978.0,217.0
10.0,-253.0,18.0,-46.0,20.0,-2.0,-37.0,-972.0,220.0
12.0,-255.0,12.0,-45.0,19.0,-4.0,-40.0,-979.0,218.0
10.0,-256.0,17.0,-44.0,20.0,-4.0,-37.0,-972.0,216.0
7.0,-255.0,18.0,-41.0,20.0,-5.0,-36.0,-973.0,223.0
10.0,-257.0,12.0,-41.0,19.0,-4.0,-39.0,-973.0,222.0
9.0,-256.0,17.0,-41.0,19.0,-4.0,-38.0,-971.0,227.0
9.0,-255.0,18.0,-43.0,18.0,-3.0,-41.0,-968.0,226.0
8.0,-256.0,17.0,-45.0,17.0,-4.0,-38.0,-968.0,225.0
10.0,-256.0,15.0,-49.0,16.0,-3.0,-37.0,-970.0,224.0
7.0,-255.0,17.0,-51.0,17.0,-3.0,-38.0,-972.0,222.0
12.0,-256.0,20.0,-51.0,16.0,-3.0,-37.0,-973.0,224.0
10.0,-253.0,16.0,-52.0,16.0,-5.0,-39.0,-971.0,224.0
9.0,-255.0,16.0,-52.0,13.0,-2.0,-44.0,-973.0,221.0
11.0,-256.0,14.0,-52.0,12.0,-3.0,-39.0,-974.0,226.0
11.0,-255.0,17.0,-52.0,12.0,-3.0,-35.0,-975.0,222.0
11.0,-255.0,15.0,-54.0,12.0,-4.0,-42.0,-974.0,220.0
11.0,-255.0,15.0,-54.0,12.0,-3.0,-39.0,-974.0,216.0
10.0,-253.0,13.0,-55.0,13.0,-4.0,-37.0,-974.0,217.0
11.0,-256.0,16.0,-59.0,13.0,-3.0,-36.0,-975.0,221.0
11.0,-256.0,17.0,-60.0,15.0,-4.0,-39.0,-970.0,218.0
9.0,-255.0,11.0,-61.0,15.0,-4.0,-39.0,-974.0,219.0
9.0,-255.0,20.0,-63.0,17.0,-4.0,-38.0,-974.0,217.0
10.0,-256.0,15.0,-64.0,16.0,-6.0,-41.0,-974.0,221.0
12.0,-254.0,17.0,-64.0,17.0,-5.0,-41.0,-979.0,221.0
7.0,-257.0,15.0,-64.0,18.0,-6.0,-38.0,-973.0,225.0
8.0,-256.0,18.0,-64.0,18.0,-6.0,-41.0,-982.0,218.0
14.0,-256.0,18.0,-63.0,19.0,-7.0,-37.0,-979.0,224.0
10.0,-255.0,14.0,-62.0,19.0,-8.0,-37.0,-982.0,221.0
10.0,-258.0,17.0,-60.0,21.0,-10.0,-39.0,-986.0,224.0
10.0,-256.0,15.0,-57.0,20.0,-10.0,-38.0,-982.0,219.0
11.0,-257.0,16.0,-55.0,21.0,-9.0,-40.0,-977.0,219.0
12.0,-256.0,16.0,-54.0,23.0,-9.0,-40.0,-979.0,225.0
11.0,-256.0,17.0,-52.0,21.0,-9.0,-34.0,-977.0,217.0
10.0,-255.0,13.0,-51.0,21.0,-10.0,-37.0,-979.0,218.0
12.0,-255.0,14.0,-49.0,20.0,-7.0,-36.0,-979.0,219.0
12.0,-257.0,12.0,-50.0,18.0,-8.0,-33.0,-978.0,214.0
12.0,-257.0,13.0,-50.0,18.0,-6.0,-40.0,-984.0,214.0
8.0,-255.0,14.0,-50.0,19.0,-5.0,-34.0,-981.0,219.0
9.0,-255.0,13.0,-48.0,19.0,-5.0,-41.0,-977.0,218.0
13.0,-254.0,15.0,-48.0,19.0,-5.0,-41.0,-972.0,214.0
11.0,-256.0,14.0,-47.0,19.0,-4.0,-39.0,-974.0,212.0
9.0,-256.0,18.0,-48.0,18.0,-5.0,-39.0,-974.0,223.0
11.0,-256.0,11.0,-47.0,17.0,-6.0,-40.0,-973.0,217.0
9.0,-253.0,14.0,-46.0,17.0,-6.0,-39.0,-971.0,220.0
9.0,-256.0,16.0,-47.0,18.0,-5.0,-35.0,-974.0,219.0
12.0,-258.0,15.0,-47.0,18.0,-6.0,-43.0,-971.0,221.0
11.0,-254.0,15.0,-46.0,17.0,-6.0,-37.0,-972.0,221.0
11.0,-253.0,14.0,-47.0,18.0,-6.0,-42.0,-970.0,218.0
8.0,-253.0,15.0,-48.0,20.0,-8.0,-37.0,-980.0,221.0
9.0,-252.0,17.0,-49.0,20.0,-7.0,-38.0,-969.0,221.0
11.0,-257.0,15.0,-49.0,22.0,-7.0,-42.0,-979.0,221.0
10.0,-253.0,19.0,-50.0,21.0,-7.0,-41.0,-977.0,221.0
11.0,-255.0,14.0,-52.0,21.0,-8.0,-36.0,-980.0,219.0
10.0,-255.0,19.0,-53.0,23.0,-7.0,-45.0,-978.0,218.0
11.0,-256.0,14.0,-52.0,23.0,-7.0,-44.0,-978.0,222.0
10.0,-256.0,15.0,-51.0,25.0,-7.0,-37.0,-977.0,220.0
11.0,-255.0,15.0,-50.0,23.0,-6.0,-36.0,-980.0,219.0
10.0,-256.0,20.0,-50.0,23.0,-6.0,-38.0,-983.0,220.0
11.0,-256.0,14.0,-48.0,23.0,-5.0,-39.0,-976.0,218.0
7.0,-253.0,18.0,-49.0,22.0,-6.0,-38.0,-983.0,218.0
11.0,-257.0,15.0,-49.0,22.0,-7.0,-39.0,-972.0,213.0
7.0,-256.0,14.0,-49.0,21.0,-6.0,-43.0,-980.0,218.0
12.0,-255.0,16.0,-50.0,18.0,-7.0,-38.0,-980.0,216.0
13.0,-254.0,16.0,-48.0,19.0,-7.0,-41.0,-975.0,214.0
7.0,-256.0,14.0,-50.0,18.0,-7.0,-40.0,-972.0,217.0
12.0,-256.0,10.0,-47.0,19.0,-6.0,-40.0,-974.0,219.0
13.0,-256.0,16.0,-46.0,19.0,-6.0,-42.0,-980.0,215.0
11.0,-253.0,19.0,-44.0,19.0,-8.0,-36.0,-974.0,214.0
9.0,-255.0,14.0,-47.0,20.0,-6.0,-43.0,-972.0,214.0
11.0,-255.0,17.0,-49.0,19.0,-6.0,-40.0,-978.0,220.0
10.0,-254.0,14.0,-50.0,20.0,-6.0,-41.0,-966.0,222.0
11.0,-255.0,19.0,-50.0,21.0,-7.0,-46.0,-977.0,223.0
8.0,-255.0,14.0,-53.0,21.0,-6.0,-43.0,-976.0,221.0
7.0,-254.0,16.0,-56.0,21.0,-5.0,-39.0,-974.0,221.0
9.0,-256.0,17.0,-56.0,20.0,-4.0,-41.0,-972.0,217.0
6.0,-255.0,14.0,-57.0,19.0,-6.0,-42.0,-974.0,221.0
12.0,-256.0,14.0,-58.0,18.0,-6.0,-41.0,-978.0,220.0
10.0,-257.0,15.0,-54.0,17.0,-5.0,-36.0,-974.0,220.0
9.0,-255.0,16.0,-54.0,18.0,-5.0,-37.0,-977.0,225.0
11.0,-258.0,20.0,-53.0,17.0,-3.0,-38.0,-979.0,221.0
12.0,-257.0,19.0,-52.0,18.0,-5.0,-39.0,-980.0,216.0
10.0,-257.0,16.0,-49.0,19.0,-5.0,-37.0,-972.0,220.0
11.0,-257.0,19.0,-48.0,19.0,-5.0,-41.0,-979.0,218.0
10.0,-256.0,20.0,-47.0,20.0,-7.0,-37.0,-972.0,216.0
10.0,-257.0,15.0,-46.0,21.0,-7.0,-41.0,-977.0,215.0
11.0,-259.0,15.0,-46.0,23.0,-6.0,-35.0,-974.0,215.0
10.0,-256.0,15.0,-47.0,23.0,-7.0,-43.0,-975.0,221.0
8.0,-254.0,17.0,-48.0,23.0,-7.0,-38.0,-979.0,222.0
8.0,-254.0,20.0,-50.0,22.0,-7.0,-39.0,-971.0,218.0
8.0,-254.0,16.0,-51.0,21.0,-8.0,-39.0,-972.0,219.0
12.0,-256.0,14.0,-53.0,19.0,-6.0,-34.0,-976.0,216.0
9.0,-256.0,17.0,-54.0,18.0,-6.0,-43.0,-974.0,216.0
10.0,-255.0,19.0,-54.0,18.0,-6.0,-42.0,-977.0,215.0
11.0,-256.0,14.0,-56.0,16.0,-6.0,-38.0,-977.0,221.0
9.0,-256.0,17.0,-54.0,16.0,-6.0,-37.0,-975.0,218.0
7.0,-255.0,15.0,-53.0,17.0,-6.0,-39.0,-974.0,217.0
10.0,-257.0,19.0,-54.0,16.0,-4.0,-40.0,-971.0,221.0
7.0,-256.0,15.0,-54.0,15.0,-4.0,-40.0,-977.0,217.0
10.0,-257.0,12.0,-55.0,14.0,-3.0,-42.0,-976.0,215.0
9.0,-254.0,17.0,-58.0,15.0,-4.0,-43.0,-972.0,215.0
9.0,-255.0,19.0,-58.0,14.0,-4.0,-37.0,-975.0,213.0
11.0,-257.0,18.0,-59.0,15.0,-4.0,-44.0,-967.0,215.0
11.0,-255.0,13.0,-60.0,14.0,-6.0,-40.0,-971.0,209.0
9.0,-253.0,16.0,-61.0,15.0,-5.0,-41.0,-971.0,215.0
11.0,-250.0,10.0,-64.0,16.0,-6.0,-33.0,-966.0,214.0
11.0,-257.0,17.0,-66.0,17.0,-7.0,-38.0,-969.0,213.0
10.0,-255.0,16.0,-68.0,18.0,-7.0,-41.0,-976.0,219.0
13.0,-257.0,17.0,-69.0,19.0,-7.0,-33.0,-976.0,214.0
9.0,-255.0,15.0,-71.0,21.0,-7.0,-40.0,-982.0,219.0
12.0,-255.0,12.0,-73.0,20.0,-7.0,-37.0,-977.0,222.0
9.0,-256.0,15.0,-73.0,19.0,-7.0,-40.0,-984.0,219.0
8.0,-257.0,17.0,-71.0,19.0,-8.0,-39.0,-981.0,222.0
10.0,-256.0,16.0,-67.0,19.0,-8.0,-35.0,-984.0,221.0
17.0,-262.0,30.0,-64.0,20.0,-8.0,-45.0,-986.0,223.0
10.0,-256.0,14.0,-58.0,20.0,-8.0,-39.0,-983.0,218.0
9.0,-255.0,15.0,-53.0,20.0,-9.0,-39.0,-983.0,218.0
11.0,-257.0,15.0,-50.0,19.0,-8.0,-39.0,-983.0,210.0
13.0,-258.0,14.0,-48.0,20.0,-8.0,-40.0,-981.0,215.0
11.0,-255.0,14.0,-46.0,20.0,-7.0,-40.0,-974.0,214.0
11.0,-258.0,15.0,-47.0,21.0,-7.0,-36.0,-980.0,214.0
8.0,-253.0,15.0,-48.0,22.0,-8.0,-40.0,-981.0,218.0
10.0,-255.0,17.0,-49.0,23.0,-7.0,-37.0,-977.0,214.0
10.0,-254.0,12.0,-49.0,23.0,-5.0,-39.0,-975.0,214.0
9.0,-255.0,14.0,-48.0,23.0,-6.0,-37.0,-981.0,216.0
10.0,-256.0,18.0,-49.0,22.0,-4.0,-41.0,-976.0,218.0
6.0,-255.0,17.0,-49.0,21.0,-6.0,-41.0,-975.0,215.0
9.0,-256.0,16.0,-48.0,19.0,-5.0,-39.0,-973.0,214.0
11.0,-255.0,17.0,-48.0,19.0,-5.0,-40.0,-977.0,219.0
13.0,-253.0,14.0,-50.0,17.0,-5.0,-38.0,-977.0,211.0
11.0,-255.0,13.0,-53.0,17.0,-4.0,-40.0,-970.0,219.0
9.0,-255.0,14.0,-53.0,16.0,-4.0,-34.0,-977.0,215.0
11.0,-256.0,20.0,-54.0,16.0,-5.0,-39.0,-982.0,213.0
10.0,-254.0,13.0,-56.0,15.0,-5.0,-44.0,-978.0,217.0
10.0,-255.0,12.0,-57.0,16.0,-5.0,-42.0,-982.0,209.0
9.0,-254.0,13.0,-56.0,17.0,-6.0,-41.0,-982.0,213.0
13.0,-258.0,17.0,-54.0,17.0,-6.0,-37.0,-984.0,217.0
10.0,-255.0,12.0,-54.0,17.0,-6.0,-42.0,-981.0,212.0
10.0,-255.0,16.0,-52.0,18.0,-7.0,-38.0,-981.0,216.0
9.0,-255.0,16.0,-49.0,19.0,-6.0,-36.0,-978.0,215.0
8.0,-256.0,16.0,-47.0,19.0,-5.0,-39.0,-981.0,215.0
10.0,-257.0,17.0,-46.0,20.0,-5.0,-40.0,-980.0,207.0
11.0,-255.0,14.0,-47.0,19.0,-6.0,-40.0,-980.0,209.0
11.0,-256.0,15.0,-48.0,19.0,-5.0,-35.0,-972.0,214.0
10.0,-255.0,14.0,-49.0,21.0,-7.0,-41.0,-973.0,216.0
12.0,-256.0,17.0,-50.0,21.0,-6.0,-37.0,-972.0,215.0
11.0,-255.0,17.0,-51.0,22.0,-8.0,-35.0,-972.0,218.0
7.0,-251.0,12.0,-52.0,23.0,-8.0,-38.0,-977.0,213.0
9.0,-254.0,14.0,-50.0,22.0,-7.0,-37.0,-974.0,215.0
9.0,-255.0,16.0,-52.0,20.0,-7.0,-37.0,-975.0,218.0
7.0,-254.0,12.0,-53.0,21.0,-6.0,-37.0,-977.0,221.0
8.0,-255.0,14.0,-53.0,20.0,-5.0,-43.0,-976.0,219.0
7.0,-256.0,20.0,-51.0,19.0,-4.0,-40.0,-979.0,218.0
11.0,-257.0,13.0,-49.0,20.0,-5.0,-38.0,-981.0,220.0
9.0,-255.0,15.0,-51.0,17.0,-6.0,-41.0,-974.0,212.0
10.0,-255.0,17.0,-51.0,15.0,-5.0,-38.0,-974.0,214.0
9.0,-255.0,16.0,-50.0,13.0,-5.0,-37.0,-972.0,206.0
10.0,-256.0,18.0,-51.0,12.0,-6.0,-40.0,-980.0,212.0
11.0,-255.0,14.0,-53.0,11.0,-4.0,-42.0,-976.0,212.0
9.0,-255.0,11.0,-54.0,12.0,-5.0,-44.0,-975.0,206.0
10.0,-258.0,14.0,-55.0,13.0,-5.0,-44.0,-978.0,214.0
11.0,-255.0,18.0,-55.0,14.0,-6.0,-40.0,-970.0,213.0
8.0,-256.0,14.0,-56.0,17.0,-6.0,-42.0,-979.0,212.0
11.0,-253.0,17.0,-57.0,18.0,-6.0,-44.0,-973.0,212.0
11.0,-257.0,16.0,-58.0,18.0,-6.0,-41.0,-977.0,215.0
8.0,-255.0,17.0,-56.0,17.0,-6.0,-37.0,-986.0,220.0
9.0,-256.0,15.0,-58.0,17.0,-4.0,-36.0,-976.0,217.0
11.0,-255.0,14.0,-57.0,16.0,-6.0,-38.0,-977.0,216.0
10.0,-255.0,17.0,-54.0,15.0,-6.0,-41.0,-978.0,214.0
10.0,-255.0,15.0,-52.0,14.0,-7.0,-39.0,-983.0,215.0
11.0,-256.0,16.0,-51.0,15.0,-6.0,-38.0,-977.0,218.0
9.0,-253.0,17.0,-48.0,16.0,-5.0,-40.0,-979.0,213.0
11.0,-255.0,13.0,-47.0,15.0,-6.0,-35.0,-978.0,215.0
10.0,-254.0,11.0,-49.0,16.0,-5.0,-38.0,-977.0,215.0
12.0,-254.0,13.0,-50.0,16.0,-6.0,-36.0,-981.0,213.0
11.0,-256.0,13.0,-52.0,17.0,-6.0,-37.0,-975.0,215.0
10.0,-256.0,14.0,-53.0,18.0,-7.0,-38.0,-973.0,221.0
13.0,-255.0,13.0,-52.0,17.0,-5.0,-36.0,-982.0,216.0
12.0,-256.0,17.0,-53.0,16.0,-6.0,-40.0,-978.0,217.0
10.0,-252.0,13.0,-55.0,15.0,-6.0,-36.0,-975.0,217.0
11.0,-252.0,15.0,-55.0,13.0,-6.0,-37.0,-977.0,215.0
8.0,-255.0,15.0,-53.0,12.0,-6.0,-35.0,-976.0,215.0
11.0,-255.0,19.0,-56.0,10.0,-4.0,-37.0,-976.0,214.0
9.0,-254.0,14.0,-54.0,11.0,-4.0,-35.0,-980.0,215.0
8.0,-254.0,14.0,-55.0,12.0,-3.0,-37.0,-981.0,217.0
11.0,-256.0,13.0,-55.0,11.0,-3.0,-41.0,-976.0,212.0
13.0,-257.0,14.0,-56.0,12.0,-3.0,-41.0,-976.0,218.0
10.0,-256.0,17.0,-54.0,12.0,-4.0,-35.0,-981.0,212.0
7.0,-256.0,13.0,-54.0,13.0,-5.0,-40.0,-981.0,213.0
10.0,-255.0,12.0,-51.0,15.0,-6.0,-37.0,-980.0,210.0
10.0,-255.0,10.0,-50.0,15.0,-6.0,-40.0,-977.0,212.0
11.0,-256.0,14.0,-50.0,16.0,-7.0,-38.0,-979.0,215.0
11.0,-256.0,18.0,-49.0,17.0,-6.0,-35.0,-981.0,218.0
11.0,-257.0,15.0,-46.0,18.0,-9.0,-36.0,-973.0,209.0
8.0,-256.0,17.0,-46.0,18.0,-10.0,-43.0,-980.0,212.0
11.0,-255.0,14.0,-44.0,19.0,-9.0,-37.0,-976.0,209.0
11.0,-255.0,16.0,-46.0,20.0,-10.0,-34.0,-978.0,212.0
8.0,-255.0,14.0,-46.0,19.0,-10.0,-35.0,-980.0,211.0
9.0,-255.0,12.0,-45.0,19.0,-9.0,-37.0,-982.0,215.0
9.0,-256.0,13.0,-45.0,19.0,-9.0,-37.0,-977.0,218.0
13.0,-255.0,17.0,-46.0,18.0,-8.0,-34.0,-980.0,215.0
9.0,-253.0,14.0,-46.0,19.0,-8.0,-37.0,-977.0,211.0
13.0,-256.0,15.0,-46.0,19.0,-7.0,-35.0,-972.0,211.0
13.0,-256.0,17.0,-46.0,19.0,-8.0,-39.0,-970.0,210.0
9.0,-255.0,15.0,-45.0,17.0,-6.0,-35.0,-975.0,213.0
13.0,-255.0,12.0,-45.0,18.0,-7.0,-37.0,-978.0,212.0
11.0,-255.0,12.0,-46.0,17.0,-7.0,-34.0,-973.0,211.0
11.0,-257.0,16.0,-46.0,17.0,-7.0,-39.0,-977.0,210.0
12.0,-255.0,15.0,-49.0,17.0,-7.0,-43.0,-982.0,215.0
9.0,-253.0,12.0,-50.0,17.0,-6.0,-38.0,-975.0,212.0
8.0,-255.0,12.0,-50.0,18.0,-7.0,-40.0,-975.0,214.0
11.0,-255.0,17.0,-50.0,18.0,-6.0,-42.0,-971.0,213.0
11.0,-256.0,13.0,-51.0,17.0,-6.0,-40.0,-972.0,213.0
11.0,-255.0,11.0,-52.0,18.0,-6.0,-39.0,-972.0,211.0
10.0,-255.0,11.0,-50.0,19.0,-7.0,-36.0,-978.0,212.0
11.0,-256.0,11.0,-51.0,19.0,-7.0,-34.0,-979.0,217.0
12.0,-256.0,15.0,-51.0,20.0,-7.0,-41.0,-979.0,219.0
9.0,-256.0,16.0,-51.0,20.0,-6.0,-36.0,-982.0,213.0
8.0,-253.0,16.0,-52.0,20.0,-6.0,-37.0,-985.0,215.0
12.0,-256.0,15.0,-50.0,20.0,-7.0,-34.0,-982.0,214.0
8.0,-256.0,15.0,-50.0,20.0,-6.0,-37.0,-982.0,212.0
12.0,-255.0,11.0,-50.0,21.0,-6.0,-36.0,-982.0,212.0
11.0,-256.0,14.0,-49.0,21.0,-6.0,-40.0,-979.0,214.0
12.0,-248.0,1.0,-49.0,21.0,-7.0,-34.0,-981.0,211.0
13.0,-255.0,13.0,-46.0,23.0,-6.0,-40.0,-982.0,215.0
10.0,-256.0,8.0,-46.0,23.0,-7.0,-36.0,-980.0,213.0
10.0,-256.0,15.0,-44.0,24.0,-7.0,-38.0,-981.0,209.0
9.0,-254.0,12.0,-44.0,23.0,-9.0,-38.0,-976.0,210.0
9.0,-258.0,16.0,-46.0,23.0,-10.0,-37.0,-973.0,208.0
10.0,-254.0,14.0,-47.0,22.0,-9.0,-42.0,-975.0,215.0
11.0,-255.0,16.0,-47.0,22.0,-9.0,-38.0,-974.0,212.0
8.0,-256.0,13.0,-48.0,21.0,-9.0,-37.0,-974.0,209.0
9.0,-255.0,12.0,-48.0,21.0,-7.0,-36.0,-981.0,212.0
16.0,-254.0,11.0,-48.0,23.0,-7.0,-37.0,-976.0,210.0
13.0,-256.0,17.0,-49.0,23.0,-7.0,-39.0,-978.0,213.0
9.0,-256.0,15.0,-48.0,23.0,-7.0,-40.0,-973.0,212.0
7.0,-255.0,11.0,-47.0,22.0,-7.0,-39.0,-981.0,212.0
10.0,-257.0,14.0,-48.0,21.0,-6.0,-42.0,-979.0,215.0
13.0,-252.0,16.0,-45.0,20.0,-7.0,-40.0,-979.0,214.0
8.0,-256.0,11.0,-44.0,18.0,-6.0,-40.0,-981.0,210.0
11.0,-256.0,10.0,-45.0,18.0,-5.0,-42.0,-982.0,210.0
7.0,-254.0,11.0,-46.0,17.0,-4.0,-39.0,-975.0,209.0
7.0,-253.0,14.0,-46.0,16.0,-4.0,-41.0,-973.0,210.0
10.0,-254.0,14.0,-49.0,15.0,-3.0,-41.0,-969.0,212.0
7.0,-256.0,12.0,-52.0,13.0,-2.0,-37.0,-970.0,211.0
9.0,-254.0,14.0,-52.0,11.0,-4.0,-38.0,-970.0,210.0
11.0,-256.0,14.0,-55.0,12.0,-5.0,-36.0,-973.0,209.0
11.0,-253.0,11.0,-57.0,13.0,-5.0,-38.0,-972.0,207.0
10.0,-256.0,15.0,-59.0,13.0,-6.0,-36.0,-971.0,209.0
11.0,-255.0,12.0,-63.0,15.0,-5.0,-31.0,-972.0,211.0
10.0,-255.0,14.0,-66.0,17.0,-5.0,-38.0,-977.0,209.0
11.0,-257.0,15.0,-68.0,20.0,-6.0,-40.0,-982.0,211.0
11.0,-254.0,15.0,-70.0,21.0,-5.0,-36.0,-980.0,212.0
13.0,-255.0,12.0,-67.0,22.0,-5.0,-37.0,-987.0,209.0
11.0,-258.0,12.0,-67.0,21.0,-5.0,-39.0,-982.0,212.0
9.0,-255.0,15.0,-63.0,22.0,-7.0,-36.0,-984.0,210.0
10.0,-255.0,13.0,-60.0,20.0,-6.0,-35.0,-983.0,211.0
9.0,-255.0,14.0,-56.0,19.0,-6.0,-35.0,-988.0,213.0
11.0,-258.0,15.0,-52.0,19.0,-8.0,-40.0,-983.0,212.0
12.0,-256.0,17.0,-44.0,18.0,-6.0,-37.0,-982.0,210.0
14.0,-258.0,13.0,-40.0,19.0,-6.0,-38.0,-981.0,208.0
13.0,-255.0,10.0,-39.0,19.0,-5.0,-38.0,-980.0,213.0
9.0,-253.0,13.0,-36.0,19.0,-5.0,-38.0,-982.0,212.0
11.0,-257.0,13.0,-36.0,17.0,-4.0,-35.0,-983.0,212.0
12.0,-254.0,15.0,-35.0,17.0,-5.0,-37.0,-978.0,211.0
9.0,-255.0,10.0,-36.0,16.0,-5.0,-39.0,-980.0,206.0
10.0,-257.0,14.0,-36.0,16.0,-4.0,-36.0,-976.0,212.0
12.0,-255.0,12.0,-38.0,15.0,-5.0,-39.0,-975.0,209.0
10.0,-255.0,13.0,-38.0,14.0,-5.0,-38.0,-970.0,212.0
13.0,-257.0,16.0,-41.0,13.0,-5.0,-38.0,-975.0,208.0
10.0,-255.0,10.0,-42.0,13.0,-6.0,-36.0,-974.0,212.0
9.0,-256.0,10.0,-43.0,13.0,-6.0,-38.0,-977.0,208.0
12.0,-253.0,13.0,-45.0,14.0,-4.0,-39.0,-972.0,211.0
12.0,-255.0,15.0,-45.0,15.0,-6.0,-35.0,-974.0,209.0
11.0,-256.0,11.0,-47.0,16.0,-6.0,-40.0,-974.0,213.0
9.0,-255.0,13.0,-48.0,15.0,-5.0,-40.0,-977.0,213.0
10.0,-256.0,12.0,-47.0,16.0,-7.0,-36.0,-980.0,210.0
12.0,-255.0,16.0,-48.0,16.0,-6.0,-35.0,-980.0,209.0
8.0,-255.0,16.0,-47.0,18.0,-6.0,-41.0,-981.0,210.0
11.0,-256.0,15.0,-44.0,18.0,-6.0,-36.0,-973.0,212.0
13.0,-257.0,13.0,-43.0,17.0,-4.0,-39.0,-978.0,213.0
10.0,-256.0,13.0,-41.0,17.0,-5.0,-38.0,-975.0,211.0
12.0,-256.0,11.0,-40.0,18.0,-4.0,-37.0,-975.0,217.0
12.0,-256.0,13.0,-40.0,16.0,-4.0,-38.0,-981.0,212.0
13.0,-256.0,12.0,-40.0,15.0,-4.0,-37.0,-979.0,211.0
9.0,-255.0,14.0,-40.0,16.0,-4.0,-36.0,-978.0,210.0
9.0,-254.0,13.0,-40.0,16.0,-5.0,-38.0,-979.0,216.0
8.0,-256.0,16.0,-41.0,16.0,-6.0,-32.0,-978.0,209.0
8.0,-255.0,9.0,-43.0,16.0,-5.0,-37.0,-978.0,214.0
10.0,-255.0,13.0,-44.0,17.0,-5.0,-38.0,-977.0,214.0
12.0,-257.0,14.0,-43.0,17.0,-3.0,-36.0,-978.0,219.0
11.0,-256.0,11.0,-44.0,15.0,-3.0,-32.0,-981.0,212.0
12.0,-255.0,9.0,-44.0,16.0,-3.0,-33.0,-980.0,213.0
8.0,-255.0,14.0,-42.0,17.0,-5.0,-41.0,-981.0,216.0
8.0,-253.0,10.0,-42.0,15.0,-5.0,-36.0,-977.0,215.0
13.0,-256.0,14.0,-43.0,15.0,-3.0,-40.0,-979.0,209.0
11.0,-255.0,17.0,-43.0,14.0,-5.0,-44.0,-978.0,213.0
8.0,-255.0,14.0,-44.0,13.0,-5.0,-38.0,-976.0,210.0
12.0,-256.0,16.0,-44.0,12.0,-4.0,-33.0,-980.0,212.0
11.0,-255.0,11.0,-45.0,11.0,-5.0,-34.0,-981.0,214.0
10.0,-255.0,15.0,-45.0,10.0,-5.0,-34.0,-976.0,209.0
12.0,-257.0,14.0,-43.0,11.0,-3.0,-38.0,-971.0,207.0
10.0,-255.0,13.0,-41.0,10.0,-3.0,-38.0,-972.0,213.0
9.0,-254.0,14.0,-42.0,12.0,-2.0,-38.0,-973.0,210.0
13.0,-255.0,15.0,-38.0,12.0,-2.0,-38.0,-975.0,211.0
14.0,-256.0,12.0,-40.0,13.0,-1.0,-35.0,-976.0,214.0
12.0,-254.0,15.0,-42.0,14.0,-3.0,-40.0,-983.0,213.0
11.0,-256.0,12.0,-45.0,12.0,0.0,-40.0,-977.0,212.0
10.0,-255.0,12.0,-46.0,14.0,-1.0,-41.0,-979.0,210.0
8.0,-254.0,13.0,-50.0,16.0,-3.0,-44.0,-978.0,213.0
12.0,-255.0,13.0,-50.0,16.0,-2.0,-38.0,-981.0,210.0
10.0,-255.0,15.0,-51.0,16.0,-2.0,-37.0,-975.0,210.0
12.0,-258.0,15.0,-52.0,16.0,-2.0,-36.0,-976.0,221.0
12.0,-255.0,16.0,-52.0,18.0,-5.0,-34.0,-975.0,214.0
9.0,-254.0,15.0,-49.0,18.0,-5.0,-40.0,-980.0,214.0
12.0,-258.0,13.0,-49.0,19.0,-7.0,-35.0,-974.0,214.0
13.0,-257.0,15.0,-49.0,19.0,-7.0,-37.0,-973.0,214.0
11.0,-256.0,14.0,-50.0,21.0,-8.0,-37.0,-978.0,214.0
14.0,-256.0,19.0,-51.0,20.0,-7.0,-31.0,-980.0,209.0
11.0,-256.0,15.0,-52.0,19.0,-9.0,-39.0,-978.0,208.0
10.0,-255.0,12.0,-53.0,21.0,-8.0,-37.0,-977.0,212.0
10.0,-258.0,12.0,-54.0,20.0,-9.0,-39.0,-980.0,209.0
10.0,-254.0,16.0,-52.0,20.0,-8.0,-37.0,-983.0,211.0
9.0,-256.0,16.0,-54.0,20.0,-7.0,-37.0,-979.0,213.0
9.0,-256.0,12.0,-54.0,19.0,-6.0,-38.0,-979.0,211.0
10.0,-257.0,13.0,-55.0,17.0,-6.0,-40.0,-977.0,208.0
9.0,-256.0,15.0,-57.0,15.0,-6.0,-38.0,-983.0,212.0
7.0,-256.0,10.0,-60.0,16.0,-5.0,-39.0,-982.0,209.0
12.0,-257.0,13.0,-60.0,15.0,-4.0,-37.0,-985.0,202.0
8.0,-257.0,16.0,-64.0,14.0,-4.0,-36.0,-985.0,204.0
11.0,-258.0,9.0,-67.0,14.0,-3.0,-39.0,-986.0,203.0
12.0,-258.0,11.0,-67.0,15.0,-3.0,-44.0,-987.0,201.0
7.0,-258.0,11.0,-66.0,15.0,-3.0,-41.0,-986.0,197.0
9.0,-257.0,9.0,-64.0,17.0,-3.0,-39.0,-989.0,197.0
10.0,-257.0,11.0,-62.0,19.0,-5.0,-38.0,-986.0,197.0
8.0,-259.0,12.0,-61.0,19.0,-4.0,-40.0,-986.0,195.0
9.0,-257.0,8.0,-58.0,20.0,-6.0,-36.0,-982.0,191.0
9.0,-258.0,5.0,-56.0,22.0,-6.0,-37.0,-987.0,196.0
13.0,-257.0,10.0,-57.0,23.0,-6.0,-36.0,-981.0,196.0
10.0,-254.0,9.0,-56.0,25.0,-6.0,-36.0,-975.0,192.0
11.0,-255.0,7.0,-59.0,26.0,-6.0,-36.0,-975.0,192.0
10.0,-255.0,7.0,-60.0,28.0,-7.0,-33.0,-973.0,190.0
8.0,-259.0,14.0,-63.0,32.0,-8.0,-33.0,-973.0,187.0
12.0,-258.0,10.0,-71.0,38.0,-10.0,-34.0,-972.0,188.0
15.0,-257.0,6.0,-78.0,41.0,-13.0,-34.0,-970.0,188.0
14.0,-253.0,6.0,-85.0,45.0,-16.0,-34.0,-978.0,180.0
15.0,-255.0,9.0,-96.0,49.0,-16.0,-31.0,-981.0,181.0
12.0,-259.0,1.0,-105.0,51.0,-19.0,-30.0,-978.0,177.0
11.0,-257.0,4.0,-115.0,53.0,-21.0,-33.0,-985.0,179.0
14.0,-258.0,1.0,-124.0,55.0,-22.0,-36.0,-988.0,174.0
13.0,-259.0,0.0,-132.0,56.0,-23.0,-31.0,-991.0,172.0
12.0,-258.0,0.0,-137.0,56.0,-24.0,-37.0,-994.0,168.0
11.0,-262.0,2.0,-142.0,54.0,-23.0,-38.0,-995.0,165.0
15.0,-257.0,1.0,-145.0,56.0,-24.0,-40.0,-998.0,162.0
10.0,-263.0,0.0,-146.0,55.0,-23.0,-40.0,-997.0,160.0
8.0,-259.0,4.0,-145.0,57.0,-22.0,-46.0,-1001.0,154.0
9.0,-260.0,-1.0,-143.0,55.0,-22.0,-44.0,-999.0,157.0
6.0,-259.0,1.0,-135.0,58.0,-22.0,-43.0,-996.0,155.0
5.0,-259.0,6.0,-130.0,59.0,-19.0,-52.0,-1000.0,155.0
6.0,-258.0,3.0,-123.0,61.0,-20.0,-51.0,-995.0,157.0
6.0,-262.0,-1.0,-111.0,65.0,-20.0,-52.0,-988.0,154.0
5.0,-259.0,0.0,-104.0,67.0,-19.0,-53.0,-989.0,155.0
6.0,-257.0,0.0,-98.0,69.0,-19.0,-53.0,-987.0,156.0
7.0,-259.0,1.0,-92.0,70.0,-19.0,-59.0,-986.0,153.0
6.0,-255.0,-1.0,-89.0,70.0,-18.0,-52.0,-982.0,154.0
4.0,-257.0,1.0,-88.0,69.0,-17.0,-53.0,-984.0,159.0
6.0,-256.0,0.0,-89.0,70.0,-16.0,-55.0,-982.0,155.0
6.0,-257.0,1.0,-92.0,69.0,-17.0,-57.0,-978.0,160.0
7.0,-256.0,-2.0,-95.0,70.0,-16.0,-50.0,-981.0,161.0
8.0,-256.0,-3.0,-101.0,67.0,-15.0,-49.0,-981.0,155.0
6.0,-254.0,0.0,-106.0,66.0,-15.0,-53.0,-972.0,159.0
7.0,-258.0,1.0,-112.0,65.0,-14.0,-47.0,-971.0,160.0
8.0,-257.0,3.0,-118.0,63.0,-12.0,-50.0,-977.0,162.0
7.0,-256.0,1.0,-123.0,62.0,-11.0,-47.0,-978.0,162.0
6.0,-255.0,1.0,-127.0,62.0,-11.0,-47.0,-975.0,162.0
10.0,-254.0,-2.0,-130.0,60.0,-12.0,-44.0,-975.0,159.0
9.0,-256.0,2.0,-136.0,58.0,-11.0,-46.0,-971.0,158.0
10.0,-254.0,1.0,-139.0,57.0,-11.0,-45.0,-971.0,161.0
6.0,-253.0,0.0,-143.0,55.0,-9.0,-47.0,-971.0,150.0
8.0,-255.0,0.0,-147.0,53.0,-9.0,-50.0,-976.0,144.0
8.0,-254.0,-2.0,-154.0,54.0,-6.0,-52.0,-977.0,142.0
8.0,-253.0,-6.0,-159.0,53.0,-6.0,-49.0,-979.0,135.0
6.0,-256.0,-8.0,-169.0,52.0,-6.0,-53.0,-977.0,134.0
6.0,-254.0,-4.0,-177.0,53.0,-4.0,-53.0,-973.0,129.0
8.0,-255.0,-7.0,-185.0,57.0,-1.0,-52.0,-978.0,124.0
7.0,-256.0,-9.0,-194.0,60.0,1.0,-53.0,-977.0,119.0
4.0,-256.0,-5.0,-202.0,63.0,3.0,-48.0,-976.0,113.0
9.0,-254.0,-4.0,-209.0,65.0,7.0,-50.0,-976.0,120.0
9.0,-256.0,-12.0,-213.0,68.0,9.0,-48.0,-972.0,119.0
9.0,-255.0,-10.0,-213.0,71.0,12.0,-45.0,-973.0,121.0
10.0,-254.0,-11.0,-212.0,73.0,14.0,-48.0,-966.0,125.0
10.0,-255.0,-9.0,-209.0,74.0,18.0,-45.0,-964.0,122.0
9.0,-255.0,-11.0,-207.0,75.0,21.0,-47.0,-965.0,120.0
8.0,-250.0,-14.0,-206.0,77.0,24.0,-40.0,-959.0,125.0
11.0,-252.0,-2.0,-207.0,76.0,29.0,-43.0,-957.0,128.0
11.0,-251.0,-12.0,-208.0,77.0,32.0,-44.0,-958.0,129.0
9.0,-250.0,-8.0,-214.0,77.0,34.0,-45.0,-946.0,127.0
8.0,-247.0,-8.0,-220.0,77.0,37.0,-46.0,-945.0,135.0
7.0,-245.0,-3.0,-226.0,77.0,41.0,-48.0,-949.0,131.0
7.0,-243.0,-2.0,-235.0,76.0,44.0,-53.0,-949.0,137.0
8.0,-245.0,-8.0,-243.0,75.0,48.0,-50.0,-944.0,139.0
6.0,-246.0,-4.0,-251.0,74.0,52.0,-52.0,-943.0,137.0
6.0,-245.0,-8.0,-261.0,72.0,55.0,-59.0,-939.0,133.0
4.0,-247.0,-5.0,-273.0,69.0,60.0,-59.0,-940.0,132.0
6.0,-248.0,-7.0,-286.0,67.0,64.0,-59.0,-940.0,131.0
7.0,-245.0,-8.0,-300.0,64.0,68.0,-64.0,-941.0,126.0
1.0,-245.0,-9.0,-316.0,61.0,74.0,-64.0,-939.0,118.0
1.0,-246.0,-8.0,-333.0,60.0,77.0,-68.0,-940.0,117.0
2.0,-242.0,-11.0,-347.0,59.0,86.0,-75.0,-940.0,119.0
0.0,-244.0,-14.0,-362.0,60.0,91.0,-71.0,-935.0,113.0
1.0,-245.0,-14.0,-375.0,60.0,95.0,-71.0,-933.0,108.0
0.0,-241.0,-17.0,-386.0,61.0,101.0,-78.0,-931.0,106.0
1.0,-243.0,-18.0,-397.0,61.0,108.0,-71.0,-931.0,99.0
2.0,-243.0,-15.0,-408.0,62.0,114.0,-77.0,-933.0,87.0
0.0,-243.0,-20.0,-421.0,62.0,119.0,-73.0,-929.0,87.0
2.0,-239.0,-27.0,-436.0,60.0,124.0,-71.0,-930.0,74.0
5.0,-242.0,-23.0,-454.0,58.0,130.0,-69.0,-921.0,70.0
2.0,-239.0,-26.0,-473.0,57.0,136.0,-74.0,-920.0,66.0
2.0,-239.0,-26.0,-497.0,57.0,143.0,-66.0,-913.0,54.0
3.0,-235.0,-31.0,-520.0,55.0,149.0,-67.0,-910.0,46.0
2.0,-234.0,-29.0,-543.0,54.0,152.0,-62.0,-898.0,44.0
2.0,-234.0,-31.0,-566.0,52.0,157.0,-69.0,-895.0,40.0
2.0,-234.0,-32.0,-589.0,53.0,162.0,-66.0,-886.0,30.0
3.0,-230.0,-32.0,-611.0,50.0,166.0,-64.0,-887.0,27.0
4.0,-230.0,-34.0,-635.0,49.0,170.0,-67.0,-881.0,20.0
3.0,-231.0,-37.0,-657.0,50.0,173.0,-70.0,-877.0,18.0
5.0,-230.0,-39.0,-677.0,48.0,179.0,-66.0,-874.0,3.0
3.0,-229.0,-44.0,-697.0,51.0,183.0,-67.0,-868.0,0.0
2.0,-228.0,-45.0,-717.0,52.0,187.0,-70.0,-872.0,-3.0
2.0,-228.0,-44.0,-738.0,54.0,191.0,-69.0,-870.0,-16.0
0.0,-227.0,-50.0,-760.0,56.0,197.0,-79.0,-866.0,-17.0
0.0,-226.0,-50.0,-781.0,57.0,202.0,-82.0,-863.0,-27.0
0.0,-228.0,-49.0,-801.0,57.0,206.0,-86.0,-862.0,-31.0
-1.0,-224.0,-52.0,-820.0,53.0,210.0,-92.0,-862.0,-42.0
0.0,-225.0,-57.0,-842.0,49.0,213.0,-96.0,-857.0,-51.0
-9.0,-222.0,-58.0,-863.0,43.0,217.0,-101.0,-852.0,-52.0
-5.0,-224.0,-53.0,-888.0,36.0,220.0,-100.0,-851.0,-58.0
-5.0,-223.0,-56.0,-908.0,28.0,223.0,-106.0,-848.0,-53.0
-5.0,-222.0,-53.0,-927.0,19.0,222.0,-106.0,-842.0,-49.0
-4.0,-222.0,-54.0,-944.0,12.0,222.0,-108.0,-834.0,-41.0
-7.0,-219.0,-51.0,-954.0,7.0,218.0,-107.0,-835.0,-30.0
-8.0,-218.0,-47.0,-961.0,7.0,211.0,-102.0,-827.0,-23.0
-1.0,-219.0,-42.0,-962.0,13.0,202.0,-100.0,-826.0,-7.0
0.0,-217.0,-45.0,-965.0,27.0,189.0,-90.0,-822.0,-3.0
1.0,-218.0,-44.0,-967.0,47.0,174.0,-81.0,-828.0,-4.0
6.0,-221.0,-42.0,-975.0,70.0,156.0,-63.0,-833.0,2.0
9.0,-220.0,-43.0,-990.0,100.0,137.0,-59.0,-840.0,-4.0
8.0,-224.0,-49.0,-1016.0,134.0,115.0,-54.0,-851.0,-15.0
8.0,-225.0,-50.0,-1055.0,170.0,91.0,-46.0,-868.0,-31.0
10.0,-236.0,-49.0,-1104.0,203.0,69.0,-41.0,-887.0,-41.0
8.0,-239.0,-56.0,-1166.0,232.0,49.0,-41.0,-912.0,-59.0
6.0,-245.0,-45.0,-1229.0,251.0,31.0,-43.0,-941.0,-70.0
9.0,-253.0,-61.0,-1287.0,260.0,13.0,-38.0,-967.0,-81.0
8.0,-258.0,-63.0,-1333.0,260.0,-4.0,-41.0,-983.0,-89.0
11.0,-263.0,-62.0,-1363.0,254.0,-19.0,-44.0,-1005.0,-94.0
14.0,-267.0,-61.0,-1372.0,239.0,-30.0,-33.0,-1017.0,-94.0
14.0,-271.0,-65.0,-1355.0,223.0,-42.0,-30.0,-1027.0,-92.0
14.0,-273.0,-62.0,-1314.0,208.0,-55.0,-19.0,-1027.0,-91.0
15.0,-271.0,-61.0,-1249.0,201.0,-67.0,-13.0,-1027.0,-82.0
18.0,-269.0,-60.0,-1161.0,202.0,-78.0,-12.0,-1018.0,-73.0
21.0,-266.0,-55.0,-1056.0,211.0,-94.0,-1.0,-1003.0,-63.0
24.0,-262.0,-53.0,-941.0,229.0,-107.0,4.0,-984.0,-53.0
25.0,-257.0,-57.0,-827.0,255.0,-122.0,9.0,-969.0,-58.0
28.0,-249.0,-60.0,-720.0,287.0,-135.0,12.0,-953.0,-66.0
25.0,-246.0,-62.0,-630.0,320.0,-147.0,14.0,-931.0,-79.0
24.0,-239.0,-65.0,-565.0,353.0,-156.0,17.0,-916.0,-91.0
25.0,-238.0,-70.0,-527.0,381.0,-164.0,15.0,-900.0,-111.0
21.0,-231.0,-73.0,-519.0,401.0,-164.0,8.0,-888.0,-128.0
21.0,-234.0,-79.0,-537.0,412.0,-161.0,3.0,-890.0,-140.0
16.0,-230.0,-78.0,-581.0,413.0,-156.0,-2.0,-884.0,-160.0
15.0,-231.0,-82.0,-640.0,409.0,-146.0,-25.0,-896.0,-162.0
9.0,-234.0,-84.0,-711.0,400.0,-133.0,-33.0,-903.0,-166.0
5.0,-242.0,-79.0,-781.0,385.0,-121.0,-51.0,-923.0,-155.0
4.0,-244.0,-78.0,-844.0,365.0,-105.0,-61.0,-929.0,-152.0
0.0,-249.0,-75.0,-894.0,346.0,-89.0,-75.0,-943.0,-144.0
-3.0,-252.0,-73.0,-927.0,325.0,-77.0,-99.0,-955.0,-124.0
-8.0,-255.0,-65.0,-939.0,302.0,-66.0,-111.0,-966.0,-114.0
-15.0,-256.0,-65.0,-926.0,275.0,-53.0,-126.0,-982.0,-90.0
-16.0,-260.0,-59.0,-886.0,249.0,-43.0,-143.0,-986.0,-80.0
-17.0,-261.0,-59.0,-832.0,222.0,-37.0,-151.0,-991.0,-75.0
-22.0,-263.0,-53.0,-763.0,196.0,-34.0,-166.0,-988.0,-71.0
-25.0,-260.0,-60.0,-683.0,168.0,-32.0,-171.0,-984.0,-78.0
-25.0,-257.0,-64.0,-602.0,141.0,-28.0,-181.0,-978.0,-85.0
-26.0,-257.0,-66.0,-522.0,118.0,-26.0,-184.0,-966.0,-95.0
-25.0,-254.0,-71.0,-453.0,102.0,-23.0,-180.0,-957.0,-112.0
-24.0,-249.0,-74.0,-397.0,92.0,-22.0,-179.0,-948.0,-137.0
-27.0,-246.0,-80.0,-358.0,90.0,-21.0,-175.0,-936.0,-156.0
-18.0,-244.0,-83.0,-340.0,93.0,-19.0,-164.0,-927.0,-176.0
-19.0,-240.0,-91.0,-338.0,101.0,-19.0,-154.0,-925.0,-193.0
-14.0,-240.0,-95.0,-352.0,116.0,-20.0,-146.0,-922.0,-208.0
-12.0,-237.0,-94.0,-379.0,133.0,-17.0,-133.0,-914.0,-214.0
-7.0,-241.0,-98.0,-419.0,150.0,-16.0,-115.0,-919.0,-220.0
-5.0,-241.0,-97.0,-466.0,165.0,-15.0,-111.0,-919.0,-224.0
-6.0,-240.0,-94.0,-521.0,177.0,-8.0,-105.0,-924.0,-220.0
0.0,-247.0,-97.0,-573.0,185.0,3.0,-99.0,-934.0,-214.0
-2.0,-246.0,-100.0,-616.0,184.0,16.0,-93.0,-939.0,-206.0
0.0,-250.0,-90.0,-647.0,177.0,33.0,-91.0,-945.0,-203.0
0.0,-252.0,-84.0,-665.0,165.0,53.0,-83.0,-954.0,-188.0
0.0,-254.0,-89.0,-666.0,145.0,74.0,-83.0,-960.0,-179.0
1.0,-259.0,-84.0,-650.0,121.0,94.0,-74.0,-968.0,-171.0
1.0,-257.0,-76.0,-617.0,94.0,113.0,-71.0,-971.0,-165.0
2.0,-258.0,-83.0,-572.0,68.0,127.0,-75.0,-972.0,-158.0
3.0,-258.0,-82.0,-518.0,41.0,140.0,-75.0,-969.0,-154.0
0.0,-259.0,-77.0,-455.0,13.0,145.0,-79.0,-973.0,-150.0
0.0,-257.0,-76.0,-387.0,-14.0,146.0,-81.0,-971.0,-155.0
-1.0,-256.0,-83.0,-316.0,-42.0,140.0,-95.0,-963.0,-161.0
-3.0,-256.0,-83.0,-243.0,-70.0,133.0,-102.0,-969.0,-173.0
-9.0,-256.0,-86.0,-182.0,-98.0,124.0,-114.0,-962.0,-190.0
-9.0,-254.0,-88.0,-129.0,-119.0,113.0,-120.0,-961.0,-203.0
-10.0,-255.0,-91.0,-91.0,-140.0,101.0,-125.0,-967.0,-218.0
-12.0,-252.0,-98.0,-72.0,-154.0,89.0,-127.0,-965.0,-236.0
-12.0,-252.0,-101.0,-76.0,-164.0,79.0,-133.0,-964.0,-249.0
-13.0,-252.0,-103.0,-103.0,-167.0,70.0,-139.0,-969.0,-260.0
-11.0,-256.0,-104.0,-146.0,-164.0,59.0,-137.0,-976.0,-257.0
-12.0,-255.0,-105.0,-201.0,-154.0,52.0,-126.0,-986.0,-265.0
-8.0,-259.0,-108.0,-263.0,-137.0,43.0,-116.0,-992.0,-256.0
-3.0,-261.0,-102.0,-323.0,-118.0,33.0,-110.0,-997.0,-252.0
-5.0,-264.0,-102.0,-376.0,-95.0,21.0,-106.0,-1004.0,-245.0
-1.0,-268.0,-100.0,-411.0,-73.0,11.0,-96.0,-1015.0,-232.0
0.0,-269.0,-100.0,-427.0,-52.0,1.0,-80.0,-1028.0,-231.0
2.0,-273.0,-99.0,-425.0,-30.0,-6.0,-78.0,-1032.0,-227.0
4.0,-274.0,-99.0,-407.0,-7.0,-18.0,-61.0,-1040.0,-229.0
9.0,-277.0,-97.0,-380.0,12.0,-28.0,-57.0,-1050.0,-234.0
11.0,-281.0,-102.0,-347.0,27.0,-38.0,-51.0,-1058.0,-244.0
11.0,-279.0,-102.0,-306.0,33.0,-48.0,-39.0,-1062.0,-245.0
12.0,-278.0,-99.0,-264.0,30.0,-57.0,-38.0,-1062.0,-243.0
12.0,-275.0,-103.0,-214.0,16.0,-67.0,-31.0,-1058.0,-241.0
12.0,-278.0,-101.0,-165.0,-7.0,-75.0,-33.0,-1058.0,-248.0
11.0,-276.0,-102.0,-119.0,-36.0,-85.0,-31.0,-1045.0,-245.0
12.0,-272.0,-100.0,-77.0,-69.0,-91.0,-40.0,-1045.0,-239.0
7.0,-272.0,-106.0,-42.0,-105.0,-96.0,-51.0,-1038.0,-246.0
7.0,-273.0,-101.0,-11.0,-143.0,-99.0,-53.0,-1032.0,-250.0
2.0,-272.0,-106.0,14.0,-176.0,-99.0,-68.0,-1038.0,-257.0
0.0,-274.0,-105.0,38.0,-205.0,-96.0,-81.0,-1052.0,-270.0
-4.0,-278.0,-108.0,60.0,-229.0,-90.0,-100.0,-1059.0,-278.0
-8.0,-279.0,-111.0,80.0,-246.0,-83.0,-117.0,-1067.0,-278.0
-12.0,-285.0,-115.0,102.0,-257.0,-75.0,-137.0,-1082.0,-294.0
-16.0,-289.0,-113.0,130.0,-253.0,-63.0,-145.0,-1088.0,-299.0
-17.0,-290.0,-114.0,162.0,-237.0,-51.0,-154.0,-1099.0,-304.0
-20.0,-291.0,-117.0,197.0,-212.0,-38.0,-161.0,-1113.0,-304.0
-14.0,-296.0,-116.0,229.0,-182.0,-25.0,-168.0,-1122.0,-308.0
-18.0,-295.0,-122.0,259.0,-146.0,-15.0,-160.0,-1125.0,-308.0
-19.0,-296.0,-121.0,286.0,-113.0,-7.0,-163.0,-1125.0,-308.0
-16.0,-299.0,-122.0,316.0,-80.0,0.0,-159.0,-1125.0,-309.0
-16.0,-297.0,-114.0,345.0,-46.0,8.0,-152.0,-1125.0,-311.0
-11.0,-296.0,-120.0,377.0,-16.0,15.0,-139.0,-1121.0,-308.0
-8.0,-295.0,-117.0,406.0,12.0,18.0,-130.0,-1114.0,-309.0
-6.0,-292.0,-115.0,432.0,35.0,22.0,-113.0,-1105.0,-305.0
0.0,-289.0,-117.0,452.0,55.0,25.0,-105.0,-1108.0,-305.0
1.0,-290.0,-117.0,471.0,71.0,29.0,-93.0,-1100.0,-310.0
7.0,-288.0,-118.0,488.0,83.0,34.0,-68.0,-1090.0,-315.0
8.0,-284.0,-116.0,499.0,91.0,35.0,-52.0,-1084.0,-311.0
11.0,-280.0,-118.0,503.0,93.0,37.0,-46.0,-1081.0,-306.0
14.0,-280.0,-115.0,508.0,89.0,33.0,-36.0,-1068.0,-304.0
16.0,-278.0,-114.0,507.0,82.0,30.0,-32.0,-1046.0,-297.0
17.0,-274.0,-109.0,504.0,71.0,23.0,-24.0,-1046.0,-292.0
16.0,-269.0,-112.0,497.0,58.0,17.0,-20.0,-1025.0,-274.0
17.0,-269.0,-107.0,490.0,47.0,7.0,-18.0,-1014.0,-272.0
16.0,-265.0,-107.0,482.0,37.0,-2.0,-23.0,-1010.0,-261.0
14.0,-266.0,-108.0,471.0,29.0,-13.0,-29.0,-997.0,-257.0
13.0,-260.0,-101.0,458.0,24.0,-27.0,-34.0,-1001.0,-249.0
11.0,-263.0,-104.0,447.0,22.0,-41.0,-37.0,-1000.0,-237.0
7.0,-264.0,-102.0,438.0,24.0,-57.0,-47.0,-997.0,-234.0
6.0,-265.0,-97.0,434.0,27.0,-73.0,-62.0,-1003.0,-225.0
4.0,-262.0,-95.0,435.0,31.0,-90.0,-67.0,-1006.0,-224.0
1.0,-266.0,-90.0,438.0,35.0,-106.0,-78.0,-1009.0,-216.0
-1.0,-269.0,-90.0,448.0,39.0,-122.0,-89.0,-1017.0,-210.0
0.0,-268.0,-92.0,462.0,43.0,-133.0,-101.0,-1026.0,-210.0
-4.0,-271.0,-95.0,483.0,45.0,-140.0,-106.0,-1033.0,-211.0
-8.0,-273.0,-92.0,503.0,45.0,-144.0,-114.0,-1039.0,-207.0
-1.0,-273.0,-83.0,533.0,44.0,-143.0,-111.0,-1036.0,-211.0
-8.0,-272.0,-93.0,565.0,43.0,-140.0,-118.0,-1044.0,-216.0
-10.0,-278.0,-92.0,600.0,41.0,-130.0,-118.0,-1042.0,-216.0
-7.0,-274.0,-91.0,632.0,38.0,-118.0,-121.0,-1038.0,-218.0
-8.0,-273.0,-94.0,662.0,35.0,-106.0,-113.0,-1033.0,-225.0
0.0,-270.0,-92.0,690.0,34.0,-91.0,-108.0,-1027.0,-218.0
-6.0,-269.0,-91.0,714.0,32.0,-76.0,-101.0,-1024.0,-214.0
-1.0,-267.0,-87.0,736.0,33.0,-62.0,-98.0,-1022.0,-211.0
0.0,-268.0,-91.0,755.0,35.0,-50.0,-91.0,-1019.0,-207.0
3.0,-266.0,-90.0,776.0,42.0,-39.0,-73.0,-1020.0,-202.0
5.0,-264.0,-88.0,794.0,51.0,-30.0,-63.0,-1018.0,-188.0
5.0,-268.0,-83.0,815.0,64.0,-20.0,-57.0,-1025.0,-175.0
7.0,-269.0,-81.0,836.0,80.0,-11.0,-49.0,-1025.0,-160.0
11.0,-270.0,-76.0,862.0,94.0,-5.0,-39.0,-1032.0,-146.0
15.0,-276.0,-71.0,893.0,110.0,0.0,-28.0,-1042.0,-131.0
15.0,-280.0,-68.0,928.0,120.0,-1.0,-23.0,-1056.0,-109.0
19.0,-281.0,-60.0,968.0,130.0,-2.0,-14.0,-1062.0,-88.0
22.0,-286.0,-56.0,1013.0,135.0,-8.0,-5.0,-1074.0,-68.0
14.0,-283.0,-54.0,1064.0,140.0,-17.0,-3.0,-1076.0,-51.0
18.0,-285.0,-49.0,1118.0,147.0,-25.0,-4.0,-1091.0,-31.0
22.0,-292.0,-41.0,1174.0,155.0,-36.0,-3.0,-1104.0,-1.0
26.0,-298.0,-34.0,1240.0,165.0,-48.0,-5.0,-1117.0,23.0
19.0,-298.0,-29.0,1319.0,176.0,-58.0,0.0,-1134.0,55.0
16.0,-305.0,-21.0,1402.0,189.0,-70.0,-1.0,-1154.0,83.0
21.0,-313.0,-7.0,1496.0,204.0,-81.0,-2.0,-1181.0,115.0
20.0,-319.0,0.0,1601.0,222.0,-92.0,-6.0,-1206.0,149.0
21.0,-329.0,3.0,1721.0,235.0,-100.0,-11.0,-1241.0,180.0
16.0,-340.0,16.0,1855.0,249.0,-109.0,-7.0,-1294.0,211.0
15.0,-348.0,21.0,2004.0,260.0,-120.0,-16.0,-1319.0,233.0
19.0,-357.0,17.0,2160.0,271.0,-128.0,-6.0,-1362.0,221.0
17.0,-363.0,3.0,2304.0,281.0,-135.0,-12.0,-1382.0,185.0
10.0,-361.0,-11.0,2410.0,294.0,-141.0,-40.0,-1384.0,125.0
6.0,-356.0,-25.0,2460.0,306.0,-142.0,-48.0,-1376.0,60.0
0.0,-342.0,-41.0,2449.0,312.0,-145.0,-74.0,-1340.0,7.0
-3.0,-325.0,-58.0,2377.0,308.0,-147.0,-91.0,-1290.0,-54.0
-13.0,-310.0,-68.0,2238.0,294.0,-161.0,-127.0,-1207.0,-112.0
-16.0,-289.0,-81.0,2035.0,273.0,-169.0,-148.0,-1143.0,-147.0
-20.0,-272.0,-85.0,1777.0,249.0,-182.0,-161.0,-1088.0,-173.0
-22.0,-261.0,-81.0,1488.0,226.0,-189.0,-165.0,-1043.0,-172.0
-25.0,-257.0,-77.0,1190.0,202.0,-189.0,-170.0,-1018.0,-131.0
-21.0,-261.0,-58.0,917.0,174.0,-173.0,-165.0,-1028.0,-81.0
-20.0,-266.0,-41.0,689.0,151.0,-153.0,-155.0,-1037.0,-12.0
-11.0,-272.0,-27.0,516.0,131.0,-120.0,-139.0,-1058.0,39.0
-11.0,-274.0,-10.0,397.0,117.0,-87.0,-126.0,-1074.0,93.0
-7.0,-280.0,1.0,328.0,106.0,-54.0,-116.0,-1079.0,142.0
-1.0,-281.0,11.0,301.0,99.0,-25.0,-99.0,-1073.0,205.0
0.0,-274.0,28.0,313.0,95.0,-2.0,-88.0,-1061.0,253.0
1.0,-275.0,30.0,346.0,87.0,15.0,-78.0,-1050.0,280.0
1.0,-272.0,38.0,371.0,74.0,26.0,-68.0,-1052.0,300.0
1.0,-271.0,41.0,387.0,55.0,26.0,-67.0,-1040.0,325.0
3.0,-266.0,47.0,403.0,30.0,24.0,-65.0,-1018.0,343.0
1.0,-262.0,52.0,430.0,1.0,20.0,-74.0,-994.0,362.0
0.0,-254.0,52.0,469.0,-27.0,16.0,-77.0,-974.0,359.0
0.0,-250.0,49.0,511.0,-53.0,10.0,-77.0,-945.0,348.0
0.0,-245.0,47.0,553.0,-73.0,5.0,-81.0,-924.0,346.0
0.0,-237.0,45.0,591.0,-89.0,-1.0,-89.0,-901.0,326.0
0.0,-234.0,43.0,627.0,-96.0,-8.0,-90.0,-875.0,318.0
0.0,-228.0,37.0,655.0,-98.0,-19.0,-91.0,-863.0,313.0
0.0,-224.0,34.0,674.0,-96.0,-30.0,-98.0,-851.0,306.0
-3.0,-223.0,37.0,678.0,-92.0,-42.0,-93.0,-844.0,298.0
-2.0,-218.0,34.0,671.0,-85.0,-54.0,-98.0,-833.0,295.0
-3.0,-214.0,30.0,653.0,-73.0,-65.0,-94.0,-835.0,289.0
-5.0,-218.0,34.0,626.0,-59.0,-68.0,-99.0,-829.0,295.0
-3.0,-219.0,37.0,597.0,-40.0,-68.0,-96.0,-829.0,291.0
-1.0,-221.0,38.0,568.0,-20.0,-62.0,-93.0,-834.0,308.0
0.0,-218.0,43.0,550.0,-3.0,-56.0,-87.0,-846.0,323.0
0.0,-227.0,47.0,541.0,12.0,-45.0,-86.0,-853.0,333.0
0.0,-228.0,52.0,554.0,20.0,-36.0,-83.0,-866.0,348.0
0.0,-234.0,54.0,579.0,19.0,-23.0,-85.0,-875.0,363.0
3.0,-233.0,52.0,619.0,10.0,-5.0,-83.0,-886.0,369.0
0.0,-235.0,58.0,669.0,-4.0,12.0,-77.0,-890.0,371.0
0.0,-234.0,55.0,721.0,-24.0,29.0,-73.0,-897.0,368.0
0.0,-235.0,51.0,765.0,-46.0,47.0,-70.0,-904.0,360.0
2.0,-238.0,47.0,797.0,-70.0,63.0,-67.0,-904.0,355.0
2.0,-237.0,46.0,817.0,-89.0,77.0,-66.0,-916.0,347.0
4.0,-242.0,47.0,815.0,-107.0,88.0,-63.0,-922.0,341.0
1.0,-240.0,45.0,805.0,-122.0,95.0,-65.0,-936.0,339.0
1.0,-241.0,48.0,779.0,-132.0,101.0,-67.0,-941.0,345.0
3.0,-248.0,46.0,745.0,-141.0,106.0,-63.0,-948.0,343.0
4.0,-250.0,43.0,698.0,-148.0,107.0,-63.0,-960.0,339.0
3.0,-252.0,46.0,644.0,-151.0,103.0,-61.0,-971.0,328.0
6.0,-255.0,40.0,581.0,-157.0,99.0,-55.0,-988.0,324.0
5.0,-256.0,45.0,518.0,-159.0,93.0,-61.0,-991.0,322.0
7.0,-258.0,44.0,445.0,-162.0,83.0,-50.0,-1006.0,322.0
4.0,-262.0,42.0,375.0,-164.0,72.0,-47.0,-1016.0,321.0
5.0,-264.0,36.0,307.0,-169.0,59.0,-48.0,-1034.0,320.0
5.0,-271.0,41.0,246.0,-174.0,43.0,-49.0,-1044.0,319.0
5.0,-272.0,44.0,196.0,-180.0,27.0,-49.0,-1049.0,325.0
7.0,-274.0,49.0,160.0,-190.0,8.0,-48.0,-1052.0,336.0
6.0,-275.0,48.0,140.0,-201.0,-10.0,-44.0,-1052.0,330.0
10.0,-274.0,51.0,141.0,-212.0,-26.0,-37.0,-1043.0,345.0
14.0,-274.0,50.0,155.0,-220.0,-40.0,-30.0,-1035.0,346.0
14.0,-266.0,54.0,183.0,-225.0,-52.0,-24.0,-1015.0,354.0
14.0,-259.0,54.0,218.0,-223.0,-63.0,-26.0,-993.0,357.0
17.0,-256.0,52.0,255.0,-219.0,-69.0,-18.0,-969.0,358.0
20.0,-249.0,54.0,291.0,-211.0,-72.0,-11.0,-948.0,354.0
18.0,-244.0,50.0,320.0,-199.0,-74.0,-8.0,-923.0,363.0
19.0,-235.0,54.0,343.0,-184.0,-71.0,-12.0,-900.0,363.0
20.0,-229.0,54.0,358.0,-170.0,-68.0,-2.0,-878.0,370.0
16.0,-224.0,56.0,361.0,-157.0,-61.0,-9.0,-857.0,375.0
19.0,-220.0,56.0,355.0,-144.0,-55.0,-8.0,-838.0,378.0
18.0,-217.0,58.0,342.0,-135.0,-47.0,-5.0,-828.0,391.0
18.0,-213.0,60.0,326.0,-127.0,-41.0,-5.0,-816.0,405.0
16.0,-209.0,62.0,308.0,-123.0,-35.0,-10.0,-818.0,416.0
18.0,-211.0,64.0,287.0,-116.0,-30.0,-3.0,-812.0,423.0
20.0,-211.0,66.0,265.0,-110.0,-29.0,-9.0,-813.0,429.0
18.0,-214.0,71.0,244.0,-102.0,-29.0,-14.0,-817.0,437.0
14.0,-213.0,68.0,222.0,-95.0,-29.0,-6.0,-822.0,442.0
17.0,-216.0,68.0,198.0,-89.0,-27.0,-9.0,-834.0,438.0
16.0,-218.0,71.0,173.0,-82.0,-30.0,-11.0,-841.0,442.0
14.0,-221.0,72.0,147.0,-74.0,-30.0,-16.0,-843.0,439.0
16.0,-222.0,72.0,122.0,-65.0,-32.0,-21.0,-849.0,444.0
15.0,-225.0,67.0,100.0,-57.0,-33.0,-16.0,-863.0,442.0
17.0,-223.0,68.0,85.0,-52.0,-35.0,-17.0,-866.0,442.0
16.0,-230.0,63.0,75.0,-46.0,-35.0,-19.0,-869.0,433.0
19.0,-230.0,71.0,73.0,-43.0,-36.0,-20.0,-879.0,426.0
15.0,-231.0,67.0,74.0,-40.0,-35.0,-17.0,-882.0,430.0
17.0,-233.0,64.0,82.0,-38.0,-34.0,-20.0,-884.0,421.0
17.0,-225.0,57.0,95.0,-38.0,-33.0,-16.0,-883.0,415.0
18.0,-231.0,66.0,106.0,-35.0,-32.0,-21.0,-885.0,416.0
15.0,-231.0,60.0,116.0,-34.0,-31.0,-11.0,-886.0,406.0
15.0,-233.0,63.0,120.0,-31.0,-31.0,-15.0,-885.0,400.0
15.0,-230.0,60.0,121.0,-26.0,-29.0,-20.0,-881.0,396.0
18.0,-231.0,58.0,114.0,-21.0,-28.0,-20.0,-880.0,389.0
15.0,-233.0,53.0,106.0,-13.0,-26.0,-23.0,-883.0,383.0
14.0,-233.0,54.0,94.0,-3.0,-30.0,-25.0,-889.0,376.0
14.0,-234.0,57.0,82.0,8.0,-31.0,-27.0,-898.0,378.0
15.0,-235.0,52.0,68.0,18.0,-34.0,-28.0,-904.0,376.0
14.0,-237.0,53.0,54.0,27.0,-41.0,-32.0,-908.0,370.0
13.0,-232.0,50.0,42.0,33.0,-46.0,-26.0,-907.0,377.0
13.0,-240.0,56.0,28.0,37.0,-52.0,-29.0,-919.0,374.0
14.0,-238.0,56.0,15.0,39.0,-57.0,-33.0,-921.0,377.0
11.0,-239.0,53.0,2.0,36.0,-63.0,-34.0,-923.0,372.0
9.0,-240.0,59.0,-5.0,32.0,-66.0,-36.0,-924.0,380.0
9.0,-237.0,58.0,-8.0,24.0,-72.0,-33.0,-925.0,381.0
9.0,-241.0,57.0,-9.0,16.0,-74.0,-38.0,-925.0,388.0
12.0,-244.0,59.0,-3.0,7.0,-74.0,-38.0,-926.0,396.0
6.0,-242.0,58.0,2.0,-2.0,-74.0,-34.0,-922.0,400.0
11.0,-239.0,63.0,11.0,-10.0,-71.0,-37.0,-924.0,403.0
10.0,-238.0,62.0,23.0,-16.0,-68.0,-34.0,-920.0,404.0
12.0,-240.0,64.0,33.0,-23.0,-64.0,-36.0,-919.0,407.0
13.0,-238.0,65.0,43.0,-27.0,-59.0,-30.0,-909.0,407.0
11.0,-233.0,65.0,49.0,-28.0,-53.0,-32.0,-913.0,412.0
16.0,-235.0,64.0,51.0,-27.0,-48.0,-32.0,-896.0,412.0
14.0,-231.0,62.0,52.0,-25.0,-40.0,-32.0,-886.0,412.0
11.0,-230.0,61.0,50.0,-22.0,-34.0,-31.0,-882.0,413.0
13.0,-231.0,61.0,46.0,-18.0,-28.0,-30.0,-878.0,409.0
14.0,-227.0,64.0,40.0,-13.0,-23.0,-29.0,-880.0,406.0
13.0,-228.0,61.0,30.0,-7.0,-19.0,-30.0,-872.0,405.0
13.0,-227.0,63.0,25.0,-3.0,-18.0,-29.0,-870.0,403.0
10.0,-226.0,62.0,18.0,1.0,-15.0,-26.0,-869.0,406.0
13.0,-227.0,61.0,14.0,4.0,-15.0,-24.0,-867.0,407.0
14.0,-228.0,60.0,8.0,5.0,-15.0,-20.0,-872.0,401.0
13.0,-229.0,62.0,2.0,4.0,-14.0,-28.0,-868.0,408.0
14.0,-230.0,63.0,-2.0,3.0,-14.0,-20.0,-876.0,407.0
14.0,-231.0,64.0,-6.0,3.0,-12.0,-29.0,-874.0,413.0
13.0,-232.0,62.0,-7.0,1.0,-13.0,-23.0,-885.0,407.0
14.0,-234.0,64.0,-6.0,1.0,-12.0,-28.0,-885.0,414.0
17.0,-235.0,64.0,-5.0,0.0,-10.0,-23.0,-891.0,414.0
15.0,-235.0,65.0,-3.0,0.0,-12.0,-29.0,-905.0,413.0
14.0,-237.0,64.0,0.0,0.0,-11.0,-30.0,-905.0,420.0
17.0,-241.0,64.0,0.0,3.0,-10.0,-19.0,-913.0,416.0
15.0,-239.0,64.0,3.0,4.0,-7.0,-21.0,-923.0,415.0
14.0,-237.0,63.0,3.0,5.0,-5.0,-27.0,-923.0,422.0
16.0,-241.0,66.0,3.0,7.0,-2.0,-22.0,-925.0,417.0
14.0,-241.0,69.0,2.0,7.0,-1.0,-22.0,-924.0,421.0
15.0,-242.0,67.0,0.0,7.0,0.0,-20.0,-926.0,422.0
14.0,-240.0,67.0,-4.0,6.0,0.0,-17.0,-924.0,420.0
16.0,-239.0,65.0,-10.0,5.0,1.0,-22.0,-922.0,418.0
14.0,-239.0,64.0,-14.0,3.0,1.0,-23.0,-923.0,419.0
17.0,-238.0,61.0,-21.0,1.0,2.0,-27.0,-923.0,417.0
12.0,-237.0,62.0,-27.0,-1.0,3.0,-30.0,-920.0,408.0
11.0,-238.0,57.0,-36.0,1.0,4.0,-29.0,-918.0,402.0
13.0,-236.0,59.0,-45.0,3.0,5.0,-33.0,-914.0,394.0
12.0,-238.0,59.0,-53.0,7.0,8.0,-32.0,-917.0,388.0
11.0,-237.0,60.0,-62.0,11.0,7.0,-30.0,-912.0,384.0
14.0,-236.0,55.0,-68.0,15.0,8.0,-34.0,-905.0,383.0
10.0,-239.0,52.0,-71.0,20.0,8.0,-36.0,-909.0,386.0
11.0,-235.0,59.0,-72.0,25.0,9.0,-30.0,-910.0,384.0
13.0,-240.0,59.0,-71.0,32.0,10.0,-32.0,-910.0,392.0
11.0,-237.0,58.0,-69.0,35.0,9.0,-36.0,-912.0,398.0
11.0,-235.0,60.0,-66.0,37.0,11.0,-32.0,-909.0,397.0
11.0,-236.0,63.0,-65.0,38.0,11.0,-29.0,-907.0,402.0
13.0,-238.0,59.0,-63.0,37.0,11.0,-26.0,-910.0,404.0
12.0,-237.0,63.0,-63.0,36.0,11.0,-27.0,-915.0,401.0
15.0,-237.0,63.0,-63.0,35.0,13.0,-24.0,-918.0,402.0
14.0,-238.0,61.0,-67.0,33.0,13.0,-24.0,-916.0,405.0
15.0,-239.0,64.0,-69.0,31.0,15.0,-21.0,-920.0,409.0
15.0,-242.0,63.0,-67.0,29.0,16.0,-18.0,-920.0,405.0
12.0,-239.0,62.0,-65.0,29.0,17.0,-22.0,-922.0,402.0
16.0,-239.0,60.0,-62.0,28.0,18.0,-18.0,-915.0,405.0
12.0,-239.0,62.0,-60.0,28.0,21.0,-18.0,-926.0,400.0
10.0,-239.0,59.0,-57.0,28.0,22.0,-24.0,-927.0,402.0
11.0,-239.0,60.0,-52.0,27.0,24.0,-25.0,-927.0,397.0
15.0,-242.0,58.0,-46.0,27.0,23.0,-35.0,-923.0,404.0
13.0,-239.0,61.0,-41.0,26.0,24.0,-29.0,-926.0,404.0
14.0,-242.0,63.0,-34.0,24.0,25.0,-33.0,-931.0,402.0
14.0,-240.0,56.0,-30.0,25.0,24.0,-33.0,-922.0,406.0
13.0,-239.0,61.0,-29.0,24.0,23.0,-29.0,-923.0,406.0
16.0,-240.0,61.0,-29.0,22.0,23.0,-22.0,-922.0,405.0
15.0,-240.0,63.0,-33.0,21.0,24.0,-26.0,-920.0,409.0
14.0,-240.0,58.0,-37.0,20.0,24.0,-28.0,-925.0,402.0
14.0,-241.0,61.0,-45.0,20.0,24.0,-29.0,-921.0,408.0
15.0,-240.0,60.0,-56.0,18.0,23.0,-27.0,-921.0,406.0
13.0,-239.0,60.0,-67.0,19.0,21.0,-24.0,-925.0,406.0
15.0,-240.0,61.0,-78.0,20.0,21.0,-32.0,-928.0,400.0
11.0,-244.0,58.0,-87.0,23.0,19.0,-31.0,-928.0,397.0
12.0,-241.0,62.0,-98.0,28.0,19.0,-32.0,-929.0,392.0
14.0,-243.0,63.0,-102.0,31.0,17.0,-31.0,-930.0,388.0
13.0,-246.0,58.0,-103.0,34.0,16.0,-32.0,-935.0,384.0
9.0,-244.0,60.0,-98.0,39.0,16.0,-28.0,-939.0,388.0
16.0,-248.0,61.0,-91.0,42.0,13.0,-30.0,-939.0,388.0
12.0,-244.0,56.0,-81.0,43.0,11.0,-31.0,-939.0,380.0
16.0,-248.0,57.0,-70.0,44.0,10.0,-30.0,-940.0,381.0
12.0,-246.0,57.0,-56.0,43.0,8.0,-32.0,-938.0,381.0
13.0,-244.0,54.0,-43.0,44.0,7.0,-28.0,-943.0,377.0
12.0,-246.0,59.0,-32.0,43.0,6.0,-34.0,-941.0,385.0
12.0,-243.0,60.0,-19.0,45.0,5.0,-31.0,-940.0,384.0
13.0,-248.0,57.0,-10.0,44.0,5.0,-33.0,-937.0,387.0
13.0,-245.0,62.0,0.0,44.0,6.0,-35.0,-933.0,387.0
12.0,-243.0,61.0,8.0,43.0,7.0,-33.0,-933.0,392.0
10.0,-240.0,60.0,12.0,42.0,8.0,-35.0,-931.0,389.0
11.0,-240.0,61.0,14.0,40.0,8.0,-35.0,-927.0,392.0
12.0,-241.0,60.0,14.0,37.0,8.0,-31.0,-923.0,390.0
9.0,-236.0,59.0,10.0,33.0,8.0,-38.0,-921.0,391.0
13.0,-245.0,62.0,4.0,28.0,7.0,-39.0,-918.0,394.0
9.0,-238.0,59.0,-5.0,26.0,6.0,-38.0,-918.0,400.0
16.0,-244.0,54.0,-16.0,22.0,9.0,-36.0,-916.0,388.0
6.0,-239.0,59.0,-26.0,22.0,9.0,-43.0,-920.0,397.0
5.0,-238.0,56.0,-36.0,23.0,8.0,-41.0,-921.0,396.0
10.0,-239.0,61.0,-45.0,25.0,9.0,-44.0,-919.0,395.0
9.0,-243.0,60.0,-52.0,29.0,7.0,-39.0,-928.0,392.0
9.0,-242.0,59.0,-57.0,34.0,9.0,-42.0,-926.0,395.0
6.0,-239.0,63.0,-56.0,37.0,8.0,-40.0,-924.0,387.0
8.0,-244.0,59.0,-55.0,41.0,7.0,-41.0,-926.0,389.0
8.0,-242.0,54.0,-54.0,45.0,5.0,-46.0,-926.0,384.0
9.0,-243.0,60.0,-52.0,47.0,2.0,-45.0,-925.0,386.0
8.0,-242.0,55.0,-53.0,48.0,0.0,-39.0,-923.0,382.0
15.0,-241.0,55.0,-52.0,47.0,-2.0,-39.0,-926.0,381.0
9.0,-242.0,58.0,-50.0,49.0,-4.0,-39.0,-925.0,378.0
8.0,-243.0,51.0,-49.0,46.0,-5.0,-39.0,-927.0,372.0
9.0,-240.0,60.0,-50.0,45.0,-5.0,-37.0,-929.0,378.0
12.0,-245.0,55.0,-48.0,43.0,-5.0,-38.0,-929.0,379.0
9.0,-246.0,59.0,-45.0,44.0,-6.0,-42.0,-930.0,380.0
11.0,-240.0,57.0,-45.0,43.0,-6.0,-42.0,-926.0,389.0
11.0,-241.0,59.0,-42.0,41.0,-7.0,-38.0,-933.0,384.0
8.0,-242.0,58.0,-36.0,40.0,-6.0,-41.0,-925.0,392.0
9.0,-240.0,59.0,-33.0,38.0,-7.0,-42.0,-926.0,391.0
9.0,-241.0,62.0,-31.0,37.0,-6.0,-38.0,-927.0,397.0
11.0,-241.0,61.0,-29.0,36.0,-7.0,-39.0,-926.0,400.0
12.0,-243.0,61.0,-26.0,36.0,-8.0,-37.0,-927.0,407.0
8.0,-242.0,62.0,-24.0,35.0,-9.0,-36.0,-928.0,409.0
13.0,-245.0,61.0,-21.0,33.0,-9.0,-38.0,-925.0,410.0
11.0,-242.0,61.0,-17.0,32.0,-10.0,-39.0,-928.0,414.0
9.0,-236.0,64.0,-9.0,30.0,-10.0,-35.0,-928.0,413.0
11.0,-240.0,62.0,-7.0,28.0,-10.0,-40.0,-929.0,413.0
13.0,-241.0,63.0,-6.0,26.0,-11.0,-38.0,-927.0,411.0
12.0,-240.0,66.0,-3.0,24.0,-12.0,-33.0,-926.0,413.0
10.0,-241.0,63.0,-4.0,20.0,-12.0,-34.0,-924.0,406.0
13.0,-239.0,63.0,-6.0,19.0,-11.0,-35.0,-924.0,407.0
12.0,-239.0,63.0,-11.0,19.0,-12.0,-32.0,-922.0,401.0
11.0,-242.0,62.0,-17.0,18.0,-11.0,-31.0,-923.0,400.0
10.0,-240.0,60.0,-21.0,17.0,-9.0,-34.0,-922.0,399.0
11.0,-239.0,62.0,-25.0,16.0,-9.0,-35.0,-924.0,394.0
11.0,-241.0,58.0,-29.0,15.0,-9.0,-38.0,-923.0,396.0
9.0,-242.0,59.0,-30.0,13.0,-9.0,-34.0,-926.0,392.0
11.0,-241.0,61.0,-31.0,10.0,-8.0,-35.0,-926.0,394.0
12.0,-240.0,59.0,-35.0,8.0,-11.0,-34.0,-929.0,397.0
10.0,-241.0,59.0,-34.0,6.0,-10.0,-34.0,-924.0,397.0
13.0,-240.0,61.0,-32.0,3.0,-10.0,-33.0,-924.0,397.0
11.0,-239.0,60.0,-33.0,1.0,-10.0,-35.0,-921.0,397.0
7.0,-241.0,57.0,-32.0,-2.0,-9.0,-41.0,-924.0,401.0
12.0,-240.0,58.0,-30.0,-5.0,-9.0,-36.0,-927.0,399.0
10.0,-240.0,62.0,-27.0,-5.0,-11.0,-35.0,-920.0,401.0
9.0,-243.0,61.0,-28.0,-8.0,-9.0,-38.0,-923.0,399.0
11.0,-236.0,58.0,-29.0,-8.0,-8.0,-34.0,-921.0,397.0
12.0,-239.0,62.0,-28.0,-10.0,-8.0,-35.0,-923.0,397.0
13.0,-241.0,59.0,-29.0,-11.0,-6.0,-35.0,-920.0,397.0
11.0,-239.0,63.0,-30.0,-10.0,-5.0,-38.0,-923.0,400.0
11.0,-241.0,62.0,-32.0,-8.0,-4.0,-36.0,-916.0,395.0
12.0,-239.0,62.0,-34.0,-6.0,-3.0,-39.0,-915.0,405.0
10.0,-240.0,62.0,-34.0,-4.0,-1.0,-38.0,-922.0,392.0
13.0,-240.0,59.0,-37.0,-3.0,-3.0,-30.0,-915.0,398.0
9.0,-237.0,61.0,-38.0,0.0,-4.0,-34.0,-919.0,397.0
12.0,-239.0,63.0,-40.0,1.0,-3.0,-34.0,-922.0,399.0
11.0,-241.0,60.0,-43.0,3.0,-4.0,-35.0,-920.0,397.0
8.0,-239.0,60.0,-45.0,3.0,-4.0,-35.0,-924.0,400.0
13.0,-242.0,63.0,-49.0,4.0,-4.0,-37.0,-918.0,404.0
12.0,-242.0,60.0,-51.0,5.0,-4.0,-40.0,-923.0,401.0
11.0,-238.0,61.0,-54.0,5.0,-4.0,-35.0,-922.0,404.0
7.0,-241.0,59.0,-57.0,6.0,-6.0,-34.0,-922.0,402.0
10.0,-239.0,59.0,-60.0,6.0,-6.0,-36.0,-923.0,405.0
15.0,-241.0,61.0,-61.0,6.0,-6.0,-38.0,-923.0,398.0
9.0,-240.0,60.0,-58.0,4.0,-6.0,-35.0,-923.0,395.0
10.0,-239.0,59.0,-57.0,2.0,-6.0,-42.0,-923.0,394.0
11.0,-242.0,58.0,-54.0,2.0,-7.0,-36.0,-925.0,395.0
12.0,-241.0,56.0,-53.0,1.0,-7.0,-36.0,-925.0,391.0
11.0,-239.0,62.0,-52.0,-2.0,-7.0,-40.0,-920.0,392.0
8.0,-240.0,60.0,-51.0,-2.0,-9.0,-37.0,-925.0,395.0
10.0,-241.0,63.0,-48.0,-3.0,-9.0,-37.0,-921.0,395.0
11.0,-239.0,56.0,-46.0,-2.0,-9.0,-36.0,-924.0,394.0
10.0,-242.0,59.0,-49.0,-1.0,-9.0,-39.0,-924.0,390.0
10.0,-239.0,61.0,-48.0,0.0,-11.0,-36.0,-921.0,397.0
11.0,-238.0,62.0,-47.0,2.0,-9.0,-32.0,-923.0,395.0
12.0,-238.0,60.0,-49.0,3.0,-8.0,-31.0,-924.0,397.0
14.0,-238.0,61.0,-51.0,4.0,-9.0,-34.0,-923.0,391.0
12.0,-240.0,62.0,-52.0,6.0,-10.0,-36.0,-921.0,400.0
8.0,-239.0,61.0,-53.0,8.0,-10.0,-34.0,-921.0,395.0
11.0,-241.0,60.0,-58.0,9.0,-11.0,-36.0,-924.0,402.0
11.0,-241.0,62.0,-59.0,8.0,-11.0,-31.0,-927.0,397.0
10.0,-241.0,60.0,-61.0,8.0,-11.0,-34.0,-924.0,399.0
10.0,-240.0,62.0,-63.0,10.0,-11.0,-36.0,-923.0,401.0
10.0,-240.0,62.0,-64.0,10.0,-10.0,-35.0,-923.0,400.0
9.0,-240.0,61.0,-62.0,11.0,-10.0,-33.0,-927.0,401.0
13.0,-240.0,62.0,-63.0,10.0,-10.0,-36.0,-927.0,403.0
10.0,-242.0,59.0,-63.0,10.0,-10.0,-32.0,-925.0,401.0
10.0,-239.0,63.0,-60.0,9.0,-9.0,-37.0,-921.0,398.0
12.0,-235.0,62.0,-59.0,11.0,-8.0,-33.0,-924.0,398.0
14.0,-244.0,59.0,-59.0,10.0,-9.0,-36.0,-922.0,397.0
11.0,-239.0,58.0,-59.0,10.0,-9.0,-32.0,-924.0,396.0
12.0,-241.0,60.0,-57.0,9.0,-7.0,-36.0,-923.0,397.0
11.0,-238.0,61.0,-57.0,9.0,-8.0,-34.0,-924.0,395.0
10.0,-241.0,63.0,-56.0,11.0,-7.0,-34.0,-925.0,389.0
11.0,-239.0,57.0,-54.0,12.0,-7.0,-33.0,-924.0,396.0
10.0,-237.0,61.0,-53.0,13.0,-6.0,-34.0,-924.0,391.0
10.0,-241.0,59.0,-49.0,14.0,-6.0,-32.0,-926.0,394.0
12.0,-243.0,59.0,-46.0,14.0,-6.0,-35.0,-932.0,391.0
14.0,-243.0,60.0,-39.0,14.0,-6.0,-34.0,-930.0,392.0
10.0,-244.0,59.0,-34.0,14.0,-5.0,-32.0,-926.0,397.0
11.0,-242.0,62.0,-31.0,15.0,-5.0,-31.0,-929.0,396.0
11.0,-238.0,57.0,-28.0,15.0,-5.0,-33.0,-928.0,393.0
14.0,-244.0,59.0,-22.0,16.0,-6.0,-31.0,-930.0,394.0
11.0,-244.0,53.0,-20.0,17.0,-4.0,-34.0,-930.0,395.0
12.0,-245.0,59.0,-18.0,17.0,-4.0,-30.0,-928.0,392.0
13.0,-240.0,61.0,-14.0,17.0,-5.0,-32.0,-931.0,395.0
12.0,-239.0,57.0,-12.0,17.0,-6.0,-33.0,-927.0,393.0
19.0,-239.0,63.0,-8.0,16.0,-7.0,-34.0,-934.0,396.0
10.0,-238.0,57.0,-4.0,16.0,-7.0,-32.0,-926.0,396.0
14.0,-244.0,56.0,0.0,15.0,-8.0,-33.0,-930.0,397.0
15.0,-242.0,58.0,6.0,16.0,-9.0,-29.0,-934.0,395.0
11.0,-243.0,60.0,10.0,18.0,-10.0,-31.0,-927.0,397.0
10.0,-239.0,60.0,16.0,17.0,-10.0,-32.0,-930.0,396.0
12.0,-240.0,60.0,18.0,17.0,-12.0,-31.0,-931.0,400.0
12.0,-242.0,59.0,24.0,18.0,-11.0,-30.0,-928.0,399.0
13.0,-240.0,62.0,26.0,20.0,-13.0,-32.0,-929.0,398.0
10.0,-239.0,63.0,29.0,19.0,-13.0,-34.0,-925.0,400.0
10.0,-239.0,65.0,29.0,21.0,-11.0,-35.0,-925.0,400.0
7.0,-237.0,52.0,29.0,23.0,-12.0,-34.0,-922.0,402.0
11.0,-237.0,60.0,27.0,24.0,-11.0,-37.0,-924.0,397.0
10.0,-240.0,62.0,25.0,24.0,-9.0,-34.0,-923.0,401.0
14.0,-241.0,61.0,23.0,27.0,-9.0,-35.0,-920.0,402.0
11.0,-241.0,63.0,23.0,28.0,-9.0,-38.0,-921.0,408.0
14.0,-240.0,63.0,21.0,29.0,-7.0,-35.0,-919.0,403.0
13.0,-241.0,60.0,19.0,30.0,-5.0,-35.0,-921.0,406.0
11.0,-239.0,64.0,18.0,29.0,-5.0,-38.0,-923.0,408.0
12.0,-241.0,65.0,21.0,31.0,-6.0,-34.0,-921.0,410.0
10.0,-241.0,62.0,21.0,33.0,-5.0,-32.0,-922.0,414.0
10.0,-241.0,63.0,24.0,33.0,-5.0,-34.0,-923.0,413.0
13.0,-237.0,63.0,26.0,35.0,-5.0,-33.0,-919.0,414.0
13.0,-237.0,65.0,26.0,34.0,-5.0,-29.0,-920.0,419.0
12.0,-238.0,63.0,28.0,33.0,-3.0,-33.0,-913.0,419.0
9.0,-237.0,65.0,27.0,33.0,-5.0,-33.0,-920.0,414.0
10.0,-240.0,63.0,26.0,31.0,-5.0,-29.0,-911.0,412.0
13.0,-239.0,64.0,21.0,28.0,-6.0,-28.0,-913.0,408.0
13.0,-238.0,64.0,14.0,27.0,-6.0,-28.0,-913.0,412.0
13.0,-238.0,65.0,6.0,23.0,-6.0,-28.0,-908.0,408.0
13.0,-235.0,62.0,-1.0,25.0,-6.0,-31.0,-919.0,408.0
12.0,-239.0,63.0,-7.0,23.0,-4.0,-31.0,-918.0,409.0
12.0,-240.0,63.0,-9.0,22.0,-3.0,-30.0,-918.0,406.0
14.0,-241.0,63.0,-12.0,21.0,-3.0,-32.0,-923.0,407.0
15.0,-240.0,62.0,-10.0,21.0,-1.0,-28.0,-921.0,405.0
14.0,-240.0,65.0,-8.0,20.0,-2.0,-29.0,-920.0,405.0
12.0,-242.0,61.0,-8.0,22.0,-1.0,-31.0,-920.0,405.0
12.0,-240.0,65.0,-3.0,21.0,-1.0,-31.0,-919.0,413.0
13.0,-239.0,62.0,2.0,22.0,-1.0,-36.0,-921.0,411.0
13.0,-239.0,63.0,8.0,22.0,0.0,-34.0,-920.0,405.0
13.0,-241.0,62.0,14.0,24.0,-1.0,-32.0,-914.0,406.0
9.0,-237.0,61.0,14.0,22.0,0.0,-32.0,-917.0,404.0
13.0,-239.0,57.0,15.0,22.0,0.0,-36.0,-915.0,407.0
12.0,-240.0,63.0,12.0,23.0,-2.0,-32.0,-913.0,409.0
9.0,-236.0,63.0,9.0,24.0,-2.0,-36.0,-914.0,410.0
10.0,-238.0,63.0,3.0,21.0,-1.0,-34.0,-911.0,411.0
10.0,-236.0,64.0,-2.0,22.0,-1.0,-39.0,-913.0,411.0
11.0,-239.0,64.0,-8.0,22.0,0.0,-35.0,-913.0,417.0
10.0,-238.0,64.0,-13.0,23.0,0.0,-34.0,-912.0,416.0
12.0,-238.0,69.0,-17.0,22.0,0.0,-38.0,-916.0,421.0
10.0,-238.0,67.0,-19.0,22.0,-1.0,-34.0,-918.0,422.0
9.0,-236.0,66.0,-18.0,22.0,-1.0,-38.0,-920.0,420.0
10.0,-238.0,65.0,-18.0,21.0,1.0,-30.0,-919.0,420.0
12.0,-235.0,69.0,-16.0,20.0,1.0,-32.0,-915.0,423.0
11.0,-236.0,67.0,-12.0,20.0,2.0,-33.0,-925.0,424.0
11.0,-239.0,65.0,-11.0,19.0,1.0,-32.0,-917.0,423.0
13.0,-238.0,66.0,-8.0,17.0,2.0,-33.0,-920.0,421.0
13.0,-240.0,64.0,-5.0,16.0,2.0,-33.0,-917.0,423.0
11.0,-239.0,64.0,-3.0,13.0,3.0,-32.0,-919.0,414.0
11.0,-237.0,68.0,-1.0,13.0,2.0,-35.0,-913.0,418.0
11.0,-240.0,66.0,-2.0,12.0,3.0,-33.0,-917.0,423.0
11.0,-237.0,65.0,-4.0,14.0,1.0,-35.0,-911.0,417.0
9.0,-240.0,64.0,-5.0,15.0,1.0,-31.0,-912.0,412.0
12.0,-239.0,64.0,-10.0,18.0,2.0,-36.0,-905.0,415.0
9.0,-236.0,63.0,-13.0,19.0,2.0,-34.0,-912.0,414.0
11.0,-238.0,64.0,-17.0,21.0,1.0,-34.0,-912.0,416.0
12.0,-236.0,63.0,-21.0,23.0,-1.0,-32.0,-912.0,416.0
11.0,-240.0,64.0,-27.0,23.0,-1.0,-37.0,-913.0,417.0
8.0,-234.0,66.0,-28.0,24.0,2.0,-34.0,-912.0,415.0
11.0,-237.0,64.0,-28.0,24.0,-1.0,-34.0,-914.0,416.0
10.0,-236.0,67.0,-27.0,23.0,0.0,-32.0,-919.0,416.0
11.0,-239.0,65.0,-27.0,23.0,0.0,-34.0,-912.0,416.0
12.0,-238.0,64.0,-24.0,23.0,1.0,-38.0,-916.0,419.0
11.0,-236.0,64.0,-21.0,19.0,2.0,-37.0,-911.0,415.0
13.0,-238.0,65.0,-19.0,20.0,1.0,-40.0,-920.0,419.0
7.0,-240.0,65.0,-18.0,17.0,1.0,-37.0,-917.0,417.0
12.0,-237.0,65.0,-15.0,18.0,0.0,-34.0,-915.0,417.0
13.0,-240.0,66.0,-16.0,17.0,1.0,-38.0,-918.0,417.0
7.0,-238.0,63.0,-14.0,17.0,0.0,-42.0,-920.0,416.0
9.0,-239.0,65.0,-14.0,17.0,-1.0,-35.0,-913.0,421.0
11.0,-240.0,67.0,-12.0,18.0,0.0,-35.0,-911.0,417.0
12.0,-238.0,67.0,-11.0,18.0,0.0,-35.0,-912.0,419.0
11.0,-239.0,66.0,-13.0,20.0,-2.0,-38.0,-917.0,417.0
12.0,-238.0,67.0,-14.0,22.0,-1.0,-38.0,-910.0,418.0
8.0,-233.0,67.0,-16.0,22.0,-1.0,-35.0,-910.0,419.0
10.0,-234.0,66.0,-20.0,23.0,-2.0,-37.0,-912.0,418.0
13.0,-237.0,67.0,-21.0,24.0,-4.0,-37.0,-901.0,420.0
9.0,-236.0,64.0,-23.0,25.0,-4.0,-37.0,-911.0,421.0
9.0,-238.0,65.0,-25.0,25.0,-3.0,-35.0,-911.0,418.0
11.0,-238.0,65.0,-25.0,25.0,-4.0,-33.0,-912.0,417.0
11.0,-235.0,66.0,-25.0,25.0,-4.0,-38.0,-919.0,420.0
12.0,-237.0,68.0,-24.0,25.0,-3.0,-34.0,-915.0,422.0
11.0,-240.0,68.0,-22.0,26.0,-3.0,-34.0,-920.0,431.0
9.0,-235.0,66.0,-18.0,27.0,-2.0,-35.0,-921.0,425.0
12.0,-237.0,67.0,-13.0,27.0,-3.0,-39.0,-917.0,424.0
16.0,-257.0,91.0,-10.0,28.0,0.0,-34.0,-920.0,428.0
4.0,-236.0,73.0,-3.0,28.0,0.0,-31.0,-914.0,425.0
11.0,-237.0,70.0,2.0,28.0,1.0,-33.0,-913.0,422.0
12.0,-236.0,64.0,6.0,25.0,0.0,-36.0,-914.0,427.0
12.0,-237.0,68.0,7.0,26.0,0.0,-33.0,-914.0,419.0
8.0,-234.0,66.0,6.0,25.0,0.0,-40.0,-911.0,418.0
12.0,-234.0,64.0,3.0,26.0,0.0,-36.0,-907.0,415.0
10.0,-234.0,65.0,-4.0,27.0,-3.0,-36.0,-907.0,421.0
6.0,-231.0,66.0,-9.0,27.0,-3.0,-36.0,-909.0,422.0
12.0,-235.0,66.0,-17.0,28.0,-5.0,-32.0,-906.0,424.0
11.0,-239.0,66.0,-21.0,29.0,-5.0,-39.0,-899.0,420.0
10.0,-236.0,65.0,-25.0,31.0,-4.0,-36.0,-909.0,422.0
9.0,-236.0,67.0,-30.0,32.0,-4.0,-37.0,-909.0,425.0
9.0,-235.0,66.0,-33.0,34.0,-3.0,-36.0,-907.0,424.0
12.0,-235.0,67.0,-34.0,33.0,-4.0,-37.0,-910.0,427.0
7.0,-235.0,68.0,-35.0,32.0,-2.0,-40.0,-911.0,434.0
10.0,-237.0,72.0,-34.0,31.0,-3.0,-36.0,-911.0,430.0
7.0,-235.0,66.0,-34.0,31.0,-4.0,-38.0,-910.0,431.0
9.0,-239.0,71.0,-33.0,29.0,-5.0,-38.0,-912.0,432.0
9.0,-236.0,69.0,-31.0,26.0,-6.0,-37.0,-911.0,432.0
12.0,-239.0,69.0,-28.0,26.0,-7.0,-42.0,-916.0,426.0
10.0,-236.0,67.0,-27.0,25.0,-9.0,-43.0,-914.0,426.0
9.0,-235.0,67.0,-28.0,24.0,-11.0,-37.0,-913.0,429.0
11.0,-236.0,66.0,-29.0,21.0,-12.0,-34.0,-913.0,425.0
12.0,-235.0,65.0,-30.0,21.0,-12.0,-35.0,-912.0,423.0
12.0,-243.0,82.0,-30.0,20.0,-10.0,-35.0,-911.0,421.0
13.0,-238.0,69.0,-33.0,21.0,-11.0,-38.0,-910.0,427.0
11.0,-237.0,67.0,-34.0,19.0,-10.0,-36.0,-911.0,429.0
11.0,-234.0,66.0,-33.0,21.0,-10.0,-34.0,-910.0,427.0
12.0,-235.0,66.0,-34.0,20.0,-9.0,-36.0,-912.0,429.0
10.0,-236.0,66.0,-34.0,21.0,-9.0,-34.0,-911.0,426.0
7.0,-233.0,64.0,-35.0,22.0,-8.0,-32.0,-917.0,424.0
11.0,-237.0,65.0,-35.0,21.0,-7.0,-33.0,-909.0,418.0
10.0,-238.0,65.0,-34.0,20.0,-7.0,-32.0,-911.0,420.0
11.0,-237.0,64.0,-36.0,20.0,-7.0,-37.0,-904.0,424.0
10.0,-234.0,65.0,-38.0,21.0,-7.0,-37.0,-909.0,427.0
10.0,-225.0,54.0,-37.0,22.0,-7.0,-38.0,-907.0,417.0
9.0,-235.0,62.0,-40.0,22.0,-7.0,-36.0,-913.0,423.0
11.0,-236.0,65.0,-40.0,20.0,-6.0,-40.0,-912.0,423.0
7.0,-238.0,66.0,-40.0,18.0,-7.0,-39.0,-908.0,422.0
10.0,-237.0,66.0,-40.0,19.0,-6.0,-37.0,-915.0,427.0
11.0,-236.0,74.0,-38.0,18.0,-4.0,-37.0,-911.0,421.0
10.0,-236.0,65.0,-38.0,17.0,-3.0,-37.0,-916.0,430.0
11.0,-238.0,67.0,-36.0,17.0,-3.0,-38.0,-919.0,425.0
10.0,-238.0,66.0,-35.0,18.0,-4.0,-36.0,-914.0,421.0
10.0,-240.0,65.0,-33.0,17.0,-5.0,-37.0,-915.0,424.0
10.0,-236.0,64.0,-29.0,17.0,-4.0,-36.0,-915.0,421.0
12.0,-238.0,66.0,-27.0,18.0,-6.0,-35.0,-913.0,424.0
10.0,-237.0,66.0,-28.0,18.0,-9.0,-33.0,-909.0,421.0
10.0,-235.0,65.0,-30.0,18.0,-8.0,-33.0,-911.0,420.0
9.0,-233.0,65.0,-33.0,17.0,-9.0,-34.0,-911.0,420.0
10.0,-237.0,66.0,-34.0,16.0,-10.0,-34.0,-909.0,418.0
7.0,-235.0,66.0,-39.0,17.0,-8.0,-36.0,-915.0,421.0
9.0,-235.0,68.0,-39.0,16.0,-9.0,-34.0,-910.0,426.0
10.0,-235.0,67.0,-41.0,16.0,-8.0,-36.0,-913.0,426.0
9.0,-236.0,70.0,-42.0,16.0,-10.0,-37.0,-910.0,427.0
11.0,-236.0,69.0,-43.0,15.0,-10.0,-34.0,-911.0,426.0
11.0,-237.0,67.0,-43.0,18.0,-10.0,-38.0,-913.0,429.0
13.0,-237.0,68.0,-40.0,18.0,-10.0,-37.0,-909.0,432.0
11.0,-235.0,66.0,-39.0,20.0,-10.0,-36.0,-910.0,428.0
11.0,-232.0,67.0,-37.0,20.0,-11.0,-39.0,-911.0,431.0
12.0,-237.0,65.0,-37.0,21.0,-11.0,-37.0,-911.0,429.0
9.0,-237.0,68.0,-36.0,22.0,-12.0,-44.0,-910.0,432.0
10.0,-236.0,69.0,-35.0,21.0,-12.0,-37.0,-910.0,429.0
11.0,-235.0,65.0,-35.0,23.0,-12.0,-38.0,-910.0,431.0
12.0,-237.0,69.0,-36.0,23.0,-11.0,-36.0,-909.0,429.0
9.0,-234.0,65.0,-37.0,24.0,-12.0,-37.0,-912.0,425.0
11.0,-237.0,66.0,-40.0,22.0,-11.0,-37.0,-908.0,424.0
13.0,-236.0,67.0,-40.0,23.0,-12.0,-38.0,-910.0,433.0
11.0,-237.0,67.0,-44.0,21.0,-14.0,-38.0,-898.0,430.0
10.0,-233.0,65.0,-47.0,20.0,-14.0,-40.0,-908.0,431.0
10.0,-235.0,66.0,-52.0,19.0,-13.0,-34.0,-900.0,434.0
14.0,-236.0,66.0,-53.0,16.0,-13.0,-35.0,-904.0,427.0
12.0,-239.0,66.0,-56.0,15.0,-14.0,-32.0,-910.0,426.0
10.0,-240.0,69.0,-55.0,14.0,-13.0,-33.0,-913.0,430.0
14.0,-239.0,65.0,-52.0,13.0,-11.0,-35.0,-912.0,430.0
12.0,-236.0,64.0,-49.0,11.0,-11.0,-34.0,-913.0,427.0
10.0,-239.0,67.0,-47.0,10.0,-9.0,-37.0,-914.0,430.0
10.0,-237.0,66.0,-44.0,11.0,-9.0,-35.0,-912.0,426.0
10.0,-236.0,70.0,-43.0,10.0,-9.0,-33.0,-910.0,429.0
9.0,-236.0,67.0,-41.0,10.0,-9.0,-35.0,-909.0,425.0
10.0,-236.0,68.0,-41.0,11.0,-8.0,-35.0,-909.0,422.0
7.0,-236.0,70.0,-43.0,11.0,-8.0,-36.0,-909.0,421.0
8.0,-233.0,66.0,-45.0,12.0,-8.0,-39.0,-913.0,423.0
10.0,-234.0,67.0,-48.0,13.0,-9.0,-36.0,-903.0,421.0
11.0,-235.0,63.0,-50.0,13.0,-10.0,-35.0,-905.0,419.0
11.0,-238.0,60.0,-51.0,15.0,-10.0,-35.0,-913.0,419.0
11.0,-235.0,65.0,-50.0,18.0,-11.0,-37.0,-913.0,424.0
9.0,-235.0,67.0,-52.0,18.0,-10.0,-40.0,-911.0,428.0
13.0,-237.0,65.0,-50.0,20.0,-10.0,-35.0,-916.0,429.0
10.0,-237.0,68.0,-51.0,21.0,-10.0,-38.0,-914.0,428.0
14.0,-238.0,68.0,-51.0,21.0,-10.0,-35.0,-917.0,431.0
12.0,-236.0,65.0,-48.0,22.0,-10.0,-35.0,-914.0,433.0
9.0,-236.0,68.0,-47.0,22.0,-10.0,-34.0,-911.0,432.0
8.0,-234.0,66.0,-44.0,20.0,-11.0,-35.0,-913.0,432.0
9.0,-239.0,66.0,-40.0,21.0,-12.0,-33.0,-911.0,431.0
11.0,-237.0,65.0,-39.0,18.0,-12.0,-34.0,-913.0,432.0
11.0,-235.0,71.0,-37.0,14.0,-12.0,-34.0,-916.0,425.0
12.0,-236.0,65.0,-35.0,11.0,-12.0,-33.0,-910.0,426.0
13.0,-235.0,66.0,-35.0,9.0,-12.0,-36.0,-913.0,426.0
12.0,-234.0,65.0,-36.0,7.0,-14.0,-34.0,-910.0,422.0
13.0,-238.0,64.0,-36.0,6.0,-12.0,-35.0,-910.0,426.0
9.0,-236.0,66.0,-40.0,5.0,-10.0,-31.0,-909.0,416.0
11.0,-235.0,65.0,-41.0,5.0,-10.0,-36.0,-901.0,422.0
11.0,-237.0,65.0,-42.0,7.0,-10.0,-33.0,-909.0,421.0
11.0,-235.0,66.0,-44.0,7.0,-8.0,-32.0,-908.0,424.0
11.0,-235.0,64.0,-45.0,8.0,-9.0,-34.0,-903.0,419.0
14.0,-234.0,63.0,-46.0,8.0,-9.0,-35.0,-911.0,420.0
12.0,-237.0,65.0,-48.0,11.0,-10.0,-37.0,-910.0,424.0
9.0,-234.0,62.0,-50.0,13.0,-10.0,-34.0,-910.0,423.0
11.0,-235.0,66.0,-49.0,12.0,-10.0,-36.0,-909.0,417.0
7.0,-236.0,66.0,-47.0,14.0,-10.0,-34.0,-915.0,426.0
12.0,-238.0,64.0,-46.0,16.0,-11.0,-31.0,-911.0,430.0
13.0,-236.0,66.0,-44.0,14.0,-12.0,-36.0,-910.0,426.0
12.0,-235.0,66.0,-44.0,16.0,-11.0,-35.0,-912.0,429.0
10.0,-236.0,67.0,-44.0,15.0,-13.0,-35.0,-910.0,425.0
10.0,-236.0,67.0,-43.0,15.0,-12.0,-34.0,-914.0,426.0
9.0,-237.0,66.0,-41.0,14.0,-12.0,-37.0,-914.0,427.0
13.0,-238.0,67.0,-40.0,14.0,-12.0,-35.0,-909.0,433.0
9.0,-236.0,64.0,-37.0,14.0,-11.0,-39.0,-908.0,431.0
10.0,-238.0,68.0,-37.0,14.0,-10.0,-36.0,-915.0,424.0
11.0,-238.0,68.0,-35.0,16.0,-11.0,-35.0,-909.0,428.0
9.0,-237.0,64.0,-35.0,16.0,-12.0,-31.0,-915.0,433.0
12.0,-235.0,66.0,-31.0,16.0,-11.0,-34.0,-912.0,429.0
9.0,-236.0,66.0,-30.0,17.0,-11.0,-33.0,-909.0,432.0
9.0,-234.0,68.0,-31.0,17.0,-10.0,-30.0,-917.0,429.0
13.0,-239.0,66.0,-27.0,17.0,-10.0,-36.0,-908.0,432.0
9.0,-236.0,70.0,-27.0,16.0,-10.0,-31.0,-911.0,432.0
9.0,-237.0,67.0,-28.0,16.0,-9.0,-34.0,-909.0,427.0
15.0,-237.0,62.0,-26.0,14.0,-10.0,-35.0,-909.0,428.0
12.0,-236.0,67.0,-28.0,13.0,-12.0,-34.0,-909.0,427.0
14.0,-237.0,71.0,-28.0,13.0,-14.0,-32.0,-908.0,430.0
12.0,-234.0,64.0,-29.0,12.0,-13.0,-31.0,-905.0,428.0
11.0,-236.0,66.0,-31.0,11.0,-12.0,-34.0,-906.0,425.0
18.0,-243.0,72.0,-33.0,11.0,-12.0,-34.0,-910.0,429.0
11.0,-236.0,65.0,-35.0,11.0,-11.0,-34.0,-912.0,426.0
9.0,-241.0,68.0,-36.0,10.0,-12.0,-34.0,-916.0,432.0
12.0,-238.0,70.0,-35.0,11.0,-10.0,-29.0,-915.0,433.0
12.0,-237.0,66.0,-32.0,12.0,-10.0,-32.0,-912.0,432.0
10.0,-235.0,71.0,-29.0,13.0,-10.0,-33.0,-911.0,435.0
14.0,-237.0,68.0,-26.0,12.0,-9.0,-36.0,-915.0,429.0
14.0,-236.0,68.0,-23.0,13.0,-8.0,-33.0,-909.0,430.0
11.0,-238.0,64.0,-21.0,13.0,-8.0,-35.0,-912.0,428.0
14.0,-236.0,66.0,-19.0,11.0,-7.0,-30.0,-912.0,429.0
11.0,-233.0,66.0,-18.0,12.0,-8.0,-33.0,-905.0,426.0
20.0,-226.0,59.0,-21.0,10.0,-9.0,-30.0,-907.0,425.0
14.0,-239.0,67.0,-23.0,9.0,-11.0,-30.0,-911.0,425.0
11.0,-233.0,65.0,-25.0,10.0,-11.0,-35.0,-909.0,424.0
12.0,-238.0,68.0,-26.0,10.0,-11.0,-30.0,-904.0,423.0
16.0,-238.0,66.0,-27.0,13.0,-9.0,-34.0,-911.0,427.0
11.0,-238.0,69.0,-25.0,13.0,-9.0,-33.0,-905.0,431.0
13.0,-235.0,66.0,-25.0,12.0,-9.0,-33.0,-909.0,424.0
13.0,-236.0,66.0,-25.0,12.0,-9.0,-38.0,-904.0,435.0
11.0,-236.0,69.0,-25.0,11.0,-10.0,-36.0,-913.0,431.0
12.0,-235.0,71.0,-25.0,13.0,-10.0,-35.0,-910.0,433.0
10.0,-236.0,70.0,-27.0,13.0,-10.0,-35.0,-910.0,432.0
8.0,-235.0,68.0,-28.0,13.0,-11.0,-30.0,-908.0,435.0
10.0,-236.0,66.0,-27.0,13.0,-11.0,-34.0,-909.0,433.0
12.0,-238.0,69.0,-28.0,13.0,-12.0,-34.0,-910.0,435.0
10.0,-238.0,68.0,-27.0,14.0,-11.0,-30.0,-907.0,434.0
13.0,-235.0,68.0,-27.0,14.0,-11.0,-30.0,-908.0,438.0
11.0,-237.0,68.0,-25.0,14.0,-12.0,-33.0,-911.0,439.0
9.0,-234.0,70.0,-25.0,14.0,-11.0,-31.0,-910.0,431.0
13.0,-236.0,68.0,-24.0,14.0,-10.0,-32.0,-913.0,431.0
10.0,-235.0,66.0,-22.0,13.0,-10.0,-35.0,-910.0,432.0
10.0,-235.0,70.0,-22.0,13.0,-11.0,-29.0,-910.0,438.0
12.0,-235.0,67.0,-22.0,14.0,-10.0,-31.0,-912.0,425.0
13.0,-234.0,68.0,-20.0,14.0,-9.0,-31.0,-907.0,426.0
11.0,-234.0,67.0,-21.0,13.0,-9.0,-34.0,-906.0,432.0
10.0,-233.0,71.0,-22.0,13.0,-10.0,-32.0,-900.0,428.0
11.0,-235.0,65.0,-21.0,13.0,-9.0,-29.0,-909.0,425.0
14.0,-237.0,71.0,-20.0,14.0,-10.0,-35.0,-904.0,426.0
11.0,-237.0,74.0,-23.0,13.0,-10.0,-31.0,-911.0,429.0
9.0,-233.0,69.0,-24.0,14.0,-10.0,-33.0,-908.0,428.0
11.0,-235.0,64.0,-26.0,15.0,-11.0,-34.0,-910.0,427.0
12.0,-237.0,67.0,-25.0,15.0,-10.0,-35.0,-909.0,434.0
13.0,-235.0,67.0,-26.0,15.0,-11.0,-34.0,-905.0,426.0
10.0,-234.0,68.0,-27.0,14.0,-11.0,-31.0,-907.0,427.0
8.0,-235.0,70.0,-25.0,14.0,-10.0,-33.0,-906.0,433.0
14.0,-235.0,70.0,-27.0,14.0,-8.0,-37.0,-906.0,432.0
9.0,-237.0,67.0,-25.0,14.0,-10.0,-30.0,-908.0,428.0
14.0,-239.0,68.0,-24.0,15.0,-10.0,-34.0,-912.0,435.0
10.0,-234.0,66.0,-22.0,14.0,-10.0,-30.0,-911.0,434.0
12.0,-235.0,72.0,-22.0,15.0,-10.0,-33.0,-913.0,435.0
10.0,-235.0,68.0,-19.0,15.0,-11.0,-33.0,-907.0,436.0
11.0,-234.0,69.0,-18.0,14.0,-11.0,-30.0,-909.0,435.0
14.0,-233.0,68.0,-17.0,16.0,-10.0,-30.0,-909.0,432.0
9.0,-234.0,67.0,-17.0,16.0,-10.0,-31.0,-908.0,432.0
14.0,-234.0,70.0,-17.0,16.0,-9.0,-32.0,-909.0,434.0
11.0,-238.0,69.0,-18.0,14.0,-10.0,-33.0,-908.0,436.0
11.0,-237.0,67.0,-22.0,14.0,-12.0,-27.0,-903.0,438.0
11.0,-233.0,67.0,-22.0,14.0,-10.0,-32.0,-912.0,432.0
14.0,-236.0,66.0,-21.0,13.0,-11.0,-32.0,-908.0,437.0
12.0,-235.0,69.0,-23.0,11.0,-11.0,-29.0,-909.0,432.0
14.0,-236.0,68.0,-22.0,13.0,-11.0,-35.0,-901.0,438.0
13.0,-237.0,72.0,-24.0,12.0,-9.0,-30.0,-905.0,437.0
11.0,-238.0,68.0,-24.0,11.0,-10.0,-32.0,-903.0,440.0
12.0,-231.0,68.0,-26.0,11.0,-10.0,-33.0,-902.0,431.0
15.0,-236.0,67.0,-27.0,10.0,-9.0,-30.0,-906.0,442.0
14.0,-238.0,69.0,-27.0,10.0,-9.0,-27.0,-898.0,439.0
14.0,-235.0,71.0,-25.0,9.0,-9.0,-31.0,-906.0,439.0
11.0,-232.0,67.0,-25.0,9.0,-9.0,-33.0,-908.0,435.0
11.0,-235.0,66.0,-25.0,11.0,-9.0,-31.0,-906.0,440.0
13.0,-237.0,72.0,-21.0,12.0,-8.0,-30.0,-905.0,439.0
11.0,-237.0,68.0,-23.0,12.0,-9.0,-31.0,-908.0,438.0
14.0,-236.0,68.0,-23.0,12.0,-8.0,-30.0,-908.0,440.0
12.0,-235.0,69.0,-22.0,11.0,-8.0,-30.0,-902.0,436.0
11.0,-239.0,67.0,-22.0,11.0,-9.0,-31.0,-899.0,436.0
13.0,-234.0,70.0,-22.0,10.0,-10.0,-33.0,-906.0,439.0
13.0,-234.0,74.0,-22.0,9.0,-10.0,-31.0,-898.0,438.0
16.0,-232.0,71.0,-24.0,8.0,-12.0,-31.0,-907.0,439.0
13.0,-234.0,68.0,-25.0,7.0,-12.0,-28.0,-903.0,437.0
15.0,-238.0,73.0,-28.0,6.0,-12.0,-29.0,-908.0,439.0
11.0,-236.0,70.0,-30.0,7.0,-11.0,-31.0,-904.0,440.0
12.0,-236.0,69.0,-30.0,8.0,-11.0,-29.0,-909.0,442.0
12.0,-235.0,71.0,-27.0,9.0,-11.0,-31.0,-911.0,442.0
14.0,-235.0,71.0,-26.0,11.0,-10.0,-27.0,-910.0,441.0
12.0,-237.0,73.0,-23.0,13.0,-9.0,-30.0,-909.0,440.0
15.0,-239.0,73.0,-20.0,13.0,-9.0,-29.0,-907.0,443.0
13.0,-235.0,69.0,-17.0,13.0,-9.0,-28.0,-904.0,444.0
10.0,-234.0,71.0,-16.0,12.0,-7.0,-28.0,-900.0,439.0
13.0,-236.0,66.0,-17.0,11.0,-8.0,-34.0,-901.0,436.0
11.0,-238.0,68.0,-17.0,11.0,-7.0,-31.0,-901.0,432.0
15.0,-236.0,67.0,-20.0,10.0,-9.0,-32.0,-905.0,435.0
11.0,-234.0,74.0,-23.0,9.0,-9.0,-31.0,-897.0,439.0
15.0,-235.0,70.0,-26.0,9.0,-9.0,-29.0,-891.0,440.0
13.0,-233.0,73.0,-30.0,9.0,-11.0,-30.0,-891.0,440.0
12.0,-232.0,71.0,-29.0,12.0,-12.0,-33.0,-898.0,437.0
13.0,-234.0,69.0,-29.0,15.0,-13.0,-34.0,-908.0,440.0
13.0,-234.0,70.0,-29.0,17.0,-11.0,-32.0,-898.0,446.0
11.0,-236.0,69.0,-28.0,19.0,-13.0,-34.0,-901.0,439.0
14.0,-235.0,71.0,-25.0,18.0,-11.0,-31.0,-908.0,446.0
14.0,-240.0,73.0,-22.0,21.0,-12.0,-31.0,-908.0,443.0
13.0,-235.0,73.0,-18.0,21.0,-12.0,-33.0,-910.0,441.0
14.0,-235.0,71.0,-15.0,20.0,-13.0,-29.0,-906.0,444.0
10.0,-237.0,74.0,-12.0,19.0,-13.0,-29.0,-902.0,441.0
12.0,-236.0,69.0,-8.0,20.0,-13.0,-29.0,-902.0,444.0
13.0,-235.0,69.0,-6.0,18.0,-12.0,-29.0,-907.0,441.0
13.0,-235.0,71.0,-5.0,16.0,-12.0,-28.0,-902.0,442.0
14.0,-235.0,71.0,-3.0,13.0,-13.0,-24.0,-910.0,442.0
14.0,-232.0,69.0,-3.0,12.0,-11.0,-30.0,-901.0,443.0
13.0,-235.0,70.0,-3.0,11.0,-12.0,-27.0,-898.0,439.0
12.0,-235.0,68.0,-6.0,10.0,-12.0,-25.0,-896.0,436.0
17.0,-221.0,58.0,-7.0,9.0,-11.0,-29.0,-898.0,439.0
13.0,-235.0,69.0,-11.0,9.0,-10.0,-29.0,-907.0,442.0
11.0,-231.0,70.0,-14.0,10.0,-12.0,-25.0,-903.0,437.0
14.0,-237.0,74.0,-14.0,10.0,-13.0,-25.0,-899.0,441.0
12.0,-234.0,70.0,-15.0,11.0,-12.0,-26.0,-903.0,441.0
13.0,-235.0,71.0,-17.0,10.0,-12.0,-29.0,-896.0,442.0
13.0,-237.0,69.0,-17.0,11.0,-12.0,-29.0,-908.0,443.0
12.0,-232.0,68.0,-15.0,11.0,-12.0,-27.0,-907.0,443.0
13.0,-232.0,73.0,-15.0,11.0,-11.0,-28.0,-894.0,440.0
12.0,-232.0,72.0,-15.0,11.0,-12.0,-36.0,-897.0,444.0
11.0,-232.0,69.0,-15.0,12.0,-13.0,-30.0,-897.0,438.0
11.0,-239.0,77.0,-15.0,13.0,-11.0,-33.0,-898.0,445.0
10.0,-232.0,70.0,-16.0,12.0,-12.0,-32.0,-904.0,442.0
11.0,-233.0,70.0,-16.0,12.0,-13.0,-33.0,-892.0,446.0
11.0,-233.0,69.0,-15.0,13.0,-12.0,-34.0,-910.0,442.0
8.0,-232.0,71.0,-16.0,13.0,-12.0,-30.0,-898.0,448.0
13.0,-234.0,70.0,-16.0,12.0,-13.0,-30.0,-900.0,446.0
12.0,-235.0,72.0,-17.0,14.0,-13.0,-33.0,-898.0,446.0
9.0,-233.0,71.0,-17.0,16.0,-13.0,-27.0,-895.0,443.0
14.0,-234.0,73.0,-16.0,18.0,-13.0,-31.0,-905.0,447.0
14.0,-234.0,70.0,-16.0,19.0,-13.0,-31.0,-897.0,445.0
14.0,-235.0,73.0,-16.0,19.0,-12.0,-33.0,-902.0,449.0
14.0,-237.0,70.0,-14.0,18.0,-12.0,-28.0,-903.0,448.0
13.0,-233.0,75.0,-12.0,18.0,-12.0,-28.0,-903.0,448.0
13.0,-233.0,73.0,-12.0,17.0,-12.0,-30.0,-899.0,449.0
13.0,-234.0,73.0,-9.0,17.0,-12.0,-27.0,-904.0,446.0
12.0,-232.0,71.0,-9.0,16.0,-12.0,-31.0,-903.0,448.0
15.0,-233.0,69.0,-12.0,15.0,-12.0,-27.0,-900.0,448.0
16.0,-235.0,73.0,-14.0,13.0,-14.0,-25.0,-891.0,447.0
12.0,-234.0,72.0,-16.0,12.0,-14.0,-27.0,-894.0,445.0
13.0,-233.0,72.0,-18.0,12.0,-14.0,-29.0,-901.0,447.0
15.0,-231.0,71.0,-22.0,12.0,-15.0,-30.0,-892.0,450.0
13.0,-234.0,70.0,-26.0,12.0,-15.0,-33.0,-894.0,444.0
13.0,-234.0,71.0,-26.0,13.0,-14.0,-26.0,-904.0,449.0
13.0,-231.0,76.0,-29.0,13.0,-13.0,-22.0,-891.0,451.0
11.0,-235.0,73.0,-28.0,13.0,-13.0,-28.0,-901.0,449.0
17.0,-236.0,72.0,-29.0,14.0,-12.0,-25.0,-897.0,453.0
15.0,-234.0,73.0,-29.0,12.0,-11.0,-26.0,-900.0,449.0
12.0,-234.0,71.0,-27.0,12.0,-10.0,-29.0,-898.0,443.0
14.0,-235.0,69.0,-28.0,12.0,-10.0,-32.0,-905.0,449.0
15.0,-233.0,74.0,-29.0,12.0,-11.0,-28.0,-902.0,443.0
14.0,-235.0,71.0,-29.0,10.0,-11.0,-30.0,-906.0,447.0
12.0,-233.0,72.0,-29.0,10.0,-12.0,-29.0,-894.0,444.0
14.0,-235.0,74.0,-29.0,11.0,-11.0,-27.0,-902.0,444.0
13.0,-233.0,72.0,-30.0,10.0,-11.0,-27.0,-890.0,444.0
12.0,-233.0,73.0,-31.0,11.0,-12.0,-30.0,-894.0,446.0
14.0,-234.0,73.0,-30.0,11.0,-13.0,-28.0,-887.0,450.0
10.0,-233.0,74.0,-32.0,11.0,-13.0,-27.0,-898.0,447.0
12.0,-234.0,72.0,-32.0,13.0,-13.0,-29.0,-893.0,447.0
12.0,-235.0,69.0,-31.0,13.0,-12.0,-29.0,-896.0,449.0
12.0,-235.0,74.0,-32.0,13.0,-13.0,-29.0,-894.0,450.0
11.0,-232.0,73.0,-32.0,12.0,-13.0,-26.0,-890.0,450.0
14.0,-236.0,74.0,-32.0,13.0,-14.0,-21.0,-903.0,451.0
13.0,-235.0,73.0,-33.0,13.0,-13.0,-27.0,-901.0,448.0
15.0,-237.0,74.0,-33.0,11.0,-13.0,-28.0,-896.0,454.0
15.0,-235.0,76.0,-32.0,11.0,-12.0,-25.0,-902.0,451.0
13.0,-233.0,72.0,-29.0,11.0,-13.0,-30.0,-903.0,451.0
15.0,-233.0,75.0,-27.0,10.0,-11.0,-24.0,-892.0,454.0
13.0,-233.0,75.0,-24.0,10.0,-13.0,-24.0,-907.0,451.0
13.0,-236.0,73.0,-23.0,11.0,-13.0,-30.0,-901.0,450.0
12.0,-231.0,73.0,-25.0,12.0,-12.0,-31.0,-892.0,453.0
15.0,-232.0,72.0,-24.0,12.0,-11.0,-29.0,-889.0,449.0
13.0,-233.0,78.0,-25.0,11.0,-11.0,-28.0,-897.0,451.0
12.0,-231.0,75.0,-27.0,11.0,-12.0,-27.0,-898.0,449.0
13.0,-234.0,72.0,-28.0,12.0,-11.0,-16.0,-887.0,453.0
13.0,-232.0,72.0,-29.0,12.0,-10.0,-23.0,-887.0,448.0
13.0,-234.0,74.0,-31.0,12.0,-10.0,-28.0,-895.0,453.0
13.0,-232.0,75.0,-31.0,12.0,-10.0,-24.0,-890.0,450.0
14.0,-232.0,74.0,-34.0,12.0,-12.0,-26.0,-893.0,452.0
13.0,-231.0,73.0,-34.0,12.0,-10.0,-26.0,-893.0,448.0
11.0,-228.0,71.0,-37.0,14.0,-10.0,-26.0,-887.0,452.0
14.0,-230.0,74.0,-39.0,14.0,-9.0,-30.0,-890.0,455.0
13.0,-232.0,71.0,-41.0,13.0,-10.0,-27.0,-888.0,453.0
12.0,-232.0,73.0,-45.0,11.0,-10.0,-27.0,-888.0,454.0
13.0,-232.0,75.0,-46.0,11.0,-10.0,-29.0,-899.0,456.0
13.0,-233.0,74.0,-50.0,10.0,-9.0,-28.0,-890.0,457.0
13.0,-232.0,75.0,-54.0,10.0,-10.0,-30.0,-890.0,452.0
15.0,-234.0,71.0,-55.0,12.0,-10.0,-29.0,-889.0,450.0
13.0,-234.0,69.0,-58.0,12.0,-10.0,-28.0,-898.0,453.0
13.0,-234.0,74.0,-60.0,16.0,-10.0,-24.0,-897.0,448.0
13.0,-230.0,71.0,-59.0,17.0,-11.0,-26.0,-893.0,447.0
12.0,-231.0,70.0,-59.0,20.0,-11.0,-30.0,-894.0,449.0
13.0,-234.0,74.0,-55.0,21.0,-10.0,-25.0,-893.0,446.0
14.0,-235.0,74.0,-50.0,21.0,-10.0,-21.0,-898.0,450.0
16.0,-234.0,72.0,-46.0,23.0,-9.0,-27.0,-902.0,446.0
16.0,-235.0,74.0,-44.0,24.0,-9.0,-19.0,-901.0,446.0
14.0,-233.0,70.0,-38.0,23.0,-8.0,-25.0,-902.0,452.0
14.0,-233.0,69.0,-36.0,22.0,-7.0,-20.0,-891.0,447.0
18.0,-233.0,75.0,-36.0,21.0,-6.0,-20.0,-891.0,450.0
14.0,-232.0,70.0,-37.0,21.0,-5.0,-22.0,-890.0,452.0
12.0,-232.0,70.0,-36.0,17.0,-6.0,-20.0,-891.0,449.0
14.0,-232.0,72.0,-37.0,17.0,-5.0,-22.0,-887.0,451.0
16.0,-233.0,73.0,-40.0,16.0,-5.0,-21.0,-888.0,453.0
15.0,-233.0,74.0,-40.0,14.0,-5.0,-21.0,-891.0,459.0
14.0,-233.0,70.0,-41.0,13.0,-5.0,-23.0,-888.0,455.0
12.0,-235.0,69.0,-40.0,11.0,-5.0,-26.0,-887.0,457.0
15.0,-231.0,76.0,-43.0,10.0,-6.0,-24.0,-890.0,459.0
15.0,-233.0,72.0,-42.0,9.0,-6.0,-20.0,-888.0,457.0
15.0,-233.0,75.0,-43.0,10.0,-6.0,-31.0,-900.0,452.0
13.0,-234.0,75.0,-45.0,10.0,-6.0,-25.0,-898.0,457.0
15.0,-233.0,71.0,-49.0,10.0,-5.0,-27.0,-897.0,462.0
12.0,-234.0,74.0,-50.0,9.0,-4.0,-22.0,-897.0,455.0
15.0,-235.0,72.0,-53.0,10.0,-5.0,-24.0,-894.0,456.0
16.0,-233.0,73.0,-54.0,12.0,-5.0,-26.0,-899.0,450.0
13.0,-235.0,71.0,-55.0,14.0,-6.0,-27.0,-896.0,458.0
15.0,-235.0,74.0,-57.0,15.0,-7.0,-26.0,-889.0,451.0
14.0,-233.0,73.0,-55.0,17.0,-7.0,-27.0,-896.0,452.0
15.0,-233.0,73.0,-54.0,17.0,-8.0,-13.0,-898.0,448.0
13.0,-231.0,72.0,-54.0,19.0,-8.0,-25.0,-888.0,450.0
14.0,-233.0,71.0,-55.0,19.0,-7.0,-24.0,-888.0,448.0
14.0,-230.0,73.0,-53.0,18.0,-7.0,-26.0,-889.0,446.0
12.0,-231.0,74.0,-52.0,18.0,-4.0,-21.0,-897.0,449.0
9.0,-231.0,76.0,-52.0,18.0,-5.0,-31.0,-892.0,446.0
14.0,-234.0,72.0,-52.0,16.0,-3.0,-26.0,-901.0,451.0
14.0,-234.0,76.0,-52.0,16.0,-2.0,-25.0,-906.0,451.0
13.0,-231.0,74.0,-49.0,15.0,0.0,-26.0,-900.0,453.0
15.0,-235.0,70.0,-45.0,14.0,2.0,-24.0,-904.0,455.0
14.0,-233.0,71.0,-40.0,13.0,2.0,-25.0,-900.0,453.0
16.0,-234.0,72.0,-36.0,11.0,4.0,-24.0,-905.0,452.0
15.0,-234.0,71.0,-34.0,9.0,4.0,-23.0,-905.0,453.0
24.0,-224.0,65.0,-33.0,8.0,4.0,-25.0,-888.0,449.0
17.0,-235.0,69.0,-33.0,8.0,4.0,-22.0,-897.0,454.0
15.0,-234.0,69.0,-32.0,7.0,5.0,-22.0,-895.0,447.0
16.0,-231.0,70.0,-35.0,9.0,4.0,-23.0,-886.0,443.0
13.0,-232.0,69.0,-37.0,8.0,2.0,-17.0,-885.0,444.0
12.0,-231.0,73.0,-39.0,9.0,2.0,-22.0,-886.0,443.0
14.0,-232.0,70.0,-43.0,13.0,3.0,-25.0,-889.0,445.0
15.0,-233.0,70.0,-46.0,16.0,2.0,-23.0,-888.0,451.0
16.0,-231.0,70.0,-48.0,18.0,0.0,-26.0,-891.0,445.0
15.0,-231.0,73.0,-52.0,19.0,0.0,-21.0,-882.0,452.0
14.0,-230.0,70.0,-54.0,22.0,-2.0,-28.0,-888.0,450.0
14.0,-230.0,75.0,-57.0,23.0,-3.0,-31.0,-889.0,455.0
13.0,-233.0,73.0,-59.0,22.0,-2.0,-27.0,-889.0,448.0
17.0,-235.0,73.0,-58.0,23.0,-2.0,-29.0,-897.0,455.0
12.0,-235.0,72.0,-59.0,21.0,-3.0,-28.0,-903.0,450.0
9.0,-230.0,74.0,-59.0,21.0,-2.0,-27.0,-891.0,454.0
14.0,-231.0,72.0,-56.0,20.0,-2.0,-27.0,-893.0,450.0
14.0,-232.0,73.0,-54.0,19.0,-4.0,-24.0,-898.0,454.0
15.0,-233.0,73.0,-53.0,18.0,-3.0,-29.0,-902.0,456.0
11.0,-233.0,75.0,-50.0,17.0,-3.0,-31.0,-902.0,447.0
11.0,-232.0,73.0,-47.0,16.0,-1.0,-31.0,-890.0,447.0
11.0,-235.0,71.0,-45.0,16.0,-1.0,-29.0,-893.0,447.0
13.0,-233.0,75.0,-45.0,16.0,0.0,-25.0,-901.0,449.0
12.0,-232.0,71.0,-43.0,15.0,-1.0,-26.0,-888.0,446.0
13.0,-234.0,74.0,-46.0,15.0,0.0,-26.0,-894.0,448.0
12.0,-233.0,76.0,-47.0,16.0,1.0,-25.0,-888.0,447.0
13.0,-231.0,75.0,-48.0,16.0,1.0,-27.0,-898.0,451.0
13.0,-233.0,68.0,-50.0,18.0,0.0,-29.0,-887.0,440.0
11.0,-233.0,75.0,-50.0,19.0,-1.0,-26.0,-892.0,454.0
14.0,-233.0,72.0,-51.0,20.0,1.0,-26.0,-897.0,450.0
16.0,-234.0,74.0,-51.0,19.0,1.0,-27.0,-890.0,447.0
14.0,-232.0,74.0,-53.0,20.0,0.0,-28.0,-891.0,451.0
16.0,-234.0,71.0,-54.0,19.0,-1.0,-28.0,-887.0,452.0
16.0,-233.0,73.0,-54.0,19.0,-1.0,-21.0,-887.0,448.0
15.0,-233.0,74.0,-55.0,19.0,-1.0,-28.0,-888.0,450.0
14.0,-233.0,73.0,-56.0,19.0,-1.0,-26.0,-891.0,453.0
14.0,-234.0,72.0,-58.0,18.0,-1.0,-26.0,-899.0,455.0
13.0,-231.0,73.0,-60.0,20.0,-1.0,-25.0,-893.0,453.0
13.0,-231.0,70.0,-62.0,20.0,-2.0,-29.0,-889.0,451.0
15.0,-233.0,70.0,-64.0,20.0,-1.0,-24.0,-887.0,455.0
12.0,-229.0,77.0,-63.0,21.0,-2.0,-26.0,-888.0,451.0
15.0,-234.0,71.0,-66.0,21.0,0.0,-29.0,-900.0,454.0
14.0,-235.0,69.0,-66.0,21.0,0.0,-25.0,-892.0,450.0
13.0,-232.0,77.0,-67.0,21.0,-1.0,-27.0,-891.0,451.0
15.0,-232.0,75.0,-68.0,20.0,-1.0,-28.0,-890.0,451.0
12.0,-233.0,73.0,-68.0,19.0,0.0,-25.0,-892.0,446.0
12.0,-231.0,73.0,-69.0,19.0,-1.0,-30.0,-890.0,448.0
13.0,-232.0,69.0,-71.0,18.0,1.0,-30.0,-891.0,448.0
16.0,-237.0,71.0,-73.0,18.0,1.0,-24.0,-899.0,455.0
12.0,-232.0,75.0,-75.0,18.0,-1.0,-28.0,-889.0,442.0
12.0,-232.0,71.0,-75.0,19.0,2.0,-22.0,-896.0,451.0
13.0,-232.0,72.0,-79.0,19.0,3.0,-29.0,-894.0,446.0
13.0,-231.0,70.0,-79.0,18.0,1.0,-27.0,-888.0,448.0
14.0,-234.0,73.0,-80.0,17.0,2.0,-28.0,-897.0,450.0
12.0,-235.0,70.0,-80.0,16.0,2.0,-27.0,-897.0,446.0
12.0,-234.0,69.0,-80.0,15.0,3.0,-27.0,-895.0,444.0
13.0,-234.0,77.0,-79.0,15.0,4.0,-27.0,-903.0,442.0
15.0,-236.0,75.0,-79.0,12.0,3.0,-25.0,-902.0,448.0
14.0,-235.0,71.0,-79.0,12.0,5.0,-29.0,-906.0,447.0
15.0,-236.0,70.0,-78.0,13.0,4.0,-30.0,-897.0,445.0
15.0,-236.0,71.0,-76.0,12.0,5.0,-29.0,-894.0,445.0
15.0,-233.0,69.0,-73.0,12.0,5.0,-26.0,-897.0,442.0
13.0,-232.0,72.0,-70.0,12.0,6.0,-26.0,-899.0,449.0
11.0,-232.0,68.0,-67.0,11.0,5.0,-26.0,-899.0,444.0
14.0,-233.0,73.0,-67.0,10.0,5.0,-32.0,-901.0,447.0
13.0,-233.0,70.0,-67.0,10.0,4.0,-28.0,-887.0,447.0
12.0,-232.0,76.0,-70.0,11.0,3.0,-23.0,-891.0,443.0
17.0,-237.0,70.0,-74.0,10.0,2.0,-24.0,-891.0,444.0
16.0,-231.0,73.0,-79.0,12.0,3.0,-22.0,-889.0,444.0
12.0,-231.0,70.0,-83.0,13.0,2.0,-28.0,-886.0,443.0
12.0,-231.0,72.0,-89.0,13.0,1.0,-26.0,-890.0,448.0
10.0,-232.0,73.0,-92.0,13.0,4.0,-24.0,-885.0,441.0
14.0,-229.0,72.0,-97.0,14.0,2.0,-27.0,-884.0,450.0
13.0,-232.0,71.0,-100.0,16.0,2.0,-30.0,-888.0,448.0
12.0,-232.0,74.0,-101.0,16.0,3.0,-27.0,-891.0,445.0
12.0,-235.0,70.0,-104.0,18.0,3.0,-28.0,-890.0,447.0
13.0,-233.0,69.0,-102.0,19.0,2.0,-33.0,-892.0,446.0
13.0,-233.0,73.0,-100.0,20.0,3.0,-30.0,-898.0,445.0
16.0,-235.0,71.0,-98.0,20.0,2.0,-27.0,-898.0,449.0
11.0,-234.0,74.0,-97.0,19.0,1.0,-28.0,-906.0,449.0
13.0,-236.0,68.0,-93.0,19.0,0.0,-27.0,-903.0,447.0
14.0,-234.0,76.0,-91.0,17.0,0.0,-31.0,-903.0,444.0
13.0,-233.0,70.0,-89.0,15.0,0.0,-26.0,-900.0,450.0
12.0,-234.0,74.0,-89.0,14.0,0.0,-31.0,-893.0,440.0
16.0,-239.0,66.0,-89.0,13.0,0.0,-26.0,-897.0,443.0
15.0,-232.0,71.0,-90.0,15.0,1.0,-31.0,-897.0,442.0
12.0,-235.0,70.0,-90.0,15.0,2.0,-28.0,-891.0,444.0
17.0,-233.0,73.0,-93.0,18.0,3.0,-26.0,-890.0,439.0
13.0,-232.0,73.0,-95.0,21.0,5.0,-29.0,-903.0,434.0
12.0,-231.0,67.0,-100.0,25.0,6.0,-24.0,-888.0,440.0
13.0,-232.0,67.0,-105.0,29.0,9.0,-22.0,-897.0,438.0
13.0,-234.0,69.0,-106.0,31.0,9.0,-27.0,-892.0,441.0
13.0,-233.0,66.0,-107.0,32.0,8.0,-28.0,-897.0,437.0
11.0,-235.0,67.0,-106.0,33.0,8.0,-28.0,-892.0,444.0
15.0,-230.0,69.0,-106.0,30.0,8.0,-30.0,-894.0,441.0
13.0,-234.0,70.0,-106.0,28.0,8.0,-25.0,-894.0,439.0
14.0,-233.0,68.0,-106.0,25.0,7.0,-30.0,-896.0,437.0
13.0,-234.0,70.0,-105.0,22.0,6.0,-31.0,-895.0,442.0
14.0,-233.0,70.0,-107.0,19.0,7.0,-25.0,-889.0,440.0
12.0,-234.0,72.0,-109.0,18.0,6.0,-32.0,-897.0,439.0
13.0,-233.0,75.0,-110.0,16.0,7.0,-27.0,-895.0,441.0
15.0,-232.0,73.0,-112.0,16.0,6.0,-34.0,-890.0,444.0
11.0,-231.0,69.0,-115.0,17.0,6.0,-31.0,-891.0,441.0
11.0,-235.0,71.0,-115.0,18.0,6.0,-27.0,-890.0,443.0
13.0,-235.0,68.0,-119.0,19.0,6.0,-33.0,-891.0,442.0
12.0,-233.0,67.0,-120.0,21.0,6.0,-29.0,-897.0,441.0
13.0,-234.0,66.0,-122.0,22.0,7.0,-29.0,-899.0,443.0
11.0,-232.0,68.0,-126.0,23.0,8.0,-29.0,-890.0,443.0
17.0,-238.0,83.0,-130.0,24.0,9.0,-27.0,-896.0,439.0
12.0,-231.0,70.0,-131.0,25.0,8.0,-29.0,-902.0,444.0
13.0,-237.0,70.0,-135.0,27.0,7.0,-29.0,-900.0,438.0
13.0,-234.0,67.0,-139.0,28.0,10.0,-24.0,-898.0,439.0
13.0,-233.0,72.0,-141.0,28.0,9.0,-29.0,-900.0,442.0
9.0,-237.0,66.0,-140.0,28.0,10.0,-32.0,-908.0,441.0
14.0,-236.0,69.0,-140.0,27.0,10.0,-30.0,-901.0,438.0
12.0,-234.0,73.0,-141.0,26.0,9.0,-29.0,-902.0,436.0
14.0,-233.0,68.0,-143.0,25.0,9.0,-30.0,-908.0,430.0
11.0,-236.0,65.0,-146.0,25.0,8.0,-35.0,-904.0,436.0
11.0,-236.0,66.0,-147.0,23.0,7.0,-34.0,-905.0,432.0
10.0,-236.0,77.0,-150.0,23.0,7.0,-35.0,-905.0,432.0
12.0,-236.0,67.0,-150.0,24.0,7.0,-30.0,-898.0,432.0
12.0,-234.0,66.0,-152.0,24.0,6.0,-35.0,-905.0,432.0
9.0,-233.0,69.0,-153.0,25.0,6.0,-37.0,-904.0,425.0
7.0,-234.0,67.0,-156.0,26.0,7.0,-37.0,-912.0,423.0
11.0,-236.0,69.0,-156.0,27.0,6.0,-34.0,-906.0,429.0
12.0,-234.0,64.0,-156.0,28.0,6.0,-36.0,-910.0,430.0
11.0,-236.0,64.0,-159.0,30.0,7.0,-39.0,-904.0,421.0
12.0,-233.0,68.0,-161.0,31.0,7.0,-36.0,-904.0,422.0
14.0,-238.0,70.0,-163.0,33.0,7.0,-35.0,-908.0,422.0
11.0,-237.0,67.0,-165.0,34.0,8.0,-32.0,-910.0,421.0
10.0,-235.0,68.0,-168.0,36.0,7.0,-34.0,-907.0,421.0
11.0,-234.0,65.0,-169.0,39.0,8.0,-28.0,-907.0,423.0
12.0,-238.0,67.0,-170.0,41.0,7.0,-32.0,-910.0,421.0
11.0,-238.0,66.0,-170.0,41.0,7.0,-30.0,-906.0,423.0
11.0,-232.0,68.0,-171.0,41.0,7.0,-33.0,-911.0,426.0
13.0,-234.0,64.0,-171.0,41.0,6.0,-32.0,-902.0,421.0
14.0,-236.0,67.0,-170.0,40.0,6.0,-32.0,-910.0,424.0
12.0,-240.0,67.0,-171.0,38.0,4.0,-33.0,-908.0,418.0
9.0,-237.0,69.0,-171.0,36.0,3.0,-29.0,-912.0,419.0
11.0,-237.0,66.0,-174.0,35.0,2.0,-32.0,-911.0,419.0
13.0,-237.0,65.0,-176.0,35.0,2.0,-36.0,-916.0,417.0
14.0,-240.0,63.0,-178.0,36.0,3.0,-28.0,-917.0,417.0
12.0,-239.0,63.0,-181.0,36.0,4.0,-35.0,-916.0,420.0
12.0,-239.0,66.0,-182.0,37.0,4.0,-33.0,-918.0,415.0
9.0,-237.0,63.0,-184.0,37.0,7.0,-33.0,-918.0,414.0
12.0,-236.0,65.0,-185.0,37.0,6.0,-35.0,-912.0,411.0
10.0,-236.0,64.0,-188.0,35.0,6.0,-32.0,-910.0,415.0
11.0,-237.0,64.0,-192.0,36.0,9.0,-33.0,-911.0,409.0
12.0,-237.0,63.0,-196.0,35.0,10.0,-34.0,-910.0,410.0
12.0,-236.0,62.0,-204.0,32.0,11.0,-34.0,-910.0,405.0
11.0,-235.0,60.0,-208.0,29.0,10.0,-33.0,-910.0,406.0
11.0,-235.0,60.0,-215.0,27.0,11.0,-29.0,-912.0,407.0
12.0,-232.0,60.0,-222.0,25.0,10.0,-31.0,-902.0,407.0
12.0,-235.0,61.0,-230.0,27.0,10.0,-33.0,-895.0,402.0
11.0,-234.0,65.0,-237.0,27.0,11.0,-32.0,-903.0,407.0
13.0,-233.0,63.0,-240.0,29.0,9.0,-29.0,-897.0,404.0
15.0,-234.0,59.0,-245.0,31.0,8.0,-30.0,-900.0,409.0
13.0,-235.0,64.0,-247.0,33.0,8.0,-31.0,-900.0,402.0
13.0,-235.0,61.0,-250.0,36.0,4.0,-32.0,-906.0,404.0
13.0,-231.0,64.0,-250.0,37.0,2.0,-29.0,-894.0,403.0
19.0,-234.0,60.0,-254.0,40.0,1.0,-24.0,-896.0,409.0
10.0,-234.0,63.0,-255.0,45.0,2.0,-26.0,-896.0,411.0
17.0,-233.0,63.0,-262.0,47.0,2.0,-26.0,-900.0,410.0
13.0,-231.0,64.0,-269.0,52.0,1.0,-28.0,-891.0,408.0
13.0,-229.0,64.0,-278.0,55.0,3.0,-33.0,-888.0,407.0
13.0,-229.0,64.0,-289.0,56.0,5.0,-31.0,-887.0,407.0
11.0,-234.0,63.0,-300.0,59.0,5.0,-32.0,-880.0,401.0
12.0,-231.0,62.0,-312.0,59.0,8.0,-34.0,-886.0,401.0
13.0,-233.0,62.0,-323.0,61.0,8.0,-37.0,-886.0,402.0
11.0,-229.0,61.0,-336.0,60.0,9.0,-37.0,-889.0,402.0
13.0,-232.0,61.0,-349.0,58.0,10.0,-40.0,-888.0,402.0
11.0,-231.0,57.0,-362.0,55.0,9.0,-37.0,-885.0,397.0
7.0,-230.0,57.0,-375.0,52.0,8.0,-41.0,-885.0,396.0
7.0,-228.0,62.0,-387.0,49.0,10.0,-42.0,-889.0,398.0
7.0,-232.0,60.0,-398.0,46.0,9.0,-45.0,-884.0,403.0
9.0,-231.0,61.0,-409.0,44.0,11.0,-47.0,-888.0,401.0
6.0,-230.0,58.0,-421.0,43.0,9.0,-44.0,-884.0,401.0
9.0,-230.0,60.0,-433.0,41.0,9.0,-41.0,-878.0,397.0
8.0,-232.0,63.0,-444.0,44.0,7.0,-46.0,-873.0,395.0
11.0,-228.0,62.0,-455.0,44.0,8.0,-45.0,-885.0,399.0
10.0,-226.0,59.0,-466.0,47.0,9.0,-37.0,-881.0,394.0
10.0,-229.0,60.0,-476.0,51.0,8.0,-40.0,-877.0,396.0
11.0,-229.0,60.0,-483.0,54.0,8.0,-39.0,-872.0,398.0
10.0,-227.0,63.0,-487.0,59.0,7.0,-35.0,-876.0,394.0
12.0,-227.0,62.0,-490.0,63.0,7.0,-36.0,-876.0,397.0
10.0,-230.0,61.0,-493.0,66.0,5.0,-35.0,-875.0,405.0
12.0,-227.0,63.0,-493.0,69.0,3.0,-31.0,-872.0,403.0
14.0,-229.0,57.0,-493.0,70.0,1.0,-32.0,-873.0,398.0
11.0,-226.0,56.0,-497.0,70.0,0.0,-33.0,-867.0,398.0
14.0,-228.0,59.0,-505.0,71.0,-4.0,-29.0,-869.0,401.0
13.0,-226.0,61.0,-516.0,72.0,-8.0,-32.0,-873.0,396.0
10.0,-227.0,61.0,-525.0,75.0,-11.0,-25.0,-869.0,395.0
13.0,-228.0,59.0,-537.0,81.0,-17.0,-28.0,-876.0,392.0
15.0,-227.0,60.0,-549.0,85.0,-22.0,-24.0,-877.0,395.0
14.0,-227.0,62.0,-563.0,91.0,-28.0,-25.0,-877.0,398.0
12.0,-228.0,59.0,-576.0,97.0,-30.0,-14.0,-878.0,400.0
16.0,-231.0,58.0,-588.0,104.0,-36.0,-15.0,-882.0,406.0
19.0,-236.0,62.0,-589.0,111.0,-40.0,-24.0,-889.0,407.0
16.0,-239.0,62.0,-573.0,120.0,-44.0,-19.0,-907.0,405.0
15.0,-247.0,60.0,-533.0,128.0,-49.0,-27.0,-930.0,399.0
16.0,-255.0,63.0,-468.0,130.0,-52.0,-32.0,-957.0,400.0
12.0,-256.0,64.0,-386.0,128.0,-58.0,-32.0,-969.0,405.0
12.0,-256.0,57.0,-306.0,124.0,-61.0,-32.0,-972.0,403.0
10.0,-247.0,59.0,-246.0,120.0,-61.0,-35.0,-956.0,401.0
8.0,-244.0,56.0,-217.0,116.0,-58.0,-47.0,-940.0,388.0
10.0,-239.0,54.0,-224.0,112.0,-52.0,-43.0,-911.0,384.0
10.0,-231.0,57.0,-263.0,110.0,-41.0,-40.0,-890.0,367.0
10.0,-228.0,51.0,-322.0,112.0,-32.0,-43.0,-873.0,366.0
11.0,-228.0,51.0,-393.0,116.0,-24.0,-45.0,-870.0,363.0
15.0,-224.0,50.0,-471.0,122.0,-15.0,-36.0,-864.0,359.0
10.0,-227.0,52.0,-542.0,132.0,-11.0,-35.0,-876.0,356.0
12.0,-231.0,52.0,-607.0,141.0,-9.0,-32.0,-897.0,354.0
12.0,-232.0,49.0,-671.0,150.0,-6.0,-32.0,-909.0,357.0
10.0,-236.0,55.0,-737.0,155.0,-1.0,-32.0,-921.0,373.0
10.0,-239.0,62.0,-801.0,152.0,-2.0,-36.0,-936.0,380.0
11.0,-245.0,59.0,-859.0,142.0,-10.0,-37.0,-941.0,393.0
7.0,-248.0,61.0,-915.0,127.0,-18.0,-39.0,-956.0,399.0
4.0,-245.0,48.0,-969.0,106.0,-27.0,-50.0,-961.0,391.0
6.0,-257.0,57.0,-1022.0,83.0,-35.0,-44.0,-986.0,394.0
10.0,-261.0,57.0,-1072.0,62.0,-46.0,-38.0,-1005.0,394.0
6.0,-264.0,58.0,-1121.0,47.0,-61.0,-50.0,-1009.0,384.0
8.0,-267.0,55.0,-1173.0,39.0,-74.0,-52.0,-1023.0,372.0
8.0,-271.0,50.0,-1222.0,41.0,-87.0,-49.0,-1035.0,361.0
5.0,-267.0,49.0,-1273.0,46.0,-98.0,-61.0,-1036.0,349.0
3.0,-271.0,45.0,-1324.0,53.0,-107.0,-60.0,-1054.0,340.0
4.0,-272.0,47.0,-1375.0,59.0,-115.0,-58.0,-1062.0,316.0
5.0,-278.0,41.0,-1432.0,71.0,-116.0,-60.0,-1067.0,312.0
6.0,-280.0,36.0,-1484.0,87.0,-114.0,-62.0,-1084.0,301.0
7.0,-283.0,37.0,-1529.0,114.0,-105.0,-54.0,-1098.0,299.0
11.0,-292.0,37.0,-1558.0,148.0,-93.0,-52.0,-1111.0,290.0
6.0,-298.0,29.0,-1579.0,182.0,-79.0,-47.0,-1139.0,275.0
8.0,-302.0,30.0,-1591.0,210.0,-61.0,-46.0,-1161.0,273.0
8.0,-310.0,30.0,-1601.0,229.0,-41.0,-50.0,-1183.0,259.0
3.0,-315.0,25.0,-1607.0,232.0,-18.0,-59.0,-1211.0,249.0
1.0,-318.0,19.0,-1609.0,220.0,7.0,-60.0,-1225.0,230.0
1.0,-326.0,14.0,-1610.0,190.0,35.0,-67.0,-1242.0,217.0
0.0,-331.0,13.0,-1604.0,147.0,67.0,-72.0,-1258.0,208.0
-5.0,-330.0,8.0,-1590.0,95.0,103.0,-85.0,-1276.0,193.0
-4.0,-334.0,5.0,-1566.0,38.0,142.0,-82.0,-1293.0,180.0
0.0,-342.0,1.0,-1530.0,-23.0,182.0,-85.0,-1306.0,160.0
0.0,-344.0,-4.0,-1486.0,-82.0,217.0,-77.0,-1322.0,135.0
3.0,-348.0,-15.0,-1435.0,-134.0,248.0,-64.0,-1337.0,101.0
7.0,-354.0,-19.0,-1374.0,-173.0,273.0,-56.0,-1348.0,73.0
11.0,-353.0,-29.0,-1307.0,-193.0,290.0,-40.0,-1356.0,51.0
14.0,-357.0,-35.0,-1230.0,-197.0,297.0,-31.0,-1357.0,23.0
18.0,-354.0,-44.0,-1147.0,-182.0,289.0,-28.0,-1351.0,1.0
13.0,-347.0,-50.0,-1059.0,-151.0,274.0,-17.0,-1337.0,-24.0
18.0,-344.0,-55.0,-971.0,-115.0,252.0,-21.0,-1315.0,-43.0
16.0,-336.0,-58.0,-881.0,-75.0,221.0,-20.0,-1292.0,-66.0
18.0,-329.0,-63.0,-795.0,-37.0,186.0,-28.0,-1270.0,-85.0
15.0,-325.0,-69.0,-715.0,-2.0,147.0,-25.0,-1232.0,-101.0
16.0,-317.0,-71.0,-645.0,35.0,110.0,-28.0,-1208.0,-112.0
18.0,-311.0,-75.0,-586.0,71.0,71.0,-28.0,-1187.0,-133.0
13.0,-305.0,-70.0,-542.0,106.0,32.0,-28.0,-1161.0,-131.0
11.0,-300.0,-73.0,-510.0,138.0,0.0,-41.0,-1142.0,-125.0
10.0,-297.0,-70.0,-488.0,164.0,-23.0,-56.0,-1128.0,-123.0
3.0,-294.0,-69.0,-475.0,179.0,-40.0,-64.0,-1120.0,-116.0
0.0,-290.0,-68.0,-474.0,182.0,-47.0,-89.0,-1111.0,-109.0
-3.0,-289.0,-63.0,-478.0,176.0,-45.0,-95.0,-1102.0,-93.0
-5.0,-287.0,-61.0,-485.0,164.0,-34.0,-106.0,-1101.0,-75.0
-8.0,-286.0,-53.0,-490.0,144.0,-17.0,-105.0,-1106.0,-65.0
-7.0,-290.0,-56.0,-490.0,123.0,4.0,-110.0,-1108.0,-57.0
-9.0,-294.0,-49.0,-483.0,98.0,24.0,-116.0,-1115.0,-51.0
-10.0,-292.0,-46.0,-469.0,74.0,48.0,-120.0,-1122.0,-33.0
-10.0,-297.0,-49.0,-452.0,50.0,69.0,-116.0,-1137.0,-35.0
-8.0,-300.0,-47.0,-434.0,27.0,87.0,-111.0,-1142.0,-25.0
-4.0,-305.0,-48.0,-408.0,5.0,103.0,-110.0,-1150.0,-21.0
-9.0,-301.0,-47.0,-381.0,-14.0,116.0,-115.0,-1158.0,-13.0
-7.0,-304.0,-46.0,-356.0,-31.0,128.0,-106.0,-1157.0,-11.0
-3.0,-307.0,-39.0,-329.0,-47.0,136.0,-102.0,-1165.0,-7.0
0.0,-306.0,-45.0,-298.0,-61.0,142.0,-94.0,-1160.0,-1.0
-3.0,-304.0,-38.0,-260.0,-68.0,145.0,-92.0,-1159.0,0.0
0.0,-305.0,-39.0,-221.0,-73.0,144.0,-88.0,-1155.0,-3.0
0.0,-301.0,-44.0,-181.0,-71.0,140.0,-77.0,-1150.0,-14.0
0.0,-299.0,-47.0,-143.0,-68.0,134.0,-88.0,-1144.0,-20.0
0.0,-298.0,-51.0,-107.0,-66.0,124.0,-77.0,-1135.0,-32.0
2.0,-298.0,-52.0,-80.0,-64.0,111.0,-81.0,-1135.0,-51.0
-1.0,-293.0,-62.0,-63.0,-62.0,98.0,-83.0,-1127.0,-72.0
1.0,-292.0,-64.0,-58.0,-64.0,85.0,-80.0,-1119.0,-90.0
0.0,-290.0,-70.0,-65.0,-66.0,69.0,-73.0,-1121.0,-112.0
1.0,-291.0,-71.0,-82.0,-70.0,52.0,-73.0,-1114.0,-133.0
3.0,-289.0,-77.0,-110.0,-77.0,30.0,-72.0,-1105.0,-147.0
4.0,-289.0,-83.0,-141.0,-81.0,12.0,-75.0,-1110.0,-163.0
2.0,-292.0,-82.0,-172.0,-83.0,-6.0,-72.0,-1109.0,-167.0
2.0,-290.0,-82.0,-200.0,-82.0,-23.0,-73.0,-1111.0,-165.0
3.0,-290.0,-75.0,-223.0,-81.0,-39.0,-73.0,-1113.0,-166.0
2.0,-292.0,-78.0,-236.0,-76.0,-51.0,-75.0,-1114.0,-154.0
1.0,-291.0,-77.0,-235.0,-71.0,-61.0,-76.0,-1114.0,-142.0
0.0,-290.0,-73.0,-219.0,-64.0,-67.0,-76.0,-1111.0,-127.0
2.0,-291.0,-66.0,-188.0,-54.0,-72.0,-76.0,-1113.0,-112.0
6.0,-293.0,-66.0,-150.0,-44.0,-77.0,-77.0,-1107.0,-96.0
3.0,-290.0,-63.0,-99.0,-37.0,-80.0,-70.0,-1101.0,-92.0
3.0,-287.0,-63.0,-45.0,-34.0,-83.0,-70.0,-1090.0,-84.0
6.0,-287.0,-62.0,11.0,-32.0,-82.0,-66.0,-1088.0,-77.0
6.0,-283.0,-64.0,62.0,-32.0,-81.0,-55.0,-1081.0,-74.0
7.0,-278.0,-65.0,106.0,-35.0,-79.0,-58.0,-1065.0,-73.0
4.0,-276.0,-59.0,145.0,-43.0,-78.0,-51.0,-1063.0,-70.0
7.0,-275.0,-59.0,174.0,-50.0,-78.0,-56.0,-1052.0,-67.0
6.0,-272.0,-56.0,195.0,-60.0,-76.0,-50.0,-1029.0,-64.0
7.0,-266.0,-56.0,210.0,-70.0,-75.0,-44.0,-1020.0,-67.0
5.0,-269.0,-58.0,219.0,-80.0,-72.0,-48.0,-1018.0,-70.0
9.0,-262.0,-60.0,217.0,-91.0,-69.0,-54.0,-1013.0,-73.0
8.0,-266.0,-62.0,210.0,-100.0,-67.0,-53.0,-1006.0,-75.0
7.0,-264.0,-58.0,196.0,-106.0,-67.0,-53.0,-1004.0,-80.0
10.0,-263.0,-58.0,180.0,-109.0,-62.0,-46.0,-1000.0,-77.0
10.0,-260.0,-63.0,167.0,-111.0,-60.0,-41.0,-1000.0,-77.0
10.0,-262.0,-62.0,156.0,-110.0,-58.0,-46.0,-1003.0,-78.0
9.0,-262.0,-62.0,150.0,-108.0,-57.0,-42.0,-999.0,-75.0
12.0,-266.0,-59.0,152.0,-103.0,-58.0,-38.0,-1006.0,-77.0
10.0,-264.0,-60.0,161.0,-98.0,-59.0,-38.0,-1001.0,-73.0
11.0,-262.0,-60.0,176.0,-91.0,-60.0,-47.0,-999.0,-68.0
7.0,-260.0,-59.0,199.0,-88.0,-62.0,-46.0,-991.0,-63.0
5.0,-258.0,-57.0,227.0,-85.0,-64.0,-52.0,-992.0,-62.0
12.0,-259.0,-55.0,258.0,-85.0,-67.0,-48.0,-988.0,-56.0
9.0,-258.0,-54.0,292.0,-86.0,-69.0,-46.0,-985.0,-53.0
7.0,-255.0,-52.0,321.0,-90.0,-74.0,-49.0,-977.0,-50.0
8.0,-256.0,-57.0,347.0,-93.0,-76.0,-54.0,-962.0,-44.0
7.0,-253.0,-48.0,374.0,-97.0,-80.0,-47.0,-958.0,-40.0
6.0,-248.0,-50.0,395.0,-102.0,-82.0,-50.0,-950.0,-36.0
6.0,-247.0,-45.0,414.0,-105.0,-85.0,-45.0,-942.0,-36.0
7.0,-247.0,-51.0,424.0,-108.0,-87.0,-50.0,-934.0,-29.0
8.0,-245.0,-52.0,429.0,-110.0,-90.0,-48.0,-934.0,-35.0
9.0,-243.0,-50.0,425.0,-113.0,-94.0,-46.0,-930.0,-36.0
7.0,-238.0,-49.0,420.0,-116.0,-98.0,-42.0,-921.0,-37.0
7.0,-240.0,-50.0,415.0,-119.0,-99.0,-42.0,-917.0,-25.0
10.0,-237.0,-51.0,411.0,-122.0,-100.0,-39.0,-906.0,-30.0
9.0,-236.0,-52.0,408.0,-125.0,-103.0,-37.0,-893.0,-31.0
12.0,-234.0,-48.0,409.0,-128.0,-105.0,-37.0,-885.0,-28.0
10.0,-232.0,-48.0,413.0,-131.0,-105.0,-36.0,-883.0,-26.0
12.0,-234.0,-49.0,421.0,-134.0,-107.0,-33.0,-872.0,-17.0
11.0,-228.0,-43.0,431.0,-135.0,-108.0,-35.0,-859.0,-15.0
12.0,-226.0,-49.0,444.0,-136.0,-111.0,-37.0,-848.0,-5.0
14.0,-224.0,-42.0,462.0,-139.0,-112.0,-32.0,-838.0,4.0
11.0,-220.0,-37.0,481.0,-143.0,-114.0,-35.0,-823.0,9.0
11.0,-216.0,-43.0,493.0,-149.0,-114.0,-34.0,-820.0,-1.0
20.0,-204.0,-44.0,495.0,-162.0,-108.0,-41.0,-809.0,2.0
10.0,-211.0,-40.0,487.0,-177.0,-95.0,-46.0,-808.0,0.0
9.0,-212.0,-48.0,469.0,-197.0,-85.0,-50.0,-804.0,-2.0
4.0,-211.0,-43.0,442.0,-221.0,-76.0,-52.0,-804.0,-7.0
3.0,-209.0,-39.0,404.0,-241.0,-66.0,-56.0,-804.0,-5.0
5.0,-212.0,-43.0,361.0,-255.0,-59.0,-58.0,-801.0,-1.0
7.0,-213.0,-38.0,322.0,-266.0,-53.0,-56.0,-805.0,0.0
5.0,-211.0,-41.0,290.0,-273.0,-48.0,-60.0,-807.0,15.0
3.0,-211.0,-37.0,269.0,-277.0,-41.0,-63.0,-808.0,9.0
2.0,-217.0,-41.0,253.0,-283.0,-34.0,-63.0,-815.0,11.0
5.0,-215.0,-42.0,244.0,-289.0,-29.0,-64.0,-814.0,12.0
2.0,-209.0,-29.0,247.0,-294.0,-25.0,-66.0,-817.0,12.0
2.0,-216.0,-40.0,259.0,-297.0,-21.0,-63.0,-817.0,15.0
5.0,-217.0,-36.0,275.0,-303.0,-19.0,-62.0,-822.0,15.0
4.0,-217.0,-43.0,292.0,-305.0,-20.0,-65.0,-814.0,14.0
6.0,-210.0,-39.0,318.0,-306.0,-21.0,-56.0,-814.0,19.0
6.0,-215.0,-36.0,348.0,-302.0,-23.0,-61.0,-807.0,23.0
8.0,-213.0,-38.0,382.0,-295.0,-25.0,-58.0,-805.0,21.0
8.0,-211.0,-36.0,415.0,-286.0,-29.0,-49.0,-801.0,30.0
12.0,-206.0,-39.0,446.0,-276.0,-33.0,-48.0,-789.0,23.0
12.0,-203.0,-37.0,474.0,-265.0,-35.0,-39.0,-777.0,23.0
14.0,-205.0,-36.0,491.0,-256.0,-37.0,-32.0,-771.0,7.0
17.0,-202.0,-44.0,494.0,-244.0,-39.0,-20.0,-760.0,2.0
15.0,-201.0,-46.0,478.0,-232.0,-39.0,-8.0,-767.0,-11.0
21.0,-198.0,-45.0,445.0,-216.0,-40.0,0.0,-769.0,-22.0
23.0,-201.0,-45.0,401.0,-197.0,-41.0,12.0,-778.0,-21.0
25.0,-201.0,-46.0,350.0,-177.0,-40.0,18.0,-776.0,-15.0
29.0,-207.0,-44.0,303.0,-152.0,-39.0,25.0,-787.0,-11.0
28.0,-207.0,-41.0,261.0,-125.0,-40.0,31.0,-793.0,-4.0
29.0,-214.0,-43.0,223.0,-100.0,-39.0,35.0,-812.0,5.0
33.0,-213.0,-39.0,193.0,-79.0,-42.0,40.0,-817.0,17.0
32.0,-216.0,-33.0,178.0,-59.0,-43.0,43.0,-832.0,16.0
30.0,-221.0,-35.0,171.0,-41.0,-40.0,40.0,-847.0,22.0
33.0,-225.0,-34.0,168.0,-31.0,-36.0,34.0,-859.0,24.0
26.0,-227.0,-35.0,172.0,-25.0,-34.0,30.0,-862.0,32.0
29.0,-229.0,-33.0,179.0,-23.0,-31.0,29.0,-868.0,30.0
26.0,-230.0,-31.0,191.0,-24.0,-29.0,24.0,-876.0,39.0
24.0,-234.0,-36.0,204.0,-26.0,-24.0,18.0,-885.0,42.0
22.0,-233.0,-32.0,215.0,-28.0,-22.0,11.0,-891.0,37.0
22.0,-238.0,-32.0,225.0,-27.0,-19.0,1.0,-909.0,38.0
20.0,-242.0,-29.0,227.0,-25.0,-15.0,-2.0,-920.0,44.0
17.0,-241.0,-31.0,224.0,-19.0,-11.0,-13.0,-923.0,50.0
16.0,-240.0,-25.0,231.0,-12.0,-13.0,-18.0,-934.0,54.0
17.0,-247.0,-24.0,238.0,-5.0,-13.0,-23.0,-937.0,58.0
14.0,-253.0,-27.0,240.0,2.0,-13.0,-32.0,-952.0,56.0
12.0,-252.0,-27.0,232.0,12.0,-13.0,-36.0,-962.0,52.0
10.0,-256.0,-28.0,219.0,21.0,-11.0,-47.0,-981.0,50.0
7.0,-259.0,-29.0,203.0,27.0,-11.0,-47.0,-993.0,49.0
10.0,-265.0,-29.0,185.0,32.0,-8.0,-52.0,-1005.0,50.0
8.0,-267.0,-26.0,173.0,37.0,-9.0,-56.0,-1018.0,54.0
5.0,-267.0,-28.0,170.0,41.0,-10.0,-62.0,-1027.0,57.0
0.0,-273.0,-29.0,178.0,43.0,-11.0,-67.0,-1035.0,66.0
3.0,-275.0,-18.0,195.0,44.0,-10.0,-68.0,-1045.0,73.0
1.0,-276.0,-16.0,224.0,41.0,-8.0,-72.0,-1060.0,80.0
1.0,-277.0,-15.0,262.0,34.0,-6.0,-69.0,-1060.0,100.0
1.0,-276.0,-10.0,305.0,28.0,-5.0,-70.0,-1061.0,111.0
0.0,-274.0,-7.0,350.0,19.0,-2.0,-71.0,-1046.0,122.0
0.0,-274.0,-7.0,395.0,8.0,1.0,-73.0,-1050.0,139.0
1.0,-271.0,-3.0,434.0,-2.0,5.0,-77.0,-1027.0,135.0
2.0,-267.0,-4.0,463.0,-14.0,9.0,-77.0,-1015.0,138.0
2.0,-260.0,0.0,481.0,-26.0,13.0,-73.0,-1000.0,145.0
4.0,-259.0,0.0,489.0,-41.0,16.0,-69.0,-982.0,150.0
2.0,-252.0,0.0,486.0,-55.0,21.0,-60.0,-969.0,157.0
8.0,-249.0,0.0,477.0,-67.0,26.0,-58.0,-954.0,163.0
8.0,-246.0,4.0,465.0,-81.0,30.0,-52.0,-940.0,169.0
10.0,-242.0,0.0,448.0,-92.0,38.0,-45.0,-927.0,169.0
11.0,-241.0,1.0,426.0,-101.0,46.0,-35.0,-923.0,174.0
8.0,-238.0,2.0,401.0,-111.0,53.0,-36.0,-912.0,170.0
10.0,-236.0,1.0,373.0,-120.0,60.0,-30.0,-917.0,172.0
14.0,-235.0,1.0,342.0,-129.0,67.0,-28.0,-923.0,163.0
15.0,-236.0,1.0,306.0,-136.0,72.0,-20.0,-915.0,153.0
16.0,-237.0,1.0,274.0,-142.0,76.0,-19.0,-915.0,157.0
16.0,-240.0,-4.0,242.0,-143.0,82.0,-10.0,-923.0,141.0
18.0,-239.0,-2.0,214.0,-141.0,84.0,-9.0,-929.0,143.0
20.0,-246.0,-3.0,188.0,-135.0,87.0,-12.0,-931.0,130.0
18.0,-244.0,-11.0,168.0,-126.0,91.0,-9.0,-930.0,138.0
17.0,-244.0,-10.0,151.0,-115.0,93.0,-13.0,-938.0,129.0
16.0,-246.0,-12.0,137.0,-104.0,96.0,-21.0,-939.0,131.0
17.0,-245.0,-7.0,124.0,-92.0,97.0,-30.0,-945.0,125.0
15.0,-251.0,-6.0,117.0,-81.0,101.0,-30.0,-944.0,123.0
13.0,-251.0,-10.0,110.0,-71.0,104.0,-30.0,-948.0,124.0
13.0,-251.0,-9.0,103.0,-62.0,107.0,-32.0,-956.0,120.0
11.0,-253.0,-12.0,92.0,-56.0,110.0,-37.0,-964.0,120.0
10.0,-251.0,-11.0,78.0,-51.0,115.0,-40.0,-969.0,121.0
7.0,-254.0,-12.0,59.0,-48.0,119.0,-43.0,-977.0,117.0
10.0,-258.0,-8.0,38.0,-44.0,123.0,-47.0,-988.0,112.0
12.0,-258.0,-11.0,16.0,-41.0,126.0,-47.0,-1000.0,113.0
8.0,-262.0,-12.0,-2.0,-37.0,128.0,-45.0,-1013.0,118.0
9.0,-266.0,-10.0,-14.0,-32.0,131.0,-46.0,-1017.0,117.0
7.0,-267.0,-6.0,-14.0,-27.0,131.0,-48.0,-1025.0,123.0
9.0,-272.0,-9.0,-2.0,-23.0,133.0,-53.0,-1028.0,122.0
4.0,-269.0,-7.0,19.0,-21.0,132.0,-58.0,-1031.0,122.0
3.0,-270.0,-6.0,43.0,-22.0,130.0,-61.0,-1027.0,117.0
3.0,-266.0,-10.0,68.0,-26.0,130.0,-66.0,-1019.0,116.0
4.0,-267.0,-5.0,93.0,-32.0,129.0,-62.0,-1018.0,119.0
3.0,-262.0,-6.0,115.0,-39.0,126.0,-59.0,-1006.0,121.0
4.0,-260.0,-1.0,131.0,-41.0,123.0,-60.0,-984.0,128.0
3.0,-256.0,-10.0,140.0,-41.0,117.0,-60.0,-976.0,133.0
5.0,-256.0,-3.0,142.0,-38.0,110.0,-66.0,-968.0,144.0
5.0,-251.0,0.0,138.0,-29.0,103.0,-62.0,-950.0,152.0
1.0,-247.0,-1.0,129.0,-19.0,95.0,-60.0,-944.0,157.0
4.0,-243.0,0.0,110.0,-7.0,88.0,-65.0,-939.0,165.0
5.0,-244.0,0.0,88.0,7.0,84.0,-61.0,-939.0,169.0
4.0,-246.0,2.0,61.0,22.0,79.0,-60.0,-936.0,168.0
4.0,-246.0,7.0,32.0,33.0,73.0,-62.0,-944.0,175.0
6.0,-249.0,9.0,1.0,41.0,69.0,-60.0,-953.0,178.0
6.0,-253.0,2.0,-28.0,50.0,67.0,-61.0,-969.0,180.0
6.0,-256.0,6.0,-50.0,57.0,65.0,-60.0,-975.0,182.0
-15.0,-264.0,6.0,-62.0,63.0,62.0,-58.0,-990.0,185.0
4.0,-259.0,10.0,-65.0,68.0,61.0,-61.0,-997.0,190.0
3.0,-261.0,7.0,-61.0,75.0,59.0,-65.0,-1006.0,192.0
3.0,-265.0,9.0,-48.0,78.0,56.0,-62.0,-1016.0,195.0
1.0,-265.0,11.0,-34.0,83.0,54.0,-68.0,-1018.0,198.0
3.0,-270.0,10.0,-17.0,88.0,53.0,-69.0,-1021.0,196.0
4.0,-269.0,11.0,2.0,92.0,53.0,-70.0,-1019.0,200.0
3.0,-267.0,11.0,22.0,96.0,53.0,-69.0,-1017.0,204.0
2.0,-264.0,12.0,37.0,102.0,52.0,-71.0,-1013.0,210.0
1.0,-261.0,14.0,52.0,106.0,52.0,-70.0,-1004.0,209.0
0.0,-258.0,14.0,62.0,107.0,51.0,-73.0,-995.0,217.0
-1.0,-259.0,19.0,70.0,107.0,49.0,-84.0,-984.0,221.0
0.0,-250.0,16.0,76.0,106.0,46.0,-78.0,-967.0,221.0
-2.0,-247.0,15.0,74.0,103.0,46.0,-82.0,-956.0,221.0
0.0,-243.0,16.0,67.0,98.0,42.0,-84.0,-941.0,222.0
0.0,-241.0,17.0,56.0,96.0,39.0,-91.0,-933.0,225.0
0.0,-238.0,16.0,39.0,96.0,34.0,-88.0,-920.0,226.0
-2.0,-233.0,21.0,18.0,97.0,29.0,-87.0,-897.0,225.0
-1.0,-232.0,18.0,-5.0,102.0,21.0,-87.0,-904.0,226.0
-2.0,-232.0,13.0,-33.0,105.0,12.0,-92.0,-890.0,230.0
0.0,-233.0,17.0,-64.0,106.0,2.0,-88.0,-886.0,226.0
0.0,-233.0,15.0,-97.0,106.0,-6.0,-90.0,-899.0,223.0
-1.0,-236.0,16.0,-129.0,106.0,-13.0,-94.0,-901.0,219.0
-3.0,-237.0,13.0,-158.0,106.0,-21.0,-93.0,-914.0,216.0
-2.0,-238.0,14.0,-181.0,109.0,-28.0,-96.0,-922.0,209.0
-4.0,-241.0,10.0,-198.0,114.0,-34.0,-101.0,-926.0,211.0
-4.0,-249.0,11.0,-210.0,119.0,-40.0,-100.0,-942.0,207.0
-6.0,-251.0,13.0,-213.0,123.0,-47.0,-106.0,-955.0,203.0
-6.0,-252.0,11.0,-211.0,130.0,-54.0,-106.0,-962.0,197.0
-8.0,-255.0,7.0,-205.0,136.0,-60.0,-106.0,-967.0,198.0
-8.0,-255.0,10.0,-194.0,140.0,-66.0,-104.0,-977.0,193.0
-4.0,-256.0,8.0,-181.0,144.0,-70.0,-102.0,-976.0,193.0
-7.0,-258.0,3.0,-165.0,146.0,-73.0,-101.0,-983.0,188.0
0.0,-259.0,4.0,-151.0,147.0,-79.0,-103.0,-985.0,181.0
-6.0,-257.0,5.0,-140.0,149.0,-84.0,-107.0,-987.0,185.0
-8.0,-257.0,5.0,-129.0,152.0,-91.0,-106.0,-986.0,189.0
-7.0,-258.0,5.0,-120.0,155.0,-97.0,-106.0,-986.0,187.0
-10.0,-258.0,5.0,-114.0,155.0,-101.0,-107.0,-989.0,189.0
-9.0,-255.0,5.0,-109.0,149.0,-104.0,-112.0,-985.0,186.0
-7.0,-256.0,5.0,-108.0,142.0,-108.0,-114.0,-978.0,185.0
-7.0,-256.0,6.0,-105.0,133.0,-113.0,-110.0,-975.0,186.0
-8.0,-255.0,10.0,-99.0,126.0,-118.0,-115.0,-978.0,190.0
-10.0,-253.0,11.0,-91.0,118.0,-121.0,-119.0,-968.0,189.0
-11.0,-255.0,10.0,-79.0,110.0,-125.0,-119.0,-970.0,195.0
-10.0,-253.0,10.0,-68.0,100.0,-127.0,-124.0,-964.0,198.0
-10.0,-252.0,13.0,-59.0,89.0,-128.0,-127.0,-958.0,204.0
-6.0,-253.0,14.0,-49.0,78.0,-130.0,-113.0,-961.0,210.0
-4.0,-252.0,15.0,-43.0,72.0,-132.0,-108.0,-965.0,216.0
-4.0,-252.0,22.0,-37.0,73.0,-134.0,-107.0,-967.0,221.0
-6.0,-255.0,21.0,-35.0,76.0,-134.0,-106.0,-972.0,232.0
-4.0,-254.0,23.0,-40.0,85.0,-131.0,-99.0,-976.0,233.0
-1.0,-259.0,19.0,-51.0,90.0,-127.0,-90.0,-988.0,229.0
3.0,-261.0,15.0,-69.0,95.0,-120.0,-85.0,-1003.0,221.0
0.0,-263.0,17.0,-94.0,99.0,-112.0,-69.0,-1016.0,217.0
2.0,-267.0,13.0,-121.0,102.0,-103.0,-65.0,-1032.0,211.0
2.0,-270.0,10.0,-140.0,104.0,-94.0,-65.0,-1037.0,205.0
4.0,-272.0,12.0,-149.0,105.0,-84.0,-57.0,-1050.0,202.0
6.0,-271.0,9.0,-147.0,104.0,-71.0,-52.0,-1055.0,191.0
6.0,-271.0,9.0,-136.0,97.0,-59.0,-59.0,-1043.0,190.0
3.0,-270.0,5.0,-115.0,85.0,-50.0,-57.0,-1039.0,177.0
3.0,-269.0,4.0,-87.0,69.0,-42.0,-55.0,-1025.0,170.0
4.0,-262.0,2.0,-56.0,52.0,-36.0,-53.0,-1006.0,168.0
6.0,-262.0,3.0,-28.0,38.0,-31.0,-58.0,-994.0,171.0
1.0,-258.0,4.0,-6.0,27.0,-29.0,-64.0,-972.0,173.0
2.0,-247.0,6.0,9.0,16.0,-28.0,-70.0,-957.0,171.0
0.0,-247.0,1.0,15.0,5.0,-28.0,-71.0,-945.0,170.0
2.0,-244.0,3.0,9.0,-6.0,-30.0,-75.0,-933.0,174.0
0.0,-236.0,3.0,-6.0,-16.0,-35.0,-82.0,-919.0,170.0
1.0,-236.0,4.0,-30.0,-22.0,-40.0,-80.0,-914.0,170.0
0.0,-235.0,2.0,-61.0,-26.0,-43.0,-84.0,-911.0,170.0
0.0,-237.0,1.0,-98.0,-26.0,-48.0,-81.0,-912.0,169.0
-1.0,-243.0,3.0,-138.0,-24.0,-51.0,-85.0,-921.0,163.0
0.0,-243.0,4.0,-175.0,-22.0,-53.0,-87.0,-935.0,166.0
-1.0,-249.0,0.0,-207.0,-17.0,-54.0,-88.0,-947.0,162.0
0.0,-254.0,2.0,-231.0,-13.0,-51.0,-86.0,-969.0,169.0
1.0,-258.0,2.0,-247.0,-8.0,-48.0,-77.0,-989.0,169.0
1.0,-261.0,4.0,-250.0,-4.0,-45.0,-71.0,-1005.0,172.0
1.0,-267.0,6.0,-245.0,1.0,-38.0,-70.0,-1020.0,176.0
3.0,-274.0,4.0,-228.0,5.0,-31.0,-65.0,-1040.0,177.0
3.0,-274.0,5.0,-204.0,11.0,-24.0,-64.0,-1060.0,182.0
3.0,-278.0,1.0,-171.0,16.0,-17.0,-59.0,-1066.0,185.0
6.0,-279.0,7.0,-138.0,19.0,-12.0,-50.0,-1066.0,185.0
7.0,-280.0,7.0,-103.0,22.0,-8.0,-52.0,-1071.0,186.0
8.0,-278.0,7.0,-68.0,23.0,-4.0,-41.0,-1069.0,190.0
11.0,-275.0,9.0,-33.0,24.0,-3.0,-41.0,-1062.0,187.0
15.0,-277.0,9.0,-1.0,23.0,-1.0,-38.0,-1052.0,186.0
12.0,-273.0,8.0,28.0,23.0,-1.0,-31.0,-1032.0,189.0
12.0,-266.0,7.0,52.0,23.0,-2.0,-31.0,-1026.0,199.0
13.0,-265.0,10.0,68.0,22.0,-4.0,-25.0,-1012.0,197.0
13.0,-262.0,13.0,78.0,20.0,-4.0,-22.0,-997.0,203.0
17.0,-257.0,9.0,85.0,18.0,-5.0,-21.0,-985.0,200.0
17.0,-255.0,15.0,87.0,16.0,-7.0,-16.0,-971.0,206.0
17.0,-253.0,11.0,83.0,14.0,-7.0,-12.0,-968.0,207.0
17.0,-251.0,13.0,75.0,13.0,-9.0,-21.0,-958.0,205.0
11.0,-252.0,13.0,64.0,11.0,-9.0,-18.0,-950.0,211.0
18.0,-250.0,13.0,48.0,12.0,-8.0,-17.0,-949.0,210.0
12.0,-248.0,11.0,32.0,15.0,-7.0,-18.0,-946.0,207.0
15.0,-246.0,11.0,12.0,16.0,-5.0,-13.0,-947.0,207.0
15.0,-248.0,13.0,-7.0,19.0,-4.0,-29.0,-945.0,204.0
16.0,-251.0,11.0,-28.0,23.0,-5.0,-25.0,-951.0,205.0
10.0,-250.0,15.0,-48.0,26.0,-5.0,-33.0,-959.0,208.0
10.0,-249.0,11.0,-65.0,29.0,-5.0,-35.0,-967.0,208.0
12.0,-253.0,10.0,-77.0,32.0,-4.0,-35.0,-971.0,203.0
8.0,-256.0,16.0,-84.0,37.0,-5.0,-38.0,-977.0,203.0
12.0,-257.0,11.0,-87.0,41.0,-6.0,-44.0,-983.0,209.0
7.0,-257.0,8.0,-85.0,45.0,-8.0,-49.0,-993.0,198.0
9.0,-260.0,10.0,-79.0,49.0,-10.0,-50.0,-992.0,200.0
8.0,-260.0,14.0,-68.0,54.0,-12.0,-55.0,-991.0,198.0
7.0,-261.0,10.0,-58.0,58.0,-15.0,-51.0,-1000.0,197.0
5.0,-262.0,11.0,-48.0,61.0,-19.0,-60.0,-996.0,194.0
5.0,-262.0,12.0,-38.0,64.0,-23.0,-59.0,-997.0,191.0
7.0,-266.0,9.0,-28.0,67.0,-27.0,-56.0,-997.0,186.0
5.0,-260.0,7.0,-18.0,66.0,-30.0,-58.0,-1001.0,191.0
6.0,-260.0,4.0,-7.0,69.0,-31.0,-52.0,-997.0,184.0
5.0,-261.0,6.0,1.0,71.0,-34.0,-47.0,-994.0,182.0
4.0,-256.0,6.0,7.0,73.0,-34.0,-49.0,-990.0,185.0
7.0,-259.0,7.0,17.0,74.0,-35.0,-47.0,-993.0,187.0
8.0,-260.0,6.0,24.0,76.0,-36.0,-48.0,-996.0,184.0
8.0,-259.0,4.0,28.0,78.0,-37.0,-46.0,-993.0,187.0
-1.0,-252.0,7.0,31.0,76.0,-38.0,-50.0,-990.0,182.0
7.0,-257.0,4.0,34.0,74.0,-37.0,-42.0,-992.0,187.0
10.0,-258.0,3.0,33.0,73.0,-37.0,-48.0,-987.0,182.0
8.0,-260.0,3.0,31.0,70.0,-37.0,-48.0,-993.0,178.0
5.0,-257.0,8.0,30.0,68.0,-35.0,-50.0,-992.0,179.0
6.0,-257.0,4.0,27.0,63.0,-32.0,-44.0,-993.0,179.0
8.0,-256.0,5.0,21.0,57.0,-33.0,-48.0,-994.0,179.0
9.0,-259.0,3.0,18.0,53.0,-30.0,-47.0,-989.0,179.0
7.0,-257.0,3.0,16.0,47.0,-28.0,-44.0,-994.0,177.0
5.0,-257.0,6.0,15.0,42.0,-24.0,-46.0,-986.0,175.0
9.0,-259.0,5.0,14.0,39.0,-24.0,-48.0,-991.0,170.0
7.0,-256.0,17.0,16.0,34.0,-21.0,-46.0,-982.0,177.0
8.0,-258.0,3.0,21.0,32.0,-20.0,-48.0,-987.0,180.0
7.0,-258.0,5.0,21.0,29.0,-18.0,-45.0,-985.0,179.0
7.0,-256.0,5.0,22.0,29.0,-16.0,-53.0,-985.0,178.0
8.0,-256.0,4.0,20.0,28.0,-14.0,-50.0,-987.0,180.0
10.0,-257.0,8.0,15.0,29.0,-12.0,-46.0,-985.0,183.0
7.0,-256.0,6.0,11.0,28.0,-10.0,-48.0,-987.0,182.0
6.0,-257.0,10.0,7.0,27.0,-8.0,-47.0,-986.0,187.0
12.0,-257.0,4.0,5.0,28.0,-7.0,-48.0,-984.0,185.0
7.0,-258.0,8.0,2.0,28.0,-5.0,-47.0,-988.0,187.0
13.0,-255.0,6.0,2.0,28.0,-5.0,-45.0,-984.0,192.0
10.0,-256.0,8.0,3.0,26.0,-4.0,-42.0,-981.0,195.0
9.0,-256.0,10.0,5.0,27.0,-4.0,-34.0,-978.0,192.0
9.0,-254.0,8.0,6.0,26.0,-4.0,-38.0,-973.0,195.0
12.0,-255.0,10.0,6.0,26.0,-4.0,-35.0,-972.0,194.0
11.0,-255.0,10.0,9.0,27.0,-4.0,-42.0,-969.0,193.0
11.0,-256.0,11.0,7.0,28.0,-4.0,-35.0,-969.0,196.0
11.0,-256.0,9.0,6.0,28.0,-6.0,-34.0,-968.0,198.0
11.0,-254.0,11.0,4.0,29.0,-7.0,-41.0,-971.0,199.0
9.0,-252.0,11.0,4.0,30.0,-7.0,-36.0,-970.0,195.0
13.0,-254.0,9.0,2.0,31.0,-8.0,-36.0,-972.0,198.0
13.0,-255.0,11.0,-2.0,29.0,-9.0,-34.0,-976.0,196.0
9.0,-253.0,8.0,-5.0,29.0,-11.0,-40.0,-971.0,195.0
11.0,-255.0,8.0,-8.0,32.0,-10.0,-36.0,-973.0,196.0
10.0,-258.0,8.0,-12.0,32.0,-10.0,-42.0,-981.0,196.0
13.0,-256.0,12.0,-14.0,35.0,-13.0,-38.0,-982.0,200.0
9.0,-256.0,6.0,-15.0,37.0,-14.0,-37.0,-987.0,194.0
9.0,-256.0,9.0,-16.0,39.0,-15.0,-40.0,-981.0,194.0
7.0,-255.0,10.0,-15.0,42.0,-18.0,-39.0,-982.0,196.0
9.0,-256.0,10.0,-13.0,44.0,-20.0,-41.0,-977.0,193.0
8.0,-256.0,11.0,-12.0,44.0,-21.0,-39.0,-976.0,191.0
9.0,-258.0,12.0,-9.0,48.0,-23.0,-43.0,-978.0,194.0
11.0,-255.0,9.0,-8.0,48.0,-24.0,-45.0,-975.0,194.0
10.0,-257.0,9.0,-6.0,51.0,-27.0,-46.0,-981.0,195.0
6.0,-250.0,9.0,-4.0,51.0,-28.0,-46.0,-976.0,195.0
10.0,-257.0,8.0,-4.0,52.0,-31.0,-46.0,-971.0,200.0
5.0,-255.0,9.0,-4.0,52.0,-33.0,-45.0,-979.0,200.0
11.0,-254.0,13.0,-4.0,51.0,-36.0,-48.0,-974.0,200.0
8.0,-256.0,14.0,-6.0,51.0,-37.0,-53.0,-974.0,202.0
8.0,-253.0,11.0,-8.0,50.0,-38.0,-51.0,-974.0,203.0
6.0,-255.0,14.0,-9.0,47.0,-41.0,-51.0,-970.0,200.0
6.0,-256.0,10.0,-13.0,46.0,-42.0,-47.0,-971.0,201.0
7.0,-255.0,10.0,-12.0,43.0,-42.0,-50.0,-971.0,196.0
5.0,-257.0,13.0,-11.0,40.0,-44.0,-49.0,-971.0,201.0
6.0,-255.0,7.0,-14.0,38.0,-45.0,-44.0,-971.0,197.0
3.0,-254.0,8.0,-17.0,34.0,-44.0,-48.0,-968.0,197.0
5.0,-254.0,9.0,-19.0,30.0,-44.0,-52.0,-971.0,202.0
5.0,-253.0,11.0,-23.0,29.0,-42.0,-50.0,-973.0,200.0
6.0,-254.0,11.0,-26.0,26.0,-40.0,-50.0,-969.0,199.0
7.0,-255.0,11.0,-32.0,25.0,-38.0,-52.0,-972.0,200.0
4.0,-254.0,13.0,-39.0,23.0,-37.0,-57.0,-972.0,202.0
7.0,-250.0,11.0,-47.0,18.0,-33.0,-56.0,-973.0,202.0
7.0,-254.0,8.0,-56.0,14.0,-30.0,-54.0,-971.0,203.0
6.0,-256.0,11.0,-62.0,11.0,-28.0,-49.0,-971.0,198.0
8.0,-256.0,12.0,-69.0,7.0,-25.0,-51.0,-978.0,198.0
6.0,-257.0,8.0,-73.0,4.0,-22.0,-55.0,-982.0,203.0
6.0,-256.0,14.0,-75.0,0.0,-20.0,-53.0,-980.0,199.0
6.0,-255.0,7.0,-74.0,-4.0,-18.0,-56.0,-984.0,202.0
5.0,-257.0,10.0,-73.0,-11.0,-16.0,-51.0,-982.0,202.0
6.0,-257.0,10.0,-74.0,-11.0,-13.0,-47.0,-984.0,199.0
9.0,-255.0,7.0,-72.0,-15.0,-12.0,-49.0,-979.0,193.0
8.0,-255.0,10.0,-71.0,-17.0,-10.0,-42.0,-976.0,196.0
7.0,-257.0,12.0,-71.0,-19.0,-10.0,-42.0,-986.0,196.0
12.0,-256.0,4.0,-73.0,-19.0,-7.0,-44.0,-985.0,193.0
9.0,-256.0,12.0,-72.0,-19.0,-7.0,-38.0,-989.0,196.0
12.0,-257.0,8.0,-74.0,-19.0,-4.0,-34.0,-987.0,195.0
10.0,-259.0,7.0,-74.0,-18.0,-4.0,-40.0,-990.0,200.0
10.0,-258.0,8.0,-74.0,-17.0,-4.0,-37.0,-993.0,199.0
13.0,-259.0,11.0,-69.0,-18.0,-4.0,-39.0,-993.0,198.0
12.0,-260.0,10.0,-65.0,-16.0,-2.0,-36.0,-992.0,200.0
10.0,-259.0,10.0,-57.0,-16.0,-4.0,-34.0,-989.0,198.0
12.0,-259.0,11.0,-51.0,-14.0,-5.0,-35.0,-992.0,201.0
11.0,-258.0,9.0,-43.0,-13.0,-5.0,-36.0,-986.0,201.0
11.0,-257.0,11.0,-41.0,-13.0,-4.0,-34.0,-985.0,205.0
10.0,-256.0,15.0,-36.0,-12.0,-6.0,-37.0,-988.0,200.0
10.0,-255.0,14.0,-33.0,-9.0,-5.0,-34.0,-981.0,207.0
13.0,-256.0,16.0,-31.0,-6.0,-5.0,-34.0,-982.0,208.0
14.0,-256.0,13.0,-33.0,-3.0,-5.0,-34.0,-978.0,204.0
13.0,-257.0,13.0,-35.0,-1.0,-6.0,-34.0,-976.0,209.0
11.0,-256.0,11.0,-37.0,0.0,-6.0,-31.0,-982.0,206.0
9.0,-255.0,15.0,-38.0,2.0,-5.0,-33.0,-983.0,213.0
15.0,-257.0,14.0,-37.0,4.0,-6.0,-29.0,-977.0,211.0
12.0,-256.0,16.0,-37.0,3.0,-6.0,-33.0,-982.0,212.0
12.0,-257.0,16.0,-36.0,4.0,-4.0,-36.0,-982.0,210.0
10.0,-255.0,14.0,-35.0,5.0,-4.0,-36.0,-983.0,209.0
10.0,-254.0,18.0,-33.0,4.0,-3.0,-36.0,-979.0,210.0
9.0,-256.0,12.0,-30.0,4.0,-3.0,-36.0,-980.0,209.0
10.0,-256.0,16.0,-31.0,5.0,-5.0,-36.0,-983.0,207.0
9.0,-258.0,15.0,-30.0,6.0,-4.0,-35.0,-982.0,211.0
12.0,-256.0,13.0,-31.0,5.0,-7.0,-39.0,-987.0,213.0
6.0,-254.0,12.0,-31.0,5.0,-7.0,-37.0,-984.0,210.0
9.0,-255.0,13.0,-31.0,5.0,-8.0,-43.0,-975.0,212.0
9.0,-256.0,13.0,-29.0,3.0,-8.0,-44.0,-983.0,212.0
11.0,-255.0,14.0,-31.0,3.0,-8.0,-45.0,-983.0,213.0
7.0,-255.0,15.0,-29.0,2.0,-10.0,-44.0,-984.0,213.0
8.0,-256.0,15.0,-28.0,1.0,-11.0,-49.0,-986.0,216.0
7.0,-256.0,14.0,-27.0,0.0,-10.0,-46.0,-979.0,211.0
9.0,-261.0,13.0,-27.0,0.0,-10.0,-51.0,-984.0,212.0
2.0,-261.0,11.0,-25.0,-3.0,-11.0,-53.0,-982.0,208.0
5.0,-256.0,15.0,-25.0,-5.0,-12.0,-49.0,-984.0,207.0
6.0,-255.0,15.0,-23.0,-6.0,-11.0,-51.0,-980.0,211.0
6.0,-257.0,11.0,-23.0,-7.0,-8.0,-49.0,-975.0,207.0
7.0,-255.0,16.0,-22.0,-8.0,-8.0,-52.0,-976.0,207.0
6.0,-256.0,7.0,-24.0,-11.0,-7.0,-50.0,-983.0,206.0
7.0,-254.0,9.0,-23.0,-13.0,-5.0,-48.0,-978.0,211.0
8.0,-256.0,11.0,-24.0,-16.0,-4.0,-45.0,-977.0,207.0
7.0,-253.0,12.0,-25.0,-18.0,-4.0,-49.0,-968.0,207.0
9.0,-255.0,11.0,-26.0,-20.0,-2.0,-43.0,-973.0,208.0
8.0,-253.0,9.0,-28.0,-22.0,1.0,-43.0,-975.0,210.0
11.0,-263.0,20.0,-30.0,-24.0,3.0,-42.0,-974.0,209.0
9.0,-255.0,15.0,-32.0,-27.0,3.0,-39.0,-982.0,213.0
11.0,-255.0,17.0,-33.0,-29.0,3.0,-37.0,-973.0,212.0
12.0,-255.0,14.0,-34.0,-31.0,4.0,-37.0,-975.0,208.0
10.0,-255.0,13.0,-35.0,-32.0,6.0,-38.0,-973.0,210.0
11.0,-257.0,12.0,-38.0,-33.0,5.0,-39.0,-979.0,210.0
13.0,-255.0,12.0,-39.0,-33.0,4.0,-35.0,-977.0,216.0
11.0,-257.0,15.0,-38.0,-32.0,4.0,-35.0,-974.0,210.0
12.0,-256.0,16.0,-35.0,-32.0,3.0,-34.0,-972.0,212.0
10.0,-255.0,16.0,-35.0,-30.0,4.0,-33.0,-979.0,213.0
12.0,-256.0,15.0,-31.0,-28.0,3.0,-34.0,-973.0,214.0
14.0,-254.0,10.0,-31.0,-27.0,3.0,-33.0,-979.0,212.0
15.0,-256.0,16.0,-32.0,-25.0,0.0,-32.0,-971.0,213.0
12.0,-253.0,11.0,-31.0,-21.0,0.0,-32.0,-981.0,213.0
14.0,-255.0,11.0,-33.0,-19.0,1.0,-33.0,-971.0,207.0
13.0,-256.0,13.0,-34.0,-17.0,2.0,-31.0,-977.0,206.0
14.0,-255.0,13.0,-35.0,-16.0,0.0,-30.0,-974.0,207.0
12.0,-255.0,12.0,-36.0,-13.0,-1.0,-31.0,-978.0,213.0
16.0,-257.0,14.0,-40.0,-12.0,-2.0,-35.0,-980.0,211.0
11.0,-255.0,12.0,-44.0,-10.0,-2.0,-35.0,-978.0,209.0
12.0,-254.0,14.0,-44.0,-8.0,-2.0,-35.0,-984.0,212.0
11.0,-256.0,13.0,-43.0,-7.0,-4.0,-35.0,-981.0,215.0
12.0,-256.0,12.0,-43.0,-5.0,-6.0,-37.0,-986.0,207.0
11.0,-258.0,16.0,-43.0,-4.0,-5.0,-40.0,-985.0,207.0
13.0,-258.0,13.0,-42.0,-2.0,-6.0,-39.0,-982.0,205.0
10.0,-256.0,7.0,-37.0,-1.0,-6.0,-36.0,-985.0,204.0
9.0,-255.0,10.0,-35.0,-2.0,-7.0,-38.0,-984.0,205.0
11.0,-256.0,9.0,-36.0,-1.0,-7.0,-39.0,-981.0,201.0
12.0,-255.0,16.0,-35.0,0.0,-5.0,-37.0,-981.0,201.0
10.0,-255.0,12.0,-34.0,0.0,-6.0,-33.0,-981.0,198.0
9.0,-256.0,13.0,-36.0,-1.0,-6.0,-37.0,-979.0,199.0
10.0,-255.0,9.0,-35.0,0.0,-7.0,-39.0,-977.0,199.0
14.0,-254.0,11.0,-35.0,0.0,-7.0,-35.0,-977.0,202.0
13.0,-252.0,12.0,-35.0,1.0,-5.0,-36.0,-979.0,198.0
10.0,-254.0,10.0,-38.0,1.0,-5.0,-40.0,-978.0,205.0
6.0,-254.0,9.0,-40.0,0.0,-6.0,-37.0,-980.0,204.0
10.0,-258.0,12.0,-44.0,0.0,-6.0,-39.0,-981.0,207.0
11.0,-257.0,11.0,-48.0,-1.0,-6.0,-36.0,-981.0,210.0
9.0,-258.0,16.0,-51.0,-1.0,-5.0,-38.0,-984.0,212.0
11.0,-258.0,14.0,-52.0,0.0,-6.0,-36.0,-986.0,209.0
9.0,-255.0,13.0,-51.0,1.0,-7.0,-42.0,-986.0,215.0
11.0,-258.0,16.0,-48.0,1.0,-6.0,-41.0,-988.0,213.0
8.0,-256.0,10.0,-46.0,2.0,-7.0,-44.0,-986.0,214.0
8.0,-257.0,11.0,-44.0,2.0,-7.0,-44.0,-990.0,214.0
11.0,-257.0,13.0,-40.0,2.0,-7.0,-38.0,-985.0,217.0
11.0,-258.0,15.0,-35.0,1.0,-8.0,-39.0,-984.0,210.0
10.0,-254.0,12.0,-32.0,2.0,-7.0,-43.0,-980.0,210.0
10.0,-256.0,15.0,-29.0,3.0,-8.0,-44.0,-982.0,209.0
11.0,-255.0,14.0,-25.0,3.0,-7.0,-39.0,-976.0,210.0
10.0,-255.0,13.0,-24.0,2.0,-6.0,-41.0,-976.0,215.0
12.0,-257.0,13.0,-22.0,0.0,-6.0,-36.0,-976.0,214.0
11.0,-257.0,16.0,-18.0,0.0,-5.0,-33.0,-974.0,212.0
