acc1_x,acc1_y,acc1_z,gyro_x,gyro_y,gyro_z,acc2_x,acc2_y,acc2_z
7.0,-244.0,56.0,-65.0,51.0,-26.0,-47.0,-931.0,368.0
5.0,-243.0,56.0,-65.0,60.0,-29.0,-51.0,-936.0,366.0
8.0,-244.0,54.0,-66.0,64.0,-32.0,-50.0,-935.0,369.0
6.0,-244.0,55.0,-63.0,69.0,-35.0,-55.0,-934.0,367.0
4.0,-243.0,50.0,-61.0,73.0,-39.0,-53.0,-935.0,366.0
8.0,-243.0,53.0,-57.0,79.0,-41.0,-54.0,-936.0,363.0
4.0,-248.0,56.0,-54.0,82.0,-45.0,-60.0,-938.0,366.0
4.0,-244.0,53.0,-50.0,86.0,-48.0,-59.0,-933.0,366.0
4.0,-242.0,53.0,-47.0,91.0,-52.0,-56.0,-934.0,361.0
5.0,-243.0,53.0,-44.0,94.0,-53.0,-60.0,-936.0,363.0
4.0,-241.0,52.0,-43.0,98.0,-56.0,-60.0,-929.0,362.0
3.0,-242.0,51.0,-42.0,101.0,-57.0,-58.0,-926.0,365.0
4.0,-241.0,56.0,-42.0,102.0,-59.0,-61.0,-930.0,365.0
1.0,-241.0,52.0,-44.0,105.0,-61.0,-68.0,-932.0,364.0
1.0,-256.0,43.0,-49.0,106.0,-63.0,-64.0,-929.0,366.0
5.0,-242.0,56.0,-51.0,107.0,-64.0,-66.0,-927.0,365.0
3.0,-244.0,53.0,-53.0,108.0,-65.0,-66.0,-929.0,366.0
3.0,-243.0,58.0,-56.0,110.0,-65.0,-67.0,-935.0,367.0
0.0,-241.0,58.0,-56.0,111.0,-64.0,-67.0,-930.0,370.0
2.0,-242.0,51.0,-56.0,111.0,-65.0,-70.0,-934.0,369.0
1.0,-245.0,53.0,-55.0,113.0,-63.0,-69.0,-930.0,370.0
0.0,-245.0,54.0,-53.0,112.0,-62.0,-68.0,-933.0,374.0
1.0,-242.0,56.0,-49.0,111.0,-63.0,-72.0,-932.0,371.0
2.0,-241.0,51.0,-47.0,112.0,-63.0,-68.0,-938.0,366.0
1.0,-243.0,52.0,-47.0,110.0,-63.0,-69.0,-931.0,366.0
0.0,-240.0,45.0,-47.0,109.0,-64.0,-73.0,-933.0,363.0
3.0,-241.0,52.0,-51.0,109.0,-66.0,-68.0,-931.0,362.0
2.0,-242.0,51.0,-54.0,110.0,-66.0,-70.0,-932.0,364.0
3.0,-241.0,52.0,-56.0,110.0,-65.0,-67.0,-928.0,368.0
2.0,-241.0,54.0,-56.0,112.0,-66.0,-68.0,-934.0,364.0
1.0,-241.0,50.0,-57.0,111.0,-66.0,-67.0,-936.0,363.0
0.0,-244.0,51.0,-58.0,112.0,-66.0,-67.0,-931.0,364.0
1.0,-241.0,55.0,-58.0,113.0,-67.0,-68.0,-935.0,364.0
2.0,-242.0,54.0,-60.0,114.0,-65.0,-68.0,-931.0,369.0
2.0,-244.0,55.0,-61.0,115.0,-64.0,-72.0,-928.0,369.0
2.0,-243.0,52.0,-61.0,114.0,-64.0,-74.0,-935.0,373.0
1.0,-239.0,53.0,-58.0,113.0,-65.0,-73.0,-929.0,377.0
3.0,-246.0,56.0,-56.0,112.0,-64.0,-73.0,-935.0,378.0
0.0,-241.0,56.0,-53.0,112.0,-64.0,-72.0,-928.0,379.0
2.0,-242.0,58.0,-51.0,111.0,-64.0,-75.0,-929.0,373.0
1.0,-242.0,53.0,-51.0,110.0,-64.0,-77.0,-929.0,373.0
0.0,-240.0,53.0,-47.0,110.0,-65.0,-73.0,-926.0,371.0
2.0,-242.0,58.0,-46.0,112.0,-64.0,-77.0,-927.0,368.0
0.0,-242.0,55.0,-48.0,113.0,-64.0,-73.0,-926.0,372.0
3.0,-240.0,52.0,-51.0,112.0,-63.0,-74.0,-924.0,371.0
1.0,-240.0,51.0,-53.0,112.0,-64.0,-72.0,-925.0,374.0
2.0,-242.0,53.0,-58.0,111.0,-64.0,-73.0,-934.0,371.0
1.0,-240.0,57.0,-61.0,110.0,-61.0,-67.0,-927.0,370.0
2.0,-244.0,52.0,-64.0,110.0,-59.0,-75.0,-927.0,370.0
-1.0,-241.0,52.0,-67.0,109.0,-60.0,-73.0,-931.0,371.0
0.0,-244.0,53.0,-69.0,108.0,-59.0,-76.0,-934.0,367.0
2.0,-240.0,54.0,-69.0,104.0,-56.0,-74.0,-930.0,367.0
1.0,-244.0,48.0,-69.0,102.0,-55.0,-73.0,-933.0,367.0
1.0,-245.0,52.0,-71.0,99.0,-54.0,-73.0,-933.0,363.0
1.0,-242.0,53.0,-74.0,97.0,-51.0,-72.0,-932.0,364.0
0.0,-243.0,52.0,-74.0,94.0,-50.0,-72.0,-933.0,361.0
2.0,-242.0,50.0,-74.0,93.0,-50.0,-73.0,-930.0,363.0
2.0,-244.0,52.0,-76.0,93.0,-50.0,-71.0,-936.0,361.0
1.0,-244.0,53.0,-75.0,92.0,-50.0,-76.0,-938.0,364.0
0.0,-244.0,49.0,-77.0,93.0,-47.0,-79.0,-938.0,365.0
3.0,-246.0,52.0,-73.0,93.0,-47.0,-83.0,-934.0,364.0
1.0,-245.0,51.0,-71.0,93.0,-44.0,-81.0,-940.0,361.0
0.0,-245.0,49.0,-69.0,93.0,-45.0,-75.0,-939.0,357.0
1.0,-242.0,50.0,-67.0,91.0,-45.0,-80.0,-935.0,360.0
0.0,-244.0,52.0,-65.0,89.0,-44.0,-74.0,-941.0,360.0
1.0,-246.0,48.0,-65.0,90.0,-44.0,-81.0,-941.0,361.0
1.0,-247.0,53.0,-63.0,88.0,-41.0,-77.0,-939.0,360.0
1.0,-243.0,50.0,-62.0,86.0,-41.0,-73.0,-941.0,359.0
0.0,-243.0,48.0,-60.0,84.0,-41.0,-81.0,-936.0,357.0
0.0,-245.0,51.0,-59.0,82.0,-37.0,-78.0,-937.0,358.0
0.0,-243.0,48.0,-57.0,79.0,-37.0,-79.0,-940.0,362.0
0.0,-243.0,49.0,-53.0,76.0,-33.0,-77.0,-935.0,362.0
1.0,-245.0,52.0,-50.0,75.0,-33.0,-77.0,-939.0,361.0
1.0,-244.0,50.0,-48.0,74.0,-32.0,-77.0,-940.0,361.0
0.0,-245.0,54.0,-45.0,73.0,-30.0,-71.0,-936.0,364.0
1.0,-246.0,54.0,-42.0,69.0,-29.0,-75.0,-940.0,363.0
0.0,-244.0,50.0,-42.0,69.0,-27.0,-78.0,-938.0,360.0
-1.0,-244.0,56.0,-37.0,68.0,-27.0,-76.0,-940.0,364.0
0.0,-247.0,52.0,-36.0,66.0,-27.0,-74.0,-936.0,364.0
3.0,-243.0,53.0,-36.0,65.0,-26.0,-78.0,-933.0,367.0
0.0,-243.0,50.0,-36.0,63.0,-25.0,-77.0,-935.0,357.0
-2.0,-244.0,51.0,-34.0,62.0,-25.0,-75.0,-940.0,360.0
1.0,-244.0,52.0,-35.0,59.0,-25.0,-72.0,-935.0,360.0
0.0,-243.0,52.0,-36.0,58.0,-24.0,-75.0,-935.0,361.0
1.0,-244.0,54.0,-36.0,55.0,-24.0,-68.0,-935.0,356.0
2.0,-240.0,51.0,-34.0,53.0,-24.0,-73.0,-933.0,362.0
1.0,-244.0,48.0,-33.0,51.0,-23.0,-70.0,-934.0,357.0
0.0,-242.0,50.0,-32.0,50.0,-23.0,-75.0,-928.0,358.0
1.0,-241.0,49.0,-34.0,48.0,-23.0,-81.0,-932.0,358.0
1.0,-243.0,51.0,-36.0,47.0,-21.0,-75.0,-931.0,360.0
2.0,-242.0,54.0,-37.0,45.0,-20.0,-76.0,-932.0,359.0
1.0,-245.0,51.0,-36.0,43.0,-19.0,-76.0,-936.0,357.0
1.0,-241.0,55.0,-40.0,42.0,-19.0,-80.0,-933.0,356.0
1.0,-245.0,53.0,-41.0,40.0,-17.0,-78.0,-931.0,362.0
0.0,-243.0,53.0,-44.0,38.0,-17.0,-79.0,-929.0,361.0
0.0,-241.0,52.0,-43.0,36.0,-15.0,-79.0,-935.0,361.0
-1.0,-243.0,51.0,-44.0,34.0,-14.0,-80.0,-935.0,360.0
1.0,-243.0,47.0,-46.0,32.0,-13.0,-75.0,-930.0,360.0
0.0,-242.0,52.0,-47.0,30.0,-12.0,-79.0,-930.0,360.0
0.0,-242.0,56.0,-47.0,28.0,-12.0,-78.0,-930.0,358.0
0.0,-240.0,53.0,-49.0,27.0,-11.0,-77.0,-937.0,361.0
2.0,-246.0,51.0,-47.0,25.0,-11.0,-81.0,-934.0,358.0
0.0,-242.0,52.0,-48.0,23.0,-11.0,-81.0,-929.0,359.0
1.0,-240.0,50.0,-48.0,19.0,-9.0,-78.0,-932.0,361.0
0.0,-243.0,49.0,-50.0,16.0,-8.0,-74.0,-943.0,359.0
0.0,-244.0,50.0,-50.0,15.0,-7.0,-77.0,-938.0,361.0
1.0,-246.0,52.0,-50.0,13.0,-7.0,-75.0,-938.0,362.0
0.0,-248.0,54.0,-48.0,11.0,-5.0,-71.0,-939.0,349.0
3.0,-246.0,51.0,-48.0,10.0,-4.0,-71.0,-941.0,356.0
1.0,-246.0,51.0,-45.0,8.0,-3.0,-72.0,-939.0,357.0
0.0,-244.0,51.0,-46.0,7.0,-2.0,-68.0,-936.0,354.0
1.0,-244.0,55.0,-43.0,6.0,-1.0,-71.0,-934.0,351.0
1.0,-242.0,50.0,-43.0,5.0,-2.0,-72.0,-936.0,359.0
2.0,-244.0,53.0,-42.0,3.0,-1.0,-70.0,-937.0,358.0
0.0,-243.0,50.0,-42.0,3.0,0.0,-69.0,-935.0,353.0
1.0,-243.0,53.0,-41.0,0.0,0.0,-70.0,-934.0,356.0
1.0,-244.0,49.0,-41.0,-2.0,1.0,-72.0,-936.0,356.0
1.0,-244.0,53.0,-43.0,-2.0,1.0,-74.0,-938.0,354.0
3.0,-244.0,50.0,-43.0,-5.0,3.0,-74.0,-940.0,356.0
1.0,-244.0,49.0,-43.0,-8.0,6.0,-73.0,-934.0,357.0
0.0,-242.0,51.0,-46.0,-11.0,7.0,-72.0,-939.0,356.0
1.0,-244.0,53.0,-48.0,-12.0,7.0,-73.0,-937.0,354.0
2.0,-246.0,52.0,-48.0,-15.0,8.0,-77.0,-936.0,358.0
-5.0,-242.0,48.0,-50.0,-16.0,10.0,-74.0,-937.0,359.0
1.0,-243.0,48.0,-50.0,-16.0,12.0,-73.0,-937.0,358.0
2.0,-246.0,50.0,-49.0,-16.0,12.0,-75.0,-942.0,358.0
2.0,-245.0,48.0,-48.0,-16.0,14.0,-73.0,-944.0,358.0
0.0,-246.0,54.0,-48.0,-15.0,12.0,-70.0,-937.0,355.0
2.0,-243.0,49.0,-47.0,-15.0,14.0,-67.0,-938.0,360.0
2.0,-245.0,51.0,-46.0,-15.0,14.0,-73.0,-942.0,353.0
1.0,-243.0,53.0,-46.0,-16.0,13.0,-71.0,-938.0,354.0
1.0,-245.0,48.0,-48.0,-15.0,14.0,-70.0,-940.0,357.0
1.0,-241.0,50.0,-47.0,-16.0,13.0,-70.0,-937.0,354.0
1.0,-244.0,47.0,-46.0,-16.0,14.0,-68.0,-934.0,347.0
6.0,-249.0,55.0,-48.0,-18.0,14.0,-72.0,-937.0,353.0
0.0,-242.0,49.0,-50.0,-18.0,14.0,-68.0,-935.0,356.0
3.0,-241.0,47.0,-50.0,-17.0,14.0,-71.0,-931.0,354.0
1.0,-244.0,55.0,-52.0,-17.0,14.0,-70.0,-934.0,354.0
0.0,-240.0,47.0,-53.0,-17.0,12.0,-72.0,-933.0,355.0
1.0,-242.0,49.0,-55.0,-17.0,13.0,-71.0,-934.0,357.0
2.0,-245.0,47.0,-57.0,-19.0,13.0,-66.0,-935.0,362.0
2.0,-244.0,51.0,-58.0,-18.0,13.0,-76.0,-938.0,356.0
3.0,-244.0,50.0,-59.0,-18.0,14.0,-65.0,-938.0,357.0
2.0,-245.0,51.0,-60.0,-18.0,15.0,-69.0,-938.0,354.0
1.0,-244.0,52.0,-57.0,-19.0,15.0,-73.0,-938.0,358.0
3.0,-245.0,53.0,-57.0,-20.0,16.0,-70.0,-938.0,353.0
0.0,-247.0,50.0,-56.0,-21.0,16.0,-76.0,-939.0,347.0
5.0,-247.0,47.0,-54.0,-21.0,17.0,-69.0,-935.0,351.0
2.0,-247.0,48.0,-53.0,-21.0,18.0,-71.0,-942.0,350.0
0.0,-244.0,50.0,-53.0,-21.0,19.0,-70.0,-936.0,351.0
2.0,-245.0,50.0,-53.0,-21.0,19.0,-73.0,-940.0,348.0
2.0,-247.0,49.0,-54.0,-21.0,20.0,-72.0,-946.0,346.0
1.0,-244.0,48.0,-55.0,-21.0,20.0,-68.0,-939.0,348.0
1.0,-246.0,49.0,-57.0,-19.0,19.0,-71.0,-941.0,348.0
1.0,-243.0,50.0,-57.0,-20.0,20.0,-68.0,-939.0,351.0
2.0,-245.0,55.0,-58.0,-23.0,20.0,-75.0,-943.0,346.0
2.0,-248.0,52.0,-58.0,-22.0,21.0,-70.0,-937.0,359.0
1.0,-244.0,48.0,-58.0,-23.0,22.0,-68.0,-936.0,357.0
0.0,-246.0,48.0,-56.0,-23.0,23.0,-71.0,-941.0,361.0
3.0,-246.0,50.0,-54.0,-23.0,25.0,-67.0,-941.0,357.0
1.0,-243.0,51.0,-53.0,-24.0,27.0,-72.0,-943.0,356.0
1.0,-241.0,53.0,-50.0,-26.0,28.0,-70.0,-940.0,354.0
2.0,-245.0,48.0,-54.0,-26.0,32.0,-68.0,-942.0,354.0
-1.0,-244.0,51.0,-59.0,-26.0,34.0,-71.0,-937.0,350.0
2.0,-247.0,47.0,-65.0,-26.0,36.0,-73.0,-939.0,348.0
3.0,-242.0,51.0,-66.0,-27.0,36.0,-67.0,-939.0,352.0
3.0,-246.0,52.0,-69.0,-25.0,36.0,-64.0,-934.0,351.0
3.0,-247.0,50.0,-67.0,-24.0,37.0,-69.0,-936.0,346.0
2.0,-244.0,46.0,-67.0,-22.0,39.0,-69.0,-933.0,350.0
1.0,-245.0,48.0,-66.0,-20.0,40.0,-67.0,-938.0,344.0
4.0,-245.0,52.0,-67.0,-16.0,43.0,-69.0,-938.0,341.0
2.0,-242.0,48.0,-68.0,-14.0,43.0,-66.0,-938.0,340.0
2.0,-245.0,47.0,-71.0,-11.0,47.0,-67.0,-942.0,338.0
1.0,-245.0,49.0,-73.0,-9.0,50.0,-69.0,-939.0,340.0
0.0,-247.0,43.0,-78.0,-7.0,52.0,-70.0,-943.0,335.0
0.0,-242.0,47.0,-82.0,-5.0,55.0,-69.0,-939.0,342.0
0.0,-247.0,46.0,-87.0,-6.0,58.0,-76.0,-940.0,341.0
2.0,-246.0,42.0,-92.0,-7.0,64.0,-63.0,-943.0,343.0
1.0,-247.0,46.0,-95.0,-8.0,67.0,-69.0,-946.0,335.0
2.0,-248.0,46.0,-97.0,-9.0,70.0,-76.0,-945.0,334.0
1.0,-249.0,46.0,-100.0,-12.0,75.0,-74.0,-948.0,340.0
1.0,-247.0,45.0,-101.0,-14.0,79.0,-71.0,-944.0,335.0
0.0,-246.0,47.0,-103.0,-18.0,84.0,-80.0,-948.0,332.0
2.0,-249.0,43.0,-104.0,-21.0,88.0,-70.0,-949.0,324.0
2.0,-247.0,44.0,-104.0,-23.0,92.0,-76.0,-952.0,330.0
0.0,-251.0,45.0,-105.0,-26.0,95.0,-82.0,-954.0,324.0
0.0,-251.0,42.0,-102.0,-30.0,98.0,-77.0,-952.0,324.0
0.0,-249.0,43.0,-100.0,-32.0,98.0,-75.0,-955.0,326.0
0.0,-250.0,43.0,-95.0,-36.0,100.0,-90.0,-961.0,323.0
1.0,-253.0,41.0,-90.0,-39.0,98.0,-91.0,-957.0,326.0
0.0,-251.0,38.0,-85.0,-44.0,98.0,-88.0,-958.0,327.0
0.0,-252.0,44.0,-77.0,-50.0,98.0,-88.0,-958.0,329.0
-2.0,-251.0,41.0,-71.0,-56.0,97.0,-94.0,-959.0,326.0
-2.0,-253.0,40.0,-61.0,-62.0,95.0,-97.0,-951.0,323.0
-4.0,-250.0,42.0,-52.0,-69.0,94.0,-94.0,-949.0,323.0
-5.0,-250.0,47.0,-43.0,-76.0,94.0,-103.0,-953.0,323.0
-4.0,-249.0,44.0,-35.0,-82.0,93.0,-105.0,-951.0,324.0
-5.0,-244.0,43.0,-27.0,-86.0,94.0,-107.0,-946.0,330.0
-5.0,-243.0,45.0,-26.0,-88.0,92.0,-100.0,-934.0,333.0
-5.0,-244.0,43.0,-23.0,-91.0,91.0,-104.0,-932.0,340.0
-7.0,-236.0,48.0,-22.0,-94.0,92.0,-108.0,-922.0,341.0
-9.0,-239.0,46.0,-27.0,-98.0,93.0,-111.0,-917.0,341.0
-8.0,-236.0,46.0,-35.0,-104.0,95.0,-115.0,-915.0,340.0
-11.0,-236.0,48.0,-47.0,-109.0,98.0,-114.0,-914.0,336.0
-9.0,-236.0,41.0,-64.0,-117.0,102.0,-123.0,-910.0,326.0
-7.0,-238.0,43.0,-84.0,-130.0,107.0,-127.0,-915.0,330.0
-12.0,-237.0,41.0,-108.0,-144.0,112.0,-132.0,-919.0,323.0
-12.0,-239.0,40.0,-133.0,-159.0,118.0,-132.0,-919.0,323.0
-15.0,-240.0,40.0,-158.0,-176.0,123.0,-136.0,-923.0,321.0
-16.0,-240.0,41.0,-178.0,-192.0,129.0,-145.0,-931.0,321.0
-17.0,-243.0,42.0,-191.0,-207.0,135.0,-143.0,-934.0,323.0
-20.0,-242.0,45.0,-199.0,-222.0,140.0,-141.0,-939.0,325.0
-13.0,-250.0,43.0,-199.0,-233.0,143.0,-140.0,-946.0,324.0
-16.0,-251.0,46.0,-192.0,-241.0,146.0,-135.0,-956.0,333.0
-12.0,-251.0,46.0,-180.0,-245.0,150.0,-130.0,-959.0,325.0
-10.0,-254.0,45.0,-165.0,-245.0,153.0,-123.0,-968.0,330.0
-8.0,-255.0,46.0,-148.0,-240.0,153.0,-113.0,-972.0,328.0
-5.0,-256.0,45.0,-129.0,-234.0,153.0,-106.0,-981.0,327.0
-2.0,-255.0,44.0,-110.0,-228.0,151.0,-93.0,-977.0,332.0
0.0,-255.0,45.0,-87.0,-220.0,150.0,-83.0,-970.0,335.0
1.0,-252.0,45.0,-61.0,-211.0,147.0,-68.0,-966.0,340.0
4.0,-249.0,47.0,-40.0,-201.0,142.0,-60.0,-958.0,341.0
8.0,-249.0,48.0,-19.0,-194.0,138.0,-45.0,-947.0,346.0
10.0,-245.0,53.0,-1.0,-184.0,132.0,-36.0,-938.0,347.0
11.0,-240.0,49.0,8.0,-176.0,125.0,-32.0,-931.0,353.0
11.0,-238.0,47.0,14.0,-170.0,116.0,-33.0,-921.0,356.0
15.0,-240.0,51.0,12.0,-164.0,108.0,-29.0,-916.0,353.0
14.0,-236.0,48.0,7.0,-159.0,98.0,-32.0,-903.0,355.0
15.0,-237.0,53.0,-3.0,-152.0,90.0,-31.0,-899.0,351.0
12.0,-232.0,51.0,-16.0,-143.0,80.0,-34.0,-897.0,358.0
10.0,-233.0,49.0,-33.0,-130.0,72.0,-42.0,-895.0,360.0
10.0,-234.0,53.0,-49.0,-114.0,61.0,-45.0,-902.0,363.0
5.0,-236.0,51.0,-64.0,-94.0,51.0,-49.0,-901.0,366.0
6.0,-237.0,52.0,-76.0,-73.0,41.0,-50.0,-909.0,370.0
3.0,-240.0,54.0,-84.0,-51.0,31.0,-62.0,-917.0,371.0
2.0,-241.0,50.0,-88.0,-31.0,21.0,-74.0,-922.0,373.0
0.0,-244.0,54.0,-90.0,-12.0,11.0,-86.0,-932.0,372.0
-2.0,-244.0,54.0,-86.0,4.0,2.0,-100.0,-935.0,370.0
-8.0,-245.0,56.0,-78.0,17.0,-8.0,-102.0,-938.0,367.0
-6.0,-243.0,53.0,-72.0,26.0,-16.0,-109.0,-940.0,369.0
-3.0,-249.0,53.0,-62.0,37.0,-27.0,-110.0,-941.0,366.0
-9.0,-248.0,55.0,-51.0,51.0,-37.0,-111.0,-946.0,372.0
-5.0,-246.0,49.0,-39.0,64.0,-50.0,-112.0,-947.0,359.0
-13.0,-252.0,59.0,-28.0,79.0,-62.0,-112.0,-947.0,361.0
-6.0,-246.0,52.0,-19.0,93.0,-75.0,-111.0,-942.0,358.0
-5.0,-247.0,51.0,-13.0,107.0,-87.0,-108.0,-942.0,352.0
-7.0,-247.0,51.0,-6.0,114.0,-98.0,-108.0,-941.0,345.0
-6.0,-244.0,47.0,-4.0,118.0,-107.0,-109.0,-940.0,344.0
-7.0,-244.0,44.0,-5.0,117.0,-114.0,-110.0,-940.0,337.0
-9.0,-242.0,49.0,-8.0,114.0,-118.0,-112.0,-935.0,340.0
-5.0,-245.0,50.0,-13.0,109.0,-120.0,-112.0,-929.0,338.0
-8.0,-241.0,47.0,-20.0,105.0,-119.0,-111.0,-923.0,344.0
-9.0,-242.0,44.0,-25.0,98.0,-120.0,-114.0,-915.0,341.0
-6.0,-238.0,47.0,-31.0,92.0,-117.0,-109.0,-916.0,343.0
-5.0,-239.0,47.0,-34.0,87.0,-115.0,-109.0,-909.0,344.0
-8.0,-234.0,45.0,-39.0,81.0,-113.0,-112.0,-911.0,343.0
-8.0,-236.0,50.0,-47.0,80.0,-112.0,-108.0,-911.0,346.0
-7.0,-239.0,48.0,-55.0,75.0,-111.0,-106.0,-914.0,340.0
-7.0,-237.0,47.0,-65.0,71.0,-110.0,-109.0,-914.0,343.0
-6.0,-239.0,48.0,-74.0,67.0,-109.0,-110.0,-919.0,346.0
-7.0,-239.0,48.0,-81.0,63.0,-110.0,-114.0,-922.0,344.0
-8.0,-242.0,47.0,-85.0,60.0,-111.0,-111.0,-927.0,343.0
-12.0,-243.0,47.0,-87.0,58.0,-112.0,-121.0,-931.0,344.0
-13.0,-242.0,49.0,-88.0,54.0,-115.0,-119.0,-929.0,351.0
-8.0,-245.0,50.0,-87.0,51.0,-117.0,-129.0,-935.0,355.0
-13.0,-244.0,50.0,-83.0,52.0,-119.0,-137.0,-938.0,362.0
-12.0,-243.0,57.0,-78.0,55.0,-121.0,-135.0,-941.0,373.0
-13.0,-248.0,51.0,-71.0,59.0,-126.0,-133.0,-946.0,375.0
-9.0,-248.0,58.0,-61.0,68.0,-129.0,-126.0,-954.0,384.0
-8.0,-253.0,61.0,-53.0,81.0,-132.0,-123.0,-957.0,390.0
-9.0,-256.0,61.0,-44.0,96.0,-135.0,-119.0,-976.0,390.0
-7.0,-255.0,59.0,-37.0,110.0,-136.0,-107.0,-990.0,388.0
-3.0,-259.0,55.0,-32.0,123.0,-134.0,-101.0,-997.0,382.0
-2.0,-261.0,54.0,-31.0,133.0,-130.0,-92.0,-1006.0,372.0
0.0,-265.0,53.0,-31.0,137.0,-123.0,-83.0,-1017.0,360.0
1.0,-261.0,46.0,-28.0,135.0,-113.0,-79.0,-1009.0,350.0
2.0,-260.0,47.0,-23.0,131.0,-100.0,-71.0,-1003.0,347.0
0.0,-258.0,48.0,-15.0,127.0,-89.0,-70.0,-991.0,341.0
0.0,-254.0,47.0,-5.0,120.0,-78.0,-70.0,-981.0,339.0
2.0,-253.0,46.0,4.0,114.0,-69.0,-75.0,-962.0,334.0
0.0,-245.0,45.0,11.0,107.0,-62.0,-74.0,-954.0,329.0
0.0,-246.0,44.0,13.0,101.0,-56.0,-75.0,-937.0,327.0
1.0,-240.0,43.0,14.0,94.0,-55.0,-73.0,-925.0,325.0
2.0,-242.0,46.0,12.0,88.0,-54.0,-73.0,-915.0,329.0
1.0,-234.0,46.0,4.0,87.0,-57.0,-68.0,-913.0,327.0
1.0,-233.0,41.0,-4.0,89.0,-63.0,-73.0,-905.0,328.0
3.0,-234.0,47.0,-12.0,94.0,-72.0,-65.0,-910.0,340.0
3.0,-240.0,48.0,-19.0,104.0,-81.0,-67.0,-913.0,344.0
4.0,-239.0,51.0,-23.0,115.0,-93.0,-59.0,-921.0,356.0
2.0,-239.0,55.0,-23.0,130.0,-104.0,-60.0,-928.0,364.0
5.0,-244.0,57.0,-19.0,147.0,-114.0,-61.0,-938.0,376.0
6.0,-248.0,58.0,-12.0,163.0,-122.0,-66.0,-946.0,384.0
2.0,-248.0,60.0,-1.0,176.0,-130.0,-57.0,-952.0,388.0
7.0,-251.0,60.0,9.0,190.0,-135.0,-54.0,-959.0,393.0
8.0,-252.0,62.0,22.0,203.0,-138.0,-52.0,-966.0,395.0
8.0,-251.0,56.0,35.0,215.0,-140.0,-54.0,-966.0,392.0
5.0,-253.0,60.0,46.0,226.0,-144.0,-48.0,-960.0,392.0
7.0,-247.0,57.0,55.0,236.0,-144.0,-48.0,-958.0,395.0
8.0,-252.0,60.0,64.0,242.0,-142.0,-47.0,-952.0,386.0
5.0,-244.0,58.0,71.0,249.0,-143.0,-47.0,-944.0,383.0
8.0,-246.0,56.0,74.0,252.0,-143.0,-45.0,-935.0,374.0
6.0,-242.0,57.0,69.0,255.0,-140.0,-48.0,-929.0,367.0
7.0,-241.0,49.0,61.0,256.0,-140.0,-57.0,-925.0,354.0
2.0,-237.0,48.0,47.0,252.0,-140.0,-61.0,-920.0,348.0
4.0,-237.0,47.0,30.0,249.0,-139.0,-64.0,-909.0,343.0
2.0,-235.0,47.0,11.0,246.0,-140.0,-67.0,-910.0,337.0
1.0,-237.0,42.0,-7.0,244.0,-141.0,-71.0,-908.0,335.0
0.0,-236.0,46.0,-25.0,242.0,-142.0,-75.0,-902.0,334.0
-1.0,-236.0,45.0,-40.0,238.0,-145.0,-84.0,-901.0,332.0
1.0,-235.0,44.0,-49.0,234.0,-148.0,-82.0,-913.0,337.0
-1.0,-237.0,46.0,-57.0,228.0,-150.0,-91.0,-913.0,334.0
-2.0,-236.0,46.0,-61.0,225.0,-152.0,-92.0,-915.0,335.0
-6.0,-236.0,46.0,-65.0,219.0,-154.0,-101.0,-917.0,334.0
-1.0,-239.0,45.0,-70.0,213.0,-153.0,-103.0,-925.0,337.0
-6.0,-240.0,50.0,-75.0,209.0,-153.0,-104.0,-934.0,339.0
-6.0,-241.0,46.0,-79.0,206.0,-155.0,-108.0,-938.0,341.0
-8.0,-242.0,44.0,-85.0,201.0,-154.0,-105.0,-939.0,343.0
-6.0,-245.0,49.0,-89.0,195.0,-151.0,-108.0,-943.0,344.0
-7.0,-246.0,51.0,-93.0,184.0,-151.0,-106.0,-950.0,355.0
-7.0,-248.0,51.0,-91.0,177.0,-149.0,-102.0,-948.0,358.0
-3.0,-252.0,51.0,-85.0,168.0,-149.0,-106.0,-958.0,362.0
-4.0,-249.0,58.0,-75.0,159.0,-148.0,-97.0,-958.0,368.0
-1.0,-251.0,49.0,-63.0,149.0,-147.0,-85.0,-952.0,371.0
0.0,-249.0,55.0,-49.0,141.0,-148.0,-83.0,-950.0,365.0
0.0,-247.0,52.0,-37.0,133.0,-150.0,-80.0,-947.0,365.0
1.0,-247.0,50.0,-31.0,124.0,-150.0,-78.0,-945.0,355.0
1.0,-245.0,48.0,-29.0,116.0,-149.0,-75.0,-945.0,346.0
0.0,-244.0,48.0,-33.0,107.0,-147.0,-65.0,-943.0,342.0
3.0,-244.0,44.0,-39.0,101.0,-146.0,-64.0,-938.0,335.0
4.0,-243.0,40.0,-50.0,96.0,-146.0,-65.0,-936.0,323.0
4.0,-240.0,43.0,-61.0,91.0,-143.0,-59.0,-933.0,320.0
2.0,-238.0,41.0,-73.0,88.0,-141.0,-65.0,-928.0,319.0
5.0,-238.0,41.0,-83.0,84.0,-139.0,-55.0,-923.0,316.0
5.0,-240.0,41.0,-93.0,81.0,-135.0,-52.0,-920.0,321.0
4.0,-240.0,41.0,-104.0,78.0,-130.0,-58.0,-918.0,317.0
4.0,-239.0,46.0,-112.0,73.0,-124.0,-56.0,-923.0,317.0
4.0,-240.0,45.0,-120.0,66.0,-118.0,-58.0,-922.0,322.0
4.0,-239.0,47.0,-124.0,61.0,-110.0,-62.0,-916.0,324.0
3.0,-238.0,45.0,-127.0,54.0,-102.0,-60.0,-912.0,330.0
4.0,-240.0,47.0,-129.0,49.0,-93.0,-64.0,-915.0,338.0
1.0,-237.0,47.0,-129.0,43.0,-88.0,-64.0,-912.0,337.0
3.0,-239.0,46.0,-131.0,39.0,-83.0,-66.0,-922.0,338.0
3.0,-240.0,48.0,-130.0,32.0,-78.0,-69.0,-920.0,341.0
2.0,-241.0,48.0,-128.0,28.0,-77.0,-67.0,-921.0,341.0
1.0,-243.0,49.0,-128.0,24.0,-74.0,-66.0,-925.0,338.0
1.0,-243.0,44.0,-126.0,24.0,-75.0,-64.0,-927.0,344.0
3.0,-244.0,46.0,-122.0,25.0,-75.0,-63.0,-928.0,340.0
6.0,-242.0,44.0,-119.0,28.0,-77.0,-57.0,-934.0,330.0
5.0,-247.0,39.0,-119.0,29.0,-79.0,-59.0,-942.0,327.0
5.0,-249.0,41.0,-120.0,33.0,-82.0,-56.0,-944.0,322.0
9.0,-248.0,42.0,-124.0,34.0,-84.0,-55.0,-953.0,320.0
8.0,-249.0,42.0,-128.0,34.0,-84.0,-49.0,-955.0,314.0
5.0,-271.0,40.0,-133.0,34.0,-85.0,-44.0,-961.0,310.0
8.0,-250.0,42.0,-138.0,31.0,-83.0,-47.0,-960.0,317.0
9.0,-249.0,36.0,-142.0,28.0,-82.0,-44.0,-959.0,309.0
10.0,-247.0,37.0,-146.0,24.0,-78.0,-43.0,-958.0,309.0
10.0,-250.0,34.0,-147.0,20.0,-72.0,-35.0,-954.0,302.0
11.0,-248.0,34.0,-144.0,17.0,-65.0,-35.0,-952.0,303.0
8.0,-245.0,38.0,-144.0,16.0,-61.0,-32.0,-954.0,303.0
13.0,-249.0,35.0,-145.0,16.0,-57.0,-31.0,-947.0,303.0
13.0,-247.0,35.0,-144.0,20.0,-52.0,-26.0,-949.0,306.0
16.0,-246.0,32.0,-145.0,27.0,-48.0,-32.0,-947.0,303.0
16.0,-245.0,36.0,-143.0,35.0,-46.0,-19.0,-942.0,307.0
16.0,-237.0,52.0,-141.0,45.0,-46.0,-21.0,-941.0,307.0
18.0,-248.0,42.0,-141.0,54.0,-47.0,-13.0,-937.0,310.0
19.0,-249.0,40.0,-140.0,63.0,-49.0,-15.0,-943.0,318.0
16.0,-244.0,44.0,-138.0,72.0,-53.0,-13.0,-939.0,324.0
19.0,-246.0,44.0,-137.0,80.0,-57.0,-10.0,-940.0,322.0
16.0,-244.0,42.0,-131.0,86.0,-61.0,-8.0,-935.0,326.0
18.0,-249.0,45.0,-124.0,93.0,-65.0,-12.0,-936.0,336.0
15.0,-246.0,44.0,-120.0,97.0,-70.0,-15.0,-942.0,335.0
16.0,-247.0,46.0,-112.0,102.0,-74.0,-18.0,-946.0,341.0
16.0,-251.0,49.0,-105.0,106.0,-78.0,-17.0,-937.0,344.0
15.0,-246.0,43.0,-99.0,114.0,-81.0,-18.0,-945.0,345.0
16.0,-247.0,47.0,-97.0,121.0,-84.0,-22.0,-952.0,342.0
15.0,-252.0,43.0,-97.0,126.0,-85.0,-27.0,-952.0,333.0
12.0,-250.0,46.0,-100.0,130.0,-86.0,-34.0,-958.0,331.0
13.0,-250.0,45.0,-105.0,132.0,-86.0,-33.0,-959.0,322.0
13.0,-253.0,38.0,-113.0,135.0,-86.0,-38.0,-960.0,317.0
10.0,-250.0,45.0,-120.0,136.0,-81.0,-39.0,-958.0,316.0
9.0,-249.0,40.0,-127.0,138.0,-79.0,-42.0,-957.0,312.0
10.0,-250.0,37.0,-132.0,139.0,-75.0,-42.0,-956.0,310.0
8.0,-252.0,40.0,-135.0,140.0,-72.0,-40.0,-952.0,317.0
10.0,-253.0,38.0,-135.0,144.0,-69.0,-42.0,-950.0,314.0
10.0,-248.0,41.0,-132.0,147.0,-66.0,-43.0,-955.0,311.0
8.0,-249.0,37.0,-127.0,149.0,-63.0,-41.0,-953.0,315.0
8.0,-244.0,38.0,-121.0,151.0,-63.0,-40.0,-952.0,313.0
8.0,-246.0,39.0,-119.0,153.0,-61.0,-39.0,-950.0,315.0
11.0,-252.0,39.0,-117.0,154.0,-62.0,-40.0,-949.0,314.0
6.0,-248.0,39.0,-116.0,154.0,-62.0,-47.0,-949.0,310.0
9.0,-253.0,40.0,-116.0,151.0,-64.0,-50.0,-949.0,315.0
7.0,-246.0,40.0,-118.0,151.0,-64.0,-53.0,-950.0,311.0
7.0,-249.0,41.0,-118.0,148.0,-67.0,-50.0,-956.0,317.0
10.0,-250.0,39.0,-115.0,145.0,-68.0,-51.0,-949.0,316.0
9.0,-248.0,41.0,-112.0,142.0,-69.0,-47.0,-947.0,320.0
12.0,-253.0,43.0,-106.0,142.0,-69.0,-40.0,-950.0,325.0
11.0,-248.0,46.0,-97.0,143.0,-71.0,-35.0,-951.0,330.0
12.0,-249.0,48.0,-83.0,147.0,-71.0,-36.0,-949.0,342.0
14.0,-245.0,49.0,-66.0,152.0,-75.0,-30.0,-946.0,345.0
15.0,-250.0,51.0,-49.0,161.0,-77.0,-27.0,-945.0,352.0
14.0,-248.0,47.0,-31.0,169.0,-81.0,-18.0,-947.0,357.0
18.0,-246.0,49.0,-20.0,175.0,-84.0,-12.0,-946.0,354.0
20.0,-248.0,48.0,-17.0,179.0,-87.0,-7.0,-943.0,351.0
21.0,-246.0,50.0,-21.0,183.0,-89.0,1.0,-947.0,340.0
24.0,-250.0,45.0,-34.0,182.0,-91.0,0.0,-956.0,336.0
23.0,-249.0,41.0,-54.0,177.0,-93.0,11.0,-957.0,329.0
26.0,-252.0,42.0,-75.0,171.0,-94.0,10.0,-958.0,324.0
23.0,-254.0,45.0,-96.0,162.0,-96.0,12.0,-961.0,320.0
24.0,-251.0,45.0,-118.0,152.0,-96.0,14.0,-969.0,322.0
25.0,-254.0,40.0,-136.0,139.0,-96.0,14.0,-969.0,319.0
24.0,-253.0,41.0,-151.0,125.0,-96.0,12.0,-973.0,321.0
23.0,-255.0,44.0,-162.0,112.0,-97.0,12.0,-975.0,323.0
21.0,-255.0,42.0,-168.0,101.0,-95.0,8.0,-979.0,319.0
20.0,-252.0,44.0,-169.0,89.0,-95.0,3.0,-974.0,319.0
18.0,-254.0,42.0,-168.0,80.0,-94.0,-4.0,-978.0,323.0
19.0,-256.0,38.0,-162.0,73.0,-94.0,-6.0,-975.0,319.0
17.0,-254.0,43.0,-154.0,67.0,-95.0,-18.0,-984.0,322.0
14.0,-255.0,43.0,-145.0,63.0,-94.0,-25.0,-976.0,319.0
14.0,-255.0,39.0,-135.0,57.0,-95.0,-27.0,-975.0,318.0
11.0,-256.0,41.0,-125.0,51.0,-94.0,-31.0,-982.0,318.0
13.0,-256.0,39.0,-115.0,44.0,-94.0,-35.0,-978.0,316.0
11.0,-253.0,42.0,-105.0,35.0,-94.0,-35.0,-972.0,316.0
8.0,-257.0,42.0,-92.0,30.0,-92.0,-42.0,-972.0,320.0
10.0,-255.0,40.0,-79.0,24.0,-92.0,-37.0,-968.0,326.0
6.0,-252.0,47.0,-62.0,22.0,-91.0,-37.0,-961.0,335.0
10.0,-252.0,43.0,-45.0,23.0,-88.0,-34.0,-957.0,336.0
12.0,-251.0,45.0,-24.0,25.0,-87.0,-34.0,-956.0,340.0
12.0,-251.0,46.0,-7.0,25.0,-84.0,-31.0,-947.0,335.0
12.0,-247.0,47.0,5.0,27.0,-81.0,-24.0,-940.0,340.0
14.0,-244.0,45.0,14.0,28.0,-78.0,-21.0,-936.0,339.0
14.0,-244.0,44.0,13.0,25.0,-75.0,-15.0,-934.0,338.0
15.0,-243.0,45.0,7.0,23.0,-72.0,-13.0,-936.0,330.0
19.0,-243.0,43.0,-4.0,17.0,-66.0,-11.0,-934.0,327.0
20.0,-243.0,46.0,-19.0,12.0,-59.0,-2.0,-934.0,326.0
22.0,-244.0,44.0,-35.0,7.0,-54.0,3.0,-940.0,327.0
22.0,-245.0,44.0,-51.0,0.0,-49.0,-1.0,-935.0,322.0
17.0,-242.0,44.0,-66.0,-1.0,-42.0,-1.0,-934.0,323.0
21.0,-243.0,42.0,-74.0,-1.0,-37.0,1.0,-937.0,327.0
19.0,-247.0,44.0,-80.0,-3.0,-32.0,0.0,-940.0,322.0
20.0,-246.0,37.0,-83.0,-5.0,-28.0,1.0,-934.0,319.0
17.0,-245.0,41.0,-86.0,-5.0,-23.0,-6.0,-937.0,320.0
16.0,-246.0,39.0,-86.0,-4.0,-19.0,-8.0,-942.0,312.0
14.0,-243.0,38.0,-87.0,-5.0,-12.0,-13.0,-941.0,304.0
17.0,-244.0,38.0,-89.0,-5.0,-5.0,-16.0,-943.0,298.0
15.0,-243.0,36.0,-92.0,-6.0,-2.0,-19.0,-946.0,299.0
13.0,-246.0,32.0,-95.0,-3.0,2.0,-17.0,-939.0,299.0
13.0,-244.0,38.0,-99.0,0.0,3.0,-13.0,-944.0,303.0
18.0,-248.0,38.0,-100.0,4.0,6.0,-17.0,-944.0,301.0
19.0,-247.0,38.0,-102.0,8.0,6.0,-24.0,-954.0,302.0
19.0,-249.0,39.0,-107.0,14.0,7.0,-15.0,-954.0,306.0
21.0,-250.0,37.0,-108.0,17.0,7.0,-4.0,-949.0,308.0
22.0,-250.0,37.0,-104.0,19.0,3.0,-10.0,-953.0,305.0
17.0,-250.0,37.0,-103.0,19.0,-3.0,-13.0,-959.0,305.0
15.0,-251.0,36.0,-106.0,18.0,-6.0,-21.0,-963.0,295.0
14.0,-250.0,35.0,-107.0,14.0,-8.0,-18.0,-961.0,299.0
16.0,-253.0,39.0,-112.0,10.0,-8.0,-22.0,-967.0,303.0
16.0,-250.0,37.0,-111.0,6.0,-8.0,-20.0,-962.0,297.0
13.0,-251.0,39.0,-111.0,2.0,-7.0,-20.0,-962.0,313.0
15.0,-251.0,38.0,-104.0,-1.0,-3.0,-19.0,-961.0,313.0
11.0,-250.0,37.0,-96.0,-1.0,0.0,-26.0,-958.0,318.0
15.0,-248.0,39.0,-90.0,-1.0,6.0,-25.0,-960.0,321.0
20.0,-246.0,30.0,-82.0,1.0,11.0,-27.0,-961.0,326.0
14.0,-249.0,45.0,-74.0,2.0,16.0,-26.0,-951.0,325.0
14.0,-251.0,43.0,-64.0,2.0,19.0,-27.0,-954.0,327.0
12.0,-246.0,42.0,-55.0,1.0,21.0,-29.0,-955.0,324.0
13.0,-247.0,44.0,-51.0,-1.0,23.0,-36.0,-945.0,332.0
9.0,-247.0,40.0,-45.0,-2.0,24.0,-30.0,-941.0,334.0
11.0,-247.0,46.0,-43.0,-4.0,28.0,-30.0,-944.0,326.0
14.0,-248.0,42.0,-47.0,-6.0,29.0,-28.0,-948.0,321.0
12.0,-244.0,45.0,-51.0,-10.0,29.0,-31.0,-948.0,323.0
14.0,-247.0,41.0,-64.0,-15.0,33.0,-32.0,-954.0,311.0
13.0,-246.0,41.0,-77.0,-20.0,37.0,-23.0,-949.0,316.0
9.0,-240.0,32.0,-81.0,-28.0,35.0,-31.0,-948.0,308.0
15.0,-246.0,40.0,-87.0,-32.0,39.0,-17.0,-948.0,301.0
17.0,-247.0,31.0,-91.0,-33.0,37.0,-16.0,-952.0,295.0
17.0,-250.0,29.0,-96.0,-33.0,36.0,-17.0,-951.0,295.0
19.0,-253.0,34.0,-98.0,-32.0,35.0,-13.0,-954.0,298.0
17.0,-249.0,36.0,-97.0,-27.0,38.0,-6.0,-957.0,298.0
19.0,-248.0,38.0,-90.0,-21.0,38.0,-5.0,-957.0,302.0
22.0,-253.0,37.0,-84.0,-14.0,37.0,-6.0,-957.0,299.0
21.0,-249.0,37.0,-72.0,-8.0,37.0,-11.0,-952.0,301.0
19.0,-250.0,34.0,-60.0,-3.0,36.0,-2.0,-956.0,302.0
19.0,-249.0,36.0,-47.0,1.0,33.0,-3.0,-957.0,305.0
18.0,-251.0,36.0,-37.0,4.0,30.0,-4.0,-952.0,301.0
21.0,-249.0,37.0,-29.0,6.0,28.0,-6.0,-955.0,295.0
20.0,-246.0,31.0,-24.0,8.0,29.0,0.0,-943.0,298.0
22.0,-248.0,35.0,-19.0,11.0,25.0,1.0,-940.0,296.0
19.0,-244.0,32.0,-17.0,16.0,26.0,-2.0,-939.0,302.0
18.0,-243.0,36.0,-20.0,18.0,27.0,-5.0,-941.0,294.0
15.0,-245.0,33.0,-27.0,20.0,25.0,-10.0,-938.0,290.0
15.0,-243.0,34.0,-40.0,20.0,25.0,-19.0,-935.0,293.0
13.0,-247.0,32.0,-60.0,20.0,27.0,-24.0,-940.0,287.0
14.0,-246.0,34.0,-83.0,16.0,29.0,-27.0,-940.0,287.0
7.0,-248.0,34.0,-105.0,9.0,29.0,-36.0,-939.0,290.0
11.0,-246.0,35.0,-120.0,0.0,31.0,-34.0,-944.0,292.0
10.0,-246.0,36.0,-131.0,-9.0,37.0,-38.0,-948.0,298.0
10.0,-250.0,35.0,-137.0,-16.0,40.0,-46.0,-949.0,300.0
8.0,-248.0,42.0,-138.0,-20.0,42.0,-43.0,-950.0,300.0
7.0,-249.0,38.0,-132.0,-25.0,45.0,-51.0,-954.0,306.0
3.0,-248.0,35.0,-123.0,-27.0,46.0,-53.0,-952.0,306.0
7.0,-249.0,39.0,-111.0,-26.0,47.0,-46.0,-950.0,303.0
9.0,-247.0,33.0,-98.0,-23.0,46.0,-46.0,-950.0,299.0
12.0,-245.0,34.0,-86.0,-21.0,47.0,-38.0,-948.0,296.0
11.0,-248.0,35.0,-80.0,-15.0,47.0,-36.0,-941.0,293.0
14.0,-245.0,35.0,-74.0,-11.0,47.0,-32.0,-940.0,287.0
13.0,-245.0,33.0,-75.0,-6.0,48.0,-24.0,-941.0,283.0
13.0,-245.0,31.0,-77.0,-3.0,47.0,-27.0,-933.0,286.0
19.0,-244.0,30.0,-83.0,2.0,46.0,-25.0,-935.0,282.0
12.0,-241.0,32.0,-91.0,5.0,46.0,-25.0,-935.0,285.0
17.0,-241.0,33.0,-103.0,9.0,45.0,-16.0,-934.0,282.0
16.0,-242.0,29.0,-114.0,11.0,46.0,-18.0,-932.0,287.0
15.0,-244.0,33.0,-128.0,14.0,45.0,-19.0,-937.0,288.0
14.0,-248.0,35.0,-141.0,18.0,45.0,-22.0,-949.0,285.0
15.0,-249.0,37.0,-152.0,22.0,43.0,-26.0,-948.0,289.0
13.0,-251.0,26.0,-159.0,23.0,42.0,-31.0,-958.0,290.0
9.0,-250.0,38.0,-165.0,25.0,40.0,-33.0,-959.0,292.0
10.0,-252.0,31.0,-167.0,25.0,40.0,-43.0,-962.0,290.0
6.0,-251.0,28.0,-161.0,22.0,40.0,-46.0,-967.0,286.0
6.0,-254.0,33.0,-158.0,18.0,41.0,-49.0,-968.0,286.0
7.0,-254.0,33.0,-151.0,14.0,42.0,-57.0,-966.0,282.0
7.0,-253.0,29.0,-144.0,14.0,40.0,-51.0,-967.0,284.0
7.0,-252.0,32.0,-135.0,15.0,42.0,-55.0,-968.0,281.0
5.0,-254.0,28.0,-127.0,18.0,43.0,-58.0,-960.0,280.0
7.0,-252.0,32.0,-122.0,19.0,46.0,-57.0,-958.0,280.0
2.0,-249.0,32.0,-118.0,20.0,49.0,-56.0,-956.0,281.0
7.0,-249.0,29.0,-115.0,22.0,52.0,-56.0,-949.0,275.0
5.0,-248.0,31.0,-115.0,22.0,54.0,-60.0,-952.0,281.0
5.0,-249.0,28.0,-118.0,24.0,56.0,-56.0,-947.0,276.0
7.0,-248.0,28.0,-123.0,26.0,59.0,-53.0,-947.0,279.0
6.0,-247.0,32.0,-129.0,27.0,60.0,-53.0,-942.0,279.0
4.0,-246.0,32.0,-135.0,25.0,61.0,-50.0,-948.0,282.0
6.0,-245.0,29.0,-142.0,24.0,62.0,-52.0,-944.0,285.0
8.0,-249.0,32.0,-151.0,23.0,63.0,-50.0,-944.0,286.0
5.0,-248.0,34.0,-158.0,21.0,60.0,-54.0,-947.0,295.0
4.0,-251.0,33.0,-162.0,16.0,58.0,-55.0,-951.0,291.0
5.0,-250.0,34.0,-164.0,15.0,57.0,-63.0,-951.0,293.0
3.0,-249.0,38.0,-167.0,11.0,53.0,-63.0,-948.0,296.0
2.0,-248.0,35.0,-169.0,6.0,51.0,-63.0,-957.0,301.0
4.0,-253.0,35.0,-169.0,2.0,49.0,-66.0,-957.0,299.0
4.0,-252.0,36.0,-174.0,-2.0,48.0,-67.0,-960.0,297.0
2.0,-247.0,38.0,-175.0,-5.0,44.0,-63.0,-965.0,297.0
2.0,-251.0,37.0,-176.0,-7.0,42.0,-66.0,-964.0,292.0
2.0,-253.0,36.0,-175.0,-10.0,40.0,-67.0,-965.0,297.0
4.0,-253.0,35.0,-172.0,-10.0,40.0,-63.0,-969.0,286.0
0.0,-252.0,30.0,-168.0,-10.0,38.0,-65.0,-960.0,286.0
5.0,-252.0,31.0,-160.0,-9.0,36.0,-63.0,-962.0,284.0
3.0,-252.0,29.0,-153.0,-6.0,37.0,-57.0,-958.0,275.0
3.0,-249.0,31.0,-148.0,-5.0,38.0,-62.0,-958.0,266.0
7.0,-248.0,29.0,-147.0,-3.0,39.0,-55.0,-954.0,265.0
6.0,-248.0,27.0,-150.0,-1.0,39.0,-55.0,-953.0,260.0
5.0,-245.0,27.0,-155.0,0.0,42.0,-53.0,-945.0,249.0
3.0,-243.0,24.0,-162.0,0.0,45.0,-52.0,-943.0,254.0
6.0,-247.0,22.0,-170.0,-2.0,46.0,-55.0,-940.0,248.0
6.0,-246.0,23.0,-183.0,-4.0,48.0,-49.0,-936.0,243.0
5.0,-244.0,22.0,-194.0,-7.0,51.0,-48.0,-939.0,248.0
8.0,-245.0,20.0,-207.0,-12.0,53.0,-49.0,-936.0,239.0
5.0,-245.0,25.0,-218.0,-16.0,53.0,-51.0,-937.0,242.0
4.0,-244.0,23.0,-227.0,-22.0,55.0,-57.0,-941.0,239.0
3.0,-244.0,18.0,-236.0,-29.0,55.0,-59.0,-937.0,241.0
4.0,-244.0,19.0,-244.0,-32.0,55.0,-62.0,-939.0,238.0
5.0,-247.0,17.0,-253.0,-39.0,55.0,-59.0,-941.0,238.0
7.0,-248.0,17.0,-261.0,-42.0,55.0,-65.0,-942.0,224.0
6.0,-247.0,16.0,-268.0,-45.0,55.0,-61.0,-946.0,224.0
5.0,-249.0,17.0,-276.0,-45.0,55.0,-61.0,-947.0,225.0
3.0,-246.0,12.0,-282.0,-41.0,52.0,-57.0,-945.0,225.0
6.0,-249.0,15.0,-286.0,-33.0,50.0,-60.0,-945.0,225.0
6.0,-247.0,16.0,-287.0,-24.0,49.0,-60.0,-948.0,225.0
6.0,-247.0,18.0,-289.0,-15.0,47.0,-63.0,-945.0,226.0
5.0,-249.0,15.0,-293.0,-5.0,46.0,-62.0,-948.0,225.0
4.0,-250.0,14.0,-295.0,3.0,47.0,-62.0,-946.0,218.0
-5.0,-260.0,26.0,-300.0,9.0,44.0,-55.0,-950.0,210.0
3.0,-248.0,13.0,-305.0,15.0,43.0,-56.0,-955.0,214.0
4.0,-252.0,14.0,-310.0,22.0,43.0,-57.0,-958.0,207.0
6.0,-251.0,8.0,-314.0,26.0,42.0,-55.0,-957.0,201.0
3.0,-253.0,9.0,-313.0,28.0,39.0,-59.0,-956.0,197.0
5.0,-249.0,9.0,-311.0,30.0,38.0,-60.0,-955.0,190.0
3.0,-249.0,7.0,-302.0,28.0,35.0,-58.0,-954.0,185.0
3.0,-245.0,8.0,-289.0,23.0,34.0,-64.0,-938.0,179.0
5.0,-246.0,4.0,-278.0,15.0,32.0,-65.0,-938.0,173.0
3.0,-246.0,2.0,-268.0,5.0,31.0,-66.0,-928.0,162.0
2.0,-240.0,0.0,-265.0,-5.0,30.0,-70.0,-918.0,150.0
-7.0,-239.0,0.0,-260.0,-12.0,30.0,-74.0,-916.0,142.0
2.0,-238.0,-6.0,-263.0,-17.0,28.0,-73.0,-911.0,136.0
1.0,-234.0,-8.0,-271.0,-23.0,26.0,-74.0,-888.0,132.0
1.0,-228.0,-4.0,-286.0,-26.0,26.0,-72.0,-879.0,128.0
1.0,-226.0,-9.0,-306.0,-28.0,22.0,-65.0,-875.0,123.0
1.0,-227.0,-10.0,-328.0,-30.0,19.0,-67.0,-865.0,121.0
4.0,-229.0,-12.0,-350.0,-29.0,15.0,-62.0,-856.0,122.0
5.0,-224.0,-14.0,-374.0,-23.0,10.0,-66.0,-856.0,121.0
6.0,-224.0,-6.0,-398.0,-17.0,6.0,-63.0,-853.0,118.0
9.0,-225.0,-8.0,-417.0,-11.0,3.0,-56.0,-855.0,121.0
10.0,-222.0,-10.0,-434.0,-3.0,-2.0,-47.0,-854.0,118.0
7.0,-222.0,-8.0,-452.0,9.0,-5.0,-48.0,-850.0,123.0
10.0,-226.0,-8.0,-470.0,21.0,-7.0,-38.0,-856.0,121.0
13.0,-226.0,-6.0,-489.0,36.0,-8.0,-29.0,-864.0,118.0
16.0,-226.0,-9.0,-508.0,52.0,-9.0,-21.0,-865.0,123.0
19.0,-229.0,-10.0,-525.0,72.0,-10.0,-15.0,-871.0,121.0
21.0,-229.0,-11.0,-544.0,92.0,-9.0,-8.0,-877.0,125.0
22.0,-231.0,-11.0,-560.0,114.0,-9.0,-2.0,-883.0,117.0
22.0,-234.0,-11.0,-577.0,130.0,-6.0,4.0,-886.0,116.0
19.0,-233.0,-13.0,-593.0,146.0,-1.0,-3.0,-891.0,119.0
23.0,-235.0,-11.0,-604.0,157.0,4.0,-1.0,-891.0,107.0
20.0,-236.0,-13.0,-616.0,165.0,7.0,-8.0,-905.0,104.0
16.0,-236.0,-17.0,-627.0,171.0,15.0,-11.0,-908.0,98.0
16.0,-239.0,-20.0,-636.0,172.0,20.0,-22.0,-913.0,86.0
14.0,-239.0,-19.0,-643.0,171.0,25.0,-31.0,-916.0,85.0
10.0,-239.0,-20.0,-651.0,167.0,31.0,-32.0,-918.0,71.0
10.0,-242.0,-20.0,-660.0,163.0,36.0,-41.0,-915.0,72.0
7.0,-237.0,-23.0,-668.0,157.0,39.0,-48.0,-921.0,63.0
3.0,-242.0,-29.0,-673.0,150.0,41.0,-57.0,-914.0,54.0
2.0,-240.0,-32.0,-679.0,142.0,43.0,-72.0,-917.0,50.0
-2.0,-237.0,-29.0,-684.0,135.0,43.0,-74.0,-920.0,46.0
0.0,-238.0,-32.0,-688.0,125.0,45.0,-87.0,-919.0,48.0
-4.0,-237.0,-27.0,-694.0,114.0,47.0,-98.0,-916.0,45.0
-5.0,-238.0,-28.0,-700.0,104.0,49.0,-101.0,-910.0,47.0
-4.0,-242.0,-27.0,-704.0,97.0,49.0,-107.0,-911.0,45.0
-7.0,-234.0,-27.0,-706.0,91.0,50.0,-108.0,-909.0,52.0
-5.0,-241.0,-27.0,-704.0,87.0,50.0,-108.0,-908.0,56.0
-5.0,-241.0,-26.0,-701.0,89.0,51.0,-111.0,-910.0,57.0
-7.0,-238.0,-24.0,-693.0,95.0,51.0,-108.0,-917.0,55.0
-7.0,-239.0,-28.0,-683.0,103.0,52.0,-112.0,-919.0,54.0
-6.0,-242.0,-26.0,-673.0,117.0,52.0,-105.0,-921.0,55.0
-1.0,-244.0,-30.0,-664.0,132.0,54.0,-100.0,-932.0,51.0
0.0,-247.0,-26.0,-657.0,149.0,54.0,-92.0,-935.0,50.0
0.0,-246.0,-30.0,-655.0,165.0,54.0,-85.0,-941.0,48.0
1.0,-246.0,-32.0,-654.0,180.0,54.0,-83.0,-947.0,42.0
3.0,-253.0,-31.0,-659.0,193.0,57.0,-71.0,-955.0,39.0
4.0,-253.0,-33.0,-666.0,207.0,59.0,-61.0,-974.0,34.0
5.0,-256.0,-33.0,-674.0,216.0,62.0,-62.0,-982.0,41.0
6.0,-260.0,-33.0,-683.0,222.0,66.0,-58.0,-990.0,39.0
6.0,-262.0,-33.0,-688.0,223.0,72.0,-60.0,-1000.0,35.0
5.0,-263.0,-31.0,-687.0,222.0,75.0,-57.0,-1007.0,36.0
4.0,-265.0,-31.0,-679.0,219.0,77.0,-60.0,-1020.0,29.0
3.0,-266.0,-35.0,-662.0,214.0,78.0,-59.0,-1030.0,43.0
5.0,-271.0,-30.0,-639.0,212.0,79.0,-57.0,-1024.0,39.0
3.0,-271.0,-28.0,-609.0,208.0,77.0,-67.0,-1023.0,37.0
4.0,-272.0,-33.0,-573.0,204.0,74.0,-65.0,-1029.0,41.0
2.0,-269.0,-30.0,-534.0,200.0,70.0,-79.0,-1030.0,38.0
0.0,-270.0,-32.0,-487.0,195.0,63.0,-77.0,-1018.0,45.0
0.0,-268.0,-28.0,-441.0,191.0,57.0,-83.0,-1008.0,40.0
-1.0,-264.0,-28.0,-396.0,184.0,48.0,-92.0,-1002.0,40.0
-1.0,-258.0,-36.0,-355.0,178.0,38.0,-97.0,-989.0,38.0
-4.0,-256.0,-33.0,-323.0,172.0,29.0,-104.0,-977.0,31.0
-1.0,-253.0,-29.0,-300.0,165.0,20.0,-103.0,-961.0,28.0
-4.0,-251.0,-35.0,-287.0,161.0,13.0,-101.0,-951.0,20.0
-5.0,-248.0,-38.0,-286.0,155.0,5.0,-102.0,-945.0,11.0
-6.0,-246.0,-38.0,-296.0,153.0,0.0,-106.0,-938.0,1.0
-2.0,-249.0,-45.0,-317.0,152.0,-2.0,-104.0,-940.0,-12.0
-4.0,-242.0,-47.0,-350.0,152.0,-2.0,-102.0,-941.0,-20.0
-4.0,-247.0,-45.0,-391.0,155.0,-1.0,-107.0,-949.0,-28.0
-6.0,-252.0,-49.0,-438.0,160.0,0.0,-105.0,-962.0,-32.0
-4.0,-255.0,-51.0,-485.0,164.0,4.0,-105.0,-970.0,-32.0
-3.0,-257.0,-49.0,-527.0,165.0,8.0,-101.0,-987.0,-27.0
-4.0,-261.0,-49.0,-564.0,166.0,13.0,-102.0,-998.0,-28.0
-5.0,-264.0,-50.0,-589.0,165.0,15.0,-99.0,-1007.0,-20.0
-1.0,-267.0,-44.0,-603.0,163.0,20.0,-94.0,-1023.0,-11.0
-3.0,-269.0,-37.0,-601.0,162.0,24.0,-100.0,-1027.0,3.0
-3.0,-272.0,-39.0,-588.0,162.0,27.0,-94.0,-1037.0,17.0
0.0,-278.0,-38.0,-560.0,163.0,27.0,-91.0,-1048.0,24.0
-5.0,-276.0,-28.0,-517.0,160.0,27.0,-99.0,-1057.0,36.0
-2.0,-272.0,-29.0,-462.0,157.0,25.0,-102.0,-1053.0,41.0
-10.0,-271.0,-28.0,-402.0,153.0,22.0,-108.0,-1041.0,45.0
-5.0,-271.0,-27.0,-337.0,150.0,16.0,-109.0,-1026.0,46.0
-8.0,-269.0,-29.0,-276.0,146.0,13.0,-117.0,-1021.0,38.0
-13.0,-263.0,-33.0,-221.0,140.0,10.0,-121.0,-1005.0,31.0
-12.0,-261.0,-37.0,-175.0,133.0,8.0,-123.0,-1001.0,19.0
-15.0,-258.0,-41.0,-138.0,126.0,10.0,-125.0,-983.0,5.0
-14.0,-255.0,-44.0,-117.0,118.0,12.0,-138.0,-972.0,-5.0
-13.0,-255.0,-48.0,-110.0,110.0,18.0,-135.0,-967.0,-27.0
-11.0,-253.0,-50.0,-116.0,103.0,25.0,-124.0,-963.0,-38.0
-9.0,-255.0,-53.0,-132.0,98.0,36.0,-121.0,-969.0,-56.0
-7.0,-253.0,-59.0,-154.0,93.0,46.0,-125.0,-966.0,-56.0
-7.0,-255.0,-58.0,-179.0,90.0,59.0,-115.0,-972.0,-60.0
-8.0,-254.0,-59.0,-205.0,89.0,71.0,-110.0,-981.0,-61.0
-1.0,-258.0,-54.0,-232.0,89.0,80.0,-104.0,-990.0,-59.0
-4.0,-260.0,-55.0,-254.0,87.0,85.0,-100.0,-996.0,-50.0
-3.0,-264.0,-47.0,-269.0,85.0,92.0,-99.0,-1006.0,-39.0
-3.0,-268.0,-54.0,-271.0,84.0,96.0,-103.0,-1019.0,-39.0
-3.0,-268.0,-48.0,-266.0,81.0,99.0,-103.0,-1024.0,-30.0
-7.0,-268.0,-50.0,-245.0,79.0,100.0,-101.0,-1036.0,-20.0
-3.0,-271.0,-42.0,-221.0,75.0,97.0,-105.0,-1033.0,-14.0
-6.0,-272.0,-46.0,-195.0,66.0,94.0,-103.0,-1028.0,-15.0
-3.0,-270.0,-48.0,-159.0,56.0,93.0,-106.0,-1027.0,-26.0
-4.0,-269.0,-48.0,-124.0,46.0,91.0,-105.0,-1030.0,-26.0
-6.0,-265.0,-48.0,-90.0,36.0,92.0,-104.0,-1017.0,-26.0
-2.0,-265.0,-50.0,-61.0,29.0,94.0,-99.0,-1006.0,-31.0
-5.0,-264.0,-57.0,-32.0,24.0,90.0,-106.0,-1001.0,-50.0
-5.0,-257.0,-54.0,-19.0,20.0,87.0,-102.0,-998.0,-53.0
0.0,-258.0,-55.0,-17.0,22.0,83.0,-104.0,-991.0,-58.0
-3.0,-245.0,-65.0,-27.0,24.0,80.0,-107.0,-980.0,-60.0
-6.0,-254.0,-56.0,-46.0,28.0,73.0,-112.0,-968.0,-69.0
-4.0,-250.0,-58.0,-73.0,35.0,68.0,-111.0,-956.0,-66.0
-5.0,-250.0,-56.0,-102.0,40.0,65.0,-113.0,-949.0,-64.0
-6.0,-250.0,-59.0,-134.0,48.0,63.0,-112.0,-941.0,-57.0
-9.0,-245.0,-59.0,-165.0,52.0,63.0,-114.0,-941.0,-58.0
-11.0,-247.0,-50.0,-193.0,58.0,66.0,-116.0,-937.0,-50.0
-8.0,-245.0,-51.0,-220.0,63.0,67.0,-118.0,-935.0,-43.0
-7.0,-248.0,-51.0,-238.0,65.0,73.0,-119.0,-940.0,-40.0
-8.0,-249.0,-51.0,-248.0,67.0,81.0,-113.0,-941.0,-27.0
-1.0,-251.0,-46.0,-251.0,70.0,86.0,-105.0,-949.0,-27.0
-7.0,-248.0,-36.0,-251.0,74.0,91.0,-109.0,-949.0,-10.0
0.0,-255.0,-48.0,-238.0,77.0,98.0,-108.0,-961.0,-24.0
-3.0,-255.0,-49.0,-226.0,82.0,99.0,-102.0,-970.0,-19.0
-5.0,-259.0,-47.0,-213.0,88.0,95.0,-108.0,-978.0,-20.0
-6.0,-258.0,-44.0,-203.0,91.0,91.0,-107.0,-991.0,-15.0
-2.0,-261.0,-44.0,-184.0,90.0,86.0,-105.0,-990.0,-16.0
-1.0,-262.0,-47.0,-160.0,89.0,80.0,-103.0,-995.0,-13.0
-3.0,-259.0,-42.0,-132.0,87.0,71.0,-98.0,-996.0,-13.0
-3.0,-261.0,-41.0,-104.0,83.0,61.0,-102.0,-993.0,-1.0
-2.0,-259.0,-43.0,-73.0,76.0,54.0,-101.0,-990.0,-7.0
-5.0,-258.0,-43.0,-46.0,66.0,45.0,-103.0,-987.0,-10.0
-3.0,-259.0,-46.0,-22.0,55.0,36.0,-102.0,-990.0,-6.0
-4.0,-259.0,-46.0,-5.0,42.0,28.0,-103.0,-991.0,-11.0
-4.0,-260.0,-46.0,1.0,28.0,26.0,-105.0,-985.0,-13.0
-8.0,-256.0,-45.0,3.0,14.0,24.0,-102.0,-993.0,-11.0
-5.0,-256.0,-50.0,5.0,3.0,25.0,-107.0,-986.0,-13.0
-5.0,-256.0,-43.0,6.0,-6.0,27.0,-106.0,-982.0,-13.0
-6.0,-257.0,-44.0,11.0,-14.0,30.0,-112.0,-982.0,-12.0
-4.0,-256.0,-43.0,20.0,-18.0,31.0,-105.0,-980.0,-1.0
-3.0,-259.0,-44.0,35.0,-16.0,33.0,-108.0,-987.0,0.0
-10.0,-256.0,-40.0,39.0,-10.0,31.0,-117.0,-981.0,-4.0
-5.0,-257.0,-38.0,39.0,-3.0,31.0,-112.0,-981.0,4.0
-5.0,-259.0,-38.0,39.0,7.0,31.0,-114.0,-983.0,11.0
-5.0,-257.0,-37.0,46.0,19.0,29.0,-115.0,-971.0,22.0
-6.0,-254.0,-33.0,61.0,27.0,24.0,-110.0,-961.0,35.0
-6.0,-255.0,-35.0,86.0,32.0,21.0,-109.0,-962.0,38.0
-3.0,-253.0,-28.0,119.0,34.0,18.0,-106.0,-963.0,43.0
-5.0,-253.0,-30.0,161.0,30.0,16.0,-100.0,-967.0,43.0
-3.0,-255.0,-32.0,207.0,25.0,4.0,-101.0,-969.0,46.0
-3.0,-255.0,-32.0,250.0,18.0,-11.0,-106.0,-968.0,50.0
-6.0,-255.0,-32.0,288.0,7.0,-21.0,-105.0,-971.0,43.0
-5.0,-255.0,-28.0,324.0,-6.0,-40.0,-105.0,-969.0,48.0
-10.0,-257.0,-30.0,357.0,-15.0,-59.0,-107.0,-975.0,44.0
-3.0,-258.0,-31.0,385.0,-24.0,-80.0,-106.0,-979.0,42.0
-3.0,-256.0,-28.0,409.0,-32.0,-106.0,-106.0,-980.0,42.0
-6.0,-254.0,-30.0,429.0,-29.0,-131.0,-104.0,-969.0,46.0
-5.0,-255.0,-33.0,443.0,-23.0,-150.0,-116.0,-966.0,44.0
-8.0,-253.0,-34.0,445.0,-20.0,-158.0,-114.0,-955.0,33.0
-8.0,-251.0,-33.0,437.0,-15.0,-161.0,-108.0,-961.0,38.0
-8.0,-252.0,-33.0,423.0,-8.0,-160.0,-111.0,-960.0,30.0
-5.0,-253.0,-35.0,405.0,-1.0,-151.0,-106.0,-960.0,32.0
-2.0,-256.0,-27.0,390.0,1.0,-140.0,-101.0,-968.0,36.0
-1.0,-258.0,-31.0,385.0,5.0,-129.0,-99.0,-970.0,45.0
-2.0,-263.0,-26.0,398.0,10.0,-115.0,-101.0,-988.0,63.0
0.0,-268.0,-23.0,424.0,13.0,-101.0,-94.0,-1008.0,71.0
3.0,-276.0,-28.0,456.0,18.0,-89.0,-75.0,-1035.0,68.0
1.0,-278.0,-23.0,487.0,26.0,-91.0,-71.0,-1064.0,68.0
5.0,-282.0,-19.0,514.0,34.0,-92.0,-64.0,-1069.0,85.0
8.0,-288.0,-16.0,547.0,44.0,-93.0,-56.0,-1094.0,83.0
9.0,-289.0,-20.0,576.0,56.0,-91.0,-40.0,-1103.0,79.0
14.0,-287.0,-16.0,589.0,64.0,-92.0,-35.0,-1098.0,80.0
12.0,-283.0,-23.0,599.0,68.0,-95.0,-28.0,-1082.0,80.0
14.0,-274.0,-16.0,609.0,68.0,-95.0,-31.0,-1054.0,81.0
14.0,-275.0,-20.0,620.0,60.0,-103.0,-27.0,-1050.0,67.0
13.0,-266.0,-20.0,631.0,46.0,-115.0,-40.0,-1021.0,70.0
10.0,-257.0,-23.0,642.0,27.0,-124.0,-36.0,-972.0,70.0
2.0,-254.0,-27.0,655.0,8.0,-136.0,-69.0,-977.0,53.0
0.0,-250.0,-30.0,649.0,-11.0,-135.0,-85.0,-953.0,44.0
0.0,-249.0,-27.0,631.0,-24.0,-124.0,-81.0,-937.0,47.0
1.0,-243.0,-26.0,609.0,-36.0,-115.0,-95.0,-924.0,53.0
-3.0,-244.0,-27.0,588.0,-37.0,-114.0,-98.0,-926.0,58.0
-7.0,-233.0,-22.0,565.0,-30.0,-111.0,-106.0,-910.0,58.0
-9.0,-235.0,-19.0,540.0,-17.0,-104.0,-109.0,-903.0,73.0
-10.0,-237.0,-20.0,524.0,-2.0,-99.0,-122.0,-907.0,77.0
-9.0,-231.0,-19.0,522.0,15.0,-90.0,-126.0,-886.0,98.0
-10.0,-240.0,-17.0,539.0,31.0,-90.0,-118.0,-917.0,97.0
-3.0,-242.0,-10.0,552.0,48.0,-99.0,-111.0,-919.0,112.0
-7.0,-238.0,-10.0,564.0,63.0,-117.0,-115.0,-904.0,128.0
-10.0,-250.0,-9.0,581.0,75.0,-117.0,-136.0,-954.0,127.0
-6.0,-256.0,-5.0,585.0,88.0,-111.0,-106.0,-973.0,127.0
-2.0,-255.0,-4.0,582.0,100.0,-112.0,-97.0,-978.0,144.0
2.0,-260.0,0.0,579.0,114.0,-115.0,-81.0,-1000.0,152.0
1.0,-264.0,0.0,577.0,123.0,-110.0,-74.0,-1019.0,155.0
4.0,-263.0,9.0,576.0,129.0,-98.0,-60.0,-995.0,180.0
4.0,-263.0,7.0,598.0,130.0,-82.0,-46.0,-1009.0,192.0
8.0,-270.0,3.0,619.0,124.0,-75.0,-50.0,-1026.0,172.0
2.0,-265.0,4.0,618.0,116.0,-61.0,-53.0,-1018.0,171.0
0.0,-260.0,4.0,611.0,105.0,-39.0,-65.0,-998.0,184.0
0.0,-257.0,6.0,610.0,85.0,-14.0,-74.0,-995.0,182.0
-5.0,-256.0,4.0,620.0,72.0,5.0,-95.0,-981.0,171.0
-3.0,-259.0,-1.0,621.0,58.0,34.0,-95.0,-999.0,171.0
-10.0,-253.0,3.0,606.0,41.0,64.0,-122.0,-972.0,168.0
-12.0,-252.0,9.0,588.0,17.0,105.0,-151.0,-962.0,187.0
-11.0,-250.0,7.0,569.0,-5.0,136.0,-126.0,-969.0,177.0
-16.0,-245.0,3.0,532.0,-31.0,147.0,-149.0,-968.0,172.0
-13.0,-265.0,0.0,483.0,-52.0,165.0,-134.0,-1026.0,155.0
-12.0,-264.0,0.0,415.0,-71.0,162.0,-112.0,-1019.0,165.0
-12.0,-268.0,2.0,353.0,-87.0,131.0,-134.0,-1033.0,156.0
-15.0,-264.0,5.0,302.0,-94.0,98.0,-147.0,-1029.0,170.0
-7.0,-253.0,5.0,286.0,-84.0,86.0,-126.0,-989.0,176.0
-16.0,-277.0,-4.0,281.0,-69.0,87.0,-130.0,-1072.0,136.0
-6.0,-273.0,2.0,249.0,-50.0,76.0,-116.0,-1055.0,159.0
-22.0,-258.0,7.0,244.0,-32.0,69.0,-160.0,-998.0,183.0
1.0,-273.0,14.0,268.0,-15.0,92.0,-86.0,-1052.0,206.0
-6.0,-269.0,5.0,293.0,-15.0,88.0,-104.0,-1053.0,195.0
-4.0,-266.0,17.0,301.0,-10.0,81.0,-88.0,-1034.0,202.0
-2.0,-255.0,19.0,323.0,-2.0,76.0,-108.0,-983.0,218.0
-25.0,-281.0,2.0,391.0,-1.0,72.0,-107.0,-1071.0,196.0
-5.0,-273.0,5.0,414.0,-6.0,68.0,-92.0,-1070.0,175.0
-1.0,-280.0,1.0,409.0,-18.0,44.0,-100.0,-1079.0,170.0
-7.0,-275.0,5.0,401.0,-28.0,29.0,-130.0,-1057.0,172.0
-19.0,-263.0,10.0,417.0,-33.0,32.0,-130.0,-979.0,237.0
-4.0,-274.0,0.0,468.0,-36.0,52.0,-120.0,-1055.0,152.0
-7.0,-277.0,-1.0,461.0,-39.0,68.0,-105.0,-1079.0,149.0
-22.0,-250.0,12.0,454.0,-38.0,80.0,-102.0,-989.0,210.0
5.0,-287.0,1.0,486.0,-35.0,115.0,-59.0,-1101.0,142.0
5.0,-279.0,3.0,453.0,-44.0,111.0,-61.0,-1093.0,170.0
-7.0,-270.0,19.0,436.0,-37.0,92.0,-104.0,-1036.0,209.0
1.0,-264.0,42.0,459.0,-21.0,107.0,-94.0,-881.0,308.0
1.0,-273.0,13.0,545.0,-11.0,126.0,-72.0,-1068.0,221.0
-13.0,-242.0,37.0,583.0,-8.0,130.0,-161.0,-921.0,254.0
8.0,-288.0,7.0,666.0,4.0,155.0,-50.0,-1115.0,200.0
18.0,-288.0,4.0,665.0,-4.0,142.0,0.0,-1128.0,173.0
-5.0,-244.0,30.0,635.0,1.0,77.0,-66.0,-1011.0,212.0
3.0,-269.0,22.0,667.0,13.0,70.0,-87.0,-1022.0,226.0
9.0,-271.0,14.0,660.0,4.0,81.0,-44.0,-1060.0,217.0
16.0,-262.0,27.0,629.0,1.0,81.0,-49.0,-1009.0,248.0
-15.0,-235.0,39.0,639.0,6.0,78.0,-185.0,-913.0,344.0
18.0,-271.0,18.0,704.0,0.0,124.0,-1.0,-1052.0,229.0
19.0,-275.0,6.0,670.0,-27.0,98.0,-29.0,-1077.0,190.0
20.0,-269.0,9.0,597.0,-27.0,39.0,-18.0,-1038.0,185.0
-6.0,-247.0,25.0,514.0,-19.0,-26.0,-107.0,-948.0,252.0
-15.0,-210.0,54.0,475.0,-18.0,-16.0,-141.0,-802.0,368.0
-15.0,-221.0,45.0,524.0,-22.0,48.0,-154.0,-837.0,346.0
12.0,-260.0,21.0,546.0,-32.0,112.0,-35.0,-999.0,234.0
15.0,-271.0,9.0,488.0,-41.0,102.0,-26.0,-1048.0,204.0
-1.0,-260.0,20.0,416.0,-29.0,54.0,-93.0,-993.0,233.0
-10.0,-256.0,18.0,396.0,-15.0,41.0,-117.0,-999.0,262.0
8.0,-279.0,12.0,379.0,-14.0,59.0,-44.0,-1084.0,205.0
6.0,-270.0,13.0,314.0,-23.0,28.0,-56.0,-1037.0,234.0
-40.0,-194.0,59.0,281.0,-16.0,-14.0,-173.0,-794.0,357.0
-7.0,-273.0,19.0,333.0,-10.0,43.0,-124.0,-1028.0,238.0
11.0,-285.0,5.0,293.0,-26.0,65.0,-51.0,-1093.0,187.0
-8.0,-273.0,19.0,228.0,-16.0,17.0,-110.0,-1062.0,200.0
-31.0,-267.0,31.0,206.0,16.0,22.0,-193.0,-1013.0,288.0
-16.0,-284.0,55.0,305.0,41.0,106.0,-140.0,-1058.0,372.0
-14.0,-323.0,38.0,457.0,53.0,209.0,-158.0,-1198.0,316.0
11.0,-334.0,19.0,567.0,70.0,312.0,-49.0,-1295.0,228.0
1.0,-298.0,30.0,640.0,94.0,298.0,-85.0,-1128.0,268.0
-12.0,-269.0,45.0,728.0,117.0,269.0,-123.0,-1020.0,310.0
-17.0,-255.0,39.0,848.0,122.0,306.0,-178.0,-949.0,328.0
-3.0,-256.0,31.0,954.0,130.0,357.0,-111.0,-993.0,286.0
-6.0,-271.0,26.0,1048.0,142.0,377.0,-117.0,-1033.0,287.0
-2.0,-284.0,19.0,1059.0,148.0,370.0,-96.0,-1116.0,225.0
-4.0,-271.0,32.0,990.0,169.0,317.0,-98.0,-1073.0,265.0
-25.0,-249.0,55.0,936.0,187.0,259.0,-167.0,-972.0,376.0
-48.0,-204.0,83.0,968.0,189.0,303.0,-225.0,-828.0,447.0
-7.0,-279.0,48.0,1103.0,176.0,397.0,-62.0,-1018.0,415.0
-9.0,-291.0,20.0,1117.0,142.0,389.0,-130.0,-1161.0,232.0
1.0,-280.0,29.0,1014.0,140.0,336.0,-90.0,-1100.0,271.0
-12.0,-269.0,38.0,922.0,151.0,249.0,-122.0,-1044.0,312.0
-82.0,-175.0,83.0,872.0,152.0,201.0,-268.0,-678.0,488.0
-10.0,-262.0,57.0,958.0,158.0,321.0,-125.0,-1030.0,374.0
1.0,-292.0,31.0,983.0,136.0,353.0,-69.0,-1147.0,281.0
0.0,-282.0,33.0,904.0,132.0,269.0,-98.0,-1098.0,299.0
-23.0,-250.0,61.0,816.0,137.0,162.0,-197.0,-941.0,386.0
-24.0,-241.0,65.0,782.0,131.0,105.0,-184.0,-890.0,421.0
-14.0,-239.0,89.0,879.0,134.0,187.0,-132.0,-925.0,510.0
3.0,-308.0,34.0,974.0,104.0,232.0,-61.0,-1196.0,291.0
6.0,-280.0,40.0,890.0,103.0,161.0,-61.0,-1078.0,315.0
-10.0,-257.0,64.0,796.0,122.0,60.0,-108.0,-993.0,401.0
-5.0,-242.0,70.0,749.0,127.0,-9.0,-107.0,-939.0,437.0
17.0,-219.0,81.0,691.0,148.0,-160.0,-23.0,-830.0,496.0
-28.0,-230.0,63.0,668.0,184.0,-315.0,-181.0,-888.0,426.0
22.0,-227.0,103.0,625.0,177.0,-346.0,25.0,-815.0,585.0
-54.0,-274.0,66.0,685.0,167.0,-338.0,-281.0,-1085.0,421.0
-9.0,-280.0,34.0,611.0,137.0,-247.0,-94.0,-1108.0,294.0
-27.0,-241.0,63.0,458.0,123.0,-250.0,-185.0,-937.0,401.0
-22.0,-238.0,66.0,372.0,115.0,-224.0,-157.0,-917.0,418.0
-18.0,-246.0,72.0,331.0,103.0,-227.0,-162.0,-929.0,447.0
-23.0,-243.0,63.0,313.0,88.0,-245.0,-168.0,-927.0,415.0
-31.0,-243.0,64.0,286.0,61.0,-252.0,-171.0,-938.0,407.0
-20.0,-247.0,72.0,272.0,51.0,-255.0,-155.0,-945.0,448.0
-28.0,-242.0,67.0,281.0,39.0,-247.0,-178.0,-956.0,430.0
-20.0,-246.0,81.0,280.0,20.0,-231.0,-168.0,-945.0,473.0
11.0,-233.0,99.0,320.0,17.0,-240.0,-10.0,-819.0,609.0
-12.0,-222.0,84.0,401.0,-1.0,-321.0,-120.0,-907.0,476.0
-47.0,-268.0,60.0,428.0,-21.0,-356.0,-283.0,-1034.0,387.0
-18.0,-254.0,75.0,393.0,-12.0,-276.0,-172.0,-984.0,453.0
-26.0,-247.0,72.0,375.0,-22.0,-213.0,-155.0,-966.0,459.0
-16.0,-251.0,97.0,370.0,-17.0,-168.0,-143.0,-958.0,540.0
-14.0,-250.0,94.0,424.0,-9.0,-145.0,-115.0,-955.0,536.0
-8.0,-248.0,83.0,491.0,-19.0,-137.0,-129.0,-946.0,501.0
-20.0,-252.0,84.0,535.0,-32.0,-123.0,-154.0,-945.0,500.0
-8.0,-244.0,95.0,586.0,-36.0,-100.0,-134.0,-945.0,538.0
-19.0,-245.0,91.0,647.0,-36.0,-84.0,-137.0,-938.0,503.0
-11.0,-242.0,80.0,691.0,-43.0,-67.0,-125.0,-926.0,484.0
-13.0,-235.0,79.0,711.0,-52.0,-60.0,-104.0,-910.0,468.0
-11.0,-237.0,72.0,711.0,-57.0,-60.0,-130.0,-921.0,463.0
-5.0,-238.0,90.0,704.0,-59.0,-55.0,-110.0,-923.0,519.0
-10.0,-243.0,92.0,719.0,-47.0,-50.0,-125.0,-921.0,532.0
-5.0,-238.0,98.0,745.0,-42.0,-48.0,-110.0,-911.0,527.0
-15.0,-233.0,90.0,755.0,-49.0,-54.0,-105.0,-890.0,532.0
11.0,-217.0,112.0,764.0,-53.0,-61.0,-33.0,-825.0,607.0
-35.0,-248.0,72.0,793.0,-64.0,-115.0,-224.0,-961.0,456.0
-25.0,-241.0,89.0,746.0,-58.0,-63.0,-168.0,-926.0,522.0
-14.0,-238.0,104.0,731.0,-60.0,-24.0,-131.0,-916.0,563.0
-10.0,-237.0,100.0,762.0,-49.0,-18.0,-118.0,-915.0,561.0
-9.0,-240.0,93.0,802.0,-43.0,-23.0,-125.0,-917.0,545.0
-7.0,-236.0,95.0,824.0,-46.0,-25.0,-110.0,-907.0,525.0
-4.0,-232.0,92.0,823.0,-46.0,-25.0,-102.0,-904.0,529.0
-1.0,-236.0,96.0,818.0,-47.0,-22.0,-93.0,-899.0,549.0
-1.0,-236.0,101.0,823.0,-53.0,-17.0,-95.0,-907.0,554.0
-3.0,-235.0,101.0,835.0,-59.0,-8.0,-96.0,-895.0,564.0
-8.0,-233.0,100.0,851.0,-67.0,-1.0,-112.0,-906.0,567.0
-8.0,-232.0,101.0,871.0,-76.0,11.0,-107.0,-886.0,567.0
-11.0,-229.0,99.0,892.0,-86.0,17.0,-113.0,-872.0,567.0
-9.0,-227.0,97.0,911.0,-89.0,27.0,-125.0,-868.0,558.0
-12.0,-227.0,99.0,921.0,-91.0,38.0,-121.0,-868.0,555.0
-10.0,-226.0,93.0,924.0,-96.0,43.0,-118.0,-868.0,551.0
-10.0,-227.0,101.0,925.0,-100.0,46.0,-114.0,-856.0,562.0
-8.0,-221.0,105.0,936.0,-101.0,53.0,-115.0,-850.0,576.0
-10.0,-215.0,106.0,956.0,-102.0,61.0,-109.0,-831.0,576.0
-22.0,-215.0,93.0,983.0,-103.0,68.0,-182.0,-878.0,532.0
-2.0,-214.0,102.0,974.0,-116.0,103.0,-94.0,-822.0,559.0
-2.0,-213.0,105.0,979.0,-123.0,111.0,-71.0,-813.0,588.0
-4.0,-213.0,125.0,1003.0,-129.0,111.0,-80.0,-804.0,611.0
-1.0,-204.0,116.0,1039.0,-130.0,115.0,-87.0,-788.0,621.0
0.0,-201.0,126.0,1069.0,-131.0,117.0,-85.0,-775.0,651.0
-1.0,-201.0,139.0,1088.0,-135.0,121.0,-91.0,-782.0,715.0
-7.0,-210.0,162.0,1100.0,-147.0,126.0,-100.0,-812.0,804.0
-11.0,-225.0,189.0,1123.0,-166.0,125.0,-115.0,-858.0,905.0
-14.0,-236.0,201.0,1173.0,-189.0,123.0,-117.0,-898.0,982.0
-15.0,-248.0,216.0,1251.0,-214.0,123.0,-138.0,-945.0,1014.0
-18.0,-258.0,218.0,1333.0,-239.0,122.0,-141.0,-992.0,1028.0
-15.0,-269.0,214.0,1405.0,-253.0,123.0,-145.0,-1040.0,1024.0
-19.0,-281.0,215.0,1462.0,-262.0,128.0,-142.0,-1085.0,1015.0
-18.0,-289.0,214.0,1498.0,-268.0,140.0,-142.0,-1122.0,1017.0
-19.0,-300.0,212.0,1519.0,-277.0,152.0,-147.0,-1150.0,1008.0
-23.0,-304.0,206.0,1542.0,-291.0,168.0,-156.0,-1170.0,998.0
-27.0,-308.0,202.0,1574.0,-307.0,183.0,-179.0,-1172.0,976.0
-32.0,-309.0,193.0,1629.0,-316.0,195.0,-193.0,-1175.0,947.0
-26.0,-304.0,185.0,1718.0,-321.0,206.0,-177.0,-1162.0,919.0
-25.0,-296.0,182.0,1832.0,-324.0,217.0,-169.0,-1131.0,877.0
-19.0,-275.0,168.0,1958.0,-325.0,234.0,-153.0,-1072.0,838.0
-15.0,-250.0,161.0,2075.0,-324.0,256.0,-144.0,-974.0,797.0
-14.0,-221.0,144.0,2161.0,-317.0,286.0,-130.0,-859.0,758.0
-10.0,-186.0,133.0,2198.0,-309.0,315.0,-117.0,-746.0,709.0
-5.0,-154.0,128.0,2170.0,-303.0,342.0,-106.0,-623.0,675.0
-1.0,-127.0,125.0,2073.0,-298.0,361.0,-97.0,-513.0,666.0
-5.0,-98.0,125.0,1922.0,-290.0,377.0,-96.0,-412.0,657.0
0.0,-76.0,130.0,1736.0,-277.0,391.0,-92.0,-321.0,678.0
0.0,-56.0,132.0,1536.0,-262.0,403.0,-91.0,-247.0,703.0
0.0,-46.0,143.0,1344.0,-252.0,408.0,-88.0,-192.0,739.0
1.0,-41.0,153.0,1171.0,-247.0,402.0,-72.0,-162.0,771.0
0.0,-35.0,157.0,1026.0,-248.0,381.0,-91.0,-132.0,800.0
0.0,-34.0,165.0,907.0,-255.0,353.0,-72.0,-133.0,820.0
0.0,-33.0,165.0,803.0,-265.0,309.0,-80.0,-125.0,837.0
-6.0,-30.0,169.0,708.0,-271.0,265.0,-108.0,-119.0,852.0
-6.0,-30.0,174.0,618.0,-271.0,233.0,-96.0,-130.0,854.0
-7.0,-36.0,170.0,530.0,-269.0,205.0,-98.0,-146.0,850.0
-6.0,-48.0,168.0,442.0,-260.0,186.0,-107.0,-179.0,849.0
-3.0,-63.0,165.0,359.0,-246.0,170.0,-107.0,-226.0,839.0
-13.0,-68.0,171.0,284.0,-231.0,161.0,-114.0,-282.0,843.0
-16.0,-87.0,169.0,227.0,-222.0,165.0,-129.0,-343.0,841.0
-17.0,-99.0,172.0,195.0,-220.0,178.0,-138.0,-379.0,851.0
-16.0,-111.0,181.0,184.0,-226.0,195.0,-149.0,-409.0,868.0
-28.0,-121.0,179.0,205.0,-241.0,210.0,-163.0,-447.0,884.0
-20.0,-129.0,182.0,254.0,-263.0,231.0,-147.0,-497.0,890.0
-19.0,-135.0,187.0,321.0,-295.0,242.0,-159.0,-509.0,911.0
-13.0,-145.0,183.0,406.0,-318.0,251.0,-131.0,-537.0,910.0
-15.0,-148.0,187.0,498.0,-332.0,246.0,-125.0,-534.0,916.0
-7.0,-142.0,188.0,595.0,-332.0,236.0,-104.0,-535.0,910.0
-5.0,-140.0,188.0,685.0,-320.0,218.0,-73.0,-535.0,913.0
0.0,-136.0,187.0,762.0,-302.0,196.0,-73.0,-507.0,913.0
4.0,-128.0,184.0,819.0,-276.0,174.0,-57.0,-485.0,912.0
8.0,-122.0,182.0,852.0,-253.0,146.0,-41.0,-471.0,903.0
13.0,-112.0,181.0,857.0,-233.0,119.0,-20.0,-453.0,877.0
17.0,-110.0,178.0,836.0,-210.0,81.0,-8.0,-428.0,869.0
16.0,-103.0,175.0,796.0,-189.0,44.0,-5.0,-404.0,856.0
20.0,-103.0,174.0,735.0,-171.0,6.0,0.0,-392.0,857.0
17.0,-98.0,167.0,663.0,-157.0,-37.0,0.0,-381.0,839.0
8.0,-89.0,163.0,577.0,-149.0,-71.0,-2.0,-373.0,837.0
16.0,-91.0,167.0,495.0,-142.0,-103.0,-4.0,-359.0,833.0
19.0,-91.0,165.0,404.0,-133.0,-127.0,2.0,-388.0,792.0
16.0,-84.0,169.0,301.0,-126.0,-149.0,-21.0,-327.0,847.0
14.0,-87.0,167.0,234.0,-110.0,-164.0,-19.0,-333.0,836.0
14.0,-90.0,164.0,149.0,-95.0,-178.0,-27.0,-389.0,778.0
7.0,-81.0,178.0,51.0,-89.0,-185.0,-38.0,-309.0,881.0
10.0,-97.0,171.0,12.0,-78.0,-190.0,-49.0,-351.0,865.0
2.0,-85.0,190.0,-56.0,-76.0,-180.0,-64.0,-310.0,921.0
3.0,-88.0,185.0,-67.0,-75.0,-169.0,-64.0,-334.0,913.0
2.0,-95.0,187.0,-82.0,-78.0,-166.0,-63.0,-400.0,869.0
-1.0,-91.0,196.0,-105.0,-81.0,-162.0,-86.0,-343.0,948.0
0.0,-93.0,197.0,-95.0,-79.0,-156.0,-88.0,-377.0,934.0
-6.0,-92.0,198.0,-86.0,-77.0,-147.0,-105.0,-354.0,956.0
-1.0,-96.0,200.0,-71.0,-72.0,-133.0,-92.0,-372.0,975.0
0.0,-100.0,198.0,-66.0,-69.0,-124.0,-94.0,-388.0,962.0
-2.0,-89.0,201.0,-73.0,-70.0,-120.0,-98.0,-336.0,986.0
-6.0,-92.0,199.0,-74.0,-73.0,-118.0,-97.0,-375.0,951.0
0.0,-86.0,202.0,-94.0,-73.0,-107.0,-95.0,-324.0,980.0
2.0,-96.0,192.0,-107.0,-72.0,-97.0,-76.0,-380.0,924.0
1.0,-89.0,196.0,-146.0,-75.0,-93.0,-73.0,-346.0,956.0
4.0,-94.0,192.0,-167.0,-74.0,-88.0,-57.0,-357.0,937.0
9.0,-100.0,193.0,-180.0,-64.0,-79.0,-36.0,-370.0,929.0
9.0,-97.0,187.0,-178.0,-56.0,-74.0,-41.0,-366.0,926.0
7.0,-99.0,186.0,-159.0,-41.0,-64.0,-45.0,-378.0,909.0
10.0,-101.0,186.0,-137.0,-29.0,-55.0,-36.0,-377.0,906.0
16.0,-107.0,179.0,-109.0,-21.0,-49.0,-34.0,-390.0,885.0
12.0,-102.0,179.0,-79.0,-15.0,-51.0,-21.0,-382.0,878.0
17.0,-103.0,174.0,-50.0,-16.0,-58.0,-13.0,-396.0,864.0
16.0,-106.0,177.0,-24.0,-23.0,-65.0,-8.0,-400.0,867.0
17.0,-102.0,178.0,-20.0,-32.0,-70.0,-7.0,-388.0,881.0
16.0,-100.0,181.0,-21.0,-42.0,-84.0,5.0,-369.0,900.0
15.0,-96.0,184.0,-19.0,-46.0,-95.0,-5.0,-374.0,909.0
15.0,-98.0,187.0,-23.0,-44.0,-103.0,-3.0,-370.0,911.0
18.0,-97.0,192.0,-32.0,-40.0,-107.0,-1.0,-356.0,930.0
20.0,-97.0,188.0,-41.0,-35.0,-116.0,-2.0,-372.0,918.0
15.0,-88.0,193.0,-65.0,-32.0,-125.0,-16.0,-339.0,942.0
16.0,-85.0,197.0,-70.0,-27.0,-117.0,-19.0,-335.0,960.0
12.0,-87.0,198.0,-77.0,-26.0,-105.0,-19.0,-328.0,968.0
13.0,-89.0,193.0,-87.0,-29.0,-92.0,-20.0,-335.0,949.0
12.0,-87.0,195.0,-108.0,-39.0,-79.0,-20.0,-324.0,960.0
14.0,-83.0,193.0,-130.0,-51.0,-77.0,-17.0,-332.0,935.0
15.0,-79.0,196.0,-158.0,-58.0,-58.0,-26.0,-298.0,956.0
13.0,-77.0,180.0,-166.0,-62.0,-37.0,-14.0,-318.0,930.0
15.0,-89.0,176.0,-191.0,-63.0,-18.0,-22.0,-346.0,878.0
17.0,-86.0,183.0,-249.0,-61.0,-6.0,-7.0,-342.0,893.0
13.0,-87.0,175.0,-293.0,-53.0,-3.0,-27.0,-342.0,866.0
12.0,-91.0,178.0,-343.0,-39.0,12.0,-34.0,-348.0,866.0
9.0,-92.0,177.0,-385.0,-29.0,20.0,-36.0,-349.0,869.0
6.0,-102.0,175.0,-424.0,-21.0,31.0,-44.0,-395.0,862.0
7.0,-105.0,178.0,-470.0,-11.0,42.0,-45.0,-409.0,871.0
5.0,-113.0,178.0,-502.0,-8.0,44.0,-49.0,-430.0,881.0
2.0,-114.0,184.0,-524.0,-6.0,43.0,-63.0,-429.0,911.0
-5.0,-125.0,185.0,-522.0,-7.0,44.0,-71.0,-469.0,915.0
2.0,-127.0,188.0,-526.0,-15.0,34.0,-77.0,-478.0,920.0
-4.0,-118.0,197.0,-529.0,-22.0,27.0,-92.0,-449.0,950.0
-6.0,-129.0,184.0,-497.0,-28.0,34.0,-103.0,-506.0,912.0
2.0,-127.0,192.0,-477.0,-29.0,38.0,-62.0,-466.0,963.0
5.0,-131.0,192.0,-425.0,-24.0,25.0,-60.0,-493.0,935.0
6.0,-125.0,194.0,-389.0,-14.0,4.0,-55.0,-479.0,938.0
4.0,-126.0,187.0,-353.0,-1.0,-9.0,-57.0,-477.0,926.0
4.0,-127.0,182.0,-323.0,11.0,-14.0,-59.0,-496.0,885.0
8.0,-125.0,180.0,-319.0,15.0,-9.0,-45.0,-472.0,880.0
8.0,-128.0,169.0,-297.0,15.0,-7.0,-37.0,-479.0,849.0
7.0,-129.0,159.0,-285.0,16.0,-4.0,-34.0,-507.0,799.0
15.0,-124.0,157.0,-305.0,19.0,1.0,-24.0,-469.0,816.0
12.0,-123.0,148.0,-310.0,18.0,6.0,-18.0,-474.0,783.0
16.0,-124.0,149.0,-329.0,14.0,11.0,-12.0,-477.0,775.0
14.0,-127.0,147.0,-359.0,5.0,14.0,-9.0,-484.0,764.0
18.0,-127.0,147.0,-395.0,-2.0,18.0,-6.0,-486.0,771.0
17.0,-131.0,157.0,-426.0,-7.0,22.0,-2.0,-494.0,782.0
16.0,-131.0,159.0,-451.0,-9.0,25.0,-5.0,-504.0,798.0
16.0,-135.0,164.0,-465.0,-10.0,28.0,-6.0,-517.0,818.0
16.0,-138.0,176.0,-464.0,-11.0,30.0,-12.0,-520.0,853.0
15.0,-138.0,182.0,-448.0,-14.0,28.0,-15.0,-527.0,882.0
13.0,-138.0,186.0,-411.0,-17.0,24.0,-22.0,-529.0,904.0
13.0,-139.0,190.0,-357.0,-24.0,20.0,-25.0,-527.0,926.0
8.0,-139.0,191.0,-290.0,-28.0,18.0,-30.0,-525.0,933.0
8.0,-139.0,191.0,-218.0,-33.0,21.0,-42.0,-522.0,938.0
6.0,-136.0,192.0,-144.0,-35.0,21.0,-49.0,-518.0,931.0
3.0,-133.0,190.0,-78.0,-37.0,27.0,-54.0,-516.0,921.0
3.0,-133.0,183.0,-26.0,-37.0,33.0,-59.0,-505.0,911.0
3.0,-130.0,179.0,9.0,-35.0,42.0,-58.0,-509.0,888.0
4.0,-133.0,180.0,17.0,-35.0,51.0,-59.0,-512.0,884.0
3.0,-129.0,181.0,7.0,-31.0,62.0,-59.0,-516.0,876.0
9.0,-136.0,175.0,-18.0,-27.0,68.0,-52.0,-516.0,868.0
7.0,-137.0,175.0,-55.0,-25.0,68.0,-42.0,-520.0,859.0
12.0,-138.0,171.0,-94.0,-22.0,63.0,-34.0,-523.0,854.0
9.0,-141.0,165.0,-136.0,-15.0,55.0,-45.0,-543.0,827.0
10.0,-140.0,171.0,-179.0,-10.0,43.0,-31.0,-542.0,846.0
11.0,-145.0,169.0,-210.0,-5.0,29.0,-35.0,-551.0,840.0
7.0,-145.0,173.0,-233.0,-5.0,14.0,-38.0,-566.0,848.0
7.0,-148.0,174.0,-241.0,-8.0,2.0,-43.0,-564.0,854.0
8.0,-148.0,177.0,-230.0,-17.0,-8.0,-41.0,-566.0,864.0
8.0,-147.0,179.0,-203.0,-23.0,-13.0,-44.0,-555.0,877.0
12.0,-144.0,181.0,-160.0,-28.0,-15.0,-38.0,-546.0,880.0
10.0,-142.0,178.0,-109.0,-29.0,-19.0,-44.0,-536.0,878.0
8.0,-139.0,178.0,-59.0,-30.0,-20.0,-40.0,-521.0,871.0
8.0,-132.0,180.0,-20.0,-28.0,-18.0,-36.0,-510.0,876.0
11.0,-132.0,165.0,15.0,-25.0,-17.0,-39.0,-501.0,842.0
13.0,-127.0,171.0,34.0,-23.0,-18.0,-33.0,-487.0,856.0
11.0,-125.0,167.0,43.0,-18.0,-23.0,-33.0,-476.0,833.0
12.0,-119.0,171.0,31.0,-9.0,-25.0,-32.0,-467.0,843.0
10.0,-121.0,168.0,10.0,0.0,-29.0,-32.0,-463.0,837.0
11.0,-122.0,166.0,-22.0,12.0,-30.0,-32.0,-467.0,833.0
11.0,-124.0,167.0,-59.0,23.0,-31.0,-32.0,-469.0,837.0
10.0,-123.0,172.0,-97.0,34.0,-32.0,-35.0,-474.0,842.0
12.0,-126.0,166.0,-136.0,44.0,-31.0,-32.0,-486.0,842.0
11.0,-128.0,167.0,-166.0,53.0,-31.0,-34.0,-488.0,853.0
12.0,-130.0,172.0,-189.0,59.0,-28.0,-35.0,-496.0,850.0
10.0,-132.0,174.0,-207.0,62.0,-27.0,-36.0,-504.0,854.0
9.0,-132.0,172.0,-214.0,61.0,-26.0,-32.0,-506.0,859.0
13.0,-134.0,173.0,-213.0,62.0,-24.0,-24.0,-512.0,858.0
12.0,-135.0,166.0,-205.0,61.0,-25.0,-31.0,-513.0,861.0
14.0,-135.0,177.0,-192.0,57.0,-24.0,-32.0,-517.0,856.0
10.0,-132.0,172.0,-175.0,58.0,-22.0,-31.0,-520.0,854.0
12.0,-134.0,173.0,-157.0,54.0,-25.0,-28.0,-513.0,849.0
10.0,-134.0,170.0,-141.0,54.0,-25.0,-31.0,-513.0,850.0
10.0,-131.0,169.0,-130.0,54.0,-26.0,-29.0,-505.0,845.0
13.0,-129.0,166.0,-128.0,56.0,-25.0,-32.0,-505.0,848.0
9.0,-132.0,170.0,-136.0,54.0,-25.0,-34.0,-505.0,843.0
12.0,-133.0,169.0,-151.0,54.0,-23.0,-32.0,-501.0,840.0
11.0,-130.0,167.0,-176.0,52.0,-19.0,-32.0,-515.0,837.0
10.0,-135.0,168.0,-211.0,51.0,-13.0,-38.0,-521.0,835.0
11.0,-137.0,168.0,-253.0,47.0,-12.0,-31.0,-526.0,835.0
7.0,-138.0,168.0,-294.0,46.0,-6.0,-34.0,-532.0,833.0
12.0,-142.0,168.0,-331.0,46.0,-3.0,-33.0,-543.0,841.0
7.0,-145.0,168.0,-358.0,44.0,-5.0,-36.0,-557.0,846.0
7.0,-146.0,172.0,-368.0,41.0,-3.0,-39.0,-565.0,846.0
9.0,-146.0,169.0,-362.0,45.0,1.0,-38.0,-570.0,852.0
12.0,-151.0,177.0,-341.0,49.0,3.0,-46.0,-584.0,852.0
6.0,-155.0,173.0,-311.0,52.0,-2.0,-41.0,-584.0,850.0
5.0,-154.0,172.0,-274.0,51.0,-11.0,-50.0,-596.0,847.0
6.0,-159.0,167.0,-233.0,49.0,-19.0,-47.0,-596.0,838.0
5.0,-161.0,165.0,-189.0,48.0,-27.0,-51.0,-603.0,836.0
5.0,-159.0,166.0,-144.0,47.0,-38.0,-55.0,-602.0,832.0
2.0,-152.0,168.0,-101.0,47.0,-46.0,-56.0,-606.0,829.0
1.0,-155.0,166.0,-65.0,46.0,-53.0,-65.0,-596.0,825.0
3.0,-155.0,167.0,-38.0,44.0,-57.0,-63.0,-588.0,822.0
0.0,-153.0,160.0,-21.0,44.0,-56.0,-68.0,-582.0,825.0
1.0,-152.0,168.0,-12.0,43.0,-55.0,-68.0,-577.0,822.0
6.0,-150.0,168.0,-10.0,44.0,-55.0,-60.0,-565.0,836.0
11.0,-150.0,169.0,-12.0,45.0,-53.0,-59.0,-560.0,837.0
5.0,-145.0,169.0,-21.0,45.0,-48.0,-53.0,-560.0,849.0
5.0,-143.0,169.0,-34.0,45.0,-44.0,-55.0,-547.0,851.0
6.0,-140.0,175.0,-47.0,45.0,-39.0,-53.0,-542.0,855.0
6.0,-141.0,170.0,-62.0,42.0,-34.0,-50.0,-540.0,853.0
8.0,-141.0,174.0,-78.0,39.0,-28.0,-47.0,-542.0,865.0
8.0,-140.0,175.0,-90.0,34.0,-27.0,-43.0,-534.0,865.0
10.0,-140.0,181.0,-97.0,31.0,-27.0,-40.0,-536.0,871.0
4.0,-139.0,183.0,-99.0,25.0,-27.0,-41.0,-537.0,876.0
10.0,-139.0,180.0,-96.0,19.0,-28.0,-37.0,-539.0,869.0
10.0,-135.0,175.0,-83.0,15.0,-30.0,-40.0,-535.0,870.0
10.0,-139.0,177.0,-67.0,11.0,-33.0,-41.0,-536.0,869.0
8.0,-138.0,175.0,-51.0,8.0,-35.0,-44.0,-538.0,871.0
9.0,-143.0,178.0,-35.0,7.0,-37.0,-39.0,-545.0,861.0
6.0,-142.0,172.0,-19.0,7.0,-38.0,-38.0,-544.0,852.0
9.0,-143.0,172.0,-6.0,12.0,-40.0,-46.0,-542.0,845.0
10.0,-144.0,169.0,3.0,14.0,-40.0,-40.0,-554.0,847.0
8.0,-145.0,167.0,10.0,16.0,-41.0,-40.0,-560.0,835.0
9.0,-144.0,168.0,12.0,19.0,-41.0,-41.0,-565.0,833.0
7.0,-142.0,166.0,13.0,20.0,-38.0,-46.0,-570.0,830.0
7.0,-148.0,168.0,11.0,19.0,-36.0,-41.0,-572.0,820.0
4.0,-150.0,166.0,8.0,15.0,-34.0,-44.0,-573.0,819.0
10.0,-152.0,162.0,14.0,14.0,-31.0,-42.0,-576.0,828.0
8.0,-150.0,165.0,24.0,9.0,-32.0,-39.0,-576.0,821.0
11.0,-148.0,163.0,39.0,6.0,-30.0,-36.0,-577.0,818.0
10.0,-148.0,160.0,55.0,8.0,-32.0,-38.0,-570.0,828.0
10.0,-147.0,164.0,78.0,9.0,-29.0,-30.0,-571.0,818.0
12.0,-146.0,163.0,93.0,10.0,-29.0,-29.0,-567.0,825.0
13.0,-145.0,164.0,104.0,12.0,-28.0,-33.0,-559.0,821.0
10.0,-144.0,163.0,105.0,15.0,-27.0,-29.0,-554.0,825.0
12.0,-143.0,165.0,95.0,16.0,-24.0,-29.0,-540.0,829.0
18.0,-129.0,156.0,79.0,14.0,-20.0,-33.0,-536.0,828.0
11.0,-138.0,170.0,62.0,13.0,-14.0,-30.0,-529.0,835.0
12.0,-136.0,167.0,41.0,9.0,-4.0,-25.0,-531.0,833.0
12.0,-135.0,167.0,19.0,5.0,1.0,-26.0,-531.0,837.0
12.0,-137.0,167.0,1.0,0.0,4.0,-27.0,-529.0,845.0
11.0,-137.0,175.0,-14.0,-5.0,9.0,-30.0,-529.0,848.0
10.0,-137.0,176.0,-21.0,-12.0,17.0,-32.0,-527.0,855.0
11.0,-138.0,173.0,-23.0,-18.0,18.0,-34.0,-528.0,861.0
12.0,-139.0,178.0,-15.0,-23.0,20.0,-35.0,-530.0,868.0
11.0,-139.0,178.0,-2.0,-26.0,20.0,-32.0,-529.0,874.0
9.0,-136.0,180.0,16.0,-27.0,21.0,-37.0,-532.0,874.0
8.0,-140.0,179.0,34.0,-25.0,22.0,-34.0,-521.0,881.0
10.0,-138.0,178.0,51.0,-23.0,20.0,-34.0,-531.0,884.0
9.0,-137.0,179.0,65.0,-18.0,18.0,-43.0,-526.0,881.0
10.0,-136.0,176.0,75.0,-16.0,16.0,-35.0,-525.0,872.0
7.0,-137.0,180.0,78.0,-11.0,12.0,-41.0,-521.0,871.0
10.0,-136.0,179.0,75.0,-6.0,12.0,-37.0,-522.0,861.0
10.0,-133.0,175.0,68.0,-1.0,11.0,-36.0,-520.0,857.0
9.0,-136.0,168.0,53.0,4.0,9.0,-34.0,-520.0,847.0
8.0,-135.0,173.0,37.0,7.0,7.0,-42.0,-517.0,849.0
9.0,-134.0,170.0,18.0,14.0,6.0,-36.0,-520.0,843.0
12.0,-133.0,168.0,-4.0,18.0,4.0,-35.0,-520.0,837.0
11.0,-133.0,166.0,-25.0,22.0,1.0,-38.0,-521.0,840.0
7.0,-130.0,169.0,-46.0,25.0,2.0,-37.0,-521.0,838.0
12.0,-135.0,166.0,-62.0,26.0,2.0,-35.0,-513.0,845.0
11.0,-135.0,169.0,-76.0,27.0,4.0,-34.0,-516.0,846.0
11.0,-136.0,170.0,-87.0,29.0,6.0,-30.0,-521.0,848.0
5.0,-131.0,173.0,-99.0,28.0,3.0,-39.0,-513.0,848.0
11.0,-137.0,168.0,-104.0,28.0,7.0,-28.0,-523.0,848.0
9.0,-135.0,166.0,-108.0,29.0,5.0,-29.0,-521.0,848.0
8.0,-137.0,172.0,-107.0,26.0,6.0,-33.0,-529.0,848.0
12.0,-136.0,173.0,-105.0,26.0,9.0,-31.0,-522.0,857.0
10.0,-137.0,172.0,-99.0,25.0,14.0,-33.0,-534.0,851.0
15.0,-140.0,173.0,-94.0,23.0,15.0,-37.0,-524.0,857.0
9.0,-140.0,173.0,-87.0,23.0,15.0,-35.0,-533.0,858.0
5.0,-138.0,175.0,-77.0,23.0,17.0,-36.0,-536.0,860.0
8.0,-139.0,172.0,-67.0,24.0,22.0,-46.0,-535.0,860.0
9.0,-139.0,173.0,-55.0,24.0,29.0,-41.0,-538.0,865.0
10.0,-140.0,178.0,-47.0,25.0,30.0,-43.0,-537.0,870.0
8.0,-142.0,176.0,-38.0,25.0,33.0,-41.0,-545.0,857.0
6.0,-142.0,175.0,-26.0,27.0,34.0,-39.0,-547.0,863.0
9.0,-143.0,172.0,-15.0,27.0,36.0,-42.0,-539.0,862.0
11.0,-143.0,172.0,-6.0,29.0,38.0,-34.0,-549.0,855.0
10.0,-144.0,172.0,-3.0,33.0,34.0,-33.0,-545.0,846.0
5.0,-140.0,174.0,-4.0,37.0,30.0,-43.0,-542.0,850.0
12.0,-141.0,167.0,-6.0,43.0,34.0,-33.0,-540.0,842.0
14.0,-141.0,162.0,-17.0,46.0,31.0,-29.0,-546.0,835.0
13.0,-144.0,168.0,-35.0,50.0,27.0,-34.0,-543.0,836.0
9.0,-138.0,170.0,-57.0,55.0,23.0,-32.0,-539.0,833.0
12.0,-143.0,166.0,-76.0,55.0,18.0,-30.0,-550.0,830.0
8.0,-142.0,165.0,-95.0,57.0,14.0,-36.0,-541.0,830.0
12.0,-147.0,167.0,-106.0,56.0,15.0,-34.0,-558.0,833.0
15.0,-148.0,167.0,-110.0,57.0,15.0,-25.0,-569.0,842.0
12.0,-147.0,173.0,-106.0,54.0,7.0,-33.0,-565.0,849.0
12.0,-152.0,173.0,-91.0,48.0,4.0,-36.0,-574.0,852.0
8.0,-153.0,172.0,-67.0,45.0,4.0,-32.0,-582.0,859.0
11.0,-157.0,178.0,-40.0,41.0,0.0,-34.0,-586.0,867.0
8.0,-155.0,183.0,-7.0,38.0,-5.0,-48.0,-578.0,868.0
8.0,-156.0,176.0,30.0,36.0,-5.0,-43.0,-589.0,867.0
8.0,-154.0,174.0,68.0,34.0,-7.0,-34.0,-584.0,864.0
11.0,-154.0,179.0,101.0,34.0,-11.0,-38.0,-577.0,866.0
11.0,-149.0,175.0,130.0,37.0,-11.0,-41.0,-576.0,858.0
5.0,-142.0,174.0,151.0,41.0,-12.0,-51.0,-562.0,859.0
8.0,-141.0,171.0,165.0,43.0,-9.0,-46.0,-542.0,849.0
9.0,-138.0,172.0,170.0,44.0,-8.0,-38.0,-541.0,851.0
7.0,-135.0,169.0,165.0,44.0,-14.0,-45.0,-529.0,847.0
10.0,-133.0,179.0,151.0,40.0,-12.0,-46.0,-518.0,852.0
6.0,-129.0,173.0,134.0,38.0,-8.0,-43.0,-504.0,849.0
9.0,-128.0,177.0,115.0,33.0,-8.0,-43.0,-493.0,854.0
4.0,-127.0,173.0,94.0,27.0,-9.0,-49.0,-491.0,856.0
10.0,-129.0,176.0,71.0,20.0,-6.0,-43.0,-486.0,863.0
9.0,-126.0,174.0,50.0,13.0,-4.0,-41.0,-486.0,871.0
8.0,-128.0,178.0,35.0,8.0,-2.0,-49.0,-487.0,882.0
7.0,-126.0,179.0,19.0,2.0,-2.0,-48.0,-491.0,884.0
10.0,-128.0,183.0,9.0,-4.0,-1.0,-49.0,-493.0,898.0
8.0,-132.0,185.0,5.0,-9.0,1.0,-45.0,-496.0,902.0
8.0,-130.0,185.0,4.0,-14.0,3.0,-50.0,-499.0,897.0
2.0,-129.0,184.0,8.0,-19.0,3.0,-51.0,-504.0,908.0
3.0,-132.0,188.0,18.0,-22.0,6.0,-51.0,-511.0,907.0
6.0,-130.0,186.0,28.0,-23.0,9.0,-50.0,-513.0,909.0
7.0,-132.0,184.0,41.0,-22.0,6.0,-48.0,-514.0,903.0
6.0,-133.0,183.0,51.0,-19.0,7.0,-49.0,-516.0,894.0
6.0,-139.0,177.0,63.0,-14.0,7.0,-42.0,-524.0,879.0
5.0,-135.0,176.0,67.0,-7.0,2.0,-49.0,-521.0,869.0
9.0,-134.0,177.0,65.0,0.0,-2.0,-42.0,-517.0,862.0
7.0,-136.0,170.0,61.0,7.0,-7.0,-41.0,-515.0,849.0
10.0,-136.0,172.0,49.0,14.0,-8.0,-44.0,-516.0,837.0
11.0,-132.0,165.0,30.0,19.0,-10.0,-37.0,-517.0,832.0
8.0,-133.0,166.0,8.0,24.0,-18.0,-38.0,-516.0,823.0
6.0,-131.0,166.0,-17.0,28.0,-25.0,-47.0,-517.0,816.0
7.0,-133.0,163.0,-42.0,30.0,-29.0,-43.0,-517.0,818.0
7.0,-134.0,165.0,-64.0,33.0,-30.0,-41.0,-522.0,823.0
7.0,-137.0,166.0,-76.0,31.0,-33.0,-46.0,-523.0,829.0
4.0,-137.0,167.0,-85.0,31.0,-33.0,-50.0,-530.0,841.0
7.0,-139.0,169.0,-83.0,31.0,-32.0,-46.0,-537.0,848.0
7.0,-142.0,172.0,-75.0,29.0,-31.0,-49.0,-535.0,844.0
5.0,-142.0,174.0,-64.0,31.0,-29.0,-46.0,-537.0,854.0
7.0,-141.0,169.0,-51.0,31.0,-27.0,-46.0,-535.0,855.0
9.0,-139.0,170.0,-36.0,30.0,-26.0,-40.0,-536.0,857.0
7.0,-139.0,170.0,-24.0,29.0,-25.0,-36.0,-538.0,856.0
8.0,-136.0,172.0,-12.0,26.0,-22.0,-41.0,-536.0,855.0
9.0,-135.0,174.0,-7.0,24.0,-20.0,-36.0,-531.0,855.0
7.0,-135.0,173.0,-1.0,22.0,-18.0,-43.0,-521.0,858.0
10.0,-137.0,177.0,1.0,18.0,-16.0,-38.0,-521.0,862.0
9.0,-136.0,172.0,2.0,16.0,-12.0,-39.0,-514.0,872.0
9.0,-131.0,177.0,1.0,15.0,-9.0,-37.0,-510.0,871.0
12.0,-133.0,181.0,0.0,12.0,-6.0,-41.0,-511.0,884.0
11.0,-132.0,182.0,1.0,10.0,-4.0,-41.0,-510.0,881.0
11.0,-131.0,178.0,0.0,10.0,-2.0,-40.0,-512.0,874.0
1.0,-141.0,190.0,1.0,10.0,1.0,-41.0,-505.0,881.0
7.0,-131.0,175.0,2.0,10.0,3.0,-43.0,-505.0,884.0
7.0,-129.0,179.0,1.0,9.0,5.0,-40.0,-499.0,880.0
10.0,-129.0,180.0,0.0,9.0,8.0,-42.0,-507.0,883.0
8.0,-129.0,175.0,-3.0,10.0,11.0,-43.0,-500.0,876.0
8.0,-131.0,176.0,-7.0,8.0,14.0,-46.0,-501.0,873.0
9.0,-130.0,178.0,-12.0,7.0,16.0,-42.0,-504.0,877.0
6.0,-134.0,175.0,-17.0,6.0,16.0,-42.0,-503.0,874.0
6.0,-133.0,175.0,-20.0,4.0,17.0,-42.0,-509.0,873.0
9.0,-132.0,180.0,-24.0,4.0,17.0,-43.0,-508.0,871.0
9.0,-133.0,176.0,-29.0,5.0,15.0,-41.0,-511.0,877.0
9.0,-133.0,177.0,-32.0,7.0,14.0,-38.0,-518.0,871.0
13.0,-134.0,175.0,-32.0,8.0,12.0,-38.0,-520.0,871.0
13.0,-141.0,175.0,-31.0,9.0,10.0,-41.0,-518.0,866.0
10.0,-136.0,172.0,-31.0,8.0,8.0,-35.0,-521.0,862.0
8.0,-133.0,175.0,-27.0,6.0,6.0,-38.0,-525.0,858.0
8.0,-136.0,173.0,-26.0,6.0,4.0,-43.0,-528.0,857.0
10.0,-134.0,167.0,-20.0,3.0,3.0,-39.0,-523.0,851.0
9.0,-136.0,169.0,-16.0,1.0,1.0,-39.0,-527.0,853.0
10.0,-139.0,170.0,-10.0,1.0,1.0,-37.0,-522.0,850.0
6.0,-137.0,170.0,-7.0,0.0,0.0,-39.0,-517.0,851.0
7.0,-133.0,171.0,-6.0,-1.0,2.0,-39.0,-518.0,849.0
8.0,-135.0,173.0,-9.0,-2.0,2.0,-40.0,-523.0,857.0
12.0,-135.0,171.0,-9.0,0.0,1.0,-40.0,-521.0,856.0
8.0,-130.0,173.0,-11.0,0.0,0.0,-36.0,-517.0,854.0
9.0,-135.0,173.0,-15.0,3.0,0.0,-39.0,-523.0,865.0
7.0,-132.0,174.0,-17.0,3.0,-1.0,-38.0,-514.0,867.0
7.0,-131.0,174.0,-17.0,4.0,-4.0,-43.0,-517.0,870.0
10.0,-134.0,179.0,-13.0,5.0,-4.0,-39.0,-515.0,872.0
6.0,-133.0,181.0,-7.0,4.0,-6.0,-38.0,-513.0,881.0
9.0,-135.0,183.0,-1.0,5.0,-5.0,-40.0,-512.0,885.0
7.0,-133.0,176.0,3.0,3.0,-5.0,-42.0,-518.0,886.0
9.0,-135.0,180.0,8.0,2.0,-5.0,-39.0,-523.0,884.0
8.0,-136.0,175.0,15.0,1.0,-3.0,-35.0,-520.0,881.0
10.0,-138.0,176.0,20.0,0.0,-4.0,-43.0,-519.0,873.0
10.0,-137.0,177.0,23.0,1.0,-4.0,-37.0,-522.0,875.0
10.0,-136.0,178.0,26.0,1.0,-3.0,-33.0,-521.0,870.0
7.0,-136.0,178.0,29.0,2.0,-2.0,-35.0,-514.0,866.0
8.0,-132.0,179.0,29.0,1.0,0.0,-38.0,-512.0,863.0
10.0,-134.0,176.0,27.0,1.0,0.0,-37.0,-510.0,861.0
11.0,-132.0,174.0,26.0,1.0,1.0,-34.0,-504.0,863.0
11.0,-132.0,174.0,23.0,1.0,3.0,-35.0,-498.0,858.0
10.0,-129.0,173.0,19.0,-1.0,5.0,-31.0,-500.0,857.0
11.0,-130.0,172.0,13.0,-1.0,4.0,-32.0,-496.0,859.0
9.0,-127.0,176.0,9.0,0.0,4.0,-29.0,-491.0,861.0
8.0,-127.0,176.0,4.0,1.0,5.0,-32.0,-490.0,865.0
11.0,-126.0,174.0,0.0,1.0,5.0,-31.0,-487.0,867.0
9.0,-127.0,178.0,-4.0,2.0,3.0,-32.0,-492.0,862.0
12.0,-129.0,174.0,-9.0,4.0,1.0,-32.0,-488.0,869.0
12.0,-128.0,176.0,-12.0,4.0,-1.0,-32.0,-486.0,871.0
9.0,-128.0,178.0,-17.0,7.0,-3.0,-33.0,-484.0,873.0
11.0,-131.0,180.0,-21.0,9.0,-3.0,-35.0,-489.0,873.0
10.0,-133.0,177.0,-24.0,11.0,-4.0,-37.0,-491.0,867.0
11.0,-131.0,179.0,-27.0,12.0,-4.0,-38.0,-497.0,878.0
7.0,-131.0,178.0,-29.0,12.0,-5.0,-45.0,-498.0,875.0
8.0,-130.0,177.0,-29.0,14.0,-4.0,-46.0,-497.0,879.0
9.0,-132.0,181.0,-27.0,14.0,-5.0,-47.0,-511.0,878.0
6.0,-131.0,177.0,-24.0,14.0,-6.0,-43.0,-512.0,878.0
8.0,-133.0,180.0,-21.0,14.0,-7.0,-45.0,-512.0,878.0
6.0,-132.0,185.0,-17.0,15.0,-7.0,-46.0,-516.0,878.0
9.0,-131.0,178.0,-11.0,17.0,-7.0,-43.0,-509.0,877.0
8.0,-132.0,176.0,-7.0,19.0,-8.0,-51.0,-514.0,873.0
8.0,-133.0,176.0,-4.0,17.0,-7.0,-42.0,-517.0,868.0
4.0,-131.0,176.0,-3.0,18.0,-6.0,-43.0,-509.0,867.0
8.0,-129.0,178.0,-3.0,18.0,-5.0,-42.0,-510.0,861.0
9.0,-132.0,174.0,-5.0,17.0,-6.0,-43.0,-510.0,862.0
6.0,-135.0,177.0,-8.0,19.0,-5.0,-40.0,-506.0,866.0
9.0,-128.0,175.0,-12.0,20.0,-6.0,-37.0,-504.0,862.0
12.0,-129.0,178.0,-16.0,19.0,-5.0,-38.0,-502.0,861.0
10.0,-129.0,174.0,-21.0,18.0,-5.0,-37.0,-499.0,860.0
9.0,-130.0,175.0,-26.0,19.0,-5.0,-35.0,-499.0,866.0
8.0,-128.0,176.0,-28.0,17.0,-6.0,-38.0,-499.0,861.0
9.0,-132.0,177.0,-28.0,17.0,-7.0,-41.0,-495.0,870.0
10.0,-130.0,179.0,-26.0,17.0,-7.0,-39.0,-500.0,870.0
9.0,-130.0,181.0,-24.0,17.0,-7.0,-38.0,-504.0,878.0
9.0,-133.0,177.0,-18.0,18.0,-7.0,-41.0,-503.0,875.0
8.0,-131.0,176.0,-12.0,18.0,-8.0,-38.0,-500.0,877.0
6.0,-130.0,177.0,-5.0,17.0,-7.0,-37.0,-497.0,879.0
10.0,-129.0,179.0,2.0,16.0,-6.0,-39.0,-499.0,876.0
12.0,-132.0,179.0,8.0,15.0,-7.0,-40.0,-504.0,882.0
9.0,-128.0,177.0,14.0,14.0,-7.0,-34.0,-498.0,875.0
10.0,-130.0,172.0,17.0,13.0,-7.0,-39.0,-496.0,877.0
9.0,-130.0,179.0,19.0,13.0,-6.0,-41.0,-494.0,876.0
6.0,-125.0,178.0,20.0,13.0,-5.0,-39.0,-493.0,877.0
8.0,-130.0,177.0,16.0,12.0,-3.0,-41.0,-493.0,870.0
10.0,-128.0,179.0,13.0,12.0,-3.0,-38.0,-492.0,876.0
10.0,-128.0,178.0,9.0,12.0,-3.0,-40.0,-491.0,872.0
10.0,-131.0,176.0,5.0,12.0,0.0,-38.0,-493.0,879.0
7.0,-135.0,170.0,2.0,12.0,1.0,-38.0,-490.0,880.0
10.0,-128.0,178.0,-1.0,13.0,1.0,-41.0,-492.0,872.0
6.0,-128.0,178.0,-4.0,12.0,2.0,-37.0,-493.0,877.0
9.0,-130.0,179.0,-8.0,12.0,3.0,-38.0,-493.0,876.0
10.0,-127.0,181.0,-8.0,10.0,1.0,-33.0,-496.0,875.0
9.0,-129.0,177.0,-10.0,11.0,1.0,-37.0,-494.0,878.0
11.0,-131.0,181.0,-11.0,10.0,1.0,-35.0,-496.0,879.0
7.0,-128.0,182.0,-13.0,11.0,-1.0,-34.0,-496.0,877.0
10.0,-129.0,177.0,-14.0,10.0,-1.0,-34.0,-494.0,875.0
7.0,-130.0,180.0,-15.0,10.0,-2.0,-35.0,-497.0,880.0
9.0,-128.0,179.0,-16.0,11.0,-4.0,-32.0,-496.0,875.0
11.0,-131.0,177.0,-19.0,10.0,-4.0,-35.0,-494.0,870.0
9.0,-128.0,176.0,-22.0,11.0,-4.0,-37.0,-494.0,870.0
10.0,-129.0,176.0,-26.0,11.0,-3.0,-35.0,-492.0,868.0
9.0,-129.0,176.0,-27.0,12.0,-3.0,-34.0,-494.0,867.0
11.0,-129.0,181.0,-30.0,13.0,-4.0,-36.0,-488.0,868.0
9.0,-128.0,180.0,-29.0,15.0,-5.0,-36.0,-490.0,866.0
11.0,-128.0,179.0,-30.0,15.0,-5.0,-34.0,-491.0,876.0
9.0,-128.0,178.0,-31.0,15.0,-6.0,-35.0,-492.0,868.0
10.0,-129.0,178.0,-29.0,18.0,-6.0,-36.0,-489.0,876.0
10.0,-128.0,179.0,-29.0,18.0,-4.0,-36.0,-484.0,875.0
14.0,-136.0,188.0,-30.0,20.0,-3.0,-34.0,-491.0,869.0
10.0,-129.0,176.0,-30.0,20.0,-4.0,-40.0,-491.0,880.0
9.0,-128.0,178.0,-31.0,23.0,-5.0,-35.0,-492.0,880.0
12.0,-129.0,177.0,-32.0,23.0,-4.0,-35.0,-493.0,882.0
10.0,-128.0,180.0,-32.0,24.0,-3.0,-36.0,-494.0,884.0
7.0,-129.0,179.0,-33.0,23.0,-2.0,-38.0,-491.0,883.0
7.0,-130.0,177.0,-30.0,21.0,-2.0,-37.0,-499.0,886.0
9.0,-130.0,177.0,-27.0,20.0,-2.0,-37.0,-493.0,887.0
10.0,-129.0,183.0,-25.0,21.0,-1.0,-40.0,-494.0,887.0
8.0,-129.0,182.0,-23.0,19.0,-2.0,-34.0,-492.0,889.0
9.0,-129.0,183.0,-21.0,18.0,0.0,-39.0,-495.0,886.0
9.0,-121.0,175.0,-17.0,17.0,-1.0,-35.0,-497.0,885.0
11.0,-128.0,180.0,-15.0,16.0,-1.0,-34.0,-492.0,886.0
11.0,-130.0,180.0,-13.0,18.0,-1.0,-34.0,-497.0,882.0
10.0,-129.0,179.0,-15.0,17.0,-2.0,-38.0,-496.0,884.0
10.0,-129.0,179.0,-15.0,17.0,-4.0,-35.0,-494.0,874.0
10.0,-128.0,175.0,-18.0,17.0,-3.0,-30.0,-494.0,876.0
9.0,-126.0,178.0,-25.0,18.0,-4.0,-34.0,-489.0,875.0
8.0,-126.0,174.0,-31.0,19.0,-5.0,-33.0,-487.0,873.0
11.0,-129.0,177.0,-39.0,20.0,-7.0,-34.0,-489.0,873.0
11.0,-128.0,179.0,-46.0,21.0,-9.0,-38.0,-490.0,874.0
12.0,-131.0,180.0,-52.0,21.0,-10.0,-31.0,-484.0,876.0
10.0,-129.0,179.0,-57.0,22.0,-13.0,-35.0,-486.0,872.0
12.0,-128.0,182.0,-59.0,23.0,-14.0,-33.0,-489.0,872.0
8.0,-127.0,180.0,-61.0,24.0,-13.0,-37.0,-487.0,878.0
10.0,-128.0,182.0,-60.0,26.0,-14.0,-42.0,-489.0,885.0
12.0,-129.0,180.0,-56.0,26.0,-13.0,-41.0,-490.0,881.0
8.0,-129.0,181.0,-54.0,28.0,-12.0,-42.0,-492.0,884.0
10.0,-129.0,183.0,-50.0,28.0,-13.0,-40.0,-492.0,888.0
9.0,-128.0,181.0,-44.0,27.0,-13.0,-43.0,-495.0,884.0
9.0,-129.0,182.0,-38.0,28.0,-13.0,-41.0,-496.0,884.0
8.0,-128.0,179.0,-36.0,27.0,-12.0,-44.0,-492.0,886.0
7.0,-128.0,180.0,-36.0,27.0,-13.0,-42.0,-494.0,876.0
9.0,-129.0,179.0,-35.0,26.0,-11.0,-39.0,-488.0,881.0
9.0,-128.0,179.0,-36.0,26.0,-11.0,-39.0,-491.0,876.0
8.0,-129.0,178.0,-38.0,24.0,-10.0,-44.0,-488.0,872.0
8.0,-125.0,176.0,-40.0,25.0,-10.0,-38.0,-496.0,878.0
13.0,-128.0,177.0,-45.0,25.0,-11.0,-45.0,-495.0,875.0
6.0,-128.0,178.0,-47.0,26.0,-10.0,-35.0,-495.0,884.0
9.0,-128.0,180.0,-48.0,25.0,-10.0,-47.0,-496.0,884.0
6.0,-128.0,180.0,-46.0,24.0,-10.0,-38.0,-497.0,882.0
9.0,-129.0,183.0,-45.0,23.0,-11.0,-40.0,-494.0,879.0
8.0,-131.0,182.0,-41.0,22.0,-9.0,-45.0,-498.0,876.0
8.0,-130.0,179.0,-37.0,20.0,-10.0,-37.0,-494.0,878.0
8.0,-125.0,176.0,-34.0,19.0,-10.0,-42.0,-494.0,879.0
11.0,-129.0,178.0,-30.0,20.0,-10.0,-41.0,-495.0,876.0
7.0,-129.0,179.0,-29.0,19.0,-11.0,-45.0,-494.0,871.0
9.0,-129.0,181.0,-29.0,21.0,-12.0,-39.0,-495.0,866.0
4.0,-127.0,172.0,-34.0,21.0,-13.0,-37.0,-490.0,868.0
7.0,-129.0,175.0,-38.0,20.0,-13.0,-40.0,-496.0,867.0
7.0,-128.0,180.0,-42.0,22.0,-13.0,-42.0,-492.0,869.0
10.0,-128.0,176.0,-47.0,25.0,-13.0,-39.0,-494.0,873.0
7.0,-129.0,175.0,-50.0,24.0,-14.0,-43.0,-490.0,875.0
7.0,-129.0,183.0,-50.0,28.0,-13.0,-39.0,-490.0,880.0
8.0,-128.0,181.0,-51.0,27.0,-13.0,-36.0,-491.0,882.0
8.0,-129.0,178.0,-50.0,28.0,-12.0,-44.0,-492.0,882.0
6.0,-127.0,181.0,-49.0,27.0,-9.0,-39.0,-491.0,888.0
7.0,-127.0,177.0,-44.0,24.0,-9.0,-42.0,-490.0,881.0
10.0,-129.0,181.0,-42.0,23.0,-6.0,-38.0,-490.0,880.0
10.0,-127.0,179.0,-41.0,21.0,-5.0,-38.0,-490.0,885.0
11.0,-129.0,181.0,-40.0,20.0,-5.0,-35.0,-489.0,883.0
10.0,-128.0,179.0,-39.0,19.0,-5.0,-37.0,-492.0,882.0
9.0,-130.0,177.0,-42.0,18.0,-3.0,-35.0,-490.0,884.0
7.0,-129.0,179.0,-44.0,18.0,-3.0,-36.0,-489.0,880.0
10.0,-129.0,180.0,-44.0,15.0,-3.0,-40.0,-494.0,882.0
9.0,-129.0,174.0,-46.0,15.0,-2.0,-36.0,-493.0,881.0
9.0,-130.0,176.0,-47.0,16.0,-4.0,-38.0,-495.0,879.0
8.0,-129.0,183.0,-46.0,14.0,-4.0,-38.0,-495.0,872.0
9.0,-131.0,178.0,-44.0,14.0,-3.0,-42.0,-494.0,885.0
13.0,-129.0,180.0,-44.0,13.0,-4.0,-36.0,-498.0,884.0
11.0,-129.0,178.0,-44.0,15.0,-2.0,-39.0,-497.0,879.0
8.0,-128.0,178.0,-44.0,14.0,-2.0,-36.0,-492.0,879.0
10.0,-129.0,179.0,-44.0,14.0,-3.0,-37.0,-493.0,877.0
9.0,-128.0,179.0,-42.0,16.0,-2.0,-35.0,-494.0,876.0
11.0,-128.0,179.0,-41.0,15.0,-2.0,-38.0,-496.0,882.0
10.0,-130.0,176.0,-39.0,16.0,-5.0,-34.0,-492.0,879.0
8.0,-128.0,178.0,-38.0,17.0,-3.0,-36.0,-490.0,877.0
9.0,-128.0,177.0,-39.0,17.0,-4.0,-37.0,-489.0,882.0
7.0,-126.0,179.0,-37.0,19.0,-4.0,-36.0,-491.0,877.0
9.0,-128.0,179.0,-40.0,19.0,-3.0,-42.0,-486.0,879.0
9.0,-128.0,180.0,-42.0,19.0,-4.0,-39.0,-489.0,878.0
7.0,-129.0,177.0,-43.0,21.0,-4.0,-40.0,-486.0,877.0
8.0,-130.0,177.0,-47.0,22.0,-5.0,-39.0,-487.0,876.0
9.0,-128.0,177.0,-49.0,22.0,-5.0,-40.0,-493.0,874.0
10.0,-124.0,177.0,-49.0,23.0,-5.0,-37.0,-489.0,878.0
21.0,-139.0,204.0,-49.0,24.0,-6.0,-36.0,-491.0,876.0
7.0,-121.0,166.0,-50.0,26.0,-6.0,-37.0,-489.0,881.0
14.0,-133.0,174.0,-49.0,27.0,-8.0,-35.0,-492.0,879.0
13.0,-128.0,184.0,-49.0,27.0,-8.0,-33.0,-492.0,884.0
19.0,-125.0,155.0,-46.0,30.0,-8.0,-36.0,-490.0,878.0
18.0,-134.0,178.0,-42.0,31.0,-9.0,-36.0,-493.0,879.0
20.0,-131.0,178.0,-41.0,30.0,-8.0,-38.0,-490.0,882.0
6.0,-131.0,190.0,-42.0,28.0,-8.0,-34.0,-490.0,875.0
13.0,-124.0,177.0,-41.0,28.0,-7.0,-36.0,-496.0,882.0
34.0,-128.0,152.0,-40.0,25.0,-6.0,-41.0,-496.0,884.0
17.0,-130.0,183.0,-40.0,27.0,-5.0,-45.0,-495.0,882.0
11.0,-126.0,180.0,-39.0,27.0,-5.0,-35.0,-494.0,873.0
17.0,-133.0,174.0,-40.0,25.0,-6.0,-42.0,-493.0,877.0
9.0,-128.0,178.0,-42.0,25.0,-6.0,-36.0,-487.0,869.0
10.0,-129.0,178.0,-44.0,25.0,-4.0,-45.0,-489.0,875.0
12.0,-130.0,177.0,-47.0,25.0,-5.0,-38.0,-494.0,883.0
10.0,-129.0,184.0,-48.0,24.0,-6.0,-37.0,-493.0,885.0
10.0,-129.0,180.0,-47.0,25.0,-7.0,-40.0,-493.0,878.0
7.0,-128.0,183.0,-45.0,25.0,-6.0,-34.0,-494.0,882.0
7.0,-127.0,179.0,-40.0,26.0,-6.0,-40.0,-493.0,886.0
8.0,-128.0,177.0,-35.0,24.0,-5.0,-39.0,-489.0,887.0
10.0,-128.0,181.0,-32.0,23.0,-7.0,-35.0,-496.0,893.0
9.0,-130.0,182.0,-28.0,21.0,-5.0,-39.0,-492.0,882.0
9.0,-128.0,179.0,-24.0,20.0,-5.0,-43.0,-495.0,881.0
12.0,-129.0,180.0,-19.0,18.0,-6.0,-37.0,-493.0,879.0
6.0,-123.0,165.0,-18.0,19.0,-6.0,-37.0,-494.0,882.0
9.0,-128.0,179.0,-15.0,20.0,-5.0,-42.0,-486.0,880.0
11.0,-127.0,178.0,-16.0,19.0,-5.0,-44.0,-489.0,873.0
9.0,-126.0,176.0,-17.0,21.0,-6.0,-38.0,-491.0,873.0
10.0,-129.0,178.0,-23.0,23.0,-6.0,-39.0,-482.0,874.0
8.0,-126.0,177.0,-30.0,22.0,-6.0,-45.0,-487.0,879.0
10.0,-127.0,178.0,-35.0,23.0,-5.0,-38.0,-488.0,876.0
9.0,-126.0,177.0,-40.0,26.0,-7.0,-44.0,-487.0,878.0
9.0,-128.0,176.0,-44.0,26.0,-6.0,-41.0,-485.0,879.0
11.0,-127.0,179.0,-47.0,27.0,-6.0,-42.0,-488.0,878.0
7.0,-135.0,186.0,-50.0,26.0,-7.0,-43.0,-490.0,880.0
5.0,-128.0,176.0,-54.0,27.0,-7.0,-35.0,-493.0,879.0
10.0,-128.0,180.0,-57.0,27.0,-7.0,-42.0,-489.0,889.0
8.0,-128.0,178.0,-60.0,29.0,-7.0,-38.0,-487.0,882.0
8.0,-125.0,182.0,-62.0,30.0,-7.0,-36.0,-489.0,877.0
8.0,-127.0,180.0,-63.0,29.0,-5.0,-38.0,-493.0,882.0
7.0,-128.0,179.0,-64.0,31.0,-6.0,-37.0,-489.0,879.0
9.0,-128.0,182.0,-66.0,30.0,-7.0,-35.0,-490.0,885.0
8.0,-127.0,180.0,-66.0,31.0,-7.0,-41.0,-489.0,880.0
11.0,-124.0,180.0,-68.0,33.0,-7.0,-37.0,-493.0,878.0
19.0,-129.0,175.0,-70.0,33.0,-7.0,-44.0,-486.0,874.0
10.0,-130.0,177.0,-72.0,34.0,-9.0,-41.0,-490.0,876.0
7.0,-128.0,179.0,-76.0,34.0,-8.0,-47.0,-491.0,880.0
8.0,-129.0,179.0,-78.0,33.0,-9.0,-41.0,-490.0,879.0
8.0,-129.0,181.0,-78.0,33.0,-9.0,-44.0,-491.0,870.0
7.0,-130.0,181.0,-78.0,32.0,-7.0,-35.0,-493.0,872.0
9.0,-127.0,179.0,-77.0,32.0,-9.0,-42.0,-490.0,878.0
7.0,-128.0,181.0,-76.0,32.0,-10.0,-42.0,-490.0,881.0
9.0,-128.0,178.0,-74.0,32.0,-9.0,-41.0,-491.0,880.0
5.0,-128.0,179.0,-71.0,33.0,-9.0,-45.0,-489.0,886.0
6.0,-128.0,178.0,-67.0,32.0,-9.0,-44.0,-489.0,876.0
9.0,-129.0,179.0,-65.0,31.0,-5.0,-47.0,-495.0,881.0
6.0,-129.0,181.0,-62.0,30.0,-4.0,-47.0,-494.0,880.0
7.0,-128.0,180.0,-61.0,28.0,-3.0,-46.0,-497.0,876.0
4.0,-127.0,175.0,-60.0,28.0,-2.0,-41.0,-493.0,874.0
6.0,-128.0,178.0,-60.0,26.0,-1.0,-44.0,-490.0,870.0
5.0,-128.0,182.0,-65.0,27.0,-2.0,-44.0,-496.0,876.0
10.0,-128.0,177.0,-66.0,28.0,-2.0,-44.0,-493.0,877.0
8.0,-129.0,176.0,-68.0,27.0,-3.0,-39.0,-492.0,874.0
9.0,-128.0,176.0,-68.0,26.0,-2.0,-45.0,-498.0,874.0
8.0,-128.0,177.0,-69.0,26.0,-5.0,-40.0,-497.0,874.0
8.0,-130.0,179.0,-69.0,25.0,-5.0,-42.0,-491.0,870.0
11.0,-129.0,176.0,-70.0,26.0,-6.0,-41.0,-491.0,871.0
10.0,-128.0,179.0,-70.0,26.0,-6.0,-41.0,-495.0,875.0
7.0,-130.0,178.0,-70.0,26.0,-7.0,-36.0,-492.0,872.0
8.0,-129.0,178.0,-69.0,27.0,-8.0,-46.0,-492.0,872.0
7.0,-129.0,182.0,-70.0,25.0,-8.0,-44.0,-495.0,878.0
3.0,-129.0,178.0,-72.0,24.0,-8.0,-39.0,-492.0,875.0
9.0,-130.0,176.0,-73.0,26.0,-9.0,-44.0,-494.0,877.0
5.0,-128.0,178.0,-74.0,26.0,-9.0,-40.0,-492.0,875.0
7.0,-128.0,180.0,-76.0,26.0,-9.0,-40.0,-494.0,879.0
8.0,-129.0,178.0,-75.0,29.0,-9.0,-43.0,-494.0,875.0
10.0,-132.0,176.0,-74.0,29.0,-9.0,-43.0,-497.0,879.0
8.0,-129.0,183.0,-75.0,28.0,-9.0,-40.0,-495.0,881.0
7.0,-129.0,178.0,-73.0,28.0,-7.0,-42.0,-499.0,877.0
6.0,-130.0,181.0,-71.0,29.0,-6.0,-40.0,-496.0,875.0
7.0,-129.0,180.0,-67.0,30.0,-4.0,-47.0,-496.0,875.0
7.0,-130.0,178.0,-66.0,29.0,-5.0,-41.0,-497.0,877.0
7.0,-129.0,176.0,-67.0,28.0,-4.0,-42.0,-496.0,879.0
8.0,-129.0,175.0,-70.0,29.0,-2.0,-44.0,-494.0,872.0
7.0,-127.0,180.0,-71.0,28.0,-1.0,-45.0,-493.0,869.0
11.0,-127.0,176.0,-76.0,28.0,-2.0,-41.0,-492.0,870.0
9.0,-128.0,174.0,-79.0,27.0,-3.0,-42.0,-497.0,879.0
8.0,-130.0,178.0,-80.0,26.0,-4.0,-44.0,-497.0,877.0
8.0,-129.0,178.0,-80.0,25.0,-3.0,-38.0,-496.0,878.0
8.0,-132.0,183.0,-80.0,26.0,-2.0,-44.0,-499.0,879.0
10.0,-129.0,177.0,-77.0,26.0,-2.0,-41.0,-500.0,877.0
5.0,-130.0,177.0,-72.0,27.0,-3.0,-38.0,-502.0,881.0
10.0,-132.0,182.0,-66.0,28.0,-3.0,-47.0,-506.0,878.0
9.0,-132.0,180.0,-58.0,27.0,-1.0,-42.0,-504.0,880.0
3.0,-132.0,177.0,-49.0,26.0,0.0,-44.0,-505.0,875.0
11.0,-132.0,177.0,-40.0,25.0,1.0,-40.0,-509.0,879.0
6.0,-132.0,175.0,-34.0,24.0,1.0,-45.0,-505.0,868.0
9.0,-132.0,175.0,-27.0,22.0,2.0,-40.0,-504.0,864.0
7.0,-132.0,177.0,-24.0,22.0,0.0,-44.0,-500.0,860.0
9.0,-129.0,177.0,-24.0,21.0,0.0,-44.0,-501.0,860.0
7.0,-131.0,173.0,-24.0,20.0,0.0,-45.0,-500.0,859.0
8.0,-132.0,174.0,-30.0,20.0,-1.0,-46.0,-499.0,861.0
10.0,-134.0,175.0,-37.0,22.0,-3.0,-46.0,-500.0,866.0
4.0,-128.0,171.0,-44.0,22.0,-4.0,-46.0,-497.0,866.0
8.0,-131.0,178.0,-46.0,25.0,-6.0,-44.0,-496.0,875.0
7.0,-130.0,180.0,-47.0,26.0,-6.0,-45.0,-495.0,875.0
10.0,-130.0,175.0,-46.0,27.0,-6.0,-45.0,-496.0,875.0
9.0,-131.0,181.0,-44.0,28.0,-6.0,-49.0,-502.0,879.0
9.0,-130.0,176.0,-36.0,29.0,-6.0,-42.0,-496.0,880.0
5.0,-130.0,176.0,-30.0,29.0,-4.0,-47.0,-503.0,874.0
6.0,-129.0,178.0,-24.0,27.0,-5.0,-45.0,-504.0,881.0
5.0,-130.0,171.0,-19.0,27.0,-4.0,-45.0,-502.0,881.0
8.0,-133.0,178.0,-12.0,23.0,-4.0,-46.0,-503.0,878.0
10.0,-131.0,178.0,-7.0,22.0,-3.0,-40.0,-503.0,880.0
8.0,-131.0,175.0,-1.0,21.0,-4.0,-48.0,-497.0,880.0
10.0,-132.0,182.0,2.0,20.0,-5.0,-42.0,-500.0,880.0
6.0,-128.0,177.0,3.0,19.0,-4.0,-44.0,-503.0,875.0
8.0,-129.0,175.0,5.0,18.0,-5.0,-46.0,-503.0,874.0
8.0,-129.0,175.0,5.0,17.0,-4.0,-42.0,-495.0,874.0
7.0,-132.0,178.0,4.0,15.0,-4.0,-42.0,-492.0,872.0
7.0,-129.0,179.0,4.0,15.0,-5.0,-44.0,-496.0,875.0
6.0,-130.0,181.0,3.0,16.0,-5.0,-41.0,-497.0,870.0
7.0,-129.0,175.0,-2.0,16.0,-6.0,-45.0,-494.0,877.0
9.0,-129.0,178.0,-2.0,15.0,-5.0,-42.0,-493.0,875.0
10.0,-129.0,178.0,-5.0,15.0,-4.0,-44.0,-496.0,872.0
6.0,-128.0,181.0,-6.0,16.0,-4.0,-46.0,-492.0,871.0
8.0,-130.0,174.0,-7.0,16.0,-5.0,-43.0,-489.0,872.0
7.0,-126.0,177.0,-9.0,15.0,-4.0,-42.0,-492.0,874.0
9.0,-128.0,177.0,-8.0,15.0,-5.0,-46.0,-489.0,874.0
6.0,-128.0,176.0,-10.0,15.0,-5.0,-43.0,-492.0,873.0
8.0,-128.0,177.0,-12.0,16.0,-4.0,-48.0,-490.0,875.0
7.0,-129.0,178.0,-14.0,16.0,-5.0,-50.0,-488.0,876.0
6.0,-129.0,179.0,-16.0,17.0,-3.0,-40.0,-488.0,875.0
6.0,-130.0,178.0,-15.0,18.0,-4.0,-46.0,-486.0,873.0
9.0,-125.0,181.0,-16.0,18.0,-4.0,-40.0,-488.0,880.0
9.0,-128.0,177.0,-17.0,17.0,-5.0,-45.0,-489.0,880.0
12.0,-126.0,182.0,-16.0,18.0,-4.0,-42.0,-496.0,876.0
9.0,-130.0,178.0,-15.0,17.0,-6.0,-46.0,-494.0,885.0
8.0,-129.0,180.0,-14.0,17.0,-2.0,-47.0,-493.0,882.0
10.0,-128.0,181.0,-13.0,17.0,-1.0,-44.0,-497.0,877.0
9.0,-130.0,183.0,-12.0,15.0,0.0,-40.0,-493.0,884.0
10.0,-130.0,180.0,-8.0,15.0,0.0,-46.0,-492.0,880.0
8.0,-131.0,179.0,-5.0,14.0,0.0,-46.0,-492.0,877.0
6.0,-129.0,176.0,-2.0,13.0,0.0,-45.0,-489.0,882.0
13.0,-129.0,179.0,-4.0,12.0,0.0,-48.0,-489.0,880.0
6.0,-127.0,177.0,-4.0,11.0,0.0,-45.0,-485.0,878.0
6.0,-127.0,178.0,-6.0,10.0,1.0,-42.0,-490.0,871.0
11.0,-129.0,175.0,-11.0,9.0,3.0,-47.0,-493.0,870.0
9.0,-128.0,173.0,-16.0,10.0,3.0,-40.0,-492.0,871.0
6.0,-128.0,178.0,-20.0,11.0,5.0,-43.0,-488.0,877.0
7.0,-129.0,181.0,-24.0,9.0,5.0,-45.0,-492.0,876.0
9.0,-130.0,176.0,-27.0,9.0,6.0,-43.0,-489.0,876.0
4.0,-126.0,176.0,-32.0,11.0,5.0,-45.0,-490.0,880.0
16.0,-129.0,175.0,-32.0,12.0,5.0,-48.0,-488.0,882.0
6.0,-129.0,182.0,-32.0,12.0,3.0,-44.0,-489.0,891.0
7.0,-130.0,181.0,-29.0,11.0,4.0,-47.0,-487.0,886.0
8.0,-127.0,180.0,-25.0,10.0,5.0,-42.0,-487.0,891.0
7.0,-129.0,181.0,-21.0,10.0,4.0,-45.0,-491.0,882.0
7.0,-129.0,180.0,-19.0,8.0,3.0,-43.0,-488.0,884.0
8.0,-129.0,179.0,-17.0,8.0,1.0,-48.0,-488.0,874.0
9.0,-128.0,181.0,-17.0,6.0,1.0,-40.0,-485.0,870.0
7.0,-126.0,178.0,-17.0,7.0,0.0,-45.0,-487.0,875.0
6.0,-128.0,175.0,-23.0,7.0,3.0,-41.0,-490.0,874.0
8.0,-127.0,178.0,-32.0,7.0,3.0,-40.0,-488.0,868.0
7.0,-127.0,172.0,-43.0,6.0,3.0,-41.0,-491.0,866.0
9.0,-127.0,177.0,-51.0,5.0,3.0,-46.0,-488.0,868.0
9.0,-128.0,179.0,-61.0,6.0,6.0,-46.0,-488.0,874.0
4.0,-127.0,179.0,-70.0,5.0,7.0,-48.0,-492.0,875.0
6.0,-128.0,180.0,-80.0,5.0,8.0,-45.0,-492.0,885.0
5.0,-128.0,183.0,-87.0,1.0,13.0,-44.0,-492.0,887.0
6.0,-128.0,181.0,-93.0,-1.0,15.0,-45.0,-493.0,888.0
9.0,-128.0,182.0,-98.0,-4.0,17.0,-40.0,-494.0,887.0
9.0,-129.0,180.0,-100.0,-5.0,19.0,-36.0,-496.0,894.0
12.0,-130.0,179.0,-100.0,-5.0,20.0,-40.0,-498.0,883.0
11.0,-130.0,182.0,-99.0,-4.0,21.0,-43.0,-496.0,887.0
10.0,-130.0,181.0,-98.0,-3.0,23.0,-42.0,-498.0,888.0
10.0,-134.0,176.0,-96.0,-4.0,21.0,-34.0,-502.0,877.0
7.0,-131.0,177.0,-93.0,-5.0,20.0,-45.0,-506.0,873.0
7.0,-130.0,176.0,-88.0,-7.0,21.0,-38.0,-504.0,874.0
14.0,-133.0,179.0,-80.0,-8.0,17.0,-38.0,-506.0,873.0
11.0,-131.0,177.0,-69.0,-6.0,15.0,-38.0,-503.0,871.0
8.0,-131.0,176.0,-58.0,-3.0,10.0,-38.0,-499.0,865.0
10.0,-130.0,175.0,-46.0,3.0,5.0,-36.0,-499.0,866.0
9.0,-129.0,173.0,-35.0,10.0,3.0,-37.0,-496.0,870.0
10.0,-130.0,179.0,-22.0,15.0,1.0,-36.0,-494.0,877.0
7.0,-131.0,179.0,-9.0,21.0,2.0,-37.0,-495.0,877.0
8.0,-130.0,180.0,6.0,26.0,4.0,-38.0,-495.0,886.0
11.0,-128.0,178.0,18.0,32.0,8.0,-36.0,-489.0,884.0
9.0,-128.0,181.0,27.0,37.0,11.0,-35.0,-495.0,875.0
10.0,-127.0,181.0,32.0,40.0,16.0,-37.0,-493.0,877.0
12.0,-130.0,174.0,33.0,39.0,22.0,-35.0,-488.0,875.0
9.0,-128.0,175.0,32.0,39.0,27.0,-37.0,-490.0,871.0
8.0,-125.0,174.0,25.0,40.0,32.0,-37.0,-484.0,865.0
9.0,-126.0,175.0,18.0,37.0,34.0,-35.0,-484.0,862.0
9.0,-124.0,174.0,5.0,33.0,37.0,-34.0,-480.0,858.0
8.0,-123.0,172.0,-7.0,30.0,37.0,-33.0,-476.0,862.0
14.0,-125.0,173.0,-16.0,28.0,37.0,-28.0,-475.0,860.0
13.0,-123.0,171.0,-25.0,28.0,34.0,-24.0,-472.0,856.0
17.0,-124.0,174.0,-30.0,29.0,29.0,-28.0,-470.0,860.0
12.0,-123.0,174.0,-31.0,30.0,27.0,-26.0,-469.0,869.0
14.0,-125.0,177.0,-27.0,31.0,22.0,-23.0,-464.0,865.0
12.0,-121.0,176.0,-21.0,34.0,20.0,-26.0,-467.0,871.0
14.0,-123.0,182.0,-14.0,34.0,15.0,-32.0,-452.0,872.0
12.0,-119.0,180.0,-4.0,34.0,11.0,-33.0,-452.0,880.0
10.0,-119.0,177.0,6.0,34.0,6.0,-32.0,-446.0,877.0
9.0,-114.0,175.0,14.0,36.0,3.0,-33.0,-444.0,884.0
10.0,-116.0,180.0,20.0,38.0,0.0,-34.0,-435.0,884.0
7.0,-115.0,182.0,26.0,42.0,-3.0,-45.0,-434.0,889.0
6.0,-112.0,180.0,30.0,43.0,-3.0,-40.0,-437.0,885.0
11.0,-115.0,185.0,33.0,45.0,-6.0,-47.0,-428.0,889.0
7.0,-113.0,181.0,31.0,46.0,-10.0,-46.0,-429.0,889.0
3.0,-112.0,184.0,27.0,48.0,-12.0,-55.0,-425.0,894.0
4.0,-112.0,182.0,23.0,51.0,-13.0,-62.0,-429.0,898.0
1.0,-114.0,185.0,15.0,54.0,-12.0,-59.0,-436.0,899.0
2.0,-112.0,179.0,7.0,57.0,-11.0,-60.0,-437.0,898.0
1.0,-113.0,183.0,-2.0,58.0,-11.0,-71.0,-436.0,902.0
2.0,-114.0,186.0,-8.0,58.0,-8.0,-74.0,-430.0,906.0
2.0,-119.0,186.0,-8.0,56.0,-3.0,-66.0,-446.0,901.0
2.0,-119.0,186.0,-10.0,53.0,-2.0,-71.0,-453.0,904.0
0.0,-119.0,184.0,-9.0,52.0,0.0,-72.0,-459.0,894.0
0.0,-118.0,191.0,-5.0,50.0,2.0,-62.0,-448.0,912.0
1.0,-123.0,186.0,-2.0,47.0,3.0,-77.0,-458.0,906.0
3.0,-124.0,190.0,7.0,44.0,11.0,-62.0,-473.0,893.0
-1.0,-127.0,184.0,13.0,44.0,12.0,-73.0,-476.0,895.0
2.0,-127.0,181.0,17.0,43.0,14.0,-70.0,-475.0,886.0
1.0,-124.0,182.0,20.0,43.0,13.0,-78.0,-475.0,893.0
2.0,-127.0,177.0,22.0,43.0,18.0,-74.0,-487.0,877.0
4.0,-128.0,173.0,19.0,43.0,19.0,-68.0,-485.0,870.0
1.0,-126.0,181.0,10.0,43.0,16.0,-82.0,-474.0,874.0
1.0,-120.0,177.0,3.0,45.0,20.0,-80.0,-467.0,874.0
2.0,-123.0,181.0,-10.0,47.0,19.0,-63.0,-472.0,882.0
-2.0,-122.0,176.0,-19.0,47.0,14.0,-85.0,-464.0,868.0
0.0,-120.0,175.0,-31.0,49.0,14.0,-68.0,-467.0,874.0
0.0,-119.0,179.0,-33.0,48.0,10.0,-70.0,-464.0,882.0
1.0,-124.0,179.0,-38.0,50.0,9.0,-58.0,-461.0,875.0
2.0,-121.0,178.0,-39.0,51.0,5.0,-55.0,-459.0,877.0
2.0,-118.0,178.0,-40.0,51.0,-7.0,-67.0,-455.0,886.0
4.0,-120.0,181.0,-42.0,53.0,-10.0,-69.0,-450.0,894.0
6.0,-122.0,178.0,-43.0,56.0,-11.0,-43.0,-463.0,880.0
6.0,-122.0,182.0,-52.0,60.0,-17.0,-41.0,-458.0,882.0
7.0,-119.0,177.0,-56.0,65.0,-24.0,-39.0,-463.0,876.0
8.0,-125.0,181.0,-66.0,69.0,-31.0,-31.0,-453.0,887.0
13.0,-118.0,183.0,-78.0,74.0,-47.0,-37.0,-441.0,902.0
8.0,-117.0,180.0,-81.0,78.0,-47.0,-33.0,-450.0,900.0
13.0,-120.0,184.0,-84.0,81.0,-51.0,-28.0,-453.0,900.0
7.0,-113.0,186.0,-82.0,86.0,-55.0,-37.0,-433.0,901.0
11.0,-118.0,181.0,-73.0,89.0,-57.0,-34.0,-457.0,907.0
12.0,-121.0,182.0,-68.0,90.0,-62.0,-28.0,-465.0,901.0
3.0,-116.0,186.0,-64.0,91.0,-78.0,-48.0,-443.0,911.0
12.0,-120.0,181.0,-58.0,88.0,-71.0,-37.0,-468.0,893.0
13.0,-120.0,185.0,-59.0,86.0,-66.0,-25.0,-454.0,904.0
5.0,-120.0,183.0,-63.0,84.0,-74.0,-54.0,-442.0,902.0
2.0,-116.0,185.0,-66.0,82.0,-78.0,-59.0,-441.0,896.0
7.0,-114.0,182.0,-73.0,80.0,-77.0,-38.0,-453.0,903.0
3.0,-118.0,177.0,-77.0,75.0,-80.0,-51.0,-448.0,886.0
7.0,-125.0,176.0,-85.0,74.0,-78.0,-44.0,-464.0,878.0
1.0,-118.0,178.0,-98.0,74.0,-91.0,-62.0,-452.0,887.0
0.0,-112.0,186.0,-110.0,74.0,-93.0,-75.0,-450.0,892.0
5.0,-120.0,172.0,-116.0,72.0,-78.0,-61.0,-461.0,865.0
7.0,-120.0,177.0,-134.0,71.0,-75.0,-55.0,-457.0,881.0
0.0,-116.0,181.0,-162.0,73.0,-81.0,-75.0,-452.0,887.0
0.0,-113.0,183.0,-191.0,74.0,-80.0,-87.0,-422.0,910.0
8.0,-127.0,181.0,-207.0,77.0,-66.0,-80.0,-456.0,901.0
3.0,-121.0,172.0,-225.0,84.0,-61.0,-72.0,-464.0,893.0
1.0,-121.0,180.0,-250.0,92.0,-65.0,-74.0,-465.0,889.0
-5.0,-118.0,189.0,-272.0,96.0,-72.0,-108.0,-441.0,919.0
-2.0,-122.0,183.0,-271.0,98.0,-57.0,-78.0,-462.0,883.0
3.0,-127.0,182.0,-269.0,101.0,-54.0,-47.0,-493.0,877.0
1.0,-124.0,185.0,-275.0,105.0,-69.0,-69.0,-478.0,899.0
3.0,-125.0,180.0,-263.0,107.0,-63.0,-51.0,-487.0,897.0
8.0,-127.0,162.0,-246.0,106.0,-52.0,-34.0,-491.0,875.0
15.0,-129.0,178.0,-237.0,103.0,-55.0,-35.0,-494.0,870.0
2.0,-104.0,159.0,-237.0,101.0,-66.0,-48.0,-476.0,883.0
11.0,-119.0,183.0,-243.0,97.0,-70.0,-40.0,-458.0,887.0
8.0,-143.0,186.0,-247.0,90.0,-67.0,-45.0,-457.0,885.0
16.0,-118.0,179.0,-247.0,81.0,-60.0,-59.0,-451.0,899.0
17.0,-127.0,181.0,-252.0,75.0,-39.0,-36.0,-469.0,882.0
11.0,-122.0,168.0,-268.0,71.0,-44.0,-31.0,-461.0,870.0
13.0,-118.0,173.0,-292.0,66.0,-56.0,-32.0,-448.0,884.0
16.0,-120.0,188.0,-314.0,65.0,-59.0,-36.0,-448.0,894.0
6.0,-117.0,177.0,-333.0,65.0,-66.0,-36.0,-448.0,876.0
15.0,-113.0,182.0,-350.0,68.0,-69.0,-74.0,-418.0,905.0
11.0,-108.0,171.0,-372.0,72.0,-57.0,-45.0,-431.0,892.0
10.0,-126.0,185.0,-400.0,79.0,-65.0,-22.0,-469.0,858.0
15.0,-129.0,173.0,-433.0,85.0,-89.0,-44.0,-459.0,867.0
15.0,-118.0,180.0,-457.0,88.0,-102.0,-47.0,-466.0,868.0
6.0,-125.0,183.0,-461.0,94.0,-91.0,-65.0,-454.0,873.0
34.0,-129.0,166.0,-456.0,103.0,-85.0,-60.0,-467.0,867.0
7.0,-127.0,164.0,-451.0,113.0,-101.0,-43.0,-510.0,855.0
12.0,-103.0,175.0,-447.0,122.0,-125.0,-101.0,-461.0,881.0
14.0,-133.0,174.0,-428.0,130.0,-119.0,-73.0,-506.0,875.0
-5.0,-148.0,176.0,-411.0,141.0,-104.0,-70.0,-505.0,852.0
11.0,-134.0,187.0,-402.0,147.0,-96.0,-70.0,-505.0,856.0
5.0,-135.0,161.0,-400.0,153.0,-94.0,-41.0,-532.0,816.0
-2.0,-132.0,166.0,-400.0,154.0,-93.0,-65.0,-497.0,826.0
1.0,-132.0,168.0,-403.0,154.0,-84.0,-78.0,-502.0,848.0
-6.0,-133.0,178.0,-402.0,152.0,-64.0,-64.0,-494.0,837.0
8.0,-136.0,159.0,-403.0,151.0,-44.0,-23.0,-545.0,804.0
6.0,-138.0,160.0,-418.0,149.0,-60.0,-49.0,-527.0,827.0
7.0,-139.0,164.0,-417.0,144.0,-69.0,-50.0,-532.0,815.0
-7.0,-135.0,165.0,-402.0,135.0,-66.0,-78.0,-515.0,830.0
5.0,-137.0,162.0,-376.0,126.0,-45.0,-51.0,-530.0,821.0
14.0,-144.0,156.0,-359.0,118.0,-43.0,-26.0,-565.0,791.0
6.0,-136.0,159.0,-364.0,122.0,-76.0,-50.0,-527.0,805.0
-12.0,-120.0,167.0,-371.0,128.0,-104.0,-152.0,-430.0,855.0
6.0,-140.0,151.0,-328.0,147.0,-55.0,-61.0,-540.0,781.0
14.0,-140.0,157.0,-329.0,160.0,-41.0,-36.0,-514.0,785.0
5.0,-133.0,165.0,-370.0,180.0,-71.0,-36.0,-514.0,788.0
5.0,-126.0,157.0,-399.0,203.0,-100.0,-79.0,-490.0,814.0
12.0,-135.0,160.0,-411.0,226.0,-101.0,-39.0,-504.0,783.0
-2.0,-113.0,181.0,-433.0,245.0,-122.0,-105.0,-326.0,968.0
9.0,-138.0,154.0,-398.0,265.0,-108.0,-48.0,-544.0,762.0
8.0,-123.0,156.0,-483.0,266.0,-94.0,-51.0,-506.0,801.0
7.0,-126.0,165.0,-564.0,270.0,-101.0,-37.0,-487.0,813.0
6.0,-111.0,181.0,-612.0,272.0,-122.0,-52.0,-448.0,855.0
-7.0,-119.0,176.0,-562.0,274.0,-111.0,-112.0,-394.0,959.0
11.0,-148.0,157.0,-500.0,267.0,-75.0,-51.0,-579.0,794.0
12.0,-134.0,152.0,-554.0,253.0,-81.0,-46.0,-530.0,797.0
4.0,-125.0,163.0,-600.0,255.0,-109.0,-55.0,-483.0,807.0
-28.0,-88.0,179.0,-580.0,259.0,-142.0,-180.0,-276.0,979.0
-2.0,-125.0,157.0,-498.0,262.0,-110.0,-80.0,-481.0,793.0
8.0,-145.0,129.0,-554.0,255.0,-98.0,-66.0,-582.0,697.0
2.0,-126.0,144.0,-694.0,260.0,-120.0,-57.0,-476.0,749.0
0.0,-113.0,152.0,-803.0,274.0,-149.0,-85.0,-443.0,785.0
-26.0,-71.0,193.0,-859.0,289.0,-156.0,-155.0,-296.0,939.0
0.0,-125.0,151.0,-791.0,306.0,-112.0,-77.0,-510.0,776.0
8.0,-149.0,136.0,-872.0,307.0,-110.0,-45.0,-594.0,711.0
1.0,-129.0,153.0,-1032.0,318.0,-148.0,-73.0,-500.0,790.0
-6.0,-118.0,172.0,-1147.0,334.0,-175.0,-106.0,-453.0,872.0
2.0,-108.0,196.0,-1204.0,343.0,-172.0,-69.0,-363.0,950.0
-28.0,-90.0,207.0,-1144.0,357.0,-154.0,-160.0,-374.0,1002.0
6.0,-134.0,194.0,-1076.0,354.0,-94.0,-68.0,-526.0,952.0
1.0,-166.0,171.0,-1122.0,339.0,-110.0,-75.0,-652.0,861.0
-17.0,-140.0,203.0,-1242.0,333.0,-132.0,-144.0,-553.0,984.0
-15.0,-138.0,214.0,-1282.0,338.0,-131.0,-141.0,-518.0,1028.0
-20.0,-138.0,203.0,-1262.0,344.0,-121.0,-150.0,-533.0,995.0
-48.0,-110.0,231.0,-1190.0,348.0,-86.0,-259.0,-323.0,1085.0
-12.0,-179.0,152.0,-1053.0,343.0,-44.0,-114.0,-714.0,783.0
-2.0,-191.0,128.0,-1136.0,320.0,-51.0,-93.0,-752.0,668.0
-19.0,-168.0,132.0,-1293.0,308.0,-72.0,-162.0,-638.0,708.0
-5.0,-161.0,140.0,-1401.0,305.0,-41.0,-116.0,-620.0,734.0
-25.0,-154.0,131.0,-1468.0,302.0,-30.0,-161.0,-611.0,678.0
-33.0,-148.0,136.0,-1477.0,306.0,5.0,-220.0,-567.0,752.0
39.0,-245.0,77.0,-1490.0,303.0,72.0,28.0,-953.0,494.0
10.0,-209.0,96.0,-1696.0,288.0,25.0,-29.0,-829.0,547.0
0.0,-190.0,106.0,-1873.0,296.0,-25.0,-73.0,-761.0,580.0
4.0,-202.0,114.0,-2009.0,290.0,-33.0,-54.0,-778.0,637.0
0.0,-207.0,101.0,-2107.0,286.0,-35.0,-70.0,-807.0,557.0
-42.0,-199.0,95.0,-2208.0,269.0,-28.0,-233.0,-743.0,584.0
7.0,-237.0,100.0,-2318.0,266.0,36.0,-33.0,-949.0,543.0
7.0,-226.0,111.0,-2424.0,263.0,56.0,-35.0,-875.0,635.0
-12.0,-231.0,89.0,-2448.0,274.0,19.0,-123.0,-919.0,521.0
-34.0,-232.0,81.0,-2484.0,265.0,10.0,-238.0,-840.0,484.0
-32.0,-239.0,81.0,-2536.0,241.0,29.0,-238.0,-894.0,457.0
-32.0,-249.0,83.0,-2564.0,244.0,77.0,-161.0,-1044.0,473.0
-31.0,-271.0,86.0,-2538.0,244.0,102.0,-179.0,-1068.0,513.0
-38.0,-289.0,88.0,-2461.0,240.0,127.0,-188.0,-1111.0,531.0
-52.0,-290.0,96.0,-2341.0,229.0,157.0,-237.0,-1114.0,561.0
-43.0,-292.0,95.0,-2189.0,215.0,224.0,-232.0,-1075.0,549.0
-19.0,-307.0,74.0,-2004.0,202.0,316.0,-109.0,-1215.0,439.0
-6.0,-298.0,92.0,-1907.0,187.0,302.0,-164.0,-1118.0,552.0
-26.0,-287.0,110.0,-1790.0,230.0,234.0,-174.0,-1070.0,615.0
-16.0,-279.0,124.0,-1637.0,243.0,207.0,-131.0,-1042.0,635.0
-13.0,-270.0,125.0,-1478.0,238.0,207.0,-141.0,-995.0,672.0
-17.0,-269.0,140.0,-1323.0,212.0,208.0,-116.0,-1065.0,714.0
-4.0,-290.0,134.0,-1164.0,186.0,201.0,-44.0,-1120.0,671.0
-15.0,-284.0,123.0,-996.0,150.0,159.0,-110.0,-1107.0,626.0
19.0,-298.0,122.0,-876.0,124.0,123.0,28.0,-1151.0,653.0
5.0,-282.0,117.0,-788.0,113.0,20.0,-74.0,-1083.0,642.0
5.0,-285.0,113.0,-694.0,110.0,-34.0,-43.0,-1092.0,597.0
5.0,-283.0,99.0,-622.0,97.0,-70.0,-58.0,-1084.0,553.0
5.0,-284.0,92.0,-574.0,89.0,-108.0,-66.0,-1093.0,513.0
-17.0,-287.0,81.0,-541.0,86.0,-130.0,-147.0,-1098.0,491.0
-14.0,-282.0,77.0,-515.0,86.0,-127.0,-137.0,-1084.0,469.0
-16.0,-276.0,66.0,-507.0,80.0,-130.0,-156.0,-1059.0,425.0
-18.0,-269.0,64.0,-530.0,71.0,-136.0,-162.0,-1030.0,411.0
-20.0,-261.0,62.0,-581.0,60.0,-139.0,-160.0,-1016.0,407.0
-21.0,-258.0,63.0,-648.0,48.0,-140.0,-151.0,-1007.0,403.0
-16.0,-256.0,63.0,-725.0,32.0,-137.0,-151.0,-996.0,393.0
-18.0,-254.0,58.0,-805.0,10.0,-134.0,-147.0,-996.0,383.0
-13.0,-258.0,59.0,-891.0,-11.0,-130.0,-145.0,-990.0,382.0
-10.0,-256.0,55.0,-973.0,-30.0,-122.0,-142.0,-993.0,369.0
-14.0,-256.0,49.0,-1050.0,-47.0,-112.0,-141.0,-993.0,360.0
-9.0,-260.0,46.0,-1120.0,-59.0,-104.0,-135.0,-1003.0,351.0
-12.0,-265.0,49.0,-1181.0,-65.0,-97.0,-134.0,-1015.0,351.0
-16.0,-266.0,50.0,-1229.0,-70.0,-91.0,-139.0,-1029.0,349.0
-16.0,-274.0,43.0,-1260.0,-77.0,-88.0,-130.0,-1059.0,333.0
-17.0,-277.0,45.0,-1283.0,-85.0,-93.0,-144.0,-1068.0,332.0
-16.0,-279.0,42.0,-1310.0,-93.0,-98.0,-140.0,-1078.0,330.0
-18.0,-283.0,49.0,-1348.0,-100.0,-109.0,-143.0,-1086.0,355.0
-20.0,-280.0,56.0,-1383.0,-106.0,-113.0,-149.0,-1088.0,366.0
-29.0,-284.0,45.0,-1405.0,-116.0,-111.0,-195.0,-1083.0,377.0
-30.0,-275.0,60.0,-1417.0,-124.0,-92.0,-200.0,-1063.0,394.0
-23.0,-279.0,53.0,-1418.0,-138.0,-68.0,-175.0,-1074.0,363.0
-18.0,-276.0,50.0,-1430.0,-163.0,-64.0,-167.0,-1064.0,344.0
-26.0,-275.0,47.0,-1456.0,-183.0,-78.0,-192.0,-1071.0,338.0
-34.0,-279.0,52.0,-1487.0,-188.0,-85.0,-208.0,-1077.0,353.0
-34.0,-284.0,51.0,-1506.0,-186.0,-73.0,-210.0,-1087.0,349.0
-35.0,-287.0,45.0,-1504.0,-190.0,-59.0,-212.0,-1090.0,343.0
-30.0,-285.0,41.0,-1488.0,-188.0,-49.0,-196.0,-1091.0,335.0
-29.0,-284.0,37.0,-1459.0,-188.0,-44.0,-184.0,-1089.0,313.0
-28.0,-287.0,29.0,-1431.0,-206.0,-54.0,-192.0,-1095.0,282.0
-27.0,-291.0,36.0,-1396.0,-212.0,-54.0,-198.0,-1103.0,288.0
-33.0,-292.0,28.0,-1348.0,-203.0,-38.0,-198.0,-1115.0,277.0
-28.0,-299.0,31.0,-1282.0,-183.0,-5.0,-193.0,-1132.0,294.0
-18.0,-304.0,24.0,-1190.0,-144.0,41.0,-156.0,-1148.0,272.0
-13.0,-301.0,15.0,-1108.0,-151.0,75.0,-129.0,-1144.0,216.0
-6.0,-299.0,7.0,-1051.0,-169.0,86.0,-119.0,-1136.0,196.0
-10.0,-302.0,7.0,-1005.0,-175.0,91.0,-129.0,-1131.0,193.0
-9.0,-299.0,8.0,-956.0,-167.0,103.0,-125.0,-1139.0,189.0
-11.0,-297.0,7.0,-901.0,-155.0,121.0,-123.0,-1136.0,188.0
-10.0,-299.0,7.0,-840.0,-151.0,137.0,-136.0,-1132.0,182.0
-13.0,-299.0,4.0,-768.0,-147.0,158.0,-128.0,-1134.0,182.0
-9.0,-299.0,4.0,-689.0,-145.0,175.0,-120.0,-1145.0,165.0
-16.0,-296.0,-4.0,-611.0,-150.0,181.0,-143.0,-1138.0,140.0
-14.0,-298.0,-19.0,-555.0,-167.0,200.0,-135.0,-1159.0,65.0
-9.0,-293.0,-12.0,-548.0,-191.0,215.0,-141.0,-1115.0,109.0
-3.0,-288.0,-8.0,-524.0,-180.0,224.0,-100.0,-1206.0,26.0
-4.0,-288.0,0.0,-526.0,-179.0,220.0,-108.0,-1085.0,146.0
-2.0,-289.0,-3.0,-442.0,-159.0,205.0,-76.0,-1105.0,144.0
-10.0,-275.0,7.0,-397.0,-154.0,178.0,-114.0,-1105.0,100.0
-7.0,-279.0,5.0,-376.0,-158.0,170.0,-126.0,-1056.0,177.0
-5.0,-274.0,9.0,-292.0,-152.0,157.0,-120.0,-1058.0,185.0
-5.0,-270.0,15.0,-239.0,-141.0,144.0,-121.0,-1123.0,206.0
-17.0,-265.0,12.0,-225.0,-128.0,129.0,-141.0,-1008.0,217.0
-13.0,-268.0,6.0,-138.0,-109.0,122.0,-141.0,-1029.0,195.0
-16.0,-264.0,13.0,-107.0,-96.0,114.0,-147.0,-999.0,201.0
-22.0,-261.0,11.0,-117.0,-97.0,112.0,-166.0,-1000.0,198.0
-24.0,-276.0,0.0,-68.0,-97.0,112.0,-173.0,-1074.0,147.0
-21.0,-262.0,8.0,-95.0,-102.0,128.0,-164.0,-992.0,186.0
-24.0,-259.0,0.0,-89.0,-115.0,131.0,-181.0,-996.0,161.0
-25.0,-268.0,-13.0,-76.0,-127.0,133.0,-183.0,-1047.0,85.0
-25.0,-257.0,1.0,-139.0,-140.0,137.0,-176.0,-991.0,152.0
-25.0,-257.0,2.0,-144.0,-144.0,138.0,-186.0,-991.0,150.0
-25.0,-276.0,-26.0,-137.0,-145.0,142.0,-175.0,-1098.0,54.0
-19.0,-263.0,2.0,-195.0,-145.0,148.0,-167.0,-992.0,153.0
-25.0,-266.0,-9.0,-192.0,-149.0,143.0,-170.0,-1023.0,131.0
-20.0,-269.0,-6.0,-219.0,-154.0,141.0,-160.0,-1019.0,138.0
-21.0,-267.0,-5.0,-236.0,-159.0,136.0,-164.0,-1002.0,146.0
-20.0,-272.0,-16.0,-217.0,-159.0,125.0,-164.0,-1055.0,92.0
-19.0,-268.0,-4.0,-241.0,-155.0,121.0,-163.0,-1019.0,138.0
-11.0,-280.0,-16.0,-226.0,-150.0,110.0,-149.0,-1072.0,106.0
-14.0,-265.0,-1.0,-237.0,-136.0,89.0,-155.0,-995.0,160.0
-20.0,-261.0,2.0,-207.0,-118.0,72.0,-156.0,-997.0,165.0
-14.0,-266.0,-1.0,-183.0,-101.0,62.0,-140.0,-1031.0,147.0
-16.0,-263.0,1.0,-187.0,-82.0,49.0,-151.0,-999.0,171.0
-17.0,-263.0,2.0,-168.0,-64.0,46.0,-147.0,-1019.0,156.0
-15.0,-266.0,1.0,-158.0,-51.0,44.0,-142.0,-1008.0,171.0
-20.0,-262.0,2.0,-151.0,-42.0,28.0,-150.0,-1012.0,160.0
-23.0,-260.0,2.0,-147.0,-46.0,28.0,-161.0,-1000.0,173.0
-23.0,-266.0,0.0,-128.0,-54.0,37.0,-166.0,-1048.0,131.0
-24.0,-261.0,3.0,-132.0,-67.0,53.0,-177.0,-1000.0,170.0
-25.0,-261.0,5.0,-110.0,-84.0,71.0,-178.0,-997.0,163.0
-23.0,-267.0,-3.0,-86.0,-100.0,84.0,-154.0,-1050.0,133.0
-33.0,-258.0,7.0,-65.0,-118.0,87.0,-202.0,-970.0,183.0
-37.0,-265.0,3.0,-10.0,-138.0,115.0,-217.0,-998.0,177.0
-34.0,-258.0,8.0,34.0,-156.0,142.0,-219.0,-982.0,192.0
-41.0,-258.0,4.0,88.0,-182.0,166.0,-241.0,-991.0,168.0
-46.0,-257.0,6.0,125.0,-213.0,195.0,-259.0,-982.0,176.0
-45.0,-263.0,0.0,157.0,-243.0,216.0,-236.0,-1015.0,154.0
-49.0,-256.0,-1.0,156.0,-267.0,215.0,-268.0,-984.0,156.0
-49.0,-254.0,-2.0,142.0,-288.0,216.0,-279.0,-978.0,152.0
-48.0,-258.0,-4.0,144.0,-302.0,224.0,-281.0,-984.0,144.0
-45.0,-259.0,-3.0,135.0,-311.0,229.0,-247.0,-996.0,135.0
-49.0,-258.0,-4.0,126.0,-312.0,217.0,-267.0,-989.0,125.0
-49.0,-254.0,-6.0,107.0,-302.0,210.0,-273.0,-965.0,135.0
-45.0,-254.0,-4.0,106.0,-285.0,215.0,-260.0,-962.0,135.0
-31.0,-256.0,-7.0,107.0,-258.0,217.0,-230.0,-967.0,131.0
-30.0,-252.0,-3.0,89.0,-227.0,210.0,-205.0,-961.0,139.0
-34.0,-251.0,-4.0,67.0,-192.0,188.0,-212.0,-961.0,132.0
-24.0,-252.0,-7.0,39.0,-159.0,179.0,-183.0,-952.0,135.0
-20.0,-250.0,-14.0,2.0,-120.0,175.0,-173.0,-964.0,128.0
-14.0,-245.0,-2.0,-50.0,-82.0,172.0,-140.0,-948.0,126.0
-10.0,-246.0,-6.0,-100.0,-48.0,167.0,-112.0,-952.0,126.0
2.0,-248.0,-6.0,-153.0,-20.0,161.0,-76.0,-953.0,128.0
0.0,-243.0,-9.0,-202.0,2.0,151.0,-80.0,-933.0,126.0
3.0,-238.0,-5.0,-236.0,18.0,156.0,-67.0,-912.0,142.0
8.0,-236.0,-7.0,-254.0,23.0,170.0,-58.0,-907.0,129.0
9.0,-231.0,-5.0,-266.0,17.0,181.0,-36.0,-887.0,132.0
15.0,-231.0,-9.0,-281.0,4.0,188.0,-31.0,-883.0,126.0
14.0,-228.0,-9.0,-299.0,-18.0,189.0,-28.0,-865.0,126.0
15.0,-226.0,-6.0,-321.0,-42.0,189.0,-22.0,-868.0,119.0
15.0,-229.0,-7.0,-344.0,-69.0,186.0,-19.0,-868.0,130.0
10.0,-225.0,-2.0,-368.0,-93.0,175.0,-36.0,-852.0,142.0
6.0,-224.0,0.0,-380.0,-115.0,169.0,-39.0,-858.0,154.0
5.0,-228.0,1.0,-380.0,-133.0,162.0,-54.0,-868.0,170.0
2.0,-229.0,5.0,-370.0,-152.0,157.0,-66.0,-873.0,172.0
3.0,-235.0,4.0,-361.0,-164.0,150.0,-84.0,-886.0,174.0
-8.0,-237.0,3.0,-346.0,-176.0,143.0,-105.0,-910.0,176.0
-12.0,-242.0,1.0,-331.0,-187.0,136.0,-121.0,-921.0,169.0
-14.0,-243.0,1.0,-324.0,-193.0,127.0,-139.0,-929.0,166.0
-20.0,-246.0,0.0,-324.0,-198.0,112.0,-161.0,-925.0,167.0
-22.0,-243.0,2.0,-326.0,-200.0,104.0,-177.0,-941.0,157.0
-26.0,-245.0,0.0,-325.0,-191.0,95.0,-188.0,-945.0,159.0
-27.0,-250.0,3.0,-326.0,-175.0,85.0,-195.0,-945.0,159.0
-34.0,-250.0,-1.0,-328.0,-157.0,71.0,-199.0,-955.0,155.0
-34.0,-250.0,-2.0,-330.0,-136.0,58.0,-208.0,-959.0,152.0
-36.0,-251.0,-2.0,-337.0,-113.0,43.0,-211.0,-969.0,145.0
-32.0,-257.0,-9.0,-351.0,-89.0,31.0,-211.0,-998.0,134.0
-22.0,-272.0,-1.0,-372.0,-64.0,20.0,-174.0,-1029.0,122.0
-31.0,-254.0,1.0,-397.0,-46.0,-16.0,-214.0,-967.0,155.0
-33.0,-256.0,-4.0,-401.0,-29.0,-26.0,-218.0,-978.0,144.0
-30.0,-259.0,-3.0,-397.0,-1.0,-21.0,-202.0,-991.0,137.0
-28.0,-260.0,-3.0,-399.0,28.0,-19.0,-186.0,-1001.0,146.0
-28.0,-259.0,-2.0,-399.0,54.0,-24.0,-184.0,-1003.0,139.0
-25.0,-263.0,-1.0,-397.0,74.0,-34.0,-175.0,-1007.0,138.0
-25.0,-264.0,-3.0,-391.0,86.0,-39.0,-182.0,-1004.0,142.0
-20.0,-265.0,-8.0,-388.0,92.0,-39.0,-154.0,-1022.0,130.0
-25.0,-260.0,-2.0,-396.0,88.0,-52.0,-166.0,-1002.0,133.0
-23.0,-258.0,-5.0,-398.0,79.0,-47.0,-172.0,-995.0,137.0
-23.0,-261.0,6.0,-386.0,71.0,-31.0,-166.0,-990.0,131.0
-15.0,-261.0,-10.0,-374.0,58.0,-14.0,-157.0,-1000.0,123.0
-21.0,-256.0,-4.0,-383.0,41.0,-15.0,-150.0,-984.0,116.0
-22.0,-247.0,-8.0,-394.0,24.0,-24.0,-166.0,-954.0,125.0
-17.0,-255.0,-13.0,-395.0,9.0,-12.0,-168.0,-959.0,118.0
-19.0,-250.0,-17.0,-409.0,-8.0,-2.0,-154.0,-952.0,113.0
-17.0,-254.0,-19.0,-435.0,-21.0,-2.0,-105.0,-1032.0,79.0
-27.0,-235.0,-6.0,-482.0,-35.0,-16.0,-177.0,-910.0,120.0
-26.0,-235.0,-7.0,-494.0,-43.0,-3.0,-182.0,-905.0,130.0
-24.0,-239.0,-7.0,-490.0,-44.0,17.0,-174.0,-912.0,117.0
-22.0,-242.0,-7.0,-495.0,-44.0,31.0,-172.0,-922.0,114.0
-21.0,-242.0,-12.0,-517.0,-46.0,30.0,-166.0,-933.0,102.0
-25.0,-242.0,-11.0,-547.0,-46.0,12.0,-176.0,-935.0,113.0
-26.0,-252.0,-14.0,-569.0,-45.0,4.0,-188.0,-955.0,102.0
-28.0,-256.0,-10.0,-590.0,-38.0,2.0,-189.0,-963.0,117.0
-29.0,-258.0,-5.0,-594.0,-31.0,-4.0,-193.0,-977.0,126.0
-26.0,-265.0,-12.0,-579.0,-26.0,-26.0,-182.0,-1028.0,102.0
-33.0,-269.0,-10.0,-588.0,-28.0,-58.0,-212.0,-1024.0,117.0
-32.0,-269.0,-6.0,-598.0,-31.0,-76.0,-207.0,-1032.0,125.0
-31.0,-279.0,-15.0,-587.0,-32.0,-94.0,-203.0,-1061.0,121.0
-27.0,-279.0,-8.0,-571.0,-29.0,-114.0,-188.0,-1068.0,121.0
-32.0,-275.0,-6.0,-560.0,-30.0,-144.0,-209.0,-1062.0,134.0
-35.0,-272.0,-5.0,-537.0,-32.0,-161.0,-215.0,-1056.0,143.0
-32.0,-276.0,-7.0,-505.0,-32.0,-172.0,-205.0,-1062.0,127.0
-25.0,-285.0,-18.0,-481.0,-33.0,-182.0,-179.0,-1089.0,102.0
-35.0,-279.0,-13.0,-482.0,-35.0,-211.0,-214.0,-1076.0,106.0
-17.0,-276.0,-8.0,-478.0,-32.0,-205.0,-159.0,-1062.0,128.0
-18.0,-274.0,-6.0,-444.0,-25.0,-233.0,-166.0,-1056.0,127.0
-18.0,-278.0,-7.0,-399.0,-26.0,-251.0,-159.0,-1040.0,129.0
-1.0,-294.0,-23.0,-354.0,-24.0,-269.0,-87.0,-1127.0,88.0
-22.0,-265.0,-4.0,-340.0,-20.0,-315.0,-167.0,-1005.0,135.0
-24.0,-262.0,-4.0,-298.0,-14.0,-312.0,-181.0,-994.0,132.0
-22.0,-261.0,-6.0,-230.0,-4.0,-276.0,-164.0,-996.0,127.0
-14.0,-265.0,-13.0,-169.0,3.0,-248.0,-133.0,-1023.0,111.0
-17.0,-263.0,-12.0,-138.0,0.0,-238.0,-147.0,-1003.0,107.0
-13.0,-259.0,-15.0,-114.0,-1.0,-223.0,-139.0,-992.0,109.0
-15.0,-259.0,-16.0,-83.0,-1.0,-217.0,-137.0,-991.0,99.0
-12.0,-257.0,-16.0,-57.0,-4.0,-211.0,-123.0,-983.0,93.0
-13.0,-259.0,-21.0,-46.0,-7.0,-220.0,-113.0,-998.0,75.0
-14.0,-258.0,-23.0,-56.0,-10.0,-231.0,-137.0,-993.0,60.0
-12.0,-257.0,-27.0,-71.0,-12.0,-222.0,-129.0,-986.0,64.0
-2.0,-267.0,-38.0,-98.0,-14.0,-227.0,-100.0,-1015.0,29.0
-17.0,-251.0,-24.0,-148.0,-18.0,-260.0,-141.0,-965.0,50.0
-19.0,-255.0,-34.0,-173.0,-20.0,-240.0,-161.0,-981.0,37.0
-14.0,-251.0,-25.0,-205.0,-13.0,-195.0,-150.0,-977.0,22.0
-15.0,-245.0,-24.0,-246.0,-5.0,-154.0,-138.0,-935.0,54.0
-11.0,-245.0,-18.0,-251.0,-2.0,-126.0,-122.0,-926.0,77.0
-7.0,-248.0,-19.0,-220.0,-5.0,-131.0,-116.0,-935.0,77.0
-8.0,-250.0,-33.0,-199.0,-3.0,-142.0,-108.0,-974.0,48.0
-19.0,-252.0,-25.0,-211.0,-1.0,-162.0,-148.0,-968.0,51.0
-19.0,-255.0,-32.0,-227.0,5.0,-158.0,-166.0,-997.0,47.0
-12.0,-262.0,-35.0,-250.0,18.0,-158.0,-118.0,-1010.0,41.0
-19.0,-258.0,-28.0,-277.0,20.0,-182.0,-165.0,-994.0,48.0
-21.0,-263.0,-27.0,-292.0,21.0,-169.0,-164.0,-1004.0,51.0
-15.0,-262.0,-23.0,-285.0,25.0,-142.0,-151.0,-998.0,70.0
-18.0,-262.0,-21.0,-248.0,28.0,-125.0,-144.0,-1014.0,72.0
-11.0,-267.0,-21.0,-202.0,24.0,-121.0,-138.0,-1026.0,71.0
-8.0,-279.0,-24.0,-148.0,26.0,-125.0,-101.0,-1066.0,71.0
-15.0,-272.0,-20.0,-102.0,25.0,-151.0,-134.0,-1030.0,65.0
-11.0,-272.0,-24.0,-59.0,26.0,-155.0,-136.0,-1028.0,70.0
-13.0,-267.0,-24.0,-13.0,31.0,-144.0,-125.0,-1025.0,64.0
-10.0,-268.0,-20.0,36.0,39.0,-122.0,-120.0,-1016.0,67.0
-5.0,-269.0,-27.0,88.0,50.0,-104.0,-100.0,-1029.0,48.0
1.0,-273.0,-38.0,128.0,56.0,-112.0,-79.0,-1053.0,26.0
-3.0,-265.0,-33.0,143.0,54.0,-139.0,-106.0,-1019.0,39.0
-3.0,-264.0,-31.0,162.0,51.0,-142.0,-110.0,-997.0,37.0
-6.0,-264.0,-34.0,188.0,52.0,-122.0,-102.0,-995.0,27.0
-1.0,-259.0,-36.0,211.0,54.0,-104.0,-94.0,-1002.0,17.0
0.0,-260.0,-36.0,225.0,49.0,-96.0,-91.0,-1002.0,18.0
-4.0,-257.0,-40.0,227.0,37.0,-90.0,-97.0,-982.0,16.0
-4.0,-267.0,-51.0,227.0,25.0,-80.0,-86.0,-1017.0,-16.0
-2.0,-257.0,-38.0,192.0,15.0,-78.0,-93.0,-995.0,-4.0
-6.0,-254.0,-32.0,168.0,1.0,-87.0,-106.0,-964.0,29.0
3.0,-249.0,-35.0,184.0,-11.0,-84.0,-98.0,-973.0,23.0
-3.0,-252.0,-33.0,193.0,-14.0,-94.0,-107.0,-967.0,28.0
-9.0,-251.0,-26.0,213.0,-20.0,-99.0,-121.0,-952.0,47.0
-12.0,-249.0,-25.0,248.0,-22.0,-90.0,-129.0,-945.0,58.0
-10.0,-250.0,-23.0,293.0,-20.0,-82.0,-132.0,-948.0,58.0
-13.0,-254.0,-29.0,330.0,-15.0,-77.0,-130.0,-967.0,48.0
-8.0,-257.0,-33.0,329.0,-11.0,-76.0,-121.0,-984.0,36.0
-12.0,-254.0,-25.0,326.0,-4.0,-90.0,-131.0,-971.0,56.0
-12.0,-254.0,-25.0,340.0,1.0,-104.0,-128.0,-968.0,54.0
-15.0,-252.0,-20.0,359.0,4.0,-106.0,-135.0,-958.0,69.0
-12.0,-248.0,-23.0,395.0,10.0,-106.0,-128.0,-941.0,68.0
-4.0,-254.0,-36.0,430.0,18.0,-111.0,-112.0,-962.0,19.0
23.0,-268.0,-37.0,430.0,35.0,-142.0,-38.0,-1002.0,27.0
-14.0,-242.0,-22.0,393.0,29.0,-215.0,-154.0,-910.0,79.0
-22.0,-235.0,-20.0,390.0,14.0,-202.0,-169.0,-889.0,76.0
-17.0,-239.0,-24.0,408.0,12.0,-148.0,-140.0,-905.0,69.0
-10.0,-239.0,-18.0,423.0,10.0,-105.0,-119.0,-913.0,67.0
-9.0,-237.0,-24.0,426.0,0.0,-84.0,-117.0,-922.0,64.0
-8.0,-236.0,-28.0,413.0,-12.0,-61.0,-113.0,-912.0,62.0
-16.0,-244.0,-23.0,391.0,-22.0,-37.0,-138.0,-933.0,47.0
1.0,-236.0,-25.0,356.0,-33.0,-28.0,-72.0,-918.0,69.0
-2.0,-232.0,-19.0,339.0,-38.0,-58.0,-93.0,-880.0,86.0
-1.0,-231.0,-17.0,353.0,-48.0,-75.0,-104.0,-875.0,94.0
-7.0,-230.0,-21.0,371.0,-55.0,-69.0,-103.0,-879.0,84.0
12.0,-256.0,-33.0,376.0,-63.0,-68.0,-18.0,-1035.0,24.0
-11.0,-236.0,-25.0,331.0,-71.0,-123.0,-138.0,-887.0,60.0
-16.0,-229.0,-20.0,309.0,-89.0,-105.0,-149.0,-876.0,70.0
-12.0,-232.0,-29.0,306.0,-105.0,-57.0,-134.0,-890.0,61.0
-9.0,-236.0,-29.0,301.0,-123.0,-27.0,-112.0,-903.0,58.0
-13.0,-231.0,-27.0,291.0,-148.0,-12.0,-119.0,-889.0,52.0
-4.0,-236.0,-31.0,277.0,-168.0,-3.0,-94.0,-911.0,45.0
-10.0,-232.0,-29.0,264.0,-183.0,-16.0,-117.0,-882.0,61.0
-11.0,-225.0,-21.0,267.0,-196.0,-17.0,-129.0,-863.0,71.0
-10.0,-225.0,-22.0,286.0,-202.0,-4.0,-123.0,-860.0,76.0
-10.0,-227.0,-24.0,309.0,-207.0,4.0,-125.0,-853.0,73.0
-18.0,-218.0,-14.0,324.0,-207.0,10.0,-116.0,-858.0,64.0
-6.0,-227.0,-24.0,334.0,-208.0,13.0,-114.0,-859.0,69.0
-7.0,-228.0,-24.0,340.0,-199.0,13.0,-113.0,-852.0,70.0
-7.0,-226.0,-26.0,338.0,-188.0,12.0,-111.0,-862.0,57.0
-8.0,-225.0,-19.0,326.0,-173.0,12.0,-112.0,-859.0,60.0
-3.0,-223.0,-27.0,318.0,-156.0,12.0,-106.0,-847.0,74.0
-6.0,-223.0,-21.0,314.0,-136.0,13.0,-98.0,-861.0,57.0
-4.0,-227.0,-29.0,294.0,-119.0,6.0,-97.0,-882.0,50.0
-2.0,-222.0,-20.0,258.0,-100.0,1.0,-94.0,-842.0,70.0
-2.0,-219.0,-21.0,253.0,-85.0,-3.0,-95.0,-833.0,84.0
1.0,-220.0,-23.0,263.0,-79.0,-2.0,-83.0,-836.0,66.0
0.0,-224.0,-20.0,268.0,-74.0,5.0,-86.0,-852.0,67.0
-1.0,-227.0,-29.0,259.0,-74.0,13.0,-89.0,-869.0,51.0
1.0,-228.0,-28.0,235.0,-77.0,18.0,-79.0,-871.0,49.0
0.0,-227.0,-27.0,211.0,-82.0,19.0,-73.0,-860.0,55.0
0.0,-226.0,-26.0,196.0,-83.0,24.0,-78.0,-860.0,47.0
2.0,-224.0,-23.0,188.0,-83.0,28.0,-71.0,-859.0,56.0
1.0,-225.0,-31.0,191.0,-81.0,28.0,-66.0,-863.0,43.0
4.0,-228.0,-26.0,191.0,-77.0,24.0,-76.0,-853.0,60.0
5.0,-226.0,-27.0,199.0,-70.0,22.0,-66.0,-854.0,46.0
5.0,-226.0,-26.0,203.0,-59.0,18.0,-67.0,-858.0,46.0
3.0,-227.0,-30.0,211.0,-47.0,15.0,-67.0,-858.0,48.0
0.0,-229.0,-23.0,217.0,-31.0,12.0,-64.0,-860.0,54.0
4.0,-226.0,-32.0,228.0,-17.0,7.0,-62.0,-865.0,38.0
4.0,-227.0,-28.0,234.0,-7.0,2.0,-62.0,-859.0,54.0
5.0,-226.0,-30.0,242.0,2.0,-4.0,-62.0,-845.0,58.0
3.0,-226.0,-24.0,246.0,9.0,-8.0,-70.0,-851.0,50.0
-1.0,-222.0,-31.0,243.0,15.0,-10.0,-70.0,-853.0,54.0
0.0,-226.0,-28.0,237.0,21.0,-11.0,-86.0,-864.0,56.0
-2.0,-226.0,-22.0,219.0,27.0,-14.0,-92.0,-864.0,56.0
0.0,-232.0,-28.0,205.0,30.0,-14.0,-98.0,-869.0,64.0
-5.0,-229.0,-22.0,195.0,33.0,-14.0,-104.0,-878.0,75.0
-9.0,-235.0,-25.0,186.0,38.0,-14.0,-112.0,-894.0,78.0
-13.0,-237.0,-18.0,179.0,40.0,-15.0,-125.0,-918.0,83.0
-11.0,-242.0,-18.0,177.0,44.0,-18.0,-131.0,-922.0,98.0
-18.0,-245.0,-13.0,180.0,47.0,-24.0,-144.0,-937.0,102.0
-17.0,-249.0,-13.0,186.0,48.0,-29.0,-148.0,-948.0,115.0
-19.0,-253.0,-11.0,201.0,50.0,-35.0,-150.0,-956.0,122.0
-19.0,-251.0,-3.0,222.0,51.0,-42.0,-160.0,-961.0,123.0
-21.0,-254.0,-3.0,241.0,53.0,-49.0,-166.0,-967.0,138.0
-21.0,-256.0,-6.0,259.0,52.0,-54.0,-166.0,-973.0,139.0
-21.0,-256.0,-2.0,274.0,46.0,-58.0,-168.0,-983.0,146.0
-23.0,-257.0,0.0,286.0,41.0,-59.0,-172.0,-986.0,149.0
-25.0,-256.0,0.0,299.0,33.0,-59.0,-175.0,-989.0,156.0
-26.0,-257.0,1.0,311.0,22.0,-59.0,-169.0,-996.0,160.0
-22.0,-260.0,3.0,318.0,12.0,-57.0,-169.0,-996.0,164.0
-25.0,-263.0,1.0,321.0,0.0,-56.0,-169.0,-1004.0,167.0
-24.0,-260.0,2.0,324.0,-17.0,-53.0,-169.0,-998.0,167.0
-23.0,-261.0,2.0,328.0,-32.0,-48.0,-169.0,-999.0,173.0
-22.0,-257.0,2.0,333.0,-48.0,-43.0,-165.0,-998.0,171.0
-23.0,-260.0,5.0,337.0,-65.0,-35.0,-164.0,-999.0,172.0
-17.0,-261.0,1.0,339.0,-78.0,-30.0,-158.0,-995.0,166.0
-17.0,-258.0,2.0,340.0,-89.0,-26.0,-149.0,-984.0,169.0
-16.0,-254.0,6.0,338.0,-96.0,-20.0,-149.0,-977.0,169.0
-17.0,-254.0,3.0,339.0,-102.0,-17.0,-143.0,-960.0,171.0
-14.0,-247.0,2.0,338.0,-105.0,-13.0,-138.0,-959.0,174.0
-16.0,-244.0,4.0,329.0,-110.0,-11.0,-137.0,-952.0,167.0
-12.0,-242.0,4.0,313.0,-112.0,-7.0,-129.0,-943.0,166.0
-8.0,-247.0,-1.0,292.0,-115.0,-3.0,-124.0,-936.0,167.0
-9.0,-242.0,3.0,268.0,-119.0,2.0,-126.0,-929.0,173.0
-8.0,-243.0,4.0,249.0,-121.0,5.0,-119.0,-926.0,176.0
-8.0,-241.0,7.0,230.0,-123.0,10.0,-117.0,-919.0,181.0
-3.0,-241.0,7.0,214.0,-123.0,13.0,-113.0,-924.0,190.0
-8.0,-239.0,7.0,200.0,-122.0,20.0,-112.0,-930.0,195.0
-7.0,-244.0,10.0,186.0,-122.0,23.0,-111.0,-934.0,196.0
-4.0,-245.0,9.0,173.0,-122.0,29.0,-108.0,-933.0,202.0
-5.0,-247.0,12.0,163.0,-122.0,34.0,-105.0,-943.0,202.0
-4.0,-250.0,13.0,153.0,-123.0,41.0,-103.0,-948.0,202.0
-5.0,-252.0,14.0,144.0,-124.0,49.0,-104.0,-959.0,214.0
-5.0,-253.0,14.0,137.0,-123.0,58.0,-104.0,-964.0,214.0
-6.0,-256.0,19.0,135.0,-125.0,65.0,-101.0,-968.0,227.0
-3.0,-256.0,20.0,140.0,-129.0,71.0,-100.0,-982.0,227.0
-5.0,-259.0,15.0,147.0,-132.0,77.0,-101.0,-985.0,236.0
-2.0,-258.0,22.0,162.0,-134.0,84.0,-100.0,-988.0,238.0
-4.0,-256.0,23.0,180.0,-136.0,89.0,-103.0,-988.0,243.0
-3.0,-256.0,27.0,197.0,-137.0,93.0,-101.0,-989.0,253.0
-1.0,-259.0,22.0,215.0,-137.0,94.0,-104.0,-982.0,255.0
-4.0,-257.0,24.0,230.0,-134.0,93.0,-104.0,-982.0,263.0
-8.0,-257.0,24.0,239.0,-132.0,90.0,-108.0,-973.0,263.0
-6.0,-254.0,28.0,245.0,-127.0,88.0,-111.0,-972.0,266.0
-10.0,-251.0,30.0,246.0,-124.0,83.0,-110.0,-966.0,260.0
-7.0,-252.0,30.0,243.0,-122.0,78.0,-113.0,-957.0,267.0
-7.0,-252.0,29.0,237.0,-123.0,78.0,-121.0,-957.0,262.0
-9.0,-249.0,24.0,227.0,-125.0,76.0,-122.0,-947.0,258.0
-11.0,-248.0,27.0,215.0,-127.0,76.0,-122.0,-947.0,257.0
-11.0,-247.0,27.0,198.0,-124.0,77.0,-124.0,-941.0,254.0
-13.0,-244.0,24.0,189.0,-120.0,78.0,-135.0,-936.0,256.0
-12.0,-244.0,22.0,178.0,-113.0,77.0,-138.0,-934.0,259.0
-13.0,-241.0,25.0,171.0,-104.0,75.0,-132.0,-930.0,260.0
-13.0,-244.0,21.0,161.0,-95.0,73.0,-134.0,-925.0,267.0
-13.0,-239.0,24.0,154.0,-83.0,71.0,-137.0,-924.0,258.0
-14.0,-238.0,25.0,149.0,-72.0,69.0,-133.0,-922.0,257.0
-10.0,-241.0,25.0,138.0,-61.0,65.0,-130.0,-927.0,244.0
-12.0,-240.0,22.0,128.0,-50.0,63.0,-125.0,-921.0,249.0
-12.0,-239.0,24.0,120.0,-42.0,59.0,-133.0,-923.0,247.0
-14.0,-241.0,22.0,110.0,-37.0,54.0,-122.0,-928.0,244.0
-9.0,-240.0,18.0,98.0,-32.0,49.0,-130.0,-929.0,241.0
-8.0,-245.0,22.0,86.0,-27.0,42.0,-120.0,-938.0,238.0
-9.0,-246.0,26.0,75.0,-22.0,37.0,-127.0,-942.0,245.0
-6.0,-248.0,23.0,69.0,-19.0,30.0,-121.0,-943.0,251.0
-9.0,-246.0,24.0,64.0,-16.0,25.0,-116.0,-946.0,251.0
-8.0,-251.0,20.0,63.0,-11.0,17.0,-114.0,-948.0,253.0
-7.0,-250.0,23.0,65.0,-7.0,10.0,-110.0,-956.0,259.0
-7.0,-250.0,27.0,65.0,-1.0,3.0,-108.0,-959.0,267.0
-10.0,-247.0,28.0,63.0,7.0,-3.0,-116.0,-961.0,272.0
-6.0,-251.0,30.0,61.0,10.0,-8.0,-120.0,-959.0,274.0
-11.0,-252.0,31.0,60.0,11.0,-13.0,-120.0,-967.0,284.0
-13.0,-255.0,30.0,62.0,13.0,-16.0,-126.0,-968.0,273.0
-13.0,-254.0,32.0,60.0,10.0,-19.0,-134.0,-970.0,281.0
-14.0,-255.0,31.0,58.0,9.0,-21.0,-138.0,-970.0,285.0
-15.0,-257.0,31.0,60.0,6.0,-22.0,-144.0,-972.0,283.0
-20.0,-256.0,32.0,61.0,3.0,-24.0,-154.0,-976.0,288.0
-21.0,-256.0,28.0,61.0,-3.0,-25.0,-162.0,-972.0,284.0
-25.0,-256.0,38.0,64.0,-10.0,-27.0,-169.0,-978.0,286.0
-22.0,-256.0,35.0,66.0,-17.0,-28.0,-175.0,-970.0,287.0
-26.0,-254.0,34.0,70.0,-24.0,-30.0,-182.0,-973.0,284.0
-26.0,-253.0,35.0,72.0,-31.0,-31.0,-183.0,-970.0,291.0
-28.0,-249.0,31.0,77.0,-38.0,-29.0,-183.0,-960.0,286.0
-27.0,-248.0,34.0,83.0,-44.0,-29.0,-181.0,-958.0,290.0
-22.0,-260.0,39.0,91.0,-51.0,-26.0,-181.0,-951.0,283.0
-26.0,-244.0,32.0,97.0,-56.0,-22.0,-180.0,-946.0,285.0
-26.0,-245.0,34.0,100.0,-58.0,-19.0,-180.0,-942.0,287.0
-25.0,-244.0,28.0,100.0,-62.0,-13.0,-174.0,-935.0,276.0
-19.0,-246.0,32.0,94.0,-62.0,-11.0,-169.0,-930.0,276.0
-23.0,-243.0,29.0,84.0,-63.0,-5.0,-160.0,-935.0,276.0
-19.0,-244.0,29.0,72.0,-64.0,-1.0,-153.0,-935.0,280.0
-17.0,-242.0,27.0,58.0,-63.0,4.0,-150.0,-935.0,282.0
-15.0,-245.0,32.0,45.0,-60.0,9.0,-138.0,-941.0,287.0
-14.0,-245.0,32.0,35.0,-57.0,13.0,-139.0,-942.0,287.0
-10.0,-246.0,36.0,27.0,-56.0,17.0,-128.0,-944.0,291.0
-11.0,-247.0,53.0,22.0,-52.0,21.0,-117.0,-948.0,295.0
-9.0,-249.0,35.0,21.0,-49.0,23.0,-116.0,-956.0,296.0
-7.0,-250.0,35.0,18.0,-46.0,25.0,-110.0,-956.0,309.0
-6.0,-249.0,39.0,17.0,-43.0,27.0,-105.0,-958.0,304.0
-6.0,-249.0,38.0,17.0,-43.0,27.0,-100.0,-958.0,309.0
-1.0,-251.0,36.0,15.0,-41.0,28.0,-97.0,-959.0,309.0
-3.0,-249.0,40.0,14.0,-41.0,28.0,-96.0,-964.0,307.0
0.0,-250.0,38.0,12.0,-41.0,28.0,-93.0,-963.0,307.0
-3.0,-246.0,37.0,6.0,-42.0,26.0,-76.0,-958.0,311.0
0.0,-250.0,36.0,-1.0,-42.0,25.0,-79.0,-960.0,311.0
1.0,-250.0,37.0,-8.0,-41.0,24.0,-77.0,-955.0,309.0
0.0,-248.0,37.0,-14.0,-41.0,21.0,-69.0,-954.0,315.0
3.0,-246.0,39.0,-20.0,-40.0,20.0,-70.0,-951.0,313.0
0.0,-245.0,43.0,-25.0,-40.0,19.0,-72.0,-952.0,317.0
2.0,-246.0,38.0,-26.0,-39.0,17.0,-76.0,-945.0,309.0
2.0,-246.0,38.0,-24.0,-38.0,14.0,-71.0,-945.0,313.0
2.0,-246.0,39.0,-23.0,-35.0,12.0,-70.0,-943.0,315.0
3.0,-246.0,37.0,-18.0,-31.0,7.0,-66.0,-937.0,309.0
1.0,-244.0,37.0,-16.0,-26.0,4.0,-75.0,-936.0,307.0
1.0,-243.0,35.0,-14.0,-18.0,0.0,-72.0,-930.0,302.0
2.0,-242.0,35.0,-14.0,-7.0,-5.0,-72.0,-935.0,304.0
1.0,-245.0,33.0,-17.0,4.0,-11.0,-73.0,-928.0,298.0
0.0,-242.0,36.0,-21.0,16.0,-17.0,-74.0,-931.0,297.0
1.0,-246.0,32.0,-29.0,29.0,-23.0,-86.0,-935.0,294.0
0.0,-245.0,38.0,-39.0,40.0,-29.0,-75.0,-934.0,288.0
0.0,-244.0,36.0,-49.0,52.0,-33.0,-82.0,-944.0,292.0
0.0,-247.0,31.0,-58.0,63.0,-39.0,-83.0,-944.0,290.0
0.0,-247.0,33.0,-65.0,72.0,-44.0,-91.0,-954.0,292.0
-1.0,-248.0,31.0,-69.0,81.0,-49.0,-91.0,-957.0,295.0
0.0,-254.0,37.0,-66.0,86.0,-53.0,-91.0,-961.0,300.0
0.0,-254.0,37.0,-61.0,91.0,-57.0,-90.0,-963.0,294.0
-3.0,-255.0,37.0,-54.0,92.0,-61.0,-93.0,-971.0,296.0
-6.0,-253.0,37.0,-44.0,91.0,-63.0,-86.0,-970.0,304.0
-2.0,-256.0,35.0,-34.0,87.0,-65.0,-91.0,-968.0,305.0
0.0,-255.0,37.0,-24.0,83.0,-69.0,-92.0,-969.0,304.0
