acc1_x,acc1_y,acc1_z,gyro_x,gyro_y,gyro_z,acc2_x,acc2_y,acc2_z
45.0,22.0,205.0,-26.0,18.0,-8.0,98.0,84.0,1012.0
47.0,24.0,210.0,-25.0,18.0,-6.0,96.0,88.0,1010.0
45.0,21.0,210.0,-26.0,18.0,-8.0,102.0,85.0,1008.0
46.0,21.0,205.0,-25.0,17.0,-8.0,95.0,90.0,1009.0
51.0,12.0,201.0,-25.0,15.0,-6.0,100.0,88.0,1012.0
44.0,20.0,208.0,-25.0,14.0,-6.0,101.0,94.0,1010.0
47.0,24.0,211.0,-22.0,13.0,-6.0,99.0,88.0,1009.0
45.0,24.0,210.0,-21.0,12.0,-5.0,99.0,87.0,1012.0
45.0,22.0,206.0,-19.0,10.0,-6.0,100.0,90.0,1007.0
47.0,21.0,211.0,-19.0,10.0,-7.0,104.0,93.0,1005.0
44.0,20.0,212.0,-17.0,11.0,-7.0,96.0,90.0,1007.0
48.0,19.0,208.0,-18.0,11.0,-6.0,98.0,82.0,1007.0
46.0,23.0,210.0,-16.0,13.0,-7.0,102.0,86.0,1009.0
45.0,21.0,206.0,-15.0,14.0,-7.0,98.0,90.0,1006.0
48.0,16.0,207.0,-15.0,17.0,-7.0,99.0,87.0,1006.0
39.0,22.0,211.0,-17.0,17.0,-7.0,99.0,84.0,1009.0
46.0,22.0,208.0,-16.0,16.0,-6.0,97.0,88.0,1009.0
45.0,20.0,208.0,-18.0,16.0,-7.0,100.0,90.0,1005.0
47.0,21.0,210.0,-20.0,14.0,-7.0,99.0,82.0,1007.0
42.0,22.0,208.0,-21.0,15.0,-7.0,101.0,82.0,1012.0
45.0,22.0,211.0,-25.0,14.0,-5.0,95.0,92.0,1011.0
46.0,21.0,209.0,-25.0,12.0,-4.0,102.0,84.0,1007.0
50.0,18.0,208.0,-28.0,12.0,-6.0,99.0,89.0,1013.0
45.0,18.0,207.0,-28.0,13.0,-6.0,101.0,93.0,1011.0
47.0,22.0,213.0,-28.0,14.0,-6.0,99.0,93.0,1014.0
48.0,23.0,212.0,-27.0,15.0,-5.0,94.0,91.0,1010.0
47.0,21.0,212.0,-28.0,15.0,-5.0,97.0,87.0,1010.0
47.0,23.0,208.0,-29.0,15.0,-5.0,101.0,94.0,1010.0
46.0,23.0,207.0,-27.0,16.0,-5.0,99.0,89.0,1010.0
46.0,24.0,207.0,-25.0,16.0,-6.0,98.0,90.0,1009.0
44.0,24.0,205.0,-27.0,14.0,-7.0,100.0,93.0,1008.0
45.0,23.0,208.0,-26.0,14.0,-8.0,102.0,97.0,1007.0
45.0,24.0,208.0,-28.0,13.0,-7.0,97.0,91.0,1006.0
50.0,20.0,209.0,-28.0,14.0,-5.0,93.0,92.0,1009.0
45.0,21.0,206.0,-29.0,12.0,-6.0,98.0,93.0,1011.0
46.0,20.0,209.0,-29.0,10.0,-5.0,100.0,93.0,1008.0
47.0,23.0,210.0,-31.0,10.0,-4.0,97.0,91.0,1006.0
44.0,25.0,209.0,-30.0,10.0,-6.0,98.0,91.0,1011.0
47.0,21.0,211.0,-28.0,11.0,-6.0,102.0,91.0,1008.0
46.0,21.0,206.0,-27.0,11.0,-6.0,101.0,94.0,1010.0
47.0,19.0,210.0,-26.0,12.0,-4.0,96.0,89.0,1008.0
49.0,19.0,206.0,-26.0,13.0,-5.0,100.0,88.0,1007.0
45.0,19.0,209.0,-23.0,15.0,-4.0,101.0,90.0,1010.0
46.0,20.0,211.0,-22.0,14.0,-4.0,99.0,88.0,1009.0
45.0,19.0,207.0,-24.0,15.0,-5.0,103.0,93.0,1013.0
45.0,22.0,209.0,-22.0,16.0,-5.0,97.0,94.0,1006.0
46.0,25.0,210.0,-22.0,15.0,-5.0,101.0,88.0,1015.0
45.0,25.0,209.0,-23.0,14.0,-6.0,99.0,89.0,1007.0
46.0,24.0,208.0,-24.0,14.0,-6.0,95.0,92.0,1007.0
45.0,23.0,207.0,-24.0,14.0,-5.0,98.0,93.0,1010.0
45.0,23.0,208.0,-24.0,13.0,-7.0,101.0,93.0,1012.0
45.0,23.0,211.0,-26.0,14.0,-7.0,101.0,92.0,1008.0
44.0,23.0,205.0,-27.0,14.0,-8.0,99.0,93.0,1006.0
44.0,20.0,208.0,-28.0,13.0,-7.0,101.0,91.0,1012.0
47.0,26.0,208.0,-28.0,13.0,-9.0,100.0,94.0,1011.0
45.0,23.0,209.0,-29.0,14.0,-9.0,101.0,95.0,1010.0
46.0,25.0,210.0,-29.0,13.0,-9.0,103.0,92.0,1005.0
46.0,24.0,211.0,-30.0,12.0,-8.0,98.0,94.0,1012.0
45.0,23.0,210.0,-28.0,13.0,-8.0,104.0,93.0,1007.0
48.0,20.0,208.0,-27.0,13.0,-8.0,102.0,95.0,1010.0
48.0,24.0,208.0,-24.0,13.0,-5.0,100.0,95.0,1011.0
50.0,22.0,213.0,-22.0,14.0,-6.0,101.0,99.0,1011.0
45.0,24.0,207.0,-21.0,16.0,-7.0,100.0,93.0,1009.0
47.0,23.0,211.0,-19.0,16.0,-7.0,103.0,93.0,1011.0
49.0,23.0,209.0,-18.0,16.0,-7.0,102.0,90.0,1013.0
45.0,24.0,207.0,-18.0,17.0,-7.0,99.0,97.0,1006.0
46.0,23.0,210.0,-18.0,17.0,-5.0,97.0,93.0,1009.0
47.0,22.0,208.0,-19.0,16.0,-6.0,100.0,95.0,1011.0
45.0,26.0,210.0,-20.0,17.0,-5.0,105.0,99.0,1006.0
46.0,24.0,208.0,-22.0,16.0,-4.0,102.0,93.0,1009.0
46.0,22.0,208.0,-25.0,15.0,-7.0,102.0,100.0,1007.0
48.0,23.0,208.0,-28.0,15.0,-6.0,98.0,98.0,1007.0
46.0,23.0,206.0,-27.0,13.0,-6.0,100.0,93.0,1003.0
46.0,23.0,206.0,-27.0,13.0,-5.0,97.0,95.0,1009.0
47.0,24.0,206.0,-24.0,12.0,-6.0,100.0,96.0,1008.0
47.0,21.0,210.0,-23.0,10.0,-7.0,100.0,95.0,1006.0
46.0,26.0,208.0,-21.0,11.0,-8.0,100.0,93.0,1007.0
47.0,22.0,205.0,-21.0,12.0,-7.0,95.0,97.0,1004.0
47.0,23.0,209.0,-20.0,13.0,-7.0,102.0,94.0,1010.0
47.0,25.0,209.0,-23.0,15.0,-7.0,99.0,96.0,1017.0
44.0,26.0,208.0,-26.0,17.0,-6.0,97.0,98.0,1015.0
48.0,22.0,211.0,-29.0,18.0,-6.0,101.0,99.0,1017.0
46.0,23.0,209.0,-29.0,18.0,-5.0,100.0,102.0,1010.0
45.0,26.0,208.0,-32.0,19.0,-6.0,101.0,101.0,1009.0
46.0,27.0,209.0,-35.0,19.0,-6.0,96.0,97.0,1005.0
45.0,21.0,210.0,-36.0,19.0,-6.0,101.0,97.0,1010.0
49.0,23.0,206.0,-37.0,18.0,-6.0,101.0,99.0,1011.0
48.0,23.0,209.0,-37.0,16.0,-6.0,100.0,94.0,1009.0
47.0,19.0,207.0,-37.0,13.0,-5.0,100.0,94.0,1007.0
45.0,22.0,206.0,-34.0,9.0,-4.0,96.0,91.0,1008.0
47.0,23.0,209.0,-28.0,5.0,-3.0,100.0,91.0,1002.0
47.0,25.0,209.0,-22.0,1.0,-4.0,98.0,94.0,1005.0
45.0,20.0,211.0,-15.0,0.0,-4.0,98.0,94.0,1005.0
48.0,21.0,204.0,-10.0,-2.0,-2.0,103.0,91.0,1002.0
47.0,24.0,208.0,-6.0,-1.0,-5.0,100.0,90.0,1006.0
49.0,24.0,206.0,-1.0,4.0,-5.0,101.0,94.0,1002.0
45.0,23.0,207.0,3.0,8.0,-5.0,97.0,94.0,1001.0
45.0,26.0,205.0,6.0,13.0,-5.0,104.0,100.0,1003.0
48.0,23.0,207.0,5.0,19.0,-6.0,102.0,94.0,1000.0
49.0,24.0,203.0,3.0,23.0,-6.0,100.0,98.0,1002.0
48.0,23.0,206.0,1.0,25.0,-9.0,99.0,102.0,1005.0
47.0,27.0,207.0,-3.0,26.0,-9.0,102.0,104.0,1002.0
44.0,28.0,206.0,-9.0,27.0,-9.0,105.0,105.0,1004.0
45.0,25.0,207.0,-17.0,26.0,-9.0,107.0,105.0,1002.0
47.0,26.0,210.0,-24.0,23.0,-8.0,100.0,106.0,1008.0
46.0,28.0,208.0,-30.0,22.0,-10.0,102.0,106.0,1008.0
47.0,26.0,207.0,-35.0,21.0,-8.0,106.0,106.0,1008.0
46.0,24.0,209.0,-38.0,19.0,-9.0,102.0,108.0,1009.0
47.0,26.0,208.0,-41.0,20.0,-9.0,108.0,102.0,1009.0
45.0,27.0,213.0,-40.0,18.0,-8.0,100.0,105.0,1015.0
45.0,23.0,211.0,-38.0,18.0,-6.0,110.0,102.0,1012.0
48.0,25.0,210.0,-32.0,19.0,-7.0,103.0,102.0,1017.0
47.0,26.0,208.0,-30.0,19.0,-9.0,107.0,101.0,1015.0
47.0,25.0,212.0,-22.0,18.0,-8.0,102.0,99.0,1008.0
51.0,23.0,210.0,-16.0,16.0,-7.0,99.0,96.0,1014.0
45.0,25.0,207.0,-15.0,15.0,-7.0,100.0,100.0,1015.0
50.0,25.0,208.0,-13.0,12.0,-6.0,102.0,99.0,1012.0
47.0,25.0,208.0,-12.0,12.0,-5.0,98.0,102.0,1009.0
44.0,25.0,208.0,-13.0,10.0,-5.0,106.0,101.0,1012.0
45.0,28.0,207.0,-13.0,11.0,-4.0,99.0,104.0,1013.0
47.0,26.0,204.0,-15.0,10.0,-5.0,99.0,102.0,1009.0
49.0,24.0,210.0,-17.0,10.0,-3.0,100.0,93.0,1006.0
49.0,24.0,209.0,-20.0,9.0,-3.0,98.0,96.0,1011.0
47.0,24.0,209.0,-21.0,8.0,-4.0,104.0,101.0,1009.0
47.0,23.0,210.0,-21.0,10.0,-3.0,101.0,98.0,1008.0
47.0,25.0,205.0,-23.0,10.0,-4.0,101.0,99.0,1009.0
48.0,22.0,207.0,-23.0,11.0,-4.0,103.0,98.0,1007.0
46.0,27.0,210.0,-22.0,12.0,-3.0,98.0,102.0,1010.0
47.0,24.0,209.0,-21.0,13.0,-4.0,97.0,103.0,1006.0
48.0,22.0,207.0,-21.0,12.0,-7.0,109.0,101.0,1003.0
48.0,24.0,206.0,-18.0,12.0,-6.0,100.0,101.0,1008.0
47.0,26.0,209.0,-16.0,12.0,-6.0,101.0,102.0,1004.0
46.0,28.0,209.0,-14.0,13.0,-6.0,105.0,102.0,1004.0
46.0,26.0,205.0,-12.0,13.0,-6.0,104.0,102.0,1006.0
56.0,18.0,196.0,-10.0,13.0,-6.0,102.0,105.0,1001.0
42.0,26.0,202.0,-8.0,14.0,-6.0,102.0,104.0,1006.0
50.0,26.0,203.0,-8.0,13.0,-6.0,99.0,106.0,1005.0
45.0,29.0,212.0,-6.0,13.0,-7.0,105.0,110.0,1007.0
47.0,27.0,208.0,-7.0,14.0,-6.0,102.0,105.0,1005.0
49.0,24.0,206.0,-11.0,14.0,-8.0,103.0,108.0,1009.0
47.0,20.0,208.0,-13.0,14.0,-7.0,102.0,107.0,1009.0
47.0,26.0,207.0,-18.0,15.0,-6.0,100.0,107.0,1007.0
45.0,27.0,209.0,-18.0,17.0,-5.0,97.0,107.0,1006.0
47.0,24.0,206.0,-21.0,16.0,-6.0,100.0,102.0,1013.0
48.0,25.0,209.0,-24.0,17.0,-6.0,102.0,107.0,1013.0
45.0,21.0,219.0,-28.0,18.0,-5.0,106.0,106.0,1013.0
49.0,26.0,210.0,-29.0,18.0,-6.0,102.0,103.0,1015.0
48.0,25.0,209.0,-32.0,19.0,-7.0,101.0,107.0,1017.0
48.0,27.0,214.0,-33.0,21.0,-8.0,109.0,103.0,1012.0
49.0,25.0,210.0,-34.0,21.0,-7.0,105.0,107.0,1010.0
49.0,30.0,211.0,-34.0,20.0,-6.0,99.0,109.0,1017.0
49.0,24.0,204.0,-32.0,18.0,-6.0,103.0,107.0,1013.0
45.0,29.0,209.0,-31.0,18.0,-5.0,106.0,108.0,1014.0
46.0,26.0,207.0,-29.0,16.0,-7.0,106.0,110.0,1009.0
46.0,26.0,211.0,-29.0,15.0,-5.0,99.0,112.0,1018.0
46.0,28.0,207.0,-28.0,14.0,-5.0,106.0,109.0,1008.0
46.0,28.0,209.0,-29.0,15.0,-5.0,104.0,108.0,1008.0
45.0,26.0,209.0,-28.0,15.0,-5.0,102.0,109.0,1006.0
46.0,27.0,207.0,-26.0,15.0,-6.0,103.0,108.0,1005.0
43.0,30.0,205.0,-26.0,16.0,-5.0,104.0,105.0,1004.0
47.0,24.0,206.0,-25.0,16.0,-5.0,101.0,106.0,1006.0
44.0,27.0,208.0,-24.0,16.0,-5.0,97.0,109.0,1008.0
44.0,25.0,208.0,-25.0,15.0,-5.0,103.0,104.0,1001.0
46.0,28.0,206.0,-24.0,14.0,-5.0,105.0,107.0,1006.0
46.0,26.0,207.0,-25.0,13.0,-6.0,96.0,105.0,1006.0
48.0,25.0,203.0,-24.0,14.0,-6.0,96.0,108.0,1006.0
45.0,28.0,212.0,-26.0,14.0,-6.0,100.0,105.0,1005.0
44.0,28.0,208.0,-28.0,15.0,-6.0,102.0,111.0,1008.0
46.0,28.0,209.0,-28.0,14.0,-7.0,101.0,108.0,1010.0
48.0,29.0,204.0,-30.0,15.0,-6.0,104.0,109.0,1008.0
49.0,25.0,208.0,-28.0,14.0,-7.0,100.0,111.0,1010.0
46.0,26.0,205.0,-31.0,15.0,-6.0,105.0,109.0,1009.0
48.0,28.0,207.0,-32.0,17.0,-7.0,105.0,106.0,1010.0
48.0,26.0,206.0,-33.0,16.0,-7.0,102.0,109.0,1013.0
46.0,24.0,207.0,-32.0,18.0,-7.0,101.0,108.0,1007.0
48.0,29.0,209.0,-32.0,18.0,-8.0,101.0,112.0,1007.0
47.0,28.0,211.0,-31.0,17.0,-7.0,100.0,111.0,1011.0
46.0,25.0,207.0,-32.0,18.0,-8.0,98.0,110.0,1007.0
48.0,27.0,209.0,-30.0,18.0,-8.0,101.0,114.0,1007.0
43.0,30.0,206.0,-29.0,18.0,-8.0,104.0,106.0,1010.0
46.0,26.0,204.0,-28.0,15.0,-7.0,103.0,107.0,1009.0
48.0,27.0,207.0,-28.0,16.0,-7.0,103.0,112.0,1009.0
45.0,32.0,208.0,-25.0,16.0,-7.0,103.0,108.0,1007.0
47.0,26.0,208.0,-26.0,13.0,-7.0,96.0,112.0,1006.0
45.0,27.0,207.0,-24.0,12.0,-6.0,99.0,111.0,1006.0
47.0,29.0,209.0,-25.0,12.0,-5.0,98.0,110.0,1006.0
47.0,28.0,205.0,-23.0,12.0,-3.0,108.0,108.0,1010.0
47.0,28.0,208.0,-23.0,13.0,-4.0,101.0,106.0,1003.0
49.0,29.0,207.0,-24.0,12.0,-4.0,103.0,109.0,1005.0
45.0,29.0,209.0,-24.0,14.0,-5.0,103.0,107.0,1006.0
47.0,26.0,207.0,-26.0,14.0,-6.0,98.0,111.0,1006.0
46.0,28.0,206.0,-27.0,15.0,-4.0,103.0,106.0,1010.0
46.0,30.0,211.0,-29.0,14.0,-4.0,99.0,109.0,1005.0
45.0,27.0,205.0,-32.0,15.0,-5.0,102.0,111.0,1003.0
46.0,29.0,207.0,-33.0,18.0,-5.0,100.0,111.0,1005.0
49.0,27.0,206.0,-33.0,16.0,-5.0,98.0,112.0,1007.0
47.0,27.0,213.0,-33.0,14.0,-5.0,101.0,108.0,1009.0
49.0,26.0,206.0,-33.0,15.0,-2.0,108.0,117.0,1008.0
47.0,27.0,210.0,-34.0,14.0,-4.0,100.0,110.0,1007.0
45.0,28.0,206.0,-32.0,15.0,-4.0,103.0,113.0,1008.0
47.0,28.0,207.0,-34.0,15.0,-4.0,111.0,115.0,1007.0
47.0,28.0,210.0,-34.0,15.0,-4.0,102.0,109.0,1007.0
47.0,27.0,209.0,-33.0,15.0,-5.0,100.0,114.0,1010.0
45.0,30.0,206.0,-35.0,12.0,-5.0,108.0,114.0,1007.0
47.0,29.0,208.0,-36.0,13.0,-4.0,105.0,114.0,1010.0
47.0,28.0,208.0,-35.0,13.0,-5.0,106.0,117.0,1005.0
46.0,28.0,205.0,-35.0,13.0,-5.0,101.0,112.0,1008.0
47.0,28.0,209.0,-35.0,11.0,-5.0,100.0,113.0,1006.0
47.0,26.0,204.0,-35.0,11.0,-5.0,104.0,112.0,1008.0
47.0,29.0,207.0,-37.0,12.0,-6.0,105.0,113.0,1007.0
46.0,30.0,208.0,-34.0,10.0,-5.0,104.0,113.0,1006.0
46.0,30.0,209.0,-35.0,10.0,-4.0,105.0,117.0,1005.0
46.0,29.0,207.0,-35.0,11.0,-4.0,102.0,112.0,1006.0
47.0,26.0,208.0,-35.0,14.0,-4.0,108.0,115.0,1012.0
49.0,27.0,207.0,-37.0,15.0,-5.0,108.0,116.0,1005.0
48.0,26.0,207.0,-41.0,17.0,-5.0,106.0,113.0,1008.0
47.0,27.0,205.0,-42.0,17.0,-5.0,110.0,109.0,1010.0
47.0,33.0,208.0,-43.0,19.0,-5.0,107.0,113.0,1012.0
50.0,28.0,208.0,-45.0,18.0,-3.0,104.0,114.0,1011.0
49.0,26.0,208.0,-44.0,20.0,-5.0,105.0,113.0,1006.0
48.0,30.0,212.0,-43.0,22.0,-6.0,108.0,115.0,1007.0
47.0,29.0,209.0,-44.0,24.0,-7.0,104.0,111.0,1019.0
46.0,28.0,207.0,-45.0,23.0,-8.0,100.0,114.0,1013.0
45.0,28.0,209.0,-46.0,25.0,-8.0,101.0,117.0,1014.0
46.0,28.0,210.0,-48.0,24.0,-7.0,102.0,117.0,1014.0
46.0,30.0,209.0,-51.0,22.0,-5.0,98.0,115.0,1015.0
45.0,28.0,207.0,-52.0,20.0,-6.0,99.0,116.0,1013.0
43.0,30.0,214.0,-55.0,19.0,-5.0,100.0,114.0,1012.0
49.0,25.0,205.0,-54.0,16.0,-6.0,98.0,117.0,1007.0
49.0,27.0,207.0,-55.0,15.0,-5.0,105.0,114.0,1005.0
46.0,29.0,207.0,-55.0,14.0,-3.0,102.0,114.0,1010.0
47.0,31.0,207.0,-55.0,13.0,-3.0,99.0,113.0,1001.0
47.0,27.0,210.0,-55.0,11.0,-5.0,100.0,109.0,1008.0
46.0,29.0,206.0,-51.0,10.0,-4.0,98.0,107.0,1004.0
46.0,29.0,211.0,-48.0,9.0,-2.0,100.0,109.0,1002.0
46.0,26.0,207.0,-40.0,6.0,-1.0,100.0,111.0,1003.0
45.0,24.0,206.0,-32.0,4.0,-3.0,101.0,104.0,1006.0
47.0,26.0,205.0,-26.0,2.0,-4.0,103.0,110.0,1001.0
49.0,27.0,205.0,-20.0,3.0,-4.0,102.0,108.0,1001.0
47.0,27.0,206.0,-16.0,7.0,-4.0,110.0,107.0,1000.0
49.0,25.0,205.0,-12.0,10.0,-5.0,104.0,107.0,1003.0
47.0,24.0,205.0,-8.0,15.0,-6.0,101.0,106.0,998.0
47.0,27.0,203.0,-3.0,18.0,-7.0,105.0,109.0,1003.0
47.0,28.0,205.0,-3.0,22.0,-8.0,104.0,109.0,1005.0
48.0,25.0,207.0,-2.0,26.0,-9.0,104.0,111.0,1002.0
47.0,29.0,207.0,-4.0,27.0,-8.0,100.0,111.0,1009.0
43.0,30.0,207.0,-8.0,29.0,-9.0,102.0,116.0,1007.0
45.0,31.0,209.0,-13.0,28.0,-9.0,104.0,112.0,1001.0
50.0,29.0,208.0,-21.0,24.0,-8.0,106.0,118.0,1007.0
46.0,30.0,207.0,-28.0,22.0,-7.0,103.0,114.0,1010.0
47.0,31.0,207.0,-36.0,22.0,-4.0,109.0,117.0,1009.0
50.0,30.0,208.0,-43.0,19.0,-5.0,104.0,120.0,1013.0
46.0,29.0,213.0,-49.0,17.0,-6.0,108.0,119.0,1009.0
47.0,28.0,210.0,-53.0,16.0,-6.0,103.0,118.0,1012.0
47.0,29.0,212.0,-52.0,16.0,-5.0,104.0,116.0,1011.0
47.0,29.0,213.0,-52.0,16.0,-6.0,106.0,115.0,1014.0
45.0,27.0,207.0,-48.0,16.0,-6.0,102.0,115.0,1017.0
49.0,26.0,209.0,-45.0,16.0,-6.0,99.0,116.0,1009.0
44.0,30.0,208.0,-39.0,16.0,-6.0,109.0,116.0,1006.0
46.0,28.0,207.0,-34.0,16.0,-7.0,102.0,118.0,1006.0
43.0,32.0,209.0,-29.0,15.0,-7.0,104.0,113.0,1002.0
49.0,27.0,203.0,-26.0,15.0,-7.0,103.0,117.0,1008.0
49.0,24.0,206.0,-25.0,15.0,-4.0,104.0,114.0,1004.0
49.0,25.0,207.0,-26.0,13.0,-4.0,108.0,112.0,1008.0
47.0,29.0,209.0,-27.0,13.0,-3.0,103.0,117.0,1003.0
47.0,30.0,208.0,-30.0,12.0,-6.0,105.0,114.0,1000.0
46.0,31.0,210.0,-31.0,13.0,-4.0,107.0,117.0,1006.0
51.0,27.0,207.0,-36.0,12.0,-5.0,108.0,115.0,1005.0
48.0,28.0,205.0,-37.0,12.0,-4.0,101.0,110.0,1006.0
47.0,28.0,212.0,-39.0,13.0,-4.0,104.0,112.0,1005.0
47.0,31.0,209.0,-41.0,14.0,-4.0,103.0,115.0,1005.0
48.0,27.0,204.0,-40.0,13.0,-3.0,105.0,112.0,1009.0
45.0,26.0,207.0,-40.0,15.0,-4.0,107.0,108.0,1006.0
47.0,27.0,206.0,-39.0,15.0,-3.0,104.0,110.0,1008.0
49.0,29.0,206.0,-36.0,15.0,-4.0,101.0,111.0,1005.0
47.0,27.0,206.0,-37.0,15.0,-3.0,101.0,117.0,1005.0
53.0,20.0,207.0,-35.0,14.0,-5.0,106.0,108.0,1002.0
47.0,28.0,207.0,-31.0,14.0,-5.0,102.0,111.0,1005.0
46.0,31.0,209.0,-30.0,14.0,-5.0,100.0,113.0,1005.0
50.0,28.0,208.0,-28.0,15.0,-4.0,104.0,113.0,1003.0
46.0,29.0,211.0,-29.0,15.0,-6.0,106.0,115.0,1009.0
45.0,29.0,206.0,-31.0,15.0,-6.0,106.0,119.0,1006.0
45.0,30.0,207.0,-29.0,14.0,-5.0,109.0,118.0,1004.0
47.0,33.0,208.0,-32.0,16.0,-5.0,105.0,120.0,1011.0
48.0,26.0,209.0,-37.0,16.0,-6.0,105.0,116.0,1012.0
49.0,29.0,209.0,-41.0,17.0,-6.0,105.0,119.0,1011.0
48.0,31.0,209.0,-45.0,18.0,-6.0,109.0,116.0,1010.0
47.0,29.0,201.0,-49.0,18.0,-5.0,106.0,117.0,1011.0
49.0,28.0,210.0,-52.0,18.0,-5.0,106.0,120.0,1015.0
49.0,32.0,207.0,-53.0,19.0,-6.0,108.0,119.0,1010.0
50.0,29.0,206.0,-57.0,19.0,-6.0,110.0,116.0,1010.0
49.0,29.0,211.0,-58.0,18.0,-5.0,103.0,119.0,1011.0
48.0,32.0,209.0,-61.0,18.0,-5.0,105.0,118.0,1012.0
50.0,29.0,209.0,-61.0,20.0,-4.0,106.0,119.0,1010.0
49.0,28.0,210.0,-60.0,18.0,-3.0,106.0,119.0,1012.0
46.0,29.0,206.0,-61.0,18.0,-3.0,102.0,117.0,1009.0
46.0,30.0,213.0,-59.0,17.0,-4.0,108.0,120.0,1014.0
50.0,29.0,207.0,-57.0,15.0,-4.0,99.0,120.0,1008.0
49.0,28.0,208.0,-56.0,13.0,-3.0,102.0,115.0,1008.0
49.0,30.0,210.0,-56.0,13.0,-4.0,104.0,120.0,1007.0
47.0,31.0,204.0,-55.0,14.0,-3.0,102.0,116.0,1005.0
49.0,29.0,206.0,-54.0,15.0,-3.0,100.0,116.0,999.0
46.0,29.0,209.0,-57.0,16.0,-3.0,97.0,118.0,1004.0
47.0,29.0,206.0,-58.0,18.0,-4.0,103.0,115.0,1007.0
50.0,29.0,205.0,-59.0,17.0,-4.0,100.0,114.0,1003.0
47.0,26.0,208.0,-60.0,17.0,-4.0,103.0,108.0,1001.0
48.0,26.0,205.0,-60.0,17.0,-4.0,103.0,111.0,1008.0
45.0,30.0,206.0,-61.0,18.0,-3.0,102.0,115.0,1002.0
47.0,30.0,209.0,-59.0,17.0,-4.0,103.0,110.0,1005.0
48.0,26.0,210.0,-61.0,17.0,-4.0,102.0,110.0,1007.0
48.0,26.0,209.0,-61.0,18.0,-4.0,103.0,108.0,1010.0
49.0,26.0,205.0,-65.0,20.0,-3.0,106.0,113.0,1008.0
45.0,29.0,209.0,-67.0,21.0,-3.0,98.0,110.0,1007.0
44.0,29.0,205.0,-67.0,21.0,-2.0,104.0,117.0,1012.0
51.0,27.0,209.0,-68.0,22.0,-4.0,102.0,114.0,1012.0
48.0,30.0,205.0,-70.0,21.0,-4.0,108.0,114.0,1014.0
48.0,31.0,208.0,-73.0,23.0,-5.0,106.0,120.0,1009.0
48.0,31.0,210.0,-74.0,22.0,-4.0,108.0,116.0,1010.0
48.0,32.0,209.0,-77.0,22.0,-5.0,105.0,120.0,1013.0
47.0,30.0,206.0,-80.0,21.0,-7.0,108.0,121.0,1013.0
46.0,31.0,208.0,-83.0,21.0,-6.0,102.0,121.0,1010.0
49.0,32.0,207.0,-86.0,18.0,-5.0,101.0,118.0,1007.0
46.0,30.0,209.0,-92.0,16.0,-4.0,99.0,113.0,1012.0
47.0,28.0,207.0,-97.0,15.0,-4.0,99.0,121.0,1009.0
43.0,26.0,206.0,-101.0,12.0,-2.0,104.0,110.0,1010.0
48.0,23.0,210.0,-106.0,9.0,-2.0,101.0,110.0,1012.0
47.0,25.0,211.0,-111.0,7.0,-1.0,102.0,105.0,1010.0
47.0,28.0,208.0,-112.0,6.0,2.0,104.0,104.0,1017.0
47.0,28.0,212.0,-113.0,4.0,2.0,98.0,110.0,1020.0
48.0,26.0,210.0,-114.0,2.0,3.0,106.0,106.0,1023.0
49.0,28.0,214.0,-114.0,1.0,4.0,112.0,101.0,1027.0
45.0,23.0,214.0,-114.0,1.0,4.0,111.0,101.0,1030.0
47.0,24.0,220.0,-114.0,0.0,3.0,104.0,105.0,1032.0
46.0,27.0,212.0,-112.0,1.0,1.0,113.0,104.0,1031.0
48.0,28.0,216.0,-110.0,-1.0,1.0,112.0,102.0,1032.0
51.0,27.0,217.0,-108.0,-3.0,-1.0,117.0,99.0,1036.0
51.0,26.0,220.0,-106.0,-8.0,-5.0,121.0,107.0,1044.0
50.0,25.0,221.0,-108.0,-17.0,-6.0,116.0,101.0,1049.0
51.0,27.0,220.0,-110.0,-26.0,-8.0,117.0,107.0,1047.0
52.0,28.0,218.0,-116.0,-36.0,-10.0,126.0,107.0,1046.0
49.0,28.0,221.0,-122.0,-45.0,-12.0,127.0,105.0,1046.0
49.0,25.0,221.0,-125.0,-49.0,-13.0,127.0,108.0,1044.0
52.0,29.0,221.0,-125.0,-48.0,-15.0,125.0,113.0,1040.0
51.0,28.0,216.0,-122.0,-45.0,-17.0,127.0,112.0,1038.0
51.0,27.0,214.0,-112.0,-37.0,-19.0,124.0,114.0,1036.0
49.0,29.0,215.0,-99.0,-27.0,-20.0,124.0,115.0,1023.0
50.0,31.0,213.0,-86.0,-18.0,-20.0,118.0,118.0,1027.0
52.0,30.0,209.0,-75.0,-5.0,-21.0,110.0,121.0,1015.0
52.0,28.0,210.0,-72.0,8.0,-21.0,111.0,128.0,1007.0
46.0,33.0,205.0,-75.0,24.0,-21.0,103.0,127.0,996.0
50.0,34.0,205.0,-85.0,39.0,-22.0,104.0,130.0,988.0
48.0,33.0,203.0,-101.0,55.0,-21.0,104.0,122.0,981.0
48.0,33.0,203.0,-124.0,67.0,-21.0,111.0,122.0,982.0
48.0,32.0,203.0,-147.0,77.0,-21.0,110.0,118.0,982.0
49.0,28.0,200.0,-170.0,83.0,-22.0,110.0,115.0,985.0
50.0,27.0,205.0,-189.0,87.0,-23.0,113.0,108.0,996.0
50.0,25.0,210.0,-204.0,86.0,-21.0,113.0,102.0,1005.0
48.0,27.0,208.0,-211.0,84.0,-19.0,114.0,99.0,1007.0
49.0,26.0,210.0,-215.0,81.0,-18.0,105.0,95.0,1019.0
46.0,22.0,211.0,-212.0,77.0,-18.0,109.0,89.0,1032.0
49.0,21.0,216.0,-203.0,75.0,-18.0,106.0,94.0,1027.0
48.0,22.0,210.0,-186.0,74.0,-21.0,102.0,92.0,1022.0
46.0,22.0,213.0,-164.0,73.0,-21.0,99.0,92.0,1024.0
45.0,20.0,214.0,-136.0,75.0,-27.0,91.0,89.0,1018.0
45.0,18.0,209.0,-111.0,79.0,-33.0,93.0,89.0,1017.0
42.0,22.0,208.0,-84.0,80.0,-41.0,88.0,89.0,1006.0
39.0,19.0,208.0,-54.0,83.0,-44.0,84.0,81.0,1010.0
40.0,18.0,206.0,-22.0,88.0,-46.0,86.0,80.0,995.0
37.0,19.0,204.0,11.0,93.0,-51.0,77.0,78.0,995.0
43.0,18.0,202.0,35.0,94.0,-53.0,81.0,85.0,990.0
38.0,18.0,203.0,54.0,97.0,-53.0,81.0,86.0,981.0
45.0,22.0,205.0,66.0,103.0,-50.0,87.0,87.0,991.0
43.0,25.0,206.0,71.0,110.0,-49.0,91.0,97.0,994.0
46.0,26.0,210.0,71.0,119.0,-44.0,92.0,100.0,995.0
45.0,25.0,208.0,69.0,129.0,-41.0,89.0,108.0,1010.0
46.0,27.0,208.0,56.0,136.0,-38.0,90.0,110.0,1012.0
43.0,27.0,208.0,45.0,139.0,-35.0,90.0,109.0,1017.0
45.0,30.0,208.0,29.0,143.0,-33.0,89.0,114.0,1020.0
42.0,27.0,209.0,15.0,149.0,-33.0,91.0,112.0,1020.0
44.0,29.0,211.0,5.0,153.0,-30.0,90.0,105.0,1020.0
45.0,22.0,213.0,0.0,157.0,-29.0,96.0,100.0,1022.0
45.0,23.0,212.0,3.0,159.0,-27.0,94.0,90.0,1022.0
49.0,20.0,208.0,12.0,163.0,-25.0,98.0,87.0,1017.0
47.0,18.0,207.0,31.0,171.0,-23.0,93.0,79.0,1009.0
41.0,17.0,203.0,60.0,184.0,-20.0,85.0,80.0,1007.0
41.0,18.0,208.0,91.0,199.0,-16.0,73.0,77.0,1001.0
36.0,16.0,202.0,123.0,211.0,-13.0,63.0,80.0,999.0
36.0,20.0,205.0,151.0,217.0,-8.0,64.0,80.0,999.0
33.0,22.0,202.0,174.0,215.0,-7.0,59.0,89.0,996.0
35.0,20.0,203.0,189.0,206.0,-6.0,58.0,86.0,992.0
36.0,22.0,200.0,197.0,189.0,-3.0,54.0,91.0,985.0
30.0,24.0,203.0,206.0,173.0,-2.0,50.0,95.0,982.0
31.0,26.0,199.0,216.0,159.0,2.0,51.0,103.0,967.0
28.0,27.0,198.0,229.0,147.0,8.0,41.0,113.0,970.0
28.0,30.0,195.0,243.0,135.0,15.0,38.0,115.0,978.0
26.0,33.0,201.0,253.0,121.0,23.0,28.0,117.0,980.0
27.0,33.0,202.0,259.0,102.0,31.0,30.0,117.0,984.0
27.0,31.0,201.0,252.0,80.0,39.0,34.0,124.0,992.0
26.0,32.0,206.0,242.0,59.0,48.0,35.0,127.0,1003.0
28.0,34.0,210.0,224.0,37.0,57.0,35.0,128.0,1006.0
26.0,36.0,210.0,206.0,19.0,66.0,41.0,136.0,1025.0
27.0,35.0,205.0,184.0,4.0,76.0,42.0,139.0,1024.0
30.0,35.0,214.0,163.0,-5.0,86.0,42.0,128.0,1029.0
34.0,32.0,214.0,144.0,-4.0,94.0,50.0,129.0,1032.0
32.0,31.0,214.0,130.0,7.0,103.0,53.0,121.0,1034.0
33.0,33.0,216.0,117.0,24.0,108.0,52.0,115.0,1034.0
32.0,28.0,217.0,109.0,42.0,111.0,50.0,114.0,1039.0
34.0,28.0,218.0,104.0,62.0,119.0,49.0,109.0,1049.0
31.0,28.0,220.0,105.0,80.0,126.0,40.0,109.0,1056.0
32.0,24.0,223.0,108.0,98.0,134.0,43.0,102.0,1058.0
29.0,23.0,223.0,115.0,113.0,137.0,41.0,95.0,1055.0
28.0,19.0,221.0,128.0,127.0,140.0,36.0,94.0,1049.0
29.0,16.0,220.0,143.0,139.0,145.0,35.0,76.0,1042.0
29.0,15.0,220.0,165.0,150.0,147.0,38.0,66.0,1041.0
28.0,13.0,211.0,189.0,162.0,151.0,38.0,60.0,1032.0
30.0,10.0,214.0,218.0,171.0,156.0,32.0,59.0,1022.0
29.0,13.0,213.0,253.0,177.0,160.0,37.0,58.0,1013.0
22.0,19.0,204.0,289.0,177.0,167.0,35.0,59.0,1002.0
28.0,13.0,200.0,320.0,173.0,170.0,30.0,64.0,988.0
23.0,16.0,199.0,347.0,163.0,177.0,29.0,74.0,980.0
24.0,18.0,195.0,367.0,146.0,182.0,23.0,81.0,967.0
23.0,22.0,194.0,375.0,119.0,189.0,14.0,98.0,956.0
20.0,29.0,190.0,371.0,85.0,196.0,7.0,105.0,942.0
19.0,31.0,193.0,359.0,45.0,201.0,8.0,124.0,940.0
13.0,36.0,190.0,336.0,0.0,208.0,-7.0,131.0,940.0
21.0,38.0,197.0,306.0,-50.0,213.0,-4.0,157.0,957.0
28.0,43.0,197.0,275.0,-103.0,227.0,40.0,162.0,955.0
29.0,49.0,196.0,246.0,-142.0,241.0,41.0,175.0,964.0
31.0,48.0,208.0,226.0,-165.0,258.0,54.0,184.0,976.0
32.0,54.0,204.0,212.0,-185.0,271.0,49.0,199.0,996.0
36.0,51.0,203.0,201.0,-208.0,285.0,73.0,204.0,1001.0
40.0,54.0,205.0,193.0,-231.0,290.0,80.0,204.0,1004.0
40.0,55.0,206.0,191.0,-246.0,292.0,81.0,221.0,1004.0
42.0,57.0,211.0,192.0,-252.0,301.0,91.0,220.0,1004.0
47.0,54.0,208.0,202.0,-254.0,307.0,96.0,221.0,1008.0
49.0,57.0,209.0,214.0,-255.0,309.0,105.0,218.0,1011.0
48.0,57.0,206.0,225.0,-251.0,307.0,106.0,220.0,1008.0
48.0,55.0,206.0,230.0,-245.0,305.0,103.0,224.0,1006.0
55.0,55.0,210.0,230.0,-238.0,305.0,119.0,218.0,1010.0
54.0,58.0,205.0,227.0,-229.0,304.0,124.0,218.0,1006.0
58.0,56.0,207.0,221.0,-218.0,297.0,140.0,213.0,1007.0
55.0,58.0,207.0,213.0,-199.0,288.0,134.0,222.0,1003.0
52.0,58.0,209.0,206.0,-174.0,284.0,139.0,220.0,1004.0
64.0,58.0,206.0,192.0,-148.0,276.0,162.0,226.0,1008.0
65.0,58.0,205.0,178.0,-117.0,272.0,172.0,226.0,1004.0
63.0,59.0,208.0,165.0,-82.0,270.0,168.0,228.0,1008.0
59.0,62.0,207.0,154.0,-52.0,268.0,152.0,229.0,1013.0
60.0,64.0,213.0,141.0,-34.0,267.0,156.0,234.0,1024.0
63.0,62.0,213.0,128.0,-28.0,268.0,161.0,239.0,1026.0
61.0,61.0,213.0,115.0,-27.0,266.0,156.0,236.0,1029.0
62.0,60.0,213.0,102.0,-29.0,265.0,165.0,238.0,1028.0
62.0,59.0,213.0,92.0,-27.0,268.0,165.0,229.0,1013.0
64.0,60.0,204.0,80.0,-23.0,270.0,169.0,223.0,1008.0
66.0,52.0,200.0,67.0,-18.0,268.0,174.0,210.0,994.0
67.0,50.0,200.0,60.0,-10.0,264.0,179.0,198.0,984.0
66.0,48.0,198.0,54.0,-4.0,260.0,181.0,193.0,974.0
70.0,50.0,197.0,47.0,1.0,258.0,197.0,191.0,971.0
71.0,50.0,197.0,42.0,2.0,251.0,202.0,194.0,967.0
71.0,51.0,198.0,39.0,9.0,244.0,200.0,196.0,968.0
65.0,55.0,195.0,38.0,13.0,237.0,185.0,203.0,963.0
61.0,58.0,195.0,36.0,9.0,234.0,169.0,224.0,962.0
57.0,61.0,198.0,29.0,-5.0,233.0,150.0,234.0,967.0
57.0,63.0,195.0,17.0,-29.0,234.0,136.0,241.0,965.0
56.0,65.0,198.0,-4.0,-55.0,230.0,133.0,249.0,966.0
56.0,65.0,194.0,-28.0,-69.0,225.0,146.0,247.0,961.0
63.0,62.0,196.0,-53.0,-73.0,220.0,169.0,248.0,964.0
65.0,62.0,199.0,-76.0,-67.0,213.0,175.0,239.0,960.0
64.0,60.0,197.0,-94.0,-58.0,207.0,180.0,228.0,958.0
64.0,56.0,196.0,-106.0,-55.0,206.0,182.0,218.0,959.0
69.0,49.0,193.0,-112.0,-63.0,205.0,186.0,197.0,953.0
76.0,45.0,195.0,-113.0,-79.0,204.0,222.0,180.0,952.0
77.0,40.0,194.0,-112.0,-89.0,197.0,218.0,163.0,949.0
75.0,37.0,193.0,-102.0,-88.0,186.0,217.0,148.0,959.0
71.0,35.0,194.0,-85.0,-84.0,175.0,224.0,132.0,964.0
75.0,30.0,200.0,-58.0,-84.0,159.0,221.0,120.0,970.0
72.0,25.0,199.0,-24.0,-82.0,139.0,212.0,114.0,983.0
75.0,21.0,203.0,13.0,-76.0,119.0,214.0,110.0,988.0
71.0,24.0,208.0,48.0,-70.0,95.0,206.0,111.0,999.0
66.0,29.0,208.0,78.0,-68.0,76.0,187.0,111.0,1010.0
65.0,31.0,207.0,92.0,-71.0,55.0,174.0,120.0,1010.0
62.0,33.0,211.0,91.0,-85.0,36.0,165.0,125.0,1005.0
59.0,37.0,207.0,69.0,-106.0,19.0,156.0,133.0,1006.0
59.0,35.0,209.0,39.0,-130.0,3.0,149.0,130.0,1006.0
56.0,33.0,205.0,4.0,-154.0,-11.0,137.0,128.0,1004.0
48.0,35.0,206.0,-28.0,-178.0,-26.0,125.0,122.0,1003.0
47.0,32.0,201.0,-52.0,-199.0,-37.0,106.0,127.0,1000.0
40.0,33.0,207.0,-71.0,-213.0,-51.0,86.0,127.0,1001.0
31.0,36.0,202.0,-79.0,-215.0,-64.0,64.0,139.0,1004.0
28.0,37.0,211.0,-79.0,-209.0,-79.0,44.0,139.0,1009.0
24.0,40.0,207.0,-71.0,-195.0,-92.0,20.0,146.0,1017.0
20.0,41.0,212.0,-55.0,-180.0,-105.0,1.0,158.0,1020.0
16.0,40.0,213.0,-31.0,-160.0,-120.0,-21.0,170.0,1020.0
15.0,46.0,216.0,0.0,-138.0,-135.0,-29.0,174.0,1023.0
15.0,44.0,214.0,31.0,-116.0,-150.0,-21.0,184.0,1033.0
18.0,48.0,214.0,62.0,-95.0,-165.0,-13.0,187.0,1021.0
17.0,50.0,211.0,90.0,-72.0,-182.0,-15.0,193.0,1015.0
23.0,48.0,206.0,118.0,-44.0,-198.0,-2.0,195.0,1010.0
24.0,49.0,209.0,142.0,-13.0,-215.0,9.0,189.0,1009.0
24.0,49.0,212.0,159.0,17.0,-231.0,18.0,183.0,1010.0
23.0,48.0,206.0,172.0,44.0,-244.0,18.0,183.0,1010.0
23.0,49.0,210.0,179.0,70.0,-256.0,11.0,176.0,1009.0
22.0,45.0,208.0,185.0,86.0,-262.0,9.0,172.0,1015.0
21.0,46.0,212.0,186.0,86.0,-262.0,14.0,168.0,1009.0
22.0,43.0,210.0,185.0,67.0,-259.0,12.0,172.0,1019.0
24.0,46.0,211.0,177.0,35.0,-249.0,15.0,176.0,1018.0
23.0,47.0,210.0,164.0,-6.0,-237.0,20.0,177.0,1018.0
25.0,49.0,214.0,146.0,-51.0,-222.0,33.0,185.0,1025.0
29.0,49.0,210.0,126.0,-95.0,-207.0,42.0,192.0,1034.0
31.0,53.0,213.0,107.0,-138.0,-193.0,51.0,190.0,1033.0
36.0,55.0,216.0,93.0,-175.0,-180.0,73.0,204.0,1036.0
40.0,54.0,214.0,83.0,-209.0,-170.0,83.0,208.0,1038.0
46.0,54.0,214.0,80.0,-235.0,-163.0,100.0,214.0,1037.0
49.0,52.0,215.0,80.0,-253.0,-156.0,119.0,215.0,1033.0
53.0,54.0,212.0,84.0,-265.0,-152.0,135.0,214.0,1032.0
57.0,56.0,215.0,91.0,-269.0,-150.0,147.0,217.0,1024.0
60.0,56.0,209.0,101.0,-270.0,-150.0,147.0,212.0,1015.0
58.0,56.0,205.0,114.0,-270.0,-150.0,150.0,213.0,998.0
57.0,56.0,200.0,132.0,-272.0,-149.0,149.0,208.0,985.0
58.0,53.0,198.0,156.0,-274.0,-146.0,148.0,202.0,969.0
59.0,53.0,197.0,183.0,-271.0,-145.0,151.0,197.0,959.0
58.0,51.0,197.0,214.0,-266.0,-141.0,153.0,199.0,950.0
60.0,50.0,194.0,241.0,-257.0,-139.0,149.0,202.0,947.0
59.0,53.0,194.0,264.0,-246.0,-135.0,144.0,204.0,951.0
59.0,57.0,195.0,284.0,-229.0,-136.0,140.0,218.0,953.0
59.0,61.0,195.0,297.0,-209.0,-133.0,147.0,229.0,963.0
58.0,64.0,203.0,305.0,-191.0,-132.0,151.0,237.0,975.0
61.0,65.0,200.0,314.0,-174.0,-132.0,152.0,252.0,982.0
60.0,65.0,198.0,319.0,-160.0,-133.0,155.0,259.0,973.0
60.0,72.0,203.0,318.0,-147.0,-136.0,155.0,279.0,981.0
62.0,75.0,197.0,314.0,-139.0,-134.0,159.0,291.0,980.0
61.0,76.0,200.0,309.0,-135.0,-130.0,167.0,300.0,971.0
62.0,81.0,199.0,302.0,-138.0,-129.0,161.0,318.0,971.0
66.0,80.0,193.0,297.0,-147.0,-120.0,182.0,313.0,958.0
67.0,82.0,193.0,292.0,-158.0,-118.0,179.0,325.0,943.0
67.0,84.0,191.0,288.0,-169.0,-114.0,176.0,334.0,936.0
66.0,87.0,192.0,290.0,-182.0,-104.0,185.0,337.0,933.0
70.0,84.0,188.0,304.0,-203.0,-92.0,197.0,338.0,925.0
69.0,82.0,188.0,323.0,-225.0,-79.0,191.0,341.0,917.0
70.0,84.0,189.0,350.0,-245.0,-63.0,202.0,341.0,914.0
71.0,84.0,187.0,381.0,-259.0,-53.0,206.0,337.0,905.0
71.0,85.0,175.0,403.0,-265.0,-44.0,196.0,344.0,907.0
75.0,87.0,183.0,419.0,-269.0,-34.0,209.0,340.0,905.0
71.0,88.0,186.0,430.0,-278.0,-22.0,202.0,345.0,905.0
71.0,90.0,181.0,437.0,-290.0,-9.0,202.0,351.0,906.0
71.0,90.0,184.0,433.0,-306.0,4.0,199.0,347.0,906.0
67.0,90.0,186.0,424.0,-324.0,15.0,185.0,352.0,900.0
65.0,88.0,182.0,410.0,-348.0,30.0,185.0,349.0,906.0
62.0,88.0,181.0,392.0,-374.0,41.0,170.0,345.0,894.0
58.0,90.0,181.0,370.0,-404.0,53.0,148.0,346.0,899.0
57.0,90.0,184.0,342.0,-433.0,64.0,142.0,340.0,906.0
56.0,88.0,183.0,315.0,-456.0,74.0,136.0,341.0,906.0
55.0,87.0,186.0,280.0,-468.0,81.0,140.0,340.0,913.0
61.0,82.0,189.0,245.0,-466.0,83.0,140.0,336.0,921.0
61.0,83.0,190.0,208.0,-456.0,82.0,155.0,328.0,927.0
65.0,79.0,193.0,181.0,-441.0,75.0,169.0,315.0,939.0
68.0,76.0,195.0,160.0,-420.0,66.0,180.0,312.0,950.0
74.0,77.0,196.0,150.0,-393.0,56.0,199.0,305.0,956.0
80.0,77.0,196.0,149.0,-365.0,45.0,219.0,305.0,966.0
82.0,78.0,195.0,155.0,-338.0,32.0,233.0,310.0,965.0
90.0,71.0,219.0,168.0,-312.0,28.0,249.0,311.0,967.0
88.0,79.0,197.0,184.0,-294.0,27.0,267.0,322.0,969.0
92.0,82.0,196.0,201.0,-281.0,24.0,275.0,326.0,964.0
91.0,82.0,195.0,215.0,-273.0,25.0,284.0,324.0,966.0
92.0,82.0,197.0,225.0,-271.0,25.0,285.0,333.0,962.0
93.0,83.0,196.0,236.0,-270.0,25.0,286.0,339.0,961.0
94.0,82.0,187.0,244.0,-272.0,30.0,283.0,336.0,955.0
91.0,87.0,193.0,254.0,-273.0,36.0,279.0,338.0,948.0
88.0,88.0,194.0,257.0,-281.0,39.0,264.0,344.0,941.0
85.0,88.0,193.0,258.0,-293.0,43.0,264.0,341.0,944.0
85.0,89.0,193.0,257.0,-304.0,46.0,255.0,349.0,950.0
76.0,87.0,199.0,247.0,-311.0,46.0,248.0,351.0,951.0
83.0,92.0,193.0,231.0,-314.0,44.0,237.0,353.0,943.0
77.0,90.0,195.0,209.0,-312.0,41.0,235.0,360.0,942.0
79.0,93.0,192.0,184.0,-310.0,38.0,226.0,357.0,939.0
74.0,91.0,192.0,162.0,-310.0,32.0,227.0,356.0,938.0
77.0,92.0,191.0,147.0,-314.0,27.0,216.0,354.0,942.0
79.0,88.0,192.0,143.0,-321.0,24.0,220.0,346.0,934.0
68.0,89.0,189.0,145.0,-328.0,11.0,184.0,345.0,926.0
65.0,88.0,187.0,147.0,-323.0,4.0,189.0,341.0,928.0
65.0,88.0,182.0,147.0,-319.0,0.0,173.0,352.0,932.0
67.0,89.0,186.0,145.0,-312.0,-1.0,184.0,349.0,926.0
66.0,87.0,186.0,143.0,-308.0,3.0,193.0,348.0,919.0
66.0,91.0,184.0,137.0,-312.0,-1.0,187.0,351.0,916.0
69.0,89.0,187.0,130.0,-321.0,4.0,199.0,348.0,915.0
77.0,88.0,188.0,122.0,-337.0,16.0,225.0,337.0,910.0
69.0,88.0,186.0,118.0,-359.0,20.0,204.0,350.0,917.0
73.0,88.0,187.0,117.0,-378.0,35.0,221.0,349.0,915.0
77.0,87.0,189.0,119.0,-398.0,55.0,221.0,340.0,922.0
76.0,87.0,188.0,123.0,-419.0,66.0,215.0,343.0,923.0
78.0,88.0,191.0,125.0,-438.0,78.0,226.0,344.0,923.0
79.0,86.0,191.0,128.0,-451.0,91.0,233.0,345.0,927.0
81.0,89.0,188.0,132.0,-465.0,102.0,243.0,342.0,928.0
80.0,87.0,191.0,138.0,-477.0,110.0,243.0,343.0,926.0
83.0,85.0,191.0,144.0,-486.0,123.0,253.0,345.0,930.0
87.0,88.0,187.0,151.0,-491.0,133.0,255.0,348.0,925.0
86.0,92.0,184.0,154.0,-496.0,132.0,265.0,347.0,921.0
90.0,89.0,185.0,154.0,-498.0,133.0,274.0,354.0,915.0
92.0,91.0,185.0,150.0,-498.0,134.0,278.0,358.0,904.0
91.0,94.0,186.0,145.0,-498.0,136.0,280.0,358.0,905.0
93.0,92.0,186.0,134.0,-501.0,137.0,283.0,360.0,905.0
93.0,94.0,185.0,119.0,-507.0,138.0,286.0,363.0,904.0
92.0,95.0,184.0,103.0,-518.0,140.0,290.0,359.0,904.0
94.0,92.0,185.0,84.0,-532.0,142.0,297.0,366.0,898.0
95.0,94.0,185.0,71.0,-549.0,142.0,300.0,365.0,905.0
96.0,97.0,183.0,60.0,-573.0,144.0,306.0,370.0,906.0
100.0,89.0,183.0,55.0,-604.0,153.0,310.0,362.0,904.0
97.0,96.0,183.0,60.0,-633.0,152.0,313.0,373.0,901.0
99.0,96.0,182.0,67.0,-669.0,148.0,315.0,371.0,897.0
102.0,95.0,178.0,67.0,-704.0,148.0,318.0,381.0,881.0
107.0,93.0,177.0,60.0,-737.0,150.0,324.0,375.0,876.0
107.0,95.0,175.0,48.0,-768.0,156.0,332.0,371.0,870.0
109.0,93.0,174.0,37.0,-794.0,159.0,338.0,372.0,865.0
111.0,92.0,170.0,26.0,-821.0,171.0,345.0,362.0,863.0
113.0,91.0,169.0,15.0,-841.0,166.0,355.0,363.0,858.0
113.0,93.0,171.0,-3.0,-860.0,161.0,355.0,364.0,857.0
114.0,94.0,176.0,-28.0,-873.0,159.0,356.0,366.0,854.0
113.0,96.0,173.0,-53.0,-878.0,162.0,363.0,366.0,859.0
117.0,96.0,173.0,-79.0,-879.0,162.0,366.0,371.0,860.0
115.0,91.0,172.0,-108.0,-875.0,164.0,364.0,362.0,864.0
115.0,92.0,177.0,-137.0,-867.0,154.0,364.0,363.0,864.0
114.0,92.0,176.0,-159.0,-862.0,146.0,361.0,356.0,869.0
113.0,92.0,176.0,-178.0,-854.0,142.0,358.0,355.0,878.0
111.0,88.0,180.0,-189.0,-852.0,138.0,357.0,354.0,887.0
113.0,89.0,178.0,-194.0,-851.0,137.0,360.0,349.0,887.0
116.0,86.0,180.0,-192.0,-857.0,138.0,357.0,345.0,893.0
114.0,87.0,179.0,-187.0,-869.0,141.0,363.0,339.0,884.0
115.0,85.0,178.0,-179.0,-888.0,148.0,366.0,343.0,871.0
115.0,89.0,173.0,-169.0,-914.0,156.0,373.0,340.0,858.0
119.0,88.0,168.0,-159.0,-946.0,171.0,377.0,347.0,851.0
120.0,87.0,163.0,-156.0,-983.0,194.0,383.0,338.0,836.0
118.0,87.0,161.0,-151.0,-1022.0,212.0,387.0,342.0,819.0
122.0,89.0,157.0,-152.0,-1066.0,219.0,389.0,346.0,812.0
125.0,91.0,159.0,-159.0,-1115.0,234.0,403.0,353.0,807.0
128.0,89.0,157.0,-170.0,-1158.0,250.0,409.0,363.0,795.0
126.0,93.0,155.0,-184.0,-1199.0,265.0,418.0,358.0,795.0
128.0,96.0,153.0,-197.0,-1240.0,280.0,419.0,368.0,788.0
132.0,94.0,156.0,-208.0,-1277.0,296.0,429.0,367.0,785.0
132.0,96.0,154.0,-220.0,-1311.0,314.0,443.0,374.0,788.0
134.0,95.0,152.0,-231.0,-1347.0,331.0,444.0,379.0,790.0
141.0,93.0,149.0,-237.0,-1384.0,352.0,462.0,379.0,784.0
139.0,95.0,151.0,-237.0,-1418.0,378.0,454.0,380.0,784.0
142.0,94.0,152.0,-237.0,-1447.0,393.0,465.0,381.0,778.0
146.0,94.0,148.0,-235.0,-1478.0,412.0,476.0,378.0,772.0
151.0,95.0,148.0,-231.0,-1510.0,435.0,489.0,378.0,764.0
149.0,93.0,146.0,-225.0,-1537.0,470.0,501.0,364.0,757.0
152.0,89.0,141.0,-219.0,-1558.0,489.0,509.0,365.0,747.0
156.0,90.0,142.0,-212.0,-1580.0,502.0,531.0,354.0,731.0
161.0,93.0,137.0,-203.0,-1599.0,518.0,553.0,358.0,728.0
165.0,80.0,136.0,-190.0,-1610.0,543.0,550.0,340.0,713.0
169.0,83.0,133.0,-176.0,-1616.0,550.0,569.0,340.0,699.0
175.0,84.0,128.0,-165.0,-1625.0,557.0,585.0,339.0,694.0
176.0,82.0,128.0,-155.0,-1631.0,580.0,592.0,328.0,680.0
181.0,82.0,127.0,-157.0,-1630.0,584.0,607.0,328.0,667.0
183.0,78.0,117.0,-173.0,-1629.0,586.0,622.0,321.0,654.0
186.0,78.0,118.0,-201.0,-1631.0,592.0,630.0,314.0,643.0
188.0,78.0,116.0,-233.0,-1632.0,606.0,639.0,301.0,620.0
192.0,75.0,106.0,-275.0,-1638.0,611.0,651.0,295.0,609.0
193.0,75.0,105.0,-324.0,-1647.0,612.0,663.0,292.0,588.0
197.0,74.0,102.0,-378.0,-1658.0,618.0,675.0,292.0,567.0
200.0,69.0,100.0,-430.0,-1673.0,625.0,685.0,281.0,568.0
199.0,69.0,96.0,-477.0,-1687.0,630.0,698.0,273.0,560.0
205.0,65.0,98.0,-518.0,-1702.0,639.0,703.0,263.0,550.0
203.0,68.0,96.0,-548.0,-1717.0,651.0,716.0,258.0,547.0
209.0,60.0,96.0,-568.0,-1732.0,662.0,718.0,248.0,549.0
212.0,59.0,94.0,-573.0,-1746.0,674.0,737.0,235.0,555.0
216.0,55.0,99.0,-566.0,-1761.0,688.0,751.0,226.0,557.0
222.0,50.0,102.0,-547.0,-1773.0,703.0,768.0,217.0,565.0
226.0,52.0,99.0,-523.0,-1779.0,715.0,788.0,201.0,565.0
229.0,48.0,99.0,-494.0,-1779.0,726.0,800.0,200.0,567.0
231.0,50.0,101.0,-465.0,-1772.0,733.0,806.0,196.0,570.0
235.0,46.0,100.0,-436.0,-1755.0,740.0,816.0,198.0,573.0
237.0,52.0,105.0,-410.0,-1737.0,744.0,836.0,193.0,584.0
240.0,44.0,108.0,-384.0,-1717.0,745.0,842.0,193.0,595.0
242.0,45.0,110.0,-356.0,-1698.0,748.0,847.0,182.0,607.0
238.0,44.0,110.0,-323.0,-1683.0,748.0,853.0,182.0,601.0
243.0,42.0,107.0,-291.0,-1675.0,748.0,852.0,181.0,601.0
240.0,43.0,105.0,-266.0,-1675.0,749.0,853.0,181.0,590.0
244.0,45.0,104.0,-249.0,-1680.0,747.0,852.0,187.0,585.0
242.0,48.0,103.0,-246.0,-1687.0,744.0,850.0,193.0,569.0
243.0,52.0,95.0,-263.0,-1695.0,739.0,848.0,199.0,554.0
239.0,52.0,87.0,-302.0,-1701.0,730.0,843.0,202.0,518.0
240.0,52.0,74.0,-369.0,-1718.0,721.0,846.0,206.0,478.0
243.0,49.0,67.0,-454.0,-1747.0,714.0,856.0,189.0,439.0
247.0,45.0,60.0,-545.0,-1790.0,706.0,871.0,179.0,399.0
248.0,40.0,51.0,-628.0,-1841.0,702.0,891.0,154.0,359.0
255.0,27.0,42.0,-694.0,-1891.0,698.0,901.0,127.0,328.0
255.0,18.0,39.0,-728.0,-1931.0,691.0,907.0,92.0,310.0
257.0,9.0,37.0,-737.0,-1952.0,683.0,920.0,59.0,300.0
263.0,2.0,36.0,-721.0,-1951.0,669.0,924.0,33.0,306.0
261.0,0.0,41.0,-687.0,-1921.0,649.0,922.0,15.0,321.0
261.0,-5.0,47.0,-637.0,-1868.0,629.0,929.0,11.0,343.0
262.0,-4.0,50.0,-570.0,-1796.0,606.0,923.0,9.0,357.0
266.0,-2.0,55.0,-490.0,-1704.0,583.0,929.0,23.0,376.0
265.0,5.0,59.0,-402.0,-1599.0,555.0,931.0,47.0,385.0
270.0,9.0,55.0,-313.0,-1489.0,523.0,930.0,74.0,380.0
267.0,22.0,55.0,-229.0,-1383.0,489.0,931.0,105.0,377.0
270.0,32.0,53.0,-163.0,-1296.0,456.0,933.0,134.0,365.0
269.0,41.0,45.0,-124.0,-1224.0,423.0,943.0,165.0,352.0
272.0,49.0,44.0,-112.0,-1171.0,391.0,958.0,195.0,336.0
272.0,68.0,30.0,-128.0,-1134.0,363.0,974.0,222.0,318.0
275.0,60.0,31.0,-176.0,-1113.0,339.0,983.0,235.0,289.0
278.0,58.0,28.0,-252.0,-1115.0,320.0,1006.0,231.0,270.0
281.0,57.0,24.0,-346.0,-1135.0,313.0,1018.0,224.0,252.0
287.0,53.0,23.0,-445.0,-1169.0,314.0,1026.0,211.0,245.0
287.0,47.0,17.0,-538.0,-1212.0,329.0,1034.0,192.0,234.0
286.0,40.0,12.0,-610.0,-1263.0,354.0,1032.0,162.0,216.0
286.0,33.0,9.0,-662.0,-1316.0,385.0,1026.0,138.0,199.0
286.0,24.0,10.0,-690.0,-1360.0,417.0,1019.0,113.0,190.0
282.0,18.0,5.0,-701.0,-1384.0,445.0,1008.0,99.0,194.0
285.0,15.0,10.0,-692.0,-1381.0,467.0,1011.0,80.0,202.0
293.0,11.0,11.0,-675.0,-1355.0,476.0,1012.0,75.0,200.0
283.0,7.0,12.0,-652.0,-1312.0,470.0,1005.0,66.0,202.0
278.0,9.0,8.0,-624.0,-1259.0,450.0,998.0,66.0,206.0
282.0,7.0,11.0,-596.0,-1195.0,422.0,978.0,64.0,204.0
279.0,11.0,13.0,-577.0,-1126.0,386.0,985.0,67.0,211.0
277.0,15.0,9.0,-572.0,-1057.0,347.0,979.0,76.0,213.0
275.0,18.0,13.0,-581.0,-996.0,304.0,972.0,91.0,208.0
269.0,17.0,13.0,-608.0,-948.0,264.0,960.0,92.0,208.0
264.0,16.0,16.0,-645.0,-920.0,235.0,945.0,94.0,211.0
261.0,16.0,15.0,-679.0,-924.0,223.0,930.0,87.0,218.0
256.0,15.0,9.0,-706.0,-954.0,227.0,918.0,74.0,211.0
254.0,22.0,11.0,-721.0,-1002.0,244.0,906.0,68.0,216.0
249.0,6.0,12.0,-727.0,-1062.0,271.0,888.0,55.0,206.0
245.0,6.0,7.0,-727.0,-1132.0,307.0,868.0,52.0,195.0
242.0,6.0,5.0,-722.0,-1206.0,346.0,852.0,40.0,189.0
241.0,2.0,5.0,-717.0,-1272.0,386.0,844.0,37.0,187.0
239.0,2.0,7.0,-709.0,-1329.0,425.0,850.0,22.0,172.0
239.0,-2.0,-3.0,-695.0,-1379.0,462.0,849.0,8.0,156.0
244.0,-12.0,-6.0,-673.0,-1425.0,497.0,852.0,-6.0,141.0
247.0,-13.0,-2.0,-649.0,-1460.0,526.0,858.0,-16.0,134.0
250.0,-16.0,-12.0,-618.0,-1486.0,549.0,866.0,-29.0,125.0
253.0,-14.0,-15.0,-586.0,-1506.0,563.0,880.0,-35.0,116.0
254.0,-19.0,-17.0,-551.0,-1520.0,569.0,898.0,-41.0,101.0
256.0,-20.0,-20.0,-509.0,-1530.0,569.0,901.0,-47.0,87.0
260.0,-21.0,-19.0,-466.0,-1532.0,562.0,916.0,-43.0,82.0
260.0,-20.0,-24.0,-420.0,-1524.0,549.0,925.0,-38.0,73.0
262.0,-17.0,-26.0,-371.0,-1509.0,532.0,930.0,-28.0,69.0
265.0,-18.0,-28.0,-324.0,-1491.0,511.0,943.0,-27.0,58.0
273.0,-15.0,-29.0,-278.0,-1473.0,489.0,958.0,-27.0,53.0
275.0,-13.0,-27.0,-233.0,-1451.0,465.0,977.0,-25.0,49.0
281.0,-15.0,-32.0,-192.0,-1420.0,440.0,1005.0,-22.0,47.0
288.0,-16.0,-26.0,-157.0,-1382.0,414.0,1018.0,-22.0,45.0
290.0,-11.0,-28.0,-129.0,-1339.0,388.0,1032.0,-21.0,46.0
295.0,-14.0,-31.0,-111.0,-1299.0,365.0,1042.0,-28.0,49.0
298.0,-14.0,-29.0,-92.0,-1258.0,345.0,1051.0,-32.0,50.0
303.0,-15.0,-28.0,-80.0,-1220.0,328.0,1070.0,-33.0,46.0
307.0,-15.0,-28.0,-69.0,-1177.0,313.0,1086.0,-29.0,46.0
307.0,-14.0,-31.0,-59.0,-1130.0,297.0,1098.0,-26.0,47.0
317.0,-10.0,-31.0,-51.0,-1076.0,280.0,1115.0,-20.0,50.0
319.0,-6.0,-27.0,-48.0,-1020.0,266.0,1124.0,-6.0,49.0
319.0,-14.0,-29.0,-47.0,-958.0,250.0,1128.0,-3.0,51.0
330.0,11.0,-43.0,-45.0,-892.0,238.0,1142.0,8.0,57.0
322.0,-1.0,-27.0,-46.0,-824.0,226.0,1152.0,21.0,62.0
323.0,0.0,-26.0,-45.0,-754.0,214.0,1155.0,29.0,62.0
325.0,2.0,-22.0,-48.0,-684.0,202.0,1159.0,35.0,66.0
323.0,6.0,-25.0,-55.0,-614.0,192.0,1164.0,38.0,67.0
327.0,3.0,-22.0,-60.0,-551.0,184.0,1168.0,38.0,68.0
327.0,0.0,-21.0,-61.0,-490.0,173.0,1175.0,38.0,69.0
331.0,1.0,-26.0,-57.0,-431.0,162.0,1177.0,27.0,67.0
332.0,1.0,-20.0,-48.0,-370.0,146.0,1192.0,24.0,70.0
337.0,-2.0,-24.0,-31.0,-308.0,127.0,1198.0,19.0,72.0
336.0,-5.0,-23.0,-7.0,-242.0,104.0,1212.0,21.0,72.0
332.0,-4.0,-23.0,16.0,-173.0,82.0,1190.0,6.0,59.0
330.0,-9.0,-28.0,35.0,-112.0,64.0,1181.0,-1.0,57.0
324.0,-8.0,-27.0,50.0,-58.0,46.0,1169.0,-6.0,53.0
323.0,-11.0,-29.0,64.0,-14.0,26.0,1157.0,-5.0,46.0
320.0,-11.0,-34.0,80.0,25.0,11.0,1151.0,-12.0,34.0
319.0,-9.0,-41.0,95.0,58.0,-2.0,1147.0,-15.0,18.0
314.0,-11.0,-42.0,110.0,89.0,-8.0,1123.0,-17.0,4.0
312.0,-11.0,-41.0,122.0,121.0,-7.0,1109.0,-13.0,-5.0
308.0,-11.0,-49.0,132.0,151.0,-2.0,1094.0,-14.0,-22.0
303.0,-11.0,-50.0,143.0,181.0,9.0,1078.0,-16.0,-33.0
299.0,-12.0,-57.0,152.0,211.0,26.0,1060.0,-17.0,-47.0
298.0,-12.0,-56.0,166.0,241.0,48.0,1047.0,-14.0,-65.0
292.0,-13.0,-60.0,180.0,267.0,68.0,1034.0,-17.0,-70.0
289.0,-13.0,-61.0,197.0,295.0,91.0,1026.0,-10.0,-85.0
285.0,-9.0,-66.0,213.0,322.0,115.0,1025.0,-12.0,-101.0
286.0,-8.0,-69.0,226.0,349.0,136.0,1013.0,-5.0,-107.0
285.0,-8.0,-68.0,237.0,372.0,155.0,1016.0,2.0,-119.0
285.0,-2.0,-69.0,240.0,397.0,171.0,1014.0,7.0,-113.0
282.0,0.0,-70.0,233.0,418.0,182.0,1010.0,12.0,-125.0
284.0,0.0,-72.0,217.0,437.0,189.0,1001.0,20.0,-125.0
279.0,0.0,-70.0,191.0,451.0,193.0,985.0,17.0,-122.0
277.0,-1.0,-67.0,158.0,460.0,194.0,980.0,14.0,-116.0
275.0,-1.0,-71.0,123.0,461.0,192.0,972.0,14.0,-108.0
272.0,-4.0,-65.0,91.0,455.0,185.0,963.0,4.0,-96.0
269.0,-5.0,-64.0,63.0,438.0,175.0,952.0,-2.0,-90.0
263.0,-8.0,-65.0,45.0,416.0,163.0,942.0,-15.0,-83.0
262.0,-13.0,-65.0,35.0,395.0,151.0,927.0,-17.0,-74.0
263.0,-17.0,-59.0,29.0,377.0,136.0,927.0,-32.0,-73.0
257.0,-19.0,-54.0,27.0,362.0,116.0,913.0,-40.0,-61.0
258.0,-24.0,-58.0,29.0,348.0,98.0,904.0,-50.0,-52.0
258.0,-27.0,-53.0,41.0,334.0,81.0,902.0,-65.0,-51.0
255.0,-31.0,-55.0,64.0,325.0,63.0,898.0,-75.0,-40.0
256.0,-30.0,-53.0,102.0,318.0,46.0,906.0,-89.0,-39.0
260.0,-36.0,-53.0,150.0,315.0,30.0,919.0,-100.0,-36.0
264.0,-39.0,-52.0,208.0,315.0,15.0,931.0,-106.0,-46.0
272.0,-43.0,-56.0,275.0,318.0,-2.0,959.0,-124.0,-53.0
281.0,-47.0,-59.0,347.0,329.0,-21.0,998.0,-137.0,-63.0
288.0,-50.0,-58.0,425.0,353.0,-44.0,1028.0,-148.0,-75.0
294.0,-53.0,-64.0,508.0,382.0,-69.0,1043.0,-161.0,-86.0
295.0,-53.0,-60.0,597.0,414.0,-96.0,1051.0,-159.0,-88.0
297.0,-54.0,-64.0,683.0,445.0,-125.0,1047.0,-157.0,-93.0
291.0,-47.0,-63.0,766.0,470.0,-155.0,1041.0,-143.0,-89.0
290.0,-47.0,-62.0,841.0,488.0,-182.0,1029.0,-132.0,-88.0
284.0,-37.0,-59.0,898.0,492.0,-206.0,1019.0,-109.0,-72.0
281.0,-31.0,-53.0,934.0,478.0,-227.0,1012.0,-74.0,-53.0
280.0,-16.0,-47.0,943.0,438.0,-244.0,1007.0,-36.0,-29.0
272.0,-1.0,-35.0,900.0,359.0,-257.0,992.0,-2.0,13.0
266.0,9.0,-30.0,811.0,227.0,-260.0,970.0,44.0,43.0
258.0,24.0,-23.0,673.0,46.0,-253.0,953.0,91.0,69.0
256.0,34.0,-18.0,486.0,-178.0,-242.0,939.0,119.0,95.0
255.0,41.0,-11.0,254.0,-415.0,-237.0,922.0,136.0,106.0
253.0,43.0,-13.0,-9.0,-620.0,-242.0,900.0,140.0,115.0
251.0,38.0,-13.0,-276.0,-750.0,-257.0,882.0,130.0,119.0
244.0,33.0,-13.0,-525.0,-787.0,-283.0,851.0,107.0,112.0
239.0,25.0,-21.0,-740.0,-745.0,-313.0,804.0,92.0,92.0
229.0,15.0,-29.0,-905.0,-641.0,-347.0,770.0,65.0,63.0
228.0,2.0,-36.0,-1008.0,-500.0,-372.0,758.0,31.0,35.0
223.0,-10.0,-35.0,-1030.0,-328.0,-392.0,746.0,-5.0,22.0
225.0,-25.0,-27.0,-970.0,-144.0,-412.0,759.0,-41.0,33.0
232.0,-35.0,-26.0,-838.0,26.0,-435.0,790.0,-84.0,65.0
246.0,-45.0,-16.0,-652.0,172.0,-466.0,842.0,-109.0,97.0
257.0,-50.0,-11.0,-432.0,298.0,-500.0,900.0,-116.0,112.0
270.0,-46.0,-16.0,-205.0,407.0,-522.0,965.0,-119.0,109.0
294.0,-44.0,-21.0,0.0,486.0,-516.0,1049.0,-121.0,75.0
316.0,-41.0,-29.0,162.0,518.0,-477.0,1136.0,-123.0,47.0
332.0,-44.0,-38.0,277.0,487.0,-406.0,1216.0,-130.0,16.0
349.0,-42.0,-47.0,349.0,389.0,-312.0,1276.0,-134.0,-28.0
355.0,-51.0,-56.0,388.0,238.0,-210.0,1312.0,-156.0,-60.0
361.0,-55.0,-59.0,398.0,58.0,-113.0,1326.0,-181.0,-79.0
355.0,-55.0,-63.0,366.0,-123.0,-32.0,1319.0,-197.0,-102.0
360.0,-52.0,-68.0,278.0,-275.0,33.0,1302.0,-190.0,-125.0
352.0,-44.0,-70.0,131.0,-387.0,74.0,1278.0,-165.0,-133.0
340.0,-38.0,-81.0,-42.0,-452.0,97.0,1242.0,-135.0,-142.0
330.0,-32.0,-74.0,-212.0,-475.0,102.0,1190.0,-104.0,-144.0
318.0,-28.0,-79.0,-353.0,-452.0,86.0,1123.0,-81.0,-147.0
303.0,-24.0,-79.0,-444.0,-386.0,60.0,1071.0,-61.0,-151.0
293.0,-26.0,-81.0,-471.0,-290.0,22.0,1027.0,-50.0,-148.0
278.0,-24.0,-73.0,-436.0,-178.0,-26.0,989.0,-47.0,-135.0
265.0,-29.0,-80.0,-344.0,-70.0,-79.0,961.0,-44.0,-126.0
267.0,-31.0,-67.0,-217.0,22.0,-132.0,940.0,-54.0,-96.0
264.0,-32.0,-64.0,-81.0,89.0,-179.0,934.0,-71.0,-87.0
265.0,-35.0,-60.0,34.0,129.0,-212.0,933.0,-87.0,-71.0
263.0,-34.0,-54.0,119.0,144.0,-236.0,934.0,-87.0,-61.0
262.0,-31.0,-52.0,169.0,136.0,-248.0,935.0,-92.0,-47.0
264.0,-32.0,-44.0,189.0,116.0,-249.0,942.0,-86.0,-31.0
270.0,-28.0,-49.0,184.0,86.0,-239.0,944.0,-84.0,-27.0
272.0,-24.0,-51.0,167.0,56.0,-230.0,964.0,-69.0,-32.0
279.0,-19.0,-46.0,143.0,31.0,-218.0,988.0,-58.0,-28.0
285.0,-17.0,-51.0,121.0,11.0,-202.0,1016.0,-42.0,-28.0
285.0,-21.0,-45.0,104.0,1.0,-187.0,1036.0,-31.0,-26.0
299.0,-13.0,-51.0,96.0,1.0,-171.0,1056.0,-27.0,-39.0
302.0,-13.0,-53.0,97.0,2.0,-157.0,1079.0,-18.0,-43.0
311.0,-18.0,-52.0,100.0,0.0,-141.0,1095.0,-23.0,-42.0
310.0,-13.0,-55.0,99.0,-8.0,-125.0,1109.0,-32.0,-50.0
310.0,-16.0,-54.0,96.0,-23.0,-111.0,1126.0,-28.0,-60.0
315.0,-15.0,-61.0,87.0,-40.0,-94.0,1128.0,-24.0,-62.0
319.0,-15.0,-59.0,77.0,-53.0,-81.0,1139.0,-17.0,-69.0
320.0,-9.0,-56.0,71.0,-55.0,-75.0,1140.0,-7.0,-69.0
315.0,0.0,-58.0,72.0,-51.0,-77.0,1126.0,16.0,-70.0
311.0,8.0,-60.0,77.0,-47.0,-81.0,1113.0,41.0,-63.0
310.0,28.0,-56.0,80.0,-45.0,-87.0,1104.0,74.0,-61.0
310.0,19.0,-57.0,85.0,-41.0,-97.0,1094.0,111.0,-64.0
305.0,30.0,-58.0,95.0,-33.0,-109.0,1093.0,136.0,-67.0
303.0,35.0,-62.0,102.0,-20.0,-121.0,1087.0,153.0,-68.0
304.0,43.0,-61.0,105.0,-5.0,-128.0,1081.0,173.0,-79.0
307.0,46.0,-64.0,103.0,12.0,-132.0,1087.0,186.0,-90.0
308.0,46.0,-68.0,98.0,38.0,-135.0,1094.0,197.0,-107.0
308.0,47.0,-71.0,79.0,75.0,-131.0,1100.0,202.0,-116.0
310.0,46.0,-70.0,37.0,118.0,-120.0,1094.0,196.0,-126.0
304.0,40.0,-75.0,-17.0,168.0,-105.0,1077.0,178.0,-130.0
296.0,37.0,-71.0,-71.0,223.0,-91.0,1059.0,164.0,-128.0
294.0,32.0,-71.0,-119.0,276.0,-77.0,1038.0,139.0,-120.0
287.0,26.0,-68.0,-162.0,322.0,-64.0,1017.0,119.0,-94.0
279.0,23.0,-62.0,-192.0,362.0,-54.0,992.0,105.0,-76.0
275.0,18.0,-55.0,-213.0,394.0,-45.0,978.0,90.0,-60.0
273.0,13.0,-48.0,-223.0,416.0,-37.0,967.0,80.0,-31.0
274.0,8.0,-44.0,-223.0,432.0,-31.0,960.0,71.0,-7.0
267.0,8.0,-37.0,-217.0,450.0,-33.0,940.0,71.0,14.0
267.0,10.0,-31.0,-197.0,465.0,-28.0,934.0,70.0,37.0
267.0,10.0,-28.0,-169.0,478.0,-25.0,937.0,63.0,55.0
260.0,14.0,-24.0,-131.0,488.0,-27.0,929.0,65.0,65.0
259.0,13.0,-23.0,-94.0,501.0,-29.0,924.0,76.0,66.0
261.0,16.0,-23.0,-75.0,512.0,-27.0,924.0,73.0,75.0
258.0,17.0,-24.0,-70.0,519.0,-23.0,922.0,85.0,73.0
260.0,16.0,-19.0,-69.0,518.0,-19.0,922.0,94.0,80.0
262.0,16.0,-18.0,-65.0,510.0,-14.0,923.0,95.0,80.0
261.0,17.0,-23.0,-60.0,495.0,-11.0,926.0,95.0,82.0
262.0,15.0,-21.0,-55.0,474.0,-9.0,927.0,92.0,82.0
263.0,17.0,-23.0,-50.0,453.0,-10.0,920.0,88.0,72.0
265.0,15.0,-22.0,-54.0,438.0,-9.0,934.0,80.0,75.0
268.0,17.0,-26.0,-66.0,420.0,-10.0,944.0,78.0,76.0
267.0,16.0,-20.0,-83.0,405.0,-10.0,954.0,75.0,76.0
268.0,11.0,-23.0,-96.0,391.0,-13.0,960.0,74.0,79.0
270.0,12.0,-21.0,-101.0,370.0,-12.0,964.0,73.0,79.0
270.0,16.0,-17.0,-97.0,347.0,-15.0,962.0,76.0,81.0
272.0,13.0,-21.0,-82.0,322.0,-14.0,962.0,81.0,84.0
271.0,14.0,-19.0,-62.0,293.0,-13.0,959.0,90.0,92.0
274.0,15.0,-18.0,-36.0,264.0,-8.0,965.0,91.0,94.0
273.0,17.0,-22.0,-15.0,238.0,1.0,975.0,94.0,92.0
278.0,16.0,-22.0,-1.0,213.0,8.0,978.0,95.0,76.0
276.0,21.0,-22.0,2.0,197.0,20.0,985.0,93.0,79.0
278.0,18.0,-18.0,-5.0,185.0,32.0,995.0,94.0,76.0
277.0,17.0,-21.0,-22.0,178.0,43.0,996.0,93.0,85.0
282.0,18.0,-22.0,-44.0,174.0,55.0,1001.0,82.0,92.0
284.0,12.0,-16.0,-67.0,173.0,65.0,1010.0,78.0,88.0
282.0,13.0,-18.0,-89.0,174.0,74.0,1015.0,63.0,94.0
286.0,11.0,-19.0,-105.0,171.0,81.0,1015.0,56.0,97.0
284.0,5.0,-11.0,-117.0,168.0,90.0,1017.0,53.0,98.0
288.0,1.0,-16.0,-126.0,163.0,96.0,1025.0,37.0,102.0
285.0,1.0,-16.0,-125.0,156.0,101.0,1029.0,21.0,103.0
288.0,-3.0,-13.0,-120.0,146.0,108.0,1025.0,14.0,103.0
289.0,-7.0,-19.0,-109.0,135.0,115.0,1035.0,0.0,101.0
287.0,-8.0,-18.0,-96.0,124.0,118.0,1031.0,-7.0,97.0
288.0,-12.0,-14.0,-82.0,113.0,122.0,1032.0,-21.0,102.0
286.0,-13.0,-14.0,-67.0,100.0,126.0,1030.0,-21.0,96.0
287.0,-13.0,-12.0,-53.0,86.0,124.0,1025.0,-27.0,98.0
288.0,-19.0,-18.0,-35.0,70.0,124.0,1027.0,-27.0,94.0
282.0,-15.0,-18.0,-22.0,54.0,122.0,1017.0,-39.0,93.0
281.0,-15.0,-20.0,-6.0,44.0,123.0,1011.0,-36.0,86.0
282.0,-17.0,-20.0,6.0,33.0,122.0,1008.0,-42.0,81.0
283.0,-19.0,-18.0,19.0,24.0,123.0,1010.0,-39.0,78.0
280.0,-20.0,-24.0,29.0,15.0,119.0,994.0,-45.0,78.0
281.0,-23.0,-26.0,40.0,7.0,117.0,994.0,-47.0,73.0
275.0,-18.0,-25.0,53.0,-2.0,116.0,986.0,-48.0,69.0
276.0,-18.0,-23.0,66.0,-5.0,114.0,982.0,-54.0,70.0
276.0,-19.0,-23.0,80.0,-11.0,112.0,973.0,-54.0,71.0
271.0,-23.0,-25.0,97.0,-16.0,107.0,967.0,-50.0,73.0
274.0,-22.0,-23.0,114.0,-17.0,105.0,969.0,-47.0,71.0
274.0,-20.0,-23.0,131.0,-20.0,100.0,968.0,-48.0,73.0
271.0,-16.0,-22.0,146.0,-23.0,93.0,963.0,-40.0,76.0
270.0,-16.0,-20.0,161.0,-24.0,91.0,962.0,-35.0,79.0
277.0,-17.0,-22.0,174.0,-21.0,88.0,979.0,-38.0,73.0
271.0,-12.0,-23.0,183.0,-19.0,77.0,967.0,-23.0,82.0
275.0,-12.0,-19.0,188.0,-18.0,72.0,964.0,-13.0,85.0
274.0,-9.0,-16.0,193.0,-23.0,68.0,967.0,-10.0,88.0
271.0,-5.0,-18.0,195.0,-27.0,70.0,962.0,-1.0,84.0
274.0,-5.0,-19.0,202.0,-23.0,79.0,961.0,1.0,94.0
281.0,-10.0,-16.0,207.0,-26.0,83.0,992.0,5.0,85.0
280.0,-7.0,-22.0,204.0,-37.0,76.0,995.0,4.0,87.0
280.0,0.0,-19.0,200.0,-41.0,72.0,991.0,8.0,81.0
286.0,-3.0,-20.0,197.0,-40.0,69.0,1006.0,9.0,84.0
278.0,0.0,-15.0,196.0,-36.0,69.0,995.0,11.0,82.0
281.0,-5.0,-17.0,194.0,-37.0,70.0,1003.0,5.0,84.0
283.0,-4.0,-22.0,196.0,-44.0,67.0,1013.0,8.0,79.0
284.0,-2.0,-25.0,197.0,-47.0,65.0,1011.0,8.0,71.0
282.0,-4.0,-23.0,199.0,-49.0,64.0,1012.0,2.0,70.0
287.0,-8.0,-26.0,203.0,-49.0,67.0,1026.0,4.0,67.0
285.0,-1.0,-24.0,203.0,-50.0,62.0,1019.0,3.0,64.0
287.0,-6.0,-23.0,199.0,-50.0,59.0,1023.0,0.0,58.0
286.0,-4.0,-28.0,186.0,-49.0,52.0,1011.0,6.0,61.0
280.0,-3.0,-25.0,175.0,-50.0,52.0,1011.0,13.0,54.0
286.0,-3.0,-25.0,160.0,-50.0,55.0,1018.0,11.0,54.0
286.0,-5.0,-30.0,140.0,-52.0,53.0,1017.0,-1.0,53.0
280.0,0.0,-29.0,112.0,-51.0,44.0,992.0,9.0,54.0
277.0,-2.0,-20.0,78.0,-50.0,42.0,987.0,11.0,58.0
277.0,0.0,-25.0,43.0,-51.0,42.0,981.0,6.0,61.0
278.0,-3.0,-22.0,9.0,-56.0,44.0,991.0,0.0,64.0
278.0,-1.0,-21.0,-23.0,-62.0,42.0,1002.0,7.0,71.0
280.0,-4.0,-22.0,-52.0,-69.0,40.0,992.0,1.0,77.0
279.0,-4.0,-23.0,-77.0,-71.0,39.0,989.0,1.0,76.0
280.0,-2.0,-22.0,-97.0,-71.0,38.0,1002.0,1.0,79.0
280.0,-7.0,-19.0,-110.0,-72.0,36.0,993.0,-5.0,91.0
279.0,-8.0,-18.0,-115.0,-74.0,33.0,994.0,-1.0,99.0
279.0,-3.0,-16.0,-115.0,-78.0,35.0,991.0,-1.0,100.0
281.0,-9.0,-15.0,-108.0,-84.0,33.0,992.0,-7.0,99.0
277.0,-8.0,-19.0,-96.0,-90.0,40.0,990.0,0.0,97.0
281.0,-11.0,-16.0,-80.0,-93.0,46.0,1011.0,-6.0,96.0
284.0,-7.0,-18.0,-61.0,-102.0,43.0,1017.0,-5.0,91.0
284.0,-8.0,-20.0,-44.0,-110.0,40.0,1015.0,-2.0,84.0
283.0,-6.0,-19.0,-28.0,-114.0,41.0,1019.0,3.0,79.0
286.0,-4.0,-22.0,-15.0,-115.0,48.0,1020.0,0.0,75.0
283.0,-4.0,-26.0,-9.0,-116.0,45.0,1014.0,7.0,72.0
285.0,0.0,-22.0,-8.0,-117.0,39.0,1013.0,13.0,62.0
281.0,0.0,-24.0,-9.0,-120.0,39.0,1016.0,15.0,63.0
282.0,-2.0,-29.0,-13.0,-120.0,38.0,1016.0,13.0,56.0
282.0,0.0,-25.0,-23.0,-122.0,39.0,997.0,16.0,53.0
287.0,0.0,-28.0,-35.0,-116.0,47.0,1027.0,10.0,53.0
286.0,0.0,-29.0,-51.0,-113.0,44.0,1031.0,10.0,49.0
287.0,-2.0,-28.0,-67.0,-112.0,40.0,1026.0,10.0,46.0
287.0,-1.0,-38.0,-84.0,-109.0,37.0,1029.0,6.0,46.0
288.0,-8.0,-30.0,-99.0,-103.0,32.0,1025.0,-2.0,42.0
286.0,-6.0,-34.0,-112.0,-98.0,29.0,1030.0,-3.0,44.0
287.0,-9.0,-30.0,-122.0,-93.0,29.0,1028.0,-4.0,43.0
289.0,-8.0,-31.0,-129.0,-91.0,25.0,1030.0,-12.0,39.0
285.0,-8.0,-30.0,-134.0,-87.0,25.0,1025.0,-10.0,35.0
286.0,-8.0,-32.0,-134.0,-84.0,23.0,1019.0,-12.0,35.0
286.0,-9.0,-29.0,-134.0,-81.0,19.0,1021.0,-10.0,35.0
283.0,-9.0,-33.0,-129.0,-80.0,18.0,1017.0,-14.0,38.0
288.0,-11.0,-33.0,-123.0,-80.0,17.0,1012.0,-11.0,37.0
286.0,-10.0,-32.0,-117.0,-78.0,14.0,1012.0,-12.0,35.0
277.0,-7.0,-41.0,-109.0,-78.0,13.0,1013.0,0.0,34.0
283.0,-4.0,-32.0,-101.0,-80.0,12.0,1008.0,-3.0,32.0
284.0,-5.0,-38.0,-94.0,-80.0,10.0,1008.0,1.0,28.0
281.0,-1.0,-33.0,-92.0,-82.0,8.0,1003.0,8.0,23.0
281.0,-1.0,-37.0,-90.0,-81.0,7.0,1000.0,15.0,28.0
280.0,-2.0,-36.0,-93.0,-83.0,5.0,1002.0,15.0,21.0
282.0,-2.0,-39.0,-95.0,-83.0,4.0,1001.0,18.0,20.0
280.0,1.0,-39.0,-97.0,-81.0,3.0,1006.0,21.0,13.0
281.0,0.0,-37.0,-103.0,-79.0,3.0,994.0,20.0,15.0
280.0,0.0,-36.0,-108.0,-75.0,2.0,995.0,23.0,14.0
280.0,0.0,-39.0,-116.0,-68.0,4.0,1001.0,23.0,14.0
288.0,-4.0,-39.0,-122.0,-59.0,6.0,994.0,17.0,22.0
283.0,-3.0,-40.0,-132.0,-51.0,6.0,1009.0,15.0,20.0
282.0,-2.0,-34.0,-141.0,-44.0,8.0,1011.0,17.0,23.0
284.0,-2.0,-34.0,-146.0,-36.0,9.0,1011.0,12.0,28.0
283.0,-5.0,-36.0,-151.0,-29.0,9.0,1011.0,6.0,26.0
285.0,-7.0,-33.0,-151.0,-23.0,9.0,1014.0,2.0,24.0
288.0,-8.0,-31.0,-156.0,-19.0,11.0,1016.0,-1.0,31.0
284.0,-7.0,-33.0,-158.0,-15.0,12.0,1018.0,-2.0,30.0
286.0,-8.0,-34.0,-161.0,-12.0,13.0,1020.0,-7.0,30.0
287.0,-8.0,-31.0,-162.0,-10.0,13.0,1022.0,-15.0,34.0
287.0,-12.0,-33.0,-161.0,-6.0,15.0,1027.0,-20.0,33.0
289.0,-13.0,-33.0,-159.0,-4.0,16.0,1024.0,-16.0,41.0
286.0,-12.0,-34.0,-150.0,-3.0,16.0,1024.0,-22.0,37.0
288.0,-14.0,-30.0,-140.0,0.0,15.0,1021.0,-24.0,38.0
284.0,-16.0,-30.0,-131.0,-2.0,14.0,1016.0,-24.0,37.0
283.0,-13.0,-35.0,-118.0,-1.0,15.0,1013.0,-24.0,40.0
282.0,-14.0,-30.0,-105.0,-2.0,16.0,1013.0,-28.0,33.0
280.0,-11.0,-32.0,-94.0,-3.0,16.0,1012.0,-25.0,39.0
283.0,-10.0,-30.0,-82.0,-3.0,15.0,1013.0,-20.0,42.0
284.0,-9.0,-28.0,-72.0,-4.0,14.0,1001.0,-13.0,40.0
283.0,-13.0,-33.0,-61.0,-6.0,11.0,999.0,-15.0,39.0
283.0,-11.0,-30.0,-53.0,-5.0,11.0,991.0,-12.0,36.0
281.0,-6.0,-30.0,-48.0,-7.0,11.0,996.0,-9.0,34.0
278.0,-10.0,-32.0,-48.0,-10.0,10.0,996.0,-9.0,39.0
275.0,-9.0,-30.0,-50.0,-10.0,8.0,992.0,-5.0,33.0
278.0,-7.0,-32.0,-57.0,-13.0,9.0,987.0,-2.0,37.0
279.0,-8.0,-30.0,-69.0,-13.0,9.0,989.0,-2.0,39.0
279.0,-6.0,-31.0,-78.0,-16.0,9.0,993.0,0.0,41.0
277.0,-4.0,-30.0,-89.0,-18.0,8.0,990.0,-5.0,41.0
277.0,-5.0,-30.0,-98.0,-20.0,9.0,989.0,-7.0,46.0
279.0,-8.0,-30.0,-105.0,-23.0,10.0,990.0,-8.0,45.0
280.0,-7.0,-33.0,-109.0,-24.0,11.0,991.0,-9.0,41.0
278.0,-10.0,-31.0,-108.0,-25.0,12.0,996.0,-9.0,48.0
282.0,-11.0,-32.0,-106.0,-26.0,12.0,1007.0,-7.0,44.0
282.0,-13.0,-32.0,-102.0,-27.0,12.0,1001.0,-12.0,44.0
281.0,-11.0,-30.0,-97.0,-29.0,13.0,1004.0,-18.0,37.0
285.0,-9.0,-32.0,-92.0,-31.0,12.0,1010.0,-12.0,35.0
280.0,-9.0,-32.0,-89.0,-32.0,13.0,1014.0,-12.0,36.0
282.0,-9.0,-32.0,-89.0,-32.0,12.0,1016.0,-13.0,34.0
286.0,-13.0,-30.0,-89.0,-34.0,12.0,1017.0,-10.0,33.0
287.0,-9.0,-38.0,-92.0,-35.0,13.0,1017.0,-11.0,26.0
284.0,-13.0,-34.0,-96.0,-36.0,12.0,1019.0,-13.0,29.0
281.0,-8.0,-37.0,-100.0,-38.0,11.0,1014.0,-13.0,25.0
282.0,-9.0,-37.0,-102.0,-41.0,12.0,1010.0,-12.0,21.0
283.0,-12.0,-38.0,-104.0,-42.0,12.0,1004.0,-17.0,21.0
283.0,-11.0,-33.0,-104.0,-42.0,12.0,1001.0,-16.0,24.0
283.0,-12.0,-37.0,-99.0,-40.0,11.0,1009.0,-17.0,23.0
284.0,-12.0,-38.0,-96.0,-38.0,10.0,1007.0,-17.0,21.0
281.0,-14.0,-39.0,-89.0,-37.0,8.0,1011.0,-17.0,21.0
284.0,-11.0,-36.0,-83.0,-32.0,6.0,1013.0,-21.0,15.0
284.0,-10.0,-39.0,-77.0,-29.0,5.0,1009.0,-21.0,21.0
282.0,-13.0,-34.0,-70.0,-26.0,3.0,1011.0,-15.0,22.0
283.0,-9.0,-36.0,-69.0,-20.0,0.0,1005.0,-22.0,21.0
282.0,-12.0,-37.0,-69.0,-16.0,-1.0,1009.0,-17.0,21.0
284.0,-9.0,-37.0,-65.0,-12.0,-3.0,1010.0,-19.0,23.0
285.0,-11.0,-36.0,-65.0,-10.0,-6.0,1006.0,-18.0,18.0
284.0,-10.0,-34.0,-65.0,-8.0,-7.0,1012.0,-14.0,15.0
283.0,-11.0,-38.0,-64.0,-8.0,-7.0,1015.0,-13.0,20.0
282.0,-9.0,-37.0,-64.0,-9.0,-7.0,1013.0,-11.0,18.0
283.0,-11.0,-37.0,-66.0,-10.0,-8.0,1009.0,-11.0,20.0
282.0,-9.0,-38.0,-67.0,-11.0,-8.0,1010.0,-10.0,19.0
282.0,-7.0,-38.0,-68.0,-14.0,-6.0,1008.0,-8.0,18.0
286.0,-10.0,-36.0,-70.0,-13.0,-7.0,1011.0,-9.0,15.0
283.0,-8.0,-35.0,-73.0,-14.0,-5.0,1013.0,-5.0,15.0
284.0,-7.0,-33.0,-74.0,-13.0,-5.0,1008.0,-9.0,13.0
282.0,-8.0,-39.0,-74.0,-11.0,-5.0,1012.0,-7.0,14.0
283.0,-11.0,-37.0,-75.0,-10.0,-4.0,1012.0,-3.0,17.0
283.0,-6.0,-38.0,-73.0,-8.0,-5.0,1010.0,-5.0,21.0
281.0,-7.0,-36.0,-75.0,-7.0,-5.0,1008.0,-5.0,17.0
283.0,-8.0,-36.0,-75.0,-6.0,-4.0,1010.0,-7.0,17.0
284.0,-7.0,-36.0,-77.0,-4.0,-5.0,1009.0,-7.0,19.0
280.0,-5.0,-37.0,-78.0,-2.0,-5.0,1010.0,-2.0,26.0
282.0,-9.0,-37.0,-79.0,0.0,-4.0,1007.0,-6.0,26.0
281.0,-6.0,-37.0,-81.0,-2.0,-5.0,1009.0,-5.0,28.0
283.0,-9.0,-33.0,-83.0,-2.0,-4.0,1009.0,-4.0,26.0
283.0,-8.0,-33.0,-86.0,-3.0,-3.0,1014.0,-4.0,28.0
281.0,-10.0,-37.0,-88.0,-5.0,-3.0,1013.0,-8.0,28.0
286.0,-10.0,-35.0,-89.0,-7.0,-2.0,1009.0,-12.0,24.0
283.0,-8.0,-33.0,-89.0,-8.0,0.0,1011.0,-9.0,29.0
284.0,-9.0,-36.0,-88.0,-12.0,-1.0,1011.0,-8.0,28.0
284.0,-8.0,-36.0,-90.0,-13.0,0.0,1009.0,-10.0,20.0
283.0,-10.0,-33.0,-89.0,-15.0,0.0,1010.0,-7.0,27.0
281.0,-9.0,-38.0,-86.0,-16.0,1.0,1010.0,-13.0,19.0
285.0,-11.0,-36.0,-82.0,-16.0,1.0,1015.0,-9.0,21.0
283.0,-11.0,-37.0,-78.0,-18.0,1.0,1008.0,-9.0,18.0
286.0,-9.0,-41.0,-76.0,-19.0,2.0,1008.0,-9.0,17.0
280.0,-7.0,-39.0,-74.0,-20.0,2.0,1007.0,-11.0,16.0
282.0,-9.0,-41.0,-70.0,-18.0,1.0,1011.0,-8.0,15.0
280.0,-12.0,-40.0,-69.0,-16.0,-2.0,1005.0,-10.0,8.0
282.0,-10.0,-40.0,-68.0,-12.0,-3.0,1008.0,-10.0,13.0
281.0,-8.0,-40.0,-69.0,-9.0,-2.0,1005.0,-7.0,5.0
280.0,-5.0,-40.0,-70.0,-4.0,-3.0,999.0,-11.0,10.0
282.0,-9.0,-41.0,-70.0,1.0,-6.0,1008.0,-8.0,16.0
283.0,-8.0,-37.0,-69.0,4.0,-5.0,1007.0,-8.0,14.0
282.0,-8.0,-40.0,-69.0,6.0,-6.0,1007.0,-8.0,16.0
281.0,-6.0,-38.0,-72.0,7.0,-5.0,1006.0,-11.0,17.0
283.0,-6.0,-36.0,-73.0,8.0,-5.0,1009.0,-7.0,14.0
283.0,-9.0,-43.0,-73.0,9.0,-5.0,1010.0,-12.0,22.0
282.0,-13.0,-37.0,-74.0,9.0,-4.0,1009.0,-8.0,20.0
285.0,-11.0,-37.0,-73.0,8.0,-5.0,1012.0,-9.0,24.0
284.0,-10.0,-35.0,-71.0,8.0,-4.0,1006.0,-6.0,26.0
281.0,-7.0,-34.0,-73.0,6.0,-1.0,1014.0,-6.0,22.0
283.0,-9.0,-34.0,-75.0,5.0,-2.0,1012.0,-7.0,19.0
282.0,-5.0,-37.0,-77.0,3.0,-2.0,1010.0,-10.0,22.0
282.0,-4.0,-36.0,-77.0,2.0,-1.0,1015.0,-4.0,19.0
283.0,-7.0,-35.0,-77.0,1.0,0.0,1012.0,-5.0,17.0
283.0,-8.0,-39.0,-76.0,-1.0,2.0,1014.0,-9.0,18.0
280.0,-5.0,-37.0,-77.0,-2.0,3.0,1008.0,-9.0,12.0
283.0,-7.0,-36.0,-77.0,-2.0,5.0,1013.0,-9.0,17.0
283.0,-9.0,-42.0,-76.0,0.0,5.0,1013.0,-9.0,14.0
284.0,-10.0,-40.0,-75.0,-1.0,5.0,1003.0,-10.0,13.0
279.0,-8.0,-41.0,-73.0,0.0,5.0,1009.0,-12.0,11.0
281.0,-8.0,-39.0,-71.0,1.0,4.0,1005.0,-11.0,9.0
279.0,-9.0,-41.0,-71.0,3.0,3.0,1009.0,-15.0,15.0
282.0,-11.0,-40.0,-68.0,3.0,1.0,1003.0,-14.0,8.0
282.0,-9.0,-38.0,-68.0,6.0,2.0,1008.0,-13.0,15.0
281.0,-9.0,-40.0,-67.0,6.0,0.0,1003.0,-9.0,10.0
282.0,-8.0,-39.0,-67.0,7.0,0.0,1001.0,-14.0,14.0
285.0,-9.0,-41.0,-69.0,9.0,-1.0,1000.0,-19.0,15.0
282.0,-12.0,-40.0,-69.0,10.0,-3.0,1007.0,-13.0,14.0
286.0,-11.0,-42.0,-71.0,13.0,-3.0,1010.0,-15.0,18.0
283.0,-11.0,-40.0,-72.0,14.0,-2.0,1006.0,-10.0,12.0
281.0,-12.0,-39.0,-72.0,14.0,-2.0,1004.0,-13.0,17.0
283.0,-10.0,-39.0,-73.0,14.0,-3.0,1010.0,-19.0,17.0
281.0,-12.0,-39.0,-75.0,15.0,-4.0,1008.0,-15.0,22.0
282.0,-13.0,-38.0,-74.0,15.0,-4.0,1009.0,-13.0,17.0
282.0,-8.0,-39.0,-75.0,13.0,-3.0,1007.0,-11.0,18.0
285.0,-10.0,-38.0,-74.0,11.0,-3.0,1008.0,-15.0,21.0
283.0,-14.0,-35.0,-73.0,9.0,-2.0,1005.0,-13.0,19.0
280.0,-8.0,-39.0,-71.0,8.0,-1.0,1010.0,-11.0,21.0
284.0,-9.0,-38.0,-69.0,6.0,-1.0,1006.0,-14.0,16.0
291.0,-7.0,-47.0,-69.0,3.0,-1.0,1009.0,-14.0,16.0
281.0,-7.0,-39.0,-67.0,1.0,-1.0,1006.0,-9.0,16.0
283.0,-11.0,-38.0,-68.0,1.0,-1.0,1004.0,-16.0,13.0
283.0,-12.0,-39.0,-68.0,4.0,-1.0,1001.0,-9.0,15.0
281.0,-10.0,-37.0,-68.0,5.0,-3.0,1005.0,-11.0,13.0
283.0,-15.0,-40.0,-68.0,6.0,-2.0,1007.0,-12.0,16.0
282.0,-8.0,-41.0,-68.0,9.0,-5.0,1008.0,-14.0,13.0
280.0,-9.0,-39.0,-67.0,12.0,-6.0,1006.0,-12.0,9.0
282.0,-9.0,-40.0,-67.0,14.0,-7.0,1004.0,-14.0,16.0
281.0,-10.0,-37.0,-66.0,16.0,-8.0,1009.0,-9.0,13.0
279.0,-10.0,-36.0,-65.0,17.0,-9.0,1011.0,-12.0,12.0
275.0,-17.0,-30.0,-64.0,17.0,-7.0,996.0,-11.0,10.0
283.0,-8.0,-38.0,-65.0,17.0,-7.0,1001.0,-9.0,15.0
286.0,-13.0,-38.0,-63.0,17.0,-6.0,1009.0,-11.0,12.0
281.0,-11.0,-38.0,-60.0,16.0,-6.0,1007.0,-16.0,15.0
282.0,-9.0,-36.0,-57.0,15.0,-5.0,1009.0,-11.0,11.0
284.0,-10.0,-37.0,-52.0,12.0,-6.0,1007.0,-13.0,4.0
281.0,-9.0,-33.0,-50.0,10.0,-5.0,1009.0,-9.0,16.0
281.0,-9.0,-44.0,-47.0,10.0,-6.0,1011.0,-14.0,9.0
285.0,-10.0,-39.0,-45.0,9.0,-6.0,1013.0,-15.0,9.0
284.0,-11.0,-40.0,-44.0,10.0,-6.0,1011.0,-15.0,7.0
281.0,-7.0,-40.0,-45.0,9.0,-6.0,1008.0,-14.0,8.0
282.0,-8.0,-38.0,-46.0,11.0,-7.0,1006.0,-17.0,13.0
280.0,-9.0,-40.0,-49.0,12.0,-7.0,1002.0,-11.0,10.0
282.0,-10.0,-37.0,-51.0,15.0,-8.0,999.0,-13.0,7.0
284.0,-10.0,-45.0,-53.0,18.0,-8.0,1007.0,-13.0,12.0
283.0,-8.0,-40.0,-55.0,18.0,-8.0,998.0,-12.0,9.0
280.0,-10.0,-38.0,-56.0,19.0,-8.0,1004.0,-10.0,16.0
280.0,-10.0,-39.0,-57.0,20.0,-7.0,1001.0,-10.0,12.0
279.0,-8.0,-37.0,-57.0,19.0,-8.0,1001.0,-12.0,15.0
282.0,-9.0,-33.0,-58.0,18.0,-9.0,1001.0,-12.0,17.0
279.0,-10.0,-40.0,-60.0,17.0,-8.0,1001.0,-8.0,18.0
283.0,-9.0,-36.0,-60.0,18.0,-8.0,1006.0,-10.0,16.0
281.0,-8.0,-38.0,-63.0,19.0,-6.0,1009.0,-9.0,20.0
282.0,-8.0,-34.0,-60.0,18.0,-7.0,1009.0,-6.0,13.0
284.0,-10.0,-34.0,-61.0,18.0,-6.0,1007.0,-7.0,19.0
281.0,-6.0,-38.0,-61.0,15.0,-6.0,1007.0,-3.0,18.0
282.0,-7.0,-38.0,-59.0,14.0,-5.0,1002.0,-10.0,18.0
283.0,-9.0,-37.0,-58.0,12.0,-7.0,1005.0,-5.0,14.0
281.0,-7.0,-37.0,-56.0,11.0,-6.0,1005.0,-6.0,15.0
281.0,-7.0,-39.0,-55.0,8.0,-4.0,1001.0,-5.0,14.0
281.0,-7.0,-37.0,-55.0,7.0,-2.0,1008.0,-5.0,15.0
281.0,-11.0,-43.0,-55.0,6.0,-2.0,1000.0,-10.0,15.0
279.0,-9.0,-38.0,-54.0,6.0,-1.0,1006.0,-7.0,16.0
281.0,-9.0,-38.0,-55.0,6.0,-1.0,999.0,-10.0,8.0
283.0,-10.0,-41.0,-54.0,6.0,-1.0,1000.0,-13.0,5.0
282.0,-12.0,-37.0,-54.0,7.0,-1.0,1003.0,-13.0,8.0
281.0,-10.0,-39.0,-50.0,7.0,-1.0,1007.0,-18.0,10.0
284.0,-12.0,-39.0,-51.0,8.0,1.0,998.0,-13.0,11.0
282.0,-12.0,-43.0,-49.0,10.0,1.0,1007.0,-16.0,15.0
280.0,-11.0,-38.0,-49.0,10.0,-1.0,1001.0,-18.0,11.0
284.0,-10.0,-39.0,-45.0,12.0,-2.0,1011.0,-18.0,9.0
282.0,-10.0,-34.0,-43.0,12.0,-3.0,1008.0,-14.0,15.0
281.0,-11.0,-37.0,-41.0,14.0,-2.0,1000.0,-18.0,11.0
283.0,-10.0,-37.0,-39.0,15.0,-2.0,1010.0,-15.0,12.0
282.0,-10.0,-37.0,-39.0,16.0,-3.0,1001.0,-14.0,13.0
281.0,-11.0,-44.0,-36.0,17.0,-3.0,1010.0,-12.0,11.0
281.0,-10.0,-38.0,-34.0,17.0,-3.0,1005.0,-10.0,19.0
282.0,-10.0,-39.0,-33.0,17.0,-5.0,1008.0,-14.0,14.0
283.0,-11.0,-43.0,-32.0,19.0,-4.0,1009.0,-10.0,12.0
281.0,-8.0,-40.0,-32.0,18.0,-4.0,1007.0,-14.0,15.0
283.0,-11.0,-38.0,-34.0,18.0,-6.0,1007.0,-12.0,9.0
284.0,-9.0,-37.0,-35.0,19.0,-4.0,1003.0,-11.0,17.0
281.0,-9.0,-39.0,-35.0,19.0,-5.0,1003.0,-15.0,17.0
283.0,-9.0,-41.0,-35.0,19.0,-5.0,1007.0,-16.0,8.0
282.0,-12.0,-40.0,-35.0,19.0,-6.0,1004.0,-13.0,10.0
281.0,-9.0,-38.0,-37.0,18.0,-6.0,1007.0,-10.0,12.0
281.0,-9.0,-38.0,-37.0,17.0,-6.0,1009.0,-14.0,18.0
283.0,-9.0,-37.0,-36.0,17.0,-5.0,1005.0,-9.0,16.0
283.0,-13.0,-40.0,-37.0,16.0,-4.0,1006.0,-14.0,16.0
282.0,-9.0,-42.0,-35.0,16.0,-6.0,998.0,-14.0,18.0
281.0,-7.0,-42.0,-34.0,16.0,-5.0,1008.0,-15.0,12.0
281.0,-8.0,-39.0,-34.0,16.0,-5.0,1006.0,-14.0,13.0
281.0,-12.0,-40.0,-34.0,17.0,-7.0,1001.0,-11.0,16.0
281.0,-11.0,-37.0,-32.0,16.0,-7.0,1006.0,-12.0,16.0
282.0,-9.0,-41.0,-31.0,18.0,-7.0,1001.0,-13.0,15.0
283.0,-11.0,-38.0,-30.0,20.0,-8.0,1001.0,-12.0,16.0
281.0,-7.0,-37.0,-31.0,20.0,-8.0,1006.0,-11.0,11.0
280.0,-8.0,-38.0,-29.0,20.0,-9.0,999.0,-13.0,10.0
284.0,-11.0,-41.0,-30.0,22.0,-10.0,1005.0,-9.0,15.0
279.0,-9.0,-34.0,-27.0,23.0,-11.0,1008.0,-8.0,9.0
284.0,-10.0,-41.0,-26.0,24.0,-11.0,1008.0,-12.0,13.0
283.0,-10.0,-38.0,-26.0,25.0,-10.0,1009.0,-10.0,11.0
284.0,-10.0,-38.0,-26.0,27.0,-12.0,1010.0,-9.0,14.0
280.0,-8.0,-41.0,-24.0,27.0,-12.0,1006.0,-15.0,15.0
282.0,-10.0,-39.0,-26.0,30.0,-13.0,1009.0,-9.0,13.0
282.0,-4.0,-41.0,-24.0,30.0,-12.0,1009.0,-9.0,13.0
283.0,-12.0,-36.0,-26.0,31.0,-12.0,1015.0,-10.0,17.0
284.0,-9.0,-42.0,-27.0,31.0,-12.0,1011.0,-12.0,12.0
282.0,-10.0,-36.0,-28.0,29.0,-10.0,1012.0,-12.0,14.0
284.0,-9.0,-39.0,-29.0,29.0,-11.0,1014.0,-10.0,13.0
284.0,-8.0,-38.0,-28.0,27.0,-11.0,1015.0,-14.0,14.0
282.0,-10.0,-37.0,-27.0,26.0,-8.0,1016.0,-14.0,20.0
285.0,-12.0,-42.0,-26.0,22.0,-7.0,1014.0,-13.0,17.0
282.0,-9.0,-38.0,-21.0,19.0,-6.0,1010.0,-18.0,13.0
284.0,-13.0,-38.0,-21.0,16.0,-7.0,1013.0,-18.0,9.0
283.0,-12.0,-40.0,-21.0,13.0,-7.0,1011.0,-20.0,12.0
283.0,-10.0,-36.0,-22.0,13.0,-9.0,1011.0,-12.0,15.0
282.0,-14.0,-37.0,-24.0,15.0,-8.0,1008.0,-18.0,16.0
284.0,-12.0,-39.0,-26.0,17.0,-9.0,1010.0,-18.0,4.0
284.0,-10.0,-37.0,-28.0,18.0,-10.0,1003.0,-13.0,18.0
282.0,-9.0,-36.0,-30.0,20.0,-10.0,1006.0,-13.0,13.0
282.0,-11.0,-37.0,-31.0,22.0,-10.0,1007.0,-11.0,17.0
279.0,-9.0,-40.0,-30.0,22.0,-11.0,1009.0,-10.0,13.0
285.0,-10.0,-37.0,-33.0,22.0,-11.0,1004.0,-10.0,16.0
284.0,-12.0,-37.0,-32.0,22.0,-11.0,996.0,-7.0,18.0
284.0,-9.0,-37.0,-31.0,22.0,-12.0,1002.0,-3.0,14.0
281.0,-8.0,-34.0,-31.0,21.0,-11.0,1002.0,-3.0,10.0
283.0,-8.0,-36.0,-32.0,23.0,-10.0,1006.0,-3.0,12.0
284.0,-8.0,-42.0,-30.0,23.0,-11.0,1009.0,-7.0,14.0
284.0,-7.0,-39.0,-33.0,26.0,-11.0,1008.0,-3.0,17.0
283.0,-8.0,-36.0,-33.0,27.0,-9.0,1009.0,-2.0,14.0
283.0,-4.0,-40.0,-36.0,26.0,-9.0,1008.0,-4.0,15.0
281.0,-6.0,-37.0,-39.0,27.0,-8.0,1006.0,-7.0,17.0
281.0,-7.0,-38.0,-39.0,27.0,-6.0,1010.0,-9.0,18.0
281.0,-6.0,-38.0,-42.0,28.0,-8.0,1013.0,-2.0,17.0
282.0,-7.0,-36.0,-42.0,30.0,-6.0,1006.0,-5.0,17.0
284.0,-11.0,-38.0,-40.0,29.0,-4.0,1002.0,-7.0,16.0
283.0,-11.0,-36.0,-40.0,31.0,-3.0,1008.0,-7.0,19.0
282.0,-9.0,-40.0,-40.0,32.0,-5.0,1009.0,-12.0,15.0
281.0,-5.0,-35.0,-40.0,33.0,-3.0,1007.0,-11.0,15.0
283.0,-10.0,-38.0,-40.0,34.0,-4.0,1010.0,-10.0,15.0
281.0,-6.0,-40.0,-36.0,34.0,-5.0,1008.0,-11.0,17.0
284.0,-8.0,-38.0,-38.0,34.0,-5.0,1013.0,-9.0,10.0
283.0,-9.0,-38.0,-35.0,34.0,-4.0,1007.0,-8.0,20.0
283.0,-11.0,-37.0,-34.0,33.0,-5.0,1008.0,-11.0,18.0
282.0,-10.0,-40.0,-34.0,31.0,-4.0,1011.0,-13.0,18.0
281.0,-7.0,-37.0,-31.0,30.0,-6.0,1010.0,-14.0,18.0
285.0,-10.0,-36.0,-29.0,29.0,-5.0,1011.0,-12.0,14.0
281.0,-6.0,-39.0,-29.0,26.0,-4.0,1008.0,-10.0,18.0
283.0,-11.0,-39.0,-29.0,25.0,-7.0,1006.0,-15.0,15.0
278.0,-13.0,-34.0,-29.0,24.0,-6.0,1004.0,-13.0,16.0
283.0,-11.0,-34.0,-29.0,22.0,-5.0,1009.0,-11.0,19.0
281.0,-9.0,-33.0,-32.0,24.0,-6.0,1008.0,-8.0,22.0
283.0,-9.0,-37.0,-34.0,24.0,-5.0,1008.0,-9.0,21.0
285.0,-11.0,-38.0,-35.0,24.0,-5.0,1009.0,-11.0,22.0
282.0,-9.0,-37.0,-36.0,23.0,-5.0,1011.0,-12.0,19.0
283.0,-12.0,-37.0,-38.0,24.0,-4.0,1010.0,-14.0,19.0
282.0,-13.0,-42.0,-37.0,26.0,-4.0,1007.0,-10.0,18.0
283.0,-9.0,-40.0,-37.0,28.0,-4.0,1007.0,-8.0,17.0
281.0,-9.0,-35.0,-36.0,29.0,-5.0,1007.0,-10.0,20.0
282.0,-9.0,-43.0,-35.0,29.0,-5.0,1006.0,-10.0,19.0
278.0,-7.0,-48.0,-34.0,28.0,-6.0,1009.0,-15.0,21.0
284.0,-10.0,-39.0,-32.0,29.0,-6.0,1002.0,-14.0,15.0
282.0,-4.0,-37.0,-31.0,28.0,-7.0,1007.0,-13.0,19.0
283.0,-11.0,-36.0,-31.0,31.0,-7.0,1005.0,-13.0,15.0
283.0,-10.0,-39.0,-31.0,31.0,-8.0,1010.0,-12.0,19.0
282.0,-9.0,-38.0,-34.0,32.0,-7.0,1008.0,-13.0,16.0
283.0,-7.0,-34.0,-37.0,31.0,-8.0,1009.0,-12.0,19.0
281.0,-9.0,-37.0,-38.0,34.0,-8.0,1010.0,-12.0,22.0
282.0,-9.0,-37.0,-39.0,34.0,-7.0,1011.0,-10.0,21.0
282.0,-11.0,-34.0,-41.0,34.0,-7.0,1008.0,-13.0,18.0
281.0,-10.0,-33.0,-40.0,33.0,-9.0,1009.0,-16.0,25.0
284.0,-11.0,-32.0,-39.0,31.0,-9.0,1013.0,-8.0,19.0
283.0,-11.0,-35.0,-39.0,28.0,-9.0,1013.0,-9.0,23.0
282.0,-9.0,-34.0,-40.0,25.0,-8.0,1008.0,-13.0,17.0
283.0,-8.0,-37.0,-40.0,23.0,-7.0,1009.0,-16.0,22.0
283.0,-11.0,-37.0,-37.0,20.0,-7.0,1012.0,-13.0,17.0
280.0,-7.0,-34.0,-36.0,17.0,-7.0,1005.0,-12.0,18.0
285.0,-11.0,-37.0,-37.0,15.0,-8.0,1014.0,-14.0,18.0
285.0,-10.0,-41.0,-33.0,14.0,-8.0,1011.0,-10.0,17.0
280.0,-9.0,-39.0,-34.0,14.0,-8.0,1003.0,-15.0,16.0
282.0,-10.0,-39.0,-33.0,15.0,-7.0,1006.0,-17.0,21.0
282.0,-11.0,-36.0,-34.0,16.0,-8.0,1011.0,-5.0,21.0
283.0,-10.0,-41.0,-35.0,17.0,-9.0,999.0,-14.0,20.0
284.0,-14.0,-39.0,-36.0,21.0,-8.0,1006.0,-11.0,21.0
280.0,-9.0,-38.0,-35.0,20.0,-9.0,1008.0,-12.0,19.0
282.0,-8.0,-42.0,-38.0,22.0,-10.0,1003.0,-12.0,18.0
282.0,-9.0,-38.0,-38.0,22.0,-10.0,1003.0,-11.0,21.0
280.0,-6.0,-36.0,-39.0,23.0,-10.0,1001.0,-14.0,19.0
281.0,-6.0,-40.0,-40.0,22.0,-9.0,1002.0,-10.0,22.0
280.0,-5.0,-35.0,-41.0,20.0,-10.0,993.0,-10.0,20.0
282.0,-12.0,-36.0,-42.0,19.0,-8.0,1006.0,-11.0,22.0
283.0,-10.0,-37.0,-41.0,19.0,-8.0,1009.0,-12.0,20.0
281.0,-8.0,-36.0,-43.0,21.0,-7.0,1007.0,-8.0,19.0
282.0,-9.0,-39.0,-43.0,19.0,-9.0,1007.0,-6.0,20.0
282.0,-9.0,-35.0,-43.0,17.0,-9.0,1006.0,-11.0,20.0
282.0,-9.0,-35.0,-42.0,18.0,-9.0,1006.0,-9.0,20.0
281.0,-11.0,-36.0,-40.0,18.0,-8.0,1004.0,-9.0,22.0
279.0,-8.0,-36.0,-38.0,19.0,-9.0,1008.0,-8.0,17.0
282.0,-9.0,-36.0,-36.0,17.0,-6.0,1006.0,-7.0,19.0
284.0,-9.0,-36.0,-36.0,17.0,-7.0,1006.0,-4.0,19.0
281.0,-8.0,-39.0,-36.0,17.0,-7.0,1005.0,-7.0,17.0
281.0,-9.0,-36.0,-36.0,18.0,-6.0,1009.0,-9.0,18.0
282.0,-11.0,-38.0,-34.0,19.0,-7.0,1010.0,-7.0,19.0
281.0,-6.0,-39.0,-35.0,19.0,-5.0,997.0,-7.0,17.0
282.0,-9.0,-37.0,-36.0,19.0,-5.0,1012.0,-13.0,16.0
283.0,-8.0,-36.0,-34.0,21.0,-5.0,1007.0,-11.0,19.0
281.0,-9.0,-38.0,-34.0,22.0,-5.0,1005.0,-9.0,14.0
282.0,-9.0,-39.0,-33.0,23.0,-6.0,1008.0,-11.0,21.0
283.0,-8.0,-36.0,-32.0,22.0,-7.0,1002.0,-8.0,20.0
284.0,-7.0,-35.0,-31.0,23.0,-6.0,1003.0,-11.0,21.0
282.0,-9.0,-36.0,-34.0,24.0,-5.0,1004.0,-9.0,19.0
283.0,-10.0,-37.0,-32.0,23.0,-5.0,1010.0,-12.0,21.0
280.0,-9.0,-37.0,-28.0,23.0,-6.0,1003.0,-9.0,18.0
280.0,-9.0,-38.0,-26.0,22.0,-7.0,1011.0,-13.0,19.0
281.0,-9.0,-36.0,-27.0,21.0,-5.0,1008.0,-12.0,18.0
282.0,-9.0,-38.0,-26.0,19.0,-6.0,1012.0,-10.0,20.0
282.0,-11.0,-39.0,-26.0,20.0,-4.0,1004.0,-10.0,22.0
284.0,-8.0,-39.0,-26.0,20.0,-5.0,1003.0,-11.0,19.0
285.0,-7.0,-40.0,-26.0,22.0,-4.0,1006.0,-6.0,16.0
282.0,-9.0,-37.0,-25.0,21.0,-4.0,1007.0,-7.0,16.0
284.0,-11.0,-36.0,-28.0,20.0,-4.0,1005.0,-11.0,19.0
280.0,-10.0,-38.0,-30.0,22.0,-5.0,1005.0,-4.0,22.0
282.0,-5.0,-40.0,-32.0,22.0,-5.0,1011.0,-13.0,19.0
281.0,-8.0,-37.0,-31.0,22.0,-5.0,1003.0,-7.0,19.0
284.0,-9.0,-36.0,-33.0,24.0,-4.0,1009.0,-11.0,21.0
285.0,-12.0,-34.0,-34.0,25.0,-4.0,1011.0,-10.0,18.0
282.0,-7.0,-36.0,-34.0,27.0,-4.0,1005.0,-3.0,21.0
282.0,-9.0,-38.0,-36.0,28.0,-4.0,1006.0,-6.0,21.0
284.0,-8.0,-41.0,-36.0,29.0,-6.0,1009.0,-8.0,24.0
281.0,-8.0,-41.0,-37.0,30.0,-5.0,1008.0,-8.0,20.0
283.0,-8.0,-32.0,-38.0,29.0,-5.0,1008.0,-6.0,25.0
283.0,-8.0,-35.0,-36.0,29.0,-5.0,1010.0,-7.0,19.0
281.0,-8.0,-34.0,-37.0,29.0,-5.0,1006.0,-7.0,23.0
282.0,-7.0,-34.0,-37.0,27.0,-4.0,1008.0,-9.0,20.0
283.0,-9.0,-36.0,-39.0,27.0,-4.0,1014.0,-10.0,22.0
284.0,-9.0,-38.0,-40.0,24.0,-4.0,1011.0,-3.0,19.0
286.0,-11.0,-35.0,-41.0,24.0,-3.0,1012.0,-11.0,21.0
283.0,-7.0,-33.0,-41.0,22.0,-2.0,1006.0,-11.0,25.0
283.0,-9.0,-39.0,-42.0,21.0,-3.0,1006.0,-14.0,22.0
283.0,-11.0,-38.0,-42.0,22.0,-3.0,1007.0,-12.0,18.0
286.0,-11.0,-35.0,-42.0,21.0,-3.0,1010.0,-11.0,20.0
279.0,-10.0,-37.0,-40.0,22.0,-2.0,1008.0,-10.0,24.0
282.0,-9.0,-33.0,-40.0,23.0,-4.0,1007.0,-13.0,20.0
282.0,-10.0,-39.0,-40.0,24.0,-2.0,1006.0,-14.0,19.0
282.0,-11.0,-39.0,-36.0,25.0,-4.0,1009.0,-9.0,23.0
283.0,-10.0,-36.0,-35.0,25.0,-5.0,1008.0,-10.0,22.0
284.0,-7.0,-37.0,-35.0,25.0,-6.0,1005.0,-12.0,23.0
281.0,-9.0,-33.0,-33.0,24.0,-5.0,1008.0,-10.0,18.0
279.0,-10.0,-36.0,-35.0,26.0,-6.0,1006.0,-7.0,21.0
284.0,-12.0,-37.0,-35.0,26.0,-5.0,1010.0,-8.0,21.0
282.0,-10.0,-39.0,-33.0,26.0,-6.0,1005.0,-8.0,25.0
283.0,-6.0,-34.0,-32.0,26.0,-7.0,1012.0,-10.0,19.0
284.0,-9.0,-37.0,-29.0,27.0,-6.0,1015.0,-10.0,23.0
285.0,-9.0,-39.0,-26.0,28.0,-5.0,1014.0,-7.0,20.0
285.0,-11.0,-41.0,-22.0,28.0,-5.0,1015.0,-15.0,21.0
287.0,-9.0,-38.0,-18.0,28.0,-6.0,1017.0,-14.0,21.0
285.0,-11.0,-39.0,-12.0,28.0,-6.0,1019.0,-13.0,22.0
287.0,-10.0,-37.0,-9.0,28.0,-6.0,1019.0,-17.0,15.0
288.0,-14.0,-36.0,-7.0,27.0,-6.0,1017.0,-14.0,16.0
286.0,-9.0,-36.0,-5.0,28.0,-9.0,1018.0,-15.0,17.0
282.0,-9.0,-38.0,-5.0,30.0,-9.0,1014.0,-13.0,14.0
284.0,-11.0,-37.0,-5.0,33.0,-10.0,1019.0,-13.0,12.0
284.0,-16.0,-39.0,-6.0,37.0,-10.0,1010.0,-9.0,14.0
283.0,-10.0,-35.0,-6.0,40.0,-11.0,1016.0,-17.0,16.0
284.0,-10.0,-37.0,-4.0,45.0,-12.0,1015.0,-12.0,15.0
286.0,-12.0,-37.0,-1.0,50.0,-13.0,1017.0,-19.0,14.0
288.0,-10.0,-38.0,5.0,54.0,-15.0,1021.0,-11.0,21.0
286.0,-10.0,-40.0,11.0,59.0,-15.0,1022.0,-15.0,16.0
288.0,-12.0,-40.0,16.0,61.0,-16.0,1023.0,-11.0,15.0
288.0,-11.0,-35.0,20.0,65.0,-18.0,1026.0,-8.0,21.0
286.0,-9.0,-39.0,25.0,67.0,-20.0,1035.0,-10.0,17.0
289.0,-10.0,-37.0,29.0,70.0,-23.0,1032.0,-8.0,15.0
291.0,-12.0,-35.0,30.0,74.0,-24.0,1034.0,-12.0,16.0
290.0,-11.0,-38.0,33.0,76.0,-24.0,1034.0,-7.0,14.0
292.0,-10.0,-39.0,33.0,79.0,-24.0,1036.0,-2.0,8.0
290.0,-13.0,-39.0,32.0,80.0,-27.0,1036.0,-11.0,12.0
289.0,-9.0,-42.0,33.0,82.0,-28.0,1034.0,-6.0,7.0
289.0,-5.0,-38.0,31.0,84.0,-25.0,1033.0,-9.0,5.0
287.0,-8.0,-42.0,31.0,89.0,-27.0,1027.0,-6.0,10.0
289.0,-7.0,-43.0,33.0,95.0,-28.0,1028.0,-6.0,8.0
291.0,-10.0,-39.0,35.0,103.0,-29.0,1025.0,-13.0,5.0
287.0,-8.0,-39.0,35.0,111.0,-31.0,1029.0,-7.0,5.0
289.0,-6.0,-42.0,36.0,120.0,-32.0,1029.0,-6.0,8.0
288.0,-7.0,-42.0,39.0,132.0,-35.0,1030.0,-7.0,4.0
289.0,-10.0,-39.0,39.0,143.0,-39.0,1026.0,-7.0,9.0
287.0,-9.0,-40.0,42.0,151.0,-41.0,1029.0,-10.0,9.0
287.0,-9.0,-39.0,47.0,162.0,-44.0,1035.0,-10.0,10.0
291.0,-11.0,-38.0,53.0,172.0,-47.0,1030.0,-6.0,14.0
291.0,-10.0,-36.0,56.0,181.0,-51.0,1029.0,-12.0,13.0
292.0,-9.0,-39.0,61.0,190.0,-55.0,1031.0,-13.0,15.0
300.0,-7.0,-28.0,63.0,200.0,-61.0,1035.0,-9.0,17.0
290.0,-8.0,-40.0,65.0,211.0,-66.0,1039.0,-13.0,13.0
292.0,-11.0,-39.0,67.0,222.0,-71.0,1032.0,-11.0,11.0
289.0,-9.0,-40.0,65.0,234.0,-77.0,1035.0,-14.0,15.0
295.0,-11.0,-32.0,61.0,246.0,-83.0,1043.0,-11.0,17.0
298.0,-11.0,-36.0,55.0,256.0,-89.0,1054.0,-12.0,24.0
295.0,-8.0,-37.0,45.0,268.0,-96.0,1046.0,-10.0,25.0
292.0,-10.0,-30.0,32.0,278.0,-104.0,1036.0,-13.0,29.0
286.0,-9.0,-34.0,19.0,288.0,-112.0,1035.0,-13.0,30.0
289.0,-11.0,-34.0,10.0,298.0,-118.0,1025.0,-12.0,31.0
288.0,-11.0,-34.0,2.0,306.0,-123.0,1030.0,-20.0,36.0
290.0,-11.0,-50.0,0.0,316.0,-129.0,1025.0,-21.0,46.0
289.0,-10.0,-31.0,-3.0,321.0,-134.0,1028.0,-18.0,48.0
289.0,-13.0,-27.0,-4.0,320.0,-138.0,1033.0,-18.0,60.0
295.0,-11.0,-21.0,-7.0,319.0,-140.0,1047.0,-14.0,61.0
292.0,-10.0,-28.0,-12.0,315.0,-143.0,1037.0,-17.0,70.0
293.0,-8.0,-21.0,-23.0,313.0,-143.0,1067.0,-15.0,68.0
296.0,-9.0,-23.0,-36.0,313.0,-146.0,1049.0,-10.0,75.0
295.0,-8.0,-20.0,-53.0,316.0,-145.0,1048.0,-17.0,74.0
296.0,-9.0,-22.0,-69.0,319.0,-142.0,1055.0,-12.0,77.0
291.0,-12.0,-26.0,-83.0,327.0,-140.0,1038.0,-13.0,70.0
293.0,-13.0,-21.0,-90.0,337.0,-138.0,1049.0,-21.0,70.0
290.0,-10.0,-26.0,-91.0,351.0,-136.0,1044.0,-16.0,62.0
290.0,-14.0,-27.0,-86.0,372.0,-134.0,1027.0,-25.0,56.0
293.0,-15.0,-28.0,-77.0,396.0,-135.0,1033.0,-26.0,53.0
293.0,-13.0,-25.0,-70.0,414.0,-140.0,1045.0,-27.0,54.0
291.0,-13.0,-25.0,-63.0,434.0,-147.0,1041.0,-35.0,52.0
291.0,-15.0,-26.0,-58.0,457.0,-155.0,1037.0,-28.0,57.0
293.0,-15.0,-29.0,-50.0,477.0,-163.0,1038.0,-37.0,62.0
294.0,-17.0,-28.0,-42.0,496.0,-174.0,1045.0,-39.0,66.0
297.0,-16.0,-26.0,-29.0,517.0,-185.0,1048.0,-38.0,69.0
295.0,-22.0,-26.0,-16.0,539.0,-198.0,1055.0,-42.0,69.0
294.0,-20.0,-29.0,3.0,562.0,-209.0,1039.0,-43.0,61.0
288.0,-21.0,-27.0,28.0,590.0,-221.0,1033.0,-51.0,65.0
287.0,-21.0,-26.0,58.0,612.0,-230.0,1031.0,-44.0,60.0
287.0,-19.0,-26.0,102.0,630.0,-241.0,1030.0,-38.0,67.0
290.0,-21.0,-25.0,147.0,647.0,-250.0,1031.0,-44.0,75.0
290.0,-17.0,-22.0,192.0,661.0,-261.0,1028.0,-30.0,79.0
290.0,-14.0,-19.0,233.0,671.0,-270.0,1031.0,-20.0,84.0
289.0,-9.0,-19.0,264.0,677.0,-278.0,1035.0,-11.0,88.0
291.0,-2.0,-16.0,284.0,679.0,-282.0,1037.0,4.0,96.0
293.0,1.0,-16.0,296.0,679.0,-282.0,1040.0,17.0,96.0
293.0,3.0,-19.0,299.0,675.0,-282.0,1048.0,28.0,98.0
290.0,7.0,-16.0,288.0,670.0,-281.0,1047.0,44.0,97.0
293.0,6.0,-17.0,266.0,663.0,-276.0,1045.0,49.0,96.0
290.0,12.0,-13.0,235.0,659.0,-269.0,1029.0,62.0,96.0
285.0,15.0,-16.0,199.0,653.0,-262.0,1025.0,70.0,90.0
285.0,9.0,-19.0,163.0,648.0,-254.0,1012.0,76.0,91.0
282.0,15.0,-20.0,127.0,645.0,-246.0,1009.0,74.0,86.0
279.0,18.0,-20.0,95.0,646.0,-239.0,997.0,78.0,79.0
280.0,14.0,-18.0,65.0,654.0,-233.0,982.0,80.0,78.0
277.0,12.0,-17.0,39.0,665.0,-230.0,980.0,74.0,90.0
277.0,12.0,-17.0,13.0,680.0,-228.0,976.0,69.0,97.0
276.0,12.0,-15.0,-11.0,696.0,-226.0,977.0,66.0,110.0
272.0,9.0,-9.0,-33.0,709.0,-224.0,975.0,55.0,123.0
279.0,5.0,-3.0,-45.0,723.0,-224.0,982.0,50.0,141.0
276.0,6.0,-3.0,-45.0,735.0,-225.0,981.0,40.0,152.0
278.0,1.0,3.0,-33.0,748.0,-224.0,985.0,44.0,170.0
275.0,5.0,4.0,-16.0,758.0,-225.0,983.0,45.0,184.0
281.0,2.0,13.0,8.0,765.0,-226.0,987.0,37.0,194.0
280.0,4.0,15.0,26.0,767.0,-229.0,991.0,47.0,209.0
283.0,6.0,12.0,45.0,770.0,-232.0,999.0,53.0,214.0
282.0,7.0,13.0,68.0,774.0,-234.0,1009.0,56.0,216.0
280.0,8.0,17.0,97.0,778.0,-238.0,1005.0,60.0,225.0
278.0,9.0,14.0,129.0,784.0,-241.0,996.0,64.0,221.0
279.0,11.0,10.0,155.0,784.0,-245.0,992.0,67.0,216.0
275.0,12.0,11.0,172.0,783.0,-246.0,981.0,76.0,208.0
273.0,16.0,8.0,174.0,776.0,-247.0,979.0,81.0,199.0
272.0,21.0,9.0,168.0,764.0,-247.0,975.0,94.0,195.0
271.0,19.0,9.0,152.0,750.0,-245.0,967.0,93.0,196.0
267.0,23.0,12.0,130.0,737.0,-242.0,952.0,92.0,200.0
264.0,22.0,10.0,109.0,722.0,-238.0,947.0,95.0,200.0
263.0,21.0,10.0,89.0,705.0,-236.0,934.0,95.0,208.0
265.0,16.0,14.0,73.0,695.0,-230.0,933.0,92.0,207.0
265.0,19.0,13.0,65.0,689.0,-224.0,931.0,87.0,217.0
263.0,17.0,15.0,66.0,688.0,-223.0,928.0,93.0,224.0
261.0,19.0,19.0,68.0,690.0,-223.0,927.0,95.0,231.0
262.0,18.0,20.0,74.0,697.0,-220.0,931.0,94.0,253.0
264.0,18.0,26.0,83.0,708.0,-220.0,935.0,92.0,269.0
265.0,19.0,30.0,97.0,722.0,-219.0,944.0,92.0,287.0
269.0,21.0,38.0,116.0,737.0,-219.0,951.0,95.0,302.0
269.0,19.0,42.0,137.0,749.0,-217.0,958.0,102.0,316.0
274.0,19.0,40.0,161.0,758.0,-212.0,977.0,106.0,319.0
275.0,22.0,39.0,183.0,766.0,-207.0,975.0,107.0,316.0
275.0,21.0,37.0,198.0,775.0,-208.0,980.0,113.0,315.0
275.0,23.0,39.0,204.0,778.0,-206.0,971.0,116.0,314.0
276.0,25.0,35.0,202.0,780.0,-199.0,981.0,118.0,320.0
275.0,25.0,40.0,193.0,777.0,-194.0,971.0,120.0,315.0
275.0,26.0,39.0,176.0,775.0,-187.0,973.0,115.0,318.0
274.0,25.0,42.0,154.0,772.0,-183.0,972.0,111.0,322.0
276.0,26.0,45.0,129.0,771.0,-176.0,968.0,116.0,338.0
270.0,26.0,44.0,106.0,773.0,-171.0,962.0,117.0,343.0
268.0,27.0,50.0,84.0,776.0,-165.0,960.0,116.0,345.0
266.0,26.0,45.0,71.0,783.0,-163.0,950.0,117.0,348.0
265.0,25.0,46.0,66.0,794.0,-161.0,934.0,119.0,355.0
261.0,24.0,48.0,65.0,803.0,-158.0,919.0,116.0,358.0
256.0,26.0,51.0,71.0,809.0,-163.0,901.0,111.0,356.0
252.0,27.0,53.0,74.0,813.0,-166.0,886.0,120.0,358.0
246.0,29.0,52.0,67.0,814.0,-167.0,879.0,122.0,368.0
246.0,29.0,53.0,58.0,808.0,-167.0,864.0,125.0,381.0
243.0,32.0,59.0,47.0,799.0,-168.0,856.0,131.0,393.0
240.0,31.0,60.0,34.0,781.0,-166.0,851.0,130.0,410.0
235.0,34.0,64.0,22.0,754.0,-164.0,847.0,130.0,422.0
240.0,36.0,66.0,11.0,721.0,-159.0,849.0,140.0,437.0
240.0,30.0,72.0,3.0,684.0,-155.0,851.0,140.0,439.0
242.0,36.0,70.0,1.0,647.0,-155.0,848.0,147.0,447.0
247.0,35.0,77.0,-3.0,619.0,-149.0,863.0,149.0,460.0
254.0,37.0,75.0,-5.0,593.0,-143.0,890.0,150.0,466.0
250.0,36.0,77.0,-11.0,567.0,-138.0,891.0,150.0,468.0
253.0,35.0,77.0,-21.0,542.0,-131.0,893.0,153.0,472.0
254.0,36.0,76.0,-32.0,515.0,-124.0,897.0,144.0,469.0
253.0,31.0,74.0,-45.0,494.0,-117.0,899.0,137.0,467.0
255.0,27.0,76.0,-58.0,478.0,-112.0,897.0,127.0,464.0
255.0,29.0,71.0,-70.0,462.0,-109.0,899.0,120.0,460.0
254.0,23.0,73.0,-77.0,444.0,-111.0,895.0,113.0,452.0
252.0,23.0,68.0,-80.0,427.0,-114.0,888.0,113.0,445.0
252.0,25.0,71.0,-75.0,411.0,-114.0,879.0,107.0,448.0
249.0,22.0,74.0,-65.0,394.0,-118.0,864.0,106.0,448.0
244.0,23.0,75.0,-57.0,382.0,-118.0,857.0,103.0,458.0
248.0,20.0,73.0,-53.0,373.0,-119.0,863.0,101.0,465.0
247.0,22.0,76.0,-53.0,365.0,-120.0,858.0,102.0,466.0
245.0,23.0,78.0,-58.0,356.0,-123.0,856.0,108.0,469.0
243.0,27.0,77.0,-64.0,343.0,-123.0,854.0,113.0,476.0
240.0,25.0,79.0,-72.0,322.0,-119.0,854.0,117.0,479.0
247.0,27.0,78.0,-84.0,298.0,-111.0,851.0,120.0,477.0
241.0,27.0,76.0,-95.0,273.0,-103.0,849.0,122.0,476.0
243.0,27.0,75.0,-111.0,255.0,-92.0,842.0,121.0,480.0
237.0,25.0,80.0,-123.0,243.0,-81.0,834.0,116.0,474.0
235.0,24.0,77.0,-128.0,237.0,-74.0,830.0,111.0,482.0
236.0,22.0,78.0,-129.0,236.0,-67.0,821.0,101.0,477.0
231.0,22.0,79.0,-121.0,234.0,-59.0,815.0,100.0,480.0
233.0,19.0,81.0,-110.0,230.0,-52.0,813.0,92.0,476.0
234.0,18.0,78.0,-93.0,218.0,-45.0,813.0,91.0,474.0
232.0,20.0,80.0,-78.0,202.0,-42.0,812.0,87.0,484.0
230.0,20.0,82.0,-63.0,186.0,-39.0,807.0,89.0,487.0
229.0,18.0,79.0,-49.0,174.0,-37.0,802.0,91.0,492.0
226.0,18.0,78.0,-40.0,164.0,-34.0,796.0,93.0,498.0
231.0,19.0,83.0,-33.0,153.0,-34.0,798.0,87.0,501.0
227.0,21.0,86.0,-25.0,140.0,-31.0,789.0,96.0,505.0
228.0,18.0,89.0,-19.0,122.0,-28.0,793.0,101.0,517.0
224.0,23.0,90.0,-12.0,100.0,-24.0,782.0,107.0,518.0
225.0,26.0,86.0,-9.0,76.0,-17.0,786.0,110.0,518.0
228.0,29.0,93.0,-11.0,44.0,-7.0,796.0,116.0,527.0
226.0,31.0,91.0,-18.0,8.0,9.0,792.0,124.0,529.0
231.0,32.0,93.0,-30.0,-34.0,27.0,802.0,130.0,532.0
229.0,33.0,89.0,-42.0,-72.0,42.0,801.0,132.0,523.0
230.0,33.0,89.0,-59.0,-105.0,61.0,805.0,131.0,513.0
231.0,35.0,91.0,-74.0,-125.0,76.0,809.0,129.0,512.0
232.0,27.0,86.0,-90.0,-132.0,89.0,811.0,121.0,525.0
237.0,26.0,84.0,-102.0,-129.0,97.0,810.0,113.0,519.0
233.0,21.0,87.0,-108.0,-121.0,97.0,817.0,104.0,522.0
236.0,19.0,91.0,-109.0,-110.0,94.0,822.0,94.0,527.0
234.0,19.0,96.0,-100.0,-98.0,89.0,817.0,81.0,538.0
247.0,25.0,100.0,-86.0,-90.0,80.0,821.0,88.0,544.0
235.0,20.0,98.0,-76.0,-89.0,68.0,823.0,94.0,556.0
234.0,23.0,98.0,-64.0,-93.0,59.0,824.0,105.0,560.0
240.0,28.0,103.0,-52.0,-93.0,52.0,832.0,120.0,560.0
236.0,31.0,97.0,-38.0,-94.0,47.0,824.0,137.0,559.0
238.0,36.0,100.0,-18.0,-93.0,41.0,825.0,151.0,551.0
237.0,38.0,92.0,9.0,-92.0,35.0,829.0,166.0,537.0
240.0,45.0,92.0,28.0,-95.0,31.0,822.0,182.0,521.0
237.0,48.0,80.0,36.0,-101.0,30.0,822.0,195.0,502.0
234.0,53.0,79.0,36.0,-114.0,25.0,817.0,210.0,478.0
230.0,55.0,73.0,29.0,-126.0,19.0,797.0,220.0,456.0
214.0,52.0,79.0,14.0,-141.0,8.0,785.0,242.0,437.0
219.0,65.0,65.0,-7.0,-155.0,0.0,778.0,258.0,426.0
217.0,71.0,63.0,-37.0,-172.0,-7.0,762.0,277.0,415.0
217.0,75.0,60.0,-76.0,-188.0,-11.0,755.0,293.0,411.0
220.0,77.0,59.0,-122.0,-202.0,-13.0,757.0,309.0,405.0
221.0,76.0,59.0,-173.0,-214.0,-12.0,773.0,310.0,404.0
224.0,75.0,63.0,-225.0,-223.0,-8.0,781.0,305.0,409.0
227.0,74.0,63.0,-280.0,-230.0,-3.0,789.0,298.0,414.0
236.0,70.0,68.0,-337.0,-238.0,2.0,811.0,289.0,432.0
242.0,67.0,74.0,-402.0,-249.0,7.0,839.0,274.0,451.0
246.0,67.0,79.0,-463.0,-261.0,15.0,861.0,258.0,473.0
256.0,67.0,85.0,-517.0,-274.0,27.0,890.0,242.0,489.0
257.0,57.0,87.0,-559.0,-287.0,41.0,913.0,224.0,502.0
263.0,45.0,89.0,-583.0,-299.0,56.0,933.0,198.0,512.0
268.0,41.0,85.0,-594.0,-310.0,67.0,954.0,166.0,513.0
270.0,32.0,85.0,-596.0,-316.0,75.0,964.0,142.0,506.0
274.0,29.0,79.0,-591.0,-318.0,80.0,965.0,125.0,491.0
276.0,22.0,85.0,-590.0,-317.0,83.0,973.0,102.0,487.0
276.0,19.0,80.0,-592.0,-313.0,79.0,973.0,95.0,477.0
272.0,20.0,83.0,-597.0,-303.0,69.0,975.0,94.0,481.0
274.0,21.0,82.0,-607.0,-289.0,64.0,964.0,92.0,490.0
270.0,25.0,82.0,-629.0,-271.0,59.0,956.0,101.0,496.0
267.0,27.0,84.0,-676.0,-250.0,56.0,955.0,104.0,491.0
265.0,26.0,79.0,-745.0,-243.0,59.0,951.0,103.0,486.0
266.0,23.0,80.0,-824.0,-245.0,70.0,953.0,94.0,472.0
265.0,18.0,69.0,-898.0,-261.0,85.0,954.0,72.0,451.0
267.0,7.0,65.0,-958.0,-288.0,101.0,956.0,53.0,430.0
267.0,1.0,63.0,-993.0,-320.0,119.0,952.0,16.0,412.0
266.0,-12.0,59.0,-985.0,-348.0,139.0,936.0,-11.0,396.0
264.0,-19.0,57.0,-932.0,-359.0,157.0,923.0,-35.0,381.0
259.0,-25.0,54.0,-834.0,-351.0,167.0,917.0,-51.0,380.0
261.0,-21.0,56.0,-712.0,-331.0,170.0,925.0,-45.0,376.0
261.0,-21.0,52.0,-574.0,-297.0,173.0,924.0,-40.0,370.0
268.0,-12.0,49.0,-446.0,-258.0,170.0,940.0,-19.0,365.0
270.0,-2.0,49.0,-345.0,-216.0,160.0,952.0,5.0,347.0
283.0,8.0,43.0,-268.0,-172.0,136.0,995.0,57.0,328.0
290.0,19.0,35.0,-221.0,-126.0,127.0,1030.0,87.0,304.0
293.0,22.0,28.0,-206.0,-68.0,109.0,1042.0,93.0,278.0
307.0,19.0,22.0,-219.0,-5.0,86.0,1071.0,109.0,250.0
301.0,18.0,20.0,-253.0,75.0,75.0,1064.0,88.0,229.0
309.0,26.0,22.0,-308.0,154.0,45.0,1091.0,109.0,233.0
309.0,19.0,18.0,-368.0,231.0,44.0,1091.0,94.0,233.0
304.0,19.0,24.0,-435.0,304.0,29.0,1070.0,76.0,234.0
302.0,10.0,23.0,-501.0,360.0,10.0,1076.0,67.0,249.0
296.0,8.0,27.0,-555.0,407.0,14.0,1060.0,56.0,261.0
289.0,10.0,36.0,-596.0,444.0,2.0,1031.0,48.0,291.0
290.0,8.0,42.0,-622.0,471.0,-18.0,1030.0,62.0,320.0
287.0,8.0,42.0,-633.0,490.0,-9.0,1020.0,46.0,323.0
276.0,1.0,46.0,-636.0,511.0,-16.0,986.0,36.0,348.0
276.0,7.0,55.0,-632.0,527.0,-42.0,980.0,47.0,373.0
271.0,5.0,57.0,-623.0,534.0,-45.0,968.0,34.0,389.0
266.0,2.0,60.0,-614.0,545.0,-59.0,941.0,23.0,401.0
265.0,2.0,64.0,-605.0,557.0,-82.0,934.0,25.0,416.0
261.0,-2.0,62.0,-592.0,572.0,-91.0,920.0,9.0,418.0
259.0,-8.0,67.0,-563.0,593.0,-104.0,914.0,-5.0,426.0
253.0,-11.0,65.0,-516.0,611.0,-120.0,897.0,-11.0,430.0
253.0,-15.0,64.0,-448.0,626.0,-133.0,886.0,-23.0,417.0
251.0,-14.0,64.0,-365.0,639.0,-144.0,889.0,-22.0,413.0
247.0,-13.0,61.0,-285.0,648.0,-153.0,879.0,-21.0,404.0
250.0,-11.0,58.0,-209.0,653.0,-157.0,872.0,-14.0,396.0
249.0,-10.0,59.0,-149.0,653.0,-161.0,877.0,-6.0,396.0
252.0,-4.0,58.0,-110.0,653.0,-164.0,876.0,1.0,393.0
249.0,1.0,56.0,-91.0,649.0,-166.0,887.0,18.0,396.0
256.0,4.0,64.0,-94.0,644.0,-166.0,898.0,36.0,408.0
257.0,6.0,64.0,-114.0,640.0,-172.0,914.0,44.0,417.0
253.0,14.0,66.0,-147.0,635.0,-185.0,892.0,59.0,433.0
256.0,15.0,73.0,-186.0,636.0,-188.0,911.0,70.0,453.0
258.0,16.0,76.0,-230.0,634.0,-196.0,917.0,76.0,465.0
259.0,17.0,80.0,-272.0,627.0,-209.0,929.0,73.0,488.0
256.0,15.0,86.0,-306.0,613.0,-231.0,903.0,79.0,495.0
256.0,14.0,86.0,-329.0,602.0,-236.0,910.0,74.0,511.0
252.0,12.0,90.0,-341.0,590.0,-242.0,901.0,65.0,521.0
253.0,12.0,92.0,-341.0,580.0,-251.0,895.0,54.0,533.0
253.0,7.0,98.0,-335.0,572.0,-260.0,889.0,53.0,542.0
250.0,5.0,100.0,-326.0,566.0,-269.0,873.0,46.0,551.0
255.0,6.0,99.0,-319.0,560.0,-274.0,893.0,41.0,559.0
243.0,6.0,98.0,-314.0,556.0,-291.0,843.0,40.0,560.0
245.0,7.0,99.0,-310.0,563.0,-290.0,854.0,36.0,567.0
244.0,2.0,102.0,-313.0,564.0,-283.0,864.0,25.0,574.0
249.0,0.0,104.0,-317.0,561.0,-278.0,867.0,14.0,574.0
237.0,0.0,104.0,-321.0,555.0,-287.0,832.0,14.0,590.0
245.0,0.0,106.0,-320.0,561.0,-284.0,853.0,5.0,588.0
241.0,-4.0,110.0,-321.0,559.0,-279.0,863.0,-2.0,599.0
240.0,-7.0,107.0,-325.0,563.0,-278.0,848.0,-10.0,596.0
246.0,-6.0,110.0,-324.0,572.0,-282.0,855.0,-9.0,604.0
242.0,-13.0,111.0,-324.0,572.0,-284.0,838.0,-22.0,609.0
242.0,-10.0,115.0,-323.0,579.0,-283.0,851.0,-23.0,610.0
242.0,-12.0,113.0,-317.0,582.0,-281.0,840.0,-25.0,612.0
239.0,-12.0,110.0,-303.0,588.0,-287.0,843.0,-25.0,608.0
237.0,-14.0,110.0,-287.0,586.0,-286.0,836.0,-34.0,610.0
233.0,-11.0,113.0,-267.0,588.0,-286.0,817.0,-32.0,609.0
229.0,-11.0,111.0,-239.0,588.0,-291.0,801.0,-22.0,605.0
230.0,-13.0,111.0,-214.0,580.0,-293.0,797.0,-23.0,601.0
218.0,-4.0,107.0,-199.0,564.0,-287.0,767.0,-14.0,593.0
224.0,-9.0,107.0,-179.0,548.0,-293.0,790.0,-2.0,594.0
220.0,-8.0,104.0,-169.0,523.0,-290.0,767.0,-6.0,592.0
217.0,-2.0,105.0,-163.0,504.0,-288.0,747.0,0.0,588.0
211.0,1.0,106.0,-151.0,490.0,-297.0,747.0,10.0,593.0
218.0,0.0,107.0,-145.0,470.0,-278.0,760.0,11.0,594.0
215.0,-4.0,108.0,-138.0,453.0,-278.0,747.0,6.0,596.0
217.0,4.0,107.0,-120.0,440.0,-292.0,768.0,16.0,596.0
220.0,1.0,106.0,-113.0,418.0,-266.0,762.0,19.0,596.0
210.0,1.0,108.0,-105.0,404.0,-258.0,731.0,19.0,602.0
217.0,3.0,109.0,-89.0,398.0,-267.0,760.0,31.0,606.0
219.0,3.0,108.0,-93.0,380.0,-245.0,755.0,29.0,601.0
214.0,3.0,111.0,-102.0,372.0,-234.0,739.0,32.0,601.0
215.0,7.0,112.0,-98.0,372.0,-245.0,743.0,46.0,602.0
218.0,3.0,110.0,-98.0,371.0,-221.0,754.0,31.0,596.0
224.0,1.0,110.0,-111.0,371.0,-204.0,781.0,25.0,596.0
206.0,2.0,110.0,-116.0,363.0,-224.0,706.0,31.0,600.0
216.0,2.0,110.0,-106.0,366.0,-229.0,747.0,27.0,590.0
216.0,1.0,109.0,-112.0,362.0,-206.0,747.0,21.0,589.0
224.0,0.0,108.0,-107.0,357.0,-205.0,797.0,9.0,586.0
207.0,1.0,109.0,-95.0,339.0,-227.0,721.0,27.0,599.0
206.0,4.0,111.0,-56.0,337.0,-248.0,721.0,37.0,588.0
216.0,8.0,108.0,-28.0,333.0,-225.0,754.0,35.0,595.0
215.0,8.0,110.0,-13.0,325.0,-212.0,745.0,49.0,598.0
216.0,3.0,113.0,4.0,318.0,-215.0,762.0,42.0,597.0
215.0,17.0,110.0,30.0,319.0,-267.0,743.0,74.0,607.0
226.0,16.0,113.0,35.0,315.0,-242.0,799.0,66.0,605.0
227.0,10.0,110.0,16.0,310.0,-218.0,785.0,71.0,611.0
231.0,21.0,116.0,-3.0,323.0,-235.0,811.0,85.0,612.0
236.0,23.0,118.0,-40.0,331.0,-230.0,818.0,89.0,616.0
239.0,24.0,113.0,-91.0,347.0,-220.0,820.0,97.0,621.0
237.0,23.0,118.0,-143.0,360.0,-197.0,830.0,94.0,632.0
239.0,27.0,115.0,-193.0,372.0,-192.0,847.0,102.0,651.0
241.0,28.0,123.0,-234.0,373.0,-181.0,858.0,108.0,652.0
244.0,25.0,126.0,-273.0,368.0,-148.0,862.0,103.0,657.0
247.0,21.0,127.0,-302.0,367.0,-127.0,853.0,100.0,651.0
248.0,28.0,122.0,-312.0,377.0,-151.0,870.0,114.0,655.0
248.0,21.0,128.0,-330.0,365.0,-118.0,886.0,111.0,652.0
253.0,25.0,120.0,-346.0,359.0,-87.0,885.0,111.0,635.0
251.0,27.0,115.0,-349.0,367.0,-100.0,874.0,114.0,621.0
250.0,24.0,112.0,-345.0,374.0,-108.0,873.0,108.0,613.0
250.0,18.0,110.0,-349.0,374.0,-76.0,877.0,96.0,603.0
249.0,21.0,109.0,-354.0,382.0,-52.0,866.0,98.0,597.0
242.0,14.0,105.0,-342.0,393.0,-50.0,842.0,75.0,579.0
243.0,11.0,106.0,-309.0,419.0,-82.0,855.0,75.0,573.0
244.0,11.0,106.0,-276.0,430.0,-67.0,849.0,69.0,581.0
242.0,8.0,104.0,-240.0,445.0,-44.0,849.0,65.0,573.0
243.0,10.0,103.0,-189.0,468.0,-44.0,850.0,60.0,572.0
247.0,13.0,96.0,-140.0,497.0,-47.0,854.0,58.0,569.0
242.0,10.0,105.0,-87.0,531.0,-62.0,825.0,61.0,576.0
245.0,11.0,110.0,-26.0,577.0,-84.0,845.0,60.0,588.0
242.0,10.0,113.0,23.0,609.0,-72.0,850.0,62.0,596.0
242.0,11.0,115.0,64.0,638.0,-61.0,854.0,64.0,599.0
244.0,13.0,113.0,105.0,671.0,-61.0,850.0,64.0,607.0
244.0,9.0,115.0,145.0,699.0,-63.0,855.0,57.0,622.0
242.0,13.0,116.0,186.0,730.0,-79.0,842.0,64.0,632.0
247.0,6.0,122.0,230.0,758.0,-82.0,865.0,41.0,644.0
248.0,3.0,121.0,265.0,770.0,-69.0,861.0,42.0,653.0
239.0,2.0,125.0,309.0,780.0,-69.0,857.0,42.0,656.0
234.0,3.0,123.0,356.0,791.0,-75.0,822.0,37.0,655.0
235.0,2.0,121.0,398.0,800.0,-85.0,824.0,26.0,655.0
232.0,2.0,125.0,434.0,807.0,-97.0,808.0,37.0,654.0
231.0,3.0,121.0,465.0,821.0,-106.0,798.0,47.0,645.0
225.0,11.0,123.0,491.0,837.0,-120.0,789.0,49.0,650.0
220.0,11.0,119.0,512.0,855.0,-134.0,770.0,58.0,647.0
217.0,13.0,120.0,531.0,873.0,-143.0,747.0,68.0,639.0
213.0,14.0,121.0,545.0,886.0,-148.0,735.0,76.0,640.0
203.0,19.0,121.0,554.0,893.0,-147.0,701.0,86.0,635.0
201.0,17.0,121.0,553.0,896.0,-147.0,691.0,84.0,643.0
200.0,19.0,121.0,548.0,892.0,-144.0,692.0,90.0,646.0
201.0,19.0,123.0,542.0,886.0,-143.0,693.0,89.0,655.0
203.0,17.0,125.0,541.0,875.0,-143.0,703.0,80.0,667.0
206.0,10.0,127.0,545.0,862.0,-142.0,710.0,73.0,669.0
206.0,13.0,128.0,554.0,842.0,-143.0,715.0,74.0,675.0
208.0,15.0,129.0,563.0,821.0,-143.0,715.0,69.0,679.0
207.0,14.0,132.0,570.0,798.0,-140.0,719.0,74.0,689.0
209.0,17.0,130.0,574.0,776.0,-141.0,717.0,80.0,696.0
207.0,17.0,129.0,573.0,757.0,-136.0,724.0,77.0,703.0
207.0,20.0,137.0,569.0,745.0,-134.0,718.0,91.0,708.0
207.0,19.0,143.0,567.0,743.0,-135.0,711.0,94.0,719.0
204.0,20.0,143.0,573.0,749.0,-139.0,702.0,98.0,727.0
202.0,21.0,143.0,593.0,767.0,-147.0,697.0,93.0,733.0
201.0,19.0,138.0,628.0,791.0,-163.0,682.0,96.0,732.0
194.0,23.0,141.0,673.0,817.0,-186.0,667.0,103.0,726.0
192.0,23.0,135.0,724.0,850.0,-215.0,657.0,110.0,721.0
191.0,26.0,137.0,774.0,888.0,-251.0,642.0,120.0,721.0
187.0,28.0,135.0,820.0,934.0,-289.0,618.0,127.0,708.0
183.0,34.0,129.0,860.0,987.0,-329.0,616.0,140.0,702.0
181.0,38.0,135.0,894.0,1054.0,-369.0,599.0,159.0,708.0
182.0,44.0,133.0,916.0,1134.0,-411.0,608.0,166.0,698.0
181.0,48.0,129.0,930.0,1227.0,-452.0,601.0,182.0,711.0
186.0,48.0,135.0,934.0,1327.0,-490.0,600.0,197.0,721.0
186.0,51.0,143.0,928.0,1429.0,-523.0,609.0,211.0,737.0
188.0,57.0,148.0,917.0,1528.0,-552.0,620.0,219.0,750.0
186.0,62.0,156.0,903.0,1623.0,-579.0,614.0,243.0,781.0
182.0,64.0,155.0,888.0,1711.0,-601.0,604.0,255.0,804.0
175.0,70.0,163.0,873.0,1788.0,-619.0,585.0,265.0,837.0
174.0,73.0,174.0,855.0,1853.0,-632.0,577.0,284.0,858.0
173.0,74.0,179.0,834.0,1907.0,-638.0,575.0,297.0,888.0
168.0,79.0,188.0,817.0,1951.0,-637.0,566.0,311.0,911.0
169.0,81.0,187.0,804.0,1986.0,-639.0,564.0,323.0,919.0
166.0,86.0,190.0,795.0,2009.0,-636.0,557.0,338.0,938.0
162.0,91.0,191.0,789.0,2017.0,-631.0,549.0,356.0,946.0
157.0,96.0,196.0,780.0,2007.0,-622.0,522.0,373.0,957.0
148.0,104.0,193.0,761.0,1976.0,-609.0,502.0,393.0,963.0
143.0,109.0,197.0,730.0,1925.0,-588.0,484.0,415.0,969.0
141.0,110.0,198.0,690.0,1864.0,-567.0,467.0,427.0,967.0
137.0,116.0,195.0,645.0,1804.0,-545.0,452.0,438.0,966.0
133.0,115.0,194.0,595.0,1754.0,-527.0,441.0,440.0,958.0
129.0,116.0,197.0,544.0,1715.0,-510.0,426.0,451.0,960.0
129.0,113.0,197.0,493.0,1686.0,-495.0,419.0,453.0,963.0
124.0,113.0,195.0,446.0,1664.0,-483.0,404.0,435.0,959.0
118.0,115.0,192.0,396.0,1650.0,-476.0,367.0,436.0,950.0
110.0,111.0,190.0,350.0,1643.0,-469.0,339.0,430.0,937.0
102.0,109.0,189.0,305.0,1643.0,-468.0,320.0,417.0,934.0
94.0,101.0,190.0,269.0,1644.0,-470.0,294.0,405.0,933.0
89.0,97.0,187.0,250.0,1643.0,-473.0,263.0,391.0,918.0
76.0,94.0,184.0,243.0,1638.0,-478.0,238.0,369.0,908.0
74.0,87.0,180.0,249.0,1629.0,-483.0,216.0,352.0,894.0
69.0,84.0,177.0,260.0,1612.0,-485.0,199.0,333.0,884.0
62.0,79.0,177.0,281.0,1590.0,-486.0,170.0,322.0,881.0
55.0,75.0,174.0,313.0,1560.0,-480.0,149.0,305.0,873.0
47.0,71.0,175.0,356.0,1523.0,-474.0,107.0,290.0,866.0
37.0,68.0,171.0,406.0,1482.0,-464.0,76.0,289.0,865.0
31.0,66.0,172.0,468.0,1439.0,-450.0,55.0,271.0,861.0
26.0,67.0,174.0,535.0,1396.0,-432.0,36.0,282.0,863.0
16.0,67.0,174.0,605.0,1354.0,-415.0,3.0,274.0,869.0
10.0,71.0,172.0,677.0,1318.0,-394.0,-26.0,280.0,866.0
8.0,68.0,174.0,745.0,1283.0,-372.0,-33.0,286.0,875.0
2.0,76.0,181.0,809.0,1255.0,-356.0,-62.0,307.0,883.0
0.0,80.0,183.0,866.0,1222.0,-334.0,-69.0,330.0,903.0
0.0,87.0,184.0,907.0,1177.0,-316.0,-77.0,339.0,905.0
0.0,89.0,184.0,932.0,1118.0,-305.0,-62.0,353.0,912.0
2.0,95.0,182.0,934.0,1051.0,-297.0,-50.0,372.0,903.0
7.0,104.0,176.0,918.0,976.0,-293.0,-34.0,395.0,889.0
10.0,111.0,173.0,880.0,899.0,-295.0,-27.0,418.0,873.0
11.0,114.0,170.0,825.0,823.0,-297.0,-20.0,441.0,853.0
13.0,124.0,164.0,760.0,748.0,-299.0,-15.0,467.0,829.0
13.0,126.0,155.0,682.0,675.0,-295.0,-11.0,483.0,798.0
15.0,131.0,151.0,592.0,600.0,-288.0,-11.0,501.0,773.0
18.0,132.0,141.0,492.0,530.0,-276.0,-2.0,517.0,737.0
18.0,134.0,134.0,387.0,459.0,-262.0,5.0,520.0,707.0
20.0,135.0,129.0,277.0,378.0,-242.0,13.0,526.0,689.0
22.0,133.0,123.0,170.0,310.0,-220.0,15.0,524.0,668.0
22.0,134.0,121.0,72.0,239.0,-192.0,16.0,517.0,652.0
28.0,129.0,112.0,-17.0,171.0,-160.0,24.0,506.0,631.0
25.0,129.0,113.0,-93.0,101.0,-130.0,42.0,501.0,620.0
34.0,125.0,108.0,-157.0,36.0,-102.0,60.0,488.0,611.0
37.0,124.0,107.0,-210.0,-26.0,-76.0,74.0,480.0,603.0
45.0,115.0,109.0,-255.0,-81.0,-50.0,89.0,464.0,599.0
44.0,116.0,108.0,-297.0,-126.0,-26.0,105.0,449.0,600.0
53.0,113.0,105.0,-333.0,-162.0,-5.0,125.0,436.0,592.0
57.0,107.0,108.0,-367.0,-185.0,12.0,147.0,427.0,602.0
61.0,107.0,106.0,-394.0,-200.0,26.0,160.0,419.0,610.0
65.0,105.0,112.0,-417.0,-203.0,37.0,174.0,414.0,620.0
66.0,103.0,116.0,-436.0,-195.0,47.0,179.0,406.0,636.0
71.0,101.0,119.0,-455.0,-182.0,56.0,187.0,402.0,655.0
66.0,101.0,125.0,-471.0,-164.0,65.0,184.0,399.0,673.0
67.0,100.0,131.0,-486.0,-144.0,78.0,188.0,395.0,691.0
72.0,97.0,134.0,-502.0,-123.0,92.0,187.0,391.0,716.0
68.0,98.0,146.0,-521.0,-102.0,103.0,192.0,379.0,736.0
69.0,95.0,147.0,-540.0,-79.0,109.0,192.0,373.0,771.0
72.0,95.0,155.0,-562.0,-53.0,118.0,198.0,367.0,794.0
73.0,91.0,161.0,-581.0,-25.0,123.0,201.0,357.0,826.0
77.0,90.0,169.0,-600.0,3.0,125.0,206.0,358.0,851.0
73.0,89.0,174.0,-615.0,36.0,126.0,220.0,353.0,870.0
76.0,89.0,182.0,-626.0,69.0,123.0,214.0,354.0,888.0
75.0,91.0,187.0,-632.0,103.0,117.0,224.0,350.0,923.0
78.0,89.0,192.0,-635.0,135.0,113.0,222.0,349.0,940.0
81.0,86.0,195.0,-634.0,165.0,108.0,235.0,347.0,962.0
78.0,92.0,200.0,-632.0,192.0,99.0,233.0,357.0,987.0
78.0,90.0,207.0,-629.0,217.0,91.0,220.0,365.0,1007.0
76.0,93.0,209.0,-625.0,236.0,84.0,214.0,365.0,1023.0
74.0,96.0,215.0,-618.0,252.0,79.0,215.0,372.0,1033.0
73.0,97.0,221.0,-617.0,266.0,75.0,214.0,369.0,1055.0
71.0,99.0,221.0,-622.0,274.0,68.0,205.0,379.0,1067.0
68.0,102.0,230.0,-639.0,276.0,63.0,185.0,390.0,1088.0
62.0,104.0,237.0,-670.0,275.0,62.0,175.0,395.0,1117.0
56.0,106.0,243.0,-714.0,268.0,60.0,151.0,402.0,1153.0
55.0,108.0,237.0,-766.0,256.0,57.0,132.0,408.0,1187.0
46.0,111.0,261.0,-823.0,231.0,54.0,111.0,406.0,1225.0
36.0,107.0,273.0,-885.0,195.0,55.0,85.0,398.0,1272.0
26.0,103.0,281.0,-936.0,159.0,60.0,49.0,385.0,1298.0
22.0,94.0,290.0,-981.0,131.0,67.0,13.0,369.0,1333.0
22.0,90.0,298.0,-1015.0,115.0,75.0,6.0,348.0,1360.0
21.0,82.0,305.0,-1032.0,111.0,82.0,8.0,329.0,1401.0
21.0,74.0,315.0,-1033.0,113.0,84.0,13.0,300.0,1426.0
26.0,65.0,318.0,-1011.0,117.0,87.0,29.0,272.0,1449.0
29.0,59.0,320.0,-961.0,120.0,92.0,52.0,237.0,1457.0
36.0,48.0,319.0,-880.0,109.0,97.0,62.0,199.0,1441.0
33.0,37.0,316.0,-772.0,89.0,101.0,68.0,171.0,1419.0
37.0,35.0,298.0,-642.0,60.0,107.0,78.0,157.0,1384.0
43.0,33.0,291.0,-498.0,24.0,112.0,86.0,140.0,1344.0
46.0,35.0,271.0,-349.0,-11.0,115.0,102.0,134.0,1289.0
49.0,34.0,257.0,-200.0,-46.0,119.0,110.0,151.0,1220.0
51.0,39.0,233.0,-57.0,-75.0,125.0,120.0,166.0,1142.0
53.0,48.0,216.0,72.0,-102.0,133.0,134.0,188.0,1035.0
57.0,55.0,191.0,175.0,-127.0,140.0,140.0,216.0,949.0
61.0,63.0,175.0,245.0,-151.0,151.0,153.0,252.0,869.0
60.0,70.0,154.0,276.0,-172.0,164.0,159.0,280.0,797.0
65.0,80.0,138.0,265.0,-191.0,182.0,178.0,305.0,740.0
68.0,89.0,132.0,214.0,-204.0,200.0,187.0,334.0,687.0
75.0,95.0,119.0,126.0,-213.0,217.0,208.0,356.0,658.0
82.0,98.0,116.0,8.0,-216.0,230.0,234.0,373.0,633.0
84.0,105.0,117.0,-138.0,-208.0,237.0,263.0,389.0,632.0
96.0,104.0,116.0,-296.0,-189.0,237.0,282.0,394.0,644.0
98.0,107.0,127.0,-462.0,-158.0,229.0,293.0,400.0,674.0
102.0,102.0,135.0,-627.0,-116.0,219.0,303.0,385.0,710.0
101.0,98.0,148.0,-777.0,-70.0,204.0,311.0,368.0,764.0
105.0,89.0,161.0,-909.0,-27.0,190.0,326.0,344.0,817.0
108.0,85.0,182.0,-1008.0,6.0,173.0,331.0,317.0,888.0
106.0,74.0,200.0,-1072.0,26.0,157.0,333.0,296.0,965.0
102.0,67.0,216.0,-1092.0,33.0,138.0,324.0,272.0,1038.0
98.0,62.0,234.0,-1070.0,33.0,120.0,302.0,251.0,1107.0
90.0,59.0,250.0,-1014.0,22.0,101.0,292.0,233.0,1160.0
86.0,54.0,253.0,-923.0,5.0,85.0,275.0,219.0,1208.0
82.0,49.0,265.0,-811.0,-16.0,73.0,251.0,207.0,1230.0
84.0,45.0,264.0,-686.0,-46.0,58.0,252.0,200.0,1241.0
81.0,46.0,267.0,-560.0,-80.0,48.0,250.0,194.0,1244.0
79.0,44.0,265.0,-439.0,-113.0,38.0,245.0,189.0,1230.0
80.0,45.0,253.0,-338.0,-143.0,27.0,237.0,184.0,1205.0
75.0,46.0,248.0,-258.0,-158.0,16.0,216.0,180.0,1165.0
75.0,46.0,238.0,-205.0,-160.0,6.0,208.0,174.0,1124.0
72.0,44.0,221.0,-174.0,-150.0,-2.0,200.0,168.0,1073.0
72.0,44.0,208.0,-168.0,-135.0,-6.0,208.0,162.0,1023.0
68.0,40.0,201.0,-176.0,-112.0,-6.0,192.0,154.0,984.0
65.0,37.0,190.0,-194.0,-88.0,-5.0,183.0,152.0,941.0
66.0,38.0,182.0,-214.0,-71.0,-4.0,180.0,144.0,896.0
65.0,40.0,173.0,-242.0,-54.0,0.0,175.0,153.0,872.0
65.0,42.0,173.0,-270.0,-30.0,11.0,177.0,164.0,847.0
65.0,50.0,166.0,-304.0,1.0,21.0,174.0,178.0,836.0
63.0,51.0,168.0,-340.0,28.0,23.0,168.0,191.0,831.0
59.0,59.0,160.0,-379.0,46.0,27.0,164.0,211.0,823.0
65.0,54.0,162.0,-405.0,57.0,39.0,170.0,206.0,815.0
63.0,48.0,163.0,-413.0,68.0,47.0,174.0,209.0,817.0
65.0,50.0,163.0,-403.0,76.0,53.0,173.0,197.0,819.0
67.0,45.0,163.0,-382.0,83.0,53.0,177.0,188.0,822.0
68.0,45.0,169.0,-347.0,96.0,53.0,183.0,178.0,838.0
67.0,42.0,177.0,-304.0,114.0,45.0,181.0,173.0,861.0
65.0,45.0,180.0,-258.0,133.0,28.0,172.0,175.0,886.0
63.0,46.0,186.0,-218.0,141.0,12.0,170.0,179.0,913.0
62.0,47.0,191.0,-185.0,147.0,-9.0,159.0,188.0,931.0
62.0,52.0,192.0,-165.0,148.0,-27.0,158.0,208.0,947.0
59.0,58.0,198.0,-158.0,147.0,-41.0,157.0,216.0,966.0
61.0,61.0,201.0,-170.0,139.0,-45.0,167.0,230.0,984.0
62.0,59.0,205.0,-190.0,129.0,-45.0,161.0,233.0,998.0
61.0,58.0,209.0,-212.0,116.0,-44.0,162.0,230.0,1015.0
58.0,56.0,209.0,-225.0,97.0,-38.0,153.0,221.0,1018.0
53.0,53.0,212.0,-225.0,71.0,-25.0,147.0,205.0,1020.0
56.0,48.0,210.0,-210.0,40.0,-8.0,138.0,192.0,1022.0
51.0,45.0,212.0,-183.0,11.0,5.0,128.0,180.0,1014.0
52.0,46.0,210.0,-153.0,-14.0,17.0,116.0,183.0,1009.0
48.0,45.0,206.0,-125.0,-33.0,26.0,103.0,186.0,1004.0
41.0,53.0,204.0,-112.0,-51.0,32.0,92.0,202.0,989.0
43.0,57.0,201.0,-109.0,-67.0,38.0,87.0,211.0,981.0
45.0,61.0,196.0,-119.0,-79.0,42.0,96.0,218.0,974.0
49.0,62.0,203.0,-139.0,-86.0,44.0,108.0,225.0,972.0
56.0,60.0,198.0,-162.0,-85.0,47.0,132.0,234.0,972.0
63.0,65.0,201.0,-186.0,-76.0,48.0,150.0,240.0,983.0
63.0,63.0,203.0,-211.0,-61.0,47.0,172.0,247.0,985.0
68.0,64.0,202.0,-230.0,-44.0,47.0,186.0,241.0,984.0
69.0,64.0,203.0,-243.0,-25.0,51.0,198.0,238.0,985.0
72.0,57.0,200.0,-250.0,-10.0,57.0,211.0,227.0,972.0
80.0,54.0,199.0,-249.0,6.0,58.0,217.0,216.0,967.0
71.0,57.0,197.0,-246.0,23.0,57.0,211.0,212.0,965.0
73.0,52.0,195.0,-239.0,32.0,53.0,205.0,205.0,968.0
71.0,52.0,196.0,-233.0,31.0,52.0,203.0,213.0,968.0
69.0,55.0,196.0,-228.0,22.0,48.0,189.0,206.0,970.0
65.0,53.0,195.0,-228.0,10.0,43.0,191.0,201.0,960.0
64.0,55.0,194.0,-230.0,-3.0,38.0,176.0,199.0,960.0
64.0,50.0,196.0,-235.0,-12.0,30.0,169.0,193.0,952.0
64.0,49.0,198.0,-244.0,-20.0,21.0,157.0,187.0,962.0
59.0,46.0,199.0,-251.0,-26.0,14.0,149.0,185.0,971.0
54.0,45.0,201.0,-258.0,-34.0,8.0,134.0,175.0,983.0
51.0,47.0,202.0,-264.0,-41.0,5.0,127.0,168.0,995.0
54.0,42.0,207.0,-269.0,-48.0,5.0,134.0,167.0,1001.0
57.0,43.0,212.0,-270.0,-53.0,7.0,144.0,158.0,1014.0
60.0,40.0,209.0,-274.0,-54.0,8.0,149.0,152.0,1017.0
60.0,36.0,213.0,-271.0,-52.0,11.0,166.0,146.0,1019.0
65.0,37.0,211.0,-262.0,-46.0,12.0,183.0,140.0,1021.0
70.0,32.0,209.0,-248.0,-34.0,13.0,194.0,137.0,1013.0
70.0,34.0,205.0,-232.0,-19.0,15.0,210.0,134.0,1013.0
75.0,31.0,209.0,-214.0,-7.0,15.0,214.0,134.0,1006.0
78.0,32.0,207.0,-198.0,-3.0,16.0,225.0,129.0,995.0
76.0,33.0,207.0,-184.0,-4.0,18.0,223.0,126.0,980.0
79.0,30.0,204.0,-174.0,-7.0,21.0,237.0,125.0,979.0
82.0,29.0,200.0,-172.0,-10.0,23.0,243.0,119.0,977.0
81.0,33.0,201.0,-171.0,-4.0,25.0,246.0,119.0,980.0
81.0,31.0,201.0,-176.0,5.0,27.0,247.0,113.0,970.0
78.0,27.0,200.0,-182.0,15.0,30.0,228.0,116.0,976.0
77.0,32.0,197.0,-192.0,29.0,32.0,215.0,115.0,981.0
75.0,33.0,200.0,-209.0,39.0,35.0,209.0,122.0,976.0
73.0,34.0,199.0,-232.0,46.0,38.0,208.0,124.0,981.0
74.0,31.0,202.0,-255.0,52.0,44.0,208.0,126.0,979.0
70.0,35.0,201.0,-276.0,54.0,51.0,213.0,129.0,983.0
74.0,33.0,196.0,-299.0,57.0,59.0,212.0,128.0,973.0
73.0,28.0,200.0,-318.0,61.0,65.0,210.0,119.0,979.0
71.0,27.0,199.0,-330.0,66.0,71.0,205.0,112.0,976.0
72.0,26.0,204.0,-337.0,72.0,81.0,204.0,100.0,972.0
69.0,19.0,203.0,-339.0,81.0,88.0,196.0,68.0,985.0
67.0,14.0,202.0,-331.0,84.0,92.0,183.0,57.0,995.0
65.0,5.0,208.0,-316.0,87.0,99.0,172.0,42.0,999.0
60.0,2.0,214.0,-292.0,83.0,104.0,169.0,16.0,1014.0
65.0,0.0,211.0,-264.0,75.0,107.0,176.0,1.0,1017.0
63.0,-6.0,215.0,-232.0,67.0,109.0,179.0,-15.0,1030.0
63.0,-10.0,217.0,-197.0,61.0,110.0,176.0,-29.0,1029.0
66.0,-16.0,213.0,-164.0,55.0,108.0,189.0,-39.0,1034.0
67.0,-16.0,213.0,-134.0,48.0,104.0,189.0,-55.0,1029.0
66.0,-18.0,214.0,-108.0,42.0,97.0,188.0,-64.0,1022.0
65.0,-21.0,212.0,-83.0,37.0,89.0,194.0,-67.0,1020.0
68.0,-19.0,210.0,-61.0,29.0,80.0,191.0,-66.0,1012.0
67.0,-21.0,208.0,-43.0,18.0,70.0,190.0,-67.0,1011.0
68.0,-17.0,210.0,-27.0,8.0,57.0,187.0,-58.0,1006.0
65.0,-13.0,205.0,-18.0,-3.0,47.0,175.0,-47.0,1003.0
61.0,-11.0,205.0,-11.0,-19.0,37.0,159.0,-30.0,1000.0
59.0,-3.0,205.0,-8.0,-41.0,31.0,146.0,-10.0,994.0
56.0,1.0,204.0,-11.0,-66.0,26.0,136.0,12.0,990.0
53.0,9.0,203.0,-23.0,-92.0,27.0,131.0,34.0,982.0
50.0,18.0,203.0,-43.0,-114.0,28.0,129.0,60.0,991.0
52.0,22.0,206.0,-65.0,-132.0,35.0,128.0,74.0,991.0
64.0,19.0,207.0,-89.0,-143.0,38.0,127.0,102.0,1009.0
55.0,31.0,212.0,-114.0,-151.0,45.0,125.0,120.0,1012.0
51.0,38.0,214.0,-140.0,-154.0,53.0,120.0,138.0,1015.0
53.0,36.0,212.0,-171.0,-151.0,59.0,121.0,150.0,1027.0
54.0,44.0,213.0,-208.0,-142.0,64.0,126.0,163.0,1027.0
57.0,47.0,215.0,-247.0,-131.0,66.0,141.0,169.0,1032.0
57.0,48.0,216.0,-286.0,-118.0,69.0,158.0,170.0,1028.0
68.0,46.0,213.0,-325.0,-103.0,68.0,175.0,165.0,1030.0
72.0,40.0,213.0,-357.0,-92.0,64.0,200.0,160.0,1024.0
76.0,38.0,211.0,-378.0,-82.0,56.0,223.0,149.0,1025.0
81.0,33.0,212.0,-388.0,-73.0,45.0,230.0,140.0,1025.0
80.0,30.0,214.0,-382.0,-59.0,32.0,245.0,130.0,1012.0
84.0,26.0,206.0,-366.0,-45.0,17.0,246.0,117.0,1005.0
80.0,26.0,204.0,-341.0,-36.0,4.0,241.0,105.0,1000.0
82.0,21.0,204.0,-309.0,-29.0,-8.0,239.0,99.0,989.0
79.0,21.0,201.0,-277.0,-31.0,-18.0,243.0,87.0,983.0
83.0,15.0,196.0,-239.0,-38.0,-27.0,249.0,77.0,973.0
86.0,15.0,196.0,-194.0,-50.0,-38.0,255.0,70.0,972.0
85.0,12.0,199.0,-149.0,-62.0,-49.0,254.0,68.0,960.0
84.0,15.0,200.0,-102.0,-64.0,-59.0,260.0,73.0,960.0
83.0,21.0,197.0,-64.0,-57.0,-73.0,248.0,82.0,958.0
85.0,23.0,196.0,-32.0,-41.0,-84.0,248.0,94.0,966.0
82.0,22.0,200.0,-15.0,-21.0,-94.0,240.0,106.0,975.0
82.0,28.0,203.0,-8.0,-2.0,-104.0,239.0,109.0,985.0
82.0,32.0,205.0,-5.0,8.0,-114.0,236.0,120.0,1001.0
81.0,33.0,208.0,-6.0,14.0,-126.0,240.0,126.0,1003.0
80.0,37.0,210.0,-16.0,14.0,-133.0,241.0,142.0,1010.0
79.0,41.0,211.0,-35.0,16.0,-139.0,232.0,149.0,1012.0
77.0,44.0,212.0,-64.0,17.0,-144.0,227.0,161.0,1023.0
77.0,44.0,213.0,-104.0,21.0,-145.0,206.0,163.0,1032.0
71.0,48.0,214.0,-153.0,28.0,-143.0,210.0,177.0,1037.0
69.0,48.0,217.0,-210.0,37.0,-139.0,191.0,180.0,1041.0
70.0,47.0,220.0,-275.0,48.0,-135.0,187.0,175.0,1038.0
66.0,47.0,215.0,-343.0,63.0,-128.0,180.0,170.0,1040.0
63.0,45.0,216.0,-415.0,83.0,-122.0,177.0,166.0,1041.0
61.0,42.0,218.0,-479.0,107.0,-115.0,173.0,155.0,1044.0
63.0,36.0,220.0,-528.0,130.0,-107.0,154.0,144.0,1049.0
58.0,33.0,221.0,-558.0,151.0,-97.0,149.0,136.0,1047.0
56.0,29.0,219.0,-567.0,167.0,-86.0,142.0,119.0,1051.0
54.0,26.0,218.0,-558.0,177.0,-71.0,130.0,117.0,1041.0
49.0,21.0,211.0,-537.0,179.0,-59.0,113.0,108.0,1031.0
47.0,21.0,212.0,-502.0,172.0,-43.0,105.0,92.0,1016.0
45.0,19.0,199.0,-464.0,158.0,-25.0,101.0,86.0,993.0
43.0,15.0,194.0,-422.0,136.0,-4.0,107.0,70.0,969.0
44.0,9.0,194.0,-376.0,108.0,12.0,101.0,61.0,943.0
48.0,7.0,188.0,-333.0,79.0,28.0,104.0,46.0,922.0
50.0,1.0,187.0,-287.0,53.0,39.0,111.0,34.0,918.0
48.0,0.0,181.0,-245.0,29.0,44.0,112.0,16.0,905.0
52.0,-2.0,184.0,-203.0,11.0,43.0,121.0,-11.0,896.0
52.0,-11.0,182.0,-163.0,0.0,39.0,130.0,-27.0,907.0
55.0,-15.0,185.0,-124.0,-11.0,35.0,133.0,-38.0,908.0
59.0,-18.0,190.0,-85.0,-20.0,27.0,144.0,-59.0,907.0
61.0,-24.0,182.0,-46.0,-26.0,15.0,155.0,-64.0,912.0
64.0,-24.0,189.0,-10.0,-32.0,0.0,166.0,-71.0,919.0
64.0,-26.0,190.0,27.0,-32.0,-15.0,167.0,-71.0,925.0
62.0,-23.0,189.0,66.0,-32.0,-28.0,169.0,-68.0,925.0
65.0,-24.0,190.0,105.0,-31.0,-44.0,180.0,-64.0,929.0
66.0,-16.0,193.0,138.0,-31.0,-59.0,188.0,-50.0,936.0
69.0,-12.0,190.0,170.0,-31.0,-74.0,187.0,-31.0,933.0
71.0,-7.0,194.0,202.0,-30.0,-88.0,202.0,-16.0,934.0
71.0,0.0,190.0,231.0,-27.0,-101.0,207.0,-2.0,932.0
73.0,1.0,191.0,258.0,-20.0,-113.0,218.0,18.0,935.0
80.0,5.0,193.0,274.0,-13.0,-125.0,228.0,24.0,938.0
79.0,10.0,195.0,283.0,-2.0,-134.0,235.0,35.0,939.0
81.0,9.0,194.0,285.0,11.0,-141.0,239.0,52.0,952.0
82.0,13.0,196.0,284.0,26.0,-143.0,247.0,60.0,963.0
80.0,17.0,198.0,279.0,43.0,-144.0,240.0,65.0,968.0
79.0,17.0,204.0,266.0,55.0,-141.0,237.0,68.0,978.0
75.0,19.0,206.0,255.0,68.0,-134.0,236.0,76.0,985.0
76.0,19.0,205.0,243.0,77.0,-127.0,225.0,76.0,996.0
75.0,21.0,205.0,229.0,86.0,-119.0,225.0,81.0,1003.0
78.0,18.0,210.0,216.0,92.0,-110.0,222.0,80.0,1014.0
77.0,20.0,214.0,201.0,96.0,-100.0,225.0,83.0,1017.0
73.0,22.0,209.0,184.0,100.0,-93.0,221.0,81.0,1021.0
74.0,21.0,214.0,165.0,104.0,-87.0,217.0,82.0,1027.0
73.0,21.0,216.0,144.0,104.0,-79.0,211.0,77.0,1029.0
70.0,22.0,214.0,124.0,105.0,-71.0,218.0,79.0,1033.0
73.0,19.0,214.0,106.0,103.0,-67.0,219.0,79.0,1030.0
69.0,18.0,214.0,91.0,100.0,-64.0,206.0,79.0,1029.0
68.0,18.0,210.0,75.0,93.0,-60.0,199.0,76.0,1032.0
69.0,15.0,211.0,59.0,83.0,-56.0,194.0,68.0,1023.0
67.0,17.0,208.0,44.0,71.0,-56.0,192.0,71.0,1025.0
65.0,17.0,211.0,31.0,61.0,-55.0,187.0,67.0,1025.0
62.0,18.0,208.0,18.0,54.0,-55.0,178.0,63.0,1018.0
65.0,17.0,210.0,6.0,50.0,-54.0,175.0,62.0,1018.0
64.0,17.0,211.0,-3.0,49.0,-53.0,171.0,63.0,1012.0
63.0,13.0,209.0,-9.0,49.0,-53.0,165.0,70.0,1018.0
61.0,17.0,209.0,-11.0,51.0,-52.0,162.0,73.0,1017.0
62.0,22.0,211.0,-10.0,55.0,-50.0,162.0,79.0,1012.0
58.0,23.0,211.0,-8.0,58.0,-51.0,154.0,91.0,1015.0
60.0,24.0,207.0,-8.0,59.0,-45.0,152.0,97.0,1011.0
59.0,27.0,209.0,-5.0,58.0,-41.0,149.0,103.0,1013.0
61.0,24.0,205.0,-10.0,55.0,-34.0,160.0,109.0,1006.0
60.0,29.0,208.0,-14.0,50.0,-27.0,154.0,116.0,1002.0
60.0,31.0,211.0,-20.0,44.0,-18.0,155.0,117.0,999.0
63.0,31.0,205.0,-27.0,36.0,-8.0,169.0,127.0,996.0
62.0,34.0,205.0,-33.0,25.0,0.0,174.0,127.0,988.0
65.0,32.0,204.0,-41.0,15.0,12.0,180.0,134.0,984.0
67.0,35.0,201.0,-47.0,5.0,20.0,186.0,133.0,983.0
69.0,33.0,201.0,-54.0,-6.0,25.0,196.0,131.0,977.0
74.0,34.0,202.0,-61.0,-15.0,31.0,210.0,134.0,977.0
78.0,34.0,195.0,-66.0,-23.0,32.0,217.0,135.0,973.0
77.0,35.0,202.0,-70.0,-31.0,32.0,226.0,131.0,969.0
81.0,32.0,198.0,-77.0,-36.0,38.0,238.0,127.0,968.0
78.0,35.0,201.0,-83.0,-40.0,39.0,246.0,129.0,967.0
86.0,33.0,197.0,-88.0,-44.0,39.0,253.0,123.0,968.0
85.0,28.0,201.0,-98.0,-46.0,41.0,254.0,120.0,974.0
86.0,27.0,202.0,-107.0,-46.0,43.0,254.0,110.0,982.0
89.0,25.0,203.0,-118.0,-46.0,42.0,266.0,101.0,982.0
86.0,21.0,203.0,-128.0,-45.0,38.0,265.0,94.0,993.0
86.0,21.0,202.0,-131.0,-42.0,34.0,264.0,82.0,993.0
87.0,19.0,210.0,-129.0,-34.0,31.0,263.0,72.0,994.0
87.0,14.0,205.0,-124.0,-19.0,27.0,263.0,70.0,1000.0
88.0,16.0,203.0,-114.0,-4.0,19.0,265.0,67.0,999.0
86.0,15.0,208.0,-103.0,14.0,10.0,257.0,66.0,999.0
83.0,13.0,204.0,-91.0,34.0,1.0,254.0,61.0,1003.0
87.0,11.0,203.0,-77.0,53.0,-9.0,250.0,57.0,1005.0
81.0,12.0,204.0,-65.0,68.0,-17.0,243.0,57.0,1004.0
83.0,10.0,206.0,-53.0,83.0,-23.0,232.0,54.0,1000.0
81.0,9.0,211.0,-41.0,102.0,-29.0,237.0,52.0,1002.0
78.0,10.0,205.0,-30.0,120.0,-31.0,230.0,44.0,1005.0
78.0,11.0,210.0,-18.0,136.0,-33.0,233.0,48.0,1007.0
74.0,11.0,209.0,-1.0,149.0,-40.0,220.0,46.0,1006.0
75.0,8.0,208.0,14.0,158.0,-42.0,219.0,44.0,1007.0
74.0,7.0,207.0,31.0,164.0,-43.0,213.0,47.0,1013.0
69.0,11.0,209.0,47.0,167.0,-40.0,200.0,48.0,1007.0
70.0,12.0,208.0,59.0,164.0,-36.0,198.0,55.0,1015.0
68.0,14.0,208.0,68.0,154.0,-37.0,190.0,60.0,1010.0
66.0,16.0,206.0,74.0,137.0,-40.0,182.0,75.0,1013.0
65.0,18.0,209.0,71.0,114.0,-40.0,177.0,77.0,1008.0
65.0,19.0,207.0,64.0,91.0,-36.0,178.0,89.0,1007.0
64.0,25.0,202.0,53.0,71.0,-32.0,174.0,94.0,1007.0
64.0,26.0,206.0,37.0,53.0,-29.0,173.0,101.0,1007.0
61.0,30.0,209.0,16.0,36.0,-28.0,172.0,109.0,1012.0
62.0,29.0,208.0,-7.0,20.0,-29.0,160.0,116.0,1011.0
61.0,29.0,209.0,-30.0,8.0,-29.0,156.0,119.0,1016.0
59.0,32.0,210.0,-50.0,0.0,-28.0,149.0,117.0,1017.0
57.0,30.0,213.0,-70.0,-7.0,-28.0,144.0,120.0,1019.0
58.0,30.0,217.0,-86.0,-12.0,-25.0,145.0,119.0,1019.0
57.0,33.0,208.0,-100.0,-17.0,-21.0,136.0,125.0,1019.0
57.0,30.0,213.0,-111.0,-18.0,-19.0,144.0,120.0,1024.0
56.0,32.0,216.0,-118.0,-17.0,-12.0,136.0,118.0,1023.0
55.0,23.0,212.0,-121.0,-15.0,-7.0,149.0,113.0,1028.0
59.0,24.0,214.0,-118.0,-10.0,-5.0,151.0,113.0,1027.0
59.0,28.0,216.0,-116.0,-4.0,1.0,154.0,108.0,1034.0
63.0,26.0,211.0,-114.0,3.0,6.0,156.0,109.0,1034.0
63.0,25.0,216.0,-112.0,10.0,12.0,163.0,102.0,1032.0
64.0,22.0,215.0,-110.0,16.0,19.0,161.0,97.0,1030.0
62.0,25.0,213.0,-112.0,23.0,27.0,171.0,86.0,1022.0
66.0,23.0,211.0,-116.0,31.0,31.0,177.0,92.0,1020.0
67.0,23.0,218.0,-123.0,40.0,36.0,176.0,86.0,1019.0
62.0,13.0,231.0,-126.0,46.0,38.0,179.0,81.0,1013.0
68.0,14.0,211.0,-129.0,51.0,38.0,182.0,74.0,1011.0
82.0,20.0,209.0,-134.0,58.0,42.0,190.0,69.0,1004.0
68.0,15.0,207.0,-136.0,61.0,41.0,188.0,67.0,1000.0
67.0,13.0,204.0,-137.0,63.0,40.0,195.0,61.0,1001.0
70.0,13.0,203.0,-132.0,65.0,38.0,201.0,60.0,999.0
71.0,13.0,206.0,-125.0,66.0,36.0,206.0,58.0,992.0
71.0,12.0,205.0,-115.0,66.0,33.0,206.0,57.0,993.0
71.0,11.0,202.0,-104.0,67.0,30.0,204.0,57.0,987.0
73.0,12.0,205.0,-92.0,66.0,27.0,206.0,55.0,989.0
75.0,9.0,205.0,-78.0,64.0,24.0,208.0,58.0,996.0
75.0,11.0,204.0,-68.0,61.0,21.0,208.0,62.0,993.0
71.0,16.0,207.0,-57.0,59.0,18.0,210.0,63.0,998.0
74.0,16.0,205.0,-49.0,56.0,15.0,208.0,65.0,998.0
71.0,17.0,204.0,-42.0,54.0,13.0,210.0,71.0,999.0
74.0,15.0,209.0,-35.0,52.0,10.0,206.0,73.0,998.0
72.0,17.0,207.0,-34.0,50.0,8.0,209.0,75.0,997.0
71.0,21.0,206.0,-35.0,50.0,4.0,210.0,75.0,1001.0
73.0,20.0,208.0,-37.0,52.0,4.0,209.0,76.0,1001.0
72.0,19.0,205.0,-40.0,54.0,2.0,210.0,76.0,1004.0
70.0,16.0,205.0,-42.0,57.0,0.0,204.0,78.0,1001.0
70.0,17.0,206.0,-44.0,60.0,1.0,202.0,78.0,1000.0
68.0,18.0,205.0,-43.0,61.0,2.0,198.0,73.0,1005.0
69.0,14.0,204.0,-41.0,61.0,2.0,190.0,75.0,1006.0
65.0,16.0,207.0,-39.0,59.0,3.0,189.0,69.0,1005.0
64.0,15.0,209.0,-35.0,56.0,4.0,176.0,69.0,996.0
65.0,13.0,206.0,-34.0,51.0,6.0,176.0,67.0,997.0
60.0,14.0,207.0,-35.0,44.0,7.0,169.0,67.0,998.0
61.0,16.0,210.0,-38.0,36.0,6.0,155.0,62.0,993.0
58.0,14.0,205.0,-37.0,28.0,6.0,151.0,64.0,997.0
57.0,15.0,204.0,-38.0,20.0,4.0,148.0,64.0,991.0
54.0,14.0,206.0,-38.0,13.0,1.0,141.0,62.0,997.0
58.0,14.0,204.0,-38.0,8.0,0.0,137.0,66.0,991.0
53.0,15.0,206.0,-37.0,3.0,-3.0,132.0,67.0,992.0
53.0,17.0,207.0,-35.0,-1.0,-8.0,131.0,69.0,989.0
56.0,17.0,204.0,-33.0,-5.0,-9.0,129.0,77.0,997.0
53.0,19.0,203.0,-34.0,-8.0,-12.0,127.0,78.0,1004.0
55.0,17.0,205.0,-35.0,-9.0,-14.0,129.0,77.0,998.0
50.0,20.0,207.0,-39.0,-10.0,-15.0,135.0,80.0,1001.0
59.0,19.0,208.0,-44.0,-9.0,-14.0,135.0,79.0,1005.0
59.0,18.0,207.0,-54.0,-7.0,-14.0,138.0,84.0,1006.0
59.0,19.0,201.0,-60.0,-2.0,-13.0,147.0,77.0,1006.0
58.0,19.0,208.0,-65.0,4.0,-11.0,150.0,81.0,1006.0
60.0,17.0,209.0,-69.0,9.0,-10.0,155.0,76.0,1010.0
62.0,17.0,209.0,-72.0,17.0,-8.0,154.0,72.0,1006.0
60.0,12.0,207.0,-71.0,24.0,-7.0,159.0,68.0,1003.0
62.0,14.0,209.0,-66.0,33.0,-9.0,166.0,68.0,1006.0
63.0,15.0,208.0,-61.0,40.0,-9.0,165.0,63.0,999.0
63.0,18.0,205.0,-53.0,48.0,-9.0,167.0,67.0,1000.0
65.0,14.0,206.0,-43.0,55.0,-11.0,172.0,67.0,991.0
62.0,17.0,204.0,-33.0,61.0,-11.0,172.0,69.0,997.0
64.0,16.0,205.0,-24.0,66.0,-12.0,176.0,70.0,991.0
63.0,17.0,203.0,-15.0,68.0,-12.0,173.0,71.0,998.0
65.0,17.0,204.0,-9.0,69.0,-12.0,184.0,74.0,991.0
66.0,17.0,201.0,-7.0,68.0,-12.0,185.0,77.0,995.0
66.0,20.0,207.0,-6.0,67.0,-13.0,185.0,80.0,995.0
63.0,24.0,201.0,-7.0,61.0,-11.0,185.0,90.0,999.0
65.0,25.0,202.0,-10.0,55.0,-11.0,184.0,97.0,989.0
65.0,23.0,201.0,-15.0,51.0,-9.0,188.0,94.0,995.0
69.0,22.0,203.0,-21.0,44.0,-9.0,188.0,98.0,993.0
67.0,24.0,207.0,-32.0,38.0,-7.0,182.0,101.0,992.0
65.0,25.0,205.0,-42.0,29.0,-7.0,178.0,96.0,995.0
65.0,22.0,202.0,-55.0,22.0,-6.0,173.0,97.0,990.0
63.0,23.0,207.0,-65.0,15.0,-3.0,176.0,95.0,992.0
66.0,20.0,208.0,-74.0,8.0,-1.0,177.0,97.0,992.0
63.0,22.0,204.0,-79.0,4.0,-1.0,175.0,89.0,995.0
65.0,19.0,205.0,-82.0,2.0,-1.0,173.0,92.0,998.0
64.0,23.0,206.0,-84.0,-1.0,-1.0,172.0,84.0,993.0
63.0,18.0,203.0,-85.0,-2.0,1.0,174.0,82.0,1000.0
64.0,20.0,204.0,-85.0,1.0,1.0,165.0,75.0,999.0
64.0,18.0,206.0,-81.0,4.0,0.0,168.0,77.0,1001.0
61.0,19.0,211.0,-77.0,6.0,2.0,172.0,75.0,998.0
64.0,18.0,208.0,-67.0,7.0,5.0,175.0,70.0,995.0
65.0,14.0,205.0,-59.0,8.0,5.0,179.0,74.0,1001.0
65.0,15.0,205.0,-49.0,11.0,5.0,179.0,65.0,1005.0
66.0,18.0,207.0,-36.0,17.0,7.0,186.0,72.0,1004.0
68.0,13.0,205.0,-24.0,23.0,6.0,191.0,75.0,1010.0
71.0,17.0,208.0,-10.0,28.0,5.0,195.0,73.0,1009.0
68.0,19.0,206.0,1.0,32.0,5.0,191.0,74.0,1014.0
68.0,21.0,209.0,13.0,40.0,2.0,190.0,84.0,1012.0
68.0,20.0,209.0,22.0,46.0,-1.0,191.0,86.0,1013.0
67.0,23.0,210.0,25.0,50.0,-2.0,189.0,90.0,1011.0
65.0,22.0,208.0,24.0,53.0,-4.0,182.0,94.0,1007.0
64.0,24.0,207.0,22.0,53.0,-4.0,174.0,93.0,1011.0
64.0,25.0,208.0,14.0,51.0,-5.0,178.0,95.0,1006.0
63.0,23.0,205.0,2.0,49.0,-5.0,177.0,97.0,1006.0
64.0,23.0,206.0,-11.0,43.0,-5.0,176.0,96.0,1004.0
64.0,25.0,207.0,-27.0,40.0,-4.0,175.0,87.0,1000.0
64.0,20.0,204.0,-42.0,33.0,-2.0,171.0,91.0,1001.0
62.0,22.0,208.0,-55.0,28.0,-2.0,170.0,87.0,1005.0
63.0,18.0,210.0,-63.0,22.0,0.0,171.0,85.0,999.0
63.0,18.0,206.0,-70.0,17.0,2.0,170.0,81.0,995.0
63.0,16.0,203.0,-74.0,12.0,2.0,177.0,70.0,1001.0
64.0,17.0,208.0,-74.0,9.0,3.0,174.0,72.0,998.0
63.0,16.0,206.0,-74.0,7.0,3.0,174.0,71.0,998.0
66.0,14.0,202.0,-72.0,6.0,3.0,166.0,65.0,1003.0
64.0,14.0,207.0,-71.0,8.0,3.0,170.0,75.0,1003.0
63.0,17.0,211.0,-68.0,7.0,4.0,169.0,68.0,1006.0
62.0,14.0,210.0,-65.0,5.0,5.0,170.0,70.0,1006.0
61.0,16.0,208.0,-60.0,2.0,6.0,159.0,66.0,1005.0
62.0,16.0,209.0,-54.0,-1.0,4.0,164.0,67.0,1004.0
61.0,16.0,208.0,-49.0,-4.0,3.0,159.0,69.0,993.0
59.0,16.0,203.0,-43.0,-3.0,3.0,155.0,68.0,999.0
62.0,14.0,202.0,-37.0,-4.0,2.0,155.0,72.0,998.0
60.0,15.0,206.0,-30.0,-5.0,1.0,159.0,75.0,997.0
62.0,17.0,203.0,-24.0,-6.0,0.0,157.0,71.0,996.0
60.0,17.0,207.0,-18.0,-7.0,-1.0,160.0,79.0,994.0
58.0,20.0,207.0,-9.0,-8.0,-3.0,157.0,77.0,995.0
58.0,21.0,205.0,-1.0,-7.0,-3.0,162.0,82.0,998.0
61.0,21.0,206.0,10.0,-4.0,-6.0,162.0,88.0,995.0
62.0,22.0,203.0,18.0,0.0,-7.0,163.0,86.0,994.0
61.0,22.0,204.0,27.0,5.0,-9.0,154.0,98.0,998.0
62.0,20.0,206.0,32.0,14.0,-10.0,158.0,93.0,1002.0
64.0,23.0,205.0,35.0,23.0,-12.0,163.0,101.0,1001.0
64.0,18.0,206.0,34.0,32.0,-12.0,169.0,97.0,998.0
64.0,24.0,208.0,29.0,39.0,-13.0,176.0,96.0,997.0
64.0,21.0,204.0,18.0,47.0,-13.0,173.0,95.0,994.0
66.0,22.0,205.0,7.0,57.0,-13.0,194.0,85.0,984.0
59.0,28.0,205.0,-5.0,70.0,-15.0,152.0,99.0,1000.0
62.0,26.0,211.0,-16.0,67.0,-10.0,172.0,95.0,1011.0
62.0,23.0,210.0,-33.0,53.0,-11.0,175.0,96.0,1009.0
65.0,24.0,208.0,-52.0,39.0,-10.0,173.0,94.0,1005.0
63.0,24.0,208.0,-66.0,31.0,-9.0,181.0,94.0,1002.0
66.0,19.0,209.0,-76.0,24.0,-9.0,180.0,86.0,1005.0
67.0,19.0,206.0,-80.0,18.0,-8.0,186.0,86.0,1006.0
66.0,21.0,208.0,-83.0,17.0,-8.0,183.0,87.0,1005.0
65.0,21.0,210.0,-81.0,17.0,-9.0,192.0,89.0,1006.0
67.0,18.0,206.0,-74.0,18.0,-9.0,185.0,81.0,1003.0
66.0,23.0,207.0,-68.0,20.0,-10.0,188.0,77.0,1007.0
64.0,18.0,209.0,-60.0,22.0,-10.0,186.0,85.0,1022.0
65.0,16.0,209.0,-54.0,23.0,-13.0,185.0,80.0,998.0
66.0,22.0,205.0,-48.0,21.0,-10.0,184.0,94.0,1002.0
66.0,21.0,206.0,-44.0,20.0,-10.0,182.0,87.0,1004.0
71.0,15.0,212.0,-41.0,21.0,-12.0,184.0,92.0,1004.0
64.0,21.0,203.0,-41.0,17.0,-13.0,187.0,82.0,1001.0
65.0,21.0,206.0,-39.0,14.0,-13.0,180.0,89.0,1002.0
65.0,20.0,209.0,-41.0,12.0,-12.0,178.0,86.0,998.0
65.0,20.0,207.0,-41.0,12.0,-12.0,175.0,88.0,998.0
65.0,20.0,204.0,-42.0,12.0,-10.0,175.0,91.0,1001.0
64.0,22.0,205.0,-43.0,11.0,-10.0,175.0,93.0,1003.0
64.0,22.0,205.0,-42.0,10.0,-10.0,169.0,85.0,999.0
65.0,23.0,205.0,-43.0,11.0,-9.0,172.0,91.0,1002.0
64.0,17.0,205.0,-43.0,12.0,-7.0,171.0,87.0,1000.0
64.0,21.0,205.0,-45.0,12.0,-7.0,172.0,89.0,999.0
72.0,33.0,222.0,-46.0,12.0,-6.0,169.0,85.0,1003.0
62.0,21.0,205.0,-48.0,13.0,-5.0,172.0,88.0,1000.0
63.0,18.0,204.0,-47.0,14.0,-5.0,166.0,80.0,1001.0
64.0,19.0,210.0,-49.0,14.0,-5.0,170.0,84.0,1004.0
62.0,20.0,207.0,-51.0,16.0,-4.0,168.0,85.0,1007.0
64.0,20.0,207.0,-49.0,16.0,-4.0,166.0,77.0,1004.0
65.0,21.0,206.0,-49.0,18.0,-5.0,169.0,84.0,1005.0
63.0,19.0,206.0,-51.0,18.0,-3.0,163.0,81.0,1003.0
63.0,20.0,207.0,-51.0,19.0,-2.0,167.0,82.0,1005.0
62.0,21.0,208.0,-51.0,20.0,-3.0,173.0,82.0,1006.0
61.0,21.0,209.0,-53.0,22.0,-4.0,173.0,80.0,1005.0
64.0,19.0,207.0,-56.0,22.0,-4.0,169.0,80.0,1006.0
63.0,20.0,203.0,-59.0,23.0,-4.0,171.0,85.0,1006.0
62.0,20.0,207.0,-63.0,24.0,-4.0,171.0,84.0,1007.0
64.0,19.0,212.0,-66.0,24.0,-4.0,167.0,87.0,1001.0
63.0,23.0,207.0,-68.0,22.0,-3.0,171.0,79.0,1007.0
64.0,18.0,206.0,-68.0,22.0,-5.0,169.0,84.0,1004.0
63.0,22.0,208.0,-70.0,22.0,-5.0,172.0,85.0,1005.0
64.0,19.0,208.0,-70.0,21.0,-4.0,172.0,87.0,1005.0
64.0,20.0,204.0,-69.0,20.0,-2.0,169.0,84.0,1007.0
61.0,22.0,206.0,-70.0,22.0,-3.0,172.0,85.0,1001.0
64.0,19.0,208.0,-68.0,21.0,-3.0,170.0,89.0,1002.0
64.0,18.0,204.0,-64.0,19.0,-2.0,171.0,84.0,1002.0
63.0,20.0,207.0,-62.0,18.0,-1.0,172.0,80.0,1001.0
63.0,20.0,211.0,-57.0,17.0,0.0,169.0,86.0,999.0
64.0,18.0,207.0,-53.0,15.0,1.0,172.0,81.0,992.0
63.0,22.0,207.0,-49.0,15.0,2.0,173.0,81.0,998.0
61.0,21.0,203.0,-47.0,15.0,2.0,172.0,92.0,998.0
65.0,18.0,208.0,-46.0,16.0,0.0,174.0,85.0,996.0
62.0,22.0,207.0,-45.0,19.0,1.0,173.0,88.0,1002.0
62.0,21.0,203.0,-45.0,19.0,0.0,175.0,86.0,998.0
65.0,23.0,204.0,-46.0,22.0,-1.0,170.0,79.0,997.0
60.0,20.0,207.0,-46.0,21.0,-2.0,171.0,89.0,996.0
63.0,20.0,207.0,-49.0,22.0,-2.0,171.0,86.0,997.0
62.0,22.0,206.0,-51.0,20.0,-3.0,170.0,81.0,997.0
64.0,17.0,208.0,-54.0,19.0,-4.0,172.0,85.0,999.0
63.0,20.0,205.0,-56.0,17.0,-4.0,172.0,79.0,999.0
63.0,20.0,205.0,-60.0,16.0,-5.0,169.0,83.0,1003.0
64.0,19.0,204.0,-62.0,13.0,-6.0,172.0,80.0,998.0
