acc1_x,acc1_y,acc1_z,gyro_x,gyro_y,gyro_z,acc2_x,acc2_y,acc2_z
-18.0,-251.0,-71.0,-13.0,71.0,-6.0,-49.0,-973.0,-331.0
-20.0,-250.0,-72.0,-10.0,70.0,-5.0,-50.0,-975.0,-329.0
-17.0,-250.0,-71.0,-10.0,70.0,-7.0,-53.0,-971.0,-327.0
-17.0,-248.0,-70.0,-10.0,69.0,-5.0,-44.0,-977.0,-328.0
-16.0,-251.0,-70.0,-9.0,69.0,-5.0,-45.0,-974.0,-328.0
-14.0,-244.0,-80.0,-10.0,68.0,-2.0,-44.0,-971.0,-327.0
-20.0,-250.0,-70.0,-9.0,69.0,-3.0,-44.0,-973.0,-327.0
-18.0,-250.0,-67.0,-8.0,70.0,-4.0,-48.0,-976.0,-327.0
-16.0,-249.0,-68.0,-7.0,71.0,-4.0,-43.0,-971.0,-326.0
-18.0,-251.0,-70.0,-7.0,72.0,-4.0,-44.0,-971.0,-327.0
-18.0,-250.0,-70.0,-6.0,73.0,-5.0,-45.0,-970.0,-329.0
-17.0,-248.0,-69.0,-8.0,72.0,-4.0,-46.0,-971.0,-321.0
-18.0,-252.0,-69.0,-9.0,73.0,-5.0,-46.0,-974.0,-325.0
-18.0,-247.0,-71.0,-10.0,75.0,-5.0,-41.0,-971.0,-329.0
-15.0,-251.0,-70.0,-11.0,77.0,-5.0,-46.0,-974.0,-325.0
-18.0,-250.0,-72.0,-11.0,77.0,-3.0,-49.0,-971.0,-322.0
-19.0,-249.0,-68.0,-11.0,78.0,-3.0,-45.0,-971.0,-324.0
-20.0,-246.0,-73.0,-11.0,77.0,-5.0,-51.0,-972.0,-324.0
-18.0,-249.0,-71.0,-11.0,77.0,-4.0,-49.0,-971.0,-318.0
-16.0,-251.0,-71.0,-12.0,78.0,-4.0,-45.0,-971.0,-323.0
-17.0,-250.0,-71.0,-12.0,77.0,-4.0,-45.0,-970.0,-327.0
-18.0,-251.0,-69.0,-11.0,78.0,-4.0,-53.0,-978.0,-327.0
-17.0,-252.0,-69.0,-9.0,78.0,-3.0,-45.0,-973.0,-324.0
-18.0,-251.0,-71.0,-8.0,77.0,-4.0,-50.0,-972.0,-325.0
-19.0,-249.0,-68.0,-9.0,77.0,-3.0,-44.0,-972.0,-325.0
-18.0,-254.0,-70.0,-9.0,77.0,-3.0,-50.0,-973.0,-324.0
-16.0,-250.0,-72.0,-8.0,76.0,-4.0,-49.0,-977.0,-325.0
-16.0,-252.0,-70.0,-8.0,77.0,-3.0,-50.0,-977.0,-327.0
-18.0,-252.0,-68.0,-6.0,76.0,-3.0,-51.0,-974.0,-325.0
-20.0,-247.0,-70.0,-6.0,76.0,-4.0,-50.0,-970.0,-325.0
-14.0,-252.0,-71.0,-4.0,75.0,-3.0,-47.0,-974.0,-329.0
-19.0,-252.0,-69.0,-4.0,75.0,-3.0,-49.0,-971.0,-329.0
-18.0,-249.0,-71.0,-5.0,76.0,-3.0,-46.0,-970.0,-327.0
-17.0,-250.0,-73.0,-5.0,76.0,-4.0,-47.0,-970.0,-326.0
-18.0,-252.0,-66.0,-4.0,76.0,-3.0,-42.0,-973.0,-326.0
-19.0,-248.0,-66.0,-3.0,76.0,-3.0,-53.0,-973.0,-328.0
-16.0,-252.0,-71.0,-4.0,77.0,-5.0,-47.0,-974.0,-328.0
-18.0,-251.0,-69.0,-4.0,77.0,-3.0,-50.0,-972.0,-328.0
-19.0,-250.0,-73.0,-4.0,77.0,-4.0,-45.0,-974.0,-330.0
-18.0,-249.0,-70.0,-4.0,78.0,-3.0,-47.0,-972.0,-321.0
-20.0,-249.0,-66.0,-4.0,80.0,-3.0,-50.0,-970.0,-328.0
-18.0,-252.0,-68.0,-4.0,78.0,-4.0,-45.0,-973.0,-320.0
-19.0,-249.0,-68.0,-5.0,77.0,-2.0,-47.0,-973.0,-327.0
-17.0,-251.0,-69.0,-5.0,78.0,-1.0,-43.0,-975.0,-324.0
-17.0,-250.0,-67.0,-5.0,80.0,-3.0,-42.0,-973.0,-324.0
-16.0,-253.0,-69.0,-5.0,80.0,-4.0,-42.0,-968.0,-323.0
-15.0,-250.0,-68.0,-5.0,79.0,-2.0,-46.0,-971.0,-326.0
-21.0,-249.0,-70.0,-4.0,80.0,-3.0,-48.0,-975.0,-318.0
-14.0,-249.0,-67.0,-4.0,79.0,-1.0,-47.0,-973.0,-322.0
-16.0,-253.0,-66.0,-3.0,78.0,-2.0,-47.0,-971.0,-321.0
-19.0,-251.0,-69.0,-3.0,79.0,-2.0,-44.0,-978.0,-326.0
-18.0,-252.0,-69.0,-3.0,80.0,-2.0,-50.0,-971.0,-325.0
-19.0,-250.0,-69.0,-3.0,81.0,-1.0,-46.0,-974.0,-319.0
-19.0,-251.0,-66.0,-2.0,81.0,-3.0,-47.0,-975.0,-323.0
-17.0,-249.0,-69.0,-1.0,79.0,-2.0,-43.0,-976.0,-319.0
-16.0,-247.0,-69.0,-1.0,79.0,-3.0,-47.0,-973.0,-322.0
-20.0,-249.0,-71.0,1.0,78.0,-3.0,-50.0,-979.0,-324.0
-19.0,-254.0,-66.0,2.0,77.0,-1.0,-48.0,-971.0,-322.0
-19.0,-253.0,-69.0,2.0,76.0,-2.0,-43.0,-974.0,-324.0
-17.0,-252.0,-71.0,4.0,75.0,0.0,-50.0,-974.0,-323.0
-17.0,-251.0,-71.0,5.0,76.0,-1.0,-47.0,-977.0,-322.0
-19.0,-249.0,-71.0,5.0,77.0,1.0,-49.0,-976.0,-322.0
-18.0,-248.0,-70.0,3.0,77.0,0.0,-51.0,-972.0,-321.0
-20.0,-251.0,-69.0,1.0,76.0,0.0,-47.0,-972.0,-324.0
-18.0,-249.0,-70.0,1.0,77.0,-2.0,-45.0,-970.0,-319.0
-20.0,-251.0,-70.0,0.0,79.0,-1.0,-49.0,-972.0,-319.0
-17.0,-249.0,-70.0,-4.0,80.0,-1.0,-46.0,-971.0,-319.0
-18.0,-252.0,-71.0,-5.0,79.0,-3.0,-45.0,-972.0,-318.0
-16.0,-251.0,-70.0,-7.0,79.0,-4.0,-46.0,-973.0,-318.0
-19.0,-253.0,-68.0,-5.0,78.0,-3.0,-49.0,-973.0,-317.0
-30.0,-253.0,-63.0,-4.0,78.0,-4.0,-48.0,-973.0,-320.0
-20.0,-251.0,-66.0,-4.0,78.0,-6.0,-48.0,-972.0,-324.0
-18.0,-250.0,-68.0,-2.0,76.0,-6.0,-50.0,-978.0,-323.0
-20.0,-251.0,-69.0,-2.0,76.0,-5.0,-47.0,-975.0,-318.0
-19.0,-250.0,-70.0,-2.0,75.0,-4.0,-49.0,-975.0,-323.0
-20.0,-249.0,-70.0,-1.0,76.0,-3.0,-49.0,-971.0,-321.0
-19.0,-250.0,-68.0,-3.0,74.0,-2.0,-50.0,-972.0,-311.0
-19.0,-246.0,-67.0,-3.0,73.0,-2.0,-52.0,-973.0,-313.0
-15.0,-251.0,-67.0,-4.0,73.0,-2.0,-50.0,-975.0,-321.0
-18.0,-250.0,-71.0,-4.0,73.0,1.0,-50.0,-973.0,-317.0
-20.0,-248.0,-70.0,-4.0,73.0,3.0,-46.0,-973.0,-319.0
-18.0,-248.0,-68.0,-5.0,73.0,2.0,-47.0,-970.0,-322.0
-19.0,-251.0,-66.0,-4.0,74.0,3.0,-46.0,-974.0,-318.0
-18.0,-247.0,-70.0,-2.0,72.0,2.0,-53.0,-974.0,-322.0
-17.0,-249.0,-66.0,-1.0,73.0,0.0,-44.0,-975.0,-318.0
-17.0,-248.0,-66.0,0.0,73.0,0.0,-47.0,-972.0,-322.0
-16.0,-253.0,-67.0,1.0,74.0,-2.0,-43.0,-974.0,-319.0
-16.0,-249.0,-70.0,0.0,74.0,-4.0,-46.0,-974.0,-323.0
-18.0,-250.0,-68.0,-2.0,74.0,-5.0,-52.0,-975.0,-320.0
-15.0,-253.0,-66.0,-4.0,73.0,-7.0,-49.0,-976.0,-322.0
-17.0,-249.0,-67.0,-5.0,75.0,-6.0,-47.0,-979.0,-318.0
-16.0,-254.0,-67.0,-6.0,76.0,-5.0,-51.0,-972.0,-314.0
-18.0,-247.0,-69.0,-8.0,77.0,-5.0,-54.0,-974.0,-321.0
-20.0,-250.0,-66.0,-8.0,77.0,-5.0,-47.0,-976.0,-318.0
-19.0,-249.0,-70.0,-9.0,76.0,-4.0,-54.0,-971.0,-320.0
-22.0,-252.0,-70.0,-9.0,77.0,-3.0,-49.0,-982.0,-316.0
-18.0,-252.0,-68.0,-7.0,76.0,-3.0,-49.0,-977.0,-317.0
-19.0,-251.0,-68.0,-6.0,73.0,-3.0,-49.0,-975.0,-319.0
-19.0,-248.0,-67.0,-5.0,73.0,-2.0,-49.0,-979.0,-316.0
-19.0,-251.0,-68.0,-4.0,72.0,-1.0,-44.0,-971.0,-319.0
-22.0,-250.0,-66.0,-1.0,69.0,-1.0,-46.0,-973.0,-322.0
-16.0,-254.0,-67.0,-3.0,67.0,-1.0,-44.0,-978.0,-319.0
-18.0,-250.0,-68.0,-2.0,67.0,-2.0,-51.0,-973.0,-320.0
-22.0,-247.0,-71.0,-2.0,65.0,-2.0,-49.0,-976.0,-319.0
-18.0,-249.0,-69.0,0.0,63.0,-3.0,-45.0,-976.0,-320.0
-18.0,-252.0,-68.0,-2.0,64.0,-4.0,-48.0,-975.0,-327.0
-18.0,-250.0,-67.0,-2.0,64.0,-4.0,-46.0,-977.0,-322.0
-18.0,-251.0,-70.0,-2.0,65.0,-4.0,-47.0,-973.0,-321.0
-15.0,-252.0,-66.0,-2.0,65.0,-4.0,-46.0,-977.0,-323.0
-15.0,-253.0,-68.0,-4.0,65.0,-5.0,-50.0,-972.0,-315.0
-18.0,-249.0,-69.0,-5.0,67.0,-5.0,-52.0,-975.0,-320.0
-18.0,-253.0,-69.0,-5.0,67.0,-5.0,-49.0,-975.0,-316.0
-14.0,-250.0,-69.0,-5.0,67.0,-4.0,-49.0,-976.0,-316.0
-25.0,-252.0,-74.0,-5.0,67.0,-5.0,-45.0,-973.0,-316.0
-19.0,-254.0,-66.0,-5.0,67.0,-4.0,-48.0,-975.0,-320.0
-16.0,-252.0,-66.0,-4.0,69.0,-6.0,-50.0,-979.0,-315.0
-19.0,-251.0,-68.0,-4.0,68.0,-6.0,-49.0,-975.0,-317.0
-17.0,-251.0,-64.0,-4.0,68.0,-6.0,-47.0,-980.0,-321.0
-17.0,-250.0,-68.0,-4.0,68.0,-8.0,-51.0,-974.0,-315.0
-18.0,-253.0,-71.0,-3.0,66.0,-5.0,-48.0,-969.0,-320.0
-18.0,-250.0,-67.0,-3.0,65.0,-7.0,-47.0,-971.0,-323.0
-19.0,-252.0,-70.0,-2.0,65.0,-6.0,-46.0,-974.0,-317.0
-20.0,-252.0,-68.0,-1.0,66.0,-4.0,-51.0,-975.0,-315.0
-21.0,-251.0,-69.0,-2.0,64.0,-4.0,-46.0,-975.0,-322.0
-17.0,-248.0,-72.0,-3.0,64.0,-5.0,-51.0,-974.0,-315.0
-22.0,-248.0,-71.0,-2.0,64.0,-4.0,-47.0,-971.0,-315.0
-19.0,-248.0,-72.0,-3.0,63.0,-3.0,-49.0,-974.0,-316.0
-17.0,-250.0,-67.0,-4.0,63.0,-5.0,-48.0,-968.0,-313.0
-20.0,-251.0,-69.0,-5.0,63.0,-5.0,-48.0,-971.0,-318.0
-16.0,-252.0,-66.0,-6.0,64.0,-6.0,-49.0,-974.0,-314.0
-16.0,-248.0,-68.0,-7.0,64.0,-6.0,-47.0,-978.0,-314.0
-20.0,-249.0,-66.0,-7.0,64.0,-7.0,-50.0,-973.0,-312.0
-18.0,-249.0,-67.0,-8.0,64.0,-7.0,-43.0,-974.0,-316.0
-18.0,-251.0,-69.0,-8.0,64.0,-8.0,-47.0,-973.0,-314.0
-20.0,-251.0,-70.0,-8.0,65.0,-8.0,-45.0,-972.0,-319.0
-21.0,-249.0,-71.0,-8.0,65.0,-7.0,-51.0,-979.0,-318.0
-17.0,-251.0,-69.0,-9.0,64.0,-6.0,-48.0,-973.0,-313.0
-18.0,-251.0,-69.0,-9.0,64.0,-6.0,-48.0,-975.0,-315.0
-19.0,-252.0,-71.0,-9.0,65.0,-5.0,-45.0,-975.0,-315.0
-19.0,-249.0,-67.0,-10.0,65.0,-6.0,-46.0,-975.0,-321.0
-19.0,-250.0,-66.0,-9.0,64.0,-5.0,-49.0,-971.0,-316.0
-20.0,-251.0,-68.0,-9.0,65.0,-4.0,-45.0,-974.0,-320.0
-22.0,-252.0,-68.0,-9.0,64.0,-3.0,-49.0,-972.0,-315.0
-18.0,-253.0,-71.0,-9.0,62.0,-4.0,-47.0,-975.0,-318.0
-18.0,-250.0,-69.0,-8.0,60.0,-5.0,-47.0,-976.0,-316.0
-16.0,-250.0,-69.0,-8.0,60.0,-5.0,-50.0,-978.0,-321.0
-16.0,-249.0,-69.0,-7.0,60.0,-5.0,-48.0,-973.0,-322.0
-18.0,-251.0,-65.0,-6.0,60.0,-6.0,-49.0,-973.0,-321.0
-18.0,-250.0,-66.0,-7.0,60.0,-4.0,-48.0,-978.0,-317.0
-16.0,-251.0,-68.0,-8.0,60.0,-6.0,-49.0,-973.0,-316.0
-18.0,-250.0,-68.0,-7.0,59.0,-7.0,-49.0,-974.0,-324.0
-19.0,-249.0,-71.0,-7.0,59.0,-6.0,-45.0,-972.0,-323.0
-21.0,-249.0,-69.0,-9.0,57.0,-7.0,-52.0,-973.0,-324.0
-17.0,-251.0,-68.0,-9.0,57.0,-7.0,-52.0,-971.0,-323.0
-18.0,-251.0,-67.0,-10.0,59.0,-7.0,-45.0,-972.0,-317.0
-19.0,-252.0,-71.0,-9.0,58.0,-8.0,-49.0,-972.0,-325.0
-21.0,-249.0,-66.0,-10.0,58.0,-7.0,-45.0,-974.0,-321.0
-17.0,-249.0,-67.0,-12.0,57.0,-10.0,-48.0,-972.0,-324.0
-16.0,-251.0,-68.0,-13.0,56.0,-9.0,-54.0,-973.0,-323.0
-16.0,-250.0,-69.0,-15.0,57.0,-8.0,-50.0,-975.0,-319.0
-16.0,-250.0,-66.0,-15.0,57.0,-8.0,-48.0,-973.0,-319.0
-19.0,-253.0,-67.0,-14.0,56.0,-8.0,-47.0,-974.0,-320.0
-18.0,-249.0,-69.0,-14.0,58.0,-7.0,-48.0,-976.0,-322.0
-18.0,-251.0,-70.0,-14.0,57.0,-6.0,-47.0,-973.0,-322.0
-18.0,-249.0,-69.0,-14.0,58.0,-7.0,-45.0,-976.0,-324.0
-15.0,-252.0,-68.0,-13.0,58.0,-7.0,-44.0,-976.0,-323.0
-17.0,-253.0,-69.0,-12.0,59.0,-7.0,-46.0,-972.0,-324.0
-20.0,-249.0,-70.0,-13.0,58.0,-8.0,-44.0,-974.0,-323.0
-18.0,-249.0,-69.0,-12.0,59.0,-6.0,-46.0,-977.0,-323.0
-16.0,-251.0,-67.0,-12.0,57.0,-5.0,-42.0,-978.0,-318.0
-17.0,-251.0,-70.0,-12.0,57.0,-7.0,-48.0,-972.0,-321.0
-18.0,-251.0,-71.0,-12.0,59.0,-7.0,-44.0,-974.0,-323.0
-16.0,-254.0,-69.0,-13.0,58.0,-8.0,-39.0,-974.0,-319.0
-16.0,-250.0,-67.0,-13.0,60.0,-7.0,-45.0,-979.0,-322.0
-15.0,-251.0,-69.0,-12.0,60.0,-7.0,-50.0,-974.0,-320.0
-17.0,-252.0,-67.0,-12.0,59.0,-6.0,-42.0,-976.0,-321.0
-16.0,-252.0,-69.0,-12.0,59.0,-6.0,-46.0,-981.0,-317.0
-19.0,-250.0,-68.0,-13.0,60.0,-6.0,-48.0,-973.0,-323.0
-15.0,-251.0,-69.0,-11.0,58.0,-4.0,-46.0,-976.0,-322.0
-20.0,-253.0,-59.0,-9.0,59.0,-4.0,-47.0,-977.0,-322.0
-16.0,-251.0,-65.0,-8.0,58.0,-3.0,-47.0,-975.0,-322.0
-18.0,-253.0,-67.0,-7.0,58.0,-2.0,-42.0,-971.0,-324.0
-16.0,-251.0,-67.0,-8.0,60.0,-3.0,-45.0,-977.0,-316.0
-18.0,-249.0,-67.0,-9.0,59.0,-3.0,-49.0,-971.0,-322.0
-17.0,-250.0,-69.0,-10.0,61.0,-5.0,-50.0,-975.0,-316.0
-17.0,-250.0,-74.0,-11.0,61.0,-5.0,-50.0,-970.0,-326.0
-19.0,-251.0,-66.0,-11.0,63.0,-5.0,-46.0,-978.0,-313.0
-16.0,-251.0,-63.0,-12.0,64.0,-6.0,-45.0,-976.0,-316.0
-17.0,-252.0,-66.0,-12.0,64.0,-7.0,-47.0,-973.0,-317.0
-17.0,-251.0,-70.0,-11.0,65.0,-7.0,-48.0,-974.0,-317.0
-17.0,-252.0,-66.0,-9.0,64.0,-8.0,-49.0,-977.0,-316.0
-15.0,-251.0,-67.0,-8.0,66.0,-8.0,-44.0,-977.0,-322.0
-17.0,-250.0,-70.0,-7.0,66.0,-7.0,-50.0,-978.0,-321.0
-17.0,-251.0,-69.0,-8.0,65.0,-5.0,-48.0,-971.0,-322.0
-18.0,-251.0,-68.0,-7.0,66.0,-4.0,-48.0,-971.0,-317.0
-21.0,-249.0,-67.0,-9.0,65.0,-2.0,-46.0,-972.0,-320.0
-19.0,-249.0,-68.0,-9.0,64.0,-2.0,-48.0,-977.0,-316.0
-16.0,-251.0,-67.0,-11.0,63.0,-1.0,-47.0,-974.0,-325.0
-17.0,-249.0,-69.0,-12.0,61.0,-1.0,-50.0,-974.0,-324.0
-16.0,-249.0,-66.0,-12.0,62.0,1.0,-50.0,-973.0,-323.0
-18.0,-251.0,-71.0,-12.0,62.0,3.0,-48.0,-975.0,-314.0
-11.0,-245.0,-67.0,-12.0,62.0,2.0,-47.0,-976.0,-312.0
-13.0,-252.0,-66.0,-13.0,62.0,1.0,-47.0,-974.0,-318.0
-13.0,-252.0,-68.0,-11.0,63.0,1.0,-42.0,-970.0,-319.0
-13.0,-251.0,-70.0,-9.0,62.0,-1.0,-47.0,-972.0,-323.0
-16.0,-250.0,-65.0,-8.0,63.0,-1.0,-52.0,-971.0,-314.0
-17.0,-253.0,-69.0,-8.0,65.0,-2.0,-44.0,-973.0,-319.0
-18.0,-248.0,-64.0,-7.0,65.0,-4.0,-48.0,-972.0,-319.0
-19.0,-250.0,-67.0,-10.0,66.0,-5.0,-48.0,-976.0,-312.0
-16.0,-252.0,-67.0,-10.0,67.0,-5.0,-51.0,-979.0,-320.0
-16.0,-252.0,-69.0,-11.0,68.0,-5.0,-50.0,-973.0,-318.0
-19.0,-249.0,-68.0,-13.0,70.0,-5.0,-49.0,-971.0,-319.0
-20.0,-250.0,-68.0,-12.0,70.0,-5.0,-48.0,-970.0,-310.0
-18.0,-252.0,-66.0,-13.0,69.0,-5.0,-53.0,-975.0,-313.0
-19.0,-250.0,-70.0,-14.0,69.0,-4.0,-46.0,-977.0,-316.0
-22.0,-250.0,-67.0,-12.0,68.0,-5.0,-56.0,-976.0,-317.0
-21.0,-252.0,-64.0,-11.0,68.0,-3.0,-51.0,-973.0,-316.0
-17.0,-250.0,-67.0,-7.0,67.0,-1.0,-49.0,-982.0,-317.0
-18.0,-250.0,-70.0,-6.0,66.0,0.0,-47.0,-981.0,-322.0
-17.0,-249.0,-70.0,-4.0,64.0,-1.0,-47.0,-976.0,-323.0
-20.0,-252.0,-65.0,-3.0,61.0,0.0,-48.0,-977.0,-322.0
-19.0,-250.0,-67.0,-1.0,59.0,-2.0,-50.0,-973.0,-323.0
-17.0,-249.0,-65.0,0.0,58.0,-1.0,-49.0,-974.0,-323.0
-20.0,-249.0,-68.0,-1.0,58.0,-2.0,-47.0,-972.0,-319.0
-16.0,-252.0,-71.0,0.0,57.0,-2.0,-49.0,-975.0,-321.0
-17.0,-252.0,-70.0,-1.0,58.0,-2.0,-47.0,-974.0,-320.0
-19.0,-250.0,-71.0,-3.0,58.0,-3.0,-44.0,-974.0,-320.0
-18.0,-252.0,-68.0,-4.0,60.0,-2.0,-47.0,-977.0,-316.0
-18.0,-250.0,-70.0,-7.0,61.0,-2.0,-48.0,-971.0,-323.0
-16.0,-251.0,-67.0,-8.0,62.0,-4.0,-47.0,-975.0,-321.0
-17.0,-249.0,-68.0,-11.0,63.0,-4.0,-50.0,-973.0,-318.0
-21.0,-250.0,-67.0,-13.0,65.0,-4.0,-47.0,-971.0,-318.0
-20.0,-247.0,-71.0,-13.0,65.0,-4.0,-45.0,-975.0,-325.0
-17.0,-249.0,-72.0,-15.0,65.0,-4.0,-45.0,-976.0,-314.0
-18.0,-250.0,-67.0,-14.0,64.0,-3.0,-44.0,-977.0,-318.0
-20.0,-249.0,-69.0,-14.0,64.0,-5.0,-50.0,-977.0,-316.0
-18.0,-250.0,-70.0,-13.0,64.0,-5.0,-44.0,-977.0,-319.0
-20.0,-249.0,-69.0,-13.0,64.0,-4.0,-48.0,-979.0,-322.0
-18.0,-251.0,-67.0,-14.0,62.0,-6.0,-48.0,-974.0,-321.0
-18.0,-252.0,-68.0,-12.0,61.0,-4.0,-49.0,-974.0,-322.0
-17.0,-250.0,-72.0,-13.0,62.0,-3.0,-49.0,-975.0,-318.0
-18.0,-251.0,-68.0,-11.0,62.0,-4.0,-46.0,-977.0,-312.0
-15.0,-250.0,-67.0,-9.0,60.0,-3.0,-45.0,-974.0,-317.0
-18.0,-251.0,-66.0,-9.0,60.0,-1.0,-49.0,-974.0,-319.0
-17.0,-249.0,-67.0,-7.0,61.0,-3.0,-45.0,-974.0,-320.0
-18.0,-251.0,-68.0,-6.0,62.0,-1.0,-43.0,-976.0,-322.0
-15.0,-249.0,-66.0,-7.0,62.0,-2.0,-47.0,-974.0,-317.0
-15.0,-251.0,-69.0,-7.0,63.0,-1.0,-45.0,-974.0,-312.0
-20.0,-250.0,-67.0,-8.0,65.0,-2.0,-44.0,-973.0,-321.0
-17.0,-251.0,-69.0,-7.0,64.0,-1.0,-49.0,-971.0,-314.0
-17.0,-251.0,-65.0,-9.0,67.0,-1.0,-47.0,-976.0,-318.0
-19.0,-248.0,-68.0,-11.0,66.0,-2.0,-48.0,-975.0,-316.0
-17.0,-250.0,-69.0,-11.0,67.0,-1.0,-48.0,-969.0,-317.0
-15.0,-252.0,-67.0,-12.0,68.0,-3.0,-47.0,-970.0,-315.0
-19.0,-250.0,-70.0,-14.0,68.0,-3.0,-46.0,-973.0,-318.0
-19.0,-249.0,-69.0,-14.0,70.0,-2.0,-48.0,-977.0,-318.0
-19.0,-251.0,-67.0,-14.0,71.0,-2.0,-50.0,-975.0,-319.0
-17.0,-254.0,-70.0,-15.0,71.0,-1.0,-49.0,-979.0,-318.0
-19.0,-252.0,-67.0,-15.0,70.0,-2.0,-44.0,-973.0,-316.0
-16.0,-250.0,-73.0,-14.0,71.0,-1.0,-48.0,-973.0,-320.0
-17.0,-251.0,-73.0,-12.0,70.0,-2.0,-46.0,-975.0,-319.0
-17.0,-249.0,-67.0,-11.0,70.0,-3.0,-48.0,-975.0,-317.0
-17.0,-251.0,-68.0,-10.0,69.0,-1.0,-48.0,-976.0,-321.0
-16.0,-250.0,-69.0,-10.0,70.0,-1.0,-48.0,-978.0,-314.0
-18.0,-250.0,-65.0,-8.0,69.0,-1.0,-49.0,-980.0,-315.0
-17.0,-252.0,-68.0,-6.0,67.0,-1.0,-46.0,-978.0,-316.0
-24.0,-251.0,-65.0,-6.0,66.0,-1.0,-45.0,-976.0,-323.0
-17.0,-250.0,-67.0,-6.0,66.0,-1.0,-49.0,-976.0,-323.0
-17.0,-249.0,-67.0,-4.0,65.0,-1.0,-44.0,-975.0,-321.0
-16.0,-252.0,-66.0,-5.0,65.0,-1.0,-52.0,-974.0,-315.0
-20.0,-252.0,-67.0,-4.0,65.0,-2.0,-55.0,-978.0,-321.0
-18.0,-252.0,-67.0,-5.0,66.0,-1.0,-49.0,-976.0,-314.0
-20.0,-247.0,-70.0,-6.0,67.0,1.0,-46.0,-974.0,-316.0
-20.0,-248.0,-69.0,-5.0,66.0,-1.0,-47.0,-975.0,-324.0
-16.0,-252.0,-71.0,-5.0,67.0,0.0,-46.0,-972.0,-320.0
-17.0,-249.0,-69.0,-5.0,69.0,0.0,-47.0,-976.0,-316.0
-18.0,-253.0,-65.0,-6.0,68.0,0.0,-48.0,-977.0,-325.0
-19.0,-250.0,-71.0,-5.0,67.0,1.0,-43.0,-972.0,-318.0
-18.0,-251.0,-66.0,-7.0,67.0,0.0,-49.0,-973.0,-321.0
-17.0,-249.0,-67.0,-6.0,68.0,-1.0,-52.0,-974.0,-316.0
-21.0,-248.0,-69.0,-7.0,67.0,0.0,-50.0,-974.0,-321.0
-16.0,-249.0,-67.0,-7.0,67.0,-2.0,-50.0,-971.0,-317.0
-18.0,-252.0,-69.0,-5.0,68.0,-1.0,-46.0,-974.0,-318.0
-17.0,-252.0,-71.0,-5.0,69.0,-1.0,-46.0,-975.0,-315.0
-17.0,-253.0,-67.0,-5.0,68.0,-1.0,-45.0,-973.0,-319.0
-17.0,-251.0,-67.0,-4.0,69.0,-1.0,-45.0,-976.0,-315.0
-17.0,-250.0,-68.0,-4.0,69.0,0.0,-48.0,-974.0,-311.0
-16.0,-250.0,-65.0,-4.0,69.0,0.0,-45.0,-973.0,-315.0
-17.0,-256.0,-65.0,-3.0,71.0,0.0,-47.0,-978.0,-313.0
-18.0,-248.0,-70.0,-5.0,70.0,0.0,-46.0,-974.0,-313.0
-19.0,-250.0,-69.0,-3.0,70.0,1.0,-48.0,-977.0,-315.0
-18.0,-253.0,-68.0,-4.0,70.0,3.0,-49.0,-971.0,-312.0
-20.0,-253.0,-67.0,-3.0,72.0,1.0,-46.0,-980.0,-316.0
-19.0,-252.0,-66.0,-3.0,71.0,1.0,-43.0,-978.0,-311.0
-17.0,-251.0,-68.0,-5.0,70.0,1.0,-48.0,-974.0,-317.0
-15.0,-251.0,-68.0,-5.0,71.0,0.0,-46.0,-973.0,-313.0
-19.0,-249.0,-67.0,-4.0,70.0,0.0,-45.0,-976.0,-313.0
-17.0,-252.0,-68.0,-4.0,70.0,0.0,-47.0,-974.0,-311.0
-19.0,-248.0,-67.0,-3.0,70.0,0.0,-50.0,-970.0,-310.0
-17.0,-255.0,-65.0,-1.0,69.0,2.0,-51.0,-975.0,-318.0
-20.0,-248.0,-71.0,0.0,67.0,-1.0,-50.0,-974.0,-317.0
-20.0,-252.0,-65.0,1.0,68.0,0.0,-50.0,-975.0,-311.0
-19.0,-249.0,-68.0,1.0,68.0,0.0,-48.0,-977.0,-310.0
-20.0,-250.0,-66.0,2.0,66.0,2.0,-51.0,-977.0,-312.0
-19.0,-253.0,-67.0,5.0,67.0,3.0,-51.0,-976.0,-316.0
-21.0,-252.0,-67.0,4.0,65.0,2.0,-53.0,-978.0,-322.0
-20.0,-249.0,-70.0,3.0,67.0,1.0,-45.0,-970.0,-319.0
-17.0,-250.0,-70.0,0.0,69.0,1.0,-50.0,-971.0,-311.0
-17.0,-252.0,-66.0,-2.0,69.0,2.0,-49.0,-971.0,-323.0
-18.0,-246.0,-69.0,-4.0,70.0,-1.0,-53.0,-971.0,-319.0
-9.0,-240.0,-64.0,-8.0,71.0,-2.0,-48.0,-971.0,-312.0
-17.0,-251.0,-67.0,-8.0,70.0,-2.0,-47.0,-967.0,-315.0
-19.0,-252.0,-66.0,-10.0,72.0,-3.0,-48.0,-977.0,-317.0
-19.0,-251.0,-67.0,-10.0,70.0,-4.0,-48.0,-975.0,-312.0
-20.0,-250.0,-66.0,-8.0,71.0,-3.0,-49.0,-977.0,-311.0
-19.0,-253.0,-71.0,-7.0,68.0,-3.0,-52.0,-977.0,-316.0
-19.0,-252.0,-68.0,-6.0,67.0,-2.0,-55.0,-979.0,-314.0
-18.0,-255.0,-70.0,-5.0,67.0,-1.0,-50.0,-976.0,-323.0
-20.0,-249.0,-65.0,-3.0,66.0,1.0,-49.0,-986.0,-320.0
-18.0,-250.0,-69.0,-6.0,65.0,1.0,-46.0,-976.0,-325.0
-12.0,-250.0,-68.0,-6.0,64.0,3.0,-51.0,-979.0,-323.0
-19.0,-250.0,-67.0,-6.0,62.0,4.0,-47.0,-974.0,-317.0
-18.0,-251.0,-66.0,-8.0,61.0,4.0,-53.0,-974.0,-315.0
-17.0,-251.0,-68.0,-10.0,61.0,3.0,-50.0,-974.0,-317.0
-18.0,-251.0,-66.0,-10.0,61.0,3.0,-47.0,-977.0,-314.0
-18.0,-253.0,-66.0,-11.0,60.0,5.0,-49.0,-973.0,-314.0
-19.0,-250.0,-68.0,-11.0,59.0,4.0,-48.0,-970.0,-313.0
-17.0,-250.0,-67.0,-10.0,59.0,3.0,-51.0,-972.0,-322.0
-18.0,-250.0,-66.0,-9.0,59.0,2.0,-50.0,-976.0,-312.0
-19.0,-251.0,-68.0,-9.0,61.0,1.0,-49.0,-972.0,-317.0
-20.0,-248.0,-66.0,-10.0,60.0,-1.0,-50.0,-971.0,-311.0
-22.0,-253.0,-66.0,-8.0,61.0,-2.0,-47.0,-971.0,-309.0
-17.0,-260.0,-76.0,-8.0,64.0,-3.0,-50.0,-977.0,-310.0
-19.0,-250.0,-63.0,-10.0,63.0,-3.0,-54.0,-979.0,-306.0
-22.0,-254.0,-69.0,-10.0,66.0,-4.0,-56.0,-975.0,-312.0
-19.0,-257.0,-67.0,-12.0,65.0,-3.0,-50.0,-973.0,-316.0
-21.0,-252.0,-66.0,-12.0,65.0,-2.0,-54.0,-975.0,-317.0
-23.0,-250.0,-73.0,-12.0,66.0,-1.0,-57.0,-976.0,-314.0
-25.0,-256.0,-66.0,-10.0,66.0,-1.0,-54.0,-976.0,-310.0
-15.0,-253.0,-68.0,-10.0,65.0,0.0,-53.0,-983.0,-308.0
-22.0,-249.0,-69.0,-9.0,65.0,1.0,-50.0,-976.0,-312.0
-24.0,-251.0,-63.0,-6.0,62.0,1.0,-51.0,-978.0,-317.0
-21.0,-251.0,-65.0,-6.0,61.0,2.0,-49.0,-979.0,-316.0
-21.0,-252.0,-67.0,-4.0,60.0,3.0,-55.0,-974.0,-314.0
-19.0,-253.0,-69.0,-2.0,59.0,2.0,-50.0,-973.0,-314.0
-16.0,-251.0,-66.0,-1.0,57.0,2.0,-49.0,-978.0,-318.0
-14.0,-245.0,-61.0,-1.0,56.0,2.0,-45.0,-975.0,-321.0
-13.0,-253.0,-73.0,-1.0,56.0,3.0,-48.0,-979.0,-319.0
-10.0,-248.0,-61.0,-2.0,55.0,2.0,-51.0,-975.0,-311.0
-20.0,-249.0,-67.0,-2.0,54.0,1.0,-50.0,-980.0,-311.0
-16.0,-250.0,-62.0,-4.0,55.0,0.0,-53.0,-975.0,-311.0
-14.0,-252.0,-62.0,-5.0,56.0,-1.0,-53.0,-978.0,-313.0
-21.0,-245.0,-69.0,-7.0,57.0,-3.0,-52.0,-971.0,-306.0
-21.0,-249.0,-65.0,-8.0,59.0,-2.0,-48.0,-973.0,-310.0
-20.0,-255.0,-70.0,-10.0,60.0,-3.0,-51.0,-976.0,-309.0
-14.0,-252.0,-70.0,-10.0,62.0,-3.0,-53.0,-974.0,-312.0
-17.0,-248.0,-68.0,-9.0,63.0,-3.0,-50.0,-980.0,-310.0
-16.0,-250.0,-66.0,-8.0,62.0,-4.0,-54.0,-980.0,-309.0
-17.0,-252.0,-66.0,-9.0,63.0,-5.0,-49.0,-975.0,-315.0
-21.0,-252.0,-63.0,-6.0,62.0,-5.0,-53.0,-977.0,-310.0
-19.0,-255.0,-67.0,-5.0,61.0,-3.0,-49.0,-977.0,-312.0
-13.0,-240.0,-77.0,-3.0,60.0,-5.0,-49.0,-973.0,-308.0
-21.0,-253.0,-69.0,-1.0,59.0,-6.0,-52.0,-982.0,-317.0
-23.0,-252.0,-76.0,1.0,58.0,-4.0,-52.0,-978.0,-317.0
-20.0,-246.0,-73.0,2.0,58.0,-3.0,-52.0,-984.0,-310.0
-23.0,-248.0,-83.0,2.0,56.0,-4.0,-49.0,-975.0,-311.0
-21.0,-253.0,-64.0,3.0,54.0,-2.0,-53.0,-977.0,-310.0
-22.0,-253.0,-64.0,3.0,54.0,-2.0,-49.0,-981.0,-309.0
-17.0,-250.0,-68.0,4.0,52.0,-3.0,-51.0,-976.0,-312.0
-21.0,-249.0,-67.0,5.0,52.0,-3.0,-46.0,-976.0,-313.0
-22.0,-253.0,-67.0,6.0,52.0,-3.0,-52.0,-972.0,-312.0
-20.0,-247.0,-82.0,7.0,54.0,-3.0,-54.0,-976.0,-308.0
-21.0,-249.0,-71.0,6.0,55.0,-6.0,-49.0,-978.0,-311.0
-17.0,-251.0,-66.0,5.0,54.0,-6.0,-49.0,-978.0,-310.0
-19.0,-252.0,-65.0,4.0,55.0,-5.0,-51.0,-974.0,-314.0
-22.0,-250.0,-66.0,2.0,54.0,-7.0,-49.0,-974.0,-309.0
-19.0,-254.0,-63.0,0.0,56.0,-7.0,-53.0,-975.0,-310.0
-15.0,-247.0,-67.0,-2.0,56.0,-7.0,-49.0,-972.0,-310.0
-11.0,-246.0,-69.0,-2.0,57.0,-8.0,-49.0,-980.0,-308.0
-21.0,-250.0,-64.0,-4.0,57.0,-7.0,-52.0,-974.0,-309.0
-21.0,-254.0,-75.0,-4.0,58.0,-7.0,-48.0,-977.0,-314.0
-11.0,-254.0,-56.0,-5.0,60.0,-8.0,-48.0,-975.0,-313.0
-18.0,-251.0,-64.0,-4.0,59.0,-7.0,-46.0,-973.0,-316.0
-25.0,-253.0,-64.0,-3.0,58.0,-7.0,-51.0,-977.0,-311.0
-19.0,-242.0,-65.0,-3.0,59.0,-7.0,-48.0,-974.0,-309.0
-18.0,-252.0,-72.0,-2.0,59.0,-8.0,-50.0,-974.0,-305.0
-12.0,-253.0,-69.0,-1.0,59.0,-6.0,-48.0,-977.0,-309.0
-16.0,-251.0,-67.0,0.0,59.0,-5.0,-45.0,-977.0,-308.0
-19.0,-250.0,-67.0,2.0,58.0,-5.0,-49.0,-975.0,-310.0
-21.0,-251.0,-64.0,2.0,57.0,-5.0,-56.0,-972.0,-312.0
-20.0,-250.0,-68.0,2.0,57.0,-5.0,-47.0,-975.0,-311.0
-20.0,-242.0,-72.0,0.0,57.0,-6.0,-48.0,-984.0,-312.0
-24.0,-257.0,-66.0,1.0,57.0,-5.0,-49.0,-979.0,-313.0
-13.0,-251.0,-73.0,1.0,58.0,-4.0,-47.0,-977.0,-308.0
-23.0,-247.0,-70.0,1.0,56.0,-6.0,-49.0,-976.0,-312.0
-15.0,-248.0,-79.0,0.0,57.0,-6.0,-51.0,-978.0,-312.0
-16.0,-254.0,-62.0,-1.0,58.0,-5.0,-47.0,-974.0,-313.0
-16.0,-256.0,-79.0,-1.0,59.0,-5.0,-47.0,-978.0,-311.0
-22.0,-256.0,-63.0,-3.0,61.0,-4.0,-47.0,-975.0,-317.0
-14.0,-258.0,-61.0,-3.0,61.0,-5.0,-47.0,-979.0,-306.0
-21.0,-256.0,-54.0,-4.0,62.0,-4.0,-46.0,-972.0,-311.0
-18.0,-245.0,-59.0,-5.0,63.0,-3.0,-50.0,-973.0,-309.0
-15.0,-249.0,-71.0,-7.0,63.0,-6.0,-47.0,-976.0,-310.0
-19.0,-250.0,-67.0,-7.0,63.0,-6.0,-52.0,-975.0,-311.0
-22.0,-251.0,-68.0,-9.0,64.0,-5.0,-57.0,-978.0,-313.0
-19.0,-250.0,-68.0,-10.0,64.0,-7.0,-48.0,-977.0,-309.0
-17.0,-253.0,-67.0,-10.0,65.0,-8.0,-51.0,-975.0,-311.0
-9.0,-268.0,-45.0,-10.0,65.0,-6.0,-52.0,-974.0,-310.0
-14.0,-250.0,-60.0,-11.0,64.0,-6.0,-54.0,-974.0,-306.0
-16.0,-253.0,-71.0,-11.0,61.0,-7.0,-51.0,-978.0,-313.0
-15.0,-246.0,-77.0,-11.0,63.0,-7.0,-52.0,-979.0,-305.0
-30.0,-253.0,-74.0,-10.0,61.0,-7.0,-50.0,-976.0,-303.0
-11.0,-253.0,-73.0,-9.0,60.0,-6.0,-50.0,-979.0,-309.0
-29.0,-245.0,-70.0,-10.0,60.0,-4.0,-51.0,-973.0,-308.0
-13.0,-248.0,-62.0,-10.0,60.0,-4.0,-50.0,-972.0,-313.0
-18.0,-252.0,-60.0,-11.0,61.0,-2.0,-52.0,-975.0,-310.0
-12.0,-249.0,-47.0,-10.0,61.0,-2.0,-45.0,-973.0,-314.0
-18.0,-248.0,-68.0,-10.0,60.0,-2.0,-53.0,-974.0,-312.0
-18.0,-252.0,-65.0,-10.0,59.0,-2.0,-57.0,-976.0,-307.0
-19.0,-250.0,-68.0,-11.0,59.0,-1.0,-49.0,-975.0,-310.0
-20.0,-251.0,-64.0,-11.0,59.0,-1.0,-48.0,-975.0,-309.0
-17.0,-247.0,-74.0,-13.0,59.0,-4.0,-53.0,-977.0,-307.0
-18.0,-251.0,-65.0,-15.0,59.0,-3.0,-49.0,-977.0,-309.0
-22.0,-252.0,-64.0,-15.0,58.0,-2.0,-53.0,-975.0,-311.0
-21.0,-251.0,-65.0,-13.0,58.0,-1.0,-52.0,-978.0,-305.0
-21.0,-253.0,-72.0,-12.0,58.0,-2.0,-52.0,-981.0,-309.0
-27.0,-247.0,-72.0,-11.0,59.0,-2.0,-55.0,-986.0,-309.0
-21.0,-250.0,-67.0,-6.0,58.0,-1.0,-57.0,-980.0,-311.0
-19.0,-250.0,-61.0,-7.0,57.0,0.0,-53.0,-978.0,-312.0
-21.0,-249.0,-65.0,-7.0,56.0,-1.0,-55.0,-981.0,-308.0
-21.0,-249.0,-68.0,-9.0,57.0,-2.0,-55.0,-975.0,-310.0
-22.0,-251.0,-72.0,-7.0,59.0,-1.0,-52.0,-973.0,-308.0
-20.0,-251.0,-68.0,-7.0,59.0,-1.0,-56.0,-972.0,-318.0
-21.0,-250.0,-65.0,-7.0,58.0,-2.0,-50.0,-974.0,-314.0
-19.0,-247.0,-68.0,-9.0,60.0,-2.0,-52.0,-975.0,-311.0
-19.0,-249.0,-65.0,-11.0,62.0,-3.0,-52.0,-975.0,-316.0
-27.0,-261.0,-63.0,-13.0,64.0,-5.0,-54.0,-973.0,-308.0
-18.0,-250.0,-66.0,-14.0,66.0,-7.0,-47.0,-972.0,-304.0
-20.0,-250.0,-67.0,-13.0,67.0,-8.0,-52.0,-970.0,-308.0
-19.0,-250.0,-65.0,-13.0,65.0,-7.0,-50.0,-975.0,-309.0
-20.0,-249.0,-72.0,-15.0,65.0,-9.0,-49.0,-976.0,-304.0
-19.0,-251.0,-62.0,-14.0,66.0,-7.0,-53.0,-975.0,-308.0
-21.0,-254.0,-65.0,-14.0,64.0,-6.0,-51.0,-972.0,-310.0
-19.0,-252.0,-66.0,-13.0,63.0,-6.0,-56.0,-981.0,-308.0
-20.0,-251.0,-67.0,-13.0,64.0,-6.0,-48.0,-976.0,-311.0
-20.0,-250.0,-66.0,-13.0,62.0,-4.0,-53.0,-973.0,-314.0
-21.0,-253.0,-66.0,-14.0,62.0,-4.0,-51.0,-976.0,-313.0
-21.0,-249.0,-70.0,-18.0,62.0,-4.0,-50.0,-972.0,-307.0
-18.0,-252.0,-63.0,-21.0,62.0,-2.0,-48.0,-975.0,-311.0
-20.0,-250.0,-68.0,-21.0,62.0,-2.0,-52.0,-973.0,-304.0
-21.0,-251.0,-66.0,-22.0,62.0,-4.0,-50.0,-979.0,-305.0
-18.0,-250.0,-66.0,-22.0,62.0,-4.0,-51.0,-981.0,-306.0
-19.0,-252.0,-67.0,-22.0,60.0,-4.0,-53.0,-981.0,-309.0
-20.0,-250.0,-64.0,-23.0,63.0,-4.0,-46.0,-974.0,-306.0
-16.0,-254.0,-65.0,-22.0,64.0,-4.0,-48.0,-973.0,-309.0
-19.0,-251.0,-69.0,-20.0,66.0,-5.0,-52.0,-974.0,-309.0
-19.0,-252.0,-66.0,-17.0,68.0,-5.0,-51.0,-971.0,-303.0
-16.0,-253.0,-66.0,-16.0,69.0,-4.0,-48.0,-976.0,-306.0
-19.0,-250.0,-67.0,-13.0,72.0,-5.0,-45.0,-976.0,-306.0
-17.0,-251.0,-65.0,-13.0,75.0,-5.0,-48.0,-977.0,-310.0
-17.0,-253.0,-67.0,-13.0,75.0,-4.0,-53.0,-975.0,-307.0
-19.0,-251.0,-65.0,-13.0,76.0,-3.0,-54.0,-978.0,-309.0
-20.0,-249.0,-65.0,-14.0,77.0,-2.0,-54.0,-979.0,-310.0
-18.0,-251.0,-67.0,-14.0,79.0,-2.0,-52.0,-977.0,-308.0
-21.0,-251.0,-65.0,-12.0,79.0,-1.0,-54.0,-975.0,-309.0
-20.0,-249.0,-68.0,-10.0,78.0,1.0,-53.0,-975.0,-312.0
-19.0,-254.0,-66.0,-10.0,79.0,0.0,-53.0,-977.0,-312.0
-21.0,-251.0,-67.0,-11.0,78.0,1.0,-52.0,-979.0,-315.0
-22.0,-248.0,-67.0,-11.0,77.0,2.0,-54.0,-979.0,-313.0
-19.0,-249.0,-65.0,-11.0,76.0,2.0,-47.0,-973.0,-310.0
-19.0,-249.0,-68.0,-12.0,72.0,2.0,-48.0,-975.0,-315.0
-22.0,-252.0,-67.0,-12.0,70.0,0.0,-52.0,-980.0,-307.0
-21.0,-251.0,-67.0,-14.0,69.0,-2.0,-47.0,-978.0,-310.0
-16.0,-253.0,-66.0,-15.0,67.0,-1.0,-51.0,-978.0,-310.0
-18.0,-250.0,-65.0,-15.0,66.0,-1.0,-52.0,-980.0,-310.0
-17.0,-251.0,-65.0,-17.0,66.0,-4.0,-51.0,-977.0,-308.0
-19.0,-250.0,-68.0,-20.0,64.0,-4.0,-56.0,-978.0,-311.0
-18.0,-253.0,-66.0,-21.0,66.0,-6.0,-50.0,-977.0,-305.0
-19.0,-251.0,-65.0,-21.0,67.0,-7.0,-50.0,-978.0,-309.0
-19.0,-251.0,-67.0,-20.0,68.0,-7.0,-57.0,-971.0,-305.0
-20.0,-253.0,-65.0,-20.0,68.0,-5.0,-50.0,-980.0,-307.0
-18.0,-250.0,-65.0,-20.0,69.0,-5.0,-51.0,-976.0,-311.0
-22.0,-250.0,-66.0,-18.0,70.0,-3.0,-52.0,-977.0,-315.0
-19.0,-251.0,-65.0,-17.0,68.0,-4.0,-51.0,-977.0,-314.0
-18.0,-253.0,-68.0,-15.0,68.0,-3.0,-53.0,-978.0,-311.0
-20.0,-250.0,-68.0,-13.0,68.0,-3.0,-51.0,-979.0,-314.0
-16.0,-252.0,-66.0,-14.0,67.0,-4.0,-54.0,-980.0,-312.0
-22.0,-251.0,-69.0,-12.0,67.0,-4.0,-53.0,-977.0,-313.0
-20.0,-252.0,-65.0,-11.0,66.0,-2.0,-51.0,-981.0,-312.0
-18.0,-253.0,-65.0,-9.0,66.0,-1.0,-53.0,-978.0,-311.0
-17.0,-253.0,-67.0,-7.0,64.0,-3.0,-53.0,-979.0,-307.0
-21.0,-249.0,-65.0,-5.0,65.0,-3.0,-54.0,-977.0,-316.0
-20.0,-251.0,-65.0,-3.0,63.0,-4.0,-49.0,-974.0,-307.0
-19.0,-251.0,-65.0,-4.0,62.0,-2.0,-47.0,-978.0,-307.0
-22.0,-250.0,-65.0,-5.0,63.0,-3.0,-48.0,-974.0,-306.0
-18.0,-251.0,-67.0,-6.0,62.0,-3.0,-48.0,-972.0,-306.0
-18.0,-249.0,-69.0,-6.0,63.0,-3.0,-49.0,-973.0,-310.0
-17.0,-254.0,-67.0,-6.0,62.0,-3.0,-50.0,-977.0,-310.0
-19.0,-249.0,-65.0,-5.0,62.0,-4.0,-54.0,-977.0,-303.0
-19.0,-253.0,-66.0,-6.0,60.0,-4.0,-48.0,-971.0,-311.0
-23.0,-250.0,-65.0,-8.0,63.0,-6.0,-53.0,-972.0,-307.0
-22.0,-248.0,-65.0,-11.0,64.0,-5.0,-50.0,-980.0,-309.0
-19.0,-251.0,-66.0,-12.0,66.0,-5.0,-51.0,-975.0,-314.0
-19.0,-251.0,-63.0,-12.0,67.0,-6.0,-54.0,-971.0,-309.0
-20.0,-248.0,-66.0,-13.0,67.0,-6.0,-50.0,-975.0,-306.0
-21.0,-252.0,-70.0,-15.0,68.0,-5.0,-53.0,-976.0,-308.0
-14.0,-247.0,-64.0,-16.0,68.0,-4.0,-47.0,-973.0,-311.0
-20.0,-253.0,-66.0,-16.0,69.0,-3.0,-52.0,-977.0,-308.0
-20.0,-250.0,-67.0,-16.0,68.0,-3.0,-53.0,-977.0,-310.0
-19.0,-252.0,-67.0,-17.0,69.0,-4.0,-50.0,-977.0,-307.0
-17.0,-255.0,-64.0,-15.0,69.0,-3.0,-53.0,-975.0,-310.0
-18.0,-253.0,-69.0,-16.0,70.0,-3.0,-51.0,-975.0,-303.0
-22.0,-251.0,-67.0,-16.0,69.0,-3.0,-53.0,-979.0,-317.0
-17.0,-251.0,-66.0,-14.0,69.0,-3.0,-51.0,-978.0,-307.0
-17.0,-253.0,-69.0,-14.0,67.0,-4.0,-54.0,-981.0,-311.0
-16.0,-252.0,-69.0,-14.0,66.0,-2.0,-53.0,-977.0,-316.0
-18.0,-252.0,-66.0,-15.0,65.0,-4.0,-48.0,-976.0,-312.0
-19.0,-250.0,-69.0,-17.0,65.0,-5.0,-48.0,-975.0,-316.0
-17.0,-251.0,-66.0,-17.0,64.0,-4.0,-54.0,-977.0,-319.0
-17.0,-250.0,-67.0,-18.0,64.0,-4.0,-50.0,-973.0,-308.0
-18.0,-254.0,-68.0,-16.0,65.0,-5.0,-53.0,-978.0,-309.0
-20.0,-250.0,-66.0,-17.0,65.0,-5.0,-46.0,-973.0,-308.0
-20.0,-251.0,-66.0,-17.0,64.0,-5.0,-50.0,-977.0,-309.0
-18.0,-252.0,-69.0,-18.0,63.0,-5.0,-53.0,-977.0,-312.0
-19.0,-250.0,-65.0,-17.0,64.0,-6.0,-52.0,-978.0,-312.0
-18.0,-251.0,-67.0,-18.0,65.0,-6.0,-61.0,-973.0,-312.0
-15.0,-252.0,-65.0,-19.0,64.0,-6.0,-50.0,-975.0,-312.0
-25.0,-252.0,-63.0,-20.0,64.0,-6.0,-51.0,-977.0,-319.0
-20.0,-251.0,-71.0,-20.0,64.0,-5.0,-54.0,-977.0,-318.0
-19.0,-252.0,-70.0,-20.0,63.0,-5.0,-54.0,-975.0,-310.0
-19.0,-252.0,-66.0,-21.0,64.0,-5.0,-59.0,-977.0,-317.0
-15.0,-251.0,-67.0,-19.0,64.0,-5.0,-53.0,-978.0,-315.0
-20.0,-251.0,-67.0,-19.0,64.0,-6.0,-53.0,-974.0,-316.0
-18.0,-247.0,-64.0,-19.0,64.0,-6.0,-51.0,-977.0,-312.0
-18.0,-250.0,-68.0,-17.0,64.0,-5.0,-51.0,-978.0,-315.0
-20.0,-251.0,-68.0,-17.0,64.0,-5.0,-53.0,-973.0,-311.0
-18.0,-253.0,-67.0,-18.0,66.0,-4.0,-53.0,-981.0,-307.0
-19.0,-250.0,-67.0,-16.0,66.0,-4.0,-50.0,-980.0,-310.0
-17.0,-251.0,-65.0,-16.0,66.0,-3.0,-49.0,-979.0,-317.0
-18.0,-252.0,-63.0,-14.0,66.0,-3.0,-54.0,-974.0,-313.0
-17.0,-252.0,-66.0,-14.0,66.0,-3.0,-52.0,-977.0,-315.0
-18.0,-251.0,-66.0,-13.0,66.0,-4.0,-51.0,-978.0,-312.0
-15.0,-252.0,-68.0,-14.0,66.0,-3.0,-49.0,-977.0,-307.0
-18.0,-254.0,-66.0,-13.0,66.0,-2.0,-55.0,-975.0,-307.0
-19.0,-252.0,-65.0,-13.0,66.0,-2.0,-50.0,-977.0,-309.0
-17.0,-252.0,-66.0,-13.0,66.0,-2.0,-44.0,-973.0,-310.0
-16.0,-252.0,-67.0,-14.0,66.0,-3.0,-53.0,-971.0,-315.0
-20.0,-253.0,-66.0,-13.0,67.0,-3.0,-48.0,-973.0,-315.0
-19.0,-251.0,-68.0,-14.0,68.0,-2.0,-50.0,-972.0,-310.0
-20.0,-248.0,-63.0,-15.0,69.0,-1.0,-51.0,-972.0,-316.0
-19.0,-251.0,-67.0,-16.0,69.0,0.0,-49.0,-972.0,-314.0
-19.0,-252.0,-66.0,-16.0,70.0,-2.0,-50.0,-977.0,-298.0
-20.0,-250.0,-69.0,-15.0,69.0,-1.0,-54.0,-978.0,-313.0
-19.0,-250.0,-68.0,-14.0,69.0,-2.0,-49.0,-976.0,-316.0
-18.0,-252.0,-66.0,-14.0,67.0,0.0,-49.0,-978.0,-315.0
-18.0,-249.0,-65.0,-12.0,68.0,-1.0,-50.0,-978.0,-313.0
-23.0,-252.0,-66.0,-14.0,66.0,-1.0,-48.0,-980.0,-313.0
-19.0,-251.0,-68.0,-15.0,66.0,0.0,-52.0,-974.0,-316.0
-20.0,-247.0,-69.0,-14.0,67.0,-1.0,-50.0,-977.0,-318.0
-18.0,-252.0,-64.0,-14.0,66.0,-1.0,-54.0,-973.0,-313.0
-17.0,-251.0,-69.0,-14.0,68.0,-2.0,-53.0,-973.0,-310.0
-18.0,-250.0,-67.0,-17.0,70.0,-4.0,-52.0,-975.0,-312.0
-22.0,-250.0,-67.0,-19.0,70.0,-3.0,-54.0,-973.0,-308.0
-22.0,-249.0,-70.0,-22.0,71.0,-5.0,-54.0,-974.0,-311.0
-19.0,-252.0,-67.0,-21.0,72.0,-5.0,-51.0,-978.0,-311.0
-20.0,-249.0,-66.0,-21.0,74.0,-6.0,-57.0,-977.0,-304.0
-16.0,-251.0,-67.0,-19.0,74.0,-5.0,-51.0,-973.0,-309.0
-20.0,-250.0,-67.0,-17.0,75.0,-6.0,-50.0,-981.0,-316.0
-17.0,-253.0,-67.0,-15.0,74.0,-5.0,-52.0,-978.0,-311.0
-17.0,-252.0,-67.0,-15.0,73.0,-3.0,-48.0,-978.0,-317.0
-19.0,-250.0,-66.0,-14.0,72.0,-3.0,-48.0,-977.0,-310.0
-36.0,-261.0,-59.0,-13.0,71.0,-4.0,-48.0,-975.0,-312.0
-23.0,-251.0,-69.0,-14.0,70.0,-3.0,-51.0,-974.0,-319.0
-17.0,-252.0,-67.0,-15.0,69.0,-2.0,-52.0,-977.0,-319.0
-20.0,-252.0,-68.0,-16.0,67.0,-1.0,-51.0,-970.0,-313.0
-23.0,-249.0,-66.0,-18.0,67.0,0.0,-51.0,-976.0,-311.0
-17.0,-248.0,-65.0,-18.0,65.0,-3.0,-51.0,-971.0,-314.0
-19.0,-251.0,-66.0,-20.0,65.0,-2.0,-57.0,-976.0,-316.0
-18.0,-252.0,-68.0,-21.0,66.0,-3.0,-51.0,-975.0,-312.0
-22.0,-249.0,-71.0,-22.0,67.0,-2.0,-50.0,-973.0,-310.0
-17.0,-248.0,-66.0,-22.0,67.0,-2.0,-48.0,-982.0,-307.0
-17.0,-250.0,-65.0,-22.0,68.0,-4.0,-49.0,-975.0,-308.0
-16.0,-252.0,-65.0,-20.0,67.0,-5.0,-46.0,-977.0,-314.0
-17.0,-252.0,-70.0,-21.0,68.0,-6.0,-45.0,-974.0,-307.0
-17.0,-252.0,-67.0,-21.0,70.0,-6.0,-46.0,-978.0,-307.0
-18.0,-249.0,-66.0,-22.0,69.0,-7.0,-48.0,-975.0,-310.0
-19.0,-251.0,-66.0,-22.0,70.0,-8.0,-51.0,-978.0,-312.0
-19.0,-251.0,-68.0,-24.0,70.0,-10.0,-47.0,-975.0,-307.0
-19.0,-253.0,-68.0,-24.0,72.0,-8.0,-53.0,-981.0,-312.0
-18.0,-249.0,-69.0,-23.0,73.0,-7.0,-52.0,-977.0,-317.0
-19.0,-250.0,-65.0,-22.0,73.0,-8.0,-52.0,-977.0,-309.0
-19.0,-251.0,-67.0,-22.0,72.0,-7.0,-52.0,-982.0,-308.0
-20.0,-247.0,-66.0,-19.0,71.0,-6.0,-56.0,-976.0,-314.0
-15.0,-250.0,-63.0,-17.0,70.0,-6.0,-51.0,-979.0,-312.0
-18.0,-254.0,-68.0,-16.0,68.0,-5.0,-53.0,-976.0,-321.0
-19.0,-252.0,-68.0,-14.0,67.0,-4.0,-51.0,-981.0,-312.0
-17.0,-251.0,-65.0,-11.0,63.0,-5.0,-51.0,-977.0,-319.0
-16.0,-249.0,-66.0,-12.0,63.0,-4.0,-53.0,-979.0,-315.0
-20.0,-249.0,-66.0,-11.0,61.0,-4.0,-52.0,-979.0,-319.0
-19.0,-252.0,-67.0,-10.0,61.0,-6.0,-47.0,-976.0,-316.0
-18.0,-250.0,-68.0,-11.0,59.0,-5.0,-52.0,-976.0,-316.0
-19.0,-250.0,-68.0,-10.0,58.0,-6.0,-49.0,-977.0,-316.0
-21.0,-252.0,-68.0,-13.0,59.0,-6.0,-44.0,-973.0,-316.0
-17.0,-251.0,-67.0,-15.0,58.0,-5.0,-46.0,-973.0,-324.0
-19.0,-251.0,-69.0,-16.0,59.0,-7.0,-51.0,-972.0,-319.0
-20.0,-251.0,-69.0,-19.0,62.0,-7.0,-49.0,-977.0,-319.0
-17.0,-252.0,-67.0,-21.0,62.0,-8.0,-53.0,-972.0,-313.0
-17.0,-252.0,-70.0,-23.0,64.0,-9.0,-46.0,-977.0,-317.0
-16.0,-248.0,-66.0,-24.0,65.0,-11.0,-53.0,-979.0,-318.0
-16.0,-254.0,-66.0,-25.0,66.0,-11.0,-49.0,-977.0,-319.0
-17.0,-252.0,-67.0,-24.0,66.0,-11.0,-54.0,-974.0,-320.0
-20.0,-251.0,-68.0,-23.0,67.0,-11.0,-47.0,-976.0,-317.0
-20.0,-249.0,-72.0,-23.0,66.0,-10.0,-48.0,-978.0,-315.0
-20.0,-250.0,-70.0,-21.0,65.0,-9.0,-54.0,-974.0,-317.0
-19.0,-248.0,-72.0,-20.0,64.0,-9.0,-51.0,-972.0,-321.0
-15.0,-252.0,-65.0,-18.0,63.0,-11.0,-50.0,-976.0,-315.0
-18.0,-251.0,-70.0,-17.0,64.0,-11.0,-48.0,-976.0,-315.0
-20.0,-250.0,-65.0,-16.0,63.0,-11.0,-52.0,-976.0,-318.0
-18.0,-252.0,-66.0,-15.0,62.0,-10.0,-43.0,-976.0,-316.0
-20.0,-251.0,-69.0,-15.0,60.0,-11.0,-44.0,-974.0,-310.0
-17.0,-254.0,-70.0,-14.0,60.0,-10.0,-51.0,-972.0,-317.0
-19.0,-249.0,-68.0,-14.0,59.0,-10.0,-52.0,-975.0,-316.0
-18.0,-248.0,-68.0,-14.0,59.0,-10.0,-53.0,-972.0,-313.0
-19.0,-252.0,-69.0,-16.0,58.0,-10.0,-46.0,-973.0,-321.0
-20.0,-251.0,-68.0,-17.0,59.0,-10.0,-50.0,-971.0,-311.0
-17.0,-252.0,-68.0,-17.0,58.0,-10.0,-49.0,-974.0,-311.0
-16.0,-249.0,-68.0,-18.0,59.0,-10.0,-51.0,-974.0,-317.0
-19.0,-252.0,-68.0,-18.0,61.0,-10.0,-48.0,-974.0,-317.0
-17.0,-250.0,-70.0,-19.0,63.0,-9.0,-44.0,-972.0,-316.0
-18.0,-247.0,-65.0,-20.0,62.0,-11.0,-52.0,-973.0,-314.0
-19.0,-252.0,-68.0,-21.0,63.0,-11.0,-50.0,-973.0,-318.0
-18.0,-251.0,-69.0,-20.0,64.0,-11.0,-51.0,-974.0,-320.0
-18.0,-249.0,-69.0,-22.0,65.0,-10.0,-50.0,-969.0,-310.0
-18.0,-250.0,-66.0,-22.0,65.0,-11.0,-46.0,-978.0,-320.0
-19.0,-251.0,-70.0,-22.0,65.0,-10.0,-46.0,-979.0,-315.0
-20.0,-252.0,-66.0,-24.0,64.0,-10.0,-47.0,-974.0,-313.0
-19.0,-256.0,-62.0,-22.0,65.0,-10.0,-48.0,-982.0,-311.0
-18.0,-248.0,-65.0,-23.0,65.0,-12.0,-48.0,-977.0,-316.0
-22.0,-250.0,-71.0,-23.0,66.0,-10.0,-43.0,-970.0,-309.0
-16.0,-252.0,-68.0,-21.0,66.0,-10.0,-48.0,-971.0,-317.0
-16.0,-252.0,-67.0,-21.0,65.0,-10.0,-51.0,-973.0,-309.0
-20.0,-249.0,-66.0,-22.0,66.0,-9.0,-50.0,-979.0,-312.0
-19.0,-250.0,-67.0,-22.0,65.0,-9.0,-52.0,-971.0,-312.0
-18.0,-251.0,-67.0,-21.0,64.0,-9.0,-52.0,-972.0,-314.0
-19.0,-249.0,-65.0,-21.0,62.0,-9.0,-52.0,-975.0,-319.0
-18.0,-248.0,-72.0,-21.0,62.0,-9.0,-51.0,-975.0,-315.0
-15.0,-251.0,-67.0,-22.0,62.0,-10.0,-53.0,-980.0,-312.0
-19.0,-249.0,-68.0,-23.0,61.0,-9.0,-49.0,-974.0,-316.0
-20.0,-253.0,-66.0,-24.0,63.0,-8.0,-48.0,-979.0,-318.0
-18.0,-253.0,-69.0,-24.0,62.0,-10.0,-47.0,-972.0,-325.0
-17.0,-249.0,-65.0,-23.0,63.0,-11.0,-50.0,-974.0,-324.0
-20.0,-248.0,-67.0,-22.0,62.0,-11.0,-49.0,-975.0,-319.0
-20.0,-250.0,-70.0,-22.0,63.0,-10.0,-47.0,-978.0,-321.0
-16.0,-254.0,-69.0,-22.0,63.0,-11.0,-46.0,-975.0,-318.0
-20.0,-250.0,-73.0,-22.0,64.0,-11.0,-47.0,-974.0,-317.0
-21.0,-248.0,-69.0,-22.0,63.0,-11.0,-52.0,-971.0,-322.0
-21.0,-252.0,-67.0,-21.0,61.0,-10.0,-48.0,-973.0,-319.0
-18.0,-251.0,-70.0,-22.0,60.0,-10.0,-48.0,-972.0,-317.0
-11.0,-252.0,-62.0,-22.0,62.0,-9.0,-44.0,-972.0,-324.0
-18.0,-251.0,-67.0,-22.0,61.0,-9.0,-54.0,-973.0,-317.0
-17.0,-251.0,-67.0,-23.0,62.0,-10.0,-48.0,-973.0,-317.0
-18.0,-251.0,-71.0,-24.0,62.0,-10.0,-46.0,-971.0,-320.0
-21.0,-251.0,-69.0,-24.0,61.0,-9.0,-48.0,-973.0,-321.0
-18.0,-249.0,-68.0,-23.0,62.0,-8.0,-52.0,-972.0,-322.0
-18.0,-252.0,-71.0,-25.0,62.0,-8.0,-51.0,-978.0,-323.0
-17.0,-254.0,-66.0,-24.0,60.0,-9.0,-50.0,-973.0,-320.0
-20.0,-250.0,-67.0,-23.0,59.0,-8.0,-49.0,-975.0,-315.0
-20.0,-249.0,-67.0,-23.0,59.0,-9.0,-45.0,-973.0,-321.0
-16.0,-250.0,-65.0,-23.0,60.0,-9.0,-48.0,-972.0,-317.0
-20.0,-249.0,-72.0,-22.0,60.0,-9.0,-50.0,-977.0,-326.0
-21.0,-250.0,-73.0,-22.0,60.0,-9.0,-49.0,-972.0,-323.0
-19.0,-249.0,-69.0,-20.0,60.0,-9.0,-45.0,-972.0,-319.0
-20.0,-250.0,-66.0,-19.0,60.0,-9.0,-50.0,-972.0,-322.0
-20.0,-250.0,-67.0,-19.0,61.0,-8.0,-47.0,-972.0,-316.0
-21.0,-248.0,-67.0,-19.0,62.0,-8.0,-50.0,-971.0,-324.0
-18.0,-251.0,-66.0,-20.0,61.0,-9.0,-49.0,-976.0,-320.0
-17.0,-248.0,-71.0,-20.0,63.0,-9.0,-44.0,-971.0,-321.0
-15.0,-250.0,-67.0,-20.0,63.0,-8.0,-50.0,-973.0,-315.0
-18.0,-250.0,-68.0,-20.0,64.0,-8.0,-44.0,-971.0,-316.0
-17.0,-249.0,-65.0,-22.0,64.0,-7.0,-52.0,-973.0,-322.0
-14.0,-251.0,-61.0,-22.0,62.0,-7.0,-48.0,-975.0,-321.0
-20.0,-249.0,-66.0,-22.0,63.0,-8.0,-45.0,-972.0,-322.0
-18.0,-250.0,-68.0,-19.0,62.0,-9.0,-46.0,-977.0,-315.0
-14.0,-253.0,-69.0,-20.0,61.0,-8.0,-46.0,-971.0,-318.0
-18.0,-250.0,-68.0,-20.0,60.0,-8.0,-47.0,-975.0,-320.0
-19.0,-249.0,-70.0,-20.0,60.0,-6.0,-49.0,-975.0,-324.0
-19.0,-249.0,-67.0,-17.0,59.0,-5.0,-45.0,-974.0,-320.0
-16.0,-253.0,-67.0,-14.0,59.0,-4.0,-44.0,-972.0,-324.0
-18.0,-251.0,-69.0,-15.0,60.0,-3.0,-47.0,-970.0,-319.0
-18.0,-250.0,-69.0,-15.0,61.0,-3.0,-50.0,-970.0,-322.0
-19.0,-249.0,-72.0,-16.0,61.0,-5.0,-47.0,-972.0,-325.0
-18.0,-249.0,-72.0,-18.0,63.0,-5.0,-46.0,-974.0,-324.0
-17.0,-249.0,-70.0,-21.0,63.0,-6.0,-45.0,-971.0,-323.0
-19.0,-250.0,-69.0,-23.0,65.0,-7.0,-44.0,-973.0,-325.0
-18.0,-251.0,-68.0,-25.0,67.0,-8.0,-44.0,-971.0,-319.0
-17.0,-250.0,-66.0,-25.0,67.0,-9.0,-48.0,-971.0,-318.0
-16.0,-250.0,-72.0,-25.0,67.0,-9.0,-47.0,-972.0,-319.0
-17.0,-249.0,-66.0,-23.0,66.0,-9.0,-46.0,-971.0,-325.0
-15.0,-253.0,-68.0,-21.0,67.0,-9.0,-43.0,-974.0,-326.0
-18.0,-251.0,-71.0,-21.0,67.0,-7.0,-47.0,-970.0,-327.0
-19.0,-248.0,-66.0,-19.0,67.0,-7.0,-50.0,-978.0,-325.0
-19.0,-250.0,-72.0,-19.0,65.0,-7.0,-46.0,-978.0,-326.0
-10.0,-254.0,-70.0,-18.0,66.0,-6.0,-49.0,-976.0,-324.0
-19.0,-250.0,-68.0,-20.0,65.0,-4.0,-47.0,-970.0,-321.0
-18.0,-248.0,-69.0,-20.0,66.0,-4.0,-48.0,-973.0,-322.0
-17.0,-247.0,-69.0,-20.0,66.0,-2.0,-48.0,-973.0,-323.0
-19.0,-251.0,-70.0,-21.0,64.0,-1.0,-46.0,-978.0,-320.0
-19.0,-248.0,-68.0,-20.0,63.0,0.0,-48.0,-972.0,-323.0
-16.0,-251.0,-69.0,-20.0,64.0,0.0,-45.0,-971.0,-325.0
-16.0,-250.0,-69.0,-19.0,66.0,-1.0,-44.0,-973.0,-318.0
-17.0,-250.0,-70.0,-17.0,65.0,-1.0,-47.0,-968.0,-327.0
-17.0,-248.0,-69.0,-13.0,65.0,-2.0,-49.0,-971.0,-319.0
-19.0,-245.0,-71.0,-11.0,66.0,-4.0,-41.0,-972.0,-319.0
-16.0,-254.0,-69.0,-11.0,67.0,-4.0,-44.0,-974.0,-325.0
-19.0,-251.0,-67.0,-9.0,68.0,-5.0,-49.0,-970.0,-319.0
-18.0,-250.0,-71.0,-10.0,68.0,-5.0,-48.0,-974.0,-322.0
-18.0,-250.0,-71.0,-9.0,69.0,-4.0,-47.0,-973.0,-323.0
-18.0,-251.0,-70.0,-10.0,70.0,-4.0,-49.0,-978.0,-321.0
-20.0,-250.0,-67.0,-10.0,68.0,-6.0,-47.0,-976.0,-324.0
-15.0,-250.0,-70.0,-11.0,68.0,-6.0,-50.0,-976.0,-326.0
-19.0,-246.0,-67.0,-11.0,69.0,-6.0,-49.0,-976.0,-325.0
-19.0,-252.0,-68.0,-10.0,69.0,-6.0,-49.0,-971.0,-326.0
-20.0,-251.0,-66.0,-10.0,67.0,-5.0,-48.0,-971.0,-323.0
-20.0,-252.0,-69.0,-10.0,67.0,-4.0,-49.0,-971.0,-324.0
-20.0,-251.0,-70.0,-10.0,68.0,-3.0,-51.0,-974.0,-323.0
-19.0,-251.0,-67.0,-9.0,65.0,-4.0,-49.0,-974.0,-323.0
-19.0,-250.0,-68.0,-9.0,65.0,-3.0,-45.0,-976.0,-318.0
-21.0,-248.0,-70.0,-10.0,65.0,-2.0,-45.0,-972.0,-323.0
-17.0,-252.0,-67.0,-10.0,62.0,-2.0,-54.0,-970.0,-325.0
-16.0,-250.0,-68.0,-9.0,63.0,-2.0,-49.0,-976.0,-328.0
-18.0,-248.0,-70.0,-7.0,60.0,-3.0,-44.0,-977.0,-324.0
-18.0,-252.0,-73.0,-7.0,60.0,-2.0,-48.0,-977.0,-326.0
-19.0,-249.0,-68.0,-8.0,60.0,-2.0,-49.0,-972.0,-326.0
-17.0,-250.0,-72.0,-8.0,60.0,-2.0,-45.0,-972.0,-321.0
-17.0,-252.0,-68.0,-8.0,59.0,-3.0,-51.0,-974.0,-325.0
-17.0,-252.0,-71.0,-8.0,61.0,-2.0,-48.0,-972.0,-321.0
-19.0,-250.0,-69.0,-9.0,61.0,-3.0,-47.0,-972.0,-320.0
-21.0,-250.0,-69.0,-9.0,61.0,-3.0,-48.0,-973.0,-321.0
-16.0,-250.0,-69.0,-10.0,62.0,-3.0,-54.0,-970.0,-320.0
-18.0,-250.0,-68.0,-10.0,63.0,-4.0,-49.0,-978.0,-323.0
-20.0,-252.0,-66.0,-8.0,64.0,-4.0,-51.0,-976.0,-319.0
-20.0,-250.0,-72.0,-6.0,64.0,-4.0,-45.0,-975.0,-324.0
-19.0,-252.0,-71.0,-4.0,63.0,-4.0,-52.0,-974.0,-325.0
-19.0,-254.0,-71.0,-4.0,65.0,-4.0,-48.0,-978.0,-322.0
-13.0,-253.0,-70.0,-2.0,65.0,-5.0,-48.0,-977.0,-323.0
-17.0,-252.0,-67.0,-2.0,64.0,-4.0,-49.0,-974.0,-326.0
-18.0,-250.0,-68.0,-1.0,63.0,-5.0,-45.0,-976.0,-322.0
-17.0,-251.0,-68.0,-1.0,63.0,-3.0,-48.0,-971.0,-322.0
-17.0,-252.0,-69.0,0.0,64.0,-3.0,-49.0,-971.0,-322.0
-15.0,-248.0,-69.0,0.0,62.0,-2.0,-49.0,-974.0,-319.0
-15.0,-251.0,-67.0,-1.0,63.0,-2.0,-47.0,-970.0,-323.0
-15.0,-252.0,-68.0,-2.0,65.0,-1.0,-47.0,-970.0,-323.0
-18.0,-248.0,-69.0,-3.0,67.0,0.0,-43.0,-972.0,-321.0
-19.0,-255.0,-69.0,-4.0,66.0,0.0,-44.0,-971.0,-322.0
-17.0,-250.0,-70.0,-5.0,69.0,-1.0,-44.0,-976.0,-324.0
-17.0,-252.0,-68.0,-6.0,69.0,0.0,-49.0,-975.0,-322.0
-20.0,-248.0,-71.0,-6.0,70.0,-2.0,-47.0,-970.0,-325.0
-20.0,-249.0,-72.0,-7.0,73.0,-2.0,-47.0,-969.0,-328.0
-18.0,-251.0,-68.0,-10.0,75.0,-1.0,-47.0,-970.0,-323.0
-16.0,-249.0,-68.0,-13.0,79.0,-2.0,-49.0,-969.0,-325.0
-19.0,-251.0,-72.0,-17.0,81.0,-2.0,-43.0,-971.0,-326.0
-16.0,-250.0,-67.0,-23.0,86.0,-2.0,-45.0,-969.0,-325.0
-20.0,-250.0,-69.0,-30.0,92.0,-1.0,-47.0,-969.0,-333.0
-16.0,-250.0,-69.0,-34.0,98.0,-2.0,-48.0,-970.0,-332.0
-19.0,-252.0,-74.0,-36.0,101.0,-3.0,-53.0,-969.0,-333.0
-19.0,-252.0,-71.0,-38.0,105.0,-3.0,-52.0,-973.0,-331.0
-16.0,-252.0,-72.0,-38.0,107.0,-5.0,-47.0,-975.0,-333.0
-17.0,-250.0,-75.0,-38.0,108.0,-8.0,-48.0,-969.0,-334.0
-19.0,-251.0,-71.0,-36.0,108.0,-8.0,-50.0,-969.0,-335.0
-17.0,-250.0,-74.0,-32.0,106.0,-11.0,-45.0,-974.0,-336.0
-20.0,-250.0,-74.0,-27.0,103.0,-11.0,-49.0,-970.0,-336.0
-17.0,-251.0,-73.0,-26.0,100.0,-12.0,-45.0,-970.0,-339.0
-16.0,-249.0,-73.0,-25.0,96.0,-13.0,-48.0,-971.0,-342.0
-16.0,-248.0,-73.0,-27.0,90.0,-14.0,-47.0,-971.0,-343.0
-15.0,-249.0,-72.0,-30.0,87.0,-12.0,-48.0,-967.0,-341.0
-18.0,-248.0,-77.0,-34.0,83.0,-13.0,-49.0,-973.0,-350.0
-19.0,-249.0,-76.0,-38.0,79.0,-13.0,-49.0,-975.0,-348.0
-22.0,-245.0,-74.0,-42.0,75.0,-12.0,-57.0,-969.0,-346.0
-21.0,-246.0,-74.0,-46.0,71.0,-12.0,-50.0,-967.0,-352.0
-19.0,-249.0,-75.0,-50.0,67.0,-11.0,-51.0,-964.0,-352.0
-19.0,-246.0,-78.0,-57.0,64.0,-11.0,-50.0,-967.0,-353.0
-20.0,-247.0,-72.0,-62.0,61.0,-11.0,-61.0,-963.0,-349.0
-19.0,-247.0,-76.0,-70.0,58.0,-13.0,-55.0,-962.0,-349.0
-19.0,-246.0,-75.0,-77.0,55.0,-13.0,-56.0,-964.0,-351.0
-18.0,-247.0,-75.0,-84.0,52.0,-13.0,-54.0,-959.0,-350.0
-20.0,-244.0,-75.0,-91.0,49.0,-13.0,-53.0,-962.0,-350.0
-21.0,-247.0,-77.0,-99.0,46.0,-14.0,-45.0,-958.0,-351.0
-21.0,-244.0,-73.0,-108.0,43.0,-13.0,-56.0,-957.0,-347.0
-19.0,-243.0,-75.0,-116.0,40.0,-14.0,-56.0,-958.0,-348.0
-23.0,-253.0,-74.0,-124.0,36.0,-15.0,-52.0,-956.0,-352.0
-19.0,-248.0,-76.0,-131.0,33.0,-15.0,-49.0,-961.0,-356.0
-20.0,-245.0,-78.0,-140.0,31.0,-16.0,-54.0,-957.0,-353.0
-19.0,-248.0,-76.0,-147.0,27.0,-15.0,-50.0,-963.0,-355.0
-18.0,-243.0,-77.0,-152.0,25.0,-17.0,-48.0,-955.0,-357.0
-17.0,-245.0,-80.0,-159.0,23.0,-16.0,-49.0,-953.0,-357.0
-18.0,-245.0,-74.0,-162.0,21.0,-18.0,-47.0,-956.0,-358.0
-18.0,-245.0,-78.0,-165.0,18.0,-21.0,-48.0,-962.0,-354.0
-20.0,-246.0,-77.0,-167.0,16.0,-21.0,-48.0,-964.0,-359.0
-20.0,-247.0,-79.0,-171.0,15.0,-21.0,-50.0,-963.0,-362.0
-17.0,-247.0,-79.0,-172.0,13.0,-22.0,-44.0,-958.0,-357.0
-15.0,-248.0,-81.0,-173.0,13.0,-23.0,-47.0,-961.0,-364.0
-18.0,-245.0,-77.0,-175.0,10.0,-22.0,-52.0,-960.0,-364.0
-19.0,-244.0,-82.0,-178.0,12.0,-22.0,-51.0,-952.0,-369.0
-17.0,-244.0,-82.0,-181.0,14.0,-20.0,-47.0,-958.0,-368.0
-14.0,-247.0,-78.0,-181.0,14.0,-22.0,-44.0,-963.0,-367.0
-17.0,-244.0,-82.0,-182.0,13.0,-23.0,-45.0,-962.0,-373.0
-17.0,-247.0,-83.0,-183.0,10.0,-24.0,-47.0,-952.0,-374.0
-17.0,-244.0,-84.0,-183.0,8.0,-23.0,-44.0,-958.0,-379.0
-18.0,-246.0,-86.0,-183.0,8.0,-24.0,-44.0,-955.0,-379.0
-14.0,-247.0,-81.0,-187.0,4.0,-24.0,-48.0,-951.0,-378.0
-17.0,-245.0,-85.0,-189.0,4.0,-25.0,-43.0,-957.0,-375.0
-17.0,-241.0,-90.0,-188.0,4.0,-26.0,-43.0,-951.0,-377.0
-21.0,-243.0,-86.0,-191.0,3.0,-27.0,-37.0,-950.0,-384.0
-16.0,-241.0,-81.0,-195.0,3.0,-27.0,-47.0,-948.0,-381.0
-16.0,-246.0,-86.0,-197.0,6.0,-26.0,-40.0,-952.0,-383.0
-17.0,-244.0,-87.0,-200.0,6.0,-26.0,-43.0,-948.0,-389.0
-18.0,-239.0,-89.0,-201.0,4.0,-27.0,-44.0,-946.0,-392.0
-19.0,-241.0,-89.0,-205.0,2.0,-24.0,-42.0,-941.0,-397.0
-13.0,-241.0,-90.0,-208.0,1.0,-24.0,-49.0,-943.0,-398.0
-16.0,-242.0,-88.0,-211.0,0.0,-23.0,-42.0,-944.0,-398.0
-16.0,-238.0,-91.0,-215.0,-1.0,-22.0,-39.0,-943.0,-406.0
-15.0,-238.0,-92.0,-219.0,-3.0,-23.0,-36.0,-943.0,-406.0
-16.0,-243.0,-93.0,-223.0,-5.0,-21.0,-39.0,-943.0,-409.0
-17.0,-238.0,-91.0,-230.0,-5.0,-22.0,-45.0,-937.0,-409.0
-11.0,-241.0,-95.0,-239.0,-8.0,-19.0,-35.0,-936.0,-414.0
-16.0,-238.0,-94.0,-249.0,-9.0,-18.0,-39.0,-929.0,-418.0
-14.0,-239.0,-94.0,-263.0,-8.0,-18.0,-30.0,-925.0,-417.0
-16.0,-237.0,-97.0,-276.0,-8.0,-20.0,-39.0,-929.0,-424.0
-14.0,-235.0,-95.0,-292.0,-7.0,-18.0,-31.0,-922.0,-430.0
-14.0,-233.0,-95.0,-308.0,-7.0,-19.0,-37.0,-924.0,-432.0
-15.0,-234.0,-96.0,-325.0,-9.0,-20.0,-37.0,-922.0,-432.0
-14.0,-235.0,-100.0,-340.0,-11.0,-20.0,-37.0,-921.0,-445.0
-15.0,-231.0,-105.0,-355.0,-12.0,-18.0,-36.0,-917.0,-434.0
-11.0,-233.0,-98.0,-366.0,-12.0,-18.0,-31.0,-915.0,-441.0
-16.0,-233.0,-101.0,-378.0,-10.0,-20.0,-36.0,-920.0,-452.0
-17.0,-232.0,-100.0,-392.0,-10.0,-21.0,-34.0,-917.0,-450.0
-14.0,-233.0,-102.0,-410.0,-11.0,-22.0,-38.0,-913.0,-460.0
-16.0,-231.0,-102.0,-426.0,-10.0,-23.0,-37.0,-908.0,-462.0
-17.0,-233.0,-102.0,-441.0,-8.0,-23.0,-41.0,-910.0,-462.0
-14.0,-231.0,-105.0,-455.0,-8.0,-24.0,-36.0,-912.0,-460.0
-13.0,-233.0,-107.0,-464.0,-8.0,-20.0,-39.0,-916.0,-464.0
-15.0,-239.0,-102.0,-471.0,-6.0,-21.0,-37.0,-917.0,-462.0
-14.0,-236.0,-107.0,-471.0,-5.0,-16.0,-44.0,-912.0,-472.0
-14.0,-233.0,-110.0,-471.0,-4.0,-12.0,-28.0,-910.0,-472.0
-14.0,-232.0,-107.0,-468.0,1.0,-6.0,-33.0,-903.0,-478.0
-13.0,-229.0,-111.0,-462.0,4.0,-5.0,-35.0,-897.0,-485.0
-16.0,-228.0,-106.0,-466.0,8.0,-14.0,-35.0,-901.0,-477.0
-14.0,-228.0,-108.0,-471.0,12.0,-18.0,-36.0,-893.0,-482.0
-16.0,-229.0,-107.0,-476.0,13.0,-23.0,-40.0,-892.0,-471.0
-13.0,-227.0,-107.0,-479.0,11.0,-24.0,-48.0,-885.0,-472.0
-16.0,-228.0,-104.0,-479.0,10.0,-22.0,-38.0,-890.0,-469.0
-14.0,-231.0,-105.0,-467.0,10.0,-21.0,-38.0,-895.0,-463.0
-18.0,-225.0,-109.0,-460.0,12.0,-30.0,-39.0,-883.0,-469.0
-18.0,-221.0,-106.0,-469.0,10.0,-44.0,-57.0,-864.0,-474.0
-30.0,-221.0,-109.0,-506.0,10.0,-60.0,-62.0,-864.0,-460.0
-23.0,-215.0,-102.0,-527.0,8.0,-62.0,-65.0,-854.0,-457.0
-19.0,-216.0,-108.0,-530.0,4.0,-55.0,-54.0,-859.0,-467.0
-23.0,-216.0,-107.0,-538.0,9.0,-63.0,-58.0,-853.0,-474.0
-22.0,-217.0,-103.0,-547.0,11.0,-70.0,-60.0,-857.0,-469.0
-20.0,-219.0,-103.0,-548.0,13.0,-69.0,-65.0,-859.0,-462.0
-22.0,-214.0,-105.0,-554.0,17.0,-69.0,-65.0,-847.0,-456.0
-21.0,-221.0,-103.0,-556.0,18.0,-70.0,-63.0,-863.0,-454.0
-23.0,-229.0,-92.0,-529.0,17.0,-76.0,-77.0,-875.0,-427.0
-19.0,-221.0,-102.0,-453.0,9.0,-71.0,-59.0,-873.0,-463.0
-19.0,-225.0,-107.0,-427.0,9.0,-73.0,-42.0,-889.0,-461.0
-18.0,-221.0,-107.0,-433.0,17.0,-91.0,-69.0,-861.0,-460.0
-21.0,-223.0,-100.0,-456.0,16.0,-102.0,-53.0,-863.0,-452.0
-18.0,-221.0,-105.0,-459.0,6.0,-111.0,-56.0,-859.0,-458.0
-18.0,-219.0,-102.0,-452.0,-2.0,-114.0,-57.0,-850.0,-465.0
-20.0,-216.0,-108.0,-461.0,-4.0,-113.0,-62.0,-843.0,-474.0
-18.0,-212.0,-108.0,-474.0,-14.0,-110.0,-51.0,-838.0,-478.0
-19.0,-211.0,-114.0,-492.0,-19.0,-114.0,-53.0,-841.0,-496.0
-18.0,-209.0,-112.0,-525.0,-11.0,-114.0,-59.0,-831.0,-498.0
-18.0,-207.0,-118.0,-577.0,-13.0,-112.0,-63.0,-826.0,-502.0
-22.0,-210.0,-113.0,-636.0,-12.0,-111.0,-61.0,-837.0,-504.0
-19.0,-213.0,-116.0,-682.0,-11.0,-110.0,-55.0,-841.0,-504.0
-29.0,-216.0,-117.0,-711.0,-9.0,-115.0,-65.0,-856.0,-494.0
-20.0,-218.0,-118.0,-701.0,-10.0,-116.0,-66.0,-857.0,-499.0
-23.0,-225.0,-107.0,-687.0,-14.0,-117.0,-61.0,-859.0,-496.0
-19.0,-224.0,-114.0,-672.0,-31.0,-111.0,-43.0,-878.0,-490.0
-16.0,-230.0,-114.0,-647.0,-42.0,-112.0,-40.0,-886.0,-497.0
-20.0,-223.0,-115.0,-626.0,-42.0,-120.0,-46.0,-883.0,-506.0
-17.0,-221.0,-114.0,-628.0,-48.0,-124.0,-37.0,-879.0,-516.0
-14.0,-224.0,-117.0,-631.0,-48.0,-130.0,-38.0,-875.0,-522.0
-14.0,-223.0,-121.0,-638.0,-45.0,-134.0,-43.0,-872.0,-526.0
-13.0,-222.0,-125.0,-647.0,-42.0,-133.0,-40.0,-869.0,-535.0
-13.0,-219.0,-124.0,-646.0,-37.0,-140.0,-46.0,-858.0,-535.0
-10.0,-214.0,-129.0,-647.0,-35.0,-142.0,-36.0,-849.0,-558.0
-15.0,-212.0,-127.0,-668.0,-28.0,-143.0,-42.0,-836.0,-556.0
-16.0,-215.0,-127.0,-691.0,-31.0,-139.0,-45.0,-850.0,-531.0
-16.0,-212.0,-126.0,-691.0,-33.0,-143.0,-47.0,-835.0,-549.0
-17.0,-213.0,-128.0,-697.0,-27.0,-150.0,-55.0,-833.0,-552.0
-19.0,-214.0,-123.0,-702.0,-20.0,-151.0,-51.0,-836.0,-540.0
-16.0,-215.0,-124.0,-701.0,-19.0,-151.0,-55.0,-840.0,-541.0
-17.0,-211.0,-128.0,-684.0,-17.0,-151.0,-51.0,-827.0,-549.0
-21.0,-211.0,-128.0,-669.0,-8.0,-156.0,-57.0,-826.0,-548.0
-13.0,-212.0,-128.0,-661.0,-4.0,-156.0,-47.0,-826.0,-557.0
-21.0,-205.0,-128.0,-657.0,7.0,-164.0,-56.0,-811.0,-556.0
-9.0,-200.0,-124.0,-656.0,9.0,-165.0,-50.0,-807.0,-558.0
-18.0,-205.0,-127.0,-662.0,8.0,-165.0,-53.0,-795.0,-568.0
-18.0,-208.0,-129.0,-670.0,2.0,-162.0,-45.0,-807.0,-564.0
-20.0,-204.0,-128.0,-666.0,3.0,-161.0,-48.0,-799.0,-571.0
-15.0,-203.0,-127.0,-665.0,0.0,-158.0,-42.0,-796.0,-568.0
-17.0,-202.0,-127.0,-668.0,-8.0,-155.0,-35.0,-788.0,-563.0
-12.0,-200.0,-127.0,-672.0,-17.0,-147.0,-36.0,-786.0,-569.0
-17.0,-196.0,-133.0,-679.0,-24.0,-138.0,-37.0,-785.0,-571.0
-13.0,-202.0,-130.0,-688.0,-29.0,-134.0,-44.0,-790.0,-570.0
-13.0,-203.0,-135.0,-684.0,-30.0,-131.0,-38.0,-788.0,-580.0
-14.0,-199.0,-137.0,-680.0,-26.0,-132.0,-37.0,-779.0,-594.0
-11.0,-196.0,-140.0,-682.0,-16.0,-131.0,-32.0,-774.0,-603.0
-12.0,-197.0,-142.0,-683.0,-1.0,-132.0,-32.0,-775.0,-602.0
-12.0,-195.0,-140.0,-687.0,9.0,-136.0,-25.0,-770.0,-614.0
-8.0,-193.0,-140.0,-702.0,19.0,-140.0,-21.0,-762.0,-614.0
-9.0,-193.0,-139.0,-705.0,31.0,-139.0,-10.0,-757.0,-606.0
-6.0,-198.0,-142.0,-711.0,37.0,-134.0,-7.0,-776.0,-606.0
-5.0,-193.0,-143.0,-707.0,44.0,-141.0,-11.0,-761.0,-613.0
-3.0,-192.0,-140.0,-715.0,55.0,-137.0,9.0,-765.0,-617.0
0.0,-195.0,-142.0,-725.0,65.0,-133.0,10.0,-774.0,-615.0
0.0,-198.0,-147.0,-715.0,80.0,-137.0,15.0,-771.0,-635.0
1.0,-195.0,-151.0,-696.0,93.0,-137.0,12.0,-756.0,-651.0
0.0,-194.0,-153.0,-688.0,101.0,-135.0,25.0,-755.0,-645.0
0.0,-193.0,-152.0,-683.0,98.0,-133.0,26.0,-747.0,-649.0
-2.0,-191.0,-149.0,-668.0,98.0,-128.0,14.0,-742.0,-661.0
0.0,-189.0,-152.0,-660.0,94.0,-123.0,7.0,-731.0,-653.0
-1.0,-186.0,-152.0,-655.0,85.0,-121.0,1.0,-729.0,-651.0
-2.0,-187.0,-146.0,-654.0,78.0,-115.0,-3.0,-723.0,-642.0
-8.0,-186.0,-148.0,-647.0,72.0,-111.0,-16.0,-717.0,-647.0
-10.0,-185.0,-147.0,-639.0,72.0,-106.0,-23.0,-724.0,-631.0
-9.0,-187.0,-144.0,-624.0,71.0,-96.0,-29.0,-725.0,-630.0
-12.0,-186.0,-143.0,-616.0,75.0,-86.0,-32.0,-723.0,-619.0
-14.0,-189.0,-143.0,-612.0,84.0,-79.0,-34.0,-728.0,-619.0
-11.0,-189.0,-145.0,-615.0,87.0,-72.0,-29.0,-728.0,-626.0
-7.0,-189.0,-148.0,-628.0,90.0,-63.0,-29.0,-732.0,-637.0
-9.0,-191.0,-148.0,-650.0,94.0,-65.0,-20.0,-750.0,-641.0
-7.0,-192.0,-153.0,-665.0,94.0,-68.0,-16.0,-741.0,-660.0
-10.0,-190.0,-156.0,-683.0,95.0,-70.0,-11.0,-740.0,-682.0
-8.0,-191.0,-160.0,-711.0,95.0,-66.0,-9.0,-737.0,-696.0
-4.0,-187.0,-163.0,-735.0,95.0,-64.0,-9.0,-734.0,-709.0
-3.0,-184.0,-170.0,-756.0,91.0,-70.0,-5.0,-737.0,-720.0
-6.0,-179.0,-167.0,-777.0,85.0,-87.0,-18.0,-703.0,-727.0
-5.0,-180.0,-171.0,-779.0,86.0,-84.0,-10.0,-699.0,-733.0
-4.0,-177.0,-173.0,-768.0,88.0,-81.0,-8.0,-690.0,-735.0
-8.0,-177.0,-171.0,-748.0,92.0,-81.0,-23.0,-680.0,-730.0
-9.0,-171.0,-166.0,-724.0,95.0,-75.0,-28.0,-677.0,-720.0
-12.0,-173.0,-161.0,-703.0,102.0,-66.0,-30.0,-674.0,-694.0
-15.0,-176.0,-162.0,-665.0,107.0,-63.0,-38.0,-691.0,-687.0
-12.0,-178.0,-159.0,-628.0,112.0,-57.0,-32.0,-699.0,-677.0
-13.0,-181.0,-153.0,-600.0,113.0,-48.0,-30.0,-704.0,-672.0
-9.0,-182.0,-154.0,-587.0,117.0,-44.0,-15.0,-710.0,-666.0
-6.0,-183.0,-156.0,-580.0,122.0,-37.0,-9.0,-714.0,-675.0
-4.0,-186.0,-162.0,-577.0,122.0,-38.0,2.0,-719.0,-693.0
-3.0,-181.0,-166.0,-582.0,126.0,-35.0,9.0,-712.0,-718.0
0.0,-177.0,-175.0,-609.0,125.0,-35.0,5.0,-703.0,-733.0
0.0,-177.0,-178.0,-649.0,119.0,-33.0,16.0,-701.0,-755.0
-1.0,-177.0,-183.0,-687.0,109.0,-38.0,10.0,-690.0,-786.0
0.0,-171.0,-190.0,-722.0,101.0,-39.0,13.0,-671.0,-812.0
-1.0,-168.0,-191.0,-754.0,94.0,-36.0,11.0,-654.0,-820.0
-2.0,-171.0,-194.0,-776.0,89.0,-37.0,3.0,-671.0,-832.0
-3.0,-165.0,-191.0,-788.0,77.0,-46.0,-5.0,-637.0,-823.0
-2.0,-164.0,-186.0,-768.0,70.0,-33.0,3.0,-624.0,-813.0
-9.0,-162.0,-183.0,-735.0,59.0,-26.0,-20.0,-629.0,-792.0
-7.0,-168.0,-178.0,-681.0,46.0,-26.0,-25.0,-631.0,-768.0
-12.0,-162.0,-174.0,-620.0,33.0,-21.0,-28.0,-637.0,-744.0
-16.0,-173.0,-171.0,-563.0,23.0,-15.0,-29.0,-643.0,-732.0
-10.0,-167.0,-170.0,-527.0,12.0,-10.0,-22.0,-650.0,-723.0
-8.0,-169.0,-166.0,-499.0,-2.0,-7.0,-26.0,-650.0,-722.0
-7.0,-169.0,-171.0,-478.0,-13.0,-6.0,-14.0,-648.0,-729.0
-7.0,-167.0,-174.0,-471.0,-15.0,-12.0,-22.0,-640.0,-755.0
-6.0,-158.0,-181.0,-494.0,-12.0,-22.0,-12.0,-629.0,-767.0
-7.0,-160.0,-181.0,-524.0,-13.0,-30.0,-15.0,-631.0,-780.0
-7.0,-161.0,-188.0,-559.0,-13.0,-37.0,-12.0,-623.0,-807.0
-8.0,-161.0,-190.0,-583.0,-13.0,-46.0,-16.0,-622.0,-827.0
-12.0,-161.0,-192.0,-587.0,-5.0,-61.0,-23.0,-618.0,-836.0
-11.0,-159.0,-195.0,-569.0,-1.0,-69.0,-19.0,-614.0,-850.0
-11.0,-158.0,-193.0,-557.0,-2.0,-80.0,-38.0,-615.0,-849.0
-14.0,-163.0,-193.0,-534.0,-1.0,-86.0,-24.0,-638.0,-841.0
-13.0,-152.0,-191.0,-503.0,-5.0,-94.0,-41.0,-577.0,-828.0
-13.0,-145.0,-184.0,-468.0,-4.0,-84.0,-35.0,-572.0,-792.0
-13.0,-148.0,-178.0,-442.0,-11.0,-76.0,-36.0,-559.0,-761.0
-8.0,-141.0,-173.0,-416.0,-25.0,-69.0,-32.0,-546.0,-741.0
-9.0,-142.0,-173.0,-382.0,-35.0,-58.0,-20.0,-548.0,-729.0
-1.0,-135.0,-170.0,-347.0,-52.0,-48.0,-8.0,-533.0,-716.0
-4.0,-135.0,-165.0,-338.0,-64.0,-43.0,0.0,-528.0,-715.0
-1.0,-133.0,-168.0,-343.0,-72.0,-39.0,4.0,-522.0,-708.0
1.0,-130.0,-166.0,-363.0,-72.0,-35.0,16.0,-515.0,-709.0
1.0,-131.0,-166.0,-390.0,-65.0,-33.0,16.0,-508.0,-719.0
2.0,-128.0,-174.0,-422.0,-54.0,-31.0,20.0,-498.0,-730.0
3.0,-125.0,-175.0,-460.0,-46.0,-29.0,23.0,-483.0,-748.0
1.0,-125.0,-179.0,-513.0,-31.0,-32.0,20.0,-479.0,-761.0
3.0,-122.0,-183.0,-567.0,-11.0,-32.0,20.0,-478.0,-781.0
0.0,-122.0,-189.0,-617.0,12.0,-30.0,17.0,-478.0,-799.0
12.0,-136.0,-194.0,-656.0,38.0,-20.0,46.0,-528.0,-821.0
3.0,-125.0,-197.0,-688.0,57.0,-26.0,20.0,-477.0,-824.0
4.0,-128.0,-195.0,-706.0,75.0,-14.0,36.0,-488.0,-826.0
5.0,-132.0,-193.0,-702.0,83.0,0.0,36.0,-498.0,-830.0
7.0,-135.0,-197.0,-674.0,86.0,10.0,44.0,-503.0,-827.0
9.0,-132.0,-193.0,-631.0,85.0,22.0,45.0,-505.0,-830.0
7.0,-130.0,-191.0,-594.0,81.0,35.0,49.0,-507.0,-813.0
7.0,-132.0,-190.0,-556.0,74.0,44.0,51.0,-498.0,-809.0
6.0,-132.0,-182.0,-516.0,70.0,51.0,42.0,-502.0,-768.0
9.0,-129.0,-182.0,-472.0,64.0,56.0,49.0,-504.0,-765.0
5.0,-127.0,-179.0,-441.0,59.0,61.0,40.0,-495.0,-757.0
7.0,-126.0,-175.0,-421.0,58.0,76.0,35.0,-491.0,-753.0
1.0,-125.0,-176.0,-415.0,66.0,87.0,18.0,-468.0,-741.0
3.0,-119.0,-174.0,-411.0,76.0,89.0,16.0,-457.0,-745.0
1.0,-115.0,-184.0,-416.0,91.0,92.0,9.0,-447.0,-755.0
0.0,-112.0,-184.0,-432.0,108.0,97.0,11.0,-444.0,-773.0
-6.0,-112.0,-182.0,-459.0,124.0,96.0,-10.0,-441.0,-793.0
-3.0,-112.0,-191.0,-496.0,131.0,89.0,3.0,-432.0,-817.0
-8.0,-108.0,-193.0,-544.0,138.0,79.0,-28.0,-425.0,-830.0
-7.0,-108.0,-200.0,-602.0,139.0,86.0,-11.0,-421.0,-853.0
-7.0,-111.0,-199.0,-648.0,135.0,110.0,-15.0,-420.0,-856.0
-10.0,-111.0,-202.0,-665.0,114.0,116.0,-25.0,-419.0,-874.0
-11.0,-113.0,-202.0,-671.0,89.0,113.0,-31.0,-430.0,-873.0
-6.0,-111.0,-205.0,-659.0,65.0,118.0,-31.0,-417.0,-877.0
-14.0,-110.0,-202.0,-623.0,48.0,126.0,-29.0,-414.0,-872.0
-12.0,-109.0,-199.0,-571.0,36.0,132.0,-33.0,-411.0,-860.0
-11.0,-111.0,-194.0,-506.0,24.0,138.0,-48.0,-420.0,-839.0
-9.0,-105.0,-202.0,-445.0,16.0,140.0,-28.0,-410.0,-850.0
-10.0,-105.0,-187.0,-405.0,3.0,136.0,-31.0,-398.0,-798.0
-11.0,-101.0,-183.0,-362.0,-14.0,141.0,-31.0,-378.0,-778.0
-8.0,-95.0,-177.0,-317.0,-24.0,149.0,-27.0,-359.0,-763.0
-3.0,-85.0,-179.0,-297.0,-29.0,159.0,-14.0,-330.0,-761.0
-2.0,-75.0,-181.0,-314.0,-26.0,162.0,-10.0,-293.0,-753.0
0.0,-68.0,-179.0,-360.0,-18.0,177.0,11.0,-265.0,-770.0
0.0,-62.0,-185.0,-430.0,3.0,199.0,9.0,-255.0,-782.0
4.0,-61.0,-186.0,-529.0,19.0,219.0,29.0,-243.0,-790.0
5.0,-54.0,-193.0,-643.0,32.0,221.0,23.0,-218.0,-817.0
12.0,-54.0,-195.0,-765.0,49.0,237.0,50.0,-219.0,-830.0
12.0,-61.0,-199.0,-885.0,55.0,256.0,67.0,-214.0,-844.0
14.0,-53.0,-194.0,-995.0,57.0,268.0,68.0,-205.0,-841.0
16.0,-58.0,-206.0,-1086.0,44.0,270.0,80.0,-237.0,-882.0
18.0,-62.0,-196.0,-1207.0,14.0,273.0,85.0,-234.0,-844.0
22.0,-66.0,-191.0,-1297.0,-14.0,275.0,98.0,-243.0,-808.0
19.0,-67.0,-178.0,-1314.0,-24.0,275.0,90.0,-240.0,-757.0
14.0,-68.0,-177.0,-1285.0,-24.0,264.0,55.0,-250.0,-758.0
4.0,-66.0,-169.0,-1260.0,-23.0,262.0,44.0,-247.0,-729.0
7.0,-65.0,-157.0,-1228.0,-12.0,264.0,36.0,-230.0,-694.0
0.0,-60.0,-156.0,-1160.0,7.0,277.0,21.0,-234.0,-677.0
-4.0,-60.0,-154.0,-1081.0,30.0,289.0,-9.0,-238.0,-657.0
0.0,-59.0,-156.0,-1031.0,41.0,301.0,1.0,-221.0,-663.0
-2.0,-60.0,-145.0,-1011.0,82.0,318.0,-12.0,-227.0,-642.0
0.0,-55.0,-141.0,-992.0,126.0,327.0,-11.0,-197.0,-603.0
1.0,-46.0,-143.0,-975.0,165.0,336.0,1.0,-184.0,-610.0
0.0,-43.0,-140.0,-1007.0,206.0,334.0,-2.0,-165.0,-601.0
-1.0,-36.0,-132.0,-1062.0,245.0,326.0,0.0,-147.0,-580.0
0.0,-32.0,-136.0,-1144.0,273.0,318.0,6.0,-141.0,-602.0
3.0,-32.0,-133.0,-1264.0,281.0,309.0,11.0,-130.0,-582.0
4.0,-37.0,-139.0,-1415.0,266.0,303.0,24.0,-145.0,-583.0
9.0,-41.0,-134.0,-1547.0,255.0,295.0,38.0,-161.0,-598.0
4.0,-25.0,-141.0,-1641.0,247.0,285.0,40.0,-142.0,-596.0
11.0,-41.0,-143.0,-1740.0,228.0,277.0,39.0,-171.0,-591.0
5.0,-39.0,-142.0,-1838.0,214.0,274.0,62.0,-158.0,-587.0
5.0,-39.0,-135.0,-1880.0,206.0,264.0,26.0,-143.0,-568.0
5.0,-47.0,-129.0,-1869.0,171.0,265.0,50.0,-177.0,-565.0
8.0,-34.0,-134.0,-1815.0,152.0,266.0,53.0,-142.0,-570.0
5.0,-34.0,-114.0,-1822.0,153.0,227.0,17.0,-123.0,-500.0
5.0,-37.0,-121.0,-1816.0,156.0,240.0,30.0,-116.0,-511.0
9.0,-34.0,-122.0,-1759.0,180.0,254.0,37.0,-121.0,-527.0
9.0,-38.0,-126.0,-1748.0,197.0,249.0,35.0,-162.0,-517.0
6.0,-34.0,-129.0,-1768.0,225.0,212.0,15.0,-130.0,-540.0
-5.0,-40.0,-106.0,-1848.0,306.0,227.0,-21.0,-137.0,-458.0
-3.0,-30.0,-107.0,-1890.0,349.0,228.0,-9.0,-127.0,-459.0
1.0,-47.0,-101.0,-1823.0,359.0,268.0,28.0,-148.0,-443.0
2.0,-45.0,-96.0,-1705.0,352.0,294.0,18.0,-136.0,-425.0
-8.0,-27.0,-98.0,-1565.0,343.0,311.0,-18.0,-110.0,-416.0
8.0,-25.0,-95.0,-1473.0,332.0,365.0,35.0,-92.0,-418.0
2.0,-32.0,-90.0,-1433.0,314.0,405.0,28.0,-111.0,-391.0
1.0,-34.0,-90.0,-1388.0,262.0,416.0,51.0,-107.0,-415.0
11.0,-40.0,-97.0,-1327.0,227.0,409.0,18.0,-142.0,-418.0
4.0,-34.0,-98.0,-1240.0,217.0,370.0,13.0,-129.0,-407.0
1.0,-49.0,-102.0,-1137.0,185.0,362.0,20.0,-166.0,-451.0
-2.0,-65.0,-130.0,-1001.0,129.0,348.0,-10.0,-222.0,-537.0
6.0,-82.0,-124.0,-877.0,116.0,322.0,29.0,-284.0,-523.0
2.0,-82.0,-131.0,-717.0,112.0,252.0,9.0,-294.0,-565.0
2.0,-85.0,-136.0,-552.0,126.0,196.0,15.0,-304.0,-590.0
-4.0,-93.0,-151.0,-420.0,155.0,182.0,-26.0,-349.0,-619.0
-18.0,-101.0,-155.0,-307.0,195.0,172.0,-47.0,-355.0,-669.0
-19.0,-98.0,-165.0,-181.0,228.0,156.0,-70.0,-376.0,-693.0
-28.0,-99.0,-171.0,-41.0,270.0,161.0,-93.0,-358.0,-739.0
-42.0,-108.0,-177.0,115.0,287.0,175.0,-147.0,-378.0,-748.0
-50.0,-110.0,-178.0,297.0,260.0,180.0,-190.0,-395.0,-772.0
-59.0,-118.0,-177.0,490.0,192.0,187.0,-227.0,-429.0,-777.0
-75.0,-123.0,-180.0,675.0,88.0,190.0,-256.0,-450.0,-763.0
-87.0,-128.0,-170.0,852.0,-53.0,174.0,-312.0,-472.0,-729.0
-81.0,-127.0,-161.0,1033.0,-209.0,131.0,-286.0,-459.0,-690.0
-73.0,-120.0,-160.0,1193.0,-359.0,89.0,-265.0,-448.0,-688.0
-76.0,-121.0,-163.0,1293.0,-513.0,57.0,-251.0,-467.0,-688.0
-62.0,-123.0,-167.0,1350.0,-662.0,20.0,-244.0,-460.0,-714.0
-56.0,-110.0,-180.0,1380.0,-797.0,-33.0,-201.0,-441.0,-762.0
-47.0,-109.0,-194.0,1379.0,-885.0,-85.0,-169.0,-420.0,-796.0
-36.0,-99.0,-191.0,1342.0,-970.0,-136.0,-122.0,-389.0,-826.0
-27.0,-88.0,-198.0,1291.0,-1040.0,-189.0,-113.0,-333.0,-839.0
-26.0,-90.0,-196.0,1258.0,-1083.0,-223.0,-119.0,-342.0,-866.0
-27.0,-94.0,-216.0,1251.0,-1095.0,-234.0,-98.0,-353.0,-918.0
-31.0,-100.0,-230.0,1283.0,-1081.0,-224.0,-106.0,-388.0,-980.0
-24.0,-111.0,-249.0,1344.0,-1063.0,-197.0,-102.0,-402.0,-1037.0
-31.0,-110.0,-261.0,1431.0,-1034.0,-142.0,-123.0,-408.0,-1086.0
-36.0,-96.0,-263.0,1501.0,-1013.0,-53.0,-142.0,-356.0,-1116.0
-36.0,-90.0,-274.0,1586.0,-1004.0,27.0,-115.0,-326.0,-1187.0
-32.0,-98.0,-287.0,1717.0,-1011.0,88.0,-123.0,-345.0,-1214.0
-31.0,-100.0,-294.0,1910.0,-1055.0,118.0,-101.0,-341.0,-1244.0
-23.0,-99.0,-300.0,2150.0,-1125.0,191.0,-84.0,-343.0,-1269.0
-24.0,-108.0,-295.0,2410.0,-1197.0,263.0,-91.0,-361.0,-1250.0
-26.0,-111.0,-298.0,2674.0,-1266.0,319.0,-86.0,-381.0,-1262.0
-26.0,-113.0,-302.0,2913.0,-1318.0,382.0,-80.0,-405.0,-1266.0
-28.0,-116.0,-298.0,3131.0,-1351.0,450.0,-84.0,-402.0,-1267.0
-32.0,-110.0,-289.0,3344.0,-1366.0,529.0,-112.0,-390.0,-1225.0
-44.0,-100.0,-292.0,3562.0,-1383.0,593.0,-168.0,-358.0,-1213.0
-40.0,-92.0,-293.0,3755.0,-1382.0,664.0,-155.0,-342.0,-1217.0
-33.0,-87.0,-298.0,3920.0,-1367.0,739.0,-141.0,-302.0,-1249.0
-45.0,-89.0,-308.0,4079.0,-1347.0,819.0,-187.0,-301.0,-1270.0
-87.0,-96.0,-296.0,4252.0,-1332.0,887.0,-257.0,-342.0,-1268.0
-38.0,-128.0,-311.0,4428.0,-1348.0,944.0,-150.0,-465.0,-1299.0
-54.0,-134.0,-323.0,4581.0,-1319.0,990.0,-204.0,-481.0,-1339.0
-73.0,-122.0,-337.0,4672.0,-1287.0,1039.0,-277.0,-469.0,-1387.0
-72.0,-141.0,-342.0,4718.0,-1266.0,1111.0,-296.0,-536.0,-1404.0
-58.0,-141.0,-363.0,4728.0,-1232.0,1115.0,-236.0,-563.0,-1504.0
-44.0,-165.0,-381.0,4680.0,-1158.0,1120.0,-197.0,-648.0,-1579.0
-37.0,-189.0,-423.0,4619.0,-1066.0,1081.0,-146.0,-717.0,-1744.0
-39.0,-214.0,-453.0,4578.0,-942.0,1045.0,-166.0,-796.0,-1859.0
-47.0,-257.0,-477.0,4591.0,-818.0,1075.0,-194.0,-956.0,-1963.0
-94.0,-296.0,-498.0,4636.0,-711.0,1131.0,-367.0,-1134.0,-2068.0
-128.0,-347.0,-513.0,4662.0,-607.0,1208.0,-465.0,-1291.0,-2167.0
-162.0,-418.0,-534.0,4645.0,-529.0,1262.0,-641.0,-1657.0,-2231.0
-215.0,-501.0,-544.0,4572.0,-522.0,1288.0,-819.0,-1985.0,-2283.0
-216.0,-553.0,-590.0,4497.0,-558.0,1243.0,-820.0,-2202.0,-2481.0
-210.0,-578.0,-642.0,4389.0,-535.0,1150.0,-821.0,-2267.0,-2697.0
-233.0,-612.0,-654.0,4288.0,-474.0,1064.0,-904.0,-2369.0,-2739.0
-285.0,-650.0,-608.0,4314.0,-396.0,1021.0,-1106.0,-2474.0,-2566.0
-351.0,-668.0,-570.0,4584.0,-333.0,924.0,-1355.0,-2531.0,-2396.0
-346.0,-661.0,-556.0,5034.0,-300.0,690.0,-1319.0,-2509.0,-2354.0
-340.0,-635.0,-503.0,5512.0,-267.0,413.0,-1313.0,-2421.0,-2140.0
-286.0,-606.0,-447.0,5988.0,-187.0,177.0,-1128.0,-2310.0,-1893.0
-233.0,-493.0,-390.0,6406.0,-120.0,-63.0,-901.0,-1880.0,-1655.0
-183.0,-402.0,-296.0,6777.0,-73.0,-214.0,-707.0,-1525.0,-1272.0
-153.0,-334.0,-218.0,7202.0,-44.0,-316.0,-563.0,-1272.0,-928.0
-152.0,-278.0,-137.0,7552.0,-50.0,-414.0,-572.0,-1098.0,-603.0
-128.0,-240.0,-91.0,7671.0,-79.0,-501.0,-506.0,-967.0,-363.0
-116.0,-222.0,-57.0,7630.0,-76.0,-582.0,-423.0,-926.0,-236.0
-108.0,-186.0,-40.0,7477.0,-41.0,-691.0,-422.0,-796.0,-143.0
-122.0,-126.0,-19.0,7267.0,5.0,-769.0,-439.0,-592.0,-74.0
-121.0,-70.0,-29.0,7035.0,15.0,-730.0,-473.0,-345.0,-77.0
-109.0,-35.0,-24.0,6827.0,8.0,-580.0,-401.0,-192.0,-103.0
-123.0,-18.0,-30.0,6619.0,-34.0,-404.0,-456.0,-132.0,-117.0
-132.0,-22.0,-21.0,6356.0,-107.0,-221.0,-513.0,-154.0,-78.0
-132.0,-24.0,0.0,6005.0,-193.0,-37.0,-488.0,-186.0,-6.0
-144.0,-17.0,20.0,5560.0,-256.0,178.0,-547.0,-170.0,77.0
-161.0,-41.0,52.0,5007.0,-350.0,457.0,-612.0,-251.0,218.0
-111.0,-55.0,75.0,4478.0,-515.0,747.0,-428.0,-315.0,290.0
-62.0,-38.0,66.0,3958.0,-724.0,979.0,-253.0,-266.0,255.0
-46.0,-61.0,87.0,3360.0,-843.0,1222.0,-138.0,-330.0,332.0
-46.0,-47.0,70.0,2833.0,-959.0,1366.0,-139.0,-267.0,272.0
-39.0,-41.0,65.0,2377.0,-1026.0,1528.0,-171.0,-228.0,241.0
-53.0,-51.0,59.0,1992.0,-1022.0,1678.0,-176.0,-249.0,232.0
-63.0,-57.0,58.0,1699.0,-979.0,1815.0,-240.0,-268.0,213.0
-89.0,-64.0,64.0,1484.0,-894.0,1999.0,-378.0,-288.0,237.0
-118.0,-79.0,72.0,1339.0,-756.0,2198.0,-458.0,-343.0,279.0
-124.0,-98.0,94.0,1277.0,-607.0,2377.0,-483.0,-391.0,354.0
-141.0,-113.0,110.0,1295.0,-547.0,2482.0,-522.0,-449.0,403.0
-161.0,-122.0,120.0,1365.0,-599.0,2509.0,-594.0,-493.0,440.0
-166.0,-135.0,126.0,1445.0,-722.0,2473.0,-619.0,-533.0,474.0
-177.0,-151.0,142.0,1521.0,-867.0,2386.0,-676.0,-593.0,536.0
-175.0,-176.0,132.0,1617.0,-1027.0,2269.0,-667.0,-687.0,524.0
-147.0,-199.0,127.0,1819.0,-1093.0,2164.0,-562.0,-770.0,485.0
-154.0,-201.0,135.0,2021.0,-1136.0,2048.0,-577.0,-791.0,510.0
-142.0,-193.0,132.0,2118.0,-1216.0,1947.0,-542.0,-800.0,516.0
-128.0,-195.0,145.0,2060.0,-1282.0,1839.0,-495.0,-825.0,554.0
-133.0,-192.0,172.0,1904.0,-1331.0,1705.0,-499.0,-799.0,649.0
-94.0,-195.0,184.0,1753.0,-1398.0,1582.0,-423.0,-780.0,687.0
-129.0,-182.0,184.0,1626.0,-1462.0,1443.0,-496.0,-758.0,722.0
-106.0,-173.0,194.0,1479.0,-1546.0,1324.0,-422.0,-711.0,752.0
-96.0,-163.0,204.0,1363.0,-1593.0,1221.0,-377.0,-671.0,799.0
-74.0,-163.0,207.0,1308.0,-1583.0,1157.0,-312.0,-644.0,818.0
-69.0,-163.0,216.0,1270.0,-1551.0,1084.0,-278.0,-655.0,842.0
-90.0,-163.0,224.0,1256.0,-1503.0,1005.0,-292.0,-664.0,859.0
-77.0,-163.0,219.0,1261.0,-1447.0,961.0,-274.0,-673.0,871.0
-79.0,-186.0,240.0,1250.0,-1392.0,926.0,-299.0,-752.0,938.0
-89.0,-188.0,243.0,1251.0,-1353.0,864.0,-334.0,-740.0,960.0
-75.0,-170.0,240.0,1253.0,-1305.0,812.0,-289.0,-721.0,952.0
-98.0,-163.0,258.0,1206.0,-1235.0,760.0,-369.0,-676.0,1024.0
-98.0,-143.0,270.0,1119.0,-1210.0,677.0,-375.0,-616.0,1062.0
-104.0,-132.0,286.0,1002.0,-1179.0,574.0,-397.0,-563.0,1125.0
-110.0,-118.0,309.0,874.0,-1123.0,472.0,-425.0,-512.0,1218.0
-113.0,-105.0,320.0,755.0,-1064.0,377.0,-433.0,-455.0,1259.0
-112.0,-99.0,331.0,648.0,-1035.0,258.0,-429.0,-432.0,1304.0
-101.0,-95.0,337.0,564.0,-1023.0,116.0,-387.0,-409.0,1339.0
-83.0,-91.0,311.0,504.0,-1008.0,-20.0,-316.0,-399.0,1254.0
-103.0,-81.0,330.0,402.0,-963.0,-110.0,-409.0,-354.0,1305.0
-119.0,-75.0,306.0,336.0,-932.0,-203.0,-472.0,-330.0,1202.0
-144.0,-80.0,285.0,305.0,-905.0,-273.0,-551.0,-339.0,1133.0
-136.0,-89.0,271.0,330.0,-900.0,-380.0,-545.0,-362.0,1073.0
-133.0,-97.0,256.0,415.0,-878.0,-491.0,-533.0,-383.0,1009.0
-130.0,-99.0,263.0,524.0,-819.0,-561.0,-520.0,-400.0,1031.0
-124.0,-112.0,270.0,648.0,-730.0,-556.0,-505.0,-444.0,1055.0
-137.0,-119.0,279.0,794.0,-596.0,-479.0,-547.0,-485.0,1111.0
-153.0,-132.0,279.0,878.0,-493.0,-392.0,-601.0,-558.0,1106.0
-144.0,-127.0,272.0,904.0,-372.0,-300.0,-576.0,-545.0,1105.0
-178.0,-144.0,285.0,795.0,-240.0,-176.0,-676.0,-620.0,1126.0
-158.0,-154.0,263.0,724.0,-243.0,-118.0,-613.0,-650.0,1063.0
-159.0,-157.0,239.0,640.0,-264.0,-87.0,-581.0,-670.0,999.0
-150.0,-152.0,224.0,505.0,-285.0,-75.0,-569.0,-638.0,906.0
-155.0,-138.0,213.0,324.0,-299.0,-63.0,-570.0,-616.0,835.0
-162.0,-130.0,190.0,158.0,-301.0,-45.0,-624.0,-562.0,748.0
-176.0,-116.0,175.0,29.0,-275.0,-40.0,-666.0,-507.0,690.0
-199.0,-105.0,178.0,-74.0,-261.0,-59.0,-778.0,-461.0,693.0
-176.0,-85.0,164.0,-171.0,-281.0,-101.0,-674.0,-404.0,652.0
-189.0,-81.0,160.0,-263.0,-280.0,-138.0,-723.0,-364.0,622.0
-192.0,-85.0,158.0,-322.0,-290.0,-164.0,-731.0,-358.0,603.0
-201.0,-105.0,177.0,-347.0,-338.0,-192.0,-778.0,-432.0,685.0
-160.0,-94.0,158.0,-332.0,-414.0,-247.0,-611.0,-386.0,615.0
-170.0,-97.0,164.0,-338.0,-448.0,-265.0,-657.0,-404.0,623.0
-174.0,-110.0,169.0,-329.0,-506.0,-275.0,-661.0,-455.0,649.0
-140.0,-121.0,168.0,-313.0,-603.0,-297.0,-551.0,-503.0,640.0
-129.0,-133.0,166.0,-333.0,-667.0,-303.0,-503.0,-526.0,630.0
-139.0,-141.0,158.0,-351.0,-725.0,-303.0,-518.0,-568.0,614.0
-134.0,-152.0,153.0,-354.0,-798.0,-309.0,-532.0,-631.0,606.0
-110.0,-152.0,137.0,-376.0,-839.0,-306.0,-420.0,-620.0,523.0
-114.0,-154.0,128.0,-400.0,-847.0,-293.0,-435.0,-622.0,485.0
-127.0,-163.0,137.0,-392.0,-852.0,-274.0,-468.0,-655.0,520.0
-116.0,-171.0,137.0,-364.0,-880.0,-260.0,-424.0,-691.0,534.0
-111.0,-182.0,144.0,-329.0,-891.0,-243.0,-407.0,-683.0,562.0
-101.0,-168.0,145.0,-267.0,-910.0,-222.0,-376.0,-678.0,539.0
-103.0,-161.0,135.0,-229.0,-924.0,-202.0,-391.0,-646.0,519.0
-114.0,-162.0,148.0,-177.0,-932.0,-187.0,-426.0,-644.0,562.0
-115.0,-156.0,151.0,-126.0,-951.0,-174.0,-437.0,-634.0,582.0
-118.0,-149.0,154.0,-89.0,-962.0,-155.0,-443.0,-617.0,586.0
-118.0,-145.0,162.0,-59.0,-967.0,-142.0,-445.0,-585.0,607.0
-118.0,-137.0,163.0,-33.0,-971.0,-134.0,-453.0,-564.0,630.0
-117.0,-140.0,167.0,-16.0,-975.0,-129.0,-451.0,-559.0,647.0
-115.0,-134.0,173.0,-5.0,-968.0,-121.0,-447.0,-548.0,676.0
-116.0,-133.0,182.0,7.0,-957.0,-118.0,-437.0,-550.0,697.0
-118.0,-145.0,180.0,24.0,-943.0,-118.0,-421.0,-570.0,719.0
-106.0,-144.0,188.0,46.0,-925.0,-117.0,-401.0,-588.0,728.0
-98.0,-156.0,187.0,71.0,-914.0,-127.0,-379.0,-602.0,724.0
-90.0,-157.0,189.0,103.0,-905.0,-139.0,-353.0,-636.0,732.0
-85.0,-166.0,191.0,149.0,-898.0,-151.0,-331.0,-659.0,739.0
-80.0,-178.0,196.0,209.0,-888.0,-162.0,-308.0,-696.0,761.0
-70.0,-191.0,200.0,298.0,-875.0,-166.0,-275.0,-742.0,781.0
-64.0,-196.0,204.0,398.0,-852.0,-165.0,-240.0,-774.0,788.0
-58.0,-198.0,199.0,487.0,-831.0,-163.0,-200.0,-793.0,790.0
-51.0,-198.0,199.0,552.0,-807.0,-165.0,-167.0,-787.0,787.0
-46.0,-194.0,206.0,589.0,-777.0,-155.0,-167.0,-784.0,796.0
-39.0,-191.0,206.0,600.0,-755.0,-148.0,-145.0,-792.0,803.0
-38.0,-192.0,209.0,606.0,-727.0,-144.0,-130.0,-774.0,827.0
-31.0,-193.0,219.0,609.0,-704.0,-137.0,-109.0,-770.0,855.0
-32.0,-192.0,217.0,619.0,-688.0,-128.0,-109.0,-755.0,852.0
-31.0,-187.0,216.0,642.0,-667.0,-115.0,-109.0,-751.0,847.0
-36.0,-183.0,208.0,672.0,-630.0,-109.0,-121.0,-741.0,826.0
-35.0,-185.0,209.0,696.0,-582.0,-113.0,-122.0,-737.0,814.0
-37.0,-181.0,207.0,714.0,-526.0,-124.0,-131.0,-731.0,819.0
-40.0,-181.0,212.0,734.0,-476.0,-139.0,-143.0,-726.0,822.0
-40.0,-180.0,213.0,751.0,-426.0,-161.0,-149.0,-725.0,830.0
-42.0,-179.0,209.0,764.0,-377.0,-191.0,-150.0,-716.0,830.0
-39.0,-180.0,212.0,773.0,-329.0,-225.0,-147.0,-716.0,827.0
-38.0,-174.0,211.0,778.0,-282.0,-257.0,-143.0,-713.0,824.0
-36.0,-176.0,206.0,774.0,-237.0,-288.0,-139.0,-705.0,806.0
-37.0,-175.0,203.0,758.0,-197.0,-316.0,-126.0,-703.0,790.0
-34.0,-170.0,193.0,732.0,-163.0,-344.0,-119.0,-688.0,771.0
-34.0,-168.0,196.0,703.0,-135.0,-368.0,-115.0,-680.0,759.0
-35.0,-162.0,197.0,669.0,-107.0,-384.0,-108.0,-671.0,763.0
-32.0,-166.0,198.0,637.0,-83.0,-392.0,-114.0,-660.0,776.0
-31.0,-164.0,200.0,611.0,-64.0,-398.0,-108.0,-661.0,773.0
-33.0,-162.0,199.0,592.0,-51.0,-400.0,-111.0,-643.0,778.0
-38.0,-158.0,204.0,585.0,-42.0,-395.0,-109.0,-624.0,781.0
-27.0,-148.0,199.0,586.0,-37.0,-385.0,-95.0,-611.0,773.0
-27.0,-151.0,202.0,590.0,-34.0,-369.0,-87.0,-608.0,790.0
-27.0,-151.0,212.0,603.0,-32.0,-349.0,-85.0,-611.0,820.0
-25.0,-157.0,222.0,636.0,-25.0,-323.0,-86.0,-622.0,851.0
-28.0,-160.0,225.0,677.0,-17.0,-296.0,-87.0,-634.0,866.0
-25.0,-162.0,230.0,719.0,-8.0,-264.0,-90.0,-650.0,890.0
-26.0,-164.0,230.0,757.0,4.0,-232.0,-84.0,-658.0,905.0
-26.0,-168.0,229.0,794.0,18.0,-197.0,-94.0,-676.0,889.0
-28.0,-166.0,221.0,823.0,28.0,-162.0,-97.0,-672.0,870.0
-28.0,-164.0,217.0,837.0,32.0,-127.0,-97.0,-665.0,845.0
-36.0,-164.0,212.0,845.0,34.0,-87.0,-110.0,-654.0,822.0
-35.0,-164.0,214.0,856.0,37.0,-45.0,-115.0,-659.0,820.0
-45.0,-161.0,211.0,889.0,38.0,-5.0,-142.0,-648.0,815.0
-44.0,-164.0,203.0,936.0,26.0,43.0,-147.0,-639.0,801.0
-43.0,-151.0,202.0,992.0,9.0,83.0,-140.0,-618.0,783.0
-42.0,-142.0,201.0,1050.0,-16.0,112.0,-152.0,-578.0,781.0
-41.0,-137.0,205.0,1111.0,-41.0,138.0,-130.0,-554.0,790.0
-40.0,-132.0,212.0,1184.0,-67.0,158.0,-148.0,-523.0,827.0
-47.0,-131.0,223.0,1263.0,-85.0,183.0,-165.0,-521.0,879.0
-42.0,-135.0,238.0,1352.0,-91.0,208.0,-159.0,-532.0,936.0
-59.0,-133.0,243.0,1457.0,-101.0,235.0,-201.0,-534.0,954.0
-45.0,-131.0,253.0,1550.0,-122.0,244.0,-158.0,-538.0,988.0
-55.0,-124.0,267.0,1621.0,-139.0,237.0,-219.0,-507.0,1012.0
-55.0,-129.0,262.0,1681.0,-149.0,264.0,-201.0,-517.0,1020.0
-56.0,-125.0,259.0,1728.0,-159.0,259.0,-201.0,-516.0,1023.0
-68.0,-126.0,258.0,1758.0,-158.0,234.0,-243.0,-504.0,1028.0
-58.0,-125.0,256.0,1770.0,-136.0,256.0,-206.0,-513.0,1005.0
-60.0,-119.0,247.0,1754.0,-113.0,255.0,-236.0,-497.0,962.0
-68.0,-109.0,233.0,1705.0,-105.0,254.0,-266.0,-467.0,918.0
-60.0,-102.0,221.0,1633.0,-98.0,265.0,-226.0,-428.0,876.0
-74.0,-87.0,220.0,1547.0,-106.0,269.0,-251.0,-394.0,868.0
-53.0,-91.0,225.0,1478.0,-111.0,257.0,-209.0,-385.0,884.0
-62.0,-94.0,236.0,1418.0,-122.0,236.0,-263.0,-362.0,910.0
-78.0,-81.0,242.0,1371.0,-139.0,238.0,-301.0,-355.0,941.0
-75.0,-76.0,238.0,1328.0,-144.0,249.0,-326.0,-337.0,936.0
-67.0,-73.0,242.0,1268.0,-148.0,250.0,-270.0,-310.0,970.0
-68.0,-63.0,258.0,1201.0,-146.0,233.0,-266.0,-286.0,996.0
-72.0,-65.0,287.0,1154.0,-137.0,208.0,-270.0,-284.0,1103.0
-70.0,-67.0,308.0,1146.0,-116.0,186.0,-282.0,-297.0,1221.0
-73.0,-66.0,312.0,1155.0,-82.0,158.0,-278.0,-293.0,1234.0
-70.0,-55.0,306.0,1127.0,-53.0,107.0,-273.0,-260.0,1217.0
-66.0,-45.0,298.0,1041.0,-32.0,55.0,-258.0,-230.0,1201.0
-71.0,-38.0,278.0,920.0,2.0,-6.0,-286.0,-176.0,1124.0
-77.0,-27.0,270.0,763.0,64.0,-69.0,-285.0,-142.0,1072.0
-90.0,-12.0,254.0,592.0,125.0,-128.0,-337.0,-94.0,1019.0
-70.0,-17.0,252.0,438.0,169.0,-168.0,-298.0,-97.0,1004.0
-63.0,-11.0,243.0,323.0,220.0,-212.0,-248.0,-95.0,971.0
-67.0,-11.0,244.0,213.0,268.0,-249.0,-263.0,-81.0,943.0
-54.0,-11.0,237.0,108.0,282.0,-282.0,-209.0,-82.0,941.0
-52.0,-16.0,247.0,24.0,284.0,-322.0,-199.0,-96.0,969.0
-76.0,-28.0,257.0,-42.0,228.0,-360.0,-263.0,-134.0,1020.0
-68.0,-47.0,273.0,-58.0,109.0,-390.0,-242.0,-187.0,1070.0
-73.0,-46.0,267.0,-16.0,-23.0,-430.0,-270.0,-193.0,1065.0
-64.0,-48.0,273.0,25.0,-152.0,-474.0,-233.0,-200.0,1086.0
-40.0,-53.0,260.0,49.0,-257.0,-535.0,-154.0,-225.0,1032.0
-59.0,-39.0,268.0,32.0,-321.0,-616.0,-220.0,-175.0,1053.0
-41.0,-45.0,272.0,3.0,-355.0,-670.0,-147.0,-202.0,1073.0
-38.0,-50.0,283.0,-41.0,-351.0,-723.0,-151.0,-219.0,1111.0
-31.0,-61.0,288.0,-79.0,-350.0,-778.0,-129.0,-243.0,1137.0
-21.0,-63.0,280.0,-114.0,-346.0,-824.0,-80.0,-261.0,1106.0
-30.0,-61.0,279.0,-149.0,-336.0,-847.0,-109.0,-261.0,1087.0
-20.0,-56.0,268.0,-177.0,-334.0,-844.0,-79.0,-247.0,1064.0
-20.0,-52.0,261.0,-229.0,-338.0,-872.0,-76.0,-240.0,1032.0
-16.0,-62.0,259.0,-275.0,-326.0,-928.0,-51.0,-256.0,1015.0
7.0,-58.0,251.0,-296.0,-291.0,-967.0,-9.0,-248.0,985.0
9.0,-50.0,241.0,-299.0,-241.0,-959.0,29.0,-225.0,959.0
6.0,-57.0,241.0,-307.0,-172.0,-921.0,40.0,-210.0,967.0
19.0,-51.0,234.0,-273.0,-93.0,-867.0,68.0,-221.0,932.0
25.0,-53.0,228.0,-251.0,-6.0,-818.0,106.0,-225.0,911.0
25.0,-51.0,223.0,-250.0,86.0,-813.0,93.0,-202.0,881.0
24.0,-52.0,218.0,-227.0,180.0,-758.0,83.0,-210.0,854.0
19.0,-49.0,209.0,-196.0,254.0,-663.0,100.0,-213.0,825.0
5.0,-59.0,209.0,-179.0,300.0,-582.0,46.0,-223.0,810.0
-19.0,-62.0,212.0,-131.0,300.0,-495.0,-45.0,-244.0,829.0
-25.0,-62.0,207.0,-24.0,233.0,-423.0,-59.0,-265.0,823.0
-22.0,-67.0,201.0,74.0,149.0,-392.0,-81.0,-280.0,801.0
-23.0,-55.0,199.0,110.0,99.0,-356.0,-78.0,-257.0,781.0
-9.0,-66.0,206.0,61.0,97.0,-296.0,-58.0,-255.0,793.0
-25.0,-79.0,208.0,10.0,125.0,-228.0,-86.0,-308.0,805.0
-26.0,-97.0,220.0,-22.0,145.0,-152.0,-78.0,-384.0,848.0
-25.0,-114.0,224.0,-9.0,137.0,-113.0,-84.0,-445.0,875.0
-24.0,-123.0,229.0,18.0,98.0,-137.0,-76.0,-497.0,902.0
-30.0,-132.0,238.0,44.0,61.0,-173.0,-100.0,-531.0,932.0
-33.0,-142.0,248.0,73.0,34.0,-165.0,-112.0,-578.0,970.0
-33.0,-155.0,257.0,86.0,6.0,-166.0,-103.0,-611.0,1010.0
-44.0,-162.0,263.0,114.0,-36.0,-195.0,-147.0,-637.0,1038.0
-51.0,-165.0,271.0,148.0,-80.0,-184.0,-180.0,-663.0,1057.0
-60.0,-173.0,264.0,179.0,-114.0,-142.0,-191.0,-690.0,1067.0
-58.0,-171.0,271.0,192.0,-123.0,-98.0,-213.0,-697.0,1072.0
-64.0,-167.0,276.0,179.0,-104.0,-52.0,-229.0,-689.0,1079.0
-70.0,-162.0,275.0,171.0,-87.0,-32.0,-256.0,-664.0,1085.0
-71.0,-159.0,275.0,194.0,-79.0,-24.0,-271.0,-635.0,1067.0
-77.0,-148.0,268.0,221.0,-67.0,-14.0,-298.0,-603.0,1046.0
-79.0,-135.0,258.0,224.0,-49.0,-1.0,-319.0,-566.0,1033.0
-83.0,-128.0,258.0,188.0,-23.0,13.0,-321.0,-528.0,1014.0
-83.0,-119.0,255.0,111.0,6.0,28.0,-314.0,-501.0,997.0
-83.0,-109.0,250.0,13.0,31.0,43.0,-318.0,-468.0,987.0
-81.0,-105.0,246.0,-79.0,53.0,62.0,-318.0,-437.0,973.0
-80.0,-100.0,247.0,-156.0,68.0,81.0,-313.0,-425.0,964.0
-78.0,-104.0,236.0,-221.0,83.0,99.0,-303.0,-424.0,939.0
-72.0,-99.0,234.0,-274.0,100.0,115.0,-283.0,-426.0,933.0
-74.0,-104.0,230.0,-317.0,111.0,130.0,-277.0,-439.0,922.0
-71.0,-106.0,227.0,-360.0,119.0,143.0,-267.0,-440.0,895.0
-67.0,-107.0,225.0,-397.0,121.0,155.0,-251.0,-442.0,884.0
-65.0,-109.0,222.0,-428.0,121.0,165.0,-244.0,-447.0,871.0
-62.0,-110.0,224.0,-449.0,116.0,176.0,-229.0,-455.0,862.0
-59.0,-115.0,219.0,-460.0,111.0,183.0,-218.0,-462.0,861.0
-57.0,-112.0,220.0,-456.0,101.0,187.0,-207.0,-458.0,860.0
-56.0,-115.0,224.0,-436.0,89.0,187.0,-203.0,-460.0,866.0
-50.0,-113.0,227.0,-400.0,76.0,187.0,-189.0,-458.0,872.0
-52.0,-112.0,224.0,-352.0,59.0,184.0,-175.0,-452.0,877.0
-47.0,-114.0,225.0,-304.0,37.0,182.0,-164.0,-459.0,882.0
-45.0,-113.0,227.0,-258.0,10.0,175.0,-159.0,-456.0,887.0
-41.0,-115.0,230.0,-215.0,-18.0,171.0,-146.0,-468.0,899.0
-38.0,-111.0,232.0,-176.0,-43.0,167.0,-132.0,-462.0,901.0
-37.0,-113.0,231.0,-138.0,-65.0,160.0,-131.0,-451.0,915.0
-35.0,-111.0,235.0,-104.0,-89.0,152.0,-121.0,-444.0,924.0
-38.0,-105.0,242.0,-69.0,-113.0,144.0,-123.0,-428.0,932.0
-35.0,-99.0,241.0,-40.0,-135.0,140.0,-109.0,-412.0,939.0
-34.0,-91.0,243.0,-15.0,-153.0,137.0,-121.0,-380.0,958.0
-27.0,-89.0,241.0,20.0,-172.0,143.0,-83.0,-365.0,970.0
-33.0,-80.0,250.0,63.0,-182.0,140.0,-105.0,-348.0,978.0
-30.0,-83.0,252.0,99.0,-194.0,125.0,-107.0,-342.0,998.0
-32.0,-75.0,252.0,139.0,-211.0,99.0,-104.0,-314.0,1002.0
-27.0,-71.0,256.0,175.0,-224.0,72.0,-92.0,-291.0,1005.0
-24.0,-66.0,258.0,205.0,-230.0,47.0,-85.0,-272.0,1014.0
-24.0,-63.0,264.0,226.0,-226.0,24.0,-81.0,-260.0,1029.0
-17.0,-58.0,261.0,246.0,-215.0,12.0,-46.0,-251.0,1040.0
-16.0,-60.0,263.0,266.0,-205.0,5.0,-51.0,-246.0,1042.0
-16.0,-56.0,263.0,271.0,-192.0,-11.0,-45.0,-241.0,1051.0
-12.0,-56.0,265.0,262.0,-175.0,-25.0,-36.0,-239.0,1056.0
-3.0,-54.0,272.0,247.0,-161.0,-37.0,-23.0,-240.0,1069.0
-6.0,-58.0,271.0,229.0,-149.0,-50.0,-21.0,-240.0,1075.0
-9.0,-49.0,276.0,213.0,-140.0,-59.0,-19.0,-241.0,1082.0
-1.0,-60.0,271.0,206.0,-130.0,-56.0,2.0,-258.0,1074.0
-2.0,-63.0,270.0,197.0,-116.0,-66.0,-8.0,-267.0,1074.0
-2.0,-64.0,269.0,187.0,-103.0,-84.0,-11.0,-268.0,1077.0
-5.0,-64.0,271.0,172.0,-87.0,-98.0,-9.0,-276.0,1075.0
-6.0,-65.0,270.0,157.0,-69.0,-110.0,-15.0,-282.0,1069.0
-9.0,-65.0,267.0,140.0,-52.0,-117.0,-21.0,-288.0,1067.0
-9.0,-66.0,264.0,118.0,-31.0,-120.0,-26.0,-276.0,1058.0
-8.0,-72.0,267.0,100.0,-10.0,-113.0,-34.0,-299.0,1055.0
-13.0,-70.0,266.0,73.0,8.0,-114.0,-45.0,-313.0,1044.0
-14.0,-76.0,263.0,40.0,23.0,-114.0,-48.0,-325.0,1045.0
-19.0,-82.0,262.0,3.0,31.0,-118.0,-53.0,-336.0,1041.0
-19.0,-85.0,261.0,-26.0,36.0,-134.0,-70.0,-360.0,1033.0
-21.0,-86.0,261.0,-56.0,44.0,-142.0,-60.0,-372.0,1025.0
-17.0,-91.0,256.0,-81.0,53.0,-142.0,-53.0,-371.0,1012.0
-19.0,-88.0,256.0,-112.0,69.0,-131.0,-53.0,-378.0,1008.0
-17.0,-93.0,258.0,-140.0,83.0,-119.0,-66.0,-391.0,1006.0
-20.0,-100.0,255.0,-162.0,95.0,-108.0,-69.0,-400.0,1006.0
-25.0,-97.0,252.0,-184.0,108.0,-96.0,-76.0,-407.0,1009.0
-23.0,-99.0,254.0,-199.0,119.0,-82.0,-77.0,-410.0,999.0
-26.0,-98.0,254.0,-213.0,126.0,-70.0,-80.0,-415.0,997.0
-28.0,-104.0,253.0,-222.0,130.0,-59.0,-93.0,-423.0,987.0
-28.0,-105.0,251.0,-224.0,134.0,-50.0,-88.0,-431.0,985.0
-26.0,-108.0,250.0,-226.0,136.0,-39.0,-87.0,-439.0,973.0
-29.0,-106.0,249.0,-228.0,138.0,-27.0,-99.0,-445.0,972.0
-29.0,-108.0,244.0,-227.0,140.0,-16.0,-97.0,-441.0,962.0
-28.0,-114.0,247.0,-220.0,139.0,-8.0,-99.0,-447.0,959.0
-27.0,-114.0,245.0,-213.0,137.0,1.0,-99.0,-448.0,956.0
-29.0,-110.0,246.0,-201.0,134.0,9.0,-101.0,-454.0,953.0
-34.0,-112.0,237.0,-185.0,130.0,15.0,-101.0,-454.0,950.0
-32.0,-115.0,241.0,-170.0,124.0,20.0,-105.0,-462.0,942.0
-33.0,-112.0,242.0,-157.0,116.0,24.0,-104.0,-465.0,943.0
-33.0,-114.0,238.0,-146.0,110.0,26.0,-113.0,-464.0,936.0
-32.0,-111.0,240.0,-137.0,104.0,32.0,-113.0,-465.0,935.0
-34.0,-115.0,237.0,-126.0,97.0,34.0,-111.0,-465.0,941.0
-33.0,-114.0,239.0,-116.0,94.0,36.0,-113.0,-456.0,941.0
-35.0,-112.0,238.0,-108.0,92.0,36.0,-115.0,-462.0,936.0
-32.0,-112.0,244.0,-97.0,93.0,36.0,-112.0,-464.0,932.0
-32.0,-112.0,242.0,-90.0,93.0,36.0,-113.0,-461.0,934.0
-37.0,-112.0,239.0,-80.0,94.0,35.0,-111.0,-451.0,937.0
-32.0,-109.0,241.0,-70.0,98.0,35.0,-114.0,-448.0,942.0
-34.0,-111.0,238.0,-58.0,100.0,34.0,-113.0,-440.0,937.0
-32.0,-109.0,242.0,-45.0,103.0,31.0,-117.0,-443.0,938.0
-36.0,-103.0,240.0,-31.0,105.0,28.0,-121.0,-429.0,939.0
-35.0,-102.0,239.0,-21.0,106.0,26.0,-124.0,-422.0,942.0
-36.0,-98.0,242.0,-10.0,108.0,25.0,-118.0,-407.0,937.0
-36.0,-99.0,239.0,-1.0,107.0,23.0,-123.0,-406.0,938.0
-38.0,-99.0,240.0,6.0,108.0,23.0,-131.0,-408.0,940.0
-38.0,-96.0,245.0,13.0,110.0,23.0,-135.0,-398.0,941.0
-39.0,-93.0,242.0,21.0,110.0,23.0,-138.0,-391.0,943.0
-38.0,-94.0,240.0,30.0,109.0,23.0,-138.0,-380.0,943.0
-42.0,-95.0,241.0,39.0,109.0,24.0,-144.0,-379.0,949.0
-41.0,-88.0,243.0,50.0,107.0,24.0,-147.0,-378.0,951.0
-40.0,-89.0,239.0,61.0,105.0,24.0,-148.0,-370.0,949.0
-43.0,-88.0,243.0,72.0,105.0,25.0,-152.0,-365.0,950.0
-43.0,-89.0,245.0,80.0,102.0,25.0,-157.0,-364.0,953.0
-46.0,-82.0,249.0,86.0,98.0,23.0,-153.0,-361.0,959.0
-44.0,-89.0,245.0,89.0,97.0,21.0,-152.0,-365.0,963.0
-42.0,-86.0,248.0,88.0,93.0,19.0,-153.0,-361.0,970.0
-41.0,-85.0,251.0,86.0,88.0,16.0,-152.0,-364.0,973.0
-41.0,-85.0,253.0,83.0,85.0,11.0,-149.0,-363.0,982.0
-39.0,-89.0,250.0,79.0,84.0,8.0,-145.0,-362.0,983.0
-37.0,-88.0,251.0,71.0,82.0,6.0,-151.0,-358.0,983.0
-40.0,-86.0,250.0,64.0,81.0,3.0,-140.0,-361.0,981.0
-38.0,-83.0,248.0,58.0,81.0,2.0,-139.0,-360.0,982.0
-34.0,-85.0,250.0,54.0,77.0,0.0,-133.0,-358.0,984.0
-32.0,-89.0,252.0,52.0,74.0,-1.0,-117.0,-362.0,981.0
-35.0,-88.0,252.0,57.0,75.0,2.0,-121.0,-364.0,987.0
-33.0,-89.0,250.0,58.0,71.0,-1.0,-123.0,-368.0,993.0
-35.0,-87.0,253.0,58.0,65.0,-6.0,-118.0,-376.0,999.0
-37.0,-90.0,256.0,60.0,57.0,-15.0,-116.0,-380.0,995.0
-34.0,-91.0,254.0,62.0,52.0,-19.0,-123.0,-384.0,1005.0
-33.0,-97.0,255.0,64.0,48.0,-22.0,-122.0,-385.0,1003.0
-31.0,-94.0,255.0,62.0,44.0,-21.0,-124.0,-387.0,1004.0
-35.0,-90.0,253.0,58.0,42.0,-24.0,-116.0,-389.0,1007.0
-35.0,-95.0,255.0,57.0,40.0,-38.0,-121.0,-398.0,1002.0
-30.0,-94.0,255.0,51.0,42.0,-40.0,-98.0,-390.0,998.0
-27.0,-94.0,255.0,45.0,53.0,-34.0,-98.0,-389.0,1002.0
-29.0,-95.0,251.0,34.0,68.0,-23.0,-92.0,-394.0,994.0
-30.0,-96.0,254.0,24.0,87.0,-14.0,-105.0,-402.0,997.0
-30.0,-92.0,252.0,7.0,96.0,-18.0,-104.0,-398.0,996.0
-30.0,-95.0,254.0,-11.0,101.0,-26.0,-104.0,-398.0,992.0
-31.0,-93.0,250.0,-28.0,104.0,-30.0,-97.0,-389.0,990.0
-32.0,-90.0,252.0,-40.0,108.0,-32.0,-98.0,-387.0,995.0
-28.0,-96.0,252.0,-48.0,107.0,-31.0,-105.0,-388.0,993.0
-32.0,-91.0,254.0,-51.0,102.0,-29.0,-104.0,-384.0,984.0
-30.0,-93.0,250.0,-50.0,94.0,-26.0,-100.0,-387.0,989.0
-30.0,-93.0,250.0,-47.0,85.0,-26.0,-105.0,-383.0,984.0
-30.0,-92.0,250.0,-43.0,75.0,-24.0,-98.0,-382.0,982.0
-33.0,-90.0,251.0,-40.0,68.0,-23.0,-104.0,-383.0,980.0
-32.0,-91.0,248.0,-34.0,61.0,-21.0,-106.0,-384.0,981.0
-30.0,-91.0,246.0,-31.0,54.0,-21.0,-109.0,-385.0,972.0
-33.0,-90.0,248.0,-27.0,49.0,-19.0,-107.0,-381.0,975.0
-30.0,-94.0,250.0,-23.0,44.0,-20.0,-111.0,-389.0,977.0
-32.0,-93.0,250.0,-18.0,40.0,-19.0,-111.0,-381.0,977.0
-31.0,-95.0,254.0,-16.0,39.0,-17.0,-112.0,-378.0,979.0
-29.0,-95.0,251.0,-14.0,38.0,-18.0,-105.0,-379.0,975.0
-30.0,-89.0,248.0,-11.0,36.0,-20.0,-109.0,-382.0,977.0
-33.0,-92.0,247.0,-11.0,33.0,-18.0,-114.0,-377.0,974.0
-34.0,-94.0,246.0,-9.0,31.0,-17.0,-110.0,-379.0,975.0
-36.0,-89.0,247.0,-7.0,29.0,-15.0,-111.0,-381.0,981.0
-33.0,-94.0,248.0,-2.0,25.0,-15.0,-116.0,-382.0,979.0
-35.0,-94.0,249.0,2.0,21.0,-12.0,-117.0,-378.0,983.0
-37.0,-91.0,251.0,8.0,15.0,-12.0,-124.0,-380.0,984.0
-35.0,-93.0,251.0,14.0,9.0,-9.0,-131.0,-374.0,984.0
-37.0,-93.0,248.0,17.0,4.0,-7.0,-126.0,-378.0,983.0
-37.0,-93.0,250.0,19.0,-1.0,-3.0,-129.0,-379.0,985.0
-34.0,-94.0,252.0,20.0,-2.0,0.0,-132.0,-381.0,985.0
-37.0,-91.0,248.0,19.0,-4.0,1.0,-124.0,-377.0,987.0
-34.0,-94.0,247.0,15.0,-2.0,3.0,-121.0,-378.0,985.0
-37.0,-93.0,247.0,12.0,-1.0,6.0,-119.0,-376.0,984.0
-34.0,-93.0,253.0,7.0,0.0,7.0,-120.0,-384.0,985.0
-34.0,-93.0,253.0,7.0,2.0,8.0,-119.0,-379.0,985.0
-36.0,-92.0,252.0,5.0,3.0,7.0,-122.0,-383.0,984.0
-33.0,-91.0,248.0,3.0,1.0,7.0,-115.0,-381.0,985.0
-35.0,-90.0,249.0,5.0,2.0,3.0,-114.0,-383.0,984.0
-32.0,-94.0,250.0,8.0,1.0,0.0,-117.0,-382.0,983.0
-31.0,-93.0,252.0,11.0,0.0,-1.0,-112.0,-384.0,986.0
-33.0,-94.0,250.0,12.0,2.0,-4.0,-109.0,-380.0,984.0
-31.0,-90.0,248.0,14.0,6.0,-5.0,-108.0,-379.0,982.0
-30.0,-92.0,252.0,15.0,8.0,-6.0,-109.0,-381.0,982.0
-31.0,-92.0,244.0,14.0,13.0,-10.0,-106.0,-381.0,983.0
-32.0,-90.0,249.0,16.0,17.0,-12.0,-103.0,-373.0,981.0
-32.0,-91.0,250.0,16.0,23.0,-14.0,-102.0,-376.0,978.0
-27.0,-88.0,249.0,16.0,29.0,-16.0,-100.0,-377.0,979.0
-27.0,-93.0,248.0,18.0,33.0,-15.0,-96.0,-369.0,981.0
-28.0,-91.0,248.0,18.0,37.0,-17.0,-99.0,-375.0,984.0
-28.0,-89.0,249.0,21.0,40.0,-18.0,-99.0,-374.0,982.0
-27.0,-90.0,249.0,24.0,44.0,-18.0,-93.0,-383.0,984.0
-25.0,-90.0,247.0,27.0,44.0,-14.0,-85.0,-368.0,977.0
-27.0,-93.0,251.0,34.0,49.0,-6.0,-96.0,-383.0,985.0
-29.0,-93.0,249.0,36.0,51.0,-6.0,-98.0,-384.0,986.0
-28.0,-90.0,250.0,37.0,51.0,-10.0,-97.0,-383.0,985.0
-28.0,-90.0,249.0,36.0,51.0,-15.0,-94.0,-383.0,989.0
-27.0,-95.0,252.0,35.0,54.0,-17.0,-90.0,-382.0,984.0
-23.0,-92.0,250.0,33.0,59.0,-16.0,-89.0,-376.0,985.0
-28.0,-90.0,252.0,30.0,66.0,-15.0,-87.0,-378.0,981.0
-29.0,-90.0,249.0,30.0,72.0,-17.0,-99.0,-366.0,985.0
-24.0,-92.0,251.0,35.0,73.0,-31.0,-94.0,-380.0,985.0
-25.0,-91.0,247.0,39.0,78.0,-31.0,-84.0,-377.0,986.0
-24.0,-92.0,248.0,40.0,82.0,-20.0,-87.0,-380.0,980.0
-26.0,-93.0,249.0,37.0,89.0,-11.0,-89.0,-386.0,979.0
-26.0,-91.0,251.0,34.0,96.0,-5.0,-92.0,-385.0,987.0
-30.0,-91.0,245.0,30.0,101.0,-3.0,-88.0,-379.0,986.0
-27.0,-93.0,250.0,28.0,102.0,0.0,-92.0,-382.0,981.0
-28.0,-93.0,248.0,26.0,104.0,2.0,-95.0,-378.0,985.0
-28.0,-91.0,255.0,26.0,104.0,2.0,-97.0,-380.0,988.0
-30.0,-91.0,253.0,27.0,103.0,3.0,-98.0,-382.0,986.0
-31.0,-89.0,253.0,28.0,103.0,4.0,-97.0,-380.0,986.0
-31.0,-93.0,251.0,29.0,101.0,4.0,-98.0,-380.0,983.0
-26.0,-84.0,244.0,29.0,100.0,6.0,-98.0,-377.0,986.0
-28.0,-91.0,251.0,30.0,100.0,6.0,-101.0,-373.0,986.0
-29.0,-89.0,250.0,32.0,99.0,6.0,-99.0,-375.0,986.0
-29.0,-89.0,249.0,33.0,101.0,4.0,-100.0,-370.0,985.0
-27.0,-89.0,250.0,35.0,103.0,4.0,-100.0,-368.0,984.0
-28.0,-90.0,254.0,38.0,103.0,5.0,-99.0,-374.0,978.0
-29.0,-90.0,251.0,39.0,104.0,5.0,-99.0,-370.0,984.0
-28.0,-91.0,252.0,38.0,104.0,3.0,-100.0,-369.0,983.0
-30.0,-88.0,250.0,37.0,104.0,0.0,-98.0,-373.0,987.0
-30.0,-89.0,249.0,36.0,101.0,-1.0,-101.0,-375.0,986.0
-29.0,-89.0,250.0,34.0,100.0,-3.0,-99.0,-369.0,982.0
-27.0,-91.0,249.0,30.0,100.0,-4.0,-98.0,-367.0,982.0
-30.0,-89.0,251.0,26.0,101.0,2.0,-97.0,-370.0,983.0
-28.0,-91.0,249.0,23.0,99.0,4.0,-106.0,-372.0,984.0
-34.0,-90.0,251.0,19.0,96.0,1.0,-109.0,-366.0,986.0
-32.0,-90.0,251.0,19.0,92.0,-12.0,-112.0,-375.0,981.0
-30.0,-89.0,250.0,18.0,88.0,-12.0,-99.0,-375.0,985.0
-31.0,-91.0,250.0,17.0,87.0,-6.0,-105.0,-372.0,984.0
-30.0,-92.0,245.0,17.0,85.0,2.0,-107.0,-368.0,987.0
-32.0,-92.0,249.0,19.0,82.0,6.0,-109.0,-370.0,984.0
-31.0,-91.0,251.0,24.0,82.0,8.0,-115.0,-375.0,985.0
-33.0,-88.0,251.0,30.0,79.0,7.0,-114.0,-374.0,985.0
-29.0,-84.0,260.0,35.0,78.0,7.0,-117.0,-372.0,986.0
-32.0,-90.0,253.0,40.0,77.0,4.0,-113.0,-373.0,982.0
-33.0,-88.0,253.0,43.0,75.0,4.0,-118.0,-373.0,985.0
-31.0,-88.0,249.0,45.0,72.0,4.0,-115.0,-364.0,982.0
-30.0,-86.0,250.0,53.0,78.0,21.0,-96.0,-363.0,983.0
-36.0,-92.0,251.0,66.0,87.0,41.0,-135.0,-378.0,983.0
-36.0,-91.0,249.0,62.0,84.0,33.0,-135.0,-383.0,983.0
-36.0,-92.0,252.0,54.0,80.0,15.0,-121.0,-377.0,973.0
-30.0,-94.0,249.0,43.0,81.0,6.0,-114.0,-371.0,971.0
-34.0,-89.0,247.0,36.0,82.0,2.0,-112.0,-359.0,985.0
-35.0,-86.0,252.0,29.0,81.0,3.0,-112.0,-366.0,975.0
-34.0,-86.0,246.0,29.0,80.0,5.0,-116.0,-359.0,987.0
-32.0,-90.0,253.0,35.0,75.0,5.0,-117.0,-366.0,985.0
-31.0,-89.0,250.0,41.0,68.0,4.0,-114.0,-368.0,987.0
-35.0,-85.0,252.0,51.0,62.0,3.0,-115.0,-367.0,988.0
-32.0,-91.0,250.0,61.0,58.0,2.0,-116.0,-367.0,986.0
-34.0,-85.0,249.0,69.0,55.0,-2.0,-112.0,-363.0,985.0
-30.0,-88.0,250.0,75.0,55.0,-4.0,-115.0,-363.0,986.0
-33.0,-86.0,249.0,80.0,56.0,-5.0,-108.0,-360.0,986.0
-31.0,-86.0,249.0,81.0,58.0,-7.0,-110.0,-357.0,985.0
-32.0,-85.0,253.0,80.0,60.0,-8.0,-109.0,-357.0,984.0
-31.0,-84.0,255.0,78.0,63.0,-10.0,-106.0,-358.0,987.0
-30.0,-82.0,244.0,74.0,67.0,-11.0,-106.0,-356.0,989.0
-32.0,-83.0,253.0,68.0,70.0,-12.0,-111.0,-357.0,996.0
-30.0,-83.0,254.0,68.0,72.0,-19.0,-118.0,-350.0,991.0
-30.0,-87.0,253.0,77.0,79.0,-4.0,-101.0,-365.0,992.0
-33.0,-90.0,251.0,79.0,84.0,0.0,-117.0,-370.0,996.0
-33.0,-88.0,254.0,64.0,83.0,-3.0,-111.0,-365.0,997.0
-32.0,-88.0,254.0,48.0,85.0,-9.0,-112.0,-370.0,998.0
-32.0,-86.0,253.0,35.0,86.0,-10.0,-113.0,-365.0,1000.0
-29.0,-85.0,252.0,21.0,85.0,-10.0,-108.0,-361.0,991.0
-31.0,-86.0,254.0,9.0,86.0,-8.0,-106.0,-359.0,993.0
-30.0,-85.0,256.0,0.0,84.0,-8.0,-112.0,-357.0,989.0
-31.0,-87.0,255.0,-3.0,82.0,-8.0,-107.0,-362.0,991.0
-34.0,-85.0,250.0,-4.0,82.0,-7.0,-106.0,-362.0,993.0
-32.0,-87.0,251.0,-4.0,81.0,-5.0,-110.0,-365.0,985.0
-30.0,-85.0,250.0,-5.0,77.0,-4.0,-109.0,-359.0,992.0
-29.0,-87.0,255.0,-6.0,80.0,-4.0,-106.0,-365.0,988.0
-30.0,-83.0,251.0,-7.0,79.0,-6.0,-103.0,-361.0,990.0
-31.0,-84.0,252.0,-8.0,80.0,-6.0,-107.0,-357.0,989.0
-35.0,-85.0,250.0,-10.0,81.0,-6.0,-106.0,-358.0,993.0
-32.0,-84.0,252.0,-13.0,79.0,-6.0,-105.0,-359.0,987.0
-30.0,-85.0,252.0,-17.0,81.0,-6.0,-109.0,-357.0,991.0
-30.0,-85.0,251.0,-19.0,78.0,-6.0,-113.0,-359.0,990.0
-31.0,-88.0,251.0,-23.0,79.0,-4.0,-111.0,-365.0,990.0
-33.0,-86.0,253.0,-27.0,80.0,-4.0,-114.0,-361.0,988.0
-33.0,-86.0,254.0,-29.0,81.0,-3.0,-109.0,-361.0,987.0
-32.0,-86.0,252.0,-30.0,80.0,0.0,-114.0,-361.0,991.0
-33.0,-86.0,250.0,-31.0,78.0,2.0,-115.0,-356.0,989.0
-35.0,-84.0,249.0,-30.0,77.0,3.0,-107.0,-359.0,990.0
-34.0,-85.0,252.0,-30.0,76.0,0.0,-112.0,-360.0,988.0
-33.0,-87.0,254.0,-29.0,75.0,2.0,-114.0,-357.0,990.0
-31.0,-87.0,250.0,-29.0,74.0,4.0,-112.0,-362.0,989.0
-34.0,-85.0,252.0,-27.0,72.0,5.0,-113.0,-363.0,988.0
-34.0,-87.0,252.0,-26.0,73.0,5.0,-110.0,-361.0,985.0
-31.0,-86.0,251.0,-26.0,75.0,5.0,-112.0,-360.0,987.0
-30.0,-88.0,250.0,-28.0,77.0,5.0,-114.0,-361.0,983.0
-31.0,-87.0,252.0,-29.0,78.0,4.0,-117.0,-365.0,988.0
-33.0,-85.0,247.0,-29.0,77.0,3.0,-109.0,-359.0,986.0
-33.0,-87.0,250.0,-29.0,77.0,3.0,-110.0,-362.0,988.0
-30.0,-88.0,249.0,-27.0,76.0,2.0,-111.0,-366.0,984.0
-35.0,-88.0,249.0,-24.0,77.0,1.0,-110.0,-364.0,986.0
-31.0,-88.0,253.0,-22.0,76.0,0.0,-111.0,-364.0,989.0
-33.0,-85.0,250.0,-18.0,74.0,-1.0,-113.0,-358.0,989.0
-31.0,-85.0,249.0,-14.0,75.0,-2.0,-112.0,-362.0,985.0
-28.0,-83.0,252.0,-10.0,72.0,-2.0,-112.0,-362.0,981.0
-31.0,-87.0,252.0,-6.0,72.0,-3.0,-112.0,-362.0,984.0
-35.0,-85.0,251.0,-2.0,72.0,-5.0,-113.0,-356.0,985.0
-29.0,-88.0,251.0,0.0,72.0,-5.0,-111.0,-361.0,984.0
-31.0,-87.0,250.0,1.0,71.0,-6.0,-111.0,-355.0,986.0
-31.0,-83.0,255.0,1.0,72.0,-7.0,-106.0,-358.0,993.0
-32.0,-86.0,256.0,1.0,73.0,-7.0,-109.0,-356.0,989.0
-34.0,-87.0,249.0,0.0,74.0,-6.0,-110.0,-357.0,988.0
-31.0,-86.0,252.0,-2.0,74.0,-4.0,-113.0,-359.0,986.0
-32.0,-83.0,248.0,-3.0,73.0,-4.0,-112.0,-360.0,989.0
-33.0,-83.0,250.0,-4.0,74.0,-5.0,-112.0,-357.0,991.0
-34.0,-85.0,252.0,-6.0,74.0,-6.0,-109.0,-358.0,988.0
-31.0,-87.0,254.0,-6.0,72.0,-6.0,-110.0,-362.0,994.0
-34.0,-85.0,252.0,-7.0,69.0,-6.0,-114.0,-360.0,993.0
-31.0,-88.0,249.0,-9.0,70.0,-5.0,-111.0,-360.0,988.0
-35.0,-88.0,252.0,-11.0,68.0,-7.0,-110.0,-358.0,989.0
-34.0,-85.0,253.0,-11.0,66.0,-6.0,-117.0,-359.0,990.0
-35.0,-85.0,251.0,-11.0,64.0,-7.0,-114.0,-360.0,993.0
-33.0,-88.0,253.0,-12.0,64.0,-6.0,-114.0,-362.0,985.0
-31.0,-86.0,254.0,-16.0,60.0,-6.0,-113.0,-355.0,984.0
-33.0,-85.0,250.0,-16.0,59.0,-6.0,-114.0,-356.0,988.0
-32.0,-87.0,248.0,-19.0,60.0,-6.0,-112.0,-359.0,993.0
-30.0,-85.0,256.0,-20.0,61.0,-7.0,-114.0,-358.0,984.0
-31.0,-86.0,254.0,-22.0,64.0,-5.0,-115.0,-356.0,986.0
-34.0,-86.0,253.0,-22.0,65.0,-4.0,-110.0,-361.0,987.0
-29.0,-87.0,252.0,-23.0,67.0,-5.0,-108.0,-358.0,992.0
-33.0,-88.0,252.0,-24.0,64.0,-3.0,-114.0,-361.0,985.0
-33.0,-85.0,250.0,-22.0,64.0,-2.0,-109.0,-357.0,988.0
-33.0,-83.0,249.0,-20.0,65.0,-2.0,-113.0,-363.0,985.0
-34.0,-87.0,252.0,-20.0,62.0,-1.0,-114.0,-363.0,990.0
-35.0,-85.0,254.0,-18.0,62.0,-1.0,-109.0,-364.0,989.0
-34.0,-86.0,253.0,-16.0,61.0,-1.0,-111.0,-367.0,988.0
-32.0,-85.0,253.0,-14.0,62.0,-2.0,-108.0,-359.0,989.0
-33.0,-89.0,253.0,-14.0,63.0,-1.0,-113.0,-359.0,986.0
-35.0,-86.0,253.0,-13.0,62.0,-3.0,-110.0,-357.0,989.0
-33.0,-86.0,251.0,-13.0,63.0,-2.0,-113.0,-363.0,986.0
-30.0,-86.0,251.0,-13.0,64.0,-3.0,-111.0,-363.0,987.0
-32.0,-88.0,252.0,-13.0,65.0,-3.0,-112.0,-362.0,985.0
-32.0,-87.0,255.0,-14.0,66.0,-4.0,-111.0,-359.0,989.0
-34.0,-85.0,251.0,-14.0,67.0,-4.0,-108.0,-358.0,985.0
-34.0,-83.0,248.0,-15.0,68.0,-3.0,-115.0,-361.0,990.0
-32.0,-85.0,250.0,-14.0,71.0,-2.0,-113.0,-364.0,989.0
-31.0,-88.0,254.0,-15.0,72.0,-2.0,-113.0,-357.0,988.0
-33.0,-84.0,251.0,-17.0,73.0,-2.0,-111.0,-367.0,986.0
-31.0,-79.0,252.0,-20.0,72.0,-2.0,-108.0,-361.0,989.0
-31.0,-85.0,252.0,-21.0,74.0,-1.0,-106.0,-365.0,989.0
-32.0,-85.0,253.0,-24.0,75.0,1.0,-109.0,-362.0,989.0
-28.0,-87.0,251.0,-28.0,75.0,-1.0,-108.0,-360.0,990.0
-32.0,-88.0,250.0,-28.0,73.0,-1.0,-105.0,-358.0,989.0
-30.0,-87.0,248.0,-28.0,71.0,0.0,-109.0,-361.0,987.0
-32.0,-87.0,254.0,-26.0,70.0,-3.0,-108.0,-362.0,986.0
-29.0,-87.0,246.0,-24.0,68.0,-2.0,-109.0,-356.0,987.0
-28.0,-86.0,248.0,-19.0,67.0,-2.0,-108.0,-360.0,992.0
-34.0,-85.0,251.0,-12.0,67.0,-3.0,-109.0,-359.0,987.0
-30.0,-88.0,250.0,-7.0,69.0,-3.0,-111.0,-362.0,989.0
-32.0,-85.0,251.0,-3.0,71.0,-5.0,-109.0,-361.0,990.0
-32.0,-86.0,249.0,0.0,72.0,-5.0,-107.0,-362.0,986.0
-32.0,-91.0,250.0,3.0,73.0,-4.0,-112.0,-362.0,986.0
-31.0,-89.0,252.0,5.0,73.0,-5.0,-110.0,-362.0,985.0
-33.0,-90.0,248.0,4.0,73.0,-5.0,-109.0,-361.0,989.0
-32.0,-89.0,250.0,1.0,74.0,-3.0,-109.0,-368.0,985.0
-32.0,-87.0,249.0,-1.0,75.0,-4.0,-111.0,-370.0,983.0
-28.0,-89.0,250.0,-2.0,75.0,-1.0,-113.0,-367.0,975.0
-31.0,-88.0,250.0,-3.0,75.0,1.0,-110.0,-363.0,980.0
-31.0,-87.0,251.0,-3.0,75.0,2.0,-114.0,-364.0,979.0
-32.0,-88.0,250.0,1.0,73.0,3.0,-110.0,-359.0,983.0
-33.0,-89.0,248.0,8.0,67.0,5.0,-110.0,-360.0,980.0
-34.0,-85.0,249.0,16.0,64.0,4.0,-109.0,-361.0,975.0
-31.0,-88.0,252.0,25.0,58.0,4.0,-115.0,-356.0,982.0
-33.0,-85.0,251.0,36.0,52.0,3.0,-114.0,-360.0,984.0
-34.0,-86.0,255.0,45.0,49.0,3.0,-113.0,-353.0,993.0
-32.0,-84.0,247.0,52.0,45.0,5.0,-112.0,-354.0,990.0
-30.0,-83.0,252.0,57.0,45.0,4.0,-114.0,-355.0,988.0
-32.0,-84.0,253.0,59.0,45.0,1.0,-111.0,-352.0,987.0
-30.0,-84.0,252.0,59.0,45.0,1.0,-113.0,-348.0,989.0
-30.0,-85.0,255.0,57.0,49.0,2.0,-110.0,-354.0,988.0
-30.0,-81.0,249.0,52.0,50.0,2.0,-110.0,-349.0,991.0
-32.0,-83.0,256.0,45.0,53.0,0.0,-110.0,-354.0,996.0
-33.0,-86.0,253.0,39.0,54.0,-2.0,-113.0,-352.0,996.0
-30.0,-86.0,251.0,30.0,54.0,-4.0,-109.0,-355.0,993.0
-35.0,-82.0,253.0,21.0,57.0,-6.0,-113.0,-355.0,999.0
-32.0,-87.0,252.0,12.0,59.0,-5.0,-115.0,-356.0,995.0
-31.0,-88.0,253.0,6.0,62.0,-4.0,-112.0,-359.0,994.0
-31.0,-87.0,249.0,0.0,64.0,-4.0,-109.0,-356.0,992.0
-31.0,-86.0,251.0,-4.0,65.0,-2.0,-111.0,-358.0,990.0
-30.0,-86.0,253.0,-6.0,67.0,-2.0,-107.0,-358.0,989.0
-31.0,-85.0,255.0,-6.0,67.0,-2.0,-103.0,-357.0,992.0
-34.0,-85.0,252.0,-8.0,66.0,-1.0,-107.0,-356.0,991.0
-33.0,-84.0,252.0,-9.0,65.0,-2.0,-107.0,-356.0,993.0
-32.0,-85.0,251.0,-9.0,65.0,-1.0,-108.0,-357.0,988.0
-31.0,-84.0,253.0,-7.0,63.0,0.0,-108.0,-357.0,992.0
-33.0,-82.0,251.0,-6.0,62.0,-2.0,-111.0,-355.0,992.0
-33.0,-84.0,253.0,-5.0,59.0,-1.0,-107.0,-356.0,996.0
-29.0,-87.0,253.0,-5.0,58.0,-2.0,-106.0,-355.0,990.0
-30.0,-84.0,253.0,-6.0,58.0,-3.0,-110.0,-355.0,992.0
-31.0,-83.0,253.0,-7.0,58.0,-3.0,-106.0,-358.0,992.0
-31.0,-88.0,255.0,-10.0,60.0,-3.0,-109.0,-355.0,991.0
-32.0,-83.0,254.0,-12.0,59.0,-3.0,-106.0,-358.0,996.0
-31.0,-86.0,250.0,-15.0,61.0,-3.0,-105.0,-358.0,992.0
-31.0,-87.0,248.0,-18.0,62.0,-4.0,-106.0,-359.0,989.0
-33.0,-85.0,253.0,-20.0,64.0,-5.0,-109.0,-356.0,991.0
-32.0,-86.0,254.0,-22.0,65.0,-5.0,-105.0,-357.0,994.0
-30.0,-85.0,250.0,-24.0,66.0,-4.0,-106.0,-356.0,995.0
-32.0,-85.0,253.0,-26.0,68.0,-3.0,-107.0,-357.0,994.0
-31.0,-85.0,252.0,-26.0,69.0,-2.0,-108.0,-358.0,991.0
-32.0,-89.0,250.0,-24.0,67.0,-3.0,-110.0,-356.0,996.0
-32.0,-85.0,254.0,-23.0,66.0,-3.0,-110.0,-357.0,989.0
-30.0,-86.0,254.0,-23.0,67.0,-3.0,-108.0,-358.0,989.0
-32.0,-87.0,251.0,-23.0,65.0,-4.0,-108.0,-359.0,991.0
-32.0,-85.0,251.0,-24.0,65.0,-5.0,-109.0,-356.0,989.0
-31.0,-86.0,250.0,-25.0,65.0,-6.0,-105.0,-358.0,990.0
-27.0,-88.0,250.0,-26.0,67.0,-5.0,-107.0,-361.0,986.0
-30.0,-86.0,255.0,-27.0,70.0,-4.0,-109.0,-357.0,991.0
-33.0,-86.0,250.0,-29.0,69.0,-4.0,-104.0,-358.0,987.0
-31.0,-84.0,252.0,-31.0,71.0,-4.0,-105.0,-360.0,985.0
-32.0,-84.0,251.0,-30.0,73.0,-4.0,-107.0,-357.0,984.0
-29.0,-86.0,251.0,-29.0,73.0,-4.0,-110.0,-356.0,987.0
-31.0,-88.0,253.0,-28.0,74.0,-4.0,-109.0,-360.0,985.0
-32.0,-88.0,254.0,-26.0,75.0,-5.0,-113.0,-358.0,987.0
-32.0,-88.0,252.0,-21.0,74.0,-3.0,-112.0,-357.0,985.0
-32.0,-85.0,251.0,-15.0,74.0,-3.0,-112.0,-359.0,988.0
-30.0,-87.0,248.0,-10.0,74.0,-3.0,-107.0,-361.0,988.0
-31.0,-90.0,250.0,-4.0,74.0,-4.0,-107.0,-359.0,985.0
-29.0,-85.0,253.0,0.0,74.0,-3.0,-110.0,-359.0,987.0
-31.0,-87.0,251.0,3.0,73.0,-2.0,-113.0,-357.0,987.0
-33.0,-83.0,250.0,6.0,72.0,-3.0,-110.0,-360.0,989.0
-29.0,-86.0,250.0,8.0,70.0,-4.0,-112.0,-357.0,988.0
-33.0,-84.0,250.0,6.0,69.0,-2.0,-111.0,-357.0,993.0
-31.0,-87.0,253.0,6.0,69.0,-2.0,-114.0,-356.0,992.0
-33.0,-84.0,250.0,4.0,68.0,-2.0,-113.0,-356.0,992.0
-30.0,-85.0,247.0,3.0,69.0,-2.0,-111.0,-353.0,992.0
-31.0,-84.0,251.0,1.0,68.0,-3.0,-113.0,-351.0,988.0
-33.0,-84.0,252.0,-1.0,68.0,-1.0,-107.0,-356.0,990.0
-31.0,-84.0,252.0,-2.0,68.0,-2.0,-107.0,-355.0,989.0
-32.0,-85.0,249.0,-3.0,67.0,-4.0,-114.0,-353.0,992.0
-32.0,-84.0,251.0,-3.0,66.0,-5.0,-109.0,-357.0,991.0
-30.0,-86.0,253.0,-4.0,66.0,-4.0,-110.0,-355.0,992.0
-29.0,-86.0,253.0,-4.0,65.0,-6.0,-107.0,-359.0,987.0
-31.0,-85.0,254.0,-5.0,64.0,-7.0,-112.0,-355.0,991.0
-31.0,-85.0,253.0,-6.0,65.0,-7.0,-108.0,-360.0,985.0
-31.0,-85.0,253.0,-6.0,64.0,-7.0,-106.0,-359.0,990.0
-32.0,-87.0,254.0,-7.0,64.0,-8.0,-107.0,-356.0,990.0
-33.0,-86.0,250.0,-7.0,65.0,-7.0,-106.0,-354.0,994.0
-29.0,-87.0,254.0,-7.0,67.0,-4.0,-109.0,-356.0,984.0
-30.0,-89.0,249.0,-8.0,69.0,-5.0,-106.0,-360.0,991.0
-28.0,-87.0,252.0,-9.0,70.0,-4.0,-107.0,-363.0,988.0
-30.0,-88.0,251.0,-9.0,71.0,-2.0,-108.0,-359.0,991.0
-32.0,-84.0,252.0,-9.0,71.0,-1.0,-111.0,-360.0,990.0
-31.0,-85.0,252.0,-9.0,71.0,-2.0,-111.0,-355.0,992.0
-29.0,-87.0,256.0,-9.0,68.0,-2.0,-112.0,-360.0,992.0
-31.0,-84.0,252.0,-10.0,68.0,-1.0,-108.0,-356.0,991.0
-31.0,-84.0,250.0,-8.0,67.0,-1.0,-107.0,-355.0,991.0
-31.0,-84.0,251.0,-8.0,67.0,-2.0,-107.0,-354.0,988.0
-33.0,-78.0,254.0,-9.0,64.0,-1.0,-108.0,-360.0,989.0
-30.0,-88.0,251.0,-8.0,64.0,-1.0,-109.0,-355.0,995.0
-35.0,-82.0,250.0,-9.0,66.0,-3.0,-110.0,-360.0,992.0
-32.0,-85.0,253.0,-10.0,64.0,-4.0,-107.0,-355.0,987.0
-29.0,-85.0,252.0,-11.0,65.0,-3.0,-111.0,-352.0,991.0
-32.0,-86.0,254.0,-12.0,66.0,-6.0,-108.0,-351.0,993.0
-34.0,-84.0,253.0,-13.0,66.0,-5.0,-111.0,-361.0,992.0
-33.0,-83.0,254.0,-13.0,67.0,-5.0,-109.0,-358.0,987.0
-30.0,-88.0,252.0,-15.0,68.0,-4.0,-108.0,-355.0,990.0
-32.0,-86.0,251.0,-14.0,69.0,-4.0,-106.0,-358.0,987.0
-29.0,-84.0,251.0,-14.0,70.0,-5.0,-105.0,-357.0,992.0
-31.0,-85.0,254.0,-13.0,69.0,-4.0,-111.0,-357.0,988.0
-31.0,-87.0,249.0,-13.0,69.0,-3.0,-104.0,-359.0,995.0
-33.0,-84.0,253.0,-12.0,68.0,-5.0,-109.0,-362.0,991.0
-33.0,-86.0,252.0,-10.0,67.0,-4.0,-111.0,-357.0,988.0
-30.0,-86.0,253.0,-9.0,67.0,-3.0,-108.0,-360.0,989.0
-30.0,-88.0,252.0,-9.0,67.0,-3.0,-111.0,-357.0,987.0
-29.0,-87.0,252.0,-7.0,67.0,-2.0,-111.0,-358.0,989.0
-32.0,-87.0,253.0,-6.0,67.0,-3.0,-114.0,-355.0,990.0
-30.0,-88.0,251.0,-6.0,68.0,-2.0,-106.0,-353.0,991.0
-32.0,-86.0,252.0,-6.0,68.0,-2.0,-113.0,-358.0,993.0
-33.0,-86.0,252.0,-4.0,68.0,0.0,-110.0,-359.0,992.0
-34.0,-84.0,253.0,-5.0,70.0,-2.0,-110.0,-354.0,991.0
-33.0,-88.0,254.0,-5.0,70.0,-2.0,-107.0,-355.0,989.0
-31.0,-87.0,250.0,-5.0,71.0,-1.0,-112.0,-354.0,992.0
-30.0,-86.0,249.0,-8.0,72.0,-2.0,-107.0,-357.0,993.0
-31.0,-87.0,250.0,-11.0,72.0,-1.0,-110.0,-360.0,988.0
-32.0,-84.0,252.0,-14.0,72.0,0.0,-114.0,-356.0,987.0
-26.0,-84.0,250.0,-17.0,73.0,0.0,-105.0,-357.0,987.0
-30.0,-85.0,254.0,-20.0,73.0,-1.0,-108.0,-355.0,991.0
-32.0,-85.0,249.0,-22.0,74.0,-1.0,-106.0,-353.0,990.0
-29.0,-83.0,252.0,-23.0,73.0,-1.0,-106.0,-355.0,986.0
-33.0,-85.0,254.0,-24.0,74.0,-1.0,-109.0,-357.0,993.0
-30.0,-85.0,249.0,-23.0,73.0,-2.0,-109.0,-355.0,989.0
-31.0,-86.0,254.0,-20.0,72.0,-2.0,-104.0,-357.0,990.0
-28.0,-86.0,253.0,-15.0,71.0,-4.0,-106.0,-359.0,986.0
-27.0,-85.0,250.0,-9.0,71.0,-4.0,-109.0,-360.0,990.0
-30.0,-85.0,251.0,-4.0,72.0,-6.0,-112.0,-360.0,985.0
-29.0,-88.0,251.0,1.0,72.0,-4.0,-111.0,-359.0,986.0
-33.0,-86.0,253.0,4.0,74.0,-5.0,-109.0,-359.0,987.0
-30.0,-89.0,253.0,4.0,72.0,-6.0,-112.0,-360.0,992.0
-33.0,-83.0,256.0,5.0,71.0,-8.0,-112.0,-364.0,989.0
-33.0,-86.0,250.0,3.0,72.0,-8.0,-111.0,-359.0,988.0
-32.0,-89.0,249.0,1.0,71.0,-6.0,-114.0,-363.0,984.0
-33.0,-85.0,248.0,-2.0,74.0,-4.0,-108.0,-364.0,982.0
-32.0,-87.0,247.0,-2.0,75.0,-2.0,-109.0,-361.0,978.0
-33.0,-85.0,249.0,0.0,77.0,1.0,-108.0,-359.0,971.0
-31.0,-83.0,249.0,3.0,77.0,1.0,-113.0,-356.0,977.0
-32.0,-84.0,249.0,9.0,75.0,2.0,-110.0,-355.0,979.0
-32.0,-85.0,250.0,19.0,70.0,3.0,-112.0,-356.0,983.0
-31.0,-84.0,249.0,28.0,65.0,4.0,-113.0,-355.0,987.0
-30.0,-88.0,248.0,41.0,61.0,4.0,-112.0,-356.0,986.0
-32.0,-84.0,252.0,54.0,57.0,4.0,-110.0,-350.0,985.0
-33.0,-82.0,248.0,62.0,55.0,6.0,-111.0,-353.0,988.0
-31.0,-84.0,251.0,68.0,54.0,4.0,-111.0,-345.0,993.0
-33.0,-82.0,252.0,71.0,54.0,4.0,-111.0,-347.0,992.0
-29.0,-82.0,251.0,72.0,54.0,6.0,-108.0,-348.0,992.0
-30.0,-81.0,253.0,70.0,55.0,6.0,-108.0,-346.0,991.0
-28.0,-81.0,253.0,63.0,57.0,5.0,-109.0,-348.0,994.0
-29.0,-85.0,255.0,56.0,58.0,4.0,-106.0,-344.0,997.0
-31.0,-85.0,255.0,47.0,60.0,3.0,-108.0,-350.0,1003.0
-31.0,-84.0,258.0,37.0,61.0,2.0,-109.0,-349.0,1000.0
-30.0,-77.0,252.0,30.0,62.0,3.0,-103.0,-330.0,1001.0
-25.0,-82.0,255.0,46.0,76.0,39.0,-88.0,-349.0,1002.0
-35.0,-82.0,250.0,61.0,81.0,55.0,-121.0,-358.0,994.0
-35.0,-89.0,266.0,61.0,77.0,42.0,-119.0,-370.0,996.0
-32.0,-89.0,255.0,49.0,71.0,13.0,-114.0,-364.0,994.0
-31.0,-84.0,255.0,30.0,69.0,-2.0,-107.0,-354.0,996.0
-30.0,-83.0,255.0,9.0,70.0,-6.0,-106.0,-345.0,992.0
-31.0,-83.0,255.0,-8.0,69.0,-2.0,-107.0,-343.0,1000.0
-28.0,-84.0,256.0,-17.0,69.0,0.0,-109.0,-349.0,999.0
-32.0,-85.0,254.0,-20.0,67.0,-3.0,-111.0,-346.0,992.0
-33.0,-81.0,253.0,-20.0,65.0,-6.0,-117.0,-350.0,1000.0
-27.0,-87.0,253.0,-14.0,61.0,-15.0,-107.0,-351.0,992.0
-27.0,-85.0,254.0,-7.0,62.0,-13.0,-100.0,-354.0,991.0
-32.0,-83.0,255.0,-5.0,64.0,-6.0,-108.0,-356.0,986.0
-32.0,-86.0,251.0,-7.0,65.0,-1.0,-112.0,-349.0,985.0
-31.0,-84.0,252.0,-10.0,65.0,-2.0,-110.0,-352.0,995.0
-30.0,-84.0,250.0,-13.0,64.0,-3.0,-110.0,-347.0,991.0
-32.0,-82.0,251.0,-19.0,66.0,-3.0,-108.0,-350.0,991.0
-33.0,-82.0,253.0,-20.0,66.0,-6.0,-107.0,-350.0,997.0
-31.0,-84.0,253.0,-22.0,67.0,-5.0,-101.0,-345.0,991.0
-31.0,-86.0,254.0,-23.0,70.0,-6.0,-110.0,-353.0,992.0
-29.0,-83.0,253.0,-22.0,68.0,-8.0,-110.0,-353.0,989.0
-30.0,-84.0,250.0,-23.0,69.0,-6.0,-110.0,-351.0,991.0
-31.0,-84.0,251.0,-24.0,72.0,-5.0,-111.0,-353.0,993.0
-32.0,-86.0,251.0,-25.0,71.0,-4.0,-109.0,-345.0,990.0
-32.0,-86.0,253.0,-25.0,70.0,-4.0,-110.0,-349.0,990.0
-32.0,-83.0,248.0,-23.0,69.0,-4.0,-109.0,-351.0,992.0
-31.0,-84.0,253.0,-22.0,68.0,-4.0,-109.0,-351.0,989.0
-31.0,-85.0,252.0,-23.0,64.0,-3.0,-107.0,-347.0,996.0
-33.0,-82.0,252.0,-23.0,64.0,-4.0,-105.0,-353.0,993.0
-33.0,-82.0,255.0,-26.0,64.0,-5.0,-111.0,-350.0,993.0
-30.0,-86.0,252.0,-26.0,65.0,-5.0,-108.0,-351.0,992.0
-33.0,-84.0,255.0,-28.0,65.0,-4.0,-108.0,-353.0,998.0
-33.0,-84.0,252.0,-29.0,65.0,-5.0,-107.0,-355.0,989.0
-31.0,-84.0,253.0,-30.0,67.0,-5.0,-107.0,-352.0,996.0
-33.0,-84.0,251.0,-31.0,65.0,-5.0,-106.0,-354.0,996.0
-31.0,-80.0,253.0,-31.0,68.0,-5.0,-108.0,-354.0,990.0
-32.0,-85.0,253.0,-30.0,70.0,-5.0,-111.0,-350.0,989.0
-33.0,-85.0,252.0,-28.0,71.0,-4.0,-111.0,-349.0,986.0
-33.0,-86.0,253.0,-24.0,71.0,-3.0,-111.0,-357.0,989.0
-32.0,-84.0,251.0,-20.0,71.0,-4.0,-108.0,-354.0,992.0
-32.0,-84.0,251.0,-15.0,72.0,-4.0,-105.0,-354.0,988.0
-34.0,-82.0,251.0,-9.0,73.0,-4.0,-115.0,-355.0,986.0
-30.0,-84.0,248.0,-4.0,73.0,-4.0,-106.0,-351.0,990.0
-33.0,-84.0,253.0,-1.0,73.0,-5.0,-107.0,-350.0,990.0
-32.0,-85.0,253.0,2.0,74.0,-4.0,-113.0,-352.0,993.0
-28.0,-84.0,250.0,5.0,73.0,-4.0,-106.0,-349.0,989.0
-30.0,-83.0,251.0,6.0,73.0,-3.0,-108.0,-352.0,991.0
-30.0,-81.0,251.0,6.0,73.0,-1.0,-114.0,-351.0,990.0
-34.0,-83.0,256.0,4.0,73.0,-3.0,-107.0,-342.0,994.0
-32.0,-82.0,250.0,2.0,72.0,-3.0,-107.0,-347.0,993.0
-31.0,-82.0,253.0,0.0,73.0,-2.0,-109.0,-350.0,993.0
-31.0,-80.0,254.0,-2.0,74.0,-1.0,-108.0,-350.0,995.0
-32.0,-82.0,252.0,-3.0,72.0,-3.0,-111.0,-344.0,988.0
-35.0,-84.0,250.0,-7.0,71.0,-3.0,-113.0,-355.0,996.0
-31.0,-82.0,254.0,-9.0,70.0,-4.0,-108.0,-353.0,994.0
-32.0,-81.0,253.0,-10.0,69.0,-5.0,-108.0,-351.0,995.0
-33.0,-83.0,253.0,-12.0,67.0,-5.0,-111.0,-347.0,990.0
-32.0,-84.0,253.0,-12.0,66.0,-5.0,-105.0,-353.0,991.0
-33.0,-87.0,251.0,-14.0,65.0,-7.0,-110.0,-352.0,991.0
-31.0,-84.0,250.0,-15.0,66.0,-6.0,-109.0,-350.0,989.0
-31.0,-83.0,251.0,-15.0,63.0,-5.0,-108.0,-345.0,989.0
-32.0,-82.0,252.0,-15.0,65.0,-5.0,-108.0,-352.0,992.0
-31.0,-84.0,248.0,-15.0,66.0,-5.0,-107.0,-354.0,995.0
-32.0,-83.0,253.0,-16.0,65.0,-5.0,-109.0,-353.0,996.0
-32.0,-82.0,250.0,-17.0,66.0,-4.0,-106.0,-350.0,993.0
-34.0,-84.0,255.0,-18.0,67.0,-4.0,-108.0,-351.0,992.0
-31.0,-84.0,251.0,-17.0,67.0,-4.0,-110.0,-351.0,997.0
-31.0,-82.0,263.0,-18.0,67.0,-1.0,-105.0,-354.0,994.0
-30.0,-83.0,254.0,-18.0,68.0,-3.0,-107.0,-355.0,992.0
-33.0,-84.0,252.0,-17.0,66.0,-3.0,-108.0,-349.0,994.0
-30.0,-82.0,252.0,-16.0,66.0,-4.0,-108.0,-350.0,993.0
-29.0,-87.0,252.0,-14.0,66.0,-4.0,-111.0,-348.0,996.0
-32.0,-83.0,251.0,-14.0,65.0,-3.0,-113.0,-356.0,992.0
-33.0,-83.0,253.0,-14.0,66.0,-2.0,-107.0,-352.0,988.0
-33.0,-83.0,252.0,-14.0,66.0,-3.0,-109.0,-352.0,988.0
-34.0,-86.0,250.0,-12.0,67.0,-3.0,-110.0,-348.0,988.0
-31.0,-84.0,255.0,-12.0,65.0,-4.0,-111.0,-349.0,986.0
-31.0,-88.0,253.0,-11.0,67.0,-3.0,-108.0,-353.0,995.0
-32.0,-82.0,254.0,-12.0,67.0,-4.0,-109.0,-351.0,992.0
-34.0,-82.0,252.0,-12.0,66.0,-3.0,-108.0,-355.0,987.0
-29.0,-85.0,251.0,-13.0,67.0,-5.0,-111.0,-355.0,991.0
-32.0,-82.0,252.0,-13.0,68.0,-5.0,-108.0,-354.0,991.0
-33.0,-82.0,252.0,-14.0,66.0,-3.0,-111.0,-350.0,988.0
-34.0,-82.0,248.0,-14.0,69.0,-4.0,-109.0,-354.0,993.0
-33.0,-80.0,253.0,-14.0,68.0,-3.0,-108.0,-353.0,995.0
-33.0,-84.0,254.0,-13.0,69.0,-3.0,-111.0,-353.0,989.0
-32.0,-86.0,254.0,-13.0,67.0,-3.0,-107.0,-352.0,991.0
-30.0,-84.0,254.0,-12.0,67.0,-3.0,-107.0,-353.0,986.0
-30.0,-85.0,254.0,-12.0,69.0,-4.0,-107.0,-354.0,992.0
-33.0,-81.0,250.0,-11.0,68.0,-3.0,-108.0,-354.0,993.0
-30.0,-81.0,250.0,-11.0,67.0,-4.0,-104.0,-350.0,993.0
-30.0,-85.0,253.0,-10.0,68.0,-3.0,-108.0,-352.0,994.0
-31.0,-83.0,256.0,-9.0,69.0,-3.0,-107.0,-353.0,991.0
-30.0,-83.0,249.0,-9.0,68.0,-3.0,-110.0,-351.0,989.0
-29.0,-86.0,253.0,-8.0,70.0,-3.0,-108.0,-353.0,993.0
-30.0,-86.0,255.0,-8.0,68.0,-3.0,-106.0,-355.0,989.0
-32.0,-84.0,250.0,-8.0,69.0,-3.0,-109.0,-349.0,987.0
-31.0,-82.0,254.0,-8.0,70.0,-4.0,-108.0,-350.0,989.0
-30.0,-83.0,251.0,-7.0,69.0,-4.0,-109.0,-350.0,993.0
-31.0,-84.0,254.0,-8.0,69.0,-3.0,-107.0,-350.0,993.0
-31.0,-83.0,249.0,-10.0,69.0,-5.0,-112.0,-351.0,992.0
-29.0,-84.0,254.0,-10.0,69.0,-4.0,-112.0,-353.0,992.0
-30.0,-83.0,253.0,-11.0,69.0,-4.0,-105.0,-352.0,995.0
-32.0,-85.0,249.0,-11.0,68.0,-2.0,-109.0,-350.0,990.0
-34.0,-85.0,256.0,-12.0,69.0,-2.0,-111.0,-351.0,992.0
-31.0,-86.0,251.0,-12.0,69.0,-2.0,-105.0,-355.0,994.0
-32.0,-86.0,253.0,-13.0,68.0,-2.0,-109.0,-356.0,991.0
-31.0,-81.0,252.0,-13.0,69.0,-3.0,-108.0,-353.0,988.0
-32.0,-85.0,254.0,-12.0,68.0,-3.0,-105.0,-350.0,992.0
-37.0,-81.0,251.0,-12.0,68.0,-2.0,-111.0,-352.0,991.0
-31.0,-81.0,253.0,-11.0,70.0,-3.0,-110.0,-353.0,991.0
-32.0,-83.0,250.0,-9.0,70.0,-4.0,-108.0,-352.0,989.0
-29.0,-83.0,252.0,-8.0,69.0,-3.0,-110.0,-355.0,992.0
-32.0,-84.0,248.0,-7.0,70.0,-3.0,-113.0,-345.0,992.0
-31.0,-81.0,253.0,-4.0,70.0,-3.0,-114.0,-350.0,992.0
-32.0,-83.0,252.0,-5.0,71.0,-3.0,-108.0,-353.0,993.0
-31.0,-84.0,253.0,-5.0,72.0,-3.0,-108.0,-351.0,993.0
-30.0,-82.0,252.0,-4.0,72.0,-3.0,-104.0,-349.0,990.0
-31.0,-83.0,254.0,-4.0,73.0,-3.0,-109.0,-350.0,997.0
-31.0,-85.0,253.0,-4.0,73.0,-3.0,-110.0,-351.0,993.0
-32.0,-84.0,250.0,-3.0,74.0,-3.0,-111.0,-353.0,990.0
-31.0,-83.0,257.0,-4.0,74.0,-2.0,-108.0,-349.0,995.0
-30.0,-83.0,254.0,-4.0,73.0,-3.0,-108.0,-350.0,994.0
-29.0,-84.0,252.0,-5.0,74.0,-2.0,-105.0,-345.0,990.0
-32.0,-84.0,249.0,-10.0,73.0,-2.0,-109.0,-352.0,987.0
-33.0,-81.0,250.0,-13.0,71.0,-1.0,-107.0,-348.0,998.0
-32.0,-84.0,254.0,-17.0,73.0,-1.0,-112.0,-350.0,993.0
-29.0,-82.0,253.0,-20.0,72.0,-1.0,-106.0,-350.0,992.0
-32.0,-81.0,254.0,-21.0,71.0,-1.0,-106.0,-347.0,995.0
-30.0,-85.0,254.0,-22.0,68.0,-3.0,-109.0,-351.0,995.0
-30.0,-79.0,252.0,-21.0,66.0,-3.0,-108.0,-351.0,990.0
-33.0,-81.0,250.0,-18.0,65.0,-3.0,-112.0,-347.0,990.0
-32.0,-84.0,251.0,-12.0,63.0,-4.0,-108.0,-351.0,992.0
-32.0,-82.0,252.0,-7.0,65.0,-2.0,-108.0,-354.0,990.0
-33.0,-82.0,250.0,-1.0,67.0,-4.0,-109.0,-355.0,992.0
-32.0,-82.0,252.0,3.0,67.0,-4.0,-107.0,-350.0,984.0
-30.0,-83.0,252.0,7.0,68.0,-5.0,-111.0,-353.0,988.0
-32.0,-85.0,250.0,8.0,69.0,-6.0,-108.0,-352.0,993.0
-32.0,-83.0,255.0,8.0,71.0,-6.0,-111.0,-351.0,988.0
-31.0,-87.0,254.0,6.0,72.0,-7.0,-110.0,-355.0,988.0
-33.0,-86.0,253.0,2.0,74.0,-7.0,-110.0,-356.0,989.0
-29.0,-85.0,249.0,-1.0,75.0,-5.0,-107.0,-356.0,985.0
-31.0,-84.0,246.0,-4.0,76.0,-5.0,-112.0,-357.0,982.0
-34.0,-82.0,248.0,-6.0,80.0,-2.0,-110.0,-352.0,982.0
-30.0,-84.0,252.0,-7.0,80.0,0.0,-109.0,-355.0,979.0
-30.0,-82.0,248.0,-3.0,80.0,-1.0,-114.0,-351.0,982.0
-30.0,-82.0,249.0,6.0,77.0,2.0,-110.0,-345.0,985.0
-34.0,-84.0,251.0,15.0,73.0,2.0,-114.0,-349.0,984.0
-31.0,-85.0,252.0,28.0,68.0,3.0,-107.0,-345.0,986.0
-32.0,-81.0,254.0,39.0,63.0,5.0,-106.0,-352.0,986.0
-31.0,-82.0,251.0,47.0,59.0,4.0,-109.0,-350.0,992.0
-33.0,-79.0,253.0,56.0,58.0,4.0,-110.0,-346.0,996.0
-33.0,-81.0,254.0,62.0,56.0,3.0,-112.0,-346.0,994.0
-30.0,-81.0,254.0,65.0,55.0,3.0,-110.0,-346.0,995.0
-31.0,-81.0,254.0,63.0,54.0,1.0,-111.0,-341.0,994.0
-33.0,-79.0,253.0,59.0,52.0,3.0,-109.0,-339.0,995.0
-33.0,-83.0,254.0,54.0,52.0,1.0,-111.0,-340.0,998.0
-34.0,-81.0,253.0,44.0,52.0,1.0,-111.0,-342.0,998.0
-31.0,-83.0,255.0,35.0,54.0,-2.0,-108.0,-342.0,1000.0
-31.0,-83.0,255.0,26.0,55.0,-5.0,-111.0,-346.0,1000.0
-29.0,-84.0,256.0,18.0,57.0,-5.0,-111.0,-347.0,1000.0
-26.0,-83.0,255.0,9.0,61.0,-5.0,-108.0,-345.0,1000.0
-33.0,-81.0,253.0,2.0,65.0,-3.0,-111.0,-344.0,998.0
-30.0,-81.0,254.0,-4.0,67.0,-3.0,-108.0,-344.0,997.0
-31.0,-80.0,254.0,-9.0,69.0,-4.0,-111.0,-342.0,998.0
-32.0,-82.0,254.0,-11.0,71.0,-4.0,-112.0,-353.0,995.0
-31.0,-81.0,252.0,-12.0,71.0,-4.0,-113.0,-348.0,994.0
-28.0,-81.0,253.0,-10.0,71.0,-3.0,-108.0,-349.0,998.0
-30.0,-81.0,254.0,-11.0,70.0,-1.0,-107.0,-349.0,993.0
-32.0,-84.0,251.0,-10.0,70.0,-1.0,-107.0,-347.0,992.0
-30.0,-83.0,255.0,-10.0,68.0,0.0,-106.0,-351.0,996.0
-33.0,-82.0,252.0,-9.0,66.0,0.0,-107.0,-346.0,992.0
-29.0,-85.0,253.0,-8.0,64.0,-2.0,-108.0,-343.0,997.0
-30.0,-82.0,255.0,-9.0,63.0,-2.0,-110.0,-349.0,997.0
-29.0,-84.0,252.0,-8.0,61.0,-2.0,-110.0,-348.0,993.0
-33.0,-82.0,255.0,-8.0,62.0,-3.0,-108.0,-348.0,993.0
-33.0,-85.0,253.0,-10.0,62.0,-4.0,-109.0,-345.0,997.0
-31.0,-84.0,255.0,-13.0,63.0,-5.0,-109.0,-341.0,992.0
-32.0,-82.0,255.0,-14.0,63.0,-5.0,-108.0,-346.0,996.0
-30.0,-83.0,254.0,-16.0,63.0,-6.0,-113.0,-349.0,990.0
-33.0,-83.0,252.0,-19.0,65.0,-6.0,-111.0,-346.0,994.0
-31.0,-80.0,253.0,-22.0,66.0,-6.0,-110.0,-343.0,995.0
-30.0,-83.0,253.0,-24.0,66.0,-5.0,-108.0,-344.0,992.0
-33.0,-84.0,255.0,-26.0,66.0,-4.0,-107.0,-340.0,994.0
-29.0,-82.0,250.0,-27.0,67.0,-6.0,-108.0,-345.0,997.0
-30.0,-85.0,253.0,-27.0,66.0,-4.0,-108.0,-344.0,995.0
-31.0,-83.0,254.0,-26.0,65.0,-5.0,-108.0,-350.0,991.0
-31.0,-84.0,251.0,-26.0,65.0,-6.0,-114.0,-351.0,997.0
-30.0,-82.0,254.0,-26.0,67.0,-5.0,-108.0,-346.0,989.0
-30.0,-82.0,250.0,-26.0,66.0,-4.0,-108.0,-346.0,994.0
-31.0,-84.0,252.0,-25.0,66.0,-4.0,-111.0,-345.0,992.0
-32.0,-82.0,253.0,-27.0,66.0,-5.0,-109.0,-342.0,995.0
-31.0,-83.0,253.0,-28.0,67.0,-6.0,-113.0,-350.0,997.0
-32.0,-83.0,254.0,-29.0,69.0,-5.0,-105.0,-346.0,992.0
-28.0,-83.0,251.0,-29.0,70.0,-5.0,-109.0,-349.0,996.0
-29.0,-84.0,252.0,-30.0,70.0,-4.0,-106.0,-348.0,990.0
-30.0,-82.0,253.0,-31.0,72.0,-4.0,-107.0,-345.0,993.0
-32.0,-83.0,252.0,-29.0,73.0,-4.0,-112.0,-352.0,988.0
-34.0,-87.0,259.0,-26.0,74.0,-4.0,-109.0,-354.0,989.0
-34.0,-82.0,251.0,-21.0,73.0,-4.0,-111.0,-347.0,990.0
-33.0,-83.0,250.0,-17.0,73.0,-4.0,-114.0,-354.0,989.0
-31.0,-84.0,253.0,-11.0,74.0,-5.0,-109.0,-350.0,986.0
-32.0,-86.0,251.0,-7.0,75.0,-4.0,-109.0,-349.0,989.0
-35.0,-82.0,249.0,-4.0,74.0,-4.0,-112.0,-351.0,990.0
-31.0,-84.0,254.0,-2.0,72.0,-4.0,-111.0,-345.0,991.0
-33.0,-82.0,252.0,2.0,73.0,-4.0,-111.0,-347.0,986.0
-30.0,-84.0,251.0,2.0,73.0,-4.0,-111.0,-345.0,990.0
-30.0,-80.0,253.0,2.0,72.0,-3.0,-111.0,-344.0,993.0
-32.0,-80.0,253.0,2.0,70.0,-4.0,-113.0,-342.0,993.0
-34.0,-81.0,254.0,1.0,71.0,-5.0,-109.0,-346.0,993.0
-30.0,-83.0,254.0,-1.0,70.0,-4.0,-113.0,-347.0,991.0
-31.0,-80.0,252.0,-1.0,68.0,-3.0,-112.0,-342.0,1004.0
-32.0,-81.0,255.0,-3.0,69.0,-2.0,-110.0,-347.0,991.0
-32.0,-82.0,254.0,-7.0,68.0,-2.0,-110.0,-341.0,990.0
-30.0,-86.0,253.0,-7.0,68.0,-4.0,-111.0,-345.0,991.0
-32.0,-81.0,251.0,-9.0,67.0,-3.0,-112.0,-346.0,997.0
-31.0,-83.0,252.0,-10.0,67.0,-4.0,-109.0,-345.0,994.0
-33.0,-81.0,254.0,-10.0,65.0,-2.0,-110.0,-349.0,993.0
-34.0,-81.0,254.0,-11.0,64.0,-5.0,-106.0,-346.0,996.0
-30.0,-81.0,252.0,-13.0,63.0,-5.0,-106.0,-344.0,990.0
-28.0,-79.0,257.0,-14.0,64.0,-5.0,-108.0,-347.0,994.0
-33.0,-80.0,253.0,-16.0,64.0,-5.0,-108.0,-342.0,993.0
-33.0,-84.0,254.0,-17.0,66.0,-6.0,-109.0,-344.0,990.0
-33.0,-81.0,253.0,-18.0,67.0,-4.0,-109.0,-346.0,997.0
-34.0,-79.0,249.0,-17.0,68.0,-3.0,-104.0,-344.0,994.0
-30.0,-83.0,253.0,-19.0,67.0,-3.0,-110.0,-345.0,995.0
-31.0,-81.0,253.0,-19.0,69.0,-4.0,-109.0,-349.0,995.0
-33.0,-79.0,250.0,-18.0,69.0,-3.0,-107.0,-344.0,994.0
-29.0,-83.0,252.0,-19.0,68.0,-2.0,-105.0,-348.0,995.0
-32.0,-80.0,251.0,-20.0,67.0,-1.0,-108.0,-347.0,992.0
-30.0,-85.0,250.0,-17.0,67.0,0.0,-104.0,-348.0,991.0
-34.0,-82.0,253.0,-16.0,67.0,-2.0,-107.0,-347.0,999.0
-32.0,-79.0,252.0,-15.0,65.0,-2.0,-111.0,-351.0,993.0
-29.0,-82.0,252.0,-14.0,64.0,0.0,-107.0,-349.0,994.0
-30.0,-86.0,255.0,-14.0,64.0,-2.0,-110.0,-348.0,995.0
-33.0,-81.0,252.0,-13.0,64.0,-3.0,-109.0,-346.0,991.0
-28.0,-83.0,252.0,-13.0,64.0,-4.0,-111.0,-350.0,995.0
-30.0,-83.0,252.0,-14.0,63.0,-4.0,-110.0,-352.0,992.0
-28.0,-82.0,254.0,-16.0,66.0,-5.0,-112.0,-346.0,993.0
-30.0,-82.0,254.0,-15.0,67.0,-5.0,-108.0,-344.0,993.0
-30.0,-82.0,253.0,-15.0,68.0,-5.0,-109.0,-347.0,994.0
-29.0,-84.0,254.0,-15.0,67.0,-5.0,-112.0,-348.0,994.0
-32.0,-82.0,251.0,-16.0,69.0,-4.0,-109.0,-351.0,997.0
-31.0,-81.0,255.0,-16.0,69.0,-6.0,-110.0,-346.0,996.0
-33.0,-82.0,251.0,-17.0,68.0,-4.0,-109.0,-348.0,994.0
-28.0,-80.0,253.0,-16.0,68.0,-4.0,-108.0,-349.0,993.0
-32.0,-82.0,255.0,-16.0,69.0,-3.0,-106.0,-353.0,989.0
-33.0,-79.0,252.0,-16.0,69.0,-2.0,-105.0,-348.0,991.0
-29.0,-84.0,253.0,-15.0,67.0,-2.0,-107.0,-355.0,988.0
-32.0,-81.0,250.0,-15.0,66.0,-3.0,-108.0,-346.0,992.0
-33.0,-83.0,252.0,-16.0,67.0,-1.0,-108.0,-352.0,991.0
-33.0,-82.0,252.0,-16.0,66.0,-1.0,-110.0,-351.0,994.0
-32.0,-82.0,253.0,-17.0,67.0,-2.0,-108.0,-347.0,992.0
-31.0,-84.0,254.0,-15.0,68.0,-2.0,-108.0,-353.0,993.0
-33.0,-81.0,250.0,-14.0,67.0,-4.0,-109.0,-349.0,992.0
-30.0,-83.0,251.0,-14.0,68.0,-3.0,-111.0,-350.0,990.0
-34.0,-82.0,253.0,-12.0,68.0,-4.0,-104.0,-350.0,997.0
-30.0,-84.0,253.0,-12.0,67.0,-2.0,-106.0,-348.0,999.0
-35.0,-82.0,255.0,-12.0,69.0,-4.0,-112.0,-348.0,994.0
-32.0,-81.0,250.0,-11.0,69.0,-3.0,-108.0,-349.0,987.0
-30.0,-84.0,251.0,-12.0,70.0,-3.0,-105.0,-349.0,990.0
-31.0,-82.0,252.0,-11.0,70.0,-2.0,-110.0,-348.0,989.0
-31.0,-81.0,253.0,-12.0,70.0,-4.0,-106.0,-345.0,994.0
-30.0,-82.0,251.0,-13.0,71.0,-4.0,-107.0,-354.0,993.0
-32.0,-84.0,253.0,-12.0,70.0,-3.0,-109.0,-351.0,991.0
-29.0,-82.0,250.0,-14.0,68.0,-3.0,-106.0,-345.0,998.0
-34.0,-83.0,252.0,-13.0,67.0,-3.0,-107.0,-352.0,988.0
-34.0,-83.0,255.0,-13.0,68.0,-3.0,-110.0,-344.0,994.0
-32.0,-81.0,253.0,-13.0,66.0,-4.0,-108.0,-351.0,994.0
-31.0,-85.0,251.0,-14.0,66.0,-4.0,-110.0,-349.0,991.0
-28.0,-87.0,256.0,-15.0,68.0,-4.0,-107.0,-348.0,996.0
-31.0,-83.0,253.0,-15.0,67.0,-2.0,-106.0,-342.0,992.0
-34.0,-84.0,252.0,-15.0,67.0,-3.0,-108.0,-346.0,995.0
-33.0,-81.0,255.0,-14.0,67.0,-3.0,-106.0,-350.0,991.0
-31.0,-79.0,251.0,-15.0,68.0,-2.0,-112.0,-347.0,990.0
-31.0,-81.0,253.0,-15.0,67.0,-2.0,-113.0,-345.0,996.0
-33.0,-83.0,251.0,-14.0,67.0,-2.0,-109.0,-342.0,991.0
-30.0,-86.0,251.0,-13.0,66.0,-1.0,-106.0,-349.0,998.0
-28.0,-85.0,256.0,-13.0,66.0,-1.0,-107.0,-348.0,993.0
-31.0,-84.0,252.0,-12.0,66.0,-2.0,-110.0,-343.0,997.0
-31.0,-83.0,255.0,-11.0,67.0,-2.0,-106.0,-348.0,988.0
-32.0,-85.0,250.0,-10.0,67.0,-2.0,-112.0,-347.0,994.0
-30.0,-83.0,252.0,-9.0,67.0,-2.0,-109.0,-347.0,991.0
-33.0,-83.0,251.0,-8.0,68.0,-2.0,-108.0,-347.0,988.0
-31.0,-82.0,252.0,-9.0,68.0,-2.0,-109.0,-342.0,990.0
-29.0,-81.0,252.0,-8.0,67.0,-3.0,-113.0,-348.0,991.0
-33.0,-85.0,252.0,-8.0,68.0,-3.0,-108.0,-348.0,991.0
-30.0,-83.0,251.0,-8.0,69.0,-2.0,-111.0,-347.0,991.0
-33.0,-82.0,254.0,-7.0,70.0,-4.0,-107.0,-347.0,991.0
-29.0,-84.0,256.0,-7.0,70.0,-2.0,-109.0,-346.0,993.0
-33.0,-82.0,249.0,-8.0,71.0,-2.0,-110.0,-347.0,995.0
-31.0,-82.0,249.0,-6.0,71.0,-1.0,-107.0,-349.0,994.0
-30.0,-84.0,253.0,-7.0,71.0,-2.0,-109.0,-350.0,995.0
-32.0,-84.0,253.0,-10.0,70.0,-4.0,-109.0,-350.0,997.0
-31.0,-85.0,255.0,-12.0,69.0,-2.0,-107.0,-346.0,993.0
-31.0,-83.0,255.0,-17.0,68.0,-1.0,-109.0,-350.0,993.0
-31.0,-81.0,254.0,-18.0,70.0,-1.0,-111.0,-347.0,992.0
-29.0,-82.0,251.0,-21.0,70.0,-1.0,-106.0,-349.0,991.0
-32.0,-83.0,248.0,-21.0,71.0,0.0,-111.0,-347.0,992.0
-32.0,-82.0,253.0,-22.0,70.0,-3.0,-106.0,-344.0,992.0
-31.0,-84.0,252.0,-20.0,70.0,-3.0,-108.0,-343.0,994.0
-30.0,-83.0,254.0,-17.0,66.0,-4.0,-108.0,-348.0,989.0
-32.0,-85.0,253.0,-13.0,66.0,-4.0,-112.0,-348.0,991.0
-30.0,-88.0,253.0,-8.0,67.0,-3.0,-106.0,-353.0,991.0
-31.0,-84.0,249.0,-2.0,67.0,-4.0,-109.0,-353.0,990.0
-32.0,-85.0,250.0,3.0,68.0,-5.0,-106.0,-349.0,989.0
-30.0,-84.0,252.0,7.0,69.0,-6.0,-106.0,-349.0,990.0
-40.0,-81.0,246.0,8.0,70.0,-7.0,-108.0,-351.0,993.0
-32.0,-85.0,249.0,8.0,73.0,-6.0,-110.0,-351.0,995.0
-32.0,-85.0,252.0,6.0,71.0,-7.0,-104.0,-348.0,990.0
-30.0,-84.0,255.0,3.0,73.0,-7.0,-114.0,-354.0,992.0
-31.0,-85.0,252.0,-1.0,74.0,-7.0,-111.0,-353.0,990.0
-34.0,-83.0,249.0,-5.0,76.0,-6.0,-111.0,-353.0,983.0
-33.0,-82.0,251.0,-7.0,77.0,-5.0,-108.0,-352.0,984.0
-31.0,-83.0,253.0,-7.0,78.0,-2.0,-109.0,-348.0,980.0
-31.0,-81.0,249.0,-6.0,76.0,1.0,-110.0,-351.0,984.0
-30.0,-84.0,250.0,0.0,73.0,1.0,-107.0,-350.0,985.0
-32.0,-84.0,251.0,7.0,68.0,1.0,-109.0,-348.0,991.0
-32.0,-82.0,249.0,15.0,63.0,1.0,-110.0,-347.0,988.0
-29.0,-86.0,252.0,24.0,57.0,0.0,-110.0,-347.0,990.0
-29.0,-86.0,251.0,31.0,55.0,0.0,-105.0,-342.0,990.0
-32.0,-79.0,251.0,37.0,52.0,-1.0,-111.0,-341.0,994.0
-34.0,-81.0,254.0,43.0,52.0,-1.0,-109.0,-343.0,997.0
-32.0,-82.0,254.0,45.0,52.0,-1.0,-108.0,-340.0,998.0
