acc1_x,acc1_y,acc1_z,gyro_x,gyro_y,gyro_z,acc2_x,acc2_y,acc2_z
4.0,-249.0,-5.0,54.0,15.0,-9.0,3.0,-1011.0,-5.0
8.0,-247.0,-5.0,53.0,15.0,-10.0,-5.0,-1014.0,-7.0
2.0,-246.0,-4.0,48.0,14.0,-8.0,2.0,-1018.0,-4.0
5.0,-244.0,-2.0,46.0,13.0,-9.0,2.0,-1019.0,-5.0
3.0,-248.0,-1.0,42.0,12.0,-8.0,-1.0,-1018.0,-1.0
2.0,-247.0,-10.0,40.0,11.0,-8.0,-8.0,-1018.0,-7.0
3.0,-248.0,-4.0,39.0,11.0,-9.0,-2.0,-1023.0,-4.0
4.0,-249.0,-6.0,38.0,10.0,-9.0,-8.0,-1020.0,-4.0
1.0,-246.0,-6.0,37.0,9.0,-9.0,0.0,-1018.0,0.0
3.0,-249.0,-1.0,39.0,11.0,-10.0,-4.0,-1026.0,-2.0
2.0,-250.0,-7.0,39.0,12.0,-9.0,-7.0,-1020.0,0.0
4.0,-250.0,-2.0,40.0,14.0,-10.0,-7.0,-1023.0,-5.0
5.0,-250.0,-5.0,42.0,14.0,-11.0,-3.0,-1025.0,1.0
3.0,-254.0,-7.0,44.0,16.0,-13.0,-2.0,-1026.0,-2.0
2.0,-245.0,-4.0,46.0,15.0,-12.0,-4.0,-1021.0,-1.0
3.0,-249.0,1.0,47.0,15.0,-13.0,-1.0,-1022.0,-6.0
3.0,-252.0,-3.0,48.0,16.0,-13.0,-4.0,-1019.0,-4.0
1.0,-248.0,-1.0,48.0,15.0,-12.0,-4.0,-1021.0,-5.0
2.0,-249.0,-2.0,49.0,14.0,-11.0,-1.0,-1019.0,-16.0
2.0,-248.0,-7.0,47.0,13.0,-11.0,-1.0,-1016.0,-7.0
4.0,-249.0,-10.0,48.0,11.0,-10.0,-4.0,-1018.0,-10.0
2.0,-247.0,-4.0,46.0,10.0,-9.0,-2.0,-1015.0,-11.0
2.0,-247.0,-11.0,43.0,8.0,-8.0,2.0,-1025.0,-13.0
3.0,-245.0,-3.0,43.0,5.0,-8.0,0.0,-1020.0,-15.0
6.0,-251.0,-4.0,43.0,5.0,-8.0,-1.0,-1017.0,-3.0
3.0,-249.0,-9.0,43.0,4.0,-8.0,-9.0,-1020.0,0.0
3.0,-249.0,-9.0,43.0,4.0,-7.0,-5.0,-1022.0,-3.0
4.0,-247.0,-3.0,43.0,3.0,-8.0,-1.0,-1022.0,6.0
5.0,-251.0,-3.0,46.0,5.0,-6.0,-6.0,-1022.0,-5.0
3.0,-247.0,-3.0,46.0,7.0,-7.0,-8.0,-1020.0,-3.0
2.0,-249.0,-5.0,48.0,9.0,-8.0,-2.0,-1016.0,-7.0
2.0,-249.0,-6.0,50.0,11.0,-10.0,-7.0,-1023.0,-1.0
1.0,-250.0,-4.0,50.0,13.0,-10.0,-6.0,-1022.0,-5.0
3.0,-249.0,-4.0,52.0,14.0,-8.0,-6.0,-1030.0,-2.0
4.0,-247.0,-3.0,52.0,14.0,-8.0,-5.0,-1023.0,-2.0
4.0,-249.0,-2.0,51.0,15.0,-10.0,-2.0,-1022.0,-11.0
5.0,-250.0,-9.0,51.0,16.0,-9.0,-3.0,-1019.0,-2.0
4.0,-250.0,-1.0,50.0,13.0,-8.0,-2.0,-1018.0,-12.0
4.0,-251.0,-5.0,48.0,13.0,-7.0,1.0,-1017.0,-7.0
4.0,-248.0,-2.0,47.0,13.0,-9.0,-2.0,-1015.0,-2.0
7.0,-248.0,-7.0,47.0,11.0,-9.0,1.0,-1017.0,-5.0
1.0,-247.0,-7.0,46.0,10.0,-10.0,-1.0,-1018.0,-3.0
3.0,-252.0,-6.0,46.0,7.0,-11.0,-4.0,-1021.0,-14.0
7.0,-249.0,-8.0,45.0,8.0,-12.0,-2.0,-1015.0,-4.0
6.0,-250.0,-7.0,46.0,7.0,-12.0,4.0,-1019.0,-15.0
4.0,-250.0,-11.0,45.0,7.0,-11.0,-5.0,-1015.0,-9.0
3.0,-246.0,-3.0,45.0,8.0,-10.0,-3.0,-1013.0,-6.0
7.0,-248.0,-1.0,45.0,8.0,-10.0,-1.0,-1010.0,-9.0
4.0,-248.0,-8.0,44.0,10.0,-11.0,-2.0,-1017.0,-13.0
2.0,-247.0,-7.0,42.0,9.0,-10.0,-6.0,-1013.0,-13.0
2.0,-248.0,-11.0,43.0,10.0,-10.0,-2.0,-1017.0,-7.0
4.0,-247.0,-4.0,42.0,9.0,-11.0,-4.0,-1017.0,-17.0
1.0,-248.0,-6.0,42.0,11.0,-10.0,-5.0,-1018.0,-8.0
4.0,-249.0,-4.0,42.0,10.0,-10.0,-4.0,-1017.0,-9.0
4.0,-245.0,-5.0,42.0,12.0,-9.0,-2.0,-1020.0,-4.0
3.0,-247.0,-6.0,42.0,11.0,-10.0,-2.0,-1021.0,-6.0
2.0,-247.0,-4.0,41.0,9.0,-10.0,-3.0,-1022.0,-4.0
2.0,-250.0,-5.0,41.0,9.0,-10.0,-3.0,-1022.0,-5.0
1.0,-249.0,-5.0,40.0,10.0,-10.0,-2.0,-1023.0,-8.0
5.0,-250.0,-3.0,41.0,10.0,-11.0,-8.0,-1018.0,-9.0
5.0,-247.0,-3.0,41.0,10.0,-11.0,-2.0,-1017.0,-6.0
4.0,-248.0,-10.0,41.0,12.0,-9.0,-3.0,-1020.0,-15.0
4.0,-248.0,-10.0,41.0,12.0,-12.0,-7.0,-1022.0,-7.0
2.0,-248.0,-8.0,41.0,12.0,-13.0,-3.0,-1018.0,-9.0
5.0,-252.0,-9.0,41.0,12.0,-12.0,-8.0,-1025.0,-9.0
4.0,-248.0,-8.0,44.0,12.0,-14.0,-3.0,-1021.0,-16.0
4.0,-249.0,-2.0,42.0,11.0,-12.0,-4.0,-1020.0,-10.0
6.0,-246.0,-7.0,44.0,9.0,-12.0,-3.0,-1020.0,-7.0
1.0,-247.0,-7.0,44.0,9.0,-12.0,-3.0,-1021.0,-3.0
9.0,-249.0,2.0,40.0,9.0,-12.0,-2.0,-1018.0,-6.0
3.0,-251.0,-4.0,40.0,9.0,-11.0,-2.0,-1024.0,-3.0
6.0,-250.0,-4.0,38.0,8.0,-12.0,-1.0,-1020.0,0.0
3.0,-248.0,-8.0,38.0,7.0,-11.0,-6.0,-1020.0,-4.0
6.0,-250.0,-4.0,40.0,8.0,-12.0,1.0,-1020.0,-16.0
1.0,-249.0,-7.0,42.0,8.0,-12.0,-6.0,-1020.0,-8.0
3.0,-250.0,-1.0,44.0,9.0,-11.0,-1.0,-1016.0,-6.0
4.0,-250.0,-5.0,45.0,8.0,-11.0,-3.0,-1019.0,-4.0
4.0,-247.0,-7.0,44.0,10.0,-10.0,-2.0,-1019.0,-9.0
1.0,-247.0,-3.0,45.0,9.0,-10.0,-1.0,-1016.0,-4.0
6.0,-248.0,-2.0,44.0,10.0,-10.0,2.0,-1020.0,-5.0
4.0,-248.0,-8.0,43.0,10.0,-10.0,-5.0,-1026.0,-10.0
4.0,-249.0,-6.0,41.0,11.0,-10.0,-3.0,-1015.0,-12.0
2.0,-247.0,-8.0,40.0,12.0,-8.0,-3.0,-1016.0,-12.0
5.0,-249.0,-6.0,39.0,11.0,-10.0,0.0,-1015.0,-6.0
4.0,-248.0,-7.0,36.0,10.0,-10.0,-5.0,-1011.0,-7.0
2.0,-250.0,-5.0,32.0,10.0,-11.0,0.0,-1020.0,-15.0
6.0,-249.0,-4.0,34.0,8.0,-11.0,-3.0,-1021.0,-12.0
2.0,-246.0,-9.0,34.0,8.0,-12.0,-3.0,-1017.0,-7.0
3.0,-247.0,-7.0,34.0,8.0,-12.0,0.0,-1021.0,-8.0
10.0,-251.0,-6.0,34.0,8.0,-14.0,-2.0,-1019.0,-7.0
2.0,-254.0,-2.0,34.0,9.0,-13.0,-2.0,-1021.0,-11.0
5.0,-252.0,-10.0,34.0,10.0,-13.0,-3.0,-1021.0,-12.0
3.0,-252.0,-7.0,35.0,8.0,-14.0,-4.0,-1028.0,-5.0
5.0,-248.0,-7.0,36.0,8.0,-12.0,-2.0,-1015.0,-14.0
3.0,-249.0,-5.0,37.0,10.0,-12.0,0.0,-1021.0,-10.0
3.0,-248.0,-7.0,37.0,9.0,-14.0,-4.0,-1021.0,-11.0
5.0,-248.0,-7.0,38.0,8.0,-14.0,-1.0,-1017.0,-16.0
2.0,-250.0,-6.0,38.0,9.0,-14.0,-1.0,-1019.0,-15.0
2.0,-247.0,-6.0,37.0,9.0,-11.0,-4.0,-1019.0,-12.0
5.0,-250.0,-3.0,34.0,8.0,-12.0,-1.0,-1018.0,-11.0
4.0,-249.0,-8.0,33.0,9.0,-13.0,-1.0,-1016.0,-11.0
12.0,-250.0,-9.0,32.0,10.0,-12.0,-3.0,-1020.0,-18.0
5.0,-247.0,-8.0,31.0,9.0,-11.0,-5.0,-1018.0,-14.0
7.0,-249.0,-10.0,30.0,8.0,-12.0,-5.0,-1018.0,-12.0
3.0,-251.0,-10.0,30.0,8.0,-11.0,-5.0,-1019.0,-10.0
2.0,-250.0,-8.0,31.0,9.0,-11.0,-2.0,-1022.0,-11.0
0.0,-248.0,-5.0,30.0,8.0,-12.0,0.0,-1020.0,-18.0
2.0,-250.0,-7.0,29.0,9.0,-12.0,-4.0,-1019.0,-11.0
4.0,-250.0,-12.0,30.0,9.0,-12.0,-4.0,-1012.0,-12.0
3.0,-247.0,-5.0,31.0,8.0,-13.0,-3.0,-1023.0,-14.0
3.0,-249.0,-7.0,32.0,11.0,-13.0,0.0,-1024.0,-14.0
5.0,-258.0,-3.0,34.0,10.0,-12.0,-2.0,-1021.0,-15.0
5.0,-250.0,-9.0,37.0,9.0,-12.0,-2.0,-1020.0,-16.0
6.0,-250.0,-5.0,39.0,9.0,-13.0,-1.0,-1020.0,-15.0
3.0,-251.0,-9.0,39.0,9.0,-13.0,-6.0,-1023.0,-11.0
4.0,-246.0,-7.0,41.0,9.0,-12.0,-6.0,-1018.0,-12.0
3.0,-251.0,-5.0,39.0,10.0,-12.0,-4.0,-1017.0,-9.0
3.0,-247.0,-8.0,40.0,11.0,-11.0,-3.0,-1018.0,-9.0
3.0,-248.0,-8.0,39.0,11.0,-13.0,-1.0,-1017.0,-15.0
6.0,-249.0,-5.0,36.0,12.0,-14.0,-1.0,-1017.0,-13.0
3.0,-249.0,-6.0,37.0,11.0,-12.0,-6.0,-1021.0,-15.0
4.0,-251.0,-7.0,36.0,9.0,-12.0,-1.0,-1020.0,-8.0
4.0,-252.0,-7.0,33.0,9.0,-13.0,0.0,-1008.0,-9.0
3.0,-248.0,-9.0,29.0,9.0,-13.0,-1.0,-1021.0,-10.0
5.0,-247.0,-7.0,27.0,7.0,-13.0,-1.0,-1022.0,-15.0
7.0,-248.0,-5.0,23.0,8.0,-12.0,-3.0,-1017.0,-7.0
3.0,-248.0,-8.0,21.0,6.0,-12.0,-5.0,-1018.0,-14.0
1.0,-245.0,-5.0,20.0,7.0,-13.0,-6.0,-1019.0,-9.0
3.0,-249.0,-10.0,21.0,7.0,-15.0,-4.0,-1021.0,-14.0
4.0,-248.0,-6.0,22.0,8.0,-15.0,-2.0,-1017.0,-11.0
1.0,-247.0,-5.0,23.0,9.0,-15.0,-3.0,-1021.0,-15.0
6.0,-251.0,-9.0,27.0,9.0,-15.0,3.0,-1020.0,-19.0
3.0,-247.0,-12.0,27.0,9.0,-14.0,6.0,-1014.0,-17.0
3.0,-246.0,-6.0,27.0,9.0,-14.0,0.0,-1022.0,-15.0
3.0,-246.0,-10.0,25.0,9.0,-14.0,1.0,-1019.0,-21.0
4.0,-247.0,-8.0,22.0,7.0,-13.0,-3.0,-1016.0,-16.0
4.0,-249.0,-12.0,18.0,5.0,-11.0,-1.0,-1019.0,-18.0
5.0,-250.0,-12.0,16.0,5.0,-11.0,-1.0,-1016.0,-12.0
6.0,-250.0,-7.0,14.0,5.0,-13.0,-6.0,-1021.0,-23.0
2.0,-247.0,-7.0,16.0,5.0,-12.0,-4.0,-1019.0,-10.0
2.0,-249.0,-6.0,17.0,6.0,-10.0,-2.0,-1018.0,-15.0
3.0,-248.0,-5.0,21.0,6.0,-10.0,-7.0,-1022.0,-19.0
5.0,-250.0,-5.0,24.0,6.0,-12.0,-3.0,-1022.0,-13.0
3.0,-249.0,-6.0,28.0,8.0,-13.0,-5.0,-1020.0,-19.0
3.0,-252.0,-8.0,33.0,8.0,-13.0,-5.0,-1019.0,-21.0
4.0,-248.0,-2.0,36.0,9.0,-14.0,-1.0,-1020.0,-12.0
4.0,-250.0,-10.0,39.0,11.0,-15.0,-5.0,-1018.0,-21.0
3.0,-249.0,-9.0,38.0,11.0,-16.0,-4.0,-1026.0,-14.0
6.0,-250.0,-11.0,39.0,10.0,-16.0,0.0,-1020.0,-17.0
4.0,-250.0,-9.0,37.0,11.0,-16.0,1.0,-1021.0,-21.0
3.0,-251.0,-10.0,36.0,11.0,-16.0,1.0,-1018.0,-16.0
3.0,-248.0,-6.0,34.0,11.0,-15.0,-2.0,-1016.0,-19.0
6.0,-247.0,-11.0,34.0,9.0,-14.0,-1.0,-1019.0,-23.0
9.0,-250.0,-7.0,32.0,10.0,-14.0,-2.0,-1012.0,-25.0
7.0,-251.0,-5.0,31.0,8.0,-12.0,0.0,-1021.0,-26.0
5.0,-248.0,-9.0,30.0,7.0,-12.0,3.0,-1021.0,-27.0
4.0,-248.0,-8.0,30.0,5.0,-11.0,-1.0,-1017.0,-21.0
4.0,-248.0,-11.0,32.0,4.0,-11.0,0.0,-1017.0,-22.0
1.0,-247.0,-10.0,33.0,5.0,-12.0,-1.0,-1019.0,-16.0
3.0,-249.0,-8.0,34.0,5.0,-9.0,-8.0,-1018.0,-16.0
4.0,-248.0,-6.0,34.0,6.0,-10.0,-4.0,-1018.0,-9.0
3.0,-247.0,-7.0,37.0,6.0,-10.0,-6.0,-1020.0,-13.0
4.0,-248.0,-5.0,37.0,8.0,-11.0,2.0,-1017.0,-11.0
4.0,-250.0,-7.0,37.0,9.0,-11.0,-2.0,-1018.0,-20.0
0.0,-249.0,-6.0,38.0,11.0,-11.0,1.0,-1021.0,-17.0
2.0,-243.0,-7.0,39.0,12.0,-10.0,-2.0,-1019.0,-14.0
7.0,-251.0,-8.0,40.0,12.0,-11.0,0.0,-1021.0,-23.0
4.0,-250.0,-6.0,41.0,12.0,-10.0,1.0,-1023.0,-20.0
5.0,-248.0,-9.0,42.0,12.0,-11.0,4.0,-1023.0,-19.0
6.0,-252.0,-8.0,43.0,13.0,-10.0,1.0,-1023.0,-15.0
3.0,-247.0,-11.0,44.0,12.0,-10.0,3.0,-1022.0,-20.0
5.0,-249.0,-4.0,44.0,12.0,-9.0,0.0,-1020.0,-18.0
4.0,-247.0,-5.0,45.0,10.0,-11.0,2.0,-1019.0,-24.0
5.0,-247.0,-11.0,44.0,9.0,-13.0,5.0,-1017.0,-25.0
5.0,-249.0,-13.0,44.0,8.0,-13.0,-4.0,-1022.0,-24.0
8.0,-250.0,-13.0,42.0,8.0,-13.0,0.0,-1010.0,-23.0
3.0,-244.0,-11.0,42.0,9.0,-13.0,3.0,-1015.0,-26.0
4.0,-246.0,-11.0,41.0,9.0,-12.0,3.0,-1013.0,-28.0
3.0,-243.0,-9.0,40.0,9.0,-11.0,2.0,-1012.0,-24.0
5.0,-248.0,-10.0,37.0,10.0,-12.0,2.0,-1015.0,-25.0
6.0,-246.0,-11.0,34.0,9.0,-10.0,4.0,-1014.0,-23.0
4.0,-248.0,-11.0,30.0,8.0,-11.0,0.0,-1021.0,-21.0
2.0,-249.0,-9.0,28.0,7.0,-14.0,-2.0,-1020.0,-20.0
2.0,-247.0,-8.0,25.0,7.0,-15.0,-3.0,-1018.0,-21.0
6.0,-252.0,-9.0,23.0,7.0,-15.0,-4.0,-1017.0,-23.0
1.0,-244.0,-10.0,22.0,7.0,-15.0,-2.0,-1018.0,-25.0
1.0,-252.0,-12.0,23.0,10.0,-15.0,-3.0,-1016.0,-22.0
6.0,-248.0,-5.0,22.0,8.0,-15.0,0.0,-1017.0,-18.0
5.0,-248.0,-11.0,22.0,8.0,-13.0,0.0,-1015.0,-23.0
6.0,-248.0,-10.0,22.0,6.0,-12.0,0.0,-1017.0,-25.0
5.0,-247.0,-7.0,20.0,8.0,-11.0,2.0,-1020.0,-16.0
4.0,-251.0,-12.0,19.0,8.0,-11.0,-5.0,-1017.0,-24.0
3.0,-246.0,-9.0,16.0,9.0,-10.0,0.0,-1020.0,-28.0
3.0,-245.0,-9.0,15.0,11.0,-12.0,-4.0,-1016.0,-28.0
4.0,-249.0,-10.0,15.0,12.0,-12.0,-3.0,-1021.0,-23.0
7.0,-248.0,-8.0,15.0,12.0,-14.0,0.0,-1019.0,-24.0
2.0,-248.0,-7.0,16.0,12.0,-14.0,0.0,-1017.0,-21.0
3.0,-252.0,-7.0,18.0,12.0,-13.0,-4.0,-1014.0,-21.0
3.0,-248.0,-15.0,21.0,12.0,-15.0,0.0,-1022.0,-24.0
2.0,-246.0,-6.0,22.0,12.0,-15.0,-4.0,-1021.0,-25.0
2.0,-248.0,-12.0,23.0,11.0,-15.0,0.0,-1020.0,-23.0
6.0,-248.0,-12.0,23.0,10.0,-14.0,-1.0,-1015.0,-22.0
4.0,-250.0,-13.0,22.0,11.0,-14.0,-2.0,-1019.0,-15.0
6.0,-250.0,-6.0,22.0,11.0,-16.0,2.0,-1021.0,-25.0
6.0,-248.0,-6.0,22.0,10.0,-14.0,-2.0,-1016.0,-20.0
2.0,-247.0,-7.0,22.0,10.0,-13.0,-2.0,-1013.0,-21.0
2.0,-247.0,-9.0,26.0,11.0,-12.0,0.0,-1019.0,-28.0
4.0,-248.0,-11.0,25.0,11.0,-11.0,-1.0,-1020.0,-25.0
3.0,-248.0,-11.0,25.0,12.0,-13.0,-1.0,-1020.0,-26.0
6.0,-249.0,-8.0,25.0,12.0,-12.0,1.0,-1020.0,-19.0
5.0,-253.0,-9.0,26.0,12.0,-12.0,-3.0,-1019.0,-21.0
4.0,-248.0,-11.0,27.0,13.0,-12.0,-2.0,-1020.0,-25.0
2.0,-248.0,-6.0,27.0,12.0,-12.0,0.0,-1018.0,-29.0
4.0,-251.0,-11.0,28.0,12.0,-12.0,-2.0,-1019.0,-22.0
6.0,-247.0,-11.0,29.0,11.0,-10.0,-1.0,-1019.0,-19.0
4.0,-247.0,-10.0,31.0,8.0,-10.0,-3.0,-1020.0,-28.0
2.0,-250.0,-12.0,31.0,9.0,-10.0,-3.0,-1022.0,-28.0
7.0,-248.0,-6.0,30.0,10.0,-12.0,0.0,-1016.0,-33.0
8.0,-254.0,-13.0,31.0,10.0,-11.0,-1.0,-1016.0,-32.0
5.0,-249.0,-10.0,31.0,9.0,-9.0,1.0,-1015.0,-29.0
4.0,-247.0,-12.0,32.0,11.0,-10.0,1.0,-1020.0,-31.0
5.0,-250.0,-14.0,34.0,10.0,-10.0,-4.0,-1018.0,-30.0
2.0,-246.0,-10.0,37.0,11.0,-10.0,-4.0,-1020.0,-30.0
5.0,-250.0,-11.0,38.0,11.0,-10.0,3.0,-1022.0,-24.0
3.0,-248.0,-13.0,39.0,11.0,-11.0,0.0,-1017.0,-29.0
6.0,-251.0,-8.0,41.0,12.0,-11.0,-2.0,-1019.0,-29.0
4.0,-248.0,-11.0,41.0,13.0,-12.0,-3.0,-1016.0,-37.0
3.0,-247.0,-14.0,41.0,13.0,-12.0,-3.0,-1017.0,-33.0
3.0,-249.0,-8.0,42.0,15.0,-12.0,-4.0,-1020.0,-36.0
1.0,-242.0,-7.0,41.0,14.0,-12.0,-2.0,-1018.0,-29.0
3.0,-246.0,-12.0,40.0,14.0,-11.0,-3.0,-1011.0,-33.0
2.0,-247.0,-13.0,39.0,15.0,-13.0,-1.0,-1019.0,-27.0
2.0,-246.0,-11.0,37.0,13.0,-12.0,-7.0,-1017.0,-28.0
3.0,-246.0,-14.0,36.0,14.0,-11.0,1.0,-1021.0,-34.0
2.0,-246.0,-11.0,33.0,15.0,-12.0,-6.0,-1018.0,-31.0
7.0,-250.0,-11.0,30.0,13.0,-8.0,0.0,-1024.0,-33.0
3.0,-254.0,-9.0,30.0,14.0,-9.0,1.0,-1020.0,-32.0
4.0,-247.0,-14.0,32.0,14.0,-10.0,3.0,-1020.0,-37.0
5.0,-249.0,-13.0,31.0,12.0,-8.0,3.0,-1019.0,-32.0
3.0,-247.0,-10.0,32.0,13.0,-10.0,-5.0,-1018.0,-34.0
4.0,-249.0,-16.0,32.0,13.0,-11.0,-5.0,-1019.0,-30.0
5.0,-249.0,-13.0,30.0,15.0,-12.0,-1.0,-1018.0,-25.0
2.0,-249.0,-13.0,28.0,14.0,-10.0,-6.0,-1021.0,-30.0
4.0,-248.0,-13.0,25.0,14.0,-12.0,-1.0,-1023.0,-33.0
5.0,-244.0,-11.0,23.0,13.0,-12.0,-2.0,-1017.0,-31.0
4.0,-249.0,-8.0,21.0,13.0,-9.0,-1.0,-1019.0,-26.0
1.0,-250.0,-7.0,18.0,11.0,-11.0,-1.0,-1026.0,-32.0
4.0,-249.0,-6.0,18.0,10.0,-13.0,1.0,-1019.0,-25.0
3.0,-248.0,-13.0,15.0,8.0,-12.0,-3.0,-1025.0,-20.0
5.0,-248.0,-7.0,9.0,6.0,-13.0,1.0,-1024.0,-21.0
7.0,-252.0,-7.0,4.0,6.0,-16.0,-2.0,-1031.0,-18.0
4.0,-251.0,-10.0,0.0,6.0,-14.0,3.0,-1023.0,-23.0
4.0,-249.0,-13.0,-2.0,8.0,-13.0,7.0,-1015.0,-31.0
6.0,-248.0,-13.0,-5.0,10.0,-11.0,7.0,-1014.0,-31.0
6.0,-247.0,-12.0,-10.0,11.0,-11.0,4.0,-1011.0,-36.0
5.0,-246.0,-13.0,-20.0,11.0,-8.0,7.0,-1012.0,-40.0
6.0,-246.0,-9.0,-30.0,13.0,-9.0,12.0,-1010.0,-37.0
8.0,-247.0,-15.0,-45.0,16.0,-8.0,0.0,-1015.0,-33.0
6.0,-246.0,-8.0,-59.0,21.0,-6.0,11.0,-1011.0,-33.0
6.0,-246.0,-14.0,-69.0,26.0,-5.0,13.0,-1011.0,-37.0
7.0,-244.0,-10.0,-78.0,30.0,-3.0,16.0,-1013.0,-36.0
7.0,-244.0,-10.0,-86.0,33.0,-5.0,13.0,-1005.0,-33.0
7.0,-244.0,-12.0,-90.0,36.0,-7.0,11.0,-1006.0,-34.0
7.0,-245.0,-17.0,-94.0,38.0,-11.0,1.0,-1001.0,-39.0
2.0,-244.0,-12.0,-95.0,39.0,-14.0,2.0,-1005.0,-37.0
4.0,-244.0,-16.0,-97.0,36.0,-19.0,-2.0,-997.0,-36.0
4.0,-247.0,-9.0,-103.0,34.0,-19.0,-4.0,-995.0,-26.0
2.0,-246.0,-10.0,-107.0,29.0,-24.0,-13.0,-1005.0,-25.0
4.0,-247.0,-10.0,-116.0,25.0,-25.0,-15.0,-1005.0,-28.0
1.0,-247.0,-8.0,-128.0,22.0,-24.0,-17.0,-1008.0,-25.0
-1.0,-245.0,-11.0,-139.0,19.0,-21.0,-19.0,-1020.0,-14.0
-3.0,-242.0,-7.0,-143.0,14.0,-12.0,-13.0,-1018.0,-8.0
3.0,-249.0,-6.0,-140.0,12.0,-7.0,-13.0,-1026.0,-6.0
1.0,-250.0,-8.0,-131.0,13.0,-3.0,-10.0,-1019.0,-12.0
2.0,-248.0,-11.0,-119.0,14.0,-1.0,-5.0,-1018.0,-18.0
2.0,-243.0,-9.0,-112.0,14.0,-1.0,-2.0,-1016.0,-21.0
2.0,-247.0,-10.0,-110.0,17.0,-1.0,-3.0,-1011.0,-31.0
7.0,-247.0,-9.0,-116.0,16.0,-3.0,-1.0,-1002.0,-38.0
3.0,-247.0,-15.0,-128.0,16.0,-5.0,0.0,-1009.0,-42.0
4.0,-247.0,-16.0,-143.0,17.0,-10.0,1.0,-1006.0,-44.0
6.0,-245.0,-17.0,-163.0,20.0,-16.0,-2.0,-1013.0,-50.0
4.0,-249.0,-16.0,-181.0,21.0,-17.0,-3.0,-1009.0,-44.0
7.0,-249.0,-12.0,-197.0,21.0,-18.0,2.0,-1014.0,-44.0
6.0,-245.0,-15.0,-209.0,23.0,-17.0,13.0,-1014.0,-40.0
5.0,-246.0,-17.0,-216.0,22.0,-14.0,15.0,-1012.0,-39.0
9.0,-248.0,-14.0,-215.0,21.0,-14.0,11.0,-1010.0,-34.0
10.0,-246.0,-10.0,-211.0,23.0,-15.0,9.0,-1010.0,-40.0
6.0,-245.0,-16.0,-205.0,25.0,-17.0,8.0,-1006.0,-47.0
3.0,-245.0,-19.0,-203.0,28.0,-24.0,-1.0,-1001.0,-50.0
4.0,-243.0,-20.0,-203.0,32.0,-29.0,-4.0,-1003.0,-59.0
5.0,-241.0,-19.0,-208.0,38.0,-34.0,-4.0,-994.0,-75.0
2.0,-240.0,-20.0,-219.0,45.0,-36.0,-3.0,-989.0,-82.0
4.0,-242.0,-25.0,-233.0,52.0,-35.0,-7.0,-992.0,-79.0
3.0,-240.0,-26.0,-253.0,61.0,-34.0,-9.0,-991.0,-86.0
2.0,-241.0,-21.0,-279.0,67.0,-29.0,-8.0,-987.0,-82.0
1.0,-241.0,-27.0,-304.0,75.0,-23.0,-8.0,-986.0,-76.0
3.0,-241.0,-25.0,-330.0,78.0,-16.0,-8.0,-990.0,-84.0
3.0,-241.0,-24.0,-355.0,82.0,-9.0,-5.0,-990.0,-78.0
4.0,-241.0,-20.0,-375.0,86.0,0.0,-2.0,-987.0,-69.0
4.0,-245.0,-18.0,-391.0,89.0,5.0,-5.0,-995.0,-67.0
5.0,-243.0,-21.0,-403.0,89.0,8.0,-2.0,-998.0,-68.0
7.0,-243.0,-21.0,-415.0,92.0,11.0,-1.0,-998.0,-72.0
3.0,-244.0,-19.0,-424.0,94.0,13.0,1.0,-998.0,-60.0
5.0,-243.0,-26.0,-432.0,94.0,12.0,3.0,-1001.0,-61.0
6.0,-239.0,-22.0,-438.0,93.0,11.0,6.0,-995.0,-64.0
4.0,-240.0,-17.0,-443.0,93.0,10.0,3.0,-995.0,-55.0
6.0,-245.0,-14.0,-444.0,93.0,8.0,8.0,-1001.0,-55.0
7.0,-246.0,-18.0,-446.0,93.0,6.0,9.0,-998.0,-58.0
5.0,-244.0,-24.0,-450.0,93.0,5.0,4.0,-999.0,-53.0
3.0,-242.0,-22.0,-453.0,92.0,0.0,3.0,-1003.0,-59.0
5.0,-244.0,-15.0,-459.0,91.0,-2.0,12.0,-1005.0,-58.0
6.0,-246.0,-20.0,-463.0,93.0,-3.0,8.0,-1012.0,-56.0
4.0,-248.0,-22.0,-467.0,91.0,-6.0,4.0,-1016.0,-54.0
4.0,-247.0,-18.0,-465.0,87.0,-8.0,4.0,-1020.0,-58.0
3.0,-250.0,-19.0,-463.0,83.0,-9.0,-2.0,-1020.0,-65.0
4.0,-252.0,-20.0,-456.0,79.0,-8.0,-1.0,-1035.0,-70.0
4.0,-249.0,-22.0,-445.0,74.0,-11.0,2.0,-1033.0,-72.0
3.0,-250.0,-23.0,-437.0,70.0,-12.0,5.0,-1031.0,-67.0
3.0,-250.0,-23.0,-427.0,67.0,-13.0,0.0,-1030.0,-69.0
6.0,-251.0,-25.0,-416.0,64.0,-15.0,6.0,-1026.0,-71.0
8.0,-250.0,-22.0,-409.0,61.0,-13.0,3.0,-1026.0,-79.0
4.0,-248.0,-28.0,-400.0,59.0,-15.0,2.0,-1022.0,-84.0
3.0,-246.0,-30.0,-392.0,56.0,-14.0,10.0,-1013.0,-95.0
6.0,-249.0,-25.0,-383.0,52.0,-15.0,7.0,-1011.0,-92.0
8.0,-245.0,-25.0,-372.0,49.0,-13.0,16.0,-1010.0,-96.0
5.0,-243.0,-34.0,-358.0,45.0,-10.0,15.0,-1001.0,-108.0
9.0,-241.0,-36.0,-346.0,41.0,-10.0,19.0,-998.0,-118.0
10.0,-243.0,-37.0,-333.0,38.0,-7.0,28.0,-999.0,-119.0
16.0,-245.0,-44.0,-323.0,35.0,-6.0,33.0,-994.0,-135.0
10.0,-241.0,-45.0,-314.0,32.0,-6.0,30.0,-985.0,-154.0
16.0,-240.0,-46.0,-310.0,30.0,-5.0,40.0,-988.0,-166.0
14.0,-238.0,-54.0,-310.0,31.0,-8.0,39.0,-984.0,-190.0
13.0,-233.0,-57.0,-317.0,31.0,-15.0,39.0,-978.0,-205.0
14.0,-241.0,-57.0,-335.0,31.0,-21.0,31.0,-976.0,-207.0
9.0,-234.0,-54.0,-359.0,30.0,-30.0,19.0,-974.0,-201.0
5.0,-236.0,-60.0,-391.0,29.0,-38.0,10.0,-969.0,-197.0
1.0,-230.0,-57.0,-426.0,30.0,-45.0,4.0,-961.0,-194.0
4.0,-230.0,-54.0,-462.0,31.0,-46.0,8.0,-964.0,-196.0
7.0,-230.0,-53.0,-493.0,36.0,-43.0,10.0,-968.0,-185.0
8.0,-237.0,-50.0,-519.0,41.0,-43.0,7.0,-965.0,-179.0
10.0,-238.0,-52.0,-536.0,47.0,-44.0,16.0,-965.0,-179.0
6.0,-233.0,-54.0,-544.0,53.0,-50.0,17.0,-966.0,-192.0
7.0,-233.0,-60.0,-553.0,61.0,-53.0,15.0,-962.0,-210.0
7.0,-236.0,-63.0,-567.0,64.0,-61.0,21.0,-964.0,-232.0
8.0,-233.0,-72.0,-596.0,71.0,-74.0,18.0,-959.0,-255.0
8.0,-230.0,-73.0,-640.0,71.0,-87.0,18.0,-965.0,-277.0
6.0,-233.0,-80.0,-699.0,71.0,-101.0,15.0,-970.0,-292.0
4.0,-241.0,-78.0,-767.0,67.0,-109.0,10.0,-990.0,-292.0
3.0,-243.0,-76.0,-831.0,56.0,-115.0,0.0,-999.0,-296.0
0.0,-242.0,-76.0,-896.0,45.0,-117.0,-4.0,-1003.0,-290.0
1.0,-242.0,-77.0,-964.0,32.0,-112.0,0.0,-1006.0,-290.0
0.0,-248.0,-73.0,-1007.0,21.0,-109.0,-12.0,-1017.0,-286.0
-3.0,-246.0,-71.0,-1036.0,11.0,-107.0,-26.0,-1007.0,-273.0
-3.0,-243.0,-72.0,-1050.0,-1.0,-106.0,-27.0,-998.0,-266.0
-4.0,-244.0,-72.0,-1052.0,-15.0,-105.0,-31.0,-994.0,-274.0
-10.0,-233.0,-68.0,-1038.0,-29.0,-98.0,-48.0,-955.0,-278.0
-5.0,-241.0,-73.0,-1014.0,-37.0,-79.0,-31.0,-978.0,-284.0
-6.0,-236.0,-79.0,-968.0,-43.0,-73.0,-30.0,-973.0,-290.0
-2.0,-234.0,-81.0,-918.0,-51.0,-62.0,-21.0,-954.0,-321.0
0.0,-230.0,-85.0,-871.0,-58.0,-51.0,-18.0,-949.0,-330.0
1.0,-227.0,-87.0,-836.0,-64.0,-43.0,-6.0,-946.0,-345.0
0.0,-223.0,-93.0,-820.0,-70.0,-33.0,-4.0,-937.0,-365.0
4.0,-227.0,-93.0,-823.0,-73.0,-25.0,3.0,-937.0,-365.0
4.0,-224.0,-96.0,-843.0,-74.0,-24.0,2.0,-932.0,-379.0
5.0,-221.0,-95.0,-884.0,-71.0,-18.0,8.0,-922.0,-371.0
9.0,-216.0,-91.0,-940.0,-68.0,-6.0,18.0,-919.0,-364.0
8.0,-226.0,-91.0,-998.0,-61.0,7.0,24.0,-923.0,-356.0
6.0,-221.0,-91.0,-1052.0,-54.0,16.0,29.0,-924.0,-341.0
9.0,-221.0,-86.0,-1101.0,-44.0,22.0,29.0,-912.0,-343.0
12.0,-222.0,-86.0,-1138.0,-32.0,28.0,35.0,-910.0,-335.0
11.0,-223.0,-86.0,-1158.0,-24.0,33.0,25.0,-919.0,-329.0
10.0,-223.0,-83.0,-1162.0,-13.0,35.0,33.0,-920.0,-332.0
11.0,-224.0,-85.0,-1153.0,-2.0,29.0,29.0,-930.0,-334.0
11.0,-227.0,-88.0,-1145.0,9.0,29.0,42.0,-931.0,-345.0
12.0,-230.0,-92.0,-1137.0,22.0,25.0,31.0,-948.0,-338.0
8.0,-227.0,-88.0,-1133.0,35.0,16.0,30.0,-944.0,-336.0
12.0,-230.0,-88.0,-1140.0,45.0,11.0,27.0,-945.0,-331.0
13.0,-232.0,-84.0,-1157.0,53.0,8.0,27.0,-955.0,-326.0
11.0,-224.0,-82.0,-1185.0,64.0,4.0,18.0,-937.0,-320.0
9.0,-233.0,-77.0,-1230.0,74.0,14.0,36.0,-967.0,-325.0
11.0,-230.0,-78.0,-1282.0,84.0,10.0,32.0,-958.0,-315.0
12.0,-226.0,-82.0,-1341.0,92.0,8.0,32.0,-946.0,-317.0
15.0,-230.0,-82.0,-1405.0,96.0,14.0,33.0,-945.0,-316.0
11.0,-229.0,-85.0,-1470.0,99.0,17.0,34.0,-951.0,-321.0
14.0,-235.0,-83.0,-1529.0,100.0,17.0,43.0,-978.0,-327.0
18.0,-242.0,-95.0,-1577.0,102.0,11.0,45.0,-991.0,-349.0
16.0,-251.0,-92.0,-1622.0,103.0,0.0,27.0,-999.0,-358.0
12.0,-257.0,-102.0,-1649.0,101.0,-3.0,56.0,-1070.0,-381.0
13.0,-264.0,-101.0,-1662.0,101.0,-17.0,37.0,-1092.0,-393.0
6.0,-263.0,-102.0,-1673.0,97.0,-32.0,20.0,-1104.0,-415.0
3.0,-264.0,-118.0,-1691.0,92.0,-43.0,14.0,-1106.0,-452.0
6.0,-260.0,-127.0,-1717.0,87.0,-52.0,16.0,-1098.0,-479.0
8.0,-260.0,-135.0,-1759.0,87.0,-66.0,26.0,-1075.0,-531.0
11.0,-253.0,-141.0,-1812.0,92.0,-85.0,35.0,-1044.0,-557.0
7.0,-245.0,-151.0,-1873.0,99.0,-107.0,18.0,-996.0,-581.0
10.0,-250.0,-147.0,-1939.0,111.0,-111.0,24.0,-1021.0,-595.0
7.0,-244.0,-151.0,-1989.0,122.0,-139.0,24.0,-1011.0,-600.0
13.0,-246.0,-156.0,-2034.0,140.0,-160.0,39.0,-1014.0,-600.0
23.0,-257.0,-148.0,-2065.0,170.0,-162.0,69.0,-1065.0,-607.0
23.0,-267.0,-150.0,-2065.0,206.0,-180.0,80.0,-1084.0,-611.0
20.0,-271.0,-168.0,-2044.0,240.0,-212.0,83.0,-1101.0,-631.0
27.0,-275.0,-168.0,-1994.0,269.0,-231.0,88.0,-1098.0,-654.0
22.0,-271.0,-172.0,-1906.0,291.0,-237.0,77.0,-1098.0,-693.0
24.0,-263.0,-183.0,-1793.0,292.0,-251.0,83.0,-1070.0,-724.0
19.0,-258.0,-191.0,-1667.0,285.0,-253.0,86.0,-1061.0,-767.0
23.0,-258.0,-202.0,-1536.0,274.0,-247.0,89.0,-1032.0,-806.0
23.0,-252.0,-209.0,-1416.0,256.0,-244.0,95.0,-1019.0,-841.0
19.0,-248.0,-215.0,-1314.0,235.0,-245.0,79.0,-991.0,-868.0
15.0,-243.0,-218.0,-1233.0,215.0,-258.0,58.0,-989.0,-882.0
15.0,-239.0,-225.0,-1170.0,198.0,-273.0,58.0,-975.0,-908.0
8.0,-241.0,-230.0,-1137.0,186.0,-287.0,44.0,-976.0,-910.0
7.0,-241.0,-224.0,-1124.0,174.0,-303.0,33.0,-978.0,-922.0
5.0,-240.0,-231.0,-1128.0,163.0,-311.0,19.0,-992.0,-933.0
5.0,-242.0,-236.0,-1135.0,149.0,-314.0,19.0,-987.0,-938.0
2.0,-236.0,-235.0,-1140.0,134.0,-313.0,18.0,-972.0,-954.0
11.0,-235.0,-240.0,-1132.0,123.0,-297.0,38.0,-950.0,-957.0
11.0,-224.0,-244.0,-1114.0,111.0,-268.0,58.0,-928.0,-952.0
16.0,-217.0,-239.0,-1083.0,98.0,-234.0,77.0,-888.0,-957.0
23.0,-209.0,-236.0,-1039.0,86.0,-193.0,93.0,-857.0,-953.0
24.0,-201.0,-238.0,-986.0,71.0,-162.0,102.0,-823.0,-954.0
28.0,-188.0,-239.0,-930.0,53.0,-138.0,107.0,-785.0,-967.0
33.0,-189.0,-235.0,-883.0,43.0,-113.0,114.0,-761.0,-957.0
30.0,-183.0,-235.0,-836.0,36.0,-101.0,110.0,-738.0,-957.0
27.0,-176.0,-236.0,-795.0,33.0,-100.0,106.0,-720.0,-957.0
25.0,-173.0,-236.0,-765.0,44.0,-96.0,94.0,-712.0,-947.0
26.0,-173.0,-234.0,-742.0,57.0,-93.0,95.0,-707.0,-937.0
22.0,-170.0,-230.0,-721.0,69.0,-92.0,86.0,-706.0,-935.0
22.0,-174.0,-231.0,-689.0,76.0,-92.0,80.0,-711.0,-930.0
18.0,-177.0,-223.0,-660.0,84.0,-92.0,69.0,-709.0,-915.0
16.0,-178.0,-229.0,-625.0,86.0,-91.0,64.0,-722.0,-908.0
15.0,-175.0,-223.0,-587.0,80.0,-91.0,65.0,-720.0,-904.0
15.0,-179.0,-223.0,-546.0,68.0,-83.0,62.0,-717.0,-893.0
13.0,-176.0,-225.0,-506.0,52.0,-71.0,58.0,-712.0,-881.0
14.0,-175.0,-220.0,-463.0,31.0,-58.0,57.0,-705.0,-872.0
12.0,-169.0,-213.0,-416.0,10.0,-45.0,60.0,-698.0,-870.0
13.0,-165.0,-211.0,-369.0,-14.0,-33.0,58.0,-670.0,-848.0
16.0,-161.0,-209.0,-321.0,-34.0,-23.0,55.0,-647.0,-847.0
17.0,-154.0,-211.0,-276.0,-53.0,-18.0,64.0,-623.0,-848.0
17.0,-146.0,-205.0,-237.0,-66.0,-18.0,62.0,-605.0,-836.0
15.0,-146.0,-204.0,-202.0,-80.0,-25.0,60.0,-589.0,-835.0
15.0,-139.0,-204.0,-173.0,-94.0,-29.0,58.0,-572.0,-828.0
19.0,-132.0,-203.0,-153.0,-108.0,-37.0,62.0,-556.0,-827.0
15.0,-130.0,-204.0,-140.0,-120.0,-44.0,66.0,-539.0,-816.0
12.0,-128.0,-199.0,-132.0,-127.0,-49.0,66.0,-526.0,-811.0
19.0,-125.0,-200.0,-129.0,-130.0,-54.0,69.0,-515.0,-818.0
23.0,-127.0,-202.0,-127.0,-131.0,-60.0,76.0,-512.0,-799.0
19.0,-126.0,-199.0,-127.0,-128.0,-69.0,76.0,-504.0,-802.0
23.0,-123.0,-196.0,-125.0,-122.0,-72.0,78.0,-508.0,-794.0
22.0,-125.0,-200.0,-118.0,-112.0,-78.0,79.0,-512.0,-786.0
23.0,-126.0,-197.0,-107.0,-102.0,-81.0,77.0,-511.0,-787.0
22.0,-127.0,-196.0,-86.0,-91.0,-85.0,76.0,-511.0,-788.0
24.0,-127.0,-196.0,-61.0,-76.0,-86.0,82.0,-518.0,-794.0
18.0,-124.0,-197.0,-29.0,-60.0,-85.0,79.0,-517.0,-794.0
19.0,-127.0,-196.0,8.0,-48.0,-80.0,74.0,-511.0,-805.0
19.0,-128.0,-200.0,51.0,-35.0,-74.0,73.0,-511.0,-799.0
16.0,-126.0,-197.0,98.0,-26.0,-67.0,62.0,-509.0,-791.0
18.0,-126.0,-195.0,145.0,-20.0,-55.0,60.0,-508.0,-795.0
18.0,-121.0,-193.0,191.0,-16.0,-44.0,55.0,-506.0,-776.0
12.0,-120.0,-192.0,234.0,-13.0,-33.0,59.0,-489.0,-773.0
12.0,-118.0,-187.0,272.0,-11.0,-20.0,53.0,-478.0,-766.0
11.0,-114.0,-185.0,303.0,-14.0,-8.0,52.0,-464.0,-747.0
11.0,-109.0,-183.0,327.0,-18.0,-1.0,52.0,-449.0,-747.0
14.0,-103.0,-183.0,339.0,-23.0,7.0,46.0,-431.0,-729.0
16.0,-98.0,-177.0,341.0,-27.0,14.0,49.0,-414.0,-728.0
14.0,-95.0,-177.0,332.0,-31.0,19.0,50.0,-392.0,-711.0
13.0,-87.0,-173.0,314.0,-34.0,17.0,50.0,-370.0,-712.0
14.0,-83.0,-175.0,293.0,-37.0,15.0,55.0,-353.0,-709.0
18.0,-79.0,-183.0,265.0,-38.0,7.0,58.0,-336.0,-712.0
20.0,-74.0,-178.0,237.0,-40.0,2.0,61.0,-326.0,-714.0
22.0,-73.0,-179.0,208.0,-40.0,-6.0,71.0,-313.0,-718.0
23.0,-71.0,-180.0,181.0,-32.0,-10.0,76.0,-309.0,-726.0
23.0,-75.0,-184.0,158.0,-23.0,-13.0,80.0,-307.0,-735.0
26.0,-76.0,-179.0,140.0,-12.0,-11.0,80.0,-314.0,-739.0
24.0,-76.0,-186.0,123.0,-2.0,-8.0,84.0,-324.0,-736.0
22.0,-76.0,-182.0,112.0,12.0,-5.0,84.0,-332.0,-738.0
21.0,-79.0,-184.0,109.0,27.0,0.0,87.0,-339.0,-734.0
21.0,-80.0,-192.0,111.0,41.0,5.0,83.0,-350.0,-738.0
24.0,-86.0,-182.0,120.0,55.0,13.0,83.0,-354.0,-742.0
22.0,-88.0,-184.0,134.0,66.0,21.0,85.0,-361.0,-743.0
25.0,-90.0,-186.0,149.0,76.0,30.0,82.0,-375.0,-736.0
21.0,-86.0,-187.0,166.0,81.0,39.0,80.0,-384.0,-741.0
24.0,-95.0,-184.0,188.0,85.0,49.0,84.0,-390.0,-735.0
27.0,-98.0,-180.0,212.0,88.0,62.0,81.0,-392.0,-734.0
21.0,-96.0,-183.0,234.0,87.0,74.0,79.0,-397.0,-731.0
24.0,-93.0,-177.0,255.0,82.0,85.0,79.0,-389.0,-719.0
20.0,-93.0,-179.0,273.0,77.0,97.0,79.0,-390.0,-727.0
19.0,-91.0,-173.0,290.0,71.0,108.0,83.0,-389.0,-712.0
22.0,-94.0,-173.0,302.0,64.0,115.0,80.0,-383.0,-704.0
23.0,-93.0,-170.0,311.0,59.0,122.0,80.0,-376.0,-700.0
25.0,-92.0,-174.0,316.0,53.0,124.0,80.0,-366.0,-696.0
24.0,-86.0,-171.0,318.0,50.0,123.0,80.0,-360.0,-694.0
27.0,-83.0,-172.0,316.0,52.0,121.0,78.0,-354.0,-694.0
26.0,-84.0,-172.0,310.0,58.0,117.0,82.0,-351.0,-689.0
26.0,-83.0,-169.0,306.0,65.0,112.0,80.0,-341.0,-696.0
18.0,-80.0,-172.0,303.0,74.0,109.0,80.0,-334.0,-690.0
20.0,-78.0,-170.0,303.0,82.0,107.0,75.0,-339.0,-690.0
21.0,-82.0,-167.0,306.0,90.0,104.0,72.0,-334.0,-684.0
24.0,-76.0,-172.0,313.0,95.0,103.0,64.0,-335.0,-692.0
18.0,-80.0,-174.0,322.0,96.0,100.0,66.0,-338.0,-698.0
21.0,-82.0,-173.0,329.0,99.0,98.0,68.0,-341.0,-699.0
20.0,-83.0,-178.0,334.0,97.0,97.0,67.0,-346.0,-704.0
19.0,-87.0,-178.0,336.0,93.0,96.0,66.0,-347.0,-713.0
19.0,-86.0,-180.0,335.0,89.0,95.0,61.0,-355.0,-722.0
17.0,-88.0,-183.0,334.0,83.0,93.0,65.0,-363.0,-731.0
18.0,-93.0,-185.0,332.0,77.0,91.0,61.0,-370.0,-736.0
16.0,-91.0,-184.0,325.0,70.0,88.0,56.0,-381.0,-747.0
17.0,-93.0,-184.0,319.0,63.0,87.0,54.0,-394.0,-752.0
17.0,-97.0,-190.0,310.0,58.0,86.0,54.0,-396.0,-755.0
13.0,-94.0,-187.0,301.0,54.0,86.0,53.0,-398.0,-751.0
14.0,-95.0,-189.0,290.0,53.0,85.0,53.0,-403.0,-755.0
14.0,-97.0,-187.0,282.0,52.0,86.0,55.0,-406.0,-750.0
14.0,-99.0,-189.0,276.0,52.0,88.0,52.0,-404.0,-750.0
14.0,-98.0,-188.0,276.0,52.0,93.0,55.0,-403.0,-746.0
17.0,-101.0,-188.0,278.0,47.0,96.0,60.0,-412.0,-755.0
19.0,-100.0,-191.0,285.0,38.0,98.0,60.0,-408.0,-763.0
18.0,-94.0,-191.0,293.0,28.0,99.0,64.0,-408.0,-760.0
21.0,-101.0,-190.0,299.0,14.0,98.0,59.0,-405.0,-764.0
20.0,-99.0,-189.0,306.0,1.0,95.0,69.0,-406.0,-774.0
17.0,-98.0,-186.0,310.0,-12.0,89.0,69.0,-405.0,-773.0
20.0,-103.0,-193.0,310.0,-24.0,78.0,69.0,-415.0,-773.0
19.0,-98.0,-194.0,304.0,-35.0,68.0,70.0,-414.0,-779.0
16.0,-102.0,-194.0,289.0,-41.0,58.0,67.0,-422.0,-777.0
20.0,-105.0,-194.0,270.0,-43.0,49.0,66.0,-434.0,-771.0
18.0,-110.0,-192.0,252.0,-43.0,42.0,69.0,-446.0,-759.0
19.0,-108.0,-190.0,239.0,-45.0,37.0,72.0,-457.0,-762.0
17.0,-113.0,-190.0,234.0,-45.0,30.0,73.0,-470.0,-753.0
20.0,-118.0,-185.0,239.0,-46.0,20.0,79.0,-479.0,-755.0
20.0,-122.0,-191.0,253.0,-47.0,11.0,78.0,-490.0,-755.0
24.0,-123.0,-191.0,272.0,-45.0,3.0,78.0,-495.0,-757.0
19.0,-126.0,-187.0,295.0,-40.0,-6.0,75.0,-498.0,-766.0
17.0,-126.0,-188.0,319.0,-34.0,-12.0,79.0,-504.0,-751.0
19.0,-123.0,-182.0,344.0,-30.0,-20.0,75.0,-513.0,-739.0
18.0,-127.0,-178.0,371.0,-28.0,-22.0,69.0,-512.0,-719.0
12.0,-127.0,-172.0,399.0,-33.0,-22.0,63.0,-518.0,-707.0
18.0,-127.0,-176.0,427.0,-42.0,-22.0,66.0,-518.0,-704.0
15.0,-124.0,-172.0,453.0,-54.0,-22.0,66.0,-519.0,-700.0
22.0,-126.0,-177.0,474.0,-66.0,-20.0,65.0,-513.0,-699.0
21.0,-123.0,-176.0,489.0,-74.0,-17.0,73.0,-505.0,-704.0
23.0,-122.0,-174.0,499.0,-83.0,-13.0,73.0,-508.0,-700.0
22.0,-123.0,-169.0,504.0,-91.0,-10.0,74.0,-508.0,-695.0
19.0,-125.0,-171.0,507.0,-96.0,-9.0,79.0,-516.0,-682.0
23.0,-133.0,-172.0,510.0,-96.0,-9.0,78.0,-529.0,-655.0
22.0,-134.0,-155.0,517.0,-92.0,-15.0,82.0,-555.0,-639.0
22.0,-140.0,-154.0,531.0,-82.0,-22.0,79.0,-572.0,-624.0
23.0,-144.0,-152.0,552.0,-68.0,-32.0,76.0,-596.0,-610.0
22.0,-153.0,-150.0,582.0,-52.0,-41.0,75.0,-615.0,-596.0
20.0,-156.0,-151.0,618.0,-35.0,-54.0,75.0,-634.0,-600.0
26.0,-161.0,-148.0,661.0,-24.0,-65.0,81.0,-645.0,-607.0
24.0,-160.0,-156.0,705.0,-17.0,-72.0,78.0,-649.0,-623.0
25.0,-163.0,-160.0,746.0,-14.0,-75.0,92.0,-650.0,-636.0
25.0,-159.0,-161.0,789.0,-14.0,-70.0,97.0,-651.0,-653.0
26.0,-158.0,-168.0,828.0,-21.0,-60.0,109.0,-655.0,-656.0
32.0,-160.0,-163.0,868.0,-27.0,-47.0,111.0,-654.0,-660.0
30.0,-173.0,-168.0,913.0,-35.0,-34.0,103.0,-670.0,-657.0
29.0,-165.0,-165.0,960.0,-46.0,-19.0,102.0,-672.0,-662.0
25.0,-170.0,-169.0,1012.0,-55.0,-4.0,94.0,-685.0,-662.0
26.0,-171.0,-165.0,1060.0,-65.0,9.0,87.0,-700.0,-658.0
20.0,-179.0,-167.0,1108.0,-72.0,22.0,74.0,-714.0,-661.0
19.0,-183.0,-165.0,1152.0,-78.0,33.0,68.0,-737.0,-665.0
13.0,-188.0,-169.0,1193.0,-82.0,41.0,57.0,-753.0,-671.0
13.0,-191.0,-171.0,1230.0,-89.0,42.0,44.0,-778.0,-673.0
9.0,-193.0,-170.0,1265.0,-92.0,41.0,30.0,-795.0,-680.0
7.0,-199.0,-172.0,1300.0,-90.0,34.0,24.0,-811.0,-694.0
4.0,-201.0,-182.0,1330.0,-85.0,27.0,21.0,-819.0,-712.0
2.0,-200.0,-180.0,1354.0,-77.0,23.0,14.0,-829.0,-718.0
2.0,-205.0,-180.0,1373.0,-67.0,24.0,12.0,-841.0,-715.0
2.0,-205.0,-179.0,1389.0,-60.0,28.0,9.0,-849.0,-723.0
2.0,-208.0,-179.0,1408.0,-58.0,37.0,9.0,-854.0,-713.0
2.0,-212.0,-181.0,1434.0,-62.0,52.0,8.0,-863.0,-710.0
2.0,-218.0,-181.0,1467.0,-69.0,69.0,13.0,-882.0,-702.0
4.0,-219.0,-174.0,1507.0,-80.0,86.0,14.0,-901.0,-702.0
5.0,-227.0,-173.0,1550.0,-92.0,105.0,13.0,-918.0,-696.0
8.0,-232.0,-167.0,1595.0,-107.0,122.0,20.0,-933.0,-669.0
8.0,-233.0,-167.0,1644.0,-123.0,131.0,17.0,-957.0,-643.0
9.0,-241.0,-153.0,1696.0,-144.0,138.0,23.0,-980.0,-618.0
4.0,-246.0,-152.0,1754.0,-156.0,143.0,23.0,-1010.0,-610.0
6.0,-255.0,-155.0,1815.0,-167.0,140.0,20.0,-1034.0,-601.0
7.0,-260.0,-147.0,1880.0,-171.0,135.0,29.0,-1058.0,-587.0
10.0,-264.0,-146.0,1969.0,-169.0,133.0,31.0,-1079.0,-569.0
9.0,-274.0,-143.0,2050.0,-167.0,134.0,35.0,-1113.0,-549.0
5.0,-286.0,-132.0,2139.0,-160.0,131.0,18.0,-1159.0,-520.0
3.0,-304.0,-128.0,2245.0,-150.0,130.0,11.0,-1202.0,-491.0
-1.0,-318.0,-127.0,2381.0,-141.0,132.0,-27.0,-1276.0,-483.0
-10.0,-344.0,-111.0,2556.0,-148.0,143.0,-44.0,-1383.0,-435.0
-5.0,-357.0,-122.0,2796.0,-162.0,151.0,-48.0,-1423.0,-484.0
1.0,-343.0,-171.0,3086.0,-174.0,164.0,-2.0,-1380.0,-626.0
27.0,-323.0,-205.0,3362.0,-160.0,186.0,64.0,-1314.0,-786.0
26.0,-330.0,-195.0,3562.0,-128.0,227.0,120.0,-1344.0,-777.0
30.0,-355.0,-159.0,3728.0,-139.0,249.0,124.0,-1419.0,-641.0
12.0,-372.0,-127.0,3928.0,-184.0,235.0,33.0,-1492.0,-499.0
-11.0,-375.0,-124.0,4130.0,-207.0,210.0,-28.0,-1526.0,-473.0
-18.0,-373.0,-136.0,4184.0,-222.0,178.0,-87.0,-1537.0,-513.0
-4.0,-376.0,-171.0,3975.0,-223.0,158.0,-39.0,-1604.0,-692.0
2.0,-367.0,-209.0,3438.0,-214.0,147.0,24.0,-1607.0,-877.0
15.0,-335.0,-224.0,2586.0,-210.0,133.0,48.0,-1512.0,-912.0
13.0,-320.0,-181.0,1601.0,-177.0,112.0,37.0,-1433.0,-733.0
7.0,-329.0,-133.0,725.0,-131.0,102.0,19.0,-1407.0,-482.0
4.0,-334.0,-73.0,104.0,-102.0,95.0,8.0,-1399.0,-281.0
1.0,-339.0,-44.0,-237.0,-84.0,85.0,-13.0,-1390.0,-140.0
-4.0,-333.0,-13.0,-327.0,-73.0,73.0,-37.0,-1354.0,-52.0
-2.0,-322.0,1.0,-218.0,-65.0,58.0,-43.0,-1299.0,19.0
-5.0,-314.0,7.0,17.0,-61.0,52.0,-51.0,-1230.0,62.0
-8.0,-290.0,18.0,302.0,-60.0,56.0,-58.0,-1159.0,79.0
-9.0,-269.0,17.0,574.0,-70.0,64.0,-60.0,-1082.0,80.0
-14.0,-244.0,18.0,792.0,-83.0,74.0,-68.0,-1003.0,87.0
-7.0,-221.0,15.0,936.0,-95.0,86.0,-65.0,-942.0,78.0
-13.0,-203.0,19.0,998.0,-105.0,93.0,-75.0,-889.0,74.0
-14.0,-200.0,13.0,984.0,-110.0,96.0,-85.0,-840.0,72.0
-14.0,-191.0,14.0,919.0,-111.0,88.0,-76.0,-812.0,69.0
-10.0,-189.0,14.0,823.0,-106.0,79.0,-65.0,-792.0,66.0
-9.0,-188.0,16.0,714.0,-97.0,62.0,-61.0,-788.0,71.0
-9.0,-191.0,20.0,608.0,-83.0,47.0,-58.0,-802.0,80.0
-10.0,-197.0,21.0,521.0,-72.0,37.0,-63.0,-824.0,102.0
-11.0,-214.0,31.0,467.0,-69.0,25.0,-62.0,-883.0,132.0
-5.0,-217.0,28.0,447.0,-75.0,13.0,-53.0,-898.0,120.0
-9.0,-225.0,28.0,451.0,-71.0,17.0,-53.0,-925.0,136.0
-5.0,-232.0,32.0,485.0,-74.0,21.0,-51.0,-949.0,145.0
-5.0,-244.0,34.0,531.0,-76.0,32.0,-45.0,-973.0,152.0
-5.0,-243.0,33.0,582.0,-77.0,41.0,-46.0,-987.0,153.0
-5.0,-242.0,36.0,633.0,-78.0,50.0,-46.0,-999.0,151.0
-3.0,-246.0,34.0,676.0,-80.0,57.0,-50.0,-1006.0,156.0
-9.0,-245.0,32.0,715.0,-85.0,62.0,-53.0,-1014.0,152.0
-5.0,-255.0,37.0,748.0,-86.0,66.0,-49.0,-1041.0,155.0
-7.0,-247.0,30.0,783.0,-86.0,58.0,-47.0,-1014.0,142.0
-3.0,-246.0,29.0,809.0,-80.0,61.0,-41.0,-1015.0,141.0
-5.0,-246.0,28.0,841.0,-75.0,61.0,-40.0,-1012.0,132.0
-3.0,-244.0,27.0,873.0,-72.0,59.0,-29.0,-1008.0,128.0
0.0,-248.0,19.0,907.0,-68.0,51.0,-20.0,-1007.0,117.0
0.0,-241.0,18.0,942.0,-63.0,41.0,-26.0,-1007.0,100.0
4.0,-241.0,16.0,971.0,-60.0,28.0,0.0,-996.0,83.0
5.0,-241.0,14.0,988.0,-48.0,29.0,0.0,-994.0,71.0
8.0,-242.0,9.0,1002.0,-45.0,31.0,7.0,-991.0,56.0
6.0,-240.0,3.0,1008.0,-41.0,29.0,14.0,-990.0,34.0
11.0,-242.0,1.0,1004.0,-35.0,31.0,17.0,-991.0,31.0
9.0,-242.0,-4.0,991.0,-31.0,30.0,22.0,-1002.0,14.0
9.0,-246.0,-4.0,974.0,-26.0,21.0,14.0,-1005.0,-11.0
12.0,-245.0,-7.0,936.0,-18.0,16.0,19.0,-1010.0,-11.0
7.0,-247.0,-3.0,893.0,-4.0,23.0,13.0,-1029.0,-4.0
6.0,-253.0,-4.0,858.0,4.0,26.0,12.0,-1027.0,-3.0
8.0,-253.0,0.0,832.0,15.0,26.0,6.0,-1033.0,-4.0
6.0,-254.0,-4.0,811.0,25.0,23.0,13.0,-1050.0,-1.0
7.0,-252.0,-3.0,796.0,34.0,16.0,5.0,-1043.0,-1.0
5.0,-254.0,-4.0,778.0,41.0,4.0,15.0,-1033.0,-1.0
7.0,-251.0,-3.0,749.0,46.0,-2.0,10.0,-1029.0,-3.0
7.0,-249.0,-3.0,719.0,49.0,-7.0,3.0,-1032.0,0.0
6.0,-246.0,-6.0,689.0,51.0,-11.0,10.0,-1031.0,-1.0
5.0,-249.0,-6.0,662.0,53.0,-15.0,-2.0,-1018.0,4.0
2.0,-244.0,-4.0,638.0,55.0,-18.0,-2.0,-1017.0,1.0
3.0,-251.0,-8.0,615.0,60.0,-17.0,-3.0,-1016.0,0.0
2.0,-237.0,-12.0,587.0,67.0,-25.0,-10.0,-992.0,-30.0
1.0,-236.0,-10.0,533.0,65.0,-25.0,-24.0,-980.0,-27.0
0.0,-241.0,-4.0,472.0,58.0,-25.0,-21.0,-986.0,-20.0
0.0,-239.0,-7.0,453.0,53.0,-21.0,-24.0,-989.0,-23.0
1.0,-235.0,-11.0,439.0,56.0,-14.0,-16.0,-982.0,-30.0
-1.0,-236.0,-15.0,414.0,58.0,-12.0,-13.0,-984.0,-29.0
-4.0,-238.0,-10.0,389.0,61.0,-18.0,-24.0,-976.0,-41.0
1.0,-240.0,-15.0,358.0,67.0,-18.0,-24.0,-979.0,-37.0
-1.0,-237.0,-10.0,329.0,69.0,-21.0,-16.0,-983.0,-31.0
1.0,-238.0,-10.0,307.0,72.0,-27.0,-20.0,-986.0,-29.0
2.0,-240.0,-10.0,288.0,71.0,-31.0,-21.0,-984.0,-30.0
-2.0,-243.0,-17.0,275.0,70.0,-31.0,-21.0,-980.0,-24.0
0.0,-236.0,-9.0,266.0,67.0,-36.0,-23.0,-977.0,-32.0
2.0,-238.0,-14.0,255.0,62.0,-38.0,-15.0,-977.0,-34.0
-3.0,-236.0,-8.0,242.0,61.0,-37.0,-22.0,-973.0,-30.0
0.0,-237.0,-8.0,223.0,61.0,-38.0,-22.0,-969.0,-22.0
0.0,-236.0,-8.0,202.0,58.0,-41.0,-21.0,-973.0,-23.0
0.0,-233.0,-13.0,182.0,58.0,-42.0,-25.0,-978.0,-17.0
-4.0,-235.0,-8.0,164.0,59.0,-43.0,-25.0,-979.0,-20.0
-1.0,-238.0,-6.0,143.0,60.0,-45.0,-29.0,-988.0,-13.0
0.0,-238.0,-6.0,125.0,61.0,-45.0,-24.0,-991.0,-16.0
-1.0,-242.0,-6.0,110.0,65.0,-44.0,-24.0,-994.0,-3.0
-1.0,-246.0,-3.0,95.0,70.0,-42.0,-27.0,-995.0,-2.0
-1.0,-242.0,-3.0,85.0,72.0,-37.0,-32.0,-997.0,8.0
-1.0,-243.0,1.0,81.0,78.0,-32.0,-28.0,-999.0,4.0
-3.0,-244.0,0.0,80.0,80.0,-27.0,-24.0,-1010.0,16.0
0.0,-246.0,0.0,80.0,82.0,-23.0,-24.0,-1015.0,7.0
0.0,-249.0,0.0,81.0,80.0,-20.0,-28.0,-1019.0,23.0
-1.0,-247.0,0.0,85.0,77.0,-18.0,-24.0,-1026.0,17.0
-1.0,-247.0,0.0,87.0,71.0,-19.0,-26.0,-1030.0,19.0
0.0,-249.0,1.0,88.0,67.0,-17.0,-33.0,-1022.0,9.0
-3.0,-250.0,0.0,90.0,62.0,-18.0,-31.0,-1020.0,12.0
-3.0,-250.0,1.0,91.0,59.0,-16.0,-37.0,-1020.0,15.0
-1.0,-250.0,3.0,93.0,55.0,-15.0,-39.0,-1017.0,17.0
-5.0,-248.0,1.0,93.0,51.0,-13.0,-38.0,-1024.0,19.0
-5.0,-253.0,3.0,91.0,46.0,-10.0,-33.0,-1026.0,30.0
-4.0,-250.0,1.0,91.0,39.0,-13.0,-34.0,-1025.0,22.0
-4.0,-250.0,3.0,88.0,34.0,-13.0,-39.0,-1030.0,20.0
-3.0,-250.0,4.0,90.0,31.0,-14.0,-40.0,-1031.0,20.0
-3.0,-251.0,0.0,95.0,28.0,-16.0,-35.0,-1027.0,22.0
-10.0,-246.0,2.0,101.0,30.0,-15.0,-46.0,-1020.0,14.0
-8.0,-248.0,-6.0,108.0,33.0,-13.0,-63.0,-1009.0,4.0
-13.0,-245.0,-14.0,118.0,38.0,-17.0,-80.0,-1000.0,-26.0
-11.0,-242.0,-16.0,124.0,42.0,-17.0,-66.0,-990.0,-58.0
-10.0,-240.0,-16.0,125.0,48.0,-15.0,-54.0,-987.0,-63.0
-5.0,-238.0,-22.0,122.0,44.0,-10.0,-36.0,-990.0,-65.0
2.0,-246.0,-18.0,118.0,33.0,-5.0,-15.0,-1001.0,-54.0
2.0,-246.0,-15.0,111.0,15.0,-2.0,1.0,-1007.0,-39.0
8.0,-248.0,-11.0,101.0,1.0,3.0,9.0,-1008.0,-27.0
9.0,-244.0,-7.0,85.0,-5.0,1.0,15.0,-1008.0,-24.0
10.0,-245.0,-7.0,60.0,-2.0,-5.0,23.0,-1007.0,-14.0
9.0,-246.0,-4.0,23.0,9.0,-18.0,23.0,-1002.0,1.0
13.0,-246.0,-1.0,-23.0,19.0,-34.0,19.0,-1008.0,15.0
8.0,-247.0,6.0,-67.0,26.0,-48.0,16.0,-1000.0,32.0
5.0,-241.0,5.0,-100.0,28.0,-60.0,16.0,-1008.0,56.0
4.0,-246.0,13.0,-119.0,28.0,-65.0,6.0,-1011.0,73.0
5.0,-248.0,19.0,-122.0,26.0,-65.0,8.0,-1022.0,79.0
5.0,-250.0,15.0,-112.0,21.0,-63.0,12.0,-1020.0,83.0
8.0,-253.0,16.0,-90.0,19.0,-55.0,10.0,-1030.0,77.0
7.0,-248.0,11.0,-66.0,18.0,-43.0,14.0,-1030.0,64.0
8.0,-250.0,11.0,-39.0,18.0,-35.0,12.0,-1035.0,63.0
7.0,-251.0,5.0,-13.0,19.0,-28.0,17.0,-1038.0,53.0
7.0,-253.0,8.0,7.0,18.0,-23.0,10.0,-1036.0,48.0
3.0,-249.0,4.0,23.0,13.0,-24.0,4.0,-1038.0,46.0
0.0,-239.0,3.0,36.0,7.0,-24.0,-3.0,-1033.0,35.0
1.0,-255.0,1.0,41.0,0.0,-22.0,-12.0,-1040.0,31.0
1.0,-253.0,3.0,43.0,-8.0,-20.0,-20.0,-1046.0,29.0
0.0,-252.0,1.0,43.0,-19.0,-20.0,-24.0,-1047.0,28.0
0.0,-254.0,1.0,39.0,-28.0,-20.0,-29.0,-1050.0,14.0
-3.0,-253.0,2.0,34.0,-35.0,-16.0,-32.0,-1041.0,15.0
-2.0,-251.0,-4.0,26.0,-39.0,-11.0,-36.0,-1038.0,10.0
-2.0,-251.0,-3.0,18.0,-44.0,-5.0,-35.0,-1025.0,-5.0
-3.0,-249.0,-7.0,10.0,-47.0,0.0,-36.0,-1014.0,-11.0
-4.0,-248.0,-1.0,1.0,-50.0,4.0,-31.0,-1008.0,-12.0
0.0,-243.0,-5.0,-9.0,-53.0,11.0,-32.0,-1013.0,-23.0
3.0,-237.0,-6.0,-19.0,-54.0,13.0,-25.0,-1006.0,-20.0
0.0,-245.0,-11.0,-27.0,-54.0,15.0,-28.0,-1005.0,-25.0
1.0,-244.0,-9.0,-34.0,-53.0,15.0,-24.0,-1003.0,-21.0
-2.0,-244.0,-9.0,-36.0,-48.0,13.0,-25.0,-1005.0,-31.0
-1.0,-247.0,-11.0,-34.0,-43.0,8.0,-20.0,-1015.0,-22.0
-1.0,-247.0,-11.0,-32.0,-37.0,-2.0,-19.0,-1021.0,-28.0
1.0,-249.0,-10.0,-30.0,-29.0,-10.0,-13.0,-1021.0,-31.0
1.0,-247.0,-8.0,-29.0,-22.0,-18.0,-14.0,-1021.0,-35.0
1.0,-250.0,-8.0,-27.0,-14.0,-26.0,-11.0,-1023.0,-28.0
3.0,-250.0,-11.0,-27.0,-9.0,-29.0,-10.0,-1024.0,-29.0
2.0,-249.0,-10.0,-28.0,-5.0,-33.0,-5.0,-1018.0,-31.0
4.0,-248.0,-10.0,-27.0,-4.0,-35.0,-6.0,-1011.0,-27.0
3.0,-248.0,-10.0,-25.0,-4.0,-36.0,-13.0,-1010.0,-23.0
2.0,-247.0,-10.0,-24.0,-5.0,-36.0,-8.0,-1013.0,-20.0
0.0,-246.0,-10.0,-24.0,-9.0,-33.0,-9.0,-1010.0,-23.0
0.0,-245.0,-5.0,-22.0,-15.0,-30.0,-16.0,-1012.0,-16.0
-2.0,-244.0,-9.0,-20.0,-21.0,-25.0,-18.0,-1009.0,-17.0
-2.0,-247.0,-7.0,-20.0,-26.0,-22.0,-21.0,-1015.0,-15.0
0.0,-250.0,-9.0,-18.0,-31.0,-20.0,-28.0,-1018.0,-23.0
-3.0,-247.0,-6.0,-18.0,-35.0,-18.0,-37.0,-1021.0,-16.0
-4.0,-251.0,-6.0,-16.0,-40.0,-16.0,-37.0,-1022.0,-26.0
-1.0,-248.0,-12.0,-14.0,-44.0,-14.0,-37.0,-1024.0,-28.0
-8.0,-250.0,-13.0,-13.0,-46.0,-12.0,-45.0,-1022.0,-29.0
-7.0,-250.0,-8.0,-12.0,-49.0,-8.0,-46.0,-1029.0,-28.0
-5.0,-250.0,-9.0,-12.0,-49.0,-8.0,-45.0,-1032.0,-23.0
-6.0,-250.0,-8.0,-11.0,-51.0,-7.0,-42.0,-1025.0,-26.0
-6.0,-252.0,-8.0,-10.0,-50.0,-6.0,-39.0,-1030.0,-19.0
-3.0,-249.0,-10.0,-10.0,-50.0,-5.0,-42.0,-1022.0,-23.0
-7.0,-252.0,-9.0,-8.0,-46.0,-4.0,-33.0,-1022.0,-20.0
-1.0,-251.0,-8.0,-7.0,-44.0,-8.0,-29.0,-1028.0,-22.0
-5.0,-249.0,-12.0,-4.0,-39.0,-7.0,-31.0,-1021.0,-22.0
0.0,-254.0,-7.0,-4.0,-33.0,-8.0,-20.0,-1021.0,-23.0
-4.0,-248.0,-13.0,-1.0,-29.0,-9.0,-19.0,-1023.0,-27.0
0.0,-251.0,-11.0,3.0,-26.0,-11.0,-22.0,-1026.0,-20.0
1.0,-250.0,-12.0,5.0,-20.0,-12.0,-16.0,-1030.0,-23.0
1.0,-250.0,-11.0,10.0,-17.0,-12.0,-17.0,-1025.0,-27.0
0.0,-251.0,-10.0,14.0,-11.0,-13.0,-17.0,-1026.0,-22.0
1.0,-253.0,-7.0,16.0,-9.0,-14.0,-10.0,-1028.0,-28.0
1.0,-248.0,-9.0,20.0,-6.0,-13.0,-14.0,-1030.0,-23.0
1.0,-248.0,-4.0,21.0,-3.0,-13.0,-13.0,-1026.0,-21.0
0.0,-250.0,-7.0,22.0,-1.0,-14.0,-10.0,-1026.0,-21.0
1.0,-247.0,-10.0,21.0,0.0,-15.0,-19.0,-1020.0,-14.0
3.0,-250.0,-6.0,21.0,3.0,-16.0,-17.0,-1024.0,-17.0
1.0,-244.0,-4.0,20.0,5.0,-17.0,-17.0,-1021.0,-18.0
0.0,-247.0,-10.0,19.0,7.0,-19.0,-14.0,-1021.0,-15.0
2.0,-250.0,-8.0,19.0,10.0,-19.0,-13.0,-1022.0,-16.0
1.0,-250.0,-10.0,17.0,11.0,-19.0,-11.0,-1017.0,-16.0
4.0,-249.0,-9.0,18.0,12.0,-23.0,-12.0,-1015.0,-17.0
2.0,-249.0,-5.0,18.0,12.0,-24.0,-9.0,-1019.0,-10.0
5.0,-248.0,-7.0,19.0,11.0,-24.0,-9.0,-1021.0,-13.0
0.0,-246.0,-7.0,18.0,9.0,-26.0,-7.0,-1019.0,-17.0
1.0,-250.0,-8.0,20.0,8.0,-24.0,-13.0,-1018.0,-18.0
3.0,-247.0,-3.0,19.0,7.0,-23.0,-11.0,-1019.0,-15.0
2.0,-248.0,-9.0,21.0,7.0,-21.0,-9.0,-1026.0,-12.0
0.0,-247.0,-7.0,21.0,8.0,-21.0,-11.0,-1024.0,-15.0
2.0,-247.0,-4.0,23.0,9.0,-23.0,-13.0,-1020.0,-13.0
4.0,-251.0,-12.0,25.0,11.0,-22.0,-6.0,-1021.0,-16.0
3.0,-249.0,-7.0,26.0,14.0,-20.0,-8.0,-1021.0,-21.0
2.0,-249.0,-9.0,28.0,18.0,-20.0,-6.0,-1022.0,-24.0
4.0,-250.0,-6.0,30.0,21.0,-21.0,-9.0,-1023.0,-20.0
4.0,-251.0,-12.0,33.0,25.0,-18.0,-6.0,-1026.0,-15.0
1.0,-248.0,-9.0,35.0,28.0,-20.0,-2.0,-1026.0,-24.0
2.0,-248.0,-11.0,37.0,29.0,-18.0,-7.0,-1025.0,-26.0
2.0,-249.0,-8.0,38.0,32.0,-18.0,-6.0,-1020.0,-27.0
8.0,-255.0,-17.0,40.0,34.0,-18.0,-2.0,-1033.0,-27.0
3.0,-249.0,-11.0,41.0,37.0,-17.0,-4.0,-1032.0,-28.0
4.0,-251.0,-10.0,42.0,39.0,-17.0,0.0,-1020.0,-29.0
2.0,-252.0,-12.0,43.0,40.0,-19.0,-6.0,-1021.0,-24.0
5.0,-251.0,-7.0,44.0,40.0,-17.0,-2.0,-1023.0,-21.0
4.0,-251.0,-6.0,47.0,41.0,-16.0,-4.0,-1025.0,-17.0
4.0,-250.0,-5.0,50.0,41.0,-15.0,-5.0,-1023.0,-20.0
3.0,-249.0,-9.0,51.0,42.0,-14.0,-8.0,-1021.0,-13.0
-1.0,-244.0,-11.0,53.0,44.0,-15.0,-8.0,-1022.0,-12.0
3.0,-248.0,-4.0,54.0,46.0,-13.0,-7.0,-1017.0,-17.0
0.0,-246.0,-7.0,52.0,49.0,-15.0,-13.0,-1021.0,-12.0
2.0,-249.0,-4.0,49.0,51.0,-15.0,-9.0,-1022.0,-7.0
1.0,-248.0,-9.0,48.0,53.0,-16.0,-9.0,-1025.0,-16.0
1.0,-248.0,-6.0,46.0,54.0,-16.0,-15.0,-1029.0,-5.0
1.0,-251.0,-6.0,43.0,55.0,-16.0,-12.0,-1017.0,-10.0
2.0,-250.0,-4.0,43.0,53.0,-18.0,-16.0,-1022.0,-13.0
1.0,-249.0,-5.0,42.0,53.0,-17.0,-13.0,-1029.0,-17.0
-2.0,-246.0,-10.0,44.0,51.0,-17.0,-19.0,-1026.0,-13.0
2.0,-252.0,-5.0,45.0,49.0,-18.0,-11.0,-1024.0,-20.0
1.0,-250.0,-7.0,47.0,48.0,-19.0,-14.0,-1021.0,-17.0
1.0,-250.0,-9.0,48.0,47.0,-16.0,-12.0,-1027.0,-21.0
0.0,-252.0,-15.0,47.0,45.0,-16.0,-13.0,-1022.0,-23.0
0.0,-245.0,-10.0,46.0,42.0,-16.0,-9.0,-1030.0,-12.0
1.0,-251.0,-9.0,47.0,40.0,-14.0,-12.0,-1020.0,-26.0
0.0,-247.0,-7.0,48.0,38.0,-14.0,-13.0,-1024.0,-25.0
2.0,-251.0,-12.0,49.0,38.0,-15.0,-13.0,-1017.0,-19.0
0.0,-250.0,-11.0,53.0,38.0,-16.0,-14.0,-1020.0,-20.0
2.0,-251.0,-11.0,56.0,37.0,-17.0,-11.0,-1019.0,-22.0
2.0,-246.0,-14.0,58.0,36.0,-16.0,-13.0,-1019.0,-24.0
-1.0,-247.0,-7.0,57.0,34.0,-15.0,-10.0,-1017.0,-22.0
0.0,-248.0,-4.0,59.0,33.0,-13.0,-15.0,-1018.0,-25.0
2.0,-249.0,-9.0,62.0,33.0,-14.0,-15.0,-1023.0,-27.0
0.0,-242.0,-2.0,66.0,31.0,-12.0,-12.0,-1021.0,-22.0
3.0,-248.0,-10.0,70.0,28.0,-12.0,-14.0,-1018.0,-21.0
1.0,-248.0,-8.0,72.0,26.0,-11.0,-12.0,-1018.0,-22.0
2.0,-246.0,-7.0,73.0,24.0,-9.0,-14.0,-1015.0,-24.0
0.0,-244.0,-10.0,72.0,22.0,-10.0,-13.0,-1013.0,-18.0
0.0,-249.0,-8.0,70.0,21.0,-11.0,-18.0,-1015.0,-19.0
1.0,-250.0,-9.0,66.0,19.0,-12.0,-21.0,-1022.0,-17.0
0.0,-247.0,-6.0,65.0,18.0,-12.0,-17.0,-1022.0,-16.0
0.0,-248.0,-6.0,63.0,17.0,-13.0,-16.0,-1019.0,-19.0
0.0,-251.0,-8.0,61.0,15.0,-14.0,-7.0,-1029.0,-17.0
0.0,-248.0,-8.0,60.0,16.0,-13.0,-14.0,-1029.0,-18.0
2.0,-250.0,-14.0,62.0,16.0,-13.0,-14.0,-1024.0,-15.0
0.0,-249.0,-8.0,63.0,15.0,-13.0,-17.0,-1027.0,-21.0
0.0,-249.0,-9.0,65.0,13.0,-12.0,-18.0,-1024.0,-15.0
0.0,-248.0,-9.0,69.0,13.0,-11.0,-17.0,-1019.0,-19.0
2.0,-252.0,-9.0,69.0,12.0,-13.0,-18.0,-1017.0,-16.0
0.0,-247.0,-10.0,70.0,12.0,-14.0,-19.0,-1018.0,-12.0
0.0,-247.0,-11.0,70.0,11.0,-14.0,-16.0,-1018.0,-21.0
1.0,-245.0,-5.0,69.0,10.0,-15.0,-23.0,-1022.0,-5.0
-1.0,-249.0,-9.0,69.0,10.0,-15.0,-24.0,-1020.0,-16.0
1.0,-248.0,-8.0,67.0,8.0,-13.0,-19.0,-1018.0,-16.0
0.0,-245.0,-8.0,66.0,6.0,-13.0,-21.0,-1022.0,-16.0
-1.0,-249.0,-5.0,64.0,6.0,-15.0,-23.0,-1016.0,-11.0
0.0,-249.0,-6.0,63.0,6.0,-13.0,-20.0,-1020.0,-14.0
0.0,-250.0,-5.0,62.0,7.0,-13.0,-25.0,-1017.0,-12.0
2.0,-249.0,-6.0,61.0,6.0,-12.0,-21.0,-1011.0,-7.0
1.0,-247.0,-4.0,60.0,6.0,-12.0,-20.0,-1020.0,-10.0
-2.0,-249.0,-3.0,60.0,6.0,-13.0,-23.0,-1017.0,-10.0
1.0,-249.0,-2.0,58.0,6.0,-15.0,-24.0,-1019.0,-11.0
0.0,-248.0,-5.0,60.0,7.0,-13.0,-23.0,-1019.0,-5.0
-1.0,-249.0,-2.0,63.0,7.0,-13.0,-24.0,-1020.0,-11.0
0.0,-253.0,-4.0,63.0,7.0,-10.0,-18.0,-1018.0,-6.0
0.0,-250.0,-5.0,64.0,8.0,-8.0,-20.0,-1016.0,-3.0
0.0,-245.0,-8.0,65.0,7.0,-10.0,-16.0,-1020.0,-1.0
2.0,-249.0,-7.0,64.0,8.0,-10.0,-19.0,-1017.0,-6.0
1.0,-250.0,-5.0,66.0,8.0,-10.0,-20.0,-1019.0,-5.0
0.0,-252.0,-5.0,67.0,6.0,-12.0,-19.0,-1021.0,-1.0
1.0,-250.0,-5.0,70.0,6.0,-13.0,-23.0,-1020.0,-6.0
1.0,-249.0,-6.0,70.0,6.0,-13.0,-18.0,-1020.0,-12.0
1.0,-247.0,-7.0,70.0,6.0,-14.0,-15.0,-1022.0,-8.0
4.0,-249.0,-2.0,70.0,4.0,-15.0,-17.0,-1015.0,-7.0
2.0,-248.0,-6.0,69.0,5.0,-17.0,-14.0,-1020.0,-8.0
3.0,-246.0,-9.0,67.0,6.0,-17.0,-10.0,-1018.0,-8.0
3.0,-251.0,-2.0,67.0,6.0,-15.0,-13.0,-1023.0,-7.0
0.0,-248.0,-3.0,66.0,6.0,-14.0,-19.0,-1023.0,-4.0
2.0,-249.0,-8.0,66.0,6.0,-13.0,-12.0,-1021.0,-7.0
2.0,-250.0,-3.0,64.0,7.0,-14.0,-14.0,-1017.0,0.0
2.0,-247.0,-1.0,64.0,7.0,-14.0,-7.0,-1018.0,-5.0
1.0,-250.0,-5.0,63.0,8.0,-14.0,-14.0,-1016.0,-5.0
2.0,-246.0,-6.0,64.0,8.0,-14.0,-13.0,-1012.0,-10.0
2.0,-249.0,-8.0,64.0,8.0,-13.0,-13.0,-1023.0,-4.0
0.0,-246.0,-8.0,64.0,8.0,-13.0,-9.0,-1018.0,-4.0
0.0,-247.0,-7.0,64.0,7.0,-12.0,-14.0,-1023.0,-6.0
4.0,-252.0,-6.0,65.0,7.0,-13.0,-13.0,-1024.0,-10.0
1.0,-251.0,-2.0,67.0,7.0,-15.0,-10.0,-1020.0,-7.0
2.0,-248.0,-5.0,68.0,7.0,-15.0,-11.0,-1013.0,-9.0
2.0,-248.0,-3.0,67.0,7.0,-16.0,-15.0,-1020.0,-5.0
1.0,-247.0,-8.0,66.0,6.0,-18.0,-11.0,-1021.0,-5.0
3.0,-250.0,-5.0,66.0,6.0,-19.0,-17.0,-1019.0,-11.0
0.0,-248.0,-10.0,64.0,6.0,-18.0,-11.0,-1018.0,-6.0
2.0,-250.0,-1.0,63.0,6.0,-19.0,-12.0,-1023.0,-7.0
0.0,-249.0,-2.0,62.0,7.0,-18.0,-11.0,-1020.0,-10.0
0.0,-248.0,-9.0,60.0,6.0,-16.0,-10.0,-1018.0,-11.0
2.0,-247.0,-7.0,57.0,9.0,-18.0,-14.0,-1017.0,-9.0
1.0,-249.0,-1.0,54.0,9.0,-18.0,-16.0,-1018.0,-3.0
3.0,-245.0,-7.0,51.0,11.0,-19.0,-14.0,-1020.0,-8.0
2.0,-249.0,-8.0,50.0,11.0,-20.0,-13.0,-1022.0,-13.0
1.0,-247.0,-6.0,48.0,11.0,-19.0,-11.0,-1024.0,-5.0
2.0,-251.0,-3.0,46.0,11.0,-20.0,-9.0,-1019.0,-11.0
0.0,-249.0,-7.0,46.0,10.0,-20.0,-13.0,-1021.0,-6.0
3.0,-250.0,-7.0,47.0,10.0,-19.0,-11.0,-1020.0,-13.0
2.0,-248.0,-6.0,48.0,11.0,-18.0,-2.0,-1022.0,-12.0
3.0,-248.0,-8.0,46.0,10.0,-18.0,-9.0,-1020.0,-10.0
2.0,-247.0,-5.0,46.0,11.0,-18.0,-9.0,-1017.0,-11.0
2.0,-244.0,-8.0,46.0,10.0,-15.0,-9.0,-1016.0,-16.0
0.0,-245.0,-16.0,45.0,9.0,-14.0,-10.0,-1019.0,-13.0
3.0,-251.0,-7.0,46.0,10.0,-15.0,-12.0,-1020.0,-8.0
2.0,-246.0,-9.0,47.0,9.0,-13.0,-9.0,-1020.0,-15.0
2.0,-247.0,-8.0,48.0,8.0,-14.0,-13.0,-1015.0,-9.0
1.0,-246.0,-2.0,48.0,8.0,-14.0,-9.0,-1013.0,-19.0
3.0,-249.0,-5.0,46.0,11.0,-13.0,-3.0,-1016.0,-11.0
1.0,-248.0,-5.0,48.0,10.0,-13.0,-15.0,-1016.0,-9.0
0.0,-247.0,-7.0,48.0,11.0,-12.0,-11.0,-1013.0,-7.0
0.0,-248.0,-7.0,48.0,12.0,-14.0,-8.0,-1018.0,-5.0
1.0,-248.0,-4.0,48.0,13.0,-15.0,-11.0,-1019.0,-11.0
4.0,-251.0,-10.0,47.0,14.0,-16.0,-9.0,-1016.0,-12.0
0.0,-247.0,-7.0,49.0,14.0,-17.0,-8.0,-1026.0,-14.0
2.0,-249.0,-7.0,49.0,14.0,-16.0,-10.0,-1027.0,-7.0
0.0,-248.0,-8.0,49.0,15.0,-16.0,-12.0,-1026.0,-13.0
1.0,-247.0,-9.0,48.0,13.0,-16.0,-11.0,-1015.0,-12.0
1.0,-246.0,-5.0,47.0,14.0,-18.0,-7.0,-1018.0,-19.0
1.0,-250.0,-9.0,44.0,12.0,-16.0,-10.0,-1015.0,-16.0
1.0,-248.0,-4.0,42.0,11.0,-15.0,-13.0,-1020.0,-7.0
0.0,-246.0,-6.0,42.0,12.0,-15.0,-12.0,-1014.0,-16.0
1.0,-249.0,-1.0,43.0,11.0,-17.0,-13.0,-1020.0,-11.0
3.0,-249.0,-2.0,43.0,10.0,-17.0,-12.0,-1019.0,-12.0
1.0,-248.0,-8.0,41.0,10.0,-16.0,-13.0,-1022.0,-10.0
0.0,-249.0,-5.0,40.0,10.0,-13.0,-14.0,-1020.0,-7.0
3.0,-249.0,-3.0,37.0,11.0,-13.0,-20.0,-1016.0,-1.0
1.0,-249.0,-2.0,35.0,14.0,-12.0,-15.0,-1021.0,-3.0
1.0,-245.0,-3.0,33.0,14.0,-11.0,-15.0,-1019.0,-3.0
3.0,-251.0,-4.0,31.0,14.0,-11.0,-16.0,-1019.0,-2.0
0.0,-248.0,-1.0,30.0,14.0,-12.0,-11.0,-1022.0,-1.0
6.0,-248.0,-7.0,32.0,14.0,-13.0,-16.0,-1018.0,-3.0
4.0,-250.0,-6.0,35.0,13.0,-13.0,-15.0,-1023.0,-7.0
-1.0,-252.0,-7.0,37.0,13.0,-13.0,-9.0,-1023.0,-5.0
2.0,-248.0,-8.0,39.0,13.0,-12.0,-8.0,-1022.0,-3.0
1.0,-248.0,-10.0,41.0,12.0,-13.0,-9.0,-1024.0,-17.0
1.0,-250.0,-5.0,42.0,13.0,-15.0,-13.0,-1022.0,-15.0
2.0,-248.0,-6.0,43.0,13.0,-14.0,-8.0,-1024.0,-7.0
2.0,-247.0,-3.0,42.0,13.0,-14.0,-13.0,-1020.0,-6.0
3.0,-250.0,-7.0,42.0,14.0,-14.0,-5.0,-1018.0,-17.0
3.0,-247.0,-8.0,42.0,12.0,-16.0,-8.0,-1020.0,-10.0
1.0,-248.0,-6.0,41.0,12.0,-16.0,-8.0,-1020.0,-14.0
0.0,-249.0,-9.0,39.0,12.0,-16.0,-9.0,-1016.0,-6.0
2.0,-245.0,-7.0,38.0,13.0,-17.0,-14.0,-1019.0,-16.0
2.0,-248.0,-7.0,38.0,12.0,-17.0,-10.0,-1015.0,-11.0
2.0,-248.0,-9.0,38.0,12.0,-16.0,-12.0,-1016.0,-12.0
2.0,-247.0,-6.0,39.0,13.0,-16.0,-12.0,-1017.0,-19.0
1.0,-245.0,-10.0,40.0,13.0,-17.0,-9.0,-1019.0,-18.0
1.0,-249.0,-4.0,43.0,12.0,-16.0,-10.0,-1020.0,-16.0
1.0,-251.0,-8.0,43.0,13.0,-15.0,-9.0,-1014.0,-21.0
0.0,-251.0,-7.0,43.0,13.0,-15.0,-15.0,-1020.0,-19.0
3.0,-249.0,-8.0,43.0,13.0,-14.0,-14.0,-1021.0,-15.0
2.0,-249.0,-9.0,42.0,12.0,-14.0,-9.0,-1020.0,-10.0
2.0,-249.0,-8.0,42.0,10.0,-14.0,-12.0,-1019.0,-13.0
0.0,-248.0,-9.0,41.0,8.0,-15.0,-14.0,-1022.0,-10.0
1.0,-249.0,-5.0,39.0,9.0,-14.0,-10.0,-1020.0,-17.0
5.0,-252.0,-13.0,36.0,8.0,-14.0,-12.0,-1022.0,-2.0
1.0,-249.0,-8.0,36.0,8.0,-13.0,-13.0,-1017.0,-11.0
0.0,-249.0,-5.0,36.0,9.0,-12.0,-13.0,-1016.0,-4.0
1.0,-247.0,-3.0,36.0,10.0,-13.0,-14.0,-1019.0,-15.0
1.0,-247.0,-12.0,36.0,10.0,-13.0,-13.0,-1023.0,-11.0
1.0,-247.0,-7.0,36.0,9.0,-14.0,-13.0,-1020.0,-11.0
0.0,-249.0,-4.0,36.0,9.0,-14.0,-15.0,-1021.0,-18.0
2.0,-253.0,-8.0,38.0,12.0,-15.0,-10.0,-1024.0,-12.0
1.0,-248.0,-10.0,38.0,14.0,-15.0,-10.0,-1019.0,-17.0
5.0,-250.0,-5.0,37.0,13.0,-17.0,-12.0,-1022.0,-20.0
0.0,-249.0,-7.0,36.0,13.0,-16.0,-11.0,-1020.0,-17.0
2.0,-252.0,-2.0,35.0,14.0,-17.0,-12.0,-1020.0,-14.0
-1.0,-249.0,-5.0,33.0,14.0,-17.0,-9.0,-1022.0,-21.0
2.0,-250.0,-6.0,33.0,13.0,-16.0,-11.0,-1021.0,-18.0
0.0,-248.0,-9.0,33.0,11.0,-17.0,-9.0,-1016.0,-17.0
0.0,-248.0,-6.0,34.0,9.0,-17.0,-6.0,-1021.0,-12.0
1.0,-249.0,-9.0,32.0,8.0,-16.0,-13.0,-1017.0,-17.0
3.0,-249.0,-12.0,33.0,8.0,-17.0,-8.0,-1019.0,-11.0
3.0,-245.0,-6.0,33.0,7.0,-16.0,-13.0,-1022.0,-9.0
2.0,-249.0,-8.0,33.0,7.0,-16.0,-14.0,-1014.0,-16.0
-1.0,-245.0,-2.0,35.0,6.0,-17.0,-15.0,-1021.0,-15.0
0.0,-250.0,-9.0,34.0,6.0,-15.0,-13.0,-1019.0,-10.0
2.0,-247.0,-7.0,33.0,7.0,-16.0,-9.0,-1020.0,-15.0
2.0,-251.0,-8.0,34.0,7.0,-16.0,-12.0,-1017.0,-15.0
0.0,-245.0,-6.0,35.0,7.0,-16.0,-10.0,-1020.0,-16.0
0.0,-251.0,-6.0,35.0,8.0,-16.0,-16.0,-1020.0,-13.0
1.0,-246.0,-10.0,37.0,10.0,-17.0,-10.0,-1026.0,-18.0
2.0,-249.0,-12.0,39.0,11.0,-16.0,-7.0,-1022.0,-12.0
3.0,-250.0,-3.0,42.0,11.0,-16.0,-6.0,-1026.0,-21.0
1.0,-249.0,-4.0,44.0,11.0,-15.0,-10.0,-1019.0,-18.0
4.0,-249.0,-8.0,44.0,12.0,-16.0,-11.0,-1019.0,-20.0
1.0,-247.0,-9.0,45.0,10.0,-17.0,-11.0,-1020.0,-10.0
2.0,-241.0,-6.0,46.0,11.0,-16.0,-7.0,-1017.0,-18.0
3.0,-248.0,-6.0,45.0,11.0,-15.0,-11.0,-1020.0,-21.0
1.0,-250.0,-5.0,45.0,10.0,-14.0,-11.0,-1022.0,-11.0
4.0,-249.0,-7.0,44.0,9.0,-15.0,-6.0,-1024.0,-19.0
2.0,-249.0,-4.0,44.0,10.0,-16.0,-13.0,-1023.0,-18.0
4.0,-247.0,-8.0,44.0,9.0,-13.0,-8.0,-1024.0,-18.0
3.0,-252.0,-6.0,43.0,11.0,-13.0,-10.0,-1019.0,-23.0
4.0,-248.0,-6.0,45.0,11.0,-13.0,-10.0,-1019.0,-16.0
2.0,-248.0,-9.0,45.0,12.0,-13.0,-13.0,-1020.0,-15.0
1.0,-250.0,-6.0,45.0,12.0,-15.0,-11.0,-1017.0,-17.0
1.0,-246.0,-11.0,44.0,11.0,-13.0,-8.0,-1018.0,-13.0
-1.0,-249.0,-9.0,45.0,12.0,-13.0,-8.0,-1016.0,-14.0
0.0,-248.0,-10.0,43.0,11.0,-15.0,-8.0,-1019.0,-20.0
1.0,-249.0,-9.0,44.0,11.0,-15.0,-4.0,-1020.0,-16.0
0.0,-246.0,-9.0,44.0,10.0,-13.0,-6.0,-1024.0,-15.0
4.0,-249.0,-5.0,44.0,10.0,-13.0,-1.0,-1020.0,-16.0
2.0,-249.0,-7.0,44.0,11.0,-14.0,-5.0,-1022.0,-15.0
3.0,-247.0,-8.0,46.0,9.0,-13.0,-9.0,-1018.0,-20.0
3.0,-250.0,-4.0,45.0,9.0,-14.0,-5.0,-1018.0,-18.0
2.0,-247.0,-8.0,45.0,10.0,-14.0,-6.0,-1020.0,-15.0
3.0,-249.0,-6.0,44.0,9.0,-14.0,-2.0,-1014.0,-11.0
1.0,-247.0,-4.0,43.0,8.0,-14.0,-3.0,-1020.0,-24.0
2.0,-249.0,-7.0,41.0,11.0,-15.0,-4.0,-1017.0,-18.0
2.0,-249.0,-6.0,40.0,12.0,-14.0,-8.0,-1019.0,-17.0
1.0,-248.0,-7.0,41.0,12.0,-15.0,-11.0,-1018.0,-10.0
2.0,-253.0,-6.0,40.0,15.0,-15.0,-11.0,-1021.0,-18.0
3.0,-251.0,-8.0,37.0,15.0,-13.0,-14.0,-1019.0,-16.0
2.0,-245.0,-4.0,33.0,17.0,-13.0,-9.0,-1013.0,-14.0
0.0,-250.0,-5.0,32.0,17.0,-12.0,-7.0,-1018.0,-17.0
2.0,-248.0,-8.0,31.0,17.0,-15.0,-8.0,-1020.0,-15.0
2.0,-247.0,-6.0,30.0,18.0,-15.0,-7.0,-1021.0,-16.0
1.0,-249.0,-2.0,31.0,18.0,-14.0,-10.0,-1027.0,-11.0
1.0,-249.0,-12.0,30.0,17.0,-14.0,-6.0,-1020.0,-15.0
2.0,-249.0,-6.0,31.0,17.0,-14.0,-10.0,-1022.0,-20.0
5.0,-250.0,-3.0,33.0,16.0,-14.0,-4.0,-1021.0,-20.0
2.0,-247.0,-8.0,35.0,15.0,-13.0,-7.0,-1023.0,-19.0
5.0,-252.0,-10.0,38.0,13.0,-13.0,-5.0,-1018.0,-22.0
3.0,-247.0,-11.0,39.0,11.0,-14.0,-9.0,-1017.0,-21.0
2.0,-248.0,-10.0,41.0,9.0,-12.0,-6.0,-1017.0,-21.0
-2.0,-246.0,-7.0,40.0,10.0,-13.0,-8.0,-1019.0,-22.0
2.0,-244.0,-13.0,40.0,10.0,-13.0,-8.0,-1020.0,-23.0
4.0,-250.0,-12.0,41.0,10.0,-13.0,-7.0,-1019.0,-24.0
1.0,-248.0,-13.0,41.0,12.0,-12.0,-4.0,-1010.0,-21.0
3.0,-241.0,-3.0,43.0,13.0,-11.0,-8.0,-1017.0,-15.0
0.0,-245.0,-8.0,43.0,14.0,-13.0,-7.0,-1015.0,-21.0
1.0,-250.0,-10.0,43.0,14.0,-13.0,-11.0,-1009.0,-22.0
0.0,-249.0,-9.0,41.0,15.0,-13.0,-14.0,-1020.0,-21.0
2.0,-247.0,-7.0,42.0,16.0,-13.0,-12.0,-1018.0,-17.0
1.0,-247.0,-10.0,43.0,16.0,-13.0,-7.0,-1024.0,-17.0
0.0,-244.0,-7.0,43.0,17.0,-14.0,-8.0,-1018.0,-23.0
0.0,-248.0,-7.0,45.0,19.0,-14.0,-11.0,-1018.0,-21.0
3.0,-249.0,-13.0,45.0,19.0,-13.0,-5.0,-1015.0,-29.0
0.0,-247.0,-10.0,46.0,19.0,-11.0,-11.0,-1018.0,-27.0
2.0,-250.0,-11.0,45.0,18.0,-12.0,-8.0,-1017.0,-25.0
2.0,-245.0,-10.0,45.0,17.0,-12.0,-13.0,-1021.0,-26.0
6.0,-250.0,-7.0,44.0,14.0,-12.0,-11.0,-1020.0,-24.0
2.0,-250.0,-8.0,44.0,13.0,-13.0,-14.0,-1018.0,-21.0
2.0,-249.0,-10.0,42.0,12.0,-12.0,-10.0,-1021.0,-21.0
3.0,-248.0,-11.0,43.0,12.0,-13.0,-13.0,-1020.0,-16.0
0.0,-249.0,-8.0,42.0,12.0,-13.0,-16.0,-1018.0,-20.0
-2.0,-250.0,-8.0,43.0,16.0,-12.0,-14.0,-1017.0,-18.0
3.0,-249.0,-6.0,44.0,16.0,-12.0,-13.0,-1021.0,-16.0
3.0,-248.0,-6.0,45.0,18.0,-12.0,-12.0,-1019.0,-20.0
0.0,-250.0,-5.0,46.0,19.0,-11.0,-9.0,-1018.0,-17.0
9.0,-245.0,-9.0,48.0,20.0,-12.0,-14.0,-1018.0,-23.0
1.0,-242.0,-5.0,50.0,19.0,-11.0,-7.0,-1020.0,-17.0
2.0,-249.0,-7.0,53.0,18.0,-12.0,-3.0,-1023.0,-23.0
3.0,-249.0,-7.0,54.0,16.0,-12.0,-11.0,-1022.0,-21.0
2.0,-246.0,-6.0,57.0,16.0,-10.0,-3.0,-1017.0,-22.0
4.0,-250.0,-12.0,58.0,15.0,-10.0,-3.0,-1017.0,-25.0
1.0,-249.0,-10.0,60.0,13.0,-10.0,-3.0,-1021.0,-20.0
2.0,-252.0,-11.0,60.0,13.0,-9.0,-4.0,-1019.0,-23.0
3.0,-246.0,-13.0,60.0,13.0,-11.0,-5.0,-1014.0,-23.0
1.0,-248.0,-5.0,59.0,13.0,-11.0,-6.0,-1018.0,-18.0
1.0,-245.0,-11.0,59.0,13.0,-13.0,-11.0,-1015.0,-27.0
2.0,-253.0,-9.0,61.0,14.0,-13.0,-9.0,-1017.0,-20.0
3.0,-250.0,-11.0,61.0,15.0,-11.0,-8.0,-1019.0,-28.0
3.0,-249.0,-7.0,61.0,15.0,-11.0,-13.0,-1020.0,-21.0
1.0,-248.0,-14.0,62.0,16.0,-14.0,-3.0,-1018.0,-23.0
1.0,-247.0,-8.0,62.0,16.0,-11.0,-6.0,-1015.0,-23.0
3.0,-249.0,-12.0,62.0,17.0,-13.0,-12.0,-1020.0,-18.0
4.0,-249.0,-8.0,60.0,17.0,-11.0,-12.0,-1020.0,-27.0
1.0,-250.0,-12.0,58.0,17.0,-12.0,-6.0,-1019.0,-26.0
5.0,-250.0,-13.0,56.0,18.0,-12.0,-11.0,-1016.0,-21.0
1.0,-244.0,-7.0,57.0,17.0,-14.0,-12.0,-1015.0,-19.0
6.0,-248.0,-4.0,56.0,16.0,-12.0,-9.0,-1016.0,-24.0
4.0,-250.0,-10.0,56.0,15.0,-13.0,-10.0,-1015.0,-21.0
3.0,-248.0,-7.0,55.0,16.0,-12.0,-7.0,-1014.0,-20.0
3.0,-249.0,-8.0,54.0,16.0,-11.0,-10.0,-1021.0,-23.0
1.0,-246.0,-8.0,53.0,15.0,-10.0,-7.0,-1014.0,-19.0
2.0,-247.0,-10.0,51.0,15.0,-11.0,-10.0,-1020.0,-19.0
2.0,-251.0,-12.0,50.0,14.0,-11.0,-5.0,-1019.0,-20.0
2.0,-250.0,-9.0,52.0,14.0,-11.0,-11.0,-1021.0,-21.0
3.0,-249.0,-6.0,52.0,12.0,-10.0,-8.0,-1015.0,-19.0
2.0,-247.0,-7.0,53.0,13.0,-12.0,-7.0,-1026.0,-17.0
2.0,-252.0,-6.0,55.0,13.0,-11.0,-6.0,-1016.0,-18.0
2.0,-247.0,0.0,58.0,13.0,-10.0,-10.0,-1025.0,-16.0
2.0,-253.0,-9.0,61.0,14.0,-9.0,-8.0,-1023.0,-19.0
1.0,-249.0,-7.0,64.0,13.0,-10.0,-10.0,-1024.0,-19.0
2.0,-250.0,-8.0,65.0,14.0,-11.0,-8.0,-1025.0,-15.0
2.0,-248.0,-11.0,67.0,15.0,-12.0,-7.0,-1018.0,-17.0
3.0,-247.0,-6.0,67.0,16.0,-12.0,-8.0,-1024.0,-18.0
2.0,-248.0,-11.0,69.0,18.0,-9.0,-7.0,-1020.0,-20.0
4.0,-248.0,-5.0,68.0,19.0,-10.0,-5.0,-1021.0,-18.0
1.0,-248.0,-4.0,69.0,18.0,-11.0,-10.0,-1019.0,-22.0
1.0,-249.0,-9.0,68.0,19.0,-13.0,-10.0,-1021.0,-14.0
1.0,-247.0,-6.0,68.0,17.0,-12.0,-5.0,-1019.0,-17.0
4.0,-244.0,-15.0,67.0,16.0,-12.0,-9.0,-1022.0,-14.0
2.0,-249.0,-8.0,65.0,14.0,-12.0,-7.0,-1022.0,-15.0
1.0,-250.0,-4.0,64.0,14.0,-14.0,-11.0,-1021.0,-16.0
1.0,-249.0,-7.0,63.0,12.0,-13.0,-9.0,-1024.0,-15.0
2.0,-250.0,-5.0,64.0,11.0,-10.0,-9.0,-1022.0,-18.0
1.0,-249.0,-11.0,64.0,11.0,-12.0,-6.0,-1026.0,-12.0
2.0,-249.0,-4.0,64.0,13.0,-11.0,-9.0,-1026.0,-10.0
4.0,-253.0,-3.0,67.0,13.0,-13.0,-9.0,-1029.0,-13.0
1.0,-250.0,-6.0,71.0,15.0,-14.0,-12.0,-1031.0,-14.0
2.0,-252.0,-8.0,74.0,16.0,-11.0,-8.0,-1025.0,-12.0
0.0,-253.0,-3.0,78.0,16.0,-10.0,-8.0,-1022.0,-14.0
3.0,-252.0,-8.0,78.0,18.0,-8.0,-6.0,-1023.0,-18.0
3.0,-249.0,-8.0,82.0,20.0,-8.0,-14.0,-1025.0,-18.0
3.0,-252.0,-9.0,84.0,21.0,-6.0,-9.0,-1021.0,-9.0
1.0,-247.0,-4.0,87.0,23.0,-4.0,-11.0,-1018.0,-14.0
3.0,-249.0,-7.0,87.0,22.0,-6.0,-9.0,-1022.0,-12.0
1.0,-248.0,-4.0,86.0,23.0,-6.0,-3.0,-1016.0,-9.0
3.0,-247.0,-2.0,84.0,22.0,-6.0,-9.0,-1015.0,-9.0
1.0,-246.0,-7.0,84.0,20.0,-6.0,-10.0,-1016.0,-2.0
6.0,-247.0,-7.0,81.0,19.0,-6.0,-2.0,-1012.0,-8.0
4.0,-248.0,-6.0,80.0,18.0,-9.0,-11.0,-1011.0,-5.0
1.0,-251.0,-4.0,78.0,16.0,-9.0,-5.0,-1016.0,-10.0
4.0,-247.0,-9.0,77.0,15.0,-7.0,-7.0,-1015.0,-2.0
1.0,-245.0,-7.0,76.0,13.0,-9.0,-10.0,-1018.0,-17.0
4.0,-250.0,-5.0,74.0,12.0,-9.0,-9.0,-1019.0,-4.0
4.0,-248.0,-6.0,73.0,11.0,-11.0,-10.0,-1017.0,-10.0
3.0,-249.0,-3.0,70.0,11.0,-10.0,-9.0,-1015.0,-14.0
4.0,-246.0,-4.0,68.0,11.0,-9.0,-7.0,-1021.0,-13.0
2.0,-250.0,-6.0,65.0,10.0,-10.0,-7.0,-1015.0,-16.0
1.0,-247.0,-9.0,63.0,10.0,-8.0,-13.0,-1018.0,-15.0
3.0,-253.0,-7.0,61.0,12.0,-9.0,-6.0,-1019.0,-4.0
3.0,-249.0,-8.0,62.0,12.0,-8.0,-8.0,-1023.0,-17.0
5.0,-248.0,-14.0,61.0,13.0,-9.0,-6.0,-1024.0,-20.0
3.0,-250.0,-8.0,61.0,13.0,-8.0,-6.0,-1021.0,-12.0
1.0,-248.0,-7.0,62.0,14.0,-9.0,-4.0,-1022.0,-10.0
2.0,-248.0,-10.0,62.0,15.0,-9.0,-7.0,-1017.0,-9.0
2.0,-245.0,-8.0,65.0,14.0,-8.0,-8.0,-1019.0,-8.0
2.0,-250.0,-5.0,66.0,15.0,-8.0,-8.0,-1011.0,-13.0
1.0,-250.0,-10.0,67.0,15.0,-10.0,-6.0,-1020.0,-17.0
1.0,-249.0,-12.0,68.0,15.0,-10.0,-6.0,-1017.0,-12.0
0.0,-246.0,-9.0,68.0,15.0,-9.0,-8.0,-1019.0,-11.0
0.0,-245.0,-11.0,68.0,15.0,-10.0,-11.0,-1020.0,-10.0
4.0,-252.0,-6.0,67.0,15.0,-11.0,-10.0,-1018.0,-7.0
1.0,-249.0,-2.0,66.0,16.0,-9.0,-10.0,-1017.0,-5.0
1.0,-250.0,-9.0,64.0,15.0,-11.0,-6.0,-1022.0,-9.0
3.0,-247.0,-10.0,62.0,17.0,-12.0,-11.0,-1016.0,-11.0
3.0,-252.0,-6.0,60.0,15.0,-10.0,-5.0,-1015.0,-7.0
1.0,-248.0,-7.0,59.0,16.0,-11.0,-9.0,-1025.0,-14.0
1.0,-248.0,-8.0,56.0,16.0,-10.0,-7.0,-1018.0,-11.0
0.0,-245.0,-2.0,56.0,16.0,-10.0,-10.0,-1019.0,-13.0
1.0,-247.0,-6.0,55.0,15.0,-11.0,-4.0,-1013.0,-10.0
3.0,-247.0,-7.0,56.0,15.0,-11.0,-7.0,-1019.0,-15.0
2.0,-247.0,-6.0,56.0,14.0,-9.0,-7.0,-1021.0,-15.0
1.0,-245.0,-8.0,53.0,12.0,-7.0,-4.0,-1023.0,-15.0
1.0,-246.0,-6.0,53.0,12.0,-10.0,-6.0,-1026.0,-16.0
2.0,-247.0,-10.0,54.0,11.0,-8.0,-7.0,-1021.0,-10.0
1.0,-247.0,-5.0,55.0,11.0,-8.0,-9.0,-1018.0,-9.0
4.0,-250.0,-8.0,53.0,11.0,-8.0,-10.0,-1020.0,-10.0
2.0,-250.0,-7.0,53.0,11.0,-8.0,-13.0,-1011.0,-11.0
4.0,-251.0,-4.0,53.0,12.0,-10.0,-5.0,-1017.0,-14.0
3.0,-248.0,-4.0,55.0,13.0,-9.0,-8.0,-1017.0,-8.0
1.0,-250.0,-5.0,56.0,12.0,-11.0,-12.0,-1023.0,-15.0
1.0,-250.0,-5.0,57.0,14.0,-12.0,-10.0,-1020.0,-10.0
4.0,-249.0,-4.0,57.0,14.0,-12.0,-9.0,-1024.0,-10.0
8.0,-248.0,-7.0,58.0,14.0,-11.0,-10.0,-1023.0,-11.0
3.0,-251.0,-8.0,59.0,16.0,-13.0,-11.0,-1021.0,-12.0
5.0,-249.0,-3.0,62.0,16.0,-12.0,-6.0,-1025.0,-20.0
4.0,-251.0,-9.0,65.0,16.0,-10.0,-8.0,-1022.0,-22.0
1.0,-249.0,-11.0,66.0,16.0,-11.0,-9.0,-1020.0,-20.0
2.0,-249.0,-8.0,68.0,14.0,-10.0,-2.0,-1020.0,-17.0
3.0,-250.0,-6.0,68.0,12.0,-11.0,-7.0,-1018.0,-15.0
3.0,-251.0,-3.0,68.0,10.0,-12.0,-7.0,-1023.0,-18.0
2.0,-247.0,-9.0,68.0,8.0,-11.0,-11.0,-1021.0,-14.0
1.0,-249.0,-6.0,67.0,7.0,-11.0,-7.0,-1021.0,-7.0
5.0,-249.0,-6.0,67.0,5.0,-11.0,-6.0,-1017.0,-10.0
1.0,-249.0,-5.0,63.0,5.0,-11.0,-10.0,-1022.0,-9.0
3.0,-249.0,-5.0,61.0,8.0,-9.0,-10.0,-1016.0,-3.0
1.0,-249.0,-4.0,63.0,10.0,-10.0,-15.0,-1020.0,-4.0
0.0,-250.0,-5.0,64.0,10.0,-9.0,-13.0,-1017.0,-2.0
2.0,-249.0,-5.0,64.0,10.0,-10.0,-15.0,-1020.0,-6.0
1.0,-247.0,-8.0,66.0,12.0,-11.0,-12.0,-1020.0,-3.0
3.0,-247.0,-6.0,67.0,13.0,-9.0,-11.0,-1019.0,-7.0
0.0,-247.0,-8.0,65.0,12.0,-9.0,-10.0,-1015.0,-5.0
3.0,-247.0,-5.0,66.0,14.0,-9.0,-13.0,-1016.0,-7.0
4.0,-247.0,-3.0,65.0,15.0,-8.0,-6.0,-1020.0,-10.0
0.0,-251.0,-3.0,63.0,14.0,-8.0,-10.0,-1018.0,-5.0
2.0,-248.0,-4.0,61.0,12.0,-9.0,-6.0,-1021.0,-12.0
1.0,-249.0,-6.0,61.0,12.0,-8.0,-9.0,-1020.0,-5.0
1.0,-247.0,-5.0,60.0,11.0,-11.0,-6.0,-1018.0,-12.0
3.0,-248.0,-5.0,62.0,10.0,-13.0,-10.0,-1019.0,-6.0
3.0,-249.0,-7.0,62.0,10.0,-12.0,-9.0,-1021.0,-3.0
2.0,-249.0,-6.0,63.0,12.0,-10.0,-12.0,-1020.0,-11.0
5.0,-250.0,-9.0,64.0,11.0,-10.0,-8.0,-1020.0,-9.0
4.0,-253.0,-3.0,64.0,10.0,-11.0,-8.0,-1019.0,-1.0
1.0,-249.0,-5.0,65.0,9.0,-11.0,-9.0,-1019.0,-2.0
2.0,-248.0,-4.0,64.0,11.0,-10.0,-11.0,-1017.0,-12.0
2.0,-248.0,-12.0,66.0,11.0,-10.0,-7.0,-1021.0,-10.0
1.0,-248.0,-2.0,66.0,11.0,-11.0,-13.0,-1021.0,-13.0
4.0,-251.0,0.0,66.0,12.0,-10.0,-7.0,-1018.0,0.0
4.0,-248.0,-4.0,66.0,11.0,-10.0,-5.0,-1020.0,-14.0
1.0,-249.0,-8.0,68.0,12.0,-9.0,-13.0,-1020.0,-13.0
2.0,-247.0,-9.0,66.0,12.0,-8.0,-11.0,-1019.0,-9.0
4.0,-249.0,-5.0,66.0,12.0,-9.0,-6.0,-1015.0,-12.0
1.0,-249.0,-2.0,66.0,12.0,-10.0,-6.0,-1019.0,-4.0
2.0,-249.0,-5.0,65.0,13.0,-10.0,-5.0,-1017.0,-12.0
5.0,-248.0,-6.0,66.0,12.0,-8.0,-5.0,-1020.0,-6.0
3.0,-248.0,-4.0,65.0,13.0,-9.0,-9.0,-1021.0,-10.0
3.0,-246.0,-2.0,63.0,12.0,-12.0,-8.0,-1021.0,-5.0
3.0,-248.0,-6.0,61.0,11.0,-11.0,-5.0,-1016.0,-3.0
3.0,-250.0,-5.0,61.0,11.0,-11.0,-2.0,-1024.0,-4.0
1.0,-246.0,-6.0,60.0,11.0,-11.0,-6.0,-1021.0,-9.0
1.0,-249.0,-3.0,59.0,10.0,-12.0,-7.0,-1020.0,-3.0
2.0,-249.0,-5.0,59.0,10.0,-12.0,-7.0,-1020.0,-10.0
2.0,-251.0,-4.0,57.0,11.0,-12.0,-6.0,-1015.0,-7.0
2.0,-247.0,-3.0,58.0,11.0,-11.0,-6.0,-1021.0,-6.0
1.0,-248.0,-7.0,58.0,12.0,-9.0,-11.0,-1021.0,-1.0
1.0,-247.0,-4.0,58.0,12.0,-10.0,-1.0,-1017.0,-3.0
10.0,-247.0,-9.0,59.0,11.0,-9.0,-5.0,-1014.0,-4.0
3.0,-251.0,-3.0,59.0,13.0,-8.0,-6.0,-1020.0,-6.0
2.0,-247.0,-3.0,59.0,13.0,-8.0,-5.0,-1021.0,-7.0
4.0,-247.0,-6.0,57.0,12.0,-9.0,-7.0,-1026.0,-7.0
2.0,-249.0,-2.0,54.0,12.0,-9.0,-7.0,-1025.0,-6.0
3.0,-250.0,-8.0,53.0,13.0,-10.0,-13.0,-1017.0,-4.0
2.0,-247.0,-7.0,54.0,11.0,-9.0,-10.0,-1020.0,-10.0
3.0,-247.0,-6.0,55.0,10.0,-11.0,-10.0,-1016.0,-5.0
3.0,-245.0,-8.0,55.0,11.0,-11.0,-10.0,-1026.0,-1.0
1.0,-247.0,-8.0,56.0,11.0,-10.0,-13.0,-1014.0,-7.0
3.0,-248.0,-4.0,57.0,10.0,-11.0,-6.0,-1026.0,-4.0
1.0,-251.0,-3.0,57.0,12.0,-11.0,-11.0,-1020.0,-7.0
2.0,-247.0,-4.0,58.0,12.0,-12.0,-12.0,-1020.0,0.0
3.0,-248.0,-1.0,58.0,11.0,-11.0,-13.0,-1021.0,-3.0
1.0,-246.0,-7.0,59.0,11.0,-10.0,-9.0,-1020.0,-7.0
2.0,-248.0,-4.0,59.0,14.0,-11.0,-11.0,-1020.0,-6.0
2.0,-249.0,-5.0,60.0,13.0,-9.0,-8.0,-1020.0,-2.0
3.0,-248.0,-10.0,60.0,14.0,-11.0,-6.0,-1018.0,-3.0
3.0,-249.0,-5.0,61.0,13.0,-11.0,-9.0,-1020.0,-7.0
3.0,-249.0,-6.0,61.0,13.0,-10.0,-7.0,-1018.0,5.0
3.0,-251.0,-3.0,62.0,14.0,-11.0,-10.0,-1025.0,-9.0
5.0,-242.0,-2.0,62.0,14.0,-10.0,-13.0,-1021.0,-2.0
3.0,-249.0,-6.0,62.0,13.0,-9.0,-5.0,-1021.0,-10.0
3.0,-251.0,-6.0,60.0,14.0,-9.0,-5.0,-1020.0,-10.0
1.0,-247.0,-5.0,61.0,13.0,-10.0,-9.0,-1021.0,-6.0
3.0,-250.0,0.0,61.0,13.0,-9.0,-8.0,-1020.0,-2.0
4.0,-247.0,0.0,61.0,12.0,-9.0,-4.0,-1017.0,-3.0
3.0,-248.0,-5.0,62.0,11.0,-9.0,-6.0,-1019.0,1.0
2.0,-247.0,-5.0,62.0,10.0,-9.0,-6.0,-1020.0,0.0
2.0,-248.0,-6.0,61.0,11.0,-7.0,-8.0,-1019.0,-2.0
2.0,-251.0,-3.0,61.0,11.0,-5.0,-8.0,-1019.0,-1.0
3.0,-247.0,-8.0,59.0,11.0,-8.0,-7.0,-1023.0,-3.0
6.0,-244.0,-12.0,58.0,11.0,-7.0,-11.0,-1019.0,-3.0
2.0,-250.0,-6.0,57.0,12.0,-8.0,-10.0,-1018.0,-7.0
2.0,-248.0,-6.0,56.0,12.0,-7.0,-6.0,-1016.0,-2.0
2.0,-248.0,-3.0,56.0,12.0,-8.0,-9.0,-1021.0,-6.0
1.0,-248.0,-3.0,56.0,12.0,-9.0,-12.0,-1019.0,-5.0
2.0,-250.0,-7.0,56.0,13.0,-10.0,-8.0,-1023.0,-12.0
1.0,-249.0,-4.0,57.0,13.0,-10.0,-9.0,-1021.0,-4.0
3.0,-250.0,-2.0,58.0,13.0,-9.0,-8.0,-1028.0,-3.0
4.0,-252.0,0.0,60.0,14.0,-11.0,-7.0,-1020.0,-6.0
5.0,-248.0,-9.0,61.0,14.0,-9.0,-9.0,-1020.0,-3.0
1.0,-252.0,-1.0,61.0,13.0,-10.0,-6.0,-1017.0,0.0
5.0,-251.0,3.0,61.0,13.0,-10.0,-11.0,-1016.0,-2.0
4.0,-251.0,-1.0,60.0,14.0,-11.0,-9.0,-1020.0,-1.0
2.0,-249.0,-6.0,61.0,15.0,-11.0,-8.0,-1021.0,-4.0
2.0,-249.0,-2.0,60.0,14.0,-11.0,-11.0,-1021.0,-4.0
1.0,-245.0,-6.0,58.0,14.0,-10.0,-8.0,-1021.0,-5.0
1.0,-250.0,-7.0,59.0,15.0,-9.0,-6.0,-1021.0,-2.0
5.0,-251.0,-1.0,59.0,15.0,-12.0,-13.0,-1017.0,-4.0
1.0,-248.0,-6.0,60.0,15.0,-10.0,-7.0,-1017.0,-4.0
3.0,-251.0,-5.0,60.0,17.0,-12.0,-12.0,-1021.0,-1.0
1.0,-248.0,-7.0,60.0,15.0,-11.0,-9.0,-1020.0,-1.0
0.0,-252.0,-6.0,61.0,15.0,-10.0,-7.0,-1017.0,-4.0
3.0,-250.0,-4.0,60.0,15.0,-11.0,-4.0,-1018.0,-2.0
3.0,-248.0,-2.0,58.0,15.0,-10.0,-8.0,-1021.0,-1.0
2.0,-245.0,-6.0,59.0,14.0,-11.0,-12.0,-1019.0,-6.0
0.0,-248.0,-4.0,58.0,14.0,-11.0,-8.0,-1019.0,-8.0
3.0,-248.0,-4.0,57.0,13.0,-11.0,-9.0,-1018.0,-4.0
0.0,-247.0,-4.0,54.0,14.0,-11.0,-5.0,-1020.0,-9.0
3.0,-248.0,-5.0,54.0,14.0,-9.0,-7.0,-1020.0,-10.0
2.0,-251.0,-1.0,55.0,13.0,-9.0,-11.0,-1020.0,-2.0
2.0,-249.0,-7.0,54.0,13.0,-9.0,-8.0,-1016.0,-2.0
0.0,-249.0,-7.0,53.0,14.0,-10.0,-16.0,-1020.0,-5.0
1.0,-250.0,-4.0,52.0,14.0,-10.0,-3.0,-1024.0,4.0
3.0,-251.0,-5.0,51.0,14.0,-11.0,-14.0,-1017.0,3.0
2.0,-250.0,-3.0,50.0,12.0,-11.0,-11.0,-1021.0,3.0
3.0,-248.0,-3.0,50.0,14.0,-11.0,-11.0,-1022.0,-6.0
3.0,-252.0,-6.0,50.0,15.0,-12.0,-6.0,-1024.0,3.0
2.0,-251.0,-3.0,52.0,16.0,-13.0,-8.0,-1025.0,3.0
1.0,-248.0,-5.0,58.0,16.0,-13.0,-4.0,-1018.0,-4.0
1.0,-249.0,-11.0,61.0,17.0,-12.0,-8.0,-1020.0,-5.0
4.0,-248.0,-6.0,64.0,18.0,-14.0,-6.0,-1022.0,-7.0
1.0,-246.0,-5.0,66.0,17.0,-11.0,-2.0,-1017.0,-4.0
1.0,-247.0,-11.0,68.0,16.0,-11.0,-6.0,-1018.0,-13.0
3.0,-246.0,-3.0,68.0,14.0,-12.0,-5.0,-1020.0,-16.0
5.0,-248.0,-3.0,67.0,14.0,-11.0,-6.0,-1019.0,-3.0
2.0,-250.0,-6.0,67.0,10.0,-10.0,-5.0,-1019.0,-3.0
3.0,-248.0,-2.0,66.0,9.0,-10.0,-3.0,-1020.0,-2.0
4.0,-249.0,-5.0,65.0,7.0,-10.0,-6.0,-1024.0,1.0
0.0,-246.0,-4.0,62.0,7.0,-8.0,-3.0,-1020.0,0.0
3.0,-249.0,-4.0,61.0,7.0,-8.0,-12.0,-1022.0,1.0
3.0,-248.0,-1.0,61.0,7.0,-9.0,-14.0,-1025.0,4.0
3.0,-250.0,-2.0,61.0,9.0,-10.0,-13.0,-1018.0,-1.0
1.0,-248.0,-2.0,62.0,10.0,-8.0,-11.0,-1021.0,6.0
1.0,-250.0,-3.0,64.0,11.0,-9.0,-5.0,-1021.0,8.0
1.0,-247.0,-1.0,64.0,12.0,-9.0,-12.0,-1015.0,-1.0
2.0,-244.0,-1.0,63.0,13.0,-9.0,-7.0,-1021.0,6.0
0.0,-247.0,-6.0,61.0,14.0,-9.0,-9.0,-1017.0,0.0
5.0,-248.0,-6.0,59.0,15.0,-8.0,-5.0,-1020.0,0.0
2.0,-250.0,-5.0,57.0,17.0,-9.0,-13.0,-1016.0,1.0
3.0,-249.0,-5.0,56.0,16.0,-11.0,-3.0,-1020.0,0.0
3.0,-246.0,-6.0,54.0,16.0,-10.0,-7.0,-1021.0,-2.0
4.0,-244.0,-4.0,52.0,15.0,-11.0,-11.0,-1024.0,1.0
3.0,-253.0,1.0,53.0,13.0,-10.0,-8.0,-1023.0,-4.0
2.0,-249.0,-6.0,53.0,13.0,-11.0,-6.0,-1021.0,1.0
2.0,-249.0,-6.0,52.0,12.0,-11.0,-8.0,-1017.0,-2.0
2.0,-251.0,-3.0,54.0,12.0,-12.0,-9.0,-1022.0,0.0
2.0,-250.0,-7.0,55.0,12.0,-12.0,-13.0,-1021.0,-1.0
0.0,-248.0,-3.0,55.0,12.0,-12.0,-9.0,-1021.0,3.0
3.0,-250.0,-5.0,57.0,13.0,-10.0,-8.0,-1014.0,-2.0
2.0,-247.0,-4.0,58.0,13.0,-9.0,-8.0,-1019.0,-3.0
3.0,-250.0,-4.0,59.0,14.0,-10.0,-8.0,-1019.0,-8.0
0.0,-247.0,-5.0,59.0,14.0,-9.0,-10.0,-1011.0,-2.0
1.0,-251.0,-4.0,59.0,14.0,-10.0,-14.0,-1021.0,-8.0
6.0,-252.0,-2.0,58.0,16.0,-10.0,-8.0,-1019.0,-5.0
3.0,-250.0,-5.0,57.0,15.0,-10.0,-5.0,-1018.0,0.0
2.0,-248.0,-2.0,57.0,16.0,-11.0,-10.0,-1018.0,0.0
3.0,-252.0,-5.0,56.0,17.0,-11.0,-5.0,-1018.0,-2.0
1.0,-250.0,-6.0,56.0,17.0,-11.0,-7.0,-1020.0,-7.0
4.0,-251.0,-5.0,57.0,16.0,-11.0,-11.0,-1019.0,-4.0
3.0,-249.0,-7.0,58.0,17.0,-11.0,-8.0,-1020.0,-2.0
3.0,-250.0,-1.0,59.0,16.0,-12.0,-6.0,-1017.0,-3.0
0.0,-248.0,-2.0,58.0,15.0,-12.0,-8.0,-1015.0,-2.0
2.0,-245.0,-5.0,57.0,15.0,-10.0,-13.0,-1019.0,-2.0
3.0,-247.0,-4.0,57.0,13.0,-11.0,-13.0,-1017.0,-10.0
1.0,-252.0,-6.0,56.0,15.0,-13.0,-8.0,-1017.0,5.0
9.0,-245.0,-9.0,55.0,14.0,-11.0,-8.0,-1020.0,1.0
2.0,-248.0,-4.0,54.0,13.0,-11.0,-9.0,-1017.0,1.0
3.0,-250.0,-6.0,54.0,13.0,-11.0,-13.0,-1021.0,1.0
4.0,-247.0,0.0,54.0,12.0,-11.0,-8.0,-1020.0,6.0
3.0,-248.0,-4.0,54.0,13.0,-11.0,-9.0,-1020.0,3.0
1.0,-250.0,-2.0,54.0,13.0,-10.0,-11.0,-1022.0,1.0
4.0,-248.0,0.0,53.0,14.0,-11.0,-11.0,-1022.0,-1.0
2.0,-249.0,-7.0,52.0,14.0,-12.0,-12.0,-1021.0,1.0
2.0,-248.0,-6.0,52.0,14.0,-11.0,-9.0,-1021.0,-4.0
2.0,-251.0,0.0,50.0,13.0,-9.0,-7.0,-1020.0,-3.0
3.0,-248.0,-4.0,50.0,14.0,-10.0,-10.0,-1015.0,-4.0
3.0,-247.0,-3.0,48.0,13.0,-10.0,-11.0,-1020.0,-3.0
3.0,-249.0,-6.0,49.0,12.0,-9.0,-8.0,-1021.0,-2.0
3.0,-248.0,0.0,48.0,11.0,-10.0,-5.0,-1020.0,-1.0
3.0,-251.0,-7.0,50.0,9.0,-10.0,-7.0,-1021.0,1.0
3.0,-252.0,-5.0,51.0,9.0,-9.0,-7.0,-1023.0,-2.0
3.0,-249.0,-1.0,50.0,9.0,-10.0,-8.0,-1021.0,-4.0
2.0,-247.0,-7.0,52.0,10.0,-11.0,-11.0,-1021.0,0.0
0.0,-248.0,-5.0,52.0,10.0,-12.0,-12.0,-1022.0,1.0
2.0,-250.0,-2.0,54.0,11.0,-12.0,-10.0,-1025.0,1.0
3.0,-250.0,-1.0,56.0,11.0,-10.0,-8.0,-1021.0,1.0
1.0,-245.0,0.0,58.0,12.0,-11.0,-10.0,-1022.0,1.0
-1.0,-253.0,1.0,58.0,12.0,-12.0,-6.0,-1019.0,0.0
1.0,-250.0,-5.0,58.0,11.0,-11.0,-7.0,-1022.0,1.0
2.0,-248.0,-3.0,58.0,12.0,-11.0,-12.0,-1022.0,-4.0
1.0,-249.0,-1.0,56.0,13.0,-11.0,-10.0,-1019.0,2.0
1.0,-250.0,-4.0,57.0,14.0,-12.0,-8.0,-1020.0,-1.0
1.0,-250.0,-3.0,56.0,14.0,-10.0,-8.0,-1017.0,0.0
3.0,-249.0,-5.0,55.0,16.0,-11.0,-12.0,-1023.0,-2.0
2.0,-249.0,-6.0,54.0,15.0,-10.0,-3.0,-1018.0,-1.0
3.0,-247.0,-6.0,54.0,14.0,-10.0,-12.0,-1022.0,1.0
0.0,-242.0,-4.0,54.0,14.0,-10.0,-11.0,-1019.0,0.0
3.0,-249.0,-4.0,54.0,13.0,-9.0,-10.0,-1025.0,0.0
0.0,-246.0,-3.0,56.0,13.0,-9.0,-9.0,-1018.0,-3.0
2.0,-247.0,-5.0,56.0,12.0,-9.0,-13.0,-1019.0,-6.0
3.0,-248.0,-3.0,56.0,11.0,-11.0,-5.0,-1019.0,-1.0
1.0,-247.0,-5.0,56.0,10.0,-10.0,-6.0,-1016.0,-3.0
0.0,-249.0,-5.0,55.0,13.0,-10.0,-10.0,-1018.0,-2.0
4.0,-250.0,-2.0,54.0,12.0,-10.0,-9.0,-1015.0,-4.0
3.0,-250.0,-1.0,55.0,13.0,-9.0,-4.0,-1017.0,0.0
1.0,-250.0,-5.0,53.0,14.0,-11.0,-7.0,-1024.0,-1.0
4.0,-250.0,-2.0,52.0,12.0,-10.0,-8.0,-1027.0,2.0
-1.0,-247.0,-3.0,53.0,12.0,-11.0,-6.0,-1017.0,0.0
2.0,-249.0,-4.0,53.0,14.0,-11.0,-9.0,-1020.0,1.0
4.0,-252.0,-4.0,52.0,14.0,-10.0,-9.0,-1021.0,4.0
4.0,-251.0,-6.0,51.0,13.0,-10.0,-5.0,-1022.0,5.0
2.0,-248.0,-7.0,52.0,14.0,-10.0,-1.0,-1022.0,6.0
3.0,-249.0,-1.0,53.0,13.0,-9.0,-7.0,-1022.0,3.0
2.0,-246.0,-3.0,54.0,11.0,-9.0,-7.0,-1016.0,4.0
3.0,-249.0,-3.0,55.0,12.0,-10.0,-7.0,-1021.0,2.0
2.0,-248.0,-5.0,55.0,12.0,-12.0,-4.0,-1021.0,2.0
1.0,-251.0,-1.0,55.0,11.0,-12.0,-8.0,-1021.0,-1.0
1.0,-248.0,-1.0,56.0,11.0,-12.0,-12.0,-1019.0,3.0
4.0,-248.0,-8.0,55.0,11.0,-12.0,-9.0,-1019.0,0.0
2.0,-250.0,-4.0,57.0,11.0,-11.0,-5.0,-1019.0,-2.0
3.0,-249.0,-2.0,58.0,13.0,-12.0,-6.0,-1016.0,-4.0
0.0,-247.0,-4.0,58.0,13.0,-11.0,-6.0,-1016.0,2.0
1.0,-250.0,-6.0,58.0,15.0,-10.0,-14.0,-1015.0,0.0
0.0,-248.0,-1.0,55.0,15.0,-11.0,-10.0,-1021.0,-3.0
2.0,-250.0,0.0,55.0,16.0,-10.0,-9.0,-1020.0,-1.0
3.0,-250.0,-2.0,54.0,14.0,-10.0,-13.0,-1020.0,4.0
2.0,-249.0,-6.0,54.0,15.0,-10.0,-13.0,-1020.0,0.0
0.0,-247.0,-5.0,55.0,14.0,-12.0,-9.0,-1024.0,9.0
3.0,-246.0,-9.0,56.0,15.0,-10.0,-7.0,-1022.0,1.0
1.0,-250.0,1.0,56.0,16.0,-10.0,-9.0,-1019.0,-3.0
2.0,-250.0,-3.0,56.0,15.0,-11.0,-8.0,-1017.0,-4.0
1.0,-248.0,-4.0,56.0,15.0,-11.0,-6.0,-1019.0,0.0
3.0,-248.0,-2.0,56.0,14.0,-10.0,-10.0,-1017.0,-2.0
3.0,-248.0,-5.0,55.0,13.0,-9.0,-2.0,-1016.0,2.0
2.0,-248.0,0.0,55.0,14.0,-9.0,-9.0,-1015.0,-3.0
2.0,-249.0,-3.0,53.0,14.0,-10.0,-12.0,-1017.0,-2.0
2.0,-250.0,-3.0,52.0,14.0,-11.0,-7.0,-1016.0,0.0
1.0,-247.0,-5.0,51.0,13.0,-10.0,-7.0,-1019.0,2.0
2.0,-247.0,-3.0,49.0,14.0,-11.0,-11.0,-1021.0,4.0
2.0,-250.0,-3.0,48.0,14.0,-11.0,-8.0,-1019.0,1.0
5.0,-246.0,-3.0,47.0,16.0,-11.0,-16.0,-1027.0,0.0
4.0,-249.0,-2.0,46.0,15.0,-11.0,-11.0,-1020.0,5.0
2.0,-250.0,-3.0,46.0,15.0,-10.0,-8.0,-1024.0,0.0
1.0,-249.0,-1.0,48.0,15.0,-11.0,-10.0,-1025.0,2.0
1.0,-250.0,-1.0,52.0,15.0,-11.0,-9.0,-1020.0,0.0
1.0,-248.0,-7.0,52.0,16.0,-12.0,-4.0,-1026.0,-1.0
2.0,-248.0,0.0,56.0,16.0,-11.0,-8.0,-1022.0,2.0
2.0,-249.0,-6.0,58.0,16.0,-12.0,-13.0,-1021.0,-4.0
3.0,-250.0,-3.0,61.0,16.0,-11.0,-8.0,-1019.0,-8.0
3.0,-245.0,-8.0,61.0,14.0,-10.0,-2.0,-1020.0,-5.0
1.0,-245.0,-5.0,61.0,12.0,-11.0,-7.0,-1013.0,-7.0
1.0,-250.0,-7.0,59.0,10.0,-11.0,-8.0,-1019.0,-4.0
4.0,-250.0,-6.0,59.0,8.0,-10.0,-8.0,-1023.0,-3.0
2.0,-248.0,-4.0,59.0,7.0,-11.0,-9.0,-1017.0,2.0
3.0,-247.0,-3.0,59.0,6.0,-11.0,-12.0,-1020.0,0.0
5.0,-249.0,-4.0,59.0,6.0,-9.0,-11.0,-1016.0,-1.0
2.0,-247.0,-2.0,60.0,6.0,-8.0,-8.0,-1022.0,1.0
4.0,-248.0,0.0,60.0,7.0,-8.0,-13.0,-1016.0,3.0
2.0,-246.0,0.0,61.0,8.0,-8.0,-9.0,-1018.0,5.0
1.0,-249.0,-5.0,61.0,10.0,-10.0,-10.0,-1015.0,9.0
0.0,-250.0,-4.0,61.0,13.0,-10.0,-9.0,-1018.0,10.0
-4.0,-248.0,-1.0,59.0,16.0,-10.0,-13.0,-1014.0,3.0
1.0,-248.0,-2.0,58.0,17.0,-9.0,-9.0,-1019.0,8.0
3.0,-249.0,-1.0,56.0,17.0,-10.0,-11.0,-1015.0,7.0
3.0,-246.0,0.0,56.0,18.0,-9.0,-12.0,-1019.0,9.0
0.0,-247.0,-2.0,54.0,17.0,-9.0,-6.0,-1019.0,5.0
1.0,-251.0,-7.0,52.0,16.0,-10.0,-9.0,-1018.0,7.0
3.0,-252.0,-1.0,51.0,16.0,-10.0,-6.0,-1023.0,1.0
2.0,-249.0,-1.0,52.0,14.0,-11.0,-9.0,-1021.0,2.0
2.0,-249.0,-2.0,52.0,13.0,-11.0,-8.0,-1021.0,0.0
3.0,-247.0,-5.0,52.0,12.0,-11.0,-3.0,-1025.0,-3.0
4.0,-245.0,0.0,54.0,12.0,-10.0,-9.0,-1021.0,-4.0
0.0,-248.0,-11.0,56.0,10.0,-10.0,-9.0,-1021.0,0.0
2.0,-251.0,-7.0,58.0,11.0,-9.0,-10.0,-1020.0,-2.0
3.0,-250.0,-4.0,58.0,10.0,-9.0,-7.0,-1026.0,-2.0
1.0,-245.0,-5.0,59.0,11.0,-10.0,-11.0,-1021.0,-3.0
3.0,-249.0,-1.0,59.0,12.0,-10.0,-10.0,-1014.0,-5.0
2.0,-246.0,-5.0,60.0,13.0,-10.0,-10.0,-1025.0,-1.0
4.0,-248.0,-1.0,60.0,14.0,-9.0,-13.0,-1018.0,-5.0
2.0,-250.0,-1.0,59.0,14.0,-8.0,-14.0,-1019.0,2.0
1.0,-243.0,-5.0,57.0,14.0,-9.0,-8.0,-1016.0,2.0
-1.0,-248.0,0.0,55.0,15.0,-8.0,-9.0,-1022.0,3.0
1.0,-246.0,-7.0,56.0,17.0,-8.0,-4.0,-1013.0,2.0
1.0,-247.0,-4.0,54.0,17.0,-9.0,-8.0,-1016.0,-1.0
2.0,-248.0,-4.0,54.0,16.0,-10.0,-6.0,-1018.0,1.0
2.0,-247.0,-3.0,54.0,16.0,-11.0,-6.0,-1017.0,-2.0
1.0,-248.0,-3.0,53.0,15.0,-9.0,-7.0,-1021.0,-4.0
0.0,-246.0,-9.0,54.0,15.0,-9.0,-9.0,-1020.0,2.0
2.0,-251.0,-8.0,52.0,13.0,-11.0,-6.0,-1017.0,1.0
3.0,-247.0,-6.0,52.0,13.0,-11.0,-13.0,-1018.0,-2.0
1.0,-248.0,-2.0,53.0,12.0,-11.0,-9.0,-1020.0,0.0
2.0,-249.0,-5.0,52.0,13.0,-11.0,-10.0,-1020.0,3.0
2.0,-248.0,-3.0,51.0,12.0,-11.0,-17.0,-1023.0,-2.0
2.0,-250.0,2.0,50.0,11.0,-12.0,-12.0,-1023.0,9.0
1.0,-249.0,-1.0,50.0,11.0,-10.0,-10.0,-1022.0,0.0
1.0,-248.0,-1.0,51.0,12.0,-11.0,-11.0,-1021.0,0.0
3.0,-247.0,-1.0,52.0,13.0,-11.0,-7.0,-1021.0,-1.0
3.0,-249.0,-3.0,53.0,13.0,-10.0,-11.0,-1022.0,-1.0
2.0,-246.0,-4.0,54.0,13.0,-10.0,-9.0,-1020.0,2.0
2.0,-249.0,-3.0,54.0,14.0,-10.0,-6.0,-1016.0,0.0
0.0,-248.0,-5.0,50.0,14.0,-11.0,-10.0,-1015.0,3.0
2.0,-248.0,-8.0,50.0,13.0,-10.0,-10.0,-1018.0,1.0
4.0,-248.0,-2.0,49.0,14.0,-9.0,-11.0,-1015.0,-1.0
4.0,-249.0,-4.0,46.0,13.0,-9.0,-7.0,-1022.0,1.0
3.0,-252.0,-1.0,45.0,12.0,-9.0,-8.0,-1024.0,2.0
6.0,-250.0,-4.0,46.0,12.0,-9.0,-9.0,-1022.0,4.0
3.0,-251.0,1.0,47.0,11.0,-8.0,-10.0,-1026.0,10.0
2.0,-250.0,-3.0,49.0,11.0,-10.0,-9.0,-1022.0,1.0
1.0,-247.0,-1.0,51.0,12.0,-12.0,-14.0,-1019.0,5.0
3.0,-251.0,-2.0,54.0,13.0,-14.0,-9.0,-1018.0,0.0
3.0,-247.0,0.0,55.0,12.0,-11.0,-6.0,-1024.0,-2.0
1.0,-248.0,-3.0,55.0,13.0,-12.0,-12.0,-1021.0,4.0
3.0,-250.0,0.0,55.0,14.0,-12.0,-13.0,-1020.0,9.0
3.0,-248.0,0.0,57.0,13.0,-12.0,-11.0,-1014.0,7.0
1.0,-248.0,0.0,57.0,13.0,-11.0,-10.0,-1018.0,3.0
1.0,-251.0,-4.0,57.0,14.0,-12.0,-11.0,-1021.0,2.0
1.0,-248.0,0.0,56.0,13.0,-13.0,-9.0,-1022.0,2.0
3.0,-251.0,0.0,56.0,13.0,-11.0,-7.0,-1022.0,3.0
3.0,-249.0,-5.0,55.0,13.0,-10.0,-11.0,-1021.0,3.0
0.0,-249.0,-1.0,53.0,12.0,-11.0,-9.0,-1023.0,-1.0
0.0,-249.0,0.0,52.0,14.0,-12.0,-6.0,-1026.0,1.0
2.0,-248.0,-4.0,51.0,13.0,-10.0,-9.0,-1022.0,3.0
2.0,-247.0,-3.0,50.0,13.0,-9.0,-11.0,-1019.0,2.0
1.0,-248.0,-3.0,51.0,13.0,-10.0,-12.0,-1023.0,-1.0
2.0,-251.0,-3.0,51.0,12.0,-10.0,-9.0,-1021.0,5.0
1.0,-251.0,7.0,52.0,13.0,-10.0,-14.0,-1017.0,3.0
2.0,-246.0,-3.0,52.0,12.0,-10.0,-6.0,-1019.0,1.0
3.0,-249.0,-1.0,50.0,12.0,-10.0,-9.0,-1013.0,-1.0
1.0,-249.0,-5.0,52.0,12.0,-9.0,-9.0,-1018.0,2.0
1.0,-247.0,0.0,52.0,11.0,-11.0,-6.0,-1020.0,0.0
0.0,-250.0,-3.0,52.0,11.0,-12.0,-8.0,-1021.0,1.0
5.0,-250.0,0.0,53.0,12.0,-11.0,-10.0,-1018.0,2.0
1.0,-249.0,0.0,52.0,11.0,-11.0,-6.0,-1014.0,6.0
2.0,-249.0,-2.0,52.0,13.0,-12.0,-6.0,-1022.0,2.0
1.0,-248.0,-3.0,51.0,12.0,-13.0,-6.0,-1023.0,3.0
3.0,-247.0,-4.0,51.0,13.0,-13.0,-8.0,-1017.0,0.0
3.0,-252.0,-3.0,51.0,14.0,-13.0,-4.0,-1020.0,2.0
1.0,-250.0,-1.0,50.0,12.0,-11.0,-9.0,-1017.0,1.0
3.0,-249.0,-5.0,48.0,14.0,-11.0,-6.0,-1022.0,3.0
2.0,-245.0,-2.0,49.0,14.0,-12.0,-4.0,-1021.0,-1.0
2.0,-248.0,-4.0,50.0,14.0,-10.0,-10.0,-1021.0,7.0
1.0,-249.0,-2.0,49.0,14.0,-11.0,-8.0,-1019.0,5.0
2.0,-248.0,0.0,49.0,13.0,-12.0,-9.0,-1022.0,7.0
2.0,-250.0,-1.0,51.0,12.0,-12.0,-7.0,-1021.0,4.0
2.0,-248.0,-1.0,52.0,11.0,-11.0,-11.0,-1026.0,2.0
3.0,-249.0,-2.0,52.0,11.0,-11.0,-10.0,-1019.0,1.0
3.0,-251.0,-3.0,54.0,12.0,-11.0,-12.0,-1017.0,5.0
0.0,-247.0,-2.0,53.0,14.0,-11.0,-7.0,-1023.0,6.0
2.0,-247.0,-2.0,53.0,13.0,-10.0,-8.0,-1021.0,4.0
2.0,-247.0,-3.0,53.0,12.0,-12.0,-11.0,-1024.0,-3.0
2.0,-249.0,0.0,51.0,13.0,-11.0,-9.0,-1019.0,3.0
0.0,-249.0,0.0,50.0,13.0,-9.0,-5.0,-1016.0,7.0
0.0,-249.0,-2.0,50.0,14.0,-10.0,-6.0,-1017.0,-1.0
1.0,-246.0,-8.0,48.0,12.0,-8.0,-10.0,-1024.0,2.0
2.0,-249.0,1.0,45.0,14.0,-10.0,-11.0,-1020.0,4.0
3.0,-250.0,-4.0,45.0,13.0,-11.0,-6.0,-1020.0,0.0
9.0,-252.0,-5.0,47.0,14.0,-10.0,-12.0,-1030.0,8.0
-3.0,-247.0,-5.0,47.0,14.0,-11.0,-10.0,-1022.0,-1.0
2.0,-250.0,-1.0,49.0,14.0,-11.0,-12.0,-1025.0,0.0
0.0,-248.0,-1.0,50.0,15.0,-10.0,-11.0,-1020.0,5.0
3.0,-249.0,-2.0,53.0,16.0,-11.0,-10.0,-1025.0,-1.0
1.0,-248.0,-5.0,54.0,16.0,-11.0,-9.0,-1015.0,1.0
2.0,-247.0,-5.0,55.0,16.0,-13.0,-8.0,-1020.0,5.0
3.0,-249.0,-2.0,55.0,15.0,-13.0,-3.0,-1019.0,0.0
5.0,-249.0,-5.0,53.0,15.0,-15.0,-7.0,-1022.0,1.0
3.0,-248.0,-3.0,51.0,14.0,-14.0,-5.0,-1017.0,1.0
4.0,-249.0,-9.0,47.0,13.0,-15.0,-5.0,-1013.0,5.0
5.0,-247.0,0.0,45.0,14.0,-15.0,-5.0,-1018.0,8.0
2.0,-245.0,-5.0,42.0,13.0,-13.0,-7.0,-1021.0,-1.0
1.0,-249.0,-3.0,41.0,11.0,-14.0,-11.0,-1018.0,5.0
2.0,-248.0,-6.0,40.0,11.0,-12.0,-12.0,-1024.0,-2.0
2.0,-246.0,-1.0,40.0,12.0,-12.0,-11.0,-1022.0,0.0
2.0,-248.0,-3.0,39.0,12.0,-12.0,-12.0,-1020.0,2.0
5.0,-250.0,-2.0,38.0,14.0,-12.0,-12.0,-1021.0,-2.0
1.0,-248.0,-2.0,40.0,14.0,-12.0,-13.0,-1024.0,7.0
1.0,-252.0,-2.0,41.0,13.0,-12.0,-12.0,-1019.0,5.0
2.0,-248.0,-3.0,43.0,14.0,-15.0,-8.0,-1025.0,-1.0
1.0,-250.0,-1.0,47.0,14.0,-14.0,-9.0,-1030.0,2.0
5.0,-250.0,-2.0,50.0,14.0,-15.0,-5.0,-1020.0,3.0
-2.0,-251.0,-4.0,53.0,14.0,-15.0,-8.0,-1029.0,0.0
1.0,-248.0,-6.0,53.0,14.0,-14.0,-5.0,-1017.0,-7.0
4.0,-247.0,-6.0,55.0,15.0,-15.0,-9.0,-1024.0,-4.0
4.0,-249.0,-4.0,55.0,13.0,-15.0,-5.0,-1017.0,1.0
3.0,-248.0,-4.0,54.0,12.0,-12.0,-5.0,-1013.0,-10.0
3.0,-248.0,-8.0,55.0,10.0,-12.0,-4.0,-1014.0,-4.0
3.0,-244.0,-6.0,53.0,8.0,-10.0,-9.0,-1017.0,-5.0
2.0,-245.0,-8.0,53.0,6.0,-10.0,-7.0,-1017.0,-3.0
2.0,-247.0,0.0,51.0,5.0,-10.0,-4.0,-1016.0,2.0
1.0,-249.0,-2.0,49.0,4.0,-9.0,-14.0,-1018.0,-2.0
1.0,-250.0,-5.0,47.0,4.0,-10.0,-14.0,-1016.0,1.0
2.0,-249.0,-2.0,46.0,6.0,-9.0,-13.0,-1018.0,5.0
1.0,-245.0,-1.0,45.0,7.0,-11.0,-14.0,-1016.0,2.0
0.0,-248.0,-1.0,46.0,9.0,-12.0,-15.0,-1015.0,6.0
0.0,-248.0,0.0,45.0,11.0,-12.0,-10.0,-1015.0,8.0
1.0,-248.0,0.0,46.0,13.0,-12.0,-11.0,-1019.0,5.0
2.0,-248.0,0.0,46.0,14.0,-12.0,-8.0,-1019.0,9.0
3.0,-247.0,0.0,47.0,16.0,-11.0,-12.0,-1023.0,5.0
1.0,-248.0,-3.0,47.0,17.0,-11.0,-8.0,-1024.0,4.0
2.0,-249.0,-2.0,46.0,18.0,-10.0,-8.0,-1025.0,4.0
0.0,-243.0,-6.0,47.0,17.0,-11.0,-6.0,-1019.0,-1.0
1.0,-248.0,-2.0,48.0,15.0,-11.0,-11.0,-1022.0,3.0
3.0,-248.0,-3.0,48.0,16.0,-12.0,-4.0,-1022.0,3.0
5.0,-251.0,0.0,49.0,14.0,-13.0,-8.0,-1021.0,3.0
2.0,-245.0,-3.0,50.0,12.0,-14.0,-8.0,-1021.0,1.0
4.0,-248.0,-5.0,49.0,12.0,-12.0,-8.0,-1016.0,5.0
2.0,-250.0,-7.0,49.0,10.0,-13.0,-7.0,-1020.0,-4.0
4.0,-252.0,0.0,47.0,10.0,-14.0,-7.0,-1016.0,-6.0
4.0,-247.0,-3.0,48.0,9.0,-13.0,-7.0,-1011.0,-5.0
2.0,-247.0,-6.0,49.0,9.0,-11.0,-8.0,-1020.0,-4.0
6.0,-252.0,-3.0,48.0,9.0,-12.0,-11.0,-1017.0,0.0
3.0,-248.0,-6.0,48.0,10.0,-11.0,-11.0,-1017.0,-4.0
2.0,-248.0,-11.0,49.0,10.0,-12.0,-3.0,-1017.0,-2.0
3.0,-249.0,0.0,49.0,11.0,-11.0,-9.0,-1010.0,-1.0
1.0,-248.0,-2.0,48.0,11.0,-12.0,-10.0,-1013.0,-1.0
3.0,-248.0,-1.0,46.0,11.0,-11.0,-9.0,-1017.0,-6.0
4.0,-246.0,-3.0,44.0,12.0,-10.0,-10.0,-1013.0,0.0
3.0,-247.0,-1.0,43.0,12.0,-12.0,-11.0,-1022.0,-4.0
2.0,-247.0,-3.0,42.0,12.0,-10.0,-9.0,-1020.0,0.0
2.0,-249.0,-2.0,40.0,13.0,-12.0,-4.0,-1013.0,0.0
4.0,-252.0,-5.0,39.0,12.0,-12.0,-5.0,-1020.0,-2.0
1.0,-249.0,-5.0,36.0,12.0,-13.0,-5.0,-1013.0,0.0
8.0,-249.0,-10.0,34.0,11.0,-13.0,-5.0,-1016.0,1.0
2.0,-249.0,-1.0,34.0,11.0,-12.0,-9.0,-1020.0,3.0
3.0,-249.0,-2.0,34.0,10.0,-12.0,-5.0,-1022.0,7.0
3.0,-245.0,-2.0,35.0,9.0,-11.0,-9.0,-1019.0,4.0
1.0,-250.0,-1.0,34.0,9.0,-12.0,-12.0,-1017.0,0.0
2.0,-247.0,-3.0,35.0,8.0,-11.0,-6.0,-1020.0,2.0
3.0,-250.0,0.0,35.0,9.0,-13.0,-10.0,-1022.0,1.0
2.0,-248.0,-2.0,36.0,10.0,-12.0,-8.0,-1019.0,-1.0
2.0,-248.0,-3.0,35.0,12.0,-12.0,-9.0,-1018.0,1.0
3.0,-249.0,-2.0,36.0,12.0,-11.0,-3.0,-1017.0,-2.0
3.0,-251.0,-2.0,35.0,13.0,-10.0,-5.0,-1020.0,0.0
0.0,-246.0,-3.0,32.0,13.0,-11.0,-6.0,-1017.0,0.0
5.0,-248.0,-2.0,31.0,13.0,-11.0,-4.0,-1017.0,-1.0
3.0,-251.0,-3.0,29.0,13.0,-9.0,-8.0,-1021.0,-2.0
5.0,-249.0,-6.0,28.0,13.0,-8.0,-7.0,-1019.0,0.0
4.0,-247.0,-6.0,28.0,13.0,-10.0,-5.0,-1019.0,-5.0
3.0,-246.0,-2.0,28.0,11.0,-10.0,-9.0,-1019.0,-6.0
2.0,-249.0,-6.0,29.0,11.0,-11.0,-9.0,-1026.0,4.0
2.0,-246.0,-5.0,29.0,11.0,-11.0,-12.0,-1021.0,1.0
1.0,-249.0,-5.0,30.0,10.0,-11.0,-8.0,-1022.0,-2.0
3.0,-251.0,-6.0,32.0,10.0,-10.0,-13.0,-1022.0,-1.0
4.0,-249.0,-4.0,35.0,10.0,-11.0,-10.0,-1022.0,-1.0
-1.0,-251.0,-4.0,37.0,9.0,-10.0,-8.0,-1026.0,-6.0
0.0,-247.0,-4.0,40.0,9.0,-11.0,-11.0,-1021.0,-2.0
2.0,-246.0,-2.0,42.0,11.0,-10.0,-9.0,-1024.0,-1.0
3.0,-248.0,-3.0,45.0,10.0,-12.0,-7.0,-1031.0,-8.0
2.0,-250.0,-2.0,47.0,9.0,-10.0,-3.0,-1019.0,-1.0
1.0,-247.0,-3.0,46.0,11.0,-10.0,-9.0,-1020.0,0.0
4.0,-249.0,-4.0,46.0,12.0,-8.0,-9.0,-1021.0,-5.0
2.0,-251.0,-3.0,44.0,10.0,-10.0,-5.0,-1022.0,0.0
1.0,-247.0,-5.0,43.0,13.0,-10.0,-9.0,-1024.0,-1.0
6.0,-250.0,-8.0,44.0,11.0,-10.0,-10.0,-1022.0,1.0
9.0,-253.0,-10.0,42.0,11.0,-9.0,-7.0,-1021.0,-2.0
1.0,-248.0,-1.0,42.0,10.0,-11.0,-2.0,-1019.0,5.0
1.0,-247.0,-2.0,40.0,11.0,-10.0,-6.0,-1017.0,7.0
4.0,-249.0,-1.0,38.0,9.0,-11.0,-7.0,-1015.0,-3.0
4.0,-246.0,-4.0,37.0,8.0,-12.0,-8.0,-1014.0,1.0
2.0,-249.0,-6.0,36.0,8.0,-11.0,-6.0,-1009.0,1.0
1.0,-250.0,-3.0,35.0,7.0,-12.0,-12.0,-1019.0,-2.0
5.0,-249.0,-4.0,34.0,7.0,-12.0,-6.0,-1019.0,3.0
1.0,-248.0,-3.0,36.0,6.0,-12.0,-7.0,-1024.0,-2.0
2.0,-246.0,-3.0,37.0,7.0,-12.0,-10.0,-1018.0,-2.0
3.0,-247.0,-2.0,36.0,7.0,-12.0,-7.0,-1019.0,-5.0
0.0,-249.0,-8.0,34.0,8.0,-11.0,-3.0,-1019.0,-1.0
2.0,-250.0,-7.0,34.0,7.0,-12.0,-10.0,-1021.0,-5.0
3.0,-248.0,-6.0,33.0,8.0,-13.0,-4.0,-1027.0,1.0
3.0,-249.0,-2.0,33.0,8.0,-14.0,-5.0,-1021.0,-2.0
2.0,-252.0,-3.0,34.0,10.0,-15.0,-9.0,-1021.0,-1.0
4.0,-248.0,-4.0,34.0,9.0,-15.0,-6.0,-1019.0,-7.0
1.0,-248.0,-6.0,34.0,10.0,-14.0,-13.0,-1021.0,-2.0
-4.0,-249.0,-2.0,34.0,11.0,-12.0,-13.0,-1021.0,-7.0
3.0,-248.0,-1.0,36.0,13.0,-14.0,-5.0,-1022.0,-8.0
2.0,-251.0,-1.0,37.0,12.0,-15.0,-12.0,-1017.0,-2.0
2.0,-246.0,0.0,38.0,12.0,-15.0,-14.0,-1023.0,-1.0
5.0,-249.0,-3.0,36.0,12.0,-14.0,-10.0,-1018.0,-7.0
3.0,-251.0,-2.0,36.0,14.0,-14.0,-11.0,-1015.0,-3.0
1.0,-251.0,-3.0,34.0,13.0,-14.0,-8.0,-1020.0,-3.0
0.0,-245.0,-1.0,35.0,13.0,-13.0,-15.0,-1018.0,-11.0
1.0,-247.0,-5.0,35.0,13.0,-12.0,-8.0,-1019.0,-7.0
3.0,-249.0,-6.0,36.0,13.0,-12.0,-9.0,-1023.0,-6.0
9.0,-250.0,-1.0,36.0,11.0,-12.0,-7.0,-1019.0,-4.0
1.0,-248.0,-7.0,38.0,11.0,-12.0,-10.0,-1021.0,-7.0
2.0,-250.0,-9.0,38.0,12.0,-12.0,-6.0,-1019.0,-9.0
3.0,-250.0,-3.0,40.0,11.0,-13.0,-8.0,-1021.0,-4.0
3.0,-251.0,-11.0,42.0,11.0,-13.0,-9.0,-1026.0,-6.0
3.0,-249.0,-7.0,43.0,10.0,-14.0,-11.0,-1016.0,-2.0
2.0,-248.0,-5.0,44.0,11.0,-12.0,-5.0,-1020.0,-4.0
2.0,-251.0,-5.0,44.0,10.0,-13.0,-8.0,-1018.0,-6.0
1.0,-247.0,-5.0,44.0,10.0,-13.0,-7.0,-1022.0,0.0
0.0,-246.0,-5.0,45.0,10.0,-12.0,-10.0,-1018.0,-9.0
3.0,-247.0,-3.0,44.0,11.0,-13.0,-3.0,-1019.0,-7.0
3.0,-249.0,-6.0,42.0,11.0,-11.0,-10.0,-1019.0,-4.0
2.0,-248.0,-1.0,41.0,12.0,-13.0,-10.0,-1021.0,0.0
1.0,-248.0,-3.0,39.0,12.0,-14.0,-7.0,-1020.0,-4.0
3.0,-249.0,-9.0,39.0,13.0,-14.0,-13.0,-1015.0,-1.0
1.0,-252.0,-2.0,37.0,14.0,-14.0,-9.0,-1020.0,-5.0
1.0,-248.0,-2.0,38.0,14.0,-14.0,-6.0,-1019.0,1.0
1.0,-249.0,-10.0,38.0,16.0,-13.0,-10.0,-1020.0,-2.0
0.0,-251.0,-7.0,40.0,15.0,-16.0,-8.0,-1020.0,-4.0
3.0,-249.0,-4.0,41.0,14.0,-14.0,-5.0,-1023.0,-6.0
5.0,-249.0,-5.0,40.0,13.0,-15.0,-6.0,-1020.0,-2.0
3.0,-249.0,-2.0,40.0,14.0,-16.0,-5.0,-1020.0,-7.0
3.0,-250.0,-5.0,38.0,13.0,-17.0,-3.0,-1015.0,-10.0
3.0,-248.0,-3.0,36.0,13.0,-15.0,-6.0,-1018.0,-8.0
5.0,-249.0,-1.0,34.0,12.0,-15.0,-7.0,-1015.0,-13.0
3.0,-247.0,-6.0,32.0,11.0,-15.0,-8.0,-1016.0,-2.0
3.0,-248.0,-7.0,31.0,9.0,-15.0,-4.0,-1018.0,-15.0
3.0,-246.0,-7.0,30.0,9.0,-15.0,-5.0,-1017.0,-3.0
3.0,-251.0,-7.0,30.0,8.0,-14.0,-2.0,-1020.0,-8.0
4.0,-250.0,-7.0,31.0,9.0,-13.0,-7.0,-1024.0,-6.0
0.0,-249.0,-4.0,31.0,8.0,-13.0,-10.0,-1022.0,-11.0
4.0,-249.0,-7.0,34.0,9.0,-14.0,-10.0,-1020.0,-6.0
4.0,-249.0,0.0,35.0,9.0,-13.0,-5.0,-1019.0,-6.0
2.0,-249.0,-5.0,36.0,11.0,-12.0,-12.0,-1021.0,-4.0
1.0,-246.0,0.0,37.0,12.0,-13.0,-4.0,-1023.0,-2.0
3.0,-247.0,-1.0,39.0,13.0,-14.0,-10.0,-1023.0,-8.0
3.0,-245.0,-3.0,41.0,15.0,-17.0,-3.0,-1030.0,-10.0
4.0,-250.0,-6.0,43.0,16.0,-16.0,-8.0,-1020.0,-8.0
2.0,-248.0,-11.0,45.0,16.0,-16.0,-5.0,-1024.0,-6.0
1.0,-248.0,-7.0,45.0,17.0,-16.0,-7.0,-1020.0,-13.0
4.0,-249.0,-8.0,46.0,16.0,-17.0,-7.0,-1018.0,-14.0
2.0,-250.0,-5.0,45.0,15.0,-14.0,-4.0,-1019.0,-20.0
2.0,-250.0,-5.0,44.0,13.0,-13.0,-3.0,-1017.0,-9.0
3.0,-249.0,-7.0,42.0,11.0,-14.0,-6.0,-1023.0,-14.0
3.0,-247.0,-5.0,40.0,9.0,-13.0,-7.0,-1020.0,-4.0
0.0,-250.0,-6.0,38.0,7.0,-13.0,-6.0,-1014.0,-10.0
1.0,-248.0,-4.0,37.0,5.0,-13.0,-4.0,-1014.0,-5.0
10.0,-250.0,3.0,35.0,7.0,-12.0,-9.0,-1017.0,0.0
5.0,-248.0,-4.0,34.0,7.0,-12.0,-11.0,-1017.0,-5.0
3.0,-250.0,-5.0,34.0,8.0,-12.0,-11.0,-1021.0,-5.0
1.0,-249.0,-7.0,36.0,11.0,-13.0,-8.0,-1019.0,-3.0
2.0,-249.0,-4.0,38.0,12.0,-13.0,-3.0,-1021.0,-6.0
2.0,-251.0,-7.0,39.0,13.0,-13.0,-5.0,-1024.0,-3.0
2.0,-252.0,-1.0,42.0,14.0,-14.0,-6.0,-1021.0,-9.0
3.0,-250.0,-9.0,43.0,15.0,-13.0,-8.0,-1024.0,-7.0
3.0,-249.0,0.0,46.0,17.0,-14.0,-4.0,-1029.0,-13.0
4.0,-250.0,-8.0,47.0,16.0,-14.0,-5.0,-1023.0,-5.0
3.0,-253.0,-5.0,47.0,15.0,-14.0,-2.0,-1029.0,-6.0
0.0,-248.0,-3.0,49.0,16.0,-13.0,-1.0,-1021.0,-10.0
5.0,-247.0,-10.0,50.0,15.0,-13.0,-4.0,-1025.0,-11.0
3.0,-252.0,-6.0,52.0,14.0,-13.0,3.0,-1017.0,-15.0
3.0,-249.0,-7.0,52.0,13.0,-14.0,-5.0,-1025.0,-12.0
3.0,-247.0,-8.0,52.0,12.0,-13.0,-2.0,-1022.0,-17.0
4.0,-250.0,-10.0,51.0,12.0,-13.0,-6.0,-1022.0,-14.0
4.0,-248.0,-10.0,53.0,13.0,-14.0,-7.0,-1021.0,-12.0
5.0,-252.0,-5.0,52.0,14.0,-14.0,-5.0,-1016.0,-17.0
4.0,-249.0,-5.0,52.0,14.0,-13.0,-8.0,-1016.0,-13.0
1.0,-248.0,-5.0,52.0,14.0,-13.0,-3.0,-1020.0,-10.0
3.0,-248.0,-7.0,51.0,15.0,-11.0,-2.0,-1012.0,-21.0
3.0,-248.0,-7.0,52.0,16.0,-14.0,-4.0,-1019.0,-15.0
0.0,-246.0,-8.0,50.0,16.0,-12.0,-5.0,-1016.0,-21.0
3.0,-248.0,-5.0,52.0,16.0,-10.0,-7.0,-1016.0,-9.0
4.0,-247.0,-11.0,51.0,15.0,-11.0,-3.0,-1018.0,-19.0
1.0,-246.0,-7.0,52.0,15.0,-12.0,-4.0,-1019.0,-10.0
2.0,-246.0,-6.0,53.0,14.0,-11.0,-6.0,-1012.0,-12.0
2.0,-250.0,-11.0,52.0,13.0,-13.0,-6.0,-1019.0,-15.0
4.0,-248.0,-5.0,53.0,13.0,-13.0,-5.0,-1019.0,-16.0
2.0,-249.0,-7.0,52.0,13.0,-13.0,-5.0,-1017.0,-12.0
7.0,-250.0,-7.0,50.0,11.0,-13.0,-4.0,-1020.0,-11.0
5.0,-248.0,-8.0,48.0,12.0,-12.0,-11.0,-1019.0,-14.0
2.0,-249.0,-5.0,48.0,13.0,-14.0,-2.0,-1022.0,-14.0
2.0,-251.0,-6.0,45.0,13.0,-13.0,-8.0,-1019.0,-14.0
3.0,-250.0,-8.0,45.0,13.0,-12.0,-7.0,-1019.0,-6.0
1.0,-250.0,-5.0,45.0,13.0,-12.0,-7.0,-1017.0,-10.0
0.0,-248.0,-6.0,47.0,13.0,-12.0,-6.0,-1022.0,-2.0
3.0,-250.0,-5.0,49.0,15.0,-11.0,-7.0,-1016.0,-2.0
2.0,-245.0,-2.0,50.0,16.0,-11.0,-5.0,-1018.0,-4.0
1.0,-248.0,-3.0,53.0,16.0,-11.0,-7.0,-1021.0,-7.0
6.0,-250.0,-6.0,54.0,18.0,-12.0,-4.0,-1020.0,-11.0
3.0,-247.0,-3.0,55.0,18.0,-12.0,-3.0,-1018.0,-3.0
11.0,-247.0,-7.0,55.0,19.0,-13.0,-3.0,-1018.0,-11.0
2.0,-247.0,-8.0,54.0,18.0,-12.0,-5.0,-1017.0,-16.0
6.0,-250.0,-10.0,52.0,19.0,-14.0,-6.0,-1017.0,-10.0
7.0,-248.0,-7.0,51.0,17.0,-14.0,-8.0,-1018.0,-13.0
3.0,-250.0,-6.0,51.0,16.0,-12.0,-6.0,-1019.0,-20.0
3.0,-249.0,-3.0,50.0,14.0,-13.0,-4.0,-1018.0,-17.0
3.0,-246.0,-8.0,48.0,15.0,-14.0,-14.0,-1017.0,-12.0
3.0,-248.0,-2.0,48.0,14.0,-13.0,-13.0,-1020.0,-8.0
3.0,-251.0,-4.0,46.0,15.0,-13.0,-5.0,-1022.0,-5.0
5.0,-250.0,-5.0,46.0,15.0,-14.0,-4.0,-1019.0,-11.0
1.0,-254.0,2.0,46.0,16.0,-14.0,-3.0,-1020.0,-13.0
1.0,-248.0,-5.0,47.0,14.0,-13.0,-7.0,-1022.0,-13.0
4.0,-249.0,-7.0,47.0,16.0,-12.0,-6.0,-1018.0,-11.0
1.0,-247.0,-5.0,46.0,17.0,-12.0,-3.0,-1025.0,-8.0
4.0,-250.0,-5.0,44.0,17.0,-12.0,-7.0,-1022.0,-5.0
4.0,-252.0,-5.0,42.0,17.0,-10.0,-5.0,-1021.0,-11.0
6.0,-251.0,-8.0,41.0,17.0,-10.0,-2.0,-1019.0,-7.0
3.0,-252.0,-6.0,39.0,15.0,-11.0,-1.0,-1015.0,-7.0
4.0,-247.0,-9.0,39.0,17.0,-9.0,-6.0,-1022.0,-10.0
4.0,-243.0,-5.0,38.0,17.0,-7.0,0.0,-1018.0,-7.0
4.0,-244.0,-6.0,36.0,15.0,-7.0,-7.0,-1019.0,-4.0
-4.0,-250.0,-12.0,37.0,15.0,-7.0,-3.0,-1020.0,-6.0
4.0,-247.0,-7.0,36.0,12.0,-9.0,1.0,-1017.0,-7.0
4.0,-245.0,-1.0,37.0,11.0,-8.0,-3.0,-1019.0,-9.0
5.0,-246.0,-5.0,37.0,10.0,-10.0,-3.0,-1015.0,-7.0
3.0,-247.0,-7.0,39.0,9.0,-12.0,0.0,-1019.0,-7.0
1.0,-245.0,-5.0,40.0,9.0,-12.0,-4.0,-1020.0,-10.0
3.0,-250.0,-10.0,42.0,8.0,-12.0,-2.0,-1016.0,-8.0
5.0,-250.0,-6.0,44.0,8.0,-10.0,-1.0,-1022.0,-12.0
4.0,-249.0,-7.0,45.0,8.0,-12.0,-2.0,-1026.0,-8.0
2.0,-245.0,-8.0,47.0,9.0,-13.0,-4.0,-1020.0,-8.0
4.0,-248.0,-2.0,47.0,10.0,-13.0,-7.0,-1018.0,-6.0
3.0,-250.0,-8.0,48.0,10.0,-12.0,-6.0,-1024.0,-13.0
2.0,-250.0,-2.0,49.0,12.0,-11.0,-6.0,-1020.0,-16.0
1.0,-248.0,-4.0,50.0,12.0,-12.0,-11.0,-1022.0,-12.0
1.0,-248.0,-9.0,50.0,14.0,-14.0,-7.0,-1021.0,-14.0
2.0,-251.0,-7.0,51.0,15.0,-13.0,-5.0,-1021.0,-12.0
2.0,-248.0,-4.0,51.0,16.0,-12.0,-6.0,-1022.0,-10.0
4.0,-248.0,-5.0,51.0,17.0,-13.0,-8.0,-1023.0,-8.0
3.0,-246.0,-4.0,52.0,18.0,-13.0,-6.0,-1019.0,-14.0
5.0,-249.0,-9.0,53.0,19.0,-12.0,-10.0,-1019.0,-9.0
0.0,-247.0,-6.0,53.0,19.0,-13.0,-9.0,-1022.0,-8.0
7.0,-241.0,-3.0,52.0,20.0,-13.0,-7.0,-1020.0,-13.0
4.0,-251.0,-6.0,54.0,19.0,-13.0,-12.0,-1021.0,-10.0
5.0,-250.0,-9.0,53.0,19.0,-12.0,-4.0,-1017.0,-17.0
2.0,-247.0,-9.0,53.0,19.0,-14.0,-8.0,-1017.0,-10.0
5.0,-248.0,-6.0,53.0,19.0,-12.0,-10.0,-1016.0,-13.0
1.0,-247.0,-7.0,54.0,18.0,-11.0,-8.0,-1022.0,-12.0
0.0,-247.0,-5.0,53.0,20.0,-12.0,-1.0,-1016.0,-14.0
5.0,-252.0,-2.0,53.0,19.0,-14.0,-7.0,-1022.0,-18.0
1.0,-247.0,-4.0,54.0,18.0,-14.0,-2.0,-1018.0,-15.0
3.0,-250.0,-7.0,54.0,18.0,-14.0,-3.0,-1019.0,-11.0
5.0,-251.0,-4.0,53.0,17.0,-14.0,-3.0,-1017.0,-3.0
4.0,-252.0,-10.0,53.0,16.0,-15.0,-5.0,-1020.0,-7.0
4.0,-247.0,-3.0,52.0,16.0,-14.0,-7.0,-1021.0,-9.0
1.0,-248.0,-3.0,51.0,14.0,-13.0,-5.0,-1020.0,-6.0
2.0,-250.0,-8.0,51.0,14.0,-14.0,-13.0,-1022.0,-8.0
2.0,-249.0,-4.0,50.0,14.0,-15.0,-4.0,-1020.0,-6.0
1.0,-248.0,-7.0,50.0,14.0,-15.0,-8.0,-1024.0,-13.0
0.0,-249.0,-6.0,51.0,14.0,-14.0,-5.0,-1020.0,-7.0
2.0,-250.0,-2.0,50.0,15.0,-15.0,-8.0,-1021.0,-14.0
3.0,-248.0,-5.0,49.0,14.0,-16.0,-7.0,-1017.0,-11.0
2.0,-248.0,-5.0,51.0,13.0,-13.0,-12.0,-1017.0,-5.0
6.0,-249.0,-6.0,50.0,15.0,-15.0,-7.0,-1018.0,-7.0
8.0,-241.0,-15.0,48.0,15.0,-17.0,-6.0,-1021.0,-8.0
1.0,-247.0,-3.0,46.0,15.0,-17.0,-7.0,-1020.0,-7.0
3.0,-248.0,-9.0,47.0,16.0,-16.0,-8.0,-1020.0,-8.0
3.0,-250.0,-6.0,44.0,16.0,-15.0,-7.0,-1018.0,-11.0
3.0,-248.0,-8.0,45.0,15.0,-17.0,-5.0,-1014.0,-6.0
1.0,-248.0,-7.0,46.0,15.0,-18.0,-1.0,-1024.0,-5.0
3.0,-250.0,-3.0,46.0,14.0,-18.0,-5.0,-1020.0,-10.0
3.0,-249.0,-7.0,45.0,13.0,-16.0,-4.0,-1017.0,-9.0
2.0,-248.0,-6.0,42.0,12.0,-18.0,-9.0,-1019.0,-12.0
4.0,-250.0,-6.0,41.0,11.0,-18.0,-8.0,-1018.0,-14.0
2.0,-247.0,-10.0,36.0,11.0,-18.0,-5.0,-1014.0,-16.0
3.0,-249.0,-9.0,35.0,10.0,-17.0,-5.0,-1021.0,-16.0
3.0,-250.0,-5.0,35.0,8.0,-17.0,-2.0,-1023.0,-15.0
2.0,-249.0,-7.0,34.0,9.0,-18.0,-8.0,-1019.0,-9.0
3.0,-248.0,-9.0,36.0,8.0,-17.0,-8.0,-1019.0,-11.0
2.0,-248.0,-6.0,36.0,7.0,-16.0,-5.0,-1022.0,-16.0
2.0,-250.0,-9.0,36.0,7.0,-15.0,-8.0,-1021.0,-17.0
3.0,-250.0,-8.0,37.0,8.0,-16.0,-4.0,-1026.0,-13.0
2.0,-250.0,-5.0,38.0,7.0,-17.0,-8.0,-1017.0,-8.0
3.0,-246.0,-12.0,40.0,8.0,-19.0,-5.0,-1018.0,-9.0
7.0,-253.0,-10.0,42.0,8.0,-16.0,-4.0,-1023.0,-9.0
2.0,-251.0,-6.0,44.0,10.0,-16.0,-4.0,-1027.0,-11.0
2.0,-248.0,-6.0,47.0,10.0,-16.0,-5.0,-1027.0,-13.0
4.0,-249.0,-7.0,49.0,11.0,-14.0,-4.0,-1021.0,-17.0
2.0,-249.0,-10.0,52.0,12.0,-16.0,-4.0,-1023.0,-7.0
3.0,-249.0,-8.0,54.0,13.0,-14.0,1.0,-1018.0,-19.0
1.0,-250.0,-3.0,57.0,14.0,-15.0,-2.0,-1019.0,-17.0
2.0,-247.0,-7.0,58.0,14.0,-14.0,-1.0,-1021.0,-16.0
3.0,-250.0,-5.0,60.0,13.0,-15.0,0.0,-1017.0,-14.0
3.0,-249.0,-9.0,60.0,14.0,-14.0,0.0,-1018.0,-17.0
4.0,-247.0,-10.0,60.0,11.0,-15.0,-2.0,-1016.0,-13.0
2.0,-246.0,-6.0,60.0,9.0,-14.0,-3.0,-1017.0,-4.0
3.0,-248.0,-13.0,59.0,9.0,-15.0,-5.0,-1020.0,-6.0
3.0,-248.0,-4.0,58.0,8.0,-14.0,-3.0,-1019.0,-9.0
5.0,-246.0,-9.0,59.0,8.0,-14.0,0.0,-1020.0,-6.0
2.0,-246.0,-4.0,58.0,7.0,-15.0,-4.0,-1014.0,-6.0
3.0,-245.0,-2.0,57.0,8.0,-15.0,-4.0,-1015.0,-5.0
3.0,-246.0,-5.0,56.0,10.0,-16.0,-6.0,-1016.0,-8.0
4.0,-247.0,-5.0,56.0,11.0,-15.0,-3.0,-1018.0,-9.0
5.0,-249.0,-6.0,55.0,13.0,-16.0,-5.0,-1018.0,-4.0
4.0,-249.0,-1.0,53.0,15.0,-15.0,-2.0,-1018.0,-6.0
5.0,-245.0,-10.0,54.0,16.0,-16.0,-4.0,-1017.0,-5.0
5.0,-248.0,-11.0,55.0,17.0,-16.0,-1.0,-1018.0,-4.0
2.0,-246.0,-8.0,54.0,17.0,-17.0,-2.0,-1026.0,-13.0
1.0,-248.0,-3.0,53.0,17.0,-17.0,-2.0,-1021.0,-9.0
4.0,-249.0,-6.0,52.0,17.0,-16.0,2.0,-1020.0,-9.0
3.0,-248.0,-13.0,54.0,17.0,-15.0,-6.0,-1024.0,-5.0
5.0,-249.0,-9.0,54.0,17.0,-15.0,0.0,-1029.0,-16.0
3.0,-251.0,-8.0,54.0,18.0,-12.0,-3.0,-1023.0,-5.0
6.0,-246.0,-9.0,54.0,16.0,-13.0,-1.0,-1024.0,-9.0
5.0,-248.0,-5.0,56.0,15.0,-14.0,-2.0,-1022.0,-14.0
4.0,-247.0,-6.0,57.0,14.0,-13.0,6.0,-1019.0,-13.0
6.0,-245.0,-10.0,57.0,15.0,-13.0,1.0,-1021.0,-14.0
3.0,-246.0,-11.0,58.0,14.0,-12.0,-3.0,-1017.0,-10.0
1.0,-248.0,-8.0,57.0,15.0,-12.0,-5.0,-1013.0,-9.0
3.0,-245.0,-9.0,56.0,14.0,-14.0,0.0,-1017.0,-13.0
3.0,-246.0,-9.0,55.0,15.0,-14.0,-5.0,-1017.0,-16.0
3.0,-246.0,-6.0,54.0,14.0,-14.0,-2.0,-1022.0,-7.0
2.0,-247.0,-7.0,54.0,14.0,-14.0,-4.0,-1019.0,-15.0
4.0,-249.0,-9.0,52.0,14.0,-14.0,-6.0,-1017.0,-17.0
6.0,-247.0,-5.0,52.0,15.0,-15.0,-3.0,-1015.0,-18.0
1.0,-244.0,-8.0,53.0,15.0,-14.0,-3.0,-1022.0,-16.0
4.0,-247.0,-4.0,52.0,14.0,-15.0,-1.0,-1017.0,-16.0
6.0,-248.0,-10.0,52.0,14.0,-14.0,-3.0,-1019.0,-15.0
2.0,-248.0,-9.0,52.0,13.0,-13.0,0.0,-1016.0,-7.0
1.0,-249.0,-2.0,51.0,13.0,-13.0,-3.0,-1022.0,-9.0
3.0,-250.0,-4.0,50.0,13.0,-14.0,-4.0,-1020.0,-12.0
6.0,-249.0,-6.0,49.0,11.0,-14.0,-4.0,-1023.0,-16.0
1.0,-246.0,-7.0,51.0,10.0,-16.0,-3.0,-1023.0,-5.0
3.0,-249.0,-7.0,52.0,11.0,-15.0,-5.0,-1022.0,-8.0
3.0,-249.0,-8.0,53.0,12.0,-14.0,-7.0,-1022.0,-1.0
2.0,-245.0,-4.0,55.0,10.0,-14.0,-3.0,-1022.0,-6.0
1.0,-248.0,-2.0,56.0,13.0,-13.0,1.0,-1020.0,-11.0
6.0,-246.0,-9.0,57.0,14.0,-14.0,-6.0,-1022.0,-10.0
2.0,-249.0,-14.0,58.0,13.0,-14.0,-4.0,-1019.0,-11.0
6.0,-251.0,0.0,58.0,14.0,-13.0,-6.0,-1018.0,-14.0
1.0,-249.0,-7.0,56.0,15.0,-14.0,-7.0,-1019.0,-17.0
4.0,-251.0,-4.0,56.0,15.0,-12.0,-3.0,-1021.0,-18.0
3.0,-248.0,-8.0,55.0,15.0,-13.0,-3.0,-1020.0,-14.0
5.0,-250.0,-4.0,52.0,15.0,-13.0,0.0,-1021.0,-6.0
4.0,-250.0,-6.0,52.0,13.0,-12.0,-6.0,-1018.0,-10.0
2.0,-247.0,-4.0,51.0,12.0,-13.0,-2.0,-1023.0,-9.0
2.0,-250.0,-7.0,52.0,12.0,-13.0,-7.0,-1019.0,-5.0
1.0,-250.0,-6.0,53.0,11.0,-12.0,-4.0,-1019.0,-11.0
1.0,-250.0,-5.0,55.0,11.0,-12.0,-2.0,-1024.0,-11.0
0.0,-253.0,-7.0,56.0,10.0,-12.0,-4.0,-1018.0,-13.0
2.0,-248.0,-8.0,58.0,9.0,-12.0,-5.0,-1020.0,-8.0
2.0,-250.0,-9.0,59.0,10.0,-13.0,-2.0,-1019.0,-4.0
3.0,-249.0,-9.0,59.0,10.0,-14.0,-7.0,-1020.0,-10.0
3.0,-249.0,-4.0,59.0,10.0,-15.0,-3.0,-1017.0,-6.0
2.0,-248.0,-7.0,60.0,10.0,-13.0,-5.0,-1022.0,-10.0
2.0,-246.0,-2.0,61.0,12.0,-13.0,-4.0,-1023.0,-11.0
6.0,-247.0,-6.0,59.0,12.0,-12.0,-3.0,-1020.0,-4.0
4.0,-250.0,-11.0,60.0,11.0,-14.0,-2.0,-1022.0,-2.0
3.0,-248.0,-6.0,56.0,11.0,-13.0,-3.0,-1027.0,-6.0
3.0,-248.0,-3.0,56.0,10.0,-12.0,-3.0,-1022.0,-14.0
9.0,-250.0,-8.0,55.0,11.0,-11.0,0.0,-1020.0,-14.0
1.0,-246.0,-3.0,54.0,11.0,-11.0,1.0,-1018.0,-10.0
2.0,-247.0,-6.0,52.0,10.0,-12.0,0.0,-1015.0,-12.0
5.0,-250.0,-4.0,51.0,10.0,-12.0,-3.0,-1015.0,-5.0
1.0,-247.0,-2.0,52.0,10.0,-11.0,-6.0,-1016.0,-13.0
3.0,-247.0,-9.0,52.0,10.0,-11.0,0.0,-1020.0,-7.0
4.0,-249.0,-7.0,52.0,11.0,-12.0,-1.0,-1020.0,-10.0
5.0,-247.0,-6.0,53.0,10.0,-14.0,2.0,-1019.0,-8.0
5.0,-247.0,-1.0,52.0,9.0,-12.0,-2.0,-1019.0,-7.0
6.0,-251.0,-6.0,53.0,9.0,-10.0,-1.0,-1016.0,-6.0
2.0,-246.0,-5.0,52.0,9.0,-11.0,-1.0,-1010.0,-5.0
2.0,-248.0,-4.0,51.0,8.0,-13.0,-7.0,-1018.0,-14.0
1.0,-248.0,-2.0,50.0,8.0,-12.0,-4.0,-1015.0,-6.0
3.0,-250.0,-4.0,50.0,8.0,-11.0,-2.0,-1019.0,-7.0
2.0,-247.0,-6.0,48.0,9.0,-12.0,-1.0,-1018.0,-7.0
3.0,-251.0,-6.0,46.0,10.0,-13.0,0.0,-1020.0,-10.0
3.0,-249.0,-7.0,45.0,10.0,-14.0,-8.0,-1018.0,-5.0
3.0,-249.0,-2.0,45.0,10.0,-13.0,-5.0,-1024.0,-8.0
4.0,-248.0,-8.0,46.0,10.0,-13.0,0.0,-1019.0,-15.0
6.0,-251.0,-7.0,47.0,12.0,-12.0,-2.0,-1026.0,-2.0
4.0,-248.0,-6.0,49.0,12.0,-11.0,-1.0,-1019.0,-8.0
4.0,-251.0,-2.0,51.0,11.0,-11.0,0.0,-1021.0,-11.0
3.0,-251.0,-6.0,52.0,12.0,-11.0,1.0,-1024.0,-14.0
4.0,-250.0,-7.0,55.0,13.0,-13.0,0.0,-1019.0,-10.0
3.0,-248.0,-4.0,56.0,13.0,-12.0,-2.0,-1025.0,-6.0
2.0,-249.0,-9.0,55.0,11.0,-12.0,-1.0,-1024.0,-7.0
3.0,-250.0,-2.0,55.0,12.0,-11.0,-8.0,-1022.0,-16.0
6.0,-250.0,-3.0,57.0,13.0,-12.0,-3.0,-1019.0,-6.0
2.0,-249.0,-10.0,56.0,12.0,-12.0,0.0,-1021.0,-12.0
5.0,-251.0,-3.0,57.0,11.0,-11.0,1.0,-1019.0,-8.0
3.0,-243.0,-5.0,56.0,12.0,-11.0,-2.0,-1024.0,-12.0
4.0,-250.0,-4.0,55.0,12.0,-12.0,1.0,-1023.0,-5.0
2.0,-252.0,-3.0,54.0,12.0,-11.0,2.0,-1017.0,-20.0
4.0,-246.0,-7.0,53.0,13.0,-10.0,0.0,-1020.0,-8.0
3.0,-249.0,-5.0,54.0,14.0,-12.0,-6.0,-1015.0,-6.0
4.0,-250.0,-8.0,53.0,13.0,-10.0,-3.0,-1017.0,-3.0
5.0,-246.0,-3.0,53.0,13.0,-10.0,-3.0,-1022.0,-10.0
3.0,-249.0,-1.0,52.0,12.0,-11.0,-2.0,-1021.0,-11.0
3.0,-249.0,-10.0,52.0,12.0,-11.0,-1.0,-1016.0,-12.0
3.0,-247.0,-9.0,52.0,11.0,-12.0,-4.0,-1019.0,-7.0
2.0,-247.0,-7.0,52.0,12.0,-10.0,-1.0,-1027.0,-11.0
2.0,-251.0,-6.0,52.0,12.0,-9.0,0.0,-1019.0,-7.0
4.0,-248.0,2.0,52.0,13.0,-11.0,-4.0,-1022.0,-10.0
3.0,-249.0,-8.0,52.0,12.0,-11.0,-4.0,-1020.0,-10.0
3.0,-248.0,-2.0,52.0,14.0,-12.0,-2.0,-1018.0,-15.0
3.0,-249.0,-8.0,52.0,14.0,-11.0,-2.0,-1025.0,-10.0
4.0,-248.0,-6.0,52.0,14.0,-9.0,1.0,-1019.0,-10.0
6.0,-247.0,-5.0,54.0,15.0,-11.0,-2.0,-1018.0,-7.0
2.0,-248.0,-5.0,53.0,15.0,-10.0,-2.0,-1020.0,-5.0
4.0,-249.0,-4.0,55.0,17.0,-11.0,-4.0,-1021.0,-14.0
5.0,-251.0,-2.0,56.0,17.0,-12.0,-6.0,-1021.0,-10.0
5.0,-247.0,-7.0,57.0,16.0,-12.0,-2.0,-1025.0,-2.0
3.0,-249.0,-9.0,57.0,17.0,-13.0,-2.0,-1019.0,-11.0
2.0,-250.0,-4.0,57.0,16.0,-13.0,1.0,-1018.0,-14.0
7.0,-249.0,-8.0,56.0,15.0,-13.0,-5.0,-1015.0,-9.0
3.0,-247.0,-6.0,53.0,15.0,-13.0,-2.0,-1016.0,-7.0
5.0,-249.0,-3.0,50.0,15.0,-12.0,0.0,-1014.0,-6.0
2.0,-246.0,-7.0,47.0,14.0,-12.0,-1.0,-1018.0,-6.0
5.0,-250.0,-8.0,46.0,14.0,-12.0,2.0,-1019.0,-5.0
5.0,-248.0,-2.0,46.0,13.0,-11.0,-4.0,-1014.0,-8.0
1.0,-245.0,-1.0,46.0,13.0,-11.0,-7.0,-1020.0,-7.0
3.0,-249.0,-8.0,46.0,13.0,-11.0,-7.0,-1021.0,-13.0
1.0,-245.0,-5.0,47.0,13.0,-11.0,-2.0,-1013.0,-9.0
5.0,-250.0,-1.0,47.0,14.0,-11.0,-3.0,-1021.0,-7.0
5.0,-251.0,-3.0,46.0,14.0,-12.0,-6.0,-1022.0,-4.0
1.0,-248.0,-6.0,47.0,14.0,-11.0,-7.0,-1022.0,-7.0
4.0,-248.0,-5.0,48.0,15.0,-12.0,2.0,-1030.0,-5.0
5.0,-249.0,-6.0,48.0,14.0,-13.0,-2.0,-1024.0,-8.0
4.0,-252.0,-9.0,50.0,14.0,-14.0,-1.0,-1029.0,-1.0
4.0,-250.0,-4.0,55.0,15.0,-14.0,0.0,-1029.0,-12.0
5.0,-248.0,-5.0,59.0,17.0,-12.0,-2.0,-1025.0,-10.0
4.0,-248.0,-4.0,61.0,16.0,-13.0,2.0,-1021.0,-18.0
4.0,-249.0,-8.0,62.0,16.0,-11.0,0.0,-1022.0,-17.0
2.0,-249.0,-11.0,61.0,14.0,-11.0,1.0,-1017.0,-23.0
6.0,-251.0,-13.0,59.0,15.0,-11.0,6.0,-1020.0,-17.0
1.0,-249.0,-8.0,59.0,11.0,-10.0,5.0,-1020.0,-15.0
5.0,-251.0,-6.0,59.0,10.0,-9.0,0.0,-1020.0,-11.0
4.0,-252.0,-4.0,59.0,9.0,-11.0,-1.0,-1019.0,-9.0
3.0,-248.0,-6.0,58.0,7.0,-10.0,-1.0,-1019.0,-7.0
3.0,-250.0,-4.0,58.0,9.0,-9.0,0.0,-1018.0,-6.0
6.0,-248.0,-3.0,56.0,8.0,-10.0,0.0,-1022.0,-3.0
2.0,-248.0,-2.0,55.0,9.0,-7.0,-8.0,-1017.0,-5.0
3.0,-245.0,-10.0,56.0,8.0,-8.0,-6.0,-1020.0,-3.0
5.0,-246.0,-3.0,57.0,11.0,-9.0,-5.0,-1013.0,-7.0
4.0,-249.0,-5.0,56.0,13.0,-8.0,1.0,-1018.0,-7.0
1.0,-248.0,-10.0,56.0,15.0,-9.0,-2.0,-1013.0,-4.0
4.0,-249.0,-2.0,55.0,16.0,-9.0,-2.0,-1020.0,-1.0
2.0,-248.0,-3.0,54.0,17.0,-10.0,-3.0,-1019.0,-2.0
5.0,-246.0,-3.0,53.0,16.0,-11.0,1.0,-1020.0,-3.0
3.0,-250.0,-5.0,52.0,17.0,-12.0,-2.0,-1022.0,-10.0
2.0,-247.0,-5.0,51.0,14.0,-10.0,-3.0,-1022.0,-3.0
6.0,-250.0,-3.0,51.0,15.0,-12.0,0.0,-1025.0,-15.0
4.0,-242.0,-4.0,51.0,14.0,-11.0,0.0,-1021.0,-7.0
5.0,-250.0,-6.0,52.0,13.0,-12.0,4.0,-1021.0,-7.0
4.0,-250.0,-9.0,53.0,12.0,-12.0,5.0,-1027.0,-11.0
4.0,-244.0,-8.0,53.0,12.0,-12.0,0.0,-1020.0,1.0
5.0,-246.0,-4.0,56.0,12.0,-11.0,-4.0,-1022.0,-13.0
4.0,-247.0,-4.0,58.0,13.0,-11.0,-3.0,-1021.0,-15.0
4.0,-249.0,-7.0,58.0,11.0,-10.0,-1.0,-1019.0,-10.0
4.0,-249.0,-6.0,59.0,12.0,-10.0,0.0,-1016.0,-13.0
3.0,-247.0,-7.0,60.0,12.0,-9.0,-2.0,-1025.0,-13.0
3.0,-247.0,-4.0,59.0,13.0,-9.0,0.0,-1021.0,-12.0
4.0,-249.0,-10.0,60.0,13.0,-9.0,2.0,-1018.0,-9.0
4.0,-248.0,-5.0,59.0,14.0,-7.0,-6.0,-1019.0,-12.0
4.0,-248.0,-6.0,58.0,14.0,-8.0,0.0,-1018.0,-9.0
7.0,-247.0,-5.0,57.0,15.0,-8.0,0.0,-1012.0,-15.0
6.0,-249.0,-7.0,57.0,15.0,-9.0,-2.0,-1018.0,-4.0
3.0,-249.0,-8.0,55.0,16.0,-8.0,-4.0,-1020.0,-13.0
4.0,-247.0,-7.0,55.0,15.0,-10.0,-4.0,-1020.0,-17.0
1.0,-248.0,-8.0,53.0,15.0,-9.0,-1.0,-1016.0,-15.0
2.0,-248.0,-2.0,53.0,15.0,-10.0,1.0,-1019.0,-7.0
3.0,-247.0,-2.0,53.0,14.0,-9.0,-6.0,-1023.0,-8.0
6.0,-251.0,-2.0,53.0,13.0,-9.0,0.0,-1019.0,-6.0
5.0,-249.0,-4.0,54.0,13.0,-10.0,-1.0,-1018.0,-5.0
2.0,-246.0,-4.0,55.0,14.0,-10.0,2.0,-1019.0,-5.0
4.0,-248.0,-5.0,54.0,13.0,-12.0,-1.0,-1019.0,-4.0
2.0,-242.0,-5.0,54.0,13.0,-12.0,-1.0,-1018.0,-3.0
2.0,-249.0,-9.0,54.0,14.0,-11.0,-2.0,-1018.0,-4.0
6.0,-250.0,-5.0,54.0,14.0,-12.0,-1.0,-1022.0,-2.0
3.0,-249.0,-2.0,53.0,15.0,-10.0,0.0,-1018.0,-7.0
4.0,-248.0,-4.0,52.0,15.0,-11.0,-2.0,-1021.0,-4.0
4.0,-251.0,-7.0,52.0,15.0,-10.0,-1.0,-1021.0,-11.0
3.0,-247.0,-4.0,53.0,14.0,-10.0,-4.0,-1017.0,-10.0
1.0,-250.0,-5.0,53.0,14.0,-9.0,-3.0,-1019.0,-7.0
2.0,-249.0,-7.0,51.0,13.0,-8.0,-3.0,-1024.0,-5.0
4.0,-246.0,-11.0,50.0,12.0,-9.0,-4.0,-1017.0,-10.0
2.0,-250.0,-8.0,52.0,11.0,-10.0,-1.0,-1021.0,-2.0
2.0,-250.0,0.0,52.0,11.0,-11.0,-6.0,-1024.0,-6.0
2.0,-252.0,-6.0,52.0,11.0,-10.0,-7.0,-1022.0,-6.0
4.0,-246.0,-4.0,55.0,11.0,-10.0,-4.0,-1022.0,-1.0
4.0,-251.0,-9.0,58.0,10.0,-10.0,-5.0,-1023.0,0.0
4.0,-249.0,-6.0,60.0,10.0,-11.0,-3.0,-1017.0,-9.0
4.0,-249.0,-5.0,62.0,12.0,-11.0,-2.0,-1021.0,-4.0
6.0,-251.0,-4.0,64.0,12.0,-10.0,-1.0,-1021.0,-7.0
2.0,-249.0,-4.0,64.0,13.0,-10.0,-2.0,-1020.0,-1.0
3.0,-249.0,1.0,66.0,13.0,-11.0,-6.0,-1021.0,1.0
5.0,-249.0,-1.0,65.0,14.0,-11.0,-5.0,-1021.0,-10.0
3.0,-250.0,-5.0,65.0,14.0,-11.0,-3.0,-1021.0,-4.0
4.0,-249.0,-10.0,64.0,15.0,-11.0,-1.0,-1018.0,-6.0
4.0,-247.0,-4.0,62.0,15.0,-11.0,-3.0,-1020.0,-12.0
5.0,-251.0,-3.0,62.0,17.0,-10.0,-2.0,-1019.0,-1.0
4.0,-250.0,-6.0,62.0,16.0,-11.0,-5.0,-1023.0,-10.0
2.0,-248.0,-7.0,63.0,15.0,-10.0,1.0,-1026.0,-4.0
4.0,-252.0,-6.0,65.0,16.0,-11.0,0.0,-1021.0,-7.0
5.0,-248.0,-6.0,65.0,16.0,-10.0,-3.0,-1017.0,-7.0
4.0,-250.0,-8.0,66.0,15.0,-9.0,-3.0,-1023.0,-5.0
4.0,-251.0,-6.0,67.0,17.0,-9.0,-5.0,-1017.0,-8.0
2.0,-249.0,-8.0,68.0,19.0,-11.0,0.0,-1020.0,-9.0
2.0,-246.0,-5.0,70.0,19.0,-7.0,-3.0,-1025.0,-5.0
6.0,-251.0,-12.0,73.0,20.0,-8.0,-6.0,-1019.0,-5.0
2.0,-250.0,-5.0,75.0,20.0,-8.0,2.0,-1018.0,-2.0
4.0,-249.0,-4.0,78.0,20.0,-8.0,-1.0,-1020.0,-5.0
4.0,-249.0,-7.0,80.0,21.0,-8.0,1.0,-1019.0,-10.0
6.0,-248.0,-8.0,81.0,22.0,-8.0,2.0,-1019.0,-4.0
4.0,-247.0,-3.0,81.0,23.0,-9.0,0.0,-1022.0,-5.0
1.0,-246.0,-1.0,81.0,22.0,-9.0,3.0,-1020.0,-4.0
3.0,-250.0,-5.0,83.0,21.0,-6.0,-4.0,-1018.0,-1.0
3.0,-250.0,-4.0,81.0,21.0,-10.0,-1.0,-1022.0,-6.0
8.0,-248.0,-4.0,80.0,19.0,-9.0,-2.0,-1019.0,1.0
5.0,-248.0,-12.0,77.0,17.0,-10.0,-1.0,-1019.0,-3.0
5.0,-247.0,-13.0,77.0,19.0,-10.0,-1.0,-1018.0,-3.0
2.0,-246.0,-6.0,76.0,18.0,-10.0,-3.0,-1016.0,-3.0
3.0,-248.0,-4.0,74.0,18.0,-10.0,-2.0,-1021.0,-4.0
4.0,-247.0,-4.0,73.0,17.0,-11.0,-2.0,-1016.0,-7.0
3.0,-247.0,-1.0,73.0,19.0,-10.0,-2.0,-1018.0,3.0
5.0,-249.0,-2.0,73.0,17.0,-10.0,1.0,-1016.0,-2.0
2.0,-246.0,-6.0,71.0,16.0,-10.0,-2.0,-1016.0,-4.0
4.0,-248.0,-5.0,70.0,16.0,-11.0,-2.0,-1020.0,-9.0
4.0,-247.0,0.0,69.0,15.0,-11.0,-4.0,-1017.0,-1.0
6.0,-248.0,-6.0,67.0,16.0,-11.0,2.0,-1021.0,0.0
4.0,-251.0,-8.0,66.0,16.0,-9.0,-1.0,-1020.0,-5.0
3.0,-249.0,-4.0,64.0,15.0,-10.0,-1.0,-1029.0,-3.0
2.0,-249.0,-3.0,63.0,16.0,-11.0,-3.0,-1019.0,-1.0
1.0,-252.0,-4.0,64.0,15.0,-10.0,-7.0,-1018.0,-3.0
2.0,-250.0,-1.0,63.0,15.0,-10.0,-5.0,-1020.0,-3.0
1.0,-248.0,-4.0,61.0,14.0,-9.0,-3.0,-1020.0,-1.0
4.0,-249.0,-5.0,62.0,13.0,-7.0,-1.0,-1015.0,-2.0
5.0,-247.0,-5.0,59.0,13.0,-8.0,-2.0,-1022.0,5.0
1.0,-248.0,-6.0,59.0,12.0,-11.0,-1.0,-1018.0,0.0
4.0,-241.0,-1.0,58.0,11.0,-10.0,0.0,-1017.0,-2.0
7.0,-251.0,-1.0,57.0,11.0,-10.0,-3.0,-1016.0,0.0
-1.0,-250.0,-4.0,53.0,11.0,-12.0,-3.0,-1018.0,4.0
15.0,-251.0,-6.0,51.0,11.0,-10.0,-3.0,-1020.0,0.0
4.0,-250.0,-5.0,49.0,11.0,-12.0,-7.0,-1019.0,-3.0
5.0,-248.0,-4.0,50.0,11.0,-11.0,0.0,-1018.0,1.0
7.0,-251.0,-4.0,50.0,11.0,-11.0,-2.0,-1024.0,4.0
5.0,-250.0,-3.0,50.0,12.0,-12.0,0.0,-1024.0,-2.0
3.0,-247.0,-2.0,50.0,12.0,-11.0,-1.0,-1022.0,-2.0
2.0,-247.0,-3.0,50.0,13.0,-11.0,3.0,-1019.0,-2.0
1.0,-250.0,-4.0,52.0,14.0,-10.0,-5.0,-1019.0,-5.0
1.0,-249.0,-7.0,52.0,14.0,-10.0,-3.0,-1019.0,-4.0
1.0,-248.0,-6.0,54.0,14.0,-11.0,-2.0,-1020.0,-1.0
16.0,-248.0,-2.0,53.0,15.0,-11.0,-3.0,-1021.0,-3.0
5.0,-248.0,-5.0,54.0,15.0,-11.0,0.0,-1024.0,-2.0
2.0,-249.0,-6.0,54.0,15.0,-11.0,-2.0,-1020.0,1.0
3.0,-247.0,-5.0,54.0,15.0,-12.0,-1.0,-1018.0,-2.0
5.0,-246.0,0.0,55.0,15.0,-13.0,-3.0,-1020.0,0.0
5.0,-248.0,-2.0,55.0,15.0,-13.0,-1.0,-1021.0,-9.0
6.0,-249.0,-4.0,56.0,14.0,-12.0,2.0,-1021.0,-3.0
5.0,-246.0,-4.0,56.0,13.0,-13.0,4.0,-1015.0,-4.0
4.0,-250.0,-5.0,54.0,14.0,-11.0,2.0,-1017.0,0.0
7.0,-247.0,-2.0,52.0,12.0,-12.0,0.0,-1013.0,4.0
6.0,-247.0,-7.0,51.0,13.0,-11.0,0.0,-1020.0,-5.0
5.0,-247.0,-2.0,49.0,12.0,-12.0,-1.0,-1019.0,-3.0
5.0,-248.0,-6.0,47.0,12.0,-11.0,0.0,-1017.0,-2.0
7.0,-247.0,-6.0,45.0,10.0,-10.0,-3.0,-1017.0,-2.0
2.0,-247.0,-4.0,44.0,10.0,-10.0,-2.0,-1020.0,-3.0
2.0,-250.0,-6.0,45.0,10.0,-10.0,2.0,-1019.0,-2.0
3.0,-248.0,-1.0,44.0,12.0,-9.0,-7.0,-1024.0,-4.0
0.0,-250.0,0.0,44.0,12.0,-10.0,-7.0,-1020.0,0.0
3.0,-248.0,0.0,43.0,14.0,-11.0,-3.0,-1019.0,-2.0
3.0,-250.0,0.0,43.0,13.0,-12.0,-4.0,-1020.0,0.0
5.0,-248.0,-2.0,43.0,13.0,-11.0,-1.0,-1029.0,2.0
4.0,-253.0,-4.0,46.0,14.0,-12.0,-2.0,-1024.0,0.0
4.0,-251.0,-3.0,49.0,16.0,-13.0,0.0,-1027.0,-5.0
3.0,-249.0,-6.0,52.0,16.0,-13.0,-3.0,-1027.0,0.0
3.0,-248.0,-3.0,56.0,17.0,-13.0,1.0,-1022.0,-2.0
4.0,-248.0,-3.0,58.0,17.0,-10.0,-1.0,-1018.0,-5.0
7.0,-250.0,-3.0,59.0,16.0,-12.0,4.0,-1019.0,-5.0
5.0,-249.0,-3.0,59.0,15.0,-11.0,4.0,-1019.0,-9.0
6.0,-244.0,-6.0,58.0,13.0,-10.0,0.0,-1015.0,-9.0
3.0,-247.0,0.0,56.0,10.0,-9.0,0.0,-1018.0,-5.0
4.0,-244.0,-5.0,55.0,9.0,-10.0,0.0,-1021.0,-4.0
6.0,-248.0,-7.0,54.0,7.0,-9.0,4.0,-1025.0,-4.0
5.0,-244.0,-3.0,51.0,5.0,-10.0,-1.0,-1021.0,3.0
7.0,-249.0,-4.0,51.0,4.0,-9.0,-3.0,-1016.0,1.0
3.0,-249.0,-3.0,52.0,5.0,-9.0,-1.0,-1015.0,2.0
4.0,-247.0,-3.0,53.0,6.0,-8.0,-1.0,-1017.0,4.0
2.0,-249.0,0.0,53.0,8.0,-9.0,-2.0,-1020.0,2.0
7.0,-250.0,-5.0,54.0,10.0,-9.0,-3.0,-1020.0,7.0
1.0,-249.0,-2.0,55.0,12.0,-9.0,-1.0,-1014.0,7.0
2.0,-247.0,-4.0,55.0,13.0,-10.0,-2.0,-1017.0,6.0
0.0,-248.0,-2.0,55.0,16.0,-10.0,-2.0,-1020.0,5.0
5.0,-250.0,-7.0,55.0,17.0,-11.0,-2.0,-1019.0,1.0
12.0,-251.0,-4.0,54.0,15.0,-11.0,-2.0,-1025.0,0.0
3.0,-246.0,1.0,54.0,16.0,-11.0,-1.0,-1019.0,-1.0
2.0,-249.0,-6.0,52.0,16.0,-10.0,-2.0,-1021.0,1.0
3.0,-248.0,-4.0,51.0,15.0,-9.0,-4.0,-1022.0,-5.0
4.0,-249.0,-6.0,51.0,14.0,-10.0,0.0,-1021.0,-3.0
4.0,-248.0,-2.0,50.0,14.0,-12.0,-1.0,-1021.0,0.0
4.0,-249.0,-5.0,49.0,14.0,-13.0,2.0,-1018.0,-5.0
3.0,-250.0,-7.0,50.0,13.0,-12.0,-1.0,-1019.0,-3.0
2.0,-249.0,-3.0,50.0,13.0,-11.0,-1.0,-1017.0,-6.0
2.0,-249.0,-6.0,51.0,11.0,-11.0,-3.0,-1021.0,-5.0
2.0,-247.0,-6.0,51.0,12.0,-10.0,-2.0,-1020.0,-3.0
1.0,-248.0,-8.0,52.0,12.0,-9.0,0.0,-1021.0,-7.0
3.0,-248.0,-5.0,52.0,13.0,-8.0,2.0,-1016.0,-16.0
3.0,-248.0,-4.0,52.0,13.0,-10.0,0.0,-1016.0,-5.0
4.0,-246.0,-4.0,52.0,14.0,-11.0,1.0,-1017.0,-3.0
2.0,-249.0,0.0,50.0,13.0,-9.0,-1.0,-1017.0,-13.0
2.0,-248.0,-2.0,51.0,13.0,-10.0,0.0,-1017.0,-4.0
6.0,-246.0,-6.0,52.0,14.0,-9.0,-2.0,-1017.0,-7.0
5.0,-249.0,-3.0,51.0,14.0,-10.0,0.0,-1019.0,-8.0
3.0,-245.0,-5.0,51.0,13.0,-9.0,2.0,-1017.0,2.0
3.0,-248.0,-1.0,51.0,13.0,-10.0,-3.0,-1020.0,-8.0
5.0,-248.0,-1.0,50.0,13.0,-11.0,-1.0,-1019.0,-3.0
1.0,-253.0,-3.0,49.0,13.0,-11.0,-6.0,-1025.0,-5.0
1.0,-247.0,-5.0,48.0,12.0,-12.0,0.0,-1022.0,-4.0
5.0,-252.0,-2.0,47.0,12.0,-12.0,-3.0,-1023.0,2.0
2.0,-249.0,-4.0,49.0,11.0,-10.0,-1.0,-1020.0,1.0
6.0,-249.0,-1.0,50.0,12.0,-10.0,-2.0,-1022.0,1.0
3.0,-248.0,0.0,50.0,11.0,-11.0,-8.0,-1026.0,-1.0
1.0,-250.0,-1.0,51.0,12.0,-12.0,-1.0,-1019.0,3.0
4.0,-247.0,-9.0,51.0,13.0,-11.0,-1.0,-1026.0,6.0
2.0,-251.0,-6.0,51.0,13.0,-10.0,1.0,-1022.0,2.0
4.0,-247.0,-9.0,52.0,13.0,-9.0,2.0,-1021.0,6.0
2.0,-245.0,-4.0,51.0,12.0,-11.0,0.0,-1021.0,-4.0
5.0,-246.0,-2.0,52.0,14.0,-10.0,-4.0,-1019.0,-1.0
2.0,-248.0,-3.0,51.0,14.0,-9.0,-4.0,-1021.0,-5.0
1.0,-248.0,-4.0,50.0,13.0,-9.0,1.0,-1024.0,0.0
2.0,-247.0,-4.0,50.0,11.0,-7.0,-2.0,-1017.0,1.0
4.0,-248.0,-5.0,47.0,11.0,-8.0,-1.0,-1018.0,-9.0
3.0,-250.0,-6.0,46.0,10.0,-10.0,-2.0,-1018.0,0.0
5.0,-250.0,-4.0,48.0,9.0,-10.0,-3.0,-1013.0,0.0
3.0,-248.0,-6.0,50.0,9.0,-11.0,-4.0,-1019.0,-3.0
2.0,-248.0,-3.0,51.0,9.0,-10.0,-2.0,-1026.0,-2.0
2.0,-249.0,-1.0,52.0,9.0,-12.0,-8.0,-1019.0,-2.0
13.0,-252.0,-6.0,54.0,10.0,-12.0,-3.0,-1021.0,0.0
4.0,-251.0,-3.0,55.0,11.0,-11.0,-5.0,-1023.0,1.0
6.0,-249.0,-7.0,55.0,10.0,-10.0,-3.0,-1021.0,4.0
2.0,-249.0,1.0,55.0,10.0,-12.0,-3.0,-1026.0,5.0
4.0,-249.0,-3.0,56.0,13.0,-10.0,-3.0,-1020.0,-1.0
3.0,-250.0,-4.0,54.0,12.0,-11.0,-2.0,-1018.0,1.0
4.0,-250.0,-5.0,56.0,13.0,-10.0,-6.0,-1021.0,1.0
2.0,-246.0,-1.0,55.0,11.0,-9.0,-6.0,-1013.0,0.0
4.0,-249.0,-2.0,55.0,13.0,-10.0,-2.0,-1019.0,-1.0
4.0,-247.0,-3.0,55.0,12.0,-10.0,-1.0,-1014.0,-5.0
6.0,-251.0,-2.0,55.0,12.0,-8.0,1.0,-1020.0,-2.0
1.0,-250.0,0.0,56.0,12.0,-10.0,-3.0,-1022.0,-1.0
4.0,-248.0,0.0,55.0,12.0,-10.0,-3.0,-1022.0,-1.0
4.0,-248.0,-6.0,55.0,11.0,-9.0,-5.0,-1018.0,2.0
2.0,-248.0,-7.0,55.0,13.0,-10.0,0.0,-1017.0,-3.0
6.0,-250.0,-1.0,54.0,12.0,-9.0,1.0,-1018.0,-1.0
5.0,-247.0,-6.0,54.0,14.0,-10.0,-6.0,-1021.0,-4.0
1.0,-248.0,-3.0,52.0,12.0,-10.0,1.0,-1024.0,-1.0
5.0,-249.0,-3.0,52.0,12.0,-9.0,-2.0,-1018.0,-2.0
4.0,-248.0,-2.0,51.0,13.0,-10.0,1.0,-1022.0,0.0
6.0,-249.0,-6.0,52.0,13.0,-11.0,-3.0,-1017.0,-1.0
4.0,-255.0,1.0,51.0,13.0,-10.0,0.0,-1024.0,0.0
3.0,-249.0,-4.0,52.0,13.0,-10.0,1.0,-1020.0,0.0
6.0,-249.0,-4.0,53.0,13.0,-9.0,-2.0,-1020.0,-1.0
4.0,-249.0,-4.0,54.0,13.0,-11.0,0.0,-1015.0,2.0
5.0,-250.0,0.0,54.0,13.0,-10.0,-3.0,-1016.0,-2.0
4.0,-249.0,-6.0,53.0,13.0,-10.0,-1.0,-1019.0,-2.0
3.0,-249.0,-7.0,52.0,11.0,-13.0,-2.0,-1025.0,-3.0
3.0,-248.0,-5.0,50.0,11.0,-12.0,-5.0,-1017.0,-2.0
4.0,-249.0,-10.0,51.0,12.0,-12.0,-2.0,-1020.0,3.0
2.0,-249.0,-5.0,51.0,12.0,-11.0,1.0,-1022.0,0.0
6.0,-246.0,-1.0,51.0,13.0,-11.0,-4.0,-1016.0,-1.0
10.0,-253.0,-1.0,52.0,14.0,-12.0,-5.0,-1017.0,2.0
1.0,-247.0,0.0,52.0,14.0,-12.0,-3.0,-1020.0,-1.0
4.0,-251.0,-5.0,52.0,15.0,-13.0,-8.0,-1021.0,0.0
2.0,-252.0,-1.0,52.0,14.0,-14.0,-3.0,-1024.0,-2.0
4.0,-249.0,-3.0,53.0,14.0,-11.0,-4.0,-1025.0,1.0
5.0,-250.0,-1.0,54.0,15.0,-11.0,-3.0,-1022.0,1.0
2.0,-247.0,-9.0,53.0,15.0,-11.0,-5.0,-1019.0,1.0
2.0,-250.0,-3.0,54.0,14.0,-11.0,0.0,-1019.0,-4.0
3.0,-248.0,-4.0,53.0,13.0,-10.0,0.0,-1021.0,-4.0
6.0,-248.0,-4.0,52.0,14.0,-10.0,-3.0,-1023.0,-4.0
6.0,-249.0,-9.0,53.0,14.0,-11.0,-1.0,-1023.0,-4.0
2.0,-245.0,-4.0,52.0,12.0,-10.0,-2.0,-1025.0,-2.0
2.0,-250.0,-1.0,52.0,13.0,-10.0,0.0,-1019.0,1.0
4.0,-248.0,-3.0,52.0,13.0,-11.0,-2.0,-1022.0,-1.0
3.0,-246.0,-5.0,52.0,12.0,-11.0,-2.0,-1021.0,-1.0
3.0,-249.0,-4.0,53.0,12.0,-11.0,2.0,-1019.0,-2.0
7.0,-253.0,-6.0,53.0,13.0,-9.0,-5.0,-1021.0,-2.0
4.0,-247.0,-4.0,54.0,12.0,-10.0,-1.0,-1018.0,-1.0
4.0,-247.0,-4.0,54.0,13.0,-9.0,-4.0,-1018.0,-1.0
2.0,-250.0,-5.0,53.0,13.0,-9.0,1.0,-1019.0,-5.0
4.0,-251.0,-7.0,53.0,13.0,-9.0,-5.0,-1020.0,-1.0
2.0,-249.0,-3.0,53.0,13.0,-10.0,-1.0,-1016.0,-1.0
5.0,-249.0,-4.0,53.0,12.0,-10.0,-1.0,-1018.0,-2.0
5.0,-248.0,-2.0,53.0,12.0,-11.0,-3.0,-1017.0,1.0
2.0,-248.0,-6.0,53.0,12.0,-12.0,-1.0,-1021.0,-2.0
5.0,-251.0,-6.0,51.0,12.0,-11.0,-2.0,-1025.0,-1.0
5.0,-247.0,-2.0,52.0,11.0,-10.0,-9.0,-1019.0,0.0
2.0,-248.0,-2.0,52.0,12.0,-11.0,-2.0,-1018.0,-2.0
4.0,-251.0,-1.0,52.0,12.0,-10.0,2.0,-1020.0,-1.0
3.0,-246.0,-7.0,52.0,12.0,-11.0,-6.0,-1018.0,-1.0
7.0,-248.0,-3.0,51.0,12.0,-11.0,-5.0,-1018.0,-6.0
3.0,-247.0,-3.0,52.0,13.0,-11.0,-2.0,-1020.0,-1.0
7.0,-250.0,-9.0,52.0,13.0,-11.0,-3.0,-1019.0,2.0
3.0,-251.0,-6.0,52.0,14.0,-12.0,-3.0,-1019.0,-3.0
2.0,-249.0,-4.0,53.0,14.0,-12.0,-6.0,-1026.0,-1.0
2.0,-248.0,-6.0,53.0,15.0,-12.0,-4.0,-1022.0,-1.0
2.0,-248.0,-4.0,54.0,15.0,-11.0,3.0,-1025.0,0.0
2.0,-250.0,-2.0,55.0,15.0,-11.0,-4.0,-1021.0,-5.0
2.0,-247.0,-7.0,55.0,15.0,-10.0,1.0,-1018.0,3.0
6.0,-249.0,-5.0,58.0,15.0,-10.0,-4.0,-1021.0,3.0
2.0,-249.0,-4.0,57.0,14.0,-10.0,-4.0,-1017.0,0.0
4.0,-248.0,-5.0,57.0,14.0,-12.0,-1.0,-1016.0,0.0
3.0,-249.0,-3.0,56.0,13.0,-11.0,-1.0,-1017.0,-2.0
14.0,-244.0,-7.0,55.0,13.0,-11.0,-3.0,-1017.0,1.0
2.0,-248.0,-4.0,53.0,12.0,-10.0,-4.0,-1018.0,2.0
1.0,-249.0,-6.0,49.0,12.0,-10.0,-1.0,-1018.0,1.0
3.0,-247.0,0.0,46.0,10.0,-10.0,0.0,-1010.0,-2.0
2.0,-249.0,-5.0,43.0,10.0,-11.0,0.0,-1019.0,0.0
5.0,-247.0,-5.0,42.0,9.0,-12.0,-5.0,-1020.0,-5.0
2.0,-248.0,-2.0,42.0,9.0,-12.0,-2.0,-1020.0,-1.0
3.0,-246.0,-4.0,42.0,10.0,-12.0,-6.0,-1020.0,-2.0
5.0,-248.0,-5.0,44.0,9.0,-11.0,-8.0,-1021.0,1.0
7.0,-251.0,1.0,44.0,10.0,-10.0,-5.0,-1020.0,1.0
4.0,-255.0,1.0,47.0,12.0,-9.0,2.0,-1021.0,-2.0
4.0,-253.0,0.0,48.0,12.0,-11.0,2.0,-1020.0,2.0
2.0,-249.0,-4.0,50.0,14.0,-12.0,-1.0,-1025.0,1.0
5.0,-252.0,-3.0,52.0,14.0,-11.0,-2.0,-1024.0,4.0
5.0,-249.0,-8.0,54.0,16.0,-12.0,0.0,-1028.0,0.0
5.0,-250.0,-4.0,56.0,16.0,-11.0,-2.0,-1022.0,-4.0
7.0,-251.0,-4.0,58.0,16.0,-12.0,2.0,-1018.0,-3.0
7.0,-250.0,-5.0,59.0,15.0,-11.0,-1.0,-1021.0,-8.0
6.0,-251.0,-6.0,60.0,14.0,-12.0,-1.0,-1020.0,-7.0
5.0,-246.0,-4.0,61.0,13.0,-9.0,3.0,-1015.0,-13.0
6.0,-251.0,-4.0,61.0,11.0,-9.0,1.0,-1013.0,-8.0
7.0,-249.0,-2.0,59.0,9.0,-7.0,3.0,-1021.0,-8.0
4.0,-250.0,-5.0,58.0,7.0,-7.0,1.0,-1021.0,-8.0
5.0,-248.0,-6.0,58.0,6.0,-9.0,-2.0,-1016.0,-3.0
5.0,-245.0,-3.0,55.0,6.0,-9.0,3.0,-1020.0,0.0
6.0,-248.0,-4.0,54.0,6.0,-8.0,-3.0,-1014.0,0.0
2.0,-250.0,-1.0,55.0,6.0,-6.0,-6.0,-1018.0,-1.0
3.0,-247.0,0.0,57.0,7.0,-9.0,-2.0,-1018.0,9.0
2.0,-248.0,-4.0,56.0,11.0,-8.0,-4.0,-1021.0,-1.0
4.0,-253.0,-5.0,58.0,14.0,-9.0,-5.0,-1017.0,6.0
5.0,-251.0,-1.0,58.0,16.0,-9.0,-1.0,-1020.0,5.0
3.0,-251.0,-2.0,59.0,17.0,-10.0,-5.0,-1013.0,1.0
6.0,-245.0,-7.0,59.0,19.0,-10.0,-2.0,-1022.0,8.0
4.0,-247.0,-5.0,58.0,19.0,-11.0,-5.0,-1019.0,7.0
2.0,-250.0,-4.0,58.0,19.0,-10.0,-5.0,-1022.0,2.0
3.0,-247.0,-4.0,56.0,18.0,-10.0,-2.0,-1022.0,0.0
6.0,-249.0,-7.0,54.0,16.0,-12.0,4.0,-1019.0,-2.0
5.0,-249.0,-9.0,53.0,16.0,-9.0,1.0,-1018.0,3.0
2.0,-248.0,-7.0,52.0,15.0,-10.0,-4.0,-1024.0,-3.0
6.0,-252.0,-1.0,51.0,14.0,-10.0,5.0,-1021.0,0.0
5.0,-248.0,0.0,52.0,13.0,-12.0,1.0,-1019.0,-1.0
5.0,-247.0,-7.0,53.0,12.0,-10.0,-2.0,-1017.0,-2.0
10.0,-247.0,-3.0,52.0,12.0,-10.0,0.0,-1019.0,-2.0
5.0,-251.0,-2.0,53.0,12.0,-11.0,-4.0,-1023.0,-2.0
2.0,-249.0,-4.0,52.0,12.0,-9.0,1.0,-1017.0,-3.0
4.0,-249.0,-2.0,52.0,12.0,-11.0,-2.0,-1014.0,-4.0
2.0,-245.0,-5.0,51.0,12.0,-11.0,-2.0,-1026.0,-4.0
5.0,-250.0,-5.0,52.0,15.0,-11.0,-4.0,-1018.0,-8.0
3.0,-249.0,-5.0,52.0,16.0,-10.0,-2.0,-1014.0,-10.0
3.0,-248.0,-9.0,53.0,15.0,-9.0,-3.0,-1019.0,0.0
2.0,-246.0,-3.0,54.0,16.0,-10.0,1.0,-1017.0,2.0
4.0,-247.0,-4.0,54.0,15.0,-9.0,-3.0,-1018.0,-3.0
4.0,-249.0,-7.0,54.0,15.0,-8.0,1.0,-1018.0,0.0
3.0,-250.0,-10.0,52.0,15.0,-9.0,-3.0,-1017.0,-1.0
3.0,-250.0,-1.0,53.0,15.0,-8.0,-5.0,-1020.0,-1.0
3.0,-248.0,-2.0,52.0,14.0,-9.0,-6.0,-1021.0,-1.0
3.0,-247.0,-2.0,50.0,13.0,-7.0,-4.0,-1017.0,-1.0
4.0,-251.0,-2.0,49.0,12.0,-7.0,-2.0,-1022.0,1.0
4.0,-248.0,-3.0,49.0,13.0,-8.0,2.0,-1021.0,2.0
5.0,-250.0,-1.0,49.0,13.0,-9.0,1.0,-1020.0,1.0
6.0,-249.0,-5.0,49.0,13.0,-8.0,-2.0,-1019.0,-1.0
4.0,-249.0,-2.0,51.0,12.0,-9.0,-2.0,-1022.0,0.0
1.0,-251.0,-2.0,52.0,13.0,-10.0,-2.0,-1019.0,-2.0
5.0,-249.0,-2.0,53.0,13.0,-12.0,-3.0,-1019.0,0.0
3.0,-245.0,4.0,52.0,13.0,-11.0,-6.0,-1019.0,-3.0
2.0,-249.0,-3.0,51.0,13.0,-12.0,-5.0,-1019.0,-2.0
4.0,-250.0,-6.0,51.0,14.0,-11.0,-5.0,-1016.0,1.0
4.0,-247.0,-2.0,53.0,12.0,-8.0,-5.0,-1021.0,0.0
2.0,-247.0,-3.0,52.0,11.0,-9.0,-2.0,-1020.0,2.0
6.0,-250.0,-2.0,51.0,12.0,-9.0,-4.0,-1018.0,-1.0
4.0,-251.0,-2.0,50.0,11.0,-9.0,-4.0,-1022.0,-2.0
1.0,-247.0,-2.0,51.0,11.0,-10.0,-4.0,-1020.0,0.0
2.0,-248.0,-2.0,50.0,11.0,-9.0,-6.0,-1020.0,0.0
3.0,-249.0,-4.0,51.0,11.0,-9.0,0.0,-1020.0,2.0
5.0,-252.0,-3.0,51.0,10.0,-11.0,-6.0,-1022.0,0.0
3.0,-248.0,-4.0,52.0,10.0,-10.0,-6.0,-1020.0,2.0
2.0,-250.0,0.0,53.0,12.0,-8.0,-3.0,-1020.0,5.0
2.0,-247.0,-7.0,53.0,11.0,-10.0,4.0,-1023.0,0.0
3.0,-251.0,-6.0,53.0,13.0,-9.0,1.0,-1021.0,3.0
1.0,-248.0,-2.0,53.0,12.0,-10.0,-2.0,-1020.0,-3.0
2.0,-250.0,-3.0,55.0,13.0,-8.0,-3.0,-1021.0,1.0
3.0,-249.0,-1.0,54.0,14.0,-8.0,-3.0,-1021.0,1.0
2.0,-246.0,-6.0,56.0,13.0,-8.0,0.0,-1020.0,-1.0
4.0,-251.0,-2.0,56.0,12.0,-9.0,0.0,-1023.0,2.0
4.0,-250.0,-5.0,56.0,12.0,-9.0,0.0,-1022.0,0.0
9.0,-250.0,-3.0,57.0,12.0,-8.0,-3.0,-1025.0,0.0
7.0,-250.0,-3.0,57.0,12.0,-8.0,1.0,-1021.0,2.0
5.0,-247.0,-5.0,55.0,11.0,-9.0,-2.0,-1018.0,3.0
5.0,-248.0,-5.0,55.0,11.0,-10.0,-6.0,-1022.0,0.0
4.0,-248.0,-1.0,53.0,11.0,-9.0,2.0,-1016.0,4.0
5.0,-249.0,-5.0,52.0,12.0,-8.0,-1.0,-1020.0,-3.0
5.0,-250.0,-3.0,52.0,11.0,-9.0,-2.0,-1018.0,1.0
6.0,-248.0,-2.0,51.0,12.0,-8.0,2.0,-1022.0,1.0
5.0,-246.0,-6.0,51.0,12.0,-9.0,0.0,-1018.0,-1.0
3.0,-247.0,-5.0,51.0,12.0,-8.0,-2.0,-1017.0,3.0
4.0,-247.0,-6.0,51.0,13.0,-9.0,0.0,-1015.0,-2.0
4.0,-249.0,-5.0,52.0,13.0,-8.0,3.0,-1018.0,4.0
4.0,-252.0,-3.0,51.0,14.0,-9.0,-4.0,-1019.0,5.0
5.0,-251.0,-3.0,52.0,13.0,-8.0,1.0,-1022.0,1.0
2.0,-250.0,0.0,52.0,12.0,-9.0,1.0,-1023.0,2.0
2.0,-251.0,-5.0,51.0,13.0,-9.0,-2.0,-1019.0,-2.0
6.0,-251.0,-5.0,52.0,13.0,-10.0,-4.0,-1021.0,-5.0
3.0,-250.0,-8.0,52.0,12.0,-10.0,-2.0,-1020.0,0.0
2.0,-247.0,-7.0,52.0,13.0,-9.0,0.0,-1020.0,0.0
2.0,-250.0,-4.0,53.0,11.0,-10.0,0.0,-1021.0,4.0
10.0,-250.0,-2.0,53.0,11.0,-10.0,1.0,-1017.0,-1.0
9.0,-246.0,-3.0,52.0,10.0,-10.0,-3.0,-1021.0,4.0
4.0,-248.0,-1.0,53.0,11.0,-9.0,0.0,-1021.0,1.0
1.0,-248.0,-2.0,52.0,11.0,-9.0,-5.0,-1018.0,1.0
4.0,-248.0,-2.0,51.0,10.0,-8.0,-8.0,-1021.0,-3.0
5.0,-248.0,-3.0,51.0,12.0,-9.0,-6.0,-1019.0,2.0
1.0,-249.0,-3.0,51.0,12.0,-9.0,-4.0,-1017.0,4.0
3.0,-249.0,-2.0,50.0,14.0,-10.0,-1.0,-1019.0,2.0
4.0,-251.0,-4.0,52.0,13.0,-9.0,-3.0,-1018.0,-6.0
6.0,-247.0,-8.0,52.0,13.0,-8.0,-2.0,-1015.0,3.0
4.0,-249.0,-10.0,52.0,14.0,-9.0,-2.0,-1021.0,-4.0
