acc1_x,acc1_y,acc1_z,gyro_x,gyro_y,gyro_z,acc2_x,acc2_y,acc2_z
6.0,-231.0,-67.0,-21.0,-682.0,-203.0,2.0,-951.0,-259.0
9.0,-231.0,-68.0,-2.0,-690.0,-175.0,17.0,-951.0,-256.0
11.0,-230.0,-66.0,16.0,-694.0,-150.0,27.0,-947.0,-260.0
14.0,-228.0,-63.0,32.0,-696.0,-130.0,36.0,-945.0,-251.0
20.0,-227.0,-67.0,45.0,-696.0,-116.0,51.0,-943.0,-250.0
25.0,-232.0,-69.0,49.0,-693.0,-105.0,58.0,-948.0,-252.0
24.0,-229.0,-63.0,49.0,-685.0,-97.0,64.0,-951.0,-253.0
23.0,-231.0,-70.0,43.0,-678.0,-94.0,66.0,-951.0,-272.0
21.0,-231.0,-68.0,32.0,-669.0,-97.0,78.0,-955.0,-267.0
26.0,-236.0,-75.0,18.0,-662.0,-103.0,78.0,-959.0,-283.0
25.0,-236.0,-81.0,4.0,-656.0,-106.0,79.0,-973.0,-279.0
23.0,-240.0,-76.0,-6.0,-652.0,-112.0,77.0,-987.0,-289.0
21.0,-240.0,-75.0,-15.0,-650.0,-119.0,74.0,-989.0,-301.0
21.0,-242.0,-76.0,-21.0,-647.0,-125.0,73.0,-999.0,-292.0
19.0,-250.0,-74.0,-25.0,-645.0,-131.0,56.0,-1010.0,-289.0
16.0,-246.0,-81.0,-28.0,-642.0,-137.0,56.0,-1018.0,-283.0
26.0,-253.0,-77.0,-27.0,-638.0,-144.0,52.0,-1030.0,-286.0
13.0,-254.0,-68.0,-24.0,-631.0,-149.0,30.0,-1046.0,-273.0
10.0,-252.0,-69.0,-24.0,-626.0,-154.0,22.0,-1038.0,-261.0
9.0,-256.0,-63.0,-23.0,-623.0,-157.0,17.0,-1054.0,-255.0
2.0,-254.0,-67.0,-20.0,-624.0,-161.0,3.0,-1051.0,-244.0
1.0,-256.0,-63.0,-16.0,-631.0,-167.0,-8.0,-1052.0,-243.0
-4.0,-255.0,-61.0,-7.0,-638.0,-172.0,-27.0,-1055.0,-232.0
-5.0,-253.0,-60.0,3.0,-647.0,-175.0,-34.0,-1048.0,-228.0
-4.0,-256.0,-60.0,16.0,-656.0,-178.0,-46.0,-1036.0,-228.0
-6.0,-250.0,-58.0,30.0,-661.0,-182.0,-46.0,-1030.0,-226.0
-11.0,-249.0,-67.0,40.0,-666.0,-184.0,-47.0,-1022.0,-235.0
-3.0,-246.0,-63.0,47.0,-668.0,-186.0,-38.0,-1018.0,-235.0
-3.0,-248.0,-65.0,57.0,-668.0,-185.0,-32.0,-1007.0,-242.0
-1.0,-245.0,-63.0,67.0,-663.0,-188.0,-21.0,-1008.0,-243.0
0.0,-242.0,-64.0,77.0,-658.0,-187.0,-21.0,-1000.0,-239.0
1.0,-248.0,-61.0,87.0,-654.0,-191.0,-8.0,-1006.0,-233.0
0.0,-248.0,-61.0,91.0,-654.0,-196.0,-12.0,-1004.0,-217.0
-3.0,-246.0,-55.0,95.0,-660.0,-205.0,-22.0,-999.0,-211.0
-10.0,-247.0,-56.0,102.0,-676.0,-214.0,-34.0,-1000.0,-197.0
-11.0,-242.0,-48.0,110.0,-700.0,-222.0,-58.0,-1006.0,-197.0
-18.0,-246.0,-52.0,122.0,-731.0,-230.0,-82.0,-1003.0,-183.0
-26.0,-248.0,-48.0,136.0,-770.0,-235.0,-103.0,-1002.0,-192.0
-28.0,-243.0,-44.0,151.0,-810.0,-241.0,-121.0,-1006.0,-182.0
-31.0,-247.0,-48.0,171.0,-855.0,-245.0,-133.0,-1003.0,-180.0
-32.0,-245.0,-50.0,192.0,-894.0,-248.0,-141.0,-996.0,-180.0
-33.0,-245.0,-50.0,216.0,-930.0,-251.0,-148.0,-1002.0,-180.0
-33.0,-245.0,-46.0,239.0,-960.0,-251.0,-150.0,-999.0,-177.0
-31.0,-244.0,-50.0,258.0,-983.0,-250.0,-140.0,-991.0,-179.0
-27.0,-238.0,-48.0,272.0,-1000.0,-249.0,-130.0,-991.0,-178.0
-25.0,-240.0,-48.0,283.0,-1010.0,-245.0,-119.0,-986.0,-183.0
-24.0,-240.0,-56.0,289.0,-1018.0,-241.0,-109.0,-976.0,-184.0
-17.0,-236.0,-48.0,290.0,-1023.0,-237.0,-96.0,-975.0,-189.0
-15.0,-237.0,-50.0,290.0,-1029.0,-229.0,-76.0,-965.0,-199.0
-9.0,-235.0,-55.0,292.0,-1037.0,-219.0,-56.0,-974.0,-201.0
-3.0,-236.0,-55.0,294.0,-1045.0,-205.0,-43.0,-969.0,-207.0
0.0,-238.0,-58.0,302.0,-1055.0,-187.0,-21.0,-966.0,-209.0
5.0,-242.0,-60.0,315.0,-1062.0,-168.0,4.0,-971.0,-223.0
5.0,-236.0,-60.0,330.0,-1068.0,-146.0,9.0,-976.0,-220.0
9.0,-238.0,-59.0,346.0,-1073.0,-126.0,21.0,-975.0,-225.0
11.0,-237.0,-65.0,358.0,-1080.0,-109.0,35.0,-975.0,-244.0
19.0,-238.0,-69.0,361.0,-1086.0,-94.0,42.0,-974.0,-263.0
18.0,-238.0,-72.0,353.0,-1089.0,-81.0,60.0,-977.0,-282.0
26.0,-242.0,-81.0,334.0,-1083.0,-73.0,72.0,-991.0,-309.0
24.0,-245.0,-88.0,303.0,-1073.0,-70.0,84.0,-1007.0,-335.0
31.0,-252.0,-101.0,260.0,-1055.0,-75.0,95.0,-1030.0,-382.0
34.0,-261.0,-108.0,211.0,-1031.0,-86.0,106.0,-1059.0,-421.0
33.0,-265.0,-121.0,163.0,-994.0,-106.0,120.0,-1092.0,-466.0
43.0,-275.0,-130.0,119.0,-942.0,-133.0,137.0,-1130.0,-510.0
49.0,-286.0,-136.0,89.0,-860.0,-170.0,160.0,-1171.0,-543.0
57.0,-294.0,-144.0,76.0,-745.0,-213.0,188.0,-1195.0,-569.0
61.0,-295.0,-140.0,85.0,-607.0,-261.0,217.0,-1210.0,-563.0
67.0,-296.0,-130.0,114.0,-463.0,-314.0,240.0,-1211.0,-530.0
69.0,-295.0,-122.0,152.0,-331.0,-365.0,240.0,-1185.0,-489.0
60.0,-279.0,-118.0,190.0,-224.0,-410.0,226.0,-1151.0,-441.0
56.0,-273.0,-98.0,214.0,-157.0,-443.0,198.0,-1121.0,-395.0
48.0,-264.0,-91.0,223.0,-125.0,-464.0,174.0,-1089.0,-348.0
39.0,-257.0,-80.0,218.0,-123.0,-476.0,140.0,-1060.0,-292.0
31.0,-255.0,-67.0,208.0,-136.0,-484.0,101.0,-1033.0,-269.0
19.0,-244.0,-64.0,198.0,-160.0,-488.0,66.0,-1012.0,-242.0
9.0,-244.0,-63.0,193.0,-188.0,-487.0,28.0,-985.0,-234.0
6.0,-239.0,-61.0,196.0,-219.0,-480.0,-3.0,-960.0,-232.0
-6.0,-223.0,-64.0,209.0,-256.0,-469.0,-43.0,-928.0,-240.0
-17.0,-217.0,-66.0,227.0,-302.0,-454.0,-69.0,-894.0,-244.0
-28.0,-200.0,-63.0,245.0,-353.0,-436.0,-101.0,-857.0,-259.0
-30.0,-201.0,-71.0,259.0,-408.0,-413.0,-127.0,-819.0,-279.0
-38.0,-192.0,-75.0,261.0,-473.0,-390.0,-156.0,-800.0,-295.0
-42.0,-189.0,-79.0,252.0,-523.0,-365.0,-166.0,-777.0,-312.0
-42.0,-186.0,-81.0,231.0,-567.0,-339.0,-166.0,-778.0,-327.0
-42.0,-187.0,-90.0,200.0,-603.0,-317.0,-165.0,-781.0,-347.0
-37.0,-191.0,-92.0,160.0,-632.0,-294.0,-160.0,-792.0,-352.0
-39.0,-194.0,-89.0,108.0,-654.0,-274.0,-147.0,-806.0,-365.0
-36.0,-199.0,-93.0,72.0,-672.0,-256.0,-148.0,-825.0,-370.0
-28.0,-207.0,-93.0,43.0,-689.0,-237.0,-133.0,-844.0,-376.0
-25.0,-207.0,-95.0,22.0,-702.0,-218.0,-114.0,-868.0,-380.0
-23.0,-213.0,-91.0,6.0,-710.0,-198.0,-102.0,-886.0,-380.0
-16.0,-217.0,-99.0,-4.0,-711.0,-180.0,-83.0,-910.0,-376.0
-11.0,-227.0,-98.0,-12.0,-708.0,-165.0,-58.0,-933.0,-380.0
-7.0,-232.0,-98.0,-14.0,-703.0,-154.0,-40.0,-949.0,-386.0
0.0,-232.0,-99.0,-12.0,-697.0,-149.0,-22.0,-956.0,-383.0
-2.0,-234.0,-100.0,-6.0,-688.0,-147.0,-14.0,-963.0,-388.0
3.0,-243.0,-100.0,6.0,-678.0,-144.0,-2.0,-978.0,-395.0
2.0,-237.0,-103.0,17.0,-666.0,-148.0,6.0,-979.0,-388.0
7.0,-244.0,-100.0,27.0,-651.0,-155.0,11.0,-982.0,-391.0
9.0,-241.0,-97.0,34.0,-638.0,-160.0,18.0,-983.0,-393.0
12.0,-240.0,-103.0,39.0,-623.0,-166.0,26.0,-981.0,-391.0
12.0,-240.0,-96.0,38.0,-606.0,-173.0,26.0,-975.0,-397.0
8.0,-236.0,-100.0,33.0,-590.0,-180.0,23.0,-975.0,-393.0
11.0,-236.0,-100.0,32.0,-578.0,-186.0,30.0,-962.0,-393.0
11.0,-237.0,-96.0,33.0,-568.0,-188.0,29.0,-955.0,-389.0
10.0,-232.0,-101.0,36.0,-556.0,-189.0,30.0,-949.0,-386.0
12.0,-229.0,-102.0,38.0,-544.0,-188.0,32.0,-943.0,-395.0
11.0,-229.0,-95.0,34.0,-525.0,-183.0,25.0,-942.0,-387.0
10.0,-226.0,-94.0,29.0,-508.0,-175.0,20.0,-927.0,-386.0
5.0,-225.0,-91.0,30.0,-495.0,-164.0,11.0,-926.0,-378.0
6.0,-223.0,-92.0,29.0,-486.0,-150.0,7.0,-918.0,-368.0
5.0,-222.0,-98.0,20.0,-480.0,-135.0,0.0,-922.0,-368.0
1.0,-217.0,-97.0,7.0,-475.0,-121.0,-3.0,-921.0,-368.0
0.0,-223.0,-91.0,-8.0,-470.0,-105.0,-10.0,-926.0,-374.0
0.0,-227.0,-98.0,-20.0,-468.0,-86.0,-19.0,-931.0,-371.0
-4.0,-227.0,-92.0,-26.0,-466.0,-66.0,-25.0,-943.0,-369.0
-1.0,-232.0,-92.0,-25.0,-461.0,-49.0,-26.0,-943.0,-363.0
-4.0,-230.0,-90.0,-20.0,-457.0,-30.0,-30.0,-948.0,-354.0
-5.0,-231.0,-88.0,-6.0,-451.0,-13.0,-40.0,-956.0,-352.0
-7.0,-231.0,-87.0,11.0,-444.0,-2.0,-46.0,-950.0,-344.0
-8.0,-233.0,-87.0,26.0,-438.0,9.0,-51.0,-946.0,-345.0
-12.0,-232.0,-88.0,38.0,-433.0,18.0,-51.0,-950.0,-340.0
-8.0,-230.0,-87.0,45.0,-431.0,26.0,-58.0,-945.0,-347.0
-13.0,-231.0,-85.0,46.0,-430.0,29.0,-54.0,-940.0,-339.0
-11.0,-225.0,-87.0,46.0,-431.0,30.0,-56.0,-933.0,-336.0
-11.0,-227.0,-87.0,45.0,-436.0,32.0,-54.0,-926.0,-342.0
-15.0,-223.0,-86.0,39.0,-441.0,29.0,-66.0,-924.0,-344.0
-14.0,-221.0,-88.0,31.0,-448.0,23.0,-70.0,-921.0,-341.0
-15.0,-221.0,-83.0,25.0,-460.0,17.0,-68.0,-913.0,-343.0
-18.0,-221.0,-88.0,11.0,-472.0,10.0,-76.0,-916.0,-343.0
-20.0,-219.0,-84.0,-2.0,-486.0,2.0,-88.0,-910.0,-345.0
-21.0,-220.0,-92.0,-18.0,-500.0,-7.0,-93.0,-917.0,-347.0
-23.0,-222.0,-91.0,-32.0,-513.0,-20.0,-99.0,-916.0,-354.0
-26.0,-219.0,-91.0,-43.0,-521.0,-33.0,-102.0,-919.0,-360.0
-21.0,-220.0,-87.0,-59.0,-526.0,-45.0,-111.0,-917.0,-367.0
-26.0,-224.0,-89.0,-71.0,-523.0,-57.0,-116.0,-912.0,-358.0
-24.0,-222.0,-87.0,-71.0,-519.0,-66.0,-115.0,-919.0,-348.0
-24.0,-222.0,-92.0,-69.0,-510.0,-73.0,-110.0,-916.0,-355.0
-25.0,-219.0,-87.0,-75.0,-499.0,-82.0,-109.0,-912.0,-347.0
-24.0,-222.0,-87.0,-78.0,-487.0,-88.0,-108.0,-910.0,-344.0
-24.0,-215.0,-88.0,-77.0,-479.0,-96.0,-111.0,-906.0,-343.0
-26.0,-216.0,-84.0,-81.0,-472.0,-107.0,-108.0,-907.0,-343.0
-21.0,-213.0,-85.0,-93.0,-466.0,-113.0,-105.0,-898.0,-337.0
-23.0,-217.0,-88.0,-100.0,-461.0,-118.0,-103.0,-898.0,-334.0
-21.0,-215.0,-88.0,-107.0,-459.0,-122.0,-100.0,-891.0,-328.0
-15.0,-217.0,-87.0,-113.0,-460.0,-120.0,-90.0,-900.0,-334.0
-15.0,-221.0,-85.0,-122.0,-461.0,-125.0,-88.0,-915.0,-339.0
-15.0,-224.0,-83.0,-140.0,-462.0,-127.0,-80.0,-919.0,-330.0
-13.0,-225.0,-80.0,-149.0,-461.0,-125.0,-69.0,-936.0,-324.0
-8.0,-233.0,-82.0,-154.0,-457.0,-123.0,-53.0,-947.0,-320.0
-2.0,-236.0,-80.0,-154.0,-444.0,-122.0,-38.0,-965.0,-318.0
1.0,-240.0,-79.0,-152.0,-427.0,-120.0,-25.0,-977.0,-306.0
3.0,-243.0,-79.0,-146.0,-405.0,-119.0,-9.0,-993.0,-306.0
3.0,-246.0,-82.0,-139.0,-382.0,-120.0,0.0,-1009.0,-306.0
5.0,-246.0,-79.0,-125.0,-357.0,-124.0,10.0,-1007.0,-299.0
10.0,-251.0,-75.0,-104.0,-330.0,-128.0,10.0,-1026.0,-302.0
5.0,-255.0,-79.0,-81.0,-300.0,-135.0,21.0,-1044.0,-307.0
10.0,-254.0,-78.0,-63.0,-271.0,-142.0,24.0,-1051.0,-308.0
13.0,-257.0,-79.0,-48.0,-244.0,-148.0,31.0,-1056.0,-321.0
13.0,-256.0,-82.0,-32.0,-221.0,-153.0,34.0,-1053.0,-325.0
13.0,-257.0,-82.0,-13.0,-197.0,-156.0,32.0,-1057.0,-328.0
10.0,-256.0,-81.0,2.0,-179.0,-158.0,21.0,-1058.0,-329.0
7.0,-254.0,-87.0,15.0,-163.0,-155.0,15.0,-1052.0,-333.0
4.0,-256.0,-85.0,26.0,-151.0,-151.0,-1.0,-1049.0,-331.0
-1.0,-253.0,-81.0,41.0,-146.0,-147.0,-18.0,-1032.0,-331.0
-5.0,-247.0,-80.0,59.0,-149.0,-139.0,-38.0,-1023.0,-321.0
-10.0,-247.0,-85.0,82.0,-153.0,-131.0,-57.0,-1014.0,-316.0
-14.0,-243.0,-78.0,105.0,-160.0,-124.0,-82.0,-1001.0,-310.0
-21.0,-240.0,-75.0,122.0,-165.0,-117.0,-95.0,-987.0,-307.0
-26.0,-237.0,-77.0,132.0,-167.0,-110.0,-105.0,-983.0,-301.0
-25.0,-236.0,-79.0,133.0,-168.0,-105.0,-126.0,-977.0,-296.0
-27.0,-236.0,-73.0,132.0,-164.0,-98.0,-125.0,-962.0,-291.0
-30.0,-232.0,-73.0,132.0,-156.0,-94.0,-127.0,-959.0,-281.0
-30.0,-234.0,-72.0,135.0,-146.0,-94.0,-129.0,-963.0,-285.0
-31.0,-232.0,-68.0,138.0,-139.0,-92.0,-132.0,-954.0,-273.0
-31.0,-227.0,-73.0,144.0,-133.0,-96.0,-128.0,-946.0,-274.0
-31.0,-226.0,-71.0,153.0,-129.0,-100.0,-129.0,-938.0,-280.0
-37.0,-222.0,-65.0,158.0,-126.0,-106.0,-132.0,-924.0,-286.0
-30.0,-222.0,-74.0,162.0,-127.0,-112.0,-138.0,-920.0,-290.0
-32.0,-222.0,-76.0,160.0,-130.0,-122.0,-146.0,-911.0,-292.0
-33.0,-218.0,-71.0,154.0,-135.0,-130.0,-149.0,-911.0,-298.0
-34.0,-217.0,-77.0,147.0,-143.0,-139.0,-144.0,-907.0,-302.0
-33.0,-218.0,-77.0,137.0,-154.0,-150.0,-138.0,-908.0,-296.0
-33.0,-218.0,-74.0,130.0,-163.0,-163.0,-142.0,-910.0,-299.0
-33.0,-217.0,-75.0,123.0,-172.0,-176.0,-130.0,-910.0,-289.0
-30.0,-214.0,-73.0,117.0,-174.0,-191.0,-132.0,-908.0,-292.0
-34.0,-217.0,-78.0,111.0,-171.0,-208.0,-122.0,-910.0,-287.0
-21.0,-223.0,-73.0,103.0,-163.0,-221.0,-113.0,-906.0,-288.0
-23.0,-223.0,-72.0,90.0,-149.0,-237.0,-104.0,-915.0,-285.0
-15.0,-224.0,-71.0,74.0,-133.0,-250.0,-92.0,-926.0,-284.0
-15.0,-226.0,-76.0,58.0,-113.0,-263.0,-74.0,-941.0,-287.0
-10.0,-234.0,-72.0,41.0,-94.0,-275.0,-57.0,-955.0,-287.0
-6.0,-239.0,-77.0,31.0,-78.0,-288.0,-49.0,-977.0,-291.0
-3.0,-241.0,-71.0,26.0,-62.0,-301.0,-30.0,-991.0,-289.0
0.0,-247.0,-82.0,30.0,-48.0,-315.0,-23.0,-1003.0,-295.0
4.0,-244.0,-79.0,38.0,-33.0,-324.0,-7.0,-1013.0,-300.0
10.0,-249.0,-84.0,49.0,-17.0,-327.0,17.0,-1023.0,-314.0
13.0,-251.0,-79.0,56.0,-1.0,-327.0,33.0,-1022.0,-323.0
15.0,-252.0,-84.0,62.0,13.0,-321.0,43.0,-1029.0,-326.0
9.0,-246.0,-91.0,69.0,18.0,-314.0,49.0,-1031.0,-337.0
16.0,-254.0,-91.0,80.0,14.0,-307.0,38.0,-1024.0,-351.0
11.0,-250.0,-90.0,96.0,0.0,-299.0,37.0,-1018.0,-358.0
12.0,-251.0,-93.0,114.0,-17.0,-294.0,36.0,-1017.0,-361.0
10.0,-249.0,-96.0,130.0,-29.0,-289.0,24.0,-1018.0,-364.0
9.0,-248.0,-91.0,143.0,-36.0,-282.0,23.0,-1014.0,-362.0
7.0,-246.0,-91.0,150.0,-35.0,-279.0,27.0,-1002.0,-351.0
12.0,-246.0,-91.0,156.0,-31.0,-272.0,25.0,-1002.0,-347.0
9.0,-245.0,-91.0,155.0,-23.0,-266.0,25.0,-1001.0,-353.0
7.0,-244.0,-93.0,149.0,-18.0,-259.0,24.0,-995.0,-355.0
6.0,-242.0,-91.0,139.0,-17.0,-251.0,9.0,-990.0,-367.0
3.0,-235.0,-91.0,129.0,-21.0,-245.0,6.0,-978.0,-370.0
0.0,-236.0,-94.0,121.0,-32.0,-239.0,-9.0,-967.0,-382.0
-3.0,-231.0,-95.0,116.0,-45.0,-230.0,-25.0,-956.0,-373.0
-2.0,-230.0,-97.0,113.0,-55.0,-221.0,-30.0,-955.0,-370.0
-8.0,-226.0,-92.0,109.0,-64.0,-209.0,-38.0,-940.0,-367.0
-9.0,-227.0,-91.0,104.0,-73.0,-199.0,-50.0,-937.0,-358.0
-14.0,-225.0,-92.0,96.0,-83.0,-183.0,-53.0,-927.0,-346.0
-16.0,-220.0,-90.0,84.0,-92.0,-169.0,-57.0,-925.0,-340.0
-13.0,-224.0,-82.0,69.0,-103.0,-154.0,-62.0,-923.0,-335.0
-15.0,-221.0,-85.0,51.0,-115.0,-139.0,-69.0,-930.0,-335.0
-12.0,-224.0,-92.0,32.0,-126.0,-124.0,-69.0,-925.0,-336.0
-16.0,-227.0,-83.0,14.0,-136.0,-110.0,-67.0,-935.0,-331.0
-15.0,-226.0,-80.0,-4.0,-146.0,-96.0,-62.0,-936.0,-333.0
-7.0,-230.0,-84.0,-16.0,-151.0,-85.0,-56.0,-946.0,-326.0
-5.0,-229.0,-82.0,-24.0,-153.0,-74.0,-46.0,-952.0,-324.0
-5.0,-234.0,-78.0,-21.0,-152.0,-65.0,-33.0,-957.0,-320.0
-2.0,-235.0,-80.0,-12.0,-153.0,-61.0,-22.0,-962.0,-317.0
3.0,-236.0,-78.0,1.0,-152.0,-56.0,-13.0,-964.0,-303.0
2.0,-234.0,-74.0,15.0,-150.0,-53.0,-2.0,-972.0,-310.0
3.0,-235.0,-83.0,31.0,-152.0,-54.0,11.0,-976.0,-311.0
14.0,-240.0,-79.0,46.0,-151.0,-56.0,22.0,-971.0,-305.0
5.0,-234.0,-81.0,59.0,-152.0,-58.0,30.0,-967.0,-315.0
13.0,-236.0,-81.0,71.0,-151.0,-61.0,35.0,-965.0,-321.0
14.0,-235.0,-86.0,83.0,-148.0,-67.0,37.0,-961.0,-328.0
13.0,-234.0,-85.0,93.0,-148.0,-73.0,40.0,-955.0,-336.0
16.0,-231.0,-87.0,100.0,-144.0,-77.0,46.0,-951.0,-331.0
16.0,-229.0,-86.0,104.0,-141.0,-83.0,49.0,-943.0,-334.0
15.0,-228.0,-87.0,103.0,-136.0,-86.0,46.0,-940.0,-335.0
13.0,-224.0,-82.0,98.0,-129.0,-85.0,47.0,-935.0,-336.0
16.0,-225.0,-87.0,89.0,-118.0,-84.0,56.0,-935.0,-338.0
23.0,-226.0,-86.0,74.0,-108.0,-82.0,60.0,-936.0,-331.0
27.0,-230.0,-79.0,57.0,-93.0,-79.0,69.0,-938.0,-318.0
26.0,-232.0,-80.0,41.0,-76.0,-76.0,68.0,-944.0,-322.0
21.0,-229.0,-81.0,28.0,-61.0,-73.0,72.0,-947.0,-319.0
20.0,-228.0,-77.0,20.0,-45.0,-70.0,65.0,-952.0,-320.0
22.0,-231.0,-82.0,12.0,-31.0,-65.0,69.0,-955.0,-313.0
22.0,-232.0,-81.0,8.0,-18.0,-62.0,60.0,-956.0,-321.0
20.0,-236.0,-84.0,6.0,-7.0,-60.0,67.0,-958.0,-322.0
18.0,-234.0,-80.0,5.0,3.0,-57.0,63.0,-963.0,-327.0
22.0,-235.0,-85.0,4.0,11.0,-54.0,65.0,-969.0,-329.0
20.0,-237.0,-80.0,4.0,18.0,-51.0,63.0,-969.0,-323.0
22.0,-239.0,-76.0,4.0,26.0,-47.0,59.0,-972.0,-326.0
20.0,-235.0,-83.0,6.0,32.0,-44.0,62.0,-979.0,-315.0
16.0,-242.0,-86.0,10.0,36.0,-41.0,61.0,-977.0,-325.0
19.0,-238.0,-79.0,13.0,38.0,-40.0,59.0,-977.0,-318.0
16.0,-236.0,-83.0,16.0,39.0,-38.0,55.0,-976.0,-314.0
15.0,-237.0,-79.0,19.0,40.0,-36.0,56.0,-967.0,-315.0
16.0,-238.0,-77.0,23.0,39.0,-36.0,48.0,-971.0,-301.0
14.0,-235.0,-78.0,25.0,38.0,-35.0,37.0,-975.0,-303.0
12.0,-236.0,-79.0,27.0,36.0,-34.0,34.0,-971.0,-303.0
10.0,-233.0,-73.0,28.0,34.0,-33.0,33.0,-966.0,-301.0
15.0,-237.0,-73.0,30.0,31.0,-32.0,29.0,-978.0,-296.0
10.0,-235.0,-73.0,31.0,29.0,-30.0,25.0,-965.0,-296.0
8.0,-234.0,-80.0,32.0,29.0,-31.0,26.0,-965.0,-290.0
6.0,-234.0,-74.0,33.0,27.0,-32.0,30.0,-970.0,-294.0
14.0,-235.0,-76.0,36.0,26.0,-32.0,25.0,-971.0,-300.0
12.0,-232.0,-77.0,38.0,27.0,-33.0,33.0,-967.0,-288.0
13.0,-238.0,-75.0,42.0,29.0,-34.0,35.0,-967.0,-291.0
14.0,-236.0,-71.0,48.0,32.0,-36.0,39.0,-974.0,-286.0
14.0,-238.0,-71.0,52.0,36.0,-37.0,40.0,-969.0,-286.0
17.0,-237.0,-74.0,56.0,41.0,-40.0,41.0,-971.0,-277.0
13.0,-237.0,-66.0,61.0,44.0,-42.0,43.0,-969.0,-274.0
16.0,-239.0,-74.0,65.0,47.0,-44.0,46.0,-971.0,-280.0
17.0,-237.0,-71.0,67.0,50.0,-44.0,47.0,-969.0,-279.0
15.0,-238.0,-66.0,70.0,52.0,-46.0,40.0,-974.0,-279.0
11.0,-238.0,-78.0,70.0,52.0,-48.0,47.0,-967.0,-279.0
16.0,-238.0,-70.0,71.0,51.0,-48.0,40.0,-968.0,-286.0
16.0,-235.0,-76.0,72.0,51.0,-48.0,42.0,-969.0,-290.0
15.0,-237.0,-75.0,74.0,51.0,-47.0,39.0,-965.0,-290.0
16.0,-237.0,-74.0,76.0,52.0,-46.0,42.0,-961.0,-304.0
15.0,-234.0,-74.0,77.0,54.0,-43.0,40.0,-967.0,-295.0
13.0,-233.0,-73.0,77.0,55.0,-41.0,42.0,-967.0,-291.0
13.0,-236.0,-72.0,76.0,56.0,-39.0,36.0,-966.0,-288.0
10.0,-234.0,-76.0,74.0,56.0,-34.0,38.0,-972.0,-294.0
12.0,-237.0,-72.0,72.0,54.0,-30.0,35.0,-972.0,-283.0
12.0,-237.0,-74.0,70.0,51.0,-26.0,30.0,-968.0,-289.0
15.0,-239.0,-64.0,70.0,48.0,-24.0,33.0,-976.0,-288.0
11.0,-238.0,-76.0,71.0,46.0,-20.0,36.0,-975.0,-296.0
13.0,-238.0,-72.0,73.0,43.0,-17.0,30.0,-975.0,-293.0
13.0,-237.0,-77.0,71.0,40.0,-15.0,32.0,-965.0,-290.0
10.0,-236.0,-77.0,72.0,37.0,-15.0,28.0,-971.0,-293.0
11.0,-234.0,-76.0,71.0,35.0,-12.0,33.0,-965.0,-300.0
12.0,-234.0,-77.0,69.0,31.0,-13.0,35.0,-966.0,-295.0
12.0,-235.0,-75.0,67.0,28.0,-14.0,35.0,-966.0,-305.0
9.0,-235.0,-76.0,64.0,26.0,-14.0,28.0,-966.0,-303.0
10.0,-234.0,-74.0,61.0,21.0,-15.0,27.0,-961.0,-307.0
13.0,-236.0,-82.0,57.0,17.0,-15.0,28.0,-966.0,-299.0
10.0,-236.0,-79.0,55.0,12.0,-18.0,23.0,-963.0,-300.0
9.0,-236.0,-77.0,51.0,8.0,-18.0,23.0,-969.0,-310.0
7.0,-237.0,-77.0,49.0,5.0,-18.0,24.0,-966.0,-308.0
10.0,-236.0,-76.0,47.0,2.0,-19.0,24.0,-968.0,-299.0
10.0,-238.0,-75.0,45.0,3.0,-20.0,23.0,-971.0,-297.0
5.0,-235.0,-81.0,44.0,-1.0,-20.0,24.0,-968.0,-299.0
8.0,-236.0,-73.0,43.0,-2.0,-19.0,21.0,-971.0,-293.0
9.0,-239.0,-76.0,45.0,-3.0,-21.0,21.0,-974.0,-290.0
8.0,-240.0,-76.0,46.0,-4.0,-22.0,24.0,-971.0,-297.0
8.0,-236.0,-76.0,50.0,-6.0,-22.0,23.0,-969.0,-294.0
8.0,-234.0,-75.0,52.0,-7.0,-22.0,22.0,-976.0,-296.0
10.0,-237.0,-78.0,54.0,-7.0,-21.0,29.0,-975.0,-297.0
10.0,-238.0,-75.0,58.0,-9.0,-20.0,25.0,-977.0,-288.0
10.0,-238.0,-74.0,61.0,-9.0,-21.0,31.0,-976.0,-292.0
13.0,-239.0,-76.0,66.0,-11.0,-22.0,33.0,-976.0,-291.0
13.0,-236.0,-74.0,70.0,-11.0,-23.0,32.0,-974.0,-287.0
12.0,-237.0,-72.0,73.0,-14.0,-24.0,36.0,-973.0,-292.0
15.0,-235.0,-75.0,78.0,-14.0,-24.0,33.0,-976.0,-291.0
13.0,-238.0,-72.0,80.0,-16.0,-26.0,41.0,-967.0,-302.0
13.0,-237.0,-74.0,80.0,-17.0,-25.0,38.0,-967.0,-290.0
15.0,-238.0,-75.0,82.0,-16.0,-27.0,38.0,-969.0,-291.0
9.0,-233.0,-76.0,82.0,-17.0,-27.0,39.0,-964.0,-289.0
13.0,-238.0,-74.0,84.0,-17.0,-31.0,42.0,-966.0,-290.0
15.0,-234.0,-75.0,84.0,-17.0,-32.0,37.0,-963.0,-291.0
14.0,-235.0,-71.0,86.0,-19.0,-33.0,34.0,-963.0,-288.0
13.0,-234.0,-74.0,82.0,-21.0,-32.0,36.0,-963.0,-297.0
14.0,-233.0,-77.0,80.0,-23.0,-33.0,38.0,-960.0,-287.0
12.0,-234.0,-75.0,79.0,-24.0,-32.0,37.0,-963.0,-294.0
14.0,-231.0,-79.0,78.0,-24.0,-33.0,34.0,-960.0,-291.0
14.0,-233.0,-78.0,79.0,-25.0,-34.0,35.0,-963.0,-295.0
13.0,-235.0,-77.0,79.0,-22.0,-33.0,35.0,-969.0,-292.0
11.0,-232.0,-74.0,77.0,-21.0,-33.0,38.0,-962.0,-295.0
12.0,-237.0,-84.0,74.0,-21.0,-34.0,36.0,-961.0,-292.0
13.0,-234.0,-73.0,72.0,-19.0,-34.0,34.0,-963.0,-295.0
11.0,-235.0,-73.0,67.0,-20.0,-33.0,38.0,-967.0,-290.0
13.0,-235.0,-76.0,65.0,-18.0,-32.0,34.0,-964.0,-291.0
14.0,-235.0,-74.0,62.0,-18.0,-34.0,37.0,-965.0,-290.0
11.0,-235.0,-71.0,61.0,-19.0,-32.0,34.0,-970.0,-295.0
12.0,-238.0,-75.0,60.0,-20.0,-32.0,36.0,-961.0,-289.0
12.0,-238.0,-80.0,61.0,-21.0,-33.0,35.0,-968.0,-298.0
16.0,-239.0,-78.0,62.0,-20.0,-31.0,37.0,-964.0,-294.0
16.0,-236.0,-74.0,62.0,-22.0,-30.0,32.0,-967.0,-293.0
15.0,-233.0,-73.0,62.0,-23.0,-28.0,34.0,-963.0,-296.0
13.0,-239.0,-73.0,62.0,-23.0,-29.0,35.0,-962.0,-286.0
11.0,-232.0,-75.0,58.0,-22.0,-28.0,35.0,-966.0,-288.0
12.0,-235.0,-73.0,57.0,-24.0,-26.0,36.0,-962.0,-286.0
15.0,-237.0,-75.0,55.0,-21.0,-24.0,36.0,-957.0,-288.0
16.0,-234.0,-73.0,54.0,-19.0,-25.0,37.0,-963.0,-290.0
16.0,-234.0,-75.0,54.0,-18.0,-24.0,37.0,-963.0,-288.0
13.0,-233.0,-73.0,52.0,-16.0,-23.0,36.0,-958.0,-289.0
15.0,-234.0,-76.0,50.0,-15.0,-24.0,41.0,-961.0,-281.0
14.0,-232.0,-73.0,47.0,-13.0,-23.0,37.0,-963.0,-285.0
15.0,-238.0,-73.0,43.0,-12.0,-23.0,42.0,-968.0,-292.0
14.0,-234.0,-74.0,41.0,-12.0,-23.0,35.0,-968.0,-295.0
16.0,-234.0,-75.0,41.0,-12.0,-23.0,41.0,-961.0,-293.0
14.0,-234.0,-79.0,44.0,-11.0,-23.0,37.0,-964.0,-300.0
15.0,-233.0,-75.0,45.0,-14.0,-22.0,39.0,-962.0,-302.0
14.0,-235.0,-77.0,45.0,-15.0,-21.0,33.0,-962.0,-303.0
13.0,-235.0,-75.0,46.0,-14.0,-21.0,36.0,-967.0,-304.0
13.0,-234.0,-75.0,45.0,-13.0,-20.0,34.0,-965.0,-302.0
13.0,-236.0,-74.0,46.0,-11.0,-20.0,35.0,-967.0,-300.0
17.0,-235.0,-74.0,45.0,-10.0,-19.0,36.0,-975.0,-294.0
13.0,-236.0,-79.0,43.0,-8.0,-18.0,37.0,-976.0,-294.0
16.0,-236.0,-75.0,44.0,-5.0,-18.0,38.0,-976.0,-297.0
13.0,-236.0,-74.0,43.0,-2.0,-18.0,41.0,-974.0,-296.0
13.0,-235.0,-77.0,42.0,1.0,-16.0,40.0,-976.0,-299.0
11.0,-244.0,-73.0,40.0,3.0,-15.0,41.0,-976.0,-302.0
16.0,-240.0,-71.0,41.0,5.0,-18.0,39.0,-978.0,-298.0
13.0,-237.0,-78.0,42.0,8.0,-15.0,38.0,-979.0,-294.0
14.0,-236.0,-74.0,43.0,11.0,-14.0,36.0,-978.0,-293.0
13.0,-238.0,-76.0,47.0,14.0,-12.0,38.0,-976.0,-291.0
13.0,-236.0,-79.0,51.0,17.0,-12.0,40.0,-974.0,-288.0
12.0,-236.0,-77.0,55.0,20.0,-10.0,37.0,-975.0,-287.0
11.0,-236.0,-81.0,59.0,23.0,-11.0,40.0,-973.0,-290.0
12.0,-232.0,-78.0,60.0,26.0,-10.0,39.0,-966.0,-286.0
10.0,-234.0,-75.0,59.0,28.0,-10.0,38.0,-976.0,-294.0
17.0,-238.0,-73.0,57.0,29.0,-10.0,37.0,-972.0,-294.0
10.0,-236.0,-79.0,55.0,32.0,-9.0,36.0,-965.0,-289.0
14.0,-235.0,-78.0,53.0,33.0,-9.0,38.0,-964.0,-292.0
14.0,-235.0,-76.0,52.0,35.0,-7.0,38.0,-967.0,-292.0
10.0,-233.0,-71.0,49.0,37.0,-6.0,39.0,-967.0,-293.0
13.0,-234.0,-76.0,48.0,39.0,-6.0,37.0,-971.0,-297.0
14.0,-236.0,-76.0,47.0,42.0,-8.0,37.0,-971.0,-292.0
12.0,-235.0,-73.0,45.0,43.0,-5.0,39.0,-969.0,-296.0
15.0,-238.0,-78.0,45.0,43.0,-6.0,40.0,-976.0,-295.0
11.0,-237.0,-75.0,45.0,44.0,-6.0,35.0,-968.0,-297.0
15.0,-236.0,-66.0,45.0,45.0,-6.0,39.0,-976.0,-284.0
13.0,-239.0,-69.0,47.0,44.0,-6.0,26.0,-974.0,-295.0
10.0,-235.0,-77.0,49.0,46.0,-6.0,38.0,-977.0,-289.0
13.0,-239.0,-75.0,52.0,47.0,-7.0,37.0,-979.0,-294.0
14.0,-242.0,-74.0,52.0,48.0,-6.0,34.0,-975.0,-289.0
12.0,-237.0,-75.0,53.0,48.0,-6.0,36.0,-977.0,-296.0
10.0,-238.0,-76.0,55.0,48.0,-8.0,33.0,-977.0,-292.0
13.0,-237.0,-74.0,56.0,47.0,-7.0,27.0,-974.0,-293.0
11.0,-235.0,-73.0,57.0,48.0,-7.0,23.0,-978.0,-289.0
12.0,-239.0,-76.0,56.0,49.0,-6.0,31.0,-971.0,-284.0
11.0,-236.0,-80.0,56.0,49.0,-5.0,31.0,-978.0,-286.0
9.0,-242.0,-75.0,55.0,52.0,-4.0,30.0,-978.0,-287.0
7.0,-239.0,-70.0,56.0,53.0,-3.0,28.0,-979.0,-285.0
8.0,-237.0,-72.0,57.0,54.0,-2.0,25.0,-979.0,-284.0
10.0,-239.0,-78.0,60.0,55.0,-2.0,29.0,-977.0,-281.0
13.0,-239.0,-72.0,64.0,56.0,-1.0,30.0,-975.0,-281.0
10.0,-236.0,-75.0,69.0,57.0,0.0,30.0,-975.0,-286.0
11.0,-240.0,-71.0,73.0,58.0,-1.0,30.0,-981.0,-286.0
10.0,-235.0,-73.0,75.0,59.0,-2.0,25.0,-973.0,-287.0
13.0,-236.0,-74.0,77.0,60.0,-1.0,27.0,-971.0,-288.0
5.0,-234.0,-78.0,77.0,61.0,0.0,27.0,-976.0,-289.0
12.0,-237.0,-74.0,78.0,62.0,-1.0,32.0,-973.0,-289.0
8.0,-234.0,-72.0,77.0,59.0,0.0,32.0,-968.0,-287.0
10.0,-240.0,-68.0,77.0,59.0,0.0,36.0,-972.0,-290.0
13.0,-236.0,-70.0,74.0,58.0,0.0,29.0,-972.0,-280.0
11.0,-235.0,-71.0,72.0,59.0,1.0,27.0,-976.0,-288.0
11.0,-238.0,-74.0,70.0,58.0,0.0,33.0,-979.0,-283.0
9.0,-236.0,-72.0,70.0,57.0,-1.0,30.0,-971.0,-285.0
10.0,-236.0,-74.0,71.0,56.0,-1.0,29.0,-965.0,-285.0
13.0,-237.0,-74.0,72.0,56.0,0.0,30.0,-975.0,-286.0
10.0,-239.0,-74.0,72.0,58.0,-1.0,26.0,-972.0,-284.0
9.0,-235.0,-70.0,73.0,59.0,-2.0,25.0,-970.0,-288.0
10.0,-235.0,-79.0,74.0,56.0,-3.0,28.0,-975.0,-292.0
13.0,-237.0,-69.0,75.0,57.0,-4.0,25.0,-969.0,-291.0
7.0,-231.0,-77.0,76.0,55.0,-4.0,26.0,-973.0,-283.0
10.0,-236.0,-74.0,75.0,55.0,-4.0,24.0,-974.0,-282.0
11.0,-238.0,-77.0,75.0,54.0,-5.0,30.0,-974.0,-283.0
10.0,-237.0,-76.0,74.0,55.0,-4.0,28.0,-976.0,-286.0
8.0,-238.0,-75.0,73.0,54.0,-3.0,26.0,-975.0,-285.0
7.0,-236.0,-76.0,72.0,54.0,-3.0,26.0,-971.0,-284.0
11.0,-238.0,-72.0,73.0,53.0,-2.0,28.0,-971.0,-284.0
12.0,-242.0,-72.0,73.0,52.0,-2.0,31.0,-975.0,-289.0
7.0,-235.0,-75.0,73.0,51.0,-1.0,34.0,-971.0,-285.0
14.0,-236.0,-73.0,72.0,49.0,-2.0,31.0,-971.0,-291.0
11.0,-239.0,-67.0,72.0,47.0,-2.0,26.0,-972.0,-286.0
11.0,-236.0,-74.0,72.0,48.0,-2.0,36.0,-964.0,-287.0
14.0,-237.0,-72.0,72.0,49.0,-3.0,33.0,-965.0,-284.0
10.0,-234.0,-73.0,70.0,49.0,-4.0,32.0,-969.0,-286.0
9.0,-237.0,-74.0,69.0,49.0,-4.0,35.0,-964.0,-282.0
13.0,-233.0,-77.0,69.0,48.0,-3.0,34.0,-968.0,-288.0
13.0,-237.0,-73.0,69.0,44.0,-6.0,28.0,-976.0,-289.0
14.0,-236.0,-73.0,69.0,44.0,-5.0,31.0,-976.0,-288.0
12.0,-238.0,-72.0,68.0,42.0,-5.0,32.0,-970.0,-281.0
12.0,-239.0,-72.0,68.0,40.0,-6.0,29.0,-969.0,-280.0
11.0,-237.0,-71.0,67.0,39.0,-7.0,33.0,-974.0,-279.0
8.0,-231.0,-79.0,66.0,37.0,-5.0,32.0,-972.0,-284.0
11.0,-238.0,-72.0,64.0,36.0,-5.0,28.0,-977.0,-288.0
11.0,-239.0,-69.0,63.0,38.0,-6.0,29.0,-979.0,-283.0
12.0,-237.0,-70.0,60.0,35.0,-7.0,28.0,-976.0,-286.0
8.0,-238.0,-71.0,62.0,35.0,-7.0,30.0,-978.0,-284.0
12.0,-237.0,-68.0,65.0,33.0,-9.0,29.0,-981.0,-282.0
14.0,-241.0,-69.0,66.0,34.0,-8.0,29.0,-976.0,-281.0
9.0,-237.0,-72.0,67.0,34.0,-8.0,29.0,-976.0,-281.0
8.0,-234.0,-74.0,67.0,33.0,-8.0,27.0,-971.0,-286.0
15.0,-242.0,-67.0,67.0,34.0,-9.0,24.0,-974.0,-283.0
14.0,-237.0,-71.0,67.0,34.0,-7.0,31.0,-977.0,-281.0
8.0,-241.0,-78.0,67.0,36.0,-9.0,31.0,-978.0,-283.0
9.0,-237.0,-72.0,68.0,35.0,-9.0,28.0,-979.0,-278.0
10.0,-239.0,-70.0,67.0,35.0,-9.0,28.0,-970.0,-276.0
12.0,-240.0,-74.0,68.0,35.0,-10.0,30.0,-980.0,-279.0
13.0,-239.0,-72.0,67.0,34.0,-10.0,30.0,-979.0,-277.0
9.0,-236.0,-69.0,69.0,33.0,-10.0,34.0,-975.0,-286.0
14.0,-239.0,-74.0,71.0,33.0,-9.0,35.0,-981.0,-279.0
13.0,-240.0,-72.0,71.0,34.0,-10.0,25.0,-977.0,-278.0
12.0,-236.0,-68.0,72.0,34.0,-9.0,30.0,-976.0,-280.0
10.0,-238.0,-76.0,72.0,33.0,-10.0,35.0,-970.0,-279.0
13.0,-239.0,-70.0,71.0,33.0,-11.0,28.0,-977.0,-282.0
11.0,-234.0,-69.0,70.0,31.0,-11.0,35.0,-970.0,-279.0
12.0,-235.0,-73.0,68.0,30.0,-12.0,30.0,-975.0,-281.0
11.0,-235.0,-72.0,67.0,29.0,-11.0,25.0,-976.0,-281.0
8.0,-237.0,-72.0,65.0,28.0,-12.0,31.0,-974.0,-272.0
14.0,-238.0,-70.0,65.0,28.0,-13.0,31.0,-976.0,-276.0
10.0,-240.0,-70.0,61.0,26.0,-13.0,31.0,-974.0,-272.0
10.0,-236.0,-72.0,61.0,26.0,-11.0,25.0,-982.0,-274.0
11.0,-239.0,-68.0,59.0,23.0,-12.0,30.0,-979.0,-281.0
8.0,-235.0,-77.0,61.0,19.0,-11.0,27.0,-979.0,-278.0
12.0,-238.0,-74.0,63.0,18.0,-12.0,25.0,-970.0,-285.0
9.0,-235.0,-69.0,66.0,16.0,-11.0,26.0,-973.0,-285.0
12.0,-236.0,-75.0,68.0,15.0,-11.0,30.0,-976.0,-288.0
10.0,-233.0,-72.0,69.0,15.0,-8.0,26.0,-973.0,-286.0
11.0,-233.0,-71.0,70.0,18.0,-9.0,26.0,-976.0,-280.0
11.0,-235.0,-71.0,70.0,18.0,-9.0,29.0,-969.0,-278.0
11.0,-234.0,-70.0,69.0,19.0,-10.0,29.0,-973.0,-281.0
12.0,-239.0,-70.0,67.0,18.0,-9.0,33.0,-975.0,-282.0
9.0,-236.0,-70.0,66.0,18.0,-12.0,35.0,-976.0,-283.0
10.0,-236.0,-71.0,63.0,18.0,-11.0,32.0,-974.0,-281.0
10.0,-241.0,-68.0,62.0,18.0,-11.0,28.0,-974.0,-276.0
10.0,-239.0,-68.0,63.0,20.0,-11.0,33.0,-978.0,-273.0
13.0,-238.0,-74.0,64.0,20.0,-11.0,30.0,-978.0,-274.0
19.0,-236.0,-71.0,64.0,20.0,-12.0,32.0,-976.0,-279.0
15.0,-238.0,-69.0,68.0,22.0,-9.0,31.0,-978.0,-270.0
10.0,-238.0,-74.0,70.0,23.0,-10.0,30.0,-979.0,-270.0
11.0,-239.0,-68.0,71.0,25.0,-9.0,35.0,-968.0,-268.0
11.0,-237.0,-72.0,71.0,25.0,-11.0,29.0,-976.0,-281.0
11.0,-236.0,-72.0,69.0,25.0,-11.0,31.0,-971.0,-273.0
10.0,-235.0,-70.0,66.0,23.0,-11.0,30.0,-978.0,-281.0
7.0,-235.0,-73.0,64.0,22.0,-13.0,30.0,-976.0,-274.0
9.0,-233.0,-71.0,62.0,21.0,-12.0,33.0,-972.0,-277.0
12.0,-240.0,-71.0,58.0,22.0,-12.0,29.0,-974.0,-280.0
12.0,-237.0,-71.0,57.0,21.0,-14.0,31.0,-976.0,-280.0
17.0,-237.0,-73.0,54.0,21.0,-12.0,24.0,-973.0,-275.0
11.0,-236.0,-73.0,52.0,22.0,-12.0,30.0,-972.0,-276.0
13.0,-239.0,-66.0,52.0,23.0,-10.0,31.0,-970.0,-276.0
13.0,-238.0,-67.0,50.0,24.0,-11.0,33.0,-973.0,-286.0
14.0,-235.0,-73.0,47.0,24.0,-9.0,32.0,-979.0,-282.0
12.0,-238.0,-71.0,46.0,25.0,-8.0,32.0,-974.0,-285.0
10.0,-236.0,-69.0,46.0,25.0,-10.0,32.0,-976.0,-280.0
13.0,-236.0,-69.0,46.0,26.0,-9.0,32.0,-973.0,-279.0
7.0,-237.0,-72.0,49.0,26.0,-10.0,35.0,-974.0,-278.0
12.0,-237.0,-69.0,49.0,26.0,-8.0,28.0,-972.0,-280.0
12.0,-239.0,-67.0,51.0,27.0,-9.0,29.0,-978.0,-284.0
9.0,-231.0,-78.0,53.0,28.0,-8.0,32.0,-977.0,-280.0
9.0,-237.0,-72.0,55.0,27.0,-9.0,22.0,-977.0,-282.0
8.0,-236.0,-72.0,56.0,29.0,-9.0,34.0,-975.0,-285.0
12.0,-238.0,-73.0,58.0,29.0,-9.0,34.0,-971.0,-285.0
12.0,-238.0,-70.0,58.0,28.0,-10.0,24.0,-975.0,-286.0
11.0,-237.0,-69.0,57.0,29.0,-11.0,27.0,-971.0,-287.0
10.0,-239.0,-74.0,57.0,28.0,-13.0,30.0,-970.0,-286.0
12.0,-240.0,-72.0,57.0,30.0,-13.0,25.0,-976.0,-284.0
10.0,-235.0,-75.0,55.0,29.0,-12.0,25.0,-977.0,-279.0
13.0,-242.0,-73.0,53.0,26.0,-15.0,22.0,-974.0,-276.0
11.0,-239.0,-76.0,52.0,25.0,-13.0,27.0,-977.0,-282.0
13.0,-240.0,-76.0,54.0,24.0,-13.0,23.0,-973.0,-282.0
9.0,-239.0,-70.0,53.0,22.0,-12.0,24.0,-977.0,-285.0
8.0,-239.0,-74.0,53.0,20.0,-14.0,20.0,-976.0,-289.0
11.0,-235.0,-71.0,53.0,21.0,-11.0,26.0,-975.0,-280.0
9.0,-238.0,-72.0,52.0,19.0,-12.0,24.0,-972.0,-283.0
9.0,-236.0,-72.0,51.0,19.0,-12.0,24.0,-975.0,-284.0
9.0,-236.0,-72.0,50.0,19.0,-14.0,23.0,-975.0,-283.0
12.0,-239.0,-74.0,49.0,18.0,-12.0,29.0,-968.0,-279.0
12.0,-242.0,-72.0,50.0,17.0,-13.0,29.0,-968.0,-285.0
9.0,-236.0,-77.0,50.0,16.0,-11.0,29.0,-976.0,-277.0
13.0,-236.0,-71.0,50.0,14.0,-11.0,29.0,-975.0,-283.0
14.0,-242.0,-73.0,49.0,12.0,-13.0,27.0,-974.0,-282.0
12.0,-237.0,-71.0,49.0,12.0,-12.0,27.0,-982.0,-283.0
12.0,-237.0,-73.0,46.0,12.0,-13.0,31.0,-977.0,-280.0
12.0,-240.0,-67.0,47.0,10.0,-15.0,34.0,-975.0,-278.0
13.0,-241.0,-72.0,48.0,10.0,-14.0,28.0,-976.0,-285.0
12.0,-237.0,-72.0,50.0,10.0,-14.0,31.0,-979.0,-276.0
9.0,-237.0,-68.0,52.0,11.0,-13.0,31.0,-979.0,-282.0
9.0,-238.0,-70.0,54.0,11.0,-12.0,32.0,-974.0,-278.0
12.0,-242.0,-71.0,56.0,9.0,-13.0,27.0,-974.0,-283.0
14.0,-241.0,-76.0,57.0,10.0,-15.0,32.0,-976.0,-286.0
9.0,-234.0,-74.0,55.0,12.0,-14.0,28.0,-971.0,-283.0
11.0,-237.0,-73.0,54.0,11.0,-13.0,32.0,-973.0,-283.0
12.0,-235.0,-70.0,53.0,10.0,-13.0,28.0,-975.0,-283.0
12.0,-239.0,-74.0,52.0,9.0,-14.0,28.0,-972.0,-280.0
11.0,-238.0,-71.0,53.0,10.0,-14.0,25.0,-971.0,-283.0
10.0,-237.0,-73.0,51.0,10.0,-13.0,30.0,-975.0,-280.0
12.0,-238.0,-70.0,51.0,10.0,-13.0,31.0,-971.0,-278.0
11.0,-237.0,-70.0,50.0,11.0,-12.0,34.0,-977.0,-281.0
14.0,-235.0,-71.0,49.0,11.0,-12.0,35.0,-973.0,-277.0
12.0,-237.0,-75.0,48.0,11.0,-13.0,31.0,-972.0,-281.0
6.0,-236.0,-73.0,46.0,11.0,-12.0,34.0,-975.0,-280.0
15.0,-238.0,-72.0,45.0,10.0,-12.0,33.0,-976.0,-279.0
12.0,-237.0,-72.0,43.0,12.0,-12.0,30.0,-979.0,-276.0
11.0,-235.0,-70.0,42.0,10.0,-12.0,30.0,-977.0,-276.0
13.0,-241.0,-71.0,43.0,13.0,-13.0,32.0,-979.0,-286.0
12.0,-237.0,-70.0,44.0,13.0,-13.0,32.0,-986.0,-274.0
13.0,-240.0,-70.0,44.0,13.0,-12.0,34.0,-975.0,-282.0
9.0,-237.0,-70.0,47.0,13.0,-12.0,33.0,-975.0,-280.0
10.0,-236.0,-73.0,48.0,12.0,-12.0,30.0,-978.0,-280.0
12.0,-239.0,-74.0,49.0,13.0,-11.0,33.0,-975.0,-284.0
8.0,-235.0,-74.0,49.0,11.0,-13.0,35.0,-980.0,-283.0
11.0,-234.0,-74.0,49.0,11.0,-13.0,33.0,-979.0,-272.0
16.0,-242.0,-75.0,47.0,10.0,-13.0,31.0,-971.0,-279.0
12.0,-238.0,-74.0,45.0,11.0,-13.0,36.0,-975.0,-280.0
13.0,-236.0,-72.0,44.0,11.0,-11.0,33.0,-971.0,-283.0
12.0,-236.0,-71.0,42.0,12.0,-12.0,29.0,-975.0,-279.0
11.0,-238.0,-67.0,43.0,14.0,-12.0,37.0,-976.0,-281.0
11.0,-234.0,-71.0,42.0,12.0,-13.0,32.0,-978.0,-281.0
9.0,-235.0,-70.0,43.0,12.0,-13.0,31.0,-978.0,-282.0
12.0,-236.0,-73.0,43.0,14.0,-14.0,34.0,-977.0,-278.0
11.0,-233.0,-73.0,45.0,15.0,-16.0,27.0,-975.0,-278.0
8.0,-234.0,-73.0,44.0,13.0,-16.0,30.0,-973.0,-282.0
10.0,-238.0,-72.0,44.0,14.0,-16.0,29.0,-977.0,-275.0
12.0,-241.0,-67.0,43.0,14.0,-16.0,31.0,-971.0,-282.0
11.0,-238.0,-72.0,41.0,14.0,-16.0,32.0,-964.0,-280.0
13.0,-235.0,-69.0,41.0,16.0,-14.0,27.0,-971.0,-284.0
11.0,-237.0,-73.0,40.0,16.0,-14.0,30.0,-973.0,-281.0
9.0,-233.0,-72.0,39.0,16.0,-14.0,34.0,-975.0,-281.0
11.0,-237.0,-74.0,39.0,17.0,-14.0,31.0,-976.0,-273.0
12.0,-237.0,-73.0,38.0,17.0,-13.0,32.0,-974.0,-274.0
9.0,-236.0,-70.0,37.0,17.0,-12.0,34.0,-977.0,-282.0
13.0,-241.0,-71.0,37.0,17.0,-12.0,34.0,-976.0,-277.0
10.0,-237.0,-70.0,38.0,17.0,-13.0,34.0,-976.0,-279.0
10.0,-238.0,-72.0,38.0,15.0,-12.0,31.0,-977.0,-281.0
9.0,-241.0,-68.0,38.0,14.0,-13.0,30.0,-979.0,-284.0
11.0,-238.0,-70.0,37.0,15.0,-14.0,32.0,-976.0,-284.0
11.0,-240.0,-72.0,37.0,14.0,-14.0,26.0,-984.0,-281.0
12.0,-243.0,-74.0,38.0,14.0,-14.0,27.0,-979.0,-280.0
8.0,-237.0,-71.0,40.0,14.0,-13.0,32.0,-977.0,-284.0
11.0,-239.0,-70.0,41.0,12.0,-15.0,29.0,-982.0,-280.0
10.0,-238.0,-73.0,42.0,10.0,-17.0,28.0,-977.0,-284.0
13.0,-240.0,-73.0,47.0,9.0,-19.0,26.0,-980.0,-289.0
8.0,-236.0,-70.0,50.0,7.0,-18.0,23.0,-977.0,-284.0
11.0,-237.0,-71.0,52.0,5.0,-18.0,26.0,-967.0,-292.0
12.0,-239.0,-74.0,54.0,4.0,-17.0,22.0,-975.0,-292.0
8.0,-231.0,-73.0,57.0,6.0,-17.0,27.0,-975.0,-286.0
10.0,-238.0,-72.0,59.0,6.0,-16.0,23.0,-972.0,-286.0
9.0,-237.0,-72.0,58.0,7.0,-16.0,26.0,-971.0,-286.0
10.0,-238.0,-71.0,55.0,8.0,-16.0,25.0,-973.0,-276.0
8.0,-235.0,-73.0,51.0,7.0,-16.0,31.0,-973.0,-281.0
15.0,-239.0,-70.0,48.0,7.0,-16.0,27.0,-975.0,-281.0
11.0,-237.0,-72.0,45.0,8.0,-18.0,27.0,-973.0,-282.0
14.0,-237.0,-71.0,44.0,9.0,-18.0,29.0,-974.0,-281.0
12.0,-240.0,-72.0,43.0,6.0,-18.0,26.0,-981.0,-282.0
10.0,-236.0,-76.0,44.0,8.0,-18.0,28.0,-978.0,-280.0
9.0,-238.0,-74.0,45.0,8.0,-16.0,30.0,-979.0,-279.0
10.0,-230.0,-69.0,45.0,7.0,-16.0,30.0,-978.0,-286.0
12.0,-238.0,-77.0,45.0,7.0,-14.0,25.0,-975.0,-281.0
8.0,-240.0,-72.0,46.0,10.0,-14.0,22.0,-980.0,-284.0
7.0,-236.0,-72.0,47.0,9.0,-14.0,20.0,-984.0,-283.0
12.0,-239.0,-74.0,49.0,7.0,-13.0,19.0,-977.0,-278.0
7.0,-235.0,-68.0,50.0,6.0,-14.0,20.0,-976.0,-277.0
9.0,-239.0,-72.0,49.0,7.0,-15.0,22.0,-980.0,-281.0
9.0,-235.0,-78.0,50.0,7.0,-15.0,21.0,-979.0,-276.0
10.0,-239.0,-69.0,51.0,7.0,-16.0,19.0,-975.0,-283.0
10.0,-241.0,-73.0,50.0,7.0,-14.0,26.0,-978.0,-280.0
11.0,-238.0,-72.0,49.0,9.0,-16.0,19.0,-977.0,-281.0
9.0,-241.0,-71.0,48.0,9.0,-17.0,24.0,-974.0,-286.0
8.0,-237.0,-73.0,47.0,8.0,-19.0,25.0,-980.0,-284.0
5.0,-237.0,-75.0,47.0,8.0,-17.0,21.0,-974.0,-282.0
7.0,-235.0,-73.0,48.0,7.0,-18.0,25.0,-976.0,-283.0
8.0,-236.0,-72.0,50.0,6.0,-19.0,27.0,-970.0,-285.0
8.0,-235.0,-69.0,51.0,5.0,-20.0,26.0,-976.0,-286.0
9.0,-237.0,-75.0,51.0,3.0,-20.0,18.0,-970.0,-284.0
12.0,-238.0,-76.0,52.0,1.0,-21.0,23.0,-971.0,-287.0
13.0,-239.0,-71.0,52.0,0.0,-21.0,19.0,-969.0,-280.0
9.0,-235.0,-75.0,51.0,0.0,-21.0,23.0,-972.0,-285.0
9.0,-238.0,-67.0,51.0,-1.0,-21.0,22.0,-967.0,-273.0
4.0,-236.0,-71.0,48.0,-2.0,-22.0,23.0,-963.0,-282.0
5.0,-234.0,-74.0,48.0,-2.0,-20.0,21.0,-970.0,-281.0
12.0,-238.0,-74.0,45.0,-2.0,-20.0,22.0,-977.0,-282.0
9.0,-239.0,-71.0,43.0,-2.0,-22.0,17.0,-971.0,-285.0
7.0,-235.0,-71.0,43.0,-1.0,-20.0,19.0,-971.0,-288.0
8.0,-237.0,-73.0,42.0,-1.0,-19.0,22.0,-976.0,-282.0
7.0,-235.0,-75.0,43.0,-1.0,-18.0,18.0,-979.0,-280.0
6.0,-234.0,-76.0,42.0,0.0,-17.0,22.0,-972.0,-285.0
8.0,-239.0,-71.0,43.0,3.0,-19.0,21.0,-974.0,-288.0
10.0,-237.0,-71.0,43.0,3.0,-20.0,19.0,-974.0,-287.0
12.0,-236.0,-74.0,43.0,3.0,-23.0,24.0,-973.0,-289.0
8.0,-235.0,-74.0,44.0,4.0,-22.0,23.0,-970.0,-287.0
11.0,-235.0,-74.0,43.0,5.0,-23.0,23.0,-970.0,-286.0
9.0,-235.0,-75.0,42.0,3.0,-25.0,20.0,-972.0,-286.0
10.0,-236.0,-76.0,40.0,3.0,-25.0,21.0,-968.0,-287.0
6.0,-236.0,-73.0,39.0,3.0,-26.0,18.0,-963.0,-286.0
9.0,-238.0,-73.0,40.0,0.0,-26.0,21.0,-967.0,-287.0
8.0,-235.0,-73.0,38.0,-3.0,-27.0,17.0,-970.0,-289.0
9.0,-235.0,-77.0,37.0,-6.0,-27.0,15.0,-967.0,-285.0
9.0,-238.0,-72.0,35.0,-8.0,-29.0,14.0,-967.0,-291.0
7.0,-234.0,-72.0,32.0,-9.0,-29.0,12.0,-969.0,-288.0
10.0,-237.0,-74.0,30.0,-9.0,-28.0,13.0,-966.0,-290.0
2.0,-235.0,-71.0,27.0,-8.0,-27.0,11.0,-965.0,-289.0
8.0,-237.0,-82.0,26.0,-8.0,-27.0,12.0,-968.0,-295.0
6.0,-236.0,-75.0,25.0,-9.0,-26.0,14.0,-970.0,-288.0
5.0,-236.0,-74.0,23.0,-8.0,-27.0,13.0,-964.0,-290.0
2.0,-230.0,-75.0,22.0,-7.0,-27.0,8.0,-962.0,-293.0
4.0,-235.0,-75.0,23.0,-6.0,-29.0,5.0,-966.0,-288.0
5.0,-238.0,-71.0,25.0,-5.0,-32.0,1.0,-961.0,-293.0
5.0,-239.0,-75.0,28.0,-6.0,-35.0,8.0,-963.0,-294.0
5.0,-234.0,-77.0,28.0,-4.0,-36.0,5.0,-968.0,-300.0
4.0,-231.0,-76.0,28.0,-2.0,-36.0,7.0,-963.0,-292.0
1.0,-233.0,-78.0,26.0,-4.0,-37.0,-1.0,-962.0,-294.0
3.0,-233.0,-76.0,26.0,-7.0,-35.0,3.0,-963.0,-293.0
3.0,-233.0,-76.0,25.0,-9.0,-36.0,1.0,-964.0,-291.0
3.0,-234.0,-73.0,23.0,-10.0,-35.0,1.0,-962.0,-291.0
4.0,-234.0,-77.0,23.0,-13.0,-36.0,-1.0,-965.0,-291.0
2.0,-233.0,-78.0,22.0,-14.0,-33.0,-1.0,-963.0,-296.0
6.0,-236.0,-77.0,22.0,-15.0,-33.0,0.0,-962.0,-300.0
3.0,-233.0,-72.0,22.0,-15.0,-31.0,0.0,-960.0,-297.0
0.0,-231.0,-83.0,21.0,-15.0,-31.0,-3.0,-960.0,-296.0
2.0,-235.0,-75.0,17.0,-15.0,-32.0,-3.0,-959.0,-297.0
1.0,-234.0,-71.0,13.0,-16.0,-32.0,-1.0,-961.0,-294.0
1.0,-234.0,-75.0,11.0,-17.0,-31.0,-4.0,-963.0,-303.0
1.0,-234.0,-77.0,10.0,-16.0,-31.0,-5.0,-960.0,-302.0
0.0,-234.0,-75.0,8.0,-17.0,-32.0,-3.0,-961.0,-304.0
3.0,-234.0,-80.0,6.0,-18.0,-31.0,-13.0,-960.0,-304.0
-1.0,-234.0,-78.0,3.0,-20.0,-31.0,-16.0,-959.0,-303.0
2.0,-234.0,-79.0,2.0,-23.0,-28.0,-15.0,-957.0,-302.0
1.0,-233.0,-78.0,1.0,-26.0,-27.0,-20.0,-959.0,-312.0
0.0,-230.0,-81.0,0.0,-29.0,-23.0,-20.0,-959.0,-309.0
-2.0,-234.0,-78.0,-3.0,-31.0,-21.0,-21.0,-957.0,-315.0
-1.0,-233.0,-77.0,-6.0,-32.0,-18.0,-15.0,-952.0,-309.0
0.0,-230.0,-84.0,-7.0,-33.0,-16.0,-16.0,-958.0,-313.0
5.0,-237.0,-72.0,-9.0,-33.0,-17.0,-9.0,-949.0,-321.0
0.0,-230.0,-83.0,-13.0,-33.0,-16.0,-11.0,-943.0,-323.0
1.0,-228.0,-84.0,-21.0,-32.0,-10.0,-12.0,-945.0,-324.0
1.0,-229.0,-87.0,-30.0,-27.0,-3.0,-3.0,-943.0,-330.0
4.0,-227.0,-82.0,-39.0,-24.0,3.0,-2.0,-931.0,-326.0
1.0,-221.0,-87.0,-49.0,-16.0,8.0,-9.0,-923.0,-336.0
1.0,-220.0,-85.0,-60.0,-11.0,14.0,-1.0,-913.0,-334.0
4.0,-216.0,-88.0,-74.0,-4.0,19.0,5.0,-912.0,-337.0
9.0,-220.0,-86.0,-89.0,8.0,26.0,17.0,-899.0,-339.0
9.0,-217.0,-86.0,-103.0,21.0,31.0,15.0,-885.0,-340.0
10.0,-213.0,-91.0,-119.0,35.0,38.0,22.0,-886.0,-352.0
14.0,-214.0,-88.0,-134.0,50.0,46.0,26.0,-875.0,-351.0
10.0,-209.0,-90.0,-149.0,65.0,56.0,35.0,-871.0,-350.0
15.0,-209.0,-89.0,-161.0,79.0,69.0,39.0,-865.0,-349.0
19.0,-210.0,-90.0,-169.0,91.0,84.0,40.0,-856.0,-351.0
16.0,-207.0,-92.0,-175.0,102.0,99.0,49.0,-852.0,-346.0
17.0,-207.0,-91.0,-181.0,108.0,117.0,49.0,-849.0,-342.0
18.0,-204.0,-83.0,-183.0,117.0,138.0,62.0,-852.0,-332.0
19.0,-207.0,-81.0,-184.0,122.0,157.0,64.0,-844.0,-322.0
26.0,-209.0,-82.0,-188.0,128.0,177.0,78.0,-846.0,-314.0
24.0,-207.0,-80.0,-194.0,131.0,196.0,78.0,-853.0,-304.0
25.0,-208.0,-78.0,-203.0,132.0,212.0,82.0,-852.0,-289.0
23.0,-210.0,-74.0,-214.0,128.0,224.0,78.0,-862.0,-283.0
25.0,-209.0,-72.0,-226.0,120.0,230.0,79.0,-871.0,-277.0
28.0,-210.0,-68.0,-236.0,108.0,236.0,80.0,-877.0,-277.0
24.0,-217.0,-72.0,-244.0,92.0,236.0,82.0,-891.0,-282.0
29.0,-216.0,-76.0,-246.0,81.0,236.0,86.0,-907.0,-283.0
27.0,-217.0,-75.0,-248.0,75.0,238.0,87.0,-913.0,-288.0
29.0,-224.0,-78.0,-243.0,74.0,240.0,92.0,-924.0,-287.0
24.0,-228.0,-72.0,-235.0,73.0,239.0,96.0,-940.0,-291.0
28.0,-234.0,-75.0,-224.0,76.0,235.0,97.0,-960.0,-290.0
24.0,-235.0,-74.0,-215.0,77.0,230.0,98.0,-979.0,-288.0
28.0,-250.0,-74.0,-204.0,81.0,223.0,88.0,-1005.0,-289.0
23.0,-250.0,-88.0,-198.0,86.0,214.0,83.0,-1038.0,-303.0
23.0,-258.0,-79.0,-194.0,86.0,199.0,76.0,-1073.0,-323.0
24.0,-265.0,-86.0,-195.0,85.0,188.0,83.0,-1101.0,-326.0
24.0,-275.0,-85.0,-199.0,83.0,174.0,80.0,-1122.0,-322.0
26.0,-279.0,-79.0,-197.0,81.0,162.0,87.0,-1142.0,-312.0
29.0,-286.0,-76.0,-185.0,81.0,153.0,84.0,-1156.0,-282.0
26.0,-284.0,-72.0,-164.0,83.0,143.0,82.0,-1170.0,-254.0
24.0,-289.0,-61.0,-135.0,85.0,134.0,78.0,-1174.0,-228.0
20.0,-287.0,-56.0,-107.0,86.0,124.0,73.0,-1181.0,-205.0
22.0,-290.0,-53.0,-82.0,80.0,107.0,73.0,-1181.0,-184.0
18.0,-294.0,-47.0,-63.0,67.0,89.0,65.0,-1185.0,-175.0
20.0,-288.0,-44.0,-53.0,46.0,65.0,60.0,-1179.0,-166.0
16.0,-287.0,-48.0,-49.0,21.0,41.0,61.0,-1178.0,-167.0
18.0,-287.0,-46.0,-45.0,-7.0,13.0,60.0,-1171.0,-173.0
18.0,-282.0,-51.0,-42.0,-25.0,-15.0,56.0,-1168.0,-195.0
16.0,-280.0,-56.0,-35.0,-39.0,-39.0,48.0,-1149.0,-209.0
14.0,-272.0,-62.0,-28.0,-51.0,-60.0,53.0,-1127.0,-222.0
18.0,-264.0,-64.0,-18.0,-62.0,-76.0,53.0,-1100.0,-233.0
18.0,-263.0,-63.0,-11.0,-71.0,-89.0,56.0,-1081.0,-243.0
22.0,-256.0,-65.0,-2.0,-75.0,-97.0,59.0,-1052.0,-254.0
19.0,-249.0,-63.0,-1.0,-76.0,-104.0,69.0,-1027.0,-255.0
30.0,-243.0,-52.0,-4.0,-71.0,-105.0,75.0,-1001.0,-261.0
26.0,-241.0,-65.0,-8.0,-64.0,-106.0,89.0,-977.0,-253.0
28.0,-236.0,-64.0,-11.0,-53.0,-101.0,101.0,-961.0,-241.0
35.0,-232.0,-58.0,-14.0,-41.0,-92.0,111.0,-943.0,-233.0
33.0,-224.0,-56.0,-12.0,-28.0,-82.0,122.0,-928.0,-218.0
40.0,-223.0,-54.0,-5.0,-19.0,-70.0,125.0,-913.0,-200.0
41.0,-216.0,-46.0,6.0,-13.0,-60.0,135.0,-906.0,-186.0
40.0,-214.0,-49.0,17.0,-15.0,-49.0,140.0,-880.0,-178.0
44.0,-217.0,-48.0,28.0,-19.0,-35.0,134.0,-870.0,-179.0
40.0,-213.0,-48.0,34.0,-31.0,-25.0,138.0,-869.0,-178.0
35.0,-207.0,-52.0,37.0,-46.0,-12.0,133.0,-868.0,-187.0
33.0,-212.0,-55.0,38.0,-62.0,-1.0,122.0,-876.0,-184.0
36.0,-212.0,-52.0,35.0,-77.0,10.0,116.0,-881.0,-187.0
31.0,-217.0,-52.0,36.0,-91.0,24.0,110.0,-894.0,-188.0
31.0,-217.0,-53.0,36.0,-103.0,37.0,101.0,-896.0,-187.0
27.0,-220.0,-52.0,41.0,-114.0,50.0,94.0,-914.0,-185.0
27.0,-224.0,-47.0,47.0,-121.0,61.0,80.0,-931.0,-180.0
24.0,-232.0,-50.0,59.0,-127.0,69.0,71.0,-943.0,-178.0
18.0,-231.0,-42.0,77.0,-131.0,77.0,60.0,-955.0,-178.0
16.0,-243.0,-49.0,101.0,-134.0,84.0,49.0,-971.0,-164.0
12.0,-242.0,-42.0,129.0,-139.0,89.0,37.0,-979.0,-160.0
10.0,-242.0,-47.0,165.0,-145.0,99.0,24.0,-992.0,-150.0
7.0,-244.0,-43.0,206.0,-153.0,108.0,17.0,-998.0,-152.0
8.0,-245.0,-46.0,246.0,-165.0,123.0,7.0,-1001.0,-165.0
1.0,-244.0,-51.0,281.0,-175.0,137.0,-8.0,-998.0,-172.0
-3.0,-243.0,-52.0,308.0,-188.0,153.0,-27.0,-993.0,-191.0
-3.0,-242.0,-58.0,322.0,-204.0,173.0,-32.0,-999.0,-206.0
-3.0,-241.0,-57.0,325.0,-222.0,193.0,-28.0,-992.0,-217.0
0.0,-242.0,-61.0,319.0,-238.0,216.0,-28.0,-995.0,-237.0
0.0,-244.0,-68.0,306.0,-253.0,241.0,-22.0,-996.0,-262.0
0.0,-241.0,-76.0,285.0,-261.0,262.0,-13.0,-995.0,-294.0
3.0,-245.0,-89.0,258.0,-258.0,283.0,-2.0,-1009.0,-336.0
5.0,-244.0,-100.0,224.0,-243.0,297.0,13.0,-1021.0,-380.0
13.0,-254.0,-109.0,187.0,-209.0,298.0,31.0,-1050.0,-433.0
16.0,-260.0,-125.0,148.0,-155.0,292.0,45.0,-1066.0,-489.0
21.0,-266.0,-136.0,113.0,-83.0,274.0,61.0,-1097.0,-548.0
26.0,-272.0,-150.0,87.0,-2.0,247.0,75.0,-1112.0,-588.0
30.0,-277.0,-160.0,72.0,85.0,206.0,89.0,-1131.0,-631.0
35.0,-280.0,-164.0,71.0,187.0,158.0,112.0,-1149.0,-651.0
42.0,-282.0,-167.0,82.0,302.0,99.0,131.0,-1158.0,-662.0
45.0,-281.0,-158.0,103.0,434.0,37.0,140.0,-1145.0,-632.0
48.0,-276.0,-147.0,131.0,567.0,-12.0,144.0,-1114.0,-570.0
48.0,-261.0,-128.0,156.0,686.0,-46.0,157.0,-1067.0,-490.0
45.0,-249.0,-110.0,174.0,787.0,-66.0,164.0,-1027.0,-426.0
50.0,-246.0,-95.0,174.0,860.0,-77.0,170.0,-1002.0,-369.0
51.0,-238.0,-83.0,151.0,906.0,-82.0,175.0,-978.0,-331.0
46.0,-231.0,-74.0,112.0,921.0,-84.0,165.0,-953.0,-297.0
45.0,-230.0,-77.0,64.0,910.0,-79.0,149.0,-937.0,-286.0
36.0,-220.0,-77.0,19.0,870.0,-71.0,134.0,-919.0,-297.0
32.0,-222.0,-82.0,-20.0,807.0,-56.0,109.0,-902.0,-326.0
24.0,-214.0,-89.0,-47.0,731.0,-31.0,86.0,-869.0,-348.0
15.0,-205.0,-100.0,-65.0,646.0,-2.0,64.0,-841.0,-383.0
7.0,-195.0,-105.0,-75.0,562.0,33.0,40.0,-815.0,-412.0
13.0,-191.0,-115.0,-79.0,481.0,71.0,38.0,-792.0,-442.0
3.0,-185.0,-104.0,-83.0,408.0,112.0,21.0,-767.0,-464.0
1.0,-183.0,-120.0,-92.0,343.0,150.0,5.0,-752.0,-478.0
-1.0,-182.0,-124.0,-110.0,284.0,190.0,-21.0,-746.0,-489.0
-8.0,-179.0,-123.0,-136.0,234.0,230.0,-35.0,-746.0,-497.0
-10.0,-186.0,-124.0,-168.0,196.0,260.0,-53.0,-759.0,-508.0
-13.0,-185.0,-127.0,-204.0,177.0,288.0,-61.0,-769.0,-509.0
-13.0,-193.0,-128.0,-237.0,176.0,305.0,-65.0,-791.0,-517.0
-18.0,-196.0,-127.0,-266.0,196.0,316.0,-75.0,-814.0,-517.0
-17.0,-208.0,-127.0,-287.0,229.0,320.0,-79.0,-851.0,-504.0
-19.0,-211.0,-127.0,-301.0,272.0,311.0,-83.0,-883.0,-492.0
-18.0,-222.0,-116.0,-308.0,320.0,300.0,-92.0,-923.0,-471.0
-17.0,-233.0,-111.0,-307.0,369.0,288.0,-97.0,-944.0,-444.0
-21.0,-237.0,-102.0,-296.0,416.0,278.0,-109.0,-972.0,-416.0
-25.0,-242.0,-104.0,-274.0,456.0,274.0,-104.0,-997.0,-398.0
-23.0,-249.0,-97.0,-245.0,483.0,277.0,-98.0,-1015.0,-377.0
-18.0,-255.0,-98.0,-207.0,498.0,284.0,-94.0,-1038.0,-370.0
-20.0,-258.0,-96.0,-163.0,504.0,293.0,-94.0,-1056.0,-385.0
-20.0,-262.0,-97.0,-113.0,502.0,305.0,-91.0,-1063.0,-387.0
-22.0,-261.0,-101.0,-58.0,499.0,323.0,-85.0,-1073.0,-403.0
-19.0,-263.0,-106.0,1.0,500.0,342.0,-85.0,-1079.0,-414.0
-16.0,-263.0,-106.0,55.0,507.0,366.0,-76.0,-1082.0,-421.0
-12.0,-260.0,-104.0,115.0,519.0,393.0,-70.0,-1077.0,-413.0
-11.0,-257.0,-103.0,161.0,537.0,421.0,-59.0,-1066.0,-406.0
-5.0,-258.0,-99.0,198.0,559.0,447.0,-47.0,-1058.0,-388.0
-2.0,-254.0,-94.0,228.0,587.0,471.0,-28.0,-1047.0,-373.0
3.0,-250.0,-91.0,248.0,619.0,489.0,3.0,-1032.0,-355.0
9.0,-246.0,-90.0,261.0,656.0,500.0,3.0,-1013.0,-341.0
12.0,-244.0,-83.0,261.0,695.0,511.0,30.0,-1005.0,-315.0
17.0,-242.0,-76.0,253.0,727.0,518.0,45.0,-1000.0,-303.0
22.0,-241.0,-77.0,238.0,759.0,521.0,62.0,-991.0,-287.0
27.0,-240.0,-77.0,220.0,792.0,519.0,78.0,-983.0,-285.0
25.0,-238.0,-68.0,195.0,826.0,518.0,83.0,-982.0,-279.0
30.0,-241.0,-68.0,173.0,854.0,517.0,85.0,-985.0,-269.0
29.0,-242.0,-74.0,162.0,881.0,519.0,89.0,-984.0,-263.0
31.0,-244.0,-74.0,157.0,902.0,522.0,106.0,-987.0,-259.0
32.0,-243.0,-68.0,152.0,923.0,525.0,109.0,-991.0,-245.0
31.0,-244.0,-66.0,169.0,945.0,529.0,98.0,-998.0,-241.0
30.0,-247.0,-69.0,195.0,969.0,533.0,99.0,-1003.0,-254.0
31.0,-243.0,-71.0,219.0,993.0,535.0,91.0,-1001.0,-270.0
29.0,-242.0,-74.0,235.0,1020.0,540.0,89.0,-993.0,-286.0
27.0,-240.0,-78.0,244.0,1048.0,549.0,91.0,-987.0,-302.0
26.0,-237.0,-86.0,252.0,1074.0,557.0,80.0,-977.0,-317.0
23.0,-235.0,-83.0,258.0,1099.0,563.0,77.0,-955.0,-331.0
20.0,-225.0,-89.0,261.0,1122.0,561.0,72.0,-935.0,-345.0
23.0,-221.0,-88.0,263.0,1143.0,555.0,71.0,-911.0,-362.0
22.0,-212.0,-93.0,260.0,1164.0,541.0,64.0,-877.0,-369.0
14.0,-204.0,-95.0,254.0,1185.0,526.0,48.0,-856.0,-381.0
7.0,-202.0,-96.0,237.0,1201.0,510.0,24.0,-836.0,-382.0
1.0,-195.0,-100.0,210.0,1215.0,495.0,-5.0,-822.0,-395.0
-7.0,-196.0,-99.0,173.0,1223.0,484.0,-35.0,-813.0,-401.0
-17.0,-192.0,-101.0,124.0,1217.0,474.0,-76.0,-804.0,-410.0
-27.0,-194.0,-104.0,72.0,1200.0,463.0,-116.0,-798.0,-404.0
-34.0,-194.0,-98.0,21.0,1172.0,451.0,-154.0,-799.0,-393.0
-43.0,-191.0,-101.0,-25.0,1130.0,438.0,-186.0,-792.0,-399.0
-56.0,-186.0,-105.0,-65.0,1074.0,422.0,-229.0,-790.0,-396.0
-64.0,-192.0,-100.0,-95.0,1006.0,409.0,-257.0,-791.0,-394.0
-69.0,-192.0,-101.0,-115.0,926.0,398.0,-291.0,-796.0,-400.0
-77.0,-192.0,-97.0,-132.0,833.0,383.0,-317.0,-797.0,-407.0
-83.0,-193.0,-99.0,-149.0,737.0,367.0,-340.0,-798.0,-403.0
-87.0,-196.0,-101.0,-164.0,643.0,354.0,-360.0,-813.0,-403.0
-93.0,-202.0,-98.0,-178.0,554.0,345.0,-371.0,-828.0,-389.0
-98.0,-204.0,-99.0,-185.0,476.0,338.0,-382.0,-856.0,-381.0
-102.0,-214.0,-91.0,-186.0,407.0,331.0,-397.0,-874.0,-370.0
-100.0,-214.0,-94.0,-176.0,344.0,324.0,-411.0,-897.0,-364.0
-100.0,-219.0,-96.0,-154.0,284.0,317.0,-408.0,-907.0,-366.0
-93.0,-224.0,-97.0,-127.0,226.0,311.0,-401.0,-922.0,-363.0
-94.0,-225.0,-95.0,-106.0,167.0,307.0,-387.0,-924.0,-369.0
-93.0,-223.0,-92.0,-93.0,108.0,302.0,-368.0,-931.0,-378.0
-81.0,-228.0,-99.0,-89.0,52.0,301.0,-342.0,-934.0,-383.0
-77.0,-231.0,-101.0,-91.0,-4.0,299.0,-319.0,-939.0,-392.0
-66.0,-235.0,-103.0,-96.0,-56.0,300.0,-288.0,-955.0,-410.0
-65.0,-232.0,-104.0,-102.0,-103.0,300.0,-255.0,-968.0,-416.0
-55.0,-241.0,-106.0,-110.0,-148.0,302.0,-231.0,-983.0,-430.0
-52.0,-243.0,-102.0,-108.0,-189.0,304.0,-209.0,-997.0,-439.0
-50.0,-244.0,-109.0,-94.0,-224.0,303.0,-180.0,-1008.0,-437.0
-41.0,-250.0,-109.0,-64.0,-256.0,297.0,-167.0,-1018.0,-445.0
-35.0,-252.0,-102.0,-25.0,-282.0,287.0,-154.0,-1011.0,-454.0
-35.0,-247.0,-115.0,21.0,-305.0,271.0,-148.0,-1000.0,-453.0
-32.0,-243.0,-117.0,66.0,-328.0,252.0,-137.0,-987.0,-469.0
-31.0,-238.0,-118.0,109.0,-346.0,227.0,-138.0,-969.0,-476.0
-35.0,-231.0,-119.0,148.0,-363.0,197.0,-139.0,-947.0,-486.0
-32.0,-227.0,-124.0,178.0,-378.0,160.0,-152.0,-930.0,-488.0
-40.0,-218.0,-124.0,200.0,-390.0,125.0,-158.0,-913.0,-493.0
-43.0,-215.0,-124.0,205.0,-396.0,87.0,-169.0,-899.0,-494.0
-42.0,-207.0,-125.0,196.0,-396.0,52.0,-172.0,-874.0,-488.0
-41.0,-204.0,-122.0,175.0,-393.0,22.0,-165.0,-856.0,-486.0
-38.0,-204.0,-120.0,143.0,-389.0,-6.0,-166.0,-842.0,-482.0
-34.0,-209.0,-117.0,103.0,-384.0,-31.0,-152.0,-839.0,-477.0
-31.0,-200.0,-117.0,58.0,-380.0,-47.0,-144.0,-835.0,-455.0
-31.0,-202.0,-111.0,15.0,-375.0,-57.0,-135.0,-841.0,-435.0
-27.0,-206.0,-102.0,-22.0,-377.0,-61.0,-129.0,-858.0,-404.0
-27.0,-212.0,-97.0,-52.0,-383.0,-60.0,-118.0,-872.0,-383.0
-23.0,-216.0,-94.0,-71.0,-392.0,-57.0,-105.0,-882.0,-366.0
-19.0,-215.0,-92.0,-83.0,-403.0,-50.0,-93.0,-893.0,-365.0
-17.0,-217.0,-94.0,-88.0,-418.0,-40.0,-69.0,-903.0,-366.0
-10.0,-221.0,-92.0,-90.0,-432.0,-29.0,-45.0,-911.0,-377.0
-2.0,-216.0,-101.0,-91.0,-442.0,-16.0,-23.0,-911.0,-388.0
-2.0,-222.0,-101.0,-93.0,-445.0,1.0,-17.0,-922.0,-397.0
-3.0,-224.0,-104.0,-99.0,-446.0,18.0,-20.0,-935.0,-403.0
-3.0,-227.0,-98.0,-110.0,-442.0,38.0,-15.0,-944.0,-395.0
0.0,-235.0,-103.0,-119.0,-429.0,60.0,-25.0,-961.0,-399.0
-1.0,-243.0,-100.0,-126.0,-415.0,83.0,-23.0,-986.0,-387.0
-6.0,-248.0,-98.0,-130.0,-398.0,102.0,-21.0,-1002.0,-379.0
-6.0,-248.0,-99.0,-132.0,-381.0,115.0,-45.0,-1015.0,-392.0
-11.0,-248.0,-99.0,-131.0,-366.0,124.0,-51.0,-1024.0,-398.0
-14.0,-251.0,-101.0,-136.0,-355.0,133.0,-66.0,-1029.0,-410.0
-22.0,-251.0,-106.0,-140.0,-344.0,138.0,-80.0,-1032.0,-416.0
-24.0,-249.0,-109.0,-143.0,-336.0,142.0,-100.0,-1035.0,-427.0
-25.0,-253.0,-110.0,-138.0,-332.0,149.0,-113.0,-1034.0,-421.0
-33.0,-256.0,-110.0,-129.0,-330.0,151.0,-125.0,-1036.0,-435.0
-39.0,-251.0,-109.0,-114.0,-328.0,152.0,-154.0,-1022.0,-431.0
-41.0,-250.0,-109.0,-95.0,-330.0,153.0,-168.0,-1015.0,-435.0
-40.0,-247.0,-111.0,-77.0,-333.0,153.0,-169.0,-1008.0,-439.0
-42.0,-248.0,-112.0,-62.0,-334.0,152.0,-174.0,-1000.0,-433.0
-48.0,-240.0,-109.0,-47.0,-335.0,154.0,-188.0,-991.0,-419.0
-48.0,-239.0,-98.0,-28.0,-339.0,157.0,-199.0,-984.0,-412.0
-53.0,-234.0,-102.0,-2.0,-348.0,161.0,-209.0,-973.0,-403.0
-50.0,-236.0,-100.0,24.0,-357.0,168.0,-214.0,-965.0,-398.0
-49.0,-234.0,-96.0,53.0,-365.0,172.0,-212.0,-952.0,-384.0
-49.0,-226.0,-93.0,82.0,-372.0,180.0,-209.0,-940.0,-383.0
-48.0,-233.0,-99.0,104.0,-375.0,190.0,-208.0,-942.0,-395.0
-50.0,-222.0,-102.0,120.0,-377.0,200.0,-211.0,-931.0,-396.0
-49.0,-223.0,-101.0,126.0,-378.0,213.0,-213.0,-927.0,-406.0
-45.0,-223.0,-104.0,127.0,-377.0,228.0,-201.0,-917.0,-409.0
-42.0,-224.0,-102.0,122.0,-376.0,241.0,-181.0,-922.0,-413.0
-35.0,-225.0,-106.0,118.0,-371.0,249.0,-164.0,-926.0,-414.0
-33.0,-225.0,-100.0,117.0,-365.0,251.0,-154.0,-932.0,-406.0
-29.0,-228.0,-101.0,120.0,-360.0,254.0,-140.0,-942.0,-395.0
-30.0,-233.0,-99.0,124.0,-353.0,258.0,-130.0,-945.0,-395.0
-31.0,-234.0,-93.0,129.0,-346.0,260.0,-132.0,-956.0,-378.0
-34.0,-231.0,-99.0,138.0,-338.0,262.0,-124.0,-960.0,-372.0
-27.0,-236.0,-96.0,149.0,-332.0,260.0,-127.0,-965.0,-366.0
-26.0,-238.0,-91.0,156.0,-325.0,255.0,-124.0,-969.0,-370.0
-28.0,-235.0,-93.0,160.0,-320.0,253.0,-131.0,-982.0,-367.0
-31.0,-241.0,-90.0,160.0,-320.0,245.0,-140.0,-989.0,-369.0
-33.0,-247.0,-88.0,161.0,-324.0,234.0,-146.0,-998.0,-355.0
-37.0,-245.0,-86.0,166.0,-327.0,223.0,-159.0,-1011.0,-351.0
-38.0,-249.0,-88.0,179.0,-329.0,209.0,-163.0,-1012.0,-331.0
-33.0,-254.0,-77.0,205.0,-331.0,192.0,-164.0,-1016.0,-325.0
-43.0,-251.0,-83.0,241.0,-334.0,175.0,-169.0,-1020.0,-311.0
-42.0,-252.0,-76.0,275.0,-334.0,156.0,-182.0,-1013.0,-306.0
-49.0,-251.0,-70.0,308.0,-325.0,137.0,-203.0,-1005.0,-298.0
-47.0,-247.0,-73.0,340.0,-312.0,128.0,-208.0,-1002.0,-289.0
-50.0,-244.0,-71.0,374.0,-301.0,118.0,-214.0,-994.0,-272.0
-55.0,-238.0,-69.0,407.0,-300.0,106.0,-227.0,-973.0,-272.0
-56.0,-230.0,-68.0,437.0,-307.0,97.0,-234.0,-947.0,-265.0
-60.0,-227.0,-65.0,462.0,-314.0,86.0,-239.0,-931.0,-263.0
-57.0,-223.0,-66.0,478.0,-313.0,83.0,-250.0,-913.0,-246.0
-57.0,-218.0,-65.0,484.0,-303.0,87.0,-254.0,-907.0,-248.0
-61.0,-218.0,-66.0,477.0,-289.0,100.0,-256.0,-909.0,-252.0
-56.0,-218.0,-68.0,461.0,-277.0,116.0,-244.0,-909.0,-264.0
-58.0,-221.0,-71.0,442.0,-271.0,134.0,-237.0,-923.0,-275.0
-49.0,-225.0,-69.0,429.0,-268.0,148.0,-224.0,-932.0,-285.0
-39.0,-227.0,-76.0,418.0,-260.0,158.0,-182.0,-938.0,-295.0
-43.0,-228.0,-81.0,410.0,-244.0,167.0,-171.0,-944.0,-301.0
-36.0,-231.0,-75.0,401.0,-233.0,178.0,-148.0,-949.0,-300.0
-30.0,-231.0,-70.0,403.0,-216.0,182.0,-137.0,-946.0,-280.0
-31.0,-233.0,-72.0,414.0,-209.0,180.0,-124.0,-951.0,-285.0
-24.0,-229.0,-64.0,430.0,-204.0,171.0,-113.0,-949.0,-260.0
-28.0,-228.0,-66.0,455.0,-191.0,152.0,-110.0,-940.0,-250.0
-29.0,-224.0,-57.0,480.0,-186.0,127.0,-121.0,-933.0,-233.0
-30.0,-227.0,-50.0,502.0,-180.0,95.0,-141.0,-923.0,-208.0
-42.0,-221.0,-51.0,518.0,-175.0,73.0,-168.0,-917.0,-197.0
-39.0,-222.0,-49.0,536.0,-175.0,71.0,-180.0,-929.0,-182.0
-37.0,-226.0,-42.0,554.0,-179.0,84.0,-172.0,-932.0,-172.0
-39.0,-234.0,-43.0,574.0,-179.0,94.0,-184.0,-950.0,-155.0
-43.0,-236.0,-43.0,600.0,-186.0,112.0,-202.0,-962.0,-156.0
-37.0,-243.0,-43.0,632.0,-198.0,136.0,-175.0,-988.0,-150.0
-36.0,-248.0,-41.0,667.0,-205.0,161.0,-174.0,-1006.0,-155.0
-42.0,-252.0,-45.0,702.0,-211.0,180.0,-188.0,-1022.0,-154.0
-48.0,-247.0,-37.0,732.0,-213.0,191.0,-212.0,-1026.0,-155.0
-46.0,-251.0,-41.0,757.0,-218.0,208.0,-212.0,-1013.0,-161.0
-40.0,-251.0,-45.0,776.0,-220.0,218.0,-176.0,-1007.0,-158.0
-41.0,-243.0,-42.0,795.0,-205.0,213.0,-201.0,-1002.0,-164.0
-51.0,-244.0,-50.0,800.0,-186.0,209.0,-188.0,-987.0,-158.0
-45.0,-236.0,-35.0,796.0,-156.0,198.0,-205.0,-973.0,-142.0
-50.0,-233.0,-34.0,792.0,-133.0,183.0,-223.0,-967.0,-138.0
-51.0,-229.0,-40.0,790.0,-123.0,162.0,-215.0,-960.0,-131.0
-46.0,-228.0,-35.0,782.0,-114.0,130.0,-203.0,-953.0,-125.0
-49.0,-225.0,-34.0,765.0,-96.0,97.0,-223.0,-942.0,-122.0
-58.0,-226.0,-32.0,748.0,-79.0,71.0,-239.0,-941.0,-118.0
-61.0,-226.0,-30.0,722.0,-76.0,50.0,-256.0,-938.0,-123.0
-62.0,-227.0,-31.0,689.0,-71.0,31.0,-262.0,-933.0,-129.0
-63.0,-227.0,-37.0,658.0,-77.0,19.0,-274.0,-928.0,-125.0
-66.0,-220.0,-35.0,633.0,-78.0,6.0,-284.0,-929.0,-123.0
-68.0,-222.0,-34.0,614.0,-78.0,0.0,-289.0,-922.0,-126.0
-69.0,-217.0,-38.0,591.0,-78.0,-4.0,-300.0,-915.0,-120.0
-69.0,-220.0,-33.0,569.0,-74.0,-3.0,-303.0,-901.0,-114.0
-66.0,-212.0,-27.0,549.0,-70.0,5.0,-288.0,-902.0,-108.0
-67.0,-213.0,-26.0,524.0,-63.0,14.0,-292.0,-883.0,-109.0
-68.0,-209.0,-29.0,493.0,-58.0,27.0,-288.0,-869.0,-115.0
-65.0,-205.0,-33.0,458.0,-54.0,34.0,-280.0,-868.0,-119.0
-67.0,-203.0,-32.0,422.0,-44.0,36.0,-276.0,-854.0,-122.0
-66.0,-200.0,-41.0,386.0,-28.0,37.0,-289.0,-840.0,-138.0
-64.0,-204.0,-34.0,352.0,-8.0,42.0,-281.0,-839.0,-146.0
-61.0,-205.0,-34.0,318.0,23.0,43.0,-270.0,-842.0,-131.0
-63.0,-204.0,-36.0,285.0,65.0,45.0,-278.0,-842.0,-122.0
-63.0,-204.0,-29.0,252.0,98.0,47.0,-264.0,-847.0,-117.0
-56.0,-207.0,-33.0,224.0,127.0,49.0,-251.0,-858.0,-117.0
-55.0,-207.0,-33.0,200.0,162.0,44.0,-244.0,-858.0,-118.0
-55.0,-210.0,-35.0,177.0,198.0,40.0,-239.0,-865.0,-116.0
-51.0,-215.0,-33.0,152.0,236.0,39.0,-235.0,-869.0,-124.0
-49.0,-213.0,-38.0,124.0,275.0,38.0,-223.0,-874.0,-122.0
-47.0,-213.0,-31.0,96.0,317.0,36.0,-222.0,-882.0,-120.0
-46.0,-217.0,-32.0,74.0,355.0,33.0,-215.0,-894.0,-120.0
-48.0,-217.0,-36.0,55.0,394.0,30.0,-210.0,-902.0,-125.0
-48.0,-217.0,-34.0,34.0,431.0,24.0,-224.0,-902.0,-123.0
-46.0,-217.0,-34.0,10.0,462.0,17.0,-211.0,-907.0,-123.0
-56.0,-216.0,-32.0,-12.0,496.0,8.0,-227.0,-904.0,-126.0
-52.0,-218.0,-37.0,-36.0,516.0,-2.0,-229.0,-913.0,-129.0
-54.0,-217.0,-38.0,-61.0,539.0,-15.0,-228.0,-914.0,-139.0
-52.0,-221.0,-37.0,-86.0,563.0,-24.0,-233.0,-915.0,-145.0
-53.0,-223.0,-38.0,-113.0,592.0,-31.0,-235.0,-922.0,-139.0
-54.0,-225.0,-39.0,-142.0,620.0,-32.0,-236.0,-930.0,-138.0
-56.0,-222.0,-39.0,-170.0,648.0,-33.0,-245.0,-928.0,-137.0
-56.0,-222.0,-40.0,-191.0,673.0,-33.0,-244.0,-933.0,-139.0
-57.0,-221.0,-38.0,-207.0,694.0,-31.0,-252.0,-934.0,-150.0
-63.0,-223.0,-47.0,-220.0,711.0,-28.0,-254.0,-931.0,-159.0
-62.0,-227.0,-41.0,-235.0,726.0,-19.0,-257.0,-936.0,-162.0
-60.0,-227.0,-46.0,-252.0,746.0,-6.0,-254.0,-943.0,-171.0
-63.0,-231.0,-46.0,-266.0,766.0,5.0,-270.0,-950.0,-178.0
-65.0,-232.0,-46.0,-274.0,781.0,18.0,-284.0,-945.0,-165.0
-68.0,-229.0,-47.0,-275.0,794.0,29.0,-292.0,-941.0,-172.0
-72.0,-223.0,-48.0,-280.0,802.0,41.0,-301.0,-937.0,-180.0
-72.0,-226.0,-49.0,-289.0,810.0,58.0,-308.0,-931.0,-182.0
-71.0,-222.0,-50.0,-304.0,819.0,73.0,-323.0,-926.0,-185.0
-70.0,-224.0,-52.0,-321.0,827.0,88.0,-321.0,-919.0,-202.0
-77.0,-222.0,-61.0,-340.0,841.0,100.0,-328.0,-916.0,-204.0
-82.0,-223.0,-52.0,-357.0,853.0,110.0,-345.0,-916.0,-199.0
-86.0,-220.0,-52.0,-372.0,863.0,117.0,-357.0,-916.0,-197.0
-90.0,-221.0,-48.0,-389.0,874.0,128.0,-375.0,-921.0,-193.0
-93.0,-221.0,-50.0,-410.0,884.0,138.0,-393.0,-923.0,-193.0
-97.0,-225.0,-51.0,-433.0,892.0,155.0,-405.0,-932.0,-196.0
-102.0,-228.0,-52.0,-459.0,907.0,177.0,-417.0,-939.0,-213.0
-103.0,-228.0,-54.0,-481.0,917.0,200.0,-430.0,-943.0,-210.0
-103.0,-231.0,-60.0,-494.0,928.0,224.0,-430.0,-954.0,-227.0
-104.0,-234.0,-63.0,-497.0,937.0,248.0,-432.0,-961.0,-235.0
-104.0,-234.0,-65.0,-489.0,948.0,271.0,-432.0,-962.0,-240.0
-102.0,-238.0,-70.0,-473.0,962.0,293.0,-421.0,-972.0,-262.0
-97.0,-241.0,-70.0,-454.0,986.0,320.0,-411.0,-985.0,-267.0
-95.0,-243.0,-68.0,-433.0,1012.0,350.0,-393.0,-996.0,-265.0
-89.0,-248.0,-68.0,-407.0,1036.0,378.0,-384.0,-1020.0,-259.0
-93.0,-249.0,-68.0,-376.0,1055.0,405.0,-370.0,-1033.0,-265.0
-85.0,-251.0,-71.0,-339.0,1067.0,431.0,-354.0,-1028.0,-288.0
-74.0,-249.0,-82.0,-305.0,1073.0,454.0,-334.0,-1017.0,-317.0
-72.0,-243.0,-89.0,-271.0,1081.0,472.0,-301.0,-1000.0,-358.0
-69.0,-238.0,-111.0,-245.0,1096.0,492.0,-273.0,-979.0,-432.0
-64.0,-218.0,-131.0,-236.0,1118.0,509.0,-262.0,-925.0,-509.0
-65.0,-209.0,-149.0,-262.0,1142.0,515.0,-274.0,-859.0,-590.0
-79.0,-193.0,-159.0,-323.0,1170.0,521.0,-314.0,-829.0,-639.0
-93.0,-192.0,-163.0,-410.0,1187.0,533.0,-374.0,-797.0,-675.0
-108.0,-191.0,-157.0,-523.0,1182.0,547.0,-428.0,-795.0,-655.0
-123.0,-200.0,-140.0,-636.0,1147.0,558.0,-472.0,-817.0,-592.0
-119.0,-215.0,-120.0,-709.0,1085.0,574.0,-485.0,-874.0,-483.0
-115.0,-226.0,-106.0,-726.0,1016.0,601.0,-464.0,-934.0,-417.0
-108.0,-235.0,-97.0,-685.0,953.0,639.0,-439.0,-961.0,-395.0
-103.0,-234.0,-101.0,-610.0,905.0,690.0,-412.0,-963.0,-411.0
-90.0,-232.0,-111.0,-539.0,865.0,753.0,-371.0,-956.0,-447.0
-83.0,-228.0,-122.0,-493.0,829.0,829.0,-343.0,-942.0,-486.0
-86.0,-221.0,-130.0,-476.0,792.0,911.0,-344.0,-924.0,-539.0
-81.0,-218.0,-139.0,-482.0,748.0,1002.0,-336.0,-912.0,-567.0
-77.0,-217.0,-144.0,-501.0,701.0,1096.0,-317.0,-913.0,-590.0
-73.0,-221.0,-143.0,-526.0,654.0,1189.0,-309.0,-914.0,-599.0
-74.0,-224.0,-148.0,-544.0,608.0,1297.0,-299.0,-913.0,-592.0
-71.0,-226.0,-145.0,-544.0,563.0,1371.0,-292.0,-934.0,-587.0
-71.0,-228.0,-139.0,-523.0,524.0,1432.0,-288.0,-936.0,-564.0
-72.0,-228.0,-132.0,-474.0,490.0,1475.0,-294.0,-934.0,-541.0
-72.0,-226.0,-126.0,-401.0,482.0,1499.0,-298.0,-935.0,-504.0
-74.0,-221.0,-110.0,-309.0,502.0,1510.0,-300.0,-909.0,-468.0
-71.0,-220.0,-106.0,-212.0,547.0,1502.0,-301.0,-890.0,-427.0
-70.0,-209.0,-98.0,-99.0,614.0,1474.0,-309.0,-868.0,-409.0
-83.0,-195.0,-96.0,-15.0,684.0,1432.0,-338.0,-826.0,-376.0
-87.0,-190.0,-83.0,55.0,735.0,1380.0,-362.0,-782.0,-343.0
-95.0,-182.0,-78.0,103.0,764.0,1310.0,-391.0,-748.0,-309.0
-94.0,-173.0,-68.0,135.0,776.0,1238.0,-398.0,-720.0,-260.0
-94.0,-170.0,-60.0,153.0,786.0,1163.0,-394.0,-693.0,-231.0
-90.0,-165.0,-51.0,164.0,799.0,1091.0,-392.0,-691.0,-193.0
-95.0,-163.0,-49.0,164.0,807.0,1027.0,-400.0,-675.0,-177.0
-94.0,-157.0,-43.0,153.0,798.0,970.0,-375.0,-670.0,-170.0
-88.0,-153.0,-50.0,124.0,766.0,921.0,-352.0,-649.0,-181.0
-78.0,-151.0,-42.0,78.0,712.0,886.0,-332.0,-641.0,-183.0
-73.0,-149.0,-50.0,24.0,644.0,864.0,-305.0,-631.0,-195.0
-74.0,-150.0,-58.0,-29.0,565.0,851.0,-309.0,-630.0,-198.0
-77.0,-153.0,-57.0,-70.0,478.0,848.0,-322.0,-639.0,-206.0
-80.0,-153.0,-58.0,-96.0,381.0,853.0,-327.0,-645.0,-227.0
-72.0,-159.0,-65.0,-109.0,287.0,861.0,-313.0,-659.0,-246.0
-68.0,-162.0,-76.0,-107.0,210.0,867.0,-295.0,-672.0,-284.0
-67.0,-160.0,-87.0,-94.0,153.0,873.0,-282.0,-667.0,-336.0
-64.0,-162.0,-95.0,-83.0,114.0,884.0,-269.0,-666.0,-385.0
-57.0,-164.0,-107.0,-67.0,82.0,901.0,-239.0,-676.0,-425.0
-46.0,-172.0,-122.0,-60.0,50.0,919.0,-206.0,-696.0,-478.0
-44.0,-176.0,-129.0,-72.0,19.0,932.0,-190.0,-716.0,-504.0
-40.0,-179.0,-127.0,-77.0,1.0,948.0,-168.0,-741.0,-510.0
-43.0,-187.0,-125.0,-68.0,-8.0,957.0,-159.0,-775.0,-487.0
-38.0,-197.0,-116.0,-33.0,-9.0,954.0,-164.0,-794.0,-464.0
-39.0,-200.0,-113.0,31.0,-8.0,944.0,-164.0,-819.0,-460.0
-44.0,-201.0,-114.0,104.0,0.0,924.0,-194.0,-818.0,-456.0
-53.0,-195.0,-113.0,176.0,14.0,903.0,-236.0,-811.0,-455.0
-66.0,-195.0,-109.0,247.0,29.0,881.0,-283.0,-800.0,-448.0
-85.0,-193.0,-116.0,305.0,36.0,856.0,-349.0,-794.0,-467.0
-96.0,-193.0,-125.0,328.0,42.0,824.0,-408.0,-792.0,-473.0
-123.0,-193.0,-123.0,322.0,69.0,779.0,-498.0,-796.0,-487.0
-144.0,-193.0,-121.0,296.0,116.0,733.0,-626.0,-799.0,-476.0
-179.0,-192.0,-118.0,268.0,175.0,679.0,-737.0,-799.0,-457.0
-199.0,-191.0,-104.0,258.0,240.0,633.0,-825.0,-795.0,-437.0
-201.0,-186.0,-113.0,264.0,307.0,604.0,-831.0,-777.0,-454.0
-195.0,-183.0,-123.0,251.0,385.0,599.0,-806.0,-762.0,-487.0
-182.0,-177.0,-130.0,191.0,466.0,612.0,-743.0,-749.0,-521.0
-161.0,-173.0,-137.0,89.0,543.0,642.0,-668.0,-742.0,-568.0
-139.0,-176.0,-146.0,-35.0,604.0,678.0,-589.0,-740.0,-591.0
-122.0,-175.0,-144.0,-153.0,651.0,721.0,-497.0,-740.0,-602.0
-103.0,-180.0,-151.0,-250.0,683.0,760.0,-427.0,-758.0,-602.0
-89.0,-186.0,-149.0,-319.0,702.0,790.0,-365.0,-768.0,-609.0
-78.0,-185.0,-143.0,-373.0,702.0,814.0,-334.0,-770.0,-601.0
-80.0,-187.0,-141.0,-416.0,695.0,820.0,-315.0,-779.0,-590.0
-82.0,-193.0,-139.0,-444.0,677.0,810.0,-342.0,-784.0,-589.0
-95.0,-190.0,-146.0,-461.0,653.0,797.0,-388.0,-784.0,-592.0
-107.0,-192.0,-144.0,-470.0,624.0,780.0,-450.0,-787.0,-610.0
-122.0,-192.0,-152.0,-469.0,593.0,765.0,-493.0,-791.0,-624.0
-130.0,-192.0,-155.0,-461.0,559.0,752.0,-534.0,-795.0,-626.0
-140.0,-194.0,-151.0,-436.0,524.0,738.0,-564.0,-796.0,-612.0
-143.0,-195.0,-149.0,-386.0,487.0,721.0,-586.0,-803.0,-612.0
-148.0,-198.0,-151.0,-319.0,457.0,696.0,-601.0,-806.0,-604.0
-151.0,-198.0,-142.0,-246.0,431.0,669.0,-616.0,-800.0,-593.0
-157.0,-193.0,-143.0,-170.0,411.0,644.0,-622.0,-798.0,-585.0
-152.0,-194.0,-138.0,-101.0,396.0,624.0,-618.0,-798.0,-569.0
-149.0,-196.0,-133.0,-43.0,389.0,614.0,-604.0,-796.0,-550.0
-142.0,-195.0,-126.0,-4.0,389.0,611.0,-584.0,-802.0,-517.0
-138.0,-199.0,-114.0,28.0,395.0,617.0,-567.0,-820.0,-473.0
-129.0,-200.0,-104.0,57.0,410.0,628.0,-544.0,-833.0,-430.0
-126.0,-202.0,-99.0,88.0,432.0,641.0,-524.0,-832.0,-392.0
-123.0,-202.0,-99.0,122.0,463.0,651.0,-519.0,-838.0,-376.0
-127.0,-202.0,-92.0,156.0,491.0,655.0,-525.0,-830.0,-369.0
-129.0,-195.0,-95.0,180.0,515.0,655.0,-532.0,-818.0,-369.0
-130.0,-193.0,-97.0,190.0,527.0,652.0,-537.0,-806.0,-372.0
-132.0,-190.0,-95.0,185.0,533.0,645.0,-545.0,-780.0,-398.0
-135.0,-175.0,-107.0,161.0,537.0,639.0,-547.0,-742.0,-428.0
-132.0,-171.0,-114.0,117.0,546.0,637.0,-534.0,-720.0,-459.0
-129.0,-171.0,-118.0,69.0,567.0,635.0,-534.0,-716.0,-492.0
-128.0,-168.0,-127.0,29.0,592.0,635.0,-531.0,-708.0,-518.0
-126.0,-172.0,-131.0,-3.0,616.0,637.0,-521.0,-710.0,-537.0
-125.0,-171.0,-134.0,-30.0,638.0,642.0,-517.0,-702.0,-534.0
-124.0,-167.0,-128.0,-45.0,648.0,645.0,-507.0,-700.0,-524.0
-123.0,-167.0,-127.0,-53.0,648.0,651.0,-493.0,-695.0,-522.0
-120.0,-169.0,-125.0,-61.0,640.0,649.0,-494.0,-687.0,-516.0
-120.0,-166.0,-126.0,-64.0,630.0,640.0,-499.0,-677.0,-511.0
-124.0,-161.0,-130.0,-67.0,620.0,627.0,-494.0,-677.0,-519.0
-125.0,-160.0,-127.0,-67.0,614.0,608.0,-508.0,-672.0,-529.0
-124.0,-161.0,-129.0,-63.0,608.0,582.0,-515.0,-658.0,-531.0
-128.0,-159.0,-132.0,-51.0,603.0,557.0,-522.0,-657.0,-530.0
-129.0,-155.0,-130.0,-30.0,598.0,531.0,-534.0,-645.0,-530.0
-131.0,-154.0,-128.0,-8.0,592.0,504.0,-532.0,-639.0,-525.0
-135.0,-155.0,-132.0,16.0,588.0,480.0,-546.0,-634.0,-525.0
-135.0,-151.0,-129.0,46.0,584.0,459.0,-554.0,-630.0,-519.0
-136.0,-154.0,-126.0,65.0,581.0,448.0,-554.0,-638.0,-511.0
-140.0,-154.0,-129.0,82.0,578.0,435.0,-574.0,-637.0,-510.0
-139.0,-157.0,-125.0,99.0,569.0,428.0,-570.0,-647.0,-503.0
-139.0,-154.0,-121.0,110.0,555.0,422.0,-570.0,-641.0,-491.0
-135.0,-155.0,-124.0,120.0,537.0,417.0,-560.0,-640.0,-488.0
-137.0,-154.0,-118.0,121.0,519.0,415.0,-556.0,-640.0,-494.0
-136.0,-153.0,-125.0,123.0,501.0,414.0,-546.0,-641.0,-493.0
-130.0,-157.0,-125.0,120.0,488.0,414.0,-544.0,-641.0,-493.0
-130.0,-153.0,-124.0,109.0,476.0,422.0,-528.0,-638.0,-497.0
-127.0,-156.0,-125.0,96.0,463.0,426.0,-523.0,-640.0,-491.0
-124.0,-152.0,-122.0,81.0,446.0,427.0,-497.0,-640.0,-490.0
-117.0,-155.0,-122.0,71.0,429.0,426.0,-487.0,-645.0,-494.0
-111.0,-152.0,-127.0,64.0,413.0,418.0,-460.0,-638.0,-501.0
-110.0,-155.0,-125.0,59.0,405.0,405.0,-445.0,-644.0,-514.0
-103.0,-155.0,-127.0,51.0,402.0,388.0,-429.0,-645.0,-521.0
-102.0,-149.0,-131.0,44.0,400.0,372.0,-424.0,-647.0,-532.0
-102.0,-154.0,-133.0,39.0,401.0,354.0,-423.0,-645.0,-542.0
-104.0,-157.0,-138.0,41.0,396.0,331.0,-425.0,-648.0,-543.0
-100.0,-155.0,-132.0,48.0,389.0,308.0,-420.0,-639.0,-546.0
-100.0,-151.0,-139.0,62.0,383.0,283.0,-413.0,-638.0,-562.0
-99.0,-155.0,-137.0,75.0,382.0,255.0,-417.0,-632.0,-570.0
-104.0,-156.0,-140.0,85.0,382.0,225.0,-421.0,-640.0,-575.0
-106.0,-151.0,-143.0,97.0,382.0,198.0,-435.0,-640.0,-583.0
-113.0,-152.0,-146.0,107.0,381.0,173.0,-449.0,-627.0,-574.0
-111.0,-155.0,-142.0,122.0,378.0,150.0,-468.0,-636.0,-587.0
-118.0,-148.0,-145.0,137.0,368.0,131.0,-474.0,-631.0,-580.0
-119.0,-157.0,-141.0,150.0,356.0,112.0,-478.0,-626.0,-597.0
-118.0,-154.0,-146.0,154.0,348.0,95.0,-486.0,-632.0,-596.0
-121.0,-153.0,-148.0,159.0,337.0,74.0,-488.0,-634.0,-592.0
-126.0,-152.0,-148.0,168.0,329.0,55.0,-506.0,-634.0,-609.0
-129.0,-154.0,-151.0,183.0,318.0,38.0,-524.0,-639.0,-607.0
-126.0,-156.0,-152.0,196.0,306.0,24.0,-520.0,-641.0,-619.0
-131.0,-156.0,-151.0,207.0,296.0,18.0,-530.0,-643.0,-618.0
-127.0,-156.0,-151.0,221.0,280.0,19.0,-521.0,-650.0,-614.0
-127.0,-156.0,-150.0,235.0,261.0,12.0,-513.0,-648.0,-597.0
-124.0,-151.0,-147.0,248.0,237.0,8.0,-507.0,-641.0,-602.0
-125.0,-157.0,-146.0,260.0,209.0,4.0,-507.0,-637.0,-595.0
-124.0,-156.0,-147.0,271.0,180.0,0.0,-499.0,-639.0,-596.0
-124.0,-153.0,-147.0,278.0,149.0,-7.0,-509.0,-637.0,-594.0
-129.0,-157.0,-140.0,288.0,119.0,-14.0,-521.0,-645.0,-595.0
-131.0,-157.0,-143.0,301.0,86.0,-23.0,-533.0,-658.0,-587.0
-133.0,-160.0,-146.0,314.0,59.0,-34.0,-540.0,-666.0,-595.0
-132.0,-161.0,-145.0,320.0,35.0,-44.0,-541.0,-671.0,-594.0
-129.0,-162.0,-151.0,319.0,12.0,-55.0,-528.0,-675.0,-612.0
-128.0,-164.0,-148.0,309.0,-6.0,-67.0,-526.0,-689.0,-609.0
-128.0,-166.0,-151.0,292.0,-23.0,-83.0,-522.0,-704.0,-611.0
-127.0,-166.0,-150.0,267.0,-42.0,-99.0,-510.0,-699.0,-611.0
-121.0,-172.0,-146.0,235.0,-63.0,-110.0,-499.0,-712.0,-609.0
-119.0,-174.0,-145.0,205.0,-82.0,-127.0,-498.0,-718.0,-604.0
-118.0,-170.0,-144.0,175.0,-102.0,-152.0,-485.0,-713.0,-590.0
-116.0,-173.0,-143.0,150.0,-119.0,-171.0,-469.0,-718.0,-591.0
-116.0,-169.0,-145.0,123.0,-127.0,-198.0,-465.0,-707.0,-590.0
-112.0,-170.0,-142.0,103.0,-131.0,-224.0,-460.0,-704.0,-585.0
-109.0,-166.0,-144.0,93.0,-132.0,-256.0,-455.0,-691.0,-584.0
-107.0,-164.0,-139.0,87.0,-131.0,-286.0,-447.0,-677.0,-575.0
-108.0,-164.0,-139.0,92.0,-122.0,-313.0,-434.0,-681.0,-569.0
-103.0,-162.0,-138.0,100.0,-104.0,-341.0,-435.0,-663.0,-571.0
-98.0,-155.0,-134.0,109.0,-89.0,-371.0,-422.0,-648.0,-565.0
-100.0,-155.0,-136.0,113.0,-72.0,-397.0,-413.0,-641.0,-561.0
-99.0,-153.0,-139.0,115.0,-56.0,-414.0,-406.0,-620.0,-557.0
-101.0,-146.0,-134.0,121.0,-37.0,-424.0,-410.0,-621.0,-548.0
-92.0,-151.0,-131.0,122.0,-27.0,-433.0,-397.0,-617.0,-526.0
-100.0,-149.0,-133.0,123.0,-19.0,-440.0,-408.0,-611.0,-527.0
-97.0,-147.0,-126.0,133.0,-13.0,-445.0,-398.0,-616.0,-519.0
-93.0,-149.0,-130.0,143.0,-10.0,-455.0,-389.0,-611.0,-517.0
-97.0,-150.0,-130.0,153.0,-9.0,-464.0,-398.0,-618.0,-536.0
-96.0,-157.0,-135.0,158.0,-11.0,-463.0,-402.0,-635.0,-564.0
-102.0,-153.0,-138.0,153.0,-13.0,-470.0,-412.0,-643.0,-559.0
-101.0,-160.0,-137.0,149.0,-17.0,-467.0,-408.0,-654.0,-566.0
-102.0,-160.0,-140.0,146.0,-21.0,-462.0,-416.0,-667.0,-569.0
-101.0,-164.0,-138.0,139.0,-23.0,-458.0,-427.0,-692.0,-566.0
-106.0,-165.0,-132.0,134.0,-24.0,-459.0,-431.0,-679.0,-564.0
-105.0,-169.0,-137.0,136.0,-27.0,-455.0,-435.0,-693.0,-550.0
-110.0,-168.0,-134.0,143.0,-25.0,-454.0,-451.0,-697.0,-540.0
-110.0,-173.0,-131.0,148.0,-24.0,-461.0,-450.0,-712.0,-537.0
-114.0,-171.0,-128.0,155.0,-20.0,-473.0,-466.0,-711.0,-523.0
-117.0,-174.0,-125.0,168.0,-13.0,-481.0,-471.0,-713.0,-504.0
-114.0,-181.0,-120.0,187.0,-8.0,-490.0,-483.0,-735.0,-480.0
-119.0,-176.0,-117.0,215.0,-5.0,-501.0,-490.0,-728.0,-483.0
-124.0,-173.0,-116.0,237.0,-3.0,-501.0,-510.0,-702.0,-473.0
-122.0,-178.0,-125.0,256.0,-4.0,-501.0,-500.0,-721.0,-489.0
-128.0,-177.0,-130.0,273.0,5.0,-504.0,-516.0,-739.0,-506.0
-127.0,-175.0,-120.0,284.0,12.0,-505.0,-513.0,-723.0,-490.0
-128.0,-178.0,-130.0,306.0,18.0,-500.0,-512.0,-741.0,-506.0
-128.0,-180.0,-129.0,328.0,20.0,-495.0,-528.0,-735.0,-526.0
-129.0,-180.0,-133.0,345.0,21.0,-492.0,-531.0,-727.0,-547.0
-131.0,-175.0,-132.0,355.0,15.0,-486.0,-536.0,-720.0,-547.0
-134.0,-181.0,-135.0,367.0,7.0,-471.0,-548.0,-734.0,-553.0
-130.0,-177.0,-137.0,381.0,-3.0,-454.0,-540.0,-731.0,-536.0
-129.0,-178.0,-134.0,400.0,-11.0,-439.0,-540.0,-739.0,-540.0
-130.0,-180.0,-137.0,414.0,-22.0,-426.0,-522.0,-746.0,-547.0
-128.0,-183.0,-134.0,431.0,-24.0,-414.0,-533.0,-757.0,-542.0
-134.0,-193.0,-139.0,445.0,-25.0,-400.0,-522.0,-803.0,-539.0
-122.0,-182.0,-130.0,450.0,-29.0,-400.0,-510.0,-751.0,-541.0
-123.0,-187.0,-130.0,463.0,-26.0,-384.0,-500.0,-774.0,-528.0
-121.0,-191.0,-130.0,481.0,-24.0,-376.0,-495.0,-787.0,-529.0
-113.0,-193.0,-126.0,494.0,-24.0,-374.0,-475.0,-785.0,-500.0
-118.0,-192.0,-128.0,510.0,-25.0,-379.0,-480.0,-795.0,-516.0
-114.0,-192.0,-127.0,515.0,-25.0,-383.0,-469.0,-789.0,-507.0
-111.0,-192.0,-127.0,522.0,-21.0,-391.0,-455.0,-796.0,-513.0
-108.0,-207.0,-126.0,523.0,-17.0,-399.0,-453.0,-857.0,-517.0
-110.0,-192.0,-122.0,525.0,-13.0,-414.0,-439.0,-800.0,-497.0
-104.0,-197.0,-121.0,536.0,-7.0,-417.0,-440.0,-805.0,-492.0
-113.0,-202.0,-128.0,553.0,0.0,-424.0,-442.0,-813.0,-489.0
-98.0,-202.0,-125.0,571.0,0.0,-428.0,-408.0,-829.0,-501.0
-101.0,-202.0,-124.0,596.0,12.0,-445.0,-413.0,-824.0,-499.0
-101.0,-200.0,-123.0,621.0,21.0,-459.0,-413.0,-825.0,-496.0
-91.0,-201.0,-121.0,645.0,33.0,-474.0,-384.0,-832.0,-488.0
-100.0,-208.0,-124.0,672.0,40.0,-488.0,-402.0,-853.0,-495.0
-98.0,-203.0,-121.0,697.0,46.0,-497.0,-388.0,-847.0,-485.0
-93.0,-202.0,-117.0,717.0,51.0,-513.0,-370.0,-848.0,-478.0
-91.0,-199.0,-116.0,729.0,56.0,-541.0,-365.0,-820.0,-474.0
-81.0,-211.0,-120.0,749.0,58.0,-550.0,-344.0,-857.0,-468.0
-80.0,-213.0,-114.0,780.0,54.0,-561.0,-348.0,-868.0,-484.0
-79.0,-212.0,-114.0,806.0,51.0,-579.0,-324.0,-873.0,-463.0
-74.0,-215.0,-118.0,840.0,45.0,-596.0,-314.0,-893.0,-471.0
-71.0,-218.0,-119.0,874.0,38.0,-617.0,-297.0,-896.0,-469.0
-69.0,-222.0,-114.0,907.0,31.0,-640.0,-291.0,-911.0,-462.0
-69.0,-221.0,-117.0,943.0,17.0,-661.0,-287.0,-911.0,-461.0
-65.0,-221.0,-116.0,979.0,3.0,-685.0,-271.0,-908.0,-442.0
-64.0,-226.0,-112.0,1016.0,-13.0,-706.0,-267.0,-919.0,-451.0
-63.0,-220.0,-109.0,1047.0,-27.0,-732.0,-258.0,-912.0,-446.0
-60.0,-221.0,-108.0,1078.0,-38.0,-756.0,-243.0,-912.0,-424.0
-61.0,-225.0,-108.0,1102.0,-49.0,-786.0,-250.0,-919.0,-428.0
-57.0,-228.0,-104.0,1118.0,-56.0,-812.0,-237.0,-917.0,-417.0
-57.0,-227.0,-104.0,1133.0,-59.0,-838.0,-237.0,-926.0,-409.0
-52.0,-226.0,-100.0,1145.0,-62.0,-863.0,-228.0,-938.0,-400.0
-54.0,-228.0,-100.0,1156.0,-63.0,-890.0,-220.0,-946.0,-387.0
-52.0,-234.0,-99.0,1170.0,-65.0,-916.0,-220.0,-956.0,-387.0
-52.0,-234.0,-98.0,1183.0,-67.0,-946.0,-213.0,-959.0,-386.0
-50.0,-234.0,-93.0,1190.0,-68.0,-976.0,-211.0,-967.0,-382.0
-48.0,-241.0,-92.0,1196.0,-67.0,-1005.0,-211.0,-972.0,-386.0
-52.0,-233.0,-101.0,1193.0,-64.0,-1029.0,-204.0,-974.0,-382.0
-47.0,-240.0,-98.0,1192.0,-61.0,-1054.0,-206.0,-990.0,-370.0
-55.0,-238.0,-91.0,1196.0,-65.0,-1075.0,-215.0,-996.0,-366.0
-53.0,-243.0,-92.0,1198.0,-70.0,-1090.0,-209.0,-998.0,-367.0
-46.0,-244.0,-94.0,1206.0,-71.0,-1107.0,-195.0,-1002.0,-373.0
-45.0,-245.0,-101.0,1218.0,-70.0,-1116.0,-196.0,-1005.0,-384.0
-43.0,-245.0,-96.0,1228.0,-67.0,-1121.0,-176.0,-1010.0,-381.0
-46.0,-245.0,-96.0,1233.0,-67.0,-1123.0,-187.0,-1003.0,-388.0
-46.0,-244.0,-92.0,1230.0,-73.0,-1125.0,-186.0,-1007.0,-385.0
-39.0,-251.0,-90.0,1227.0,-77.0,-1118.0,-165.0,-1021.0,-363.0
-40.0,-250.0,-89.0,1232.0,-79.0,-1112.0,-169.0,-1015.0,-357.0
-38.0,-251.0,-90.0,1229.0,-88.0,-1106.0,-156.0,-1028.0,-355.0
-32.0,-256.0,-84.0,1226.0,-87.0,-1101.0,-139.0,-1037.0,-342.0
-33.0,-258.0,-83.0,1243.0,-75.0,-1088.0,-179.0,-1029.0,-324.0
-31.0,-262.0,-78.0,1258.0,-63.0,-1092.0,-141.0,-1081.0,-307.0
-34.0,-263.0,-72.0,1270.0,-52.0,-1099.0,-138.0,-1094.0,-288.0
-29.0,-266.0,-66.0,1281.0,-39.0,-1099.0,-137.0,-1094.0,-254.0
-31.0,-262.0,-59.0,1286.0,-29.0,-1100.0,-146.0,-1101.0,-221.0
-35.0,-268.0,-46.0,1289.0,-26.0,-1103.0,-162.0,-1111.0,-173.0
-31.0,-274.0,-44.0,1291.0,-21.0,-1090.0,-134.0,-1137.0,-152.0
-32.0,-273.0,-37.0,1287.0,-11.0,-1079.0,-130.0,-1130.0,-127.0
-37.0,-283.0,-28.0,1277.0,-6.0,-1073.0,-150.0,-1152.0,-103.0
-31.0,-288.0,-23.0,1266.0,-9.0,-1059.0,-154.0,-1175.0,-89.0
-27.0,-287.0,-25.0,1261.0,-9.0,-1040.0,-133.0,-1184.0,-84.0
-30.0,-296.0,-25.0,1264.0,-5.0,-1001.0,-145.0,-1190.0,-65.0
-32.0,-294.0,-15.0,1265.0,-5.0,-976.0,-141.0,-1197.0,-54.0
-34.0,-294.0,-7.0,1256.0,-6.0,-954.0,-158.0,-1200.0,-34.0
-33.0,-293.0,-9.0,1251.0,-8.0,-926.0,-156.0,-1200.0,-23.0
-28.0,-293.0,-1.0,1247.0,-4.0,-902.0,-141.0,-1198.0,-13.0
-31.0,-289.0,0.0,1242.0,5.0,-878.0,-156.0,-1188.0,7.0
-35.0,-293.0,0.0,1233.0,18.0,-853.0,-156.0,-1197.0,13.0
-34.0,-297.0,2.0,1219.0,35.0,-834.0,-154.0,-1211.0,27.0
-34.0,-300.0,6.0,1213.0,54.0,-797.0,-163.0,-1232.0,22.0
-34.0,-301.0,1.0,1205.0,72.0,-783.0,-159.0,-1236.0,26.0
-35.0,-299.0,7.0,1188.0,90.0,-772.0,-154.0,-1235.0,42.0
-38.0,-298.0,9.0,1175.0,107.0,-756.0,-161.0,-1222.0,43.0
-39.0,-292.0,8.0,1167.0,119.0,-733.0,-169.0,-1209.0,56.0
-32.0,-296.0,9.0,1155.0,132.0,-711.0,-154.0,-1206.0,37.0
-31.0,-294.0,10.0,1132.0,146.0,-686.0,-145.0,-1196.0,46.0
-35.0,-291.0,15.0,1113.0,159.0,-662.0,-171.0,-1194.0,62.0
-32.0,-291.0,15.0,1084.0,163.0,-644.0,-154.0,-1192.0,63.0
-30.0,-290.0,12.0,1058.0,173.0,-624.0,-150.0,-1181.0,52.0
-27.0,-286.0,14.0,1044.0,180.0,-599.0,-136.0,-1168.0,61.0
-29.0,-276.0,15.0,1041.0,188.0,-565.0,-151.0,-1149.0,60.0
-21.0,-276.0,7.0,1029.0,193.0,-542.0,-120.0,-1131.0,31.0
-21.0,-268.0,11.0,1009.0,205.0,-519.0,-131.0,-1113.0,38.0
-27.0,-262.0,7.0,983.0,219.0,-494.0,-122.0,-1102.0,30.0
-33.0,-260.0,14.0,951.0,224.0,-472.0,-134.0,-1080.0,54.0
-27.0,-258.0,11.0,921.0,214.0,-452.0,-132.0,-1073.0,61.0
-26.0,-254.0,11.0,889.0,214.0,-435.0,-125.0,-1066.0,46.0
-28.0,-252.0,17.0,857.0,212.0,-422.0,-146.0,-1050.0,66.0
-39.0,-246.0,20.0,829.0,201.0,-407.0,-173.0,-1016.0,77.0
-37.0,-247.0,12.0,807.0,181.0,-393.0,-167.0,-1009.0,68.0
-37.0,-241.0,5.0,779.0,173.0,-385.0,-168.0,-997.0,47.0
-38.0,-235.0,3.0,746.0,166.0,-373.0,-175.0,-990.0,37.0
-39.0,-242.0,9.0,719.0,166.0,-350.0,-173.0,-982.0,17.0
-46.0,-241.0,2.0,691.0,168.0,-328.0,-192.0,-981.0,14.0
-36.0,-237.0,-3.0,667.0,167.0,-309.0,-172.0,-977.0,-10.0
-38.0,-236.0,-2.0,640.0,179.0,-286.0,-173.0,-971.0,-22.0
-38.0,-235.0,-9.0,613.0,188.0,-260.0,-174.0,-972.0,-19.0
-36.0,-233.0,-2.0,591.0,197.0,-243.0,-172.0,-960.0,-13.0
-35.0,-227.0,-7.0,565.0,205.0,-215.0,-171.0,-953.0,-3.0
-38.0,-231.0,-5.0,545.0,210.0,-197.0,-172.0,-948.0,-13.0
-40.0,-228.0,-5.0,535.0,204.0,-191.0,-175.0,-944.0,-17.0
-41.0,-225.0,0.0,540.0,188.0,-179.0,-188.0,-941.0,-16.0
-45.0,-225.0,-3.0,545.0,172.0,-169.0,-186.0,-940.0,-6.0
-42.0,-228.0,1.0,552.0,153.0,-162.0,-192.0,-940.0,-11.0
-44.0,-228.0,1.0,561.0,130.0,-156.0,-202.0,-944.0,-9.0
-45.0,-229.0,-4.0,579.0,104.0,-154.0,-184.0,-947.0,-5.0
-44.0,-229.0,-2.0,599.0,78.0,-159.0,-191.0,-943.0,-9.0
-41.0,-230.0,1.0,622.0,47.0,-161.0,-179.0,-950.0,-1.0
-39.0,-228.0,-1.0,648.0,19.0,-176.0,-180.0,-933.0,0.0
-43.0,-230.0,0.0,664.0,0.0,-169.0,-183.0,-940.0,-4.0
-34.0,-226.0,0.0,678.0,-17.0,-161.0,-167.0,-941.0,5.0
-32.0,-228.0,1.0,684.0,-24.0,-159.0,-156.0,-938.0,3.0
-31.0,-230.0,0.0,684.0,-34.0,-158.0,-148.0,-939.0,4.0
-25.0,-226.0,1.0,681.0,-39.0,-157.0,-115.0,-938.0,11.0
-20.0,-229.0,1.0,676.0,-43.0,-158.0,-101.0,-941.0,18.0
-20.0,-230.0,1.0,669.0,-52.0,-160.0,-92.0,-949.0,25.0
-13.0,-227.0,6.0,660.0,-62.0,-169.0,-83.0,-956.0,32.0
-16.0,-231.0,7.0,650.0,-76.0,-175.0,-81.0,-954.0,40.0
-12.0,-234.0,10.0,637.0,-92.0,-178.0,-83.0,-958.0,41.0
-13.0,-236.0,12.0,623.0,-108.0,-185.0,-67.0,-958.0,48.0
-8.0,-232.0,14.0,608.0,-115.0,-190.0,-64.0,-963.0,57.0
-15.0,-231.0,15.0,595.0,-124.0,-195.0,-70.0,-970.0,61.0
-8.0,-234.0,11.0,587.0,-135.0,-204.0,-62.0,-965.0,52.0
-2.0,-238.0,7.0,574.0,-145.0,-208.0,-43.0,-976.0,40.0
-4.0,-235.0,9.0,555.0,-146.0,-209.0,-52.0,-981.0,37.0
-4.0,-228.0,7.0,532.0,-146.0,-212.0,-41.0,-977.0,34.0
-2.0,-237.0,5.0,507.0,-139.0,-215.0,-28.0,-981.0,34.0
2.0,-238.0,5.0,483.0,-129.0,-218.0,-16.0,-990.0,49.0
5.0,-239.0,9.0,464.0,-123.0,-225.0,6.0,-994.0,48.0
15.0,-243.0,14.0,457.0,-121.0,-232.0,48.0,-992.0,72.0
19.0,-243.0,15.0,471.0,-128.0,-243.0,45.0,-1003.0,62.0
24.0,-245.0,19.0,491.0,-143.0,-254.0,71.0,-999.0,82.0
27.0,-243.0,18.0,521.0,-161.0,-270.0,82.0,-1004.0,90.0
32.0,-248.0,20.0,551.0,-177.0,-290.0,94.0,-994.0,95.0
27.0,-242.0,21.0,573.0,-189.0,-309.0,80.0,-995.0,92.0
28.0,-242.0,23.0,576.0,-199.0,-327.0,86.0,-1000.0,107.0
32.0,-246.0,24.0,565.0,-203.0,-344.0,89.0,-1009.0,110.0
32.0,-241.0,23.0,538.0,-198.0,-353.0,85.0,-1018.0,119.0
25.0,-249.0,28.0,504.0,-190.0,-363.0,77.0,-1032.0,125.0
25.0,-257.0,28.0,470.0,-183.0,-368.0,70.0,-1057.0,122.0
23.0,-261.0,33.0,435.0,-184.0,-367.0,60.0,-1077.0,138.0
18.0,-265.0,32.0,411.0,-191.0,-367.0,52.0,-1104.0,145.0
20.0,-270.0,35.0,396.0,-204.0,-366.0,56.0,-1111.0,149.0
12.0,-272.0,35.0,388.0,-220.0,-369.0,38.0,-1121.0,159.0
10.0,-273.0,46.0,387.0,-238.0,-371.0,35.0,-1128.0,165.0
14.0,-276.0,43.0,395.0,-254.0,-386.0,31.0,-1129.0,189.0
13.0,-270.0,44.0,407.0,-268.0,-400.0,31.0,-1132.0,192.0
13.0,-276.0,46.0,411.0,-272.0,-409.0,43.0,-1131.0,194.0
18.0,-275.0,45.0,410.0,-265.0,-418.0,42.0,-1129.0,185.0
24.0,-275.0,49.0,409.0,-253.0,-424.0,58.0,-1131.0,203.0
20.0,-270.0,45.0,416.0,-242.0,-427.0,49.0,-1122.0,206.0
23.0,-274.0,54.0,424.0,-235.0,-419.0,67.0,-1130.0,219.0
27.0,-274.0,54.0,442.0,-229.0,-411.0,82.0,-1125.0,227.0
24.0,-271.0,59.0,456.0,-223.0,-399.0,72.0,-1117.0,233.0
21.0,-269.0,55.0,464.0,-218.0,-390.0,65.0,-1119.0,247.0
27.0,-271.0,59.0,472.0,-213.0,-372.0,58.0,-1100.0,255.0
23.0,-267.0,61.0,476.0,-205.0,-354.0,75.0,-1110.0,265.0
24.0,-269.0,61.0,486.0,-203.0,-344.0,72.0,-1103.0,271.0
22.0,-262.0,67.0,501.0,-205.0,-339.0,65.0,-1093.0,286.0
18.0,-259.0,69.0,520.0,-214.0,-329.0,58.0,-1076.0,294.0
22.0,-256.0,72.0,541.0,-220.0,-326.0,54.0,-1061.0,307.0
23.0,-253.0,72.0,561.0,-227.0,-320.0,49.0,-1050.0,301.0
25.0,-250.0,74.0,569.0,-231.0,-314.0,61.0,-1020.0,318.0
31.0,-245.0,79.0,567.0,-230.0,-301.0,78.0,-1008.0,325.0
30.0,-244.0,79.0,568.0,-224.0,-285.0,82.0,-1002.0,334.0
31.0,-244.0,81.0,574.0,-218.0,-266.0,83.0,-991.0,341.0
28.0,-236.0,77.0,582.0,-209.0,-242.0,87.0,-977.0,349.0
30.0,-234.0,77.0,589.0,-196.0,-213.0,94.0,-980.0,348.0
35.0,-234.0,83.0,597.0,-187.0,-191.0,96.0,-971.0,345.0
33.0,-232.0,82.0,600.0,-183.0,-168.0,108.0,-962.0,345.0
31.0,-237.0,82.0,605.0,-183.0,-143.0,93.0,-962.0,337.0
30.0,-230.0,73.0,617.0,-194.0,-121.0,82.0,-955.0,328.0
19.0,-230.0,76.0,626.0,-216.0,-99.0,55.0,-942.0,312.0
15.0,-228.0,72.0,629.0,-243.0,-80.0,27.0,-938.0,300.0
9.0,-226.0,70.0,629.0,-275.0,-62.0,18.0,-931.0,278.0
8.0,-226.0,65.0,625.0,-304.0,-48.0,10.0,-937.0,282.0
5.0,-225.0,62.0,619.0,-330.0,-40.0,-7.0,-936.0,274.0
7.0,-222.0,63.0,615.0,-349.0,-25.0,-5.0,-930.0,278.0
7.0,-226.0,66.0,613.0,-358.0,-9.0,1.0,-930.0,277.0
9.0,-227.0,68.0,612.0,-352.0,13.0,7.0,-924.0,278.0
10.0,-221.0,66.0,614.0,-336.0,43.0,26.0,-920.0,283.0
18.0,-219.0,68.0,626.0,-314.0,75.0,38.0,-904.0,272.0
17.0,-215.0,67.0,649.0,-295.0,110.0,44.0,-905.0,284.0
20.0,-218.0,69.0,684.0,-280.0,143.0,46.0,-889.0,270.0
24.0,-213.0,63.0,729.0,-275.0,176.0,60.0,-875.0,270.0
23.0,-212.0,64.0,774.0,-271.0,204.0,60.0,-862.0,259.0
23.0,-207.0,63.0,815.0,-270.0,230.0,64.0,-856.0,264.0
25.0,-205.0,64.0,847.0,-276.0,252.0,70.0,-852.0,265.0
27.0,-208.0,67.0,865.0,-282.0,272.0,62.0,-856.0,272.0
22.0,-204.0,70.0,874.0,-291.0,292.0,68.0,-853.0,273.0
23.0,-207.0,66.0,869.0,-303.0,309.0,67.0,-863.0,281.0
22.0,-205.0,63.0,852.0,-319.0,325.0,61.0,-868.0,291.0
23.0,-210.0,70.0,826.0,-333.0,346.0,57.0,-868.0,292.0
25.0,-206.0,73.0,791.0,-341.0,372.0,63.0,-865.0,296.0
24.0,-208.0,76.0,745.0,-347.0,401.0,70.0,-869.0,321.0
29.0,-205.0,79.0,691.0,-347.0,433.0,78.0,-874.0,321.0
30.0,-210.0,78.0,628.0,-349.0,468.0,94.0,-880.0,328.0
32.0,-210.0,76.0,559.0,-355.0,500.0,111.0,-890.0,322.0
30.0,-209.0,72.0,487.0,-364.0,531.0,102.0,-897.0,311.0
32.0,-215.0,73.0,422.0,-382.0,558.0,91.0,-915.0,318.0
33.0,-222.0,72.0,366.0,-402.0,577.0,97.0,-922.0,318.0
27.0,-220.0,69.0,323.0,-417.0,591.0,105.0,-937.0,315.0
36.0,-228.0,74.0,293.0,-421.0,596.0,100.0,-947.0,322.0
36.0,-231.0,75.0,273.0,-416.0,597.0,106.0,-958.0,322.0
38.0,-237.0,75.0,254.0,-407.0,589.0,112.0,-975.0,327.0
43.0,-238.0,76.0,235.0,-400.0,574.0,119.0,-979.0,332.0
44.0,-238.0,79.0,209.0,-390.0,553.0,130.0,-986.0,342.0
45.0,-241.0,85.0,176.0,-385.0,529.0,137.0,-987.0,372.0
48.0,-241.0,89.0,143.0,-387.0,501.0,137.0,-988.0,378.0
42.0,-239.0,99.0,110.0,-394.0,470.0,137.0,-980.0,386.0
45.0,-233.0,99.0,81.0,-400.0,439.0,142.0,-980.0,393.0
45.0,-235.0,100.0,62.0,-407.0,407.0,134.0,-975.0,406.0
39.0,-234.0,98.0,58.0,-411.0,379.0,132.0,-955.0,406.0
45.0,-231.0,97.0,62.0,-410.0,357.0,128.0,-956.0,411.0
40.0,-229.0,95.0,76.0,-400.0,335.0,122.0,-949.0,400.0
38.0,-225.0,98.0,93.0,-388.0,314.0,106.0,-939.0,403.0
37.0,-227.0,98.0,108.0,-374.0,291.0,95.0,-940.0,396.0
34.0,-228.0,96.0,121.0,-364.0,270.0,90.0,-939.0,400.0
32.0,-226.0,92.0,136.0,-353.0,247.0,80.0,-930.0,391.0
30.0,-225.0,86.0,148.0,-339.0,230.0,78.0,-934.0,381.0
26.0,-229.0,94.0,159.0,-327.0,213.0,69.0,-938.0,373.0
45.0,-235.0,77.0,170.0,-317.0,198.0,127.0,-969.0,333.0
24.0,-227.0,96.0,173.0,-299.0,172.0,55.0,-926.0,392.0
21.0,-225.0,93.0,195.0,-300.0,172.0,45.0,-935.0,386.0
20.0,-231.0,90.0,218.0,-291.0,169.0,39.0,-949.0,382.0
20.0,-234.0,88.0,221.0,-273.0,166.0,34.0,-955.0,382.0
19.0,-231.0,88.0,217.0,-247.0,163.0,41.0,-961.0,379.0
19.0,-235.0,87.0,217.0,-222.0,171.0,41.0,-967.0,368.0
22.0,-239.0,84.0,218.0,-199.0,175.0,55.0,-969.0,363.0
26.0,-239.0,86.0,224.0,-179.0,179.0,57.0,-971.0,352.0
26.0,-239.0,82.0,239.0,-166.0,180.0,69.0,-977.0,343.0
30.0,-240.0,83.0,255.0,-163.0,177.0,84.0,-992.0,342.0
28.0,-241.0,85.0,276.0,-158.0,167.0,92.0,-999.0,351.0
30.0,-245.0,80.0,299.0,-154.0,151.0,93.0,-1007.0,341.0
24.0,-248.0,77.0,321.0,-152.0,129.0,88.0,-1027.0,346.0
26.0,-256.0,80.0,349.0,-146.0,104.0,79.0,-1044.0,339.0
30.0,-259.0,80.0,383.0,-143.0,78.0,77.0,-1068.0,341.0
28.0,-267.0,78.0,425.0,-134.0,53.0,83.0,-1072.0,338.0
32.0,-263.0,80.0,474.0,-114.0,29.0,93.0,-1091.0,321.0
32.0,-265.0,76.0,537.0,-85.0,4.0,93.0,-1099.0,323.0
34.0,-266.0,70.0,594.0,-51.0,-21.0,84.0,-1096.0,300.0
27.0,-262.0,67.0,641.0,-17.0,-45.0,87.0,-1094.0,283.0
28.0,-258.0,65.0,679.0,11.0,-73.0,77.0,-1080.0,262.0
25.0,-255.0,60.0,701.0,36.0,-109.0,55.0,-1056.0,259.0
15.0,-251.0,63.0,715.0,55.0,-139.0,35.0,-1031.0,266.0
7.0,-243.0,59.0,730.0,70.0,-161.0,19.0,-1010.0,259.0
8.0,-239.0,63.0,730.0,86.0,-169.0,12.0,-991.0,271.0
9.0,-236.0,67.0,727.0,108.0,-173.0,6.0,-976.0,277.0
4.0,-233.0,72.0,734.0,128.0,-179.0,-16.0,-956.0,292.0
-6.0,-227.0,70.0,747.0,135.0,-183.0,-46.0,-938.0,308.0
-8.0,-218.0,74.0,748.0,125.0,-183.0,-64.0,-909.0,309.0
-16.0,-208.0,69.0,727.0,103.0,-184.0,-87.0,-866.0,298.0
-22.0,-200.0,67.0,678.0,73.0,-179.0,-110.0,-830.0,283.0
-24.0,-191.0,67.0,602.0,42.0,-173.0,-109.0,-805.0,279.0
-18.0,-189.0,74.0,499.0,29.0,-175.0,-108.0,-793.0,296.0
-16.0,-187.0,79.0,387.0,44.0,-191.0,-103.0,-781.0,341.0
-16.0,-190.0,81.0,281.0,77.0,-225.0,-85.0,-785.0,362.0
-8.0,-189.0,84.0,194.0,101.0,-283.0,-72.0,-779.0,343.0
-6.0,-191.0,83.0,126.0,117.0,-353.0,-64.0,-800.0,342.0
-9.0,-202.0,84.0,72.0,137.0,-416.0,-53.0,-845.0,359.0
1.0,-213.0,91.0,25.0,169.0,-458.0,-29.0,-903.0,385.0
11.0,-228.0,101.0,-7.0,210.0,-481.0,6.0,-943.0,410.0
21.0,-237.0,104.0,-7.0,260.0,-496.0,40.0,-983.0,453.0
24.0,-248.0,114.0,23.0,304.0,-508.0,58.0,-1015.0,476.0
31.0,-253.0,120.0,72.0,334.0,-520.0,75.0,-1043.0,485.0
29.0,-251.0,118.0,122.0,351.0,-536.0,88.0,-1032.0,485.0
29.0,-244.0,109.0,167.0,354.0,-549.0,79.0,-1014.0,469.0
26.0,-241.0,108.0,187.0,345.0,-559.0,62.0,-987.0,454.0
11.0,-232.0,106.0,177.0,328.0,-549.0,26.0,-958.0,427.0
4.0,-227.0,98.0,145.0,304.0,-516.0,-11.0,-945.0,425.0
-4.0,-224.0,103.0,100.0,283.0,-464.0,-47.0,-939.0,425.0
-12.0,-223.0,105.0,60.0,271.0,-396.0,-69.0,-932.0,439.0
-14.0,-225.0,108.0,33.0,258.0,-325.0,-89.0,-932.0,446.0
-20.0,-227.0,113.0,20.0,240.0,-251.0,-116.0,-929.0,464.0
-27.0,-227.0,116.0,25.0,216.0,-178.0,-130.0,-937.0,482.0
-24.0,-226.0,122.0,39.0,184.0,-114.0,-133.0,-936.0,497.0
-26.0,-227.0,122.0,60.0,149.0,-55.0,-141.0,-941.0,516.0
-28.0,-223.0,125.0,85.0,114.0,-3.0,-155.0,-949.0,527.0
-29.0,-232.0,128.0,115.0,81.0,42.0,-157.0,-952.0,538.0
-32.0,-233.0,127.0,147.0,53.0,76.0,-158.0,-957.0,535.0
-30.0,-235.0,129.0,178.0,31.0,101.0,-149.0,-967.0,544.0
-32.0,-235.0,132.0,215.0,13.0,116.0,-149.0,-974.0,535.0
-27.0,-238.0,128.0,248.0,4.0,126.0,-140.0,-981.0,535.0
-22.0,-240.0,125.0,282.0,1.0,130.0,-126.0,-975.0,528.0
-21.0,-237.0,124.0,308.0,1.0,129.0,-105.0,-980.0,519.0
-16.0,-232.0,118.0,330.0,7.0,124.0,-95.0,-970.0,501.0
-8.0,-234.0,117.0,346.0,16.0,114.0,-84.0,-958.0,485.0
-7.0,-231.0,112.0,355.0,30.0,103.0,-66.0,-945.0,480.0
-5.0,-230.0,112.0,360.0,45.0,90.0,-51.0,-932.0,470.0
0.0,-220.0,110.0,366.0,61.0,73.0,-31.0,-920.0,465.0
4.0,-214.0,111.0,370.0,74.0,56.0,-18.0,-910.0,468.0
8.0,-217.0,110.0,368.0,85.0,38.0,-3.0,-903.0,457.0
12.0,-218.0,114.0,366.0,95.0,21.0,16.0,-890.0,462.0
17.0,-214.0,112.0,363.0,102.0,2.0,23.0,-880.0,466.0
16.0,-211.0,114.0,363.0,110.0,-14.0,34.0,-873.0,472.0
22.0,-209.0,113.0,368.0,115.0,-29.0,41.0,-873.0,485.0
22.0,-209.0,118.0,377.0,117.0,-39.0,53.0,-858.0,485.0
26.0,-209.0,117.0,393.0,120.0,-46.0,53.0,-860.0,499.0
25.0,-209.0,123.0,409.0,120.0,-51.0,54.0,-856.0,496.0
21.0,-208.0,119.0,430.0,115.0,-55.0,55.0,-853.0,507.0
20.0,-205.0,123.0,450.0,109.0,-56.0,54.0,-851.0,508.0
22.0,-204.0,117.0,471.0,99.0,-55.0,48.0,-854.0,506.0
18.0,-205.0,123.0,489.0,88.0,-52.0,45.0,-856.0,509.0
19.0,-209.0,125.0,500.0,77.0,-46.0,37.0,-860.0,510.0
18.0,-209.0,127.0,510.0,65.0,-43.0,44.0,-869.0,516.0
19.0,-212.0,124.0,521.0,56.0,-37.0,36.0,-877.0,512.0
19.0,-212.0,123.0,526.0,46.0,-33.0,33.0,-883.0,515.0
15.0,-215.0,121.0,534.0,30.0,-26.0,32.0,-898.0,513.0
21.0,-218.0,120.0,542.0,16.0,-20.0,38.0,-910.0,507.0
11.0,-219.0,121.0,550.0,3.0,-15.0,36.0,-917.0,504.0
17.0,-226.0,114.0,558.0,-13.0,-10.0,33.0,-923.0,502.0
16.0,-224.0,115.0,563.0,-24.0,-5.0,28.0,-924.0,499.0
17.0,-226.0,114.0,566.0,-26.0,-2.0,31.0,-933.0,491.0
15.0,-228.0,117.0,569.0,-28.0,4.0,26.0,-941.0,487.0
20.0,-229.0,118.0,573.0,-26.0,7.0,34.0,-943.0,493.0
21.0,-230.0,114.0,580.0,-19.0,8.0,42.0,-948.0,485.0
33.0,-230.0,119.0,588.0,-9.0,11.0,57.0,-941.0,488.0
31.0,-229.0,115.0,594.0,3.0,10.0,70.0,-939.0,487.0
25.0,-227.0,118.0,601.0,15.0,6.0,60.0,-939.0,488.0
27.0,-225.0,118.0,608.0,21.0,0.0,65.0,-929.0,490.0
30.0,-222.0,115.0,616.0,25.0,-9.0,78.0,-918.0,498.0
32.0,-222.0,117.0,620.0,31.0,-20.0,86.0,-910.0,492.0
30.0,-212.0,120.0,619.0,39.0,-30.0,82.0,-888.0,490.0
30.0,-208.0,123.0,606.0,47.0,-39.0,78.0,-874.0,493.0
29.0,-207.0,121.0,585.0,49.0,-47.0,71.0,-860.0,511.0
31.0,-206.0,127.0,569.0,52.0,-51.0,77.0,-847.0,511.0
33.0,-203.0,126.0,552.0,54.0,-52.0,88.0,-840.0,517.0
32.0,-199.0,123.0,529.0,58.0,-49.0,86.0,-834.0,520.0
33.0,-194.0,125.0,497.0,59.0,-41.0,88.0,-812.0,522.0
27.0,-198.0,131.0,463.0,59.0,-29.0,73.0,-829.0,526.0
28.0,-199.0,128.0,429.0,54.0,-26.0,74.0,-828.0,533.0
27.0,-200.0,123.0,400.0,47.0,-19.0,69.0,-827.0,532.0
29.0,-200.0,125.0,365.0,42.0,-15.0,72.0,-836.0,523.0
29.0,-200.0,124.0,323.0,39.0,-9.0,72.0,-837.0,515.0
28.0,-202.0,121.0,278.0,33.0,-3.0,64.0,-844.0,509.0
22.0,-198.0,121.0,231.0,25.0,2.0,66.0,-842.0,511.0
24.0,-200.0,123.0,185.0,18.0,4.0,63.0,-833.0,510.0
24.0,-198.0,124.0,143.0,11.0,7.0,50.0,-830.0,511.0
19.0,-198.0,126.0,109.0,6.0,6.0,47.0,-823.0,512.0
18.0,-202.0,128.0,79.0,1.0,2.0,40.0,-831.0,520.0
17.0,-203.0,124.0,59.0,-5.0,-2.0,31.0,-837.0,525.0
15.0,-205.0,126.0,50.0,-9.0,-8.0,31.0,-851.0,528.0
12.0,-206.0,126.0,49.0,-13.0,-15.0,26.0,-858.0,534.0
12.0,-210.0,127.0,55.0,-14.0,-22.0,23.0,-857.0,529.0
15.0,-210.0,130.0,64.0,-16.0,-27.0,28.0,-874.0,536.0
14.0,-211.0,130.0,77.0,-14.0,-35.0,21.0,-878.0,540.0
13.0,-211.0,130.0,92.0,-12.0,-43.0,16.0,-880.0,533.0
14.0,-214.0,130.0,102.0,-8.0,-50.0,13.0,-877.0,542.0
12.0,-213.0,131.0,109.0,-5.0,-57.0,15.0,-880.0,535.0
12.0,-210.0,129.0,111.0,0.0,-61.0,15.0,-877.0,540.0
12.0,-210.0,128.0,108.0,4.0,-64.0,16.0,-876.0,542.0
13.0,-208.0,129.0,99.0,9.0,-65.0,16.0,-871.0,551.0
14.0,-208.0,128.0,88.0,16.0,-65.0,14.0,-866.0,548.0
10.0,-207.0,137.0,72.0,23.0,-64.0,18.0,-863.0,552.0
10.0,-199.0,131.0,56.0,30.0,-59.0,19.0,-860.0,557.0
11.0,-203.0,135.0,40.0,38.0,-55.0,19.0,-845.0,562.0
13.0,-200.0,139.0,22.0,45.0,-48.0,18.0,-846.0,567.0
12.0,-205.0,138.0,10.0,51.0,-42.0,11.0,-835.0,578.0
9.0,-203.0,136.0,0.0,55.0,-33.0,6.0,-842.0,586.0
9.0,-204.0,141.0,-10.0,59.0,-26.0,0.0,-841.0,587.0
8.0,-198.0,138.0,-16.0,58.0,-17.0,-1.0,-836.0,592.0
10.0,-204.0,139.0,-22.0,57.0,-8.0,-3.0,-836.0,596.0
10.0,-208.0,140.0,-22.0,53.0,-1.0,-4.0,-839.0,602.0
8.0,-203.0,145.0,-20.0,50.0,8.0,-9.0,-839.0,602.0
1.0,-202.0,142.0,-15.0,44.0,13.0,-8.0,-840.0,603.0
6.0,-203.0,143.0,-5.0,36.0,18.0,-11.0,-843.0,599.0
5.0,-204.0,142.0,4.0,26.0,24.0,-19.0,-844.0,590.0
3.0,-203.0,141.0,12.0,17.0,29.0,-11.0,-843.0,599.0
7.0,-204.0,141.0,20.0,6.0,32.0,-10.0,-850.0,586.0
5.0,-204.0,142.0,25.0,-4.0,34.0,-9.0,-839.0,582.0
8.0,-198.0,136.0,25.0,-13.0,34.0,-11.0,-839.0,574.0
9.0,-202.0,136.0,23.0,-20.0,33.0,-7.0,-837.0,569.0
7.0,-199.0,133.0,16.0,-26.0,31.0,0.0,-839.0,568.0
10.0,-200.0,134.0,9.0,-31.0,26.0,3.0,-835.0,566.0
14.0,-202.0,136.0,1.0,-31.0,21.0,13.0,-838.0,561.0
18.0,-193.0,135.0,-6.0,-30.0,14.0,6.0,-840.0,565.0
12.0,-203.0,134.0,-11.0,-28.0,9.0,11.0,-841.0,566.0
13.0,-204.0,134.0,-11.0,-23.0,2.0,16.0,-847.0,563.0
11.0,-203.0,137.0,-8.0,-19.0,-7.0,14.0,-852.0,566.0
14.0,-208.0,138.0,-1.0,-14.0,-12.0,16.0,-855.0,565.0
18.0,-207.0,135.0,8.0,-6.0,-17.0,18.0,-869.0,567.0
12.0,-206.0,138.0,21.0,0.0,-25.0,16.0,-865.0,573.0
16.0,-209.0,143.0,33.0,6.0,-30.0,23.0,-867.0,571.0
9.0,-211.0,136.0,44.0,11.0,-33.0,20.0,-869.0,563.0
16.0,-210.0,135.0,53.0,15.0,-36.0,18.0,-870.0,573.0
12.0,-210.0,137.0,60.0,17.0,-40.0,20.0,-870.0,565.0
16.0,-210.0,137.0,63.0,17.0,-44.0,19.0,-872.0,563.0
15.0,-211.0,135.0,64.0,16.0,-44.0,17.0,-870.0,560.0
13.0,-207.0,133.0,60.0,15.0,-44.0,15.0,-871.0,563.0
14.0,-209.0,131.0,56.0,16.0,-41.0,11.0,-868.0,560.0
14.0,-208.0,135.0,49.0,15.0,-39.0,12.0,-866.0,556.0
11.0,-209.0,134.0,43.0,14.0,-38.0,12.0,-861.0,563.0
11.0,-207.0,132.0,36.0,14.0,-34.0,10.0,-869.0,552.0
13.0,-207.0,132.0,29.0,12.0,-30.0,10.0,-869.0,558.0
11.0,-209.0,136.0,24.0,12.0,-25.0,9.0,-871.0,555.0
12.0,-208.0,134.0,22.0,10.0,-21.0,15.0,-870.0,559.0
12.0,-206.0,131.0,22.0,8.0,-19.0,10.0,-870.0,550.0
12.0,-211.0,134.0,25.0,6.0,-16.0,11.0,-860.0,560.0
13.0,-211.0,133.0,29.0,3.0,-14.0,16.0,-863.0,547.0
12.0,-209.0,131.0,33.0,0.0,-15.0,19.0,-872.0,549.0
17.0,-209.0,129.0,37.0,0.0,-13.0,22.0,-868.0,544.0
16.0,-207.0,130.0,39.0,-3.0,-13.0,23.0,-864.0,539.0
16.0,-208.0,129.0,38.0,-4.0,-13.0,23.0,-863.0,538.0
18.0,-208.0,129.0,36.0,-2.0,-13.0,25.0,-859.0,534.0
16.0,-209.0,131.0,33.0,-1.0,-14.0,27.0,-859.0,535.0
17.0,-209.0,125.0,31.0,0.0,-16.0,27.0,-851.0,530.0
15.0,-204.0,124.0,25.0,4.0,-15.0,30.0,-855.0,527.0
15.0,-206.0,127.0,22.0,7.0,-18.0,33.0,-856.0,529.0
17.0,-205.0,126.0,19.0,11.0,-17.0,33.0,-856.0,530.0
19.0,-205.0,129.0,17.0,15.0,-19.0,29.0,-857.0,533.0
15.0,-205.0,128.0,18.0,20.0,-18.0,31.0,-858.0,537.0
17.0,-209.0,132.0,18.0,22.0,-18.0,25.0,-860.0,544.0
19.0,-205.0,129.0,19.0,25.0,-18.0,31.0,-863.0,538.0
16.0,-209.0,131.0,20.0,28.0,-20.0,31.0,-858.0,541.0
19.0,-208.0,130.0,22.0,32.0,-22.0,25.0,-863.0,549.0
18.0,-209.0,130.0,24.0,34.0,-22.0,30.0,-869.0,548.0
20.0,-210.0,132.0,28.0,34.0,-22.0,34.0,-864.0,552.0
21.0,-209.0,135.0,30.0,35.0,-23.0,32.0,-867.0,556.0
15.0,-210.0,132.0,31.0,35.0,-23.0,28.0,-874.0,555.0
15.0,-202.0,129.0,32.0,33.0,-24.0,27.0,-872.0,558.0
15.0,-210.0,132.0,30.0,30.0,-25.0,31.0,-872.0,560.0
18.0,-208.0,136.0,26.0,29.0,-24.0,24.0,-865.0,562.0
13.0,-207.0,136.0,21.0,25.0,-24.0,21.0,-867.0,563.0
14.0,-209.0,136.0,17.0,21.0,-26.0,19.0,-863.0,560.0
15.0,-209.0,133.0,11.0,18.0,-25.0,19.0,-863.0,556.0
15.0,-213.0,135.0,7.0,14.0,-25.0,23.0,-864.0,560.0
15.0,-205.0,133.0,3.0,10.0,-23.0,21.0,-865.0,567.0
14.0,-207.0,132.0,0.0,6.0,-21.0,23.0,-863.0,565.0
12.0,-210.0,137.0,-2.0,4.0,-20.0,19.0,-862.0,563.0
15.0,-208.0,134.0,-5.0,1.0,-18.0,17.0,-872.0,566.0
11.0,-207.0,134.0,-6.0,-4.0,-17.0,21.0,-868.0,563.0
13.0,-208.0,133.0,-6.0,-8.0,-15.0,22.0,-870.0,563.0
12.0,-209.0,133.0,-6.0,-13.0,-14.0,18.0,-864.0,563.0
16.0,-209.0,131.0,-4.0,-17.0,-10.0,10.0,-867.0,555.0
15.0,-209.0,134.0,-3.0,-20.0,-10.0,16.0,-868.0,556.0
13.0,-206.0,132.0,3.0,-21.0,-8.0,20.0,-862.0,550.0
13.0,-207.0,132.0,8.0,-21.0,-6.0,21.0,-864.0,558.0
7.0,-204.0,129.0,14.0,-18.0,-4.0,20.0,-865.0,549.0
11.0,-203.0,130.0,19.0,-15.0,-5.0,15.0,-858.0,540.0
15.0,-207.0,129.0,25.0,-14.0,-3.0,19.0,-863.0,538.0
12.0,-204.0,130.0,27.0,-9.0,-4.0,18.0,-857.0,540.0
8.0,-206.0,132.0,27.0,-4.0,-6.0,16.0,-853.0,538.0
13.0,-203.0,128.0,28.0,0.0,-6.0,17.0,-859.0,536.0
12.0,-204.0,130.0,27.0,3.0,-7.0,19.0,-858.0,539.0
12.0,-207.0,129.0,24.0,9.0,-8.0,15.0,-855.0,538.0
11.0,-206.0,127.0,20.0,12.0,-8.0,21.0,-854.0,540.0
13.0,-204.0,129.0,19.0,14.0,-8.0,23.0,-861.0,542.0
16.0,-207.0,130.0,18.0,17.0,-9.0,30.0,-859.0,540.0
13.0,-206.0,132.0,18.0,19.0,-10.0,23.0,-862.0,545.0
17.0,-210.0,132.0,18.0,19.0,-13.0,30.0,-866.0,547.0
17.0,-211.0,133.0,19.0,21.0,-15.0,29.0,-861.0,549.0
19.0,-209.0,130.0,19.0,20.0,-17.0,31.0,-871.0,549.0
15.0,-208.0,135.0,22.0,21.0,-17.0,34.0,-870.0,540.0
19.0,-209.0,127.0,24.0,22.0,-19.0,35.0,-874.0,543.0
18.0,-211.0,129.0,28.0,20.0,-21.0,39.0,-869.0,548.0
19.0,-211.0,131.0,29.0,18.0,-23.0,34.0,-868.0,547.0
17.0,-208.0,132.0,32.0,16.0,-22.0,29.0,-872.0,544.0
17.0,-206.0,129.0,35.0,14.0,-21.0,32.0,-866.0,548.0
17.0,-208.0,131.0,37.0,12.0,-22.0,32.0,-857.0,547.0
17.0,-211.0,131.0,38.0,12.0,-23.0,33.0,-866.0,545.0
16.0,-207.0,130.0,40.0,10.0,-23.0,33.0,-867.0,548.0
17.0,-210.0,127.0,43.0,7.0,-23.0,32.0,-862.0,553.0
22.0,-210.0,130.0,44.0,6.0,-23.0,29.0,-864.0,553.0
18.0,-208.0,131.0,46.0,5.0,-21.0,31.0,-862.0,552.0
17.0,-207.0,134.0,47.0,2.0,-20.0,26.0,-862.0,549.0
17.0,-206.0,130.0,47.0,2.0,-21.0,28.0,-861.0,551.0
15.0,-205.0,134.0,48.0,0.0,-18.0,21.0,-859.0,554.0
16.0,-207.0,130.0,47.0,-1.0,-17.0,26.0,-862.0,549.0
17.0,-210.0,132.0,46.0,-2.0,-18.0,22.0,-860.0,554.0
13.0,-207.0,131.0,47.0,-1.0,-15.0,19.0,-866.0,549.0
16.0,-208.0,138.0,45.0,-1.0,-15.0,29.0,-859.0,546.0
15.0,-210.0,134.0,45.0,0.0,-15.0,18.0,-865.0,548.0
9.0,-208.0,134.0,46.0,1.0,-15.0,26.0,-862.0,543.0
10.0,-211.0,127.0,45.0,3.0,-15.0,22.0,-866.0,544.0
14.0,-211.0,128.0,47.0,3.0,-15.0,24.0,-876.0,548.0
12.0,-209.0,131.0,49.0,5.0,-14.0,24.0,-871.0,544.0
11.0,-211.0,131.0,51.0,5.0,-15.0,22.0,-874.0,541.0
15.0,-212.0,128.0,53.0,6.0,-15.0,17.0,-873.0,548.0
10.0,-208.0,127.0,57.0,8.0,-14.0,17.0,-870.0,538.0
15.0,-211.0,132.0,61.0,8.0,-12.0,18.0,-872.0,548.0
15.0,-213.0,131.0,64.0,9.0,-13.0,20.0,-871.0,538.0
13.0,-208.0,129.0,66.0,11.0,-13.0,19.0,-874.0,540.0
13.0,-207.0,132.0,68.0,15.0,-13.0,21.0,-872.0,540.0
18.0,-217.0,129.0,68.0,17.0,-15.0,20.0,-875.0,537.0
10.0,-206.0,131.0,69.0,20.0,-14.0,24.0,-875.0,537.0
15.0,-210.0,130.0,69.0,23.0,-15.0,23.0,-875.0,534.0
14.0,-208.0,128.0,67.0,25.0,-13.0,20.0,-872.0,538.0
14.0,-209.0,128.0,66.0,24.0,-14.0,26.0,-867.0,532.0
17.0,-210.0,127.0,65.0,24.0,-14.0,23.0,-871.0,532.0
14.0,-213.0,128.0,64.0,23.0,-16.0,20.0,-864.0,532.0
12.0,-205.0,129.0,62.0,22.0,-16.0,25.0,-866.0,532.0
16.0,-211.0,128.0,62.0,21.0,-17.0,23.0,-865.0,534.0
16.0,-207.0,132.0,61.0,20.0,-17.0,22.0,-873.0,539.0
15.0,-208.0,126.0,63.0,19.0,-19.0,27.0,-865.0,534.0
14.0,-205.0,129.0,62.0,20.0,-19.0,23.0,-865.0,543.0
13.0,-209.0,129.0,61.0,20.0,-21.0,22.0,-862.0,543.0
17.0,-208.0,127.0,60.0,21.0,-21.0,24.0,-858.0,546.0
18.0,-208.0,131.0,57.0,21.0,-21.0,23.0,-857.0,543.0
13.0,-208.0,127.0,53.0,21.0,-24.0,30.0,-857.0,548.0
13.0,-206.0,131.0,49.0,22.0,-25.0,27.0,-862.0,544.0
16.0,-205.0,135.0,45.0,23.0,-26.0,31.0,-857.0,549.0
18.0,-211.0,134.0,42.0,23.0,-26.0,26.0,-860.0,550.0
17.0,-210.0,132.0,38.0,24.0,-25.0,28.0,-863.0,553.0
19.0,-207.0,130.0,35.0,24.0,-25.0,29.0,-865.0,555.0
19.0,-208.0,132.0,36.0,23.0,-24.0,23.0,-866.0,550.0
15.0,-208.0,132.0,38.0,23.0,-24.0,33.0,-868.0,552.0
14.0,-209.0,133.0,39.0,20.0,-23.0,23.0,-866.0,554.0
15.0,-209.0,133.0,43.0,19.0,-23.0,29.0,-870.0,553.0
18.0,-209.0,132.0,46.0,15.0,-22.0,28.0,-866.0,562.0
16.0,-210.0,131.0,50.0,14.0,-21.0,26.0,-872.0,555.0
16.0,-209.0,135.0,55.0,14.0,-20.0,26.0,-872.0,555.0
12.0,-209.0,130.0,58.0,10.0,-20.0,22.0,-870.0,554.0
15.0,-207.0,135.0,62.0,9.0,-19.0,22.0,-867.0,554.0
13.0,-208.0,135.0,65.0,7.0,-19.0,23.0,-871.0,551.0
14.0,-208.0,132.0,66.0,6.0,-20.0,28.0,-870.0,558.0
13.0,-205.0,133.0,65.0,7.0,-19.0,23.0,-861.0,552.0
15.0,-209.0,127.0,66.0,8.0,-18.0,30.0,-864.0,547.0
12.0,-211.0,134.0,66.0,7.0,-17.0,30.0,-865.0,549.0
16.0,-207.0,126.0,67.0,7.0,-17.0,24.0,-865.0,546.0
15.0,-206.0,128.0,68.0,6.0,-16.0,27.0,-862.0,547.0
13.0,-209.0,130.0,68.0,7.0,-15.0,22.0,-859.0,549.0
18.0,-210.0,133.0,69.0,7.0,-16.0,27.0,-863.0,546.0
14.0,-206.0,133.0,72.0,7.0,-15.0,30.0,-866.0,549.0
16.0,-208.0,130.0,72.0,5.0,-17.0,27.0,-862.0,544.0
18.0,-209.0,129.0,74.0,6.0,-18.0,27.0,-862.0,548.0
19.0,-208.0,130.0,75.0,6.0,-18.0,25.0,-861.0,537.0
18.0,-210.0,133.0,75.0,6.0,-18.0,28.0,-865.0,547.0
14.0,-209.0,129.0,75.0,7.0,-18.0,23.0,-859.0,540.0
19.0,-211.0,127.0,74.0,8.0,-18.0,22.0,-863.0,540.0
18.0,-210.0,129.0,74.0,9.0,-17.0,26.0,-865.0,542.0
16.0,-208.0,129.0,74.0,8.0,-16.0,26.0,-870.0,545.0
17.0,-208.0,129.0,75.0,9.0,-16.0,27.0,-865.0,547.0
14.0,-207.0,129.0,75.0,12.0,-15.0,24.0,-862.0,540.0
15.0,-210.0,130.0,76.0,13.0,-14.0,27.0,-865.0,540.0
15.0,-209.0,132.0,75.0,15.0,-12.0,26.0,-867.0,536.0
16.0,-207.0,129.0,74.0,15.0,-12.0,27.0,-869.0,548.0
19.0,-211.0,133.0,74.0,17.0,-10.0,23.0,-870.0,541.0
16.0,-210.0,127.0,72.0,18.0,-9.0,26.0,-868.0,542.0
17.0,-211.0,131.0,71.0,19.0,-10.0,24.0,-873.0,545.0
9.0,-214.0,130.0,70.0,19.0,-8.0,27.0,-872.0,552.0
15.0,-210.0,129.0,69.0,20.0,-9.0,28.0,-873.0,546.0
15.0,-209.0,133.0,69.0,19.0,-9.0,29.0,-871.0,545.0
17.0,-208.0,130.0,68.0,17.0,-7.0,30.0,-869.0,546.0
18.0,-208.0,133.0,67.0,17.0,-10.0,25.0,-872.0,546.0
19.0,-210.0,132.0,66.0,18.0,-11.0,31.0,-867.0,549.0
16.0,-207.0,130.0,65.0,16.0,-10.0,29.0,-863.0,547.0
15.0,-208.0,135.0,63.0,17.0,-10.0,31.0,-861.0,543.0
17.0,-206.0,131.0,59.0,16.0,-12.0,30.0,-864.0,548.0
15.0,-204.0,133.0,57.0,16.0,-13.0,30.0,-860.0,549.0
19.0,-210.0,133.0,53.0,17.0,-14.0,28.0,-864.0,551.0
11.0,-210.0,141.0,48.0,20.0,-16.0,29.0,-862.0,548.0
14.0,-206.0,133.0,46.0,20.0,-18.0,24.0,-870.0,550.0
17.0,-208.0,130.0,44.0,22.0,-20.0,25.0,-870.0,554.0
15.0,-206.0,133.0,43.0,21.0,-18.0,28.0,-867.0,557.0
15.0,-209.0,129.0,43.0,23.0,-18.0,24.0,-862.0,554.0
16.0,-208.0,131.0,41.0,23.0,-20.0,26.0,-869.0,551.0
16.0,-209.0,132.0,43.0,21.0,-19.0,27.0,-869.0,538.0
17.0,-208.0,128.0,46.0,19.0,-17.0,29.0,-866.0,545.0
14.0,-207.0,129.0,49.0,19.0,-18.0,20.0,-867.0,540.0
19.0,-209.0,130.0,51.0,18.0,-18.0,27.0,-863.0,533.0
18.0,-208.0,128.0,53.0,19.0,-18.0,25.0,-863.0,542.0
17.0,-212.0,134.0,56.0,19.0,-20.0,26.0,-857.0,532.0
18.0,-209.0,128.0,57.0,21.0,-18.0,22.0,-864.0,533.0
17.0,-207.0,126.0,58.0,24.0,-18.0,28.0,-863.0,538.0
15.0,-204.0,127.0,61.0,28.0,-20.0,26.0,-860.0,546.0
18.0,-207.0,125.0,62.0,30.0,-20.0,25.0,-856.0,546.0
19.0,-208.0,131.0,64.0,30.0,-18.0,29.0,-860.0,551.0
17.0,-210.0,131.0,65.0,32.0,-20.0,28.0,-857.0,548.0
18.0,-209.0,133.0,67.0,34.0,-20.0,30.0,-858.0,550.0
15.0,-208.0,132.0,68.0,34.0,-20.0,24.0,-858.0,552.0
15.0,-205.0,130.0,67.0,34.0,-19.0,37.0,-857.0,551.0
19.0,-212.0,129.0,66.0,33.0,-18.0,34.0,-856.0,556.0
17.0,-207.0,131.0,63.0,32.0,-18.0,35.0,-856.0,554.0
16.0,-206.0,134.0,59.0,29.0,-20.0,29.0,-856.0,559.0
17.0,-207.0,133.0,57.0,28.0,-19.0,32.0,-858.0,554.0
17.0,-209.0,135.0,54.0,25.0,-20.0,30.0,-861.0,556.0
16.0,-206.0,133.0,52.0,22.0,-19.0,29.0,-867.0,561.0
14.0,-206.0,132.0,52.0,19.0,-18.0,27.0,-863.0,551.0
16.0,-212.0,132.0,52.0,18.0,-19.0,27.0,-866.0,558.0
17.0,-206.0,133.0,54.0,17.0,-21.0,30.0,-872.0,559.0
15.0,-206.0,129.0,57.0,13.0,-21.0,22.0,-869.0,563.0
13.0,-210.0,130.0,58.0,12.0,-20.0,29.0,-863.0,547.0
13.0,-205.0,129.0,60.0,10.0,-22.0,23.0,-868.0,558.0
16.0,-209.0,129.0,60.0,8.0,-21.0,27.0,-864.0,559.0
18.0,-210.0,131.0,61.0,7.0,-18.0,24.0,-870.0,553.0
16.0,-208.0,134.0,63.0,8.0,-20.0,24.0,-862.0,551.0
16.0,-208.0,131.0,65.0,7.0,-19.0,27.0,-862.0,546.0
15.0,-209.0,135.0,64.0,8.0,-17.0,23.0,-860.0,549.0
13.0,-207.0,133.0,64.0,9.0,-16.0,22.0,-868.0,545.0
18.0,-211.0,131.0,64.0,10.0,-15.0,30.0,-860.0,551.0
18.0,-210.0,130.0,63.0,13.0,-13.0,20.0,-860.0,549.0
13.0,-205.0,133.0,65.0,15.0,-12.0,24.0,-864.0,551.0
14.0,-205.0,134.0,67.0,16.0,-10.0,29.0,-863.0,549.0
19.0,-209.0,133.0,68.0,17.0,-11.0,23.0,-865.0,552.0
16.0,-206.0,133.0,72.0,19.0,-11.0,23.0,-868.0,550.0
19.0,-208.0,134.0,73.0,21.0,-10.0,27.0,-858.0,555.0
17.0,-209.0,133.0,74.0,21.0,-11.0,26.0,-859.0,553.0
14.0,-208.0,131.0,74.0,22.0,-10.0,33.0,-860.0,552.0
16.0,-209.0,130.0,76.0,21.0,-10.0,28.0,-863.0,549.0
16.0,-208.0,128.0,75.0,21.0,-11.0,29.0,-862.0,554.0
15.0,-210.0,133.0,74.0,22.0,-10.0,27.0,-855.0,546.0
14.0,-208.0,133.0,70.0,22.0,-13.0,22.0,-861.0,545.0
15.0,-207.0,129.0,67.0,23.0,-12.0,26.0,-857.0,545.0
16.0,-210.0,132.0,63.0,22.0,-11.0,25.0,-862.0,549.0
20.0,-212.0,128.0,61.0,21.0,-13.0,28.0,-860.0,553.0
14.0,-208.0,130.0,57.0,22.0,-13.0,18.0,-861.0,555.0
16.0,-208.0,128.0,57.0,22.0,-11.0,25.0,-863.0,553.0
15.0,-207.0,131.0,57.0,20.0,-13.0,23.0,-860.0,553.0
17.0,-209.0,132.0,57.0,19.0,-11.0,29.0,-861.0,551.0
17.0,-210.0,130.0,57.0,19.0,-11.0,29.0,-863.0,553.0
14.0,-208.0,132.0,57.0,19.0,-11.0,22.0,-863.0,549.0
15.0,-208.0,132.0,59.0,19.0,-10.0,27.0,-867.0,547.0
15.0,-206.0,133.0,61.0,18.0,-10.0,28.0,-865.0,551.0
17.0,-208.0,133.0,61.0,18.0,-10.0,22.0,-871.0,547.0
17.0,-208.0,130.0,61.0,17.0,-10.0,28.0,-866.0,551.0
16.0,-208.0,133.0,63.0,17.0,-9.0,23.0,-862.0,547.0
17.0,-209.0,131.0,63.0,16.0,-9.0,26.0,-866.0,545.0
16.0,-213.0,135.0,63.0,17.0,-10.0,24.0,-862.0,549.0
17.0,-210.0,129.0,65.0,17.0,-11.0,22.0,-862.0,549.0
15.0,-206.0,130.0,64.0,16.0,-13.0,22.0,-864.0,555.0
15.0,-208.0,133.0,66.0,17.0,-13.0,26.0,-869.0,559.0
15.0,-208.0,130.0,67.0,17.0,-13.0,21.0,-866.0,557.0
14.0,-211.0,133.0,68.0,15.0,-11.0,19.0,-856.0,550.0
17.0,-211.0,135.0,68.0,14.0,-11.0,20.0,-863.0,555.0
13.0,-204.0,137.0,68.0,13.0,-12.0,25.0,-862.0,553.0
11.0,-207.0,134.0,69.0,12.0,-12.0,21.0,-861.0,556.0
13.0,-205.0,138.0,68.0,12.0,-13.0,22.0,-865.0,559.0
16.0,-209.0,131.0,68.0,13.0,-14.0,24.0,-862.0,559.0
15.0,-209.0,132.0,68.0,11.0,-13.0,25.0,-859.0,551.0
14.0,-207.0,133.0,68.0,11.0,-12.0,22.0,-860.0,554.0
18.0,-206.0,131.0,67.0,10.0,-13.0,28.0,-858.0,553.0
17.0,-208.0,133.0,67.0,9.0,-11.0,27.0,-850.0,554.0
17.0,-208.0,133.0,67.0,9.0,-12.0,29.0,-859.0,550.0
15.0,-206.0,134.0,65.0,8.0,-13.0,25.0,-855.0,554.0
16.0,-209.0,131.0,64.0,9.0,-13.0,25.0,-857.0,560.0
15.0,-205.0,133.0,63.0,9.0,-11.0,30.0,-857.0,561.0
17.0,-208.0,135.0,60.0,10.0,-12.0,30.0,-855.0,554.0
13.0,-208.0,135.0,60.0,11.0,-12.0,33.0,-858.0,558.0
19.0,-203.0,133.0,58.0,10.0,-12.0,28.0,-858.0,555.0
16.0,-206.0,132.0,57.0,11.0,-12.0,25.0,-856.0,554.0
15.0,-206.0,131.0,57.0,11.0,-13.0,26.0,-853.0,557.0
16.0,-207.0,129.0,55.0,12.0,-12.0,28.0,-859.0,554.0
17.0,-208.0,132.0,56.0,12.0,-13.0,34.0,-859.0,551.0
18.0,-206.0,131.0,56.0,11.0,-13.0,35.0,-858.0,553.0
14.0,-207.0,133.0,56.0,10.0,-13.0,30.0,-858.0,555.0
17.0,-207.0,132.0,54.0,11.0,-15.0,29.0,-865.0,552.0
19.0,-211.0,131.0,56.0,11.0,-16.0,31.0,-856.0,553.0
16.0,-210.0,132.0,57.0,12.0,-16.0,29.0,-863.0,552.0
16.0,-208.0,130.0,56.0,12.0,-16.0,32.0,-858.0,557.0
16.0,-207.0,132.0,57.0,12.0,-16.0,27.0,-858.0,556.0
18.0,-207.0,136.0,58.0,11.0,-15.0,28.0,-859.0,553.0
17.0,-206.0,132.0,57.0,12.0,-18.0,28.0,-862.0,552.0
17.0,-209.0,132.0,56.0,13.0,-17.0,27.0,-861.0,549.0
17.0,-208.0,134.0,56.0,13.0,-16.0,27.0,-857.0,557.0
15.0,-207.0,133.0,57.0,13.0,-16.0,30.0,-861.0,561.0
17.0,-208.0,132.0,57.0,13.0,-12.0,27.0,-861.0,555.0
17.0,-210.0,130.0,56.0,14.0,-13.0,32.0,-868.0,558.0
17.0,-211.0,130.0,57.0,16.0,-13.0,32.0,-861.0,560.0
17.0,-210.0,133.0,59.0,18.0,-13.0,32.0,-863.0,555.0
20.0,-209.0,144.0,59.0,17.0,-11.0,34.0,-863.0,560.0
16.0,-207.0,134.0,59.0,17.0,-12.0,32.0,-861.0,558.0
16.0,-206.0,135.0,60.0,17.0,-12.0,29.0,-863.0,555.0
18.0,-208.0,132.0,60.0,16.0,-12.0,33.0,-864.0,560.0
17.0,-206.0,132.0,61.0,16.0,-11.0,32.0,-859.0,558.0
17.0,-207.0,132.0,61.0,15.0,-10.0,28.0,-860.0,553.0
19.0,-206.0,135.0,60.0,15.0,-10.0,32.0,-858.0,554.0
14.0,-205.0,132.0,58.0,14.0,-10.0,28.0,-861.0,558.0
14.0,-204.0,134.0,57.0,15.0,-10.0,32.0,-859.0,558.0
14.0,-203.0,134.0,54.0,15.0,-10.0,24.0,-857.0,559.0
16.0,-204.0,129.0,54.0,14.0,-11.0,28.0,-855.0,555.0
13.0,-207.0,136.0,52.0,13.0,-11.0,29.0,-861.0,556.0
16.0,-208.0,134.0,50.0,16.0,-11.0,25.0,-856.0,557.0
16.0,-208.0,132.0,48.0,16.0,-9.0,26.0,-862.0,557.0
15.0,-209.0,135.0,46.0,16.0,-9.0,21.0,-861.0,556.0
17.0,-208.0,131.0,46.0,17.0,-12.0,27.0,-870.0,558.0
14.0,-208.0,132.0,45.0,16.0,-11.0,24.0,-862.0,557.0
18.0,-209.0,135.0,45.0,14.0,-10.0,25.0,-867.0,557.0
15.0,-208.0,132.0,46.0,13.0,-10.0,29.0,-866.0,551.0
15.0,-210.0,133.0,44.0,11.0,-9.0,19.0,-864.0,546.0
13.0,-207.0,128.0,45.0,11.0,-11.0,23.0,-865.0,544.0
16.0,-213.0,132.0,48.0,11.0,-11.0,30.0,-864.0,547.0
15.0,-207.0,131.0,52.0,12.0,-13.0,29.0,-862.0,538.0
14.0,-207.0,130.0,55.0,11.0,-12.0,26.0,-859.0,549.0
16.0,-204.0,129.0,60.0,12.0,-13.0,23.0,-860.0,543.0
15.0,-208.0,127.0,65.0,14.0,-14.0,28.0,-864.0,533.0
16.0,-209.0,130.0,70.0,14.0,-14.0,27.0,-859.0,548.0
16.0,-206.0,129.0,74.0,14.0,-14.0,22.0,-857.0,551.0
17.0,-207.0,132.0,77.0,14.0,-12.0,28.0,-856.0,555.0
16.0,-208.0,130.0,83.0,16.0,-12.0,24.0,-860.0,552.0
14.0,-206.0,134.0,86.0,18.0,-9.0,24.0,-860.0,558.0
15.0,-203.0,135.0,89.0,18.0,-7.0,22.0,-858.0,558.0
18.0,-210.0,135.0,88.0,18.0,-6.0,28.0,-863.0,562.0
15.0,-206.0,134.0,89.0,17.0,-6.0,22.0,-859.0,560.0
14.0,-206.0,131.0,88.0,16.0,-5.0,23.0,-855.0,564.0
17.0,-210.0,133.0,86.0,17.0,-6.0,23.0,-852.0,569.0
17.0,-203.0,135.0,82.0,15.0,-7.0,26.0,-859.0,567.0
16.0,-209.0,136.0,79.0,16.0,-7.0,29.0,-859.0,566.0
17.0,-207.0,130.0,75.0,14.0,-8.0,26.0,-858.0,559.0
20.0,-208.0,136.0,71.0,13.0,-9.0,27.0,-860.0,565.0
16.0,-207.0,133.0,68.0,14.0,-9.0,27.0,-862.0,556.0
13.0,-205.0,132.0,64.0,14.0,-9.0,31.0,-868.0,564.0
14.0,-207.0,131.0,64.0,14.0,-9.0,29.0,-860.0,562.0
9.0,-205.0,127.0,63.0,15.0,-10.0,29.0,-863.0,561.0
15.0,-210.0,135.0,62.0,16.0,-11.0,29.0,-860.0,557.0
16.0,-204.0,134.0,62.0,15.0,-11.0,25.0,-861.0,556.0
19.0,-208.0,133.0,62.0,15.0,-12.0,28.0,-858.0,561.0
18.0,-208.0,130.0,65.0,15.0,-12.0,30.0,-857.0,555.0
15.0,-205.0,132.0,65.0,15.0,-12.0,27.0,-861.0,558.0
16.0,-206.0,134.0,65.0,16.0,-11.0,31.0,-862.0,554.0
17.0,-210.0,132.0,65.0,15.0,-13.0,30.0,-852.0,555.0
10.0,-205.0,131.0,64.0,14.0,-13.0,29.0,-855.0,555.0
16.0,-207.0,128.0,64.0,14.0,-11.0,32.0,-855.0,547.0
14.0,-208.0,134.0,62.0,14.0,-11.0,28.0,-846.0,553.0
16.0,-205.0,136.0,60.0,14.0,-12.0,32.0,-853.0,557.0
14.0,-206.0,134.0,60.0,14.0,-9.0,26.0,-848.0,552.0
14.0,-204.0,129.0,58.0,15.0,-10.0,26.0,-849.0,548.0
18.0,-207.0,131.0,59.0,14.0,-12.0,26.0,-855.0,552.0
15.0,-206.0,133.0,59.0,13.0,-8.0,24.0,-856.0,556.0
16.0,-205.0,133.0,59.0,12.0,-8.0,21.0,-859.0,556.0
17.0,-209.0,130.0,59.0,14.0,-8.0,28.0,-860.0,554.0
17.0,-202.0,136.0,58.0,13.0,-9.0,28.0,-855.0,552.0
15.0,-205.0,131.0,59.0,13.0,-10.0,26.0,-859.0,555.0
17.0,-204.0,137.0,59.0,13.0,-11.0,25.0,-855.0,557.0
15.0,-202.0,138.0,59.0,13.0,-10.0,30.0,-857.0,560.0
15.0,-211.0,132.0,59.0,14.0,-11.0,32.0,-856.0,555.0
20.0,-206.0,132.0,59.0,15.0,-10.0,26.0,-856.0,565.0
17.0,-206.0,135.0,57.0,15.0,-11.0,33.0,-857.0,561.0
19.0,-206.0,134.0,54.0,15.0,-11.0,34.0,-856.0,570.0
17.0,-203.0,134.0,53.0,16.0,-11.0,32.0,-861.0,563.0
18.0,-208.0,134.0,50.0,16.0,-10.0,29.0,-856.0,557.0
16.0,-205.0,131.0,48.0,14.0,-9.0,25.0,-862.0,561.0
19.0,-206.0,131.0,45.0,12.0,-10.0,28.0,-856.0,558.0
19.0,-211.0,131.0,44.0,11.0,-9.0,33.0,-859.0,558.0
15.0,-203.0,131.0,44.0,11.0,-9.0,27.0,-857.0,557.0
15.0,-204.0,134.0,44.0,10.0,-9.0,27.0,-858.0,557.0
12.0,-203.0,130.0,44.0,8.0,-10.0,24.0,-860.0,557.0
17.0,-206.0,132.0,45.0,7.0,-9.0,23.0,-859.0,555.0
16.0,-203.0,133.0,44.0,8.0,-8.0,25.0,-861.0,557.0
17.0,-209.0,132.0,45.0,8.0,-9.0,23.0,-855.0,555.0
15.0,-209.0,134.0,48.0,9.0,-8.0,27.0,-862.0,553.0
18.0,-208.0,132.0,48.0,8.0,-7.0,21.0,-859.0,558.0
15.0,-206.0,134.0,48.0,10.0,-8.0,29.0,-863.0,558.0
16.0,-208.0,133.0,49.0,11.0,-9.0,29.0,-860.0,558.0
12.0,-202.0,137.0,49.0,14.0,-9.0,21.0,-855.0,560.0
11.0,-203.0,135.0,51.0,14.0,-7.0,25.0,-866.0,563.0
15.0,-206.0,132.0,50.0,16.0,-9.0,23.0,-858.0,562.0
14.0,-205.0,134.0,49.0,18.0,-8.0,27.0,-856.0,565.0
13.0,-207.0,132.0,47.0,20.0,-9.0,24.0,-861.0,563.0
16.0,-209.0,136.0,46.0,21.0,-9.0,24.0,-861.0,561.0
16.0,-207.0,135.0,46.0,21.0,-8.0,24.0,-860.0,564.0
17.0,-208.0,131.0,46.0,21.0,-8.0,26.0,-857.0,564.0
18.0,-209.0,137.0,46.0,22.0,-9.0,26.0,-860.0,564.0
15.0,-209.0,131.0,44.0,21.0,-8.0,25.0,-858.0,566.0
12.0,-204.0,130.0,44.0,22.0,-9.0,31.0,-862.0,562.0
15.0,-209.0,132.0,42.0,21.0,-9.0,25.0,-861.0,561.0
17.0,-210.0,132.0,43.0,19.0,-9.0,32.0,-860.0,560.0
15.0,-208.0,133.0,42.0,20.0,-9.0,28.0,-863.0,555.0
12.0,-208.0,138.0,40.0,17.0,-12.0,27.0,-865.0,556.0
15.0,-210.0,134.0,39.0,15.0,-12.0,26.0,-861.0,562.0
15.0,-206.0,134.0,39.0,14.0,-12.0,23.0,-866.0,557.0
13.0,-208.0,132.0,40.0,13.0,-12.0,26.0,-868.0,558.0
17.0,-209.0,131.0,40.0,11.0,-13.0,25.0,-861.0,562.0
13.0,-209.0,131.0,40.0,12.0,-13.0,25.0,-863.0,559.0
17.0,-209.0,131.0,41.0,11.0,-13.0,25.0,-862.0,556.0
14.0,-206.0,131.0,40.0,12.0,-12.0,28.0,-866.0,555.0
14.0,-208.0,136.0,40.0,12.0,-12.0,28.0,-864.0,553.0
14.0,-209.0,136.0,43.0,10.0,-14.0,27.0,-864.0,563.0
19.0,-208.0,132.0,44.0,10.0,-15.0,27.0,-868.0,556.0
27.0,-205.0,131.0,44.0,11.0,-13.0,30.0,-866.0,555.0
19.0,-206.0,133.0,47.0,10.0,-15.0,32.0,-859.0,555.0
15.0,-206.0,131.0,46.0,10.0,-13.0,31.0,-862.0,553.0
18.0,-206.0,130.0,46.0,9.0,-13.0,32.0,-857.0,549.0
18.0,-206.0,132.0,46.0,7.0,-14.0,31.0,-856.0,549.0
19.0,-207.0,132.0,47.0,7.0,-14.0,34.0,-857.0,554.0
17.0,-205.0,132.0,45.0,7.0,-17.0,32.0,-849.0,556.0
17.0,-207.0,135.0,45.0,8.0,-17.0,32.0,-851.0,550.0
19.0,-203.0,132.0,44.0,7.0,-17.0,26.0,-856.0,554.0
17.0,-211.0,133.0,44.0,8.0,-17.0,31.0,-857.0,555.0
19.0,-214.0,127.0,44.0,7.0,-16.0,31.0,-856.0,554.0
16.0,-207.0,130.0,44.0,7.0,-16.0,32.0,-858.0,547.0
14.0,-204.0,132.0,44.0,6.0,-15.0,26.0,-858.0,555.0
19.0,-207.0,135.0,44.0,6.0,-14.0,29.0,-851.0,555.0
16.0,-207.0,134.0,43.0,8.0,-15.0,29.0,-864.0,552.0
17.0,-207.0,137.0,43.0,8.0,-14.0,26.0,-861.0,559.0
16.0,-209.0,135.0,41.0,10.0,-13.0,27.0,-859.0,555.0
19.0,-209.0,133.0,41.0,10.0,-14.0,31.0,-856.0,558.0
17.0,-208.0,134.0,39.0,10.0,-13.0,26.0,-858.0,557.0
17.0,-208.0,133.0,39.0,11.0,-12.0,32.0,-854.0,554.0
15.0,-206.0,132.0,38.0,12.0,-13.0,29.0,-856.0,561.0
15.0,-206.0,134.0,39.0,12.0,-13.0,30.0,-857.0,560.0
22.0,-208.0,133.0,38.0,11.0,-12.0,27.0,-855.0,556.0
18.0,-205.0,134.0,37.0,10.0,-12.0,33.0,-855.0,563.0
14.0,-203.0,134.0,35.0,11.0,-13.0,31.0,-850.0,559.0
18.0,-205.0,134.0,32.0,12.0,-16.0,29.0,-854.0,560.0
15.0,-204.0,136.0,30.0,11.0,-15.0,30.0,-856.0,561.0
15.0,-205.0,132.0,27.0,11.0,-16.0,26.0,-857.0,558.0
15.0,-207.0,136.0,26.0,10.0,-15.0,32.0,-857.0,559.0
16.0,-207.0,135.0,25.0,11.0,-17.0,25.0,-857.0,560.0
16.0,-206.0,130.0,24.0,10.0,-15.0,30.0,-856.0,559.0
14.0,-203.0,132.0,23.0,9.0,-14.0,25.0,-861.0,561.0
20.0,-211.0,137.0,23.0,9.0,-14.0,29.0,-862.0,563.0
15.0,-208.0,131.0,23.0,10.0,-13.0,26.0,-870.0,556.0
17.0,-209.0,135.0,22.0,9.0,-15.0,30.0,-871.0,564.0
17.0,-211.0,133.0,24.0,8.0,-16.0,30.0,-870.0,556.0
16.0,-208.0,131.0,26.0,8.0,-14.0,29.0,-870.0,557.0
18.0,-211.0,136.0,29.0,5.0,-16.0,31.0,-870.0,553.0
20.0,-211.0,134.0,32.0,4.0,-16.0,32.0,-873.0,546.0
17.0,-211.0,129.0,36.0,3.0,-16.0,31.0,-866.0,552.0
15.0,-208.0,133.0,39.0,2.0,-14.0,24.0,-868.0,555.0
19.0,-210.0,134.0,43.0,2.0,-13.0,27.0,-864.0,545.0
15.0,-208.0,129.0,47.0,2.0,-15.0,27.0,-858.0,548.0
14.0,-205.0,130.0,49.0,4.0,-11.0,22.0,-857.0,552.0
14.0,-208.0,132.0,52.0,6.0,-11.0,22.0,-863.0,556.0
17.0,-205.0,131.0,55.0,7.0,-10.0,24.0,-859.0,549.0
13.0,-204.0,131.0,56.0,10.0,-10.0,20.0,-856.0,558.0
14.0,-204.0,132.0,55.0,11.0,-9.0,26.0,-856.0,553.0
15.0,-207.0,135.0,55.0,11.0,-11.0,31.0,-859.0,553.0
15.0,-208.0,132.0,54.0,13.0,-8.0,25.0,-859.0,563.0
17.0,-207.0,135.0,52.0,14.0,-9.0,21.0,-862.0,562.0
17.0,-207.0,136.0,49.0,17.0,-9.0,27.0,-861.0,563.0
18.0,-207.0,133.0,47.0,18.0,-8.0,27.0,-860.0,553.0
13.0,-206.0,135.0,47.0,18.0,-11.0,31.0,-863.0,559.0
19.0,-210.0,133.0,44.0,19.0,-12.0,28.0,-865.0,552.0
16.0,-209.0,130.0,42.0,18.0,-11.0,31.0,-865.0,549.0
20.0,-207.0,131.0,40.0,17.0,-13.0,24.0,-866.0,551.0
18.0,-209.0,133.0,39.0,15.0,-13.0,30.0,-865.0,552.0
19.0,-208.0,131.0,39.0,13.0,-15.0,31.0,-872.0,551.0
16.0,-207.0,129.0,37.0,12.0,-17.0,28.0,-863.0,551.0
18.0,-209.0,129.0,37.0,10.0,-17.0,31.0,-865.0,551.0
15.0,-208.0,129.0,39.0,11.0,-17.0,30.0,-867.0,549.0
14.0,-203.0,135.0,38.0,9.0,-17.0,26.0,-860.0,548.0
18.0,-210.0,129.0,40.0,7.0,-17.0,30.0,-859.0,549.0
19.0,-208.0,130.0,41.0,6.0,-16.0,25.0,-859.0,554.0
14.0,-203.0,131.0,42.0,8.0,-13.0,34.0,-859.0,551.0
16.0,-206.0,131.0,42.0,7.0,-14.0,29.0,-851.0,551.0
19.0,-205.0,130.0,42.0,8.0,-12.0,31.0,-854.0,555.0
15.0,-202.0,130.0,39.0,7.0,-13.0,28.0,-854.0,550.0
15.0,-207.0,131.0,37.0,9.0,-11.0,28.0,-856.0,555.0
16.0,-205.0,128.0,36.0,9.0,-9.0,28.0,-857.0,544.0
17.0,-206.0,134.0,33.0,10.0,-10.0,30.0,-856.0,551.0
15.0,-203.0,131.0,30.0,9.0,-11.0,32.0,-853.0,550.0
15.0,-208.0,131.0,27.0,11.0,-11.0,29.0,-859.0,545.0
18.0,-206.0,138.0,25.0,12.0,-13.0,29.0,-856.0,550.0
14.0,-207.0,129.0,22.0,13.0,-11.0,30.0,-858.0,554.0
17.0,-208.0,135.0,20.0,15.0,-11.0,24.0,-861.0,551.0
13.0,-208.0,132.0,19.0,16.0,-12.0,25.0,-866.0,549.0
18.0,-207.0,131.0,17.0,18.0,-11.0,31.0,-864.0,555.0
17.0,-209.0,130.0,17.0,17.0,-10.0,28.0,-866.0,551.0
18.0,-210.0,130.0,15.0,19.0,-11.0,28.0,-866.0,561.0
16.0,-211.0,135.0,14.0,20.0,-10.0,30.0,-873.0,562.0
17.0,-207.0,132.0,15.0,21.0,-7.0,30.0,-866.0,562.0
16.0,-208.0,133.0,16.0,19.0,-5.0,26.0,-865.0,558.0
17.0,-208.0,134.0,15.0,16.0,-4.0,33.0,-872.0,560.0
17.0,-206.0,129.0,16.0,16.0,-3.0,29.0,-861.0,552.0
19.0,-207.0,136.0,15.0,15.0,-2.0,33.0,-862.0,557.0
20.0,-207.0,133.0,15.0,14.0,-4.0,34.0,-862.0,559.0
18.0,-208.0,135.0,11.0,13.0,-4.0,32.0,-859.0,555.0
16.0,-207.0,130.0,9.0,12.0,-8.0,26.0,-859.0,556.0
17.0,-207.0,136.0,8.0,10.0,-9.0,33.0,-860.0,549.0
15.0,-205.0,131.0,5.0,7.0,-8.0,31.0,-857.0,552.0
16.0,-203.0,130.0,2.0,5.0,-10.0,31.0,-859.0,558.0
17.0,-209.0,132.0,0.0,6.0,-11.0,30.0,-857.0,548.0
14.0,-208.0,133.0,-3.0,6.0,-11.0,23.0,-858.0,557.0
14.0,-207.0,133.0,-1.0,5.0,-13.0,26.0,-859.0,549.0
18.0,-207.0,132.0,-4.0,6.0,-13.0,27.0,-860.0,546.0
18.0,-205.0,133.0,-4.0,7.0,-14.0,25.0,-857.0,547.0
16.0,-208.0,133.0,-3.0,6.0,-13.0,23.0,-863.0,548.0
15.0,-209.0,132.0,0.0,7.0,-12.0,24.0,-867.0,549.0
16.0,-206.0,132.0,2.0,9.0,-12.0,23.0,-872.0,546.0
14.0,-207.0,132.0,4.0,10.0,-12.0,25.0,-868.0,544.0
17.0,-210.0,129.0,6.0,12.0,-12.0,29.0,-865.0,550.0
17.0,-208.0,130.0,10.0,13.0,-12.0,27.0,-866.0,545.0
15.0,-207.0,136.0,10.0,14.0,-12.0,28.0,-869.0,551.0
18.0,-209.0,129.0,12.0,15.0,-12.0,22.0,-872.0,544.0
18.0,-210.0,131.0,13.0,15.0,-12.0,24.0,-870.0,557.0
16.0,-211.0,129.0,12.0,17.0,-12.0,29.0,-860.0,545.0
18.0,-209.0,129.0,12.0,16.0,-13.0,29.0,-868.0,545.0
16.0,-207.0,129.0,11.0,16.0,-12.0,28.0,-863.0,551.0
18.0,-209.0,129.0,11.0,16.0,-13.0,32.0,-863.0,541.0
17.0,-204.0,129.0,11.0,15.0,-12.0,31.0,-863.0,548.0
16.0,-211.0,129.0,11.0,15.0,-14.0,29.0,-865.0,545.0
16.0,-209.0,131.0,12.0,14.0,-13.0,30.0,-870.0,546.0
15.0,-210.0,129.0,13.0,13.0,-14.0,25.0,-874.0,533.0
15.0,-209.0,130.0,16.0,13.0,-14.0,29.0,-871.0,537.0
17.0,-212.0,127.0,20.0,12.0,-12.0,33.0,-863.0,538.0
16.0,-206.0,129.0,23.0,12.0,-13.0,32.0,-867.0,535.0
20.0,-209.0,129.0,27.0,10.0,-13.0,28.0,-870.0,543.0
18.0,-214.0,122.0,28.0,9.0,-13.0,30.0,-866.0,538.0
20.0,-211.0,128.0,31.0,10.0,-12.0,30.0,-866.0,536.0
18.0,-211.0,129.0,33.0,7.0,-13.0,28.0,-869.0,533.0
18.0,-211.0,128.0,36.0,7.0,-11.0,29.0,-868.0,544.0
18.0,-209.0,129.0,37.0,6.0,-9.0,23.0,-870.0,539.0
19.0,-211.0,130.0,36.0,6.0,-10.0,32.0,-865.0,538.0
16.0,-207.0,130.0,37.0,6.0,-10.0,31.0,-870.0,545.0
17.0,-208.0,129.0,39.0,7.0,-12.0,32.0,-868.0,536.0
22.0,-208.0,128.0,41.0,9.0,-11.0,32.0,-871.0,537.0
14.0,-209.0,128.0,43.0,10.0,-10.0,32.0,-872.0,538.0
14.0,-202.0,129.0,44.0,11.0,-12.0,34.0,-864.0,539.0
13.0,-219.0,131.0,46.0,10.0,-10.0,29.0,-867.0,536.0
18.0,-210.0,128.0,48.0,12.0,-12.0,30.0,-862.0,538.0
19.0,-209.0,128.0,52.0,11.0,-10.0,27.0,-869.0,535.0
15.0,-210.0,130.0,55.0,12.0,-7.0,31.0,-868.0,540.0
19.0,-211.0,130.0,58.0,14.0,-8.0,30.0,-870.0,534.0
19.0,-210.0,132.0,60.0,13.0,-7.0,31.0,-866.0,538.0
18.0,-211.0,130.0,61.0,14.0,-8.0,31.0,-871.0,537.0
14.0,-210.0,126.0,64.0,15.0,-8.0,31.0,-871.0,536.0
15.0,-211.0,132.0,66.0,14.0,-7.0,31.0,-873.0,532.0
18.0,-211.0,129.0,68.0,15.0,-9.0,26.0,-865.0,536.0
18.0,-208.0,129.0,69.0,15.0,-9.0,28.0,-870.0,537.0
17.0,-212.0,135.0,70.0,16.0,-10.0,24.0,-869.0,545.0
15.0,-206.0,130.0,69.0,16.0,-9.0,31.0,-869.0,539.0
17.0,-210.0,129.0,70.0,17.0,-7.0,27.0,-873.0,544.0
17.0,-211.0,130.0,70.0,18.0,-9.0,29.0,-870.0,547.0
17.0,-209.0,134.0,69.0,19.0,-10.0,28.0,-872.0,539.0
16.0,-208.0,128.0,66.0,20.0,-10.0,33.0,-869.0,551.0
19.0,-210.0,131.0,65.0,22.0,-9.0,30.0,-870.0,548.0
17.0,-210.0,127.0,64.0,21.0,-10.0,31.0,-868.0,549.0
22.0,-207.0,133.0,63.0,23.0,-10.0,31.0,-871.0,551.0
16.0,-209.0,134.0,62.0,23.0,-11.0,34.0,-866.0,547.0
17.0,-206.0,131.0,62.0,23.0,-9.0,36.0,-867.0,550.0
19.0,-204.0,128.0,63.0,20.0,-9.0,35.0,-870.0,546.0
18.0,-210.0,130.0,63.0,19.0,-9.0,36.0,-871.0,544.0
18.0,-209.0,129.0,63.0,18.0,-10.0,35.0,-864.0,541.0
19.0,-209.0,129.0,63.0,17.0,-10.0,30.0,-865.0,541.0
16.0,-209.0,130.0,62.0,16.0,-9.0,32.0,-862.0,540.0
15.0,-208.0,126.0,63.0,14.0,-10.0,31.0,-862.0,539.0
19.0,-209.0,128.0,65.0,14.0,-10.0,26.0,-866.0,536.0
12.0,-204.0,129.0,65.0,13.0,-12.0,27.0,-868.0,546.0
19.0,-211.0,128.0,67.0,12.0,-12.0,30.0,-866.0,541.0
16.0,-207.0,128.0,66.0,12.0,-11.0,28.0,-863.0,542.0
13.0,-207.0,137.0,64.0,13.0,-12.0,24.0,-865.0,547.0
18.0,-214.0,130.0,63.0,13.0,-12.0,28.0,-871.0,550.0
15.0,-208.0,131.0,65.0,14.0,-11.0,28.0,-870.0,547.0
16.0,-210.0,132.0,64.0,16.0,-12.0,28.0,-870.0,549.0
12.0,-210.0,128.0,65.0,18.0,-10.0,26.0,-874.0,547.0
17.0,-211.0,132.0,66.0,18.0,-11.0,25.0,-871.0,551.0
18.0,-212.0,131.0,69.0,17.0,-11.0,33.0,-873.0,549.0
15.0,-208.0,129.0,72.0,15.0,-13.0,31.0,-871.0,542.0
15.0,-211.0,127.0,78.0,15.0,-10.0,21.0,-870.0,537.0
17.0,-207.0,127.0,83.0,13.0,-10.0,31.0,-872.0,543.0
13.0,-206.0,128.0,87.0,12.0,-11.0,25.0,-872.0,531.0
17.0,-211.0,126.0,91.0,13.0,-11.0,28.0,-871.0,536.0
13.0,-209.0,131.0,95.0,12.0,-8.0,25.0,-863.0,532.0
18.0,-207.0,131.0,98.0,12.0,-10.0,27.0,-867.0,542.0
18.0,-207.0,129.0,98.0,13.0,-10.0,26.0,-860.0,538.0
17.0,-210.0,128.0,99.0,14.0,-9.0,25.0,-863.0,540.0
15.0,-206.0,128.0,100.0,15.0,-8.0,26.0,-863.0,540.0
17.0,-209.0,130.0,100.0,18.0,-7.0,31.0,-862.0,549.0
18.0,-208.0,131.0,100.0,21.0,-6.0,26.0,-861.0,550.0
15.0,-206.0,132.0,99.0,22.0,-6.0,27.0,-864.0,555.0
18.0,-208.0,131.0,97.0,21.0,-7.0,28.0,-863.0,553.0
18.0,-208.0,133.0,96.0,23.0,-7.0,38.0,-868.0,552.0
20.0,-210.0,133.0,96.0,23.0,-8.0,31.0,-867.0,553.0
15.0,-212.0,132.0,95.0,22.0,-10.0,36.0,-870.0,555.0
